File: host_upload/11-13-2023/BHVO/ps_0240/ps__0240_0688241128_000rfs_shot_21.msa
#FORMAT      : EMSA/MAS spectral data file
#VERSION     : TC202v2.0 PIXL
#TITLE       : N/A
#DATE        :       Date in the format DD-MMM-YYYY, for example 07-JUL-2010
#TIME        :             The time of day at which the spectrum was recorded, in 24-hour format
#OWNER       : PIXL Flight Model       (PIXL will use this to indicate which instrument took the data.)
#NPOINTS     : 4096     Number of data points in the spectrum (This can be zero for configuration only files)
#NCOLUMNS    : 2     Number of data columns in the spectrum (This can be zero for configuration only files)
#XUNITS      : eV
#YUNITS      : COUNTS
#DATATYPE    : YY
#XPERCHAN    : 7.862, 7.881   eV per channel (separate by commas if more than one detector)
#OFFSET      : 18.5, -22.4         eV of first channel  (separate by commas if more than one detector
#SIGNALTYPE  : XRF
#YP_TEMP     : 0.728
#LIVETIME    : 36.5994, 36.5922   seconds (separate by commas if more than one detector)
#REALTIME    : 40, 40   seconds (separate by commas if more than one detector)
#SPECTRUM    : start of spectrum data
0, 0
0, 0
0, 0
0, 0
0, 0
0, 0
0, 0
0, 0
0, 0
0, 0
0, 0
0, 0
0, 0
0, 0
0, 0
0, 0
0, 0
0, 0
0, 0
0, 0
0, 0
0, 0
0, 0
0, 0
0, 0
0, 0
0, 0
0, 0
0, 0
0, 0
0, 0
0, 1
0, 0
0, 0
1, 2
1, 2
0, 3
1, 3
8, 4
8, 7
7, 9
6, 6
8, 6
7, 8
16, 15
10, 7
7, 13
5, 10
15, 13
10, 21
28, 25
41, 34
60, 64
83, 72
94, 86
76, 87
58, 54
46, 48
40, 42
77, 71
142, 125
216, 222
363, 336
434, 433
449, 461
424, 396
319, 306
252, 214
194, 198
298, 340
620, 569
1192, 1186
1934, 1933
2777, 2859
3237, 3321
3225, 3224
2670, 2711
2038, 1970
1209, 1241
762, 632
382, 374
194, 165
115, 114
70, 88
66, 71
74, 66
59, 56
45, 45
52, 35
23, 30
26, 19
24, 6
18, 23
19, 21
21, 28
33, 35
41, 49
40, 42
60, 65
50, 56
53, 49
35, 49
30, 36
34, 26
31, 33
19, 20
22, 25
30, 24
36, 43
57, 58
78, 103
116, 109
187, 203
240, 244
307, 316
341, 335
290, 287
280, 295
267, 263
224, 242
205, 184
228, 224
196, 213
166, 161
156, 156
124, 121
106, 112
78, 92
58, 55
66, 55
35, 50
53, 33
35, 23
40, 33
39, 29
40, 40
50, 59
58, 54
90, 109
118, 128
148, 133
133, 128
127, 124
91, 92
85, 84
68, 53
50, 52
35, 43
48, 49
83, 107
176, 190
369, 391
639, 712
1097, 1249
1745, 1903
2429, 2663
2996, 3145
3096, 3265
2923, 2768
2323, 2235
1754, 1575
1099, 883
621, 502
298, 262
186, 157
130, 137
173, 186
229, 265
319, 362
419, 429
451, 505
449, 482
421, 450
374, 305
248, 229
176, 141
92, 80
63, 47
40, 32
29, 31
27, 26
33, 31
47, 40
30, 45
61, 64
86, 94
148, 196
257, 298
371, 458
575, 600
734, 726
832, 855
864, 820
789, 714
618, 581
396, 396
284, 273
186, 162
135, 105
77, 68
66, 80
57, 55
65, 55
60, 70
67, 78
78, 104
98, 127
148, 141
161, 145
178, 171
168, 181
148, 150
140, 138
92, 105
85, 83
63, 71
57, 46
44, 51
44, 54
36, 49
36, 50
49, 49
43, 52
41, 47
47, 36
55, 42
53, 47
57, 37
73, 58
49, 75
73, 56
71, 65
64, 43
52, 51
51, 40
43, 50
43, 39
48, 53
45, 34
42, 38
45, 42
42, 47
34, 43
36, 50
39, 54
64, 53
55, 85
88, 97
94, 109
123, 134
147, 131
124, 126
137, 119
92, 101
88, 79
74, 71
54, 68
53, 59
69, 66
55, 65
61, 79
76, 88
124, 138
191, 221
336, 438
592, 791
1095, 1311
1670, 2205
2599, 3125
3678, 4173
4458, 4931
5083, 5261
5269, 5205
4831, 4501
3858, 3619
2972, 2643
2153, 1669
1301, 1004
747, 596
401, 310
251, 160
121, 88
82, 75
57, 66
59, 46
68, 55
58, 57
52, 56
65, 56
67, 69
70, 88
92, 104
122, 147
179, 232
294, 305
396, 402
521, 579
641, 653
756, 842
733, 826
796, 802
738, 639
600, 541
432, 383
292, 259
248, 149
147, 102
100, 58
64, 55
46, 35
30, 33
34, 27
28, 35
40, 28
27, 34
26, 40
32, 35
38, 37
30, 43
39, 43
34, 36
27, 41
21, 32
24, 32
24, 29
41, 28
33, 30
33, 30
27, 25
25, 26
39, 21
31, 31
24, 35
38, 41
25, 34
23, 33
34, 44
25, 29
36, 37
40, 34
27, 40
34, 52
41, 41
31, 46
30, 41
31, 46
36, 33
46, 23
31, 34
26, 18
31, 27
36, 34
26, 30
28, 35
34, 25
36, 35
24, 33
35, 30
24, 27
32, 40
31, 28
21, 35
34, 22
30, 37
26, 24
30, 23
34, 40
31, 34
24, 32
31, 31
18, 25
25, 28
24, 28
25, 23
25, 29
28, 23
27, 24
29, 28
19, 24
29, 38
20, 33
25, 24
26, 26
25, 27
35, 30
17, 30
25, 25
20, 33
22, 28
27, 26
19, 24
23, 24
24, 30
26, 28
27, 25
22, 24
32, 25
25, 24
23, 22
32, 25
30, 23
21, 22
24, 32
25, 20
26, 30
21, 21
19, 20
31, 19
21, 12
24, 31
27, 17
27, 20
17, 24
19, 16
18, 29
11, 20
23, 23
11, 20
23, 23
33, 14
16, 29
25, 28
25, 19
18, 18
17, 23
24, 20
22, 24
27, 23
23, 18
22, 19
18, 19
29, 9
16, 27
24, 22
22, 20
23, 12
16, 24
18, 21
17, 18
23, 24
21, 8
15, 15
23, 21
19, 20
11, 17
16, 25
16, 21
15, 17
18, 15
16, 12
16, 19
15, 24
14, 11
17, 13
20, 16
15, 16
11, 16
9, 6
11, 14
14, 13
14, 16
26, 18
18, 10
13, 13
15, 13
11, 11
15, 14
17, 16
17, 14
13, 19
17, 10
14, 14
12, 19
12, 15
16, 8
17, 9
18, 21
19, 10
8, 13
16, 15
12, 16
10, 9
10, 13
13, 15
14, 17
14, 12
13, 11
7, 18
11, 16
22, 13
14, 6
13, 22
11, 12
13, 12
12, 8
13, 18
14, 12
12, 13
11, 10
20, 15
19, 21
12, 14
12, 12
6, 4
10, 13
11, 9
10, 9
17, 8
10, 6
9, 5
8, 4
11, 11
14, 11
11, 10
12, 7
11, 9
10, 11
13, 10
9, 10
10, 8
14, 15
13, 7
6, 9
9, 7
10, 6
8, 7
15, 14
10, 13
10, 11
7, 9
10, 10
10, 11
11, 7
11, 10
8, 13
14, 10
16, 10
15, 7
8, 11
18, 12
4, 11
10, 10
13, 12
9, 7
7, 6
7, 12
5, 16
10, 10
10, 3
7, 9
7, 6
10, 7
8, 8
2, 6
13, 8
7, 11
8, 5
12, 5
6, 9
6, 6
8, 8
12, 6
6, 6
5, 6
7, 5
4, 6
8, 8
2, 3
7, 7
5, 7
6, 8
7, 6
7, 5
9, 3
4, 3
5, 7
11, 2
6, 6
3, 6
6, 6
8, 9
4, 8
5, 9
10, 6
7, 6
10, 11
6, 6
2, 4
4, 4
3, 5
8, 5
3, 5
6, 6
6, 7
6, 6
6, 10
7, 4
3, 12
6, 13
6, 2
2, 5
5, 2
7, 8
3, 5
12, 7
4, 6
6, 5
3, 4
6, 5
4, 5
3, 10
6, 4
8, 0
3, 5
3, 6
3, 4
1, 3
6, 1
3, 3
4, 4
1, 2
5, 2
2, 3
7, 3
4, 6
2, 6
2, 3
2, 4
5, 8
4, 5
3, 3
5, 3
3, 7
5, 3
4, 4
3, 4
5, 4
3, 3
3, 3
2, 0
7, 6
3, 1
3, 6
1, 1
4, 2
2, 4
5, 4
1, 0
3, 0
4, 3
1, 1
0, 1
4, 8
6, 4
4, 1
10, 4
3, 0
5, 4
3, 3
4, 4
2, 3
6, 3
6, 2
7, 4
1, 2
2, 5
2, 4
1, 5
3, 4
3, 3
5, 3
4, 5
0, 5
0, 3
3, 1
4, 1
6, 2
2, 3
2, 3
0, 3
2, 5
6, 3
1, 1
2, 1
1, 2
3, 1
1, 2
2, 2
2, 3
0, 1
5, 2
1, 3
2, 4
3, 4
3, 2
2, 1
3, 1
3, 1
1, 3
0, 1
3, 1
2, 1
2, 2
1, 1
0, 1
3, 0
3, 1
2, 1
4, 0
0, 1
2, 2
1, 2
0, 3
4, 1
1, 2
0, 2
1, 1
2, 0
3, 2
0, 3
2, 1
1, 1
2, 0
2, 2
2, 5
4, 1
0, 3
2, 1
1, 2
0, 2
0, 2
1, 2
0, 1
1, 2
1, 2
4, 2
0, 2
4, 1
2, 3
2, 5
2, 3
0, 2
1, 4
1, 0
0, 1
4, 3
1, 0
1, 2
0, 1
2, 1
0, 1
1, 2
2, 1
0, 1
3, 3
0, 0
1, 0
0, 1
0, 3
1, 0
0, 1
0, 3
0, 3
3, 0
0, 2
2, 1
2, 2
1, 3
2, 2
2, 1
3, 1
0, 2
3, 2
1, 3
2, 3
1, 0
0, 2
1, 0
0, 2
2, 2
0, 1
0, 1
2, 1
3, 3
1, 0
3, 2
0, 4
1, 2
1, 1
2, 2
0, 2
0, 3
2, 3
2, 1
2, 1
0, 3
1, 4
3, 0
1, 2
1, 2
1, 1
1, 1
1, 0
1, 0
2, 2
1, 1
0, 2
1, 0
1, 1
1, 3
1, 0
0, 1
1, 0
0, 0
1, 2
0, 0
0, 1
0, 1
1, 0
1, 2
1, 1
1, 1
0, 1
0, 0
1, 0
0, 1
1, 0
0, 0
0, 2
0, 1
0, 2
1, 0
1, 1
0, 0
0, 0
1, 0
3, 1
0, 1
1, 1
1, 1
0, 0
0, 0
1, 1
0, 1
1, 0
0, 1
0, 1
1, 2
0, 1
2, 1
0, 1
1, 3
0, 0
2, 0
0, 0
0, 1
1, 0
1, 2
1, 0
1, 2
0, 0
0, 0
1, 1
0, 0
1, 1
0, 0
0, 0
0, 0
1, 0
0, 0
0, 0
0, 1
0, 0
0, 0
0, 0
0, 0
1, 0
0, 2
0, 2
0, 0
1, 0
1, 1
0, 1
1, 0
0, 0
2, 0
0, 0
0, 1
1, 1
0, 0
0, 0
0, 0
0, 1
1, 0
0, 0
0, 0
0, 0
0, 0
2, 0
0, 0
0, 0
0, 0
0, 0
0, 0
0, 0
0, 0
0, 0
0, 0
0, 0
0, 0
0, 0
0, 0
0, 0
0, 0
0, 0
0, 0
0, 0
0, 1
1, 1
0, 0
0, 0
0, 0
0, 1
0, 0
0, 0
0, 0
1, 0
1, 0
0, 0
0, 0
0, 1
1, 1
0, 0
0, 0
0, 0
1, 2
0, 0
0, 0
0, 0
0, 0
0, 0
0, 0
0, 0
0, 2
0, 1
0, 0
0, 0
0, 0
0, 0
0, 1
0, 1
0, 0
0, 0
0, 0
1, 1
0, 0
1, 1
1, 0
0, 0
0, 1
0, 0
0, 0
0, 0
0, 0
0, 0
0, 0
1, 0
0, 0
0, 1
1, 0
0, 0
0, 0
0, 0
0, 0
0, 0
0, 0
0, 0
0, 0
0, 0
0, 0
0, 0
0, 1
1, 0
0, 0
0, 0
0, 0
0, 0
0, 0
0, 0
0, 0
0, 0
0, 0
0, 0
0, 0
0, 0
0, 0
0, 0
0, 0
0, 0
0, 0
0, 1
0, 0
0, 0
0, 0
0, 0
0, 0
0, 0
0, 0
0, 0
0, 0
0, 0
0, 0
0, 0
0, 0
0, 0
0, 0
0, 1
0, 0
0, 0
0, 0
0, 0
0, 0
0, 0
0, 0
0, 0
0, 0
0, 0
0, 0
0, 1
0, 0
0, 1
0, 0
0, 0
0, 0
0, 0
0, 0
0, 0
0, 0
0, 0
0, 0
1, 0
0, 0
0, 0
0, 0
0, 0
0, 0
0, 0
0, 0
0, 0
0, 0
0, 0
0, 0
0, 0
0, 0
0, 0
0, 0
0, 0
0, 0
0, 0
0, 0
0, 0
0, 0
0, 0
0, 0
0, 0
0, 0
0, 0
0, 0
0, 0
0, 0
0, 0
0, 0
0, 0
0, 0
0, 0
0, 0
0, 0
0, 0
0, 0
0, 0
0, 0
0, 0
0, 0
0, 0
0, 0
0, 0
0, 0
0, 0
0, 0
0, 0
0, 0
0, 0
0, 0
0, 0
0, 0
0, 0
0, 0
0, 0
0, 0
0, 1
0, 0
0, 1
0, 0
0, 0
0, 0
0, 0
0, 0
0, 0
0, 0
0, 0
0, 0
0, 0
0, 0
0, 0
0, 0
0, 0
0, 0
0, 0
0, 0
0, 0
0, 0
0, 0
0, 0
0, 0
0, 0
0, 0
0, 0
0, 0
0, 0
0, 0
0, 0
0, 0
0, 0
0, 0
0, 0
0, 0
0, 0
0, 0
0, 0
0, 0
0, 0
0, 0
0, 0
0, 0
0, 0
0, 0
0, 0
0, 0
0, 0
0, 0
0, 0
0, 0
0, 0
0, 0
0, 0
0, 0
0, 0
0, 0
0, 0
0, 0
0, 0
0, 0
0, 0
0, 0
0, 0
0, 0
0, 0
0, 0
0, 0
0, 0
0, 0
0, 0
0, 0
0, 0
0, 0
0, 0
0, 0
0, 0
0, 0
0, 0
0, 0
0, 0
0, 0
0, 0
0, 0
0, 0
0, 0
0, 0
0, 0
0, 0
0, 0
0, 0
0, 0
0, 0
0, 0
0, 0
0, 0
0, 0
0, 0
0, 0
0, 0
0, 0
0, 0
0, 0
0, 0
0, 0
0, 0
0, 0
0, 0
0, 0
0, 0
0, 0
0, 0
0, 0
0, 0
0, 0
0, 0
0, 0
0, 0
0, 0
0, 0
0, 0
0, 0
0, 0
0, 0
0, 0
0, 0
0, 0
0, 0
0, 0
0, 0
0, 0
0, 0
0, 0
0, 0
0, 0
0, 0
0, 0
0, 0
0, 0
0, 0
0, 0
0, 0
0, 0
0, 0
0, 0
0, 0
0, 0
0, 0
0, 0
0, 0
0, 0
0, 0
0, 0
0, 0
0, 0
0, 0
0, 0
0, 0
0, 0
0, 0
0, 0
0, 0
0, 0
0, 0
0, 0
0, 0
0, 0
0, 0
0, 0
0, 0
0, 0
0, 0
0, 0
0, 0
0, 0
0, 0
0, 0
0, 0
0, 0
0, 0
0, 0
0, 0
0, 0
0, 0
0, 0
0, 0
0, 0
0, 0
0, 0
0, 0
0, 0
0, 0
0, 0
0, 0
0, 0
0, 0
0, 0
0, 0
0, 0
0, 0
0, 0
0, 0
0, 0
0, 0
0, 0
0, 0
0, 0
0, 0
0, 0
0, 0
0, 0
0, 0
0, 0
0, 0
0, 0
0, 0
0, 0
0, 0
0, 0
0, 0
0, 0
0, 0
0, 0
0, 0
0, 0
0, 0
0, 0
0, 0
0, 0
0, 0
0, 0
0, 0
0, 0
0, 0
0, 0
0, 0
0, 0
0, 0
0, 0
0, 0
0, 0
0, 0
0, 0
0, 0
0, 0
0, 0
0, 0
0, 0
0, 0
0, 0
0, 0
0, 0
0, 0
0, 0
0, 0
0, 0
0, 0
0, 0
0, 0
0, 0
0, 0
0, 0
0, 0
0, 0
0, 0
#ENDOFDATA     end of spectrum data