File: host_upload/11-13-2023/BHVO/ps_0240/ps__0240_0688241128_000rfs_shot_20.msa
#FORMAT      : EMSA/MAS spectral data file
#VERSION     : TC202v2.0 PIXL
#TITLE       : N/A
#DATE        :       Date in the format DD-MMM-YYYY, for example 07-JUL-2010
#TIME        :             The time of day at which the spectrum was recorded, in 24-hour format
#OWNER       : PIXL Flight Model       (PIXL will use this to indicate which instrument took the data.)
#NPOINTS     : 4096     Number of data points in the spectrum (This can be zero for configuration only files)
#NCOLUMNS    : 2     Number of data columns in the spectrum (This can be zero for configuration only files)
#XUNITS      : eV
#YUNITS      : COUNTS
#DATATYPE    : YY
#XPERCHAN    : 7.862, 7.881   eV per channel (separate by commas if more than one detector)
#OFFSET      : 18.5, -22.4         eV of first channel  (separate by commas if more than one detector
#SIGNALTYPE  : XRF
#YP_TEMP     : 0.76
#LIVETIME    : 36.6277, 36.6034   seconds (separate by commas if more than one detector)
#REALTIME    : 40, 40   seconds (separate by commas if more than one detector)
#SPECTRUM    : start of spectrum data
0, 0
0, 0
0, 0
0, 0
0, 0
0, 0
0, 0
0, 0
0, 0
0, 0
0, 0
0, 0
0, 0
0, 0
0, 0
0, 0
0, 0
0, 0
0, 0
0, 0
0, 0
0, 0
0, 0
0, 0
0, 0
0, 0
0, 0
0, 0
0, 0
0, 0
0, 1
2, 1
0, 2
2, 0
0, 2
0, 4
2, 1
2, 3
9, 2
4, 5
4, 6
5, 6
8, 7
10, 11
9, 12
15, 14
18, 11
14, 10
13, 11
22, 15
24, 22
48, 49
65, 64
78, 94
84, 89
79, 98
83, 68
46, 43
45, 50
79, 62
158, 133
242, 232
352, 328
441, 455
435, 467
378, 393
299, 324
253, 215
195, 200
334, 291
653, 642
1195, 1209
2013, 1929
2673, 2814
3223, 3341
3247, 3406
2820, 2804
2003, 1886
1216, 1156
721, 678
407, 341
204, 190
129, 97
72, 99
77, 68
71, 54
71, 64
44, 47
48, 42
34, 29
23, 17
23, 9
24, 12
22, 20
23, 23
28, 36
36, 43
53, 64
62, 57
52, 59
59, 51
43, 46
42, 31
30, 34
13, 22
24, 26
25, 13
18, 29
42, 41
59, 63
76, 99
132, 131
183, 202
249, 273
305, 315
317, 298
288, 306
257, 271
234, 249
221, 232
224, 196
201, 216
219, 192
153, 182
139, 152
133, 115
114, 101
84, 69
75, 58
61, 39
47, 39
36, 39
37, 31
39, 34
35, 35
35, 40
45, 46
70, 68
73, 92
88, 115
134, 129
164, 130
126, 135
112, 104
91, 92
82, 56
44, 44
45, 38
54, 61
83, 93
174, 190
359, 399
626, 747
1142, 1302
1765, 1945
2398, 2517
2954, 3058
3134, 3147
2917, 2947
2439, 2185
1693, 1620
1133, 902
602, 456
345, 274
205, 147
152, 133
188, 183
235, 251
326, 341
407, 434
484, 478
436, 510
419, 408
332, 337
234, 189
155, 144
85, 88
61, 57
53, 28
29, 28
19, 33
30, 28
41, 23
51, 41
64, 54
97, 108
150, 169
258, 308
368, 477
566, 608
684, 714
813, 814
862, 802
715, 748
592, 550
444, 386
292, 275
191, 155
136, 122
103, 91
80, 69
55, 61
53, 49
59, 63
70, 66
80, 101
97, 118
147, 138
173, 192
175, 182
168, 199
168, 160
134, 144
115, 108
91, 85
67, 64
63, 53
46, 49
47, 53
39, 41
37, 48
32, 41
38, 38
43, 43
43, 49
56, 44
57, 56
67, 55
70, 73
71, 79
72, 53
79, 61
51, 56
53, 55
60, 46
43, 49
37, 43
37, 47
42, 50
41, 37
33, 47
43, 51
43, 50
45, 59
55, 61
56, 48
77, 75
99, 88
93, 113
125, 128
108, 135
148, 120
126, 119
95, 89
92, 75
80, 72
78, 64
67, 60
72, 68
47, 58
69, 66
77, 92
130, 136
161, 226
357, 438
651, 779
1161, 1328
1699, 2141
2636, 3150
3590, 4101
4436, 4907
5014, 5198
5183, 5132
4687, 4495
3964, 3571
2895, 2561
2061, 1643
1284, 1074
713, 589
448, 304
225, 139
138, 102
88, 83
65, 62
70, 54
66, 50
62, 48
47, 72
52, 72
51, 80
73, 75
85, 108
120, 143
194, 213
254, 310
404, 471
529, 553
649, 710
770, 796
800, 830
741, 720
683, 666
590, 527
444, 376
306, 278
241, 164
125, 111
91, 80
64, 41
36, 33
41, 36
30, 28
36, 32
25, 42
39, 24
36, 46
29, 32
39, 36
43, 39
38, 31
44, 33
22, 34
39, 32
43, 36
34, 32
31, 35
39, 29
26, 27
35, 32
28, 33
24, 28
31, 30
24, 23
29, 34
34, 41
20, 36
30, 31
33, 29
40, 35
27, 38
39, 47
34, 39
35, 44
34, 37
32, 38
36, 40
32, 30
49, 44
19, 37
34, 29
33, 33
35, 25
29, 25
35, 37
32, 27
33, 27
21, 27
39, 29
30, 28
25, 26
32, 30
31, 36
26, 37
24, 36
33, 36
28, 28
27, 25
37, 34
29, 30
28, 25
27, 26
21, 25
19, 26
27, 31
35, 26
27, 26
27, 33
33, 27
21, 27
21, 28
30, 30
28, 23
38, 22
27, 29
34, 17
16, 33
35, 29
32, 25
22, 23
16, 29
20, 18
21, 24
18, 28
24, 27
33, 23
23, 19
27, 25
20, 17
30, 23
21, 20
29, 15
24, 20
22, 18
18, 21
22, 27
25, 20
28, 20
24, 23
28, 25
27, 26
20, 23
11, 28
22, 32
31, 19
32, 18
21, 17
27, 14
14, 24
26, 24
20, 12
17, 26
24, 22
22, 28
22, 22
36, 17
13, 24
22, 19
23, 26
20, 21
21, 21
23, 25
19, 23
18, 21
15, 27
20, 14
19, 23
18, 17
19, 12
9, 23
19, 23
22, 18
19, 23
15, 20
24, 13
17, 11
11, 22
19, 14
12, 20
14, 19
15, 11
15, 12
14, 17
15, 12
20, 20
11, 22
13, 14
24, 13
16, 17
22, 18
13, 21
10, 16
13, 11
18, 9
9, 9
16, 13
13, 13
8, 8
12, 14
12, 13
13, 16
20, 16
15, 17
16, 20
17, 11
15, 11
10, 15
17, 13
14, 15
17, 19
18, 14
8, 14
10, 13
16, 11
16, 13
14, 12
11, 14
9, 14
10, 18
13, 17
16, 17
10, 13
4, 6
14, 6
10, 9
6, 16
11, 18
10, 10
12, 10
6, 7
11, 17
8, 17
13, 13
17, 12
8, 8
15, 11
15, 12
10, 12
10, 18
10, 8
17, 12
12, 8
10, 9
7, 9
14, 12
12, 14
14, 9
15, 14
13, 10
11, 11
10, 13
10, 13
11, 9
6, 13
10, 14
9, 7
11, 9
23, 9
8, 5
6, 9
12, 5
10, 7
12, 5
6, 16
13, 14
5, 7
10, 7
3, 13
17, 12
8, 11
7, 16
12, 11
6, 9
7, 11
5, 10
7, 8
9, 9
17, 14
11, 8
10, 12
8, 8
8, 6
6, 7
8, 12
8, 5
7, 13
5, 4
4, 8
13, 5
8, 3
5, 6
10, 4
6, 9
5, 5
7, 10
7, 5
5, 9
16, 5
7, 6
8, 8
6, 6
9, 4
11, 11
5, 6
8, 10
4, 9
10, 5
6, 8
7, 4
10, 5
8, 3
5, 1
8, 6
8, 7
5, 5
10, 5
5, 7
3, 5
7, 9
6, 5
3, 5
6, 7
7, 4
6, 7
4, 4
8, 4
4, 9
11, 11
5, 5
7, 4
6, 8
9, 4
9, 3
5, 3
3, 4
7, 0
3, 7
7, 4
7, 3
6, 4
3, 4
13, 1
2, 4
3, 5
11, 6
6, 7
5, 1
3, 7
1, 6
3, 2
4, 4
10, 1
4, 1
4, 1
4, 5
3, 2
4, 5
4, 3
1, 4
5, 4
1, 2
5, 4
3, 2
2, 3
1, 2
7, 4
1, 7
1, 6
5, 2
1, 6
5, 4
5, 0
5, 2
6, 5
2, 4
5, 2
1, 5
1, 1
4, 6
2, 3
6, 2
3, 5
7, 3
4, 2
3, 3
2, 5
0, 5
3, 3
6, 0
1, 4
3, 2
6, 3
4, 7
4, 5
4, 5
4, 2
5, 3
6, 3
4, 3
3, 5
0, 2
1, 3
2, 4
0, 4
4, 4
3, 3
1, 2
1, 3
4, 2
2, 3
2, 3
2, 5
2, 3
2, 3
5, 1
0, 4
1, 3
2, 3
1, 0
0, 1
2, 1
3, 2
2, 2
1, 3
0, 1
2, 2
1, 2
2, 2
2, 2
0, 1
3, 1
2, 6
3, 0
1, 3
0, 4
5, 4
1, 3
2, 4
2, 3
2, 2
4, 2
5, 2
2, 0
2, 5
2, 0
1, 3
2, 0
3, 4
1, 3
2, 1
1, 2
0, 0
1, 1
2, 3
1, 4
1, 1
1, 5
2, 0
1, 2
3, 4
4, 0
0, 3
3, 1
2, 2
2, 1
1, 1
1, 2
1, 2
1, 1
2, 1
4, 1
2, 3
1, 2
0, 1
2, 0
1, 0
1, 1
3, 1
3, 3
1, 1
2, 2
2, 1
2, 1
0, 2
0, 3
1, 1
1, 1
1, 5
0, 2
2, 2
3, 1
4, 1
2, 0
1, 1
0, 2
3, 1
2, 1
0, 3
1, 1
0, 1
2, 1
0, 2
1, 0
2, 1
2, 0
0, 3
0, 1
1, 1
1, 1
4, 2
1, 0
0, 1
0, 6
0, 0
1, 3
2, 1
2, 1
3, 0
0, 1
3, 2
1, 2
7, 2
1, 4
2, 2
3, 0
2, 3
2, 3
2, 1
0, 2
2, 3
0, 2
1, 1
0, 1
1, 1
1, 2
1, 0
1, 2
1, 1
1, 1
1, 0
0, 1
1, 0
1, 1
0, 1
1, 0
0, 0
1, 0
0, 0
0, 0
1, 0
0, 1
1, 0
1, 1
0, 2
1, 0
0, 2
0, 2
2, 2
1, 0
0, 2
1, 2
0, 0
2, 1
1, 0
0, 0
0, 0
0, 1
0, 1
0, 0
0, 1
0, 0
1, 0
0, 1
3, 1
0, 1
0, 0
0, 0
1, 0
0, 1
1, 0
1, 0
2, 2
2, 2
2, 2
1, 1
1, 0
0, 2
1, 0
0, 2
1, 0
1, 0
2, 1
0, 0
0, 0
0, 0
0, 1
1, 1
0, 1
0, 0
0, 1
0, 0
0, 0
0, 1
2, 1
2, 1
0, 0
0, 1
0, 0
0, 0
0, 1
0, 0
1, 1
0, 0
0, 0
0, 0
0, 0
0, 0
1, 0
0, 0
1, 1
0, 0
0, 2
1, 0
2, 0
0, 0
0, 0
1, 0
0, 0
0, 0
0, 0
0, 0
0, 1
0, 1
0, 0
1, 1
0, 1
0, 1
0, 0
0, 0
0, 0
1, 1
0, 0
0, 0
0, 1
0, 3
0, 0
0, 0
0, 0
0, 0
1, 0
0, 0
0, 1
1, 0
0, 0
0, 0
0, 0
1, 0
0, 0
0, 0
0, 1
1, 0
0, 0
1, 0
0, 0
0, 0
0, 0
0, 0
0, 1
0, 1
1, 0
0, 0
0, 0
0, 0
0, 0
0, 0
0, 0
0, 1
0, 0
0, 0
0, 0
0, 1
1, 0
0, 1
0, 0
0, 1
0, 0
1, 0
0, 0
0, 0
0, 0
0, 0
0, 1
0, 0
0, 0
0, 0
0, 0
0, 0
0, 0
0, 0
0, 0
0, 0
0, 0
0, 1
0, 0
0, 0
0, 0
0, 0
0, 0
0, 0
0, 2
0, 0
0, 0
0, 0
0, 0
0, 0
1, 0
0, 0
0, 0
0, 0
0, 1
1, 0
0, 0
0, 1
0, 0
0, 0
0, 0
0, 0
0, 0
0, 0
0, 0
0, 0
0, 0
0, 0
0, 0
0, 0
1, 0
0, 0
0, 0
0, 0
0, 0
0, 0
0, 0
0, 0
0, 0
0, 0
0, 0
0, 0
0, 0
0, 0
0, 0
0, 0
0, 0
0, 0
0, 0
0, 0
0, 0
0, 0
0, 0
0, 0
0, 0
0, 0
0, 0
0, 0
0, 0
0, 0
0, 0
0, 0
0, 0
0, 0
0, 0
0, 0
0, 0
0, 0
0, 0
0, 0
0, 1
0, 0
0, 0
0, 0
0, 0
0, 0
0, 0
0, 0
0, 0
0, 0
0, 0
0, 0
0, 0
0, 0
0, 0
0, 0
0, 0
0, 0
0, 0
0, 0
0, 0
0, 0
0, 0
0, 0
0, 0
0, 0
0, 0
0, 0
0, 0
0, 0
0, 0
0, 0
0, 0
0, 0
0, 0
0, 0
0, 0
0, 0
0, 0
0, 0
0, 0
0, 0
0, 0
0, 0
1, 0
0, 0
0, 0
0, 0
0, 0
0, 0
0, 0
0, 0
0, 0
0, 0
0, 0
0, 0
0, 0
0, 0
0, 0
0, 0
0, 0
0, 0
0, 0
0, 0
0, 0
0, 0
0, 0
0, 0
0, 0
0, 0
0, 0
0, 0
0, 0
0, 0
0, 0
0, 0
0, 0
0, 0
0, 0
0, 0
0, 0
0, 0
0, 0
0, 0
0, 0
0, 0
0, 0
0, 0
0, 0
0, 0
0, 0
0, 0
0, 0
0, 0
0, 0
0, 0
0, 0
0, 0
0, 0
0, 0
0, 0
0, 0
0, 0
0, 0
0, 0
0, 0
0, 0
0, 0
0, 0
0, 0
0, 0
0, 0
0, 0
0, 0
0, 0
0, 0
0, 0
0, 0
0, 0
0, 0
0, 0
0, 0
0, 0
0, 0
1, 0
0, 0
0, 0
0, 0
0, 0
0, 0
0, 0
0, 0
0, 0
0, 0
0, 0
0, 0
0, 0
0, 0
0, 0
0, 0
0, 0
0, 0
0, 0
0, 0
0, 0
0, 0
0, 0
0, 0
0, 0
0, 0
0, 0
0, 0
0, 0
0, 0
0, 0
0, 0
0, 0
0, 0
0, 0
0, 0
0, 0
0, 0
0, 0
0, 0
0, 0
0, 0
0, 0
0, 0
0, 0
0, 0
0, 0
0, 0
0, 0
0, 0
0, 0
0, 0
0, 0
0, 0
0, 0
0, 0
0, 0
0, 0
0, 0
0, 0
0, 0
0, 0
0, 0
0, 0
0, 0
0, 0
0, 0
0, 0
0, 0
0, 0
0, 0
0, 0
0, 0
0, 0
0, 0
0, 0
0, 0
0, 0
0, 0
0, 0
0, 0
0, 0
0, 0
0, 0
0, 0
0, 0
0, 0
0, 0
0, 0
0, 0
0, 0
0, 0
0, 0
0, 0
0, 0
0, 0
0, 0
0, 0
0, 0
0, 0
0, 0
0, 0
0, 0
0, 0
0, 0
0, 0
0, 0
0, 0
0, 0
0, 0
0, 0
0, 0
0, 0
0, 0
0, 0
0, 0
0, 0
0, 0
0, 0
0, 0
0, 0
0, 0
0, 0
0, 0
0, 0
0, 0
0, 0
0, 0
0, 0
0, 0
0, 0
0, 0
0, 0
0, 0
0, 0
0, 0
0, 0
0, 0
0, 0
0, 0
0, 0
0, 0
0, 0
0, 0
0, 0
0, 0
0, 0
0, 0
0, 0
0, 0
0, 0
0, 0
0, 0
0, 0
0, 0
0, 0
0, 0
0, 0
0, 0
0, 0
0, 0
0, 0
0, 0
0, 0
0, 0
0, 0
0, 0
0, 0
0, 0
0, 0
0, 0
0, 0
0, 0
0, 0
0, 0
0, 0
0, 0
0, 0
0, 0
0, 0
0, 0
0, 0
0, 0
0, 0
0, 0
0, 0
0, 0
0, 0
0, 0
0, 0
0, 0
0, 0
0, 0
0, 0
0, 0
0, 0
0, 0
0, 0
#ENDOFDATA     end of spectrum data