File: host_upload/11-13-2023/BHVO/ps_0240/ps__0240_0688241128_000rfs_shot_13.msa
#FORMAT      : EMSA/MAS spectral data file
#VERSION     : TC202v2.0 PIXL
#TITLE       : N/A
#DATE        :       Date in the format DD-MMM-YYYY, for example 07-JUL-2010
#TIME        :             The time of day at which the spectrum was recorded, in 24-hour format
#OWNER       : PIXL Flight Model       (PIXL will use this to indicate which instrument took the data.)
#NPOINTS     : 4096     Number of data points in the spectrum (This can be zero for configuration only files)
#NCOLUMNS    : 2     Number of data columns in the spectrum (This can be zero for configuration only files)
#XUNITS      : eV
#YUNITS      : COUNTS
#DATATYPE    : YY
#XPERCHAN    : 7.862, 7.881   eV per channel (separate by commas if more than one detector)
#OFFSET      : 18.5, -22.4         eV of first channel  (separate by commas if more than one detector
#SIGNALTYPE  : XRF
#YP_TEMP     : 0.888
#LIVETIME    : 36.6168, 36.616   seconds (separate by commas if more than one detector)
#REALTIME    : 40, 40   seconds (separate by commas if more than one detector)
#SPECTRUM    : start of spectrum data
0, 0
0, 0
0, 0
0, 0
0, 0
0, 0
0, 0
0, 0
0, 0
0, 0
0, 0
0, 0
0, 0
0, 0
0, 0
0, 0
0, 0
0, 0
0, 0
0, 0
0, 0
0, 0
0, 0
0, 0
0, 0
0, 0
0, 0
0, 0
0, 0
0, 0
0, 0
0, 0
1, 0
2, 2
1, 2
4, 2
0, 2
0, 3
3, 1
1, 4
6, 5
7, 10
9, 6
6, 15
11, 11
8, 8
8, 9
11, 8
8, 15
16, 19
31, 20
43, 38
59, 73
77, 82
95, 78
84, 74
76, 66
60, 44
48, 41
78, 76
132, 129
264, 221
337, 330
404, 453
463, 443
382, 387
289, 299
208, 212
193, 207
341, 302
680, 579
1201, 1197
2055, 1959
2756, 2833
3245, 3264
3227, 3276
2654, 2686
1932, 1876
1255, 1248
741, 660
413, 364
205, 185
118, 97
80, 87
74, 67
74, 81
50, 60
37, 39
39, 35
36, 19
14, 22
14, 21
24, 10
19, 17
32, 21
38, 31
47, 43
50, 62
65, 66
72, 64
57, 55
44, 36
45, 39
31, 29
31, 25
16, 20
13, 29
34, 29
49, 53
55, 70
80, 94
137, 149
172, 172
257, 267
307, 285
300, 325
309, 307
303, 285
260, 247
220, 244
224, 225
218, 243
193, 188
167, 162
139, 154
126, 115
98, 85
82, 82
86, 58
51, 56
37, 49
49, 41
30, 26
28, 33
31, 35
40, 41
48, 50
64, 60
90, 102
110, 118
147, 147
153, 130
142, 138
105, 106
94, 88
63, 75
58, 50
55, 39
56, 49
76, 100
169, 163
374, 440
647, 697
1177, 1247
1808, 1892
2432, 2569
2901, 3095
3025, 3289
2822, 2805
2473, 2221
1699, 1457
1032, 960
594, 524
329, 299
188, 167
146, 149
185, 213
255, 281
289, 374
446, 459
483, 493
446, 468
445, 412
334, 315
260, 232
153, 136
94, 82
66, 59
41, 33
31, 28
21, 37
34, 27
38, 32
41, 38
58, 69
110, 100
142, 187
257, 284
444, 426
564, 634
718, 826
795, 843
815, 868
706, 659
624, 590
429, 381
291, 235
194, 178
142, 137
92, 82
61, 69
59, 55
67, 49
64, 58
61, 69
91, 114
125, 107
148, 148
168, 167
164, 188
163, 189
170, 141
142, 131
118, 101
84, 82
61, 54
64, 49
40, 51
32, 43
37, 41
47, 42
45, 38
36, 40
47, 48
45, 51
53, 45
58, 54
44, 61
60, 68
58, 63
70, 58
60, 62
59, 57
42, 52
52, 62
41, 49
39, 35
37, 46
37, 44
48, 40
45, 41
51, 40
41, 53
44, 48
56, 59
70, 64
84, 76
83, 86
89, 97
135, 122
128, 113
133, 132
121, 108
119, 114
98, 84
79, 86
63, 72
55, 59
58, 56
64, 73
63, 63
92, 88
132, 142
186, 204
365, 423
644, 759
1122, 1375
1848, 2240
2637, 3148
3554, 4034
4427, 4784
4934, 5209
5070, 5025
4552, 4412
3963, 3421
2888, 2447
2018, 1717
1335, 991
736, 564
404, 306
216, 160
128, 103
89, 81
64, 49
60, 57
67, 54
72, 57
72, 67
53, 71
69, 71
82, 70
99, 95
119, 165
181, 197
245, 329
410, 422
522, 542
636, 698
763, 845
804, 814
726, 733
686, 651
585, 481
453, 408
330, 272
192, 147
127, 109
77, 68
52, 47
35, 42
41, 22
27, 33
26, 40
27, 48
41, 52
33, 29
39, 34
36, 38
35, 36
38, 30
22, 34
33, 35
39, 32
28, 33
29, 33
29, 22
34, 29
35, 29
31, 30
24, 24
28, 33
25, 33
30, 31
27, 27
26, 24
32, 42
24, 45
35, 41
42, 37
43, 33
40, 29
41, 34
41, 40
38, 51
36, 38
36, 42
37, 38
20, 39
30, 32
39, 35
38, 36
25, 33
41, 33
33, 38
29, 42
35, 32
35, 25
28, 35
40, 29
31, 36
19, 33
26, 33
27, 34
32, 47
29, 30
24, 33
26, 34
30, 24
39, 18
38, 19
32, 37
28, 31
30, 22
26, 32
22, 24
35, 32
40, 24
31, 31
24, 19
30, 23
21, 26
30, 30
22, 23
18, 36
20, 23
25, 29
23, 22
23, 39
24, 22
25, 21
23, 16
29, 24
24, 27
24, 17
17, 20
19, 29
23, 17
9, 17
22, 23
17, 29
14, 14
19, 15
24, 20
24, 21
16, 32
21, 19
26, 27
16, 21
15, 19
23, 23
26, 22
13, 27
18, 21
23, 25
21, 23
14, 18
24, 19
15, 13
21, 16
18, 19
23, 15
23, 24
21, 17
23, 30
17, 16
20, 25
18, 26
16, 20
24, 27
16, 16
31, 12
15, 19
14, 22
21, 14
16, 16
23, 23
14, 12
15, 16
17, 23
15, 19
14, 23
14, 13
15, 19
18, 11
19, 17
15, 15
13, 21
20, 18
13, 15
14, 12
12, 17
18, 14
18, 17
18, 21
16, 22
18, 12
11, 19
13, 15
28, 7
22, 17
9, 12
27, 18
15, 12
17, 16
17, 19
11, 17
18, 17
13, 17
15, 13
13, 14
16, 12
16, 10
16, 12
16, 9
11, 11
8, 13
15, 12
14, 14
20, 20
16, 13
13, 10
13, 14
21, 7
13, 10
12, 10
8, 12
14, 12
11, 10
17, 20
12, 20
11, 15
14, 18
9, 15
19, 15
9, 13
11, 14
10, 6
10, 8
10, 10
7, 20
10, 9
10, 10
9, 12
10, 12
11, 7
13, 15
5, 11
10, 9
7, 13
14, 7
11, 14
10, 9
15, 11
10, 13
18, 10
8, 8
12, 10
12, 11
11, 10
11, 12
9, 12
14, 6
8, 10
13, 8
9, 14
5, 7
8, 9
8, 5
8, 8
4, 10
4, 6
11, 7
12, 9
12, 9
11, 6
6, 9
14, 9
8, 5
17, 10
5, 16
9, 13
10, 13
13, 15
22, 8
15, 15
12, 11
12, 8
8, 9
12, 5
7, 4
8, 7
6, 10
5, 8
4, 8
5, 5
2, 3
8, 6
7, 8
12, 6
7, 5
4, 5
9, 9
4, 5
7, 6
8, 5
8, 9
2, 13
7, 2
11, 4
9, 9
6, 2
2, 7
6, 6
3, 9
5, 7
5, 5
6, 7
5, 15
4, 5
7, 6
5, 1
7, 5
5, 6
7, 5
7, 7
6, 3
6, 7
5, 5
3, 4
5, 6
6, 7
8, 5
6, 6
2, 10
7, 12
4, 5
6, 7
5, 8
5, 6
3, 4
4, 9
8, 12
5, 6
5, 7
4, 7
3, 6
3, 3
3, 8
4, 5
3, 2
9, 8
4, 8
1, 4
4, 1
6, 5
1, 8
5, 3
1, 4
6, 8
3, 3
6, 6
1, 5
6, 4
3, 8
3, 5
4, 2
1, 4
1, 7
7, 4
2, 4
4, 4
5, 5
5, 4
3, 4
6, 3
8, 3
3, 4
6, 3
4, 0
5, 4
6, 2
7, 2
4, 3
2, 4
4, 2
4, 2
2, 2
2, 4
2, 4
3, 3
5, 1
4, 1
4, 2
4, 1
5, 1
4, 5
2, 6
2, 3
2, 6
3, 4
4, 3
5, 3
0, 1
6, 1
3, 7
1, 2
2, 5
10, 6
0, 5
7, 3
5, 2
4, 4
5, 1
2, 2
2, 3
3, 2
1, 2
7, 5
5, 0
2, 1
5, 0
2, 2
3, 1
3, 0
5, 3
3, 5
2, 1
4, 1
1, 1
3, 0
1, 0
4, 3
0, 1
2, 2
0, 3
5, 1
2, 1
2, 2
5, 3
2, 2
1, 2
0, 5
1, 1
0, 2
1, 1
2, 3
0, 2
3, 0
3, 3
3, 0
4, 2
3, 6
2, 2
2, 1
4, 0
2, 1
1, 1
2, 3
1, 2
1, 3
4, 2
6, 3
3, 1
0, 0
3, 2
0, 3
2, 5
0, 0
2, 0
1, 2
0, 0
0, 1
1, 2
2, 2
4, 1
1, 1
0, 2
0, 1
0, 0
1, 1
0, 0
2, 1
3, 1
3, 0
1, 3
1, 1
2, 0
1, 0
1, 1
1, 0
2, 3
2, 0
1, 0
1, 1
2, 3
0, 1
0, 0
3, 1
2, 1
1, 0
1, 2
1, 1
0, 1
2, 2
1, 0
1, 2
0, 1
1, 3
1, 0
4, 0
1, 0
2, 0
2, 1
0, 2
1, 1
1, 2
0, 1
0, 1
1, 0
1, 0
4, 3
2, 0
2, 2
1, 1
3, 1
0, 0
4, 2
2, 2
0, 1
3, 0
1, 1
2, 0
2, 5
1, 0
2, 0
0, 0
1, 0
4, 2
2, 2
1, 2
1, 0
2, 2
1, 1
1, 2
0, 1
3, 0
0, 1
0, 1
0, 1
0, 1
0, 0
0, 1
1, 0
0, 2
0, 2
0, 1
0, 0
1, 1
0, 0
1, 1
0, 0
0, 1
1, 1
0, 2
0, 0
0, 0
1, 1
0, 1
0, 2
0, 0
0, 1
0, 0
0, 1
1, 0
0, 1
0, 0
0, 1
0, 0
1, 1
1, 1
0, 1
1, 0
0, 0
2, 0
0, 0
0, 2
1, 0
2, 0
2, 2
0, 0
2, 0
4, 0
3, 2
1, 0
2, 0
2, 2
0, 0
1, 2
0, 1
2, 1
0, 0
0, 1
0, 1
0, 2
0, 0
1, 0
1, 0
1, 1
1, 1
0, 0
0, 1
0, 1
0, 0
1, 0
1, 0
0, 0
0, 0
0, 1
0, 2
1, 1
0, 0
0, 0
1, 1
0, 1
0, 0
0, 0
0, 1
2, 0
1, 0
1, 1
1, 1
0, 0
0, 0
1, 0
1, 0
1, 2
0, 0
0, 1
0, 0
0, 0
1, 0
1, 1
0, 0
1, 0
1, 0
0, 0
0, 0
0, 0
0, 0
0, 1
0, 0
0, 0
0, 1
0, 0
0, 0
0, 0
0, 1
0, 0
0, 0
0, 0
0, 0
1, 0
2, 0
0, 0
0, 0
0, 0
0, 0
0, 0
0, 0
0, 1
0, 1
0, 0
0, 1
0, 0
1, 0
0, 0
0, 0
0, 0
0, 0
1, 0
0, 0
1, 0
0, 0
0, 0
0, 0
0, 1
0, 0
0, 0
0, 0
0, 1
0, 1
0, 0
0, 0
0, 0
0, 0
0, 0
0, 0
0, 1
1, 0
0, 0
0, 0
0, 0
0, 0
1, 1
0, 0
0, 0
0, 0
0, 1
0, 0
2, 0
0, 0
0, 0
1, 0
0, 1
0, 1
0, 0
0, 1
0, 0
0, 0
0, 0
0, 0
0, 0
0, 0
0, 0
0, 0
0, 0
0, 0
0, 0
0, 0
0, 0
1, 0
0, 0
2, 0
0, 0
0, 0
0, 0
0, 0
0, 0
0, 0
0, 0
0, 0
0, 0
0, 0
0, 0
0, 0
0, 0
0, 0
0, 0
0, 0
0, 0
1, 1
0, 0
0, 0
1, 0
0, 0
0, 0
0, 0
0, 0
0, 0
1, 0
0, 0
0, 0
1, 0
0, 0
0, 0
0, 0
0, 0
0, 0
0, 0
0, 0
0, 0
0, 0
0, 0
0, 0
0, 0
1, 0
0, 0
0, 0
0, 0
0, 0
0, 0
0, 0
0, 0
0, 0
0, 1
0, 0
0, 0
1, 0
0, 0
0, 0
0, 0
0, 0
0, 0
0, 0
0, 0
0, 0
0, 0
0, 0
0, 0
0, 0
0, 0
0, 0
0, 0
0, 0
0, 0
0, 0
0, 0
0, 0
0, 0
0, 0
0, 0
0, 0
0, 0
0, 0
0, 0
0, 0
0, 0
0, 0
0, 0
0, 0
0, 0
0, 0
0, 0
0, 0
0, 1
0, 0
0, 0
0, 0
0, 0
0, 0
0, 0
0, 0
0, 0
0, 0
0, 0
0, 0
0, 0
0, 0
0, 0
0, 0
0, 0
0, 0
0, 0
0, 1
0, 0
0, 0
0, 0
0, 0
0, 0
0, 0
0, 0
0, 0
0, 0
0, 0
0, 0
0, 0
0, 0
0, 0
0, 0
0, 0
0, 0
0, 0
0, 0
0, 0
0, 0
0, 0
0, 0
0, 0
0, 0
0, 0
0, 0
0, 0
0, 0
0, 0
0, 0
0, 0
0, 0
0, 0
0, 0
0, 0
0, 0
0, 0
0, 0
0, 0
0, 0
0, 0
0, 0
0, 0
0, 0
0, 0
0, 0
0, 0
0, 0
0, 0
0, 0
0, 0
0, 0
0, 0
0, 0
0, 0
0, 0
0, 0
0, 0
0, 0
0, 0
0, 0
0, 0
0, 0
0, 0
0, 0
0, 0
0, 0
0, 0
0, 0
0, 0
0, 0
0, 0
0, 0
0, 0
0, 0
0, 0
0, 0
0, 0
0, 0
0, 0
0, 0
0, 0
0, 0
0, 0
0, 0
0, 0
0, 0
0, 0
0, 0
0, 0
0, 0
0, 0
0, 0
0, 0
0, 0
0, 0
0, 0
0, 0
0, 0
0, 0
0, 0
0, 0
0, 0
0, 0
0, 0
0, 0
0, 0
0, 0
0, 0
0, 0
0, 0
0, 0
0, 0
0, 0
0, 0
0, 0
1, 0
0, 0
0, 0
0, 0
0, 0
0, 0
0, 0
0, 0
0, 0
0, 0
0, 0
0, 0
0, 0
0, 0
0, 0
0, 0
0, 0
0, 0
0, 0
0, 0
0, 0
0, 0
0, 0
0, 0
0, 0
0, 0
0, 0
0, 0
0, 0
0, 0
0, 0
0, 0
0, 0
0, 0
0, 0
0, 0
0, 0
0, 0
0, 0
0, 0
0, 0
0, 0
0, 0
0, 0
0, 0
0, 0
0, 0
0, 0
0, 0
0, 0
0, 0
0, 0
0, 0
0, 0
0, 0
0, 0
0, 0
0, 0
0, 0
0, 0
0, 0
0, 0
0, 0
0, 0
0, 0
0, 0
0, 0
0, 0
0, 0
0, 0
0, 0
0, 0
0, 0
0, 0
0, 0
0, 0
0, 0
0, 0
0, 0
0, 0
0, 0
0, 0
0, 0
0, 0
0, 0
0, 0
0, 0
0, 0
0, 0
0, 0
0, 0
0, 0
0, 0
0, 0
0, 0
0, 0
0, 0
0, 0
0, 0
0, 0
0, 0
0, 0
0, 0
0, 0
0, 0
0, 0
0, 0
0, 0
0, 0
0, 0
0, 0
0, 0
0, 0
0, 0
0, 0
0, 0
0, 0
0, 0
0, 0
0, 0
0, 0
0, 0
0, 0
0, 0
0, 0
0, 0
0, 0
0, 0
0, 0
0, 0
0, 0
0, 0
0, 0
0, 0
0, 0
0, 0
0, 0
0, 0
0, 0
0, 0
0, 0
0, 0
0, 0
0, 0
0, 0
#ENDOFDATA     end of spectrum data