File: host_upload/11-13-2023/BHVO/ps_0240/ps__0240_0688241128_000rfs_shot_24.msa
#FORMAT      : EMSA/MAS spectral data file
#VERSION     : TC202v2.0 PIXL
#TITLE       : N/A
#DATE        :       Date in the format DD-MMM-YYYY, for example 07-JUL-2010
#TIME        :             The time of day at which the spectrum was recorded, in 24-hour format
#OWNER       : PIXL Flight Model       (PIXL will use this to indicate which instrument took the data.)
#NPOINTS     : 4096     Number of data points in the spectrum (This can be zero for configuration only files)
#NCOLUMNS    : 2     Number of data columns in the spectrum (This can be zero for configuration only files)
#XUNITS      : eV
#YUNITS      : COUNTS
#DATATYPE    : YY
#XPERCHAN    : 7.862, 7.881   eV per channel (separate by commas if more than one detector)
#OFFSET      : 18.5, -22.4         eV of first channel  (separate by commas if more than one detector
#SIGNALTYPE  : XRF
#YP_TEMP     : 0.792
#LIVETIME    : 36.6122, 36.6123   seconds (separate by commas if more than one detector)
#REALTIME    : 40, 40   seconds (separate by commas if more than one detector)
#SPECTRUM    : start of spectrum data
0, 0
0, 0
0, 0
0, 0
0, 0
0, 0
0, 0
0, 0
0, 0
0, 0
0, 0
0, 0
0, 0
0, 0
0, 0
0, 0
0, 0
0, 0
0, 0
0, 0
0, 0
0, 0
0, 0
0, 0
0, 0
0, 0
0, 0
0, 0
0, 0
0, 0
0, 0
1, 0
1, 1
1, 2
2, 0
1, 1
5, 2
4, 2
6, 3
3, 5
5, 5
8, 8
8, 11
9, 14
14, 10
13, 9
12, 13
8, 12
19, 8
20, 12
26, 25
38, 44
82, 68
87, 83
90, 65
76, 85
58, 57
49, 45
46, 52
69, 73
143, 133
251, 232
336, 353
441, 371
419, 420
410, 425
299, 312
212, 202
210, 188
277, 284
685, 644
1210, 1138
2025, 1955
2761, 2949
3299, 3407
3272, 3317
2832, 2704
2013, 1933
1260, 1223
725, 622
374, 347
210, 195
103, 117
95, 75
78, 70
52, 76
41, 62
46, 50
45, 49
31, 35
22, 16
20, 21
16, 10
27, 16
25, 26
33, 31
30, 35
43, 41
54, 75
67, 70
53, 49
47, 47
32, 31
39, 31
16, 32
18, 28
21, 25
35, 27
33, 38
56, 50
95, 80
131, 152
201, 193
259, 268
324, 319
325, 318
322, 287
316, 294
280, 270
227, 202
238, 235
210, 207
188, 209
177, 169
145, 145
111, 128
112, 97
90, 78
86, 64
51, 61
44, 39
39, 49
41, 33
28, 41
34, 25
27, 38
60, 49
67, 68
91, 72
113, 100
123, 157
136, 153
123, 112
120, 95
115, 115
54, 60
53, 45
44, 35
41, 59
96, 80
179, 186
312, 393
623, 718
1123, 1301
1798, 1997
2370, 2642
2933, 3122
3057, 3212
2872, 2816
2263, 2226
1754, 1546
1054, 949
625, 514
336, 259
196, 168
130, 165
148, 170
234, 278
320, 346
401, 479
460, 498
476, 440
397, 404
378, 311
233, 213
158, 129
99, 99
67, 50
53, 27
27, 30
29, 34
37, 27
41, 20
47, 40
74, 79
93, 81
142, 180
254, 311
447, 442
564, 568
691, 779
803, 874
854, 822
769, 741
633, 557
407, 423
290, 240
222, 174
132, 98
92, 77
73, 65
49, 46
55, 64
73, 53
64, 81
100, 86
123, 106
147, 171
155, 196
156, 176
189, 165
162, 164
139, 147
112, 102
77, 69
81, 49
56, 56
45, 50
36, 43
31, 42
46, 35
42, 50
44, 41
56, 42
47, 52
55, 51
55, 51
64, 54
64, 71
76, 60
65, 67
60, 70
62, 60
59, 64
59, 65
41, 46
38, 44
49, 39
38, 44
40, 51
46, 36
44, 42
47, 41
50, 46
63, 58
60, 66
71, 89
87, 95
109, 110
123, 142
142, 146
112, 117
130, 124
112, 108
92, 94
81, 69
67, 79
67, 57
64, 53
67, 65
58, 64
94, 79
107, 126
204, 191
351, 369
619, 752
1074, 1316
1678, 2133
2586, 3067
3605, 4113
4499, 4748
4851, 5127
5103, 5097
4810, 4542
4047, 3581
2943, 2584
2026, 1657
1324, 957
750, 575
447, 290
222, 166
140, 108
92, 68
66, 59
60, 64
63, 48
50, 56
54, 67
63, 72
62, 65
80, 82
90, 106
115, 156
156, 213
272, 307
400, 433
511, 536
656, 673
758, 841
789, 821
792, 738
720, 685
577, 529
450, 366
344, 265
209, 177
138, 105
76, 54
43, 52
39, 47
40, 29
36, 39
31, 38
45, 28
33, 32
29, 37
44, 23
53, 25
33, 35
23, 42
40, 33
38, 44
33, 23
21, 27
21, 31
27, 28
28, 26
30, 34
30, 37
41, 36
24, 30
32, 23
32, 28
33, 30
33, 35
30, 45
27, 28
33, 24
32, 43
32, 44
36, 38
40, 26
28, 40
38, 38
34, 38
42, 30
33, 44
37, 33
31, 43
38, 38
26, 38
32, 26
31, 33
30, 23
26, 33
28, 40
21, 28
27, 19
26, 25
28, 18
27, 26
35, 25
27, 28
38, 27
22, 32
31, 34
33, 33
29, 25
27, 35
36, 29
23, 25
32, 33
25, 25
21, 34
26, 30
27, 21
35, 23
20, 22
29, 30
24, 18
26, 21
27, 27
28, 26
31, 27
22, 22
21, 32
27, 16
20, 24
33, 33
29, 23
22, 23
22, 17
31, 26
30, 27
27, 28
28, 22
22, 26
24, 19
16, 21
26, 26
21, 30
20, 20
24, 23
21, 21
14, 22
20, 24
25, 19
20, 28
13, 20
21, 26
17, 21
22, 23
11, 24
20, 25
19, 15
17, 24
25, 14
23, 26
19, 21
21, 16
18, 19
26, 19
17, 14
23, 25
18, 22
22, 23
22, 20
16, 17
22, 24
18, 27
16, 22
13, 20
22, 20
16, 17
24, 17
11, 21
18, 19
17, 17
23, 16
14, 17
19, 19
29, 17
27, 13
22, 19
17, 14
17, 19
26, 16
16, 18
19, 17
15, 21
19, 21
17, 18
26, 20
26, 16
14, 16
11, 15
10, 14
14, 9
16, 17
17, 24
13, 15
15, 10
9, 17
16, 22
19, 17
14, 19
25, 13
8, 22
11, 18
13, 10
26, 10
15, 14
10, 19
18, 16
15, 10
20, 9
20, 14
17, 7
14, 13
20, 10
19, 13
16, 14
14, 5
18, 3
9, 13
11, 20
18, 13
8, 14
14, 12
10, 12
11, 9
15, 13
12, 13
12, 5
9, 11
10, 13
9, 9
11, 14
14, 10
16, 14
8, 9
18, 10
16, 6
9, 6
10, 8
12, 14
15, 10
7, 9
13, 9
11, 11
7, 11
13, 8
11, 10
12, 7
7, 6
4, 9
8, 16
12, 12
6, 6
9, 9
9, 9
12, 13
12, 7
6, 9
13, 12
10, 10
11, 6
8, 14
9, 9
7, 12
10, 9
7, 10
15, 13
13, 8
12, 6
7, 12
12, 14
10, 10
13, 9
10, 8
11, 10
6, 9
9, 7
9, 9
19, 9
9, 8
11, 16
5, 9
8, 8
6, 8
15, 7
8, 3
10, 7
8, 9
5, 5
10, 8
5, 7
3, 8
2, 7
3, 6
9, 9
6, 2
9, 8
6, 7
3, 4
6, 10
11, 7
12, 9
5, 4
5, 4
7, 7
10, 6
3, 4
4, 5
6, 4
5, 2
8, 6
4, 7
5, 4
7, 4
7, 3
7, 4
5, 2
6, 5
7, 8
7, 6
6, 5
5, 8
7, 1
6, 7
7, 2
5, 6
3, 8
3, 6
5, 9
9, 5
4, 6
4, 7
8, 9
11, 7
3, 13
3, 0
4, 3
5, 5
6, 8
3, 6
5, 7
3, 2
2, 4
5, 2
2, 8
5, 6
4, 2
5, 3
2, 3
4, 4
6, 2
3, 3
2, 0
1, 4
4, 4
5, 4
2, 6
5, 5
4, 2
4, 6
3, 6
4, 7
3, 6
7, 2
4, 3
2, 1
1, 8
1, 3
5, 3
1, 8
5, 3
2, 7
2, 5
3, 6
3, 9
2, 5
5, 6
2, 6
5, 4
4, 1
1, 3
0, 0
2, 5
3, 3
2, 5
3, 7
3, 4
5, 2
5, 4
2, 6
0, 4
2, 5
3, 3
4, 2
3, 1
3, 1
5, 1
2, 1
3, 4
3, 2
5, 1
1, 2
1, 4
1, 1
2, 1
3, 2
4, 5
4, 1
2, 2
4, 3
3, 2
1, 1
6, 1
1, 3
3, 4
2, 4
1, 1
1, 1
4, 1
1, 2
3, 3
6, 3
0, 3
6, 1
3, 5
4, 1
0, 1
2, 4
1, 1
1, 1
5, 3
2, 4
3, 2
0, 2
2, 1
2, 1
1, 4
2, 3
2, 0
1, 0
3, 3
1, 2
1, 3
1, 2
0, 1
1, 1
1, 1
0, 2
2, 1
0, 1
3, 3
0, 2
2, 3
1, 1
1, 2
0, 1
2, 2
3, 1
2, 2
4, 1
2, 0
3, 1
3, 2
0, 1
2, 1
0, 0
0, 0
2, 1
0, 1
1, 2
0, 4
5, 4
0, 5
1, 3
1, 0
2, 0
0, 1
1, 2
0, 2
1, 3
1, 1
2, 2
2, 0
2, 0
0, 0
0, 1
0, 4
1, 2
0, 2
0, 1
1, 0
0, 0
1, 2
0, 0
1, 1
1, 2
1, 2
2, 1
1, 1
0, 2
1, 0
0, 0
2, 1
1, 2
1, 0
1, 0
0, 0
2, 1
0, 0
0, 3
3, 2
1, 1
4, 0
0, 1
2, 1
1, 1
2, 2
1, 0
1, 1
1, 4
1, 0
1, 3
2, 1
0, 2
1, 3
2, 3
0, 2
0, 0
2, 2
1, 2
2, 1
0, 2
0, 0
1, 1
2, 1
2, 3
2, 3
0, 1
2, 1
0, 0
1, 1
2, 1
2, 3
0, 0
1, 4
1, 1
1, 1
5, 0
1, 2
0, 0
0, 0
2, 0
0, 0
1, 2
1, 2
1, 2
4, 1
1, 1
2, 2
1, 3
0, 3
1, 1
0, 0
1, 0
0, 0
2, 1
0, 2
0, 0
1, 0
4, 0
2, 0
1, 0
0, 1
0, 0
0, 0
0, 1
0, 0
2, 0
0, 0
2, 0
0, 2
0, 2
0, 3
0, 0
0, 1
2, 0
0, 0
0, 1
0, 1
2, 1
0, 1
2, 1
3, 1
0, 0
2, 1
0, 1
1, 0
1, 1
1, 3
1, 0
0, 1
0, 0
0, 0
1, 0
0, 0
1, 0
0, 0
0, 0
1, 0
0, 0
0, 0
1, 1
0, 0
0, 0
0, 0
0, 0
0, 0
0, 0
2, 0
0, 1
0, 0
0, 1
0, 0
0, 1
0, 0
1, 0
0, 0
0, 0
1, 0
0, 0
0, 0
0, 0
0, 0
1, 1
0, 1
0, 0
0, 0
0, 0
0, 1
0, 0
1, 1
0, 0
0, 0
0, 0
0, 0
0, 1
0, 0
0, 1
0, 0
0, 1
0, 0
0, 0
0, 0
0, 0
0, 1
0, 1
0, 0
0, 0
0, 0
1, 0
0, 1
1, 0
0, 0
0, 0
1, 0
0, 0
0, 0
0, 0
0, 0
0, 1
0, 0
0, 0
0, 0
0, 0
0, 0
1, 0
0, 0
0, 0
0, 0
2, 1
0, 0
0, 0
0, 0
0, 1
0, 1
0, 1
0, 1
0, 0
1, 0
0, 0
0, 0
0, 0
0, 1
0, 0
0, 0
0, 0
0, 0
0, 0
0, 0
0, 0
1, 0
0, 0
0, 0
0, 0
1, 1
0, 0
0, 0
0, 0
0, 0
0, 0
0, 0
0, 0
0, 0
1, 0
0, 0
0, 1
0, 0
0, 0
0, 0
0, 0
0, 0
0, 0
0, 0
0, 0
0, 0
0, 0
3, 1
0, 1
0, 0
0, 0
0, 0
0, 0
0, 0
0, 0
0, 0
0, 1
0, 0
0, 0
0, 0
0, 0
0, 0
0, 0
0, 0
0, 0
0, 0
0, 0
0, 0
0, 0
0, 0
0, 0
0, 0
0, 0
0, 0
0, 0
0, 0
0, 0
0, 0
0, 0
0, 0
0, 1
0, 0
1, 0
0, 0
1, 0
0, 0
0, 0
0, 0
0, 0
0, 0
0, 0
0, 0
0, 0
0, 0
0, 0
0, 0
0, 0
0, 0
0, 0
1, 0
0, 0
0, 0
0, 0
0, 0
0, 0
0, 0
0, 0
0, 1
0, 0
0, 0
0, 0
0, 0
0, 0
0, 0
0, 0
0, 0
0, 0
0, 0
0, 0
0, 0
0, 0
0, 0
0, 0
0, 0
0, 0
0, 1
0, 0
0, 0
0, 0
0, 0
0, 0
0, 0
0, 0
0, 0
0, 0
0, 0
0, 0
0, 0
0, 0
0, 0
0, 0
0, 0
0, 0
0, 0
0, 0
0, 0
0, 0
0, 0
0, 0
0, 0
0, 0
0, 0
0, 0
0, 0
0, 0
0, 0
0, 0
0, 0
0, 0
0, 0
0, 0
0, 0
0, 0
0, 0
0, 0
0, 0
0, 0
0, 0
0, 0
0, 0
0, 0
0, 0
0, 0
0, 0
0, 0
0, 0
0, 0
0, 0
0, 0
0, 0
0, 0
0, 0
0, 0
0, 0
0, 0
0, 0
0, 0
0, 0
0, 0
0, 0
0, 0
0, 0
0, 0
0, 0
0, 0
0, 0
0, 0
0, 0
0, 0
0, 0
0, 0
0, 0
0, 0
0, 0
0, 0
0, 0
0, 0
0, 0
0, 0
0, 0
0, 0
0, 0
0, 0
0, 0
0, 0
0, 0
0, 0
0, 0
0, 0
0, 0
0, 0
0, 0
0, 0
0, 0
0, 0
0, 0
0, 0
0, 0
0, 0
0, 0
0, 0
0, 0
0, 0
0, 0
0, 0
0, 0
0, 0
0, 0
0, 0
0, 0
0, 0
0, 0
0, 0
0, 0
0, 0
0, 0
0, 0
0, 0
0, 0
0, 0
0, 0
0, 0
0, 0
0, 0
0, 0
0, 0
0, 0
0, 0
0, 0
0, 0
0, 0
0, 0
0, 0
0, 0
0, 0
0, 0
0, 0
0, 0
0, 0
0, 0
0, 0
0, 0
0, 0
0, 0
0, 0
0, 0
0, 0
0, 0
0, 0
0, 0
0, 0
0, 0
0, 0
0, 0
0, 0
0, 0
0, 0
0, 0
0, 0
0, 0
0, 0
0, 0
0, 0
0, 0
0, 0
0, 0
0, 0
0, 0
0, 0
0, 0
0, 0
0, 0
0, 0
0, 0
0, 0
0, 0
0, 0
0, 0
0, 0
0, 0
0, 0
0, 0
0, 0
0, 0
0, 0
0, 0
0, 0
0, 0
0, 0
0, 0
0, 0
0, 0
0, 0
0, 0
0, 0
0, 0
0, 0
0, 0
0, 0
0, 0
0, 0
0, 0
0, 0
0, 0
0, 0
0, 0
0, 0
0, 0
0, 0
0, 0
0, 0
0, 0
0, 0
0, 0
0, 0
0, 0
0, 0
0, 0
0, 0
0, 0
0, 0
0, 0
0, 0
0, 0
0, 0
0, 0
0, 0
0, 0
0, 0
0, 0
0, 0
0, 0
0, 0
0, 0
0, 0
0, 0
0, 0
0, 0
0, 0
0, 0
0, 0
0, 0
0, 0
0, 0
0, 0
0, 0
0, 0
0, 0
0, 0
0, 0
0, 0
0, 0
0, 0
0, 0
0, 0
0, 0
0, 0
0, 0
0, 0
0, 0
0, 0
0, 0
0, 0
0, 0
0, 0
0, 0
0, 0
0, 0
0, 0
0, 0
0, 0
0, 0
0, 0
0, 0
0, 0
0, 0
0, 0
0, 0
0, 0
0, 0
0, 0
0, 0
0, 0
0, 0
0, 0
0, 0
0, 0
0, 0
0, 0
0, 0
0, 0
#ENDOFDATA     end of spectrum data