File: host_upload/11-13-2023/BHVO/ps_0240/ps__0240_0688241128_000rfs_shot_18.msa
#FORMAT      : EMSA/MAS spectral data file
#VERSION     : TC202v2.0 PIXL
#TITLE       : N/A
#DATE        :       Date in the format DD-MMM-YYYY, for example 07-JUL-2010
#TIME        :             The time of day at which the spectrum was recorded, in 24-hour format
#OWNER       : PIXL Flight Model       (PIXL will use this to indicate which instrument took the data.)
#NPOINTS     : 4096     Number of data points in the spectrum (This can be zero for configuration only files)
#NCOLUMNS    : 2     Number of data columns in the spectrum (This can be zero for configuration only files)
#XUNITS      : eV
#YUNITS      : COUNTS
#DATATYPE    : YY
#XPERCHAN    : 7.862, 7.881   eV per channel (separate by commas if more than one detector)
#OFFSET      : 18.5, -22.4         eV of first channel  (separate by commas if more than one detector
#SIGNALTYPE  : XRF
#YP_TEMP     : 1.113
#LIVETIME    : 36.6245, 36.5897   seconds (separate by commas if more than one detector)
#REALTIME    : 40, 40   seconds (separate by commas if more than one detector)
#SPECTRUM    : start of spectrum data
0, 0
0, 0
0, 0
0, 0
0, 0
0, 0
0, 0
0, 0
0, 0
0, 0
0, 0
0, 0
0, 0
0, 0
0, 0
0, 0
0, 0
0, 0
0, 0
0, 0
0, 0
0, 0
0, 0
0, 0
0, 0
0, 0
0, 0
0, 0
0, 0
0, 0
0, 1
1, 1
1, 0
0, 3
2, 2
1, 1
2, 2
2, 3
7, 5
3, 5
3, 9
9, 7
8, 8
12, 8
10, 17
12, 17
14, 14
11, 19
12, 15
20, 11
20, 27
48, 40
69, 82
76, 64
108, 93
68, 73
81, 71
52, 57
57, 63
68, 61
116, 153
250, 209
328, 363
413, 442
444, 437
388, 377
312, 286
230, 220
199, 191
311, 313
617, 581
1145, 1167
1959, 1919
2718, 2844
3265, 3265
3284, 3293
2788, 2817
2080, 1881
1239, 1123
716, 661
372, 375
176, 180
141, 105
78, 85
81, 79
84, 51
62, 65
54, 40
30, 50
30, 28
24, 11
19, 14
19, 15
9, 12
17, 23
26, 29
46, 44
54, 62
58, 76
64, 51
67, 65
48, 38
51, 31
37, 33
27, 22
20, 24
26, 24
31, 26
40, 32
64, 52
70, 104
110, 137
179, 198
237, 275
324, 326
315, 302
318, 286
270, 299
242, 240
250, 211
211, 219
194, 234
194, 174
174, 179
161, 159
136, 117
106, 115
65, 70
72, 77
67, 52
39, 45
35, 34
31, 34
35, 37
36, 30
32, 37
44, 52
61, 72
65, 86
87, 129
131, 139
156, 152
129, 142
109, 112
80, 82
66, 54
45, 39
46, 38
42, 45
93, 94
178, 173
345, 424
681, 736
1129, 1304
1769, 1926
2518, 2621
2925, 3033
3152, 3151
2946, 2811
2378, 2287
1612, 1498
1097, 942
608, 471
332, 271
200, 187
146, 152
170, 174
238, 265
311, 323
423, 461
502, 443
450, 493
440, 354
331, 342
223, 209
155, 145
108, 107
64, 65
34, 42
37, 46
40, 33
30, 27
24, 60
39, 53
56, 59
107, 91
170, 165
252, 310
381, 400
532, 599
731, 783
783, 878
810, 823
794, 741
599, 582
463, 412
298, 310
176, 185
135, 125
82, 77
83, 66
63, 55
54, 74
64, 62
66, 58
85, 92
107, 114
133, 138
150, 172
164, 169
171, 176
174, 141
134, 120
118, 106
92, 71
69, 66
41, 56
38, 37
49, 36
37, 36
44, 37
47, 43
51, 38
47, 40
52, 46
37, 46
52, 64
53, 64
65, 67
80, 55
66, 62
69, 59
69, 58
51, 62
61, 47
53, 44
51, 54
48, 54
44, 37
41, 35
32, 46
46, 36
47, 46
63, 57
51, 33
58, 69
78, 84
98, 96
111, 125
103, 128
118, 130
124, 123
119, 121
113, 94
81, 74
87, 74
72, 73
54, 63
54, 54
59, 56
59, 61
90, 93
116, 124
213, 218
317, 445
648, 741
1112, 1380
1773, 2187
2662, 3018
3651, 4166
4524, 4903
5008, 5257
5050, 5161
4648, 4533
3877, 3502
2999, 2609
1943, 1715
1359, 1015
761, 533
418, 308
223, 162
136, 95
82, 77
70, 59
45, 62
71, 52
60, 51
66, 66
69, 80
55, 78
83, 73
93, 122
123, 157
190, 237
279, 329
402, 464
522, 605
617, 707
752, 815
793, 839
803, 799
742, 699
554, 583
444, 374
354, 256
211, 188
165, 105
85, 62
54, 46
37, 49
37, 35
26, 40
29, 32
38, 30
36, 38
41, 43
38, 33
29, 32
32, 38
38, 35
41, 28
31, 29
34, 31
39, 29
26, 33
15, 29
26, 25
41, 27
26, 37
33, 25
29, 34
33, 26
36, 25
38, 27
25, 34
29, 38
23, 38
38, 26
37, 34
41, 34
36, 37
43, 36
36, 35
43, 35
29, 42
34, 37
34, 31
30, 49
33, 39
38, 36
43, 51
26, 37
30, 35
27, 26
28, 29
28, 30
31, 29
31, 37
25, 27
34, 35
29, 29
24, 43
32, 27
25, 27
40, 28
38, 26
39, 30
35, 26
37, 26
30, 39
23, 30
26, 29
26, 20
21, 26
32, 35
36, 28
25, 29
31, 25
28, 24
23, 32
24, 20
25, 26
23, 17
26, 28
27, 28
25, 27
22, 25
29, 26
24, 22
27, 22
18, 23
29, 13
30, 22
23, 25
26, 24
26, 30
19, 24
19, 21
24, 25
26, 25
30, 27
24, 23
25, 27
20, 22
19, 28
23, 17
21, 26
22, 21
18, 17
22, 23
23, 27
12, 26
21, 17
15, 18
26, 22
23, 20
16, 15
17, 13
19, 23
24, 20
28, 24
13, 21
20, 11
18, 24
22, 18
28, 22
17, 17
21, 29
21, 21
19, 24
22, 25
13, 19
8, 31
23, 20
15, 21
14, 16
13, 23
11, 15
13, 20
11, 23
20, 25
25, 23
18, 17
19, 15
26, 19
9, 20
14, 22
22, 11
20, 14
14, 16
15, 16
18, 13
16, 12
14, 19
20, 27
19, 12
13, 18
17, 21
17, 23
21, 16
16, 13
15, 16
21, 17
17, 17
8, 11
17, 12
18, 12
13, 20
17, 13
13, 14
13, 14
21, 18
14, 10
14, 13
17, 13
13, 17
10, 13
17, 16
10, 15
11, 9
17, 11
14, 19
13, 16
17, 9
19, 11
18, 12
9, 9
8, 20
13, 19
11, 7
9, 12
8, 6
13, 12
16, 15
16, 13
19, 8
13, 20
13, 15
15, 14
10, 9
8, 15
10, 6
15, 11
11, 11
11, 13
11, 9
11, 9
8, 13
12, 10
8, 14
8, 10
6, 6
10, 14
8, 12
7, 13
3, 12
13, 12
13, 12
11, 9
9, 11
13, 7
8, 15
12, 5
15, 11
10, 7
13, 7
8, 12
8, 8
11, 11
3, 12
6, 20
9, 5
12, 6
12, 4
8, 9
5, 9
11, 9
3, 10
5, 9
10, 11
16, 16
10, 9
5, 15
10, 15
12, 14
13, 8
11, 8
16, 12
13, 6
7, 3
12, 8
8, 12
10, 6
11, 2
10, 3
7, 8
10, 7
16, 7
5, 5
7, 7
10, 6
7, 5
7, 11
9, 10
10, 6
8, 7
10, 10
9, 8
5, 11
11, 6
11, 4
8, 9
6, 5
11, 3
10, 6
8, 8
8, 8
7, 6
6, 11
5, 12
5, 9
1, 3
5, 7
3, 3
7, 7
3, 4
6, 8
6, 3
13, 4
4, 6
5, 7
2, 5
6, 6
6, 11
5, 9
4, 6
3, 2
6, 5
12, 8
5, 6
6, 9
10, 2
9, 7
9, 7
8, 8
3, 2
3, 5
1, 6
5, 2
6, 3
3, 2
3, 1
6, 9
5, 4
3, 9
8, 8
2, 6
4, 5
6, 1
0, 5
3, 5
4, 3
3, 4
1, 6
9, 2
8, 2
6, 2
0, 1
3, 5
10, 1
3, 3
0, 3
4, 4
3, 3
3, 4
2, 0
2, 4
2, 6
4, 4
7, 4
1, 3
4, 4
3, 4
4, 2
3, 1
2, 4
3, 3
2, 2
3, 4
2, 2
0, 6
1, 2
2, 1
4, 2
2, 2
6, 0
1, 4
2, 2
1, 4
3, 2
5, 4
3, 6
4, 3
3, 3
4, 3
6, 6
5, 2
2, 5
4, 4
5, 1
2, 5
3, 2
5, 3
5, 4
4, 3
4, 0
2, 1
2, 0
4, 3
2, 3
1, 4
3, 3
4, 5
1, 4
1, 0
2, 0
1, 1
2, 5
1, 0
2, 5
3, 0
1, 1
3, 5
5, 1
1, 1
2, 0
3, 2
0, 1
3, 2
4, 2
4, 3
1, 3
0, 3
3, 1
3, 1
1, 2
3, 2
2, 2
2, 3
4, 3
0, 0
0, 3
2, 3
0, 1
0, 0
3, 3
2, 3
0, 1
4, 5
2, 2
4, 3
2, 1
0, 0
3, 1
1, 5
3, 2
2, 2
1, 2
3, 1
2, 2
1, 0
1, 3
1, 2
2, 0
3, 3
1, 1
2, 1
1, 0
7, 2
0, 0
1, 1
2, 1
3, 1
0, 3
2, 2
2, 1
0, 2
1, 0
1, 2
0, 1
0, 1
2, 3
4, 1
2, 0
0, 2
0, 0
1, 2
3, 2
0, 1
3, 0
0, 4
1, 1
1, 1
0, 2
1, 0
2, 3
0, 0
3, 2
2, 1
3, 3
2, 0
0, 1
1, 0
2, 1
2, 3
1, 0
0, 1
3, 1
1, 1
3, 2
1, 2
3, 0
3, 1
0, 1
1, 1
2, 2
0, 6
0, 1
0, 2
3, 1
0, 2
4, 1
6, 1
2, 1
0, 3
1, 1
4, 3
0, 2
2, 1
0, 1
3, 0
0, 2
1, 2
2, 1
2, 1
2, 2
1, 0
6, 0
1, 0
1, 0
1, 1
2, 3
1, 2
2, 0
3, 3
1, 1
0, 0
0, 0
0, 0
0, 3
2, 0
1, 1
1, 0
3, 0
1, 1
0, 1
0, 1
0, 0
0, 0
2, 1
0, 1
3, 1
0, 0
0, 0
0, 0
1, 1
1, 2
1, 1
1, 0
0, 0
1, 1
0, 1
2, 0
0, 1
0, 0
0, 0
0, 2
0, 1
0, 2
0, 0
0, 2
0, 1
1, 2
2, 0
0, 3
2, 0
3, 1
1, 0
0, 1
0, 4
1, 0
1, 0
0, 1
0, 1
1, 2
0, 0
0, 2
1, 0
0, 1
0, 0
0, 0
1, 1
1, 0
1, 1
0, 0
0, 0
1, 0
0, 0
0, 0
0, 0
0, 1
0, 0
1, 0
0, 0
0, 0
1, 0
0, 1
1, 0
0, 0
1, 0
0, 0
1, 0
1, 0
1, 1
2, 0
0, 0
1, 0
0, 0
0, 1
0, 0
0, 0
0, 0
0, 1
0, 0
0, 0
0, 1
0, 0
0, 1
1, 0
0, 0
0, 0
0, 1
0, 0
0, 0
0, 0
0, 0
1, 0
0, 0
0, 1
0, 0
1, 0
0, 0
0, 0
0, 1
1, 0
1, 0
0, 0
0, 1
0, 0
0, 0
0, 0
0, 0
0, 0
0, 1
0, 0
0, 0
0, 0
0, 0
0, 0
2, 0
0, 0
0, 0
0, 0
0, 0
0, 0
0, 0
0, 1
0, 1
0, 0
0, 0
0, 0
0, 0
1, 0
0, 0
1, 0
0, 0
1, 0
0, 0
0, 0
0, 0
1, 0
0, 1
1, 0
0, 0
0, 0
0, 0
0, 0
1, 0
0, 0
0, 1
0, 0
0, 0
0, 0
1, 1
0, 0
0, 0
0, 0
0, 0
1, 0
0, 0
0, 0
0, 0
0, 0
0, 0
0, 0
0, 1
0, 0
1, 0
0, 0
0, 0
0, 0
0, 0
0, 0
0, 1
0, 0
0, 0
0, 0
0, 0
0, 0
0, 0
0, 0
0, 0
0, 0
0, 0
0, 0
0, 0
0, 0
1, 0
0, 0
0, 0
0, 0
0, 0
0, 0
0, 0
0, 0
0, 0
0, 0
0, 0
0, 0
0, 0
0, 0
0, 0
0, 0
0, 0
1, 0
0, 0
0, 0
0, 0
0, 0
0, 0
0, 0
0, 0
0, 0
0, 0
0, 0
1, 0
0, 0
0, 0
0, 0
0, 0
0, 0
0, 0
0, 0
0, 0
0, 0
0, 0
0, 0
0, 0
0, 0
0, 0
0, 0
0, 0
0, 0
0, 0
0, 0
0, 0
0, 0
0, 0
0, 0
0, 0
0, 1
0, 0
0, 0
0, 0
0, 0
0, 0
0, 0
0, 0
0, 0
0, 0
0, 0
0, 0
0, 0
0, 0
0, 0
0, 0
0, 0
0, 0
0, 0
0, 0
0, 0
0, 0
0, 0
0, 0
0, 0
0, 0
0, 0
0, 0
0, 0
0, 0
0, 0
0, 0
0, 0
0, 0
0, 0
0, 0
0, 0
0, 0
0, 0
0, 0
0, 0
0, 0
0, 0
0, 0
0, 0
0, 0
0, 0
0, 0
0, 0
0, 0
0, 0
0, 0
0, 0
0, 0
0, 0
0, 0
0, 0
0, 0
0, 0
0, 0
0, 0
0, 0
0, 0
0, 0
0, 0
0, 0
0, 0
0, 0
0, 0
0, 0
0, 0
0, 0
0, 0
0, 0
0, 0
0, 0
0, 0
0, 0
0, 0
0, 0
0, 0
0, 0
0, 0
0, 0
0, 0
0, 0
0, 0
0, 0
0, 0
0, 0
0, 0
0, 0
0, 0
1, 0
0, 0
0, 0
0, 0
0, 0
0, 0
0, 0
0, 0
0, 0
0, 0
0, 0
0, 0
0, 0
0, 0
0, 0
0, 0
0, 0
0, 0
0, 0
0, 0
0, 0
0, 0
0, 0
0, 0
0, 0
0, 0
0, 0
0, 0
0, 0
0, 0
0, 0
0, 0
0, 0
0, 0
0, 0
0, 0
0, 0
0, 0
0, 0
0, 0
0, 0
0, 0
0, 0
0, 0
0, 0
0, 0
0, 0
0, 0
0, 0
0, 0
0, 0
0, 0
0, 0
0, 0
0, 0
0, 0
0, 0
0, 0
0, 0
0, 0
0, 0
0, 0
0, 0
0, 0
0, 0
0, 0
0, 0
0, 0
0, 0
0, 0
0, 0
0, 0
0, 0
0, 0
0, 0
0, 0
0, 0
0, 0
0, 0
0, 0
0, 0
0, 0
0, 0
0, 0
0, 0
0, 0
0, 0
0, 0
0, 0
0, 0
0, 0
0, 0
0, 0
0, 0
0, 0
0, 0
0, 0
0, 0
0, 0
0, 0
0, 0
0, 0
0, 0
0, 0
0, 0
0, 0
0, 0
0, 0
0, 0
0, 0
0, 0
0, 0
0, 0
0, 0
0, 0
0, 0
0, 0
0, 0
0, 0
0, 0
0, 0
0, 0
0, 0
0, 0
0, 0
0, 0
0, 0
0, 0
0, 0
0, 0
0, 0
0, 0
0, 0
0, 0
0, 0
0, 0
0, 0
0, 0
0, 0
0, 0
0, 0
0, 0
0, 0
0, 0
0, 0
0, 0
0, 0
0, 0
0, 0
0, 0
0, 0
0, 0
0, 0
0, 0
0, 0
0, 0
0, 0
0, 0
0, 0
0, 0
0, 0
0, 0
0, 0
0, 0
0, 0
0, 0
0, 0
0, 0
0, 0
0, 0
0, 0
0, 0
0, 0
0, 0
0, 0
0, 0
0, 0
0, 0
0, 0
0, 0
0, 0
0, 0
0, 0
0, 0
0, 0
0, 0
0, 0
0, 0
0, 0
0, 0
0, 0
0, 0
0, 0
0, 0
0, 0
0, 0
0, 0
0, 0
0, 0
0, 0
0, 0
0, 0
0, 0
0, 0
0, 0
0, 0
0, 0
0, 0
0, 0
0, 0
0, 0
0, 0
0, 0
#ENDOFDATA     end of spectrum data