File: host_upload/11-13-2023/BHVO/ps_0240/ps__0240_0688241128_000rfs_shot_4.msa
#FORMAT      : EMSA/MAS spectral data file
#VERSION     : TC202v2.0 PIXL
#TITLE       : N/A
#DATE        :       Date in the format DD-MMM-YYYY, for example 07-JUL-2010
#TIME        :             The time of day at which the spectrum was recorded, in 24-hour format
#OWNER       : PIXL Flight Model       (PIXL will use this to indicate which instrument took the data.)
#NPOINTS     : 4096     Number of data points in the spectrum (This can be zero for configuration only files)
#NCOLUMNS    : 2     Number of data columns in the spectrum (This can be zero for configuration only files)
#XUNITS      : eV
#YUNITS      : COUNTS
#DATATYPE    : YY
#XPERCHAN    : 7.862, 7.881   eV per channel (separate by commas if more than one detector)
#OFFSET      : 18.5, -22.4         eV of first channel  (separate by commas if more than one detector
#SIGNALTYPE  : XRF
#YP_TEMP     : 0.536
#LIVETIME    : 36.6341, 36.6276   seconds (separate by commas if more than one detector)
#REALTIME    : 40, 40   seconds (separate by commas if more than one detector)
#SPECTRUM    : start of spectrum data
0, 0
0, 0
0, 0
0, 0
0, 0
0, 0
0, 0
0, 0
0, 0
0, 0
0, 0
0, 0
0, 0
0, 0
0, 0
0, 0
0, 0
0, 0
0, 0
0, 0
0, 0
0, 0
0, 0
0, 0
0, 0
0, 0
0, 0
0, 0
0, 0
0, 0
0, 0
0, 0
0, 2
2, 1
0, 2
0, 4
3, 0
3, 4
2, 7
6, 2
5, 6
8, 6
7, 4
7, 10
11, 12
13, 10
9, 12
8, 13
19, 17
16, 17
38, 35
46, 37
62, 67
75, 72
81, 80
69, 84
64, 44
63, 51
43, 61
93, 73
132, 118
224, 240
356, 300
426, 420
430, 412
385, 409
295, 312
244, 222
221, 197
345, 337
628, 587
1217, 1227
1969, 2031
2837, 2830
3274, 3363
3116, 3230
2698, 2802
1944, 1924
1374, 1243
689, 676
413, 359
220, 207
112, 98
82, 87
70, 78
61, 74
57, 59
44, 37
42, 31
29, 32
20, 16
20, 12
16, 3
11, 24
32, 27
22, 30
41, 47
75, 56
70, 70
62, 47
48, 60
46, 42
31, 33
37, 29
31, 23
26, 26
30, 31
27, 31
48, 32
60, 54
94, 92
139, 146
176, 245
253, 271
307, 343
312, 298
290, 294
262, 274
276, 259
222, 240
214, 213
226, 233
208, 195
203, 172
132, 148
107, 112
100, 90
107, 77
63, 70
50, 61
39, 45
40, 39
25, 29
31, 36
36, 38
35, 47
62, 48
61, 70
92, 101
112, 106
150, 151
158, 128
130, 116
113, 117
75, 78
60, 56
69, 43
48, 44
55, 58
102, 105
187, 193
363, 395
698, 725
1232, 1269
1825, 1907
2466, 2593
2945, 3045
3051, 3095
2880, 2830
2266, 2174
1684, 1524
1163, 925
636, 522
351, 262
195, 173
144, 154
183, 188
227, 251
332, 356
434, 406
489, 475
416, 467
395, 427
340, 282
240, 236
170, 140
103, 82
53, 66
55, 42
42, 32
25, 28
36, 33
40, 26
32, 41
63, 76
101, 105
164, 166
276, 301
435, 463
610, 616
681, 746
806, 816
796, 830
725, 718
585, 583
430, 373
320, 254
206, 160
116, 104
90, 84
69, 66
60, 53
47, 49
87, 64
68, 91
80, 99
108, 125
122, 143
180, 185
207, 171
179, 193
157, 154
132, 132
109, 99
94, 73
69, 68
49, 36
52, 45
53, 44
45, 36
32, 47
40, 44
32, 36
40, 44
49, 43
54, 52
44, 45
71, 64
66, 55
60, 70
65, 49
60, 71
55, 66
52, 47
44, 49
50, 35
37, 66
26, 43
40, 54
45, 28
37, 50
43, 31
43, 53
40, 45
41, 51
51, 91
64, 71
103, 90
101, 116
109, 120
129, 141
121, 123
114, 105
92, 117
89, 86
77, 82
66, 55
56, 67
55, 48
61, 69
61, 74
89, 80
113, 138
221, 230
385, 437
690, 811
1091, 1385
1837, 2238
2749, 3168
3641, 4194
4569, 4994
5053, 5311
5046, 5099
4775, 4318
3856, 3615
2949, 2518
2079, 1743
1298, 996
752, 565
415, 337
221, 161
135, 85
82, 70
64, 66
62, 44
49, 53
49, 65
36, 51
61, 59
61, 70
93, 77
109, 107
150, 164
237, 228
264, 348
352, 457
522, 575
623, 724
717, 814
814, 818
787, 794
726, 666
562, 511
476, 384
315, 249
215, 144
154, 95
91, 77
49, 45
47, 35
32, 31
40, 42
27, 43
28, 32
26, 46
29, 36
36, 38
43, 39
36, 36
47, 26
29, 27
35, 34
43, 23
23, 36
26, 33
32, 33
23, 21
23, 34
38, 37
35, 25
34, 24
36, 26
27, 30
27, 24
29, 37
31, 35
34, 33
33, 30
27, 38
25, 44
39, 27
34, 31
32, 41
40, 33
26, 36
32, 33
32, 32
22, 28
31, 29
28, 42
30, 35
29, 31
36, 33
31, 33
33, 28
34, 29
27, 37
32, 27
23, 23
27, 36
33, 27
36, 32
33, 36
39, 29
32, 30
26, 38
35, 23
22, 27
24, 30
31, 38
26, 34
26, 37
27, 34
36, 31
29, 23
19, 30
21, 23
22, 17
35, 26
16, 27
34, 25
21, 27
15, 26
26, 25
22, 22
24, 24
24, 25
28, 16
22, 30
22, 21
21, 17
25, 26
25, 19
31, 25
19, 27
22, 25
17, 25
27, 21
23, 26
20, 27
26, 15
24, 23
20, 23
21, 16
31, 27
26, 18
30, 20
24, 19
28, 17
18, 13
17, 16
25, 14
22, 19
20, 23
17, 17
16, 23
14, 22
18, 12
28, 21
16, 17
16, 19
17, 19
27, 13
19, 15
12, 26
16, 15
28, 29
19, 23
18, 18
14, 20
16, 18
31, 23
22, 25
29, 18
25, 21
17, 20
29, 17
21, 16
15, 17
21, 17
21, 18
17, 18
17, 18
16, 16
17, 14
13, 27
8, 14
19, 20
22, 20
14, 13
20, 18
10, 11
12, 19
23, 19
20, 14
10, 16
12, 20
17, 15
14, 14
14, 13
12, 12
19, 18
17, 12
14, 23
16, 19
21, 13
17, 16
11, 16
14, 18
15, 16
11, 10
15, 17
17, 5
13, 6
13, 11
17, 8
19, 9
12, 14
10, 17
12, 13
14, 17
11, 15
13, 21
17, 12
17, 8
15, 15
18, 17
9, 11
19, 15
12, 11
16, 14
11, 8
16, 12
12, 8
13, 6
14, 16
18, 14
13, 14
11, 13
15, 8
10, 9
13, 13
11, 10
11, 10
16, 10
14, 9
15, 14
17, 6
13, 11
14, 16
13, 7
9, 12
11, 15
10, 14
4, 9
10, 13
11, 9
11, 8
7, 10
8, 9
8, 8
9, 9
7, 9
9, 4
14, 7
6, 8
10, 9
9, 12
6, 16
7, 12
5, 7
11, 6
11, 12
10, 8
11, 15
10, 8
12, 8
10, 8
10, 11
7, 9
16, 10
11, 14
11, 15
10, 12
9, 11
6, 6
10, 9
5, 10
9, 4
9, 10
9, 6
10, 7
9, 7
6, 5
6, 6
7, 6
5, 6
5, 8
9, 5
9, 12
5, 7
6, 7
9, 3
10, 10
14, 8
7, 5
8, 8
5, 5
6, 11
9, 7
9, 7
8, 5
5, 8
6, 8
6, 11
8, 4
4, 8
8, 7
4, 5
3, 8
7, 5
10, 5
7, 5
5, 7
4, 9
6, 5
4, 4
2, 14
8, 2
7, 4
2, 3
5, 2
4, 8
4, 6
8, 5
6, 10
5, 9
8, 10
4, 4
13, 8
5, 7
8, 6
3, 8
5, 4
8, 7
3, 6
4, 5
2, 9
1, 6
1, 4
1, 3
6, 5
5, 4
8, 3
4, 5
1, 7
6, 2
8, 2
4, 2
6, 6
6, 5
3, 6
7, 5
5, 2
4, 0
3, 2
3, 4
4, 4
7, 6
5, 6
2, 4
3, 2
3, 1
6, 1
2, 2
3, 4
5, 8
5, 2
3, 4
2, 3
3, 5
5, 6
7, 3
2, 3
1, 1
2, 4
6, 5
0, 6
2, 2
4, 2
3, 5
5, 2
2, 2
2, 1
3, 3
0, 3
5, 1
1, 4
3, 2
3, 5
3, 4
2, 4
5, 3
3, 9
1, 4
3, 7
2, 2
1, 1
2, 6
3, 2
2, 4
5, 2
3, 1
3, 1
2, 0
2, 3
2, 2
6, 3
2, 3
5, 4
2, 3
3, 6
2, 3
1, 2
1, 5
6, 2
2, 0
0, 0
4, 2
2, 1
2, 2
3, 1
2, 0
5, 1
1, 3
2, 0
2, 2
2, 4
1, 5
0, 0
0, 2
0, 1
3, 4
2, 0
2, 2
2, 1
3, 0
2, 4
2, 2
0, 3
3, 2
1, 1
3, 1
2, 0
3, 1
1, 0
1, 2
0, 1
2, 1
1, 1
2, 1
0, 1
2, 1
1, 2
1, 1
3, 0
2, 0
1, 1
0, 0
1, 3
0, 0
5, 2
2, 2
3, 1
2, 1
0, 1
0, 2
1, 2
1, 0
1, 0
3, 1
0, 1
1, 0
1, 1
1, 1
1, 0
1, 3
3, 1
1, 1
1, 5
1, 1
1, 2
1, 2
1, 2
3, 1
0, 1
0, 3
2, 3
1, 4
1, 1
0, 1
0, 1
3, 3
0, 1
0, 1
1, 0
1, 5
2, 0
2, 2
0, 0
1, 0
0, 2
2, 0
0, 1
0, 1
0, 2
1, 2
1, 0
3, 1
2, 0
3, 2
0, 2
0, 1
2, 0
1, 1
2, 3
0, 2
2, 2
3, 3
2, 1
2, 1
0, 2
1, 1
0, 1
1, 1
1, 3
2, 0
0, 1
1, 4
0, 2
2, 2
1, 4
1, 0
1, 2
0, 1
0, 1
0, 0
0, 0
1, 1
0, 1
0, 3
0, 1
1, 1
1, 0
0, 2
0, 0
1, 0
0, 0
0, 0
1, 1
3, 1
0, 0
1, 0
0, 0
2, 2
1, 0
2, 0
0, 0
1, 0
0, 0
1, 0
0, 1
0, 1
2, 0
0, 1
0, 2
1, 0
0, 2
0, 0
1, 2
0, 1
0, 2
0, 0
0, 1
0, 1
1, 3
0, 1
1, 2
1, 2
0, 1
1, 2
1, 1
0, 1
1, 2
0, 1
1, 1
0, 0
2, 0
1, 0
0, 0
0, 0
1, 0
0, 0
1, 0
1, 0
0, 0
1, 0
0, 0
0, 1
0, 0
1, 0
0, 1
0, 3
0, 0
0, 0
1, 1
0, 0
1, 0
1, 0
1, 0
0, 0
0, 1
0, 0
0, 0
0, 0
0, 0
0, 0
0, 0
1, 0
0, 0
1, 0
0, 0
0, 1
3, 1
1, 0
0, 0
0, 0
1, 0
1, 1
0, 0
0, 0
0, 0
0, 2
1, 0
0, 0
0, 0
0, 0
1, 0
1, 0
0, 1
0, 0
0, 0
1, 1
1, 0
1, 0
0, 0
0, 0
0, 0
0, 0
0, 0
0, 1
0, 1
0, 0
1, 0
2, 0
0, 0
0, 0
0, 0
0, 0
0, 0
0, 0
0, 0
1, 0
1, 0
0, 1
0, 1
0, 0
0, 0
1, 1
0, 0
0, 0
0, 0
0, 0
0, 0
0, 0
0, 0
0, 0
0, 0
0, 0
1, 0
0, 0
0, 0
0, 0
0, 0
0, 0
0, 0
0, 0
0, 0
0, 0
0, 0
1, 0
1, 0
0, 0
0, 1
0, 0
0, 0
0, 0
0, 0
0, 0
0, 0
1, 0
0, 0
0, 0
0, 0
0, 0
0, 0
0, 0
0, 0
0, 0
1, 0
0, 0
0, 0
0, 0
0, 0
0, 0
0, 0
0, 0
0, 1
0, 0
0, 1
1, 0
0, 1
0, 0
0, 0
0, 0
0, 0
0, 0
0, 0
0, 0
0, 0
0, 0
0, 0
0, 0
0, 0
0, 0
0, 0
0, 0
0, 0
0, 0
0, 0
0, 0
0, 0
0, 0
0, 0
0, 0
0, 0
1, 0
0, 0
0, 0
1, 0
0, 0
0, 0
0, 0
0, 0
0, 0
0, 0
0, 0
0, 0
0, 0
0, 0
0, 0
0, 0
0, 0
0, 0
0, 0
0, 0
0, 0
0, 0
0, 0
0, 0
0, 0
0, 0
1, 0
0, 0
0, 0
0, 0
0, 0
0, 0
0, 0
0, 0
0, 1
0, 0
0, 0
0, 0
0, 0
0, 0
0, 0
0, 0
0, 0
0, 0
0, 0
0, 0
0, 0
0, 0
0, 0
0, 0
0, 0
0, 0
0, 0
0, 0
0, 0
0, 0
0, 0
0, 0
0, 0
0, 0
0, 0
0, 0
0, 0
0, 0
0, 0
0, 0
0, 0
0, 0
0, 0
0, 0
0, 0
0, 0
0, 0
0, 0
0, 0
0, 0
0, 0
0, 0
0, 0
0, 0
0, 0
0, 0
0, 0
0, 0
0, 0
0, 0
0, 0
0, 0
0, 0
0, 0
0, 0
0, 0
0, 0
0, 0
0, 0
0, 0
0, 0
0, 0
0, 0
0, 0
0, 0
0, 0
0, 0
0, 0
0, 0
0, 0
0, 0
0, 0
0, 0
0, 0
0, 0
0, 0
0, 0
0, 0
0, 0
0, 0
0, 0
0, 0
0, 0
0, 0
0, 1
0, 0
0, 0
0, 0
0, 0
0, 0
0, 0
0, 0
0, 0
0, 0
0, 0
0, 0
0, 0
0, 0
0, 0
0, 0
0, 0
0, 0
0, 0
0, 0
0, 0
0, 0
0, 0
0, 0
0, 0
0, 0
0, 0
0, 0
0, 0
0, 0
0, 0
0, 0
0, 0
0, 0
0, 0
0, 0
0, 0
0, 0
0, 0
0, 0
0, 0
0, 0
0, 0
0, 0
0, 0
0, 0
0, 0
0, 0
0, 0
0, 0
0, 0
0, 0
0, 0
0, 0
0, 0
0, 0
0, 0
0, 0
0, 0
0, 0
0, 0
0, 0
0, 0
0, 0
0, 0
0, 0
0, 0
0, 0
0, 0
0, 0
0, 0
0, 0
0, 0
0, 0
0, 0
0, 0
0, 0
0, 0
0, 0
0, 0
0, 0
0, 0
0, 0
0, 0
0, 0
0, 0
0, 0
0, 0
0, 0
0, 0
0, 0
0, 0
0, 0
0, 0
0, 0
0, 0
0, 0
0, 0
0, 0
0, 0
0, 0
0, 0
0, 0
0, 0
0, 0
0, 0
0, 0
0, 0
0, 0
0, 0
0, 0
0, 0
0, 0
0, 0
0, 0
0, 0
0, 0
0, 0
0, 0
0, 0
0, 0
0, 0
0, 0
0, 0
0, 0
0, 0
0, 0
0, 0
0, 0
0, 0
0, 0
0, 0
0, 0
0, 0
0, 0
0, 0
0, 0
0, 0
0, 0
0, 0
0, 0
0, 0
0, 0
0, 0
0, 0
0, 0
0, 0
0, 0
0, 0
0, 0
0, 0
0, 0
0, 0
0, 0
0, 0
0, 0
0, 0
0, 0
0, 0
0, 0
0, 0
0, 0
0, 0
0, 0
0, 0
0, 0
0, 0
0, 0
0, 0
0, 0
0, 0
0, 0
0, 0
0, 0
0, 0
0, 0
0, 0
0, 0
0, 0
0, 0
0, 0
0, 0
0, 0
0, 0
0, 0
0, 0
0, 0
0, 0
0, 0
0, 0
0, 0
0, 0
0, 0
0, 0
0, 0
0, 0
0, 0
0, 0
0, 0
0, 0
0, 0
0, 0
0, 0
0, 0
0, 0
0, 0
0, 0
0, 0
0, 0
0, 0
0, 0
0, 0
0, 0
0, 0
0, 0
0, 0
0, 0
0, 0
0, 0
0, 0
0, 0
0, 0
0, 0
0, 0
0, 0
0, 0
0, 0
0, 0
0, 0
0, 0
#ENDOFDATA     end of spectrum data