File: host_upload/11-13-2023/BHVO/ps_0240/ps__0240_0688241128_000rfs_shot_1.msa
#FORMAT      : EMSA/MAS spectral data file
#VERSION     : TC202v2.0 PIXL
#TITLE       : N/A
#DATE        :       Date in the format DD-MMM-YYYY, for example 07-JUL-2010
#TIME        :             The time of day at which the spectrum was recorded, in 24-hour format
#OWNER       : PIXL Flight Model       (PIXL will use this to indicate which instrument took the data.)
#NPOINTS     : 4096     Number of data points in the spectrum (This can be zero for configuration only files)
#NCOLUMNS    : 2     Number of data columns in the spectrum (This can be zero for configuration only files)
#XUNITS      : eV
#YUNITS      : COUNTS
#DATATYPE    : YY
#XPERCHAN    : 7.862, 7.881   eV per channel (separate by commas if more than one detector)
#OFFSET      : 18.5, -22.4         eV of first channel  (separate by commas if more than one detector
#SIGNALTYPE  : XRF
#YP_TEMP     : 0.76
#LIVETIME    : 36.6266, 36.605   seconds (separate by commas if more than one detector)
#REALTIME    : 40, 40   seconds (separate by commas if more than one detector)
#SPECTRUM    : start of spectrum data
0, 0
0, 0
0, 0
0, 0
0, 0
0, 0
0, 0
0, 0
0, 0
0, 0
0, 0
0, 0
0, 0
0, 0
0, 0
0, 0
0, 0
0, 0
0, 0
0, 0
0, 0
0, 0
0, 0
0, 0
0, 0
0, 0
0, 0
0, 0
0, 0
0, 0
0, 0
1, 0
1, 2
0, 2
2, 2
0, 1
1, 4
2, 1
5, 5
6, 8
6, 8
4, 9
7, 9
6, 7
11, 13
11, 12
12, 13
17, 8
12, 13
15, 18
30, 27
51, 56
62, 52
82, 82
85, 78
80, 94
62, 55
56, 69
43, 48
92, 65
144, 127
242, 230
326, 362
448, 446
429, 417
396, 433
332, 299
248, 209
224, 201
337, 307
616, 590
1262, 1181
2033, 1945
2748, 2791
3307, 3261
3208, 3236
2784, 2760
1934, 1990
1241, 1163
742, 702
396, 346
193, 189
121, 139
76, 92
77, 77
72, 61
53, 55
48, 50
42, 30
30, 25
22, 21
18, 16
13, 9
19, 14
29, 35
26, 28
39, 36
70, 42
66, 47
67, 61
52, 50
52, 54
30, 27
34, 30
24, 16
20, 31
22, 18
37, 28
44, 32
54, 73
101, 81
118, 140
177, 199
243, 255
291, 300
309, 301
291, 314
251, 241
251, 228
261, 218
203, 209
232, 200
203, 211
178, 182
145, 153
117, 99
103, 72
84, 93
59, 78
65, 52
62, 42
44, 35
32, 28
38, 32
35, 31
42, 42
47, 48
63, 66
90, 100
104, 125
135, 149
127, 144
126, 123
105, 110
69, 71
76, 53
54, 43
55, 32
73, 58
88, 99
192, 212
387, 372
688, 799
1170, 1280
1760, 1970
2446, 2685
2857, 3072
3032, 3105
2929, 2646
2406, 2148
1688, 1533
1089, 901
647, 471
328, 299
179, 169
153, 150
192, 183
254, 258
347, 383
439, 481
441, 454
460, 470
398, 450
315, 295
241, 206
156, 126
97, 80
62, 60
39, 39
42, 32
33, 35
40, 43
40, 35
49, 46
52, 74
99, 101
152, 174
254, 309
403, 448
562, 590
743, 760
781, 813
794, 781
717, 721
653, 593
437, 369
322, 254
204, 169
148, 116
77, 83
75, 61
54, 51
49, 51
54, 53
76, 67
90, 88
127, 121
144, 131
188, 191
178, 200
166, 174
158, 155
134, 152
104, 114
79, 97
61, 74
51, 53
49, 42
42, 32
45, 45
47, 43
41, 34
34, 45
41, 54
54, 47
48, 54
56, 46
54, 68
59, 56
70, 60
70, 79
60, 58
51, 62
57, 50
47, 49
45, 48
50, 45
47, 37
39, 37
38, 34
41, 38
44, 38
47, 44
52, 54
51, 58
56, 77
77, 82
98, 80
95, 121
129, 108
128, 130
134, 103
128, 124
98, 96
89, 86
81, 71
53, 57
54, 80
63, 52
59, 73
62, 80
75, 89
126, 148
194, 263
349, 423
694, 821
1180, 1373
1825, 2233
2782, 3238
3704, 4008
4359, 4845
5017, 5223
4995, 5035
4562, 4352
3834, 3544
2916, 2509
2015, 1618
1289, 1011
691, 594
427, 336
200, 135
128, 106
81, 69
57, 74
47, 58
58, 50
54, 65
52, 47
58, 72
77, 74
76, 88
101, 113
123, 150
190, 223
284, 322
362, 446
520, 575
599, 674
731, 813
798, 844
769, 731
649, 666
569, 521
408, 368
282, 259
186, 160
110, 107
62, 66
59, 62
35, 34
39, 22
33, 40
31, 25
39, 18
23, 33
34, 34
29, 25
31, 28
29, 47
36, 34
24, 35
29, 36
28, 38
36, 27
34, 22
30, 27
25, 25
37, 31
44, 35
30, 29
26, 26
23, 31
31, 34
29, 35
30, 25
30, 25
35, 34
27, 39
35, 37
45, 35
37, 30
37, 41
41, 45
40, 35
34, 38
42, 40
34, 27
33, 27
33, 31
27, 33
36, 27
27, 32
25, 40
32, 32
23, 26
28, 27
36, 30
31, 30
25, 19
26, 31
36, 43
25, 28
28, 33
37, 32
33, 28
28, 33
27, 44
25, 36
31, 36
25, 24
23, 19
26, 28
31, 28
19, 30
31, 28
31, 22
30, 30
33, 18
35, 24
22, 34
25, 29
34, 20
28, 17
38, 21
22, 32
28, 26
18, 26
24, 23
22, 24
31, 25
28, 23
38, 25
23, 19
29, 30
25, 29
25, 18
32, 22
16, 19
19, 30
34, 28
20, 21
28, 23
19, 17
24, 26
30, 22
24, 20
14, 27
21, 22
21, 23
21, 24
25, 11
21, 16
19, 26
26, 17
19, 18
20, 17
21, 25
17, 23
23, 18
18, 21
25, 22
13, 23
21, 29
22, 17
20, 24
21, 27
22, 16
27, 22
24, 27
15, 13
18, 23
16, 14
22, 20
17, 16
15, 19
16, 14
12, 18
12, 20
17, 15
14, 13
16, 19
8, 16
20, 31
18, 17
11, 14
16, 16
12, 12
14, 22
14, 11
24, 15
15, 17
12, 13
20, 11
11, 20
13, 14
14, 12
16, 14
17, 12
13, 15
26, 8
18, 26
17, 12
10, 18
19, 11
17, 18
9, 13
24, 15
11, 11
19, 19
14, 6
14, 11
10, 11
8, 15
9, 14
17, 22
6, 13
18, 16
14, 10
14, 13
14, 4
17, 14
18, 14
9, 11
24, 14
14, 15
15, 12
15, 10
15, 9
12, 14
14, 17
16, 9
14, 8
7, 14
17, 12
5, 14
13, 8
11, 9
10, 10
10, 8
11, 10
10, 15
11, 11
7, 5
5, 10
8, 3
12, 10
5, 9
12, 16
10, 14
15, 8
12, 15
6, 8
6, 6
14, 2
12, 8
11, 13
9, 9
8, 3
9, 7
12, 13
13, 9
9, 10
8, 7
9, 14
9, 9
9, 12
11, 11
8, 11
11, 11
19, 13
18, 8
15, 8
10, 7
12, 6
8, 8
8, 8
10, 18
10, 9
14, 8
16, 11
7, 12
14, 18
8, 20
13, 5
7, 7
8, 9
8, 11
10, 14
7, 12
7, 16
10, 6
5, 11
10, 3
12, 6
2, 6
3, 6
8, 8
6, 7
9, 8
3, 8
10, 7
5, 6
8, 4
9, 5
5, 12
8, 12
10, 7
4, 6
3, 8
5, 6
5, 8
4, 6
5, 7
12, 9
7, 2
15, 6
2, 11
4, 6
7, 6
9, 4
7, 6
5, 5
7, 9
10, 8
4, 7
5, 8
6, 6
6, 6
4, 2
9, 6
4, 2
7, 5
5, 7
4, 5
3, 11
6, 4
11, 6
8, 2
10, 6
8, 6
8, 5
7, 4
3, 5
7, 8
1, 8
4, 6
4, 2
2, 2
1, 6
8, 4
3, 6
1, 2
8, 5
5, 2
4, 3
8, 3
5, 4
3, 3
4, 7
3, 8
6, 6
7, 2
3, 6
2, 8
4, 2
5, 7
10, 5
2, 3
6, 3
6, 1
7, 3
7, 4
6, 7
3, 1
3, 4
2, 4
3, 6
3, 3
3, 3
5, 2
1, 4
3, 3
3, 1
5, 5
3, 6
1, 5
5, 0
3, 3
3, 3
4, 1
2, 4
4, 10
2, 2
7, 1
4, 7
5, 2
1, 2
4, 2
4, 1
4, 7
2, 2
7, 4
3, 3
3, 2
1, 4
2, 4
4, 2
2, 2
5, 0
4, 3
7, 1
7, 5
4, 2
3, 1
2, 2
1, 0
1, 1
3, 3
3, 3
0, 1
5, 2
1, 3
0, 2
1, 3
5, 3
2, 2
2, 4
1, 4
3, 1
2, 1
2, 3
4, 1
5, 5
3, 3
1, 2
2, 1
1, 0
0, 3
3, 1
2, 3
2, 1
3, 4
1, 0
2, 2
3, 4
1, 3
1, 2
1, 0
1, 1
3, 0
2, 2
0, 1
1, 2
4, 1
0, 4
2, 2
2, 4
1, 1
2, 1
0, 1
0, 3
4, 2
1, 4
1, 1
2, 4
1, 2
0, 2
3, 2
0, 1
1, 2
1, 1
3, 3
0, 4
2, 0
1, 1
5, 3
2, 1
1, 1
1, 1
0, 0
1, 0
3, 0
2, 1
2, 0
1, 0
3, 1
0, 2
0, 1
2, 2
3, 0
2, 4
1, 2
1, 1
3, 1
1, 1
0, 1
0, 1
3, 0
1, 2
1, 0
3, 0
2, 1
1, 0
1, 0
1, 3
1, 1
2, 0
1, 1
1, 4
0, 0
3, 0
1, 0
0, 1
2, 0
1, 0
1, 0
2, 4
0, 2
1, 0
2, 1
2, 2
0, 0
2, 3
1, 2
2, 1
1, 1
1, 6
0, 1
1, 1
0, 3
1, 0
0, 1
3, 1
1, 2
0, 1
1, 2
0, 3
1, 1
0, 1
0, 2
0, 1
2, 0
0, 4
1, 0
1, 1
1, 1
2, 0
1, 3
0, 1
1, 0
2, 0
1, 0
0, 1
1, 2
1, 0
3, 1
0, 1
2, 2
2, 1
0, 2
2, 1
2, 1
3, 1
0, 2
1, 2
0, 0
0, 2
1, 0
1, 0
0, 0
1, 0
1, 0
0, 0
1, 3
1, 0
0, 0
0, 0
0, 0
0, 1
0, 1
2, 0
0, 0
0, 1
1, 0
1, 0
0, 0
0, 0
0, 1
2, 0
3, 2
3, 1
1, 1
0, 0
3, 1
1, 0
1, 3
2, 1
1, 1
1, 2
2, 0
1, 1
0, 0
0, 0
1, 0
0, 0
0, 0
0, 1
0, 0
0, 0
2, 1
0, 0
0, 0
0, 0
0, 0
2, 1
0, 3
0, 0
0, 0
0, 1
2, 0
0, 0
0, 0
1, 0
0, 0
0, 0
0, 0
0, 0
0, 1
0, 0
0, 0
1, 0
0, 0
1, 0
1, 1
1, 0
1, 1
1, 1
0, 1
0, 0
1, 1
0, 0
0, 0
0, 0
0, 1
1, 1
1, 0
1, 2
0, 0
0, 0
1, 0
0, 0
0, 0
0, 1
0, 0
0, 0
1, 0
0, 0
0, 1
0, 0
0, 0
1, 0
0, 0
0, 0
0, 0
0, 0
0, 0
0, 0
0, 0
0, 1
0, 0
0, 0
0, 1
0, 0
0, 0
0, 0
0, 1
1, 0
0, 0
0, 0
0, 0
0, 0
0, 0
0, 0
0, 0
0, 0
1, 0
0, 1
0, 0
0, 0
0, 0
0, 1
1, 0
0, 0
0, 0
0, 0
0, 0
0, 0
0, 0
0, 0
1, 0
0, 0
0, 0
2, 0
0, 0
0, 1
0, 0
1, 0
0, 0
0, 0
0, 0
0, 1
0, 0
1, 0
0, 0
0, 0
0, 0
0, 0
0, 0
0, 0
0, 1
0, 0
1, 0
0, 0
0, 0
0, 0
0, 0
0, 0
0, 0
0, 0
0, 0
0, 0
0, 0
0, 1
0, 0
0, 0
0, 0
0, 0
0, 0
0, 0
0, 0
0, 1
0, 0
0, 0
0, 0
0, 1
0, 0
0, 0
1, 0
1, 0
0, 0
0, 0
0, 1
0, 0
0, 0
0, 0
0, 0
0, 0
0, 0
0, 0
0, 0
0, 0
0, 0
0, 0
0, 0
0, 0
0, 0
0, 1
0, 0
0, 1
0, 0
0, 0
0, 0
0, 0
0, 0
0, 0
0, 0
0, 0
0, 0
0, 0
0, 0
0, 0
0, 0
0, 0
0, 0
0, 0
0, 0
0, 0
0, 0
0, 0
0, 0
0, 0
0, 0
0, 0
0, 0
0, 0
0, 1
0, 0
0, 0
0, 0
0, 0
0, 0
0, 0
0, 0
0, 1
0, 0
0, 0
0, 0
0, 0
0, 0
0, 0
0, 0
0, 0
0, 0
0, 0
0, 0
0, 0
0, 0
0, 0
0, 0
0, 0
0, 0
0, 0
0, 0
0, 0
0, 0
0, 0
0, 0
0, 0
0, 0
0, 0
0, 0
0, 0
0, 0
0, 0
0, 0
0, 0
0, 0
0, 0
0, 0
0, 0
0, 0
0, 0
0, 0
0, 0
0, 0
0, 0
0, 0
0, 0
0, 0
0, 0
0, 0
0, 0
0, 0
0, 0
0, 0
0, 0
0, 0
0, 0
0, 0
0, 0
0, 0
0, 0
0, 0
0, 0
0, 0
0, 0
0, 0
0, 0
0, 0
0, 0
0, 0
0, 0
0, 0
0, 0
0, 0
0, 0
0, 0
0, 0
0, 0
0, 0
0, 0
0, 0
0, 0
0, 0
0, 0
0, 0
0, 0
0, 0
0, 0
0, 0
0, 0
0, 0
0, 0
0, 0
0, 0
0, 0
0, 0
0, 0
0, 0
0, 0
0, 0
0, 0
0, 0
0, 0
0, 0
0, 0
0, 0
0, 0
0, 0
0, 0
0, 0
0, 0
0, 0
0, 0
0, 0
0, 0
0, 0
0, 0
0, 0
0, 0
0, 0
0, 0
1, 0
0, 0
0, 0
0, 0
0, 0
0, 0
0, 0
0, 0
0, 0
0, 0
0, 0
0, 0
0, 0
0, 0
0, 0
0, 0
0, 0
0, 0
0, 0
0, 0
0, 0
0, 0
0, 0
0, 0
0, 0
0, 0
0, 0
0, 0
0, 0
0, 0
0, 0
0, 0
0, 0
0, 0
0, 0
0, 0
0, 0
0, 0
0, 0
0, 0
0, 0
0, 0
0, 0
0, 0
0, 0
0, 0
0, 0
0, 0
0, 0
0, 0
0, 0
0, 0
0, 0
0, 0
0, 0
0, 0
0, 0
0, 0
0, 0
0, 0
0, 0
0, 0
0, 0
0, 0
0, 0
0, 0
0, 0
0, 0
0, 0
0, 0
0, 0
0, 0
0, 0
0, 0
0, 0
0, 0
0, 0
0, 0
0, 0
0, 0
0, 0
0, 0
0, 0
0, 0
0, 0
0, 0
0, 0
0, 0
0, 0
0, 0
0, 0
0, 0
0, 0
0, 0
0, 0
0, 0
0, 0
0, 0
0, 0
0, 0
0, 0
0, 0
0, 0
0, 0
0, 0
0, 0
0, 0
0, 0
0, 0
0, 0
0, 0
0, 0
0, 0
0, 0
0, 0
0, 0
0, 0
0, 0
0, 0
0, 0
0, 0
0, 0
0, 0
0, 0
0, 0
0, 0
0, 0
0, 0
0, 0
0, 0
0, 0
0, 0
0, 0
0, 0
0, 0
0, 0
0, 0
0, 0
0, 0
0, 0
0, 0
0, 0
0, 0
0, 0
0, 0
0, 0
0, 0
0, 0
0, 0
0, 0
0, 0
0, 0
0, 0
0, 0
0, 0
0, 0
0, 0
0, 0
0, 0
0, 0
0, 0
0, 0
0, 0
0, 0
0, 0
0, 0
0, 0
0, 0
0, 0
0, 0
0, 0
0, 0
0, 0
0, 0
0, 0
0, 0
0, 0
0, 0
0, 0
0, 0
0, 0
0, 0
0, 0
0, 0
#ENDOFDATA     end of spectrum data