File: host_upload/11-13-2023/BHVO/ps_0240/ps__0240_0688241128_000rfs_shot_9.msa
#FORMAT      : EMSA/MAS spectral data file
#VERSION     : TC202v2.0 PIXL
#TITLE       : N/A
#DATE        :       Date in the format DD-MMM-YYYY, for example 07-JUL-2010
#TIME        :             The time of day at which the spectrum was recorded, in 24-hour format
#OWNER       : PIXL Flight Model       (PIXL will use this to indicate which instrument took the data.)
#NPOINTS     : 4096     Number of data points in the spectrum (This can be zero for configuration only files)
#NCOLUMNS    : 2     Number of data columns in the spectrum (This can be zero for configuration only files)
#XUNITS      : eV
#YUNITS      : COUNTS
#DATATYPE    : YY
#XPERCHAN    : 7.862, 7.881   eV per channel (separate by commas if more than one detector)
#OFFSET      : 18.5, -22.4         eV of first channel  (separate by commas if more than one detector
#SIGNALTYPE  : XRF
#YP_TEMP     : 0.632
#LIVETIME    : 36.6247, 36.5986   seconds (separate by commas if more than one detector)
#REALTIME    : 40, 40   seconds (separate by commas if more than one detector)
#SPECTRUM    : start of spectrum data
0, 0
0, 0
0, 0
0, 0
0, 0
0, 0
0, 0
0, 0
0, 0
0, 0
0, 0
0, 0
0, 0
0, 0
0, 0
0, 0
0, 0
0, 0
0, 0
0, 0
0, 0
0, 0
0, 0
0, 0
0, 0
0, 0
0, 0
0, 0
0, 0
0, 0
0, 0
0, 2
1, 0
0, 1
1, 3
2, 4
4, 2
4, 4
2, 10
4, 4
8, 5
9, 5
10, 8
9, 14
9, 16
17, 16
7, 5
14, 10
13, 7
22, 18
22, 25
38, 37
69, 64
86, 86
95, 110
79, 59
62, 65
46, 51
52, 26
74, 68
153, 132
288, 228
339, 351
404, 414
415, 438
396, 417
268, 331
230, 236
248, 203
319, 293
632, 634
1230, 1236
1972, 1949
2793, 2848
3200, 3358
3220, 3223
2729, 2776
1930, 1939
1269, 1166
698, 703
374, 379
203, 201
129, 113
79, 78
79, 72
57, 68
51, 51
45, 59
42, 37
27, 17
17, 21
19, 14
18, 5
17, 12
19, 18
30, 26
55, 41
55, 46
58, 52
52, 50
38, 45
32, 37
32, 24
33, 23
19, 17
16, 19
24, 24
31, 36
33, 36
51, 61
86, 82
151, 128
180, 188
275, 303
336, 312
332, 349
292, 313
307, 269
244, 269
258, 241
249, 208
219, 217
204, 174
174, 170
141, 151
109, 104
81, 110
92, 91
65, 67
58, 53
49, 45
47, 39
44, 26
25, 32
31, 30
32, 46
53, 48
58, 85
97, 98
115, 110
118, 125
129, 128
121, 135
98, 128
102, 83
61, 52
51, 51
51, 51
56, 48
82, 91
178, 200
355, 439
725, 734
1167, 1326
1761, 2004
2375, 2716
2797, 3039
2996, 3095
2815, 2783
2276, 2190
1642, 1546
1073, 968
697, 523
365, 295
178, 174
169, 149
191, 195
252, 259
336, 350
384, 445
420, 472
459, 477
389, 385
295, 330
249, 226
158, 142
79, 107
56, 61
44, 37
30, 45
30, 38
31, 32
32, 35
33, 47
52, 63
88, 111
177, 168
257, 281
376, 418
592, 623
725, 795
790, 800
812, 852
742, 687
593, 559
477, 391
303, 235
189, 153
139, 109
78, 77
64, 57
71, 48
56, 54
61, 62
76, 75
78, 89
113, 101
153, 141
163, 161
172, 197
195, 185
185, 162
144, 117
104, 101
72, 85
75, 74
63, 59
42, 54
32, 40
48, 47
39, 47
30, 42
46, 36
44, 36
44, 53
61, 48
45, 55
55, 67
55, 57
74, 61
65, 63
51, 58
64, 53
43, 69
56, 60
50, 41
44, 55
53, 38
48, 37
43, 46
42, 32
50, 49
39, 44
51, 49
39, 62
60, 69
64, 86
74, 105
95, 113
119, 111
134, 132
138, 129
116, 123
93, 97
109, 90
66, 63
49, 74
77, 53
58, 85
50, 49
65, 60
85, 87
126, 143
185, 234
388, 421
685, 774
1157, 1400
1809, 2194
2633, 3011
3582, 4167
4400, 4788
4936, 5162
5079, 5002
4568, 4363
3906, 3497
2879, 2511
2040, 1688
1231, 1003
799, 560
417, 299
223, 144
112, 106
85, 74
67, 48
67, 62
33, 62
52, 49
56, 60
54, 52
68, 66
79, 76
88, 99
119, 158
202, 225
273, 328
368, 485
510, 577
658, 744
765, 810
771, 777
776, 786
724, 666
542, 551
380, 371
300, 264
203, 129
121, 95
80, 70
53, 50
36, 33
35, 47
24, 40
38, 29
21, 36
27, 34
34, 34
28, 29
30, 32
47, 35
31, 36
21, 28
29, 24
24, 41
29, 39
47, 30
39, 30
26, 29
36, 31
36, 16
34, 36
17, 32
34, 31
34, 34
34, 27
29, 27
38, 35
39, 38
39, 27
42, 32
27, 29
38, 32
38, 30
36, 45
35, 43
42, 34
38, 36
32, 37
29, 44
34, 32
38, 20
42, 24
24, 27
31, 35
34, 23
23, 29
23, 33
27, 27
32, 29
26, 30
35, 26
24, 23
33, 27
30, 28
27, 30
34, 29
26, 36
31, 33
32, 46
35, 29
27, 35
26, 26
32, 35
33, 31
32, 38
35, 24
18, 30
26, 27
39, 22
24, 37
26, 32
34, 21
32, 20
22, 11
23, 28
25, 27
26, 30
23, 28
25, 24
23, 23
19, 29
26, 21
21, 27
25, 28
23, 26
28, 23
34, 20
18, 16
21, 24
19, 29
23, 22
22, 27
19, 27
25, 22
26, 23
18, 25
22, 20
21, 20
24, 22
27, 20
27, 18
29, 27
18, 22
18, 21
27, 17
22, 14
24, 20
22, 23
23, 20
18, 24
16, 22
25, 21
22, 14
18, 22
13, 19
21, 22
16, 21
24, 25
19, 22
25, 14
17, 26
15, 20
12, 13
20, 24
17, 15
24, 14
15, 18
18, 21
21, 18
22, 23
22, 12
23, 14
15, 16
16, 17
15, 20
14, 9
24, 15
14, 11
20, 19
20, 21
18, 24
13, 14
18, 15
26, 21
13, 12
11, 18
13, 16
19, 17
19, 23
18, 15
20, 12
12, 11
20, 18
11, 17
18, 11
12, 16
11, 16
18, 23
18, 15
14, 22
8, 19
17, 20
17, 18
13, 17
17, 13
16, 17
13, 17
13, 10
14, 11
13, 9
10, 10
13, 16
16, 9
14, 10
14, 13
15, 9
16, 11
12, 18
10, 10
10, 17
11, 10
7, 15
12, 14
14, 12
9, 11
13, 9
11, 13
9, 12
9, 12
11, 7
15, 11
11, 10
14, 12
13, 11
11, 14
9, 11
9, 17
8, 11
14, 9
10, 7
16, 12
9, 9
8, 8
10, 8
16, 10
9, 8
9, 9
6, 15
9, 8
8, 13
13, 15
9, 8
7, 17
10, 9
13, 7
12, 10
11, 15
8, 7
8, 9
10, 11
4, 11
16, 13
14, 8
13, 10
6, 14
12, 9
7, 4
9, 11
7, 5
15, 12
14, 8
11, 12
8, 15
8, 15
14, 10
13, 13
14, 8
12, 6
8, 5
3, 10
5, 12
10, 5
9, 8
3, 2
8, 6
6, 9
4, 8
12, 9
6, 9
5, 4
6, 12
7, 2
5, 3
13, 14
8, 8
3, 8
5, 6
5, 2
3, 6
8, 9
6, 3
8, 12
3, 11
4, 4
8, 8
6, 5
6, 8
8, 5
6, 5
3, 8
11, 8
6, 10
2, 2
6, 5
4, 1
6, 4
12, 6
4, 5
5, 9
8, 6
11, 4
4, 7
3, 6
8, 5
4, 8
7, 3
6, 8
2, 7
6, 6
7, 6
5, 7
8, 4
9, 7
7, 8
7, 5
3, 9
3, 10
3, 5
3, 7
8, 5
1, 3
4, 6
4, 7
4, 5
7, 4
4, 3
3, 4
6, 7
3, 5
3, 7
5, 7
4, 6
6, 3
3, 5
2, 4
1, 3
7, 2
5, 5
3, 4
2, 1
4, 5
2, 2
2, 2
4, 2
2, 2
3, 8
1, 2
1, 2
3, 5
0, 4
3, 4
6, 5
4, 4
1, 4
1, 3
3, 4
6, 2
2, 4
4, 3
5, 1
2, 1
1, 3
3, 3
1, 4
3, 3
2, 0
6, 4
3, 6
2, 2
1, 2
3, 6
5, 2
4, 3
2, 2
1, 2
1, 0
3, 2
6, 0
2, 5
2, 5
4, 2
1, 4
5, 4
1, 1
4, 2
4, 2
3, 2
4, 1
3, 3
2, 2
1, 3
1, 2
1, 1
1, 0
1, 3
3, 4
2, 4
3, 4
6, 0
3, 2
4, 4
2, 1
1, 2
1, 1
2, 2
4, 2
2, 2
2, 1
1, 5
7, 2
3, 1
3, 1
2, 3
1, 2
6, 3
2, 0
1, 2
1, 4
3, 2
0, 2
0, 1
4, 3
2, 3
2, 0
2, 2
2, 2
4, 1
1, 2
1, 5
1, 0
1, 0
1, 3
3, 1
1, 1
3, 2
2, 0
1, 0
2, 3
0, 0
1, 1
0, 1
3, 1
4, 2
0, 2
1, 2
4, 2
2, 4
0, 2
0, 0
1, 2
1, 1
1, 0
1, 4
1, 3
4, 2
1, 1
2, 2
1, 0
1, 4
0, 2
1, 2
3, 1
2, 2
0, 2
2, 0
1, 3
1, 0
3, 1
1, 2
0, 2
1, 2
0, 1
0, 1
1, 3
1, 1
4, 1
2, 2
2, 0
0, 0
0, 1
3, 3
2, 1
0, 0
2, 0
1, 1
0, 1
0, 1
2, 0
1, 1
2, 1
2, 1
1, 1
1, 1
1, 0
3, 2
2, 3
0, 1
2, 5
2, 3
0, 1
3, 0
2, 5
1, 1
1, 1
0, 1
0, 3
1, 0
1, 1
4, 2
1, 1
1, 1
4, 1
2, 0
2, 1
1, 0
1, 1
0, 0
0, 2
1, 4
0, 1
0, 0
1, 0
2, 1
1, 2
0, 1
1, 0
0, 2
1, 2
0, 0
1, 1
2, 0
0, 0
1, 1
1, 2
0, 2
1, 1
0, 1
0, 1
1, 2
1, 1
2, 1
0, 0
0, 1
0, 1
0, 3
0, 1
1, 2
0, 0
0, 0
0, 1
1, 0
0, 1
0, 2
2, 0
0, 0
1, 0
0, 2
1, 1
0, 2
1, 1
0, 3
0, 0
0, 0
0, 1
3, 1
1, 2
1, 1
0, 2
1, 3
2, 0
2, 1
0, 0
0, 0
0, 1
0, 1
0, 1
1, 0
0, 0
0, 0
0, 0
0, 0
1, 0
1, 0
0, 0
0, 0
0, 0
0, 0
0, 1
0, 0
1, 0
0, 0
0, 1
1, 1
1, 0
2, 0
0, 0
0, 1
0, 0
0, 0
0, 1
0, 2
1, 1
0, 0
0, 0
1, 0
0, 0
0, 0
0, 0
0, 0
0, 0
0, 1
1, 0
0, 0
0, 1
0, 0
0, 0
1, 0
0, 0
1, 0
0, 0
0, 0
0, 1
0, 1
0, 0
0, 0
0, 0
0, 1
0, 2
1, 0
0, 0
0, 0
0, 1
0, 0
0, 0
0, 0
0, 2
0, 0
0, 0
0, 0
0, 0
0, 0
0, 0
0, 1
0, 0
1, 0
0, 0
0, 0
0, 0
0, 0
0, 0
0, 0
1, 0
1, 0
0, 0
0, 0
0, 0
0, 0
1, 0
1, 0
0, 0
0, 0
0, 0
0, 0
0, 0
1, 0
0, 0
0, 0
0, 0
1, 0
0, 0
0, 0
1, 0
0, 1
0, 0
0, 0
0, 0
1, 0
1, 0
0, 0
0, 1
0, 1
1, 0
0, 0
1, 0
0, 0
0, 0
0, 0
0, 1
0, 0
1, 0
0, 0
1, 0
0, 0
0, 0
0, 0
0, 0
0, 0
0, 0
0, 0
0, 0
0, 0
0, 0
0, 0
0, 0
0, 0
0, 0
0, 0
0, 0
0, 0
0, 0
0, 0
0, 0
0, 0
0, 0
0, 0
0, 0
0, 0
0, 0
0, 0
0, 0
0, 0
0, 0
0, 0
0, 0
0, 0
0, 0
0, 0
0, 0
0, 0
0, 0
0, 0
0, 0
0, 0
0, 0
0, 0
0, 1
0, 0
0, 0
0, 0
0, 0
0, 0
0, 0
0, 0
0, 0
0, 0
1, 0
0, 0
0, 0
0, 0
0, 0
0, 0
0, 0
0, 0
0, 1
0, 0
0, 0
0, 0
0, 0
0, 0
0, 0
0, 0
0, 0
0, 0
0, 0
1, 0
0, 0
0, 0
0, 0
0, 0
0, 0
0, 0
0, 1
0, 0
0, 0
0, 0
0, 0
0, 0
0, 0
0, 0
0, 0
0, 0
0, 0
0, 0
0, 0
0, 0
0, 0
0, 0
0, 0
0, 0
0, 0
0, 0
0, 0
0, 0
0, 0
0, 0
0, 0
0, 0
0, 0
0, 0
0, 0
0, 0
0, 0
0, 0
0, 0
0, 0
0, 0
0, 0
0, 0
0, 0
0, 0
0, 0
0, 0
0, 0
1, 0
0, 0
0, 0
0, 0
1, 0
0, 0
0, 0
0, 0
0, 0
0, 0
0, 0
0, 0
0, 0
0, 0
0, 0
0, 0
0, 0
0, 0
0, 0
0, 0
0, 0
0, 0
0, 0
0, 0
0, 0
0, 0
0, 0
0, 0
0, 0
0, 0
0, 0
0, 0
0, 0
0, 0
0, 0
0, 0
0, 0
0, 0
0, 0
0, 0
0, 0
0, 0
0, 0
0, 0
0, 0
0, 0
0, 0
0, 0
0, 0
0, 0
0, 0
0, 0
0, 0
0, 0
0, 0
0, 0
0, 0
0, 0
0, 0
0, 0
0, 0
0, 0
0, 0
0, 0
0, 0
0, 0
0, 0
0, 0
0, 0
0, 0
0, 0
0, 0
0, 0
0, 0
0, 0
0, 0
0, 0
0, 0
0, 0
0, 0
0, 0
0, 0
0, 0
0, 0
0, 0
0, 0
0, 0
0, 0
0, 0
0, 0
0, 0
0, 0
0, 0
0, 0
0, 0
0, 0
0, 0
0, 0
0, 0
0, 0
0, 0
0, 0
0, 0
0, 0
0, 0
0, 0
0, 0
0, 0
0, 0
0, 0
0, 0
0, 0
0, 0
0, 0
0, 0
0, 0
0, 0
0, 0
0, 0
0, 0
0, 0
0, 0
0, 0
0, 0
0, 0
0, 0
0, 0
0, 0
0, 0
0, 0
0, 0
0, 0
0, 0
0, 0
0, 0
0, 0
0, 0
0, 0
0, 0
0, 0
0, 0
0, 0
0, 0
0, 0
0, 0
0, 0
0, 0
0, 0
0, 0
0, 0
0, 0
0, 0
0, 0
0, 0
0, 0
0, 0
0, 0
0, 0
0, 0
0, 0
0, 0
0, 0
0, 0
0, 0
0, 0
0, 0
0, 0
0, 0
0, 0
0, 0
0, 0
0, 0
0, 0
0, 0
0, 0
0, 0
0, 0
0, 0
0, 0
0, 0
0, 0
0, 0
0, 0
0, 0
0, 0
0, 0
0, 0
0, 0
0, 0
0, 0
0, 0
0, 0
0, 0
0, 0
0, 0
0, 0
0, 0
0, 0
0, 0
0, 0
0, 0
0, 0
0, 0
0, 0
0, 0
0, 0
0, 0
0, 0
0, 0
0, 0
0, 0
0, 0
0, 0
0, 0
0, 0
0, 0
0, 0
0, 0
0, 0
0, 0
0, 0
0, 0
0, 0
0, 0
0, 0
0, 0
0, 0
0, 0
0, 0
0, 0
0, 0
0, 0
0, 0
0, 0
0, 0
0, 0
0, 0
0, 0
0, 0
0, 0
0, 0
0, 0
0, 0
0, 0
0, 0
0, 0
0, 0
0, 0
0, 0
0, 0
0, 0
0, 0
0, 0
0, 0
0, 0
0, 0
0, 0
0, 0
0, 0
0, 0
0, 0
0, 0
0, 0
0, 0
#ENDOFDATA     end of spectrum data