File: host_upload/11-13-2023/BHVO/ps_0240/ps__0240_0688241128_000rfs_shot_6.msa
#FORMAT      : EMSA/MAS spectral data file
#VERSION     : TC202v2.0 PIXL
#TITLE       : N/A
#DATE        :       Date in the format DD-MMM-YYYY, for example 07-JUL-2010
#TIME        :             The time of day at which the spectrum was recorded, in 24-hour format
#OWNER       : PIXL Flight Model       (PIXL will use this to indicate which instrument took the data.)
#NPOINTS     : 4096     Number of data points in the spectrum (This can be zero for configuration only files)
#NCOLUMNS    : 2     Number of data columns in the spectrum (This can be zero for configuration only files)
#XUNITS      : eV
#YUNITS      : COUNTS
#DATATYPE    : YY
#XPERCHAN    : 7.862, 7.881   eV per channel (separate by commas if more than one detector)
#OFFSET      : 18.5, -22.4         eV of first channel  (separate by commas if more than one detector
#SIGNALTYPE  : XRF
#YP_TEMP     : 0.728
#LIVETIME    : 36.6253, 36.6152   seconds (separate by commas if more than one detector)
#REALTIME    : 40, 40   seconds (separate by commas if more than one detector)
#SPECTRUM    : start of spectrum data
0, 0
0, 0
0, 0
0, 0
0, 0
0, 0
0, 0
0, 0
0, 0
0, 0
0, 0
0, 0
0, 0
0, 0
0, 0
0, 0
0, 0
0, 0
0, 0
0, 0
0, 0
0, 0
0, 0
0, 0
0, 0
0, 0
0, 0
0, 0
0, 0
0, 0
0, 0
1, 0
0, 1
1, 2
2, 1
4, 4
1, 3
1, 2
5, 2
6, 8
7, 5
4, 5
7, 7
9, 1
10, 10
14, 10
13, 8
5, 8
12, 14
19, 10
33, 27
33, 34
63, 62
91, 74
88, 88
106, 77
64, 61
41, 43
60, 50
69, 75
138, 135
253, 216
346, 311
405, 412
452, 411
375, 394
289, 294
226, 222
209, 190
347, 302
674, 644
1188, 1215
2044, 2027
2715, 2880
3325, 3352
3263, 3268
2743, 2662
1898, 1977
1287, 1229
748, 663
403, 336
209, 219
121, 104
98, 85
79, 85
80, 58
56, 48
67, 46
38, 29
40, 26
23, 17
13, 12
17, 16
14, 15
25, 26
36, 41
47, 60
52, 57
62, 60
77, 64
63, 49
40, 48
40, 30
35, 30
32, 20
22, 16
13, 17
26, 27
53, 44
53, 67
77, 118
126, 127
221, 207
259, 290
276, 295
306, 325
305, 318
282, 275
263, 241
254, 216
243, 211
206, 233
173, 191
206, 178
135, 141
127, 104
116, 104
82, 89
58, 59
63, 71
37, 52
41, 44
34, 45
33, 29
30, 35
40, 25
49, 58
69, 70
95, 101
105, 114
128, 133
156, 145
133, 136
116, 113
83, 82
71, 52
52, 47
41, 30
57, 50
100, 100
184, 209
356, 388
678, 772
1165, 1313
1786, 2074
2408, 2667
2891, 2983
3062, 3076
2825, 2746
2386, 2211
1678, 1565
1090, 1002
608, 544
344, 300
191, 164
147, 143
159, 198
233, 300
305, 375
422, 447
447, 467
450, 478
425, 407
313, 320
247, 230
150, 135
109, 83
69, 60
54, 45
35, 32
46, 29
30, 27
35, 30
41, 41
52, 60
102, 128
173, 197
275, 308
377, 468
595, 613
706, 740
771, 834
760, 780
700, 736
593, 565
432, 405
269, 282
215, 172
132, 102
96, 67
68, 64
63, 60
63, 39
67, 67
74, 79
84, 85
128, 114
133, 150
180, 162
178, 190
188, 184
178, 137
161, 122
126, 94
98, 90
49, 59
51, 69
47, 42
48, 46
31, 36
39, 46
38, 42
45, 29
41, 43
39, 46
51, 46
48, 58
57, 57
50, 58
64, 64
68, 68
79, 57
56, 73
68, 61
43, 49
46, 43
42, 56
47, 36
49, 54
42, 50
37, 45
40, 41
30, 45
38, 47
53, 47
54, 69
52, 93
80, 93
121, 119
129, 128
117, 132
137, 133
127, 120
117, 91
91, 90
85, 79
55, 64
61, 66
63, 51
67, 54
78, 69
81, 79
130, 138
212, 244
358, 401
652, 807
1228, 1384
1880, 2227
2716, 3165
3682, 4213
4513, 4716
5018, 5146
5072, 5095
4601, 4576
3961, 3660
2885, 2518
2056, 1712
1279, 1065
775, 571
420, 304
221, 163
137, 83
80, 58
77, 48
57, 52
54, 62
59, 64
59, 57
55, 56
82, 78
84, 74
109, 146
122, 159
189, 239
262, 325
400, 429
507, 568
670, 688
795, 842
807, 793
800, 750
690, 710
622, 512
456, 414
289, 256
200, 148
134, 108
92, 71
52, 48
51, 36
34, 35
39, 34
41, 27
43, 34
27, 28
33, 33
28, 44
28, 42
30, 41
36, 34
36, 29
28, 34
40, 37
34, 25
32, 26
34, 25
28, 33
35, 26
36, 22
32, 49
26, 29
37, 34
31, 35
26, 34
35, 32
29, 31
31, 40
28, 28
36, 34
28, 34
32, 41
35, 34
34, 41
36, 34
25, 28
31, 17
34, 30
27, 36
37, 35
20, 46
34, 34
28, 35
29, 29
29, 15
36, 37
27, 31
23, 20
20, 31
42, 25
20, 28
26, 26
43, 35
34, 34
26, 19
40, 35
42, 35
31, 26
36, 21
30, 45
32, 36
32, 31
27, 23
25, 35
34, 25
22, 32
26, 19
32, 25
24, 28
21, 39
26, 27
27, 24
33, 20
32, 22
23, 28
21, 18
26, 32
24, 25
26, 29
33, 32
23, 21
15, 22
16, 26
13, 21
24, 30
16, 26
23, 23
21, 21
27, 16
21, 25
18, 28
18, 22
35, 21
15, 21
23, 28
28, 24
24, 19
27, 17
17, 25
23, 14
20, 16
21, 26
27, 28
23, 30
20, 16
33, 22
27, 19
19, 25
19, 16
22, 26
18, 22
16, 27
19, 21
20, 8
23, 19
18, 16
20, 15
20, 15
19, 23
21, 17
21, 34
22, 25
19, 18
19, 23
19, 29
24, 12
16, 22
16, 20
10, 27
15, 13
24, 17
20, 23
24, 17
13, 21
14, 17
12, 26
19, 14
13, 12
17, 18
21, 22
13, 27
21, 27
9, 26
13, 14
16, 19
17, 17
16, 9
14, 16
21, 9
24, 24
12, 13
11, 17
21, 11
10, 13
15, 20
17, 25
21, 14
17, 16
18, 17
22, 18
17, 15
16, 19
15, 14
11, 16
15, 21
14, 17
21, 20
9, 6
12, 14
18, 12
14, 21
15, 12
10, 9
18, 14
21, 20
14, 15
17, 14
16, 14
18, 16
14, 14
12, 12
15, 17
13, 11
9, 10
8, 10
16, 13
16, 10
8, 19
7, 17
12, 12
11, 8
6, 10
11, 3
11, 17
5, 13
10, 12
17, 12
10, 12
15, 11
12, 8
10, 12
16, 10
11, 14
14, 9
8, 12
12, 9
18, 11
7, 13
15, 14
8, 12
12, 5
9, 8
11, 6
12, 12
17, 14
8, 13
6, 8
15, 8
10, 8
6, 14
5, 6
10, 11
6, 6
14, 8
10, 13
10, 9
12, 6
11, 8
9, 6
12, 9
11, 15
12, 8
9, 12
11, 11
12, 11
15, 13
7, 9
7, 7
7, 7
9, 5
6, 9
8, 9
7, 8
8, 9
6, 10
4, 5
11, 6
12, 7
8, 9
6, 12
7, 8
10, 10
4, 5
8, 9
4, 6
6, 8
5, 8
6, 7
8, 6
8, 7
8, 7
9, 9
4, 14
8, 4
9, 7
4, 4
11, 2
11, 7
6, 6
5, 9
9, 6
10, 4
6, 6
6, 8
1, 4
5, 10
3, 3
6, 10
2, 4
7, 3
4, 9
8, 3
1, 4
8, 7
7, 6
5, 6
2, 8
6, 2
4, 6
4, 6
9, 7
6, 4
6, 5
8, 8
1, 3
6, 11
8, 1
2, 6
5, 5
2, 2
4, 7
1, 2
2, 3
4, 1
5, 4
0, 5
2, 7
7, 3
5, 2
0, 3
5, 4
6, 3
2, 1
4, 4
2, 5
8, 3
4, 4
4, 6
3, 4
2, 5
1, 3
4, 2
6, 1
8, 5
1, 2
5, 0
4, 4
2, 3
1, 4
4, 3
1, 7
1, 3
3, 5
2, 2
4, 6
1, 6
5, 4
2, 4
3, 2
3, 1
5, 1
3, 3
1, 2
4, 3
4, 0
2, 2
3, 4
4, 5
3, 0
4, 2
1, 1
4, 1
3, 3
5, 3
0, 4
4, 2
1, 0
1, 2
2, 3
6, 6
3, 1
5, 3
5, 5
5, 4
2, 2
3, 3
0, 1
4, 4
5, 4
4, 3
4, 1
1, 2
3, 2
2, 3
5, 2
1, 1
1, 0
1, 1
2, 0
3, 3
5, 2
1, 0
2, 2
3, 4
0, 2
3, 6
2, 2
2, 0
3, 2
2, 4
2, 1
0, 2
0, 2
1, 1
1, 1
1, 1
2, 0
5, 5
1, 1
2, 0
2, 3
4, 2
2, 1
1, 2
2, 3
1, 3
1, 0
1, 2
2, 2
2, 5
3, 3
2, 3
3, 2
1, 0
2, 1
1, 0
1, 1
3, 0
0, 1
3, 2
0, 0
2, 1
1, 0
4, 0
2, 3
0, 1
1, 0
2, 1
5, 2
1, 0
2, 2
4, 2
2, 2
1, 2
0, 2
0, 0
0, 1
2, 1
3, 1
1, 1
3, 0
1, 4
0, 3
1, 1
5, 0
2, 2
0, 1
1, 0
0, 3
3, 0
0, 0
4, 0
3, 2
1, 1
3, 2
2, 0
1, 4
0, 1
0, 1
1, 4
0, 0
1, 0
0, 2
1, 2
0, 1
1, 0
1, 1
0, 1
1, 1
2, 1
3, 2
3, 2
2, 3
2, 0
3, 3
0, 2
0, 3
0, 0
0, 0
4, 0
2, 1
3, 1
2, 3
1, 2
2, 3
2, 1
2, 2
1, 2
1, 0
2, 0
0, 2
0, 2
4, 1
1, 1
0, 1
0, 1
2, 2
1, 0
0, 2
2, 2
0, 0
0, 0
1, 1
0, 0
0, 1
0, 2
1, 1
2, 0
0, 0
4, 1
1, 1
2, 1
2, 0
0, 0
1, 0
1, 0
0, 1
0, 1
1, 3
1, 0
0, 0
0, 1
1, 0
1, 0
0, 1
1, 0
1, 0
3, 1
1, 1
2, 2
0, 0
1, 0
1, 0
1, 1
0, 2
0, 0
1, 0
0, 1
2, 1
3, 0
1, 0
1, 2
0, 2
1, 1
2, 2
0, 0
1, 0
0, 0
1, 1
0, 0
1, 0
0, 2
0, 0
0, 0
0, 0
0, 0
1, 0
0, 0
1, 0
0, 1
0, 0
0, 0
0, 0
0, 0
0, 0
0, 2
1, 2
0, 3
0, 1
0, 0
0, 0
0, 0
1, 0
0, 0
0, 0
1, 0
0, 1
0, 0
0, 0
0, 0
1, 0
0, 0
0, 0
1, 0
0, 0
0, 0
1, 0
2, 0
0, 1
0, 0
0, 0
0, 0
0, 1
0, 0
0, 0
0, 0
0, 1
0, 0
0, 1
0, 0
0, 0
0, 0
0, 0
0, 0
1, 0
1, 0
0, 0
1, 0
1, 0
0, 0
0, 0
0, 0
0, 0
1, 0
0, 0
0, 0
0, 0
0, 0
0, 0
0, 0
0, 0
0, 0
0, 0
0, 0
0, 1
0, 0
0, 0
0, 0
0, 0
0, 0
0, 0
1, 0
0, 0
0, 0
0, 0
1, 0
0, 0
0, 0
0, 0
0, 0
0, 0
0, 0
0, 0
0, 0
1, 0
0, 0
0, 0
0, 0
0, 0
0, 0
0, 0
0, 0
1, 1
0, 0
0, 0
0, 0
0, 0
0, 0
0, 0
0, 0
0, 0
0, 0
0, 0
0, 0
0, 0
0, 1
1, 0
0, 0
0, 0
0, 0
0, 0
0, 0
0, 1
0, 0
0, 0
0, 0
0, 0
0, 0
0, 0
0, 0
1, 0
0, 0
0, 0
0, 0
0, 0
0, 0
0, 0
1, 0
1, 0
0, 0
0, 0
1, 0
0, 0
0, 0
0, 0
0, 0
0, 0
0, 0
0, 0
0, 0
0, 0
0, 1
0, 0
0, 0
0, 0
0, 0
0, 0
0, 0
0, 0
0, 0
0, 0
0, 0
0, 0
0, 0
0, 0
1, 0
0, 0
0, 0
0, 0
0, 0
0, 0
0, 0
0, 0
0, 0
0, 0
0, 0
0, 0
0, 0
0, 0
0, 0
0, 0
0, 0
0, 0
0, 0
0, 0
0, 0
0, 0
0, 0
0, 0
0, 0
0, 0
0, 0
0, 0
0, 0
0, 0
0, 0
0, 0
0, 0
0, 0
0, 0
0, 0
0, 0
0, 0
0, 0
0, 0
0, 0
0, 0
0, 0
0, 0
0, 0
0, 0
0, 0
0, 0
0, 0
0, 0
0, 0
0, 0
0, 0
0, 0
0, 0
0, 0
0, 0
0, 0
0, 0
0, 0
0, 0
0, 0
0, 0
0, 0
0, 0
0, 0
0, 0
0, 0
0, 0
0, 0
0, 0
0, 0
0, 0
0, 0
0, 0
0, 0
0, 0
0, 0
0, 0
0, 0
0, 0
0, 0
0, 0
0, 0
0, 0
0, 0
0, 0
0, 0
0, 0
0, 0
0, 0
0, 0
0, 0
0, 0
0, 0
0, 0
0, 0
0, 0
0, 0
0, 0
0, 0
0, 0
0, 0
0, 0
0, 0
0, 0
0, 0
0, 0
0, 0
0, 0
0, 0
0, 0
0, 0
0, 0
0, 0
0, 0
0, 0
0, 1
0, 0
0, 0
0, 0
0, 0
0, 0
0, 0
0, 0
0, 0
0, 0
0, 0
0, 0
0, 0
0, 0
0, 0
0, 0
0, 0
0, 0
0, 0
0, 0
0, 0
0, 0
0, 0
0, 0
0, 0
0, 0
0, 0
0, 0
0, 0
0, 0
0, 0
0, 0
0, 0
0, 0
0, 0
0, 0
0, 0
0, 0
0, 0
0, 0
0, 0
0, 0
0, 0
0, 0
0, 0
0, 0
0, 0
0, 0
0, 0
0, 0
0, 0
0, 0
0, 0
0, 0
0, 0
0, 0
0, 0
0, 0
0, 0
0, 0
0, 0
0, 0
0, 0
0, 0
0, 0
0, 0
0, 0
0, 0
0, 0
0, 0
0, 0
0, 0
0, 0
0, 0
0, 0
0, 0
0, 0
0, 0
0, 0
0, 0
0, 0
0, 0
0, 0
0, 0
0, 0
0, 0
0, 0
0, 0
0, 0
0, 0
0, 0
0, 0
0, 0
0, 0
0, 0
0, 0
0, 0
0, 0
0, 0
0, 0
0, 0
0, 0
0, 0
0, 0
0, 0
0, 0
0, 0
0, 0
0, 0
0, 0
0, 0
0, 0
0, 0
0, 0
0, 0
0, 0
0, 0
0, 0
0, 0
0, 0
0, 0
0, 0
0, 0
0, 0
0, 0
0, 0
0, 0
0, 0
0, 0
0, 0
0, 0
0, 0
0, 0
0, 0
0, 0
0, 0
0, 0
0, 0
0, 0
0, 0
0, 0
0, 0
0, 0
0, 0
0, 0
0, 0
0, 0
0, 0
0, 0
0, 0
0, 0
0, 0
0, 0
0, 0
0, 0
0, 0
0, 0
0, 0
0, 0
0, 0
0, 0
0, 0
0, 0
0, 0
0, 0
0, 0
0, 0
0, 0
0, 0
0, 0
0, 0
0, 0
0, 0
0, 0
0, 0
0, 0
0, 0
0, 0
0, 0
0, 0
0, 0
0, 0
0, 0
0, 0
0, 0
0, 0
0, 0
0, 0
0, 0
0, 0
0, 0
0, 0
0, 0
0, 0
0, 0
0, 0
0, 0
0, 0
0, 0
0, 0
0, 0
0, 0
0, 0
0, 0
0, 0
0, 0
0, 0
0, 0
0, 0
0, 0
0, 0
0, 0
0, 0
0, 0
0, 0
0, 0
0, 0
0, 0
0, 0
0, 0
0, 0
0, 0
0, 0
0, 0
0, 0
#ENDOFDATA     end of spectrum data