File: host_upload/11-13-2023/BHVO/ps_0240/ps__0240_0688241128_000rfs_shot_23.msa
#FORMAT      : EMSA/MAS spectral data file
#VERSION     : TC202v2.0 PIXL
#TITLE       : N/A
#DATE        :       Date in the format DD-MMM-YYYY, for example 07-JUL-2010
#TIME        :             The time of day at which the spectrum was recorded, in 24-hour format
#OWNER       : PIXL Flight Model       (PIXL will use this to indicate which instrument took the data.)
#NPOINTS     : 4096     Number of data points in the spectrum (This can be zero for configuration only files)
#NCOLUMNS    : 2     Number of data columns in the spectrum (This can be zero for configuration only files)
#XUNITS      : eV
#YUNITS      : COUNTS
#DATATYPE    : YY
#XPERCHAN    : 7.862, 7.881   eV per channel (separate by commas if more than one detector)
#OFFSET      : 18.5, -22.4         eV of first channel  (separate by commas if more than one detector
#SIGNALTYPE  : XRF
#YP_TEMP     : 0.888
#LIVETIME    : 36.6359, 36.612   seconds (separate by commas if more than one detector)
#REALTIME    : 40, 40   seconds (separate by commas if more than one detector)
#SPECTRUM    : start of spectrum data
0, 0
0, 0
0, 0
0, 0
0, 0
0, 0
0, 0
0, 0
0, 0
0, 0
0, 0
0, 0
0, 0
0, 0
0, 0
0, 0
0, 0
0, 0
0, 0
0, 0
0, 0
0, 0
0, 0
0, 0
0, 0
0, 0
0, 0
0, 0
0, 0
0, 0
1, 0
0, 1
0, 0
0, 1
2, 1
1, 0
3, 1
2, 2
6, 3
4, 5
7, 9
6, 6
10, 11
9, 8
19, 7
11, 10
13, 11
11, 13
8, 9
15, 14
20, 27
43, 43
74, 51
99, 72
78, 105
88, 77
59, 82
49, 57
53, 46
75, 50
134, 126
233, 245
336, 373
445, 456
455, 474
417, 430
327, 330
227, 223
185, 189
324, 302
627, 629
1208, 1172
1971, 1957
2734, 2649
3320, 3343
3202, 3294
2745, 2758
2046, 1944
1223, 1152
753, 670
346, 323
211, 176
131, 116
75, 87
91, 67
56, 59
59, 59
41, 56
27, 39
34, 28
24, 26
11, 23
9, 10
14, 15
24, 27
28, 25
38, 54
63, 51
70, 79
53, 77
56, 55
42, 40
30, 37
34, 30
27, 30
15, 23
24, 29
26, 35
27, 36
57, 61
86, 89
142, 131
198, 212
261, 268
296, 268
304, 323
313, 304
278, 266
236, 237
254, 236
223, 239
220, 208
208, 204
188, 168
130, 143
130, 112
85, 102
104, 85
80, 77
53, 73
50, 48
34, 28
38, 33
40, 32
36, 28
40, 32
46, 42
74, 69
91, 91
122, 105
145, 142
131, 151
143, 125
94, 100
101, 79
51, 57
49, 35
42, 56
57, 62
92, 68
166, 200
349, 379
653, 693
1096, 1309
1734, 1987
2478, 2668
2978, 3024
3095, 3139
2867, 2937
2410, 2214
1752, 1519
1087, 954
601, 516
344, 251
197, 167
157, 128
161, 183
247, 259
314, 323
414, 400
451, 478
433, 454
406, 442
325, 330
264, 221
140, 158
80, 85
63, 58
37, 30
40, 45
29, 38
28, 22
36, 31
45, 44
68, 70
98, 110
173, 172
258, 283
387, 437
538, 613
688, 650
800, 890
828, 868
734, 712
622, 512
429, 407
324, 282
202, 166
140, 115
79, 98
73, 66
61, 68
65, 59
58, 64
79, 62
116, 87
105, 124
146, 143
154, 169
196, 173
177, 170
185, 164
155, 144
124, 105
77, 94
69, 78
55, 47
43, 47
41, 44
43, 41
31, 46
40, 49
37, 45
48, 54
47, 35
54, 43
44, 56
72, 59
71, 58
90, 64
65, 75
64, 55
50, 61
57, 48
43, 71
57, 42
37, 43
38, 37
42, 52
43, 35
40, 38
44, 49
47, 58
53, 54
59, 68
60, 73
69, 70
105, 88
90, 134
120, 126
158, 152
138, 130
109, 124
108, 103
73, 81
79, 86
58, 71
58, 51
51, 60
56, 38
86, 72
78, 81
106, 126
190, 209
353, 447
583, 743
1041, 1395
1715, 2093
2571, 3141
3513, 4032
4449, 4959
4991, 5169
5043, 5191
4668, 4509
3943, 3443
3013, 2526
2098, 1668
1295, 1016
721, 568
423, 293
246, 184
115, 105
110, 85
70, 63
41, 52
70, 45
58, 53
58, 69
54, 78
60, 64
103, 90
92, 109
112, 131
182, 223
255, 298
393, 435
472, 613
602, 701
724, 771
760, 824
738, 782
699, 712
578, 492
443, 365
312, 232
191, 178
110, 100
90, 82
44, 38
44, 47
34, 41
32, 30
41, 36
27, 41
33, 29
29, 38
29, 51
34, 37
33, 32
38, 33
31, 31
35, 32
32, 44
34, 28
31, 31
24, 33
30, 33
31, 28
28, 30
43, 34
30, 32
33, 31
21, 38
19, 33
24, 36
25, 43
24, 45
35, 42
27, 32
47, 34
30, 36
40, 32
35, 32
35, 37
50, 38
26, 31
29, 34
33, 37
35, 24
33, 26
38, 34
43, 31
39, 35
23, 31
35, 33
37, 31
29, 25
29, 29
34, 37
28, 18
30, 36
36, 20
30, 42
35, 26
42, 27
33, 35
31, 27
29, 39
36, 30
33, 35
31, 32
21, 40
29, 24
17, 20
27, 32
29, 35
20, 15
25, 30
29, 30
17, 25
31, 22
21, 26
27, 19
19, 18
23, 26
39, 25
24, 24
31, 34
35, 25
29, 25
16, 22
20, 21
13, 22
24, 33
25, 15
23, 19
22, 22
25, 21
18, 22
27, 22
17, 27
24, 29
17, 20
20, 23
18, 20
25, 26
17, 22
21, 28
19, 25
28, 20
26, 17
25, 26
24, 16
21, 23
23, 15
29, 21
19, 23
18, 26
17, 24
15, 22
19, 19
12, 16
14, 21
22, 11
20, 24
24, 27
27, 18
21, 24
25, 19
32, 22
25, 15
20, 22
24, 24
17, 23
20, 19
27, 14
23, 14
18, 9
16, 18
15, 20
10, 15
12, 13
18, 12
10, 14
17, 14
16, 18
10, 22
14, 24
25, 12
16, 23
22, 16
14, 23
14, 12
17, 10
17, 17
15, 10
9, 16
14, 19
15, 12
11, 15
16, 11
15, 18
18, 22
17, 14
14, 15
11, 16
14, 18
15, 9
17, 11
13, 12
16, 15
13, 13
17, 15
14, 9
18, 9
20, 15
18, 13
14, 19
8, 10
11, 8
8, 17
9, 14
12, 12
9, 12
18, 11
7, 13
18, 18
9, 9
5, 14
13, 9
12, 16
11, 9
14, 7
13, 10
11, 9
12, 10
12, 8
14, 8
18, 17
8, 17
11, 10
13, 12
16, 12
9, 9
6, 13
14, 12
13, 7
12, 11
16, 13
10, 10
18, 15
13, 15
10, 3
7, 8
5, 15
8, 14
8, 17
7, 7
13, 17
9, 10
8, 10
10, 10
12, 11
16, 7
12, 8
8, 9
8, 11
11, 7
9, 8
17, 7
14, 2
14, 9
8, 3
14, 7
17, 16
8, 11
15, 10
19, 11
12, 10
11, 13
5, 9
10, 12
12, 10
12, 11
8, 9
4, 9
13, 10
6, 10
13, 5
8, 12
2, 7
9, 8
5, 10
6, 6
2, 15
9, 14
8, 11
8, 6
9, 4
7, 9
12, 7
2, 5
11, 7
9, 5
8, 7
6, 10
10, 5
8, 7
11, 7
7, 6
4, 5
7, 6
8, 8
8, 4
8, 7
6, 5
7, 4
3, 7
4, 5
9, 9
6, 8
6, 7
6, 6
5, 5
4, 9
11, 4
8, 10
4, 4
4, 3
3, 6
6, 3
0, 10
1, 10
11, 8
7, 8
9, 10
4, 6
10, 6
5, 6
10, 6
5, 6
6, 5
4, 9
7, 7
3, 9
5, 5
2, 2
1, 5
4, 2
3, 6
3, 10
5, 2
3, 2
4, 2
5, 4
6, 3
8, 6
5, 3
2, 3
4, 2
10, 4
7, 10
1, 3
6, 3
2, 2
3, 6
1, 2
3, 8
8, 5
6, 6
6, 2
8, 6
0, 6
4, 4
5, 4
6, 1
2, 3
0, 5
5, 3
9, 3
2, 2
2, 4
0, 4
3, 7
7, 2
3, 1
6, 4
3, 3
1, 4
1, 3
1, 4
2, 1
2, 3
1, 3
3, 1
5, 2
1, 1
2, 3
5, 4
3, 6
2, 1
6, 5
3, 1
2, 1
2, 4
1, 2
0, 3
1, 4
0, 2
4, 2
0, 6
6, 4
5, 4
1, 4
5, 4
1, 0
2, 4
6, 0
5, 0
2, 3
1, 1
1, 4
2, 1
0, 2
1, 3
2, 0
2, 1
0, 5
3, 2
2, 0
2, 0
3, 6
2, 2
0, 2
1, 0
6, 0
1, 3
1, 2
1, 2
2, 3
3, 4
1, 1
1, 4
3, 2
0, 3
5, 1
5, 0
1, 2
1, 2
2, 1
0, 2
0, 1
2, 0
2, 1
1, 2
3, 2
4, 1
1, 0
1, 3
3, 0
2, 2
2, 0
1, 1
1, 1
0, 2
1, 1
1, 1
3, 1
0, 0
1, 2
1, 3
1, 2
2, 2
3, 3
1, 2
2, 1
1, 0
2, 0
2, 2
2, 0
1, 1
2, 0
3, 2
1, 3
2, 2
2, 0
2, 0
0, 2
2, 0
3, 4
2, 2
2, 1
1, 3
1, 2
4, 1
0, 3
0, 2
2, 1
2, 2
2, 1
0, 1
0, 3
2, 1
0, 1
0, 2
2, 1
0, 2
1, 1
0, 3
2, 0
2, 1
1, 1
1, 0
0, 3
3, 0
1, 2
0, 1
1, 1
0, 1
1, 0
3, 2
0, 1
1, 1
1, 0
3, 2
0, 0
1, 2
2, 1
0, 1
0, 1
2, 5
5, 1
1, 2
0, 1
2, 3
2, 0
1, 1
1, 0
3, 1
1, 1
3, 1
2, 1
0, 1
0, 2
1, 1
0, 2
1, 2
0, 1
4, 0
3, 1
1, 3
1, 1
0, 0
0, 2
2, 1
0, 1
0, 0
0, 1
0, 1
0, 1
0, 1
2, 1
0, 0
4, 0
1, 0
0, 3
1, 1
0, 0
0, 2
2, 0
1, 2
0, 1
0, 0
2, 1
0, 0
1, 0
0, 0
0, 0
1, 0
0, 1
0, 0
1, 0
0, 2
2, 2
0, 1
1, 1
0, 1
1, 0
2, 0
0, 2
0, 1
1, 0
0, 0
3, 0
2, 2
0, 0
0, 0
0, 0
0, 0
0, 2
0, 1
0, 1
0, 0
2, 0
0, 0
0, 0
0, 0
0, 1
1, 2
0, 0
0, 0
0, 0
0, 1
0, 0
0, 1
1, 1
0, 0
0, 0
0, 0
0, 0
0, 0
0, 0
2, 0
0, 1
1, 0
1, 0
0, 1
0, 1
0, 0
0, 0
0, 0
1, 1
0, 0
0, 1
0, 0
0, 0
0, 0
1, 0
1, 0
0, 0
0, 1
0, 0
1, 1
1, 0
0, 0
0, 0
0, 1
0, 0
0, 0
0, 0
0, 0
1, 0
1, 0
0, 0
0, 1
0, 0
1, 0
0, 0
0, 0
0, 0
0, 0
0, 1
0, 0
0, 0
0, 0
1, 1
0, 0
0, 1
0, 1
1, 0
0, 0
0, 0
0, 1
0, 0
0, 0
0, 2
1, 0
1, 0
0, 0
1, 0
1, 0
0, 0
0, 0
0, 0
0, 0
0, 0
0, 1
0, 0
0, 0
0, 0
0, 0
0, 0
0, 0
0, 0
0, 1
0, 0
0, 0
0, 0
0, 0
0, 0
1, 0
0, 0
0, 0
0, 0
0, 0
0, 0
0, 0
0, 0
1, 1
0, 0
0, 0
0, 0
0, 0
0, 0
0, 0
0, 0
0, 0
0, 1
0, 0
0, 0
0, 0
0, 0
0, 0
0, 0
0, 0
1, 1
1, 0
0, 0
0, 0
0, 0
0, 0
0, 0
0, 0
1, 0
0, 1
0, 0
0, 0
0, 0
1, 0
0, 1
0, 0
0, 0
0, 0
0, 0
0, 0
0, 0
0, 0
0, 0
0, 0
0, 0
0, 0
0, 0
0, 0
0, 0
1, 0
0, 0
0, 0
0, 0
0, 0
0, 0
0, 0
0, 0
1, 0
0, 0
0, 0
0, 0
2, 0
0, 0
0, 0
0, 0
0, 0
0, 0
0, 1
0, 0
0, 0
0, 0
0, 0
0, 0
0, 0
0, 1
0, 0
0, 0
0, 0
0, 0
0, 0
0, 0
0, 0
0, 0
0, 0
1, 0
0, 0
0, 0
0, 0
0, 0
0, 0
0, 0
0, 0
0, 1
0, 0
0, 0
0, 0
0, 0
0, 0
1, 0
0, 0
0, 0
0, 0
0, 0
0, 0
0, 0
0, 0
0, 0
0, 0
0, 0
0, 0
0, 0
0, 0
0, 0
0, 0
0, 0
0, 0
0, 0
0, 0
0, 0
0, 0
0, 0
0, 0
0, 0
0, 0
0, 0
0, 0
0, 0
0, 0
0, 0
0, 0
0, 0
0, 0
0, 0
0, 0
0, 0
0, 0
0, 0
0, 0
0, 0
0, 0
0, 0
0, 0
0, 0
0, 0
0, 0
0, 0
0, 0
0, 0
0, 0
0, 0
0, 0
0, 0
0, 0
0, 0
0, 0
0, 0
0, 0
0, 0
0, 0
0, 0
0, 0
0, 0
0, 0
0, 0
0, 1
0, 0
0, 0
0, 0
0, 0
0, 0
0, 0
0, 0
0, 1
0, 0
0, 0
0, 0
0, 0
0, 0
0, 0
0, 0
0, 0
0, 0
0, 0
0, 0
0, 0
0, 0
0, 0
0, 0
0, 0
0, 0
0, 0
0, 0
0, 0
0, 0
0, 0
0, 0
0, 0
0, 0
0, 0
0, 0
0, 0
0, 0
0, 0
0, 0
0, 0
0, 0
0, 0
0, 0
0, 0
0, 0
0, 0
0, 0
0, 0
0, 0
0, 0
0, 0
0, 0
0, 0
0, 0
0, 0
0, 0
0, 0
0, 0
0, 0
0, 0
0, 0
0, 0
0, 0
0, 0
0, 0
0, 0
1, 0
0, 0
0, 0
0, 0
0, 0
0, 0
0, 0
0, 0
0, 0
0, 0
0, 0
0, 0
0, 0
0, 0
0, 0
0, 0
0, 0
0, 0
0, 0
0, 0
0, 0
0, 0
0, 0
0, 0
0, 0
0, 0
0, 0
0, 0
0, 0
0, 0
0, 0
0, 0
0, 0
0, 0
0, 0
0, 0
0, 0
0, 0
0, 0
0, 0
0, 0
0, 0
0, 0
0, 0
0, 0
0, 0
0, 0
0, 0
0, 0
0, 0
0, 0
0, 0
0, 0
0, 0
0, 0
0, 0
0, 0
0, 0
0, 0
0, 0
0, 0
0, 0
0, 0
0, 0
0, 0
0, 0
0, 0
0, 0
0, 0
0, 0
0, 0
0, 0
0, 0
0, 0
0, 0
0, 0
0, 0
0, 0
0, 0
0, 0
0, 0
0, 0
0, 0
0, 0
0, 0
0, 0
0, 0
0, 0
0, 0
0, 0
0, 0
0, 0
0, 0
0, 0
0, 0
0, 0
0, 0
0, 0
0, 0
0, 0
0, 0
0, 0
0, 0
0, 0
0, 0
0, 0
0, 0
0, 0
0, 0
0, 0
0, 0
0, 0
0, 0
0, 0
0, 0
0, 0
0, 0
0, 0
0, 0
0, 0
0, 0
0, 0
0, 0
0, 0
0, 0
0, 0
0, 0
0, 0
0, 0
0, 0
0, 0
0, 0
0, 0
0, 0
0, 0
0, 0
0, 0
0, 0
0, 0
0, 0
0, 0
0, 0
0, 0
0, 0
0, 0
0, 0
0, 0
0, 0
0, 0
0, 0
0, 0
0, 0
0, 0
0, 0
0, 0
0, 0
0, 0
0, 0
0, 0
0, 0
0, 0
0, 0
0, 0
0, 0
0, 0
0, 0
0, 0
0, 0
0, 0
0, 0
#ENDOFDATA     end of spectrum data