File: host_upload/11-13-2023/BHVO/ps_0240/ps__0240_0688241128_000rfs_shot_8.msa
#FORMAT      : EMSA/MAS spectral data file
#VERSION     : TC202v2.0 PIXL
#TITLE       : N/A
#DATE        :       Date in the format DD-MMM-YYYY, for example 07-JUL-2010
#TIME        :             The time of day at which the spectrum was recorded, in 24-hour format
#OWNER       : PIXL Flight Model       (PIXL will use this to indicate which instrument took the data.)
#NPOINTS     : 4096     Number of data points in the spectrum (This can be zero for configuration only files)
#NCOLUMNS    : 2     Number of data columns in the spectrum (This can be zero for configuration only files)
#XUNITS      : eV
#YUNITS      : COUNTS
#DATATYPE    : YY
#XPERCHAN    : 7.862, 7.881   eV per channel (separate by commas if more than one detector)
#OFFSET      : 18.5, -22.4         eV of first channel  (separate by commas if more than one detector
#SIGNALTYPE  : XRF
#YP_TEMP     : 0.953
#LIVETIME    : 36.6142, 36.6188   seconds (separate by commas if more than one detector)
#REALTIME    : 40, 40   seconds (separate by commas if more than one detector)
#SPECTRUM    : start of spectrum data
0, 0
0, 0
0, 0
0, 0
0, 0
0, 0
0, 0
0, 0
0, 0
0, 0
0, 0
0, 0
0, 0
0, 0
0, 0
0, 0
0, 0
0, 0
0, 0
0, 0
0, 0
0, 0
0, 0
0, 0
0, 0
0, 0
0, 0
0, 0
0, 0
0, 0
0, 0
0, 1
0, 0
2, 0
2, 0
1, 3
3, 2
4, 3
5, 2
4, 7
10, 4
10, 8
10, 8
5, 19
13, 21
17, 11
13, 8
12, 11
11, 9
20, 15
22, 21
51, 46
60, 65
73, 82
92, 74
73, 85
67, 67
42, 38
57, 48
89, 68
144, 141
247, 238
348, 332
401, 459
462, 477
372, 414
286, 329
240, 193
217, 210
330, 296
637, 618
1195, 1168
1970, 1949
2792, 2823
3323, 3301
3222, 3363
2728, 2776
2017, 1983
1260, 1216
718, 647
348, 391
234, 192
111, 119
79, 88
81, 85
68, 66
66, 64
58, 46
40, 39
30, 28
20, 15
9, 16
20, 21
20, 19
22, 12
39, 39
46, 39
57, 53
59, 70
59, 68
50, 56
40, 39
31, 25
21, 21
20, 30
17, 15
31, 23
30, 25
45, 40
73, 68
100, 99
141, 139
214, 190
260, 264
316, 332
322, 333
301, 316
277, 266
236, 268
224, 246
218, 209
235, 238
222, 205
192, 161
148, 125
149, 115
109, 105
91, 82
59, 62
54, 49
46, 43
36, 30
25, 34
39, 34
27, 32
28, 45
58, 48
72, 78
84, 86
103, 117
136, 138
138, 169
141, 136
124, 105
86, 72
61, 48
39, 36
35, 40
53, 49
85, 107
171, 193
362, 400
654, 754
1107, 1357
1774, 1947
2439, 2635
2921, 3117
3044, 3201
2881, 2797
2282, 2259
1671, 1560
1080, 892
598, 534
325, 272
200, 173
136, 137
184, 170
241, 228
338, 348
426, 437
492, 463
509, 464
443, 381
341, 315
246, 221
136, 151
80, 92
56, 61
47, 48
32, 31
39, 39
29, 31
25, 37
38, 41
69, 58
103, 100
160, 180
226, 289
444, 460
613, 642
680, 752
807, 844
832, 788
739, 782
608, 537
438, 415
282, 235
183, 165
116, 114
102, 84
64, 61
56, 67
50, 51
59, 72
70, 84
88, 95
112, 132
134, 142
161, 161
200, 190
175, 196
155, 130
124, 126
115, 99
78, 76
83, 60
58, 56
40, 39
40, 49
42, 40
58, 43
39, 37
43, 51
39, 39
45, 44
56, 52
53, 62
61, 58
46, 69
64, 65
51, 65
60, 61
63, 50
47, 74
48, 56
47, 45
42, 39
48, 40
40, 40
37, 47
43, 51
35, 48
43, 38
49, 38
41, 53
56, 65
88, 84
86, 91
94, 104
101, 107
116, 136
132, 142
115, 107
94, 95
83, 90
92, 74
64, 80
67, 55
58, 63
46, 62
69, 79
87, 88
131, 117
200, 222
333, 422
670, 785
1110, 1392
1777, 2176
2670, 3038
3635, 3972
4483, 4758
4891, 5281
5002, 5046
4625, 4376
3780, 3536
2966, 2561
2004, 1568
1333, 1018
749, 545
394, 321
219, 159
115, 121
78, 74
74, 66
61, 66
50, 63
71, 50
62, 60
54, 80
53, 67
81, 71
82, 93
150, 147
165, 212
274, 317
398, 432
508, 593
662, 764
718, 800
778, 818
739, 777
701, 653
559, 537
413, 358
311, 272
192, 158
113, 87
91, 44
57, 54
51, 39
31, 34
24, 28
31, 41
22, 27
32, 30
39, 24
35, 30
35, 27
29, 31
30, 27
39, 27
24, 34
34, 29
40, 25
41, 35
30, 40
30, 39
37, 37
32, 26
27, 37
21, 32
37, 41
32, 26
27, 38
27, 30
41, 33
38, 34
32, 43
31, 45
39, 43
41, 27
37, 34
24, 46
42, 36
41, 34
34, 37
29, 37
34, 35
31, 20
35, 42
32, 34
31, 38
19, 18
35, 28
33, 30
25, 28
40, 29
28, 32
31, 21
32, 27
31, 24
30, 47
29, 23
25, 22
27, 53
32, 29
46, 27
38, 40
33, 33
26, 22
21, 34
23, 23
32, 31
24, 25
35, 25
37, 23
29, 31
34, 24
28, 35
34, 29
30, 20
23, 28
27, 22
25, 25
24, 35
31, 30
29, 27
30, 27
24, 29
22, 33
23, 33
25, 23
20, 20
20, 22
26, 32
27, 32
24, 24
19, 29
16, 33
26, 25
26, 25
19, 28
16, 20
25, 23
19, 21
20, 22
14, 17
19, 26
17, 16
25, 18
22, 21
18, 21
34, 25
22, 21
18, 18
17, 14
20, 24
15, 24
18, 18
19, 23
31, 21
16, 22
23, 22
24, 16
18, 22
31, 31
17, 22
15, 20
16, 30
21, 29
21, 23
21, 17
14, 19
16, 14
18, 20
20, 11
11, 12
24, 18
14, 13
17, 13
17, 14
24, 30
22, 9
11, 17
9, 21
16, 17
12, 22
15, 14
16, 21
26, 9
13, 21
15, 17
21, 16
17, 21
10, 23
14, 12
17, 22
19, 19
16, 11
16, 19
8, 15
18, 14
15, 19
17, 14
22, 18
12, 18
17, 15
20, 17
13, 18
15, 14
19, 12
13, 16
11, 16
13, 24
14, 19
23, 16
10, 12
15, 11
14, 15
24, 17
10, 11
12, 5
15, 23
17, 10
18, 9
17, 13
11, 13
16, 13
18, 13
11, 9
16, 11
12, 11
9, 13
13, 13
12, 11
16, 8
10, 17
15, 13
12, 11
7, 15
14, 11
12, 11
10, 11
11, 12
14, 14
7, 8
9, 14
13, 13
10, 8
9, 12
9, 10
5, 18
10, 11
9, 8
12, 16
10, 10
9, 11
8, 9
14, 10
11, 14
14, 11
14, 9
12, 10
6, 14
11, 9
6, 10
8, 7
7, 11
8, 13
11, 11
8, 12
9, 9
12, 7
11, 6
11, 12
15, 9
10, 11
6, 6
9, 12
8, 17
10, 12
9, 16
8, 4
8, 12
2, 7
11, 9
8, 12
6, 10
8, 12
7, 8
8, 11
9, 10
4, 2
7, 10
5, 10
8, 5
3, 8
12, 6
8, 6
2, 1
14, 8
5, 8
3, 9
4, 16
7, 10
10, 8
8, 12
7, 10
6, 6
10, 10
4, 7
11, 6
6, 5
4, 5
5, 5
7, 4
5, 13
7, 8
10, 7
5, 5
2, 5
5, 6
5, 5
6, 9
4, 8
7, 3
6, 7
3, 7
8, 5
2, 5
3, 9
4, 4
5, 4
8, 9
4, 11
4, 7
6, 7
4, 6
2, 6
7, 6
6, 11
9, 2
8, 9
5, 2
8, 5
8, 3
8, 6
5, 3
1, 4
5, 8
3, 5
4, 5
7, 5
5, 9
6, 2
4, 3
4, 6
9, 4
5, 5
9, 3
1, 4
7, 3
4, 4
2, 5
2, 8
2, 1
7, 3
1, 0
5, 7
4, 1
4, 5
3, 3
3, 3
4, 2
3, 1
3, 5
4, 4
4, 2
3, 5
9, 3
3, 2
3, 3
1, 4
2, 3
4, 3
2, 3
5, 2
5, 4
4, 5
3, 3
3, 2
5, 0
2, 1
4, 4
1, 2
1, 4
3, 0
1, 4
3, 2
2, 3
1, 1
1, 5
3, 4
5, 3
5, 3
5, 1
2, 7
5, 5
4, 2
4, 2
4, 2
6, 5
4, 3
4, 2
6, 1
2, 1
1, 7
7, 1
3, 0
2, 2
3, 1
4, 4
3, 0
2, 2
3, 1
1, 3
1, 1
2, 2
2, 1
1, 1
5, 1
4, 1
2, 1
2, 2
4, 3
1, 1
1, 2
2, 6
2, 3
2, 4
2, 5
0, 2
3, 0
3, 2
5, 3
2, 3
4, 1
1, 2
4, 3
1, 2
0, 2
1, 2
3, 2
3, 2
3, 1
2, 1
1, 2
0, 0
4, 4
1, 4
2, 2
0, 2
2, 1
1, 0
6, 1
0, 1
1, 2
2, 0
3, 0
1, 3
0, 0
2, 1
0, 2
1, 2
4, 2
0, 0
0, 1
2, 0
1, 0
1, 1
1, 1
1, 0
1, 0
1, 2
2, 0
3, 4
3, 3
1, 0
4, 1
0, 2
1, 0
3, 0
1, 1
0, 1
1, 0
0, 1
0, 2
0, 1
0, 0
2, 2
1, 2
0, 1
2, 1
3, 1
2, 2
3, 5
1, 2
0, 0
2, 0
0, 1
2, 1
1, 0
1, 1
1, 2
2, 2
1, 1
3, 1
0, 2
1, 1
0, 1
3, 0
0, 1
0, 1
1, 1
2, 0
2, 0
1, 0
2, 0
1, 2
2, 2
2, 2
3, 0
0, 3
3, 2
4, 1
2, 2
1, 3
2, 1
4, 1
0, 0
1, 0
3, 0
1, 0
2, 3
0, 1
0, 2
0, 0
0, 0
1, 0
0, 2
0, 0
0, 3
0, 2
1, 2
0, 2
1, 0
1, 1
2, 2
0, 1
0, 1
1, 0
2, 0
1, 2
2, 0
1, 0
1, 0
0, 0
1, 0
0, 0
1, 1
0, 1
0, 1
2, 0
0, 2
0, 0
0, 0
1, 1
0, 0
1, 1
0, 1
1, 0
1, 0
1, 0
1, 1
0, 1
0, 2
1, 0
1, 0
1, 0
0, 1
0, 0
1, 0
1, 1
0, 1
1, 2
1, 1
0, 0
0, 0
1, 2
0, 0
0, 1
1, 0
0, 0
2, 0
0, 0
1, 1
0, 0
1, 0
0, 1
0, 0
0, 0
0, 0
0, 0
1, 0
1, 2
0, 0
1, 0
1, 2
0, 0
0, 1
0, 0
0, 0
2, 1
1, 0
0, 0
0, 0
0, 0
0, 1
0, 2
0, 0
0, 1
0, 0
0, 0
1, 0
0, 0
1, 0
0, 0
0, 1
3, 1
0, 0
0, 0
0, 0
0, 1
0, 1
2, 0
1, 0
0, 0
1, 0
0, 1
0, 0
0, 0
0, 0
0, 0
0, 0
0, 0
0, 0
0, 0
0, 0
0, 0
0, 1
0, 0
0, 0
0, 1
0, 2
0, 0
0, 0
0, 0
0, 0
0, 1
1, 1
0, 0
0, 0
0, 0
0, 0
0, 0
0, 0
2, 0
1, 0
0, 0
0, 0
0, 0
0, 0
0, 1
0, 0
0, 0
0, 0
2, 0
0, 0
0, 1
0, 0
0, 0
0, 1
0, 0
0, 1
0, 0
0, 0
0, 0
1, 0
0, 1
0, 0
0, 0
0, 1
0, 1
0, 0
0, 0
0, 1
0, 0
0, 0
0, 0
1, 0
0, 0
0, 0
0, 0
0, 0
0, 0
0, 0
0, 0
0, 0
0, 0
0, 0
0, 0
0, 0
0, 0
0, 0
0, 0
0, 0
0, 0
0, 0
0, 0
0, 0
0, 0
0, 0
0, 1
0, 0
0, 0
0, 0
0, 0
0, 0
0, 0
0, 0
0, 0
0, 0
0, 1
0, 0
0, 0
0, 0
0, 0
0, 0
0, 0
0, 0
0, 0
0, 0
0, 1
0, 0
0, 0
0, 0
0, 0
0, 0
0, 0
0, 0
0, 0
0, 0
0, 0
0, 0
1, 0
0, 0
0, 0
1, 0
0, 0
0, 1
0, 0
0, 0
0, 0
0, 0
1, 0
0, 0
0, 0
0, 0
0, 0
0, 0
0, 0
0, 0
0, 0
0, 0
0, 0
0, 0
0, 0
0, 0
0, 0
0, 0
0, 0
0, 0
0, 0
0, 0
0, 0
0, 0
0, 0
0, 0
0, 0
0, 0
0, 0
0, 0
0, 0
0, 0
0, 0
0, 0
0, 0
0, 0
0, 0
0, 0
0, 0
0, 0
0, 0
0, 0
0, 0
0, 0
0, 0
0, 0
0, 0
0, 0
0, 0
0, 0
0, 0
0, 0
0, 0
0, 0
0, 0
0, 0
0, 0
0, 0
0, 0
0, 0
0, 0
0, 0
0, 0
0, 0
0, 0
0, 0
0, 0
0, 0
0, 0
0, 0
0, 0
0, 0
0, 0
0, 0
0, 0
0, 0
0, 0
0, 0
0, 0
0, 0
0, 0
0, 0
0, 0
0, 0
0, 0
0, 0
0, 0
0, 0
0, 0
0, 0
0, 0
0, 0
0, 0
0, 0
0, 0
0, 0
0, 0
0, 0
0, 0
0, 0
0, 0
0, 0
0, 0
0, 0
0, 0
0, 0
0, 0
0, 0
0, 1
0, 0
0, 0
0, 0
0, 0
0, 0
0, 0
0, 0
0, 0
0, 0
0, 0
0, 0
0, 0
0, 0
0, 0
0, 0
0, 0
0, 0
0, 0
0, 0
0, 0
0, 0
0, 0
0, 0
0, 0
0, 0
0, 0
0, 0
0, 0
0, 0
0, 0
0, 0
0, 0
0, 0
0, 0
0, 0
0, 0
0, 0
0, 0
0, 0
0, 0
0, 0
0, 0
0, 0
0, 0
0, 0
0, 0
0, 0
0, 0
0, 0
0, 0
0, 0
0, 0
0, 0
0, 0
0, 0
0, 0
0, 0
0, 0
0, 0
0, 0
0, 0
0, 0
0, 0
0, 0
0, 0
0, 0
0, 0
0, 0
0, 0
0, 0
0, 0
0, 0
0, 0
0, 0
0, 0
0, 0
0, 0
0, 0
0, 0
0, 0
0, 0
0, 0
0, 0
0, 0
0, 0
0, 0
0, 0
0, 0
0, 0
0, 0
0, 0
0, 0
0, 0
0, 0
0, 0
0, 0
0, 0
0, 0
0, 0
0, 0
0, 0
0, 0
0, 0
0, 0
0, 0
0, 0
0, 0
0, 0
0, 0
0, 0
0, 0
0, 0
0, 0
0, 0
0, 0
0, 0
0, 0
0, 0
0, 0
0, 0
0, 0
0, 0
0, 0
0, 0
0, 0
0, 0
0, 0
0, 0
0, 0
0, 0
0, 0
0, 0
0, 0
0, 0
0, 0
0, 0
0, 0
0, 0
0, 0
0, 0
0, 0
0, 0
0, 0
0, 0
0, 0
0, 0
0, 0
0, 0
0, 0
0, 0
0, 0
0, 0
0, 0
0, 0
0, 0
0, 0
0, 0
0, 0
0, 0
0, 0
0, 0
0, 0
0, 0
0, 0
0, 0
0, 0
0, 0
0, 0
0, 0
0, 0
0, 0
0, 0
0, 0
0, 0
0, 0
0, 0
0, 0
0, 0
0, 0
0, 0
0, 0
0, 0
0, 0
0, 0
0, 0
0, 0
0, 0
0, 0
0, 0
0, 0
0, 0
0, 0
0, 0
0, 0
0, 0
0, 0
0, 0
0, 0
0, 0
0, 0
0, 0
0, 0
0, 0
0, 0
0, 0
0, 0
0, 0
0, 0
0, 0
0, 0
0, 0
0, 0
0, 0
0, 0
0, 0
0, 0
0, 0
0, 0
0, 0
0, 0
0, 0
0, 0
0, 0
0, 0
0, 0
#ENDOFDATA     end of spectrum data