File: host_upload/12-01-2023/Dourbes (shot-by-shot)/upload_4/ps__0257_0689790785_000rfs_shot_3257.msa
#FORMAT      : EMSA/MAS spectral data file
#VERSION     : TC202v2.0 PIXL
#TITLE       : N/A
#DATE        :       Date in the format DD-MMM-YYYY, for example 07-JUL-2010
#TIME        :             The time of day at which the spectrum was recorded, in 24-hour format
#OWNER       : PIXL Flight Model       (PIXL will use this to indicate which instrument took the data.)
#NPOINTS     : 4096     Number of data points in the spectrum (This can be zero for configuration only files)
#NCOLUMNS    : 2     Number of data columns in the spectrum (This can be zero for configuration only files)
#XUNITS      : eV
#YUNITS      : COUNTS
#DATATYPE    : YY
#XPERCHAN    : 7.862, 7.881   eV per channel (separate by commas if more than one detector)
#OFFSET      : 18.5, -22.4         eV of first channel  (separate by commas if more than one detector
#SIGNALTYPE  : XRF
#YP_TEMP     : 3.005
#LIVETIME    : 8.81282, 8.9501   seconds (separate by commas if more than one detector)
#REALTIME    : 10, 10.0   seconds (separate by commas if more than one detector)
#SPECTRUM    : start of spectrum data
0, 0
0, 0
0, 0
0, 0
0, 0
0, 0
0, 0
0, 0
0, 0
0, 0
0, 0
0, 0
0, 0
0, 0
0, 0
0, 0
0, 0
0, 0
0, 0
0, 0
0, 0
0, 0
0, 0
0, 0
0, 0
0, 0
0, 0
0, 0
0, 0
1, 0
0, 0
0, 0
1, 0
2, 1
3, 1
6, 0
10, 1
18, 1
35, 2
38, 2
70, 2
76, 1
84, 2
61, 2
38, 2
27, 1
13, 1
21, 3
8, 1
12, 3
14, 6
26, 24
44, 36
44, 48
57, 45
50, 46
40, 30
29, 22
18, 9
6, 2
9, 3
4, 4
8, 2
11, 2
8, 2
4, 10
9, 5
15, 9
14, 8
32, 21
69, 65
139, 127
218, 230
349, 306
369, 392
414, 394
353, 336
242, 256
146, 143
86, 79
38, 51
25, 20
16, 12
9, 8
6, 4
6, 4
8, 7
3, 7
8, 4
5, 2
9, 2
6, 9
10, 10
22, 20
35, 41
72, 70
107, 97
159, 160
178, 180
188, 172
144, 143
117, 98
62, 68
47, 43
27, 26
20, 19
43, 13
81, 26
177, 25
382, 51
863, 66
1639, 96
2895, 132
4024, 120
5254, 135
5594, 96
5297, 106
4292, 87
2887, 52
1735, 40
886, 53
405, 32
181, 30
69, 31
39, 30
22, 24
24, 16
17, 14
10, 10
5, 7
4, 8
4, 6
3, 5
5, 2
3, 4
4, 4
4, 5
5, 6
6, 6
7, 3
11, 3
3, 2
1, 6
3, 5
5, 4
2, 4
3, 4
2, 4
2, 3
7, 5
8, 6
7, 9
9, 11
16, 15
22, 41
43, 47
42, 56
39, 60
46, 45
38, 36
28, 29
20, 13
10, 7
5, 5
11, 1
5, 3
6, 4
6, 2
9, 9
13, 6
19, 8
20, 9
12, 7
11, 13
9, 8
12, 3
7, 9
7, 6
8, 7
3, 9
6, 5
12, 4
4, 7
6, 6
2, 1
4, 4
2, 9
10, 6
9, 12
16, 11
14, 19
16, 31
21, 31
18, 53
17, 77
15, 95
29, 98
31, 98
22, 94
23, 85
23, 67
13, 47
11, 22
12, 25
12, 14
3, 14
6, 6
6, 9
10, 7
7, 13
8, 9
10, 12
4, 14
4, 6
7, 12
4, 10
7, 11
8, 6
7, 8
11, 8
11, 8
8, 10
10, 8
15, 8
13, 10
17, 9
24, 13
20, 11
19, 15
29, 11
23, 11
34, 15
14, 15
14, 11
17, 8
16, 6
10, 13
5, 6
11, 8
8, 8
8, 4
9, 9
14, 16
11, 16
16, 15
28, 19
38, 39
56, 58
65, 87
91, 98
93, 116
85, 90
107, 104
80, 77
51, 60
40, 46
34, 38
22, 35
25, 32
20, 31
15, 27
34, 26
44, 64
87, 132
173, 234
348, 399
660, 807
1049, 1391
1671, 2019
2405, 2821
3094, 3465
3529, 3927
3650, 3750
3505, 3541
3024, 2873
2421, 2153
1645, 1373
1019, 839
564, 482
307, 232
145, 97
94, 50
47, 35
46, 20
54, 15
46, 21
55, 20
74, 23
60, 21
68, 34
63, 31
79, 40
81, 72
122, 127
135, 171
225, 270
295, 341
383, 465
523, 495
523, 545
576, 529
486, 502
389, 382
315, 282
243, 192
154, 106
92, 57
63, 33
26, 27
12, 7
8, 5
8, 3
4, 5
7, 8
6, 6
5, 4
5, 11
9, 6
8, 6
10, 6
3, 8
8, 6
6, 7
3, 7
2, 6
5, 3
6, 1
2, 8
7, 8
5, 8
6, 12
7, 17
4, 18
3, 15
3, 15
3, 16
5, 10
6, 9
5, 11
3, 3
6, 2
2, 5
2, 6
6, 6
8, 6
9, 3
3, 7
7, 7
2, 6
3, 7
2, 2
7, 5
5, 2
5, 2
7, 2
9, 2
3, 4
7, 4
6, 1
3, 1
2, 3
7, 9
1, 2
4, 1
6, 3
4, 3
7, 4
7, 9
4, 5
2, 9
4, 3
1, 3
4, 2
3, 3
6, 2
6, 3
3, 2
0, 2
9, 6
7, 3
5, 0
7, 5
20, 3
14, 6
15, 1
16, 3
24, 7
16, 4
17, 11
17, 7
7, 5
7, 10
8, 11
6, 11
2, 8
7, 12
7, 15
5, 5
2, 7
5, 5
7, 5
4, 3
7, 2
1, 2
4, 3
2, 6
5, 4
6, 4
3, 2
3, 4
3, 2
6, 2
4, 3
6, 3
7, 3
1, 0
5, 3
1, 0
3, 1
3, 8
3, 4
2, 0
1, 2
5, 0
1, 5
2, 4
2, 2
3, 1
1, 2
1, 2
3, 0
6, 1
2, 1
0, 1
1, 1
2, 2
1, 2
1, 1
2, 2
4, 1
6, 3
4, 3
0, 0
2, 0
3, 1
0, 2
1, 1
0, 0
2, 3
3, 1
5, 2
4, 1
5, 3
4, 2
9, 1
10, 0
6, 3
9, 1
11, 1
12, 1
15, 3
6, 3
10, 1
8, 4
4, 1
4, 3
4, 1
2, 4
1, 2
1, 2
0, 3
1, 3
1, 2
1, 0
1, 0
0, 2
2, 1
2, 0
0, 3
2, 1
2, 2
1, 2
1, 0
0, 2
2, 4
4, 0
1, 4
3, 3
2, 1
2, 1
1, 0
0, 0
0, 5
3, 0
1, 2
4, 1
2, 1
1, 0
1, 1
3, 0
1, 2
0, 2
1, 1
0, 1
1, 0
1, 1
1, 1
1, 2
2, 0
0, 2
4, 0
1, 2
1, 1
4, 2
2, 0
4, 2
3, 1
3, 2
0, 0
5, 3
2, 1
1, 2
1, 4
1, 0
1, 1
2, 2
3, 2
3, 2
2, 2
2, 0
0, 1
1, 1
0, 0
1, 0
2, 2
4, 1
4, 2
5, 5
5, 7
4, 9
9, 7
6, 6
8, 10
9, 6
8, 4
6, 6
6, 5
3, 4
2, 2
2, 3
2, 2
3, 0
1, 0
1, 0
0, 4
2, 0
0, 2
1, 2
2, 1
1, 2
2, 2
3, 1
2, 2
4, 2
1, 1
2, 4
2, 6
1, 3
4, 5
3, 2
3, 4
1, 3
4, 3
3, 1
2, 2
0, 0
1, 1
4, 0
1, 1
0, 4
3, 1
1, 3
0, 0
1, 0
2, 1
2, 0
2, 0
2, 0
0, 1
0, 4
1, 2
2, 2
1, 1
0, 0
0, 2
0, 1
2, 3
2, 1
0, 0
0, 0
0, 1
1, 1
0, 1
0, 1
1, 0
1, 2
0, 1
0, 1
1, 0
0, 0
1, 0
0, 1
2, 0
1, 1
1, 0
0, 0
1, 0
0, 1
0, 1
0, 1
0, 1
0, 1
2, 0
1, 1
0, 2
0, 0
0, 0
1, 1
2, 2
1, 0
2, 0
0, 0
0, 0
0, 0
3, 1
1, 1
0, 2
2, 1
0, 0
0, 1
0, 0
0, 1
0, 2
1, 0
0, 0
0, 0
1, 0
0, 1
0, 0
1, 0
0, 0
0, 1
0, 1
2, 1
0, 0
0, 0
0, 1
0, 1
0, 3
0, 2
0, 0
0, 0
1, 0
1, 0
0, 0
1, 0
2, 0
0, 0
0, 1
1, 1
0, 1
1, 0
1, 0
0, 0
0, 1
0, 0
0, 0
1, 0
0, 0
1, 0
0, 1
0, 0
1, 1
1, 0
1, 0
0, 0
0, 0
0, 0
1, 1
0, 0
0, 0
0, 2
2, 0
0, 0
1, 0
2, 0
0, 0
0, 1
0, 0
0, 0
0, 0
0, 0
1, 0
0, 0
0, 0
0, 0
0, 0
1, 1
0, 0
0, 0
0, 0
0, 0
0, 0
1, 0
0, 0
0, 0
0, 1
1, 0
0, 0
1, 0
0, 1
1, 0
1, 0
0, 1
2, 1
1, 0
0, 0
0, 1
0, 1
1, 0
0, 0
0, 0
0, 0
0, 0
1, 1
0, 0
1, 0
0, 0
0, 0
1, 0
1, 0
0, 0
0, 1
1, 0
0, 0
0, 0
1, 0
0, 0
1, 1
0, 0
0, 0
0, 0
0, 0
0, 0
1, 1
0, 0
0, 0
1, 2
0, 1
1, 0
0, 0
0, 0
0, 0
0, 0
0, 0
1, 0
0, 0
0, 0
0, 0
0, 1
0, 0
0, 1
0, 0
0, 0
0, 0
0, 1
0, 0
0, 0
0, 1
1, 0
0, 0
0, 0
0, 0
1, 0
0, 1
0, 0
0, 0
0, 0
0, 0
1, 0
0, 1
0, 0
0, 1
0, 0
0, 0
0, 0
0, 0
0, 1
1, 0
0, 2
0, 0
0, 0
0, 0
0, 1
0, 0
0, 1
0, 0
0, 0
0, 0
0, 1
0, 0
0, 0
0, 0
0, 0
0, 0
0, 0
0, 0
1, 0
0, 0
0, 0
0, 0
0, 1
0, 0
0, 0
0, 0
0, 0
0, 0
0, 1
0, 0
0, 0
0, 0
0, 0
0, 0
0, 0
0, 0
0, 0
0, 0
0, 0
1, 0
0, 1
0, 0
0, 0
0, 0
0, 0
0, 1
0, 0
0, 0
0, 0
0, 0
0, 0
1, 1
0, 0
0, 1
0, 0
0, 1
2, 0
1, 0
1, 0
0, 0
0, 0
0, 0
0, 0
0, 0
0, 1
0, 0
0, 0
0, 0
0, 0
0, 0
0, 0
0, 0
0, 0
0, 0
0, 0
0, 0
0, 0
0, 0
0, 0
0, 0
0, 0
0, 0
0, 0
0, 0
0, 0
0, 0
0, 0
0, 0
0, 0
0, 0
0, 0
0, 0
0, 0
1, 0
0, 1
0, 0
0, 0
0, 0
0, 0
0, 0
0, 0
0, 0
1, 0
0, 0
0, 0
0, 0
0, 0
0, 0
0, 0
0, 0
0, 0
0, 0
1, 0
0, 0
0, 0
0, 0
0, 0
0, 0
0, 0
0, 0
0, 0
0, 0
0, 0
1, 0
0, 0
0, 0
0, 0
0, 0
0, 0
0, 0
0, 0
0, 0
0, 0
0, 0
0, 0
0, 0
0, 0
0, 0
0, 0
0, 0
0, 0
0, 0
0, 0
0, 0
0, 0
0, 0
0, 0
0, 0
0, 0
0, 0
0, 0
0, 0
0, 0
0, 0
0, 0
0, 0
1, 0
0, 0
0, 0
0, 0
0, 0
0, 0
0, 0
0, 0
0, 0
0, 0
0, 0
0, 0
0, 0
0, 0
0, 0
0, 0
0, 0
0, 0
0, 0
0, 0
0, 0
0, 0
0, 0
0, 0
0, 0
0, 0
0, 1
0, 0
0, 0
0, 0
0, 0
0, 0
0, 0
0, 0
0, 0
0, 0
0, 0
0, 0
0, 0
0, 0
0, 0
0, 0
0, 0
0, 0
0, 0
0, 0
0, 0
0, 0
0, 0
0, 0
0, 0
0, 0
0, 0
0, 0
0, 0
0, 0
0, 0
0, 0
0, 0
0, 0
0, 0
0, 0
0, 0
0, 0
0, 0
0, 0
0, 0
0, 0
0, 0
0, 0
0, 0
0, 0
0, 0
0, 0
0, 0
0, 0
0, 0
0, 0
0, 0
0, 0
0, 0
0, 0
0, 0
0, 0
0, 0
0, 0
0, 0
0, 0
0, 0
0, 0
0, 0
0, 0
0, 0
0, 0
0, 0
0, 0
0, 0
0, 0
0, 0
0, 0
0, 0
0, 0
0, 0
0, 0
0, 0
0, 0
0, 0
0, 0
0, 0
0, 0
0, 0
0, 0
0, 0
0, 0
0, 0
0, 0
0, 0
0, 0
0, 0
0, 0
0, 0
0, 0
0, 0
0, 0
0, 0
0, 0
0, 0
0, 0
0, 0
0, 0
0, 0
0, 0
0, 0
0, 0
0, 0
0, 0
0, 0
0, 0
0, 0
0, 0
0, 0
0, 0
0, 0
0, 0
0, 0
0, 0
0, 0
0, 0
0, 0
0, 0
0, 0
0, 0
0, 0
0, 0
0, 0
0, 0
0, 0
0, 0
0, 0
0, 0
0, 0
0, 0
0, 0
0, 0
0, 0
0, 0
0, 0
0, 0
0, 0
0, 0
0, 0
0, 0
0, 0
0, 0
0, 0
0, 0
0, 0
0, 0
0, 0
0, 0
0, 0
0, 0
0, 0
0, 0
0, 0
0, 0
0, 0
0, 0
0, 0
0, 0
0, 0
0, 0
0, 0
0, 0
0, 0
0, 0
0, 0
0, 0
0, 0
0, 0
0, 0
0, 0
0, 0
0, 0
0, 0
0, 0
0, 0
0, 0
0, 0
0, 0
0, 0
0, 0
0, 0
0, 0
0, 0
0, 0
0, 0
0, 0
0, 0
0, 0
0, 0
0, 0
0, 0
0, 0
0, 0
0, 0
0, 0
0, 0
0, 0
0, 0
0, 0
0, 0
0, 0
0, 0
0, 0
0, 0
0, 0
0, 0
0, 0
0, 0
0, 0
0, 0
0, 0
0, 0
0, 0
0, 0
0, 0
0, 0
0, 0
0, 0
0, 0
0, 0
0, 0
0, 0
0, 0
0, 0
0, 0
0, 0
0, 0
0, 0
0, 0
0, 0
0, 0
0, 0
0, 0
0, 0
0, 0
0, 0
0, 0
0, 0
0, 0
0, 0
0, 0
0, 0
0, 0
0, 0
0, 0
0, 0
0, 0
0, 0
0, 0
0, 0
0, 0
0, 0
0, 0
0, 0
0, 0
0, 0
0, 0
0, 0
0, 0
0, 0
0, 0
0, 0
0, 0
0, 0
0, 0
0, 0
0, 0
0, 0
0, 0
0, 0
0, 0
0, 0
0, 0
0, 0
0, 0
0, 0
0, 0
0, 0
0, 0
0, 0
0, 0
0, 0
0, 0
0, 0
0, 0
0, 0
0, 0
0, 0
0, 0
0, 0
0, 0
0, 0
0, 0
0, 0
0, 0
0, 0
0, 0
0, 0
0, 0
0, 0
0, 0
0, 0
0, 0
0, 0
0, 0
0, 0
0, 0
0, 0
0, 0
0, 0
0, 0
0, 0
0, 0
0, 0
0, 0
0, 0
0, 0
0, 0
0, 0
0, 0
0, 0
0, 0
0, 0
0, 0
0, 0
0, 0
0, 0
0, 0
0, 0
0, 0
0, 0
0, 0
0, 0
0, 0
0, 0
0, 0
0, 0
0, 0
0, 0
0, 0
0, 0
0, 0
0, 0
0, 0
0, 0
0, 0
0, 0
0, 0
0, 0
0, 0
0, 0
0, 0
0, 0
0, 0
0, 0
0, 0
0, 0
0, 0
0, 0
0, 0
0, 0
0, 0
0, 0
0, 0
0, 0
0, 0
0, 0
0, 0
0, 0
0, 0
0, 0
0, 0
0, 0
0, 0
0, 0
0, 0
0, 0
0, 0
0, 0
#ENDOFDATA     end of spectrum data