File: host_upload/12-01-2023/Dourbes (shot-by-shot)/upload_4/ps__0257_0689790785_000rfs_shot_3317.msa
#FORMAT      : EMSA/MAS spectral data file
#VERSION     : TC202v2.0 PIXL
#TITLE       : N/A
#DATE        :       Date in the format DD-MMM-YYYY, for example 07-JUL-2010
#TIME        :             The time of day at which the spectrum was recorded, in 24-hour format
#OWNER       : PIXL Flight Model       (PIXL will use this to indicate which instrument took the data.)
#NPOINTS     : 4096     Number of data points in the spectrum (This can be zero for configuration only files)
#NCOLUMNS    : 2     Number of data columns in the spectrum (This can be zero for configuration only files)
#XUNITS      : eV
#YUNITS      : COUNTS
#DATATYPE    : YY
#XPERCHAN    : 7.862, 7.881   eV per channel (separate by commas if more than one detector)
#OFFSET      : 18.5, -22.4         eV of first channel  (separate by commas if more than one detector
#SIGNALTYPE  : XRF
#YP_TEMP     : 3.294
#LIVETIME    : 9.14317, 9.13986   seconds (separate by commas if more than one detector)
#REALTIME    : 10, 10.0   seconds (separate by commas if more than one detector)
#SPECTRUM    : start of spectrum data
0, 0
0, 0
0, 0
0, 0
0, 0
0, 0
0, 0
0, 0
0, 0
0, 0
0, 0
0, 0
0, 0
0, 0
0, 0
0, 0
0, 0
0, 0
0, 0
0, 0
0, 0
0, 0
0, 0
0, 0
0, 0
0, 0
0, 0
0, 0
0, 0
0, 0
0, 1
0, 0
0, 0
0, 0
0, 3
0, 1
0, 0
0, 0
0, 0
0, 3
0, 3
3, 1
2, 2
0, 2
2, 3
2, 0
0, 2
2, 2
1, 4
1, 4
9, 12
19, 17
39, 27
39, 45
48, 43
48, 38
36, 25
25, 17
8, 9
7, 7
3, 5
7, 5
10, 7
14, 12
14, 12
8, 8
11, 7
12, 11
23, 21
46, 53
125, 148
263, 284
452, 484
698, 722
814, 875
801, 849
709, 722
496, 552
310, 330
171, 175
80, 87
50, 51
24, 25
24, 19
25, 18
11, 16
10, 8
7, 4
6, 6
3, 1
2, 5
1, 5
1, 0
2, 3
5, 5
4, 6
7, 8
7, 8
7, 5
10, 3
5, 10
3, 4
4, 6
3, 7
4, 4
4, 5
4, 6
4, 5
8, 14
11, 12
15, 14
22, 24
34, 17
17, 28
31, 33
36, 29
47, 22
25, 31
28, 25
22, 29
19, 30
13, 14
19, 22
17, 14
11, 14
14, 11
15, 10
12, 12
13, 9
5, 9
6, 9
5, 0
5, 5
2, 7
5, 2
2, 5
8, 3
3, 3
1, 3
5, 3
5, 5
5, 2
4, 6
9, 4
5, 4
3, 5
4, 6
7, 6
12, 14
18, 19
50, 40
106, 101
203, 216
371, 421
563, 682
806, 877
1031, 1130
1103, 1274
1090, 1155
895, 914
602, 606
407, 364
207, 212
118, 110
64, 47
35, 44
38, 54
63, 84
99, 119
136, 185
159, 147
162, 192
140, 158
121, 125
77, 83
35, 40
29, 34
8, 18
5, 9
2, 6
3, 6
6, 1
4, 3
1, 3
4, 3
3, 2
4, 9
11, 16
15, 19
15, 28
30, 13
23, 32
23, 38
34, 29
23, 19
16, 27
14, 22
16, 11
8, 13
8, 5
7, 7
5, 6
5, 3
8, 8
7, 8
8, 4
6, 6
4, 6
11, 4
9, 11
11, 9
10, 13
5, 12
6, 5
11, 5
3, 3
3, 7
3, 3
4, 2
3, 2
2, 5
3, 6
7, 4
7, 8
9, 10
16, 20
17, 12
39, 27
31, 42
43, 42
37, 48
33, 43
31, 28
37, 28
14, 23
16, 17
8, 13
8, 9
3, 6
5, 9
5, 4
7, 6
4, 9
4, 9
7, 18
11, 13
12, 26
24, 31
39, 41
43, 49
46, 48
40, 49
49, 36
36, 51
35, 33
14, 15
10, 19
16, 18
13, 16
10, 10
11, 17
21, 11
21, 17
42, 40
56, 75
142, 139
202, 314
384, 444
555, 719
793, 1017
1026, 1238
1237, 1390
1287, 1343
1224, 1271
1066, 995
822, 765
604, 455
418, 291
246, 180
129, 89
75, 42
38, 27
23, 9
17, 7
12, 8
7, 9
14, 12
13, 9
13, 15
10, 17
13, 13
17, 17
23, 41
31, 57
57, 58
91, 108
109, 119
172, 166
162, 195
194, 227
208, 207
188, 178
137, 145
103, 109
78, 85
64, 42
24, 27
30, 16
13, 14
21, 8
23, 7
27, 3
19, 5
38, 2
32, 8
34, 8
49, 4
39, 6
32, 10
17, 6
25, 4
19, 10
16, 4
7, 5
7, 2
7, 7
7, 3
6, 8
5, 2
4, 2
3, 6
5, 5
3, 2
5, 3
7, 5
2, 8
4, 2
6, 4
3, 4
4, 4
0, 3
6, 4
7, 3
3, 2
9, 2
6, 6
7, 2
3, 1
7, 2
2, 4
7, 6
4, 7
3, 9
5, 4
4, 11
5, 12
6, 17
7, 19
4, 18
3, 21
4, 15
7, 18
3, 7
4, 8
3, 13
6, 8
3, 4
7, 7
5, 4
2, 3
6, 6
7, 2
7, 7
8, 6
2, 2
7, 10
7, 4
7, 11
1, 5
5, 3
2, 7
6, 4
2, 3
5, 2
2, 3
4, 4
2, 6
4, 7
8, 7
8, 5
2, 9
4, 12
6, 6
4, 16
5, 6
2, 18
4, 11
4, 14
2, 13
5, 8
5, 10
5, 4
2, 5
3, 5
0, 6
1, 7
5, 8
3, 5
4, 11
2, 8
6, 10
4, 14
3, 12
2, 19
5, 12
2, 10
4, 14
3, 8
4, 5
7, 8
5, 5
4, 3
5, 5
8, 6
5, 4
9, 2
9, 6
10, 2
9, 6
6, 8
8, 5
4, 5
5, 6
6, 0
1, 5
3, 2
9, 4
2, 1
5, 4
6, 4
6, 0
0, 8
4, 3
5, 3
3, 1
0, 5
3, 0
3, 2
1, 8
3, 1
1, 3
1, 1
5, 3
1, 1
7, 2
5, 5
1, 3
3, 4
2, 3
1, 3
6, 2
1, 1
5, 0
6, 2
4, 1
4, 2
1, 2
6, 6
6, 1
4, 1
8, 2
3, 2
5, 1
5, 3
3, 3
0, 2
1, 3
2, 3
0, 2
2, 3
3, 4
2, 1
2, 4
0, 3
1, 5
3, 2
3, 5
2, 7
2, 5
2, 7
1, 7
1, 2
1, 4
2, 4
3, 4
3, 1
2, 1
0, 1
4, 2
3, 2
2, 3
4, 7
4, 2
6, 1
4, 4
5, 4
3, 0
2, 1
6, 3
5, 1
11, 1
5, 3
5, 3
11, 1
4, 1
8, 2
7, 1
1, 0
8, 0
2, 1
6, 2
2, 2
6, 6
2, 1
4, 4
4, 0
1, 2
3, 2
3, 2
2, 1
1, 2
0, 1
3, 1
0, 2
4, 1
0, 0
4, 2
4, 1
2, 1
0, 2
3, 6
3, 1
1, 2
1, 3
1, 6
1, 3
0, 0
2, 3
2, 1
2, 1
1, 5
1, 1
1, 2
1, 1
1, 2
1, 1
0, 1
1, 2
3, 2
5, 0
0, 0
2, 0
0, 2
2, 1
1, 2
4, 2
0, 0
1, 2
3, 1
4, 1
2, 1
3, 3
3, 2
0, 3
2, 1
4, 1
1, 2
1, 0
1, 0
1, 3
0, 0
2, 2
1, 2
3, 3
0, 2
0, 2
2, 5
1, 2
4, 0
0, 0
1, 2
0, 2
1, 4
1, 1
0, 2
2, 1
0, 2
0, 1
0, 0
1, 4
1, 1
1, 1
0, 1
0, 1
0, 1
1, 0
0, 0
0, 1
1, 1
2, 0
2, 0
1, 1
1, 1
0, 1
0, 2
0, 0
0, 1
1, 4
1, 0
0, 2
1, 1
0, 1
2, 0
0, 0
2, 2
0, 0
2, 0
0, 1
2, 1
2, 0
2, 0
1, 0
2, 0
1, 1
0, 0
2, 0
0, 1
0, 0
2, 0
1, 0
0, 0
0, 0
1, 0
1, 2
0, 1
1, 0
0, 1
0, 1
0, 0
0, 1
0, 0
0, 0
0, 1
0, 0
0, 1
0, 1
2, 0
2, 0
0, 1
0, 0
0, 1
1, 0
1, 1
3, 1
0, 0
0, 1
0, 1
2, 0
2, 0
1, 1
1, 1
1, 0
0, 1
1, 0
1, 1
2, 1
0, 0
0, 0
1, 1
0, 0
0, 0
1, 0
2, 0
0, 1
0, 1
1, 1
0, 1
1, 1
0, 0
0, 0
0, 1
0, 1
0, 0
0, 1
1, 0
0, 1
1, 0
0, 1
1, 1
1, 0
0, 0
0, 0
2, 0
0, 1
0, 0
0, 1
0, 0
0, 0
0, 0
0, 0
1, 0
0, 1
2, 1
0, 0
1, 0
0, 0
0, 0
1, 0
0, 1
0, 0
0, 0
0, 0
2, 0
1, 0
0, 0
0, 1
0, 0
0, 3
0, 0
1, 0
1, 0
0, 0
0, 0
1, 0
0, 0
1, 0
0, 0
0, 0
0, 0
1, 1
0, 0
1, 0
1, 0
1, 0
1, 0
0, 0
0, 0
0, 0
0, 0
0, 0
0, 0
0, 1
1, 0
0, 0
1, 0
0, 0
0, 0
1, 0
0, 0
1, 0
1, 0
0, 0
0, 0
0, 0
0, 0
0, 1
0, 1
0, 0
0, 0
0, 0
0, 0
0, 0
0, 1
0, 1
0, 1
0, 0
0, 0
1, 0
0, 0
0, 1
0, 0
0, 0
1, 0
0, 0
2, 0
0, 0
0, 0
0, 1
0, 0
0, 0
0, 0
0, 0
0, 0
1, 0
0, 1
0, 0
0, 0
0, 1
0, 1
0, 0
0, 0
0, 0
1, 0
0, 0
2, 0
0, 0
0, 0
0, 0
0, 0
0, 0
0, 1
0, 0
1, 0
1, 0
0, 1
0, 0
0, 0
0, 1
0, 1
0, 0
1, 0
0, 0
0, 0
0, 0
0, 1
0, 0
0, 0
1, 0
0, 0
0, 0
0, 0
1, 0
0, 0
0, 0
1, 0
0, 0
0, 0
0, 0
0, 0
1, 0
0, 0
0, 0
0, 0
0, 0
0, 0
0, 0
0, 0
0, 0
0, 0
0, 0
0, 0
0, 0
0, 0
0, 0
0, 0
0, 0
0, 0
1, 0
0, 0
0, 0
0, 0
0, 0
1, 0
0, 0
0, 1
1, 1
0, 1
0, 0
0, 0
0, 0
0, 0
0, 0
0, 0
0, 0
0, 0
0, 0
1, 0
0, 0
0, 0
0, 0
0, 0
0, 0
0, 0
0, 1
0, 0
0, 0
1, 0
0, 0
0, 0
0, 0
0, 0
0, 1
0, 0
0, 1
0, 1
0, 1
0, 0
0, 0
0, 0
0, 0
0, 0
0, 0
0, 0
0, 1
0, 0
0, 0
0, 0
0, 0
0, 0
0, 0
0, 0
0, 1
0, 0
0, 0
0, 0
0, 0
0, 0
1, 0
0, 0
0, 0
0, 0
0, 0
0, 0
0, 0
0, 0
0, 0
0, 0
0, 0
0, 0
0, 0
0, 0
0, 0
0, 0
0, 0
0, 0
0, 0
0, 0
0, 0
0, 0
0, 0
0, 0
1, 0
0, 0
0, 0
0, 0
0, 0
0, 0
0, 0
0, 0
0, 0
0, 0
0, 0
0, 0
1, 0
0, 0
0, 0
0, 0
0, 0
0, 1
0, 1
0, 0
0, 0
0, 0
0, 0
0, 0
0, 0
0, 0
0, 0
0, 0
0, 0
0, 0
0, 0
0, 0
0, 0
0, 0
0, 0
0, 0
0, 0
0, 1
0, 0
0, 0
0, 0
0, 0
0, 0
0, 0
0, 0
0, 0
0, 0
0, 0
0, 0
0, 0
0, 0
0, 0
0, 0
0, 0
0, 0
0, 0
0, 0
0, 0
0, 0
0, 0
0, 0
0, 0
0, 0
0, 0
0, 0
0, 0
0, 0
0, 0
0, 0
0, 0
0, 0
0, 0
0, 0
0, 0
0, 0
0, 0
0, 0
0, 0
0, 0
0, 0
0, 0
0, 0
0, 0
0, 0
0, 0
0, 0
0, 0
0, 0
0, 0
0, 0
0, 0
0, 0
0, 0
0, 0
1, 0
0, 0
0, 0
0, 0
0, 0
0, 0
0, 0
0, 0
0, 0
0, 0
0, 0
0, 0
0, 0
0, 0
0, 0
0, 0
0, 0
0, 0
0, 0
0, 0
0, 0
0, 0
0, 0
0, 0
0, 0
0, 0
0, 0
0, 0
0, 0
0, 0
0, 0
0, 0
1, 0
0, 0
0, 0
0, 0
0, 0
0, 0
0, 0
0, 0
0, 0
0, 0
0, 0
0, 0
0, 0
0, 0
0, 0
0, 0
0, 0
0, 0
0, 0
0, 0
0, 0
0, 0
0, 0
0, 0
0, 0
0, 0
0, 0
0, 0
0, 0
0, 0
0, 0
0, 0
0, 0
0, 0
0, 0
0, 0
0, 0
0, 0
0, 0
0, 0
0, 0
0, 0
0, 0
0, 0
0, 0
0, 0
0, 0
0, 0
0, 0
0, 0
0, 0
0, 0
0, 0
0, 0
0, 0
0, 0
0, 0
0, 0
0, 0
0, 0
0, 0
0, 0
0, 0
0, 0
0, 0
0, 0
0, 0
0, 0
0, 0
0, 0
0, 0
0, 0
0, 0
0, 0
0, 0
0, 0
0, 0
0, 0
0, 0
0, 0
0, 0
0, 0
0, 0
0, 0
0, 0
0, 0
0, 0
0, 0
0, 0
0, 0
0, 0
0, 0
0, 0
0, 0
0, 0
0, 0
0, 0
0, 0
0, 0
0, 0
0, 0
0, 0
0, 0
0, 0
0, 0
0, 0
0, 0
0, 0
0, 0
0, 0
0, 0
0, 0
0, 0
0, 0
0, 0
0, 0
0, 0
0, 0
0, 0
0, 0
0, 0
0, 0
0, 0
0, 0
0, 0
0, 0
0, 0
0, 0
0, 0
0, 0
0, 0
0, 0
0, 0
0, 0
0, 0
0, 0
0, 0
0, 0
0, 0
0, 0
0, 0
0, 0
0, 0
0, 0
0, 0
0, 0
0, 0
0, 0
0, 0
0, 0
0, 0
0, 0
0, 0
0, 0
0, 0
0, 0
0, 0
0, 0
0, 0
0, 0
0, 0
0, 0
0, 0
0, 0
0, 0
0, 0
0, 0
0, 0
0, 0
0, 0
0, 0
0, 0
0, 0
0, 0
0, 0
0, 0
0, 0
0, 0
0, 0
0, 0
0, 0
0, 0
0, 0
0, 0
0, 0
0, 0
0, 0
0, 0
0, 0
0, 0
0, 0
0, 0
0, 0
0, 0
0, 0
0, 0
0, 0
0, 0
0, 0
0, 0
0, 0
0, 0
0, 0
0, 0
0, 0
0, 0
0, 0
0, 0
0, 0
0, 0
0, 0
0, 0
0, 0
0, 0
0, 0
0, 0
0, 0
0, 0
0, 0
0, 0
0, 0
0, 0
0, 0
0, 0
0, 0
0, 0
0, 0
0, 0
0, 0
0, 0
0, 0
0, 0
0, 0
0, 0
0, 0
0, 0
0, 0
0, 0
0, 0
0, 0
0, 0
0, 0
0, 0
0, 0
0, 0
0, 0
0, 0
0, 0
0, 0
0, 0
0, 0
0, 0
0, 0
0, 0
0, 0
0, 0
0, 0
0, 0
0, 0
0, 0
0, 0
0, 0
0, 0
0, 0
0, 0
0, 0
0, 0
0, 0
0, 0
0, 0
0, 0
0, 0
0, 0
0, 0
0, 0
0, 0
0, 0
0, 0
0, 0
0, 0
0, 0
0, 0
0, 0
0, 0
0, 0
0, 0
0, 0
0, 0
0, 0
0, 0
0, 0
0, 0
0, 0
0, 0
0, 0
0, 0
0, 0
0, 0
0, 0
#ENDOFDATA     end of spectrum data