File: host_upload/12-01-2023/Dourbes (shot-by-shot)/upload_4/ps__0257_0689790785_000rfs_shot_3101.msa
#FORMAT      : EMSA/MAS spectral data file
#VERSION     : TC202v2.0 PIXL
#TITLE       : N/A
#DATE        :       Date in the format DD-MMM-YYYY, for example 07-JUL-2010
#TIME        :             The time of day at which the spectrum was recorded, in 24-hour format
#OWNER       : PIXL Flight Model       (PIXL will use this to indicate which instrument took the data.)
#NPOINTS     : 4096     Number of data points in the spectrum (This can be zero for configuration only files)
#NCOLUMNS    : 2     Number of data columns in the spectrum (This can be zero for configuration only files)
#XUNITS      : eV
#YUNITS      : COUNTS
#DATATYPE    : YY
#XPERCHAN    : 7.862, 7.881   eV per channel (separate by commas if more than one detector)
#OFFSET      : 18.5, -22.4         eV of first channel  (separate by commas if more than one detector
#SIGNALTYPE  : XRF
#YP_TEMP     : 3.101
#LIVETIME    : 8.99691, 8.99725   seconds (separate by commas if more than one detector)
#REALTIME    : 10, 10.0   seconds (separate by commas if more than one detector)
#SPECTRUM    : start of spectrum data
0, 0
0, 0
0, 0
0, 0
0, 0
0, 0
0, 0
0, 0
0, 0
0, 0
0, 0
0, 0
0, 0
0, 0
0, 0
0, 0
0, 0
0, 0
0, 0
0, 0
0, 0
0, 0
0, 0
0, 0
0, 0
0, 0
0, 0
0, 0
0, 0
0, 0
0, 0
0, 0
0, 0
0, 0
0, 0
0, 2
1, 2
0, 0
1, 1
2, 0
2, 0
0, 2
2, 2
0, 3
1, 1
3, 1
3, 1
3, 2
1, 2
7, 6
11, 8
21, 32
44, 28
44, 48
65, 53
45, 42
39, 34
26, 16
10, 13
3, 9
5, 5
1, 6
6, 8
6, 4
5, 5
6, 9
7, 10
9, 9
16, 6
43, 25
72, 65
140, 143
282, 250
392, 374
443, 428
463, 464
422, 357
277, 275
184, 181
101, 93
62, 47
24, 24
19, 14
7, 6
6, 6
4, 5
2, 5
4, 2
2, 1
0, 1
3, 2
0, 2
0, 3
4, 1
1, 6
1, 2
4, 4
0, 9
8, 3
4, 7
7, 2
4, 2
7, 1
6, 2
5, 3
8, 7
7, 14
13, 9
19, 31
33, 38
46, 48
71, 80
86, 67
89, 78
89, 92
71, 79
71, 66
44, 42
47, 37
49, 32
25, 32
24, 26
24, 29
19, 21
25, 15
12, 19
16, 15
15, 12
13, 12
13, 10
8, 8
8, 3
11, 3
10, 3
8, 4
6, 1
3, 2
2, 2
2, 2
2, 3
2, 2
2, 3
5, 4
2, 3
1, 3
3, 2
2, 3
3, 3
5, 4
5, 0
1, 6
5, 4
11, 10
3, 15
15, 10
18, 12
15, 23
25, 17
36, 20
23, 14
17, 18
19, 7
7, 7
5, 6
3, 3
5, 2
6, 3
7, 4
6, 2
2, 4
3, 6
7, 4
7, 5
4, 6
4, 8
5, 6
8, 7
1, 1
7, 3
2, 4
3, 3
3, 6
5, 5
7, 6
7, 14
6, 17
2, 31
3, 33
7, 43
10, 59
8, 67
16, 92
11, 63
12, 71
16, 48
19, 27
27, 39
21, 24
22, 23
11, 23
9, 17
14, 5
7, 10
8, 11
11, 8
5, 6
5, 4
9, 8
4, 10
7, 7
11, 4
7, 5
7, 8
8, 9
7, 13
7, 4
4, 9
9, 7
4, 12
7, 5
4, 11
8, 9
5, 11
15, 7
5, 11
6, 7
9, 10
5, 10
18, 7
10, 7
14, 6
10, 8
11, 8
14, 12
7, 5
11, 11
9, 11
10, 10
9, 11
9, 7
7, 9
11, 12
12, 9
15, 10
15, 22
19, 30
29, 43
47, 47
69, 84
72, 104
89, 104
97, 108
88, 72
89, 75
68, 54
45, 35
22, 38
25, 26
20, 36
24, 42
31, 56
29, 45
51, 64
91, 123
176, 243
324, 422
671, 784
1183, 1289
1745, 1988
2552, 2686
3247, 3508
3802, 3957
4031, 3809
3815, 3609
3304, 2861
2538, 2209
1733, 1453
1235, 857
661, 474
384, 220
187, 124
108, 62
45, 34
30, 22
21, 22
17, 11
12, 19
13, 18
20, 16
24, 23
35, 32
32, 32
44, 63
90, 111
141, 154
238, 243
303, 360
406, 440
482, 497
544, 513
545, 544
525, 486
460, 385
325, 262
240, 164
147, 107
102, 92
50, 35
25, 26
12, 6
7, 8
2, 5
5, 4
3, 3
4, 6
4, 5
5, 8
7, 5
4, 7
8, 4
5, 1
4, 2
5, 4
6, 8
3, 1
1, 4
1, 4
5, 8
5, 9
2, 15
6, 18
9, 14
4, 18
8, 17
4, 21
7, 18
5, 17
8, 16
3, 7
4, 7
5, 14
6, 2
8, 2
8, 4
10, 3
7, 6
8, 6
7, 0
4, 5
8, 4
5, 4
3, 4
4, 2
3, 4
2, 2
3, 1
3, 0
5, 1
2, 3
2, 3
1, 5
0, 0
4, 5
1, 4
3, 2
7, 1
3, 0
4, 2
4, 3
1, 4
0, 2
1, 3
2, 3
4, 1
3, 2
4, 0
1, 1
1, 1
2, 2
2, 4
1, 3
2, 7
3, 4
8, 2
3, 3
5, 3
4, 1
3, 2
2, 3
1, 4
5, 1
2, 3
4, 1
6, 2
7, 2
1, 2
4, 9
2, 2
2, 3
3, 11
2, 7
3, 11
1, 13
4, 16
5, 24
4, 22
3, 16
5, 9
0, 8
3, 4
5, 8
2, 5
2, 4
3, 4
1, 4
2, 3
3, 4
6, 4
2, 0
5, 3
3, 2
1, 1
4, 1
2, 3
2, 1
0, 2
4, 2
3, 1
2, 1
2, 3
5, 3
3, 2
3, 1
1, 3
0, 3
3, 2
2, 2
0, 2
1, 1
3, 3
3, 1
1, 2
2, 0
2, 3
1, 2
5, 0
2, 2
3, 2
4, 5
3, 2
2, 4
3, 2
1, 3
2, 1
3, 3
1, 2
7, 0
5, 2
4, 0
5, 5
8, 1
6, 1
13, 1
13, 3
11, 2
6, 5
8, 1
8, 0
10, 1
3, 0
2, 1
2, 3
2, 2
1, 1
3, 1
7, 1
2, 3
6, 1
1, 4
2, 0
5, 2
2, 0
2, 3
3, 3
1, 2
2, 1
1, 1
2, 3
0, 1
1, 1
1, 0
0, 0
2, 1
0, 0
2, 2
2, 1
1, 1
3, 1
2, 1
0, 1
1, 2
1, 3
1, 2
1, 2
1, 0
1, 3
0, 2
3, 1
1, 2
1, 1
0, 6
3, 1
2, 5
3, 5
2, 2
2, 3
3, 4
2, 5
4, 5
1, 5
2, 9
5, 4
2, 8
5, 4
2, 6
1, 6
1, 3
2, 5
1, 4
1, 1
2, 3
1, 2
2, 0
2, 0
1, 3
2, 2
6, 5
7, 2
3, 7
7, 2
8, 6
5, 9
6, 5
6, 3
6, 10
4, 3
4, 4
4, 6
1, 1
5, 1
3, 2
3, 2
2, 3
0, 0
0, 0
0, 1
2, 1
2, 1
1, 0
0, 2
2, 1
3, 0
1, 1
2, 2
0, 1
2, 3
4, 6
1, 7
2, 1
4, 4
4, 1
2, 2
3, 0
2, 7
2, 2
0, 4
2, 1
2, 2
1, 3
1, 0
0, 2
1, 2
2, 1
1, 0
0, 0
0, 1
1, 0
2, 1
2, 2
3, 2
1, 1
4, 2
2, 1
1, 1
1, 1
1, 1
1, 0
2, 2
1, 0
0, 0
3, 2
1, 2
1, 0
2, 1
1, 0
0, 0
1, 1
1, 0
3, 0
1, 1
0, 0
0, 1
3, 1
1, 0
2, 0
1, 0
2, 1
1, 2
0, 2
2, 0
1, 0
3, 1
0, 1
0, 0
3, 1
0, 1
0, 1
0, 0
1, 1
1, 0
0, 0
0, 0
0, 1
0, 1
1, 1
1, 1
0, 1
0, 1
1, 1
1, 1
0, 0
0, 0
3, 1
1, 0
0, 2
0, 1
1, 0
0, 0
1, 1
0, 0
1, 0
1, 0
1, 1
0, 1
1, 0
0, 0
0, 2
0, 0
0, 2
0, 0
0, 0
0, 2
1, 1
0, 0
0, 0
1, 0
1, 1
0, 0
0, 2
0, 0
0, 0
0, 0
1, 1
0, 0
0, 0
0, 0
0, 1
0, 1
0, 0
0, 0
0, 0
0, 0
1, 0
0, 0
0, 0
0, 1
0, 0
0, 0
1, 0
2, 0
1, 0
0, 0
3, 0
1, 0
0, 0
0, 0
0, 1
0, 0
0, 1
0, 0
2, 2
0, 0
0, 0
1, 0
0, 0
0, 0
0, 0
0, 0
0, 0
1, 2
0, 1
0, 0
0, 0
1, 0
1, 0
0, 0
0, 0
0, 0
1, 1
0, 0
0, 0
0, 0
0, 0
0, 0
0, 0
1, 0
0, 1
0, 0
1, 0
0, 1
0, 1
0, 0
2, 0
1, 0
0, 0
0, 1
0, 0
0, 1
0, 0
0, 0
0, 0
0, 0
0, 0
0, 2
0, 0
0, 0
0, 0
1, 0
0, 1
0, 0
0, 1
0, 1
0, 2
0, 0
1, 0
1, 0
0, 0
0, 0
0, 0
0, 1
0, 0
0, 0
0, 0
1, 0
0, 0
0, 0
1, 0
0, 0
1, 0
0, 0
0, 0
1, 0
0, 0
0, 0
0, 0
0, 0
0, 0
0, 0
0, 0
0, 0
0, 1
0, 0
0, 0
0, 1
0, 0
1, 1
0, 0
1, 0
1, 0
0, 0
0, 0
1, 0
0, 0
1, 0
0, 0
1, 0
0, 0
0, 0
1, 0
0, 0
0, 0
1, 0
0, 0
0, 0
0, 0
0, 0
0, 0
0, 1
0, 1
0, 0
0, 0
0, 0
0, 0
0, 0
0, 0
0, 0
0, 0
0, 0
0, 0
0, 0
1, 0
0, 0
0, 0
0, 0
0, 0
0, 0
0, 0
0, 0
0, 0
1, 0
2, 1
0, 0
0, 0
0, 0
0, 0
0, 0
0, 0
0, 0
0, 0
0, 0
0, 0
0, 1
0, 0
0, 0
0, 0
0, 0
0, 0
0, 0
1, 0
0, 0
0, 0
0, 0
0, 0
0, 0
0, 0
0, 0
1, 0
0, 0
0, 1
1, 0
0, 0
0, 0
0, 0
0, 0
0, 0
0, 0
0, 0
0, 0
0, 0
0, 0
0, 0
0, 0
0, 0
0, 0
0, 0
0, 0
0, 0
0, 0
1, 0
0, 0
0, 0
0, 0
0, 0
0, 0
0, 0
0, 0
0, 0
0, 0
0, 0
0, 0
0, 0
0, 0
0, 0
0, 0
0, 0
0, 0
0, 0
0, 0
0, 0
0, 0
0, 0
0, 0
1, 0
0, 0
0, 0
0, 0
0, 0
0, 0
0, 0
0, 0
0, 0
0, 0
0, 0
0, 0
1, 0
0, 0
0, 0
1, 0
0, 0
1, 0
1, 0
0, 0
0, 0
0, 0
0, 0
0, 0
0, 0
0, 0
0, 0
0, 0
0, 0
0, 0
0, 0
0, 0
0, 0
0, 0
0, 0
0, 0
0, 0
0, 0
0, 0
0, 0
0, 0
0, 0
0, 0
0, 0
0, 0
0, 0
0, 0
0, 0
0, 0
0, 0
0, 0
0, 0
0, 0
0, 1
0, 0
0, 0
0, 0
1, 0
0, 1
0, 0
0, 0
0, 0
0, 0
0, 0
0, 0
0, 0
0, 0
0, 0
0, 0
1, 0
0, 0
0, 0
0, 0
0, 0
0, 0
0, 0
0, 0
0, 0
0, 0
0, 0
0, 0
0, 0
0, 0
0, 0
0, 0
0, 0
0, 0
0, 0
0, 0
0, 0
0, 0
0, 0
0, 0
0, 0
0, 0
0, 0
0, 0
0, 0
0, 0
0, 0
0, 0
0, 0
0, 0
0, 0
0, 0
0, 0
0, 0
0, 0
0, 0
0, 0
0, 0
0, 0
0, 0
0, 0
0, 0
0, 0
0, 0
0, 0
0, 0
0, 0
0, 0
0, 0
0, 0
0, 0
0, 0
0, 0
0, 0
0, 0
0, 0
0, 0
0, 0
0, 0
0, 0
0, 0
0, 0
0, 0
0, 0
0, 0
0, 0
0, 0
0, 0
0, 0
0, 0
0, 0
0, 0
0, 0
0, 0
0, 0
0, 0
0, 0
0, 0
0, 0
0, 0
0, 0
0, 0
0, 0
0, 0
0, 0
0, 0
0, 0
0, 0
0, 0
0, 0
0, 0
0, 0
0, 0
0, 0
0, 0
0, 0
0, 0
0, 0
0, 0
0, 0
0, 0
0, 0
0, 0
0, 0
0, 0
0, 0
0, 0
0, 0
0, 0
0, 0
0, 0
0, 0
0, 0
0, 0
0, 0
0, 0
0, 0
0, 0
0, 0
0, 0
0, 1
0, 0
0, 0
0, 0
0, 0
0, 0
0, 0
0, 0
0, 0
0, 0
0, 0
0, 0
0, 0
0, 0
0, 0
0, 0
0, 0
0, 0
0, 0
0, 0
0, 0
0, 0
0, 0
0, 0
0, 0
0, 0
0, 0
0, 0
0, 0
0, 0
0, 0
0, 0
0, 0
0, 0
0, 0
0, 0
0, 0
0, 0
0, 0
0, 0
0, 0
0, 0
0, 0
0, 0
0, 0
0, 0
0, 0
0, 0
0, 0
0, 0
0, 0
0, 0
0, 0
0, 0
0, 0
0, 0
0, 0
0, 0
0, 0
0, 0
0, 0
0, 0
0, 0
0, 0
0, 0
0, 0
0, 0
0, 0
0, 0
0, 0
0, 0
0, 0
0, 0
0, 0
0, 0
0, 0
0, 0
0, 0
0, 0
0, 0
0, 0
0, 0
0, 0
0, 0
0, 0
0, 0
0, 0
0, 0
0, 0
0, 0
0, 0
0, 0
0, 0
0, 0
0, 0
0, 0
0, 0
0, 0
0, 0
0, 0
0, 0
0, 0
0, 0
0, 0
0, 0
0, 0
0, 0
0, 0
0, 0
0, 0
0, 0
0, 0
0, 0
0, 0
0, 0
0, 0
0, 0
0, 0
0, 0
0, 0
0, 0
0, 0
0, 0
0, 0
0, 0
0, 0
0, 0
0, 0
0, 0
0, 0
0, 0
0, 0
0, 0
0, 0
0, 0
0, 0
0, 0
0, 0
0, 0
0, 0
0, 0
0, 0
0, 0
0, 0
0, 0
0, 0
0, 0
0, 0
0, 0
0, 0
0, 0
0, 0
0, 0
0, 0
0, 0
0, 0
0, 0
0, 0
0, 0
0, 0
0, 0
0, 0
0, 0
0, 0
0, 0
0, 0
0, 0
0, 0
0, 0
0, 0
0, 0
0, 0
0, 0
0, 0
0, 0
0, 0
0, 0
0, 0
0, 0
0, 0
0, 0
0, 0
0, 0
0, 0
0, 0
0, 0
0, 0
0, 0
0, 0
0, 0
0, 0
0, 0
0, 0
0, 0
0, 0
0, 0
0, 0
0, 0
0, 0
0, 0
0, 0
0, 0
0, 0
0, 0
0, 0
0, 0
0, 0
0, 0
0, 0
0, 0
0, 0
0, 0
0, 0
0, 0
0, 0
0, 0
0, 0
0, 0
0, 0
0, 0
0, 0
0, 0
0, 0
0, 0
0, 0
0, 0
0, 0
0, 0
0, 0
0, 0
0, 0
0, 0
0, 0
0, 0
0, 0
0, 0
0, 0
0, 0
0, 0
0, 0
0, 0
0, 0
0, 0
0, 0
0, 0
0, 0
0, 0
0, 0
0, 0
0, 0
0, 0
0, 0
0, 0
0, 0
0, 0
0, 0
0, 0
0, 0
0, 0
0, 0
0, 0
0, 0
0, 0
0, 0
0, 0
0, 0
0, 0
0, 0
0, 0
0, 0
0, 0
#ENDOFDATA     end of spectrum data