File: host_upload/12-01-2023/Dourbes (shot-by-shot)/upload_4/ps__0257_0689790785_000rfs_shot_3295.msa
#FORMAT      : EMSA/MAS spectral data file
#VERSION     : TC202v2.0 PIXL
#TITLE       : N/A
#DATE        :       Date in the format DD-MMM-YYYY, for example 07-JUL-2010
#TIME        :             The time of day at which the spectrum was recorded, in 24-hour format
#OWNER       : PIXL Flight Model       (PIXL will use this to indicate which instrument took the data.)
#NPOINTS     : 4096     Number of data points in the spectrum (This can be zero for configuration only files)
#NCOLUMNS    : 2     Number of data columns in the spectrum (This can be zero for configuration only files)
#XUNITS      : eV
#YUNITS      : COUNTS
#DATATYPE    : YY
#XPERCHAN    : 7.862, 7.881   eV per channel (separate by commas if more than one detector)
#OFFSET      : 18.5, -22.4         eV of first channel  (separate by commas if more than one detector
#SIGNALTYPE  : XRF
#YP_TEMP     : 3.005
#LIVETIME    : 8.99538, 8.99444   seconds (separate by commas if more than one detector)
#REALTIME    : 10, 10.0   seconds (separate by commas if more than one detector)
#SPECTRUM    : start of spectrum data
0, 0
0, 0
0, 0
0, 0
0, 0
0, 0
0, 0
0, 0
0, 0
0, 0
0, 0
0, 0
0, 0
0, 0
0, 0
0, 0
0, 0
0, 0
0, 0
0, 0
0, 0
0, 0
0, 0
0, 0
0, 0
0, 0
0, 0
0, 0
0, 1
0, 0
0, 0
0, 0
0, 0
0, 1
0, 0
0, 0
0, 0
3, 0
0, 1
0, 0
0, 0
0, 1
0, 0
1, 0
2, 0
1, 1
3, 1
1, 0
1, 1
9, 6
13, 17
31, 29
35, 40
66, 54
58, 49
45, 55
34, 39
28, 10
10, 19
8, 5
4, 5
6, 4
6, 6
4, 8
8, 9
8, 7
9, 6
6, 3
17, 11
30, 29
90, 76
150, 144
262, 278
416, 366
512, 489
488, 476
417, 407
305, 259
194, 179
104, 93
48, 61
24, 18
17, 13
10, 5
3, 7
6, 6
8, 8
8, 8
6, 3
4, 7
1, 5
2, 7
4, 2
4, 6
5, 3
9, 3
5, 11
13, 14
19, 21
6, 10
18, 13
5, 9
9, 5
7, 4
4, 3
3, 1
5, 4
5, 6
6, 9
9, 13
13, 6
18, 14
25, 20
27, 32
27, 27
34, 25
31, 26
26, 18
18, 22
21, 11
19, 16
18, 14
19, 19
18, 14
15, 9
8, 14
10, 7
13, 6
4, 9
6, 9
3, 2
4, 4
7, 4
8, 2
6, 5
6, 2
12, 1
13, 5
12, 2
6, 3
11, 2
5, 4
9, 5
7, 6
1, 3
4, 1
2, 1
6, 2
2, 2
6, 1
0, 6
5, 8
8, 9
11, 14
13, 30
30, 29
40, 35
42, 34
29, 42
35, 41
19, 31
14, 23
12, 23
9, 35
10, 64
10, 72
21, 90
18, 103
31, 102
20, 85
33, 73
19, 52
22, 34
8, 19
9, 13
4, 12
5, 4
2, 4
5, 2
7, 3
5, 1
7, 5
3, 6
7, 5
3, 6
7, 5
2, 5
5, 4
4, 12
5, 6
8, 11
15, 9
9, 11
11, 13
19, 12
15, 16
19, 21
21, 18
30, 27
27, 15
41, 12
42, 9
48, 6
64, 6
68, 9
75, 4
71, 4
71, 6
54, 13
40, 11
27, 15
21, 8
6, 11
11, 12
9, 9
7, 5
3, 4
5, 4
5, 4
7, 3
3, 3
8, 5
6, 8
12, 5
4, 7
9, 7
15, 15
13, 7
10, 7
12, 16
9, 13
14, 10
16, 17
16, 9
16, 15
11, 9
21, 5
17, 6
15, 7
10, 6
12, 4
5, 4
15, 6
12, 18
19, 16
35, 22
35, 39
45, 55
75, 73
79, 100
97, 111
111, 111
87, 86
68, 59
59, 54
44, 41
31, 30
25, 25
20, 18
26, 22
18, 38
22, 30
47, 41
78, 120
165, 234
388, 448
647, 795
1146, 1328
1766, 2077
2517, 2771
3221, 3510
3648, 3745
3941, 3973
3727, 3638
3034, 2853
2382, 2200
1663, 1428
1110, 860
591, 446
335, 243
162, 137
88, 53
32, 28
33, 22
18, 20
18, 11
10, 12
13, 9
18, 12
29, 18
30, 17
44, 51
52, 69
96, 121
153, 166
189, 269
315, 327
396, 421
488, 519
526, 589
583, 564
456, 465
437, 394
318, 303
189, 171
119, 111
75, 62
43, 29
16, 21
17, 7
11, 7
5, 9
5, 5
2, 5
4, 11
8, 8
6, 14
9, 11
15, 8
2, 11
6, 3
4, 5
4, 3
2, 4
4, 6
1, 11
0, 5
4, 7
3, 13
1, 13
4, 18
2, 23
2, 29
5, 40
2, 36
13, 30
5, 20
6, 19
8, 23
11, 10
7, 13
10, 13
12, 12
10, 5
9, 2
2, 9
10, 4
8, 2
5, 2
4, 4
2, 8
3, 4
4, 3
6, 6
4, 7
1, 6
2, 4
4, 3
0, 6
0, 3
2, 7
2, 6
3, 4
3, 3
1, 6
1, 3
6, 2
3, 5
5, 8
3, 6
2, 1
6, 4
3, 8
2, 6
3, 11
2, 8
4, 4
2, 9
1, 13
4, 3
2, 7
1, 9
3, 1
4, 4
0, 3
1, 4
3, 4
0, 4
0, 2
2, 3
2, 5
1, 0
2, 3
2, 4
0, 2
1, 2
1, 3
2, 5
3, 3
6, 3
2, 3
5, 2
6, 2
8, 5
7, 2
1, 3
7, 1
5, 6
4, 1
4, 2
4, 2
4, 3
7, 1
3, 3
1, 2
3, 0
4, 6
1, 2
2, 1
4, 5
2, 3
4, 2
5, 2
3, 4
3, 3
2, 1
0, 3
2, 1
4, 2
1, 3
4, 2
4, 1
6, 1
4, 2
6, 1
13, 1
10, 1
10, 2
10, 0
8, 0
11, 1
9, 1
9, 1
11, 2
5, 3
1, 3
3, 2
2, 3
4, 1
4, 2
2, 2
2, 1
5, 1
2, 3
3, 2
2, 3
2, 6
1, 4
1, 5
0, 5
1, 9
3, 3
1, 5
2, 13
1, 4
2, 5
3, 3
3, 5
4, 4
2, 0
2, 2
2, 3
3, 1
5, 3
5, 1
0, 3
0, 3
3, 10
3, 2
3, 1
4, 2
1, 6
1, 2
1, 0
2, 3
0, 0
4, 2
2, 3
1, 4
1, 3
0, 0
3, 5
3, 4
2, 1
1, 1
4, 0
0, 2
0, 3
1, 3
0, 3
1, 0
2, 1
1, 3
2, 1
3, 2
4, 5
7, 3
5, 3
1, 4
3, 5
1, 5
1, 3
3, 4
5, 1
0, 2
2, 2
0, 1
1, 3
1, 1
1, 1
0, 0
1, 0
1, 0
2, 4
2, 4
0, 1
0, 1
0, 2
0, 1
2, 3
1, 3
3, 2
0, 1
5, 3
0, 1
2, 2
1, 2
2, 9
5, 3
3, 5
7, 12
4, 5
8, 8
7, 12
9, 11
6, 4
2, 5
5, 1
0, 2
4, 1
1, 2
1, 0
1, 3
1, 2
1, 1
2, 1
0, 0
1, 1
0, 0
1, 0
2, 1
0, 4
0, 0
1, 2
0, 2
4, 1
1, 6
2, 2
1, 1
5, 1
1, 3
2, 4
2, 1
3, 2
0, 2
2, 1
2, 1
3, 2
3, 0
1, 1
1, 2
0, 4
0, 1
1, 0
2, 0
0, 1
0, 3
2, 0
2, 1
2, 1
0, 3
2, 1
1, 0
2, 0
0, 3
0, 2
1, 1
3, 2
2, 3
1, 1
0, 1
4, 2
2, 3
3, 0
4, 2
3, 0
4, 2
0, 1
0, 1
2, 1
6, 1
1, 0
3, 1
1, 3
1, 0
2, 1
2, 0
0, 1
1, 1
1, 1
0, 0
1, 3
1, 0
2, 0
0, 1
1, 1
0, 0
2, 1
2, 0
1, 2
0, 0
2, 0
3, 1
1, 1
0, 0
1, 0
0, 0
0, 0
0, 1
0, 1
0, 0
0, 0
0, 1
0, 0
1, 0
1, 0
0, 0
1, 0
1, 0
0, 0
1, 0
0, 0
0, 0
0, 0
0, 2
0, 0
0, 0
0, 1
0, 0
0, 0
1, 1
0, 0
1, 0
0, 1
1, 0
0, 0
0, 0
0, 0
0, 0
0, 0
0, 1
0, 0
0, 0
0, 0
0, 1
1, 1
0, 0
0, 0
0, 1
0, 0
3, 2
1, 0
0, 0
1, 1
0, 0
0, 0
0, 0
0, 0
0, 1
0, 1
2, 0
0, 0
0, 0
0, 0
0, 0
0, 0
0, 0
0, 1
0, 2
0, 0
1, 0
0, 0
0, 1
1, 0
0, 1
1, 1
1, 0
1, 0
0, 1
0, 0
0, 0
0, 0
0, 0
0, 0
3, 0
0, 2
0, 0
0, 1
0, 1
0, 0
0, 1
0, 0
0, 0
1, 1
0, 0
0, 1
2, 0
0, 0
0, 0
0, 0
0, 0
0, 0
0, 0
0, 0
0, 0
0, 1
0, 0
0, 1
1, 0
0, 0
0, 0
0, 0
0, 0
0, 0
0, 0
0, 1
0, 0
1, 0
0, 0
0, 1
0, 1
0, 0
0, 0
2, 0
1, 0
0, 1
0, 0
1, 0
0, 1
0, 0
0, 0
0, 0
0, 0
0, 0
0, 0
0, 0
0, 0
0, 0
0, 0
0, 0
0, 0
0, 0
0, 0
1, 0
0, 0
0, 0
0, 0
0, 0
1, 0
0, 1
0, 0
0, 0
0, 1
0, 0
0, 1
0, 1
0, 0
0, 0
0, 0
0, 1
0, 1
1, 1
0, 0
0, 0
0, 0
1, 0
0, 0
2, 0
0, 0
0, 0
0, 0
0, 1
0, 1
0, 1
1, 0
0, 0
0, 1
0, 0
0, 0
0, 0
1, 0
0, 0
0, 1
1, 0
0, 0
0, 0
1, 0
0, 0
0, 0
0, 0
0, 1
0, 0
0, 0
0, 0
0, 1
0, 0
0, 0
0, 0
0, 0
0, 1
0, 0
0, 0
0, 0
0, 0
0, 1
0, 1
0, 1
0, 0
0, 0
0, 0
0, 1
0, 0
0, 1
0, 1
0, 0
0, 0
0, 0
0, 0
0, 0
0, 0
0, 0
0, 0
0, 0
1, 0
0, 0
0, 0
0, 1
0, 0
0, 0
0, 0
0, 0
0, 0
1, 0
0, 0
0, 0
0, 0
0, 0
0, 0
0, 0
0, 0
0, 0
0, 0
0, 0
0, 0
0, 0
0, 0
0, 0
0, 0
0, 0
0, 0
0, 0
0, 0
0, 0
0, 0
0, 0
0, 0
1, 0
0, 0
0, 0
0, 0
0, 0
0, 0
0, 0
0, 0
0, 0
0, 0
0, 0
0, 0
0, 0
0, 0
0, 0
0, 0
0, 0
0, 0
0, 1
0, 0
0, 0
1, 0
0, 0
0, 0
0, 1
0, 0
0, 0
0, 0
0, 0
0, 0
0, 0
0, 0
0, 0
0, 0
0, 0
0, 0
0, 0
1, 0
0, 0
0, 0
0, 0
0, 0
0, 0
1, 0
0, 0
0, 0
0, 0
0, 0
0, 0
0, 0
0, 0
0, 0
0, 0
1, 0
0, 0
1, 0
0, 0
0, 0
0, 0
0, 0
0, 0
0, 0
0, 0
1, 0
0, 0
0, 0
0, 0
0, 0
0, 0
0, 0
0, 0
0, 1
0, 0
0, 0
0, 0
0, 0
0, 0
0, 0
0, 0
0, 0
0, 0
0, 0
0, 0
0, 0
0, 0
0, 0
0, 0
0, 0
0, 0
0, 0
0, 0
0, 0
0, 0
0, 0
0, 0
0, 0
0, 0
0, 0
0, 0
0, 0
1, 0
0, 0
0, 0
0, 0
0, 0
0, 0
0, 0
0, 0
0, 0
0, 0
0, 0
0, 0
0, 0
0, 0
0, 1
0, 0
0, 0
0, 0
0, 0
0, 0
0, 0
0, 0
0, 0
0, 0
0, 0
0, 0
0, 0
0, 0
0, 0
0, 0
0, 0
0, 0
0, 0
0, 0
0, 0
0, 0
0, 0
0, 0
0, 0
0, 0
0, 0
0, 0
0, 0
0, 0
0, 0
0, 0
0, 0
0, 0
0, 0
0, 0
0, 0
0, 0
0, 0
0, 0
0, 0
0, 0
0, 0
0, 0
0, 0
0, 0
0, 0
0, 0
0, 0
0, 0
0, 0
0, 0
0, 0
0, 0
0, 0
0, 0
0, 0
0, 0
0, 0
0, 0
0, 0
0, 0
0, 0
0, 0
0, 0
0, 0
0, 0
0, 0
0, 0
0, 0
0, 0
0, 0
0, 0
0, 0
0, 0
0, 0
0, 0
0, 0
0, 0
0, 0
0, 0
0, 0
0, 0
0, 0
0, 0
0, 0
0, 0
0, 0
0, 0
0, 0
0, 0
0, 0
0, 0
0, 0
0, 0
0, 0
0, 0
0, 0
0, 0
0, 0
0, 0
0, 0
0, 0
0, 0
0, 0
0, 0
0, 0
0, 0
0, 0
0, 0
0, 0
0, 0
0, 0
0, 0
0, 0
0, 0
0, 0
0, 0
0, 0
0, 0
0, 0
0, 0
0, 0
0, 0
0, 0
0, 0
0, 0
0, 0
0, 0
0, 0
0, 0
0, 0
0, 0
0, 0
0, 0
0, 0
0, 0
0, 0
0, 0
0, 0
0, 0
0, 0
0, 0
0, 0
0, 0
0, 0
0, 0
0, 0
0, 0
0, 0
0, 0
0, 0
0, 0
0, 0
0, 0
0, 0
0, 0
0, 0
0, 0
0, 0
0, 0
0, 0
0, 0
0, 0
0, 0
0, 0
0, 0
0, 0
0, 0
0, 0
0, 0
0, 0
0, 0
0, 0
0, 0
0, 0
0, 0
0, 0
0, 0
0, 0
0, 0
0, 0
0, 0
0, 0
0, 0
0, 0
0, 0
0, 0
0, 0
0, 0
0, 0
0, 0
0, 0
0, 0
0, 0
0, 0
0, 0
0, 0
0, 0
0, 0
0, 0
0, 0
0, 0
0, 0
0, 0
0, 0
0, 0
0, 0
0, 0
0, 0
0, 0
0, 0
0, 0
0, 0
0, 0
0, 0
0, 0
0, 0
0, 0
0, 0
0, 0
0, 0
0, 0
0, 0
0, 0
0, 0
0, 0
0, 0
0, 0
0, 0
0, 0
0, 0
0, 0
0, 0
0, 0
0, 0
0, 0
0, 0
0, 0
0, 0
0, 0
0, 0
0, 0
0, 0
0, 0
0, 0
0, 0
0, 0
0, 0
0, 0
0, 0
0, 0
0, 0
0, 0
0, 0
0, 0
0, 0
0, 0
0, 0
0, 0
0, 0
0, 0
0, 0
0, 0
0, 0
0, 0
0, 0
0, 0
0, 0
0, 0
0, 0
0, 0
0, 0
0, 0
0, 0
0, 0
0, 0
0, 0
0, 0
0, 0
0, 0
0, 0
0, 0
0, 0
0, 0
0, 0
0, 0
0, 0
0, 0
0, 0
0, 0
0, 0
0, 0
0, 0
0, 0
0, 0
0, 0
0, 0
0, 0
0, 0
0, 0
0, 0
0, 0
0, 0
0, 0
0, 0
0, 0
0, 0
0, 0
0, 0
0, 0
0, 0
0, 0
0, 0
0, 0
0, 0
0, 0
0, 0
0, 0
0, 0
0, 0
0, 0
0, 0
0, 0
0, 0
0, 0
0, 0
0, 0
0, 0
0, 0
0, 0
0, 0
0, 0
0, 0
0, 0
0, 0
0, 0
0, 0
0, 0
0, 0
0, 0
0, 0
0, 0
0, 0
0, 0
0, 0
0, 0
0, 0
0, 0
0, 0
0, 0
0, 0
0, 0
0, 0
0, 0
0, 0
0, 0
0, 0
0, 0
0, 0
0, 0
0, 0
0, 0
0, 0
0, 0
0, 0
#ENDOFDATA     end of spectrum data