File: host_upload/12-01-2023/Dourbes (shot-by-shot)/upload_4/ps__0257_0689790785_000rfs_shot_3012.msa
#FORMAT      : EMSA/MAS spectral data file
#VERSION     : TC202v2.0 PIXL
#TITLE       : N/A
#DATE        :       Date in the format DD-MMM-YYYY, for example 07-JUL-2010
#TIME        :             The time of day at which the spectrum was recorded, in 24-hour format
#OWNER       : PIXL Flight Model       (PIXL will use this to indicate which instrument took the data.)
#NPOINTS     : 4096     Number of data points in the spectrum (This can be zero for configuration only files)
#NCOLUMNS    : 2     Number of data columns in the spectrum (This can be zero for configuration only files)
#XUNITS      : eV
#YUNITS      : COUNTS
#DATATYPE    : YY
#XPERCHAN    : 7.862, 7.881   eV per channel (separate by commas if more than one detector)
#OFFSET      : 18.5, -22.4         eV of first channel  (separate by commas if more than one detector
#SIGNALTYPE  : XRF
#YP_TEMP     : 3.133
#LIVETIME    : 9.01974, 9.02411   seconds (separate by commas if more than one detector)
#REALTIME    : 10, 10.0   seconds (separate by commas if more than one detector)
#SPECTRUM    : start of spectrum data
0, 0
0, 0
0, 0
0, 0
0, 0
0, 0
0, 0
0, 0
0, 0
0, 0
0, 0
0, 0
0, 0
0, 0
0, 0
0, 0
0, 0
0, 0
0, 0
0, 0
0, 0
0, 0
0, 0
0, 0
0, 0
0, 0
0, 0
0, 0
0, 0
0, 0
0, 0
0, 1
0, 0
1, 1
0, 0
0, 0
0, 0
1, 2
1, 0
3, 2
0, 1
1, 4
2, 3
2, 0
3, 1
1, 1
0, 1
3, 1
1, 4
1, 3
9, 14
25, 28
38, 35
49, 47
47, 46
60, 36
39, 37
32, 29
12, 13
9, 4
2, 5
7, 0
5, 1
0, 4
1, 1
8, 7
6, 4
6, 12
11, 8
40, 44
84, 58
154, 155
272, 246
406, 392
447, 498
434, 514
440, 428
310, 303
200, 171
107, 83
53, 52
30, 25
14, 10
7, 7
2, 6
1, 5
1, 3
2, 2
6, 3
4, 0
3, 2
23, 0
27, 3
36, 2
64, 13
86, 18
95, 33
91, 39
81, 35
64, 51
52, 39
38, 27
12, 20
12, 8
4, 8
3, 6
5, 8
9, 6
7, 18
11, 16
24, 22
32, 35
38, 42
40, 70
49, 62
45, 63
54, 58
42, 53
40, 39
27, 35
27, 23
24, 26
25, 30
10, 21
13, 13
13, 21
19, 12
11, 10
13, 8
11, 7
8, 5
2, 5
4, 2
1, 3
3, 2
6, 1
1, 4
0, 4
2, 3
2, 3
2, 2
5, 3
3, 2
7, 1
1, 2
7, 1
1, 3
2, 4
3, 4
4, 8
4, 3
9, 7
9, 12
16, 28
25, 38
30, 60
41, 83
41, 89
30, 78
31, 93
30, 60
15, 38
5, 30
7, 23
2, 6
5, 9
5, 6
3, 7
17, 6
4, 7
12, 13
9, 14
11, 12
2, 6
6, 10
5, 4
5, 6
3, 4
4, 3
2, 3
4, 4
2, 2
2, 4
2, 1
5, 4
3, 5
5, 4
8, 5
6, 11
5, 9
11, 9
14, 17
12, 16
13, 11
19, 11
15, 18
15, 21
30, 22
23, 23
10, 21
19, 15
12, 12
10, 13
8, 12
12, 3
11, 5
11, 3
7, 9
9, 4
6, 8
6, 8
11, 8
9, 8
9, 6
7, 9
9, 8
7, 8
11, 8
7, 4
8, 10
9, 7
4, 12
6, 10
9, 18
10, 16
13, 14
12, 19
9, 35
14, 50
7, 64
18, 72
7, 91
6, 88
13, 100
9, 83
8, 92
5, 57
10, 36
11, 44
14, 20
10, 17
17, 16
11, 9
13, 18
16, 16
33, 31
42, 38
49, 63
71, 59
66, 89
92, 107
98, 106
72, 74
68, 60
61, 41
45, 34
33, 28
22, 22
25, 16
17, 15
23, 29
26, 31
44, 49
70, 116
179, 188
323, 369
595, 693
954, 1193
1527, 1755
2260, 2510
2910, 3147
3376, 3493
3597, 3622
3472, 3237
3038, 2643
2407, 2009
1731, 1354
1004, 892
619, 457
352, 234
183, 112
84, 67
50, 34
33, 20
29, 14
27, 13
24, 26
29, 15
37, 28
37, 26
33, 30
42, 44
64, 67
88, 106
138, 145
185, 241
253, 324
375, 417
467, 459
481, 537
534, 565
512, 437
394, 356
309, 250
228, 181
160, 97
111, 61
53, 23
24, 19
12, 14
6, 5
3, 4
9, 11
4, 8
6, 9
6, 9
8, 13
4, 16
6, 6
5, 8
2, 10
4, 4
5, 7
2, 6
5, 1
5, 3
3, 1
2, 6
0, 6
2, 4
1, 3
6, 3
3, 1
7, 3
3, 2
4, 5
1, 2
4, 3
7, 5
4, 5
2, 3
6, 2
1, 5
3, 2
5, 7
5, 4
4, 8
5, 5
3, 4
7, 6
5, 2
6, 7
5, 2
8, 5
3, 6
2, 4
2, 2
3, 2
2, 3
6, 5
3, 4
6, 0
2, 6
5, 4
5, 6
3, 0
5, 8
3, 2
7, 2
5, 3
2, 6
2, 6
2, 14
2, 16
6, 13
2, 14
4, 17
5, 12
2, 11
8, 10
5, 9
6, 7
3, 5
8, 7
8, 4
4, 2
5, 3
6, 8
8, 3
5, 2
7, 3
4, 4
4, 1
2, 6
1, 7
2, 2
1, 7
2, 6
1, 2
5, 0
1, 3
3, 3
3, 5
1, 6
1, 7
3, 2
3, 4
3, 3
2, 2
3, 4
2, 4
5, 5
4, 5
3, 4
1, 2
5, 2
0, 0
4, 3
1, 4
4, 4
1, 0
3, 0
2, 0
1, 1
0, 3
1, 1
7, 7
2, 2
1, 2
1, 2
1, 3
1, 1
0, 1
4, 5
2, 3
2, 1
0, 1
2, 3
1, 0
6, 2
0, 1
2, 1
3, 3
3, 2
3, 6
2, 2
1, 4
2, 2
3, 2
1, 2
2, 4
3, 4
1, 5
4, 1
3, 4
1, 1
5, 2
1, 4
4, 1
1, 3
4, 10
1, 7
3, 12
3, 13
1, 7
4, 4
3, 7
1, 9
1, 4
4, 4
2, 2
3, 1
3, 3
1, 2
5, 2
3, 4
1, 2
4, 1
2, 3
5, 1
3, 1
4, 0
8, 1
1, 0
1, 0
1, 4
2, 1
1, 0
2, 1
4, 0
1, 1
2, 1
2, 2
1, 1
3, 4
1, 0
4, 0
1, 0
0, 0
2, 1
1, 0
2, 1
4, 3
3, 3
2, 3
2, 3
4, 3
2, 5
5, 0
0, 1
2, 0
2, 1
0, 0
3, 0
0, 0
2, 2
1, 4
0, 1
2, 2
1, 1
4, 2
2, 1
1, 3
1, 3
1, 4
3, 4
3, 4
0, 0
2, 2
1, 1
3, 1
2, 2
2, 1
0, 1
2, 4
1, 2
3, 6
2, 3
3, 2
5, 6
6, 6
7, 9
6, 7
4, 9
7, 1
4, 4
4, 4
3, 3
5, 8
3, 1
3, 1
0, 0
2, 1
2, 0
2, 0
3, 2
0, 2
2, 0
2, 2
0, 1
1, 2
1, 1
3, 0
3, 2
3, 2
5, 2
5, 2
3, 5
2, 3
3, 0
3, 1
4, 1
5, 1
3, 1
1, 2
1, 0
1, 2
1, 2
3, 0
1, 1
0, 0
0, 0
1, 0
0, 1
0, 0
6, 1
4, 0
1, 0
1, 2
0, 0
0, 1
2, 1
1, 3
2, 0
1, 1
0, 0
1, 0
2, 1
0, 0
1, 1
1, 0
1, 1
0, 1
0, 2
0, 1
1, 0
0, 0
0, 1
1, 1
1, 1
1, 1
0, 0
0, 0
1, 0
0, 1
2, 0
1, 1
0, 0
0, 0
0, 3
1, 1
0, 0
0, 0
1, 0
1, 1
0, 1
1, 0
1, 0
0, 1
1, 1
1, 1
0, 1
0, 1
0, 0
0, 1
1, 2
0, 1
1, 0
0, 0
1, 1
1, 1
2, 0
0, 0
1, 0
0, 0
2, 0
1, 0
1, 0
1, 0
2, 0
0, 1
1, 0
0, 2
0, 0
0, 0
0, 0
0, 0
2, 0
0, 0
0, 2
1, 1
1, 0
2, 0
1, 0
0, 0
0, 1
0, 1
1, 1
2, 1
2, 1
0, 0
1, 1
1, 0
0, 0
0, 0
1, 2
0, 0
0, 0
0, 0
0, 0
1, 0
1, 0
1, 1
1, 0
0, 1
1, 0
1, 0
0, 1
1, 0
0, 0
0, 0
0, 0
0, 1
2, 0
0, 0
0, 0
1, 0
1, 0
0, 0
0, 0
0, 2
0, 0
1, 1
1, 0
1, 1
0, 0
2, 1
0, 0
1, 0
0, 0
0, 0
0, 1
1, 0
0, 0
0, 0
0, 1
0, 0
0, 0
0, 0
0, 0
0, 0
0, 0
0, 0
1, 0
0, 0
1, 0
0, 0
0, 0
0, 0
0, 0
0, 0
0, 0
0, 0
0, 0
0, 0
1, 0
0, 0
0, 1
1, 0
3, 1
0, 0
0, 0
0, 0
0, 0
1, 0
0, 1
0, 0
0, 0
0, 0
0, 0
0, 0
0, 0
0, 0
1, 0
0, 0
1, 0
0, 0
1, 0
0, 0
0, 0
0, 1
0, 0
0, 0
0, 1
0, 1
0, 1
0, 0
2, 0
0, 0
0, 0
1, 0
0, 1
0, 1
1, 0
1, 1
0, 2
1, 1
1, 0
0, 1
0, 0
0, 0
0, 0
1, 0
0, 0
0, 0
0, 0
0, 0
0, 0
0, 0
0, 0
0, 0
1, 0
0, 0
1, 0
0, 0
1, 0
1, 0
3, 0
0, 0
0, 0
0, 0
0, 0
1, 3
1, 0
0, 0
0, 0
0, 1
0, 0
0, 1
1, 0
0, 0
0, 0
0, 0
0, 0
0, 0
1, 0
0, 1
0, 0
1, 0
0, 0
0, 0
0, 0
0, 0
0, 0
0, 0
0, 0
0, 0
0, 0
0, 0
0, 0
0, 0
0, 0
0, 0
0, 0
0, 0
0, 0
0, 0
0, 0
0, 0
0, 0
0, 0
0, 1
0, 0
0, 0
0, 0
0, 0
0, 1
1, 0
1, 0
0, 1
0, 0
0, 0
0, 0
0, 0
0, 0
0, 0
0, 0
0, 0
0, 0
0, 0
0, 0
0, 0
0, 0
0, 0
0, 0
0, 0
0, 0
0, 0
0, 0
0, 0
1, 0
0, 1
0, 0
0, 0
0, 0
0, 0
0, 0
0, 0
0, 0
0, 0
0, 0
0, 0
0, 0
0, 0
0, 0
0, 0
0, 0
0, 0
0, 0
0, 0
0, 0
0, 0
0, 0
0, 0
0, 0
0, 0
0, 0
0, 0
0, 0
0, 0
0, 0
0, 0
0, 0
0, 0
0, 0
0, 0
0, 0
0, 0
0, 0
0, 0
0, 0
0, 0
0, 0
0, 0
0, 0
0, 0
0, 0
0, 0
0, 0
0, 0
0, 0
0, 0
0, 0
0, 0
0, 0
0, 0
0, 0
0, 0
0, 0
0, 0
0, 0
0, 0
0, 0
0, 0
0, 0
0, 0
0, 0
0, 0
0, 0
1, 0
0, 0
0, 0
1, 0
0, 0
0, 0
0, 0
0, 0
0, 0
0, 0
0, 0
0, 0
0, 0
0, 0
0, 0
0, 0
0, 0
0, 0
1, 0
0, 0
0, 0
0, 0
0, 1
0, 0
0, 0
0, 0
0, 0
0, 0
0, 0
0, 0
0, 0
0, 0
0, 0
0, 0
0, 0
0, 0
0, 0
0, 0
0, 0
1, 0
0, 0
0, 0
0, 0
0, 0
0, 0
0, 0
0, 0
0, 0
0, 0
0, 0
0, 0
0, 0
0, 0
0, 0
0, 0
0, 0
0, 0
0, 0
0, 0
0, 0
0, 0
0, 0
0, 0
0, 0
0, 0
0, 0
0, 0
0, 0
0, 0
0, 0
0, 0
0, 0
0, 0
0, 0
0, 0
0, 0
0, 0
0, 0
0, 0
0, 0
0, 0
0, 0
0, 0
0, 0
0, 0
0, 0
0, 0
0, 0
0, 0
0, 0
0, 0
0, 0
0, 0
0, 0
0, 0
0, 0
0, 0
0, 0
0, 0
0, 0
0, 0
0, 0
0, 0
0, 0
0, 0
0, 0
0, 0
0, 0
0, 0
0, 0
0, 0
0, 0
0, 0
0, 0
0, 0
0, 0
0, 0
0, 0
0, 0
0, 0
0, 0
0, 0
0, 0
0, 0
0, 0
0, 0
0, 0
0, 0
0, 0
0, 0
0, 0
1, 0
0, 0
0, 0
0, 0
0, 0
0, 0
0, 0
0, 0
0, 0
0, 0
0, 0
0, 0
0, 0
0, 0
0, 0
0, 0
0, 0
0, 0
0, 0
0, 0
0, 0
0, 0
0, 0
0, 0
0, 0
0, 0
0, 0
0, 0
0, 0
0, 0
0, 0
0, 0
0, 0
0, 0
0, 0
0, 0
0, 0
0, 0
0, 0
0, 0
0, 0
0, 0
0, 0
0, 0
0, 0
0, 0
0, 0
0, 0
0, 0
0, 0
0, 0
0, 0
0, 0
0, 0
0, 0
0, 0
0, 0
0, 0
0, 0
0, 0
0, 0
0, 0
0, 0
0, 0
0, 0
0, 0
0, 0
0, 0
0, 0
0, 0
0, 0
0, 0
0, 0
0, 0
0, 0
0, 0
0, 0
0, 0
0, 0
0, 0
0, 0
0, 0
0, 0
0, 0
0, 0
0, 0
0, 0
0, 0
0, 0
0, 0
0, 0
0, 0
0, 0
0, 0
0, 0
0, 0
0, 0
0, 0
0, 0
0, 0
0, 0
0, 0
0, 0
0, 0
0, 0
0, 0
0, 0
0, 0
0, 0
0, 0
0, 0
0, 0
0, 0
0, 0
0, 0
0, 0
0, 0
0, 0
0, 0
0, 0
0, 0
0, 0
0, 0
0, 0
0, 0
0, 0
0, 0
0, 0
0, 0
0, 0
0, 0
0, 0
0, 0
0, 0
0, 0
0, 0
0, 0
0, 0
0, 0
0, 0
0, 0
0, 0
0, 0
0, 0
0, 0
0, 0
0, 0
0, 0
0, 0
0, 0
0, 0
0, 0
0, 0
0, 0
0, 0
0, 0
0, 0
0, 0
0, 0
0, 0
0, 0
0, 0
0, 0
0, 0
0, 0
0, 0
0, 0
0, 0
0, 0
0, 0
0, 0
0, 0
0, 0
0, 0
0, 0
0, 0
0, 0
0, 0
0, 0
0, 0
0, 0
0, 0
0, 0
0, 0
0, 0
0, 0
0, 0
0, 0
0, 0
0, 0
0, 0
0, 0
0, 0
0, 0
0, 0
0, 0
0, 0
0, 0
0, 0
0, 0
0, 0
0, 0
0, 0
0, 0
0, 0
0, 0
0, 0
0, 0
0, 0
0, 0
0, 0
0, 0
0, 0
0, 0
0, 0
0, 0
0, 0
0, 0
0, 0
0, 0
0, 0
0, 0
0, 0
0, 0
0, 0
0, 0
0, 0
0, 0
0, 0
0, 0
0, 0
0, 0
0, 0
0, 0
0, 0
0, 0
0, 0
0, 0
0, 0
0, 0
0, 0
0, 0
0, 0
0, 0
0, 0
0, 0
0, 0
0, 0
0, 0
0, 0
0, 0
0, 0
0, 0
0, 0
0, 0
0, 0
0, 0
0, 0
0, 0
0, 0
0, 0
0, 0
0, 0
0, 0
0, 0
0, 0
0, 0
0, 0
0, 0
0, 0
0, 0
0, 0
0, 0
0, 0
0, 0
0, 0
0, 0
0, 0
0, 0
0, 0
0, 0
0, 0
0, 0
0, 0
0, 0
0, 0
0, 0
0, 0
0, 0
0, 0
0, 0
0, 0
0, 0
0, 0
0, 0
0, 0
#ENDOFDATA     end of spectrum data