File: host_upload/12-01-2023/Dourbes (shot-by-shot)/upload_4/ps__0257_0689790785_000rfs_shot_3167.msa
#FORMAT      : EMSA/MAS spectral data file
#VERSION     : TC202v2.0 PIXL
#TITLE       : N/A
#DATE        :       Date in the format DD-MMM-YYYY, for example 07-JUL-2010
#TIME        :             The time of day at which the spectrum was recorded, in 24-hour format
#OWNER       : PIXL Flight Model       (PIXL will use this to indicate which instrument took the data.)
#NPOINTS     : 4096     Number of data points in the spectrum (This can be zero for configuration only files)
#NCOLUMNS    : 2     Number of data columns in the spectrum (This can be zero for configuration only files)
#XUNITS      : eV
#YUNITS      : COUNTS
#DATATYPE    : YY
#XPERCHAN    : 7.862, 7.881   eV per channel (separate by commas if more than one detector)
#OFFSET      : 18.5, -22.4         eV of first channel  (separate by commas if more than one detector
#SIGNALTYPE  : XRF
#YP_TEMP     : 2.973
#LIVETIME    : 9.00393, 9.00002   seconds (separate by commas if more than one detector)
#REALTIME    : 10, 10.0   seconds (separate by commas if more than one detector)
#SPECTRUM    : start of spectrum data
0, 0
0, 0
0, 0
0, 0
0, 0
0, 0
0, 0
0, 0
0, 0
0, 0
0, 0
0, 0
0, 0
0, 0
0, 0
0, 0
0, 0
0, 0
0, 0
0, 0
0, 0
0, 0
0, 0
0, 0
0, 0
0, 0
0, 0
0, 0
0, 0
0, 0
0, 0
0, 0
0, 1
0, 0
0, 0
0, 0
1, 2
1, 0
0, 0
1, 0
0, 1
1, 2
1, 0
1, 2
1, 3
1, 0
2, 1
1, 1
4, 1
7, 4
16, 16
24, 27
42, 25
61, 50
64, 53
49, 56
35, 35
24, 21
10, 13
5, 4
4, 2
5, 3
3, 2
0, 1
1, 0
2, 5
1, 4
12, 4
11, 12
34, 27
92, 72
169, 163
302, 288
412, 376
493, 448
518, 461
443, 391
307, 260
205, 173
104, 95
52, 47
24, 21
8, 16
6, 4
6, 3
4, 4
3, 3
1, 1
1, 4
5, 0
1, 2
5, 3
3, 0
4, 2
0, 0
2, 2
4, 1
2, 4
2, 3
2, 4
3, 3
1, 2
2, 1
0, 1
3, 2
2, 5
2, 6
8, 7
6, 8
12, 7
18, 6
9, 15
21, 25
29, 23
38, 31
34, 31
39, 24
30, 16
14, 16
21, 20
18, 16
12, 9
19, 13
21, 19
8, 9
13, 14
15, 11
11, 8
12, 6
4, 8
2, 5
4, 0
6, 5
2, 1
4, 1
2, 4
3, 0
2, 0
3, 2
1, 3
1, 3
3, 4
3, 3
1, 3
5, 1
2, 0
3, 3
1, 2
0, 2
5, 3
0, 7
3, 3
10, 7
10, 15
15, 15
25, 10
31, 20
25, 20
29, 23
20, 24
17, 13
15, 26
10, 18
6, 26
8, 29
16, 49
13, 67
30, 64
36, 86
24, 50
27, 31
23, 36
19, 15
16, 9
11, 7
7, 10
7, 4
3, 0
7, 3
5, 0
3, 3
0, 2
1, 5
3, 2
2, 0
2, 2
6, 4
4, 3
9, 6
7, 5
7, 8
9, 12
15, 14
20, 14
12, 6
15, 11
29, 19
18, 21
22, 13
15, 24
19, 18
12, 11
12, 9
7, 7
11, 3
10, 9
2, 10
8, 7
10, 14
8, 13
5, 9
7, 13
3, 11
6, 7
7, 7
9, 8
9, 6
3, 12
2, 7
3, 7
8, 6
5, 4
9, 13
11, 7
14, 11
6, 14
9, 16
8, 7
10, 10
8, 12
6, 15
29, 12
16, 7
19, 10
13, 9
18, 11
10, 3
18, 10
23, 10
25, 8
16, 12
21, 14
16, 9
10, 14
16, 13
24, 36
32, 42
55, 54
81, 68
84, 100
96, 90
88, 99
91, 88
81, 70
59, 48
36, 39
41, 24
17, 13
15, 18
23, 17
22, 17
30, 32
55, 57
84, 98
189, 239
348, 456
684, 800
1141, 1301
1785, 2039
2484, 2819
3418, 3505
3913, 4019
3937, 3860
3775, 3485
3184, 2907
2471, 2070
1794, 1451
1093, 869
653, 507
340, 237
185, 133
96, 60
35, 36
23, 14
10, 14
18, 20
12, 24
17, 25
20, 24
17, 32
17, 43
39, 46
56, 80
104, 122
147, 196
233, 280
296, 368
426, 463
506, 534
573, 527
595, 536
559, 478
438, 387
349, 295
242, 179
149, 119
85, 72
50, 32
23, 18
21, 15
11, 9
6, 4
1, 12
3, 13
3, 9
6, 12
4, 14
3, 9
8, 10
9, 11
3, 3
6, 6
8, 2
1, 1
3, 0
2, 8
2, 4
1, 11
2, 11
3, 13
2, 9
4, 15
1, 24
3, 23
4, 33
0, 16
3, 15
2, 15
6, 8
6, 7
2, 5
7, 3
2, 5
3, 4
3, 5
3, 6
7, 2
5, 4
5, 3
5, 3
7, 4
1, 4
3, 8
0, 6
4, 3
2, 7
2, 4
3, 9
4, 8
3, 4
8, 3
4, 5
2, 3
2, 6
3, 3
4, 3
3, 6
3, 2
4, 4
3, 3
0, 4
4, 3
2, 5
2, 4
3, 14
4, 8
4, 8
1, 6
6, 6
4, 11
2, 5
3, 4
4, 9
1, 6
2, 3
3, 2
2, 7
0, 2
3, 5
2, 2
2, 5
1, 5
0, 5
1, 5
2, 2
2, 3
3, 4
3, 6
3, 7
4, 3
4, 3
4, 3
9, 2
8, 3
3, 2
10, 2
11, 2
5, 2
10, 2
2, 2
3, 3
5, 3
3, 3
1, 2
2, 1
0, 2
0, 3
2, 2
1, 2
1, 1
4, 3
2, 4
4, 2
1, 3
5, 1
4, 0
3, 5
4, 4
5, 0
4, 4
5, 2
3, 4
5, 3
9, 1
10, 2
16, 3
13, 2
12, 0
12, 3
8, 1
6, 1
9, 3
7, 3
10, 0
4, 2
7, 2
2, 3
3, 2
2, 4
1, 0
1, 2
1, 2
2, 2
1, 1
2, 1
3, 2
2, 5
3, 6
4, 2
2, 6
1, 8
2, 7
2, 12
4, 16
3, 8
1, 5
1, 2
3, 5
1, 3
3, 4
6, 4
6, 2
4, 1
4, 3
4, 4
3, 1
1, 4
2, 4
2, 3
2, 3
1, 7
2, 0
0, 2
1, 4
2, 6
3, 3
1, 3
2, 0
4, 2
1, 1
1, 1
2, 0
2, 2
1, 0
0, 0
1, 0
1, 1
1, 2
1, 3
3, 0
4, 1
0, 3
3, 3
0, 7
3, 3
2, 4
4, 2
5, 3
2, 2
2, 0
4, 1
3, 2
4, 1
2, 2
3, 2
1, 2
2, 3
1, 3
2, 1
4, 1
2, 2
0, 2
3, 6
0, 1
2, 4
4, 2
4, 0
3, 2
2, 1
1, 0
1, 2
3, 4
4, 3
3, 5
2, 1
1, 5
3, 4
10, 7
4, 10
5, 9
7, 8
7, 8
4, 4
5, 7
10, 7
5, 7
6, 4
5, 3
2, 7
2, 2
3, 1
2, 4
0, 4
4, 0
0, 2
0, 0
1, 1
0, 2
2, 1
2, 1
1, 3
1, 1
1, 0
2, 0
1, 4
2, 2
2, 4
3, 3
5, 5
0, 0
3, 2
3, 2
3, 2
1, 1
0, 3
1, 1
2, 2
0, 2
2, 2
1, 5
1, 2
2, 0
0, 1
0, 1
1, 3
1, 1
2, 3
2, 1
2, 0
0, 0
0, 0
2, 1
0, 1
0, 1
3, 1
1, 1
1, 1
2, 0
0, 0
2, 1
2, 1
1, 3
0, 2
1, 1
1, 0
3, 0
5, 0
1, 0
1, 2
2, 0
1, 0
2, 1
3, 1
3, 0
1, 0
2, 0
1, 0
1, 3
2, 0
3, 0
0, 0
1, 1
1, 0
0, 1
2, 1
2, 2
0, 0
0, 3
0, 0
0, 1
0, 2
1, 1
1, 0
2, 0
1, 1
0, 0
1, 0
0, 1
1, 1
0, 0
0, 0
1, 0
1, 0
0, 1
0, 0
0, 0
3, 0
1, 0
0, 0
0, 1
0, 1
0, 0
1, 0
0, 0
0, 0
0, 0
0, 0
0, 0
1, 1
0, 0
0, 0
1, 1
0, 0
0, 0
1, 0
0, 0
0, 0
0, 0
1, 1
1, 0
0, 0
0, 0
3, 0
0, 0
0, 0
1, 0
0, 1
0, 1
0, 0
0, 3
0, 0
0, 0
0, 0
1, 0
0, 0
0, 0
0, 0
0, 0
0, 0
0, 0
0, 0
0, 2
0, 0
0, 1
0, 0
1, 0
0, 1
0, 0
1, 0
2, 0
0, 0
0, 0
0, 0
0, 2
0, 0
0, 1
0, 0
1, 0
0, 0
0, 0
0, 0
0, 1
0, 1
0, 0
0, 1
0, 1
0, 0
2, 0
0, 0
0, 0
0, 0
0, 0
0, 0
0, 0
0, 0
0, 0
0, 0
0, 2
1, 0
0, 0
1, 1
0, 0
0, 0
0, 0
0, 0
2, 0
1, 0
0, 0
0, 0
0, 1
0, 0
0, 0
0, 0
0, 0
0, 0
0, 1
1, 0
1, 0
0, 1
0, 1
0, 0
0, 0
0, 0
0, 0
0, 0
0, 0
0, 0
0, 0
1, 0
0, 0
0, 0
0, 0
0, 0
1, 0
0, 0
0, 0
2, 0
0, 0
1, 0
0, 0
0, 0
0, 0
1, 0
0, 0
0, 0
3, 0
0, 0
0, 0
0, 0
0, 0
0, 1
1, 0
0, 0
0, 0
0, 0
0, 1
1, 1
0, 0
0, 0
0, 0
0, 0
0, 0
0, 0
0, 1
0, 0
0, 0
0, 1
1, 0
1, 0
0, 1
0, 0
0, 0
0, 0
0, 2
0, 0
0, 0
0, 0
0, 0
0, 1
0, 0
0, 0
0, 0
0, 0
1, 0
0, 0
0, 1
0, 0
2, 0
0, 1
0, 0
0, 1
0, 1
0, 1
0, 0
0, 0
0, 0
0, 0
0, 1
1, 0
0, 0
1, 0
0, 0
0, 0
0, 0
0, 0
0, 0
0, 0
1, 0
0, 0
0, 0
0, 1
0, 0
0, 0
0, 0
0, 0
0, 0
0, 0
0, 0
0, 2
0, 0
0, 0
0, 1
0, 0
0, 0
0, 0
1, 0
0, 0
0, 0
0, 1
0, 0
0, 0
0, 0
0, 0
0, 0
0, 0
0, 0
0, 0
0, 0
0, 0
0, 0
0, 0
1, 0
0, 0
0, 0
0, 0
0, 0
0, 0
0, 0
0, 0
1, 0
0, 0
0, 0
0, 1
0, 0
0, 0
0, 1
0, 0
0, 0
0, 0
0, 0
0, 0
0, 0
0, 0
0, 0
0, 0
0, 0
0, 0
0, 0
0, 0
0, 0
0, 0
0, 0
0, 0
1, 0
0, 0
0, 0
0, 0
0, 0
0, 0
0, 0
0, 0
0, 0
0, 0
0, 0
0, 0
0, 0
0, 0
0, 0
0, 0
0, 0
0, 0
0, 0
0, 0
0, 0
0, 0
0, 0
0, 0
0, 0
0, 0
0, 0
0, 0
0, 0
0, 0
0, 0
0, 0
0, 0
0, 0
0, 1
0, 0
0, 0
0, 0
0, 0
1, 0
0, 0
0, 0
0, 0
0, 0
0, 1
0, 0
0, 0
0, 0
0, 0
0, 0
0, 0
0, 0
0, 0
0, 0
0, 0
0, 0
0, 0
0, 0
0, 0
0, 0
0, 0
0, 0
0, 0
0, 0
0, 0
0, 0
0, 0
0, 0
0, 0
0, 0
0, 0
0, 0
0, 0
0, 0
0, 0
0, 0
0, 0
0, 0
0, 0
0, 0
0, 0
1, 0
1, 0
0, 0
0, 0
0, 0
0, 0
0, 0
0, 0
0, 0
0, 0
0, 0
0, 0
0, 0
0, 0
0, 0
0, 0
0, 0
0, 0
0, 0
0, 0
0, 0
0, 0
0, 0
0, 0
1, 0
0, 0
0, 0
0, 0
0, 0
0, 0
0, 0
0, 0
0, 0
0, 0
0, 0
0, 0
0, 0
0, 0
0, 0
0, 0
0, 0
0, 0
0, 0
0, 0
0, 0
0, 0
0, 0
0, 0
0, 0
0, 0
0, 0
0, 0
0, 0
0, 0
0, 0
0, 0
0, 0
0, 0
0, 0
0, 0
0, 0
0, 0
0, 0
0, 0
0, 0
0, 0
0, 0
0, 0
0, 0
0, 0
0, 0
0, 0
0, 0
0, 0
0, 0
0, 0
0, 0
0, 0
0, 0
0, 0
0, 0
0, 0
0, 0
0, 0
0, 0
0, 0
0, 0
0, 0
0, 0
0, 0
0, 0
0, 0
0, 0
0, 0
0, 0
0, 0
0, 0
0, 0
0, 0
0, 0
0, 0
0, 0
0, 0
0, 0
0, 0
0, 0
0, 0
0, 0
0, 0
0, 0
0, 0
0, 0
0, 0
0, 0
0, 0
0, 0
0, 0
0, 0
0, 0
0, 0
0, 0
0, 0
0, 0
0, 0
0, 0
0, 0
0, 0
0, 0
0, 0
0, 0
0, 0
0, 0
0, 0
0, 0
0, 0
0, 0
0, 0
0, 0
0, 0
0, 0
0, 0
0, 0
0, 0
0, 0
0, 0
0, 0
0, 0
0, 0
0, 0
0, 0
0, 0
0, 0
0, 0
0, 0
0, 0
0, 0
0, 0
0, 0
0, 0
0, 0
0, 0
0, 0
0, 0
0, 0
0, 0
0, 0
0, 0
0, 0
0, 0
0, 0
0, 0
0, 0
0, 0
0, 0
0, 0
0, 0
0, 0
0, 0
0, 0
0, 0
0, 0
0, 0
0, 0
0, 0
0, 0
0, 0
0, 0
0, 0
0, 0
0, 0
0, 0
0, 0
0, 0
0, 0
0, 0
0, 0
0, 0
0, 0
0, 0
0, 0
0, 0
0, 0
0, 0
0, 0
0, 0
0, 0
0, 0
0, 0
0, 0
0, 0
0, 0
0, 0
0, 0
0, 0
0, 0
0, 0
0, 0
0, 0
0, 0
0, 0
0, 0
0, 0
0, 0
0, 0
0, 0
0, 0
0, 0
0, 0
0, 0
0, 0
0, 0
0, 0
0, 0
0, 0
0, 0
0, 0
0, 0
0, 0
0, 0
0, 0
0, 0
0, 0
0, 0
0, 0
0, 0
0, 0
0, 0
0, 0
0, 0
0, 0
0, 0
0, 0
0, 0
0, 0
0, 0
0, 0
0, 0
0, 0
0, 0
0, 0
0, 0
0, 0
0, 0
0, 0
0, 0
0, 0
0, 0
0, 0
0, 0
0, 0
0, 0
0, 0
0, 0
0, 0
0, 0
0, 0
0, 0
0, 0
0, 0
0, 0
0, 0
0, 0
0, 0
0, 0
0, 0
0, 0
0, 0
0, 0
0, 0
0, 0
0, 0
0, 0
0, 0
0, 0
0, 0
0, 0
0, 0
0, 0
0, 0
0, 0
0, 0
0, 0
0, 0
0, 0
0, 0
0, 0
0, 0
0, 0
0, 0
0, 0
0, 0
0, 0
0, 0
0, 0
0, 0
0, 0
0, 0
0, 0
0, 0
0, 0
0, 0
0, 0
0, 0
0, 0
0, 0
0, 0
0, 0
0, 0
0, 0
0, 0
0, 0
0, 0
0, 0
0, 0
0, 0
0, 0
0, 0
0, 0
0, 0
0, 0
0, 0
0, 0
0, 0
0, 0
0, 0
0, 0
0, 0
0, 0
0, 0
0, 0
0, 0
0, 0
0, 0
0, 0
0, 0
0, 0
0, 0
0, 0
0, 0
0, 0
0, 0
0, 0
0, 0
0, 0
0, 0
0, 0
0, 0
0, 0
0, 0
0, 0
0, 0
0, 0
0, 0
0, 0
0, 0
0, 0
0, 0
0, 0
0, 0
0, 0
0, 0
0, 0
#ENDOFDATA     end of spectrum data