File: host_upload/12-01-2023/Dourbes (shot-by-shot)/upload_4/ps__0257_0689790785_000rfs_shot_3005.msa
#FORMAT      : EMSA/MAS spectral data file
#VERSION     : TC202v2.0 PIXL
#TITLE       : N/A
#DATE        :       Date in the format DD-MMM-YYYY, for example 07-JUL-2010
#TIME        :             The time of day at which the spectrum was recorded, in 24-hour format
#OWNER       : PIXL Flight Model       (PIXL will use this to indicate which instrument took the data.)
#NPOINTS     : 4096     Number of data points in the spectrum (This can be zero for configuration only files)
#NCOLUMNS    : 2     Number of data columns in the spectrum (This can be zero for configuration only files)
#XUNITS      : eV
#YUNITS      : COUNTS
#DATATYPE    : YY
#XPERCHAN    : 7.862, 7.881   eV per channel (separate by commas if more than one detector)
#OFFSET      : 18.5, -22.4         eV of first channel  (separate by commas if more than one detector
#SIGNALTYPE  : XRF
#YP_TEMP     : 2.973
#LIVETIME    : 8.86028, 8.97215   seconds (separate by commas if more than one detector)
#REALTIME    : 10, 10.0   seconds (separate by commas if more than one detector)
#SPECTRUM    : start of spectrum data
0, 0
0, 0
0, 0
0, 0
0, 0
0, 0
0, 0
0, 0
0, 0
0, 0
0, 0
0, 0
0, 0
0, 0
0, 0
0, 0
0, 0
0, 0
0, 0
0, 0
0, 0
0, 0
0, 0
0, 0
0, 0
0, 0
0, 0
0, 0
0, 0
0, 0
0, 0
0, 0
0, 0
2, 0
1, 1
4, 1
10, 3
10, 2
18, 2
38, 3
47, 1
56, 3
36, 2
41, 0
32, 4
14, 1
11, 2
5, 2
5, 3
11, 8
19, 10
24, 14
31, 24
60, 33
53, 42
51, 39
30, 24
22, 22
17, 11
6, 5
6, 2
5, 2
3, 2
12, 7
11, 5
9, 6
11, 10
14, 7
23, 25
54, 40
109, 104
235, 227
385, 392
566, 540
632, 695
664, 655
593, 598
418, 408
279, 253
168, 143
79, 73
30, 35
20, 22
6, 5
6, 6
4, 4
7, 3
10, 1
6, 3
6, 2
7, 4
4, 5
18, 11
17, 13
36, 33
54, 51
84, 92
135, 117
144, 146
170, 135
122, 132
111, 105
85, 60
35, 41
37, 21
27, 17
38, 20
64, 27
130, 41
289, 54
624, 88
1172, 107
2038, 146
2945, 176
3836, 181
4196, 153
3866, 143
3226, 110
2247, 85
1320, 66
707, 40
385, 47
162, 41
74, 37
30, 23
27, 32
19, 17
21, 10
4, 12
13, 8
16, 6
5, 7
6, 3
5, 5
9, 1
4, 6
1, 7
2, 10
5, 11
2, 4
4, 6
5, 6
1, 5
5, 12
3, 3
0, 3
4, 3
1, 2
3, 5
3, 4
4, 2
7, 14
8, 14
16, 15
26, 29
26, 47
42, 40
57, 48
45, 54
38, 44
38, 31
14, 16
6, 11
9, 5
4, 3
7, 3
7, 7
9, 5
11, 12
19, 11
19, 12
19, 5
17, 9
11, 15
13, 5
10, 6
7, 8
8, 2
4, 2
4, 6
7, 6
3, 10
8, 6
5, 2
11, 2
17, 8
7, 6
6, 6
8, 10
16, 15
16, 21
15, 31
13, 43
11, 53
15, 68
27, 68
16, 97
10, 140
19, 118
16, 77
21, 77
13, 41
11, 26
6, 21
9, 8
11, 14
11, 11
3, 5
7, 8
6, 4
7, 5
5, 11
7, 8
9, 7
5, 13
11, 8
9, 4
7, 6
4, 10
9, 4
5, 6
3, 6
6, 8
7, 12
9, 10
12, 10
19, 10
19, 9
16, 12
18, 10
28, 12
17, 10
15, 7
18, 8
12, 9
10, 12
11, 9
6, 10
15, 8
10, 5
5, 8
6, 10
11, 12
12, 16
20, 22
20, 29
27, 37
51, 60
71, 69
71, 83
82, 98
92, 92
99, 83
85, 102
61, 56
34, 43
34, 45
25, 19
22, 16
15, 27
29, 29
30, 34
46, 57
92, 85
159, 205
321, 372
596, 737
1027, 1254
1507, 1963
2219, 2579
2896, 3300
3340, 3765
3554, 3568
3528, 3401
2947, 2904
2353, 2172
1613, 1405
1086, 855
670, 484
334, 245
192, 112
98, 66
66, 29
44, 14
49, 22
57, 20
83, 19
79, 22
79, 18
77, 21
73, 30
97, 39
85, 62
115, 102
136, 146
200, 231
269, 308
370, 423
444, 487
493, 519
534, 559
463, 510
378, 384
307, 295
250, 192
142, 139
88, 72
45, 43
30, 16
9, 8
11, 5
8, 7
5, 6
8, 5
8, 5
5, 6
5, 9
10, 8
6, 4
7, 7
10, 8
5, 5
9, 2
4, 3
4, 6
2, 4
4, 6
1, 9
4, 9
3, 19
4, 8
4, 21
6, 19
1, 13
4, 22
7, 18
3, 10
1, 8
5, 4
4, 8
4, 8
8, 5
5, 5
6, 2
4, 9
7, 3
5, 6
5, 4
11, 5
8, 9
5, 1
3, 6
5, 5
7, 1
4, 3
6, 5
2, 3
5, 3
5, 1
1, 6
5, 4
2, 3
3, 4
7, 3
5, 2
1, 2
3, 6
4, 3
3, 7
3, 6
4, 6
1, 7
4, 6
4, 4
2, 3
5, 6
8, 3
3, 5
6, 2
8, 3
10, 3
7, 2
10, 3
16, 5
9, 2
16, 4
15, 9
9, 2
9, 6
14, 8
9, 5
1, 13
9, 13
5, 20
3, 18
4, 27
10, 13
5, 9
3, 12
8, 5
5, 4
3, 5
7, 4
5, 1
7, 6
3, 3
2, 3
4, 4
3, 4
4, 6
4, 0
5, 2
5, 3
6, 5
5, 3
1, 1
5, 5
3, 2
3, 2
4, 2
0, 0
5, 2
2, 1
3, 2
2, 1
6, 3
2, 0
1, 2
2, 1
3, 1
0, 3
2, 4
1, 3
3, 0
0, 2
4, 3
1, 3
2, 1
4, 3
4, 2
4, 4
2, 2
1, 0
1, 3
1, 3
3, 2
1, 1
4, 4
1, 2
8, 1
1, 2
7, 3
8, 1
3, 3
8, 0
7, 3
10, 4
9, 3
19, 3
9, 2
14, 3
12, 3
11, 0
7, 0
6, 3
6, 2
2, 1
3, 2
5, 1
4, 1
3, 1
0, 1
1, 3
2, 2
2, 1
1, 3
1, 0
2, 2
3, 2
3, 4
1, 1
2, 3
0, 1
2, 1
0, 2
0, 0
2, 1
3, 1
0, 3
2, 2
0, 2
2, 2
0, 0
2, 1
2, 1
1, 3
3, 2
2, 3
0, 0
0, 0
1, 0
1, 3
4, 3
1, 0
3, 0
1, 3
2, 5
3, 5
1, 1
1, 2
0, 2
2, 1
1, 3
4, 1
1, 3
2, 0
1, 3
2, 0
3, 4
2, 0
0, 0
1, 1
1, 2
1, 0
0, 2
2, 1
0, 4
1, 1
3, 3
0, 2
1, 1
0, 2
1, 1
0, 4
2, 1
1, 5
1, 3
3, 4
3, 6
6, 11
7, 4
2, 7
3, 3
4, 2
9, 3
1, 5
2, 4
4, 2
2, 0
4, 5
0, 2
0, 0
3, 0
0, 0
0, 0
0, 0
0, 0
1, 0
2, 2
4, 1
3, 0
2, 0
0, 3
1, 0
2, 3
2, 3
1, 2
0, 4
4, 1
4, 1
3, 2
1, 1
1, 3
3, 3
1, 4
4, 2
1, 2
4, 1
0, 0
1, 0
1, 0
2, 0
1, 1
3, 2
1, 2
3, 0
0, 0
0, 0
1, 0
0, 1
0, 2
2, 0
0, 0
0, 0
1, 0
0, 0
1, 0
2, 0
0, 0
0, 1
1, 1
1, 0
2, 1
0, 0
1, 1
0, 1
0, 2
0, 0
1, 0
2, 1
0, 2
0, 0
0, 1
1, 1
1, 0
0, 0
1, 0
1, 0
1, 1
1, 1
0, 0
0, 0
2, 0
0, 0
1, 0
2, 0
1, 0
1, 2
1, 1
0, 0
0, 0
4, 0
0, 0
2, 1
1, 1
0, 0
1, 0
0, 0
0, 1
0, 3
1, 0
1, 0
4, 0
0, 0
0, 1
0, 1
0, 0
2, 0
0, 0
0, 2
1, 0
2, 2
2, 0
4, 0
0, 2
0, 0
1, 0
2, 0
1, 0
0, 0
1, 3
0, 0
0, 1
0, 1
0, 0
0, 1
0, 1
1, 1
0, 0
0, 0
0, 0
1, 0
0, 1
0, 0
1, 0
0, 0
1, 0
0, 0
0, 0
0, 0
0, 1
0, 0
0, 0
0, 0
0, 1
0, 1
0, 1
0, 1
1, 0
0, 0
0, 1
0, 1
0, 0
0, 1
0, 0
0, 0
0, 0
1, 0
0, 1
0, 0
0, 0
0, 1
0, 0
1, 1
0, 1
0, 0
0, 0
0, 0
0, 0
0, 0
0, 0
1, 0
0, 1
2, 0
0, 0
0, 0
1, 2
0, 0
0, 1
0, 0
0, 0
1, 0
0, 0
0, 0
0, 0
0, 0
0, 0
0, 2
0, 0
0, 0
0, 0
0, 0
0, 0
0, 0
0, 0
0, 0
0, 0
0, 2
0, 0
0, 1
0, 1
0, 0
1, 0
0, 0
0, 0
1, 0
0, 1
0, 1
0, 1
0, 0
2, 0
0, 1
0, 1
1, 0
1, 0
0, 1
0, 1
0, 0
0, 0
0, 0
0, 0
0, 0
0, 0
0, 0
0, 0
0, 0
0, 0
0, 0
0, 0
0, 1
0, 0
0, 0
0, 1
0, 0
1, 0
1, 0
0, 0
0, 0
1, 0
0, 0
1, 1
0, 0
3, 0
0, 1
0, 0
0, 0
1, 1
0, 0
0, 0
1, 0
0, 1
0, 0
1, 0
1, 0
0, 0
0, 0
0, 0
0, 0
1, 0
0, 0
0, 0
0, 0
0, 0
1, 0
0, 0
0, 0
1, 0
0, 0
0, 0
0, 0
0, 0
0, 0
0, 0
0, 0
0, 0
0, 0
0, 0
0, 0
0, 0
0, 0
0, 0
0, 0
1, 0
0, 0
1, 0
0, 1
0, 0
0, 0
1, 0
0, 0
0, 0
0, 0
0, 0
0, 0
0, 0
0, 0
0, 0
0, 0
0, 0
0, 0
0, 0
0, 1
0, 0
0, 0
0, 0
0, 0
0, 0
0, 0
0, 0
1, 0
1, 1
0, 0
2, 0
1, 0
0, 0
0, 0
0, 1
0, 0
0, 0
0, 0
0, 0
0, 0
0, 0
0, 0
0, 0
1, 0
0, 0
0, 0
0, 1
0, 0
0, 0
0, 0
0, 0
0, 0
0, 0
0, 0
0, 0
1, 0
0, 0
0, 0
0, 0
1, 0
0, 0
0, 0
1, 0
0, 0
0, 0
0, 0
0, 1
0, 0
0, 0
0, 0
0, 0
0, 0
0, 0
1, 0
0, 0
0, 0
0, 0
0, 0
0, 1
0, 0
0, 0
0, 0
0, 0
0, 0
0, 0
0, 0
0, 0
0, 0
0, 0
0, 0
0, 0
0, 0
0, 0
0, 0
0, 0
0, 0
0, 0
0, 0
0, 0
0, 0
0, 0
0, 0
0, 0
0, 0
0, 0
0, 0
0, 0
0, 0
0, 0
0, 0
0, 0
0, 0
0, 0
0, 0
0, 0
0, 0
0, 0
0, 0
0, 0
0, 0
0, 0
0, 0
0, 0
0, 0
0, 0
0, 0
0, 0
0, 0
0, 0
0, 0
0, 0
0, 0
1, 0
0, 0
0, 0
0, 0
0, 0
0, 0
0, 0
0, 0
1, 0
0, 0
0, 0
0, 0
0, 0
0, 0
0, 0
0, 0
0, 0
0, 0
0, 0
0, 0
0, 0
0, 0
0, 0
0, 0
0, 0
0, 0
0, 0
0, 0
0, 0
0, 0
0, 0
0, 0
0, 0
0, 0
0, 0
0, 0
0, 0
0, 0
0, 0
0, 0
0, 0
0, 0
0, 0
0, 0
0, 1
0, 0
0, 0
0, 0
0, 0
0, 0
0, 0
0, 0
0, 0
0, 0
0, 0
0, 0
0, 0
0, 0
0, 1
0, 0
0, 1
0, 0
0, 0
0, 0
0, 0
0, 0
0, 0
0, 0
0, 0
0, 0
0, 0
0, 0
0, 0
0, 0
0, 0
0, 0
0, 0
0, 0
0, 0
0, 0
0, 0
0, 0
0, 0
0, 0
0, 0
0, 0
0, 0
0, 0
0, 0
0, 0
0, 0
0, 0
0, 0
0, 0
0, 0
0, 0
0, 0
0, 0
0, 0
0, 0
0, 0
0, 0
0, 0
0, 0
0, 0
0, 0
0, 0
0, 0
0, 0
0, 0
0, 0
0, 0
0, 0
0, 0
0, 0
1, 0
0, 0
0, 0
0, 0
0, 0
0, 0
0, 0
0, 0
0, 0
0, 0
0, 0
0, 0
0, 0
0, 0
0, 0
0, 0
0, 0
0, 0
0, 0
0, 0
0, 0
0, 0
0, 0
0, 0
0, 0
0, 0
0, 0
0, 0
0, 0
0, 0
0, 0
0, 0
0, 0
0, 0
0, 0
0, 0
0, 0
0, 0
0, 0
0, 0
0, 0
0, 0
0, 0
0, 0
0, 0
0, 0
0, 0
0, 0
0, 0
0, 0
0, 0
0, 0
0, 0
0, 0
0, 0
0, 0
0, 0
0, 0
0, 0
0, 0
0, 0
0, 0
0, 0
0, 0
0, 0
0, 0
0, 0
0, 0
0, 0
0, 0
0, 0
0, 0
0, 0
0, 0
0, 0
0, 0
0, 0
0, 0
0, 0
0, 0
0, 0
0, 0
0, 0
0, 0
0, 0
0, 0
0, 0
0, 0
0, 0
0, 0
0, 0
0, 0
0, 0
0, 0
0, 0
0, 0
0, 0
0, 0
0, 0
0, 0
0, 0
0, 0
0, 0
0, 0
0, 0
0, 0
0, 0
0, 0
0, 0
0, 0
0, 0
0, 0
0, 0
0, 0
0, 0
0, 0
0, 0
0, 0
0, 0
0, 0
0, 0
0, 0
0, 0
0, 0
0, 0
0, 0
0, 0
0, 0
0, 0
0, 0
0, 0
0, 0
0, 0
0, 0
0, 0
0, 0
0, 0
0, 0
0, 0
0, 0
0, 0
0, 0
0, 0
0, 0
0, 0
0, 0
0, 0
0, 0
0, 0
0, 0
0, 0
0, 0
0, 0
0, 0
0, 0
0, 0
0, 0
0, 0
0, 0
0, 0
0, 0
0, 0
0, 0
0, 0
0, 0
0, 0
0, 0
0, 0
0, 0
0, 0
0, 0
0, 0
0, 0
0, 0
0, 0
0, 0
0, 0
0, 0
0, 0
0, 0
0, 0
0, 0
0, 0
0, 0
0, 0
0, 0
0, 0
0, 0
0, 0
0, 0
0, 0
0, 0
0, 0
0, 0
0, 0
0, 0
0, 0
0, 0
0, 0
0, 0
0, 0
0, 0
0, 0
0, 0
0, 0
0, 0
0, 0
0, 0
0, 0
0, 0
0, 0
0, 0
0, 0
0, 0
0, 0
0, 0
0, 0
0, 0
0, 0
0, 0
0, 0
0, 0
0, 0
0, 0
0, 0
0, 0
0, 0
0, 0
0, 0
0, 0
0, 0
0, 0
0, 0
0, 0
0, 0
0, 0
0, 0
0, 0
0, 0
0, 0
0, 0
0, 0
0, 0
0, 0
0, 0
0, 0
0, 0
0, 0
0, 0
0, 0
0, 0
0, 0
0, 0
0, 0
0, 0
0, 0
0, 0
0, 0
0, 0
0, 0
0, 0
0, 0
0, 0
0, 0
0, 0
0, 0
0, 0
0, 0
0, 0
0, 0
0, 0
0, 0
0, 0
0, 0
0, 0
0, 0
0, 0
0, 0
0, 0
0, 0
0, 0
0, 0
0, 0
0, 0
0, 0
0, 0
0, 0
0, 0
0, 0
0, 0
0, 0
0, 0
0, 0
0, 0
0, 0
0, 0
0, 0
#ENDOFDATA     end of spectrum data