File: host_upload/12-01-2023/Dourbes (shot-by-shot)/upload_4/ps__0257_0689790785_000rfs_shot_3051.msa
#FORMAT      : EMSA/MAS spectral data file
#VERSION     : TC202v2.0 PIXL
#TITLE       : N/A
#DATE        :       Date in the format DD-MMM-YYYY, for example 07-JUL-2010
#TIME        :             The time of day at which the spectrum was recorded, in 24-hour format
#OWNER       : PIXL Flight Model       (PIXL will use this to indicate which instrument took the data.)
#NPOINTS     : 4096     Number of data points in the spectrum (This can be zero for configuration only files)
#NCOLUMNS    : 2     Number of data columns in the spectrum (This can be zero for configuration only files)
#XUNITS      : eV
#YUNITS      : COUNTS
#DATATYPE    : YY
#XPERCHAN    : 7.862, 7.881   eV per channel (separate by commas if more than one detector)
#OFFSET      : 18.5, -22.4         eV of first channel  (separate by commas if more than one detector
#SIGNALTYPE  : XRF
#YP_TEMP     : 3.069
#LIVETIME    : 8.97167, 9.00476   seconds (separate by commas if more than one detector)
#REALTIME    : 10, 10.0   seconds (separate by commas if more than one detector)
#SPECTRUM    : start of spectrum data
0, 0
0, 0
0, 0
0, 0
0, 0
0, 0
0, 0
0, 0
0, 0
0, 0
0, 0
0, 0
0, 0
0, 0
0, 0
0, 0
0, 0
0, 0
0, 0
0, 0
0, 0
0, 0
0, 0
0, 0
0, 0
0, 0
0, 0
0, 0
0, 0
0, 0
0, 0
0, 0
0, 0
0, 0
1, 2
2, 0
2, 1
4, 3
10, 4
11, 2
29, 4
27, 4
14, 5
15, 2
10, 1
3, 0
6, 3
1, 1
4, 1
10, 2
16, 8
19, 15
47, 25
35, 42
39, 56
52, 50
30, 26
22, 19
13, 5
8, 7
3, 4
3, 5
5, 7
4, 1
9, 7
3, 7
3, 7
7, 1
17, 8
35, 27
79, 71
164, 141
285, 242
428, 384
451, 474
442, 475
389, 406
289, 287
173, 182
112, 99
60, 44
24, 31
13, 12
12, 4
5, 8
10, 4
4, 4
2, 3
0, 0
2, 0
2, 3
1, 3
4, 4
13, 14
17, 25
30, 37
66, 52
79, 80
93, 126
124, 112
92, 80
86, 67
47, 58
45, 33
22, 14
26, 12
17, 20
32, 30
47, 38
133, 59
215, 87
454, 115
762, 149
1117, 181
1364, 173
1473, 176
1317, 143
1095, 131
767, 92
477, 74
301, 57
120, 37
83, 40
51, 27
25, 30
23, 32
19, 16
20, 26
19, 20
13, 12
16, 10
8, 5
5, 8
3, 11
6, 7
5, 5
12, 2
3, 5
6, 6
4, 8
3, 3
3, 5
8, 4
5, 6
1, 2
4, 5
3, 5
2, 7
3, 3
6, 2
8, 6
14, 9
21, 22
50, 51
67, 73
81, 109
89, 123
86, 140
118, 101
88, 80
63, 64
41, 45
27, 20
24, 13
14, 8
6, 5
8, 7
14, 7
29, 12
14, 18
24, 18
23, 19
15, 23
13, 16
8, 17
16, 4
11, 7
11, 8
9, 12
9, 8
6, 5
6, 2
7, 8
5, 6
4, 6
7, 8
10, 11
10, 12
8, 12
15, 17
16, 16
9, 18
22, 24
22, 45
26, 44
15, 55
26, 82
15, 66
29, 57
31, 53
21, 38
20, 38
19, 21
10, 13
13, 14
12, 11
12, 9
11, 10
12, 10
17, 17
8, 9
8, 10
19, 13
11, 10
14, 7
7, 10
15, 5
10, 14
9, 10
9, 14
9, 8
10, 12
10, 14
15, 14
10, 9
13, 13
14, 10
18, 13
8, 10
13, 16
24, 12
18, 13
13, 11
8, 13
11, 8
19, 10
8, 9
7, 6
10, 14
8, 12
17, 6
7, 8
18, 11
12, 16
11, 29
27, 28
49, 48
53, 53
80, 72
82, 96
101, 92
96, 108
90, 82
63, 82
50, 67
38, 48
28, 42
28, 36
20, 38
15, 21
15, 27
23, 34
48, 49
83, 104
181, 191
307, 401
555, 732
981, 1173
1557, 1777
2221, 2484
2857, 3284
3362, 3428
3495, 3614
3394, 3194
2854, 2623
2326, 1978
1651, 1346
1024, 833
638, 459
328, 248
174, 115
81, 68
57, 27
55, 20
43, 20
51, 20
71, 23
83, 19
61, 24
56, 18
68, 35
59, 37
68, 61
108, 101
127, 154
175, 228
271, 354
354, 440
431, 483
470, 522
520, 482
495, 465
389, 370
302, 249
230, 184
132, 106
87, 58
47, 36
25, 27
28, 9
13, 4
4, 7
3, 7
7, 3
9, 5
6, 8
7, 10
2, 11
14, 9
14, 19
2, 7
3, 5
5, 7
6, 8
4, 4
4, 7
5, 4
7, 6
4, 5
5, 12
5, 7
4, 10
2, 15
6, 9
5, 12
2, 11
3, 7
4, 9
6, 3
4, 5
4, 4
3, 4
3, 4
6, 5
7, 8
6, 6
8, 7
10, 6
8, 5
8, 7
6, 4
11, 3
4, 6
3, 8
3, 2
5, 4
5, 2
3, 4
4, 2
3, 5
3, 6
6, 5
5, 5
3, 7
2, 7
6, 4
7, 6
4, 5
9, 7
10, 5
7, 9
5, 6
6, 11
1, 6
4, 5
9, 5
4, 4
3, 4
5, 4
7, 0
7, 9
3, 4
7, 3
8, 6
9, 3
5, 5
3, 5
10, 8
8, 4
4, 4
2, 8
4, 7
5, 14
3, 18
10, 5
5, 7
8, 13
3, 7
5, 7
4, 6
9, 3
11, 6
4, 3
6, 5
5, 4
2, 7
3, 2
5, 5
4, 0
5, 3
4, 1
1, 2
4, 5
6, 6
4, 2
7, 3
6, 2
1, 0
2, 7
4, 2
3, 0
8, 0
1, 1
1, 3
1, 3
3, 4
5, 2
3, 5
3, 5
3, 1
3, 2
2, 4
4, 2
1, 5
4, 2
3, 2
3, 2
0, 2
4, 0
3, 3
4, 1
3, 4
2, 5
3, 1
3, 2
1, 2
4, 1
5, 2
1, 5
6, 1
3, 1
4, 0
4, 4
8, 3
9, 1
8, 4
8, 0
7, 6
11, 4
7, 2
9, 3
15, 2
10, 3
5, 3
2, 3
3, 3
2, 0
5, 3
4, 5
3, 3
3, 0
4, 3
0, 2
1, 1
3, 1
3, 1
3, 3
2, 1
1, 2
3, 2
1, 5
3, 3
4, 3
1, 0
4, 0
1, 0
2, 1
5, 1
1, 1
3, 3
1, 0
1, 2
0, 2
2, 2
2, 1
0, 3
2, 2
3, 2
1, 1
4, 2
6, 6
3, 2
0, 0
0, 1
3, 1
1, 4
1, 1
0, 1
3, 4
2, 1
1, 3
1, 4
2, 2
3, 1
3, 2
4, 3
1, 1
3, 1
2, 1
1, 0
4, 4
4, 3
2, 1
4, 3
1, 1
0, 0
1, 1
1, 1
2, 2
2, 2
1, 0
2, 0
2, 2
1, 1
3, 3
3, 1
1, 7
5, 4
5, 4
5, 7
3, 5
8, 0
5, 8
6, 4
5, 4
2, 3
4, 3
5, 3
1, 3
2, 1
1, 1
3, 2
0, 1
2, 5
1, 1
1, 0
1, 1
2, 0
2, 3
2, 0
0, 1
1, 0
0, 0
2, 2
2, 1
5, 2
2, 1
4, 3
4, 1
2, 3
2, 4
4, 1
2, 3
6, 4
0, 1
1, 0
1, 1
2, 2
3, 2
1, 3
1, 1
1, 0
2, 1
1, 2
1, 1
0, 5
3, 3
1, 0
0, 0
3, 0
0, 2
1, 0
1, 2
2, 1
1, 2
0, 0
1, 0
3, 2
3, 2
0, 1
0, 0
1, 2
0, 0
1, 1
0, 0
0, 1
1, 1
1, 0
0, 0
0, 0
2, 1
0, 1
1, 0
0, 0
0, 2
0, 5
1, 0
0, 0
0, 0
1, 1
1, 0
0, 3
0, 2
0, 0
0, 0
1, 2
1, 1
0, 0
1, 3
3, 0
3, 0
2, 0
0, 1
1, 3
1, 0
2, 0
1, 0
1, 2
0, 0
0, 1
1, 2
1, 1
1, 0
1, 0
0, 2
1, 0
0, 0
0, 0
0, 1
0, 0
1, 0
0, 1
0, 0
0, 1
0, 1
1, 0
1, 3
1, 1
0, 1
2, 0
0, 1
1, 0
0, 0
0, 0
1, 0
1, 0
1, 1
2, 0
1, 0
1, 0
0, 1
0, 1
0, 1
1, 0
1, 0
0, 0
1, 0
0, 0
0, 1
0, 0
0, 1
1, 1
1, 1
0, 0
1, 1
0, 0
2, 1
0, 0
0, 0
1, 1
1, 2
0, 0
0, 1
1, 0
1, 1
1, 0
0, 0
1, 0
0, 1
0, 0
0, 0
0, 0
0, 1
1, 0
0, 0
0, 0
1, 0
0, 0
0, 0
0, 1
3, 1
0, 0
0, 0
0, 0
0, 0
1, 0
0, 0
1, 0
0, 0
0, 0
0, 0
0, 0
1, 0
0, 0
1, 1
0, 0
0, 0
0, 0
0, 0
0, 2
0, 2
0, 0
0, 0
0, 1
0, 0
0, 0
0, 0
0, 0
1, 0
1, 0
1, 0
0, 0
0, 0
0, 0
0, 0
1, 0
0, 0
0, 0
0, 0
1, 0
1, 0
1, 0
1, 0
0, 0
0, 0
0, 0
1, 1
0, 1
0, 1
0, 2
0, 0
0, 0
0, 0
1, 0
2, 0
0, 0
0, 1
0, 0
0, 0
0, 0
0, 0
0, 1
1, 1
0, 0
0, 0
0, 1
0, 0
0, 0
0, 0
0, 0
0, 0
0, 0
0, 0
0, 0
0, 0
0, 2
0, 1
0, 0
0, 0
0, 0
1, 0
0, 0
0, 0
1, 0
0, 0
0, 0
1, 1
0, 1
0, 0
0, 0
0, 0
2, 0
0, 1
0, 1
0, 0
0, 0
0, 0
0, 0
0, 0
0, 0
1, 0
0, 0
0, 0
0, 0
0, 0
0, 0
0, 1
0, 0
0, 0
0, 1
0, 0
0, 0
0, 0
0, 0
0, 0
1, 0
0, 0
1, 0
0, 0
0, 0
0, 0
0, 0
1, 1
0, 0
0, 0
0, 0
0, 0
0, 0
0, 0
0, 0
0, 0
0, 0
0, 0
1, 0
0, 0
1, 0
0, 0
0, 0
0, 0
0, 0
0, 0
0, 0
0, 0
0, 0
1, 0
0, 0
0, 0
0, 1
0, 0
0, 0
0, 0
0, 0
0, 0
0, 0
0, 0
0, 0
0, 0
0, 0
0, 0
0, 0
0, 0
0, 0
0, 0
0, 0
0, 1
0, 0
0, 1
1, 0
0, 0
0, 0
0, 0
0, 0
0, 0
0, 0
0, 0
0, 0
0, 0
0, 0
0, 0
0, 0
0, 0
0, 1
0, 0
1, 0
0, 0
0, 0
0, 0
1, 0
0, 0
0, 0
0, 0
0, 0
0, 0
0, 0
0, 0
0, 0
0, 0
0, 0
0, 0
0, 0
0, 0
0, 0
0, 0
0, 0
0, 0
0, 0
0, 0
0, 0
0, 0
0, 0
0, 0
0, 0
0, 0
0, 0
0, 0
0, 0
0, 0
0, 0
0, 0
0, 0
0, 0
0, 0
0, 1
0, 0
0, 0
0, 0
0, 0
0, 0
0, 0
0, 0
0, 0
0, 0
0, 0
0, 0
0, 0
0, 0
0, 0
0, 0
0, 0
0, 0
0, 0
0, 0
0, 1
0, 0
0, 0
0, 0
0, 0
0, 0
0, 0
0, 0
0, 0
0, 0
0, 0
0, 0
0, 0
0, 0
0, 0
0, 0
0, 0
0, 0
0, 0
0, 0
0, 0
0, 0
0, 0
0, 0
0, 0
0, 0
0, 0
0, 0
0, 0
0, 0
0, 0
0, 0
0, 0
0, 0
0, 1
0, 0
0, 0
0, 0
0, 0
0, 0
0, 0
0, 0
0, 0
0, 0
0, 0
0, 0
0, 0
0, 0
0, 0
0, 0
0, 0
0, 0
0, 0
0, 0
0, 0
0, 0
0, 0
0, 0
0, 0
0, 0
0, 0
0, 0
0, 0
0, 0
0, 0
0, 0
0, 0
0, 0
0, 0
0, 0
0, 0
0, 0
0, 0
0, 0
0, 0
0, 0
0, 0
0, 0
0, 0
0, 0
0, 0
0, 0
0, 0
0, 0
0, 0
0, 0
0, 0
0, 0
0, 0
0, 0
0, 0
0, 0
0, 0
0, 0
0, 0
0, 0
0, 0
0, 0
0, 0
1, 0
0, 0
0, 0
0, 0
0, 0
0, 0
0, 0
0, 0
0, 0
0, 0
0, 0
0, 0
0, 0
0, 0
0, 0
0, 0
0, 0
0, 0
0, 0
0, 0
0, 0
0, 0
0, 0
0, 0
0, 0
0, 0
0, 0
0, 0
0, 0
0, 0
0, 0
0, 0
0, 0
0, 0
0, 0
0, 0
0, 0
0, 0
0, 0
0, 0
0, 0
0, 0
0, 0
0, 0
0, 0
0, 0
0, 0
0, 0
0, 0
0, 0
0, 0
0, 0
0, 0
0, 0
0, 0
0, 0
0, 0
0, 0
0, 0
0, 0
0, 0
0, 0
0, 0
0, 0
0, 0
0, 0
0, 0
0, 0
0, 0
0, 0
0, 0
0, 0
0, 0
0, 0
0, 0
0, 0
0, 0
0, 0
0, 0
0, 0
0, 0
0, 0
0, 0
0, 0
0, 0
0, 0
0, 0
0, 0
0, 0
0, 0
0, 0
0, 0
0, 0
0, 0
0, 0
0, 0
0, 0
0, 0
0, 0
0, 0
0, 0
0, 0
0, 0
0, 0
0, 0
0, 0
0, 0
0, 0
0, 0
0, 0
0, 0
0, 0
0, 0
0, 0
0, 0
0, 0
0, 0
0, 0
0, 0
0, 0
0, 0
0, 0
0, 0
0, 0
0, 0
0, 0
0, 0
0, 0
0, 0
0, 0
0, 0
0, 0
0, 0
0, 0
0, 0
0, 0
0, 0
0, 0
0, 0
0, 0
0, 0
0, 0
0, 0
0, 0
0, 0
0, 0
0, 0
0, 0
0, 0
0, 0
0, 0
0, 0
0, 0
0, 0
0, 0
0, 0
0, 0
0, 0
0, 0
0, 0
0, 0
0, 0
0, 0
0, 0
0, 0
0, 0
0, 0
0, 0
0, 0
0, 0
0, 0
0, 0
0, 0
0, 0
0, 0
0, 0
0, 0
0, 0
0, 0
0, 0
0, 0
0, 0
0, 0
0, 0
0, 0
0, 0
0, 0
0, 0
0, 0
0, 0
0, 0
0, 0
0, 0
0, 0
0, 0
0, 0
0, 0
0, 0
0, 0
0, 0
0, 0
0, 0
0, 0
0, 0
0, 0
0, 0
0, 0
0, 0
0, 0
0, 0
0, 0
0, 0
0, 0
0, 0
0, 0
0, 0
0, 0
0, 0
0, 0
0, 0
0, 0
0, 0
0, 0
0, 0
0, 0
0, 0
0, 0
0, 0
0, 0
0, 0
0, 0
0, 0
0, 0
0, 0
0, 0
0, 0
0, 0
0, 0
0, 0
0, 0
0, 0
0, 0
0, 0
0, 0
0, 0
0, 0
0, 0
0, 0
0, 0
0, 0
0, 0
0, 0
0, 0
0, 0
0, 0
0, 0
0, 0
0, 0
0, 0
0, 0
0, 0
0, 0
0, 0
0, 0
0, 0
0, 0
0, 0
0, 0
0, 0
0, 0
0, 0
0, 0
0, 0
0, 0
0, 0
0, 0
0, 0
0, 0
0, 0
0, 0
0, 0
0, 0
0, 0
0, 0
0, 0
0, 0
0, 0
0, 0
0, 0
0, 0
0, 0
0, 0
0, 0
0, 0
0, 0
0, 0
0, 0
0, 0
0, 0
0, 0
0, 0
0, 0
0, 0
0, 0
0, 0
0, 0
0, 0
0, 0
0, 0
0, 0
0, 0
0, 0
0, 0
0, 0
0, 0
#ENDOFDATA     end of spectrum data