File: host_upload/12-01-2023/Dourbes (shot-by-shot)/upload_4/ps__0257_0689790785_000rfs_shot_3078.msa
#FORMAT      : EMSA/MAS spectral data file
#VERSION     : TC202v2.0 PIXL
#TITLE       : N/A
#DATE        :       Date in the format DD-MMM-YYYY, for example 07-JUL-2010
#TIME        :             The time of day at which the spectrum was recorded, in 24-hour format
#OWNER       : PIXL Flight Model       (PIXL will use this to indicate which instrument took the data.)
#NPOINTS     : 4096     Number of data points in the spectrum (This can be zero for configuration only files)
#NCOLUMNS    : 2     Number of data columns in the spectrum (This can be zero for configuration only files)
#XUNITS      : eV
#YUNITS      : COUNTS
#DATATYPE    : YY
#XPERCHAN    : 7.862, 7.881   eV per channel (separate by commas if more than one detector)
#OFFSET      : 18.5, -22.4         eV of first channel  (separate by commas if more than one detector
#SIGNALTYPE  : XRF
#YP_TEMP     : 2.973
#LIVETIME    : 9.15615, 9.12748   seconds (separate by commas if more than one detector)
#REALTIME    : 10, 10.0   seconds (separate by commas if more than one detector)
#SPECTRUM    : start of spectrum data
0, 0
0, 0
0, 0
0, 0
0, 0
0, 0
0, 0
0, 0
0, 0
0, 0
0, 0
0, 0
0, 0
0, 0
0, 0
0, 0
0, 0
0, 0
0, 0
0, 0
0, 0
0, 0
0, 0
0, 0
0, 0
0, 0
0, 0
0, 0
0, 0
0, 0
0, 1
0, 0
0, 0
0, 0
0, 1
0, 1
0, 1
0, 0
1, 0
0, 1
1, 1
1, 2
2, 1
1, 1
0, 1
2, 1
1, 2
0, 2
2, 1
2, 1
6, 10
22, 17
32, 25
28, 31
33, 41
37, 36
28, 22
15, 23
4, 14
7, 9
8, 11
10, 9
14, 20
19, 11
13, 13
13, 15
11, 9
16, 7
26, 23
46, 55
111, 166
250, 317
424, 533
642, 723
718, 956
791, 992
617, 733
443, 592
303, 330
161, 183
84, 96
48, 52
35, 23
25, 24
22, 21
15, 12
6, 16
12, 9
2, 5
3, 3
2, 0
4, 2
5, 1
2, 4
2, 6
4, 8
5, 5
8, 15
3, 10
6, 13
5, 7
3, 6
2, 9
4, 2
0, 4
3, 3
2, 4
5, 7
5, 7
10, 7
12, 17
14, 22
27, 14
26, 27
21, 40
36, 35
28, 21
31, 30
19, 24
14, 34
9, 20
14, 23
19, 37
22, 27
15, 37
8, 33
10, 29
8, 51
15, 42
4, 44
3, 24
3, 16
4, 11
3, 10
4, 10
5, 5
5, 6
6, 4
5, 1
6, 5
5, 3
6, 11
5, 6
5, 9
4, 9
6, 6
4, 7
10, 6
9, 16
25, 32
39, 50
85, 123
177, 246
357, 460
598, 716
771, 1033
1019, 1294
1129, 1467
1092, 1288
828, 980
602, 740
433, 459
230, 238
121, 114
66, 70
39, 56
49, 70
75, 92
105, 150
96, 173
148, 194
145, 206
146, 164
114, 131
70, 85
60, 66
29, 27
17, 27
5, 10
4, 7
3, 2
3, 1
1, 3
1, 1
1, 3
5, 7
4, 8
15, 13
13, 22
20, 35
33, 28
38, 38
31, 43
22, 34
33, 34
25, 26
15, 22
12, 18
7, 9
7, 10
3, 9
3, 6
2, 5
3, 6
6, 7
12, 4
5, 8
9, 10
11, 14
12, 16
14, 13
15, 16
9, 19
10, 17
10, 28
6, 18
2, 26
0, 25
0, 33
3, 29
3, 23
3, 25
7, 17
6, 19
13, 21
14, 15
15, 31
21, 27
41, 48
41, 45
40, 48
33, 50
42, 50
25, 28
14, 21
14, 15
12, 10
3, 8
2, 5
8, 4
4, 7
6, 6
3, 8
3, 14
9, 11
13, 12
25, 38
20, 38
26, 45
34, 79
62, 56
64, 55
52, 58
38, 37
40, 41
28, 25
32, 24
34, 16
43, 5
76, 8
101, 14
132, 17
200, 18
250, 37
301, 62
359, 134
415, 275
518, 422
618, 667
718, 866
879, 1122
1005, 1287
1028, 1230
976, 1155
836, 982
621, 689
458, 460
316, 295
167, 169
91, 90
45, 50
29, 33
11, 12
11, 13
9, 7
8, 11
9, 11
5, 13
8, 14
13, 9
14, 12
19, 16
21, 28
29, 44
49, 53
53, 92
99, 134
128, 149
161, 153
157, 195
170, 199
158, 161
158, 124
109, 108
102, 72
55, 41
35, 28
21, 31
15, 21
7, 21
2, 19
8, 11
5, 12
4, 17
7, 10
4, 4
8, 5
4, 15
10, 7
5, 6
7, 9
6, 4
3, 4
7, 5
3, 7
2, 2
5, 1
5, 4
5, 9
3, 4
1, 2
5, 5
6, 7
4, 10
6, 4
2, 1
3, 5
4, 5
2, 3
1, 4
3, 5
5, 7
4, 5
10, 3
4, 8
5, 8
7, 4
5, 9
6, 4
8, 3
12, 6
3, 6
14, 4
11, 3
15, 7
9, 4
11, 4
10, 8
5, 5
6, 4
11, 5
10, 4
12, 4
4, 5
3, 9
2, 3
1, 6
6, 5
3, 5
2, 2
2, 6
4, 2
3, 5
1, 5
2, 2
3, 6
6, 7
1, 5
3, 2
3, 6
2, 2
4, 2
6, 4
6, 4
6, 3
5, 4
1, 7
1, 6
5, 3
2, 5
3, 5
4, 6
3, 6
5, 12
5, 13
1, 15
4, 20
2, 29
4, 31
0, 30
4, 38
9, 34
3, 31
3, 32
6, 31
6, 18
6, 22
2, 10
4, 16
3, 4
2, 5
5, 2
1, 2
4, 8
0, 5
7, 3
5, 5
3, 4
4, 3
7, 5
4, 1
5, 4
5, 12
4, 5
1, 5
4, 3
4, 5
3, 10
3, 9
3, 14
3, 15
7, 17
3, 20
8, 11
6, 17
4, 13
7, 14
4, 7
5, 11
6, 4
7, 7
3, 3
4, 1
2, 2
3, 4
7, 3
3, 5
3, 4
1, 0
1, 8
0, 5
2, 3
0, 1
2, 1
1, 1
5, 7
2, 3
0, 4
5, 4
0, 0
1, 3
1, 3
0, 1
1, 4
1, 3
1, 3
3, 3
1, 2
1, 3
1, 2
3, 1
2, 0
6, 3
1, 3
1, 2
6, 1
4, 4
3, 3
2, 4
1, 2
1, 2
4, 2
3, 2
6, 2
7, 7
5, 2
13, 6
8, 4
14, 5
11, 1
7, 3
15, 0
10, 6
9, 4
7, 2
10, 4
5, 4
3, 3
3, 1
4, 2
7, 3
2, 2
5, 1
3, 3
1, 3
0, 5
0, 2
1, 5
1, 7
2, 2
1, 5
4, 4
5, 3
3, 5
2, 8
3, 7
1, 9
3, 8
1, 8
5, 8
0, 4
2, 5
0, 6
1, 6
0, 5
3, 3
1, 1
1, 2
3, 10
0, 1
1, 0
1, 3
2, 0
2, 5
2, 3
1, 0
2, 1
2, 0
2, 1
2, 2
2, 1
0, 2
0, 4
2, 2
3, 0
2, 3
1, 1
3, 1
4, 3
3, 1
0, 3
1, 4
0, 3
2, 0
1, 3
2, 1
1, 0
3, 3
2, 2
0, 2
3, 1
1, 3
1, 0
0, 1
0, 1
4, 2
2, 1
1, 0
1, 1
3, 3
5, 3
2, 3
1, 1
0, 0
1, 6
1, 1
3, 4
1, 1
3, 2
3, 3
0, 2
0, 2
1, 1
1, 4
1, 0
3, 0
1, 4
2, 2
0, 0
2, 1
1, 3
4, 2
2, 0
0, 0
0, 0
1, 0
2, 1
1, 0
1, 1
0, 2
1, 3
1, 0
0, 1
3, 1
0, 1
1, 3
0, 2
1, 2
0, 1
0, 1
1, 0
1, 1
2, 1
1, 0
1, 0
1, 4
0, 3
2, 2
0, 1
1, 0
1, 0
0, 1
0, 0
0, 1
0, 2
1, 3
2, 1
1, 2
1, 1
1, 1
0, 3
2, 1
1, 0
2, 1
0, 3
0, 0
1, 0
1, 1
1, 0
1, 2
0, 0
1, 1
0, 0
1, 1
1, 2
2, 4
1, 2
0, 2
2, 0
0, 1
2, 1
2, 0
2, 0
2, 0
0, 2
0, 1
2, 0
2, 1
2, 1
1, 0
0, 0
0, 0
1, 1
0, 0
1, 0
0, 0
0, 2
0, 1
1, 1
1, 4
2, 2
0, 1
0, 1
1, 1
1, 1
1, 1
1, 0
0, 1
0, 1
2, 0
0, 0
0, 0
1, 1
2, 0
1, 1
1, 0
2, 1
0, 2
0, 0
0, 0
0, 2
0, 0
0, 0
0, 2
0, 0
0, 1
0, 0
0, 0
0, 0
1, 0
0, 0
0, 3
0, 1
0, 1
0, 0
0, 0
0, 0
1, 1
1, 0
2, 1
0, 1
0, 0
0, 1
0, 0
0, 0
0, 2
0, 0
0, 1
0, 0
0, 0
0, 1
2, 2
0, 0
0, 0
0, 0
0, 0
0, 1
0, 0
0, 2
0, 0
0, 0
0, 1
1, 0
0, 0
2, 0
0, 0
0, 1
0, 2
0, 0
1, 0
0, 0
1, 1
2, 0
0, 0
0, 0
0, 0
1, 0
1, 0
1, 0
0, 1
3, 0
0, 0
0, 0
0, 0
0, 1
1, 2
1, 0
0, 0
1, 0
2, 0
1, 0
0, 0
0, 0
1, 1
0, 0
0, 0
0, 0
0, 2
0, 0
0, 0
0, 1
0, 0
0, 0
0, 0
0, 1
0, 0
0, 0
0, 1
0, 0
1, 0
1, 0
0, 1
0, 0
0, 1
0, 1
0, 0
1, 1
0, 0
1, 1
0, 0
0, 1
0, 0
0, 0
0, 2
0, 0
0, 0
0, 0
0, 1
1, 0
0, 0
0, 0
0, 2
0, 0
0, 0
0, 1
0, 2
0, 0
1, 0
0, 0
0, 0
0, 0
0, 0
1, 1
0, 0
0, 0
0, 1
1, 0
0, 0
0, 0
1, 0
0, 0
0, 0
0, 0
1, 0
0, 1
1, 0
0, 0
0, 0
0, 0
0, 0
1, 0
0, 0
0, 0
0, 0
2, 0
0, 1
0, 0
0, 1
0, 0
0, 0
0, 0
0, 0
0, 0
0, 1
1, 0
0, 0
0, 1
0, 0
0, 0
1, 0
0, 0
0, 0
0, 0
0, 0
0, 1
0, 0
0, 1
0, 1
0, 0
0, 0
0, 0
0, 0
0, 0
0, 0
0, 0
0, 0
0, 0
0, 0
0, 0
0, 1
0, 0
0, 0
0, 0
0, 0
0, 0
0, 0
0, 0
0, 0
0, 0
0, 0
0, 0
0, 0
1, 0
0, 1
0, 0
0, 1
0, 0
0, 0
0, 0
0, 0
0, 1
0, 0
0, 0
0, 0
0, 0
0, 0
0, 0
0, 0
0, 0
0, 0
0, 0
0, 0
0, 0
0, 0
0, 0
0, 0
0, 0
1, 1
1, 0
0, 0
0, 0
0, 0
0, 0
0, 0
0, 0
1, 0
0, 0
0, 0
0, 0
0, 0
0, 0
0, 0
0, 0
0, 0
0, 0
0, 0
0, 1
0, 0
0, 0
0, 0
0, 0
0, 0
0, 0
0, 0
0, 0
0, 0
0, 0
0, 0
0, 0
0, 0
0, 0
0, 0
0, 0
0, 0
0, 0
0, 0
0, 0
0, 0
0, 0
0, 0
0, 0
0, 0
0, 0
0, 0
0, 0
1, 0
0, 0
0, 0
0, 0
0, 0
0, 0
0, 0
0, 0
0, 0
0, 0
1, 0
0, 0
0, 0
0, 1
0, 0
0, 0
0, 0
0, 0
0, 0
0, 0
0, 0
0, 0
0, 0
0, 0
0, 0
0, 0
0, 0
0, 0
0, 0
0, 0
0, 0
0, 0
0, 0
0, 0
0, 0
0, 0
0, 0
0, 0
0, 0
0, 0
0, 0
0, 0
0, 0
0, 0
0, 0
0, 0
0, 0
0, 0
0, 0
0, 0
0, 0
0, 0
0, 0
0, 0
0, 0
0, 0
0, 0
0, 0
0, 0
0, 0
0, 0
0, 0
0, 0
0, 0
0, 0
0, 0
0, 0
0, 0
0, 0
0, 0
0, 0
0, 0
0, 0
0, 0
0, 0
0, 0
0, 0
0, 0
0, 0
0, 0
0, 0
0, 0
0, 0
0, 0
0, 0
0, 0
0, 0
0, 0
0, 0
0, 0
0, 0
0, 0
0, 0
0, 0
0, 0
0, 0
0, 0
0, 0
0, 0
0, 0
0, 0
0, 0
0, 0
0, 0
0, 0
0, 0
0, 0
0, 0
0, 0
0, 0
0, 0
0, 0
0, 0
0, 0
0, 0
0, 0
0, 0
0, 0
0, 0
0, 0
0, 0
0, 0
0, 0
0, 0
0, 0
0, 0
0, 0
0, 0
0, 0
0, 0
0, 0
0, 0
0, 0
0, 0
0, 0
0, 0
0, 0
0, 0
0, 0
0, 0
0, 0
0, 0
0, 0
0, 0
0, 0
0, 0
0, 0
0, 0
0, 0
0, 0
0, 0
0, 0
0, 0
0, 0
1, 0
0, 0
0, 0
0, 0
0, 0
0, 0
0, 0
0, 0
0, 1
0, 0
0, 0
0, 0
0, 0
0, 0
0, 0
0, 0
0, 0
0, 0
0, 0
0, 0
0, 0
0, 0
0, 0
0, 0
0, 0
0, 0
0, 0
0, 0
0, 0
0, 0
0, 0
0, 0
0, 0
0, 0
0, 0
0, 0
0, 0
0, 0
0, 0
0, 0
0, 0
0, 0
0, 0
0, 0
0, 0
0, 0
0, 0
0, 0
0, 0
0, 0
0, 0
0, 0
0, 0
0, 0
0, 0
0, 0
0, 0
0, 0
0, 0
0, 0
0, 0
0, 0
0, 0
0, 0
0, 0
0, 0
0, 0
0, 0
0, 0
0, 0
0, 0
0, 0
0, 0
0, 0
0, 0
0, 0
0, 0
0, 0
0, 0
0, 0
0, 0
0, 0
0, 0
0, 0
0, 0
0, 0
0, 0
0, 0
0, 0
0, 0
0, 0
0, 0
0, 0
0, 0
0, 0
0, 0
0, 0
0, 0
0, 0
0, 0
0, 0
0, 0
0, 0
0, 0
0, 0
0, 0
0, 0
0, 0
0, 0
0, 0
0, 0
0, 0
0, 0
0, 0
0, 0
0, 0
0, 0
0, 0
0, 0
0, 0
0, 0
0, 0
0, 0
0, 0
0, 0
0, 0
0, 0
0, 0
0, 0
0, 0
0, 0
0, 0
0, 0
0, 0
0, 0
0, 0
0, 0
0, 0
0, 0
0, 0
0, 0
0, 0
0, 0
0, 0
0, 0
0, 0
0, 0
0, 0
0, 0
0, 0
0, 0
0, 0
0, 0
0, 0
0, 0
0, 0
0, 0
0, 0
0, 0
0, 0
0, 0
0, 0
0, 0
0, 0
0, 0
0, 0
0, 0
0, 0
0, 0
0, 0
0, 0
0, 0
0, 0
0, 0
0, 0
0, 0
0, 0
0, 0
0, 0
0, 0
0, 0
0, 0
0, 0
0, 0
0, 0
0, 0
0, 0
0, 0
0, 0
0, 0
0, 0
0, 0
0, 0
0, 0
0, 0
0, 0
0, 0
0, 0
0, 0
0, 0
0, 0
0, 0
0, 0
0, 0
0, 0
0, 0
0, 0
0, 0
0, 0
0, 0
0, 0
0, 0
0, 0
0, 0
0, 0
0, 0
0, 0
0, 0
0, 0
0, 0
0, 0
0, 0
0, 0
0, 0
0, 0
0, 0
0, 0
0, 0
0, 0
0, 0
0, 0
0, 0
0, 0
0, 0
0, 0
0, 0
0, 0
0, 0
0, 0
0, 0
0, 0
0, 0
0, 0
0, 0
0, 0
0, 0
0, 0
0, 0
0, 0
0, 0
0, 0
0, 0
0, 0
0, 0
0, 0
0, 0
0, 0
#ENDOFDATA     end of spectrum data