File: host_upload/12-01-2023/Dourbes (shot-by-shot)/upload_4/ps__0257_0689790785_000rfs_shot_3248.msa
#FORMAT      : EMSA/MAS spectral data file
#VERSION     : TC202v2.0 PIXL
#TITLE       : N/A
#DATE        :       Date in the format DD-MMM-YYYY, for example 07-JUL-2010
#TIME        :             The time of day at which the spectrum was recorded, in 24-hour format
#OWNER       : PIXL Flight Model       (PIXL will use this to indicate which instrument took the data.)
#NPOINTS     : 4096     Number of data points in the spectrum (This can be zero for configuration only files)
#NCOLUMNS    : 2     Number of data columns in the spectrum (This can be zero for configuration only files)
#XUNITS      : eV
#YUNITS      : COUNTS
#DATATYPE    : YY
#XPERCHAN    : 7.862, 7.881   eV per channel (separate by commas if more than one detector)
#OFFSET      : 18.5, -22.4         eV of first channel  (separate by commas if more than one detector
#SIGNALTYPE  : XRF
#YP_TEMP     : 2.941
#LIVETIME    : 9.07033, 9.03767   seconds (separate by commas if more than one detector)
#REALTIME    : 10, 10.0   seconds (separate by commas if more than one detector)
#SPECTRUM    : start of spectrum data
0, 0
0, 0
0, 0
0, 0
0, 0
0, 0
0, 0
0, 0
0, 0
0, 0
0, 0
0, 0
0, 0
0, 0
0, 0
0, 0
0, 0
0, 0
0, 0
0, 0
0, 0
0, 0
0, 0
0, 0
0, 0
0, 0
0, 0
0, 0
0, 0
0, 0
0, 0
0, 0
0, 0
0, 0
0, 0
1, 0
3, 1
3, 0
1, 1
3, 4
3, 1
1, 4
2, 0
4, 4
0, 1
2, 2
1, 1
3, 1
3, 2
10, 4
12, 9
21, 23
26, 30
50, 47
43, 43
30, 50
32, 31
18, 25
11, 11
6, 3
7, 8
12, 4
6, 5
6, 4
8, 5
9, 7
8, 6
6, 8
18, 10
40, 26
75, 62
120, 133
225, 257
361, 352
385, 439
434, 402
334, 360
251, 265
156, 162
106, 92
49, 45
20, 18
7, 7
5, 6
7, 6
5, 6
3, 2
6, 8
4, 3
4, 2
1, 5
2, 2
8, 3
15, 11
24, 20
22, 19
46, 49
95, 45
92, 65
91, 47
75, 51
59, 43
35, 25
32, 13
15, 9
14, 7
16, 15
28, 11
34, 36
41, 63
73, 66
120, 110
143, 128
153, 162
144, 146
159, 153
131, 107
122, 96
93, 75
78, 58
50, 63
44, 47
42, 33
42, 39
28, 35
32, 28
33, 26
21, 23
20, 19
19, 20
18, 13
5, 9
9, 13
7, 10
4, 6
6, 10
5, 3
5, 9
12, 7
11, 4
7, 10
8, 9
4, 7
7, 6
7, 5
5, 4
4, 9
4, 7
7, 4
6, 5
7, 15
15, 14
30, 30
40, 67
85, 84
116, 157
120, 136
123, 186
122, 143
98, 136
74, 98
52, 52
31, 26
17, 16
20, 5
10, 5
9, 16
6, 9
21, 19
25, 16
19, 32
21, 31
16, 24
22, 29
20, 16
16, 19
15, 8
7, 5
12, 10
7, 10
12, 13
8, 9
4, 15
4, 10
4, 6
8, 13
8, 7
11, 17
11, 15
10, 17
9, 12
15, 21
15, 20
20, 24
22, 25
16, 27
20, 26
28, 26
27, 38
21, 26
18, 30
9, 24
10, 18
23, 18
9, 9
9, 18
14, 11
2, 8
8, 15
7, 16
14, 10
11, 17
10, 9
6, 11
8, 12
10, 8
11, 12
10, 15
5, 18
14, 18
12, 12
15, 8
9, 21
5, 13
16, 21
15, 19
16, 16
22, 20
19, 11
11, 17
17, 19
13, 19
10, 10
7, 12
13, 9
10, 12
12, 11
9, 8
9, 11
11, 16
14, 24
11, 17
11, 14
20, 22
16, 30
42, 35
49, 75
57, 90
83, 122
126, 117
112, 140
132, 129
114, 122
102, 97
86, 77
51, 52
59, 39
31, 27
26, 29
16, 23
20, 21
36, 29
46, 50
62, 113
114, 182
253, 311
460, 682
825, 1090
1260, 1619
1691, 2205
2284, 2800
2656, 2986
2814, 3093
2632, 2814
2139, 2322
1779, 1685
1318, 1169
788, 735
463, 369
225, 184
126, 104
75, 62
26, 42
23, 31
19, 24
22, 18
20, 29
31, 28
31, 31
28, 34
31, 33
36, 62
60, 73
66, 96
122, 129
181, 225
246, 291
269, 370
332, 417
364, 456
410, 430
363, 371
312, 332
243, 229
168, 169
108, 106
60, 50
41, 33
22, 22
16, 14
12, 5
8, 6
1, 6
6, 5
8, 5
8, 14
8, 12
7, 6
4, 9
5, 9
10, 11
9, 10
6, 5
9, 6
6, 10
4, 7
9, 5
5, 9
4, 5
5, 4
10, 2
2, 9
6, 4
3, 4
2, 4
6, 6
5, 5
2, 3
8, 15
5, 5
3, 6
4, 9
7, 6
5, 7
11, 7
6, 7
5, 4
5, 3
3, 7
7, 7
5, 7
6, 6
8, 8
3, 3
5, 4
4, 9
2, 8
6, 5
6, 3
3, 5
8, 8
4, 8
10, 4
9, 5
5, 7
8, 9
4, 9
13, 6
12, 6
7, 8
10, 7
7, 7
2, 7
8, 2
5, 7
6, 3
5, 8
4, 11
2, 5
5, 4
2, 11
2, 7
6, 7
3, 3
3, 6
10, 3
7, 8
4, 2
1, 9
5, 3
3, 1
4, 3
1, 5
4, 3
1, 3
8, 6
4, 4
3, 7
2, 3
3, 9
2, 4
3, 2
1, 4
5, 1
5, 9
4, 6
6, 11
8, 5
8, 9
8, 5
8, 8
9, 4
5, 3
2, 7
4, 6
3, 5
4, 2
3, 5
4, 4
3, 5
5, 5
5, 2
8, 2
3, 5
4, 5
5, 8
5, 4
6, 5
5, 4
4, 4
8, 7
4, 6
6, 6
3, 4
6, 3
2, 1
7, 5
2, 3
4, 5
3, 6
4, 2
4, 1
2, 6
3, 5
5, 2
12, 3
3, 7
4, 3
2, 2
3, 4
2, 2
6, 1
1, 3
0, 1
4, 1
3, 2
2, 3
5, 3
4, 9
3, 3
3, 5
3, 4
2, 3
3, 4
3, 1
2, 6
2, 4
4, 5
4, 5
2, 2
0, 2
9, 7
1, 1
4, 5
6, 6
2, 1
6, 3
1, 0
2, 3
4, 2
3, 5
4, 3
2, 3
1, 3
2, 2
4, 3
1, 3
4, 4
1, 4
3, 3
1, 4
1, 5
1, 8
2, 1
2, 2
2, 4
3, 4
3, 3
2, 6
5, 3
4, 6
2, 1
4, 7
3, 2
4, 2
1, 3
5, 5
3, 2
4, 4
2, 3
2, 3
1, 4
2, 2
2, 2
5, 3
3, 3
4, 3
3, 1
1, 4
2, 4
3, 3
3, 5
3, 3
6, 2
2, 3
0, 4
2, 4
0, 1
2, 4
3, 2
1, 3
2, 2
3, 3
4, 3
0, 5
1, 2
1, 5
3, 2
2, 2
5, 6
3, 7
4, 6
9, 5
5, 6
3, 5
1, 3
4, 7
3, 4
1, 2
2, 2
1, 5
2, 3
1, 1
3, 3
3, 1
0, 1
5, 1
2, 1
2, 1
0, 3
2, 4
2, 1
1, 0
3, 3
4, 1
2, 2
1, 3
1, 4
4, 1
7, 1
2, 4
1, 4
2, 1
1, 1
0, 3
0, 3
1, 2
2, 2
2, 1
0, 3
2, 4
2, 2
0, 1
1, 2
1, 1
0, 1
0, 1
0, 2
2, 1
1, 1
1, 0
3, 2
1, 0
0, 0
2, 0
3, 3
0, 2
1, 1
1, 1
2, 1
0, 0
0, 1
3, 1
0, 1
3, 0
0, 2
2, 1
0, 0
2, 1
0, 2
0, 0
0, 2
1, 1
4, 0
1, 2
0, 1
1, 2
2, 0
0, 0
3, 1
1, 1
2, 0
0, 0
4, 0
0, 2
2, 1
3, 1
1, 1
0, 1
0, 1
0, 0
0, 3
0, 1
1, 2
1, 0
0, 2
0, 0
0, 4
1, 0
2, 0
0, 1
0, 0
0, 1
1, 0
1, 1
0, 1
0, 1
0, 0
1, 2
1, 0
3, 0
0, 2
2, 2
0, 0
0, 1
1, 0
1, 0
1, 0
1, 2
3, 2
0, 0
0, 0
1, 0
3, 1
1, 0
0, 2
1, 1
1, 0
0, 1
2, 0
0, 0
0, 0
0, 0
0, 0
1, 3
2, 0
1, 0
0, 0
3, 0
0, 1
1, 2
0, 1
0, 0
0, 1
0, 0
0, 0
0, 1
0, 0
2, 0
0, 1
0, 1
0, 0
0, 0
0, 0
1, 2
0, 0
0, 0
0, 0
0, 0
0, 0
0, 1
0, 0
0, 1
0, 0
1, 0
1, 1
3, 0
1, 0
0, 0
0, 0
1, 1
1, 0
0, 0
0, 1
0, 1
0, 0
0, 1
0, 1
0, 0
0, 0
0, 0
1, 1
0, 1
0, 0
0, 0
0, 0
0, 0
0, 1
0, 0
0, 0
0, 0
0, 0
0, 0
0, 0
0, 0
0, 0
0, 2
0, 1
0, 0
0, 0
0, 1
0, 0
0, 1
1, 0
0, 0
0, 0
0, 0
1, 0
2, 0
0, 1
1, 0
0, 0
0, 1
0, 0
0, 0
0, 0
0, 0
0, 1
0, 0
1, 0
1, 0
0, 0
1, 0
0, 0
1, 1
1, 0
0, 0
0, 1
1, 0
0, 0
0, 0
0, 0
0, 0
0, 0
1, 2
0, 1
0, 1
1, 0
0, 0
0, 1
0, 0
1, 0
0, 0
0, 0
0, 0
1, 0
0, 2
0, 0
1, 0
0, 1
1, 1
0, 0
0, 0
2, 0
0, 1
0, 0
0, 0
0, 0
0, 1
0, 0
0, 1
0, 0
0, 0
1, 0
0, 1
0, 1
1, 0
0, 0
0, 0
1, 0
0, 1
0, 0
0, 0
0, 0
0, 0
0, 0
0, 0
0, 0
0, 0
0, 3
0, 0
0, 0
0, 0
0, 0
1, 0
0, 0
0, 0
0, 0
0, 0
0, 0
0, 1
0, 0
0, 0
0, 1
0, 0
0, 0
0, 1
0, 0
0, 0
0, 0
0, 0
0, 0
0, 0
0, 0
0, 1
0, 0
0, 0
0, 0
0, 0
0, 0
0, 0
1, 1
0, 0
0, 0
1, 0
0, 0
0, 0
0, 0
0, 1
1, 0
0, 0
0, 0
0, 0
0, 0
0, 0
0, 0
0, 0
0, 0
0, 0
0, 0
0, 0
0, 0
1, 0
0, 0
0, 0
0, 0
0, 0
0, 0
0, 0
0, 0
0, 0
0, 0
0, 0
0, 0
0, 0
0, 1
0, 0
0, 0
0, 0
0, 0
0, 0
0, 0
0, 0
0, 0
0, 0
1, 0
0, 0
0, 0
0, 0
0, 0
0, 0
0, 0
0, 0
1, 0
0, 0
0, 0
0, 1
0, 0
0, 0
1, 0
0, 0
0, 0
0, 0
0, 0
0, 0
0, 0
0, 0
0, 0
0, 0
0, 0
0, 0
0, 0
0, 0
0, 0
1, 0
0, 0
0, 0
0, 0
0, 0
0, 0
0, 0
0, 0
0, 0
0, 0
0, 0
0, 0
0, 0
0, 0
0, 0
0, 0
0, 0
0, 0
0, 0
0, 0
1, 0
0, 0
0, 0
0, 0
0, 0
0, 1
0, 0
0, 0
0, 0
0, 0
0, 0
0, 0
0, 0
0, 0
0, 0
0, 0
0, 0
0, 0
0, 0
0, 0
0, 0
0, 0
0, 0
0, 0
0, 0
0, 0
0, 0
0, 0
0, 0
0, 0
0, 0
0, 0
0, 0
0, 0
0, 0
0, 0
0, 0
0, 0
0, 0
0, 0
0, 0
0, 0
0, 0
0, 0
0, 0
0, 0
0, 0
0, 0
0, 1
0, 0
0, 0
0, 0
0, 0
0, 0
0, 0
0, 0
0, 0
0, 0
0, 0
0, 0
0, 0
0, 0
0, 0
0, 0
0, 0
0, 0
0, 0
0, 0
0, 0
0, 0
0, 0
0, 0
0, 0
0, 0
0, 0
0, 0
0, 0
0, 0
0, 0
0, 0
0, 0
0, 0
0, 0
0, 0
0, 0
0, 0
0, 0
0, 0
0, 0
0, 0
0, 0
0, 0
0, 0
0, 0
0, 0
0, 0
0, 0
0, 0
0, 0
0, 0
0, 0
0, 0
0, 0
0, 0
0, 0
0, 0
0, 0
0, 0
0, 0
0, 0
0, 0
0, 0
0, 0
0, 0
0, 0
0, 0
0, 0
0, 0
0, 0
0, 0
0, 0
0, 0
0, 0
0, 0
0, 0
0, 0
0, 0
0, 0
0, 0
0, 0
0, 0
0, 0
0, 0
0, 0
0, 0
0, 0
0, 0
0, 0
0, 0
0, 0
0, 0
0, 0
0, 0
0, 0
0, 0
0, 0
0, 0
0, 0
0, 0
0, 0
0, 0
0, 0
0, 0
0, 0
0, 0
0, 0
0, 0
0, 0
0, 0
0, 0
0, 0
0, 0
0, 0
0, 0
0, 0
0, 0
0, 0
0, 0
0, 0
0, 0
0, 0
0, 0
0, 0
0, 0
0, 0
0, 0
0, 0
0, 0
0, 0
0, 0
0, 0
0, 0
0, 0
0, 0
0, 0
0, 0
0, 0
0, 0
0, 0
0, 0
0, 0
0, 0
0, 0
0, 0
0, 0
0, 0
0, 0
0, 0
0, 0
0, 0
0, 0
0, 0
0, 0
0, 0
0, 0
0, 0
0, 0
0, 0
0, 0
0, 0
0, 0
0, 0
0, 0
0, 0
0, 0
0, 0
0, 0
0, 0
0, 0
0, 0
0, 0
0, 0
0, 0
0, 0
0, 0
0, 0
0, 0
0, 0
0, 0
0, 0
0, 0
0, 0
0, 0
0, 0
0, 0
0, 0
0, 0
0, 0
0, 0
0, 0
0, 0
0, 0
0, 0
0, 0
0, 0
0, 0
0, 0
0, 0
0, 0
0, 0
0, 0
0, 0
0, 0
0, 0
0, 0
0, 0
0, 0
0, 0
0, 0
0, 0
0, 0
0, 0
0, 0
0, 0
0, 0
0, 0
0, 0
0, 0
0, 0
0, 0
0, 0
0, 0
0, 0
0, 0
0, 0
0, 0
0, 0
0, 0
0, 0
0, 0
0, 0
0, 0
0, 0
0, 0
0, 0
0, 0
0, 0
0, 0
0, 0
0, 0
0, 0
0, 0
0, 0
0, 0
0, 0
0, 0
0, 0
0, 0
0, 0
0, 0
0, 0
0, 0
0, 0
0, 0
0, 0
0, 0
0, 0
0, 0
0, 0
0, 0
0, 0
0, 0
0, 0
0, 0
0, 0
0, 0
0, 0
0, 0
0, 0
0, 0
0, 0
0, 0
0, 0
0, 0
0, 0
0, 0
0, 0
0, 0
0, 0
0, 0
0, 0
0, 0
0, 0
0, 0
0, 0
0, 0
0, 0
0, 0
0, 0
0, 0
0, 0
0, 0
0, 0
0, 0
0, 0
0, 0
0, 0
0, 0
0, 0
0, 0
0, 0
0, 0
0, 0
0, 0
0, 0
0, 0
0, 0
0, 0
0, 0
0, 0
0, 0
0, 0
0, 0
0, 0
0, 0
0, 0
0, 0
0, 0
0, 0
0, 0
0, 0
0, 0
0, 0
0, 0
0, 0
0, 0
0, 0
0, 0
0, 0
0, 0
0, 0
0, 0
0, 0
0, 0
0, 0
0, 0
0, 0
0, 0
0, 0
0, 0
0, 0
0, 0
0, 0
0, 0
0, 0
0, 0
0, 0
0, 0
0, 0
0, 0
0, 0
0, 0
0, 0
0, 0
0, 0
0, 0
0, 0
0, 0
0, 0
0, 0
0, 0
0, 0
0, 0
0, 0
0, 0
0, 0
0, 0
0, 0
0, 0
0, 0
0, 0
0, 0
#ENDOFDATA     end of spectrum data