File: host_upload/12-01-2023/Dourbes (shot-by-shot)/upload_4/ps__0257_0689790785_000rfs_shot_3096.msa
#FORMAT      : EMSA/MAS spectral data file
#VERSION     : TC202v2.0 PIXL
#TITLE       : N/A
#DATE        :       Date in the format DD-MMM-YYYY, for example 07-JUL-2010
#TIME        :             The time of day at which the spectrum was recorded, in 24-hour format
#OWNER       : PIXL Flight Model       (PIXL will use this to indicate which instrument took the data.)
#NPOINTS     : 4096     Number of data points in the spectrum (This can be zero for configuration only files)
#NCOLUMNS    : 2     Number of data columns in the spectrum (This can be zero for configuration only files)
#XUNITS      : eV
#YUNITS      : COUNTS
#DATATYPE    : YY
#XPERCHAN    : 7.862, 7.881   eV per channel (separate by commas if more than one detector)
#OFFSET      : 18.5, -22.4         eV of first channel  (separate by commas if more than one detector
#SIGNALTYPE  : XRF
#YP_TEMP     : 3.037
#LIVETIME    : 9.00709, 9.00384   seconds (separate by commas if more than one detector)
#REALTIME    : 10, 10.0   seconds (separate by commas if more than one detector)
#SPECTRUM    : start of spectrum data
0, 0
0, 0
0, 0
0, 0
0, 0
0, 0
0, 0
0, 0
0, 0
0, 0
0, 0
0, 0
0, 0
0, 0
0, 0
0, 0
0, 0
0, 0
0, 0
0, 0
0, 0
0, 0
0, 0
0, 0
0, 0
0, 0
0, 0
0, 0
0, 0
0, 0
0, 0
0, 0
0, 0
0, 0
0, 1
0, 2
1, 2
1, 1
1, 0
0, 1
1, 1
1, 1
2, 1
0, 0
0, 2
1, 1
2, 0
4, 4
2, 2
3, 3
11, 14
25, 15
32, 30
30, 43
41, 48
56, 24
26, 28
17, 19
10, 7
3, 5
1, 6
8, 7
9, 8
7, 7
14, 15
6, 13
15, 6
15, 7
12, 21
42, 38
77, 92
193, 208
314, 286
448, 466
570, 547
572, 574
439, 496
374, 354
205, 212
118, 110
55, 53
34, 29
18, 15
6, 2
6, 5
6, 5
6, 6
4, 2
4, 3
0, 2
2, 1
1, 3
1, 1
0, 1
4, 2
5, 3
7, 6
3, 4
6, 5
4, 5
5, 3
6, 5
2, 3
1, 5
3, 11
1, 10
13, 8
11, 14
14, 15
27, 41
36, 56
54, 52
66, 61
83, 79
59, 65
76, 74
56, 48
51, 53
36, 36
29, 31
23, 27
27, 29
23, 19
17, 22
12, 26
19, 16
14, 19
14, 14
9, 7
16, 11
5, 8
15, 9
3, 6
4, 5
3, 4
5, 5
9, 6
4, 6
6, 9
12, 11
11, 8
5, 11
15, 12
2, 8
2, 9
4, 3
5, 6
4, 5
1, 4
6, 8
4, 10
9, 11
15, 18
23, 18
31, 43
47, 64
73, 63
61, 66
60, 66
42, 45
37, 40
24, 27
20, 23
20, 18
22, 10
26, 9
46, 25
80, 19
80, 16
116, 31
123, 25
109, 15
73, 19
58, 10
35, 11
21, 6
22, 4
8, 3
8, 1
3, 4
3, 4
4, 2
3, 1
8, 2
2, 3
6, 3
9, 6
8, 13
6, 5
18, 17
12, 19
26, 23
20, 24
21, 29
16, 15
12, 25
20, 18
24, 22
29, 27
22, 10
20, 16
16, 14
12, 14
10, 5
22, 4
16, 7
16, 12
14, 10
23, 18
15, 16
15, 27
9, 13
8, 22
5, 21
19, 21
5, 9
10, 10
10, 9
5, 6
0, 8
5, 6
6, 12
13, 6
11, 12
10, 10
7, 11
12, 8
11, 15
15, 8
19, 16
15, 13
19, 17
22, 21
17, 12
20, 16
14, 9
12, 12
23, 9
19, 8
16, 15
10, 13
14, 12
12, 13
7, 11
24, 25
18, 30
36, 48
47, 50
80, 89
89, 86
92, 106
91, 89
94, 105
68, 62
60, 48
40, 39
34, 25
33, 15
24, 24
16, 20
18, 23
19, 26
64, 72
63, 105
159, 219
345, 374
597, 753
1082, 1300
1676, 1858
2283, 2749
2955, 3266
3458, 3653
3653, 3755
3511, 3410
3042, 2697
2331, 2115
1704, 1429
1105, 855
661, 467
318, 240
161, 112
75, 49
35, 28
28, 25
27, 13
19, 15
14, 16
16, 23
22, 20
27, 26
17, 35
37, 61
65, 72
94, 96
142, 181
220, 285
286, 373
396, 473
494, 506
465, 527
535, 514
491, 479
414, 358
335, 284
243, 178
167, 119
80, 74
51, 47
34, 18
11, 9
5, 6
5, 8
6, 8
9, 14
10, 8
10, 10
8, 15
7, 7
8, 7
4, 10
9, 6
2, 7
10, 3
6, 4
3, 1
2, 5
2, 3
2, 2
3, 2
5, 7
3, 8
3, 2
3, 4
2, 4
5, 1
5, 6
10, 4
9, 6
9, 4
12, 3
9, 4
7, 5
5, 5
8, 8
13, 3
9, 8
8, 4
4, 4
2, 6
3, 5
6, 3
2, 4
3, 6
4, 5
5, 7
5, 5
4, 4
7, 12
5, 5
3, 6
1, 8
3, 8
4, 5
3, 6
3, 5
3, 5
2, 7
4, 1
5, 3
3, 1
6, 5
2, 5
5, 3
4, 2
8, 5
3, 6
4, 9
4, 7
2, 9
2, 6
2, 5
2, 6
1, 8
1, 4
1, 6
5, 4
2, 3
3, 2
3, 3
1, 2
2, 2
2, 1
2, 2
2, 1
3, 0
7, 3
2, 4
2, 6
7, 1
6, 3
5, 2
5, 2
8, 0
6, 3
8, 2
6, 0
5, 3
6, 1
7, 1
6, 5
6, 4
2, 4
1, 7
7, 2
4, 4
8, 4
8, 5
2, 2
1, 5
3, 4
2, 8
2, 6
3, 5
2, 3
4, 4
4, 4
2, 6
2, 5
6, 3
2, 3
4, 2
4, 2
6, 1
4, 1
5, 3
6, 0
5, 0
4, 3
5, 3
4, 0
7, 1
2, 2
3, 3
3, 2
1, 3
4, 0
4, 3
1, 2
1, 4
2, 1
0, 3
4, 2
3, 3
2, 1
2, 0
3, 1
1, 1
2, 4
4, 6
0, 10
1, 5
2, 6
3, 7
1, 7
2, 4
0, 6
6, 4
1, 7
2, 1
3, 1
3, 2
2, 1
2, 1
2, 5
5, 1
5, 2
1, 4
3, 4
6, 2
3, 1
2, 3
3, 4
0, 4
1, 4
3, 2
3, 2
3, 2
7, 0
3, 2
0, 2
1, 1
4, 2
0, 0
1, 3
0, 4
2, 1
2, 2
4, 2
1, 0
4, 1
2, 1
3, 0
2, 2
3, 0
5, 4
4, 3
3, 1
4, 5
3, 2
4, 0
1, 1
1, 3
4, 1
3, 1
2, 1
3, 0
1, 5
2, 3
3, 2
2, 3
2, 4
2, 3
3, 5
2, 0
2, 4
2, 7
3, 0
0, 0
1, 1
2, 1
1, 3
1, 2
3, 4
1, 0
2, 1
3, 3
5, 1
3, 3
3, 9
5, 7
6, 8
7, 9
8, 5
7, 6
6, 4
5, 6
4, 6
3, 4
2, 2
0, 8
2, 1
0, 2
3, 2
0, 2
3, 1
2, 2
1, 0
4, 0
2, 1
0, 1
1, 0
2, 0
1, 5
2, 4
2, 1
2, 3
3, 3
2, 4
2, 3
0, 3
1, 1
2, 3
4, 1
4, 4
2, 1
3, 1
3, 3
2, 4
1, 3
3, 0
0, 1
3, 1
0, 2
0, 3
1, 2
2, 0
1, 2
2, 1
0, 1
1, 0
1, 2
1, 1
2, 2
2, 0
0, 3
4, 0
0, 2
3, 1
3, 2
4, 0
1, 1
2, 1
1, 1
3, 0
2, 0
1, 0
2, 1
0, 2
3, 0
1, 1
1, 2
2, 0
4, 0
0, 1
1, 1
0, 1
0, 0
1, 0
2, 0
1, 1
1, 0
0, 0
0, 0
1, 1
0, 0
0, 2
1, 0
0, 0
0, 1
0, 1
0, 0
0, 2
0, 1
1, 2
0, 2
2, 1
2, 1
1, 2
0, 4
1, 0
2, 0
0, 0
0, 0
0, 0
0, 1
0, 0
0, 0
0, 0
0, 0
1, 0
1, 1
1, 0
2, 0
0, 0
0, 2
0, 1
0, 2
1, 0
0, 1
1, 0
0, 0
1, 1
0, 3
0, 0
0, 0
0, 0
1, 0
0, 1
0, 0
0, 0
0, 0
0, 0
0, 1
0, 0
0, 1
0, 0
1, 0
2, 0
0, 0
0, 0
3, 0
0, 0
0, 0
0, 0
0, 1
0, 0
0, 0
0, 2
1, 0
1, 1
1, 1
1, 0
0, 1
0, 1
1, 2
0, 2
0, 1
0, 0
1, 1
0, 0
0, 1
0, 0
0, 0
0, 0
0, 0
0, 1
0, 0
0, 0
1, 0
1, 0
0, 0
0, 1
0, 0
3, 0
1, 0
0, 0
1, 0
1, 2
0, 0
0, 0
1, 1
0, 0
1, 0
0, 0
1, 0
0, 0
0, 0
1, 0
0, 0
0, 2
1, 0
0, 0
0, 0
0, 0
0, 0
0, 0
0, 0
0, 0
0, 1
0, 0
0, 0
0, 1
0, 0
0, 0
1, 0
1, 1
1, 0
0, 0
0, 0
0, 0
0, 0
0, 0
0, 1
0, 0
1, 0
0, 1
0, 0
0, 0
1, 0
0, 1
0, 0
0, 0
0, 0
0, 0
0, 0
0, 0
0, 0
0, 0
0, 0
0, 0
0, 1
0, 0
0, 0
0, 0
0, 0
0, 0
0, 0
0, 0
0, 0
1, 0
0, 0
0, 0
0, 0
0, 0
0, 0
0, 0
0, 0
0, 0
1, 0
1, 0
0, 0
0, 0
0, 0
0, 0
1, 0
2, 2
0, 0
0, 0
0, 1
0, 0
0, 0
0, 0
0, 0
0, 0
1, 0
0, 0
1, 0
0, 0
1, 0
0, 0
1, 0
0, 0
1, 0
0, 0
0, 0
0, 0
0, 0
0, 0
0, 1
0, 0
0, 0
0, 0
0, 1
0, 1
0, 0
0, 0
0, 0
1, 0
0, 0
0, 0
1, 0
0, 0
0, 0
0, 0
0, 0
0, 0
0, 1
0, 1
1, 0
0, 0
1, 0
0, 0
0, 0
0, 0
0, 0
0, 0
1, 0
0, 0
0, 0
0, 0
1, 0
0, 0
0, 0
1, 0
0, 1
0, 1
0, 0
0, 0
0, 0
1, 0
0, 0
0, 0
0, 0
0, 0
0, 0
0, 0
0, 1
1, 0
0, 0
0, 0
0, 0
0, 0
0, 0
0, 0
0, 0
0, 0
0, 0
0, 0
0, 0
1, 0
0, 0
0, 0
0, 0
0, 1
0, 0
0, 0
0, 0
0, 1
0, 0
0, 0
0, 0
0, 0
0, 0
0, 0
0, 0
0, 0
0, 0
0, 0
0, 0
0, 0
0, 0
0, 0
0, 0
0, 0
0, 1
0, 0
0, 0
0, 0
0, 0
0, 0
1, 0
0, 0
0, 0
0, 0
0, 0
0, 0
0, 0
0, 0
0, 0
0, 0
1, 0
0, 0
0, 0
0, 0
0, 0
0, 0
0, 0
0, 0
0, 0
0, 0
0, 0
0, 0
0, 0
0, 0
0, 0
0, 0
0, 0
0, 0
0, 0
0, 0
0, 0
0, 0
0, 0
0, 0
0, 0
0, 0
0, 0
0, 0
0, 0
0, 0
0, 0
0, 0
0, 0
0, 0
0, 0
0, 0
0, 0
0, 0
0, 0
0, 0
0, 0
0, 0
0, 0
0, 0
0, 0
0, 0
0, 0
0, 0
0, 0
0, 0
0, 0
0, 0
0, 0
0, 0
0, 0
0, 0
0, 0
0, 0
0, 0
0, 0
0, 0
0, 0
0, 0
0, 0
0, 0
0, 0
0, 0
0, 0
0, 0
0, 0
0, 0
0, 0
0, 0
0, 0
0, 0
0, 0
0, 0
0, 0
0, 0
0, 0
0, 0
0, 0
0, 0
0, 0
0, 0
0, 0
0, 0
0, 0
0, 0
0, 0
0, 0
0, 0
0, 0
0, 0
0, 0
0, 0
0, 0
0, 0
0, 0
0, 0
0, 0
0, 0
0, 0
0, 0
0, 0
0, 0
0, 0
0, 0
0, 0
0, 0
0, 0
0, 0
0, 0
0, 0
0, 0
0, 0
0, 0
0, 0
0, 0
0, 0
0, 0
0, 0
0, 0
0, 0
0, 0
0, 0
0, 0
0, 0
0, 0
0, 0
0, 0
0, 0
0, 0
0, 0
0, 0
0, 0
0, 0
0, 0
0, 0
0, 0
0, 0
0, 0
0, 0
0, 0
0, 0
0, 0
0, 0
0, 0
0, 0
0, 0
0, 0
0, 0
0, 0
0, 0
0, 0
0, 0
0, 0
0, 0
0, 0
0, 0
0, 0
0, 0
0, 0
0, 0
0, 0
0, 0
0, 0
0, 0
0, 0
0, 0
0, 0
0, 0
0, 0
0, 0
0, 0
0, 0
0, 0
0, 0
0, 0
0, 0
0, 0
0, 0
0, 0
0, 0
0, 0
0, 0
0, 0
0, 0
0, 0
0, 0
0, 0
0, 0
0, 0
0, 0
0, 0
0, 0
0, 0
0, 0
0, 0
0, 0
0, 0
0, 0
0, 0
0, 0
0, 0
0, 0
0, 0
0, 0
0, 0
0, 0
0, 0
0, 0
0, 0
0, 0
0, 0
0, 0
0, 0
0, 0
0, 0
0, 0
0, 0
0, 0
0, 0
0, 0
0, 0
0, 0
0, 0
0, 0
0, 0
0, 0
0, 0
0, 0
0, 0
0, 0
0, 0
0, 0
0, 0
0, 0
0, 0
0, 0
0, 0
0, 0
0, 0
0, 0
0, 0
0, 0
0, 0
0, 0
0, 0
0, 0
0, 0
0, 0
0, 0
0, 0
0, 0
0, 0
0, 0
0, 0
0, 0
0, 0
0, 0
0, 0
0, 0
0, 0
0, 0
0, 0
0, 0
0, 0
0, 0
0, 0
0, 0
0, 0
0, 0
0, 0
0, 0
0, 0
0, 0
0, 0
0, 0
0, 0
0, 0
0, 0
0, 0
0, 0
0, 0
0, 0
0, 0
0, 0
0, 0
0, 0
0, 0
0, 0
0, 0
0, 0
0, 0
0, 0
0, 0
0, 0
0, 0
0, 0
0, 0
0, 0
0, 0
0, 0
0, 0
0, 0
0, 0
0, 0
0, 0
0, 0
0, 0
0, 0
0, 0
0, 0
0, 0
0, 0
0, 0
0, 0
0, 0
0, 0
0, 0
0, 0
0, 0
0, 0
0, 0
0, 0
0, 0
0, 0
0, 0
0, 0
0, 0
0, 0
0, 0
0, 0
0, 0
0, 0
0, 0
0, 0
0, 0
0, 0
0, 0
0, 0
0, 0
0, 0
0, 0
0, 0
0, 0
0, 0
0, 0
0, 0
0, 0
0, 0
0, 0
0, 0
0, 0
0, 0
0, 0
0, 0
0, 0
0, 0
0, 0
0, 0
0, 0
0, 0
0, 0
0, 0
0, 0
0, 0
0, 0
0, 0
0, 0
0, 0
0, 0
0, 0
0, 0
0, 0
0, 0
0, 0
0, 0
0, 0
0, 0
0, 0
0, 0
0, 0
0, 0
0, 0
0, 0
0, 0
0, 0
0, 0
0, 0
0, 0
0, 0
0, 0
0, 0
0, 0
0, 0
0, 0
0, 0
0, 0
0, 0
0, 0
0, 0
0, 0
0, 0
0, 0
0, 0
0, 0
0, 0
0, 0
0, 0
0, 0
0, 0
0, 0
0, 0
0, 0
0, 0
0, 0
0, 0
0, 0
0, 0
0, 0
0, 0
0, 0
0, 0
0, 0
0, 0
0, 0
0, 0
0, 0
0, 0
0, 0
0, 0
0, 0
0, 0
0, 0
0, 0
0, 0
0, 0
0, 0
0, 0
0, 0
0, 0
0, 0
0, 0
0, 0
#ENDOFDATA     end of spectrum data