File: host_upload/12-01-2023/Dourbes (shot-by-shot)/upload_4/ps__0257_0689790785_000rfs_shot_3003.msa
#FORMAT      : EMSA/MAS spectral data file
#VERSION     : TC202v2.0 PIXL
#TITLE       : N/A
#DATE        :       Date in the format DD-MMM-YYYY, for example 07-JUL-2010
#TIME        :             The time of day at which the spectrum was recorded, in 24-hour format
#OWNER       : PIXL Flight Model       (PIXL will use this to indicate which instrument took the data.)
#NPOINTS     : 4096     Number of data points in the spectrum (This can be zero for configuration only files)
#NCOLUMNS    : 2     Number of data columns in the spectrum (This can be zero for configuration only files)
#XUNITS      : eV
#YUNITS      : COUNTS
#DATATYPE    : YY
#XPERCHAN    : 7.862, 7.881   eV per channel (separate by commas if more than one detector)
#OFFSET      : 18.5, -22.4         eV of first channel  (separate by commas if more than one detector
#SIGNALTYPE  : XRF
#YP_TEMP     : 3.005
#LIVETIME    : 9.12943, 9.1403   seconds (separate by commas if more than one detector)
#REALTIME    : 10, 10.0   seconds (separate by commas if more than one detector)
#SPECTRUM    : start of spectrum data
0, 0
0, 0
0, 0
0, 0
0, 0
0, 0
0, 0
0, 0
0, 0
0, 0
0, 0
0, 0
0, 0
0, 0
0, 0
0, 0
0, 0
0, 0
0, 0
0, 0
0, 0
0, 0
0, 0
0, 0
0, 0
0, 0
0, 0
0, 0
0, 0
0, 0
0, 0
0, 0
0, 0
1, 1
0, 0
2, 0
5, 1
2, 1
5, 3
9, 4
3, 4
10, 5
12, 3
4, 2
3, 3
2, 1
4, 1
4, 2
4, 3
4, 6
8, 5
13, 15
26, 31
33, 35
31, 37
37, 26
26, 30
20, 22
6, 14
7, 10
10, 11
18, 18
25, 40
33, 46
42, 39
38, 39
30, 31
20, 25
26, 22
40, 44
90, 102
222, 209
384, 412
569, 582
615, 667
628, 690
546, 590
378, 424
230, 264
131, 127
74, 87
37, 42
26, 32
30, 40
39, 45
50, 67
70, 66
56, 54
50, 53
19, 36
19, 21
14, 13
10, 7
14, 12
22, 19
34, 32
48, 45
71, 80
70, 92
79, 82
59, 65
61, 52
45, 36
18, 20
13, 16
14, 17
19, 14
38, 33
59, 63
100, 89
164, 128
260, 142
362, 171
435, 202
568, 147
528, 137
531, 104
383, 99
316, 90
187, 57
129, 64
72, 61
68, 45
48, 54
35, 28
17, 29
23, 22
11, 17
21, 20
18, 10
8, 5
16, 6
4, 4
8, 5
11, 9
5, 8
13, 16
26, 32
27, 52
55, 66
50, 85
82, 77
67, 82
72, 70
51, 48
28, 27
33, 18
26, 13
15, 6
18, 14
24, 22
53, 34
66, 63
92, 116
136, 192
190, 202
212, 310
211, 285
256, 244
186, 226
145, 144
96, 91
49, 52
24, 31
15, 19
11, 21
15, 15
18, 19
32, 26
28, 37
44, 41
38, 40
52, 32
25, 27
27, 21
17, 19
15, 8
6, 12
8, 14
10, 7
3, 8
6, 4
5, 13
9, 5
6, 3
13, 5
5, 8
15, 10
13, 17
26, 22
20, 29
43, 45
26, 32
38, 33
20, 43
29, 50
23, 31
17, 36
13, 31
15, 36
15, 19
10, 19
10, 13
10, 13
8, 10
11, 17
11, 11
14, 11
14, 12
11, 20
15, 18
12, 17
16, 10
17, 5
10, 14
11, 7
18, 4
23, 13
16, 11
23, 7
33, 6
23, 10
40, 8
34, 18
41, 14
20, 17
30, 8
33, 16
26, 16
30, 12
21, 12
12, 10
21, 13
11, 5
15, 8
10, 10
7, 14
13, 10
13, 13
8, 12
11, 9
6, 10
8, 9
11, 13
11, 12
13, 18
24, 26
27, 23
26, 39
35, 49
25, 42
23, 51
34, 34
36, 36
18, 32
27, 21
20, 25
12, 22
22, 18
17, 24
20, 20
16, 23
32, 32
39, 65
57, 129
143, 192
260, 357
446, 629
704, 939
1047, 1265
1350, 1605
1444, 1750
1640, 1815
1489, 1654
1337, 1301
1006, 1075
766, 702
464, 412
269, 242
144, 132
86, 75
49, 35
28, 26
26, 14
24, 17
24, 11
24, 7
40, 22
23, 18
37, 14
31, 27
38, 31
41, 45
49, 62
70, 115
98, 118
148, 195
192, 217
232, 284
253, 277
229, 272
262, 248
182, 215
136, 159
123, 123
67, 61
49, 58
21, 24
16, 13
7, 15
8, 14
8, 8
6, 9
4, 7
4, 11
6, 8
9, 6
10, 5
5, 7
5, 11
6, 3
10, 8
10, 6
7, 9
4, 7
4, 6
8, 10
4, 8
6, 6
6, 7
3, 7
9, 10
3, 6
4, 6
3, 4
5, 8
10, 5
7, 9
8, 10
6, 5
5, 4
6, 16
6, 14
6, 10
3, 19
9, 18
3, 14
5, 12
9, 11
4, 11
2, 7
14, 9
4, 8
6, 9
10, 7
4, 9
5, 10
8, 5
3, 7
3, 6
5, 7
4, 8
9, 2
7, 8
9, 5
6, 6
6, 4
6, 7
12, 8
5, 5
6, 10
10, 13
6, 6
6, 6
12, 2
6, 8
5, 10
10, 6
5, 5
4, 3
11, 8
5, 8
9, 7
8, 4
5, 8
4, 7
8, 12
3, 11
4, 6
9, 5
7, 3
4, 7
7, 6
3, 7
6, 10
6, 7
5, 11
6, 9
11, 6
4, 7
7, 8
6, 2
9, 5
4, 5
5, 7
8, 6
9, 8
11, 1
1, 1
8, 5
3, 6
3, 2
5, 2
9, 10
7, 5
5, 7
6, 4
5, 3
3, 2
4, 3
4, 2
2, 4
4, 4
2, 3
8, 4
1, 3
3, 3
1, 4
4, 5
4, 4
4, 4
6, 7
5, 2
7, 6
1, 7
5, 4
6, 7
3, 4
3, 5
5, 1
2, 4
3, 4
6, 3
4, 5
4, 5
5, 3
2, 3
5, 2
2, 3
5, 1
5, 6
8, 2
4, 2
4, 3
10, 5
3, 3
4, 1
10, 3
6, 3
4, 7
4, 5
6, 3
7, 2
6, 3
5, 3
3, 2
5, 3
1, 7
9, 0
1, 5
1, 4
4, 1
2, 6
3, 2
2, 3
2, 3
2, 3
3, 3
2, 6
3, 2
2, 3
2, 4
4, 2
7, 2
0, 3
4, 3
2, 3
3, 4
1, 5
2, 7
3, 2
3, 2
2, 2
4, 1
4, 1
4, 3
1, 1
2, 6
4, 2
2, 4
3, 4
1, 4
4, 4
1, 1
3, 2
2, 3
3, 2
1, 2
2, 2
5, 2
0, 1
0, 3
1, 5
0, 5
2, 2
5, 4
4, 4
3, 2
3, 3
2, 1
1, 2
0, 0
3, 2
0, 4
0, 1
0, 1
2, 3
5, 3
5, 5
2, 2
2, 3
2, 1
4, 1
0, 2
5, 5
1, 3
1, 2
3, 1
3, 2
4, 3
0, 4
6, 2
3, 1
5, 1
4, 2
6, 4
0, 1
2, 2
2, 2
1, 2
1, 1
2, 2
1, 3
2, 2
2, 4
2, 0
2, 2
6, 1
1, 2
1, 4
1, 0
2, 0
1, 1
3, 1
1, 1
2, 1
0, 0
0, 1
1, 1
1, 2
1, 4
2, 0
1, 2
2, 3
0, 0
1, 1
1, 3
2, 1
1, 2
3, 2
2, 1
2, 1
0, 1
1, 0
1, 3
4, 0
2, 0
0, 2
0, 1
0, 1
2, 0
3, 2
5, 1
3, 0
0, 2
0, 1
0, 1
0, 3
0, 0
3, 0
0, 2
0, 1
3, 1
1, 4
1, 0
0, 1
0, 2
1, 1
1, 1
1, 0
2, 0
1, 2
0, 1
0, 2
0, 1
0, 1
1, 0
2, 0
2, 0
0, 0
0, 0
1, 0
2, 0
1, 1
0, 0
2, 0
2, 0
1, 1
0, 0
1, 0
2, 1
0, 0
0, 1
1, 2
1, 0
0, 0
1, 3
0, 1
0, 3
0, 2
0, 0
1, 1
0, 3
1, 3
2, 0
1, 1
0, 1
0, 2
1, 0
0, 0
1, 2
0, 1
0, 1
3, 0
0, 1
0, 2
0, 0
1, 0
2, 0
0, 2
1, 2
1, 0
1, 0
0, 2
0, 1
1, 1
2, 3
2, 1
1, 1
0, 2
2, 0
1, 0
1, 1
1, 1
0, 1
0, 1
0, 0
0, 0
1, 0
0, 1
1, 0
0, 1
2, 2
1, 0
1, 0
0, 1
1, 1
0, 0
0, 0
0, 0
0, 0
2, 0
0, 0
1, 0
0, 0
0, 0
0, 1
0, 0
1, 0
0, 0
0, 0
1, 0
0, 0
0, 0
0, 0
0, 1
1, 0
0, 1
0, 0
1, 1
0, 1
0, 1
0, 0
0, 0
0, 0
1, 2
0, 1
0, 1
1, 1
2, 1
1, 1
0, 0
0, 1
0, 0
0, 0
2, 0
0, 0
0, 0
1, 0
1, 1
1, 0
0, 1
0, 1
0, 0
1, 0
1, 0
0, 0
0, 1
0, 1
0, 0
2, 0
1, 1
0, 0
1, 0
0, 2
0, 0
0, 0
0, 0
0, 1
0, 0
0, 0
1, 1
2, 0
2, 1
0, 0
0, 0
0, 0
0, 1
0, 3
0, 2
0, 0
1, 1
1, 0
0, 0
1, 0
1, 1
0, 0
0, 0
0, 1
0, 0
0, 0
0, 0
1, 0
0, 0
0, 0
1, 0
2, 0
0, 1
0, 0
0, 0
0, 0
0, 0
1, 0
0, 2
0, 0
0, 0
0, 0
0, 0
0, 0
0, 0
1, 0
0, 0
0, 0
1, 0
0, 1
0, 0
0, 0
0, 0
0, 1
1, 0
0, 0
0, 0
0, 0
0, 0
0, 0
0, 0
0, 0
0, 1
0, 0
0, 0
0, 0
0, 0
0, 1
1, 0
0, 0
0, 0
0, 0
1, 0
0, 0
0, 0
0, 0
0, 0
0, 0
0, 0
0, 0
0, 0
0, 0
0, 0
1, 0
0, 0
0, 0
0, 2
0, 0
0, 0
0, 0
0, 0
0, 0
0, 0
0, 0
0, 0
0, 0
2, 0
0, 1
1, 1
0, 0
0, 0
0, 0
0, 0
0, 1
0, 0
0, 0
0, 1
0, 0
0, 0
0, 0
0, 0
0, 0
0, 0
1, 1
0, 0
0, 0
0, 0
0, 0
0, 0
0, 0
0, 0
0, 0
0, 0
0, 0
0, 0
0, 0
1, 0
0, 0
0, 0
1, 0
0, 0
0, 0
0, 0
0, 0
0, 0
0, 0
0, 0
1, 1
0, 0
0, 0
0, 0
0, 0
0, 0
0, 0
0, 0
0, 0
0, 0
0, 0
0, 0
0, 0
1, 0
0, 0
1, 0
0, 0
0, 0
0, 0
0, 0
0, 0
0, 0
0, 0
0, 0
0, 0
0, 0
0, 1
0, 0
0, 0
0, 0
0, 0
0, 0
1, 0
0, 0
0, 0
0, 0
0, 0
0, 0
0, 0
0, 0
0, 0
0, 0
0, 0
0, 0
0, 0
0, 0
0, 0
0, 0
0, 0
0, 0
0, 0
0, 0
0, 0
0, 1
0, 0
0, 0
0, 0
0, 0
0, 0
0, 0
0, 0
0, 0
0, 0
0, 0
0, 0
0, 0
0, 0
0, 0
0, 0
0, 0
1, 0
0, 0
0, 0
0, 0
0, 0
0, 0
0, 0
0, 0
1, 0
0, 0
0, 0
0, 0
0, 0
0, 0
0, 0
0, 1
0, 0
0, 0
0, 0
0, 0
0, 0
0, 0
0, 0
0, 0
0, 0
0, 0
0, 0
0, 0
0, 0
0, 0
0, 0
0, 0
0, 0
0, 0
0, 0
0, 0
0, 0
0, 0
0, 0
0, 0
0, 0
0, 0
0, 0
0, 0
0, 0
0, 0
1, 0
0, 0
0, 0
0, 0
0, 0
0, 0
0, 0
0, 0
0, 0
0, 0
0, 0
0, 0
0, 0
0, 0
0, 0
0, 0
0, 0
0, 0
0, 0
0, 0
0, 0
0, 0
0, 0
0, 0
0, 0
0, 0
0, 0
0, 0
0, 0
0, 0
0, 0
0, 0
0, 0
0, 0
0, 0
0, 0
0, 0
0, 0
0, 0
0, 0
0, 0
0, 0
0, 0
0, 0
0, 0
0, 0
0, 0
0, 0
0, 0
0, 0
0, 0
0, 0
0, 0
0, 0
0, 0
0, 0
0, 0
0, 0
0, 0
0, 0
0, 0
0, 0
0, 0
0, 0
0, 0
0, 0
0, 0
0, 0
0, 0
0, 0
0, 0
0, 0
0, 0
0, 0
0, 0
0, 0
0, 0
0, 0
0, 0
0, 0
0, 0
0, 0
0, 0
0, 0
0, 0
0, 0
0, 0
0, 0
0, 0
0, 0
0, 0
0, 0
0, 0
0, 0
0, 0
0, 0
0, 0
0, 0
0, 0
0, 0
0, 0
0, 0
0, 0
0, 0
0, 0
0, 0
0, 0
0, 0
0, 0
0, 0
0, 0
0, 0
0, 0
0, 0
0, 0
0, 0
0, 0
0, 0
0, 0
0, 0
0, 0
0, 0
0, 0
0, 0
0, 0
0, 0
0, 0
0, 0
0, 0
0, 0
0, 0
0, 0
0, 0
0, 0
0, 0
0, 0
0, 0
0, 0
0, 0
0, 0
0, 0
0, 0
0, 0
0, 0
0, 0
0, 0
0, 0
0, 0
0, 0
0, 0
0, 0
0, 0
0, 0
0, 0
0, 0
0, 0
0, 0
0, 0
0, 0
0, 0
0, 0
0, 0
0, 0
0, 0
0, 0
0, 0
0, 0
0, 0
0, 0
0, 0
0, 0
0, 0
0, 0
0, 0
0, 0
0, 0
0, 0
0, 0
0, 0
0, 0
0, 0
0, 0
0, 0
0, 0
0, 0
0, 0
0, 0
0, 0
0, 0
0, 0
0, 0
0, 0
0, 0
0, 0
0, 0
0, 0
0, 0
0, 0
0, 0
0, 0
0, 0
0, 0
0, 0
0, 0
0, 0
0, 0
0, 0
0, 0
0, 0
0, 0
0, 0
0, 0
0, 0
0, 0
0, 0
0, 0
0, 0
0, 0
0, 0
0, 0
0, 0
0, 0
0, 0
0, 0
0, 0
0, 0
0, 0
0, 0
0, 0
0, 0
0, 0
0, 0
0, 0
0, 0
0, 0
0, 0
0, 0
0, 0
0, 0
0, 0
0, 0
0, 0
0, 0
0, 0
0, 0
0, 0
0, 0
0, 0
0, 0
0, 0
0, 0
0, 0
0, 0
0, 0
0, 0
0, 0
0, 0
0, 0
0, 0
0, 0
0, 0
0, 0
0, 0
0, 0
0, 0
0, 0
0, 0
0, 0
0, 0
0, 0
0, 0
0, 0
0, 0
0, 0
0, 0
0, 0
0, 0
0, 0
0, 0
0, 0
0, 0
0, 0
0, 0
0, 0
0, 0
0, 0
0, 0
0, 0
0, 0
0, 0
0, 0
0, 0
0, 0
0, 0
0, 0
0, 0
0, 0
0, 0
0, 0
0, 0
0, 0
0, 0
0, 0
0, 0
0, 0
0, 0
0, 0
0, 0
0, 0
0, 0
0, 0
0, 0
0, 0
0, 0
0, 0
0, 0
0, 0
0, 0
0, 0
0, 0
0, 0
0, 0
0, 0
0, 0
0, 0
0, 0
0, 0
0, 0
0, 0
0, 0
0, 0
0, 0
0, 0
0, 0
0, 0
0, 0
0, 0
0, 0
0, 0
0, 0
0, 0
0, 0
0, 0
0, 0
0, 0
0, 0
0, 0
0, 0
0, 0
0, 0
0, 0
0, 0
0, 0
0, 0
0, 0
0, 0
0, 0
0, 0
0, 0
0, 0
0, 0
0, 0
0, 0
0, 0
0, 0
0, 0
0, 0
0, 0
#ENDOFDATA     end of spectrum data