File: host_upload/12-01-2023/Dourbes (shot-by-shot)/upload_4/ps__0257_0689790785_000rfs_shot_3165.msa
#FORMAT      : EMSA/MAS spectral data file
#VERSION     : TC202v2.0 PIXL
#TITLE       : N/A
#DATE        :       Date in the format DD-MMM-YYYY, for example 07-JUL-2010
#TIME        :             The time of day at which the spectrum was recorded, in 24-hour format
#OWNER       : PIXL Flight Model       (PIXL will use this to indicate which instrument took the data.)
#NPOINTS     : 4096     Number of data points in the spectrum (This can be zero for configuration only files)
#NCOLUMNS    : 2     Number of data columns in the spectrum (This can be zero for configuration only files)
#XUNITS      : eV
#YUNITS      : COUNTS
#DATATYPE    : YY
#XPERCHAN    : 7.862, 7.881   eV per channel (separate by commas if more than one detector)
#OFFSET      : 18.5, -22.4         eV of first channel  (separate by commas if more than one detector
#SIGNALTYPE  : XRF
#YP_TEMP     : 2.973
#LIVETIME    : 9.00706, 9.00756   seconds (separate by commas if more than one detector)
#REALTIME    : 10, 10.0   seconds (separate by commas if more than one detector)
#SPECTRUM    : start of spectrum data
0, 0
0, 0
0, 0
0, 0
0, 0
0, 0
0, 0
0, 0
0, 0
0, 0
0, 0
0, 0
0, 0
0, 0
0, 0
0, 0
0, 0
0, 0
0, 0
0, 0
0, 0
0, 0
0, 0
0, 0
0, 0
0, 0
0, 0
0, 0
0, 0
0, 0
0, 0
0, 1
0, 0
0, 0
1, 0
0, 1
2, 0
0, 2
3, 0
3, 0
1, 0
2, 0
2, 1
2, 1
1, 0
2, 3
2, 4
3, 1
1, 0
9, 3
7, 6
14, 13
18, 14
29, 18
21, 18
27, 20
12, 16
12, 13
9, 6
11, 7
12, 8
23, 28
22, 36
37, 45
23, 43
32, 30
13, 30
14, 29
11, 20
32, 34
72, 74
165, 142
236, 256
356, 391
432, 442
412, 462
409, 412
219, 301
166, 189
107, 96
46, 43
29, 26
9, 7
4, 9
9, 3
2, 12
3, 6
6, 2
3, 3
3, 8
1, 0
0, 2
3, 1
3, 5
1, 2
3, 3
7, 5
6, 7
11, 9
7, 8
6, 6
9, 6
6, 19
2, 20
4, 23
6, 21
7, 30
8, 28
20, 25
27, 38
51, 50
65, 66
71, 60
82, 70
73, 64
70, 78
57, 60
43, 52
42, 41
37, 28
28, 29
22, 24
20, 22
23, 21
20, 19
16, 17
17, 19
7, 14
12, 5
11, 8
2, 8
6, 4
2, 8
6, 8
3, 6
7, 13
10, 11
6, 16
20, 24
33, 32
28, 33
27, 57
16, 54
25, 41
21, 28
14, 20
13, 9
4, 4
4, 9
3, 6
8, 5
11, 9
13, 15
12, 16
9, 18
18, 21
34, 34
32, 31
18, 36
25, 17
15, 19
12, 19
11, 18
9, 12
14, 20
16, 26
25, 30
16, 31
23, 23
18, 20
20, 17
24, 15
22, 13
14, 10
12, 6
9, 8
7, 10
4, 9
3, 5
4, 9
4, 12
5, 11
9, 13
10, 21
23, 29
52, 57
77, 102
169, 189
294, 369
433, 540
569, 688
662, 768
709, 809
687, 723
576, 570
382, 412
242, 265
173, 155
79, 91
47, 51
27, 23
32, 21
29, 19
24, 26
34, 34
53, 59
73, 78
109, 116
103, 127
116, 150
119, 155
132, 145
94, 117
88, 70
40, 48
30, 32
19, 18
16, 14
9, 10
8, 9
7, 15
17, 12
21, 23
31, 47
72, 83
147, 162
217, 254
360, 380
426, 482
532, 591
524, 629
524, 576
424, 483
374, 363
283, 231
165, 146
98, 72
64, 51
63, 26
58, 23
48, 22
52, 32
58, 27
75, 25
66, 35
58, 35
69, 59
58, 64
87, 90
100, 113
135, 119
116, 139
126, 119
112, 122
104, 111
85, 79
66, 59
44, 52
38, 29
29, 29
23, 25
23, 20
42, 42
70, 98
131, 187
243, 340
472, 639
778, 923
1218, 1500
1715, 2035
2153, 2593
2644, 2885
2737, 2962
2613, 2648
2264, 2131
1742, 1653
1199, 1043
781, 663
457, 373
232, 172
103, 103
59, 49
24, 22
14, 10
15, 19
12, 13
10, 15
12, 15
13, 22
20, 23
14, 27
17, 34
44, 63
62, 91
107, 142
141, 176
249, 258
267, 319
363, 389
386, 400
385, 423
383, 353
262, 284
250, 223
177, 143
106, 97
62, 64
35, 23
21, 14
14, 10
4, 3
10, 7
4, 5
6, 10
3, 3
7, 6
8, 8
11, 5
9, 4
6, 5
7, 4
6, 5
5, 6
3, 4
9, 3
6, 2
13, 6
5, 3
3, 5
3, 3
2, 4
4, 7
2, 12
2, 4
1, 7
3, 7
7, 4
4, 6
2, 5
4, 2
1, 7
3, 4
6, 7
8, 6
2, 1
9, 10
10, 5
4, 8
5, 7
6, 5
3, 7
5, 5
2, 7
3, 5
4, 3
3, 3
0, 4
2, 4
5, 4
1, 4
4, 10
5, 2
2, 3
5, 4
6, 8
8, 3
3, 5
4, 5
2, 2
5, 3
7, 1
6, 5
2, 5
8, 4
5, 2
8, 3
6, 2
2, 3
4, 4
6, 2
4, 6
2, 1
3, 2
3, 7
2, 2
3, 5
1, 6
2, 2
2, 6
1, 3
3, 3
3, 2
3, 4
5, 5
4, 1
1, 2
5, 2
3, 4
4, 3
4, 5
4, 3
3, 5
0, 5
6, 1
4, 3
4, 0
8, 2
2, 5
4, 3
2, 6
1, 2
2, 3
0, 4
1, 2
3, 4
1, 1
2, 4
2, 5
3, 6
2, 5
4, 9
0, 1
1, 4
4, 6
2, 5
4, 8
1, 2
4, 6
3, 6
5, 4
5, 3
3, 2
3, 3
3, 4
3, 4
7, 2
3, 2
7, 5
5, 2
1, 0
3, 3
4, 5
5, 2
3, 3
2, 3
4, 4
2, 2
2, 4
0, 4
1, 3
3, 4
1, 5
2, 4
1, 3
2, 5
2, 5
7, 3
2, 7
1, 4
2, 5
3, 4
3, 1
5, 2
4, 3
6, 5
2, 3
6, 2
1, 2
8, 2
5, 1
8, 1
4, 2
6, 1
2, 3
6, 2
4, 4
5, 2
5, 3
4, 5
1, 5
5, 3
3, 1
1, 6
2, 0
5, 7
0, 6
2, 2
2, 3
1, 4
1, 4
0, 3
0, 4
1, 0
5, 0
0, 5
3, 3
2, 2
3, 6
3, 0
2, 1
4, 1
4, 3
3, 2
2, 4
5, 0
1, 2
5, 4
1, 0
0, 2
0, 1
2, 4
1, 1
0, 1
0, 5
0, 1
1, 2
1, 0
1, 2
0, 0
0, 1
3, 3
1, 2
0, 1
0, 1
3, 3
2, 0
1, 4
3, 2
1, 5
1, 5
1, 2
1, 1
3, 2
0, 0
3, 1
1, 6
1, 3
2, 0
2, 4
3, 5
2, 5
1, 9
5, 5
5, 2
5, 3
2, 5
2, 2
6, 7
1, 0
3, 1
1, 0
0, 1
0, 2
0, 2
0, 1
1, 3
2, 1
1, 0
0, 1
1, 2
1, 3
1, 1
4, 2
1, 3
1, 0
0, 0
1, 1
0, 1
2, 0
1, 2
3, 0
3, 1
5, 2
2, 0
0, 2
0, 0
1, 1
0, 0
0, 0
1, 3
1, 1
1, 1
1, 1
2, 1
2, 0
1, 3
2, 1
1, 3
0, 0
1, 1
0, 0
1, 2
0, 1
0, 2
3, 1
1, 1
1, 1
0, 0
1, 1
2, 0
2, 1
0, 2
2, 1
1, 1
1, 1
3, 0
2, 0
0, 1
2, 1
0, 0
2, 1
1, 0
0, 0
0, 1
0, 2
0, 1
0, 0
1, 0
1, 3
0, 1
1, 1
1, 0
0, 2
0, 0
1, 2
0, 0
0, 0
0, 0
0, 1
0, 0
1, 1
2, 0
1, 0
0, 3
1, 0
1, 1
3, 0
0, 0
2, 1
0, 1
0, 1
0, 1
0, 2
0, 0
0, 0
2, 0
0, 0
0, 0
0, 2
1, 0
0, 1
3, 0
1, 0
1, 0
0, 0
0, 1
0, 2
0, 0
0, 0
0, 1
0, 1
0, 0
1, 1
1, 1
0, 1
0, 1
0, 0
0, 0
1, 0
0, 0
0, 1
0, 1
0, 3
0, 0
0, 0
0, 0
0, 0
0, 0
0, 3
0, 3
0, 0
0, 1
0, 0
2, 0
0, 0
0, 0
1, 0
0, 0
0, 0
0, 1
0, 0
0, 0
0, 0
1, 0
0, 1
0, 0
0, 0
0, 0
0, 0
0, 0
1, 0
1, 0
0, 0
0, 0
0, 0
0, 0
0, 1
0, 0
1, 0
1, 0
0, 0
0, 1
0, 0
0, 0
0, 0
0, 0
1, 1
0, 0
0, 0
0, 0
1, 0
0, 0
0, 0
1, 0
0, 3
1, 0
1, 0
0, 0
1, 0
0, 1
0, 1
0, 0
0, 0
0, 0
0, 0
0, 1
0, 1
0, 0
0, 1
1, 1
0, 0
0, 0
0, 0
0, 0
0, 0
0, 0
0, 0
1, 1
0, 0
0, 0
0, 0
1, 0
0, 0
0, 0
0, 1
0, 1
0, 0
0, 0
1, 0
0, 0
0, 0
0, 0
0, 1
0, 0
0, 0
0, 0
1, 0
0, 0
0, 0
0, 0
0, 0
0, 0
0, 0
0, 0
0, 0
0, 0
1, 1
0, 0
0, 0
1, 0
0, 0
0, 0
0, 1
0, 1
1, 0
0, 0
0, 1
0, 3
0, 0
0, 0
1, 1
0, 1
0, 1
0, 0
0, 1
0, 0
1, 0
0, 0
0, 0
1, 1
0, 0
0, 0
1, 0
1, 0
0, 0
0, 0
0, 0
0, 1
1, 0
1, 0
0, 0
0, 0
0, 1
0, 0
0, 0
0, 0
0, 1
0, 0
0, 1
0, 0
0, 0
0, 0
0, 0
0, 0
0, 0
0, 1
0, 0
0, 0
0, 1
0, 0
0, 1
0, 0
0, 0
0, 0
0, 0
0, 0
0, 0
0, 0
1, 0
0, 0
0, 0
0, 0
0, 0
1, 0
0, 0
0, 0
0, 0
0, 0
0, 0
0, 0
0, 1
0, 0
0, 0
0, 1
0, 0
0, 0
1, 1
0, 0
0, 0
0, 0
0, 0
0, 0
0, 0
0, 0
0, 0
0, 0
1, 0
0, 0
0, 0
0, 0
0, 0
0, 0
0, 0
0, 0
0, 0
0, 0
0, 0
0, 0
0, 0
0, 1
0, 0
0, 0
0, 0
0, 0
0, 0
0, 0
0, 0
0, 0
0, 0
0, 0
0, 0
0, 0
0, 0
0, 0
1, 0
0, 0
0, 0
0, 0
0, 0
0, 0
0, 0
0, 0
0, 0
0, 0
0, 0
0, 0
0, 0
0, 0
0, 0
0, 0
0, 0
0, 0
0, 0
0, 0
0, 0
0, 0
0, 0
0, 0
0, 0
0, 0
0, 0
0, 0
0, 0
0, 0
0, 0
0, 0
0, 0
0, 0
0, 0
0, 0
0, 0
0, 0
0, 0
0, 0
0, 0
0, 0
0, 0
0, 0
0, 0
0, 0
0, 0
0, 1
0, 0
0, 0
0, 0
0, 0
0, 0
0, 0
0, 0
0, 0
0, 0
0, 0
0, 0
0, 0
0, 0
0, 0
0, 0
0, 0
0, 0
0, 0
0, 0
0, 0
0, 0
0, 0
0, 0
0, 0
0, 0
0, 0
0, 0
0, 0
0, 0
0, 0
0, 0
0, 0
0, 0
0, 0
0, 0
0, 0
0, 0
0, 0
0, 0
0, 0
0, 0
0, 0
0, 0
0, 0
0, 0
0, 0
0, 0
0, 0
0, 0
0, 0
0, 0
0, 0
0, 0
0, 0
0, 0
0, 0
0, 0
0, 0
0, 0
0, 0
0, 0
0, 0
0, 0
0, 0
0, 0
0, 0
0, 0
0, 0
0, 0
0, 0
0, 0
0, 0
0, 0
0, 0
0, 0
0, 0
0, 0
0, 0
0, 0
0, 0
0, 0
0, 0
0, 0
0, 0
0, 0
0, 0
0, 0
0, 0
0, 0
0, 0
0, 0
0, 0
0, 0
0, 0
0, 0
0, 0
0, 0
0, 0
0, 0
0, 0
0, 0
0, 0
0, 0
0, 0
0, 0
0, 0
0, 0
0, 0
0, 0
0, 0
0, 0
0, 0
0, 0
0, 0
0, 0
0, 0
0, 0
0, 0
0, 0
0, 0
0, 0
0, 0
0, 0
0, 0
0, 0
0, 0
0, 0
0, 0
0, 0
0, 0
0, 0
0, 0
0, 0
0, 0
0, 0
0, 0
0, 0
0, 0
0, 0
0, 0
0, 0
0, 0
0, 0
0, 0
0, 0
0, 0
0, 0
0, 0
0, 0
0, 0
0, 0
0, 0
0, 0
0, 0
0, 0
0, 0
0, 0
0, 0
0, 0
0, 0
0, 0
0, 0
0, 0
0, 0
0, 0
0, 0
0, 0
0, 0
0, 0
0, 0
0, 0
0, 0
0, 0
0, 0
0, 0
0, 0
0, 0
0, 0
0, 0
0, 0
0, 0
0, 0
0, 0
0, 0
0, 0
0, 0
0, 0
0, 0
0, 0
0, 0
0, 0
0, 0
0, 0
0, 0
0, 0
0, 0
0, 0
0, 0
0, 0
0, 0
0, 0
0, 0
0, 0
0, 0
0, 0
0, 0
0, 0
0, 0
0, 0
0, 0
0, 0
0, 0
0, 0
0, 0
0, 0
0, 0
0, 0
0, 0
0, 0
0, 0
0, 0
0, 0
0, 0
0, 0
0, 0
0, 0
0, 0
0, 0
0, 0
0, 0
0, 0
0, 0
0, 0
0, 0
0, 0
0, 0
0, 0
0, 0
0, 0
0, 0
0, 0
0, 0
0, 0
0, 0
0, 0
0, 0
0, 0
0, 0
0, 0
0, 0
0, 0
0, 0
0, 0
0, 0
0, 0
0, 0
0, 0
0, 0
0, 0
0, 0
0, 0
0, 0
0, 0
0, 0
0, 0
0, 0
0, 0
0, 0
0, 0
0, 0
0, 0
0, 0
0, 0
0, 0
0, 0
0, 0
0, 0
0, 0
0, 0
0, 0
0, 0
0, 0
0, 0
0, 0
0, 0
0, 0
0, 0
0, 0
0, 0
0, 0
0, 0
0, 0
0, 0
0, 0
0, 0
0, 0
0, 0
0, 0
0, 0
0, 0
0, 0
0, 0
0, 0
0, 0
0, 0
0, 0
0, 0
0, 0
0, 0
0, 0
0, 0
0, 0
0, 0
0, 0
0, 0
0, 0
0, 0
0, 0
0, 0
0, 0
0, 0
0, 0
0, 0
0, 0
0, 0
0, 0
0, 0
0, 0
0, 0
0, 0
0, 0
0, 0
0, 0
0, 0
0, 0
0, 0
0, 0
0, 0
0, 0
0, 0
0, 0
0, 0
0, 0
0, 0
0, 0
0, 0
0, 0
0, 0
0, 0
0, 0
0, 0
0, 0
0, 0
0, 0
0, 0
0, 0
0, 0
0, 0
0, 0
0, 0
0, 0
0, 0
0, 0
0, 0
0, 0
0, 0
0, 0
0, 0
0, 0
0, 0
0, 0
0, 0
0, 0
0, 0
0, 0
0, 0
0, 0
0, 0
0, 0
0, 0
0, 0
0, 0
0, 0
0, 0
0, 0
0, 0
0, 0
0, 0
0, 0
0, 0
0, 0
0, 0
0, 0
0, 0
0, 0
0, 0
0, 0
0, 0
0, 0
0, 0
0, 0
0, 0
0, 0
0, 0
0, 0
0, 0
0, 0
0, 0
0, 0
0, 0
0, 0
0, 0
0, 0
0, 0
0, 0
0, 0
0, 0
0, 0
0, 0
0, 0
0, 0
0, 0
0, 0
0, 0
#ENDOFDATA     end of spectrum data