File: host_upload/12-01-2023/Dourbes (shot-by-shot)/upload_4/ps__0257_0689790785_000rfs_shot_3234.msa
#FORMAT      : EMSA/MAS spectral data file
#VERSION     : TC202v2.0 PIXL
#TITLE       : N/A
#DATE        :       Date in the format DD-MMM-YYYY, for example 07-JUL-2010
#TIME        :             The time of day at which the spectrum was recorded, in 24-hour format
#OWNER       : PIXL Flight Model       (PIXL will use this to indicate which instrument took the data.)
#NPOINTS     : 4096     Number of data points in the spectrum (This can be zero for configuration only files)
#NCOLUMNS    : 2     Number of data columns in the spectrum (This can be zero for configuration only files)
#XUNITS      : eV
#YUNITS      : COUNTS
#DATATYPE    : YY
#XPERCHAN    : 7.862, 7.881   eV per channel (separate by commas if more than one detector)
#OFFSET      : 18.5, -22.4         eV of first channel  (separate by commas if more than one detector
#SIGNALTYPE  : XRF
#YP_TEMP     : 2.941
#LIVETIME    : 9.11689, 9.12852   seconds (separate by commas if more than one detector)
#REALTIME    : 10, 10.0   seconds (separate by commas if more than one detector)
#SPECTRUM    : start of spectrum data
0, 0
0, 0
0, 0
0, 0
0, 0
0, 0
0, 0
0, 0
0, 0
0, 0
0, 0
0, 0
0, 0
0, 0
0, 0
0, 0
0, 0
0, 0
0, 0
0, 0
0, 0
0, 0
0, 0
0, 0
0, 0
0, 0
0, 0
0, 0
0, 0
0, 0
0, 0
0, 0
0, 0
0, 0
2, 0
3, 1
2, 2
2, 1
3, 4
5, 7
4, 4
1, 5
4, 6
5, 1
2, 2
4, 1
3, 3
5, 3
4, 4
6, 9
11, 8
27, 18
27, 23
49, 40
39, 45
28, 38
28, 22
22, 20
12, 16
10, 10
6, 5
8, 9
9, 5
20, 21
26, 18
12, 15
10, 13
13, 9
14, 8
46, 30
81, 53
171, 154
299, 299
467, 416
513, 503
573, 539
436, 449
306, 298
183, 175
107, 101
70, 56
25, 33
13, 14
6, 6
8, 7
6, 6
9, 9
6, 6
9, 8
5, 4
2, 3
5, 6
4, 3
3, 11
5, 14
9, 15
17, 20
27, 28
34, 25
32, 25
26, 21
21, 20
20, 9
12, 12
8, 8
13, 15
17, 32
37, 43
66, 70
108, 137
155, 166
226, 199
254, 251
252, 261
242, 243
228, 219
177, 157
131, 122
105, 119
72, 62
71, 93
71, 65
55, 48
45, 44
41, 41
44, 43
32, 29
25, 29
20, 26
18, 17
12, 15
11, 12
5, 16
9, 5
9, 3
7, 4
5, 8
7, 12
12, 12
15, 19
28, 17
21, 18
15, 26
17, 10
17, 9
9, 8
12, 8
4, 6
1, 4
5, 2
7, 13
10, 11
28, 24
26, 24
28, 46
45, 57
67, 63
74, 70
56, 71
49, 60
41, 45
31, 23
15, 14
7, 9
6, 8
8, 6
9, 6
10, 6
7, 8
15, 13
14, 12
16, 12
14, 13
13, 12
12, 14
9, 8
16, 9
16, 14
10, 8
8, 8
11, 5
18, 14
10, 7
13, 5
14, 5
3, 10
6, 3
12, 12
11, 14
17, 10
12, 13
18, 6
17, 17
20, 16
26, 21
22, 20
24, 23
12, 18
15, 18
20, 25
28, 18
12, 13
14, 14
17, 13
12, 6
10, 15
13, 14
15, 16
11, 15
12, 18
15, 15
18, 14
14, 12
11, 11
12, 9
13, 8
11, 12
6, 14
13, 10
17, 7
11, 12
13, 16
8, 14
13, 20
12, 21
11, 17
17, 14
19, 12
13, 16
13, 11
16, 20
17, 18
7, 11
8, 17
10, 15
11, 10
15, 13
13, 7
14, 10
16, 11
10, 12
15, 13
22, 17
25, 15
31, 24
27, 25
32, 24
44, 31
42, 41
54, 56
57, 43
53, 46
48, 44
40, 52
37, 28
29, 20
22, 20
30, 24
16, 16
15, 24
27, 18
17, 26
43, 39
54, 79
106, 125
211, 243
378, 466
635, 713
1013, 1108
1430, 1637
1801, 1970
2044, 2115
2225, 2239
2216, 2021
1874, 1672
1412, 1168
993, 808
619, 492
376, 273
212, 126
86, 70
53, 27
28, 31
29, 19
17, 23
22, 21
16, 12
16, 34
23, 21
20, 23
24, 32
35, 41
42, 47
71, 76
97, 109
119, 151
183, 216
261, 254
253, 312
307, 334
337, 326
282, 278
283, 268
204, 168
133, 119
99, 75
48, 31
36, 25
19, 15
14, 14
12, 5
6, 8
5, 8
8, 8
6, 7
13, 13
8, 9
9, 7
9, 10
13, 5
9, 11
6, 16
6, 3
8, 10
8, 5
3, 9
8, 9
9, 12
8, 5
6, 5
6, 2
2, 7
5, 4
5, 8
7, 5
4, 5
5, 6
10, 9
9, 10
10, 10
5, 7
5, 7
8, 7
5, 5
12, 13
6, 5
9, 12
12, 7
7, 4
6, 5
10, 7
12, 0
8, 6
10, 7
8, 17
5, 3
8, 11
7, 7
10, 9
15, 7
8, 10
8, 5
12, 8
9, 13
9, 10
10, 10
9, 5
9, 9
4, 11
7, 6
7, 11
6, 8
10, 8
11, 3
9, 9
11, 3
8, 3
8, 5
7, 6
5, 6
8, 6
7, 7
6, 5
6, 6
6, 4
9, 8
7, 7
5, 6
4, 7
6, 6
5, 6
4, 10
2, 1
3, 4
5, 8
4, 7
6, 4
2, 4
6, 6
8, 5
7, 3
5, 6
4, 11
4, 8
8, 5
4, 5
8, 4
6, 5
6, 3
4, 9
9, 8
7, 4
6, 4
8, 3
5, 5
10, 4
6, 7
3, 5
4, 7
3, 1
4, 6
3, 10
5, 7
5, 3
5, 3
9, 7
3, 9
2, 8
6, 9
8, 7
3, 3
3, 3
6, 7
6, 7
4, 5
8, 9
4, 2
3, 5
2, 3
5, 2
11, 2
7, 1
6, 0
9, 3
4, 4
3, 5
3, 3
4, 5
7, 1
6, 1
6, 4
3, 4
4, 6
3, 4
4, 2
4, 2
3, 2
9, 3
5, 5
5, 0
3, 1
2, 8
4, 2
2, 5
1, 4
2, 5
3, 7
5, 3
3, 4
2, 5
2, 1
5, 10
3, 3
4, 6
1, 4
2, 2
4, 3
10, 1
1, 4
2, 4
2, 1
4, 5
9, 4
1, 4
0, 6
2, 3
1, 2
4, 5
1, 3
3, 3
2, 3
2, 2
5, 3
2, 2
6, 6
0, 4
3, 2
4, 2
3, 2
14, 5
0, 1
5, 4
2, 6
0, 4
2, 1
3, 0
5, 3
2, 4
1, 2
1, 2
2, 1
3, 1
3, 4
2, 2
3, 2
0, 3
4, 2
2, 4
5, 2
4, 1
1, 3
1, 3
2, 0
4, 3
2, 7
2, 1
1, 4
2, 0
2, 1
2, 2
6, 0
1, 2
3, 2
0, 3
1, 0
4, 1
4, 3
2, 4
7, 2
1, 5
1, 4
4, 3
4, 5
2, 0
1, 3
5, 1
4, 5
4, 1
1, 1
4, 1
1, 2
3, 3
4, 2
4, 1
3, 3
2, 3
2, 0
0, 2
1, 1
4, 2
0, 1
0, 1
0, 0
1, 0
3, 1
2, 2
0, 2
1, 6
2, 1
0, 3
2, 5
2, 2
1, 3
3, 1
1, 0
0, 2
2, 1
1, 0
2, 0
1, 0
4, 4
0, 2
0, 1
0, 1
0, 2
1, 2
2, 1
1, 1
0, 2
1, 2
0, 0
1, 0
1, 1
1, 0
0, 1
0, 1
2, 3
1, 1
1, 4
0, 4
1, 1
2, 0
0, 2
0, 1
1, 1
1, 1
0, 2
0, 0
1, 0
2, 1
1, 1
0, 0
1, 2
0, 2
1, 0
2, 1
0, 0
1, 4
1, 1
1, 1
4, 0
0, 0
0, 0
0, 1
4, 1
0, 1
0, 4
1, 0
0, 1
1, 1
0, 0
0, 3
1, 1
0, 3
0, 1
1, 1
2, 0
1, 2
2, 0
1, 0
0, 1
1, 1
0, 1
1, 0
0, 1
1, 3
0, 1
0, 1
0, 1
1, 0
0, 0
1, 1
0, 0
1, 0
1, 0
0, 2
0, 2
1, 2
2, 0
1, 0
0, 1
1, 0
2, 0
0, 0
0, 2
1, 3
1, 1
0, 1
0, 1
0, 1
1, 2
1, 0
1, 1
0, 1
0, 0
1, 0
0, 0
2, 0
2, 0
0, 0
0, 0
1, 0
0, 0
0, 0
1, 0
0, 0
1, 2
1, 0
0, 1
1, 0
0, 0
1, 0
1, 0
0, 0
1, 1
1, 0
0, 0
1, 0
1, 0
0, 0
0, 0
0, 0
1, 0
1, 1
0, 1
1, 4
0, 2
0, 0
1, 0
0, 0
0, 0
1, 1
1, 1
0, 0
0, 1
0, 0
0, 0
0, 1
0, 0
0, 1
1, 0
1, 1
0, 0
0, 0
1, 2
0, 1
0, 1
1, 0
0, 1
0, 1
0, 0
0, 0
0, 1
0, 0
1, 0
1, 1
0, 0
2, 0
0, 0
0, 1
0, 0
0, 2
0, 0
0, 0
0, 0
0, 0
1, 0
0, 0
0, 1
0, 0
1, 1
1, 1
0, 1
0, 0
0, 0
0, 1
0, 0
0, 0
0, 0
0, 0
0, 1
0, 0
0, 0
0, 1
0, 2
0, 0
0, 1
0, 0
0, 0
0, 1
0, 0
0, 0
0, 0
0, 0
0, 0
0, 1
0, 0
0, 0
1, 0
0, 0
0, 0
0, 1
0, 0
0, 0
1, 0
0, 0
0, 0
0, 1
0, 0
0, 0
0, 0
1, 0
0, 0
0, 0
0, 0
1, 1
1, 0
0, 0
0, 1
0, 0
0, 0
0, 0
0, 0
1, 1
0, 0
0, 0
0, 0
0, 0
0, 0
0, 0
0, 0
1, 0
0, 0
0, 0
0, 0
0, 0
1, 0
0, 1
0, 0
1, 0
0, 0
0, 0
0, 0
0, 0
0, 0
0, 0
0, 0
0, 0
0, 0
1, 0
1, 1
0, 0
0, 0
0, 0
0, 1
0, 0
0, 0
0, 0
0, 0
0, 0
0, 0
0, 0
0, 0
0, 0
0, 0
0, 0
0, 0
0, 0
0, 0
0, 1
1, 0
0, 1
0, 1
0, 0
0, 0
0, 0
1, 0
0, 0
0, 0
0, 0
0, 0
0, 0
0, 0
0, 0
0, 1
0, 0
0, 0
0, 0
0, 0
0, 1
0, 0
0, 0
0, 0
1, 0
0, 0
0, 0
0, 0
0, 0
0, 0
0, 0
0, 0
0, 0
0, 0
0, 0
0, 0
0, 0
0, 0
0, 0
0, 0
0, 0
0, 0
0, 0
0, 0
0, 1
0, 0
0, 0
0, 0
0, 0
0, 0
0, 0
0, 0
0, 0
1, 0
0, 0
0, 0
0, 0
0, 0
0, 0
0, 0
0, 0
0, 0
0, 0
0, 0
0, 0
0, 0
0, 0
1, 0
0, 0
0, 0
0, 0
0, 0
0, 0
0, 0
0, 0
0, 0
0, 0
0, 0
0, 0
0, 0
0, 0
0, 0
0, 0
0, 0
0, 0
0, 0
0, 0
0, 1
0, 0
0, 0
0, 0
0, 0
0, 0
0, 0
0, 0
0, 0
0, 0
0, 0
0, 0
0, 0
0, 0
0, 0
0, 0
0, 0
0, 0
0, 0
0, 0
0, 0
0, 0
0, 0
0, 0
0, 0
0, 0
0, 0
0, 0
0, 0
0, 0
0, 0
0, 0
0, 0
0, 0
0, 0
0, 0
0, 0
0, 0
0, 0
0, 0
0, 0
0, 0
0, 0
0, 0
0, 0
0, 0
0, 0
0, 0
0, 0
0, 0
0, 0
0, 0
0, 0
0, 0
0, 0
0, 0
0, 0
0, 0
0, 0
0, 0
0, 0
0, 0
0, 0
0, 0
0, 0
0, 0
0, 0
0, 0
0, 0
0, 0
0, 0
0, 0
0, 0
0, 0
0, 0
0, 0
0, 0
0, 0
0, 0
1, 0
0, 0
0, 0
0, 0
0, 0
0, 0
0, 0
0, 0
0, 0
0, 0
0, 0
0, 0
0, 0
0, 0
0, 0
0, 0
0, 0
0, 0
0, 0
0, 0
0, 0
0, 0
0, 0
0, 0
0, 0
0, 0
0, 0
0, 0
0, 0
0, 0
0, 0
0, 0
0, 0
1, 0
0, 0
0, 0
0, 0
0, 0
0, 0
0, 0
0, 0
0, 0
0, 0
0, 0
0, 0
0, 0
0, 0
0, 0
0, 0
0, 0
0, 0
0, 0
0, 0
0, 0
0, 0
0, 0
0, 0
0, 0
0, 0
0, 0
0, 0
0, 0
0, 0
0, 0
0, 0
0, 0
0, 0
0, 0
0, 0
0, 0
0, 0
0, 0
0, 0
0, 0
0, 0
0, 0
0, 0
0, 0
1, 0
0, 0
0, 0
0, 0
0, 0
0, 0
0, 0
0, 0
0, 0
0, 0
0, 0
0, 0
0, 0
0, 0
0, 0
0, 0
0, 0
0, 0
0, 0
0, 0
0, 0
0, 0
0, 0
0, 0
0, 0
0, 0
0, 0
0, 0
0, 0
0, 0
0, 0
0, 0
0, 0
0, 0
0, 0
0, 0
0, 0
0, 0
0, 0
0, 0
0, 0
0, 0
0, 0
0, 0
0, 0
0, 0
0, 0
0, 0
0, 0
0, 0
0, 0
0, 0
0, 0
0, 0
0, 0
0, 0
0, 0
0, 0
0, 0
0, 0
0, 0
0, 0
0, 0
0, 0
0, 0
0, 0
0, 0
0, 0
0, 0
0, 0
0, 0
0, 0
0, 0
0, 0
0, 0
0, 0
0, 0
0, 0
0, 0
0, 0
0, 0
0, 0
0, 0
0, 0
0, 0
0, 0
0, 0
0, 0
0, 0
0, 0
0, 0
0, 0
0, 0
0, 0
0, 0
0, 0
0, 0
0, 0
0, 0
0, 0
0, 0
0, 0
0, 0
0, 0
0, 0
0, 0
0, 0
0, 0
0, 0
0, 0
0, 0
0, 0
0, 0
0, 0
0, 0
0, 0
0, 0
0, 0
0, 0
0, 0
0, 0
0, 0
0, 0
0, 0
0, 0
0, 0
0, 0
0, 0
0, 0
0, 0
0, 0
0, 0
0, 0
0, 0
0, 0
0, 0
0, 0
0, 0
0, 0
0, 0
0, 0
0, 0
0, 0
0, 0
0, 0
0, 0
0, 0
0, 0
0, 0
0, 0
0, 0
0, 0
0, 0
0, 0
0, 0
0, 0
0, 0
0, 0
0, 0
0, 0
0, 0
0, 0
0, 0
0, 0
0, 0
0, 0
0, 0
0, 0
0, 0
0, 0
0, 0
0, 0
0, 0
0, 0
0, 0
0, 0
0, 0
0, 0
0, 0
0, 0
0, 0
0, 0
0, 0
0, 0
0, 0
0, 0
0, 0
0, 0
0, 0
0, 0
0, 0
0, 0
0, 0
0, 0
0, 0
0, 0
0, 0
0, 0
0, 0
0, 0
0, 0
0, 0
0, 0
0, 0
0, 0
0, 0
0, 0
0, 0
0, 0
0, 0
0, 0
0, 0
0, 0
0, 0
0, 0
0, 0
0, 0
0, 0
0, 0
0, 0
0, 0
0, 0
0, 0
0, 0
0, 0
0, 0
0, 0
0, 0
0, 0
0, 0
0, 0
0, 0
0, 0
0, 0
0, 0
0, 0
0, 0
0, 0
0, 0
0, 0
0, 0
0, 0
0, 0
0, 0
0, 0
0, 0
0, 0
0, 0
0, 0
0, 0
0, 0
0, 0
0, 0
0, 0
0, 0
0, 0
0, 0
0, 0
0, 0
0, 0
0, 0
0, 0
0, 0
0, 0
0, 0
0, 0
0, 0
0, 0
0, 0
0, 0
0, 0
0, 0
0, 0
#ENDOFDATA     end of spectrum data