File: host_upload/12-01-2023/Dourbes (shot-by-shot)/upload_4/ps__0257_0689790785_000rfs_shot_3318.msa
#FORMAT      : EMSA/MAS spectral data file
#VERSION     : TC202v2.0 PIXL
#TITLE       : N/A
#DATE        :       Date in the format DD-MMM-YYYY, for example 07-JUL-2010
#TIME        :             The time of day at which the spectrum was recorded, in 24-hour format
#OWNER       : PIXL Flight Model       (PIXL will use this to indicate which instrument took the data.)
#NPOINTS     : 4096     Number of data points in the spectrum (This can be zero for configuration only files)
#NCOLUMNS    : 2     Number of data columns in the spectrum (This can be zero for configuration only files)
#XUNITS      : eV
#YUNITS      : COUNTS
#DATATYPE    : YY
#XPERCHAN    : 7.862, 7.881   eV per channel (separate by commas if more than one detector)
#OFFSET      : 18.5, -22.4         eV of first channel  (separate by commas if more than one detector
#SIGNALTYPE  : XRF
#YP_TEMP     : 3.133
#LIVETIME    : 9.14228, 9.13229   seconds (separate by commas if more than one detector)
#REALTIME    : 10, 10.0   seconds (separate by commas if more than one detector)
#SPECTRUM    : start of spectrum data
0, 0
0, 0
0, 0
0, 0
0, 0
0, 0
0, 0
0, 0
0, 0
0, 0
0, 0
0, 0
0, 0
0, 0
0, 0
0, 0
0, 0
0, 0
0, 0
0, 0
0, 0
0, 0
0, 0
0, 0
0, 0
0, 0
0, 0
0, 0
0, 0
0, 0
0, 0
0, 0
0, 0
0, 0
0, 0
0, 0
0, 2
0, 0
2, 1
1, 2
0, 2
0, 3
1, 1
2, 3
3, 4
4, 0
1, 5
1, 2
2, 1
5, 4
13, 12
16, 18
31, 41
48, 49
60, 66
33, 52
30, 36
21, 12
16, 10
2, 7
6, 7
9, 6
10, 4
12, 15
12, 11
13, 11
10, 8
12, 8
18, 25
52, 48
130, 107
249, 245
481, 479
650, 677
811, 885
775, 859
697, 699
485, 508
295, 315
178, 179
88, 89
45, 45
29, 38
18, 21
18, 17
10, 16
9, 12
6, 6
6, 3
5, 7
0, 2
2, 1
3, 1
1, 2
2, 3
5, 5
6, 6
11, 5
12, 7
11, 7
7, 9
12, 5
5, 3
3, 7
1, 5
5, 6
8, 7
8, 4
13, 9
21, 20
8, 23
31, 35
39, 36
34, 39
47, 51
43, 46
45, 45
41, 38
31, 29
21, 22
27, 15
25, 25
23, 22
21, 17
15, 23
18, 12
11, 20
11, 5
13, 11
4, 9
4, 10
2, 6
1, 2
6, 5
4, 7
3, 4
6, 3
5, 3
6, 8
4, 4
4, 9
3, 2
6, 3
5, 6
1, 4
7, 9
4, 3
4, 1
10, 2
20, 24
50, 46
91, 110
193, 188
347, 393
572, 614
854, 859
973, 1073
1056, 1160
962, 1155
863, 833
588, 626
403, 365
225, 198
105, 97
60, 51
35, 42
40, 34
69, 68
85, 104
133, 144
155, 157
147, 158
124, 143
114, 93
93, 70
53, 51
18, 27
19, 13
12, 6
3, 2
1, 4
3, 1
2, 3
5, 4
3, 2
5, 6
5, 5
14, 15
12, 15
22, 29
44, 34
35, 39
27, 36
26, 32
19, 25
13, 27
15, 21
16, 16
7, 10
9, 6
12, 7
6, 3
7, 4
7, 6
7, 6
3, 10
5, 9
8, 10
11, 4
11, 9
13, 11
8, 15
7, 7
5, 11
8, 7
3, 5
8, 7
2, 1
1, 2
2, 5
5, 10
1, 4
5, 13
5, 10
7, 15
13, 17
21, 26
24, 36
33, 46
34, 50
45, 50
44, 44
39, 25
27, 45
25, 30
21, 23
11, 18
4, 6
11, 7
5, 3
4, 4
2, 5
9, 12
8, 9
7, 13
14, 10
17, 36
21, 28
37, 38
42, 58
46, 66
50, 44
43, 50
55, 48
31, 52
28, 31
20, 20
19, 16
12, 14
10, 15
10, 23
12, 10
24, 21
37, 43
65, 80
129, 145
241, 288
406, 441
611, 741
856, 1022
1168, 1274
1315, 1378
1317, 1351
1271, 1246
1101, 1016
838, 739
572, 529
380, 312
220, 159
133, 78
69, 38
50, 20
25, 12
18, 8
6, 12
14, 16
10, 14
10, 4
10, 9
11, 22
15, 12
25, 22
27, 32
33, 46
46, 70
98, 90
130, 148
141, 166
183, 214
223, 222
210, 253
213, 179
164, 163
123, 115
84, 80
64, 48
37, 31
18, 14
16, 18
13, 5
20, 10
16, 4
20, 5
30, 2
27, 6
28, 4
35, 4
35, 8
26, 7
23, 8
24, 8
21, 3
17, 5
8, 7
12, 5
4, 6
9, 4
7, 4
8, 6
4, 5
7, 4
4, 4
3, 10
4, 4
3, 2
4, 3
5, 2
2, 11
8, 7
9, 4
3, 6
4, 2
10, 5
6, 5
11, 6
7, 6
4, 4
8, 4
4, 4
5, 5
6, 6
7, 5
6, 11
8, 6
4, 8
3, 11
2, 12
4, 11
3, 9
3, 14
7, 10
3, 16
4, 12
6, 7
4, 6
4, 7
4, 7
6, 3
8, 6
3, 4
4, 5
7, 3
2, 5
5, 4
3, 2
11, 4
9, 6
4, 5
3, 11
2, 6
5, 4
3, 5
3, 2
3, 5
4, 7
6, 2
5, 4
8, 8
4, 3
5, 4
4, 8
2, 6
5, 9
8, 8
7, 14
3, 10
3, 10
5, 7
3, 9
4, 7
6, 6
1, 3
4, 9
2, 6
0, 4
4, 5
5, 10
3, 4
1, 5
8, 13
3, 16
4, 11
3, 12
3, 11
3, 10
8, 12
2, 11
7, 11
3, 5
2, 4
5, 4
7, 5
4, 6
6, 7
8, 1
2, 0
7, 7
8, 4
7, 6
7, 0
11, 7
8, 5
3, 4
3, 5
5, 5
7, 2
4, 2
4, 0
5, 2
3, 6
9, 2
4, 2
4, 2
3, 4
2, 1
2, 6
6, 4
3, 3
3, 4
2, 3
2, 3
1, 3
4, 2
2, 1
6, 6
1, 2
3, 2
4, 5
4, 5
1, 4
7, 3
2, 3
2, 4
3, 2
4, 2
9, 3
11, 2
3, 3
7, 4
1, 4
3, 4
7, 1
4, 0
3, 2
0, 3
2, 1
5, 5
3, 2
1, 4
2, 4
1, 5
1, 2
2, 4
1, 4
2, 2
0, 4
1, 5
3, 2
3, 8
1, 5
1, 2
2, 5
1, 2
2, 3
3, 3
2, 3
1, 4
4, 11
2, 2
6, 2
1, 3
0, 3
1, 4
4, 4
4, 2
4, 2
4, 2
1, 2
2, 4
3, 3
4, 2
7, 1
6, 4
6, 4
6, 2
2, 5
6, 2
4, 1
2, 1
5, 2
1, 1
5, 2
2, 4
2, 2
3, 0
1, 3
1, 1
2, 1
2, 1
2, 1
2, 1
1, 1
3, 3
4, 0
2, 2
2, 4
3, 1
3, 0
3, 1
3, 1
4, 2
3, 3
2, 1
0, 2
3, 1
4, 2
3, 1
4, 1
4, 2
2, 2
1, 1
1, 1
2, 2
2, 0
0, 1
2, 3
4, 1
0, 2
0, 2
1, 2
3, 1
0, 2
0, 3
5, 1
2, 3
1, 3
1, 2
0, 1
2, 2
1, 3
1, 1
2, 3
0, 0
4, 3
1, 3
0, 0
1, 1
0, 5
2, 1
3, 4
3, 1
1, 1
2, 2
1, 1
1, 0
1, 3
0, 1
1, 0
1, 1
1, 0
3, 0
1, 1
0, 1
3, 0
2, 2
1, 2
2, 4
2, 1
0, 1
0, 1
0, 1
0, 1
1, 5
1, 3
1, 2
1, 0
2, 0
1, 2
2, 2
0, 0
1, 1
1, 0
0, 1
0, 3
0, 0
2, 1
1, 2
0, 2
1, 1
3, 0
0, 1
4, 0
0, 1
2, 0
1, 0
3, 1
1, 1
1, 0
0, 1
2, 0
2, 1
1, 0
2, 0
0, 0
0, 1
1, 1
0, 0
0, 0
1, 0
1, 0
0, 1
0, 0
2, 3
1, 0
2, 1
1, 0
1, 1
0, 1
0, 0
1, 2
0, 2
1, 0
0, 0
0, 1
0, 0
0, 1
0, 0
1, 1
2, 0
0, 3
0, 0
1, 1
1, 2
1, 0
0, 0
0, 0
1, 0
2, 1
3, 1
1, 0
0, 0
0, 0
1, 1
0, 1
0, 1
0, 0
0, 0
0, 0
1, 1
0, 1
0, 3
0, 0
1, 0
1, 2
0, 1
1, 0
0, 0
1, 0
0, 0
0, 0
3, 0
0, 1
0, 1
1, 0
0, 1
2, 1
0, 0
0, 0
0, 2
0, 2
0, 0
0, 0
1, 0
0, 0
0, 2
1, 0
0, 1
0, 1
0, 0
1, 1
0, 0
1, 1
0, 0
1, 2
0, 1
1, 0
0, 0
3, 0
1, 1
0, 0
0, 0
1, 0
0, 1
0, 1
0, 0
0, 0
0, 0
0, 0
0, 0
0, 0
1, 0
0, 0
1, 1
0, 1
1, 1
0, 2
0, 1
1, 0
0, 0
0, 1
0, 0
0, 0
2, 0
0, 1
1, 0
0, 0
0, 0
1, 0
0, 0
0, 0
0, 0
0, 0
0, 0
0, 1
1, 0
1, 0
0, 0
0, 0
0, 0
0, 4
0, 0
0, 0
1, 0
0, 0
0, 0
1, 0
0, 0
1, 1
0, 1
0, 1
0, 0
0, 0
0, 2
0, 0
0, 0
0, 0
0, 1
1, 0
0, 0
0, 1
0, 0
0, 0
2, 0
0, 0
0, 0
1, 1
0, 0
0, 0
1, 0
0, 2
1, 0
1, 0
1, 1
2, 1
0, 0
0, 1
0, 0
1, 1
0, 0
0, 0
0, 0
0, 0
0, 2
0, 0
0, 0
0, 0
2, 0
0, 0
0, 0
0, 0
0, 0
0, 0
0, 0
0, 0
0, 0
1, 0
1, 0
1, 0
1, 0
0, 0
0, 0
0, 0
0, 0
0, 0
1, 1
0, 0
0, 0
0, 0
0, 1
0, 0
0, 0
0, 0
0, 0
0, 0
0, 0
0, 0
0, 0
0, 0
0, 0
0, 1
0, 0
0, 0
0, 0
0, 0
0, 1
0, 0
0, 1
0, 0
0, 0
0, 0
0, 0
0, 0
0, 0
0, 0
0, 1
0, 0
0, 0
0, 0
0, 0
1, 0
0, 0
0, 0
0, 0
1, 0
0, 0
0, 0
0, 0
1, 0
0, 0
0, 0
0, 2
0, 0
1, 0
0, 0
0, 0
0, 0
0, 0
0, 1
1, 0
0, 0
0, 0
0, 0
0, 0
0, 0
0, 0
0, 0
0, 0
0, 0
0, 0
0, 0
0, 0
1, 0
0, 0
0, 0
0, 0
0, 0
0, 0
0, 0
0, 0
0, 0
0, 0
0, 0
0, 0
0, 0
0, 0
0, 0
0, 0
0, 0
0, 0
0, 0
0, 0
0, 0
0, 0
0, 0
0, 0
0, 0
0, 0
0, 0
0, 0
0, 0
0, 0
0, 0
0, 1
0, 0
1, 0
0, 0
0, 0
0, 0
0, 0
0, 0
0, 0
0, 0
0, 0
0, 0
0, 0
0, 0
1, 0
0, 0
0, 0
0, 0
0, 0
0, 0
0, 0
0, 0
0, 0
0, 0
0, 0
0, 0
0, 0
0, 0
0, 0
0, 0
0, 0
0, 0
0, 0
0, 0
0, 0
0, 0
0, 0
1, 0
0, 0
0, 0
0, 0
0, 0
0, 0
0, 0
0, 0
0, 0
0, 1
0, 0
0, 0
1, 0
0, 0
0, 0
0, 0
0, 0
0, 0
1, 0
0, 0
0, 0
0, 0
0, 0
0, 0
0, 0
0, 0
0, 0
0, 0
0, 0
0, 0
0, 0
0, 0
0, 0
0, 0
0, 0
0, 0
0, 1
0, 0
0, 0
0, 0
0, 1
0, 1
0, 0
0, 0
0, 0
0, 0
0, 0
0, 0
0, 0
0, 0
0, 0
0, 0
0, 0
0, 0
0, 0
0, 0
0, 0
0, 0
0, 0
0, 0
0, 0
0, 0
0, 0
0, 0
0, 0
0, 0
0, 0
0, 0
0, 0
0, 0
0, 0
0, 0
0, 0
0, 0
0, 0
0, 0
0, 0
0, 0
0, 0
0, 0
0, 0
0, 0
0, 0
0, 1
0, 0
0, 0
0, 0
0, 0
0, 0
0, 0
0, 0
0, 0
0, 0
0, 0
0, 0
0, 0
0, 0
0, 0
0, 0
0, 0
0, 0
0, 0
0, 0
0, 0
0, 0
0, 0
0, 0
0, 0
0, 0
0, 0
0, 0
0, 0
0, 0
0, 0
0, 0
0, 0
0, 0
0, 0
0, 0
0, 0
0, 0
0, 0
0, 0
0, 0
0, 0
0, 0
0, 0
0, 0
0, 0
0, 0
0, 0
0, 0
0, 0
0, 0
0, 0
0, 0
0, 0
0, 0
0, 0
0, 0
0, 0
0, 0
0, 0
0, 0
0, 0
0, 0
0, 0
0, 0
0, 0
0, 0
0, 0
0, 0
0, 0
0, 0
0, 0
0, 0
0, 0
0, 0
0, 0
0, 0
0, 0
0, 0
0, 0
0, 0
0, 0
0, 0
0, 0
0, 0
0, 0
0, 0
0, 0
0, 0
0, 0
0, 0
0, 0
0, 0
0, 0
0, 0
0, 0
0, 0
0, 0
0, 0
0, 0
0, 0
0, 0
0, 0
0, 0
0, 0
0, 0
0, 0
0, 0
0, 0
0, 0
0, 0
0, 0
0, 0
0, 0
0, 0
0, 0
0, 0
0, 0
0, 0
0, 0
0, 0
0, 0
0, 0
0, 0
0, 0
0, 0
0, 0
0, 0
0, 0
0, 0
0, 0
0, 0
0, 0
0, 0
0, 0
0, 0
0, 0
0, 0
0, 0
0, 0
0, 0
0, 0
0, 0
0, 0
0, 0
0, 0
0, 0
0, 0
0, 0
0, 0
0, 0
0, 0
0, 0
0, 0
0, 0
0, 0
0, 0
0, 0
0, 0
0, 0
0, 0
0, 0
0, 0
0, 0
0, 0
0, 0
0, 0
0, 0
0, 0
0, 0
0, 0
0, 0
0, 0
0, 0
0, 0
0, 0
0, 0
0, 0
0, 0
0, 0
0, 0
0, 0
0, 0
0, 0
0, 0
0, 0
0, 0
0, 0
0, 0
0, 0
0, 0
0, 0
0, 0
0, 0
0, 0
0, 0
0, 0
0, 0
0, 0
0, 0
0, 0
0, 0
0, 0
0, 0
0, 0
0, 0
0, 0
0, 0
0, 0
0, 0
0, 0
0, 0
0, 0
0, 0
0, 0
0, 0
0, 0
0, 0
0, 0
0, 0
0, 0
0, 0
0, 0
0, 0
0, 0
0, 0
0, 0
0, 0
0, 0
0, 0
0, 0
0, 0
0, 0
0, 0
0, 0
0, 0
0, 0
0, 0
0, 0
0, 0
0, 0
0, 0
0, 0
0, 0
0, 0
0, 0
0, 0
0, 0
0, 0
0, 0
0, 0
0, 0
0, 0
0, 0
0, 0
0, 0
0, 0
0, 0
0, 0
0, 0
0, 0
0, 0
0, 0
0, 0
0, 0
0, 0
0, 0
0, 0
0, 0
0, 0
0, 0
0, 0
0, 0
0, 0
0, 0
0, 0
0, 0
0, 0
0, 0
0, 0
0, 0
0, 0
0, 0
0, 0
0, 0
0, 0
0, 0
0, 0
0, 0
0, 0
0, 0
0, 0
0, 0
0, 0
0, 0
0, 0
0, 0
0, 0
0, 0
0, 0
0, 0
0, 0
0, 0
0, 0
0, 0
0, 0
0, 0
0, 0
0, 0
0, 0
0, 0
0, 0
0, 0
0, 0
0, 0
0, 0
0, 0
0, 0
0, 0
0, 0
0, 0
0, 0
0, 0
0, 0
#ENDOFDATA     end of spectrum data