File: host_upload/12-01-2023/Dourbes (shot-by-shot)/upload_4/ps__0257_0689790785_000rfs_shot_3211.msa
#FORMAT      : EMSA/MAS spectral data file
#VERSION     : TC202v2.0 PIXL
#TITLE       : N/A
#DATE        :       Date in the format DD-MMM-YYYY, for example 07-JUL-2010
#TIME        :             The time of day at which the spectrum was recorded, in 24-hour format
#OWNER       : PIXL Flight Model       (PIXL will use this to indicate which instrument took the data.)
#NPOINTS     : 4096     Number of data points in the spectrum (This can be zero for configuration only files)
#NCOLUMNS    : 2     Number of data columns in the spectrum (This can be zero for configuration only files)
#XUNITS      : eV
#YUNITS      : COUNTS
#DATATYPE    : YY
#XPERCHAN    : 7.862, 7.881   eV per channel (separate by commas if more than one detector)
#OFFSET      : 18.5, -22.4         eV of first channel  (separate by commas if more than one detector
#SIGNALTYPE  : XRF
#YP_TEMP     : 3.294
#LIVETIME    : 8.96185, 8.98029   seconds (separate by commas if more than one detector)
#REALTIME    : 10, 10.0   seconds (separate by commas if more than one detector)
#SPECTRUM    : start of spectrum data
0, 0
0, 0
0, 0
0, 0
0, 0
0, 0
0, 0
0, 0
0, 0
0, 0
0, 0
0, 0
0, 0
0, 0
0, 0
0, 0
0, 0
0, 0
0, 0
0, 0
0, 0
0, 0
0, 0
0, 0
0, 0
0, 0
0, 0
0, 0
0, 0
0, 0
1, 0
0, 0
0, 1
0, 1
0, 0
0, 1
1, 4
4, 2
9, 2
14, 1
17, 2
13, 0
19, 4
5, 3
7, 4
8, 1
2, 0
2, 1
3, 3
10, 4
15, 9
17, 24
32, 36
48, 45
46, 53
32, 36
49, 38
21, 26
7, 10
4, 3
1, 3
2, 3
6, 1
3, 3
3, 2
3, 3
4, 4
6, 4
11, 12
22, 20
50, 59
103, 115
160, 189
254, 273
293, 317
270, 321
236, 282
173, 208
113, 99
50, 69
42, 24
15, 16
9, 14
3, 9
9, 4
5, 2
2, 3
9, 2
5, 1
7, 3
4, 2
3, 4
9, 9
15, 15
29, 19
29, 51
71, 76
114, 101
85, 135
130, 113
92, 90
70, 72
50, 39
37, 24
20, 19
19, 16
25, 12
25, 24
53, 31
113, 61
209, 78
438, 122
632, 151
937, 165
1158, 149
1299, 156
1194, 115
911, 88
689, 80
377, 59
226, 51
96, 47
69, 31
36, 44
46, 18
28, 23
23, 23
13, 28
21, 12
14, 21
9, 13
8, 6
9, 7
11, 4
6, 6
4, 9
10, 3
3, 5
5, 5
5, 3
5, 2
5, 7
6, 3
4, 3
3, 4
3, 2
1, 3
1, 3
2, 4
8, 13
10, 10
8, 19
24, 33
47, 58
68, 85
83, 119
116, 144
139, 140
134, 112
105, 91
73, 75
40, 49
26, 27
19, 17
10, 8
7, 7
11, 13
20, 14
12, 19
30, 12
32, 24
31, 19
25, 23
23, 19
16, 14
13, 17
10, 8
10, 6
5, 11
7, 5
15, 9
8, 11
3, 12
7, 7
6, 7
6, 3
8, 7
13, 15
12, 15
19, 10
18, 19
16, 32
23, 36
10, 39
13, 45
25, 59
26, 61
31, 75
26, 67
29, 69
18, 41
26, 27
25, 27
17, 10
11, 10
10, 12
8, 10
7, 10
7, 13
10, 11
8, 15
19, 17
11, 7
12, 11
14, 16
11, 12
11, 6
7, 9
12, 6
9, 17
8, 8
13, 7
9, 14
16, 13
14, 14
15, 15
13, 13
13, 16
16, 13
16, 8
18, 19
10, 8
13, 12
15, 11
14, 11
6, 13
8, 15
16, 7
9, 12
8, 14
7, 6
16, 14
19, 17
18, 14
25, 26
35, 55
40, 55
73, 82
79, 87
82, 106
112, 126
89, 125
96, 107
87, 101
78, 44
38, 45
42, 41
38, 32
22, 22
16, 29
24, 37
36, 29
45, 54
75, 120
168, 238
317, 450
620, 873
1047, 1312
1671, 2068
2396, 2807
2988, 3447
3446, 3917
3682, 3983
3509, 3603
3111, 2991
2301, 2174
1608, 1493
1071, 913
597, 462
343, 272
156, 121
97, 64
70, 28
44, 26
45, 32
43, 22
57, 19
60, 15
74, 31
58, 31
75, 44
82, 48
66, 67
115, 119
144, 163
205, 267
290, 349
362, 456
468, 487
535, 595
541, 540
491, 474
412, 391
306, 278
239, 205
140, 122
99, 73
52, 48
25, 17
17, 9
8, 6
7, 3
4, 6
2, 4
4, 8
3, 7
6, 8
13, 4
10, 10
5, 10
7, 4
6, 2
3, 7
3, 2
7, 7
8, 6
2, 4
2, 7
2, 10
3, 3
4, 9
8, 7
5, 12
6, 18
9, 8
1, 9
0, 5
3, 6
1, 5
6, 3
2, 3
7, 4
8, 7
5, 5
2, 1
8, 0
9, 7
1, 7
4, 7
8, 6
6, 5
1, 4
2, 3
4, 5
3, 3
4, 7
8, 2
0, 5
3, 5
5, 4
5, 5
3, 5
2, 5
6, 5
3, 9
1, 3
9, 4
4, 3
2, 6
3, 3
3, 5
9, 6
5, 0
1, 7
2, 4
4, 6
5, 6
3, 4
5, 6
3, 7
4, 5
3, 6
6, 4
2, 5
8, 3
7, 7
9, 6
8, 4
4, 8
6, 10
7, 10
6, 7
4, 12
4, 10
6, 10
3, 5
4, 10
3, 13
6, 8
11, 12
5, 4
3, 6
4, 4
7, 6
4, 3
3, 4
7, 4
3, 3
4, 5
3, 9
2, 6
1, 4
4, 5
3, 2
4, 3
3, 6
5, 3
1, 0
3, 0
2, 2
5, 3
3, 2
5, 1
3, 9
5, 4
1, 4
1, 3
2, 1
3, 4
2, 0
3, 2
0, 4
4, 4
2, 4
3, 0
1, 4
2, 3
4, 0
2, 4
4, 4
4, 4
1, 3
3, 1
1, 3
1, 3
3, 2
2, 2
3, 3
0, 8
3, 3
1, 2
7, 1
3, 2
6, 1
6, 2
7, 3
7, 2
7, 5
10, 3
5, 2
2, 2
6, 3
9, 2
6, 2
6, 1
7, 2
2, 4
3, 1
4, 2
2, 2
4, 1
1, 1
2, 5
3, 3
2, 2
0, 2
1, 3
1, 1
2, 1
0, 0
1, 2
2, 3
6, 5
1, 5
4, 3
2, 3
1, 3
1, 2
2, 1
2, 2
3, 1
3, 2
3, 3
1, 1
1, 1
0, 5
0, 2
2, 0
4, 3
2, 0
0, 3
1, 0
1, 1
2, 4
0, 0
3, 0
0, 2
5, 0
2, 0
2, 4
0, 4
5, 3
4, 2
1, 4
2, 0
1, 1
3, 4
2, 3
4, 0
4, 0
4, 3
2, 1
4, 1
3, 4
1, 3
2, 2
3, 0
0, 4
3, 3
1, 4
2, 2
1, 1
1, 1
0, 1
1, 7
3, 4
6, 4
4, 7
6, 5
3, 5
7, 7
4, 13
2, 9
7, 9
8, 7
2, 9
3, 2
3, 0
2, 2
4, 1
4, 3
1, 3
3, 0
0, 1
1, 3
0, 3
0, 1
1, 0
3, 1
1, 1
0, 0
0, 1
0, 2
0, 2
3, 5
1, 5
5, 3
4, 2
2, 1
3, 0
2, 2
3, 3
1, 4
1, 3
0, 0
2, 0
1, 2
4, 0
0, 3
3, 1
1, 2
0, 1
1, 0
2, 1
2, 1
1, 0
0, 0
0, 2
0, 0
2, 2
1, 0
2, 1
1, 3
1, 0
1, 0
1, 0
1, 2
0, 2
2, 1
0, 1
0, 3
2, 4
1, 1
1, 3
1, 1
1, 0
1, 2
1, 0
0, 1
0, 1
1, 1
0, 1
0, 2
0, 2
0, 0
0, 1
1, 0
1, 0
1, 1
1, 1
1, 0
1, 1
2, 0
1, 0
0, 1
1, 0
1, 1
1, 2
4, 0
0, 1
1, 1
0, 0
1, 0
1, 0
3, 0
3, 1
1, 0
1, 2
1, 0
0, 2
1, 1
1, 0
1, 1
0, 0
0, 0
1, 0
0, 0
2, 0
0, 0
0, 0
1, 1
0, 0
1, 0
0, 0
2, 0
0, 1
0, 1
1, 0
0, 0
2, 1
1, 0
2, 0
1, 1
0, 2
1, 1
0, 0
0, 0
0, 1
0, 0
3, 0
0, 0
1, 0
0, 0
2, 0
0, 0
2, 0
0, 0
1, 0
0, 0
0, 0
1, 1
1, 0
1, 0
1, 1
1, 1
0, 0
0, 0
2, 0
2, 0
0, 1
0, 3
1, 0
0, 0
1, 0
0, 1
0, 0
0, 0
1, 1
0, 0
1, 0
1, 0
0, 1
1, 1
0, 0
0, 1
0, 1
0, 0
1, 1
0, 1
0, 0
0, 0
0, 0
1, 0
0, 1
0, 0
0, 0
0, 0
1, 0
1, 0
1, 0
0, 1
0, 0
0, 0
0, 0
0, 0
0, 0
0, 0
0, 0
0, 0
0, 1
0, 0
1, 0
0, 0
0, 1
0, 0
0, 0
0, 0
0, 0
0, 0
0, 0
0, 2
1, 0
0, 0
0, 0
0, 1
0, 1
2, 0
0, 0
0, 0
1, 1
1, 1
1, 0
0, 1
1, 0
0, 1
0, 0
1, 0
0, 1
0, 0
0, 0
0, 0
0, 0
0, 0
0, 0
0, 0
0, 0
0, 0
0, 1
0, 1
0, 2
0, 0
0, 0
0, 0
0, 0
4, 0
0, 0
1, 0
0, 0
1, 1
0, 0
2, 0
0, 0
0, 0
0, 0
0, 0
0, 0
0, 2
0, 0
0, 0
0, 0
1, 0
0, 0
0, 0
0, 0
1, 2
0, 0
0, 0
1, 0
0, 0
0, 0
0, 0
0, 0
0, 0
0, 0
0, 0
0, 0
2, 0
0, 0
0, 0
0, 0
0, 0
0, 0
0, 0
0, 0
1, 1
0, 0
0, 0
0, 0
0, 0
0, 0
0, 0
0, 0
0, 0
0, 0
0, 0
0, 0
0, 0
0, 0
0, 0
0, 0
0, 0
0, 1
0, 0
0, 0
0, 0
0, 0
0, 1
0, 0
0, 0
1, 1
1, 0
0, 0
0, 0
1, 0
0, 0
0, 0
2, 0
0, 0
0, 0
0, 0
0, 0
0, 0
0, 0
0, 0
1, 0
0, 0
0, 0
0, 0
0, 0
0, 0
0, 1
0, 0
0, 0
0, 0
0, 0
0, 0
0, 0
0, 0
0, 0
0, 0
0, 1
0, 0
0, 0
0, 0
0, 1
0, 0
0, 0
0, 0
0, 0
0, 0
0, 0
0, 0
0, 0
0, 0
0, 0
1, 0
0, 0
0, 0
0, 0
0, 0
0, 0
0, 0
0, 0
0, 0
0, 0
0, 0
0, 0
0, 0
0, 0
1, 0
0, 0
0, 0
0, 0
0, 0
0, 0
0, 0
0, 0
0, 0
0, 0
0, 0
0, 0
0, 0
0, 0
0, 0
0, 0
0, 0
0, 0
0, 0
0, 0
0, 0
0, 0
0, 0
0, 0
0, 0
0, 0
0, 0
0, 0
1, 0
0, 0
1, 0
0, 0
0, 0
0, 1
1, 0
0, 0
0, 0
0, 0
0, 0
0, 0
0, 0
0, 0
0, 0
0, 0
0, 0
0, 0
0, 0
0, 0
0, 0
0, 0
0, 0
0, 0
0, 0
0, 0
0, 0
0, 0
0, 0
0, 0
0, 0
0, 0
0, 0
0, 0
0, 0
0, 0
0, 0
0, 0
0, 1
0, 0
0, 0
0, 0
0, 0
0, 0
0, 0
0, 0
0, 0
0, 0
0, 0
0, 0
0, 0
0, 0
0, 0
0, 0
0, 0
0, 0
0, 0
0, 0
0, 0
0, 0
0, 0
0, 0
0, 0
0, 0
0, 0
0, 0
0, 0
0, 0
0, 0
0, 0
0, 0
0, 0
0, 0
0, 0
0, 0
0, 0
0, 0
0, 0
0, 0
0, 0
0, 0
0, 0
1, 0
0, 0
0, 0
0, 0
0, 0
0, 0
0, 0
0, 0
0, 0
0, 0
0, 0
0, 0
0, 0
0, 0
0, 0
0, 0
0, 0
0, 0
0, 0
0, 0
0, 0
0, 0
0, 0
0, 0
0, 0
0, 0
0, 0
0, 0
0, 0
0, 0
0, 0
0, 0
0, 0
0, 0
0, 0
0, 0
0, 0
0, 0
0, 0
0, 0
0, 0
0, 0
0, 0
0, 0
0, 0
0, 0
0, 0
0, 0
0, 0
0, 0
0, 0
0, 0
0, 0
0, 0
0, 0
0, 0
0, 0
0, 0
1, 0
0, 0
0, 0
0, 0
0, 0
0, 0
0, 0
0, 0
0, 0
0, 0
0, 0
0, 0
0, 0
0, 0
0, 0
0, 0
0, 0
0, 0
0, 0
0, 0
0, 0
0, 0
0, 0
0, 0
0, 0
0, 0
0, 0
0, 0
0, 0
0, 0
0, 0
0, 0
0, 0
0, 0
0, 0
0, 0
0, 0
0, 0
0, 0
0, 0
0, 0
0, 0
0, 0
0, 0
0, 0
0, 0
0, 0
0, 0
0, 0
0, 0
0, 0
0, 0
0, 0
0, 0
0, 0
0, 0
0, 0
0, 0
0, 0
0, 0
0, 0
0, 0
0, 0
0, 0
0, 0
0, 0
0, 0
0, 0
0, 0
0, 0
0, 0
0, 0
0, 0
0, 0
0, 0
0, 0
0, 0
0, 0
0, 0
0, 0
0, 0
0, 0
0, 0
0, 0
0, 0
0, 0
0, 0
0, 0
0, 0
0, 0
0, 0
0, 0
0, 0
0, 0
0, 0
0, 0
0, 0
0, 0
0, 0
0, 0
0, 0
0, 0
0, 0
0, 0
0, 0
0, 0
0, 0
0, 0
0, 0
0, 0
0, 0
0, 0
0, 0
0, 0
0, 0
0, 0
0, 0
0, 0
0, 0
0, 0
0, 0
0, 0
0, 0
0, 0
0, 0
0, 0
0, 0
0, 0
0, 0
0, 0
0, 0
0, 0
0, 0
0, 0
0, 0
0, 0
0, 0
0, 0
0, 0
0, 0
0, 0
0, 0
0, 0
0, 0
0, 0
0, 0
0, 0
0, 0
0, 0
0, 0
0, 0
0, 0
0, 0
0, 0
0, 0
0, 0
0, 0
0, 0
0, 0
0, 0
0, 0
0, 0
0, 0
0, 0
0, 0
0, 0
0, 0
0, 0
0, 0
0, 0
0, 0
0, 0
0, 0
0, 0
0, 0
0, 0
0, 0
0, 0
0, 0
0, 0
0, 0
0, 0
0, 0
0, 0
0, 0
0, 0
0, 0
0, 0
0, 0
0, 0
0, 0
0, 0
0, 0
0, 0
0, 0
0, 0
0, 0
0, 0
0, 0
0, 0
0, 0
0, 0
0, 0
0, 0
0, 0
0, 0
0, 0
0, 0
0, 0
0, 0
0, 0
0, 0
0, 0
0, 0
0, 0
0, 0
0, 0
0, 0
0, 0
0, 0
0, 0
0, 0
0, 0
0, 0
0, 0
0, 0
0, 0
0, 0
0, 0
0, 0
0, 0
0, 0
0, 0
0, 0
0, 0
0, 0
0, 0
0, 0
0, 0
0, 0
0, 0
0, 0
0, 0
0, 0
0, 0
0, 0
0, 0
0, 0
0, 0
0, 0
0, 0
0, 0
0, 0
0, 0
0, 0
0, 0
0, 0
0, 0
0, 0
0, 0
0, 0
0, 0
0, 0
0, 0
0, 0
0, 0
0, 0
0, 0
0, 0
0, 0
0, 0
0, 0
0, 0
0, 0
0, 0
0, 0
0, 0
0, 0
0, 0
0, 0
0, 0
0, 0
0, 0
0, 0
0, 0
0, 0
0, 0
0, 0
0, 0
0, 0
0, 0
0, 0
0, 0
0, 0
0, 0
0, 0
0, 0
0, 0
0, 0
#ENDOFDATA     end of spectrum data