File: host_upload/12-01-2023/Dourbes (shot-by-shot)/upload_4/ps__0257_0689790785_000rfs_shot_3066.msa
#FORMAT      : EMSA/MAS spectral data file
#VERSION     : TC202v2.0 PIXL
#TITLE       : N/A
#DATE        :       Date in the format DD-MMM-YYYY, for example 07-JUL-2010
#TIME        :             The time of day at which the spectrum was recorded, in 24-hour format
#OWNER       : PIXL Flight Model       (PIXL will use this to indicate which instrument took the data.)
#NPOINTS     : 4096     Number of data points in the spectrum (This can be zero for configuration only files)
#NCOLUMNS    : 2     Number of data columns in the spectrum (This can be zero for configuration only files)
#XUNITS      : eV
#YUNITS      : COUNTS
#DATATYPE    : YY
#XPERCHAN    : 7.862, 7.881   eV per channel (separate by commas if more than one detector)
#OFFSET      : 18.5, -22.4         eV of first channel  (separate by commas if more than one detector
#SIGNALTYPE  : XRF
#YP_TEMP     : 3.101
#LIVETIME    : 9.24764, 9.25125   seconds (separate by commas if more than one detector)
#REALTIME    : 10, 10.0   seconds (separate by commas if more than one detector)
#SPECTRUM    : start of spectrum data
0, 0
0, 0
0, 0
0, 0
0, 0
0, 0
0, 0
0, 0
0, 0
0, 0
0, 0
0, 0
0, 0
0, 0
0, 0
0, 0
0, 0
0, 0
0, 0
0, 0
0, 0
0, 0
0, 0
0, 0
0, 0
0, 0
0, 0
0, 0
0, 0
0, 0
0, 0
0, 0
0, 0
0, 0
0, 0
0, 1
0, 0
0, 0
1, 0
3, 2
0, 1
0, 1
4, 4
3, 3
7, 7
10, 7
5, 7
6, 4
1, 2
4, 1
3, 5
7, 7
6, 8
18, 11
10, 8
11, 9
10, 8
13, 4
14, 10
27, 12
43, 33
69, 77
100, 96
136, 124
159, 151
119, 127
107, 90
64, 78
70, 51
82, 70
179, 127
308, 333
594, 528
825, 794
998, 989
1074, 1045
882, 793
608, 635
379, 385
197, 204
121, 91
49, 49
23, 17
15, 11
6, 16
9, 4
4, 3
7, 5
8, 2
2, 4
2, 2
3, 2
3, 3
2, 2
4, 4
2, 5
4, 4
4, 8
6, 6
8, 6
11, 7
6, 5
6, 5
5, 4
1, 2
3, 3
3, 4
7, 6
12, 9
24, 16
20, 47
37, 43
50, 58
40, 44
69, 45
45, 51
50, 33
28, 24
38, 26
28, 32
28, 27
27, 19
19, 22
26, 24
12, 20
12, 23
12, 13
6, 19
12, 6
5, 7
6, 6
2, 4
0, 0
9, 3
6, 9
15, 16
24, 32
58, 64
88, 95
113, 134
146, 166
198, 189
163, 151
128, 109
111, 78
70, 52
36, 17
16, 16
11, 21
13, 14
17, 13
22, 29
27, 28
34, 42
38, 53
60, 49
73, 57
58, 54
49, 49
38, 27
31, 23
20, 16
12, 16
4, 13
7, 12
8, 13
1, 13
5, 15
7, 10
7, 12
13, 15
8, 10
8, 7
11, 15
8, 4
7, 4
5, 2
3, 7
3, 5
4, 1
2, 5
6, 2
2, 3
7, 6
6, 5
4, 10
6, 7
17, 11
16, 16
11, 17
34, 28
29, 35
36, 23
17, 25
25, 18
17, 20
7, 7
9, 15
7, 5
10, 6
4, 11
10, 7
6, 6
10, 9
8, 11
10, 7
6, 12
7, 14
5, 18
5, 22
8, 20
7, 23
6, 19
10, 21
9, 23
6, 22
8, 16
3, 17
2, 19
11, 14
2, 21
5, 13
7, 15
13, 11
8, 10
7, 18
10, 11
12, 16
15, 19
29, 10
21, 17
12, 13
28, 14
13, 14
23, 12
26, 15
18, 8
23, 9
33, 11
27, 10
22, 8
14, 6
19, 6
12, 5
11, 6
17, 8
17, 12
11, 9
16, 14
23, 14
19, 7
15, 13
25, 13
12, 8
16, 13
19, 12
16, 11
20, 6
22, 15
19, 6
21, 10
21, 9
22, 14
15, 12
44, 21
52, 46
80, 84
115, 129
182, 178
257, 269
311, 366
380, 343
423, 412
356, 344
313, 265
253, 227
198, 153
122, 98
63, 50
44, 31
29, 17
19, 10
11, 8
18, 6
10, 12
6, 5
18, 9
12, 12
17, 7
15, 16
10, 14
18, 19
11, 18
9, 37
25, 38
35, 53
49, 64
64, 90
62, 103
63, 120
81, 102
62, 86
58, 81
52, 53
35, 50
29, 31
21, 20
15, 15
15, 16
6, 18
5, 15
10, 15
7, 6
7, 8
7, 10
7, 13
7, 4
8, 12
7, 5
6, 6
9, 6
9, 3
10, 12
5, 5
14, 6
4, 10
9, 8
8, 5
12, 6
8, 10
11, 8
5, 5
13, 6
6, 10
2, 10
7, 3
7, 9
7, 11
5, 7
11, 8
6, 14
6, 12
15, 22
8, 31
8, 18
7, 14
10, 14
9, 13
10, 9
8, 18
6, 12
14, 9
8, 10
6, 8
8, 11
8, 9
10, 12
8, 7
10, 7
8, 7
8, 6
8, 8
10, 6
8, 7
5, 3
3, 12
11, 7
5, 8
13, 8
6, 9
8, 7
9, 6
11, 9
7, 8
10, 8
5, 5
11, 9
8, 5
8, 8
5, 11
10, 6
7, 9
7, 9
10, 8
5, 3
7, 4
8, 9
12, 9
10, 3
10, 6
11, 9
4, 8
7, 8
5, 12
5, 14
7, 7
10, 5
6, 8
8, 10
4, 7
6, 6
8, 7
10, 3
10, 5
10, 7
5, 8
8, 8
7, 4
3, 7
9, 2
4, 10
12, 6
7, 5
6, 5
4, 6
4, 3
8, 9
4, 3
7, 3
6, 11
7, 4
3, 4
11, 7
13, 7
2, 7
11, 8
6, 10
7, 12
7, 5
9, 9
5, 11
7, 10
6, 12
5, 5
13, 8
2, 7
5, 11
9, 6
9, 5
6, 8
5, 5
6, 3
5, 3
5, 5
7, 5
6, 3
13, 5
1, 3
0, 4
4, 5
13, 3
6, 5
6, 6
3, 2
5, 11
7, 4
5, 6
5, 1
2, 8
4, 4
5, 9
9, 8
3, 6
8, 5
8, 6
6, 4
14, 5
5, 14
3, 5
6, 9
8, 3
6, 6
4, 5
4, 9
5, 2
6, 4
3, 6
3, 3
7, 6
5, 3
8, 2
3, 2
4, 3
1, 3
3, 4
8, 1
6, 6
2, 5
2, 7
6, 3
3, 3
10, 4
11, 5
6, 5
6, 4
3, 3
7, 2
9, 2
7, 1
1, 4
6, 4
2, 3
3, 5
4, 0
5, 4
7, 4
4, 7
4, 1
6, 4
2, 3
4, 8
4, 5
3, 2
6, 2
4, 4
2, 0
4, 1
3, 1
2, 7
6, 3
2, 3
1, 0
1, 3
1, 5
1, 4
2, 5
1, 2
0, 1
5, 1
5, 3
2, 1
0, 5
1, 0
1, 6
5, 3
1, 3
5, 2
2, 1
3, 7
2, 1
3, 4
3, 2
1, 3
2, 1
2, 2
5, 0
1, 3
4, 4
1, 1
1, 2
3, 3
2, 2
1, 1
3, 2
3, 5
3, 3
2, 4
2, 3
7, 0
3, 2
1, 2
1, 1
3, 2
1, 0
1, 2
1, 2
2, 1
0, 3
3, 3
1, 5
2, 2
2, 2
2, 2
1, 0
2, 1
1, 1
5, 1
4, 0
0, 2
1, 0
2, 0
0, 2
2, 4
1, 5
1, 0
1, 1
2, 0
2, 3
0, 1
2, 2
1, 1
4, 1
0, 1
3, 1
2, 2
0, 0
1, 1
1, 4
1, 2
3, 1
0, 4
1, 0
1, 1
0, 2
0, 0
4, 1
2, 0
1, 0
0, 2
2, 0
1, 0
0, 2
2, 1
2, 2
1, 3
0, 3
0, 1
1, 1
1, 0
0, 0
0, 1
0, 1
0, 2
0, 3
0, 1
2, 1
3, 3
0, 0
2, 0
0, 1
1, 0
2, 0
2, 0
0, 2
1, 1
0, 1
0, 1
0, 1
0, 0
2, 0
1, 1
0, 0
0, 0
2, 0
0, 1
0, 1
1, 1
0, 0
1, 2
0, 2
0, 1
2, 0
2, 2
2, 2
0, 0
0, 1
3, 0
3, 0
1, 1
0, 0
0, 2
3, 0
2, 2
2, 0
0, 3
1, 0
0, 1
0, 1
0, 1
1, 0
1, 0
2, 3
0, 0
1, 2
3, 0
0, 1
0, 1
0, 3
2, 1
0, 1
0, 0
0, 0
0, 1
0, 0
0, 0
0, 3
0, 0
1, 0
2, 0
1, 1
0, 0
1, 0
0, 1
0, 0
1, 2
2, 0
0, 0
2, 2
1, 0
0, 1
0, 0
0, 0
0, 1
0, 0
0, 0
0, 0
1, 0
2, 0
1, 0
0, 1
0, 1
0, 0
0, 1
2, 2
1, 0
2, 0
0, 0
1, 0
0, 0
1, 1
2, 0
1, 0
1, 0
0, 0
0, 1
1, 0
0, 1
1, 0
0, 1
0, 0
0, 1
0, 0
0, 0
0, 0
0, 0
0, 1
0, 0
0, 1
0, 0
1, 0
0, 0
2, 0
0, 1
0, 1
0, 0
0, 0
0, 0
1, 0
1, 0
0, 0
1, 0
0, 0
0, 0
0, 0
1, 0
0, 0
0, 0
0, 0
1, 0
0, 0
0, 2
0, 0
3, 2
1, 0
0, 0
0, 0
0, 0
0, 0
1, 0
0, 0
1, 0
0, 0
0, 1
0, 0
0, 0
0, 1
0, 0
0, 0
0, 0
0, 0
0, 0
0, 0
0, 0
0, 0
1, 0
1, 0
1, 0
1, 0
0, 1
1, 0
1, 0
0, 2
1, 0
0, 1
0, 0
0, 0
1, 0
0, 0
0, 1
0, 0
0, 0
0, 1
0, 0
0, 1
1, 1
0, 0
1, 0
0, 0
0, 0
0, 0
0, 0
0, 0
0, 0
0, 0
0, 0
0, 0
1, 1
0, 1
0, 2
1, 0
0, 0
1, 0
0, 0
1, 0
0, 0
0, 0
0, 0
0, 0
0, 0
1, 0
0, 0
0, 0
0, 0
0, 0
0, 0
0, 0
0, 0
0, 0
0, 0
1, 0
1, 0
0, 0
0, 1
0, 1
0, 0
0, 0
0, 0
0, 0
0, 0
0, 0
0, 0
0, 0
0, 0
0, 0
1, 0
0, 0
0, 0
1, 0
1, 0
0, 0
1, 0
0, 1
0, 0
1, 0
0, 0
1, 0
0, 0
0, 0
0, 0
0, 0
2, 0
1, 0
0, 0
0, 0
0, 0
0, 0
0, 0
0, 0
0, 0
0, 0
0, 0
0, 0
0, 0
1, 0
0, 0
0, 0
0, 0
0, 0
2, 0
0, 0
0, 0
0, 0
0, 0
0, 0
0, 0
0, 0
0, 0
0, 0
0, 0
1, 0
0, 0
0, 0
0, 0
0, 1
0, 1
0, 0
0, 0
0, 0
0, 0
0, 0
0, 0
0, 0
0, 0
0, 0
0, 0
0, 0
0, 0
0, 0
0, 0
0, 0
0, 0
1, 0
0, 0
0, 0
0, 0
0, 0
0, 0
0, 0
0, 0
0, 0
0, 0
1, 0
0, 0
0, 0
0, 0
0, 0
0, 0
0, 0
0, 1
0, 0
0, 0
0, 0
0, 0
0, 0
0, 0
0, 0
0, 0
0, 0
0, 0
0, 0
0, 0
0, 1
0, 1
0, 0
0, 0
0, 0
0, 0
0, 0
0, 0
0, 0
0, 0
0, 0
0, 0
0, 0
0, 0
0, 0
0, 0
0, 0
0, 0
0, 0
0, 0
0, 0
0, 0
0, 0
0, 0
0, 0
0, 0
0, 0
0, 0
0, 0
0, 0
0, 0
0, 0
0, 0
0, 0
0, 0
0, 0
0, 0
0, 0
0, 0
0, 0
0, 0
0, 0
0, 0
0, 0
0, 0
0, 0
0, 0
0, 0
0, 0
0, 0
0, 0
0, 0
0, 0
0, 0
0, 0
0, 0
0, 0
0, 0
0, 0
0, 0
0, 0
0, 0
0, 0
0, 0
0, 0
0, 0
0, 0
0, 0
0, 0
0, 0
0, 0
0, 0
0, 0
0, 0
0, 0
0, 0
0, 0
0, 0
0, 0
0, 0
0, 0
0, 0
0, 0
0, 0
0, 0
0, 0
0, 0
0, 0
0, 0
0, 0
0, 0
0, 0
0, 0
0, 0
0, 0
0, 0
0, 0
0, 0
0, 0
0, 0
0, 0
0, 0
0, 0
0, 0
0, 0
0, 0
0, 0
0, 0
0, 0
0, 0
0, 0
0, 0
0, 0
0, 0
0, 0
0, 0
0, 0
0, 0
0, 0
0, 0
0, 0
0, 0
0, 0
0, 0
0, 0
0, 0
0, 0
0, 0
0, 0
0, 0
0, 0
0, 0
0, 0
0, 0
0, 0
0, 0
0, 0
0, 0
0, 0
0, 0
0, 0
0, 0
0, 0
0, 0
0, 0
0, 0
0, 0
0, 0
0, 0
0, 0
0, 0
0, 0
0, 0
0, 0
0, 0
0, 0
0, 0
0, 0
0, 0
0, 0
0, 0
0, 0
0, 0
0, 0
0, 0
0, 0
0, 0
0, 0
0, 0
0, 0
0, 0
0, 0
0, 0
0, 0
0, 0
0, 0
0, 0
0, 0
0, 0
0, 0
0, 0
0, 0
0, 0
0, 0
0, 0
0, 0
0, 0
0, 0
0, 0
0, 0
0, 0
0, 0
0, 0
0, 0
0, 0
0, 0
0, 0
0, 0
0, 0
0, 0
0, 0
0, 0
0, 0
0, 0
0, 0
0, 0
0, 0
0, 0
0, 0
0, 0
0, 0
0, 0
0, 0
0, 0
0, 0
0, 0
0, 0
0, 0
0, 0
0, 0
0, 0
0, 0
0, 0
0, 0
0, 0
0, 0
0, 0
0, 0
0, 0
0, 0
0, 0
0, 0
0, 0
0, 0
0, 0
0, 0
0, 0
0, 0
0, 0
0, 0
0, 0
0, 0
0, 0
0, 0
0, 0
0, 0
0, 0
0, 0
0, 0
0, 0
0, 0
0, 0
0, 0
0, 0
0, 0
0, 0
0, 0
0, 0
0, 0
0, 0
0, 0
0, 0
0, 0
0, 0
0, 0
0, 0
0, 0
0, 0
0, 0
0, 0
0, 0
0, 0
0, 0
0, 0
0, 0
0, 0
0, 0
0, 0
0, 0
0, 0
0, 0
0, 0
0, 0
0, 0
0, 0
0, 0
0, 0
0, 0
0, 0
0, 0
0, 0
0, 0
0, 0
0, 0
0, 0
0, 0
0, 0
0, 0
0, 0
0, 0
0, 0
0, 0
0, 0
0, 0
0, 0
0, 0
0, 0
0, 0
0, 0
0, 0
0, 0
0, 0
0, 0
0, 0
0, 0
0, 0
0, 0
0, 0
0, 0
0, 0
0, 0
0, 0
0, 0
0, 0
0, 0
0, 0
0, 0
0, 0
0, 0
0, 0
0, 0
0, 0
0, 0
0, 0
0, 0
0, 0
0, 0
0, 0
0, 0
0, 0
0, 0
0, 0
0, 0
0, 0
0, 0
0, 0
0, 0
0, 0
0, 0
0, 0
0, 0
0, 0
0, 0
0, 0
0, 0
0, 0
0, 0
0, 0
0, 0
0, 0
0, 0
0, 0
0, 0
0, 0
0, 0
0, 0
0, 0
0, 0
0, 0
0, 0
0, 0
0, 0
0, 0
0, 0
0, 0
0, 0
0, 0
0, 0
0, 0
0, 0
0, 0
0, 0
0, 0
0, 0
0, 0
0, 0
0, 0
0, 0
0, 0
0, 0
0, 0
0, 0
0, 0
0, 0
0, 0
0, 0
0, 0
0, 0
0, 0
0, 0
0, 0
0, 0
0, 0
0, 0
0, 0
0, 0
0, 0
0, 0
0, 0
0, 0
0, 0
0, 0
0, 0
0, 0
0, 0
#ENDOFDATA     end of spectrum data