File: host_upload/12-01-2023/Dourbes (shot-by-shot)/upload_4/ps__0257_0689790785_000rfs_shot_3139.msa
#FORMAT      : EMSA/MAS spectral data file
#VERSION     : TC202v2.0 PIXL
#TITLE       : N/A
#DATE        :       Date in the format DD-MMM-YYYY, for example 07-JUL-2010
#TIME        :             The time of day at which the spectrum was recorded, in 24-hour format
#OWNER       : PIXL Flight Model       (PIXL will use this to indicate which instrument took the data.)
#NPOINTS     : 4096     Number of data points in the spectrum (This can be zero for configuration only files)
#NCOLUMNS    : 2     Number of data columns in the spectrum (This can be zero for configuration only files)
#XUNITS      : eV
#YUNITS      : COUNTS
#DATATYPE    : YY
#XPERCHAN    : 7.862, 7.881   eV per channel (separate by commas if more than one detector)
#OFFSET      : 18.5, -22.4         eV of first channel  (separate by commas if more than one detector
#SIGNALTYPE  : XRF
#YP_TEMP     : 2.813
#LIVETIME    : 9.12106, 9.12646   seconds (separate by commas if more than one detector)
#REALTIME    : 10, 10.0   seconds (separate by commas if more than one detector)
#SPECTRUM    : start of spectrum data
0, 0
0, 0
0, 0
0, 0
0, 0
0, 0
0, 0
0, 0
0, 0
0, 0
0, 0
0, 0
0, 0
0, 0
0, 0
0, 0
0, 0
0, 0
0, 0
0, 0
0, 0
0, 0
0, 0
0, 0
0, 0
0, 0
0, 0
0, 0
0, 0
0, 0
0, 0
0, 0
0, 0
0, 1
0, 0
1, 0
2, 0
1, 2
0, 1
1, 1
5, 2
2, 3
4, 1
2, 3
2, 1
3, 2
5, 4
2, 2
8, 1
9, 8
7, 11
24, 26
52, 32
47, 42
57, 61
47, 42
31, 25
22, 27
12, 6
1, 9
6, 5
7, 7
8, 10
10, 12
10, 14
16, 15
15, 12
18, 17
29, 17
45, 39
118, 100
257, 220
437, 381
649, 503
717, 699
780, 686
613, 583
441, 399
282, 236
150, 123
84, 69
39, 41
28, 23
20, 14
14, 17
11, 19
11, 8
9, 12
4, 7
1, 5
2, 3
3, 1
5, 1
7, 7
9, 4
8, 12
11, 22
26, 18
19, 26
28, 29
33, 22
17, 11
13, 11
9, 5
11, 12
15, 3
11, 8
8, 5
10, 12
16, 19
23, 27
51, 59
50, 48
61, 63
64, 78
81, 84
63, 71
54, 44
49, 52
43, 49
43, 32
30, 34
36, 35
36, 42
39, 31
25, 16
22, 29
15, 22
14, 22
13, 10
11, 9
3, 7
8, 6
4, 6
8, 6
4, 12
3, 4
6, 7
2, 9
5, 1
9, 6
1, 2
7, 2
5, 7
4, 12
5, 7
5, 10
10, 5
10, 12
24, 15
33, 49
84, 75
168, 155
285, 320
480, 492
707, 628
908, 790
913, 870
897, 827
703, 640
558, 458
340, 260
182, 129
109, 77
70, 38
33, 44
39, 43
61, 68
97, 85
123, 123
158, 131
113, 121
149, 137
114, 86
68, 63
62, 40
28, 19
12, 19
5, 11
7, 10
7, 8
2, 6
9, 7
10, 9
3, 1
6, 7
12, 14
13, 10
13, 13
19, 18
31, 18
33, 31
30, 34
25, 22
27, 20
20, 18
22, 20
29, 10
15, 10
9, 10
10, 11
6, 14
8, 11
7, 10
6, 7
5, 12
7, 6
11, 12
9, 10
18, 13
14, 15
14, 9
13, 21
8, 11
11, 8
7, 10
7, 13
7, 4
10, 9
8, 10
8, 7
11, 8
6, 9
17, 12
12, 19
13, 12
12, 30
39, 30
47, 35
46, 51
60, 55
56, 43
47, 48
34, 24
23, 20
16, 21
14, 9
17, 8
8, 5
8, 5
5, 11
10, 3
4, 9
5, 5
19, 24
15, 32
26, 43
39, 50
46, 53
61, 57
61, 64
72, 78
54, 75
51, 56
53, 46
36, 42
22, 36
28, 17
13, 21
17, 20
18, 13
20, 25
34, 35
35, 51
83, 105
193, 202
303, 334
477, 502
776, 815
1020, 1091
1405, 1423
1608, 1651
1687, 1584
1563, 1459
1247, 1153
1049, 823
744, 601
473, 328
294, 209
152, 90
74, 59
33, 26
28, 16
17, 17
11, 14
12, 11
16, 13
17, 9
19, 10
14, 12
14, 21
22, 18
43, 23
41, 45
70, 64
108, 104
132, 142
165, 192
201, 249
227, 275
220, 226
212, 222
180, 165
154, 150
118, 91
70, 95
42, 33
17, 23
24, 19
19, 10
15, 7
13, 7
9, 2
15, 5
15, 6
19, 4
16, 11
8, 9
15, 10
13, 11
17, 7
17, 7
12, 8
9, 5
7, 6
7, 4
4, 5
4, 12
3, 5
4, 2
0, 9
5, 3
8, 6
3, 3
12, 6
10, 5
7, 2
5, 5
9, 5
5, 8
9, 8
9, 4
7, 9
8, 8
4, 5
8, 5
3, 8
12, 10
9, 10
5, 5
10, 4
9, 4
13, 6
12, 8
8, 17
14, 13
8, 10
9, 8
11, 7
6, 5
7, 8
11, 8
7, 9
3, 7
2, 7
8, 10
3, 6
4, 3
7, 5
8, 4
5, 4
6, 6
7, 1
9, 8
7, 3
7, 6
5, 5
8, 4
6, 6
3, 8
4, 9
8, 5
5, 4
8, 3
4, 3
4, 3
7, 8
8, 4
7, 6
6, 8
7, 6
8, 8
7, 1
3, 6
10, 4
9, 8
11, 10
11, 6
11, 11
5, 5
12, 4
8, 5
9, 2
6, 3
6, 3
5, 7
5, 8
3, 4
6, 6
2, 2
4, 5
7, 5
5, 2
3, 4
3, 9
2, 4
4, 5
7, 5
4, 2
3, 0
1, 2
3, 3
4, 3
3, 3
3, 1
4, 3
3, 6
7, 5
5, 2
8, 5
7, 4
3, 3
7, 5
9, 3
5, 2
8, 1
3, 2
4, 4
6, 7
7, 3
3, 3
4, 8
3, 3
1, 3
4, 9
4, 3
6, 2
3, 1
4, 3
2, 4
1, 5
2, 2
3, 2
2, 4
2, 2
4, 3
3, 4
2, 1
3, 2
9, 3
5, 2
2, 3
3, 4
3, 1
3, 5
5, 3
3, 1
2, 2
2, 6
0, 2
3, 0
3, 5
3, 5
2, 4
6, 2
5, 3
2, 2
3, 4
10, 1
3, 5
1, 1
4, 5
2, 0
1, 4
2, 4
3, 0
0, 4
2, 2
3, 3
0, 4
2, 2
2, 6
5, 8
1, 6
3, 8
0, 13
2, 7
2, 4
1, 6
3, 5
1, 4
0, 1
2, 3
6, 1
1, 1
4, 1
2, 1
2, 4
5, 0
1, 1
2, 2
4, 3
4, 5
3, 2
5, 2
3, 2
4, 1
0, 3
1, 4
2, 4
2, 2
4, 4
0, 1
3, 2
0, 0
4, 1
2, 3
2, 5
0, 3
2, 1
0, 2
1, 4
3, 4
5, 1
1, 3
3, 3
3, 2
2, 2
8, 0
5, 1
3, 1
1, 3
1, 1
2, 3
1, 4
2, 2
1, 1
1, 1
2, 0
2, 1
1, 2
2, 2
2, 3
1, 1
4, 2
0, 3
3, 1
1, 2
2, 1
1, 3
3, 1
2, 1
0, 2
2, 4
0, 0
5, 3
1, 1
2, 1
2, 0
3, 0
2, 2
1, 1
0, 2
1, 0
3, 2
4, 3
0, 1
2, 4
3, 0
1, 2
3, 1
3, 1
1, 0
0, 2
1, 1
2, 3
1, 0
1, 1
2, 0
1, 2
3, 1
1, 1
2, 0
1, 0
3, 1
1, 0
0, 0
3, 3
0, 0
2, 2
0, 0
2, 0
0, 0
1, 0
0, 1
1, 1
1, 0
0, 1
2, 0
0, 2
1, 2
1, 2
1, 1
1, 0
0, 0
1, 1
1, 2
1, 1
1, 1
1, 0
1, 0
0, 1
0, 1
1, 0
1, 2
1, 1
0, 1
0, 0
2, 0
2, 1
0, 1
2, 2
3, 3
2, 0
1, 1
4, 0
1, 0
1, 0
1, 0
1, 0
1, 3
0, 1
0, 0
0, 1
1, 0
1, 1
0, 0
0, 2
1, 0
1, 1
0, 2
1, 0
1, 0
0, 0
0, 2
0, 1
0, 0
1, 1
1, 0
1, 0
2, 2
1, 2
2, 1
0, 1
1, 0
0, 0
0, 0
0, 0
0, 0
0, 0
0, 1
0, 0
1, 0
1, 1
2, 0
0, 1
0, 1
0, 0
1, 1
0, 2
0, 1
0, 1
2, 0
1, 2
0, 1
0, 0
1, 0
0, 1
0, 0
0, 0
2, 1
1, 1
0, 2
1, 0
0, 2
2, 0
1, 0
1, 0
0, 0
0, 1
0, 0
2, 1
0, 0
1, 0
0, 1
0, 1
0, 0
1, 0
0, 0
0, 0
0, 1
0, 1
0, 0
0, 0
2, 0
1, 1
1, 0
0, 0
0, 1
0, 1
0, 2
0, 0
0, 1
1, 0
1, 0
0, 0
0, 0
0, 2
0, 0
0, 0
0, 0
1, 0
0, 0
0, 0
1, 1
0, 0
0, 0
0, 0
0, 1
0, 1
0, 1
1, 1
0, 0
1, 0
0, 1
0, 0
0, 0
0, 1
0, 0
1, 0
0, 0
1, 1
0, 0
0, 1
1, 0
0, 0
1, 0
0, 0
1, 0
0, 0
0, 0
1, 0
1, 0
0, 0
1, 0
0, 1
0, 1
0, 0
0, 0
2, 0
1, 0
0, 0
1, 0
1, 0
0, 1
0, 0
0, 1
0, 0
0, 0
1, 0
0, 0
0, 0
1, 0
0, 0
0, 1
0, 0
0, 0
0, 1
0, 1
0, 1
0, 0
1, 0
0, 1
0, 1
0, 0
1, 0
0, 0
0, 0
0, 2
1, 0
0, 0
0, 0
0, 0
0, 0
0, 0
0, 0
0, 0
1, 0
1, 0
0, 0
0, 0
0, 0
2, 0
0, 0
0, 0
0, 0
0, 0
0, 0
0, 0
0, 1
0, 0
0, 0
0, 0
0, 0
0, 0
0, 0
0, 0
0, 0
0, 0
0, 0
0, 0
1, 0
1, 0
0, 0
0, 0
1, 0
0, 0
0, 0
0, 0
0, 0
1, 0
0, 0
0, 0
0, 0
0, 0
0, 0
0, 0
0, 0
0, 0
0, 0
0, 0
1, 1
0, 0
0, 0
0, 0
0, 0
0, 0
0, 0
0, 0
1, 0
0, 0
0, 0
0, 0
0, 0
0, 0
0, 0
0, 0
0, 0
0, 0
0, 0
0, 0
0, 0
0, 1
0, 0
0, 0
0, 0
0, 0
0, 0
0, 0
0, 0
0, 0
1, 1
0, 0
1, 0
0, 0
0, 0
0, 0
0, 0
0, 0
0, 0
0, 0
1, 0
0, 1
0, 0
0, 0
0, 0
0, 0
0, 0
0, 0
0, 0
0, 0
0, 0
0, 0
0, 0
0, 0
0, 1
1, 0
0, 0
0, 0
0, 0
0, 0
0, 0
0, 0
0, 0
0, 0
0, 0
0, 0
0, 0
0, 0
0, 0
0, 0
0, 0
0, 0
0, 0
0, 0
0, 0
0, 0
0, 0
0, 0
0, 0
0, 0
0, 0
0, 1
0, 0
0, 0
0, 0
0, 0
0, 0
0, 0
1, 0
0, 0
0, 0
0, 0
0, 0
0, 0
0, 1
0, 0
0, 0
0, 0
0, 0
0, 0
0, 0
0, 0
0, 0
0, 0
0, 0
0, 0
0, 0
1, 1
1, 0
0, 0
0, 0
0, 0
0, 0
0, 0
0, 0
0, 0
0, 0
0, 0
0, 0
0, 0
0, 0
0, 0
0, 0
0, 0
0, 0
0, 0
0, 0
0, 0
0, 0
0, 0
0, 0
0, 0
0, 0
0, 0
0, 0
0, 0
0, 0
0, 0
0, 0
0, 0
0, 0
0, 0
0, 0
0, 0
0, 0
0, 0
0, 0
0, 0
0, 0
0, 0
0, 0
0, 0
0, 0
0, 0
0, 0
0, 0
0, 0
0, 0
0, 0
0, 0
0, 0
0, 0
0, 0
0, 0
0, 0
0, 0
0, 0
0, 0
0, 0
0, 0
0, 0
0, 0
0, 0
0, 0
0, 0
0, 0
0, 0
0, 0
0, 0
0, 0
0, 0
0, 0
0, 0
0, 0
0, 0
0, 0
0, 0
0, 0
0, 0
0, 0
0, 0
0, 0
0, 0
0, 0
0, 0
0, 0
0, 0
0, 0
0, 0
0, 0
0, 0
0, 0
0, 0
0, 0
0, 0
0, 0
0, 0
0, 0
0, 0
0, 0
0, 0
0, 0
0, 0
0, 0
0, 0
0, 0
0, 0
0, 0
0, 0
0, 0
0, 0
0, 0
0, 0
1, 0
0, 0
0, 0
0, 0
0, 0
0, 0
0, 0
0, 0
0, 0
0, 0
0, 0
0, 0
0, 0
0, 0
0, 0
0, 0
0, 0
0, 0
0, 0
0, 0
0, 0
0, 0
0, 0
0, 0
0, 0
0, 0
0, 0
0, 0
0, 0
0, 0
0, 0
0, 0
0, 0
0, 0
0, 0
0, 0
0, 0
0, 0
0, 0
0, 0
0, 0
0, 0
0, 0
0, 0
0, 0
0, 0
0, 0
0, 0
0, 0
0, 0
0, 0
0, 0
0, 0
0, 0
0, 0
0, 0
0, 0
0, 0
0, 0
0, 0
0, 0
0, 0
0, 0
0, 0
0, 0
0, 0
0, 0
0, 0
0, 0
0, 0
0, 0
0, 0
0, 0
0, 0
0, 0
0, 0
0, 0
0, 0
0, 0
0, 0
0, 0
0, 0
0, 0
0, 0
0, 0
0, 0
0, 0
0, 0
0, 0
0, 0
0, 0
0, 0
0, 0
0, 0
0, 0
0, 0
0, 0
0, 0
0, 0
0, 0
0, 0
0, 0
0, 0
0, 0
0, 0
0, 0
0, 0
0, 0
0, 0
0, 0
0, 0
0, 0
0, 0
0, 0
0, 0
0, 0
0, 0
0, 0
0, 0
0, 0
0, 0
0, 0
0, 0
0, 0
0, 0
0, 0
0, 0
0, 0
0, 0
0, 0
0, 0
0, 0
0, 0
0, 0
0, 0
0, 0
0, 0
0, 0
0, 0
0, 0
0, 0
0, 0
0, 0
0, 0
0, 0
0, 0
0, 0
0, 0
0, 0
0, 0
0, 0
0, 0
0, 0
0, 0
0, 0
0, 0
0, 0
0, 0
0, 0
0, 0
0, 0
0, 0
0, 0
0, 0
0, 0
0, 0
0, 0
0, 0
0, 0
0, 0
0, 0
0, 0
0, 0
0, 0
0, 0
0, 0
0, 0
0, 0
0, 0
0, 0
0, 0
0, 0
0, 0
0, 0
0, 0
0, 0
0, 0
0, 0
0, 0
0, 0
0, 0
0, 0
0, 0
0, 0
0, 0
0, 0
0, 0
0, 0
0, 0
0, 0
0, 0
0, 0
0, 0
0, 0
0, 0
0, 0
0, 0
0, 0
0, 0
0, 0
0, 0
0, 0
0, 0
0, 0
0, 0
0, 0
0, 0
0, 0
0, 0
0, 0
0, 0
0, 0
0, 0
0, 0
0, 0
0, 0
0, 0
0, 0
0, 0
0, 0
0, 0
0, 0
0, 0
0, 0
0, 0
0, 0
0, 0
0, 0
0, 0
0, 0
0, 0
0, 0
0, 0
0, 0
0, 0
0, 0
0, 0
0, 0
0, 0
0, 0
0, 0
0, 0
0, 0
0, 0
0, 0
0, 0
0, 0
0, 0
0, 0
0, 0
0, 0
0, 0
0, 0
0, 0
0, 0
0, 0
0, 0
0, 0
0, 0
0, 0
0, 0
0, 0
0, 0
0, 0
0, 0
0, 0
0, 0
0, 0
0, 0
0, 0
0, 0
0, 0
0, 0
0, 0
0, 0
0, 0
0, 0
0, 0
0, 0
0, 0
0, 0
0, 0
#ENDOFDATA     end of spectrum data