File: host_upload/12-01-2023/Dourbes (shot-by-shot)/upload_4/ps__0257_0689790785_000rfs_shot_3127.msa
#FORMAT      : EMSA/MAS spectral data file
#VERSION     : TC202v2.0 PIXL
#TITLE       : N/A
#DATE        :       Date in the format DD-MMM-YYYY, for example 07-JUL-2010
#TIME        :             The time of day at which the spectrum was recorded, in 24-hour format
#OWNER       : PIXL Flight Model       (PIXL will use this to indicate which instrument took the data.)
#NPOINTS     : 4096     Number of data points in the spectrum (This can be zero for configuration only files)
#NCOLUMNS    : 2     Number of data columns in the spectrum (This can be zero for configuration only files)
#XUNITS      : eV
#YUNITS      : COUNTS
#DATATYPE    : YY
#XPERCHAN    : 7.862, 7.881   eV per channel (separate by commas if more than one detector)
#OFFSET      : 18.5, -22.4         eV of first channel  (separate by commas if more than one detector
#SIGNALTYPE  : XRF
#YP_TEMP     : 3.198
#LIVETIME    : 9.0113, 8.99614   seconds (separate by commas if more than one detector)
#REALTIME    : 10, 10.0   seconds (separate by commas if more than one detector)
#SPECTRUM    : start of spectrum data
0, 0
0, 0
0, 0
0, 0
0, 0
0, 0
0, 0
0, 0
0, 0
0, 0
0, 0
0, 0
0, 0
0, 0
0, 0
0, 0
0, 0
0, 0
0, 0
0, 0
0, 0
0, 0
0, 0
0, 0
0, 0
0, 0
0, 0
0, 0
0, 0
0, 0
0, 0
0, 0
0, 0
0, 0
0, 0
0, 1
0, 0
0, 2
0, 0
0, 0
0, 2
1, 1
2, 2
2, 0
0, 1
0, 0
2, 0
0, 0
2, 2
11, 6
9, 15
27, 16
49, 45
47, 54
64, 57
50, 61
50, 24
28, 24
15, 13
7, 2
3, 2
4, 5
4, 5
2, 2
3, 3
1, 2
7, 4
11, 6
13, 15
47, 27
87, 58
142, 170
267, 266
405, 445
457, 515
480, 495
436, 430
310, 289
176, 192
93, 112
56, 55
21, 20
11, 19
5, 4
5, 3
2, 2
2, 4
0, 2
1, 6
1, 2
2, 0
1, 0
1, 1
5, 3
0, 1
2, 1
1, 5
5, 2
4, 2
8, 6
4, 3
3, 8
4, 5
5, 0
3, 1
1, 3
5, 5
12, 8
15, 19
17, 30
32, 29
36, 40
59, 57
72, 63
62, 49
48, 48
24, 32
27, 42
27, 27
17, 24
21, 22
12, 14
24, 20
22, 16
16, 19
10, 15
11, 13
11, 9
13, 11
4, 2
8, 6
5, 5
2, 1
5, 3
2, 2
2, 2
3, 1
1, 3
2, 2
3, 3
2, 6
2, 5
1, 3
1, 1
3, 1
0, 1
0, 2
3, 3
2, 1
4, 1
2, 2
5, 4
7, 9
10, 13
13, 23
12, 18
18, 29
21, 27
28, 23
18, 18
13, 15
11, 8
14, 10
4, 4
5, 4
5, 4
4, 4
5, 7
6, 4
9, 8
11, 10
3, 6
5, 5
12, 5
7, 3
7, 6
11, 1
14, 5
11, 5
11, 5
18, 3
10, 1
13, 8
8, 5
5, 5
5, 5
9, 3
6, 8
11, 3
8, 8
13, 8
4, 9
13, 8
11, 13
23, 18
16, 14
18, 15
13, 28
16, 27
18, 11
14, 18
17, 10
15, 11
9, 3
7, 4
3, 5
6, 7
5, 12
6, 9
4, 8
4, 4
9, 7
9, 8
7, 12
4, 17
2, 10
8, 9
2, 5
9, 6
5, 8
7, 8
6, 4
7, 4
7, 15
7, 9
13, 10
3, 6
16, 11
13, 15
14, 11
12, 11
6, 9
6, 13
11, 15
9, 14
8, 7
12, 12
8, 9
6, 9
6, 6
6, 10
19, 7
9, 6
7, 16
11, 15
25, 28
37, 36
57, 58
62, 81
60, 100
94, 104
98, 109
70, 80
69, 85
66, 65
43, 82
37, 63
25, 72
16, 105
24, 104
27, 84
41, 103
47, 109
67, 153
166, 244
371, 464
635, 783
1051, 1309
1638, 2062
2371, 2799
3033, 3533
3621, 3988
3737, 4012
3672, 3470
3202, 2911
2518, 2133
1745, 1458
1119, 905
690, 473
341, 270
184, 129
84, 71
45, 29
27, 16
13, 17
19, 14
21, 18
22, 17
13, 17
27, 26
29, 25
39, 47
54, 69
74, 117
126, 159
198, 247
284, 344
393, 464
487, 483
522, 583
556, 569
524, 514
410, 428
341, 282
221, 195
156, 119
79, 79
49, 25
28, 18
11, 11
9, 9
2, 4
0, 4
2, 5
6, 6
7, 4
6, 5
8, 7
9, 9
8, 5
6, 7
6, 8
7, 5
5, 7
3, 5
3, 6
3, 5
2, 6
1, 2
3, 5
3, 4
2, 1
6, 4
4, 1
7, 2
0, 4
6, 1
7, 2
11, 0
8, 3
16, 4
10, 9
13, 4
10, 10
9, 5
8, 13
11, 6
5, 11
7, 6
8, 7
3, 4
5, 6
2, 5
4, 1
5, 6
4, 2
2, 10
3, 5
3, 1
0, 2
4, 3
1, 5
1, 5
4, 5
0, 3
3, 3
2, 2
6, 2
6, 4
1, 2
2, 3
2, 3
0, 6
2, 2
4, 3
3, 8
3, 2
3, 4
1, 2
4, 2
2, 0
2, 1
4, 0
1, 3
4, 3
2, 1
3, 3
5, 2
1, 0
2, 3
2, 5
3, 2
0, 2
1, 4
5, 5
4, 2
4, 1
4, 3
4, 0
9, 4
6, 2
4, 0
5, 7
7, 2
9, 2
12, 3
10, 0
6, 2
8, 2
7, 2
9, 3
6, 1
7, 1
3, 1
1, 2
2, 3
2, 0
1, 0
4, 2
6, 2
2, 1
1, 0
1, 1
5, 1
3, 3
2, 2
3, 4
5, 2
3, 5
3, 2
2, 4
3, 2
2, 3
2, 2
3, 2
1, 2
1, 3
2, 2
4, 1
0, 1
4, 2
2, 1
0, 3
1, 3
1, 2
3, 1
1, 1
1, 1
3, 3
3, 2
2, 3
3, 1
3, 1
4, 2
0, 0
0, 2
0, 3
3, 1
2, 1
0, 1
0, 1
2, 4
2, 1
3, 2
2, 3
2, 4
2, 2
0, 2
1, 5
4, 1
0, 1
0, 1
1, 1
1, 2
1, 0
1, 1
3, 2
0, 1
5, 2
1, 1
0, 2
1, 1
2, 3
2, 0
1, 0
4, 1
0, 3
3, 6
0, 2
3, 2
3, 2
1, 2
2, 2
3, 1
1, 0
3, 2
2, 3
2, 1
1, 2
3, 4
2, 2
2, 3
3, 0
1, 3
0, 1
2, 1
3, 2
1, 0
0, 0
0, 1
1, 1
1, 1
2, 4
0, 2
3, 1
5, 1
2, 2
1, 5
0, 0
1, 3
3, 3
1, 2
3, 0
0, 1
1, 1
0, 2
1, 1
2, 3
1, 1
0, 2
2, 3
0, 0
4, 2
1, 3
1, 1
2, 1
2, 3
4, 5
4, 4
2, 7
6, 4
5, 7
1, 6
7, 6
7, 5
10, 8
3, 4
3, 3
0, 1
1, 0
3, 1
1, 0
1, 0
0, 0
1, 2
1, 3
3, 2
0, 3
1, 1
0, 2
2, 1
1, 4
2, 1
3, 1
1, 1
0, 2
3, 3
2, 2
2, 2
1, 5
2, 3
4, 3
1, 3
2, 0
1, 2
3, 1
2, 2
5, 2
0, 2
0, 2
1, 0
3, 1
2, 0
1, 0
3, 3
1, 1
2, 2
4, 1
0, 0
1, 1
2, 2
0, 0
1, 1
0, 2
1, 2
0, 1
0, 2
1, 0
2, 0
0, 1
0, 1
0, 2
5, 0
1, 0
0, 0
1, 1
1, 0
0, 1
0, 0
1, 0
1, 1
1, 0
0, 0
1, 0
0, 0
0, 1
1, 1
2, 0
0, 2
1, 0
1, 2
1, 0
0, 0
1, 1
1, 2
0, 1
3, 1
1, 1
1, 0
0, 0
0, 0
0, 0
1, 1
0, 0
0, 2
0, 0
0, 0
1, 0
1, 0
0, 2
0, 0
1, 0
1, 1
1, 1
0, 0
0, 1
0, 0
1, 0
0, 0
0, 0
1, 0
0, 2
0, 0
0, 0
0, 0
0, 0
0, 1
4, 0
0, 0
0, 0
2, 0
1, 0
1, 1
0, 0
1, 0
0, 1
0, 1
0, 0
0, 0
0, 0
0, 0
0, 0
0, 0
0, 0
0, 1
2, 0
0, 0
0, 1
2, 0
0, 0
0, 1
1, 1
0, 1
0, 0
0, 0
0, 0
0, 1
0, 0
0, 2
0, 0
0, 0
0, 0
0, 0
0, 0
0, 2
0, 1
0, 0
0, 0
0, 0
0, 0
0, 0
1, 0
1, 0
0, 1
1, 1
0, 0
0, 1
0, 0
2, 0
0, 0
0, 0
0, 0
0, 0
0, 4
2, 0
0, 0
1, 0
0, 1
0, 0
0, 0
0, 0
0, 0
0, 0
0, 0
0, 0
0, 0
0, 1
2, 1
0, 0
0, 0
1, 0
0, 1
0, 1
0, 0
0, 0
0, 0
0, 0
0, 0
1, 0
1, 1
1, 0
0, 0
0, 0
0, 1
0, 1
0, 0
0, 1
0, 1
0, 0
0, 0
0, 0
1, 0
0, 0
1, 0
0, 0
1, 0
0, 0
0, 0
1, 0
1, 1
0, 0
0, 0
1, 0
0, 0
0, 0
0, 0
0, 0
0, 0
0, 0
0, 0
0, 0
0, 0
0, 0
0, 0
0, 0
0, 0
0, 0
0, 0
1, 0
0, 0
0, 0
0, 0
1, 1
1, 0
1, 0
0, 0
1, 1
1, 0
2, 0
0, 0
0, 0
0, 0
0, 0
0, 0
1, 1
0, 0
1, 1
1, 0
1, 0
0, 1
0, 0
0, 0
0, 0
0, 0
1, 0
0, 0
0, 0
0, 0
0, 0
0, 0
0, 0
0, 0
0, 0
1, 0
0, 0
0, 0
0, 0
0, 0
0, 0
0, 0
0, 0
0, 0
0, 0
0, 0
0, 0
0, 0
0, 0
0, 0
0, 0
0, 0
0, 0
0, 0
0, 0
0, 0
0, 0
0, 0
0, 0
0, 0
0, 0
0, 0
0, 0
0, 0
0, 1
1, 0
0, 0
0, 1
0, 0
0, 0
0, 0
0, 1
0, 0
0, 0
0, 0
0, 0
0, 0
0, 0
0, 0
0, 0
0, 0
0, 0
0, 0
1, 0
1, 0
0, 0
0, 0
0, 0
0, 0
0, 0
0, 0
0, 0
0, 0
0, 0
0, 0
0, 0
0, 0
0, 0
0, 0
0, 0
0, 0
0, 0
0, 0
0, 0
0, 0
0, 0
0, 0
0, 0
0, 0
0, 0
0, 0
0, 0
0, 0
0, 0
0, 0
0, 0
0, 0
0, 0
0, 0
0, 0
0, 0
0, 0
0, 0
0, 0
0, 0
0, 0
0, 0
0, 0
1, 0
0, 0
0, 0
0, 0
0, 0
0, 0
0, 0
0, 0
0, 0
1, 0
0, 0
0, 0
0, 0
0, 0
0, 0
0, 0
0, 1
0, 0
0, 0
0, 0
0, 1
0, 0
0, 0
0, 0
0, 0
0, 0
0, 0
0, 0
0, 0
0, 0
0, 0
0, 0
0, 0
0, 0
0, 0
0, 0
0, 0
0, 0
0, 0
0, 0
0, 0
0, 0
0, 0
0, 1
0, 0
0, 0
0, 0
0, 1
0, 0
0, 0
0, 0
0, 0
0, 0
0, 0
0, 0
0, 0
0, 0
0, 0
0, 0
0, 0
0, 0
0, 0
0, 0
0, 0
0, 0
0, 0
0, 0
0, 0
0, 0
0, 0
0, 0
0, 0
0, 0
0, 0
0, 0
0, 0
0, 0
0, 0
0, 0
0, 0
0, 0
0, 0
0, 0
0, 0
0, 0
0, 0
0, 0
0, 0
0, 0
0, 0
0, 0
0, 0
0, 0
0, 0
0, 0
0, 0
0, 0
1, 0
0, 0
0, 0
0, 0
0, 0
0, 0
0, 0
0, 0
0, 0
0, 0
0, 0
0, 0
0, 0
0, 0
1, 0
0, 0
0, 0
0, 0
0, 0
0, 0
0, 0
0, 0
0, 0
0, 0
0, 0
0, 0
0, 0
0, 0
1, 0
0, 0
0, 0
0, 0
0, 0
0, 0
0, 0
0, 0
0, 0
0, 0
0, 0
0, 0
0, 0
0, 0
0, 0
0, 0
0, 0
0, 0
0, 0
0, 0
0, 0
0, 0
0, 0
0, 0
1, 0
0, 0
0, 0
0, 0
0, 0
0, 0
0, 0
0, 0
0, 0
0, 0
0, 0
0, 0
0, 0
0, 0
0, 0
0, 0
0, 0
0, 0
0, 0
0, 0
0, 0
0, 0
0, 0
0, 0
0, 0
0, 0
0, 0
0, 0
0, 0
0, 0
0, 0
0, 0
0, 0
0, 0
0, 0
0, 0
0, 0
0, 0
0, 0
0, 0
0, 0
0, 0
0, 0
0, 0
0, 0
0, 0
0, 0
0, 0
0, 0
0, 0
0, 0
0, 0
0, 0
0, 0
0, 0
0, 0
0, 0
0, 0
0, 0
0, 0
0, 0
0, 0
0, 0
0, 0
0, 0
0, 0
0, 0
0, 0
0, 0
0, 0
0, 0
0, 0
0, 0
0, 0
0, 0
0, 0
0, 0
0, 0
0, 0
0, 0
0, 0
0, 0
0, 0
0, 0
0, 0
0, 0
0, 0
0, 0
0, 0
0, 0
0, 0
0, 0
0, 0
0, 0
0, 0
0, 0
0, 0
0, 0
0, 0
0, 0
0, 0
0, 0
0, 0
0, 0
0, 0
0, 0
0, 0
0, 0
0, 0
0, 0
0, 0
0, 0
0, 0
0, 0
0, 0
0, 0
0, 0
0, 0
0, 0
0, 0
0, 0
0, 0
0, 0
0, 0
0, 0
0, 0
0, 0
0, 0
0, 0
0, 0
0, 0
0, 0
0, 0
0, 0
0, 0
0, 0
0, 0
0, 0
0, 0
0, 0
0, 0
0, 0
0, 0
0, 0
0, 0
0, 0
0, 0
0, 0
0, 0
0, 0
0, 0
0, 0
0, 0
0, 0
0, 0
0, 0
0, 0
0, 0
0, 0
0, 0
0, 0
0, 0
0, 0
0, 0
0, 0
0, 0
0, 0
0, 0
0, 0
0, 0
0, 0
0, 0
0, 0
0, 0
0, 0
0, 0
0, 0
0, 0
0, 0
0, 0
0, 0
0, 0
0, 0
0, 0
0, 0
0, 0
0, 0
0, 0
0, 0
0, 0
0, 0
0, 0
0, 0
0, 0
0, 0
0, 0
0, 0
0, 0
0, 0
0, 0
0, 0
0, 0
0, 0
0, 0
0, 0
0, 0
0, 0
0, 0
0, 0
0, 0
0, 0
0, 0
0, 0
0, 0
0, 0
0, 0
0, 0
0, 0
0, 0
0, 0
0, 0
0, 0
0, 0
0, 0
0, 0
0, 0
0, 0
0, 0
0, 0
0, 0
0, 0
0, 0
0, 0
0, 0
0, 0
0, 0
0, 0
0, 0
0, 0
0, 0
0, 0
0, 0
0, 0
0, 0
0, 0
0, 0
0, 0
0, 0
0, 0
0, 0
0, 0
0, 0
0, 0
0, 0
0, 0
0, 0
0, 0
0, 0
0, 0
0, 0
0, 0
0, 0
0, 0
0, 0
0, 0
0, 0
0, 0
0, 0
0, 0
0, 0
0, 0
0, 0
0, 0
0, 0
0, 0
0, 0
0, 0
0, 0
0, 0
0, 0
0, 0
0, 0
0, 0
0, 0
0, 0
0, 0
0, 0
0, 0
0, 0
0, 0
0, 0
0, 0
0, 0
0, 0
0, 0
0, 0
0, 0
0, 0
0, 0
0, 0
0, 0
0, 0
0, 0
0, 0
0, 0
0, 0
0, 0
0, 0
0, 0
0, 0
0, 0
#ENDOFDATA     end of spectrum data