File: host_upload/12-01-2023/Dourbes (shot-by-shot)/upload_4/ps__0257_0689790785_000rfs_shot_3054.msa
#FORMAT      : EMSA/MAS spectral data file
#VERSION     : TC202v2.0 PIXL
#TITLE       : N/A
#DATE        :       Date in the format DD-MMM-YYYY, for example 07-JUL-2010
#TIME        :             The time of day at which the spectrum was recorded, in 24-hour format
#OWNER       : PIXL Flight Model       (PIXL will use this to indicate which instrument took the data.)
#NPOINTS     : 4096     Number of data points in the spectrum (This can be zero for configuration only files)
#NCOLUMNS    : 2     Number of data columns in the spectrum (This can be zero for configuration only files)
#XUNITS      : eV
#YUNITS      : COUNTS
#DATATYPE    : YY
#XPERCHAN    : 7.862, 7.881   eV per channel (separate by commas if more than one detector)
#OFFSET      : 18.5, -22.4         eV of first channel  (separate by commas if more than one detector
#SIGNALTYPE  : XRF
#YP_TEMP     : 3.165
#LIVETIME    : 8.78471, 8.94541   seconds (separate by commas if more than one detector)
#REALTIME    : 10, 10.0   seconds (separate by commas if more than one detector)
#SPECTRUM    : start of spectrum data
0, 0
0, 0
0, 0
0, 0
0, 0
0, 0
0, 0
0, 0
0, 0
0, 0
0, 0
0, 0
0, 0
0, 0
0, 0
0, 0
0, 0
0, 0
0, 0
0, 0
0, 0
0, 0
0, 0
0, 0
0, 0
0, 0
0, 0
0, 0
0, 0
0, 0
0, 0
1, 0
1, 0
1, 0
4, 0
8, 0
8, 0
19, 0
28, 6
66, 1
65, 0
103, 3
89, 3
68, 6
47, 1
37, 1
19, 2
5, 3
9, 4
13, 6
17, 10
26, 24
40, 26
52, 45
46, 46
46, 47
42, 36
28, 16
14, 12
14, 10
5, 5
3, 3
7, 4
12, 4
10, 2
9, 5
5, 6
11, 8
29, 7
31, 22
66, 78
159, 141
223, 230
324, 313
402, 394
396, 431
346, 379
233, 254
140, 169
91, 92
55, 39
31, 19
13, 16
10, 8
8, 6
12, 3
4, 3
7, 6
10, 3
9, 1
7, 2
9, 2
11, 6
21, 21
37, 35
70, 75
112, 105
134, 157
164, 172
165, 183
157, 139
111, 104
77, 58
67, 33
36, 26
31, 14
34, 12
98, 26
153, 34
401, 47
898, 89
1772, 80
2984, 130
4547, 154
5852, 144
6245, 134
5986, 128
4923, 93
3260, 68
2004, 52
1007, 51
464, 30
203, 26
94, 24
49, 22
21, 18
16, 22
13, 18
13, 16
9, 9
8, 12
7, 6
2, 1
7, 6
5, 1
7, 5
4, 8
8, 7
7, 8
2, 6
5, 3
4, 3
3, 7
2, 3
5, 2
2, 1
3, 4
1, 1
2, 2
1, 2
3, 4
5, 5
9, 9
16, 15
28, 29
40, 31
41, 39
43, 53
51, 36
39, 35
29, 26
12, 17
8, 14
3, 3
7, 7
4, 8
3, 7
7, 2
8, 4
12, 8
15, 14
9, 14
15, 7
6, 6
12, 7
6, 7
8, 3
5, 6
4, 3
2, 4
5, 3
4, 3
5, 6
3, 3
9, 3
5, 4
16, 4
5, 6
6, 6
9, 12
15, 19
11, 27
19, 41
21, 52
9, 92
18, 89
30, 103
22, 111
20, 125
23, 87
23, 73
19, 52
13, 26
5, 18
6, 10
8, 12
9, 6
3, 11
8, 11
7, 8
5, 8
10, 7
10, 7
11, 6
5, 7
9, 9
5, 6
8, 8
9, 5
6, 11
3, 8
8, 10
7, 5
7, 7
6, 8
16, 10
26, 14
25, 10
31, 12
36, 9
28, 11
25, 8
31, 14
15, 11
18, 14
13, 11
6, 10
13, 4
14, 14
6, 8
11, 7
8, 16
6, 11
18, 13
15, 18
24, 20
28, 49
50, 69
73, 80
90, 83
111, 98
82, 90
82, 94
72, 78
65, 66
48, 47
32, 44
17, 35
26, 31
20, 26
17, 26
30, 34
46, 46
87, 91
153, 215
347, 422
600, 768
1054, 1331
1653, 2066
2314, 2746
3073, 3505
3542, 3798
3851, 3735
3594, 3546
3153, 2896
2446, 2137
1739, 1418
1104, 903
639, 509
363, 250
198, 126
103, 67
57, 36
47, 22
62, 17
53, 7
57, 20
83, 16
78, 15
75, 22
81, 34
94, 34
88, 73
108, 91
132, 156
196, 238
312, 352
365, 431
454, 502
517, 533
528, 557
492, 462
438, 383
334, 315
233, 186
152, 135
81, 59
43, 33
28, 15
19, 6
10, 10
4, 4
7, 6
2, 7
4, 7
7, 7
7, 9
8, 9
8, 10
6, 3
3, 8
7, 9
3, 5
5, 2
0, 2
8, 7
3, 5
3, 7
5, 6
2, 11
1, 15
2, 13
7, 9
4, 12
2, 16
6, 10
1, 8
2, 7
3, 10
4, 3
3, 3
2, 3
2, 3
4, 2
5, 4
7, 1
8, 3
4, 2
2, 4
8, 2
2, 3
1, 4
6, 5
5, 3
5, 5
6, 3
3, 3
6, 3
2, 2
3, 2
4, 1
3, 6
4, 4
3, 2
3, 1
3, 6
6, 8
4, 4
5, 9
3, 4
3, 3
3, 3
3, 6
7, 0
4, 2
4, 1
3, 2
3, 1
2, 5
8, 2
7, 5
11, 4
10, 4
16, 1
16, 2
25, 1
25, 3
21, 8
16, 3
13, 8
7, 10
13, 11
3, 12
6, 16
6, 16
7, 18
4, 7
5, 11
13, 6
12, 10
9, 11
2, 4
3, 3
4, 1
3, 3
5, 5
4, 3
6, 1
3, 3
3, 1
7, 2
3, 2
5, 4
4, 4
4, 2
7, 4
2, 1
0, 1
1, 2
2, 1
3, 2
5, 5
3, 3
0, 0
1, 2
3, 1
1, 2
3, 0
1, 2
3, 3
3, 3
0, 1
2, 0
2, 1
0, 2
0, 2
0, 3
3, 2
0, 3
0, 2
3, 4
2, 3
1, 3
2, 3
2, 1
3, 3
3, 1
1, 4
1, 0
5, 2
2, 0
1, 1
6, 1
6, 5
4, 1
6, 2
9, 4
7, 2
7, 1
6, 1
15, 1
10, 3
17, 2
5, 0
3, 1
6, 1
5, 2
2, 2
4, 1
4, 2
3, 2
3, 2
1, 2
0, 4
0, 2
0, 2
2, 2
0, 1
0, 3
0, 0
4, 4
5, 2
1, 1
1, 1
0, 2
3, 1
0, 3
1, 1
1, 3
2, 1
2, 0
1, 4
1, 4
3, 2
0, 3
0, 2
1, 1
0, 0
1, 2
0, 1
1, 1
1, 0
0, 1
1, 0
5, 0
2, 2
1, 1
1, 2
1, 4
2, 2
0, 2
0, 1
1, 1
2, 1
3, 0
1, 4
1, 1
3, 0
4, 1
0, 1
0, 1
7, 1
1, 0
1, 0
0, 1
3, 1
2, 3
0, 0
1, 2
1, 2
3, 0
1, 3
2, 1
2, 1
2, 0
3, 2
3, 3
4, 5
8, 7
4, 5
3, 9
4, 5
8, 4
8, 3
2, 3
11, 2
5, 3
5, 4
1, 1
1, 2
1, 2
3, 2
2, 2
1, 1
2, 0
1, 0
1, 1
0, 3
1, 2
1, 0
1, 1
1, 1
0, 0
3, 2
2, 2
3, 3
1, 3
3, 4
3, 3
2, 2
2, 2
2, 2
1, 1
0, 4
2, 0
1, 3
1, 1
2, 0
1, 3
3, 0
0, 0
2, 1
0, 0
5, 1
0, 2
0, 1
0, 1
2, 0
1, 0
1, 1
1, 0
0, 0
1, 0
0, 0
1, 1
1, 1
1, 0
0, 1
0, 0
0, 0
0, 0
1, 1
2, 0
1, 0
0, 0
0, 3
0, 0
1, 1
1, 2
1, 0
1, 1
2, 0
0, 2
1, 3
2, 1
0, 0
1, 1
0, 0
3, 1
2, 0
0, 1
0, 2
0, 0
0, 2
1, 0
0, 0
0, 0
0, 0
2, 0
0, 0
2, 1
4, 0
0, 0
0, 0
0, 0
1, 0
5, 0
1, 0
0, 1
0, 0
0, 0
0, 0
2, 0
0, 1
0, 0
0, 0
0, 0
0, 1
1, 1
1, 0
0, 0
0, 1
0, 2
0, 1
0, 0
0, 2
1, 1
0, 0
0, 0
1, 0
1, 0
1, 1
0, 0
0, 1
0, 0
0, 0
0, 2
0, 0
2, 1
0, 1
0, 1
1, 0
0, 2
0, 2
0, 0
0, 0
0, 0
0, 1
0, 1
0, 1
0, 1
0, 1
1, 0
0, 0
2, 0
0, 0
0, 0
0, 0
0, 0
0, 0
1, 0
1, 0
1, 0
0, 1
1, 0
0, 0
1, 0
0, 0
1, 0
2, 1
0, 0
1, 1
0, 0
0, 1
0, 0
0, 0
0, 0
0, 0
1, 0
1, 0
0, 2
0, 0
0, 2
0, 0
0, 0
0, 0
1, 0
0, 0
0, 0
0, 0
0, 0
0, 0
1, 1
0, 0
0, 0
0, 0
0, 0
0, 1
0, 1
0, 0
0, 0
0, 0
0, 0
0, 0
0, 0
0, 0
0, 0
0, 0
0, 0
0, 1
0, 0
0, 0
1, 0
0, 0
0, 1
0, 2
0, 0
0, 2
1, 0
1, 0
1, 1
1, 0
0, 0
0, 0
0, 0
0, 0
0, 1
0, 0
0, 1
0, 0
1, 0
1, 0
0, 0
0, 1
0, 0
0, 0
0, 1
0, 0
0, 0
0, 0
0, 1
0, 0
1, 0
0, 0
0, 0
0, 0
0, 1
1, 1
0, 0
0, 0
0, 0
0, 0
0, 0
0, 0
0, 0
0, 0
1, 0
0, 0
1, 0
2, 1
0, 0
0, 1
0, 0
2, 0
0, 0
1, 1
0, 1
0, 0
0, 1
0, 0
0, 0
0, 1
0, 0
1, 0
0, 0
0, 0
0, 1
1, 0
0, 0
0, 0
0, 0
0, 0
0, 1
0, 0
0, 0
0, 0
0, 0
0, 0
0, 0
0, 0
0, 0
0, 0
0, 0
0, 0
0, 0
0, 1
0, 0
0, 0
0, 0
0, 0
1, 0
0, 0
0, 0
0, 0
0, 0
0, 0
0, 0
1, 0
0, 0
0, 0
0, 0
0, 0
0, 1
1, 1
0, 0
0, 0
0, 0
0, 0
0, 0
0, 0
0, 0
0, 0
0, 0
1, 0
0, 0
0, 0
0, 0
0, 0
0, 0
0, 0
0, 0
0, 0
0, 0
1, 0
0, 0
0, 0
0, 0
1, 0
0, 0
0, 0
0, 0
0, 0
0, 0
1, 0
0, 0
1, 0
0, 0
0, 0
0, 0
0, 1
0, 0
0, 0
0, 0
0, 2
0, 0
0, 0
0, 0
0, 0
0, 0
0, 0
0, 0
0, 0
0, 1
0, 0
0, 0
0, 0
0, 0
0, 0
0, 0
0, 0
0, 1
0, 0
1, 0
0, 0
0, 0
0, 0
0, 0
0, 0
0, 0
0, 0
0, 0
0, 0
0, 0
0, 0
0, 0
0, 0
0, 0
0, 0
0, 0
0, 0
0, 0
0, 0
0, 0
0, 0
0, 0
0, 0
0, 0
0, 0
0, 0
0, 0
0, 0
0, 0
0, 0
0, 1
0, 0
0, 0
0, 0
0, 0
0, 1
0, 0
0, 0
0, 0
0, 0
0, 0
0, 0
0, 0
0, 0
0, 0
0, 0
0, 0
0, 0
0, 0
0, 0
0, 0
0, 0
0, 0
0, 0
0, 0
0, 0
0, 0
0, 0
0, 0
0, 0
0, 0
0, 0
0, 0
0, 0
0, 0
0, 0
0, 0
0, 1
0, 0
0, 0
0, 0
0, 0
0, 0
0, 0
0, 0
0, 0
0, 0
0, 0
0, 0
0, 0
0, 0
0, 0
0, 0
0, 0
0, 0
0, 0
0, 0
0, 0
0, 0
0, 0
0, 0
0, 0
0, 1
0, 0
0, 0
0, 0
0, 0
0, 0
0, 0
0, 1
0, 0
0, 0
0, 0
0, 0
0, 0
0, 0
0, 0
0, 0
0, 0
0, 0
0, 0
0, 0
0, 0
0, 0
0, 0
0, 0
0, 0
0, 0
0, 0
0, 0
0, 0
0, 0
0, 0
0, 0
0, 0
0, 0
0, 0
0, 0
0, 0
0, 0
0, 0
0, 0
0, 0
0, 0
0, 0
0, 0
0, 0
0, 0
0, 0
0, 0
0, 0
0, 0
0, 0
0, 0
0, 0
0, 0
0, 0
0, 0
0, 0
0, 0
0, 0
0, 0
0, 0
0, 0
0, 0
0, 0
0, 0
0, 0
0, 0
0, 0
0, 0
0, 0
0, 0
0, 0
0, 0
0, 0
0, 0
1, 0
0, 0
0, 0
0, 0
0, 0
0, 0
0, 0
0, 0
0, 0
0, 0
0, 0
0, 0
0, 0
0, 0
0, 0
0, 0
0, 0
0, 0
0, 0
0, 0
0, 0
0, 0
0, 0
0, 0
0, 0
0, 0
0, 0
0, 0
0, 0
0, 0
0, 0
0, 0
0, 0
0, 0
0, 0
0, 0
0, 0
0, 0
0, 0
0, 0
0, 0
0, 0
0, 0
0, 0
0, 0
0, 0
0, 0
0, 0
0, 0
0, 0
0, 0
0, 0
0, 0
0, 0
0, 0
0, 0
0, 0
0, 0
0, 0
0, 0
0, 0
0, 0
0, 0
0, 0
0, 0
0, 0
0, 0
0, 0
0, 0
0, 0
0, 0
0, 0
0, 0
0, 0
0, 0
0, 0
0, 0
0, 0
0, 0
0, 0
0, 0
0, 0
0, 0
0, 0
0, 0
0, 0
0, 0
0, 0
0, 0
0, 0
0, 0
0, 0
0, 0
0, 0
0, 0
0, 0
0, 0
0, 0
0, 0
0, 0
0, 0
0, 0
0, 0
0, 0
0, 0
0, 0
0, 0
0, 0
0, 0
0, 0
0, 0
0, 0
0, 0
0, 0
0, 0
0, 0
0, 0
0, 0
0, 0
0, 0
0, 0
0, 0
0, 0
0, 0
0, 0
0, 0
0, 0
0, 0
0, 0
0, 0
0, 0
0, 0
0, 0
0, 0
0, 0
0, 0
0, 0
0, 0
0, 0
0, 0
0, 0
0, 0
0, 0
0, 0
0, 0
0, 0
0, 0
0, 0
0, 0
0, 0
0, 0
0, 0
0, 0
0, 0
0, 0
0, 0
0, 0
0, 0
0, 0
0, 0
0, 0
0, 0
0, 0
0, 0
0, 0
0, 0
0, 0
0, 0
0, 0
0, 0
0, 0
0, 0
0, 0
0, 0
0, 0
0, 0
0, 0
0, 0
0, 0
0, 0
0, 0
0, 0
0, 0
0, 0
0, 0
0, 0
0, 0
0, 0
0, 0
0, 0
0, 0
0, 0
0, 0
0, 0
0, 0
0, 0
0, 0
0, 0
0, 0
0, 0
0, 0
0, 0
0, 0
0, 0
0, 0
0, 0
0, 0
0, 0
0, 0
0, 0
0, 0
0, 0
0, 0
0, 0
0, 0
0, 0
0, 0
0, 0
0, 0
0, 0
0, 0
0, 0
0, 0
0, 0
0, 0
0, 0
0, 0
0, 0
0, 0
0, 0
0, 0
0, 0
0, 0
0, 0
0, 0
0, 0
0, 0
0, 0
0, 0
0, 0
0, 0
0, 0
0, 0
0, 0
0, 0
0, 0
0, 0
0, 0
0, 0
0, 0
0, 0
0, 0
0, 0
0, 0
0, 0
0, 0
0, 0
0, 0
0, 0
0, 0
0, 0
0, 0
0, 0
0, 0
0, 0
0, 0
0, 0
0, 0
0, 0
0, 0
0, 0
0, 0
0, 0
0, 0
0, 0
0, 0
0, 0
0, 0
0, 0
0, 0
0, 0
0, 0
0, 0
0, 0
0, 0
0, 0
0, 0
0, 0
0, 0
0, 0
0, 0
0, 0
0, 0
0, 0
0, 0
0, 0
#ENDOFDATA     end of spectrum data