File: host_upload/12-01-2023/Dourbes (shot-by-shot)/upload_4/ps__0257_0689790785_000rfs_shot_3014.msa
#FORMAT      : EMSA/MAS spectral data file
#VERSION     : TC202v2.0 PIXL
#TITLE       : N/A
#DATE        :       Date in the format DD-MMM-YYYY, for example 07-JUL-2010
#TIME        :             The time of day at which the spectrum was recorded, in 24-hour format
#OWNER       : PIXL Flight Model       (PIXL will use this to indicate which instrument took the data.)
#NPOINTS     : 4096     Number of data points in the spectrum (This can be zero for configuration only files)
#NCOLUMNS    : 2     Number of data columns in the spectrum (This can be zero for configuration only files)
#XUNITS      : eV
#YUNITS      : COUNTS
#DATATYPE    : YY
#XPERCHAN    : 7.862, 7.881   eV per channel (separate by commas if more than one detector)
#OFFSET      : 18.5, -22.4         eV of first channel  (separate by commas if more than one detector
#SIGNALTYPE  : XRF
#YP_TEMP     : 3.005
#LIVETIME    : 9.0073, 9.00256   seconds (separate by commas if more than one detector)
#REALTIME    : 10, 10.0   seconds (separate by commas if more than one detector)
#SPECTRUM    : start of spectrum data
0, 0
0, 0
0, 0
0, 0
0, 0
0, 0
0, 0
0, 0
0, 0
0, 0
0, 0
0, 0
0, 0
0, 0
0, 0
0, 0
0, 0
0, 0
0, 0
0, 0
0, 0
0, 0
0, 0
0, 0
0, 0
0, 0
0, 0
0, 0
0, 0
0, 0
0, 0
0, 0
0, 0
0, 0
1, 1
0, 1
0, 0
0, 0
3, 0
0, 2
1, 0
0, 0
0, 1
0, 1
3, 1
0, 2
2, 1
3, 0
2, 6
11, 6
12, 11
21, 31
39, 51
60, 52
53, 63
52, 55
45, 38
26, 20
10, 12
4, 8
4, 3
0, 1
6, 1
4, 5
5, 4
0, 1
3, 3
8, 6
17, 9
27, 30
65, 73
155, 157
295, 249
377, 399
506, 432
472, 492
415, 384
276, 288
187, 158
108, 97
56, 37
33, 17
7, 12
4, 15
6, 7
2, 4
4, 2
2, 3
4, 2
6, 2
13, 3
19, 2
41, 0
67, 4
80, 0
93, 1
83, 1
99, 3
79, 8
46, 5
20, 6
22, 2
11, 5
3, 2
4, 2
4, 0
3, 2
3, 3
2, 6
2, 6
6, 6
7, 19
12, 20
29, 32
29, 41
34, 37
27, 27
19, 25
24, 27
16, 15
23, 10
13, 20
14, 27
13, 14
16, 14
11, 10
11, 8
7, 5
4, 5
3, 8
1, 5
0, 3
3, 7
6, 2
3, 1
1, 2
0, 1
2, 1
2, 2
2, 3
4, 0
4, 2
1, 2
1, 1
1, 2
1, 3
3, 3
5, 0
1, 1
4, 2
1, 4
4, 8
10, 10
14, 15
18, 20
18, 43
26, 57
28, 65
21, 76
16, 86
11, 73
10, 46
10, 54
1, 24
8, 19
3, 11
0, 7
6, 2
6, 8
7, 3
4, 5
7, 6
9, 2
5, 3
5, 10
4, 10
4, 9
0, 6
1, 3
5, 2
3, 2
2, 3
2, 3
0, 4
2, 6
1, 1
8, 5
4, 4
6, 5
11, 8
7, 7
7, 5
7, 9
10, 13
14, 7
19, 10
21, 20
17, 11
15, 24
24, 15
26, 14
10, 5
12, 7
9, 7
3, 7
7, 6
7, 4
10, 6
8, 4
7, 6
10, 4
10, 3
10, 6
16, 5
13, 7
7, 4
5, 4
3, 7
8, 7
10, 10
6, 1
6, 6
7, 8
6, 12
9, 11
12, 14
9, 37
15, 36
12, 49
10, 99
12, 103
6, 125
14, 141
8, 159
12, 154
7, 109
13, 108
12, 58
9, 41
7, 30
11, 13
5, 14
9, 9
15, 13
19, 19
29, 22
43, 49
56, 46
78, 81
86, 98
99, 96
105, 100
91, 103
78, 75
58, 54
43, 47
44, 23
21, 27
9, 18
15, 18
11, 20
31, 29
34, 57
81, 106
168, 211
321, 428
620, 744
1068, 1318
1683, 2002
2380, 2779
3071, 3517
3788, 3946
3845, 3994
3685, 3516
3224, 3017
2453, 2181
1855, 1480
1160, 922
684, 546
369, 263
172, 122
104, 63
74, 32
31, 17
29, 13
20, 24
35, 13
36, 17
42, 19
38, 19
27, 30
59, 60
58, 61
87, 105
116, 156
221, 252
293, 320
375, 450
477, 541
558, 557
527, 567
494, 467
416, 397
342, 301
238, 205
167, 145
80, 76
58, 36
26, 14
12, 6
11, 7
5, 3
8, 6
12, 5
2, 5
14, 9
5, 11
6, 14
3, 8
3, 12
7, 12
4, 7
8, 3
4, 5
2, 6
1, 0
0, 0
2, 2
0, 3
4, 1
6, 3
3, 2
3, 3
0, 3
4, 1
3, 8
2, 2
0, 1
0, 2
5, 1
3, 2
3, 7
6, 3
6, 3
4, 0
5, 4
2, 1
3, 4
6, 0
3, 4
4, 0
3, 1
2, 3
4, 2
8, 2
6, 4
3, 2
4, 3
3, 4
5, 1
2, 0
4, 1
3, 5
2, 1
5, 2
3, 3
2, 1
6, 3
1, 5
3, 4
4, 5
3, 9
2, 9
3, 11
2, 15
5, 15
3, 16
4, 13
6, 13
5, 6
6, 6
5, 4
5, 5
4, 2
5, 3
3, 4
5, 3
3, 2
6, 5
4, 2
7, 5
1, 6
4, 7
2, 4
4, 9
1, 4
3, 9
3, 0
2, 7
1, 3
2, 4
1, 2
2, 1
2, 9
3, 4
4, 9
5, 6
1, 6
1, 6
3, 3
1, 7
6, 2
3, 3
2, 1
3, 3
1, 1
1, 2
0, 6
0, 0
3, 2
4, 2
0, 4
4, 5
3, 3
5, 5
4, 0
3, 2
4, 5
0, 5
3, 1
2, 3
1, 1
2, 2
1, 1
2, 4
4, 2
3, 5
3, 3
4, 1
7, 2
3, 1
3, 2
2, 1
1, 2
2, 3
1, 2
0, 2
1, 2
3, 5
0, 9
1, 5
1, 3
0, 3
4, 2
2, 4
1, 5
3, 2
2, 6
3, 2
3, 10
6, 8
2, 9
4, 13
1, 16
2, 13
3, 13
2, 11
2, 6
3, 6
4, 6
1, 3
6, 0
1, 3
4, 6
4, 1
6, 2
6, 1
3, 3
5, 1
7, 0
3, 1
3, 2
0, 0
3, 1
5, 2
1, 1
1, 0
2, 0
1, 2
1, 3
2, 3
2, 2
2, 1
3, 0
3, 0
1, 0
1, 2
0, 5
2, 0
0, 1
5, 1
3, 2
2, 4
0, 1
1, 4
2, 0
0, 3
1, 0
2, 1
2, 1
1, 1
2, 3
3, 1
3, 1
0, 0
1, 2
0, 2
1, 2
2, 3
1, 0
0, 4
1, 3
2, 5
5, 3
1, 1
3, 3
4, 1
4, 2
3, 1
3, 3
2, 0
1, 0
1, 3
4, 2
3, 3
4, 5
0, 1
2, 3
8, 3
3, 9
8, 5
5, 9
10, 11
8, 11
7, 10
7, 2
5, 7
6, 3
5, 0
2, 4
2, 0
4, 2
3, 1
1, 2
0, 2
1, 2
1, 3
4, 1
0, 1
0, 0
0, 1
4, 2
1, 3
0, 2
2, 2
1, 2
2, 3
3, 0
1, 2
2, 5
2, 0
4, 4
1, 3
4, 2
4, 4
2, 1
3, 3
1, 2
1, 1
0, 0
0, 0
1, 0
2, 0
1, 1
0, 0
1, 0
1, 1
1, 1
1, 0
0, 2
1, 0
0, 0
0, 0
0, 1
1, 0
0, 0
2, 2
0, 1
1, 0
0, 0
0, 0
0, 2
1, 0
1, 3
1, 0
2, 1
1, 3
0, 1
2, 1
0, 1
1, 0
1, 1
2, 1
1, 1
1, 0
0, 1
1, 1
0, 0
1, 0
1, 0
1, 0
1, 0
0, 0
0, 0
0, 0
2, 2
1, 0
2, 0
0, 1
0, 2
0, 0
3, 0
1, 2
0, 0
0, 1
0, 1
0, 0
1, 0
1, 1
1, 1
0, 1
0, 0
0, 0
1, 0
0, 1
0, 0
0, 1
1, 0
1, 1
0, 1
1, 1
1, 0
1, 0
0, 2
1, 0
0, 0
1, 1
0, 0
2, 0
1, 1
0, 1
1, 1
0, 1
0, 1
3, 1
1, 0
0, 1
0, 0
1, 0
0, 0
1, 0
0, 0
0, 2
0, 1
0, 1
1, 0
1, 0
0, 3
0, 0
2, 0
0, 1
0, 1
0, 2
0, 0
0, 0
1, 0
1, 0
0, 0
0, 0
0, 0
1, 0
0, 0
0, 0
0, 0
0, 0
0, 1
1, 1
0, 0
0, 0
1, 0
1, 0
0, 0
0, 1
0, 0
1, 0
0, 0
0, 1
0, 0
0, 0
1, 0
0, 0
0, 0
0, 1
2, 1
0, 0
0, 0
0, 0
0, 1
0, 0
0, 0
1, 0
0, 1
0, 0
0, 0
0, 0
0, 0
0, 0
0, 1
1, 1
0, 2
0, 0
0, 0
1, 0
0, 0
0, 0
0, 0
0, 0
0, 0
0, 0
1, 0
0, 1
0, 0
0, 0
1, 0
0, 0
0, 1
1, 0
0, 0
1, 0
1, 0
0, 0
0, 0
0, 1
0, 0
0, 0
0, 0
0, 0
1, 0
0, 2
0, 0
0, 0
0, 1
0, 1
1, 0
0, 0
2, 0
1, 0
0, 0
0, 0
0, 0
0, 0
0, 1
0, 0
0, 0
0, 0
0, 0
0, 0
0, 0
1, 0
1, 0
0, 0
0, 0
0, 0
0, 0
2, 0
0, 0
1, 1
1, 0
0, 0
1, 0
0, 0
0, 0
0, 0
0, 0
1, 0
0, 0
1, 0
0, 0
0, 2
1, 1
0, 1
0, 1
0, 1
0, 0
0, 0
0, 0
0, 0
0, 1
0, 0
0, 1
0, 0
0, 0
0, 0
1, 0
0, 2
0, 0
0, 0
0, 0
0, 0
0, 0
0, 0
0, 0
0, 0
0, 1
0, 0
3, 0
0, 0
0, 0
0, 0
1, 0
0, 0
0, 0
0, 1
0, 0
0, 0
0, 0
0, 0
0, 0
0, 0
1, 0
0, 0
1, 0
0, 1
0, 0
0, 0
0, 0
0, 0
0, 0
0, 0
0, 0
1, 0
0, 0
0, 1
0, 0
0, 1
0, 0
0, 1
0, 0
1, 0
0, 0
0, 0
0, 0
0, 0
0, 0
0, 1
0, 0
0, 0
0, 0
0, 0
0, 0
0, 1
0, 0
0, 0
1, 0
0, 0
0, 0
0, 0
0, 0
0, 0
0, 0
0, 0
0, 0
0, 0
0, 0
0, 0
0, 0
0, 0
0, 0
0, 0
0, 0
0, 0
0, 0
0, 0
0, 0
0, 0
0, 0
0, 0
1, 0
0, 0
0, 0
0, 0
0, 0
0, 0
0, 0
0, 0
0, 0
0, 0
0, 0
0, 0
0, 0
0, 0
0, 0
0, 0
0, 0
0, 0
0, 0
0, 0
0, 0
0, 0
0, 0
0, 0
0, 0
0, 0
0, 0
0, 0
0, 0
0, 0
0, 0
0, 0
0, 0
0, 0
0, 0
0, 0
0, 0
0, 0
0, 0
0, 0
1, 1
0, 0
0, 0
0, 0
0, 0
0, 1
0, 0
0, 0
0, 0
0, 0
0, 0
0, 0
0, 0
0, 0
0, 0
0, 0
0, 0
0, 0
0, 0
0, 0
0, 0
0, 0
0, 0
0, 0
0, 0
0, 0
0, 0
0, 0
0, 0
0, 0
0, 0
0, 0
0, 0
0, 0
0, 0
0, 0
0, 0
0, 0
0, 0
0, 0
0, 0
0, 0
0, 0
0, 0
0, 0
0, 0
0, 0
0, 0
0, 0
0, 0
0, 0
0, 0
0, 0
0, 0
0, 0
0, 0
0, 0
0, 0
1, 0
0, 0
0, 0
1, 0
0, 0
0, 0
0, 0
0, 0
0, 0
0, 0
0, 0
0, 0
0, 0
0, 0
0, 0
0, 0
0, 0
0, 0
0, 0
0, 0
0, 0
0, 0
0, 0
0, 0
0, 0
0, 0
0, 0
0, 0
0, 0
0, 0
0, 0
0, 0
0, 0
0, 0
0, 0
0, 0
0, 0
0, 0
0, 0
0, 0
0, 0
0, 0
0, 1
0, 0
0, 0
0, 0
0, 0
0, 0
0, 0
0, 0
0, 0
0, 0
0, 0
0, 0
0, 0
0, 0
0, 0
0, 0
0, 0
0, 0
0, 0
0, 0
0, 0
0, 0
0, 0
0, 0
0, 0
0, 0
0, 0
0, 0
0, 0
0, 0
0, 0
0, 0
0, 0
0, 0
0, 0
0, 0
0, 0
0, 0
0, 0
0, 0
0, 0
0, 0
0, 0
0, 0
0, 0
0, 0
0, 0
0, 0
0, 0
0, 0
0, 0
0, 0
0, 0
0, 0
0, 0
0, 0
0, 0
0, 0
0, 0
0, 0
0, 0
0, 0
0, 0
0, 0
0, 0
0, 0
0, 0
0, 0
0, 0
0, 0
0, 0
0, 0
0, 0
0, 0
0, 0
0, 0
0, 0
0, 0
0, 0
0, 0
0, 0
0, 0
0, 0
0, 0
0, 0
0, 0
0, 0
0, 0
0, 0
0, 0
0, 0
0, 0
0, 0
0, 0
0, 0
0, 0
0, 0
0, 0
0, 0
0, 0
0, 0
0, 0
0, 0
0, 0
0, 0
0, 0
0, 0
0, 0
0, 0
0, 0
0, 0
0, 0
0, 0
0, 0
0, 0
0, 0
0, 0
0, 0
0, 0
0, 0
0, 0
0, 0
0, 0
0, 0
0, 0
0, 0
0, 0
0, 0
0, 0
0, 0
0, 0
0, 0
0, 0
0, 0
0, 0
0, 0
0, 0
0, 0
0, 0
0, 0
0, 0
0, 0
0, 0
0, 0
0, 0
0, 0
0, 0
0, 0
0, 0
0, 0
0, 0
0, 0
0, 0
0, 0
0, 0
0, 0
0, 0
0, 0
0, 0
0, 0
0, 0
0, 0
0, 0
0, 0
0, 0
0, 0
0, 0
0, 0
0, 0
0, 0
0, 0
0, 0
0, 0
0, 0
0, 0
0, 0
0, 0
0, 0
0, 0
0, 0
0, 0
0, 0
0, 0
0, 0
0, 0
0, 0
0, 0
0, 0
0, 0
0, 0
0, 0
0, 0
0, 0
0, 0
0, 0
0, 0
0, 0
0, 0
0, 0
0, 0
0, 0
0, 0
0, 0
0, 0
0, 0
0, 0
0, 0
0, 0
0, 0
0, 0
0, 0
0, 0
0, 0
0, 0
0, 0
0, 0
0, 0
0, 0
0, 0
0, 0
0, 0
0, 0
0, 0
0, 0
0, 0
0, 0
0, 0
0, 0
0, 0
0, 0
0, 0
0, 0
0, 0
0, 0
0, 0
0, 0
0, 0
0, 0
0, 0
0, 0
0, 0
0, 0
0, 0
0, 0
0, 0
0, 0
0, 0
0, 0
0, 0
0, 0
0, 0
0, 0
0, 0
0, 0
0, 0
0, 0
0, 0
0, 0
0, 0
0, 0
0, 0
0, 0
0, 0
0, 0
0, 0
0, 0
0, 0
0, 0
0, 0
0, 0
0, 0
0, 0
0, 0
0, 0
0, 0
0, 0
0, 0
0, 0
0, 0
0, 0
0, 0
0, 0
0, 0
0, 0
0, 0
0, 0
0, 0
0, 0
0, 0
0, 0
0, 0
0, 0
0, 0
0, 0
0, 0
0, 0
0, 0
0, 0
0, 0
0, 0
0, 0
0, 0
0, 0
0, 0
0, 0
0, 0
0, 0
0, 0
0, 0
0, 0
0, 0
0, 0
0, 0
0, 0
0, 0
0, 0
0, 0
0, 0
0, 0
0, 0
0, 0
0, 0
0, 0
0, 0
0, 0
0, 0
0, 0
0, 0
0, 0
#ENDOFDATA     end of spectrum data