File: host_upload/12-01-2023/Dourbes (shot-by-shot)/upload_4/ps__0257_0689790785_000rfs_shot_3105.msa
#FORMAT      : EMSA/MAS spectral data file
#VERSION     : TC202v2.0 PIXL
#TITLE       : N/A
#DATE        :       Date in the format DD-MMM-YYYY, for example 07-JUL-2010
#TIME        :             The time of day at which the spectrum was recorded, in 24-hour format
#OWNER       : PIXL Flight Model       (PIXL will use this to indicate which instrument took the data.)
#NPOINTS     : 4096     Number of data points in the spectrum (This can be zero for configuration only files)
#NCOLUMNS    : 2     Number of data columns in the spectrum (This can be zero for configuration only files)
#XUNITS      : eV
#YUNITS      : COUNTS
#DATATYPE    : YY
#XPERCHAN    : 7.862, 7.881   eV per channel (separate by commas if more than one detector)
#OFFSET      : 18.5, -22.4         eV of first channel  (separate by commas if more than one detector
#SIGNALTYPE  : XRF
#YP_TEMP     : 3.037
#LIVETIME    : 9.00889, 9.01075   seconds (separate by commas if more than one detector)
#REALTIME    : 10, 10.0   seconds (separate by commas if more than one detector)
#SPECTRUM    : start of spectrum data
0, 0
0, 0
0, 0
0, 0
0, 0
0, 0
0, 0
0, 0
0, 0
0, 0
0, 0
0, 0
0, 0
0, 0
0, 0
0, 0
0, 0
0, 0
0, 0
0, 0
0, 0
0, 0
0, 0
0, 0
0, 0
0, 0
0, 0
0, 0
0, 0
0, 0
0, 0
0, 0
0, 0
0, 0
0, 0
1, 0
1, 0
0, 0
2, 0
0, 0
1, 0
2, 2
0, 0
1, 1
0, 1
1, 0
3, 1
3, 3
3, 3
6, 2
17, 12
25, 23
38, 40
55, 50
57, 52
39, 59
38, 41
28, 22
7, 13
5, 9
6, 4
3, 2
3, 3
2, 2
3, 4
4, 1
1, 5
4, 7
20, 7
36, 31
73, 65
141, 135
259, 289
347, 350
449, 480
437, 464
404, 384
282, 286
177, 173
87, 102
42, 37
21, 23
13, 8
13, 8
4, 4
3, 3
4, 5
3, 2
4, 1
0, 2
2, 3
0, 3
1, 3
0, 5
2, 0
2, 3
3, 6
6, 5
6, 2
5, 1
1, 3
5, 5
4, 1
4, 7
5, 7
1, 4
4, 2
2, 4
5, 13
3, 7
14, 17
16, 17
22, 21
34, 33
36, 27
38, 31
28, 31
31, 32
29, 10
26, 21
25, 25
23, 21
15, 24
18, 18
15, 12
21, 16
20, 11
19, 11
7, 13
10, 4
7, 7
6, 3
7, 1
1, 5
5, 2
5, 2
1, 4
3, 1
3, 3
2, 6
3, 2
4, 1
2, 3
3, 4
2, 7
2, 3
4, 5
7, 3
10, 3
17, 3
6, 8
17, 5
19, 12
29, 16
33, 21
34, 31
35, 33
41, 30
29, 29
25, 22
16, 12
12, 10
10, 8
7, 7
1, 6
4, 10
2, 2
7, 1
11, 8
7, 6
3, 6
10, 12
3, 6
7, 14
5, 10
5, 11
5, 9
9, 2
4, 15
5, 7
10, 7
5, 10
3, 3
4, 8
7, 7
9, 5
10, 13
19, 24
16, 29
22, 38
22, 53
24, 71
36, 53
30, 65
46, 30
30, 37
34, 34
36, 21
32, 24
34, 17
22, 16
15, 16
19, 8
7, 6
8, 2
5, 11
4, 3
5, 10
6, 10
4, 10
8, 11
6, 16
8, 18
4, 18
8, 20
3, 14
4, 13
14, 16
5, 19
3, 8
7, 8
11, 7
8, 5
11, 6
9, 9
12, 7
19, 8
6, 14
15, 7
16, 14
14, 14
18, 10
18, 12
14, 10
17, 10
19, 7
15, 9
18, 18
12, 15
16, 24
21, 26
13, 29
20, 38
14, 26
18, 41
26, 38
33, 49
54, 73
85, 89
84, 88
96, 87
100, 110
79, 108
96, 62
55, 52
48, 38
37, 20
23, 26
20, 25
19, 26
26, 32
25, 46
52, 75
85, 123
172, 233
357, 441
628, 775
1108, 1264
1683, 1979
2460, 2815
3103, 3357
3705, 3711
3951, 3893
3887, 3513
3188, 2942
2577, 2132
1808, 1449
1154, 867
713, 497
344, 265
168, 136
82, 67
55, 41
32, 42
19, 49
19, 30
16, 33
26, 39
17, 35
22, 31
32, 42
53, 52
62, 68
79, 119
165, 164
238, 238
334, 360
408, 444
444, 538
594, 509
568, 582
567, 513
418, 390
305, 299
245, 190
161, 125
104, 68
54, 40
20, 17
22, 8
16, 7
7, 4
7, 2
7, 6
15, 5
8, 6
5, 6
8, 6
14, 4
11, 11
4, 2
8, 5
6, 6
4, 1
6, 3
2, 3
4, 3
5, 4
2, 6
6, 6
1, 3
3, 5
1, 6
3, 7
1, 5
3, 6
7, 7
2, 3
3, 1
2, 5
2, 3
4, 3
5, 3
2, 4
8, 3
3, 1
4, 7
7, 5
5, 7
6, 5
5, 5
3, 2
0, 6
6, 1
4, 8
4, 10
4, 4
5, 5
2, 5
3, 6
5, 9
4, 5
9, 8
3, 3
4, 7
2, 3
4, 5
4, 2
2, 1
5, 2
6, 1
4, 3
3, 6
6, 2
1, 4
4, 6
5, 1
3, 2
4, 1
0, 3
2, 3
0, 4
3, 1
1, 6
4, 4
2, 3
5, 4
4, 4
4, 1
2, 1
5, 1
7, 0
4, 4
3, 7
4, 4
3, 3
2, 6
0, 6
0, 4
2, 6
3, 6
5, 5
3, 8
4, 8
0, 4
1, 4
8, 6
3, 11
0, 7
1, 9
1, 5
8, 3
2, 1
0, 7
2, 6
3, 1
4, 3
4, 6
2, 2
3, 3
5, 3
3, 3
0, 3
3, 2
3, 1
3, 6
3, 6
1, 10
1, 3
3, 3
3, 6
2, 2
2, 5
2, 3
2, 2
4, 3
4, 3
3, 3
3, 2
1, 2
2, 3
5, 2
3, 2
5, 2
5, 1
6, 4
0, 1
5, 2
2, 1
2, 3
1, 3
3, 0
4, 6
4, 1
5, 3
3, 3
1, 3
5, 2
3, 2
4, 2
4, 3
4, 0
4, 2
4, 2
3, 1
2, 2
2, 3
4, 2
2, 1
0, 1
2, 1
1, 0
3, 2
1, 4
3, 4
5, 1
2, 0
1, 3
2, 3
2, 2
1, 3
2, 3
3, 4
5, 1
0, 1
2, 1
1, 0
2, 1
0, 2
5, 2
3, 2
3, 1
5, 2
3, 0
1, 0
1, 2
1, 1
2, 2
4, 1
2, 3
1, 2
3, 4
3, 3
4, 3
1, 3
1, 1
3, 2
2, 1
1, 1
2, 3
4, 0
1, 1
1, 1
1, 3
4, 3
1, 4
4, 1
2, 0
3, 2
5, 3
5, 1
2, 6
1, 4
4, 6
2, 7
3, 2
1, 2
2, 5
2, 1
0, 7
0, 2
2, 3
1, 4
2, 2
2, 2
3, 7
1, 5
3, 8
5, 5
2, 2
5, 9
2, 11
8, 7
9, 6
3, 4
4, 4
7, 3
7, 6
2, 1
2, 2
2, 2
2, 2
1, 1
2, 2
1, 0
0, 0
0, 3
0, 0
1, 0
0, 1
1, 1
2, 1
0, 0
0, 2
1, 0
1, 2
2, 0
6, 3
1, 2
3, 3
2, 2
5, 1
2, 2
1, 2
0, 2
2, 1
2, 2
1, 1
0, 0
2, 1
0, 0
1, 1
1, 0
4, 0
0, 1
0, 2
0, 1
0, 1
2, 0
3, 1
1, 0
0, 1
1, 0
1, 2
1, 1
3, 0
0, 2
1, 1
1, 0
1, 1
3, 1
1, 0
2, 1
1, 2
1, 0
2, 1
4, 0
1, 0
1, 0
0, 1
0, 1
1, 1
0, 0
3, 1
0, 1
1, 0
2, 1
1, 0
0, 0
1, 0
0, 0
0, 0
0, 1
0, 1
1, 2
0, 1
1, 0
0, 1
0, 0
0, 1
1, 0
1, 0
1, 1
0, 1
0, 0
1, 2
0, 2
0, 0
1, 1
0, 0
0, 0
0, 0
1, 1
1, 0
0, 0
1, 0
0, 0
1, 1
0, 0
0, 1
1, 0
2, 0
1, 0
1, 1
0, 0
0, 1
0, 1
1, 0
2, 1
1, 0
0, 1
0, 0
0, 0
0, 1
1, 3
0, 1
1, 2
0, 0
0, 0
0, 1
0, 1
0, 1
1, 1
1, 0
1, 0
0, 0
1, 0
1, 0
0, 0
0, 1
0, 0
1, 0
1, 0
0, 0
0, 0
0, 0
0, 0
1, 1
0, 0
1, 1
1, 0
0, 0
0, 0
0, 0
1, 1
0, 1
0, 0
0, 0
1, 0
0, 0
0, 0
0, 1
0, 0
0, 0
0, 0
0, 2
0, 0
1, 0
1, 0
0, 2
0, 0
0, 0
2, 0
2, 0
1, 1
0, 2
0, 2
0, 0
0, 0
0, 0
0, 0
0, 0
0, 0
0, 0
1, 0
0, 0
1, 0
0, 0
1, 0
0, 0
0, 0
0, 0
0, 1
1, 0
0, 1
0, 0
0, 0
0, 0
1, 0
0, 0
1, 0
0, 0
0, 2
0, 0
0, 0
0, 0
1, 0
1, 1
0, 0
0, 0
1, 0
0, 0
1, 0
0, 0
2, 0
0, 0
0, 0
0, 0
0, 0
0, 0
0, 0
0, 0
0, 0
0, 0
0, 0
0, 0
0, 0
1, 0
0, 0
0, 0
0, 0
0, 0
0, 0
0, 0
0, 0
0, 0
0, 0
0, 1
0, 0
0, 0
0, 0
0, 0
1, 0
0, 1
0, 0
0, 0
0, 1
0, 0
0, 0
0, 1
1, 0
0, 0
0, 0
0, 0
0, 0
0, 1
0, 1
0, 0
0, 0
1, 0
0, 1
0, 0
1, 0
0, 0
0, 0
0, 0
1, 0
0, 0
0, 0
0, 1
0, 0
0, 1
0, 1
1, 1
0, 0
1, 1
0, 1
0, 0
1, 0
1, 1
0, 0
0, 0
0, 0
0, 0
0, 0
0, 0
0, 0
0, 0
0, 0
1, 0
0, 1
1, 0
0, 0
0, 0
0, 0
0, 0
0, 0
0, 0
0, 0
0, 0
1, 0
0, 0
0, 0
0, 0
0, 0
0, 0
0, 0
0, 0
0, 0
0, 0
0, 0
0, 0
0, 0
0, 1
0, 0
1, 0
0, 1
0, 0
0, 0
0, 0
0, 0
0, 0
0, 0
0, 0
0, 0
0, 0
0, 0
0, 0
0, 0
0, 0
0, 0
0, 0
0, 0
0, 0
0, 0
0, 0
1, 0
0, 0
0, 1
0, 0
1, 0
0, 0
0, 0
0, 0
0, 1
1, 0
0, 0
0, 0
0, 0
0, 1
0, 0
0, 0
0, 0
0, 0
0, 0
0, 0
0, 0
0, 0
0, 0
0, 0
0, 0
0, 0
0, 0
0, 0
0, 0
0, 0
0, 0
0, 0
0, 0
0, 0
0, 0
0, 0
0, 0
0, 0
0, 0
0, 0
0, 0
0, 0
0, 0
0, 0
0, 0
0, 0
0, 0
0, 0
0, 0
0, 0
0, 0
0, 0
0, 0
0, 0
0, 0
0, 0
0, 0
0, 0
0, 0
0, 0
0, 0
0, 0
0, 0
0, 0
0, 0
0, 0
0, 0
0, 0
0, 0
0, 0
0, 0
0, 0
0, 0
0, 0
0, 0
0, 0
0, 0
0, 0
0, 0
0, 0
0, 0
0, 0
0, 0
0, 0
0, 0
0, 0
0, 0
0, 0
0, 0
0, 0
0, 0
0, 0
0, 0
0, 0
0, 0
0, 0
0, 0
0, 0
0, 0
0, 0
0, 0
0, 0
0, 0
0, 0
0, 0
0, 0
0, 0
0, 0
0, 0
0, 0
0, 0
0, 0
0, 0
0, 0
0, 0
0, 0
0, 0
0, 0
0, 0
0, 0
0, 0
0, 0
0, 0
0, 0
0, 0
0, 0
0, 0
0, 0
0, 0
0, 0
1, 0
0, 0
0, 0
0, 0
0, 0
0, 0
0, 0
0, 0
0, 0
0, 0
0, 0
0, 0
0, 0
0, 0
0, 0
0, 0
0, 0
0, 0
1, 0
0, 0
0, 0
0, 0
0, 0
0, 0
0, 0
0, 0
0, 0
0, 0
0, 0
0, 0
0, 0
0, 0
0, 0
0, 0
0, 0
0, 0
0, 0
0, 0
0, 0
0, 0
0, 0
0, 0
0, 0
0, 0
0, 0
0, 0
0, 0
0, 0
0, 0
0, 0
0, 0
0, 0
0, 0
0, 0
0, 0
0, 0
0, 0
0, 0
0, 0
0, 0
0, 0
0, 0
0, 0
0, 0
0, 0
0, 0
0, 0
0, 0
0, 0
0, 0
0, 0
0, 0
0, 0
0, 0
0, 0
0, 0
0, 0
0, 0
0, 0
0, 0
0, 0
0, 0
0, 0
0, 0
0, 0
0, 0
0, 0
0, 0
0, 0
0, 0
0, 0
0, 0
0, 0
0, 0
0, 0
0, 0
0, 0
0, 0
0, 0
0, 0
0, 0
0, 0
0, 0
0, 0
0, 0
0, 0
0, 0
0, 0
0, 0
0, 0
0, 0
0, 0
0, 0
0, 0
0, 0
0, 0
0, 0
0, 0
0, 0
0, 0
0, 0
0, 0
0, 0
0, 0
0, 0
0, 0
0, 0
0, 0
0, 0
0, 0
0, 0
0, 0
0, 0
0, 0
0, 0
0, 0
0, 0
0, 0
0, 0
0, 0
0, 0
0, 0
0, 0
0, 0
0, 0
0, 0
0, 0
0, 0
0, 0
0, 0
0, 0
0, 0
0, 0
0, 0
0, 0
0, 0
0, 0
0, 0
0, 0
0, 0
0, 0
0, 0
0, 0
0, 0
0, 0
0, 0
0, 0
0, 0
0, 0
0, 0
0, 0
0, 0
0, 0
0, 0
0, 0
0, 0
0, 0
0, 0
0, 0
0, 0
0, 0
0, 0
0, 0
0, 0
0, 0
0, 0
0, 0
0, 0
0, 0
0, 0
0, 0
0, 0
0, 0
0, 0
0, 0
0, 0
0, 0
0, 0
0, 0
0, 0
0, 0
0, 0
0, 0
0, 0
0, 0
0, 0
0, 0
0, 0
0, 0
0, 0
0, 0
0, 0
0, 0
0, 0
0, 0
0, 0
0, 0
0, 0
0, 0
0, 0
0, 0
0, 0
0, 0
0, 0
0, 0
0, 0
0, 0
0, 0
0, 0
0, 0
0, 0
0, 0
0, 0
0, 0
0, 0
0, 0
0, 0
0, 0
0, 0
0, 0
0, 0
0, 0
0, 0
0, 0
0, 0
0, 0
0, 0
0, 0
0, 0
0, 0
0, 0
0, 0
0, 0
0, 0
0, 0
0, 0
0, 0
0, 0
0, 0
0, 0
0, 0
0, 0
0, 0
0, 0
0, 0
0, 0
0, 0
0, 0
0, 0
0, 0
0, 0
0, 0
0, 0
0, 0
0, 0
0, 0
0, 0
0, 0
0, 0
0, 0
0, 0
0, 0
0, 0
0, 0
0, 0
0, 0
0, 0
0, 0
0, 0
0, 0
0, 0
0, 0
0, 0
0, 0
0, 0
0, 0
0, 0
0, 0
0, 0
0, 0
0, 0
0, 0
0, 0
0, 0
0, 0
0, 0
0, 0
0, 0
0, 0
0, 0
0, 0
0, 0
0, 0
0, 0
0, 0
0, 0
0, 0
0, 0
0, 0
0, 0
0, 0
0, 0
0, 0
0, 0
0, 0
0, 0
0, 0
0, 0
0, 0
0, 0
0, 0
0, 0
0, 0
0, 0
0, 0
0, 0
0, 0
0, 0
0, 0
0, 0
0, 0
0, 0
0, 0
0, 0
0, 0
0, 0
0, 0
0, 0
0, 0
0, 0
0, 0
0, 0
0, 0
0, 0
0, 0
0, 0
0, 0
0, 0
0, 0
0, 0
#ENDOFDATA     end of spectrum data