File: host_upload/12-01-2023/Dourbes (shot-by-shot)/upload_4/ps__0257_0689790785_000rfs_shot_3278.msa
#FORMAT      : EMSA/MAS spectral data file
#VERSION     : TC202v2.0 PIXL
#TITLE       : N/A
#DATE        :       Date in the format DD-MMM-YYYY, for example 07-JUL-2010
#TIME        :             The time of day at which the spectrum was recorded, in 24-hour format
#OWNER       : PIXL Flight Model       (PIXL will use this to indicate which instrument took the data.)
#NPOINTS     : 4096     Number of data points in the spectrum (This can be zero for configuration only files)
#NCOLUMNS    : 2     Number of data columns in the spectrum (This can be zero for configuration only files)
#XUNITS      : eV
#YUNITS      : COUNTS
#DATATYPE    : YY
#XPERCHAN    : 7.862, 7.881   eV per channel (separate by commas if more than one detector)
#OFFSET      : 18.5, -22.4         eV of first channel  (separate by commas if more than one detector
#SIGNALTYPE  : XRF
#YP_TEMP     : 3.101
#LIVETIME    : 9.12328, 9.14106   seconds (separate by commas if more than one detector)
#REALTIME    : 10, 10.0   seconds (separate by commas if more than one detector)
#SPECTRUM    : start of spectrum data
0, 0
0, 0
0, 0
0, 0
0, 0
0, 0
0, 0
0, 0
0, 0
0, 0
0, 0
0, 0
0, 0
0, 0
0, 0
0, 0
0, 0
0, 0
0, 0
0, 0
0, 0
0, 0
0, 0
0, 0
0, 0
0, 0
0, 0
0, 0
0, 0
0, 0
1, 0
0, 0
0, 0
0, 0
0, 0
0, 0
0, 1
0, 1
0, 1
0, 1
0, 3
0, 1
1, 0
0, 0
1, 2
0, 1
2, 1
2, 1
3, 2
6, 6
18, 10
14, 14
34, 30
42, 52
44, 36
35, 42
37, 24
18, 19
11, 9
6, 4
8, 3
7, 3
9, 14
11, 12
10, 9
7, 8
23, 7
17, 12
24, 21
56, 48
147, 129
299, 262
561, 507
769, 700
910, 837
954, 818
813, 715
551, 518
346, 334
211, 158
105, 80
62, 55
31, 30
18, 27
24, 14
14, 10
9, 10
12, 4
6, 7
3, 4
4, 7
1, 4
1, 9
3, 4
3, 8
3, 9
10, 2
6, 6
6, 5
5, 6
8, 2
5, 4
3, 4
5, 2
3, 3
4, 1
3, 1
3, 5
6, 2
1, 4
2, 7
13, 4
17, 23
16, 20
27, 19
21, 25
33, 21
17, 23
15, 13
18, 18
18, 14
11, 14
17, 11
11, 13
12, 7
13, 10
14, 16
10, 7
12, 15
8, 8
2, 4
1, 2
6, 4
3, 5
2, 6
5, 4
4, 4
10, 1
7, 5
9, 1
3, 5
6, 1
1, 4
2, 2
4, 4
2, 2
4, 6
6, 5
10, 10
20, 23
47, 54
137, 115
224, 227
405, 426
700, 701
929, 984
1183, 1177
1295, 1217
1148, 1103
1045, 893
728, 642
453, 361
274, 201
149, 95
72, 53
52, 43
64, 49
78, 80
120, 116
184, 148
213, 167
183, 182
167, 160
150, 143
88, 75
59, 31
58, 21
22, 17
19, 9
6, 7
6, 5
3, 3
6, 9
2, 10
7, 7
5, 10
4, 10
10, 20
17, 30
26, 27
49, 33
29, 37
37, 30
41, 38
22, 28
20, 16
12, 12
19, 9
5, 7
6, 3
4, 5
9, 0
6, 10
8, 5
8, 3
4, 6
6, 3
8, 7
12, 7
17, 10
11, 13
10, 14
14, 9
10, 13
3, 17
8, 24
4, 27
9, 14
2, 15
9, 14
6, 13
6, 12
6, 8
5, 12
13, 11
22, 15
26, 20
52, 28
33, 35
61, 41
60, 44
49, 34
48, 38
43, 34
26, 28
9, 15
13, 12
10, 12
5, 3
6, 4
2, 6
0, 6
5, 4
6, 7
8, 4
10, 15
25, 26
30, 33
47, 33
45, 51
50, 37
46, 40
53, 62
44, 38
34, 27
22, 18
31, 20
41, 14
56, 8
73, 10
96, 12
147, 16
201, 24
298, 34
352, 56
456, 124
554, 252
649, 439
807, 618
965, 878
1061, 1076
1257, 1192
1337, 1209
1209, 1071
1006, 910
767, 647
560, 425
371, 286
218, 140
113, 84
64, 32
27, 21
15, 15
12, 9
10, 4
6, 11
7, 4
8, 9
7, 6
4, 11
17, 11
22, 17
21, 32
42, 43
53, 50
83, 88
105, 96
150, 159
195, 186
178, 214
191, 176
185, 171
143, 136
123, 98
102, 64
57, 50
32, 23
17, 23
18, 22
4, 18
1, 17
5, 8
13, 15
4, 10
7, 2
7, 3
7, 8
7, 4
11, 6
4, 5
3, 4
10, 6
6, 5
7, 4
7, 5
5, 8
3, 3
2, 4
4, 2
5, 7
4, 4
5, 2
10, 5
7, 5
7, 7
3, 6
5, 3
4, 0
1, 1
5, 2
1, 2
2, 5
8, 6
6, 3
5, 8
8, 7
13, 8
5, 6
7, 4
7, 6
16, 2
11, 2
8, 7
13, 5
9, 6
8, 6
5, 3
9, 10
6, 5
8, 5
9, 8
3, 5
6, 5
2, 5
3, 5
2, 4
6, 4
12, 8
1, 7
4, 8
6, 2
8, 3
5, 2
0, 3
2, 3
1, 5
5, 7
3, 2
3, 1
4, 0
4, 4
5, 4
2, 4
4, 1
4, 4
5, 7
6, 3
6, 8
1, 6
2, 6
6, 7
4, 14
4, 9
3, 8
10, 12
5, 15
6, 26
3, 45
4, 38
5, 40
2, 47
4, 35
3, 37
7, 39
5, 36
5, 21
9, 17
6, 12
3, 13
6, 7
4, 2
2, 7
3, 7
3, 5
5, 4
5, 1
6, 2
2, 3
2, 5
3, 4
2, 5
4, 4
6, 3
6, 7
5, 5
4, 6
8, 7
4, 12
8, 4
9, 12
2, 9
8, 10
6, 7
4, 11
13, 13
1, 5
7, 7
5, 6
8, 9
6, 5
9, 2
7, 4
4, 4
6, 4
2, 4
3, 3
3, 3
3, 2
2, 2
5, 4
1, 1
1, 4
5, 2
4, 1
5, 2
2, 3
3, 3
6, 3
3, 1
3, 8
2, 0
1, 2
3, 2
3, 2
3, 0
5, 1
0, 1
3, 0
2, 2
2, 2
1, 4
5, 3
4, 4
4, 1
6, 4
2, 4
2, 6
2, 2
1, 1
6, 3
1, 1
3, 4
3, 1
2, 5
6, 5
5, 1
15, 8
11, 3
12, 10
17, 5
16, 3
24, 3
24, 4
15, 5
20, 1
10, 1
12, 0
12, 2
5, 1
9, 2
5, 3
2, 1
1, 2
3, 1
3, 3
2, 4
2, 1
2, 2
4, 3
3, 5
3, 2
5, 0
2, 4
1, 7
1, 4
2, 3
3, 4
3, 3
2, 7
2, 4
2, 3
4, 3
1, 2
2, 2
2, 3
2, 1
5, 2
1, 2
4, 4
6, 0
3, 0
1, 3
0, 2
0, 1
1, 3
2, 4
0, 3
0, 0
3, 2
3, 1
1, 2
2, 1
1, 5
4, 3
2, 0
5, 2
2, 3
1, 2
2, 0
2, 1
0, 0
4, 3
0, 0
0, 2
4, 2
1, 1
2, 4
0, 2
3, 1
5, 2
3, 1
2, 1
1, 2
1, 1
1, 1
0, 3
3, 0
3, 1
1, 4
0, 0
0, 0
1, 0
2, 0
0, 2
3, 1
2, 1
2, 0
1, 1
2, 2
2, 1
1, 1
4, 0
2, 2
1, 1
0, 3
2, 5
3, 1
4, 1
0, 2
0, 1
0, 0
0, 0
1, 2
1, 0
2, 1
1, 2
0, 0
2, 1
0, 1
3, 1
1, 0
0, 1
0, 2
0, 0
2, 1
2, 0
0, 1
1, 0
5, 0
0, 1
3, 1
0, 0
1, 0
0, 2
0, 0
1, 1
0, 0
1, 0
0, 0
0, 0
2, 2
1, 3
1, 1
0, 2
1, 1
2, 0
0, 0
0, 1
0, 0
0, 0
0, 0
0, 1
3, 0
1, 0
0, 1
0, 0
0, 0
1, 0
1, 1
0, 2
1, 0
0, 0
0, 1
1, 0
0, 0
0, 2
0, 0
0, 1
3, 0
1, 2
0, 0
1, 1
1, 0
0, 1
1, 2
1, 1
0, 1
0, 2
1, 1
0, 0
2, 0
0, 0
0, 1
0, 1
1, 1
0, 0
0, 1
0, 0
0, 0
0, 0
1, 0
0, 0
1, 1
1, 1
2, 0
0, 0
0, 0
0, 0
0, 0
0, 0
1, 0
0, 0
0, 0
0, 0
1, 0
0, 2
0, 0
0, 0
1, 2
0, 0
0, 0
0, 0
1, 0
1, 0
0, 1
1, 0
0, 2
1, 1
0, 0
0, 0
0, 0
1, 0
0, 1
1, 1
0, 0
2, 0
3, 0
0, 0
0, 0
0, 0
0, 0
1, 0
0, 0
0, 1
0, 1
0, 0
1, 0
0, 0
1, 1
0, 2
0, 1
0, 0
0, 1
1, 0
0, 1
0, 0
1, 0
0, 0
0, 0
1, 0
1, 1
0, 0
1, 0
1, 0
0, 1
1, 1
0, 0
0, 0
1, 1
0, 0
0, 0
2, 0
1, 1
0, 0
0, 0
1, 0
0, 0
0, 0
0, 1
0, 0
1, 2
0, 0
0, 0
1, 0
1, 0
0, 2
0, 1
0, 0
0, 0
1, 3
0, 0
0, 0
1, 0
0, 1
1, 0
1, 1
0, 0
0, 0
1, 0
0, 0
0, 0
0, 0
0, 1
0, 0
2, 0
0, 1
0, 0
0, 0
0, 0
1, 0
0, 0
1, 0
0, 0
1, 1
0, 0
0, 0
1, 1
1, 0
0, 0
1, 0
1, 1
0, 0
0, 0
0, 0
1, 0
1, 0
0, 0
0, 0
1, 0
0, 0
0, 0
1, 1
0, 1
0, 0
0, 0
0, 0
0, 0
1, 0
0, 0
0, 0
1, 0
0, 0
0, 0
0, 0
1, 0
0, 0
1, 0
0, 1
0, 0
0, 0
1, 0
1, 0
0, 0
0, 0
0, 0
0, 0
0, 0
0, 0
0, 0
0, 0
0, 0
0, 1
0, 0
0, 1
0, 1
0, 0
0, 0
0, 0
0, 0
1, 0
0, 0
0, 1
0, 0
0, 0
0, 0
0, 0
0, 0
0, 0
0, 0
0, 0
0, 1
0, 1
0, 0
0, 0
1, 0
1, 0
0, 0
0, 1
0, 0
0, 0
1, 1
1, 0
0, 0
0, 0
0, 0
0, 0
0, 0
0, 0
1, 0
0, 0
0, 0
1, 0
0, 1
0, 0
0, 0
0, 0
0, 0
0, 0
0, 0
0, 0
1, 0
0, 0
0, 0
0, 0
0, 0
0, 0
0, 0
0, 1
0, 0
0, 0
0, 0
0, 0
0, 0
1, 0
0, 0
0, 0
0, 0
0, 0
0, 1
0, 0
0, 0
0, 0
0, 0
0, 0
0, 0
0, 0
0, 0
0, 0
0, 0
0, 0
0, 0
1, 0
0, 0
0, 0
0, 0
0, 1
0, 0
0, 0
0, 0
0, 0
0, 0
0, 0
0, 0
0, 0
0, 0
0, 0
0, 0
1, 0
0, 0
0, 1
0, 0
0, 0
0, 0
0, 0
0, 0
0, 0
0, 0
0, 0
0, 0
0, 0
0, 0
0, 0
0, 0
0, 0
0, 0
0, 0
0, 0
0, 1
0, 0
0, 0
0, 0
0, 0
0, 0
0, 0
0, 0
0, 0
0, 0
0, 0
0, 0
0, 0
0, 0
0, 0
0, 0
0, 0
0, 0
0, 0
0, 0
0, 0
0, 0
0, 0
0, 0
0, 0
0, 0
0, 0
0, 0
0, 0
0, 0
1, 0
0, 0
1, 0
0, 0
0, 0
0, 0
0, 0
0, 0
0, 0
0, 0
0, 0
0, 0
0, 0
0, 0
0, 0
0, 0
0, 0
0, 0
0, 0
0, 0
0, 0
0, 0
0, 0
0, 0
0, 0
0, 0
0, 0
0, 0
0, 0
0, 0
0, 0
0, 0
0, 0
0, 0
0, 0
0, 0
0, 0
0, 0
1, 0
0, 0
0, 0
0, 0
0, 0
0, 0
0, 0
0, 0
0, 0
0, 0
0, 0
0, 0
0, 0
0, 0
0, 0
0, 0
0, 0
0, 0
0, 0
0, 0
0, 0
0, 0
0, 0
0, 0
0, 0
0, 0
0, 0
0, 0
0, 0
0, 0
0, 0
0, 0
0, 0
0, 0
0, 0
0, 0
0, 0
0, 0
0, 0
0, 0
0, 0
0, 0
0, 0
0, 0
0, 0
0, 0
0, 0
0, 0
0, 0
0, 0
0, 0
0, 0
0, 0
0, 0
0, 0
0, 0
0, 0
0, 0
0, 0
0, 0
0, 0
0, 0
0, 0
0, 0
0, 0
0, 0
0, 0
0, 0
0, 0
0, 0
0, 0
0, 0
0, 0
0, 0
0, 0
0, 0
0, 0
0, 0
0, 0
0, 0
0, 0
0, 0
0, 0
0, 0
0, 0
0, 0
0, 0
0, 0
0, 0
0, 0
0, 0
0, 0
0, 0
0, 0
0, 0
0, 0
0, 0
0, 0
0, 0
0, 0
0, 0
0, 0
0, 0
0, 0
0, 0
0, 0
0, 0
0, 0
0, 0
0, 0
0, 0
0, 0
0, 0
0, 0
0, 0
0, 0
0, 0
0, 0
0, 0
0, 0
0, 0
0, 0
0, 0
0, 0
0, 0
0, 0
0, 0
0, 0
0, 0
0, 0
0, 0
0, 0
0, 0
0, 0
0, 0
0, 0
0, 0
0, 0
0, 0
0, 0
0, 0
0, 0
0, 0
0, 0
0, 0
0, 0
0, 0
0, 0
0, 0
0, 0
0, 0
0, 0
0, 0
0, 0
0, 0
0, 0
0, 0
0, 0
0, 0
0, 0
0, 0
0, 0
0, 0
0, 0
0, 0
0, 0
0, 0
0, 0
0, 0
0, 0
0, 0
0, 0
0, 0
0, 0
0, 0
0, 0
0, 0
0, 0
0, 0
0, 0
0, 0
0, 0
0, 0
0, 0
0, 0
0, 0
0, 0
0, 0
0, 0
0, 0
0, 0
0, 0
0, 0
0, 0
0, 0
0, 0
0, 0
0, 0
0, 0
0, 0
0, 0
0, 0
0, 0
0, 0
0, 0
0, 0
0, 0
0, 0
0, 0
0, 0
0, 0
0, 0
0, 0
0, 0
0, 0
0, 0
0, 0
0, 0
0, 0
0, 0
0, 0
0, 0
0, 0
0, 0
0, 0
0, 0
0, 0
0, 0
0, 0
0, 0
0, 0
0, 0
0, 0
0, 0
0, 0
0, 0
0, 0
0, 0
0, 0
0, 0
0, 0
0, 0
0, 0
0, 0
0, 0
0, 0
0, 0
0, 0
0, 0
0, 0
0, 0
0, 0
0, 0
0, 0
0, 0
0, 0
0, 0
0, 0
0, 0
0, 0
0, 0
0, 0
0, 0
0, 0
0, 0
0, 0
0, 0
0, 0
0, 0
0, 0
0, 0
0, 0
0, 0
0, 0
0, 0
0, 0
0, 0
0, 0
0, 0
0, 0
0, 0
0, 0
0, 0
0, 0
0, 0
0, 0
0, 0
0, 0
0, 0
0, 0
0, 0
0, 0
0, 0
0, 0
0, 0
0, 0
0, 0
0, 0
0, 0
0, 0
0, 0
0, 0
0, 0
0, 0
0, 0
0, 0
0, 0
0, 0
0, 0
0, 0
0, 0
0, 0
0, 0
0, 0
0, 0
0, 0
0, 0
0, 0
0, 0
0, 0
0, 0
0, 0
0, 0
0, 0
0, 0
0, 0
0, 0
0, 0
0, 0
0, 0
0, 0
0, 0
0, 0
0, 0
0, 0
0, 0
0, 0
0, 0
0, 0
0, 0
0, 0
0, 0
0, 0
0, 0
0, 0
0, 0
0, 0
0, 0
0, 0
0, 0
0, 0
#ENDOFDATA     end of spectrum data