File: host_upload/12-01-2023/Dourbes (shot-by-shot)/upload_4/ps__0257_0689790785_000rfs_shot_3320.msa
#FORMAT      : EMSA/MAS spectral data file
#VERSION     : TC202v2.0 PIXL
#TITLE       : N/A
#DATE        :       Date in the format DD-MMM-YYYY, for example 07-JUL-2010
#TIME        :             The time of day at which the spectrum was recorded, in 24-hour format
#OWNER       : PIXL Flight Model       (PIXL will use this to indicate which instrument took the data.)
#NPOINTS     : 4096     Number of data points in the spectrum (This can be zero for configuration only files)
#NCOLUMNS    : 2     Number of data columns in the spectrum (This can be zero for configuration only files)
#XUNITS      : eV
#YUNITS      : COUNTS
#DATATYPE    : YY
#XPERCHAN    : 7.862, 7.881   eV per channel (separate by commas if more than one detector)
#OFFSET      : 18.5, -22.4         eV of first channel  (separate by commas if more than one detector
#SIGNALTYPE  : XRF
#YP_TEMP     : 3.198
#LIVETIME    : 9.02857, 9.02182   seconds (separate by commas if more than one detector)
#REALTIME    : 10, 10.0   seconds (separate by commas if more than one detector)
#SPECTRUM    : start of spectrum data
0, 0
0, 0
0, 0
0, 0
0, 0
0, 0
0, 0
0, 0
0, 0
0, 0
0, 0
0, 0
0, 0
0, 0
0, 0
0, 0
0, 0
0, 0
0, 0
0, 0
0, 0
0, 0
0, 0
0, 0
0, 0
0, 0
0, 0
0, 0
0, 0
0, 0
0, 0
0, 0
0, 0
0, 1
0, 0
1, 0
0, 0
2, 0
1, 2
1, 1
1, 2
4, 4
1, 0
2, 0
1, 2
3, 2
0, 2
2, 1
3, 6
5, 3
7, 12
26, 25
28, 35
59, 61
52, 57
36, 37
37, 37
21, 26
13, 7
5, 12
4, 4
3, 4
5, 7
9, 12
1, 5
9, 11
11, 7
10, 7
15, 15
43, 35
85, 86
174, 149
291, 311
446, 445
514, 500
536, 519
414, 426
324, 283
188, 186
119, 103
53, 56
31, 33
19, 11
12, 3
7, 11
6, 6
5, 9
5, 3
5, 3
5, 2
1, 5
2, 2
5, 1
3, 1
7, 5
4, 11
14, 15
15, 14
18, 13
18, 18
13, 16
8, 10
12, 9
6, 13
6, 12
5, 2
7, 15
10, 5
26, 32
24, 30
58, 51
61, 70
61, 65
80, 92
88, 88
84, 82
74, 73
60, 69
60, 51
44, 52
46, 29
34, 38
44, 36
34, 27
26, 23
26, 19
16, 22
19, 17
11, 9
9, 6
8, 7
6, 4
4, 5
3, 4
6, 2
4, 3
3, 7
7, 7
3, 4
6, 3
7, 6
5, 5
4, 8
1, 3
7, 9
1, 2
3, 4
4, 4
3, 5
11, 7
17, 8
26, 29
45, 61
103, 95
156, 146
204, 221
248, 263
270, 290
236, 242
192, 177
153, 148
98, 87
52, 51
32, 16
17, 19
18, 10
19, 21
15, 23
26, 36
41, 47
39, 42
51, 52
38, 46
29, 26
20, 11
29, 15
12, 15
10, 8
12, 7
10, 7
12, 8
6, 7
6, 6
6, 2
9, 3
6, 6
3, 2
12, 7
19, 15
15, 23
20, 10
31, 23
22, 25
32, 31
21, 28
21, 37
20, 18
27, 20
19, 24
18, 19
19, 17
14, 13
25, 13
11, 11
10, 14
8, 7
6, 9
8, 11
8, 12
8, 8
11, 6
8, 10
10, 12
9, 6
8, 16
12, 6
11, 13
17, 13
7, 8
7, 7
12, 4
8, 8
9, 7
13, 11
13, 16
17, 17
14, 14
21, 20
18, 17
16, 23
26, 23
20, 25
16, 28
21, 27
15, 16
10, 18
10, 13
20, 13
16, 12
13, 6
15, 7
9, 9
19, 8
19, 14
16, 17
19, 42
32, 38
53, 67
75, 87
83, 75
79, 97
102, 88
94, 76
66, 67
57, 65
43, 53
37, 46
22, 38
19, 30
19, 30
27, 34
28, 35
47, 69
72, 95
184, 184
276, 352
561, 645
950, 1170
1564, 1685
2116, 2355
2773, 3031
3228, 3360
3266, 3447
3084, 3057
2746, 2493
2078, 1793
1422, 1251
928, 726
508, 406
273, 205
128, 101
73, 66
34, 21
28, 26
22, 18
10, 16
16, 21
15, 18
12, 24
19, 27
33, 28
33, 34
52, 56
84, 122
125, 156
180, 224
293, 321
330, 382
448, 484
458, 463
510, 463
424, 376
369, 323
239, 271
207, 193
119, 115
83, 73
48, 29
10, 17
15, 11
6, 10
6, 2
9, 6
5, 6
9, 6
5, 2
12, 4
12, 10
8, 6
13, 10
9, 7
5, 7
8, 6
10, 7
9, 3
5, 6
4, 3
3, 1
3, 2
1, 1
5, 5
3, 7
5, 5
4, 8
4, 5
6, 3
0, 10
4, 10
2, 2
7, 4
3, 6
4, 6
10, 5
10, 5
8, 16
7, 13
6, 8
5, 4
8, 7
7, 14
5, 11
4, 8
13, 16
7, 11
1, 10
0, 8
6, 16
4, 8
5, 11
8, 2
3, 8
8, 6
2, 7
7, 6
5, 4
2, 3
2, 4
2, 3
4, 5
7, 5
7, 3
2, 9
8, 3
1, 4
1, 7
2, 3
4, 1
6, 3
7, 4
3, 6
4, 4
4, 1
6, 3
2, 2
1, 5
6, 5
5, 2
6, 6
4, 3
2, 2
4, 3
2, 4
5, 4
4, 7
5, 1
12, 4
5, 5
3, 4
5, 3
5, 3
4, 3
4, 4
2, 2
5, 5
7, 0
5, 0
2, 6
1, 3
4, 5
3, 5
5, 2
1, 3
3, 4
1, 4
5, 6
7, 2
2, 4
1, 3
6, 1
2, 5
7, 3
9, 2
1, 3
5, 2
3, 4
4, 1
7, 2
3, 2
1, 3
2, 6
7, 6
3, 4
3, 2
3, 1
2, 6
4, 2
3, 4
2, 3
1, 6
2, 3
3, 4
3, 2
3, 3
3, 3
3, 4
6, 3
6, 1
4, 3
2, 4
2, 4
0, 2
2, 4
4, 7
1, 3
3, 0
2, 6
6, 1
0, 3
3, 2
6, 1
2, 4
2, 1
5, 3
5, 3
3, 1
4, 2
3, 1
4, 1
5, 2
2, 1
2, 3
3, 4
2, 2
1, 3
0, 4
8, 1
5, 1
2, 2
6, 5
3, 1
1, 2
0, 1
2, 4
3, 2
3, 3
4, 2
1, 5
2, 1
2, 4
2, 3
4, 1
1, 3
2, 5
1, 4
1, 4
3, 8
0, 3
4, 1
1, 3
3, 5
1, 1
0, 0
2, 2
0, 2
3, 1
1, 1
0, 2
1, 1
2, 3
3, 2
4, 2
2, 4
1, 4
0, 2
3, 3
3, 0
1, 2
7, 4
2, 1
3, 1
2, 0
2, 0
3, 0
4, 1
4, 2
1, 3
2, 1
3, 0
0, 2
1, 0
3, 1
2, 0
2, 0
2, 1
1, 1
3, 3
3, 1
5, 2
4, 4
5, 5
7, 5
7, 8
8, 5
9, 3
8, 4
4, 4
1, 2
5, 2
3, 1
4, 2
2, 0
5, 0
1, 3
1, 0
1, 1
1, 2
2, 2
1, 1
1, 0
0, 0
1, 4
0, 1
3, 1
3, 1
1, 0
2, 4
3, 3
4, 3
2, 5
2, 1
2, 3
2, 0
1, 2
4, 0
0, 1
1, 2
2, 2
2, 1
0, 0
1, 2
0, 1
3, 0
2, 2
2, 1
3, 2
2, 3
0, 0
4, 0
0, 1
1, 0
2, 0
0, 1
2, 1
0, 0
2, 0
0, 3
0, 1
0, 1
1, 2
0, 1
0, 2
1, 2
0, 0
2, 1
0, 2
2, 0
0, 2
1, 1
0, 4
1, 1
1, 2
0, 2
1, 1
1, 2
1, 0
1, 2
2, 0
0, 1
1, 0
0, 1
0, 0
1, 1
1, 1
1, 0
0, 2
1, 3
1, 2
1, 0
0, 0
2, 0
0, 0
0, 0
0, 1
0, 0
1, 1
2, 1
0, 0
0, 0
0, 1
0, 1
1, 0
1, 0
1, 1
0, 0
0, 0
0, 1
0, 1
0, 0
0, 0
0, 1
1, 0
1, 0
0, 1
0, 0
0, 0
0, 0
1, 0
0, 0
1, 0
1, 1
0, 0
0, 0
0, 1
1, 1
1, 1
0, 0
0, 1
0, 2
1, 1
0, 0
0, 0
0, 1
0, 0
0, 0
2, 1
0, 0
1, 1
1, 1
0, 0
0, 0
0, 0
1, 1
0, 1
0, 3
0, 0
0, 0
1, 0
0, 1
0, 0
1, 0
0, 0
1, 0
0, 1
0, 1
0, 0
0, 0
0, 0
0, 0
0, 0
0, 0
2, 0
1, 1
0, 0
2, 0
0, 0
0, 0
0, 0
0, 0
1, 0
0, 2
0, 0
0, 0
0, 0
0, 0
2, 0
1, 1
0, 0
0, 0
0, 1
2, 0
0, 0
0, 1
0, 0
0, 0
0, 0
0, 0
0, 0
0, 0
0, 0
0, 1
0, 0
0, 0
0, 1
0, 0
0, 0
0, 0
0, 0
0, 1
1, 0
0, 1
0, 1
0, 0
0, 0
0, 0
0, 0
1, 0
1, 1
0, 0
0, 0
1, 0
1, 0
0, 0
0, 0
0, 0
0, 0
0, 0
1, 0
0, 0
0, 0
0, 0
0, 0
0, 0
0, 0
0, 1
0, 1
0, 0
0, 1
0, 0
0, 0
0, 0
0, 0
0, 0
0, 0
0, 0
0, 0
0, 0
0, 0
0, 1
0, 0
0, 1
0, 0
0, 0
0, 1
0, 0
1, 0
0, 0
2, 0
0, 0
0, 1
0, 0
0, 0
0, 1
1, 1
0, 0
0, 0
0, 0
0, 0
0, 1
0, 0
1, 0
0, 0
0, 0
1, 0
1, 0
0, 0
0, 0
0, 0
0, 0
0, 0
1, 0
0, 0
0, 0
0, 0
0, 0
0, 0
0, 0
0, 0
0, 1
0, 0
0, 0
0, 0
0, 0
0, 1
0, 0
0, 0
0, 0
0, 0
0, 0
0, 0
0, 0
0, 0
1, 0
0, 0
0, 0
1, 0
0, 0
0, 0
0, 0
0, 0
0, 0
0, 0
0, 0
0, 0
0, 0
1, 0
0, 0
0, 0
0, 0
1, 0
0, 1
0, 0
0, 0
0, 0
0, 1
1, 1
1, 0
0, 0
0, 0
0, 0
0, 0
0, 0
0, 0
0, 0
0, 0
0, 0
0, 0
0, 0
0, 0
1, 0
0, 0
0, 0
0, 0
0, 0
0, 0
0, 1
0, 0
0, 0
0, 0
0, 0
0, 0
0, 0
0, 0
1, 0
0, 0
0, 0
0, 0
0, 0
0, 0
0, 0
0, 0
0, 0
0, 0
0, 0
1, 0
0, 0
0, 0
0, 1
0, 0
0, 0
0, 0
0, 0
0, 0
0, 0
0, 0
0, 0
0, 0
0, 0
0, 0
0, 0
0, 0
0, 0
0, 0
0, 0
0, 0
0, 0
0, 0
0, 0
0, 0
0, 0
0, 0
0, 0
0, 0
0, 0
0, 0
1, 0
0, 0
1, 0
0, 1
0, 0
0, 0
0, 0
0, 0
0, 0
0, 0
0, 0
0, 0
0, 0
0, 0
0, 0
0, 0
0, 0
0, 0
0, 0
0, 0
0, 0
0, 0
0, 0
0, 0
0, 0
0, 0
0, 0
0, 0
1, 0
0, 0
0, 0
0, 1
0, 0
0, 0
0, 0
0, 0
0, 0
0, 0
0, 0
0, 0
0, 0
0, 0
0, 0
0, 0
0, 0
0, 0
0, 0
0, 0
0, 0
0, 0
0, 0
0, 0
0, 0
0, 0
0, 0
0, 0
0, 0
0, 0
0, 0
0, 0
0, 0
0, 0
0, 0
0, 0
0, 0
0, 0
0, 0
0, 0
0, 0
0, 0
0, 0
0, 0
0, 0
0, 0
0, 0
0, 0
0, 1
0, 0
0, 0
0, 0
0, 0
0, 0
0, 0
0, 0
0, 0
0, 0
0, 0
0, 0
0, 0
0, 0
0, 0
0, 0
0, 0
0, 0
0, 0
0, 0
0, 0
0, 0
0, 0
0, 0
0, 0
0, 0
0, 0
0, 0
0, 0
0, 0
0, 0
0, 0
0, 0
0, 0
0, 0
0, 0
0, 0
0, 0
0, 0
0, 0
0, 0
0, 0
0, 0
0, 0
0, 0
0, 0
0, 0
0, 0
0, 0
0, 0
0, 0
0, 0
0, 0
0, 0
0, 0
0, 0
0, 0
0, 0
0, 0
0, 0
0, 0
0, 0
0, 0
0, 0
0, 0
0, 0
0, 0
0, 0
0, 0
0, 0
0, 0
0, 0
0, 0
0, 0
0, 0
0, 0
0, 0
0, 0
0, 0
0, 0
0, 0
0, 0
0, 0
0, 0
0, 0
0, 0
0, 0
0, 0
0, 0
0, 0
0, 0
0, 0
0, 0
0, 0
0, 0
0, 0
0, 0
0, 0
0, 0
0, 0
0, 0
0, 0
0, 0
0, 0
0, 0
0, 0
0, 0
0, 0
0, 0
0, 0
0, 0
0, 0
0, 0
0, 0
0, 0
0, 0
0, 0
0, 0
0, 0
0, 0
0, 0
0, 0
0, 0
0, 0
0, 0
0, 0
0, 0
0, 0
0, 0
0, 0
0, 0
0, 0
0, 0
0, 0
0, 0
0, 0
0, 0
0, 0
0, 0
0, 0
0, 0
0, 0
0, 0
0, 0
0, 0
0, 0
0, 0
0, 0
0, 0
0, 0
0, 0
0, 0
0, 0
0, 0
0, 0
0, 0
0, 0
0, 0
0, 0
0, 0
0, 0
0, 0
0, 0
0, 0
0, 0
0, 0
0, 0
0, 0
0, 0
0, 0
0, 0
0, 0
0, 0
0, 0
0, 0
0, 0
0, 0
0, 0
0, 0
0, 0
0, 0
0, 0
0, 0
0, 0
0, 0
0, 0
0, 0
0, 0
0, 0
0, 0
0, 0
0, 0
0, 0
0, 0
0, 0
0, 0
0, 0
0, 0
0, 0
0, 0
0, 0
0, 0
0, 0
0, 0
0, 0
0, 0
0, 0
0, 0
0, 0
0, 0
0, 0
0, 0
0, 0
0, 0
0, 0
0, 0
0, 0
0, 0
0, 0
0, 0
0, 0
0, 0
0, 0
0, 0
0, 0
0, 0
0, 0
0, 0
0, 0
0, 0
0, 0
0, 0
0, 0
0, 0
0, 0
0, 0
0, 0
0, 0
0, 0
0, 0
0, 0
0, 0
0, 0
0, 0
0, 0
0, 0
0, 0
0, 0
0, 0
0, 0
0, 0
0, 0
0, 0
0, 0
0, 0
0, 0
0, 0
0, 0
0, 0
0, 0
0, 0
0, 0
0, 0
0, 0
0, 0
0, 0
0, 0
0, 0
0, 0
0, 0
0, 0
0, 0
0, 0
0, 0
0, 0
0, 0
0, 0
0, 0
0, 0
0, 0
0, 0
0, 0
0, 0
0, 0
0, 0
0, 0
0, 0
0, 0
0, 0
0, 0
0, 0
0, 0
0, 0
0, 0
0, 0
0, 0
0, 0
0, 0
0, 0
0, 0
0, 0
0, 0
0, 0
0, 0
0, 0
0, 0
0, 0
0, 0
0, 0
0, 0
0, 0
0, 0
0, 0
0, 0
0, 0
0, 0
0, 0
0, 0
0, 0
0, 0
0, 0
0, 0
0, 0
0, 0
0, 0
0, 0
0, 0
0, 0
0, 0
0, 0
0, 0
0, 0
0, 0
0, 0
0, 0
0, 0
0, 0
0, 0
0, 0
0, 0
0, 0
0, 0
0, 0
0, 0
0, 0
0, 0
0, 0
0, 0
0, 0
0, 0
0, 0
0, 0
0, 0
0, 0
0, 0
0, 0
0, 0
0, 0
0, 0
0, 0
0, 0
0, 0
0, 0
0, 0
0, 0
0, 0
#ENDOFDATA     end of spectrum data