File: host_upload/12-01-2023/Dourbes (shot-by-shot)/upload_4/ps__0257_0689790785_000rfs_shot_3040.msa
#FORMAT      : EMSA/MAS spectral data file
#VERSION     : TC202v2.0 PIXL
#TITLE       : N/A
#DATE        :       Date in the format DD-MMM-YYYY, for example 07-JUL-2010
#TIME        :             The time of day at which the spectrum was recorded, in 24-hour format
#OWNER       : PIXL Flight Model       (PIXL will use this to indicate which instrument took the data.)
#NPOINTS     : 4096     Number of data points in the spectrum (This can be zero for configuration only files)
#NCOLUMNS    : 2     Number of data columns in the spectrum (This can be zero for configuration only files)
#XUNITS      : eV
#YUNITS      : COUNTS
#DATATYPE    : YY
#XPERCHAN    : 7.862, 7.881   eV per channel (separate by commas if more than one detector)
#OFFSET      : 18.5, -22.4         eV of first channel  (separate by commas if more than one detector
#SIGNALTYPE  : XRF
#YP_TEMP     : 3.294
#LIVETIME    : 9.03971, 9.0442   seconds (separate by commas if more than one detector)
#REALTIME    : 10, 10.0   seconds (separate by commas if more than one detector)
#SPECTRUM    : start of spectrum data
0, 0
0, 0
0, 0
0, 0
0, 0
0, 0
0, 0
0, 0
0, 0
0, 0
0, 0
0, 0
0, 0
0, 0
0, 0
0, 0
0, 0
0, 0
0, 0
0, 0
0, 0
0, 0
0, 0
0, 0
0, 0
0, 0
0, 0
0, 0
0, 0
0, 0
0, 0
0, 0
0, 0
0, 0
1, 1
1, 0
0, 0
1, 0
1, 2
0, 0
0, 1
1, 3
2, 1
2, 1
4, 1
0, 3
0, 3
5, 4
2, 4
8, 3
12, 9
16, 13
36, 39
60, 55
47, 47
50, 32
48, 34
19, 19
13, 10
6, 3
7, 2
4, 1
3, 5
5, 0
1, 2
5, 6
4, 3
6, 12
14, 13
42, 36
97, 91
199, 177
348, 327
495, 456
646, 511
587, 573
550, 549
363, 347
215, 205
119, 116
89, 62
38, 30
16, 14
7, 9
7, 2
2, 3
3, 0
4, 4
3, 4
2, 1
3, 2
7, 1
18, 1
24, 4
42, 3
48, 18
53, 20
60, 28
46, 27
45, 27
43, 20
24, 14
17, 12
13, 14
13, 3
5, 4
7, 5
5, 6
21, 19
25, 15
37, 37
38, 49
62, 71
71, 76
80, 64
64, 50
58, 64
51, 49
43, 25
35, 21
41, 38
20, 23
30, 27
29, 20
16, 15
23, 18
14, 16
12, 10
18, 15
11, 7
11, 6
6, 5
2, 3
4, 4
1, 1
3, 4
3, 7
4, 1
5, 3
0, 4
1, 4
0, 5
4, 1
4, 6
6, 3
6, 1
4, 5
3, 1
1, 3
1, 1
3, 7
3, 9
9, 12
8, 20
22, 24
33, 39
36, 56
23, 71
32, 66
31, 57
24, 41
17, 33
11, 33
8, 14
1, 8
9, 8
8, 7
5, 9
4, 5
9, 9
9, 10
11, 9
9, 10
5, 7
9, 6
6, 7
4, 4
5, 4
8, 3
4, 4
4, 5
6, 3
6, 7
3, 3
4, 2
3, 7
5, 6
10, 9
9, 11
7, 9
12, 7
10, 11
15, 16
16, 9
16, 17
19, 16
19, 13
18, 30
17, 31
26, 20
22, 12
10, 11
12, 8
7, 13
4, 14
6, 7
10, 6
6, 6
5, 7
8, 8
9, 4
12, 8
9, 7
12, 7
15, 6
9, 4
14, 11
12, 6
8, 5
9, 6
7, 11
6, 6
8, 12
7, 16
12, 13
8, 23
9, 31
9, 35
11, 47
4, 44
14, 87
9, 90
14, 100
12, 98
8, 109
13, 95
12, 88
9, 54
14, 34
12, 20
5, 18
8, 17
14, 10
13, 13
23, 18
29, 32
30, 47
51, 60
83, 61
76, 87
89, 96
91, 92
87, 73
77, 65
75, 57
42, 29
31, 24
27, 15
21, 13
9, 19
27, 13
19, 37
35, 48
88, 96
153, 184
309, 379
546, 720
937, 1100
1467, 1749
2081, 2426
2715, 3046
3270, 3315
3467, 3465
3215, 3115
2799, 2566
2261, 1847
1625, 1255
1038, 817
621, 433
324, 214
182, 118
88, 40
53, 32
24, 20
19, 18
30, 23
18, 19
21, 10
24, 22
21, 27
26, 25
49, 41
47, 58
66, 89
129, 122
195, 230
251, 305
359, 419
430, 493
479, 490
489, 503
464, 421
397, 334
307, 227
191, 188
125, 112
79, 66
54, 50
18, 14
7, 8
12, 6
5, 7
3, 7
5, 6
4, 4
2, 5
9, 10
8, 11
8, 12
3, 15
7, 14
8, 4
6, 5
3, 2
9, 6
7, 3
5, 4
6, 5
6, 1
2, 1
5, 3
7, 2
3, 0
1, 3
3, 3
9, 4
2, 3
3, 4
1, 6
3, 2
3, 5
5, 4
5, 5
2, 9
6, 4
6, 9
5, 4
5, 3
4, 4
2, 4
3, 6
4, 6
5, 0
7, 4
3, 3
3, 7
3, 2
7, 3
4, 2
1, 2
4, 4
1, 4
4, 4
2, 3
6, 10
4, 4
6, 6
6, 4
4, 6
2, 4
4, 8
6, 5
1, 4
1, 15
2, 13
4, 12
5, 15
5, 9
7, 8
7, 13
9, 8
5, 5
5, 3
5, 7
6, 0
8, 4
10, 8
11, 6
5, 7
6, 7
2, 5
5, 3
4, 3
4, 4
6, 4
2, 5
3, 4
2, 7
6, 1
4, 4
4, 4
3, 4
6, 7
2, 7
6, 3
2, 4
3, 3
2, 7
2, 3
3, 4
3, 3
4, 6
2, 10
3, 4
7, 5
0, 4
4, 2
2, 2
5, 4
2, 3
1, 4
6, 3
3, 5
1, 6
2, 3
3, 1
2, 2
3, 7
6, 5
5, 7
2, 3
1, 1
2, 3
6, 3
6, 4
3, 0
4, 2
2, 3
2, 3
0, 2
5, 2
1, 2
5, 2
1, 7
2, 4
1, 4
5, 4
2, 3
3, 3
1, 3
6, 2
5, 4
2, 4
4, 5
6, 3
1, 4
0, 9
3, 5
4, 5
2, 6
2, 4
2, 6
1, 13
0, 8
2, 12
5, 13
3, 5
1, 9
1, 4
3, 5
3, 9
4, 2
1, 4
3, 3
5, 3
2, 5
4, 3
0, 1
2, 2
1, 2
2, 2
1, 0
4, 7
3, 2
2, 0
1, 1
4, 4
1, 3
2, 0
1, 2
3, 0
2, 1
2, 5
1, 1
3, 6
1, 3
0, 4
2, 2
2, 2
4, 6
1, 3
2, 3
1, 5
2, 1
2, 0
2, 1
0, 3
0, 3
3, 3
1, 6
1, 4
2, 5
2, 3
0, 4
6, 3
0, 3
1, 6
4, 2
4, 7
3, 5
2, 5
5, 4
0, 5
5, 1
2, 2
2, 0
3, 2
3, 1
2, 1
2, 3
3, 3
1, 4
0, 0
3, 3
2, 5
3, 2
5, 3
5, 2
8, 2
1, 4
5, 12
4, 3
1, 8
7, 3
2, 7
6, 3
8, 3
3, 2
2, 4
1, 4
1, 2
0, 2
1, 3
1, 1
0, 0
1, 2
3, 2
1, 4
1, 1
0, 1
1, 1
3, 3
1, 2
1, 3
2, 4
2, 2
2, 4
0, 2
3, 4
4, 4
2, 2
3, 1
2, 4
2, 1
5, 2
0, 2
0, 6
1, 1
0, 0
2, 1
1, 1
1, 1
0, 2
1, 0
5, 2
1, 1
2, 1
3, 1
0, 2
1, 2
2, 0
0, 0
0, 1
2, 0
0, 1
1, 0
1, 1
0, 1
0, 0
3, 0
5, 1
2, 2
0, 0
2, 2
1, 2
1, 0
0, 0
0, 2
0, 2
0, 1
1, 2
0, 0
1, 1
0, 0
0, 0
1, 0
1, 0
2, 0
1, 2
1, 1
1, 0
2, 1
0, 0
0, 1
0, 0
0, 1
2, 1
1, 2
2, 1
1, 1
1, 1
0, 0
0, 0
1, 1
1, 0
0, 1
1, 0
1, 0
2, 1
1, 1
0, 1
0, 1
0, 3
1, 0
1, 1
0, 0
1, 2
0, 0
0, 0
0, 0
1, 0
1, 0
0, 0
1, 1
0, 1
0, 0
0, 0
1, 0
0, 2
0, 1
0, 0
2, 0
0, 0
0, 0
1, 0
1, 0
2, 0
0, 0
1, 0
0, 2
0, 1
0, 0
1, 0
0, 2
1, 1
1, 2
0, 0
0, 0
0, 0
1, 0
1, 1
0, 3
1, 0
1, 0
0, 0
0, 0
0, 1
0, 2
0, 0
0, 0
0, 0
0, 0
2, 1
0, 0
0, 0
1, 0
0, 0
0, 0
2, 0
0, 2
0, 0
0, 0
1, 0
0, 0
3, 0
0, 0
0, 0
0, 0
1, 0
0, 0
0, 0
1, 0
0, 1
1, 2
0, 0
1, 0
0, 0
0, 0
0, 0
1, 0
0, 1
1, 1
0, 0
0, 1
0, 0
0, 1
1, 0
1, 1
0, 3
0, 1
0, 1
0, 0
0, 1
0, 0
0, 2
0, 0
0, 0
0, 0
0, 1
0, 1
0, 1
1, 0
0, 0
0, 0
0, 0
0, 0
0, 0
0, 0
0, 1
0, 0
0, 0
0, 0
0, 2
0, 0
0, 0
0, 0
0, 2
0, 0
0, 0
1, 1
0, 0
0, 0
0, 0
0, 0
1, 0
0, 0
0, 1
1, 1
0, 0
0, 0
0, 0
1, 0
1, 1
0, 0
0, 1
0, 0
2, 0
1, 0
0, 0
0, 1
0, 0
0, 1
0, 2
0, 0
0, 0
0, 0
0, 1
0, 0
1, 0
1, 0
0, 0
1, 0
0, 0
0, 0
0, 1
1, 1
0, 0
0, 0
0, 0
0, 0
0, 1
0, 1
1, 0
1, 0
0, 1
0, 0
0, 0
0, 0
0, 0
0, 0
0, 1
1, 0
1, 1
0, 0
0, 0
0, 0
0, 0
0, 0
0, 0
0, 0
0, 0
0, 0
0, 0
1, 0
0, 1
0, 0
0, 0
0, 0
0, 0
0, 1
0, 0
0, 0
0, 0
0, 0
0, 0
0, 0
0, 0
0, 0
0, 0
0, 0
0, 1
0, 0
0, 0
0, 0
0, 0
0, 1
0, 0
0, 0
0, 0
0, 0
0, 0
1, 0
0, 0
0, 0
0, 0
1, 0
0, 0
0, 0
0, 0
0, 1
0, 0
0, 0
0, 0
1, 0
0, 0
0, 0
0, 0
0, 0
0, 0
0, 0
1, 0
0, 0
0, 0
0, 1
0, 0
0, 1
0, 0
0, 0
0, 0
0, 0
0, 0
0, 1
0, 0
0, 0
0, 0
0, 0
0, 0
0, 0
0, 0
0, 0
0, 0
0, 0
0, 0
0, 0
0, 1
0, 1
0, 0
0, 0
0, 0
0, 0
0, 0
0, 0
0, 0
0, 0
0, 0
0, 0
0, 0
0, 0
0, 0
0, 0
0, 0
0, 0
0, 0
0, 0
0, 0
0, 0
0, 0
0, 0
0, 0
0, 0
0, 0
0, 0
0, 0
0, 1
0, 0
0, 0
0, 0
0, 0
0, 0
0, 0
0, 0
0, 0
0, 0
0, 0
0, 0
0, 0
0, 0
0, 0
0, 0
0, 0
0, 0
0, 0
0, 0
0, 0
0, 0
0, 0
0, 0
0, 0
0, 0
0, 0
0, 0
0, 0
0, 0
0, 0
1, 0
0, 0
0, 0
0, 0
0, 0
0, 0
0, 0
0, 0
0, 0
0, 0
0, 0
0, 0
0, 0
0, 0
0, 0
0, 0
0, 0
0, 0
0, 0
0, 0
0, 0
0, 0
0, 0
0, 0
0, 0
0, 0
0, 0
0, 0
0, 0
0, 0
0, 0
0, 0
0, 0
0, 0
0, 0
0, 0
0, 0
0, 0
0, 0
0, 0
0, 0
0, 0
1, 0
0, 0
0, 0
0, 0
0, 0
0, 0
0, 0
0, 0
0, 0
0, 0
0, 0
0, 0
0, 0
0, 0
0, 0
0, 0
0, 0
0, 0
0, 0
0, 0
0, 0
0, 0
0, 0
0, 0
0, 0
0, 0
0, 0
0, 0
0, 0
0, 0
0, 0
0, 0
0, 0
0, 0
0, 0
0, 0
0, 0
0, 0
0, 0
0, 0
0, 0
0, 0
0, 0
0, 0
0, 0
0, 0
0, 0
0, 0
0, 0
0, 0
0, 0
0, 0
0, 0
0, 0
0, 0
0, 0
0, 0
0, 0
0, 0
0, 0
0, 0
0, 0
0, 0
0, 0
0, 0
0, 0
0, 0
0, 0
0, 0
0, 0
0, 0
0, 0
0, 0
0, 0
0, 0
0, 0
0, 0
0, 0
0, 0
0, 0
0, 0
0, 0
0, 0
0, 0
0, 0
0, 0
0, 0
0, 0
0, 0
0, 0
0, 0
0, 0
0, 0
0, 0
0, 0
0, 0
0, 0
0, 0
0, 0
0, 0
0, 0
0, 0
0, 0
0, 0
0, 0
0, 0
0, 0
0, 0
0, 0
0, 0
0, 0
0, 1
0, 0
0, 0
0, 0
0, 0
0, 0
0, 0
0, 0
0, 0
0, 0
0, 0
0, 0
0, 0
0, 0
0, 0
0, 0
0, 0
0, 0
0, 0
0, 0
0, 0
0, 0
0, 0
0, 0
0, 0
0, 0
0, 0
0, 0
0, 0
0, 0
0, 0
0, 0
0, 0
0, 0
0, 0
0, 0
0, 0
0, 0
0, 0
0, 0
0, 0
0, 0
0, 0
0, 0
0, 0
0, 0
0, 0
0, 0
0, 0
0, 0
0, 0
0, 0
0, 0
0, 0
0, 0
0, 0
0, 0
0, 0
0, 0
0, 0
0, 0
0, 0
0, 0
0, 0
0, 0
0, 0
0, 0
0, 0
0, 0
0, 0
0, 0
0, 0
0, 0
0, 0
0, 0
0, 0
0, 0
0, 0
0, 0
0, 0
0, 0
0, 0
0, 0
0, 0
0, 0
0, 0
0, 0
0, 0
0, 0
0, 0
0, 0
0, 0
0, 0
0, 0
0, 0
0, 0
0, 0
0, 0
0, 0
0, 0
0, 0
0, 0
0, 0
0, 0
0, 0
0, 0
0, 0
0, 0
0, 0
0, 0
0, 0
0, 0
0, 0
0, 0
0, 0
0, 0
0, 0
0, 0
0, 0
0, 0
0, 0
0, 0
0, 0
0, 0
0, 0
0, 0
0, 0
0, 0
0, 0
0, 0
0, 0
0, 0
0, 0
0, 0
0, 0
0, 0
0, 0
0, 0
0, 0
0, 0
0, 0
0, 0
0, 0
0, 0
0, 0
0, 0
0, 0
0, 0
0, 0
0, 0
0, 0
0, 0
0, 0
0, 0
0, 0
0, 0
0, 0
0, 0
0, 0
0, 0
0, 0
0, 0
0, 0
0, 0
0, 0
0, 0
0, 0
0, 0
0, 0
0, 0
0, 0
0, 0
0, 0
0, 0
0, 0
0, 0
0, 0
0, 0
0, 0
0, 0
0, 0
0, 0
0, 0
0, 0
0, 0
0, 0
0, 0
0, 0
0, 0
0, 0
0, 0
0, 0
0, 0
0, 0
0, 0
0, 0
0, 0
0, 0
0, 0
0, 0
0, 0
0, 0
0, 0
0, 0
0, 0
0, 0
0, 0
0, 0
0, 0
0, 0
0, 0
0, 0
0, 0
0, 0
0, 0
0, 0
0, 0
0, 0
0, 0
0, 0
0, 0
0, 0
0, 0
0, 0
0, 0
0, 0
0, 0
0, 0
0, 0
0, 0
0, 0
0, 0
0, 0
0, 0
0, 0
0, 0
0, 0
0, 0
0, 0
0, 0
0, 0
0, 0
0, 0
0, 0
0, 0
0, 0
0, 0
0, 0
0, 0
0, 0
0, 0
0, 0
0, 0
0, 0
0, 0
0, 0
0, 0
0, 0
0, 0
#ENDOFDATA     end of spectrum data