File: host_upload/12-01-2023/Dourbes (shot-by-shot)/upload_4/ps__0257_0689790785_000rfs_shot_3230.msa
#FORMAT      : EMSA/MAS spectral data file
#VERSION     : TC202v2.0 PIXL
#TITLE       : N/A
#DATE        :       Date in the format DD-MMM-YYYY, for example 07-JUL-2010
#TIME        :             The time of day at which the spectrum was recorded, in 24-hour format
#OWNER       : PIXL Flight Model       (PIXL will use this to indicate which instrument took the data.)
#NPOINTS     : 4096     Number of data points in the spectrum (This can be zero for configuration only files)
#NCOLUMNS    : 2     Number of data columns in the spectrum (This can be zero for configuration only files)
#XUNITS      : eV
#YUNITS      : COUNTS
#DATATYPE    : YY
#XPERCHAN    : 7.862, 7.881   eV per channel (separate by commas if more than one detector)
#OFFSET      : 18.5, -22.4         eV of first channel  (separate by commas if more than one detector
#SIGNALTYPE  : XRF
#YP_TEMP     : 3.326
#LIVETIME    : 9.08724, 9.08496   seconds (separate by commas if more than one detector)
#REALTIME    : 10, 10.0   seconds (separate by commas if more than one detector)
#SPECTRUM    : start of spectrum data
0, 0
0, 0
0, 0
0, 0
0, 0
0, 0
0, 0
0, 0
0, 0
0, 0
0, 0
0, 0
0, 0
0, 0
0, 0
0, 0
0, 0
0, 0
0, 0
0, 0
0, 0
0, 0
0, 0
0, 0
0, 0
0, 0
0, 0
0, 0
0, 0
0, 0
0, 0
0, 0
0, 0
0, 0
1, 0
0, 0
1, 0
0, 2
2, 5
2, 4
4, 6
2, 1
3, 2
5, 4
1, 5
1, 0
3, 1
1, 1
3, 1
6, 6
11, 9
20, 12
26, 26
40, 38
40, 39
31, 32
34, 19
15, 18
12, 10
10, 8
9, 6
8, 13
11, 12
17, 21
12, 22
19, 15
15, 13
12, 6
15, 14
26, 37
74, 90
169, 158
298, 289
418, 378
496, 500
523, 481
411, 402
287, 294
174, 178
122, 82
60, 43
20, 25
11, 3
11, 7
4, 5
6, 3
2, 4
4, 1
3, 3
4, 2
6, 5
7, 3
1, 2
0, 6
11, 8
22, 14
31, 20
41, 35
30, 35
47, 37
37, 37
36, 24
27, 21
16, 9
14, 10
9, 11
16, 16
23, 23
52, 56
76, 91
142, 128
165, 178
173, 206
237, 211
213, 207
187, 213
162, 189
141, 141
102, 113
72, 74
72, 78
56, 56
45, 52
43, 42
36, 37
33, 34
27, 30
27, 30
25, 20
15, 17
10, 15
9, 11
3, 5
6, 7
4, 4
7, 9
4, 4
11, 8
13, 9
18, 12
23, 12
17, 18
21, 21
9, 19
10, 16
12, 13
3, 10
6, 7
11, 5
6, 7
12, 11
12, 11
29, 24
38, 37
63, 48
78, 72
86, 76
88, 106
102, 80
67, 83
58, 38
28, 28
26, 17
9, 9
4, 8
6, 6
7, 7
7, 8
13, 18
9, 13
13, 19
12, 13
14, 18
12, 13
16, 10
12, 14
13, 8
6, 13
14, 12
12, 13
15, 6
9, 5
12, 5
6, 9
3, 10
10, 4
9, 9
10, 11
15, 12
16, 16
16, 12
13, 19
18, 13
17, 19
25, 25
26, 22
32, 23
24, 32
22, 27
18, 35
24, 27
27, 24
16, 23
17, 20
17, 10
13, 15
17, 18
20, 11
6, 17
12, 10
19, 13
7, 15
13, 10
18, 14
21, 16
11, 16
13, 13
7, 12
9, 14
8, 14
16, 15
11, 19
18, 12
13, 19
12, 19
14, 20
14, 17
9, 16
23, 21
15, 19
15, 12
14, 20
10, 21
13, 11
14, 12
11, 18
13, 10
9, 10
13, 16
17, 14
13, 14
20, 13
15, 7
20, 12
23, 26
25, 31
44, 37
56, 46
59, 65
75, 70
73, 73
85, 70
65, 63
54, 51
49, 40
36, 34
37, 29
22, 19
15, 30
25, 14
21, 20
17, 39
33, 47
63, 87
121, 169
233, 300
456, 545
827, 919
1201, 1399
1732, 1978
2169, 2294
2620, 2649
2658, 2666
2491, 2284
2199, 1920
1673, 1380
1160, 961
746, 567
465, 323
256, 175
99, 94
68, 44
40, 26
32, 15
16, 22
16, 24
17, 27
21, 25
23, 26
20, 26
25, 22
34, 36
53, 60
87, 74
99, 120
158, 202
209, 243
272, 307
333, 373
380, 372
367, 371
335, 351
307, 288
215, 202
152, 136
90, 81
72, 42
39, 22
29, 20
13, 13
12, 10
7, 8
10, 9
13, 6
8, 10
6, 7
5, 10
10, 3
8, 14
6, 7
10, 9
6, 6
9, 6
6, 7
8, 6
6, 1
3, 8
5, 8
3, 6
4, 6
8, 7
10, 8
9, 6
12, 9
9, 6
10, 4
8, 8
11, 7
8, 4
4, 9
9, 4
9, 10
10, 6
11, 6
6, 8
7, 8
10, 9
14, 7
9, 18
6, 8
7, 4
8, 3
8, 7
10, 4
5, 6
7, 3
9, 4
8, 9
9, 4
7, 6
8, 2
10, 6
11, 8
13, 5
11, 3
9, 7
7, 8
6, 7
4, 12
8, 10
11, 7
6, 9
7, 6
7, 3
6, 8
8, 12
7, 9
9, 11
9, 10
8, 9
3, 5
7, 4
6, 4
3, 9
6, 9
8, 7
4, 5
8, 5
7, 6
4, 4
5, 11
3, 4
6, 3
5, 1
4, 7
2, 3
5, 11
3, 6
6, 7
8, 10
6, 4
3, 4
8, 7
8, 2
7, 5
6, 4
3, 6
5, 3
5, 7
5, 7
5, 3
6, 5
8, 4
3, 8
6, 7
6, 7
4, 5
7, 3
4, 4
8, 4
6, 3
4, 2
3, 4
6, 4
4, 9
1, 3
3, 9
1, 4
5, 4
3, 5
3, 4
5, 6
5, 3
2, 4
4, 4
9, 5
6, 3
3, 4
8, 6
8, 4
6, 9
6, 3
2, 5
6, 4
4, 4
4, 4
1, 7
8, 1
2, 2
4, 6
5, 8
3, 3
3, 2
2, 7
2, 8
6, 3
5, 4
3, 6
3, 2
4, 4
7, 3
2, 4
5, 4
1, 2
2, 3
4, 9
8, 1
2, 6
6, 2
6, 5
7, 4
6, 2
2, 1
2, 1
5, 2
3, 3
1, 0
1, 1
5, 3
5, 5
2, 3
1, 3
3, 6
5, 4
3, 3
5, 5
2, 4
4, 3
5, 2
3, 0
3, 2
1, 2
0, 0
2, 2
6, 2
4, 2
4, 2
4, 4
1, 4
1, 5
3, 1
2, 2
4, 2
5, 2
4, 3
4, 4
1, 2
6, 3
0, 2
3, 3
1, 4
6, 5
4, 3
4, 0
1, 2
3, 2
2, 0
3, 2
3, 3
1, 2
2, 3
2, 6
4, 5
0, 3
3, 2
1, 1
2, 2
2, 2
3, 1
3, 4
0, 3
4, 6
0, 3
3, 5
4, 4
2, 3
0, 2
5, 2
5, 5
3, 4
6, 6
2, 5
7, 8
10, 3
2, 4
1, 5
6, 3
3, 2
2, 2
3, 2
2, 1
1, 4
2, 2
2, 0
0, 1
4, 2
0, 0
1, 1
2, 1
0, 1
3, 3
4, 0
1, 4
3, 2
1, 2
6, 1
4, 5
1, 3
3, 5
1, 0
2, 3
1, 2
1, 0
2, 5
0, 1
0, 1
1, 0
3, 1
0, 1
0, 1
1, 1
2, 0
1, 2
2, 2
1, 2
1, 2
6, 1
2, 1
1, 1
0, 2
1, 2
3, 3
3, 1
8, 1
2, 2
2, 0
3, 1
2, 1
2, 0
1, 0
4, 1
1, 0
2, 2
5, 2
2, 2
0, 1
2, 0
1, 1
1, 0
1, 1
0, 1
1, 0
0, 3
0, 3
2, 1
1, 1
0, 0
1, 3
2, 1
2, 1
0, 1
1, 0
0, 1
1, 0
1, 1
0, 1
0, 0
0, 0
1, 0
0, 3
1, 1
0, 4
0, 0
0, 0
0, 0
0, 2
0, 1
0, 1
1, 1
0, 1
0, 1
0, 0
2, 1
0, 0
1, 0
0, 1
0, 3
2, 0
1, 0
0, 0
0, 0
0, 0
1, 0
0, 0
1, 0
1, 1
1, 1
0, 2
1, 0
2, 0
0, 0
0, 1
1, 0
1, 0
1, 0
0, 1
0, 0
0, 0
1, 1
0, 0
0, 0
1, 1
1, 0
0, 2
3, 1
0, 2
0, 0
0, 2
0, 1
2, 0
0, 0
1, 0
0, 0
0, 0
0, 0
2, 0
1, 0
1, 0
2, 0
0, 0
0, 1
1, 0
0, 0
1, 0
1, 0
0, 1
1, 0
1, 0
0, 1
0, 0
0, 0
0, 1
0, 2
0, 1
0, 2
0, 2
0, 0
0, 0
0, 0
0, 0
0, 2
1, 1
0, 2
0, 2
0, 0
0, 4
1, 0
2, 2
0, 0
0, 2
0, 1
0, 0
0, 0
3, 0
0, 0
1, 1
0, 1
3, 0
0, 0
0, 1
1, 2
0, 0
0, 0
0, 0
0, 0
0, 0
0, 2
1, 0
0, 1
1, 0
0, 0
0, 0
0, 0
0, 2
0, 0
2, 0
0, 0
0, 2
0, 0
0, 0
0, 0
0, 1
0, 0
2, 0
1, 1
0, 1
1, 0
0, 0
1, 0
1, 0
0, 1
0, 0
0, 0
0, 1
1, 1
0, 0
0, 0
0, 1
0, 0
1, 0
1, 0
1, 0
1, 0
0, 0
0, 1
0, 0
0, 0
0, 1
2, 0
1, 0
0, 0
1, 0
0, 0
0, 1
0, 1
0, 1
2, 1
1, 0
0, 0
1, 0
0, 0
0, 0
0, 0
0, 1
0, 1
1, 0
0, 0
0, 0
0, 0
1, 0
0, 0
0, 2
0, 1
1, 1
0, 2
1, 0
0, 0
0, 0
0, 0
0, 0
1, 1
0, 0
0, 1
0, 1
0, 0
0, 0
0, 0
0, 0
0, 0
0, 0
0, 0
3, 0
0, 0
0, 0
0, 0
0, 0
0, 0
0, 0
0, 1
0, 0
1, 0
0, 1
0, 0
0, 0
0, 1
1, 1
0, 0
0, 0
0, 0
0, 0
0, 0
1, 0
0, 0
1, 1
0, 0
1, 0
0, 0
0, 0
0, 0
0, 0
0, 1
0, 0
0, 0
0, 0
0, 0
0, 1
0, 0
0, 0
0, 0
0, 0
0, 0
0, 0
0, 0
0, 0
0, 0
0, 0
0, 0
0, 0
0, 0
0, 0
0, 0
0, 0
0, 0
0, 0
0, 0
0, 0
0, 0
0, 0
0, 0
0, 0
0, 0
0, 0
0, 0
0, 0
0, 0
0, 0
0, 0
0, 0
0, 2
0, 0
0, 0
0, 0
0, 0
1, 0
0, 0
0, 0
0, 0
0, 0
0, 0
0, 0
0, 0
0, 0
0, 0
0, 0
0, 0
0, 1
0, 0
0, 0
0, 0
0, 0
0, 0
0, 0
0, 0
0, 0
0, 0
0, 1
1, 0
0, 0
0, 0
0, 0
0, 0
0, 0
0, 0
0, 0
0, 0
2, 0
0, 0
0, 0
0, 0
0, 0
0, 0
0, 0
0, 1
0, 0
0, 0
0, 0
0, 0
0, 0
0, 0
0, 0
0, 0
0, 0
0, 0
0, 0
0, 0
0, 0
0, 0
1, 0
0, 0
0, 0
0, 0
0, 0
0, 0
0, 0
0, 0
0, 0
0, 0
0, 0
0, 0
0, 0
0, 0
0, 0
0, 0
0, 0
0, 0
0, 0
0, 0
0, 0
0, 0
0, 0
0, 0
0, 0
1, 0
0, 1
0, 0
0, 0
0, 0
0, 0
0, 0
0, 0
0, 0
0, 0
0, 0
0, 0
0, 0
0, 0
0, 0
0, 0
0, 0
0, 0
0, 0
0, 0
0, 0
0, 0
1, 0
0, 0
0, 0
0, 0
0, 0
0, 0
0, 0
0, 0
0, 0
0, 0
0, 0
0, 0
0, 0
0, 0
0, 0
0, 0
0, 0
0, 0
0, 0
0, 0
0, 0
0, 0
0, 0
0, 0
0, 0
0, 0
0, 0
0, 0
0, 0
0, 0
0, 0
0, 0
0, 0
0, 0
0, 0
0, 0
0, 0
0, 0
0, 0
0, 0
0, 0
0, 0
0, 0
0, 0
0, 0
0, 0
0, 0
0, 0
0, 0
0, 0
0, 0
0, 0
0, 0
0, 0
0, 0
0, 0
0, 0
0, 0
0, 0
0, 0
0, 0
0, 0
0, 0
0, 0
0, 0
0, 0
0, 0
0, 0
0, 0
0, 0
0, 0
0, 0
0, 0
0, 0
0, 0
0, 0
0, 0
0, 0
0, 0
0, 0
0, 0
0, 0
0, 0
0, 0
0, 0
0, 0
0, 0
0, 0
0, 0
0, 0
0, 0
0, 0
0, 0
0, 0
0, 0
0, 0
0, 0
0, 0
0, 0
0, 0
0, 0
0, 0
0, 0
0, 0
0, 0
0, 0
0, 0
0, 0
0, 0
0, 0
0, 0
0, 0
0, 0
0, 0
0, 0
0, 0
0, 0
0, 0
0, 0
0, 0
0, 0
0, 0
0, 0
0, 0
0, 0
0, 0
0, 0
0, 0
0, 0
0, 0
0, 0
0, 0
0, 0
0, 0
0, 0
0, 0
0, 0
0, 0
0, 0
0, 0
0, 0
0, 0
0, 0
0, 0
0, 0
0, 0
0, 0
0, 0
0, 0
0, 0
0, 0
0, 0
0, 0
0, 0
0, 0
0, 0
0, 0
0, 0
0, 0
0, 0
0, 0
0, 0
0, 0
0, 0
0, 0
0, 0
0, 0
0, 0
0, 0
0, 0
0, 0
0, 0
0, 0
0, 0
0, 0
0, 0
0, 0
0, 0
0, 0
0, 0
0, 0
0, 0
0, 0
0, 0
0, 0
0, 0
0, 0
0, 0
0, 0
0, 0
0, 0
0, 0
0, 0
0, 0
0, 0
0, 0
0, 0
0, 0
0, 0
0, 0
0, 0
0, 0
0, 0
0, 0
0, 0
0, 0
0, 0
0, 0
0, 0
0, 0
0, 0
0, 0
0, 0
0, 0
0, 0
0, 0
0, 0
0, 0
0, 0
0, 0
0, 0
0, 0
0, 0
0, 0
0, 0
0, 0
0, 0
0, 0
0, 0
0, 0
0, 0
0, 0
0, 0
0, 0
0, 0
0, 0
0, 0
0, 0
0, 0
0, 0
0, 0
0, 0
0, 0
0, 0
0, 0
0, 0
0, 0
0, 0
0, 0
0, 0
0, 0
0, 0
0, 0
0, 0
0, 0
0, 0
0, 0
0, 0
0, 0
0, 0
0, 0
0, 0
0, 0
0, 0
0, 0
0, 0
0, 0
0, 0
0, 0
0, 0
0, 0
0, 0
0, 0
0, 0
0, 0
0, 0
0, 0
0, 0
0, 0
0, 0
0, 0
0, 0
0, 0
0, 0
0, 0
0, 0
0, 0
0, 0
0, 0
0, 0
0, 0
0, 0
0, 0
0, 0
0, 0
0, 0
0, 0
0, 0
0, 0
0, 0
0, 0
0, 0
0, 0
0, 0
0, 0
0, 0
0, 0
0, 0
0, 0
0, 0
0, 0
0, 0
0, 0
0, 0
0, 0
0, 0
0, 0
0, 0
0, 0
0, 0
0, 0
0, 0
0, 0
0, 0
0, 0
0, 0
0, 0
0, 0
0, 0
0, 0
0, 0
0, 0
0, 0
0, 0
0, 0
0, 0
0, 0
0, 0
0, 0
0, 0
0, 0
0, 0
0, 0
0, 0
0, 0
0, 0
0, 0
0, 0
0, 0
0, 0
0, 0
0, 0
0, 0
0, 0
0, 0
0, 0
0, 0
0, 0
0, 0
0, 0
0, 0
0, 0
0, 0
0, 0
0, 0
0, 0
0, 0
0, 0
0, 0
0, 0
0, 0
0, 0
#ENDOFDATA     end of spectrum data