File: host_upload/12-01-2023/Dourbes (shot-by-shot)/upload_4/ps__0257_0689790785_000rfs_shot_3178.msa
#FORMAT      : EMSA/MAS spectral data file
#VERSION     : TC202v2.0 PIXL
#TITLE       : N/A
#DATE        :       Date in the format DD-MMM-YYYY, for example 07-JUL-2010
#TIME        :             The time of day at which the spectrum was recorded, in 24-hour format
#OWNER       : PIXL Flight Model       (PIXL will use this to indicate which instrument took the data.)
#NPOINTS     : 4096     Number of data points in the spectrum (This can be zero for configuration only files)
#NCOLUMNS    : 2     Number of data columns in the spectrum (This can be zero for configuration only files)
#XUNITS      : eV
#YUNITS      : COUNTS
#DATATYPE    : YY
#XPERCHAN    : 7.862, 7.881   eV per channel (separate by commas if more than one detector)
#OFFSET      : 18.5, -22.4         eV of first channel  (separate by commas if more than one detector
#SIGNALTYPE  : XRF
#YP_TEMP     : 3.23
#LIVETIME    : 9.20456, 9.20742   seconds (separate by commas if more than one detector)
#REALTIME    : 10, 10.0   seconds (separate by commas if more than one detector)
#SPECTRUM    : start of spectrum data
0, 0
0, 0
0, 0
0, 0
0, 0
0, 0
0, 0
0, 0
0, 0
0, 0
0, 0
0, 0
0, 0
0, 0
0, 0
0, 0
0, 0
0, 0
0, 0
0, 0
0, 0
0, 0
0, 0
0, 0
0, 0
0, 0
0, 0
0, 0
0, 0
0, 0
0, 0
0, 0
0, 0
0, 0
0, 1
1, 1
1, 0
1, 0
1, 1
0, 1
2, 1
2, 3
4, 3
2, 5
6, 4
4, 2
5, 7
5, 4
6, 3
3, 3
5, 5
12, 9
16, 17
31, 21
22, 23
26, 29
13, 13
8, 20
12, 8
14, 18
30, 29
47, 49
79, 77
94, 108
113, 109
82, 109
51, 74
50, 61
44, 54
67, 78
138, 144
243, 264
452, 504
672, 719
811, 894
772, 916
705, 759
501, 500
280, 316
150, 165
81, 85
48, 44
21, 17
13, 15
0, 3
3, 4
3, 1
6, 4
2, 2
1, 2
3, 1
2, 0
6, 0
5, 2
3, 3
3, 0
0, 2
0, 3
6, 3
0, 1
7, 4
6, 4
2, 3
3, 2
3, 1
6, 3
5, 3
8, 6
11, 8
14, 10
20, 24
27, 25
28, 42
38, 45
48, 31
34, 33
33, 29
24, 25
24, 26
24, 21
23, 17
21, 17
16, 17
20, 19
15, 19
19, 19
11, 18
5, 24
11, 13
8, 17
5, 13
3, 10
2, 14
2, 8
2, 12
6, 16
21, 23
35, 38
49, 50
53, 82
94, 96
101, 99
79, 102
83, 81
62, 39
24, 43
15, 16
11, 17
5, 6
4, 7
6, 14
15, 16
20, 31
38, 39
40, 57
53, 65
72, 69
54, 58
69, 61
56, 60
38, 35
24, 30
16, 14
13, 19
9, 9
5, 3
2, 16
4, 7
7, 15
9, 18
10, 16
7, 16
15, 13
10, 10
12, 12
5, 4
4, 6
3, 2
0, 3
4, 2
6, 4
6, 4
9, 3
9, 3
8, 4
4, 3
7, 8
11, 8
18, 8
9, 11
15, 11
15, 14
14, 12
22, 15
11, 9
8, 12
12, 14
7, 11
9, 5
11, 11
9, 6
6, 16
7, 10
8, 13
9, 12
2, 8
9, 13
6, 11
8, 8
4, 9
9, 13
6, 7
4, 8
2, 4
7, 6
5, 4
9, 5
8, 6
7, 9
4, 10
10, 7
14, 7
5, 8
10, 4
4, 7
3, 5
7, 7
11, 11
16, 14
9, 13
12, 21
7, 6
11, 10
5, 18
10, 13
7, 12
10, 9
4, 7
4, 5
7, 4
11, 10
7, 7
11, 10
14, 10
12, 14
14, 15
22, 18
24, 28
35, 22
41, 32
43, 28
39, 32
31, 20
33, 30
39, 33
15, 20
17, 13
10, 15
16, 5
10, 6
21, 14
15, 16
38, 26
35, 37
57, 60
108, 139
209, 240
379, 392
547, 644
760, 833
1009, 1028
1136, 1139
1205, 1199
1154, 1039
1013, 834
713, 660
529, 489
398, 259
180, 138
107, 71
59, 47
28, 23
18, 15
19, 16
12, 19
12, 27
10, 30
17, 29
17, 27
14, 23
12, 24
9, 26
17, 26
39, 34
54, 55
78, 97
98, 120
145, 133
150, 177
157, 169
190, 190
146, 192
120, 142
101, 81
83, 71
51, 48
31, 31
19, 14
12, 18
4, 10
10, 16
8, 7
13, 11
10, 7
19, 9
7, 8
16, 6
9, 10
8, 9
11, 4
16, 13
4, 10
5, 5
4, 7
4, 2
9, 5
6, 9
3, 9
5, 10
9, 15
10, 10
10, 13
8, 8
11, 14
11, 5
16, 8
13, 9
12, 2
13, 5
14, 2
6, 13
12, 10
12, 4
16, 11
9, 8
10, 9
7, 9
9, 6
7, 14
7, 12
13, 8
8, 6
9, 12
10, 7
12, 12
7, 5
15, 9
8, 7
8, 8
7, 6
9, 11
6, 3
4, 11
8, 10
10, 7
15, 8
7, 5
12, 2
5, 4
6, 10
9, 9
14, 9
12, 2
10, 7
14, 1
9, 7
6, 6
9, 4
5, 13
8, 5
10, 2
3, 5
8, 8
7, 8
9, 3
6, 6
5, 6
8, 3
12, 7
12, 7
16, 8
12, 5
6, 9
6, 7
12, 7
16, 11
11, 7
10, 4
8, 5
7, 3
9, 10
8, 4
4, 4
9, 4
4, 7
3, 6
4, 1
3, 6
9, 5
6, 1
5, 2
5, 11
5, 3
4, 3
6, 5
4, 5
4, 2
5, 8
4, 10
7, 9
9, 5
6, 9
5, 4
5, 11
6, 7
6, 4
6, 6
7, 10
8, 3
7, 3
8, 4
4, 4
4, 6
4, 12
6, 3
8, 6
4, 4
6, 4
8, 2
9, 6
3, 11
7, 4
1, 8
3, 4
1, 5
5, 5
7, 7
1, 4
3, 5
3, 4
2, 6
2, 12
6, 4
5, 4
4, 1
2, 3
5, 6
2, 6
2, 4
5, 6
5, 6
5, 3
10, 7
4, 6
7, 3
4, 8
1, 5
9, 7
2, 7
8, 7
8, 6
4, 4
3, 2
9, 2
1, 5
4, 5
7, 6
3, 5
5, 7
2, 6
4, 1
5, 5
8, 1
3, 3
7, 4
0, 3
7, 2
3, 4
5, 2
3, 2
5, 4
4, 2
2, 5
0, 5
3, 7
5, 2
3, 1
5, 2
3, 3
3, 8
3, 1
1, 4
1, 3
3, 5
4, 2
2, 3
1, 2
1, 3
3, 2
4, 8
4, 1
4, 4
2, 1
2, 2
1, 4
2, 2
2, 2
3, 5
3, 4
2, 1
1, 5
1, 2
3, 3
1, 4
2, 4
2, 5
2, 3
1, 2
2, 1
1, 1
1, 2
2, 0
5, 2
2, 5
2, 4
5, 2
5, 0
1, 4
2, 4
3, 1
1, 5
3, 2
4, 3
2, 1
9, 1
1, 2
2, 1
0, 2
1, 4
5, 5
2, 3
0, 1
4, 0
1, 3
1, 0
4, 3
3, 3
1, 0
1, 1
3, 3
4, 1
0, 2
2, 1
1, 1
0, 2
5, 3
2, 1
3, 4
2, 2
4, 2
1, 1
1, 0
2, 1
1, 3
3, 2
1, 0
1, 0
0, 4
1, 1
0, 4
3, 1
0, 1
0, 1
0, 2
3, 0
0, 1
1, 5
0, 3
4, 0
1, 2
1, 0
2, 2
1, 0
4, 1
5, 1
2, 0
2, 2
3, 1
3, 2
4, 0
10, 5
1, 2
5, 1
2, 2
1, 4
2, 1
1, 2
1, 0
4, 3
1, 4
2, 0
1, 0
0, 1
3, 1
2, 1
0, 2
3, 0
1, 1
1, 0
1, 1
0, 1
1, 0
2, 3
0, 2
0, 0
0, 0
2, 0
1, 2
1, 2
3, 2
0, 1
1, 2
2, 1
2, 1
0, 1
1, 1
0, 0
4, 0
0, 0
0, 4
0, 2
0, 1
2, 0
1, 1
0, 0
0, 0
1, 2
1, 0
2, 1
0, 2
0, 1
0, 1
2, 1
1, 1
2, 1
0, 2
0, 2
0, 0
1, 3
2, 0
1, 0
1, 1
1, 0
1, 0
0, 2
0, 1
0, 0
0, 1
1, 0
1, 0
1, 2
1, 0
2, 1
1, 0
0, 2
0, 0
0, 1
2, 0
1, 1
2, 0
0, 0
0, 1
0, 0
0, 1
0, 0
0, 1
0, 0
1, 0
0, 0
2, 0
0, 2
0, 2
0, 0
0, 2
0, 1
3, 0
0, 0
0, 0
1, 0
2, 0
1, 0
1, 0
1, 0
0, 0
0, 0
0, 1
1, 0
1, 1
0, 0
1, 0
0, 0
0, 0
0, 0
0, 0
0, 0
0, 0
0, 0
0, 0
0, 0
0, 0
0, 0
0, 2
0, 2
0, 3
1, 0
1, 1
0, 0
0, 0
0, 1
1, 0
0, 0
0, 0
1, 0
0, 1
0, 0
1, 0
0, 0
0, 2
0, 0
0, 1
1, 0
0, 0
0, 0
1, 0
0, 0
0, 1
0, 0
1, 0
1, 0
0, 2
1, 0
0, 0
1, 0
0, 0
0, 1
0, 0
1, 0
0, 0
0, 1
0, 1
0, 0
0, 0
0, 1
0, 0
0, 1
0, 0
0, 0
0, 0
1, 0
0, 2
0, 2
0, 1
1, 1
0, 0
0, 0
0, 0
0, 1
0, 0
1, 0
1, 0
1, 0
0, 0
0, 0
0, 0
0, 0
0, 0
0, 1
0, 0
0, 0
0, 3
0, 0
0, 0
2, 0
0, 1
0, 0
0, 0
1, 1
0, 1
0, 0
0, 0
0, 0
1, 0
0, 0
0, 0
0, 0
2, 0
0, 1
0, 0
0, 1
0, 1
1, 0
1, 0
0, 0
0, 0
0, 0
0, 0
1, 0
0, 1
0, 0
0, 0
1, 0
0, 1
1, 0
0, 0
0, 0
0, 0
0, 0
0, 0
0, 0
0, 0
0, 0
0, 0
0, 0
0, 0
0, 0
0, 0
0, 0
0, 0
0, 0
0, 0
0, 0
1, 0
0, 0
0, 0
0, 0
0, 1
0, 1
0, 0
0, 0
0, 0
0, 0
0, 1
0, 0
1, 0
0, 0
0, 0
0, 0
0, 0
0, 0
0, 1
0, 0
0, 0
1, 0
0, 1
0, 0
0, 0
0, 0
0, 0
0, 0
0, 0
0, 0
0, 1
0, 0
0, 0
0, 0
1, 0
0, 0
0, 1
0, 0
0, 0
0, 0
0, 0
0, 0
0, 0
0, 0
0, 0
1, 1
0, 0
0, 0
0, 0
0, 0
0, 0
0, 0
0, 0
1, 0
0, 1
0, 1
0, 0
0, 0
0, 0
0, 0
0, 0
0, 0
0, 0
0, 0
0, 0
1, 0
0, 1
0, 0
0, 0
0, 0
0, 0
0, 0
0, 0
0, 0
0, 0
0, 0
0, 0
0, 0
0, 0
0, 0
0, 0
0, 0
0, 0
0, 1
0, 0
0, 0
0, 0
0, 0
0, 0
0, 0
0, 0
0, 0
0, 0
0, 0
0, 0
0, 0
0, 0
0, 0
0, 0
0, 0
0, 0
0, 0
1, 0
0, 0
0, 0
0, 0
0, 0
0, 0
0, 0
0, 0
0, 0
0, 0
0, 0
0, 0
0, 0
0, 0
0, 0
0, 0
0, 0
0, 0
0, 0
0, 0
1, 0
0, 0
0, 0
0, 0
0, 0
0, 0
0, 0
0, 0
0, 0
0, 0
0, 0
0, 0
0, 0
0, 0
0, 0
0, 0
0, 0
0, 0
0, 0
0, 0
0, 0
0, 0
0, 0
0, 0
0, 0
0, 0
0, 0
0, 0
0, 1
0, 0
0, 0
0, 0
0, 0
0, 0
0, 0
0, 0
0, 0
0, 0
1, 0
0, 0
0, 0
0, 0
0, 0
0, 0
0, 0
0, 0
0, 0
0, 0
0, 0
0, 0
0, 0
0, 0
0, 0
0, 0
0, 0
0, 0
0, 0
0, 0
0, 0
0, 0
0, 0
0, 0
0, 0
0, 0
0, 0
0, 0
0, 0
0, 0
0, 0
0, 0
0, 0
0, 0
0, 0
0, 0
0, 0
0, 0
0, 0
0, 0
0, 0
0, 0
0, 0
0, 0
0, 0
0, 0
0, 0
0, 0
0, 0
0, 0
0, 0
0, 0
0, 0
0, 0
0, 0
0, 0
0, 0
0, 0
0, 0
0, 0
0, 0
0, 0
0, 0
0, 0
0, 0
0, 0
0, 0
0, 0
0, 0
0, 0
0, 0
0, 0
0, 0
0, 0
0, 0
0, 0
0, 0
0, 0
0, 0
0, 0
0, 0
0, 0
0, 0
0, 0
0, 0
0, 0
0, 0
0, 0
0, 0
0, 0
0, 0
0, 0
0, 0
0, 0
0, 0
0, 0
0, 0
0, 0
0, 0
0, 0
0, 0
0, 0
0, 0
0, 0
0, 0
0, 0
0, 0
0, 0
0, 0
0, 0
0, 0
0, 0
0, 0
0, 0
0, 0
0, 0
0, 0
0, 0
0, 0
0, 0
0, 0
0, 0
0, 0
0, 0
0, 0
0, 0
0, 0
0, 0
0, 0
0, 0
0, 0
0, 0
0, 0
0, 0
0, 0
0, 0
0, 0
0, 0
0, 0
0, 0
0, 0
0, 0
0, 0
0, 0
0, 0
0, 0
0, 0
0, 0
0, 0
0, 0
0, 0
0, 0
0, 0
0, 0
0, 0
0, 0
0, 0
0, 0
0, 0
0, 0
0, 0
0, 0
0, 0
0, 0
0, 0
0, 0
0, 0
0, 0
0, 0
0, 0
0, 0
0, 0
0, 0
0, 0
0, 0
0, 0
0, 0
0, 0
0, 0
0, 0
0, 0
0, 0
0, 0
0, 0
0, 0
0, 0
0, 0
0, 0
0, 0
0, 0
0, 0
0, 0
0, 0
0, 0
0, 0
0, 0
0, 0
0, 0
0, 0
0, 0
0, 0
0, 0
0, 0
0, 0
0, 0
0, 0
0, 0
0, 0
0, 0
0, 0
0, 0
0, 0
0, 0
0, 0
0, 0
0, 0
0, 0
0, 0
0, 0
0, 0
0, 0
0, 0
0, 0
0, 0
0, 0
0, 0
0, 0
0, 0
0, 0
0, 0
0, 0
0, 0
0, 0
0, 0
0, 0
0, 0
0, 0
0, 0
0, 0
0, 0
0, 0
0, 0
0, 0
0, 0
0, 0
0, 0
0, 0
0, 0
0, 0
0, 0
0, 0
0, 0
0, 0
0, 0
0, 0
0, 0
0, 0
0, 0
0, 0
0, 0
0, 0
0, 0
0, 0
0, 0
0, 0
0, 0
0, 0
0, 0
0, 0
0, 0
0, 0
0, 0
0, 0
0, 0
0, 0
0, 0
0, 0
0, 0
0, 0
0, 0
0, 0
0, 0
0, 0
0, 0
0, 0
0, 0
0, 0
0, 0
0, 0
0, 0
0, 0
0, 0
0, 0
0, 0
0, 0
0, 0
0, 0
0, 0
0, 0
0, 0
0, 0
0, 0
0, 0
0, 0
0, 0
0, 0
0, 0
0, 0
0, 0
0, 0
0, 0
0, 0
0, 0
0, 0
0, 0
0, 0
0, 0
0, 0
0, 0
0, 0
0, 0
0, 0
0, 0
0, 0
0, 0
0, 0
0, 0
0, 0
0, 0
0, 0
0, 0
0, 0
0, 0
0, 0
0, 0
0, 0
0, 0
0, 0
0, 0
0, 0
0, 0
0, 0
0, 0
0, 0
0, 0
0, 0
0, 0
0, 0
0, 0
0, 0
0, 0
0, 0
0, 0
0, 0
0, 0
0, 0
0, 0
0, 0
0, 0
0, 0
0, 0
0, 0
0, 0
0, 0
0, 0
#ENDOFDATA     end of spectrum data