File: host_upload/12-01-2023/Dourbes (shot-by-shot)/upload_4/ps__0257_0689790785_000rfs_shot_3125.msa
#FORMAT      : EMSA/MAS spectral data file
#VERSION     : TC202v2.0 PIXL
#TITLE       : N/A
#DATE        :       Date in the format DD-MMM-YYYY, for example 07-JUL-2010
#TIME        :             The time of day at which the spectrum was recorded, in 24-hour format
#OWNER       : PIXL Flight Model       (PIXL will use this to indicate which instrument took the data.)
#NPOINTS     : 4096     Number of data points in the spectrum (This can be zero for configuration only files)
#NCOLUMNS    : 2     Number of data columns in the spectrum (This can be zero for configuration only files)
#XUNITS      : eV
#YUNITS      : COUNTS
#DATATYPE    : YY
#XPERCHAN    : 7.862, 7.881   eV per channel (separate by commas if more than one detector)
#OFFSET      : 18.5, -22.4         eV of first channel  (separate by commas if more than one detector
#SIGNALTYPE  : XRF
#YP_TEMP     : 3.069
#LIVETIME    : 9.04995, 9.1197   seconds (separate by commas if more than one detector)
#REALTIME    : 10, 10.0   seconds (separate by commas if more than one detector)
#SPECTRUM    : start of spectrum data
0, 0
0, 0
0, 0
0, 0
0, 0
0, 0
0, 0
0, 0
0, 0
0, 0
0, 0
0, 0
0, 0
0, 0
0, 0
0, 0
0, 0
0, 0
0, 0
0, 0
0, 0
0, 0
0, 0
0, 0
0, 0
0, 0
0, 0
0, 0
0, 0
0, 1
0, 0
0, 1
0, 0
0, 0
0, 0
2, 0
0, 0
0, 1
0, 0
1, 0
2, 1
1, 0
1, 3
1, 1
0, 0
1, 0
0, 0
1, 1
3, 2
6, 3
11, 4
27, 12
49, 33
37, 30
42, 40
43, 40
27, 33
26, 17
9, 11
12, 13
8, 4
2, 4
5, 7
3, 5
8, 6
11, 7
11, 4
9, 8
21, 15
57, 30
145, 94
258, 194
422, 381
635, 491
784, 616
777, 630
685, 511
499, 364
295, 233
166, 130
98, 64
45, 37
16, 17
16, 12
11, 5
6, 12
6, 11
9, 1
5, 2
1, 2
5, 2
3, 0
4, 2
3, 1
2, 3
1, 3
2, 4
7, 3
5, 8
5, 4
2, 7
2, 2
4, 3
9, 5
5, 2
4, 4
6, 2
8, 3
10, 8
18, 7
19, 8
26, 20
40, 29
39, 32
47, 35
45, 33
42, 10
21, 28
27, 14
26, 22
25, 21
21, 17
16, 11
14, 15
15, 12
18, 7
19, 10
6, 14
11, 7
12, 3
5, 5
3, 5
4, 4
4, 7
3, 2
2, 2
4, 3
3, 2
3, 1
3, 2
2, 3
2, 2
6, 3
2, 3
4, 2
3, 2
5, 6
6, 8
9, 5
12, 14
24, 28
50, 70
120, 101
258, 232
394, 378
582, 532
672, 610
783, 690
769, 641
617, 490
450, 323
273, 228
152, 125
91, 68
52, 33
29, 24
31, 31
42, 54
77, 69
102, 84
111, 100
107, 121
92, 74
99, 65
75, 50
50, 32
26, 16
27, 8
38, 8
31, 6
30, 1
27, 3
12, 1
12, 1
10, 1
8, 2
8, 3
12, 5
16, 8
11, 11
14, 12
27, 12
17, 23
20, 15
25, 18
21, 5
14, 11
25, 11
18, 10
17, 9
10, 11
7, 5
8, 6
2, 3
7, 1
4, 6
8, 7
9, 2
11, 5
9, 11
8, 5
12, 12
4, 8
7, 16
5, 10
7, 6
5, 4
7, 11
5, 5
9, 9
7, 4
5, 6
8, 5
12, 12
8, 6
8, 11
13, 10
26, 14
35, 28
43, 19
30, 35
34, 28
32, 28
29, 25
20, 21
14, 5
11, 9
11, 10
9, 5
5, 8
8, 10
12, 9
13, 6
9, 9
20, 13
22, 33
25, 49
51, 76
56, 101
78, 139
88, 130
87, 146
73, 153
56, 131
66, 117
32, 89
29, 59
24, 71
27, 46
13, 60
14, 54
22, 53
43, 66
59, 74
122, 116
246, 212
438, 375
860, 623
1317, 928
1821, 1293
2452, 1613
2764, 1781
2928, 1831
2756, 1647
2400, 1272
1849, 1019
1391, 661
888, 420
495, 209
264, 136
132, 54
61, 22
24, 11
25, 10
16, 14
20, 11
16, 12
14, 12
24, 17
22, 19
29, 24
30, 29
48, 33
73, 53
109, 83
164, 121
200, 186
310, 218
397, 273
390, 302
435, 288
412, 255
369, 207
249, 139
196, 106
121, 48
79, 35
49, 27
15, 9
24, 7
12, 8
7, 6
8, 3
11, 3
9, 2
17, 5
8, 5
9, 3
11, 9
15, 7
12, 6
11, 9
7, 4
6, 5
4, 4
7, 12
8, 17
3, 29
4, 18
6, 22
7, 31
4, 30
3, 32
4, 41
5, 17
4, 19
6, 11
7, 11
7, 9
8, 3
6, 3
5, 2
14, 9
8, 6
16, 4
11, 6
12, 3
12, 9
13, 4
10, 5
10, 2
7, 6
9, 2
6, 2
11, 4
6, 6
7, 4
10, 1
5, 3
6, 6
2, 3
6, 2
4, 3
4, 5
7, 2
8, 6
7, 4
5, 4
1, 6
2, 4
2, 7
3, 2
3, 1
5, 5
3, 4
4, 3
3, 1
3, 1
5, 0
3, 2
2, 6
4, 5
6, 4
7, 2
2, 4
1, 2
0, 5
0, 2
7, 1
5, 4
3, 7
6, 5
4, 5
4, 5
5, 5
4, 5
7, 2
5, 5
4, 6
9, 3
4, 3
5, 3
7, 3
3, 5
6, 1
5, 2
7, 3
14, 1
7, 4
5, 0
4, 1
2, 5
4, 2
5, 3
3, 3
4, 1
3, 3
1, 7
2, 0
1, 1
6, 4
6, 3
4, 4
0, 3
2, 4
5, 7
1, 3
8, 5
4, 5
8, 3
1, 2
2, 7
2, 2
6, 1
2, 1
3, 5
7, 0
3, 0
7, 2
6, 2
2, 3
7, 4
4, 0
2, 2
2, 1
4, 0
3, 1
1, 0
2, 0
7, 3
2, 0
2, 0
1, 1
1, 2
2, 2
0, 2
2, 2
4, 1
3, 4
3, 7
3, 1
1, 7
3, 7
5, 4
3, 5
1, 1
1, 2
2, 2
1, 3
4, 2
8, 2
0, 0
1, 0
2, 1
1, 3
0, 0
2, 0
3, 1
2, 3
4, 0
2, 2
2, 4
1, 2
2, 1
1, 2
4, 1
3, 4
4, 2
5, 1
1, 3
2, 2
1, 0
1, 3
2, 2
2, 2
2, 1
1, 1
3, 4
4, 3
1, 5
3, 1
1, 0
2, 3
2, 2
1, 2
1, 3
1, 0
2, 1
4, 2
5, 0
0, 2
1, 4
3, 2
1, 0
0, 1
2, 0
4, 3
4, 2
3, 4
7, 2
2, 2
3, 1
1, 2
4, 2
0, 0
4, 3
3, 1
1, 1
2, 0
1, 3
1, 0
1, 1
7, 1
2, 0
6, 2
3, 0
5, 1
0, 4
7, 4
3, 1
5, 0
4, 3
7, 1
9, 6
4, 5
5, 2
4, 1
5, 2
7, 3
2, 3
0, 1
1, 2
2, 2
0, 0
1, 2
0, 3
3, 3
1, 1
2, 0
3, 1
1, 0
2, 0
4, 0
1, 3
2, 0
3, 2
3, 0
3, 3
1, 1
2, 1
1, 2
3, 1
1, 2
2, 1
4, 1
3, 0
2, 2
3, 1
0, 1
2, 0
2, 2
4, 1
1, 1
1, 2
0, 1
0, 1
1, 1
1, 0
0, 1
2, 0
1, 1
0, 0
3, 1
1, 0
1, 3
2, 1
2, 1
2, 0
1, 0
0, 1
4, 1
0, 0
1, 0
2, 2
3, 0
0, 2
0, 0
2, 1
0, 1
0, 2
0, 2
0, 0
3, 0
1, 0
0, 1
1, 0
0, 1
0, 2
0, 0
0, 0
1, 0
1, 3
0, 0
1, 0
0, 2
0, 0
2, 1
0, 2
1, 0
2, 0
0, 0
1, 3
2, 1
1, 1
1, 1
1, 0
0, 0
1, 1
0, 1
0, 1
1, 0
0, 1
2, 0
0, 1
1, 1
1, 2
0, 1
0, 0
1, 0
0, 0
0, 1
0, 0
0, 0
0, 0
0, 0
0, 0
2, 0
0, 0
0, 1
0, 0
2, 0
0, 1
0, 1
0, 0
1, 0
0, 0
0, 1
0, 0
2, 0
0, 0
1, 0
0, 0
1, 0
0, 0
0, 1
0, 0
0, 1
0, 0
0, 0
0, 1
0, 0
1, 1
1, 1
0, 0
1, 0
0, 0
0, 0
0, 1
0, 0
0, 1
0, 0
0, 0
1, 0
0, 0
0, 0
0, 1
0, 0
0, 1
1, 0
0, 1
2, 0
0, 1
0, 0
0, 1
0, 0
2, 0
0, 0
0, 0
0, 0
1, 0
0, 0
1, 0
0, 0
1, 0
1, 0
0, 0
1, 0
0, 0
0, 0
0, 1
0, 0
0, 0
0, 1
1, 0
1, 1
0, 0
0, 0
0, 0
0, 0
0, 1
1, 0
0, 0
1, 0
0, 0
1, 1
1, 1
0, 0
0, 1
0, 0
0, 0
1, 1
0, 0
0, 1
0, 0
0, 0
1, 0
0, 0
0, 0
0, 0
0, 1
1, 0
0, 1
0, 0
0, 0
0, 1
0, 1
0, 0
0, 0
0, 0
0, 1
0, 0
0, 2
0, 0
0, 0
0, 0
0, 0
0, 0
0, 0
0, 0
0, 1
0, 0
0, 0
0, 1
1, 0
1, 0
0, 0
0, 0
0, 0
1, 2
1, 0
0, 1
0, 0
0, 0
0, 0
0, 0
1, 0
0, 0
0, 0
0, 0
0, 0
0, 0
0, 1
0, 2
0, 0
0, 0
1, 1
1, 2
0, 1
0, 0
0, 0
0, 0
0, 0
1, 0
1, 0
0, 0
0, 0
0, 0
0, 0
0, 0
0, 0
0, 0
0, 1
0, 0
0, 0
0, 1
1, 0
0, 0
0, 0
0, 0
0, 1
1, 0
0, 0
0, 0
0, 0
0, 1
0, 0
0, 0
1, 0
0, 0
0, 0
0, 0
0, 0
0, 0
0, 0
1, 0
0, 1
0, 0
0, 0
0, 0
0, 0
0, 0
0, 0
0, 1
0, 0
0, 1
0, 0
0, 0
0, 0
0, 2
0, 0
0, 0
0, 0
0, 1
0, 1
0, 0
0, 0
0, 0
0, 0
1, 0
0, 0
0, 0
1, 0
0, 0
0, 0
0, 0
0, 0
0, 0
0, 2
0, 0
0, 0
0, 0
0, 0
0, 0
0, 0
0, 0
0, 0
0, 0
0, 0
0, 0
0, 0
0, 0
0, 0
0, 0
1, 0
0, 0
0, 0
0, 0
0, 0
0, 0
0, 0
0, 0
0, 0
0, 0
0, 1
0, 0
0, 0
0, 0
0, 0
0, 0
1, 0
0, 0
0, 0
0, 0
0, 1
0, 0
0, 0
0, 0
0, 1
0, 0
0, 0
0, 0
0, 0
0, 0
0, 0
0, 0
0, 0
0, 0
0, 1
0, 0
0, 0
1, 0
0, 1
0, 0
0, 0
0, 0
0, 0
0, 0
0, 0
0, 0
1, 0
0, 0
0, 0
0, 0
0, 0
0, 0
0, 0
0, 0
0, 0
0, 0
0, 0
0, 0
1, 0
0, 0
0, 0
0, 0
0, 0
0, 0
0, 0
0, 0
0, 0
0, 0
0, 0
0, 0
0, 0
0, 0
0, 0
0, 0
0, 1
0, 0
0, 0
0, 0
0, 0
0, 0
0, 0
0, 0
0, 0
0, 0
0, 0
0, 1
0, 0
0, 0
0, 0
0, 0
0, 0
0, 0
0, 0
0, 0
0, 0
0, 0
0, 0
0, 0
0, 0
0, 0
0, 0
0, 0
0, 0
0, 0
0, 0
0, 0
0, 0
0, 0
0, 0
0, 0
0, 0
0, 0
0, 0
0, 0
0, 0
0, 0
0, 0
0, 0
0, 0
0, 0
0, 0
0, 0
0, 0
0, 0
0, 0
0, 0
0, 0
0, 0
0, 0
0, 0
0, 0
0, 0
0, 0
0, 0
0, 0
0, 0
0, 0
0, 0
0, 0
0, 0
0, 0
0, 0
0, 0
0, 0
0, 0
0, 0
0, 0
0, 0
0, 0
0, 0
0, 0
0, 0
0, 0
0, 0
0, 0
0, 0
0, 0
0, 0
0, 0
0, 0
0, 0
0, 0
0, 0
0, 0
0, 0
0, 0
0, 0
0, 0
0, 0
0, 0
0, 0
0, 0
0, 0
0, 0
1, 0
0, 0
0, 0
0, 0
0, 0
0, 0
0, 0
0, 0
0, 0
0, 0
0, 0
0, 0
0, 0
0, 0
0, 0
0, 0
0, 0
0, 0
0, 0
0, 0
0, 0
0, 0
0, 0
0, 0
0, 0
0, 0
0, 0
0, 0
0, 0
0, 0
0, 0
0, 0
0, 0
0, 0
0, 0
0, 0
0, 0
0, 0
0, 0
0, 0
0, 0
0, 0
0, 0
0, 0
0, 0
0, 0
0, 0
0, 0
0, 0
0, 0
0, 0
0, 0
0, 0
0, 0
0, 0
0, 0
0, 0
0, 0
0, 0
0, 0
0, 0
0, 0
0, 0
0, 0
0, 0
0, 0
0, 0
0, 0
0, 0
0, 0
0, 0
0, 0
0, 0
0, 0
0, 0
0, 0
0, 0
0, 0
0, 0
0, 0
0, 0
0, 0
0, 0
0, 0
0, 0
0, 0
0, 0
0, 0
0, 0
0, 0
0, 0
0, 0
0, 0
0, 0
0, 0
0, 0
0, 0
0, 0
0, 0
0, 0
0, 0
0, 0
0, 0
0, 0
0, 0
0, 0
0, 0
0, 0
0, 0
0, 0
0, 0
0, 0
0, 0
0, 0
0, 0
0, 0
0, 0
0, 0
0, 0
0, 0
0, 0
0, 0
0, 0
0, 0
0, 0
0, 0
0, 0
0, 0
0, 0
0, 0
0, 0
0, 0
0, 0
0, 0
0, 0
0, 0
0, 0
0, 0
0, 0
0, 0
0, 0
0, 0
0, 0
0, 0
0, 0
0, 0
0, 0
0, 0
0, 0
0, 0
0, 0
0, 0
0, 0
0, 0
0, 0
0, 0
0, 0
0, 0
0, 0
0, 0
0, 0
0, 0
0, 0
0, 0
0, 0
0, 0
0, 0
0, 0
0, 0
0, 0
0, 0
0, 0
0, 0
0, 0
0, 0
0, 0
0, 0
0, 0
0, 0
0, 0
0, 0
0, 0
0, 0
0, 0
0, 0
0, 0
0, 0
0, 0
0, 0
0, 0
0, 0
0, 0
0, 0
0, 0
0, 0
0, 0
0, 0
0, 0
0, 0
0, 0
0, 0
0, 0
0, 0
0, 0
0, 0
0, 0
0, 0
0, 0
0, 0
0, 0
0, 0
0, 0
0, 0
0, 0
0, 0
0, 0
0, 0
0, 0
0, 0
0, 0
0, 0
0, 0
0, 0
0, 0
0, 0
0, 0
0, 0
0, 0
0, 0
0, 0
0, 0
0, 0
0, 0
0, 0
0, 0
0, 0
0, 0
0, 0
0, 0
0, 0
0, 0
0, 0
0, 0
0, 0
0, 0
0, 0
0, 0
0, 0
0, 0
0, 0
0, 0
0, 0
0, 0
0, 0
0, 0
0, 0
0, 0
0, 0
0, 0
0, 0
0, 0
0, 0
0, 0
0, 0
0, 0
0, 0
0, 0
0, 0
0, 0
0, 0
0, 0
0, 0
0, 0
0, 0
0, 0
0, 0
0, 0
0, 0
0, 0
0, 0
0, 0
0, 0
0, 0
0, 0
0, 0
0, 0
0, 0
0, 0
0, 0
0, 0
0, 0
0, 0
0, 0
0, 0
0, 0
0, 0
0, 0
0, 0
0, 0
0, 0
0, 0
0, 0
0, 0
0, 0
0, 0
0, 0
0, 0
0, 0
0, 0
#ENDOFDATA     end of spectrum data