File: host_upload/12-01-2023/Dourbes (shot-by-shot)/upload_4/ps__0257_0689790785_000rfs_shot_3181.msa
#FORMAT      : EMSA/MAS spectral data file
#VERSION     : TC202v2.0 PIXL
#TITLE       : N/A
#DATE        :       Date in the format DD-MMM-YYYY, for example 07-JUL-2010
#TIME        :             The time of day at which the spectrum was recorded, in 24-hour format
#OWNER       : PIXL Flight Model       (PIXL will use this to indicate which instrument took the data.)
#NPOINTS     : 4096     Number of data points in the spectrum (This can be zero for configuration only files)
#NCOLUMNS    : 2     Number of data columns in the spectrum (This can be zero for configuration only files)
#XUNITS      : eV
#YUNITS      : COUNTS
#DATATYPE    : YY
#XPERCHAN    : 7.862, 7.881   eV per channel (separate by commas if more than one detector)
#OFFSET      : 18.5, -22.4         eV of first channel  (separate by commas if more than one detector
#SIGNALTYPE  : XRF
#YP_TEMP     : 3.198
#LIVETIME    : 9.00841, 8.99896   seconds (separate by commas if more than one detector)
#REALTIME    : 10, 10.0   seconds (separate by commas if more than one detector)
#SPECTRUM    : start of spectrum data
0, 0
0, 0
0, 0
0, 0
0, 0
0, 0
0, 0
0, 0
0, 0
0, 0
0, 0
0, 0
0, 0
0, 0
0, 0
0, 0
0, 0
0, 0
0, 0
0, 0
0, 0
0, 0
0, 0
0, 0
0, 0
0, 0
0, 0
0, 0
0, 0
0, 0
0, 0
0, 0
0, 1
0, 0
0, 1
0, 0
0, 1
1, 0
0, 1
1, 1
2, 1
0, 0
2, 1
1, 0
1, 0
0, 0
1, 2
1, 1
2, 2
3, 4
13, 12
19, 26
68, 38
52, 52
48, 63
55, 45
47, 30
29, 24
15, 15
7, 6
2, 1
2, 2
7, 3
5, 2
3, 2
6, 5
6, 1
9, 6
23, 11
41, 48
97, 69
150, 164
295, 294
385, 390
527, 493
500, 521
428, 449
322, 288
198, 205
107, 112
66, 51
24, 29
13, 13
5, 8
3, 4
3, 1
4, 2
2, 2
2, 3
3, 3
3, 2
4, 1
2, 3
2, 1
3, 1
0, 2
5, 4
6, 2
7, 2
4, 3
4, 8
4, 1
6, 2
4, 3
4, 7
5, 4
3, 4
3, 2
6, 5
13, 10
12, 13
16, 15
14, 16
32, 23
33, 29
23, 28
22, 21
15, 24
21, 21
19, 15
22, 14
20, 14
15, 30
12, 16
13, 16
17, 20
11, 11
8, 9
6, 11
3, 6
4, 4
4, 4
0, 4
3, 0
3, 2
4, 1
3, 2
4, 1
4, 3
2, 2
2, 2
2, 4
3, 3
5, 3
5, 3
2, 3
6, 2
0, 1
4, 3
6, 4
10, 5
19, 12
21, 21
43, 33
76, 53
98, 94
124, 108
126, 96
113, 103
124, 98
49, 51
56, 48
27, 22
14, 15
11, 8
1, 9
8, 10
13, 10
11, 21
26, 18
20, 11
17, 20
22, 20
12, 15
15, 12
10, 5
4, 6
3, 4
4, 1
10, 6
4, 3
1, 4
4, 4
1, 4
5, 4
4, 6
2, 1
3, 5
9, 2
11, 8
16, 7
18, 13
17, 23
9, 10
18, 13
18, 19
16, 15
17, 23
25, 19
18, 16
14, 11
10, 13
6, 7
4, 7
6, 5
9, 6
6, 7
4, 6
3, 3
2, 6
5, 6
3, 9
1, 9
7, 10
2, 6
5, 6
4, 4
5, 6
6, 6
7, 3
5, 6
3, 5
6, 7
7, 12
8, 9
9, 9
9, 17
15, 14
15, 16
10, 10
12, 7
15, 14
7, 9
15, 8
9, 8
9, 9
9, 14
8, 7
8, 11
5, 2
7, 6
9, 5
7, 8
19, 15
14, 24
19, 36
40, 37
55, 54
73, 84
90, 98
91, 91
113, 92
103, 79
89, 82
71, 56
48, 45
33, 23
29, 19
15, 26
18, 18
23, 23
36, 35
49, 58
96, 113
173, 217
380, 438
622, 793
1128, 1362
1712, 1990
2368, 2857
3194, 3501
3615, 3826
3871, 3952
3614, 3435
3153, 2896
2334, 2059
1687, 1394
1121, 902
624, 482
317, 277
181, 127
85, 65
32, 61
32, 53
30, 72
17, 69
15, 80
10, 71
20, 76
22, 69
27, 69
54, 60
54, 90
75, 110
135, 184
211, 265
309, 355
400, 429
504, 539
543, 560
556, 568
492, 471
435, 380
345, 310
205, 191
142, 124
81, 88
48, 47
35, 29
12, 30
12, 17
2, 11
22, 7
10, 9
16, 11
10, 9
17, 10
8, 7
3, 10
9, 2
6, 8
10, 6
5, 2
3, 6
3, 4
3, 7
2, 8
2, 3
2, 9
3, 5
4, 15
1, 5
1, 6
2, 11
5, 8
3, 3
4, 3
3, 6
5, 5
3, 1
2, 6
4, 5
5, 3
4, 7
7, 3
3, 8
3, 5
4, 4
7, 5
3, 5
6, 5
7, 8
5, 4
2, 5
4, 5
3, 3
2, 1
3, 1
1, 3
1, 2
2, 2
5, 0
1, 3
14, 0
9, 2
4, 4
10, 3
10, 0
7, 2
6, 2
2, 2
4, 2
3, 1
0, 2
2, 5
3, 2
2, 2
3, 2
1, 5
3, 2
6, 3
4, 2
2, 5
3, 1
2, 4
3, 5
4, 1
5, 5
7, 2
3, 0
2, 2
2, 0
1, 5
2, 3
1, 3
3, 0
2, 2
1, 9
0, 4
3, 0
0, 5
1, 1
1, 5
2, 4
2, 3
4, 6
2, 7
5, 0
5, 1
2, 3
1, 3
1, 2
2, 3
3, 4
1, 6
1, 1
5, 2
2, 2
2, 3
5, 4
1, 2
2, 5
0, 2
4, 3
3, 6
1, 5
1, 4
2, 4
2, 2
3, 5
1, 0
1, 3
2, 3
4, 2
0, 2
1, 2
2, 3
3, 3
2, 1
3, 2
1, 1
1, 4
3, 2
4, 3
2, 1
2, 2
0, 2
2, 1
1, 3
0, 7
1, 7
0, 4
2, 5
1, 3
0, 4
1, 7
1, 4
1, 2
2, 5
5, 3
3, 3
0, 2
0, 1
1, 3
2, 4
1, 3
3, 4
1, 5
2, 7
5, 4
1, 0
3, 4
6, 2
5, 5
2, 1
3, 2
2, 3
2, 6
1, 3
1, 5
1, 1
1, 3
2, 0
4, 1
3, 1
3, 0
1, 0
1, 0
2, 0
1, 0
3, 2
1, 0
3, 0
3, 3
1, 2
0, 1
1, 0
2, 1
1, 5
2, 1
1, 6
1, 1
3, 3
1, 1
1, 1
2, 3
2, 2
2, 2
0, 1
1, 4
3, 1
1, 0
2, 1
2, 0
2, 4
0, 3
0, 2
0, 0
3, 1
2, 1
7, 0
6, 1
4, 3
2, 1
2, 1
4, 2
2, 6
0, 1
3, 3
0, 1
4, 0
2, 1
4, 4
0, 2
1, 4
2, 2
3, 1
3, 6
3, 0
5, 1
4, 8
6, 8
7, 6
2, 6
6, 4
2, 8
6, 5
5, 1
2, 3
3, 0
1, 5
0, 2
1, 2
2, 1
1, 0
0, 2
1, 2
1, 1
4, 2
2, 4
3, 2
0, 0
2, 1
2, 2
1, 3
2, 4
1, 2
3, 7
1, 0
3, 1
6, 6
5, 0
1, 3
2, 2
2, 1
2, 2
2, 3
2, 4
4, 4
3, 1
1, 0
0, 1
1, 0
1, 1
0, 2
1, 1
0, 0
3, 0
1, 0
0, 0
1, 0
0, 0
1, 2
0, 0
0, 0
2, 1
3, 0
1, 0
1, 0
1, 0
2, 2
1, 0
0, 0
1, 0
0, 0
0, 0
2, 0
0, 1
0, 1
0, 2
1, 1
1, 1
0, 3
0, 0
0, 0
0, 3
0, 0
1, 0
0, 0
0, 1
2, 1
1, 0
1, 1
2, 1
0, 0
1, 0
0, 0
0, 0
0, 0
2, 2
0, 0
0, 0
1, 0
0, 0
0, 1
0, 0
1, 0
0, 1
0, 1
1, 1
2, 2
2, 2
0, 0
1, 1
2, 1
0, 1
1, 0
0, 0
0, 0
0, 1
1, 0
0, 0
0, 0
0, 1
0, 0
2, 0
0, 0
0, 0
1, 0
0, 2
0, 0
0, 1
1, 1
1, 1
0, 0
0, 1
1, 0
0, 0
0, 0
0, 0
0, 0
0, 0
0, 0
0, 0
0, 0
0, 0
1, 0
0, 0
0, 0
0, 1
1, 0
0, 0
2, 0
0, 0
1, 2
0, 0
1, 0
0, 0
0, 0
1, 0
0, 1
0, 0
1, 1
0, 1
1, 0
0, 0
1, 1
0, 0
0, 1
0, 0
0, 2
0, 0
0, 0
1, 0
0, 0
1, 1
1, 0
0, 0
0, 1
1, 1
1, 1
1, 0
0, 0
0, 1
0, 0
2, 0
0, 1
0, 0
0, 0
0, 0
0, 0
0, 0
1, 0
2, 0
0, 0
0, 0
0, 0
0, 0
2, 0
0, 0
0, 1
1, 0
0, 0
0, 0
0, 1
0, 0
1, 0
0, 0
0, 0
0, 0
0, 0
1, 1
0, 1
0, 0
1, 0
0, 0
0, 0
0, 0
1, 0
0, 0
1, 0
0, 0
0, 1
0, 0
0, 0
0, 0
0, 0
1, 0
1, 0
0, 0
1, 1
0, 0
0, 0
0, 0
0, 0
0, 1
0, 1
0, 0
1, 0
0, 0
0, 0
0, 0
1, 0
0, 0
0, 0
0, 0
0, 0
0, 0
0, 0
1, 0
0, 0
1, 0
0, 0
0, 0
0, 0
0, 0
0, 0
0, 3
0, 1
1, 0
0, 0
0, 0
0, 0
0, 0
0, 0
0, 0
0, 0
0, 0
0, 0
2, 0
0, 1
0, 0
2, 1
0, 0
1, 0
0, 0
1, 1
0, 1
0, 0
0, 0
0, 0
0, 0
0, 0
0, 0
0, 0
0, 1
0, 0
0, 0
0, 0
0, 0
0, 0
0, 0
0, 1
0, 0
0, 0
1, 0
0, 0
0, 0
0, 0
0, 0
0, 0
0, 1
0, 0
0, 0
0, 0
0, 0
1, 0
0, 1
0, 0
0, 0
0, 0
0, 0
0, 0
0, 0
0, 0
0, 1
0, 0
0, 0
0, 0
0, 0
0, 0
0, 0
0, 0
0, 0
0, 0
0, 2
0, 2
0, 0
0, 0
1, 0
1, 0
0, 0
0, 0
0, 0
0, 0
0, 0
0, 0
0, 0
0, 0
0, 0
0, 0
0, 0
0, 0
2, 0
0, 0
0, 0
0, 0
0, 0
0, 0
0, 0
0, 0
0, 0
0, 0
0, 0
0, 0
0, 0
0, 0
0, 0
0, 0
0, 1
0, 0
0, 0
0, 0
0, 0
0, 0
0, 0
0, 0
0, 0
0, 0
0, 0
0, 0
0, 0
0, 0
0, 0
0, 1
0, 0
0, 0
0, 0
0, 0
1, 0
0, 0
0, 0
0, 0
0, 0
0, 0
0, 0
0, 0
0, 0
0, 0
0, 0
0, 0
0, 0
0, 0
0, 0
0, 0
0, 1
0, 0
1, 0
0, 0
0, 0
1, 0
0, 0
0, 0
0, 0
0, 0
0, 0
0, 0
0, 0
0, 0
0, 0
0, 0
0, 0
0, 1
0, 0
0, 0
0, 0
0, 0
0, 0
1, 0
0, 0
1, 0
0, 0
0, 0
0, 0
0, 0
0, 0
0, 0
0, 0
0, 0
1, 0
0, 0
0, 0
0, 0
0, 0
0, 0
0, 0
0, 0
0, 0
0, 0
0, 0
1, 0
0, 0
0, 0
0, 0
0, 0
0, 0
0, 0
0, 0
0, 0
0, 0
0, 0
0, 0
0, 0
0, 0
0, 0
0, 0
0, 0
0, 0
0, 0
0, 0
0, 0
0, 0
0, 0
0, 0
0, 0
0, 0
0, 0
0, 0
0, 0
0, 0
0, 0
0, 0
0, 0
0, 0
0, 0
0, 0
0, 0
0, 0
0, 0
0, 0
0, 0
0, 0
0, 0
0, 0
0, 0
0, 0
0, 0
0, 0
0, 0
0, 0
0, 0
0, 0
0, 0
0, 0
0, 0
0, 0
0, 0
0, 0
0, 0
0, 0
0, 0
0, 0
0, 0
0, 0
0, 0
0, 0
0, 0
0, 0
0, 0
0, 0
0, 0
0, 0
0, 0
0, 0
0, 0
0, 1
0, 0
0, 0
0, 0
0, 0
0, 0
0, 0
0, 0
0, 0
0, 0
0, 0
0, 0
0, 0
0, 0
0, 0
0, 0
0, 0
0, 0
0, 0
0, 0
0, 0
0, 0
0, 0
0, 0
0, 0
0, 0
0, 0
0, 0
0, 0
0, 0
0, 0
0, 0
0, 0
0, 0
0, 0
0, 0
0, 0
0, 0
0, 0
0, 0
0, 0
0, 0
0, 0
0, 0
0, 0
0, 0
0, 0
0, 0
0, 0
0, 0
0, 0
0, 0
0, 0
0, 0
0, 0
0, 0
0, 0
0, 0
0, 0
0, 0
0, 0
0, 0
0, 0
0, 0
0, 0
0, 0
0, 0
0, 0
0, 0
0, 0
0, 0
0, 0
0, 0
0, 0
0, 0
0, 0
0, 0
0, 0
0, 0
0, 0
0, 0
0, 0
0, 0
0, 0
0, 0
0, 0
0, 0
0, 0
0, 0
0, 0
0, 0
0, 0
0, 0
0, 0
0, 0
0, 0
0, 0
0, 0
0, 0
0, 0
0, 0
0, 0
0, 0
0, 0
0, 0
0, 0
0, 0
0, 0
0, 0
0, 0
0, 0
0, 0
0, 0
0, 0
0, 0
0, 0
0, 0
0, 0
0, 0
0, 0
0, 0
0, 0
0, 0
0, 0
0, 0
0, 0
0, 0
0, 0
0, 0
0, 0
0, 0
0, 0
0, 0
0, 0
0, 0
0, 0
0, 0
0, 0
0, 0
0, 0
0, 0
0, 0
0, 0
0, 0
0, 0
0, 0
0, 0
0, 0
0, 0
0, 0
0, 0
0, 0
0, 0
0, 0
0, 0
0, 0
0, 0
0, 0
0, 0
0, 0
0, 0
0, 0
0, 0
0, 0
0, 0
0, 0
0, 0
0, 0
0, 0
0, 0
0, 0
0, 0
0, 0
0, 0
0, 0
0, 0
0, 0
0, 0
0, 0
0, 0
0, 0
0, 0
0, 0
0, 0
0, 0
0, 0
0, 0
0, 0
0, 0
0, 0
0, 0
0, 0
0, 0
0, 0
0, 0
0, 0
0, 0
0, 0
0, 0
0, 0
0, 0
0, 0
0, 0
0, 0
0, 0
0, 0
0, 0
0, 0
0, 0
0, 0
0, 0
0, 0
0, 0
0, 0
0, 0
0, 0
0, 0
0, 0
0, 0
0, 0
0, 0
0, 0
0, 0
0, 0
0, 0
0, 0
0, 0
0, 0
0, 0
0, 0
0, 0
0, 0
0, 0
0, 0
0, 0
0, 0
0, 0
0, 0
0, 0
0, 0
0, 0
0, 0
0, 0
0, 0
0, 0
0, 0
0, 0
0, 0
0, 0
0, 0
0, 0
0, 0
0, 0
0, 0
0, 0
0, 0
0, 0
0, 0
0, 0
0, 0
0, 0
0, 0
0, 0
0, 0
0, 0
0, 0
0, 0
0, 0
0, 0
0, 0
0, 0
0, 0
0, 0
0, 0
0, 0
0, 0
0, 0
0, 0
0, 0
0, 0
0, 0
0, 0
0, 0
0, 0
0, 0
0, 0
0, 0
0, 0
0, 0
0, 0
0, 0
0, 0
0, 0
0, 0
0, 0
0, 0
0, 0
0, 0
0, 0
0, 0
0, 0
0, 0
0, 0
0, 0
0, 0
0, 0
0, 0
0, 0
0, 0
0, 0
0, 0
0, 0
0, 0
0, 0
0, 0
0, 0
0, 0
0, 0
0, 0
0, 0
0, 0
#ENDOFDATA     end of spectrum data