File: host_upload/12-01-2023/Dourbes (shot-by-shot)/upload_4/ps__0257_0689790785_000rfs_shot_3084.msa
#FORMAT      : EMSA/MAS spectral data file
#VERSION     : TC202v2.0 PIXL
#TITLE       : N/A
#DATE        :       Date in the format DD-MMM-YYYY, for example 07-JUL-2010
#TIME        :             The time of day at which the spectrum was recorded, in 24-hour format
#OWNER       : PIXL Flight Model       (PIXL will use this to indicate which instrument took the data.)
#NPOINTS     : 4096     Number of data points in the spectrum (This can be zero for configuration only files)
#NCOLUMNS    : 2     Number of data columns in the spectrum (This can be zero for configuration only files)
#XUNITS      : eV
#YUNITS      : COUNTS
#DATATYPE    : YY
#XPERCHAN    : 7.862, 7.881   eV per channel (separate by commas if more than one detector)
#OFFSET      : 18.5, -22.4         eV of first channel  (separate by commas if more than one detector
#SIGNALTYPE  : XRF
#YP_TEMP     : 3.198
#LIVETIME    : 9.09482, 9.0701   seconds (separate by commas if more than one detector)
#REALTIME    : 10, 10.0   seconds (separate by commas if more than one detector)
#SPECTRUM    : start of spectrum data
0, 0
0, 0
0, 0
0, 0
0, 0
0, 0
0, 0
0, 0
0, 0
0, 0
0, 0
0, 0
0, 0
0, 0
0, 0
0, 0
0, 0
0, 0
0, 0
0, 0
0, 0
0, 0
0, 0
0, 0
0, 0
0, 0
0, 0
0, 0
0, 0
0, 0
0, 0
0, 0
1, 0
0, 0
1, 0
2, 0
0, 1
2, 0
0, 2
1, 2
1, 0
1, 0
1, 3
4, 3
0, 6
2, 2
1, 3
2, 2
4, 1
3, 0
9, 10
18, 10
24, 18
44, 33
42, 41
28, 31
26, 31
20, 15
6, 17
9, 13
26, 12
45, 45
55, 62
68, 54
85, 76
51, 63
52, 62
41, 30
35, 37
54, 43
104, 111
188, 246
359, 365
541, 545
701, 685
675, 691
582, 586
422, 385
265, 262
137, 132
79, 69
31, 28
16, 16
15, 5
6, 4
2, 6
2, 5
3, 4
3, 1
4, 0
3, 0
4, 1
2, 1
3, 1
1, 5
1, 0
2, 4
6, 2
3, 5
9, 5
8, 3
2, 0
2, 4
3, 5
2, 4
3, 5
4, 1
7, 5
8, 13
18, 33
26, 20
33, 33
36, 53
38, 47
57, 47
39, 35
32, 39
28, 25
25, 27
17, 27
20, 32
19, 25
14, 17
17, 10
11, 22
16, 15
11, 13
12, 12
5, 14
5, 6
5, 11
3, 12
5, 11
3, 12
7, 14
3, 15
7, 15
14, 10
17, 17
23, 29
37, 35
38, 38
31, 34
33, 30
32, 27
20, 18
10, 17
4, 3
8, 7
9, 6
8, 9
9, 11
19, 16
29, 28
35, 38
48, 45
49, 62
59, 58
52, 47
63, 49
44, 37
27, 23
11, 15
7, 7
18, 7
18, 14
22, 6
33, 13
24, 16
37, 15
31, 12
48, 11
26, 12
20, 3
12, 10
13, 4
7, 5
8, 3
2, 7
2, 2
1, 5
4, 5
2, 2
8, 3
6, 10
4, 3
8, 6
5, 5
4, 8
11, 5
9, 5
11, 7
16, 9
15, 13
16, 14
12, 8
13, 16
17, 11
21, 17
13, 14
12, 8
10, 10
6, 12
11, 10
9, 7
8, 9
7, 9
3, 16
11, 13
5, 17
9, 19
4, 21
8, 27
13, 24
4, 14
4, 18
7, 9
5, 7
8, 6
0, 7
5, 4
6, 5
5, 9
7, 9
13, 12
11, 6
6, 12
8, 8
13, 9
4, 13
16, 15
6, 14
12, 21
14, 14
21, 13
21, 9
9, 6
10, 5
14, 4
11, 7
14, 9
15, 12
13, 11
13, 11
9, 11
12, 18
37, 36
35, 38
44, 70
67, 75
54, 70
64, 84
57, 66
59, 46
50, 49
32, 35
31, 19
25, 10
19, 16
20, 11
8, 18
20, 26
32, 35
54, 104
120, 160
233, 334
414, 567
747, 1035
1121, 1511
1678, 2149
2092, 2654
2386, 3083
2585, 2995
2490, 2772
2091, 2298
1684, 1662
1148, 1087
761, 650
444, 380
249, 189
127, 88
64, 47
26, 22
16, 15
14, 14
14, 17
15, 18
17, 15
15, 13
15, 19
18, 29
36, 22
46, 52
48, 68
114, 132
158, 186
228, 251
268, 330
300, 397
353, 452
371, 472
354, 381
282, 324
242, 229
161, 146
113, 105
55, 59
34, 19
17, 19
15, 13
11, 3
7, 5
3, 6
4, 9
9, 8
7, 6
9, 8
10, 10
5, 12
10, 9
8, 8
5, 6
8, 3
1, 5
3, 8
2, 2
5, 5
3, 6
5, 5
2, 4
5, 3
7, 7
1, 5
4, 3
5, 12
3, 6
6, 6
7, 3
9, 5
8, 7
8, 6
2, 10
2, 3
12, 7
7, 2
6, 11
7, 5
5, 6
9, 4
2, 5
9, 6
6, 1
10, 7
4, 9
7, 9
8, 11
6, 16
3, 3
6, 5
3, 8
2, 8
2, 8
8, 10
7, 6
2, 7
8, 5
4, 7
4, 4
2, 9
7, 7
9, 7
11, 6
6, 4
8, 4
5, 8
8, 6
7, 7
8, 10
4, 11
4, 7
4, 7
1, 7
6, 5
1, 7
4, 5
4, 4
4, 3
6, 3
4, 2
7, 6
2, 1
5, 3
2, 4
12, 3
4, 9
6, 5
8, 2
2, 5
4, 3
6, 1
7, 1
5, 6
6, 2
5, 6
5, 4
6, 10
11, 4
6, 5
7, 1
6, 1
10, 6
6, 3
3, 5
4, 2
3, 5
2, 2
6, 4
2, 6
0, 5
1, 13
7, 8
0, 6
1, 9
1, 6
2, 8
4, 7
6, 5
4, 7
1, 1
3, 3
8, 7
3, 3
2, 4
4, 1
4, 4
5, 5
11, 2
10, 3
11, 3
5, 4
3, 8
6, 6
5, 3
4, 5
4, 9
2, 2
3, 2
1, 2
2, 1
1, 4
1, 9
4, 4
4, 1
1, 3
3, 6
1, 5
2, 2
1, 2
4, 6
2, 6
0, 3
0, 4
3, 3
3, 4
3, 3
0, 6
4, 2
1, 3
2, 2
2, 1
1, 5
8, 0
3, 0
4, 7
0, 3
0, 3
4, 3
2, 2
2, 2
3, 2
3, 2
2, 0
2, 3
1, 2
3, 3
4, 4
0, 4
0, 1
0, 2
1, 3
2, 5
1, 2
0, 3
1, 0
1, 1
2, 3
4, 2
2, 3
2, 7
0, 3
0, 1
1, 2
1, 6
1, 5
3, 3
7, 1
0, 3
2, 5
1, 2
3, 2
2, 2
2, 3
2, 2
2, 0
1, 0
0, 4
2, 4
0, 2
0, 3
2, 2
2, 4
1, 5
0, 3
1, 3
2, 4
0, 5
1, 1
4, 0
2, 3
2, 6
2, 1
4, 5
2, 2
2, 3
3, 1
1, 2
4, 4
3, 3
1, 3
4, 2
4, 4
5, 4
5, 6
3, 5
2, 5
3, 3
2, 5
0, 4
2, 2
1, 3
1, 2
1, 0
1, 2
2, 1
2, 0
1, 2
0, 0
2, 2
1, 0
3, 1
2, 2
0, 2
1, 0
1, 3
1, 2
2, 3
3, 5
0, 1
0, 2
0, 1
2, 3
2, 1
0, 3
1, 1
0, 2
1, 2
0, 2
3, 0
0, 4
2, 2
0, 2
1, 0
1, 2
0, 1
3, 0
0, 5
1, 0
2, 2
2, 0
1, 1
0, 4
0, 1
2, 2
2, 2
0, 1
1, 0
1, 0
0, 2
2, 2
4, 2
0, 1
1, 0
2, 2
3, 1
2, 1
0, 0
5, 2
3, 1
1, 0
3, 2
3, 1
3, 1
1, 1
1, 1
2, 0
0, 0
0, 1
0, 1
1, 1
0, 0
0, 3
1, 1
1, 2
0, 0
1, 2
0, 0
0, 0
0, 0
0, 0
1, 3
1, 1
1, 0
1, 1
0, 4
0, 0
0, 1
0, 2
0, 2
0, 0
3, 0
0, 0
1, 0
0, 1
1, 0
1, 2
0, 1
0, 0
0, 1
0, 0
0, 0
0, 1
0, 0
1, 0
0, 2
2, 0
1, 0
0, 1
0, 0
0, 0
0, 1
0, 1
0, 0
1, 1
1, 1
0, 0
0, 0
1, 0
1, 1
0, 1
0, 0
2, 0
1, 1
0, 1
1, 1
0, 0
2, 1
0, 1
1, 1
0, 0
1, 1
1, 0
1, 0
0, 0
0, 1
0, 0
0, 0
0, 1
1, 1
0, 2
0, 1
0, 1
0, 3
0, 0
0, 0
0, 0
0, 1
0, 0
0, 1
0, 0
0, 0
0, 0
0, 0
0, 0
1, 0
0, 0
0, 1
1, 1
1, 0
0, 0
0, 0
1, 1
0, 1
0, 1
0, 1
0, 0
0, 0
0, 1
0, 1
0, 0
1, 0
0, 1
0, 0
1, 1
0, 1
0, 0
0, 0
0, 0
0, 0
0, 0
0, 0
0, 1
0, 1
1, 0
0, 1
1, 0
0, 0
0, 0
0, 0
0, 1
0, 0
0, 1
0, 0
0, 0
1, 0
0, 0
0, 0
0, 0
0, 0
1, 0
1, 0
0, 0
0, 0
0, 0
2, 0
0, 1
0, 0
0, 0
0, 0
1, 0
1, 0
0, 0
0, 1
1, 0
0, 0
0, 1
1, 0
0, 0
0, 0
0, 0
0, 0
1, 0
0, 0
0, 1
0, 0
0, 0
0, 0
0, 1
0, 0
0, 0
0, 0
0, 0
0, 0
0, 0
0, 1
1, 0
0, 1
1, 0
0, 0
0, 0
0, 0
0, 0
0, 1
1, 0
1, 0
0, 0
0, 1
0, 0
0, 0
0, 1
0, 0
0, 0
0, 1
1, 0
0, 0
0, 0
0, 0
0, 0
0, 0
0, 0
0, 0
0, 0
0, 0
0, 0
0, 0
0, 0
0, 0
0, 1
0, 0
0, 0
0, 0
0, 1
0, 0
0, 0
0, 0
0, 0
0, 1
1, 1
0, 0
0, 1
0, 0
0, 0
0, 0
0, 0
0, 0
0, 0
0, 0
0, 0
0, 0
0, 0
0, 1
1, 0
0, 0
0, 0
0, 1
0, 0
0, 1
0, 0
0, 0
0, 0
0, 1
0, 1
0, 0
0, 0
0, 0
0, 1
1, 1
0, 0
0, 1
0, 0
0, 0
0, 0
0, 0
1, 0
0, 0
0, 0
0, 0
0, 0
0, 0
0, 0
0, 0
0, 0
0, 0
0, 0
0, 0
0, 0
0, 0
0, 0
0, 0
0, 0
0, 0
0, 0
0, 0
0, 0
0, 0
0, 0
0, 0
1, 0
0, 0
0, 1
0, 0
0, 0
0, 0
0, 0
0, 0
0, 0
0, 0
0, 0
0, 0
0, 0
0, 0
0, 0
0, 0
0, 0
0, 0
0, 0
0, 1
0, 0
0, 0
0, 0
0, 0
0, 0
0, 0
0, 0
0, 0
0, 0
0, 0
0, 0
0, 0
0, 0
0, 0
0, 0
0, 0
0, 0
0, 0
0, 0
0, 0
0, 0
0, 0
0, 0
0, 0
0, 0
0, 0
0, 0
0, 0
1, 0
0, 0
0, 0
0, 0
0, 0
0, 0
0, 0
0, 0
0, 0
0, 0
0, 0
0, 0
0, 0
0, 0
0, 0
0, 0
0, 0
0, 0
0, 0
0, 0
0, 0
0, 0
0, 0
0, 0
0, 0
0, 0
0, 0
0, 0
0, 0
0, 0
0, 0
0, 0
0, 0
0, 0
0, 0
0, 0
0, 0
0, 0
0, 0
0, 0
0, 0
0, 0
0, 0
0, 0
0, 0
0, 1
0, 0
0, 0
0, 0
0, 0
0, 0
0, 0
0, 0
0, 0
0, 0
0, 0
0, 1
0, 0
0, 0
0, 0
0, 0
0, 0
0, 0
0, 0
0, 0
0, 0
0, 0
0, 0
0, 0
0, 0
0, 0
0, 0
0, 0
0, 0
0, 0
0, 0
0, 0
0, 0
0, 0
0, 0
0, 0
0, 0
0, 0
0, 0
0, 0
0, 0
0, 0
0, 0
0, 0
0, 0
0, 0
0, 0
0, 0
0, 0
0, 0
0, 0
0, 0
0, 0
0, 0
0, 0
0, 0
0, 0
0, 0
0, 0
0, 0
0, 0
0, 0
0, 0
0, 0
0, 0
0, 0
0, 0
0, 0
0, 0
0, 0
0, 0
0, 0
0, 0
0, 0
0, 0
0, 0
0, 0
0, 0
0, 0
0, 0
0, 0
0, 0
0, 0
0, 0
0, 0
0, 0
0, 0
0, 0
0, 0
0, 0
0, 0
0, 0
0, 0
0, 0
0, 0
0, 0
0, 0
0, 0
0, 0
0, 0
0, 0
0, 0
0, 0
0, 0
0, 0
0, 0
0, 0
0, 0
0, 0
0, 0
0, 0
0, 0
0, 0
0, 0
0, 0
0, 0
0, 0
0, 0
0, 0
0, 0
0, 0
0, 0
0, 0
0, 0
0, 0
0, 0
0, 0
0, 0
0, 0
0, 0
0, 0
0, 0
0, 0
0, 0
0, 0
0, 0
0, 0
0, 0
0, 0
0, 0
0, 0
0, 0
0, 0
0, 0
0, 0
0, 0
0, 0
0, 0
0, 0
0, 0
0, 0
0, 0
0, 0
0, 0
0, 0
0, 0
0, 0
0, 0
0, 0
0, 0
0, 0
0, 0
0, 0
0, 0
0, 0
0, 0
0, 0
0, 0
0, 0
0, 0
0, 0
0, 0
0, 0
0, 0
0, 0
0, 0
0, 0
0, 0
0, 0
0, 0
0, 0
0, 0
0, 0
0, 0
0, 0
0, 0
0, 0
0, 0
0, 0
0, 0
0, 0
0, 0
0, 0
0, 0
0, 0
0, 0
0, 0
0, 0
0, 0
0, 0
0, 0
0, 0
0, 0
0, 0
0, 0
0, 0
0, 0
0, 0
0, 0
0, 0
0, 0
0, 0
0, 0
0, 0
0, 0
0, 0
0, 0
0, 0
0, 0
0, 0
0, 0
0, 0
0, 0
0, 0
0, 0
0, 0
0, 0
0, 0
0, 0
0, 0
0, 0
0, 0
0, 0
0, 0
0, 0
0, 0
0, 0
0, 0
0, 0
0, 0
0, 0
0, 0
0, 0
0, 0
0, 0
0, 0
0, 0
0, 0
0, 0
0, 0
0, 0
0, 0
0, 0
0, 0
0, 0
0, 0
0, 0
0, 0
0, 0
0, 0
0, 0
0, 0
0, 0
0, 0
0, 0
0, 0
0, 0
0, 0
0, 0
0, 0
0, 0
0, 0
0, 0
0, 0
0, 0
0, 0
0, 0
0, 0
0, 0
0, 0
0, 0
0, 0
0, 0
0, 0
0, 0
0, 0
0, 0
0, 0
0, 0
0, 0
0, 0
0, 0
0, 0
0, 0
0, 0
0, 0
0, 0
0, 0
0, 0
0, 0
0, 0
0, 0
0, 0
0, 0
0, 0
0, 0
0, 0
0, 0
0, 0
0, 0
0, 0
0, 0
0, 0
0, 0
0, 0
0, 0
0, 0
0, 0
0, 0
0, 0
0, 0
0, 0
0, 0
0, 0
0, 0
0, 0
0, 0
0, 0
0, 0
0, 0
0, 0
0, 0
0, 0
0, 0
0, 0
0, 0
0, 0
0, 0
0, 0
0, 0
0, 0
0, 0
0, 0
0, 0
0, 0
0, 0
0, 0
0, 0
0, 0
0, 0
0, 0
0, 0
0, 0
0, 0
0, 0
0, 0
0, 0
0, 0
0, 0
0, 0
0, 0
0, 0
0, 0
0, 0
0, 0
0, 0
0, 0
0, 0
0, 0
0, 0
0, 0
0, 0
0, 0
0, 0
0, 0
0, 0
0, 0
0, 0
0, 0
0, 0
0, 0
0, 0
0, 0
0, 0
0, 0
0, 0
0, 0
#ENDOFDATA     end of spectrum data