File: host_upload/12-01-2023/Dourbes (shot-by-shot)/upload_4/ps__0257_0689790785_000rfs_shot_3155.msa
#FORMAT      : EMSA/MAS spectral data file
#VERSION     : TC202v2.0 PIXL
#TITLE       : N/A
#DATE        :       Date in the format DD-MMM-YYYY, for example 07-JUL-2010
#TIME        :             The time of day at which the spectrum was recorded, in 24-hour format
#OWNER       : PIXL Flight Model       (PIXL will use this to indicate which instrument took the data.)
#NPOINTS     : 4096     Number of data points in the spectrum (This can be zero for configuration only files)
#NCOLUMNS    : 2     Number of data columns in the spectrum (This can be zero for configuration only files)
#XUNITS      : eV
#YUNITS      : COUNTS
#DATATYPE    : YY
#XPERCHAN    : 7.862, 7.881   eV per channel (separate by commas if more than one detector)
#OFFSET      : 18.5, -22.4         eV of first channel  (separate by commas if more than one detector
#SIGNALTYPE  : XRF
#YP_TEMP     : 3.262
#LIVETIME    : 9.11251, 9.10988   seconds (separate by commas if more than one detector)
#REALTIME    : 10, 10.0   seconds (separate by commas if more than one detector)
#SPECTRUM    : start of spectrum data
0, 0
0, 0
0, 0
0, 0
0, 0
0, 0
0, 0
0, 0
0, 0
0, 0
0, 0
0, 0
0, 0
0, 0
0, 0
0, 0
0, 0
0, 0
0, 0
0, 0
0, 0
0, 0
0, 0
0, 0
0, 0
0, 0
0, 0
0, 0
0, 0
0, 0
0, 0
0, 0
0, 0
0, 0
0, 0
2, 0
0, 1
0, 0
1, 1
1, 0
1, 0
2, 2
2, 3
3, 1
4, 0
1, 4
2, 1
1, 2
1, 1
5, 7
14, 5
19, 29
41, 33
42, 54
50, 39
40, 41
35, 45
17, 22
9, 13
4, 5
7, 5
7, 7
5, 2
12, 10
13, 13
10, 6
7, 10
17, 10
25, 20
56, 51
119, 120
289, 262
442, 452
637, 642
764, 793
742, 774
635, 707
458, 484
287, 281
157, 166
85, 91
33, 44
28, 28
19, 20
22, 6
10, 10
7, 5
6, 4
3, 2
1, 4
2, 3
1, 2
4, 2
4, 5
6, 2
2, 11
8, 5
6, 6
10, 5
12, 15
10, 9
5, 7
6, 6
4, 7
7, 3
2, 5
11, 4
8, 12
18, 14
19, 30
38, 32
41, 43
41, 54
51, 52
51, 54
51, 42
44, 49
38, 42
26, 45
21, 22
25, 37
28, 29
26, 26
24, 22
18, 17
12, 22
13, 12
17, 7
13, 9
8, 8
12, 3
5, 6
7, 5
7, 4
0, 2
3, 5
5, 3
5, 3
1, 0
1, 2
2, 2
3, 3
3, 3
1, 7
7, 3
6, 3
1, 3
10, 6
3, 12
14, 13
35, 34
82, 99
157, 205
283, 276
477, 500
603, 738
765, 858
845, 939
820, 858
681, 691
449, 505
321, 296
188, 187
111, 77
48, 51
36, 34
31, 46
57, 64
84, 77
108, 121
135, 116
123, 133
100, 119
118, 90
74, 72
42, 38
33, 20
14, 10
4, 5
5, 4
0, 3
4, 1
2, 1
4, 3
5, 2
5, 7
9, 13
10, 19
14, 23
20, 40
29, 43
36, 66
30, 47
37, 46
34, 31
54, 25
35, 21
37, 21
28, 13
30, 8
19, 11
23, 8
10, 4
9, 5
5, 4
2, 11
17, 9
10, 12
10, 11
16, 6
7, 13
11, 12
11, 9
4, 8
7, 4
4, 13
4, 11
3, 8
1, 6
3, 1
7, 9
7, 7
7, 7
4, 6
7, 8
12, 15
13, 22
23, 31
30, 37
43, 46
50, 61
51, 39
30, 37
29, 30
18, 22
9, 17
10, 7
10, 12
8, 9
5, 3
7, 6
7, 8
13, 8
5, 13
7, 10
15, 15
14, 22
38, 39
34, 66
57, 53
52, 64
69, 71
50, 61
59, 49
33, 38
29, 29
25, 24
17, 15
10, 18
12, 31
9, 13
20, 34
17, 28
48, 46
77, 117
149, 222
310, 381
471, 694
746, 967
1167, 1336
1386, 1678
1649, 1885
1693, 1851
1657, 1716
1465, 1501
1093, 1063
783, 708
528, 449
301, 251
170, 139
84, 49
47, 34
19, 19
17, 11
10, 18
12, 19
8, 20
9, 18
6, 25
12, 19
17, 17
17, 27
25, 40
54, 62
69, 93
99, 127
159, 211
179, 228
246, 282
272, 283
269, 268
215, 238
219, 201
170, 143
124, 93
64, 71
45, 38
21, 25
17, 17
18, 14
15, 14
13, 9
12, 6
19, 5
26, 6
17, 7
20, 5
20, 6
20, 11
22, 8
20, 13
12, 3
10, 5
6, 4
5, 3
8, 3
6, 4
4, 4
1, 3
1, 7
5, 1
5, 8
6, 5
5, 4
3, 11
7, 6
2, 8
3, 10
1, 3
7, 1
6, 5
4, 7
7, 6
2, 8
10, 4
3, 3
6, 9
10, 6
9, 3
11, 2
6, 8
6, 2
7, 6
6, 7
5, 13
3, 8
8, 13
6, 10
7, 16
2, 10
8, 8
7, 8
2, 5
5, 6
9, 10
1, 8
6, 6
4, 3
3, 3
4, 5
9, 6
7, 2
6, 5
3, 3
4, 3
4, 8
3, 3
4, 5
7, 8
2, 7
5, 2
5, 4
4, 7
1, 3
5, 4
4, 1
5, 4
6, 7
4, 5
5, 8
1, 7
6, 7
5, 4
2, 16
9, 4
5, 7
1, 9
3, 10
5, 6
2, 3
3, 11
1, 6
6, 12
5, 0
6, 5
9, 3
5, 2
4, 4
3, 7
6, 6
6, 7
4, 7
9, 8
7, 7
3, 6
2, 2
4, 4
6, 3
5, 1
7, 6
2, 4
5, 8
5, 7
5, 5
5, 3
13, 3
5, 2
6, 5
2, 4
4, 2
2, 6
6, 7
3, 5
3, 3
1, 5
3, 3
3, 5
4, 1
2, 1
1, 5
3, 3
4, 4
3, 2
5, 2
4, 3
0, 2
4, 5
4, 8
1, 5
7, 5
5, 4
1, 6
2, 4
4, 8
4, 8
3, 7
5, 3
4, 1
3, 1
2, 1
1, 2
2, 2
11, 2
7, 1
6, 3
11, 5
4, 1
6, 2
2, 6
4, 4
2, 5
8, 2
6, 2
2, 4
3, 1
3, 5
3, 4
4, 4
1, 3
3, 3
3, 0
3, 2
3, 5
4, 1
3, 0
3, 6
2, 5
1, 1
3, 2
3, 2
1, 6
0, 1
2, 7
1, 1
2, 2
1, 3
4, 1
2, 2
4, 3
3, 5
3, 4
0, 3
4, 6
5, 2
3, 2
4, 1
0, 0
0, 2
3, 5
3, 4
3, 3
6, 0
6, 1
4, 1
2, 1
8, 1
2, 5
3, 4
3, 4
2, 4
2, 2
2, 6
1, 4
2, 6
2, 1
2, 3
0, 4
3, 2
0, 4
0, 2
2, 5
3, 0
3, 1
2, 2
1, 4
1, 2
3, 3
2, 2
3, 3
1, 2
3, 1
2, 2
4, 2
1, 0
0, 1
2, 3
3, 4
4, 2
2, 0
1, 2
0, 1
6, 1
2, 0
3, 1
1, 3
2, 0
1, 3
1, 4
1, 1
2, 2
0, 1
1, 2
3, 2
1, 1
1, 3
2, 2
2, 3
0, 1
0, 4
3, 1
1, 3
0, 1
0, 2
1, 3
3, 1
2, 2
0, 0
1, 1
0, 3
1, 3
2, 1
1, 3
1, 2
1, 0
1, 0
0, 0
3, 4
1, 0
2, 0
2, 0
0, 1
0, 0
3, 2
0, 0
1, 0
0, 1
2, 2
0, 0
0, 0
0, 3
0, 0
1, 1
2, 0
0, 1
2, 0
4, 0
1, 1
0, 0
1, 0
1, 3
3, 2
1, 1
0, 0
2, 1
0, 0
0, 0
0, 0
2, 0
2, 1
0, 0
2, 1
0, 0
1, 1
0, 1
0, 0
1, 0
0, 2
3, 0
2, 0
1, 0
1, 1
0, 0
1, 0
0, 0
1, 1
1, 0
2, 2
1, 1
1, 1
1, 1
0, 0
1, 0
1, 1
2, 0
1, 1
3, 1
0, 0
0, 0
0, 0
0, 0
0, 0
2, 0
1, 1
1, 0
1, 0
0, 1
0, 0
0, 3
3, 0
1, 2
1, 1
0, 1
0, 0
0, 2
1, 1
3, 1
1, 0
0, 2
0, 2
1, 2
0, 1
0, 0
1, 0
1, 1
1, 0
0, 0
0, 0
0, 0
1, 0
0, 0
0, 1
0, 0
1, 1
1, 1
1, 0
0, 0
0, 0
0, 0
0, 0
1, 0
0, 1
0, 0
0, 0
0, 0
1, 0
1, 0
0, 1
0, 0
0, 0
0, 2
0, 0
0, 0
1, 0
1, 1
0, 0
0, 1
1, 1
0, 0
0, 0
0, 0
0, 0
1, 0
0, 0
0, 1
0, 1
0, 0
0, 0
3, 2
1, 0
0, 1
0, 1
0, 0
1, 0
1, 0
0, 1
0, 0
0, 1
0, 1
0, 1
0, 0
1, 0
0, 0
1, 0
0, 0
0, 2
0, 1
0, 1
0, 0
1, 1
0, 0
1, 0
1, 1
0, 0
0, 0
1, 0
0, 0
0, 0
2, 0
1, 0
0, 0
0, 0
0, 1
0, 0
0, 0
0, 0
1, 0
1, 1
1, 0
0, 0
0, 0
0, 1
1, 0
0, 0
0, 0
0, 0
0, 0
0, 0
0, 0
0, 0
1, 0
0, 0
0, 1
0, 1
0, 1
0, 0
1, 1
0, 0
1, 0
0, 0
0, 0
0, 0
1, 0
0, 0
1, 0
1, 1
0, 0
2, 0
0, 0
0, 1
0, 1
0, 0
2, 0
0, 1
0, 1
0, 0
0, 1
0, 0
0, 0
0, 0
0, 0
0, 0
0, 1
0, 0
0, 0
0, 0
0, 0
0, 0
1, 0
0, 0
0, 0
0, 0
1, 0
0, 0
0, 0
0, 0
0, 0
0, 0
0, 0
0, 0
0, 1
0, 0
0, 0
0, 0
0, 0
0, 0
0, 0
0, 0
0, 0
0, 0
0, 0
0, 0
0, 0
0, 0
0, 0
1, 0
0, 0
0, 1
0, 1
0, 0
0, 0
0, 0
0, 0
0, 0
0, 1
1, 1
0, 0
0, 0
0, 0
0, 0
0, 0
0, 0
0, 0
0, 1
0, 0
0, 0
0, 1
0, 0
0, 0
0, 0
0, 0
0, 0
0, 0
0, 1
0, 0
0, 0
1, 0
0, 0
0, 0
0, 0
0, 0
0, 0
0, 0
0, 0
0, 0
0, 0
0, 0
0, 0
0, 0
0, 0
0, 0
0, 0
0, 0
1, 1
1, 0
0, 1
0, 0
0, 0
0, 0
0, 0
0, 0
0, 0
0, 0
0, 0
0, 0
0, 0
0, 0
0, 1
0, 0
0, 0
0, 0
0, 1
0, 0
0, 0
0, 0
0, 0
0, 0
0, 0
0, 0
0, 0
0, 0
0, 0
0, 0
0, 0
0, 0
0, 0
0, 0
0, 0
0, 0
0, 0
0, 0
0, 0
0, 0
0, 0
0, 0
0, 0
0, 0
0, 0
0, 0
0, 0
0, 0
0, 0
0, 0
0, 0
0, 0
0, 0
0, 0
0, 0
0, 0
0, 0
0, 0
0, 0
0, 0
0, 0
0, 0
0, 0
0, 0
0, 0
0, 0
0, 0
0, 0
0, 0
0, 0
0, 0
0, 0
0, 0
0, 1
0, 0
0, 0
0, 1
0, 0
1, 1
0, 0
0, 0
0, 0
0, 0
0, 0
0, 0
0, 0
0, 0
0, 0
0, 0
0, 0
0, 0
0, 0
0, 0
0, 0
0, 0
0, 0
1, 0
0, 0
0, 0
0, 0
0, 0
1, 0
0, 0
0, 0
0, 0
0, 0
0, 0
1, 0
0, 0
0, 0
0, 0
0, 0
0, 0
0, 0
0, 0
0, 0
0, 0
0, 0
0, 0
0, 0
0, 0
0, 0
0, 0
0, 0
0, 0
0, 0
0, 0
0, 0
0, 0
0, 0
0, 0
0, 0
0, 0
0, 0
0, 0
0, 0
0, 0
0, 0
0, 0
0, 0
0, 0
0, 0
0, 0
0, 0
0, 0
0, 0
0, 0
0, 0
0, 0
0, 0
0, 0
0, 0
0, 0
0, 0
0, 0
0, 0
0, 0
0, 0
0, 0
0, 0
0, 0
0, 0
0, 0
0, 0
0, 0
0, 0
0, 0
0, 0
0, 0
0, 0
0, 0
0, 0
0, 0
0, 0
0, 0
0, 0
0, 0
0, 0
0, 0
0, 0
0, 0
0, 0
0, 0
0, 0
0, 0
0, 0
0, 0
0, 0
0, 0
0, 0
0, 0
0, 0
0, 0
0, 0
0, 0
0, 0
0, 0
0, 0
0, 0
0, 0
0, 0
0, 0
0, 0
0, 0
0, 0
0, 0
0, 0
0, 0
0, 0
0, 0
0, 0
0, 0
0, 0
0, 0
0, 0
0, 0
0, 0
0, 0
0, 0
0, 0
0, 0
0, 0
0, 0
0, 0
0, 0
0, 0
0, 0
0, 0
0, 0
0, 0
0, 0
0, 0
0, 0
0, 0
0, 0
0, 0
0, 0
0, 0
0, 0
0, 0
0, 0
0, 0
0, 0
0, 0
0, 1
0, 0
0, 0
0, 0
0, 0
0, 0
0, 0
0, 0
0, 0
0, 0
0, 0
0, 0
0, 0
0, 0
0, 0
0, 0
0, 0
0, 0
0, 0
0, 0
0, 0
0, 0
0, 0
0, 0
0, 0
0, 0
0, 0
0, 0
0, 0
0, 0
0, 0
0, 0
0, 0
0, 0
0, 0
0, 0
0, 0
0, 0
0, 0
0, 0
0, 0
0, 0
0, 0
0, 0
0, 0
0, 0
0, 0
0, 0
0, 0
0, 0
0, 0
0, 0
0, 0
0, 0
0, 0
0, 0
0, 0
0, 0
0, 0
0, 0
0, 0
0, 0
0, 0
0, 0
0, 0
0, 0
0, 0
0, 0
0, 0
0, 0
0, 0
0, 0
0, 0
0, 0
0, 0
0, 0
0, 0
0, 0
0, 0
0, 0
0, 0
0, 0
0, 0
0, 0
0, 0
0, 0
0, 0
0, 0
0, 0
0, 0
0, 0
0, 0
0, 0
0, 0
0, 0
0, 0
0, 0
0, 0
0, 0
0, 0
0, 0
0, 0
0, 0
0, 0
0, 0
0, 0
0, 0
0, 0
0, 0
0, 0
0, 0
0, 0
0, 0
0, 0
0, 0
0, 0
0, 0
0, 0
0, 0
0, 0
0, 0
0, 0
0, 0
0, 0
0, 0
0, 0
0, 0
0, 0
0, 0
0, 0
0, 0
0, 0
0, 0
0, 0
0, 0
0, 0
0, 0
0, 0
0, 0
0, 0
0, 0
0, 0
0, 0
0, 0
0, 0
0, 0
0, 0
0, 0
0, 0
0, 0
0, 0
0, 0
0, 0
0, 0
0, 0
0, 0
0, 0
0, 0
0, 0
0, 0
0, 0
0, 0
0, 0
0, 0
0, 0
0, 0
0, 0
0, 0
0, 0
0, 0
0, 0
0, 0
0, 0
0, 0
0, 0
0, 0
0, 0
0, 0
0, 0
0, 0
0, 0
0, 0
0, 0
0, 0
0, 0
0, 0
0, 0
0, 0
0, 0
0, 0
0, 0
0, 0
0, 0
0, 0
0, 0
0, 0
0, 0
0, 0
0, 0
0, 0
0, 0
0, 0
0, 0
0, 0
0, 0
0, 0
0, 0
0, 0
0, 0
0, 0
0, 0
0, 0
0, 0
0, 0
0, 0
0, 0
0, 0
0, 0
0, 0
0, 0
0, 0
0, 0
0, 0
0, 0
0, 0
0, 0
0, 0
0, 0
0, 0
0, 0
0, 0
0, 0
0, 0
0, 0
0, 0
0, 0
0, 0
0, 0
0, 0
0, 0
#ENDOFDATA     end of spectrum data