File: host_upload/12-01-2023/Dourbes (shot-by-shot)/upload_4/ps__0257_0689790785_000rfs_shot_3303.msa
#FORMAT      : EMSA/MAS spectral data file
#VERSION     : TC202v2.0 PIXL
#TITLE       : N/A
#DATE        :       Date in the format DD-MMM-YYYY, for example 07-JUL-2010
#TIME        :             The time of day at which the spectrum was recorded, in 24-hour format
#OWNER       : PIXL Flight Model       (PIXL will use this to indicate which instrument took the data.)
#NPOINTS     : 4096     Number of data points in the spectrum (This can be zero for configuration only files)
#NCOLUMNS    : 2     Number of data columns in the spectrum (This can be zero for configuration only files)
#XUNITS      : eV
#YUNITS      : COUNTS
#DATATYPE    : YY
#XPERCHAN    : 7.862, 7.881   eV per channel (separate by commas if more than one detector)
#OFFSET      : 18.5, -22.4         eV of first channel  (separate by commas if more than one detector
#SIGNALTYPE  : XRF
#YP_TEMP     : 3.069
#LIVETIME    : 8.99671, 8.98408   seconds (separate by commas if more than one detector)
#REALTIME    : 10, 10.0   seconds (separate by commas if more than one detector)
#SPECTRUM    : start of spectrum data
0, 0
0, 0
0, 0
0, 0
0, 0
0, 0
0, 0
0, 0
0, 0
0, 0
0, 0
0, 0
0, 0
0, 0
0, 0
0, 0
0, 0
0, 0
0, 0
0, 0
0, 0
0, 0
0, 0
0, 0
0, 0
0, 0
0, 0
0, 0
0, 0
0, 1
0, 0
0, 0
0, 0
1, 0
0, 1
1, 2
0, 0
1, 2
0, 1
2, 2
2, 2
1, 1
2, 1
1, 0
1, 0
2, 0
4, 0
2, 2
0, 0
7, 6
12, 13
24, 17
40, 35
45, 44
57, 43
39, 42
32, 48
21, 16
13, 16
4, 5
2, 5
6, 6
7, 2
10, 10
10, 7
4, 6
12, 7
12, 5
16, 17
30, 27
104, 89
172, 161
285, 279
428, 437
510, 538
502, 504
434, 454
318, 311
174, 204
93, 97
61, 56
30, 18
20, 17
21, 12
12, 17
11, 19
24, 11
15, 13
12, 8
8, 13
5, 5
5, 4
4, 1
4, 5
4, 3
6, 5
5, 9
7, 6
6, 5
8, 4
5, 9
3, 5
6, 9
9, 5
6, 3
5, 0
6, 8
8, 11
18, 15
18, 29
37, 32
47, 47
51, 64
62, 73
95, 81
66, 101
67, 65
56, 59
48, 54
39, 37
41, 51
38, 40
46, 37
32, 45
26, 41
34, 41
21, 22
13, 16
9, 19
15, 5
11, 3
10, 5
5, 2
6, 4
3, 4
8, 6
3, 4
4, 2
8, 3
5, 7
6, 6
4, 9
7, 7
1, 9
6, 9
3, 7
4, 7
3, 3
6, 5
7, 8
5, 8
22, 9
29, 23
47, 30
50, 47
59, 66
74, 82
78, 96
76, 80
72, 67
49, 47
19, 36
24, 17
12, 4
10, 16
6, 4
16, 10
9, 12
13, 8
16, 15
15, 18
14, 15
18, 15
12, 11
10, 14
7, 7
10, 14
8, 12
6, 6
9, 3
6, 4
8, 10
5, 10
2, 3
3, 9
8, 6
11, 12
11, 13
15, 20
23, 26
28, 24
32, 42
28, 43
32, 45
40, 38
34, 43
33, 35
29, 31
38, 34
33, 15
32, 21
18, 15
20, 13
20, 9
17, 14
13, 14
10, 8
7, 9
10, 8
11, 17
12, 14
7, 19
11, 14
10, 14
7, 25
8, 21
11, 18
9, 18
10, 8
7, 16
10, 15
12, 6
5, 12
8, 8
8, 11
20, 13
15, 10
14, 20
23, 16
20, 20
21, 15
26, 19
19, 18
17, 12
16, 6
19, 13
19, 10
13, 12
17, 10
14, 24
19, 26
11, 20
19, 27
18, 23
24, 26
25, 47
39, 56
61, 60
68, 106
99, 80
108, 126
112, 93
98, 103
89, 66
71, 58
44, 48
42, 36
32, 27
24, 17
20, 24
27, 33
34, 36
53, 65
86, 122
190, 220
354, 474
669, 790
1117, 1374
1726, 2023
2497, 2891
3170, 3449
3648, 3924
3941, 4058
3612, 3497
3074, 2861
2447, 2231
1698, 1554
1088, 872
635, 466
391, 246
160, 131
77, 72
45, 44
31, 40
21, 43
27, 38
24, 25
40, 44
24, 56
32, 43
36, 27
34, 65
51, 75
102, 104
156, 200
209, 250
326, 341
404, 460
492, 503
513, 538
541, 563
489, 475
439, 374
310, 280
247, 206
153, 113
77, 62
43, 34
21, 17
14, 11
6, 6
3, 14
7, 8
5, 8
7, 5
6, 9
8, 10
17, 6
13, 7
8, 8
13, 2
12, 8
9, 2
5, 4
8, 6
6, 1
8, 3
2, 4
1, 1
3, 6
6, 3
7, 7
3, 8
3, 4
5, 3
6, 9
9, 1
4, 6
2, 1
8, 3
6, 3
7, 4
1, 8
3, 3
8, 3
5, 5
5, 2
8, 3
4, 5
7, 6
8, 7
4, 5
4, 5
7, 7
7, 6
8, 6
4, 2
2, 5
4, 3
2, 5
1, 4
3, 5
6, 8
9, 2
3, 5
5, 4
3, 6
3, 6
4, 1
6, 9
4, 5
5, 4
3, 5
2, 7
4, 2
2, 4
1, 1
4, 8
6, 1
5, 4
2, 4
3, 2
5, 5
4, 4
2, 3
5, 2
3, 5
4, 2
2, 4
6, 6
9, 3
4, 3
7, 4
5, 2
5, 8
3, 5
3, 6
4, 2
2, 4
5, 3
4, 7
10, 6
4, 5
5, 6
3, 7
5, 7
2, 4
5, 3
3, 4
6, 7
3, 5
3, 4
2, 4
7, 2
5, 5
5, 0
2, 4
7, 1
6, 5
3, 5
3, 2
2, 5
1, 5
7, 6
7, 2
2, 4
3, 5
3, 4
4, 6
4, 2
3, 5
2, 2
3, 5
4, 7
2, 4
0, 2
4, 3
7, 4
1, 2
4, 3
3, 2
4, 0
3, 2
3, 2
1, 4
4, 2
1, 2
3, 5
1, 4
0, 4
1, 2
6, 5
1, 5
1, 5
3, 3
3, 1
0, 3
1, 2
3, 1
2, 0
1, 1
1, 3
3, 7
2, 2
4, 1
5, 1
0, 2
4, 1
1, 1
2, 3
2, 4
0, 4
5, 2
3, 1
1, 1
6, 5
1, 3
1, 5
3, 3
3, 2
3, 3
3, 1
1, 2
2, 4
4, 5
1, 1
2, 1
4, 2
1, 1
1, 1
4, 1
0, 3
2, 4
3, 2
1, 2
5, 3
0, 1
4, 6
2, 2
1, 0
4, 1
4, 3
3, 1
3, 4
0, 1
1, 3
3, 1
1, 2
1, 5
2, 0
0, 3
1, 0
0, 0
1, 1
1, 0
2, 1
4, 0
2, 3
0, 3
1, 1
4, 1
0, 5
2, 1
0, 2
0, 4
1, 1
4, 7
3, 1
2, 3
3, 2
1, 2
4, 3
2, 4
2, 3
3, 6
6, 2
3, 4
1, 3
7, 4
7, 3
7, 6
5, 8
11, 5
5, 2
4, 8
4, 6
4, 1
5, 2
4, 1
0, 2
2, 2
0, 1
1, 1
0, 2
1, 0
2, 0
0, 1
1, 4
2, 0
1, 2
4, 1
2, 2
3, 0
2, 2
1, 1
4, 1
1, 4
3, 2
1, 0
1, 4
2, 2
1, 2
2, 2
1, 2
1, 1
4, 2
0, 2
0, 3
0, 0
1, 0
0, 1
2, 3
0, 2
2, 1
2, 0
1, 0
0, 0
1, 1
0, 2
1, 2
4, 1
2, 0
0, 0
0, 2
1, 0
2, 2
1, 1
0, 0
3, 1
2, 0
0, 1
0, 1
0, 0
0, 1
1, 1
3, 1
4, 1
0, 0
2, 1
1, 1
1, 0
0, 0
0, 1
0, 0
0, 4
0, 1
3, 1
0, 2
1, 1
1, 1
0, 1
1, 1
0, 2
1, 0
1, 0
0, 1
2, 0
0, 0
0, 0
0, 0
0, 0
1, 0
0, 1
0, 0
1, 0
0, 1
0, 1
0, 0
0, 2
0, 1
0, 0
0, 2
1, 0
1, 1
0, 0
0, 0
1, 0
1, 0
1, 2
1, 0
0, 1
0, 2
1, 1
1, 0
0, 2
2, 0
1, 0
0, 1
0, 1
0, 1
0, 1
0, 0
1, 1
1, 0
1, 0
0, 1
1, 0
1, 0
0, 0
1, 0
0, 0
0, 2
1, 1
0, 0
0, 0
0, 1
1, 0
0, 0
0, 1
1, 1
1, 0
0, 0
1, 2
0, 0
2, 1
0, 1
2, 0
0, 1
2, 0
0, 1
1, 1
0, 2
2, 0
0, 3
0, 0
0, 0
0, 0
1, 0
0, 0
0, 1
1, 0
1, 0
0, 0
0, 1
1, 0
0, 0
0, 0
0, 0
0, 1
0, 0
0, 0
0, 0
1, 0
0, 0
0, 0
0, 0
0, 0
0, 0
0, 0
0, 0
1, 0
0, 2
2, 1
0, 0
0, 0
1, 0
1, 0
0, 0
0, 1
1, 0
1, 0
0, 0
0, 0
0, 1
0, 0
0, 0
0, 0
0, 1
0, 0
0, 0
0, 1
0, 1
2, 1
0, 0
0, 0
0, 0
0, 0
0, 0
0, 0
0, 0
0, 1
0, 0
0, 0
1, 0
0, 1
0, 0
0, 0
0, 0
1, 0
0, 1
0, 0
0, 0
0, 0
1, 0
0, 0
1, 0
0, 1
0, 0
0, 2
0, 0
0, 2
0, 0
0, 1
0, 0
1, 0
0, 0
0, 0
0, 0
0, 1
0, 0
0, 0
0, 2
1, 0
0, 0
0, 1
0, 1
0, 1
0, 0
1, 0
1, 0
0, 1
1, 1
1, 0
0, 0
0, 0
0, 1
0, 0
0, 1
0, 0
0, 2
0, 0
0, 1
0, 0
0, 0
0, 0
0, 0
0, 0
0, 0
0, 0
0, 0
0, 0
0, 0
0, 0
0, 0
1, 0
0, 0
0, 0
0, 0
0, 0
0, 0
0, 0
0, 0
0, 0
0, 1
0, 1
0, 0
0, 0
0, 0
0, 0
0, 0
0, 0
0, 0
0, 0
0, 1
0, 0
0, 0
0, 0
0, 0
0, 0
0, 0
0, 0
0, 0
0, 0
0, 0
0, 0
0, 0
0, 0
0, 0
0, 0
0, 0
0, 0
0, 0
1, 0
1, 1
0, 1
0, 0
0, 0
0, 1
0, 0
1, 1
0, 0
0, 0
0, 0
0, 0
0, 0
0, 0
0, 0
0, 0
0, 1
0, 0
0, 0
0, 0
0, 0
0, 0
0, 0
0, 0
0, 1
0, 0
0, 0
0, 0
0, 0
0, 0
0, 1
0, 0
0, 0
0, 0
0, 0
0, 0
0, 0
0, 0
0, 0
0, 0
0, 0
0, 0
0, 0
0, 0
0, 0
0, 0
0, 0
0, 0
0, 0
0, 0
0, 0
0, 0
0, 0
0, 0
0, 0
0, 0
0, 0
0, 0
0, 1
0, 0
0, 0
1, 0
0, 0
0, 0
0, 0
0, 0
0, 0
0, 0
0, 0
0, 1
0, 0
0, 0
0, 0
0, 0
0, 0
0, 0
0, 0
0, 0
0, 0
0, 1
0, 0
0, 0
0, 0
0, 0
0, 0
0, 1
0, 0
0, 0
0, 0
0, 0
0, 0
0, 0
0, 0
0, 0
0, 0
0, 0
0, 0
0, 0
0, 0
0, 0
0, 0
0, 0
0, 0
0, 0
0, 0
0, 0
0, 0
0, 0
0, 0
0, 0
0, 0
0, 0
0, 0
0, 0
0, 0
0, 0
0, 0
0, 0
0, 0
0, 0
0, 0
0, 0
0, 0
0, 0
0, 0
0, 0
0, 0
0, 0
0, 0
0, 0
0, 0
0, 0
0, 0
0, 0
0, 0
0, 0
0, 0
0, 0
0, 0
0, 0
0, 0
0, 0
1, 0
0, 0
0, 0
0, 0
0, 0
0, 0
0, 0
0, 0
0, 0
0, 0
0, 0
0, 0
0, 0
0, 0
0, 0
0, 0
0, 0
0, 0
0, 0
0, 0
0, 0
0, 0
0, 0
0, 0
0, 0
0, 0
0, 0
0, 0
0, 0
0, 0
0, 0
0, 0
0, 0
0, 0
0, 0
0, 0
0, 0
0, 0
0, 0
0, 0
0, 0
0, 0
0, 0
0, 0
0, 0
0, 0
0, 0
0, 0
0, 0
0, 0
0, 0
0, 0
0, 0
0, 1
0, 0
0, 0
0, 0
0, 0
0, 0
0, 0
0, 0
0, 0
0, 0
0, 0
0, 0
0, 0
0, 0
0, 0
0, 0
0, 0
0, 0
0, 0
0, 0
0, 0
0, 0
0, 0
0, 0
0, 0
0, 0
0, 0
0, 0
0, 0
0, 0
0, 0
0, 0
0, 0
0, 1
0, 0
0, 0
0, 0
0, 0
0, 0
0, 0
0, 0
0, 0
0, 0
0, 0
0, 0
0, 0
0, 0
0, 0
0, 0
0, 0
0, 0
0, 0
0, 0
0, 0
0, 0
0, 0
0, 0
0, 0
0, 0
0, 0
0, 0
0, 0
0, 0
0, 0
0, 0
0, 0
0, 0
0, 0
0, 0
0, 0
0, 0
0, 0
0, 0
0, 0
0, 0
0, 0
0, 0
0, 0
0, 0
0, 0
0, 0
0, 0
0, 0
0, 0
0, 0
0, 0
0, 0
0, 0
0, 0
0, 0
0, 0
0, 0
0, 0
0, 0
0, 0
0, 0
0, 0
0, 0
0, 0
0, 0
0, 0
0, 0
0, 0
0, 0
0, 0
0, 0
0, 0
0, 0
0, 0
0, 0
0, 0
0, 0
0, 0
0, 0
0, 0
0, 0
0, 0
0, 0
0, 0
0, 0
0, 0
0, 0
0, 0
0, 0
0, 0
0, 0
0, 0
0, 0
0, 0
0, 0
0, 0
0, 0
0, 0
0, 0
0, 0
0, 0
0, 0
0, 0
0, 0
0, 0
0, 0
0, 0
0, 0
0, 0
0, 0
0, 0
0, 0
0, 0
0, 0
0, 0
0, 0
0, 0
0, 0
0, 0
0, 0
0, 0
0, 0
0, 0
0, 0
0, 0
0, 0
0, 0
0, 0
0, 0
0, 0
0, 0
0, 0
0, 0
0, 0
0, 0
0, 0
0, 0
0, 0
0, 0
0, 0
0, 0
0, 0
0, 0
0, 0
0, 0
0, 0
0, 0
0, 0
0, 0
0, 0
0, 0
0, 0
0, 0
0, 0
0, 0
0, 0
0, 0
0, 0
0, 0
0, 0
0, 0
0, 0
0, 0
0, 0
0, 0
0, 0
0, 0
0, 0
0, 0
0, 0
0, 0
0, 0
0, 0
0, 0
0, 0
0, 0
0, 0
0, 0
0, 0
0, 0
0, 0
0, 0
0, 0
0, 0
0, 0
0, 0
0, 0
0, 0
0, 0
0, 0
0, 0
0, 0
0, 0
0, 0
0, 0
0, 0
0, 0
0, 0
0, 0
0, 0
0, 0
0, 0
0, 0
0, 0
0, 0
0, 0
0, 0
0, 0
0, 0
0, 0
0, 0
0, 0
0, 0
0, 0
0, 0
0, 0
0, 0
0, 0
0, 0
0, 0
0, 0
0, 0
0, 0
0, 0
0, 0
0, 0
0, 0
0, 0
0, 0
0, 0
0, 0
0, 0
0, 0
0, 0
0, 0
0, 0
0, 0
0, 0
0, 0
0, 0
0, 0
0, 0
0, 0
0, 0
0, 0
0, 0
0, 0
0, 0
0, 0
0, 0
0, 0
0, 0
0, 0
0, 0
0, 0
0, 0
0, 0
0, 0
0, 0
0, 0
0, 0
0, 0
0, 0
0, 0
0, 0
0, 0
0, 0
0, 0
0, 0
0, 0
0, 0
0, 0
0, 0
0, 0
0, 0
0, 0
0, 0
0, 0
0, 0
0, 0
0, 0
0, 0
0, 0
0, 0
#ENDOFDATA     end of spectrum data