File: host_upload/12-01-2023/Dourbes (shot-by-shot)/upload_4/ps__0257_0689790785_000rfs_shot_3150.msa
#FORMAT      : EMSA/MAS spectral data file
#VERSION     : TC202v2.0 PIXL
#TITLE       : N/A
#DATE        :       Date in the format DD-MMM-YYYY, for example 07-JUL-2010
#TIME        :             The time of day at which the spectrum was recorded, in 24-hour format
#OWNER       : PIXL Flight Model       (PIXL will use this to indicate which instrument took the data.)
#NPOINTS     : 4096     Number of data points in the spectrum (This can be zero for configuration only files)
#NCOLUMNS    : 2     Number of data columns in the spectrum (This can be zero for configuration only files)
#XUNITS      : eV
#YUNITS      : COUNTS
#DATATYPE    : YY
#XPERCHAN    : 7.862, 7.881   eV per channel (separate by commas if more than one detector)
#OFFSET      : 18.5, -22.4         eV of first channel  (separate by commas if more than one detector
#SIGNALTYPE  : XRF
#YP_TEMP     : 3.198
#LIVETIME    : 9.12995, 9.13941   seconds (separate by commas if more than one detector)
#REALTIME    : 10, 10.0   seconds (separate by commas if more than one detector)
#SPECTRUM    : start of spectrum data
0, 0
0, 0
0, 0
0, 0
0, 0
0, 0
0, 0
0, 0
0, 0
0, 0
0, 0
0, 0
0, 0
0, 0
0, 0
0, 0
0, 0
0, 0
0, 0
0, 0
0, 0
0, 0
0, 0
0, 0
0, 0
0, 0
0, 0
0, 0
0, 0
0, 0
0, 0
0, 0
0, 1
0, 1
0, 0
1, 0
0, 0
1, 1
3, 0
0, 0
1, 0
1, 1
1, 0
0, 4
0, 1
1, 2
1, 1
3, 0
3, 1
6, 4
6, 12
18, 12
28, 37
43, 40
47, 42
34, 29
26, 25
23, 15
15, 15
8, 3
4, 6
10, 2
12, 12
13, 11
17, 8
13, 5
10, 8
14, 15
27, 24
63, 49
158, 103
294, 227
490, 430
703, 649
889, 768
885, 793
759, 608
520, 458
339, 296
174, 148
102, 75
44, 38
31, 18
15, 16
22, 12
5, 15
6, 5
4, 6
2, 4
3, 0
2, 0
4, 2
8, 1
3, 4
4, 5
5, 9
10, 14
11, 16
7, 11
9, 11
18, 9
10, 7
8, 12
5, 3
1, 3
1, 1
10, 4
4, 1
13, 4
7, 11
8, 21
28, 14
30, 15
35, 36
37, 33
30, 27
39, 40
32, 25
19, 28
24, 23
15, 28
19, 17
20, 16
21, 16
20, 11
15, 19
17, 16
7, 10
7, 8
9, 6
12, 4
6, 7
4, 5
2, 2
6, 4
4, 2
6, 6
4, 9
7, 6
4, 3
4, 0
4, 2
3, 3
4, 5
2, 4
7, 0
6, 3
6, 8
8, 13
18, 21
52, 49
97, 89
210, 229
383, 339
598, 579
905, 886
1085, 1070
1238, 1092
1193, 981
993, 733
657, 538
439, 343
247, 172
122, 89
65, 58
35, 45
58, 60
69, 65
106, 127
146, 131
180, 128
182, 168
157, 144
124, 117
91, 64
56, 47
40, 28
18, 11
8, 5
11, 4
9, 4
3, 2
3, 3
4, 5
2, 2
6, 6
9, 3
9, 8
18, 12
25, 24
31, 21
39, 32
30, 38
34, 24
27, 22
30, 18
15, 11
19, 15
15, 7
9, 4
13, 7
10, 6
5, 8
4, 4
5, 4
10, 7
3, 2
2, 14
7, 9
15, 4
12, 12
7, 13
5, 9
11, 9
10, 12
4, 2
6, 5
4, 3
2, 7
5, 4
3, 3
9, 6
6, 6
11, 6
11, 18
7, 19
32, 18
35, 30
53, 35
43, 58
53, 34
59, 46
45, 33
45, 34
27, 16
19, 13
11, 9
8, 4
8, 4
4, 7
5, 6
3, 8
5, 16
7, 13
13, 17
14, 25
15, 35
38, 54
49, 52
50, 73
60, 66
62, 77
55, 71
63, 58
38, 41
40, 23
27, 23
23, 18
19, 17
21, 14
10, 10
10, 13
14, 23
24, 34
64, 82
127, 146
217, 252
382, 434
629, 631
833, 827
1110, 1070
1324, 1221
1386, 1244
1356, 1117
1133, 890
916, 613
645, 430
409, 299
229, 158
138, 72
85, 42
46, 22
22, 15
12, 10
15, 13
17, 9
9, 4
16, 4
10, 11
17, 7
16, 18
23, 14
27, 20
49, 38
46, 59
83, 108
106, 143
150, 146
170, 185
205, 181
195, 155
192, 172
175, 141
112, 116
96, 64
47, 41
33, 21
21, 8
13, 19
12, 7
7, 9
7, 5
20, 5
14, 7
10, 9
20, 7
16, 5
13, 4
18, 5
12, 5
16, 7
7, 7
5, 4
8, 8
8, 7
6, 4
6, 8
6, 2
6, 2
6, 4
3, 1
7, 8
7, 4
7, 4
9, 7
6, 3
9, 5
11, 3
3, 5
2, 5
5, 6
6, 6
8, 5
3, 5
6, 5
11, 7
6, 6
10, 5
10, 4
10, 2
8, 6
5, 3
4, 5
9, 10
9, 10
5, 2
8, 11
2, 4
4, 7
3, 4
4, 10
5, 9
4, 4
6, 6
4, 3
5, 5
3, 9
6, 5
6, 4
7, 3
6, 8
12, 7
12, 4
4, 7
15, 7
8, 4
1, 3
6, 5
3, 5
6, 1
2, 6
7, 3
5, 3
1, 4
6, 3
4, 3
4, 6
9, 3
8, 7
6, 6
4, 7
4, 4
5, 7
5, 5
7, 3
2, 5
5, 4
6, 3
1, 7
1, 9
4, 4
3, 2
4, 5
2, 6
1, 9
3, 5
5, 11
2, 10
7, 4
4, 16
2, 16
2, 14
2, 20
5, 16
5, 15
3, 14
8, 10
5, 18
5, 14
2, 11
12, 2
5, 4
11, 9
6, 5
6, 6
7, 5
6, 7
7, 7
7, 5
10, 1
3, 3
10, 1
7, 6
2, 2
4, 3
4, 1
2, 0
4, 0
3, 0
0, 0
4, 0
4, 5
5, 3
3, 2
7, 4
5, 2
4, 2
4, 1
4, 3
5, 6
2, 3
5, 5
6, 4
3, 2
1, 6
2, 6
4, 4
6, 5
5, 6
1, 2
2, 5
5, 3
3, 8
3, 2
1, 2
4, 4
5, 4
4, 2
2, 5
4, 4
2, 3
5, 6
4, 4
4, 5
3, 4
2, 2
3, 1
2, 3
1, 4
6, 1
3, 2
0, 4
3, 3
3, 4
3, 5
2, 3
0, 2
2, 8
0, 1
0, 0
3, 2
3, 2
2, 5
0, 2
4, 2
3, 3
5, 1
1, 0
1, 2
0, 2
1, 4
4, 2
4, 3
3, 5
3, 5
3, 5
2, 1
5, 2
2, 1
3, 1
3, 4
6, 1
3, 4
7, 4
7, 4
9, 3
4, 3
10, 2
2, 2
6, 1
2, 3
8, 3
2, 3
5, 0
1, 3
5, 0
4, 2
1, 0
4, 0
3, 2
4, 1
2, 0
1, 6
4, 1
1, 2
2, 3
3, 2
2, 1
3, 2
0, 1
0, 0
1, 4
4, 3
3, 1
2, 0
3, 0
2, 3
1, 1
3, 0
3, 2
0, 1
2, 0
2, 3
3, 2
1, 1
2, 2
0, 1
2, 0
1, 1
4, 0
0, 1
1, 2
1, 1
2, 1
0, 1
5, 1
2, 0
1, 2
1, 1
4, 1
1, 2
1, 3
0, 2
3, 4
1, 2
2, 1
1, 2
0, 1
2, 1
0, 0
1, 2
1, 1
0, 2
2, 0
1, 1
0, 1
1, 2
2, 2
2, 2
0, 3
1, 0
3, 1
1, 5
0, 4
1, 1
0, 1
0, 1
1, 1
1, 3
2, 1
2, 0
2, 0
0, 1
2, 0
2, 0
1, 2
1, 0
0, 0
1, 1
1, 1
0, 0
1, 1
4, 1
0, 0
1, 1
0, 0
3, 0
1, 1
0, 0
0, 2
0, 0
1, 0
0, 1
1, 1
0, 0
3, 0
0, 0
1, 1
0, 1
0, 0
1, 1
1, 2
1, 3
1, 0
1, 2
0, 2
0, 0
1, 0
0, 1
1, 1
1, 0
1, 1
0, 0
0, 2
1, 1
0, 1
0, 0
0, 2
0, 0
0, 1
1, 0
1, 0
2, 1
0, 0
0, 0
1, 1
0, 1
0, 0
1, 1
0, 0
2, 1
0, 1
1, 2
1, 0
0, 0
0, 0
0, 1
1, 1
1, 2
0, 0
0, 1
0, 0
0, 0
0, 0
0, 0
0, 0
1, 0
0, 1
1, 1
0, 0
0, 1
0, 0
1, 0
1, 0
0, 0
1, 0
0, 0
0, 2
1, 2
1, 0
1, 1
1, 1
0, 0
0, 0
0, 0
1, 0
0, 0
1, 0
0, 1
0, 0
1, 0
0, 0
0, 1
0, 0
0, 1
1, 0
0, 0
0, 1
0, 0
0, 0
1, 0
1, 2
1, 1
1, 1
1, 0
0, 0
1, 0
0, 0
0, 0
3, 0
0, 0
2, 1
0, 1
0, 0
1, 0
0, 0
0, 0
0, 1
0, 0
0, 1
1, 0
0, 0
0, 0
1, 1
0, 1
0, 0
0, 0
0, 0
0, 0
0, 0
0, 0
1, 0
0, 0
0, 0
0, 0
0, 0
0, 1
0, 1
1, 1
0, 1
0, 0
0, 0
0, 0
1, 1
0, 0
0, 0
0, 0
0, 0
0, 1
2, 0
0, 0
1, 0
0, 0
0, 0
0, 0
1, 0
0, 0
1, 0
0, 0
0, 0
0, 0
0, 0
0, 0
0, 0
0, 0
0, 0
0, 0
0, 0
0, 0
0, 0
0, 1
0, 0
2, 1
1, 0
0, 1
1, 1
2, 0
0, 0
0, 0
1, 0
0, 0
0, 0
1, 0
0, 1
0, 2
0, 0
0, 1
0, 1
0, 1
0, 1
0, 0
0, 0
0, 0
0, 0
0, 1
0, 0
0, 0
1, 0
0, 1
0, 0
0, 0
0, 0
0, 0
0, 1
0, 0
0, 0
1, 0
0, 0
0, 0
0, 0
0, 0
0, 1
0, 0
0, 1
0, 0
0, 1
0, 0
0, 0
0, 0
0, 0
1, 1
0, 0
0, 0
1, 0
0, 0
0, 0
0, 0
1, 0
0, 0
0, 0
0, 0
0, 0
1, 0
0, 0
0, 0
0, 0
0, 0
0, 0
0, 0
0, 1
0, 0
0, 0
0, 0
0, 0
0, 0
1, 0
0, 0
0, 0
2, 0
0, 0
0, 0
0, 0
0, 0
0, 0
0, 0
0, 0
0, 0
0, 0
0, 0
0, 0
0, 0
0, 0
0, 1
0, 0
0, 0
0, 0
0, 0
0, 0
0, 0
0, 0
0, 0
1, 0
0, 0
0, 0
0, 0
0, 1
0, 0
0, 0
0, 0
0, 0
0, 0
0, 2
1, 0
0, 0
0, 0
0, 0
0, 0
0, 0
0, 0
0, 0
0, 1
0, 1
1, 0
0, 0
0, 0
0, 0
0, 0
0, 0
0, 0
0, 0
0, 0
0, 0
0, 1
0, 0
1, 0
0, 0
0, 0
1, 0
0, 0
0, 0
0, 0
0, 0
0, 0
0, 0
0, 0
0, 0
0, 0
0, 0
0, 0
0, 0
0, 0
0, 0
0, 0
0, 0
0, 0
0, 0
0, 0
0, 0
0, 0
0, 0
0, 0
0, 0
0, 0
0, 0
0, 0
0, 0
0, 0
0, 0
0, 0
0, 0
0, 0
0, 0
0, 0
0, 0
0, 0
0, 0
0, 0
0, 0
0, 0
0, 0
0, 0
0, 0
0, 0
0, 0
0, 0
0, 0
0, 0
0, 0
0, 0
0, 0
0, 0
0, 0
0, 0
0, 0
0, 0
0, 0
0, 0
0, 0
0, 0
0, 0
0, 0
0, 0
0, 0
0, 0
0, 0
0, 0
0, 0
0, 0
0, 0
0, 0
0, 0
0, 0
0, 0
0, 0
0, 0
0, 0
0, 0
0, 0
0, 0
0, 0
0, 0
0, 0
0, 0
0, 0
0, 0
0, 0
0, 0
0, 0
0, 0
0, 0
0, 0
0, 0
0, 0
0, 0
0, 0
0, 0
0, 0
0, 0
0, 0
0, 0
0, 0
0, 0
0, 0
0, 0
0, 0
0, 0
0, 0
0, 0
0, 0
0, 0
0, 0
0, 0
0, 0
0, 0
0, 0
0, 0
0, 0
0, 0
0, 0
0, 0
0, 0
0, 0
0, 0
0, 0
0, 0
0, 0
0, 0
0, 0
0, 0
0, 0
0, 0
0, 0
0, 0
0, 0
0, 0
0, 0
0, 0
0, 0
0, 0
0, 0
0, 0
0, 0
0, 0
0, 0
0, 0
0, 0
0, 0
0, 0
0, 0
0, 0
0, 0
0, 0
0, 0
0, 0
0, 0
0, 0
0, 0
0, 0
0, 0
0, 0
0, 0
0, 0
0, 0
0, 0
0, 0
0, 0
0, 0
0, 0
0, 0
0, 0
0, 0
0, 0
0, 0
0, 0
0, 0
0, 0
0, 0
0, 0
0, 0
0, 0
0, 0
0, 0
0, 0
0, 0
0, 0
0, 0
0, 0
0, 0
0, 0
0, 0
0, 0
0, 0
0, 0
0, 0
0, 0
0, 0
0, 0
0, 0
0, 0
0, 0
0, 0
0, 0
0, 0
0, 0
0, 0
0, 0
0, 0
0, 0
0, 0
0, 0
0, 0
0, 0
0, 0
0, 0
0, 0
0, 0
0, 0
0, 0
0, 0
0, 0
0, 0
0, 0
0, 0
0, 0
0, 0
0, 0
0, 0
0, 0
0, 0
0, 0
0, 0
0, 0
0, 0
0, 0
0, 0
0, 0
0, 0
0, 0
0, 0
0, 0
0, 0
0, 0
0, 0
0, 0
0, 0
0, 0
0, 0
0, 0
0, 0
0, 0
0, 0
0, 0
0, 0
0, 0
0, 0
0, 0
0, 0
0, 0
0, 0
0, 0
0, 0
0, 0
0, 0
0, 0
0, 0
0, 0
0, 0
0, 0
0, 0
0, 0
0, 0
0, 0
0, 0
0, 0
0, 0
0, 0
0, 0
0, 0
0, 0
0, 0
0, 0
0, 0
0, 0
0, 0
0, 0
0, 0
0, 0
0, 0
0, 0
0, 0
0, 0
0, 0
0, 0
0, 0
0, 0
0, 0
0, 0
0, 0
0, 0
0, 0
0, 0
0, 0
0, 0
0, 0
0, 0
0, 0
0, 0
0, 0
0, 0
0, 0
0, 0
0, 0
0, 0
0, 0
0, 0
0, 0
0, 0
0, 0
0, 0
0, 0
0, 0
0, 0
0, 0
0, 0
0, 0
0, 0
0, 0
0, 0
0, 0
0, 0
0, 0
0, 0
0, 0
0, 0
0, 0
0, 0
0, 0
0, 0
0, 0
0, 0
0, 0
0, 0
0, 0
0, 0
0, 0
0, 0
0, 0
0, 0
0, 0
0, 0
0, 0
0, 0
0, 0
0, 0
0, 0
0, 0
0, 0
0, 0
0, 0
0, 0
0, 0
0, 0
0, 0
0, 0
0, 0
0, 0
0, 0
0, 0
0, 0
0, 0
0, 0
0, 0
0, 0
0, 0
0, 0
0, 0
0, 0
0, 0
0, 0
0, 0
0, 0
0, 0
0, 0
0, 0
0, 0
0, 0
0, 0
0, 0
0, 0
0, 0
0, 0
0, 0
0, 0
0, 0
0, 0
0, 0
0, 0
0, 0
0, 0
0, 0
0, 0
0, 0
0, 0
0, 0
0, 0
0, 0
0, 0
0, 0
0, 0
0, 0
0, 0
0, 0
0, 0
0, 0
0, 0
0, 0
0, 0
0, 0
0, 0
0, 0
0, 0
0, 0
0, 0
0, 0
0, 0
0, 0
0, 0
0, 0
0, 0
0, 0
0, 0
0, 0
0, 0
0, 0
0, 0
0, 0
0, 0
0, 0
0, 0
0, 0
0, 0
0, 0
0, 0
0, 0
0, 0
0, 0
#ENDOFDATA     end of spectrum data