File: host_upload/12-01-2023/Dourbes (shot-by-shot)/upload_4/ps__0257_0689790785_000rfs_shot_3226.msa
#FORMAT      : EMSA/MAS spectral data file
#VERSION     : TC202v2.0 PIXL
#TITLE       : N/A
#DATE        :       Date in the format DD-MMM-YYYY, for example 07-JUL-2010
#TIME        :             The time of day at which the spectrum was recorded, in 24-hour format
#OWNER       : PIXL Flight Model       (PIXL will use this to indicate which instrument took the data.)
#NPOINTS     : 4096     Number of data points in the spectrum (This can be zero for configuration only files)
#NCOLUMNS    : 2     Number of data columns in the spectrum (This can be zero for configuration only files)
#XUNITS      : eV
#YUNITS      : COUNTS
#DATATYPE    : YY
#XPERCHAN    : 7.862, 7.881   eV per channel (separate by commas if more than one detector)
#OFFSET      : 18.5, -22.4         eV of first channel  (separate by commas if more than one detector
#SIGNALTYPE  : XRF
#YP_TEMP     : 3.069
#LIVETIME    : 8.99261, 8.97616   seconds (separate by commas if more than one detector)
#REALTIME    : 10, 10.0   seconds (separate by commas if more than one detector)
#SPECTRUM    : start of spectrum data
0, 0
0, 0
0, 0
0, 0
0, 0
0, 0
0, 0
0, 0
0, 0
0, 0
0, 0
0, 0
0, 0
0, 0
0, 0
0, 0
0, 0
0, 0
0, 0
0, 0
0, 0
0, 0
0, 0
0, 0
0, 0
0, 0
0, 0
0, 0
0, 0
0, 0
0, 0
0, 0
0, 0
1, 0
1, 1
3, 2
1, 1
3, 4
1, 5
0, 2
2, 5
1, 3
2, 4
2, 3
4, 2
2, 0
1, 0
2, 0
2, 1
4, 4
8, 5
13, 18
22, 27
33, 35
38, 37
26, 27
23, 18
17, 24
8, 8
7, 6
2, 3
3, 4
4, 6
10, 2
3, 11
6, 6
3, 11
5, 8
15, 7
30, 30
90, 67
192, 179
290, 302
386, 400
499, 516
483, 509
460, 431
295, 289
213, 190
118, 99
61, 56
26, 29
13, 11
7, 7
3, 7
1, 4
3, 5
3, 3
3, 4
4, 2
5, 2
4, 4
5, 5
14, 11
21, 16
30, 38
37, 59
59, 88
73, 89
63, 83
80, 80
46, 51
35, 50
21, 21
14, 16
11, 20
19, 25
22, 39
30, 46
48, 76
100, 117
137, 152
145, 200
165, 191
179, 198
141, 168
130, 143
97, 110
86, 88
60, 73
52, 60
62, 58
44, 48
44, 37
35, 27
30, 43
27, 29
25, 40
18, 18
23, 18
13, 27
5, 10
7, 8
11, 6
4, 5
4, 5
6, 6
9, 3
4, 7
11, 5
6, 3
7, 8
8, 6
4, 2
3, 6
4, 6
9, 2
8, 9
3, 2
7, 2
9, 12
14, 18
33, 40
45, 53
70, 75
105, 148
134, 162
110, 141
120, 129
106, 124
72, 77
45, 38
29, 25
12, 16
4, 10
9, 11
11, 10
11, 19
18, 18
11, 20
22, 21
24, 25
9, 26
17, 20
13, 14
14, 19
17, 14
11, 11
13, 12
7, 8
12, 11
16, 12
5, 7
5, 12
6, 5
7, 10
5, 12
12, 11
14, 14
14, 24
19, 26
14, 25
25, 27
30, 27
32, 23
28, 22
31, 31
29, 25
32, 33
41, 32
24, 13
27, 25
19, 25
17, 14
17, 6
12, 10
16, 11
13, 10
10, 13
14, 12
21, 12
19, 12
18, 10
12, 19
19, 13
10, 15
6, 18
12, 19
14, 18
13, 12
13, 19
13, 12
9, 20
23, 27
13, 22
15, 14
16, 28
17, 22
12, 20
14, 21
25, 14
15, 25
15, 14
24, 14
20, 15
13, 17
12, 12
17, 23
11, 10
16, 11
16, 19
11, 18
13, 15
19, 17
33, 35
37, 42
68, 62
69, 107
78, 109
105, 136
138, 147
127, 124
102, 149
99, 91
64, 90
63, 46
38, 36
19, 31
23, 25
32, 23
21, 32
32, 44
41, 65
91, 97
170, 242
318, 432
611, 833
1068, 1442
1724, 1989
2365, 2880
2954, 3538
3454, 3943
3663, 3982
3432, 3508
3062, 2994
2373, 2136
1649, 1393
1064, 806
609, 516
342, 247
181, 147
74, 70
53, 42
48, 39
27, 27
31, 29
34, 29
32, 32
32, 36
39, 43
52, 44
57, 61
73, 67
98, 121
119, 190
239, 272
286, 377
373, 477
446, 545
493, 565
526, 576
493, 511
392, 402
333, 261
214, 203
126, 100
96, 70
47, 41
26, 19
21, 13
5, 5
8, 11
6, 7
8, 6
4, 6
9, 10
10, 15
7, 10
10, 15
9, 7
3, 8
9, 7
14, 9
7, 3
3, 6
3, 3
2, 4
6, 4
5, 6
9, 5
0, 8
9, 3
5, 4
5, 6
5, 5
12, 3
3, 8
12, 7
5, 10
4, 7
7, 6
9, 3
4, 6
5, 9
12, 9
5, 4
3, 8
5, 7
6, 11
4, 7
6, 3
8, 4
12, 6
5, 3
4, 8
4, 9
2, 3
8, 4
1, 4
4, 8
3, 7
5, 2
6, 4
6, 4
3, 7
4, 5
5, 7
12, 6
8, 9
6, 10
9, 4
1, 4
6, 4
8, 4
6, 7
1, 4
3, 2
1, 2
5, 3
5, 7
6, 5
3, 6
4, 4
3, 6
3, 7
2, 4
3, 4
9, 9
7, 5
5, 3
3, 9
5, 4
4, 3
5, 5
7, 5
3, 2
7, 4
5, 7
1, 5
4, 5
3, 3
6, 5
3, 2
7, 2
4, 3
4, 3
6, 4
2, 4
2, 4
3, 5
4, 5
3, 5
3, 6
8, 6
2, 5
7, 1
4, 1
7, 3
6, 6
4, 4
2, 0
2, 3
3, 9
4, 5
5, 6
3, 3
4, 6
3, 9
3, 4
2, 3
4, 4
2, 4
5, 1
3, 1
8, 5
4, 1
6, 6
5, 5
3, 2
2, 2
2, 2
2, 3
3, 3
2, 3
2, 6
4, 2
1, 1
3, 7
3, 1
6, 2
2, 1
4, 2
7, 2
3, 0
6, 3
0, 4
3, 1
3, 4
1, 0
0, 2
7, 4
1, 3
3, 0
3, 1
3, 6
5, 0
3, 2
4, 3
5, 3
3, 2
3, 2
0, 0
2, 3
2, 4
4, 3
3, 1
1, 2
3, 2
4, 2
2, 3
1, 3
3, 5
1, 4
0, 2
4, 5
3, 1
2, 3
2, 3
1, 2
2, 1
4, 3
4, 0
8, 4
1, 2
3, 2
3, 0
2, 3
1, 2
1, 2
7, 3
1, 5
2, 4
3, 1
6, 3
3, 5
0, 5
0, 0
1, 1
2, 3
3, 3
5, 3
1, 5
1, 0
2, 3
2, 3
2, 2
1, 4
3, 3
1, 1
1, 1
2, 0
3, 3
5, 4
1, 4
1, 5
2, 1
0, 4
1, 0
0, 3
2, 2
3, 2
1, 2
0, 6
6, 1
1, 3
4, 3
2, 6
3, 5
6, 5
5, 8
4, 7
6, 5
3, 5
2, 9
3, 12
5, 6
2, 4
6, 1
2, 7
1, 4
1, 0
0, 2
0, 3
3, 4
1, 2
0, 1
0, 1
2, 0
1, 1
3, 3
0, 1
1, 0
2, 0
2, 1
2, 1
1, 1
1, 2
2, 3
8, 3
5, 3
1, 0
3, 2
3, 2
4, 2
2, 1
1, 1
2, 3
1, 0
0, 1
3, 3
1, 2
0, 0
0, 3
2, 0
0, 3
3, 0
0, 0
1, 1
0, 0
1, 1
1, 0
0, 1
0, 1
1, 1
3, 1
0, 2
3, 0
2, 0
0, 1
1, 2
0, 3
3, 0
0, 0
1, 2
1, 0
1, 0
0, 2
1, 1
0, 1
0, 0
1, 0
0, 0
0, 0
0, 0
1, 1
0, 2
2, 0
0, 0
1, 1
0, 0
1, 0
0, 1
0, 1
2, 0
1, 1
1, 1
0, 0
1, 0
1, 0
2, 1
1, 0
0, 0
0, 2
0, 2
0, 0
0, 0
0, 1
1, 4
3, 0
2, 1
0, 0
1, 0
0, 1
1, 0
1, 1
0, 0
1, 1
0, 0
1, 1
1, 0
0, 0
1, 0
0, 1
3, 0
1, 0
0, 0
0, 0
0, 0
1, 3
0, 1
1, 0
0, 0
1, 1
1, 0
0, 1
1, 0
0, 1
4, 0
2, 0
1, 0
0, 3
0, 0
1, 0
1, 0
0, 1
0, 0
0, 1
1, 0
0, 1
2, 0
1, 1
0, 1
2, 0
1, 3
0, 0
0, 0
0, 0
1, 0
0, 1
0, 1
3, 2
0, 0
0, 1
0, 1
0, 1
0, 0
2, 0
0, 0
0, 0
0, 0
1, 1
1, 2
0, 0
0, 0
0, 1
1, 0
0, 0
0, 0
1, 1
0, 0
0, 0
0, 0
0, 0
0, 0
0, 0
0, 0
0, 1
0, 0
0, 0
1, 0
0, 0
1, 0
0, 0
0, 0
1, 0
1, 0
1, 1
0, 1
0, 0
0, 0
1, 1
0, 0
0, 1
0, 0
0, 0
1, 1
1, 1
0, 0
0, 0
0, 1
1, 0
0, 0
0, 1
2, 0
0, 0
0, 1
0, 0
0, 0
1, 0
0, 0
0, 0
1, 0
0, 0
0, 0
0, 1
0, 0
0, 0
0, 0
0, 0
0, 1
0, 0
0, 0
0, 0
0, 0
0, 0
0, 0
0, 0
0, 0
0, 1
0, 0
0, 2
0, 0
0, 0
0, 0
0, 0
1, 0
0, 0
0, 0
0, 0
0, 0
0, 0
1, 0
0, 1
0, 0
0, 0
0, 0
0, 0
1, 0
0, 0
0, 0
0, 0
0, 0
0, 0
0, 0
0, 0
0, 0
2, 0
0, 0
0, 0
0, 1
0, 1
0, 1
1, 1
1, 1
0, 0
0, 0
0, 0
0, 0
0, 0
0, 0
0, 0
0, 0
0, 0
0, 0
0, 0
0, 0
0, 0
0, 0
0, 0
0, 0
1, 0
2, 1
0, 0
0, 0
0, 0
0, 0
0, 1
0, 0
0, 0
0, 0
0, 0
0, 1
0, 0
0, 1
0, 0
0, 1
0, 0
0, 0
0, 0
0, 0
0, 0
0, 0
0, 0
0, 0
0, 0
0, 0
0, 0
0, 1
0, 0
0, 0
0, 1
0, 1
0, 0
0, 0
0, 0
0, 0
0, 0
0, 0
0, 0
0, 0
0, 0
0, 0
0, 0
1, 0
0, 0
1, 0
0, 0
0, 0
0, 0
0, 0
0, 0
0, 0
0, 0
0, 0
0, 0
0, 0
0, 0
0, 0
1, 0
0, 0
0, 0
0, 0
0, 0
0, 0
0, 0
0, 0
0, 0
0, 0
0, 0
0, 0
0, 0
1, 0
0, 0
0, 0
0, 0
0, 0
0, 0
0, 1
0, 0
0, 0
1, 0
0, 0
0, 0
0, 1
0, 0
0, 0
0, 0
0, 0
0, 0
0, 0
0, 0
0, 0
0, 0
0, 0
0, 0
0, 0
0, 0
0, 0
0, 0
0, 0
0, 0
0, 0
0, 0
0, 0
0, 0
0, 0
0, 0
0, 0
0, 0
0, 0
0, 0
0, 0
0, 0
0, 1
0, 0
0, 0
0, 0
0, 0
0, 0
0, 0
0, 0
0, 0
0, 0
0, 0
0, 0
0, 0
0, 0
1, 0
0, 0
0, 0
0, 0
0, 0
0, 0
0, 0
0, 0
0, 0
0, 0
0, 0
0, 0
0, 0
0, 0
0, 0
0, 0
0, 1
0, 0
0, 0
0, 0
0, 0
0, 0
0, 0
0, 0
0, 0
0, 1
0, 0
0, 0
0, 0
0, 0
0, 0
0, 0
0, 0
0, 0
0, 0
0, 0
0, 0
0, 0
0, 0
0, 0
0, 0
0, 0
0, 0
0, 0
0, 0
0, 0
0, 0
0, 0
0, 0
0, 0
0, 0
0, 0
0, 0
0, 0
0, 0
0, 0
0, 0
0, 0
0, 0
0, 0
0, 0
0, 0
0, 0
0, 0
0, 0
0, 0
0, 0
0, 0
0, 0
0, 0
0, 0
0, 0
0, 0
0, 0
0, 0
0, 0
0, 0
0, 0
0, 0
0, 0
0, 0
0, 0
0, 0
0, 0
0, 0
0, 0
0, 0
0, 0
0, 0
1, 0
0, 1
0, 0
0, 0
0, 0
0, 0
0, 0
0, 0
0, 0
0, 0
0, 0
0, 0
0, 0
0, 0
0, 0
0, 0
0, 0
0, 0
0, 0
0, 0
0, 0
0, 0
0, 0
0, 0
0, 0
0, 0
0, 0
0, 0
0, 0
0, 0
0, 0
0, 0
0, 0
0, 0
0, 0
0, 0
0, 0
0, 0
0, 0
0, 0
0, 0
0, 0
0, 0
0, 0
0, 0
0, 0
0, 0
0, 0
0, 0
0, 0
0, 0
0, 0
0, 0
0, 0
0, 0
0, 0
0, 0
0, 0
0, 0
0, 0
0, 0
0, 0
0, 0
0, 0
0, 0
0, 0
0, 0
0, 0
0, 0
0, 0
0, 0
0, 0
0, 0
0, 0
0, 0
0, 0
0, 0
0, 0
0, 0
0, 0
0, 0
0, 0
0, 0
0, 0
0, 0
0, 0
0, 0
0, 0
0, 0
0, 0
0, 0
0, 0
0, 0
0, 0
0, 0
0, 0
0, 0
0, 0
0, 0
0, 0
0, 0
0, 0
0, 0
0, 0
0, 0
0, 0
0, 0
0, 0
0, 0
0, 0
0, 0
0, 0
0, 0
0, 0
0, 0
0, 0
0, 0
0, 0
0, 0
0, 0
0, 0
0, 0
0, 0
0, 0
0, 0
0, 0
0, 0
0, 0
0, 0
0, 0
0, 0
0, 0
0, 0
0, 0
0, 0
0, 0
0, 0
0, 0
0, 0
0, 0
0, 0
0, 0
0, 0
0, 0
0, 0
0, 0
0, 0
0, 0
0, 0
0, 0
0, 0
0, 0
0, 0
0, 0
0, 0
0, 0
0, 0
0, 0
0, 0
0, 0
0, 0
0, 0
0, 0
0, 0
0, 0
0, 0
0, 0
0, 0
0, 0
0, 0
0, 0
0, 0
0, 0
0, 0
0, 0
0, 0
0, 0
0, 0
0, 0
0, 0
0, 0
0, 0
0, 0
0, 0
0, 0
0, 0
0, 0
0, 0
0, 0
0, 0
0, 0
0, 0
0, 0
0, 0
0, 0
0, 0
0, 0
0, 0
0, 0
0, 0
0, 0
0, 0
0, 0
0, 0
0, 0
0, 0
0, 0
0, 0
0, 0
0, 0
0, 0
0, 0
0, 0
0, 0
0, 0
0, 0
0, 0
0, 0
0, 0
0, 0
0, 0
0, 0
0, 0
0, 0
0, 0
0, 0
0, 0
0, 0
0, 0
0, 0
0, 0
0, 0
0, 0
0, 0
0, 0
0, 0
0, 0
0, 0
0, 0
0, 0
0, 0
0, 0
0, 0
0, 0
0, 0
0, 0
0, 0
0, 0
0, 0
0, 0
0, 0
0, 0
0, 0
0, 0
0, 0
0, 0
0, 0
0, 0
0, 0
0, 0
0, 0
0, 0
0, 0
0, 0
0, 0
0, 0
0, 0
0, 0
0, 0
0, 0
0, 0
0, 0
0, 0
0, 0
0, 0
0, 0
0, 0
0, 0
0, 0
0, 0
0, 0
0, 0
0, 0
0, 0
0, 0
0, 0
0, 0
0, 0
0, 0
0, 0
0, 0
0, 0
0, 0
0, 0
0, 0
0, 0
0, 0
0, 0
0, 0
0, 0
0, 0
0, 0
0, 0
0, 0
0, 0
0, 0
0, 0
0, 0
0, 0
0, 0
0, 0
0, 0
0, 0
0, 0
0, 0
0, 0
0, 0
0, 0
0, 0
0, 0
0, 0
0, 0
0, 0
0, 0
0, 0
0, 0
0, 0
0, 0
0, 0
0, 0
#ENDOFDATA     end of spectrum data