File: host_upload/12-01-2023/Dourbes (shot-by-shot)/upload_4/ps__0257_0689790785_000rfs_shot_3160.msa
#FORMAT      : EMSA/MAS spectral data file
#VERSION     : TC202v2.0 PIXL
#TITLE       : N/A
#DATE        :       Date in the format DD-MMM-YYYY, for example 07-JUL-2010
#TIME        :             The time of day at which the spectrum was recorded, in 24-hour format
#OWNER       : PIXL Flight Model       (PIXL will use this to indicate which instrument took the data.)
#NPOINTS     : 4096     Number of data points in the spectrum (This can be zero for configuration only files)
#NCOLUMNS    : 2     Number of data columns in the spectrum (This can be zero for configuration only files)
#XUNITS      : eV
#YUNITS      : COUNTS
#DATATYPE    : YY
#XPERCHAN    : 7.862, 7.881   eV per channel (separate by commas if more than one detector)
#OFFSET      : 18.5, -22.4         eV of first channel  (separate by commas if more than one detector
#SIGNALTYPE  : XRF
#YP_TEMP     : 3.262
#LIVETIME    : 8.98912, 9.00134   seconds (separate by commas if more than one detector)
#REALTIME    : 10, 10.0   seconds (separate by commas if more than one detector)
#SPECTRUM    : start of spectrum data
0, 0
0, 0
0, 0
0, 0
0, 0
0, 0
0, 0
0, 0
0, 0
0, 0
0, 0
0, 0
0, 0
0, 0
0, 0
0, 0
0, 0
0, 0
0, 0
0, 0
0, 0
0, 0
0, 0
0, 0
0, 0
0, 0
0, 0
0, 0
0, 0
0, 0
0, 0
0, 0
0, 1
0, 0
0, 0
1, 2
0, 0
0, 0
1, 1
1, 0
0, 1
2, 2
1, 1
2, 2
0, 1
0, 0
4, 0
5, 1
2, 2
6, 2
20, 11
31, 21
36, 40
65, 40
56, 36
63, 45
39, 36
28, 23
18, 11
9, 7
3, 3
0, 1
3, 1
5, 5
4, 3
2, 1
5, 4
5, 6
13, 14
46, 33
84, 70
165, 168
295, 246
436, 365
517, 493
510, 483
454, 383
349, 309
211, 156
105, 101
72, 40
27, 15
11, 12
4, 4
3, 2
2, 3
2, 3
1, 1
1, 2
1, 0
3, 0
2, 1
0, 2
0, 3
0, 3
1, 3
3, 1
2, 5
5, 3
4, 4
7, 3
7, 6
2, 4
2, 3
4, 7
2, 1
6, 4
3, 8
9, 13
20, 15
29, 28
28, 33
40, 36
41, 48
49, 40
34, 40
44, 38
35, 32
31, 21
17, 16
23, 19
18, 26
12, 20
27, 28
22, 22
12, 25
14, 27
8, 9
12, 7
12, 8
8, 7
6, 2
2, 1
6, 2
1, 3
7, 0
1, 2
5, 1
1, 1
5, 3
2, 1
0, 6
0, 2
1, 1
2, 5
2, 4
7, 4
4, 4
8, 6
4, 3
18, 3
16, 4
15, 6
12, 12
23, 10
24, 15
22, 21
20, 20
31, 24
21, 21
22, 11
11, 10
5, 0
3, 0
5, 3
1, 1
2, 2
2, 1
11, 5
5, 3
9, 3
3, 7
6, 6
7, 10
2, 7
4, 4
7, 5
4, 5
3, 2
2, 6
4, 4
8, 5
4, 2
3, 3
5, 7
5, 14
5, 16
6, 26
5, 38
11, 52
10, 73
9, 61
16, 66
13, 54
14, 50
28, 34
16, 35
29, 32
31, 26
19, 23
14, 18
13, 10
13, 7
6, 9
7, 4
9, 9
5, 6
5, 8
5, 8
9, 4
7, 6
6, 11
9, 9
7, 14
8, 16
14, 15
4, 12
8, 12
7, 16
5, 4
7, 9
5, 7
4, 6
11, 13
13, 4
13, 9
14, 6
14, 12
19, 10
15, 13
12, 11
5, 10
10, 5
12, 12
14, 8
10, 4
10, 7
10, 8
8, 8
11, 9
13, 6
10, 11
9, 13
5, 16
17, 19
29, 39
39, 32
55, 55
72, 73
89, 99
97, 98
114, 98
112, 96
93, 73
47, 47
59, 42
39, 26
18, 28
18, 35
20, 30
23, 39
33, 43
53, 75
91, 118
187, 210
338, 442
673, 796
1232, 1305
1796, 2085
2608, 2681
3364, 3356
3987, 3724
4116, 3860
3949, 3474
3410, 2821
2575, 2133
1848, 1373
1178, 857
666, 474
361, 243
169, 100
81, 74
47, 38
20, 30
27, 36
25, 28
25, 30
14, 28
26, 35
28, 34
30, 31
46, 46
52, 66
102, 100
151, 180
226, 249
296, 357
404, 444
525, 517
555, 527
505, 529
528, 501
482, 347
325, 262
245, 189
150, 116
83, 74
48, 34
20, 20
20, 8
10, 4
6, 3
7, 7
2, 1
5, 6
6, 10
10, 4
10, 5
7, 6
3, 4
6, 10
10, 5
3, 3
6, 5
4, 6
5, 3
4, 4
6, 6
7, 12
6, 14
5, 9
7, 14
6, 15
6, 19
8, 20
9, 13
10, 10
9, 7
5, 11
6, 1
11, 4
8, 3
3, 3
3, 2
10, 4
2, 3
5, 5
7, 3
3, 1
8, 3
1, 1
1, 3
6, 3
4, 2
6, 2
2, 3
2, 3
4, 5
1, 2
2, 2
2, 2
7, 7
5, 6
1, 1
4, 5
5, 2
2, 5
3, 2
2, 1
5, 2
2, 3
1, 3
2, 3
1, 2
4, 2
6, 3
1, 1
4, 6
1, 3
4, 3
4, 3
5, 1
6, 2
1, 5
2, 2
7, 1
5, 4
3, 4
5, 2
4, 3
4, 2
0, 1
1, 0
2, 3
3, 3
3, 5
6, 6
5, 3
4, 5
2, 8
3, 8
3, 10
3, 14
0, 10
4, 11
4, 8
4, 5
8, 9
9, 9
8, 8
5, 5
3, 5
5, 0
6, 1
8, 5
8, 0
5, 1
3, 6
3, 3
3, 0
2, 1
4, 3
1, 3
4, 0
2, 2
2, 2
4, 3
2, 6
2, 6
3, 4
0, 1
4, 4
4, 3
1, 3
1, 0
2, 2
1, 4
1, 3
2, 1
1, 2
3, 3
1, 1
2, 1
1, 1
2, 0
0, 4
1, 5
0, 3
1, 0
2, 4
4, 3
0, 4
2, 3
2, 5
4, 5
4, 3
3, 1
2, 4
4, 3
6, 2
2, 2
4, 2
5, 0
13, 1
13, 0
3, 1
10, 1
4, 2
6, 2
6, 1
3, 3
2, 1
2, 2
3, 2
1, 2
5, 1
3, 1
4, 0
0, 0
5, 4
1, 4
1, 3
0, 2
2, 1
2, 0
3, 1
2, 1
1, 1
2, 3
2, 1
2, 2
2, 2
1, 1
1, 1
5, 1
1, 1
0, 0
2, 0
1, 2
0, 0
1, 2
0, 3
0, 2
1, 1
2, 0
2, 1
1, 3
1, 2
1, 1
0, 1
2, 2
2, 2
2, 1
4, 2
1, 4
3, 2
0, 3
1, 2
2, 5
0, 1
4, 4
3, 4
3, 2
4, 1
2, 5
3, 6
2, 2
2, 3
5, 2
0, 5
1, 1
2, 1
1, 3
3, 3
4, 2
1, 2
8, 2
2, 3
7, 5
6, 4
4, 3
11, 1
8, 8
9, 7
6, 6
4, 1
5, 5
5, 3
2, 6
4, 0
0, 0
1, 3
1, 0
1, 0
2, 1
0, 1
1, 0
1, 3
0, 0
1, 0
0, 2
1, 0
3, 1
2, 0
4, 1
1, 2
0, 3
0, 2
0, 3
5, 0
3, 1
3, 0
1, 0
2, 2
0, 0
2, 0
3, 1
0, 2
0, 2
2, 1
2, 0
0, 0
0, 1
0, 2
1, 1
0, 1
0, 0
2, 1
0, 1
0, 0
1, 3
2, 1
1, 0
1, 1
2, 4
1, 0
0, 1
0, 0
1, 3
1, 1
0, 1
1, 1
4, 0
1, 0
0, 0
0, 1
1, 0
2, 0
1, 0
0, 1
1, 0
1, 1
1, 1
0, 1
0, 1
4, 1
1, 0
2, 0
2, 2
2, 1
0, 0
1, 1
0, 0
1, 1
1, 1
0, 2
0, 2
0, 0
1, 0
0, 1
1, 1
1, 0
0, 0
1, 0
0, 1
0, 0
1, 0
1, 3
0, 1
0, 2
0, 1
1, 0
0, 1
1, 1
0, 1
1, 0
0, 0
2, 0
0, 0
0, 0
0, 1
1, 0
1, 0
2, 0
2, 0
0, 0
1, 0
0, 0
0, 2
0, 0
0, 0
0, 0
1, 2
0, 2
0, 0
0, 0
0, 0
3, 0
0, 1
0, 0
0, 0
1, 0
1, 1
0, 1
1, 0
0, 2
0, 0
0, 0
0, 0
1, 1
0, 0
1, 0
1, 1
0, 0
1, 0
1, 0
0, 0
0, 0
1, 0
0, 0
0, 0
1, 1
0, 0
1, 1
1, 0
1, 1
0, 0
0, 1
0, 0
0, 1
0, 1
0, 3
0, 0
1, 0
0, 0
0, 0
0, 0
0, 0
0, 0
1, 0
0, 0
0, 0
0, 0
0, 1
0, 0
1, 1
0, 1
0, 0
1, 0
1, 0
0, 1
0, 1
1, 0
1, 0
0, 3
0, 0
0, 0
1, 0
0, 0
0, 1
0, 0
0, 1
1, 0
0, 0
1, 0
1, 0
0, 0
0, 0
0, 0
0, 1
1, 1
0, 0
1, 0
0, 0
0, 0
0, 0
1, 2
0, 0
0, 0
0, 0
0, 0
0, 1
0, 0
0, 0
0, 0
0, 0
0, 0
1, 0
0, 0
0, 0
0, 0
0, 0
0, 0
0, 0
0, 0
0, 0
0, 1
0, 1
0, 1
1, 0
0, 0
1, 0
0, 0
0, 0
0, 0
0, 0
0, 0
1, 0
0, 0
2, 0
0, 0
0, 0
1, 1
0, 0
0, 0
1, 0
1, 0
1, 0
0, 0
0, 0
0, 0
0, 1
0, 0
0, 1
1, 0
0, 0
0, 1
0, 0
0, 0
0, 0
0, 0
0, 1
0, 0
0, 0
0, 0
0, 0
0, 1
0, 0
0, 0
0, 0
0, 1
0, 0
0, 0
0, 0
0, 0
1, 0
0, 0
0, 0
0, 0
0, 0
0, 0
0, 0
0, 0
0, 0
0, 0
0, 0
0, 1
0, 0
0, 0
0, 0
0, 0
0, 0
0, 0
0, 0
0, 0
0, 0
0, 0
1, 0
0, 0
0, 0
0, 0
0, 0
0, 0
0, 0
0, 0
0, 0
0, 0
0, 0
0, 0
0, 0
0, 0
0, 0
0, 0
0, 0
1, 1
0, 0
1, 0
0, 0
0, 0
0, 0
0, 1
0, 0
0, 0
0, 0
0, 0
0, 1
0, 1
0, 0
0, 0
0, 0
0, 0
0, 0
0, 0
0, 0
0, 0
1, 0
0, 0
0, 0
0, 0
0, 0
0, 0
0, 0
0, 0
0, 1
0, 0
0, 0
0, 0
0, 1
0, 0
1, 0
0, 0
0, 0
0, 0
0, 0
0, 0
0, 0
0, 1
0, 0
0, 0
0, 0
0, 0
0, 0
0, 0
0, 0
0, 0
0, 0
0, 0
0, 0
0, 0
0, 0
0, 0
0, 0
0, 0
0, 0
0, 0
0, 0
0, 0
0, 0
0, 0
0, 0
0, 0
0, 0
0, 0
0, 0
0, 0
0, 0
0, 0
0, 0
0, 0
0, 0
0, 0
0, 0
0, 0
0, 0
0, 0
0, 0
0, 0
0, 0
0, 0
0, 0
0, 0
0, 0
0, 0
0, 0
0, 0
0, 0
0, 0
0, 0
0, 0
0, 0
0, 0
0, 0
0, 0
0, 0
0, 0
0, 0
0, 0
0, 0
0, 0
0, 0
0, 0
0, 0
0, 0
0, 0
0, 0
0, 0
0, 0
0, 0
0, 0
0, 0
0, 0
0, 0
0, 0
0, 0
0, 0
0, 0
0, 0
0, 0
0, 0
0, 0
0, 0
0, 0
0, 0
0, 0
0, 0
0, 0
0, 0
0, 0
0, 0
0, 0
0, 0
0, 0
0, 0
0, 0
0, 0
0, 0
0, 0
0, 0
0, 1
0, 0
0, 0
0, 0
0, 0
0, 0
0, 0
0, 0
0, 0
0, 0
0, 0
0, 0
0, 0
0, 0
0, 0
0, 0
0, 0
0, 0
0, 0
0, 0
0, 0
0, 0
0, 0
0, 0
0, 0
0, 0
0, 0
0, 0
0, 0
0, 0
0, 0
0, 0
0, 0
0, 0
0, 0
0, 0
0, 0
0, 0
0, 0
0, 0
0, 0
0, 0
0, 0
0, 0
0, 0
0, 0
0, 0
0, 0
0, 0
0, 0
0, 0
0, 0
0, 0
0, 0
0, 0
0, 0
0, 0
0, 0
0, 0
0, 0
0, 0
0, 0
0, 0
0, 0
0, 0
0, 0
0, 0
0, 0
0, 0
0, 0
0, 0
0, 0
0, 0
0, 0
0, 0
0, 0
0, 0
0, 0
0, 0
0, 0
0, 0
1, 0
0, 0
0, 0
0, 0
0, 0
0, 0
0, 0
0, 0
0, 0
0, 0
0, 0
0, 0
0, 0
0, 0
0, 0
0, 0
0, 0
0, 0
0, 0
0, 0
0, 0
0, 0
0, 0
0, 0
0, 0
0, 0
0, 0
0, 0
0, 0
0, 0
0, 0
0, 0
0, 0
0, 0
0, 0
0, 0
0, 0
0, 0
0, 0
0, 0
0, 0
0, 0
0, 0
0, 0
0, 0
0, 0
0, 0
0, 0
0, 0
0, 0
0, 0
0, 0
0, 0
0, 0
0, 0
0, 0
0, 0
0, 0
0, 0
0, 0
0, 0
0, 0
0, 0
0, 0
0, 0
0, 0
0, 0
0, 0
0, 0
0, 0
0, 0
0, 0
0, 0
0, 0
0, 0
0, 0
0, 0
0, 0
0, 0
0, 0
0, 0
0, 0
0, 0
0, 0
0, 0
0, 0
0, 0
0, 0
0, 0
0, 0
0, 0
0, 0
0, 0
0, 0
0, 0
0, 0
0, 0
0, 0
0, 0
0, 0
0, 0
0, 0
0, 0
0, 0
0, 0
0, 0
0, 0
0, 0
0, 0
0, 0
0, 0
0, 0
0, 0
0, 0
0, 0
0, 0
0, 0
0, 0
0, 0
0, 0
0, 0
0, 0
0, 0
0, 0
0, 0
0, 0
0, 0
0, 0
0, 0
0, 0
0, 0
0, 0
0, 0
0, 0
0, 0
0, 0
0, 0
0, 0
0, 0
0, 0
0, 0
0, 0
0, 0
0, 0
0, 0
0, 0
0, 0
0, 0
0, 0
0, 0
0, 0
0, 0
0, 0
0, 0
0, 0
0, 0
0, 0
0, 0
0, 0
0, 0
0, 0
0, 0
0, 0
0, 0
0, 0
0, 0
0, 0
0, 0
0, 0
0, 0
0, 0
0, 0
0, 0
0, 0
0, 0
0, 0
0, 0
0, 0
0, 0
0, 0
0, 0
0, 0
0, 0
0, 0
0, 0
0, 0
0, 0
0, 0
0, 0
0, 0
0, 0
0, 0
0, 0
0, 0
0, 0
0, 0
0, 0
0, 0
0, 0
0, 0
0, 0
0, 0
0, 0
0, 0
0, 0
0, 0
0, 0
0, 0
0, 0
0, 0
0, 0
0, 0
0, 0
0, 0
0, 0
0, 0
0, 0
0, 0
0, 0
0, 0
0, 0
0, 0
0, 0
0, 0
0, 0
0, 0
0, 0
0, 0
0, 0
0, 0
0, 0
0, 0
0, 0
0, 0
0, 0
0, 0
0, 0
0, 0
0, 0
0, 0
0, 0
0, 0
0, 0
0, 0
0, 0
0, 0
0, 0
0, 0
0, 0
0, 0
0, 0
0, 0
0, 0
0, 0
0, 0
0, 0
0, 0
0, 0
0, 0
0, 0
0, 0
0, 0
0, 0
0, 0
0, 0
0, 0
0, 0
0, 0
0, 0
0, 0
0, 0
0, 0
0, 0
0, 0
0, 0
0, 0
0, 0
0, 0
0, 0
0, 0
0, 0
0, 0
0, 0
0, 0
0, 0
0, 0
0, 0
#ENDOFDATA     end of spectrum data