File: host_upload/12-01-2023/Dourbes (shot-by-shot)/upload_4/ps__0257_0689790785_000rfs_shot_3172.msa
#FORMAT      : EMSA/MAS spectral data file
#VERSION     : TC202v2.0 PIXL
#TITLE       : N/A
#DATE        :       Date in the format DD-MMM-YYYY, for example 07-JUL-2010
#TIME        :             The time of day at which the spectrum was recorded, in 24-hour format
#OWNER       : PIXL Flight Model       (PIXL will use this to indicate which instrument took the data.)
#NPOINTS     : 4096     Number of data points in the spectrum (This can be zero for configuration only files)
#NCOLUMNS    : 2     Number of data columns in the spectrum (This can be zero for configuration only files)
#XUNITS      : eV
#YUNITS      : COUNTS
#DATATYPE    : YY
#XPERCHAN    : 7.862, 7.881   eV per channel (separate by commas if more than one detector)
#OFFSET      : 18.5, -22.4         eV of first channel  (separate by commas if more than one detector
#SIGNALTYPE  : XRF
#YP_TEMP     : 3.069
#LIVETIME    : 8.98312, 8.99251   seconds (separate by commas if more than one detector)
#REALTIME    : 10, 10.0   seconds (separate by commas if more than one detector)
#SPECTRUM    : start of spectrum data
0, 0
0, 0
0, 0
0, 0
0, 0
0, 0
0, 0
0, 0
0, 0
0, 0
0, 0
0, 0
0, 0
0, 0
0, 0
0, 0
0, 0
0, 0
0, 0
0, 0
0, 0
0, 0
0, 0
0, 0
0, 0
0, 0
0, 0
0, 0
0, 0
0, 0
0, 0
0, 0
0, 0
0, 1
0, 0
0, 0
1, 0
1, 0
1, 1
0, 0
2, 1
0, 1
0, 2
0, 0
1, 0
2, 2
0, 1
1, 1
0, 3
10, 5
13, 13
27, 26
35, 42
44, 53
73, 57
53, 47
50, 44
36, 31
12, 13
6, 10
1, 2
4, 3
2, 1
3, 3
6, 7
5, 4
9, 4
4, 5
14, 14
31, 32
63, 87
151, 163
268, 260
393, 418
443, 531
501, 470
424, 421
311, 308
180, 202
121, 92
39, 63
30, 27
12, 11
6, 1
2, 8
3, 8
4, 5
3, 5
3, 1
5, 2
6, 3
2, 3
4, 4
4, 3
3, 1
4, 5
4, 4
5, 5
10, 6
4, 4
6, 5
6, 6
2, 3
4, 1
7, 3
3, 4
7, 7
6, 9
11, 8
15, 24
18, 32
37, 32
34, 43
42, 47
49, 38
39, 32
33, 29
31, 30
23, 20
28, 25
25, 27
23, 17
21, 20
20, 16
12, 13
13, 10
12, 10
4, 10
9, 3
8, 6
8, 6
4, 1
3, 2
3, 2
2, 2
2, 2
2, 6
1, 4
3, 1
4, 1
2, 1
1, 3
0, 3
4, 1
0, 3
3, 3
4, 2
1, 2
4, 2
2, 4
4, 3
1, 11
6, 2
14, 11
15, 16
16, 14
19, 23
27, 18
19, 19
26, 15
16, 23
13, 17
14, 9
16, 16
30, 11
57, 13
84, 18
138, 17
196, 11
192, 14
208, 13
185, 10
155, 9
109, 5
74, 7
46, 4
23, 4
17, 2
7, 2
6, 8
2, 3
1, 3
1, 5
3, 1
5, 2
4, 3
5, 3
5, 5
3, 8
8, 14
10, 11
13, 14
7, 10
17, 13
11, 16
12, 25
12, 18
14, 22
18, 17
17, 22
20, 9
9, 16
8, 10
7, 2
3, 5
9, 15
9, 10
4, 13
4, 14
2, 13
5, 20
4, 27
2, 25
6, 17
3, 14
10, 14
4, 16
4, 9
6, 10
6, 5
10, 8
7, 1
7, 8
10, 10
11, 3
12, 9
12, 3
7, 7
3, 8
8, 12
6, 5
13, 9
14, 14
12, 9
18, 6
16, 9
22, 7
17, 8
18, 6
12, 8
14, 5
21, 15
11, 8
15, 11
21, 22
25, 20
31, 44
57, 53
64, 75
96, 96
80, 89
110, 109
89, 85
64, 68
58, 50
41, 41
28, 24
19, 23
22, 19
20, 20
19, 29
40, 36
45, 59
98, 108
170, 233
365, 455
692, 819
1095, 1393
1774, 2075
2522, 2882
3158, 3502
3782, 3926
3831, 4096
3685, 3631
3199, 2952
2428, 2251
1640, 1483
1153, 863
628, 527
359, 253
164, 112
87, 53
43, 38
28, 16
15, 13
9, 14
10, 20
19, 13
23, 19
22, 32
32, 49
35, 54
69, 75
91, 126
138, 199
207, 264
310, 380
382, 453
470, 566
574, 561
541, 546
506, 534
426, 379
321, 290
228, 208
161, 115
98, 75
55, 33
30, 32
13, 11
8, 5
3, 7
3, 7
5, 4
7, 4
6, 7
6, 10
5, 10
2, 7
10, 11
5, 8
1, 10
3, 5
6, 4
3, 5
5, 3
3, 3
0, 4
6, 6
3, 7
4, 8
1, 8
3, 6
9, 4
7, 6
10, 4
17, 5
13, 3
12, 1
18, 5
16, 3
14, 2
12, 8
8, 6
7, 4
8, 5
4, 2
1, 2
2, 6
5, 3
3, 1
3, 9
2, 4
2, 7
3, 4
1, 5
8, 9
0, 10
1, 8
3, 10
0, 5
5, 3
2, 5
1, 4
0, 8
1, 2
1, 3
4, 2
6, 3
0, 5
1, 2
3, 7
4, 5
2, 3
2, 5
3, 3
2, 7
1, 7
2, 4
3, 4
0, 6
2, 5
0, 7
2, 6
3, 0
3, 5
6, 4
2, 2
3, 3
2, 2
4, 1
3, 2
0, 1
2, 3
4, 3
1, 4
2, 2
0, 2
2, 3
5, 5
6, 4
1, 3
3, 4
5, 2
4, 3
7, 2
7, 2
12, 1
4, 4
3, 6
7, 3
3, 7
7, 4
1, 2
3, 3
4, 0
1, 2
6, 4
0, 2
3, 1
3, 4
6, 3
1, 2
2, 5
0, 2
1, 3
3, 1
1, 1
0, 2
3, 2
6, 2
4, 0
4, 5
1, 4
6, 4
4, 4
5, 1
7, 1
3, 1
7, 4
6, 5
13, 3
1, 2
3, 3
1, 4
0, 3
2, 4
2, 2
0, 2
1, 1
0, 2
2, 3
5, 1
4, 1
3, 1
0, 4
1, 2
1, 2
3, 4
1, 3
0, 3
0, 10
0, 7
3, 6
2, 4
1, 2
6, 2
2, 6
2, 0
1, 4
2, 0
4, 2
1, 0
4, 2
2, 1
1, 0
2, 0
4, 4
1, 4
1, 1
1, 7
1, 1
2, 2
1, 5
2, 3
1, 3
0, 3
0, 3
2, 3
0, 2
3, 0
2, 3
1, 4
0, 5
4, 0
1, 2
2, 1
4, 1
2, 2
0, 1
0, 2
1, 0
4, 2
5, 1
2, 0
3, 0
4, 2
3, 1
4, 1
2, 3
5, 1
3, 3
2, 1
1, 1
0, 1
0, 2
5, 1
0, 1
2, 0
2, 2
2, 0
0, 0
1, 0
2, 1
1, 1
0, 1
1, 1
2, 3
1, 1
1, 1
0, 2
3, 3
1, 1
0, 3
3, 2
4, 2
4, 3
6, 6
6, 8
5, 6
5, 4
10, 7
9, 15
4, 10
6, 9
4, 8
4, 6
1, 4
3, 1
3, 3
2, 4
3, 1
1, 2
0, 3
2, 2
1, 3
1, 0
0, 2
0, 2
1, 4
0, 1
2, 2
2, 4
1, 1
1, 3
0, 2
3, 1
3, 5
2, 1
2, 4
4, 2
2, 5
6, 2
0, 0
2, 1
0, 0
1, 2
2, 1
4, 1
0, 0
1, 1
0, 2
0, 0
3, 1
2, 2
1, 2
1, 0
2, 0
0, 3
1, 0
0, 1
2, 3
0, 1
1, 0
2, 0
0, 2
3, 1
2, 4
2, 3
1, 4
2, 0
1, 1
0, 1
0, 0
2, 1
3, 1
2, 3
0, 1
0, 0
3, 0
3, 1
1, 1
1, 0
3, 0
0, 0
2, 1
1, 1
1, 0
1, 5
2, 0
2, 1
0, 1
0, 0
0, 0
0, 2
1, 1
0, 0
0, 0
0, 3
0, 1
1, 0
1, 2
0, 2
0, 1
1, 1
1, 0
0, 2
0, 1
1, 1
1, 0
1, 0
1, 0
0, 0
1, 1
1, 2
1, 1
0, 1
0, 0
0, 0
0, 0
1, 2
1, 1
1, 0
1, 0
0, 0
0, 0
0, 0
0, 1
3, 0
0, 0
0, 0
1, 1
1, 0
1, 1
1, 0
3, 1
1, 0
0, 1
0, 0
1, 0
0, 0
0, 1
0, 0
1, 0
0, 1
0, 0
0, 0
0, 0
0, 0
0, 0
0, 1
0, 2
0, 1
0, 0
0, 0
0, 0
0, 0
0, 0
0, 1
1, 0
0, 1
1, 0
0, 2
0, 2
0, 0
0, 0
1, 1
1, 0
0, 1
0, 0
0, 0
0, 0
0, 0
0, 0
0, 1
0, 1
1, 0
0, 0
0, 0
0, 0
0, 1
0, 0
0, 0
1, 0
0, 0
1, 0
0, 0
2, 0
0, 0
0, 0
0, 0
0, 1
0, 2
0, 1
1, 0
0, 1
0, 0
1, 0
1, 1
0, 0
0, 0
0, 0
0, 0
0, 0
1, 0
0, 0
1, 1
0, 0
0, 1
1, 0
0, 1
0, 0
1, 0
0, 0
0, 0
0, 0
0, 0
0, 0
0, 0
1, 0
0, 0
0, 0
0, 1
0, 0
0, 0
0, 0
0, 0
0, 0
0, 0
0, 1
0, 0
0, 0
0, 0
0, 1
0, 0
0, 0
0, 1
0, 0
1, 0
0, 0
0, 0
0, 0
0, 2
0, 1
0, 0
0, 0
0, 0
0, 1
1, 0
0, 0
0, 1
0, 0
0, 1
0, 0
1, 0
0, 1
0, 0
0, 0
0, 0
0, 0
0, 0
0, 0
0, 1
0, 0
0, 0
0, 0
0, 0
1, 0
0, 0
0, 0
0, 0
1, 0
0, 1
0, 0
0, 0
1, 0
0, 1
0, 0
0, 0
0, 0
1, 0
0, 0
0, 0
0, 0
0, 1
0, 0
0, 0
1, 0
0, 1
0, 1
0, 0
1, 0
0, 0
0, 1
0, 0
0, 0
0, 0
0, 0
0, 0
0, 0
0, 0
0, 0
0, 0
0, 0
0, 0
0, 0
0, 0
0, 1
0, 0
0, 0
0, 0
0, 0
1, 0
0, 0
0, 1
0, 1
0, 0
0, 0
0, 0
0, 0
0, 0
0, 0
0, 0
0, 0
0, 0
0, 0
0, 0
0, 0
0, 0
0, 0
0, 0
0, 0
0, 0
0, 0
0, 0
0, 0
1, 0
0, 0
0, 0
0, 0
0, 1
0, 0
0, 0
0, 0
0, 0
0, 0
0, 0
0, 0
2, 1
1, 0
0, 0
0, 0
0, 0
1, 0
0, 0
0, 0
0, 0
0, 0
0, 0
0, 0
0, 0
0, 0
0, 0
0, 0
0, 0
0, 0
0, 0
0, 0
0, 0
1, 0
0, 1
0, 0
0, 0
0, 0
0, 0
0, 0
0, 1
0, 0
0, 0
0, 0
0, 0
0, 0
0, 1
0, 0
0, 0
0, 0
0, 0
0, 0
0, 0
0, 0
0, 0
0, 0
0, 0
0, 0
0, 0
0, 0
0, 0
0, 0
0, 0
0, 0
0, 0
0, 0
1, 0
0, 0
0, 0
0, 0
0, 0
0, 0
0, 0
0, 0
0, 0
0, 0
1, 0
0, 0
0, 0
0, 0
0, 0
0, 0
0, 0
0, 0
0, 0
0, 0
0, 0
0, 0
0, 0
0, 0
0, 0
0, 0
0, 0
0, 0
0, 0
0, 0
0, 0
0, 0
0, 0
0, 0
0, 0
0, 0
0, 0
0, 0
0, 0
0, 0
0, 0
0, 0
0, 1
0, 0
0, 0
0, 0
0, 0
0, 0
0, 0
0, 0
0, 0
0, 0
0, 0
0, 0
0, 0
0, 0
0, 0
0, 0
0, 0
0, 0
0, 0
0, 0
0, 0
0, 0
0, 0
0, 0
0, 0
0, 0
0, 0
0, 0
0, 0
0, 0
0, 0
0, 0
0, 0
0, 0
0, 0
1, 0
0, 0
0, 0
0, 0
0, 0
0, 0
0, 0
0, 0
0, 0
0, 0
0, 0
0, 0
0, 0
0, 0
0, 0
0, 0
0, 0
0, 0
0, 0
0, 0
0, 0
0, 0
0, 0
0, 0
0, 0
0, 0
0, 0
0, 0
0, 0
0, 0
0, 0
0, 0
0, 0
0, 0
0, 0
0, 0
0, 0
0, 0
0, 0
0, 0
0, 0
0, 0
0, 0
0, 0
0, 0
0, 0
0, 0
0, 0
0, 0
0, 0
0, 0
0, 0
0, 0
0, 0
0, 0
0, 0
0, 0
0, 0
0, 0
0, 0
0, 0
0, 0
0, 0
0, 0
0, 0
0, 0
0, 0
0, 0
0, 0
0, 0
0, 0
0, 0
0, 0
0, 0
0, 0
0, 0
0, 0
0, 0
0, 0
0, 0
0, 0
0, 0
0, 0
0, 0
0, 0
0, 0
0, 0
0, 0
0, 0
0, 0
0, 0
0, 0
0, 0
0, 0
0, 0
0, 0
0, 0
0, 0
0, 0
0, 0
0, 0
0, 0
0, 0
0, 0
0, 0
0, 0
0, 0
0, 0
0, 0
0, 0
0, 0
0, 0
0, 0
0, 0
0, 0
0, 0
0, 0
0, 0
0, 0
0, 0
0, 0
0, 0
0, 0
0, 0
0, 0
0, 0
0, 0
0, 0
0, 0
0, 0
0, 0
0, 0
0, 0
0, 0
0, 0
0, 0
0, 0
0, 0
0, 0
0, 0
0, 0
0, 0
0, 0
0, 0
0, 0
0, 0
0, 0
0, 0
0, 0
0, 0
0, 0
0, 0
0, 0
0, 0
0, 0
0, 0
0, 0
0, 0
0, 0
0, 0
0, 0
0, 0
0, 0
0, 0
0, 0
0, 0
0, 0
0, 0
0, 0
0, 0
0, 0
0, 0
0, 0
0, 0
0, 0
0, 0
0, 0
0, 0
0, 0
0, 0
0, 0
0, 0
0, 0
0, 0
0, 0
0, 0
0, 0
0, 0
0, 0
0, 0
0, 0
0, 0
0, 0
0, 0
0, 0
0, 0
0, 0
0, 0
0, 0
0, 0
0, 0
0, 0
0, 0
0, 0
0, 0
0, 0
0, 0
0, 0
0, 0
0, 0
0, 0
0, 0
0, 0
0, 0
0, 0
0, 0
0, 0
0, 0
0, 0
0, 0
0, 0
0, 0
0, 0
0, 0
0, 0
0, 0
0, 0
0, 0
0, 0
0, 0
0, 0
0, 0
0, 0
0, 0
0, 0
0, 0
0, 0
0, 0
0, 0
0, 0
0, 0
0, 0
0, 0
0, 0
0, 0
0, 0
0, 0
0, 0
0, 0
0, 0
0, 0
0, 0
0, 0
0, 0
0, 0
0, 0
0, 0
0, 0
0, 0
0, 0
0, 0
0, 0
0, 0
0, 0
0, 0
0, 0
0, 0
0, 0
0, 0
0, 0
0, 0
0, 0
0, 0
0, 0
0, 0
0, 0
0, 0
0, 0
0, 0
0, 0
0, 0
0, 0
0, 0
0, 0
0, 0
0, 0
0, 0
0, 0
0, 0
0, 0
0, 0
0, 0
0, 0
0, 0
0, 0
0, 0
0, 0
0, 0
0, 0
0, 0
0, 0
0, 0
0, 0
0, 0
0, 0
0, 0
0, 0
0, 0
0, 0
0, 0
0, 0
0, 0
0, 0
0, 0
0, 0
0, 0
0, 0
0, 0
0, 0
0, 0
0, 0
0, 0
0, 0
0, 0
0, 0
0, 0
0, 0
0, 0
0, 0
0, 0
0, 0
0, 0
0, 0
0, 0
0, 0
0, 0
0, 0
0, 0
0, 0
0, 0
0, 0
0, 0
0, 0
0, 0
0, 0
0, 0
0, 0
0, 0
0, 0
0, 0
0, 0
0, 0
0, 0
0, 0
0, 0
0, 0
0, 0
#ENDOFDATA     end of spectrum data