File: host_upload/12-01-2023/Dourbes (shot-by-shot)/upload_4/ps__0257_0689790785_000rfs_shot_3289.msa
#FORMAT      : EMSA/MAS spectral data file
#VERSION     : TC202v2.0 PIXL
#TITLE       : N/A
#DATE        :       Date in the format DD-MMM-YYYY, for example 07-JUL-2010
#TIME        :             The time of day at which the spectrum was recorded, in 24-hour format
#OWNER       : PIXL Flight Model       (PIXL will use this to indicate which instrument took the data.)
#NPOINTS     : 4096     Number of data points in the spectrum (This can be zero for configuration only files)
#NCOLUMNS    : 2     Number of data columns in the spectrum (This can be zero for configuration only files)
#XUNITS      : eV
#YUNITS      : COUNTS
#DATATYPE    : YY
#XPERCHAN    : 7.862, 7.881   eV per channel (separate by commas if more than one detector)
#OFFSET      : 18.5, -22.4         eV of first channel  (separate by commas if more than one detector
#SIGNALTYPE  : XRF
#YP_TEMP     : 3.165
#LIVETIME    : 8.99229, 9.00394   seconds (separate by commas if more than one detector)
#REALTIME    : 10, 10.0   seconds (separate by commas if more than one detector)
#SPECTRUM    : start of spectrum data
0, 0
0, 0
0, 0
0, 0
0, 0
0, 0
0, 0
0, 0
0, 0
0, 0
0, 0
0, 0
0, 0
0, 0
0, 0
0, 0
0, 0
0, 0
0, 0
0, 0
0, 0
0, 0
0, 0
0, 0
0, 0
0, 0
0, 0
0, 0
0, 0
0, 0
0, 0
0, 0
0, 0
0, 2
0, 0
1, 0
1, 1
0, 0
0, 2
1, 1
1, 1
1, 0
4, 0
1, 0
3, 0
1, 4
2, 2
1, 0
6, 6
7, 2
10, 14
29, 17
33, 39
60, 38
63, 56
52, 41
45, 34
21, 26
13, 6
8, 4
6, 4
7, 4
12, 5
9, 6
9, 4
6, 9
8, 17
11, 7
10, 9
32, 35
89, 69
198, 142
310, 233
481, 393
555, 468
586, 512
464, 423
323, 280
211, 163
106, 91
66, 38
35, 30
23, 18
20, 14
19, 7
11, 14
22, 17
17, 24
17, 13
13, 5
7, 6
6, 4
4, 7
4, 4
4, 6
2, 6
4, 6
12, 8
16, 4
11, 7
8, 12
6, 4
9, 2
4, 3
5, 7
10, 6
5, 6
10, 11
17, 14
28, 15
23, 16
30, 32
48, 47
52, 47
59, 57
60, 62
37, 45
42, 41
42, 45
19, 29
31, 22
21, 30
25, 20
21, 25
19, 23
17, 10
15, 14
13, 13
12, 8
9, 7
6, 5
6, 2
4, 2
5, 6
4, 1
4, 3
4, 4
5, 5
5, 1
3, 1
6, 1
4, 7
6, 7
5, 4
4, 1
3, 5
3, 5
6, 7
1, 2
2, 3
6, 6
11, 7
15, 23
24, 37
40, 45
66, 54
79, 63
74, 75
80, 64
52, 53
54, 31
25, 27
18, 19
20, 15
30, 22
36, 27
47, 30
62, 43
85, 31
80, 43
71, 43
94, 22
63, 24
41, 17
26, 12
23, 13
13, 5
7, 4
8, 11
5, 8
8, 12
6, 6
5, 3
5, 13
4, 3
6, 6
10, 6
8, 8
13, 8
5, 17
17, 11
18, 15
18, 19
23, 12
18, 23
18, 16
28, 25
22, 28
23, 24
26, 20
16, 17
15, 11
19, 12
14, 9
13, 8
16, 7
12, 11
13, 5
16, 13
13, 14
12, 18
11, 12
14, 15
8, 24
12, 8
6, 9
10, 5
4, 9
4, 6
6, 10
5, 6
3, 6
5, 9
13, 10
11, 13
13, 10
7, 13
14, 22
27, 19
23, 19
20, 18
21, 25
10, 22
26, 7
24, 12
22, 20
23, 13
12, 15
9, 11
16, 7
12, 12
12, 7
7, 17
18, 16
18, 15
25, 26
40, 44
56, 64
80, 70
88, 91
96, 95
102, 112
86, 76
93, 89
73, 61
45, 28
27, 32
21, 23
22, 25
26, 21
20, 22
30, 37
51, 60
130, 121
193, 200
369, 384
703, 774
1174, 1258
1805, 2010
2674, 2624
3383, 3262
3840, 3670
4213, 3781
3828, 3381
3204, 2725
2583, 2076
1847, 1323
1121, 786
641, 461
331, 217
177, 103
89, 67
50, 27
34, 25
20, 15
16, 10
19, 8
14, 15
16, 21
19, 38
35, 23
35, 51
70, 79
103, 127
154, 184
231, 272
313, 351
425, 432
525, 529
559, 532
577, 504
481, 471
481, 377
323, 281
230, 197
149, 105
93, 73
55, 28
27, 16
13, 7
5, 5
4, 7
1, 3
6, 13
10, 9
4, 12
8, 8
8, 12
6, 11
13, 10
5, 9
4, 4
8, 5
6, 4
6, 2
4, 4
5, 2
2, 6
1, 8
1, 6
6, 9
5, 7
5, 11
3, 12
11, 10
6, 14
5, 7
12, 8
10, 8
8, 9
11, 5
9, 4
2, 3
3, 3
10, 1
7, 2
4, 4
3, 4
3, 8
5, 3
3, 2
6, 0
6, 5
2, 6
4, 1
7, 5
1, 7
3, 9
4, 8
2, 3
2, 4
6, 5
2, 4
3, 9
8, 4
5, 3
7, 2
1, 3
3, 3
1, 3
3, 4
3, 2
3, 3
5, 7
5, 5
5, 10
3, 4
2, 6
0, 8
3, 7
2, 4
4, 4
6, 6
5, 8
3, 5
3, 3
0, 4
4, 3
4, 3
2, 1
0, 1
5, 5
3, 3
4, 4
1, 4
3, 3
2, 1
1, 4
2, 4
2, 6
2, 3
7, 4
8, 5
6, 0
6, 6
5, 6
1, 1
6, 2
9, 2
1, 4
4, 2
2, 2
2, 4
2, 2
3, 3
1, 3
1, 2
2, 1
3, 5
3, 2
4, 7
3, 11
3, 5
4, 6
1, 4
1, 2
0, 4
4, 4
5, 2
0, 2
5, 3
2, 2
4, 4
6, 2
5, 2
10, 3
7, 4
8, 4
4, 6
7, 1
6, 2
7, 0
8, 6
6, 2
10, 2
5, 3
2, 0
4, 1
1, 1
2, 2
2, 4
3, 3
2, 1
2, 3
2, 3
1, 2
1, 5
2, 3
3, 8
1, 4
3, 4
2, 5
2, 9
1, 5
3, 5
3, 6
5, 2
4, 4
1, 1
1, 4
3, 2
6, 5
3, 1
2, 2
1, 0
1, 1
4, 2
4, 1
0, 1
0, 0
1, 3
4, 2
1, 0
1, 3
2, 2
1, 1
2, 5
2, 1
2, 0
2, 2
4, 3
3, 1
2, 1
0, 2
3, 4
5, 4
2, 2
1, 1
7, 1
1, 2
1, 1
3, 1
5, 2
4, 2
3, 1
2, 3
2, 2
6, 2
1, 2
3, 0
1, 0
3, 1
0, 2
2, 1
2, 0
2, 0
5, 1
3, 0
2, 2
0, 2
2, 2
2, 0
1, 3
4, 1
2, 3
3, 1
1, 3
1, 2
2, 1
2, 2
1, 0
0, 2
0, 2
1, 3
2, 1
2, 5
3, 2
1, 3
3, 7
9, 5
10, 6
9, 6
9, 14
3, 3
5, 7
4, 5
7, 2
2, 1
3, 1
2, 5
1, 2
2, 5
3, 3
2, 2
1, 2
0, 1
0, 2
0, 0
0, 3
3, 1
1, 3
2, 4
2, 1
2, 2
0, 0
2, 4
3, 3
5, 2
0, 0
5, 2
2, 3
1, 0
2, 2
3, 0
4, 2
2, 1
3, 0
2, 0
1, 2
1, 0
1, 3
2, 1
0, 0
1, 0
0, 0
1, 2
0, 1
1, 1
2, 1
2, 0
2, 0
0, 3
2, 0
1, 1
1, 1
0, 1
2, 1
1, 1
2, 0
0, 0
2, 2
2, 0
1, 1
4, 1
2, 0
6, 1
3, 1
0, 0
3, 1
1, 0
7, 0
0, 2
1, 0
1, 3
1, 2
2, 1
0, 0
2, 1
2, 3
2, 1
0, 1
1, 2
0, 1
1, 1
1, 0
0, 0
0, 1
1, 0
0, 0
1, 1
0, 0
1, 1
0, 0
1, 0
1, 0
0, 1
2, 0
0, 0
1, 1
1, 0
1, 0
0, 0
0, 0
0, 1
0, 2
1, 0
1, 0
2, 0
0, 2
1, 0
0, 0
0, 0
0, 1
1, 0
1, 0
0, 0
1, 1
1, 0
0, 0
2, 0
1, 0
1, 0
0, 0
0, 1
0, 0
0, 0
0, 0
2, 0
2, 2
0, 1
1, 0
0, 2
1, 0
3, 1
0, 1
1, 1
0, 0
1, 0
0, 0
0, 0
0, 2
1, 0
0, 1
1, 1
0, 1
1, 1
0, 0
0, 0
0, 0
0, 1
0, 0
1, 0
1, 0
0, 0
1, 1
1, 0
0, 0
0, 0
0, 0
0, 0
0, 0
2, 0
0, 0
0, 0
1, 1
0, 0
0, 0
0, 0
0, 1
0, 1
0, 1
1, 0
0, 0
0, 0
0, 0
0, 0
0, 1
0, 1
1, 0
0, 1
0, 0
0, 1
0, 0
1, 0
1, 0
0, 0
0, 0
1, 0
0, 1
0, 0
0, 0
0, 0
0, 2
0, 0
0, 0
0, 1
0, 0
0, 0
0, 0
0, 0
0, 0
0, 1
1, 0
0, 1
0, 0
1, 0
0, 0
0, 0
0, 0
0, 0
0, 0
0, 0
1, 0
0, 0
0, 0
0, 0
0, 0
0, 0
0, 0
0, 0
0, 0
0, 0
0, 0
0, 0
0, 0
0, 1
0, 2
0, 0
1, 0
0, 0
1, 0
1, 0
1, 0
0, 1
0, 0
0, 1
0, 0
0, 0
1, 0
1, 0
0, 0
0, 1
0, 0
0, 0
1, 0
0, 0
1, 0
0, 1
0, 0
0, 0
1, 0
0, 0
0, 0
0, 0
0, 0
0, 0
0, 0
0, 0
0, 1
0, 1
0, 0
2, 0
0, 0
0, 0
0, 0
0, 0
0, 0
0, 0
0, 0
0, 1
0, 0
0, 0
0, 0
0, 0
0, 0
0, 0
0, 0
0, 0
0, 0
0, 0
1, 0
0, 0
0, 0
0, 0
0, 0
0, 0
0, 0
0, 0
0, 0
0, 0
0, 0
0, 1
0, 1
0, 0
0, 0
1, 0
0, 0
0, 1
1, 0
0, 0
0, 0
0, 0
0, 0
0, 0
0, 0
0, 1
0, 0
0, 0
0, 0
0, 1
0, 0
0, 0
0, 0
0, 0
0, 0
0, 0
1, 0
0, 0
1, 0
1, 0
0, 0
0, 0
0, 0
0, 0
0, 0
0, 0
0, 0
0, 0
0, 1
0, 0
0, 0
0, 0
0, 0
0, 0
0, 0
0, 0
0, 0
1, 0
1, 0
0, 1
0, 0
0, 0
0, 1
0, 0
0, 0
0, 0
0, 0
0, 1
0, 0
0, 0
0, 0
0, 0
0, 0
0, 0
0, 0
0, 0
0, 0
0, 0
0, 0
0, 0
0, 0
0, 0
0, 0
0, 0
1, 1
0, 0
0, 0
0, 0
0, 0
0, 0
0, 0
0, 0
0, 0
0, 0
0, 0
0, 0
0, 0
0, 0
0, 0
0, 1
0, 0
0, 0
0, 0
0, 0
0, 0
0, 0
0, 0
0, 0
0, 0
0, 0
1, 0
0, 0
0, 0
0, 0
0, 1
0, 0
0, 0
0, 0
0, 0
0, 0
0, 0
0, 0
0, 0
0, 0
0, 0
0, 0
0, 0
0, 0
0, 0
0, 0
0, 0
0, 0
0, 0
0, 0
0, 0
0, 0
0, 0
0, 0
0, 0
0, 0
0, 0
0, 0
0, 0
0, 0
0, 0
0, 0
0, 0
0, 0
0, 0
0, 0
0, 0
0, 0
0, 0
0, 0
0, 0
0, 0
0, 0
0, 0
0, 0
0, 0
0, 0
0, 0
0, 0
0, 0
0, 0
0, 0
0, 0
0, 0
0, 0
0, 0
0, 0
0, 0
0, 0
0, 0
0, 0
0, 0
0, 0
0, 0
0, 0
0, 0
0, 0
0, 0
0, 0
0, 0
0, 0
0, 0
0, 0
0, 0
0, 0
0, 0
0, 1
0, 0
0, 0
0, 0
0, 0
0, 0
0, 0
0, 0
0, 0
0, 0
0, 0
0, 0
0, 0
0, 0
0, 0
0, 0
0, 0
0, 0
0, 0
0, 0
0, 0
0, 0
0, 0
0, 0
0, 0
0, 0
0, 0
0, 0
0, 0
0, 0
0, 0
0, 0
0, 0
0, 0
0, 0
0, 0
0, 0
0, 0
0, 0
0, 0
0, 0
0, 0
0, 0
0, 0
0, 0
0, 0
0, 0
0, 1
0, 0
0, 0
0, 0
0, 0
0, 0
0, 0
0, 0
0, 0
0, 0
0, 0
0, 0
0, 0
0, 0
0, 0
0, 0
0, 0
0, 0
0, 0
0, 0
0, 0
0, 0
0, 0
0, 0
0, 0
0, 0
0, 0
0, 0
0, 0
0, 0
0, 0
0, 0
0, 0
0, 0
0, 0
0, 0
0, 0
0, 0
0, 0
0, 0
0, 0
0, 0
0, 0
0, 0
0, 0
0, 0
0, 0
0, 0
0, 0
0, 0
0, 0
0, 0
0, 0
0, 0
0, 0
0, 0
0, 0
0, 0
0, 0
0, 0
0, 0
0, 0
0, 0
0, 0
0, 0
0, 0
0, 0
0, 0
0, 0
0, 0
0, 0
0, 0
0, 0
0, 0
0, 0
0, 0
0, 0
0, 0
0, 0
0, 0
0, 0
0, 0
0, 0
0, 0
0, 0
0, 0
0, 0
0, 0
0, 0
0, 0
0, 0
0, 0
0, 0
0, 0
0, 0
0, 0
0, 0
0, 0
0, 0
0, 0
0, 0
0, 0
0, 0
0, 0
0, 0
0, 0
0, 0
0, 0
0, 0
0, 0
0, 0
0, 0
0, 0
0, 0
0, 0
0, 0
0, 0
0, 0
0, 0
0, 0
0, 0
0, 0
0, 0
0, 0
0, 0
0, 0
0, 0
0, 0
0, 0
0, 0
0, 0
0, 0
0, 0
0, 0
0, 0
0, 0
0, 0
0, 0
0, 0
0, 0
0, 0
0, 0
0, 0
0, 0
0, 0
0, 0
0, 0
0, 0
0, 0
0, 0
0, 0
0, 0
0, 0
0, 0
0, 0
0, 0
0, 0
0, 0
0, 0
0, 0
0, 0
0, 0
0, 0
0, 0
0, 0
0, 0
0, 0
0, 0
0, 0
0, 0
0, 0
0, 0
0, 0
0, 0
0, 0
0, 0
0, 0
0, 0
0, 0
0, 0
0, 0
0, 0
0, 0
0, 0
0, 0
0, 0
0, 0
0, 0
0, 0
0, 0
0, 0
0, 0
0, 0
0, 0
0, 0
0, 0
0, 0
0, 0
0, 0
0, 0
0, 0
0, 0
0, 0
0, 0
0, 0
0, 0
0, 0
0, 0
0, 0
0, 0
0, 0
0, 0
0, 0
0, 0
0, 0
0, 0
0, 0
0, 0
0, 0
0, 0
0, 0
0, 0
0, 0
0, 0
0, 0
0, 0
0, 0
0, 0
0, 0
0, 0
0, 0
0, 0
0, 0
0, 0
0, 0
0, 0
0, 0
0, 0
0, 0
0, 0
0, 0
0, 0
0, 0
0, 0
0, 0
0, 0
0, 0
0, 0
0, 0
0, 0
0, 0
0, 0
0, 0
0, 0
0, 0
0, 0
0, 0
0, 0
0, 0
0, 0
0, 0
0, 0
0, 0
0, 0
0, 0
0, 0
0, 0
0, 0
0, 0
0, 0
0, 0
0, 0
0, 0
0, 0
0, 0
0, 0
0, 0
0, 0
0, 0
0, 0
0, 0
0, 0
0, 0
0, 0
0, 0
0, 0
0, 0
0, 0
0, 0
0, 0
0, 0
0, 0
0, 0
0, 0
0, 0
0, 0
0, 0
0, 0
0, 0
0, 0
0, 0
0, 0
0, 0
0, 0
0, 0
0, 0
0, 0
0, 0
0, 0
#ENDOFDATA     end of spectrum data