File: host_upload/12-01-2023/Dourbes (shot-by-shot)/upload_4/ps__0257_0689790785_000rfs_shot_3115.msa
#FORMAT      : EMSA/MAS spectral data file
#VERSION     : TC202v2.0 PIXL
#TITLE       : N/A
#DATE        :       Date in the format DD-MMM-YYYY, for example 07-JUL-2010
#TIME        :             The time of day at which the spectrum was recorded, in 24-hour format
#OWNER       : PIXL Flight Model       (PIXL will use this to indicate which instrument took the data.)
#NPOINTS     : 4096     Number of data points in the spectrum (This can be zero for configuration only files)
#NCOLUMNS    : 2     Number of data columns in the spectrum (This can be zero for configuration only files)
#XUNITS      : eV
#YUNITS      : COUNTS
#DATATYPE    : YY
#XPERCHAN    : 7.862, 7.881   eV per channel (separate by commas if more than one detector)
#OFFSET      : 18.5, -22.4         eV of first channel  (separate by commas if more than one detector
#SIGNALTYPE  : XRF
#YP_TEMP     : 3.005
#LIVETIME    : 9.1445, 9.14328   seconds (separate by commas if more than one detector)
#REALTIME    : 10, 10.0   seconds (separate by commas if more than one detector)
#SPECTRUM    : start of spectrum data
0, 0
0, 0
0, 0
0, 0
0, 0
0, 0
0, 0
0, 0
0, 0
0, 0
0, 0
0, 0
0, 0
0, 0
0, 0
0, 0
0, 0
0, 0
0, 0
0, 0
0, 0
0, 0
0, 0
0, 0
0, 0
0, 0
0, 0
0, 0
0, 0
0, 0
0, 0
0, 0
1, 0
0, 0
0, 0
1, 0
0, 2
1, 1
2, 2
1, 2
0, 1
1, 0
2, 0
0, 2
1, 0
0, 1
2, 2
2, 2
0, 4
6, 7
11, 7
24, 16
25, 39
45, 56
45, 50
44, 53
37, 28
27, 22
6, 10
3, 10
13, 5
4, 4
10, 9
4, 9
10, 14
9, 13
8, 7
13, 12
31, 30
71, 65
159, 132
270, 291
508, 507
767, 724
878, 884
940, 885
789, 819
568, 552
358, 366
214, 174
105, 89
38, 48
39, 35
17, 21
20, 14
14, 8
7, 11
4, 9
5, 2
2, 1
1, 3
2, 3
1, 0
3, 1
3, 4
9, 3
8, 7
8, 5
8, 11
11, 3
9, 6
6, 8
5, 8
8, 6
5, 5
6, 3
4, 6
9, 9
18, 17
23, 31
35, 28
62, 39
41, 47
47, 50
59, 35
46, 42
41, 34
29, 37
19, 15
22, 20
25, 22
14, 25
17, 18
19, 13
11, 16
12, 14
6, 8
3, 4
9, 9
3, 10
11, 9
4, 1
7, 3
4, 7
2, 3
6, 5
3, 5
5, 4
4, 3
3, 4
1, 7
5, 3
4, 3
1, 1
4, 1
2, 4
7, 7
2, 8
14, 13
22, 20
50, 64
98, 88
189, 236
341, 400
608, 643
873, 950
1106, 1058
1182, 1214
1125, 1009
931, 913
611, 599
413, 424
226, 194
125, 108
76, 54
39, 41
49, 49
83, 87
105, 107
120, 156
175, 166
181, 156
162, 148
115, 127
99, 98
59, 50
35, 23
12, 16
11, 7
8, 1
2, 1
0, 2
1, 3
2, 6
1, 4
5, 6
4, 7
5, 9
10, 16
25, 10
34, 30
26, 26
29, 27
25, 28
21, 32
20, 20
15, 9
9, 16
14, 10
5, 6
6, 11
7, 9
5, 3
3, 6
4, 2
4, 8
8, 6
3, 6
3, 12
10, 12
6, 3
13, 8
8, 4
5, 11
3, 4
4, 5
2, 2
3, 4
0, 5
4, 1
4, 3
2, 6
7, 7
6, 2
8, 10
16, 18
21, 16
25, 32
51, 40
46, 62
53, 58
47, 69
42, 40
29, 31
25, 28
13, 13
9, 9
6, 6
2, 4
7, 5
6, 4
6, 4
5, 3
8, 3
12, 10
15, 12
8, 14
20, 24
30, 39
46, 45
51, 59
44, 31
52, 55
39, 38
32, 38
21, 27
14, 21
11, 10
13, 16
13, 10
12, 20
9, 17
14, 27
43, 52
66, 81
112, 152
192, 272
331, 412
572, 628
761, 918
930, 1143
1086, 1205
1234, 1180
1165, 1114
1063, 878
803, 676
582, 403
377, 288
212, 131
127, 79
86, 39
44, 18
34, 15
21, 9
13, 9
13, 8
7, 12
8, 9
7, 12
9, 10
6, 9
16, 16
17, 21
30, 44
49, 56
67, 100
80, 125
119, 147
160, 156
191, 198
190, 180
156, 180
117, 149
99, 126
80, 95
55, 60
37, 37
24, 20
17, 9
17, 10
21, 8
14, 9
28, 8
28, 4
27, 2
37, 5
42, 5
49, 4
40, 8
30, 4
30, 2
29, 4
14, 3
19, 7
15, 2
13, 4
5, 3
5, 5
7, 2
5, 2
3, 5
6, 7
4, 4
6, 6
6, 5
6, 2
4, 1
4, 4
3, 2
5, 7
4, 3
5, 6
3, 5
11, 5
11, 4
5, 6
5, 3
5, 5
2, 6
8, 5
8, 3
3, 8
9, 9
5, 8
8, 9
3, 8
9, 12
6, 15
9, 21
4, 17
5, 11
7, 13
5, 11
3, 5
6, 10
2, 5
4, 8
4, 5
3, 6
7, 1
9, 1
6, 4
5, 2
8, 6
2, 5
7, 7
5, 3
7, 2
5, 8
4, 5
3, 6
2, 5
5, 4
6, 4
6, 4
3, 1
4, 3
8, 3
6, 6
7, 6
11, 10
7, 7
2, 12
5, 7
5, 9
8, 11
8, 6
5, 2
2, 3
4, 7
8, 4
7, 7
10, 4
5, 6
5, 3
9, 4
5, 4
3, 5
5, 9
2, 10
7, 15
6, 19
5, 16
5, 23
2, 17
4, 29
4, 21
3, 17
4, 7
4, 13
3, 4
8, 2
7, 5
4, 4
8, 4
8, 6
9, 7
7, 2
9, 4
5, 3
6, 3
7, 2
8, 3
3, 2
3, 2
3, 2
5, 5
5, 2
6, 0
3, 5
6, 4
7, 1
3, 0
2, 2
3, 4
3, 3
2, 4
4, 2
2, 6
1, 2
3, 5
3, 5
2, 1
2, 3
2, 1
4, 2
3, 2
5, 5
6, 0
7, 4
3, 7
4, 2
5, 2
6, 4
3, 2
2, 4
4, 5
2, 2
3, 2
5, 1
3, 2
2, 2
5, 7
2, 2
2, 3
3, 1
2, 3
5, 1
1, 1
3, 3
1, 6
3, 3
3, 2
6, 9
2, 3
3, 7
3, 1
2, 3
4, 2
5, 8
1, 1
4, 4
1, 6
4, 4
2, 7
3, 3
0, 3
4, 3
1, 3
2, 2
2, 5
6, 4
4, 3
2, 2
3, 3
0, 2
3, 2
1, 2
1, 3
2, 4
7, 2
6, 5
1, 5
6, 2
2, 2
5, 2
9, 3
8, 5
5, 2
1, 0
4, 2
2, 5
2, 2
3, 2
3, 1
1, 3
2, 1
2, 4
1, 4
4, 1
2, 1
0, 2
0, 1
1, 5
1, 2
1, 0
2, 2
3, 0
3, 2
3, 4
1, 4
2, 4
1, 3
1, 4
2, 3
2, 3
0, 2
1, 3
4, 2
1, 1
2, 1
3, 2
0, 0
1, 1
0, 2
1, 1
0, 1
1, 1
0, 0
3, 2
3, 2
0, 0
0, 3
1, 0
1, 1
1, 2
2, 0
1, 3
2, 2
0, 2
1, 2
0, 3
1, 2
0, 6
1, 3
0, 2
1, 2
0, 1
2, 2
0, 3
0, 2
1, 5
2, 1
1, 0
0, 3
3, 0
0, 1
0, 0
3, 1
1, 2
1, 1
2, 0
1, 2
2, 1
0, 2
4, 1
0, 3
3, 0
1, 4
0, 0
2, 0
1, 2
2, 1
0, 2
4, 1
1, 1
1, 1
2, 2
2, 0
1, 1
1, 0
1, 4
1, 0
2, 0
1, 0
2, 2
0, 3
1, 0
3, 0
0, 1
0, 1
1, 2
2, 2
1, 0
3, 1
1, 1
2, 0
0, 0
1, 1
0, 1
2, 1
0, 1
1, 0
1, 1
1, 0
2, 0
0, 1
1, 1
0, 0
2, 1
0, 1
3, 0
1, 1
1, 0
2, 1
1, 0
0, 1
0, 0
0, 1
2, 0
0, 0
1, 0
0, 1
0, 1
0, 2
0, 1
0, 0
0, 0
0, 1
1, 0
0, 2
0, 1
1, 0
0, 2
1, 0
1, 0
0, 1
1, 0
0, 0
1, 0
0, 0
0, 2
0, 0
0, 0
0, 0
0, 1
2, 1
1, 0
2, 0
1, 1
0, 1
2, 0
4, 0
1, 1
0, 1
2, 0
1, 1
1, 0
0, 1
0, 0
1, 0
1, 0
1, 0
1, 1
0, 0
0, 1
1, 0
0, 2
1, 2
0, 1
0, 0
1, 1
1, 0
0, 0
1, 0
0, 1
0, 0
0, 0
2, 1
1, 1
0, 0
0, 1
0, 0
1, 0
1, 0
1, 0
1, 0
1, 0
0, 0
0, 0
0, 0
0, 0
0, 0
1, 1
0, 0
0, 0
0, 0
0, 0
1, 0
0, 1
1, 1
0, 0
0, 0
0, 0
0, 0
1, 0
0, 0
0, 1
1, 1
1, 0
1, 0
0, 1
2, 2
0, 0
0, 0
0, 1
0, 0
1, 0
0, 0
1, 0
0, 2
0, 0
1, 0
0, 0
0, 1
0, 2
0, 0
0, 0
1, 0
0, 0
0, 1
0, 0
0, 0
1, 0
0, 0
0, 0
1, 0
1, 0
0, 0
0, 0
0, 0
0, 0
0, 0
0, 0
0, 0
0, 0
0, 0
0, 0
0, 0
0, 0
1, 0
2, 0
0, 0
0, 0
0, 1
2, 0
0, 0
1, 0
1, 0
0, 0
1, 0
1, 0
1, 0
0, 0
0, 0
0, 1
0, 0
1, 0
0, 0
1, 2
1, 0
0, 0
0, 0
0, 0
2, 0
0, 0
0, 0
0, 1
0, 0
0, 0
0, 1
0, 0
0, 1
0, 0
0, 0
1, 0
0, 0
2, 0
1, 0
0, 1
0, 0
0, 1
0, 0
0, 0
1, 0
0, 0
0, 0
0, 0
0, 1
0, 0
0, 0
0, 0
0, 0
0, 0
1, 0
0, 0
1, 0
1, 0
0, 0
0, 0
0, 0
0, 0
0, 0
0, 0
0, 0
0, 0
0, 0
0, 0
0, 0
0, 0
0, 0
0, 1
0, 0
0, 0
1, 0
1, 1
0, 0
0, 0
0, 0
1, 0
0, 0
0, 0
0, 0
0, 1
0, 0
0, 0
0, 0
0, 0
0, 0
0, 1
1, 0
0, 0
0, 0
0, 0
0, 1
1, 0
0, 1
0, 0
0, 0
0, 0
0, 1
0, 0
0, 0
0, 0
0, 0
0, 0
0, 0
0, 0
0, 0
0, 0
0, 0
1, 0
0, 0
0, 0
1, 0
0, 0
0, 0
0, 0
0, 0
0, 0
0, 0
0, 0
0, 0
0, 0
0, 0
0, 0
0, 0
0, 0
0, 0
0, 0
0, 0
0, 0
0, 0
0, 0
0, 0
0, 0
0, 0
0, 1
0, 0
0, 0
1, 0
0, 0
0, 0
0, 0
0, 0
0, 0
0, 0
0, 0
0, 0
0, 0
0, 0
0, 0
0, 0
0, 0
0, 1
0, 0
0, 0
0, 0
0, 0
0, 0
0, 0
0, 0
0, 1
0, 0
0, 0
0, 0
0, 0
0, 0
0, 0
0, 0
0, 0
1, 0
0, 0
0, 0
0, 0
0, 0
0, 0
0, 0
0, 0
0, 0
0, 0
0, 1
0, 0
0, 0
0, 0
0, 0
0, 0
0, 0
0, 0
0, 0
0, 0
0, 0
0, 0
0, 0
0, 0
0, 0
0, 0
0, 0
1, 0
0, 0
0, 0
0, 0
0, 0
0, 0
0, 0
0, 0
0, 0
0, 0
0, 0
0, 0
0, 0
0, 0
0, 0
0, 0
0, 0
0, 0
0, 0
0, 0
0, 0
0, 0
0, 0
0, 0
0, 0
0, 0
0, 0
0, 0
0, 0
0, 0
0, 0
0, 0
0, 0
0, 0
0, 0
0, 0
0, 0
0, 0
0, 0
0, 0
0, 0
0, 0
0, 0
0, 0
0, 0
0, 0
0, 0
0, 0
0, 0
0, 0
0, 0
0, 0
0, 0
0, 0
0, 0
0, 0
0, 0
0, 0
0, 0
0, 0
0, 0
0, 0
0, 0
0, 0
0, 0
0, 0
0, 0
0, 0
0, 0
0, 0
0, 0
0, 0
0, 0
0, 0
0, 0
0, 0
0, 0
0, 0
0, 0
0, 0
0, 0
0, 0
0, 0
0, 0
0, 0
0, 0
0, 0
0, 0
0, 0
0, 0
0, 0
0, 0
0, 0
0, 0
0, 0
0, 0
0, 0
0, 0
0, 0
0, 0
0, 0
0, 0
0, 0
0, 0
0, 0
0, 0
0, 0
0, 0
0, 0
0, 0
0, 0
0, 0
0, 0
0, 0
0, 0
0, 0
0, 0
0, 0
0, 0
0, 0
0, 0
0, 0
0, 0
0, 0
0, 0
0, 0
0, 0
0, 0
0, 0
0, 0
0, 0
0, 0
0, 0
0, 0
0, 0
0, 0
0, 0
0, 0
0, 0
0, 0
0, 0
0, 0
0, 0
0, 0
0, 0
0, 0
0, 0
0, 0
0, 0
0, 0
0, 0
0, 0
0, 0
0, 0
0, 0
0, 0
0, 0
0, 0
0, 0
0, 0
0, 0
0, 0
0, 0
0, 0
0, 0
0, 0
0, 0
0, 0
0, 0
0, 0
0, 0
0, 0
0, 0
0, 0
0, 0
0, 0
0, 0
0, 0
0, 0
0, 0
0, 0
0, 0
0, 0
0, 0
0, 0
0, 0
0, 0
0, 0
0, 0
0, 0
0, 0
0, 0
0, 0
0, 0
0, 0
0, 0
0, 0
0, 0
0, 0
0, 0
0, 0
0, 0
0, 0
0, 0
0, 0
0, 0
0, 0
0, 0
0, 0
0, 0
0, 0
0, 0
0, 0
0, 0
0, 0
0, 0
0, 0
0, 0
0, 0
0, 0
0, 0
0, 0
0, 0
0, 0
0, 0
0, 0
0, 0
0, 0
0, 0
0, 0
0, 0
0, 0
0, 0
0, 0
0, 0
0, 0
0, 0
0, 0
0, 0
0, 0
0, 0
0, 0
0, 0
0, 0
0, 0
0, 0
0, 0
0, 0
0, 0
0, 0
0, 0
0, 0
0, 0
0, 0
0, 0
0, 0
0, 0
0, 0
0, 0
0, 0
0, 0
0, 0
0, 0
0, 0
0, 0
0, 0
0, 0
0, 0
0, 0
0, 0
0, 0
0, 0
0, 0
0, 0
0, 0
0, 0
0, 0
0, 0
0, 0
0, 0
0, 0
0, 0
0, 0
0, 0
0, 0
0, 0
0, 0
0, 0
0, 0
0, 0
0, 0
0, 0
0, 0
0, 0
0, 0
0, 0
0, 0
0, 0
0, 0
0, 0
0, 0
0, 0
0, 0
0, 0
0, 0
0, 0
0, 0
0, 0
0, 0
0, 0
0, 0
0, 0
0, 0
0, 0
0, 0
0, 0
0, 0
0, 0
0, 0
0, 0
0, 0
0, 0
0, 0
0, 0
0, 0
0, 0
0, 0
0, 0
0, 0
0, 0
0, 0
0, 0
0, 0
0, 0
0, 0
0, 0
0, 0
0, 0
0, 0
0, 0
0, 0
0, 0
0, 0
0, 0
0, 0
0, 0
0, 0
0, 0
0, 0
0, 0
0, 0
0, 0
0, 0
0, 0
0, 0
0, 0
0, 0
0, 0
0, 0
0, 0
0, 0
0, 0
0, 0
0, 0
0, 0
0, 0
0, 0
0, 0
0, 0
0, 0
0, 0
0, 0
0, 0
0, 0
0, 0
0, 0
0, 0
0, 0
0, 0
0, 0
0, 0
0, 0
0, 0
0, 0
0, 0
0, 0
0, 0
0, 0
#ENDOFDATA     end of spectrum data