File: host_upload/12-01-2023/Dourbes (shot-by-shot)/upload_4/ps__0257_0689790785_000rfs_shot_3033.msa
#FORMAT      : EMSA/MAS spectral data file
#VERSION     : TC202v2.0 PIXL
#TITLE       : N/A
#DATE        :       Date in the format DD-MMM-YYYY, for example 07-JUL-2010
#TIME        :             The time of day at which the spectrum was recorded, in 24-hour format
#OWNER       : PIXL Flight Model       (PIXL will use this to indicate which instrument took the data.)
#NPOINTS     : 4096     Number of data points in the spectrum (This can be zero for configuration only files)
#NCOLUMNS    : 2     Number of data columns in the spectrum (This can be zero for configuration only files)
#XUNITS      : eV
#YUNITS      : COUNTS
#DATATYPE    : YY
#XPERCHAN    : 7.862, 7.881   eV per channel (separate by commas if more than one detector)
#OFFSET      : 18.5, -22.4         eV of first channel  (separate by commas if more than one detector
#SIGNALTYPE  : XRF
#YP_TEMP     : 3.326
#LIVETIME    : 9.00758, 9.00088   seconds (separate by commas if more than one detector)
#REALTIME    : 10, 10.0   seconds (separate by commas if more than one detector)
#SPECTRUM    : start of spectrum data
0, 0
0, 0
0, 0
0, 0
0, 0
0, 0
0, 0
0, 0
0, 0
0, 0
0, 0
0, 0
0, 0
0, 0
0, 0
0, 0
0, 0
0, 0
0, 0
0, 0
0, 0
0, 0
0, 0
0, 0
0, 0
0, 0
0, 0
0, 0
0, 1
0, 0
0, 0
0, 0
0, 1
0, 0
0, 1
1, 0
2, 1
0, 2
5, 0
1, 2
2, 3
3, 4
5, 1
2, 7
2, 5
5, 5
5, 2
2, 1
5, 1
3, 4
8, 9
23, 15
28, 23
34, 28
37, 32
41, 41
28, 24
19, 13
14, 11
6, 7
11, 8
10, 8
23, 12
29, 22
19, 34
18, 15
17, 18
17, 17
14, 12
25, 21
70, 65
116, 109
211, 210
282, 308
373, 395
373, 371
305, 295
226, 261
140, 135
80, 80
46, 35
18, 16
16, 6
3, 7
0, 3
4, 2
3, 5
3, 2
1, 1
5, 1
2, 3
2, 4
3, 3
4, 5
5, 6
9, 6
15, 17
25, 18
18, 25
20, 27
21, 23
14, 21
20, 13
14, 11
10, 5
8, 6
16, 9
18, 19
36, 33
46, 73
79, 88
131, 173
138, 177
185, 202
182, 201
159, 225
140, 185
115, 151
93, 118
60, 80
55, 66
40, 60
37, 56
25, 52
38, 37
29, 38
28, 35
21, 33
27, 20
22, 17
18, 16
3, 15
12, 7
7, 5
5, 7
4, 5
7, 5
12, 10
13, 10
15, 13
18, 19
16, 25
20, 16
13, 17
14, 13
12, 10
6, 5
7, 9
13, 4
8, 4
12, 13
20, 10
28, 27
35, 37
50, 55
68, 78
104, 90
91, 103
71, 65
64, 69
56, 38
34, 25
22, 22
11, 12
11, 10
15, 7
11, 8
10, 21
10, 4
16, 12
13, 19
20, 17
16, 21
25, 9
16, 12
5, 7
9, 7
7, 4
9, 11
9, 12
10, 7
8, 11
6, 4
8, 3
8, 8
10, 9
11, 5
11, 14
19, 20
16, 13
28, 19
29, 21
25, 30
26, 29
20, 19
38, 33
31, 30
29, 22
39, 18
23, 25
21, 30
17, 16
15, 6
11, 10
5, 7
8, 7
11, 6
9, 12
12, 10
15, 16
11, 10
14, 14
12, 13
14, 10
14, 10
14, 13
12, 5
9, 14
14, 9
13, 12
17, 16
12, 16
14, 6
12, 17
10, 10
14, 14
14, 18
20, 19
28, 20
19, 32
35, 26
18, 36
19, 22
18, 21
21, 11
11, 14
16, 18
20, 12
12, 13
17, 11
16, 9
13, 16
12, 16
19, 15
26, 23
38, 25
54, 58
67, 63
72, 87
92, 103
86, 113
97, 113
94, 96
78, 94
68, 47
51, 51
43, 33
28, 29
28, 25
30, 25
32, 27
40, 24
55, 65
93, 106
176, 210
334, 410
594, 784
1057, 1294
1603, 1896
2264, 2626
2995, 3299
3516, 3867
3694, 3795
3465, 3376
3058, 2787
2392, 2163
1712, 1379
1110, 886
653, 508
344, 272
176, 123
101, 71
48, 34
36, 22
19, 16
18, 20
25, 19
20, 21
28, 22
32, 38
30, 37
37, 55
43, 68
99, 97
155, 170
205, 231
298, 348
389, 440
501, 532
517, 591
481, 538
497, 475
415, 382
332, 285
246, 186
153, 114
101, 71
55, 43
34, 14
11, 16
4, 6
6, 6
11, 7
7, 6
4, 10
5, 12
7, 9
9, 6
11, 9
6, 6
7, 1
6, 11
3, 8
4, 5
5, 5
10, 8
4, 4
3, 7
3, 5
8, 4
9, 4
5, 6
8, 7
0, 5
0, 9
4, 6
7, 4
5, 8
6, 5
6, 8
6, 10
4, 5
8, 5
6, 8
4, 4
5, 5
9, 3
6, 6
11, 2
3, 4
3, 5
5, 3
6, 8
4, 12
5, 9
5, 3
5, 2
6, 5
7, 2
5, 6
7, 5
2, 9
2, 4
6, 6
5, 5
2, 3
7, 6
11, 5
10, 6
13, 9
12, 6
5, 7
4, 8
10, 12
4, 7
4, 5
6, 6
2, 3
5, 4
1, 6
10, 4
5, 5
4, 5
3, 5
3, 2
7, 4
3, 4
5, 5
2, 3
3, 5
3, 5
6, 6
4, 6
6, 3
4, 5
3, 7
3, 4
4, 5
4, 1
4, 5
3, 1
2, 4
6, 6
3, 4
7, 5
5, 3
1, 1
4, 4
4, 6
4, 2
4, 4
0, 2
3, 3
3, 2
2, 0
4, 0
2, 2
4, 1
1, 2
2, 0
3, 7
5, 4
3, 8
9, 4
4, 4
8, 2
3, 2
5, 6
5, 6
11, 1
11, 3
16, 3
14, 2
14, 6
8, 4
9, 3
6, 5
6, 0
4, 0
6, 1
5, 2
6, 2
3, 6
1, 5
5, 4
2, 2
5, 3
3, 1
3, 4
4, 2
2, 3
3, 3
0, 2
3, 2
4, 2
0, 1
4, 1
6, 2
6, 6
0, 3
1, 2
2, 3
1, 7
3, 4
2, 0
3, 4
2, 3
1, 3
2, 3
0, 6
1, 4
0, 3
1, 2
1, 5
4, 3
4, 3
0, 2
0, 3
2, 2
3, 4
3, 2
2, 1
2, 2
1, 0
0, 0
4, 1
0, 6
2, 6
1, 3
0, 2
0, 4
4, 3
2, 3
3, 3
3, 2
2, 3
0, 3
0, 3
0, 2
1, 1
2, 5
3, 3
2, 3
1, 3
1, 0
0, 4
0, 2
2, 0
5, 1
2, 1
1, 4
0, 2
1, 1
1, 3
2, 0
1, 4
1, 5
2, 1
2, 1
0, 1
2, 0
4, 2
3, 5
1, 1
1, 1
0, 2
5, 2
1, 0
2, 1
0, 1
0, 1
1, 0
3, 0
1, 1
2, 5
4, 8
4, 4
5, 9
3, 7
2, 4
7, 8
4, 10
6, 10
9, 6
8, 5
4, 2
0, 3
3, 3
2, 4
3, 3
2, 3
1, 2
2, 1
1, 3
2, 2
2, 2
5, 0
1, 0
2, 1
0, 0
2, 0
2, 2
0, 2
2, 4
1, 1
0, 3
2, 1
1, 4
3, 1
1, 2
0, 6
1, 1
3, 4
2, 1
2, 2
3, 1
3, 2
4, 2
0, 2
0, 0
0, 2
1, 0
1, 3
0, 2
1, 0
0, 3
0, 1
0, 2
1, 0
2, 0
1, 4
2, 0
4, 2
2, 1
0, 1
1, 0
2, 0
0, 0
3, 1
2, 1
3, 0
1, 1
2, 1
2, 1
0, 2
1, 2
0, 1
0, 1
0, 1
2, 0
0, 0
0, 0
1, 3
2, 1
1, 0
1, 0
0, 0
1, 1
1, 1
0, 1
1, 1
0, 1
0, 3
0, 1
1, 0
1, 2
0, 1
1, 1
0, 0
2, 0
2, 3
2, 0
0, 1
0, 0
0, 2
1, 1
1, 1
0, 1
0, 2
0, 0
0, 1
1, 0
0, 0
1, 0
3, 1
0, 1
1, 1
1, 0
0, 1
1, 2
0, 0
1, 2
1, 0
0, 1
0, 0
0, 0
2, 0
0, 0
0, 0
0, 1
0, 0
0, 0
0, 1
2, 0
0, 0
1, 2
0, 1
1, 0
0, 0
1, 0
1, 0
0, 1
1, 0
1, 0
1, 0
0, 1
1, 0
0, 1
0, 0
0, 1
0, 0
0, 0
2, 0
0, 0
0, 0
0, 2
0, 0
0, 0
0, 0
0, 0
0, 0
0, 0
0, 0
0, 0
0, 0
1, 0
0, 0
2, 1
0, 1
0, 1
0, 0
1, 0
0, 1
1, 0
0, 0
0, 0
1, 0
0, 0
1, 0
0, 0
1, 0
0, 0
1, 0
0, 0
2, 0
0, 0
0, 0
0, 0
0, 0
1, 1
0, 0
0, 0
0, 0
0, 0
0, 0
1, 1
0, 0
0, 0
0, 0
0, 0
2, 0
1, 0
1, 0
1, 0
0, 0
0, 0
0, 0
0, 0
0, 0
1, 1
0, 0
0, 0
0, 0
1, 1
0, 1
0, 0
0, 0
0, 0
0, 0
0, 0
1, 0
0, 0
1, 0
0, 1
1, 0
1, 0
0, 0
0, 0
1, 0
0, 0
0, 1
0, 0
0, 0
0, 0
0, 1
0, 0
0, 1
1, 1
0, 0
0, 0
0, 1
1, 0
1, 0
1, 0
0, 0
0, 0
0, 0
0, 0
0, 1
0, 0
0, 0
0, 1
2, 1
0, 0
0, 0
0, 0
0, 0
0, 0
0, 0
2, 3
0, 0
0, 0
1, 0
0, 0
0, 0
0, 0
0, 0
1, 0
2, 0
1, 0
1, 1
0, 1
0, 0
0, 0
0, 0
0, 1
0, 0
0, 0
0, 0
0, 0
0, 0
0, 0
0, 0
0, 0
0, 0
0, 0
0, 0
0, 1
1, 0
1, 2
0, 0
0, 0
0, 0
0, 0
0, 0
0, 0
0, 0
0, 0
1, 0
0, 0
0, 0
0, 0
0, 0
1, 0
1, 0
0, 0
0, 1
0, 1
0, 0
0, 1
0, 0
0, 0
0, 0
0, 0
0, 0
0, 0
0, 0
0, 0
0, 0
0, 0
0, 0
0, 0
0, 1
0, 2
0, 1
0, 0
0, 0
1, 1
0, 0
0, 0
1, 1
0, 0
0, 0
0, 0
0, 1
0, 0
1, 0
0, 0
0, 0
0, 0
0, 1
0, 0
0, 0
0, 0
0, 0
1, 0
0, 0
0, 0
0, 0
0, 1
0, 0
0, 0
1, 0
0, 0
0, 0
0, 0
0, 0
0, 0
0, 0
0, 0
0, 0
0, 0
0, 0
0, 0
0, 0
0, 0
0, 0
1, 0
0, 0
0, 0
0, 0
0, 0
1, 0
0, 0
0, 0
1, 0
0, 0
0, 0
0, 0
0, 0
0, 0
0, 1
0, 0
0, 0
0, 1
0, 0
0, 0
0, 0
0, 1
0, 0
0, 0
0, 0
1, 0
0, 0
0, 0
0, 0
0, 0
0, 0
0, 0
0, 0
0, 0
0, 0
0, 0
0, 0
0, 0
0, 0
0, 0
0, 1
0, 0
0, 0
0, 0
0, 0
0, 0
0, 0
0, 0
0, 0
0, 0
0, 0
0, 0
0, 0
0, 0
0, 0
0, 0
0, 0
0, 0
0, 0
0, 0
0, 0
0, 0
0, 0
0, 0
0, 0
0, 0
0, 0
0, 0
0, 0
0, 0
0, 0
0, 0
0, 0
1, 0
0, 0
0, 0
0, 0
0, 0
0, 0
0, 0
1, 0
0, 0
0, 0
0, 0
0, 0
0, 0
0, 0
0, 0
0, 0
0, 0
0, 0
0, 0
1, 0
0, 0
0, 0
0, 0
0, 0
0, 0
0, 0
0, 0
0, 1
1, 0
0, 0
0, 0
0, 0
0, 0
0, 0
0, 0
0, 0
0, 0
0, 0
0, 0
0, 0
0, 0
0, 0
0, 0
0, 0
0, 0
0, 0
0, 0
0, 0
0, 0
0, 0
0, 0
0, 0
0, 0
0, 0
0, 0
0, 0
0, 0
0, 0
0, 0
0, 0
0, 0
0, 0
0, 0
0, 0
0, 0
0, 0
0, 0
0, 0
0, 0
0, 0
0, 0
0, 0
0, 0
0, 0
0, 0
0, 0
0, 0
0, 0
0, 0
0, 0
0, 0
0, 0
0, 0
0, 0
0, 0
0, 0
0, 0
0, 0
0, 0
0, 0
0, 0
0, 0
0, 0
0, 0
0, 0
0, 0
0, 0
0, 0
0, 0
0, 0
0, 0
0, 0
0, 0
0, 0
0, 0
0, 0
0, 0
0, 0
0, 0
0, 0
0, 0
0, 0
0, 0
0, 0
0, 0
0, 0
0, 0
0, 0
0, 0
0, 0
0, 0
0, 0
0, 0
0, 0
0, 0
0, 0
0, 0
0, 0
0, 0
0, 0
0, 0
0, 0
0, 0
0, 0
0, 0
0, 0
0, 0
0, 0
0, 0
0, 0
0, 0
0, 0
0, 0
0, 0
0, 0
0, 0
0, 0
0, 0
0, 0
0, 0
0, 0
0, 0
0, 0
0, 0
0, 0
0, 0
0, 0
0, 0
0, 0
0, 0
0, 0
0, 0
0, 0
0, 0
0, 0
0, 0
0, 0
0, 0
0, 0
0, 0
0, 0
0, 0
0, 0
0, 0
0, 0
0, 0
0, 0
0, 0
0, 0
0, 0
0, 0
0, 0
0, 0
0, 0
0, 0
0, 0
0, 0
0, 0
0, 0
0, 0
0, 0
0, 0
0, 0
0, 0
0, 0
0, 0
0, 0
0, 0
0, 0
0, 0
0, 0
0, 0
0, 0
0, 0
0, 0
0, 0
0, 0
0, 0
0, 0
0, 0
0, 0
0, 0
0, 0
0, 0
0, 0
0, 0
0, 0
0, 0
0, 0
0, 0
0, 0
0, 0
0, 0
0, 0
0, 0
0, 0
0, 0
0, 0
0, 0
0, 0
0, 0
0, 0
0, 0
0, 0
0, 0
0, 0
0, 0
0, 0
0, 0
0, 0
0, 0
0, 0
0, 0
0, 0
0, 0
0, 0
0, 0
0, 0
0, 0
0, 0
0, 0
0, 0
0, 0
0, 0
0, 0
0, 0
0, 0
0, 0
0, 0
0, 0
0, 0
0, 0
0, 0
0, 0
0, 0
0, 0
0, 0
0, 0
0, 0
0, 0
0, 0
0, 0
0, 0
0, 0
0, 0
0, 0
0, 0
0, 0
0, 0
0, 0
0, 0
0, 0
0, 0
0, 0
0, 0
0, 0
0, 0
0, 0
0, 0
0, 0
0, 0
0, 0
0, 0
0, 0
0, 0
0, 0
0, 0
0, 0
0, 0
0, 0
0, 0
0, 0
0, 0
0, 0
0, 0
0, 0
0, 0
0, 0
0, 0
0, 0
0, 0
0, 0
0, 0
0, 0
0, 0
0, 0
0, 0
0, 0
0, 0
0, 0
0, 0
0, 0
0, 0
0, 0
0, 0
0, 0
0, 0
0, 0
0, 0
0, 0
0, 0
0, 0
0, 0
0, 0
0, 0
0, 0
0, 0
0, 0
0, 0
0, 0
0, 0
0, 0
0, 0
0, 0
0, 0
0, 0
0, 0
0, 0
0, 0
0, 0
0, 0
0, 0
0, 0
0, 0
0, 0
0, 0
0, 0
0, 0
0, 0
0, 0
0, 0
0, 0
0, 0
0, 0
0, 0
0, 0
0, 0
0, 0
0, 0
0, 0
0, 0
0, 0
0, 0
0, 0
0, 0
0, 0
0, 0
0, 0
0, 0
0, 0
0, 0
0, 0
0, 0
0, 0
0, 0
0, 0
0, 0
0, 0
0, 0
0, 0
0, 0
0, 0
0, 0
0, 0
0, 0
0, 0
#ENDOFDATA     end of spectrum data