File: host_upload/12-01-2023/Dourbes (shot-by-shot)/upload_4/ps__0257_0689790785_000rfs_shot_3020.msa
#FORMAT      : EMSA/MAS spectral data file
#VERSION     : TC202v2.0 PIXL
#TITLE       : N/A
#DATE        :       Date in the format DD-MMM-YYYY, for example 07-JUL-2010
#TIME        :             The time of day at which the spectrum was recorded, in 24-hour format
#OWNER       : PIXL Flight Model       (PIXL will use this to indicate which instrument took the data.)
#NPOINTS     : 4096     Number of data points in the spectrum (This can be zero for configuration only files)
#NCOLUMNS    : 2     Number of data columns in the spectrum (This can be zero for configuration only files)
#XUNITS      : eV
#YUNITS      : COUNTS
#DATATYPE    : YY
#XPERCHAN    : 7.862, 7.881   eV per channel (separate by commas if more than one detector)
#OFFSET      : 18.5, -22.4         eV of first channel  (separate by commas if more than one detector
#SIGNALTYPE  : XRF
#YP_TEMP     : 3.069
#LIVETIME    : 9.0754, 9.07199   seconds (separate by commas if more than one detector)
#REALTIME    : 10, 10.0   seconds (separate by commas if more than one detector)
#SPECTRUM    : start of spectrum data
0, 0
0, 0
0, 0
0, 0
0, 0
0, 0
0, 0
0, 0
0, 0
0, 0
0, 0
0, 0
0, 0
0, 0
0, 0
0, 0
0, 0
0, 0
0, 0
0, 0
0, 0
0, 0
0, 0
0, 0
0, 0
0, 0
0, 0
0, 0
0, 0
0, 0
0, 0
0, 0
0, 0
1, 2
0, 0
1, 0
1, 2
3, 1
2, 0
1, 0
3, 0
1, 3
2, 1
2, 1
0, 4
3, 2
2, 3
3, 3
5, 5
3, 4
13, 15
17, 13
31, 30
38, 38
52, 43
42, 35
20, 30
16, 17
13, 9
5, 4
4, 2
6, 3
3, 3
4, 3
3, 7
10, 1
4, 7
13, 7
24, 15
36, 48
116, 108
217, 229
414, 398
566, 548
706, 650
727, 693
591, 542
427, 409
279, 247
138, 137
91, 59
37, 39
13, 17
8, 13
2, 7
2, 4
0, 2
1, 2
2, 1
1, 2
2, 1
5, 1
10, 2
21, 2
27, 8
38, 9
41, 21
62, 30
47, 44
37, 30
40, 31
20, 14
12, 18
14, 5
8, 6
14, 8
15, 7
18, 16
25, 30
45, 40
55, 77
101, 87
109, 94
119, 121
122, 123
116, 110
91, 91
81, 72
67, 61
54, 44
41, 53
36, 38
31, 39
33, 31
28, 14
28, 23
23, 22
16, 19
13, 18
14, 10
10, 12
10, 4
7, 8
4, 5
3, 5
4, 2
6, 5
4, 3
4, 3
1, 2
4, 4
3, 4
4, 5
9, 3
12, 4
2, 10
4, 5
1, 4
4, 1
2, 6
6, 4
12, 9
13, 15
35, 24
36, 35
47, 50
45, 60
51, 63
54, 74
47, 44
26, 43
26, 22
9, 19
6, 12
8, 10
8, 4
2, 8
5, 9
5, 10
9, 9
7, 18
6, 11
15, 8
10, 9
13, 10
12, 12
9, 2
6, 9
5, 5
5, 5
8, 7
7, 5
4, 11
8, 7
3, 7
4, 3
7, 7
8, 4
6, 11
12, 11
9, 18
15, 8
21, 15
19, 17
19, 20
27, 16
19, 16
19, 20
19, 19
25, 13
19, 12
18, 15
15, 17
12, 14
10, 9
13, 10
6, 11
9, 9
15, 7
10, 10
8, 8
10, 14
14, 9
16, 12
14, 12
14, 8
3, 14
8, 15
5, 15
12, 9
8, 17
7, 13
10, 9
14, 8
9, 14
18, 16
9, 20
12, 22
11, 15
14, 28
11, 35
12, 52
14, 47
15, 56
12, 59
11, 51
17, 31
9, 43
15, 27
11, 12
10, 17
18, 10
14, 8
20, 24
21, 13
26, 20
33, 33
49, 51
58, 55
61, 58
69, 67
56, 70
72, 77
54, 54
51, 46
47, 36
17, 28
20, 18
25, 21
18, 18
21, 19
29, 38
39, 43
58, 84
134, 155
258, 299
446, 561
807, 978
1247, 1417
1678, 1990
2173, 2616
2578, 2887
2706, 2905
2733, 2639
2237, 2125
1826, 1630
1229, 1044
817, 641
473, 365
278, 195
129, 101
70, 43
57, 34
20, 20
21, 18
15, 28
20, 17
31, 16
28, 19
37, 31
31, 34
40, 46
44, 52
76, 95
102, 122
162, 187
228, 266
315, 335
396, 405
372, 402
421, 393
377, 408
295, 280
276, 220
176, 139
124, 107
69, 53
38, 32
26, 18
10, 6
8, 8
5, 8
6, 10
9, 12
8, 7
7, 11
12, 10
7, 9
6, 9
3, 8
11, 5
11, 9
10, 6
9, 11
9, 5
10, 3
6, 5
2, 5
6, 7
4, 4
10, 1
2, 3
3, 6
7, 2
4, 4
6, 3
7, 12
3, 8
10, 5
4, 7
5, 11
5, 5
5, 8
7, 5
8, 9
4, 9
15, 6
9, 5
7, 14
7, 9
4, 4
5, 12
7, 5
7, 9
9, 10
6, 7
4, 6
5, 4
6, 3
2, 6
6, 7
7, 5
9, 4
6, 4
4, 5
11, 5
7, 6
4, 10
6, 9
11, 13
9, 12
4, 9
3, 4
5, 10
5, 8
5, 8
4, 12
6, 13
4, 10
4, 5
5, 4
2, 11
6, 5
2, 5
4, 4
2, 5
6, 7
11, 4
1, 2
5, 4
4, 5
3, 4
6, 6
4, 5
7, 7
2, 2
3, 6
4, 5
6, 8
4, 4
0, 9
9, 7
5, 4
6, 2
6, 2
5, 4
5, 7
6, 2
4, 7
3, 3
4, 2
3, 4
2, 4
9, 4
2, 10
6, 5
6, 4
4, 3
4, 4
10, 3
4, 7
8, 2
4, 3
2, 1
5, 6
7, 8
3, 3
7, 6
0, 2
2, 6
8, 4
6, 2
3, 1
4, 3
6, 4
6, 0
3, 7
1, 5
5, 2
5, 4
3, 3
5, 4
4, 4
1, 6
4, 7
6, 2
1, 7
2, 3
3, 1
1, 5
3, 5
1, 2
1, 4
4, 4
2, 8
4, 3
2, 1
3, 6
0, 5
2, 4
5, 5
4, 7
4, 7
5, 6
0, 4
4, 5
2, 8
1, 3
5, 5
4, 2
4, 2
2, 4
2, 5
5, 3
2, 1
4, 3
7, 5
3, 5
3, 0
4, 3
2, 1
2, 0
1, 1
2, 3
3, 3
2, 1
4, 3
4, 2
2, 2
3, 2
6, 2
4, 3
1, 2
1, 1
0, 0
1, 5
0, 2
2, 2
2, 4
4, 1
5, 0
3, 1
2, 3
2, 1
3, 5
6, 0
1, 5
0, 4
5, 2
2, 2
2, 6
1, 2
3, 4
2, 5
2, 3
0, 2
2, 2
1, 0
3, 2
3, 2
1, 0
2, 3
3, 1
0, 4
1, 1
4, 1
3, 1
0, 3
2, 7
3, 1
3, 3
3, 2
1, 3
0, 2
2, 0
1, 4
2, 0
2, 8
8, 2
5, 5
8, 2
3, 7
8, 4
4, 2
6, 4
2, 5
4, 5
4, 3
3, 1
3, 0
1, 3
4, 0
1, 1
0, 0
3, 2
1, 1
0, 2
2, 0
2, 2
1, 3
0, 2
1, 0
3, 2
1, 0
6, 4
2, 2
5, 2
0, 1
1, 6
0, 0
2, 1
1, 1
4, 1
3, 2
1, 5
4, 1
2, 3
2, 2
0, 3
5, 1
3, 3
0, 1
3, 1
0, 1
1, 0
1, 0
1, 0
1, 2
0, 1
1, 1
1, 3
2, 1
0, 0
0, 1
1, 0
0, 1
2, 1
0, 1
0, 0
4, 1
1, 0
1, 0
2, 1
0, 0
0, 0
1, 2
2, 0
0, 5
0, 1
1, 1
0, 2
1, 1
2, 1
1, 1
0, 1
3, 1
0, 0
0, 0
1, 1
1, 0
0, 0
1, 0
1, 0
1, 0
1, 2
1, 2
0, 1
2, 0
1, 1
0, 0
1, 2
1, 0
0, 0
0, 0
1, 0
1, 1
0, 3
1, 0
1, 1
1, 1
0, 1
1, 2
1, 2
1, 0
3, 1
1, 0
0, 0
0, 0
0, 0
0, 0
2, 2
1, 0
1, 0
0, 0
1, 2
0, 0
0, 0
0, 2
0, 1
1, 0
0, 0
0, 0
0, 0
1, 1
4, 0
0, 0
0, 0
1, 2
1, 0
2, 0
1, 1
2, 0
1, 1
1, 1
0, 0
1, 3
1, 1
0, 0
0, 0
1, 0
1, 0
0, 0
0, 2
0, 1
1, 0
1, 0
0, 0
0, 1
0, 1
1, 1
0, 2
0, 0
0, 1
0, 1
1, 1
0, 0
1, 0
0, 1
0, 0
0, 1
1, 1
0, 0
0, 0
0, 0
0, 0
0, 0
0, 0
0, 0
1, 0
1, 0
0, 1
0, 0
0, 0
0, 0
1, 0
1, 0
0, 0
1, 0
0, 0
1, 0
0, 0
3, 0
0, 1
1, 0
0, 0
0, 0
2, 0
0, 1
0, 0
0, 0
0, 0
0, 0
1, 0
0, 0
1, 0
0, 1
0, 0
0, 0
0, 0
0, 1
0, 0
0, 0
0, 0
0, 0
1, 0
0, 0
0, 0
0, 0
1, 0
0, 0
0, 0
0, 0
0, 0
0, 0
0, 1
0, 0
0, 0
0, 0
0, 0
0, 1
0, 0
0, 0
0, 1
0, 0
0, 0
0, 0
0, 0
0, 0
0, 0
0, 0
0, 0
0, 0
0, 1
0, 0
0, 1
0, 0
0, 0
0, 0
0, 0
0, 0
0, 1
0, 0
0, 0
0, 0
0, 0
0, 2
1, 0
1, 0
0, 0
0, 0
1, 1
0, 0
0, 1
0, 0
0, 0
0, 0
0, 0
0, 1
1, 0
0, 0
0, 0
0, 0
0, 0
0, 0
0, 0
0, 0
0, 0
0, 0
0, 0
0, 0
0, 0
0, 0
0, 0
0, 0
0, 0
0, 1
0, 0
0, 1
0, 0
1, 0
0, 0
0, 0
0, 0
0, 0
0, 0
0, 0
0, 0
0, 2
0, 0
1, 0
1, 0
0, 0
0, 0
1, 0
0, 0
0, 1
0, 0
0, 1
0, 0
0, 0
0, 0
1, 0
0, 0
0, 0
1, 0
0, 0
0, 0
0, 1
0, 0
0, 0
0, 0
1, 0
1, 0
0, 0
0, 0
0, 0
0, 0
0, 0
0, 0
0, 0
0, 0
0, 0
0, 0
0, 0
0, 0
0, 0
0, 0
0, 0
0, 0
0, 0
0, 0
0, 0
0, 0
0, 0
0, 0
0, 0
1, 0
0, 0
0, 0
0, 0
0, 0
1, 0
0, 0
0, 1
0, 0
0, 0
0, 0
0, 1
1, 0
0, 0
0, 0
0, 0
0, 0
0, 0
0, 0
0, 0
0, 0
0, 0
0, 0
0, 0
0, 0
0, 0
0, 0
0, 0
0, 0
0, 0
0, 0
0, 0
0, 0
0, 0
0, 0
0, 0
1, 0
0, 0
0, 0
0, 0
0, 0
0, 0
0, 0
0, 0
0, 0
0, 0
0, 0
0, 0
0, 0
1, 0
0, 0
0, 0
1, 0
0, 0
0, 0
0, 0
0, 0
0, 0
0, 0
0, 0
0, 0
0, 0
0, 0
0, 0
0, 0
0, 0
0, 0
0, 0
0, 0
0, 0
0, 0
0, 0
0, 0
0, 1
0, 0
0, 0
0, 0
0, 0
0, 0
0, 0
0, 0
0, 0
0, 0
0, 0
0, 0
0, 0
0, 0
0, 0
0, 0
0, 0
0, 0
0, 0
0, 0
0, 0
0, 0
0, 0
0, 0
0, 0
0, 0
0, 0
0, 0
0, 0
0, 0
0, 0
0, 0
0, 0
0, 0
0, 0
0, 0
0, 0
0, 0
0, 0
0, 0
0, 0
0, 0
0, 0
1, 0
0, 0
0, 0
0, 0
0, 0
0, 0
0, 0
0, 0
0, 0
0, 0
1, 0
0, 0
0, 0
0, 0
0, 0
0, 0
0, 0
0, 0
0, 0
0, 0
0, 0
0, 0
0, 0
0, 0
0, 0
0, 0
0, 0
0, 0
0, 0
0, 0
0, 0
0, 0
0, 0
0, 0
0, 0
0, 0
0, 0
0, 0
0, 0
0, 0
0, 0
0, 0
0, 0
0, 0
0, 0
0, 0
0, 0
0, 0
0, 0
0, 0
0, 0
0, 0
0, 0
0, 0
0, 0
0, 0
0, 0
0, 0
0, 0
0, 0
0, 0
0, 0
0, 0
0, 0
0, 0
0, 0
0, 0
0, 0
0, 0
0, 0
0, 0
0, 0
0, 0
0, 0
0, 0
0, 0
0, 0
0, 0
0, 0
0, 0
0, 0
0, 0
0, 0
0, 0
0, 0
0, 0
0, 0
0, 0
0, 0
0, 0
0, 0
0, 0
0, 0
0, 0
0, 0
0, 0
0, 0
0, 0
0, 0
0, 0
0, 0
0, 0
0, 0
0, 0
0, 0
0, 0
0, 0
0, 0
0, 0
0, 0
0, 0
0, 0
0, 0
0, 0
0, 0
0, 0
0, 0
0, 0
0, 0
0, 0
0, 0
0, 0
0, 0
0, 0
0, 0
0, 0
0, 0
0, 0
0, 0
0, 0
0, 0
0, 0
0, 0
0, 0
0, 0
0, 0
0, 0
0, 0
0, 0
0, 0
0, 0
0, 0
0, 0
0, 0
0, 0
0, 0
0, 0
0, 0
0, 0
0, 0
0, 0
0, 0
0, 0
0, 0
0, 0
0, 0
0, 0
0, 0
0, 0
0, 0
0, 0
0, 0
0, 0
0, 0
0, 0
0, 0
0, 0
0, 0
0, 0
0, 0
0, 0
0, 0
0, 0
0, 0
0, 0
0, 0
0, 0
0, 0
0, 0
0, 0
0, 0
0, 0
0, 0
0, 0
0, 0
0, 0
0, 0
0, 0
0, 0
0, 0
0, 0
0, 0
0, 0
0, 0
0, 0
0, 0
0, 0
0, 0
0, 0
0, 0
0, 0
0, 0
0, 0
0, 0
0, 0
0, 0
0, 0
0, 0
0, 0
0, 0
0, 0
0, 0
0, 0
0, 0
0, 0
0, 0
0, 0
0, 0
0, 0
0, 0
0, 0
0, 0
0, 0
0, 0
0, 0
0, 0
0, 0
0, 0
0, 0
0, 0
0, 0
0, 0
0, 0
0, 0
0, 0
0, 0
0, 0
0, 0
0, 0
0, 0
0, 0
0, 0
0, 0
0, 0
0, 0
0, 0
0, 0
0, 0
0, 0
0, 0
0, 0
0, 0
0, 0
0, 0
0, 0
0, 0
0, 0
0, 0
0, 0
0, 0
0, 0
0, 0
0, 0
0, 0
0, 0
0, 0
0, 0
0, 0
0, 0
0, 0
0, 0
0, 0
0, 0
0, 0
0, 0
0, 0
0, 0
0, 0
0, 0
0, 0
0, 0
0, 0
0, 0
0, 0
0, 0
0, 0
0, 0
0, 0
0, 0
0, 0
0, 0
0, 0
0, 0
0, 0
0, 0
0, 0
0, 0
0, 0
0, 0
0, 0
0, 0
0, 0
0, 0
0, 0
0, 0
0, 0
0, 0
0, 0
0, 0
0, 0
0, 0
0, 0
0, 0
0, 0
0, 0
0, 0
0, 0
0, 0
0, 0
0, 0
0, 0
0, 0
0, 0
0, 0
0, 0
0, 0
0, 0
0, 0
0, 0
0, 0
0, 0
0, 0
0, 0
0, 0
0, 0
0, 0
0, 0
0, 0
0, 0
0, 0
0, 0
0, 0
0, 0
0, 0
0, 0
0, 0
0, 0
0, 0
0, 0
0, 0
0, 0
0, 0
0, 0
0, 0
0, 0
0, 0
0, 0
0, 0
0, 0
0, 0
0, 0
0, 0
0, 0
0, 0
0, 0
0, 0
0, 0
0, 0
0, 0
0, 0
0, 0
0, 0
0, 0
0, 0
#ENDOFDATA     end of spectrum data