File: host_upload/12-01-2023/Dourbes (shot-by-shot)/upload_4/ps__0257_0689790785_000rfs_shot_3036.msa
#FORMAT      : EMSA/MAS spectral data file
#VERSION     : TC202v2.0 PIXL
#TITLE       : N/A
#DATE        :       Date in the format DD-MMM-YYYY, for example 07-JUL-2010
#TIME        :             The time of day at which the spectrum was recorded, in 24-hour format
#OWNER       : PIXL Flight Model       (PIXL will use this to indicate which instrument took the data.)
#NPOINTS     : 4096     Number of data points in the spectrum (This can be zero for configuration only files)
#NCOLUMNS    : 2     Number of data columns in the spectrum (This can be zero for configuration only files)
#XUNITS      : eV
#YUNITS      : COUNTS
#DATATYPE    : YY
#XPERCHAN    : 7.862, 7.881   eV per channel (separate by commas if more than one detector)
#OFFSET      : 18.5, -22.4         eV of first channel  (separate by commas if more than one detector
#SIGNALTYPE  : XRF
#YP_TEMP     : 3.133
#LIVETIME    : 8.97805, 8.95646   seconds (separate by commas if more than one detector)
#REALTIME    : 10, 10.0   seconds (separate by commas if more than one detector)
#SPECTRUM    : start of spectrum data
0, 0
0, 0
0, 0
0, 0
0, 0
0, 0
0, 0
0, 0
0, 0
0, 0
0, 0
0, 0
0, 0
0, 0
0, 0
0, 0
0, 0
0, 0
0, 0
0, 0
0, 0
0, 0
0, 0
0, 0
0, 0
0, 0
0, 0
0, 0
0, 0
0, 0
0, 0
0, 1
0, 0
1, 0
1, 0
1, 3
2, 1
3, 3
3, 6
2, 2
1, 1
2, 1
4, 3
1, 3
3, 3
1, 4
3, 3
0, 2
4, 2
3, 8
12, 7
15, 11
21, 29
33, 38
34, 29
28, 25
27, 18
9, 15
5, 6
2, 3
4, 2
1, 4
3, 3
7, 6
9, 4
5, 5
5, 9
4, 3
4, 9
18, 29
40, 38
73, 69
123, 120
169, 181
217, 228
194, 223
191, 201
154, 134
76, 80
54, 49
27, 28
15, 13
10, 12
5, 8
8, 13
7, 11
6, 7
5, 11
7, 3
4, 8
5, 4
6, 10
6, 3
12, 16
34, 36
64, 55
107, 82
106, 156
138, 161
135, 159
124, 141
82, 99
74, 76
34, 39
30, 23
27, 24
19, 23
33, 29
41, 45
69, 79
112, 134
122, 139
177, 173
187, 203
178, 220
163, 163
146, 129
124, 110
76, 87
67, 70
59, 68
60, 68
62, 48
51, 49
36, 47
46, 35
37, 31
30, 31
24, 16
20, 21
13, 11
10, 14
4, 5
7, 5
5, 5
3, 7
5, 9
8, 4
3, 8
2, 3
8, 8
3, 8
3, 7
5, 3
5, 5
6, 1
2, 0
4, 9
6, 6
8, 12
17, 19
27, 28
53, 67
110, 103
162, 195
203, 229
277, 320
272, 333
291, 277
221, 217
136, 160
109, 87
75, 54
37, 40
18, 14
22, 19
12, 12
14, 22
23, 36
30, 41
36, 49
51, 44
34, 40
30, 36
25, 34
16, 14
20, 11
19, 12
9, 8
10, 9
6, 3
6, 2
5, 10
6, 6
5, 5
7, 12
11, 10
10, 9
17, 9
17, 25
20, 13
13, 27
23, 24
19, 21
13, 24
24, 33
24, 27
29, 27
23, 34
24, 31
24, 17
21, 17
18, 23
15, 17
11, 5
15, 17
15, 14
17, 24
19, 16
19, 9
18, 16
19, 13
16, 17
23, 11
16, 18
20, 15
15, 19
13, 18
13, 19
15, 13
13, 17
10, 28
22, 20
7, 24
14, 16
14, 16
17, 15
15, 12
11, 23
14, 16
15, 14
12, 17
19, 20
13, 11
15, 14
18, 16
14, 16
23, 18
13, 19
14, 21
16, 15
16, 14
29, 19
21, 21
34, 38
30, 46
47, 58
69, 97
112, 127
101, 122
97, 135
118, 148
113, 107
109, 105
66, 72
56, 56
40, 31
34, 34
19, 21
18, 25
26, 36
37, 40
52, 68
102, 120
175, 258
321, 443
637, 799
1037, 1367
1676, 2034
2347, 2838
3077, 3464
3685, 3977
3736, 4040
3735, 3728
3158, 3063
2494, 2241
1778, 1521
1181, 956
735, 548
414, 266
197, 130
99, 75
61, 31
37, 37
47, 27
31, 33
19, 36
37, 32
36, 47
35, 46
39, 43
44, 47
68, 95
103, 112
146, 186
191, 255
275, 350
408, 462
461, 517
568, 611
533, 553
524, 473
439, 434
340, 295
246, 210
175, 130
112, 67
52, 47
26, 17
13, 9
4, 9
6, 7
2, 7
8, 4
10, 4
7, 6
6, 7
11, 6
6, 5
5, 7
8, 6
4, 9
3, 5
3, 2
2, 3
2, 5
4, 9
3, 6
4, 8
5, 6
3, 5
3, 1
7, 5
4, 8
5, 6
6, 1
2, 2
6, 5
3, 3
3, 3
6, 4
2, 3
3, 2
3, 10
5, 2
7, 5
5, 4
3, 4
3, 9
5, 3
2, 6
3, 6
3, 4
7, 5
5, 4
4, 6
3, 4
7, 4
5, 4
5, 7
4, 5
5, 9
3, 7
4, 5
3, 4
4, 8
3, 6
5, 9
8, 12
4, 6
6, 8
3, 5
2, 7
5, 11
2, 7
5, 1
4, 8
4, 2
4, 7
10, 1
6, 5
2, 5
5, 6
9, 3
2, 6
2, 3
7, 7
3, 2
4, 5
6, 4
1, 2
5, 7
3, 2
5, 7
7, 0
6, 4
2, 4
6, 1
5, 6
4, 4
2, 2
7, 2
5, 2
6, 5
7, 5
2, 6
4, 5
8, 7
4, 5
6, 4
3, 2
5, 3
2, 4
3, 3
5, 1
2, 2
1, 5
3, 4
1, 2
4, 2
3, 2
6, 5
3, 2
5, 1
9, 2
6, 9
9, 6
5, 4
4, 7
8, 4
5, 3
4, 3
4, 3
3, 1
2, 4
4, 6
1, 2
3, 4
2, 4
3, 4
6, 3
3, 6
1, 6
3, 2
6, 3
1, 7
4, 6
3, 3
0, 0
1, 2
1, 2
4, 2
0, 5
1, 0
1, 4
1, 4
0, 4
1, 2
3, 4
8, 2
3, 2
3, 4
2, 2
2, 4
3, 2
2, 4
1, 2
1, 3
5, 4
6, 5
3, 6
2, 4
2, 4
5, 0
2, 4
1, 5
2, 1
2, 3
2, 3
1, 2
4, 2
0, 2
4, 4
1, 3
2, 3
3, 1
1, 3
4, 4
3, 1
1, 1
2, 3
2, 3
0, 2
5, 1
0, 1
4, 2
2, 1
1, 3
2, 2
1, 2
1, 1
2, 2
3, 2
1, 2
6, 3
2, 3
1, 2
1, 4
4, 2
2, 2
1, 4
1, 1
3, 3
4, 2
1, 3
1, 1
4, 2
1, 2
1, 1
1, 2
4, 2
3, 2
2, 2
4, 2
3, 3
0, 1
3, 1
1, 1
1, 1
1, 0
0, 0
1, 2
4, 1
0, 7
1, 5
6, 1
3, 4
0, 6
7, 4
3, 3
1, 7
4, 5
5, 8
6, 10
5, 9
4, 5
6, 7
3, 0
3, 6
2, 2
4, 3
4, 3
3, 2
1, 6
1, 0
1, 2
0, 2
2, 1
1, 2
1, 1
1, 1
1, 1
1, 1
1, 1
3, 2
4, 1
2, 3
3, 3
4, 5
6, 4
2, 0
2, 1
0, 1
4, 1
3, 0
0, 3
3, 2
1, 1
2, 1
1, 1
0, 1
2, 0
1, 0
0, 0
7, 0
0, 2
4, 1
1, 0
1, 2
0, 0
3, 0
1, 1
1, 3
2, 0
0, 1
4, 0
2, 1
3, 3
2, 1
3, 1
1, 1
2, 3
2, 0
0, 1
3, 1
1, 2
1, 1
0, 1
1, 2
0, 0
0, 3
1, 0
1, 0
1, 2
0, 0
1, 1
1, 0
0, 1
0, 0
0, 0
1, 4
0, 1
1, 1
1, 0
0, 1
0, 1
0, 0
1, 2
0, 1
0, 0
0, 0
2, 0
0, 0
0, 2
0, 3
1, 0
1, 0
1, 0
1, 1
0, 2
0, 2
0, 0
0, 0
1, 0
0, 0
0, 0
0, 1
1, 1
0, 0
1, 1
1, 0
0, 0
1, 0
0, 1
0, 0
0, 2
3, 0
2, 1
0, 1
0, 0
0, 0
0, 0
0, 0
0, 1
0, 1
0, 0
0, 1
1, 0
0, 1
1, 0
1, 1
0, 0
0, 0
1, 2
1, 1
0, 0
2, 1
0, 2
0, 0
0, 0
1, 0
0, 0
2, 0
0, 0
1, 0
0, 0
0, 0
0, 0
2, 0
0, 0
0, 0
0, 0
1, 0
0, 0
1, 0
0, 0
1, 0
0, 0
1, 0
1, 2
0, 1
1, 0
0, 1
2, 1
0, 0
1, 0
0, 0
1, 0
1, 0
0, 0
0, 0
0, 1
1, 0
1, 0
0, 0
0, 0
2, 0
1, 3
0, 0
0, 0
0, 0
0, 1
0, 1
0, 0
0, 0
0, 0
0, 1
0, 0
0, 0
0, 0
1, 0
1, 0
0, 0
0, 0
0, 0
0, 0
0, 1
0, 0
0, 1
0, 0
0, 1
1, 1
1, 0
1, 1
2, 0
0, 0
0, 0
0, 0
1, 0
0, 0
0, 0
1, 0
0, 0
0, 0
0, 0
1, 0
0, 0
0, 0
0, 0
0, 0
0, 0
2, 0
0, 0
0, 0
0, 0
0, 1
1, 0
0, 1
0, 0
0, 0
0, 0
0, 0
0, 0
0, 0
0, 0
0, 0
0, 0
0, 0
0, 1
0, 0
1, 0
1, 1
0, 0
1, 0
0, 0
0, 0
0, 1
0, 0
0, 0
2, 0
0, 0
0, 0
0, 2
0, 0
0, 0
0, 0
0, 0
0, 0
0, 0
1, 1
0, 0
0, 0
0, 0
0, 0
0, 0
0, 0
1, 1
0, 0
0, 0
0, 0
0, 0
1, 0
0, 0
0, 0
0, 0
0, 0
0, 0
0, 0
0, 0
0, 0
0, 0
0, 0
0, 0
0, 0
0, 0
0, 0
0, 1
0, 0
0, 0
0, 0
0, 0
0, 0
0, 0
0, 0
1, 0
1, 0
0, 0
0, 0
0, 0
0, 0
0, 0
0, 0
0, 0
0, 0
0, 0
0, 0
0, 0
0, 1
0, 0
0, 0
0, 1
0, 0
0, 0
0, 1
0, 0
0, 0
0, 0
0, 0
0, 0
0, 0
0, 0
0, 0
0, 0
0, 0
0, 1
1, 1
0, 0
0, 0
0, 0
0, 0
0, 0
0, 0
0, 1
1, 0
0, 0
0, 0
0, 0
0, 1
0, 0
0, 0
0, 0
0, 1
0, 0
0, 0
0, 0
0, 0
0, 0
0, 0
0, 0
0, 0
0, 0
0, 0
0, 0
0, 0
0, 0
0, 0
0, 0
0, 0
0, 0
0, 0
0, 0
0, 0
0, 0
0, 0
0, 0
0, 0
0, 0
0, 0
0, 0
0, 0
0, 1
0, 1
0, 0
0, 0
0, 0
0, 0
0, 0
0, 0
0, 0
0, 0
0, 0
0, 0
0, 0
0, 0
0, 1
0, 0
0, 0
0, 0
0, 0
0, 0
0, 0
0, 0
0, 0
0, 0
0, 0
0, 0
0, 0
0, 0
0, 0
0, 0
0, 0
0, 0
0, 0
0, 0
0, 0
0, 0
0, 0
0, 0
0, 0
0, 0
0, 0
0, 0
0, 0
0, 0
0, 0
0, 0
0, 0
0, 0
0, 0
0, 0
0, 0
0, 0
0, 0
0, 1
0, 0
0, 0
0, 0
0, 0
0, 0
0, 0
0, 0
0, 0
0, 0
0, 0
0, 0
0, 0
0, 0
0, 0
0, 0
0, 0
1, 0
0, 0
0, 0
0, 0
0, 0
0, 0
0, 0
0, 0
0, 0
0, 0
0, 0
0, 0
0, 0
0, 0
0, 0
0, 0
0, 0
0, 0
0, 0
0, 1
0, 0
0, 0
0, 0
0, 0
0, 0
0, 0
0, 0
0, 0
0, 0
0, 0
0, 0
0, 0
0, 0
0, 0
0, 0
0, 0
0, 0
0, 0
0, 0
0, 0
0, 0
0, 0
0, 0
0, 0
0, 0
0, 0
0, 0
0, 0
0, 0
0, 0
0, 0
0, 0
0, 0
0, 0
0, 0
0, 0
0, 0
0, 0
0, 0
0, 0
0, 0
0, 0
0, 0
0, 0
0, 0
0, 0
0, 0
0, 0
0, 0
0, 0
0, 0
0, 0
0, 0
0, 0
0, 0
0, 0
0, 0
0, 0
0, 0
0, 0
0, 0
0, 0
0, 0
0, 0
0, 0
0, 0
0, 0
0, 0
0, 0
0, 0
0, 0
0, 0
0, 0
0, 0
0, 0
0, 0
0, 0
0, 0
0, 0
0, 0
0, 0
0, 0
0, 0
0, 0
0, 0
0, 0
0, 0
0, 0
0, 0
0, 0
0, 0
0, 0
0, 0
0, 0
0, 0
0, 0
0, 0
0, 0
0, 0
0, 0
0, 0
0, 0
0, 0
0, 0
0, 0
0, 0
0, 0
0, 0
0, 0
0, 0
0, 0
0, 0
0, 0
0, 0
0, 0
0, 0
0, 0
0, 0
0, 0
0, 0
0, 0
0, 0
0, 0
0, 0
0, 0
0, 0
0, 0
0, 0
0, 0
0, 0
0, 0
0, 0
0, 0
0, 0
0, 0
0, 0
0, 0
0, 0
0, 0
0, 0
0, 0
0, 0
0, 0
0, 0
0, 0
0, 0
0, 0
0, 0
1, 0
0, 0
0, 0
0, 0
0, 0
0, 0
0, 0
0, 0
0, 0
0, 0
0, 0
0, 0
0, 0
0, 0
0, 0
0, 0
0, 0
0, 0
0, 0
0, 0
0, 0
0, 0
0, 0
0, 0
0, 0
0, 0
0, 0
0, 0
0, 0
0, 0
0, 0
0, 0
0, 0
0, 0
0, 0
0, 0
0, 0
0, 0
0, 0
0, 0
0, 0
0, 0
0, 0
0, 0
0, 0
0, 0
0, 0
0, 0
0, 0
0, 0
0, 0
0, 0
0, 0
0, 0
0, 0
0, 0
0, 0
0, 0
0, 0
0, 0
0, 0
0, 0
0, 0
0, 0
0, 0
0, 0
0, 0
0, 0
0, 0
0, 0
0, 0
0, 0
0, 0
0, 0
0, 0
0, 0
0, 0
0, 0
0, 0
0, 0
0, 0
0, 0
0, 0
0, 0
0, 0
0, 0
0, 0
0, 0
0, 0
0, 0
0, 0
0, 0
0, 0
0, 0
0, 0
0, 0
0, 0
0, 0
0, 0
0, 0
0, 0
0, 0
0, 0
0, 0
0, 0
0, 0
0, 0
0, 0
0, 0
0, 0
0, 0
0, 0
0, 0
0, 0
0, 0
0, 0
0, 0
0, 0
0, 0
0, 0
0, 0
0, 0
0, 0
0, 0
0, 0
0, 0
0, 0
0, 0
0, 0
0, 0
0, 0
0, 0
0, 0
0, 0
0, 0
0, 0
0, 0
0, 0
0, 0
0, 0
0, 0
0, 0
0, 0
0, 0
0, 0
0, 0
0, 0
0, 0
0, 0
0, 0
0, 0
0, 0
0, 0
0, 0
0, 0
0, 0
0, 0
0, 0
0, 0
0, 0
0, 0
0, 0
0, 0
0, 0
0, 0
0, 0
0, 0
0, 0
0, 0
0, 0
0, 0
0, 0
0, 0
0, 0
0, 0
0, 0
0, 0
0, 0
0, 0
0, 0
0, 0
0, 0
0, 0
0, 0
0, 0
0, 0
0, 0
0, 0
0, 0
0, 0
0, 0
0, 0
0, 0
0, 0
0, 0
0, 0
0, 0
0, 0
0, 0
0, 0
0, 0
0, 0
0, 0
0, 0
0, 0
0, 0
0, 0
0, 0
0, 0
0, 0
0, 0
0, 0
0, 0
0, 0
0, 0
0, 0
0, 0
0, 0
#ENDOFDATA     end of spectrum data