File: host_upload/12-01-2023/Dourbes (shot-by-shot)/upload_4/ps__0257_0689790785_000rfs_shot_3004.msa
#FORMAT      : EMSA/MAS spectral data file
#VERSION     : TC202v2.0 PIXL
#TITLE       : N/A
#DATE        :       Date in the format DD-MMM-YYYY, for example 07-JUL-2010
#TIME        :             The time of day at which the spectrum was recorded, in 24-hour format
#OWNER       : PIXL Flight Model       (PIXL will use this to indicate which instrument took the data.)
#NPOINTS     : 4096     Number of data points in the spectrum (This can be zero for configuration only files)
#NCOLUMNS    : 2     Number of data columns in the spectrum (This can be zero for configuration only files)
#XUNITS      : eV
#YUNITS      : COUNTS
#DATATYPE    : YY
#XPERCHAN    : 7.862, 7.881   eV per channel (separate by commas if more than one detector)
#OFFSET      : 18.5, -22.4         eV of first channel  (separate by commas if more than one detector
#SIGNALTYPE  : XRF
#YP_TEMP     : 2.973
#LIVETIME    : 8.87715, 8.98292   seconds (separate by commas if more than one detector)
#REALTIME    : 10, 10.0   seconds (separate by commas if more than one detector)
#SPECTRUM    : start of spectrum data
0, 0
0, 0
0, 0
0, 0
0, 0
0, 0
0, 0
0, 0
0, 0
0, 0
0, 0
0, 0
0, 0
0, 0
0, 0
0, 0
0, 0
0, 0
0, 0
0, 0
0, 0
0, 0
0, 0
0, 0
0, 0
0, 0
0, 0
0, 0
0, 0
0, 0
0, 0
1, 0
2, 0
2, 0
1, 1
7, 0
7, 0
11, 5
32, 2
26, 2
47, 5
59, 1
55, 4
42, 5
28, 2
21, 0
17, 2
10, 3
10, 4
9, 6
17, 12
28, 12
28, 23
37, 40
55, 44
41, 37
16, 32
12, 13
9, 11
12, 7
11, 2
11, 7
14, 12
12, 15
19, 19
13, 10
11, 13
11, 19
13, 21
50, 39
115, 102
216, 199
334, 303
493, 489
618, 622
572, 649
519, 504
380, 354
254, 229
121, 151
67, 61
47, 34
23, 11
17, 15
9, 10
10, 9
7, 11
8, 5
7, 6
10, 2
4, 2
3, 1
10, 8
13, 14
22, 13
30, 23
59, 57
76, 76
89, 109
91, 90
63, 59
67, 46
40, 38
30, 20
19, 15
28, 8
30, 17
63, 27
159, 44
296, 75
613, 78
1215, 123
1966, 129
2958, 170
3747, 175
4047, 144
3863, 147
3165, 95
2167, 87
1283, 53
705, 49
325, 49
158, 29
61, 28
52, 21
21, 29
23, 19
18, 22
13, 18
13, 9
10, 14
6, 8
3, 8
4, 6
3, 4
2, 3
8, 13
9, 13
8, 12
5, 7
16, 14
21, 16
18, 14
16, 21
15, 13
12, 9
8, 4
4, 1
6, 4
6, 4
10, 7
11, 7
19, 21
23, 21
29, 46
50, 61
67, 58
53, 60
74, 58
52, 54
28, 36
36, 23
14, 15
13, 5
14, 6
10, 5
14, 4
17, 9
19, 11
21, 14
22, 18
22, 16
21, 7
13, 9
10, 14
16, 6
11, 7
10, 7
11, 3
9, 5
10, 5
6, 9
5, 4
5, 1
9, 6
8, 2
7, 8
9, 12
12, 16
13, 21
14, 17
16, 39
27, 40
18, 51
16, 82
21, 83
18, 99
19, 111
11, 105
32, 81
20, 57
11, 43
16, 33
11, 19
6, 11
10, 19
4, 11
10, 11
7, 10
12, 6
10, 8
10, 9
12, 4
10, 8
10, 7
5, 7
10, 4
9, 6
11, 7
9, 5
12, 6
14, 8
18, 8
17, 14
13, 9
15, 8
14, 4
25, 12
20, 12
28, 10
19, 14
17, 10
16, 13
9, 15
13, 8
12, 9
9, 7
10, 8
12, 6
9, 6
6, 10
8, 7
20, 11
11, 17
16, 17
21, 32
30, 36
41, 51
69, 69
90, 98
73, 96
92, 88
99, 87
68, 76
61, 42
41, 48
36, 35
28, 42
22, 26
23, 23
27, 24
28, 40
50, 54
96, 86
181, 200
315, 388
617, 743
1057, 1174
1568, 1903
2164, 2551
2915, 3102
3424, 3424
3528, 3635
3477, 3345
2927, 2692
2298, 1901
1612, 1430
1088, 879
629, 454
319, 252
175, 103
110, 63
51, 28
43, 22
56, 16
50, 19
68, 16
66, 12
73, 26
65, 34
90, 20
85, 41
67, 59
94, 112
145, 167
218, 248
319, 304
366, 387
439, 456
512, 512
521, 505
444, 411
383, 342
348, 292
207, 186
136, 111
83, 71
44, 35
26, 15
12, 7
12, 6
5, 6
6, 2
2, 2
1, 10
1, 6
9, 6
15, 4
11, 12
10, 6
7, 8
3, 2
5, 7
7, 6
5, 8
4, 6
1, 9
6, 9
3, 6
1, 9
3, 15
2, 14
6, 13
1, 15
8, 13
6, 15
2, 9
3, 5
4, 8
7, 3
2, 3
4, 6
3, 3
4, 5
9, 6
1, 7
5, 5
4, 3
13, 4
3, 4
2, 1
6, 3
8, 3
3, 2
4, 3
3, 7
6, 7
4, 3
6, 0
6, 10
2, 2
4, 3
9, 3
3, 5
2, 5
4, 5
6, 5
6, 2
7, 2
4, 7
3, 3
5, 2
1, 7
10, 5
7, 3
6, 3
4, 6
3, 2
6, 5
8, 2
10, 5
3, 4
16, 2
14, 6
11, 8
11, 1
16, 5
16, 12
15, 4
8, 6
6, 14
13, 9
11, 11
4, 9
6, 18
2, 9
2, 13
8, 13
5, 13
12, 6
8, 7
10, 4
2, 6
6, 2
7, 1
5, 2
5, 1
5, 4
6, 5
1, 4
3, 2
3, 5
3, 2
6, 2
0, 3
2, 4
3, 5
2, 4
3, 5
5, 3
2, 4
5, 2
4, 2
1, 4
2, 2
1, 3
4, 1
5, 0
3, 3
0, 1
3, 2
1, 1
3, 4
0, 1
3, 2
2, 1
1, 5
1, 0
2, 3
2, 6
1, 1
1, 1
2, 1
1, 3
2, 4
6, 1
4, 2
2, 0
4, 1
1, 1
9, 2
3, 1
6, 3
4, 3
9, 2
9, 1
11, 1
10, 1
12, 4
6, 4
7, 1
9, 2
5, 3
7, 2
4, 2
6, 5
8, 2
2, 2
3, 1
6, 1
0, 1
4, 1
2, 2
2, 3
3, 0
1, 0
3, 5
0, 1
3, 2
4, 0
1, 4
1, 2
4, 2
3, 1
2, 2
0, 2
0, 2
1, 2
2, 1
3, 2
3, 1
1, 1
1, 2
2, 2
2, 0
1, 2
1, 1
4, 1
3, 2
4, 1
1, 3
2, 1
1, 2
1, 2
1, 2
3, 2
0, 0
2, 0
3, 2
2, 1
2, 0
1, 3
2, 0
4, 1
2, 3
5, 1
2, 1
0, 1
0, 2
1, 0
1, 0
2, 1
4, 1
3, 2
1, 0
2, 2
1, 1
2, 0
1, 1
1, 3
1, 1
3, 1
3, 2
0, 1
2, 4
3, 2
2, 3
3, 5
1, 4
3, 5
3, 9
6, 6
7, 6
3, 4
3, 7
4, 6
4, 4
4, 5
4, 3
4, 4
2, 2
2, 2
2, 1
2, 2
3, 2
0, 1
1, 0
0, 2
0, 3
1, 2
3, 1
2, 2
2, 0
2, 1
5, 4
4, 2
4, 2
3, 1
2, 3
0, 5
1, 0
1, 0
4, 4
2, 1
4, 3
1, 0
2, 0
1, 0
1, 1
2, 0
1, 0
1, 1
3, 0
1, 0
2, 1
0, 1
1, 2
4, 2
1, 2
2, 1
0, 2
0, 0
0, 0
1, 0
0, 3
1, 2
0, 2
0, 0
0, 0
1, 0
0, 1
3, 1
0, 0
0, 1
1, 0
1, 0
0, 0
2, 0
0, 0
1, 0
0, 1
1, 2
2, 0
0, 0
1, 0
2, 0
0, 0
0, 1
0, 0
1, 0
0, 1
0, 0
0, 0
1, 1
0, 2
0, 3
0, 1
2, 1
3, 0
3, 0
1, 1
1, 0
2, 0
0, 2
0, 1
1, 0
0, 0
1, 1
0, 0
0, 0
0, 2
0, 0
1, 1
0, 0
0, 0
0, 1
1, 0
0, 1
1, 0
1, 0
1, 0
0, 0
3, 1
2, 3
0, 0
0, 0
1, 0
0, 1
0, 0
0, 0
0, 0
0, 0
0, 0
2, 1
0, 0
0, 0
0, 0
1, 0
3, 0
0, 1
0, 0
0, 0
1, 0
0, 0
0, 0
1, 0
0, 0
0, 2
0, 0
0, 2
0, 0
1, 1
0, 1
0, 0
0, 0
0, 0
0, 1
0, 1
0, 0
0, 2
0, 0
0, 0
1, 1
0, 0
0, 3
2, 0
0, 0
1, 1
0, 0
0, 0
0, 0
0, 1
0, 0
0, 0
1, 0
0, 0
1, 1
0, 0
0, 0
0, 0
1, 1
0, 2
0, 0
0, 0
0, 0
0, 0
0, 0
0, 0
0, 1
0, 0
0, 0
1, 0
0, 0
0, 0
1, 0
0, 1
1, 0
0, 0
1, 0
0, 0
0, 0
0, 0
0, 0
0, 0
0, 0
1, 0
0, 0
0, 0
2, 0
1, 0
0, 0
1, 1
0, 0
0, 1
0, 0
0, 0
2, 0
0, 0
0, 1
1, 0
1, 0
0, 2
0, 0
0, 1
1, 0
0, 0
0, 0
0, 0
0, 0
0, 1
0, 0
0, 0
1, 0
0, 0
0, 0
0, 0
0, 0
0, 0
0, 0
1, 0
0, 0
0, 0
0, 0
0, 0
0, 1
0, 0
0, 0
1, 0
0, 0
1, 0
0, 0
0, 0
0, 0
0, 0
1, 0
1, 1
0, 0
0, 0
0, 0
0, 0
0, 0
0, 0
0, 0
1, 0
0, 0
0, 1
0, 0
0, 0
0, 0
2, 0
0, 0
0, 0
0, 0
1, 0
0, 0
1, 0
0, 0
0, 0
0, 0
0, 0
0, 0
1, 0
0, 0
1, 0
0, 0
0, 1
0, 0
0, 0
0, 0
0, 0
0, 0
0, 0
0, 0
1, 0
0, 0
0, 0
0, 0
0, 0
1, 0
0, 0
0, 0
0, 0
0, 0
0, 1
0, 0
0, 0
0, 0
0, 0
0, 0
0, 0
0, 0
1, 0
0, 0
0, 0
0, 0
0, 0
1, 0
0, 0
0, 0
0, 0
0, 0
0, 0
0, 0
0, 0
1, 0
0, 0
0, 0
0, 0
1, 0
0, 0
0, 0
0, 0
0, 1
0, 0
0, 0
0, 0
0, 0
0, 0
0, 0
0, 0
0, 0
1, 0
1, 0
0, 0
0, 0
0, 0
0, 0
0, 0
0, 0
0, 0
0, 0
0, 0
0, 1
0, 0
0, 0
0, 0
0, 0
0, 0
0, 0
0, 0
0, 0
0, 0
0, 0
0, 1
0, 0
1, 0
0, 0
0, 0
0, 0
0, 0
0, 0
0, 0
0, 0
0, 0
0, 0
0, 0
0, 0
0, 0
0, 0
0, 0
0, 0
0, 0
0, 0
0, 0
1, 0
0, 0
0, 0
1, 0
0, 0
0, 0
0, 0
0, 0
0, 0
0, 0
0, 0
0, 0
0, 0
0, 0
0, 0
0, 0
0, 0
0, 0
0, 0
0, 0
0, 0
0, 0
0, 0
0, 0
0, 0
0, 0
0, 0
0, 0
0, 0
0, 0
0, 0
0, 0
0, 0
0, 0
0, 0
0, 0
0, 0
0, 0
0, 0
0, 0
0, 1
0, 0
0, 0
0, 0
0, 0
0, 0
0, 0
0, 0
0, 0
0, 0
0, 0
0, 0
0, 0
1, 0
0, 0
0, 0
0, 0
0, 0
0, 0
0, 0
0, 0
0, 0
0, 0
0, 0
0, 0
0, 0
0, 0
0, 0
0, 0
0, 0
0, 0
0, 0
0, 0
0, 0
0, 0
0, 0
0, 0
0, 0
0, 0
0, 0
0, 0
0, 0
1, 0
0, 0
0, 0
0, 0
0, 0
0, 0
0, 0
0, 0
0, 0
0, 0
0, 0
0, 0
0, 0
0, 0
0, 0
0, 0
0, 0
0, 0
0, 0
0, 0
0, 0
0, 0
0, 0
0, 0
0, 0
0, 0
0, 0
0, 0
0, 0
0, 0
0, 0
0, 0
0, 0
0, 0
0, 0
0, 0
0, 0
0, 0
0, 0
0, 0
0, 0
0, 0
0, 0
0, 0
0, 0
0, 0
1, 0
0, 0
0, 0
0, 0
0, 0
0, 0
0, 0
0, 0
0, 0
0, 0
0, 0
0, 0
0, 0
0, 0
0, 0
0, 0
0, 0
0, 0
0, 0
0, 0
0, 0
0, 0
0, 0
0, 0
0, 0
0, 0
0, 0
0, 0
0, 0
0, 0
0, 0
0, 0
0, 0
0, 0
0, 0
0, 0
0, 0
0, 0
0, 0
0, 0
0, 0
0, 0
0, 0
0, 0
0, 0
0, 0
0, 0
0, 0
0, 0
0, 0
0, 0
0, 0
0, 0
0, 0
0, 0
0, 0
0, 0
0, 0
0, 0
0, 0
0, 0
0, 0
0, 0
0, 0
0, 0
0, 0
0, 0
0, 0
0, 0
0, 0
0, 0
0, 0
0, 0
0, 0
0, 0
0, 0
0, 0
0, 0
0, 0
0, 0
0, 0
0, 0
0, 0
0, 0
0, 0
0, 0
0, 0
0, 0
0, 0
0, 0
0, 0
0, 0
0, 0
0, 0
0, 0
0, 0
0, 0
0, 0
0, 0
0, 0
0, 0
0, 0
0, 0
0, 0
0, 0
0, 0
0, 0
0, 0
0, 0
0, 0
0, 0
0, 0
0, 0
0, 0
0, 0
0, 0
0, 0
0, 0
0, 0
0, 0
0, 0
0, 0
0, 0
0, 0
0, 0
0, 0
0, 0
0, 0
0, 0
0, 0
0, 0
0, 0
0, 0
0, 0
0, 0
0, 0
0, 0
0, 0
0, 0
0, 0
0, 0
0, 0
0, 0
0, 0
0, 0
0, 0
0, 0
0, 0
0, 0
0, 0
0, 0
0, 0
0, 0
0, 0
0, 0
0, 0
0, 0
0, 0
0, 0
0, 0
0, 0
0, 0
0, 0
0, 0
0, 0
0, 0
0, 0
0, 0
0, 0
0, 0
0, 0
0, 0
0, 0
0, 0
0, 0
0, 0
0, 0
0, 0
0, 0
0, 0
0, 0
0, 0
0, 0
0, 0
0, 0
0, 0
0, 0
0, 0
0, 0
0, 0
0, 0
0, 0
0, 0
0, 0
0, 0
0, 0
0, 0
0, 0
0, 0
0, 0
0, 0
0, 0
0, 0
0, 0
0, 0
0, 0
0, 0
0, 0
0, 0
0, 0
0, 0
0, 0
0, 0
0, 0
0, 0
0, 0
0, 0
0, 0
0, 0
0, 0
0, 0
0, 0
0, 0
0, 0
0, 0
0, 0
0, 0
0, 0
0, 0
0, 0
0, 0
0, 0
0, 0
0, 0
0, 0
0, 0
0, 0
0, 0
0, 0
0, 0
0, 0
0, 0
0, 0
0, 0
0, 0
0, 0
0, 0
0, 0
0, 0
0, 0
0, 0
0, 0
0, 0
0, 0
0, 0
0, 0
0, 0
0, 0
0, 0
0, 0
0, 0
0, 0
0, 0
0, 0
0, 0
0, 0
0, 0
0, 0
0, 0
0, 0
0, 0
0, 0
0, 0
0, 0
0, 0
0, 0
0, 0
0, 0
0, 0
0, 0
0, 0
0, 0
0, 0
0, 0
0, 0
0, 0
0, 0
0, 0
0, 0
0, 0
0, 0
0, 0
0, 0
0, 0
0, 0
0, 0
0, 0
0, 0
0, 0
0, 0
0, 0
0, 0
0, 0
0, 0
0, 0
0, 0
0, 0
0, 0
0, 0
0, 0
0, 0
0, 0
0, 0
0, 0
0, 0
0, 0
0, 0
0, 0
0, 0
0, 0
0, 0
0, 0
0, 0
0, 0
#ENDOFDATA     end of spectrum data