File: host_upload/12-01-2023/Dourbes (shot-by-shot)/upload_4/ps__0257_0689790785_000rfs_shot_3267.msa
#FORMAT      : EMSA/MAS spectral data file
#VERSION     : TC202v2.0 PIXL
#TITLE       : N/A
#DATE        :       Date in the format DD-MMM-YYYY, for example 07-JUL-2010
#TIME        :             The time of day at which the spectrum was recorded, in 24-hour format
#OWNER       : PIXL Flight Model       (PIXL will use this to indicate which instrument took the data.)
#NPOINTS     : 4096     Number of data points in the spectrum (This can be zero for configuration only files)
#NCOLUMNS    : 2     Number of data columns in the spectrum (This can be zero for configuration only files)
#XUNITS      : eV
#YUNITS      : COUNTS
#DATATYPE    : YY
#XPERCHAN    : 7.862, 7.881   eV per channel (separate by commas if more than one detector)
#OFFSET      : 18.5, -22.4         eV of first channel  (separate by commas if more than one detector
#SIGNALTYPE  : XRF
#YP_TEMP     : 2.909
#LIVETIME    : 9.00679, 8.98981   seconds (separate by commas if more than one detector)
#REALTIME    : 10, 10.0   seconds (separate by commas if more than one detector)
#SPECTRUM    : start of spectrum data
0, 0
0, 0
0, 0
0, 0
0, 0
0, 0
0, 0
0, 0
0, 0
0, 0
0, 0
0, 0
0, 0
0, 0
0, 0
0, 0
0, 0
0, 0
0, 0
0, 0
0, 0
0, 0
0, 0
0, 0
0, 0
0, 0
0, 0
0, 0
0, 0
0, 0
0, 0
0, 2
0, 0
0, 1
0, 0
1, 0
0, 0
3, 1
0, 0
4, 1
1, 1
0, 1
1, 2
2, 2
1, 1
0, 0
0, 3
2, 1
2, 4
4, 3
9, 6
24, 19
23, 30
51, 36
42, 42
36, 39
32, 35
26, 23
13, 12
3, 3
4, 1
4, 2
6, 6
8, 8
8, 9
10, 6
4, 10
10, 5
12, 9
40, 30
91, 65
158, 169
276, 272
420, 389
487, 461
460, 460
399, 383
311, 291
183, 165
79, 96
53, 51
29, 17
17, 8
8, 7
6, 3
3, 3
4, 4
2, 3
2, 0
3, 5
0, 1
3, 2
4, 3
5, 6
2, 4
6, 2
2, 7
2, 1
4, 4
6, 3
4, 7
2, 2
8, 0
3, 3
1, 2
2, 2
5, 7
8, 6
3, 17
19, 18
13, 36
27, 47
40, 55
38, 54
43, 48
35, 49
52, 47
32, 31
22, 25
25, 24
29, 24
21, 26
32, 15
28, 13
19, 14
11, 10
12, 12
3, 12
10, 12
12, 4
5, 9
1, 3
3, 4
3, 3
3, 1
1, 8
1, 5
6, 2
13, 7
13, 6
6, 8
10, 5
8, 6
6, 9
5, 9
8, 3
6, 4
3, 6
0, 6
3, 2
5, 9
8, 4
8, 12
15, 16
22, 26
28, 27
32, 41
44, 37
38, 48
34, 39
21, 31
15, 24
15, 25
8, 33
2, 35
5, 46
2, 45
7, 35
6, 23
3, 22
7, 19
11, 13
16, 11
10, 11
6, 4
4, 9
5, 5
4, 4
10, 6
11, 5
4, 7
3, 4
6, 8
13, 5
20, 18
22, 22
45, 50
83, 92
120, 135
200, 189
213, 270
292, 327
300, 318
252, 289
208, 217
158, 179
110, 107
73, 76
56, 46
21, 32
17, 29
14, 25
14, 21
14, 35
16, 19
23, 31
27, 34
46, 41
40, 52
52, 65
58, 70
44, 64
47, 45
33, 35
19, 33
24, 25
12, 26
9, 26
5, 41
5, 42
6, 42
8, 44
9, 57
24, 51
37, 71
90, 76
121, 167
155, 162
253, 290
269, 314
275, 283
270, 289
226, 262
160, 169
149, 128
92, 92
50, 39
32, 41
12, 21
19, 23
17, 11
12, 14
13, 12
18, 12
16, 21
32, 35
40, 50
62, 65
62, 90
111, 128
96, 147
119, 187
128, 194
97, 208
91, 209
98, 215
50, 201
32, 190
27, 150
20, 123
19, 101
31, 70
42, 72
69, 103
146, 198
318, 350
573, 720
944, 1210
1537, 1761
2249, 2411
2768, 3094
3196, 3422
3448, 3387
3260, 3049
2745, 2562
2163, 1872
1520, 1233
934, 739
599, 433
309, 242
159, 116
74, 69
35, 23
27, 24
20, 21
24, 17
26, 16
40, 20
41, 25
39, 16
50, 40
62, 44
68, 83
105, 114
152, 161
216, 232
277, 298
350, 399
428, 488
499, 476
522, 457
456, 463
354, 335
270, 266
204, 154
127, 92
76, 54
47, 40
23, 17
12, 10
6, 4
7, 13
7, 5
1, 6
8, 6
5, 4
3, 4
9, 8
8, 5
4, 10
11, 3
5, 4
4, 7
8, 3
5, 3
7, 8
3, 5
2, 2
4, 2
2, 3
9, 5
2, 7
7, 9
3, 7
5, 8
3, 6
2, 6
5, 5
0, 4
4, 8
5, 8
9, 6
5, 5
1, 6
3, 12
7, 6
5, 5
4, 7
6, 4
5, 2
10, 2
5, 6
3, 4
0, 5
7, 8
1, 6
0, 5
2, 3
1, 5
2, 3
6, 10
6, 5
3, 2
3, 3
1, 3
5, 4
3, 5
5, 4
7, 1
5, 5
10, 4
14, 1
7, 3
5, 5
7, 3
5, 3
7, 3
4, 1
6, 5
3, 6
6, 1
4, 1
3, 6
4, 1
2, 1
5, 3
6, 4
6, 1
4, 4
8, 8
4, 3
10, 6
5, 7
6, 2
13, 5
9, 3
12, 5
7, 2
9, 1
7, 1
3, 5
5, 2
2, 1
7, 2
8, 4
5, 3
1, 1
3, 2
0, 3
6, 3
1, 3
2, 4
1, 6
2, 1
5, 6
4, 5
5, 3
5, 9
4, 3
3, 4
4, 4
2, 4
4, 5
2, 1
1, 1
5, 4
1, 2
2, 1
5, 0
3, 0
1, 6
2, 1
2, 6
6, 3
3, 9
4, 4
6, 4
4, 4
2, 3
4, 6
2, 9
1, 6
4, 4
1, 3
3, 6
3, 5
0, 0
2, 4
2, 0
2, 2
2, 0
2, 4
4, 4
0, 2
2, 4
1, 0
1, 2
1, 2
5, 3
2, 3
4, 2
3, 2
1, 0
6, 2
5, 2
3, 1
2, 4
2, 3
0, 2
1, 3
1, 2
2, 2
2, 2
0, 1
1, 2
2, 2
5, 0
2, 1
3, 3
3, 5
3, 2
2, 0
4, 0
6, 0
0, 1
6, 2
2, 1
3, 4
3, 3
3, 2
3, 3
3, 2
3, 1
2, 1
5, 2
0, 1
0, 2
2, 2
3, 2
2, 1
0, 2
4, 2
0, 4
2, 2
1, 1
0, 1
1, 2
1, 3
3, 1
1, 2
1, 3
0, 3
1, 6
0, 2
2, 4
0, 4
1, 3
1, 3
2, 1
1, 1
1, 2
1, 0
0, 2
2, 2
0, 0
2, 1
0, 3
1, 1
4, 1
2, 2
4, 4
1, 3
4, 3
2, 2
1, 0
1, 4
2, 2
3, 2
2, 4
3, 1
5, 5
7, 6
5, 10
3, 2
6, 8
9, 7
7, 5
4, 4
1, 1
0, 3
1, 2
3, 3
1, 3
5, 1
0, 2
3, 2
1, 1
2, 2
2, 2
1, 0
4, 1
3, 0
0, 0
2, 1
2, 2
3, 0
4, 2
2, 0
4, 1
1, 3
3, 3
4, 4
2, 0
1, 2
2, 2
1, 0
0, 4
3, 1
1, 0
3, 0
2, 1
1, 1
1, 1
2, 0
0, 0
2, 1
0, 3
2, 0
1, 0
0, 0
1, 0
0, 0
1, 2
0, 3
0, 1
1, 1
0, 0
1, 1
1, 2
1, 1
1, 2
0, 0
2, 0
2, 0
0, 0
0, 0
0, 0
0, 0
2, 1
1, 0
1, 2
0, 0
2, 1
1, 0
0, 0
0, 1
1, 0
3, 0
1, 1
1, 0
1, 0
1, 1
0, 0
0, 1
1, 0
0, 0
2, 2
1, 1
1, 1
0, 0
2, 1
2, 0
1, 1
2, 0
0, 0
1, 0
1, 1
0, 0
1, 0
0, 0
1, 0
0, 0
0, 2
0, 0
0, 1
1, 1
2, 0
2, 0
1, 0
0, 0
0, 0
0, 1
0, 1
0, 0
0, 0
0, 1
0, 0
0, 1
0, 0
0, 0
1, 3
0, 1
1, 0
0, 1
1, 0
0, 0
1, 0
1, 0
1, 0
0, 0
2, 1
0, 1
0, 0
0, 1
0, 1
0, 1
0, 0
1, 0
0, 1
1, 0
0, 1
1, 0
0, 0
0, 1
0, 0
1, 0
0, 1
1, 0
0, 0
0, 1
0, 2
0, 0
0, 1
2, 0
0, 0
0, 1
0, 0
0, 1
3, 0
0, 0
2, 0
0, 0
0, 0
0, 1
0, 0
0, 1
0, 0
0, 0
1, 0
0, 0
1, 0
0, 0
1, 2
0, 0
0, 0
1, 0
0, 0
1, 1
0, 0
0, 0
0, 0
0, 0
1, 0
0, 0
2, 0
2, 0
0, 0
0, 2
1, 0
0, 0
0, 0
1, 1
0, 1
0, 0
0, 0
0, 0
0, 0
1, 0
0, 1
1, 0
1, 0
0, 0
1, 0
0, 1
0, 0
2, 0
0, 0
0, 1
0, 0
0, 1
1, 0
0, 0
1, 0
0, 0
0, 1
0, 0
0, 0
0, 0
2, 0
1, 0
1, 0
0, 0
0, 0
1, 0
1, 0
0, 0
0, 1
0, 0
0, 0
0, 0
0, 0
0, 0
0, 0
0, 0
0, 1
0, 0
0, 0
0, 0
0, 0
0, 0
1, 0
0, 0
1, 0
2, 0
1, 0
1, 0
0, 0
0, 1
0, 1
0, 0
0, 0
1, 0
0, 0
0, 1
0, 0
0, 0
0, 0
0, 0
0, 0
0, 0
0, 0
0, 0
0, 0
0, 0
0, 0
0, 0
0, 0
0, 0
1, 0
0, 0
0, 0
0, 0
1, 0
0, 0
1, 0
1, 0
0, 0
0, 0
0, 0
0, 0
1, 0
0, 0
0, 0
0, 0
0, 0
0, 1
0, 1
0, 0
0, 0
0, 0
0, 0
0, 0
0, 0
0, 0
0, 2
0, 0
0, 0
0, 0
0, 0
0, 0
0, 0
0, 0
0, 0
0, 0
0, 0
0, 0
1, 0
0, 1
0, 0
0, 0
0, 0
0, 0
1, 0
0, 1
1, 0
0, 0
0, 1
0, 0
0, 0
0, 0
0, 0
0, 0
1, 0
0, 0
0, 0
0, 0
0, 0
0, 0
0, 0
0, 0
0, 0
0, 0
0, 0
0, 0
0, 0
0, 0
1, 0
0, 0
0, 0
0, 0
0, 0
0, 0
0, 0
1, 1
0, 0
0, 0
0, 0
0, 0
0, 0
0, 0
0, 0
0, 0
0, 0
0, 0
0, 0
0, 0
0, 0
0, 0
0, 0
0, 1
0, 0
0, 0
0, 0
0, 0
0, 0
0, 0
0, 0
0, 0
0, 0
0, 0
0, 0
0, 0
0, 0
0, 1
0, 0
0, 0
0, 0
0, 0
0, 0
0, 0
1, 0
0, 0
0, 0
0, 0
0, 0
0, 0
0, 0
0, 1
0, 0
0, 0
0, 0
0, 0
0, 0
0, 0
0, 0
0, 0
0, 0
0, 0
0, 0
0, 0
0, 0
0, 0
1, 0
0, 0
0, 0
0, 0
0, 0
0, 0
0, 0
0, 0
0, 0
0, 0
0, 0
0, 0
0, 0
0, 0
0, 0
0, 0
0, 0
0, 0
0, 0
0, 0
0, 0
0, 0
0, 0
0, 0
0, 0
0, 0
0, 0
0, 0
0, 0
0, 0
0, 0
0, 0
0, 0
0, 0
0, 0
0, 0
0, 0
0, 0
0, 0
0, 0
0, 0
0, 0
0, 0
0, 0
0, 0
0, 0
0, 0
0, 0
0, 0
0, 0
0, 0
0, 0
0, 0
0, 0
0, 0
0, 0
0, 0
0, 0
0, 0
0, 0
0, 0
0, 0
0, 0
0, 0
0, 0
0, 0
0, 0
0, 0
0, 0
0, 0
0, 0
0, 0
0, 0
0, 0
0, 0
0, 0
0, 0
0, 0
0, 0
0, 0
0, 0
0, 0
0, 0
0, 0
0, 0
0, 0
0, 0
0, 0
0, 0
0, 0
0, 0
0, 0
0, 0
0, 0
0, 0
0, 0
0, 0
0, 0
0, 0
0, 0
0, 0
0, 0
0, 0
0, 0
0, 0
0, 0
0, 0
0, 0
0, 0
0, 0
0, 0
0, 0
0, 0
0, 0
0, 0
0, 0
0, 0
0, 0
0, 0
0, 0
0, 0
0, 0
0, 0
0, 0
0, 0
0, 0
0, 0
0, 0
0, 0
0, 0
0, 0
0, 0
0, 0
0, 0
0, 0
0, 0
0, 0
0, 0
0, 0
0, 0
0, 0
0, 0
0, 0
0, 0
0, 0
0, 0
0, 0
0, 0
0, 0
0, 0
0, 0
0, 0
0, 0
0, 0
0, 0
0, 0
0, 0
0, 0
0, 0
0, 0
0, 0
0, 0
0, 0
0, 0
0, 0
0, 0
0, 0
0, 0
0, 0
0, 0
0, 0
0, 0
0, 0
0, 0
0, 0
0, 0
0, 0
0, 0
0, 0
0, 0
0, 0
0, 0
0, 0
0, 0
0, 0
0, 0
0, 0
0, 0
0, 0
0, 0
0, 0
0, 0
0, 0
0, 0
0, 0
0, 0
0, 0
0, 0
0, 0
0, 0
0, 0
0, 0
0, 0
0, 0
0, 0
0, 0
0, 0
0, 0
0, 0
0, 0
0, 0
0, 0
0, 0
0, 0
0, 0
0, 0
0, 0
0, 0
0, 0
0, 0
0, 0
0, 0
0, 0
0, 0
0, 0
0, 0
0, 0
0, 0
0, 0
0, 0
0, 0
0, 0
0, 0
0, 0
0, 0
0, 0
0, 0
0, 0
0, 0
0, 0
0, 0
0, 0
0, 0
0, 0
0, 0
0, 0
0, 0
0, 0
0, 0
0, 0
0, 0
0, 0
0, 0
0, 0
0, 0
0, 0
0, 0
0, 0
0, 0
0, 0
0, 0
0, 0
0, 0
0, 0
0, 0
0, 0
0, 0
0, 0
0, 0
0, 0
0, 0
0, 0
0, 0
0, 0
0, 0
0, 0
0, 0
0, 0
0, 0
0, 0
0, 0
0, 0
0, 0
0, 0
0, 0
0, 0
0, 0
0, 0
0, 0
0, 0
0, 0
0, 0
0, 0
0, 0
0, 0
0, 0
0, 0
0, 0
0, 0
0, 0
0, 0
0, 0
0, 0
0, 0
0, 0
0, 0
0, 0
0, 0
0, 0
0, 0
0, 0
0, 0
0, 0
0, 0
0, 0
0, 0
0, 0
0, 0
0, 0
0, 0
0, 0
0, 0
0, 0
0, 0
0, 0
0, 0
0, 0
0, 0
0, 0
0, 0
0, 0
0, 0
0, 0
0, 0
0, 0
0, 0
0, 0
0, 0
0, 0
0, 0
0, 0
0, 0
0, 0
0, 0
0, 0
0, 0
0, 0
0, 0
0, 0
0, 0
0, 0
0, 0
0, 0
0, 0
0, 0
0, 0
0, 0
0, 0
0, 0
0, 0
0, 0
0, 0
0, 0
0, 0
0, 0
0, 0
0, 0
0, 0
0, 0
0, 0
0, 0
0, 0
0, 0
0, 0
0, 0
0, 0
0, 0
0, 0
0, 0
0, 0
0, 0
0, 0
0, 0
0, 0
0, 0
0, 0
0, 0
0, 0
0, 0
0, 0
0, 0
0, 0
0, 0
0, 0
0, 0
0, 0
0, 0
0, 0
0, 0
0, 0
0, 0
0, 0
0, 0
0, 0
0, 0
0, 0
0, 0
0, 0
0, 0
0, 0
0, 0
0, 0
0, 0
0, 0
0, 0
0, 0
0, 0
0, 0
0, 0
0, 0
0, 0
0, 0
0, 0
0, 0
#ENDOFDATA     end of spectrum data