File: host_upload/12-01-2023/Dourbes (shot-by-shot)/upload_4/ps__0257_0689790785_000rfs_shot_3261.msa
#FORMAT      : EMSA/MAS spectral data file
#VERSION     : TC202v2.0 PIXL
#TITLE       : N/A
#DATE        :       Date in the format DD-MMM-YYYY, for example 07-JUL-2010
#TIME        :             The time of day at which the spectrum was recorded, in 24-hour format
#OWNER       : PIXL Flight Model       (PIXL will use this to indicate which instrument took the data.)
#NPOINTS     : 4096     Number of data points in the spectrum (This can be zero for configuration only files)
#NCOLUMNS    : 2     Number of data columns in the spectrum (This can be zero for configuration only files)
#XUNITS      : eV
#YUNITS      : COUNTS
#DATATYPE    : YY
#XPERCHAN    : 7.862, 7.881   eV per channel (separate by commas if more than one detector)
#OFFSET      : 18.5, -22.4         eV of first channel  (separate by commas if more than one detector
#SIGNALTYPE  : XRF
#YP_TEMP     : 3.23
#LIVETIME    : 9.02984, 8.99832   seconds (separate by commas if more than one detector)
#REALTIME    : 10, 10.0   seconds (separate by commas if more than one detector)
#SPECTRUM    : start of spectrum data
0, 0
0, 0
0, 0
0, 0
0, 0
0, 0
0, 0
0, 0
0, 0
0, 0
0, 0
0, 0
0, 0
0, 0
0, 0
0, 0
0, 0
0, 0
0, 0
0, 0
0, 0
0, 0
0, 0
0, 0
0, 0
0, 0
0, 0
0, 0
0, 0
0, 0
0, 0
0, 0
0, 0
0, 1
0, 2
0, 0
0, 1
1, 0
0, 2
1, 0
0, 1
1, 2
2, 0
1, 0
0, 2
3, 0
1, 1
2, 1
7, 2
5, 6
12, 18
13, 32
38, 40
59, 55
46, 70
51, 61
35, 47
15, 21
12, 15
6, 5
2, 3
2, 2
3, 4
4, 8
6, 6
9, 5
7, 5
8, 11
15, 8
37, 37
78, 96
150, 171
287, 332
388, 495
452, 561
467, 567
384, 450
255, 303
177, 199
95, 115
39, 57
21, 26
12, 14
9, 7
2, 7
4, 1
5, 3
5, 5
4, 2
1, 1
3, 3
0, 0
3, 2
8, 2
8, 8
4, 7
16, 12
16, 17
24, 16
34, 21
22, 20
13, 11
8, 9
9, 7
10, 7
4, 2
4, 7
8, 6
7, 8
18, 14
27, 25
33, 25
43, 46
44, 42
49, 41
56, 50
57, 40
37, 29
34, 37
22, 35
19, 23
20, 23
21, 21
17, 12
20, 17
6, 13
15, 12
8, 12
5, 12
3, 4
3, 2
5, 4
0, 2
5, 0
2, 1
4, 3
2, 2
7, 1
3, 8
2, 5
2, 6
0, 3
6, 5
6, 1
5, 4
2, 4
1, 2
1, 1
1, 1
3, 3
7, 5
3, 5
5, 9
10, 15
17, 33
25, 25
17, 22
16, 27
34, 21
21, 28
11, 18
13, 13
9, 12
7, 9
1, 3
3, 1
3, 4
4, 8
8, 11
7, 5
5, 7
4, 7
8, 8
13, 5
5, 5
2, 7
2, 2
3, 4
4, 3
3, 1
3, 3
3, 2
0, 5
2, 3
5, 1
4, 7
6, 4
5, 3
5, 7
4, 11
7, 16
8, 14
7, 33
9, 32
10, 41
15, 51
17, 38
17, 26
16, 24
12, 28
14, 29
10, 17
16, 4
6, 8
6, 8
7, 5
7, 6
6, 11
4, 7
10, 7
9, 8
5, 6
3, 12
5, 9
2, 9
3, 7
6, 9
6, 9
7, 8
4, 11
8, 16
10, 9
12, 7
6, 5
10, 8
9, 12
10, 10
9, 12
13, 15
11, 7
9, 15
8, 14
6, 18
10, 12
12, 14
13, 8
7, 12
6, 4
8, 3
10, 15
5, 11
4, 8
11, 16
11, 13
19, 21
17, 34
28, 49
48, 75
69, 75
69, 99
72, 121
99, 88
89, 93
68, 88
53, 62
37, 49
30, 33
12, 32
16, 14
27, 29
19, 24
22, 35
44, 54
78, 148
162, 220
292, 481
594, 828
1010, 1424
1576, 2153
2177, 2978
2843, 3681
3329, 4167
3401, 4288
3179, 3645
2755, 3082
2125, 2233
1581, 1393
980, 869
573, 483
298, 267
135, 130
50, 60
34, 36
18, 16
18, 13
22, 4
19, 21
15, 21
21, 15
35, 16
33, 32
46, 46
63, 72
76, 112
144, 177
200, 270
262, 390
377, 434
416, 500
497, 600
506, 613
493, 484
357, 412
255, 280
204, 193
120, 126
80, 70
43, 39
21, 20
9, 9
6, 7
0, 8
6, 2
2, 2
6, 8
3, 4
8, 9
3, 5
9, 9
4, 8
3, 2
4, 3
4, 5
3, 5
5, 4
3, 3
1, 3
1, 6
2, 3
3, 3
2, 3
2, 0
1, 1
1, 2
2, 3
2, 3
2, 3
3, 3
3, 7
5, 12
4, 3
3, 4
2, 9
7, 7
5, 4
8, 5
6, 8
7, 1
8, 7
4, 2
2, 5
5, 1
1, 3
2, 6
5, 2
6, 5
0, 4
2, 7
2, 8
3, 7
3, 2
1, 3
4, 5
4, 5
7, 3
3, 4
2, 5
5, 6
4, 2
5, 5
5, 4
1, 2
3, 4
3, 5
1, 3
5, 1
9, 5
1, 1
1, 2
1, 4
2, 2
1, 1
1, 4
5, 5
2, 2
0, 4
3, 2
0, 7
0, 4
2, 1
1, 3
5, 3
4, 2
2, 3
1, 6
6, 4
5, 1
2, 3
5, 2
0, 3
3, 3
2, 4
2, 4
4, 1
2, 3
2, 5
2, 0
4, 3
3, 2
2, 1
0, 3
1, 2
3, 4
3, 3
2, 4
2, 3
1, 3
4, 2
3, 4
0, 5
2, 5
1, 4
0, 2
3, 4
2, 3
3, 2
0, 2
2, 4
1, 1
3, 7
2, 5
3, 4
0, 11
2, 5
3, 4
3, 11
2, 5
1, 2
1, 4
5, 4
2, 2
1, 3
2, 2
0, 2
3, 2
1, 1
2, 0
3, 4
1, 5
3, 0
4, 3
0, 2
2, 3
3, 4
2, 3
2, 1
1, 4
2, 3
0, 4
1, 2
2, 1
0, 0
3, 1
2, 0
1, 1
1, 4
0, 0
0, 3
1, 6
2, 1
1, 3
5, 3
0, 3
2, 3
1, 0
1, 2
1, 0
3, 2
1, 3
1, 2
0, 2
1, 1
3, 2
1, 2
0, 1
0, 0
0, 2
1, 3
2, 1
1, 3
1, 1
1, 2
1, 1
2, 1
2, 1
1, 3
2, 2
2, 1
3, 2
2, 1
2, 4
1, 4
2, 5
2, 1
3, 2
1, 0
0, 0
0, 1
3, 0
1, 1
0, 0
2, 3
4, 2
1, 4
1, 3
0, 0
1, 4
2, 2
0, 3
1, 2
2, 0
0, 1
2, 1
1, 3
4, 2
2, 2
1, 0
2, 1
1, 1
3, 1
1, 3
2, 2
3, 2
1, 1
1, 4
3, 6
4, 4
5, 5
5, 6
6, 1
7, 4
5, 11
7, 7
7, 6
6, 5
5, 6
2, 3
4, 1
2, 2
2, 1
4, 2
5, 2
2, 1
1, 0
2, 3
1, 2
0, 0
0, 1
0, 0
2, 1
1, 1
1, 1
3, 2
1, 1
2, 3
1, 1
1, 2
5, 1
2, 3
1, 4
0, 3
0, 1
1, 2
0, 0
1, 5
2, 2
4, 2
0, 1
4, 0
2, 0
2, 1
2, 1
2, 1
2, 0
1, 1
2, 2
1, 3
3, 5
2, 1
0, 0
1, 2
0, 0
1, 2
0, 0
0, 1
1, 1
1, 1
1, 2
0, 0
0, 3
0, 1
1, 3
1, 3
0, 0
1, 1
0, 0
0, 2
0, 2
0, 0
1, 2
2, 1
0, 1
0, 0
1, 1
0, 1
1, 0
1, 0
0, 1
0, 1
0, 0
1, 1
1, 0
0, 0
0, 1
1, 3
0, 1
0, 1
0, 1
0, 0
0, 0
0, 1
0, 1
0, 2
0, 0
0, 0
0, 2
0, 2
0, 0
0, 0
0, 1
1, 0
3, 2
0, 1
0, 1
0, 2
0, 0
2, 1
1, 2
0, 0
0, 0
0, 1
1, 0
1, 1
0, 0
0, 0
0, 1
0, 0
0, 0
0, 0
1, 1
0, 0
0, 0
1, 0
1, 1
0, 2
0, 2
0, 0
1, 0
0, 0
0, 0
0, 2
2, 1
2, 1
0, 1
1, 2
1, 0
1, 0
0, 0
0, 1
0, 0
0, 0
0, 0
0, 0
0, 1
1, 1
2, 1
0, 0
0, 1
1, 1
0, 0
0, 0
0, 0
0, 1
0, 1
0, 0
1, 1
0, 1
0, 0
1, 0
0, 1
1, 1
0, 2
1, 0
0, 0
1, 0
0, 0
0, 0
0, 1
0, 0
0, 0
0, 0
0, 0
0, 0
1, 0
0, 1
0, 0
0, 0
0, 1
0, 1
0, 0
0, 0
0, 1
0, 0
0, 0
1, 0
1, 2
0, 1
0, 1
0, 2
0, 0
0, 0
0, 0
0, 0
0, 0
0, 0
0, 1
0, 0
1, 0
1, 0
0, 0
0, 0
0, 0
0, 1
1, 0
0, 0
0, 0
0, 0
1, 1
0, 0
0, 1
0, 1
0, 0
0, 0
0, 0
0, 0
0, 0
1, 0
1, 0
0, 0
0, 0
0, 0
0, 0
0, 1
0, 0
0, 0
0, 0
1, 0
0, 0
0, 0
0, 0
0, 1
0, 0
0, 1
0, 1
0, 0
0, 1
0, 0
0, 0
0, 0
0, 0
0, 0
0, 2
0, 0
0, 0
0, 0
0, 0
0, 0
1, 1
0, 0
0, 0
0, 0
0, 0
1, 0
1, 1
0, 1
0, 0
0, 0
0, 0
0, 0
2, 0
0, 1
0, 0
0, 0
0, 0
0, 1
0, 0
1, 0
0, 0
1, 0
0, 0
0, 0
0, 0
0, 0
0, 0
0, 0
0, 1
0, 0
0, 0
0, 0
0, 0
0, 0
0, 0
0, 0
0, 0
0, 0
0, 0
0, 0
0, 0
0, 1
0, 0
0, 2
0, 0
0, 0
0, 0
0, 0
0, 0
0, 0
0, 0
0, 0
0, 0
0, 0
0, 0
0, 0
0, 0
0, 0
0, 0
0, 0
0, 0
0, 0
0, 1
0, 0
0, 0
0, 0
0, 0
0, 0
0, 0
1, 2
0, 0
0, 0
1, 1
0, 0
1, 0
0, 0
0, 0
0, 0
0, 0
0, 0
0, 0
1, 0
0, 0
0, 0
1, 0
0, 0
0, 0
0, 0
1, 0
0, 0
0, 0
0, 0
0, 0
0, 0
0, 0
0, 0
0, 0
0, 0
0, 0
0, 1
0, 0
0, 0
0, 0
0, 0
0, 0
0, 0
0, 0
0, 1
1, 0
0, 0
0, 0
0, 1
0, 0
0, 0
0, 0
0, 0
0, 0
0, 0
0, 0
0, 0
0, 0
0, 0
0, 0
0, 0
0, 0
0, 0
0, 0
0, 0
0, 0
0, 0
0, 0
0, 0
0, 0
0, 0
0, 0
0, 0
0, 0
0, 0
0, 0
0, 0
0, 0
0, 0
0, 0
0, 0
0, 0
0, 0
0, 0
0, 0
0, 0
0, 0
0, 0
0, 0
0, 0
0, 0
0, 0
0, 0
0, 0
0, 0
0, 0
0, 0
0, 0
0, 0
0, 0
0, 0
0, 0
0, 0
0, 0
0, 0
0, 0
0, 0
0, 0
0, 0
0, 0
0, 0
0, 0
0, 0
0, 0
0, 0
0, 0
0, 0
0, 0
0, 0
0, 0
0, 0
0, 0
0, 0
0, 0
0, 0
0, 0
0, 0
0, 0
0, 0
0, 0
0, 0
0, 0
0, 0
0, 0
0, 0
0, 0
0, 0
0, 0
0, 0
0, 0
0, 0
0, 0
0, 0
0, 0
0, 0
0, 0
0, 0
0, 0
0, 0
0, 0
0, 0
0, 0
0, 0
0, 0
0, 0
0, 0
0, 0
0, 0
0, 0
0, 0
0, 0
0, 0
0, 0
0, 0
0, 0
0, 0
0, 0
0, 0
0, 0
0, 0
0, 0
0, 0
0, 0
0, 0
0, 0
0, 0
0, 0
0, 0
0, 0
0, 0
0, 0
0, 0
0, 0
0, 0
0, 0
0, 0
0, 0
0, 0
0, 0
0, 0
0, 0
0, 0
0, 0
0, 0
0, 0
0, 0
0, 0
0, 0
0, 0
0, 0
0, 0
0, 0
0, 0
0, 0
0, 0
0, 0
0, 0
0, 0
0, 0
0, 0
0, 0
0, 0
0, 0
0, 0
0, 0
0, 0
0, 0
0, 0
0, 0
0, 0
0, 0
0, 0
0, 0
0, 0
0, 0
0, 0
0, 0
0, 0
0, 0
0, 0
0, 0
0, 0
0, 0
0, 0
0, 0
0, 0
0, 0
0, 0
0, 0
0, 0
0, 0
0, 0
0, 0
0, 0
0, 0
0, 0
0, 0
0, 0
0, 0
0, 0
0, 0
0, 0
0, 0
0, 0
0, 0
0, 0
0, 0
0, 0
0, 0
0, 0
0, 0
0, 0
0, 0
0, 0
0, 0
0, 0
0, 0
0, 0
0, 0
0, 0
0, 0
0, 0
0, 0
0, 0
0, 0
0, 0
0, 0
0, 0
0, 0
0, 0
0, 0
0, 0
0, 0
0, 0
0, 0
0, 0
0, 0
0, 0
0, 0
0, 0
0, 0
0, 0
0, 0
0, 0
0, 0
0, 0
0, 0
0, 0
0, 0
0, 0
0, 0
0, 0
0, 0
0, 0
0, 0
0, 0
0, 0
0, 0
0, 0
0, 0
0, 0
0, 0
0, 0
0, 0
0, 0
0, 0
0, 0
0, 0
0, 0
0, 0
0, 0
0, 0
0, 0
0, 0
0, 0
0, 0
0, 0
0, 0
0, 0
0, 0
0, 0
0, 0
0, 0
0, 0
0, 0
0, 0
0, 0
0, 0
0, 0
0, 0
0, 0
0, 0
0, 0
0, 0
0, 0
0, 0
0, 0
0, 0
0, 0
0, 0
0, 0
0, 0
0, 0
0, 0
0, 0
0, 0
0, 0
0, 0
0, 0
0, 0
0, 0
0, 0
0, 0
0, 0
0, 0
0, 0
0, 0
0, 0
0, 0
0, 0
0, 0
0, 0
0, 0
0, 0
0, 0
0, 0
0, 0
0, 0
0, 0
0, 0
0, 0
0, 0
0, 0
0, 0
0, 0
0, 0
0, 0
0, 0
0, 0
0, 0
0, 0
0, 0
0, 0
0, 0
0, 0
0, 0
0, 0
0, 0
0, 0
0, 0
0, 0
0, 0
0, 0
0, 0
0, 0
0, 0
0, 0
0, 0
0, 0
0, 0
0, 0
0, 0
0, 0
0, 0
0, 0
0, 0
0, 0
0, 0
0, 0
0, 0
0, 0
0, 0
0, 0
0, 0
0, 0
0, 0
0, 0
0, 0
0, 0
0, 0
0, 0
0, 0
0, 0
0, 0
0, 0
0, 0
0, 0
0, 0
0, 0
0, 0
0, 0
0, 0
0, 0
0, 0
0, 0
0, 0
0, 0
0, 0
0, 0
0, 0
0, 0
0, 0
0, 0
0, 0
0, 0
0, 0
0, 0
0, 0
0, 0
0, 0
0, 0
0, 0
0, 0
0, 0
0, 0
0, 0
0, 0
0, 0
0, 0
0, 0
0, 0
0, 0
0, 0
0, 0
0, 0
0, 0
0, 0
0, 0
0, 0
0, 0
0, 0
0, 0
0, 0
0, 0
0, 0
0, 0
0, 0
0, 0
0, 0
0, 0
0, 0
0, 0
0, 0
0, 0
0, 0
0, 0
0, 0
0, 0
0, 0
0, 0
0, 0
0, 0
0, 0
0, 0
0, 0
0, 0
0, 0
0, 0
0, 0
0, 0
0, 0
0, 0
0, 0
0, 0
0, 0
0, 0
#ENDOFDATA     end of spectrum data