File: host_upload/12-01-2023/Dourbes (shot-by-shot)/upload_4/ps__0257_0689790785_000rfs_shot_3093.msa
#FORMAT      : EMSA/MAS spectral data file
#VERSION     : TC202v2.0 PIXL
#TITLE       : N/A
#DATE        :       Date in the format DD-MMM-YYYY, for example 07-JUL-2010
#TIME        :             The time of day at which the spectrum was recorded, in 24-hour format
#OWNER       : PIXL Flight Model       (PIXL will use this to indicate which instrument took the data.)
#NPOINTS     : 4096     Number of data points in the spectrum (This can be zero for configuration only files)
#NCOLUMNS    : 2     Number of data columns in the spectrum (This can be zero for configuration only files)
#XUNITS      : eV
#YUNITS      : COUNTS
#DATATYPE    : YY
#XPERCHAN    : 7.862, 7.881   eV per channel (separate by commas if more than one detector)
#OFFSET      : 18.5, -22.4         eV of first channel  (separate by commas if more than one detector
#SIGNALTYPE  : XRF
#YP_TEMP     : 3.165
#LIVETIME    : 8.99746, 8.98895   seconds (separate by commas if more than one detector)
#REALTIME    : 10, 10.0   seconds (separate by commas if more than one detector)
#SPECTRUM    : start of spectrum data
0, 0
0, 0
0, 0
0, 0
0, 0
0, 0
0, 0
0, 0
0, 0
0, 0
0, 0
0, 0
0, 0
0, 0
0, 0
0, 0
0, 0
0, 0
0, 0
0, 0
0, 0
0, 0
0, 0
0, 0
0, 0
0, 0
0, 0
0, 0
0, 0
0, 0
0, 0
0, 0
0, 0
0, 0
0, 0
1, 0
0, 0
0, 0
0, 0
2, 2
0, 0
1, 1
1, 0
0, 0
0, 1
2, 0
2, 2
1, 1
5, 4
11, 5
6, 10
30, 32
35, 33
48, 50
50, 58
72, 52
34, 46
24, 21
19, 15
6, 7
3, 3
1, 1
2, 4
4, 4
1, 6
4, 9
7, 2
5, 5
13, 16
30, 32
76, 52
143, 139
285, 299
394, 353
473, 471
430, 482
429, 394
290, 303
168, 163
104, 95
48, 42
30, 25
12, 14
4, 5
7, 2
6, 8
4, 2
0, 4
1, 2
1, 1
0, 5
0, 1
2, 3
4, 1
3, 5
5, 5
6, 2
2, 5
6, 3
7, 8
2, 5
4, 6
5, 10
4, 6
3, 12
3, 8
2, 10
4, 13
5, 12
10, 11
17, 20
27, 28
19, 27
34, 51
47, 39
49, 44
49, 33
46, 34
35, 27
30, 23
22, 18
29, 24
27, 22
21, 20
17, 21
19, 19
10, 12
16, 6
8, 9
6, 11
3, 6
4, 4
4, 3
3, 2
1, 1
2, 4
4, 5
2, 0
1, 3
7, 2
5, 5
1, 7
3, 3
2, 2
4, 3
7, 3
2, 2
2, 5
4, 5
3, 6
4, 4
4, 5
8, 13
15, 27
21, 30
37, 42
42, 57
36, 62
39, 45
35, 34
38, 30
15, 29
14, 13
13, 17
13, 18
16, 32
29, 26
42, 29
41, 40
60, 36
34, 21
44, 20
26, 11
19, 17
19, 7
17, 9
8, 3
6, 3
8, 8
6, 2
10, 4
7, 3
3, 3
2, 3
4, 4
4, 5
5, 6
8, 7
10, 6
8, 12
16, 18
20, 16
23, 10
16, 17
19, 13
27, 17
18, 21
19, 21
15, 24
19, 25
18, 15
9, 10
9, 10
16, 9
14, 4
10, 12
3, 10
7, 13
6, 15
8, 13
7, 17
11, 14
8, 13
5, 12
9, 14
7, 10
4, 7
14, 9
5, 3
2, 8
9, 4
1, 6
8, 8
10, 5
11, 12
12, 12
19, 8
13, 14
15, 20
30, 23
17, 27
17, 18
21, 16
22, 17
20, 13
27, 10
17, 9
15, 13
25, 17
9, 8
16, 12
8, 11
7, 8
16, 17
18, 13
21, 26
30, 43
57, 62
76, 79
87, 90
107, 101
106, 97
79, 97
85, 85
55, 55
47, 35
31, 34
31, 26
16, 19
25, 18
19, 29
32, 38
43, 63
90, 96
174, 208
331, 395
602, 813
1074, 1336
1711, 2023
2426, 2809
3062, 3612
3568, 3981
3763, 3937
3574, 3656
3110, 2981
2431, 2202
1768, 1516
1076, 917
674, 484
338, 261
187, 136
66, 64
40, 24
19, 18
17, 24
21, 20
20, 21
28, 16
22, 24
24, 31
26, 38
39, 56
55, 116
108, 117
133, 197
206, 287
291, 387
377, 497
453, 553
550, 564
563, 529
485, 501
393, 380
326, 290
242, 203
154, 116
88, 73
44, 32
34, 12
18, 8
6, 3
11, 9
9, 4
4, 7
4, 13
7, 7
8, 10
12, 10
3, 10
6, 7
7, 4
5, 2
6, 3
2, 8
1, 3
4, 3
2, 5
4, 5
1, 7
1, 6
1, 13
4, 10
2, 6
4, 7
3, 14
5, 17
6, 15
4, 15
3, 7
3, 7
6, 4
6, 7
9, 4
5, 8
5, 12
5, 7
3, 3
2, 4
3, 4
3, 5
3, 6
8, 8
3, 3
2, 6
2, 6
0, 8
8, 7
5, 10
2, 12
4, 4
3, 5
5, 2
0, 3
1, 5
7, 6
5, 3
0, 3
4, 1
1, 6
1, 5
0, 2
4, 5
2, 2
5, 9
0, 2
4, 11
7, 6
3, 7
3, 10
4, 11
0, 3
2, 4
0, 2
2, 6
2, 1
3, 3
1, 3
0, 1
5, 1
5, 2
3, 3
6, 2
3, 4
2, 4
3, 4
5, 2
2, 2
3, 3
0, 8
2, 4
4, 1
5, 6
0, 5
2, 2
6, 3
0, 3
6, 3
5, 5
9, 4
8, 2
3, 1
2, 2
3, 0
3, 3
2, 2
2, 0
4, 1
4, 2
3, 1
3, 1
2, 1
1, 4
6, 2
5, 5
2, 2
3, 4
5, 2
3, 3
2, 1
4, 3
4, 0
3, 2
4, 2
9, 4
4, 1
10, 4
5, 3
5, 3
10, 1
11, 4
10, 3
7, 2
6, 3
6, 2
7, 1
1, 2
8, 5
0, 3
4, 2
1, 0
0, 4
3, 6
2, 5
2, 5
1, 1
2, 2
5, 1
1, 2
3, 6
0, 9
1, 8
2, 6
1, 8
4, 11
1, 7
2, 10
1, 5
4, 4
1, 7
2, 7
4, 2
2, 0
4, 6
4, 1
3, 1
7, 3
3, 1
2, 2
3, 1
1, 0
5, 3
2, 5
0, 3
1, 2
2, 2
1, 2
1, 3
1, 2
4, 4
2, 0
2, 6
2, 1
0, 2
1, 1
5, 1
3, 1
1, 3
2, 0
4, 2
1, 1
1, 2
0, 2
2, 2
2, 2
5, 0
5, 4
2, 1
2, 3
2, 1
1, 2
0, 2
0, 1
4, 2
3, 1
2, 1
6, 0
1, 1
2, 3
3, 3
3, 5
2, 4
0, 2
1, 0
1, 2
2, 2
1, 1
3, 2
2, 2
1, 1
2, 4
2, 1
3, 4
3, 1
3, 1
2, 3
3, 3
3, 2
1, 4
4, 5
9, 3
10, 5
5, 8
4, 6
7, 7
6, 6
7, 8
4, 10
4, 2
5, 3
3, 1
2, 4
4, 5
2, 0
0, 2
1, 3
0, 3
0, 1
1, 1
0, 4
0, 1
0, 4
2, 0
1, 2
2, 0
0, 1
1, 1
1, 2
4, 2
0, 5
2, 0
3, 5
3, 4
2, 1
1, 2
3, 2
3, 1
1, 4
4, 1
2, 1
1, 0
2, 2
0, 2
1, 1
1, 1
3, 3
3, 1
2, 0
0, 1
0, 2
1, 0
1, 1
2, 4
0, 2
1, 1
1, 1
3, 0
1, 1
0, 0
0, 0
2, 3
1, 1
2, 1
4, 2
5, 1
0, 0
2, 1
1, 0
2, 4
5, 1
2, 0
2, 1
2, 0
4, 1
1, 0
3, 3
2, 0
1, 0
2, 2
1, 0
2, 0
1, 1
0, 2
1, 0
0, 1
0, 1
0, 0
0, 1
0, 0
2, 5
1, 1
0, 1
0, 1
2, 1
2, 2
1, 1
2, 2
2, 0
0, 1
1, 0
2, 1
2, 0
0, 0
1, 0
1, 0
2, 0
1, 0
2, 1
0, 0
0, 1
1, 0
3, 1
0, 2
1, 0
0, 0
0, 0
0, 0
0, 4
1, 0
0, 0
1, 0
0, 0
1, 0
0, 0
0, 4
0, 0
0, 0
0, 1
1, 0
0, 0
0, 0
1, 0
0, 0
0, 0
0, 1
1, 0
1, 0
0, 0
0, 0
0, 0
1, 0
0, 1
0, 0
0, 0
1, 0
1, 0
0, 0
0, 1
1, 0
0, 1
0, 1
0, 1
0, 0
0, 2
0, 0
1, 0
0, 0
0, 0
0, 1
0, 1
2, 1
1, 0
0, 0
0, 1
0, 0
1, 0
0, 0
1, 1
1, 0
1, 0
0, 1
0, 0
0, 0
1, 2
0, 1
0, 0
0, 1
0, 0
0, 1
0, 0
1, 0
0, 0
0, 1
0, 0
0, 1
0, 0
1, 0
1, 1
0, 0
0, 0
0, 0
0, 0
0, 0
1, 0
1, 0
1, 0
0, 0
1, 0
0, 0
0, 1
0, 0
2, 0
0, 0
0, 1
0, 0
1, 0
0, 0
0, 0
0, 1
1, 0
0, 0
0, 0
0, 0
0, 0
2, 1
0, 1
0, 0
0, 0
0, 0
0, 1
0, 0
0, 0
1, 1
0, 0
2, 0
0, 0
0, 0
0, 0
0, 1
1, 0
0, 0
0, 0
0, 0
0, 2
1, 0
0, 0
0, 1
0, 0
0, 0
0, 0
0, 0
0, 0
0, 0
0, 0
0, 0
0, 0
2, 0
0, 0
0, 0
0, 0
0, 0
0, 0
0, 0
0, 2
0, 0
0, 1
1, 0
0, 0
0, 0
0, 0
0, 0
0, 1
0, 0
0, 0
0, 0
0, 0
1, 0
0, 0
0, 0
0, 0
0, 0
1, 0
0, 0
0, 0
1, 1
0, 0
0, 0
0, 0
0, 0
1, 0
0, 0
0, 0
0, 0
0, 1
0, 0
0, 0
0, 0
0, 0
1, 1
0, 0
0, 0
1, 0
1, 0
0, 2
0, 0
0, 0
0, 0
0, 0
0, 0
0, 0
0, 0
0, 0
0, 1
0, 0
0, 0
0, 0
2, 0
1, 0
0, 0
0, 0
0, 2
0, 1
0, 1
0, 0
0, 0
0, 0
0, 0
0, 0
0, 0
0, 0
0, 0
0, 0
0, 0
0, 0
0, 0
0, 0
1, 0
0, 0
0, 0
0, 0
0, 0
1, 0
0, 0
1, 0
0, 0
0, 0
0, 0
0, 0
0, 0
0, 0
0, 0
0, 0
0, 0
0, 0
0, 0
0, 0
0, 0
0, 0
0, 0
0, 0
0, 0
0, 0
0, 0
0, 0
0, 0
0, 0
0, 0
0, 0
0, 0
0, 0
0, 0
0, 0
0, 0
0, 0
0, 0
0, 0
0, 0
0, 0
0, 0
0, 0
0, 0
0, 0
0, 0
0, 0
1, 0
0, 0
0, 0
0, 0
0, 0
0, 0
0, 0
0, 0
0, 0
0, 1
0, 0
0, 0
0, 0
0, 0
0, 0
0, 0
0, 0
0, 0
0, 0
0, 0
0, 0
0, 0
0, 0
0, 0
0, 0
0, 0
0, 0
0, 0
0, 0
0, 0
0, 0
0, 0
0, 0
0, 0
0, 0
0, 0
0, 0
0, 0
0, 0
0, 0
0, 0
0, 0
0, 0
0, 0
0, 0
0, 0
0, 0
0, 0
0, 0
1, 0
1, 0
0, 0
0, 0
0, 0
0, 0
0, 0
0, 0
0, 0
0, 1
0, 0
0, 0
0, 0
0, 0
0, 0
0, 0
0, 0
0, 0
0, 0
0, 0
0, 0
0, 0
0, 0
0, 0
0, 0
0, 0
0, 0
0, 0
1, 0
0, 0
0, 0
0, 0
0, 0
0, 0
0, 0
1, 0
0, 0
0, 0
0, 0
0, 0
0, 0
0, 0
0, 0
1, 0
0, 0
0, 0
0, 0
0, 0
0, 0
0, 0
0, 0
0, 0
0, 0
0, 0
0, 0
0, 0
0, 0
0, 0
0, 0
0, 0
0, 0
0, 0
0, 0
0, 0
0, 0
0, 0
0, 0
0, 0
0, 0
0, 0
0, 0
0, 0
0, 0
0, 0
0, 0
0, 0
0, 0
0, 0
0, 0
0, 0
0, 0
0, 0
0, 0
0, 0
0, 0
0, 0
0, 0
0, 0
0, 0
0, 0
0, 0
0, 0
0, 0
0, 0
0, 0
0, 0
0, 0
0, 0
0, 0
0, 0
0, 0
0, 0
0, 0
0, 0
0, 0
0, 0
0, 0
0, 0
0, 0
0, 0
0, 0
0, 0
1, 0
0, 0
0, 0
0, 0
0, 0
0, 0
0, 0
0, 0
0, 0
0, 0
0, 0
0, 0
0, 0
0, 0
0, 0
0, 0
0, 0
0, 0
0, 0
0, 0
0, 0
0, 0
0, 0
0, 0
0, 0
0, 0
0, 0
0, 0
0, 0
0, 0
0, 0
0, 0
0, 0
0, 0
0, 0
0, 0
0, 0
0, 0
0, 0
0, 0
0, 0
0, 0
0, 0
0, 0
0, 0
0, 0
0, 0
0, 0
0, 0
0, 0
0, 0
0, 0
0, 0
0, 0
0, 0
0, 0
0, 0
0, 0
0, 0
0, 0
0, 0
0, 0
0, 0
0, 0
0, 0
0, 0
0, 0
0, 0
0, 0
0, 0
0, 0
0, 0
0, 0
0, 0
0, 0
0, 0
0, 0
0, 0
0, 0
0, 0
0, 0
0, 0
0, 0
0, 0
0, 0
0, 0
0, 0
0, 0
0, 0
0, 0
0, 0
0, 0
0, 0
0, 0
0, 0
0, 0
0, 0
0, 0
0, 0
0, 0
0, 0
0, 0
0, 0
0, 0
0, 0
0, 0
0, 0
0, 0
0, 0
0, 0
0, 0
0, 0
0, 0
0, 0
0, 0
0, 0
0, 0
0, 0
0, 0
0, 0
0, 0
0, 0
0, 0
0, 0
0, 0
0, 0
0, 0
0, 0
0, 0
0, 0
0, 0
0, 0
0, 0
0, 0
0, 0
0, 0
0, 0
0, 0
0, 0
0, 0
0, 0
0, 0
0, 0
0, 0
0, 0
0, 0
0, 0
0, 0
0, 0
0, 0
0, 0
0, 0
0, 0
0, 0
0, 0
0, 0
0, 0
0, 0
0, 0
0, 0
0, 0
0, 0
0, 0
0, 0
0, 0
0, 0
0, 0
0, 0
0, 0
0, 0
0, 0
0, 0
0, 0
0, 0
0, 0
0, 0
0, 0
0, 0
0, 0
0, 0
0, 0
0, 0
0, 0
0, 0
0, 0
0, 0
0, 0
0, 0
0, 0
0, 0
0, 0
0, 0
0, 0
0, 0
0, 0
0, 0
0, 0
0, 0
0, 0
0, 0
0, 0
0, 0
0, 0
0, 0
0, 0
0, 0
0, 0
0, 0
0, 0
0, 0
0, 0
0, 0
0, 0
0, 0
0, 0
0, 0
0, 0
0, 0
0, 0
0, 0
0, 0
0, 0
0, 0
0, 0
0, 0
0, 0
0, 0
0, 0
0, 0
0, 0
0, 0
0, 0
0, 0
0, 0
0, 0
0, 0
0, 0
0, 0
0, 0
0, 0
0, 0
0, 0
0, 0
0, 0
0, 0
0, 0
0, 0
0, 0
0, 0
0, 0
0, 0
0, 0
0, 0
0, 0
0, 0
0, 0
0, 0
0, 0
0, 0
0, 0
0, 0
0, 0
0, 0
0, 0
0, 0
0, 0
0, 0
0, 0
0, 0
0, 0
0, 0
0, 0
0, 0
0, 0
0, 0
0, 0
0, 0
0, 0
0, 0
0, 0
0, 0
0, 0
0, 0
0, 0
0, 0
0, 0
0, 0
0, 0
0, 0
0, 0
0, 0
0, 0
#ENDOFDATA     end of spectrum data