File: host_upload/12-01-2023/Dourbes (shot-by-shot)/upload_4/ps__0257_0689790785_000rfs_shot_3010.msa
#FORMAT      : EMSA/MAS spectral data file
#VERSION     : TC202v2.0 PIXL
#TITLE       : N/A
#DATE        :       Date in the format DD-MMM-YYYY, for example 07-JUL-2010
#TIME        :             The time of day at which the spectrum was recorded, in 24-hour format
#OWNER       : PIXL Flight Model       (PIXL will use this to indicate which instrument took the data.)
#NPOINTS     : 4096     Number of data points in the spectrum (This can be zero for configuration only files)
#NCOLUMNS    : 2     Number of data columns in the spectrum (This can be zero for configuration only files)
#XUNITS      : eV
#YUNITS      : COUNTS
#DATATYPE    : YY
#XPERCHAN    : 7.862, 7.881   eV per channel (separate by commas if more than one detector)
#OFFSET      : 18.5, -22.4         eV of first channel  (separate by commas if more than one detector
#SIGNALTYPE  : XRF
#YP_TEMP     : 2.941
#LIVETIME    : 9.06902, 9.09153   seconds (separate by commas if more than one detector)
#REALTIME    : 10, 10.0   seconds (separate by commas if more than one detector)
#SPECTRUM    : start of spectrum data
0, 0
0, 0
0, 0
0, 0
0, 0
0, 0
0, 0
0, 0
0, 0
0, 0
0, 0
0, 0
0, 0
0, 0
0, 0
0, 0
0, 0
0, 0
0, 0
0, 0
0, 0
0, 0
0, 0
0, 0
0, 0
0, 0
0, 0
0, 0
0, 0
0, 0
0, 0
0, 0
0, 0
0, 0
1, 1
0, 2
1, 2
0, 0
1, 2
3, 1
6, 1
2, 4
2, 6
2, 1
4, 3
3, 1
5, 0
1, 2
4, 2
4, 3
8, 2
14, 14
34, 26
45, 39
53, 38
58, 28
29, 29
23, 15
13, 7
6, 6
4, 2
5, 2
11, 2
8, 2
7, 10
9, 4
5, 3
7, 11
28, 16
55, 39
121, 111
232, 203
408, 323
610, 536
691, 633
722, 584
605, 517
456, 383
253, 256
158, 127
70, 61
37, 33
17, 11
18, 15
8, 9
2, 2
3, 3
5, 3
0, 3
4, 2
7, 3
0, 3
4, 3
10, 7
16, 13
17, 13
35, 28
38, 44
48, 55
52, 46
53, 45
26, 33
22, 14
11, 12
11, 13
10, 14
12, 12
28, 21
40, 42
60, 61
93, 98
139, 139
179, 163
200, 181
217, 200
219, 198
230, 160
156, 109
126, 76
96, 75
83, 43
66, 55
30, 37
38, 34
34, 32
32, 29
25, 27
23, 18
17, 20
12, 23
15, 15
15, 8
7, 5
8, 4
6, 0
7, 3
1, 5
7, 6
4, 4
4, 3
8, 4
8, 14
10, 5
7, 5
8, 3
7, 1
6, 4
2, 5
5, 3
9, 3
12, 12
18, 8
30, 20
45, 49
67, 67
101, 82
105, 112
118, 117
121, 98
94, 82
80, 57
45, 32
38, 23
17, 12
4, 4
5, 5
13, 11
15, 11
17, 18
18, 15
23, 26
21, 19
20, 13
28, 22
14, 7
19, 12
13, 12
11, 12
10, 10
13, 10
8, 7
6, 11
10, 7
8, 4
8, 9
11, 8
8, 10
11, 6
12, 14
13, 12
17, 10
12, 18
20, 12
23, 22
32, 24
22, 23
34, 29
23, 34
19, 28
27, 18
36, 24
22, 24
17, 14
12, 21
15, 16
9, 10
9, 12
7, 8
8, 5
17, 8
10, 8
14, 15
16, 4
10, 9
17, 12
15, 15
8, 8
9, 17
19, 9
13, 22
10, 12
21, 8
22, 13
18, 9
17, 14
20, 17
15, 9
16, 14
16, 12
22, 17
14, 16
21, 16
11, 22
10, 14
16, 8
9, 15
14, 16
17, 9
13, 9
13, 10
13, 16
18, 7
19, 12
17, 13
15, 24
21, 22
36, 42
72, 53
62, 60
89, 84
91, 66
90, 71
83, 66
62, 78
50, 46
45, 20
34, 25
25, 22
23, 13
23, 20
27, 25
26, 23
44, 39
62, 83
142, 132
244, 296
454, 479
736, 844
1185, 1223
1678, 1678
2179, 2199
2667, 2351
2854, 2420
2813, 2214
2372, 1787
1815, 1259
1312, 909
777, 614
479, 288
290, 183
165, 87
87, 45
43, 34
23, 21
23, 21
22, 16
20, 18
33, 20
31, 25
31, 23
30, 35
46, 45
66, 50
94, 59
124, 115
176, 167
229, 251
279, 294
340, 327
410, 354
396, 363
352, 329
336, 283
230, 189
172, 134
115, 91
77, 47
40, 30
21, 12
16, 11
14, 7
7, 8
8, 7
8, 4
6, 4
8, 6
4, 4
8, 9
17, 8
11, 9
13, 6
8, 7
12, 9
14, 6
9, 6
4, 10
3, 8
5, 4
11, 2
7, 3
8, 2
9, 7
8, 5
5, 5
3, 6
6, 4
7, 7
12, 4
5, 9
9, 5
7, 11
7, 3
6, 12
8, 6
3, 5
6, 6
10, 4
9, 10
5, 6
14, 6
10, 3
11, 7
10, 7
11, 4
3, 3
8, 3
6, 2
9, 8
10, 8
5, 5
10, 7
5, 7
6, 6
5, 9
6, 5
12, 9
10, 14
8, 7
9, 3
2, 10
11, 3
12, 2
8, 7
3, 3
9, 6
6, 8
10, 5
7, 4
10, 5
5, 2
8, 5
9, 7
4, 5
8, 7
8, 7
5, 8
2, 8
4, 2
11, 3
4, 11
7, 4
0, 3
4, 3
6, 7
4, 5
4, 3
4, 3
4, 2
6, 5
9, 4
6, 2
4, 4
5, 3
6, 6
2, 9
6, 6
5, 4
6, 6
4, 5
4, 5
7, 3
2, 8
8, 7
6, 2
4, 4
5, 2
5, 6
1, 5
4, 4
4, 4
0, 5
5, 4
8, 3
5, 3
4, 3
4, 8
4, 6
6, 6
2, 5
1, 2
4, 5
7, 7
4, 2
2, 4
5, 2
4, 4
5, 3
6, 4
6, 3
10, 2
4, 8
5, 5
4, 3
5, 4
3, 5
4, 5
6, 3
4, 4
3, 3
3, 2
1, 5
1, 5
3, 2
5, 1
1, 4
2, 0
2, 3
5, 4
2, 5
2, 2
6, 5
3, 3
6, 2
2, 0
5, 3
3, 2
6, 4
2, 2
3, 3
1, 2
5, 3
4, 2
3, 7
4, 4
4, 5
8, 3
5, 2
2, 8
6, 7
2, 3
6, 7
3, 4
0, 8
2, 0
5, 1
1, 4
1, 3
5, 6
2, 1
1, 4
3, 1
3, 4
2, 3
0, 4
4, 1
3, 2
4, 4
2, 0
2, 5
1, 3
3, 2
2, 3
5, 5
5, 5
2, 2
4, 4
4, 3
2, 6
5, 1
3, 4
0, 1
6, 3
4, 4
4, 0
1, 7
2, 1
4, 1
1, 1
3, 3
3, 3
1, 3
0, 2
2, 1
1, 0
3, 0
3, 2
3, 4
2, 0
1, 1
1, 5
2, 2
2, 1
3, 2
0, 3
2, 3
2, 5
2, 4
4, 3
7, 5
1, 3
1, 3
5, 8
3, 5
3, 3
7, 4
5, 1
1, 2
3, 4
1, 3
2, 3
2, 3
4, 2
2, 3
2, 4
0, 1
0, 1
1, 0
1, 2
1, 0
2, 2
2, 0
2, 2
2, 0
1, 1
1, 3
1, 1
0, 2
2, 3
1, 1
0, 2
3, 2
3, 2
2, 4
4, 4
2, 1
4, 1
3, 2
1, 1
0, 0
2, 1
1, 4
2, 3
1, 2
2, 1
1, 1
4, 0
0, 0
2, 2
2, 2
1, 1
2, 0
0, 0
1, 0
0, 3
1, 0
2, 2
5, 0
1, 3
2, 3
3, 2
0, 0
1, 1
1, 0
3, 1
2, 1
1, 2
2, 0
0, 0
0, 1
1, 2
0, 1
1, 3
2, 1
0, 0
1, 1
1, 2
1, 0
1, 2
0, 1
2, 0
0, 0
1, 4
0, 1
1, 1
0, 0
2, 1
1, 1
1, 2
1, 2
0, 0
0, 1
1, 1
0, 1
1, 0
1, 0
2, 1
0, 0
2, 3
0, 0
0, 0
3, 1
0, 0
1, 1
0, 2
1, 1
2, 1
0, 0
1, 1
1, 2
0, 2
0, 0
1, 0
0, 0
1, 0
0, 2
0, 0
1, 0
2, 0
0, 1
1, 0
0, 1
0, 1
0, 1
1, 1
1, 2
1, 1
0, 0
0, 0
0, 1
1, 0
0, 0
1, 0
0, 1
0, 0
1, 0
0, 1
1, 0
2, 0
1, 2
0, 0
0, 0
0, 1
0, 0
0, 2
2, 0
0, 0
0, 0
0, 2
1, 1
0, 0
1, 1
0, 0
0, 1
0, 0
0, 1
3, 0
1, 0
0, 1
0, 0
0, 0
1, 0
0, 0
1, 1
1, 0
0, 0
1, 0
1, 0
0, 1
0, 0
0, 0
0, 0
2, 0
0, 0
0, 1
0, 1
0, 0
0, 0
0, 1
0, 0
0, 0
0, 0
0, 0
0, 0
1, 0
0, 0
0, 1
0, 1
0, 0
0, 0
0, 1
0, 2
0, 0
0, 0
0, 0
1, 0
0, 0
0, 0
0, 0
1, 0
0, 0
0, 0
1, 1
0, 0
1, 0
0, 0
0, 0
0, 1
0, 0
0, 0
0, 1
0, 0
0, 0
1, 0
0, 0
0, 0
0, 0
1, 1
0, 1
1, 0
0, 0
0, 0
0, 0
0, 0
0, 0
0, 0
0, 0
0, 0
0, 0
0, 0
0, 0
2, 0
2, 0
0, 0
1, 0
0, 0
0, 0
0, 0
0, 0
0, 0
0, 0
1, 0
1, 1
0, 0
0, 0
0, 0
0, 0
0, 1
0, 0
0, 0
1, 0
1, 0
0, 0
0, 0
0, 0
0, 0
0, 0
0, 0
0, 3
0, 0
0, 0
0, 1
0, 0
0, 0
0, 1
1, 0
0, 0
0, 1
1, 0
1, 0
0, 0
2, 0
0, 1
0, 0
0, 0
0, 0
0, 0
0, 0
0, 0
1, 0
1, 0
0, 0
0, 0
0, 0
0, 0
0, 0
1, 0
0, 0
0, 0
0, 1
0, 0
0, 1
0, 0
0, 0
1, 0
0, 0
0, 0
1, 0
0, 0
0, 0
0, 0
1, 0
0, 0
0, 0
1, 0
0, 0
0, 0
0, 0
0, 0
1, 0
1, 0
0, 0
0, 0
0, 0
0, 0
0, 1
1, 0
0, 0
0, 1
0, 0
0, 0
0, 0
0, 0
0, 0
0, 0
0, 0
0, 0
0, 0
0, 0
0, 0
0, 0
0, 0
0, 0
0, 0
0, 0
0, 0
0, 1
0, 0
0, 0
0, 0
0, 0
0, 0
0, 0
0, 0
0, 0
0, 0
0, 0
0, 0
0, 1
0, 0
0, 0
0, 0
0, 0
0, 0
0, 0
0, 0
0, 0
0, 0
0, 0
0, 1
0, 0
0, 0
0, 0
0, 0
0, 0
0, 0
1, 0
0, 0
0, 0
0, 0
0, 0
0, 0
0, 0
0, 0
0, 0
0, 0
0, 0
0, 0
0, 0
0, 0
0, 0
0, 0
0, 0
0, 0
0, 0
0, 0
0, 0
0, 0
0, 0
0, 0
0, 0
0, 0
0, 0
0, 0
0, 0
0, 0
0, 0
0, 0
0, 0
0, 0
0, 1
0, 0
0, 0
0, 0
0, 0
0, 0
0, 0
0, 0
0, 0
0, 0
0, 0
0, 1
0, 0
0, 0
0, 0
0, 0
0, 0
0, 0
0, 0
0, 0
0, 0
0, 0
0, 0
0, 0
0, 0
0, 0
0, 0
0, 0
0, 0
0, 0
0, 0
0, 0
0, 0
0, 0
0, 0
0, 0
0, 0
0, 0
0, 0
0, 0
0, 0
0, 0
0, 0
0, 0
0, 0
0, 0
0, 0
0, 0
0, 0
0, 0
0, 0
0, 0
0, 0
0, 0
0, 0
0, 0
0, 0
0, 0
0, 0
0, 0
0, 0
0, 0
0, 0
0, 0
0, 0
0, 0
0, 0
0, 0
0, 0
0, 0
0, 0
0, 0
0, 0
0, 0
0, 0
0, 0
0, 0
0, 0
0, 0
0, 0
0, 0
0, 0
0, 0
0, 0
0, 0
0, 0
0, 0
0, 0
0, 0
0, 0
0, 0
0, 0
0, 0
0, 0
0, 0
0, 0
0, 0
0, 0
0, 0
0, 0
0, 0
0, 0
0, 0
0, 0
0, 0
0, 0
0, 0
0, 0
0, 0
0, 0
0, 0
0, 0
0, 0
0, 0
0, 0
0, 0
0, 0
0, 0
0, 0
0, 0
0, 0
0, 0
0, 0
0, 0
0, 0
0, 0
0, 0
0, 0
0, 0
0, 0
0, 0
0, 0
0, 0
0, 0
0, 1
0, 0
0, 0
0, 0
0, 0
0, 0
0, 0
0, 0
0, 0
0, 0
0, 0
0, 0
0, 0
0, 0
0, 0
0, 0
0, 0
0, 0
0, 0
0, 0
0, 0
0, 0
0, 0
0, 0
0, 0
0, 0
0, 0
0, 0
0, 0
0, 0
0, 0
0, 0
0, 0
0, 0
0, 1
0, 0
0, 0
0, 0
0, 0
0, 0
0, 0
0, 0
1, 0
0, 0
0, 0
0, 0
0, 0
0, 0
0, 0
0, 0
0, 0
0, 0
0, 0
0, 0
0, 0
0, 0
0, 0
0, 0
0, 0
0, 0
0, 0
0, 0
0, 0
0, 0
0, 0
0, 0
0, 0
0, 0
0, 0
0, 0
0, 0
0, 0
0, 0
0, 0
0, 0
0, 0
0, 0
0, 0
0, 0
0, 0
0, 0
0, 0
0, 0
0, 0
0, 0
0, 0
0, 0
0, 0
0, 0
0, 0
0, 0
0, 0
0, 0
0, 0
0, 0
0, 0
0, 0
0, 0
0, 0
0, 0
0, 0
0, 0
0, 0
0, 0
0, 0
0, 0
0, 0
0, 0
0, 0
0, 0
0, 0
0, 0
0, 0
0, 0
0, 0
0, 0
0, 0
0, 0
0, 0
0, 0
0, 0
0, 0
0, 0
0, 0
0, 0
0, 0
0, 0
0, 0
0, 0
0, 0
0, 0
0, 0
0, 0
0, 0
0, 0
0, 0
0, 0
0, 0
0, 0
0, 0
0, 0
0, 0
0, 0
0, 0
0, 0
0, 0
0, 0
0, 0
0, 0
0, 0
0, 0
0, 0
0, 0
0, 0
0, 0
0, 0
0, 0
0, 0
0, 0
0, 0
0, 0
0, 0
0, 0
0, 0
0, 0
0, 0
0, 0
0, 0
0, 0
0, 0
0, 0
0, 0
0, 0
0, 0
0, 0
0, 0
0, 0
0, 0
0, 0
0, 0
0, 0
0, 0
0, 0
0, 0
0, 0
0, 0
0, 0
0, 0
0, 0
0, 0
0, 0
0, 0
0, 0
0, 0
0, 0
0, 0
0, 0
0, 0
0, 0
0, 0
0, 0
0, 0
0, 0
0, 0
0, 0
0, 0
0, 0
0, 0
0, 0
0, 0
0, 0
0, 0
0, 0
0, 0
0, 0
0, 0
0, 0
0, 0
0, 0
0, 0
0, 0
0, 0
0, 0
0, 0
0, 0
0, 0
0, 0
0, 0
0, 0
0, 0
0, 0
0, 0
0, 0
0, 0
0, 0
0, 0
0, 0
0, 0
0, 0
0, 0
0, 0
0, 0
0, 0
0, 0
0, 0
0, 0
0, 0
0, 0
0, 0
0, 0
0, 0
0, 0
0, 0
0, 0
0, 0
0, 0
0, 0
0, 0
0, 0
0, 0
0, 0
0, 0
0, 0
0, 0
0, 0
0, 0
0, 0
0, 0
0, 0
0, 0
0, 0
0, 0
0, 0
0, 0
0, 0
0, 0
0, 0
0, 0
0, 0
0, 0
0, 0
0, 0
0, 0
0, 0
0, 0
0, 0
0, 0
0, 0
0, 0
0, 0
0, 0
0, 0
0, 0
#ENDOFDATA     end of spectrum data