File: host_upload/12-01-2023/Dourbes (shot-by-shot)/upload_4/ps__0257_0689790785_000rfs_shot_3223.msa
#FORMAT      : EMSA/MAS spectral data file
#VERSION     : TC202v2.0 PIXL
#TITLE       : N/A
#DATE        :       Date in the format DD-MMM-YYYY, for example 07-JUL-2010
#TIME        :             The time of day at which the spectrum was recorded, in 24-hour format
#OWNER       : PIXL Flight Model       (PIXL will use this to indicate which instrument took the data.)
#NPOINTS     : 4096     Number of data points in the spectrum (This can be zero for configuration only files)
#NCOLUMNS    : 2     Number of data columns in the spectrum (This can be zero for configuration only files)
#XUNITS      : eV
#YUNITS      : COUNTS
#DATATYPE    : YY
#XPERCHAN    : 7.862, 7.881   eV per channel (separate by commas if more than one detector)
#OFFSET      : 18.5, -22.4         eV of first channel  (separate by commas if more than one detector
#SIGNALTYPE  : XRF
#YP_TEMP     : 2.909
#LIVETIME    : 8.96644, 8.97446   seconds (separate by commas if more than one detector)
#REALTIME    : 10, 10.0   seconds (separate by commas if more than one detector)
#SPECTRUM    : start of spectrum data
0, 0
0, 0
0, 0
0, 0
0, 0
0, 0
0, 0
0, 0
0, 0
0, 0
0, 0
0, 0
0, 0
0, 0
0, 0
0, 0
0, 0
0, 0
0, 0
0, 0
0, 0
0, 0
0, 0
0, 0
0, 0
0, 0
0, 0
0, 0
0, 0
0, 0
0, 0
0, 0
0, 0
0, 0
1, 1
0, 2
0, 1
1, 0
2, 1
0, 3
2, 4
2, 1
5, 5
4, 1
3, 1
3, 1
1, 2
2, 5
1, 4
6, 5
14, 11
25, 22
40, 26
65, 46
53, 41
39, 40
23, 35
16, 30
13, 10
5, 6
2, 0
2, 0
3, 4
4, 0
2, 3
3, 6
2, 2
2, 2
4, 1
8, 8
10, 10
27, 17
55, 43
57, 55
55, 56
63, 46
56, 51
40, 32
23, 22
21, 11
5, 7
9, 6
6, 2
5, 4
6, 2
3, 6
7, 8
3, 5
2, 0
2, 1
3, 2
2, 1
4, 1
2, 2
6, 1
7, 5
12, 6
14, 12
17, 13
14, 10
11, 9
9, 7
10, 5
4, 2
5, 3
4, 4
11, 6
12, 9
19, 22
32, 37
46, 62
63, 73
97, 108
126, 96
119, 120
124, 144
131, 107
99, 74
68, 54
71, 52
45, 43
39, 29
38, 35
39, 28
30, 34
24, 28
39, 31
28, 28
33, 21
28, 27
20, 15
15, 8
12, 10
8, 8
7, 4
3, 5
6, 9
8, 6
1, 7
5, 10
6, 7
7, 3
5, 3
9, 5
6, 3
2, 4
4, 3
4, 6
6, 5
14, 14
12, 13
31, 38
46, 59
111, 83
161, 151
220, 198
285, 252
274, 284
282, 255
241, 196
184, 139
104, 109
58, 51
41, 23
20, 15
15, 10
10, 12
23, 18
31, 32
29, 35
43, 45
33, 41
42, 40
36, 36
23, 18
21, 22
23, 10
18, 12
15, 11
10, 15
9, 10
10, 9
13, 8
11, 6
10, 3
12, 10
9, 13
6, 13
12, 13
13, 13
16, 19
13, 17
14, 15
26, 26
31, 33
23, 37
29, 54
30, 70
32, 66
32, 61
22, 52
16, 31
21, 23
12, 21
11, 14
7, 11
7, 7
7, 10
7, 8
12, 10
21, 15
15, 10
18, 8
9, 16
15, 12
8, 9
17, 6
11, 14
5, 20
14, 12
18, 10
13, 15
18, 19
13, 13
17, 19
15, 22
17, 17
25, 13
14, 14
15, 21
14, 8
19, 15
13, 6
12, 13
12, 11
11, 8
11, 23
16, 15
19, 13
14, 17
20, 15
12, 19
15, 15
26, 16
36, 31
46, 32
63, 64
91, 101
126, 109
143, 144
168, 164
172, 157
160, 144
135, 108
108, 75
76, 63
53, 45
38, 40
33, 26
12, 31
32, 22
44, 31
45, 54
107, 143
212, 238
369, 462
694, 816
1207, 1273
1892, 2065
2701, 2809
3475, 3414
3944, 4073
4215, 3919
3922, 3538
3476, 2935
2661, 2156
1842, 1447
1191, 869
733, 480
365, 249
180, 119
107, 65
57, 43
35, 23
26, 29
32, 32
34, 30
26, 34
32, 38
51, 40
44, 50
56, 53
95, 78
109, 112
178, 175
210, 261
321, 335
430, 453
534, 535
613, 534
569, 559
540, 541
464, 375
315, 266
269, 191
165, 101
110, 71
40, 37
20, 14
16, 4
11, 7
8, 10
5, 2
4, 2
3, 2
4, 4
6, 3
4, 5
3, 4
6, 4
7, 2
6, 5
4, 3
8, 2
5, 8
5, 7
7, 4
6, 9
2, 3
9, 2
3, 4
4, 5
3, 5
3, 3
6, 4
5, 3
9, 2
2, 6
1, 1
7, 5
9, 3
5, 4
6, 5
6, 9
6, 4
2, 4
6, 3
7, 4
3, 1
4, 6
8, 6
7, 6
7, 3
6, 4
7, 0
2, 8
2, 2
3, 6
3, 3
4, 4
9, 1
1, 5
7, 6
6, 5
5, 2
5, 6
9, 6
3, 3
13, 6
3, 8
4, 3
4, 3
8, 7
5, 3
5, 3
6, 3
6, 5
5, 5
6, 10
3, 4
6, 8
8, 8
6, 2
6, 7
4, 3
5, 6
4, 3
7, 5
7, 6
6, 4
5, 5
7, 8
4, 4
6, 6
2, 4
5, 6
3, 5
2, 3
6, 4
5, 6
7, 3
11, 3
4, 6
6, 4
6, 6
5, 5
1, 5
6, 6
7, 5
3, 5
3, 5
6, 5
0, 5
3, 4
2, 4
5, 4
6, 6
1, 1
4, 4
4, 3
2, 4
2, 1
4, 5
7, 4
4, 5
3, 2
4, 1
3, 9
1, 6
3, 1
3, 7
8, 7
4, 8
2, 2
2, 3
3, 3
3, 1
3, 2
2, 6
2, 5
4, 4
5, 6
1, 1
1, 2
4, 6
6, 3
1, 1
3, 3
1, 3
4, 3
3, 1
3, 5
1, 4
1, 3
3, 6
4, 4
1, 1
2, 4
2, 4
2, 3
1, 5
4, 3
5, 5
3, 1
2, 2
4, 5
2, 1
0, 2
2, 4
4, 3
2, 2
2, 3
3, 2
1, 6
8, 3
2, 2
1, 3
2, 2
0, 2
0, 2
1, 6
2, 2
1, 5
4, 6
0, 1
1, 2
2, 3
4, 5
0, 0
3, 3
5, 4
1, 3
3, 5
1, 4
4, 1
5, 1
2, 4
4, 2
3, 3
1, 2
2, 1
3, 2
1, 5
3, 3
2, 1
4, 3
2, 2
1, 1
0, 1
5, 1
5, 6
2, 1
3, 2
0, 3
3, 1
2, 3
3, 2
3, 5
0, 1
1, 1
3, 4
1, 1
2, 1
2, 3
0, 3
2, 2
2, 1
3, 3
2, 1
3, 2
1, 2
1, 0
3, 2
5, 4
2, 2
2, 2
7, 6
6, 4
7, 2
4, 6
9, 0
7, 6
8, 6
9, 6
6, 9
6, 5
6, 2
6, 6
5, 4
5, 5
2, 2
1, 1
2, 2
2, 1
3, 1
3, 1
0, 1
2, 2
2, 1
4, 2
1, 1
2, 1
1, 1
1, 0
0, 2
4, 0
0, 2
6, 3
1, 2
4, 2
2, 5
2, 1
1, 1
3, 2
0, 0
2, 0
2, 1
2, 3
0, 2
2, 1
3, 3
1, 2
3, 2
1, 1
2, 2
1, 0
0, 2
2, 1
1, 0
1, 1
0, 1
0, 5
1, 1
2, 2
1, 1
1, 1
0, 1
0, 1
2, 1
4, 0
2, 1
1, 2
0, 1
1, 3
1, 0
1, 0
1, 1
0, 0
2, 1
0, 2
0, 2
0, 1
0, 0
1, 0
1, 2
1, 4
3, 0
0, 1
0, 1
0, 0
1, 3
1, 0
1, 1
0, 1
2, 0
1, 0
1, 1
0, 1
0, 0
0, 0
1, 1
1, 1
0, 0
2, 0
2, 1
0, 1
0, 1
0, 2
1, 0
0, 0
0, 1
2, 0
0, 1
1, 0
0, 0
0, 0
1, 1
1, 0
2, 0
0, 2
1, 1
1, 1
0, 1
1, 1
1, 0
0, 0
1, 0
1, 0
1, 0
1, 0
0, 0
0, 0
2, 0
1, 0
1, 0
0, 0
0, 0
1, 2
2, 3
0, 1
1, 1
2, 0
0, 2
2, 0
1, 0
1, 0
0, 0
0, 1
0, 2
0, 1
0, 2
1, 1
0, 0
1, 1
0, 0
0, 3
0, 0
1, 1
0, 1
0, 0
0, 0
3, 0
1, 1
0, 1
0, 1
0, 1
1, 0
1, 0
1, 0
1, 0
1, 0
0, 0
0, 1
0, 0
1, 0
0, 0
0, 0
1, 0
1, 0
1, 0
0, 0
0, 0
1, 1
0, 0
0, 0
1, 1
0, 1
0, 0
0, 1
0, 0
0, 0
0, 1
0, 1
0, 0
0, 0
0, 0
0, 1
0, 0
0, 0
0, 0
0, 0
0, 1
0, 0
0, 0
0, 0
0, 0
0, 0
0, 0
0, 0
0, 0
0, 0
0, 0
0, 0
1, 0
0, 0
0, 0
0, 0
0, 0
0, 1
0, 0
1, 0
0, 1
0, 0
0, 0
0, 0
1, 0
1, 0
0, 0
0, 0
0, 0
0, 0
0, 0
0, 0
0, 1
0, 0
1, 0
0, 0
0, 1
1, 1
0, 0
0, 0
1, 0
0, 0
0, 0
1, 0
0, 0
0, 0
0, 0
0, 1
0, 0
0, 0
0, 0
0, 0
0, 0
0, 0
0, 0
1, 0
0, 0
0, 0
0, 0
0, 0
2, 0
0, 1
0, 0
0, 1
1, 0
0, 0
1, 0
1, 0
0, 1
1, 0
0, 0
1, 0
0, 0
0, 0
0, 0
0, 1
0, 0
0, 0
2, 0
0, 0
1, 0
0, 0
0, 0
0, 0
0, 1
1, 0
0, 0
0, 0
0, 0
0, 1
0, 0
0, 2
0, 0
1, 0
0, 0
0, 0
0, 0
0, 1
0, 0
0, 0
0, 0
0, 0
0, 0
0, 0
0, 0
0, 0
0, 0
1, 0
0, 0
0, 0
0, 0
0, 1
0, 0
0, 0
0, 0
0, 0
0, 0
0, 0
0, 1
0, 0
0, 0
1, 0
1, 0
0, 0
0, 0
0, 0
0, 0
0, 0
0, 0
0, 0
1, 1
0, 0
1, 1
0, 0
0, 0
0, 0
0, 1
1, 0
0, 0
0, 0
0, 0
0, 0
0, 0
0, 0
0, 0
0, 0
0, 0
0, 0
0, 0
0, 0
0, 0
0, 0
0, 0
0, 0
0, 0
0, 0
0, 0
0, 0
0, 0
0, 0
0, 0
0, 0
0, 0
0, 0
0, 0
0, 0
0, 0
0, 0
0, 0
0, 0
1, 0
0, 0
0, 0
0, 0
0, 1
0, 0
0, 0
0, 0
0, 0
0, 0
0, 0
0, 0
0, 0
0, 0
0, 0
0, 0
0, 0
0, 0
0, 0
0, 1
0, 0
0, 0
0, 0
0, 0
0, 0
0, 0
0, 0
0, 0
0, 1
0, 0
0, 1
0, 0
0, 0
0, 0
0, 0
0, 0
0, 0
0, 0
0, 0
0, 0
0, 0
0, 0
0, 0
0, 0
0, 0
0, 0
0, 0
0, 0
1, 0
0, 0
0, 0
0, 0
0, 0
0, 0
0, 0
0, 0
0, 0
0, 0
0, 0
0, 0
0, 0
0, 0
0, 0
0, 1
0, 0
0, 0
0, 0
0, 0
0, 0
0, 0
0, 0
0, 0
0, 0
0, 0
0, 0
0, 0
0, 0
0, 0
0, 0
0, 0
0, 0
0, 0
0, 0
0, 0
0, 0
0, 0
0, 0
0, 0
0, 0
0, 0
0, 0
0, 0
0, 0
0, 0
0, 0
0, 0
0, 0
0, 0
0, 0
0, 0
0, 0
0, 0
0, 0
0, 0
0, 0
0, 0
0, 0
0, 0
0, 0
0, 0
1, 0
0, 0
0, 0
0, 0
0, 0
0, 0
0, 0
0, 0
0, 0
0, 0
0, 0
0, 0
0, 0
0, 0
0, 0
0, 0
0, 0
0, 0
0, 0
0, 0
0, 0
0, 0
0, 0
0, 0
0, 0
0, 0
0, 0
0, 0
0, 0
0, 0
0, 0
0, 0
0, 0
0, 0
0, 0
0, 0
0, 1
0, 0
0, 0
0, 0
0, 0
0, 0
0, 0
0, 0
0, 0
0, 0
1, 0
0, 0
0, 0
0, 0
0, 0
0, 0
0, 0
0, 0
0, 0
0, 0
0, 0
0, 0
0, 0
0, 0
0, 0
0, 0
0, 0
0, 0
0, 0
0, 0
0, 0
0, 0
0, 0
0, 0
0, 0
0, 0
0, 0
0, 0
0, 0
0, 0
0, 0
0, 0
0, 0
0, 0
0, 0
0, 0
0, 0
0, 0
0, 0
0, 0
0, 0
0, 0
0, 0
0, 0
0, 0
0, 0
0, 0
0, 0
0, 0
0, 0
0, 0
0, 0
0, 0
0, 0
0, 0
0, 0
0, 0
0, 0
0, 0
0, 0
0, 0
0, 0
0, 0
0, 0
0, 0
0, 0
0, 0
0, 0
0, 0
0, 0
0, 0
0, 0
0, 0
0, 0
0, 0
0, 0
0, 0
0, 0
0, 0
0, 0
0, 0
0, 0
0, 0
0, 0
0, 0
0, 0
0, 0
0, 0
0, 0
0, 0
0, 0
0, 0
0, 0
0, 0
0, 0
0, 0
0, 0
0, 0
0, 0
0, 0
0, 0
0, 0
0, 0
0, 0
0, 0
0, 0
0, 0
0, 0
0, 0
0, 0
0, 0
0, 0
0, 0
0, 0
0, 0
0, 0
0, 0
0, 0
0, 0
0, 0
0, 0
0, 0
0, 0
0, 0
0, 0
0, 0
0, 0
0, 0
0, 0
0, 0
0, 0
0, 0
0, 0
0, 0
0, 0
0, 0
0, 0
0, 0
0, 0
0, 0
0, 0
0, 0
0, 0
0, 0
0, 0
0, 0
0, 0
0, 0
0, 0
0, 0
0, 0
0, 0
0, 0
0, 0
0, 0
0, 0
0, 0
0, 0
0, 0
0, 0
0, 0
0, 0
0, 0
0, 0
0, 0
0, 0
0, 0
0, 0
0, 0
0, 0
0, 0
0, 0
0, 0
0, 0
0, 0
0, 0
0, 0
0, 0
0, 0
0, 0
0, 0
0, 0
0, 0
0, 0
0, 0
0, 0
0, 0
0, 0
0, 0
0, 0
0, 0
0, 0
0, 0
0, 0
0, 0
0, 0
0, 0
0, 0
0, 0
0, 0
0, 0
0, 0
0, 0
0, 0
0, 0
0, 0
0, 0
0, 0
0, 0
0, 0
0, 0
0, 0
0, 0
0, 0
0, 0
0, 0
0, 0
0, 0
0, 0
0, 0
0, 0
0, 0
0, 0
0, 0
0, 0
0, 0
0, 0
0, 0
0, 0
0, 0
0, 0
0, 0
0, 0
0, 0
0, 0
0, 0
0, 0
0, 0
0, 0
0, 0
0, 0
0, 0
0, 0
0, 0
0, 0
0, 0
0, 0
0, 0
0, 0
0, 0
0, 0
0, 0
0, 0
0, 0
0, 0
0, 0
0, 0
0, 0
0, 0
0, 0
0, 0
0, 0
0, 0
0, 0
0, 0
0, 0
0, 0
0, 0
0, 0
0, 0
0, 0
0, 0
0, 0
0, 0
0, 0
0, 0
0, 0
0, 0
0, 0
0, 0
0, 0
0, 0
0, 0
0, 0
0, 0
0, 0
0, 0
0, 0
0, 0
0, 0
0, 0
0, 0
0, 0
0, 0
0, 0
0, 0
0, 0
0, 0
0, 0
0, 0
0, 0
0, 0
0, 0
0, 0
0, 0
0, 0
0, 0
0, 0
0, 0
#ENDOFDATA     end of spectrum data