File: host_upload/12-01-2023/Dourbes (shot-by-shot)/upload_4/ps__0257_0689790785_000rfs_shot_3266.msa
#FORMAT      : EMSA/MAS spectral data file
#VERSION     : TC202v2.0 PIXL
#TITLE       : N/A
#DATE        :       Date in the format DD-MMM-YYYY, for example 07-JUL-2010
#TIME        :             The time of day at which the spectrum was recorded, in 24-hour format
#OWNER       : PIXL Flight Model       (PIXL will use this to indicate which instrument took the data.)
#NPOINTS     : 4096     Number of data points in the spectrum (This can be zero for configuration only files)
#NCOLUMNS    : 2     Number of data columns in the spectrum (This can be zero for configuration only files)
#XUNITS      : eV
#YUNITS      : COUNTS
#DATATYPE    : YY
#XPERCHAN    : 7.862, 7.881   eV per channel (separate by commas if more than one detector)
#OFFSET      : 18.5, -22.4         eV of first channel  (separate by commas if more than one detector
#SIGNALTYPE  : XRF
#YP_TEMP     : 3.037
#LIVETIME    : 9.00262, 9.00246   seconds (separate by commas if more than one detector)
#REALTIME    : 10, 10.0   seconds (separate by commas if more than one detector)
#SPECTRUM    : start of spectrum data
0, 0
0, 0
0, 0
0, 0
0, 0
0, 0
0, 0
0, 0
0, 0
0, 0
0, 0
0, 0
0, 0
0, 0
0, 0
0, 0
0, 0
0, 0
0, 0
0, 0
0, 0
0, 0
0, 0
0, 0
0, 0
0, 0
0, 0
0, 0
0, 0
0, 0
0, 0
0, 0
0, 0
0, 0
0, 0
0, 0
0, 1
1, 2
0, 1
0, 0
1, 0
0, 2
1, 0
0, 2
1, 0
3, 1
2, 1
0, 2
1, 4
6, 3
11, 9
19, 24
44, 32
53, 42
62, 52
35, 50
35, 32
24, 25
10, 8
7, 4
3, 6
9, 6
6, 9
11, 9
16, 17
11, 8
14, 6
6, 6
19, 13
32, 33
75, 79
157, 150
302, 266
417, 396
513, 472
504, 438
448, 378
299, 282
197, 151
111, 78
45, 60
26, 25
14, 8
11, 2
8, 5
4, 4
3, 4
2, 4
4, 2
2, 2
4, 1
0, 1
3, 3
4, 6
2, 2
4, 9
5, 9
8, 4
2, 6
10, 6
12, 4
2, 7
3, 7
1, 6
1, 4
3, 2
6, 9
9, 8
15, 11
16, 19
27, 18
26, 32
38, 39
48, 43
62, 51
46, 50
48, 51
31, 60
35, 29
27, 34
33, 19
20, 26
17, 16
14, 20
20, 19
17, 16
18, 18
8, 15
3, 4
3, 15
10, 5
2, 4
1, 1
5, 1
7, 2
4, 7
2, 8
6, 1
11, 7
9, 11
10, 12
10, 16
18, 6
6, 12
6, 9
5, 5
4, 4
1, 7
7, 0
3, 5
4, 9
7, 10
11, 10
22, 23
23, 22
33, 39
28, 28
31, 31
37, 31
28, 27
17, 22
14, 14
8, 7
9, 11
0, 13
1, 8
4, 15
7, 10
5, 14
6, 8
5, 13
11, 9
10, 7
7, 13
9, 5
7, 6
3, 5
6, 3
6, 5
5, 7
12, 4
10, 2
7, 4
5, 9
11, 2
14, 14
22, 25
50, 35
70, 76
91, 118
150, 136
160, 164
173, 158
131, 129
120, 121
99, 88
58, 63
51, 56
33, 35
26, 31
19, 18
22, 17
14, 16
16, 16
8, 12
8, 16
22, 22
16, 24
29, 38
39, 25
40, 30
24, 27
27, 23
13, 19
20, 20
12, 19
9, 13
7, 7
11, 27
11, 13
9, 17
9, 23
15, 15
22, 21
24, 29
41, 45
46, 72
77, 86
78, 95
98, 124
116, 117
129, 129
98, 128
77, 92
55, 70
43, 34
23, 29
21, 25
23, 13
6, 11
9, 5
17, 8
13, 9
14, 12
18, 26
29, 27
41, 40
57, 66
64, 85
86, 96
98, 115
105, 96
93, 97
95, 94
69, 76
50, 71
34, 50
28, 52
23, 42
26, 39
21, 34
43, 54
44, 48
109, 120
190, 219
344, 402
636, 722
1055, 1262
1639, 1939
2343, 2604
3125, 3317
3562, 3607
3805, 3541
3542, 3345
3080, 2608
2381, 1915
1700, 1293
1041, 775
577, 431
352, 219
152, 129
72, 47
31, 28
30, 19
22, 23
17, 12
20, 15
29, 13
32, 19
38, 26
29, 25
39, 37
64, 65
81, 83
146, 151
209, 279
286, 327
379, 458
453, 518
547, 502
525, 456
480, 400
416, 388
293, 245
221, 175
134, 110
88, 66
45, 41
31, 13
8, 9
9, 8
6, 7
8, 4
4, 5
5, 4
4, 5
10, 8
6, 5
8, 6
5, 5
7, 8
5, 6
5, 7
5, 3
6, 4
5, 5
3, 6
1, 2
2, 5
0, 4
4, 3
3, 5
4, 5
2, 0
5, 2
1, 5
1, 4
3, 1
6, 8
4, 0
5, 10
9, 5
11, 10
8, 11
6, 4
12, 6
11, 7
8, 7
7, 3
7, 8
9, 1
8, 7
10, 5
9, 2
5, 3
2, 2
4, 0
1, 5
4, 6
3, 6
0, 2
3, 3
3, 4
1, 5
4, 3
7, 10
8, 6
1, 7
1, 7
4, 3
1, 3
6, 8
3, 3
4, 6
4, 2
5, 4
4, 5
4, 4
0, 4
10, 1
3, 1
2, 2
7, 3
3, 3
6, 5
5, 2
7, 6
5, 3
5, 3
3, 2
4, 3
7, 2
1, 3
5, 1
5, 4
4, 2
3, 4
5, 3
1, 3
4, 1
2, 1
3, 2
1, 0
5, 0
5, 2
3, 0
4, 2
4, 4
3, 3
1, 1
6, 7
4, 3
3, 1
0, 4
4, 1
3, 3
2, 3
0, 0
2, 5
2, 2
1, 1
1, 2
1, 1
1, 3
2, 2
2, 4
1, 2
5, 2
4, 4
3, 5
1, 4
2, 5
2, 3
4, 5
3, 4
1, 4
2, 4
4, 1
3, 5
2, 5
2, 3
0, 4
2, 1
1, 3
2, 3
2, 1
1, 1
1, 5
1, 3
2, 3
2, 4
3, 3
4, 3
3, 1
1, 4
3, 2
1, 2
1, 0
5, 2
4, 4
0, 4
4, 4
3, 1
3, 1
1, 3
1, 2
5, 8
3, 2
2, 1
4, 3
2, 1
2, 4
3, 0
0, 0
1, 0
3, 2
1, 0
3, 1
3, 2
1, 7
3, 1
4, 0
2, 2
1, 1
3, 2
1, 3
1, 3
1, 2
1, 4
2, 3
2, 0
0, 0
2, 2
2, 1
0, 1
1, 3
4, 0
3, 0
4, 1
0, 2
1, 1
3, 0
3, 1
4, 0
2, 2
2, 1
6, 2
2, 2
1, 1
0, 1
0, 0
1, 2
1, 3
3, 1
2, 2
3, 1
1, 3
0, 4
2, 2
5, 3
3, 3
2, 0
2, 1
2, 2
1, 0
0, 1
2, 0
0, 0
1, 1
3, 1
1, 1
6, 1
2, 1
2, 3
3, 4
0, 3
2, 2
3, 2
5, 5
2, 2
5, 4
8, 2
7, 9
4, 7
4, 6
6, 5
7, 3
6, 0
4, 4
1, 1
2, 2
2, 1
1, 1
1, 0
1, 1
1, 1
5, 5
3, 1
0, 1
1, 4
4, 1
1, 1
0, 3
0, 3
2, 3
1, 2
1, 2
2, 2
2, 3
2, 1
3, 3
3, 2
1, 4
2, 4
1, 0
1, 0
0, 0
2, 0
0, 2
1, 1
1, 0
2, 0
0, 2
4, 3
0, 1
2, 0
0, 3
3, 0
1, 2
3, 2
1, 1
1, 2
0, 0
1, 0
0, 1
0, 1
1, 0
0, 0
0, 2
2, 1
0, 1
1, 1
1, 0
0, 1
2, 2
0, 1
0, 2
0, 1
2, 0
0, 0
0, 1
3, 1
1, 3
0, 0
0, 0
1, 1
0, 1
0, 1
0, 0
0, 0
0, 0
0, 0
0, 0
0, 1
1, 0
2, 0
0, 0
0, 0
0, 0
0, 1
0, 2
0, 1
1, 0
1, 1
1, 2
1, 0
0, 2
1, 0
0, 0
2, 1
0, 5
2, 1
1, 0
1, 0
0, 0
1, 0
2, 1
1, 1
1, 1
0, 1
1, 0
0, 0
1, 0
0, 0
0, 1
0, 0
1, 0
0, 1
1, 0
1, 0
0, 0
0, 3
2, 0
0, 0
1, 0
0, 0
0, 0
1, 2
1, 2
0, 0
0, 0
0, 0
0, 1
0, 0
0, 0
0, 1
0, 1
1, 1
1, 0
3, 1
0, 1
0, 0
0, 0
0, 1
1, 0
0, 0
0, 1
1, 0
0, 0
0, 1
1, 0
0, 1
2, 0
2, 0
2, 0
0, 0
1, 0
0, 0
0, 1
0, 0
0, 0
0, 3
0, 1
0, 0
1, 1
2, 1
0, 0
0, 0
1, 0
0, 0
0, 1
1, 0
1, 0
1, 1
0, 0
0, 0
0, 0
0, 0
0, 0
0, 0
0, 0
0, 0
0, 1
0, 0
2, 1
0, 0
2, 0
0, 1
0, 1
0, 1
1, 0
0, 0
0, 0
1, 0
0, 1
0, 0
0, 0
0, 0
0, 1
0, 1
2, 0
0, 0
0, 1
0, 0
0, 1
0, 1
0, 0
0, 1
0, 0
0, 0
0, 1
0, 0
0, 0
0, 0
0, 0
0, 0
1, 0
0, 0
0, 0
0, 0
0, 0
0, 0
1, 0
0, 0
1, 0
1, 0
0, 1
0, 1
0, 0
0, 0
0, 0
0, 0
0, 0
0, 0
0, 0
0, 0
0, 0
0, 0
0, 0
0, 1
1, 0
0, 0
0, 0
0, 0
0, 0
0, 0
0, 0
0, 0
0, 0
0, 1
1, 0
0, 1
0, 1
0, 0
0, 0
0, 0
0, 0
1, 0
0, 0
0, 0
0, 0
0, 0
0, 0
1, 1
0, 0
0, 0
0, 0
1, 0
1, 0
0, 0
0, 0
0, 0
1, 1
0, 0
0, 0
0, 0
0, 0
0, 0
0, 0
0, 0
0, 0
0, 0
0, 1
0, 0
0, 0
0, 0
0, 0
0, 0
1, 0
0, 0
0, 0
0, 0
0, 0
0, 1
0, 0
0, 0
0, 0
0, 0
1, 0
1, 0
1, 0
0, 1
0, 0
0, 0
0, 0
0, 0
0, 0
0, 0
0, 0
1, 0
0, 0
0, 1
0, 0
0, 0
0, 1
1, 0
0, 1
1, 0
0, 0
0, 0
0, 0
0, 0
0, 0
0, 0
1, 0
1, 0
0, 0
1, 0
0, 0
0, 0
0, 0
0, 0
1, 0
0, 0
0, 0
0, 0
0, 0
0, 0
0, 0
0, 0
0, 0
0, 0
0, 0
0, 0
0, 0
1, 1
1, 0
0, 0
0, 1
0, 0
0, 0
0, 0
0, 0
0, 0
0, 0
0, 0
1, 0
0, 0
0, 0
0, 0
0, 0
0, 0
0, 0
0, 0
0, 1
0, 0
0, 0
0, 0
0, 0
0, 0
0, 0
0, 0
0, 0
0, 0
0, 0
0, 0
0, 0
0, 0
0, 0
0, 0
0, 0
0, 0
0, 0
0, 0
0, 0
0, 0
0, 0
0, 0
0, 0
0, 0
0, 0
0, 0
0, 0
0, 0
0, 0
0, 0
0, 0
0, 0
0, 0
0, 0
0, 0
0, 0
0, 0
0, 0
0, 0
0, 0
0, 0
0, 0
0, 0
0, 0
0, 0
0, 0
0, 0
0, 0
0, 0
0, 0
0, 0
0, 0
1, 0
0, 0
0, 0
0, 0
0, 0
0, 1
0, 0
0, 0
0, 0
0, 0
0, 0
0, 0
0, 0
0, 0
0, 0
0, 0
0, 0
0, 0
0, 0
0, 1
0, 0
0, 0
0, 0
0, 0
0, 0
0, 0
0, 0
0, 0
0, 0
0, 0
0, 0
0, 0
0, 0
0, 0
0, 0
0, 0
0, 0
0, 0
0, 0
0, 0
0, 0
0, 0
0, 0
0, 0
0, 0
0, 0
0, 0
0, 0
0, 0
0, 0
0, 0
0, 0
0, 0
0, 0
0, 0
0, 0
0, 0
0, 0
0, 0
0, 0
0, 0
0, 0
0, 0
0, 0
0, 0
0, 0
0, 0
0, 0
0, 0
0, 0
0, 0
0, 0
0, 0
0, 0
0, 0
0, 0
0, 0
0, 0
0, 0
0, 0
0, 0
0, 0
0, 0
0, 0
0, 0
0, 0
0, 0
0, 0
0, 0
0, 0
0, 0
0, 0
0, 0
0, 0
0, 0
0, 0
0, 0
0, 0
0, 0
0, 0
0, 0
0, 0
0, 0
0, 0
0, 0
0, 0
0, 0
0, 0
0, 0
0, 0
0, 0
0, 0
0, 0
0, 0
0, 0
0, 0
0, 0
0, 0
0, 0
0, 0
0, 0
0, 0
0, 0
0, 0
0, 0
0, 0
0, 0
0, 0
0, 0
0, 0
0, 0
0, 0
0, 0
0, 0
0, 0
0, 0
0, 0
0, 0
0, 0
0, 0
0, 0
0, 0
0, 0
0, 0
0, 0
0, 0
0, 0
0, 0
0, 0
0, 0
0, 0
0, 0
0, 0
0, 0
0, 0
0, 0
0, 0
0, 0
0, 0
0, 0
0, 0
0, 0
0, 0
0, 0
0, 0
0, 0
0, 0
0, 0
0, 0
0, 0
0, 0
0, 0
0, 0
0, 0
0, 0
0, 0
0, 0
0, 0
0, 0
0, 0
0, 0
0, 0
0, 0
0, 0
0, 0
0, 0
0, 0
0, 0
0, 0
0, 0
0, 0
0, 0
0, 0
0, 1
0, 0
0, 0
0, 0
0, 0
0, 0
0, 0
0, 0
0, 0
0, 0
0, 0
0, 0
0, 0
0, 0
0, 0
0, 0
0, 0
0, 0
0, 0
0, 0
0, 0
0, 0
0, 0
0, 0
0, 0
0, 0
0, 0
0, 0
0, 0
0, 0
0, 0
0, 0
0, 0
0, 0
0, 0
0, 0
0, 0
0, 0
0, 0
0, 0
0, 0
0, 0
0, 0
0, 0
0, 0
0, 0
0, 0
0, 0
0, 0
0, 0
0, 0
0, 0
0, 0
0, 0
0, 0
0, 0
0, 0
0, 0
0, 0
0, 0
0, 0
0, 0
0, 0
0, 0
0, 0
0, 0
0, 0
0, 0
0, 0
0, 0
0, 0
0, 0
0, 0
0, 0
0, 0
0, 0
0, 0
0, 0
0, 0
0, 0
0, 0
0, 0
0, 0
0, 0
0, 0
0, 0
0, 0
0, 0
0, 0
0, 0
0, 0
0, 0
0, 0
0, 0
0, 0
0, 0
0, 0
0, 0
0, 0
0, 0
0, 0
0, 0
0, 0
0, 0
0, 0
0, 0
0, 0
0, 0
0, 0
0, 0
0, 0
0, 0
0, 0
0, 0
0, 0
0, 0
0, 0
0, 0
0, 0
0, 0
0, 0
0, 0
0, 0
0, 0
0, 0
0, 0
0, 0
0, 0
0, 0
0, 0
0, 0
0, 0
0, 0
0, 0
0, 0
0, 0
0, 0
0, 0
0, 0
0, 0
0, 0
0, 0
0, 0
0, 0
0, 0
0, 0
0, 0
0, 0
0, 0
0, 0
0, 0
0, 0
0, 0
0, 0
0, 0
0, 0
0, 0
0, 0
0, 0
0, 0
0, 0
0, 0
0, 0
0, 0
0, 0
0, 0
0, 0
0, 0
0, 0
0, 0
0, 0
0, 0
0, 0
0, 0
0, 0
0, 0
0, 0
0, 0
0, 0
0, 0
0, 0
0, 0
0, 0
0, 0
0, 0
0, 0
0, 0
0, 0
0, 0
0, 0
0, 0
0, 0
0, 0
0, 0
0, 0
0, 0
0, 0
0, 0
0, 0
0, 0
0, 0
0, 0
0, 0
0, 0
0, 0
0, 0
0, 0
0, 0
0, 0
0, 0
0, 0
0, 0
0, 0
0, 0
0, 0
#ENDOFDATA     end of spectrum data