File: host_upload/12-01-2023/Dourbes (shot-by-shot)/upload_4/ps__0257_0689790785_000rfs_shot_3287.msa
#FORMAT      : EMSA/MAS spectral data file
#VERSION     : TC202v2.0 PIXL
#TITLE       : N/A
#DATE        :       Date in the format DD-MMM-YYYY, for example 07-JUL-2010
#TIME        :             The time of day at which the spectrum was recorded, in 24-hour format
#OWNER       : PIXL Flight Model       (PIXL will use this to indicate which instrument took the data.)
#NPOINTS     : 4096     Number of data points in the spectrum (This can be zero for configuration only files)
#NCOLUMNS    : 2     Number of data columns in the spectrum (This can be zero for configuration only files)
#XUNITS      : eV
#YUNITS      : COUNTS
#DATATYPE    : YY
#XPERCHAN    : 7.862, 7.881   eV per channel (separate by commas if more than one detector)
#OFFSET      : 18.5, -22.4         eV of first channel  (separate by commas if more than one detector
#SIGNALTYPE  : XRF
#YP_TEMP     : 3.23
#LIVETIME    : 9.00881, 9.00496   seconds (separate by commas if more than one detector)
#REALTIME    : 10, 10.0   seconds (separate by commas if more than one detector)
#SPECTRUM    : start of spectrum data
0, 0
0, 0
0, 0
0, 0
0, 0
0, 0
0, 0
0, 0
0, 0
0, 0
0, 0
0, 0
0, 0
0, 0
0, 0
0, 0
0, 0
0, 0
0, 0
0, 0
0, 0
0, 0
0, 0
0, 0
0, 0
0, 0
0, 0
0, 0
0, 0
0, 0
0, 0
0, 0
0, 1
0, 0
0, 0
1, 0
1, 0
1, 2
0, 1
2, 1
0, 1
1, 0
0, 1
1, 2
1, 1
0, 1
1, 2
4, 1
2, 2
8, 8
9, 6
21, 22
37, 28
54, 33
45, 58
45, 42
21, 32
21, 23
14, 6
6, 8
7, 2
5, 4
8, 7
6, 11
19, 5
6, 12
11, 5
17, 13
16, 19
55, 34
82, 96
191, 195
305, 339
492, 450
636, 587
625, 594
515, 513
338, 367
218, 232
131, 123
47, 65
33, 21
13, 12
16, 11
8, 5
6, 6
4, 6
13, 5
7, 6
3, 5
2, 0
4, 5
2, 3
3, 5
0, 1
2, 6
6, 10
4, 6
7, 6
9, 6
4, 8
7, 7
2, 4
2, 3
3, 3
6, 6
7, 6
14, 12
10, 18
26, 33
25, 39
56, 47
42, 59
67, 66
62, 55
67, 68
54, 43
41, 43
28, 31
30, 36
21, 29
30, 27
29, 26
25, 19
15, 21
16, 24
18, 19
14, 21
7, 20
4, 21
7, 8
4, 0
6, 14
3, 3
5, 4
4, 4
3, 2
3, 6
7, 7
7, 6
10, 9
13, 14
5, 12
6, 9
3, 5
1, 11
4, 3
1, 1
2, 7
9, 9
6, 14
17, 17
34, 24
53, 48
93, 84
89, 124
140, 107
148, 181
140, 129
143, 107
99, 72
61, 59
24, 36
12, 27
9, 32
8, 42
11, 46
27, 47
25, 46
32, 56
28, 59
31, 39
28, 35
15, 34
19, 17
20, 13
13, 10
7, 7
6, 4
5, 5
10, 8
8, 5
3, 7
4, 7
4, 8
5, 6
7, 9
7, 9
13, 7
15, 19
12, 19
20, 17
17, 23
23, 22
22, 20
18, 28
26, 26
26, 29
9, 10
16, 16
19, 11
16, 18
13, 10
11, 8
14, 7
9, 9
22, 9
7, 10
8, 12
18, 14
12, 15
14, 17
12, 9
12, 10
9, 8
8, 11
14, 6
5, 9
8, 8
12, 8
4, 5
3, 7
5, 5
7, 12
8, 6
4, 9
14, 9
17, 11
22, 20
12, 16
12, 9
17, 21
14, 24
14, 9
12, 18
10, 12
21, 7
16, 11
13, 10
13, 8
12, 9
10, 8
13, 14
17, 18
17, 17
18, 29
27, 37
42, 57
72, 92
85, 107
76, 116
114, 79
87, 70
85, 87
55, 76
44, 41
41, 42
31, 25
30, 16
41, 32
50, 16
43, 30
69, 69
98, 102
188, 192
359, 431
628, 767
1081, 1327
1567, 2017
2348, 2610
2843, 3258
3352, 3822
3555, 3761
3438, 3455
2843, 2753
2256, 2015
1578, 1331
1013, 841
621, 449
339, 252
160, 102
68, 56
34, 30
24, 26
15, 21
15, 13
22, 15
14, 13
14, 27
21, 27
22, 31
30, 49
66, 90
78, 115
132, 163
201, 233
292, 367
365, 451
503, 473
486, 523
476, 512
433, 459
404, 357
317, 259
225, 185
129, 118
83, 77
44, 35
31, 20
13, 7
11, 7
7, 5
2, 4
5, 8
6, 8
7, 8
7, 9
7, 9
9, 12
6, 8
10, 7
3, 7
9, 10
5, 6
4, 6
5, 9
3, 6
2, 5
5, 9
4, 6
3, 15
5, 12
3, 14
2, 23
6, 15
6, 20
3, 21
2, 14
4, 12
2, 8
5, 13
6, 3
2, 6
5, 1
4, 7
8, 8
4, 3
3, 6
3, 5
5, 5
3, 5
5, 5
6, 6
6, 4
5, 4
10, 5
6, 4
7, 4
6, 4
5, 4
12, 5
5, 4
5, 3
7, 4
5, 1
3, 1
3, 7
4, 6
3, 3
5, 3
4, 5
4, 4
7, 6
7, 7
0, 6
1, 5
3, 8
1, 10
1, 4
2, 9
4, 4
1, 8
3, 2
2, 2
5, 6
3, 4
3, 6
6, 2
2, 3
1, 1
2, 2
3, 2
3, 3
3, 7
1, 1
1, 5
2, 10
1, 5
1, 6
2, 4
3, 7
5, 4
3, 1
3, 11
4, 7
7, 2
2, 4
2, 2
0, 0
0, 3
0, 6
2, 4
5, 8
4, 3
3, 5
7, 1
4, 5
3, 5
6, 6
3, 4
7, 4
4, 3
1, 4
2, 5
2, 3
4, 5
6, 4
3, 2
3, 3
4, 2
7, 5
4, 3
4, 6
1, 1
10, 2
7, 2
5, 1
5, 2
2, 8
10, 5
7, 4
9, 2
7, 3
6, 5
4, 1
2, 0
4, 2
1, 3
0, 1
0, 3
2, 1
1, 1
2, 1
5, 1
1, 5
2, 3
5, 2
2, 5
2, 4
2, 3
2, 5
1, 2
1, 6
2, 2
4, 4
1, 4
2, 5
0, 2
3, 7
1, 1
0, 4
6, 3
5, 4
2, 3
0, 1
2, 4
2, 4
0, 0
2, 2
4, 2
2, 2
2, 2
2, 4
1, 4
0, 0
2, 2
4, 2
0, 2
2, 0
2, 0
2, 4
4, 1
1, 3
0, 0
0, 2
0, 1
1, 3
4, 1
2, 2
4, 0
1, 7
6, 3
5, 1
1, 0
0, 1
1, 0
1, 1
4, 1
4, 0
1, 2
3, 0
4, 1
1, 3
0, 3
2, 1
3, 1
0, 2
1, 0
2, 1
2, 2
1, 0
2, 2
2, 1
1, 3
1, 1
2, 4
3, 1
3, 1
0, 2
3, 2
2, 4
3, 2
1, 2
2, 1
1, 0
3, 4
1, 1
4, 5
3, 4
8, 3
4, 6
5, 9
11, 9
7, 6
2, 2
7, 9
6, 3
3, 3
3, 4
1, 3
1, 4
2, 1
2, 2
1, 3
1, 0
1, 2
1, 2
1, 2
0, 0
1, 1
0, 0
2, 3
0, 0
0, 0
1, 3
1, 2
4, 4
1, 1
3, 1
3, 4
1, 1
2, 3
0, 2
0, 1
3, 1
1, 0
0, 1
3, 1
0, 1
3, 1
0, 1
2, 0
0, 3
1, 0
2, 2
2, 0
1, 0
1, 1
1, 0
0, 5
0, 0
1, 3
0, 0
1, 2
1, 3
1, 0
0, 2
1, 0
0, 1
3, 0
3, 2
0, 1
2, 1
1, 2
3, 0
4, 1
4, 0
2, 0
1, 1
3, 0
2, 2
2, 1
1, 1
1, 2
3, 0
0, 1
1, 1
0, 1
0, 1
0, 0
1, 0
0, 1
0, 0
0, 1
0, 1
0, 0
0, 2
0, 0
0, 0
0, 0
0, 0
0, 2
0, 1
1, 2
0, 2
0, 1
0, 1
0, 1
1, 1
0, 0
0, 1
1, 0
1, 1
0, 0
0, 0
1, 0
1, 0
0, 2
0, 1
0, 0
2, 2
0, 2
0, 0
0, 1
1, 0
0, 0
0, 1
0, 0
1, 0
1, 0
0, 0
0, 0
0, 2
0, 0
0, 0
0, 0
1, 1
1, 1
0, 0
0, 1
0, 0
0, 0
0, 0
0, 1
0, 0
0, 0
2, 0
0, 0
0, 0
0, 0
0, 1
2, 0
0, 0
0, 0
1, 0
1, 0
0, 1
1, 0
0, 0
0, 0
0, 0
0, 0
0, 2
1, 0
0, 0
0, 0
0, 0
1, 1
0, 0
0, 1
0, 0
0, 1
0, 0
0, 0
1, 0
1, 0
0, 1
0, 0
0, 0
0, 0
1, 0
0, 0
0, 0
0, 2
1, 0
0, 0
0, 1
1, 2
0, 0
0, 0
1, 0
0, 0
0, 0
0, 0
0, 0
0, 0
0, 0
1, 0
0, 0
0, 0
0, 1
0, 0
0, 0
1, 1
0, 1
0, 0
0, 0
0, 0
0, 0
1, 0
0, 0
0, 0
0, 0
0, 0
0, 0
0, 1
0, 0
1, 0
0, 0
0, 0
0, 1
0, 1
0, 0
1, 0
0, 0
0, 0
1, 0
0, 0
1, 1
0, 0
0, 3
0, 0
0, 0
0, 0
0, 0
1, 1
0, 0
0, 0
0, 0
1, 0
0, 0
0, 0
0, 1
0, 0
0, 0
0, 0
0, 0
0, 0
1, 0
0, 0
0, 0
0, 0
0, 0
2, 1
0, 1
0, 2
0, 0
1, 0
0, 0
0, 0
0, 0
0, 0
0, 1
0, 0
0, 0
0, 0
0, 0
0, 0
0, 1
1, 1
0, 0
1, 0
0, 0
0, 0
0, 0
0, 0
0, 0
0, 0
0, 0
0, 0
1, 0
0, 1
0, 0
0, 0
0, 0
0, 0
0, 0
0, 0
1, 0
0, 1
0, 0
1, 1
0, 0
0, 0
0, 0
0, 0
0, 0
0, 0
1, 0
0, 0
0, 0
0, 0
0, 0
0, 0
0, 0
0, 0
1, 0
0, 0
0, 0
0, 0
0, 0
1, 0
0, 0
0, 0
0, 0
0, 0
0, 0
0, 0
0, 0
0, 0
0, 0
0, 0
0, 2
1, 0
0, 0
1, 0
0, 1
0, 0
0, 0
0, 0
1, 0
0, 0
0, 0
0, 0
0, 0
0, 0
0, 0
0, 0
0, 0
0, 0
0, 0
0, 0
0, 0
0, 0
0, 0
0, 0
0, 0
0, 0
0, 0
0, 0
1, 0
0, 0
0, 0
0, 0
0, 0
0, 0
0, 1
0, 0
0, 1
0, 0
1, 0
0, 0
0, 0
0, 0
0, 0
0, 0
0, 0
0, 0
0, 0
0, 0
0, 0
0, 0
0, 0
0, 0
0, 0
0, 0
0, 0
0, 0
0, 0
0, 0
0, 0
0, 0
0, 0
0, 0
0, 0
0, 0
0, 0
0, 0
0, 0
0, 0
0, 0
0, 0
0, 0
0, 0
0, 0
0, 0
0, 0
0, 0
0, 0
0, 0
0, 0
0, 0
0, 0
0, 0
0, 0
0, 0
0, 0
0, 0
0, 0
0, 0
0, 0
0, 0
0, 0
0, 0
0, 0
0, 0
0, 0
0, 0
0, 1
0, 0
0, 0
0, 0
0, 0
1, 0
0, 0
0, 0
0, 0
0, 0
0, 0
0, 0
0, 0
0, 0
0, 0
0, 0
0, 0
0, 0
0, 0
0, 0
0, 0
0, 0
0, 0
0, 0
0, 0
0, 0
0, 0
1, 0
0, 0
0, 0
0, 0
0, 0
0, 0
0, 0
0, 0
0, 0
0, 0
0, 0
0, 0
0, 0
0, 0
0, 0
0, 0
0, 0
0, 0
0, 0
0, 0
0, 0
0, 0
0, 0
0, 0
0, 0
0, 0
0, 0
0, 0
0, 0
0, 0
0, 0
0, 0
0, 0
0, 0
0, 0
0, 0
0, 0
0, 0
0, 0
0, 0
0, 0
0, 0
0, 0
0, 0
0, 0
0, 0
0, 0
0, 0
0, 0
0, 0
0, 0
0, 0
0, 0
0, 0
0, 0
0, 0
0, 0
0, 0
0, 0
0, 0
0, 0
0, 0
0, 0
0, 0
0, 0
0, 0
0, 0
0, 0
0, 0
0, 0
0, 0
0, 0
0, 0
0, 0
0, 0
0, 0
0, 0
0, 0
0, 0
0, 0
0, 0
0, 0
0, 0
0, 0
0, 0
0, 0
0, 0
0, 0
0, 0
0, 0
0, 0
0, 0
0, 0
0, 0
0, 0
0, 0
0, 0
0, 0
0, 1
0, 0
0, 0
0, 0
0, 0
0, 0
0, 0
0, 0
0, 0
0, 0
0, 0
0, 0
0, 0
0, 0
0, 0
0, 0
0, 0
0, 0
0, 0
0, 0
0, 0
0, 0
0, 0
0, 0
0, 0
0, 0
0, 0
0, 0
0, 0
0, 0
0, 0
0, 0
0, 0
0, 0
0, 0
0, 0
0, 0
0, 0
0, 0
0, 0
0, 0
0, 0
0, 0
0, 0
0, 0
0, 0
0, 0
0, 0
0, 0
0, 0
0, 0
0, 0
0, 0
0, 0
0, 0
0, 0
0, 0
0, 0
0, 0
0, 0
0, 0
0, 0
0, 0
0, 0
0, 0
0, 0
0, 0
0, 0
0, 0
0, 0
0, 0
0, 0
0, 0
0, 0
0, 0
0, 0
0, 0
0, 0
0, 0
0, 0
0, 0
0, 0
0, 0
0, 0
0, 0
0, 0
0, 0
0, 0
0, 0
0, 0
0, 0
0, 0
0, 0
0, 0
0, 0
0, 0
0, 0
0, 0
0, 0
0, 0
0, 0
0, 0
0, 0
0, 0
0, 0
0, 0
0, 0
0, 0
0, 0
0, 0
0, 0
0, 0
0, 0
0, 0
0, 0
0, 0
0, 0
0, 0
0, 0
0, 0
0, 0
0, 0
0, 0
0, 0
0, 0
0, 0
0, 0
0, 0
0, 0
0, 0
0, 0
0, 0
0, 0
0, 0
0, 0
0, 0
0, 0
0, 0
0, 0
0, 0
0, 0
0, 0
0, 0
0, 0
0, 0
0, 0
0, 0
0, 0
0, 0
0, 0
0, 0
0, 0
0, 0
0, 0
0, 0
0, 0
0, 0
0, 0
0, 0
0, 0
0, 0
0, 0
0, 0
0, 0
0, 0
0, 0
0, 0
0, 0
0, 0
0, 0
0, 0
0, 0
0, 0
0, 0
0, 0
0, 0
0, 0
0, 0
0, 0
0, 0
0, 0
0, 0
0, 0
0, 0
0, 0
0, 0
0, 0
0, 0
0, 0
0, 0
0, 0
0, 0
0, 0
0, 0
0, 0
0, 0
0, 0
0, 0
0, 0
0, 0
0, 0
0, 0
0, 0
0, 0
0, 0
0, 0
0, 0
0, 0
0, 0
0, 0
0, 0
0, 0
0, 0
0, 0
0, 0
0, 0
0, 0
0, 0
0, 0
0, 0
0, 0
0, 0
0, 0
0, 0
0, 0
0, 0
0, 0
0, 0
0, 0
0, 0
0, 0
0, 0
0, 0
0, 0
0, 0
0, 0
0, 0
0, 0
0, 0
0, 0
0, 0
0, 0
0, 0
0, 0
0, 0
0, 0
0, 0
0, 0
0, 0
0, 0
0, 0
0, 0
0, 0
0, 0
0, 0
0, 0
0, 0
0, 0
0, 0
0, 0
0, 0
0, 0
0, 0
0, 0
0, 0
0, 0
0, 0
0, 0
0, 0
0, 0
0, 0
0, 0
0, 0
0, 0
0, 0
0, 0
0, 0
0, 0
0, 0
0, 0
0, 0
0, 0
0, 0
0, 0
0, 0
0, 0
0, 0
0, 0
0, 0
0, 0
0, 0
0, 0
0, 0
#ENDOFDATA     end of spectrum data