File: host_upload/12-01-2023/Dourbes (shot-by-shot)/upload_4/ps__0257_0689790785_000rfs_shot_3094.msa
#FORMAT      : EMSA/MAS spectral data file
#VERSION     : TC202v2.0 PIXL
#TITLE       : N/A
#DATE        :       Date in the format DD-MMM-YYYY, for example 07-JUL-2010
#TIME        :             The time of day at which the spectrum was recorded, in 24-hour format
#OWNER       : PIXL Flight Model       (PIXL will use this to indicate which instrument took the data.)
#NPOINTS     : 4096     Number of data points in the spectrum (This can be zero for configuration only files)
#NCOLUMNS    : 2     Number of data columns in the spectrum (This can be zero for configuration only files)
#XUNITS      : eV
#YUNITS      : COUNTS
#DATATYPE    : YY
#XPERCHAN    : 7.862, 7.881   eV per channel (separate by commas if more than one detector)
#OFFSET      : 18.5, -22.4         eV of first channel  (separate by commas if more than one detector
#SIGNALTYPE  : XRF
#YP_TEMP     : 3.198
#LIVETIME    : 9.00301, 8.99361   seconds (separate by commas if more than one detector)
#REALTIME    : 10, 10.0   seconds (separate by commas if more than one detector)
#SPECTRUM    : start of spectrum data
0, 0
0, 0
0, 0
0, 0
0, 0
0, 0
0, 0
0, 0
0, 0
0, 0
0, 0
0, 0
0, 0
0, 0
0, 0
0, 0
0, 0
0, 0
0, 0
0, 0
0, 0
0, 0
0, 0
0, 0
0, 0
0, 0
0, 0
0, 0
0, 0
0, 0
0, 0
0, 0
0, 0
0, 0
0, 0
0, 0
1, 1
1, 0
0, 1
0, 0
1, 0
1, 3
0, 1
2, 2
0, 0
2, 1
3, 2
3, 2
6, 3
8, 8
14, 11
30, 23
48, 33
59, 46
61, 47
63, 49
57, 41
25, 26
18, 14
10, 4
2, 7
2, 6
2, 0
4, 1
3, 3
5, 4
5, 3
8, 5
19, 10
32, 42
70, 59
153, 169
240, 235
401, 396
484, 459
502, 431
378, 360
303, 312
192, 161
88, 82
58, 56
27, 21
17, 9
6, 6
5, 7
6, 3
4, 8
2, 9
3, 5
4, 0
1, 1
1, 1
1, 2
1, 3
2, 1
2, 2
2, 3
3, 4
3, 2
2, 4
5, 3
4, 3
4, 2
1, 5
0, 5
4, 6
4, 6
5, 2
5, 1
5, 9
6, 13
13, 16
15, 15
29, 16
28, 26
32, 23
37, 33
34, 35
27, 18
20, 18
20, 13
18, 22
16, 11
16, 15
20, 12
16, 9
13, 9
11, 3
6, 7
8, 3
4, 4
5, 8
4, 3
2, 3
2, 3
1, 0
5, 2
4, 3
4, 2
2, 1
2, 4
2, 2
4, 1
2, 2
0, 1
1, 3
0, 1
2, 1
0, 1
1, 5
1, 1
2, 7
4, 10
10, 15
16, 22
17, 22
20, 25
28, 38
23, 29
19, 34
26, 10
10, 17
10, 18
13, 10
15, 22
18, 30
23, 35
38, 40
59, 34
57, 30
53, 22
36, 21
35, 8
27, 17
17, 9
10, 6
5, 4
3, 1
6, 4
4, 5
4, 2
2, 4
2, 4
7, 7
5, 3
3, 5
4, 6
3, 4
7, 2
6, 11
9, 10
11, 13
13, 11
8, 14
18, 17
19, 13
13, 9
20, 21
11, 20
10, 13
12, 16
18, 6
17, 7
5, 3
7, 5
8, 11
9, 9
4, 9
6, 11
7, 11
5, 15
6, 15
4, 8
4, 11
4, 10
4, 5
7, 8
8, 7
4, 5
10, 8
9, 7
7, 5
5, 5
4, 12
10, 11
2, 12
7, 6
12, 9
16, 6
13, 16
8, 12
12, 9
13, 13
9, 11
14, 10
22, 12
18, 9
25, 12
21, 9
8, 7
19, 7
16, 7
12, 9
13, 9
26, 18
32, 28
34, 34
48, 51
65, 83
88, 99
90, 108
117, 96
82, 94
84, 67
58, 57
49, 41
26, 22
26, 15
19, 23
18, 19
25, 9
30, 35
56, 66
77, 88
150, 225
349, 400
666, 807
1116, 1306
1722, 1934
2405, 2722
3204, 3488
3643, 3777
3866, 3820
3816, 3505
3311, 2842
2478, 2190
1866, 1463
1114, 906
702, 468
333, 230
165, 127
88, 53
37, 32
19, 15
17, 19
20, 20
19, 11
16, 19
14, 21
22, 25
31, 56
27, 67
52, 98
86, 148
132, 206
219, 298
322, 413
406, 460
463, 580
525, 596
571, 553
491, 464
444, 385
331, 296
255, 199
166, 130
85, 70
51, 35
36, 18
17, 13
6, 10
3, 8
5, 8
4, 14
4, 9
5, 12
10, 11
8, 16
3, 14
6, 17
7, 7
3, 7
5, 5
2, 1
2, 2
2, 3
2, 2
0, 4
1, 10
3, 10
2, 11
2, 15
3, 16
4, 20
3, 16
0, 9
4, 7
6, 7
3, 7
7, 7
1, 6
6, 3
6, 3
2, 1
3, 8
6, 7
4, 3
3, 3
7, 3
3, 6
6, 4
6, 1
6, 5
4, 10
4, 10
2, 7
4, 3
6, 6
3, 9
1, 7
2, 4
3, 6
1, 1
0, 1
8, 3
5, 2
4, 6
2, 7
4, 3
1, 2
2, 2
6, 1
3, 4
2, 4
3, 5
1, 8
0, 9
1, 11
2, 4
1, 11
2, 5
4, 3
2, 5
1, 2
2, 2
2, 5
3, 4
6, 1
1, 3
0, 4
4, 1
0, 2
3, 2
1, 2
2, 3
2, 4
3, 2
0, 2
2, 3
4, 1
2, 2
5, 3
2, 3
6, 1
6, 4
7, 2
9, 4
4, 5
7, 2
9, 3
2, 1
2, 2
4, 1
3, 4
4, 2
0, 1
2, 2
2, 2
1, 1
0, 2
3, 2
3, 2
3, 4
2, 1
4, 3
5, 2
4, 4
2, 3
4, 4
1, 2
4, 4
7, 2
3, 0
7, 3
9, 2
5, 2
12, 2
12, 3
7, 2
11, 4
7, 5
7, 2
7, 2
1, 5
4, 2
2, 2
3, 1
1, 0
4, 2
4, 0
1, 5
0, 3
3, 0
0, 4
6, 3
0, 5
2, 4
1, 4
0, 4
0, 4
2, 7
1, 13
1, 8
1, 8
1, 3
5, 13
1, 9
2, 2
3, 4
1, 3
2, 2
3, 1
3, 5
1, 2
5, 2
5, 2
3, 6
0, 1
3, 3
1, 4
1, 4
2, 1
2, 0
3, 1
4, 2
4, 4
0, 1
0, 2
0, 2
2, 3
1, 2
1, 2
6, 3
1, 2
2, 0
3, 3
0, 1
2, 2
2, 1
0, 1
0, 3
3, 1
2, 2
4, 1
2, 2
2, 3
2, 2
0, 2
1, 3
1, 0
1, 3
3, 1
4, 2
3, 0
1, 2
0, 3
3, 1
3, 2
2, 1
1, 0
0, 3
1, 2
2, 2
3, 2
3, 4
2, 2
4, 2
2, 3
2, 2
3, 4
0, 1
0, 4
1, 1
3, 2
3, 3
4, 8
4, 1
3, 5
4, 1
7, 8
6, 4
6, 5
7, 5
5, 7
10, 11
10, 6
5, 4
3, 5
2, 2
0, 4
3, 1
3, 2
0, 4
1, 3
3, 0
1, 2
2, 2
1, 0
1, 0
1, 1
1, 3
2, 3
3, 0
4, 1
3, 3
3, 5
1, 4
1, 4
1, 3
2, 4
3, 1
2, 3
2, 2
3, 2
2, 2
3, 0
1, 2
1, 0
4, 0
3, 0
0, 0
1, 1
1, 4
1, 2
1, 1
1, 1
0, 2
2, 0
0, 0
0, 1
1, 0
0, 1
0, 0
2, 1
1, 0
3, 1
0, 2
1, 0
2, 1
1, 0
2, 1
2, 1
3, 2
3, 1
2, 2
4, 0
3, 0
2, 2
6, 1
2, 1
1, 1
3, 0
2, 0
0, 0
4, 0
2, 1
1, 1
3, 2
1, 0
0, 0
0, 0
1, 0
0, 1
1, 0
0, 3
1, 1
1, 2
1, 2
0, 1
1, 1
2, 2
0, 0
0, 1
0, 0
1, 1
1, 4
1, 3
1, 0
2, 0
0, 0
1, 0
1, 1
0, 2
0, 0
0, 0
0, 1
0, 0
0, 1
0, 1
1, 1
0, 0
1, 0
2, 0
0, 1
0, 0
1, 0
0, 0
0, 0
0, 0
0, 0
0, 0
1, 0
0, 1
0, 0
0, 0
1, 1
0, 0
0, 0
0, 0
0, 0
0, 1
1, 1
0, 2
0, 0
0, 0
0, 1
1, 1
0, 2
1, 2
0, 2
0, 0
1, 0
0, 1
0, 0
0, 0
0, 0
0, 0
0, 0
0, 0
1, 1
0, 0
1, 1
0, 0
0, 0
1, 0
0, 0
1, 0
0, 0
0, 0
0, 0
0, 1
2, 0
0, 0
0, 0
1, 0
0, 0
0, 0
1, 0
0, 0
0, 0
1, 0
1, 1
1, 0
0, 0
0, 0
0, 0
2, 0
0, 1
1, 0
1, 0
0, 1
1, 0
0, 1
0, 0
0, 2
0, 0
1, 0
0, 0
0, 0
0, 1
1, 0
2, 0
1, 1
0, 0
1, 0
0, 0
0, 0
0, 1
0, 0
0, 0
1, 0
0, 1
0, 1
0, 0
0, 1
0, 0
0, 0
0, 0
0, 1
0, 2
0, 0
1, 0
0, 0
0, 0
0, 0
0, 0
0, 1
1, 0
1, 0
0, 0
1, 0
1, 0
0, 0
1, 1
1, 0
0, 1
0, 1
0, 0
0, 0
0, 0
0, 1
0, 0
0, 0
0, 1
1, 1
0, 0
1, 0
0, 0
0, 0
0, 0
0, 0
1, 2
2, 0
2, 0
0, 0
0, 1
0, 2
0, 0
0, 0
0, 0
0, 0
1, 0
0, 1
0, 0
0, 0
0, 0
0, 1
0, 0
0, 0
0, 0
0, 0
0, 0
0, 0
0, 1
0, 0
0, 0
1, 0
0, 0
0, 0
0, 1
0, 0
1, 0
0, 1
0, 0
0, 0
0, 1
1, 0
0, 0
1, 1
0, 0
0, 1
1, 0
0, 0
0, 0
0, 0
0, 0
0, 0
0, 1
0, 0
0, 0
0, 1
0, 0
0, 0
0, 0
0, 0
0, 0
0, 0
0, 0
0, 0
0, 0
0, 0
0, 0
0, 0
0, 0
0, 0
0, 0
0, 0
2, 0
0, 0
0, 0
0, 0
0, 1
2, 0
0, 0
0, 0
0, 1
0, 0
1, 0
0, 0
1, 0
0, 1
0, 0
0, 0
0, 1
0, 0
0, 0
0, 0
0, 0
0, 0
0, 0
0, 0
0, 0
0, 0
0, 0
0, 0
0, 0
0, 0
0, 1
0, 0
0, 0
0, 0
0, 0
0, 0
0, 0
0, 0
0, 0
0, 0
0, 0
0, 0
0, 0
0, 0
0, 0
0, 0
0, 1
0, 0
0, 0
0, 0
0, 0
0, 0
0, 0
0, 0
0, 0
0, 0
0, 0
0, 0
0, 0
0, 0
0, 0
0, 0
0, 0
0, 0
0, 0
1, 0
0, 1
0, 0
1, 0
0, 0
0, 0
1, 0
0, 0
0, 0
0, 0
0, 0
0, 0
0, 0
0, 0
0, 0
0, 0
0, 0
0, 0
0, 0
0, 0
0, 0
0, 0
0, 0
1, 0
0, 0
0, 0
0, 0
0, 0
0, 0
0, 0
0, 0
0, 0
0, 0
0, 0
0, 0
0, 1
0, 0
0, 0
0, 0
0, 0
0, 0
0, 0
0, 0
0, 0
0, 0
0, 0
0, 0
0, 0
0, 0
0, 0
0, 0
0, 0
0, 0
0, 0
0, 0
0, 0
0, 0
0, 0
0, 0
0, 0
0, 0
0, 0
0, 0
0, 0
0, 0
0, 0
0, 0
0, 0
1, 0
0, 0
0, 0
0, 0
0, 0
0, 0
0, 0
0, 0
0, 0
0, 0
0, 0
0, 0
0, 0
0, 0
0, 0
0, 0
0, 0
0, 0
0, 0
0, 0
0, 0
0, 0
0, 0
0, 0
0, 0
0, 0
0, 0
0, 0
0, 0
0, 0
0, 0
0, 0
0, 0
0, 0
0, 0
0, 0
0, 0
0, 0
0, 0
0, 0
0, 0
0, 0
0, 0
0, 0
0, 0
0, 0
0, 0
0, 0
0, 0
0, 0
0, 0
0, 0
0, 0
0, 0
0, 0
0, 0
0, 0
0, 0
0, 0
0, 0
0, 0
0, 0
0, 0
0, 0
0, 0
0, 0
0, 0
0, 0
0, 0
0, 0
0, 0
0, 0
0, 0
0, 0
0, 0
0, 0
0, 0
0, 0
0, 0
0, 0
0, 0
0, 0
0, 0
0, 0
0, 0
0, 0
0, 0
0, 0
0, 0
0, 0
0, 0
0, 0
0, 0
0, 0
0, 0
0, 0
0, 0
0, 0
0, 0
0, 0
0, 0
0, 0
0, 0
0, 0
0, 0
0, 0
0, 0
0, 0
0, 0
0, 0
0, 0
0, 0
0, 0
0, 0
0, 0
0, 0
0, 0
0, 0
0, 0
0, 0
0, 0
0, 0
0, 0
0, 0
0, 0
0, 0
0, 0
0, 0
0, 0
0, 0
0, 0
0, 0
0, 0
0, 0
0, 0
0, 0
0, 0
0, 0
0, 0
0, 0
0, 0
0, 0
0, 0
0, 0
0, 0
0, 0
0, 0
0, 0
0, 0
0, 0
0, 0
0, 0
0, 0
0, 0
0, 0
0, 0
0, 0
0, 0
0, 0
0, 0
0, 0
0, 0
0, 0
0, 0
0, 0
0, 0
0, 0
0, 0
0, 0
0, 0
0, 0
0, 0
0, 0
0, 0
0, 0
0, 0
0, 0
0, 0
0, 0
0, 0
0, 0
0, 0
0, 0
0, 0
0, 0
0, 0
0, 0
0, 0
0, 0
0, 0
0, 0
0, 0
0, 0
0, 0
0, 0
0, 0
0, 0
0, 0
0, 0
0, 0
0, 0
0, 0
0, 0
0, 0
0, 0
0, 0
0, 0
0, 0
0, 0
0, 0
0, 0
0, 0
0, 0
0, 0
0, 0
0, 0
0, 0
0, 0
0, 0
0, 0
0, 0
0, 0
0, 0
0, 0
0, 0
0, 0
0, 0
0, 0
0, 0
0, 0
0, 0
0, 0
0, 0
0, 0
0, 0
0, 0
0, 0
0, 0
0, 0
0, 0
0, 0
0, 0
0, 0
0, 0
0, 0
0, 0
0, 0
0, 0
0, 0
0, 0
0, 0
0, 0
0, 0
0, 0
0, 0
0, 0
0, 0
0, 0
0, 0
0, 0
0, 0
0, 0
0, 0
0, 0
0, 0
0, 0
0, 0
0, 0
0, 0
0, 0
0, 0
0, 0
0, 0
0, 0
0, 0
0, 0
0, 0
0, 0
0, 0
0, 0
0, 0
0, 0
0, 0
0, 0
0, 0
0, 0
0, 0
0, 0
0, 0
0, 0
0, 0
0, 0
0, 0
0, 0
0, 0
0, 0
0, 0
0, 0
0, 0
0, 0
0, 0
0, 0
0, 0
0, 0
0, 0
0, 0
0, 0
0, 0
0, 0
0, 0
0, 0
0, 0
0, 0
0, 0
0, 0
0, 0
0, 0
0, 0
0, 0
0, 0
0, 0
0, 0
0, 0
0, 0
0, 0
0, 0
0, 0
0, 0
0, 0
0, 0
0, 0
0, 0
0, 0
0, 0
0, 0
0, 0
0, 0
0, 0
0, 0
0, 0
0, 0
0, 0
0, 0
0, 0
0, 0
0, 0
0, 0
0, 0
0, 0
0, 0
0, 0
0, 0
0, 0
0, 0
0, 0
0, 0
0, 0
0, 0
0, 0
0, 0
0, 0
0, 0
0, 0
0, 0
0, 0
0, 0
0, 0
0, 0
0, 0
0, 0
0, 0
0, 0
0, 0
0, 0
0, 0
0, 0
0, 0
0, 0
0, 0
0, 0
0, 0
0, 0
0, 0
0, 0
0, 0
0, 0
#ENDOFDATA     end of spectrum data