File: host_upload/12-01-2023/Dourbes (shot-by-shot)/upload_4/ps__0257_0689790785_000rfs_shot_3024.msa
#FORMAT      : EMSA/MAS spectral data file
#VERSION     : TC202v2.0 PIXL
#TITLE       : N/A
#DATE        :       Date in the format DD-MMM-YYYY, for example 07-JUL-2010
#TIME        :             The time of day at which the spectrum was recorded, in 24-hour format
#OWNER       : PIXL Flight Model       (PIXL will use this to indicate which instrument took the data.)
#NPOINTS     : 4096     Number of data points in the spectrum (This can be zero for configuration only files)
#NCOLUMNS    : 2     Number of data columns in the spectrum (This can be zero for configuration only files)
#XUNITS      : eV
#YUNITS      : COUNTS
#DATATYPE    : YY
#XPERCHAN    : 7.862, 7.881   eV per channel (separate by commas if more than one detector)
#OFFSET      : 18.5, -22.4         eV of first channel  (separate by commas if more than one detector
#SIGNALTYPE  : XRF
#YP_TEMP     : 2.909
#LIVETIME    : 8.9846, 8.98012   seconds (separate by commas if more than one detector)
#REALTIME    : 10, 10.0   seconds (separate by commas if more than one detector)
#SPECTRUM    : start of spectrum data
0, 0
0, 0
0, 0
0, 0
0, 0
0, 0
0, 0
0, 0
0, 0
0, 0
0, 0
0, 0
0, 0
0, 0
0, 0
0, 0
0, 0
0, 0
0, 0
0, 0
0, 0
0, 0
0, 0
0, 0
0, 0
0, 0
0, 0
0, 0
0, 0
0, 0
0, 0
0, 0
0, 0
0, 0
0, 0
0, 0
1, 0
1, 2
4, 3
0, 3
2, 5
3, 1
3, 3
0, 2
2, 2
3, 1
1, 1
1, 1
1, 3
6, 6
7, 7
21, 23
25, 30
35, 30
34, 31
35, 26
25, 27
11, 23
4, 9
9, 8
2, 4
3, 3
5, 6
6, 5
5, 2
1, 4
8, 7
12, 9
13, 19
45, 29
104, 85
197, 187
342, 309
466, 500
568, 547
556, 558
486, 503
370, 318
234, 197
131, 107
84, 45
33, 27
26, 15
11, 6
6, 6
5, 0
7, 5
3, 2
1, 3
5, 3
2, 0
8, 2
4, 3
10, 3
5, 12
11, 21
29, 27
18, 42
38, 35
36, 31
30, 30
21, 27
19, 7
13, 9
8, 8
10, 7
17, 17
24, 12
41, 43
67, 71
91, 85
101, 100
158, 146
166, 150
133, 155
143, 146
119, 142
94, 101
80, 82
67, 65
72, 48
51, 47
35, 42
33, 31
44, 35
39, 34
25, 32
22, 38
20, 15
17, 15
11, 13
9, 4
8, 3
9, 5
6, 6
6, 2
5, 5
7, 10
5, 4
2, 11
4, 4
9, 1
9, 7
7, 3
5, 4
4, 8
5, 1
4, 5
6, 2
6, 8
17, 13
12, 16
34, 43
69, 60
83, 103
118, 141
156, 142
157, 160
151, 154
123, 126
95, 80
49, 52
36, 31
19, 13
10, 8
7, 11
6, 17
18, 15
20, 21
29, 29
29, 32
23, 14
21, 23
20, 16
16, 24
18, 13
15, 13
12, 15
7, 10
8, 7
8, 4
7, 6
7, 5
10, 7
11, 14
10, 13
10, 8
19, 11
13, 16
14, 18
17, 20
28, 17
31, 26
20, 23
25, 24
33, 30
30, 29
26, 30
29, 19
31, 28
22, 24
24, 18
21, 21
21, 16
16, 21
11, 8
20, 12
20, 11
18, 15
19, 16
27, 15
16, 12
17, 17
22, 15
21, 21
15, 13
5, 17
13, 11
16, 15
26, 9
10, 16
4, 17
13, 19
25, 18
10, 23
21, 22
20, 16
19, 15
15, 26
13, 16
11, 17
12, 17
16, 14
21, 3
11, 20
12, 13
18, 15
24, 16
15, 14
17, 15
16, 16
18, 17
22, 12
15, 21
20, 28
33, 38
53, 57
81, 87
96, 114
125, 118
143, 145
151, 153
133, 116
89, 103
76, 58
80, 52
44, 39
36, 33
25, 23
27, 19
31, 29
34, 48
56, 57
76, 111
170, 237
343, 411
577, 784
1031, 1299
1655, 1968
2383, 2674
3023, 3438
3552, 3825
3720, 3813
3611, 3541
3193, 2898
2462, 2119
1779, 1471
1162, 929
675, 503
366, 285
201, 117
108, 63
56, 51
43, 34
26, 34
29, 30
33, 28
34, 33
34, 34
41, 37
35, 60
38, 71
58, 93
102, 100
139, 174
198, 227
305, 359
359, 448
455, 481
530, 540
576, 555
528, 472
428, 392
319, 304
259, 188
160, 112
95, 66
51, 44
25, 25
17, 16
4, 8
4, 7
5, 10
3, 3
5, 7
7, 3
6, 8
9, 4
4, 5
5, 14
5, 6
6, 5
6, 5
4, 6
6, 7
5, 3
3, 6
5, 3
4, 6
3, 5
6, 4
6, 8
4, 7
3, 7
7, 7
3, 11
5, 9
4, 5
7, 7
3, 4
5, 2
6, 7
5, 3
4, 9
7, 5
8, 5
6, 6
11, 10
10, 3
5, 3
7, 7
2, 7
9, 3
5, 6
6, 4
8, 5
11, 5
3, 7
4, 3
3, 6
7, 5
4, 2
5, 2
11, 8
7, 5
10, 6
6, 7
5, 3
9, 7
5, 1
7, 7
5, 12
6, 7
5, 7
11, 7
10, 4
4, 3
6, 5
2, 7
3, 2
1, 3
9, 6
6, 3
5, 4
0, 4
3, 3
5, 9
6, 3
1, 8
4, 6
6, 2
9, 4
3, 5
4, 1
5, 4
5, 3
4, 3
6, 8
4, 8
4, 5
4, 5
5, 0
4, 0
4, 2
6, 2
1, 3
2, 5
2, 9
1, 4
3, 7
5, 2
3, 7
3, 2
3, 2
1, 4
5, 7
2, 3
3, 5
4, 3
2, 4
4, 4
4, 4
6, 2
3, 6
4, 6
4, 7
3, 7
4, 4
10, 4
6, 5
5, 3
10, 3
2, 3
11, 3
2, 6
3, 1
5, 4
4, 7
5, 4
3, 2
0, 6
3, 4
8, 6
3, 3
1, 4
3, 2
1, 3
2, 2
4, 1
3, 3
6, 2
2, 2
2, 3
3, 5
3, 2
1, 4
4, 2
1, 0
1, 9
5, 2
3, 2
1, 4
4, 3
2, 4
4, 5
3, 1
4, 4
6, 2
3, 4
2, 4
7, 6
1, 2
4, 1
6, 2
1, 3
2, 1
4, 0
1, 1
2, 1
3, 3
3, 3
3, 2
3, 1
2, 1
2, 4
0, 1
1, 1
3, 2
1, 5
0, 4
2, 4
2, 2
2, 1
2, 4
4, 2
4, 4
1, 3
2, 1
1, 4
3, 1
4, 1
3, 3
0, 5
6, 2
0, 1
1, 4
5, 1
1, 1
1, 1
2, 2
1, 2
3, 2
3, 3
0, 1
2, 1
1, 3
3, 1
2, 2
5, 4
0, 2
7, 0
1, 1
0, 0
2, 3
0, 1
2, 3
3, 3
2, 5
0, 1
0, 2
1, 4
2, 3
1, 2
2, 3
1, 1
3, 3
5, 4
3, 5
1, 4
9, 5
8, 5
6, 4
13, 4
8, 7
10, 6
9, 3
2, 2
3, 4
3, 2
0, 0
2, 1
1, 4
1, 3
3, 3
2, 2
2, 3
0, 2
2, 0
2, 1
0, 0
0, 0
0, 1
0, 2
0, 0
1, 3
3, 2
2, 3
3, 2
2, 1
4, 2
3, 4
0, 4
3, 4
2, 4
1, 0
3, 1
2, 0
1, 1
1, 1
1, 2
0, 3
1, 1
1, 0
0, 1
1, 0
0, 0
1, 3
0, 0
0, 1
0, 1
4, 0
2, 0
1, 0
4, 1
1, 0
1, 0
3, 2
2, 2
2, 2
1, 0
1, 3
1, 0
0, 2
1, 1
1, 1
3, 0
2, 2
3, 2
0, 1
1, 1
0, 2
0, 1
2, 1
0, 1
1, 1
1, 0
2, 1
0, 1
1, 1
2, 2
0, 3
3, 0
0, 0
0, 1
1, 3
1, 0
0, 0
1, 1
1, 0
1, 3
0, 1
0, 0
2, 0
0, 0
1, 0
0, 1
1, 1
0, 1
0, 1
0, 0
1, 0
1, 0
0, 0
0, 0
0, 1
1, 1
0, 0
0, 1
1, 1
1, 0
1, 1
0, 0
0, 0
0, 0
1, 1
0, 0
0, 1
0, 1
1, 1
0, 1
0, 0
0, 0
1, 0
0, 0
1, 1
2, 2
2, 0
1, 1
1, 0
1, 1
1, 0
2, 0
1, 1
0, 1
0, 0
1, 0
1, 0
2, 0
1, 0
0, 1
0, 1
3, 0
0, 1
0, 0
2, 0
0, 1
0, 1
0, 0
2, 0
0, 0
1, 2
0, 0
1, 1
1, 1
0, 0
0, 2
0, 0
1, 0
0, 0
1, 0
0, 0
0, 0
0, 0
1, 0
0, 0
0, 1
1, 1
1, 0
1, 0
0, 1
0, 3
0, 0
0, 0
0, 0
0, 0
1, 0
0, 1
0, 0
0, 0
0, 1
0, 1
0, 2
1, 0
0, 0
0, 0
0, 0
0, 0
2, 0
0, 0
0, 0
0, 1
0, 3
0, 0
0, 1
0, 2
0, 0
0, 0
0, 0
0, 0
0, 0
0, 0
0, 0
0, 0
1, 0
0, 0
2, 0
0, 0
0, 1
0, 1
1, 0
1, 1
1, 2
0, 0
0, 0
0, 0
0, 0
1, 0
1, 0
0, 0
1, 1
0, 0
0, 0
0, 1
0, 0
0, 0
0, 1
0, 0
0, 1
0, 0
0, 1
0, 0
0, 0
1, 0
0, 0
0, 0
0, 0
0, 0
1, 2
1, 0
0, 0
0, 0
0, 0
0, 0
0, 1
1, 0
0, 0
1, 0
1, 0
1, 0
1, 0
1, 0
0, 0
0, 0
1, 0
0, 0
1, 0
0, 0
1, 0
0, 0
2, 0
0, 0
0, 0
0, 1
2, 0
0, 0
0, 0
0, 0
1, 0
0, 0
0, 0
1, 0
0, 0
0, 2
0, 0
1, 0
1, 0
0, 0
0, 0
0, 0
1, 0
0, 1
0, 0
0, 0
0, 0
0, 0
0, 0
0, 0
0, 0
0, 0
0, 0
0, 0
0, 0
0, 0
0, 0
1, 0
0, 0
0, 0
0, 0
0, 0
0, 0
0, 0
0, 1
0, 0
0, 0
1, 0
0, 0
0, 0
0, 0
0, 0
0, 0
0, 0
0, 0
0, 0
0, 0
0, 0
1, 1
0, 0
1, 0
0, 0
0, 0
0, 0
0, 0
0, 0
1, 0
1, 0
0, 0
0, 1
0, 0
1, 0
0, 1
0, 0
0, 0
1, 0
0, 0
0, 0
0, 0
0, 0
0, 0
0, 0
0, 0
0, 0
0, 0
0, 0
0, 0
0, 0
0, 0
0, 0
0, 0
0, 0
1, 0
0, 0
0, 0
1, 0
0, 0
0, 0
1, 0
0, 0
0, 0
0, 0
0, 0
0, 0
0, 0
0, 0
0, 0
0, 0
0, 0
0, 0
0, 1
0, 0
0, 0
0, 0
0, 0
0, 0
0, 0
0, 0
0, 0
0, 0
0, 0
0, 0
0, 0
0, 0
0, 0
0, 0
0, 0
0, 0
0, 0
0, 0
1, 0
1, 0
1, 0
0, 0
0, 0
0, 0
0, 0
0, 0
0, 0
0, 0
0, 0
1, 0
0, 0
0, 0
0, 0
0, 0
0, 0
0, 0
0, 0
0, 0
0, 0
0, 0
0, 0
0, 0
0, 0
0, 0
0, 0
0, 1
0, 0
0, 0
0, 0
0, 1
0, 0
0, 0
0, 0
0, 0
0, 0
0, 0
0, 0
0, 0
0, 0
0, 0
0, 0
0, 0
0, 0
0, 0
0, 0
0, 0
0, 0
0, 0
0, 0
0, 0
0, 0
0, 0
0, 0
0, 0
0, 0
0, 0
0, 0
0, 0
0, 0
0, 0
0, 0
0, 0
0, 0
0, 0
0, 0
0, 0
0, 0
0, 0
0, 0
0, 0
0, 0
0, 0
0, 0
0, 0
0, 0
0, 0
0, 0
0, 0
0, 0
0, 0
0, 0
0, 0
0, 0
0, 0
0, 0
0, 0
0, 0
0, 0
0, 0
0, 0
0, 0
0, 0
0, 0
0, 1
0, 0
0, 0
0, 0
0, 0
0, 0
0, 0
0, 0
0, 0
0, 0
0, 0
0, 0
0, 0
0, 0
0, 0
0, 0
0, 0
0, 0
0, 0
0, 0
0, 0
0, 0
0, 0
0, 0
0, 0
0, 0
0, 0
0, 0
0, 0
0, 0
0, 0
0, 0
0, 0
0, 0
0, 0
0, 0
0, 0
0, 0
0, 0
0, 0
0, 0
0, 0
0, 0
0, 0
0, 0
0, 0
0, 0
0, 0
0, 0
0, 0
0, 0
0, 0
0, 0
0, 0
0, 0
0, 0
0, 0
0, 0
0, 0
0, 0
0, 0
0, 0
0, 0
0, 0
0, 0
0, 0
0, 0
0, 0
0, 0
0, 0
0, 0
0, 0
0, 0
0, 0
0, 0
0, 0
0, 0
0, 0
0, 0
0, 0
0, 0
0, 0
0, 0
0, 0
0, 0
0, 0
0, 0
0, 0
0, 0
0, 0
0, 0
0, 0
0, 0
0, 0
0, 0
0, 0
0, 0
0, 0
0, 0
0, 0
0, 0
0, 0
0, 0
0, 0
0, 0
0, 0
0, 0
0, 0
0, 0
0, 0
0, 0
0, 0
0, 0
0, 0
0, 0
0, 0
0, 0
0, 0
0, 0
0, 0
0, 0
0, 0
0, 0
0, 0
0, 0
0, 0
0, 0
0, 0
0, 0
0, 0
0, 0
0, 0
0, 0
0, 0
0, 0
0, 0
0, 0
0, 0
0, 0
0, 0
0, 0
0, 0
0, 0
0, 0
0, 0
0, 0
0, 0
0, 0
0, 0
0, 0
0, 0
0, 0
0, 0
0, 0
0, 0
0, 0
0, 0
0, 0
0, 0
0, 0
0, 0
0, 0
0, 0
0, 0
0, 0
0, 0
0, 0
0, 0
0, 0
0, 0
0, 0
0, 0
0, 0
0, 0
0, 0
0, 0
0, 0
0, 0
0, 0
0, 0
0, 0
0, 0
0, 0
0, 0
0, 0
0, 0
0, 0
0, 0
0, 0
0, 0
0, 0
0, 0
0, 0
0, 0
0, 0
0, 0
0, 0
0, 0
0, 0
0, 0
0, 0
0, 0
0, 0
0, 0
0, 0
0, 0
0, 0
0, 0
0, 0
0, 0
0, 0
0, 0
0, 0
0, 0
0, 0
0, 0
0, 0
0, 0
0, 0
0, 0
0, 0
0, 0
0, 0
0, 0
0, 0
0, 0
0, 0
0, 0
0, 0
0, 0
0, 0
0, 0
0, 0
0, 0
0, 0
0, 0
0, 0
0, 0
0, 0
0, 0
0, 0
0, 0
0, 0
0, 0
0, 0
0, 0
0, 0
0, 0
0, 0
0, 0
0, 0
0, 0
0, 0
0, 0
0, 0
0, 0
0, 0
0, 0
0, 0
0, 0
0, 0
0, 0
0, 0
0, 0
0, 0
0, 0
0, 0
0, 0
0, 0
0, 0
0, 0
0, 0
0, 0
0, 0
0, 0
0, 0
0, 0
0, 0
0, 0
0, 0
0, 0
0, 0
0, 0
0, 0
0, 0
0, 0
0, 0
0, 0
0, 0
0, 0
0, 0
0, 0
0, 0
0, 0
0, 0
0, 0
0, 0
0, 0
0, 0
0, 0
0, 0
0, 0
0, 0
0, 0
0, 0
0, 0
0, 0
0, 0
0, 0
0, 0
0, 0
0, 0
0, 0
0, 0
0, 0
0, 0
0, 0
0, 0
0, 0
0, 0
0, 0
0, 0
0, 0
0, 0
0, 0
0, 0
0, 0
0, 0
0, 0
0, 0
0, 0
0, 0
0, 0
0, 0
0, 0
0, 0
0, 0
0, 0
0, 0
0, 0
0, 0
0, 0
0, 0
0, 0
#ENDOFDATA     end of spectrum data