File: host_upload/12-01-2023/Dourbes (shot-by-shot)/upload_4/ps__0257_0689790785_000rfs_shot_3177.msa
#FORMAT      : EMSA/MAS spectral data file
#VERSION     : TC202v2.0 PIXL
#TITLE       : N/A
#DATE        :       Date in the format DD-MMM-YYYY, for example 07-JUL-2010
#TIME        :             The time of day at which the spectrum was recorded, in 24-hour format
#OWNER       : PIXL Flight Model       (PIXL will use this to indicate which instrument took the data.)
#NPOINTS     : 4096     Number of data points in the spectrum (This can be zero for configuration only files)
#NCOLUMNS    : 2     Number of data columns in the spectrum (This can be zero for configuration only files)
#XUNITS      : eV
#YUNITS      : COUNTS
#DATATYPE    : YY
#XPERCHAN    : 7.862, 7.881   eV per channel (separate by commas if more than one detector)
#OFFSET      : 18.5, -22.4         eV of first channel  (separate by commas if more than one detector
#SIGNALTYPE  : XRF
#YP_TEMP     : 3.005
#LIVETIME    : 9.05394, 9.04522   seconds (separate by commas if more than one detector)
#REALTIME    : 10, 10.0   seconds (separate by commas if more than one detector)
#SPECTRUM    : start of spectrum data
0, 0
0, 0
0, 0
0, 0
0, 0
0, 0
0, 0
0, 0
0, 0
0, 0
0, 0
0, 0
0, 0
0, 0
0, 0
0, 0
0, 0
0, 0
0, 0
0, 0
0, 0
0, 0
0, 0
0, 0
0, 0
0, 0
0, 0
0, 0
0, 0
0, 1
0, 0
0, 0
0, 0
0, 0
0, 1
0, 0
0, 0
1, 0
2, 2
1, 0
0, 1
2, 2
3, 1
3, 1
1, 2
0, 2
3, 4
6, 0
5, 2
3, 8
7, 8
25, 18
31, 19
36, 36
37, 40
30, 30
20, 29
16, 26
11, 7
9, 18
17, 20
36, 30
51, 48
62, 46
74, 52
66, 60
37, 44
29, 36
29, 30
51, 46
121, 91
236, 204
370, 379
578, 540
698, 651
687, 639
574, 532
417, 364
282, 233
151, 126
64, 78
32, 31
9, 8
5, 7
12, 4
4, 3
8, 4
4, 1
2, 1
4, 2
4, 2
1, 1
3, 1
3, 1
4, 1
3, 2
7, 1
2, 4
2, 6
5, 2
4, 5
1, 3
1, 3
0, 4
1, 6
4, 3
5, 5
10, 4
10, 10
10, 11
23, 31
36, 41
32, 43
31, 38
33, 44
35, 29
35, 29
31, 30
28, 25
13, 16
14, 25
15, 14
27, 18
11, 22
12, 14
19, 22
8, 18
12, 11
6, 13
4, 6
5, 8
3, 6
5, 9
5, 4
3, 6
5, 5
12, 12
22, 15
24, 30
39, 36
59, 48
40, 41
57, 47
49, 32
36, 20
22, 21
12, 7
8, 6
3, 6
6, 3
10, 1
12, 12
12, 13
21, 26
19, 31
36, 29
40, 37
44, 32
31, 27
22, 21
29, 20
19, 24
7, 21
11, 28
8, 26
11, 39
20, 55
17, 56
24, 45
24, 41
24, 41
21, 26
15, 16
17, 11
7, 9
6, 8
4, 7
3, 2
7, 3
6, 4
4, 4
5, 5
6, 3
7, 3
5, 3
6, 6
7, 8
11, 10
11, 7
12, 5
11, 6
13, 10
14, 15
20, 15
12, 14
9, 14
20, 14
15, 10
15, 17
17, 17
14, 15
11, 16
13, 9
9, 8
8, 5
8, 8
8, 7
3, 4
8, 16
7, 10
3, 11
10, 8
6, 12
5, 12
2, 9
9, 12
5, 7
6, 8
4, 4
7, 6
6, 4
3, 4
5, 8
9, 8
9, 5
6, 10
6, 9
10, 15
5, 13
12, 11
12, 8
16, 8
13, 7
15, 13
15, 14
14, 10
15, 5
13, 3
18, 5
10, 4
7, 5
15, 6
13, 11
17, 9
11, 16
9, 21
25, 36
42, 49
66, 50
79, 64
76, 76
72, 81
82, 75
74, 48
55, 42
43, 44
33, 17
32, 16
39, 20
28, 13
54, 15
50, 28
56, 35
101, 81
175, 159
293, 372
522, 636
930, 1064
1503, 1637
2037, 2307
2613, 2743
2969, 3161
3320, 3073
3036, 2773
2673, 2265
2136, 1683
1403, 1120
957, 682
546, 387
268, 182
133, 98
67, 42
29, 19
18, 22
16, 20
15, 7
16, 9
17, 19
15, 22
19, 22
28, 31
33, 33
54, 63
79, 108
142, 127
192, 229
249, 305
334, 382
391, 435
470, 456
440, 436
456, 417
365, 338
284, 225
167, 167
134, 121
73, 53
40, 28
15, 19
16, 14
11, 10
11, 4
4, 7
4, 10
4, 7
7, 15
7, 6
10, 10
5, 15
7, 8
4, 11
5, 7
8, 7
4, 6
1, 3
3, 5
1, 14
1, 8
3, 13
2, 11
6, 21
7, 16
9, 22
6, 21
7, 29
6, 25
5, 16
7, 17
6, 9
7, 10
4, 8
7, 6
6, 10
10, 4
8, 5
3, 5
7, 6
3, 7
4, 9
4, 4
4, 7
6, 7
10, 4
4, 8
4, 7
3, 7
4, 8
5, 7
4, 7
2, 4
7, 6
4, 9
3, 5
4, 7
7, 5
7, 3
5, 6
5, 5
3, 7
3, 6
5, 5
6, 9
4, 5
2, 1
3, 8
6, 7
3, 8
1, 12
4, 5
5, 6
0, 7
5, 7
3, 5
5, 7
3, 2
1, 0
3, 5
2, 2
1, 2
1, 1
8, 2
5, 2
3, 7
4, 2
4, 3
7, 4
7, 3
2, 6
5, 2
5, 5
3, 3
6, 3
5, 4
4, 2
2, 5
2, 3
7, 6
5, 3
3, 3
2, 2
0, 5
3, 3
4, 5
4, 5
2, 3
0, 2
0, 1
3, 5
1, 1
2, 2
6, 6
1, 3
3, 3
2, 4
3, 1
5, 7
2, 1
4, 3
3, 1
5, 1
2, 3
2, 2
3, 2
7, 2
6, 4
13, 2
7, 3
10, 2
6, 4
7, 2
10, 6
9, 0
6, 3
8, 2
13, 1
4, 3
2, 1
4, 4
3, 3
1, 4
3, 3
1, 1
3, 1
1, 5
1, 2
3, 8
2, 1
4, 3
0, 5
3, 8
3, 8
2, 10
1, 7
2, 9
2, 6
2, 11
3, 3
6, 2
4, 2
3, 6
2, 1
1, 3
1, 2
0, 2
2, 1
3, 4
4, 4
2, 3
2, 4
1, 4
0, 2
2, 8
2, 4
2, 1
1, 2
3, 0
1, 1
0, 0
0, 2
0, 3
2, 2
1, 2
0, 1
4, 3
3, 2
0, 1
2, 3
2, 0
3, 0
1, 3
1, 2
2, 0
1, 1
3, 3
1, 1
4, 2
8, 3
2, 1
0, 0
3, 1
0, 5
1, 4
1, 0
4, 0
3, 2
2, 3
0, 1
1, 0
3, 3
2, 2
0, 2
2, 1
1, 2
3, 3
2, 3
0, 0
2, 3
2, 1
2, 1
3, 1
1, 5
0, 0
3, 0
1, 0
1, 3
2, 2
2, 5
4, 1
6, 5
9, 7
4, 3
11, 6
8, 2
1, 7
7, 2
7, 4
8, 4
5, 7
4, 2
4, 0
2, 0
3, 5
3, 3
1, 2
1, 2
1, 1
1, 0
0, 1
1, 2
0, 1
0, 0
0, 3
1, 2
2, 2
2, 0
2, 2
2, 2
1, 0
1, 1
2, 2
4, 2
4, 1
0, 1
1, 1
0, 2
0, 3
0, 0
1, 0
0, 0
2, 2
0, 0
1, 2
2, 2
0, 2
2, 2
2, 0
2, 4
0, 2
1, 0
0, 1
3, 3
1, 0
3, 2
2, 2
1, 2
3, 0
1, 0
1, 1
1, 0
0, 0
6, 0
0, 1
3, 0
2, 1
0, 2
0, 0
3, 2
6, 4
0, 0
3, 1
2, 1
3, 0
0, 1
1, 2
1, 1
0, 0
1, 0
0, 3
5, 1
0, 1
0, 0
1, 0
0, 0
2, 1
1, 0
3, 0
0, 4
0, 1
1, 1
1, 1
1, 1
0, 1
1, 0
0, 2
0, 0
0, 0
1, 3
0, 1
0, 0
1, 0
0, 0
0, 2
0, 0
1, 0
1, 3
1, 1
1, 1
1, 1
0, 0
1, 0
0, 1
0, 1
1, 1
0, 1
2, 0
0, 1
0, 1
0, 1
0, 0
0, 0
0, 0
0, 0
0, 0
0, 0
0, 0
1, 0
0, 0
0, 1
0, 1
1, 0
0, 0
0, 1
0, 0
2, 0
0, 0
0, 0
1, 0
0, 1
0, 1
0, 0
2, 1
0, 0
0, 2
1, 0
1, 0
0, 0
1, 0
0, 0
0, 0
0, 1
0, 0
0, 0
0, 0
0, 1
1, 0
0, 1
1, 1
0, 0
1, 1
0, 0
0, 0
0, 0
0, 1
0, 0
0, 0
2, 0
0, 0
0, 0
2, 0
0, 1
0, 1
2, 1
1, 1
1, 1
0, 0
1, 0
1, 0
0, 0
0, 0
0, 0
0, 0
0, 1
0, 0
0, 2
1, 0
0, 0
1, 0
1, 0
1, 1
0, 0
0, 0
0, 0
0, 1
0, 0
0, 0
0, 0
0, 0
0, 0
0, 0
0, 0
0, 1
0, 0
2, 0
0, 0
0, 1
0, 0
0, 0
0, 1
1, 0
1, 1
1, 1
0, 0
0, 0
0, 0
0, 1
0, 0
0, 0
0, 0
0, 0
0, 0
1, 0
0, 0
0, 0
0, 0
0, 0
0, 0
0, 0
0, 0
0, 0
0, 0
0, 0
0, 0
0, 0
0, 1
0, 0
0, 0
0, 0
0, 0
1, 0
0, 0
0, 0
0, 0
0, 0
1, 0
0, 1
0, 0
0, 0
1, 0
0, 0
1, 1
0, 1
0, 0
0, 0
1, 0
2, 0
0, 0
0, 0
0, 2
0, 1
0, 1
1, 0
0, 0
0, 0
0, 0
0, 0
0, 2
0, 0
0, 0
0, 0
0, 0
0, 0
0, 0
1, 0
0, 0
1, 1
0, 0
1, 0
0, 0
0, 0
0, 0
0, 0
1, 0
0, 1
0, 0
1, 0
0, 0
0, 0
0, 0
0, 0
0, 0
0, 0
0, 0
0, 1
0, 0
0, 0
0, 0
0, 0
0, 0
0, 0
0, 0
0, 0
0, 0
0, 1
0, 0
0, 0
0, 0
0, 0
0, 0
0, 0
0, 0
0, 0
0, 0
1, 0
0, 0
0, 0
0, 0
0, 0
1, 1
0, 0
0, 0
0, 1
0, 0
0, 0
0, 0
0, 0
0, 0
0, 0
2, 0
1, 0
0, 0
1, 0
0, 0
0, 0
0, 0
0, 0
0, 0
0, 1
0, 0
0, 0
1, 0
0, 0
0, 0
0, 0
0, 0
0, 0
0, 0
0, 0
0, 0
1, 0
0, 0
0, 0
0, 0
0, 0
0, 0
0, 0
0, 0
0, 0
0, 0
0, 0
0, 0
0, 0
0, 0
0, 0
0, 0
0, 0
0, 0
0, 0
0, 0
0, 0
0, 0
1, 1
1, 0
0, 0
0, 0
0, 0
0, 0
0, 0
0, 0
0, 0
0, 0
0, 0
0, 0
0, 0
0, 0
0, 0
0, 0
0, 0
0, 0
0, 0
0, 0
0, 0
0, 0
0, 0
0, 0
0, 0
0, 0
0, 0
0, 0
0, 0
0, 0
0, 0
0, 0
0, 0
0, 0
0, 0
0, 0
0, 0
0, 0
0, 0
0, 0
0, 0
1, 0
0, 0
0, 0
1, 0
0, 0
0, 0
0, 0
0, 0
0, 0
0, 0
0, 0
0, 0
0, 0
0, 0
0, 0
0, 0
0, 0
0, 0
0, 0
0, 0
0, 0
0, 0
0, 0
0, 0
0, 0
1, 0
0, 0
0, 0
0, 0
0, 0
0, 0
0, 0
0, 0
0, 0
0, 0
0, 0
0, 0
0, 0
0, 0
0, 0
0, 0
0, 0
0, 0
0, 0
0, 0
0, 0
0, 0
1, 0
0, 0
0, 0
0, 0
0, 0
0, 0
0, 0
1, 0
0, 0
0, 0
0, 0
0, 0
0, 0
0, 0
0, 0
0, 0
0, 0
0, 0
0, 0
0, 0
0, 0
0, 0
0, 0
0, 0
0, 0
0, 0
0, 0
0, 0
0, 0
0, 0
0, 0
0, 0
0, 0
0, 0
0, 0
0, 0
0, 0
0, 0
0, 0
0, 0
0, 0
0, 0
0, 1
0, 0
0, 0
0, 0
0, 0
0, 0
0, 0
0, 0
0, 0
0, 0
0, 0
0, 0
0, 0
0, 0
0, 0
0, 0
0, 0
1, 0
0, 0
0, 0
0, 0
0, 0
0, 0
0, 0
0, 0
0, 0
0, 0
0, 0
0, 0
0, 0
0, 0
0, 0
0, 0
0, 0
0, 0
0, 0
0, 0
0, 0
0, 0
0, 0
0, 0
0, 0
0, 0
0, 0
0, 0
0, 0
0, 0
0, 0
0, 0
0, 0
0, 0
0, 0
0, 0
0, 0
0, 0
0, 0
0, 0
0, 0
0, 0
0, 0
0, 0
0, 0
0, 0
0, 0
0, 0
0, 0
0, 0
0, 0
0, 0
0, 0
0, 0
0, 0
0, 0
0, 0
0, 0
0, 0
0, 0
0, 0
0, 0
0, 0
0, 0
0, 0
0, 0
0, 0
0, 0
0, 0
0, 0
0, 0
0, 0
0, 0
0, 0
0, 0
0, 0
0, 0
0, 0
0, 0
0, 0
0, 0
0, 0
0, 0
0, 0
0, 0
0, 0
0, 0
0, 0
0, 0
0, 0
0, 0
0, 0
0, 0
0, 0
0, 0
0, 0
0, 0
0, 0
0, 0
0, 0
0, 0
0, 0
0, 0
0, 0
0, 0
0, 0
0, 0
0, 0
0, 0
0, 0
0, 0
0, 0
0, 0
0, 0
0, 0
0, 0
0, 0
0, 0
0, 0
0, 0
0, 0
0, 0
0, 0
0, 0
0, 0
0, 0
0, 0
0, 0
0, 0
0, 0
0, 0
0, 0
0, 0
0, 0
0, 0
0, 0
0, 0
0, 0
0, 0
0, 0
0, 0
0, 0
0, 0
0, 0
0, 0
0, 0
0, 0
0, 0
0, 0
0, 0
0, 0
0, 0
0, 0
0, 0
0, 0
0, 0
0, 0
0, 0
0, 0
0, 0
0, 0
0, 0
0, 0
0, 0
0, 0
0, 0
0, 0
0, 0
0, 0
0, 0
0, 0
0, 0
0, 0
0, 0
0, 0
0, 0
0, 0
0, 0
0, 0
0, 0
0, 0
0, 0
0, 0
0, 0
0, 0
0, 0
0, 0
0, 0
0, 0
0, 0
0, 0
0, 0
0, 0
0, 0
0, 0
0, 0
0, 0
0, 0
0, 0
0, 0
0, 0
0, 0
0, 0
0, 0
0, 0
0, 0
0, 0
0, 0
0, 0
0, 0
0, 0
0, 0
0, 0
0, 0
0, 0
0, 0
0, 0
0, 0
0, 0
0, 0
0, 0
0, 0
0, 0
0, 0
0, 0
0, 0
0, 0
0, 0
0, 0
0, 0
0, 0
0, 0
0, 0
0, 0
0, 0
0, 0
0, 0
0, 0
0, 0
0, 0
0, 0
0, 0
0, 0
0, 0
0, 0
0, 0
0, 0
0, 0
0, 0
0, 0
0, 0
0, 0
0, 0
0, 0
0, 0
0, 0
0, 0
0, 0
0, 0
0, 0
0, 0
0, 0
0, 0
0, 0
0, 0
0, 0
0, 0
0, 0
0, 0
0, 0
0, 0
0, 0
0, 0
0, 0
0, 0
0, 0
0, 0
0, 0
0, 0
0, 0
0, 0
0, 0
0, 0
0, 0
0, 0
0, 0
0, 0
0, 0
0, 0
0, 0
0, 0
0, 0
0, 0
0, 0
0, 0
0, 0
0, 0
0, 0
0, 0
0, 0
0, 0
0, 0
0, 0
0, 0
0, 0
0, 0
0, 0
0, 0
0, 0
#ENDOFDATA     end of spectrum data