File: host_upload/12-01-2023/Dourbes (shot-by-shot)/upload_4/ps__0257_0689790785_000rfs_shot_3305.msa
#FORMAT      : EMSA/MAS spectral data file
#VERSION     : TC202v2.0 PIXL
#TITLE       : N/A
#DATE        :       Date in the format DD-MMM-YYYY, for example 07-JUL-2010
#TIME        :             The time of day at which the spectrum was recorded, in 24-hour format
#OWNER       : PIXL Flight Model       (PIXL will use this to indicate which instrument took the data.)
#NPOINTS     : 4096     Number of data points in the spectrum (This can be zero for configuration only files)
#NCOLUMNS    : 2     Number of data columns in the spectrum (This can be zero for configuration only files)
#XUNITS      : eV
#YUNITS      : COUNTS
#DATATYPE    : YY
#XPERCHAN    : 7.862, 7.881   eV per channel (separate by commas if more than one detector)
#OFFSET      : 18.5, -22.4         eV of first channel  (separate by commas if more than one detector
#SIGNALTYPE  : XRF
#YP_TEMP     : 3.069
#LIVETIME    : 9.00039, 9.03134   seconds (separate by commas if more than one detector)
#REALTIME    : 10, 10.0   seconds (separate by commas if more than one detector)
#SPECTRUM    : start of spectrum data
0, 0
0, 0
0, 0
0, 0
0, 0
0, 0
0, 0
0, 0
0, 0
0, 0
0, 0
0, 0
0, 0
0, 0
0, 0
0, 0
0, 0
0, 0
0, 0
0, 0
0, 0
0, 0
0, 0
0, 0
0, 0
0, 0
0, 0
0, 0
0, 0
0, 0
0, 0
1, 0
0, 0
0, 0
0, 1
2, 0
2, 0
3, 1
1, 0
2, 0
5, 0
0, 1
4, 1
3, 0
0, 3
4, 3
2, 3
5, 5
2, 4
7, 2
8, 4
19, 17
35, 22
60, 24
42, 37
63, 34
36, 23
18, 18
18, 13
13, 8
7, 9
11, 8
26, 21
35, 27
45, 26
29, 18
14, 16
18, 19
23, 9
32, 31
98, 91
207, 150
363, 288
539, 446
662, 536
640, 523
570, 453
397, 295
262, 202
133, 97
59, 45
31, 33
20, 11
10, 7
7, 3
2, 4
3, 6
5, 7
7, 3
5, 3
4, 2
1, 2
3, 3
1, 2
3, 1
1, 4
6, 4
9, 10
9, 8
6, 5
9, 3
10, 6
3, 6
5, 3
6, 2
5, 8
8, 5
18, 7
24, 24
50, 28
57, 67
82, 75
93, 69
93, 90
80, 76
78, 66
65, 74
60, 49
58, 46
38, 30
30, 30
41, 55
26, 40
32, 23
14, 24
22, 18
21, 17
16, 12
9, 9
12, 12
7, 8
11, 10
5, 6
4, 0
2, 3
6, 6
11, 10
11, 11
9, 18
14, 19
25, 16
25, 17
22, 23
20, 25
14, 15
12, 10
7, 10
10, 6
2, 11
3, 8
7, 5
9, 8
14, 13
16, 13
20, 16
35, 32
48, 49
44, 41
50, 35
30, 24
29, 25
15, 13
12, 8
9, 4
4, 4
5, 5
6, 4
9, 6
8, 9
11, 13
9, 5
11, 8
11, 11
10, 7
13, 10
6, 5
9, 6
5, 4
7, 1
6, 6
9, 6
9, 8
5, 4
9, 3
10, 7
11, 9
9, 10
16, 11
9, 25
15, 24
14, 22
18, 35
18, 28
25, 27
27, 30
19, 21
21, 32
22, 18
22, 13
21, 18
21, 19
14, 13
2, 9
15, 10
10, 7
9, 5
10, 6
9, 8
6, 10
4, 9
4, 6
11, 6
9, 5
11, 9
4, 6
8, 9
4, 15
11, 10
10, 8
7, 7
9, 9
1, 10
11, 12
5, 8
17, 9
11, 11
18, 5
21, 11
27, 17
27, 14
17, 11
16, 12
20, 14
19, 12
10, 18
13, 17
13, 15
10, 22
7, 38
10, 31
8, 34
10, 45
12, 33
7, 42
18, 32
34, 40
35, 43
48, 54
70, 52
85, 87
107, 79
111, 89
96, 64
74, 60
65, 47
50, 42
36, 28
18, 18
19, 18
24, 28
23, 19
39, 36
51, 52
95, 96
175, 169
327, 373
636, 634
1147, 1124
1749, 1764
2499, 2468
3196, 2910
3718, 3422
3843, 3325
3641, 3003
3181, 2471
2509, 1756
1744, 1236
1078, 689
662, 387
360, 178
134, 97
71, 33
44, 25
29, 19
27, 21
18, 18
20, 18
16, 20
16, 19
25, 25
23, 29
32, 34
70, 62
104, 86
142, 137
230, 217
312, 304
413, 385
481, 512
560, 507
537, 503
521, 456
430, 364
365, 263
258, 159
157, 103
97, 58
49, 22
24, 28
21, 11
9, 6
5, 5
4, 8
12, 9
10, 10
8, 5
9, 9
11, 7
14, 9
12, 4
11, 5
6, 9
8, 7
10, 3
11, 7
8, 7
10, 4
4, 4
6, 9
5, 6
4, 10
8, 13
5, 6
6, 8
4, 9
9, 7
5, 0
3, 7
4, 6
5, 6
12, 7
8, 2
2, 4
8, 3
4, 4
6, 2
10, 10
8, 8
6, 1
5, 6
4, 9
2, 5
10, 5
4, 2
3, 4
3, 1
5, 2
3, 2
6, 4
3, 7
2, 5
5, 5
5, 4
3, 4
8, 1
2, 5
5, 4
3, 7
2, 4
6, 1
4, 9
4, 3
8, 8
8, 2
2, 3
3, 4
5, 3
2, 4
2, 5
2, 5
3, 6
6, 9
7, 4
3, 5
2, 5
1, 11
4, 4
0, 10
2, 7
3, 1
4, 4
1, 6
5, 3
5, 2
3, 1
3, 7
4, 3
5, 5
8, 5
8, 3
5, 5
0, 8
3, 7
2, 7
3, 3
4, 4
3, 5
7, 3
9, 3
7, 2
3, 2
13, 1
2, 0
7, 4
9, 2
7, 3
5, 3
7, 1
5, 0
1, 2
2, 1
3, 4
2, 1
3, 5
6, 3
5, 0
3, 3
4, 3
2, 3
3, 4
4, 5
2, 4
2, 4
1, 4
4, 1
3, 4
0, 1
4, 0
3, 2
0, 4
1, 2
4, 0
2, 3
2, 2
3, 0
6, 1
5, 3
1, 3
3, 5
3, 5
3, 0
1, 2
6, 3
3, 5
1, 3
0, 4
8, 3
3, 2
2, 3
3, 0
2, 2
4, 5
6, 3
2, 4
6, 1
7, 4
3, 4
3, 1
5, 0
2, 1
2, 2
2, 3
4, 1
4, 3
4, 2
2, 0
2, 0
0, 2
2, 0
4, 2
3, 2
0, 3
3, 2
1, 4
3, 3
3, 3
2, 1
0, 3
1, 5
2, 2
3, 2
2, 1
3, 2
1, 4
5, 2
1, 2
0, 4
2, 1
0, 0
1, 2
0, 0
1, 2
2, 0
1, 0
0, 3
2, 0
2, 2
6, 1
1, 3
2, 0
1, 2
2, 3
3, 1
0, 4
2, 1
0, 0
2, 1
3, 3
2, 1
3, 1
2, 4
3, 4
3, 2
3, 2
5, 4
2, 4
1, 2
1, 1
1, 2
1, 1
3, 0
2, 0
2, 2
5, 3
2, 3
5, 5
2, 3
3, 4
4, 4
7, 5
7, 6
5, 7
3, 1
2, 5
10, 2
8, 6
8, 4
3, 3
0, 2
4, 0
4, 1
3, 0
1, 1
2, 1
3, 1
3, 1
1, 2
1, 1
1, 2
0, 0
2, 2
0, 1
1, 1
2, 3
1, 3
3, 2
3, 2
3, 1
4, 3
6, 3
1, 5
3, 1
0, 3
2, 2
4, 0
3, 1
1, 0
0, 1
2, 1
3, 0
0, 1
0, 3
1, 0
1, 0
1, 0
1, 0
2, 1
1, 3
1, 5
1, 1
1, 2
2, 1
0, 0
0, 1
0, 1
1, 0
0, 1
3, 0
0, 0
0, 1
1, 0
0, 1
3, 1
1, 2
0, 2
2, 0
2, 2
0, 0
0, 2
0, 3
1, 1
2, 2
1, 0
0, 0
0, 0
1, 0
0, 0
1, 1
1, 1
0, 1
1, 0
0, 0
1, 0
0, 0
1, 1
0, 0
1, 1
1, 0
0, 0
1, 0
3, 0
3, 0
2, 0
0, 0
1, 1
0, 0
0, 0
1, 0
0, 1
0, 2
0, 0
2, 1
0, 0
0, 0
0, 0
0, 1
0, 1
0, 1
0, 1
1, 0
0, 0
0, 0
0, 0
0, 0
0, 0
1, 0
0, 2
0, 2
0, 0
0, 0
0, 1
1, 2
1, 0
2, 1
0, 0
1, 0
0, 0
0, 1
0, 0
0, 0
1, 0
0, 1
1, 0
0, 1
1, 1
0, 0
2, 1
0, 0
0, 0
0, 0
0, 0
0, 0
0, 0
0, 0
1, 1
0, 0
0, 0
0, 0
0, 0
0, 1
0, 0
1, 0
0, 0
0, 0
0, 1
0, 0
1, 1
1, 1
0, 0
0, 1
1, 0
0, 0
0, 0
0, 1
0, 1
0, 0
1, 0
1, 0
1, 2
0, 0
2, 0
1, 0
0, 2
1, 0
0, 0
0, 0
1, 0
0, 0
0, 1
0, 2
0, 0
0, 2
0, 0
0, 0
0, 0
0, 0
1, 2
0, 1
0, 0
0, 0
0, 1
1, 0
0, 1
0, 0
0, 0
1, 0
0, 1
0, 0
0, 0
0, 1
1, 0
2, 0
0, 0
1, 0
0, 0
1, 1
2, 0
0, 0
0, 0
0, 0
0, 0
0, 0
0, 0
0, 0
1, 1
0, 1
1, 1
1, 1
0, 0
1, 0
0, 0
0, 0
0, 0
0, 0
0, 0
0, 1
0, 1
0, 1
0, 0
0, 1
0, 0
0, 0
1, 0
0, 0
0, 0
0, 0
0, 0
0, 0
0, 0
0, 0
0, 1
0, 0
0, 0
0, 0
0, 0
0, 0
2, 0
0, 1
1, 0
1, 1
0, 0
1, 0
0, 0
0, 0
0, 0
0, 0
0, 1
0, 0
0, 0
1, 0
0, 0
0, 0
1, 0
2, 1
0, 0
0, 0
0, 0
0, 0
0, 0
0, 0
0, 0
0, 1
0, 0
0, 2
0, 0
0, 0
0, 0
0, 0
1, 0
0, 0
1, 1
0, 0
0, 0
0, 0
0, 1
0, 0
0, 0
0, 0
1, 0
0, 0
0, 0
0, 0
0, 0
0, 0
0, 0
0, 0
0, 0
0, 0
0, 0
0, 0
0, 0
0, 0
0, 0
0, 1
1, 0
0, 0
0, 1
1, 0
0, 0
0, 0
1, 0
0, 1
0, 3
1, 0
0, 0
0, 0
0, 0
0, 1
1, 0
0, 0
0, 0
0, 0
0, 0
0, 0
0, 0
0, 0
0, 0
0, 0
0, 0
0, 0
0, 0
0, 0
0, 0
0, 1
0, 0
1, 1
0, 0
0, 2
0, 0
0, 0
0, 1
0, 0
1, 0
0, 0
0, 0
0, 0
0, 0
0, 0
0, 0
0, 0
0, 0
0, 0
0, 0
0, 1
0, 0
0, 0
0, 0
0, 0
0, 0
0, 0
0, 0
0, 0
0, 0
0, 1
0, 1
0, 0
0, 0
0, 0
0, 0
0, 0
0, 0
0, 0
0, 0
0, 0
0, 0
1, 0
0, 0
0, 0
0, 0
0, 0
0, 0
0, 0
0, 0
0, 0
0, 0
0, 0
0, 0
0, 0
0, 0
0, 0
0, 0
0, 0
0, 0
0, 0
0, 0
0, 0
0, 0
0, 0
0, 0
0, 0
0, 0
0, 0
0, 0
0, 0
0, 0
0, 0
0, 0
0, 0
0, 0
0, 0
0, 0
0, 0
0, 0
0, 0
0, 1
0, 0
0, 0
0, 0
0, 0
0, 0
0, 0
0, 0
0, 0
0, 0
0, 0
0, 0
0, 0
0, 0
0, 0
0, 0
0, 0
0, 0
0, 0
0, 0
0, 0
0, 0
0, 0
0, 0
0, 0
0, 0
0, 0
0, 0
0, 0
1, 0
0, 0
0, 0
0, 0
0, 0
0, 0
0, 0
0, 0
0, 0
0, 0
0, 0
0, 0
0, 0
0, 0
0, 0
0, 0
0, 0
0, 0
0, 0
0, 0
0, 0
0, 0
0, 0
0, 0
0, 0
0, 0
0, 0
0, 0
0, 0
0, 0
0, 0
0, 0
0, 0
0, 0
0, 0
0, 0
0, 0
0, 0
0, 0
0, 0
0, 0
0, 0
0, 0
0, 0
0, 0
0, 0
0, 0
0, 0
0, 0
0, 0
0, 0
0, 0
0, 0
0, 0
0, 0
0, 0
0, 0
0, 0
0, 0
0, 0
0, 0
0, 0
0, 0
0, 0
0, 0
0, 0
0, 0
0, 0
0, 0
0, 0
0, 0
0, 0
0, 0
0, 0
0, 0
0, 0
0, 0
0, 0
0, 0
0, 0
0, 0
0, 0
0, 0
0, 0
0, 0
0, 0
0, 0
0, 0
0, 0
0, 0
0, 0
0, 0
0, 0
0, 0
0, 0
0, 0
0, 0
0, 0
0, 0
0, 0
0, 0
0, 0
0, 0
0, 0
0, 0
0, 0
0, 0
0, 0
0, 0
0, 0
0, 0
0, 0
0, 0
0, 0
0, 0
0, 0
0, 0
0, 0
0, 0
0, 0
0, 0
0, 0
0, 0
0, 0
0, 0
0, 0
0, 0
0, 0
0, 0
0, 0
0, 0
0, 0
0, 0
0, 0
0, 0
0, 0
0, 0
0, 0
0, 0
0, 0
0, 0
0, 0
0, 0
0, 0
0, 0
0, 0
0, 0
0, 0
0, 0
0, 0
0, 0
0, 0
0, 0
0, 0
0, 0
0, 0
0, 0
0, 0
0, 0
0, 0
0, 0
0, 0
0, 0
0, 0
0, 0
0, 0
0, 0
0, 0
0, 0
0, 0
0, 0
0, 0
0, 0
0, 0
0, 0
0, 0
0, 0
0, 0
0, 0
0, 0
0, 0
0, 0
1, 0
0, 0
0, 0
0, 0
0, 0
0, 0
0, 0
0, 0
0, 0
0, 0
0, 0
0, 0
0, 0
0, 0
0, 0
0, 0
0, 0
0, 0
0, 0
0, 0
0, 0
0, 0
0, 0
0, 0
0, 0
0, 0
0, 0
0, 0
0, 0
0, 0
0, 0
0, 0
0, 0
0, 0
0, 0
0, 0
0, 0
0, 0
0, 0
0, 0
0, 0
0, 0
0, 0
0, 0
0, 0
0, 0
0, 0
0, 0
0, 0
0, 0
0, 0
0, 0
0, 0
0, 0
0, 0
0, 0
0, 0
0, 0
0, 0
0, 0
0, 0
0, 0
0, 0
0, 0
0, 0
0, 0
0, 0
0, 0
0, 0
0, 0
0, 0
0, 0
0, 0
0, 0
0, 0
0, 0
0, 0
0, 0
0, 0
0, 0
0, 0
0, 0
0, 0
0, 0
0, 0
0, 0
0, 0
0, 0
0, 0
0, 0
0, 0
0, 0
0, 0
0, 0
0, 0
0, 0
0, 0
0, 0
0, 0
0, 0
0, 0
0, 0
0, 0
0, 0
0, 0
0, 0
0, 0
0, 0
0, 0
0, 0
0, 0
0, 0
0, 0
0, 0
0, 0
0, 0
0, 0
0, 0
0, 0
0, 0
0, 0
0, 0
0, 0
0, 0
0, 0
0, 0
0, 0
0, 0
0, 0
0, 0
0, 0
0, 0
0, 0
0, 0
0, 0
0, 0
0, 0
0, 0
0, 0
0, 0
0, 0
0, 0
0, 0
0, 0
0, 0
0, 0
0, 0
0, 0
0, 0
0, 0
0, 0
0, 0
0, 0
0, 0
0, 0
0, 0
0, 0
0, 0
0, 0
0, 0
0, 0
0, 0
0, 0
0, 0
0, 0
0, 0
0, 0
0, 0
0, 0
0, 0
0, 0
0, 0
0, 0
0, 0
0, 0
0, 0
0, 0
0, 0
0, 0
0, 0
0, 0
0, 0
0, 0
0, 0
0, 0
0, 0
0, 0
0, 0
0, 0
0, 0
0, 0
0, 0
0, 0
0, 0
0, 0
0, 0
0, 0
0, 0
0, 0
0, 0
0, 0
#ENDOFDATA     end of spectrum data