File: host_upload/12-01-2023/Dourbes (shot-by-shot)/upload_4/ps__0257_0689790785_000rfs_shot_3050.msa
#FORMAT      : EMSA/MAS spectral data file
#VERSION     : TC202v2.0 PIXL
#TITLE       : N/A
#DATE        :       Date in the format DD-MMM-YYYY, for example 07-JUL-2010
#TIME        :             The time of day at which the spectrum was recorded, in 24-hour format
#OWNER       : PIXL Flight Model       (PIXL will use this to indicate which instrument took the data.)
#NPOINTS     : 4096     Number of data points in the spectrum (This can be zero for configuration only files)
#NCOLUMNS    : 2     Number of data columns in the spectrum (This can be zero for configuration only files)
#XUNITS      : eV
#YUNITS      : COUNTS
#DATATYPE    : YY
#XPERCHAN    : 7.862, 7.881   eV per channel (separate by commas if more than one detector)
#OFFSET      : 18.5, -22.4         eV of first channel  (separate by commas if more than one detector
#SIGNALTYPE  : XRF
#YP_TEMP     : 2.877
#LIVETIME    : 8.9301, 8.98782   seconds (separate by commas if more than one detector)
#REALTIME    : 10, 10.0   seconds (separate by commas if more than one detector)
#SPECTRUM    : start of spectrum data
0, 0
0, 0
0, 0
0, 0
0, 0
0, 0
0, 0
0, 0
0, 0
0, 0
0, 0
0, 0
0, 0
0, 0
0, 0
0, 0
0, 0
0, 0
0, 0
0, 0
0, 0
0, 0
0, 0
0, 0
0, 0
0, 0
0, 0
0, 0
0, 0
0, 0
1, 0
0, 0
0, 0
1, 0
1, 2
1, 0
1, 0
9, 1
13, 2
19, 3
30, 1
32, 3
28, 4
30, 2
13, 1
15, 2
13, 2
3, 4
5, 3
5, 9
22, 13
28, 19
33, 30
47, 39
42, 36
37, 37
40, 29
28, 14
8, 8
7, 8
3, 5
4, 2
8, 2
5, 3
6, 2
5, 7
10, 4
11, 9
22, 17
45, 32
87, 77
178, 158
276, 316
368, 408
513, 452
509, 486
426, 393
327, 295
213, 188
109, 105
66, 56
35, 25
19, 18
14, 7
6, 3
4, 10
7, 0
3, 4
5, 1
3, 4
2, 3
3, 4
7, 5
6, 10
15, 14
27, 32
48, 49
69, 60
72, 75
81, 78
87, 66
56, 47
41, 33
19, 26
12, 13
17, 10
25, 13
36, 17
84, 30
186, 45
341, 72
641, 108
1177, 125
1544, 167
2021, 161
2199, 158
2102, 126
1707, 132
1144, 99
700, 65
374, 57
214, 34
89, 41
50, 35
34, 26
32, 29
22, 15
22, 23
16, 13
16, 13
11, 12
11, 5
4, 11
1, 4
5, 7
6, 7
4, 3
7, 5
2, 2
6, 4
4, 11
6, 10
3, 3
6, 2
2, 6
5, 1
3, 2
4, 3
5, 4
11, 8
16, 9
8, 8
25, 20
24, 31
55, 41
78, 82
85, 90
91, 84
73, 90
68, 76
54, 42
35, 24
15, 21
14, 18
9, 8
4, 7
11, 8
18, 10
7, 12
18, 8
22, 13
25, 17
28, 14
18, 13
9, 13
17, 9
14, 9
10, 7
9, 13
8, 6
4, 11
4, 9
4, 4
10, 9
9, 4
5, 21
8, 4
12, 11
11, 17
19, 19
9, 14
19, 22
30, 25
5, 44
21, 53
17, 72
22, 71
27, 93
28, 92
26, 68
20, 60
11, 41
16, 20
8, 13
9, 11
12, 8
6, 5
5, 9
12, 11
12, 9
5, 12
6, 14
13, 11
16, 9
17, 10
17, 8
9, 7
15, 10
9, 13
13, 7
6, 6
11, 8
13, 18
10, 11
16, 17
19, 10
20, 14
22, 16
23, 14
14, 17
21, 15
14, 11
14, 18
18, 6
19, 4
16, 12
9, 14
7, 9
12, 8
10, 9
7, 8
10, 9
10, 19
15, 21
27, 16
19, 28
44, 49
44, 71
65, 88
79, 110
94, 108
89, 91
102, 101
95, 77
57, 69
48, 48
36, 37
37, 31
25, 26
29, 34
22, 35
26, 35
34, 68
69, 119
182, 228
349, 410
578, 726
1035, 1265
1631, 1844
2195, 2614
2900, 3208
3353, 3623
3471, 3844
3471, 3225
2994, 2684
2328, 2066
1663, 1457
1087, 856
669, 487
383, 249
180, 122
102, 60
76, 30
49, 27
60, 16
55, 19
56, 21
68, 5
59, 31
65, 30
62, 30
76, 40
96, 68
97, 116
150, 163
191, 244
300, 326
355, 432
396, 470
521, 518
555, 528
472, 514
398, 373
299, 283
223, 197
131, 124
104, 70
50, 33
29, 16
10, 8
8, 4
9, 4
4, 4
4, 11
4, 7
6, 5
5, 10
7, 12
8, 7
10, 9
8, 6
2, 6
2, 5
4, 4
2, 3
10, 5
7, 5
3, 6
1, 12
3, 6
3, 7
5, 7
2, 10
2, 3
6, 16
1, 7
3, 7
2, 7
4, 10
4, 4
6, 10
9, 6
11, 5
7, 3
10, 4
10, 2
10, 3
7, 8
4, 4
8, 2
4, 6
9, 5
2, 3
1, 2
3, 3
5, 5
3, 8
3, 3
2, 10
6, 3
2, 2
4, 3
5, 6
5, 2
4, 4
3, 6
0, 7
5, 4
8, 6
4, 6
4, 3
4, 7
5, 5
4, 3
5, 3
3, 1
5, 5
3, 4
5, 4
4, 3
2, 5
7, 7
6, 1
8, 4
6, 6
10, 5
10, 6
11, 3
8, 3
8, 7
5, 6
6, 10
6, 4
8, 13
6, 14
1, 13
6, 9
7, 8
4, 8
7, 12
7, 7
5, 11
4, 3
4, 6
3, 5
11, 3
1, 3
4, 1
4, 2
2, 1
1, 9
3, 4
2, 2
3, 2
4, 2
4, 2
6, 4
0, 1
4, 3
6, 4
3, 2
4, 4
1, 1
0, 0
3, 2
3, 3
2, 3
2, 2
4, 4
4, 4
4, 2
4, 3
2, 1
1, 2
3, 3
4, 1
0, 1
4, 1
2, 0
2, 0
1, 0
0, 1
1, 4
1, 4
1, 2
1, 3
2, 3
2, 2
0, 3
2, 1
3, 1
9, 3
6, 3
4, 6
7, 0
17, 2
7, 1
11, 5
8, 5
12, 2
12, 1
9, 5
6, 1
3, 2
4, 2
5, 2
5, 2
4, 2
1, 1
5, 2
1, 3
2, 0
3, 1
2, 3
1, 2
4, 1
1, 1
1, 2
2, 2
1, 2
0, 2
3, 2
3, 2
1, 2
2, 1
4, 3
1, 2
0, 0
1, 0
3, 3
4, 5
4, 4
1, 1
3, 2
2, 1
1, 2
0, 0
1, 1
3, 0
6, 4
0, 2
0, 0
1, 2
3, 1
1, 1
3, 0
1, 1
1, 1
1, 2
1, 2
2, 2
2, 3
6, 3
6, 4
2, 1
2, 1
3, 3
5, 2
3, 0
5, 2
2, 2
3, 0
3, 3
0, 5
3, 1
2, 2
4, 4
1, 2
1, 2
1, 1
1, 1
0, 3
1, 2
4, 2
1, 1
3, 0
5, 4
4, 7
6, 5
6, 10
4, 10
7, 13
8, 10
7, 6
5, 3
8, 4
2, 4
11, 3
2, 0
3, 2
2, 2
0, 1
0, 1
3, 2
0, 0
0, 1
2, 2
1, 0
2, 0
2, 0
1, 0
0, 2
2, 2
1, 0
2, 1
1, 4
3, 1
2, 3
5, 2
7, 1
0, 2
4, 1
2, 1
3, 3
2, 4
1, 2
4, 3
4, 2
3, 0
0, 2
0, 0
1, 1
0, 1
0, 3
0, 0
0, 0
3, 0
1, 2
0, 1
0, 0
1, 0
0, 1
0, 1
1, 1
1, 0
0, 0
2, 1
1, 0
0, 1
0, 0
1, 1
0, 0
1, 2
0, 0
2, 1
0, 0
0, 1
0, 0
1, 1
0, 0
0, 0
2, 1
0, 0
0, 0
2, 0
0, 1
2, 2
0, 1
0, 0
2, 0
1, 0
2, 0
2, 1
0, 0
0, 0
0, 0
1, 0
1, 1
2, 0
4, 1
0, 0
1, 1
0, 2
1, 1
1, 1
1, 0
1, 2
0, 1
1, 0
0, 0
1, 0
1, 2
0, 0
2, 0
0, 0
1, 0
0, 0
0, 0
1, 2
2, 1
0, 1
2, 0
0, 0
0, 1
0, 1
1, 2
2, 0
0, 0
0, 0
0, 1
1, 0
0, 1
0, 0
0, 0
0, 1
0, 1
0, 0
0, 0
2, 0
2, 0
1, 0
0, 2
0, 1
0, 1
0, 0
0, 0
0, 1
1, 2
0, 0
0, 1
0, 0
0, 0
0, 1
0, 0
2, 0
0, 0
0, 1
1, 1
1, 1
1, 0
0, 0
1, 1
0, 0
0, 0
0, 1
2, 0
2, 0
0, 0
0, 0
1, 0
2, 0
0, 1
0, 0
0, 1
1, 1
0, 1
0, 0
0, 0
0, 0
0, 0
1, 2
0, 0
0, 0
0, 0
0, 0
0, 0
1, 0
0, 0
0, 0
0, 1
0, 1
0, 1
1, 1
0, 0
1, 0
0, 0
0, 1
1, 0
0, 0
0, 0
0, 1
1, 0
1, 2
0, 2
0, 0
0, 0
0, 0
0, 0
0, 0
0, 3
0, 0
0, 0
0, 0
0, 0
2, 0
0, 0
0, 0
0, 0
0, 1
0, 0
1, 0
0, 0
1, 0
0, 0
0, 1
1, 1
3, 0
0, 0
0, 0
0, 1
0, 0
0, 0
0, 0
0, 1
1, 0
1, 0
0, 0
0, 0
1, 0
0, 0
0, 0
0, 0
0, 1
0, 0
0, 0
0, 0
0, 0
1, 0
0, 1
0, 0
0, 0
0, 0
0, 0
0, 0
0, 0
0, 0
0, 0
0, 0
0, 0
0, 0
0, 0
0, 0
0, 0
0, 0
1, 1
1, 0
2, 0
0, 0
0, 1
0, 0
0, 1
0, 0
1, 1
1, 0
1, 0
2, 0
0, 0
0, 0
0, 1
0, 0
1, 0
0, 0
1, 1
0, 0
0, 0
0, 0
0, 0
0, 0
0, 0
0, 0
1, 0
0, 0
0, 1
0, 0
0, 0
0, 0
0, 0
0, 0
2, 0
0, 0
0, 0
0, 0
0, 0
0, 0
0, 1
0, 0
0, 0
0, 0
0, 0
0, 1
0, 0
0, 0
0, 1
1, 0
0, 0
0, 0
0, 0
0, 0
0, 0
0, 0
1, 0
0, 0
0, 0
0, 0
0, 0
0, 0
1, 0
0, 0
1, 0
0, 0
0, 0
1, 0
0, 1
0, 0
0, 0
0, 0
0, 0
0, 0
0, 0
0, 0
0, 0
0, 0
0, 0
0, 0
0, 0
0, 0
0, 0
0, 0
0, 0
0, 0
0, 0
0, 0
0, 0
0, 0
0, 0
0, 0
0, 0
0, 0
0, 0
0, 0
0, 0
0, 0
0, 0
0, 0
0, 0
0, 0
0, 0
1, 0
0, 0
0, 0
0, 0
0, 0
0, 0
0, 0
0, 0
0, 0
0, 0
0, 0
0, 0
1, 0
0, 0
0, 0
0, 0
0, 0
0, 0
0, 0
0, 0
0, 0
0, 0
0, 0
0, 0
0, 0
0, 0
0, 1
0, 0
0, 0
0, 0
0, 0
0, 0
0, 0
0, 0
0, 0
0, 0
0, 0
0, 0
0, 0
0, 0
0, 0
0, 0
0, 0
0, 0
0, 0
0, 0
0, 0
1, 0
1, 0
0, 0
0, 0
0, 0
0, 0
0, 0
0, 0
0, 0
0, 0
0, 0
0, 0
0, 0
0, 0
0, 0
0, 0
0, 0
0, 0
0, 0
0, 0
0, 0
0, 0
0, 0
0, 0
0, 0
0, 0
0, 0
0, 1
0, 0
0, 0
0, 0
0, 0
0, 0
0, 0
0, 0
0, 0
0, 0
0, 0
0, 0
0, 0
0, 0
0, 0
0, 0
0, 0
0, 0
0, 0
0, 0
0, 0
0, 0
0, 0
0, 0
0, 0
0, 0
0, 0
0, 0
0, 0
0, 0
0, 0
0, 0
0, 0
0, 0
0, 0
0, 0
0, 0
0, 0
0, 0
0, 0
0, 0
0, 0
0, 0
0, 0
0, 0
0, 0
0, 0
0, 0
0, 0
0, 0
0, 0
0, 0
0, 0
0, 0
0, 0
0, 0
0, 0
0, 0
0, 0
0, 0
0, 0
0, 0
0, 0
0, 0
0, 0
0, 0
0, 0
0, 0
0, 0
0, 0
0, 0
0, 0
0, 0
0, 0
0, 0
0, 0
0, 0
0, 0
0, 0
0, 0
0, 0
0, 0
0, 0
0, 0
0, 0
0, 0
0, 0
0, 0
0, 0
0, 0
0, 0
0, 0
0, 0
0, 0
0, 0
0, 0
0, 0
0, 0
0, 0
0, 0
0, 0
0, 0
0, 0
0, 0
0, 0
0, 0
0, 0
0, 0
0, 0
0, 0
0, 0
0, 0
0, 0
0, 0
0, 0
0, 0
0, 0
0, 0
0, 0
0, 0
0, 0
0, 0
0, 0
0, 0
0, 0
0, 0
0, 0
0, 0
0, 0
0, 0
0, 0
0, 0
0, 0
0, 0
0, 0
0, 0
0, 0
0, 0
0, 0
0, 0
0, 0
0, 0
0, 0
0, 0
0, 0
0, 0
0, 0
0, 0
0, 0
0, 0
0, 0
0, 0
0, 0
0, 0
0, 0
0, 0
0, 0
0, 0
0, 0
0, 0
0, 0
0, 0
0, 0
0, 0
0, 0
0, 0
0, 0
0, 0
0, 0
0, 0
0, 0
0, 0
0, 0
0, 0
0, 0
0, 0
0, 0
0, 0
0, 0
0, 0
0, 0
0, 0
0, 0
0, 0
0, 0
0, 0
0, 0
0, 0
0, 0
0, 0
0, 0
0, 0
0, 0
0, 0
0, 0
0, 0
0, 0
0, 0
0, 0
0, 0
0, 0
0, 0
0, 0
0, 0
0, 0
1, 0
0, 0
0, 0
0, 0
0, 0
0, 0
0, 0
0, 0
0, 0
0, 0
0, 0
0, 0
0, 0
0, 0
0, 0
0, 0
0, 0
0, 0
0, 0
0, 0
0, 0
0, 0
0, 0
0, 0
0, 0
0, 0
0, 0
0, 0
0, 0
0, 0
0, 0
0, 0
0, 0
0, 0
0, 0
0, 0
0, 0
0, 0
0, 0
0, 0
0, 0
0, 0
0, 0
0, 0
0, 0
0, 0
0, 0
0, 0
0, 0
0, 0
0, 0
0, 0
0, 0
0, 0
0, 0
0, 0
0, 0
0, 0
0, 0
0, 0
0, 0
0, 0
0, 0
0, 0
0, 0
0, 0
0, 0
0, 0
0, 0
0, 0
0, 0
0, 0
0, 0
0, 0
0, 0
0, 0
0, 0
0, 0
0, 0
0, 0
0, 0
0, 0
0, 0
0, 0
0, 0
0, 0
0, 0
0, 0
0, 0
0, 0
0, 0
0, 0
0, 0
0, 0
0, 0
0, 0
0, 0
0, 0
0, 0
0, 0
0, 0
0, 0
0, 0
0, 0
0, 0
0, 0
0, 0
0, 0
0, 0
0, 0
0, 0
0, 0
0, 0
0, 0
0, 0
0, 0
0, 0
0, 0
0, 0
0, 0
0, 0
0, 0
0, 0
0, 0
0, 0
0, 0
0, 0
0, 0
0, 0
0, 0
0, 0
0, 0
0, 0
0, 0
0, 0
0, 0
0, 0
0, 0
0, 0
0, 0
0, 0
0, 0
0, 0
0, 0
0, 0
0, 0
0, 0
0, 0
0, 0
0, 0
0, 0
0, 0
0, 0
0, 0
0, 0
0, 0
0, 0
0, 0
0, 0
0, 0
0, 0
0, 0
0, 0
0, 0
0, 0
0, 0
0, 0
0, 0
0, 0
0, 0
0, 0
0, 0
0, 0
0, 0
0, 0
0, 0
0, 0
0, 0
0, 0
0, 0
0, 0
0, 0
0, 0
0, 0
0, 0
0, 0
0, 0
0, 0
0, 0
0, 0
#ENDOFDATA     end of spectrum data