File: host_upload/12-01-2023/Dourbes (shot-by-shot)/upload_4/ps__0257_0689790785_000rfs_shot_3309.msa
#FORMAT      : EMSA/MAS spectral data file
#VERSION     : TC202v2.0 PIXL
#TITLE       : N/A
#DATE        :       Date in the format DD-MMM-YYYY, for example 07-JUL-2010
#TIME        :             The time of day at which the spectrum was recorded, in 24-hour format
#OWNER       : PIXL Flight Model       (PIXL will use this to indicate which instrument took the data.)
#NPOINTS     : 4096     Number of data points in the spectrum (This can be zero for configuration only files)
#NCOLUMNS    : 2     Number of data columns in the spectrum (This can be zero for configuration only files)
#XUNITS      : eV
#YUNITS      : COUNTS
#DATATYPE    : YY
#XPERCHAN    : 7.862, 7.881   eV per channel (separate by commas if more than one detector)
#OFFSET      : 18.5, -22.4         eV of first channel  (separate by commas if more than one detector
#SIGNALTYPE  : XRF
#YP_TEMP     : 2.973
#LIVETIME    : 9.02364, 9.00723   seconds (separate by commas if more than one detector)
#REALTIME    : 10, 10.0   seconds (separate by commas if more than one detector)
#SPECTRUM    : start of spectrum data
0, 0
0, 0
0, 0
0, 0
0, 0
0, 0
0, 0
0, 0
0, 0
0, 0
0, 0
0, 0
0, 0
0, 0
0, 0
0, 0
0, 0
0, 0
0, 0
0, 0
0, 0
0, 0
0, 0
0, 0
0, 0
0, 0
0, 0
0, 0
0, 0
0, 0
0, 0
0, 0
0, 0
0, 0
0, 0
0, 1
1, 1
0, 1
1, 1
0, 2
2, 1
0, 0
0, 0
2, 1
1, 1
0, 1
1, 0
1, 0
4, 3
5, 5
11, 6
19, 19
25, 38
41, 46
51, 54
39, 49
34, 42
27, 21
12, 11
7, 9
4, 6
7, 6
8, 15
32, 18
12, 12
24, 8
5, 12
16, 7
16, 20
49, 43
81, 89
200, 183
321, 338
479, 528
606, 580
565, 569
474, 472
333, 340
222, 209
106, 119
56, 62
34, 35
20, 14
8, 8
9, 14
7, 1
5, 7
2, 3
1, 3
3, 2
3, 1
1, 6
0, 2
3, 1
2, 1
2, 7
7, 3
2, 5
2, 6
6, 9
6, 3
5, 6
5, 1
5, 2
6, 6
3, 8
3, 3
8, 10
11, 20
22, 18
23, 30
27, 42
37, 40
57, 50
44, 47
47, 47
31, 48
43, 28
31, 41
27, 27
22, 29
20, 29
20, 21
23, 19
18, 11
14, 11
12, 14
10, 11
8, 13
9, 11
7, 2
2, 3
6, 7
3, 2
5, 3
2, 7
2, 5
6, 4
10, 15
13, 16
15, 15
12, 16
11, 13
14, 12
8, 8
1, 5
1, 7
5, 7
4, 3
5, 8
10, 12
25, 20
39, 49
55, 94
102, 128
148, 182
187, 196
207, 219
196, 194
147, 147
114, 122
87, 63
43, 35
16, 23
12, 14
6, 24
11, 12
15, 16
24, 29
29, 24
28, 34
37, 29
36, 38
27, 27
18, 16
14, 12
7, 11
8, 1
3, 3
12, 4
8, 4
10, 1
9, 5
12, 8
19, 6
15, 6
13, 8
14, 8
13, 11
9, 13
11, 14
14, 26
22, 17
19, 17
18, 33
29, 30
17, 24
27, 37
15, 26
21, 30
25, 31
26, 44
22, 46
25, 43
18, 34
18, 22
21, 15
10, 17
9, 6
12, 4
9, 7
9, 4
7, 5
6, 4
9, 7
7, 6
6, 2
8, 4
4, 4
5, 11
10, 5
11, 12
12, 4
15, 8
17, 6
26, 7
21, 11
27, 17
33, 17
28, 15
12, 22
27, 18
13, 11
18, 12
10, 16
14, 14
8, 22
13, 30
11, 64
14, 42
7, 49
6, 61
22, 42
13, 40
10, 49
27, 37
36, 55
47, 60
62, 57
93, 76
83, 101
97, 80
84, 103
60, 50
51, 55
40, 31
34, 29
22, 16
14, 15
15, 15
30, 24
29, 19
36, 57
87, 112
157, 205
341, 386
611, 695
1043, 1266
1549, 1822
2227, 2531
2842, 3154
3287, 3459
3339, 3594
3258, 3177
2790, 2568
2166, 1867
1477, 1262
915, 792
596, 408
265, 199
165, 101
101, 47
37, 22
32, 15
24, 14
17, 11
21, 26
19, 15
11, 18
23, 30
31, 21
41, 48
53, 55
79, 81
140, 156
217, 239
278, 316
349, 389
452, 477
467, 510
457, 494
447, 441
361, 344
270, 256
192, 157
144, 113
83, 55
36, 35
29, 29
14, 11
15, 4
9, 4
11, 5
4, 4
5, 4
15, 2
9, 5
12, 7
15, 5
13, 10
11, 4
25, 4
9, 2
12, 6
15, 4
9, 2
14, 6
16, 1
14, 2
12, 4
6, 4
10, 3
2, 4
2, 5
3, 4
4, 3
3, 4
5, 7
2, 5
8, 6
3, 3
2, 3
5, 5
4, 3
1, 5
2, 11
4, 15
5, 9
3, 16
5, 6
2, 6
1, 4
4, 4
3, 9
4, 5
5, 2
3, 5
4, 8
3, 5
1, 4
5, 3
3, 4
4, 4
6, 1
5, 4
8, 2
9, 3
7, 2
4, 2
4, 3
11, 2
8, 5
6, 3
2, 4
5, 1
4, 4
3, 3
4, 5
3, 5
8, 7
2, 8
1, 18
3, 7
3, 14
2, 10
4, 11
2, 16
4, 26
3, 15
8, 9
5, 9
5, 7
3, 7
6, 4
5, 5
1, 2
3, 9
3, 2
6, 4
4, 3
4, 4
3, 3
2, 2
3, 3
4, 3
2, 5
6, 1
3, 2
6, 2
3, 7
4, 3
2, 1
6, 6
2, 6
0, 10
4, 6
4, 4
2, 8
7, 7
4, 7
3, 8
1, 3
3, 4
1, 4
4, 6
3, 7
2, 6
2, 7
3, 2
2, 2
2, 2
7, 6
2, 6
2, 3
2, 0
1, 4
3, 4
2, 4
1, 1
2, 3
1, 4
3, 2
4, 3
3, 2
1, 4
4, 2
1, 1
3, 1
3, 3
4, 3
1, 4
0, 2
3, 0
1, 2
6, 2
3, 1
5, 2
4, 1
4, 3
5, 1
6, 2
5, 0
4, 2
7, 4
3, 2
5, 4
7, 2
7, 5
7, 2
6, 1
5, 3
6, 5
3, 4
0, 3
1, 5
7, 2
3, 1
0, 6
1, 3
2, 1
0, 0
1, 1
5, 3
3, 2
3, 6
3, 1
4, 4
1, 0
2, 2
3, 6
1, 2
1, 5
3, 4
4, 4
4, 3
1, 5
2, 4
1, 5
3, 4
1, 0
3, 1
1, 2
3, 1
4, 2
1, 3
0, 1
3, 0
3, 2
1, 3
3, 3
1, 1
2, 3
3, 3
3, 1
1, 2
0, 3
2, 2
0, 1
1, 1
0, 0
1, 2
1, 2
3, 0
1, 2
0, 5
1, 2
1, 5
0, 0
2, 2
1, 1
0, 3
2, 1
2, 0
1, 1
5, 2
4, 2
5, 3
6, 3
2, 7
3, 2
5, 6
3, 4
4, 7
1, 8
7, 6
6, 2
7, 2
2, 3
2, 2
2, 1
4, 0
0, 0
3, 1
2, 1
1, 2
1, 1
4, 0
2, 2
1, 2
1, 0
0, 0
1, 1
1, 2
1, 1
5, 3
1, 0
3, 4
0, 1
9, 0
4, 1
5, 7
4, 1
3, 2
3, 0
1, 0
1, 1
0, 2
1, 1
3, 1
1, 2
1, 3
1, 1
0, 1
0, 2
0, 1
0, 3
1, 1
2, 1
1, 2
0, 2
0, 2
1, 0
1, 1
0, 1
0, 0
0, 0
0, 2
2, 0
2, 1
1, 0
1, 0
1, 0
1, 1
0, 0
0, 1
2, 1
1, 0
0, 0
1, 1
1, 1
0, 0
0, 0
0, 1
0, 1
0, 2
1, 0
2, 0
0, 0
1, 0
1, 1
0, 1
1, 1
0, 0
1, 1
1, 0
1, 0
0, 0
1, 0
0, 0
2, 1
1, 0
1, 0
0, 0
2, 2
2, 0
0, 0
0, 0
1, 0
1, 0
1, 0
1, 0
1, 1
0, 0
1, 0
0, 0
1, 0
1, 2
0, 1
0, 1
2, 0
1, 1
0, 0
0, 0
0, 0
0, 0
0, 0
1, 0
1, 1
1, 0
1, 1
1, 0
2, 0
0, 3
2, 0
3, 2
0, 0
3, 2
0, 0
1, 2
1, 1
0, 0
0, 0
0, 2
0, 1
0, 0
0, 1
0, 0
0, 0
1, 1
1, 0
0, 0
0, 0
0, 1
0, 0
1, 1
0, 0
1, 1
0, 0
0, 0
2, 0
0, 1
0, 0
1, 1
0, 1
1, 0
2, 0
0, 1
0, 1
0, 0
1, 0
0, 0
0, 0
0, 0
0, 0
0, 1
1, 0
0, 0
1, 0
1, 0
0, 0
0, 0
0, 0
1, 0
0, 0
0, 0
0, 0
2, 0
0, 1
0, 0
0, 0
0, 1
1, 1
0, 0
0, 0
0, 0
0, 0
0, 0
0, 0
0, 0
0, 4
0, 0
0, 1
0, 0
1, 0
0, 0
0, 2
0, 0
1, 0
0, 0
0, 0
0, 0
0, 0
1, 1
0, 0
1, 0
0, 1
0, 1
0, 0
1, 0
0, 1
0, 0
0, 1
0, 0
0, 0
0, 0
2, 1
0, 0
1, 0
0, 0
0, 0
0, 0
0, 0
0, 0
0, 0
0, 0
1, 0
1, 0
0, 1
0, 1
1, 1
0, 1
2, 0
2, 0
0, 0
0, 3
0, 0
0, 1
0, 0
1, 0
0, 0
1, 2
0, 0
0, 0
0, 0
0, 0
0, 1
0, 0
0, 0
0, 0
0, 0
0, 0
0, 0
0, 0
0, 0
1, 0
0, 0
0, 1
0, 0
1, 0
0, 0
0, 0
2, 0
0, 0
0, 1
0, 0
0, 0
1, 0
1, 0
0, 0
0, 1
0, 0
0, 1
1, 0
0, 0
0, 0
1, 0
0, 0
0, 0
0, 0
0, 0
0, 0
0, 1
0, 0
0, 0
0, 1
0, 0
0, 0
0, 0
0, 0
0, 0
0, 0
0, 0
1, 0
0, 0
1, 1
0, 0
0, 0
0, 0
0, 0
0, 0
0, 0
0, 0
0, 1
1, 0
0, 0
0, 0
0, 0
0, 0
2, 0
1, 0
0, 0
2, 0
1, 0
0, 1
1, 0
0, 0
0, 0
0, 0
1, 0
0, 0
0, 0
0, 0
0, 0
1, 0
0, 0
0, 0
0, 0
0, 0
0, 0
0, 0
0, 0
0, 0
0, 0
0, 0
0, 0
0, 0
0, 0
0, 0
1, 0
0, 0
0, 0
1, 1
0, 1
0, 0
0, 0
1, 0
0, 0
0, 0
0, 0
0, 0
0, 0
0, 0
0, 1
0, 0
0, 1
0, 0
0, 0
0, 0
0, 0
0, 0
0, 0
0, 0
0, 0
0, 0
0, 0
0, 0
0, 0
0, 0
0, 0
1, 0
0, 0
0, 0
0, 0
0, 0
0, 0
0, 0
0, 0
0, 0
0, 0
0, 0
0, 0
0, 1
0, 0
0, 0
0, 0
0, 0
0, 0
0, 0
0, 0
0, 0
0, 0
0, 0
0, 0
0, 0
0, 0
0, 0
1, 0
0, 0
0, 0
0, 0
0, 0
0, 0
0, 0
0, 0
0, 0
0, 0
0, 0
0, 0
0, 0
0, 0
0, 0
0, 0
0, 0
0, 0
0, 0
0, 0
0, 0
0, 0
0, 0
0, 0
0, 0
0, 0
0, 0
0, 0
0, 0
0, 0
0, 0
0, 0
1, 0
0, 0
0, 0
0, 0
0, 0
0, 0
0, 0
0, 0
0, 0
1, 0
0, 0
0, 0
0, 0
0, 0
0, 0
0, 0
0, 0
0, 0
0, 0
0, 0
0, 0
0, 0
0, 0
0, 0
1, 0
0, 0
0, 0
0, 0
0, 0
0, 0
0, 0
0, 1
0, 0
0, 0
0, 0
0, 0
0, 0
0, 0
0, 0
0, 0
0, 0
0, 0
0, 0
0, 0
0, 0
0, 0
0, 0
0, 0
0, 0
0, 1
0, 0
0, 0
0, 0
0, 0
0, 0
0, 0
0, 0
0, 0
0, 0
0, 0
0, 0
0, 0
0, 0
0, 0
0, 0
0, 0
0, 0
0, 0
0, 0
0, 0
0, 0
0, 0
0, 0
0, 0
0, 0
0, 0
0, 0
0, 0
0, 0
0, 0
0, 0
0, 0
0, 0
0, 0
0, 0
0, 0
0, 0
0, 0
0, 0
0, 0
0, 0
0, 0
0, 0
0, 0
0, 1
0, 0
0, 0
0, 0
0, 0
0, 0
0, 0
0, 0
0, 0
0, 0
0, 0
0, 0
0, 0
0, 0
0, 0
0, 0
0, 0
0, 0
0, 0
0, 0
0, 0
0, 0
0, 0
0, 0
0, 0
0, 0
0, 0
0, 0
0, 0
0, 0
0, 0
0, 0
0, 0
0, 0
0, 0
0, 0
0, 0
0, 0
0, 0
0, 0
0, 0
0, 0
0, 0
0, 0
0, 0
0, 0
0, 0
0, 0
0, 0
0, 0
0, 0
0, 0
0, 0
0, 0
0, 0
0, 0
0, 0
0, 0
0, 0
0, 0
0, 0
0, 0
0, 0
0, 0
0, 0
0, 0
0, 0
0, 0
0, 0
0, 0
0, 0
0, 0
0, 0
0, 0
0, 0
0, 0
0, 0
0, 0
0, 0
0, 0
0, 0
0, 0
0, 0
0, 0
0, 0
0, 0
0, 0
0, 0
0, 0
0, 0
0, 0
0, 0
0, 0
0, 0
0, 0
0, 0
0, 0
0, 0
0, 0
0, 0
0, 0
0, 0
0, 0
0, 0
0, 0
0, 0
0, 0
0, 0
0, 0
0, 0
0, 0
0, 0
0, 0
0, 0
0, 0
0, 0
0, 0
0, 0
0, 0
0, 0
0, 0
0, 0
0, 0
0, 0
0, 0
0, 0
0, 0
0, 0
0, 0
0, 0
0, 0
0, 0
0, 0
0, 0
0, 0
0, 0
0, 0
0, 0
0, 0
0, 0
0, 0
0, 0
0, 0
0, 0
0, 0
0, 0
0, 0
0, 0
0, 0
0, 0
0, 0
0, 0
0, 0
0, 0
0, 0
0, 0
0, 0
0, 0
0, 0
0, 0
0, 0
0, 0
0, 0
0, 0
0, 0
0, 0
0, 0
0, 0
0, 0
0, 0
0, 0
0, 0
0, 0
0, 0
0, 0
0, 0
0, 0
0, 0
0, 0
0, 0
0, 0
0, 0
0, 0
0, 0
0, 0
0, 0
0, 0
0, 0
0, 0
0, 0
0, 0
0, 0
0, 0
0, 0
0, 0
0, 0
0, 0
0, 0
0, 0
0, 0
0, 0
0, 0
0, 0
0, 0
0, 0
0, 0
0, 0
0, 0
0, 0
0, 0
0, 0
0, 0
0, 0
0, 0
0, 0
0, 0
0, 0
0, 0
0, 0
0, 0
0, 0
0, 0
0, 0
0, 0
0, 0
0, 0
0, 0
0, 0
0, 0
0, 0
0, 0
0, 0
0, 0
0, 0
0, 0
0, 0
0, 0
0, 0
0, 0
0, 0
0, 0
0, 0
0, 0
0, 0
0, 0
0, 0
0, 0
0, 0
0, 0
0, 0
0, 0
0, 0
0, 0
0, 0
0, 0
0, 0
0, 0
0, 0
0, 0
0, 0
0, 0
0, 0
0, 0
0, 0
0, 0
0, 0
0, 0
0, 0
0, 0
0, 0
0, 0
0, 0
0, 0
0, 0
0, 0
0, 0
0, 0
0, 0
0, 0
0, 0
0, 0
0, 0
0, 0
0, 0
0, 0
0, 0
0, 0
0, 0
0, 0
0, 0
0, 0
0, 0
0, 0
0, 0
0, 0
0, 0
0, 0
0, 0
0, 0
0, 0
0, 0
0, 0
0, 0
0, 0
#ENDOFDATA     end of spectrum data