File: host_upload/12-01-2023/Dourbes (shot-by-shot)/upload_4/ps__0257_0689790785_000rfs_shot_3080.msa
#FORMAT      : EMSA/MAS spectral data file
#VERSION     : TC202v2.0 PIXL
#TITLE       : N/A
#DATE        :       Date in the format DD-MMM-YYYY, for example 07-JUL-2010
#TIME        :             The time of day at which the spectrum was recorded, in 24-hour format
#OWNER       : PIXL Flight Model       (PIXL will use this to indicate which instrument took the data.)
#NPOINTS     : 4096     Number of data points in the spectrum (This can be zero for configuration only files)
#NCOLUMNS    : 2     Number of data columns in the spectrum (This can be zero for configuration only files)
#XUNITS      : eV
#YUNITS      : COUNTS
#DATATYPE    : YY
#XPERCHAN    : 7.862, 7.881   eV per channel (separate by commas if more than one detector)
#OFFSET      : 18.5, -22.4         eV of first channel  (separate by commas if more than one detector
#SIGNALTYPE  : XRF
#YP_TEMP     : 3.133
#LIVETIME    : 9.00183, 8.99878   seconds (separate by commas if more than one detector)
#REALTIME    : 10, 10.0   seconds (separate by commas if more than one detector)
#SPECTRUM    : start of spectrum data
0, 0
0, 0
0, 0
0, 0
0, 0
0, 0
0, 0
0, 0
0, 0
0, 0
0, 0
0, 0
0, 0
0, 0
0, 0
0, 0
0, 0
0, 0
0, 0
0, 0
0, 0
0, 0
0, 0
0, 0
0, 0
0, 0
0, 0
0, 0
0, 0
0, 0
0, 0
0, 0
0, 1
0, 0
0, 1
0, 0
0, 1
1, 1
0, 0
0, 0
0, 2
3, 0
1, 0
4, 0
2, 0
0, 2
1, 1
0, 2
2, 1
5, 6
12, 12
29, 21
39, 32
56, 45
47, 73
55, 44
42, 41
30, 22
11, 16
9, 5
6, 7
1, 2
2, 5
6, 4
2, 6
5, 4
4, 9
9, 2
18, 15
46, 32
76, 62
150, 138
295, 271
393, 382
524, 501
503, 483
415, 427
335, 294
168, 161
107, 107
61, 53
33, 23
12, 10
8, 8
2, 11
7, 3
5, 1
5, 4
2, 2
3, 4
3, 1
0, 4
2, 3
3, 4
2, 3
3, 3
4, 0
5, 3
4, 7
1, 3
10, 4
6, 3
2, 6
6, 6
6, 5
4, 2
5, 4
11, 8
6, 7
19, 18
29, 22
40, 25
39, 38
44, 39
47, 39
50, 38
48, 44
35, 16
22, 31
23, 30
18, 12
23, 19
19, 12
19, 15
19, 17
14, 10
10, 18
9, 9
6, 14
5, 9
5, 5
4, 3
1, 0
3, 0
3, 4
3, 3
7, 1
4, 8
2, 6
1, 1
3, 1
2, 3
0, 2
3, 2
2, 2
1, 4
4, 0
1, 2
2, 1
1, 6
4, 4
8, 7
11, 7
23, 13
29, 34
43, 55
58, 57
73, 66
61, 58
55, 47
33, 28
20, 15
22, 17
11, 7
3, 8
8, 9
5, 7
7, 10
11, 10
13, 11
16, 9
11, 6
15, 9
5, 8
7, 4
11, 12
3, 1
4, 2
7, 4
1, 2
5, 2
4, 5
2, 5
3, 4
4, 3
3, 4
3, 8
5, 6
3, 9
7, 6
11, 5
18, 11
14, 14
13, 14
14, 22
12, 13
18, 18
15, 13
26, 19
23, 21
13, 14
11, 9
16, 6
13, 13
7, 7
9, 4
5, 5
7, 5
6, 8
7, 5
6, 10
6, 2
9, 2
7, 7
6, 2
4, 9
16, 7
7, 5
7, 7
6, 7
4, 5
12, 9
8, 6
10, 5
6, 5
5, 13
5, 15
9, 12
6, 9
10, 17
14, 6
10, 11
9, 10
13, 8
14, 8
14, 4
9, 9
8, 5
7, 10
8, 3
7, 12
6, 12
13, 15
11, 11
17, 21
20, 28
35, 46
49, 63
72, 73
69, 86
101, 91
112, 92
87, 72
80, 72
64, 43
41, 39
39, 35
29, 25
26, 13
15, 21
37, 20
27, 21
50, 53
95, 118
180, 253
345, 442
675, 769
1157, 1294
1666, 2011
2463, 2805
3188, 3523
3667, 3904
3983, 3898
3745, 3509
3237, 2871
2503, 2182
1897, 1468
1204, 864
736, 506
369, 245
180, 134
78, 84
49, 60
24, 58
18, 58
17, 81
14, 82
11, 88
23, 80
18, 69
25, 68
34, 77
46, 99
78, 118
142, 168
225, 233
292, 362
415, 462
486, 517
518, 539
615, 572
553, 493
410, 393
338, 302
268, 202
160, 126
102, 84
59, 46
32, 33
17, 22
11, 12
7, 15
8, 17
13, 11
9, 9
11, 10
5, 9
15, 6
14, 5
8, 5
5, 3
5, 6
9, 2
4, 4
1, 4
2, 5
4, 6
3, 9
2, 3
3, 13
2, 16
2, 12
2, 13
4, 10
3, 6
3, 3
6, 6
1, 5
2, 5
5, 1
7, 3
4, 9
4, 5
4, 4
1, 2
4, 5
5, 2
3, 1
5, 4
2, 5
2, 2
3, 2
2, 4
7, 3
4, 6
4, 1
7, 3
2, 0
3, 2
4, 1
1, 4
8, 6
4, 0
4, 3
4, 3
4, 3
12, 4
5, 1
8, 6
3, 4
5, 1
3, 2
6, 4
5, 5
2, 2
4, 5
3, 4
2, 2
2, 3
4, 3
2, 3
4, 2
1, 0
2, 7
6, 4
1, 2
5, 3
1, 3
2, 3
2, 3
5, 0
1, 3
2, 4
2, 3
3, 1
1, 2
4, 5
4, 7
2, 2
1, 7
2, 7
0, 5
3, 1
5, 0
1, 3
2, 1
1, 4
0, 2
1, 3
3, 2
2, 2
2, 0
2, 3
3, 4
0, 2
0, 5
5, 6
3, 1
3, 3
3, 6
1, 4
5, 7
1, 6
4, 5
4, 1
1, 6
1, 4
1, 3
2, 7
0, 2
1, 3
0, 0
3, 0
3, 0
5, 1
1, 4
0, 2
5, 3
2, 3
5, 1
1, 4
3, 1
6, 2
1, 2
1, 3
1, 4
0, 4
2, 3
2, 5
2, 6
1, 7
1, 2
1, 2
2, 4
0, 3
2, 0
0, 2
1, 4
2, 0
1, 6
2, 4
1, 2
2, 4
2, 3
3, 2
1, 2
4, 4
3, 1
5, 1
6, 1
4, 1
3, 2
2, 1
6, 0
3, 4
1, 2
3, 3
2, 2
3, 2
1, 2
4, 3
2, 1
1, 4
4, 0
3, 0
4, 0
2, 2
1, 4
1, 1
2, 3
1, 1
3, 3
3, 0
2, 6
1, 2
0, 3
1, 3
0, 1
0, 5
1, 2
1, 2
0, 4
2, 0
2, 1
2, 1
1, 0
0, 2
1, 3
1, 4
1, 2
2, 1
2, 3
1, 5
1, 2
0, 6
1, 0
2, 4
2, 2
4, 3
3, 4
4, 3
2, 3
0, 2
0, 1
2, 1
0, 1
4, 0
0, 2
1, 1
1, 1
3, 1
2, 1
3, 2
0, 3
3, 2
3, 3
3, 5
3, 2
5, 5
7, 5
3, 7
4, 6
9, 7
3, 9
6, 11
4, 3
5, 5
8, 2
1, 2
2, 2
0, 0
0, 0
1, 1
1, 1
3, 0
0, 0
0, 0
0, 3
0, 1
1, 0
0, 5
2, 3
0, 1
0, 1
0, 3
2, 2
3, 4
4, 4
3, 2
2, 5
3, 3
1, 4
4, 3
2, 3
4, 1
0, 2
2, 2
1, 1
1, 2
2, 0
1, 0
2, 1
0, 1
3, 0
1, 0
2, 2
1, 1
1, 3
2, 2
0, 2
4, 1
2, 0
1, 0
0, 1
0, 2
0, 2
0, 2
0, 0
4, 1
0, 0
0, 0
1, 0
0, 1
1, 0
0, 0
0, 1
0, 0
0, 1
2, 2
1, 1
0, 0
0, 0
1, 1
0, 1
0, 1
0, 0
0, 0
1, 1
0, 2
0, 0
0, 1
0, 0
0, 0
0, 2
1, 1
1, 0
1, 0
1, 0
1, 0
1, 0
1, 2
0, 1
1, 1
2, 3
0, 1
1, 1
0, 0
0, 0
0, 0
1, 2
0, 1
0, 0
0, 0
1, 0
0, 0
0, 1
0, 0
1, 0
1, 0
1, 0
1, 2
0, 0
2, 0
1, 0
1, 2
0, 1
0, 0
0, 1
2, 1
1, 0
0, 1
3, 0
0, 0
0, 0
0, 0
2, 0
0, 0
2, 0
0, 2
0, 0
0, 1
1, 1
0, 0
0, 2
0, 1
0, 0
0, 0
1, 0
1, 1
0, 0
1, 0
0, 0
1, 2
1, 0
0, 0
0, 0
1, 0
0, 0
1, 0
0, 0
0, 1
0, 0
1, 0
0, 1
0, 0
1, 0
0, 1
0, 0
0, 0
1, 2
0, 0
0, 0
0, 1
0, 1
1, 0
0, 0
0, 1
0, 0
0, 0
1, 0
0, 0
0, 0
0, 1
0, 1
0, 0
0, 1
0, 0
1, 0
0, 0
1, 0
0, 0
0, 1
0, 0
2, 1
2, 0
0, 0
0, 0
0, 0
0, 0
0, 0
0, 1
0, 0
0, 1
3, 1
0, 1
0, 1
0, 0
0, 0
0, 0
0, 0
0, 0
0, 0
1, 0
0, 2
0, 0
0, 0
0, 0
0, 0
0, 0
0, 0
0, 0
0, 0
0, 2
0, 0
0, 2
1, 0
0, 0
0, 0
0, 0
1, 1
0, 0
0, 1
0, 0
0, 0
0, 0
0, 0
0, 0
0, 0
0, 0
0, 0
0, 0
1, 0
0, 0
0, 0
0, 0
0, 0
1, 0
0, 1
0, 0
0, 0
0, 1
0, 2
0, 0
0, 1
0, 1
0, 1
0, 1
0, 0
0, 2
2, 0
0, 0
0, 0
0, 0
0, 0
0, 0
0, 0
1, 0
0, 0
0, 0
0, 0
0, 0
1, 0
0, 0
1, 1
0, 0
0, 1
0, 0
0, 0
0, 0
1, 0
0, 0
0, 0
0, 0
0, 0
0, 0
0, 0
0, 0
0, 0
0, 0
0, 0
0, 0
0, 0
0, 0
0, 0
0, 2
0, 1
0, 0
0, 0
2, 0
0, 0
0, 0
0, 0
0, 0
0, 0
0, 0
0, 0
1, 0
0, 0
0, 0
2, 0
0, 0
1, 0
0, 0
0, 0
1, 1
0, 1
0, 0
0, 0
0, 0
0, 2
0, 0
0, 0
1, 0
0, 0
0, 0
0, 1
0, 1
0, 0
0, 1
0, 0
0, 0
0, 0
0, 0
0, 2
0, 0
0, 0
0, 0
0, 0
0, 0
0, 1
0, 0
0, 0
0, 0
0, 0
0, 0
0, 0
0, 0
0, 0
0, 0
0, 0
0, 1
0, 0
0, 1
0, 0
0, 0
0, 0
1, 0
0, 0
0, 0
0, 1
0, 0
0, 0
0, 0
0, 0
0, 0
0, 0
0, 0
0, 0
0, 0
0, 0
0, 0
0, 0
0, 0
0, 0
0, 0
0, 0
0, 0
0, 1
0, 0
1, 0
0, 0
0, 0
0, 0
1, 0
0, 0
0, 0
0, 0
0, 0
0, 0
1, 0
0, 0
0, 0
0, 0
0, 0
0, 0
0, 0
0, 0
1, 0
0, 0
0, 0
0, 0
0, 0
0, 0
0, 0
0, 0
0, 0
0, 0
0, 0
0, 0
0, 0
0, 0
0, 0
0, 0
0, 0
0, 0
0, 0
0, 0
0, 0
0, 0
0, 1
1, 0
0, 0
0, 0
0, 0
0, 0
0, 0
0, 0
1, 0
0, 0
0, 0
0, 0
0, 0
0, 0
0, 0
0, 0
0, 0
0, 0
0, 0
0, 0
0, 0
0, 0
0, 1
0, 0
0, 0
0, 0
0, 0
0, 0
0, 0
0, 0
0, 1
0, 0
0, 0
0, 0
0, 0
0, 0
0, 0
0, 0
0, 0
0, 0
0, 0
0, 0
0, 0
0, 0
0, 0
0, 0
0, 0
0, 0
0, 0
0, 0
0, 0
0, 0
0, 0
0, 0
0, 0
0, 0
0, 0
0, 0
0, 0
0, 0
0, 0
0, 0
0, 0
0, 0
0, 0
1, 0
0, 0
0, 0
0, 0
0, 0
0, 0
0, 0
0, 0
0, 0
0, 0
0, 0
0, 0
0, 0
0, 0
0, 0
0, 0
0, 0
0, 0
0, 0
0, 0
0, 0
0, 0
0, 0
0, 0
0, 0
0, 0
0, 0
0, 0
0, 0
0, 0
0, 0
0, 0
0, 0
0, 0
0, 0
0, 0
0, 0
0, 0
0, 0
0, 0
0, 0
0, 0
0, 0
0, 0
0, 0
0, 0
0, 0
0, 0
0, 0
0, 0
0, 0
0, 0
0, 0
0, 0
0, 0
0, 0
0, 0
0, 0
0, 0
0, 0
0, 0
0, 0
0, 0
0, 0
0, 0
0, 0
0, 0
0, 0
0, 0
0, 0
0, 0
0, 0
0, 0
1, 0
0, 0
0, 0
0, 0
0, 0
0, 0
0, 0
0, 0
0, 0
0, 0
0, 0
0, 0
0, 0
0, 0
0, 0
0, 0
0, 0
0, 0
0, 0
0, 0
0, 0
0, 0
0, 0
0, 0
0, 0
0, 0
0, 0
0, 0
0, 0
0, 0
0, 0
0, 0
0, 0
0, 0
0, 0
0, 0
0, 0
0, 0
0, 0
0, 0
0, 0
0, 0
0, 0
0, 0
0, 0
0, 0
0, 0
0, 0
0, 0
0, 0
0, 0
0, 0
0, 0
0, 0
0, 0
0, 0
0, 0
0, 0
0, 0
0, 0
0, 0
0, 0
0, 0
0, 0
0, 0
0, 0
0, 0
0, 0
0, 0
0, 0
0, 0
0, 0
0, 0
0, 0
0, 0
0, 0
0, 0
0, 0
0, 0
0, 0
0, 0
0, 0
0, 0
0, 0
0, 0
0, 0
0, 0
0, 0
0, 0
0, 0
0, 0
0, 0
0, 0
0, 0
0, 0
0, 0
0, 0
0, 0
0, 0
0, 0
0, 0
0, 0
0, 0
0, 0
0, 0
0, 0
0, 0
0, 0
0, 0
0, 0
0, 0
0, 0
0, 0
0, 0
0, 0
0, 0
0, 0
0, 0
0, 0
0, 0
0, 0
0, 0
0, 0
0, 0
0, 0
0, 0
0, 0
0, 0
0, 0
0, 0
0, 0
0, 0
0, 0
0, 0
0, 0
0, 0
0, 0
0, 0
0, 0
0, 0
0, 0
0, 0
0, 0
0, 0
0, 0
0, 0
0, 0
0, 0
0, 0
0, 0
0, 0
0, 0
0, 0
0, 0
0, 0
0, 0
0, 0
0, 0
0, 0
0, 0
0, 0
0, 0
0, 0
0, 0
0, 0
0, 0
0, 0
0, 0
0, 0
0, 0
0, 0
0, 0
0, 0
0, 0
0, 0
0, 0
0, 0
0, 0
0, 0
0, 0
0, 0
0, 0
0, 0
0, 0
0, 0
0, 0
0, 0
0, 0
0, 0
0, 0
0, 0
0, 0
0, 0
0, 0
0, 0
0, 0
0, 0
0, 0
0, 0
0, 0
0, 0
0, 0
0, 0
0, 0
0, 0
0, 0
0, 0
0, 0
0, 0
0, 0
0, 0
0, 0
0, 0
0, 0
0, 0
0, 0
0, 0
0, 0
0, 0
0, 0
0, 0
0, 0
0, 0
0, 0
0, 0
0, 0
0, 0
0, 0
0, 0
0, 0
0, 0
0, 0
0, 0
0, 0
0, 0
0, 0
0, 0
0, 0
0, 0
0, 0
0, 0
0, 0
0, 0
0, 0
0, 0
0, 0
0, 0
0, 0
0, 0
0, 0
0, 0
0, 0
0, 0
0, 0
0, 0
0, 0
0, 0
0, 0
0, 0
0, 0
0, 0
0, 0
0, 0
0, 0
0, 0
0, 0
0, 0
0, 0
0, 0
0, 0
0, 0
0, 0
0, 0
0, 0
0, 0
0, 0
0, 0
0, 0
0, 0
#ENDOFDATA     end of spectrum data