File: host_upload/12-01-2023/Dourbes (shot-by-shot)/upload_4/ps__0257_0689790785_000rfs_shot_3168.msa
#FORMAT      : EMSA/MAS spectral data file
#VERSION     : TC202v2.0 PIXL
#TITLE       : N/A
#DATE        :       Date in the format DD-MMM-YYYY, for example 07-JUL-2010
#TIME        :             The time of day at which the spectrum was recorded, in 24-hour format
#OWNER       : PIXL Flight Model       (PIXL will use this to indicate which instrument took the data.)
#NPOINTS     : 4096     Number of data points in the spectrum (This can be zero for configuration only files)
#NCOLUMNS    : 2     Number of data columns in the spectrum (This can be zero for configuration only files)
#XUNITS      : eV
#YUNITS      : COUNTS
#DATATYPE    : YY
#XPERCHAN    : 7.862, 7.881   eV per channel (separate by commas if more than one detector)
#OFFSET      : 18.5, -22.4         eV of first channel  (separate by commas if more than one detector
#SIGNALTYPE  : XRF
#YP_TEMP     : 3.294
#LIVETIME    : 8.99795, 9.00193   seconds (separate by commas if more than one detector)
#REALTIME    : 10, 10.0   seconds (separate by commas if more than one detector)
#SPECTRUM    : start of spectrum data
0, 0
0, 0
0, 0
0, 0
0, 0
0, 0
0, 0
0, 0
0, 0
0, 0
0, 0
0, 0
0, 0
0, 0
0, 0
0, 0
0, 0
0, 0
0, 0
0, 0
0, 0
0, 0
0, 0
0, 0
0, 0
0, 0
0, 0
0, 0
0, 0
0, 0
0, 0
0, 0
0, 0
0, 0
2, 0
0, 0
0, 0
0, 0
0, 1
0, 1
0, 4
1, 2
1, 1
0, 2
0, 0
1, 1
4, 0
1, 1
2, 3
6, 2
20, 15
36, 26
45, 33
49, 63
49, 52
52, 56
38, 40
21, 22
21, 15
5, 10
4, 5
7, 2
2, 3
3, 5
2, 5
3, 7
2, 5
10, 4
12, 8
32, 27
72, 82
175, 164
267, 225
363, 411
483, 502
494, 489
405, 402
304, 296
181, 175
94, 87
55, 55
24, 38
14, 13
8, 7
2, 9
5, 5
4, 5
3, 5
4, 2
2, 3
3, 2
0, 1
2, 3
2, 1
2, 2
5, 1
2, 3
1, 2
5, 1
9, 8
7, 3
2, 3
6, 4
2, 2
1, 3
4, 5
4, 6
5, 6
12, 7
9, 11
23, 13
21, 10
23, 38
38, 35
52, 37
35, 47
42, 49
36, 30
30, 42
29, 28
20, 16
24, 19
25, 15
20, 10
16, 11
12, 8
4, 23
9, 10
7, 11
10, 4
4, 9
3, 2
6, 1
5, 3
4, 4
7, 3
2, 5
0, 5
1, 6
3, 2
1, 1
3, 6
4, 1
1, 2
1, 2
2, 2
4, 1
2, 1
2, 3
3, 1
6, 4
7, 6
11, 8
30, 17
17, 23
20, 23
33, 24
28, 46
40, 42
28, 20
19, 23
16, 16
12, 19
14, 23
13, 26
12, 35
24, 54
33, 61
31, 40
38, 50
31, 41
29, 22
25, 11
14, 11
10, 13
11, 3
5, 4
7, 8
5, 7
10, 4
2, 6
10, 1
2, 2
2, 5
7, 6
6, 5
10, 9
9, 7
5, 7
18, 8
15, 8
14, 16
16, 11
10, 17
18, 14
17, 13
15, 19
10, 18
19, 19
21, 20
14, 19
9, 15
12, 9
9, 16
7, 10
9, 6
4, 6
8, 8
7, 12
4, 13
6, 7
11, 18
8, 8
8, 13
5, 8
5, 10
4, 7
3, 9
4, 8
7, 6
4, 6
8, 7
8, 5
8, 2
8, 12
8, 5
12, 8
14, 13
7, 10
9, 18
7, 20
17, 19
10, 17
9, 14
14, 15
15, 10
18, 7
18, 10
12, 10
8, 13
11, 8
10, 9
11, 9
18, 7
17, 17
25, 33
45, 35
70, 51
71, 93
69, 108
124, 129
98, 95
96, 93
89, 83
71, 47
44, 39
32, 30
28, 20
28, 20
21, 24
25, 34
43, 29
43, 57
102, 117
174, 206
377, 448
720, 818
1197, 1358
1683, 2080
2547, 2859
3326, 3556
3736, 3958
3926, 3963
3716, 3547
3188, 2959
2491, 2060
1732, 1437
1105, 918
678, 492
353, 236
177, 115
104, 56
40, 20
22, 15
20, 14
15, 24
14, 17
17, 12
17, 24
25, 25
33, 35
50, 69
58, 83
101, 127
158, 191
215, 264
300, 384
396, 496
494, 528
561, 582
614, 544
536, 494
438, 377
329, 282
226, 196
137, 132
71, 50
45, 30
34, 15
11, 8
9, 7
8, 11
3, 4
4, 9
7, 8
6, 14
1, 8
5, 8
5, 10
5, 12
3, 5
3, 6
7, 2
5, 4
1, 4
3, 3
1, 4
4, 7
6, 9
2, 4
0, 16
2, 18
3, 19
4, 15
6, 13
6, 13
4, 5
6, 8
6, 14
5, 10
2, 4
2, 4
4, 7
5, 3
5, 3
6, 3
3, 0
2, 5
5, 6
6, 5
8, 6
2, 7
7, 4
1, 3
3, 7
3, 5
3, 5
4, 5
3, 6
1, 9
6, 5
2, 8
2, 5
3, 7
3, 3
1, 3
4, 1
3, 3
3, 3
3, 6
7, 2
1, 4
1, 8
5, 6
2, 2
1, 15
9, 9
1, 9
3, 6
3, 7
1, 8
5, 2
2, 5
3, 4
0, 4
2, 2
1, 2
4, 1
3, 6
0, 1
3, 1
4, 4
4, 4
1, 4
4, 1
2, 5
1, 5
1, 3
2, 6
2, 6
2, 5
4, 3
5, 5
7, 1
3, 0
4, 3
5, 0
8, 1
2, 1
6, 1
3, 8
5, 1
4, 0
2, 6
3, 2
1, 2
7, 1
2, 3
1, 2
3, 3
3, 4
3, 1
3, 1
3, 2
1, 3
2, 1
0, 2
3, 3
3, 3
2, 3
4, 3
4, 2
5, 1
9, 3
3, 3
6, 3
9, 3
13, 0
11, 4
9, 2
9, 3
9, 1
6, 3
7, 4
6, 2
9, 1
1, 0
1, 2
2, 1
2, 1
5, 3
3, 5
2, 2
1, 1
3, 2
2, 4
0, 4
1, 2
5, 7
1, 13
1, 10
3, 9
3, 9
0, 9
0, 13
4, 7
1, 7
2, 10
3, 5
2, 3
2, 1
2, 2
4, 2
3, 4
3, 0
2, 1
1, 3
4, 3
3, 2
1, 3
1, 4
4, 2
5, 2
0, 1
2, 1
1, 6
1, 2
0, 3
1, 4
0, 4
2, 0
2, 2
3, 4
4, 2
2, 0
0, 3
1, 2
2, 2
2, 1
4, 2
3, 3
4, 1
4, 1
3, 1
3, 2
4, 5
2, 1
1, 2
3, 1
1, 2
8, 1
0, 0
4, 1
2, 1
5, 2
4, 3
2, 1
3, 4
3, 1
2, 1
5, 2
1, 3
2, 6
2, 2
0, 1
2, 4
1, 2
1, 1
1, 0
1, 0
0, 0
1, 3
2, 1
2, 1
0, 3
2, 2
5, 5
5, 6
7, 5
6, 6
8, 9
9, 12
11, 6
11, 3
8, 7
6, 4
5, 4
2, 7
4, 6
2, 0
1, 2
2, 2
0, 1
2, 2
1, 0
0, 1
1, 3
2, 3
0, 1
1, 0
0, 2
2, 3
0, 1
1, 2
2, 1
2, 2
2, 0
1, 1
2, 0
1, 2
1, 3
1, 7
4, 2
2, 2
3, 2
1, 1
3, 3
4, 0
2, 1
0, 2
3, 1
2, 2
1, 0
2, 1
2, 1
2, 1
1, 0
0, 1
1, 1
1, 1
1, 2
0, 3
2, 2
0, 2
3, 0
0, 0
1, 2
1, 0
0, 0
1, 0
2, 0
3, 0
2, 1
1, 3
4, 2
3, 3
1, 2
0, 2
3, 1
2, 0
1, 0
1, 1
2, 2
2, 0
3, 0
0, 2
2, 0
0, 0
0, 0
0, 0
2, 2
2, 0
0, 2
0, 1
0, 0
1, 0
1, 1
0, 2
1, 3
0, 3
0, 1
1, 1
2, 0
1, 0
0, 0
0, 2
1, 0
0, 1
1, 2
0, 0
2, 0
3, 0
1, 0
0, 2
0, 0
0, 0
0, 1
0, 0
0, 0
0, 1
2, 1
0, 0
0, 0
0, 0
0, 0
0, 1
0, 0
0, 0
1, 0
0, 1
0, 0
0, 0
0, 0
0, 2
0, 1
0, 0
0, 0
1, 1
0, 0
1, 1
0, 0
0, 0
0, 0
0, 0
0, 0
1, 0
1, 0
0, 0
0, 1
0, 1
1, 1
0, 0
0, 0
0, 0
0, 1
0, 0
3, 0
1, 0
0, 0
0, 0
0, 0
1, 0
0, 0
0, 0
0, 0
0, 1
0, 0
2, 0
0, 0
0, 1
3, 1
0, 0
0, 0
0, 0
0, 0
0, 0
0, 0
0, 0
0, 0
2, 0
1, 0
1, 0
0, 1
0, 0
0, 0
1, 1
1, 0
0, 0
0, 0
0, 0
2, 0
0, 0
0, 0
0, 0
0, 1
1, 0
0, 0
0, 2
1, 0
0, 0
0, 0
0, 0
1, 0
0, 0
0, 0
0, 1
0, 0
0, 1
0, 1
0, 0
0, 0
0, 0
0, 1
0, 0
0, 0
0, 0
0, 0
0, 0
0, 0
0, 0
1, 0
0, 1
0, 0
0, 0
0, 0
1, 1
0, 0
0, 0
0, 0
0, 0
0, 0
0, 0
0, 1
1, 0
0, 0
0, 0
0, 1
1, 0
0, 0
0, 0
0, 2
1, 0
1, 0
0, 0
1, 1
0, 1
1, 0
1, 0
0, 0
2, 0
0, 0
0, 0
0, 0
0, 0
0, 0
0, 0
1, 0
0, 0
0, 0
0, 0
1, 0
2, 0
2, 1
0, 1
1, 0
0, 0
0, 0
0, 0
0, 0
0, 0
0, 0
0, 0
0, 0
0, 1
0, 0
0, 1
0, 0
0, 0
0, 0
0, 0
0, 0
0, 0
2, 0
0, 0
0, 0
0, 1
0, 0
1, 0
0, 0
0, 0
0, 1
0, 0
0, 0
0, 0
0, 0
0, 0
0, 0
1, 0
1, 0
0, 1
0, 0
0, 0
1, 0
0, 0
0, 0
0, 0
0, 0
0, 1
0, 0
0, 0
0, 0
0, 0
0, 0
0, 0
1, 0
0, 0
0, 0
0, 0
0, 0
0, 0
0, 0
0, 0
0, 1
0, 0
0, 0
0, 0
0, 0
0, 0
1, 0
0, 0
0, 0
0, 0
0, 0
0, 0
0, 0
0, 0
0, 0
0, 0
0, 0
0, 1
0, 0
0, 0
0, 0
0, 0
0, 0
0, 0
0, 1
0, 1
0, 0
0, 0
0, 0
0, 0
1, 0
0, 0
0, 0
0, 0
0, 0
0, 0
0, 0
0, 0
0, 0
0, 0
0, 0
0, 0
1, 0
0, 0
0, 0
0, 0
0, 1
0, 0
0, 0
0, 0
0, 0
0, 0
0, 0
0, 0
0, 0
0, 0
0, 0
0, 0
0, 1
0, 0
0, 0
0, 0
0, 0
0, 0
0, 0
0, 0
0, 0
0, 0
0, 0
0, 0
0, 0
0, 0
0, 0
0, 0
0, 0
0, 0
0, 0
0, 0
0, 0
0, 0
0, 0
0, 0
0, 0
0, 0
0, 0
0, 0
0, 0
0, 0
0, 0
0, 0
0, 0
0, 0
0, 0
0, 0
0, 0
0, 0
0, 0
0, 0
0, 0
0, 0
0, 0
0, 0
0, 0
0, 0
0, 0
0, 0
1, 0
0, 0
0, 0
0, 0
0, 0
0, 0
0, 0
0, 0
0, 0
0, 0
0, 1
0, 0
0, 0
0, 0
0, 0
0, 0
0, 0
0, 0
0, 1
0, 0
0, 0
0, 0
0, 0
0, 0
0, 0
0, 0
0, 0
0, 0
0, 0
0, 0
0, 0
0, 0
0, 0
0, 0
0, 0
0, 0
0, 0
0, 0
0, 0
0, 0
0, 0
0, 0
0, 0
0, 0
0, 0
0, 0
0, 0
0, 0
0, 0
0, 0
0, 1
0, 0
0, 0
0, 0
0, 0
0, 0
0, 0
0, 0
0, 0
0, 0
0, 0
0, 0
0, 0
0, 0
0, 0
0, 0
0, 0
0, 0
0, 0
0, 0
0, 0
0, 0
0, 0
0, 0
0, 0
0, 0
0, 0
0, 0
0, 0
0, 0
0, 0
0, 0
0, 0
0, 0
0, 0
0, 0
0, 0
0, 0
0, 0
0, 0
0, 0
0, 0
0, 0
0, 0
0, 0
0, 0
0, 0
0, 0
0, 0
0, 0
0, 0
0, 0
0, 0
0, 0
0, 0
0, 0
0, 0
0, 0
0, 0
0, 0
0, 0
0, 0
0, 0
0, 0
0, 0
0, 0
0, 0
0, 0
0, 0
0, 0
0, 0
0, 0
0, 0
0, 0
0, 0
0, 0
0, 0
0, 0
0, 0
0, 0
0, 0
0, 0
0, 0
0, 0
0, 0
0, 0
0, 0
0, 0
0, 0
0, 0
0, 0
0, 0
0, 0
0, 0
0, 0
0, 0
0, 0
0, 0
0, 0
0, 0
0, 0
0, 0
0, 0
0, 0
0, 0
0, 0
0, 0
0, 0
0, 0
0, 0
0, 0
0, 0
0, 0
0, 0
0, 0
0, 0
0, 0
0, 0
0, 0
0, 0
0, 0
0, 0
0, 0
0, 0
0, 0
0, 0
0, 0
0, 0
0, 0
1, 0
0, 0
0, 0
0, 0
0, 0
0, 0
0, 0
0, 0
0, 0
0, 0
0, 0
0, 0
0, 0
0, 0
0, 0
0, 0
0, 0
0, 0
0, 0
0, 0
0, 0
0, 0
0, 0
0, 0
0, 0
0, 0
0, 0
0, 0
0, 0
0, 0
0, 0
0, 0
0, 0
0, 0
0, 0
0, 0
0, 0
0, 0
0, 0
0, 0
0, 0
0, 0
0, 0
0, 0
0, 0
0, 0
0, 0
0, 0
0, 0
0, 0
0, 0
0, 0
0, 0
0, 0
0, 0
0, 0
0, 0
0, 0
0, 0
0, 0
0, 0
0, 0
0, 0
0, 0
0, 0
0, 0
0, 0
0, 0
0, 0
0, 0
0, 0
0, 0
0, 0
0, 0
0, 0
0, 0
0, 0
0, 0
0, 0
0, 0
0, 0
0, 0
0, 0
0, 0
0, 0
0, 0
0, 0
0, 0
0, 0
0, 0
0, 0
0, 0
0, 0
0, 0
0, 0
0, 0
0, 0
0, 0
0, 0
0, 0
0, 0
0, 0
0, 0
0, 0
0, 0
0, 0
0, 0
0, 0
0, 0
0, 0
0, 0
0, 0
0, 0
0, 0
0, 0
0, 0
0, 0
0, 0
0, 0
0, 0
0, 0
0, 0
0, 0
0, 0
0, 0
0, 0
0, 0
0, 0
0, 0
0, 0
0, 0
0, 0
0, 0
0, 0
0, 0
0, 0
0, 0
0, 0
0, 0
0, 0
0, 0
0, 0
0, 0
0, 0
0, 0
0, 0
0, 0
0, 0
0, 0
0, 0
0, 0
0, 0
0, 0
0, 0
0, 0
0, 0
0, 0
0, 0
0, 0
0, 0
0, 0
0, 0
0, 0
0, 0
0, 0
0, 0
0, 0
0, 0
0, 0
0, 0
0, 0
0, 0
0, 0
0, 0
0, 0
0, 0
0, 0
0, 0
0, 0
0, 0
0, 0
0, 0
0, 0
0, 0
0, 0
0, 0
0, 0
0, 0
0, 0
0, 0
0, 0
0, 0
0, 0
0, 0
0, 0
0, 0
0, 0
0, 0
0, 0
0, 0
0, 0
0, 0
0, 0
0, 0
0, 0
0, 0
0, 0
0, 0
0, 0
0, 0
0, 0
0, 0
0, 0
0, 0
0, 0
0, 0
0, 0
0, 0
0, 0
0, 0
0, 0
0, 0
0, 0
0, 0
0, 0
0, 0
0, 0
0, 0
0, 0
#ENDOFDATA     end of spectrum data