File: host_upload/12-01-2023/Dourbes (shot-by-shot)/upload_4/ps__0257_0689790785_000rfs_shot_3156.msa
#FORMAT      : EMSA/MAS spectral data file
#VERSION     : TC202v2.0 PIXL
#TITLE       : N/A
#DATE        :       Date in the format DD-MMM-YYYY, for example 07-JUL-2010
#TIME        :             The time of day at which the spectrum was recorded, in 24-hour format
#OWNER       : PIXL Flight Model       (PIXL will use this to indicate which instrument took the data.)
#NPOINTS     : 4096     Number of data points in the spectrum (This can be zero for configuration only files)
#NCOLUMNS    : 2     Number of data columns in the spectrum (This can be zero for configuration only files)
#XUNITS      : eV
#YUNITS      : COUNTS
#DATATYPE    : YY
#XPERCHAN    : 7.862, 7.881   eV per channel (separate by commas if more than one detector)
#OFFSET      : 18.5, -22.4         eV of first channel  (separate by commas if more than one detector
#SIGNALTYPE  : XRF
#YP_TEMP     : 3.198
#LIVETIME    : 9.04379, 9.03881   seconds (separate by commas if more than one detector)
#REALTIME    : 10, 10.0   seconds (separate by commas if more than one detector)
#SPECTRUM    : start of spectrum data
0, 0
0, 0
0, 0
0, 0
0, 0
0, 0
0, 0
0, 0
0, 0
0, 0
0, 0
0, 0
0, 0
0, 0
0, 0
0, 0
0, 0
0, 0
0, 0
0, 0
0, 0
0, 0
0, 0
0, 0
0, 0
0, 0
0, 0
0, 0
0, 0
0, 0
0, 0
0, 0
0, 0
0, 1
1, 0
0, 1
1, 1
0, 0
1, 0
2, 1
1, 2
3, 2
0, 1
3, 2
0, 0
2, 1
0, 1
2, 2
2, 5
5, 7
21, 10
32, 21
29, 30
44, 53
68, 49
54, 50
43, 38
20, 27
17, 14
5, 6
4, 5
6, 3
6, 4
7, 8
4, 2
7, 8
7, 7
12, 8
21, 16
32, 38
91, 69
228, 193
346, 331
550, 532
662, 616
610, 593
539, 517
384, 348
255, 222
129, 94
75, 66
34, 27
21, 23
9, 16
6, 9
8, 6
5, 2
3, 4
3, 4
2, 0
3, 2
0, 1
2, 0
2, 1
2, 4
6, 4
2, 5
6, 2
10, 6
8, 11
8, 9
3, 3
3, 4
4, 2
3, 5
7, 2
1, 3
10, 11
18, 29
24, 20
33, 35
44, 50
75, 64
47, 65
67, 66
48, 53
46, 42
44, 36
31, 35
41, 32
23, 34
30, 16
28, 27
23, 18
20, 24
19, 23
24, 10
11, 9
13, 10
15, 10
6, 4
12, 6
4, 4
7, 4
5, 8
6, 0
6, 3
3, 2
5, 8
1, 0
1, 2
0, 1
5, 1
1, 6
4, 2
3, 2
1, 2
5, 4
5, 3
8, 10
11, 14
30, 30
57, 53
112, 124
204, 206
261, 310
354, 287
417, 338
364, 369
285, 267
190, 204
114, 112
87, 64
32, 38
27, 13
16, 19
20, 18
27, 35
40, 42
43, 42
47, 48
64, 42
60, 36
49, 42
20, 28
25, 16
22, 13
12, 8
3, 5
2, 8
3, 0
5, 2
4, 3
5, 5
8, 2
9, 13
4, 23
8, 42
11, 55
20, 62
28, 76
26, 91
34, 73
29, 71
50, 49
32, 64
47, 28
45, 23
29, 21
27, 14
20, 13
25, 11
12, 7
9, 1
6, 4
11, 6
6, 2
7, 8
10, 11
10, 12
12, 15
6, 8
8, 8
5, 9
4, 8
7, 6
4, 9
9, 8
4, 7
8, 2
3, 9
5, 7
9, 3
7, 8
8, 12
5, 10
13, 13
7, 16
18, 23
15, 23
19, 23
16, 29
27, 27
16, 12
14, 14
6, 10
10, 7
6, 7
7, 10
8, 11
10, 7
8, 13
15, 11
17, 17
12, 13
22, 17
30, 38
49, 47
58, 68
71, 72
61, 91
88, 80
90, 80
62, 53
55, 56
44, 41
41, 25
22, 22
24, 16
14, 21
25, 36
25, 44
48, 57
71, 110
144, 176
295, 369
500, 635
839, 984
1393, 1656
2046, 2296
2508, 2930
3035, 3188
2990, 3059
2947, 2947
2502, 2479
1937, 1774
1443, 1198
909, 691
549, 377
305, 210
148, 106
59, 41
37, 32
34, 20
26, 18
13, 19
24, 17
17, 18
15, 22
20, 19
26, 25
28, 40
59, 51
74, 66
121, 123
206, 206
228, 301
309, 412
401, 466
438, 480
470, 469
444, 410
365, 308
293, 226
165, 162
126, 107
68, 52
42, 35
27, 21
14, 10
10, 8
15, 6
8, 8
14, 4
14, 13
12, 6
25, 11
18, 7
22, 3
25, 6
22, 7
15, 3
22, 8
24, 1
9, 4
13, 6
10, 5
8, 4
10, 8
6, 7
5, 13
6, 10
5, 10
7, 10
1, 9
5, 10
8, 7
3, 9
3, 7
7, 3
1, 5
6, 4
8, 9
7, 3
3, 5
3, 4
4, 5
3, 3
10, 1
3, 5
3, 3
3, 7
3, 4
4, 8
7, 3
4, 3
3, 4
1, 7
8, 4
3, 2
3, 5
3, 5
4, 9
0, 4
2, 7
5, 6
2, 1
8, 3
3, 7
5, 1
3, 3
6, 3
2, 1
1, 5
6, 6
3, 6
8, 7
4, 6
6, 6
5, 3
4, 5
4, 5
3, 3
3, 10
6, 4
3, 3
4, 6
6, 5
3, 4
2, 3
6, 3
4, 4
4, 3
4, 4
3, 4
4, 6
2, 5
1, 8
6, 6
6, 2
3, 3
3, 3
2, 8
5, 5
2, 2
3, 6
5, 8
5, 5
4, 1
2, 9
2, 5
4, 5
1, 9
2, 4
2, 3
1, 5
1, 7
2, 6
5, 4
3, 0
4, 4
8, 3
2, 4
4, 6
2, 3
2, 5
2, 4
5, 1
2, 5
5, 2
5, 2
2, 1
2, 1
2, 1
2, 3
4, 1
6, 3
1, 1
2, 1
1, 3
3, 1
4, 3
3, 2
2, 2
1, 1
5, 5
5, 6
3, 6
2, 9
6, 7
1, 4
6, 12
9, 3
5, 5
5, 8
3, 3
4, 2
2, 5
7, 3
7, 4
3, 5
6, 4
10, 4
10, 0
3, 2
6, 5
5, 1
4, 0
7, 2
4, 4
3, 0
2, 1
1, 2
0, 5
3, 0
6, 0
3, 3
2, 0
1, 1
1, 1
3, 3
3, 2
2, 1
2, 2
3, 2
2, 1
2, 3
0, 2
1, 0
2, 0
5, 2
2, 2
3, 2
1, 4
3, 3
2, 1
2, 2
1, 3
0, 1
2, 2
0, 0
1, 3
4, 6
1, 1
6, 4
1, 0
0, 4
3, 3
3, 0
3, 4
3, 5
3, 3
1, 1
0, 0
4, 2
1, 6
1, 3
3, 4
3, 4
3, 3
3, 6
2, 2
4, 8
3, 6
3, 9
2, 9
4, 5
2, 2
5, 4
0, 4
2, 4
2, 3
0, 2
2, 1
1, 4
2, 2
1, 6
3, 3
1, 3
1, 6
3, 2
2, 6
4, 5
6, 1
5, 2
5, 1
3, 3
2, 1
5, 5
4, 2
1, 2
1, 4
3, 2
1, 0
2, 4
1, 1
0, 2
1, 3
1, 0
1, 1
0, 4
1, 1
1, 0
6, 2
0, 3
0, 1
1, 3
0, 0
2, 3
1, 1
4, 1
0, 2
0, 3
0, 1
3, 0
1, 0
1, 1
0, 0
2, 0
2, 1
2, 0
1, 0
1, 0
2, 1
0, 2
3, 1
1, 1
0, 1
2, 1
1, 1
1, 0
1, 3
1, 1
2, 0
3, 0
0, 1
1, 1
2, 1
1, 1
0, 0
1, 0
0, 1
0, 2
0, 1
1, 0
2, 0
2, 0
0, 2
0, 1
0, 0
3, 0
1, 2
0, 3
1, 1
2, 3
0, 1
0, 2
0, 1
2, 1
0, 0
0, 1
1, 0
0, 2
1, 0
1, 1
1, 2
1, 0
0, 0
1, 0
1, 0
3, 1
1, 2
2, 0
1, 1
0, 0
1, 1
1, 3
0, 3
2, 0
0, 0
2, 0
0, 1
0, 1
2, 1
1, 0
1, 0
0, 1
0, 0
1, 0
0, 0
0, 1
1, 1
0, 0
1, 0
0, 1
2, 2
0, 0
2, 0
0, 1
2, 0
0, 0
1, 0
1, 2
1, 0
0, 0
0, 0
1, 1
0, 1
0, 0
0, 0
2, 0
0, 0
0, 0
1, 1
0, 1
0, 0
0, 0
0, 2
1, 0
0, 0
0, 0
1, 0
0, 0
0, 0
1, 1
0, 1
0, 0
1, 0
0, 1
0, 0
0, 0
0, 0
1, 1
0, 0
0, 0
0, 1
0, 2
0, 0
0, 0
0, 0
0, 0
0, 1
0, 0
0, 0
0, 0
1, 0
1, 0
0, 0
0, 0
0, 0
0, 0
0, 0
0, 0
0, 0
0, 1
0, 0
0, 0
1, 2
0, 0
0, 0
0, 0
0, 0
0, 0
0, 1
1, 2
0, 0
0, 0
0, 2
0, 1
0, 1
1, 0
1, 1
0, 0
0, 0
0, 1
0, 1
0, 0
0, 0
0, 0
1, 0
0, 1
0, 0
0, 1
0, 1
1, 0
0, 0
0, 0
0, 0
0, 0
3, 0
0, 0
1, 0
0, 0
0, 0
0, 0
0, 0
0, 0
0, 0
0, 1
0, 0
0, 1
0, 0
0, 1
0, 0
1, 0
0, 0
0, 0
1, 1
0, 0
1, 0
0, 1
1, 0
1, 0
0, 0
0, 0
0, 0
1, 1
0, 0
0, 0
0, 0
0, 0
0, 0
0, 0
1, 0
0, 0
0, 0
1, 0
0, 0
0, 0
0, 0
0, 0
0, 0
0, 0
0, 0
0, 0
0, 1
0, 0
0, 1
0, 0
0, 0
0, 0
0, 0
0, 0
0, 0
0, 0
0, 0
0, 1
0, 1
0, 0
0, 0
0, 1
0, 0
0, 0
0, 0
0, 0
0, 0
1, 0
1, 0
1, 0
0, 0
0, 0
0, 0
0, 0
0, 1
0, 0
0, 0
0, 0
0, 0
0, 0
0, 0
0, 0
0, 0
0, 0
0, 0
0, 0
0, 0
0, 0
0, 0
0, 0
0, 1
1, 1
1, 0
0, 0
0, 0
0, 0
0, 0
0, 0
0, 0
0, 0
0, 0
0, 0
0, 0
0, 0
1, 0
0, 0
0, 0
0, 0
0, 0
0, 0
0, 1
0, 0
0, 0
0, 0
0, 0
1, 0
0, 0
0, 0
0, 0
1, 0
0, 1
0, 0
0, 1
0, 0
0, 0
0, 0
0, 0
0, 0
0, 0
0, 0
0, 0
0, 0
0, 0
0, 0
0, 0
0, 0
0, 0
0, 0
1, 0
0, 1
0, 0
0, 0
0, 0
0, 0
0, 0
0, 0
0, 0
2, 0
0, 0
0, 0
0, 0
0, 0
0, 0
0, 0
0, 0
0, 0
0, 0
0, 0
1, 0
0, 0
0, 0
0, 0
0, 0
0, 0
0, 0
0, 0
0, 0
0, 0
0, 0
0, 0
0, 0
0, 0
0, 0
0, 0
0, 0
0, 0
0, 0
0, 1
0, 0
0, 0
0, 0
0, 0
0, 0
0, 0
0, 0
0, 0
0, 0
1, 0
0, 0
0, 0
0, 0
0, 0
0, 0
0, 0
0, 0
0, 0
0, 0
0, 0
0, 0
0, 0
0, 0
0, 0
0, 0
0, 0
0, 0
0, 0
0, 1
0, 0
0, 0
0, 0
0, 0
0, 0
0, 0
0, 0
0, 0
0, 0
0, 0
0, 0
0, 0
0, 0
0, 0
0, 0
0, 0
0, 0
0, 0
0, 0
0, 0
0, 0
0, 0
0, 0
0, 0
0, 0
0, 0
0, 0
0, 0
0, 0
0, 0
0, 0
0, 0
0, 0
0, 0
0, 0
0, 0
0, 0
0, 0
0, 0
0, 0
0, 0
0, 0
0, 0
0, 0
0, 0
0, 0
0, 0
0, 0
0, 0
0, 0
0, 0
0, 0
0, 0
0, 0
0, 0
0, 0
0, 0
0, 0
0, 0
0, 0
0, 0
0, 0
0, 0
0, 0
0, 0
0, 0
0, 0
0, 0
0, 0
0, 0
0, 0
0, 0
0, 0
0, 0
0, 0
0, 0
0, 0
0, 0
0, 0
0, 0
0, 0
0, 0
0, 0
0, 0
0, 0
0, 0
0, 0
0, 0
0, 0
0, 0
0, 0
0, 0
0, 0
0, 0
0, 0
0, 0
0, 0
0, 0
0, 0
0, 0
0, 0
0, 0
0, 0
0, 0
0, 0
0, 0
0, 0
0, 0
0, 0
0, 0
0, 0
0, 0
0, 0
0, 0
0, 0
0, 0
0, 0
0, 0
0, 0
0, 0
0, 0
0, 0
0, 0
0, 0
0, 0
0, 0
0, 0
0, 0
0, 0
0, 0
0, 0
0, 0
0, 0
0, 0
0, 0
0, 0
0, 0
0, 0
0, 0
0, 0
0, 0
0, 0
0, 0
0, 0
0, 0
0, 0
0, 0
0, 0
0, 0
0, 0
0, 0
0, 0
0, 0
0, 0
0, 0
0, 0
0, 0
0, 0
0, 0
0, 0
0, 0
0, 0
0, 0
0, 0
0, 0
0, 0
0, 0
0, 0
0, 0
0, 0
0, 0
0, 0
0, 0
0, 0
0, 0
0, 0
0, 0
0, 0
0, 0
0, 0
0, 0
0, 0
0, 0
0, 0
0, 0
0, 0
0, 0
0, 0
0, 0
0, 0
0, 0
0, 0
0, 0
0, 0
0, 0
0, 0
0, 0
0, 0
0, 0
0, 0
0, 0
0, 0
0, 0
0, 0
0, 0
0, 0
0, 0
0, 0
0, 0
0, 0
0, 0
0, 0
0, 0
0, 0
0, 0
0, 0
0, 0
0, 0
0, 0
0, 0
0, 0
0, 0
0, 0
0, 0
0, 0
0, 0
0, 0
0, 0
0, 0
0, 0
0, 0
0, 0
0, 0
0, 0
0, 0
0, 0
0, 0
0, 0
0, 0
0, 0
0, 0
0, 0
0, 0
0, 0
0, 0
0, 0
0, 0
0, 0
0, 0
0, 0
0, 0
0, 0
0, 0
0, 0
0, 0
0, 0
0, 0
0, 0
0, 0
0, 0
0, 0
0, 0
0, 0
0, 0
0, 0
0, 0
0, 0
0, 0
0, 0
0, 0
0, 0
0, 0
0, 0
0, 0
0, 0
0, 0
0, 0
0, 0
0, 0
0, 0
0, 0
0, 0
0, 0
0, 0
0, 0
0, 0
0, 0
0, 0
0, 0
0, 0
0, 0
0, 0
0, 0
0, 0
0, 0
0, 0
0, 0
0, 0
0, 0
0, 0
0, 0
0, 0
0, 0
0, 0
0, 0
0, 0
0, 0
0, 0
0, 0
0, 0
0, 0
0, 0
0, 0
0, 0
0, 0
0, 0
0, 0
0, 0
0, 0
0, 0
0, 0
0, 0
0, 0
0, 0
0, 0
0, 0
0, 0
0, 0
0, 0
0, 0
0, 0
0, 0
0, 0
0, 0
0, 0
0, 0
0, 0
0, 0
0, 0
0, 0
0, 0
0, 0
0, 0
0, 0
0, 0
0, 0
0, 0
0, 0
0, 0
0, 0
0, 0
0, 0
0, 0
0, 0
0, 0
0, 0
0, 0
0, 0
0, 0
0, 0
0, 0
0, 0
0, 0
0, 0
0, 0
0, 0
0, 0
0, 0
0, 0
0, 0
0, 0
0, 0
0, 0
0, 0
0, 0
0, 0
0, 0
0, 0
0, 0
0, 0
0, 0
0, 0
0, 0
0, 0
0, 0
0, 0
0, 0
0, 0
0, 0
0, 0
0, 0
0, 0
0, 0
0, 0
0, 0
0, 0
0, 0
0, 0
0, 0
0, 0
0, 0
0, 0
0, 0
0, 0
0, 0
0, 0
0, 0
0, 0
0, 0
0, 0
#ENDOFDATA     end of spectrum data