File: host_upload/12-01-2023/Dourbes (shot-by-shot)/upload_4/ps__0257_0689790785_000rfs_shot_3241.msa
#FORMAT      : EMSA/MAS spectral data file
#VERSION     : TC202v2.0 PIXL
#TITLE       : N/A
#DATE        :       Date in the format DD-MMM-YYYY, for example 07-JUL-2010
#TIME        :             The time of day at which the spectrum was recorded, in 24-hour format
#OWNER       : PIXL Flight Model       (PIXL will use this to indicate which instrument took the data.)
#NPOINTS     : 4096     Number of data points in the spectrum (This can be zero for configuration only files)
#NCOLUMNS    : 2     Number of data columns in the spectrum (This can be zero for configuration only files)
#XUNITS      : eV
#YUNITS      : COUNTS
#DATATYPE    : YY
#XPERCHAN    : 7.862, 7.881   eV per channel (separate by commas if more than one detector)
#OFFSET      : 18.5, -22.4         eV of first channel  (separate by commas if more than one detector
#SIGNALTYPE  : XRF
#YP_TEMP     : 3.005
#LIVETIME    : 8.96914, 8.97823   seconds (separate by commas if more than one detector)
#REALTIME    : 10, 10.0   seconds (separate by commas if more than one detector)
#SPECTRUM    : start of spectrum data
0, 0
0, 0
0, 0
0, 0
0, 0
0, 0
0, 0
0, 0
0, 0
0, 0
0, 0
0, 0
0, 0
0, 0
0, 0
0, 0
0, 0
0, 0
0, 0
0, 0
0, 0
0, 0
0, 0
0, 0
0, 0
0, 0
0, 0
0, 0
0, 0
0, 0
0, 0
0, 0
0, 1
1, 0
1, 1
1, 0
2, 5
1, 3
4, 3
2, 1
3, 6
6, 3
5, 1
2, 3
3, 3
3, 1
2, 4
0, 0
3, 1
10, 6
16, 7
21, 18
29, 16
45, 35
50, 37
46, 43
32, 23
21, 13
17, 8
5, 3
2, 3
2, 0
2, 1
3, 4
5, 2
5, 1
6, 7
5, 6
8, 8
33, 30
68, 54
128, 104
245, 201
310, 288
400, 373
383, 377
330, 288
246, 182
154, 136
84, 52
53, 38
17, 20
9, 12
6, 9
3, 3
4, 2
3, 5
6, 4
4, 3
5, 4
4, 2
0, 2
2, 1
5, 5
5, 3
9, 9
12, 6
16, 18
16, 14
9, 13
18, 9
15, 12
7, 5
8, 6
6, 9
8, 9
12, 10
16, 20
44, 49
80, 87
114, 131
193, 175
204, 193
236, 193
284, 219
238, 189
242, 167
168, 125
128, 107
94, 59
80, 67
60, 45
53, 50
42, 42
40, 33
47, 43
38, 29
36, 29
37, 30
12, 23
30, 13
9, 17
10, 7
5, 3
4, 4
5, 6
2, 5
8, 3
8, 5
7, 7
11, 3
3, 7
3, 9
7, 5
4, 8
4, 2
6, 6
1, 5
7, 5
9, 9
11, 7
18, 19
27, 26
48, 50
74, 66
105, 90
118, 145
125, 112
155, 114
87, 97
87, 67
59, 46
42, 33
21, 11
13, 5
6, 4
9, 15
13, 6
15, 21
21, 22
17, 16
26, 24
26, 23
22, 14
21, 22
24, 8
14, 6
14, 14
13, 5
12, 16
18, 14
11, 10
13, 10
9, 8
16, 11
11, 8
7, 8
10, 10
12, 9
18, 17
22, 20
22, 14
22, 23
24, 29
26, 26
34, 24
28, 33
32, 41
31, 22
32, 47
27, 29
29, 24
18, 20
17, 7
13, 14
15, 17
15, 11
13, 12
13, 14
12, 18
16, 6
11, 12
15, 7
10, 21
17, 8
8, 18
18, 14
15, 14
12, 11
10, 16
14, 19
19, 16
13, 16
20, 12
14, 21
17, 24
23, 11
15, 23
17, 21
15, 12
22, 20
21, 14
9, 12
15, 11
18, 12
20, 14
18, 17
14, 13
16, 19
18, 20
17, 8
13, 18
18, 16
20, 21
25, 30
32, 29
58, 57
59, 77
110, 113
138, 114
146, 129
143, 122
127, 113
111, 83
100, 82
59, 49
45, 34
31, 30
33, 18
32, 30
35, 35
27, 37
53, 50
97, 112
201, 245
399, 411
714, 760
1225, 1366
1765, 2008
2533, 2681
3370, 3418
3971, 3695
4081, 3912
4011, 3348
3372, 2788
2603, 2089
1921, 1451
1243, 818
692, 494
380, 252
201, 124
95, 72
51, 33
38, 28
36, 23
26, 37
23, 30
35, 40
47, 34
34, 33
33, 41
56, 55
72, 86
105, 115
158, 148
244, 225
351, 331
452, 412
473, 462
581, 561
586, 532
525, 465
474, 397
365, 282
283, 189
162, 137
88, 61
48, 21
23, 19
14, 20
11, 9
8, 7
3, 2
3, 5
9, 6
6, 6
6, 8
3, 5
8, 10
2, 8
5, 7
6, 5
6, 8
5, 2
8, 3
2, 2
6, 8
3, 2
8, 3
2, 4
7, 4
5, 4
6, 3
3, 5
2, 3
4, 4
5, 5
4, 4
5, 6
8, 4
7, 4
3, 3
7, 3
7, 5
4, 3
9, 4
5, 1
4, 5
4, 6
13, 6
4, 3
3, 3
6, 4
4, 4
5, 7
7, 1
1, 6
6, 3
6, 3
5, 6
4, 2
5, 1
7, 2
6, 4
10, 5
2, 6
6, 6
8, 10
11, 4
6, 13
11, 6
6, 5
9, 5
9, 8
10, 3
7, 4
6, 5
2, 3
3, 4
6, 6
6, 5
4, 3
1, 4
12, 4
2, 3
7, 2
7, 5
1, 2
6, 4
3, 6
12, 6
7, 2
4, 5
3, 3
3, 10
5, 2
5, 2
7, 4
1, 5
3, 1
1, 2
4, 6
4, 5
6, 4
4, 1
6, 4
6, 2
4, 6
3, 4
3, 7
4, 3
9, 5
2, 4
6, 2
4, 4
6, 2
5, 5
8, 6
3, 7
6, 5
5, 4
3, 1
8, 2
2, 4
2, 5
7, 2
5, 4
3, 5
6, 1
8, 2
3, 4
5, 3
4, 1
5, 3
4, 2
1, 2
0, 5
4, 3
1, 3
5, 5
5, 1
3, 1
2, 0
7, 2
5, 3
2, 4
2, 5
1, 2
2, 4
2, 5
4, 3
4, 3
1, 6
4, 3
3, 1
2, 7
4, 3
6, 2
1, 3
4, 3
6, 4
3, 4
3, 2
2, 2
4, 3
3, 2
1, 0
3, 3
0, 4
5, 4
1, 2
4, 3
2, 3
5, 1
4, 6
2, 0
5, 4
0, 2
1, 0
1, 2
6, 4
2, 3
2, 3
2, 1
2, 3
2, 1
0, 6
5, 4
4, 1
2, 2
3, 1
2, 2
3, 3
0, 4
2, 2
6, 3
2, 1
2, 3
3, 3
2, 2
6, 3
2, 5
1, 2
4, 2
2, 1
1, 1
2, 0
1, 4
3, 2
2, 2
4, 5
4, 3
1, 1
3, 3
3, 3
1, 1
2, 2
2, 3
0, 1
6, 4
0, 3
3, 0
2, 3
3, 2
3, 2
2, 3
3, 2
4, 1
2, 3
2, 1
2, 2
3, 4
2, 1
3, 4
2, 3
8, 1
2, 5
7, 7
7, 7
6, 4
10, 5
9, 3
7, 11
11, 8
9, 5
7, 7
7, 4
3, 2
4, 4
3, 2
4, 1
3, 4
2, 3
0, 1
1, 3
3, 0
6, 0
3, 1
2, 2
2, 0
4, 2
3, 0
3, 1
3, 0
2, 2
2, 0
2, 3
1, 3
3, 1
0, 3
4, 1
4, 4
3, 2
2, 1
3, 3
1, 1
1, 1
1, 1
1, 2
2, 1
3, 3
0, 3
1, 3
2, 1
1, 1
2, 0
2, 2
0, 1
2, 1
3, 1
1, 0
4, 2
0, 2
1, 0
0, 1
0, 1
0, 0
0, 1
0, 4
3, 1
1, 0
3, 0
2, 1
2, 1
0, 0
1, 0
2, 0
0, 0
1, 0
2, 1
1, 0
1, 0
1, 1
0, 1
4, 2
1, 0
1, 1
1, 0
3, 1
0, 1
0, 0
0, 0
4, 0
1, 0
0, 2
2, 1
1, 1
0, 1
1, 0
0, 1
0, 1
1, 0
2, 0
0, 0
0, 0
2, 0
1, 0
0, 0
1, 1
0, 2
0, 1
2, 0
2, 0
0, 1
1, 1
1, 0
0, 0
1, 1
1, 3
0, 2
1, 0
0, 0
0, 0
0, 0
2, 1
0, 0
0, 1
1, 0
1, 2
1, 0
0, 1
0, 0
2, 0
0, 0
1, 1
0, 0
1, 1
1, 0
1, 0
0, 1
0, 0
0, 0
0, 0
1, 0
0, 0
0, 0
1, 1
1, 0
0, 0
0, 0
2, 0
0, 0
1, 0
1, 0
0, 2
0, 0
1, 1
0, 0
1, 1
1, 0
1, 1
2, 3
1, 0
0, 2
0, 1
1, 1
0, 0
1, 0
1, 0
0, 0
0, 1
0, 1
0, 0
1, 0
0, 1
1, 1
1, 0
0, 2
0, 0
0, 0
0, 0
0, 0
0, 0
0, 1
0, 1
0, 0
0, 0
1, 0
0, 0
0, 1
0, 0
1, 0
0, 0
0, 1
1, 0
0, 0
1, 1
0, 0
0, 0
0, 0
0, 0
0, 0
0, 0
0, 1
1, 0
1, 0
0, 1
0, 0
0, 1
0, 1
0, 0
0, 0
0, 0
1, 0
0, 0
0, 0
1, 1
1, 0
0, 0
0, 0
0, 0
0, 0
0, 0
0, 0
2, 1
0, 1
0, 0
0, 0
0, 0
0, 0
1, 0
3, 0
0, 0
0, 0
0, 0
0, 0
0, 1
0, 1
0, 0
1, 0
0, 0
0, 1
0, 0
1, 0
0, 0
0, 1
1, 0
0, 1
0, 1
0, 1
0, 0
0, 0
0, 0
1, 1
0, 0
0, 0
0, 0
0, 0
1, 0
2, 0
0, 1
0, 0
2, 0
0, 0
1, 0
0, 0
0, 0
1, 0
0, 0
0, 0
1, 0
1, 0
1, 0
0, 0
1, 0
0, 0
0, 0
1, 0
0, 0
0, 0
0, 0
0, 0
0, 0
1, 0
0, 0
0, 0
0, 1
0, 0
0, 0
0, 0
0, 0
1, 0
0, 0
1, 0
0, 1
0, 0
0, 0
0, 1
1, 1
0, 0
0, 0
0, 0
0, 0
0, 0
0, 1
1, 0
0, 0
1, 0
1, 0
0, 0
0, 0
0, 0
0, 0
0, 0
1, 0
0, 1
0, 0
0, 1
0, 0
0, 0
0, 1
1, 1
0, 0
0, 0
0, 0
1, 1
1, 0
0, 0
1, 0
1, 0
0, 0
0, 0
0, 0
1, 0
0, 0
1, 0
0, 0
0, 0
0, 0
0, 0
0, 0
0, 0
0, 0
0, 0
1, 0
0, 0
0, 0
0, 0
0, 0
0, 0
0, 0
0, 0
0, 0
0, 0
0, 0
0, 0
0, 0
1, 0
0, 2
0, 0
0, 0
0, 0
0, 0
0, 0
0, 0
0, 0
0, 0
0, 0
0, 0
0, 0
0, 0
0, 0
1, 0
0, 0
0, 0
0, 0
0, 0
0, 0
0, 0
0, 0
0, 1
0, 0
1, 1
0, 0
0, 0
0, 0
0, 1
0, 0
0, 0
0, 0
0, 0
0, 0
0, 0
0, 0
0, 1
0, 0
0, 0
0, 0
1, 0
0, 0
0, 0
0, 0
0, 0
0, 0
0, 0
0, 0
0, 0
0, 0
1, 0
0, 0
0, 0
0, 0
0, 0
0, 0
0, 0
0, 0
0, 0
0, 0
0, 0
0, 0
0, 0
0, 0
0, 0
0, 0
0, 0
0, 0
0, 0
0, 0
0, 0
0, 0
0, 0
0, 0
0, 0
0, 0
0, 0
0, 0
0, 0
0, 0
0, 0
0, 0
0, 0
0, 0
0, 0
1, 0
0, 0
0, 0
0, 0
0, 0
0, 0
0, 0
0, 0
0, 0
0, 0
0, 0
0, 0
0, 0
0, 0
0, 0
0, 0
0, 0
0, 0
0, 0
0, 0
0, 0
0, 0
0, 0
0, 0
0, 0
0, 0
0, 0
0, 0
0, 0
0, 0
0, 0
0, 0
0, 0
0, 0
0, 0
0, 0
0, 0
0, 0
0, 0
0, 0
0, 0
0, 0
0, 0
0, 0
0, 0
0, 0
0, 0
1, 0
0, 0
0, 0
0, 0
1, 0
0, 0
0, 0
0, 0
0, 0
0, 0
0, 0
0, 0
0, 0
0, 0
0, 0
0, 0
0, 0
0, 0
0, 0
0, 0
0, 0
0, 0
0, 0
0, 0
0, 0
0, 0
0, 0
0, 0
0, 0
0, 0
0, 0
0, 0
0, 0
0, 0
0, 0
0, 0
0, 0
0, 0
0, 0
0, 0
0, 0
0, 0
0, 0
0, 0
0, 0
0, 0
0, 0
0, 0
0, 0
0, 0
0, 0
0, 0
1, 0
0, 0
0, 0
0, 0
0, 0
0, 0
0, 0
0, 0
0, 0
0, 0
0, 0
0, 0
0, 0
0, 0
0, 0
0, 0
0, 0
0, 0
0, 0
0, 0
0, 0
0, 0
0, 0
0, 0
0, 0
0, 0
0, 0
0, 0
0, 0
0, 0
0, 0
0, 0
0, 0
0, 0
0, 0
0, 0
0, 0
0, 0
0, 0
0, 0
0, 0
0, 0
0, 0
0, 0
0, 0
0, 0
0, 0
0, 0
0, 0
0, 0
0, 0
0, 0
0, 0
0, 0
0, 0
0, 0
0, 0
0, 0
0, 0
0, 0
0, 0
0, 0
0, 0
0, 0
0, 0
0, 0
0, 0
0, 0
0, 0
0, 0
0, 0
0, 0
0, 0
0, 0
0, 0
0, 0
0, 0
0, 0
0, 0
0, 0
0, 0
0, 0
0, 0
0, 0
0, 0
0, 0
0, 0
0, 0
0, 0
0, 0
0, 0
0, 0
0, 0
0, 0
0, 0
0, 0
0, 0
0, 0
0, 0
0, 0
0, 0
0, 0
0, 0
0, 0
0, 0
0, 0
0, 0
0, 0
0, 0
0, 0
0, 0
0, 0
0, 0
0, 0
0, 0
0, 0
0, 0
0, 0
0, 0
0, 0
0, 0
0, 0
0, 0
0, 0
0, 0
0, 0
0, 0
0, 0
0, 0
0, 0
0, 0
0, 0
0, 0
0, 0
0, 0
0, 0
0, 0
0, 0
0, 0
0, 0
0, 0
0, 0
0, 0
0, 0
0, 0
0, 0
0, 0
0, 0
0, 0
0, 0
0, 0
0, 0
0, 0
0, 0
0, 0
0, 0
0, 0
0, 0
0, 0
0, 0
0, 0
0, 0
0, 0
0, 0
0, 0
0, 0
0, 0
0, 0
0, 0
0, 0
0, 0
0, 0
0, 0
0, 0
0, 0
0, 0
0, 0
0, 0
0, 0
0, 0
0, 0
0, 0
0, 0
0, 0
0, 0
0, 0
0, 0
0, 0
0, 0
0, 0
0, 0
0, 0
0, 0
0, 0
0, 0
0, 0
0, 0
0, 0
0, 0
0, 0
0, 0
0, 0
0, 0
0, 0
0, 0
0, 0
0, 0
0, 0
0, 0
0, 0
0, 0
0, 0
0, 0
0, 0
0, 0
0, 0
0, 0
0, 0
0, 0
0, 0
0, 0
0, 0
0, 0
0, 0
0, 0
0, 0
0, 0
0, 0
0, 0
0, 0
0, 0
0, 0
0, 0
0, 0
0, 0
0, 0
0, 0
0, 0
0, 0
0, 0
0, 0
0, 0
0, 0
0, 0
0, 0
0, 0
0, 0
0, 0
0, 0
0, 0
0, 0
0, 0
0, 0
0, 0
0, 0
0, 0
0, 0
0, 0
0, 0
0, 0
0, 0
0, 0
0, 0
0, 0
0, 0
0, 0
0, 0
0, 0
0, 0
0, 0
0, 0
0, 0
0, 0
0, 0
0, 0
0, 0
0, 0
0, 0
0, 0
0, 0
0, 0
0, 0
0, 0
0, 0
0, 0
0, 0
0, 0
0, 0
0, 0
0, 0
0, 0
0, 0
0, 0
0, 0
#ENDOFDATA     end of spectrum data