File: host_upload/12-01-2023/Dourbes (shot-by-shot)/upload_4/ps__0257_0689790785_000rfs_shot_3315.msa
#FORMAT      : EMSA/MAS spectral data file
#VERSION     : TC202v2.0 PIXL
#TITLE       : N/A
#DATE        :       Date in the format DD-MMM-YYYY, for example 07-JUL-2010
#TIME        :             The time of day at which the spectrum was recorded, in 24-hour format
#OWNER       : PIXL Flight Model       (PIXL will use this to indicate which instrument took the data.)
#NPOINTS     : 4096     Number of data points in the spectrum (This can be zero for configuration only files)
#NCOLUMNS    : 2     Number of data columns in the spectrum (This can be zero for configuration only files)
#XUNITS      : eV
#YUNITS      : COUNTS
#DATATYPE    : YY
#XPERCHAN    : 7.862, 7.881   eV per channel (separate by commas if more than one detector)
#OFFSET      : 18.5, -22.4         eV of first channel  (separate by commas if more than one detector
#SIGNALTYPE  : XRF
#YP_TEMP     : 3.037
#LIVETIME    : 9.14862, 9.13868   seconds (separate by commas if more than one detector)
#REALTIME    : 10, 10.0   seconds (separate by commas if more than one detector)
#SPECTRUM    : start of spectrum data
0, 0
0, 0
0, 0
0, 0
0, 0
0, 0
0, 0
0, 0
0, 0
0, 0
0, 0
0, 0
0, 0
0, 0
0, 0
0, 0
0, 0
0, 0
0, 0
0, 0
0, 0
0, 0
0, 0
0, 0
0, 0
0, 0
0, 0
0, 0
0, 0
0, 0
0, 0
1, 0
0, 0
0, 1
0, 0
0, 1
0, 0
0, 1
3, 1
0, 1
3, 1
0, 2
1, 3
2, 0
1, 1
0, 2
1, 0
3, 2
2, 4
6, 3
15, 16
19, 24
35, 33
33, 49
51, 44
36, 42
34, 30
17, 28
7, 14
4, 10
5, 9
8, 7
10, 7
9, 12
8, 8
11, 13
12, 15
18, 11
26, 26
55, 62
145, 142
302, 286
515, 542
785, 746
891, 944
860, 929
749, 787
545, 505
314, 309
185, 195
110, 104
46, 52
23, 27
12, 19
23, 18
9, 26
12, 8
4, 3
4, 3
5, 4
1, 3
2, 1
2, 2
1, 6
4, 3
9, 8
2, 11
7, 9
12, 9
16, 14
11, 9
4, 4
5, 4
3, 3
4, 8
5, 4
3, 3
4, 6
9, 7
10, 7
16, 22
22, 29
41, 25
42, 33
39, 39
27, 36
35, 38
40, 26
23, 22
31, 19
23, 18
20, 17
24, 19
19, 19
12, 10
12, 15
9, 14
14, 6
12, 10
10, 8
10, 5
2, 4
3, 9
5, 3
4, 1
2, 4
3, 5
3, 3
2, 6
4, 2
5, 1
6, 1
2, 3
4, 4
3, 1
4, 2
9, 2
5, 5
10, 7
22, 24
45, 55
96, 118
218, 240
364, 402
598, 685
868, 963
1051, 1181
1148, 1208
1072, 1145
950, 917
641, 611
432, 402
229, 217
116, 111
55, 56
46, 43
41, 68
80, 80
108, 107
132, 129
166, 176
183, 197
142, 164
136, 120
97, 69
60, 61
33, 27
18, 11
9, 5
4, 8
4, 2
3, 3
0, 5
0, 3
2, 2
3, 3
3, 8
4, 15
22, 23
21, 27
22, 37
30, 46
36, 29
24, 27
22, 29
22, 19
23, 22
21, 10
10, 9
6, 12
7, 10
8, 1
8, 3
2, 3
4, 1
2, 2
7, 9
4, 11
7, 10
10, 14
9, 8
4, 12
7, 9
11, 7
9, 5
10, 5
6, 5
3, 3
3, 5
1, 5
3, 5
3, 8
8, 7
4, 6
11, 8
13, 25
25, 23
32, 31
45, 28
36, 46
60, 48
40, 43
40, 31
30, 33
17, 29
15, 19
11, 13
13, 7
8, 6
6, 5
6, 9
5, 5
4, 8
2, 5
9, 8
9, 13
13, 23
31, 19
34, 42
41, 47
42, 45
42, 37
50, 41
35, 29
26, 25
22, 33
15, 12
17, 14
14, 8
10, 17
9, 18
11, 19
16, 21
23, 33
61, 84
101, 134
212, 284
349, 431
573, 635
739, 889
986, 1090
1184, 1226
1245, 1261
1176, 1149
987, 900
800, 658
542, 422
349, 255
214, 156
120, 68
75, 45
43, 25
24, 11
21, 9
6, 7
10, 8
8, 7
10, 14
5, 6
9, 9
16, 14
12, 14
22, 26
25, 35
41, 66
54, 74
104, 118
117, 168
163, 198
166, 196
156, 189
185, 148
150, 147
95, 100
68, 58
56, 46
37, 16
15, 22
15, 9
19, 2
12, 6
18, 4
22, 5
28, 3
30, 6
36, 5
38, 5
43, 5
40, 7
26, 9
22, 4
13, 6
18, 4
12, 5
7, 5
9, 2
4, 5
3, 3
4, 7
6, 5
5, 5
9, 7
7, 5
3, 5
4, 2
3, 11
1, 6
6, 4
2, 4
6, 0
7, 8
2, 6
10, 7
8, 7
7, 5
4, 4
3, 5
6, 8
5, 7
3, 4
3, 7
6, 6
8, 7
5, 5
10, 7
7, 13
3, 15
6, 15
9, 10
5, 12
4, 10
5, 17
5, 9
6, 7
8, 0
6, 7
8, 7
4, 4
6, 6
7, 7
9, 3
4, 4
4, 5
8, 6
3, 1
5, 0
1, 3
2, 7
6, 0
5, 5
4, 0
6, 5
6, 3
5, 4
3, 2
5, 4
4, 7
4, 7
6, 8
2, 5
5, 11
7, 8
3, 14
4, 7
3, 11
4, 8
4, 10
2, 8
3, 9
3, 6
7, 5
4, 6
6, 3
3, 6
2, 5
5, 3
5, 9
4, 8
2, 5
3, 8
1, 5
5, 13
3, 22
5, 20
1, 20
1, 15
3, 13
4, 11
4, 8
5, 14
0, 8
4, 4
8, 5
6, 4
4, 1
5, 1
7, 4
15, 0
11, 3
10, 6
8, 2
3, 3
5, 0
2, 1
5, 2
4, 4
5, 3
4, 1
1, 3
3, 1
5, 2
3, 0
2, 3
1, 0
2, 5
0, 2
3, 3
3, 5
4, 3
6, 3
4, 4
4, 0
3, 3
0, 2
3, 6
3, 4
2, 5
2, 1
5, 5
5, 5
4, 2
3, 2
4, 4
5, 4
11, 2
4, 4
3, 3
7, 3
5, 1
3, 3
4, 2
2, 4
1, 2
1, 4
2, 1
1, 1
1, 2
4, 3
1, 0
3, 3
1, 3
3, 4
3, 4
2, 6
3, 3
1, 3
4, 3
1, 4
3, 4
1, 4
3, 3
3, 3
3, 6
5, 1
7, 2
2, 5
6, 3
7, 1
3, 2
3, 1
3, 0
5, 3
1, 1
2, 3
5, 3
3, 2
2, 1
3, 1
5, 0
2, 3
5, 4
4, 3
6, 2
11, 4
4, 2
6, 0
2, 2
4, 7
7, 1
5, 3
5, 6
5, 0
1, 0
3, 0
1, 4
2, 1
2, 1
1, 0
1, 0
2, 1
0, 2
0, 2
4, 4
3, 2
1, 1
2, 2
0, 2
0, 1
2, 1
0, 2
3, 0
2, 3
0, 1
3, 1
0, 0
0, 1
1, 1
2, 0
1, 0
5, 0
2, 3
2, 1
5, 1
1, 3
2, 1
1, 4
2, 2
1, 1
2, 3
4, 3
2, 0
2, 1
3, 2
2, 3
4, 2
2, 1
1, 0
3, 4
1, 1
2, 2
1, 3
1, 0
1, 0
2, 3
1, 1
2, 1
1, 0
1, 2
0, 0
1, 2
2, 1
3, 1
2, 0
0, 0
1, 0
0, 0
1, 1
5, 1
2, 1
4, 0
1, 3
4, 1
1, 3
2, 2
0, 2
0, 2
1, 1
3, 2
1, 0
1, 1
1, 1
0, 1
2, 1
1, 1
3, 2
3, 0
1, 2
0, 2
1, 1
0, 0
3, 0
2, 0
1, 1
2, 2
1, 0
3, 1
1, 2
1, 1
1, 1
2, 0
0, 1
2, 1
2, 1
0, 1
1, 0
1, 2
1, 0
1, 1
2, 0
2, 3
1, 1
0, 0
0, 0
1, 1
0, 0
0, 1
0, 4
0, 1
3, 2
0, 4
0, 0
1, 1
0, 0
1, 0
0, 0
0, 0
1, 0
0, 0
0, 1
1, 0
0, 1
0, 1
1, 1
0, 0
0, 0
2, 1
0, 0
0, 1
0, 1
0, 2
0, 0
2, 0
0, 1
1, 0
0, 1
0, 0
0, 0
0, 1
1, 1
0, 2
0, 0
2, 1
1, 3
1, 0
0, 0
0, 0
0, 0
0, 0
0, 1
0, 0
0, 2
1, 0
0, 0
0, 0
2, 0
3, 0
2, 0
0, 0
0, 0
0, 0
0, 0
0, 0
0, 0
1, 0
2, 0
1, 0
0, 0
2, 1
0, 1
0, 0
0, 0
0, 1
1, 0
1, 0
2, 0
1, 1
0, 0
0, 0
0, 1
0, 0
1, 0
2, 0
1, 0
0, 1
1, 0
0, 0
0, 1
1, 0
0, 0
0, 0
0, 0
0, 1
1, 0
0, 1
0, 0
0, 1
0, 0
0, 0
0, 0
0, 0
0, 0
1, 0
0, 0
0, 0
0, 0
0, 1
0, 0
0, 0
0, 0
0, 1
0, 0
2, 0
0, 0
0, 2
1, 0
0, 0
1, 1
0, 0
0, 0
0, 0
0, 1
0, 0
0, 0
0, 0
0, 1
0, 0
0, 0
0, 0
0, 0
0, 1
0, 1
0, 0
1, 0
1, 0
0, 0
0, 0
0, 0
0, 0
0, 0
1, 1
0, 0
0, 0
0, 0
0, 1
0, 0
0, 0
0, 0
1, 0
0, 0
1, 0
1, 0
0, 0
0, 1
0, 0
1, 0
0, 0
0, 0
0, 0
0, 0
1, 0
0, 0
0, 0
0, 1
1, 0
1, 0
0, 0
0, 0
0, 0
0, 1
2, 0
0, 0
0, 0
0, 0
0, 0
0, 0
0, 0
1, 0
0, 1
0, 0
0, 0
0, 0
0, 0
0, 1
0, 0
0, 0
0, 0
0, 0
0, 0
0, 1
0, 0
0, 0
0, 0
0, 0
0, 0
0, 0
0, 2
0, 0
0, 0
1, 0
1, 0
0, 0
0, 0
0, 1
0, 1
0, 0
0, 1
0, 0
0, 0
0, 0
0, 0
0, 0
0, 0
0, 1
0, 0
0, 1
0, 0
0, 0
0, 1
0, 0
0, 0
0, 0
0, 0
0, 0
0, 0
0, 1
0, 0
0, 0
0, 0
0, 0
0, 0
0, 0
0, 0
0, 0
0, 1
0, 0
0, 1
0, 0
0, 0
0, 0
0, 1
0, 0
0, 0
0, 1
0, 0
0, 0
0, 0
0, 0
0, 1
0, 0
0, 0
0, 0
0, 0
0, 1
0, 0
0, 0
0, 1
0, 0
0, 0
0, 0
0, 0
0, 0
0, 0
1, 0
0, 0
0, 0
0, 0
0, 0
0, 0
0, 0
0, 0
1, 1
0, 0
0, 0
0, 0
0, 0
0, 0
0, 0
0, 0
0, 0
0, 0
0, 0
0, 0
0, 0
0, 0
0, 0
0, 0
0, 0
0, 0
0, 0
1, 0
0, 0
0, 0
0, 0
0, 0
1, 0
0, 0
0, 0
0, 0
0, 0
0, 0
0, 0
0, 0
0, 0
0, 0
0, 0
0, 0
0, 0
0, 0
0, 0
0, 0
0, 0
0, 0
0, 0
1, 0
0, 0
0, 0
0, 0
0, 0
0, 0
0, 0
0, 0
0, 0
0, 0
0, 0
0, 0
0, 0
0, 0
0, 0
0, 0
0, 0
0, 0
0, 0
0, 0
0, 0
0, 0
0, 0
0, 0
0, 0
0, 0
0, 0
0, 0
0, 0
0, 0
0, 0
0, 0
0, 0
0, 0
0, 0
0, 0
0, 0
0, 0
0, 0
0, 0
0, 0
0, 0
0, 0
0, 0
0, 0
0, 0
0, 0
0, 0
0, 0
0, 0
0, 0
0, 0
0, 0
0, 0
0, 0
0, 0
0, 0
0, 0
0, 0
0, 0
0, 0
0, 0
0, 0
0, 0
0, 0
0, 0
0, 0
0, 0
0, 0
0, 0
0, 0
0, 0
0, 0
0, 0
0, 0
0, 0
0, 0
0, 0
0, 0
0, 0
0, 0
0, 0
0, 0
0, 0
0, 0
0, 0
0, 0
0, 0
0, 0
0, 0
0, 0
0, 0
0, 0
0, 0
0, 0
0, 0
0, 0
0, 0
0, 0
0, 0
0, 0
0, 0
0, 0
0, 0
0, 0
0, 0
0, 0
0, 0
0, 0
0, 0
0, 0
0, 0
0, 0
0, 0
0, 0
0, 0
0, 0
0, 0
0, 0
0, 0
0, 0
0, 0
0, 0
0, 0
0, 0
0, 0
0, 0
0, 0
0, 0
0, 0
0, 0
0, 0
0, 0
0, 0
0, 0
0, 0
0, 0
0, 0
0, 0
0, 0
0, 0
0, 0
0, 0
0, 0
0, 0
0, 0
0, 0
0, 0
0, 0
0, 0
0, 0
0, 0
0, 0
0, 0
0, 0
0, 0
0, 0
0, 0
0, 0
0, 0
0, 0
0, 0
0, 0
0, 0
0, 0
0, 0
0, 0
0, 0
0, 0
0, 0
0, 0
0, 0
0, 0
0, 0
0, 0
0, 0
0, 0
0, 0
0, 0
0, 0
0, 0
0, 0
0, 0
0, 0
0, 0
0, 0
0, 0
0, 0
0, 0
0, 0
0, 0
0, 0
0, 0
0, 0
0, 0
0, 0
0, 0
0, 0
0, 0
0, 0
0, 0
0, 0
0, 0
0, 0
0, 0
0, 0
0, 0
0, 0
0, 0
0, 0
0, 0
0, 0
0, 0
0, 0
0, 0
0, 0
0, 0
0, 0
0, 0
0, 0
0, 0
0, 0
0, 0
0, 0
0, 0
0, 0
0, 0
0, 0
0, 0
0, 0
0, 0
0, 0
0, 0
0, 0
0, 0
0, 0
0, 0
0, 0
0, 0
0, 0
0, 0
0, 0
0, 0
0, 0
0, 0
0, 0
0, 0
0, 0
0, 0
0, 0
0, 0
0, 0
0, 0
0, 0
0, 0
0, 0
0, 0
0, 0
0, 0
0, 0
0, 0
0, 0
0, 0
0, 0
0, 0
0, 0
0, 0
0, 0
0, 0
0, 0
0, 0
0, 0
0, 0
0, 0
0, 0
0, 0
0, 0
0, 0
0, 0
0, 0
0, 0
0, 0
0, 0
0, 0
0, 0
0, 0
0, 0
0, 0
0, 0
0, 0
0, 0
0, 0
0, 0
0, 0
0, 0
0, 0
0, 0
0, 0
0, 0
0, 0
0, 0
0, 0
0, 0
0, 0
0, 0
0, 0
0, 0
0, 0
0, 0
0, 0
0, 0
0, 0
0, 0
0, 0
0, 0
0, 0
0, 0
0, 0
0, 0
0, 0
0, 0
0, 0
0, 0
0, 0
0, 0
0, 0
0, 0
0, 0
0, 0
0, 0
0, 0
0, 0
0, 0
0, 0
0, 0
0, 0
0, 0
0, 0
0, 0
0, 0
0, 0
0, 0
0, 0
0, 0
0, 0
0, 0
0, 0
0, 0
0, 0
0, 0
0, 0
0, 0
0, 0
0, 0
0, 0
0, 0
0, 0
0, 0
0, 0
0, 0
0, 0
0, 0
0, 0
0, 0
0, 0
0, 0
0, 0
0, 0
0, 0
0, 0
0, 0
0, 0
0, 0
0, 0
0, 0
0, 0
0, 0
0, 0
0, 0
0, 0
0, 0
0, 0
0, 0
0, 0
0, 0
0, 0
0, 0
0, 0
0, 0
0, 0
0, 0
0, 0
0, 0
0, 0
0, 0
0, 0
0, 0
0, 0
0, 0
0, 0
0, 0
0, 0
0, 0
0, 0
0, 0
0, 0
0, 0
0, 0
0, 0
0, 0
0, 0
0, 0
0, 0
0, 0
0, 0
0, 0
0, 0
0, 0
0, 0
0, 0
0, 0
0, 0
0, 0
#ENDOFDATA     end of spectrum data