File: host_upload/12-01-2023/Dourbes (shot-by-shot)/upload_4/ps__0257_0689790785_000rfs_shot_3039.msa
#FORMAT      : EMSA/MAS spectral data file
#VERSION     : TC202v2.0 PIXL
#TITLE       : N/A
#DATE        :       Date in the format DD-MMM-YYYY, for example 07-JUL-2010
#TIME        :             The time of day at which the spectrum was recorded, in 24-hour format
#OWNER       : PIXL Flight Model       (PIXL will use this to indicate which instrument took the data.)
#NPOINTS     : 4096     Number of data points in the spectrum (This can be zero for configuration only files)
#NCOLUMNS    : 2     Number of data columns in the spectrum (This can be zero for configuration only files)
#XUNITS      : eV
#YUNITS      : COUNTS
#DATATYPE    : YY
#XPERCHAN    : 7.862, 7.881   eV per channel (separate by commas if more than one detector)
#OFFSET      : 18.5, -22.4         eV of first channel  (separate by commas if more than one detector
#SIGNALTYPE  : XRF
#YP_TEMP     : 3.198
#LIVETIME    : 9.00558, 9.00582   seconds (separate by commas if more than one detector)
#REALTIME    : 10, 10.0   seconds (separate by commas if more than one detector)
#SPECTRUM    : start of spectrum data
0, 0
0, 0
0, 0
0, 0
0, 0
0, 0
0, 0
0, 0
0, 0
0, 0
0, 0
0, 0
0, 0
0, 0
0, 0
0, 0
0, 0
0, 0
0, 0
0, 0
0, 0
0, 0
0, 0
0, 0
0, 0
0, 0
0, 0
0, 0
0, 0
0, 0
0, 0
0, 0
0, 0
0, 0
0, 0
0, 1
1, 0
3, 3
0, 3
2, 1
2, 2
2, 2
2, 3
6, 1
2, 3
1, 1
2, 1
1, 2
8, 5
10, 10
14, 8
27, 16
25, 28
50, 36
55, 40
36, 40
36, 26
27, 28
10, 6
5, 9
0, 4
1, 3
3, 1
5, 4
5, 4
9, 8
4, 6
9, 4
12, 13
28, 21
74, 65
140, 141
234, 224
329, 297
425, 382
449, 380
370, 330
291, 223
174, 164
96, 74
56, 32
17, 20
17, 7
3, 8
4, 4
3, 4
3, 7
5, 1
1, 3
1, 2
2, 1
4, 5
6, 1
17, 8
12, 8
20, 23
28, 24
44, 31
58, 42
28, 42
39, 27
30, 25
23, 20
11, 14
9, 7
12, 12
6, 15
26, 15
29, 44
62, 58
78, 82
144, 119
151, 136
167, 161
184, 183
181, 146
149, 146
128, 110
89, 90
70, 50
54, 42
54, 46
52, 46
40, 45
40, 29
50, 37
39, 23
26, 25
32, 27
27, 22
21, 10
13, 16
12, 9
6, 2
2, 3
5, 6
2, 2
5, 7
4, 2
3, 12
4, 9
6, 5
5, 3
6, 5
7, 3
6, 2
6, 4
4, 5
6, 5
5, 6
8, 10
15, 12
29, 32
56, 59
66, 70
106, 113
118, 156
128, 135
136, 130
97, 132
97, 75
67, 38
28, 23
18, 15
8, 13
6, 6
15, 4
8, 17
19, 19
21, 21
19, 22
37, 23
29, 25
24, 17
16, 21
15, 15
16, 14
16, 18
14, 14
10, 15
8, 6
8, 4
4, 8
8, 7
8, 11
7, 9
7, 9
12, 12
9, 13
12, 15
13, 24
22, 16
17, 14
26, 15
21, 22
26, 30
32, 13
32, 37
33, 33
32, 32
19, 24
26, 15
20, 13
14, 13
9, 13
14, 13
20, 12
10, 13
13, 19
16, 13
20, 13
20, 8
12, 17
10, 17
15, 10
14, 15
19, 11
16, 17
25, 15
17, 17
7, 14
12, 13
13, 14
12, 16
16, 16
21, 14
16, 24
13, 18
25, 15
18, 22
5, 18
12, 12
3, 21
11, 24
17, 22
15, 24
7, 11
19, 17
15, 14
14, 17
12, 20
13, 23
13, 10
20, 24
26, 22
34, 45
40, 48
71, 76
76, 91
108, 112
112, 106
111, 116
90, 102
104, 85
94, 68
48, 51
34, 31
24, 30
30, 20
21, 17
21, 26
29, 41
46, 54
75, 108
173, 224
315, 334
556, 714
983, 1241
1552, 1845
2247, 2520
2910, 3142
3477, 3581
3768, 3518
3436, 3238
2982, 2641
2382, 1851
1688, 1319
1113, 822
687, 453
325, 231
164, 134
105, 71
51, 41
30, 28
21, 20
31, 26
31, 21
29, 32
36, 26
38, 32
51, 40
38, 51
66, 84
95, 132
137, 161
210, 250
294, 301
365, 419
488, 490
526, 491
507, 523
466, 405
373, 377
327, 258
227, 178
174, 106
86, 65
49, 28
26, 20
13, 15
10, 9
7, 10
5, 4
3, 3
6, 2
10, 10
11, 11
10, 7
4, 7
6, 4
11, 8
7, 10
12, 6
10, 5
12, 3
8, 5
5, 5
2, 4
2, 7
4, 4
2, 5
1, 2
6, 5
2, 5
3, 4
9, 6
6, 8
6, 5
5, 9
5, 8
1, 6
7, 5
7, 8
6, 7
1, 10
7, 3
7, 9
8, 6
7, 4
5, 4
8, 6
8, 3
7, 6
5, 4
9, 9
10, 2
5, 10
2, 5
5, 8
4, 5
1, 2
5, 3
8, 6
7, 3
6, 2
12, 14
7, 5
7, 7
9, 8
11, 5
4, 8
8, 9
9, 8
6, 4
10, 9
3, 1
9, 9
4, 4
7, 2
3, 4
5, 3
1, 3
5, 7
3, 6
8, 6
8, 3
3, 2
4, 3
6, 4
5, 12
1, 3
6, 5
6, 4
4, 3
6, 4
1, 13
7, 3
5, 4
5, 2
2, 5
5, 0
0, 3
10, 2
6, 6
6, 8
6, 5
9, 3
7, 4
8, 6
6, 9
3, 4
1, 6
9, 3
4, 3
3, 6
0, 3
7, 3
7, 6
5, 0
2, 4
0, 4
6, 5
1, 8
7, 4
2, 4
7, 5
9, 3
8, 1
5, 3
4, 1
2, 4
6, 5
2, 2
3, 3
4, 6
0, 7
3, 2
4, 4
2, 2
5, 3
4, 2
5, 2
6, 2
0, 5
1, 1
4, 2
9, 5
1, 0
4, 4
3, 5
6, 4
3, 2
4, 2
6, 3
0, 5
1, 4
3, 4
4, 5
4, 3
1, 5
3, 2
5, 1
5, 2
2, 2
5, 3
5, 0
1, 1
2, 1
4, 4
6, 4
2, 5
4, 0
4, 2
4, 2
0, 2
2, 3
3, 5
1, 3
6, 2
6, 4
1, 3
1, 2
3, 1
0, 0
0, 3
4, 2
2, 4
2, 4
3, 2
0, 2
3, 4
5, 0
4, 1
1, 5
3, 2
0, 2
5, 2
3, 2
2, 2
1, 5
1, 6
6, 4
3, 3
3, 1
4, 2
3, 4
1, 2
3, 2
2, 3
1, 1
3, 3
2, 5
4, 4
1, 0
2, 1
1, 3
2, 1
0, 2
2, 2
2, 3
0, 3
5, 1
3, 1
0, 3
0, 2
2, 2
3, 1
0, 0
2, 2
4, 3
1, 3
1, 2
7, 2
1, 0
1, 3
4, 3
4, 7
3, 7
7, 8
7, 5
3, 8
6, 17
6, 6
3, 5
7, 7
5, 2
6, 4
7, 6
6, 4
6, 3
1, 2
2, 1
4, 3
3, 0
0, 0
1, 0
3, 3
1, 3
0, 1
0, 3
2, 1
0, 0
5, 2
3, 3
3, 2
2, 2
3, 2
2, 2
5, 1
3, 2
4, 0
2, 4
2, 0
5, 0
1, 2
4, 4
2, 0
3, 1
0, 1
3, 3
0, 1
1, 0
1, 0
0, 1
0, 1
2, 3
2, 2
1, 0
3, 0
2, 1
2, 0
1, 0
1, 2
0, 2
2, 1
3, 0
2, 1
0, 3
0, 0
0, 1
2, 2
2, 2
1, 1
0, 2
3, 3
5, 0
0, 0
2, 0
0, 2
1, 0
2, 0
2, 1
1, 0
0, 0
0, 2
0, 0
0, 1
3, 2
1, 2
1, 0
1, 2
1, 0
0, 1
0, 1
3, 0
0, 1
1, 4
1, 1
1, 1
0, 0
1, 0
2, 1
0, 1
2, 0
0, 3
1, 0
1, 0
0, 0
0, 0
1, 1
1, 1
4, 2
1, 1
0, 1
1, 0
0, 1
0, 1
0, 0
0, 1
1, 0
2, 1
0, 0
1, 2
1, 1
0, 1
1, 0
2, 1
1, 1
1, 1
2, 1
1, 0
0, 0
0, 1
1, 1
0, 0
2, 1
0, 1
0, 1
0, 0
0, 0
0, 0
1, 0
0, 2
1, 1
1, 0
0, 0
0, 0
0, 0
0, 0
0, 0
0, 1
0, 1
1, 0
0, 0
0, 2
0, 0
0, 1
0, 0
0, 1
1, 0
0, 0
0, 1
0, 0
0, 0
0, 0
0, 0
2, 0
1, 1
1, 0
1, 0
0, 0
0, 0
0, 0
1, 1
0, 1
1, 0
0, 0
0, 0
0, 2
0, 1
1, 0
0, 0
1, 0
0, 0
1, 0
0, 0
0, 0
0, 0
1, 0
0, 2
1, 0
2, 0
0, 0
0, 1
0, 0
0, 0
0, 0
2, 0
0, 0
0, 0
1, 0
0, 1
0, 0
0, 0
0, 0
0, 1
0, 0
0, 0
1, 0
0, 0
1, 0
0, 1
0, 0
0, 1
0, 2
0, 0
0, 0
1, 0
0, 1
0, 0
0, 0
0, 0
0, 0
1, 0
1, 0
0, 1
1, 0
0, 0
0, 0
0, 0
1, 0
0, 0
0, 3
0, 1
0, 0
0, 0
0, 0
0, 0
0, 0
1, 0
1, 1
0, 0
1, 0
1, 0
0, 0
0, 1
1, 0
0, 1
0, 0
0, 0
0, 1
0, 0
0, 0
0, 0
0, 0
0, 0
0, 0
0, 1
0, 0
0, 0
0, 0
0, 0
0, 0
0, 0
0, 0
0, 0
0, 0
0, 0
1, 1
0, 0
0, 0
0, 1
0, 0
0, 0
0, 0
0, 2
0, 0
0, 0
0, 0
0, 0
0, 0
0, 0
0, 0
0, 0
0, 1
0, 0
1, 0
0, 0
0, 0
0, 0
0, 0
0, 0
0, 0
0, 0
1, 0
0, 0
0, 0
0, 0
0, 0
1, 0
0, 0
0, 0
0, 0
0, 0
0, 0
0, 0
0, 0
0, 0
0, 0
0, 0
0, 0
1, 0
0, 0
0, 0
0, 0
1, 0
1, 0
0, 0
0, 0
1, 0
0, 0
1, 0
0, 0
0, 0
0, 0
0, 0
1, 0
0, 0
1, 0
0, 0
0, 0
0, 0
1, 0
0, 0
0, 0
0, 0
1, 0
0, 0
0, 0
2, 0
0, 0
0, 0
0, 0
0, 0
0, 0
0, 0
0, 0
0, 0
0, 0
0, 0
0, 1
0, 0
0, 0
0, 0
0, 0
0, 0
0, 0
0, 0
0, 0
0, 0
0, 0
0, 0
0, 0
0, 0
0, 0
0, 0
0, 0
0, 0
0, 0
0, 0
0, 0
0, 0
0, 0
0, 0
0, 0
0, 0
0, 0
1, 0
0, 0
0, 0
0, 0
0, 0
0, 1
0, 0
0, 0
0, 0
0, 0
0, 0
0, 0
0, 0
0, 0
0, 0
0, 0
0, 0
0, 0
0, 0
0, 0
0, 1
0, 0
0, 0
0, 0
0, 0
0, 0
0, 0
0, 0
0, 0
0, 0
0, 0
0, 0
0, 0
0, 0
0, 0
0, 0
0, 0
0, 0
0, 0
0, 0
0, 0
0, 0
0, 0
0, 0
0, 0
0, 0
0, 0
0, 0
0, 0
0, 0
0, 0
0, 0
0, 0
0, 0
0, 0
1, 0
0, 0
0, 0
0, 0
0, 0
0, 0
0, 0
0, 0
0, 2
1, 0
0, 0
0, 0
0, 0
0, 0
0, 0
0, 0
0, 0
0, 0
0, 0
0, 0
1, 0
0, 0
0, 0
0, 0
0, 0
0, 0
0, 0
0, 0
0, 0
0, 0
0, 0
0, 0
0, 0
0, 0
0, 0
0, 0
0, 0
0, 0
0, 0
0, 0
0, 0
0, 0
0, 0
0, 0
0, 0
0, 0
0, 0
0, 0
0, 0
0, 0
0, 0
0, 0
0, 0
0, 0
0, 0
0, 0
0, 0
0, 0
0, 0
0, 0
0, 0
0, 0
0, 0
0, 0
0, 1
0, 0
0, 0
0, 0
0, 0
0, 0
0, 0
0, 0
0, 0
0, 0
0, 0
0, 0
0, 0
0, 0
0, 0
0, 0
0, 0
0, 0
0, 0
0, 0
0, 0
0, 0
0, 0
0, 0
0, 0
0, 0
0, 0
0, 0
0, 0
0, 0
0, 0
0, 0
0, 0
0, 0
0, 0
0, 0
0, 0
0, 0
0, 0
0, 0
0, 0
0, 0
0, 0
0, 0
0, 0
0, 0
0, 0
0, 0
0, 0
0, 0
0, 0
0, 0
0, 0
0, 0
0, 0
0, 0
0, 0
0, 0
0, 0
0, 0
0, 0
0, 0
0, 0
0, 0
0, 0
0, 0
0, 0
0, 0
0, 0
0, 0
0, 0
0, 0
0, 0
0, 0
0, 0
0, 0
0, 0
0, 0
0, 0
0, 0
0, 0
0, 0
0, 0
0, 0
0, 0
0, 0
0, 0
0, 0
0, 0
0, 0
0, 0
0, 0
0, 0
0, 0
0, 0
0, 0
0, 0
0, 0
0, 0
0, 0
0, 0
0, 0
0, 0
0, 0
0, 0
0, 0
0, 0
0, 0
0, 0
0, 0
0, 0
0, 0
0, 0
0, 0
0, 0
0, 0
0, 0
0, 0
0, 0
0, 0
0, 0
0, 0
0, 0
0, 0
0, 0
0, 0
0, 0
0, 0
0, 0
0, 0
0, 0
0, 0
0, 0
0, 0
0, 0
0, 0
0, 0
0, 0
0, 0
0, 0
0, 0
0, 0
0, 0
0, 0
0, 0
0, 0
0, 0
0, 0
0, 0
0, 0
0, 0
0, 0
0, 0
0, 0
0, 0
0, 0
0, 0
0, 0
0, 0
0, 0
0, 0
0, 0
0, 0
0, 0
0, 0
0, 0
0, 0
0, 0
0, 0
0, 0
0, 0
0, 0
0, 0
0, 0
0, 0
0, 0
0, 0
0, 0
0, 0
0, 0
0, 0
0, 0
0, 0
0, 0
0, 0
0, 0
0, 0
0, 0
0, 0
0, 0
0, 0
0, 0
0, 0
0, 0
0, 0
0, 0
0, 0
0, 0
0, 0
0, 0
0, 0
0, 0
0, 0
0, 0
0, 0
0, 0
0, 0
0, 0
0, 0
0, 0
0, 0
0, 0
0, 0
0, 0
0, 0
0, 0
0, 0
0, 0
0, 0
0, 0
0, 0
0, 0
0, 0
0, 0
0, 0
0, 0
0, 0
0, 0
0, 0
0, 0
0, 0
0, 0
0, 0
0, 0
0, 0
0, 0
0, 0
0, 0
0, 0
0, 0
0, 0
0, 0
0, 0
0, 0
0, 0
0, 0
0, 0
0, 0
0, 0
0, 0
0, 0
0, 0
0, 0
0, 0
0, 0
0, 0
0, 0
0, 0
0, 0
0, 0
0, 0
0, 0
0, 0
0, 0
0, 0
0, 0
0, 0
0, 0
0, 0
0, 0
0, 0
0, 0
0, 0
0, 0
0, 0
0, 0
0, 0
0, 0
0, 0
0, 0
0, 0
0, 0
0, 0
0, 0
0, 0
0, 0
0, 0
0, 0
0, 0
0, 0
0, 0
0, 0
0, 0
0, 0
0, 0
0, 0
0, 0
0, 0
0, 0
0, 0
0, 0
0, 0
0, 0
0, 0
0, 0
0, 0
0, 0
0, 0
0, 0
0, 0
0, 0
0, 0
0, 0
0, 0
0, 0
0, 0
0, 0
0, 0
0, 0
0, 0
0, 0
0, 0
0, 0
0, 0
0, 0
0, 0
0, 0
0, 0
0, 0
0, 0
0, 0
0, 0
0, 0
0, 0
0, 0
0, 0
0, 0
0, 0
0, 0
0, 0
#ENDOFDATA     end of spectrum data