File: host_upload/12-01-2023/Dourbes (shot-by-shot)/upload_4/ps__0257_0689790785_000rfs_shot_3216.msa
#FORMAT      : EMSA/MAS spectral data file
#VERSION     : TC202v2.0 PIXL
#TITLE       : N/A
#DATE        :       Date in the format DD-MMM-YYYY, for example 07-JUL-2010
#TIME        :             The time of day at which the spectrum was recorded, in 24-hour format
#OWNER       : PIXL Flight Model       (PIXL will use this to indicate which instrument took the data.)
#NPOINTS     : 4096     Number of data points in the spectrum (This can be zero for configuration only files)
#NCOLUMNS    : 2     Number of data columns in the spectrum (This can be zero for configuration only files)
#XUNITS      : eV
#YUNITS      : COUNTS
#DATATYPE    : YY
#XPERCHAN    : 7.862, 7.881   eV per channel (separate by commas if more than one detector)
#OFFSET      : 18.5, -22.4         eV of first channel  (separate by commas if more than one detector
#SIGNALTYPE  : XRF
#YP_TEMP     : 2.973
#LIVETIME    : 9.0492, 9.02388   seconds (separate by commas if more than one detector)
#REALTIME    : 10, 10.0   seconds (separate by commas if more than one detector)
#SPECTRUM    : start of spectrum data
0, 0
0, 0
0, 0
0, 0
0, 0
0, 0
0, 0
0, 0
0, 0
0, 0
0, 0
0, 0
0, 0
0, 0
0, 0
0, 0
0, 0
0, 0
0, 0
0, 0
0, 0
0, 0
0, 0
0, 0
0, 0
0, 0
0, 0
0, 0
0, 0
0, 0
0, 0
0, 0
0, 0
0, 0
0, 0
0, 0
1, 1
0, 2
0, 0
5, 1
1, 4
2, 2
2, 2
1, 3
1, 0
2, 2
0, 0
0, 1
3, 2
4, 5
15, 11
24, 18
42, 38
44, 36
47, 48
36, 51
32, 35
24, 21
20, 16
5, 6
5, 3
2, 1
6, 2
4, 3
3, 2
3, 1
7, 2
6, 7
9, 10
29, 39
80, 84
165, 173
272, 280
386, 392
474, 493
499, 518
388, 424
306, 276
167, 201
103, 87
56, 59
24, 26
15, 14
4, 13
1, 7
3, 3
3, 5
0, 3
4, 2
8, 2
6, 1
14, 3
15, 1
28, 0
38, 9
46, 3
51, 13
40, 13
40, 22
35, 11
23, 13
14, 3
11, 10
1, 2
3, 6
2, 7
5, 2
9, 9
21, 20
21, 38
34, 63
55, 68
68, 101
85, 121
92, 148
99, 131
67, 133
55, 109
63, 70
36, 51
47, 46
35, 36
29, 27
30, 27
21, 25
24, 35
15, 24
13, 18
12, 21
9, 11
8, 9
4, 10
8, 3
2, 4
4, 5
1, 9
4, 1
3, 2
0, 5
6, 1
1, 6
6, 7
5, 2
2, 4
2, 6
5, 5
2, 4
5, 5
4, 3
2, 6
4, 5
12, 15
22, 33
39, 40
46, 73
59, 116
91, 118
80, 146
93, 124
86, 117
54, 64
27, 53
17, 33
8, 22
8, 10
7, 10
3, 10
12, 11
11, 7
13, 16
13, 20
23, 13
14, 16
15, 14
13, 11
6, 10
8, 7
8, 6
7, 5
3, 10
0, 8
5, 6
9, 10
3, 7
7, 4
2, 6
10, 5
6, 5
7, 17
12, 8
10, 8
12, 16
21, 14
17, 20
17, 18
20, 16
20, 22
18, 20
23, 27
22, 21
14, 23
16, 15
11, 16
12, 12
9, 9
7, 10
2, 11
9, 6
3, 7
7, 12
11, 10
13, 12
8, 11
14, 11
11, 12
6, 10
5, 6
8, 11
10, 10
10, 14
11, 13
6, 19
11, 7
11, 11
6, 8
15, 24
12, 24
16, 28
10, 32
12, 39
11, 54
14, 67
15, 63
15, 59
6, 70
7, 58
12, 39
16, 26
10, 24
12, 10
10, 20
7, 14
12, 20
23, 19
15, 15
30, 36
47, 45
44, 86
72, 70
109, 97
86, 111
102, 112
93, 100
71, 71
56, 61
38, 53
32, 24
20, 28
17, 26
14, 20
10, 31
26, 38
41, 51
67, 89
138, 195
304, 422
500, 714
893, 1231
1365, 1830
1921, 2470
2470, 3148
2880, 3431
3104, 3491
2911, 3091
2459, 2499
1907, 1866
1432, 1249
879, 778
459, 434
268, 211
145, 99
82, 55
33, 24
27, 29
26, 30
34, 18
28, 26
21, 19
27, 24
43, 27
41, 38
36, 47
66, 63
87, 111
116, 156
181, 229
275, 331
300, 430
422, 483
429, 541
472, 484
426, 411
325, 354
260, 251
192, 173
111, 101
76, 61
33, 30
11, 24
19, 7
6, 5
5, 2
6, 2
7, 6
6, 8
7, 10
4, 12
9, 12
6, 10
3, 9
8, 11
10, 6
2, 9
7, 2
2, 8
2, 4
3, 2
12, 3
3, 6
8, 7
8, 4
6, 3
4, 6
6, 2
5, 4
2, 6
10, 6
6, 3
3, 3
11, 6
7, 3
6, 6
5, 6
6, 7
7, 5
1, 8
8, 14
1, 9
7, 6
5, 6
2, 7
7, 8
4, 2
2, 7
8, 3
5, 6
8, 1
5, 4
4, 6
9, 8
7, 7
4, 6
7, 11
4, 5
3, 4
6, 4
5, 3
7, 3
6, 6
1, 9
4, 10
6, 6
3, 13
10, 17
7, 10
7, 21
5, 17
4, 6
2, 10
3, 8
6, 5
9, 11
5, 5
4, 9
4, 6
6, 4
0, 7
5, 4
6, 2
5, 6
3, 8
10, 7
4, 10
9, 4
2, 5
7, 7
0, 4
1, 3
2, 5
3, 8
2, 1
3, 4
6, 6
4, 6
1, 4
2, 4
3, 4
5, 7
3, 4
6, 5
4, 9
5, 7
3, 4
2, 3
7, 2
4, 3
3, 3
3, 5
3, 2
4, 2
2, 3
1, 2
5, 14
0, 3
6, 5
4, 5
6, 3
2, 2
4, 5
4, 3
4, 2
4, 4
3, 3
3, 3
3, 3
2, 4
3, 3
3, 4
2, 5
2, 5
2, 4
0, 4
6, 6
3, 4
2, 4
4, 9
4, 3
0, 5
0, 3
3, 4
3, 8
5, 5
3, 3
2, 5
4, 1
3, 2
3, 2
2, 5
4, 4
2, 2
1, 5
1, 6
1, 5
1, 2
3, 2
2, 4
3, 7
3, 5
3, 4
5, 1
3, 3
2, 3
2, 4
1, 3
5, 5
4, 3
0, 4
8, 3
4, 2
1, 2
5, 7
1, 1
1, 5
3, 3
4, 5
9, 4
2, 2
2, 2
3, 1
4, 1
1, 1
4, 1
3, 4
3, 2
3, 1
4, 3
4, 4
7, 0
4, 5
5, 3
2, 2
3, 5
1, 2
2, 1
2, 3
3, 5
1, 2
1, 2
2, 2
1, 3
2, 4
1, 2
1, 2
4, 4
2, 1
1, 1
3, 2
3, 1
3, 2
1, 6
3, 0
2, 1
1, 2
2, 1
0, 2
2, 4
3, 5
4, 1
3, 1
2, 1
2, 0
2, 4
1, 1
2, 2
2, 4
5, 3
5, 4
3, 3
0, 10
3, 11
6, 8
5, 8
3, 4
3, 8
4, 11
2, 1
2, 6
3, 6
2, 3
1, 4
4, 1
4, 1
2, 2
4, 2
2, 3
2, 2
1, 1
0, 4
2, 1
0, 0
1, 2
1, 2
2, 2
1, 1
0, 4
2, 3
3, 1
1, 2
2, 5
3, 5
4, 3
1, 2
2, 4
1, 3
2, 1
3, 1
3, 1
1, 2
0, 0
1, 1
1, 1
0, 0
1, 2
0, 1
2, 0
1, 0
0, 1
2, 2
2, 2
0, 2
2, 1
2, 4
0, 2
1, 1
0, 0
1, 1
3, 1
2, 2
1, 0
0, 2
0, 2
0, 2
0, 2
0, 0
2, 1
1, 1
0, 2
0, 0
2, 0
2, 0
0, 1
1, 0
3, 0
1, 1
0, 0
2, 0
1, 1
4, 0
2, 2
0, 1
0, 0
1, 0
0, 2
2, 1
1, 1
0, 1
0, 1
0, 1
0, 1
0, 1
2, 0
2, 1
2, 2
0, 1
0, 1
0, 1
0, 0
0, 0
1, 1
1, 2
1, 0
1, 0
0, 2
1, 0
0, 1
0, 0
0, 0
2, 0
0, 0
1, 0
0, 0
1, 0
2, 0
0, 0
0, 1
0, 0
0, 0
0, 1
0, 0
0, 0
2, 1
1, 2
1, 1
0, 0
1, 0
1, 0
0, 0
0, 0
1, 1
0, 0
0, 1
1, 1
0, 1
1, 2
1, 0
0, 1
0, 1
0, 1
0, 1
0, 1
0, 0
0, 1
0, 1
0, 2
0, 0
0, 0
0, 2
0, 0
4, 0
0, 2
1, 0
0, 0
0, 0
0, 1
0, 0
0, 0
0, 0
0, 0
0, 1
0, 1
0, 0
0, 2
1, 0
0, 0
0, 2
0, 0
0, 0
0, 1
1, 0
0, 1
0, 1
0, 0
0, 0
0, 0
1, 1
0, 0
0, 0
0, 0
0, 0
1, 0
1, 0
0, 0
0, 1
0, 0
0, 0
0, 0
0, 0
0, 0
0, 0
0, 0
0, 0
0, 0
0, 1
1, 0
0, 1
0, 0
1, 0
0, 0
0, 0
0, 0
1, 0
0, 0
0, 0
0, 0
0, 0
0, 1
0, 0
0, 0
0, 0
0, 0
0, 1
1, 1
0, 2
1, 0
1, 0
0, 0
1, 0
0, 0
0, 0
1, 0
0, 0
0, 0
0, 3
0, 0
0, 0
1, 0
1, 0
1, 0
0, 1
0, 0
0, 0
0, 0
0, 0
0, 1
0, 0
1, 1
0, 0
1, 1
1, 0
0, 0
0, 0
0, 0
1, 1
0, 0
1, 0
0, 0
0, 0
0, 0
1, 0
1, 0
0, 0
0, 1
1, 0
0, 0
0, 0
0, 0
1, 0
0, 0
0, 0
0, 0
0, 0
0, 1
0, 0
1, 0
1, 0
0, 1
1, 0
0, 1
0, 0
0, 0
0, 0
1, 0
0, 0
0, 0
1, 0
1, 0
0, 0
0, 0
0, 1
0, 0
1, 0
1, 0
0, 0
0, 0
0, 0
0, 1
1, 0
0, 0
2, 0
0, 2
1, 0
0, 0
0, 0
1, 0
0, 0
0, 0
0, 0
0, 0
0, 0
0, 0
0, 0
0, 1
0, 0
0, 0
0, 0
0, 0
0, 0
0, 0
1, 0
0, 1
0, 0
0, 0
1, 1
0, 0
0, 0
0, 0
0, 0
0, 0
0, 0
1, 0
0, 0
0, 1
0, 0
0, 0
0, 0
0, 0
0, 0
0, 0
0, 0
0, 0
0, 0
0, 0
0, 0
0, 0
0, 0
0, 0
0, 0
0, 0
0, 0
0, 0
0, 0
0, 0
0, 0
0, 0
0, 0
0, 0
0, 0
0, 0
0, 0
0, 0
0, 0
0, 0
1, 0
0, 0
0, 0
0, 0
1, 0
0, 1
0, 0
0, 0
0, 0
0, 0
0, 0
0, 0
0, 0
0, 0
0, 0
0, 0
0, 0
0, 0
0, 0
0, 0
0, 1
0, 0
0, 0
0, 0
0, 0
0, 0
0, 0
0, 0
0, 0
0, 0
0, 0
0, 0
0, 0
0, 0
0, 0
0, 0
0, 0
0, 1
0, 0
0, 0
0, 0
0, 0
0, 0
0, 0
0, 0
0, 0
0, 0
0, 0
0, 0
0, 0
0, 0
1, 0
0, 0
0, 0
0, 0
0, 0
0, 0
0, 1
0, 0
0, 0
0, 0
0, 0
0, 0
0, 0
0, 0
0, 0
0, 0
0, 0
0, 0
0, 0
0, 0
0, 0
0, 0
0, 0
0, 0
0, 0
0, 0
0, 0
0, 0
0, 0
0, 0
1, 0
0, 0
0, 0
0, 0
0, 0
0, 0
0, 0
0, 0
0, 0
0, 0
0, 0
0, 0
0, 0
0, 0
0, 0
0, 0
0, 0
0, 0
0, 0
0, 0
0, 0
0, 0
0, 0
0, 0
0, 0
0, 0
0, 0
0, 0
0, 0
0, 0
0, 0
0, 0
0, 0
0, 0
0, 0
0, 0
0, 0
0, 0
0, 0
0, 0
0, 0
0, 0
0, 0
0, 0
0, 0
0, 0
0, 0
0, 0
0, 0
0, 0
0, 0
0, 0
0, 0
0, 0
0, 0
0, 0
0, 0
0, 0
0, 0
0, 0
0, 0
0, 0
0, 0
0, 0
0, 0
0, 0
0, 0
0, 0
0, 0
0, 0
0, 0
0, 0
0, 0
0, 0
0, 0
0, 0
0, 0
0, 0
0, 0
0, 0
0, 1
0, 0
0, 0
0, 0
0, 0
0, 0
0, 0
0, 0
0, 0
0, 0
0, 0
0, 0
0, 0
0, 0
0, 0
0, 0
0, 0
0, 0
0, 0
0, 0
0, 0
0, 0
0, 0
0, 0
0, 0
0, 0
0, 0
0, 0
0, 0
0, 0
0, 0
0, 0
0, 0
0, 0
0, 0
0, 0
0, 0
0, 0
0, 0
0, 0
0, 0
0, 0
0, 0
0, 0
0, 0
0, 0
0, 0
0, 0
0, 0
0, 0
0, 0
0, 0
0, 0
0, 0
0, 0
0, 0
0, 0
0, 0
0, 0
0, 0
0, 0
0, 0
0, 0
0, 0
0, 0
0, 0
0, 0
0, 0
0, 0
0, 0
0, 0
0, 0
0, 0
0, 0
0, 0
0, 0
0, 0
0, 0
0, 0
0, 0
0, 0
0, 0
0, 0
0, 0
0, 0
0, 0
0, 0
0, 0
0, 0
0, 0
0, 0
0, 0
0, 0
0, 0
0, 0
0, 0
0, 0
0, 0
0, 0
0, 0
0, 0
0, 0
0, 0
0, 0
0, 0
0, 0
0, 0
0, 0
0, 0
0, 0
0, 0
0, 0
0, 0
0, 0
0, 0
0, 0
0, 0
0, 0
0, 0
0, 0
0, 0
0, 0
0, 0
0, 0
0, 0
0, 0
0, 0
0, 0
0, 0
0, 0
0, 0
0, 0
0, 0
0, 0
0, 0
0, 0
0, 0
0, 0
0, 0
0, 0
0, 0
0, 0
0, 0
0, 0
0, 0
0, 0
0, 0
0, 0
0, 0
0, 0
0, 0
0, 0
0, 0
0, 0
0, 0
0, 0
0, 0
0, 0
0, 0
0, 0
0, 0
0, 0
0, 0
0, 0
0, 0
0, 0
0, 0
0, 0
0, 0
0, 0
0, 0
0, 0
0, 0
0, 0
0, 0
0, 0
0, 0
0, 0
0, 0
0, 0
0, 0
0, 0
0, 0
0, 0
0, 0
0, 0
0, 0
0, 0
0, 0
0, 0
0, 0
0, 0
0, 0
0, 0
0, 0
0, 0
0, 0
0, 0
0, 0
0, 0
0, 0
0, 0
0, 0
0, 0
0, 0
0, 0
0, 0
0, 0
0, 0
0, 0
0, 0
0, 0
0, 0
0, 0
0, 0
0, 0
0, 0
0, 0
0, 0
0, 0
0, 0
0, 0
0, 0
0, 0
0, 0
0, 0
0, 0
0, 0
0, 0
0, 0
0, 0
0, 0
0, 0
0, 0
0, 0
0, 0
0, 0
0, 0
0, 0
0, 0
0, 0
0, 0
0, 0
0, 0
0, 0
0, 0
0, 0
0, 0
0, 0
0, 0
0, 0
0, 0
0, 0
0, 0
0, 0
0, 0
0, 0
0, 0
0, 0
0, 0
0, 0
0, 0
0, 0
0, 0
0, 0
0, 0
0, 0
0, 0
0, 0
0, 0
0, 0
0, 0
0, 0
0, 0
0, 0
0, 0
0, 0
0, 0
0, 0
0, 0
0, 0
0, 0
0, 0
0, 0
0, 0
0, 0
0, 0
0, 0
0, 0
0, 0
0, 0
0, 0
0, 0
0, 0
0, 0
0, 0
0, 0
0, 0
0, 0
0, 0
0, 0
0, 0
0, 0
0, 0
0, 0
0, 0
0, 0
0, 0
0, 0
0, 0
0, 0
0, 0
0, 0
#ENDOFDATA     end of spectrum data