File: host_upload/12-01-2023/Dourbes (shot-by-shot)/upload_4/ps__0257_0689790785_000rfs_shot_3009.msa
#FORMAT      : EMSA/MAS spectral data file
#VERSION     : TC202v2.0 PIXL
#TITLE       : N/A
#DATE        :       Date in the format DD-MMM-YYYY, for example 07-JUL-2010
#TIME        :             The time of day at which the spectrum was recorded, in 24-hour format
#OWNER       : PIXL Flight Model       (PIXL will use this to indicate which instrument took the data.)
#NPOINTS     : 4096     Number of data points in the spectrum (This can be zero for configuration only files)
#NCOLUMNS    : 2     Number of data columns in the spectrum (This can be zero for configuration only files)
#XUNITS      : eV
#YUNITS      : COUNTS
#DATATYPE    : YY
#XPERCHAN    : 7.862, 7.881   eV per channel (separate by commas if more than one detector)
#OFFSET      : 18.5, -22.4         eV of first channel  (separate by commas if more than one detector
#SIGNALTYPE  : XRF
#YP_TEMP     : 3.165
#LIVETIME    : 9.02946, 9.03164   seconds (separate by commas if more than one detector)
#REALTIME    : 10, 10.0   seconds (separate by commas if more than one detector)
#SPECTRUM    : start of spectrum data
0, 0
0, 0
0, 0
0, 0
0, 0
0, 0
0, 0
0, 0
0, 0
0, 0
0, 0
0, 0
0, 0
0, 0
0, 0
0, 0
0, 0
0, 0
0, 0
0, 0
0, 0
0, 0
0, 0
0, 0
0, 0
0, 0
0, 0
0, 0
0, 0
0, 0
0, 0
0, 0
0, 0
1, 1
0, 2
0, 1
1, 0
4, 4
3, 1
4, 2
3, 4
5, 4
9, 1
4, 6
8, 4
2, 3
5, 4
8, 2
6, 5
7, 7
15, 12
22, 24
29, 27
38, 33
40, 50
45, 36
29, 33
28, 21
11, 8
1, 5
3, 6
4, 4
2, 5
7, 6
9, 9
3, 8
10, 7
11, 8
15, 17
35, 29
83, 80
197, 168
336, 310
513, 473
611, 551
588, 581
534, 484
382, 344
229, 241
143, 125
68, 73
33, 43
9, 21
15, 11
6, 5
4, 5
1, 5
7, 5
6, 2
2, 3
2, 4
9, 4
11, 5
20, 20
44, 43
83, 110
171, 158
229, 226
300, 277
263, 254
220, 217
169, 147
111, 109
64, 78
51, 51
37, 29
30, 27
50, 37
42, 50
85, 62
152, 116
221, 165
256, 200
404, 223
426, 222
455, 231
412, 221
350, 159
231, 126
162, 99
106, 65
76, 46
52, 46
43, 45
27, 30
34, 26
21, 19
23, 23
17, 22
18, 18
16, 7
9, 4
5, 7
4, 2
8, 5
2, 2
6, 6
3, 7
4, 7
8, 7
10, 11
4, 8
9, 5
8, 7
5, 8
5, 3
5, 3
3, 3
3, 6
1, 7
6, 9
11, 17
24, 17
34, 39
46, 52
62, 75
72, 98
97, 78
87, 93
63, 80
61, 49
45, 27
25, 21
6, 11
10, 11
10, 5
6, 7
12, 10
19, 19
21, 13
12, 19
15, 15
17, 11
17, 13
9, 11
13, 6
18, 15
12, 14
11, 6
6, 7
5, 7
3, 8
6, 5
5, 9
2, 10
3, 15
9, 8
11, 12
11, 9
13, 12
20, 17
21, 15
14, 25
19, 22
21, 33
16, 40
29, 45
17, 37
25, 43
17, 38
15, 34
13, 27
14, 16
15, 12
6, 14
15, 13
16, 10
15, 11
5, 10
11, 9
12, 18
5, 16
9, 13
10, 13
11, 17
19, 14
16, 11
10, 6
11, 8
14, 15
10, 12
15, 12
14, 11
11, 13
12, 13
19, 16
14, 21
14, 19
13, 16
21, 19
18, 14
16, 15
10, 11
15, 12
13, 11
11, 14
13, 18
10, 12
12, 5
10, 14
9, 13
15, 12
10, 13
13, 22
17, 25
25, 33
44, 59
50, 69
66, 69
101, 112
89, 114
111, 104
83, 99
88, 83
71, 50
58, 31
38, 32
32, 28
20, 28
27, 20
24, 35
23, 42
46, 39
81, 106
118, 173
271, 368
490, 694
879, 1160
1334, 1721
1996, 2338
2495, 2797
2933, 3196
3168, 3229
3015, 2990
2578, 2410
1999, 1904
1379, 1219
955, 748
577, 431
281, 212
163, 101
65, 57
36, 33
36, 19
28, 21
30, 15
35, 17
56, 27
45, 31
44, 30
46, 33
62, 54
75, 64
91, 95
154, 149
175, 198
258, 306
315, 349
388, 447
436, 484
473, 497
439, 418
348, 365
297, 221
205, 187
124, 112
69, 54
45, 33
26, 20
16, 9
8, 8
8, 5
9, 7
12, 9
3, 6
6, 11
5, 8
11, 9
10, 9
7, 8
6, 11
3, 9
4, 4
3, 6
2, 7
1, 3
4, 3
4, 7
2, 6
6, 9
5, 11
3, 9
2, 9
3, 4
2, 6
9, 5
5, 11
6, 7
6, 5
7, 5
5, 1
4, 7
3, 5
7, 8
6, 3
7, 6
9, 4
9, 6
2, 6
5, 4
5, 2
5, 6
1, 7
12, 7
6, 10
4, 5
6, 5
2, 7
2, 7
3, 3
7, 2
5, 3
3, 8
3, 5
2, 6
6, 4
4, 11
10, 8
7, 5
11, 4
7, 6
6, 9
3, 6
9, 9
8, 7
2, 3
6, 3
4, 7
4, 5
2, 5
4, 3
3, 4
5, 5
4, 3
6, 2
5, 3
7, 9
4, 4
3, 7
6, 6
1, 11
5, 5
5, 6
3, 8
7, 15
3, 13
4, 5
4, 13
12, 3
5, 6
6, 3
6, 3
3, 2
1, 4
3, 3
7, 2
4, 4
1, 7
6, 9
3, 4
2, 10
2, 2
4, 1
1, 1
5, 4
2, 2
2, 6
2, 2
3, 3
3, 3
2, 1
3, 4
4, 4
3, 4
1, 1
4, 4
5, 2
3, 3
7, 4
5, 2
1, 3
3, 4
0, 3
3, 4
3, 3
2, 7
2, 2
3, 2
4, 7
2, 3
2, 0
2, 4
2, 2
8, 5
2, 6
2, 4
4, 4
4, 1
4, 5
2, 4
2, 2
2, 2
3, 4
3, 4
3, 1
3, 1
4, 4
6, 7
8, 2
8, 3
5, 1
3, 2
5, 0
6, 1
3, 2
1, 2
4, 1
4, 5
3, 3
2, 2
1, 3
4, 3
4, 4
3, 3
5, 2
1, 3
0, 1
2, 5
1, 1
1, 1
2, 4
2, 2
4, 3
0, 3
0, 3
3, 3
3, 1
1, 3
1, 1
2, 2
2, 3
3, 2
1, 3
5, 1
2, 2
0, 2
5, 4
3, 2
2, 3
4, 1
2, 1
1, 3
1, 1
2, 1
1, 3
1, 3
1, 1
1, 3
2, 1
4, 1
1, 0
0, 2
2, 2
0, 5
0, 3
1, 4
3, 0
4, 3
0, 2
0, 2
1, 3
1, 1
2, 2
2, 3
5, 1
4, 1
1, 2
2, 4
1, 1
3, 1
0, 2
1, 1
2, 1
1, 1
1, 2
3, 2
1, 3
5, 0
3, 5
5, 3
1, 4
4, 4
8, 1
5, 2
3, 6
1, 4
2, 5
5, 0
5, 1
1, 1
1, 2
0, 3
2, 2
0, 1
2, 0
2, 2
2, 1
0, 2
0, 2
3, 1
2, 2
2, 0
1, 1
1, 1
1, 0
0, 3
3, 2
3, 6
3, 2
1, 3
5, 0
2, 2
1, 1
4, 2
2, 4
0, 0
1, 2
1, 2
0, 1
0, 0
2, 0
2, 0
0, 0
3, 1
2, 0
1, 2
1, 3
1, 3
3, 0
2, 2
0, 0
0, 1
0, 2
2, 1
1, 0
1, 0
1, 0
0, 0
0, 1
0, 0
0, 0
0, 1
0, 2
1, 0
1, 2
0, 2
2, 1
0, 1
1, 2
2, 0
1, 1
1, 2
0, 1
0, 0
2, 0
1, 1
0, 1
1, 1
0, 0
0, 2
1, 1
2, 1
0, 0
1, 1
1, 0
0, 2
1, 1
0, 1
0, 0
0, 0
3, 2
1, 1
3, 0
0, 0
0, 1
0, 2
0, 2
0, 1
1, 0
0, 1
0, 0
2, 0
0, 0
0, 0
0, 0
1, 1
0, 0
0, 0
0, 0
0, 0
0, 0
1, 1
0, 0
1, 1
0, 2
2, 0
1, 0
0, 0
1, 1
0, 1
1, 1
0, 0
1, 1
0, 0
0, 0
0, 0
0, 1
0, 0
0, 3
0, 0
1, 0
1, 0
0, 0
0, 1
2, 0
0, 0
1, 2
1, 1
1, 0
1, 0
3, 0
0, 0
0, 1
0, 2
0, 1
0, 0
0, 0
0, 0
0, 0
0, 0
1, 0
0, 0
0, 0
0, 0
0, 1
1, 0
0, 0
0, 0
1, 0
0, 0
0, 1
0, 1
0, 2
0, 0
0, 1
0, 0
0, 1
0, 1
2, 0
0, 0
0, 0
0, 2
0, 0
0, 0
0, 0
0, 0
0, 0
0, 0
0, 0
2, 0
0, 0
0, 0
0, 0
0, 0
1, 0
0, 0
1, 0
0, 1
0, 0
1, 0
0, 1
0, 1
0, 1
0, 1
0, 1
0, 0
1, 0
0, 0
0, 0
0, 0
0, 1
1, 0
0, 0
0, 0
0, 0
0, 1
1, 1
0, 0
0, 0
0, 0
1, 0
0, 0
1, 0
0, 0
0, 0
0, 1
0, 0
0, 0
0, 0
0, 0
0, 0
0, 0
0, 0
0, 0
0, 0
0, 1
0, 0
0, 0
0, 1
0, 0
2, 0
0, 0
1, 0
0, 1
3, 0
0, 0
0, 0
0, 0
0, 0
0, 0
0, 0
1, 2
0, 0
0, 0
0, 0
0, 0
0, 0
0, 0
0, 1
0, 0
1, 0
0, 0
0, 0
0, 0
1, 1
0, 0
0, 0
2, 2
0, 0
1, 0
0, 0
0, 0
1, 0
0, 1
0, 0
0, 0
0, 0
0, 0
0, 0
0, 0
0, 0
0, 0
0, 0
0, 0
0, 0
0, 0
0, 0
0, 0
0, 0
0, 0
0, 1
1, 0
0, 0
1, 0
0, 0
0, 0
0, 0
1, 0
0, 0
0, 0
1, 0
0, 1
0, 0
0, 0
0, 0
0, 0
0, 0
0, 0
0, 0
0, 0
0, 1
0, 0
0, 0
0, 1
0, 0
0, 0
0, 0
0, 0
0, 1
0, 0
0, 0
0, 0
1, 0
0, 0
0, 0
1, 0
0, 1
0, 0
1, 0
1, 0
0, 0
1, 0
0, 0
0, 0
0, 0
0, 0
0, 1
0, 0
0, 0
0, 0
0, 0
0, 0
1, 0
0, 0
0, 0
0, 0
0, 0
0, 0
0, 0
0, 1
0, 0
0, 0
0, 0
0, 1
0, 0
0, 0
0, 0
0, 0
0, 0
0, 0
0, 0
0, 0
0, 0
0, 0
0, 0
0, 0
1, 1
0, 0
0, 0
0, 1
0, 0
0, 0
0, 0
0, 0
0, 1
0, 0
0, 0
0, 0
0, 0
0, 0
0, 0
0, 0
0, 0
0, 0
0, 0
0, 0
0, 0
0, 0
0, 0
0, 0
0, 0
0, 0
0, 0
0, 0
0, 0
0, 0
0, 0
0, 0
0, 0
0, 0
0, 0
0, 0
0, 0
0, 0
0, 0
0, 0
0, 0
0, 0
0, 0
0, 0
0, 0
0, 0
0, 0
0, 0
0, 0
0, 0
0, 0
0, 0
0, 0
0, 0
0, 0
0, 0
0, 0
0, 0
0, 0
0, 0
0, 0
0, 0
0, 0
0, 0
0, 0
0, 0
0, 0
0, 0
0, 0
0, 0
0, 0
0, 0
0, 0
0, 0
0, 0
0, 0
0, 0
0, 0
0, 0
0, 0
0, 0
0, 0
0, 0
0, 0
0, 0
0, 0
0, 0
0, 0
0, 0
0, 0
0, 0
0, 0
0, 0
0, 0
0, 0
0, 0
0, 0
0, 0
0, 0
0, 0
0, 0
0, 0
0, 0
0, 0
0, 0
0, 0
0, 0
0, 0
0, 0
0, 0
0, 0
0, 0
0, 0
0, 0
0, 0
0, 0
0, 0
0, 0
0, 1
0, 0
0, 0
0, 0
0, 0
0, 0
0, 0
0, 0
0, 0
0, 0
0, 0
0, 0
0, 0
0, 0
0, 0
0, 0
0, 0
0, 0
0, 0
0, 0
0, 0
0, 0
0, 0
0, 0
0, 0
0, 0
0, 0
0, 0
0, 0
0, 0
0, 0
0, 0
0, 0
0, 0
0, 0
0, 0
0, 0
0, 0
0, 0
0, 0
0, 0
0, 0
0, 0
0, 0
0, 0
0, 0
0, 0
0, 0
0, 0
0, 0
0, 0
0, 0
0, 0
0, 0
0, 0
0, 0
0, 0
0, 0
0, 1
0, 0
0, 0
0, 0
0, 0
0, 0
0, 0
0, 0
0, 0
0, 0
0, 0
1, 0
0, 0
0, 0
0, 0
0, 0
0, 0
0, 0
0, 0
0, 0
0, 0
0, 0
0, 0
0, 0
0, 0
0, 0
0, 0
0, 0
0, 0
0, 0
0, 0
0, 0
0, 0
0, 0
0, 0
0, 0
0, 0
0, 0
0, 0
0, 0
0, 0
0, 0
0, 0
0, 0
0, 0
0, 0
0, 0
0, 0
0, 0
0, 0
0, 0
0, 0
0, 0
0, 0
0, 0
0, 0
0, 0
0, 0
0, 0
0, 0
0, 0
0, 0
0, 0
0, 0
0, 0
0, 0
0, 0
0, 0
0, 0
0, 0
0, 0
0, 0
0, 0
0, 0
0, 0
0, 0
0, 0
0, 0
0, 0
0, 0
0, 0
0, 0
0, 0
0, 0
0, 0
0, 0
0, 0
0, 0
0, 0
0, 0
0, 0
0, 0
0, 0
0, 0
0, 0
0, 0
0, 0
0, 0
0, 0
0, 0
0, 0
0, 0
0, 0
0, 0
0, 0
0, 0
0, 0
0, 0
0, 0
0, 0
0, 0
0, 0
0, 0
0, 0
0, 0
0, 0
0, 0
0, 0
0, 0
0, 0
0, 0
0, 0
0, 0
0, 0
0, 0
0, 0
0, 0
0, 0
0, 0
0, 0
0, 0
0, 0
0, 0
0, 0
0, 0
0, 0
0, 0
0, 0
0, 0
0, 0
0, 0
0, 0
0, 0
0, 0
0, 0
0, 0
0, 0
0, 0
0, 0
0, 0
0, 0
0, 0
0, 0
0, 0
0, 0
0, 0
0, 0
0, 0
0, 0
0, 0
0, 0
0, 0
0, 0
0, 0
0, 0
0, 0
0, 0
0, 0
0, 0
0, 0
0, 0
0, 0
0, 0
0, 0
0, 0
0, 0
0, 0
0, 0
0, 0
0, 0
0, 0
0, 0
0, 0
0, 0
0, 0
0, 0
0, 0
0, 0
0, 0
0, 0
0, 0
0, 0
0, 0
0, 0
0, 0
0, 0
0, 0
0, 0
0, 0
0, 0
0, 0
0, 0
0, 0
0, 0
0, 0
0, 0
0, 0
0, 0
0, 0
0, 0
0, 0
0, 0
0, 0
0, 0
0, 0
0, 0
0, 0
0, 0
0, 0
0, 0
0, 0
0, 0
0, 0
0, 0
0, 0
0, 0
0, 0
0, 0
0, 0
0, 0
0, 0
0, 0
0, 0
0, 0
0, 0
0, 0
0, 0
0, 0
0, 0
0, 0
0, 0
0, 0
0, 0
0, 0
0, 0
0, 0
0, 0
0, 0
0, 0
0, 0
0, 0
0, 0
0, 0
0, 0
0, 0
0, 0
0, 0
0, 0
0, 0
0, 0
0, 0
0, 0
0, 0
0, 0
0, 0
0, 0
0, 0
0, 0
0, 0
0, 0
0, 0
0, 0
0, 0
0, 0
0, 0
0, 0
0, 0
0, 0
0, 0
0, 0
0, 0
0, 0
0, 0
0, 0
0, 0
0, 0
0, 0
0, 0
0, 0
0, 0
0, 0
0, 0
0, 0
0, 0
#ENDOFDATA     end of spectrum data