File: host_upload/12-01-2023/Dourbes (shot-by-shot)/upload_4/ps__0257_0689790785_000rfs_shot_3304.msa
#FORMAT      : EMSA/MAS spectral data file
#VERSION     : TC202v2.0 PIXL
#TITLE       : N/A
#DATE        :       Date in the format DD-MMM-YYYY, for example 07-JUL-2010
#TIME        :             The time of day at which the spectrum was recorded, in 24-hour format
#OWNER       : PIXL Flight Model       (PIXL will use this to indicate which instrument took the data.)
#NPOINTS     : 4096     Number of data points in the spectrum (This can be zero for configuration only files)
#NCOLUMNS    : 2     Number of data columns in the spectrum (This can be zero for configuration only files)
#XUNITS      : eV
#YUNITS      : COUNTS
#DATATYPE    : YY
#XPERCHAN    : 7.862, 7.881   eV per channel (separate by commas if more than one detector)
#OFFSET      : 18.5, -22.4         eV of first channel  (separate by commas if more than one detector
#SIGNALTYPE  : XRF
#YP_TEMP     : 3.069
#LIVETIME    : 8.99434, 9.00379   seconds (separate by commas if more than one detector)
#REALTIME    : 10, 10.0   seconds (separate by commas if more than one detector)
#SPECTRUM    : start of spectrum data
0, 0
0, 0
0, 0
0, 0
0, 0
0, 0
0, 0
0, 0
0, 0
0, 0
0, 0
0, 0
0, 0
0, 0
0, 0
0, 0
0, 0
0, 0
0, 0
0, 0
0, 0
0, 0
0, 0
0, 0
0, 0
0, 0
0, 0
0, 0
0, 0
0, 0
0, 0
0, 0
0, 0
0, 0
0, 1
0, 0
1, 0
1, 0
1, 2
3, 1
4, 4
2, 1
1, 3
2, 3
2, 1
5, 2
6, 2
3, 5
4, 2
7, 10
15, 12
21, 23
28, 33
47, 35
50, 40
41, 41
26, 26
20, 18
13, 12
12, 11
9, 4
19, 14
27, 22
29, 26
32, 27
30, 26
23, 23
25, 18
29, 22
35, 34
84, 72
222, 186
373, 354
484, 471
608, 588
624, 522
550, 463
371, 342
223, 216
144, 124
67, 46
34, 30
15, 29
20, 21
20, 25
18, 28
19, 28
23, 22
14, 11
12, 14
13, 8
6, 2
3, 4
6, 4
7, 4
6, 1
5, 6
5, 5
9, 4
3, 5
6, 7
7, 6
5, 4
3, 1
1, 9
7, 5
6, 5
12, 13
12, 14
21, 23
28, 28
48, 48
50, 55
69, 65
85, 79
82, 78
67, 81
67, 67
52, 61
37, 68
38, 74
31, 84
30, 84
26, 50
24, 55
24, 43
18, 32
15, 16
10, 9
10, 9
8, 3
8, 4
7, 4
3, 3
1, 6
7, 5
9, 9
13, 16
18, 15
24, 32
29, 31
32, 30
25, 28
24, 24
16, 23
14, 18
9, 6
3, 3
6, 9
12, 6
12, 8
12, 25
19, 29
36, 49
61, 67
72, 93
100, 103
99, 84
110, 96
85, 73
50, 52
34, 28
24, 19
19, 11
8, 11
2, 3
7, 10
13, 11
25, 9
14, 15
9, 13
17, 15
22, 14
8, 15
14, 17
7, 12
4, 9
12, 6
4, 11
7, 6
7, 9
11, 2
5, 5
2, 3
8, 5
10, 5
11, 13
19, 18
22, 22
29, 28
34, 50
37, 40
38, 29
32, 51
39, 42
28, 37
26, 31
26, 39
26, 28
27, 28
20, 23
28, 17
20, 14
18, 8
16, 9
8, 11
10, 9
13, 5
10, 12
9, 11
9, 8
8, 18
8, 14
4, 17
12, 11
11, 14
9, 11
9, 8
9, 13
8, 15
4, 9
6, 7
10, 13
6, 11
12, 12
17, 9
15, 16
23, 16
23, 24
22, 21
27, 17
19, 26
24, 13
12, 12
9, 16
19, 14
13, 7
6, 11
8, 14
10, 16
11, 11
12, 24
13, 26
18, 39
20, 25
23, 42
36, 59
40, 69
65, 90
106, 90
102, 84
103, 103
95, 80
60, 68
53, 58
48, 38
29, 27
28, 27
27, 28
24, 24
27, 25
28, 45
68, 60
95, 114
158, 226
339, 393
637, 741
1008, 1289
1737, 1925
2326, 2596
3040, 3302
3581, 3531
3613, 3631
3522, 3361
3025, 2679
2312, 1843
1706, 1257
1071, 797
549, 423
335, 238
160, 111
96, 66
47, 40
37, 22
36, 13
27, 21
19, 22
29, 26
26, 27
37, 34
36, 33
32, 56
58, 64
98, 92
115, 182
198, 233
317, 333
423, 425
445, 515
517, 545
507, 536
467, 478
405, 360
304, 257
224, 209
161, 105
81, 79
43, 37
24, 19
17, 8
8, 9
3, 4
8, 10
3, 13
11, 7
16, 19
15, 11
16, 7
18, 14
12, 9
27, 13
12, 9
10, 7
15, 5
13, 7
10, 2
12, 8
4, 7
8, 8
5, 8
10, 3
9, 3
2, 9
5, 7
7, 5
2, 11
5, 10
6, 4
3, 7
5, 4
8, 9
5, 6
3, 8
6, 2
6, 2
3, 3
8, 6
8, 7
9, 6
2, 7
2, 5
1, 6
4, 2
2, 2
1, 9
5, 4
3, 3
2, 8
7, 3
5, 2
5, 3
8, 5
4, 2
5, 7
5, 2
5, 6
4, 5
6, 7
3, 2
1, 8
8, 2
9, 2
3, 6
8, 5
4, 4
6, 3
6, 6
5, 5
6, 5
5, 6
3, 4
5, 2
3, 4
3, 5
5, 7
6, 4
3, 6
0, 9
8, 7
4, 2
3, 2
5, 5
1, 4
5, 5
3, 7
3, 1
6, 3
3, 4
1, 2
3, 9
3, 6
4, 10
5, 2
5, 4
3, 6
6, 3
0, 6
6, 5
1, 4
4, 10
7, 2
3, 6
8, 2
6, 3
6, 6
0, 7
8, 3
5, 2
4, 1
4, 4
5, 5
2, 4
6, 3
3, 3
4, 4
1, 1
3, 4
3, 4
3, 4
1, 2
1, 3
4, 1
2, 5
3, 2
2, 5
5, 3
3, 3
4, 5
1, 5
0, 8
4, 5
1, 2
2, 5
5, 1
1, 4
2, 1
1, 5
3, 2
7, 6
3, 3
4, 2
4, 3
3, 1
3, 2
5, 2
1, 2
3, 2
1, 2
2, 4
4, 4
3, 2
5, 4
1, 0
2, 1
4, 0
1, 0
6, 0
2, 0
1, 3
5, 2
3, 4
3, 2
3, 3
2, 0
1, 2
1, 1
4, 4
2, 3
4, 2
1, 1
1, 5
1, 5
1, 1
1, 7
3, 1
2, 1
1, 1
4, 2
1, 2
2, 2
2, 2
0, 2
0, 0
1, 4
2, 3
4, 0
3, 2
1, 2
1, 3
5, 1
2, 6
2, 2
0, 2
2, 2
0, 2
1, 2
3, 1
1, 0
1, 4
1, 2
0, 2
2, 1
2, 3
1, 1
2, 5
2, 2
1, 3
2, 0
2, 4
3, 5
5, 2
1, 2
3, 2
1, 3
1, 3
1, 2
5, 2
3, 4
1, 0
1, 3
2, 1
1, 3
2, 6
1, 3
3, 0
3, 3
3, 1
3, 3
4, 3
8, 4
4, 2
5, 8
8, 3
5, 3
6, 4
6, 4
5, 3
1, 4
2, 3
2, 2
2, 2
0, 2
1, 0
2, 2
2, 0
0, 3
1, 0
4, 1
4, 3
0, 1
4, 2
1, 0
3, 1
0, 0
5, 2
2, 0
1, 0
2, 3
3, 4
4, 1
8, 6
3, 0
2, 4
1, 2
2, 4
2, 1
1, 0
2, 3
0, 2
1, 1
3, 3
2, 2
1, 2
2, 1
1, 0
0, 1
2, 0
0, 0
0, 1
2, 0
3, 1
0, 4
3, 1
0, 3
0, 2
0, 1
2, 1
0, 3
0, 1
1, 1
3, 0
1, 2
0, 1
2, 1
0, 2
0, 1
0, 2
0, 0
1, 1
1, 1
0, 0
0, 0
0, 1
1, 1
0, 2
0, 1
0, 0
4, 1
0, 0
1, 0
0, 0
1, 1
1, 0
0, 1
2, 2
0, 0
1, 0
0, 1
1, 0
3, 0
1, 1
0, 2
1, 0
0, 0
0, 0
0, 0
0, 1
1, 1
1, 2
0, 0
0, 2
2, 1
2, 1
1, 0
1, 1
0, 0
0, 0
0, 0
1, 1
0, 1
0, 0
1, 0
0, 0
0, 1
0, 0
1, 0
0, 1
0, 2
0, 1
0, 0
0, 1
0, 1
0, 1
0, 0
0, 0
1, 0
1, 1
0, 0
0, 0
0, 2
1, 0
1, 0
1, 2
0, 1
0, 2
1, 0
0, 1
1, 0
1, 0
1, 0
1, 0
0, 1
0, 0
0, 0
0, 1
0, 1
0, 1
3, 1
0, 0
0, 0
0, 0
0, 1
0, 0
1, 1
0, 1
0, 0
1, 0
0, 1
0, 1
1, 0
0, 0
0, 1
1, 0
1, 1
0, 0
0, 0
0, 0
0, 1
0, 2
0, 0
0, 0
1, 0
0, 0
0, 0
0, 1
0, 0
0, 0
1, 0
1, 0
0, 1
0, 0
2, 0
0, 1
1, 1
0, 0
0, 1
1, 0
0, 0
0, 0
0, 3
2, 0
0, 0
0, 0
1, 0
1, 1
0, 0
0, 0
0, 0
0, 0
1, 0
0, 0
1, 0
0, 0
0, 0
0, 0
0, 0
0, 0
0, 0
0, 0
0, 0
0, 0
1, 1
1, 0
0, 1
0, 1
0, 0
0, 0
0, 0
1, 1
0, 1
0, 0
0, 0
1, 0
0, 0
0, 0
0, 0
0, 0
0, 0
0, 0
0, 0
0, 0
0, 1
0, 0
0, 0
0, 0
1, 0
0, 0
0, 0
0, 0
1, 1
0, 1
0, 0
0, 0
0, 1
0, 0
0, 0
0, 0
0, 0
0, 0
2, 0
1, 0
0, 0
0, 0
0, 0
0, 0
0, 2
0, 1
0, 0
0, 0
0, 0
0, 0
0, 0
1, 0
1, 0
0, 1
0, 0
0, 0
1, 0
0, 0
0, 0
0, 0
0, 0
0, 0
2, 1
0, 0
0, 0
0, 0
0, 1
0, 1
0, 0
0, 0
0, 2
1, 0
0, 0
0, 0
0, 0
0, 2
0, 0
0, 0
0, 0
0, 0
0, 0
0, 0
0, 0
0, 0
0, 0
1, 1
0, 0
0, 1
0, 0
0, 0
0, 0
0, 0
0, 0
0, 0
1, 0
0, 0
0, 0
0, 0
0, 0
0, 0
0, 1
0, 0
0, 0
0, 0
0, 1
0, 0
0, 0
0, 0
0, 0
0, 1
0, 0
0, 0
0, 0
1, 0
1, 0
0, 0
0, 0
0, 0
0, 0
0, 0
0, 0
0, 0
0, 0
0, 0
0, 0
0, 0
0, 1
0, 0
0, 0
1, 0
0, 0
1, 0
0, 0
0, 0
0, 0
0, 0
0, 0
1, 0
0, 0
0, 0
0, 0
0, 0
0, 0
0, 0
0, 1
0, 0
0, 1
0, 0
0, 0
0, 0
0, 0
0, 0
0, 0
0, 0
0, 0
0, 0
0, 0
0, 0
0, 0
0, 0
0, 0
0, 0
0, 0
0, 0
0, 0
1, 0
0, 0
0, 0
0, 1
0, 0
0, 0
2, 0
0, 0
0, 0
0, 0
0, 0
0, 0
0, 0
0, 0
0, 0
0, 0
0, 0
0, 0
0, 0
0, 0
0, 0
0, 0
0, 0
0, 0
0, 0
0, 0
0, 0
0, 0
0, 0
0, 0
0, 0
0, 0
0, 0
0, 0
0, 0
0, 0
0, 0
0, 0
0, 0
0, 0
0, 0
0, 0
0, 0
0, 0
0, 0
0, 0
0, 0
0, 0
0, 0
0, 0
0, 0
0, 0
0, 0
0, 0
0, 0
0, 0
0, 0
0, 0
0, 0
0, 0
0, 0
0, 0
0, 0
0, 0
0, 1
0, 0
0, 0
0, 0
0, 0
0, 0
0, 0
0, 0
0, 0
0, 0
0, 0
0, 0
0, 0
0, 0
0, 0
0, 0
0, 1
0, 0
0, 0
0, 0
0, 0
0, 0
0, 0
0, 0
0, 0
0, 0
0, 0
0, 0
0, 0
0, 0
0, 0
0, 0
0, 0
0, 0
0, 0
0, 0
0, 0
0, 0
0, 0
0, 0
0, 0
0, 0
0, 0
0, 0
0, 0
0, 0
0, 0
0, 0
0, 0
0, 0
0, 0
0, 0
0, 0
0, 0
0, 0
0, 0
0, 0
0, 0
0, 0
0, 0
0, 0
0, 0
0, 0
0, 0
0, 0
0, 0
0, 0
0, 0
0, 0
0, 0
0, 0
0, 0
0, 0
0, 0
0, 0
0, 0
0, 0
0, 0
1, 0
0, 0
0, 0
0, 0
0, 0
0, 0
0, 0
0, 0
0, 0
0, 0
0, 0
0, 0
0, 0
0, 0
0, 0
0, 0
0, 0
0, 0
0, 0
0, 0
0, 0
0, 0
0, 0
0, 0
0, 0
0, 0
0, 0
0, 0
0, 0
0, 0
0, 0
0, 0
0, 0
0, 0
0, 0
0, 0
0, 0
0, 0
0, 0
0, 0
0, 0
0, 0
0, 0
0, 0
0, 0
0, 0
0, 0
0, 0
0, 0
0, 0
0, 0
0, 0
0, 0
0, 0
0, 0
0, 0
0, 0
0, 0
0, 0
0, 0
0, 0
0, 0
0, 0
0, 0
0, 0
0, 0
0, 0
0, 0
0, 0
0, 0
0, 0
0, 0
0, 0
0, 0
0, 0
0, 0
0, 0
0, 0
0, 0
0, 0
0, 0
0, 0
0, 0
0, 0
0, 0
0, 0
0, 0
0, 0
0, 0
0, 0
0, 0
0, 0
0, 0
0, 0
0, 0
0, 0
0, 0
0, 0
0, 0
0, 0
0, 0
0, 0
0, 0
0, 0
0, 0
0, 0
0, 0
0, 0
0, 0
0, 0
0, 0
0, 0
0, 0
0, 0
0, 0
0, 0
0, 0
0, 0
0, 0
0, 0
0, 0
0, 0
0, 0
0, 0
0, 0
0, 0
0, 0
0, 0
0, 0
0, 0
0, 0
0, 0
0, 0
0, 0
0, 0
0, 0
0, 0
0, 0
0, 0
0, 0
0, 0
0, 0
0, 0
0, 0
0, 0
0, 0
0, 0
0, 0
0, 0
0, 0
0, 0
0, 0
0, 0
0, 0
0, 0
0, 0
0, 0
0, 0
0, 0
0, 0
0, 0
0, 0
0, 0
0, 0
0, 0
0, 0
0, 0
0, 0
0, 0
0, 0
0, 0
0, 0
0, 0
0, 0
0, 0
0, 0
0, 0
0, 0
0, 0
0, 0
0, 0
0, 0
0, 0
0, 0
0, 0
0, 0
0, 0
0, 0
0, 0
0, 0
0, 0
0, 0
0, 0
0, 0
0, 0
0, 0
0, 0
0, 0
0, 0
0, 0
0, 0
0, 0
0, 0
0, 0
0, 0
0, 0
0, 0
0, 0
0, 0
0, 0
0, 0
0, 0
0, 0
0, 0
0, 0
0, 0
0, 0
0, 0
0, 0
0, 0
0, 0
0, 0
0, 0
0, 0
0, 0
0, 0
0, 0
0, 0
0, 0
0, 0
0, 0
0, 0
0, 0
0, 0
0, 0
0, 0
0, 0
0, 0
0, 0
0, 0
0, 0
0, 0
0, 0
0, 0
0, 0
0, 0
0, 0
0, 0
0, 0
0, 0
0, 0
0, 0
0, 0
0, 0
0, 0
0, 0
0, 0
0, 0
0, 0
0, 0
0, 0
0, 0
0, 0
0, 0
0, 0
0, 0
0, 0
0, 0
0, 0
0, 0
0, 0
0, 0
0, 0
0, 0
0, 0
0, 0
0, 0
0, 0
0, 0
0, 0
0, 0
0, 0
0, 0
0, 0
0, 0
0, 0
0, 0
0, 0
0, 0
0, 0
0, 0
0, 0
0, 0
0, 0
0, 0
0, 0
0, 0
0, 0
0, 0
0, 0
0, 0
0, 0
0, 0
0, 0
0, 0
0, 0
0, 0
0, 0
#ENDOFDATA     end of spectrum data