File: host_upload/12-01-2023/Dourbes (shot-by-shot)/upload_4/ps__0257_0689790785_000rfs_shot_3221.msa
#FORMAT      : EMSA/MAS spectral data file
#VERSION     : TC202v2.0 PIXL
#TITLE       : N/A
#DATE        :       Date in the format DD-MMM-YYYY, for example 07-JUL-2010
#TIME        :             The time of day at which the spectrum was recorded, in 24-hour format
#OWNER       : PIXL Flight Model       (PIXL will use this to indicate which instrument took the data.)
#NPOINTS     : 4096     Number of data points in the spectrum (This can be zero for configuration only files)
#NCOLUMNS    : 2     Number of data columns in the spectrum (This can be zero for configuration only files)
#XUNITS      : eV
#YUNITS      : COUNTS
#DATATYPE    : YY
#XPERCHAN    : 7.862, 7.881   eV per channel (separate by commas if more than one detector)
#OFFSET      : 18.5, -22.4         eV of first channel  (separate by commas if more than one detector
#SIGNALTYPE  : XRF
#YP_TEMP     : 2.909
#LIVETIME    : 9.05951, 9.07307   seconds (separate by commas if more than one detector)
#REALTIME    : 10, 10.0   seconds (separate by commas if more than one detector)
#SPECTRUM    : start of spectrum data
0, 0
0, 0
0, 0
0, 0
0, 0
0, 0
0, 0
0, 0
0, 0
0, 0
0, 0
0, 0
0, 0
0, 0
0, 0
0, 0
0, 0
0, 0
0, 0
0, 0
0, 0
0, 0
0, 0
0, 0
0, 0
0, 0
0, 0
0, 0
0, 0
0, 0
0, 0
0, 0
0, 0
0, 0
3, 1
1, 0
1, 4
1, 1
0, 4
1, 3
2, 4
3, 3
2, 1
2, 3
1, 2
3, 2
4, 2
2, 2
5, 7
4, 5
14, 6
26, 13
43, 23
39, 38
51, 48
36, 41
34, 25
12, 12
12, 5
7, 3
4, 0
5, 1
6, 5
4, 6
5, 2
3, 3
9, 10
5, 8
19, 20
54, 33
119, 119
254, 222
453, 398
647, 564
710, 702
732, 689
643, 562
449, 393
285, 234
174, 131
83, 71
37, 36
13, 5
11, 10
8, 8
6, 2
2, 3
1, 5
1, 3
3, 3
1, 1
4, 3
6, 6
15, 6
26, 11
20, 22
41, 20
49, 35
44, 46
48, 31
32, 36
21, 24
15, 18
18, 13
3, 8
11, 6
10, 11
23, 16
38, 41
55, 49
76, 74
127, 98
148, 148
137, 160
175, 169
157, 134
133, 130
90, 101
88, 74
65, 62
61, 60
49, 43
52, 37
30, 45
31, 32
27, 24
26, 19
19, 17
25, 15
15, 15
8, 10
10, 8
5, 6
4, 2
4, 6
6, 4
7, 5
5, 3
8, 2
8, 2
4, 4
8, 5
12, 6
10, 8
4, 7
5, 4
2, 4
5, 3
7, 2
3, 7
10, 8
3, 4
13, 20
30, 34
44, 43
48, 54
50, 59
58, 79
70, 60
58, 61
39, 43
30, 18
18, 23
9, 9
5, 13
5, 8
9, 6
8, 10
7, 5
11, 12
9, 12
7, 25
9, 12
14, 8
9, 13
10, 4
10, 14
7, 10
8, 6
6, 7
10, 6
3, 4
8, 6
6, 4
5, 3
7, 3
8, 11
9, 12
17, 11
13, 12
19, 14
22, 15
21, 12
17, 15
19, 14
23, 23
15, 22
26, 19
11, 25
18, 27
24, 20
13, 15
10, 10
13, 11
7, 16
7, 12
14, 12
22, 14
9, 15
19, 7
15, 13
11, 15
22, 10
17, 11
10, 12
14, 10
11, 7
15, 10
11, 7
13, 5
13, 16
12, 9
12, 13
21, 19
19, 17
12, 19
19, 25
11, 23
13, 30
15, 39
14, 37
16, 49
15, 48
16, 54
11, 41
12, 38
15, 34
10, 20
11, 21
8, 20
14, 12
13, 14
11, 13
17, 14
20, 16
28, 35
44, 25
48, 31
64, 62
81, 64
75, 68
87, 87
68, 57
52, 56
54, 54
29, 35
36, 25
31, 13
28, 14
16, 24
14, 30
28, 24
49, 48
79, 90
105, 152
265, 297
464, 558
860, 931
1291, 1420
1800, 2037
2333, 2579
2793, 2830
2883, 2785
2741, 2536
2327, 2131
1895, 1480
1245, 1036
825, 600
470, 339
251, 216
124, 92
69, 44
34, 22
17, 21
20, 20
21, 24
22, 31
18, 28
21, 27
31, 25
39, 34
36, 36
50, 50
88, 73
145, 150
169, 192
243, 246
347, 353
428, 392
387, 405
428, 404
393, 334
338, 315
229, 215
183, 150
115, 87
66, 56
40, 36
24, 12
16, 11
5, 11
10, 9
10, 7
9, 11
3, 5
5, 7
9, 4
7, 6
3, 8
3, 9
8, 7
3, 11
5, 2
5, 7
3, 7
6, 6
5, 5
1, 5
4, 4
7, 5
8, 5
7, 3
6, 6
3, 5
2, 6
7, 8
1, 5
6, 11
3, 3
9, 3
4, 11
6, 7
10, 6
1, 6
6, 12
6, 11
6, 3
4, 6
7, 5
5, 9
8, 10
3, 8
5, 3
6, 3
5, 9
4, 2
4, 6
3, 6
11, 7
4, 6
6, 5
4, 4
3, 9
11, 6
4, 6
6, 11
4, 7
7, 4
14, 6
10, 10
9, 3
7, 7
5, 5
4, 3
7, 7
6, 3
5, 11
7, 8
6, 5
4, 9
4, 7
2, 6
4, 6
10, 7
5, 5
2, 10
7, 4
10, 7
3, 3
4, 7
4, 7
3, 10
3, 6
7, 8
4, 2
3, 7
4, 3
4, 5
5, 5
8, 3
4, 8
6, 9
6, 1
4, 3
5, 1
12, 6
8, 6
5, 6
5, 6
3, 5
6, 4
7, 4
5, 6
3, 2
3, 1
7, 4
7, 3
2, 2
3, 1
5, 5
6, 5
3, 3
3, 4
4, 6
5, 4
6, 0
5, 4
2, 1
3, 4
5, 6
9, 3
7, 3
1, 4
5, 3
4, 4
6, 5
3, 2
4, 7
7, 3
5, 2
5, 3
4, 3
4, 1
4, 7
3, 2
2, 6
1, 3
2, 3
7, 3
4, 3
4, 2
5, 5
3, 2
3, 3
1, 3
6, 5
4, 4
6, 4
2, 4
3, 7
3, 3
3, 3
2, 2
4, 2
3, 4
6, 2
1, 1
4, 3
1, 3
1, 4
4, 1
1, 5
2, 6
0, 1
4, 4
2, 2
4, 2
4, 1
2, 2
2, 2
2, 0
2, 5
2, 7
1, 4
5, 6
5, 3
2, 3
9, 1
2, 2
3, 1
4, 1
4, 1
4, 2
1, 3
1, 1
1, 2
2, 3
1, 2
3, 3
4, 2
3, 1
2, 2
2, 6
3, 6
1, 2
1, 2
4, 7
4, 7
5, 2
2, 3
0, 3
0, 4
0, 3
6, 1
3, 1
5, 0
1, 1
3, 1
4, 3
1, 3
7, 4
2, 4
1, 2
2, 3
0, 2
2, 5
0, 4
2, 2
1, 1
2, 1
3, 3
1, 0
0, 2
0, 2
2, 2
6, 1
2, 4
3, 3
5, 3
5, 3
3, 4
4, 3
5, 2
5, 6
6, 5
1, 0
4, 1
3, 1
3, 1
1, 1
4, 0
3, 1
1, 0
2, 2
2, 2
1, 4
1, 3
3, 2
1, 4
2, 1
3, 4
2, 2
0, 0
0, 0
2, 0
1, 0
0, 3
3, 2
2, 2
3, 1
1, 2
0, 1
2, 1
1, 1
4, 1
1, 0
1, 1
2, 0
2, 4
3, 2
2, 0
2, 2
0, 3
1, 1
0, 2
0, 1
2, 1
2, 0
0, 1
2, 2
0, 2
0, 0
1, 0
1, 0
2, 3
0, 2
2, 1
1, 1
2, 0
1, 1
2, 0
2, 2
2, 1
0, 2
2, 1
1, 0
0, 0
0, 1
1, 2
2, 3
1, 0
1, 1
1, 1
1, 5
1, 2
1, 1
2, 3
0, 0
3, 1
2, 1
2, 1
0, 1
0, 2
1, 3
0, 0
0, 0
3, 2
2, 0
0, 0
1, 2
0, 0
1, 0
1, 1
0, 0
0, 0
1, 2
1, 0
1, 1
2, 1
2, 1
1, 2
1, 0
0, 2
1, 1
0, 1
1, 1
2, 0
1, 0
0, 0
1, 1
0, 0
1, 0
1, 0
0, 1
1, 0
0, 1
0, 1
2, 0
1, 2
0, 0
1, 1
1, 1
0, 0
1, 0
1, 0
1, 1
1, 0
0, 0
0, 0
1, 0
1, 0
0, 0
1, 1
1, 1
2, 0
0, 0
0, 0
1, 0
0, 1
0, 0
0, 0
0, 0
1, 0
0, 0
0, 0
0, 1
0, 1
1, 0
0, 0
0, 0
0, 0
0, 0
0, 0
0, 0
1, 0
0, 1
0, 0
0, 0
1, 0
0, 0
0, 2
1, 0
1, 0
0, 0
1, 0
2, 0
0, 2
0, 0
0, 1
0, 0
0, 0
1, 0
0, 2
0, 0
0, 1
1, 1
0, 1
0, 0
1, 0
0, 0
0, 0
0, 0
0, 1
0, 1
1, 0
2, 0
0, 0
0, 0
1, 0
2, 0
0, 1
0, 0
1, 1
0, 0
0, 1
0, 0
0, 0
1, 0
0, 0
1, 0
1, 0
0, 0
0, 0
0, 1
1, 0
0, 0
0, 1
1, 0
0, 1
1, 0
0, 1
0, 0
0, 0
1, 1
0, 0
0, 0
0, 0
0, 0
0, 0
0, 0
0, 0
0, 0
0, 0
0, 1
0, 0
0, 0
0, 1
0, 0
0, 0
1, 0
0, 0
0, 0
1, 0
0, 0
0, 0
0, 0
0, 0
0, 0
0, 0
1, 0
0, 0
0, 0
0, 0
1, 1
1, 0
0, 0
0, 0
0, 0
0, 0
0, 0
0, 1
0, 0
0, 0
2, 1
0, 0
0, 0
0, 1
0, 0
1, 1
0, 0
0, 0
1, 0
0, 0
0, 0
0, 0
0, 0
1, 0
1, 0
0, 0
0, 0
0, 0
0, 1
0, 0
1, 0
1, 0
0, 0
1, 0
1, 0
0, 0
0, 0
0, 0
0, 0
0, 0
0, 0
0, 0
0, 0
0, 0
0, 0
0, 0
0, 0
2, 1
0, 0
0, 0
1, 1
0, 0
0, 0
0, 0
0, 0
1, 1
0, 0
0, 0
0, 1
0, 0
0, 0
0, 0
0, 0
0, 0
0, 0
0, 0
0, 1
0, 2
0, 0
0, 0
0, 0
0, 0
0, 0
0, 0
0, 0
0, 0
0, 0
0, 0
0, 0
0, 0
1, 0
0, 0
0, 0
0, 0
0, 0
0, 0
0, 0
0, 0
0, 0
0, 0
1, 0
0, 0
0, 0
0, 0
0, 0
1, 0
0, 0
0, 0
0, 0
0, 0
0, 0
0, 0
0, 0
0, 0
0, 0
0, 0
0, 0
0, 0
0, 0
0, 0
0, 0
0, 0
1, 0
0, 1
0, 0
0, 0
0, 0
0, 0
0, 0
0, 0
0, 0
0, 0
0, 0
0, 0
0, 0
0, 0
0, 0
0, 0
0, 0
0, 0
0, 0
0, 0
0, 0
0, 0
0, 0
0, 0
0, 0
0, 0
0, 0
0, 0
1, 0
0, 0
0, 0
0, 0
0, 0
0, 0
0, 0
0, 0
0, 0
0, 0
0, 0
0, 0
0, 0
0, 0
0, 0
0, 0
0, 0
0, 0
0, 0
0, 0
0, 0
0, 0
0, 0
1, 0
0, 0
0, 0
0, 0
0, 0
0, 0
0, 0
0, 0
0, 0
1, 0
0, 0
0, 0
0, 0
0, 0
0, 0
0, 0
0, 0
0, 0
0, 0
0, 0
0, 0
0, 0
0, 0
0, 0
0, 0
0, 0
0, 0
0, 0
0, 0
0, 0
0, 0
0, 0
0, 0
0, 0
0, 1
0, 0
0, 1
0, 0
0, 0
0, 1
0, 0
0, 0
0, 0
0, 0
0, 0
0, 0
0, 0
0, 0
0, 0
0, 0
0, 0
0, 0
0, 0
0, 0
0, 0
0, 0
0, 0
0, 0
0, 0
0, 0
0, 0
0, 0
0, 0
0, 0
0, 0
0, 0
0, 0
0, 0
0, 0
0, 0
0, 0
0, 0
0, 0
0, 0
0, 0
0, 0
0, 0
0, 0
0, 0
0, 0
0, 0
0, 0
0, 0
0, 0
0, 0
0, 0
0, 0
0, 0
0, 0
0, 0
0, 0
0, 0
0, 0
0, 0
0, 0
0, 0
0, 0
0, 0
0, 0
0, 0
0, 0
0, 0
0, 0
0, 0
0, 0
0, 0
0, 0
0, 0
0, 0
0, 0
0, 0
0, 0
0, 0
0, 0
0, 0
0, 0
0, 0
0, 0
0, 0
0, 0
0, 0
0, 0
0, 0
0, 0
0, 0
0, 0
0, 0
0, 0
0, 0
0, 0
0, 0
0, 0
0, 0
0, 0
0, 0
0, 0
0, 0
0, 0
0, 0
0, 0
0, 0
0, 0
0, 0
0, 0
0, 0
0, 0
0, 0
0, 0
0, 0
0, 0
0, 0
0, 0
0, 0
0, 0
0, 0
0, 0
0, 0
0, 0
0, 0
0, 0
0, 0
0, 0
0, 0
0, 0
0, 0
0, 0
0, 0
0, 0
0, 0
0, 0
0, 0
0, 0
0, 0
0, 0
0, 0
0, 0
0, 0
0, 0
0, 0
0, 0
0, 0
0, 0
0, 0
0, 0
0, 0
0, 0
0, 0
0, 0
0, 0
0, 0
0, 0
0, 0
0, 0
0, 0
0, 0
0, 0
0, 0
0, 0
0, 0
0, 0
0, 0
0, 0
0, 0
0, 0
0, 0
0, 0
0, 0
0, 0
0, 0
0, 0
0, 0
0, 0
0, 0
0, 0
0, 0
0, 0
0, 0
0, 0
0, 0
0, 0
0, 0
0, 0
0, 0
0, 0
0, 0
0, 0
0, 0
0, 0
0, 0
0, 0
0, 0
0, 0
0, 0
0, 0
0, 0
0, 0
0, 0
0, 0
0, 0
0, 0
0, 0
0, 0
0, 0
0, 0
0, 0
0, 0
0, 0
0, 0
0, 0
0, 0
0, 0
0, 0
0, 0
0, 0
0, 0
0, 0
0, 0
0, 0
0, 0
0, 0
0, 0
0, 0
0, 0
0, 0
0, 0
0, 0
0, 0
0, 0
0, 0
0, 0
0, 0
0, 0
0, 0
0, 0
0, 0
0, 0
0, 0
0, 0
0, 0
0, 0
0, 0
0, 0
0, 0
0, 0
0, 0
0, 0
0, 0
0, 0
0, 0
0, 0
0, 0
0, 0
0, 0
0, 0
0, 0
0, 0
0, 0
0, 0
0, 0
0, 0
0, 0
0, 0
0, 0
0, 0
0, 0
0, 0
0, 0
0, 0
0, 0
0, 0
0, 0
0, 0
0, 0
0, 0
0, 0
0, 0
0, 0
0, 0
0, 0
0, 0
0, 0
0, 0
0, 0
0, 0
0, 0
0, 0
0, 0
0, 0
0, 0
0, 0
0, 0
0, 0
0, 0
0, 0
0, 0
0, 0
0, 0
0, 0
0, 0
0, 0
0, 0
0, 0
0, 0
0, 0
0, 0
0, 0
0, 0
0, 0
0, 0
0, 0
0, 0
0, 0
0, 0
0, 0
0, 0
0, 0
0, 0
0, 0
0, 0
0, 0
0, 0
0, 0
0, 0
0, 0
0, 0
0, 0
0, 0
0, 0
0, 0
0, 0
0, 0
0, 0
0, 0
0, 0
0, 0
0, 0
0, 0
0, 0
0, 0
0, 0
0, 0
0, 0
0, 0
0, 0
0, 0
0, 0
0, 0
0, 0
0, 0
0, 0
0, 0
0, 0
0, 0
0, 0
0, 0
0, 0
0, 0
0, 0
0, 0
0, 0
0, 0
0, 0
0, 0
0, 0
0, 0
0, 0
0, 0
0, 0
0, 0
0, 0
0, 0
0, 0
0, 0
0, 0
0, 0
0, 0
0, 0
0, 0
0, 0
0, 0
#ENDOFDATA     end of spectrum data