File: host_upload/12-01-2023/Dourbes (shot-by-shot)/upload_4/ps__0257_0689790785_000rfs_shot_3292.msa
#FORMAT      : EMSA/MAS spectral data file
#VERSION     : TC202v2.0 PIXL
#TITLE       : N/A
#DATE        :       Date in the format DD-MMM-YYYY, for example 07-JUL-2010
#TIME        :             The time of day at which the spectrum was recorded, in 24-hour format
#OWNER       : PIXL Flight Model       (PIXL will use this to indicate which instrument took the data.)
#NPOINTS     : 4096     Number of data points in the spectrum (This can be zero for configuration only files)
#NCOLUMNS    : 2     Number of data columns in the spectrum (This can be zero for configuration only files)
#XUNITS      : eV
#YUNITS      : COUNTS
#DATATYPE    : YY
#XPERCHAN    : 7.862, 7.881   eV per channel (separate by commas if more than one detector)
#OFFSET      : 18.5, -22.4         eV of first channel  (separate by commas if more than one detector
#SIGNALTYPE  : XRF
#YP_TEMP     : 3.037
#LIVETIME    : 8.99261, 8.99256   seconds (separate by commas if more than one detector)
#REALTIME    : 10, 10.0   seconds (separate by commas if more than one detector)
#SPECTRUM    : start of spectrum data
0, 0
0, 0
0, 0
0, 0
0, 0
0, 0
0, 0
0, 0
0, 0
0, 0
0, 0
0, 0
0, 0
0, 0
0, 0
0, 0
0, 0
0, 0
0, 0
0, 0
0, 0
0, 0
0, 0
0, 0
0, 0
0, 0
0, 0
0, 0
0, 0
0, 0
0, 0
0, 0
0, 1
0, 0
1, 1
0, 0
1, 0
0, 0
0, 1
0, 1
0, 2
2, 0
1, 1
1, 2
0, 1
0, 3
1, 1
3, 0
2, 0
8, 9
11, 11
40, 20
37, 45
52, 57
62, 47
48, 51
38, 31
26, 18
16, 12
3, 4
6, 2
1, 4
5, 4
1, 6
6, 7
4, 3
3, 4
7, 3
13, 15
23, 27
83, 77
165, 132
283, 273
406, 374
483, 485
479, 467
421, 393
306, 266
198, 149
110, 81
60, 39
21, 26
13, 12
3, 9
4, 4
4, 3
4, 11
0, 8
3, 3
4, 1
1, 2
2, 2
0, 1
0, 1
2, 2
0, 5
2, 5
5, 5
3, 6
4, 3
3, 1
8, 2
4, 2
5, 4
4, 0
2, 4
8, 1
3, 5
9, 17
12, 12
19, 19
27, 19
32, 36
45, 34
37, 28
50, 43
37, 32
28, 21
31, 18
25, 18
16, 12
24, 24
19, 14
19, 7
15, 22
14, 9
15, 11
10, 5
9, 6
6, 7
9, 3
2, 2
3, 0
3, 2
2, 3
0, 0
5, 2
5, 3
0, 2
2, 2
3, 2
2, 2
1, 0
4, 5
4, 1
2, 0
3, 4
2, 2
3, 2
3, 6
3, 3
6, 6
6, 5
8, 12
8, 13
16, 25
19, 22
26, 21
20, 23
18, 10
20, 18
10, 19
9, 24
12, 22
9, 34
17, 52
23, 86
27, 76
23, 91
34, 66
17, 52
26, 35
19, 24
23, 13
18, 6
7, 6
10, 3
3, 4
8, 8
5, 3
8, 1
6, 2
2, 2
3, 3
7, 5
3, 6
6, 7
5, 6
6, 1
8, 7
13, 11
8, 11
12, 9
16, 24
8, 11
21, 15
12, 20
16, 17
13, 15
19, 20
17, 15
18, 10
11, 8
15, 6
10, 7
15, 8
9, 5
8, 9
11, 10
16, 19
5, 13
6, 16
7, 18
8, 14
11, 12
6, 12
5, 6
4, 7
3, 11
8, 5
7, 8
6, 5
6, 7
6, 7
6, 7
4, 8
8, 17
8, 20
7, 14
7, 13
7, 20
13, 14
10, 8
17, 9
13, 9
19, 10
14, 12
17, 7
13, 10
11, 12
13, 12
10, 6
10, 9
6, 12
17, 12
38, 29
46, 37
52, 72
82, 72
79, 84
78, 103
102, 116
90, 94
97, 80
51, 52
50, 37
36, 30
18, 18
29, 24
18, 25
18, 20
34, 24
50, 57
77, 107
199, 244
347, 458
677, 795
1115, 1373
1923, 2116
2619, 2919
3343, 3450
3804, 4009
3990, 3974
3844, 3629
3099, 2925
2446, 2166
1808, 1413
1119, 865
653, 506
329, 249
172, 135
76, 59
36, 24
19, 16
19, 20
13, 14
18, 18
12, 17
23, 16
24, 23
25, 24
44, 55
53, 78
92, 118
159, 196
246, 271
292, 364
426, 452
532, 559
562, 541
538, 594
525, 488
455, 419
335, 286
257, 190
155, 116
87, 63
41, 29
31, 22
14, 11
9, 8
3, 3
3, 13
5, 16
4, 11
12, 7
5, 10
5, 10
9, 11
10, 7
8, 0
2, 8
7, 4
3, 9
3, 6
5, 3
2, 3
4, 8
1, 12
1, 9
3, 22
0, 26
5, 36
1, 28
4, 36
4, 26
3, 17
1, 25
3, 15
5, 13
4, 4
3, 7
2, 8
4, 5
5, 6
6, 4
7, 2
6, 8
6, 4
2, 3
7, 3
1, 7
2, 2
5, 3
2, 7
1, 6
7, 5
2, 5
3, 2
4, 12
4, 6
2, 5
6, 3
7, 4
3, 6
2, 0
3, 3
2, 2
3, 5
4, 3
1, 5
2, 6
4, 8
4, 10
5, 4
2, 9
3, 8
5, 11
1, 5
2, 4
2, 6
1, 7
3, 5
3, 5
3, 6
4, 5
5, 3
5, 1
3, 2
2, 2
2, 0
3, 8
3, 3
1, 1
1, 5
3, 4
3, 2
2, 2
2, 3
2, 0
9, 3
3, 3
3, 3
3, 4
2, 2
3, 5
0, 5
5, 4
4, 5
2, 2
1, 5
3, 2
4, 2
4, 3
2, 2
0, 1
3, 1
2, 2
2, 6
2, 1
0, 7
2, 2
3, 3
4, 1
3, 3
0, 2
2, 3
2, 0
3, 4
6, 2
7, 2
6, 2
3, 2
7, 0
10, 2
9, 0
13, 2
13, 6
14, 0
14, 0
18, 0
12, 1
9, 5
9, 3
4, 2
3, 1
6, 3
2, 2
2, 4
2, 3
3, 3
4, 6
1, 4
1, 2
1, 4
2, 3
2, 7
1, 4
2, 6
2, 6
4, 10
2, 12
2, 10
0, 6
1, 9
0, 4
4, 4
1, 4
3, 2
1, 2
5, 3
5, 0
3, 2
4, 2
3, 3
2, 4
7, 3
2, 3
1, 2
4, 2
0, 4
3, 0
6, 5
1, 1
1, 4
2, 2
0, 7
0, 2
1, 3
2, 1
2, 3
2, 1
2, 0
0, 1
1, 3
2, 3
0, 1
2, 1
3, 1
2, 3
1, 1
3, 3
2, 0
6, 4
2, 5
3, 0
1, 4
3, 3
2, 3
3, 2
2, 3
4, 0
3, 2
3, 3
0, 1
0, 2
3, 4
3, 3
3, 1
0, 3
2, 2
1, 4
0, 3
1, 3
3, 0
1, 4
0, 2
1, 1
2, 2
1, 4
1, 1
1, 2
4, 1
3, 0
1, 1
2, 0
5, 1
2, 3
2, 2
8, 4
10, 6
6, 5
4, 8
7, 8
9, 10
7, 7
6, 4
1, 5
4, 4
2, 5
0, 2
1, 2
2, 2
1, 2
1, 0
0, 0
1, 1
0, 3
0, 3
3, 1
1, 3
0, 2
3, 1
3, 2
1, 1
1, 1
0, 6
1, 1
3, 3
4, 5
5, 3
1, 3
5, 3
1, 5
1, 2
1, 0
0, 1
1, 2
0, 0
1, 2
0, 2
2, 3
1, 1
2, 1
2, 0
1, 1
3, 0
2, 0
1, 1
1, 1
0, 0
0, 3
2, 0
0, 0
1, 0
2, 0
0, 0
1, 1
0, 1
1, 0
4, 1
0, 0
1, 2
2, 1
3, 2
2, 0
7, 2
2, 0
5, 1
2, 2
6, 0
2, 1
4, 0
3, 1
3, 1
0, 0
2, 1
1, 2
2, 1
2, 0
0, 1
0, 0
1, 0
0, 2
0, 1
1, 0
0, 1
0, 1
0, 2
0, 1
0, 2
0, 1
2, 1
0, 1
0, 0
0, 3
1, 1
2, 0
0, 0
1, 0
0, 1
1, 3
0, 0
0, 0
0, 0
0, 1
0, 1
0, 0
0, 1
0, 0
1, 1
0, 1
0, 0
0, 0
0, 2
0, 0
1, 3
1, 1
0, 0
0, 0
0, 0
0, 2
1, 0
0, 0
0, 0
0, 0
0, 0
0, 0
0, 0
0, 1
1, 0
0, 0
0, 0
1, 0
0, 1
0, 0
0, 0
0, 0
0, 0
1, 0
0, 0
0, 0
0, 2
1, 0
4, 1
0, 1
0, 1
0, 0
0, 0
0, 0
0, 0
1, 0
0, 0
0, 0
0, 0
0, 0
0, 0
0, 1
0, 2
0, 0
2, 1
1, 0
1, 1
1, 0
0, 0
0, 0
0, 3
0, 0
0, 0
1, 0
1, 0
0, 0
0, 0
1, 3
0, 0
1, 0
0, 0
0, 1
0, 0
1, 0
0, 0
0, 2
0, 0
0, 0
1, 1
0, 0
0, 0
0, 0
0, 1
1, 0
1, 1
1, 0
0, 0
0, 0
1, 0
0, 0
1, 0
1, 0
0, 0
0, 1
0, 0
0, 0
0, 0
0, 0
0, 0
0, 0
0, 0
0, 0
0, 0
0, 0
0, 0
1, 0
0, 0
0, 0
0, 0
0, 0
0, 0
0, 1
0, 0
0, 0
0, 0
0, 0
0, 0
0, 0
0, 0
0, 0
1, 0
1, 0
0, 0
0, 0
0, 0
1, 0
0, 1
1, 0
0, 0
0, 0
0, 0
0, 1
0, 0
0, 2
0, 1
0, 1
0, 0
0, 0
0, 0
1, 0
0, 0
0, 0
0, 1
0, 0
0, 0
1, 1
1, 1
0, 0
1, 0
0, 0
0, 0
0, 0
1, 0
0, 0
1, 0
0, 0
0, 0
0, 0
0, 0
0, 0
0, 0
0, 0
0, 3
0, 0
0, 0
0, 0
1, 0
0, 0
0, 0
0, 0
0, 1
0, 0
0, 1
0, 0
0, 0
1, 0
0, 1
0, 0
0, 0
0, 0
0, 0
0, 0
0, 0
0, 0
0, 0
0, 0
0, 0
0, 0
0, 0
0, 0
0, 0
0, 0
0, 0
0, 0
0, 0
0, 0
0, 0
0, 0
0, 1
0, 1
0, 0
0, 0
0, 1
0, 0
0, 0
1, 0
0, 1
0, 1
0, 0
0, 0
1, 0
0, 0
0, 0
0, 0
0, 0
2, 0
1, 0
0, 0
0, 0
0, 0
0, 0
0, 0
0, 0
0, 0
0, 0
0, 0
0, 0
0, 0
0, 0
1, 0
0, 0
0, 0
0, 0
1, 0
0, 0
0, 0
0, 0
0, 0
0, 0
0, 0
0, 0
0, 0
0, 0
0, 0
0, 0
1, 0
0, 0
0, 0
0, 0
0, 0
0, 1
0, 0
0, 1
0, 0
0, 0
0, 0
0, 0
0, 0
1, 0
0, 0
0, 0
0, 0
0, 0
0, 0
0, 0
0, 0
1, 0
0, 0
0, 0
0, 0
0, 0
0, 0
0, 0
0, 0
0, 1
0, 0
0, 0
1, 0
0, 0
0, 0
0, 0
0, 0
0, 0
0, 1
0, 0
0, 0
0, 0
0, 0
0, 0
0, 0
0, 0
0, 0
0, 0
0, 0
1, 0
0, 0
0, 0
0, 0
0, 0
0, 0
0, 0
0, 0
0, 0
0, 0
0, 1
0, 0
0, 0
0, 0
0, 0
0, 0
0, 0
0, 0
0, 0
0, 0
0, 0
0, 0
0, 0
0, 0
0, 0
0, 0
0, 0
0, 0
0, 0
0, 0
0, 0
0, 0
0, 0
0, 0
0, 0
0, 0
0, 0
0, 0
0, 0
0, 0
0, 0
0, 0
0, 0
0, 0
0, 0
0, 0
0, 0
0, 0
1, 0
0, 0
0, 0
0, 0
0, 0
0, 0
0, 0
0, 0
0, 0
0, 0
0, 0
0, 0
0, 0
0, 0
1, 0
0, 0
0, 0
0, 0
0, 0
0, 0
0, 0
0, 0
0, 0
0, 0
0, 0
0, 0
0, 0
0, 0
0, 0
0, 0
0, 0
0, 0
0, 0
0, 0
0, 0
0, 0
0, 0
0, 0
0, 0
0, 0
0, 0
0, 0
0, 0
0, 0
0, 0
0, 0
0, 0
0, 0
0, 0
0, 0
0, 0
0, 0
0, 0
0, 0
0, 0
0, 0
0, 0
0, 0
0, 0
0, 0
0, 0
0, 0
0, 0
0, 0
0, 0
0, 0
0, 0
0, 0
0, 0
0, 0
0, 0
0, 0
0, 0
0, 0
0, 0
0, 0
0, 0
0, 0
0, 0
0, 0
0, 0
0, 0
0, 0
0, 0
0, 0
0, 0
0, 0
0, 0
0, 0
0, 0
0, 0
0, 0
0, 0
0, 0
0, 0
0, 0
0, 0
0, 0
0, 0
0, 0
0, 0
0, 0
0, 0
0, 0
0, 0
0, 0
0, 0
0, 0
0, 0
0, 0
0, 0
0, 0
0, 0
0, 1
0, 0
0, 0
0, 0
0, 0
0, 0
0, 0
0, 0
0, 0
0, 0
0, 0
0, 0
0, 0
0, 0
0, 0
0, 0
0, 0
0, 0
0, 0
0, 0
0, 0
0, 0
0, 0
0, 0
0, 0
0, 0
0, 0
0, 0
0, 0
0, 0
0, 0
0, 0
0, 0
0, 0
0, 0
0, 0
0, 0
0, 0
0, 0
0, 0
0, 0
0, 0
0, 0
0, 0
0, 0
0, 0
0, 0
0, 0
0, 0
0, 0
0, 0
0, 0
0, 0
0, 0
0, 0
0, 0
0, 0
0, 0
0, 0
0, 0
0, 0
0, 0
0, 0
0, 0
0, 0
0, 0
0, 0
0, 0
0, 0
0, 0
0, 0
0, 0
0, 0
0, 0
0, 0
0, 0
0, 0
0, 0
0, 0
0, 0
0, 0
0, 0
0, 0
0, 0
0, 0
0, 0
0, 0
0, 0
0, 0
0, 0
0, 0
0, 0
0, 0
0, 0
0, 0
0, 0
0, 0
0, 0
0, 0
0, 0
0, 0
0, 0
0, 0
0, 0
0, 0
0, 0
0, 0
0, 0
0, 0
0, 0
0, 0
0, 0
0, 0
0, 0
0, 0
0, 0
0, 0
0, 0
0, 0
0, 0
0, 0
0, 0
0, 0
0, 0
0, 0
0, 0
0, 0
0, 0
0, 0
0, 0
0, 0
0, 0
0, 0
0, 0
0, 0
0, 0
0, 0
0, 0
0, 0
0, 0
0, 0
0, 0
0, 0
0, 0
0, 0
0, 0
0, 0
0, 0
0, 0
0, 0
0, 0
0, 0
0, 0
0, 0
0, 0
0, 0
0, 0
0, 0
0, 0
0, 0
0, 0
0, 0
0, 0
0, 0
0, 0
0, 0
0, 0
0, 0
0, 0
0, 0
0, 0
0, 0
0, 0
0, 0
0, 0
0, 0
0, 0
0, 0
0, 0
0, 0
0, 0
0, 0
0, 0
0, 0
0, 0
0, 0
0, 0
0, 0
0, 0
0, 0
0, 0
0, 0
0, 0
0, 0
0, 0
0, 0
0, 0
0, 0
0, 0
0, 0
0, 0
0, 0
0, 0
0, 0
0, 0
0, 0
0, 0
0, 0
0, 0
0, 0
0, 0
0, 0
0, 0
0, 0
0, 0
0, 0
0, 0
0, 0
0, 0
0, 0
0, 0
0, 0
0, 0
0, 0
0, 0
0, 0
0, 0
0, 0
0, 0
0, 0
0, 0
0, 0
0, 0
0, 0
0, 0
0, 0
0, 0
0, 0
0, 0
0, 0
0, 0
0, 0
0, 0
0, 0
0, 0
0, 0
0, 0
0, 0
0, 0
0, 0
0, 0
0, 0
0, 0
0, 0
0, 0
0, 0
0, 0
0, 0
0, 0
0, 0
0, 0
0, 0
0, 0
0, 0
0, 0
#ENDOFDATA     end of spectrum data