File: host_upload/12-01-2023/Dourbes (shot-by-shot)/upload_4/ps__0257_0689790785_000rfs_shot_3197.msa
#FORMAT      : EMSA/MAS spectral data file
#VERSION     : TC202v2.0 PIXL
#TITLE       : N/A
#DATE        :       Date in the format DD-MMM-YYYY, for example 07-JUL-2010
#TIME        :             The time of day at which the spectrum was recorded, in 24-hour format
#OWNER       : PIXL Flight Model       (PIXL will use this to indicate which instrument took the data.)
#NPOINTS     : 4096     Number of data points in the spectrum (This can be zero for configuration only files)
#NCOLUMNS    : 2     Number of data columns in the spectrum (This can be zero for configuration only files)
#XUNITS      : eV
#YUNITS      : COUNTS
#DATATYPE    : YY
#XPERCHAN    : 7.862, 7.881   eV per channel (separate by commas if more than one detector)
#OFFSET      : 18.5, -22.4         eV of first channel  (separate by commas if more than one detector
#SIGNALTYPE  : XRF
#YP_TEMP     : 3.005
#LIVETIME    : 8.89992, 8.8879   seconds (separate by commas if more than one detector)
#REALTIME    : 10, 10.0   seconds (separate by commas if more than one detector)
#SPECTRUM    : start of spectrum data
0, 0
0, 0
0, 0
0, 0
0, 0
0, 0
0, 0
0, 0
0, 0
0, 0
0, 0
0, 0
0, 0
0, 0
0, 0
0, 0
0, 0
0, 0
0, 0
0, 0
0, 0
0, 0
0, 0
0, 0
0, 0
0, 0
0, 0
0, 0
0, 0
0, 0
0, 0
0, 1
0, 0
1, 0
0, 0
0, 0
0, 0
1, 1
1, 0
3, 0
2, 0
0, 1
2, 1
1, 2
1, 2
1, 3
0, 1
1, 1
0, 0
2, 0
2, 3
8, 5
11, 6
15, 10
12, 14
13, 15
8, 8
7, 6
4, 4
2, 1
6, 5
2, 8
11, 14
12, 15
9, 13
11, 11
7, 9
9, 12
7, 5
9, 8
19, 23
44, 46
71, 100
123, 116
150, 152
146, 147
122, 118
96, 72
44, 42
31, 33
15, 16
8, 5
4, 3
2, 2
3, 2
1, 4
5, 1
1, 2
2, 7
3, 4
3, 2
4, 6
5, 7
4, 3
2, 3
0, 5
8, 2
4, 5
5, 4
5, 4
4, 2
4, 3
1, 5
5, 3
1, 5
0, 6
3, 10
5, 11
5, 24
9, 32
18, 41
15, 51
26, 49
34, 56
31, 46
33, 57
50, 49
34, 43
35, 46
38, 28
25, 24
23, 39
15, 18
14, 20
19, 9
14, 19
12, 13
15, 13
5, 4
5, 8
4, 7
2, 5
3, 4
3, 2
2, 3
6, 8
4, 5
6, 6
7, 3
12, 7
12, 14
10, 13
12, 13
7, 10
6, 6
6, 5
4, 10
7, 3
8, 3
6, 5
9, 7
6, 8
6, 12
8, 14
11, 13
13, 16
25, 26
26, 21
14, 23
13, 23
13, 37
11, 51
7, 67
8, 82
6, 97
5, 111
5, 98
4, 109
3, 62
2, 45
6, 37
8, 17
6, 14
3, 4
7, 7
7, 5
4, 11
5, 9
10, 12
9, 11
7, 8
16, 11
8, 14
26, 28
39, 50
99, 99
205, 200
305, 371
522, 630
811, 920
1056, 1150
1286, 1330
1296, 1318
1229, 1162
989, 941
680, 642
485, 387
280, 262
144, 147
78, 90
39, 37
26, 34
21, 21
37, 47
45, 50
74, 80
107, 121
148, 161
193, 216
225, 239
240, 238
203, 206
173, 166
125, 135
96, 98
65, 72
31, 70
28, 91
15, 88
19, 132
11, 134
21, 143
40, 154
106, 186
153, 258
351, 399
585, 617
832, 895
1112, 1219
1260, 1286
1414, 1462
1335, 1276
1090, 1090
905, 847
617, 568
410, 328
213, 154
116, 92
55, 45
37, 35
28, 15
23, 23
20, 19
19, 23
35, 37
34, 49
49, 48
83, 82
93, 116
121, 150
190, 199
248, 239
255, 249
207, 234
225, 213
172, 164
129, 111
78, 77
58, 48
44, 23
23, 22
23, 28
35, 56
71, 84
149, 184
284, 324
548, 640
916, 1122
1359, 1658
1998, 2265
2501, 2825
3041, 3242
3051, 3211
3003, 2942
2487, 2458
1993, 1803
1360, 1237
937, 733
537, 392
270, 230
131, 118
65, 48
38, 24
15, 18
8, 21
11, 8
12, 13
5, 6
17, 13
20, 18
18, 27
30, 32
45, 54
74, 99
124, 150
176, 221
253, 288
324, 384
382, 429
460, 453
441, 425
418, 376
313, 310
301, 214
207, 139
143, 104
75, 72
48, 24
28, 12
9, 3
12, 3
5, 2
0, 3
3, 8
5, 3
4, 5
3, 2
3, 5
3, 1
7, 4
5, 1
10, 3
10, 5
8, 2
6, 7
6, 5
7, 8
3, 8
10, 9
7, 7
2, 8
1, 3
7, 10
3, 1
3, 3
3, 4
3, 5
7, 0
1, 1
2, 3
1, 2
3, 2
1, 4
1, 2
4, 4
3, 7
1, 4
1, 5
6, 6
2, 7
3, 3
4, 5
0, 2
1, 6
3, 4
0, 1
3, 2
2, 2
1, 2
3, 0
3, 2
1, 0
1, 2
1, 1
5, 3
6, 4
6, 7
3, 6
7, 3
9, 5
11, 5
15, 5
15, 1
8, 1
8, 2
9, 6
8, 2
10, 2
6, 3
3, 3
1, 2
1, 2
3, 3
2, 2
6, 2
3, 2
5, 0
1, 1
4, 1
0, 2
0, 3
2, 2
2, 2
1, 2
1, 4
2, 1
3, 2
3, 1
2, 5
3, 6
2, 2
2, 1
4, 4
2, 1
2, 1
0, 1
4, 3
5, 3
2, 0
5, 2
3, 1
8, 2
5, 3
1, 0
4, 2
2, 3
3, 2
1, 2
0, 7
2, 1
1, 4
4, 6
1, 2
6, 0
3, 3
2, 0
3, 4
2, 1
0, 3
2, 1
3, 3
3, 2
4, 1
3, 5
1, 5
4, 2
3, 11
3, 11
3, 4
1, 7
2, 8
2, 9
0, 7
2, 8
2, 4
1, 5
1, 2
4, 4
2, 1
3, 3
0, 1
3, 2
2, 1
2, 5
3, 0
1, 3
0, 1
4, 3
4, 2
3, 3
3, 4
8, 7
3, 9
3, 2
6, 5
4, 3
4, 3
3, 1
1, 1
4, 1
3, 2
4, 1
2, 0
2, 1
5, 2
3, 3
1, 2
0, 1
2, 4
1, 3
1, 0
2, 4
0, 1
2, 0
0, 3
0, 0
0, 1
2, 0
3, 4
2, 2
1, 1
0, 5
0, 3
2, 2
0, 3
2, 1
4, 3
1, 4
6, 4
4, 7
2, 10
5, 2
2, 5
2, 3
4, 2
2, 3
3, 2
1, 2
1, 1
1, 0
1, 0
1, 3
2, 2
1, 2
2, 3
0, 2
1, 2
2, 0
1, 1
1, 3
2, 3
3, 2
4, 3
2, 1
2, 0
0, 2
1, 3
2, 2
2, 1
4, 2
2, 5
2, 3
0, 1
4, 2
3, 2
1, 4
1, 1
2, 4
6, 5
5, 3
4, 10
4, 3
5, 3
6, 1
3, 1
2, 4
12, 4
1, 1
2, 2
5, 5
0, 3
1, 0
0, 0
0, 1
2, 0
0, 0
0, 1
3, 2
2, 3
3, 1
1, 0
2, 1
0, 0
3, 2
2, 2
2, 0
0, 0
3, 2
0, 2
2, 1
2, 2
1, 0
3, 0
1, 2
2, 2
0, 0
2, 0
1, 0
2, 0
1, 0
0, 1
0, 2
0, 0
1, 0
0, 0
1, 0
0, 0
1, 0
0, 0
3, 0
0, 0
0, 1
0, 0
1, 2
0, 1
0, 0
0, 0
0, 2
0, 0
0, 0
0, 1
2, 0
0, 0
0, 1
2, 0
0, 3
1, 0
0, 2
0, 1
0, 0
0, 1
0, 0
0, 0
0, 0
1, 0
1, 1
0, 0
0, 0
0, 1
0, 0
0, 0
2, 0
1, 0
0, 2
0, 1
0, 0
1, 1
0, 2
0, 0
0, 0
0, 1
0, 0
1, 1
1, 0
1, 0
1, 0
2, 0
1, 0
0, 0
0, 0
0, 1
0, 1
1, 0
0, 1
0, 0
1, 0
0, 1
0, 1
0, 0
0, 0
0, 0
0, 0
0, 1
0, 0
0, 0
1, 0
1, 2
2, 2
0, 0
0, 1
0, 0
0, 0
0, 1
0, 0
0, 0
0, 1
0, 1
2, 1
0, 0
1, 0
2, 0
0, 0
0, 0
3, 1
0, 1
0, 0
0, 0
0, 0
0, 0
0, 0
0, 0
0, 1
0, 0
0, 1
0, 0
0, 0
0, 0
1, 0
0, 0
0, 0
0, 0
1, 0
0, 1
0, 0
0, 0
0, 0
1, 1
0, 0
0, 0
0, 0
0, 0
0, 0
0, 0
1, 0
0, 0
0, 1
0, 0
2, 0
0, 1
1, 1
0, 1
0, 0
0, 1
0, 0
0, 1
0, 0
0, 0
1, 0
1, 0
1, 0
0, 0
0, 0
0, 0
0, 0
0, 0
0, 3
0, 1
0, 0
0, 0
1, 0
0, 2
0, 0
0, 0
0, 0
0, 0
1, 1
0, 0
1, 0
0, 0
1, 1
1, 0
0, 0
0, 0
0, 0
0, 0
0, 1
0, 0
0, 0
0, 0
0, 0
0, 0
0, 0
0, 0
0, 1
0, 0
0, 0
0, 0
1, 0
0, 0
0, 0
0, 1
0, 0
0, 0
0, 0
0, 0
0, 0
0, 0
0, 0
0, 1
0, 0
1, 0
0, 0
0, 0
0, 0
0, 0
0, 0
0, 0
0, 0
0, 0
0, 0
0, 0
0, 0
0, 0
0, 0
0, 0
0, 0
0, 0
1, 0
0, 0
1, 0
0, 0
0, 0
0, 0
0, 0
0, 0
0, 0
0, 0
0, 0
0, 0
0, 0
0, 1
0, 0
0, 1
1, 0
0, 0
0, 0
0, 0
0, 0
0, 0
0, 0
0, 0
0, 0
0, 0
0, 0
0, 0
0, 0
0, 0
0, 0
0, 0
0, 0
0, 1
1, 0
0, 0
1, 0
0, 0
0, 0
0, 0
0, 0
0, 0
0, 0
0, 0
0, 0
0, 0
0, 1
0, 0
0, 0
0, 0
0, 0
0, 1
0, 0
0, 0
0, 0
0, 0
0, 0
0, 0
0, 0
0, 0
0, 1
0, 0
0, 0
0, 0
0, 0
1, 0
0, 0
0, 1
0, 0
0, 0
0, 0
0, 0
0, 0
0, 0
0, 0
0, 0
0, 0
0, 0
0, 0
0, 0
0, 0
0, 0
0, 0
0, 0
0, 0
0, 0
0, 1
0, 0
0, 0
0, 0
0, 0
0, 0
0, 0
0, 0
0, 0
0, 0
0, 0
0, 0
0, 0
1, 0
0, 0
0, 0
0, 0
0, 0
0, 0
0, 0
0, 0
0, 0
0, 0
0, 0
0, 0
0, 0
0, 0
0, 0
0, 0
0, 0
0, 1
0, 1
0, 0
0, 0
1, 0
0, 0
0, 0
0, 0
0, 0
0, 0
0, 0
0, 0
0, 0
0, 0
0, 0
0, 0
0, 0
0, 0
0, 0
0, 0
0, 0
0, 0
0, 0
0, 0
0, 0
0, 1
0, 0
0, 0
0, 0
0, 0
0, 0
0, 0
0, 0
0, 0
0, 0
0, 0
0, 0
0, 0
0, 0
0, 0
0, 0
0, 0
0, 0
0, 0
0, 0
0, 0
0, 0
0, 0
0, 0
0, 0
0, 0
0, 0
0, 0
0, 0
0, 0
0, 0
0, 0
0, 0
0, 0
0, 0
0, 0
0, 0
0, 0
0, 0
0, 0
0, 0
0, 0
0, 0
0, 0
0, 0
0, 0
0, 0
0, 0
0, 0
0, 0
0, 0
0, 0
0, 0
0, 0
0, 0
0, 0
0, 0
0, 0
0, 0
0, 0
0, 0
0, 0
0, 0
0, 0
0, 0
0, 0
0, 0
0, 0
0, 0
0, 0
0, 0
0, 0
0, 0
0, 0
0, 0
0, 0
0, 0
0, 0
0, 0
0, 0
0, 0
0, 0
0, 0
0, 0
0, 0
0, 0
0, 0
0, 0
0, 0
0, 0
0, 0
0, 0
0, 0
0, 0
0, 0
0, 0
0, 0
0, 0
0, 0
0, 0
0, 0
0, 0
1, 0
0, 0
0, 0
0, 0
0, 0
0, 0
0, 0
0, 0
0, 0
0, 0
0, 0
0, 0
0, 0
0, 0
0, 0
0, 0
0, 0
0, 0
0, 0
0, 0
0, 0
0, 0
1, 0
0, 0
0, 0
0, 0
1, 0
0, 0
0, 0
0, 0
0, 0
0, 0
0, 0
0, 0
0, 0
0, 0
0, 0
0, 0
0, 0
0, 0
0, 0
0, 0
0, 0
0, 0
0, 0
0, 0
0, 0
0, 0
0, 0
0, 0
0, 0
0, 0
0, 0
0, 0
0, 0
0, 0
0, 0
0, 0
0, 0
0, 0
0, 0
0, 0
0, 0
0, 0
0, 0
0, 0
0, 0
0, 0
0, 0
0, 0
0, 0
0, 0
0, 0
0, 0
0, 0
0, 0
0, 0
0, 0
0, 0
0, 0
0, 0
0, 0
0, 0
0, 0
0, 0
0, 0
0, 0
0, 0
0, 0
0, 0
0, 0
0, 0
0, 0
0, 0
0, 0
0, 0
0, 0
0, 0
0, 0
0, 0
0, 0
0, 0
0, 0
0, 0
0, 0
0, 0
0, 0
0, 0
0, 0
0, 0
0, 0
0, 0
0, 0
0, 0
0, 0
0, 0
0, 0
0, 0
0, 0
0, 0
0, 0
0, 0
0, 0
0, 0
0, 0
0, 0
0, 0
0, 0
0, 0
0, 0
0, 0
0, 0
0, 0
0, 0
0, 0
0, 0
0, 0
0, 0
0, 0
0, 0
0, 0
0, 0
0, 0
0, 0
0, 0
0, 0
0, 0
0, 0
0, 0
0, 0
0, 0
0, 0
0, 0
0, 0
0, 0
0, 0
0, 0
0, 0
0, 0
0, 0
0, 0
0, 0
0, 0
0, 0
0, 0
0, 0
0, 0
0, 0
0, 0
0, 0
0, 0
0, 0
0, 0
0, 0
0, 0
0, 0
0, 0
0, 0
0, 0
0, 0
0, 0
0, 0
0, 0
0, 0
0, 0
0, 0
0, 0
0, 0
0, 0
0, 0
0, 0
0, 0
0, 0
0, 0
0, 0
0, 0
0, 0
0, 0
0, 0
0, 0
0, 0
0, 0
0, 0
0, 0
0, 0
0, 0
0, 0
0, 0
0, 0
0, 0
0, 0
0, 0
0, 0
0, 0
0, 0
0, 0
0, 0
0, 0
0, 0
0, 0
0, 0
0, 0
0, 0
0, 0
0, 0
0, 0
0, 0
0, 0
0, 0
0, 0
0, 0
0, 0
0, 0
0, 0
0, 0
0, 0
0, 0
0, 0
0, 0
0, 0
0, 0
0, 0
0, 0
0, 0
0, 0
0, 0
0, 0
0, 0
0, 0
0, 0
0, 0
0, 0
0, 0
0, 0
0, 0
0, 0
0, 0
0, 0
0, 0
0, 0
0, 0
0, 0
0, 0
0, 0
0, 0
0, 0
0, 0
0, 0
0, 0
0, 0
0, 0
0, 0
0, 0
0, 0
0, 0
0, 0
0, 0
0, 0
0, 0
0, 0
0, 0
0, 0
0, 0
0, 0
0, 0
0, 0
0, 0
0, 0
0, 0
0, 0
0, 0
0, 0
0, 0
0, 0
0, 0
0, 0
0, 0
0, 0
0, 0
0, 0
0, 0
0, 0
0, 0
0, 0
0, 0
0, 0
0, 0
0, 0
0, 0
0, 0
0, 0
0, 0
0, 0
0, 0
0, 0
0, 0
0, 0
0, 0
0, 0
0, 0
0, 0
0, 0
0, 0
0, 0
0, 0
0, 0
0, 0
0, 0
0, 0
0, 0
0, 0
0, 0
0, 0
0, 0
0, 0
0, 0
#ENDOFDATA     end of spectrum data