File: host_upload/12-01-2023/Dourbes (shot-by-shot)/upload_4/ps__0257_0689790785_000rfs_shot_3245.msa
#FORMAT      : EMSA/MAS spectral data file
#VERSION     : TC202v2.0 PIXL
#TITLE       : N/A
#DATE        :       Date in the format DD-MMM-YYYY, for example 07-JUL-2010
#TIME        :             The time of day at which the spectrum was recorded, in 24-hour format
#OWNER       : PIXL Flight Model       (PIXL will use this to indicate which instrument took the data.)
#NPOINTS     : 4096     Number of data points in the spectrum (This can be zero for configuration only files)
#NCOLUMNS    : 2     Number of data columns in the spectrum (This can be zero for configuration only files)
#XUNITS      : eV
#YUNITS      : COUNTS
#DATATYPE    : YY
#XPERCHAN    : 7.862, 7.881   eV per channel (separate by commas if more than one detector)
#OFFSET      : 18.5, -22.4         eV of first channel  (separate by commas if more than one detector
#SIGNALTYPE  : XRF
#YP_TEMP     : 3.069
#LIVETIME    : 9.06445, 9.07183   seconds (separate by commas if more than one detector)
#REALTIME    : 10, 10.0   seconds (separate by commas if more than one detector)
#SPECTRUM    : start of spectrum data
0, 0
0, 0
0, 0
0, 0
0, 0
0, 0
0, 0
0, 0
0, 0
0, 0
0, 0
0, 0
0, 0
0, 0
0, 0
0, 0
0, 0
0, 0
0, 0
0, 0
0, 0
0, 0
0, 0
0, 0
0, 0
0, 0
0, 0
0, 0
0, 0
0, 0
0, 0
0, 0
1, 0
0, 0
1, 1
0, 0
2, 0
2, 0
7, 3
3, 1
3, 3
3, 1
6, 5
0, 0
2, 2
6, 5
2, 2
1, 4
4, 4
9, 6
8, 10
19, 18
33, 25
45, 32
47, 38
32, 33
28, 32
21, 24
6, 7
5, 0
3, 6
5, 2
6, 4
2, 3
3, 5
4, 8
5, 2
8, 12
15, 15
43, 44
101, 99
216, 197
327, 341
515, 540
623, 606
603, 600
521, 527
355, 412
230, 179
131, 113
57, 63
39, 35
8, 18
12, 9
8, 3
3, 6
3, 10
3, 7
1, 1
5, 2
1, 8
9, 5
10, 9
21, 19
42, 45
83, 96
144, 142
180, 195
244, 257
221, 230
218, 202
177, 147
97, 88
72, 61
39, 40
21, 23
22, 24
32, 34
39, 47
50, 54
79, 80
133, 122
137, 154
155, 166
161, 159
134, 159
109, 133
102, 98
96, 83
69, 63
71, 53
57, 63
67, 38
34, 32
31, 41
32, 36
20, 21
27, 23
25, 19
20, 14
11, 16
7, 8
10, 9
6, 5
2, 7
4, 9
10, 5
4, 8
8, 9
6, 5
5, 7
8, 12
8, 9
4, 5
6, 8
4, 2
7, 4
3, 6
2, 5
8, 7
12, 10
15, 10
24, 20
35, 28
43, 50
74, 69
96, 91
98, 80
70, 105
74, 59
50, 46
45, 30
22, 25
17, 12
7, 5
4, 5
7, 6
10, 12
8, 20
11, 22
14, 28
19, 17
20, 15
16, 18
13, 14
17, 6
9, 14
9, 12
9, 6
11, 12
10, 14
13, 7
8, 10
7, 5
8, 4
6, 6
6, 12
7, 11
15, 10
11, 12
17, 10
16, 18
12, 13
15, 24
13, 18
24, 29
28, 22
23, 19
31, 21
19, 25
18, 22
15, 16
9, 13
12, 23
8, 10
9, 11
8, 13
10, 12
13, 11
11, 14
21, 12
9, 8
11, 14
14, 13
9, 9
13, 17
13, 8
15, 10
10, 14
8, 11
9, 15
11, 12
10, 9
15, 15
13, 13
16, 12
15, 21
22, 19
12, 13
13, 13
20, 13
14, 23
19, 23
17, 14
14, 18
15, 12
16, 15
15, 10
9, 16
20, 14
15, 16
12, 11
13, 22
15, 17
23, 17
27, 45
37, 48
55, 56
79, 90
97, 83
105, 118
131, 110
97, 75
80, 64
47, 63
33, 47
41, 23
30, 22
31, 22
23, 20
19, 16
24, 44
39, 46
60, 78
130, 164
241, 298
468, 526
724, 924
1214, 1456
1725, 2055
2188, 2463
2594, 2719
2704, 2713
2567, 2558
2186, 2017
1762, 1484
1223, 941
726, 578
488, 323
231, 169
117, 81
77, 43
40, 33
23, 24
29, 30
17, 25
29, 25
21, 24
23, 31
29, 21
42, 32
35, 44
53, 56
82, 80
97, 144
180, 192
224, 265
293, 357
358, 358
393, 419
403, 387
415, 330
339, 301
278, 197
172, 138
111, 92
74, 54
33, 21
26, 10
12, 12
12, 13
10, 7
8, 6
5, 8
11, 11
9, 10
5, 10
6, 5
9, 11
12, 7
14, 7
2, 7
7, 7
4, 4
5, 3
9, 9
5, 7
4, 8
7, 11
6, 8
6, 9
6, 7
6, 9
5, 7
5, 6
5, 5
10, 6
5, 6
5, 8
6, 7
6, 6
7, 6
8, 11
6, 7
6, 6
3, 8
6, 5
4, 5
7, 11
3, 7
5, 7
8, 8
4, 7
5, 4
12, 10
3, 9
5, 6
4, 2
8, 8
4, 6
7, 4
6, 7
5, 9
5, 5
9, 9
10, 8
9, 15
7, 8
6, 8
9, 9
10, 10
8, 4
11, 5
8, 7
6, 4
9, 6
5, 6
4, 3
2, 6
5, 4
5, 3
2, 6
6, 6
10, 2
9, 2
9, 3
10, 2
4, 6
8, 6
7, 8
10, 9
3, 6
8, 7
12, 7
4, 4
5, 2
11, 4
4, 3
4, 6
8, 3
6, 4
9, 3
5, 6
4, 5
5, 6
3, 4
9, 4
1, 4
1, 8
5, 3
5, 8
5, 4
5, 4
4, 2
4, 8
8, 2
2, 4
7, 6
7, 9
5, 8
5, 1
6, 4
4, 2
1, 1
6, 3
9, 5
4, 10
9, 4
8, 7
1, 5
6, 4
2, 9
1, 3
4, 5
8, 5
1, 6
3, 3
5, 7
5, 4
5, 4
3, 7
5, 5
7, 3
7, 6
4, 6
7, 5
6, 5
8, 4
5, 4
2, 1
2, 5
1, 2
3, 7
4, 5
2, 4
3, 5
7, 6
6, 8
2, 4
2, 0
1, 5
1, 3
3, 7
6, 2
2, 6
5, 0
6, 5
5, 4
6, 3
2, 7
5, 0
3, 2
4, 3
1, 3
3, 2
3, 5
0, 6
2, 3
2, 1
0, 2
2, 2
2, 2
3, 3
3, 4
2, 0
6, 1
3, 3
6, 2
4, 3
4, 3
4, 2
3, 1
3, 3
2, 6
5, 6
3, 2
3, 2
2, 4
3, 3
2, 3
3, 1
5, 2
3, 1
3, 4
2, 3
5, 3
3, 3
1, 2
4, 4
3, 3
2, 1
3, 1
2, 1
1, 2
3, 3
3, 4
2, 1
3, 3
7, 2
0, 2
3, 2
3, 1
2, 3
4, 5
4, 3
4, 1
1, 3
6, 3
3, 2
1, 2
3, 2
5, 2
1, 3
1, 1
0, 2
4, 4
0, 5
4, 2
6, 3
2, 4
5, 4
4, 1
7, 4
6, 7
6, 3
8, 3
4, 2
6, 2
5, 3
1, 2
1, 2
3, 1
0, 3
2, 4
2, 0
0, 3
0, 1
3, 2
3, 3
3, 1
1, 2
0, 3
3, 1
1, 1
3, 4
5, 3
1, 4
3, 3
2, 5
0, 3
1, 2
4, 2
0, 2
3, 3
1, 0
4, 0
1, 0
3, 1
3, 1
4, 2
1, 6
0, 1
2, 3
2, 1
3, 1
0, 1
1, 2
5, 0
4, 1
4, 1
0, 3
1, 1
2, 1
1, 2
0, 1
2, 0
0, 0
0, 3
2, 1
0, 2
1, 2
1, 1
3, 2
1, 0
0, 1
0, 1
3, 1
1, 3
1, 3
0, 0
1, 0
2, 2
0, 1
1, 1
2, 2
0, 4
2, 0
0, 1
0, 0
0, 1
0, 4
2, 0
0, 0
1, 3
1, 2
1, 2
0, 1
0, 1
0, 2
3, 2
0, 2
2, 0
1, 1
0, 1
1, 0
1, 0
0, 2
0, 0
1, 0
0, 1
1, 1
0, 0
0, 0
1, 0
1, 2
0, 0
0, 0
1, 2
0, 1
0, 0
0, 0
0, 0
0, 1
1, 0
2, 0
1, 3
0, 0
0, 0
1, 0
0, 1
1, 0
0, 0
1, 0
2, 0
1, 1
0, 0
0, 1
0, 0
2, 3
0, 0
0, 0
1, 1
0, 0
0, 0
1, 0
2, 1
0, 1
1, 0
0, 0
0, 2
0, 0
1, 0
1, 0
0, 0
0, 0
0, 0
1, 1
0, 1
0, 0
0, 0
1, 1
1, 1
0, 0
1, 1
1, 0
0, 0
1, 0
2, 0
0, 0
0, 0
0, 0
0, 3
0, 0
0, 0
0, 0
0, 1
0, 0
0, 1
0, 0
0, 0
2, 0
0, 0
0, 0
1, 2
1, 0
0, 1
1, 1
1, 0
0, 1
0, 0
0, 0
0, 1
1, 0
1, 1
1, 0
1, 0
0, 0
0, 0
0, 0
0, 1
0, 0
0, 2
1, 0
0, 1
0, 1
1, 0
0, 0
0, 0
2, 1
1, 0
0, 1
1, 1
1, 0
0, 1
0, 0
1, 2
1, 0
0, 0
0, 0
1, 0
0, 0
0, 0
1, 1
0, 0
0, 0
0, 0
0, 0
0, 0
0, 0
1, 0
0, 0
1, 2
2, 0
0, 0
0, 1
0, 0
0, 0
0, 0
0, 0
0, 0
0, 0
0, 0
0, 0
0, 0
0, 1
1, 0
0, 0
0, 1
0, 1
0, 0
1, 1
0, 2
0, 0
1, 0
0, 0
0, 1
1, 0
0, 0
0, 0
0, 1
0, 0
0, 0
0, 0
0, 0
0, 1
0, 0
0, 0
0, 0
0, 1
0, 1
0, 0
0, 0
0, 1
0, 0
0, 0
1, 1
1, 0
0, 0
0, 2
0, 1
1, 1
1, 0
0, 0
0, 0
0, 0
0, 0
0, 0
0, 0
0, 0
0, 1
0, 0
0, 0
0, 0
0, 0
0, 0
0, 0
0, 0
0, 0
0, 0
0, 0
1, 1
0, 0
0, 0
0, 1
0, 0
0, 0
0, 0
0, 0
0, 0
0, 0
0, 0
0, 0
0, 0
1, 0
0, 0
0, 0
0, 0
0, 0
0, 0
1, 0
0, 0
0, 0
0, 1
0, 0
0, 1
0, 0
0, 0
0, 0
0, 0
0, 0
0, 0
0, 0
0, 0
0, 0
1, 0
0, 0
0, 0
0, 0
0, 0
0, 0
0, 0
0, 0
0, 0
0, 0
0, 0
0, 0
1, 0
0, 0
0, 0
0, 0
0, 0
0, 0
0, 0
0, 0
0, 1
0, 0
0, 0
0, 0
0, 0
0, 0
0, 0
0, 0
0, 0
0, 0
0, 0
0, 0
0, 0
0, 0
0, 0
0, 0
0, 0
0, 0
1, 0
0, 0
0, 0
0, 0
0, 0
0, 0
0, 0
0, 0
0, 1
1, 0
0, 0
0, 0
0, 0
0, 0
0, 0
0, 0
0, 1
0, 0
0, 0
0, 0
0, 0
0, 0
0, 0
0, 0
0, 0
0, 0
0, 0
0, 0
0, 0
0, 1
0, 0
0, 0
0, 0
0, 0
0, 0
0, 0
0, 0
0, 0
0, 0
0, 0
0, 0
0, 0
0, 0
0, 0
0, 0
0, 0
0, 0
0, 0
0, 0
0, 0
0, 0
0, 0
0, 0
0, 0
0, 0
0, 0
0, 0
0, 0
0, 0
0, 0
0, 0
0, 0
0, 0
0, 0
0, 0
0, 0
0, 0
0, 0
0, 0
0, 0
0, 0
0, 0
0, 0
0, 0
1, 0
0, 0
0, 0
0, 0
0, 0
0, 0
0, 0
0, 0
0, 0
0, 0
0, 0
0, 0
0, 0
0, 0
0, 0
0, 1
0, 0
0, 0
0, 0
0, 0
0, 0
0, 0
0, 0
0, 0
0, 0
0, 0
0, 0
0, 0
0, 0
0, 0
0, 0
0, 0
0, 0
0, 0
0, 0
0, 0
0, 0
0, 0
0, 0
0, 0
0, 0
0, 0
0, 0
0, 0
0, 0
0, 0
0, 0
0, 0
0, 0
0, 0
0, 0
0, 0
0, 0
0, 0
0, 0
0, 0
0, 0
0, 0
0, 0
0, 0
0, 0
0, 0
0, 0
0, 0
0, 0
0, 0
0, 0
0, 0
0, 0
0, 0
0, 0
0, 0
0, 0
0, 0
0, 0
0, 0
0, 0
0, 0
0, 0
0, 0
0, 0
0, 0
0, 0
0, 0
0, 0
0, 0
0, 0
0, 0
0, 0
0, 0
0, 0
0, 0
0, 0
0, 0
0, 0
0, 0
0, 0
0, 0
0, 0
0, 0
1, 0
0, 0
0, 0
0, 0
0, 0
0, 0
0, 0
0, 0
0, 0
0, 0
0, 0
0, 0
0, 0
0, 0
0, 0
0, 0
0, 0
0, 0
0, 0
0, 0
0, 0
0, 0
0, 0
0, 0
0, 0
0, 0
0, 0
0, 0
0, 0
0, 0
0, 0
0, 0
0, 0
0, 0
0, 0
0, 0
0, 0
0, 0
0, 0
0, 0
0, 0
0, 0
0, 0
0, 0
0, 0
0, 0
0, 0
0, 0
0, 0
0, 0
0, 0
0, 0
0, 0
0, 0
0, 0
0, 0
0, 0
0, 0
0, 0
0, 0
0, 0
0, 0
0, 0
0, 0
0, 0
0, 0
0, 0
0, 0
0, 0
0, 0
0, 0
0, 0
0, 0
0, 0
0, 0
0, 0
0, 0
0, 0
0, 0
0, 0
0, 0
0, 0
0, 0
0, 0
0, 0
0, 0
0, 0
0, 0
0, 0
0, 0
0, 0
0, 0
0, 0
0, 0
0, 0
0, 0
0, 0
0, 0
0, 0
0, 0
0, 0
0, 0
0, 0
0, 0
0, 0
0, 0
0, 0
0, 0
0, 0
0, 0
0, 0
0, 0
0, 0
0, 0
0, 0
0, 0
0, 0
0, 0
0, 0
0, 0
0, 0
0, 0
0, 0
0, 0
0, 0
0, 0
0, 0
0, 0
0, 0
0, 0
0, 0
0, 0
0, 0
0, 0
0, 0
0, 0
0, 0
0, 0
0, 0
0, 0
0, 0
0, 0
0, 0
0, 0
0, 0
0, 0
0, 0
0, 0
0, 0
0, 0
0, 0
0, 0
0, 0
0, 0
0, 0
0, 0
0, 0
0, 0
0, 0
0, 0
0, 0
0, 0
0, 0
0, 0
0, 0
0, 0
0, 0
0, 0
0, 0
0, 0
0, 0
0, 0
0, 0
0, 0
0, 0
0, 0
0, 0
0, 0
0, 0
0, 0
0, 0
0, 0
0, 0
0, 0
0, 0
0, 0
0, 0
0, 0
0, 0
0, 0
0, 0
0, 0
0, 0
0, 0
0, 0
0, 0
0, 0
0, 0
0, 0
0, 0
0, 0
0, 0
0, 0
0, 0
0, 0
0, 0
0, 0
0, 0
0, 0
0, 0
0, 0
0, 0
0, 0
0, 0
0, 0
0, 0
0, 0
0, 0
0, 0
0, 0
0, 0
0, 0
0, 0
0, 0
0, 0
0, 0
0, 0
0, 0
0, 0
0, 0
0, 0
0, 0
0, 0
0, 0
0, 0
0, 0
0, 0
0, 0
0, 0
0, 0
0, 0
0, 0
0, 0
0, 0
0, 0
0, 0
0, 0
0, 0
0, 0
0, 0
0, 0
0, 0
0, 0
0, 0
0, 0
0, 0
0, 0
0, 0
0, 0
0, 0
0, 0
0, 0
0, 0
0, 0
0, 0
0, 0
0, 0
0, 0
0, 0
0, 0
0, 0
0, 0
0, 0
0, 0
0, 0
0, 0
0, 0
0, 0
0, 0
0, 0
0, 0
0, 0
0, 0
0, 0
0, 0
0, 0
0, 0
0, 0
0, 0
0, 0
#ENDOFDATA     end of spectrum data