File: host_upload/12-01-2023/Dourbes (shot-by-shot)/upload_4/ps__0257_0689790785_000rfs_shot_3242.msa
#FORMAT      : EMSA/MAS spectral data file
#VERSION     : TC202v2.0 PIXL
#TITLE       : N/A
#DATE        :       Date in the format DD-MMM-YYYY, for example 07-JUL-2010
#TIME        :             The time of day at which the spectrum was recorded, in 24-hour format
#OWNER       : PIXL Flight Model       (PIXL will use this to indicate which instrument took the data.)
#NPOINTS     : 4096     Number of data points in the spectrum (This can be zero for configuration only files)
#NCOLUMNS    : 2     Number of data columns in the spectrum (This can be zero for configuration only files)
#XUNITS      : eV
#YUNITS      : COUNTS
#DATATYPE    : YY
#XPERCHAN    : 7.862, 7.881   eV per channel (separate by commas if more than one detector)
#OFFSET      : 18.5, -22.4         eV of first channel  (separate by commas if more than one detector
#SIGNALTYPE  : XRF
#YP_TEMP     : 3.23
#LIVETIME    : 9.03941, 9.05897   seconds (separate by commas if more than one detector)
#REALTIME    : 10, 10.0   seconds (separate by commas if more than one detector)
#SPECTRUM    : start of spectrum data
0, 0
0, 0
0, 0
0, 0
0, 0
0, 0
0, 0
0, 0
0, 0
0, 0
0, 0
0, 0
0, 0
0, 0
0, 0
0, 0
0, 0
0, 0
0, 0
0, 0
0, 0
0, 0
0, 0
0, 0
0, 0
0, 0
0, 0
0, 0
0, 0
1, 0
0, 0
0, 0
0, 0
2, 0
0, 0
2, 1
1, 0
4, 2
3, 1
5, 2
3, 3
5, 0
4, 2
4, 4
5, 1
1, 2
1, 2
2, 1
2, 2
3, 2
6, 8
16, 14
28, 17
32, 35
29, 29
29, 24
24, 22
15, 16
11, 5
6, 6
3, 4
8, 1
4, 6
6, 1
5, 4
2, 5
9, 5
12, 8
28, 25
70, 66
131, 137
305, 292
619, 487
810, 743
996, 874
966, 851
835, 716
613, 550
329, 300
203, 169
79, 112
55, 46
23, 23
14, 8
10, 10
2, 4
3, 2
2, 3
2, 2
1, 0
0, 2
4, 1
3, 3
5, 4
11, 13
10, 12
16, 24
27, 21
27, 32
34, 30
27, 27
22, 14
23, 14
12, 16
9, 10
13, 11
13, 9
23, 20
37, 51
70, 73
95, 106
155, 140
190, 183
211, 186
170, 195
212, 182
172, 148
128, 115
94, 91
76, 77
71, 55
57, 48
37, 46
43, 37
45, 41
35, 20
14, 36
28, 24
20, 28
15, 18
19, 14
4, 6
9, 5
4, 5
2, 3
8, 9
5, 11
9, 4
8, 7
8, 11
12, 9
11, 8
5, 9
5, 12
10, 7
7, 6
4, 4
3, 5
4, 3
6, 1
6, 9
11, 8
16, 8
23, 20
34, 32
56, 43
62, 75
56, 54
62, 55
45, 63
39, 29
28, 20
11, 12
11, 6
4, 5
8, 3
7, 6
8, 7
13, 5
9, 7
15, 18
16, 12
12, 18
17, 17
9, 12
15, 9
15, 16
8, 10
14, 9
10, 10
13, 8
7, 11
11, 8
5, 8
4, 10
10, 4
8, 9
11, 9
16, 9
11, 4
16, 13
19, 11
14, 15
16, 12
21, 20
25, 13
21, 21
31, 23
22, 26
23, 28
25, 18
16, 21
20, 13
18, 13
10, 12
16, 10
10, 10
10, 11
13, 15
14, 8
14, 15
12, 14
13, 14
10, 8
19, 15
16, 12
11, 14
6, 13
14, 5
8, 20
18, 15
23, 9
5, 15
11, 15
14, 12
16, 22
23, 10
16, 16
18, 16
17, 26
11, 19
14, 17
15, 12
13, 15
30, 7
15, 17
13, 15
18, 8
10, 9
14, 12
10, 15
13, 13
14, 12
10, 17
17, 24
29, 22
32, 41
46, 43
59, 62
74, 54
93, 85
94, 61
73, 62
77, 61
57, 39
44, 26
30, 29
18, 27
21, 8
25, 21
23, 22
29, 24
46, 45
80, 84
141, 156
303, 313
566, 582
885, 994
1459, 1490
1927, 2006
2501, 2535
2960, 2751
3094, 2846
2952, 2520
2533, 2135
1925, 1627
1354, 983
890, 640
496, 333
302, 192
139, 88
78, 51
53, 39
26, 25
26, 26
19, 19
33, 13
24, 35
23, 24
40, 36
37, 34
46, 34
54, 53
72, 95
125, 138
195, 205
249, 261
333, 369
407, 459
480, 450
504, 447
414, 346
343, 318
284, 204
184, 123
148, 96
66, 50
47, 26
23, 19
15, 10
9, 9
7, 2
7, 9
5, 11
12, 6
12, 6
15, 9
10, 14
14, 5
11, 11
13, 11
7, 9
15, 10
7, 3
10, 4
14, 6
8, 4
2, 9
7, 3
3, 6
7, 5
7, 3
9, 9
4, 8
2, 10
7, 6
6, 8
9, 8
7, 3
7, 10
6, 5
9, 7
11, 10
12, 8
8, 9
8, 6
7, 3
6, 6
5, 8
10, 11
5, 5
13, 4
9, 2
6, 4
2, 7
5, 6
4, 5
3, 3
6, 6
7, 8
7, 6
5, 8
8, 4
11, 5
11, 1
11, 6
7, 9
9, 5
13, 4
9, 10
7, 6
5, 2
8, 3
11, 5
7, 7
6, 5
2, 3
8, 6
8, 3
2, 8
2, 7
11, 4
7, 3
1, 8
6, 5
4, 5
5, 4
11, 4
8, 8
6, 7
3, 5
4, 8
9, 10
10, 4
4, 9
8, 8
5, 5
6, 4
5, 3
3, 3
2, 6
3, 4
5, 5
7, 5
7, 8
4, 8
2, 7
3, 6
1, 6
3, 6
7, 6
3, 7
4, 5
5, 4
3, 5
4, 3
4, 3
6, 2
6, 5
3, 2
9, 2
10, 1
4, 6
1, 4
3, 1
3, 3
4, 4
2, 3
6, 5
1, 6
5, 5
3, 6
6, 2
6, 6
3, 3
3, 6
3, 3
3, 4
3, 3
3, 6
5, 2
1, 3
5, 2
2, 8
5, 1
6, 4
6, 7
5, 2
4, 5
8, 1
3, 3
5, 1
4, 3
5, 1
3, 4
3, 2
6, 2
5, 3
4, 4
1, 3
2, 3
3, 4
3, 2
2, 4
6, 2
2, 2
4, 2
1, 2
3, 0
2, 1
3, 4
2, 3
2, 3
1, 2
1, 2
5, 3
4, 1
2, 2
4, 2
3, 4
4, 2
3, 5
2, 0
2, 4
3, 4
2, 3
4, 1
5, 3
2, 1
3, 5
6, 1
2, 4
3, 2
3, 2
4, 2
4, 0
4, 7
0, 3
4, 1
1, 5
4, 3
6, 1
1, 3
3, 2
2, 2
5, 3
2, 2
4, 3
1, 2
4, 1
5, 2
5, 2
2, 1
4, 2
2, 0
2, 4
2, 2
1, 1
3, 2
1, 4
4, 1
1, 7
0, 2
2, 3
5, 4
2, 2
2, 5
4, 2
3, 1
2, 4
2, 1
2, 2
3, 3
1, 1
3, 5
4, 3
3, 3
7, 4
4, 0
3, 2
6, 8
5, 5
11, 5
5, 3
3, 4
3, 5
4, 4
3, 6
4, 4
3, 1
0, 2
1, 1
1, 1
0, 1
3, 0
1, 1
3, 0
5, 2
2, 1
3, 2
0, 3
1, 0
0, 3
0, 4
0, 1
2, 2
2, 2
2, 2
1, 2
2, 2
3, 5
3, 1
3, 0
4, 2
2, 1
4, 1
2, 0
2, 3
1, 0
3, 0
1, 2
0, 2
0, 4
1, 0
1, 0
1, 2
5, 0
2, 1
1, 0
3, 1
1, 1
2, 0
3, 0
2, 2
1, 0
2, 1
1, 1
2, 1
1, 0
1, 0
3, 1
2, 1
2, 2
1, 0
1, 1
0, 0
2, 2
1, 0
1, 1
2, 2
0, 1
1, 1
2, 2
1, 0
0, 1
1, 0
1, 0
3, 0
1, 0
3, 1
2, 0
0, 1
2, 0
1, 0
0, 1
0, 0
1, 1
2, 1
0, 0
1, 0
0, 3
1, 0
0, 1
1, 1
1, 1
0, 2
1, 1
1, 0
0, 2
0, 0
1, 0
2, 0
2, 0
2, 2
0, 0
1, 3
1, 0
0, 0
0, 0
0, 0
1, 0
0, 1
1, 2
1, 0
0, 1
0, 1
0, 1
0, 0
0, 0
0, 1
1, 1
0, 1
1, 1
1, 1
0, 0
2, 1
3, 0
1, 0
0, 1
0, 1
0, 1
0, 0
0, 0
0, 0
1, 0
0, 0
0, 0
1, 0
0, 0
1, 0
0, 2
0, 0
3, 0
0, 0
0, 1
0, 0
0, 0
1, 0
0, 0
2, 0
1, 0
0, 0
1, 0
1, 1
0, 0
2, 0
0, 0
0, 0
0, 0
0, 0
0, 2
0, 1
0, 1
1, 0
0, 0
0, 0
0, 1
0, 0
0, 0
0, 0
0, 0
0, 0
0, 1
0, 0
0, 1
0, 0
0, 0
1, 0
0, 2
1, 0
1, 1
0, 1
0, 0
0, 0
0, 1
0, 0
0, 0
0, 0
1, 0
1, 0
0, 0
0, 1
0, 1
0, 0
0, 1
0, 0
0, 1
1, 0
0, 0
0, 0
0, 0
0, 0
0, 1
0, 0
1, 0
0, 0
0, 1
0, 0
0, 0
0, 0
0, 0
0, 1
0, 2
0, 0
0, 1
2, 0
0, 2
0, 0
0, 0
1, 1
0, 0
0, 0
1, 0
1, 1
1, 0
0, 0
0, 0
1, 0
0, 0
0, 0
0, 0
1, 0
0, 0
1, 1
0, 1
0, 0
0, 0
0, 1
0, 0
0, 0
0, 1
0, 0
0, 0
1, 0
0, 1
0, 0
0, 1
0, 0
0, 0
0, 1
0, 0
0, 0
0, 0
0, 0
0, 0
0, 0
0, 0
0, 0
0, 0
0, 0
1, 0
0, 2
0, 0
0, 1
0, 0
0, 0
0, 0
0, 0
0, 0
0, 0
1, 0
0, 0
0, 0
0, 0
0, 0
2, 0
0, 0
0, 1
0, 0
0, 0
0, 0
0, 0
0, 1
0, 0
0, 0
0, 0
0, 0
1, 0
1, 0
1, 0
0, 0
0, 0
0, 0
0, 0
0, 0
0, 0
1, 0
1, 0
0, 0
0, 0
0, 0
0, 1
0, 0
0, 0
0, 0
0, 0
1, 0
0, 0
1, 1
0, 0
0, 0
0, 0
0, 0
0, 0
0, 1
0, 1
0, 0
0, 1
0, 0
0, 0
0, 0
0, 0
0, 0
0, 0
0, 0
0, 0
1, 0
0, 0
0, 0
0, 0
0, 0
0, 0
0, 0
0, 0
0, 0
0, 0
0, 0
0, 0
0, 0
0, 0
0, 0
0, 0
0, 0
0, 0
0, 0
0, 0
0, 0
0, 0
0, 0
0, 0
0, 0
0, 0
0, 0
0, 0
0, 0
0, 0
0, 0
0, 0
0, 0
1, 0
0, 1
0, 0
1, 0
0, 0
0, 0
0, 0
0, 0
0, 0
0, 0
0, 0
0, 1
0, 0
0, 0
0, 0
0, 0
0, 0
0, 0
0, 0
0, 0
1, 0
0, 0
0, 0
1, 0
0, 0
0, 0
0, 0
0, 0
0, 0
0, 0
0, 0
0, 0
0, 0
0, 0
0, 0
0, 0
0, 0
0, 0
0, 0
0, 0
0, 0
0, 0
0, 0
0, 0
0, 0
0, 0
0, 0
0, 0
1, 0
0, 1
0, 0
0, 0
0, 0
0, 0
0, 0
0, 0
0, 0
0, 0
0, 0
0, 0
0, 0
0, 0
0, 0
0, 0
0, 0
0, 0
0, 0
0, 0
0, 0
0, 0
0, 0
0, 0
0, 0
0, 0
0, 0
0, 0
0, 0
0, 0
0, 0
0, 0
0, 0
0, 0
0, 0
1, 0
0, 0
0, 0
0, 0
0, 0
0, 0
0, 0
0, 0
0, 0
0, 0
0, 0
0, 0
0, 0
0, 0
0, 0
0, 0
0, 0
0, 0
0, 0
0, 0
0, 0
0, 0
0, 0
0, 0
0, 0
0, 0
0, 0
0, 0
0, 0
0, 0
0, 0
0, 0
0, 0
0, 0
0, 0
0, 0
0, 1
0, 0
0, 1
0, 0
0, 0
0, 0
0, 0
0, 0
0, 0
0, 0
0, 0
0, 0
0, 0
0, 0
0, 0
0, 0
0, 0
0, 0
0, 0
0, 0
0, 0
0, 0
0, 0
0, 0
0, 0
0, 0
0, 0
0, 0
0, 0
0, 0
0, 0
0, 0
0, 0
0, 0
0, 0
0, 0
0, 0
0, 0
0, 0
0, 0
0, 0
0, 0
0, 0
0, 0
0, 0
0, 0
0, 0
0, 0
0, 0
0, 0
0, 0
0, 0
0, 0
0, 0
0, 0
0, 0
0, 0
0, 0
0, 0
0, 0
0, 0
0, 0
0, 0
0, 0
0, 0
0, 0
0, 0
0, 0
0, 0
0, 0
0, 0
0, 0
0, 0
0, 0
0, 0
0, 0
0, 0
0, 0
0, 0
0, 0
0, 0
0, 0
0, 0
0, 0
0, 0
0, 0
0, 0
0, 0
0, 0
0, 0
0, 0
0, 0
0, 0
0, 0
0, 0
0, 0
0, 0
0, 0
0, 0
0, 0
0, 0
0, 0
0, 0
0, 0
0, 0
0, 0
0, 0
0, 0
0, 0
0, 0
0, 0
0, 0
0, 0
0, 0
0, 0
0, 0
0, 0
0, 0
0, 0
0, 0
0, 0
0, 0
0, 0
0, 0
0, 0
0, 0
0, 0
0, 0
0, 0
0, 0
0, 0
0, 0
0, 0
0, 0
0, 0
0, 0
0, 0
0, 0
0, 0
0, 0
0, 0
0, 0
0, 0
0, 0
0, 0
0, 0
0, 0
0, 0
0, 0
0, 0
0, 0
0, 0
0, 0
0, 0
0, 0
0, 0
0, 0
0, 0
0, 0
0, 0
0, 0
0, 0
0, 0
0, 0
0, 0
0, 0
0, 0
0, 0
0, 0
0, 0
0, 0
0, 0
0, 0
0, 0
0, 0
0, 0
0, 0
0, 0
0, 0
0, 0
0, 0
0, 0
0, 0
0, 0
0, 0
0, 0
0, 0
0, 0
0, 0
0, 0
0, 0
0, 0
0, 0
0, 0
0, 0
0, 0
0, 0
0, 0
0, 0
0, 0
0, 0
0, 0
0, 0
0, 0
0, 0
0, 0
0, 0
0, 0
0, 0
0, 0
0, 0
0, 0
0, 0
0, 0
0, 0
0, 0
0, 0
0, 0
0, 0
0, 0
0, 0
0, 0
0, 0
0, 0
0, 0
0, 0
0, 0
0, 0
0, 0
0, 0
0, 0
0, 0
0, 0
0, 0
0, 0
0, 0
0, 0
0, 0
0, 0
0, 0
0, 0
0, 0
0, 0
0, 0
0, 0
0, 0
0, 0
0, 0
0, 0
0, 0
0, 0
0, 0
0, 0
0, 0
0, 0
0, 0
0, 0
0, 0
0, 0
0, 0
0, 0
0, 0
0, 0
0, 0
0, 0
0, 0
0, 0
0, 0
0, 0
0, 0
0, 0
0, 0
0, 0
0, 0
0, 0
0, 0
0, 0
0, 0
0, 0
0, 0
0, 0
0, 0
0, 0
0, 0
0, 0
0, 0
0, 0
0, 0
0, 0
0, 0
0, 0
0, 0
0, 0
0, 0
0, 0
0, 0
0, 0
0, 0
0, 0
0, 0
0, 0
0, 0
0, 0
0, 0
0, 0
0, 0
0, 0
0, 0
0, 0
0, 0
0, 0
0, 0
0, 0
0, 0
0, 0
0, 0
0, 0
0, 0
0, 0
0, 0
0, 0
0, 0
0, 0
0, 0
0, 0
0, 0
0, 0
0, 0
0, 0
0, 0
0, 0
0, 0
0, 0
0, 0
0, 0
0, 0
0, 0
0, 0
0, 0
0, 0
0, 0
0, 0
0, 0
0, 0
0, 0
0, 0
0, 0
0, 0
#ENDOFDATA     end of spectrum data