File: host_upload/12-01-2023/Dourbes (shot-by-shot)/upload_4/ps__0257_0689790785_000rfs_shot_3310.msa
#FORMAT      : EMSA/MAS spectral data file
#VERSION     : TC202v2.0 PIXL
#TITLE       : N/A
#DATE        :       Date in the format DD-MMM-YYYY, for example 07-JUL-2010
#TIME        :             The time of day at which the spectrum was recorded, in 24-hour format
#OWNER       : PIXL Flight Model       (PIXL will use this to indicate which instrument took the data.)
#NPOINTS     : 4096     Number of data points in the spectrum (This can be zero for configuration only files)
#NCOLUMNS    : 2     Number of data columns in the spectrum (This can be zero for configuration only files)
#XUNITS      : eV
#YUNITS      : COUNTS
#DATATYPE    : YY
#XPERCHAN    : 7.862, 7.881   eV per channel (separate by commas if more than one detector)
#OFFSET      : 18.5, -22.4         eV of first channel  (separate by commas if more than one detector
#SIGNALTYPE  : XRF
#YP_TEMP     : 2.909
#LIVETIME    : 9.12964, 9.11779   seconds (separate by commas if more than one detector)
#REALTIME    : 10, 10.0   seconds (separate by commas if more than one detector)
#SPECTRUM    : start of spectrum data
0, 0
0, 0
0, 0
0, 0
0, 0
0, 0
0, 0
0, 0
0, 0
0, 0
0, 0
0, 0
0, 0
0, 0
0, 0
0, 0
0, 0
0, 0
0, 0
0, 0
0, 0
0, 0
0, 0
0, 0
0, 0
0, 0
0, 0
0, 0
0, 0
0, 0
0, 0
0, 0
0, 0
0, 0
1, 1
0, 1
0, 0
2, 1
2, 3
0, 0
0, 3
3, 1
0, 1
4, 3
4, 0
0, 1
0, 2
3, 0
1, 4
4, 1
14, 7
21, 21
42, 37
49, 48
36, 39
43, 44
36, 42
14, 17
8, 13
4, 4
8, 5
9, 15
14, 9
25, 20
15, 24
17, 32
9, 14
14, 10
24, 17
58, 56
99, 112
211, 258
385, 428
578, 669
646, 789
695, 771
558, 633
414, 430
233, 264
143, 150
70, 90
28, 43
35, 17
22, 12
19, 10
17, 9
11, 6
5, 9
4, 9
5, 3
3, 3
1, 2
4, 1
1, 2
0, 7
3, 4
8, 6
9, 7
8, 12
6, 8
9, 3
7, 4
2, 4
5, 7
7, 3
3, 6
3, 7
10, 12
13, 22
26, 26
38, 48
37, 40
51, 73
81, 60
52, 75
50, 53
64, 55
51, 47
38, 43
26, 32
39, 34
22, 21
21, 25
21, 19
16, 16
15, 16
10, 18
13, 13
7, 16
5, 8
2, 6
2, 2
3, 3
4, 4
6, 6
5, 7
6, 6
9, 7
8, 16
13, 10
13, 21
12, 18
7, 13
13, 11
8, 12
5, 7
1, 8
5, 11
8, 11
10, 20
26, 34
63, 67
114, 151
228, 263
320, 413
503, 589
575, 713
684, 733
652, 693
445, 558
360, 344
221, 233
133, 128
88, 66
44, 48
27, 33
42, 27
53, 62
45, 73
90, 88
96, 110
98, 119
107, 90
73, 80
46, 71
34, 41
29, 18
15, 16
9, 8
8, 5
9, 6
14, 6
13, 5
10, 5
14, 8
12, 3
15, 9
15, 14
17, 20
28, 21
24, 32
27, 34
33, 41
29, 28
20, 39
28, 18
17, 20
16, 16
14, 12
15, 16
11, 10
7, 16
4, 17
5, 10
6, 6
10, 11
4, 10
10, 9
15, 14
13, 15
5, 13
10, 11
8, 11
6, 4
2, 6
6, 11
6, 4
8, 8
9, 4
7, 10
4, 8
7, 7
10, 15
5, 5
18, 9
21, 15
23, 17
39, 15
37, 32
48, 29
41, 45
40, 25
39, 16
40, 24
28, 17
13, 14
4, 8
7, 12
13, 10
13, 16
7, 11
10, 17
10, 10
10, 17
10, 16
14, 23
9, 23
36, 37
49, 42
39, 56
63, 81
57, 64
54, 50
50, 37
40, 46
29, 36
21, 25
17, 25
16, 20
16, 21
9, 13
14, 17
29, 43
35, 65
90, 99
163, 214
312, 390
529, 688
781, 1050
1096, 1435
1470, 1790
1671, 2002
1693, 1940
1679, 1808
1404, 1453
1043, 1069
811, 707
476, 432
301, 220
136, 150
104, 55
37, 34
33, 20
19, 15
23, 10
11, 13
15, 8
13, 15
6, 19
16, 25
27, 29
20, 26
31, 45
40, 55
80, 80
104, 128
159, 161
207, 255
260, 273
241, 301
260, 293
229, 257
206, 226
153, 173
112, 134
75, 84
28, 50
28, 30
26, 17
9, 14
12, 7
15, 11
17, 7
18, 6
35, 3
30, 7
35, 8
33, 9
27, 6
24, 5
19, 9
16, 2
17, 1
12, 4
12, 4
16, 7
11, 5
7, 4
8, 2
10, 6
6, 2
3, 1
5, 5
3, 5
6, 7
7, 7
5, 4
9, 6
10, 4
5, 4
2, 7
4, 4
7, 4
4, 4
8, 9
4, 8
8, 6
4, 2
6, 7
9, 8
8, 9
6, 4
8, 6
6, 9
7, 5
7, 10
7, 7
13, 10
10, 10
5, 9
7, 6
11, 19
5, 8
6, 10
7, 5
7, 4
4, 9
5, 5
6, 3
7, 4
3, 6
5, 8
6, 6
7, 4
5, 7
3, 3
2, 5
7, 7
3, 4
3, 2
4, 5
3, 2
4, 7
7, 3
8, 7
4, 10
6, 8
3, 6
6, 4
4, 5
7, 5
7, 12
2, 15
8, 6
7, 6
6, 7
2, 8
4, 8
5, 8
4, 7
4, 4
2, 6
6, 3
3, 4
2, 8
6, 5
9, 2
5, 5
3, 12
5, 3
3, 3
3, 6
5, 7
6, 6
5, 3
4, 7
0, 7
2, 9
5, 4
4, 6
5, 7
3, 4
4, 7
6, 2
4, 10
7, 2
9, 10
7, 7
3, 3
3, 2
5, 10
6, 6
1, 2
4, 3
3, 2
4, 2
1, 4
4, 1
10, 7
2, 2
3, 1
4, 3
2, 5
5, 5
2, 1
4, 3
5, 2
4, 5
1, 4
6, 3
5, 4
1, 5
4, 1
0, 7
6, 3
5, 2
3, 2
0, 3
4, 5
1, 2
2, 3
0, 4
5, 3
5, 1
5, 1
6, 6
5, 5
6, 2
4, 2
1, 2
3, 5
6, 4
3, 2
1, 3
2, 0
4, 3
6, 2
3, 4
7, 3
1, 3
2, 5
6, 2
1, 1
2, 0
3, 6
4, 6
2, 4
2, 3
3, 6
3, 8
1, 4
0, 0
1, 5
2, 3
0, 5
1, 4
2, 1
3, 3
1, 3
1, 4
0, 3
1, 3
4, 7
3, 2
2, 1
2, 3
3, 3
4, 2
5, 2
3, 5
1, 1
1, 4
4, 3
1, 2
5, 4
5, 1
4, 2
2, 0
1, 4
2, 5
2, 0
2, 4
6, 3
3, 0
3, 0
2, 5
1, 1
0, 2
1, 4
1, 2
2, 1
2, 2
0, 1
2, 2
1, 2
3, 1
3, 2
3, 5
2, 2
4, 3
2, 4
2, 3
0, 1
4, 3
2, 4
4, 3
1, 3
1, 3
2, 2
1, 1
2, 1
4, 1
1, 0
0, 4
2, 2
1, 3
2, 2
1, 1
3, 3
2, 1
1, 0
2, 3
0, 4
3, 1
1, 3
2, 1
3, 0
1, 2
2, 1
1, 3
0, 2
2, 1
2, 2
3, 1
1, 2
0, 5
0, 0
0, 3
2, 1
0, 3
1, 3
1, 1
2, 4
0, 1
2, 1
1, 2
0, 2
3, 0
0, 2
1, 2
0, 0
0, 2
1, 0
1, 1
1, 1
0, 1
1, 0
1, 0
0, 1
1, 2
0, 1
0, 2
1, 1
3, 0
0, 0
0, 0
2, 0
1, 1
2, 2
0, 0
1, 1
1, 1
0, 1
0, 0
1, 1
2, 1
1, 2
0, 2
4, 2
1, 0
2, 1
3, 0
2, 2
0, 2
0, 0
2, 0
0, 1
2, 1
1, 1
1, 0
2, 0
2, 0
3, 0
0, 1
0, 1
1, 0
1, 0
0, 1
0, 0
1, 0
0, 0
2, 0
0, 2
0, 1
1, 1
2, 0
0, 1
1, 1
0, 1
2, 1
2, 0
1, 0
0, 1
1, 0
2, 0
1, 0
0, 1
0, 0
3, 1
1, 0
0, 1
1, 0
2, 0
1, 0
0, 0
1, 0
0, 0
1, 0
1, 0
0, 0
1, 0
0, 0
0, 0
0, 2
1, 1
0, 2
0, 1
0, 1
1, 0
0, 1
0, 1
1, 0
0, 2
0, 0
1, 0
0, 0
1, 0
0, 0
0, 2
1, 0
0, 0
1, 0
0, 2
1, 0
0, 0
1, 1
0, 0
1, 1
2, 0
0, 0
0, 2
0, 0
1, 1
0, 0
0, 0
0, 0
1, 0
1, 0
0, 0
0, 2
0, 0
1, 1
1, 1
1, 0
0, 0
0, 0
0, 1
0, 0
0, 0
0, 0
0, 0
0, 1
1, 0
0, 0
0, 1
1, 0
0, 0
1, 0
0, 0
0, 1
2, 0
0, 0
0, 0
0, 0
0, 0
0, 0
1, 0
0, 0
0, 1
0, 1
0, 0
0, 0
0, 0
1, 0
0, 1
1, 0
0, 0
1, 1
0, 1
0, 1
0, 1
0, 0
0, 0
0, 1
1, 0
1, 1
1, 0
0, 0
0, 1
1, 2
0, 0
0, 0
0, 0
0, 0
2, 0
1, 1
0, 0
0, 0
1, 1
0, 0
1, 1
2, 0
1, 0
0, 0
1, 1
1, 0
0, 0
1, 0
1, 0
1, 0
0, 0
2, 0
0, 0
0, 0
0, 0
0, 1
0, 0
0, 0
1, 0
0, 0
0, 0
0, 0
1, 1
0, 1
0, 0
1, 0
0, 2
0, 1
0, 2
0, 0
0, 0
0, 0
0, 0
0, 0
0, 1
0, 0
0, 0
2, 1
0, 1
1, 0
1, 0
0, 0
0, 0
0, 1
0, 1
0, 0
0, 0
0, 0
0, 0
0, 0
0, 1
0, 0
1, 0
0, 1
0, 1
0, 0
0, 0
0, 0
0, 1
0, 0
0, 0
0, 0
0, 0
0, 0
1, 0
1, 0
0, 0
0, 1
0, 0
0, 0
0, 0
0, 0
0, 0
1, 0
0, 0
1, 1
0, 0
0, 0
0, 0
1, 0
0, 0
0, 0
0, 0
0, 0
0, 0
0, 0
0, 1
0, 1
1, 0
0, 0
0, 0
0, 0
0, 0
0, 0
0, 0
0, 0
0, 1
0, 0
0, 0
0, 0
0, 0
0, 0
0, 0
0, 0
0, 0
0, 0
0, 0
0, 0
0, 0
0, 0
0, 0
0, 0
0, 0
0, 0
0, 0
0, 0
0, 0
0, 0
0, 1
0, 0
0, 1
0, 0
0, 1
0, 0
0, 0
0, 0
0, 0
0, 0
0, 0
0, 0
0, 0
0, 0
0, 0
1, 0
1, 0
0, 0
0, 0
0, 0
0, 0
0, 0
0, 0
0, 0
0, 0
0, 0
0, 0
0, 0
0, 0
0, 0
0, 0
0, 0
0, 0
0, 0
1, 0
0, 0
0, 0
1, 0
0, 0
0, 0
0, 0
0, 0
0, 0
0, 0
0, 0
0, 0
0, 0
0, 0
0, 0
0, 0
0, 0
0, 0
0, 0
0, 0
0, 0
0, 0
0, 0
0, 0
0, 0
0, 0
0, 0
0, 0
0, 0
0, 0
0, 0
1, 0
0, 0
0, 1
0, 0
0, 0
0, 0
0, 0
0, 0
0, 0
0, 0
0, 0
0, 0
0, 0
0, 0
0, 0
0, 0
0, 0
0, 0
0, 0
0, 0
0, 0
0, 0
0, 0
0, 0
0, 0
0, 0
1, 0
0, 0
0, 0
0, 0
0, 0
0, 0
0, 0
0, 0
0, 0
0, 0
0, 0
0, 0
0, 0
0, 0
0, 0
0, 0
0, 0
0, 0
0, 0
0, 0
0, 0
0, 0
0, 0
0, 0
0, 0
0, 0
0, 0
0, 0
0, 0
0, 0
0, 0
0, 0
0, 0
0, 0
0, 0
0, 0
0, 0
0, 0
0, 0
0, 0
0, 0
0, 0
0, 0
0, 0
0, 0
0, 0
0, 0
0, 0
0, 0
0, 0
0, 0
0, 0
0, 0
0, 0
0, 0
0, 0
0, 0
0, 0
0, 0
0, 0
0, 0
0, 0
0, 0
0, 0
0, 0
0, 0
0, 0
0, 0
0, 0
0, 0
0, 0
0, 0
0, 0
0, 0
0, 0
0, 0
0, 0
1, 0
0, 0
0, 0
0, 0
0, 0
0, 0
0, 0
0, 0
0, 0
0, 0
0, 0
0, 0
0, 0
0, 0
0, 0
0, 0
0, 0
0, 0
0, 0
0, 0
0, 0
0, 0
0, 0
0, 0
0, 0
0, 0
0, 0
0, 0
0, 0
0, 0
0, 0
0, 0
0, 0
0, 0
0, 0
0, 0
0, 0
0, 0
0, 0
0, 0
0, 0
0, 0
0, 0
0, 0
0, 0
0, 0
0, 0
0, 0
0, 0
0, 0
0, 0
0, 0
0, 0
0, 0
0, 0
0, 0
0, 0
0, 0
0, 0
0, 0
0, 0
0, 0
0, 0
0, 0
0, 0
0, 0
0, 0
0, 0
0, 0
0, 0
0, 0
0, 0
0, 0
0, 0
0, 0
0, 0
0, 0
0, 0
0, 0
0, 0
0, 0
0, 0
0, 0
0, 0
0, 0
0, 0
0, 0
0, 0
0, 0
0, 0
0, 0
0, 0
0, 0
0, 0
0, 0
0, 0
0, 0
0, 0
0, 0
0, 0
0, 0
0, 0
0, 0
0, 0
0, 1
0, 0
0, 0
0, 0
0, 0
0, 0
0, 0
0, 0
0, 0
0, 0
0, 0
0, 0
0, 0
0, 0
0, 0
0, 0
0, 0
0, 0
0, 0
0, 0
0, 0
0, 0
0, 0
0, 0
0, 0
0, 0
0, 0
0, 0
0, 0
0, 0
0, 0
0, 0
0, 0
0, 0
0, 0
0, 0
0, 0
0, 0
0, 0
0, 0
0, 0
0, 0
0, 0
0, 0
0, 0
0, 0
0, 0
0, 0
0, 0
0, 0
0, 0
0, 0
0, 0
0, 0
0, 0
0, 0
0, 0
0, 0
0, 0
0, 0
0, 0
0, 0
0, 0
0, 0
0, 0
0, 0
0, 0
0, 0
0, 0
0, 0
0, 0
0, 0
0, 0
0, 0
0, 0
0, 0
0, 0
0, 0
0, 0
0, 0
0, 0
0, 0
0, 0
0, 0
0, 0
0, 0
0, 0
0, 0
0, 0
0, 0
0, 0
0, 0
0, 0
0, 0
0, 0
0, 0
0, 0
0, 0
0, 0
0, 0
0, 0
0, 0
0, 0
0, 0
0, 0
0, 0
0, 0
0, 0
0, 0
0, 0
0, 0
0, 0
0, 0
0, 0
0, 0
0, 0
0, 0
0, 0
0, 0
0, 0
0, 0
0, 0
0, 0
0, 0
0, 0
0, 0
0, 0
0, 0
0, 0
0, 0
0, 0
0, 0
0, 0
0, 0
0, 0
0, 0
0, 0
0, 0
0, 0
0, 0
0, 0
0, 0
0, 0
0, 0
0, 0
0, 0
0, 0
0, 0
0, 0
0, 0
0, 0
0, 0
0, 0
0, 0
0, 0
0, 0
0, 0
0, 0
0, 0
0, 0
0, 0
0, 0
0, 0
0, 0
0, 0
0, 0
0, 0
0, 0
0, 0
0, 0
0, 0
0, 0
0, 0
0, 0
0, 0
0, 0
0, 0
0, 0
0, 0
0, 0
0, 0
0, 0
0, 0
0, 0
0, 0
0, 0
0, 0
0, 0
0, 0
0, 0
0, 0
0, 0
0, 0
0, 0
0, 0
0, 0
0, 0
0, 0
0, 0
0, 0
0, 0
0, 0
0, 0
0, 0
0, 0
0, 0
#ENDOFDATA     end of spectrum data