File: host_upload/12-01-2023/Dourbes (shot-by-shot)/upload_4/ps__0257_0689790785_000rfs_shot_3041.msa
#FORMAT      : EMSA/MAS spectral data file
#VERSION     : TC202v2.0 PIXL
#TITLE       : N/A
#DATE        :       Date in the format DD-MMM-YYYY, for example 07-JUL-2010
#TIME        :             The time of day at which the spectrum was recorded, in 24-hour format
#OWNER       : PIXL Flight Model       (PIXL will use this to indicate which instrument took the data.)
#NPOINTS     : 4096     Number of data points in the spectrum (This can be zero for configuration only files)
#NCOLUMNS    : 2     Number of data columns in the spectrum (This can be zero for configuration only files)
#XUNITS      : eV
#YUNITS      : COUNTS
#DATATYPE    : YY
#XPERCHAN    : 7.862, 7.881   eV per channel (separate by commas if more than one detector)
#OFFSET      : 18.5, -22.4         eV of first channel  (separate by commas if more than one detector
#SIGNALTYPE  : XRF
#YP_TEMP     : 3.005
#LIVETIME    : 9.00624, 8.99971   seconds (separate by commas if more than one detector)
#REALTIME    : 10, 10.0   seconds (separate by commas if more than one detector)
#SPECTRUM    : start of spectrum data
0, 0
0, 0
0, 0
0, 0
0, 0
0, 0
0, 0
0, 0
0, 0
0, 0
0, 0
0, 0
0, 0
0, 0
0, 0
0, 0
0, 0
0, 0
0, 0
0, 0
0, 0
0, 0
0, 0
0, 0
0, 0
0, 0
0, 0
0, 0
0, 0
0, 0
0, 0
0, 0
0, 1
1, 0
1, 0
0, 0
1, 1
0, 0
1, 0
1, 1
2, 1
1, 0
0, 1
2, 0
2, 3
0, 1
1, 1
2, 2
2, 2
9, 6
12, 7
38, 23
42, 34
46, 59
57, 56
56, 53
43, 23
25, 34
10, 13
5, 0
7, 3
4, 2
2, 2
3, 2
3, 0
4, 4
3, 8
3, 5
15, 10
23, 32
69, 69
154, 122
283, 296
384, 346
451, 486
480, 489
388, 398
287, 302
184, 158
103, 98
51, 40
24, 20
16, 16
8, 8
6, 4
4, 5
1, 2
3, 6
5, 4
2, 2
6, 0
16, 1
26, 2
34, 2
47, 1
59, 2
59, 2
62, 4
39, 10
26, 3
15, 3
9, 5
4, 4
3, 3
2, 4
1, 3
3, 1
3, 5
3, 5
4, 4
7, 8
15, 11
14, 19
16, 17
28, 19
25, 25
27, 18
23, 14
15, 13
14, 15
11, 23
17, 19
17, 12
13, 10
6, 16
19, 13
12, 4
10, 8
6, 5
7, 4
7, 4
4, 2
6, 3
0, 1
4, 3
2, 0
3, 2
2, 2
1, 2
3, 2
2, 2
0, 4
1, 3
1, 1
2, 2
0, 2
0, 2
3, 3
3, 0
1, 3
2, 1
6, 4
6, 6
2, 8
15, 19
21, 33
25, 49
21, 60
25, 61
21, 57
9, 64
9, 48
5, 28
5, 24
1, 14
4, 8
1, 5
4, 2
8, 2
2, 5
4, 7
7, 5
2, 4
7, 4
7, 4
5, 4
5, 3
5, 1
1, 6
7, 2
3, 6
1, 1
1, 5
4, 2
2, 4
3, 6
5, 7
1, 1
4, 5
7, 5
7, 8
8, 5
11, 11
4, 15
19, 17
12, 14
27, 18
10, 19
25, 18
22, 16
16, 14
16, 8
8, 9
7, 6
2, 8
8, 4
7, 8
6, 5
7, 7
10, 9
6, 4
6, 5
11, 8
9, 4
9, 10
8, 4
9, 5
6, 2
3, 7
3, 4
6, 5
5, 13
5, 4
4, 10
4, 12
4, 20
5, 27
12, 39
8, 65
8, 114
7, 117
7, 146
10, 163
5, 155
9, 180
12, 144
5, 98
5, 80
15, 52
12, 26
8, 19
7, 17
7, 25
18, 17
12, 21
19, 26
32, 39
52, 69
75, 76
93, 98
90, 116
129, 110
97, 97
76, 79
58, 55
57, 42
35, 33
23, 21
18, 17
22, 19
26, 24
43, 36
47, 75
97, 99
172, 228
377, 428
648, 804
1101, 1277
1742, 2017
2334, 2834
3077, 3555
3728, 4012
3956, 3793
3787, 3625
3164, 2977
2562, 2275
1829, 1446
1159, 931
678, 483
367, 274
193, 131
89, 58
59, 31
39, 25
33, 18
23, 12
26, 15
26, 23
32, 21
17, 17
42, 27
52, 55
55, 68
89, 94
145, 173
206, 282
279, 364
420, 447
468, 529
546, 551
529, 536
497, 517
442, 442
343, 298
233, 219
172, 132
98, 72
42, 33
27, 15
15, 7
4, 7
7, 4
2, 6
5, 7
3, 6
7, 9
9, 8
4, 9
9, 10
8, 13
9, 10
9, 6
1, 5
5, 2
4, 1
3, 1
5, 1
5, 4
5, 2
2, 0
4, 2
5, 3
6, 5
1, 2
3, 2
3, 0
3, 6
4, 4
2, 2
3, 5
1, 2
4, 2
2, 2
4, 1
3, 5
4, 1
2, 2
7, 6
2, 7
1, 6
2, 4
6, 5
6, 6
5, 3
6, 2
1, 2
5, 1
4, 2
3, 3
2, 1
2, 2
4, 0
1, 3
5, 5
2, 4
5, 4
2, 4
1, 2
5, 6
5, 7
2, 6
3, 7
4, 11
1, 11
3, 14
2, 17
3, 12
6, 12
6, 9
4, 3
3, 11
1, 8
5, 3
7, 8
6, 5
3, 2
2, 2
5, 1
5, 4
3, 3
5, 4
5, 7
0, 6
3, 8
0, 5
2, 3
3, 7
1, 6
1, 1
1, 1
4, 6
2, 4
4, 5
3, 3
3, 5
0, 11
5, 4
3, 6
4, 8
1, 7
1, 7
4, 2
4, 3
2, 4
2, 4
3, 1
1, 4
2, 2
3, 2
3, 2
4, 0
3, 1
1, 0
3, 3
2, 1
2, 2
2, 1
1, 1
3, 1
4, 1
2, 2
1, 1
0, 2
1, 5
2, 0
5, 3
1, 1
4, 3
2, 1
1, 2
0, 4
2, 2
0, 1
1, 1
2, 5
2, 3
1, 2
0, 4
1, 3
4, 3
1, 5
0, 2
0, 4
2, 3
2, 7
1, 1
0, 8
2, 6
9, 7
4, 10
3, 15
1, 5
3, 7
2, 11
2, 15
2, 4
2, 8
2, 9
2, 10
2, 8
4, 5
1, 4
1, 2
2, 4
3, 2
3, 0
3, 1
4, 3
5, 0
3, 1
2, 0
1, 5
3, 0
4, 1
5, 0
2, 2
1, 1
1, 1
3, 1
1, 1
2, 2
4, 1
1, 2
1, 1
1, 0
3, 1
2, 3
1, 1
2, 4
4, 0
1, 1
2, 1
3, 1
1, 4
2, 1
2, 3
1, 1
2, 3
4, 1
1, 2
0, 2
2, 1
1, 3
2, 2
1, 4
0, 2
1, 0
2, 4
2, 4
4, 5
5, 6
1, 5
4, 2
3, 5
4, 5
7, 5
3, 1
3, 3
2, 2
1, 2
0, 0
0, 2
2, 1
2, 4
1, 4
3, 7
4, 2
5, 5
4, 7
6, 7
6, 3
5, 8
5, 13
10, 8
1, 1
5, 2
10, 4
0, 3
0, 1
5, 3
2, 1
0, 5
1, 0
2, 2
1, 0
1, 1
0, 3
3, 0
1, 1
3, 1
0, 2
1, 3
1, 2
1, 3
0, 0
1, 3
1, 1
2, 1
3, 3
1, 4
0, 2
2, 5
1, 4
3, 3
5, 3
1, 2
2, 1
1, 1
0, 2
0, 2
0, 0
0, 0
0, 0
0, 0
0, 0
1, 1
0, 0
1, 0
0, 0
1, 2
1, 1
0, 0
1, 0
0, 1
0, 0
0, 0
1, 0
0, 0
1, 0
2, 1
1, 2
1, 2
0, 1
1, 1
1, 1
2, 1
0, 1
2, 1
0, 1
0, 0
0, 1
0, 0
0, 0
1, 1
0, 0
3, 1
3, 2
1, 1
0, 0
0, 1
0, 0
0, 0
1, 0
0, 0
2, 1
0, 0
0, 1
0, 0
0, 1
0, 1
0, 1
0, 2
0, 2
0, 1
0, 0
0, 0
0, 0
2, 0
1, 1
0, 0
1, 1
1, 0
0, 0
0, 0
0, 2
0, 0
1, 1
1, 1
0, 0
0, 0
0, 0
1, 0
1, 1
0, 0
1, 1
1, 0
0, 0
0, 0
0, 2
0, 0
0, 0
0, 1
0, 0
0, 0
1, 0
0, 0
0, 0
0, 0
1, 0
0, 1
3, 1
0, 0
0, 1
0, 0
0, 0
2, 0
1, 0
1, 0
2, 0
0, 0
0, 1
3, 1
0, 1
0, 1
1, 1
0, 1
0, 0
2, 1
1, 1
0, 0
1, 0
1, 0
0, 1
0, 0
1, 1
0, 0
0, 0
1, 1
1, 1
0, 0
0, 0
1, 2
0, 0
0, 0
0, 0
0, 0
0, 1
0, 0
0, 0
0, 0
0, 0
1, 1
0, 0
0, 0
1, 0
1, 0
0, 0
1, 0
0, 1
2, 0
0, 0
1, 0
0, 1
0, 0
0, 0
1, 0
1, 0
0, 0
0, 0
0, 0
0, 1
0, 0
0, 0
0, 0
0, 0
1, 0
0, 0
0, 0
0, 0
0, 0
0, 0
1, 0
0, 0
0, 0
0, 0
0, 0
0, 1
0, 0
0, 0
1, 0
0, 0
0, 1
0, 0
0, 0
0, 0
0, 0
0, 2
1, 2
0, 0
0, 0
0, 0
0, 0
0, 0
0, 1
0, 1
0, 0
0, 1
0, 0
0, 0
0, 0
0, 1
0, 0
1, 1
0, 0
0, 0
0, 1
1, 0
0, 0
0, 0
0, 0
0, 0
0, 0
1, 0
0, 0
0, 0
0, 0
0, 0
0, 0
0, 0
0, 0
0, 0
0, 0
0, 2
1, 0
0, 2
0, 0
2, 0
0, 0
0, 0
1, 1
0, 0
0, 0
0, 0
0, 1
1, 0
0, 0
0, 1
0, 0
0, 0
0, 0
0, 0
0, 1
0, 0
0, 0
1, 0
0, 0
2, 0
0, 0
0, 1
1, 1
0, 1
0, 0
0, 0
0, 0
0, 0
0, 0
0, 0
0, 0
0, 0
0, 0
0, 1
0, 0
0, 0
1, 0
0, 0
0, 0
0, 0
0, 1
0, 0
0, 0
0, 0
0, 0
0, 0
0, 0
0, 0
0, 1
0, 0
0, 0
0, 1
1, 0
0, 0
0, 1
0, 0
0, 0
1, 0
0, 1
0, 0
0, 0
0, 0
1, 0
0, 0
0, 0
0, 0
0, 0
2, 0
0, 1
0, 0
0, 0
1, 0
0, 0
0, 0
0, 0
0, 0
0, 2
0, 0
0, 0
0, 0
0, 0
0, 0
0, 0
0, 2
0, 0
0, 0
0, 0
0, 0
0, 0
0, 0
0, 0
0, 0
0, 0
0, 0
0, 0
0, 0
0, 0
0, 0
0, 0
0, 0
0, 0
0, 0
0, 0
0, 0
0, 0
0, 0
0, 0
0, 0
0, 0
0, 1
0, 0
0, 0
0, 0
0, 0
0, 0
0, 1
0, 0
0, 0
1, 0
0, 0
0, 0
0, 0
0, 0
0, 0
0, 0
0, 0
0, 0
0, 0
0, 0
0, 0
0, 0
0, 0
0, 1
0, 0
0, 0
0, 0
0, 0
0, 0
0, 0
0, 0
0, 0
0, 0
0, 0
0, 0
0, 0
0, 0
0, 0
0, 0
0, 0
0, 0
0, 0
0, 0
0, 0
0, 0
0, 0
0, 0
0, 0
0, 0
0, 0
0, 0
0, 0
0, 0
0, 0
0, 0
0, 0
0, 0
0, 0
0, 0
0, 0
0, 0
0, 0
0, 0
0, 0
0, 0
0, 0
0, 0
0, 0
0, 0
0, 0
0, 0
0, 0
0, 0
0, 0
0, 0
0, 0
0, 0
0, 0
0, 0
0, 0
0, 0
0, 0
0, 0
0, 0
0, 0
0, 0
0, 0
0, 0
0, 0
0, 0
0, 0
0, 0
0, 0
0, 0
0, 0
0, 0
0, 0
0, 0
0, 0
0, 0
0, 0
0, 0
0, 0
0, 0
0, 0
0, 0
0, 0
0, 0
0, 0
0, 0
0, 0
0, 0
0, 0
0, 0
0, 0
0, 0
0, 0
0, 0
0, 0
0, 0
0, 0
0, 0
0, 0
0, 0
0, 0
0, 0
0, 0
0, 0
0, 0
0, 0
0, 0
0, 0
0, 0
0, 0
0, 0
0, 0
0, 0
0, 0
0, 0
0, 0
0, 0
0, 0
0, 0
0, 0
0, 0
0, 0
0, 0
0, 0
0, 0
0, 0
0, 0
0, 0
0, 0
0, 0
0, 0
0, 0
0, 0
0, 0
0, 0
0, 0
0, 0
0, 0
0, 0
0, 0
0, 0
0, 0
0, 0
0, 0
0, 0
0, 0
0, 0
0, 0
0, 0
0, 0
0, 0
0, 0
0, 0
0, 0
0, 0
0, 0
0, 0
0, 0
0, 0
0, 0
0, 0
0, 0
0, 0
0, 0
0, 0
0, 0
0, 0
0, 0
0, 0
0, 0
0, 0
0, 0
0, 0
0, 0
0, 0
0, 0
0, 0
0, 0
0, 0
0, 0
0, 0
0, 0
0, 0
0, 0
0, 0
0, 0
0, 0
0, 0
0, 0
0, 0
0, 0
0, 0
0, 0
0, 0
0, 0
0, 0
0, 0
0, 0
0, 0
0, 0
0, 0
0, 0
0, 0
0, 0
0, 0
0, 0
0, 0
0, 0
0, 0
0, 0
0, 0
0, 0
0, 0
0, 0
0, 0
0, 0
0, 0
0, 0
0, 0
0, 0
0, 0
0, 0
0, 0
0, 0
0, 0
0, 0
0, 0
0, 0
0, 0
0, 0
0, 0
0, 0
0, 0
0, 0
0, 0
0, 0
0, 0
0, 0
0, 0
0, 0
0, 0
0, 0
0, 0
0, 0
0, 0
0, 0
0, 0
0, 0
0, 0
0, 0
0, 0
0, 0
0, 0
0, 0
0, 0
0, 0
0, 0
0, 0
0, 0
0, 0
0, 0
0, 0
0, 0
0, 0
0, 0
0, 0
0, 0
0, 0
0, 0
0, 0
0, 0
0, 0
0, 0
0, 0
0, 0
0, 0
0, 0
0, 0
0, 0
0, 0
0, 0
0, 0
0, 0
0, 0
0, 0
0, 0
0, 0
0, 0
0, 0
0, 0
0, 0
0, 0
0, 0
0, 0
0, 0
0, 0
0, 0
0, 0
0, 0
0, 0
0, 0
0, 0
0, 0
0, 0
0, 0
0, 0
0, 0
0, 0
0, 0
0, 0
0, 0
0, 0
0, 0
0, 0
0, 0
0, 0
0, 0
0, 0
0, 0
0, 0
0, 0
0, 0
0, 0
0, 0
0, 0
0, 0
0, 0
0, 0
0, 0
0, 0
0, 0
0, 0
0, 0
0, 0
0, 0
0, 0
0, 0
0, 0
0, 0
0, 0
0, 0
0, 0
0, 0
0, 0
0, 0
0, 0
0, 0
0, 0
0, 0
0, 0
0, 0
0, 0
0, 0
0, 0
0, 0
0, 0
0, 0
0, 0
0, 0
0, 0
0, 0
0, 0
0, 0
0, 0
0, 0
0, 0
0, 0
0, 0
0, 0
0, 0
0, 0
0, 0
0, 0
0, 0
0, 0
0, 0
0, 0
0, 0
0, 0
0, 0
0, 0
0, 0
0, 0
0, 0
0, 0
0, 0
0, 0
0, 0
0, 0
0, 0
0, 0
0, 0
0, 0
0, 0
0, 0
0, 0
0, 0
0, 0
0, 0
0, 0
0, 0
0, 0
0, 0
0, 0
0, 0
0, 0
0, 0
0, 0
0, 0
0, 0
0, 0
0, 0
0, 0
0, 0
0, 0
0, 0
0, 0
0, 0
0, 0
0, 0
0, 0
0, 0
0, 0
0, 0
0, 0
0, 0
0, 0
0, 0
0, 0
0, 0
0, 0
0, 0
0, 0
0, 0
0, 0
0, 0
#ENDOFDATA     end of spectrum data