File: host_upload/12-01-2023/Dourbes (shot-by-shot)/upload_4/ps__0257_0689790785_000rfs_shot_3175.msa
#FORMAT      : EMSA/MAS spectral data file
#VERSION     : TC202v2.0 PIXL
#TITLE       : N/A
#DATE        :       Date in the format DD-MMM-YYYY, for example 07-JUL-2010
#TIME        :             The time of day at which the spectrum was recorded, in 24-hour format
#OWNER       : PIXL Flight Model       (PIXL will use this to indicate which instrument took the data.)
#NPOINTS     : 4096     Number of data points in the spectrum (This can be zero for configuration only files)
#NCOLUMNS    : 2     Number of data columns in the spectrum (This can be zero for configuration only files)
#XUNITS      : eV
#YUNITS      : COUNTS
#DATATYPE    : YY
#XPERCHAN    : 7.862, 7.881   eV per channel (separate by commas if more than one detector)
#OFFSET      : 18.5, -22.4         eV of first channel  (separate by commas if more than one detector
#SIGNALTYPE  : XRF
#YP_TEMP     : 3.037
#LIVETIME    : 9.03567, 9.01875   seconds (separate by commas if more than one detector)
#REALTIME    : 10, 10.0   seconds (separate by commas if more than one detector)
#SPECTRUM    : start of spectrum data
0, 0
0, 0
0, 0
0, 0
0, 0
0, 0
0, 0
0, 0
0, 0
0, 0
0, 0
0, 0
0, 0
0, 0
0, 0
0, 0
0, 0
0, 0
0, 0
0, 0
0, 0
0, 0
0, 0
0, 0
0, 0
0, 0
0, 0
0, 0
0, 0
0, 0
0, 0
0, 1
0, 0
0, 0
0, 1
0, 0
0, 1
0, 1
0, 5
0, 2
1, 0
1, 2
1, 3
2, 1
1, 2
1, 0
2, 1
1, 0
4, 2
7, 5
9, 3
18, 15
27, 24
32, 36
47, 54
47, 49
40, 27
20, 19
10, 18
10, 6
7, 8
1, 7
3, 8
9, 8
9, 6
8, 9
8, 9
9, 11
8, 13
44, 47
80, 93
150, 158
305, 318
440, 492
520, 501
492, 497
415, 462
327, 326
193, 201
101, 112
54, 50
24, 27
16, 18
12, 17
8, 13
11, 11
5, 10
8, 3
5, 4
2, 3
5, 2
8, 0
1, 4
2, 2
2, 5
6, 7
8, 13
10, 22
14, 16
17, 22
13, 11
6, 11
8, 6
8, 5
6, 8
2, 8
11, 8
12, 10
17, 15
17, 21
35, 31
44, 28
38, 45
67, 40
45, 57
57, 45
59, 46
55, 42
38, 26
37, 26
35, 24
31, 26
21, 28
19, 17
15, 12
18, 16
11, 6
5, 16
8, 6
4, 7
5, 8
2, 5
4, 6
5, 8
3, 5
2, 7
2, 7
5, 8
7, 6
4, 4
8, 2
6, 9
6, 9
3, 10
2, 4
3, 7
2, 11
3, 2
5, 2
11, 10
13, 20
29, 39
36, 35
70, 122
114, 141
184, 215
213, 268
247, 265
241, 246
181, 207
143, 144
111, 112
58, 49
45, 40
25, 26
22, 32
25, 31
27, 35
35, 36
43, 49
54, 48
45, 52
47, 32
36, 32
30, 28
26, 13
13, 18
11, 9
14, 12
13, 10
9, 7
11, 10
12, 5
11, 9
9, 8
10, 8
7, 10
14, 15
17, 21
18, 22
20, 29
32, 31
35, 29
32, 26
31, 25
25, 24
20, 22
20, 21
19, 13
18, 17
15, 13
12, 10
13, 12
11, 10
16, 10
16, 10
10, 9
14, 11
18, 12
9, 18
25, 15
13, 15
18, 20
12, 15
7, 13
8, 12
3, 7
5, 6
1, 5
9, 8
1, 6
8, 12
8, 6
10, 13
11, 9
11, 22
27, 19
24, 35
36, 42
43, 41
33, 41
41, 42
31, 25
26, 25
31, 19
19, 15
21, 11
13, 16
18, 17
16, 9
12, 11
15, 7
14, 14
7, 12
12, 20
22, 32
35, 39
56, 54
56, 88
92, 85
75, 97
97, 91
84, 92
82, 65
55, 48
40, 39
32, 38
30, 33
21, 20
34, 15
20, 21
39, 34
39, 55
84, 101
170, 159
305, 365
597, 730
976, 1205
1492, 1795
2168, 2466
2784, 3030
3187, 3519
3300, 3468
3152, 3168
2708, 2645
2090, 1956
1494, 1303
1001, 789
571, 429
324, 220
151, 124
69, 47
41, 31
31, 24
21, 12
14, 13
15, 12
21, 24
19, 22
24, 17
28, 36
48, 46
60, 75
73, 82
116, 150
203, 254
270, 343
350, 389
450, 471
490, 439
515, 536
448, 445
398, 336
275, 244
195, 175
147, 117
75, 60
41, 41
27, 12
13, 11
6, 7
5, 4
6, 8
10, 4
7, 7
7, 12
5, 6
10, 13
7, 8
5, 8
5, 6
3, 5
4, 4
11, 7
6, 3
9, 4
6, 3
2, 7
5, 4
5, 13
4, 8
7, 4
4, 5
2, 8
4, 14
2, 4
4, 6
4, 5
5, 5
2, 4
8, 3
8, 8
5, 5
7, 7
6, 7
6, 3
4, 6
4, 6
9, 2
8, 2
6, 7
4, 4
4, 6
5, 5
6, 9
7, 3
5, 6
7, 5
6, 9
4, 4
1, 8
6, 2
2, 8
6, 1
6, 4
6, 4
1, 6
2, 3
5, 4
2, 4
5, 3
4, 5
1, 3
6, 8
2, 11
4, 4
5, 9
4, 7
1, 4
5, 9
4, 5
3, 3
2, 4
0, 5
5, 4
5, 1
2, 3
2, 3
3, 6
4, 1
2, 3
6, 1
3, 4
5, 6
3, 5
1, 7
4, 5
2, 2
3, 3
2, 5
2, 4
2, 2
7, 1
5, 3
5, 5
4, 3
7, 4
6, 4
5, 1
3, 5
3, 9
7, 5
2, 2
4, 2
3, 2
5, 1
4, 6
1, 4
1, 5
5, 4
3, 6
1, 5
8, 4
2, 7
3, 4
4, 4
5, 5
4, 3
3, 4
8, 5
7, 4
4, 1
4, 6
6, 3
7, 4
8, 1
10, 3
12, 5
12, 4
9, 0
11, 2
3, 3
4, 3
6, 3
3, 1
2, 1
4, 6
3, 2
3, 0
2, 3
3, 3
1, 2
1, 3
3, 2
2, 2
4, 3
3, 2
4, 1
3, 1
4, 1
3, 4
3, 4
3, 2
1, 2
2, 4
1, 5
2, 5
4, 1
2, 0
1, 5
4, 2
1, 3
1, 3
6, 0
6, 1
3, 2
2, 0
5, 2
1, 3
1, 2
2, 2
2, 3
2, 0
2, 0
1, 2
1, 2
1, 2
5, 2
2, 4
2, 1
1, 2
2, 3
0, 3
2, 2
2, 2
0, 1
1, 5
1, 4
1, 1
2, 2
0, 3
4, 3
1, 3
1, 3
2, 2
0, 0
1, 0
2, 1
5, 3
2, 3
2, 2
1, 2
3, 2
4, 0
2, 3
0, 1
1, 3
0, 3
4, 1
1, 2
1, 4
3, 2
2, 2
1, 3
1, 4
1, 5
4, 5
2, 2
1, 0
1, 1
3, 3
5, 2
1, 1
2, 2
2, 1
2, 2
2, 2
4, 8
4, 4
7, 8
2, 3
3, 6
5, 10
7, 5
6, 9
6, 2
5, 8
8, 4
3, 3
3, 4
5, 3
0, 2
1, 2
0, 1
2, 2
0, 1
1, 4
0, 0
0, 0
1, 2
1, 0
0, 1
3, 2
2, 0
3, 0
1, 2
0, 2
4, 3
5, 0
2, 2
1, 2
2, 1
3, 2
1, 0
1, 3
0, 2
0, 1
1, 1
0, 1
1, 0
3, 0
2, 0
1, 0
0, 1
0, 1
1, 1
1, 1
0, 1
1, 1
2, 0
1, 0
0, 2
0, 1
0, 0
3, 2
3, 1
0, 2
0, 1
2, 0
1, 0
0, 0
3, 0
2, 0
1, 2
2, 0
1, 0
1, 0
3, 1
0, 0
4, 1
2, 0
4, 2
2, 1
4, 0
2, 0
1, 2
0, 0
2, 1
0, 1
0, 0
3, 1
1, 0
0, 2
1, 0
0, 0
2, 1
0, 0
1, 1
1, 1
1, 1
0, 1
0, 1
0, 1
1, 1
0, 0
0, 0
1, 2
1, 2
0, 0
0, 0
0, 0
0, 0
1, 1
1, 0
1, 0
1, 1
1, 0
0, 2
0, 1
0, 0
0, 1
0, 1
0, 0
1, 0
1, 0
1, 0
0, 1
1, 0
0, 0
0, 0
0, 0
0, 0
0, 1
0, 0
1, 0
2, 0
1, 1
1, 0
0, 0
0, 2
0, 0
0, 0
0, 0
0, 0
0, 1
0, 1
0, 0
0, 1
0, 1
1, 1
1, 1
0, 1
0, 0
0, 0
0, 0
0, 0
1, 0
0, 0
1, 0
0, 0
0, 0
0, 2
1, 0
0, 0
0, 1
1, 0
0, 0
1, 1
0, 1
3, 1
1, 1
0, 2
0, 0
0, 0
0, 2
2, 1
1, 0
0, 0
0, 1
2, 3
0, 0
0, 0
1, 0
1, 0
0, 0
0, 0
0, 0
0, 0
0, 1
1, 2
0, 0
0, 0
1, 0
0, 0
0, 0
1, 0
0, 0
0, 0
0, 0
0, 2
1, 0
0, 1
1, 0
1, 0
0, 0
0, 0
0, 0
0, 1
1, 1
0, 1
0, 0
0, 0
1, 0
0, 0
0, 0
0, 0
0, 0
0, 0
1, 0
0, 0
0, 0
0, 2
0, 0
0, 0
1, 0
1, 0
0, 0
0, 0
1, 0
0, 0
0, 0
1, 2
0, 0
0, 0
0, 0
0, 0
0, 0
1, 0
0, 1
0, 0
0, 0
0, 0
0, 0
0, 0
0, 0
1, 0
2, 0
0, 1
0, 0
0, 0
0, 1
1, 0
0, 0
0, 1
0, 0
0, 1
0, 0
1, 0
0, 0
0, 0
0, 0
0, 0
1, 0
0, 0
0, 1
0, 1
0, 0
0, 0
0, 0
0, 0
1, 1
0, 0
0, 2
1, 0
0, 0
0, 0
0, 0
0, 0
0, 0
1, 0
0, 0
0, 0
0, 0
0, 0
0, 0
0, 0
0, 0
0, 1
0, 0
0, 0
0, 0
0, 0
0, 0
0, 0
0, 0
0, 0
0, 0
0, 0
0, 0
0, 0
0, 0
0, 1
0, 0
0, 0
0, 0
0, 0
1, 0
0, 0
0, 0
0, 0
0, 0
0, 1
0, 0
0, 0
0, 0
0, 0
0, 0
0, 0
0, 0
0, 0
0, 1
0, 0
0, 0
0, 0
0, 0
0, 0
0, 0
0, 0
0, 0
0, 0
0, 0
2, 1
0, 0
0, 0
0, 0
1, 0
0, 0
0, 0
0, 0
0, 0
0, 0
0, 0
0, 0
0, 0
0, 0
0, 0
0, 0
0, 0
0, 0
0, 0
1, 0
0, 0
0, 0
0, 0
0, 0
0, 0
0, 0
0, 0
0, 0
1, 0
0, 0
0, 0
0, 0
1, 0
0, 0
0, 0
0, 0
0, 0
1, 0
0, 0
0, 0
0, 0
0, 0
0, 0
0, 0
0, 0
0, 0
0, 0
0, 0
0, 0
0, 0
0, 0
0, 0
0, 0
0, 0
0, 0
0, 0
0, 0
0, 0
0, 0
0, 0
0, 0
0, 0
0, 0
0, 0
0, 0
0, 0
0, 0
0, 0
0, 0
0, 0
0, 0
0, 0
0, 0
0, 0
0, 0
0, 0
0, 1
0, 0
0, 0
0, 0
0, 0
0, 0
0, 0
0, 0
0, 0
0, 0
0, 0
0, 0
0, 0
0, 0
0, 0
0, 0
0, 0
0, 0
0, 0
0, 0
0, 0
0, 0
0, 0
0, 0
0, 0
0, 0
0, 0
0, 0
0, 0
0, 0
0, 0
0, 0
0, 0
0, 0
0, 0
0, 0
0, 0
0, 0
0, 0
0, 0
0, 0
0, 0
0, 0
0, 0
0, 1
0, 0
0, 0
0, 0
0, 0
0, 0
0, 0
0, 0
0, 0
0, 0
0, 0
0, 0
0, 0
0, 0
0, 0
0, 0
0, 0
0, 0
0, 0
0, 0
0, 0
0, 0
0, 0
0, 0
1, 0
0, 0
0, 0
0, 0
0, 0
0, 0
0, 0
0, 0
0, 1
0, 0
0, 0
0, 0
0, 0
0, 0
0, 0
0, 0
0, 0
0, 0
0, 0
0, 0
0, 0
0, 0
0, 0
0, 0
0, 0
0, 0
0, 0
0, 0
0, 0
0, 0
0, 0
0, 0
0, 0
0, 0
0, 0
0, 0
0, 0
0, 0
0, 0
0, 0
0, 0
0, 0
0, 0
0, 0
0, 0
0, 0
0, 0
0, 0
0, 0
0, 0
0, 0
0, 0
0, 0
0, 0
0, 0
0, 0
0, 0
0, 0
0, 0
0, 0
0, 0
0, 0
0, 0
0, 0
0, 0
0, 0
0, 0
0, 0
0, 0
0, 0
0, 0
0, 0
0, 0
0, 0
0, 0
0, 0
0, 0
0, 0
0, 0
0, 0
0, 0
0, 0
0, 0
0, 0
0, 0
0, 0
0, 0
0, 0
0, 0
0, 0
0, 0
0, 0
0, 0
0, 0
0, 0
0, 0
0, 0
0, 0
0, 0
0, 0
0, 0
0, 0
0, 0
0, 0
0, 0
0, 0
0, 0
0, 0
0, 0
0, 0
0, 0
0, 0
0, 0
0, 0
0, 0
0, 0
0, 0
0, 0
0, 0
0, 0
0, 0
0, 0
0, 0
0, 0
0, 0
0, 0
0, 0
0, 0
0, 0
0, 0
0, 0
0, 0
0, 0
0, 0
0, 0
0, 0
0, 0
0, 0
0, 0
0, 0
0, 0
0, 0
0, 0
0, 0
0, 0
0, 0
0, 0
0, 0
0, 0
0, 0
0, 0
0, 0
0, 0
0, 0
0, 0
0, 0
0, 0
0, 0
0, 0
0, 0
0, 0
0, 0
0, 0
0, 0
0, 0
0, 0
0, 0
0, 0
0, 0
0, 0
0, 0
0, 0
0, 0
0, 0
0, 0
0, 0
0, 0
0, 0
0, 0
0, 0
0, 0
0, 0
0, 0
0, 0
0, 0
0, 0
0, 0
0, 0
0, 0
0, 0
0, 0
0, 0
0, 0
0, 0
0, 0
0, 0
0, 0
0, 0
0, 0
0, 0
0, 0
0, 0
0, 0
0, 0
0, 0
0, 0
0, 0
0, 0
0, 0
0, 0
0, 0
0, 0
0, 0
0, 0
0, 0
0, 0
0, 0
0, 0
0, 0
0, 0
0, 0
0, 0
0, 0
0, 0
0, 0
0, 0
0, 0
0, 0
0, 0
0, 0
0, 0
0, 0
0, 0
0, 0
0, 0
0, 0
0, 0
0, 0
0, 0
0, 0
0, 0
0, 0
0, 0
0, 0
0, 0
0, 0
0, 0
0, 0
0, 0
0, 0
0, 0
0, 0
0, 0
0, 0
0, 0
0, 0
0, 0
0, 0
0, 0
0, 0
0, 0
0, 0
0, 0
0, 0
0, 0
0, 0
0, 0
0, 0
0, 0
0, 0
0, 0
0, 0
0, 0
0, 0
0, 0
0, 0
0, 0
0, 0
0, 0
0, 0
0, 0
0, 0
0, 0
0, 0
0, 0
0, 0
0, 0
0, 0
0, 0
0, 0
0, 0
0, 0
0, 0
0, 0
0, 0
0, 0
0, 0
0, 0
0, 0
0, 0
0, 0
0, 0
0, 0
0, 0
0, 0
0, 0
0, 0
0, 0
0, 0
0, 0
0, 0
0, 0
0, 0
0, 0
0, 0
0, 0
0, 0
0, 0
0, 0
0, 0
0, 0
0, 0
0, 0
0, 0
0, 0
0, 0
0, 0
0, 0
0, 0
0, 0
0, 0
0, 0
0, 0
0, 0
0, 0
0, 0
0, 0
0, 0
0, 0
0, 0
0, 0
0, 0
0, 0
0, 0
0, 0
0, 0
0, 0
0, 0
0, 0
0, 0
0, 0
0, 0
0, 0
0, 0
0, 0
0, 0
0, 0
0, 0
0, 0
0, 0
0, 0
#ENDOFDATA     end of spectrum data