File: host_upload/12-01-2023/Dourbes (shot-by-shot)/upload_4/ps__0257_0689790785_000rfs_shot_3048.msa
#FORMAT      : EMSA/MAS spectral data file
#VERSION     : TC202v2.0 PIXL
#TITLE       : N/A
#DATE        :       Date in the format DD-MMM-YYYY, for example 07-JUL-2010
#TIME        :             The time of day at which the spectrum was recorded, in 24-hour format
#OWNER       : PIXL Flight Model       (PIXL will use this to indicate which instrument took the data.)
#NPOINTS     : 4096     Number of data points in the spectrum (This can be zero for configuration only files)
#NCOLUMNS    : 2     Number of data columns in the spectrum (This can be zero for configuration only files)
#XUNITS      : eV
#YUNITS      : COUNTS
#DATATYPE    : YY
#XPERCHAN    : 7.862, 7.881   eV per channel (separate by commas if more than one detector)
#OFFSET      : 18.5, -22.4         eV of first channel  (separate by commas if more than one detector
#SIGNALTYPE  : XRF
#YP_TEMP     : 2.909
#LIVETIME    : 9.10234, 9.07203   seconds (separate by commas if more than one detector)
#REALTIME    : 10, 10.0   seconds (separate by commas if more than one detector)
#SPECTRUM    : start of spectrum data
0, 0
0, 0
0, 0
0, 0
0, 0
0, 0
0, 0
0, 0
0, 0
0, 0
0, 0
0, 0
0, 0
0, 0
0, 0
0, 0
0, 0
0, 0
0, 0
0, 0
0, 0
0, 0
0, 0
0, 0
0, 0
0, 0
0, 0
0, 0
0, 0
0, 0
0, 0
0, 0
0, 0
0, 0
2, 1
2, 0
1, 1
2, 0
5, 3
4, 3
4, 2
1, 2
2, 4
0, 1
5, 2
2, 1
2, 1
2, 4
6, 3
5, 8
12, 6
11, 21
26, 27
44, 42
41, 42
35, 54
30, 29
14, 19
15, 9
3, 5
1, 3
3, 3
2, 9
2, 2
6, 1
8, 4
4, 5
12, 5
21, 11
52, 37
90, 90
216, 199
358, 319
477, 503
601, 555
575, 700
528, 493
395, 397
237, 236
140, 135
57, 58
36, 30
17, 21
11, 9
7, 4
6, 4
1, 3
5, 1
0, 1
2, 2
2, 2
2, 2
5, 3
12, 15
19, 18
35, 31
48, 66
74, 89
82, 105
80, 103
76, 64
56, 55
40, 33
32, 25
15, 11
13, 18
18, 14
17, 22
35, 31
50, 40
88, 101
130, 129
154, 153
187, 169
192, 191
182, 204
165, 156
125, 126
93, 112
73, 76
62, 58
43, 57
42, 39
32, 43
29, 36
33, 39
27, 36
19, 38
21, 23
15, 21
16, 20
8, 16
9, 10
4, 4
6, 12
4, 10
2, 8
10, 5
5, 14
7, 11
3, 10
13, 5
10, 12
7, 5
3, 2
7, 7
3, 5
2, 5
1, 4
6, 5
5, 7
16, 14
20, 41
32, 53
69, 88
56, 86
85, 135
113, 149
93, 151
88, 98
83, 80
45, 65
24, 24
12, 17
10, 8
8, 7
8, 16
11, 17
16, 12
18, 23
16, 24
27, 26
15, 24
16, 25
19, 18
11, 5
9, 10
14, 12
10, 10
9, 9
8, 6
9, 5
11, 6
11, 11
7, 7
9, 5
10, 12
10, 17
13, 12
14, 19
9, 20
22, 14
18, 15
9, 24
18, 19
18, 27
23, 25
16, 36
22, 28
16, 25
16, 20
7, 20
9, 14
11, 10
11, 8
14, 6
10, 15
7, 5
14, 17
9, 13
16, 17
9, 17
6, 11
7, 9
11, 8
9, 2
10, 6
11, 8
8, 15
12, 9
13, 15
10, 11
14, 11
14, 17
9, 9
9, 15
5, 12
11, 14
7, 20
12, 21
12, 13
13, 24
14, 13
11, 8
15, 15
11, 17
7, 12
8, 12
15, 12
9, 11
12, 11
15, 17
18, 14
15, 23
22, 18
26, 32
43, 44
42, 68
55, 108
72, 103
91, 141
83, 109
91, 98
65, 105
63, 74
49, 33
37, 40
14, 33
17, 17
14, 16
16, 16
27, 44
43, 59
55, 90
107, 151
186, 301
363, 535
640, 925
965, 1365
1349, 1853
1830, 2421
2061, 2595
2147, 2759
2158, 2514
1753, 2081
1511, 1619
1084, 1089
659, 673
363, 367
212, 192
109, 96
61, 54
46, 32
21, 28
19, 29
20, 26
17, 31
24, 25
35, 30
23, 33
33, 30
23, 43
56, 57
82, 104
92, 115
122, 180
187, 251
242, 319
278, 382
286, 427
357, 397
301, 334
275, 284
195, 200
155, 139
108, 102
64, 48
34, 27
11, 22
11, 11
10, 4
6, 11
7, 3
7, 10
8, 11
6, 5
7, 6
6, 11
7, 8
10, 11
4, 8
12, 7
6, 7
4, 6
5, 3
9, 13
2, 2
5, 9
7, 6
3, 6
6, 3
6, 3
4, 10
4, 1
6, 7
8, 5
7, 2
5, 8
6, 4
5, 5
7, 4
5, 11
6, 9
5, 9
8, 6
6, 12
6, 8
4, 8
6, 7
5, 9
6, 3
7, 6
9, 4
5, 10
7, 8
9, 8
5, 6
3, 7
2, 10
5, 9
4, 7
6, 6
8, 4
7, 5
7, 6
9, 7
8, 15
5, 8
6, 9
9, 9
4, 9
8, 10
11, 8
6, 10
8, 10
6, 4
4, 4
8, 7
2, 6
8, 8
5, 5
12, 9
4, 7
9, 8
6, 1
2, 6
5, 5
9, 6
6, 4
6, 7
6, 2
2, 4
7, 0
9, 11
2, 6
2, 3
2, 6
6, 3
3, 0
6, 5
5, 9
4, 9
7, 9
4, 3
3, 6
9, 3
9, 4
5, 4
4, 4
8, 10
4, 6
8, 12
4, 7
6, 10
4, 6
3, 3
5, 3
6, 2
3, 1
1, 8
2, 5
2, 4
6, 7
5, 1
8, 4
3, 6
3, 8
1, 4
4, 3
4, 3
1, 6
6, 6
3, 4
4, 2
9, 9
2, 1
7, 3
4, 4
3, 1
3, 2
2, 1
3, 11
4, 4
4, 3
2, 1
1, 3
1, 4
0, 6
4, 5
5, 3
4, 5
2, 3
3, 5
2, 3
2, 6
4, 5
5, 6
2, 2
0, 4
4, 3
2, 5
5, 7
3, 4
1, 2
3, 1
1, 2
5, 8
3, 2
1, 6
9, 6
1, 1
1, 1
4, 6
5, 1
5, 3
5, 4
3, 3
3, 0
3, 6
1, 4
4, 2
0, 3
4, 5
4, 2
5, 1
3, 1
4, 1
0, 4
2, 4
2, 2
2, 3
4, 4
3, 4
3, 2
4, 8
1, 1
3, 2
1, 2
1, 2
4, 2
2, 3
2, 6
2, 9
3, 2
4, 3
4, 5
2, 1
4, 7
3, 2
3, 1
6, 3
2, 4
5, 1
0, 2
7, 8
0, 1
3, 4
2, 1
4, 1
1, 3
0, 3
3, 2
2, 4
3, 5
1, 1
3, 1
5, 1
6, 3
1, 1
2, 1
1, 4
1, 0
2, 3
0, 4
2, 4
3, 4
2, 2
0, 2
7, 3
5, 7
1, 4
2, 4
3, 6
5, 4
3, 4
8, 3
1, 2
1, 4
3, 2
5, 2
0, 0
0, 1
1, 0
2, 1
2, 4
0, 1
1, 2
5, 2
3, 4
3, 0
4, 2
0, 2
1, 2
2, 1
1, 1
2, 1
2, 2
2, 1
2, 1
1, 3
2, 0
4, 4
0, 3
2, 3
1, 2
1, 3
2, 1
0, 1
0, 2
2, 1
1, 0
1, 2
1, 2
1, 1
4, 2
4, 2
1, 2
2, 2
0, 2
2, 5
2, 3
1, 2
0, 1
2, 3
2, 0
2, 0
1, 1
3, 3
0, 1
0, 2
2, 0
1, 0
1, 0
2, 0
1, 2
2, 1
1, 1
2, 1
0, 2
1, 1
2, 0
1, 2
0, 1
1, 2
3, 0
1, 1
1, 1
1, 1
0, 0
2, 2
1, 1
1, 0
2, 0
1, 3
1, 3
0, 0
3, 0
1, 2
0, 0
0, 1
0, 0
1, 0
0, 1
0, 1
0, 1
2, 0
1, 1
0, 1
0, 1
1, 1
0, 3
0, 0
0, 0
0, 1
1, 0
1, 2
0, 0
0, 1
0, 0
1, 0
0, 2
1, 1
0, 0
1, 0
1, 1
1, 1
3, 1
1, 0
0, 0
0, 0
1, 0
1, 0
1, 3
2, 0
0, 0
1, 0
0, 1
0, 2
0, 0
0, 0
0, 0
0, 3
0, 3
0, 1
1, 2
0, 2
0, 1
0, 0
1, 2
0, 1
1, 2
0, 1
0, 0
1, 0
0, 0
0, 2
1, 0
2, 0
0, 0
1, 0
0, 3
1, 0
0, 0
0, 1
1, 2
0, 0
0, 0
0, 0
0, 0
0, 1
0, 0
1, 0
0, 0
1, 0
0, 1
0, 0
1, 0
0, 0
0, 0
0, 0
1, 1
0, 1
0, 0
0, 2
0, 0
0, 1
1, 0
1, 0
0, 0
0, 1
1, 0
1, 0
0, 0
0, 0
0, 1
0, 0
0, 0
0, 1
0, 0
0, 1
2, 2
0, 0
0, 0
1, 0
0, 0
0, 0
0, 0
0, 2
2, 0
0, 0
1, 0
0, 0
0, 0
0, 0
1, 0
0, 1
0, 0
0, 0
0, 1
0, 0
0, 0
0, 1
0, 0
0, 0
0, 1
1, 1
0, 1
0, 1
0, 0
0, 2
1, 0
0, 0
0, 2
0, 1
0, 0
0, 0
0, 0
0, 0
0, 0
0, 1
0, 1
0, 0
0, 1
0, 0
0, 0
1, 0
0, 0
0, 0
0, 0
0, 0
0, 0
1, 1
0, 0
1, 0
0, 0
0, 0
0, 0
0, 0
1, 0
0, 1
0, 0
1, 1
0, 0
1, 0
0, 0
0, 1
1, 0
0, 0
0, 0
0, 0
0, 0
1, 0
0, 0
0, 0
0, 0
0, 1
0, 0
2, 0
0, 2
0, 0
1, 0
1, 0
0, 0
1, 0
0, 0
0, 0
0, 0
0, 0
0, 0
0, 0
1, 3
0, 0
0, 0
0, 0
0, 0
0, 0
0, 0
0, 0
1, 0
0, 0
0, 0
0, 0
0, 0
0, 0
0, 0
0, 0
0, 0
0, 0
0, 0
0, 0
1, 0
0, 0
0, 0
0, 0
0, 0
0, 2
0, 0
0, 0
0, 0
0, 0
0, 0
1, 0
1, 1
0, 1
0, 0
0, 0
0, 0
0, 0
0, 0
0, 0
1, 0
0, 0
0, 0
0, 0
0, 0
0, 0
0, 0
0, 1
0, 0
0, 0
0, 0
0, 0
0, 0
0, 0
0, 0
0, 0
0, 0
0, 0
0, 0
0, 0
0, 0
1, 0
1, 1
0, 0
0, 1
0, 0
0, 0
0, 1
0, 0
0, 0
0, 0
0, 0
0, 1
1, 0
0, 0
0, 0
0, 0
0, 1
0, 1
1, 0
0, 0
0, 0
0, 0
0, 0
1, 0
0, 0
0, 0
0, 0
0, 0
0, 0
0, 0
0, 0
0, 0
1, 0
0, 0
0, 0
0, 0
0, 0
0, 0
0, 0
0, 0
0, 0
0, 0
0, 0
0, 0
0, 0
0, 0
0, 0
0, 0
0, 0
0, 0
0, 0
0, 0
0, 0
0, 0
0, 0
0, 0
0, 0
0, 0
0, 0
0, 0
0, 0
0, 0
0, 0
0, 0
0, 0
0, 0
0, 0
0, 0
0, 0
0, 0
0, 0
0, 0
0, 0
0, 0
0, 0
0, 0
0, 0
0, 0
0, 0
0, 0
0, 0
0, 0
0, 0
0, 0
0, 0
0, 0
0, 0
0, 0
0, 0
0, 0
1, 0
0, 0
0, 0
0, 0
0, 0
0, 0
0, 0
0, 0
0, 0
0, 0
0, 0
0, 0
0, 0
0, 0
0, 0
0, 0
0, 0
0, 1
0, 0
0, 0
0, 0
0, 0
0, 0
0, 0
0, 0
0, 0
0, 0
0, 0
0, 0
0, 0
0, 0
0, 0
0, 0
0, 0
0, 0
0, 0
0, 0
0, 0
0, 0
0, 0
0, 0
0, 0
0, 0
0, 0
0, 0
0, 0
0, 0
0, 0
0, 0
0, 0
0, 0
0, 0
0, 0
0, 0
0, 0
0, 0
0, 0
0, 0
0, 0
0, 0
0, 0
0, 0
0, 0
0, 0
0, 0
0, 0
0, 0
0, 0
0, 0
0, 0
0, 0
0, 0
0, 0
0, 0
0, 0
0, 0
0, 0
0, 0
0, 0
0, 0
0, 0
0, 0
0, 0
0, 0
0, 0
0, 0
0, 0
0, 0
0, 0
0, 0
0, 0
0, 0
0, 0
0, 0
0, 0
0, 0
0, 0
0, 0
0, 0
0, 0
0, 0
0, 0
0, 0
0, 0
0, 0
0, 0
0, 0
0, 0
0, 0
0, 0
0, 0
0, 0
0, 0
0, 0
0, 0
0, 0
0, 0
0, 0
0, 0
0, 0
0, 0
0, 0
0, 0
0, 0
0, 0
0, 0
0, 0
0, 0
0, 0
0, 0
0, 0
0, 0
0, 0
0, 0
0, 0
0, 0
0, 0
0, 0
0, 0
0, 0
0, 0
0, 0
0, 0
0, 0
0, 0
0, 0
0, 0
0, 0
0, 0
0, 0
0, 0
0, 0
0, 0
0, 0
0, 0
0, 0
0, 0
0, 0
0, 0
0, 0
0, 0
0, 0
0, 0
0, 0
0, 0
0, 0
0, 0
0, 0
0, 0
0, 0
0, 0
0, 0
0, 0
0, 0
0, 0
0, 0
0, 0
0, 0
0, 0
0, 0
0, 0
0, 0
0, 0
0, 0
0, 0
0, 0
0, 0
0, 0
0, 0
0, 0
0, 0
0, 0
0, 0
0, 0
0, 0
0, 0
0, 0
0, 0
0, 0
0, 0
0, 0
0, 0
0, 0
0, 0
0, 0
0, 0
0, 0
0, 0
0, 0
0, 0
0, 0
0, 0
0, 0
0, 0
0, 0
0, 0
0, 0
0, 0
0, 0
0, 0
0, 0
0, 0
0, 0
0, 0
0, 0
0, 0
0, 0
0, 0
0, 0
0, 0
0, 0
0, 0
0, 0
0, 0
0, 0
0, 0
0, 0
0, 0
0, 0
0, 0
0, 0
0, 0
0, 0
0, 0
0, 0
0, 0
0, 0
0, 0
0, 0
0, 0
0, 0
0, 0
0, 0
0, 0
0, 0
0, 0
0, 0
0, 0
0, 0
0, 0
0, 0
0, 0
0, 0
0, 0
0, 0
0, 0
0, 0
0, 0
0, 0
0, 0
0, 0
0, 0
0, 0
0, 0
0, 0
0, 0
0, 0
0, 0
0, 0
0, 0
0, 0
0, 0
0, 0
0, 0
0, 0
0, 0
0, 0
0, 0
0, 0
0, 0
0, 0
0, 0
0, 0
0, 0
0, 0
0, 0
0, 0
0, 0
0, 0
0, 0
0, 0
0, 0
0, 0
0, 0
0, 0
0, 0
0, 0
0, 0
0, 0
0, 0
0, 0
0, 0
0, 0
0, 0
0, 0
0, 0
0, 0
0, 0
0, 0
0, 0
0, 0
0, 0
0, 0
0, 0
0, 0
0, 0
0, 0
0, 0
0, 0
0, 0
0, 0
0, 0
0, 0
0, 0
0, 0
0, 0
0, 0
0, 0
0, 0
0, 0
0, 0
0, 0
0, 0
0, 0
0, 0
0, 0
0, 0
0, 0
0, 0
0, 0
0, 0
0, 0
0, 0
0, 0
0, 0
0, 0
0, 0
0, 0
0, 0
0, 0
0, 0
0, 0
0, 0
0, 0
0, 0
0, 0
0, 0
0, 0
0, 0
0, 0
0, 0
0, 0
0, 0
0, 0
0, 0
0, 0
0, 0
0, 0
0, 0
0, 0
0, 0
0, 0
0, 0
0, 0
0, 0
0, 0
0, 0
0, 0
0, 0
0, 0
0, 0
0, 0
0, 0
0, 0
0, 0
#ENDOFDATA     end of spectrum data