File: host_upload/12-01-2023/Dourbes (shot-by-shot)/upload_4/ps__0257_0689790785_000rfs_shot_3013.msa
#FORMAT      : EMSA/MAS spectral data file
#VERSION     : TC202v2.0 PIXL
#TITLE       : N/A
#DATE        :       Date in the format DD-MMM-YYYY, for example 07-JUL-2010
#TIME        :             The time of day at which the spectrum was recorded, in 24-hour format
#OWNER       : PIXL Flight Model       (PIXL will use this to indicate which instrument took the data.)
#NPOINTS     : 4096     Number of data points in the spectrum (This can be zero for configuration only files)
#NCOLUMNS    : 2     Number of data columns in the spectrum (This can be zero for configuration only files)
#XUNITS      : eV
#YUNITS      : COUNTS
#DATATYPE    : YY
#XPERCHAN    : 7.862, 7.881   eV per channel (separate by commas if more than one detector)
#OFFSET      : 18.5, -22.4         eV of first channel  (separate by commas if more than one detector
#SIGNALTYPE  : XRF
#YP_TEMP     : 2.909
#LIVETIME    : 9.00079, 9.01326   seconds (separate by commas if more than one detector)
#REALTIME    : 10, 10.0   seconds (separate by commas if more than one detector)
#SPECTRUM    : start of spectrum data
0, 0
0, 0
0, 0
0, 0
0, 0
0, 0
0, 0
0, 0
0, 0
0, 0
0, 0
0, 0
0, 0
0, 0
0, 0
0, 0
0, 0
0, 0
0, 0
0, 0
0, 0
0, 0
0, 0
0, 0
0, 0
0, 0
0, 0
0, 0
0, 0
0, 0
1, 0
0, 0
0, 0
0, 0
0, 0
0, 2
0, 1
0, 1
0, 1
0, 0
0, 1
1, 2
1, 0
1, 0
1, 3
0, 1
1, 2
4, 2
2, 2
10, 9
12, 8
23, 27
43, 43
48, 44
63, 48
46, 47
49, 29
28, 23
14, 10
2, 6
2, 3
4, 1
3, 4
6, 4
2, 1
1, 3
4, 3
9, 7
13, 10
24, 21
103, 69
184, 145
278, 267
406, 339
501, 452
491, 426
434, 369
331, 275
184, 166
115, 102
53, 61
31, 22
15, 16
3, 7
3, 1
2, 4
1, 3
4, 4
6, 1
8, 1
9, 1
14, 3
33, 0
48, 6
71, 7
84, 8
100, 6
96, 18
67, 19
54, 16
41, 10
16, 12
10, 7
12, 3
2, 4
9, 3
1, 4
5, 3
9, 6
4, 13
14, 19
13, 21
26, 23
30, 34
45, 47
34, 36
40, 37
19, 32
20, 29
21, 20
24, 15
20, 15
14, 15
14, 18
11, 12
11, 15
17, 7
15, 8
5, 6
11, 6
5, 5
3, 5
1, 2
3, 1
4, 1
3, 2
1, 5
3, 2
1, 1
1, 3
3, 2
1, 3
1, 1
0, 3
1, 6
2, 1
2, 2
1, 0
1, 1
1, 4
3, 2
3, 7
6, 13
11, 11
15, 18
17, 40
29, 62
28, 72
29, 80
20, 70
15, 63
13, 50
8, 39
4, 24
9, 17
5, 13
3, 0
8, 6
6, 9
5, 5
3, 7
7, 7
9, 10
4, 6
9, 5
5, 2
2, 5
3, 1
5, 1
6, 1
4, 4
2, 4
5, 3
4, 4
8, 2
0, 5
7, 6
2, 6
12, 4
9, 5
6, 9
17, 3
7, 7
14, 7
10, 14
20, 17
15, 22
23, 15
23, 15
21, 13
17, 11
15, 15
13, 7
11, 5
16, 8
7, 8
3, 3
6, 4
5, 6
8, 7
7, 5
12, 3
6, 5
8, 4
8, 10
5, 5
14, 7
9, 5
9, 7
10, 5
12, 9
4, 10
6, 12
11, 11
5, 11
4, 18
14, 27
8, 46
8, 55
11, 76
15, 93
12, 103
11, 132
20, 123
10, 120
10, 93
11, 65
12, 53
6, 48
7, 17
13, 19
6, 11
7, 12
16, 8
21, 18
32, 28
45, 47
64, 52
64, 69
80, 81
109, 110
106, 111
91, 77
100, 72
55, 54
41, 23
41, 38
28, 15
16, 14
21, 20
30, 19
24, 20
52, 56
90, 94
174, 182
329, 402
671, 703
1149, 1205
1764, 1907
2564, 2549
3260, 3253
3853, 3752
4141, 3712
3882, 3326
3385, 2680
2601, 2136
1923, 1421
1226, 815
763, 488
402, 261
210, 134
81, 54
73, 33
46, 23
36, 14
35, 9
28, 10
29, 14
30, 16
44, 21
38, 28
38, 38
51, 62
88, 98
159, 159
210, 216
331, 307
401, 434
518, 487
541, 558
598, 536
511, 485
444, 379
294, 272
248, 180
177, 113
100, 59
50, 41
27, 24
21, 8
6, 6
9, 6
5, 5
0, 6
3, 6
6, 8
8, 7
7, 8
9, 15
6, 12
13, 8
4, 7
2, 6
2, 3
7, 4
4, 1
4, 3
2, 1
3, 3
2, 2
0, 1
4, 3
4, 5
0, 3
6, 2
1, 4
3, 4
4, 2
4, 7
3, 4
5, 2
2, 2
2, 0
8, 2
9, 5
2, 1
5, 3
6, 3
2, 0
2, 3
4, 3
2, 2
6, 3
0, 2
2, 2
5, 2
3, 1
4, 1
2, 0
2, 2
4, 5
3, 3
2, 3
1, 4
3, 4
7, 2
2, 5
5, 2
2, 5
4, 3
3, 6
1, 7
6, 7
5, 15
0, 23
2, 10
8, 17
7, 18
2, 8
4, 11
6, 4
6, 7
7, 2
3, 5
3, 4
4, 3
6, 3
7, 3
4, 5
3, 3
4, 6
3, 3
1, 6
1, 3
4, 4
4, 2
5, 4
2, 1
1, 3
4, 7
3, 4
3, 6
4, 3
3, 6
3, 4
3, 6
1, 3
1, 9
6, 2
4, 4
1, 4
1, 3
1, 4
5, 1
1, 4
2, 6
1, 2
1, 3
2, 1
3, 0
1, 3
4, 2
2, 2
3, 1
0, 3
0, 1
3, 2
5, 4
2, 1
4, 3
2, 0
2, 1
0, 2
0, 5
1, 3
3, 2
1, 3
1, 2
0, 3
1, 2
1, 2
2, 4
4, 3
2, 1
0, 1
4, 3
3, 3
1, 1
0, 4
0, 3
3, 6
2, 3
1, 3
5, 5
2, 4
2, 4
1, 3
2, 4
2, 4
1, 8
2, 5
0, 9
2, 4
3, 6
4, 8
3, 14
4, 16
2, 6
6, 4
2, 10
0, 8
4, 1
4, 8
5, 2
1, 2
5, 3
2, 0
5, 2
3, 1
5, 2
2, 2
0, 1
1, 1
0, 1
2, 2
2, 4
3, 1
0, 0
0, 2
1, 0
0, 0
0, 1
2, 1
2, 2
0, 6
3, 1
2, 2
1, 0
4, 2
2, 0
3, 0
1, 0
2, 2
3, 1
1, 1
2, 1
1, 2
4, 3
0, 2
1, 1
0, 2
5, 0
0, 3
3, 0
0, 3
2, 3
1, 3
0, 1
2, 1
1, 4
2, 2
7, 4
6, 3
2, 2
3, 2
3, 0
6, 0
1, 1
1, 2
1, 2
4, 2
2, 1
3, 2
3, 5
2, 3
0, 3
5, 3
2, 5
5, 4
6, 6
8, 6
6, 7
4, 8
4, 11
5, 6
8, 2
4, 6
1, 3
4, 1
4, 3
3, 2
0, 0
4, 4
1, 0
1, 2
1, 1
0, 0
2, 1
0, 1
0, 0
1, 4
0, 0
1, 1
1, 1
2, 1
1, 1
1, 3
2, 4
2, 1
1, 2
6, 7
4, 2
2, 1
1, 2
2, 1
1, 2
3, 1
2, 0
1, 1
0, 0
2, 1
0, 2
0, 0
0, 0
2, 1
0, 1
3, 1
0, 1
1, 2
1, 0
3, 0
0, 1
2, 0
1, 1
0, 0
1, 0
1, 0
2, 1
0, 1
5, 0
0, 1
1, 1
1, 1
1, 0
0, 1
0, 1
0, 0
1, 0
0, 0
1, 0
0, 1
0, 0
4, 0
0, 0
0, 0
0, 0
1, 1
0, 1
0, 0
0, 0
0, 0
1, 2
0, 0
0, 1
0, 0
2, 0
1, 0
0, 1
1, 0
0, 1
0, 0
0, 1
0, 0
1, 0
0, 2
1, 0
1, 0
1, 0
0, 1
0, 3
0, 0
0, 0
0, 0
0, 0
1, 1
1, 0
0, 0
1, 0
0, 0
0, 0
1, 1
0, 1
0, 0
0, 1
1, 0
1, 0
2, 1
0, 1
1, 2
0, 0
1, 0
1, 1
0, 1
2, 0
0, 0
0, 1
2, 0
0, 1
0, 0
1, 1
0, 0
0, 1
1, 0
0, 0
0, 0
0, 0
0, 2
0, 1
2, 0
2, 1
0, 2
0, 0
0, 1
0, 1
2, 1
0, 1
0, 0
0, 1
0, 0
1, 0
1, 0
0, 0
0, 1
0, 0
1, 1
0, 0
1, 0
0, 0
0, 0
0, 0
2, 1
0, 1
0, 0
1, 2
0, 0
0, 0
0, 0
0, 0
1, 0
0, 0
1, 0
0, 0
0, 0
0, 1
1, 0
1, 0
0, 0
1, 0
0, 0
0, 0
0, 0
0, 0
0, 1
0, 0
0, 0
2, 0
0, 0
0, 0
0, 0
0, 0
0, 0
1, 1
0, 0
0, 0
1, 0
0, 1
0, 0
0, 0
0, 0
1, 0
1, 1
2, 0
0, 0
1, 1
1, 0
0, 1
0, 0
1, 0
1, 0
0, 0
1, 0
0, 0
1, 0
0, 0
0, 0
0, 0
0, 0
0, 1
0, 0
1, 0
1, 0
0, 0
0, 1
0, 0
0, 1
0, 0
0, 0
2, 0
0, 0
1, 0
0, 0
1, 0
0, 0
2, 2
0, 0
0, 0
0, 0
0, 0
1, 0
0, 0
0, 0
0, 0
0, 0
1, 2
0, 1
1, 0
0, 0
0, 0
0, 0
0, 0
0, 0
0, 0
0, 0
0, 0
1, 1
0, 0
0, 0
0, 0
0, 0
0, 0
1, 0
1, 0
0, 0
1, 0
0, 0
0, 0
0, 0
0, 0
0, 0
0, 1
0, 0
1, 0
1, 0
1, 0
0, 0
0, 0
0, 0
0, 0
0, 1
0, 0
0, 0
0, 0
0, 0
0, 0
0, 0
1, 0
0, 0
0, 0
0, 0
0, 0
0, 0
0, 0
0, 0
0, 0
0, 0
2, 0
0, 0
0, 0
0, 0
1, 0
0, 0
0, 1
0, 0
0, 0
0, 0
0, 0
0, 0
0, 0
0, 0
0, 1
0, 0
0, 0
0, 0
0, 0
0, 1
0, 0
1, 1
0, 0
0, 0
0, 0
0, 0
0, 0
0, 1
0, 0
0, 0
0, 0
0, 0
1, 0
0, 0
0, 0
0, 0
0, 0
0, 0
0, 0
0, 0
1, 0
0, 1
0, 0
0, 0
0, 0
1, 0
0, 0
0, 0
0, 0
0, 0
0, 0
0, 0
0, 0
0, 0
0, 0
0, 0
0, 0
0, 0
0, 0
0, 0
0, 0
0, 0
0, 0
0, 1
0, 1
0, 0
0, 0
0, 0
0, 1
0, 0
0, 0
0, 0
0, 0
0, 0
0, 0
0, 0
0, 0
0, 0
0, 0
0, 0
0, 0
0, 0
0, 0
0, 0
0, 0
0, 0
0, 0
0, 0
0, 0
0, 0
0, 1
0, 0
0, 0
0, 1
0, 0
0, 0
0, 0
0, 0
0, 0
0, 0
0, 0
0, 0
0, 0
0, 0
0, 0
0, 0
0, 0
0, 0
0, 0
0, 0
0, 0
0, 0
0, 0
0, 0
0, 0
0, 0
0, 0
0, 0
0, 0
0, 0
0, 0
0, 0
0, 0
0, 0
0, 0
0, 0
0, 0
0, 0
0, 0
0, 0
0, 0
0, 1
1, 0
0, 0
0, 0
0, 0
0, 0
0, 0
0, 0
0, 0
0, 0
0, 0
0, 0
0, 0
0, 0
0, 0
0, 0
0, 0
0, 0
0, 0
0, 0
0, 0
0, 1
0, 0
0, 0
0, 0
0, 0
0, 0
0, 0
0, 0
0, 0
0, 0
0, 0
0, 0
0, 0
0, 0
0, 0
0, 0
0, 0
0, 0
0, 0
0, 0
0, 0
0, 0
0, 0
0, 0
0, 0
0, 0
0, 0
0, 1
0, 0
0, 0
0, 0
0, 0
0, 0
0, 0
0, 0
0, 0
0, 0
0, 0
0, 0
0, 0
0, 0
0, 0
0, 0
0, 0
0, 0
0, 0
0, 0
0, 0
0, 0
0, 0
0, 0
0, 0
0, 0
0, 0
0, 0
0, 0
0, 0
0, 0
0, 0
0, 0
0, 0
0, 0
0, 0
0, 0
0, 0
0, 0
0, 0
0, 0
0, 0
0, 0
0, 0
0, 0
0, 0
0, 0
0, 0
0, 0
0, 0
0, 0
0, 0
0, 0
0, 0
0, 0
0, 0
0, 0
0, 0
0, 0
0, 0
0, 0
0, 0
0, 0
0, 0
0, 0
0, 0
0, 0
0, 0
0, 0
0, 0
0, 0
0, 0
0, 0
0, 0
0, 0
0, 0
0, 0
0, 0
0, 0
0, 0
0, 0
0, 0
0, 0
0, 0
0, 0
0, 0
0, 0
0, 0
0, 0
0, 0
0, 0
0, 0
0, 0
0, 0
0, 0
0, 0
0, 0
0, 0
0, 0
0, 0
0, 0
0, 0
0, 0
0, 0
0, 0
0, 0
0, 0
0, 0
0, 0
0, 0
0, 0
0, 0
0, 0
0, 0
0, 0
0, 0
0, 0
0, 0
0, 0
0, 0
0, 0
0, 0
0, 0
0, 0
0, 0
0, 0
0, 0
0, 0
0, 0
0, 0
0, 0
0, 0
0, 0
0, 0
0, 0
0, 0
0, 0
0, 0
0, 0
0, 0
0, 0
0, 0
0, 0
0, 0
0, 0
0, 0
0, 0
0, 0
0, 0
0, 0
0, 0
0, 0
0, 0
0, 0
0, 0
0, 0
0, 0
0, 0
0, 0
0, 0
0, 0
0, 0
0, 0
0, 0
0, 0
0, 0
0, 0
0, 0
0, 0
0, 0
0, 0
0, 0
0, 0
0, 0
0, 0
0, 0
0, 0
0, 0
0, 0
0, 0
0, 0
0, 0
0, 0
0, 0
0, 0
0, 0
0, 0
0, 0
0, 0
0, 0
0, 0
0, 0
0, 0
0, 0
0, 0
0, 0
0, 0
0, 0
0, 0
0, 0
0, 0
0, 0
0, 0
0, 0
0, 0
0, 0
0, 0
0, 0
0, 0
0, 0
0, 0
0, 0
0, 0
0, 0
0, 0
0, 0
0, 0
0, 0
0, 0
0, 0
0, 0
0, 0
0, 0
0, 0
0, 0
0, 0
0, 0
0, 0
0, 0
0, 0
0, 0
0, 0
0, 0
0, 0
0, 0
0, 0
0, 0
0, 0
0, 0
0, 0
0, 0
0, 0
0, 0
0, 0
0, 0
0, 0
0, 0
0, 0
0, 0
0, 0
0, 0
0, 0
0, 0
0, 0
0, 0
0, 0
0, 0
0, 0
0, 0
0, 0
0, 0
0, 0
0, 0
0, 0
0, 0
0, 0
0, 0
0, 0
0, 0
0, 0
0, 0
0, 0
0, 0
0, 0
0, 0
0, 0
0, 0
0, 0
0, 0
0, 0
0, 0
0, 0
0, 0
0, 0
0, 0
0, 0
0, 0
0, 0
0, 0
0, 0
0, 0
0, 0
0, 0
0, 0
0, 0
0, 0
0, 0
0, 0
0, 0
0, 0
0, 0
0, 0
0, 0
0, 0
0, 0
0, 0
0, 0
0, 0
0, 0
0, 0
0, 0
0, 0
0, 0
0, 0
0, 0
0, 0
0, 0
0, 0
0, 0
0, 0
0, 0
0, 0
0, 0
0, 0
0, 0
0, 0
0, 0
0, 0
0, 0
0, 0
0, 0
0, 0
0, 0
0, 0
0, 0
0, 0
0, 0
0, 0
0, 0
0, 0
0, 0
0, 0
0, 0
0, 0
0, 0
0, 0
0, 0
0, 0
0, 0
0, 0
0, 0
0, 0
#ENDOFDATA     end of spectrum data