File: host_upload/12-01-2023/Dourbes (shot-by-shot)/upload_4/ps__0257_0689790785_000rfs_shot_3271.msa
#FORMAT      : EMSA/MAS spectral data file
#VERSION     : TC202v2.0 PIXL
#TITLE       : N/A
#DATE        :       Date in the format DD-MMM-YYYY, for example 07-JUL-2010
#TIME        :             The time of day at which the spectrum was recorded, in 24-hour format
#OWNER       : PIXL Flight Model       (PIXL will use this to indicate which instrument took the data.)
#NPOINTS     : 4096     Number of data points in the spectrum (This can be zero for configuration only files)
#NCOLUMNS    : 2     Number of data columns in the spectrum (This can be zero for configuration only files)
#XUNITS      : eV
#YUNITS      : COUNTS
#DATATYPE    : YY
#XPERCHAN    : 7.862, 7.881   eV per channel (separate by commas if more than one detector)
#OFFSET      : 18.5, -22.4         eV of first channel  (separate by commas if more than one detector
#SIGNALTYPE  : XRF
#YP_TEMP     : 3.39
#LIVETIME    : 9.09022, 9.09474   seconds (separate by commas if more than one detector)
#REALTIME    : 10, 10.0   seconds (separate by commas if more than one detector)
#SPECTRUM    : start of spectrum data
0, 0
0, 0
0, 0
0, 0
0, 0
0, 0
0, 0
0, 0
0, 0
0, 0
0, 0
0, 0
0, 0
0, 0
0, 0
0, 0
0, 0
0, 0
0, 0
0, 0
0, 0
0, 0
0, 0
0, 0
0, 0
0, 0
0, 0
0, 0
0, 0
0, 0
0, 0
1, 0
0, 0
0, 1
1, 0
1, 0
1, 1
2, 0
0, 1
1, 0
1, 4
0, 4
1, 3
1, 4
1, 4
2, 3
2, 1
3, 3
3, 2
2, 8
9, 8
26, 18
26, 24
47, 33
43, 43
35, 36
29, 23
21, 13
12, 13
9, 6
9, 13
22, 23
21, 31
37, 50
35, 36
27, 39
20, 23
21, 24
31, 23
50, 43
98, 124
239, 261
421, 442
554, 640
673, 779
689, 736
615, 612
383, 426
266, 307
145, 147
87, 66
33, 33
23, 20
16, 13
4, 9
5, 2
6, 9
3, 3
6, 7
3, 9
3, 2
0, 4
1, 13
2, 8
3, 8
1, 14
4, 15
5, 26
6, 15
7, 15
4, 12
5, 10
1, 3
1, 4
3, 1
5, 4
5, 6
11, 5
12, 12
26, 34
29, 42
44, 64
36, 119
58, 148
63, 182
67, 183
45, 189
41, 159
29, 143
27, 114
33, 86
33, 67
29, 55
27, 31
20, 21
19, 19
16, 14
10, 12
5, 12
7, 12
6, 7
1, 4
4, 4
3, 2
0, 5
9, 6
7, 11
16, 15
20, 30
24, 27
45, 40
33, 50
34, 41
27, 40
31, 27
24, 16
18, 6
13, 11
24, 10
21, 8
18, 17
42, 35
46, 62
114, 119
160, 178
280, 243
279, 293
321, 334
292, 308
267, 219
166, 154
122, 108
60, 74
22, 37
20, 16
14, 21
24, 15
21, 21
27, 34
33, 38
37, 39
52, 59
44, 39
44, 34
22, 22
15, 24
12, 13
10, 12
8, 3
8, 7
4, 2
3, 6
4, 5
5, 6
2, 8
1, 13
8, 13
9, 15
11, 12
13, 23
20, 24
22, 21
17, 32
19, 23
23, 29
22, 15
20, 15
20, 13
15, 13
20, 15
8, 11
10, 9
7, 15
6, 5
6, 6
6, 8
11, 9
9, 7
9, 8
2, 16
11, 19
5, 19
11, 10
7, 25
7, 21
4, 21
7, 19
6, 26
6, 17
10, 14
6, 14
3, 12
9, 12
8, 9
11, 13
7, 14
22, 13
21, 23
37, 27
20, 18
29, 38
31, 36
27, 53
26, 62
22, 64
20, 67
14, 55
20, 54
19, 44
18, 35
18, 30
16, 25
16, 20
17, 12
22, 21
31, 27
29, 29
49, 48
41, 52
65, 70
75, 79
55, 82
77, 46
60, 54
44, 42
32, 30
26, 24
20, 21
30, 14
44, 25
46, 25
61, 28
86, 46
110, 71
181, 180
312, 282
429, 541
718, 824
1114, 1287
1457, 1765
1919, 2106
2214, 2379
2242, 2380
2117, 2180
1864, 1833
1425, 1276
1047, 870
610, 531
379, 304
163, 157
106, 73
48, 43
30, 25
23, 16
16, 17
13, 17
18, 19
17, 21
20, 11
24, 18
22, 25
40, 38
49, 50
60, 95
92, 98
133, 158
188, 223
229, 284
313, 344
336, 372
313, 340
299, 303
232, 247
190, 201
127, 113
89, 56
66, 36
31, 30
8, 20
11, 16
8, 16
7, 18
6, 8
3, 11
11, 6
5, 8
7, 8
6, 9
9, 12
16, 5
10, 12
7, 4
10, 4
8, 7
8, 4
10, 8
7, 6
2, 12
2, 10
6, 12
6, 6
5, 12
8, 10
6, 13
7, 4
4, 9
3, 9
6, 9
5, 3
6, 7
6, 4
2, 7
1, 6
9, 9
10, 10
5, 9
6, 9
6, 6
1, 4
5, 6
11, 5
7, 8
4, 4
5, 3
9, 4
8, 6
6, 5
9, 4
8, 5
8, 5
8, 6
4, 3
6, 4
4, 9
6, 8
5, 5
8, 11
9, 5
3, 7
3, 5
4, 3
6, 4
4, 5
4, 5
6, 3
9, 5
5, 5
5, 6
5, 6
6, 9
5, 12
1, 6
3, 1
6, 9
3, 3
5, 5
2, 8
5, 9
8, 7
7, 8
6, 1
6, 3
7, 4
1, 4
2, 11
5, 7
7, 11
2, 9
3, 15
3, 11
7, 20
6, 11
4, 24
2, 11
3, 12
3, 12
7, 12
6, 14
6, 13
5, 9
0, 4
5, 5
5, 7
7, 3
5, 5
3, 4
3, 4
4, 4
3, 7
2, 4
1, 6
3, 3
3, 5
1, 4
4, 3
2, 10
7, 6
2, 6
6, 5
2, 11
4, 8
4, 6
1, 2
6, 5
7, 3
1, 5
2, 9
4, 5
4, 5
6, 2
3, 5
7, 6
4, 5
5, 2
6, 5
4, 3
2, 2
2, 3
4, 5
2, 5
3, 5
1, 8
4, 2
2, 2
5, 1
2, 3
3, 2
2, 7
2, 0
5, 4
4, 0
2, 5
5, 5
4, 3
1, 4
2, 2
3, 6
1, 2
0, 3
3, 0
0, 6
0, 3
2, 5
6, 1
0, 3
2, 5
2, 2
2, 0
7, 4
2, 6
5, 5
1, 2
4, 0
3, 3
6, 6
4, 2
4, 8
1, 11
10, 2
1, 2
7, 3
9, 2
3, 0
5, 2
5, 1
2, 3
5, 0
7, 2
6, 3
1, 2
3, 3
6, 2
7, 1
7, 4
2, 1
3, 3
4, 5
2, 4
2, 3
2, 2
2, 3
5, 2
2, 3
2, 6
2, 1
1, 2
3, 1
1, 4
0, 2
1, 4
3, 1
0, 1
3, 1
1, 2
1, 3
2, 1
3, 1
1, 6
1, 0
3, 1
2, 2
2, 0
2, 4
0, 2
2, 1
3, 0
6, 1
1, 2
4, 3
5, 3
2, 4
5, 5
5, 7
1, 4
4, 3
1, 3
2, 3
4, 0
2, 1
3, 6
1, 0
4, 1
1, 1
2, 3
3, 1
1, 1
3, 1
0, 1
2, 3
3, 1
3, 0
2, 2
1, 1
1, 4
0, 0
0, 1
3, 2
1, 3
2, 4
4, 3
2, 7
2, 1
1, 2
2, 1
2, 3
1, 2
1, 2
0, 1
0, 1
0, 2
0, 4
1, 3
0, 2
1, 1
5, 0
3, 0
2, 0
0, 2
0, 2
6, 2
2, 0
1, 1
0, 1
1, 1
2, 1
0, 1
2, 3
2, 3
2, 0
1, 3
1, 0
2, 2
1, 1
2, 1
0, 1
2, 0
0, 1
1, 1
0, 0
1, 0
1, 0
0, 3
0, 2
0, 0
1, 0
0, 1
1, 1
0, 1
1, 3
0, 1
1, 0
3, 1
1, 3
0, 2
2, 1
2, 2
0, 0
1, 1
2, 1
2, 0
0, 1
0, 0
2, 0
1, 2
0, 1
1, 0
1, 0
2, 3
1, 0
0, 0
1, 2
1, 0
0, 0
0, 2
1, 0
1, 2
0, 0
3, 3
0, 0
0, 1
0, 0
1, 1
0, 1
1, 1
1, 0
0, 2
0, 0
0, 0
0, 0
0, 0
0, 1
0, 1
0, 0
0, 0
0, 0
0, 2
0, 0
1, 0
0, 0
0, 0
0, 1
1, 0
0, 0
0, 1
0, 0
0, 1
1, 1
0, 0
0, 0
0, 1
0, 2
0, 0
0, 0
0, 0
0, 1
0, 1
0, 1
0, 0
1, 0
1, 0
0, 0
0, 1
0, 1
0, 0
0, 0
0, 0
0, 1
1, 1
0, 0
1, 1
0, 0
0, 0
0, 1
0, 0
0, 0
1, 1
0, 0
0, 0
3, 0
0, 0
1, 0
1, 0
1, 0
2, 0
0, 0
0, 0
0, 0
0, 0
0, 0
0, 0
1, 1
0, 1
1, 0
1, 0
0, 0
0, 0
0, 2
1, 0
0, 0
0, 0
0, 1
0, 0
0, 1
1, 1
0, 0
0, 1
0, 1
0, 0
0, 0
1, 1
0, 0
0, 0
0, 0
1, 2
0, 0
0, 0
0, 1
0, 0
1, 0
0, 0
0, 1
1, 0
1, 1
0, 0
0, 0
1, 0
0, 0
0, 0
1, 0
1, 0
1, 0
1, 0
0, 0
0, 0
0, 0
1, 0
0, 0
0, 0
0, 1
0, 0
0, 0
0, 0
0, 0
1, 0
0, 0
0, 1
1, 0
0, 0
0, 0
0, 1
0, 0
0, 1
1, 0
0, 0
0, 0
0, 0
1, 0
0, 0
0, 0
0, 0
0, 0
0, 0
0, 0
0, 1
1, 0
0, 0
0, 1
0, 1
1, 1
0, 0
0, 1
0, 0
0, 1
0, 0
0, 0
0, 0
0, 0
0, 0
0, 0
0, 0
0, 1
0, 0
0, 1
0, 0
0, 1
0, 0
0, 1
0, 0
0, 1
0, 1
0, 0
0, 0
0, 3
0, 0
0, 0
0, 0
0, 0
0, 0
1, 0
0, 0
0, 0
0, 1
0, 0
0, 0
0, 0
0, 0
0, 0
0, 0
0, 0
0, 0
0, 0
0, 0
0, 1
0, 0
0, 0
1, 0
0, 1
2, 0
0, 0
0, 0
1, 0
0, 0
0, 0
0, 0
1, 0
0, 1
0, 0
0, 0
0, 0
1, 0
0, 0
0, 0
0, 0
0, 0
0, 0
0, 0
0, 0
0, 0
0, 0
0, 0
0, 0
0, 0
0, 0
0, 0
0, 0
0, 0
0, 0
0, 0
0, 0
0, 0
0, 0
0, 0
0, 0
0, 0
0, 0
0, 0
0, 0
0, 0
0, 0
0, 0
0, 0
0, 0
0, 0
0, 0
0, 1
0, 0
0, 0
0, 0
0, 0
0, 0
0, 0
0, 0
0, 0
0, 0
0, 0
0, 0
0, 0
0, 0
0, 0
1, 0
0, 0
1, 0
0, 0
0, 0
0, 1
0, 0
0, 0
0, 0
0, 0
0, 0
0, 0
1, 0
0, 0
0, 0
1, 0
0, 0
0, 0
0, 0
0, 0
0, 0
0, 0
0, 0
0, 0
0, 0
0, 0
0, 0
0, 0
0, 0
0, 0
0, 0
0, 0
0, 1
0, 0
0, 0
0, 0
0, 0
0, 0
0, 0
0, 0
0, 0
0, 0
0, 0
0, 0
0, 0
0, 0
0, 0
0, 0
0, 0
0, 0
0, 0
0, 0
0, 0
0, 0
0, 0
0, 0
0, 0
0, 0
0, 0
0, 0
0, 0
0, 0
0, 0
0, 0
0, 0
0, 0
0, 0
0, 0
0, 0
0, 1
0, 0
0, 0
0, 0
0, 0
0, 0
0, 0
0, 0
0, 0
0, 0
0, 0
0, 0
0, 0
0, 0
0, 0
0, 0
0, 0
0, 0
0, 0
0, 0
0, 0
0, 0
0, 0
0, 0
0, 0
0, 0
0, 0
0, 0
0, 0
0, 0
0, 0
0, 0
0, 0
0, 0
0, 0
0, 0
0, 0
0, 0
0, 0
0, 0
0, 0
0, 0
0, 0
0, 0
0, 0
0, 0
0, 0
0, 0
0, 0
0, 0
0, 0
0, 0
0, 0
0, 0
0, 0
0, 0
0, 0
0, 0
0, 0
0, 0
0, 0
0, 0
0, 0
0, 0
0, 0
0, 0
0, 0
0, 0
0, 0
0, 0
0, 0
0, 0
0, 0
0, 0
0, 0
0, 0
0, 0
0, 0
0, 0
0, 0
0, 0
0, 0
0, 0
0, 0
0, 0
0, 0
0, 0
0, 0
0, 0
0, 0
0, 1
0, 0
0, 0
0, 0
0, 0
0, 0
0, 0
0, 0
0, 0
0, 0
0, 0
0, 0
0, 0
0, 0
0, 0
0, 0
0, 0
0, 0
0, 0
0, 0
0, 0
0, 0
0, 0
0, 0
0, 0
0, 0
0, 0
0, 0
0, 0
0, 0
0, 0
0, 0
0, 0
0, 0
0, 0
0, 0
0, 0
0, 0
0, 0
0, 0
0, 0
0, 0
0, 0
0, 0
0, 0
0, 0
0, 0
0, 0
0, 0
0, 0
0, 0
0, 0
0, 0
0, 0
0, 0
0, 0
0, 0
0, 0
0, 0
0, 0
0, 0
0, 0
0, 0
0, 0
0, 0
0, 0
0, 0
0, 0
0, 0
0, 0
0, 0
0, 0
0, 0
0, 0
0, 0
0, 0
0, 0
0, 0
0, 0
0, 0
0, 0
0, 0
0, 0
0, 0
0, 0
0, 0
0, 0
0, 0
0, 0
0, 0
0, 0
0, 0
0, 0
0, 0
0, 0
0, 0
0, 0
0, 0
0, 0
0, 0
0, 0
0, 0
0, 0
0, 0
0, 0
0, 0
0, 0
0, 0
0, 0
0, 0
0, 0
0, 0
0, 0
0, 0
0, 0
0, 0
0, 0
0, 0
0, 0
0, 0
0, 0
0, 0
0, 0
0, 0
0, 0
0, 0
0, 0
0, 0
0, 0
0, 0
0, 0
0, 0
0, 0
0, 0
0, 0
0, 0
0, 0
0, 0
0, 0
0, 0
0, 0
0, 0
0, 0
0, 0
0, 0
0, 0
0, 0
0, 0
0, 0
0, 0
0, 0
0, 0
0, 0
0, 0
0, 0
0, 0
0, 0
0, 0
0, 0
0, 0
0, 0
0, 0
0, 0
0, 0
0, 0
0, 0
0, 0
0, 0
0, 0
0, 0
0, 0
0, 0
0, 0
0, 0
0, 0
0, 0
0, 0
0, 0
0, 0
0, 0
0, 0
0, 0
0, 0
0, 0
0, 0
0, 0
0, 0
0, 0
0, 0
0, 0
0, 0
0, 0
0, 0
0, 0
0, 0
0, 0
0, 0
0, 0
0, 0
0, 0
0, 0
0, 0
0, 0
0, 0
0, 0
0, 0
0, 0
0, 0
0, 0
0, 0
0, 0
0, 0
0, 0
0, 0
0, 0
0, 0
0, 0
0, 0
0, 0
0, 0
0, 0
0, 0
0, 0
0, 0
0, 0
0, 0
0, 0
0, 0
0, 0
0, 0
0, 0
0, 0
0, 0
0, 0
0, 0
0, 0
0, 0
0, 0
0, 0
0, 0
0, 0
0, 0
0, 0
0, 0
0, 0
0, 0
0, 0
0, 0
0, 0
0, 0
0, 0
0, 0
0, 0
0, 0
0, 0
0, 0
0, 0
0, 0
0, 0
0, 0
0, 0
0, 0
0, 0
0, 0
0, 0
0, 0
0, 0
0, 0
0, 0
0, 0
0, 0
0, 0
0, 0
0, 0
0, 0
0, 0
0, 0
0, 0
0, 0
0, 0
0, 0
0, 0
0, 0
0, 0
0, 0
0, 0
0, 0
0, 0
0, 0
0, 0
0, 0
0, 0
0, 0
0, 0
0, 0
0, 0
0, 0
0, 0
#ENDOFDATA     end of spectrum data