File: host_upload/12-01-2023/Dourbes (shot-by-shot)/upload_4/ps__0257_0689790785_000rfs_shot_3059.msa
#FORMAT      : EMSA/MAS spectral data file
#VERSION     : TC202v2.0 PIXL
#TITLE       : N/A
#DATE        :       Date in the format DD-MMM-YYYY, for example 07-JUL-2010
#TIME        :             The time of day at which the spectrum was recorded, in 24-hour format
#OWNER       : PIXL Flight Model       (PIXL will use this to indicate which instrument took the data.)
#NPOINTS     : 4096     Number of data points in the spectrum (This can be zero for configuration only files)
#NCOLUMNS    : 2     Number of data columns in the spectrum (This can be zero for configuration only files)
#XUNITS      : eV
#YUNITS      : COUNTS
#DATATYPE    : YY
#XPERCHAN    : 7.862, 7.881   eV per channel (separate by commas if more than one detector)
#OFFSET      : 18.5, -22.4         eV of first channel  (separate by commas if more than one detector
#SIGNALTYPE  : XRF
#YP_TEMP     : 3.55
#LIVETIME    : 9.01151, 8.98213   seconds (separate by commas if more than one detector)
#REALTIME    : 10, 10.0   seconds (separate by commas if more than one detector)
#SPECTRUM    : start of spectrum data
0, 0
0, 0
0, 0
0, 0
0, 0
0, 0
0, 0
0, 0
0, 0
0, 0
0, 0
0, 0
0, 0
0, 0
0, 0
0, 0
0, 0
0, 0
0, 0
0, 0
0, 0
0, 0
0, 0
0, 0
0, 0
0, 0
0, 0
0, 0
0, 0
0, 0
0, 0
0, 0
0, 0
1, 0
0, 0
1, 1
1, 1
0, 1
2, 4
1, 1
1, 3
1, 1
1, 1
0, 0
1, 2
1, 2
1, 2
5, 4
2, 4
6, 4
4, 13
13, 25
23, 41
27, 49
49, 50
29, 45
32, 35
17, 30
10, 12
5, 7
7, 3
5, 4
5, 7
9, 10
9, 10
11, 9
8, 7
10, 11
14, 14
42, 35
87, 85
152, 183
301, 315
404, 451
512, 575
473, 538
405, 507
306, 351
179, 224
98, 122
47, 68
20, 29
15, 16
10, 13
15, 4
14, 10
17, 17
5, 11
13, 6
7, 7
7, 3
3, 7
5, 6
13, 16
20, 31
34, 24
67, 66
60, 75
108, 76
111, 99
93, 75
63, 60
42, 46
31, 23
15, 20
11, 10
10, 17
17, 13
21, 25
40, 39
53, 58
62, 79
94, 84
118, 92
104, 78
115, 74
85, 56
95, 69
60, 55
37, 27
38, 51
30, 35
28, 35
16, 25
30, 30
15, 19
16, 19
16, 14
8, 14
9, 15
11, 5
8, 2
3, 1
4, 5
2, 3
4, 5
4, 6
3, 6
4, 8
6, 11
7, 12
14, 5
16, 7
6, 12
6, 6
8, 5
3, 10
3, 2
5, 4
3, 5
6, 5
9, 9
15, 10
20, 12
23, 31
39, 45
52, 50
55, 48
59, 59
49, 31
38, 24
33, 21
25, 10
19, 10
9, 9
6, 6
10, 5
4, 11
6, 7
11, 15
6, 12
9, 18
8, 9
10, 10
10, 8
10, 1
2, 7
4, 6
7, 4
6, 2
3, 12
5, 7
2, 16
5, 18
5, 21
8, 32
3, 26
4, 33
10, 27
10, 25
16, 31
9, 24
11, 26
19, 16
17, 21
22, 21
15, 19
23, 22
19, 27
25, 13
11, 18
12, 14
9, 8
7, 9
2, 3
6, 11
4, 7
3, 7
10, 8
9, 7
3, 6
11, 13
6, 13
11, 10
9, 4
4, 5
7, 6
5, 8
7, 8
9, 12
5, 7
9, 11
18, 7
21, 6
36, 11
49, 12
62, 6
61, 15
72, 12
84, 12
85, 9
68, 8
45, 20
45, 8
33, 11
23, 16
18, 12
17, 12
8, 12
10, 11
5, 12
12, 19
9, 13
11, 30
13, 43
22, 43
41, 82
45, 81
68, 99
76, 143
91, 137
104, 103
89, 105
65, 84
54, 59
34, 51
26, 33
13, 28
13, 22
14, 20
14, 21
20, 36
45, 59
82, 118
176, 226
285, 463
569, 863
1061, 1333
1532, 2192
2201, 2907
2769, 3611
3271, 4063
3555, 4212
3392, 3713
2839, 3079
2244, 2322
1596, 1507
1038, 946
589, 529
300, 284
181, 132
88, 59
46, 35
34, 28
43, 12
41, 17
35, 19
29, 17
29, 13
31, 27
35, 34
40, 45
65, 79
107, 114
116, 158
182, 246
267, 377
350, 451
427, 543
483, 558
496, 618
440, 529
420, 411
315, 291
223, 208
149, 139
80, 57
52, 36
24, 25
13, 24
7, 14
5, 13
5, 9
3, 12
4, 13
9, 18
9, 14
6, 16
9, 14
10, 6
9, 2
5, 4
9, 5
3, 2
4, 4
1, 1
3, 5
1, 2
1, 5
4, 1
7, 1
6, 2
1, 3
5, 2
4, 2
2, 3
4, 2
1, 3
3, 0
1, 2
3, 2
2, 8
4, 6
3, 8
5, 5
8, 2
4, 3
3, 7
2, 6
1, 6
7, 2
1, 3
5, 9
4, 3
4, 3
9, 2
4, 1
3, 4
3, 3
7, 2
4, 4
3, 7
5, 5
9, 6
5, 4
5, 7
3, 7
5, 6
3, 9
11, 11
11, 11
11, 6
8, 5
14, 6
14, 2
8, 3
6, 5
7, 5
5, 2
4, 2
2, 2
3, 2
3, 4
2, 0
0, 3
2, 3
5, 2
2, 6
1, 2
4, 3
1, 3
4, 2
2, 2
5, 5
3, 3
2, 3
0, 4
5, 3
3, 4
2, 2
4, 2
3, 4
0, 2
1, 2
5, 2
2, 0
5, 4
0, 2
1, 6
2, 2
6, 4
2, 2
3, 0
1, 2
1, 3
2, 1
0, 2
3, 1
3, 1
4, 5
2, 2
4, 4
0, 2
4, 5
4, 3
4, 6
2, 5
1, 5
1, 9
2, 7
0, 11
2, 2
2, 1
2, 3
1, 7
1, 4
2, 6
2, 3
5, 4
1, 3
0, 3
1, 4
2, 2
3, 3
1, 3
2, 2
4, 6
0, 3
2, 5
1, 2
1, 4
2, 0
3, 2
1, 1
3, 2
2, 1
0, 3
0, 5
2, 0
3, 3
6, 0
2, 1
1, 1
2, 1
0, 2
1, 1
1, 2
0, 1
0, 0
1, 1
2, 1
2, 1
0, 0
0, 4
1, 1
1, 1
0, 2
1, 2
1, 4
0, 4
3, 5
3, 0
2, 4
1, 2
0, 5
0, 3
2, 4
2, 7
2, 1
2, 5
4, 2
0, 1
1, 4
1, 1
2, 2
1, 4
1, 4
2, 1
4, 5
1, 3
0, 7
1, 5
1, 1
1, 4
2, 2
3, 3
2, 0
2, 3
0, 1
5, 0
2, 1
2, 0
0, 3
0, 1
1, 1
2, 1
1, 2
1, 1
3, 5
2, 1
0, 2
3, 0
1, 1
1, 5
2, 2
2, 0
5, 1
0, 1
0, 3
0, 0
1, 2
1, 2
0, 2
1, 1
1, 2
6, 8
2, 2
2, 2
3, 7
2, 8
2, 2
5, 10
6, 8
5, 4
4, 4
1, 6
5, 3
0, 4
4, 3
0, 3
1, 1
0, 0
4, 2
0, 3
0, 1
0, 1
0, 1
3, 1
1, 1
2, 1
2, 3
2, 0
1, 0
1, 0
0, 1
1, 3
0, 1
1, 2
1, 8
1, 2
4, 4
0, 0
2, 4
2, 2
1, 2
1, 1
1, 2
3, 0
1, 1
2, 2
0, 1
2, 1
1, 0
1, 0
2, 0
3, 1
1, 2
3, 3
1, 1
4, 1
1, 0
0, 3
0, 0
0, 0
2, 0
1, 0
0, 0
2, 1
1, 2
1, 1
0, 0
1, 1
2, 1
1, 0
0, 2
4, 2
1, 0
1, 0
0, 1
2, 1
1, 1
2, 1
3, 0
1, 0
1, 2
1, 1
0, 1
0, 2
0, 0
0, 2
0, 0
0, 1
0, 0
0, 0
0, 1
1, 1
1, 2
1, 0
0, 0
0, 1
0, 2
1, 0
1, 1
3, 0
1, 3
1, 3
0, 0
0, 1
0, 0
1, 1
1, 1
0, 1
0, 0
0, 0
0, 0
0, 1
0, 0
0, 1
0, 1
1, 1
0, 0
0, 1
0, 0
0, 0
0, 0
0, 1
0, 0
0, 1
0, 0
0, 0
0, 0
1, 0
0, 0
2, 0
1, 1
1, 1
0, 0
0, 0
2, 1
0, 0
0, 1
1, 1
0, 1
1, 1
0, 0
0, 0
1, 1
1, 0
0, 0
1, 0
2, 0
0, 0
1, 0
0, 0
0, 0
0, 0
0, 0
1, 0
0, 0
0, 0
0, 0
0, 0
0, 0
0, 0
1, 0
0, 0
0, 0
0, 0
0, 2
1, 0
0, 1
0, 0
0, 0
1, 1
0, 0
0, 0
1, 1
0, 0
1, 0
0, 0
0, 0
0, 1
0, 1
0, 0
0, 0
0, 1
0, 0
1, 1
0, 0
0, 0
0, 0
0, 0
0, 0
0, 0
0, 0
1, 0
1, 0
0, 1
0, 1
0, 1
1, 0
0, 0
0, 0
0, 0
0, 0
0, 0
0, 0
0, 0
0, 0
0, 0
0, 1
0, 0
0, 0
0, 1
0, 1
0, 1
0, 0
0, 1
0, 1
0, 0
0, 0
0, 0
0, 1
0, 0
0, 0
0, 0
1, 0
0, 0
0, 0
0, 0
0, 1
0, 0
0, 0
0, 0
0, 0
0, 1
0, 0
0, 0
0, 0
0, 0
1, 0
1, 0
1, 0
0, 0
0, 0
0, 0
0, 0
0, 0
0, 0
0, 0
0, 0
0, 0
1, 0
0, 0
0, 0
0, 0
0, 1
0, 1
0, 0
0, 0
0, 0
0, 0
0, 0
0, 0
0, 1
0, 0
0, 0
0, 2
0, 0
1, 0
0, 0
0, 0
1, 0
0, 0
0, 0
0, 0
0, 0
1, 0
0, 0
0, 0
1, 0
0, 0
0, 0
0, 0
0, 0
0, 1
0, 0
0, 0
0, 0
0, 0
0, 0
0, 0
0, 0
0, 0
0, 0
0, 0
0, 0
0, 0
0, 0
0, 0
0, 0
0, 0
0, 0
0, 0
0, 0
0, 0
0, 0
0, 0
0, 0
0, 0
0, 0
0, 0
0, 0
0, 0
0, 0
1, 0
0, 0
0, 0
0, 0
0, 0
0, 0
0, 0
0, 1
0, 0
0, 0
0, 0
0, 0
0, 0
0, 0
0, 0
0, 0
0, 0
0, 0
0, 0
0, 0
0, 0
0, 0
1, 0
0, 0
0, 0
0, 1
2, 0
0, 0
0, 0
0, 0
2, 0
0, 0
0, 0
0, 0
0, 0
0, 0
0, 0
0, 0
0, 0
0, 0
0, 0
0, 0
1, 2
0, 0
0, 0
0, 0
0, 0
0, 0
0, 0
0, 0
0, 0
0, 0
0, 0
0, 0
0, 0
0, 0
0, 0
0, 0
0, 0
0, 0
0, 0
0, 0
0, 1
0, 0
0, 0
0, 0
0, 0
0, 0
0, 0
0, 0
0, 0
0, 0
0, 0
0, 0
0, 0
0, 0
0, 0
0, 0
0, 0
0, 0
0, 0
0, 0
0, 0
0, 0
0, 0
0, 0
0, 0
0, 0
0, 0
0, 0
0, 0
0, 0
0, 0
0, 0
0, 0
0, 0
0, 0
0, 0
0, 0
0, 0
0, 0
0, 0
0, 0
0, 0
0, 0
0, 0
0, 0
0, 0
0, 0
0, 0
0, 0
0, 0
0, 0
0, 0
0, 0
0, 0
0, 0
0, 0
0, 0
0, 0
0, 0
0, 0
0, 0
0, 0
0, 0
0, 0
0, 0
0, 0
0, 0
0, 0
0, 0
0, 0
0, 0
0, 0
0, 0
0, 0
0, 0
0, 0
0, 0
0, 0
0, 0
0, 0
0, 0
0, 0
0, 0
0, 0
0, 0
0, 0
0, 0
0, 0
0, 0
0, 0
0, 0
0, 0
0, 0
0, 0
0, 0
0, 0
0, 0
0, 0
0, 0
0, 0
0, 0
0, 0
0, 0
0, 0
0, 0
0, 0
0, 0
0, 0
0, 0
0, 0
0, 0
0, 0
0, 0
0, 0
0, 0
0, 0
0, 0
0, 0
0, 0
0, 0
0, 0
0, 0
0, 0
0, 0
0, 0
0, 0
0, 0
0, 0
0, 0
0, 0
0, 0
0, 0
0, 0
0, 0
0, 0
0, 0
0, 0
0, 0
0, 0
0, 0
0, 0
0, 0
0, 0
0, 0
0, 0
0, 0
0, 0
0, 0
0, 0
0, 0
0, 0
0, 0
0, 0
0, 0
0, 0
0, 0
0, 0
0, 0
0, 0
0, 0
0, 0
0, 0
0, 0
0, 0
0, 0
0, 0
0, 0
0, 0
0, 0
0, 0
0, 0
0, 0
0, 0
0, 0
0, 0
0, 0
0, 0
0, 0
0, 0
0, 0
0, 0
0, 0
0, 0
0, 0
0, 0
0, 0
0, 0
0, 0
0, 0
0, 0
0, 0
0, 0
0, 0
0, 0
0, 0
0, 0
0, 0
0, 0
0, 0
0, 0
0, 0
0, 0
0, 0
0, 0
0, 0
0, 0
0, 0
0, 0
0, 0
0, 0
0, 0
0, 0
0, 0
0, 0
0, 0
0, 0
0, 0
0, 0
0, 0
0, 0
0, 0
0, 0
0, 0
0, 0
0, 0
0, 0
0, 0
0, 0
0, 0
0, 0
0, 0
0, 0
0, 0
0, 0
0, 0
0, 0
0, 0
0, 0
0, 0
0, 0
0, 0
0, 0
0, 0
0, 0
0, 0
0, 0
0, 0
0, 0
0, 0
0, 0
0, 0
0, 0
0, 0
0, 0
0, 0
0, 0
0, 0
0, 0
0, 0
0, 0
0, 0
0, 0
0, 0
0, 0
0, 0
0, 0
0, 0
0, 0
0, 0
0, 0
0, 0
0, 0
0, 0
0, 0
0, 0
0, 0
0, 0
0, 0
0, 0
0, 0
0, 0
0, 0
0, 0
0, 0
0, 0
0, 0
0, 0
0, 0
0, 0
0, 0
0, 0
0, 0
0, 0
0, 0
0, 0
0, 0
0, 0
0, 0
0, 0
0, 0
0, 0
0, 0
0, 0
0, 0
0, 0
0, 0
0, 0
0, 0
0, 0
0, 0
0, 0
0, 0
0, 0
0, 0
0, 0
0, 0
0, 0
0, 0
0, 0
0, 0
0, 0
0, 0
0, 0
0, 0
0, 0
0, 0
0, 0
0, 0
0, 0
0, 0
0, 0
0, 0
0, 0
0, 0
0, 0
0, 0
0, 0
0, 0
0, 0
0, 0
0, 0
0, 0
0, 0
0, 0
0, 0
0, 0
0, 0
0, 0
0, 0
0, 0
0, 0
0, 0
0, 0
0, 0
0, 0
0, 0
0, 0
0, 0
0, 0
0, 0
0, 0
0, 0
0, 0
0, 0
0, 0
0, 0
0, 0
0, 0
0, 0
0, 0
0, 0
0, 0
0, 0
0, 0
0, 0
0, 0
0, 0
0, 0
0, 0
0, 0
0, 0
0, 0
0, 0
0, 0
0, 0
0, 0
0, 0
0, 0
0, 0
0, 0
0, 0
0, 0
0, 0
0, 0
0, 0
0, 0
0, 0
0, 0
0, 0
0, 0
0, 0
0, 0
0, 0
0, 0
0, 0
0, 0
0, 0
0, 0
0, 0
0, 0
0, 0
0, 0
0, 0
0, 0
0, 0
0, 0
0, 0
0, 0
0, 0
0, 0
0, 0
0, 0
0, 0
0, 0
0, 0
0, 0
0, 0
0, 0
0, 0
0, 0
0, 0
0, 0
0, 0
0, 0
0, 0
0, 0
0, 0
0, 0
0, 0
0, 0
0, 0
0, 0
0, 0
0, 0
0, 0
0, 0
0, 0
0, 0
0, 0
0, 0
0, 0
0, 0
0, 0
0, 0
0, 0
0, 0
0, 0
0, 0
0, 0
#ENDOFDATA     end of spectrum data