File: host_upload/12-01-2023/Dourbes (shot-by-shot)/upload_4/ps__0257_0689790785_000rfs_shot_3038.msa
#FORMAT      : EMSA/MAS spectral data file
#VERSION     : TC202v2.0 PIXL
#TITLE       : N/A
#DATE        :       Date in the format DD-MMM-YYYY, for example 07-JUL-2010
#TIME        :             The time of day at which the spectrum was recorded, in 24-hour format
#OWNER       : PIXL Flight Model       (PIXL will use this to indicate which instrument took the data.)
#NPOINTS     : 4096     Number of data points in the spectrum (This can be zero for configuration only files)
#NCOLUMNS    : 2     Number of data columns in the spectrum (This can be zero for configuration only files)
#XUNITS      : eV
#YUNITS      : COUNTS
#DATATYPE    : YY
#XPERCHAN    : 7.862, 7.881   eV per channel (separate by commas if more than one detector)
#OFFSET      : 18.5, -22.4         eV of first channel  (separate by commas if more than one detector
#SIGNALTYPE  : XRF
#YP_TEMP     : 3.165
#LIVETIME    : 9.00429, 9.0207   seconds (separate by commas if more than one detector)
#REALTIME    : 10, 10.0   seconds (separate by commas if more than one detector)
#SPECTRUM    : start of spectrum data
0, 0
0, 0
0, 0
0, 0
0, 0
0, 0
0, 0
0, 0
0, 0
0, 0
0, 0
0, 0
0, 0
0, 0
0, 0
0, 0
0, 0
0, 0
0, 0
0, 0
0, 0
0, 0
0, 0
0, 0
0, 0
0, 0
0, 0
0, 0
0, 0
0, 0
0, 0
0, 0
0, 0
0, 0
0, 0
2, 0
0, 0
0, 0
1, 1
1, 1
2, 1
4, 1
0, 3
2, 2
3, 0
3, 1
1, 2
1, 2
4, 7
7, 4
19, 13
25, 14
42, 32
48, 41
50, 36
53, 48
41, 26
21, 22
14, 19
7, 10
4, 4
3, 2
1, 3
1, 3
0, 5
0, 0
1, 2
2, 3
6, 5
9, 8
29, 20
37, 41
76, 81
120, 123
116, 143
139, 147
114, 114
81, 72
74, 47
33, 26
14, 13
11, 11
5, 9
4, 4
5, 3
6, 3
5, 2
4, 1
6, 1
2, 4
2, 0
2, 7
4, 2
11, 10
23, 21
39, 34
58, 49
73, 67
97, 80
95, 72
82, 61
61, 53
40, 43
28, 25
19, 9
11, 19
15, 17
22, 18
26, 27
42, 32
57, 68
80, 71
107, 100
132, 102
171, 115
128, 114
128, 99
82, 91
70, 69
62, 48
51, 42
42, 37
36, 38
23, 24
31, 34
33, 32
42, 33
26, 25
22, 27
14, 16
15, 18
15, 11
6, 10
16, 5
3, 1
5, 2
5, 5
8, 5
5, 7
11, 8
9, 7
6, 4
5, 8
8, 6
6, 6
7, 4
5, 2
8, 4
6, 3
5, 9
8, 7
34, 20
47, 45
89, 97
141, 120
180, 182
205, 198
247, 206
227, 203
171, 155
135, 92
65, 71
55, 54
25, 30
13, 19
16, 14
8, 12
19, 13
29, 13
36, 25
34, 31
45, 28
32, 30
28, 29
19, 23
18, 9
11, 18
11, 9
13, 5
14, 12
12, 7
11, 12
10, 6
10, 9
11, 6
7, 5
6, 16
13, 11
8, 14
12, 17
12, 24
15, 18
24, 14
23, 25
23, 19
18, 25
26, 37
36, 38
18, 39
27, 31
23, 35
24, 15
11, 19
16, 12
10, 12
13, 10
18, 10
13, 15
14, 11
16, 13
26, 13
23, 19
20, 14
19, 19
19, 11
17, 18
16, 14
20, 9
13, 12
17, 11
16, 12
14, 16
10, 14
15, 15
15, 15
15, 16
19, 16
11, 12
13, 19
14, 15
15, 15
10, 16
15, 7
14, 7
13, 10
13, 14
21, 8
14, 15
18, 17
13, 15
19, 18
17, 22
18, 18
25, 26
34, 26
44, 42
47, 52
76, 65
114, 101
116, 136
135, 140
139, 143
135, 103
107, 98
79, 76
60, 45
42, 27
40, 23
34, 23
35, 28
27, 26
37, 42
46, 56
89, 87
181, 194
287, 361
625, 687
1011, 1101
1672, 1751
2361, 2491
2954, 3070
3505, 3411
3625, 3468
3580, 3145
3078, 2615
2426, 2017
1749, 1340
1067, 805
649, 457
374, 221
204, 128
88, 75
48, 33
34, 27
28, 38
32, 32
31, 18
30, 32
38, 30
46, 39
49, 41
56, 54
74, 78
102, 114
145, 181
192, 228
305, 289
405, 402
493, 483
516, 490
543, 536
463, 421
397, 377
317, 244
243, 196
172, 122
80, 77
43, 31
26, 15
14, 9
10, 7
8, 6
6, 3
7, 7
4, 7
7, 9
4, 4
7, 3
4, 0
6, 5
6, 9
6, 5
2, 6
8, 6
1, 2
2, 3
3, 6
4, 7
4, 3
3, 1
6, 5
2, 5
2, 1
4, 4
3, 2
5, 10
6, 6
6, 4
4, 9
5, 5
5, 3
2, 6
7, 7
7, 1
6, 5
3, 5
4, 5
6, 6
4, 5
6, 2
1, 4
3, 3
9, 9
5, 2
5, 8
8, 6
2, 7
7, 2
4, 3
2, 5
5, 4
4, 8
7, 2
8, 1
9, 6
8, 12
6, 8
6, 5
7, 3
7, 11
5, 13
9, 10
7, 3
9, 8
8, 1
4, 1
8, 8
3, 5
4, 6
5, 3
5, 7
4, 2
7, 5
5, 6
5, 7
1, 3
6, 5
3, 6
2, 2
8, 5
6, 12
11, 1
5, 6
5, 4
3, 3
7, 5
5, 2
4, 7
8, 5
6, 3
3, 9
3, 4
2, 5
3, 8
7, 4
2, 8
3, 5
3, 7
4, 2
4, 8
7, 2
7, 2
2, 10
7, 7
4, 6
7, 5
3, 4
2, 5
4, 6
3, 4
8, 3
4, 1
5, 2
3, 10
7, 8
9, 1
6, 1
6, 5
3, 2
11, 0
4, 3
3, 5
1, 2
7, 2
2, 2
5, 4
4, 3
7, 4
5, 2
3, 6
2, 1
3, 7
3, 1
4, 1
7, 4
3, 1
3, 4
3, 1
4, 5
3, 3
0, 2
2, 1
2, 0
5, 3
2, 4
1, 2
5, 4
4, 5
6, 1
5, 1
1, 5
2, 2
5, 3
4, 5
3, 1
0, 2
3, 4
3, 3
2, 1
3, 4
1, 3
6, 2
3, 4
4, 3
5, 4
3, 2
2, 9
7, 2
4, 2
2, 4
4, 2
1, 5
3, 3
4, 6
4, 4
6, 3
3, 4
3, 4
2, 6
5, 2
6, 5
3, 0
2, 5
5, 3
2, 5
3, 2
2, 3
0, 2
2, 2
3, 1
3, 4
2, 2
4, 1
2, 3
1, 3
2, 2
3, 5
6, 3
3, 3
3, 0
3, 6
2, 1
2, 2
4, 2
5, 2
4, 1
2, 1
2, 4
4, 3
1, 2
1, 7
0, 0
4, 5
6, 3
1, 1
3, 2
5, 1
2, 1
3, 1
2, 1
2, 2
1, 2
3, 1
2, 2
4, 1
1, 2
10, 2
10, 1
13, 6
7, 7
6, 10
8, 7
8, 8
6, 13
1, 4
3, 9
7, 1
3, 3
6, 2
4, 0
2, 0
1, 2
2, 1
2, 0
1, 3
5, 1
1, 3
3, 1
1, 0
1, 0
1, 0
2, 2
7, 5
2, 4
1, 1
4, 2
1, 3
1, 3
5, 1
1, 1
2, 4
4, 5
0, 2
4, 3
3, 1
1, 1
2, 3
1, 2
1, 0
3, 2
1, 0
0, 1
0, 0
1, 0
0, 1
4, 1
1, 1
0, 2
2, 0
1, 1
0, 2
1, 0
3, 0
2, 0
1, 1
1, 1
0, 0
0, 0
1, 1
0, 0
0, 1
0, 4
1, 3
0, 1
0, 1
1, 0
0, 1
1, 1
3, 1
2, 1
3, 3
0, 0
0, 1
0, 1
0, 0
2, 0
0, 1
2, 0
2, 2
1, 2
3, 0
1, 0
1, 1
0, 0
1, 0
0, 0
2, 1
0, 0
0, 1
0, 1
1, 0
2, 4
1, 0
0, 1
0, 1
3, 1
2, 1
1, 0
1, 0
1, 2
2, 0
1, 1
1, 1
1, 1
0, 0
2, 0
2, 0
1, 1
1, 1
1, 0
1, 0
0, 0
0, 1
0, 0
0, 0
0, 2
0, 0
2, 1
0, 1
0, 1
0, 0
0, 0
1, 1
1, 2
0, 1
1, 0
1, 1
2, 0
0, 1
0, 1
1, 2
0, 0
0, 0
1, 1
1, 1
1, 0
0, 0
1, 0
0, 0
0, 0
0, 0
0, 1
0, 1
0, 1
0, 1
4, 0
0, 0
2, 1
0, 0
0, 3
0, 1
0, 1
0, 1
1, 1
0, 0
0, 1
0, 1
0, 1
1, 0
1, 0
0, 1
1, 0
1, 0
1, 1
1, 1
0, 0
0, 0
0, 0
0, 2
0, 1
1, 0
1, 1
0, 0
1, 0
0, 0
0, 1
0, 1
1, 0
1, 0
0, 1
0, 1
0, 1
0, 0
2, 0
0, 0
0, 0
1, 0
0, 1
0, 0
0, 0
0, 0
0, 0
0, 0
0, 0
0, 0
0, 0
0, 0
2, 1
0, 1
0, 0
0, 0
0, 0
1, 0
0, 0
0, 0
0, 1
0, 0
2, 1
0, 0
0, 0
1, 0
0, 1
0, 0
0, 0
1, 0
0, 1
0, 0
1, 0
0, 1
2, 0
1, 0
0, 1
0, 0
0, 0
0, 0
0, 0
0, 0
0, 0
0, 0
0, 2
0, 1
0, 0
0, 0
1, 0
1, 0
1, 0
1, 0
0, 0
0, 0
1, 0
0, 0
0, 0
0, 0
0, 0
0, 0
1, 0
1, 0
1, 1
0, 0
3, 0
1, 0
1, 1
0, 0
1, 1
1, 0
0, 0
0, 2
0, 1
0, 0
0, 0
0, 0
0, 0
0, 0
0, 0
0, 0
2, 0
0, 0
1, 0
0, 1
0, 0
3, 0
0, 0
0, 0
2, 0
0, 0
0, 0
1, 0
0, 0
1, 0
0, 0
0, 0
0, 0
0, 1
0, 0
0, 0
0, 0
0, 0
0, 0
0, 0
0, 0
0, 0
0, 0
2, 1
0, 0
0, 0
0, 0
0, 0
0, 0
0, 0
0, 0
0, 0
0, 0
0, 0
0, 1
0, 0
0, 0
0, 0
1, 1
1, 0
0, 1
0, 1
0, 0
0, 0
0, 0
0, 0
0, 0
0, 0
0, 0
0, 1
0, 0
0, 0
0, 0
0, 0
0, 0
1, 0
0, 0
0, 1
0, 0
1, 0
0, 0
0, 0
0, 0
0, 0
0, 0
0, 0
0, 0
0, 0
1, 0
0, 1
0, 0
0, 0
0, 0
0, 0
1, 0
0, 1
0, 0
0, 0
0, 0
0, 0
0, 0
0, 0
0, 0
0, 0
0, 0
0, 0
0, 0
0, 0
0, 0
0, 0
0, 0
0, 0
0, 0
0, 0
0, 0
0, 0
0, 0
0, 0
0, 0
0, 0
0, 1
0, 0
0, 0
0, 0
0, 0
0, 0
0, 0
1, 0
0, 0
0, 0
0, 0
0, 0
0, 0
0, 0
1, 0
0, 0
0, 0
0, 0
0, 1
0, 1
0, 0
0, 0
0, 0
0, 0
0, 0
0, 0
2, 0
0, 0
0, 0
0, 0
0, 0
0, 0
0, 0
0, 0
0, 0
0, 0
0, 0
0, 0
0, 0
0, 0
0, 0
0, 0
0, 0
0, 0
0, 0
0, 0
0, 0
0, 0
0, 0
0, 0
0, 0
0, 0
0, 0
0, 0
0, 0
0, 0
1, 0
1, 0
0, 0
1, 0
0, 0
0, 1
0, 0
0, 1
0, 0
0, 0
0, 0
0, 0
0, 0
0, 0
0, 0
0, 0
0, 0
0, 0
0, 0
0, 0
0, 0
0, 0
0, 0
0, 0
0, 0
0, 0
0, 0
0, 0
0, 0
0, 0
0, 0
0, 0
0, 0
0, 0
0, 0
0, 0
0, 0
0, 0
0, 0
0, 0
0, 0
0, 0
0, 0
0, 0
0, 0
0, 0
0, 0
0, 0
0, 0
0, 0
0, 0
0, 0
0, 0
0, 0
0, 0
0, 0
0, 0
0, 0
0, 0
0, 0
0, 0
0, 0
0, 0
0, 0
0, 0
0, 0
0, 0
0, 0
0, 0
0, 0
0, 0
0, 0
0, 0
0, 0
0, 0
0, 0
0, 0
0, 0
0, 0
0, 0
0, 0
0, 0
0, 0
0, 0
0, 0
0, 0
0, 0
0, 0
0, 0
0, 0
0, 0
0, 0
0, 0
0, 0
0, 0
0, 0
0, 0
0, 0
0, 0
0, 0
0, 0
0, 0
0, 0
0, 0
0, 0
0, 0
0, 0
0, 0
0, 0
0, 0
0, 0
0, 0
0, 0
0, 0
0, 0
0, 0
0, 0
0, 0
0, 0
0, 0
0, 0
0, 0
0, 0
0, 0
0, 0
0, 0
0, 0
0, 0
1, 0
0, 0
0, 0
0, 0
0, 0
0, 0
0, 0
0, 0
0, 0
0, 0
0, 0
0, 0
0, 0
0, 0
0, 0
0, 0
0, 0
0, 0
0, 0
0, 0
0, 0
0, 0
0, 0
0, 0
0, 0
0, 0
0, 0
0, 0
0, 0
0, 0
0, 0
0, 0
0, 0
0, 0
0, 0
0, 0
0, 0
0, 0
0, 0
0, 0
0, 0
0, 0
0, 0
0, 0
0, 0
0, 0
0, 0
0, 0
0, 0
0, 0
0, 0
0, 0
0, 0
0, 0
0, 0
0, 0
0, 0
0, 0
0, 0
0, 0
0, 0
0, 0
0, 0
0, 0
0, 0
0, 0
0, 0
0, 0
0, 0
0, 0
0, 0
0, 0
0, 0
0, 0
0, 0
0, 0
0, 0
0, 0
0, 0
0, 0
0, 0
0, 0
0, 0
0, 0
0, 0
0, 0
0, 0
0, 0
0, 0
0, 0
0, 0
0, 0
0, 0
0, 0
0, 0
0, 0
0, 0
0, 0
0, 0
0, 0
0, 0
0, 0
0, 0
0, 0
0, 0
0, 0
0, 0
0, 0
0, 0
0, 0
0, 0
0, 0
0, 0
0, 0
0, 0
0, 0
0, 0
0, 0
0, 0
0, 0
0, 0
0, 0
0, 0
0, 0
0, 0
0, 0
0, 0
0, 0
0, 0
0, 0
0, 0
0, 0
0, 0
0, 0
0, 0
0, 0
0, 0
0, 0
0, 0
0, 0
0, 0
0, 0
0, 0
0, 0
0, 0
0, 0
0, 0
0, 0
0, 0
0, 0
0, 0
0, 0
0, 0
0, 0
0, 0
0, 0
0, 0
0, 0
0, 0
0, 0
0, 0
0, 0
0, 0
0, 0
0, 0
0, 0
0, 0
0, 0
0, 0
0, 0
0, 0
0, 0
0, 0
0, 0
0, 0
0, 0
0, 0
0, 0
0, 0
0, 0
0, 0
0, 0
0, 0
0, 0
0, 0
0, 0
0, 0
0, 0
0, 0
0, 0
0, 0
0, 0
0, 0
0, 0
0, 0
0, 0
0, 0
0, 0
0, 0
0, 0
0, 0
0, 0
0, 0
0, 0
0, 0
0, 0
0, 0
0, 0
0, 0
0, 0
0, 0
0, 0
0, 0
0, 0
0, 0
0, 0
0, 0
0, 0
0, 0
0, 0
0, 0
0, 0
0, 0
0, 0
0, 0
0, 0
0, 0
0, 0
0, 0
0, 0
0, 0
0, 0
0, 0
0, 0
0, 0
0, 0
0, 0
0, 0
0, 0
0, 0
0, 0
0, 0
0, 0
0, 0
0, 0
0, 0
0, 0
0, 0
0, 0
0, 0
0, 0
0, 0
0, 0
0, 0
0, 0
0, 0
0, 0
0, 0
0, 0
0, 0
0, 0
0, 0
0, 0
0, 0
0, 0
0, 0
0, 0
0, 0
0, 0
0, 0
0, 0
0, 0
0, 0
#ENDOFDATA     end of spectrum data