File: host_upload/12-01-2023/Dourbes (shot-by-shot)/upload_4/ps__0257_0689790785_000rfs_shot_3028.msa
#FORMAT      : EMSA/MAS spectral data file
#VERSION     : TC202v2.0 PIXL
#TITLE       : N/A
#DATE        :       Date in the format DD-MMM-YYYY, for example 07-JUL-2010
#TIME        :             The time of day at which the spectrum was recorded, in 24-hour format
#OWNER       : PIXL Flight Model       (PIXL will use this to indicate which instrument took the data.)
#NPOINTS     : 4096     Number of data points in the spectrum (This can be zero for configuration only files)
#NCOLUMNS    : 2     Number of data columns in the spectrum (This can be zero for configuration only files)
#XUNITS      : eV
#YUNITS      : COUNTS
#DATATYPE    : YY
#XPERCHAN    : 7.862, 7.881   eV per channel (separate by commas if more than one detector)
#OFFSET      : 18.5, -22.4         eV of first channel  (separate by commas if more than one detector
#SIGNALTYPE  : XRF
#YP_TEMP     : 2.973
#LIVETIME    : 9.11713, 9.11942   seconds (separate by commas if more than one detector)
#REALTIME    : 10, 10.0   seconds (separate by commas if more than one detector)
#SPECTRUM    : start of spectrum data
0, 0
0, 0
0, 0
0, 0
0, 0
0, 0
0, 0
0, 0
0, 0
0, 0
0, 0
0, 0
0, 0
0, 0
0, 0
0, 0
0, 0
0, 0
0, 0
0, 0
0, 0
0, 0
0, 0
0, 0
0, 0
0, 0
0, 0
0, 0
0, 0
0, 0
0, 0
0, 0
0, 0
0, 0
0, 0
1, 2
2, 0
1, 0
3, 0
1, 1
1, 0
2, 2
2, 0
3, 2
3, 6
1, 4
4, 4
1, 2
2, 4
6, 7
9, 5
11, 14
22, 19
45, 35
22, 31
31, 32
33, 29
16, 28
6, 9
17, 13
19, 15
24, 27
55, 45
57, 47
54, 61
54, 42
37, 41
38, 33
25, 28
54, 50
103, 96
239, 211
382, 363
517, 526
717, 634
695, 596
629, 516
429, 385
287, 221
131, 140
81, 74
39, 31
19, 20
10, 8
5, 7
3, 2
1, 5
4, 3
4, 3
1, 3
1, 3
1, 0
3, 1
2, 2
4, 5
4, 6
3, 6
8, 15
12, 13
11, 15
16, 15
11, 9
9, 10
9, 7
4, 3
6, 5
15, 11
9, 16
26, 28
45, 46
65, 57
70, 74
71, 115
92, 85
108, 90
101, 88
71, 67
61, 53
45, 63
51, 52
42, 41
45, 50
25, 34
21, 31
25, 26
19, 12
20, 15
17, 14
8, 14
7, 6
7, 7
4, 3
5, 3
4, 1
4, 1
2, 4
10, 13
19, 11
28, 24
31, 34
45, 35
40, 42
37, 36
30, 35
29, 23
21, 16
11, 7
3, 5
10, 10
10, 6
11, 11
17, 21
13, 19
27, 24
49, 39
55, 50
54, 43
59, 59
71, 50
62, 44
37, 25
32, 17
20, 13
7, 10
7, 6
6, 6
8, 5
12, 3
7, 13
16, 9
14, 10
13, 8
15, 14
18, 9
30, 10
28, 4
36, 8
30, 6
38, 9
25, 9
27, 8
10, 9
12, 13
13, 10
5, 12
4, 9
5, 10
8, 6
11, 14
10, 14
14, 23
20, 13
20, 20
29, 19
20, 13
18, 15
14, 15
16, 13
16, 13
9, 12
16, 15
11, 10
5, 12
11, 7
10, 10
12, 12
13, 7
5, 10
11, 12
10, 9
13, 13
8, 16
15, 12
8, 10
8, 11
6, 13
7, 10
10, 15
12, 6
10, 7
8, 8
5, 7
11, 8
9, 7
7, 9
12, 11
12, 9
13, 15
11, 18
19, 8
9, 11
18, 17
15, 18
21, 12
13, 12
12, 12
7, 6
17, 9
6, 9
8, 12
12, 7
4, 12
8, 7
11, 15
13, 13
27, 19
20, 30
30, 36
43, 62
37, 66
66, 57
59, 84
46, 76
43, 87
42, 79
40, 77
27, 88
14, 57
14, 52
17, 47
21, 42
30, 36
38, 40
59, 78
118, 131
239, 279
437, 433
647, 781
1073, 1166
1500, 1605
1946, 1938
2274, 2189
2325, 2225
2257, 2136
1974, 1672
1574, 1240
1097, 873
748, 532
408, 313
228, 152
120, 88
70, 35
42, 23
25, 18
19, 25
16, 19
15, 31
17, 32
18, 33
17, 35
17, 51
29, 52
35, 56
61, 82
67, 130
115, 167
196, 203
247, 282
306, 296
336, 346
348, 330
310, 283
268, 216
222, 165
187, 132
102, 60
58, 42
33, 35
22, 11
14, 11
5, 12
5, 4
6, 3
6, 11
6, 21
6, 8
6, 16
5, 7
6, 5
19, 11
6, 7
10, 10
4, 4
5, 4
9, 6
2, 7
9, 9
6, 3
9, 4
4, 8
7, 5
7, 6
5, 6
6, 1
9, 5
7, 5
11, 8
12, 4
9, 2
9, 5
7, 7
7, 7
8, 5
12, 6
5, 8
5, 5
8, 2
5, 3
5, 5
3, 5
7, 8
12, 7
9, 3
11, 6
5, 5
7, 4
8, 7
11, 8
6, 2
11, 4
6, 3
5, 4
6, 5
5, 9
6, 6
5, 5
9, 7
11, 2
6, 11
12, 7
5, 6
7, 3
6, 2
7, 1
4, 5
7, 7
7, 1
7, 4
4, 1
7, 4
6, 3
2, 5
3, 8
7, 6
6, 5
4, 5
6, 1
9, 2
1, 3
9, 5
10, 5
7, 8
2, 9
6, 5
5, 3
4, 7
5, 8
3, 4
2, 18
3, 8
5, 9
6, 13
4, 13
3, 11
8, 7
10, 11
5, 2
8, 8
8, 3
4, 10
5, 7
6, 10
4, 2
5, 3
4, 3
2, 4
5, 6
6, 3
4, 2
7, 3
5, 2
6, 3
5, 2
3, 5
3, 4
6, 3
6, 3
7, 5
6, 3
3, 6
6, 3
5, 5
5, 2
8, 2
6, 7
3, 6
3, 10
4, 4
7, 3
6, 6
3, 1
2, 6
6, 2
3, 4
3, 1
3, 2
4, 0
1, 2
1, 4
1, 2
2, 2
2, 1
4, 5
2, 3
3, 3
6, 5
6, 0
5, 3
2, 6
2, 3
1, 2
2, 1
6, 3
3, 1
4, 0
2, 1
4, 5
7, 5
5, 2
2, 2
4, 2
6, 4
2, 2
1, 3
4, 1
3, 3
3, 6
2, 4
3, 2
6, 2
2, 6
5, 2
2, 6
3, 0
5, 6
3, 2
7, 5
4, 2
2, 3
2, 1
3, 2
4, 0
2, 0
5, 0
3, 4
4, 1
4, 2
1, 2
5, 2
4, 3
3, 4
4, 3
1, 1
2, 1
2, 2
3, 3
4, 1
1, 0
5, 0
4, 4
2, 3
4, 3
3, 3
1, 2
0, 3
3, 1
3, 2
1, 3
1, 0
2, 2
1, 1
0, 3
3, 0
2, 2
2, 0
4, 3
2, 3
0, 1
3, 1
3, 0
3, 2
3, 1
3, 1
1, 2
3, 2
4, 3
6, 1
4, 5
3, 1
7, 6
2, 6
5, 2
3, 4
3, 2
0, 4
2, 0
4, 3
0, 0
4, 3
2, 0
3, 0
1, 1
2, 2
5, 2
4, 1
0, 0
0, 2
0, 3
4, 1
0, 3
3, 0
1, 0
1, 1
1, 3
4, 2
3, 0
1, 2
2, 0
3, 4
2, 0
3, 1
5, 2
1, 3
0, 4
3, 0
2, 2
2, 2
2, 3
2, 0
0, 1
0, 0
0, 3
1, 2
1, 0
0, 0
1, 2
1, 1
2, 2
1, 0
2, 0
1, 0
0, 0
1, 2
1, 2
0, 1
1, 0
0, 2
1, 2
1, 3
2, 1
1, 1
2, 0
2, 0
4, 1
0, 2
1, 1
2, 0
1, 1
4, 1
0, 0
0, 0
2, 1
2, 0
0, 0
2, 3
0, 0
0, 1
1, 1
0, 1
1, 2
2, 3
1, 0
2, 1
1, 0
1, 0
2, 1
0, 0
2, 2
2, 1
1, 0
0, 0
0, 0
0, 1
0, 2
2, 0
2, 0
1, 0
0, 1
1, 1
1, 0
2, 0
0, 1
2, 0
0, 0
1, 1
1, 0
0, 0
0, 0
0, 1
2, 0
0, 2
0, 1
3, 0
2, 0
0, 0
0, 0
1, 0
0, 0
0, 0
4, 1
0, 0
0, 1
2, 1
1, 0
0, 0
0, 0
0, 0
0, 1
0, 0
0, 0
0, 0
0, 0
1, 1
0, 0
0, 0
2, 0
2, 0
0, 0
0, 0
2, 0
0, 0
0, 1
1, 0
0, 1
1, 0
0, 0
1, 0
0, 1
2, 0
2, 2
0, 0
1, 1
2, 0
0, 1
2, 0
0, 0
1, 0
0, 0
0, 0
0, 0
0, 0
1, 0
1, 0
0, 0
1, 2
1, 0
0, 0
0, 1
2, 0
0, 0
0, 1
1, 0
0, 0
0, 0
2, 1
0, 1
0, 0
0, 1
0, 0
0, 0
0, 0
0, 0
1, 0
1, 1
0, 0
0, 2
0, 0
0, 1
0, 0
1, 0
1, 0
0, 0
1, 0
0, 2
0, 2
0, 0
0, 0
1, 0
2, 0
0, 0
0, 0
1, 1
0, 0
0, 0
0, 0
0, 1
0, 1
0, 0
0, 0
0, 1
0, 0
0, 1
0, 0
0, 1
0, 1
1, 0
0, 1
1, 0
1, 0
0, 0
0, 0
0, 0
0, 0
0, 0
2, 0
0, 0
0, 1
0, 0
0, 0
0, 0
0, 0
0, 0
0, 0
0, 0
0, 1
0, 0
0, 0
0, 0
0, 0
2, 1
0, 0
0, 0
0, 0
0, 0
0, 0
0, 0
0, 0
0, 1
0, 0
0, 0
0, 0
0, 0
0, 0
0, 0
0, 0
0, 1
0, 0
1, 0
0, 0
0, 0
3, 0
0, 1
0, 0
0, 0
0, 0
0, 0
1, 0
0, 1
1, 2
0, 0
0, 1
1, 0
1, 0
1, 0
0, 0
1, 0
0, 0
0, 0
0, 0
0, 0
0, 0
0, 0
0, 0
0, 0
1, 0
0, 0
0, 0
1, 0
0, 0
0, 0
0, 0
0, 0
0, 0
0, 0
1, 0
0, 0
0, 1
0, 0
1, 1
0, 0
0, 1
1, 0
0, 0
0, 0
0, 1
0, 0
0, 0
0, 0
0, 0
0, 0
0, 0
0, 1
0, 0
0, 0
0, 0
0, 0
0, 0
1, 1
0, 1
0, 0
0, 0
0, 0
0, 0
0, 0
0, 0
1, 0
0, 0
0, 0
0, 0
0, 0
0, 0
0, 0
0, 0
0, 0
0, 0
0, 0
0, 0
0, 0
0, 0
0, 0
0, 0
0, 0
0, 0
0, 0
0, 0
0, 0
0, 0
0, 0
1, 0
0, 0
0, 0
0, 0
0, 0
0, 0
0, 0
0, 0
0, 0
0, 0
0, 0
0, 0
0, 0
0, 0
0, 0
0, 0
0, 0
0, 0
0, 0
0, 0
0, 0
0, 0
0, 0
0, 0
0, 0
0, 0
0, 0
0, 1
0, 0
1, 0
0, 0
0, 0
0, 0
0, 0
0, 0
0, 0
1, 0
0, 0
0, 0
0, 0
1, 1
0, 0
0, 0
0, 0
0, 0
0, 0
0, 0
0, 0
0, 0
0, 0
0, 0
0, 0
0, 0
0, 0
0, 0
0, 0
0, 0
0, 0
0, 0
0, 0
0, 0
0, 0
0, 0
0, 0
0, 0
0, 0
0, 0
0, 0
0, 0
0, 0
0, 0
0, 0
0, 0
0, 0
0, 0
0, 0
0, 0
0, 0
0, 0
0, 0
0, 0
0, 0
0, 0
0, 0
0, 0
0, 0
0, 0
0, 0
0, 0
0, 0
0, 0
0, 0
0, 0
0, 1
0, 0
0, 0
0, 0
0, 0
0, 0
0, 0
0, 0
0, 0
0, 0
0, 0
0, 0
0, 0
0, 0
0, 0
0, 0
0, 0
0, 0
0, 0
0, 0
0, 0
0, 0
0, 0
0, 0
0, 0
0, 0
0, 0
0, 0
0, 0
0, 0
0, 0
0, 0
0, 0
0, 0
0, 0
0, 0
0, 0
0, 0
0, 0
0, 0
0, 0
0, 0
0, 0
0, 0
0, 0
0, 0
0, 0
0, 0
0, 0
0, 0
0, 0
0, 0
0, 0
0, 0
0, 0
0, 0
0, 0
0, 0
0, 0
0, 0
0, 0
0, 0
0, 0
0, 0
0, 0
0, 0
0, 0
0, 0
0, 0
0, 0
0, 0
0, 0
0, 0
0, 0
0, 0
0, 0
0, 0
0, 0
0, 0
0, 0
0, 0
0, 0
0, 0
0, 0
0, 0
0, 0
0, 0
0, 0
0, 0
0, 0
0, 0
0, 0
0, 0
0, 0
0, 0
0, 0
0, 0
0, 0
0, 0
0, 0
0, 0
0, 0
0, 0
0, 0
0, 0
0, 0
0, 0
0, 0
0, 0
0, 0
0, 0
0, 0
0, 0
0, 0
0, 0
0, 0
0, 0
0, 0
0, 0
0, 0
0, 0
0, 0
0, 0
0, 0
0, 0
0, 0
0, 0
0, 0
0, 0
0, 0
0, 0
0, 0
0, 0
0, 0
0, 0
0, 0
0, 0
0, 0
0, 0
0, 0
0, 0
0, 0
0, 0
0, 0
0, 0
0, 0
0, 0
0, 0
0, 0
0, 0
0, 0
0, 0
0, 0
0, 0
0, 1
0, 0
0, 0
0, 0
0, 0
0, 0
0, 0
0, 0
0, 0
0, 0
0, 0
0, 0
0, 0
0, 0
0, 0
0, 0
0, 0
0, 0
0, 0
0, 0
0, 0
0, 0
0, 0
0, 0
0, 0
0, 0
0, 0
0, 0
0, 0
0, 0
0, 0
0, 0
0, 0
0, 0
0, 0
0, 0
0, 0
0, 0
0, 0
0, 0
0, 0
0, 0
0, 0
0, 0
0, 0
0, 0
0, 0
0, 0
0, 0
0, 0
0, 0
0, 0
0, 0
0, 0
0, 0
0, 0
0, 0
0, 0
0, 0
0, 0
0, 0
0, 0
0, 0
0, 0
0, 0
0, 0
0, 0
0, 0
0, 0
0, 0
0, 0
0, 0
0, 0
0, 0
0, 0
0, 0
0, 0
0, 0
0, 0
0, 0
0, 0
0, 0
0, 0
0, 0
0, 0
0, 0
0, 0
0, 0
0, 0
0, 0
0, 0
0, 0
0, 0
0, 0
0, 0
0, 0
0, 0
0, 0
0, 0
0, 0
0, 0
0, 0
0, 0
0, 0
0, 0
0, 0
0, 0
0, 0
0, 0
0, 0
0, 0
0, 0
0, 0
0, 0
0, 0
0, 0
0, 0
0, 0
0, 0
0, 0
0, 0
0, 0
0, 0
0, 0
0, 0
0, 0
0, 0
0, 0
0, 0
0, 0
0, 0
0, 0
0, 0
0, 0
0, 0
0, 0
0, 0
0, 0
0, 0
0, 0
0, 0
0, 0
0, 0
0, 0
0, 0
0, 0
0, 0
0, 0
0, 0
0, 0
0, 0
0, 0
0, 0
0, 0
0, 0
0, 0
0, 0
0, 0
0, 0
0, 0
0, 0
0, 0
0, 0
0, 0
0, 0
0, 0
0, 0
0, 0
0, 0
0, 0
0, 0
0, 0
0, 0
0, 0
0, 0
0, 0
0, 0
0, 0
0, 0
0, 0
0, 0
0, 0
0, 0
0, 0
0, 0
0, 0
0, 0
0, 0
0, 0
0, 0
0, 0
0, 0
0, 0
0, 0
0, 0
0, 0
0, 0
0, 0
0, 0
0, 0
0, 0
0, 0
0, 0
0, 0
0, 0
0, 0
0, 0
0, 0
0, 0
0, 0
0, 0
0, 0
0, 0
0, 0
0, 0
0, 0
0, 0
0, 0
0, 0
0, 0
0, 0
0, 0
0, 0
0, 0
0, 0
0, 0
0, 0
0, 0
0, 0
0, 0
0, 0
#ENDOFDATA     end of spectrum data