File: host_upload/12-01-2023/Dourbes (shot-by-shot)/upload_4/ps__0257_0689790785_000rfs_shot_3031.msa
#FORMAT      : EMSA/MAS spectral data file
#VERSION     : TC202v2.0 PIXL
#TITLE       : N/A
#DATE        :       Date in the format DD-MMM-YYYY, for example 07-JUL-2010
#TIME        :             The time of day at which the spectrum was recorded, in 24-hour format
#OWNER       : PIXL Flight Model       (PIXL will use this to indicate which instrument took the data.)
#NPOINTS     : 4096     Number of data points in the spectrum (This can be zero for configuration only files)
#NCOLUMNS    : 2     Number of data columns in the spectrum (This can be zero for configuration only files)
#XUNITS      : eV
#YUNITS      : COUNTS
#DATATYPE    : YY
#XPERCHAN    : 7.862, 7.881   eV per channel (separate by commas if more than one detector)
#OFFSET      : 18.5, -22.4         eV of first channel  (separate by commas if more than one detector
#SIGNALTYPE  : XRF
#YP_TEMP     : 3.133
#LIVETIME    : 9.08219, 9.08486   seconds (separate by commas if more than one detector)
#REALTIME    : 10, 10.0   seconds (separate by commas if more than one detector)
#SPECTRUM    : start of spectrum data
0, 0
0, 0
0, 0
0, 0
0, 0
0, 0
0, 0
0, 0
0, 0
0, 0
0, 0
0, 0
0, 0
0, 0
0, 0
0, 0
0, 0
0, 0
0, 0
0, 0
0, 0
0, 0
0, 0
0, 0
0, 0
0, 0
0, 0
0, 1
0, 0
0, 0
0, 0
0, 0
0, 0
1, 0
0, 0
1, 2
0, 0
2, 0
3, 2
4, 4
3, 5
3, 2
1, 0
4, 2
3, 2
1, 7
2, 3
2, 0
2, 4
6, 6
14, 9
26, 10
21, 29
33, 30
36, 21
43, 35
29, 23
19, 13
9, 11
8, 11
16, 13
28, 24
31, 29
52, 43
47, 41
32, 48
38, 31
22, 33
27, 27
54, 36
94, 92
207, 186
327, 314
505, 546
619, 596
609, 579
474, 549
356, 369
237, 235
135, 126
93, 59
29, 34
17, 13
7, 4
6, 7
5, 1
4, 1
4, 1
2, 4
3, 1
2, 1
0, 1
0, 4
3, 4
9, 10
19, 14
25, 17
25, 30
28, 34
29, 29
17, 23
34, 22
13, 13
18, 10
9, 7
9, 6
19, 9
20, 27
24, 25
45, 37
56, 82
95, 98
97, 133
106, 152
134, 138
110, 133
94, 150
77, 118
67, 94
44, 72
44, 43
39, 51
34, 39
37, 43
17, 30
16, 24
25, 21
14, 22
18, 20
15, 9
8, 7
4, 8
5, 5
3, 3
5, 4
3, 5
6, 10
3, 14
13, 20
27, 26
34, 30
37, 36
35, 37
34, 24
23, 14
15, 12
10, 4
10, 17
9, 6
6, 7
3, 14
18, 17
30, 24
42, 31
35, 45
53, 60
62, 73
72, 76
60, 62
60, 52
43, 40
31, 31
19, 17
13, 10
8, 11
8, 4
5, 7
4, 6
10, 5
11, 13
14, 8
18, 5
23, 10
15, 12
24, 9
22, 9
34, 12
34, 10
27, 9
37, 5
20, 10
16, 10
6, 9
8, 10
9, 12
8, 15
7, 8
8, 11
17, 10
15, 15
20, 9
16, 20
18, 13
24, 11
19, 18
21, 17
26, 21
25, 20
16, 21
18, 24
15, 16
15, 13
8, 24
10, 13
11, 9
6, 6
5, 8
6, 0
9, 7
13, 6
18, 9
12, 14
5, 7
9, 8
10, 11
7, 12
9, 9
7, 10
7, 9
17, 8
8, 14
12, 9
11, 8
9, 15
10, 7
14, 13
15, 14
12, 19
9, 14
12, 26
15, 15
13, 16
11, 22
7, 20
9, 16
8, 18
19, 10
13, 7
12, 11
11, 12
13, 10
12, 10
20, 18
20, 12
25, 16
24, 21
34, 33
44, 38
52, 50
46, 70
75, 82
75, 121
63, 108
47, 106
46, 93
26, 81
25, 62
23, 64
15, 38
15, 49
25, 33
31, 31
39, 40
90, 92
133, 149
255, 284
434, 572
775, 891
1209, 1383
1702, 1841
2234, 2323
2619, 2657
2676, 2649
2586, 2456
2167, 1924
1746, 1452
1276, 973
801, 592
449, 297
256, 180
135, 83
67, 51
32, 27
30, 31
22, 21
13, 22
12, 24
24, 30
14, 23
19, 30
17, 40
38, 35
48, 52
57, 76
96, 112
159, 186
235, 222
282, 292
360, 350
387, 421
390, 391
358, 332
304, 286
218, 211
167, 132
127, 79
69, 44
36, 21
26, 23
16, 6
7, 10
10, 8
8, 8
10, 8
5, 6
4, 9
7, 7
11, 12
6, 11
6, 5
8, 3
8, 8
9, 6
3, 3
6, 3
5, 8
8, 3
5, 5
4, 6
5, 3
5, 3
2, 4
9, 8
8, 2
5, 3
10, 8
10, 5
4, 7
10, 10
10, 11
6, 10
6, 2
11, 6
6, 9
4, 8
10, 6
4, 11
11, 6
9, 4
7, 4
6, 6
9, 2
11, 6
5, 6
11, 6
6, 6
11, 7
2, 5
10, 8
7, 5
8, 6
11, 5
5, 5
10, 9
10, 7
6, 6
7, 3
6, 6
10, 1
4, 5
4, 6
9, 6
7, 6
4, 6
5, 6
6, 6
4, 7
11, 3
2, 7
8, 6
4, 2
7, 9
7, 7
3, 5
3, 5
1, 2
8, 8
2, 3
7, 3
5, 8
7, 5
6, 8
1, 2
4, 1
2, 6
9, 3
0, 2
1, 3
4, 6
6, 8
0, 12
1, 3
6, 7
7, 12
5, 7
6, 2
6, 7
4, 2
7, 5
3, 4
4, 10
6, 7
2, 3
8, 4
6, 2
3, 4
2, 2
2, 5
2, 3
3, 3
4, 2
4, 3
5, 1
4, 3
4, 3
6, 6
6, 1
5, 5
3, 4
3, 11
3, 6
7, 3
4, 4
7, 3
4, 5
6, 6
8, 1
4, 2
6, 3
4, 5
8, 4
4, 5
6, 1
3, 1
3, 3
4, 3
1, 3
3, 2
1, 3
2, 3
3, 3
3, 2
2, 3
2, 2
3, 7
6, 3
3, 0
2, 1
5, 0
4, 4
1, 0
8, 5
4, 3
2, 1
3, 3
3, 4
2, 4
1, 3
2, 2
2, 3
1, 0
1, 0
3, 4
6, 3
3, 6
2, 1
1, 3
5, 1
3, 3
3, 3
3, 3
1, 2
4, 4
1, 3
4, 1
2, 1
5, 2
1, 1
2, 1
4, 1
1, 4
2, 2
6, 3
2, 1
3, 2
3, 2
4, 3
5, 3
7, 2
1, 3
2, 4
0, 2
2, 2
4, 4
2, 3
5, 1
1, 2
4, 3
3, 2
1, 2
1, 2
5, 1
4, 3
2, 4
2, 3
4, 3
1, 2
2, 1
2, 3
2, 3
3, 2
0, 2
3, 1
3, 2
3, 2
2, 1
2, 1
6, 4
3, 2
1, 1
5, 2
1, 1
0, 3
2, 3
5, 3
3, 2
3, 3
0, 3
8, 0
3, 4
3, 7
5, 4
3, 3
2, 8
7, 4
2, 3
2, 7
1, 5
4, 1
0, 3
3, 2
1, 0
1, 4
2, 1
4, 0
2, 0
1, 0
2, 0
2, 0
2, 0
4, 1
1, 3
0, 1
6, 0
1, 1
2, 2
3, 4
3, 4
1, 1
2, 0
1, 2
1, 1
3, 0
4, 2
0, 0
2, 0
2, 2
2, 1
1, 0
0, 1
3, 1
1, 3
1, 2
1, 0
2, 1
1, 1
2, 0
2, 2
2, 0
2, 1
2, 1
1, 0
0, 1
2, 0
2, 1
1, 1
0, 2
1, 0
1, 0
2, 1
1, 2
0, 1
0, 0
1, 1
0, 2
0, 0
2, 1
1, 4
0, 0
1, 1
0, 0
0, 1
0, 1
2, 3
2, 0
0, 2
1, 0
0, 0
0, 1
2, 0
0, 1
1, 1
0, 0
1, 2
1, 1
0, 1
1, 0
3, 1
0, 2
1, 0
0, 0
1, 1
0, 0
1, 1
1, 1
1, 0
1, 2
1, 0
0, 1
0, 2
0, 1
1, 0
0, 0
0, 1
1, 0
0, 1
3, 1
0, 2
0, 1
0, 0
0, 1
1, 1
0, 0
0, 0
0, 1
1, 0
1, 0
0, 0
1, 0
1, 0
0, 1
3, 2
1, 0
2, 1
0, 3
2, 0
1, 0
0, 0
0, 0
0, 0
0, 0
1, 0
0, 0
0, 0
0, 1
0, 0
1, 0
0, 0
0, 0
0, 1
0, 1
0, 0
0, 1
1, 1
1, 0
0, 0
0, 1
0, 1
0, 0
3, 3
2, 0
1, 0
2, 0
1, 0
0, 0
0, 0
0, 1
0, 0
1, 1
0, 0
1, 0
0, 0
0, 0
0, 0
0, 0
1, 0
0, 0
0, 0
0, 0
1, 1
0, 0
0, 0
0, 0
2, 0
0, 0
0, 0
0, 0
0, 0
0, 0
1, 3
0, 1
0, 0
1, 0
0, 0
0, 0
0, 0
1, 0
0, 0
2, 1
0, 0
0, 0
0, 0
0, 1
0, 0
2, 0
2, 1
0, 0
0, 0
0, 0
0, 0
1, 1
0, 0
0, 0
0, 0
0, 0
0, 0
0, 0
0, 3
1, 1
0, 1
0, 1
0, 0
0, 0
1, 1
1, 0
0, 0
1, 0
0, 0
0, 0
0, 0
0, 1
0, 0
0, 0
0, 1
0, 0
0, 0
0, 0
0, 0
0, 0
0, 0
0, 0
0, 2
1, 1
0, 0
1, 0
0, 1
0, 0
1, 0
1, 1
0, 0
0, 0
0, 0
0, 0
0, 0
0, 0
0, 0
1, 0
0, 0
0, 0
0, 0
0, 1
0, 0
0, 0
0, 0
0, 0
0, 0
0, 0
0, 1
1, 0
2, 1
0, 0
0, 1
1, 0
0, 0
0, 0
0, 0
0, 0
1, 0
0, 0
1, 0
0, 1
0, 0
0, 1
0, 0
0, 0
0, 0
0, 0
1, 0
0, 1
0, 0
0, 0
0, 0
1, 0
0, 0
0, 0
0, 0
0, 1
0, 0
0, 0
0, 0
1, 0
0, 0
0, 0
0, 0
0, 0
0, 0
1, 1
0, 1
0, 0
0, 0
0, 0
0, 0
0, 1
0, 0
0, 0
0, 0
0, 0
0, 0
0, 1
0, 0
0, 0
0, 0
0, 0
1, 0
0, 0
0, 0
1, 0
0, 0
0, 1
0, 0
0, 0
0, 0
0, 0
0, 0
0, 0
0, 0
0, 0
1, 0
0, 0
0, 0
0, 0
0, 0
1, 0
0, 0
0, 0
0, 0
0, 1
0, 0
0, 0
0, 0
1, 0
1, 0
0, 0
0, 0
0, 0
0, 0
0, 0
0, 0
0, 0
1, 0
0, 0
0, 0
0, 0
0, 0
0, 0
0, 1
0, 0
0, 0
0, 0
0, 0
0, 0
0, 0
0, 0
0, 0
0, 0
0, 0
0, 0
0, 0
1, 0
0, 0
0, 0
0, 0
0, 0
0, 0
0, 0
0, 0
0, 0
0, 0
0, 0
0, 0
0, 0
0, 0
0, 0
0, 0
0, 0
0, 0
0, 0
0, 0
0, 0
0, 0
0, 0
0, 0
0, 0
0, 0
0, 0
0, 1
0, 0
0, 0
0, 0
0, 0
0, 0
0, 0
0, 0
1, 0
0, 0
0, 0
0, 0
0, 0
0, 0
0, 0
0, 0
0, 0
0, 0
0, 0
0, 0
0, 0
0, 0
0, 0
0, 0
0, 0
0, 0
0, 0
0, 0
0, 0
0, 0
0, 0
0, 0
0, 0
0, 0
0, 0
0, 0
0, 0
0, 0
0, 0
0, 0
0, 0
0, 0
0, 0
0, 0
0, 0
0, 0
0, 0
0, 0
0, 0
0, 0
0, 0
0, 0
0, 0
0, 0
0, 0
0, 0
0, 0
0, 0
0, 0
0, 0
0, 0
0, 0
0, 0
0, 0
0, 0
0, 0
0, 0
0, 0
0, 0
0, 0
0, 0
0, 0
0, 0
0, 0
0, 0
0, 0
0, 0
0, 0
0, 0
0, 0
0, 0
0, 0
0, 0
0, 0
0, 0
0, 0
0, 0
0, 0
0, 0
0, 0
0, 0
0, 0
0, 0
0, 0
0, 0
0, 0
0, 0
0, 0
0, 0
0, 0
0, 0
0, 0
0, 0
0, 0
0, 0
0, 0
0, 0
0, 0
0, 0
0, 0
0, 0
0, 0
0, 0
0, 0
0, 0
0, 0
0, 0
0, 0
0, 0
0, 0
0, 0
0, 0
0, 0
0, 0
0, 0
0, 0
0, 0
0, 0
0, 0
1, 0
0, 0
0, 0
0, 0
0, 0
0, 0
0, 0
0, 0
0, 0
0, 0
0, 0
0, 0
0, 0
0, 0
0, 0
0, 0
0, 0
0, 0
0, 0
0, 0
0, 0
0, 0
0, 0
0, 0
0, 0
0, 0
0, 0
0, 0
0, 0
0, 0
0, 0
0, 0
0, 0
0, 0
0, 0
0, 0
0, 0
0, 0
0, 0
0, 0
0, 0
0, 0
0, 0
0, 0
0, 0
0, 0
0, 0
0, 0
0, 0
0, 0
0, 0
0, 0
0, 0
0, 0
0, 0
0, 0
0, 0
0, 0
0, 0
0, 0
0, 0
0, 0
0, 0
0, 0
0, 0
0, 0
0, 0
0, 0
0, 0
0, 0
0, 0
0, 0
0, 0
0, 0
0, 0
0, 0
0, 0
0, 0
0, 0
0, 0
0, 0
0, 0
0, 0
0, 0
0, 0
0, 0
0, 0
0, 0
0, 0
0, 0
0, 0
0, 0
0, 0
0, 0
0, 0
0, 0
0, 0
0, 0
0, 0
0, 0
0, 0
0, 0
0, 0
0, 0
0, 0
0, 0
0, 0
0, 0
0, 0
0, 0
0, 0
0, 0
0, 0
0, 0
0, 0
0, 0
0, 0
0, 0
0, 0
0, 0
0, 0
0, 0
0, 0
0, 0
0, 0
0, 0
0, 0
0, 0
0, 0
0, 0
0, 0
0, 0
0, 0
0, 0
0, 0
0, 0
0, 0
0, 0
0, 0
0, 0
0, 0
0, 0
0, 0
0, 0
0, 0
0, 0
0, 0
0, 0
0, 0
0, 0
0, 0
0, 0
0, 0
0, 0
0, 0
0, 0
0, 0
0, 0
0, 0
0, 0
0, 0
0, 0
0, 0
0, 0
0, 0
0, 0
0, 0
0, 0
0, 0
0, 0
0, 0
0, 0
0, 0
0, 0
0, 0
0, 0
0, 0
0, 0
0, 0
0, 0
0, 0
0, 0
0, 0
0, 0
0, 0
0, 0
0, 0
0, 0
0, 0
0, 0
0, 0
0, 0
0, 0
0, 0
0, 0
0, 0
0, 0
0, 0
0, 0
0, 0
0, 0
0, 0
0, 0
0, 0
0, 0
0, 0
0, 0
0, 0
0, 0
0, 0
0, 0
0, 0
0, 0
0, 0
0, 0
0, 0
0, 0
0, 0
0, 0
0, 0
0, 0
0, 0
0, 0
0, 0
0, 0
0, 0
0, 0
0, 0
0, 0
0, 0
0, 0
0, 0
0, 0
0, 0
0, 0
0, 0
0, 0
0, 0
0, 0
0, 0
0, 0
0, 0
0, 0
0, 0
0, 0
0, 0
0, 0
0, 0
0, 0
0, 0
0, 0
0, 0
0, 0
0, 0
0, 0
0, 0
0, 0
0, 0
0, 0
0, 0
0, 0
0, 0
0, 0
0, 0
0, 0
0, 0
0, 0
0, 0
0, 0
0, 0
0, 0
0, 0
0, 0
0, 0
0, 0
0, 0
0, 0
0, 0
0, 0
0, 0
0, 0
0, 0
0, 0
0, 0
0, 0
0, 0
0, 0
0, 0
0, 0
0, 0
0, 0
0, 0
0, 0
0, 0
0, 0
0, 0
0, 0
0, 0
0, 0
0, 0
0, 0
0, 0
#ENDOFDATA     end of spectrum data