File: host_upload/12-01-2023/Dourbes (shot-by-shot)/upload_4/ps__0257_0689790785_000rfs_shot_3053.msa
#FORMAT      : EMSA/MAS spectral data file
#VERSION     : TC202v2.0 PIXL
#TITLE       : N/A
#DATE        :       Date in the format DD-MMM-YYYY, for example 07-JUL-2010
#TIME        :             The time of day at which the spectrum was recorded, in 24-hour format
#OWNER       : PIXL Flight Model       (PIXL will use this to indicate which instrument took the data.)
#NPOINTS     : 4096     Number of data points in the spectrum (This can be zero for configuration only files)
#NCOLUMNS    : 2     Number of data columns in the spectrum (This can be zero for configuration only files)
#XUNITS      : eV
#YUNITS      : COUNTS
#DATATYPE    : YY
#XPERCHAN    : 7.862, 7.881   eV per channel (separate by commas if more than one detector)
#OFFSET      : 18.5, -22.4         eV of first channel  (separate by commas if more than one detector
#SIGNALTYPE  : XRF
#YP_TEMP     : 2.973
#LIVETIME    : 8.89554, 8.9707   seconds (separate by commas if more than one detector)
#REALTIME    : 10, 10.0   seconds (separate by commas if more than one detector)
#SPECTRUM    : start of spectrum data
0, 0
0, 0
0, 0
0, 0
0, 0
0, 0
0, 0
0, 0
0, 0
0, 0
0, 0
0, 0
0, 0
0, 0
0, 0
0, 0
0, 0
0, 0
0, 0
0, 0
0, 0
0, 0
0, 0
0, 0
0, 0
0, 0
0, 0
0, 0
0, 0
0, 0
0, 0
0, 0
0, 2
1, 0
0, 0
1, 1
5, 0
6, 2
14, 2
25, 1
41, 5
49, 2
35, 2
55, 2
25, 3
18, 2
10, 3
11, 1
6, 3
10, 6
9, 12
24, 22
29, 23
42, 35
47, 49
33, 22
32, 32
24, 22
13, 9
9, 4
7, 3
11, 2
3, 2
10, 1
8, 6
7, 1
6, 8
7, 6
10, 13
33, 35
88, 89
190, 193
317, 314
452, 471
547, 545
561, 542
499, 451
350, 353
220, 213
108, 113
50, 52
32, 27
15, 14
7, 12
6, 9
3, 6
6, 2
3, 5
3, 2
5, 2
5, 1
2, 2
7, 6
12, 8
22, 24
42, 45
76, 47
90, 85
98, 105
95, 97
82, 95
80, 66
44, 48
30, 20
24, 14
26, 12
35, 20
56, 13
108, 43
244, 64
506, 77
964, 99
1677, 131
2298, 152
3079, 155
3375, 138
3129, 121
2537, 87
1715, 57
1001, 75
595, 48
276, 48
125, 36
64, 25
41, 22
33, 22
14, 20
22, 18
14, 20
11, 10
9, 14
8, 7
6, 10
5, 4
6, 5
3, 5
3, 5
5, 7
2, 8
5, 6
5, 4
7, 8
3, 6
3, 4
2, 6
1, 2
5, 2
3, 2
3, 4
3, 6
8, 3
18, 8
13, 16
22, 37
37, 35
53, 44
64, 68
61, 55
53, 57
49, 39
34, 30
30, 26
23, 16
10, 9
11, 7
3, 2
9, 11
5, 13
8, 7
14, 10
14, 9
20, 11
16, 14
9, 7
12, 10
10, 9
4, 4
5, 5
8, 5
4, 2
6, 3
4, 6
4, 9
7, 8
2, 3
8, 2
7, 9
9, 8
8, 9
8, 18
16, 21
14, 24
11, 35
17, 47
19, 64
18, 81
12, 83
29, 105
26, 91
26, 73
17, 73
14, 39
8, 30
12, 15
9, 8
7, 12
7, 6
14, 12
6, 7
6, 8
4, 10
7, 8
12, 7
10, 16
11, 5
14, 12
8, 10
7, 10
10, 12
7, 8
13, 5
5, 11
11, 10
13, 5
10, 19
19, 11
20, 10
13, 9
14, 7
19, 16
16, 9
18, 14
13, 13
16, 8
19, 9
9, 10
9, 10
8, 10
12, 16
12, 7
3, 9
14, 6
9, 14
10, 17
20, 14
31, 36
34, 46
53, 69
89, 87
79, 99
104, 92
81, 107
95, 102
89, 93
56, 48
41, 44
32, 33
26, 47
20, 21
23, 26
10, 36
25, 32
34, 55
86, 114
151, 217
304, 398
582, 787
979, 1362
1640, 2003
2153, 2732
2934, 3397
3387, 3708
3666, 3825
3568, 3472
3074, 2810
2294, 2112
1589, 1477
1100, 876
637, 491
323, 252
208, 126
107, 78
63, 31
50, 22
41, 15
56, 20
75, 27
74, 20
72, 29
78, 22
62, 29
67, 50
86, 65
109, 109
150, 160
216, 247
283, 354
403, 459
447, 558
483, 561
523, 568
494, 483
426, 375
338, 289
231, 187
149, 130
74, 67
46, 26
27, 27
15, 13
10, 8
3, 4
8, 2
9, 4
9, 8
8, 5
8, 8
6, 8
4, 7
7, 8
5, 10
7, 7
6, 4
2, 5
4, 5
4, 3
5, 4
2, 9
5, 15
1, 9
3, 10
2, 11
1, 14
4, 19
5, 14
5, 12
2, 10
3, 9
3, 10
4, 8
3, 5
8, 8
4, 6
5, 8
6, 5
6, 5
8, 5
9, 9
4, 9
5, 4
4, 7
5, 5
3, 4
8, 3
5, 9
3, 4
3, 6
1, 4
3, 1
2, 0
5, 2
1, 4
1, 2
3, 5
5, 5
5, 5
3, 4
3, 9
6, 5
0, 3
6, 1
2, 6
8, 4
3, 5
1, 2
6, 2
3, 2
4, 0
2, 2
6, 2
5, 6
6, 2
8, 5
7, 2
19, 3
12, 7
12, 7
15, 8
12, 10
9, 5
4, 4
5, 9
3, 11
3, 12
6, 18
1, 20
5, 7
3, 10
5, 8
5, 3
7, 5
5, 5
4, 7
5, 2
4, 3
6, 3
5, 7
5, 4
4, 3
2, 3
4, 4
6, 3
1, 0
3, 3
4, 5
2, 1
2, 5
3, 1
1, 2
5, 1
1, 1
2, 4
3, 3
4, 2
4, 1
4, 5
3, 2
3, 4
3, 5
1, 3
1, 3
1, 1
1, 3
6, 2
1, 3
6, 2
1, 2
3, 2
2, 3
3, 4
3, 3
0, 4
0, 1
1, 1
2, 3
6, 1
0, 2
4, 3
1, 3
5, 3
6, 0
2, 5
1, 2
5, 1
4, 1
5, 0
6, 4
12, 2
13, 2
8, 3
7, 2
8, 4
5, 1
8, 2
5, 0
5, 3
8, 2
4, 3
2, 2
3, 4
0, 0
1, 1
3, 3
1, 1
3, 1
2, 3
3, 2
3, 3
0, 2
2, 4
0, 3
1, 2
1, 3
2, 0
1, 6
0, 0
1, 3
2, 4
3, 1
3, 0
0, 2
0, 2
1, 0
0, 4
2, 1
1, 7
1, 4
3, 1
0, 6
0, 0
2, 4
1, 3
1, 3
4, 1
1, 2
3, 1
1, 1
0, 2
4, 1
3, 2
3, 4
2, 3
1, 2
1, 2
5, 1
6, 2
1, 2
3, 1
2, 2
3, 3
3, 1
0, 2
1, 0
3, 2
2, 2
0, 2
1, 1
1, 1
2, 0
0, 1
2, 1
0, 0
0, 4
2, 2
1, 2
3, 5
0, 5
2, 1
3, 9
6, 1
10, 3
7, 3
9, 9
6, 5
11, 5
9, 7
5, 3
5, 4
1, 3
2, 1
2, 1
2, 1
1, 0
0, 1
2, 0
2, 2
1, 2
3, 2
0, 0
2, 0
0, 0
1, 2
0, 0
3, 2
2, 2
1, 0
5, 4
4, 2
1, 3
4, 1
1, 2
2, 0
2, 2
2, 1
1, 1
1, 5
2, 1
0, 0
2, 0
0, 2
1, 4
1, 1
2, 1
2, 1
1, 1
0, 2
0, 1
0, 1
0, 0
0, 3
1, 0
0, 3
0, 1
0, 1
0, 0
0, 1
0, 0
2, 0
1, 2
1, 2
0, 1
0, 1
1, 4
0, 0
0, 0
0, 0
1, 0
1, 0
2, 0
2, 1
1, 0
0, 2
1, 0
1, 2
0, 1
0, 1
0, 1
2, 0
0, 1
0, 0
0, 0
0, 3
1, 1
1, 0
0, 1
1, 0
1, 0
1, 0
1, 1
1, 0
1, 0
3, 1
1, 0
1, 0
0, 1
0, 0
2, 1
2, 0
1, 0
1, 0
0, 0
0, 1
0, 0
0, 0
1, 1
0, 0
0, 0
0, 0
0, 0
0, 1
1, 0
1, 0
2, 2
1, 0
0, 0
0, 0
0, 2
0, 0
0, 0
3, 3
1, 0
0, 1
0, 0
0, 0
0, 1
1, 0
1, 1
1, 0
0, 0
0, 0
0, 0
0, 1
0, 0
0, 0
2, 0
1, 1
0, 0
0, 2
2, 1
1, 0
0, 0
0, 1
2, 1
0, 0
0, 0
0, 0
0, 0
0, 1
1, 1
0, 0
0, 0
0, 0
0, 0
0, 0
0, 0
0, 0
0, 0
0, 1
1, 0
0, 0
0, 0
0, 0
0, 0
0, 0
0, 1
1, 0
1, 0
0, 1
0, 0
0, 0
0, 0
1, 0
0, 0
0, 1
0, 0
0, 0
0, 0
0, 0
0, 0
1, 0
0, 0
1, 0
0, 1
1, 0
0, 0
1, 0
0, 0
0, 1
0, 0
0, 0
0, 1
0, 0
1, 0
0, 0
0, 0
0, 0
0, 0
0, 1
0, 0
0, 0
0, 0
1, 1
0, 0
1, 0
1, 0
0, 1
0, 0
1, 0
0, 2
0, 1
0, 0
0, 0
0, 0
0, 0
0, 0
0, 0
0, 0
1, 0
0, 1
0, 0
0, 0
0, 0
0, 0
0, 0
0, 1
0, 0
0, 0
0, 0
0, 0
0, 1
1, 0
0, 0
0, 0
0, 0
1, 1
2, 0
0, 1
0, 0
0, 1
0, 0
1, 0
0, 0
0, 0
0, 0
0, 0
0, 1
0, 0
1, 0
0, 0
0, 0
0, 0
0, 0
1, 0
0, 0
0, 0
0, 1
0, 0
0, 0
0, 0
1, 0
0, 0
0, 0
0, 1
0, 0
0, 0
0, 0
0, 0
0, 1
0, 0
0, 0
0, 0
0, 0
0, 0
0, 0
0, 0
0, 0
0, 0
0, 1
0, 0
0, 0
0, 1
0, 0
0, 0
0, 0
0, 0
0, 0
0, 0
0, 1
0, 0
0, 0
0, 0
0, 0
0, 1
0, 0
0, 0
1, 0
0, 0
0, 0
0, 0
0, 0
0, 0
0, 0
0, 0
0, 0
0, 0
0, 0
1, 0
0, 0
0, 0
0, 0
0, 0
0, 0
0, 0
0, 0
0, 0
0, 0
0, 0
0, 0
0, 0
0, 0
0, 0
0, 0
0, 0
0, 0
0, 0
0, 0
1, 0
0, 0
0, 0
0, 0
0, 0
0, 0
0, 0
0, 0
1, 0
0, 0
0, 0
0, 0
0, 1
0, 0
0, 0
0, 0
0, 0
0, 0
0, 0
0, 1
0, 0
0, 0
0, 0
0, 0
0, 0
0, 0
0, 0
0, 0
0, 0
0, 0
0, 0
0, 0
0, 0
0, 0
0, 0
0, 0
0, 0
0, 0
0, 0
0, 0
0, 0
0, 0
0, 0
0, 0
0, 0
0, 0
0, 0
0, 0
0, 0
0, 0
0, 0
0, 0
0, 0
0, 0
0, 0
0, 0
0, 0
1, 0
0, 0
0, 0
0, 0
0, 0
0, 0
0, 0
0, 0
0, 0
0, 0
0, 0
0, 0
0, 0
0, 0
0, 0
0, 0
0, 0
0, 0
0, 0
0, 0
0, 0
0, 0
0, 0
0, 0
0, 0
0, 0
0, 0
0, 0
0, 0
0, 0
0, 0
0, 0
0, 0
0, 0
0, 0
0, 0
0, 0
0, 0
0, 0
0, 0
0, 0
0, 0
0, 0
0, 0
0, 0
0, 0
0, 0
0, 0
0, 0
0, 0
0, 0
0, 0
0, 0
0, 0
0, 0
0, 0
0, 0
0, 0
0, 0
0, 0
0, 0
0, 0
0, 0
0, 0
0, 0
0, 0
0, 0
0, 0
0, 0
0, 0
0, 1
0, 0
0, 0
0, 0
0, 0
0, 0
0, 0
0, 0
0, 0
0, 0
0, 0
0, 0
0, 0
0, 0
1, 0
0, 0
0, 0
0, 0
0, 0
0, 0
0, 0
0, 0
0, 0
0, 0
0, 0
0, 0
0, 0
0, 0
0, 0
0, 0
0, 0
0, 0
0, 0
0, 0
0, 0
0, 0
0, 0
0, 0
0, 0
1, 0
0, 0
0, 0
0, 0
0, 0
0, 0
0, 0
0, 0
0, 0
0, 0
0, 0
0, 0
0, 0
0, 0
0, 0
0, 0
0, 0
0, 0
0, 0
0, 0
0, 0
0, 0
0, 0
0, 0
0, 0
0, 0
0, 0
0, 0
0, 0
0, 0
0, 0
0, 0
0, 0
0, 0
0, 0
0, 0
0, 0
0, 0
0, 0
0, 0
0, 0
0, 0
0, 0
0, 0
0, 0
0, 0
0, 0
0, 0
0, 0
0, 0
0, 0
0, 0
0, 0
0, 0
0, 0
0, 0
0, 0
0, 0
0, 0
0, 0
0, 0
0, 0
0, 0
0, 0
0, 0
0, 0
0, 0
0, 0
0, 0
0, 0
0, 0
0, 0
0, 0
0, 0
0, 0
0, 0
0, 0
0, 0
0, 0
0, 0
0, 0
0, 0
0, 0
0, 0
0, 0
0, 0
0, 0
0, 0
0, 0
0, 0
0, 0
0, 0
0, 0
0, 0
0, 0
0, 0
0, 0
0, 0
0, 0
0, 0
0, 0
0, 0
0, 0
0, 0
0, 0
0, 0
0, 0
0, 0
0, 0
0, 0
0, 0
0, 0
0, 0
0, 0
0, 0
0, 0
0, 0
0, 0
0, 0
0, 0
0, 0
0, 0
0, 0
0, 0
0, 0
0, 0
0, 0
0, 0
0, 0
0, 0
0, 0
0, 0
0, 0
0, 0
0, 0
0, 0
0, 0
0, 0
0, 0
0, 0
0, 0
0, 0
0, 0
0, 0
0, 0
0, 0
0, 0
0, 0
0, 0
0, 0
0, 0
0, 0
0, 0
0, 0
0, 0
0, 0
0, 0
0, 0
0, 0
0, 0
0, 0
0, 0
0, 0
0, 0
0, 0
0, 0
0, 0
0, 0
0, 0
0, 0
0, 0
0, 0
0, 0
0, 0
0, 0
0, 0
0, 0
0, 0
0, 0
0, 0
0, 0
0, 0
0, 0
0, 0
0, 0
0, 0
0, 0
0, 0
0, 0
0, 0
0, 0
0, 0
0, 0
0, 0
0, 0
0, 0
0, 0
0, 0
0, 0
0, 0
0, 0
0, 0
0, 0
0, 0
0, 0
0, 0
0, 0
0, 0
0, 0
0, 0
0, 0
0, 0
0, 0
0, 0
0, 0
0, 0
0, 0
0, 0
0, 0
0, 0
0, 0
0, 0
0, 0
0, 0
0, 0
0, 0
0, 0
0, 0
0, 0
0, 0
0, 0
0, 0
0, 0
0, 0
0, 0
0, 0
0, 0
0, 0
0, 0
0, 0
0, 0
0, 0
0, 0
0, 0
0, 0
0, 0
0, 0
0, 0
0, 0
0, 0
0, 0
0, 0
0, 0
0, 0
0, 0
0, 0
0, 0
0, 0
0, 0
0, 0
0, 0
0, 0
0, 0
0, 0
0, 0
0, 0
0, 0
0, 0
0, 0
0, 0
0, 0
0, 0
0, 0
0, 0
0, 0
0, 0
0, 0
0, 0
0, 0
0, 0
0, 0
0, 0
0, 0
0, 0
0, 0
0, 0
0, 0
0, 0
0, 0
0, 0
0, 0
0, 0
0, 0
0, 0
0, 0
0, 0
0, 0
0, 0
0, 0
0, 0
0, 0
0, 0
0, 0
0, 0
0, 0
0, 0
0, 0
0, 0
0, 0
0, 0
0, 0
0, 0
0, 0
0, 0
0, 0
0, 0
0, 0
0, 0
0, 0
0, 0
0, 0
0, 0
0, 0
0, 0
0, 0
0, 0
0, 0
0, 0
0, 0
0, 0
0, 0
0, 0
0, 0
0, 0
#ENDOFDATA     end of spectrum data