File: host_upload/12-01-2023/Dourbes (shot-by-shot)/upload_4/ps__0257_0689790785_000rfs_shot_3121.msa
#FORMAT      : EMSA/MAS spectral data file
#VERSION     : TC202v2.0 PIXL
#TITLE       : N/A
#DATE        :       Date in the format DD-MMM-YYYY, for example 07-JUL-2010
#TIME        :             The time of day at which the spectrum was recorded, in 24-hour format
#OWNER       : PIXL Flight Model       (PIXL will use this to indicate which instrument took the data.)
#NPOINTS     : 4096     Number of data points in the spectrum (This can be zero for configuration only files)
#NCOLUMNS    : 2     Number of data columns in the spectrum (This can be zero for configuration only files)
#XUNITS      : eV
#YUNITS      : COUNTS
#DATATYPE    : YY
#XPERCHAN    : 7.862, 7.881   eV per channel (separate by commas if more than one detector)
#OFFSET      : 18.5, -22.4         eV of first channel  (separate by commas if more than one detector
#SIGNALTYPE  : XRF
#YP_TEMP     : 3.326
#LIVETIME    : 9.15126, 9.12509   seconds (separate by commas if more than one detector)
#REALTIME    : 10, 10.0   seconds (separate by commas if more than one detector)
#SPECTRUM    : start of spectrum data
0, 0
0, 0
0, 0
0, 0
0, 0
0, 0
0, 0
0, 0
0, 0
0, 0
0, 0
0, 0
0, 0
0, 0
0, 0
0, 0
0, 0
0, 0
0, 0
0, 0
0, 0
0, 0
0, 0
0, 0
0, 0
0, 0
0, 0
0, 0
0, 0
0, 0
0, 0
1, 0
0, 1
0, 0
0, 0
0, 1
0, 0
0, 0
0, 2
1, 1
0, 0
1, 4
1, 1
4, 0
0, 3
1, 2
2, 3
2, 2
3, 1
5, 4
10, 9
20, 22
21, 27
42, 43
48, 45
42, 53
29, 29
11, 17
15, 14
9, 14
1, 8
3, 6
3, 13
9, 5
9, 7
12, 8
7, 9
12, 19
18, 20
61, 47
107, 140
234, 261
438, 467
607, 725
729, 858
739, 852
627, 670
429, 505
305, 313
152, 163
86, 92
44, 51
23, 34
19, 19
13, 20
9, 15
9, 10
5, 3
3, 4
4, 5
2, 8
4, 0
2, 2
1, 1
3, 5
5, 3
7, 10
6, 11
6, 10
4, 8
6, 11
5, 11
4, 8
3, 2
10, 2
5, 7
1, 9
4, 3
6, 9
8, 5
14, 22
21, 15
24, 27
38, 38
36, 55
40, 42
37, 35
44, 33
32, 26
31, 24
34, 32
25, 29
24, 30
22, 25
15, 26
18, 18
18, 20
20, 20
10, 17
14, 11
5, 9
8, 8
6, 6
5, 4
5, 3
2, 5
3, 10
2, 5
3, 3
4, 4
3, 4
4, 2
3, 8
0, 3
4, 4
4, 3
3, 5
5, 8
10, 14
19, 29
43, 46
92, 106
163, 238
328, 431
523, 653
759, 931
1005, 1210
1101, 1314
985, 1251
790, 935
598, 650
344, 402
201, 212
105, 117
58, 63
52, 41
57, 66
60, 76
119, 110
118, 161
136, 196
145, 189
149, 150
125, 129
63, 94
53, 60
21, 36
15, 17
11, 11
6, 5
7, 5
4, 3
4, 5
5, 7
8, 7
7, 5
11, 7
14, 10
13, 12
18, 24
29, 26
22, 32
22, 31
24, 36
12, 27
15, 20
12, 19
16, 20
7, 17
6, 13
1, 9
5, 5
3, 8
6, 6
7, 3
4, 5
5, 9
5, 13
4, 13
7, 13
10, 9
11, 14
11, 16
5, 15
7, 9
7, 8
5, 8
2, 4
8, 4
6, 9
4, 9
2, 7
4, 12
9, 8
9, 17
10, 18
25, 28
32, 36
40, 48
47, 45
42, 57
47, 67
39, 40
29, 41
21, 25
14, 19
12, 6
7, 10
3, 6
7, 8
5, 3
9, 6
6, 12
5, 9
1, 15
12, 26
21, 38
27, 34
26, 48
38, 56
48, 76
43, 72
56, 61
33, 58
32, 42
26, 20
25, 28
21, 21
12, 13
10, 18
13, 19
14, 27
14, 39
29, 61
51, 96
114, 186
190, 303
318, 488
503, 700
714, 988
941, 1205
1096, 1419
1154, 1327
1093, 1225
958, 1007
765, 761
556, 448
358, 306
204, 179
103, 91
64, 50
29, 30
12, 22
11, 10
10, 13
8, 14
9, 5
10, 11
18, 15
12, 10
12, 13
23, 27
19, 25
26, 55
38, 73
84, 108
86, 147
117, 171
156, 220
185, 233
192, 250
169, 210
134, 165
94, 120
98, 102
56, 59
51, 48
25, 24
24, 15
13, 16
24, 7
13, 3
10, 6
17, 4
16, 8
24, 9
28, 5
32, 12
34, 8
31, 11
24, 6
26, 10
20, 6
9, 7
7, 8
9, 5
7, 3
5, 3
7, 5
1, 5
3, 5
4, 3
4, 6
7, 10
2, 6
7, 4
6, 7
4, 4
3, 9
6, 7
4, 5
2, 9
3, 5
6, 5
10, 5
7, 1
9, 5
3, 11
5, 6
4, 6
8, 6
8, 14
12, 13
4, 7
7, 7
9, 10
7, 13
12, 9
6, 8
9, 11
7, 9
7, 10
12, 6
7, 8
11, 5
2, 1
5, 6
7, 5
7, 4
2, 4
8, 4
3, 4
1, 2
2, 5
4, 4
2, 8
5, 2
3, 11
8, 3
5, 9
3, 10
5, 8
3, 3
6, 6
5, 8
5, 7
3, 9
3, 11
5, 9
3, 6
14, 15
7, 8
7, 7
6, 5
9, 6
13, 10
8, 7
8, 3
11, 15
10, 9
11, 4
6, 3
3, 4
7, 5
7, 4
7, 5
4, 3
3, 4
1, 7
6, 6
4, 8
4, 5
3, 6
1, 1
8, 9
2, 8
5, 1
3, 6
2, 7
2, 3
0, 3
3, 3
4, 4
4, 6
4, 3
4, 4
4, 1
5, 3
2, 6
5, 4
7, 3
4, 2
6, 3
6, 1
8, 5
2, 7
5, 8
4, 5
4, 3
6, 7
5, 6
4, 1
3, 7
3, 4
3, 0
4, 4
6, 2
2, 5
2, 0
1, 2
2, 7
2, 3
4, 3
4, 1
1, 3
4, 2
2, 1
5, 8
6, 2
3, 3
3, 6
3, 3
4, 4
2, 0
5, 4
2, 4
0, 3
1, 1
3, 1
5, 2
5, 4
3, 3
2, 4
2, 2
5, 0
1, 3
3, 2
1, 2
4, 8
2, 2
2, 5
2, 2
3, 1
2, 0
2, 3
3, 3
4, 5
4, 3
4, 8
2, 7
1, 3
1, 6
1, 11
2, 15
3, 8
3, 6
3, 12
2, 3
1, 3
4, 3
1, 5
1, 2
1, 2
1, 6
4, 7
1, 4
1, 1
2, 3
2, 3
1, 1
2, 3
3, 2
1, 3
0, 1
2, 2
2, 3
1, 2
3, 2
2, 2
1, 1
0, 2
2, 4
2, 1
2, 2
4, 3
0, 1
1, 1
0, 0
1, 2
1, 4
1, 0
3, 1
1, 2
1, 0
1, 3
2, 2
0, 0
2, 2
2, 2
0, 0
1, 1
2, 3
2, 1
2, 2
3, 5
4, 3
0, 4
2, 3
3, 2
1, 1
3, 2
2, 3
3, 2
5, 1
1, 0
0, 1
2, 6
0, 3
1, 0
3, 3
3, 2
2, 0
1, 1
2, 0
2, 0
0, 3
1, 2
0, 5
1, 1
1, 4
3, 1
0, 0
0, 4
1, 4
4, 0
0, 2
2, 2
2, 0
1, 2
0, 1
3, 0
1, 2
1, 0
1, 4
1, 2
2, 2
3, 2
0, 3
1, 0
2, 0
2, 1
1, 0
1, 0
0, 1
4, 2
2, 0
3, 3
0, 0
2, 1
0, 1
2, 1
0, 1
0, 2
1, 2
4, 0
2, 1
2, 0
1, 1
0, 1
0, 0
0, 1
0, 0
2, 1
0, 3
0, 1
1, 1
2, 0
1, 1
1, 1
3, 1
0, 2
0, 0
0, 2
1, 0
4, 1
1, 1
1, 1
1, 0
1, 0
1, 2
1, 0
3, 0
1, 0
1, 0
0, 1
1, 1
1, 0
1, 0
2, 1
0, 0
0, 0
0, 0
2, 0
0, 1
1, 1
0, 2
0, 1
0, 2
0, 0
1, 1
1, 0
2, 1
0, 2
1, 1
0, 1
2, 1
3, 0
0, 3
2, 0
0, 0
3, 1
0, 0
1, 0
1, 0
0, 0
1, 3
0, 1
0, 0
1, 1
0, 0
0, 4
0, 2
0, 1
0, 0
0, 0
1, 0
0, 1
0, 0
1, 3
0, 0
1, 0
0, 0
0, 0
1, 0
0, 0
0, 1
2, 1
1, 0
1, 0
0, 0
1, 0
0, 0
0, 1
1, 0
0, 0
1, 0
1, 1
0, 2
0, 0
1, 0
1, 0
0, 1
0, 0
0, 0
0, 0
0, 1
0, 1
0, 1
0, 0
1, 0
0, 1
1, 0
0, 0
0, 0
1, 0
0, 0
0, 0
0, 0
0, 0
0, 0
1, 0
0, 0
0, 0
0, 0
0, 1
0, 1
2, 0
0, 0
1, 1
1, 0
0, 0
0, 0
0, 0
0, 0
0, 0
0, 0
0, 0
0, 1
0, 0
0, 1
1, 0
0, 0
0, 0
1, 0
0, 0
0, 0
0, 0
1, 0
0, 0
0, 1
0, 1
0, 1
0, 0
0, 0
1, 1
0, 0
1, 1
0, 0
0, 0
1, 0
0, 1
0, 1
0, 0
0, 0
0, 0
0, 1
1, 0
0, 0
0, 0
0, 0
0, 0
0, 0
0, 0
0, 0
0, 1
0, 0
0, 0
0, 0
0, 1
0, 1
0, 1
0, 0
0, 0
1, 0
0, 0
1, 0
0, 0
0, 0
0, 1
1, 0
0, 0
0, 0
0, 0
1, 0
2, 0
0, 0
0, 0
0, 0
0, 0
0, 1
0, 0
0, 1
0, 0
0, 0
0, 0
0, 0
0, 0
0, 0
0, 0
1, 0
0, 0
0, 1
0, 0
0, 0
0, 0
0, 0
0, 0
0, 0
0, 0
0, 0
0, 0
0, 1
0, 0
0, 0
1, 0
0, 0
0, 0
0, 0
0, 1
1, 0
0, 0
0, 0
0, 0
0, 1
0, 1
0, 0
0, 0
0, 0
0, 0
0, 0
0, 0
0, 0
0, 0
1, 0
0, 0
0, 1
0, 0
1, 0
1, 0
0, 0
0, 1
0, 0
0, 0
0, 0
0, 0
0, 0
0, 0
0, 0
0, 0
0, 0
1, 0
0, 0
0, 0
0, 0
0, 0
0, 0
0, 0
0, 0
1, 0
0, 0
0, 0
0, 0
0, 1
0, 0
0, 0
0, 0
0, 0
0, 0
0, 0
0, 0
0, 0
0, 0
0, 0
0, 0
0, 0
0, 0
0, 0
0, 1
0, 0
0, 0
0, 0
0, 0
0, 1
0, 1
0, 1
0, 0
0, 0
1, 0
0, 0
0, 0
0, 0
0, 0
0, 0
0, 0
0, 0
0, 0
0, 0
0, 0
0, 0
0, 0
0, 0
0, 0
0, 0
1, 0
0, 0
0, 0
0, 0
0, 0
0, 2
0, 0
0, 0
0, 0
0, 0
0, 0
0, 0
0, 0
0, 0
0, 0
0, 0
0, 0
1, 1
0, 0
0, 0
0, 0
0, 0
0, 0
0, 0
0, 0
0, 0
0, 0
0, 0
0, 0
0, 0
0, 0
0, 0
0, 1
0, 0
0, 0
0, 0
0, 0
0, 0
0, 0
0, 0
0, 0
0, 0
0, 0
0, 0
0, 0
0, 0
0, 0
0, 0
0, 0
0, 0
0, 0
0, 0
0, 0
0, 0
0, 0
0, 0
0, 0
0, 0
0, 0
0, 0
0, 0
0, 0
0, 0
0, 0
0, 0
0, 0
0, 0
0, 0
1, 0
0, 0
0, 0
0, 0
0, 0
0, 0
0, 0
0, 0
0, 0
0, 0
0, 0
0, 0
0, 0
0, 0
0, 0
0, 0
0, 0
0, 0
0, 0
0, 0
0, 0
0, 0
0, 0
0, 0
0, 0
0, 0
0, 0
0, 0
0, 0
0, 0
0, 0
0, 0
0, 0
0, 0
0, 0
0, 0
0, 0
0, 0
0, 0
0, 0
0, 0
0, 0
0, 0
0, 0
0, 0
0, 0
0, 0
0, 0
0, 0
0, 0
0, 0
0, 0
0, 0
0, 0
0, 0
0, 0
0, 0
0, 0
0, 0
0, 0
0, 0
0, 0
0, 0
0, 0
0, 0
0, 0
0, 0
0, 0
0, 0
0, 0
0, 0
0, 0
0, 0
0, 0
0, 0
0, 0
0, 0
0, 0
0, 0
0, 0
0, 0
0, 0
0, 0
0, 0
0, 0
0, 0
0, 0
0, 0
0, 0
0, 0
0, 0
0, 0
0, 0
0, 0
0, 0
0, 0
0, 0
0, 0
0, 0
0, 0
0, 0
0, 0
0, 0
0, 0
0, 0
0, 0
0, 0
0, 0
0, 0
0, 0
0, 0
0, 0
0, 0
0, 0
0, 0
0, 0
0, 0
0, 0
0, 0
0, 0
0, 0
0, 0
0, 0
0, 0
0, 0
0, 0
0, 0
0, 0
0, 0
0, 0
0, 0
0, 0
0, 0
0, 0
0, 0
0, 0
0, 0
0, 0
0, 0
0, 0
0, 0
0, 0
0, 0
0, 0
0, 0
0, 0
0, 0
0, 0
0, 0
0, 0
0, 0
0, 0
0, 0
0, 0
0, 0
0, 0
0, 0
0, 0
0, 0
0, 0
0, 0
0, 0
0, 0
0, 0
0, 0
0, 0
0, 0
0, 0
0, 0
0, 0
0, 0
0, 0
0, 0
0, 0
0, 0
0, 0
0, 0
0, 0
0, 0
0, 0
0, 0
0, 0
0, 0
0, 0
0, 0
0, 0
0, 0
0, 0
0, 0
0, 0
0, 0
0, 0
0, 0
0, 0
0, 0
0, 0
0, 0
0, 0
0, 0
0, 0
0, 0
0, 0
0, 0
0, 0
0, 0
0, 0
0, 0
0, 0
0, 0
0, 0
0, 0
0, 0
0, 0
0, 0
0, 0
0, 0
0, 0
0, 0
0, 0
0, 0
0, 0
0, 0
0, 0
0, 0
0, 0
0, 0
0, 0
0, 0
0, 0
0, 0
0, 0
0, 0
0, 0
0, 0
0, 0
0, 0
0, 0
0, 0
0, 0
0, 0
0, 0
0, 0
0, 0
0, 0
0, 0
0, 0
0, 0
0, 0
0, 0
0, 0
0, 0
0, 0
0, 0
0, 0
0, 0
0, 0
0, 0
0, 0
0, 0
0, 0
0, 0
0, 0
0, 0
0, 0
0, 0
0, 0
0, 0
0, 0
0, 0
0, 0
0, 0
0, 0
0, 0
0, 0
0, 0
0, 0
0, 0
0, 0
0, 0
0, 0
0, 0
0, 0
0, 0
0, 0
0, 0
0, 0
0, 0
0, 0
0, 0
0, 0
0, 0
0, 0
0, 0
0, 0
0, 0
0, 0
0, 0
0, 0
0, 0
0, 0
0, 0
0, 0
0, 0
0, 0
0, 0
0, 0
0, 0
0, 0
0, 0
0, 0
0, 0
0, 0
0, 0
0, 0
0, 0
0, 0
0, 0
0, 0
0, 0
0, 0
0, 0
0, 0
0, 0
0, 0
0, 0
0, 0
0, 0
0, 0
0, 0
0, 0
0, 0
0, 0
0, 0
0, 0
0, 0
0, 0
0, 0
0, 0
0, 0
0, 0
0, 0
0, 0
0, 0
0, 0
0, 0
0, 0
0, 0
0, 0
0, 0
0, 0
0, 0
0, 0
0, 0
0, 0
0, 0
0, 0
0, 0
0, 0
0, 0
0, 0
0, 0
0, 0
0, 0
0, 0
0, 0
0, 0
0, 0
0, 0
0, 0
0, 0
0, 0
0, 0
0, 0
0, 0
0, 0
0, 0
0, 0
0, 0
0, 0
0, 0
0, 0
0, 0
0, 0
0, 0
0, 0
#ENDOFDATA     end of spectrum data