File: host_upload/12-01-2023/Dourbes (shot-by-shot)/upload_4/ps__0257_0689790785_000rfs_shot_3110.msa
#FORMAT      : EMSA/MAS spectral data file
#VERSION     : TC202v2.0 PIXL
#TITLE       : N/A
#DATE        :       Date in the format DD-MMM-YYYY, for example 07-JUL-2010
#TIME        :             The time of day at which the spectrum was recorded, in 24-hour format
#OWNER       : PIXL Flight Model       (PIXL will use this to indicate which instrument took the data.)
#NPOINTS     : 4096     Number of data points in the spectrum (This can be zero for configuration only files)
#NCOLUMNS    : 2     Number of data columns in the spectrum (This can be zero for configuration only files)
#XUNITS      : eV
#YUNITS      : COUNTS
#DATATYPE    : YY
#XPERCHAN    : 7.862, 7.881   eV per channel (separate by commas if more than one detector)
#OFFSET      : 18.5, -22.4         eV of first channel  (separate by commas if more than one detector
#SIGNALTYPE  : XRF
#YP_TEMP     : 2.909
#LIVETIME    : 9.12455, 9.14824   seconds (separate by commas if more than one detector)
#REALTIME    : 10, 10.0   seconds (separate by commas if more than one detector)
#SPECTRUM    : start of spectrum data
0, 0
0, 0
0, 0
0, 0
0, 0
0, 0
0, 0
0, 0
0, 0
0, 0
0, 0
0, 0
0, 0
0, 0
0, 0
0, 0
0, 0
0, 0
0, 0
0, 0
0, 0
0, 0
0, 0
0, 0
0, 0
0, 0
0, 0
0, 0
0, 0
0, 0
0, 0
0, 0
0, 0
0, 0
0, 0
0, 0
0, 2
0, 1
2, 3
1, 0
2, 2
1, 3
2, 2
0, 0
1, 2
0, 0
2, 1
2, 2
2, 2
6, 9
16, 6
25, 16
28, 32
46, 32
59, 36
50, 34
27, 25
25, 16
8, 8
10, 4
7, 6
10, 10
12, 8
7, 5
6, 8
10, 6
16, 10
15, 9
25, 21
60, 35
126, 94
256, 222
422, 363
692, 532
834, 639
850, 632
692, 546
479, 406
336, 261
179, 122
103, 66
56, 34
36, 24
23, 20
17, 12
13, 17
11, 12
3, 5
5, 2
4, 7
1, 2
1, 1
1, 3
1, 1
6, 2
3, 2
7, 2
4, 7
6, 7
9, 10
7, 3
4, 4
4, 2
6, 6
6, 4
5, 2
9, 5
5, 8
12, 10
13, 11
15, 19
18, 22
31, 36
48, 37
52, 59
58, 37
61, 47
34, 33
44, 26
31, 32
24, 41
29, 22
34, 23
30, 19
20, 22
18, 17
17, 12
26, 18
7, 15
10, 9
17, 11
4, 5
5, 7
9, 2
1, 5
9, 4
5, 4
5, 6
4, 4
0, 4
6, 5
9, 4
2, 4
2, 6
6, 2
5, 2
6, 3
7, 5
18, 10
19, 16
40, 44
85, 99
190, 179
373, 329
591, 513
861, 714
1051, 874
1192, 884
1084, 887
914, 659
615, 443
445, 282
234, 146
114, 77
69, 59
59, 38
43, 35
70, 53
104, 89
132, 124
158, 150
176, 132
162, 117
141, 100
83, 82
56, 32
38, 19
16, 13
9, 8
9, 7
8, 3
8, 4
4, 8
10, 4
5, 7
9, 8
9, 12
20, 9
19, 29
24, 21
38, 31
41, 30
33, 43
33, 31
32, 23
32, 17
25, 19
22, 19
21, 8
14, 8
16, 6
18, 4
11, 9
8, 7
16, 4
11, 5
11, 5
13, 7
15, 13
12, 16
11, 20
13, 17
10, 15
11, 7
10, 6
10, 6
8, 7
9, 6
9, 6
8, 4
10, 5
8, 5
4, 7
6, 7
15, 8
19, 23
19, 16
37, 23
38, 44
63, 44
47, 47
43, 32
44, 30
31, 24
26, 28
21, 12
16, 12
7, 9
15, 9
8, 9
7, 5
10, 11
8, 6
8, 10
13, 15
8, 33
24, 27
44, 43
55, 55
53, 66
57, 65
70, 92
65, 50
52, 37
33, 31
41, 23
34, 22
20, 21
15, 18
22, 14
19, 11
21, 13
22, 13
28, 41
64, 74
147, 155
270, 267
397, 466
708, 661
1036, 952
1276, 1127
1479, 1318
1528, 1264
1485, 1176
1277, 994
997, 769
704, 486
433, 303
278, 154
152, 102
77, 49
37, 26
25, 21
16, 18
11, 10
9, 14
15, 9
13, 11
13, 5
8, 13
18, 12
19, 17
34, 20
47, 30
60, 77
86, 104
146, 120
172, 174
206, 191
220, 197
227, 220
235, 182
206, 149
166, 116
96, 83
81, 47
47, 26
21, 17
12, 9
17, 8
9, 5
5, 5
5, 8
4, 3
9, 8
7, 4
16, 2
11, 10
9, 7
6, 8
6, 7
6, 11
7, 3
9, 5
7, 3
3, 8
7, 2
6, 5
2, 7
8, 6
6, 6
5, 4
8, 9
5, 13
10, 7
11, 3
7, 9
3, 6
5, 10
12, 8
5, 8
12, 13
10, 5
16, 4
12, 9
11, 6
11, 2
9, 7
17, 6
14, 10
11, 7
11, 5
13, 4
5, 6
8, 6
7, 1
3, 5
9, 6
10, 3
10, 9
18, 7
7, 4
12, 4
18, 8
11, 4
12, 6
11, 6
10, 6
9, 1
6, 3
9, 11
9, 5
9, 7
6, 1
6, 5
5, 6
5, 2
3, 5
9, 5
2, 7
7, 1
7, 2
3, 0
2, 6
3, 3
3, 5
2, 6
4, 2
8, 5
5, 7
7, 3
7, 2
9, 2
1, 5
6, 3
4, 2
1, 7
6, 0
3, 3
6, 5
5, 4
3, 3
5, 4
10, 7
6, 3
4, 3
4, 2
0, 4
3, 9
7, 10
4, 6
1, 6
4, 11
8, 9
1, 12
2, 8
3, 4
4, 8
2, 6
4, 8
9, 6
4, 3
5, 4
4, 2
6, 2
4, 1
4, 4
4, 1
6, 2
6, 3
9, 5
5, 1
5, 2
5, 3
6, 1
4, 4
2, 2
7, 2
1, 0
5, 4
2, 0
5, 2
5, 2
3, 3
3, 3
2, 3
3, 4
3, 2
4, 3
5, 5
4, 4
6, 3
3, 4
4, 6
5, 1
4, 4
3, 6
2, 3
3, 3
4, 4
3, 3
3, 3
6, 4
4, 1
1, 2
2, 5
5, 4
3, 4
4, 2
5, 0
1, 3
4, 4
3, 4
4, 3
5, 1
1, 6
3, 2
1, 0
1, 5
7, 2
1, 4
0, 4
1, 3
5, 0
1, 4
5, 3
2, 0
3, 3
3, 2
3, 3
2, 2
3, 2
4, 3
0, 2
7, 5
2, 0
5, 3
1, 3
2, 1
2, 3
1, 3
2, 0
2, 1
3, 1
2, 5
2, 1
1, 5
3, 1
4, 1
4, 0
1, 1
7, 2
3, 1
5, 3
4, 2
1, 4
6, 1
3, 2
10, 1
3, 1
3, 3
4, 0
4, 3
4, 0
4, 4
2, 0
3, 1
2, 3
2, 0
0, 2
2, 5
1, 1
2, 1
5, 1
4, 2
3, 1
2, 3
1, 3
4, 1
4, 7
4, 2
2, 3
5, 3
3, 2
5, 2
0, 6
3, 5
0, 4
3, 0
8, 1
1, 0
1, 2
4, 1
4, 3
3, 3
1, 3
3, 2
3, 3
1, 4
3, 0
1, 0
2, 2
1, 3
2, 3
1, 3
3, 0
2, 1
2, 2
2, 0
3, 3
2, 1
2, 3
2, 4
3, 3
0, 1
0, 3
2, 2
0, 1
0, 1
1, 2
1, 0
1, 0
2, 1
0, 0
2, 1
2, 0
0, 0
2, 3
2, 1
1, 1
0, 1
1, 1
0, 1
3, 1
2, 1
0, 2
3, 1
3, 2
0, 2
2, 0
3, 3
1, 3
2, 0
1, 1
3, 1
0, 0
4, 2
0, 2
2, 0
0, 0
2, 1
3, 0
1, 3
0, 1
0, 1
0, 0
0, 0
1, 2
4, 0
2, 1
0, 1
1, 0
2, 1
1, 1
0, 1
0, 1
0, 1
3, 0
0, 0
2, 0
0, 1
2, 1
2, 0
0, 0
0, 0
3, 0
0, 0
0, 0
2, 0
0, 0
1, 0
0, 0
1, 2
0, 1
1, 2
0, 1
0, 2
1, 1
2, 2
1, 0
0, 0
0, 0
1, 3
2, 1
0, 2
1, 1
1, 0
2, 1
1, 1
0, 0
0, 1
1, 0
1, 1
1, 0
1, 1
2, 0
0, 1
0, 1
1, 0
2, 0
1, 0
1, 0
0, 1
0, 0
1, 2
0, 0
0, 0
0, 0
1, 2
1, 1
0, 1
0, 1
0, 0
0, 0
0, 0
2, 1
0, 0
0, 2
1, 1
0, 0
0, 1
0, 0
0, 0
0, 0
0, 0
0, 0
2, 1
1, 0
0, 0
0, 0
0, 0
1, 2
1, 0
0, 0
1, 0
0, 0
1, 0
0, 0
1, 0
0, 0
1, 0
0, 1
2, 1
0, 0
0, 0
1, 0
0, 1
0, 1
0, 0
2, 0
1, 0
0, 0
1, 0
0, 0
0, 1
0, 1
0, 0
0, 0
0, 0
4, 1
0, 0
1, 0
1, 0
1, 0
1, 0
0, 0
1, 0
1, 1
0, 1
0, 0
0, 0
0, 0
0, 0
0, 1
1, 0
0, 0
0, 0
0, 0
0, 0
1, 0
1, 0
0, 0
1, 1
0, 1
1, 0
0, 0
0, 0
0, 0
0, 0
0, 0
0, 0
0, 0
0, 0
0, 1
0, 0
0, 0
1, 0
0, 0
0, 0
1, 0
0, 1
1, 1
1, 0
2, 1
0, 0
1, 0
0, 0
0, 0
2, 0
2, 0
0, 0
0, 1
1, 0
0, 0
1, 0
1, 1
0, 0
0, 0
0, 0
0, 0
1, 1
0, 0
0, 0
0, 0
0, 0
0, 1
1, 0
0, 0
0, 0
0, 0
0, 0
0, 0
0, 0
0, 1
0, 0
0, 1
0, 0
0, 0
0, 0
0, 0
1, 0
0, 0
0, 0
1, 0
0, 1
0, 0
0, 0
0, 0
1, 0
0, 0
1, 0
0, 1
0, 0
0, 0
1, 0
0, 0
0, 0
0, 0
0, 0
0, 1
0, 0
1, 0
0, 1
0, 0
0, 0
0, 0
1, 2
0, 0
1, 0
0, 0
0, 0
0, 0
0, 0
0, 0
0, 0
0, 0
0, 0
0, 0
1, 0
0, 0
0, 0
1, 0
0, 2
0, 0
1, 1
0, 0
0, 0
0, 0
0, 1
0, 1
0, 0
0, 0
0, 0
0, 0
0, 0
0, 0
0, 0
0, 0
1, 0
0, 1
0, 0
0, 0
0, 0
1, 0
0, 0
0, 0
0, 0
0, 0
0, 0
0, 0
0, 0
0, 0
0, 0
0, 0
0, 0
1, 0
0, 0
0, 0
0, 0
0, 2
0, 0
0, 0
0, 0
0, 1
0, 0
0, 0
0, 0
0, 0
0, 0
0, 0
1, 0
0, 0
0, 0
0, 0
0, 0
0, 1
0, 0
0, 0
0, 0
1, 0
0, 0
0, 1
0, 0
0, 0
0, 0
0, 0
0, 0
0, 0
0, 0
0, 0
0, 0
0, 0
0, 0
0, 0
0, 0
0, 0
0, 0
0, 0
0, 0
0, 0
0, 0
0, 0
0, 0
0, 0
1, 0
0, 0
0, 1
0, 0
0, 0
0, 0
0, 0
0, 0
0, 0
0, 0
0, 0
0, 0
0, 0
0, 0
0, 0
0, 0
0, 0
0, 0
0, 0
0, 0
0, 0
0, 0
0, 0
0, 0
0, 0
0, 0
0, 0
0, 0
0, 0
0, 0
0, 0
0, 0
0, 0
0, 0
0, 0
0, 2
0, 0
0, 0
0, 0
0, 0
0, 0
0, 0
0, 0
0, 0
0, 0
0, 0
0, 0
0, 0
0, 0
0, 0
0, 0
0, 0
0, 0
0, 0
0, 0
0, 0
0, 0
0, 1
0, 0
0, 0
0, 0
0, 0
0, 0
0, 0
0, 0
0, 0
0, 0
0, 0
0, 0
0, 0
0, 0
0, 0
0, 0
0, 0
0, 0
0, 0
0, 0
0, 0
0, 0
0, 0
0, 0
0, 0
0, 0
0, 0
0, 0
0, 0
0, 0
0, 0
0, 0
0, 0
1, 0
0, 0
0, 0
0, 0
0, 0
0, 0
0, 0
0, 0
0, 0
0, 0
0, 0
0, 0
0, 0
0, 0
0, 0
0, 0
0, 0
0, 0
0, 0
0, 0
0, 0
0, 0
0, 0
0, 0
0, 0
0, 0
0, 0
0, 0
0, 0
0, 0
0, 0
0, 0
0, 0
0, 0
0, 0
0, 0
0, 0
0, 0
0, 0
0, 0
0, 0
0, 0
0, 0
0, 0
0, 0
0, 0
0, 0
0, 0
0, 0
0, 0
0, 0
0, 0
0, 0
0, 0
0, 0
0, 0
0, 0
0, 0
0, 0
0, 0
0, 0
0, 0
0, 0
0, 0
0, 0
0, 0
0, 0
0, 0
0, 0
0, 0
0, 0
0, 0
0, 0
0, 0
0, 1
0, 0
0, 0
0, 0
0, 0
0, 0
0, 0
0, 0
0, 0
0, 0
0, 0
0, 0
0, 0
0, 0
0, 0
0, 0
0, 0
0, 0
0, 0
0, 0
0, 0
0, 0
0, 0
0, 0
0, 0
0, 0
0, 0
0, 0
0, 0
0, 0
0, 0
0, 0
0, 0
0, 0
0, 0
0, 0
0, 0
0, 0
0, 0
0, 0
0, 0
0, 0
0, 0
0, 0
0, 0
0, 0
0, 0
0, 0
0, 0
0, 0
0, 0
0, 0
0, 0
0, 0
0, 0
0, 0
0, 0
0, 0
0, 0
0, 0
0, 0
0, 0
0, 0
0, 0
0, 0
0, 0
0, 0
0, 0
0, 0
0, 0
0, 0
0, 0
0, 0
0, 0
0, 0
0, 0
0, 0
0, 0
0, 0
0, 0
0, 0
0, 0
0, 0
0, 0
0, 0
0, 0
0, 0
0, 0
0, 0
0, 0
0, 0
0, 0
0, 0
0, 0
0, 0
0, 0
0, 0
0, 0
0, 0
0, 0
0, 0
0, 0
0, 0
0, 0
0, 0
0, 0
0, 0
0, 0
0, 0
0, 0
0, 0
0, 0
0, 0
0, 0
0, 0
0, 0
0, 0
0, 0
0, 0
0, 0
0, 0
0, 0
0, 0
0, 0
0, 0
0, 0
0, 0
0, 0
0, 0
0, 0
0, 0
0, 0
0, 0
0, 0
0, 0
0, 0
0, 0
0, 0
0, 0
0, 0
0, 0
0, 0
0, 0
0, 0
0, 0
0, 0
0, 0
0, 0
0, 0
0, 0
0, 0
0, 0
0, 0
0, 0
0, 0
0, 0
0, 0
0, 0
0, 0
0, 0
0, 0
0, 0
0, 0
0, 0
0, 0
0, 0
0, 0
0, 0
0, 0
0, 0
0, 0
0, 0
0, 0
0, 0
0, 0
0, 0
0, 0
0, 0
0, 0
0, 0
0, 0
0, 0
0, 0
0, 0
0, 0
0, 0
0, 0
0, 0
0, 0
0, 0
0, 0
0, 0
0, 0
0, 0
0, 0
0, 0
0, 0
0, 0
0, 0
0, 0
0, 0
0, 0
0, 0
0, 0
0, 0
0, 0
0, 0
0, 0
0, 0
0, 0
0, 0
0, 0
0, 0
0, 0
0, 0
0, 0
0, 0
0, 0
0, 0
0, 0
0, 0
0, 0
0, 0
0, 0
0, 0
0, 0
0, 0
0, 0
0, 0
0, 0
0, 0
0, 0
0, 0
0, 0
0, 0
0, 0
0, 0
0, 0
0, 0
0, 0
0, 0
0, 0
0, 0
0, 0
0, 0
0, 0
0, 0
0, 0
0, 0
0, 0
0, 0
0, 0
0, 0
0, 0
0, 0
0, 0
0, 0
0, 0
0, 0
0, 0
0, 0
0, 0
0, 0
0, 0
0, 0
0, 0
0, 0
0, 0
#ENDOFDATA     end of spectrum data