File: host_upload/12-01-2023/Dourbes (shot-by-shot)/upload_4/ps__0257_0689790785_000rfs_shot_3217.msa
#FORMAT      : EMSA/MAS spectral data file
#VERSION     : TC202v2.0 PIXL
#TITLE       : N/A
#DATE        :       Date in the format DD-MMM-YYYY, for example 07-JUL-2010
#TIME        :             The time of day at which the spectrum was recorded, in 24-hour format
#OWNER       : PIXL Flight Model       (PIXL will use this to indicate which instrument took the data.)
#NPOINTS     : 4096     Number of data points in the spectrum (This can be zero for configuration only files)
#NCOLUMNS    : 2     Number of data columns in the spectrum (This can be zero for configuration only files)
#XUNITS      : eV
#YUNITS      : COUNTS
#DATATYPE    : YY
#XPERCHAN    : 7.862, 7.881   eV per channel (separate by commas if more than one detector)
#OFFSET      : 18.5, -22.4         eV of first channel  (separate by commas if more than one detector
#SIGNALTYPE  : XRF
#YP_TEMP     : 3.037
#LIVETIME    : 9.02853, 9.00895   seconds (separate by commas if more than one detector)
#REALTIME    : 10, 10.0   seconds (separate by commas if more than one detector)
#SPECTRUM    : start of spectrum data
0, 0
0, 0
0, 0
0, 0
0, 0
0, 0
0, 0
0, 0
0, 0
0, 0
0, 0
0, 0
0, 0
0, 0
0, 0
0, 0
0, 0
0, 0
0, 0
0, 0
0, 0
0, 0
0, 0
0, 0
0, 0
0, 0
0, 0
0, 0
0, 0
0, 0
0, 0
1, 2
0, 0
0, 0
1, 1
0, 0
0, 1
0, 0
1, 2
1, 3
2, 1
0, 1
1, 1
0, 1
1, 0
1, 3
2, 2
4, 2
4, 1
5, 0
14, 10
12, 15
32, 28
50, 48
45, 56
39, 40
33, 34
30, 17
8, 14
3, 4
3, 1
7, 4
4, 2
0, 2
3, 4
6, 5
2, 5
8, 9
13, 12
31, 45
78, 63
195, 168
300, 306
441, 446
488, 453
505, 534
460, 401
313, 305
197, 200
112, 102
52, 48
27, 20
15, 15
12, 3
4, 5
1, 1
2, 0
3, 2
3, 1
5, 5
2, 0
12, 2
15, 4
36, 5
49, 19
61, 31
75, 42
109, 57
84, 63
75, 48
69, 59
46, 36
28, 30
15, 11
12, 11
7, 13
10, 13
12, 11
16, 19
24, 27
33, 36
49, 56
65, 65
64, 95
73, 89
71, 94
66, 69
57, 72
53, 44
42, 58
39, 27
28, 28
32, 27
28, 25
21, 21
16, 24
22, 12
16, 14
18, 18
11, 10
4, 13
4, 2
4, 3
5, 2
4, 2
6, 4
5, 5
3, 4
5, 4
2, 1
3, 4
4, 5
3, 5
2, 2
2, 3
6, 1
2, 0
2, 2
2, 2
1, 3
4, 9
5, 8
13, 19
26, 37
28, 51
45, 58
44, 92
53, 79
59, 103
51, 80
31, 80
22, 50
12, 36
8, 22
4, 14
5, 10
7, 4
7, 10
4, 3
11, 14
8, 10
6, 16
8, 11
7, 8
5, 9
3, 13
3, 8
6, 5
3, 4
8, 5
1, 6
6, 2
2, 5
4, 5
7, 4
3, 5
6, 7
5, 9
8, 11
8, 12
10, 12
12, 16
10, 16
21, 23
29, 20
16, 17
18, 28
16, 14
14, 18
16, 17
19, 22
16, 14
8, 7
13, 10
7, 10
10, 10
8, 8
7, 11
6, 9
10, 9
12, 9
6, 5
12, 12
8, 2
11, 12
15, 10
6, 9
15, 10
7, 13
14, 6
13, 9
12, 8
6, 8
12, 10
13, 9
8, 11
14, 22
20, 27
9, 46
12, 57
12, 70
15, 83
15, 71
13, 99
12, 77
17, 64
14, 49
11, 35
8, 25
12, 22
13, 20
12, 15
14, 10
19, 19
30, 18
19, 31
44, 51
44, 72
75, 67
105, 88
102, 105
104, 99
111, 93
58, 77
69, 60
53, 42
35, 24
16, 15
20, 29
19, 27
22, 23
32, 30
42, 57
90, 97
158, 224
326, 411
562, 739
933, 1255
1529, 1857
2232, 2497
2865, 3138
3160, 3558
3403, 3597
3267, 3253
2692, 2718
2195, 1955
1542, 1250
963, 778
599, 455
286, 218
153, 113
87, 49
53, 34
40, 15
36, 21
28, 19
31, 20
22, 9
37, 20
28, 26
40, 47
54, 52
57, 79
98, 111
134, 170
192, 234
277, 324
339, 422
455, 484
509, 498
492, 507
479, 430
392, 411
304, 273
202, 176
157, 98
79, 61
50, 35
21, 18
15, 10
8, 10
5, 4
1, 6
4, 5
6, 7
12, 13
6, 10
7, 10
9, 14
6, 14
5, 8
8, 9
7, 6
3, 7
5, 8
3, 7
6, 4
4, 3
5, 5
3, 4
3, 4
5, 1
3, 1
3, 2
2, 2
6, 0
4, 6
5, 8
2, 2
5, 6
4, 8
4, 6
6, 9
5, 4
3, 2
4, 5
7, 6
3, 5
2, 3
4, 2
6, 3
6, 4
2, 3
7, 4
4, 4
5, 3
4, 2
3, 1
1, 0
5, 4
8, 2
3, 10
6, 7
6, 3
4, 5
5, 6
2, 8
3, 3
8, 5
4, 9
6, 11
5, 10
6, 8
4, 16
5, 17
5, 25
3, 11
6, 12
5, 13
3, 7
3, 17
5, 7
4, 8
3, 7
10, 6
7, 3
5, 5
3, 5
13, 8
13, 6
2, 2
1, 6
3, 4
6, 8
3, 6
5, 7
3, 7
4, 3
1, 4
3, 3
2, 2
4, 3
4, 7
3, 3
2, 5
5, 4
4, 2
0, 3
1, 10
4, 4
5, 8
1, 4
3, 8
3, 1
2, 3
2, 1
3, 3
1, 1
5, 2
3, 3
1, 2
2, 0
0, 0
2, 5
2, 8
2, 3
6, 0
3, 2
2, 4
3, 2
1, 8
3, 1
3, 3
4, 3
1, 4
0, 2
5, 1
1, 1
3, 4
5, 5
1, 2
4, 5
1, 4
3, 5
1, 4
3, 5
2, 6
1, 5
4, 3
2, 6
0, 2
2, 4
3, 3
4, 2
5, 4
1, 2
3, 6
1, 2
3, 6
5, 6
2, 6
5, 2
4, 11
1, 6
2, 2
2, 1
0, 4
2, 6
4, 3
2, 3
2, 4
4, 2
4, 2
2, 4
3, 2
1, 4
8, 2
2, 3
2, 0
3, 5
0, 2
1, 1
1, 0
3, 2
3, 3
2, 1
1, 1
2, 1
0, 0
0, 2
5, 1
5, 2
0, 1
2, 3
4, 0
3, 3
2, 0
1, 3
0, 0
0, 0
1, 1
1, 2
2, 1
2, 4
2, 5
0, 2
0, 2
1, 2
2, 5
2, 1
2, 1
0, 1
4, 1
1, 0
1, 0
1, 2
3, 2
0, 2
2, 4
0, 1
1, 4
1, 5
1, 6
1, 0
3, 2
3, 1
1, 0
1, 2
0, 6
1, 2
2, 1
2, 2
2, 1
2, 0
0, 3
2, 3
2, 4
4, 3
2, 5
4, 2
5, 10
2, 6
6, 4
2, 6
4, 6
3, 4
7, 3
5, 2
0, 3
2, 0
2, 2
3, 3
2, 3
1, 2
2, 2
2, 2
1, 1
3, 1
2, 0
3, 1
2, 0
1, 1
2, 0
1, 2
2, 3
2, 2
6, 5
2, 3
3, 3
1, 2
2, 2
2, 0
3, 1
4, 1
2, 4
4, 3
0, 2
5, 1
0, 0
0, 0
1, 2
0, 0
1, 0
2, 1
1, 2
1, 1
1, 1
1, 1
2, 0
1, 3
0, 0
1, 2
0, 0
0, 0
2, 1
1, 0
0, 1
1, 1
2, 0
0, 1
2, 2
1, 1
0, 0
1, 1
1, 1
0, 0
4, 0
1, 1
0, 0
2, 1
2, 0
2, 2
0, 1
0, 0
1, 1
1, 0
0, 1
1, 0
1, 0
4, 1
1, 1
1, 2
0, 0
0, 0
1, 0
0, 0
2, 1
1, 3
2, 0
0, 1
1, 2
0, 2
0, 1
0, 0
2, 1
0, 0
0, 0
0, 2
3, 1
2, 1
0, 0
2, 0
0, 0
0, 0
1, 0
0, 0
2, 1
1, 1
2, 0
1, 1
1, 0
0, 1
0, 0
0, 0
0, 0
0, 1
0, 2
0, 0
1, 1
0, 1
1, 1
1, 3
3, 0
0, 0
1, 0
0, 1
1, 1
0, 0
0, 1
0, 0
0, 0
0, 0
0, 0
2, 0
0, 2
0, 1
1, 0
0, 1
0, 0
1, 0
1, 0
0, 0
0, 1
0, 0
0, 1
0, 1
0, 0
0, 0
1, 0
0, 0
0, 0
0, 0
1, 0
0, 1
0, 1
0, 0
0, 0
0, 1
0, 0
1, 2
0, 0
2, 0
1, 0
0, 0
1, 1
1, 0
0, 0
0, 0
1, 3
0, 0
0, 0
0, 2
0, 0
0, 2
0, 0
2, 1
1, 0
0, 2
0, 2
0, 1
1, 1
0, 0
0, 0
0, 0
0, 0
0, 0
0, 0
0, 0
0, 0
0, 0
1, 0
0, 0
0, 1
1, 1
0, 0
1, 0
0, 1
1, 0
0, 0
0, 1
0, 2
1, 0
0, 0
0, 0
0, 1
0, 0
0, 0
0, 0
0, 1
0, 0
0, 0
0, 0
0, 0
0, 1
0, 0
0, 0
0, 0
0, 0
0, 2
0, 0
1, 1
0, 0
0, 0
0, 0
0, 0
0, 1
0, 0
0, 0
0, 1
0, 0
0, 0
0, 0
0, 0
0, 0
0, 0
0, 0
0, 0
0, 0
0, 0
0, 1
0, 0
0, 0
0, 1
2, 0
0, 0
0, 0
1, 2
1, 0
0, 0
0, 0
0, 0
0, 0
1, 0
0, 1
1, 0
1, 0
0, 0
0, 0
0, 0
0, 0
1, 0
0, 0
0, 0
0, 0
0, 0
0, 0
0, 0
0, 0
0, 0
0, 0
0, 0
0, 1
0, 0
0, 0
0, 0
0, 0
0, 0
0, 0
0, 0
0, 0
0, 0
0, 0
0, 0
0, 0
0, 0
0, 2
0, 0
0, 0
0, 0
0, 0
0, 0
0, 0
0, 0
0, 0
0, 1
0, 0
0, 0
0, 0
1, 0
1, 0
1, 0
0, 0
0, 0
0, 0
0, 0
0, 0
0, 0
1, 0
1, 0
0, 0
0, 0
0, 0
0, 0
0, 1
0, 0
1, 0
0, 0
0, 0
1, 0
0, 1
0, 0
0, 1
0, 0
1, 0
0, 1
0, 0
0, 0
0, 0
0, 0
0, 0
0, 0
0, 0
0, 0
0, 0
0, 0
0, 0
0, 0
0, 2
0, 0
0, 0
0, 0
0, 0
2, 1
0, 0
0, 0
0, 0
0, 0
0, 0
0, 0
0, 0
0, 1
0, 0
0, 0
0, 0
0, 0
0, 0
0, 1
0, 0
0, 0
0, 1
0, 0
1, 0
0, 0
0, 0
0, 0
0, 0
0, 0
0, 0
0, 0
0, 0
0, 0
0, 0
0, 0
0, 0
0, 0
0, 0
0, 0
0, 0
0, 0
0, 0
0, 0
0, 0
0, 0
0, 0
0, 0
0, 0
0, 0
0, 0
0, 0
0, 0
0, 1
0, 0
0, 0
0, 0
0, 0
0, 0
0, 0
0, 0
0, 0
0, 0
0, 0
0, 0
0, 0
0, 0
0, 0
0, 0
0, 0
0, 0
0, 0
0, 0
0, 0
0, 0
0, 0
0, 0
0, 0
0, 0
0, 0
0, 0
0, 1
1, 0
0, 0
0, 0
0, 0
0, 0
0, 0
0, 0
0, 0
0, 0
0, 0
0, 0
0, 0
0, 0
0, 0
0, 0
0, 0
0, 0
0, 0
0, 0
0, 0
0, 0
0, 0
0, 0
0, 0
0, 0
0, 0
0, 0
0, 0
0, 0
0, 0
0, 0
0, 0
0, 0
0, 0
0, 0
0, 0
0, 0
0, 0
0, 0
0, 0
0, 0
0, 0
0, 0
0, 0
0, 0
0, 0
0, 0
0, 0
0, 0
0, 0
0, 0
0, 0
0, 0
0, 0
0, 0
0, 0
0, 0
0, 0
0, 0
0, 0
0, 0
0, 0
0, 0
0, 0
0, 0
0, 0
0, 0
0, 0
0, 0
1, 0
0, 0
0, 0
0, 0
0, 0
0, 0
0, 0
0, 0
0, 0
0, 0
0, 0
0, 0
0, 0
0, 0
0, 0
0, 0
0, 0
0, 0
0, 0
0, 0
0, 0
0, 0
0, 0
0, 0
0, 0
0, 0
0, 0
0, 0
0, 0
0, 0
0, 0
0, 0
0, 0
0, 0
0, 0
0, 0
0, 0
0, 0
0, 0
0, 0
0, 0
0, 0
0, 0
0, 0
0, 0
0, 0
0, 0
0, 0
0, 0
0, 0
0, 0
0, 0
0, 0
0, 0
0, 0
0, 0
0, 0
0, 0
0, 0
0, 0
0, 0
0, 0
0, 0
0, 0
0, 0
0, 0
0, 0
0, 0
0, 0
0, 0
0, 0
0, 0
0, 0
0, 0
0, 0
0, 0
0, 0
0, 0
0, 0
0, 0
0, 0
0, 0
0, 1
0, 0
0, 0
0, 0
0, 0
0, 0
0, 0
0, 0
0, 0
0, 0
0, 0
0, 0
0, 0
0, 0
0, 0
0, 0
0, 0
0, 0
0, 0
0, 0
0, 0
0, 0
0, 0
0, 0
0, 0
0, 0
0, 0
0, 0
0, 0
0, 0
0, 0
0, 0
0, 0
0, 0
0, 0
0, 0
0, 0
0, 0
0, 0
0, 0
0, 0
0, 0
0, 0
0, 0
0, 0
0, 0
0, 0
0, 0
0, 0
0, 0
0, 0
0, 0
0, 0
0, 0
0, 0
0, 0
0, 0
0, 0
0, 0
0, 0
0, 0
0, 0
0, 0
0, 0
0, 0
0, 0
0, 0
0, 0
0, 0
0, 0
0, 0
0, 0
0, 0
0, 0
0, 0
0, 0
0, 0
0, 0
0, 0
0, 0
0, 0
0, 0
0, 0
0, 0
0, 0
0, 0
0, 0
0, 0
0, 0
0, 0
0, 0
0, 0
0, 0
0, 0
0, 0
0, 0
0, 0
0, 0
0, 0
0, 0
0, 0
0, 0
0, 0
0, 0
0, 0
0, 0
0, 0
0, 0
0, 0
0, 0
0, 0
0, 0
0, 0
0, 0
0, 0
0, 0
0, 0
0, 0
0, 0
0, 0
0, 0
0, 0
0, 0
0, 0
0, 0
0, 0
0, 0
0, 0
0, 0
0, 0
0, 0
0, 0
0, 0
0, 0
0, 0
0, 0
0, 0
0, 0
0, 0
0, 0
0, 0
0, 0
0, 0
0, 0
0, 0
0, 0
0, 0
0, 0
0, 0
0, 0
0, 0
0, 0
0, 0
0, 0
0, 0
0, 0
0, 0
0, 0
0, 0
0, 0
0, 0
0, 0
0, 0
0, 0
0, 0
0, 0
0, 0
0, 0
0, 0
0, 0
0, 0
0, 0
0, 0
0, 0
0, 0
0, 0
0, 0
0, 0
0, 0
0, 0
0, 0
0, 0
0, 0
0, 0
0, 0
0, 0
0, 0
0, 0
0, 0
0, 0
0, 0
0, 0
0, 0
0, 0
0, 0
0, 0
0, 0
0, 0
0, 0
0, 0
0, 0
0, 0
0, 0
0, 0
0, 0
0, 0
0, 0
0, 0
0, 0
0, 0
0, 0
0, 0
0, 0
0, 0
0, 0
0, 0
0, 0
0, 0
0, 0
0, 0
0, 0
0, 0
0, 0
0, 0
0, 0
0, 0
0, 0
0, 0
0, 0
0, 0
0, 0
0, 0
0, 0
0, 0
0, 0
0, 0
0, 0
0, 0
0, 0
0, 0
0, 0
0, 0
0, 0
0, 0
0, 0
0, 0
0, 0
0, 0
0, 0
0, 0
0, 0
0, 0
0, 0
0, 0
0, 0
0, 0
#ENDOFDATA     end of spectrum data