File: host_upload/12-01-2023/Dourbes (shot-by-shot)/upload_4/ps__0257_0689790785_000rfs_shot_3086.msa
#FORMAT      : EMSA/MAS spectral data file
#VERSION     : TC202v2.0 PIXL
#TITLE       : N/A
#DATE        :       Date in the format DD-MMM-YYYY, for example 07-JUL-2010
#TIME        :             The time of day at which the spectrum was recorded, in 24-hour format
#OWNER       : PIXL Flight Model       (PIXL will use this to indicate which instrument took the data.)
#NPOINTS     : 4096     Number of data points in the spectrum (This can be zero for configuration only files)
#NCOLUMNS    : 2     Number of data columns in the spectrum (This can be zero for configuration only files)
#XUNITS      : eV
#YUNITS      : COUNTS
#DATATYPE    : YY
#XPERCHAN    : 7.862, 7.881   eV per channel (separate by commas if more than one detector)
#OFFSET      : 18.5, -22.4         eV of first channel  (separate by commas if more than one detector
#SIGNALTYPE  : XRF
#YP_TEMP     : 3.133
#LIVETIME    : 9.03474, 9.02022   seconds (separate by commas if more than one detector)
#REALTIME    : 10, 10.0   seconds (separate by commas if more than one detector)
#SPECTRUM    : start of spectrum data
0, 0
0, 0
0, 0
0, 0
0, 0
0, 0
0, 0
0, 0
0, 0
0, 0
0, 0
0, 0
0, 0
0, 0
0, 0
0, 0
0, 0
0, 0
0, 0
0, 0
0, 0
0, 0
0, 0
0, 0
0, 0
0, 0
0, 0
0, 0
0, 0
0, 0
0, 0
1, 0
0, 0
0, 0
0, 0
2, 0
0, 1
0, 0
2, 1
1, 0
1, 2
1, 1
3, 1
0, 0
1, 2
0, 0
3, 0
3, 2
7, 2
6, 3
10, 6
25, 20
34, 27
49, 45
45, 49
41, 39
32, 29
27, 32
13, 13
12, 10
4, 5
10, 1
11, 11
10, 14
13, 13
11, 11
17, 10
11, 6
12, 13
35, 32
81, 80
156, 146
320, 296
440, 440
519, 552
488, 548
430, 449
284, 361
179, 208
107, 101
56, 50
25, 31
11, 19
10, 6
6, 5
3, 4
3, 6
3, 3
0, 6
1, 1
6, 3
2, 0
4, 0
2, 4
1, 3
8, 5
6, 9
4, 4
7, 7
4, 9
4, 7
5, 8
3, 2
7, 5
5, 6
2, 7
4, 4
13, 6
14, 18
14, 20
28, 20
23, 34
43, 49
45, 47
56, 59
49, 55
50, 46
56, 36
46, 31
27, 29
30, 30
25, 23
17, 23
23, 16
23, 14
23, 20
15, 11
15, 13
9, 15
13, 8
10, 4
3, 6
7, 5
4, 7
9, 4
4, 7
4, 5
4, 3
7, 5
7, 3
5, 2
1, 9
10, 2
4, 3
3, 4
4, 4
9, 3
3, 7
5, 3
8, 7
13, 16
18, 23
39, 44
74, 76
109, 122
149, 158
179, 206
218, 224
208, 211
164, 162
118, 126
101, 78
43, 43
21, 29
18, 29
15, 39
25, 41
23, 35
20, 41
27, 42
43, 60
45, 46
35, 25
27, 26
19, 16
13, 8
12, 11
8, 9
8, 15
8, 2
5, 6
4, 6
8, 4
4, 6
5, 5
10, 3
8, 12
14, 11
14, 6
29, 14
24, 24
31, 17
28, 26
25, 21
19, 24
17, 11
18, 15
22, 16
18, 20
21, 21
17, 24
24, 12
17, 12
25, 12
25, 13
24, 8
18, 8
14, 10
24, 7
17, 14
8, 22
16, 18
10, 8
13, 17
19, 17
10, 16
13, 4
5, 9
7, 5
10, 8
9, 9
11, 4
5, 6
9, 15
6, 14
7, 10
17, 28
21, 23
21, 25
27, 22
23, 31
26, 32
28, 33
32, 21
22, 22
20, 15
11, 17
16, 14
11, 9
11, 15
12, 13
15, 15
15, 15
14, 18
19, 18
35, 30
36, 46
51, 59
67, 87
83, 85
79, 112
108, 102
96, 91
80, 80
64, 55
44, 45
27, 41
23, 21
22, 24
29, 27
22, 25
27, 40
43, 56
83, 119
132, 210
287, 386
556, 708
952, 1192
1407, 1774
1982, 2564
2708, 3105
3004, 3560
3316, 3721
3125, 3302
2679, 2782
1974, 1979
1459, 1278
916, 867
564, 466
302, 274
164, 120
70, 57
43, 36
18, 28
19, 26
25, 25
16, 13
16, 21
24, 28
20, 26
25, 39
42, 57
66, 60
78, 101
130, 161
175, 246
249, 324
336, 400
416, 495
519, 507
500, 502
463, 445
359, 366
314, 229
216, 198
144, 113
83, 55
45, 24
32, 19
19, 6
14, 1
3, 10
7, 4
5, 3
6, 7
5, 9
8, 6
4, 9
5, 8
5, 7
7, 7
9, 8
4, 3
7, 5
3, 3
7, 8
0, 2
5, 7
1, 9
3, 5
5, 10
4, 6
2, 8
5, 11
5, 7
4, 6
8, 7
8, 6
8, 11
5, 6
5, 6
9, 6
9, 7
8, 7
7, 1
3, 4
3, 6
6, 5
6, 4
7, 4
5, 3
5, 8
3, 5
4, 5
1, 6
3, 0
6, 4
4, 2
6, 4
4, 4
3, 4
5, 7
1, 7
6, 0
5, 3
4, 3
5, 4
7, 3
2, 1
4, 0
4, 3
6, 2
4, 5
7, 3
4, 6
7, 5
1, 7
4, 4
4, 3
2, 6
4, 5
3, 7
3, 5
4, 2
2, 6
0, 5
7, 1
5, 7
3, 6
4, 4
3, 8
2, 1
1, 10
1, 9
3, 5
3, 5
5, 7
2, 5
5, 11
3, 2
4, 4
2, 4
1, 5
2, 4
6, 2
7, 6
6, 1
7, 0
5, 4
4, 3
3, 3
0, 4
1, 1
1, 5
4, 2
3, 4
3, 7
2, 4
5, 4
5, 4
5, 5
1, 9
5, 5
2, 4
2, 3
3, 2
6, 6
6, 5
3, 6
5, 4
4, 2
5, 2
7, 2
8, 2
6, 5
5, 4
6, 3
10, 3
7, 1
5, 2
8, 1
7, 3
7, 3
5, 8
4, 3
2, 0
1, 0
2, 2
3, 3
6, 2
5, 1
0, 1
0, 4
4, 3
3, 2
6, 4
6, 3
1, 4
3, 4
2, 3
4, 0
4, 3
3, 3
3, 3
1, 0
1, 2
3, 5
1, 2
1, 2
0, 6
5, 2
3, 1
0, 3
2, 5
2, 3
3, 1
3, 1
2, 3
1, 1
2, 4
3, 5
2, 4
1, 3
0, 1
2, 2
2, 1
0, 1
2, 5
3, 3
1, 2
1, 1
0, 1
1, 1
0, 0
0, 2
0, 1
3, 1
4, 1
2, 0
3, 1
7, 2
3, 5
2, 1
3, 3
5, 0
2, 0
2, 2
5, 1
1, 1
2, 5
2, 1
0, 3
0, 0
2, 3
4, 1
1, 1
2, 2
0, 2
1, 0
2, 3
4, 3
2, 3
3, 1
1, 3
2, 1
4, 2
3, 5
0, 5
1, 2
1, 0
1, 2
1, 1
1, 3
1, 4
1, 6
3, 1
7, 5
5, 4
4, 3
3, 8
5, 7
4, 3
8, 3
8, 9
4, 6
4, 5
3, 2
3, 3
7, 2
3, 4
1, 2
2, 3
2, 1
1, 4
3, 1
2, 1
1, 2
1, 1
3, 2
1, 1
0, 2
1, 3
2, 3
1, 3
0, 0
1, 0
0, 4
1, 3
1, 1
5, 4
0, 3
1, 1
2, 4
1, 3
2, 1
0, 1
0, 0
0, 1
0, 3
2, 4
2, 0
4, 0
1, 2
2, 1
1, 1
0, 1
2, 3
0, 0
1, 4
2, 1
0, 1
0, 1
1, 1
1, 1
1, 1
3, 0
1, 4
1, 0
0, 1
3, 1
4, 2
2, 0
0, 4
1, 0
0, 0
3, 3
0, 2
1, 1
6, 1
4, 1
0, 2
2, 0
0, 2
0, 1
2, 0
2, 0
2, 3
2, 2
1, 1
0, 0
0, 0
0, 0
0, 2
1, 1
0, 1
2, 2
0, 1
2, 1
1, 1
0, 1
0, 0
0, 0
0, 0
2, 2
1, 1
0, 1
0, 0
1, 0
1, 0
0, 1
2, 1
0, 0
1, 0
0, 2
0, 1
0, 2
0, 0
1, 0
0, 1
1, 1
0, 0
1, 0
0, 0
1, 0
1, 2
0, 0
1, 0
0, 0
0, 0
0, 1
0, 0
0, 0
0, 1
0, 1
0, 2
0, 0
0, 0
0, 1
0, 0
0, 0
2, 0
0, 1
2, 1
0, 0
0, 1
0, 1
2, 0
0, 1
0, 0
0, 1
0, 0
0, 1
0, 1
0, 0
2, 0
0, 0
2, 1
0, 1
0, 1
0, 0
1, 0
0, 0
0, 1
0, 0
0, 0
1, 0
1, 0
0, 0
0, 1
0, 1
0, 0
0, 0
1, 0
0, 0
0, 0
1, 0
0, 0
0, 0
0, 0
1, 0
0, 1
0, 0
0, 0
0, 3
2, 0
0, 0
0, 1
1, 1
2, 0
1, 0
0, 0
0, 0
0, 0
0, 0
0, 0
0, 1
0, 0
0, 0
0, 1
0, 0
0, 0
0, 0
0, 0
0, 0
0, 0
0, 0
0, 1
0, 0
0, 0
0, 0
0, 0
0, 0
1, 0
0, 0
1, 0
0, 0
0, 0
0, 0
0, 0
0, 1
1, 1
0, 0
0, 0
0, 0
0, 0
0, 0
0, 0
0, 0
1, 0
0, 0
0, 0
0, 0
0, 0
0, 0
0, 0
0, 0
1, 0
0, 0
0, 0
0, 0
0, 0
0, 0
0, 0
2, 1
0, 1
0, 1
0, 0
1, 0
0, 0
0, 0
0, 0
0, 0
0, 1
0, 0
0, 0
0, 0
0, 0
0, 0
0, 0
0, 0
0, 0
1, 0
0, 0
0, 0
0, 0
0, 1
1, 0
1, 1
0, 1
1, 0
1, 2
0, 2
0, 1
0, 0
0, 1
1, 1
1, 0
0, 0
0, 0
1, 0
1, 0
0, 0
0, 0
1, 0
0, 0
0, 0
0, 0
0, 0
1, 1
0, 0
0, 1
0, 0
0, 0
0, 0
0, 0
0, 0
0, 0
0, 0
0, 0
0, 1
0, 0
1, 0
0, 1
0, 0
0, 0
0, 1
0, 0
0, 0
0, 0
0, 0
0, 1
0, 0
0, 0
0, 0
0, 0
0, 0
0, 0
0, 0
0, 0
1, 0
0, 0
1, 0
0, 0
0, 0
0, 1
0, 0
1, 0
0, 0
0, 1
0, 1
0, 0
0, 0
0, 0
0, 0
0, 0
0, 0
0, 0
0, 0
0, 0
0, 2
0, 0
1, 0
0, 0
0, 0
1, 0
0, 0
0, 0
0, 0
0, 0
0, 0
0, 0
0, 0
0, 0
0, 0
0, 0
0, 0
0, 0
0, 0
0, 0
0, 0
0, 0
0, 0
0, 0
0, 0
0, 0
0, 0
0, 0
0, 0
0, 0
0, 0
0, 0
0, 0
0, 0
0, 0
0, 0
0, 0
0, 0
0, 0
0, 0
0, 0
0, 0
0, 0
0, 0
0, 0
0, 0
0, 0
0, 0
0, 0
0, 1
0, 0
0, 0
0, 0
0, 0
0, 0
0, 0
0, 0
0, 0
0, 0
0, 0
0, 0
1, 0
0, 0
0, 0
0, 0
0, 1
0, 0
0, 0
0, 0
0, 0
0, 0
0, 0
0, 0
0, 0
0, 0
0, 0
0, 0
1, 0
0, 0
0, 1
0, 1
0, 0
0, 1
0, 0
0, 0
0, 0
0, 0
0, 0
0, 0
0, 0
0, 0
0, 0
0, 0
0, 0
0, 0
0, 0
0, 0
0, 0
0, 0
0, 0
0, 0
0, 0
0, 0
0, 0
0, 0
0, 0
1, 0
0, 0
0, 0
0, 0
0, 0
0, 0
0, 0
0, 0
0, 0
0, 0
0, 0
0, 0
0, 0
0, 0
0, 0
0, 0
0, 0
0, 0
0, 0
0, 0
0, 0
0, 0
0, 0
0, 0
0, 0
0, 0
0, 0
0, 0
0, 0
1, 0
0, 0
0, 0
0, 0
0, 0
0, 0
0, 0
0, 0
0, 0
0, 0
0, 0
0, 0
0, 0
0, 0
0, 0
0, 1
0, 0
0, 0
0, 0
0, 0
0, 0
0, 0
0, 0
0, 0
0, 0
0, 0
0, 0
0, 0
0, 0
0, 0
0, 0
0, 0
0, 0
0, 0
0, 0
0, 0
0, 0
0, 0
0, 0
0, 0
0, 0
0, 0
0, 0
0, 0
0, 0
0, 0
0, 0
0, 0
0, 0
0, 0
0, 0
0, 0
0, 0
0, 0
0, 0
0, 0
0, 0
0, 0
0, 0
0, 0
0, 0
0, 0
0, 0
0, 0
0, 0
0, 0
0, 0
0, 0
0, 0
0, 0
0, 0
0, 0
0, 0
0, 0
0, 0
0, 0
0, 0
0, 0
0, 0
0, 0
0, 0
0, 1
0, 0
0, 0
0, 0
0, 0
0, 0
0, 0
0, 0
0, 0
0, 0
0, 0
0, 0
0, 0
0, 0
0, 0
0, 0
0, 0
0, 0
0, 0
0, 0
0, 0
0, 0
0, 0
0, 0
0, 0
0, 0
0, 0
0, 0
0, 0
0, 0
0, 0
0, 0
0, 0
0, 0
0, 0
0, 0
0, 0
0, 0
0, 0
0, 0
0, 0
0, 0
0, 0
0, 0
0, 0
0, 0
0, 0
0, 0
0, 0
0, 0
0, 0
0, 0
0, 0
0, 0
0, 0
0, 0
0, 0
0, 0
0, 0
0, 0
0, 0
0, 0
0, 0
0, 0
0, 0
0, 0
0, 0
0, 0
0, 0
0, 0
0, 0
0, 0
0, 0
0, 0
0, 0
0, 0
0, 0
0, 0
0, 0
0, 0
0, 0
0, 0
0, 0
0, 0
0, 0
0, 0
0, 0
0, 0
0, 0
0, 0
0, 0
0, 0
0, 0
0, 0
0, 0
0, 0
0, 0
0, 0
0, 0
0, 0
0, 0
0, 0
0, 0
0, 0
0, 0
0, 0
0, 0
0, 0
0, 0
0, 0
0, 0
0, 0
0, 0
0, 0
0, 0
0, 0
0, 0
0, 0
0, 0
0, 0
0, 0
0, 0
0, 0
0, 0
0, 0
0, 0
0, 0
0, 0
0, 0
0, 0
0, 0
0, 0
0, 0
0, 0
0, 0
0, 0
0, 0
0, 0
0, 0
0, 0
0, 0
0, 0
0, 0
0, 0
0, 0
0, 0
0, 0
0, 0
0, 0
0, 0
0, 0
0, 0
0, 0
0, 0
0, 0
0, 0
0, 0
0, 0
0, 0
0, 0
0, 0
0, 0
0, 0
0, 0
0, 0
0, 0
0, 0
0, 0
0, 0
0, 0
0, 0
0, 0
0, 0
0, 0
0, 0
0, 0
0, 0
0, 0
0, 0
0, 0
0, 0
0, 0
0, 0
0, 0
0, 0
0, 0
0, 0
0, 0
0, 0
0, 0
0, 0
0, 0
0, 0
0, 0
0, 0
0, 0
0, 0
0, 0
0, 0
0, 0
0, 0
0, 0
0, 0
0, 0
0, 0
0, 0
0, 0
0, 0
0, 0
0, 0
0, 0
0, 0
0, 0
0, 0
0, 0
0, 0
0, 0
0, 0
0, 0
0, 0
0, 0
0, 0
0, 0
0, 0
0, 0
0, 0
0, 0
0, 0
0, 0
0, 0
0, 0
0, 0
0, 0
0, 0
0, 0
0, 0
0, 0
0, 0
0, 0
0, 0
0, 0
0, 0
0, 0
0, 0
0, 0
0, 0
0, 0
0, 0
0, 0
0, 0
0, 0
0, 0
0, 0
0, 0
0, 0
0, 0
0, 0
0, 0
0, 0
0, 0
0, 0
0, 0
0, 0
0, 0
0, 0
0, 0
0, 0
0, 0
0, 0
0, 0
0, 0
0, 0
0, 0
0, 0
0, 0
0, 0
0, 0
0, 0
0, 0
0, 0
0, 0
#ENDOFDATA     end of spectrum data