File: host_upload/12-01-2023/Dourbes (shot-by-shot)/upload_4/ps__0257_0689790785_000rfs_shot_3142.msa
#FORMAT      : EMSA/MAS spectral data file
#VERSION     : TC202v2.0 PIXL
#TITLE       : N/A
#DATE        :       Date in the format DD-MMM-YYYY, for example 07-JUL-2010
#TIME        :             The time of day at which the spectrum was recorded, in 24-hour format
#OWNER       : PIXL Flight Model       (PIXL will use this to indicate which instrument took the data.)
#NPOINTS     : 4096     Number of data points in the spectrum (This can be zero for configuration only files)
#NCOLUMNS    : 2     Number of data columns in the spectrum (This can be zero for configuration only files)
#XUNITS      : eV
#YUNITS      : COUNTS
#DATATYPE    : YY
#XPERCHAN    : 7.862, 7.881   eV per channel (separate by commas if more than one detector)
#OFFSET      : 18.5, -22.4         eV of first channel  (separate by commas if more than one detector
#SIGNALTYPE  : XRF
#YP_TEMP     : 3.23
#LIVETIME    : 9.14379, 9.13566   seconds (separate by commas if more than one detector)
#REALTIME    : 10, 10.0   seconds (separate by commas if more than one detector)
#SPECTRUM    : start of spectrum data
0, 0
0, 0
0, 0
0, 0
0, 0
0, 0
0, 0
0, 0
0, 0
0, 0
0, 0
0, 0
0, 0
0, 0
0, 0
0, 0
0, 0
0, 0
0, 0
0, 0
0, 0
0, 0
0, 0
0, 0
0, 0
0, 0
0, 0
0, 0
0, 0
0, 0
0, 0
0, 0
1, 0
0, 0
0, 0
0, 1
0, 1
1, 1
0, 0
1, 3
0, 1
1, 0
1, 1
0, 1
0, 0
1, 1
1, 1
3, 1
2, 2
7, 5
7, 15
24, 12
37, 39
42, 39
51, 59
44, 31
34, 29
19, 20
7, 9
6, 7
10, 8
11, 4
8, 4
6, 15
12, 12
9, 15
9, 7
10, 10
26, 29
60, 51
114, 137
247, 267
442, 442
685, 648
836, 807
754, 800
644, 711
507, 482
334, 303
172, 178
85, 87
44, 47
40, 32
17, 17
13, 17
9, 14
11, 6
7, 4
1, 3
3, 4
3, 1
0, 3
2, 2
4, 2
4, 5
6, 3
2, 8
7, 5
2, 5
4, 5
6, 5
6, 8
2, 4
3, 2
3, 1
4, 2
9, 5
8, 4
9, 4
10, 8
15, 16
16, 18
27, 25
31, 30
33, 28
37, 27
34, 36
35, 26
29, 24
27, 18
22, 21
21, 7
23, 22
21, 19
16, 21
13, 17
18, 13
15, 10
10, 7
13, 7
5, 3
5, 3
4, 4
1, 1
6, 5
1, 4
2, 1
5, 2
5, 4
6, 2
6, 3
7, 4
6, 3
5, 2
4, 5
2, 2
4, 7
2, 8
10, 11
23, 16
44, 32
81, 101
194, 214
336, 398
535, 652
805, 913
969, 1044
1126, 1153
1003, 1070
812, 870
638, 605
392, 343
205, 190
112, 89
55, 47
55, 57
42, 55
63, 75
113, 112
138, 139
140, 188
140, 198
153, 129
133, 115
90, 74
71, 42
38, 32
18, 14
11, 12
8, 2
2, 4
3, 1
2, 3
5, 0
5, 5
3, 7
4, 5
12, 7
15, 16
12, 15
28, 18
25, 38
27, 32
17, 23
21, 19
20, 12
12, 14
17, 16
15, 12
13, 11
8, 6
5, 5
8, 7
7, 4
5, 7
8, 6
7, 6
5, 5
6, 7
11, 8
8, 11
4, 10
10, 13
6, 5
8, 8
8, 5
5, 3
9, 6
2, 3
5, 4
4, 3
6, 5
3, 13
9, 5
7, 13
11, 13
15, 28
34, 42
37, 44
45, 59
45, 48
48, 49
48, 49
38, 37
29, 21
16, 17
9, 8
5, 10
6, 13
1, 5
5, 7
4, 11
4, 5
3, 7
9, 16
14, 18
22, 28
28, 33
49, 34
35, 45
53, 52
60, 66
45, 53
37, 42
30, 33
30, 20
13, 28
18, 19
8, 15
12, 23
10, 17
14, 19
11, 32
37, 46
59, 87
130, 212
217, 291
400, 500
590, 731
818, 1071
1145, 1258
1252, 1400
1254, 1407
1274, 1304
1156, 1003
883, 777
657, 521
393, 337
266, 146
130, 83
84, 44
44, 31
32, 10
23, 11
11, 12
15, 6
8, 9
5, 9
10, 16
15, 15
13, 19
19, 23
18, 33
36, 41
49, 64
68, 94
107, 149
156, 188
156, 206
195, 239
179, 213
154, 198
152, 166
124, 126
79, 95
66, 47
34, 37
24, 16
15, 14
18, 5
11, 9
10, 7
11, 7
14, 3
22, 8
26, 5
37, 7
34, 8
32, 4
44, 6
22, 4
29, 6
16, 7
18, 4
12, 3
10, 3
8, 3
5, 4
4, 5
2, 7
5, 8
7, 8
2, 3
5, 6
2, 5
2, 8
2, 3
3, 3
8, 9
4, 4
8, 2
2, 4
4, 8
4, 5
6, 7
4, 5
3, 4
5, 4
6, 10
5, 9
6, 4
7, 8
5, 12
2, 5
8, 8
10, 12
9, 14
8, 18
9, 11
11, 13
5, 12
10, 9
5, 4
7, 15
5, 3
4, 10
5, 8
5, 7
4, 8
5, 4
10, 6
5, 6
7, 4
3, 6
3, 7
3, 3
6, 1
5, 7
7, 0
3, 4
2, 5
1, 5
5, 4
1, 3
5, 9
3, 3
4, 5
1, 6
2, 5
4, 4
4, 5
9, 5
10, 10
2, 6
7, 12
9, 11
10, 8
7, 6
7, 7
8, 4
5, 5
8, 4
4, 5
5, 8
4, 4
9, 4
4, 4
5, 5
2, 14
8, 10
7, 9
6, 9
5, 4
3, 11
3, 4
3, 11
1, 6
2, 8
6, 7
1, 5
4, 2
4, 1
4, 4
3, 3
4, 7
7, 3
3, 3
4, 4
7, 4
5, 3
6, 1
4, 2
4, 2
3, 1
4, 3
6, 3
2, 6
1, 2
3, 1
2, 6
4, 0
5, 1
1, 3
2, 5
1, 3
3, 1
1, 5
4, 3
1, 4
4, 7
2, 3
0, 5
3, 4
2, 4
3, 2
4, 1
3, 1
1, 5
3, 2
5, 4
3, 6
2, 2
4, 2
2, 3
3, 8
8, 3
3, 1
0, 6
3, 4
3, 5
2, 4
3, 1
5, 2
5, 2
8, 0
1, 3
3, 4
4, 5
3, 1
2, 6
1, 2
2, 12
1, 3
4, 5
3, 4
2, 3
5, 5
3, 6
3, 3
4, 6
2, 10
2, 8
3, 4
4, 7
3, 9
1, 9
0, 4
4, 2
0, 4
2, 2
3, 0
2, 3
0, 3
2, 1
2, 2
1, 3
4, 3
3, 2
2, 2
1, 5
3, 5
2, 0
2, 1
2, 2
4, 4
3, 1
6, 0
1, 2
4, 3
2, 0
2, 0
4, 1
0, 1
3, 1
1, 0
2, 2
3, 0
4, 1
1, 4
1, 1
0, 2
5, 3
2, 1
3, 1
1, 1
1, 5
1, 1
2, 3
2, 1
2, 1
2, 5
2, 1
6, 1
1, 1
3, 1
1, 1
0, 4
4, 2
0, 1
0, 4
5, 3
1, 1
0, 2
2, 1
2, 0
2, 0
0, 1
2, 1
2, 1
3, 1
3, 2
2, 2
2, 1
1, 0
2, 1
1, 5
0, 0
0, 2
2, 4
1, 2
1, 3
0, 1
0, 2
0, 1
1, 1
1, 1
1, 0
2, 0
1, 3
2, 1
2, 0
1, 0
2, 1
2, 0
1, 3
0, 0
1, 1
0, 2
3, 0
0, 0
2, 0
1, 2
1, 2
2, 0
0, 0
2, 1
1, 3
0, 2
2, 0
0, 1
2, 2
2, 1
0, 2
1, 0
0, 2
2, 3
0, 0
2, 0
0, 0
1, 1
1, 0
0, 0
0, 1
0, 0
1, 0
0, 2
0, 0
1, 1
1, 3
3, 2
1, 1
0, 1
2, 1
2, 1
0, 1
0, 1
0, 0
1, 0
2, 0
0, 0
2, 1
0, 1
1, 1
2, 1
1, 0
1, 0
3, 1
3, 1
1, 2
1, 0
0, 0
0, 0
3, 0
0, 0
1, 0
1, 0
1, 2
0, 3
1, 0
0, 0
0, 1
0, 0
0, 0
1, 1
1, 0
0, 0
0, 0
0, 0
0, 1
3, 1
0, 0
1, 0
0, 1
0, 0
0, 0
1, 1
1, 0
0, 1
0, 1
0, 0
0, 0
0, 0
0, 0
0, 0
1, 0
1, 0
1, 1
2, 0
1, 1
0, 1
1, 0
2, 2
1, 0
0, 0
2, 0
0, 0
0, 1
0, 0
0, 0
0, 0
0, 0
0, 0
1, 3
1, 0
0, 1
1, 1
0, 0
2, 0
0, 0
1, 0
0, 0
0, 0
1, 0
0, 0
0, 0
0, 0
0, 1
0, 1
0, 0
0, 0
1, 0
1, 0
0, 0
0, 0
0, 0
0, 1
0, 0
1, 1
0, 0
0, 0
0, 1
0, 1
0, 0
0, 0
0, 0
0, 1
1, 0
0, 0
0, 0
0, 0
2, 0
0, 0
0, 1
0, 1
0, 0
0, 0
1, 0
0, 2
1, 1
0, 1
0, 2
0, 0
0, 1
0, 1
0, 0
0, 0
0, 1
0, 0
0, 1
0, 0
0, 0
0, 2
0, 0
0, 0
0, 0
1, 0
0, 0
1, 0
0, 1
0, 0
0, 1
0, 2
0, 0
0, 0
0, 0
0, 0
0, 0
1, 0
1, 0
0, 1
0, 0
0, 0
0, 0
0, 0
0, 1
0, 0
0, 0
0, 1
0, 0
0, 0
0, 0
0, 0
0, 0
0, 0
0, 0
0, 0
0, 0
0, 0
0, 0
1, 0
1, 0
0, 0
1, 0
0, 0
0, 0
0, 0
0, 0
0, 0
0, 1
0, 0
1, 0
0, 0
0, 1
1, 0
0, 0
0, 0
0, 0
0, 0
0, 1
0, 0
1, 0
0, 0
0, 0
0, 1
1, 0
0, 0
0, 0
0, 1
0, 0
0, 0
0, 0
0, 0
0, 0
0, 0
0, 0
0, 0
0, 0
0, 0
0, 0
0, 0
0, 0
0, 0
0, 0
0, 0
0, 0
0, 0
0, 0
0, 0
0, 1
0, 0
0, 0
0, 0
0, 0
0, 0
0, 0
0, 0
2, 0
0, 0
0, 0
0, 0
0, 0
0, 0
2, 0
0, 0
0, 1
1, 0
0, 0
0, 1
0, 0
0, 0
0, 0
0, 0
1, 0
0, 0
0, 0
0, 0
0, 0
0, 0
0, 1
0, 0
0, 0
0, 0
0, 0
0, 0
0, 0
0, 0
0, 0
0, 0
0, 0
0, 0
0, 0
0, 0
0, 0
0, 0
0, 0
0, 0
0, 1
0, 0
0, 0
0, 0
0, 0
0, 0
0, 0
0, 1
0, 0
0, 0
0, 0
0, 0
0, 0
0, 0
0, 0
0, 0
0, 0
0, 0
0, 0
1, 0
0, 0
0, 0
0, 1
1, 0
0, 0
0, 0
0, 0
0, 0
0, 0
0, 0
0, 0
0, 0
0, 0
0, 0
0, 0
0, 0
0, 0
0, 0
0, 0
0, 0
0, 0
0, 0
0, 0
0, 0
0, 0
0, 0
0, 0
0, 0
0, 0
0, 0
0, 0
0, 0
0, 0
0, 0
0, 0
0, 0
0, 0
0, 0
0, 0
0, 0
0, 0
0, 0
0, 0
0, 0
0, 0
0, 0
0, 0
0, 0
0, 0
0, 0
0, 0
0, 0
0, 0
0, 0
0, 0
0, 0
0, 0
0, 0
0, 0
0, 0
0, 0
0, 0
0, 0
0, 0
0, 0
0, 0
0, 0
0, 0
0, 0
0, 0
0, 0
0, 0
0, 0
0, 0
0, 0
0, 0
0, 0
0, 0
0, 0
0, 0
0, 0
0, 0
0, 0
0, 0
0, 0
0, 0
0, 0
0, 0
0, 0
0, 0
0, 0
0, 0
0, 0
0, 0
0, 0
0, 0
0, 0
0, 0
0, 0
0, 0
0, 0
0, 0
0, 0
0, 0
0, 0
0, 0
0, 0
0, 0
0, 0
0, 0
0, 0
0, 0
0, 0
0, 0
0, 0
0, 0
0, 0
0, 0
0, 0
0, 0
0, 0
0, 0
0, 0
0, 0
0, 0
0, 0
0, 0
0, 0
0, 0
0, 0
0, 0
0, 0
0, 0
0, 0
0, 0
0, 0
0, 0
0, 0
0, 0
0, 0
0, 0
0, 0
0, 0
0, 0
0, 0
0, 0
0, 0
0, 0
0, 0
0, 0
0, 0
0, 0
0, 0
0, 0
0, 0
0, 0
0, 0
0, 0
0, 0
0, 0
0, 0
0, 0
0, 0
0, 0
0, 0
0, 0
0, 0
0, 0
0, 0
0, 0
0, 0
0, 0
0, 0
0, 0
0, 0
0, 0
0, 0
0, 0
0, 0
0, 0
0, 0
0, 0
0, 0
0, 0
0, 0
0, 0
0, 0
0, 0
0, 0
0, 0
0, 0
0, 0
0, 0
0, 0
0, 0
0, 0
0, 0
0, 0
0, 0
0, 0
0, 0
0, 0
0, 0
0, 0
0, 0
0, 0
0, 0
0, 0
0, 0
0, 0
0, 0
0, 0
0, 0
0, 0
0, 0
0, 0
0, 0
0, 0
0, 0
0, 0
0, 0
0, 0
0, 0
0, 0
0, 0
0, 0
0, 0
0, 0
0, 0
0, 0
0, 0
0, 0
0, 0
0, 0
0, 0
0, 0
0, 0
0, 0
0, 0
0, 0
0, 0
0, 0
0, 0
0, 0
0, 0
0, 0
0, 0
0, 0
0, 0
0, 0
0, 0
0, 0
0, 0
0, 0
0, 0
0, 0
0, 0
0, 0
0, 0
0, 0
0, 0
0, 0
0, 0
0, 0
0, 0
0, 0
0, 0
0, 0
0, 0
0, 0
0, 0
0, 0
0, 0
0, 0
0, 0
0, 0
0, 0
0, 0
0, 0
0, 0
0, 0
0, 0
0, 0
0, 0
0, 0
0, 0
0, 0
0, 0
0, 0
0, 0
0, 0
0, 0
0, 0
0, 0
0, 0
0, 0
0, 0
0, 0
0, 0
0, 0
0, 0
0, 0
0, 0
0, 0
0, 0
0, 0
0, 0
0, 0
0, 0
0, 0
0, 0
0, 0
0, 0
0, 0
0, 0
0, 0
0, 0
0, 0
0, 0
0, 0
0, 0
0, 0
0, 0
0, 0
0, 0
0, 0
0, 0
0, 0
0, 0
0, 0
0, 0
0, 0
0, 0
0, 0
0, 0
0, 0
0, 0
0, 0
0, 0
0, 0
0, 0
0, 0
0, 0
0, 0
0, 0
0, 0
0, 0
0, 0
0, 0
0, 0
0, 0
0, 0
0, 0
0, 0
0, 0
0, 0
0, 0
0, 0
0, 0
0, 0
0, 0
0, 0
0, 0
0, 0
0, 0
0, 0
0, 0
0, 0
0, 0
0, 0
0, 0
0, 0
0, 0
0, 0
0, 0
0, 0
0, 0
0, 0
0, 0
0, 0
0, 0
0, 0
0, 0
0, 0
0, 0
0, 0
0, 0
0, 0
0, 0
0, 0
0, 0
0, 0
0, 0
0, 0
0, 0
0, 0
0, 0
0, 0
0, 0
0, 0
0, 0
0, 0
0, 0
0, 0
0, 0
0, 0
0, 0
0, 0
0, 0
0, 0
0, 0
0, 0
0, 0
0, 0
0, 0
0, 0
0, 0
0, 0
0, 0
0, 0
0, 0
0, 0
0, 0
0, 0
0, 0
0, 0
0, 0
0, 0
0, 0
0, 0
0, 0
0, 0
0, 0
0, 0
0, 0
0, 0
0, 0
0, 0
0, 0
0, 0
0, 0
0, 0
0, 0
0, 0
0, 0
0, 0
0, 0
0, 0
0, 0
0, 0
0, 0
0, 0
0, 0
0, 0
0, 0
0, 0
0, 0
0, 0
0, 0
0, 0
#ENDOFDATA     end of spectrum data