File: host_upload/12-01-2023/Dourbes (shot-by-shot)/upload_4/ps__0257_0689790785_000rfs_shot_3017.msa
#FORMAT      : EMSA/MAS spectral data file
#VERSION     : TC202v2.0 PIXL
#TITLE       : N/A
#DATE        :       Date in the format DD-MMM-YYYY, for example 07-JUL-2010
#TIME        :             The time of day at which the spectrum was recorded, in 24-hour format
#OWNER       : PIXL Flight Model       (PIXL will use this to indicate which instrument took the data.)
#NPOINTS     : 4096     Number of data points in the spectrum (This can be zero for configuration only files)
#NCOLUMNS    : 2     Number of data columns in the spectrum (This can be zero for configuration only files)
#XUNITS      : eV
#YUNITS      : COUNTS
#DATATYPE    : YY
#XPERCHAN    : 7.862, 7.881   eV per channel (separate by commas if more than one detector)
#OFFSET      : 18.5, -22.4         eV of first channel  (separate by commas if more than one detector
#SIGNALTYPE  : XRF
#YP_TEMP     : 2.941
#LIVETIME    : 9.01142, 8.98862   seconds (separate by commas if more than one detector)
#REALTIME    : 10, 10.0   seconds (separate by commas if more than one detector)
#SPECTRUM    : start of spectrum data
0, 0
0, 0
0, 0
0, 0
0, 0
0, 0
0, 0
0, 0
0, 0
0, 0
0, 0
0, 0
0, 0
0, 0
0, 0
0, 0
0, 0
0, 0
0, 0
0, 0
0, 0
0, 0
0, 0
0, 0
0, 0
0, 0
0, 0
0, 0
0, 0
0, 0
0, 0
0, 2
0, 0
0, 0
0, 1
1, 0
0, 1
0, 0
1, 0
0, 0
1, 1
1, 0
2, 4
0, 1
0, 4
0, 0
0, 3
1, 1
5, 1
8, 7
17, 13
26, 20
36, 43
53, 46
57, 48
35, 40
42, 40
10, 21
13, 16
4, 7
5, 1
2, 2
2, 5
3, 0
2, 2
4, 3
8, 6
5, 3
8, 13
28, 36
74, 77
114, 146
256, 254
333, 420
431, 482
497, 495
393, 422
279, 304
171, 170
83, 108
55, 40
22, 27
18, 5
5, 6
4, 3
6, 9
2, 1
1, 3
3, 4
4, 1
7, 0
12, 1
24, 2
39, 0
49, 0
56, 1
57, 2
48, 3
38, 4
30, 1
10, 3
8, 2
5, 5
5, 3
2, 1
4, 3
2, 2
1, 2
4, 3
6, 6
7, 7
9, 13
22, 21
28, 15
30, 30
16, 29
37, 22
36, 22
21, 23
27, 13
21, 14
21, 16
19, 16
22, 10
16, 7
13, 12
8, 8
6, 7
5, 11
7, 8
2, 7
6, 1
2, 0
3, 1
3, 3
1, 2
0, 2
0, 3
1, 1
5, 3
1, 4
4, 1
1, 1
2, 1
1, 3
1, 3
0, 2
2, 5
2, 2
1, 2
1, 7
4, 7
6, 10
18, 9
17, 27
9, 39
17, 43
31, 55
14, 59
13, 64
23, 58
15, 47
2, 33
5, 15
8, 14
4, 9
3, 4
4, 6
3, 3
2, 8
8, 6
2, 7
2, 4
9, 3
4, 7
3, 5
2, 5
5, 6
0, 9
3, 5
1, 4
3, 0
4, 5
0, 3
4, 3
3, 3
2, 3
2, 5
2, 2
7, 8
8, 4
4, 7
7, 7
9, 10
13, 7
19, 20
21, 15
17, 16
16, 19
16, 25
14, 6
12, 19
9, 13
5, 10
4, 11
4, 5
4, 5
5, 4
8, 5
11, 8
14, 6
19, 6
12, 3
15, 8
14, 7
18, 8
16, 6
12, 6
6, 4
8, 3
5, 6
16, 9
14, 7
8, 11
16, 13
7, 24
6, 25
3, 34
11, 53
11, 98
13, 95
17, 136
8, 163
16, 155
10, 147
12, 139
19, 99
14, 77
11, 37
9, 32
10, 19
10, 20
10, 11
8, 19
12, 23
22, 41
37, 48
40, 64
62, 90
67, 88
94, 112
90, 104
75, 105
66, 86
50, 63
41, 35
26, 38
24, 23
11, 16
12, 19
23, 29
30, 37
38, 40
90, 106
163, 263
334, 456
627, 785
1029, 1335
1692, 2066
2340, 2807
3014, 3588
3635, 3939
3756, 3979
3671, 3653
3193, 3018
2373, 2232
1741, 1541
1115, 972
667, 533
351, 256
181, 135
99, 65
48, 37
30, 23
22, 18
27, 12
25, 14
23, 13
23, 21
28, 27
26, 27
47, 51
65, 69
97, 111
144, 182
232, 249
288, 362
350, 412
451, 511
567, 565
571, 537
464, 510
416, 432
330, 283
228, 220
141, 140
98, 81
47, 33
25, 19
13, 7
4, 5
6, 2
5, 5
2, 7
4, 8
9, 11
8, 15
3, 22
3, 10
5, 10
6, 5
2, 11
4, 4
4, 3
5, 9
5, 4
2, 3
3, 4
3, 1
7, 1
7, 4
5, 3
5, 3
6, 2
4, 1
2, 5
0, 4
2, 0
0, 4
3, 4
5, 6
5, 7
5, 5
7, 4
6, 0
4, 5
8, 2
1, 6
1, 2
2, 4
2, 7
5, 3
4, 4
3, 3
0, 1
2, 1
5, 4
8, 1
0, 1
2, 2
3, 4
4, 3
1, 3
3, 4
5, 1
6, 2
2, 8
3, 2
1, 3
8, 7
1, 6
4, 8
1, 9
4, 8
2, 15
1, 9
5, 8
4, 7
1, 1
2, 4
5, 3
6, 4
1, 2
2, 5
8, 3
3, 3
2, 5
4, 7
5, 3
4, 4
4, 3
0, 7
2, 2
1, 6
6, 4
5, 7
0, 1
2, 3
1, 6
4, 5
0, 4
5, 6
2, 2
2, 4
3, 2
1, 3
2, 10
2, 7
4, 2
1, 5
5, 7
1, 6
2, 2
1, 4
1, 2
1, 2
2, 0
2, 1
3, 0
1, 0
5, 1
5, 0
5, 1
2, 2
3, 0
2, 3
4, 2
0, 2
2, 0
2, 2
1, 0
3, 2
2, 3
2, 6
1, 1
1, 1
1, 2
3, 0
0, 1
0, 1
0, 2
1, 3
3, 1
1, 6
0, 1
1, 1
3, 0
1, 4
3, 3
1, 2
3, 1
1, 2
3, 2
3, 2
2, 2
1, 4
1, 4
1, 5
2, 5
1, 6
3, 6
0, 8
1, 3
0, 14
0, 12
2, 15
2, 13
1, 12
4, 10
2, 5
2, 5
3, 4
2, 3
2, 4
1, 4
1, 1
5, 2
5, 2
4, 1
4, 5
2, 1
3, 2
1, 2
2, 2
3, 2
0, 1
3, 2
1, 3
1, 0
0, 2
1, 1
2, 0
0, 1
1, 1
2, 3
3, 1
2, 3
3, 2
1, 3
0, 1
2, 2
1, 1
3, 2
2, 2
1, 2
2, 2
0, 1
2, 5
4, 4
6, 5
3, 0
3, 1
2, 1
0, 7
1, 2
0, 3
1, 0
1, 1
1, 2
3, 1
3, 1
1, 5
4, 2
6, 5
4, 5
4, 4
4, 4
7, 4
1, 2
4, 1
4, 1
0, 0
1, 0
4, 0
0, 2
4, 4
4, 2
2, 9
3, 4
3, 11
3, 5
4, 8
3, 5
5, 7
7, 3
8, 2
4, 4
1, 3
11, 3
1, 2
2, 3
3, 3
0, 1
1, 1
2, 1
0, 0
0, 1
2, 0
0, 2
1, 4
3, 1
1, 3
1, 0
1, 3
1, 4
1, 4
2, 1
2, 0
1, 3
4, 0
4, 2
2, 4
1, 1
4, 2
1, 1
0, 2
0, 1
1, 0
2, 0
1, 0
1, 1
0, 0
2, 0
1, 1
4, 2
0, 1
0, 2
0, 1
1, 1
0, 1
0, 0
0, 1
0, 0
2, 1
1, 0
0, 1
0, 2
0, 1
0, 0
0, 0
0, 0
0, 2
0, 2
1, 3
0, 0
0, 0
3, 1
0, 1
1, 1
0, 0
0, 2
0, 1
0, 2
2, 0
2, 0
0, 1
1, 1
0, 0
0, 1
1, 1
0, 1
1, 1
0, 0
0, 1
1, 1
1, 1
0, 3
0, 1
1, 1
2, 2
2, 0
1, 2
1, 0
0, 1
1, 2
1, 1
2, 1
0, 0
2, 1
0, 0
0, 1
0, 0
0, 2
1, 1
0, 0
0, 0
1, 2
0, 0
1, 1
0, 3
3, 1
0, 2
1, 0
0, 1
0, 1
0, 1
3, 0
1, 0
1, 0
1, 0
2, 0
1, 0
0, 1
0, 1
1, 0
2, 1
0, 1
1, 1
1, 1
0, 2
0, 0
0, 2
2, 0
0, 0
1, 2
0, 0
0, 1
0, 0
0, 0
0, 0
1, 1
0, 1
0, 0
2, 1
0, 0
1, 0
0, 1
0, 1
0, 0
0, 0
1, 0
0, 0
1, 2
1, 0
1, 1
1, 1
0, 1
0, 0
0, 0
0, 0
1, 1
1, 0
0, 0
0, 0
1, 1
0, 0
0, 0
0, 0
0, 1
0, 1
0, 1
1, 0
1, 0
0, 0
1, 0
1, 1
0, 0
0, 1
0, 0
0, 0
0, 0
0, 1
0, 0
0, 0
0, 0
0, 0
0, 0
0, 0
0, 0
0, 0
0, 0
0, 1
0, 1
0, 0
0, 0
0, 0
1, 0
0, 1
0, 0
0, 0
0, 0
1, 0
1, 0
1, 0
1, 0
0, 2
0, 1
0, 0
1, 0
1, 2
0, 0
0, 0
0, 0
2, 1
0, 1
0, 1
1, 0
0, 0
0, 0
0, 0
0, 0
0, 0
0, 0
0, 0
0, 0
0, 1
0, 0
0, 0
0, 0
0, 0
0, 0
0, 0
0, 0
0, 0
0, 1
0, 0
0, 1
0, 0
0, 0
0, 0
0, 0
0, 0
0, 0
0, 0
0, 1
0, 1
0, 0
0, 0
0, 0
0, 1
0, 1
0, 0
0, 0
0, 0
0, 0
0, 1
0, 0
1, 1
0, 0
0, 1
0, 0
0, 0
0, 0
0, 0
0, 0
1, 0
0, 0
0, 0
1, 0
0, 0
0, 0
0, 0
1, 0
0, 0
0, 0
0, 1
0, 0
0, 0
0, 0
0, 1
1, 0
0, 0
0, 0
0, 0
0, 1
0, 0
0, 0
0, 0
0, 0
1, 0
0, 0
0, 0
0, 0
0, 0
0, 0
0, 2
0, 0
0, 0
0, 0
0, 0
0, 0
1, 0
0, 0
0, 0
0, 0
0, 0
0, 0
0, 2
0, 1
1, 0
1, 0
0, 1
0, 0
0, 0
0, 0
0, 0
0, 0
0, 0
0, 0
0, 0
0, 0
0, 0
0, 0
0, 0
0, 0
0, 0
0, 0
0, 0
0, 0
0, 0
0, 1
0, 0
0, 0
0, 0
0, 0
0, 0
0, 0
0, 1
0, 0
0, 0
0, 0
0, 0
0, 1
0, 0
0, 0
0, 0
0, 0
0, 0
0, 0
0, 0
0, 0
1, 0
0, 1
0, 0
0, 0
0, 0
0, 0
0, 0
0, 0
0, 0
1, 0
1, 0
0, 0
0, 0
0, 0
0, 0
0, 0
0, 0
0, 0
0, 0
0, 0
0, 0
0, 0
0, 0
0, 0
0, 0
0, 0
0, 0
1, 0
0, 0
0, 0
0, 0
1, 0
0, 0
0, 0
0, 0
0, 1
0, 0
0, 0
0, 0
0, 0
0, 0
0, 0
0, 0
0, 0
0, 0
0, 0
0, 0
0, 0
0, 0
0, 0
0, 0
0, 0
0, 0
0, 0
0, 0
0, 0
0, 0
0, 0
0, 0
0, 0
0, 0
0, 0
0, 0
0, 0
0, 0
0, 0
0, 0
0, 0
0, 0
0, 0
0, 0
0, 0
0, 0
0, 0
0, 0
1, 0
0, 0
0, 0
0, 0
0, 0
0, 0
0, 0
0, 0
0, 0
0, 0
0, 0
0, 0
0, 0
0, 0
0, 0
0, 0
0, 0
0, 0
1, 0
0, 0
0, 0
0, 0
0, 0
0, 0
0, 0
0, 0
0, 0
0, 0
0, 0
0, 0
0, 0
0, 0
0, 0
0, 0
0, 0
0, 0
0, 0
0, 0
0, 0
0, 0
0, 0
0, 0
0, 0
0, 0
0, 0
0, 0
0, 0
0, 0
0, 0
0, 0
0, 0
0, 0
0, 0
0, 0
0, 0
0, 0
1, 0
0, 0
0, 0
0, 0
0, 0
0, 0
0, 0
0, 0
0, 0
0, 0
0, 0
0, 0
0, 0
0, 0
0, 0
0, 0
0, 0
0, 0
0, 0
0, 0
0, 0
0, 0
0, 0
0, 0
0, 0
0, 0
0, 0
0, 0
0, 0
0, 0
0, 0
0, 0
0, 0
0, 0
0, 0
0, 0
0, 0
0, 0
0, 0
0, 0
0, 0
0, 0
0, 0
0, 0
0, 0
0, 0
0, 0
0, 0
0, 0
0, 0
0, 0
0, 0
0, 0
0, 0
0, 0
0, 0
0, 0
0, 0
0, 0
0, 0
0, 0
0, 0
0, 0
0, 0
0, 0
0, 0
0, 0
0, 0
0, 0
0, 0
0, 0
0, 0
0, 0
0, 0
0, 0
0, 0
0, 0
0, 0
0, 0
0, 0
0, 0
0, 0
0, 0
0, 0
0, 0
0, 0
0, 0
0, 0
0, 0
0, 0
0, 0
0, 0
0, 0
0, 0
0, 0
0, 0
0, 0
0, 0
0, 0
0, 0
0, 0
0, 0
0, 0
0, 0
0, 0
0, 0
0, 0
0, 0
0, 0
0, 0
0, 0
0, 0
0, 0
0, 0
0, 0
0, 0
0, 0
0, 0
0, 0
0, 0
0, 0
0, 0
0, 0
0, 0
0, 0
0, 0
0, 0
0, 0
0, 0
0, 0
0, 0
0, 0
0, 0
0, 0
0, 0
0, 0
0, 0
0, 0
0, 0
0, 0
0, 0
0, 0
0, 0
0, 0
0, 0
0, 0
0, 0
0, 0
0, 0
0, 0
0, 0
0, 0
0, 0
0, 0
0, 0
0, 0
0, 0
0, 0
0, 0
0, 0
0, 0
0, 0
0, 0
0, 0
0, 0
0, 0
0, 0
0, 0
0, 0
0, 0
0, 0
0, 0
0, 0
0, 0
0, 0
0, 0
0, 0
0, 0
0, 0
0, 0
0, 0
0, 0
0, 0
0, 0
0, 0
0, 0
0, 0
0, 0
0, 0
0, 0
0, 0
0, 0
0, 0
0, 0
0, 0
0, 0
0, 0
0, 0
0, 0
0, 0
0, 0
0, 0
0, 0
0, 0
0, 0
0, 0
0, 0
0, 0
0, 0
0, 0
0, 0
0, 0
0, 0
0, 0
0, 0
0, 0
0, 0
0, 0
0, 0
0, 0
0, 0
0, 0
0, 0
0, 0
0, 0
0, 0
0, 0
0, 0
0, 0
0, 0
0, 0
0, 0
0, 0
0, 0
0, 0
0, 0
0, 0
0, 0
0, 0
0, 0
0, 0
0, 0
0, 0
0, 0
0, 0
0, 0
0, 0
0, 0
0, 0
0, 0
0, 0
0, 0
0, 0
0, 0
0, 0
0, 0
0, 0
0, 0
0, 0
0, 0
0, 0
0, 0
0, 0
0, 0
0, 0
0, 0
0, 0
0, 0
0, 0
0, 0
0, 0
0, 0
0, 0
0, 0
0, 0
0, 0
0, 0
0, 0
0, 0
0, 0
0, 0
0, 0
0, 0
0, 0
0, 0
0, 0
0, 0
0, 0
0, 0
0, 0
0, 0
0, 0
0, 0
0, 0
0, 0
0, 0
0, 0
0, 0
0, 0
0, 0
0, 0
0, 0
0, 0
0, 0
0, 0
0, 0
0, 0
0, 0
0, 0
0, 0
0, 0
0, 0
0, 0
0, 0
0, 0
0, 0
0, 0
0, 0
0, 0
0, 0
0, 0
0, 0
0, 0
0, 0
0, 0
0, 0
0, 0
0, 0
0, 0
0, 0
0, 0
0, 0
0, 0
0, 0
0, 0
0, 0
0, 0
0, 0
0, 0
0, 0
0, 0
0, 0
0, 0
0, 0
#ENDOFDATA     end of spectrum data