File: host_upload/12-01-2023/Dourbes (shot-by-shot)/upload_4/ps__0257_0689790785_000rfs_shot_3176.msa
#FORMAT      : EMSA/MAS spectral data file
#VERSION     : TC202v2.0 PIXL
#TITLE       : N/A
#DATE        :       Date in the format DD-MMM-YYYY, for example 07-JUL-2010
#TIME        :             The time of day at which the spectrum was recorded, in 24-hour format
#OWNER       : PIXL Flight Model       (PIXL will use this to indicate which instrument took the data.)
#NPOINTS     : 4096     Number of data points in the spectrum (This can be zero for configuration only files)
#NCOLUMNS    : 2     Number of data columns in the spectrum (This can be zero for configuration only files)
#XUNITS      : eV
#YUNITS      : COUNTS
#DATATYPE    : YY
#XPERCHAN    : 7.862, 7.881   eV per channel (separate by commas if more than one detector)
#OFFSET      : 18.5, -22.4         eV of first channel  (separate by commas if more than one detector
#SIGNALTYPE  : XRF
#YP_TEMP     : 3.005
#LIVETIME    : 9.00716, 9.00119   seconds (separate by commas if more than one detector)
#REALTIME    : 10, 10.0   seconds (separate by commas if more than one detector)
#SPECTRUM    : start of spectrum data
0, 0
0, 0
0, 0
0, 0
0, 0
0, 0
0, 0
0, 0
0, 0
0, 0
0, 0
0, 0
0, 0
0, 0
0, 0
0, 0
0, 0
0, 0
0, 0
0, 0
0, 0
0, 0
0, 0
0, 0
0, 0
0, 0
0, 0
0, 0
0, 0
0, 0
0, 0
0, 0
0, 0
0, 0
0, 0
2, 0
0, 0
2, 0
1, 0
3, 4
0, 1
2, 0
3, 2
1, 2
1, 3
2, 3
1, 2
3, 0
3, 3
6, 8
16, 14
18, 22
41, 27
55, 62
59, 50
48, 48
28, 38
25, 25
13, 15
8, 5
2, 2
3, 2
7, 3
8, 7
11, 8
4, 3
4, 5
12, 12
14, 11
29, 26
69, 88
146, 163
276, 284
424, 465
473, 476
524, 476
380, 404
293, 291
166, 191
116, 112
53, 41
30, 27
8, 15
4, 6
7, 2
3, 1
5, 4
0, 2
4, 4
0, 6
0, 4
0, 1
1, 0
3, 3
4, 2
3, 1
5, 10
6, 6
9, 5
5, 4
8, 5
3, 7
2, 6
8, 7
5, 5
6, 4
5, 9
10, 8
12, 12
15, 10
15, 30
33, 38
45, 32
48, 43
33, 61
52, 46
46, 34
26, 30
30, 20
31, 21
18, 29
24, 26
25, 18
25, 21
9, 19
13, 13
14, 14
9, 11
9, 10
7, 9
7, 3
6, 1
6, 1
3, 1
2, 2
2, 4
10, 2
2, 5
1, 3
3, 5
6, 1
4, 7
3, 6
4, 4
2, 1
3, 4
4, 1
0, 1
2, 3
1, 2
4, 9
7, 8
12, 15
16, 26
33, 32
37, 28
42, 44
47, 51
37, 40
34, 33
30, 35
19, 21
22, 17
12, 19
11, 32
23, 30
16, 43
19, 56
34, 44
36, 39
28, 36
31, 29
33, 16
18, 14
15, 10
3, 9
8, 8
6, 10
4, 4
8, 8
6, 7
4, 7
2, 3
5, 5
9, 3
2, 6
1, 1
7, 9
10, 9
13, 9
6, 8
10, 13
18, 10
13, 12
19, 14
13, 18
14, 16
21, 17
25, 16
18, 26
11, 14
12, 12
14, 7
6, 12
14, 6
6, 6
10, 8
8, 9
8, 11
10, 18
11, 15
10, 22
10, 15
6, 17
3, 8
5, 11
4, 11
7, 7
9, 8
4, 5
9, 12
4, 9
8, 6
5, 14
10, 16
13, 3
12, 16
16, 8
15, 24
13, 18
22, 19
10, 10
18, 11
13, 13
18, 10
12, 14
20, 10
19, 8
19, 10
19, 10
6, 4
12, 10
14, 9
10, 14
20, 28
24, 29
34, 38
56, 55
65, 87
76, 108
105, 113
116, 117
103, 88
78, 66
62, 64
41, 42
37, 29
35, 21
36, 20
22, 25
53, 30
42, 32
68, 48
100, 134
214, 222
354, 404
644, 843
1055, 1340
1677, 2029
2375, 2848
3045, 3491
3667, 4003
3940, 3919
3670, 3605
3112, 3015
2393, 2156
1737, 1416
1098, 898
623, 481
316, 244
147, 122
77, 59
43, 28
30, 25
13, 15
11, 12
18, 18
16, 16
18, 28
20, 29
32, 51
37, 55
49, 67
87, 118
166, 170
203, 293
318, 355
373, 441
505, 537
521, 572
576, 566
519, 481
423, 395
311, 280
226, 190
160, 115
85, 63
58, 39
21, 26
11, 8
6, 8
5, 4
8, 4
3, 10
5, 10
4, 8
8, 12
12, 8
2, 9
3, 7
2, 9
6, 6
5, 5
4, 6
4, 7
4, 3
5, 8
4, 2
4, 3
5, 6
4, 11
3, 11
3, 22
3, 12
5, 10
4, 10
7, 10
1, 12
0, 14
3, 9
5, 3
5, 1
3, 0
10, 5
4, 2
6, 3
7, 5
1, 5
4, 5
4, 2
4, 2
3, 5
2, 5
5, 4
6, 7
7, 9
0, 6
2, 8
6, 11
1, 9
4, 7
2, 5
2, 8
6, 6
1, 9
7, 3
2, 1
2, 3
2, 0
6, 1
2, 3
3, 3
2, 3
3, 7
2, 2
2, 4
3, 5
3, 4
1, 5
2, 5
3, 7
5, 9
3, 8
6, 3
3, 2
2, 4
1, 4
2, 3
4, 4
0, 4
2, 3
2, 1
5, 3
1, 3
1, 3
0, 2
2, 6
1, 3
5, 2
3, 3
5, 3
5, 3
4, 3
6, 5
7, 5
2, 1
10, 2
10, 1
7, 3
7, 4
5, 4
2, 1
0, 2
2, 0
3, 3
4, 3
1, 3
1, 5
5, 3
3, 5
6, 6
2, 2
5, 5
3, 3
5, 5
2, 1
5, 2
4, 2
1, 1
5, 1
2, 2
5, 2
5, 2
4, 1
6, 5
14, 3
4, 1
9, 6
9, 6
11, 3
16, 4
5, 1
5, 4
2, 3
2, 3
2, 7
6, 2
4, 3
2, 0
1, 2
2, 1
3, 0
2, 2
1, 4
0, 3
1, 2
2, 1
2, 3
2, 5
0, 9
3, 4
0, 10
3, 8
3, 2
1, 5
2, 3
2, 8
2, 6
3, 3
2, 5
1, 2
4, 0
3, 1
2, 0
2, 2
5, 2
3, 1
2, 1
0, 2
1, 2
2, 1
0, 1
2, 1
3, 0
3, 4
0, 4
1, 1
0, 1
4, 1
2, 2
1, 3
1, 3
1, 0
0, 2
0, 1
2, 1
1, 2
0, 4
0, 0
0, 3
2, 4
0, 4
0, 1
4, 4
5, 0
5, 0
3, 3
2, 1
3, 1
5, 3
1, 2
3, 2
1, 2
3, 0
0, 0
4, 2
1, 3
1, 2
4, 2
2, 0
0, 2
2, 1
2, 2
1, 3
3, 4
4, 3
2, 1
2, 4
5, 1
1, 1
0, 5
1, 4
4, 3
3, 2
2, 0
7, 1
6, 5
3, 5
5, 3
4, 4
3, 8
4, 7
8, 2
6, 5
10, 7
8, 3
3, 4
4, 4
5, 1
3, 8
3, 2
3, 3
1, 0
1, 2
0, 4
0, 2
1, 0
0, 1
0, 3
1, 2
0, 1
2, 2
0, 1
0, 3
0, 2
2, 0
0, 4
1, 0
2, 2
5, 2
2, 5
3, 2
1, 2
2, 2
0, 1
1, 0
2, 2
0, 2
0, 3
0, 1
1, 0
1, 1
1, 0
0, 2
2, 0
1, 0
0, 1
2, 1
1, 0
2, 0
2, 2
0, 1
1, 3
1, 2
0, 1
1, 2
0, 0
2, 2
1, 2
1, 0
4, 0
3, 0
2, 0
1, 1
3, 1
2, 0
3, 1
2, 0
2, 1
4, 1
2, 2
3, 1
6, 1
1, 0
0, 0
2, 0
2, 1
1, 0
1, 1
1, 0
2, 1
1, 1
0, 0
0, 2
0, 0
0, 0
0, 2
1, 0
0, 0
0, 1
0, 1
1, 0
0, 0
0, 0
3, 0
2, 0
0, 1
0, 1
0, 0
1, 0
0, 0
0, 1
0, 1
1, 1
0, 0
0, 0
1, 2
2, 0
1, 0
0, 1
0, 1
0, 2
1, 0
1, 0
0, 0
0, 1
0, 0
0, 0
0, 1
2, 1
0, 1
1, 0
0, 0
1, 0
0, 2
0, 0
1, 1
0, 0
0, 0
0, 0
0, 0
1, 0
0, 0
0, 0
0, 1
1, 0
0, 0
0, 0
1, 0
0, 0
1, 1
0, 2
1, 0
0, 0
0, 0
0, 0
0, 0
0, 0
0, 1
0, 0
1, 0
1, 1
0, 0
0, 1
2, 0
0, 0
0, 0
0, 0
0, 0
2, 0
0, 0
0, 1
0, 0
0, 1
0, 0
1, 0
0, 0
0, 1
1, 1
1, 1
1, 0
0, 0
1, 0
1, 1
1, 0
0, 0
0, 0
0, 1
1, 0
0, 0
0, 1
0, 1
0, 0
0, 0
0, 1
0, 3
0, 0
0, 0
0, 0
0, 0
0, 0
0, 1
1, 0
0, 0
0, 1
0, 0
0, 0
0, 0
0, 1
0, 0
1, 0
0, 0
1, 0
0, 0
1, 0
1, 0
1, 0
1, 0
0, 0
0, 0
0, 2
0, 0
0, 0
0, 0
1, 0
0, 0
0, 0
0, 0
1, 1
0, 0
0, 0
0, 0
0, 0
0, 0
0, 0
0, 1
1, 0
1, 0
0, 0
0, 1
0, 0
1, 0
0, 0
0, 0
0, 0
0, 0
0, 0
0, 0
0, 0
0, 0
0, 0
0, 0
0, 0
0, 0
0, 0
0, 0
0, 0
0, 1
2, 0
0, 1
0, 0
1, 0
0, 0
0, 1
0, 0
0, 0
0, 0
0, 0
0, 0
0, 1
0, 0
0, 1
0, 0
0, 0
0, 0
1, 1
0, 0
0, 0
0, 0
0, 0
1, 0
0, 0
0, 0
0, 0
0, 0
1, 0
1, 0
0, 0
0, 0
1, 0
0, 0
0, 0
0, 0
0, 0
0, 0
0, 0
0, 0
0, 0
0, 0
0, 0
0, 0
0, 0
0, 0
0, 1
0, 0
0, 0
0, 0
0, 0
0, 0
1, 0
0, 0
0, 0
0, 0
0, 0
0, 0
0, 0
0, 0
0, 0
0, 0
0, 0
0, 0
0, 0
0, 0
0, 1
0, 0
0, 0
0, 0
0, 0
0, 0
0, 1
0, 0
0, 0
0, 0
0, 0
0, 0
0, 0
0, 0
0, 1
0, 0
0, 0
0, 0
0, 0
0, 0
1, 0
0, 0
0, 0
1, 0
0, 0
0, 0
0, 1
0, 0
0, 1
0, 0
0, 0
0, 0
0, 0
0, 0
0, 0
0, 0
0, 0
0, 0
0, 0
0, 0
0, 0
0, 0
0, 0
0, 0
0, 0
0, 0
1, 0
0, 0
0, 0
0, 0
0, 0
0, 0
0, 0
0, 0
0, 0
0, 0
0, 0
0, 0
0, 0
0, 0
0, 0
0, 0
0, 0
0, 0
0, 0
0, 0
0, 0
0, 0
0, 0
0, 0
0, 0
0, 0
0, 0
1, 0
0, 0
0, 0
0, 0
0, 0
0, 0
0, 0
0, 0
0, 0
0, 0
0, 0
0, 0
0, 0
0, 0
0, 0
0, 0
0, 0
0, 0
0, 0
0, 0
0, 0
0, 0
0, 0
0, 0
0, 0
0, 0
0, 0
0, 0
0, 0
0, 0
0, 0
0, 0
0, 0
0, 0
0, 0
0, 0
0, 0
0, 0
0, 0
0, 0
0, 1
0, 0
0, 0
0, 0
0, 0
0, 0
0, 0
0, 0
0, 0
0, 0
0, 0
1, 0
0, 0
0, 0
0, 1
0, 0
0, 0
0, 0
0, 0
0, 0
0, 0
0, 0
0, 0
0, 0
0, 0
0, 0
0, 0
0, 0
0, 0
0, 0
0, 0
0, 0
0, 0
0, 0
0, 0
0, 0
0, 0
0, 0
0, 0
0, 0
0, 0
0, 0
0, 0
0, 0
0, 0
0, 0
0, 0
0, 0
0, 0
0, 0
0, 0
0, 0
0, 0
0, 0
0, 0
0, 0
0, 0
0, 0
0, 0
0, 0
0, 0
0, 0
0, 0
0, 1
0, 0
0, 0
0, 0
0, 0
0, 0
0, 0
0, 0
0, 0
0, 0
0, 0
0, 0
0, 0
0, 0
0, 0
0, 0
0, 0
0, 0
0, 0
0, 0
0, 0
0, 0
0, 0
0, 0
0, 0
0, 0
0, 0
0, 0
0, 0
0, 0
0, 0
0, 0
0, 0
0, 0
0, 0
0, 0
0, 0
0, 0
0, 0
0, 0
0, 0
0, 0
0, 0
0, 0
0, 0
0, 0
0, 0
0, 0
0, 0
0, 0
0, 0
0, 0
0, 0
0, 0
0, 0
0, 0
0, 0
0, 0
0, 0
0, 0
0, 0
0, 0
0, 0
0, 0
0, 0
0, 0
0, 0
0, 0
0, 0
0, 0
0, 0
0, 0
0, 0
0, 0
0, 0
0, 0
0, 0
0, 0
0, 0
0, 0
0, 0
0, 0
0, 0
0, 0
0, 0
0, 0
0, 0
0, 0
0, 0
0, 0
0, 0
0, 0
0, 0
0, 0
0, 0
0, 0
0, 0
0, 0
0, 0
0, 0
0, 0
0, 0
0, 0
0, 0
0, 0
0, 0
0, 0
0, 0
0, 0
0, 0
0, 0
0, 0
0, 0
0, 0
0, 0
0, 0
0, 0
0, 0
0, 0
0, 0
0, 0
0, 0
0, 0
0, 0
0, 0
0, 0
0, 0
0, 0
0, 0
0, 0
0, 0
0, 0
0, 0
0, 0
0, 0
0, 0
0, 0
0, 0
0, 0
0, 0
0, 0
0, 0
0, 0
0, 0
0, 0
0, 0
0, 0
0, 0
0, 0
0, 0
0, 0
0, 0
0, 0
0, 0
0, 0
0, 0
0, 0
0, 0
0, 0
0, 0
0, 0
0, 0
0, 0
0, 0
0, 0
0, 0
0, 0
0, 0
0, 0
0, 0
0, 0
0, 0
0, 0
0, 0
0, 0
0, 0
0, 0
0, 0
0, 0
0, 0
0, 0
0, 0
0, 0
0, 0
0, 0
0, 0
0, 0
0, 0
0, 0
0, 0
0, 0
0, 0
0, 0
0, 0
0, 0
0, 0
0, 0
0, 0
0, 0
0, 0
0, 0
0, 0
0, 0
0, 0
0, 0
0, 0
0, 0
0, 0
0, 0
0, 0
0, 0
0, 0
0, 0
0, 0
0, 0
0, 0
0, 0
0, 0
0, 0
0, 0
0, 0
0, 0
0, 0
0, 0
0, 0
0, 0
0, 0
0, 0
0, 0
0, 0
0, 0
0, 0
0, 0
0, 0
0, 0
0, 0
0, 0
0, 0
0, 0
0, 0
0, 0
0, 0
0, 0
0, 0
0, 0
0, 0
0, 0
0, 0
0, 0
0, 0
0, 0
0, 0
0, 0
0, 0
0, 0
0, 0
0, 0
0, 0
0, 0
0, 0
0, 0
0, 0
0, 0
0, 0
0, 0
0, 0
0, 0
0, 0
0, 0
0, 0
0, 0
0, 0
0, 0
0, 0
0, 0
0, 0
0, 0
0, 0
0, 0
0, 0
0, 0
0, 0
0, 0
0, 0
0, 0
0, 0
0, 0
0, 0
0, 0
0, 0
0, 0
0, 0
0, 0
0, 0
0, 0
0, 0
0, 0
0, 0
0, 0
0, 0
0, 0
0, 0
0, 0
0, 0
0, 0
0, 0
0, 0
0, 0
0, 0
0, 0
0, 0
0, 0
0, 0
0, 0
0, 0
0, 0
0, 0
0, 0
0, 0
0, 0
0, 0
0, 0
0, 0
0, 0
0, 0
0, 0
0, 0
0, 0
0, 0
0, 0
0, 0
0, 0
0, 0
0, 0
0, 0
0, 0
0, 0
#ENDOFDATA     end of spectrum data