File: host_upload/12-01-2023/Dourbes (shot-by-shot)/upload_4/ps__0257_0689790785_000rfs_shot_3056.msa
#FORMAT      : EMSA/MAS spectral data file
#VERSION     : TC202v2.0 PIXL
#TITLE       : N/A
#DATE        :       Date in the format DD-MMM-YYYY, for example 07-JUL-2010
#TIME        :             The time of day at which the spectrum was recorded, in 24-hour format
#OWNER       : PIXL Flight Model       (PIXL will use this to indicate which instrument took the data.)
#NPOINTS     : 4096     Number of data points in the spectrum (This can be zero for configuration only files)
#NCOLUMNS    : 2     Number of data columns in the spectrum (This can be zero for configuration only files)
#XUNITS      : eV
#YUNITS      : COUNTS
#DATATYPE    : YY
#XPERCHAN    : 7.862, 7.881   eV per channel (separate by commas if more than one detector)
#OFFSET      : 18.5, -22.4         eV of first channel  (separate by commas if more than one detector
#SIGNALTYPE  : XRF
#YP_TEMP     : 2.877
#LIVETIME    : 8.98617, 9.02293   seconds (separate by commas if more than one detector)
#REALTIME    : 10, 10.0   seconds (separate by commas if more than one detector)
#SPECTRUM    : start of spectrum data
0, 0
0, 0
0, 0
0, 0
0, 0
0, 0
0, 0
0, 0
0, 0
0, 0
0, 0
0, 0
0, 0
0, 0
0, 0
0, 0
0, 0
0, 0
0, 0
0, 0
0, 0
0, 0
0, 0
0, 0
0, 0
0, 0
0, 0
0, 0
0, 0
0, 0
0, 0
0, 0
0, 1
1, 1
0, 1
6, 2
2, 1
9, 1
6, 1
17, 3
19, 4
25, 3
15, 4
26, 1
15, 1
8, 1
6, 4
4, 2
5, 4
6, 6
9, 8
13, 19
23, 25
43, 32
37, 44
28, 45
24, 23
15, 19
13, 7
7, 10
13, 7
16, 14
7, 17
28, 29
25, 21
20, 32
18, 20
23, 21
26, 16
51, 46
104, 116
195, 177
372, 366
509, 478
644, 623
617, 618
572, 539
376, 415
222, 210
150, 125
59, 59
36, 29
19, 15
13, 16
6, 7
12, 9
9, 6
6, 9
6, 8
1, 6
3, 2
2, 9
11, 5
11, 13
19, 19
30, 30
61, 60
70, 83
84, 94
92, 87
72, 82
64, 59
41, 36
29, 22
20, 17
20, 15
23, 20
49, 31
77, 49
151, 85
273, 131
490, 166
764, 177
1019, 185
1416, 205
1471, 157
1403, 116
1136, 95
793, 76
475, 55
268, 53
167, 51
84, 41
56, 34
35, 25
28, 29
16, 24
19, 19
22, 22
10, 11
10, 9
9, 8
8, 7
6, 9
5, 7
4, 5
11, 12
10, 17
12, 23
16, 17
11, 24
27, 31
30, 24
13, 21
14, 15
11, 9
8, 6
7, 3
6, 8
5, 6
8, 10
12, 13
23, 17
28, 36
45, 58
54, 64
56, 68
79, 79
65, 60
50, 66
50, 50
34, 28
17, 26
10, 17
2, 7
10, 11
5, 10
8, 11
13, 9
18, 19
13, 17
23, 15
11, 20
16, 18
17, 13
12, 14
14, 8
8, 6
9, 7
7, 5
10, 2
7, 8
7, 9
7, 7
5, 10
10, 5
11, 9
11, 5
2, 18
23, 18
25, 26
22, 21
32, 34
25, 42
27, 53
19, 71
25, 56
20, 88
18, 57
25, 52
17, 45
15, 35
10, 25
17, 16
4, 24
13, 20
8, 10
10, 16
12, 16
12, 16
15, 9
13, 19
10, 17
8, 15
14, 14
11, 6
9, 9
9, 11
11, 10
19, 13
11, 9
12, 9
16, 9
18, 16
11, 11
19, 16
17, 8
15, 13
14, 15
15, 10
10, 9
16, 11
13, 7
7, 8
11, 11
9, 14
13, 12
10, 8
8, 9
15, 7
8, 11
9, 8
9, 18
7, 17
14, 18
15, 19
29, 28
44, 48
57, 51
72, 78
84, 75
63, 91
71, 67
63, 60
50, 43
31, 48
22, 34
13, 34
23, 34
17, 22
20, 23
34, 30
37, 52
67, 109
129, 186
288, 323
530, 654
870, 1056
1489, 1653
2107, 2326
2544, 2805
3122, 3231
3187, 3278
3248, 2957
2743, 2425
2104, 1752
1573, 1264
976, 776
586, 442
303, 195
160, 109
83, 35
69, 36
50, 22
53, 13
47, 18
69, 21
84, 21
62, 18
73, 20
75, 27
79, 46
86, 53
88, 88
146, 131
228, 213
273, 280
344, 374
428, 436
515, 451
496, 470
439, 431
387, 345
266, 236
213, 192
162, 102
81, 54
51, 35
27, 19
19, 9
10, 9
5, 6
4, 4
6, 8
9, 4
6, 5
8, 2
6, 5
3, 8
10, 11
5, 5
9, 8
10, 8
3, 3
4, 2
4, 8
5, 7
5, 1
4, 4
1, 12
4, 8
5, 16
4, 7
4, 15
7, 6
5, 9
4, 9
4, 10
2, 7
4, 5
6, 2
10, 5
7, 7
15, 3
6, 7
7, 4
9, 4
6, 7
5, 5
4, 11
2, 6
4, 4
4, 8
6, 2
8, 7
6, 4
7, 3
6, 8
2, 6
7, 7
6, 3
5, 6
7, 3
6, 2
3, 2
6, 5
5, 6
9, 4
2, 5
3, 8
7, 3
6, 4
2, 5
5, 1
5, 3
3, 4
1, 2
4, 3
2, 2
3, 5
9, 3
7, 4
8, 3
5, 1
4, 10
9, 4
9, 7
11, 7
5, 6
8, 5
3, 10
7, 4
6, 8
5, 12
13, 15
6, 4
7, 9
3, 10
7, 8
4, 3
6, 2
10, 3
5, 3
5, 4
5, 4
8, 1
0, 5
4, 5
5, 1
8, 9
5, 6
2, 5
5, 2
6, 3
3, 2
2, 5
1, 2
5, 3
4, 3
2, 2
1, 2
5, 1
3, 0
3, 4
4, 2
6, 1
2, 6
7, 5
1, 2
6, 8
2, 5
1, 0
0, 1
2, 1
3, 1
6, 4
1, 5
3, 3
0, 3
2, 2
2, 0
1, 1
2, 0
3, 3
3, 3
5, 5
1, 3
4, 1
1, 5
4, 0
7, 3
4, 3
6, 2
5, 6
7, 3
9, 4
6, 0
10, 4
9, 1
8, 2
8, 1
7, 5
4, 2
5, 5
11, 4
7, 3
6, 3
3, 3
4, 3
3, 1
3, 1
2, 4
1, 1
5, 3
1, 2
5, 2
1, 3
1, 3
1, 4
0, 5
7, 0
3, 3
0, 6
2, 1
2, 3
2, 2
2, 3
2, 1
2, 0
1, 4
0, 2
1, 1
2, 1
0, 2
2, 1
0, 0
3, 3
1, 3
2, 0
0, 0
2, 0
2, 1
1, 4
3, 1
1, 4
4, 0
3, 1
2, 1
4, 0
2, 0
2, 0
2, 1
4, 1
5, 1
1, 1
3, 1
4, 0
3, 4
1, 2
4, 1
2, 1
2, 1
2, 0
1, 0
3, 2
5, 1
0, 1
1, 1
2, 1
1, 1
3, 3
2, 4
2, 4
1, 7
2, 1
1, 3
1, 6
2, 3
2, 2
2, 9
6, 6
3, 5
3, 5
7, 3
6, 4
4, 4
2, 6
6, 2
3, 4
4, 4
2, 1
2, 2
0, 0
1, 2
0, 1
0, 1
1, 1
2, 0
0, 1
3, 0
0, 0
3, 3
2, 0
0, 3
2, 1
0, 1
4, 0
3, 4
1, 2
1, 2
2, 1
1, 4
4, 2
2, 1
1, 1
4, 0
2, 0
2, 2
3, 1
1, 3
0, 1
2, 0
4, 1
3, 0
1, 0
0, 1
1, 1
0, 0
1, 2
1, 0
1, 1
4, 0
0, 1
1, 2
0, 1
0, 0
0, 1
2, 1
1, 0
0, 1
1, 0
3, 1
0, 0
3, 1
0, 0
0, 0
0, 1
2, 2
2, 0
2, 0
0, 1
0, 1
0, 1
3, 0
2, 1
0, 0
0, 0
3, 1
0, 0
1, 0
1, 1
1, 0
0, 1
1, 1
1, 1
1, 2
0, 1
1, 0
1, 0
0, 0
1, 0
0, 1
0, 0
1, 0
2, 2
2, 1
1, 1
0, 1
2, 0
0, 0
0, 0
0, 1
4, 0
0, 0
1, 2
1, 0
2, 1
0, 0
1, 1
0, 0
0, 0
0, 1
0, 0
0, 0
0, 0
1, 1
0, 1
0, 0
2, 1
0, 1
0, 0
1, 2
0, 0
1, 1
0, 0
0, 1
0, 0
0, 0
0, 1
1, 1
0, 1
1, 1
0, 0
0, 2
0, 0
0, 1
1, 0
1, 1
1, 0
1, 0
0, 0
0, 1
0, 1
0, 0
1, 0
1, 1
0, 0
0, 0
1, 0
0, 1
3, 0
2, 0
0, 0
1, 0
2, 0
1, 1
0, 1
0, 1
0, 1
0, 0
0, 0
1, 0
0, 2
0, 1
0, 0
0, 0
0, 0
0, 0
0, 0
1, 0
2, 1
0, 0
1, 0
0, 1
0, 1
0, 0
0, 0
0, 0
1, 2
0, 0
0, 0
0, 0
0, 0
0, 0
0, 0
0, 0
0, 0
0, 0
0, 0
0, 0
0, 0
0, 0
0, 0
0, 0
0, 0
0, 0
0, 0
0, 1
1, 0
0, 0
0, 0
1, 0
1, 0
0, 0
1, 0
0, 0
0, 0
0, 0
0, 0
0, 0
0, 0
1, 0
0, 0
0, 1
0, 0
1, 0
1, 1
0, 0
0, 0
0, 0
0, 1
0, 0
0, 1
0, 0
0, 0
0, 0
0, 0
0, 1
0, 1
0, 0
0, 0
0, 0
0, 0
0, 1
1, 0
0, 0
1, 1
0, 0
0, 0
0, 2
0, 0
0, 0
1, 1
0, 0
0, 0
1, 0
0, 0
0, 0
0, 0
0, 0
0, 0
0, 0
0, 0
3, 0
0, 1
1, 0
0, 0
0, 0
0, 0
0, 0
0, 0
1, 0
0, 0
0, 0
1, 1
0, 0
2, 0
0, 1
1, 1
0, 0
0, 0
0, 0
0, 0
0, 0
0, 0
0, 1
0, 0
0, 0
0, 0
0, 0
0, 0
0, 0
0, 0
0, 0
0, 0
0, 0
0, 0
0, 0
0, 0
0, 0
0, 0
0, 2
0, 0
0, 0
0, 0
0, 1
0, 0
0, 0
0, 0
0, 0
1, 0
0, 0
0, 0
0, 0
0, 0
0, 0
0, 0
0, 1
0, 0
1, 0
0, 0
0, 0
0, 0
0, 1
0, 0
1, 0
0, 0
0, 0
0, 0
0, 0
0, 0
0, 0
0, 0
0, 1
0, 0
0, 0
0, 0
0, 0
0, 0
0, 0
0, 0
1, 0
0, 0
1, 0
0, 0
0, 0
0, 0
0, 0
0, 0
0, 0
0, 0
0, 0
0, 0
0, 0
0, 0
0, 0
0, 0
0, 0
0, 0
0, 0
0, 0
1, 0
0, 1
0, 0
0, 0
0, 0
0, 0
0, 0
0, 0
0, 0
0, 0
0, 0
1, 0
0, 0
0, 0
0, 0
0, 0
0, 0
0, 0
0, 0
0, 0
0, 0
0, 0
0, 0
0, 0
0, 0
0, 0
0, 0
0, 0
0, 0
0, 0
0, 0
0, 0
0, 0
0, 0
0, 0
0, 1
0, 0
0, 0
0, 0
0, 0
0, 0
0, 0
0, 0
0, 0
0, 0
1, 0
0, 0
0, 0
0, 0
0, 0
0, 0
0, 0
0, 0
0, 0
0, 0
0, 0
0, 0
0, 0
0, 1
0, 0
0, 0
0, 0
0, 0
0, 0
0, 0
0, 0
0, 0
0, 0
0, 0
0, 0
0, 0
0, 0
0, 0
0, 0
0, 0
0, 0
0, 0
0, 0
0, 0
0, 0
0, 0
0, 0
0, 0
0, 0
0, 0
0, 0
0, 0
0, 0
0, 0
0, 0
0, 0
0, 0
0, 0
0, 0
0, 0
0, 0
0, 0
0, 0
0, 0
0, 0
0, 0
0, 0
0, 0
0, 0
0, 0
0, 0
0, 0
0, 0
0, 0
0, 0
0, 0
0, 0
0, 0
0, 0
0, 0
0, 0
0, 0
0, 0
0, 0
0, 0
0, 0
0, 0
0, 0
0, 0
0, 0
0, 0
0, 0
0, 0
0, 0
0, 0
0, 0
0, 0
0, 0
0, 0
0, 0
0, 0
0, 0
0, 0
0, 0
0, 0
0, 0
0, 0
0, 0
0, 0
0, 0
0, 0
0, 0
0, 0
0, 0
0, 0
0, 0
0, 0
0, 0
0, 0
0, 0
0, 0
0, 0
0, 0
0, 0
0, 0
0, 0
0, 0
0, 0
0, 0
0, 0
0, 0
0, 0
0, 0
0, 0
0, 0
0, 0
0, 0
0, 0
0, 0
0, 0
0, 0
0, 0
0, 0
0, 0
0, 0
0, 0
0, 0
0, 0
0, 0
0, 0
0, 0
0, 0
0, 0
0, 0
0, 0
0, 0
0, 0
0, 0
0, 0
0, 0
0, 0
0, 0
0, 0
0, 0
0, 0
0, 0
0, 0
0, 0
0, 0
0, 0
0, 0
0, 0
0, 0
0, 0
0, 0
0, 0
0, 0
0, 0
0, 0
0, 0
0, 0
0, 0
0, 0
0, 0
0, 0
0, 0
0, 0
0, 0
0, 0
0, 0
0, 0
0, 0
0, 0
0, 0
0, 0
0, 0
0, 0
0, 0
0, 0
0, 0
0, 0
0, 0
0, 0
0, 0
0, 0
0, 0
0, 0
0, 0
0, 0
0, 0
0, 0
0, 0
0, 0
0, 0
0, 0
0, 0
0, 0
0, 0
0, 0
0, 0
0, 0
0, 0
0, 0
0, 0
0, 0
0, 0
0, 0
0, 0
0, 0
0, 0
0, 0
0, 0
0, 0
0, 0
0, 0
0, 0
0, 0
0, 0
0, 0
0, 0
0, 0
0, 0
0, 0
0, 0
0, 0
0, 0
0, 0
0, 0
0, 0
0, 0
0, 0
0, 0
0, 0
0, 0
0, 0
0, 0
0, 0
0, 0
0, 0
0, 0
0, 0
0, 0
0, 0
0, 0
0, 0
0, 0
0, 0
0, 0
0, 0
0, 0
0, 0
0, 0
0, 0
0, 0
0, 0
0, 0
0, 0
0, 0
0, 0
0, 0
0, 0
0, 0
0, 0
0, 0
0, 0
0, 0
0, 0
0, 0
0, 0
0, 0
0, 0
0, 0
0, 0
0, 0
0, 0
0, 0
0, 0
0, 0
0, 0
0, 0
0, 0
0, 0
0, 0
0, 0
0, 0
0, 0
0, 0
0, 0
0, 0
0, 0
0, 0
0, 0
0, 0
0, 0
0, 0
0, 0
0, 0
0, 0
0, 0
0, 0
0, 0
0, 0
0, 0
0, 0
0, 0
0, 0
0, 0
0, 0
0, 0
0, 0
0, 0
0, 0
0, 0
0, 0
0, 0
0, 0
0, 0
0, 0
0, 0
0, 0
0, 0
0, 0
0, 0
0, 0
0, 0
0, 0
0, 0
0, 0
0, 0
0, 0
0, 0
0, 0
0, 0
0, 0
0, 0
0, 0
0, 0
0, 0
0, 0
0, 0
0, 0
0, 0
0, 0
0, 0
0, 0
0, 0
0, 0
0, 0
0, 0
0, 0
0, 0
0, 0
0, 0
0, 0
0, 0
0, 0
0, 0
0, 0
0, 0
0, 0
0, 0
0, 0
0, 0
0, 0
0, 0
0, 0
0, 0
0, 0
0, 0
0, 0
0, 0
0, 0
0, 0
0, 0
0, 0
0, 0
0, 0
0, 0
0, 0
0, 0
0, 0
0, 0
0, 0
0, 0
0, 0
0, 0
0, 0
0, 0
0, 0
0, 0
0, 0
0, 0
0, 0
0, 0
0, 0
0, 0
0, 0
0, 0
0, 0
0, 0
0, 0
0, 0
0, 0
0, 0
0, 0
0, 0
0, 0
0, 0
0, 0
0, 0
0, 0
0, 0
0, 0
0, 0
0, 0
0, 0
0, 0
0, 0
0, 0
0, 0
#ENDOFDATA     end of spectrum data