File: host_upload/12-01-2023/Dourbes (shot-by-shot)/upload_4/ps__0257_0689790785_000rfs_shot_3296.msa
#FORMAT      : EMSA/MAS spectral data file
#VERSION     : TC202v2.0 PIXL
#TITLE       : N/A
#DATE        :       Date in the format DD-MMM-YYYY, for example 07-JUL-2010
#TIME        :             The time of day at which the spectrum was recorded, in 24-hour format
#OWNER       : PIXL Flight Model       (PIXL will use this to indicate which instrument took the data.)
#NPOINTS     : 4096     Number of data points in the spectrum (This can be zero for configuration only files)
#NCOLUMNS    : 2     Number of data columns in the spectrum (This can be zero for configuration only files)
#XUNITS      : eV
#YUNITS      : COUNTS
#DATATYPE    : YY
#XPERCHAN    : 7.862, 7.881   eV per channel (separate by commas if more than one detector)
#OFFSET      : 18.5, -22.4         eV of first channel  (separate by commas if more than one detector
#SIGNALTYPE  : XRF
#YP_TEMP     : 3.037
#LIVETIME    : 8.99617, 8.99648   seconds (separate by commas if more than one detector)
#REALTIME    : 10, 10.0   seconds (separate by commas if more than one detector)
#SPECTRUM    : start of spectrum data
0, 0
0, 0
0, 0
0, 0
0, 0
0, 0
0, 0
0, 0
0, 0
0, 0
0, 0
0, 0
0, 0
0, 0
0, 0
0, 0
0, 0
0, 0
0, 0
0, 0
0, 0
0, 0
0, 0
0, 0
0, 0
0, 0
0, 0
0, 0
0, 0
0, 0
0, 0
0, 0
0, 0
0, 0
1, 0
0, 0
0, 0
1, 1
0, 0
3, 1
1, 0
0, 1
2, 1
3, 0
2, 0
0, 1
2, 1
4, 3
9, 0
7, 9
12, 8
29, 25
39, 35
64, 41
58, 69
56, 42
34, 24
28, 21
17, 9
18, 4
4, 5
4, 4
5, 7
2, 2
2, 5
6, 2
6, 3
4, 4
13, 12
32, 26
87, 70
154, 151
262, 263
406, 393
483, 436
452, 435
434, 369
302, 299
169, 160
113, 90
54, 47
33, 31
12, 12
5, 10
5, 12
7, 5
7, 6
5, 6
4, 3
2, 5
6, 1
2, 2
5, 2
2, 4
3, 3
0, 7
6, 4
1, 3
2, 8
1, 5
3, 1
3, 5
5, 3
2, 4
1, 2
2, 0
2, 4
7, 1
6, 6
9, 8
11, 16
23, 8
20, 15
26, 21
34, 23
32, 27
16, 24
17, 22
21, 17
21, 10
22, 21
14, 18
19, 14
15, 6
12, 14
18, 12
10, 13
12, 10
9, 7
6, 6
2, 4
3, 5
1, 4
4, 3
3, 2
5, 2
5, 3
1, 3
6, 3
3, 1
2, 2
2, 1
2, 4
3, 0
2, 0
2, 5
3, 2
5, 4
0, 5
1, 1
9, 3
3, 2
5, 10
16, 10
22, 10
21, 22
29, 24
41, 25
26, 35
25, 17
16, 15
11, 8
9, 20
10, 15
11, 49
9, 47
23, 69
43, 67
39, 71
46, 55
41, 44
29, 32
24, 22
8, 12
10, 8
11, 5
11, 7
7, 4
8, 3
6, 1
9, 2
6, 3
9, 5
3, 4
7, 2
2, 4
2, 5
6, 7
3, 5
6, 12
7, 5
15, 8
10, 10
14, 14
13, 13
11, 23
18, 19
16, 15
15, 18
19, 13
13, 14
16, 23
19, 10
18, 10
21, 7
26, 4
17, 10
15, 7
25, 10
10, 13
11, 13
14, 7
9, 16
14, 17
4, 11
4, 13
6, 7
7, 7
5, 5
8, 8
5, 7
4, 6
6, 3
9, 4
13, 8
10, 10
14, 14
8, 9
10, 11
15, 18
11, 13
12, 16
11, 14
18, 5
11, 11
16, 7
18, 7
28, 6
24, 10
16, 6
10, 7
15, 8
9, 15
16, 14
14, 17
29, 27
39, 44
56, 64
73, 78
92, 94
108, 99
110, 105
93, 100
86, 68
57, 46
51, 34
18, 29
33, 25
16, 13
19, 19
21, 28
37, 27
39, 56
97, 102
196, 227
354, 452
689, 801
1172, 1319
1853, 2137
2550, 2845
3353, 3474
3798, 3939
4058, 4005
3913, 3488
3198, 2855
2417, 2106
1784, 1456
1171, 857
634, 488
333, 242
185, 127
74, 72
45, 33
23, 11
18, 16
20, 13
15, 12
9, 20
21, 22
18, 24
25, 39
34, 56
56, 86
91, 114
174, 186
211, 236
336, 347
438, 451
468, 515
575, 562
569, 607
505, 480
412, 388
334, 296
245, 177
151, 113
69, 70
56, 29
27, 21
16, 14
7, 9
1, 7
4, 8
8, 9
6, 10
7, 12
8, 11
7, 10
6, 9
17, 6
5, 13
5, 4
3, 3
4, 6
3, 6
5, 5
4, 2
5, 4
6, 4
3, 5
4, 12
2, 8
1, 12
2, 20
4, 21
5, 19
7, 16
4, 14
4, 9
6, 8
7, 11
2, 7
6, 3
5, 7
2, 4
5, 4
5, 5
2, 1
3, 6
5, 10
7, 8
3, 9
2, 1
4, 8
2, 8
1, 5
2, 5
7, 12
0, 8
2, 6
2, 6
2, 3
3, 2
2, 8
3, 4
0, 4
4, 4
3, 4
2, 4
5, 5
3, 1
3, 5
2, 2
2, 7
3, 6
0, 8
5, 8
0, 4
0, 11
1, 6
3, 11
1, 7
4, 4
4, 2
1, 6
3, 1
4, 3
2, 2
1, 3
3, 4
1, 3
4, 3
0, 6
2, 4
2, 3
1, 3
1, 2
4, 4
0, 3
2, 2
2, 4
6, 3
4, 2
4, 1
5, 3
10, 2
8, 5
6, 3
4, 6
3, 5
5, 0
3, 8
2, 1
7, 1
3, 7
1, 1
7, 4
2, 4
2, 3
0, 4
3, 5
1, 4
3, 3
0, 1
1, 5
1, 4
2, 1
1, 1
2, 1
5, 5
2, 5
5, 1
5, 1
10, 5
8, 1
13, 1
12, 1
15, 3
7, 1
6, 3
15, 2
8, 3
9, 4
10, 3
6, 2
3, 1
2, 5
1, 2
4, 1
1, 1
2, 4
2, 2
3, 1
0, 4
1, 2
1, 4
2, 3
1, 6
1, 3
2, 5
1, 9
3, 7
3, 6
2, 11
4, 5
2, 3
0, 5
4, 3
3, 4
4, 1
4, 4
1, 3
2, 0
4, 0
7, 2
3, 1
2, 4
1, 0
1, 0
3, 4
1, 1
2, 0
1, 4
0, 5
1, 2
9, 5
0, 1
1, 0
2, 1
1, 2
5, 0
2, 3
0, 2
1, 0
0, 1
1, 3
2, 2
1, 2
4, 3
1, 1
2, 2
4, 2
1, 2
2, 3
3, 2
2, 2
2, 2
3, 1
0, 4
3, 1
3, 1
0, 3
5, 1
2, 3
1, 0
1, 3
0, 3
1, 1
3, 0
1, 3
1, 2
0, 1
0, 5
0, 2
2, 4
3, 5
1, 2
3, 6
1, 1
0, 1
2, 0
1, 0
2, 1
0, 1
3, 1
3, 3
5, 5
6, 5
7, 5
5, 5
2, 6
7, 9
12, 4
3, 10
12, 6
6, 6
9, 6
5, 2
3, 3
2, 3
2, 4
4, 1
2, 1
1, 1
2, 2
1, 0
1, 1
0, 2
3, 1
1, 2
2, 3
1, 4
1, 2
1, 2
2, 2
1, 2
0, 2
1, 3
2, 2
0, 1
3, 1
4, 0
2, 0
3, 6
3, 6
1, 2
3, 1
2, 3
1, 1
0, 1
0, 1
1, 1
0, 2
0, 1
1, 3
0, 3
0, 2
0, 1
0, 1
0, 0
1, 1
0, 1
0, 3
0, 0
0, 0
1, 0
2, 1
4, 0
1, 1
3, 1
3, 0
2, 0
3, 3
1, 1
3, 0
4, 1
6, 0
1, 1
1, 0
2, 1
6, 1
1, 0
1, 1
0, 1
0, 0
1, 0
0, 0
2, 1
0, 0
2, 1
1, 0
2, 1
1, 0
1, 0
0, 1
2, 1
0, 1
0, 1
0, 3
1, 1
0, 2
0, 1
2, 1
0, 1
0, 0
0, 1
0, 0
1, 0
2, 1
0, 0
1, 0
0, 1
1, 1
0, 0
2, 0
0, 1
0, 2
0, 1
0, 0
0, 0
1, 1
1, 1
1, 2
1, 1
0, 1
1, 0
1, 0
0, 0
0, 1
0, 0
0, 1
0, 0
0, 1
1, 0
3, 1
2, 0
0, 0
1, 0
0, 0
0, 0
0, 0
1, 0
1, 0
1, 0
0, 0
1, 3
0, 0
1, 0
0, 0
0, 0
0, 1
0, 1
1, 0
0, 0
0, 0
0, 0
0, 1
0, 0
0, 0
1, 0
0, 0
0, 0
0, 0
2, 0
0, 1
0, 0
0, 0
0, 0
1, 0
1, 0
0, 1
1, 0
0, 0
0, 0
0, 0
0, 0
0, 1
0, 0
1, 1
1, 1
0, 0
0, 0
0, 2
0, 0
0, 0
0, 0
0, 0
0, 0
0, 1
0, 0
0, 2
0, 0
0, 0
0, 1
0, 0
0, 0
1, 0
1, 1
1, 0
0, 1
0, 0
0, 0
0, 0
0, 1
0, 0
0, 0
0, 0
0, 0
0, 1
0, 0
1, 0
0, 0
0, 0
1, 0
0, 0
0, 1
0, 0
0, 0
0, 0
0, 2
0, 0
0, 0
0, 0
0, 2
0, 0
1, 0
0, 0
0, 0
1, 0
1, 1
1, 0
0, 2
0, 1
0, 0
0, 0
0, 1
0, 0
0, 0
0, 0
1, 0
0, 0
1, 0
0, 0
1, 0
0, 0
0, 0
0, 1
0, 1
0, 1
0, 0
0, 0
1, 0
0, 1
1, 0
0, 0
0, 0
0, 0
0, 1
0, 0
1, 0
2, 1
0, 0
0, 0
0, 0
0, 0
0, 1
0, 0
1, 0
0, 1
0, 0
0, 0
0, 0
0, 0
0, 1
0, 0
0, 1
0, 1
2, 0
0, 0
0, 1
0, 0
0, 0
0, 0
0, 0
0, 0
0, 0
0, 0
0, 0
0, 0
0, 0
0, 0
0, 0
0, 0
0, 0
0, 0
0, 0
0, 0
2, 0
0, 0
0, 0
0, 0
0, 0
0, 0
0, 0
0, 0
0, 0
0, 0
0, 0
0, 0
0, 0
0, 0
0, 0
0, 0
0, 0
0, 0
0, 0
0, 1
0, 0
0, 0
0, 0
0, 0
0, 0
1, 0
0, 0
0, 0
0, 0
0, 0
0, 0
1, 0
1, 1
0, 0
0, 0
0, 0
0, 0
0, 0
0, 0
0, 0
0, 0
0, 0
0, 0
0, 0
0, 0
0, 0
0, 0
0, 0
0, 0
0, 0
0, 0
0, 0
0, 0
0, 0
0, 0
0, 0
0, 1
0, 0
0, 0
0, 0
0, 0
0, 0
0, 0
0, 0
0, 0
0, 0
0, 0
1, 0
0, 0
0, 0
0, 0
0, 0
0, 0
1, 0
0, 0
0, 0
0, 0
0, 0
0, 0
0, 0
0, 0
0, 0
0, 0
0, 0
0, 0
0, 0
0, 0
0, 0
0, 0
1, 0
0, 0
0, 0
0, 0
0, 0
0, 0
0, 0
0, 0
0, 0
0, 0
0, 0
0, 0
0, 0
0, 0
1, 0
0, 0
0, 0
0, 0
0, 0
0, 0
0, 0
0, 0
0, 0
0, 0
0, 0
0, 0
0, 0
0, 0
0, 0
0, 0
0, 0
0, 0
0, 0
0, 0
0, 0
0, 0
1, 0
0, 0
0, 0
0, 0
0, 0
0, 0
0, 0
0, 0
0, 0
0, 0
0, 0
0, 0
0, 0
0, 0
0, 0
0, 0
0, 0
0, 0
0, 0
0, 0
0, 0
0, 0
0, 0
0, 0
0, 0
0, 0
0, 0
0, 0
0, 0
0, 0
0, 0
0, 0
0, 0
0, 0
0, 0
0, 0
0, 0
0, 0
0, 0
0, 0
0, 0
0, 0
0, 0
0, 0
0, 0
0, 0
0, 0
0, 0
0, 0
0, 0
0, 0
0, 0
0, 0
0, 0
0, 0
0, 0
0, 0
0, 0
0, 0
0, 0
0, 0
0, 0
0, 0
0, 0
0, 0
0, 0
0, 0
0, 0
0, 0
0, 0
0, 0
0, 0
0, 0
0, 0
0, 0
0, 0
0, 0
0, 0
0, 0
0, 0
0, 0
0, 0
0, 0
0, 0
0, 0
0, 0
0, 0
0, 0
0, 0
0, 0
0, 0
0, 0
0, 0
0, 0
0, 1
0, 0
0, 0
0, 0
0, 0
0, 0
0, 0
0, 0
0, 0
0, 0
0, 0
0, 0
0, 0
0, 0
0, 0
0, 0
0, 0
0, 0
0, 0
0, 0
0, 0
0, 0
0, 0
0, 0
0, 0
0, 0
0, 0
0, 0
0, 0
0, 0
0, 0
0, 0
0, 0
0, 0
0, 0
0, 0
0, 0
0, 0
0, 0
0, 0
0, 0
0, 0
0, 0
0, 0
0, 0
0, 0
0, 0
0, 0
0, 0
0, 0
0, 0
0, 0
0, 0
0, 0
0, 0
0, 0
0, 0
0, 0
0, 0
0, 0
0, 0
0, 0
0, 0
0, 0
0, 0
0, 0
0, 0
0, 0
0, 0
0, 0
0, 0
0, 0
0, 0
0, 0
0, 0
0, 0
0, 0
0, 0
0, 0
0, 0
0, 0
0, 0
0, 0
0, 0
0, 0
0, 0
0, 0
0, 0
0, 0
0, 0
0, 0
0, 0
0, 0
0, 0
0, 0
0, 0
0, 0
0, 0
0, 0
0, 0
0, 0
0, 0
0, 0
0, 0
0, 0
0, 0
0, 0
0, 0
0, 0
0, 0
0, 0
0, 0
0, 0
0, 0
0, 0
0, 0
0, 0
0, 0
0, 0
0, 0
0, 0
0, 0
0, 0
0, 0
0, 0
0, 0
0, 0
0, 0
0, 0
0, 0
0, 0
0, 0
0, 0
0, 0
0, 0
0, 0
0, 0
0, 0
0, 0
0, 0
0, 0
0, 0
0, 0
0, 0
0, 0
0, 0
0, 0
0, 0
0, 0
0, 0
0, 0
0, 0
0, 0
0, 0
0, 0
0, 0
0, 0
0, 0
0, 0
0, 0
0, 0
0, 0
0, 0
0, 0
0, 0
0, 0
0, 0
0, 0
0, 0
0, 0
0, 0
0, 0
0, 0
0, 0
0, 0
0, 0
0, 0
0, 0
0, 0
0, 0
0, 0
0, 0
0, 0
0, 0
0, 0
0, 0
0, 0
0, 0
0, 0
0, 0
0, 0
0, 0
0, 0
0, 0
0, 0
0, 0
0, 0
0, 0
0, 0
0, 0
0, 0
0, 0
0, 0
0, 0
0, 0
0, 0
0, 0
0, 0
0, 0
0, 0
0, 0
0, 0
0, 0
0, 0
0, 0
0, 0
0, 0
0, 0
0, 0
0, 0
0, 0
0, 0
0, 0
0, 0
0, 0
0, 0
0, 0
0, 0
0, 0
0, 0
0, 0
0, 0
0, 0
0, 0
0, 0
0, 0
0, 0
0, 0
0, 0
0, 0
0, 0
0, 0
0, 0
0, 0
0, 0
0, 0
0, 0
0, 0
0, 0
0, 0
0, 0
0, 0
0, 0
0, 0
0, 0
0, 0
0, 0
0, 0
0, 0
0, 0
0, 0
0, 0
0, 0
0, 0
0, 0
0, 0
0, 0
0, 0
0, 0
0, 0
0, 0
0, 0
0, 0
0, 0
0, 0
0, 0
0, 0
0, 0
0, 0
0, 0
0, 0
0, 0
0, 0
0, 0
0, 0
0, 0
0, 0
0, 0
0, 0
0, 0
0, 0
0, 0
0, 0
0, 0
0, 0
0, 0
0, 0
0, 0
0, 0
0, 0
0, 0
0, 0
0, 0
0, 0
0, 0
0, 0
0, 0
0, 0
0, 0
0, 0
0, 0
0, 0
0, 0
0, 0
0, 0
0, 0
0, 0
0, 0
0, 0
0, 0
#ENDOFDATA     end of spectrum data