File: host_upload/12-01-2023/Dourbes (shot-by-shot)/upload_4/ps__0257_0689790785_000rfs_shot_3301.msa
#FORMAT      : EMSA/MAS spectral data file
#VERSION     : TC202v2.0 PIXL
#TITLE       : N/A
#DATE        :       Date in the format DD-MMM-YYYY, for example 07-JUL-2010
#TIME        :             The time of day at which the spectrum was recorded, in 24-hour format
#OWNER       : PIXL Flight Model       (PIXL will use this to indicate which instrument took the data.)
#NPOINTS     : 4096     Number of data points in the spectrum (This can be zero for configuration only files)
#NCOLUMNS    : 2     Number of data columns in the spectrum (This can be zero for configuration only files)
#XUNITS      : eV
#YUNITS      : COUNTS
#DATATYPE    : YY
#XPERCHAN    : 7.862, 7.881   eV per channel (separate by commas if more than one detector)
#OFFSET      : 18.5, -22.4         eV of first channel  (separate by commas if more than one detector
#SIGNALTYPE  : XRF
#YP_TEMP     : 3.037
#LIVETIME    : 9.00778, 9.00297   seconds (separate by commas if more than one detector)
#REALTIME    : 10, 10.0   seconds (separate by commas if more than one detector)
#SPECTRUM    : start of spectrum data
0, 0
0, 0
0, 0
0, 0
0, 0
0, 0
0, 0
0, 0
0, 0
0, 0
0, 0
0, 0
0, 0
0, 0
0, 0
0, 0
0, 0
0, 0
0, 0
0, 0
0, 0
0, 0
0, 0
0, 0
0, 0
0, 0
0, 0
0, 0
0, 0
0, 0
0, 0
0, 0
0, 0
0, 0
0, 0
0, 0
0, 0
0, 0
0, 0
1, 2
0, 1
2, 4
3, 3
4, 5
1, 3
0, 2
1, 4
0, 3
2, 4
2, 2
13, 8
15, 24
23, 27
39, 37
63, 42
41, 47
38, 33
16, 17
13, 9
3, 4
5, 10
13, 18
13, 13
9, 27
13, 22
13, 18
11, 19
12, 13
14, 19
35, 37
80, 84
151, 151
269, 298
389, 387
463, 564
502, 520
386, 418
271, 306
174, 197
95, 98
47, 59
23, 18
19, 13
13, 12
7, 7
10, 5
6, 7
5, 8
7, 5
2, 5
4, 4
3, 1
4, 3
3, 6
5, 6
7, 8
12, 20
21, 21
23, 18
16, 22
18, 14
13, 18
10, 13
10, 11
8, 4
8, 11
13, 12
8, 10
17, 23
19, 29
34, 37
38, 45
67, 87
58, 74
70, 80
73, 73
78, 84
64, 64
65, 43
51, 48
36, 50
45, 51
28, 43
25, 33
20, 33
23, 38
22, 33
8, 12
9, 11
8, 9
5, 5
3, 6
8, 7
2, 3
2, 6
9, 9
5, 11
1, 15
5, 8
5, 22
10, 23
10, 24
6, 25
11, 17
12, 12
4, 12
5, 8
4, 7
5, 6
9, 7
9, 8
27, 21
22, 27
23, 31
49, 33
77, 80
96, 78
68, 93
78, 67
75, 72
41, 46
31, 19
19, 26
14, 15
10, 7
8, 7
8, 5
8, 7
12, 10
23, 11
11, 18
17, 21
11, 20
16, 16
10, 11
10, 9
9, 7
9, 12
8, 8
13, 16
7, 9
17, 16
0, 9
14, 11
5, 12
18, 11
16, 26
32, 41
31, 43
43, 73
57, 85
49, 88
68, 91
57, 98
39, 76
49, 45
46, 43
37, 32
33, 30
30, 34
31, 22
30, 21
40, 23
25, 12
28, 21
18, 10
15, 13
17, 20
17, 18
10, 23
18, 24
22, 23
19, 20
16, 16
8, 20
9, 8
16, 9
9, 9
9, 9
13, 9
13, 17
12, 10
14, 6
9, 7
13, 11
19, 32
24, 45
25, 40
45, 57
33, 71
63, 71
50, 62
39, 53
38, 47
40, 38
24, 35
14, 20
12, 18
24, 15
7, 16
10, 16
13, 19
12, 24
11, 33
22, 35
35, 50
38, 63
67, 81
70, 97
91, 110
100, 104
107, 111
95, 103
93, 83
81, 61
41, 41
38, 34
39, 25
23, 23
36, 24
36, 28
38, 31
46, 51
107, 105
188, 194
336, 424
670, 810
1053, 1269
1688, 1959
2338, 2739
3049, 3338
3568, 3794
3704, 3751
3482, 3351
2965, 2839
2206, 2056
1670, 1384
1084, 831
605, 483
348, 246
160, 112
87, 61
47, 46
37, 30
28, 27
30, 29
25, 18
25, 30
27, 23
27, 29
33, 41
37, 39
60, 87
86, 99
140, 171
194, 234
288, 332
377, 432
473, 488
527, 559
482, 524
480, 477
408, 390
333, 284
225, 188
134, 127
77, 68
38, 45
25, 21
8, 14
12, 13
6, 5
10, 11
8, 7
9, 7
6, 12
9, 9
13, 6
8, 14
8, 7
13, 11
13, 6
4, 4
8, 8
2, 6
4, 9
3, 8
2, 7
4, 7
2, 5
5, 4
4, 4
6, 5
2, 1
3, 2
4, 3
5, 6
7, 4
6, 0
3, 4
13, 6
5, 11
4, 10
13, 7
6, 10
8, 6
9, 8
5, 11
7, 13
4, 7
11, 8
6, 5
4, 4
6, 6
3, 5
5, 7
5, 5
3, 4
9, 6
8, 3
4, 5
2, 7
3, 6
4, 8
7, 10
3, 11
7, 5
7, 6
0, 1
4, 4
5, 4
9, 3
2, 2
3, 2
4, 2
4, 5
5, 3
4, 5
2, 7
6, 2
6, 4
5, 3
6, 4
2, 2
4, 3
6, 5
8, 6
5, 4
3, 4
6, 4
6, 6
5, 7
4, 3
7, 6
4, 6
7, 4
4, 5
4, 2
7, 4
3, 3
4, 3
1, 4
5, 5
1, 2
2, 6
7, 5
5, 5
3, 7
4, 1
4, 3
3, 5
3, 8
3, 4
5, 2
3, 3
1, 5
4, 4
7, 6
1, 2
4, 3
6, 3
2, 4
3, 2
8, 6
3, 5
3, 9
3, 2
5, 7
5, 3
1, 8
6, 8
2, 5
6, 3
8, 5
0, 3
0, 4
4, 2
6, 5
4, 3
1, 4
3, 5
2, 3
2, 7
4, 7
2, 4
1, 5
3, 2
2, 1
1, 3
4, 4
2, 9
0, 4
4, 3
2, 1
0, 2
2, 2
5, 6
1, 1
6, 8
3, 3
3, 6
5, 5
3, 3
2, 1
3, 5
2, 3
6, 2
6, 6
1, 2
2, 2
2, 3
1, 0
0, 2
1, 3
3, 3
2, 1
1, 3
2, 4
3, 4
5, 2
3, 1
0, 2
2, 2
1, 6
3, 1
3, 5
1, 2
3, 1
2, 2
1, 2
0, 2
1, 2
0, 1
0, 3
0, 2
3, 3
1, 2
3, 3
2, 2
4, 1
2, 1
1, 2
3, 2
3, 2
3, 3
2, 0
4, 3
0, 1
3, 6
2, 1
0, 1
1, 2
2, 2
2, 2
2, 1
2, 1
2, 1
2, 1
1, 2
2, 2
3, 1
2, 6
3, 3
1, 2
4, 0
4, 2
5, 0
1, 1
3, 0
2, 5
2, 1
1, 0
2, 2
2, 1
2, 1
1, 1
1, 4
4, 3
3, 4
5, 7
6, 6
5, 7
7, 4
4, 7
5, 4
2, 2
2, 6
3, 4
3, 1
4, 1
2, 3
1, 2
2, 4
1, 1
1, 2
2, 3
2, 1
4, 1
2, 1
1, 2
0, 0
2, 2
2, 1
0, 2
2, 3
1, 2
2, 2
4, 3
1, 2
2, 4
1, 3
2, 1
2, 3
4, 7
4, 1
0, 3
1, 3
3, 3
1, 0
0, 1
2, 0
2, 1
2, 3
2, 1
1, 1
1, 0
1, 1
1, 1
2, 1
0, 0
1, 1
1, 3
2, 0
1, 0
1, 0
1, 1
1, 0
1, 2
0, 0
2, 0
1, 3
1, 4
0, 3
3, 2
1, 0
2, 2
3, 0
2, 1
2, 1
1, 1
2, 2
2, 0
0, 0
1, 1
1, 2
1, 1
1, 1
1, 0
1, 0
0, 0
0, 2
4, 1
0, 1
0, 0
0, 2
3, 4
2, 1
0, 0
0, 0
0, 2
0, 2
1, 1
1, 2
2, 0
0, 1
0, 3
0, 2
1, 0
3, 0
0, 0
0, 1
0, 1
0, 1
0, 1
2, 1
0, 0
1, 0
0, 2
2, 1
0, 0
0, 3
0, 0
1, 1
2, 0
0, 1
0, 0
0, 0
1, 1
2, 0
1, 0
2, 0
0, 1
0, 1
0, 0
0, 0
0, 0
1, 0
1, 1
0, 0
0, 2
0, 0
0, 0
0, 0
0, 1
0, 2
0, 0
0, 0
0, 0
1, 3
0, 1
0, 1
0, 1
0, 1
0, 0
0, 0
0, 0
0, 1
0, 0
0, 1
0, 0
0, 0
0, 2
0, 2
1, 1
0, 0
0, 2
0, 1
0, 0
1, 0
0, 1
1, 0
0, 0
0, 0
1, 1
0, 0
0, 0
0, 0
1, 0
1, 0
0, 0
1, 0
0, 0
0, 0
1, 0
1, 0
1, 1
0, 0
0, 2
0, 0
0, 0
0, 0
1, 0
0, 0
0, 0
0, 0
0, 0
0, 0
0, 1
0, 0
1, 0
0, 1
0, 1
0, 0
0, 0
0, 0
0, 1
2, 0
0, 0
1, 0
0, 0
0, 0
0, 0
0, 0
0, 0
0, 0
0, 0
0, 0
0, 0
0, 1
0, 0
0, 0
0, 1
0, 0
1, 1
0, 0
0, 0
1, 1
0, 0
0, 0
1, 0
0, 1
0, 0
0, 0
1, 1
0, 0
0, 0
0, 0
0, 0
0, 0
0, 0
0, 0
0, 0
0, 0
0, 0
0, 0
0, 0
0, 0
0, 0
0, 0
0, 0
1, 0
0, 0
1, 0
0, 0
0, 0
0, 0
0, 0
0, 0
0, 0
0, 2
1, 0
0, 0
0, 0
0, 0
0, 0
0, 0
0, 0
0, 0
0, 0
0, 0
0, 0
0, 0
0, 0
0, 1
0, 0
0, 0
0, 0
0, 0
1, 0
0, 0
0, 1
0, 1
0, 0
0, 0
0, 0
0, 0
0, 1
0, 0
0, 0
0, 1
1, 0
0, 0
0, 0
0, 0
0, 0
0, 0
0, 0
0, 0
0, 0
0, 0
0, 0
0, 0
0, 0
0, 0
0, 0
0, 0
0, 0
0, 0
0, 0
0, 0
0, 0
0, 0
0, 0
0, 0
0, 0
0, 0
0, 0
0, 0
0, 0
0, 0
1, 0
0, 0
0, 0
0, 0
0, 0
0, 0
0, 0
0, 0
0, 1
0, 0
0, 0
0, 0
0, 0
0, 0
0, 0
0, 0
0, 0
0, 0
0, 0
0, 0
0, 0
1, 0
0, 0
0, 0
0, 0
0, 0
0, 0
0, 1
0, 1
0, 0
0, 0
0, 0
0, 0
0, 0
0, 0
1, 0
0, 0
0, 0
0, 1
0, 0
0, 0
0, 1
0, 0
0, 0
0, 0
0, 0
0, 0
0, 0
0, 0
0, 0
0, 0
1, 0
0, 0
0, 0
0, 0
0, 0
0, 0
0, 0
1, 0
0, 0
0, 0
0, 0
0, 0
0, 0
0, 0
0, 0
0, 0
0, 0
0, 0
0, 0
0, 0
0, 0
0, 0
0, 0
0, 0
0, 0
0, 0
0, 0
0, 0
0, 0
0, 0
0, 0
0, 0
0, 0
0, 0
0, 0
0, 0
0, 0
0, 0
0, 0
1, 0
0, 0
0, 1
0, 0
0, 0
0, 0
0, 0
0, 0
0, 0
0, 0
0, 0
0, 0
0, 0
0, 0
0, 0
0, 0
0, 0
0, 0
0, 0
0, 0
0, 0
0, 0
0, 0
0, 0
0, 0
0, 0
0, 0
0, 0
0, 0
0, 0
0, 0
0, 0
0, 0
0, 0
0, 0
0, 0
0, 0
0, 0
0, 0
0, 0
0, 0
0, 0
0, 0
0, 0
0, 0
0, 0
0, 0
0, 0
0, 0
0, 0
0, 0
0, 0
0, 0
0, 0
0, 0
0, 0
0, 0
0, 0
0, 0
0, 0
0, 0
0, 0
0, 0
0, 0
0, 0
0, 0
0, 0
0, 0
0, 0
0, 0
0, 0
0, 0
0, 0
0, 0
0, 0
0, 0
0, 0
0, 0
0, 0
0, 0
0, 0
0, 0
0, 0
0, 0
0, 0
0, 0
0, 0
0, 0
0, 0
0, 0
0, 0
0, 0
0, 0
0, 0
0, 0
0, 0
0, 0
0, 0
0, 0
0, 0
0, 0
0, 0
0, 0
0, 0
0, 0
0, 0
0, 0
0, 0
0, 0
0, 0
0, 0
0, 0
0, 0
0, 0
0, 0
0, 0
0, 0
0, 0
0, 0
0, 0
0, 0
0, 0
0, 0
0, 0
0, 0
0, 0
0, 0
0, 0
0, 0
0, 0
0, 0
0, 0
0, 0
0, 0
0, 0
0, 0
0, 0
0, 0
0, 0
0, 0
0, 0
0, 0
0, 0
0, 0
0, 0
0, 0
0, 0
0, 0
0, 0
0, 0
0, 0
0, 0
0, 0
0, 0
0, 0
0, 0
0, 0
0, 0
0, 0
0, 0
0, 0
0, 0
0, 0
0, 0
0, 0
0, 0
0, 0
0, 0
0, 0
0, 0
0, 0
0, 0
0, 0
0, 0
0, 0
0, 0
0, 0
0, 0
0, 0
0, 0
0, 0
0, 0
0, 0
0, 0
0, 0
0, 0
0, 0
0, 0
0, 0
0, 0
0, 0
0, 0
0, 0
0, 0
0, 0
0, 0
0, 0
0, 0
0, 0
0, 0
0, 0
0, 0
0, 0
0, 0
0, 0
0, 0
0, 0
0, 0
0, 0
0, 0
0, 0
0, 0
0, 0
0, 0
0, 0
0, 0
0, 0
0, 0
0, 0
0, 0
0, 0
0, 0
0, 0
0, 0
0, 0
0, 0
0, 0
0, 0
0, 0
0, 0
0, 0
0, 0
0, 0
0, 0
0, 0
0, 0
0, 0
0, 0
0, 0
0, 0
0, 0
0, 0
0, 0
0, 0
0, 0
0, 0
0, 0
0, 0
0, 0
0, 0
0, 0
0, 0
0, 0
0, 0
0, 0
0, 0
0, 0
0, 0
0, 0
0, 0
0, 0
0, 0
0, 0
0, 0
0, 0
0, 0
0, 0
0, 0
0, 0
0, 0
0, 0
0, 0
0, 0
0, 0
0, 0
0, 0
0, 0
0, 0
0, 0
0, 0
0, 0
0, 0
0, 0
0, 0
0, 0
0, 0
0, 0
0, 0
0, 0
0, 0
0, 0
0, 0
0, 0
0, 0
0, 0
0, 0
0, 0
0, 0
0, 0
0, 0
0, 0
0, 0
0, 0
0, 0
0, 0
0, 0
0, 0
0, 0
0, 0
0, 0
0, 0
0, 0
0, 0
0, 0
0, 0
0, 0
0, 0
0, 0
0, 0
0, 0
0, 0
0, 0
0, 0
0, 0
0, 0
0, 0
0, 0
0, 0
0, 0
0, 0
0, 0
0, 0
0, 0
0, 0
0, 0
0, 0
0, 0
0, 0
0, 0
0, 0
0, 0
0, 0
0, 0
0, 0
0, 0
0, 0
0, 0
0, 0
0, 0
0, 0
0, 0
0, 0
0, 0
0, 0
0, 0
0, 0
0, 0
0, 0
0, 0
0, 0
0, 0
0, 0
0, 0
0, 0
0, 0
0, 0
0, 0
0, 0
0, 0
0, 0
0, 0
0, 0
0, 0
0, 0
0, 0
0, 0
0, 0
0, 0
0, 0
0, 0
0, 0
0, 0
0, 0
0, 0
0, 0
0, 0
0, 0
0, 0
0, 0
0, 0
0, 0
0, 0
0, 0
0, 0
0, 0
0, 0
0, 0
0, 0
0, 0
0, 0
0, 0
0, 0
0, 0
0, 0
0, 0
0, 0
0, 0
0, 0
0, 0
0, 0
0, 0
0, 0
0, 0
0, 0
0, 0
0, 0
0, 0
0, 0
0, 0
0, 0
0, 0
0, 0
0, 0
0, 0
0, 0
0, 0
#ENDOFDATA     end of spectrum data