File: host_upload/12-01-2023/Dourbes (shot-by-shot)/upload_4/ps__0257_0689790785_000rfs_shot_3058.msa
#FORMAT      : EMSA/MAS spectral data file
#VERSION     : TC202v2.0 PIXL
#TITLE       : N/A
#DATE        :       Date in the format DD-MMM-YYYY, for example 07-JUL-2010
#TIME        :             The time of day at which the spectrum was recorded, in 24-hour format
#OWNER       : PIXL Flight Model       (PIXL will use this to indicate which instrument took the data.)
#NPOINTS     : 4096     Number of data points in the spectrum (This can be zero for configuration only files)
#NCOLUMNS    : 2     Number of data columns in the spectrum (This can be zero for configuration only files)
#XUNITS      : eV
#YUNITS      : COUNTS
#DATATYPE    : YY
#XPERCHAN    : 7.862, 7.881   eV per channel (separate by commas if more than one detector)
#OFFSET      : 18.5, -22.4         eV of first channel  (separate by commas if more than one detector
#SIGNALTYPE  : XRF
#YP_TEMP     : 2.909
#LIVETIME    : 9.12887, 9.12029   seconds (separate by commas if more than one detector)
#REALTIME    : 10, 10.0   seconds (separate by commas if more than one detector)
#SPECTRUM    : start of spectrum data
0, 0
0, 0
0, 0
0, 0
0, 0
0, 0
0, 0
0, 0
0, 0
0, 0
0, 0
0, 0
0, 0
0, 0
0, 0
0, 0
0, 0
0, 0
0, 0
0, 0
0, 0
0, 0
0, 0
0, 0
0, 0
0, 0
0, 0
0, 0
0, 0
0, 0
0, 0
0, 0
0, 0
0, 0
1, 1
0, 1
2, 0
3, 2
2, 1
3, 2
2, 3
1, 2
1, 0
6, 3
3, 8
3, 1
2, 2
6, 5
3, 5
7, 7
14, 9
27, 19
25, 25
38, 35
32, 46
22, 39
24, 36
16, 19
8, 12
4, 5
15, 17
20, 27
32, 39
36, 36
37, 25
35, 39
37, 48
30, 27
24, 21
50, 39
101, 120
184, 258
345, 412
511, 648
664, 760
645, 757
575, 671
354, 426
256, 269
132, 129
74, 70
56, 32
39, 34
28, 27
34, 49
42, 38
54, 57
55, 54
33, 51
33, 19
17, 20
18, 19
9, 8
11, 3
20, 16
22, 40
53, 48
58, 60
80, 78
79, 96
71, 60
51, 56
39, 36
21, 25
14, 8
13, 14
13, 21
29, 25
29, 53
56, 64
85, 83
139, 134
158, 125
167, 130
170, 139
154, 100
121, 76
112, 63
75, 45
55, 47
49, 62
40, 36
44, 41
28, 33
32, 26
25, 31
18, 18
16, 25
12, 14
11, 17
8, 8
8, 7
8, 4
9, 3
4, 5
7, 8
11, 15
24, 24
34, 34
61, 71
41, 63
69, 72
49, 65
42, 66
35, 48
19, 24
16, 17
11, 9
9, 10
12, 12
15, 13
26, 25
44, 38
63, 73
115, 135
138, 147
188, 208
178, 224
200, 211
156, 182
117, 133
73, 81
43, 61
21, 35
24, 32
8, 13
9, 19
16, 9
17, 27
22, 28
23, 38
25, 22
31, 24
18, 20
19, 17
11, 16
18, 13
10, 13
9, 6
2, 11
6, 5
4, 9
9, 13
8, 11
8, 3
7, 7
6, 12
6, 13
12, 14
17, 15
19, 22
10, 23
12, 18
17, 28
21, 25
13, 23
11, 25
14, 22
14, 19
6, 22
14, 21
12, 17
7, 17
9, 21
7, 21
8, 21
10, 15
9, 27
6, 35
15, 27
7, 32
12, 28
8, 23
9, 18
14, 18
6, 20
12, 19
18, 10
13, 12
18, 13
17, 10
19, 14
18, 17
15, 11
15, 11
25, 10
30, 4
25, 9
20, 9
29, 2
27, 10
15, 11
23, 7
12, 13
13, 10
5, 6
8, 7
6, 8
9, 9
12, 10
0, 11
6, 11
8, 8
5, 15
19, 16
18, 24
21, 27
21, 43
30, 48
38, 68
45, 55
46, 54
47, 49
35, 34
28, 40
20, 32
30, 18
23, 20
15, 18
15, 17
15, 22
19, 24
30, 34
44, 68
74, 122
167, 224
306, 449
525, 702
812, 1105
1180, 1483
1461, 1866
1705, 2123
1888, 2156
1716, 1964
1512, 1573
1199, 1261
814, 793
530, 504
327, 279
189, 143
90, 85
50, 43
29, 36
18, 14
29, 15
23, 26
15, 12
14, 14
21, 17
24, 15
28, 29
31, 21
42, 41
62, 69
82, 94
108, 137
178, 208
231, 266
255, 337
275, 333
262, 308
239, 277
231, 235
188, 164
122, 112
75, 82
53, 45
32, 25
14, 20
14, 8
13, 6
3, 6
4, 9
9, 11
5, 7
9, 14
13, 9
15, 6
15, 12
13, 10
10, 9
10, 7
4, 5
9, 9
11, 9
8, 14
6, 9
4, 8
5, 8
7, 3
2, 5
0, 6
1, 8
7, 10
1, 5
10, 4
6, 4
5, 3
4, 5
3, 8
4, 7
7, 9
4, 3
7, 12
7, 8
6, 7
2, 6
8, 6
4, 4
3, 10
4, 6
1, 4
13, 5
3, 6
8, 8
3, 12
6, 9
3, 6
9, 1
13, 8
12, 12
8, 9
5, 8
5, 4
11, 9
5, 8
10, 5
4, 5
3, 8
7, 4
5, 4
9, 3
9, 7
5, 10
4, 4
8, 6
14, 4
7, 9
7, 6
9, 6
4, 7
8, 7
0, 4
2, 9
9, 7
4, 5
8, 10
5, 11
7, 6
6, 5
5, 6
2, 5
6, 1
6, 4
3, 7
3, 6
7, 3
6, 4
6, 10
3, 7
9, 7
3, 7
5, 9
4, 9
7, 5
5, 6
8, 7
3, 6
4, 5
5, 7
1, 10
7, 1
4, 6
4, 6
4, 3
5, 5
5, 3
3, 5
4, 4
7, 3
4, 5
6, 5
6, 4
6, 5
5, 4
2, 10
0, 9
1, 3
2, 8
6, 4
7, 8
6, 5
3, 3
3, 5
2, 5
4, 3
1, 5
5, 7
1, 4
1, 4
5, 4
5, 4
6, 8
5, 8
8, 2
3, 3
1, 2
5, 3
3, 3
5, 1
5, 4
0, 5
3, 1
3, 7
5, 5
9, 3
2, 5
3, 6
0, 5
2, 4
3, 8
2, 1
5, 3
4, 3
2, 2
1, 2
4, 0
1, 2
7, 1
2, 2
3, 5
2, 2
2, 3
4, 3
2, 2
3, 4
1, 4
2, 2
2, 1
3, 5
0, 4
3, 3
3, 3
1, 2
2, 1
2, 4
1, 2
1, 4
1, 5
2, 2
2, 2
1, 4
2, 6
2, 1
4, 4
4, 7
0, 2
3, 2
2, 3
2, 4
4, 4
6, 2
3, 4
0, 2
1, 5
3, 2
2, 7
2, 4
1, 2
3, 2
2, 1
0, 5
1, 2
0, 2
0, 3
2, 1
3, 4
2, 1
0, 0
2, 1
0, 2
1, 5
2, 1
3, 5
3, 3
3, 1
1, 0
0, 3
1, 0
2, 1
2, 2
4, 3
1, 3
1, 2
0, 1
3, 0
3, 1
0, 1
5, 4
5, 1
5, 4
1, 3
1, 5
4, 4
0, 3
1, 1
4, 4
3, 3
3, 3
1, 2
2, 0
1, 2
3, 3
0, 3
2, 1
0, 1
2, 1
1, 4
0, 2
2, 0
1, 2
1, 2
3, 1
1, 2
2, 0
4, 0
0, 3
1, 2
1, 3
1, 0
0, 2
0, 4
1, 2
1, 2
4, 1
1, 1
1, 0
0, 2
2, 2
1, 2
1, 1
0, 1
2, 2
1, 1
1, 1
2, 2
0, 1
0, 1
0, 1
0, 0
0, 0
1, 3
0, 0
0, 2
0, 1
1, 4
2, 0
0, 0
0, 3
0, 1
1, 2
1, 2
0, 3
4, 1
0, 2
0, 1
1, 2
0, 1
0, 2
1, 3
1, 0
0, 3
0, 6
1, 1
0, 0
2, 1
1, 4
2, 2
1, 4
3, 0
0, 1
0, 0
1, 4
1, 2
1, 0
0, 0
1, 2
1, 1
0, 1
0, 2
1, 0
1, 1
1, 0
0, 0
0, 1
1, 2
0, 1
1, 2
0, 1
0, 2
0, 0
0, 0
0, 0
0, 2
0, 1
0, 1
0, 0
1, 1
1, 0
1, 1
0, 0
2, 0
2, 0
0, 0
0, 0
0, 1
0, 0
1, 2
0, 2
0, 0
0, 1
2, 1
2, 0
0, 1
2, 2
1, 0
2, 0
0, 5
0, 2
0, 1
0, 0
1, 0
0, 0
3, 1
0, 1
1, 1
0, 1
1, 0
0, 1
0, 2
0, 0
0, 1
0, 0
0, 0
0, 0
0, 0
1, 4
0, 2
0, 0
0, 3
1, 1
1, 0
0, 0
0, 2
0, 0
0, 0
0, 2
0, 0
0, 0
0, 0
0, 1
1, 0
1, 0
0, 0
0, 0
1, 1
1, 0
0, 1
0, 1
0, 0
0, 0
1, 1
1, 0
0, 0
0, 1
0, 0
1, 1
0, 0
0, 0
0, 0
0, 0
0, 0
0, 0
1, 0
1, 0
0, 1
0, 1
0, 0
0, 1
0, 0
0, 0
0, 0
0, 0
0, 1
0, 0
0, 0
0, 0
0, 0
1, 1
0, 0
1, 0
0, 0
0, 0
0, 1
0, 1
1, 0
0, 1
0, 0
0, 0
0, 0
0, 0
0, 0
0, 1
0, 0
1, 1
0, 0
0, 0
0, 0
0, 0
0, 0
1, 1
0, 0
0, 0
1, 0
0, 0
0, 0
0, 1
0, 0
0, 0
1, 0
0, 0
0, 1
0, 1
0, 0
0, 0
1, 0
0, 1
1, 1
1, 0
0, 0
0, 0
1, 0
0, 0
0, 0
1, 0
0, 0
0, 0
0, 0
1, 0
1, 0
0, 0
0, 1
0, 0
0, 0
0, 0
0, 0
0, 0
0, 0
0, 1
1, 1
0, 0
0, 0
0, 1
0, 0
0, 0
0, 1
0, 0
1, 1
0, 0
0, 0
0, 0
0, 0
0, 0
0, 0
0, 0
0, 0
0, 0
0, 0
0, 0
0, 0
0, 1
0, 0
0, 0
0, 0
1, 1
0, 0
0, 0
0, 0
0, 1
0, 0
0, 0
0, 1
0, 0
0, 0
0, 0
0, 0
1, 0
0, 0
1, 0
0, 0
0, 0
0, 0
0, 0
0, 0
0, 0
0, 0
0, 0
0, 0
0, 0
0, 0
1, 0
1, 0
1, 0
0, 1
0, 0
0, 0
1, 1
0, 1
0, 0
0, 0
0, 0
0, 0
0, 0
0, 0
0, 0
0, 0
0, 0
0, 0
0, 0
0, 0
0, 1
0, 0
0, 0
0, 0
0, 0
0, 0
0, 0
0, 0
0, 0
0, 0
0, 1
0, 0
0, 0
0, 0
0, 0
0, 0
0, 0
0, 0
0, 0
0, 1
0, 0
0, 0
0, 1
0, 0
0, 0
0, 0
0, 0
0, 0
0, 0
0, 0
0, 0
0, 0
0, 0
0, 0
0, 0
0, 0
0, 0
0, 0
0, 0
0, 0
0, 0
0, 0
0, 0
0, 0
0, 0
0, 0
0, 0
0, 0
0, 0
0, 0
0, 0
0, 0
0, 0
0, 0
0, 0
0, 0
0, 0
0, 0
0, 0
0, 0
0, 0
0, 0
0, 0
0, 0
0, 0
0, 0
1, 0
0, 0
0, 0
0, 0
0, 0
0, 0
0, 0
0, 0
0, 0
0, 0
0, 0
0, 0
0, 0
0, 0
0, 0
0, 0
0, 0
0, 0
0, 0
0, 0
0, 0
0, 0
0, 0
0, 0
0, 0
0, 0
0, 0
0, 0
0, 0
0, 0
0, 0
0, 0
0, 0
0, 0
0, 0
0, 0
0, 0
0, 0
0, 0
0, 0
0, 0
0, 0
0, 0
0, 1
0, 0
0, 0
0, 0
0, 0
0, 0
0, 0
0, 0
0, 0
0, 0
0, 0
0, 0
0, 0
0, 0
0, 0
0, 0
0, 0
0, 0
0, 0
0, 0
0, 0
0, 0
0, 0
0, 0
0, 0
0, 0
0, 0
0, 0
0, 0
1, 0
0, 0
0, 0
0, 0
0, 0
0, 0
0, 0
0, 0
0, 0
0, 0
0, 0
0, 0
0, 0
0, 0
0, 0
0, 0
0, 0
0, 0
0, 0
0, 0
0, 0
0, 0
0, 0
0, 0
0, 0
0, 0
0, 0
0, 0
0, 0
0, 0
0, 0
0, 0
0, 1
0, 0
0, 0
0, 0
0, 0
0, 0
0, 0
0, 0
0, 0
0, 0
0, 0
0, 0
0, 0
0, 0
0, 0
0, 0
0, 0
0, 0
0, 0
0, 0
0, 0
0, 0
0, 0
0, 0
0, 0
0, 0
0, 0
0, 0
0, 0
0, 0
0, 0
0, 0
0, 0
0, 0
0, 0
0, 0
0, 0
0, 0
0, 0
0, 0
0, 0
0, 0
0, 0
0, 0
0, 0
0, 0
0, 0
0, 0
0, 0
0, 0
0, 0
0, 0
0, 0
0, 0
0, 0
0, 0
0, 0
0, 0
0, 0
0, 0
0, 0
0, 0
0, 0
0, 0
0, 0
0, 0
0, 0
0, 0
0, 0
0, 0
0, 0
0, 0
0, 0
0, 0
0, 0
0, 0
0, 0
0, 0
0, 0
0, 0
0, 0
0, 0
0, 0
0, 0
0, 0
0, 0
0, 0
0, 0
0, 0
0, 0
0, 0
0, 0
0, 0
0, 0
0, 0
0, 0
0, 0
0, 0
0, 0
0, 0
0, 0
0, 0
0, 0
0, 0
0, 0
0, 0
0, 0
0, 0
0, 0
0, 0
0, 0
0, 0
0, 0
0, 0
0, 0
0, 0
0, 0
0, 0
0, 0
0, 0
0, 0
0, 0
0, 0
0, 0
0, 0
0, 0
0, 0
0, 0
0, 0
0, 0
0, 0
0, 0
0, 0
0, 0
0, 0
0, 0
0, 0
0, 0
0, 0
0, 0
0, 0
0, 0
0, 0
0, 0
0, 0
0, 0
0, 0
0, 0
0, 0
0, 0
0, 0
0, 0
0, 0
0, 0
0, 0
0, 0
0, 0
0, 0
0, 0
0, 0
0, 0
0, 0
0, 0
0, 0
0, 0
0, 0
0, 0
0, 0
0, 0
0, 0
0, 0
0, 0
0, 0
0, 0
0, 0
0, 0
0, 0
0, 0
0, 0
0, 0
0, 0
0, 0
0, 0
0, 0
0, 0
0, 0
0, 0
0, 0
0, 0
0, 0
0, 0
0, 0
0, 0
0, 0
0, 0
0, 0
0, 0
0, 0
0, 0
0, 0
0, 0
0, 0
0, 0
0, 0
0, 0
0, 0
0, 0
0, 0
0, 0
0, 0
0, 0
0, 0
0, 0
0, 0
0, 0
0, 0
0, 0
0, 0
0, 0
0, 0
0, 0
0, 0
0, 0
0, 0
0, 0
0, 0
0, 0
0, 0
0, 0
0, 0
0, 0
0, 0
0, 0
0, 0
0, 0
0, 0
0, 0
0, 0
0, 0
0, 0
0, 0
0, 0
0, 0
0, 0
0, 0
0, 0
0, 0
0, 0
0, 0
0, 0
0, 0
0, 0
0, 0
0, 0
0, 0
0, 0
0, 0
0, 0
0, 0
0, 0
0, 0
0, 0
0, 0
0, 0
0, 0
0, 0
0, 0
0, 0
0, 0
0, 0
0, 0
0, 0
0, 0
0, 0
0, 0
0, 0
0, 0
0, 0
0, 0
0, 0
0, 0
0, 0
0, 0
0, 0
0, 0
0, 0
0, 0
0, 0
0, 0
0, 0
0, 0
0, 0
0, 0
0, 0
0, 0
0, 0
0, 0
0, 0
0, 0
0, 0
0, 0
0, 0
0, 0
0, 0
0, 0
0, 0
0, 0
0, 0
0, 0
0, 0
0, 0
0, 0
0, 0
0, 0
0, 0
0, 0
0, 0
0, 0
0, 0
0, 0
0, 0
0, 0
0, 0
0, 0
0, 0
0, 0
#ENDOFDATA     end of spectrum data