File: host_upload/12-01-2023/Dourbes (shot-by-shot)/upload_4/ps__0257_0689790785_000rfs_shot_3274.msa
#FORMAT      : EMSA/MAS spectral data file
#VERSION     : TC202v2.0 PIXL
#TITLE       : N/A
#DATE        :       Date in the format DD-MMM-YYYY, for example 07-JUL-2010
#TIME        :             The time of day at which the spectrum was recorded, in 24-hour format
#OWNER       : PIXL Flight Model       (PIXL will use this to indicate which instrument took the data.)
#NPOINTS     : 4096     Number of data points in the spectrum (This can be zero for configuration only files)
#NCOLUMNS    : 2     Number of data columns in the spectrum (This can be zero for configuration only files)
#XUNITS      : eV
#YUNITS      : COUNTS
#DATATYPE    : YY
#XPERCHAN    : 7.862, 7.881   eV per channel (separate by commas if more than one detector)
#OFFSET      : 18.5, -22.4         eV of first channel  (separate by commas if more than one detector
#SIGNALTYPE  : XRF
#YP_TEMP     : 3.647
#LIVETIME    : 9.13553, 9.12124   seconds (separate by commas if more than one detector)
#REALTIME    : 10, 10.0   seconds (separate by commas if more than one detector)
#SPECTRUM    : start of spectrum data
0, 0
0, 0
0, 0
0, 0
0, 0
0, 0
0, 0
0, 0
0, 0
0, 0
0, 0
0, 0
0, 0
0, 0
0, 0
0, 0
0, 0
0, 0
0, 0
0, 0
0, 0
0, 0
0, 0
0, 0
0, 0
0, 0
0, 0
0, 0
0, 0
0, 0
0, 0
0, 1
0, 0
0, 0
0, 0
0, 0
1, 0
0, 0
1, 3
0, 0
0, 2
1, 3
2, 1
1, 0
3, 2
0, 7
2, 2
3, 1
2, 3
6, 6
6, 12
16, 30
39, 25
34, 45
41, 55
26, 42
27, 34
13, 13
12, 11
7, 7
9, 4
12, 5
14, 12
14, 14
19, 16
15, 21
19, 11
15, 10
17, 23
46, 58
119, 105
237, 226
482, 445
613, 631
754, 741
727, 802
647, 582
433, 477
296, 271
147, 157
86, 65
34, 47
29, 19
31, 16
18, 18
9, 12
9, 5
4, 9
7, 6
3, 8
0, 18
3, 22
6, 26
3, 24
1, 31
4, 30
7, 15
4, 19
6, 14
4, 6
8, 9
2, 9
4, 7
4, 3
6, 2
5, 8
5, 5
13, 8
6, 10
16, 18
19, 22
19, 36
36, 39
52, 49
54, 54
53, 42
48, 52
33, 41
31, 40
20, 37
19, 24
21, 26
18, 22
18, 16
12, 25
16, 18
10, 27
10, 26
6, 23
5, 20
11, 17
2, 9
1, 6
0, 2
1, 2
7, 3
4, 3
8, 6
6, 4
4, 7
1, 6
4, 6
7, 8
3, 5
9, 5
6, 5
8, 5
3, 7
15, 5
18, 14
28, 44
85, 93
152, 184
314, 335
454, 533
645, 722
852, 973
913, 1019
850, 892
707, 729
500, 495
330, 285
181, 154
101, 70
60, 50
39, 38
43, 56
68, 80
93, 95
125, 139
152, 141
146, 160
126, 139
98, 96
78, 89
43, 40
20, 31
20, 14
5, 11
10, 9
4, 13
3, 17
4, 19
5, 44
2, 25
9, 56
3, 39
6, 44
17, 44
26, 42
28, 56
51, 42
31, 27
30, 29
25, 42
21, 15
20, 16
14, 14
10, 14
10, 7
10, 12
13, 8
9, 8
10, 2
7, 5
3, 6
4, 9
8, 6
9, 15
16, 11
14, 12
13, 9
11, 12
4, 5
8, 12
4, 9
6, 9
9, 10
7, 12
5, 7
6, 9
9, 7
18, 8
18, 8
41, 11
49, 15
51, 19
67, 23
66, 43
89, 46
87, 42
85, 49
82, 38
57, 34
43, 27
28, 26
11, 22
7, 9
6, 11
5, 9
4, 10
10, 6
4, 5
8, 9
10, 14
17, 12
19, 16
24, 32
39, 51
45, 66
54, 65
53, 53
50, 58
48, 51
36, 41
31, 27
18, 23
33, 19
38, 14
50, 11
72, 19
90, 14
119, 42
152, 55
202, 96
282, 178
365, 324
508, 556
740, 817
1001, 1127
1239, 1432
1431, 1623
1484, 1578
1346, 1478
1189, 1229
907, 986
661, 676
421, 472
250, 294
115, 242
69, 152
23, 116
15, 79
19, 44
9, 33
10, 14
7, 5
9, 8
15, 11
8, 17
11, 18
15, 33
23, 39
38, 45
64, 72
93, 111
112, 158
170, 206
202, 242
223, 226
236, 194
178, 204
175, 157
142, 155
102, 92
61, 36
30, 31
17, 18
8, 24
7, 16
4, 16
5, 14
6, 14
9, 3
12, 6
15, 6
12, 5
30, 8
15, 10
14, 6
15, 4
18, 5
15, 8
12, 6
4, 2
7, 4
3, 3
7, 7
4, 7
2, 4
2, 4
6, 3
7, 6
6, 7
5, 4
5, 5
9, 3
4, 4
7, 3
6, 1
7, 3
5, 3
3, 4
1, 4
7, 6
5, 4
4, 5
5, 5
7, 3
4, 8
6, 5
5, 4
7, 8
7, 12
4, 6
9, 11
4, 7
6, 4
8, 3
1, 3
3, 4
3, 4
1, 9
2, 4
3, 7
5, 3
7, 13
1, 10
5, 7
7, 11
3, 14
2, 10
6, 4
0, 4
5, 8
2, 5
3, 4
3, 7
6, 1
1, 4
2, 8
4, 4
3, 2
8, 3
3, 4
3, 4
9, 3
5, 1
5, 4
3, 9
2, 7
4, 7
6, 11
11, 12
4, 16
3, 24
8, 18
7, 25
4, 32
10, 37
10, 55
6, 43
6, 47
3, 53
5, 47
4, 28
4, 31
4, 16
5, 14
4, 12
2, 4
3, 6
0, 5
5, 4
0, 3
4, 8
5, 3
7, 1
7, 4
2, 5
5, 3
4, 3
2, 2
3, 2
1, 3
6, 1
7, 6
4, 6
7, 5
6, 7
4, 7
6, 4
4, 9
7, 6
4, 7
8, 8
2, 6
4, 10
7, 5
3, 2
4, 6
3, 4
2, 8
5, 5
2, 3
1, 5
1, 1
4, 3
3, 4
3, 3
2, 5
1, 3
2, 7
2, 3
2, 3
3, 4
2, 4
3, 4
2, 3
6, 5
4, 2
3, 4
5, 3
2, 2
1, 3
3, 2
1, 5
3, 0
2, 1
3, 1
1, 0
3, 1
6, 0
5, 3
1, 2
0, 2
2, 0
4, 6
4, 1
5, 2
6, 1
4, 3
2, 4
2, 2
6, 5
7, 3
9, 2
9, 1
11, 0
9, 4
7, 1
13, 4
12, 3
11, 1
21, 1
12, 1
11, 4
5, 1
8, 3
7, 4
6, 3
7, 2
3, 1
3, 1
2, 0
2, 1
3, 1
2, 1
4, 0
3, 3
1, 6
2, 3
1, 3
4, 1
1, 5
1, 1
1, 3
3, 1
1, 2
2, 3
1, 2
5, 1
3, 1
1, 3
1, 1
4, 5
5, 4
3, 1
1, 3
1, 4
2, 1
1, 2
2, 3
2, 2
1, 1
3, 4
2, 0
2, 2
4, 2
2, 2
1, 2
2, 2
3, 2
4, 0
2, 3
1, 4
2, 2
2, 3
0, 3
0, 2
2, 0
2, 2
2, 2
0, 0
0, 0
3, 1
1, 5
4, 0
3, 1
0, 1
1, 1
1, 1
3, 1
4, 0
3, 3
4, 0
4, 1
0, 2
0, 1
1, 0
0, 1
2, 1
2, 4
1, 1
2, 0
3, 0
0, 2
1, 0
0, 0
4, 1
1, 2
1, 0
4, 2
2, 0
0, 1
2, 0
0, 2
3, 1
1, 0
0, 1
0, 1
0, 1
2, 1
0, 0
1, 0
0, 0
1, 0
2, 0
2, 1
2, 3
2, 2
0, 1
0, 2
1, 1
1, 1
2, 1
1, 1
0, 0
1, 1
1, 1
0, 0
0, 0
0, 0
1, 0
0, 1
1, 0
0, 1
1, 1
3, 1
1, 0
1, 0
0, 1
0, 0
0, 0
1, 2
0, 0
1, 1
0, 1
0, 0
0, 0
1, 0
0, 1
1, 1
1, 0
0, 1
0, 0
0, 0
0, 0
1, 0
0, 1
1, 2
1, 1
1, 0
2, 0
1, 1
1, 1
1, 1
1, 2
0, 1
1, 1
0, 1
0, 1
0, 0
1, 0
0, 1
0, 0
2, 0
0, 0
0, 0
0, 0
1, 1
1, 1
0, 0
0, 0
0, 0
0, 2
0, 1
1, 1
0, 0
0, 0
3, 0
0, 0
0, 1
0, 0
1, 0
0, 2
1, 0
1, 0
1, 0
1, 0
0, 0
0, 0
2, 1
0, 0
0, 1
0, 0
0, 0
1, 1
0, 0
0, 1
0, 0
0, 1
1, 0
0, 1
0, 0
0, 0
0, 0
0, 0
0, 0
0, 0
1, 1
0, 0
0, 0
1, 0
0, 0
1, 0
0, 0
0, 1
0, 0
1, 1
0, 0
0, 0
0, 0
0, 0
0, 0
0, 0
0, 0
1, 1
0, 0
0, 0
1, 1
0, 1
0, 0
0, 0
0, 0
0, 0
1, 0
0, 0
2, 0
0, 1
3, 0
1, 0
0, 0
0, 2
0, 0
0, 1
0, 1
0, 1
0, 0
0, 0
0, 0
0, 1
0, 0
0, 0
0, 0
1, 0
0, 0
0, 0
0, 1
0, 1
0, 0
0, 0
1, 0
0, 0
0, 0
0, 1
1, 0
1, 2
0, 0
1, 0
0, 1
0, 0
0, 0
0, 0
0, 1
0, 1
0, 0
0, 0
0, 0
1, 0
0, 0
0, 0
0, 1
1, 0
0, 1
0, 1
0, 1
0, 0
0, 0
0, 0
0, 0
0, 1
0, 1
0, 0
0, 0
0, 0
0, 1
1, 1
0, 0
0, 0
0, 1
0, 0
0, 0
0, 2
0, 1
0, 0
0, 0
0, 0
0, 0
0, 0
0, 0
0, 0
0, 0
0, 1
0, 0
0, 1
1, 1
0, 0
1, 0
1, 0
1, 0
1, 0
0, 0
0, 0
0, 1
0, 2
0, 0
1, 0
0, 0
0, 0
0, 0
0, 0
1, 0
0, 0
0, 0
0, 0
0, 0
0, 0
0, 0
0, 0
1, 0
0, 0
1, 0
0, 0
1, 0
0, 0
0, 0
0, 0
0, 1
0, 0
0, 1
1, 0
0, 0
0, 1
0, 0
0, 0
0, 0
0, 0
0, 0
1, 1
0, 1
0, 0
0, 0
0, 0
0, 0
0, 0
0, 0
0, 0
0, 1
0, 0
1, 1
0, 0
1, 0
1, 0
0, 0
0, 0
0, 0
0, 0
0, 0
0, 0
0, 0
1, 0
0, 0
0, 0
0, 0
0, 0
0, 0
0, 1
0, 0
0, 0
0, 0
0, 0
0, 0
0, 0
0, 0
1, 0
0, 0
0, 0
0, 1
1, 0
0, 0
1, 0
0, 0
0, 0
0, 0
0, 0
0, 0
0, 0
0, 0
0, 0
0, 0
0, 0
0, 0
0, 0
0, 0
0, 0
0, 0
0, 1
0, 0
0, 0
0, 0
0, 0
0, 0
0, 0
0, 0
1, 0
0, 0
0, 0
0, 0
0, 0
0, 0
0, 0
0, 0
0, 0
0, 0
0, 0
0, 0
0, 0
0, 0
0, 0
0, 0
0, 0
0, 0
0, 0
0, 0
0, 0
0, 0
0, 0
0, 0
0, 0
0, 0
0, 0
0, 0
1, 0
0, 0
0, 0
0, 0
0, 0
0, 0
0, 0
0, 0
0, 0
0, 0
0, 0
0, 0
0, 0
1, 0
0, 0
0, 0
0, 0
0, 0
0, 0
0, 0
0, 0
0, 0
0, 0
0, 0
0, 0
0, 1
0, 0
0, 0
0, 0
0, 0
0, 0
0, 0
0, 0
0, 0
0, 0
1, 0
0, 0
0, 0
0, 0
0, 0
0, 0
0, 0
0, 0
0, 0
0, 0
0, 0
0, 0
0, 0
0, 0
0, 0
0, 0
0, 0
0, 0
0, 0
0, 0
0, 0
0, 0
0, 0
0, 0
0, 0
0, 0
0, 0
0, 0
0, 0
0, 0
0, 0
0, 0
0, 0
0, 0
0, 0
0, 0
0, 0
0, 0
0, 0
0, 0
0, 0
0, 0
0, 0
0, 0
0, 0
0, 0
0, 0
0, 0
0, 0
0, 0
0, 0
0, 0
0, 0
0, 0
0, 0
0, 0
0, 0
0, 0
0, 0
0, 0
0, 0
0, 0
0, 0
0, 0
0, 0
0, 0
0, 0
0, 0
0, 0
0, 0
0, 0
0, 0
0, 0
0, 0
0, 0
0, 0
0, 0
0, 0
0, 0
0, 0
0, 0
0, 0
0, 0
0, 0
0, 0
0, 0
0, 0
0, 0
0, 0
0, 0
0, 0
0, 0
0, 0
0, 0
0, 0
0, 0
0, 0
0, 0
0, 0
0, 0
0, 0
0, 0
0, 0
0, 0
0, 0
0, 0
0, 0
0, 0
0, 0
0, 0
0, 0
0, 0
0, 0
0, 0
0, 0
0, 0
0, 0
0, 0
0, 0
0, 0
0, 0
0, 0
0, 0
0, 0
0, 0
0, 0
0, 0
0, 0
0, 0
0, 0
0, 0
0, 0
0, 0
0, 0
0, 0
0, 0
0, 0
0, 0
0, 0
0, 0
0, 0
0, 0
0, 0
0, 0
0, 0
0, 0
0, 0
0, 0
0, 0
0, 0
0, 0
0, 0
0, 0
0, 0
0, 0
0, 0
0, 0
0, 0
0, 0
0, 0
0, 0
0, 0
0, 0
0, 0
0, 0
0, 0
0, 0
0, 0
0, 0
0, 0
0, 0
0, 0
0, 0
0, 0
0, 0
0, 0
0, 0
0, 0
0, 0
0, 0
0, 0
0, 0
0, 0
0, 0
0, 0
0, 0
0, 0
0, 0
0, 0
0, 0
0, 0
0, 0
0, 0
0, 0
0, 0
0, 0
0, 0
0, 0
0, 0
0, 0
0, 0
0, 0
0, 0
0, 0
0, 0
0, 0
0, 0
0, 0
0, 0
0, 0
0, 0
0, 0
0, 0
0, 0
0, 0
0, 0
0, 0
0, 0
0, 0
0, 0
0, 0
0, 0
0, 0
0, 0
0, 0
0, 0
0, 0
0, 0
0, 0
0, 0
0, 0
0, 0
0, 0
0, 0
0, 0
0, 0
0, 0
0, 0
0, 0
0, 0
0, 0
0, 0
0, 0
0, 0
0, 0
0, 0
0, 0
0, 0
0, 0
0, 0
0, 0
0, 0
0, 0
0, 0
0, 0
0, 0
0, 0
0, 0
0, 0
0, 0
0, 0
0, 0
0, 0
0, 0
0, 0
0, 0
0, 0
0, 0
0, 0
0, 0
0, 0
0, 0
0, 0
0, 0
0, 0
0, 0
0, 0
0, 0
0, 0
0, 0
0, 0
0, 0
0, 0
0, 0
0, 0
0, 0
0, 0
0, 0
0, 0
0, 0
0, 0
0, 0
0, 0
0, 0
0, 0
0, 0
0, 0
0, 0
0, 0
0, 0
0, 0
0, 0
0, 0
0, 0
0, 0
0, 0
0, 0
0, 0
0, 0
0, 0
0, 0
0, 0
0, 0
0, 0
0, 0
0, 0
0, 0
0, 0
0, 0
0, 0
0, 0
0, 0
0, 0
0, 0
0, 0
0, 0
0, 0
0, 0
0, 0
0, 0
0, 0
0, 0
0, 0
0, 0
0, 0
0, 0
0, 0
0, 0
0, 0
0, 0
0, 0
0, 0
0, 0
0, 0
0, 0
0, 0
0, 0
0, 0
0, 0
0, 0
0, 0
0, 0
0, 0
0, 0
0, 0
0, 0
0, 0
0, 0
0, 0
0, 0
0, 0
0, 0
0, 0
0, 0
0, 0
0, 0
0, 0
0, 0
0, 0
0, 0
0, 0
0, 0
0, 0
0, 0
0, 0
0, 0
0, 0
0, 0
0, 0
0, 0
0, 0
0, 0
0, 0
0, 0
0, 0
0, 0
0, 0
0, 0
#ENDOFDATA     end of spectrum data