File: host_upload/12-01-2023/Dourbes (shot-by-shot)/upload_4/ps__0257_0689790785_000rfs_shot_3063.msa
#FORMAT      : EMSA/MAS spectral data file
#VERSION     : TC202v2.0 PIXL
#TITLE       : N/A
#DATE        :       Date in the format DD-MMM-YYYY, for example 07-JUL-2010
#TIME        :             The time of day at which the spectrum was recorded, in 24-hour format
#OWNER       : PIXL Flight Model       (PIXL will use this to indicate which instrument took the data.)
#NPOINTS     : 4096     Number of data points in the spectrum (This can be zero for configuration only files)
#NCOLUMNS    : 2     Number of data columns in the spectrum (This can be zero for configuration only files)
#XUNITS      : eV
#YUNITS      : COUNTS
#DATATYPE    : YY
#XPERCHAN    : 7.862, 7.881   eV per channel (separate by commas if more than one detector)
#OFFSET      : 18.5, -22.4         eV of first channel  (separate by commas if more than one detector
#SIGNALTYPE  : XRF
#YP_TEMP     : 3.133
#LIVETIME    : 9.00516, 9.00745   seconds (separate by commas if more than one detector)
#REALTIME    : 10, 10.0   seconds (separate by commas if more than one detector)
#SPECTRUM    : start of spectrum data
0, 0
0, 0
0, 0
0, 0
0, 0
0, 0
0, 0
0, 0
0, 0
0, 0
0, 0
0, 0
0, 0
0, 0
0, 0
0, 0
0, 0
0, 0
0, 0
0, 0
0, 0
0, 0
0, 0
0, 0
0, 0
0, 0
0, 0
0, 0
0, 0
0, 0
0, 0
0, 1
0, 0
0, 2
0, 0
0, 0
0, 0
0, 0
0, 0
1, 0
1, 1
1, 4
0, 2
1, 2
1, 0
1, 1
4, 1
3, 8
2, 5
3, 5
9, 16
28, 25
35, 32
36, 58
38, 56
50, 47
37, 27
21, 19
6, 11
6, 9
11, 3
5, 12
13, 10
12, 21
16, 13
15, 16
8, 7
10, 10
21, 20
36, 37
123, 76
155, 151
252, 306
399, 449
483, 516
493, 499
420, 455
302, 311
203, 190
94, 106
54, 56
20, 24
8, 12
8, 12
3, 6
9, 4
4, 4
4, 3
4, 3
0, 1
0, 2
2, 6
3, 2
0, 1
1, 5
5, 6
5, 4
5, 7
15, 6
4, 7
8, 5
5, 6
3, 2
2, 2
5, 4
5, 6
3, 3
3, 6
7, 8
18, 24
16, 26
29, 48
28, 65
35, 91
54, 97
33, 102
51, 87
38, 75
29, 51
19, 49
21, 42
27, 10
13, 24
21, 18
24, 14
18, 9
15, 18
16, 14
13, 7
7, 7
6, 2
8, 1
5, 4
5, 7
3, 6
1, 2
7, 7
5, 3
13, 8
12, 15
23, 18
18, 22
19, 18
14, 15
8, 10
6, 7
5, 7
0, 3
6, 2
2, 6
6, 13
11, 9
13, 14
17, 21
24, 32
27, 32
31, 43
33, 36
32, 28
29, 40
28, 20
16, 6
9, 18
9, 10
3, 15
5, 9
4, 11
10, 13
4, 10
2, 9
4, 13
9, 9
4, 7
6, 8
4, 14
7, 8
6, 10
6, 12
4, 11
2, 7
4, 10
3, 6
3, 8
6, 5
5, 3
7, 7
9, 10
13, 17
27, 21
22, 32
43, 38
44, 47
45, 54
52, 39
42, 45
22, 38
31, 35
30, 24
29, 22
18, 14
18, 19
21, 21
12, 8
21, 6
8, 14
6, 15
9, 14
12, 12
16, 16
21, 16
14, 14
15, 16
8, 13
10, 8
6, 16
11, 7
10, 16
10, 9
4, 14
5, 13
4, 15
8, 13
7, 15
6, 21
14, 30
13, 26
31, 21
39, 29
33, 33
47, 55
57, 43
58, 48
34, 40
32, 18
27, 32
18, 28
15, 18
15, 21
12, 20
10, 12
6, 10
9, 14
12, 11
12, 23
24, 31
25, 41
34, 42
59, 64
60, 80
84, 81
98, 109
90, 107
78, 76
79, 69
75, 44
39, 38
32, 25
28, 26
22, 16
21, 19
33, 21
27, 29
42, 65
79, 101
178, 213
330, 413
578, 718
1053, 1243
1620, 1934
2217, 2682
2893, 3273
3390, 3698
3550, 3944
3468, 3538
2888, 2898
2227, 2152
1629, 1415
1092, 938
604, 467
318, 283
193, 119
138, 56
118, 33
121, 24
140, 12
159, 13
192, 25
158, 25
159, 23
146, 28
131, 42
110, 54
88, 87
119, 109
158, 170
195, 255
293, 348
351, 425
425, 535
515, 568
477, 521
467, 496
429, 349
337, 274
207, 173
129, 138
80, 69
54, 44
27, 18
17, 10
9, 10
1, 4
6, 4
7, 10
8, 3
2, 11
9, 8
6, 9
6, 7
14, 4
9, 12
4, 9
6, 8
5, 5
4, 8
4, 2
5, 7
2, 1
1, 3
8, 9
3, 5
3, 1
1, 7
1, 3
2, 4
4, 3
2, 2
3, 2
4, 2
7, 3
0, 5
2, 5
4, 8
1, 5
4, 9
3, 10
5, 6
6, 2
6, 5
3, 7
4, 9
7, 9
5, 4
4, 3
3, 7
8, 2
9, 8
11, 8
8, 4
13, 6
7, 9
6, 10
5, 7
8, 9
1, 9
4, 6
5, 9
2, 4
6, 4
4, 6
1, 3
3, 3
7, 5
3, 2
7, 4
2, 2
5, 10
5, 5
3, 4
4, 0
3, 6
5, 1
2, 4
3, 2
2, 3
5, 2
6, 2
4, 3
5, 7
4, 2
3, 3
2, 4
5, 4
2, 1
2, 7
3, 3
2, 4
3, 0
3, 2
3, 3
4, 7
1, 2
4, 0
3, 6
5, 5
3, 5
7, 3
2, 5
5, 2
1, 2
4, 3
1, 2
5, 2
3, 2
7, 2
1, 4
2, 1
4, 2
3, 2
2, 2
5, 2
5, 6
1, 5
2, 1
2, 4
2, 2
2, 2
3, 3
1, 1
5, 5
1, 7
3, 4
2, 3
2, 2
3, 0
2, 9
3, 5
2, 5
5, 2
2, 5
1, 3
1, 6
2, 5
4, 1
2, 2
3, 2
1, 1
3, 4
1, 1
1, 2
4, 2
1, 2
1, 2
2, 0
2, 4
1, 1
1, 1
3, 2
1, 1
2, 3
0, 3
3, 0
1, 3
3, 1
0, 0
1, 2
3, 3
1, 1
1, 1
2, 1
2, 2
1, 2
4, 6
0, 0
2, 4
1, 5
3, 4
2, 4
2, 7
1, 2
0, 4
3, 3
4, 4
0, 5
2, 5
1, 10
1, 4
0, 3
1, 3
4, 2
1, 5
1, 2
3, 1
1, 1
1, 0
1, 2
5, 0
0, 2
1, 2
2, 2
1, 1
1, 0
1, 2
5, 3
2, 3
3, 3
2, 4
2, 2
2, 2
5, 1
0, 1
4, 1
1, 3
6, 0
6, 7
1, 1
3, 3
2, 2
2, 1
4, 1
2, 1
1, 3
3, 2
1, 0
2, 2
2, 0
2, 4
1, 1
0, 1
2, 1
1, 1
1, 1
2, 1
1, 1
1, 2
1, 2
3, 0
3, 4
6, 3
5, 8
4, 9
7, 9
4, 5
3, 6
9, 4
5, 4
5, 3
2, 4
0, 3
5, 1
0, 1
4, 2
2, 0
1, 0
2, 1
2, 0
0, 0
1, 2
0, 1
0, 3
3, 2
1, 3
1, 4
1, 3
1, 0
1, 1
1, 3
2, 2
2, 4
0, 4
0, 4
1, 1
1, 1
1, 2
1, 1
4, 2
0, 0
1, 3
1, 2
2, 0
4, 0
1, 1
0, 2
4, 0
1, 0
0, 1
3, 0
1, 1
1, 1
1, 0
1, 1
2, 1
1, 0
0, 2
1, 0
1, 4
1, 0
1, 0
1, 0
1, 2
2, 1
2, 0
2, 1
0, 1
2, 1
0, 1
2, 1
2, 1
2, 1
3, 1
1, 1
1, 3
1, 1
0, 0
0, 2
0, 0
0, 2
1, 1
0, 2
0, 1
2, 1
3, 1
1, 0
0, 1
1, 2
0, 3
0, 1
4, 1
0, 1
1, 1
0, 1
0, 0
0, 1
0, 0
0, 1
1, 1
1, 0
0, 0
1, 1
0, 1
0, 0
0, 0
0, 0
0, 1
3, 0
0, 0
1, 1
1, 0
1, 0
0, 1
0, 0
1, 0
0, 0
0, 0
0, 1
1, 0
0, 1
0, 0
2, 0
2, 1
1, 0
0, 1
1, 0
0, 0
1, 1
1, 0
1, 0
0, 0
0, 0
0, 0
1, 0
0, 2
0, 0
1, 0
0, 1
1, 0
1, 1
1, 0
0, 1
0, 2
1, 0
0, 0
2, 0
0, 1
0, 0
1, 1
0, 0
0, 1
0, 0
0, 0
2, 0
0, 1
0, 0
1, 0
0, 0
1, 0
0, 0
1, 0
1, 0
1, 0
1, 0
0, 0
0, 1
0, 1
0, 0
0, 0
0, 0
1, 0
0, 0
0, 1
0, 0
0, 0
0, 0
1, 0
0, 0
0, 3
0, 0
0, 0
0, 0
0, 1
0, 0
0, 0
0, 0
0, 0
0, 1
0, 0
1, 0
0, 0
0, 0
0, 0
0, 0
0, 0
0, 0
0, 0
1, 0
0, 0
0, 0
1, 0
0, 0
0, 0
1, 0
0, 1
0, 0
1, 0
1, 1
1, 0
0, 0
0, 0
0, 0
0, 0
0, 0
1, 0
1, 0
0, 0
1, 0
0, 0
1, 1
0, 0
0, 0
0, 0
0, 1
0, 0
0, 0
0, 0
0, 0
0, 0
1, 0
0, 0
0, 0
0, 1
1, 0
0, 0
0, 0
0, 0
0, 1
0, 1
0, 1
0, 0
1, 0
0, 0
1, 0
0, 0
0, 1
0, 0
0, 0
0, 0
0, 0
0, 0
0, 0
0, 0
0, 0
0, 1
1, 0
0, 0
0, 0
0, 0
0, 0
0, 0
1, 2
0, 1
0, 0
0, 0
0, 1
0, 1
0, 0
0, 0
0, 0
0, 1
0, 0
0, 0
0, 0
0, 0
0, 0
0, 1
1, 0
0, 0
0, 0
0, 0
0, 1
0, 0
0, 0
0, 0
0, 0
0, 0
0, 0
0, 0
1, 0
0, 0
0, 0
0, 0
1, 0
0, 0
0, 0
0, 0
0, 0
0, 0
0, 0
1, 0
0, 1
0, 0
0, 0
0, 0
0, 0
0, 0
0, 0
0, 0
0, 0
0, 0
0, 0
0, 0
0, 0
0, 0
0, 0
0, 0
0, 1
0, 0
1, 0
0, 1
0, 0
0, 0
0, 0
0, 0
0, 0
0, 0
0, 0
0, 0
0, 0
0, 0
0, 0
0, 0
0, 0
0, 0
0, 0
0, 0
0, 0
0, 0
0, 0
0, 0
0, 0
1, 0
0, 0
0, 0
0, 0
0, 0
0, 0
0, 0
0, 0
0, 0
0, 0
0, 0
0, 0
0, 0
0, 0
0, 0
0, 0
0, 0
1, 0
0, 0
0, 0
0, 0
0, 0
0, 0
1, 0
0, 0
0, 0
0, 0
0, 1
0, 0
0, 0
0, 0
0, 0
0, 0
0, 0
0, 0
0, 0
0, 0
0, 0
0, 0
0, 0
0, 0
0, 0
1, 0
0, 0
0, 0
0, 1
0, 0
0, 1
0, 0
0, 0
0, 0
0, 0
0, 0
0, 0
0, 0
0, 0
0, 0
0, 0
0, 0
0, 0
0, 0
0, 0
0, 0
0, 0
0, 0
0, 0
0, 0
0, 0
0, 0
0, 0
0, 0
0, 0
0, 0
0, 0
0, 0
0, 0
0, 0
0, 1
0, 0
0, 0
0, 0
0, 0
0, 0
1, 0
0, 0
1, 0
0, 0
0, 0
0, 0
0, 0
0, 0
0, 0
0, 0
0, 0
0, 0
0, 0
0, 0
0, 0
0, 0
0, 0
0, 0
0, 0
0, 0
0, 0
0, 0
0, 0
0, 0
0, 0
0, 0
0, 0
0, 0
0, 0
0, 0
0, 0
0, 0
0, 0
0, 0
0, 0
0, 0
0, 0
0, 0
0, 0
0, 0
0, 0
0, 0
0, 0
1, 0
0, 0
0, 0
0, 0
0, 0
0, 0
0, 0
0, 0
0, 0
0, 0
0, 0
0, 0
0, 0
0, 0
0, 0
0, 0
0, 0
0, 0
0, 0
0, 0
0, 0
0, 0
0, 0
0, 0
0, 0
0, 0
0, 0
0, 0
0, 0
0, 0
0, 0
0, 0
0, 0
0, 0
0, 0
0, 0
0, 0
0, 0
0, 0
0, 0
0, 0
0, 0
0, 0
0, 0
0, 0
0, 0
0, 0
0, 0
0, 0
0, 0
0, 0
0, 0
0, 0
0, 0
0, 0
0, 0
0, 0
0, 0
0, 0
0, 0
0, 0
0, 0
0, 0
0, 0
0, 0
0, 0
0, 0
0, 0
0, 0
0, 0
0, 0
0, 0
0, 0
0, 0
0, 0
0, 0
0, 0
0, 0
0, 0
0, 0
0, 0
0, 0
0, 0
0, 0
0, 0
0, 0
0, 0
0, 0
0, 0
0, 0
0, 0
0, 0
0, 0
0, 0
0, 0
0, 0
0, 0
0, 0
0, 0
0, 0
0, 0
0, 0
0, 0
0, 0
0, 0
0, 0
0, 0
0, 0
0, 0
0, 0
0, 0
0, 0
0, 0
0, 0
0, 0
0, 0
0, 0
0, 0
0, 0
0, 0
0, 0
0, 0
0, 0
0, 0
0, 0
0, 0
0, 0
0, 0
0, 0
0, 0
0, 0
0, 0
0, 0
0, 0
0, 0
0, 0
0, 0
0, 0
0, 0
0, 0
0, 0
0, 0
0, 0
0, 0
0, 0
0, 0
0, 0
0, 0
0, 0
0, 0
0, 0
0, 0
0, 0
0, 0
0, 0
0, 0
0, 0
0, 0
0, 0
0, 0
0, 0
0, 0
0, 0
0, 0
0, 0
0, 0
0, 0
0, 0
0, 0
0, 0
0, 0
0, 0
0, 0
0, 0
0, 0
0, 0
0, 0
0, 0
0, 0
0, 0
0, 0
0, 0
0, 0
0, 0
0, 0
0, 0
0, 0
0, 0
0, 0
0, 0
0, 0
0, 0
0, 0
0, 0
0, 0
0, 0
0, 0
0, 0
0, 0
0, 0
0, 0
0, 0
0, 0
0, 0
0, 0
0, 0
0, 0
0, 0
0, 0
0, 0
0, 0
0, 0
0, 0
0, 0
0, 0
0, 0
0, 0
0, 0
0, 0
0, 0
0, 0
0, 0
0, 0
0, 0
0, 0
0, 0
0, 0
0, 0
0, 0
0, 0
0, 0
0, 0
0, 0
0, 0
0, 0
0, 0
0, 0
0, 0
0, 0
0, 0
0, 0
0, 0
0, 0
0, 0
0, 0
0, 0
0, 0
0, 0
0, 0
0, 0
0, 0
0, 0
0, 0
0, 0
0, 0
0, 0
0, 0
0, 0
0, 0
0, 0
0, 0
0, 0
0, 0
0, 0
0, 0
0, 0
0, 0
0, 0
0, 0
0, 0
0, 0
0, 0
0, 0
0, 0
0, 0
0, 0
0, 0
0, 0
0, 0
0, 0
0, 0
0, 0
0, 0
0, 0
0, 0
0, 0
0, 0
0, 0
0, 0
0, 0
0, 0
0, 0
0, 0
0, 0
0, 0
0, 0
0, 0
0, 0
0, 0
0, 0
0, 0
0, 0
0, 0
0, 0
0, 0
0, 0
0, 0
0, 0
0, 0
0, 0
0, 0
0, 0
0, 0
0, 0
0, 0
0, 0
0, 0
0, 0
0, 0
0, 0
0, 0
0, 0
0, 0
0, 0
0, 0
0, 0
0, 0
0, 0
0, 0
0, 0
0, 0
0, 0
0, 0
0, 0
0, 0
0, 0
0, 0
0, 0
0, 0
0, 0
0, 0
0, 0
0, 0
0, 0
0, 0
0, 0
0, 0
0, 0
0, 0
0, 0
0, 0
0, 0
0, 0
0, 0
0, 0
0, 0
0, 0
0, 0
0, 0
0, 0
0, 0
#ENDOFDATA     end of spectrum data