File: host_upload/12-01-2023/Dourbes (shot-by-shot)/upload_4/ps__0257_0689790785_000rfs_shot_3117.msa
#FORMAT      : EMSA/MAS spectral data file
#VERSION     : TC202v2.0 PIXL
#TITLE       : N/A
#DATE        :       Date in the format DD-MMM-YYYY, for example 07-JUL-2010
#TIME        :             The time of day at which the spectrum was recorded, in 24-hour format
#OWNER       : PIXL Flight Model       (PIXL will use this to indicate which instrument took the data.)
#NPOINTS     : 4096     Number of data points in the spectrum (This can be zero for configuration only files)
#NCOLUMNS    : 2     Number of data columns in the spectrum (This can be zero for configuration only files)
#XUNITS      : eV
#YUNITS      : COUNTS
#DATATYPE    : YY
#XPERCHAN    : 7.862, 7.881   eV per channel (separate by commas if more than one detector)
#OFFSET      : 18.5, -22.4         eV of first channel  (separate by commas if more than one detector
#SIGNALTYPE  : XRF
#YP_TEMP     : 3.198
#LIVETIME    : 9.14918, 9.13318   seconds (separate by commas if more than one detector)
#REALTIME    : 10, 10.0   seconds (separate by commas if more than one detector)
#SPECTRUM    : start of spectrum data
0, 0
0, 0
0, 0
0, 0
0, 0
0, 0
0, 0
0, 0
0, 0
0, 0
0, 0
0, 0
0, 0
0, 0
0, 0
0, 0
0, 0
0, 0
0, 0
0, 0
0, 0
0, 0
0, 0
0, 0
0, 0
0, 0
0, 0
0, 0
0, 0
0, 0
0, 0
0, 0
0, 0
0, 1
0, 0
0, 0
0, 1
1, 0
2, 1
1, 2
0, 1
1, 1
1, 1
1, 0
2, 2
0, 3
1, 1
7, 0
3, 1
6, 2
15, 11
23, 15
31, 27
55, 53
35, 49
40, 54
30, 38
14, 24
9, 16
3, 13
5, 4
11, 7
6, 9
9, 9
13, 7
9, 10
9, 12
12, 25
26, 22
67, 64
128, 136
295, 289
502, 553
746, 748
800, 898
906, 883
751, 772
549, 564
371, 359
198, 195
93, 83
52, 51
34, 23
17, 21
13, 13
10, 19
8, 2
7, 5
3, 7
1, 3
2, 2
1, 3
2, 3
3, 1
4, 2
3, 4
6, 3
2, 4
6, 6
2, 3
4, 5
2, 5
3, 6
2, 6
2, 4
2, 9
5, 3
8, 5
6, 16
12, 15
19, 12
25, 28
27, 29
20, 34
30, 31
27, 35
23, 29
19, 20
23, 22
17, 13
20, 21
14, 15
21, 13
22, 21
13, 15
12, 17
13, 9
8, 6
6, 11
4, 8
5, 6
6, 4
3, 4
3, 3
3, 1
1, 5
4, 2
5, 4
3, 2
3, 2
4, 4
3, 5
1, 4
8, 2
2, 4
5, 5
2, 5
6, 4
10, 7
21, 24
41, 50
99, 100
212, 220
341, 426
629, 745
913, 973
1107, 1249
1154, 1301
1148, 1241
925, 902
680, 667
418, 416
247, 213
129, 117
76, 52
45, 38
53, 62
71, 81
97, 103
124, 145
154, 173
193, 199
146, 177
130, 129
78, 90
60, 56
29, 27
15, 16
12, 4
3, 3
2, 2
0, 1
1, 1
2, 1
4, 2
3, 6
12, 4
12, 9
13, 12
17, 17
20, 30
34, 24
35, 42
25, 23
23, 15
18, 13
11, 11
14, 8
5, 9
7, 3
11, 5
5, 3
5, 5
4, 5
3, 7
1, 2
4, 6
4, 4
6, 7
8, 14
10, 6
7, 10
6, 13
4, 7
5, 7
4, 5
1, 4
3, 6
0, 4
2, 4
5, 7
7, 4
5, 5
2, 9
7, 14
15, 17
22, 20
31, 41
37, 47
51, 51
51, 52
37, 49
43, 47
26, 42
22, 21
22, 12
9, 8
11, 7
4, 7
6, 5
4, 4
5, 5
6, 10
4, 12
5, 7
16, 14
23, 22
27, 27
33, 36
29, 57
39, 52
42, 46
48, 41
30, 37
24, 29
20, 38
15, 16
17, 13
6, 11
8, 8
9, 17
11, 28
11, 38
41, 56
53, 103
101, 167
208, 302
333, 439
522, 658
707, 864
1022, 1137
1087, 1212
1145, 1203
1111, 1084
948, 885
745, 710
512, 435
345, 278
219, 184
119, 88
72, 58
46, 17
19, 15
9, 18
13, 6
13, 11
8, 6
7, 9
10, 8
15, 23
8, 11
15, 20
21, 39
38, 25
50, 48
59, 102
87, 116
122, 168
152, 187
180, 243
174, 195
170, 212
121, 149
115, 139
77, 100
58, 80
42, 42
25, 27
17, 27
7, 14
16, 6
20, 5
27, 11
30, 6
43, 2
56, 6
53, 1
57, 4
62, 5
49, 5
59, 3
37, 5
16, 10
21, 3
19, 8
9, 4
11, 4
8, 7
6, 2
5, 4
7, 4
3, 2
0, 6
4, 4
3, 8
7, 4
2, 4
6, 4
6, 7
8, 9
8, 5
6, 6
2, 7
6, 2
6, 4
9, 5
6, 8
2, 5
4, 6
9, 5
6, 6
11, 3
7, 10
7, 12
6, 10
15, 15
14, 14
13, 20
14, 8
16, 8
17, 11
10, 10
7, 13
4, 7
3, 12
7, 5
4, 6
8, 4
2, 4
6, 7
1, 3
5, 2
2, 5
3, 3
2, 7
3, 3
4, 2
5, 7
4, 6
5, 3
4, 5
6, 7
4, 3
5, 6
4, 7
6, 9
1, 4
5, 5
1, 10
2, 7
5, 15
7, 10
11, 8
9, 11
9, 9
5, 13
11, 9
9, 7
10, 6
10, 8
6, 4
7, 3
6, 5
9, 3
6, 0
7, 4
3, 2
5, 6
4, 2
4, 1
1, 2
5, 6
4, 2
7, 1
6, 5
1, 4
3, 7
1, 5
4, 3
6, 4
3, 2
2, 3
1, 4
3, 0
4, 4
5, 6
3, 7
2, 2
8, 11
4, 3
3, 1
3, 4
4, 3
5, 3
6, 4
2, 3
9, 1
4, 2
0, 3
4, 5
3, 1
2, 5
3, 4
1, 6
4, 2
3, 6
3, 3
2, 3
3, 0
4, 4
3, 0
6, 6
4, 2
3, 4
3, 3
5, 2
3, 3
3, 1
3, 2
1, 3
2, 5
1, 5
2, 4
0, 4
2, 1
4, 3
5, 4
3, 6
3, 2
2, 1
1, 4
0, 1
2, 3
3, 2
5, 3
4, 3
4, 3
2, 3
3, 1
2, 2
1, 3
1, 9
2, 5
3, 6
3, 5
1, 8
2, 5
3, 0
3, 1
1, 7
3, 6
0, 6
3, 9
1, 6
3, 8
2, 5
1, 8
3, 3
1, 3
2, 4
5, 9
2, 2
2, 0
5, 3
2, 1
3, 1
1, 5
0, 1
3, 1
3, 2
1, 6
5, 1
2, 0
1, 2
3, 2
5, 3
3, 3
1, 4
1, 1
2, 1
1, 3
2, 0
2, 2
2, 2
2, 0
0, 3
1, 1
2, 1
1, 1
3, 2
2, 0
0, 2
4, 3
2, 2
2, 2
3, 4
1, 0
4, 3
1, 3
0, 2
1, 2
1, 3
0, 1
1, 2
1, 3
3, 2
1, 1
3, 3
1, 3
2, 3
1, 0
2, 1
3, 2
2, 0
1, 1
1, 2
1, 3
2, 2
2, 0
3, 3
1, 0
0, 0
1, 0
1, 2
2, 2
2, 1
1, 1
0, 0
1, 1
2, 1
2, 2
1, 2
0, 1
0, 1
1, 0
1, 0
0, 1
0, 3
2, 3
2, 0
3, 0
2, 2
2, 1
1, 3
2, 1
1, 0
3, 3
0, 0
2, 0
0, 1
1, 0
1, 3
2, 0
1, 1
0, 0
1, 3
1, 0
3, 2
2, 0
1, 2
2, 0
0, 1
1, 0
1, 1
3, 1
0, 0
4, 1
0, 2
0, 1
0, 0
1, 1
1, 1
1, 1
2, 1
3, 0
0, 0
0, 1
1, 0
0, 1
3, 1
1, 3
0, 1
1, 2
1, 0
3, 0
0, 1
0, 1
3, 1
2, 3
0, 2
1, 1
0, 3
2, 2
1, 1
0, 0
2, 0
0, 1
2, 0
0, 0
1, 0
2, 0
1, 0
0, 0
0, 0
0, 0
1, 0
0, 1
1, 0
0, 0
1, 0
1, 1
1, 2
0, 2
0, 1
0, 0
1, 3
0, 0
0, 0
2, 1
0, 1
0, 3
0, 2
0, 1
0, 0
0, 0
0, 0
2, 2
1, 2
0, 1
1, 0
0, 0
0, 0
0, 1
1, 0
0, 0
1, 0
0, 3
0, 0
0, 1
0, 0
0, 1
0, 2
0, 1
2, 0
0, 1
0, 1
1, 1
0, 0
0, 2
0, 1
0, 0
1, 1
0, 0
1, 0
1, 0
1, 0
0, 1
2, 1
0, 0
0, 0
0, 1
0, 0
0, 1
1, 1
0, 0
1, 0
0, 0
0, 0
0, 1
0, 0
0, 0
2, 0
0, 0
0, 0
0, 1
0, 0
0, 0
1, 2
0, 1
1, 0
1, 1
0, 1
0, 0
0, 1
0, 1
0, 0
1, 0
0, 2
0, 0
0, 0
0, 0
0, 0
0, 0
0, 0
0, 0
0, 0
0, 0
0, 0
1, 0
0, 0
0, 1
0, 0
0, 0
0, 0
2, 1
0, 0
0, 1
1, 0
0, 1
1, 0
0, 1
0, 0
0, 2
0, 0
1, 0
0, 1
0, 0
0, 1
0, 1
0, 0
1, 0
0, 0
0, 1
0, 0
0, 0
0, 0
0, 1
0, 0
0, 0
0, 0
0, 0
0, 0
0, 0
0, 0
0, 0
1, 1
0, 0
0, 0
0, 0
0, 0
1, 0
1, 0
1, 0
0, 0
0, 0
1, 0
0, 0
0, 0
0, 0
0, 0
0, 0
0, 1
0, 0
0, 1
0, 0
0, 0
0, 0
0, 0
0, 0
0, 0
1, 0
0, 0
0, 0
0, 0
0, 1
0, 1
0, 0
0, 1
1, 0
0, 0
0, 1
0, 0
0, 0
0, 0
0, 0
0, 0
0, 0
0, 0
0, 0
0, 0
0, 0
0, 0
1, 0
0, 0
0, 1
1, 0
0, 0
0, 1
0, 0
0, 0
0, 0
1, 0
0, 0
1, 0
0, 0
0, 0
0, 0
0, 0
0, 0
0, 0
0, 0
0, 0
0, 0
1, 0
0, 0
0, 0
0, 0
0, 0
0, 0
0, 1
0, 0
0, 0
1, 0
0, 0
0, 0
0, 0
0, 0
0, 1
0, 0
0, 0
0, 0
0, 0
0, 1
0, 0
0, 0
0, 0
0, 0
0, 0
0, 0
0, 0
0, 0
0, 0
0, 0
0, 0
0, 0
0, 0
0, 0
0, 0
0, 0
0, 0
0, 0
0, 0
0, 0
1, 0
0, 0
0, 0
0, 0
0, 0
0, 0
0, 0
0, 0
0, 0
0, 0
0, 0
0, 0
0, 0
0, 0
0, 0
0, 0
0, 0
0, 0
0, 0
0, 0
0, 0
0, 0
0, 0
0, 0
0, 0
0, 0
0, 0
0, 0
0, 0
0, 0
0, 0
0, 0
0, 0
0, 1
0, 0
0, 0
0, 0
0, 0
0, 0
0, 0
0, 0
0, 0
0, 0
0, 1
0, 0
0, 0
0, 0
0, 0
0, 0
0, 0
0, 0
0, 0
0, 0
0, 0
0, 0
0, 0
0, 0
0, 0
0, 0
1, 0
0, 0
0, 0
0, 0
0, 0
0, 0
0, 0
0, 0
0, 0
0, 0
0, 1
0, 0
0, 0
0, 0
0, 0
0, 0
0, 0
0, 1
0, 0
0, 0
0, 0
0, 0
0, 0
0, 0
0, 0
0, 0
0, 0
0, 0
0, 0
0, 0
0, 0
0, 0
0, 0
0, 0
0, 0
0, 0
0, 0
0, 0
0, 0
0, 0
0, 0
0, 0
0, 0
0, 0
0, 0
0, 0
0, 0
0, 0
0, 0
0, 0
0, 0
0, 1
0, 0
0, 0
0, 0
0, 0
0, 0
0, 0
0, 0
0, 0
0, 0
0, 0
0, 0
0, 0
1, 0
0, 0
0, 0
0, 0
0, 0
0, 0
0, 0
0, 0
0, 0
0, 0
0, 0
0, 0
0, 0
0, 0
0, 0
0, 0
0, 0
0, 0
0, 0
0, 0
0, 0
0, 0
0, 0
0, 0
0, 0
0, 0
0, 0
0, 0
0, 0
0, 0
0, 0
0, 0
0, 0
0, 0
0, 0
0, 0
0, 0
0, 0
0, 0
0, 0
0, 0
0, 0
0, 0
0, 0
0, 0
0, 0
0, 0
0, 0
0, 0
0, 0
0, 0
0, 0
0, 0
0, 0
0, 0
0, 0
0, 0
0, 0
0, 0
0, 0
0, 0
0, 0
0, 0
0, 0
0, 0
0, 0
0, 0
0, 0
0, 0
0, 0
0, 0
0, 0
0, 0
0, 0
0, 0
0, 0
0, 0
0, 0
0, 0
0, 0
0, 0
0, 0
0, 0
0, 0
0, 0
0, 0
0, 0
0, 0
0, 0
0, 0
0, 0
0, 0
0, 0
0, 0
0, 0
0, 0
0, 0
0, 0
0, 0
0, 0
0, 0
0, 0
0, 0
0, 0
0, 0
0, 0
0, 0
0, 0
0, 0
0, 0
0, 0
0, 0
0, 0
0, 0
0, 0
0, 0
0, 0
0, 0
0, 0
0, 0
0, 0
0, 0
0, 0
0, 0
0, 0
0, 0
0, 0
0, 0
0, 0
0, 0
0, 0
0, 0
0, 0
0, 0
0, 0
0, 0
0, 0
0, 0
0, 0
0, 0
0, 0
0, 0
0, 0
0, 0
0, 0
0, 0
0, 0
0, 0
0, 0
0, 0
0, 0
0, 0
0, 0
0, 0
0, 0
0, 0
0, 0
0, 0
0, 0
0, 0
0, 0
0, 0
0, 0
0, 0
0, 0
0, 0
0, 0
0, 0
0, 0
0, 0
0, 0
0, 0
0, 0
0, 0
0, 0
0, 0
0, 0
0, 0
0, 0
0, 0
0, 0
0, 0
0, 0
0, 0
0, 0
0, 0
0, 0
0, 0
0, 0
0, 0
0, 0
0, 0
0, 0
0, 0
0, 0
0, 0
0, 0
0, 0
0, 0
0, 0
0, 0
0, 0
0, 0
0, 0
0, 0
0, 0
0, 0
0, 0
0, 0
0, 0
0, 0
0, 0
0, 0
0, 0
0, 0
0, 0
0, 0
0, 0
0, 0
0, 0
0, 0
0, 0
0, 0
0, 0
0, 0
0, 0
0, 0
0, 0
0, 0
0, 0
0, 0
0, 0
0, 0
0, 0
0, 0
0, 0
0, 0
0, 0
0, 0
0, 0
0, 0
0, 0
0, 0
0, 0
0, 0
0, 0
0, 0
0, 0
0, 0
0, 0
0, 0
0, 0
0, 0
0, 0
0, 0
0, 0
0, 0
0, 0
0, 0
0, 0
0, 0
0, 0
0, 0
0, 0
0, 0
0, 0
0, 0
0, 0
0, 0
0, 0
0, 0
0, 0
0, 0
0, 0
0, 0
0, 0
0, 0
0, 0
0, 0
0, 0
0, 0
0, 0
0, 0
0, 0
0, 0
0, 0
0, 0
0, 0
0, 0
0, 0
0, 0
0, 0
0, 0
0, 0
0, 0
0, 0
0, 0
0, 0
0, 0
0, 0
0, 0
0, 0
0, 0
0, 0
0, 0
0, 0
0, 0
0, 0
0, 0
0, 0
0, 0
0, 0
0, 0
0, 0
0, 0
0, 0
0, 0
0, 0
0, 0
0, 0
0, 0
0, 0
0, 0
0, 0
0, 0
0, 0
0, 0
0, 0
0, 0
0, 0
0, 0
0, 0
0, 0
0, 0
0, 0
0, 0
0, 0
0, 0
0, 0
0, 0
0, 0
0, 0
0, 0
0, 0
0, 0
0, 0
0, 0
0, 0
0, 0
0, 0
0, 0
0, 0
0, 0
0, 0
0, 0
0, 0
0, 0
0, 0
0, 0
0, 0
#ENDOFDATA     end of spectrum data