File: host_upload/12-01-2023/Dourbes (shot-by-shot)/upload_4/ps__0257_0689790785_000rfs_shot_3206.msa
#FORMAT      : EMSA/MAS spectral data file
#VERSION     : TC202v2.0 PIXL
#TITLE       : N/A
#DATE        :       Date in the format DD-MMM-YYYY, for example 07-JUL-2010
#TIME        :             The time of day at which the spectrum was recorded, in 24-hour format
#OWNER       : PIXL Flight Model       (PIXL will use this to indicate which instrument took the data.)
#NPOINTS     : 4096     Number of data points in the spectrum (This can be zero for configuration only files)
#NCOLUMNS    : 2     Number of data columns in the spectrum (This can be zero for configuration only files)
#XUNITS      : eV
#YUNITS      : COUNTS
#DATATYPE    : YY
#XPERCHAN    : 7.862, 7.881   eV per channel (separate by commas if more than one detector)
#OFFSET      : 18.5, -22.4         eV of first channel  (separate by commas if more than one detector
#SIGNALTYPE  : XRF
#YP_TEMP     : 3.165
#LIVETIME    : 8.94011, 8.98626   seconds (separate by commas if more than one detector)
#REALTIME    : 10, 10.0   seconds (separate by commas if more than one detector)
#SPECTRUM    : start of spectrum data
0, 0
0, 0
0, 0
0, 0
0, 0
0, 0
0, 0
0, 0
0, 0
0, 0
0, 0
0, 0
0, 0
0, 0
0, 0
0, 0
0, 0
0, 0
0, 0
0, 0
0, 0
0, 0
0, 0
0, 0
0, 0
0, 0
0, 0
0, 0
0, 1
0, 1
1, 0
0, 0
1, 1
0, 0
0, 0
1, 0
2, 0
6, 4
14, 3
15, 2
29, 3
43, 3
30, 1
21, 4
14, 3
17, 3
7, 1
2, 4
9, 2
8, 2
14, 6
26, 17
37, 25
40, 49
40, 39
31, 33
37, 24
23, 22
12, 12
12, 5
6, 3
4, 0
7, 4
7, 2
6, 4
8, 2
9, 5
11, 9
15, 16
32, 27
75, 86
160, 163
289, 294
391, 412
518, 485
512, 468
377, 393
307, 282
206, 186
103, 104
57, 52
30, 20
17, 21
3, 9
8, 3
6, 8
2, 3
4, 6
5, 2
3, 0
3, 7
4, 3
8, 6
11, 11
25, 30
58, 51
100, 98
117, 131
141, 158
175, 159
130, 141
92, 105
63, 58
41, 31
40, 31
24, 17
28, 26
53, 32
97, 40
178, 61
356, 85
673, 107
1079, 143
1619, 155
1942, 173
2061, 126
2017, 114
1535, 99
1107, 74
690, 62
329, 56
168, 52
88, 34
48, 35
46, 30
37, 18
28, 21
32, 19
20, 16
15, 20
8, 12
11, 8
7, 4
3, 5
5, 8
8, 2
5, 9
3, 4
6, 5
7, 3
9, 8
4, 3
3, 5
1, 2
2, 3
4, 6
4, 1
4, 0
7, 4
8, 3
4, 7
6, 6
18, 21
28, 37
36, 39
54, 53
80, 60
72, 79
76, 67
52, 65
43, 22
23, 24
20, 10
4, 13
4, 9
5, 9
2, 6
11, 6
22, 7
6, 10
16, 17
15, 15
13, 17
13, 10
14, 8
13, 8
7, 7
4, 8
6, 9
5, 5
8, 8
6, 5
6, 9
5, 6
9, 9
7, 6
7, 7
12, 15
13, 9
17, 8
13, 13
11, 31
16, 44
7, 40
33, 68
20, 62
27, 71
18, 83
15, 80
19, 67
11, 49
12, 38
18, 27
10, 14
11, 12
11, 13
5, 7
7, 10
7, 13
12, 8
11, 16
16, 8
8, 8
11, 10
7, 17
9, 10
16, 10
7, 8
16, 8
10, 15
11, 6
10, 15
14, 16
11, 11
9, 8
13, 9
19, 15
15, 17
14, 11
11, 18
14, 12
19, 13
13, 12
12, 6
18, 14
10, 13
16, 6
7, 9
3, 12
12, 10
12, 7
12, 8
13, 17
18, 14
18, 22
26, 21
36, 33
46, 55
68, 59
95, 96
95, 106
93, 102
84, 66
72, 69
47, 51
41, 40
36, 30
28, 23
17, 21
25, 25
22, 34
36, 33
57, 73
72, 98
161, 230
330, 423
603, 779
1030, 1285
1612, 2030
2320, 2656
2935, 3379
3318, 3661
3455, 3657
3492, 3316
2979, 2696
2280, 1994
1689, 1297
997, 873
623, 451
299, 233
152, 118
75, 56
43, 22
51, 22
38, 19
39, 27
51, 18
52, 17
67, 18
67, 19
68, 28
92, 43
76, 78
107, 108
128, 182
210, 251
286, 348
390, 422
437, 535
514, 517
534, 531
471, 443
412, 366
335, 280
249, 182
128, 101
80, 62
48, 45
24, 21
15, 10
11, 8
3, 7
11, 10
7, 6
8, 6
11, 8
4, 3
11, 12
4, 4
6, 6
8, 9
7, 11
4, 4
5, 7
3, 8
5, 8
2, 5
5, 2
7, 7
3, 8
6, 18
5, 10
4, 10
5, 5
3, 10
2, 11
7, 8
6, 7
3, 7
3, 7
7, 2
6, 8
7, 7
8, 5
8, 3
5, 3
5, 4
6, 3
6, 4
6, 5
6, 7
4, 5
6, 4
2, 3
3, 13
3, 2
4, 6
3, 3
1, 4
2, 4
5, 6
7, 8
5, 4
4, 12
7, 7
7, 10
5, 8
5, 4
8, 7
3, 7
5, 1
2, 5
4, 5
6, 2
2, 2
7, 3
4, 2
4, 2
3, 3
4, 3
9, 3
9, 3
9, 7
5, 4
11, 7
9, 4
9, 2
10, 8
11, 4
7, 4
3, 12
2, 8
7, 10
5, 11
2, 12
5, 11
3, 17
9, 6
4, 13
9, 7
5, 6
6, 5
3, 1
2, 5
3, 3
3, 4
7, 2
5, 3
3, 1
2, 3
1, 3
1, 3
4, 4
2, 1
4, 6
3, 3
4, 2
1, 5
2, 6
2, 7
3, 1
4, 3
1, 5
3, 5
3, 3
2, 1
3, 5
4, 3
5, 3
3, 4
2, 5
4, 9
2, 3
3, 1
2, 1
4, 3
1, 2
0, 2
4, 0
2, 1
2, 1
1, 3
0, 0
4, 2
1, 4
0, 2
2, 0
1, 2
1, 3
1, 2
2, 2
4, 2
4, 2
8, 3
5, 0
9, 0
6, 2
10, 4
8, 2
8, 2
4, 1
4, 1
13, 5
5, 2
3, 2
11, 6
3, 0
6, 3
3, 1
3, 5
4, 1
3, 1
1, 1
3, 2
2, 2
5, 0
2, 1
2, 5
0, 3
0, 5
2, 0
3, 2
3, 2
1, 0
0, 1
3, 0
2, 0
4, 3
4, 1
1, 6
2, 1
2, 0
2, 1
3, 3
2, 1
0, 2
4, 2
1, 2
2, 2
2, 2
7, 1
3, 4
0, 1
0, 0
0, 2
3, 4
3, 0
4, 0
2, 2
0, 1
3, 1
5, 1
4, 2
3, 0
4, 2
5, 6
3, 3
2, 1
2, 2
2, 2
1, 0
1, 3
3, 3
2, 2
0, 2
3, 1
1, 1
1, 0
1, 1
0, 2
1, 0
1, 3
1, 0
1, 2
5, 3
4, 3
3, 7
1, 2
1, 5
6, 6
6, 0
4, 2
6, 5
5, 6
4, 5
5, 4
4, 3
2, 2
2, 3
2, 4
3, 0
0, 2
4, 1
1, 4
1, 1
0, 1
4, 2
0, 0
0, 1
1, 1
0, 2
0, 1
1, 2
1, 2
0, 2
1, 2
0, 1
3, 1
1, 3
4, 1
3, 3
2, 1
2, 2
5, 3
1, 0
1, 2
0, 1
3, 2
3, 1
1, 1
3, 0
1, 0
1, 1
2, 0
0, 1
1, 1
0, 0
1, 1
0, 0
1, 1
0, 1
2, 0
1, 1
0, 0
0, 0
0, 0
1, 1
0, 0
0, 2
0, 1
2, 0
0, 2
0, 0
3, 1
1, 0
1, 0
0, 0
2, 0
0, 0
0, 0
0, 2
2, 0
1, 0
0, 0
1, 1
1, 0
0, 1
1, 1
1, 0
0, 0
1, 1
2, 0
0, 0
1, 1
0, 1
0, 0
0, 1
1, 1
0, 0
1, 0
0, 0
0, 1
0, 3
3, 2
0, 0
1, 0
2, 0
1, 1
0, 0
0, 0
0, 0
0, 1
0, 0
0, 1
0, 0
0, 0
2, 0
1, 1
0, 0
0, 1
0, 0
0, 0
1, 0
1, 0
1, 2
1, 0
0, 3
0, 0
1, 0
1, 1
0, 1
0, 0
0, 0
0, 1
1, 0
0, 0
1, 0
0, 0
1, 0
0, 0
0, 1
1, 0
0, 0
0, 0
0, 0
0, 0
0, 1
0, 0
0, 1
0, 0
0, 1
2, 0
1, 0
0, 0
0, 0
1, 0
2, 0
1, 0
0, 0
1, 0
0, 0
1, 0
0, 0
1, 0
0, 1
0, 1
0, 0
0, 0
0, 0
0, 0
0, 1
0, 0
0, 0
0, 1
0, 1
0, 0
0, 0
0, 0
0, 1
0, 1
1, 0
0, 0
0, 0
0, 0
0, 0
0, 1
0, 0
0, 0
0, 1
1, 0
0, 0
0, 1
0, 1
0, 0
0, 0
0, 0
0, 2
0, 1
0, 0
0, 0
0, 0
1, 0
0, 0
0, 0
0, 0
0, 0
0, 0
0, 0
0, 0
0, 0
1, 0
0, 0
1, 1
1, 0
0, 0
0, 1
1, 0
0, 1
0, 0
0, 0
0, 0
0, 0
0, 1
0, 0
0, 0
0, 0
0, 0
0, 0
2, 0
0, 0
0, 0
0, 0
0, 0
0, 0
0, 0
0, 0
0, 0
0, 1
0, 0
0, 0
0, 0
0, 0
0, 0
0, 0
0, 0
0, 0
0, 0
0, 0
0, 0
0, 0
0, 0
0, 0
0, 0
0, 1
0, 0
0, 0
0, 1
0, 0
0, 0
0, 0
0, 0
0, 1
0, 0
0, 0
1, 0
0, 0
0, 0
0, 1
0, 0
2, 0
0, 0
0, 0
0, 0
1, 0
1, 1
0, 0
0, 0
0, 0
0, 0
0, 0
0, 0
0, 0
1, 0
0, 0
0, 0
0, 0
0, 0
0, 0
0, 0
0, 0
0, 0
0, 1
0, 0
0, 0
0, 0
0, 0
1, 1
0, 0
0, 1
0, 0
0, 0
0, 1
0, 0
0, 0
0, 0
0, 0
0, 1
0, 0
0, 0
0, 1
1, 0
0, 0
0, 0
0, 0
1, 1
0, 0
0, 0
0, 0
0, 0
0, 1
0, 0
0, 1
0, 0
0, 0
1, 0
0, 0
0, 1
0, 0
0, 0
0, 0
0, 0
0, 0
1, 0
0, 0
0, 0
1, 0
0, 0
0, 0
0, 0
0, 0
0, 0
0, 0
0, 0
0, 0
0, 0
0, 0
0, 0
0, 0
0, 0
0, 0
0, 0
0, 0
0, 0
0, 0
0, 0
0, 0
0, 0
0, 0
0, 0
0, 0
1, 0
0, 0
0, 0
0, 0
0, 3
0, 0
0, 0
0, 0
0, 0
0, 1
0, 0
0, 0
0, 0
0, 0
0, 0
0, 0
0, 0
0, 0
0, 0
0, 0
0, 0
0, 0
0, 0
0, 0
0, 0
0, 0
0, 0
0, 0
0, 0
0, 0
0, 0
0, 0
0, 0
0, 0
0, 1
0, 0
0, 0
0, 0
0, 0
0, 0
0, 0
0, 0
0, 0
0, 0
0, 0
0, 0
0, 2
0, 0
0, 0
0, 0
0, 0
0, 0
0, 0
0, 0
0, 0
0, 0
0, 0
0, 0
0, 0
0, 0
0, 0
0, 0
0, 0
0, 0
0, 0
0, 0
0, 0
0, 0
0, 0
0, 0
0, 0
0, 0
0, 0
0, 0
0, 0
0, 0
0, 0
0, 0
0, 0
0, 0
0, 0
0, 0
0, 0
0, 0
0, 0
0, 0
0, 0
0, 0
0, 0
0, 0
0, 0
0, 0
0, 0
0, 0
0, 0
0, 0
0, 0
0, 0
0, 1
0, 0
0, 0
0, 0
0, 0
0, 0
0, 0
0, 0
0, 0
0, 0
0, 0
0, 0
0, 0
0, 0
0, 0
0, 0
0, 0
0, 0
0, 0
0, 0
0, 0
0, 0
0, 0
0, 0
0, 0
0, 0
0, 0
0, 0
0, 0
0, 0
0, 0
0, 0
0, 0
0, 0
0, 0
0, 0
0, 0
0, 0
0, 0
0, 0
0, 0
0, 0
0, 0
0, 0
0, 0
0, 0
0, 0
0, 0
0, 0
0, 0
0, 0
0, 0
0, 0
0, 0
0, 0
0, 0
0, 0
0, 0
0, 0
0, 0
0, 0
0, 0
0, 0
0, 0
0, 0
0, 0
0, 0
0, 0
0, 0
0, 0
0, 1
0, 0
0, 0
0, 0
0, 0
0, 0
0, 0
0, 0
0, 0
0, 0
0, 0
0, 0
0, 0
0, 0
0, 0
0, 0
0, 0
0, 0
0, 0
0, 0
0, 0
0, 0
0, 0
0, 0
0, 0
0, 0
0, 0
0, 0
0, 0
0, 0
0, 0
0, 0
0, 0
0, 0
0, 0
0, 0
0, 0
0, 0
0, 0
0, 0
0, 0
0, 0
0, 0
0, 0
0, 0
0, 0
0, 0
0, 0
0, 0
0, 0
0, 0
0, 0
0, 0
0, 0
0, 0
0, 0
0, 0
0, 0
0, 0
0, 0
0, 0
0, 0
0, 0
0, 0
0, 0
0, 0
0, 0
0, 0
0, 0
0, 0
0, 0
0, 0
0, 0
0, 0
0, 0
0, 0
0, 0
0, 0
0, 0
0, 0
0, 0
0, 0
0, 0
0, 0
0, 0
0, 0
0, 0
0, 0
0, 0
0, 0
0, 0
0, 0
0, 0
0, 0
0, 0
0, 0
0, 0
0, 0
0, 0
0, 0
0, 0
0, 0
0, 0
0, 0
0, 0
0, 0
0, 0
0, 0
0, 0
0, 0
0, 0
0, 0
0, 0
0, 0
0, 0
0, 0
0, 0
0, 0
0, 0
0, 0
0, 0
0, 0
0, 0
0, 0
0, 0
0, 0
0, 0
0, 0
0, 0
0, 0
0, 0
0, 0
0, 0
0, 0
0, 0
0, 0
0, 0
0, 0
0, 0
0, 0
0, 0
0, 0
0, 0
0, 0
0, 0
0, 0
0, 0
0, 0
0, 0
0, 0
0, 0
0, 0
0, 0
0, 0
0, 0
0, 0
0, 0
0, 0
0, 0
0, 0
0, 0
0, 0
0, 0
0, 0
0, 0
0, 0
0, 0
0, 0
0, 0
0, 0
0, 0
0, 0
0, 0
0, 0
0, 0
0, 0
0, 0
0, 0
0, 0
0, 0
0, 0
0, 0
0, 0
0, 0
0, 0
0, 0
0, 0
0, 0
0, 0
0, 0
0, 0
0, 0
0, 0
0, 0
0, 0
0, 0
0, 0
0, 0
0, 0
0, 0
0, 0
0, 0
0, 0
0, 0
0, 0
0, 0
0, 0
0, 0
0, 0
0, 0
0, 0
0, 0
0, 0
0, 0
0, 0
0, 0
0, 0
0, 0
0, 0
0, 0
0, 0
0, 0
0, 0
0, 0
0, 0
0, 0
0, 0
0, 0
0, 0
0, 0
0, 0
0, 0
0, 0
0, 0
0, 0
0, 0
0, 0
0, 0
0, 0
0, 0
0, 0
0, 0
0, 0
0, 0
0, 0
0, 0
0, 0
0, 0
0, 0
0, 0
0, 0
0, 0
0, 0
0, 0
0, 0
0, 0
0, 0
0, 0
0, 0
0, 0
0, 0
0, 0
0, 0
0, 0
0, 0
0, 0
0, 0
0, 0
0, 0
0, 0
0, 0
0, 0
0, 0
0, 0
0, 0
0, 0
0, 0
0, 0
0, 0
0, 0
0, 0
0, 0
0, 0
0, 0
0, 0
0, 0
0, 0
0, 0
0, 0
0, 0
0, 0
0, 0
0, 0
0, 0
0, 0
0, 0
0, 0
0, 0
0, 0
0, 0
0, 0
0, 0
0, 0
0, 0
0, 0
0, 0
0, 0
0, 0
#ENDOFDATA     end of spectrum data