File: host_upload/12-01-2023/Dourbes (shot-by-shot)/upload_4/ps__0257_0689790785_000rfs_shot_3144.msa
#FORMAT      : EMSA/MAS spectral data file
#VERSION     : TC202v2.0 PIXL
#TITLE       : N/A
#DATE        :       Date in the format DD-MMM-YYYY, for example 07-JUL-2010
#TIME        :             The time of day at which the spectrum was recorded, in 24-hour format
#OWNER       : PIXL Flight Model       (PIXL will use this to indicate which instrument took the data.)
#NPOINTS     : 4096     Number of data points in the spectrum (This can be zero for configuration only files)
#NCOLUMNS    : 2     Number of data columns in the spectrum (This can be zero for configuration only files)
#XUNITS      : eV
#YUNITS      : COUNTS
#DATATYPE    : YY
#XPERCHAN    : 7.862, 7.881   eV per channel (separate by commas if more than one detector)
#OFFSET      : 18.5, -22.4         eV of first channel  (separate by commas if more than one detector
#SIGNALTYPE  : XRF
#YP_TEMP     : 3.39
#LIVETIME    : 9.15848, 9.14735   seconds (separate by commas if more than one detector)
#REALTIME    : 10, 10.0   seconds (separate by commas if more than one detector)
#SPECTRUM    : start of spectrum data
0, 0
0, 0
0, 0
0, 0
0, 0
0, 0
0, 0
0, 0
0, 0
0, 0
0, 0
0, 0
0, 0
0, 0
0, 0
0, 0
0, 0
0, 0
0, 0
0, 0
0, 0
0, 0
0, 0
0, 0
0, 0
0, 0
0, 0
0, 0
0, 0
0, 0
0, 0
0, 0
0, 0
0, 0
0, 0
0, 0
1, 0
0, 0
2, 1
0, 0
1, 1
2, 2
3, 2
3, 1
0, 0
2, 2
0, 1
2, 2
3, 3
4, 3
15, 11
12, 29
22, 28
39, 48
32, 45
38, 46
23, 31
16, 23
14, 11
7, 6
5, 7
3, 7
8, 10
10, 6
14, 6
12, 16
8, 7
16, 8
27, 17
42, 57
138, 132
288, 278
469, 495
641, 777
838, 944
816, 862
678, 762
496, 555
324, 343
191, 148
92, 93
41, 47
23, 27
12, 19
21, 18
13, 15
14, 12
9, 7
5, 3
2, 3
2, 2
0, 0
4, 2
3, 1
0, 2
1, 2
3, 8
0, 13
4, 7
3, 2
6, 6
5, 6
5, 2
5, 1
1, 4
4, 2
2, 0
3, 4
5, 4
2, 10
6, 13
11, 14
23, 20
23, 23
21, 24
16, 28
23, 23
26, 23
15, 7
14, 19
18, 10
14, 13
22, 13
14, 15
18, 16
9, 3
10, 8
11, 9
8, 9
6, 2
3, 4
4, 5
3, 4
2, 2
2, 7
5, 5
5, 3
4, 3
2, 7
0, 0
1, 4
3, 1
4, 5
0, 1
2, 2
7, 10
4, 4
13, 8
13, 6
25, 30
39, 56
97, 116
178, 222
340, 427
599, 750
859, 945
1074, 1204
1152, 1302
1118, 1242
922, 1017
689, 629
414, 419
231, 232
114, 103
60, 71
49, 49
39, 64
67, 89
112, 115
138, 167
185, 182
158, 181
150, 166
112, 130
79, 81
53, 64
36, 30
17, 16
3, 13
6, 5
2, 0
3, 2
1, 2
3, 1
4, 1
2, 3
6, 6
6, 11
9, 18
23, 15
19, 22
34, 29
24, 39
26, 23
20, 27
21, 17
18, 14
12, 13
6, 8
4, 6
6, 10
7, 6
8, 5
2, 4
4, 3
2, 8
3, 3
4, 5
10, 5
9, 13
9, 10
7, 7
8, 9
8, 8
7, 6
3, 1
5, 5
6, 5
5, 2
4, 5
3, 5
5, 4
1, 13
6, 14
7, 14
14, 27
19, 35
27, 44
35, 48
40, 56
52, 61
61, 46
42, 33
33, 31
24, 21
16, 24
12, 11
6, 8
3, 6
6, 3
2, 8
1, 1
5, 5
2, 6
9, 12
9, 14
7, 19
28, 28
25, 44
39, 49
55, 50
34, 42
48, 43
22, 26
31, 22
22, 21
12, 20
13, 10
6, 15
6, 16
8, 15
6, 15
20, 25
28, 38
65, 73
88, 154
187, 261
308, 457
468, 660
700, 920
841, 1152
1002, 1215
1034, 1292
1060, 1169
915, 973
700, 677
520, 460
292, 304
195, 154
132, 79
69, 33
53, 23
39, 13
15, 13
12, 7
9, 8
7, 8
10, 8
10, 14
9, 8
10, 15
17, 23
17, 21
35, 34
39, 78
73, 102
103, 130
140, 165
167, 189
167, 195
168, 208
153, 173
131, 173
103, 104
70, 60
45, 44
26, 32
20, 19
11, 16
8, 7
3, 3
14, 4
12, 4
16, 3
19, 6
26, 11
26, 5
33, 4
34, 8
26, 7
19, 7
10, 10
16, 7
12, 3
5, 6
10, 8
4, 5
7, 5
6, 6
2, 4
6, 5
6, 3
5, 3
4, 5
2, 2
3, 3
3, 2
5, 1
2, 2
5, 3
4, 6
4, 10
9, 7
4, 5
11, 10
6, 4
10, 6
5, 5
8, 2
5, 3
3, 5
8, 9
4, 7
8, 10
9, 13
7, 11
8, 10
4, 10
5, 11
7, 2
5, 9
3, 3
8, 11
3, 3
6, 1
8, 3
8, 2
7, 3
7, 5
7, 6
2, 7
6, 5
5, 4
5, 8
2, 3
6, 3
3, 7
3, 4
5, 7
5, 7
5, 10
3, 5
3, 6
2, 4
2, 4
3, 2
4, 8
1, 7
4, 5
2, 5
1, 6
3, 6
3, 2
6, 5
6, 4
7, 8
4, 6
5, 2
1, 2
2, 4
12, 7
5, 4
2, 5
9, 9
5, 6
8, 5
8, 13
5, 13
10, 16
4, 17
7, 19
7, 15
5, 17
5, 10
2, 17
3, 8
3, 8
2, 7
3, 3
3, 3
4, 1
1, 4
4, 3
3, 4
6, 3
3, 3
5, 2
3, 5
2, 7
1, 1
3, 4
2, 4
3, 4
5, 3
2, 7
4, 5
6, 4
2, 4
3, 3
1, 6
2, 3
2, 1
2, 5
2, 4
4, 1
3, 5
2, 2
2, 4
1, 3
4, 2
1, 1
4, 2
4, 3
3, 6
1, 3
1, 5
2, 2
4, 4
2, 2
5, 6
1, 1
1, 4
3, 4
6, 2
2, 2
2, 3
2, 2
1, 6
5, 5
1, 3
4, 2
4, 1
1, 4
4, 2
3, 3
2, 2
1, 4
3, 4
2, 2
1, 0
2, 2
4, 5
1, 5
6, 2
3, 5
0, 5
5, 1
0, 2
3, 6
3, 7
3, 7
2, 10
1, 9
3, 11
1, 7
5, 3
4, 4
5, 6
2, 2
1, 3
3, 2
0, 3
3, 5
0, 3
2, 2
2, 3
0, 1
3, 3
3, 1
1, 5
1, 1
3, 1
5, 5
1, 2
1, 1
5, 2
9, 4
3, 1
2, 0
4, 3
3, 1
5, 3
6, 1
3, 0
3, 4
1, 1
1, 4
2, 1
2, 3
0, 0
2, 3
2, 1
1, 2
3, 1
3, 2
3, 2
2, 3
3, 3
3, 2
3, 3
2, 1
5, 4
4, 3
8, 1
3, 1
1, 6
2, 3
5, 2
1, 3
2, 2
0, 4
0, 4
0, 1
2, 3
0, 1
1, 4
1, 3
0, 0
3, 0
2, 1
0, 0
2, 2
1, 3
2, 2
1, 1
5, 3
2, 2
1, 0
2, 4
1, 4
1, 2
1, 1
0, 1
0, 2
1, 2
0, 2
0, 2
0, 4
1, 1
4, 1
3, 1
0, 1
1, 3
0, 1
1, 0
1, 2
0, 1
2, 2
1, 2
2, 0
1, 2
0, 3
1, 2
0, 0
0, 1
2, 1
1, 2
1, 2
0, 1
1, 0
1, 1
2, 0
1, 1
0, 0
1, 1
1, 0
1, 0
0, 1
1, 0
0, 1
0, 0
0, 2
1, 0
1, 0
0, 0
1, 1
0, 1
2, 2
1, 0
2, 1
1, 1
1, 0
1, 0
1, 1
0, 2
0, 3
3, 1
0, 1
0, 0
2, 0
0, 0
1, 0
0, 0
1, 1
2, 0
0, 1
0, 0
2, 0
1, 2
0, 0
0, 2
2, 1
1, 0
1, 0
0, 1
1, 1
2, 0
2, 1
0, 1
2, 0
0, 0
2, 1
2, 0
2, 2
1, 1
0, 0
0, 0
2, 0
1, 0
0, 0
0, 1
1, 0
0, 0
1, 0
3, 3
0, 0
0, 2
0, 0
1, 2
0, 1
1, 0
0, 0
1, 1
0, 3
1, 1
2, 2
1, 0
0, 0
0, 2
0, 0
0, 0
1, 1
0, 0
0, 3
0, 0
2, 1
0, 0
2, 1
0, 0
0, 0
1, 0
1, 0
0, 0
0, 0
1, 2
1, 0
0, 2
0, 0
0, 1
1, 2
0, 1
1, 1
0, 0
0, 0
0, 1
1, 1
0, 0
1, 0
1, 1
0, 0
1, 0
0, 0
1, 2
1, 0
0, 1
0, 0
0, 0
1, 1
0, 1
0, 0
0, 1
0, 0
0, 1
0, 2
0, 0
0, 0
0, 0
0, 0
0, 0
4, 1
0, 1
1, 0
1, 1
0, 0
0, 0
1, 2
0, 1
0, 0
1, 0
0, 1
0, 0
0, 0
0, 1
0, 0
0, 1
1, 0
1, 0
1, 1
1, 0
0, 1
0, 1
0, 0
0, 1
1, 0
1, 0
0, 1
0, 0
0, 0
0, 0
0, 1
0, 0
1, 1
1, 0
0, 0
0, 0
0, 0
0, 0
0, 0
0, 0
1, 0
0, 0
0, 0
3, 0
0, 0
0, 0
0, 0
1, 0
0, 0
0, 0
1, 0
0, 0
0, 0
1, 0
2, 0
0, 0
2, 0
0, 0
0, 0
0, 0
0, 0
0, 0
0, 0
0, 0
0, 0
0, 0
0, 0
0, 1
1, 2
0, 0
0, 0
0, 0
1, 0
0, 0
0, 0
0, 0
0, 0
0, 0
1, 0
0, 0
0, 0
0, 0
0, 0
0, 0
0, 0
0, 1
0, 2
0, 0
0, 0
0, 0
0, 1
0, 0
0, 0
1, 0
0, 0
0, 0
2, 0
0, 0
0, 0
0, 0
0, 1
0, 0
1, 0
0, 0
0, 0
0, 0
0, 0
0, 0
1, 0
0, 0
0, 0
1, 0
0, 1
0, 0
0, 0
0, 0
0, 0
0, 1
0, 0
0, 0
0, 0
0, 0
0, 1
0, 0
0, 0
0, 0
1, 0
0, 1
1, 1
0, 0
0, 0
0, 0
0, 0
1, 0
0, 0
0, 0
0, 0
0, 1
0, 0
0, 1
0, 0
0, 0
0, 0
0, 0
0, 0
1, 0
0, 0
0, 0
0, 0
0, 0
0, 0
0, 0
0, 0
1, 0
0, 0
0, 0
0, 0
0, 0
0, 0
0, 0
1, 0
0, 0
0, 0
0, 1
0, 0
0, 0
0, 0
0, 0
0, 0
0, 0
0, 0
0, 0
0, 0
0, 0
0, 0
0, 0
0, 0
0, 0
0, 0
0, 0
0, 0
0, 0
0, 0
0, 0
0, 0
0, 0
0, 0
0, 0
0, 0
0, 0
0, 0
0, 0
0, 0
0, 0
0, 0
0, 0
0, 0
0, 0
0, 0
0, 0
0, 0
0, 0
0, 0
0, 0
0, 0
0, 0
0, 0
0, 0
0, 0
0, 0
0, 0
0, 0
0, 0
0, 0
0, 0
0, 0
0, 0
0, 0
0, 0
0, 0
0, 0
0, 0
0, 0
0, 0
0, 0
0, 0
0, 0
0, 0
0, 0
0, 0
0, 0
0, 0
0, 0
0, 0
0, 0
0, 0
0, 0
0, 0
0, 0
0, 0
0, 0
0, 0
0, 0
0, 0
0, 0
0, 0
0, 0
0, 0
0, 0
0, 0
0, 0
0, 0
0, 0
0, 0
0, 0
0, 0
0, 0
0, 0
0, 0
0, 0
0, 0
0, 0
0, 0
0, 0
0, 0
0, 0
0, 0
0, 0
0, 0
0, 0
0, 0
0, 0
0, 0
0, 0
0, 0
0, 0
0, 0
0, 0
0, 0
0, 0
0, 0
0, 0
0, 0
0, 0
0, 0
0, 0
0, 0
0, 0
1, 0
0, 0
0, 0
0, 0
0, 0
0, 0
0, 0
0, 0
0, 0
0, 0
0, 0
0, 0
0, 0
0, 0
0, 0
0, 0
0, 0
0, 0
0, 0
0, 0
0, 0
0, 0
0, 0
0, 0
0, 0
0, 0
0, 0
0, 0
0, 0
0, 0
0, 0
0, 0
0, 0
0, 0
0, 0
0, 0
0, 0
0, 0
0, 0
0, 0
0, 0
0, 0
0, 0
0, 0
0, 0
0, 0
0, 0
0, 0
0, 0
0, 0
0, 0
0, 0
0, 0
0, 0
0, 0
0, 0
0, 0
0, 0
0, 0
0, 0
0, 0
0, 0
0, 0
0, 0
0, 0
0, 0
0, 0
0, 0
0, 0
0, 0
0, 0
0, 0
0, 0
0, 0
0, 0
0, 0
0, 0
0, 0
0, 0
0, 0
0, 0
0, 0
0, 0
0, 0
0, 0
0, 0
0, 0
0, 0
0, 0
0, 0
0, 0
0, 0
0, 0
0, 0
0, 0
0, 0
0, 0
0, 0
0, 0
0, 0
0, 0
0, 0
0, 0
0, 0
0, 0
0, 0
0, 0
0, 0
0, 0
0, 0
0, 0
0, 0
0, 0
0, 0
0, 0
0, 0
0, 0
0, 0
0, 0
0, 0
0, 0
0, 0
0, 0
0, 0
0, 0
0, 0
0, 0
0, 0
0, 0
0, 0
0, 0
0, 0
0, 0
0, 0
0, 0
0, 0
0, 0
0, 0
0, 0
0, 0
0, 0
0, 0
0, 0
0, 0
0, 0
0, 0
0, 0
0, 0
0, 0
0, 0
0, 0
0, 0
0, 0
0, 0
0, 0
0, 0
0, 0
0, 0
0, 0
0, 0
0, 0
0, 0
0, 0
0, 0
0, 0
0, 0
0, 0
0, 0
0, 0
0, 0
0, 0
0, 0
0, 0
0, 0
0, 0
0, 0
0, 0
0, 0
0, 0
0, 0
0, 0
0, 0
0, 0
0, 0
0, 0
0, 0
0, 0
0, 0
0, 0
0, 0
0, 0
0, 0
0, 0
0, 0
0, 0
0, 0
0, 0
0, 0
0, 0
0, 0
0, 0
0, 0
0, 0
0, 0
0, 0
0, 0
0, 0
0, 0
0, 0
0, 0
0, 0
0, 0
0, 0
0, 0
0, 0
0, 0
0, 0
0, 0
0, 0
0, 0
0, 0
0, 0
0, 0
0, 0
0, 0
0, 0
0, 0
0, 0
0, 0
0, 0
0, 0
0, 0
0, 0
0, 0
0, 0
0, 0
0, 0
0, 0
0, 0
0, 0
0, 0
0, 0
0, 0
0, 0
0, 0
0, 0
0, 0
0, 0
0, 0
0, 0
0, 0
0, 0
0, 0
0, 0
0, 0
0, 0
0, 0
0, 0
0, 0
0, 0
0, 0
0, 0
0, 0
0, 0
0, 0
0, 0
0, 0
0, 0
0, 0
0, 0
0, 0
0, 0
0, 0
0, 0
0, 0
0, 0
0, 0
0, 0
0, 0
0, 0
0, 0
0, 0
0, 0
0, 0
0, 0
0, 0
0, 0
0, 0
0, 0
0, 0
0, 0
0, 0
0, 0
0, 0
0, 0
0, 0
0, 0
0, 0
0, 0
0, 0
0, 0
0, 0
0, 0
0, 0
0, 0
0, 0
0, 0
0, 0
0, 0
0, 0
0, 0
0, 0
0, 0
0, 0
0, 0
0, 0
0, 0
0, 0
0, 0
0, 0
0, 0
0, 0
0, 0
0, 0
0, 0
0, 0
0, 0
0, 0
0, 0
0, 0
0, 0
0, 0
0, 0
0, 0
0, 0
0, 0
0, 0
0, 0
0, 0
0, 0
0, 0
0, 0
0, 0
0, 0
0, 0
0, 0
0, 0
0, 0
0, 0
#ENDOFDATA     end of spectrum data