File: host_upload/12-01-2023/Dourbes (shot-by-shot)/upload_4/ps__0257_0689790785_000rfs_shot_3192.msa
#FORMAT      : EMSA/MAS spectral data file
#VERSION     : TC202v2.0 PIXL
#TITLE       : N/A
#DATE        :       Date in the format DD-MMM-YYYY, for example 07-JUL-2010
#TIME        :             The time of day at which the spectrum was recorded, in 24-hour format
#OWNER       : PIXL Flight Model       (PIXL will use this to indicate which instrument took the data.)
#NPOINTS     : 4096     Number of data points in the spectrum (This can be zero for configuration only files)
#NCOLUMNS    : 2     Number of data columns in the spectrum (This can be zero for configuration only files)
#XUNITS      : eV
#YUNITS      : COUNTS
#DATATYPE    : YY
#XPERCHAN    : 7.862, 7.881   eV per channel (separate by commas if more than one detector)
#OFFSET      : 18.5, -22.4         eV of first channel  (separate by commas if more than one detector
#SIGNALTYPE  : XRF
#YP_TEMP     : 2.973
#LIVETIME    : 8.98071, 8.96527   seconds (separate by commas if more than one detector)
#REALTIME    : 10, 10.0   seconds (separate by commas if more than one detector)
#SPECTRUM    : start of spectrum data
0, 0
0, 0
0, 0
0, 0
0, 0
0, 0
0, 0
0, 0
0, 0
0, 0
0, 0
0, 0
0, 0
0, 0
0, 0
0, 0
0, 0
0, 0
0, 0
0, 0
0, 0
0, 0
0, 0
0, 0
0, 0
0, 0
0, 0
0, 0
0, 0
0, 0
0, 0
0, 0
0, 0
0, 0
0, 1
0, 1
0, 0
0, 0
0, 0
0, 1
0, 3
3, 2
1, 4
2, 4
2, 6
1, 4
0, 1
2, 6
1, 4
7, 4
17, 14
24, 21
37, 46
59, 47
39, 68
46, 51
37, 32
15, 30
10, 13
6, 11
4, 2
6, 5
3, 3
9, 2
8, 6
4, 7
2, 3
11, 12
11, 13
41, 31
77, 89
172, 152
293, 282
361, 413
476, 469
469, 455
389, 457
277, 302
197, 172
95, 118
58, 54
22, 24
12, 14
6, 5
5, 12
7, 2
6, 4
8, 3
6, 3
4, 1
4, 1
1, 2
5, 6
2, 10
3, 15
5, 11
4, 14
3, 20
7, 20
4, 10
4, 8
3, 7
6, 4
2, 5
7, 2
3, 6
2, 6
11, 9
6, 12
9, 16
18, 21
23, 44
31, 66
47, 91
54, 151
58, 176
44, 243
36, 302
31, 276
25, 229
16, 214
26, 160
17, 96
21, 70
24, 38
12, 28
8, 15
13, 11
7, 11
7, 7
2, 11
3, 5
3, 5
3, 6
5, 1
5, 5
2, 5
2, 3
6, 6
9, 4
1, 6
5, 10
4, 15
12, 14
13, 6
13, 4
14, 2
19, 7
18, 0
25, 2
20, 4
20, 5
17, 9
17, 22
20, 21
28, 34
32, 40
22, 43
36, 34
30, 30
31, 21
14, 11
9, 9
5, 13
6, 8
8, 7
5, 5
5, 6
2, 11
9, 6
8, 3
13, 13
8, 9
10, 5
5, 3
15, 8
7, 4
9, 5
14, 6
3, 7
7, 10
5, 6
4, 4
11, 4
2, 3
5, 4
10, 3
5, 6
10, 10
19, 11
9, 19
8, 19
22, 22
17, 18
22, 19
20, 23
20, 22
20, 26
25, 18
31, 20
11, 14
16, 19
17, 9
7, 6
7, 12
6, 2
7, 12
7, 8
12, 10
16, 15
5, 21
3, 29
7, 27
10, 31
6, 37
5, 37
7, 27
3, 19
5, 21
5, 10
2, 9
7, 9
5, 7
10, 11
9, 7
16, 12
11, 20
19, 18
12, 30
20, 61
21, 76
22, 101
21, 162
20, 215
13, 228
14, 248
15, 249
16, 229
11, 172
22, 140
17, 80
16, 58
13, 51
18, 29
16, 26
30, 35
50, 49
57, 48
78, 93
95, 92
92, 113
100, 112
78, 111
88, 83
78, 61
71, 53
46, 36
45, 26
34, 31
21, 38
27, 35
30, 46
42, 81
87, 153
177, 220
354, 430
612, 847
1073, 1409
1753, 2094
2464, 2859
3150, 3584
3608, 3979
3767, 4178
3697, 3718
3185, 2923
2551, 2136
1746, 1512
1084, 859
638, 497
329, 241
173, 138
73, 93
51, 51
24, 41
14, 38
21, 37
20, 17
18, 25
23, 33
34, 35
29, 44
47, 63
64, 73
115, 121
151, 179
221, 234
312, 375
469, 421
542, 520
524, 522
529, 602
495, 495
416, 383
288, 309
234, 193
149, 122
78, 56
45, 38
29, 24
13, 13
7, 2
6, 7
8, 4
7, 6
5, 6
7, 9
8, 11
7, 7
8, 3
4, 7
6, 7
5, 3
9, 7
3, 7
6, 10
2, 13
4, 13
2, 22
2, 19
7, 29
2, 21
4, 16
3, 18
1, 17
4, 19
2, 11
4, 13
7, 6
8, 6
11, 6
5, 6
3, 6
6, 5
7, 6
4, 3
7, 8
4, 7
5, 4
7, 11
1, 3
8, 7
5, 7
5, 4
2, 8
6, 2
4, 11
6, 5
5, 7
5, 6
9, 5
10, 6
3, 3
1, 4
3, 5
5, 2
1, 4
4, 4
5, 5
4, 1
6, 6
4, 7
2, 2
4, 3
2, 4
1, 5
1, 3
3, 5
2, 3
5, 9
3, 1
3, 3
4, 5
9, 4
5, 6
4, 0
4, 2
4, 4
6, 2
4, 7
3, 5
3, 2
6, 5
1, 2
3, 3
2, 1
4, 6
3, 2
6, 2
4, 5
5, 2
1, 6
2, 1
3, 3
7, 3
4, 3
3, 5
1, 2
2, 1
4, 2
2, 4
1, 2
4, 4
3, 0
5, 0
3, 1
1, 5
1, 1
3, 4
1, 1
2, 5
4, 9
4, 6
3, 4
3, 6
2, 8
2, 6
3, 7
1, 5
4, 12
3, 7
5, 7
2, 3
1, 6
3, 2
2, 0
2, 3
3, 2
4, 0
1, 5
0, 0
4, 1
6, 3
3, 2
7, 1
5, 2
6, 0
4, 2
5, 1
4, 6
6, 3
3, 1
2, 4
2, 2
2, 1
4, 2
5, 0
2, 1
1, 2
1, 1
2, 1
2, 1
2, 1
5, 2
3, 0
8, 2
1, 0
2, 3
9, 1
3, 2
2, 0
3, 3
5, 2
3, 1
1, 0
1, 0
3, 2
4, 1
2, 1
2, 4
0, 1
1, 1
3, 3
1, 5
2, 0
0, 3
2, 1
5, 5
1, 0
0, 2
3, 1
3, 1
1, 4
1, 2
3, 0
3, 4
1, 3
1, 3
1, 1
0, 0
0, 1
2, 1
1, 6
4, 5
1, 2
5, 4
2, 3
2, 2
2, 1
2, 4
2, 1
2, 3
0, 6
0, 2
3, 3
2, 4
1, 1
1, 2
1, 3
3, 1
1, 2
1, 2
1, 2
0, 1
2, 3
0, 3
1, 1
1, 4
4, 0
2, 2
6, 1
0, 4
2, 3
3, 1
1, 3
1, 2
2, 1
4, 4
5, 5
7, 5
2, 7
10, 7
11, 4
7, 12
4, 6
6, 8
6, 6
8, 5
6, 4
3, 3
4, 4
5, 2
3, 0
1, 3
0, 0
2, 1
3, 1
0, 1
0, 1
1, 0
1, 2
1, 0
0, 1
0, 1
0, 1
4, 4
3, 3
4, 0
2, 4
3, 4
6, 3
2, 1
3, 2
2, 4
1, 3
3, 0
2, 1
5, 2
2, 0
1, 0
2, 0
0, 0
0, 0
0, 0
0, 1
0, 0
1, 1
4, 0
1, 0
2, 0
1, 0
0, 1
0, 1
1, 1
0, 1
2, 2
1, 0
1, 2
2, 1
0, 2
4, 1
0, 1
1, 0
1, 1
2, 0
2, 0
2, 1
1, 2
1, 3
0, 1
1, 2
0, 2
1, 1
0, 1
0, 3
0, 0
0, 1
0, 0
1, 0
0, 0
2, 0
0, 0
1, 1
0, 1
0, 2
1, 0
0, 0
0, 1
2, 0
1, 1
1, 0
1, 0
4, 0
0, 0
0, 0
3, 1
1, 3
1, 1
0, 0
1, 0
0, 0
0, 0
0, 1
0, 0
1, 1
0, 0
1, 1
0, 0
0, 0
0, 1
1, 0
0, 0
1, 0
1, 0
0, 1
2, 1
2, 0
0, 1
2, 1
1, 1
1, 1
1, 0
2, 1
2, 0
1, 0
0, 0
1, 0
0, 1
1, 0
1, 0
0, 1
0, 0
1, 0
0, 1
0, 0
2, 0
0, 1
0, 0
0, 1
1, 0
0, 0
0, 0
0, 0
0, 0
0, 1
0, 0
1, 1
0, 1
1, 1
0, 1
1, 0
0, 0
0, 0
0, 0
0, 0
0, 0
0, 1
0, 0
1, 0
0, 1
0, 0
1, 0
0, 1
0, 0
0, 0
2, 0
0, 0
0, 0
0, 0
0, 1
1, 0
1, 1
2, 0
0, 3
0, 0
0, 0
0, 0
0, 0
0, 0
0, 0
0, 0
0, 0
1, 1
0, 0
0, 0
0, 0
0, 0
0, 0
0, 0
1, 0
1, 0
0, 0
1, 0
0, 0
0, 0
0, 0
0, 0
0, 0
0, 0
0, 0
1, 0
0, 0
0, 1
0, 1
0, 1
0, 0
1, 0
0, 0
0, 0
0, 0
0, 0
0, 1
0, 1
0, 0
0, 0
0, 0
0, 0
0, 1
0, 0
1, 0
0, 0
0, 0
0, 0
1, 0
0, 0
0, 0
0, 0
0, 0
1, 0
2, 0
0, 0
0, 1
0, 0
0, 1
0, 0
0, 0
0, 0
1, 1
0, 1
0, 0
0, 0
0, 0
0, 0
0, 0
1, 0
0, 0
1, 0
0, 0
1, 0
0, 0
0, 0
0, 1
0, 0
0, 0
1, 1
1, 0
0, 0
0, 1
0, 0
0, 0
1, 0
0, 0
0, 0
0, 1
0, 0
0, 1
2, 0
0, 0
1, 0
0, 0
0, 0
0, 0
0, 1
0, 0
0, 0
0, 2
1, 0
0, 0
1, 0
0, 0
0, 0
1, 0
0, 0
0, 0
0, 0
0, 0
0, 0
1, 1
0, 1
0, 1
0, 0
0, 0
0, 0
0, 0
0, 0
0, 0
0, 0
0, 0
0, 0
0, 0
0, 0
0, 0
0, 0
0, 0
0, 0
0, 0
0, 0
0, 0
0, 0
0, 0
0, 0
0, 0
0, 0
0, 0
0, 0
0, 0
0, 0
0, 0
0, 1
0, 0
0, 0
0, 0
0, 0
0, 0
0, 0
0, 0
0, 0
0, 0
0, 0
0, 0
0, 0
0, 0
0, 0
0, 0
0, 0
0, 0
0, 0
0, 0
0, 0
0, 1
0, 0
0, 0
0, 0
0, 0
0, 0
0, 0
0, 0
0, 0
0, 0
1, 0
0, 0
0, 0
0, 0
0, 0
0, 0
0, 0
0, 0
0, 0
0, 0
0, 0
0, 0
0, 0
0, 0
0, 0
0, 0
0, 0
0, 0
0, 0
0, 0
0, 0
0, 0
0, 0
0, 0
0, 0
0, 0
0, 0
0, 0
0, 0
0, 0
0, 1
0, 0
1, 0
0, 0
0, 0
0, 0
0, 0
0, 0
0, 0
0, 0
1, 0
0, 0
0, 0
0, 0
0, 0
0, 0
0, 0
0, 0
0, 0
0, 0
0, 0
0, 0
0, 0
0, 0
0, 0
0, 0
0, 0
0, 0
0, 0
0, 1
0, 0
0, 0
0, 0
0, 0
0, 0
0, 0
0, 0
0, 0
0, 0
0, 0
0, 0
0, 0
0, 0
0, 0
0, 0
0, 0
0, 0
0, 0
0, 0
0, 0
0, 0
0, 0
0, 0
0, 0
0, 0
0, 0
0, 0
0, 0
0, 0
0, 0
0, 0
0, 0
0, 0
0, 0
0, 0
0, 0
0, 0
0, 0
0, 0
0, 0
0, 0
0, 0
0, 0
0, 0
0, 0
0, 0
0, 0
0, 0
0, 0
0, 0
0, 0
0, 0
0, 0
0, 0
0, 0
0, 0
0, 0
0, 0
0, 0
0, 0
0, 0
0, 0
0, 0
0, 0
0, 0
0, 0
0, 0
0, 0
0, 0
0, 0
0, 0
0, 0
0, 0
0, 0
0, 0
0, 0
0, 0
0, 0
0, 0
0, 0
0, 0
0, 0
0, 0
0, 0
0, 0
0, 0
0, 0
0, 0
0, 0
0, 0
0, 0
0, 0
0, 0
0, 0
0, 0
0, 0
0, 0
0, 0
0, 0
0, 0
0, 0
0, 0
0, 0
0, 0
0, 0
0, 0
0, 0
0, 0
0, 0
0, 0
0, 0
0, 0
0, 0
0, 0
0, 0
0, 0
0, 0
0, 0
0, 0
0, 0
1, 0
0, 0
0, 0
0, 0
0, 0
0, 0
0, 0
0, 0
0, 0
0, 0
0, 0
0, 0
0, 0
0, 0
0, 0
0, 0
0, 0
0, 0
0, 0
0, 0
0, 0
0, 0
0, 0
0, 0
0, 0
0, 0
0, 0
0, 0
0, 0
0, 0
0, 0
0, 0
0, 0
0, 0
0, 0
0, 0
0, 0
0, 0
0, 0
0, 0
0, 0
0, 0
0, 0
0, 0
0, 0
0, 0
0, 0
0, 0
0, 0
0, 0
0, 0
0, 0
0, 0
0, 0
0, 0
0, 0
0, 0
0, 0
0, 0
0, 0
0, 0
0, 0
0, 0
0, 0
0, 0
0, 0
0, 0
0, 0
0, 0
0, 0
0, 0
0, 0
0, 0
0, 0
0, 0
0, 0
0, 0
0, 0
0, 0
0, 0
0, 0
0, 0
0, 0
0, 0
0, 0
0, 0
0, 0
0, 0
0, 0
0, 0
0, 0
0, 0
0, 0
0, 0
0, 0
0, 0
0, 0
0, 0
0, 0
0, 0
0, 0
0, 0
0, 0
0, 0
0, 0
0, 0
0, 0
0, 0
0, 0
0, 0
0, 0
0, 0
0, 0
0, 0
0, 0
0, 0
0, 0
0, 0
0, 0
0, 0
0, 0
0, 0
0, 0
0, 0
0, 0
0, 0
0, 0
0, 0
0, 0
0, 0
0, 0
0, 0
0, 0
0, 0
0, 0
0, 0
0, 0
0, 0
0, 0
0, 0
0, 0
0, 0
0, 0
0, 0
0, 0
0, 0
0, 0
0, 0
0, 0
0, 0
0, 0
0, 0
0, 0
0, 0
0, 0
0, 0
0, 0
0, 0
0, 0
0, 0
0, 0
0, 0
0, 0
0, 0
0, 0
0, 0
0, 0
0, 0
0, 0
0, 0
0, 0
0, 0
0, 0
0, 0
0, 0
0, 0
0, 0
0, 0
0, 0
0, 0
0, 0
0, 0
0, 0
0, 0
0, 0
0, 0
0, 0
0, 0
0, 0
0, 0
0, 0
0, 0
0, 0
0, 0
0, 0
0, 0
0, 0
0, 0
0, 0
0, 0
0, 0
0, 0
0, 0
0, 0
0, 0
0, 0
0, 0
0, 0
0, 0
0, 0
0, 0
0, 0
0, 0
0, 0
0, 0
0, 0
0, 0
0, 0
0, 0
0, 0
0, 0
0, 0
0, 0
0, 0
0, 0
0, 0
0, 0
0, 0
0, 0
0, 0
0, 0
0, 0
0, 0
0, 0
0, 0
0, 0
0, 0
0, 0
0, 0
0, 0
0, 0
0, 0
0, 0
0, 0
0, 0
0, 0
0, 0
0, 0
0, 0
0, 0
0, 0
0, 0
0, 0
0, 0
0, 0
0, 0
0, 0
0, 0
0, 0
0, 0
0, 0
0, 0
0, 0
0, 0
0, 0
0, 0
0, 0
0, 0
0, 0
0, 0
0, 0
0, 0
0, 0
0, 0
0, 0
0, 0
0, 0
0, 0
0, 0
0, 0
0, 0
0, 0
0, 0
0, 0
0, 0
0, 0
0, 0
0, 0
0, 0
0, 0
0, 0
0, 0
0, 0
0, 0
0, 0
0, 0
0, 0
0, 0
#ENDOFDATA     end of spectrum data