File: host_upload/12-01-2023/Dourbes (shot-by-shot)/upload_4/ps__0257_0689790785_000rfs_shot_3185.msa
#FORMAT      : EMSA/MAS spectral data file
#VERSION     : TC202v2.0 PIXL
#TITLE       : N/A
#DATE        :       Date in the format DD-MMM-YYYY, for example 07-JUL-2010
#TIME        :             The time of day at which the spectrum was recorded, in 24-hour format
#OWNER       : PIXL Flight Model       (PIXL will use this to indicate which instrument took the data.)
#NPOINTS     : 4096     Number of data points in the spectrum (This can be zero for configuration only files)
#NCOLUMNS    : 2     Number of data columns in the spectrum (This can be zero for configuration only files)
#XUNITS      : eV
#YUNITS      : COUNTS
#DATATYPE    : YY
#XPERCHAN    : 7.862, 7.881   eV per channel (separate by commas if more than one detector)
#OFFSET      : 18.5, -22.4         eV of first channel  (separate by commas if more than one detector
#SIGNALTYPE  : XRF
#YP_TEMP     : 3.262
#LIVETIME    : 9.12077, 9.14359   seconds (separate by commas if more than one detector)
#REALTIME    : 10, 10.0   seconds (separate by commas if more than one detector)
#SPECTRUM    : start of spectrum data
0, 0
0, 0
0, 0
0, 0
0, 0
0, 0
0, 0
0, 0
0, 0
0, 0
0, 0
0, 0
0, 0
0, 0
0, 0
0, 0
0, 0
0, 0
0, 0
0, 0
0, 0
0, 0
0, 0
0, 0
0, 0
0, 0
0, 0
0, 0
0, 0
0, 0
0, 0
0, 0
0, 0
1, 0
1, 0
0, 1
0, 1
0, 0
0, 1
2, 0
0, 0
0, 0
0, 2
0, 4
0, 0
1, 2
2, 2
2, 8
1, 3
8, 9
10, 13
23, 22
35, 32
46, 41
44, 40
43, 21
25, 25
9, 21
12, 11
8, 4
8, 2
5, 7
11, 12
10, 12
17, 10
14, 12
13, 12
16, 11
28, 21
52, 48
140, 109
304, 264
503, 469
762, 655
878, 779
901, 773
787, 681
557, 486
392, 306
205, 161
103, 87
59, 49
30, 23
19, 23
21, 15
19, 17
17, 6
7, 7
3, 2
2, 6
3, 1
0, 0
1, 1
3, 2
5, 1
5, 7
3, 5
3, 8
4, 5
3, 5
4, 3
4, 5
1, 4
3, 0
0, 0
3, 1
5, 2
6, 7
3, 9
5, 8
9, 13
13, 12
24, 13
13, 23
13, 21
16, 20
24, 20
20, 15
23, 16
20, 17
17, 19
22, 27
25, 21
14, 43
10, 51
15, 68
17, 113
14, 105
7, 84
3, 100
3, 61
6, 44
8, 28
4, 23
7, 4
3, 3
3, 4
7, 6
0, 5
2, 7
4, 0
4, 1
3, 4
4, 1
5, 2
4, 6
3, 4
7, 6
16, 12
22, 13
45, 56
99, 104
246, 238
412, 367
701, 586
995, 906
1201, 1126
1333, 1135
1271, 1099
1034, 879
751, 591
474, 354
258, 191
140, 85
68, 46
39, 41
68, 45
66, 71
137, 120
179, 132
193, 167
225, 160
182, 141
155, 105
105, 81
72, 43
21, 27
22, 17
11, 9
2, 1
0, 4
3, 2
2, 5
6, 2
3, 4
5, 7
1, 5
11, 9
15, 12
15, 15
30, 33
35, 31
41, 27
49, 30
33, 22
20, 13
14, 17
10, 1
8, 6
8, 9
6, 6
1, 6
6, 4
3, 3
8, 3
7, 5
1, 7
11, 8
5, 5
16, 14
11, 14
13, 3
11, 8
8, 5
12, 18
4, 13
4, 18
1, 21
0, 34
9, 21
6, 17
7, 25
4, 19
8, 15
13, 13
24, 12
25, 26
38, 26
44, 38
49, 35
52, 45
42, 53
48, 35
33, 29
28, 23
19, 20
12, 17
9, 7
5, 4
6, 3
2, 3
7, 8
7, 8
6, 7
3, 6
14, 9
25, 15
30, 36
38, 30
37, 32
39, 38
61, 37
47, 39
47, 33
40, 16
34, 22
34, 15
46, 14
53, 6
76, 6
121, 4
130, 15
194, 14
226, 39
246, 71
346, 138
380, 261
469, 391
678, 575
891, 868
1113, 946
1293, 1045
1286, 1118
1217, 975
1073, 819
831, 602
551, 405
364, 236
208, 108
117, 71
59, 42
26, 15
12, 12
8, 12
5, 4
7, 9
9, 7
8, 12
7, 11
13, 19
25, 11
19, 10
28, 17
40, 32
59, 57
98, 88
131, 115
129, 131
190, 164
196, 168
199, 165
199, 131
179, 125
143, 94
98, 54
60, 31
34, 25
17, 24
12, 13
11, 17
10, 15
7, 14
5, 12
9, 10
5, 8
11, 7
13, 5
9, 6
13, 8
7, 8
6, 7
8, 3
6, 5
9, 0
8, 2
5, 1
3, 2
8, 5
7, 4
5, 1
2, 2
4, 4
4, 3
7, 5
5, 4
5, 5
4, 2
9, 4
2, 3
1, 4
8, 1
5, 4
4, 6
7, 6
4, 11
3, 11
3, 6
6, 0
9, 4
8, 8
7, 4
21, 4
12, 6
13, 0
11, 5
22, 1
18, 5
14, 4
6, 1
6, 1
10, 4
10, 5
6, 3
5, 5
5, 2
3, 0
5, 5
4, 6
4, 0
4, 3
5, 5
2, 2
4, 2
1, 1
7, 3
1, 5
4, 5
6, 3
3, 7
3, 5
9, 2
8, 5
6, 7
9, 3
5, 2
6, 8
3, 7
6, 4
7, 2
4, 4
2, 3
6, 3
6, 4
0, 8
4, 12
3, 15
4, 11
3, 24
1, 10
2, 32
7, 22
2, 27
4, 32
4, 14
3, 21
5, 15
9, 12
6, 10
8, 14
6, 7
3, 2
7, 3
4, 3
4, 6
7, 5
6, 3
3, 5
8, 2
4, 5
6, 4
2, 4
9, 2
5, 8
10, 7
10, 5
8, 9
3, 4
6, 3
13, 7
4, 8
8, 9
4, 10
8, 9
2, 14
5, 9
7, 10
6, 18
7, 9
7, 9
6, 6
5, 4
10, 4
2, 4
5, 8
2, 5
1, 3
4, 2
6, 3
3, 10
3, 5
3, 2
5, 4
0, 3
4, 4
4, 2
3, 1
2, 2
4, 2
4, 2
1, 2
5, 3
3, 3
7, 1
4, 2
3, 6
1, 1
4, 3
2, 1
4, 3
0, 3
1, 4
4, 2
1, 4
4, 4
3, 4
6, 4
4, 3
6, 4
2, 2
2, 3
4, 6
2, 5
7, 3
4, 1
3, 2
3, 4
6, 2
10, 2
11, 2
11, 4
7, 1
14, 4
8, 1
8, 6
13, 3
7, 1
11, 2
3, 3
9, 1
5, 4
4, 1
7, 2
3, 1
2, 2
1, 3
2, 3
6, 6
1, 3
0, 5
4, 3
3, 1
2, 3
1, 1
3, 2
4, 3
2, 6
3, 7
4, 2
1, 4
1, 3
1, 3
2, 2
2, 6
2, 1
7, 1
1, 0
2, 2
2, 3
4, 2
6, 4
3, 1
3, 1
6, 4
0, 1
3, 1
4, 4
3, 1
1, 2
2, 1
4, 1
5, 2
4, 1
4, 3
2, 3
1, 0
2, 2
3, 0
2, 3
2, 2
3, 2
1, 1
1, 3
1, 2
3, 0
4, 1
2, 1
2, 0
2, 3
3, 1
2, 0
0, 1
2, 0
0, 0
4, 1
2, 4
4, 0
1, 0
4, 2
1, 2
3, 1
4, 2
1, 0
3, 0
3, 0
3, 1
1, 0
2, 0
1, 2
1, 2
2, 1
1, 0
0, 0
2, 1
2, 0
1, 1
1, 2
5, 0
1, 0
1, 2
0, 2
2, 2
1, 1
1, 2
3, 2
2, 1
1, 1
2, 1
1, 2
1, 1
0, 1
0, 3
2, 1
1, 2
1, 2
1, 3
1, 4
2, 0
1, 0
1, 2
1, 1
1, 1
0, 1
0, 1
2, 1
1, 5
1, 1
2, 2
1, 0
0, 2
1, 1
0, 2
1, 1
0, 3
1, 0
1, 1
0, 0
0, 2
0, 1
1, 0
1, 0
1, 2
0, 1
2, 1
0, 0
0, 2
0, 2
0, 2
1, 0
1, 1
0, 1
1, 0
1, 2
1, 0
2, 1
0, 2
0, 1
2, 0
1, 0
2, 0
0, 2
0, 2
0, 2
1, 3
2, 0
1, 1
0, 1
0, 1
1, 0
0, 1
0, 1
0, 2
0, 0
0, 2
0, 0
1, 0
0, 1
0, 0
3, 1
2, 1
0, 0
1, 1
1, 0
0, 0
0, 0
1, 1
0, 0
1, 0
3, 0
0, 2
1, 1
2, 1
0, 0
1, 0
2, 3
0, 0
0, 3
1, 1
0, 0
0, 1
0, 0
0, 0
1, 2
1, 0
1, 1
0, 1
0, 0
0, 0
2, 1
0, 0
1, 0
0, 0
0, 2
1, 0
2, 0
0, 1
1, 0
0, 2
0, 1
1, 0
1, 1
2, 0
1, 1
1, 0
0, 0
1, 1
2, 1
0, 0
1, 0
0, 0
0, 0
0, 0
0, 1
0, 1
0, 2
0, 0
1, 1
0, 2
0, 1
2, 0
1, 1
0, 0
1, 0
1, 0
0, 0
1, 0
0, 0
0, 2
0, 0
1, 1
0, 0
0, 0
1, 1
0, 0
0, 0
1, 0
0, 0
1, 0
0, 0
0, 0
2, 0
1, 0
2, 1
0, 1
0, 1
0, 0
0, 0
2, 1
1, 0
0, 0
0, 0
1, 0
0, 1
1, 0
1, 0
0, 0
0, 0
1, 0
0, 0
0, 0
1, 0
1, 1
1, 1
0, 0
0, 0
0, 1
0, 0
0, 1
0, 0
0, 0
0, 0
0, 0
0, 1
0, 0
1, 1
0, 0
0, 1
0, 2
1, 0
0, 2
0, 0
0, 0
1, 1
0, 1
0, 1
0, 2
0, 0
0, 0
1, 1
0, 0
0, 0
1, 0
0, 0
0, 0
0, 0
0, 0
1, 0
0, 0
0, 0
1, 2
2, 0
1, 0
0, 0
0, 0
0, 0
0, 2
0, 0
1, 0
2, 1
0, 0
0, 0
0, 0
0, 0
0, 0
0, 0
0, 0
0, 0
0, 0
0, 0
1, 0
0, 0
0, 0
0, 0
0, 0
1, 0
0, 0
0, 0
0, 1
1, 0
0, 0
1, 0
0, 0
0, 0
0, 1
1, 1
0, 0
1, 0
0, 0
0, 0
0, 1
1, 0
0, 0
0, 0
0, 0
0, 0
0, 0
0, 0
0, 0
0, 0
0, 0
0, 0
0, 1
0, 0
0, 0
0, 0
0, 0
0, 0
0, 1
0, 0
0, 0
0, 0
0, 0
0, 0
0, 0
0, 0
1, 0
0, 0
0, 0
1, 0
0, 0
0, 0
0, 0
0, 0
1, 0
0, 0
0, 1
0, 0
0, 0
0, 0
0, 0
0, 0
1, 0
0, 0
0, 0
0, 0
0, 0
0, 0
0, 0
0, 0
0, 0
0, 0
1, 1
0, 0
0, 0
0, 0
0, 0
0, 0
0, 0
1, 0
0, 0
0, 0
0, 1
0, 0
0, 0
0, 0
0, 0
0, 0
1, 0
0, 0
0, 0
0, 0
0, 0
0, 0
0, 0
0, 0
0, 0
1, 0
0, 0
0, 0
0, 0
0, 0
0, 0
0, 0
0, 0
0, 0
0, 0
0, 0
0, 0
0, 0
0, 0
0, 0
0, 0
0, 0
0, 0
0, 0
0, 0
0, 0
0, 0
0, 0
0, 0
0, 0
1, 0
0, 0
0, 0
0, 0
0, 0
0, 0
0, 0
0, 0
0, 0
0, 1
0, 0
0, 0
0, 0
0, 0
0, 0
0, 0
0, 0
0, 0
0, 0
0, 0
0, 0
0, 0
0, 0
0, 0
0, 1
0, 0
0, 0
0, 0
0, 0
0, 0
0, 0
0, 0
0, 0
0, 0
0, 0
0, 0
0, 0
0, 0
0, 0
0, 0
0, 0
0, 0
0, 0
0, 0
0, 0
0, 0
0, 0
0, 0
0, 0
0, 0
0, 0
0, 0
0, 0
0, 0
0, 0
0, 0
0, 0
0, 0
0, 0
0, 0
0, 0
0, 0
0, 0
0, 0
0, 0
0, 0
0, 0
0, 0
0, 0
0, 0
0, 0
0, 0
0, 0
0, 0
0, 0
0, 0
1, 0
0, 0
0, 0
0, 0
0, 0
0, 0
0, 0
0, 0
0, 0
0, 0
0, 0
0, 0
0, 0
0, 0
0, 0
0, 0
0, 0
0, 0
0, 0
0, 0
0, 0
0, 0
0, 0
0, 0
0, 0
0, 0
0, 0
0, 0
0, 0
0, 0
0, 0
0, 0
0, 0
0, 1
0, 0
0, 0
0, 0
0, 0
0, 0
0, 0
0, 0
0, 0
0, 0
0, 0
0, 0
0, 0
0, 0
0, 0
0, 0
0, 0
0, 0
0, 0
0, 0
0, 0
0, 0
0, 0
0, 0
0, 0
0, 0
0, 0
0, 0
0, 0
0, 0
0, 0
0, 0
0, 0
0, 0
0, 0
0, 0
0, 0
0, 0
0, 0
0, 0
0, 0
0, 0
0, 0
0, 0
0, 0
0, 0
0, 0
0, 0
0, 0
0, 0
0, 0
0, 0
0, 0
0, 0
0, 0
0, 0
0, 0
0, 0
0, 0
0, 0
0, 0
0, 0
0, 0
0, 0
0, 0
0, 0
0, 0
0, 0
0, 0
0, 0
0, 0
0, 0
0, 0
0, 0
0, 0
0, 0
0, 0
0, 0
0, 0
0, 0
0, 0
0, 0
0, 0
0, 0
0, 0
0, 0
0, 0
0, 0
0, 0
0, 0
0, 0
0, 0
0, 0
0, 0
0, 0
0, 0
0, 0
0, 0
0, 0
0, 0
0, 0
0, 0
0, 0
0, 0
0, 0
0, 0
0, 0
0, 0
0, 0
0, 0
0, 0
0, 0
0, 0
0, 0
0, 0
0, 0
0, 0
0, 0
0, 0
0, 0
0, 0
0, 0
0, 0
0, 0
0, 0
0, 0
0, 0
0, 0
0, 0
0, 0
0, 0
0, 0
0, 0
0, 0
0, 0
0, 0
0, 0
0, 0
0, 0
0, 0
0, 0
0, 0
0, 0
0, 0
0, 0
0, 0
0, 0
0, 0
0, 0
0, 0
0, 0
0, 0
0, 0
0, 0
0, 0
0, 0
0, 0
0, 0
0, 0
0, 0
0, 0
0, 0
0, 0
0, 0
0, 0
0, 0
0, 0
0, 0
0, 0
0, 0
0, 0
0, 0
0, 0
0, 0
0, 0
0, 0
0, 0
0, 0
0, 0
0, 0
0, 0
0, 0
0, 0
0, 0
0, 0
0, 0
0, 0
0, 0
0, 0
0, 0
0, 0
0, 0
0, 0
0, 0
0, 0
0, 0
0, 0
0, 0
0, 0
0, 0
0, 0
0, 0
0, 0
0, 0
0, 0
0, 0
0, 0
0, 0
0, 0
0, 0
0, 0
0, 0
0, 0
0, 0
0, 0
0, 0
0, 0
0, 0
0, 0
0, 0
0, 0
0, 0
0, 0
0, 0
0, 0
0, 0
0, 0
0, 0
0, 0
0, 0
0, 0
0, 0
0, 0
0, 0
0, 0
0, 0
0, 0
0, 0
0, 0
0, 0
0, 0
0, 0
0, 0
0, 0
0, 0
0, 0
0, 0
0, 0
0, 0
0, 0
0, 0
0, 0
0, 0
0, 0
0, 0
0, 0
0, 0
0, 0
0, 0
0, 0
0, 0
0, 0
0, 0
0, 0
0, 0
0, 0
0, 0
0, 0
0, 0
0, 0
0, 0
0, 0
0, 0
0, 0
0, 0
0, 0
0, 0
0, 0
0, 0
0, 0
0, 0
0, 0
0, 0
0, 0
0, 0
0, 0
0, 0
0, 0
0, 0
0, 0
0, 0
0, 0
0, 0
0, 0
0, 0
0, 0
0, 0
0, 0
0, 0
0, 0
0, 0
0, 0
0, 0
0, 0
0, 0
0, 0
0, 0
#ENDOFDATA     end of spectrum data