File: host_upload/12-01-2023/Dourbes (shot-by-shot)/upload_4/ps__0257_0689790785_000rfs_shot_3180.msa
#FORMAT      : EMSA/MAS spectral data file
#VERSION     : TC202v2.0 PIXL
#TITLE       : N/A
#DATE        :       Date in the format DD-MMM-YYYY, for example 07-JUL-2010
#TIME        :             The time of day at which the spectrum was recorded, in 24-hour format
#OWNER       : PIXL Flight Model       (PIXL will use this to indicate which instrument took the data.)
#NPOINTS     : 4096     Number of data points in the spectrum (This can be zero for configuration only files)
#NCOLUMNS    : 2     Number of data columns in the spectrum (This can be zero for configuration only files)
#XUNITS      : eV
#YUNITS      : COUNTS
#DATATYPE    : YY
#XPERCHAN    : 7.862, 7.881   eV per channel (separate by commas if more than one detector)
#OFFSET      : 18.5, -22.4         eV of first channel  (separate by commas if more than one detector
#SIGNALTYPE  : XRF
#YP_TEMP     : 2.877
#LIVETIME    : 9.00359, 9.00785   seconds (separate by commas if more than one detector)
#REALTIME    : 10, 10.0   seconds (separate by commas if more than one detector)
#SPECTRUM    : start of spectrum data
0, 0
0, 0
0, 0
0, 0
0, 0
0, 0
0, 0
0, 0
0, 0
0, 0
0, 0
0, 0
0, 0
0, 0
0, 0
0, 0
0, 0
0, 0
0, 0
0, 0
0, 0
0, 0
0, 0
0, 0
0, 0
0, 0
0, 0
0, 0
0, 0
0, 0
0, 0
0, 0
0, 1
0, 1
0, 0
0, 0
1, 0
0, 0
0, 0
1, 1
0, 4
0, 1
1, 0
0, 3
2, 2
0, 1
3, 0
2, 0
0, 0
9, 3
6, 15
32, 18
38, 56
55, 34
62, 64
58, 42
39, 48
18, 24
17, 11
3, 3
2, 3
4, 0
4, 2
3, 1
4, 4
8, 3
1, 6
8, 5
11, 11
32, 34
99, 77
163, 149
277, 273
413, 402
514, 476
546, 476
427, 423
312, 305
183, 152
120, 101
58, 55
28, 31
10, 10
6, 6
4, 4
4, 5
3, 4
3, 3
4, 0
1, 2
1, 3
0, 3
2, 2
1, 3
0, 1
4, 3
5, 5
4, 7
3, 5
3, 4
4, 0
3, 2
1, 1
3, 4
4, 0
2, 0
4, 0
6, 3
8, 3
7, 11
13, 11
20, 14
25, 22
28, 27
33, 31
28, 23
37, 24
14, 19
26, 16
20, 17
17, 13
19, 11
12, 15
11, 17
15, 18
8, 9
9, 4
8, 8
5, 5
6, 6
4, 9
5, 5
0, 2
3, 2
1, 1
1, 1
3, 4
4, 4
1, 1
0, 5
4, 4
3, 2
1, 2
1, 1
4, 1
2, 1
1, 1
1, 1
5, 1
4, 7
6, 4
7, 12
18, 16
24, 20
44, 43
53, 50
67, 67
78, 85
71, 63
60, 62
47, 42
28, 20
23, 15
12, 10
10, 8
6, 4
5, 3
9, 9
10, 6
12, 17
14, 3
15, 11
15, 11
4, 3
9, 8
10, 5
8, 4
3, 7
7, 4
3, 5
2, 3
6, 1
7, 3
2, 2
5, 1
4, 5
5, 5
5, 1
7, 5
7, 7
10, 19
8, 18
16, 7
16, 18
13, 15
17, 20
16, 24
20, 16
25, 17
21, 17
16, 18
14, 9
10, 8
11, 7
7, 6
7, 9
7, 8
12, 2
7, 8
3, 9
9, 5
4, 6
8, 4
9, 5
5, 6
6, 7
4, 5
11, 4
5, 7
4, 9
7, 10
12, 11
7, 6
13, 8
8, 8
11, 8
7, 15
8, 9
11, 17
12, 15
11, 22
10, 5
11, 11
12, 11
8, 6
5, 5
11, 3
6, 7
8, 11
11, 6
9, 11
10, 6
13, 11
8, 13
24, 15
31, 30
30, 41
57, 54
65, 76
84, 87
96, 106
120, 80
102, 89
83, 72
71, 49
46, 37
42, 34
31, 15
21, 11
18, 16
24, 24
15, 37
46, 59
82, 105
177, 199
350, 433
638, 756
1114, 1440
1786, 1951
2501, 2747
3224, 3457
3791, 3840
4037, 3869
3787, 3461
3223, 2926
2603, 2033
1817, 1420
1084, 840
662, 456
365, 261
193, 100
92, 77
49, 53
34, 43
17, 62
23, 60
15, 70
16, 75
19, 81
31, 75
29, 77
37, 61
55, 78
86, 107
138, 163
222, 245
326, 339
391, 461
486, 536
564, 514
562, 538
506, 469
449, 405
354, 284
217, 212
161, 120
100, 60
42, 43
12, 41
16, 20
14, 20
8, 18
13, 12
21, 11
11, 9
11, 9
12, 10
9, 11
16, 9
12, 4
2, 2
6, 7
4, 5
8, 2
2, 7
4, 6
2, 8
3, 9
7, 14
7, 8
2, 7
1, 8
2, 9
4, 20
1, 10
4, 11
3, 8
1, 10
2, 5
1, 4
6, 4
4, 3
7, 4
4, 2
5, 3
4, 5
5, 3
6, 6
1, 3
4, 5
5, 8
1, 2
6, 4
3, 5
3, 3
6, 5
4, 3
3, 2
3, 4
5, 3
2, 5
3, 1
8, 3
11, 3
5, 3
4, 2
9, 1
5, 6
7, 4
3, 1
6, 6
5, 1
5, 1
5, 3
7, 2
7, 3
6, 4
7, 3
2, 5
3, 1
4, 1
3, 3
6, 3
3, 1
2, 2
4, 1
0, 0
3, 2
1, 2
1, 4
1, 0
3, 2
0, 0
4, 3
1, 4
4, 2
2, 1
2, 0
4, 3
7, 3
2, 2
2, 3
2, 4
6, 4
3, 2
0, 4
3, 3
0, 2
0, 1
3, 3
3, 2
3, 4
2, 2
1, 3
3, 1
7, 4
2, 5
1, 4
2, 1
4, 0
7, 8
1, 3
5, 2
1, 6
1, 6
5, 7
2, 2
1, 3
3, 5
2, 5
2, 2
2, 1
4, 2
2, 1
3, 1
2, 1
0, 2
2, 0
2, 1
5, 5
1, 4
0, 4
1, 0
1, 4
1, 2
4, 3
1, 3
2, 4
1, 4
4, 1
2, 3
1, 2
1, 3
1, 5
2, 1
2, 0
4, 4
2, 0
2, 1
1, 2
2, 1
2, 3
3, 3
0, 3
1, 2
0, 2
6, 2
3, 2
1, 1
2, 2
1, 1
2, 0
1, 1
3, 2
3, 3
3, 6
2, 1
4, 4
1, 3
1, 2
2, 2
2, 3
1, 2
2, 1
1, 2
1, 2
2, 3
3, 2
3, 2
3, 2
2, 2
0, 2
3, 2
1, 2
0, 1
4, 8
0, 5
2, 3
6, 1
4, 0
1, 2
1, 4
1, 5
1, 2
1, 0
3, 2
2, 4
0, 2
2, 2
1, 1
1, 2
0, 3
1, 1
0, 2
2, 1
2, 4
2, 1
0, 2
1, 1
1, 3
4, 2
1, 3
5, 1
2, 3
2, 3
5, 2
1, 0
0, 1
0, 1
1, 3
3, 2
1, 0
0, 1
3, 2
1, 2
1, 3
2, 7
1, 1
2, 5
7, 7
8, 6
4, 6
9, 8
7, 9
5, 9
8, 5
1, 4
2, 5
2, 2
2, 0
1, 2
1, 5
2, 2
0, 2
1, 1
2, 0
1, 0
5, 2
0, 1
1, 1
0, 3
2, 0
1, 1
3, 4
0, 2
0, 0
4, 3
3, 3
4, 2
2, 4
1, 3
1, 3
1, 3
5, 3
1, 5
3, 2
1, 0
3, 8
0, 2
1, 1
0, 1
0, 0
1, 2
2, 2
0, 1
0, 1
3, 0
2, 0
0, 0
2, 1
2, 1
1, 0
1, 0
1, 1
0, 0
1, 1
0, 2
1, 1
2, 0
1, 0
0, 1
2, 0
2, 1
2, 1
0, 3
1, 0
0, 0
2, 1
0, 0
1, 0
0, 0
0, 0
0, 0
0, 0
0, 1
0, 0
1, 0
1, 1
0, 0
1, 0
1, 1
2, 2
0, 1
1, 2
0, 1
0, 1
1, 1
0, 0
1, 2
0, 0
1, 0
0, 1
0, 0
0, 2
2, 0
0, 1
1, 1
0, 2
1, 0
0, 0
0, 0
1, 0
0, 1
1, 1
0, 0
0, 0
0, 0
0, 0
0, 0
1, 2
0, 1
2, 0
0, 0
0, 0
1, 0
0, 1
1, 0
0, 0
0, 0
1, 1
1, 1
0, 0
0, 0
2, 0
0, 1
0, 0
1, 2
0, 1
0, 0
2, 0
1, 0
0, 2
1, 0
1, 2
1, 0
0, 2
1, 2
0, 0
0, 1
0, 0
0, 1
1, 0
1, 1
0, 0
0, 0
1, 0
0, 0
0, 0
3, 0
2, 0
0, 0
1, 0
1, 1
0, 1
0, 0
0, 0
0, 1
1, 0
0, 1
2, 0
0, 0
0, 0
2, 1
0, 0
0, 0
0, 1
0, 0
1, 0
0, 0
0, 1
2, 0
1, 0
1, 0
1, 1
0, 0
1, 0
0, 0
0, 2
0, 2
1, 1
1, 2
0, 0
1, 0
0, 0
1, 0
0, 0
0, 0
0, 0
0, 0
0, 1
0, 0
1, 0
0, 0
0, 0
1, 0
0, 0
1, 1
0, 1
0, 0
0, 0
0, 1
0, 0
1, 0
0, 0
1, 0
0, 0
0, 0
1, 0
0, 0
0, 0
0, 0
0, 0
0, 0
0, 0
1, 0
0, 0
1, 0
0, 1
0, 0
0, 0
1, 0
2, 0
0, 0
2, 0
0, 0
0, 0
0, 0
0, 0
0, 0
1, 0
0, 0
0, 0
0, 0
0, 0
0, 0
0, 1
1, 1
0, 2
1, 0
0, 0
1, 0
0, 0
0, 0
0, 0
0, 0
0, 0
0, 0
0, 0
0, 0
0, 0
0, 0
0, 0
0, 0
0, 0
0, 0
0, 0
0, 0
0, 0
0, 0
0, 0
0, 0
0, 0
0, 0
0, 0
0, 0
0, 0
0, 0
0, 1
0, 0
0, 0
1, 0
0, 0
0, 0
0, 0
0, 1
0, 0
1, 1
0, 0
0, 1
0, 0
0, 0
0, 0
0, 0
0, 0
0, 0
0, 0
0, 0
0, 0
0, 0
0, 0
0, 0
0, 0
0, 0
0, 0
0, 0
0, 1
0, 0
0, 0
0, 0
0, 0
0, 0
0, 0
0, 0
0, 2
1, 0
0, 0
0, 0
0, 0
0, 0
0, 0
0, 0
0, 0
0, 0
0, 0
0, 0
0, 0
0, 0
0, 0
0, 0
0, 0
0, 1
0, 1
0, 0
0, 0
0, 0
0, 0
0, 0
1, 0
0, 0
0, 0
0, 0
0, 0
0, 0
0, 0
0, 0
0, 0
0, 0
0, 0
0, 0
0, 0
0, 0
0, 0
0, 0
0, 0
0, 0
0, 1
0, 0
1, 0
0, 0
0, 1
0, 0
0, 0
0, 0
0, 0
0, 0
0, 0
0, 0
0, 0
0, 0
0, 0
0, 0
0, 0
0, 0
0, 0
0, 0
0, 0
0, 0
0, 0
0, 0
0, 0
0, 0
0, 1
0, 0
0, 0
0, 0
0, 0
0, 1
1, 0
0, 0
0, 0
0, 0
0, 0
0, 0
0, 0
0, 0
0, 0
0, 0
0, 0
0, 0
0, 1
0, 0
0, 0
0, 0
0, 0
0, 0
0, 0
0, 0
0, 0
0, 0
0, 0
0, 0
0, 0
0, 0
0, 0
0, 0
0, 0
0, 0
0, 0
0, 0
0, 0
0, 0
0, 0
0, 0
1, 0
0, 0
1, 1
0, 0
0, 0
0, 0
0, 0
0, 0
0, 0
0, 1
0, 0
0, 0
0, 0
0, 0
0, 0
0, 0
0, 0
0, 0
0, 0
0, 0
0, 0
1, 0
0, 0
0, 0
0, 0
0, 1
0, 0
0, 0
0, 0
0, 0
0, 0
0, 0
0, 0
0, 1
0, 0
0, 0
0, 0
0, 0
0, 0
0, 0
0, 0
0, 0
0, 0
0, 0
0, 0
0, 0
0, 0
0, 0
0, 0
0, 0
0, 0
0, 0
0, 0
0, 0
0, 0
0, 0
0, 0
0, 0
0, 0
0, 0
0, 0
0, 0
0, 0
0, 0
0, 0
0, 0
0, 0
0, 0
0, 0
0, 0
0, 0
0, 0
0, 0
0, 0
0, 0
0, 0
0, 0
0, 0
0, 0
0, 0
0, 0
0, 0
0, 0
0, 0
0, 0
0, 0
0, 0
0, 0
0, 0
0, 0
0, 0
0, 0
0, 0
0, 0
0, 0
0, 0
0, 0
0, 0
0, 0
0, 0
0, 0
0, 0
0, 0
0, 0
0, 0
0, 0
0, 0
0, 0
0, 0
0, 0
0, 0
0, 0
0, 0
0, 0
0, 0
0, 0
0, 0
0, 0
0, 0
0, 0
0, 0
0, 0
0, 0
0, 0
0, 0
0, 0
0, 0
0, 0
0, 0
0, 0
0, 0
0, 0
0, 0
0, 0
0, 0
0, 0
0, 0
0, 0
0, 0
0, 0
0, 0
0, 0
0, 0
0, 0
0, 0
0, 0
0, 0
0, 0
0, 0
0, 0
0, 0
0, 0
0, 0
0, 0
0, 0
0, 0
0, 0
0, 0
0, 0
0, 0
0, 0
0, 0
0, 0
0, 0
0, 0
0, 0
0, 0
0, 0
0, 0
0, 0
0, 0
0, 0
0, 0
0, 0
0, 0
0, 0
0, 0
0, 0
0, 0
0, 0
0, 0
0, 0
0, 0
0, 0
0, 0
0, 0
0, 0
0, 0
0, 0
0, 0
0, 0
0, 0
0, 0
0, 0
0, 0
0, 0
0, 0
0, 0
0, 0
0, 0
0, 0
0, 0
0, 0
0, 0
0, 0
0, 0
0, 0
0, 0
0, 0
0, 0
0, 0
0, 0
0, 0
0, 0
0, 0
0, 0
0, 0
0, 0
0, 0
0, 0
0, 0
0, 0
0, 0
0, 0
0, 0
0, 0
0, 0
0, 0
0, 0
0, 0
0, 0
0, 0
0, 0
0, 0
0, 0
0, 0
0, 0
0, 0
0, 0
0, 0
0, 0
0, 0
0, 0
0, 0
0, 0
0, 0
0, 0
0, 0
0, 0
0, 0
0, 0
0, 0
0, 0
0, 0
0, 0
0, 0
0, 0
0, 0
0, 0
0, 0
0, 0
0, 0
0, 0
0, 0
0, 0
0, 0
0, 0
0, 0
0, 0
0, 0
0, 0
0, 0
0, 0
0, 0
0, 0
0, 0
0, 0
0, 0
0, 0
0, 0
0, 0
0, 0
0, 0
0, 0
0, 0
0, 0
0, 0
0, 0
0, 0
0, 0
0, 0
0, 0
0, 0
0, 0
0, 0
0, 0
0, 0
0, 0
0, 0
0, 0
0, 0
0, 0
0, 0
0, 0
0, 0
0, 0
0, 0
0, 0
0, 0
0, 0
0, 0
0, 0
0, 0
0, 0
0, 0
0, 0
0, 0
0, 0
0, 0
0, 0
0, 0
0, 0
0, 0
0, 0
0, 0
0, 0
0, 0
0, 0
0, 0
0, 0
0, 0
0, 0
0, 0
0, 0
0, 0
0, 0
0, 0
0, 0
0, 0
0, 0
0, 0
0, 0
0, 0
0, 0
0, 0
0, 0
0, 0
0, 0
0, 0
0, 0
0, 0
0, 0
0, 0
0, 0
0, 0
0, 0
0, 0
0, 0
0, 0
0, 0
0, 0
0, 0
0, 0
0, 0
0, 0
0, 0
0, 0
0, 0
0, 0
0, 0
0, 0
0, 0
0, 0
0, 0
0, 0
0, 0
0, 0
0, 0
0, 0
0, 0
0, 0
0, 0
0, 0
0, 0
0, 0
0, 0
0, 0
0, 0
0, 0
0, 0
0, 0
0, 0
0, 0
0, 0
0, 0
0, 0
0, 0
0, 0
0, 0
0, 0
0, 0
0, 0
0, 0
0, 0
0, 0
0, 0
0, 0
0, 0
0, 0
0, 0
0, 0
0, 0
0, 0
#ENDOFDATA     end of spectrum data