File: host_upload/12-01-2023/Dourbes (shot-by-shot)/upload_4/ps__0257_0689790785_000rfs_shot_3236.msa
#FORMAT      : EMSA/MAS spectral data file
#VERSION     : TC202v2.0 PIXL
#TITLE       : N/A
#DATE        :       Date in the format DD-MMM-YYYY, for example 07-JUL-2010
#TIME        :             The time of day at which the spectrum was recorded, in 24-hour format
#OWNER       : PIXL Flight Model       (PIXL will use this to indicate which instrument took the data.)
#NPOINTS     : 4096     Number of data points in the spectrum (This can be zero for configuration only files)
#NCOLUMNS    : 2     Number of data columns in the spectrum (This can be zero for configuration only files)
#XUNITS      : eV
#YUNITS      : COUNTS
#DATATYPE    : YY
#XPERCHAN    : 7.862, 7.881   eV per channel (separate by commas if more than one detector)
#OFFSET      : 18.5, -22.4         eV of first channel  (separate by commas if more than one detector
#SIGNALTYPE  : XRF
#YP_TEMP     : 3.037
#LIVETIME    : 9.01575, 8.99158   seconds (separate by commas if more than one detector)
#REALTIME    : 10, 10.0   seconds (separate by commas if more than one detector)
#SPECTRUM    : start of spectrum data
0, 0
0, 0
0, 0
0, 0
0, 0
0, 0
0, 0
0, 0
0, 0
0, 0
0, 0
0, 0
0, 0
0, 0
0, 0
0, 0
0, 0
0, 0
0, 0
0, 0
0, 0
0, 0
0, 0
0, 0
0, 0
0, 0
0, 0
0, 0
0, 0
0, 1
0, 0
0, 0
0, 0
0, 1
0, 1
2, 0
1, 3
4, 0
5, 2
6, 3
3, 0
2, 6
3, 4
6, 1
4, 4
4, 0
3, 0
0, 1
4, 2
3, 5
5, 6
16, 19
20, 26
42, 36
33, 33
30, 42
25, 33
18, 23
7, 7
7, 6
2, 3
4, 8
4, 8
4, 6
5, 8
3, 6
5, 5
4, 7
17, 13
22, 45
85, 70
181, 169
294, 294
415, 451
523, 541
502, 542
457, 466
300, 325
198, 194
108, 96
52, 52
36, 24
18, 9
8, 8
3, 7
8, 3
3, 5
1, 7
1, 4
0, 0
3, 3
1, 2
7, 4
4, 5
8, 15
18, 30
29, 36
37, 48
51, 62
47, 61
40, 51
25, 35
21, 17
11, 20
16, 15
10, 18
15, 16
27, 28
49, 55
74, 86
110, 107
159, 195
178, 208
188, 256
201, 211
180, 197
177, 166
116, 114
94, 97
89, 70
65, 68
53, 66
45, 56
44, 56
36, 41
28, 37
26, 35
26, 32
23, 27
16, 21
16, 22
13, 6
5, 12
4, 16
6, 5
4, 7
4, 4
5, 2
3, 9
10, 4
6, 6
4, 9
5, 7
6, 6
2, 15
6, 3
2, 5
4, 5
2, 4
1, 4
5, 7
14, 9
31, 26
36, 41
45, 73
84, 101
78, 134
101, 107
94, 111
87, 86
53, 53
42, 42
22, 18
8, 15
7, 15
8, 5
10, 13
14, 8
10, 20
20, 30
17, 16
18, 14
23, 20
15, 16
21, 18
9, 11
12, 11
7, 13
8, 17
11, 13
8, 12
15, 12
7, 11
5, 10
7, 4
11, 4
16, 11
20, 14
16, 20
20, 29
24, 29
24, 32
35, 38
25, 33
31, 21
29, 33
31, 33
36, 33
32, 35
22, 23
22, 33
17, 23
14, 19
12, 18
18, 14
14, 11
16, 18
11, 18
15, 24
16, 21
18, 24
12, 17
11, 20
13, 12
11, 20
12, 18
18, 9
8, 7
11, 13
11, 9
7, 7
10, 18
11, 19
20, 20
19, 23
14, 24
19, 26
21, 28
22, 28
25, 26
20, 37
14, 24
30, 26
20, 21
23, 16
17, 8
12, 12
6, 20
13, 16
12, 22
11, 10
17, 12
16, 22
17, 27
18, 27
25, 38
43, 61
58, 76
60, 102
94, 136
114, 117
117, 128
109, 104
65, 97
64, 80
65, 52
37, 39
39, 36
35, 25
27, 22
20, 26
38, 34
51, 56
81, 115
151, 237
271, 438
566, 813
985, 1350
1549, 1972
2115, 2766
2702, 3328
3185, 3758
3366, 3807
3240, 3424
2726, 2811
2061, 2080
1448, 1388
953, 795
568, 448
301, 221
146, 124
86, 75
52, 34
32, 26
23, 29
22, 32
34, 20
29, 35
33, 30
30, 34
41, 40
47, 56
55, 88
95, 109
137, 159
220, 248
300, 379
375, 461
455, 513
474, 576
468, 544
467, 448
422, 381
278, 273
214, 190
142, 131
85, 61
52, 38
25, 13
18, 15
7, 11
5, 4
8, 6
5, 6
5, 12
6, 6
10, 5
2, 7
8, 5
8, 5
6, 3
8, 9
4, 10
5, 5
4, 6
4, 6
6, 2
5, 4
4, 4
6, 10
6, 7
4, 4
6, 5
6, 6
6, 4
4, 4
8, 6
6, 9
1, 9
2, 7
4, 4
6, 8
7, 3
4, 5
3, 6
6, 4
5, 7
4, 10
5, 7
9, 7
7, 10
2, 6
5, 4
5, 3
6, 7
5, 4
4, 8
1, 4
6, 6
7, 2
7, 5
2, 4
8, 5
3, 8
4, 6
11, 11
8, 14
7, 15
4, 7
5, 7
3, 7
5, 10
6, 8
4, 6
5, 3
6, 4
7, 4
10, 11
5, 9
5, 4
6, 8
4, 5
6, 9
8, 3
4, 3
5, 4
5, 6
5, 2
4, 7
2, 6
2, 8
2, 5
5, 5
3, 8
2, 4
4, 3
3, 3
1, 7
4, 5
1, 6
4, 7
2, 10
4, 2
4, 1
2, 5
5, 6
5, 5
3, 6
2, 3
4, 9
2, 6
3, 8
4, 3
2, 4
7, 7
4, 4
4, 8
4, 4
0, 6
5, 5
4, 2
4, 6
1, 4
5, 5
5, 10
3, 3
6, 4
6, 2
3, 5
1, 6
5, 9
6, 7
6, 7
5, 4
5, 6
1, 8
5, 4
5, 1
4, 5
4, 2
5, 5
3, 4
6, 4
6, 5
4, 8
2, 2
6, 5
6, 1
2, 4
2, 4
3, 2
2, 6
3, 5
5, 4
4, 6
4, 3
3, 1
3, 3
4, 6
1, 3
6, 5
5, 4
2, 6
5, 2
8, 5
4, 6
2, 0
2, 6
1, 3
7, 1
0, 0
1, 1
2, 4
5, 2
2, 1
6, 2
3, 3
4, 4
4, 2
2, 4
3, 2
5, 1
0, 1
0, 6
2, 2
1, 2
3, 3
4, 1
1, 4
2, 2
2, 1
3, 4
5, 3
3, 3
1, 8
2, 1
1, 3
1, 1
2, 2
2, 5
3, 2
4, 1
0, 0
3, 5
4, 1
3, 3
2, 4
1, 1
2, 5
2, 4
6, 3
1, 5
0, 3
3, 2
1, 6
1, 0
2, 6
0, 1
1, 3
1, 0
2, 1
1, 6
2, 6
1, 1
1, 5
1, 4
2, 5
0, 3
1, 2
0, 1
1, 4
0, 2
4, 3
0, 2
1, 2
4, 4
3, 2
2, 4
5, 6
3, 5
7, 9
5, 7
9, 4
5, 8
6, 4
6, 7
5, 4
1, 3
4, 3
4, 2
1, 1
1, 1
3, 3
0, 0
1, 1
3, 2
1, 2
0, 2
1, 2
0, 3
0, 1
1, 0
5, 1
0, 3
2, 1
4, 3
4, 0
4, 2
4, 2
1, 6
2, 1
1, 4
1, 2
4, 2
1, 2
4, 2
0, 2
1, 1
1, 0
1, 2
1, 0
0, 1
1, 1
0, 3
2, 0
0, 1
1, 2
1, 0
0, 0
0, 4
3, 1
0, 0
2, 4
0, 2
2, 0
1, 0
0, 2
0, 1
0, 1
2, 2
2, 0
1, 3
1, 0
1, 3
1, 0
0, 2
0, 2
0, 0
1, 0
1, 0
0, 0
1, 0
3, 0
0, 1
0, 0
1, 1
3, 2
2, 1
0, 0
0, 2
1, 0
1, 1
0, 1
0, 0
1, 1
0, 0
0, 1
0, 2
0, 1
0, 1
0, 0
2, 3
3, 0
1, 0
0, 1
0, 0
1, 1
2, 2
0, 1
0, 0
1, 0
0, 0
2, 1
0, 0
0, 2
2, 0
0, 0
1, 2
0, 0
1, 1
1, 2
0, 3
0, 0
0, 0
1, 0
0, 0
1, 0
0, 1
2, 1
0, 0
1, 0
2, 0
2, 1
2, 1
2, 0
2, 0
0, 0
2, 1
2, 1
0, 0
1, 0
0, 0
1, 0
1, 0
1, 0
1, 1
0, 0
0, 0
0, 1
1, 0
0, 1
1, 0
2, 1
2, 0
1, 1
0, 1
0, 0
1, 0
0, 0
0, 0
0, 1
0, 0
0, 1
1, 1
0, 1
0, 1
0, 0
0, 2
0, 0
0, 1
0, 0
0, 0
1, 0
0, 0
0, 0
0, 1
1, 0
1, 0
2, 0
0, 3
0, 1
0, 0
0, 0
0, 0
0, 0
0, 1
0, 1
0, 0
0, 0
0, 0
0, 0
0, 1
1, 0
0, 0
1, 1
1, 0
0, 0
1, 0
2, 0
0, 0
0, 1
1, 0
0, 0
0, 1
0, 0
4, 0
1, 0
0, 0
0, 0
0, 1
0, 0
0, 0
0, 0
0, 0
1, 0
0, 1
0, 0
1, 0
0, 0
0, 0
1, 1
0, 0
0, 0
0, 0
0, 0
0, 0
0, 0
0, 0
0, 2
0, 0
2, 0
1, 0
0, 1
0, 0
0, 0
0, 0
0, 0
2, 1
0, 0
1, 0
0, 0
0, 0
0, 0
0, 0
0, 0
0, 0
1, 0
0, 0
0, 0
0, 0
1, 1
1, 0
0, 0
0, 0
0, 0
0, 1
0, 0
1, 2
0, 0
0, 0
0, 0
0, 0
0, 0
0, 0
2, 0
1, 0
0, 0
1, 1
0, 0
0, 0
0, 0
0, 0
0, 1
0, 1
0, 0
0, 0
0, 0
0, 1
0, 0
0, 0
0, 0
0, 1
0, 0
0, 0
0, 1
0, 0
0, 0
0, 0
0, 0
0, 0
0, 0
0, 0
0, 0
0, 1
0, 0
0, 0
0, 0
1, 0
0, 0
0, 0
0, 0
1, 0
0, 0
0, 0
0, 0
0, 0
0, 1
0, 1
0, 0
0, 1
0, 0
0, 0
0, 0
0, 0
1, 0
0, 0
0, 0
0, 0
0, 1
1, 0
0, 1
0, 0
0, 0
0, 0
0, 0
0, 0
0, 0
0, 0
0, 1
0, 0
0, 1
0, 0
1, 0
0, 0
0, 1
0, 0
0, 1
0, 1
0, 0
0, 1
1, 0
1, 0
0, 0
0, 0
0, 0
0, 0
0, 0
0, 0
0, 0
0, 0
0, 0
1, 0
0, 0
0, 0
0, 1
0, 0
0, 0
0, 0
0, 0
0, 0
1, 0
0, 1
0, 0
0, 0
0, 0
0, 0
0, 0
0, 0
0, 0
0, 0
0, 0
0, 0
0, 0
0, 0
0, 0
0, 0
0, 0
0, 0
0, 0
0, 0
0, 0
0, 0
0, 0
0, 0
0, 0
0, 0
1, 0
0, 0
0, 0
0, 0
0, 0
0, 0
0, 0
0, 0
0, 1
0, 0
0, 0
0, 0
0, 0
0, 0
0, 0
0, 0
0, 0
0, 0
0, 0
0, 0
0, 0
0, 0
0, 0
0, 0
0, 0
0, 0
0, 0
0, 0
0, 0
0, 0
0, 0
0, 0
0, 0
0, 0
0, 0
0, 0
0, 0
0, 0
0, 0
0, 0
0, 0
0, 0
0, 0
0, 0
0, 0
0, 0
0, 0
0, 0
0, 1
0, 0
0, 0
0, 0
0, 0
0, 0
0, 0
0, 0
0, 0
0, 0
0, 0
0, 0
0, 0
0, 0
0, 0
0, 0
0, 0
0, 0
0, 0
0, 0
0, 0
0, 0
0, 0
0, 0
0, 0
0, 0
0, 0
0, 0
0, 0
0, 0
0, 0
0, 0
0, 0
0, 0
0, 0
0, 0
0, 0
0, 0
0, 0
0, 0
0, 0
0, 0
0, 0
0, 0
0, 0
0, 0
0, 0
0, 0
0, 0
0, 0
0, 0
0, 0
0, 0
0, 0
0, 0
0, 0
0, 0
0, 0
0, 0
0, 0
0, 0
0, 0
0, 0
0, 0
0, 0
0, 0
0, 0
0, 0
0, 0
0, 0
0, 0
0, 0
0, 0
0, 0
0, 0
0, 0
0, 0
0, 0
0, 0
0, 0
0, 0
0, 0
0, 0
0, 0
0, 0
0, 0
1, 0
0, 0
0, 0
0, 0
0, 0
0, 0
0, 0
0, 0
0, 0
0, 0
0, 0
0, 0
0, 0
0, 0
0, 0
0, 0
0, 0
0, 0
0, 0
0, 0
0, 0
0, 0
0, 0
0, 0
0, 0
0, 0
0, 0
0, 0
0, 0
0, 0
0, 0
0, 0
0, 0
0, 0
0, 0
0, 0
0, 0
0, 0
0, 0
0, 0
0, 0
0, 0
0, 0
0, 0
0, 0
0, 0
0, 0
0, 0
0, 0
0, 0
0, 0
0, 0
0, 0
0, 0
0, 0
0, 0
0, 0
0, 0
0, 0
0, 0
0, 0
0, 0
0, 0
0, 0
0, 0
0, 0
0, 0
0, 0
0, 0
0, 0
0, 0
0, 0
0, 0
0, 0
0, 0
0, 0
0, 0
0, 0
0, 0
0, 0
0, 0
0, 0
0, 0
0, 0
0, 0
0, 0
0, 0
0, 0
0, 0
0, 0
0, 0
0, 0
0, 0
0, 0
0, 0
0, 0
0, 0
0, 0
0, 0
0, 0
0, 0
0, 0
0, 0
0, 0
0, 0
0, 0
0, 0
0, 0
0, 0
0, 0
0, 0
0, 0
0, 0
0, 0
0, 0
0, 0
0, 0
0, 0
0, 0
0, 0
0, 0
0, 0
0, 0
0, 0
0, 0
0, 0
0, 0
0, 0
0, 0
0, 0
0, 0
0, 0
0, 0
0, 0
0, 0
0, 0
0, 0
0, 0
0, 0
0, 0
0, 0
0, 0
0, 0
0, 0
0, 0
0, 0
0, 0
0, 0
0, 0
0, 0
0, 0
0, 0
0, 0
0, 0
0, 0
0, 0
0, 0
0, 0
0, 0
0, 0
0, 0
0, 0
0, 0
0, 0
0, 0
0, 0
0, 0
0, 0
0, 0
0, 0
0, 0
0, 0
0, 0
0, 0
0, 0
0, 0
0, 0
0, 0
0, 0
0, 0
0, 0
0, 0
0, 0
0, 0
0, 0
0, 0
0, 0
0, 0
0, 0
0, 0
0, 0
0, 0
0, 0
0, 0
0, 0
0, 0
0, 0
0, 0
0, 0
0, 0
0, 0
0, 0
0, 0
0, 0
0, 0
0, 0
0, 0
0, 0
0, 0
0, 0
0, 0
0, 0
0, 0
0, 0
0, 0
0, 0
0, 0
0, 0
0, 0
0, 0
0, 0
0, 0
0, 0
0, 0
0, 0
0, 0
0, 0
0, 0
0, 0
0, 0
0, 0
0, 0
0, 0
0, 0
0, 0
0, 0
0, 0
0, 0
0, 0
0, 0
0, 0
0, 0
0, 0
0, 0
0, 0
0, 0
0, 0
0, 0
0, 0
0, 0
0, 0
0, 0
0, 0
0, 0
0, 0
0, 0
0, 0
0, 0
0, 0
0, 0
0, 0
0, 0
0, 0
0, 0
0, 0
0, 0
0, 0
0, 0
0, 0
0, 0
0, 0
0, 0
0, 0
0, 0
0, 0
0, 0
0, 0
0, 0
0, 0
0, 0
0, 0
0, 0
0, 0
0, 0
0, 0
0, 0
0, 0
0, 0
0, 0
0, 0
0, 0
0, 0
0, 0
0, 0
0, 0
0, 0
0, 0
0, 0
0, 0
0, 0
0, 0
0, 0
0, 0
0, 0
0, 0
0, 0
0, 0
0, 0
0, 0
0, 0
0, 0
0, 0
0, 0
0, 0
0, 0
0, 0
#ENDOFDATA     end of spectrum data