File: host_upload/12-01-2023/Dourbes (shot-by-shot)/upload_4/ps__0257_0689790785_000rfs_shot_3184.msa
#FORMAT      : EMSA/MAS spectral data file
#VERSION     : TC202v2.0 PIXL
#TITLE       : N/A
#DATE        :       Date in the format DD-MMM-YYYY, for example 07-JUL-2010
#TIME        :             The time of day at which the spectrum was recorded, in 24-hour format
#OWNER       : PIXL Flight Model       (PIXL will use this to indicate which instrument took the data.)
#NPOINTS     : 4096     Number of data points in the spectrum (This can be zero for configuration only files)
#NCOLUMNS    : 2     Number of data columns in the spectrum (This can be zero for configuration only files)
#XUNITS      : eV
#YUNITS      : COUNTS
#DATATYPE    : YY
#XPERCHAN    : 7.862, 7.881   eV per channel (separate by commas if more than one detector)
#OFFSET      : 18.5, -22.4         eV of first channel  (separate by commas if more than one detector
#SIGNALTYPE  : XRF
#YP_TEMP     : 3.262
#LIVETIME    : 9.12891, 9.13252   seconds (separate by commas if more than one detector)
#REALTIME    : 10, 10.0   seconds (separate by commas if more than one detector)
#SPECTRUM    : start of spectrum data
0, 0
0, 0
0, 0
0, 0
0, 0
0, 0
0, 0
0, 0
0, 0
0, 0
0, 0
0, 0
0, 0
0, 0
0, 0
0, 0
0, 0
0, 0
0, 0
0, 0
0, 0
0, 0
0, 0
0, 0
0, 0
0, 0
0, 0
0, 0
0, 0
0, 0
0, 0
0, 0
0, 0
0, 0
0, 0
0, 0
0, 0
0, 0
0, 1
1, 1
0, 0
3, 0
1, 1
1, 1
1, 1
2, 2
0, 3
3, 1
0, 0
6, 4
7, 7
14, 16
28, 32
46, 43
38, 39
44, 28
29, 20
20, 20
11, 8
6, 6
3, 7
9, 6
7, 13
18, 7
9, 10
7, 11
9, 16
16, 9
30, 24
69, 52
146, 131
273, 263
469, 472
717, 746
878, 884
898, 865
721, 711
518, 504
340, 297
182, 192
93, 90
50, 63
38, 29
31, 26
15, 22
13, 6
6, 7
4, 3
4, 2
2, 3
2, 2
1, 3
3, 4
1, 2
5, 4
4, 4
2, 7
2, 2
3, 5
6, 4
2, 4
6, 4
3, 2
2, 1
1, 1
3, 2
2, 1
2, 3
5, 3
5, 6
7, 11
7, 10
17, 17
18, 31
22, 21
23, 18
18, 19
15, 18
22, 28
19, 16
17, 28
20, 16
19, 19
13, 23
18, 14
7, 13
13, 18
9, 23
6, 13
10, 12
11, 13
5, 11
6, 5
4, 2
3, 3
10, 5
4, 3
3, 3
4, 5
5, 6
2, 8
3, 2
3, 5
4, 3
3, 5
0, 5
4, 5
9, 6
11, 11
22, 20
49, 47
117, 117
224, 227
365, 394
671, 730
955, 993
1150, 1217
1231, 1280
1156, 1165
958, 986
713, 695
416, 366
274, 215
135, 105
81, 54
47, 36
64, 57
82, 90
119, 108
141, 163
196, 178
160, 213
141, 160
147, 125
99, 83
72, 57
42, 37
34, 14
16, 6
10, 4
13, 4
3, 7
2, 3
2, 4
4, 8
2, 4
4, 8
10, 5
9, 23
27, 19
30, 24
37, 20
29, 37
26, 32
31, 25
28, 17
11, 11
10, 13
12, 8
10, 7
7, 4
9, 6
0, 5
4, 3
7, 3
4, 2
15, 6
9, 5
8, 5
17, 7
15, 9
11, 12
14, 11
11, 12
5, 14
6, 22
6, 15
4, 15
2, 15
5, 17
5, 11
2, 14
4, 6
5, 9
8, 16
9, 17
26, 31
30, 37
33, 48
30, 53
49, 55
47, 44
39, 44
36, 33
36, 24
12, 10
15, 8
11, 6
4, 2
5, 9
4, 8
5, 3
6, 10
5, 7
8, 10
7, 9
18, 21
24, 25
37, 40
40, 43
52, 55
42, 45
54, 44
46, 31
42, 21
23, 24
20, 20
33, 8
32, 7
46, 12
97, 17
140, 9
160, 27
208, 41
281, 73
367, 122
413, 268
525, 448
681, 674
784, 881
1028, 1041
1137, 1237
1173, 1218
1154, 1146
937, 875
745, 651
542, 473
341, 234
188, 144
105, 82
56, 40
25, 27
11, 11
13, 8
7, 7
7, 12
8, 9
9, 9
5, 9
8, 8
12, 12
9, 17
15, 21
39, 34
64, 65
69, 84
98, 123
138, 158
176, 165
192, 186
192, 194
165, 167
143, 159
129, 108
84, 78
49, 34
31, 37
17, 25
15, 21
8, 13
4, 16
5, 15
8, 10
5, 12
5, 3
6, 8
3, 5
7, 5
10, 7
3, 9
5, 6
4, 10
8, 5
6, 5
4, 3
3, 6
4, 8
4, 8
6, 6
3, 9
4, 7
2, 4
6, 6
2, 6
7, 3
3, 4
4, 4
2, 1
4, 2
4, 4
7, 9
3, 6
8, 6
4, 6
5, 4
3, 2
7, 1
2, 6
5, 7
5, 8
9, 7
17, 2
10, 6
17, 8
9, 2
7, 4
2, 6
6, 6
8, 3
4, 8
1, 9
5, 6
4, 7
4, 6
2, 9
2, 7
1, 5
4, 5
5, 3
3, 5
1, 9
3, 3
4, 6
10, 5
3, 4
5, 2
6, 3
3, 2
0, 2
3, 5
1, 3
3, 2
2, 5
4, 0
8, 5
5, 1
5, 3
3, 3
3, 7
9, 6
7, 4
5, 3
5, 10
4, 8
4, 15
8, 14
6, 26
3, 29
4, 25
3, 27
4, 25
3, 20
4, 27
3, 14
2, 12
5, 17
8, 13
5, 7
5, 9
5, 7
0, 9
4, 5
6, 2
3, 2
3, 6
1, 3
5, 1
5, 6
5, 1
1, 3
7, 5
8, 3
11, 5
8, 3
7, 7
4, 1
3, 5
5, 6
2, 10
5, 9
5, 7
3, 7
6, 6
8, 8
8, 3
5, 12
4, 7
8, 8
5, 5
10, 7
4, 7
3, 2
4, 5
3, 3
2, 2
3, 4
3, 1
3, 4
3, 2
6, 8
3, 2
1, 1
6, 4
2, 4
2, 5
4, 5
2, 3
3, 4
6, 2
1, 2
3, 1
2, 3
1, 1
6, 1
6, 3
4, 3
1, 1
1, 2
4, 3
7, 3
0, 3
1, 2
2, 5
4, 2
2, 2
1, 5
1, 1
1, 4
4, 2
4, 1
2, 5
3, 5
4, 4
4, 7
5, 7
1, 8
5, 4
7, 2
12, 5
8, 4
14, 4
17, 3
11, 7
11, 1
11, 6
14, 1
4, 2
4, 2
1, 3
6, 2
3, 5
1, 3
3, 2
6, 4
2, 0
5, 0
2, 0
2, 2
4, 2
3, 3
1, 4
3, 6
0, 4
1, 1
2, 3
2, 1
6, 0
1, 4
2, 2
2, 4
1, 4
2, 1
1, 4
1, 2
2, 3
3, 2
4, 1
1, 2
3, 3
2, 1
2, 1
1, 2
1, 4
2, 3
1, 3
2, 2
5, 2
2, 3
2, 5
4, 3
3, 2
1, 3
0, 1
1, 1
2, 3
1, 2
2, 4
1, 0
0, 2
1, 0
1, 2
4, 2
1, 1
0, 0
0, 0
0, 2
0, 1
3, 1
1, 2
2, 3
1, 2
0, 1
3, 1
2, 3
4, 2
2, 0
3, 2
5, 0
3, 1
1, 2
1, 1
1, 1
1, 2
0, 2
4, 1
2, 2
1, 2
1, 4
2, 0
3, 3
1, 2
1, 2
1, 2
0, 1
1, 2
0, 0
0, 2
2, 0
0, 1
0, 3
0, 2
1, 0
2, 0
0, 0
1, 1
1, 2
1, 1
1, 1
1, 0
1, 0
0, 3
0, 1
1, 3
1, 3
1, 1
0, 0
3, 1
1, 2
0, 1
0, 2
0, 1
3, 2
2, 1
2, 0
1, 1
2, 0
2, 1
1, 1
1, 0
0, 0
2, 0
2, 2
0, 1
0, 2
0, 1
0, 1
0, 2
0, 0
3, 1
0, 0
0, 2
1, 0
0, 0
0, 1
1, 1
2, 1
2, 3
1, 0
0, 0
0, 0
1, 1
3, 1
0, 0
1, 1
0, 1
1, 0
2, 1
0, 3
3, 0
0, 0
0, 1
0, 1
4, 0
2, 2
2, 1
0, 1
1, 0
2, 1
1, 1
1, 2
1, 0
0, 0
1, 0
0, 2
0, 1
1, 0
0, 0
1, 0
2, 0
0, 2
0, 1
0, 3
0, 3
0, 2
3, 0
0, 0
0, 1
1, 0
0, 1
2, 0
0, 1
1, 2
2, 1
0, 2
0, 1
0, 0
2, 3
1, 1
0, 0
0, 0
2, 0
0, 1
2, 0
0, 0
1, 1
2, 0
0, 1
0, 0
1, 1
0, 1
1, 1
1, 1
0, 0
1, 0
1, 0
1, 1
1, 1
1, 1
2, 1
0, 1
0, 1
0, 2
0, 0
1, 0
0, 0
0, 0
0, 0
0, 0
2, 1
0, 0
0, 0
1, 1
0, 0
1, 0
1, 0
1, 0
0, 1
1, 0
0, 0
2, 1
0, 0
0, 1
0, 1
0, 0
0, 0
1, 1
0, 0
0, 0
0, 0
0, 0
2, 1
0, 1
1, 0
0, 0
3, 1
0, 1
0, 0
0, 1
0, 0
0, 0
1, 0
1, 0
0, 0
0, 0
0, 1
2, 1
2, 0
0, 1
0, 1
0, 0
0, 0
0, 0
1, 0
0, 0
1, 0
0, 0
1, 2
1, 0
0, 0
1, 0
0, 0
0, 0
0, 0
0, 0
1, 0
0, 0
1, 1
0, 0
0, 0
1, 0
0, 0
0, 0
0, 0
0, 0
1, 0
0, 0
0, 0
0, 0
2, 1
1, 1
0, 3
0, 0
0, 0
0, 0
1, 0
1, 1
0, 0
2, 1
0, 0
1, 1
0, 0
1, 1
0, 0
0, 0
1, 0
0, 0
0, 0
0, 1
0, 0
0, 0
0, 0
0, 1
0, 1
0, 0
0, 0
0, 1
0, 0
0, 0
0, 0
1, 0
0, 1
0, 0
0, 0
1, 0
0, 0
0, 0
0, 0
0, 0
0, 0
0, 0
1, 0
0, 0
0, 0
0, 0
0, 0
1, 0
0, 0
1, 0
0, 0
0, 0
0, 0
0, 0
0, 1
0, 0
1, 1
0, 1
0, 0
0, 0
0, 0
0, 0
0, 0
0, 0
0, 1
0, 0
0, 0
0, 1
0, 0
0, 0
0, 0
0, 0
0, 0
0, 0
0, 0
0, 0
1, 0
0, 0
0, 0
0, 0
0, 0
0, 2
0, 0
0, 0
0, 0
0, 0
1, 0
0, 0
0, 0
0, 0
0, 0
0, 0
0, 0
0, 0
0, 0
0, 0
0, 0
0, 0
0, 0
0, 0
1, 0
0, 0
0, 0
0, 0
0, 0
0, 0
0, 0
0, 0
0, 0
0, 0
0, 0
0, 0
0, 0
0, 0
0, 0
0, 0
0, 0
0, 0
0, 0
1, 0
0, 0
0, 0
0, 0
0, 0
0, 0
0, 0
0, 1
0, 0
0, 0
0, 0
0, 0
0, 0
0, 0
0, 0
0, 0
0, 0
0, 0
0, 0
0, 0
0, 0
0, 0
0, 0
0, 0
0, 0
0, 0
0, 0
0, 0
0, 0
0, 0
0, 0
0, 0
0, 0
0, 0
0, 0
0, 0
0, 0
0, 0
0, 0
0, 0
0, 0
0, 0
0, 0
0, 0
0, 0
0, 0
0, 0
0, 0
0, 0
0, 0
0, 0
0, 0
0, 0
0, 0
0, 0
0, 0
0, 0
0, 0
0, 0
0, 0
0, 0
0, 0
0, 0
0, 0
0, 0
0, 0
0, 0
0, 0
0, 0
0, 0
0, 0
0, 0
0, 0
0, 0
0, 0
0, 0
0, 0
0, 0
0, 0
0, 0
0, 0
0, 0
0, 0
0, 0
0, 0
0, 0
0, 0
0, 0
0, 0
0, 0
0, 0
0, 0
0, 0
0, 0
0, 0
0, 0
0, 0
0, 0
0, 0
0, 0
0, 0
0, 0
0, 0
0, 0
0, 0
0, 0
0, 0
0, 0
0, 0
0, 0
0, 0
0, 0
0, 0
0, 0
0, 0
0, 0
0, 0
0, 0
0, 0
0, 0
0, 0
0, 0
0, 0
0, 0
0, 0
0, 0
0, 0
0, 0
0, 0
1, 0
0, 0
0, 0
0, 0
0, 0
0, 0
0, 0
0, 0
0, 0
0, 0
0, 0
0, 0
0, 0
0, 0
0, 0
0, 0
0, 0
0, 0
0, 0
0, 0
0, 0
0, 0
0, 0
0, 0
0, 0
0, 0
0, 0
0, 0
0, 0
0, 0
0, 0
0, 0
0, 0
0, 0
0, 0
0, 0
0, 0
0, 0
0, 0
0, 0
0, 0
0, 0
0, 0
0, 0
0, 0
0, 0
0, 0
0, 0
0, 0
0, 0
0, 0
0, 0
0, 0
0, 0
0, 0
0, 0
0, 0
0, 0
0, 0
0, 0
0, 0
0, 0
0, 0
0, 0
0, 0
0, 0
0, 0
0, 0
0, 0
0, 0
0, 0
0, 0
0, 0
0, 0
0, 0
0, 0
0, 0
0, 0
0, 0
0, 0
0, 0
0, 0
0, 0
0, 0
0, 0
0, 0
0, 0
0, 0
0, 0
0, 0
0, 0
0, 0
0, 0
0, 0
0, 0
0, 0
0, 0
0, 0
0, 0
0, 0
0, 0
0, 0
0, 0
0, 0
0, 0
0, 0
0, 0
0, 0
0, 0
0, 0
0, 0
0, 0
0, 0
0, 0
0, 0
0, 0
0, 0
0, 0
0, 0
0, 0
0, 0
0, 0
0, 0
0, 0
0, 0
0, 0
0, 0
0, 0
0, 0
0, 0
0, 0
0, 0
0, 0
0, 0
0, 0
0, 0
0, 0
0, 0
0, 0
0, 0
0, 0
0, 0
0, 0
0, 0
0, 0
0, 0
0, 0
0, 0
0, 0
0, 0
0, 0
0, 0
0, 0
0, 0
0, 0
0, 0
0, 0
0, 0
0, 0
0, 0
0, 0
0, 0
0, 0
0, 0
0, 0
0, 0
0, 0
0, 0
0, 0
0, 0
0, 0
0, 0
0, 0
0, 0
0, 0
0, 0
0, 0
0, 0
0, 0
0, 0
0, 0
0, 0
0, 0
0, 0
0, 0
0, 0
0, 0
0, 0
0, 0
0, 0
0, 0
0, 0
0, 0
0, 0
0, 0
0, 0
0, 0
0, 0
0, 0
0, 0
0, 0
0, 0
0, 0
0, 0
0, 0
0, 0
0, 0
0, 0
0, 0
0, 0
0, 0
0, 0
0, 0
0, 0
0, 0
0, 0
0, 0
0, 0
0, 0
0, 0
0, 0
0, 0
0, 0
0, 0
0, 0
0, 0
0, 0
0, 0
0, 0
0, 0
0, 0
0, 0
0, 0
0, 0
0, 0
0, 0
0, 0
0, 0
0, 0
0, 0
0, 0
0, 0
0, 0
0, 0
0, 0
0, 0
0, 0
0, 0
0, 0
0, 0
0, 0
0, 0
0, 0
0, 0
0, 0
0, 0
0, 0
0, 0
0, 0
0, 0
0, 0
0, 0
0, 0
0, 0
0, 0
0, 0
0, 0
0, 0
0, 0
0, 0
0, 0
0, 0
0, 0
0, 0
0, 0
0, 0
0, 0
0, 0
0, 0
0, 0
0, 0
0, 0
0, 0
0, 0
0, 0
0, 0
0, 0
0, 0
0, 0
0, 0
0, 0
0, 0
0, 0
0, 0
0, 0
0, 0
0, 0
0, 0
0, 0
0, 0
0, 0
0, 0
0, 0
0, 0
0, 0
0, 0
0, 0
0, 0
0, 0
0, 0
0, 0
0, 0
0, 0
0, 0
0, 0
0, 0
0, 0
0, 0
0, 0
0, 0
0, 0
0, 0
0, 0
0, 0
0, 0
0, 0
0, 0
0, 0
0, 0
0, 0
#ENDOFDATA     end of spectrum data