File: host_upload/12-01-2023/Dourbes (shot-by-shot)/upload_4/ps__0257_0689790785_000rfs_shot_3045.msa
#FORMAT      : EMSA/MAS spectral data file
#VERSION     : TC202v2.0 PIXL
#TITLE       : N/A
#DATE        :       Date in the format DD-MMM-YYYY, for example 07-JUL-2010
#TIME        :             The time of day at which the spectrum was recorded, in 24-hour format
#OWNER       : PIXL Flight Model       (PIXL will use this to indicate which instrument took the data.)
#NPOINTS     : 4096     Number of data points in the spectrum (This can be zero for configuration only files)
#NCOLUMNS    : 2     Number of data columns in the spectrum (This can be zero for configuration only files)
#XUNITS      : eV
#YUNITS      : COUNTS
#DATATYPE    : YY
#XPERCHAN    : 7.862, 7.881   eV per channel (separate by commas if more than one detector)
#OFFSET      : 18.5, -22.4         eV of first channel  (separate by commas if more than one detector
#SIGNALTYPE  : XRF
#YP_TEMP     : 3.294
#LIVETIME    : 9.00173, 8.99273   seconds (separate by commas if more than one detector)
#REALTIME    : 10, 10.0   seconds (separate by commas if more than one detector)
#SPECTRUM    : start of spectrum data
0, 0
0, 0
0, 0
0, 0
0, 0
0, 0
0, 0
0, 0
0, 0
0, 0
0, 0
0, 0
0, 0
0, 0
0, 0
0, 0
0, 0
0, 0
0, 0
0, 0
0, 0
0, 0
0, 0
0, 0
0, 0
0, 0
0, 0
0, 0
0, 0
0, 0
0, 0
0, 0
1, 1
0, 0
0, 1
2, 0
1, 1
0, 1
0, 3
0, 1
2, 1
1, 0
1, 0
2, 1
0, 2
2, 3
1, 0
1, 1
4, 5
6, 8
12, 18
29, 28
41, 39
53, 45
61, 65
45, 59
37, 38
26, 25
12, 11
12, 10
2, 2
5, 1
1, 2
3, 3
1, 4
5, 3
3, 2
9, 4
17, 10
40, 24
70, 65
131, 166
269, 255
350, 410
373, 463
465, 500
412, 355
267, 276
165, 181
86, 106
45, 60
29, 23
13, 11
10, 6
1, 6
3, 4
4, 4
2, 2
7, 3
3, 2
7, 0
14, 2
25, 2
44, 4
62, 3
64, 5
80, 8
64, 8
51, 6
38, 14
27, 10
10, 7
11, 6
4, 6
5, 0
4, 5
2, 5
4, 2
5, 5
3, 12
10, 11
18, 27
23, 25
31, 30
44, 37
40, 36
37, 45
36, 19
29, 21
27, 24
22, 11
18, 18
19, 13
14, 13
13, 16
8, 10
12, 8
10, 12
8, 13
11, 5
4, 6
2, 3
3, 1
3, 3
1, 1
3, 3
2, 2
0, 1
2, 1
4, 0
0, 5
3, 1
2, 5
0, 1
4, 2
0, 1
3, 1
3, 6
2, 1
1, 1
0, 4
4, 6
9, 5
10, 12
16, 23
16, 40
21, 50
41, 63
21, 69
22, 83
14, 63
13, 40
7, 29
0, 27
4, 22
4, 5
4, 5
5, 9
3, 6
6, 6
5, 3
5, 8
5, 10
2, 5
2, 2
3, 6
8, 4
4, 3
2, 3
5, 5
6, 5
2, 2
1, 2
2, 0
4, 4
3, 2
2, 5
4, 10
10, 5
9, 5
9, 11
13, 13
12, 13
13, 10
11, 18
12, 15
18, 20
22, 16
14, 15
19, 11
17, 16
6, 12
9, 7
9, 4
3, 11
5, 5
2, 4
4, 7
4, 9
4, 8
5, 6
5, 6
13, 6
15, 9
10, 14
8, 11
4, 5
8, 4
9, 6
6, 8
6, 8
6, 8
7, 8
10, 10
11, 11
6, 14
9, 32
10, 45
6, 60
13, 81
10, 108
7, 124
8, 148
10, 155
9, 134
10, 104
7, 92
5, 60
7, 52
6, 24
6, 14
7, 12
13, 11
15, 12
12, 16
26, 31
36, 47
48, 72
67, 88
69, 100
103, 107
101, 109
101, 86
72, 67
56, 58
41, 41
35, 21
23, 19
29, 18
22, 14
17, 22
22, 43
49, 61
107, 119
154, 210
347, 417
604, 739
1044, 1364
1684, 2079
2300, 2823
3110, 3540
3607, 3856
3812, 3857
3731, 3626
3234, 3038
2475, 2157
1794, 1511
1155, 902
664, 527
361, 273
210, 135
91, 59
57, 33
44, 20
35, 21
34, 13
32, 12
27, 20
18, 18
25, 29
42, 26
33, 44
64, 68
106, 114
135, 154
196, 247
284, 358
409, 438
499, 502
518, 545
524, 512
499, 509
434, 409
315, 310
218, 210
163, 130
93, 83
53, 41
26, 20
9, 13
8, 12
5, 7
3, 7
3, 5
6, 11
7, 12
7, 10
13, 14
5, 8
5, 10
4, 8
5, 9
3, 10
6, 4
5, 4
2, 5
4, 2
3, 2
5, 1
5, 5
2, 2
3, 3
1, 3
3, 2
3, 5
3, 3
3, 3
1, 3
4, 2
2, 2
6, 5
5, 2
3, 2
5, 1
2, 3
4, 3
11, 4
3, 4
2, 4
2, 2
5, 6
3, 1
2, 4
4, 1
0, 2
5, 3
2, 1
0, 4
0, 1
3, 1
2, 2
1, 5
4, 2
3, 6
10, 0
8, 3
7, 7
7, 6
7, 11
3, 3
7, 2
2, 8
3, 9
0, 22
3, 16
4, 12
0, 14
2, 15
4, 18
5, 22
5, 5
6, 8
6, 6
5, 6
8, 2
6, 8
3, 2
5, 3
4, 5
6, 3
1, 3
3, 5
0, 4
2, 6
4, 3
4, 3
3, 2
4, 3
1, 7
1, 3
2, 2
1, 2
3, 5
1, 1
3, 8
2, 4
2, 2
1, 5
3, 8
4, 3
3, 3
1, 3
3, 3
3, 4
2, 5
2, 5
1, 3
1, 1
5, 0
0, 3
4, 3
4, 2
2, 3
2, 3
2, 5
5, 1
2, 1
1, 4
1, 5
0, 4
1, 1
2, 5
3, 3
1, 3
2, 5
4, 2
1, 1
0, 5
1, 1
1, 3
3, 4
2, 2
2, 2
3, 2
1, 1
2, 7
3, 2
2, 5
2, 5
1, 5
2, 8
3, 5
0, 2
0, 2
2, 2
4, 0
2, 6
3, 7
2, 8
4, 7
2, 5
3, 6
1, 12
3, 6
3, 9
4, 10
4, 12
2, 11
0, 9
2, 11
1, 8
4, 7
2, 3
3, 2
3, 1
6, 2
1, 2
3, 3
4, 0
5, 5
3, 1
3, 2
4, 2
2, 3
3, 2
2, 1
2, 2
1, 1
1, 0
2, 3
2, 3
0, 0
4, 1
1, 2
0, 2
2, 0
2, 3
6, 2
1, 2
1, 4
1, 2
0, 2
1, 2
0, 2
1, 0
3, 2
4, 0
1, 0
2, 2
0, 2
1, 1
4, 0
0, 2
1, 3
2, 3
2, 0
0, 1
2, 0
0, 1
1, 1
5, 5
2, 2
1, 2
2, 6
3, 4
2, 1
9, 2
1, 1
2, 7
1, 1
1, 2
1, 1
1, 2
3, 5
2, 2
5, 3
5, 2
2, 5
4, 9
4, 8
6, 9
2, 6
8, 9
3, 4
3, 4
6, 6
2, 4
7, 1
2, 5
3, 2
1, 3
2, 1
0, 0
2, 1
4, 1
2, 2
2, 1
3, 1
3, 1
0, 1
0, 1
1, 0
2, 3
2, 6
1, 4
1, 5
1, 2
5, 3
2, 1
4, 4
4, 4
1, 1
0, 2
6, 1
3, 2
2, 4
2, 1
1, 0
3, 1
4, 1
0, 0
1, 2
1, 1
1, 0
2, 2
1, 0
2, 0
2, 1
0, 2
0, 0
0, 2
0, 1
0, 1
2, 0
1, 0
1, 1
1, 0
0, 0
2, 0
1, 0
0, 0
0, 0
2, 1
1, 1
0, 0
0, 0
3, 0
1, 1
1, 1
1, 0
1, 1
0, 0
1, 0
0, 1
0, 2
0, 3
2, 1
0, 1
0, 0
0, 1
0, 1
2, 2
1, 0
1, 1
0, 1
1, 1
3, 2
1, 0
0, 1
0, 0
1, 2
0, 0
0, 1
1, 1
2, 1
0, 0
2, 1
0, 0
0, 1
1, 1
0, 1
1, 0
0, 0
1, 0
4, 0
1, 0
0, 0
2, 0
1, 0
0, 0
0, 0
0, 1
1, 0
2, 0
0, 0
0, 1
0, 1
0, 0
0, 0
3, 0
1, 0
1, 0
0, 0
0, 0
0, 1
0, 1
1, 0
0, 0
2, 0
0, 0
0, 0
1, 0
1, 0
1, 1
0, 1
1, 0
0, 0
0, 0
1, 0
1, 0
1, 0
0, 0
0, 1
1, 3
0, 1
0, 0
0, 0
0, 0
1, 0
1, 2
0, 0
0, 1
0, 0
0, 0
0, 1
0, 0
1, 0
0, 0
1, 1
0, 0
0, 0
0, 0
0, 0
1, 2
0, 1
1, 1
0, 0
1, 0
0, 0
0, 0
0, 0
1, 1
2, 0
1, 0
0, 1
0, 1
0, 0
1, 1
1, 0
0, 0
1, 0
0, 0
0, 0
1, 1
0, 1
0, 0
0, 0
0, 0
0, 0
1, 0
0, 0
0, 0
1, 0
0, 1
0, 0
0, 0
1, 0
0, 0
0, 0
0, 0
0, 0
0, 0
1, 0
2, 1
0, 0
0, 0
0, 1
0, 0
0, 0
0, 1
0, 0
0, 1
0, 0
1, 0
0, 0
0, 0
1, 0
0, 0
0, 0
0, 0
0, 0
2, 0
0, 0
0, 0
0, 0
0, 1
0, 0
0, 0
0, 0
0, 0
0, 0
0, 0
0, 0
0, 1
0, 0
2, 0
0, 0
0, 0
0, 0
0, 1
1, 0
0, 0
0, 0
0, 0
0, 0
0, 0
1, 0
0, 0
1, 0
0, 0
1, 0
0, 0
0, 0
1, 0
1, 0
0, 0
0, 1
0, 0
0, 0
0, 0
1, 0
0, 0
0, 0
1, 0
1, 0
1, 0
0, 0
0, 0
0, 0
0, 0
0, 0
0, 0
0, 0
0, 0
0, 0
0, 0
0, 0
0, 1
2, 0
1, 0
1, 0
0, 0
0, 0
0, 0
0, 0
0, 0
0, 0
2, 0
0, 0
0, 0
0, 0
1, 0
0, 0
0, 0
0, 0
0, 1
0, 0
0, 0
0, 0
0, 0
0, 0
0, 0
0, 0
0, 0
0, 0
0, 1
1, 0
0, 0
0, 0
0, 0
0, 0
0, 0
0, 0
0, 0
0, 0
0, 0
0, 0
0, 0
0, 0
0, 0
0, 0
0, 0
0, 0
0, 0
0, 0
0, 0
0, 0
0, 0
0, 1
0, 0
0, 0
0, 0
0, 0
0, 0
0, 0
0, 0
0, 0
0, 0
0, 0
0, 0
0, 1
0, 0
0, 0
0, 1
0, 1
0, 0
0, 0
0, 0
0, 0
0, 1
0, 0
0, 0
0, 0
0, 0
0, 0
0, 0
0, 0
0, 0
0, 0
0, 0
1, 1
0, 0
0, 0
0, 0
0, 0
0, 0
0, 0
0, 0
0, 0
0, 0
0, 0
1, 0
0, 0
0, 0
0, 0
0, 0
0, 0
0, 0
0, 0
0, 1
0, 0
0, 0
0, 0
0, 0
0, 1
0, 0
0, 0
1, 0
0, 0
0, 0
0, 0
0, 0
0, 0
0, 0
0, 0
0, 0
0, 0
0, 0
0, 0
0, 0
0, 0
0, 0
0, 0
0, 0
0, 0
0, 0
0, 0
1, 0
0, 0
0, 0
0, 0
0, 0
0, 0
0, 0
0, 0
0, 0
0, 0
0, 0
0, 0
0, 0
0, 0
0, 0
0, 0
0, 0
0, 0
0, 0
0, 0
0, 0
0, 0
0, 0
0, 0
0, 0
0, 0
0, 0
0, 0
0, 0
0, 0
0, 0
0, 0
0, 0
0, 0
0, 0
0, 0
0, 0
0, 0
0, 0
0, 0
0, 0
0, 0
0, 0
0, 0
0, 0
0, 0
0, 0
0, 0
1, 0
0, 0
0, 0
0, 0
0, 0
0, 0
0, 0
0, 0
0, 0
0, 0
0, 0
0, 0
0, 0
0, 0
0, 0
0, 0
0, 0
0, 0
0, 0
0, 0
0, 0
0, 0
0, 0
0, 0
0, 0
0, 0
0, 0
0, 0
0, 0
0, 0
0, 0
0, 0
0, 0
0, 0
0, 0
0, 0
0, 0
0, 0
0, 0
0, 0
0, 1
0, 0
0, 0
0, 0
0, 0
0, 0
0, 0
0, 0
0, 0
0, 0
0, 0
0, 0
0, 0
0, 1
0, 0
0, 0
0, 0
0, 0
0, 0
0, 0
0, 0
0, 0
0, 0
0, 0
0, 0
0, 0
0, 0
0, 0
0, 0
0, 0
0, 0
0, 0
0, 0
0, 0
0, 0
0, 0
0, 0
0, 0
0, 0
0, 0
0, 0
0, 0
0, 0
0, 0
0, 0
0, 0
0, 0
0, 0
0, 0
0, 0
0, 0
0, 0
0, 0
0, 0
0, 0
0, 0
0, 0
0, 0
0, 0
0, 0
0, 0
0, 0
0, 0
0, 0
0, 0
0, 0
0, 0
0, 0
0, 0
0, 0
0, 0
0, 0
0, 0
0, 0
0, 0
0, 0
0, 0
0, 0
0, 0
0, 0
0, 0
0, 0
0, 0
0, 0
0, 0
0, 0
0, 0
0, 0
0, 0
0, 0
0, 0
0, 0
0, 0
0, 0
0, 0
0, 0
0, 0
0, 0
0, 0
0, 0
0, 0
0, 0
0, 0
0, 0
0, 0
0, 0
0, 0
0, 0
0, 0
0, 0
0, 0
0, 0
0, 0
0, 0
0, 0
0, 0
0, 0
0, 0
0, 0
0, 0
0, 0
0, 0
0, 0
0, 0
0, 0
0, 0
0, 0
0, 0
0, 0
0, 0
0, 0
0, 0
0, 0
0, 0
0, 0
0, 0
0, 0
0, 0
0, 0
0, 0
0, 0
0, 0
0, 0
0, 0
0, 0
0, 0
0, 0
0, 0
0, 0
0, 0
0, 0
0, 0
0, 0
0, 0
0, 0
0, 0
0, 0
0, 0
0, 0
0, 0
0, 0
0, 0
0, 0
0, 0
0, 0
0, 0
0, 0
0, 0
0, 0
0, 0
0, 0
0, 0
0, 0
0, 0
0, 0
0, 0
0, 0
0, 0
0, 0
0, 0
0, 0
0, 0
0, 0
0, 0
0, 0
0, 0
0, 0
0, 0
0, 0
0, 0
0, 0
0, 0
0, 0
0, 0
0, 0
0, 0
0, 0
0, 0
0, 0
0, 0
0, 0
0, 0
0, 0
0, 0
0, 0
0, 0
0, 0
0, 0
0, 0
0, 0
0, 0
0, 0
0, 0
0, 0
0, 0
0, 0
0, 0
0, 0
0, 0
0, 0
0, 0
0, 0
0, 0
0, 0
0, 0
0, 0
0, 0
0, 0
0, 0
0, 0
0, 0
0, 0
0, 0
0, 0
0, 0
0, 0
0, 0
0, 0
0, 0
0, 0
0, 0
0, 0
0, 0
0, 0
0, 0
0, 0
0, 0
0, 0
0, 0
0, 0
0, 0
0, 0
0, 0
0, 0
0, 0
0, 0
0, 0
0, 0
0, 0
0, 0
0, 0
0, 0
0, 0
0, 0
0, 0
0, 0
0, 0
0, 0
0, 0
0, 0
0, 0
0, 0
0, 0
0, 0
0, 0
0, 0
0, 0
0, 0
0, 0
0, 0
0, 0
0, 0
0, 0
0, 0
0, 0
0, 0
0, 0
0, 0
0, 0
0, 0
0, 0
0, 0
0, 0
0, 0
0, 0
0, 0
0, 0
0, 0
0, 0
0, 0
0, 0
0, 0
0, 0
0, 0
0, 0
0, 0
0, 0
0, 0
0, 0
0, 0
0, 0
0, 0
0, 0
0, 0
0, 0
0, 0
0, 0
0, 0
0, 0
0, 0
0, 0
0, 0
0, 0
0, 0
0, 0
0, 0
0, 0
0, 0
0, 0
0, 0
0, 0
#ENDOFDATA     end of spectrum data