File: host_upload/12-01-2023/Dourbes (shot-by-shot)/upload_4/ps__0257_0689790785_000rfs_shot_3037.msa
#FORMAT      : EMSA/MAS spectral data file
#VERSION     : TC202v2.0 PIXL
#TITLE       : N/A
#DATE        :       Date in the format DD-MMM-YYYY, for example 07-JUL-2010
#TIME        :             The time of day at which the spectrum was recorded, in 24-hour format
#OWNER       : PIXL Flight Model       (PIXL will use this to indicate which instrument took the data.)
#NPOINTS     : 4096     Number of data points in the spectrum (This can be zero for configuration only files)
#NCOLUMNS    : 2     Number of data columns in the spectrum (This can be zero for configuration only files)
#XUNITS      : eV
#YUNITS      : COUNTS
#DATATYPE    : YY
#XPERCHAN    : 7.862, 7.881   eV per channel (separate by commas if more than one detector)
#OFFSET      : 18.5, -22.4         eV of first channel  (separate by commas if more than one detector
#SIGNALTYPE  : XRF
#YP_TEMP     : 3.422
#LIVETIME    : 9.01418, 8.9932   seconds (separate by commas if more than one detector)
#REALTIME    : 10, 10.0   seconds (separate by commas if more than one detector)
#SPECTRUM    : start of spectrum data
0, 0
0, 0
0, 0
0, 0
0, 0
0, 0
0, 0
0, 0
0, 0
0, 0
0, 0
0, 0
0, 0
0, 0
0, 0
0, 0
0, 0
0, 0
0, 0
0, 0
0, 0
0, 0
0, 0
0, 0
0, 0
0, 0
0, 0
0, 0
0, 0
0, 0
0, 0
0, 0
0, 0
0, 1
0, 2
1, 0
0, 1
1, 0
3, 0
3, 1
2, 1
3, 1
1, 5
2, 3
3, 1
1, 2
3, 2
5, 3
3, 1
7, 1
12, 8
16, 17
28, 32
36, 42
35, 37
40, 38
31, 30
11, 17
15, 8
10, 4
5, 1
3, 3
2, 3
1, 3
2, 4
7, 7
1, 3
2, 7
10, 7
26, 21
46, 39
95, 93
145, 186
224, 270
285, 317
274, 328
261, 276
169, 198
118, 121
64, 61
36, 27
9, 19
10, 11
4, 6
7, 5
3, 1
4, 8
1, 7
3, 3
5, 2
1, 2
1, 4
1, 7
8, 7
11, 15
30, 35
33, 48
42, 56
42, 58
52, 51
44, 51
27, 37
12, 25
10, 21
8, 12
8, 9
15, 16
28, 29
25, 40
52, 53
65, 82
112, 121
132, 116
156, 134
185, 135
151, 131
139, 104
112, 95
75, 68
53, 60
47, 50
45, 51
46, 34
38, 27
29, 30
32, 23
22, 28
25, 29
14, 26
17, 14
9, 15
6, 11
8, 9
3, 6
6, 6
4, 5
3, 1
5, 6
5, 5
9, 11
3, 7
7, 4
7, 4
4, 4
6, 4
2, 9
4, 2
5, 2
4, 4
7, 9
10, 12
19, 25
47, 38
70, 70
90, 129
135, 166
147, 196
193, 202
163, 198
153, 148
87, 104
84, 63
26, 47
20, 17
16, 8
6, 16
7, 13
21, 17
18, 18
25, 31
24, 26
33, 27
23, 33
27, 23
15, 19
12, 16
15, 17
20, 16
14, 13
17, 9
11, 11
11, 8
10, 5
6, 6
5, 10
9, 8
9, 7
18, 19
13, 21
10, 20
15, 20
16, 17
11, 19
20, 23
24, 30
17, 38
23, 45
25, 31
22, 35
20, 37
24, 35
10, 33
20, 24
10, 17
14, 14
12, 19
21, 19
20, 14
23, 9
35, 14
29, 12
26, 10
31, 16
30, 21
22, 30
15, 12
25, 19
14, 22
12, 17
11, 13
13, 16
13, 18
17, 18
11, 20
15, 19
12, 18
7, 13
18, 12
19, 13
15, 13
12, 11
11, 16
14, 15
13, 10
13, 8
16, 19
14, 13
30, 11
15, 15
15, 22
16, 10
14, 31
19, 22
26, 22
19, 23
31, 30
54, 54
69, 79
81, 111
101, 127
106, 133
131, 118
107, 125
101, 91
73, 65
56, 59
41, 43
35, 30
19, 31
21, 19
23, 27
24, 37
45, 82
94, 110
169, 195
306, 388
565, 785
947, 1252
1486, 1969
2104, 2685
2859, 3322
3229, 3795
3386, 3712
3407, 3410
2841, 2885
2260, 2163
1625, 1421
1023, 944
649, 468
330, 271
168, 134
84, 81
52, 38
33, 37
23, 25
20, 28
38, 34
31, 34
32, 39
34, 34
36, 44
39, 49
66, 82
95, 99
141, 165
172, 263
290, 326
354, 442
414, 479
482, 605
490, 540
423, 474
410, 377
322, 326
213, 202
133, 136
81, 76
56, 30
20, 23
26, 11
10, 7
9, 4
5, 2
3, 7
3, 11
6, 9
9, 9
8, 5
7, 9
10, 9
10, 9
6, 4
4, 2
4, 1
2, 5
2, 7
7, 1
4, 2
4, 9
7, 6
8, 4
5, 3
4, 7
7, 5
5, 7
7, 5
4, 5
7, 9
2, 8
13, 6
5, 4
6, 8
7, 9
3, 10
4, 8
4, 6
6, 3
2, 5
7, 4
4, 6
7, 4
4, 4
7, 5
7, 7
8, 10
6, 4
6, 4
11, 4
7, 6
6, 3
4, 11
3, 5
5, 6
5, 6
4, 3
7, 6
7, 9
8, 7
11, 7
10, 7
10, 9
6, 2
8, 3
5, 9
6, 6
7, 3
6, 2
6, 6
3, 6
7, 9
5, 2
5, 8
4, 8
5, 5
4, 6
1, 3
4, 3
4, 6
4, 4
6, 9
6, 4
5, 4
2, 10
3, 7
7, 6
3, 3
8, 6
6, 3
8, 4
6, 6
2, 9
5, 7
6, 7
3, 2
7, 5
3, 5
3, 2
1, 7
5, 5
3, 2
6, 2
5, 2
2, 3
1, 1
5, 2
5, 1
1, 4
2, 6
5, 2
3, 4
4, 3
3, 6
9, 2
3, 4
4, 6
1, 2
7, 4
7, 5
7, 4
2, 0
3, 5
3, 9
5, 3
4, 4
3, 7
8, 11
4, 10
6, 1
6, 1
4, 5
7, 3
2, 1
4, 3
2, 4
3, 2
3, 6
6, 3
0, 3
2, 4
2, 3
6, 3
7, 2
3, 3
1, 2
2, 5
4, 2
0, 3
3, 4
2, 2
5, 4
5, 4
1, 4
1, 1
2, 1
2, 0
1, 3
5, 4
5, 1
3, 4
2, 3
3, 2
4, 1
4, 5
3, 4
2, 3
3, 0
0, 3
5, 3
7, 0
3, 0
1, 3
2, 7
0, 2
5, 6
5, 1
2, 5
5, 6
2, 2
2, 3
4, 2
2, 1
1, 3
2, 7
1, 1
4, 4
5, 5
3, 0
3, 3
2, 2
2, 4
2, 3
0, 2
1, 1
5, 4
2, 4
2, 2
6, 5
2, 3
3, 2
2, 5
0, 4
0, 2
2, 3
0, 1
2, 0
1, 5
2, 4
1, 3
1, 0
2, 1
3, 1
4, 4
1, 2
6, 0
2, 1
2, 3
4, 1
2, 3
3, 2
0, 2
1, 4
5, 3
0, 1
3, 6
4, 2
3, 3
2, 2
2, 6
2, 4
4, 5
4, 6
7, 3
11, 5
10, 13
3, 7
6, 10
2, 1
1, 3
6, 6
2, 6
2, 2
1, 5
2, 3
0, 0
1, 2
2, 1
0, 2
1, 3
1, 6
0, 4
0, 5
3, 1
2, 4
1, 0
2, 1
3, 3
1, 3
2, 4
1, 3
3, 3
7, 2
1, 3
3, 5
2, 2
1, 2
2, 2
2, 0
0, 2
1, 0
1, 0
1, 3
0, 1
1, 0
2, 2
1, 0
1, 3
1, 0
3, 0
2, 1
1, 1
0, 2
0, 0
1, 3
1, 1
0, 1
1, 2
1, 1
1, 2
1, 2
1, 0
1, 0
1, 4
1, 0
2, 3
0, 2
1, 1
3, 1
0, 0
1, 1
0, 1
3, 1
0, 6
2, 0
2, 0
0, 1
1, 1
1, 1
2, 1
1, 1
0, 0
1, 0
1, 1
0, 1
0, 0
0, 2
0, 2
1, 0
1, 0
2, 0
2, 0
1, 0
2, 1
1, 1
1, 1
1, 1
0, 0
1, 0
1, 0
0, 1
0, 1
0, 0
0, 0
2, 1
2, 3
1, 1
0, 1
1, 0
0, 1
2, 2
1, 0
0, 0
2, 1
1, 2
0, 1
0, 0
0, 1
0, 0
0, 1
0, 0
1, 1
0, 0
0, 1
1, 0
0, 0
0, 1
0, 0
0, 0
0, 2
0, 2
0, 1
2, 0
0, 3
1, 0
1, 0
1, 1
2, 0
0, 1
0, 2
1, 0
1, 0
0, 0
1, 0
0, 1
1, 0
2, 0
1, 1
0, 1
1, 0
0, 1
2, 1
0, 2
0, 0
0, 0
1, 4
0, 0
0, 0
1, 3
0, 0
1, 1
0, 0
0, 1
0, 1
0, 2
0, 0
0, 0
2, 0
0, 0
1, 0
0, 0
1, 0
0, 0
1, 0
0, 0
0, 1
0, 0
0, 0
1, 0
1, 0
0, 0
0, 1
0, 0
0, 0
0, 0
1, 0
0, 0
1, 2
1, 0
0, 0
3, 0
0, 0
0, 0
0, 0
0, 0
0, 1
0, 1
0, 0
0, 0
0, 0
0, 0
0, 1
0, 0
2, 0
1, 0
0, 0
0, 0
0, 1
0, 0
0, 0
0, 0
0, 0
0, 0
0, 0
0, 2
0, 0
0, 2
0, 0
0, 0
0, 0
0, 1
0, 1
0, 1
0, 2
0, 0
0, 0
0, 0
0, 0
0, 0
0, 0
0, 1
0, 0
0, 0
0, 0
0, 0
1, 0
0, 0
1, 0
2, 0
0, 0
0, 0
0, 1
0, 0
1, 0
0, 0
0, 0
0, 0
1, 0
2, 1
0, 0
0, 0
0, 1
0, 0
0, 0
1, 0
0, 0
0, 0
0, 0
0, 1
0, 0
0, 0
0, 0
0, 1
0, 0
0, 1
0, 1
0, 0
0, 0
0, 2
0, 0
0, 0
0, 0
0, 0
1, 0
1, 0
0, 0
0, 0
1, 0
0, 0
0, 0
0, 0
0, 0
0, 0
0, 0
0, 0
0, 0
0, 0
0, 0
0, 1
0, 0
0, 0
0, 0
0, 0
0, 0
0, 0
0, 0
0, 0
0, 0
0, 0
0, 0
2, 0
0, 0
0, 0
0, 0
0, 0
0, 0
1, 0
0, 0
0, 0
0, 0
0, 0
2, 1
0, 0
0, 0
0, 1
0, 0
0, 0
0, 0
1, 0
0, 0
0, 0
0, 0
0, 0
0, 0
0, 0
0, 0
0, 0
0, 0
0, 1
0, 0
0, 0
0, 0
0, 0
0, 0
0, 0
0, 0
0, 0
0, 0
0, 1
0, 0
0, 0
0, 0
0, 0
1, 0
0, 0
0, 0
0, 0
0, 0
0, 0
1, 0
0, 0
0, 0
0, 0
0, 0
0, 0
0, 0
0, 0
0, 0
0, 0
0, 0
0, 0
0, 0
0, 0
0, 0
0, 0
0, 1
0, 0
0, 0
1, 0
0, 0
0, 0
0, 0
1, 0
0, 0
0, 0
0, 0
0, 0
0, 0
0, 0
0, 0
0, 0
0, 0
0, 0
0, 0
0, 0
0, 0
0, 0
1, 0
0, 0
0, 0
0, 0
0, 0
0, 0
0, 0
0, 0
0, 0
0, 0
0, 1
0, 0
0, 0
0, 0
0, 0
0, 0
0, 0
0, 0
0, 0
0, 0
0, 0
0, 0
0, 0
0, 0
0, 0
0, 0
0, 0
0, 0
0, 0
0, 0
0, 0
0, 0
0, 0
0, 0
1, 0
0, 0
0, 0
0, 0
0, 0
0, 0
0, 0
0, 0
0, 0
0, 0
0, 0
0, 0
0, 0
0, 0
0, 0
0, 0
1, 0
0, 0
0, 0
0, 0
0, 0
0, 0
0, 0
0, 0
0, 0
0, 0
0, 0
0, 0
0, 0
0, 0
0, 0
0, 0
0, 0
0, 0
0, 0
0, 0
0, 0
0, 0
0, 0
0, 0
0, 0
0, 0
0, 0
0, 0
1, 0
0, 0
0, 0
0, 0
0, 0
0, 0
0, 0
0, 0
0, 0
0, 0
0, 0
0, 0
0, 0
0, 0
0, 1
0, 0
0, 0
0, 0
0, 0
0, 0
0, 0
0, 0
0, 0
0, 0
0, 0
0, 0
0, 0
1, 0
0, 0
0, 0
0, 0
0, 0
0, 0
0, 0
0, 0
0, 0
0, 0
0, 0
0, 0
0, 0
0, 0
0, 0
0, 0
0, 0
0, 0
0, 0
0, 0
0, 0
0, 0
0, 0
0, 0
0, 0
0, 0
0, 0
0, 0
0, 0
0, 0
0, 0
0, 0
0, 0
0, 0
0, 0
0, 0
0, 0
0, 0
0, 0
0, 0
0, 0
0, 0
0, 0
0, 0
0, 0
0, 0
0, 0
0, 0
0, 0
0, 0
0, 0
0, 0
0, 0
0, 0
0, 0
0, 0
0, 0
0, 0
0, 0
0, 0
0, 0
0, 0
0, 0
0, 0
0, 0
0, 0
0, 0
0, 0
0, 0
0, 0
0, 0
0, 0
0, 0
0, 0
0, 0
0, 0
0, 0
0, 0
0, 0
0, 0
0, 0
0, 0
0, 0
0, 0
0, 0
0, 0
0, 0
0, 0
0, 0
0, 0
0, 0
0, 0
0, 0
0, 0
0, 0
0, 0
0, 0
0, 0
0, 0
0, 0
0, 0
0, 0
0, 0
0, 0
0, 0
0, 0
0, 0
0, 0
0, 0
0, 0
0, 0
0, 0
0, 0
0, 0
0, 0
0, 0
0, 0
0, 0
0, 0
0, 0
0, 0
0, 0
0, 0
0, 0
0, 0
0, 0
0, 0
0, 0
0, 0
0, 0
0, 0
0, 0
0, 0
0, 0
0, 0
0, 0
0, 0
0, 0
0, 0
0, 0
0, 0
0, 0
0, 0
0, 0
0, 0
0, 0
0, 0
0, 0
0, 0
0, 0
0, 0
0, 0
0, 0
0, 0
0, 0
0, 0
0, 0
0, 0
0, 0
0, 0
0, 0
0, 0
0, 0
0, 0
0, 0
0, 0
0, 0
0, 0
0, 0
0, 0
0, 0
0, 0
0, 0
0, 0
0, 0
0, 0
0, 0
0, 0
0, 0
0, 0
0, 0
0, 0
0, 0
0, 0
0, 0
0, 0
0, 0
0, 0
0, 0
0, 0
0, 0
0, 0
0, 0
0, 0
0, 0
0, 0
0, 0
0, 0
0, 0
0, 0
0, 0
0, 0
0, 0
0, 0
0, 0
0, 0
0, 0
0, 0
0, 0
0, 0
0, 0
0, 0
0, 0
0, 0
0, 0
0, 0
0, 0
0, 0
0, 0
0, 0
0, 0
0, 0
0, 0
0, 0
0, 0
0, 0
0, 0
0, 0
0, 0
0, 0
0, 0
0, 0
0, 0
0, 0
0, 0
0, 0
0, 0
0, 0
0, 0
0, 0
0, 0
0, 0
0, 0
0, 0
0, 0
0, 0
0, 0
0, 0
0, 0
0, 0
0, 0
0, 0
0, 0
0, 0
0, 0
0, 0
0, 0
0, 0
0, 0
0, 0
0, 0
0, 0
0, 0
0, 0
0, 0
0, 0
0, 0
0, 0
0, 0
0, 0
0, 0
0, 0
0, 0
0, 0
0, 0
0, 0
0, 0
0, 0
0, 0
0, 0
0, 0
0, 0
0, 0
0, 0
0, 0
0, 0
0, 0
0, 0
0, 0
0, 0
0, 0
0, 0
0, 0
0, 0
0, 0
0, 0
0, 0
0, 0
0, 0
0, 0
0, 0
0, 0
0, 0
0, 0
0, 0
0, 0
0, 0
0, 0
0, 0
0, 0
0, 0
0, 0
0, 0
0, 0
0, 0
0, 0
0, 0
0, 0
0, 0
0, 0
0, 0
0, 0
0, 0
0, 0
0, 0
0, 0
0, 0
0, 0
0, 0
0, 0
0, 0
0, 0
0, 0
0, 0
0, 0
0, 0
#ENDOFDATA     end of spectrum data