File: host_upload/12-01-2023/Dourbes (shot-by-shot)/upload_4/ps__0257_0689790785_000rfs_shot_3279.msa
#FORMAT      : EMSA/MAS spectral data file
#VERSION     : TC202v2.0 PIXL
#TITLE       : N/A
#DATE        :       Date in the format DD-MMM-YYYY, for example 07-JUL-2010
#TIME        :             The time of day at which the spectrum was recorded, in 24-hour format
#OWNER       : PIXL Flight Model       (PIXL will use this to indicate which instrument took the data.)
#NPOINTS     : 4096     Number of data points in the spectrum (This can be zero for configuration only files)
#NCOLUMNS    : 2     Number of data columns in the spectrum (This can be zero for configuration only files)
#XUNITS      : eV
#YUNITS      : COUNTS
#DATATYPE    : YY
#XPERCHAN    : 7.862, 7.881   eV per channel (separate by commas if more than one detector)
#OFFSET      : 18.5, -22.4         eV of first channel  (separate by commas if more than one detector
#SIGNALTYPE  : XRF
#YP_TEMP     : 3.294
#LIVETIME    : 9.11994, 9.1363   seconds (separate by commas if more than one detector)
#REALTIME    : 10, 10.0   seconds (separate by commas if more than one detector)
#SPECTRUM    : start of spectrum data
0, 0
0, 0
0, 0
0, 0
0, 0
0, 0
0, 0
0, 0
0, 0
0, 0
0, 0
0, 0
0, 0
0, 0
0, 0
0, 0
0, 0
0, 0
0, 0
0, 0
0, 0
0, 0
0, 0
0, 0
0, 0
0, 0
0, 0
0, 0
0, 0
0, 0
0, 0
0, 0
0, 0
1, 0
1, 0
1, 1
2, 0
1, 1
1, 1
1, 0
0, 0
1, 2
2, 1
1, 1
2, 1
3, 0
2, 1
4, 4
3, 0
3, 4
5, 8
23, 13
45, 16
44, 39
41, 28
39, 27
23, 23
20, 21
9, 11
3, 3
7, 8
3, 9
14, 8
12, 8
11, 17
6, 21
11, 9
15, 6
13, 16
59, 53
133, 122
285, 266
512, 513
774, 729
879, 858
910, 884
731, 736
536, 543
298, 278
197, 160
93, 79
50, 47
42, 24
27, 21
16, 19
9, 16
4, 11
7, 2
8, 7
6, 5
3, 2
1, 5
0, 5
5, 3
4, 3
1, 9
4, 7
4, 10
5, 6
6, 8
8, 3
7, 3
7, 4
2, 3
4, 3
2, 4
4, 2
5, 2
3, 6
10, 8
18, 7
23, 28
17, 17
21, 26
26, 19
26, 15
25, 19
22, 22
18, 12
10, 12
21, 11
15, 11
16, 13
19, 13
11, 17
13, 17
12, 21
14, 14
10, 3
7, 10
11, 7
3, 5
1, 5
6, 3
2, 2
4, 3
1, 6
4, 3
2, 2
3, 4
2, 3
4, 5
3, 3
4, 2
2, 3
3, 3
3, 9
4, 8
13, 8
24, 13
53, 53
120, 117
230, 230
408, 470
637, 694
981, 932
1122, 1134
1282, 1310
1198, 1096
960, 975
766, 653
461, 400
246, 213
128, 107
67, 61
70, 34
60, 52
93, 80
127, 107
134, 161
178, 176
203, 159
168, 176
140, 121
98, 92
71, 54
44, 27
23, 12
12, 6
7, 5
12, 3
6, 4
1, 1
4, 1
4, 5
7, 5
14, 9
10, 11
21, 17
13, 26
31, 26
47, 41
33, 39
27, 28
32, 31
20, 15
29, 16
8, 8
14, 9
6, 5
5, 6
5, 6
4, 12
1, 6
7, 4
5, 2
7, 11
10, 9
8, 3
10, 9
8, 8
14, 14
8, 12
4, 16
7, 16
4, 21
6, 14
4, 25
4, 15
3, 18
1, 14
7, 14
6, 12
7, 10
11, 12
17, 19
24, 31
29, 27
35, 32
56, 44
53, 60
47, 38
56, 34
36, 26
24, 27
27, 13
12, 12
11, 13
3, 5
5, 10
8, 5
3, 5
6, 4
8, 5
8, 11
10, 13
16, 25
23, 24
38, 34
42, 45
52, 47
53, 51
47, 48
47, 39
44, 30
31, 26
28, 23
31, 9
39, 8
56, 16
93, 11
150, 14
247, 28
267, 34
364, 72
474, 133
542, 262
668, 406
883, 603
959, 847
1097, 1091
1296, 1181
1312, 1193
1203, 1068
1001, 865
796, 717
549, 398
330, 247
215, 148
109, 79
60, 32
33, 23
13, 11
12, 9
8, 6
9, 8
10, 6
6, 8
5, 8
11, 10
11, 10
11, 16
23, 34
34, 42
52, 51
63, 71
137, 117
154, 151
184, 203
195, 197
193, 200
180, 148
159, 129
131, 106
100, 58
64, 40
36, 32
19, 18
7, 16
8, 15
5, 16
8, 12
5, 5
7, 15
6, 7
5, 7
10, 4
6, 7
4, 5
4, 8
7, 2
4, 2
3, 2
2, 5
4, 6
1, 5
2, 4
7, 2
7, 4
9, 5
4, 3
7, 2
5, 3
1, 5
2, 3
3, 1
4, 2
9, 2
4, 5
5, 2
6, 4
3, 7
1, 4
7, 5
1, 4
8, 5
6, 4
8, 6
4, 6
10, 3
12, 2
7, 13
8, 8
13, 4
9, 5
5, 7
6, 11
7, 8
4, 7
2, 8
4, 9
2, 6
8, 9
6, 5
4, 8
3, 5
3, 13
11, 2
3, 7
6, 4
5, 2
2, 3
5, 2
3, 6
2, 4
7, 4
1, 4
4, 3
5, 5
2, 4
7, 2
6, 4
5, 5
7, 4
5, 5
8, 2
5, 3
6, 2
3, 5
3, 5
6, 5
3, 8
4, 10
6, 15
3, 28
4, 25
7, 28
7, 33
5, 46
9, 45
7, 37
5, 41
7, 38
4, 35
5, 25
4, 21
5, 14
3, 8
3, 7
5, 6
4, 3
4, 7
4, 1
6, 7
3, 3
4, 4
3, 0
5, 5
3, 2
2, 3
2, 2
6, 1
3, 1
4, 4
3, 5
8, 5
7, 10
9, 6
6, 7
3, 6
5, 3
7, 13
4, 7
8, 7
3, 6
3, 10
7, 5
12, 11
9, 7
8, 6
10, 4
12, 1
3, 3
7, 7
10, 3
6, 0
2, 1
3, 5
1, 2
4, 4
1, 3
5, 2
3, 6
3, 6
3, 5
4, 4
2, 5
2, 3
9, 1
0, 2
3, 4
4, 2
5, 2
6, 3
5, 5
4, 5
7, 2
4, 1
3, 1
2, 0
2, 2
1, 5
3, 1
3, 1
2, 2
3, 1
1, 1
2, 2
0, 4
1, 3
4, 1
7, 9
4, 1
4, 8
5, 7
14, 2
7, 1
11, 6
9, 4
14, 1
19, 2
18, 2
10, 2
17, 4
14, 3
10, 1
13, 1
10, 3
9, 2
3, 1
7, 2
1, 3
3, 3
3, 1
5, 7
1, 3
2, 4
3, 3
3, 1
1, 5
4, 3
2, 2
2, 7
1, 3
0, 0
3, 4
5, 4
1, 5
1, 1
1, 5
1, 3
3, 4
3, 3
1, 2
1, 1
2, 4
1, 1
1, 2
1, 2
1, 2
2, 0
5, 2
2, 0
5, 2
2, 1
2, 2
0, 1
3, 0
1, 4
0, 1
3, 2
3, 1
1, 1
1, 2
2, 1
3, 4
6, 1
0, 1
3, 3
3, 0
0, 3
3, 3
2, 1
4, 2
2, 3
5, 2
1, 2
1, 3
2, 1
4, 1
5, 1
1, 1
2, 3
4, 5
1, 4
3, 1
3, 0
1, 3
2, 3
0, 1
1, 1
2, 1
1, 5
2, 2
0, 1
3, 3
0, 2
3, 1
3, 0
1, 1
0, 0
1, 3
1, 1
4, 2
2, 1
1, 0
1, 3
1, 0
1, 2
0, 1
1, 1
2, 0
1, 1
2, 1
1, 1
1, 2
1, 0
1, 2
1, 1
1, 2
2, 1
3, 2
1, 1
2, 1
3, 0
0, 0
1, 1
1, 0
0, 1
1, 1
1, 1
1, 0
0, 0
1, 3
0, 0
2, 0
1, 1
2, 2
1, 1
1, 1
3, 3
1, 0
0, 0
2, 2
1, 0
2, 0
4, 1
1, 2
1, 4
0, 0
1, 0
1, 1
1, 1
0, 0
0, 1
0, 0
0, 0
0, 3
1, 0
0, 0
0, 3
1, 2
1, 1
0, 1
1, 2
0, 0
0, 0
0, 1
0, 1
0, 0
1, 0
1, 0
0, 2
0, 0
1, 1
1, 1
1, 0
0, 1
0, 3
2, 0
1, 0
0, 1
0, 0
0, 2
2, 0
1, 0
2, 1
0, 0
1, 0
2, 2
0, 2
1, 0
1, 0
0, 0
0, 1
0, 1
2, 0
0, 0
0, 0
1, 0
3, 1
1, 0
0, 0
1, 0
1, 0
2, 0
1, 2
0, 0
1, 0
0, 0
2, 1
1, 1
0, 2
1, 1
0, 1
0, 2
0, 0
0, 0
1, 1
1, 1
1, 0
0, 0
0, 1
0, 0
0, 0
2, 2
0, 3
0, 0
0, 0
0, 1
0, 0
1, 0
0, 0
2, 0
0, 0
2, 0
0, 0
0, 0
0, 0
0, 1
0, 2
0, 0
0, 1
0, 0
0, 0
0, 0
1, 1
1, 0
1, 0
0, 0
0, 1
0, 0
0, 1
0, 0
0, 1
1, 0
0, 0
0, 1
0, 0
0, 1
0, 0
0, 0
0, 0
1, 0
1, 1
1, 0
0, 0
0, 0
0, 0
0, 0
0, 1
0, 0
0, 0
1, 0
0, 0
0, 0
1, 0
0, 0
0, 0
0, 0
0, 0
0, 0
0, 0
0, 0
0, 0
0, 0
1, 0
1, 0
0, 1
0, 0
1, 0
0, 0
0, 0
1, 0
0, 0
1, 0
0, 0
0, 0
1, 0
0, 0
1, 0
0, 0
1, 0
0, 0
0, 0
0, 0
0, 0
0, 1
1, 0
0, 0
0, 0
0, 0
0, 0
0, 0
0, 0
0, 0
0, 0
0, 0
1, 0
1, 0
0, 0
0, 2
0, 0
0, 0
1, 1
0, 0
0, 0
0, 0
0, 1
0, 0
0, 0
0, 0
0, 0
1, 0
0, 0
0, 0
0, 0
0, 0
0, 0
0, 0
0, 0
0, 0
0, 0
0, 0
0, 0
1, 0
0, 0
0, 0
0, 0
1, 1
0, 0
0, 0
0, 0
1, 0
0, 0
0, 0
0, 0
0, 0
1, 0
0, 0
0, 0
0, 0
0, 0
0, 0
0, 0
2, 0
0, 1
0, 0
0, 0
0, 0
1, 1
0, 0
0, 1
0, 0
0, 0
0, 0
0, 0
0, 0
0, 1
0, 0
1, 0
0, 0
0, 0
0, 0
0, 0
0, 0
0, 0
0, 0
0, 0
0, 0
0, 0
0, 0
0, 0
0, 0
0, 0
0, 1
0, 0
0, 0
0, 0
0, 0
0, 0
0, 0
0, 0
0, 0
0, 0
0, 0
0, 0
1, 0
0, 0
0, 0
0, 0
0, 0
0, 0
0, 1
0, 0
0, 0
0, 0
0, 0
0, 0
0, 0
0, 0
0, 0
0, 0
0, 0
0, 0
0, 0
0, 0
0, 0
1, 0
0, 0
0, 1
0, 0
0, 0
0, 0
0, 0
0, 0
0, 1
0, 0
0, 0
0, 0
0, 0
0, 0
0, 0
0, 0
0, 0
0, 0
0, 0
0, 0
0, 0
0, 0
0, 0
0, 0
0, 0
0, 0
0, 0
0, 0
0, 0
0, 0
0, 0
0, 0
0, 0
1, 0
0, 0
0, 0
1, 1
0, 0
0, 0
0, 0
0, 0
0, 1
0, 0
0, 0
0, 0
0, 0
0, 0
0, 0
0, 0
0, 0
0, 0
0, 0
0, 0
0, 0
0, 0
0, 0
0, 0
1, 0
0, 0
0, 0
0, 0
0, 0
0, 0
0, 0
0, 0
1, 0
0, 0
0, 0
1, 0
0, 0
0, 0
0, 0
0, 0
0, 0
0, 0
0, 0
0, 0
0, 0
0, 0
0, 0
0, 0
0, 0
0, 0
0, 0
0, 0
0, 0
0, 0
0, 0
0, 0
0, 0
0, 0
0, 0
0, 0
0, 0
0, 0
0, 0
0, 0
0, 0
0, 0
0, 0
0, 0
0, 0
0, 0
0, 0
0, 1
0, 0
0, 0
0, 0
0, 0
0, 0
0, 0
0, 0
0, 0
0, 0
0, 0
0, 0
0, 0
0, 0
0, 0
0, 0
0, 0
0, 0
0, 0
0, 0
0, 0
0, 0
0, 0
0, 0
1, 0
0, 0
0, 0
0, 0
0, 0
0, 0
0, 0
0, 0
0, 0
0, 0
0, 0
0, 0
0, 0
0, 0
0, 0
0, 0
0, 0
0, 0
0, 0
0, 0
0, 0
0, 0
0, 0
0, 0
0, 0
0, 0
0, 0
0, 0
0, 0
0, 0
0, 0
0, 0
0, 0
0, 0
0, 0
0, 0
0, 0
0, 0
0, 0
0, 0
0, 0
0, 0
0, 0
0, 0
0, 0
0, 0
0, 0
0, 0
0, 0
0, 0
0, 0
0, 0
0, 0
0, 0
0, 0
0, 0
0, 0
0, 0
0, 0
0, 0
0, 0
0, 0
0, 0
0, 0
0, 0
0, 0
0, 0
0, 0
0, 0
0, 0
0, 0
0, 0
0, 0
0, 0
0, 0
0, 0
0, 0
0, 0
0, 0
0, 0
0, 0
0, 0
0, 0
0, 0
0, 0
0, 0
0, 0
0, 0
0, 0
0, 0
0, 0
0, 0
0, 0
0, 0
0, 0
0, 0
0, 0
0, 0
0, 0
0, 0
0, 0
0, 0
0, 0
0, 0
0, 0
0, 0
0, 0
0, 0
0, 0
0, 0
0, 0
0, 0
0, 0
0, 0
0, 0
0, 0
0, 0
0, 0
0, 0
0, 0
0, 0
0, 0
0, 0
0, 0
0, 0
0, 0
0, 0
0, 0
0, 0
0, 0
0, 0
0, 0
0, 0
0, 0
0, 0
0, 0
0, 0
0, 0
0, 0
0, 0
0, 0
0, 0
0, 0
0, 0
0, 0
0, 0
0, 0
0, 0
0, 0
0, 0
0, 0
0, 0
0, 0
0, 0
0, 0
0, 0
0, 0
0, 0
0, 0
0, 0
0, 0
0, 0
0, 0
0, 0
0, 0
0, 0
0, 0
0, 0
0, 0
0, 0
0, 0
0, 0
0, 0
0, 0
0, 0
0, 0
0, 0
0, 0
0, 0
0, 0
0, 0
0, 0
0, 0
0, 0
0, 0
0, 0
0, 0
0, 0
0, 0
0, 0
0, 0
0, 0
0, 0
0, 0
0, 0
0, 0
0, 0
0, 0
0, 0
0, 0
0, 0
0, 0
0, 0
0, 0
0, 0
0, 0
0, 0
0, 0
0, 0
0, 0
0, 0
0, 0
0, 0
0, 0
0, 0
0, 0
0, 0
0, 0
0, 0
0, 0
0, 0
0, 0
0, 0
0, 0
0, 0
0, 0
0, 0
0, 0
0, 0
0, 0
0, 0
0, 0
0, 0
0, 0
0, 0
0, 0
0, 0
0, 0
0, 0
0, 0
0, 0
0, 0
0, 0
0, 0
0, 0
0, 0
0, 0
0, 0
0, 0
0, 0
0, 0
0, 0
0, 0
0, 0
0, 0
0, 0
0, 0
0, 0
0, 0
0, 0
0, 0
0, 0
0, 0
0, 0
0, 0
0, 0
0, 0
0, 0
0, 0
0, 0
0, 0
0, 0
0, 0
0, 0
0, 0
0, 0
0, 0
0, 0
0, 0
0, 0
0, 0
0, 0
0, 0
0, 0
0, 0
0, 0
0, 0
0, 0
0, 0
0, 0
0, 0
0, 0
0, 0
0, 0
0, 0
0, 0
0, 0
0, 0
0, 0
0, 0
0, 0
0, 0
0, 0
0, 0
0, 0
0, 0
0, 0
0, 0
0, 0
0, 0
0, 0
0, 0
0, 0
0, 0
0, 0
0, 0
0, 0
0, 0
0, 0
0, 0
0, 0
0, 0
0, 0
0, 0
0, 0
0, 0
0, 0
0, 0
0, 0
0, 0
#ENDOFDATA     end of spectrum data