File: host_upload/12-01-2023/Dourbes (shot-by-shot)/upload_4/ps__0257_0689790785_000rfs_shot_3092.msa
#FORMAT      : EMSA/MAS spectral data file
#VERSION     : TC202v2.0 PIXL
#TITLE       : N/A
#DATE        :       Date in the format DD-MMM-YYYY, for example 07-JUL-2010
#TIME        :             The time of day at which the spectrum was recorded, in 24-hour format
#OWNER       : PIXL Flight Model       (PIXL will use this to indicate which instrument took the data.)
#NPOINTS     : 4096     Number of data points in the spectrum (This can be zero for configuration only files)
#NCOLUMNS    : 2     Number of data columns in the spectrum (This can be zero for configuration only files)
#XUNITS      : eV
#YUNITS      : COUNTS
#DATATYPE    : YY
#XPERCHAN    : 7.862, 7.881   eV per channel (separate by commas if more than one detector)
#OFFSET      : 18.5, -22.4         eV of first channel  (separate by commas if more than one detector
#SIGNALTYPE  : XRF
#YP_TEMP     : 2.941
#LIVETIME    : 9.00764, 9.00591   seconds (separate by commas if more than one detector)
#REALTIME    : 10, 10.0   seconds (separate by commas if more than one detector)
#SPECTRUM    : start of spectrum data
0, 0
0, 0
0, 0
0, 0
0, 0
0, 0
0, 0
0, 0
0, 0
0, 0
0, 0
0, 0
0, 0
0, 0
0, 0
0, 0
0, 0
0, 0
0, 0
0, 0
0, 0
0, 0
0, 0
0, 0
0, 0
0, 0
0, 0
0, 0
0, 0
0, 0
0, 0
0, 0
0, 1
0, 0
0, 1
0, 0
1, 0
0, 0
0, 1
0, 0
1, 1
0, 2
3, 2
0, 1
1, 2
1, 0
2, 1
1, 0
2, 4
5, 5
11, 16
23, 28
40, 45
50, 33
55, 55
55, 43
40, 37
26, 20
19, 16
8, 10
5, 2
1, 2
2, 3
3, 6
2, 2
1, 3
3, 6
6, 4
11, 15
38, 31
78, 81
143, 144
267, 281
382, 392
466, 477
504, 517
418, 426
298, 283
175, 166
107, 96
57, 43
25, 34
16, 11
1, 2
8, 8
4, 3
5, 1
2, 1
4, 2
3, 4
4, 1
0, 1
1, 3
0, 0
0, 2
4, 2
2, 3
3, 4
8, 3
6, 7
1, 0
6, 2
2, 1
3, 4
4, 2
3, 2
2, 6
0, 5
5, 7
10, 6
9, 7
22, 7
20, 19
23, 22
32, 36
27, 51
30, 37
20, 25
22, 23
20, 9
28, 18
24, 13
21, 14
16, 14
9, 13
9, 13
15, 11
10, 9
9, 10
5, 7
3, 4
5, 4
2, 1
1, 1
4, 2
4, 4
2, 0
2, 4
1, 2
1, 3
3, 2
1, 2
5, 1
4, 1
4, 0
3, 3
0, 3
2, 0
3, 2
1, 3
7, 2
2, 2
2, 8
7, 17
13, 18
23, 24
28, 27
24, 32
27, 30
17, 26
14, 13
15, 19
15, 9
15, 11
14, 19
27, 31
31, 40
55, 28
62, 28
72, 39
56, 19
45, 21
42, 15
29, 7
17, 7
13, 4
8, 7
4, 4
5, 5
4, 2
4, 1
5, 6
2, 2
3, 3
3, 3
4, 7
6, 7
3, 3
6, 3
5, 4
7, 12
6, 8
7, 8
16, 15
13, 11
13, 15
22, 16
19, 16
20, 21
25, 14
14, 18
17, 14
8, 6
5, 9
12, 5
7, 8
6, 10
6, 13
5, 18
6, 19
5, 25
12, 23
4, 21
7, 16
7, 20
3, 22
9, 3
7, 11
5, 8
3, 4
5, 6
9, 5
7, 9
8, 7
8, 10
7, 6
5, 9
13, 16
11, 15
11, 12
10, 12
15, 11
9, 15
27, 11
16, 9
15, 11
19, 7
14, 10
10, 6
19, 11
18, 7
17, 6
11, 13
12, 15
19, 15
26, 26
37, 48
61, 74
75, 83
89, 97
113, 112
89, 110
99, 85
76, 101
58, 50
50, 40
28, 27
27, 28
28, 16
16, 26
22, 29
31, 33
53, 53
80, 117
169, 239
348, 412
693, 733
1076, 1324
1622, 2033
2452, 2839
3125, 3441
3703, 4060
3884, 4115
3648, 3604
3178, 2971
2469, 2333
1721, 1421
1079, 911
684, 526
345, 260
157, 127
68, 66
36, 33
22, 20
15, 15
20, 11
12, 31
18, 24
17, 21
14, 21
35, 29
40, 49
58, 72
93, 124
155, 163
230, 251
280, 353
392, 473
506, 547
525, 553
542, 556
526, 499
433, 384
320, 315
232, 183
155, 112
84, 61
45, 25
19, 17
11, 12
4, 11
5, 3
5, 9
5, 12
4, 8
7, 10
3, 9
7, 14
8, 10
5, 11
7, 7
6, 1
2, 4
5, 2
1, 1
3, 5
4, 1
3, 5
3, 9
1, 8
6, 8
5, 6
2, 10
4, 15
5, 12
3, 11
6, 6
2, 10
2, 6
5, 6
5, 4
4, 3
4, 1
6, 4
3, 5
6, 5
8, 4
5, 4
5, 5
4, 4
4, 3
11, 3
4, 4
3, 6
2, 5
1, 5
0, 10
1, 5
2, 6
2, 7
3, 6
5, 5
3, 4
4, 7
3, 5
3, 4
0, 7
3, 3
2, 4
2, 4
5, 6
2, 5
1, 4
4, 6
1, 5
2, 12
1, 5
3, 10
0, 7
2, 4
2, 7
2, 9
2, 9
1, 4
2, 8
2, 3
2, 1
3, 2
2, 2
1, 4
4, 3
5, 3
2, 4
6, 2
3, 1
1, 7
4, 9
3, 3
7, 3
1, 4
1, 2
5, 1
5, 3
4, 5
8, 7
6, 2
4, 2
8, 8
5, 2
3, 3
3, 2
2, 1
3, 1
2, 0
0, 3
5, 2
3, 4
1, 4
1, 3
2, 4
0, 5
2, 3
1, 3
3, 4
0, 6
0, 0
3, 2
0, 2
5, 1
5, 1
5, 5
3, 6
6, 2
6, 0
14, 1
2, 5
11, 1
8, 7
6, 2
11, 2
8, 2
13, 6
9, 2
5, 6
3, 1
2, 4
2, 5
3, 4
4, 3
1, 1
1, 1
0, 1
1, 2
1, 4
1, 0
1, 2
2, 0
2, 7
2, 5
1, 3
5, 7
2, 4
3, 3
2, 10
0, 9
2, 5
2, 4
1, 3
3, 3
1, 0
4, 2
2, 0
2, 1
3, 2
3, 2
2, 2
4, 0
1, 3
4, 3
2, 3
3, 8
1, 3
0, 3
1, 7
0, 3
2, 3
1, 2
3, 3
1, 2
1, 0
2, 0
1, 0
2, 1
1, 1
7, 2
2, 0
1, 0
3, 0
0, 2
3, 0
1, 0
1, 2
1, 3
4, 3
1, 1
4, 5
3, 1
3, 1
3, 2
1, 1
3, 3
2, 1
1, 1
1, 0
1, 2
1, 2
2, 2
0, 0
1, 4
2, 0
0, 4
0, 3
1, 0
1, 0
2, 1
0, 1
2, 2
0, 1
3, 1
2, 4
1, 2
1, 1
3, 2
3, 2
2, 1
4, 4
3, 6
3, 3
4, 9
2, 9
4, 6
8, 9
8, 5
5, 9
7, 12
5, 5
4, 10
4, 2
2, 4
3, 3
1, 2
0, 1
1, 3
1, 0
1, 2
3, 2
0, 3
2, 2
1, 1
0, 0
0, 0
2, 3
2, 2
1, 1
1, 1
4, 2
1, 3
1, 2
3, 2
3, 1
2, 2
3, 3
2, 0
0, 1
0, 0
1, 4
2, 0
0, 2
1, 0
2, 2
2, 1
1, 1
0, 1
1, 0
0, 2
0, 3
1, 2
1, 0
1, 1
1, 1
0, 0
1, 1
1, 4
1, 1
0, 2
1, 1
0, 0
2, 0
1, 1
5, 1
4, 0
6, 1
4, 1
2, 0
2, 0
3, 3
3, 3
4, 3
4, 2
0, 0
4, 0
0, 2
2, 1
1, 0
2, 0
2, 1
1, 2
0, 0
0, 2
4, 0
1, 1
2, 0
1, 1
1, 2
2, 0
3, 0
0, 0
0, 0
0, 1
0, 0
0, 1
0, 2
0, 0
0, 2
1, 0
1, 4
0, 1
1, 1
0, 1
1, 0
0, 0
1, 1
0, 0
0, 0
1, 2
0, 1
0, 1
2, 0
1, 0
0, 0
2, 1
1, 0
0, 0
0, 0
0, 0
1, 0
0, 0
0, 1
0, 2
0, 0
0, 0
0, 1
0, 2
0, 2
0, 1
0, 0
1, 2
1, 1
1, 1
0, 0
1, 0
1, 0
1, 0
0, 0
0, 0
0, 0
0, 1
0, 0
0, 1
0, 0
0, 1
1, 0
0, 0
0, 1
0, 0
0, 0
0, 1
0, 0
0, 0
0, 0
0, 0
2, 1
0, 0
0, 1
1, 0
0, 0
0, 0
0, 1
0, 0
0, 1
1, 0
0, 0
0, 2
1, 0
0, 0
0, 0
0, 0
0, 0
0, 2
0, 0
0, 0
0, 2
1, 0
0, 0
0, 0
0, 0
0, 0
0, 1
0, 1
0, 0
0, 0
0, 0
0, 1
0, 2
0, 1
0, 0
1, 0
0, 0
0, 0
0, 0
0, 0
0, 0
0, 0
1, 0
0, 0
0, 0
0, 0
0, 0
0, 0
0, 0
1, 0
0, 2
0, 0
0, 0
0, 0
0, 1
1, 0
0, 0
0, 0
0, 1
0, 0
0, 0
1, 0
1, 0
1, 0
1, 0
0, 0
0, 0
0, 0
0, 0
0, 0
0, 1
1, 0
0, 0
1, 0
0, 0
0, 0
1, 0
0, 0
0, 0
1, 0
0, 0
0, 0
0, 0
0, 0
0, 0
0, 0
0, 0
1, 0
2, 0
0, 0
0, 0
0, 1
0, 0
0, 1
0, 1
0, 1
0, 0
1, 0
0, 1
0, 0
0, 0
1, 0
0, 0
0, 1
0, 0
0, 0
1, 0
1, 0
1, 0
0, 0
0, 1
0, 0
0, 1
0, 2
0, 0
0, 1
0, 0
0, 0
0, 0
0, 0
0, 2
1, 0
0, 0
0, 0
0, 0
0, 0
0, 0
0, 0
0, 0
0, 0
0, 0
0, 0
0, 1
0, 1
0, 0
0, 0
0, 0
0, 0
1, 0
0, 0
0, 0
0, 0
0, 0
0, 0
0, 0
0, 0
0, 0
0, 0
0, 1
0, 0
0, 0
1, 0
0, 0
0, 0
0, 0
0, 0
0, 0
0, 1
0, 0
1, 1
1, 0
0, 0
0, 0
0, 0
0, 0
0, 0
0, 1
0, 0
0, 0
0, 0
0, 0
0, 0
0, 0
0, 0
0, 0
0, 0
1, 0
0, 0
0, 0
0, 0
1, 0
0, 0
0, 0
0, 1
0, 0
0, 0
1, 0
0, 0
0, 0
0, 0
0, 0
0, 0
0, 0
0, 0
0, 0
0, 1
0, 0
0, 0
0, 0
0, 0
0, 0
0, 0
1, 0
0, 0
0, 0
0, 0
0, 0
0, 0
0, 0
0, 0
0, 0
0, 0
0, 0
0, 0
0, 0
0, 0
0, 0
0, 0
0, 0
0, 0
0, 0
0, 0
0, 0
0, 0
0, 0
0, 0
0, 0
0, 0
0, 0
0, 0
0, 1
0, 0
0, 0
0, 0
0, 0
0, 0
0, 0
1, 0
0, 0
0, 0
0, 0
0, 0
0, 0
0, 0
0, 0
0, 0
0, 0
0, 0
0, 0
0, 0
0, 0
0, 0
0, 0
0, 0
0, 0
0, 0
0, 0
1, 0
0, 0
0, 0
0, 0
0, 1
0, 0
1, 0
0, 0
0, 0
0, 0
0, 0
0, 0
0, 0
0, 0
0, 0
1, 0
0, 0
0, 0
0, 0
0, 0
0, 0
0, 0
0, 0
0, 0
0, 0
0, 0
0, 0
0, 0
0, 0
0, 1
0, 0
0, 0
0, 0
0, 0
0, 0
0, 0
0, 0
0, 0
0, 0
0, 0
0, 0
0, 0
0, 0
0, 0
0, 0
0, 0
0, 0
0, 0
0, 0
0, 0
0, 0
0, 0
0, 0
0, 0
0, 0
0, 0
0, 0
0, 0
0, 0
0, 0
0, 0
0, 0
0, 0
0, 0
0, 0
0, 0
0, 0
0, 0
0, 0
0, 0
0, 0
0, 0
0, 0
0, 0
0, 0
0, 0
0, 0
0, 0
0, 0
0, 0
0, 0
0, 0
0, 0
0, 0
0, 0
0, 0
0, 0
0, 0
0, 0
0, 0
0, 0
0, 0
0, 0
0, 0
0, 0
0, 0
0, 0
0, 0
0, 0
0, 0
0, 0
0, 0
0, 0
0, 0
0, 0
0, 0
0, 0
0, 0
0, 0
0, 0
0, 0
0, 0
0, 0
0, 0
0, 0
0, 0
0, 0
0, 0
0, 0
0, 0
0, 0
0, 0
0, 0
0, 0
0, 0
0, 0
0, 0
0, 0
0, 0
0, 0
0, 0
0, 0
0, 0
0, 0
0, 0
0, 0
0, 0
0, 0
0, 0
0, 0
0, 0
0, 0
0, 0
0, 0
0, 0
0, 0
0, 0
0, 0
0, 0
0, 0
0, 0
0, 0
0, 0
0, 0
0, 0
0, 0
0, 0
0, 0
0, 0
0, 0
0, 0
0, 0
0, 0
0, 0
0, 0
0, 0
0, 0
0, 0
0, 0
0, 0
0, 0
0, 0
0, 0
0, 0
0, 0
0, 0
0, 0
0, 0
0, 0
0, 0
0, 0
0, 0
0, 0
0, 0
0, 0
0, 0
0, 0
0, 0
0, 0
0, 0
0, 0
0, 0
0, 0
0, 0
0, 0
0, 0
0, 0
0, 0
0, 0
0, 0
0, 0
0, 0
0, 0
0, 0
0, 0
0, 0
0, 0
0, 0
0, 0
0, 0
0, 0
0, 0
0, 0
0, 0
0, 0
0, 0
0, 0
0, 0
0, 0
0, 0
0, 0
0, 0
0, 0
0, 0
0, 0
0, 0
0, 0
0, 0
0, 0
0, 0
0, 0
0, 0
0, 0
0, 0
0, 0
0, 0
0, 0
0, 0
0, 0
0, 0
0, 0
0, 0
0, 0
0, 0
0, 0
0, 0
0, 0
0, 0
0, 0
0, 0
0, 0
0, 0
0, 0
0, 0
0, 0
0, 0
0, 0
0, 0
0, 0
0, 0
0, 0
0, 0
0, 0
0, 0
0, 0
0, 0
0, 0
0, 0
0, 0
0, 0
0, 0
0, 0
0, 0
0, 0
0, 0
0, 0
0, 0
0, 0
0, 0
0, 0
0, 0
0, 0
0, 0
0, 0
0, 0
0, 0
0, 0
0, 0
0, 0
0, 0
0, 0
0, 0
0, 0
0, 0
0, 0
0, 0
0, 0
0, 0
0, 0
0, 0
0, 0
0, 0
0, 0
0, 0
0, 0
0, 0
0, 0
0, 0
0, 0
0, 0
0, 0
0, 0
0, 0
0, 0
0, 0
0, 0
0, 0
0, 0
0, 0
0, 0
0, 0
0, 0
0, 0
0, 0
0, 0
0, 0
0, 0
0, 0
0, 0
0, 0
0, 0
0, 0
0, 0
0, 0
0, 0
0, 0
0, 0
0, 0
0, 0
0, 0
0, 0
0, 0
0, 0
0, 0
0, 0
0, 0
0, 0
0, 0
0, 0
0, 0
0, 0
0, 0
0, 0
0, 0
0, 0
0, 0
0, 0
0, 0
0, 0
0, 0
0, 0
0, 0
0, 0
0, 0
0, 0
0, 0
0, 0
0, 0
0, 0
0, 0
0, 0
0, 0
0, 0
0, 0
0, 0
0, 0
0, 0
0, 0
0, 0
0, 0
0, 0
0, 0
0, 0
0, 0
0, 0
0, 0
0, 0
0, 0
0, 0
0, 0
0, 0
0, 0
0, 0
0, 0
0, 0
0, 0
0, 0
0, 0
0, 0
0, 0
0, 0
0, 0
0, 0
0, 0
0, 0
0, 0
0, 0
0, 0
0, 0
0, 0
0, 0
0, 0
0, 0
0, 0
0, 0
0, 0
0, 0
0, 0
#ENDOFDATA     end of spectrum data