File: host_upload/12-01-2023/Dourbes (shot-by-shot)/upload_4/ps__0257_0689790785_000rfs_shot_3204.msa
#FORMAT      : EMSA/MAS spectral data file
#VERSION     : TC202v2.0 PIXL
#TITLE       : N/A
#DATE        :       Date in the format DD-MMM-YYYY, for example 07-JUL-2010
#TIME        :             The time of day at which the spectrum was recorded, in 24-hour format
#OWNER       : PIXL Flight Model       (PIXL will use this to indicate which instrument took the data.)
#NPOINTS     : 4096     Number of data points in the spectrum (This can be zero for configuration only files)
#NCOLUMNS    : 2     Number of data columns in the spectrum (This can be zero for configuration only files)
#XUNITS      : eV
#YUNITS      : COUNTS
#DATATYPE    : YY
#XPERCHAN    : 7.862, 7.881   eV per channel (separate by commas if more than one detector)
#OFFSET      : 18.5, -22.4         eV of first channel  (separate by commas if more than one detector
#SIGNALTYPE  : XRF
#YP_TEMP     : 3.069
#LIVETIME    : 9.16615, 9.1574   seconds (separate by commas if more than one detector)
#REALTIME    : 10, 10.0   seconds (separate by commas if more than one detector)
#SPECTRUM    : start of spectrum data
0, 0
0, 0
0, 0
0, 0
0, 0
0, 0
0, 0
0, 0
0, 0
0, 0
0, 0
0, 0
0, 0
0, 0
0, 0
0, 0
0, 0
0, 0
0, 0
0, 0
0, 0
0, 0
0, 0
0, 0
0, 0
0, 0
0, 0
0, 0
0, 0
0, 0
0, 0
0, 0
0, 0
0, 0
0, 1
0, 1
1, 0
2, 1
2, 4
3, 7
7, 4
4, 5
7, 3
4, 3
6, 3
4, 1
3, 1
1, 6
2, 7
4, 9
12, 8
19, 14
20, 32
32, 39
38, 36
29, 35
29, 14
12, 15
9, 7
21, 5
16, 15
25, 26
44, 57
48, 47
52, 74
50, 64
35, 49
33, 37
37, 31
55, 54
119, 116
225, 260
399, 429
593, 614
685, 758
734, 729
606, 640
466, 446
284, 272
144, 163
60, 83
25, 38
30, 26
17, 12
16, 14
16, 12
10, 13
10, 15
8, 14
8, 5
9, 6
4, 1
4, 7
15, 11
12, 14
35, 24
60, 36
67, 66
81, 74
76, 72
67, 60
49, 47
28, 30
29, 29
12, 11
15, 17
18, 24
23, 30
36, 46
75, 83
112, 135
140, 145
186, 161
219, 200
210, 190
214, 165
195, 149
171, 101
108, 77
89, 82
76, 62
62, 63
49, 55
40, 54
37, 39
30, 22
24, 23
16, 15
20, 12
9, 6
10, 7
7, 11
3, 6
5, 5
4, 5
8, 13
14, 18
33, 25
47, 41
47, 52
57, 85
60, 80
66, 66
53, 49
55, 30
21, 16
16, 11
19, 8
14, 3
16, 12
17, 15
30, 25
26, 24
48, 31
68, 77
77, 104
104, 100
102, 96
87, 113
82, 79
49, 65
28, 43
25, 37
11, 22
11, 18
6, 9
7, 7
4, 22
9, 23
21, 17
15, 11
9, 16
17, 31
16, 18
10, 10
7, 7
10, 5
9, 5
5, 8
4, 6
9, 9
4, 5
7, 2
4, 5
7, 7
5, 1
7, 10
13, 8
15, 20
12, 22
29, 31
23, 25
36, 28
27, 24
16, 29
25, 36
14, 38
11, 33
18, 29
8, 26
13, 27
5, 17
16, 27
6, 30
13, 41
12, 43
7, 37
12, 43
11, 38
13, 37
19, 39
9, 28
9, 23
12, 21
9, 20
15, 15
14, 16
14, 8
21, 9
24, 4
19, 3
31, 7
20, 12
36, 11
31, 8
34, 10
32, 4
32, 6
16, 13
21, 9
20, 14
16, 15
15, 14
15, 7
8, 6
15, 17
5, 3
5, 9
7, 11
12, 7
9, 13
14, 9
7, 5
10, 11
13, 12
12, 22
14, 23
23, 19
16, 27
26, 39
31, 54
36, 37
33, 34
27, 22
16, 21
18, 24
15, 18
11, 21
14, 14
8, 23
9, 24
15, 22
21, 25
27, 49
76, 104
118, 165
221, 336
419, 518
649, 851
904, 1140
1172, 1456
1412, 1520
1513, 1651
1365, 1485
1161, 1241
947, 832
609, 584
410, 378
243, 186
134, 110
92, 57
37, 34
21, 20
31, 17
21, 16
21, 17
29, 10
27, 19
32, 24
29, 15
39, 28
41, 30
37, 35
62, 57
83, 78
105, 105
135, 174
188, 203
200, 229
215, 281
240, 244
222, 230
161, 168
143, 129
110, 95
57, 54
51, 32
20, 32
15, 16
11, 17
14, 8
10, 6
12, 11
7, 12
6, 5
9, 6
11, 10
8, 8
13, 4
10, 5
15, 12
18, 6
13, 6
10, 4
13, 5
6, 5
9, 6
7, 11
8, 9
3, 9
11, 8
7, 16
2, 12
6, 5
8, 7
11, 11
1, 1
9, 11
3, 6
6, 8
5, 3
5, 3
8, 3
2, 7
7, 5
5, 2
13, 10
9, 8
4, 3
5, 9
6, 3
7, 9
6, 8
6, 12
5, 10
4, 6
3, 3
9, 5
4, 7
7, 3
4, 7
4, 4
8, 6
6, 7
5, 6
8, 5
8, 4
7, 5
2, 4
5, 10
10, 11
6, 3
8, 10
7, 4
7, 8
4, 8
6, 4
3, 5
5, 7
6, 5
5, 2
3, 4
12, 5
8, 3
7, 7
2, 2
7, 4
8, 4
4, 7
5, 5
9, 5
4, 7
8, 7
6, 6
1, 9
9, 7
6, 7
3, 4
6, 5
5, 8
6, 4
8, 12
15, 8
4, 2
4, 4
5, 4
5, 4
9, 6
3, 3
7, 7
4, 12
4, 2
5, 3
6, 4
9, 5
7, 5
7, 5
2, 8
7, 4
3, 3
4, 7
4, 8
5, 7
5, 8
5, 4
2, 6
7, 3
2, 4
3, 5
5, 8
3, 3
9, 9
3, 7
4, 3
3, 4
4, 4
3, 6
4, 3
6, 5
2, 6
5, 4
7, 2
7, 5
5, 6
11, 2
2, 4
6, 4
4, 2
4, 7
2, 5
3, 3
5, 4
7, 2
3, 2
9, 3
11, 4
4, 7
8, 5
9, 1
9, 4
11, 2
12, 4
5, 2
2, 7
7, 3
7, 7
3, 3
6, 4
6, 3
2, 1
1, 2
3, 2
4, 2
1, 2
7, 0
2, 4
4, 4
5, 5
2, 3
5, 4
2, 4
2, 5
4, 3
2, 4
2, 2
0, 6
1, 4
3, 3
1, 3
3, 4
2, 3
1, 3
4, 1
5, 1
3, 2
5, 8
2, 1
4, 3
5, 1
3, 2
3, 4
3, 1
3, 3
1, 0
5, 3
2, 4
1, 4
2, 4
2, 1
7, 2
1, 2
8, 1
4, 5
3, 1
2, 4
2, 5
6, 2
2, 3
2, 1
4, 0
4, 2
1, 1
4, 3
1, 4
3, 3
3, 3
2, 1
3, 1
3, 3
1, 1
1, 1
4, 0
0, 2
2, 2
2, 3
5, 3
2, 2
3, 2
4, 5
1, 1
2, 0
0, 5
5, 1
2, 4
1, 3
5, 3
2, 1
2, 1
1, 2
0, 3
1, 2
3, 0
2, 5
2, 3
1, 0
1, 3
1, 3
2, 3
2, 1
1, 2
2, 2
1, 2
4, 1
4, 3
0, 1
0, 2
2, 1
1, 1
0, 2
1, 1
4, 2
1, 2
1, 1
1, 2
1, 3
2, 0
0, 1
0, 1
2, 1
3, 2
1, 1
2, 1
2, 0
1, 0
1, 0
2, 0
2, 2
3, 0
2, 2
4, 1
0, 2
0, 2
0, 3
2, 1
1, 2
3, 0
0, 2
2, 1
2, 2
4, 1
0, 2
2, 1
0, 0
2, 2
1, 1
2, 0
2, 1
1, 2
0, 1
1, 1
0, 0
1, 0
1, 0
0, 0
1, 1
0, 2
1, 0
1, 1
2, 0
0, 0
0, 1
2, 1
2, 1
1, 0
1, 2
1, 1
0, 0
1, 0
1, 0
2, 1
1, 0
0, 1
1, 1
1, 1
0, 0
1, 0
3, 0
1, 1
0, 0
1, 0
0, 1
1, 1
0, 0
2, 1
0, 1
0, 0
0, 1
0, 0
0, 0
1, 0
2, 0
0, 1
1, 1
0, 0
1, 0
0, 0
0, 1
1, 2
1, 0
1, 0
0, 1
0, 1
1, 2
2, 1
0, 0
1, 1
2, 0
0, 0
1, 3
2, 0
0, 1
0, 1
1, 1
0, 1
1, 0
3, 0
0, 2
1, 0
0, 0
2, 0
0, 2
1, 1
0, 0
0, 0
2, 0
0, 1
0, 0
0, 0
1, 0
1, 1
0, 1
1, 0
1, 0
1, 1
0, 0
0, 1
0, 0
0, 1
0, 1
1, 0
0, 0
0, 0
0, 0
0, 1
0, 1
0, 0
2, 0
1, 0
0, 0
0, 1
0, 0
1, 0
1, 0
0, 0
1, 0
1, 0
0, 0
0, 0
0, 0
0, 0
0, 1
1, 1
0, 0
0, 0
0, 0
0, 0
0, 1
0, 1
0, 0
0, 0
0, 0
1, 0
0, 0
0, 0
0, 0
0, 0
0, 1
0, 0
0, 0
1, 0
0, 0
0, 0
1, 1
1, 0
2, 0
1, 0
0, 0
2, 0
0, 0
0, 0
1, 0
0, 0
0, 1
0, 0
0, 0
1, 0
1, 0
0, 0
1, 0
0, 0
0, 1
1, 0
0, 2
0, 0
0, 0
0, 0
0, 1
0, 0
0, 0
0, 0
0, 0
1, 1
0, 1
0, 0
1, 0
0, 0
1, 0
1, 0
0, 0
0, 0
0, 1
1, 0
1, 0
1, 1
0, 1
0, 0
0, 2
0, 1
0, 0
0, 0
1, 0
0, 2
0, 0
0, 0
0, 0
0, 0
0, 0
1, 0
0, 0
0, 0
0, 0
0, 0
0, 0
0, 0
0, 0
0, 0
0, 1
1, 0
0, 0
0, 0
0, 0
0, 0
0, 0
0, 0
0, 0
0, 0
0, 0
0, 0
0, 0
0, 0
0, 0
2, 0
0, 0
0, 0
0, 0
0, 0
0, 0
0, 0
0, 0
0, 1
0, 0
0, 0
0, 1
0, 0
0, 0
1, 0
0, 0
0, 0
0, 0
0, 0
0, 0
0, 0
0, 0
0, 0
1, 0
1, 0
0, 0
0, 1
0, 0
0, 0
0, 0
0, 0
0, 0
0, 0
0, 0
1, 0
0, 1
1, 0
2, 0
0, 0
2, 0
0, 0
2, 0
1, 0
0, 0
0, 0
2, 0
0, 0
0, 0
0, 0
0, 0
0, 0
0, 0
0, 0
0, 0
0, 0
0, 0
0, 0
0, 0
0, 0
0, 0
0, 0
0, 0
0, 0
0, 0
0, 0
0, 0
0, 0
0, 0
0, 0
0, 0
0, 0
0, 0
0, 0
1, 0
0, 0
0, 0
0, 0
0, 0
0, 0
0, 0
0, 0
0, 0
0, 0
0, 0
0, 0
0, 0
0, 0
0, 0
0, 0
0, 0
0, 0
0, 0
0, 0
0, 0
0, 0
0, 0
0, 0
0, 0
0, 0
0, 0
0, 0
0, 0
0, 0
0, 0
0, 1
0, 0
0, 0
0, 0
0, 0
0, 0
0, 0
0, 0
0, 0
0, 0
0, 0
0, 0
0, 0
0, 0
0, 0
0, 0
0, 0
0, 0
0, 0
0, 0
0, 0
0, 0
0, 0
0, 0
0, 0
0, 0
0, 0
0, 0
0, 0
0, 0
0, 0
0, 0
0, 0
0, 0
0, 0
0, 1
0, 0
0, 0
0, 0
0, 0
0, 0
0, 0
0, 0
0, 0
0, 0
0, 0
0, 0
0, 0
0, 0
0, 0
0, 0
0, 0
0, 0
0, 0
0, 0
0, 0
0, 0
0, 0
0, 0
0, 0
0, 0
0, 0
0, 0
0, 0
0, 0
0, 0
0, 0
0, 0
0, 0
0, 0
0, 0
0, 0
0, 0
0, 0
0, 0
0, 0
0, 0
0, 0
0, 0
0, 0
0, 0
0, 0
0, 0
0, 0
0, 0
0, 0
0, 0
0, 0
0, 0
0, 0
0, 0
0, 0
0, 0
0, 0
0, 0
0, 0
0, 0
0, 0
0, 0
0, 0
0, 0
0, 0
0, 0
0, 0
0, 0
0, 0
0, 0
0, 0
0, 0
0, 0
0, 0
0, 0
0, 0
0, 0
0, 0
0, 0
0, 0
0, 0
0, 0
0, 0
0, 0
0, 0
0, 0
0, 0
0, 0
0, 0
0, 0
0, 0
0, 0
0, 0
0, 0
0, 0
0, 0
0, 0
0, 0
0, 0
0, 0
0, 0
0, 0
0, 0
0, 0
0, 0
0, 0
0, 0
0, 0
0, 0
0, 0
0, 0
0, 0
0, 0
0, 0
0, 0
0, 0
0, 0
0, 0
0, 0
0, 0
0, 0
0, 0
0, 0
0, 0
0, 0
0, 0
0, 0
0, 0
0, 0
0, 0
0, 0
0, 0
0, 0
0, 0
0, 0
0, 0
0, 0
0, 0
0, 0
0, 0
0, 0
0, 0
0, 0
0, 0
0, 0
0, 0
0, 0
0, 0
0, 0
0, 0
0, 0
0, 0
0, 0
0, 0
0, 0
0, 0
0, 0
0, 0
0, 0
0, 0
0, 0
0, 0
1, 0
0, 0
0, 0
0, 0
0, 0
0, 0
0, 0
0, 0
0, 0
0, 0
0, 0
0, 0
0, 0
0, 0
0, 0
0, 0
0, 0
0, 0
0, 0
0, 0
0, 0
0, 0
0, 0
0, 0
0, 0
0, 0
0, 0
0, 0
0, 0
0, 0
0, 0
0, 0
0, 0
0, 0
0, 0
0, 0
0, 0
0, 0
0, 0
0, 0
0, 0
0, 0
0, 0
0, 0
0, 0
0, 0
0, 0
0, 0
0, 0
0, 0
0, 0
0, 0
0, 0
0, 0
0, 0
0, 0
0, 0
0, 0
0, 0
0, 0
0, 0
0, 0
0, 0
0, 0
0, 0
0, 0
0, 0
0, 0
0, 0
0, 0
0, 0
0, 0
0, 0
0, 0
0, 0
0, 0
0, 0
0, 0
0, 0
0, 0
0, 0
0, 0
0, 0
0, 0
0, 0
0, 0
0, 0
0, 0
0, 0
0, 0
0, 0
0, 0
0, 0
0, 0
0, 0
0, 0
0, 0
0, 0
0, 0
0, 0
0, 0
0, 0
0, 0
0, 0
0, 0
0, 0
0, 0
0, 0
0, 0
0, 0
0, 0
0, 0
0, 0
0, 0
0, 0
0, 0
0, 0
0, 0
0, 0
0, 0
0, 0
0, 0
0, 0
0, 0
0, 0
0, 0
0, 0
0, 0
0, 0
0, 0
0, 0
0, 0
0, 0
0, 0
0, 0
0, 0
0, 0
0, 0
0, 0
0, 0
0, 0
0, 0
0, 0
0, 0
0, 0
0, 0
0, 0
0, 0
0, 0
0, 0
0, 0
0, 0
0, 0
0, 0
0, 0
0, 0
0, 0
0, 0
0, 0
0, 0
0, 0
0, 0
0, 0
0, 0
0, 0
0, 0
0, 0
0, 0
0, 0
0, 0
0, 0
0, 0
0, 0
0, 0
0, 0
0, 0
0, 0
0, 0
0, 0
0, 0
0, 0
0, 0
0, 0
0, 0
0, 0
0, 0
0, 0
0, 0
0, 0
0, 0
0, 0
0, 0
0, 0
0, 0
0, 0
0, 0
0, 0
0, 0
0, 0
0, 0
0, 0
0, 0
0, 0
0, 0
0, 0
0, 0
0, 0
0, 0
0, 0
0, 0
0, 0
0, 0
0, 0
0, 0
0, 0
0, 0
0, 0
0, 0
0, 0
0, 0
0, 0
0, 0
0, 0
0, 0
0, 0
0, 0
0, 0
0, 0
0, 0
0, 0
0, 0
0, 0
0, 0
0, 0
0, 0
0, 0
0, 0
0, 0
0, 0
0, 0
0, 0
0, 0
#ENDOFDATA     end of spectrum data