File: host_upload/12-01-2023/Dourbes (shot-by-shot)/upload_4/ps__0257_0689790785_000rfs_shot_3228.msa
#FORMAT      : EMSA/MAS spectral data file
#VERSION     : TC202v2.0 PIXL
#TITLE       : N/A
#DATE        :       Date in the format DD-MMM-YYYY, for example 07-JUL-2010
#TIME        :             The time of day at which the spectrum was recorded, in 24-hour format
#OWNER       : PIXL Flight Model       (PIXL will use this to indicate which instrument took the data.)
#NPOINTS     : 4096     Number of data points in the spectrum (This can be zero for configuration only files)
#NCOLUMNS    : 2     Number of data columns in the spectrum (This can be zero for configuration only files)
#XUNITS      : eV
#YUNITS      : COUNTS
#DATATYPE    : YY
#XPERCHAN    : 7.862, 7.881   eV per channel (separate by commas if more than one detector)
#OFFSET      : 18.5, -22.4         eV of first channel  (separate by commas if more than one detector
#SIGNALTYPE  : XRF
#YP_TEMP     : 3.165
#LIVETIME    : 9.01847, 9.00865   seconds (separate by commas if more than one detector)
#REALTIME    : 10, 10.0   seconds (separate by commas if more than one detector)
#SPECTRUM    : start of spectrum data
0, 0
0, 0
0, 0
0, 0
0, 0
0, 0
0, 0
0, 0
0, 0
0, 0
0, 0
0, 0
0, 0
0, 0
0, 0
0, 0
0, 0
0, 0
0, 0
0, 0
0, 0
0, 0
0, 0
0, 0
0, 0
0, 0
0, 0
0, 0
0, 0
0, 0
0, 0
0, 0
1, 0
0, 0
1, 1
2, 1
0, 5
1, 1
4, 4
2, 3
2, 4
2, 5
5, 4
2, 5
6, 6
2, 5
2, 4
0, 3
3, 3
7, 8
13, 12
24, 15
23, 28
31, 38
44, 44
31, 42
30, 31
12, 16
9, 7
9, 5
9, 10
10, 11
16, 20
20, 30
23, 18
21, 24
17, 14
12, 17
30, 19
41, 35
91, 72
183, 185
301, 341
441, 502
517, 551
558, 558
457, 465
320, 329
197, 228
108, 115
59, 50
27, 31
16, 18
3, 3
6, 8
7, 8
4, 5
2, 1
2, 5
2, 1
0, 0
5, 0
3, 6
6, 7
22, 12
28, 35
35, 36
61, 60
72, 68
90, 65
60, 66
55, 52
37, 26
24, 30
14, 15
12, 21
18, 22
38, 35
53, 50
97, 94
130, 154
191, 169
180, 207
218, 258
197, 221
200, 203
159, 186
114, 137
112, 77
109, 84
81, 78
75, 59
47, 44
39, 39
43, 41
32, 33
26, 33
31, 30
20, 16
24, 21
7, 18
4, 9
7, 5
11, 6
5, 10
6, 5
6, 7
8, 9
7, 21
22, 18
13, 23
28, 24
25, 20
19, 16
16, 13
8, 5
4, 11
3, 2
7, 9
4, 4
10, 8
16, 12
17, 32
37, 37
49, 65
72, 81
85, 113
75, 97
88, 98
71, 70
42, 63
30, 34
20, 15
14, 10
9, 8
6, 3
9, 3
6, 7
8, 12
21, 16
16, 14
32, 19
19, 20
13, 19
12, 17
11, 15
10, 9
12, 10
10, 15
7, 11
3, 12
8, 7
7, 8
9, 13
7, 9
5, 12
10, 11
7, 11
7, 17
21, 21
17, 16
24, 17
16, 18
11, 34
20, 25
16, 22
20, 30
28, 21
35, 22
29, 16
20, 26
21, 18
13, 16
12, 11
12, 8
7, 9
15, 11
15, 9
12, 11
5, 20
11, 8
10, 8
8, 15
6, 15
12, 14
10, 14
15, 12
11, 18
10, 13
11, 13
14, 14
11, 13
8, 9
20, 25
12, 18
20, 22
8, 23
12, 28
15, 21
14, 40
11, 30
10, 34
15, 25
9, 24
7, 20
10, 24
14, 16
14, 9
14, 11
21, 18
13, 16
18, 17
17, 19
20, 24
30, 37
54, 25
53, 44
60, 77
84, 90
86, 117
95, 127
108, 110
77, 89
81, 64
49, 53
36, 51
36, 40
21, 23
27, 21
26, 20
21, 22
20, 43
52, 70
84, 102
166, 216
294, 390
549, 777
950, 1206
1505, 1884
2072, 2576
2745, 3356
3161, 3593
3286, 3654
3215, 3257
2674, 2579
2087, 1968
1436, 1280
909, 739
553, 441
292, 218
146, 134
88, 60
52, 32
40, 29
18, 27
26, 32
18, 25
23, 30
25, 28
24, 34
40, 39
46, 60
42, 75
94, 116
134, 152
187, 250
253, 342
331, 409
412, 485
439, 562
477, 500
414, 442
354, 340
276, 286
205, 188
139, 110
83, 66
43, 36
17, 20
13, 10
12, 10
6, 12
9, 4
6, 6
7, 8
7, 12
10, 7
6, 5
6, 13
9, 12
9, 10
6, 7
4, 7
7, 2
4, 9
4, 9
7, 7
9, 3
5, 8
2, 5
4, 7
4, 7
6, 3
6, 6
5, 4
4, 7
3, 4
4, 2
13, 2
3, 6
6, 8
9, 7
10, 7
5, 11
7, 10
6, 10
9, 7
9, 3
5, 3
5, 10
7, 4
6, 6
5, 4
3, 4
6, 6
6, 4
3, 2
4, 4
1, 5
7, 6
1, 4
2, 7
6, 10
7, 9
9, 10
6, 9
6, 6
3, 7
3, 6
5, 6
7, 9
6, 9
5, 7
1, 10
5, 8
4, 7
6, 11
3, 6
3, 9
3, 5
4, 13
2, 5
7, 5
5, 10
5, 7
3, 6
6, 6
2, 7
9, 5
6, 4
1, 4
5, 6
6, 3
1, 7
3, 3
2, 4
4, 6
2, 6
4, 6
5, 7
2, 4
2, 4
4, 5
4, 5
1, 4
3, 4
8, 9
5, 4
2, 8
7, 3
1, 2
8, 3
5, 7
8, 4
4, 4
4, 3
3, 4
2, 3
4, 4
3, 8
3, 5
3, 3
3, 4
3, 5
3, 3
4, 2
9, 3
4, 2
5, 3
11, 3
14, 4
9, 3
9, 4
8, 3
6, 8
4, 4
7, 0
6, 2
4, 2
4, 4
3, 3
3, 4
3, 2
3, 2
3, 4
0, 4
2, 1
3, 4
3, 1
3, 2
1, 2
4, 4
4, 1
1, 5
1, 2
2, 5
2, 5
3, 6
3, 6
2, 2
1, 6
1, 2
3, 2
4, 2
1, 4
3, 6
5, 6
1, 4
1, 6
0, 4
1, 1
3, 3
4, 3
1, 3
3, 4
2, 7
3, 1
3, 5
3, 5
3, 3
1, 2
4, 4
2, 6
3, 1
1, 2
3, 1
2, 2
0, 1
4, 3
3, 0
1, 0
1, 3
3, 4
2, 0
1, 3
1, 1
1, 2
2, 1
1, 1
2, 1
1, 3
2, 0
3, 5
4, 2
1, 1
4, 4
2, 1
2, 2
3, 3
1, 1
3, 2
4, 3
4, 2
3, 1
2, 1
1, 3
4, 0
4, 2
2, 2
0, 1
3, 1
4, 0
4, 4
7, 1
2, 0
0, 1
1, 0
1, 0
3, 1
1, 2
2, 3
3, 2
1, 2
4, 1
1, 1
4, 6
2, 5
4, 6
3, 8
7, 7
3, 7
4, 6
5, 7
3, 6
4, 3
5, 4
4, 3
1, 2
1, 2
2, 2
5, 1
1, 1
3, 0
0, 0
1, 0
0, 1
1, 1
0, 0
1, 2
0, 1
1, 1
0, 4
1, 1
2, 3
1, 0
0, 0
0, 1
3, 1
4, 2
1, 1
6, 4
4, 2
5, 1
0, 2
4, 1
2, 0
2, 0
2, 1
4, 1
3, 2
2, 1
0, 2
0, 2
2, 1
2, 1
1, 1
0, 1
1, 0
3, 0
1, 0
3, 1
0, 2
2, 1
4, 3
3, 2
0, 0
1, 1
2, 0
1, 1
1, 1
1, 0
0, 1
0, 1
1, 0
0, 0
1, 0
0, 0
0, 0
2, 0
2, 0
0, 1
1, 1
1, 3
1, 0
0, 2
2, 0
2, 2
2, 0
0, 1
0, 1
0, 1
0, 0
2, 1
1, 0
0, 0
5, 0
0, 0
0, 0
2, 0
1, 0
0, 0
0, 1
1, 1
1, 0
0, 2
0, 0
0, 3
0, 0
0, 0
2, 3
2, 0
2, 1
1, 0
2, 0
0, 0
1, 1
1, 0
2, 0
0, 0
0, 1
0, 1
0, 0
0, 0
0, 0
0, 0
0, 1
1, 1
0, 0
0, 1
0, 1
1, 0
0, 1
1, 0
0, 1
0, 0
0, 0
1, 0
0, 0
1, 0
2, 0
0, 1
1, 0
0, 1
0, 1
0, 0
0, 1
0, 0
0, 0
0, 0
1, 0
0, 0
1, 1
0, 1
1, 0
0, 0
0, 1
0, 0
1, 0
0, 0
0, 0
0, 0
1, 0
0, 2
0, 0
0, 1
0, 1
0, 0
0, 0
0, 0
0, 0
0, 0
0, 0
1, 0
0, 0
1, 0
0, 2
0, 0
1, 0
0, 0
0, 0
0, 0
0, 0
0, 0
0, 0
0, 0
1, 1
0, 0
0, 0
0, 1
0, 0
0, 1
1, 0
0, 0
0, 0
1, 0
0, 0
0, 0
0, 0
0, 0
0, 0
1, 0
0, 1
0, 1
0, 0
0, 1
0, 0
0, 0
0, 0
0, 0
0, 1
0, 0
0, 2
1, 0
1, 0
1, 0
0, 1
0, 0
0, 0
0, 0
0, 1
0, 0
1, 0
0, 1
0, 0
1, 0
0, 0
0, 0
0, 1
0, 0
0, 0
0, 0
0, 0
0, 0
0, 0
0, 0
0, 0
0, 0
0, 1
0, 0
0, 0
0, 0
0, 1
0, 0
0, 0
0, 0
0, 0
1, 0
0, 0
0, 0
0, 1
1, 0
2, 0
0, 2
0, 0
0, 0
0, 0
1, 0
0, 2
0, 0
1, 0
1, 0
1, 2
0, 0
1, 0
0, 1
0, 0
0, 0
0, 0
0, 0
0, 0
0, 0
2, 0
0, 0
0, 0
0, 0
0, 1
0, 0
0, 0
0, 0
0, 0
0, 0
0, 1
0, 0
0, 0
1, 0
0, 0
0, 0
0, 0
0, 0
0, 0
0, 0
0, 0
0, 0
0, 0
0, 0
0, 0
1, 0
0, 0
0, 0
0, 0
0, 0
0, 0
0, 0
0, 0
0, 0
1, 0
0, 0
0, 0
0, 0
0, 0
0, 0
1, 1
0, 0
1, 0
0, 0
0, 0
0, 0
0, 0
0, 0
0, 0
0, 1
0, 3
0, 0
0, 0
0, 1
0, 0
0, 0
0, 0
0, 1
0, 0
1, 2
0, 0
0, 0
0, 0
0, 1
0, 0
2, 0
0, 0
0, 0
0, 0
0, 0
1, 0
0, 0
0, 0
0, 0
0, 0
1, 0
0, 1
0, 0
0, 0
0, 0
0, 1
0, 1
0, 0
0, 0
0, 0
0, 0
0, 0
0, 0
1, 0
0, 0
0, 0
0, 0
0, 2
0, 0
0, 0
0, 0
0, 0
0, 0
0, 0
0, 0
0, 0
0, 1
0, 0
0, 0
0, 0
0, 0
0, 0
0, 0
0, 1
0, 0
0, 0
0, 0
0, 0
0, 0
0, 0
0, 0
0, 0
0, 0
0, 0
0, 0
0, 0
0, 0
0, 0
0, 0
0, 0
0, 0
0, 0
0, 0
0, 0
0, 0
0, 0
0, 0
0, 0
0, 0
0, 0
0, 0
0, 0
1, 0
0, 0
0, 0
0, 0
0, 0
0, 0
0, 0
0, 0
0, 0
0, 0
0, 0
0, 0
0, 0
0, 0
0, 0
0, 0
0, 0
0, 0
0, 0
1, 0
0, 0
0, 0
0, 0
0, 0
0, 0
0, 0
0, 0
0, 0
0, 0
0, 0
0, 0
0, 0
0, 0
0, 0
0, 0
0, 0
0, 0
0, 0
0, 0
0, 0
0, 0
0, 0
0, 0
0, 0
0, 0
0, 0
0, 0
0, 0
0, 0
0, 0
0, 0
0, 0
0, 0
0, 0
0, 0
0, 0
0, 0
0, 0
0, 0
0, 0
0, 0
0, 0
0, 0
0, 0
0, 0
0, 0
0, 0
0, 0
0, 0
0, 0
0, 0
0, 0
0, 0
0, 0
0, 0
0, 0
0, 0
0, 0
0, 0
0, 0
0, 0
0, 0
0, 0
0, 0
0, 0
0, 0
0, 0
0, 0
0, 0
0, 0
0, 0
0, 0
0, 0
0, 0
0, 0
0, 0
0, 0
0, 0
0, 0
0, 0
0, 0
0, 0
0, 0
0, 0
0, 0
0, 0
0, 0
0, 0
0, 0
0, 0
0, 0
0, 0
0, 0
0, 0
0, 0
0, 0
0, 0
0, 0
0, 0
0, 0
0, 0
0, 0
0, 0
0, 0
0, 0
0, 0
0, 0
0, 0
0, 0
0, 0
0, 0
0, 0
0, 0
0, 0
0, 0
0, 0
0, 0
0, 0
0, 0
0, 0
0, 0
0, 0
0, 0
0, 0
0, 0
0, 0
0, 0
0, 0
0, 0
0, 0
0, 0
0, 0
0, 0
0, 0
0, 0
0, 0
0, 0
0, 0
0, 0
0, 0
0, 0
0, 0
0, 0
0, 0
0, 1
0, 0
0, 0
0, 0
0, 0
0, 0
0, 0
0, 0
0, 0
0, 0
0, 0
0, 0
0, 0
0, 0
0, 0
0, 0
0, 0
0, 0
0, 0
0, 0
0, 0
0, 0
0, 0
0, 0
0, 0
0, 0
0, 0
0, 0
0, 0
0, 0
0, 0
0, 0
0, 0
0, 0
0, 0
0, 0
0, 0
0, 0
0, 0
0, 0
0, 0
0, 0
0, 0
0, 0
0, 0
0, 0
0, 0
0, 0
0, 0
0, 0
0, 0
0, 0
0, 0
0, 0
0, 0
0, 0
0, 0
0, 0
0, 0
0, 0
0, 0
0, 0
0, 0
0, 0
0, 0
0, 0
0, 0
0, 0
0, 0
0, 0
0, 0
0, 0
0, 0
0, 0
0, 0
0, 0
0, 0
0, 0
0, 0
0, 0
0, 0
0, 0
0, 0
0, 0
0, 0
0, 0
0, 0
0, 0
0, 0
0, 0
0, 0
0, 0
0, 0
0, 0
0, 0
0, 0
0, 0
0, 0
0, 0
0, 0
0, 0
0, 0
0, 0
0, 0
0, 0
0, 0
0, 0
0, 0
0, 0
0, 0
0, 0
0, 0
0, 0
0, 0
0, 0
0, 0
0, 0
0, 0
0, 0
0, 0
0, 0
0, 0
0, 0
0, 0
0, 0
0, 0
0, 0
0, 0
0, 0
0, 0
0, 0
0, 0
0, 0
0, 0
0, 0
0, 0
0, 0
0, 0
0, 0
0, 0
0, 0
0, 0
0, 0
0, 0
0, 0
0, 0
0, 0
0, 0
0, 0
0, 0
0, 0
0, 0
0, 0
0, 0
0, 0
0, 0
0, 0
0, 0
0, 0
0, 0
0, 0
0, 0
0, 0
0, 0
0, 0
0, 0
0, 0
0, 0
0, 0
0, 0
0, 0
0, 0
0, 0
0, 0
0, 0
0, 0
0, 0
0, 0
0, 0
0, 0
0, 0
0, 0
0, 0
0, 0
0, 0
0, 0
0, 0
0, 0
0, 0
0, 0
0, 0
0, 0
0, 0
0, 0
0, 0
0, 0
0, 0
0, 0
0, 0
0, 0
0, 0
0, 0
0, 0
0, 0
0, 0
0, 0
0, 0
0, 0
0, 0
0, 0
0, 0
0, 0
0, 0
0, 0
0, 0
0, 0
0, 0
0, 0
0, 0
0, 0
0, 0
0, 0
0, 0
0, 0
0, 0
0, 0
0, 0
0, 0
0, 0
0, 0
0, 0
0, 0
0, 0
0, 0
0, 0
0, 0
0, 0
0, 0
0, 0
0, 0
0, 0
0, 0
0, 0
0, 0
0, 0
0, 0
0, 0
0, 0
0, 0
0, 0
0, 0
0, 0
0, 0
0, 0
0, 0
0, 0
0, 0
0, 0
0, 0
0, 0
0, 0
0, 0
0, 0
0, 0
#ENDOFDATA     end of spectrum data