File: host_upload/12-01-2023/Dourbes (shot-by-shot)/upload_4/ps__0257_0689790785_000rfs_shot_3161.msa
#FORMAT      : EMSA/MAS spectral data file
#VERSION     : TC202v2.0 PIXL
#TITLE       : N/A
#DATE        :       Date in the format DD-MMM-YYYY, for example 07-JUL-2010
#TIME        :             The time of day at which the spectrum was recorded, in 24-hour format
#OWNER       : PIXL Flight Model       (PIXL will use this to indicate which instrument took the data.)
#NPOINTS     : 4096     Number of data points in the spectrum (This can be zero for configuration only files)
#NCOLUMNS    : 2     Number of data columns in the spectrum (This can be zero for configuration only files)
#XUNITS      : eV
#YUNITS      : COUNTS
#DATATYPE    : YY
#XPERCHAN    : 7.862, 7.881   eV per channel (separate by commas if more than one detector)
#OFFSET      : 18.5, -22.4         eV of first channel  (separate by commas if more than one detector
#SIGNALTYPE  : XRF
#YP_TEMP     : 3.262
#LIVETIME    : 8.98952, 9.00041   seconds (separate by commas if more than one detector)
#REALTIME    : 10, 10.0   seconds (separate by commas if more than one detector)
#SPECTRUM    : start of spectrum data
0, 0
0, 0
0, 0
0, 0
0, 0
0, 0
0, 0
0, 0
0, 0
0, 0
0, 0
0, 0
0, 0
0, 0
0, 0
0, 0
0, 0
0, 0
0, 0
0, 0
0, 0
0, 0
0, 0
0, 0
0, 0
0, 0
0, 0
0, 0
0, 0
0, 0
0, 0
0, 0
0, 0
0, 0
0, 0
0, 0
1, 0
0, 2
1, 1
1, 3
2, 1
5, 2
0, 0
0, 1
3, 1
2, 0
2, 2
4, 1
3, 4
7, 6
16, 9
37, 22
45, 32
51, 52
49, 51
68, 49
36, 29
25, 23
16, 10
11, 6
7, 4
5, 1
1, 3
3, 1
5, 4
6, 10
7, 5
11, 10
9, 12
42, 27
76, 67
176, 140
252, 260
403, 349
515, 433
488, 470
434, 360
301, 236
194, 156
97, 85
46, 45
25, 23
20, 9
8, 11
8, 6
7, 4
9, 3
4, 4
3, 5
2, 1
3, 4
2, 3
0, 0
3, 1
8, 5
3, 2
4, 6
8, 3
11, 11
9, 5
3, 5
4, 7
3, 4
5, 2
8, 2
5, 3
9, 8
7, 7
10, 7
15, 14
30, 25
31, 30
46, 40
56, 52
66, 70
69, 50
73, 74
56, 52
42, 43
34, 21
25, 38
26, 46
18, 37
29, 35
21, 39
15, 31
10, 29
14, 25
9, 23
6, 14
4, 2
7, 4
6, 3
6, 4
6, 0
6, 7
4, 1
4, 7
1, 2
5, 2
1, 3
2, 0
2, 2
1, 2
5, 5
1, 3
4, 3
3, 3
6, 1
4, 6
5, 4
5, 4
16, 8
18, 17
27, 23
23, 25
36, 38
31, 33
40, 24
21, 26
25, 16
16, 15
7, 13
7, 3
8, 6
5, 8
9, 8
6, 5
8, 6
7, 9
7, 7
9, 7
12, 6
4, 13
7, 13
11, 11
8, 8
4, 10
10, 6
11, 4
7, 5
5, 8
8, 3
3, 6
8, 11
8, 15
8, 16
13, 31
26, 43
32, 56
26, 78
28, 80
28, 63
26, 71
25, 64
20, 55
22, 42
38, 36
28, 29
33, 36
32, 22
22, 19
14, 10
19, 12
13, 8
16, 5
14, 4
10, 6
4, 8
6, 2
7, 13
8, 10
11, 8
12, 7
11, 8
7, 12
9, 7
1, 6
10, 7
6, 9
3, 0
6, 11
7, 8
7, 13
12, 11
14, 9
10, 16
13, 10
11, 11
20, 12
32, 14
18, 9
16, 12
17, 13
13, 11
16, 8
8, 17
12, 9
9, 8
7, 13
10, 4
10, 19
7, 22
18, 29
17, 30
37, 40
46, 52
62, 70
76, 89
77, 90
111, 115
98, 101
98, 99
84, 72
64, 46
58, 40
36, 31
25, 27
22, 26
12, 33
26, 32
30, 53
40, 75
91, 130
200, 238
381, 417
680, 839
1138, 1268
1896, 2059
2545, 2759
3336, 3469
3756, 3879
4037, 3794
3815, 3356
3250, 2882
2507, 2104
1761, 1369
1154, 771
678, 477
373, 217
178, 117
108, 59
30, 36
25, 23
16, 26
21, 18
22, 22
28, 17
22, 18
38, 21
25, 27
50, 52
73, 71
91, 92
155, 173
215, 234
316, 347
422, 414
500, 478
518, 548
561, 538
556, 505
440, 379
335, 291
242, 187
159, 117
94, 60
47, 39
31, 21
27, 9
11, 4
6, 4
4, 7
3, 5
9, 5
7, 5
13, 5
5, 8
4, 7
16, 4
13, 5
9, 8
14, 5
6, 4
19, 5
7, 7
7, 8
4, 10
1, 5
5, 4
6, 8
7, 11
3, 14
3, 11
4, 15
4, 9
6, 4
3, 7
8, 3
5, 5
5, 3
3, 4
7, 3
6, 6
2, 6
4, 2
6, 8
7, 5
5, 1
10, 6
4, 2
5, 6
5, 7
5, 6
3, 1
2, 4
8, 2
1, 3
3, 4
0, 1
1, 3
4, 2
3, 9
3, 0
3, 4
2, 5
2, 2
3, 3
3, 1
5, 2
5, 4
4, 3
3, 6
4, 6
3, 4
3, 4
3, 6
3, 4
6, 7
9, 5
7, 2
1, 3
2, 3
2, 1
1, 3
5, 2
3, 6
5, 4
6, 4
1, 1
4, 1
7, 2
6, 5
0, 2
4, 1
7, 4
0, 5
2, 7
2, 2
5, 8
5, 5
7, 8
1, 5
6, 11
0, 2
2, 11
0, 5
2, 5
4, 2
6, 6
3, 2
4, 4
4, 1
3, 2
4, 5
0, 2
6, 0
10, 1
6, 0
4, 4
7, 1
3, 3
2, 2
5, 1
1, 5
2, 3
4, 4
0, 4
3, 2
0, 3
2, 0
3, 1
0, 1
1, 2
1, 2
1, 3
1, 1
5, 2
4, 3
4, 2
1, 2
0, 1
2, 2
9, 1
5, 3
3, 0
5, 0
5, 4
1, 1
3, 3
5, 1
2, 3
2, 5
4, 3
4, 3
7, 3
4, 3
4, 2
2, 4
3, 1
6, 4
4, 1
5, 4
6, 1
5, 1
2, 1
3, 3
2, 3
8, 1
2, 0
4, 2
3, 1
0, 2
3, 2
1, 1
5, 0
2, 3
5, 1
3, 4
3, 0
2, 2
1, 3
1, 3
1, 3
5, 2
3, 1
0, 0
2, 1
3, 2
0, 3
0, 3
1, 2
2, 0
2, 1
3, 2
0, 1
1, 0
2, 1
2, 1
3, 3
0, 3
2, 0
1, 5
0, 0
2, 3
2, 1
2, 0
2, 2
2, 2
2, 2
1, 1
4, 0
2, 3
2, 1
1, 0
2, 1
2, 1
3, 0
3, 4
2, 6
4, 4
3, 3
2, 4
4, 6
1, 3
1, 5
4, 3
2, 3
1, 4
4, 3
1, 2
1, 1
4, 1
2, 3
3, 3
2, 1
5, 2
4, 2
4, 10
3, 5
6, 8
8, 2
5, 8
5, 10
4, 6
4, 3
2, 4
11, 4
5, 4
0, 2
2, 0
0, 2
1, 2
0, 0
1, 1
1, 0
1, 2
0, 1
0, 2
1, 3
1, 1
2, 2
0, 2
4, 0
2, 1
0, 3
2, 3
6, 4
2, 3
1, 1
6, 3
1, 4
4, 2
2, 1
1, 2
1, 2
0, 1
1, 1
0, 1
2, 1
1, 1
1, 2
3, 0
1, 1
0, 0
1, 0
0, 0
0, 1
2, 2
1, 0
1, 0
3, 1
0, 1
1, 1
0, 2
0, 0
3, 1
0, 1
0, 1
0, 1
3, 1
0, 0
1, 0
1, 2
0, 0
0, 0
1, 1
2, 0
2, 0
1, 0
0, 0
2, 0
1, 0
0, 1
0, 2
2, 0
0, 0
0, 0
0, 0
1, 1
1, 1
1, 2
2, 1
0, 0
1, 0
1, 1
1, 0
0, 1
2, 1
1, 0
1, 0
2, 1
1, 0
0, 1
0, 0
1, 0
0, 1
0, 1
1, 1
0, 1
1, 1
0, 1
1, 1
0, 1
0, 1
1, 1
0, 0
1, 1
0, 1
1, 0
1, 0
0, 1
1, 0
0, 0
0, 0
0, 0
0, 1
1, 0
0, 0
0, 0
0, 1
0, 0
0, 0
0, 1
0, 2
1, 0
0, 1
0, 0
0, 1
0, 0
2, 1
0, 0
0, 0
1, 0
0, 0
1, 0
1, 0
0, 0
2, 0
0, 0
0, 1
1, 0
0, 0
0, 0
0, 2
0, 0
3, 0
0, 1
0, 0
0, 0
0, 1
1, 0
2, 0
0, 0
0, 0
0, 0
0, 0
1, 0
0, 1
1, 0
0, 0
1, 1
0, 0
0, 2
0, 0
1, 0
2, 1
1, 1
0, 2
0, 1
0, 0
0, 0
1, 0
0, 0
0, 0
0, 0
1, 0
2, 0
0, 0
0, 0
0, 0
0, 0
0, 0
0, 1
0, 0
0, 0
0, 1
0, 0
0, 1
0, 0
3, 1
0, 0
0, 0
0, 0
0, 0
0, 1
1, 1
0, 0
0, 1
0, 0
0, 1
3, 1
0, 0
0, 0
0, 0
0, 0
0, 0
0, 0
0, 1
0, 0
0, 0
0, 1
0, 0
0, 0
0, 1
0, 1
1, 0
0, 1
0, 2
0, 0
0, 0
0, 0
1, 0
0, 0
0, 0
0, 0
0, 0
1, 0
0, 0
0, 0
0, 0
1, 0
0, 0
0, 1
1, 0
0, 0
0, 0
0, 0
1, 0
0, 0
1, 0
0, 1
0, 1
0, 1
0, 1
0, 1
0, 0
0, 0
1, 0
0, 1
0, 0
0, 0
0, 0
0, 2
0, 0
2, 1
0, 0
0, 0
0, 0
0, 0
0, 1
0, 0
0, 1
0, 0
0, 0
0, 0
0, 1
0, 0
0, 0
0, 0
1, 0
0, 0
1, 0
0, 0
0, 0
0, 0
0, 0
1, 0
0, 0
0, 0
1, 0
0, 0
1, 0
0, 0
0, 0
0, 0
0, 0
0, 0
0, 0
0, 0
0, 0
0, 0
1, 0
0, 0
0, 0
0, 0
0, 0
0, 0
0, 0
0, 0
0, 0
0, 0
0, 0
0, 0
0, 0
0, 0
0, 0
0, 0
0, 0
0, 0
0, 0
0, 0
1, 0
0, 0
0, 0
0, 0
1, 0
0, 0
0, 0
0, 0
0, 0
0, 0
0, 0
0, 0
0, 0
0, 0
0, 0
0, 0
0, 0
0, 0
0, 0
1, 0
0, 0
0, 0
0, 0
0, 0
0, 0
0, 0
0, 0
0, 0
0, 0
0, 0
0, 0
0, 0
0, 0
0, 0
0, 0
0, 0
0, 0
0, 0
0, 0
0, 0
0, 0
0, 0
0, 0
0, 0
0, 0
0, 1
0, 0
0, 0
0, 0
0, 0
0, 0
0, 0
0, 1
0, 0
0, 0
0, 0
0, 0
0, 0
0, 0
0, 0
0, 0
0, 0
0, 0
0, 0
0, 0
0, 0
0, 0
0, 0
0, 0
0, 0
0, 0
0, 0
0, 0
0, 0
1, 0
0, 0
0, 0
0, 0
1, 0
0, 0
0, 0
0, 0
0, 0
0, 0
0, 1
0, 0
0, 0
0, 0
0, 0
0, 0
0, 0
1, 0
0, 0
0, 0
0, 0
0, 0
0, 1
0, 0
0, 0
0, 0
0, 0
0, 1
0, 0
0, 0
0, 0
0, 0
0, 0
0, 0
0, 0
0, 0
0, 0
0, 0
0, 0
0, 0
0, 0
0, 0
0, 0
0, 0
0, 0
0, 0
0, 0
0, 0
0, 0
0, 0
0, 0
0, 0
0, 0
0, 0
0, 0
0, 0
0, 0
0, 0
0, 0
0, 0
0, 0
0, 0
0, 0
0, 0
0, 0
0, 0
0, 0
0, 0
0, 0
0, 0
0, 0
0, 0
0, 0
0, 0
1, 0
0, 0
0, 0
0, 0
0, 0
0, 0
0, 0
0, 0
0, 0
0, 0
0, 0
0, 0
0, 0
0, 0
0, 0
0, 0
0, 0
0, 0
0, 0
0, 0
0, 0
0, 0
0, 0
0, 0
0, 0
0, 0
0, 0
0, 0
0, 0
0, 0
0, 0
0, 0
0, 0
0, 0
0, 0
0, 0
0, 0
0, 0
0, 0
0, 0
0, 0
0, 0
0, 0
0, 0
0, 0
0, 0
0, 0
0, 0
0, 0
0, 0
0, 0
0, 0
0, 0
0, 0
0, 0
0, 0
0, 0
0, 0
0, 0
0, 0
0, 0
0, 0
0, 0
0, 0
0, 0
0, 0
0, 0
0, 0
0, 0
0, 0
0, 0
0, 0
0, 0
0, 0
0, 0
0, 0
0, 0
0, 0
0, 0
0, 0
0, 0
0, 0
0, 0
0, 0
0, 0
0, 0
0, 0
0, 0
0, 0
0, 0
0, 0
0, 0
0, 0
0, 0
0, 0
0, 0
0, 0
0, 0
0, 0
0, 0
0, 0
0, 0
0, 0
0, 0
0, 0
0, 0
0, 0
0, 0
0, 0
0, 0
0, 0
0, 0
0, 0
0, 0
0, 0
0, 0
0, 0
0, 0
0, 0
0, 0
0, 0
0, 0
0, 0
0, 0
0, 0
0, 0
0, 0
0, 0
0, 0
0, 0
0, 0
0, 0
0, 0
0, 0
0, 0
0, 0
0, 0
0, 0
0, 0
0, 0
0, 0
0, 0
0, 0
0, 0
0, 0
0, 0
0, 0
0, 0
0, 0
0, 0
0, 0
0, 0
0, 0
0, 0
0, 0
0, 0
0, 0
0, 0
0, 0
0, 0
0, 0
0, 0
0, 0
0, 0
0, 0
0, 0
0, 0
0, 0
0, 0
0, 0
0, 0
0, 0
0, 0
0, 0
0, 0
0, 0
0, 0
0, 0
0, 0
0, 0
0, 0
0, 0
0, 0
0, 0
0, 0
0, 0
0, 0
0, 0
0, 0
0, 0
0, 0
0, 0
0, 0
0, 0
0, 0
0, 0
0, 0
0, 0
0, 0
0, 0
0, 0
0, 0
0, 0
0, 0
0, 0
0, 0
0, 0
0, 0
0, 0
0, 0
0, 0
0, 0
0, 0
0, 0
0, 0
0, 0
0, 0
0, 0
0, 0
0, 0
0, 0
0, 0
0, 0
0, 0
0, 0
0, 0
0, 0
0, 0
0, 0
0, 0
0, 0
0, 0
0, 0
0, 0
0, 0
0, 0
0, 0
0, 0
0, 0
0, 0
0, 0
0, 0
0, 0
0, 0
0, 0
0, 0
0, 0
0, 0
0, 0
0, 0
0, 0
0, 0
0, 0
0, 0
0, 0
0, 0
0, 0
0, 0
0, 0
0, 0
0, 0
0, 0
0, 0
0, 0
0, 0
0, 0
0, 0
0, 0
0, 0
0, 0
0, 0
0, 0
0, 0
0, 0
0, 0
0, 0
0, 0
0, 0
0, 0
0, 0
0, 0
0, 0
0, 0
0, 0
0, 0
0, 0
0, 0
0, 0
0, 0
0, 0
0, 0
0, 0
0, 0
0, 0
0, 0
0, 0
0, 0
0, 0
0, 0
0, 0
0, 0
0, 0
0, 0
0, 0
0, 0
0, 0
0, 0
0, 0
0, 0
0, 0
0, 0
0, 0
0, 0
0, 0
0, 0
0, 0
0, 0
0, 0
0, 0
0, 0
0, 0
0, 0
0, 0
0, 0
0, 0
0, 0
0, 0
0, 0
0, 0
0, 0
0, 0
0, 0
0, 0
0, 0
0, 0
0, 0
0, 0
0, 0
0, 0
0, 0
0, 0
0, 0
0, 0
0, 0
0, 0
0, 0
0, 0
0, 0
0, 0
0, 0
0, 0
0, 0
0, 0
0, 0
0, 0
0, 0
0, 0
0, 0
0, 0
0, 0
0, 0
0, 0
0, 0
0, 0
0, 0
0, 0
#ENDOFDATA     end of spectrum data