File: host_upload/12-01-2023/Dourbes (shot-by-shot)/upload_4/ps__0257_0689790785_000rfs_shot_3166.msa
#FORMAT      : EMSA/MAS spectral data file
#VERSION     : TC202v2.0 PIXL
#TITLE       : N/A
#DATE        :       Date in the format DD-MMM-YYYY, for example 07-JUL-2010
#TIME        :             The time of day at which the spectrum was recorded, in 24-hour format
#OWNER       : PIXL Flight Model       (PIXL will use this to indicate which instrument took the data.)
#NPOINTS     : 4096     Number of data points in the spectrum (This can be zero for configuration only files)
#NCOLUMNS    : 2     Number of data columns in the spectrum (This can be zero for configuration only files)
#XUNITS      : eV
#YUNITS      : COUNTS
#DATATYPE    : YY
#XPERCHAN    : 7.862, 7.881   eV per channel (separate by commas if more than one detector)
#OFFSET      : 18.5, -22.4         eV of first channel  (separate by commas if more than one detector
#SIGNALTYPE  : XRF
#YP_TEMP     : 3.133
#LIVETIME    : 9.00359, 9.01069   seconds (separate by commas if more than one detector)
#REALTIME    : 10, 10.0   seconds (separate by commas if more than one detector)
#SPECTRUM    : start of spectrum data
0, 0
0, 0
0, 0
0, 0
0, 0
0, 0
0, 0
0, 0
0, 0
0, 0
0, 0
0, 0
0, 0
0, 0
0, 0
0, 0
0, 0
0, 0
0, 0
0, 0
0, 0
0, 0
0, 0
0, 0
0, 0
0, 0
0, 0
0, 0
0, 0
0, 0
0, 0
0, 0
0, 0
0, 0
1, 0
0, 1
1, 0
1, 2
0, 1
0, 2
1, 0
1, 3
3, 3
0, 2
0, 0
3, 0
4, 0
2, 0
3, 4
4, 3
13, 10
22, 15
37, 36
58, 38
49, 62
47, 41
32, 34
26, 25
13, 4
2, 7
3, 5
4, 4
4, 6
6, 5
7, 11
7, 7
10, 7
6, 8
23, 7
41, 29
78, 82
199, 141
310, 309
453, 417
551, 510
570, 498
499, 412
359, 290
219, 187
136, 104
52, 52
32, 38
16, 8
11, 11
3, 3
4, 2
3, 2
4, 4
3, 1
2, 2
1, 0
1, 2
1, 0
2, 4
3, 2
1, 0
5, 3
7, 5
3, 3
6, 6
4, 4
3, 7
5, 4
1, 1
2, 6
3, 13
9, 6
11, 25
16, 15
37, 33
47, 29
60, 54
54, 63
73, 62
67, 59
78, 58
58, 50
37, 28
35, 35
35, 31
34, 16
23, 24
24, 17
20, 14
17, 11
19, 18
14, 10
12, 7
8, 10
11, 6
9, 3
2, 3
1, 4
7, 3
6, 4
5, 2
7, 5
9, 5
3, 3
7, 3
5, 6
2, 9
4, 4
5, 4
7, 1
1, 4
1, 4
2, 2
1, 0
3, 0
1, 1
7, 9
6, 6
7, 7
24, 16
23, 19
20, 23
24, 27
26, 29
26, 20
23, 11
18, 9
14, 20
10, 23
16, 31
15, 40
25, 50
46, 63
35, 58
55, 52
51, 25
46, 37
34, 22
13, 18
21, 2
16, 8
7, 2
7, 6
3, 3
5, 2
2, 5
4, 3
1, 3
3, 5
3, 7
12, 10
11, 11
18, 12
22, 21
22, 24
42, 32
39, 19
43, 52
50, 32
35, 33
30, 27
28, 24
28, 23
28, 20
30, 11
17, 22
22, 17
25, 8
27, 7
23, 8
26, 5
24, 15
26, 14
19, 17
23, 17
16, 15
16, 18
12, 21
15, 16
10, 13
4, 3
11, 9
7, 13
9, 7
6, 6
14, 11
4, 6
5, 8
17, 18
6, 11
9, 11
22, 21
17, 29
22, 26
27, 30
29, 32
27, 35
29, 36
23, 26
21, 15
25, 14
16, 11
16, 6
16, 14
19, 8
14, 8
18, 8
17, 5
21, 7
19, 20
25, 26
43, 28
57, 61
60, 81
89, 79
112, 100
108, 84
84, 90
81, 68
52, 50
43, 23
31, 28
29, 24
28, 18
13, 12
17, 19
23, 34
54, 62
95, 83
173, 236
371, 424
645, 749
1107, 1262
1829, 1931
2542, 2606
3331, 3199
3818, 3619
3967, 3671
3831, 3254
3376, 2704
2468, 2026
1757, 1309
1141, 783
674, 447
357, 222
163, 122
88, 52
45, 39
20, 19
18, 11
18, 13
17, 17
18, 20
23, 18
21, 32
27, 39
41, 49
61, 69
85, 117
147, 183
255, 269
310, 344
450, 400
516, 488
537, 528
578, 493
538, 413
405, 361
311, 273
241, 192
169, 120
86, 64
63, 26
25, 18
13, 6
10, 7
8, 8
2, 9
5, 7
7, 14
5, 11
7, 12
6, 13
7, 12
6, 7
4, 4
10, 3
4, 4
3, 6
2, 6
5, 5
2, 4
4, 5
2, 6
4, 11
3, 19
3, 22
1, 16
0, 12
4, 23
5, 19
4, 19
5, 9
8, 14
11, 11
7, 11
4, 4
5, 7
6, 5
8, 6
9, 5
5, 4
7, 6
6, 6
7, 7
4, 5
4, 5
7, 6
2, 9
6, 4
4, 10
2, 5
1, 4
2, 6
2, 6
5, 3
3, 3
3, 4
3, 3
2, 7
8, 5
4, 3
4, 1
5, 3
4, 1
4, 5
3, 3
2, 4
3, 4
2, 3
4, 5
3, 8
5, 5
5, 11
4, 6
6, 9
3, 6
4, 7
2, 4
3, 3
1, 6
0, 1
1, 2
4, 1
2, 3
3, 2
0, 3
3, 1
3, 5
5, 3
2, 5
1, 2
2, 4
1, 2
4, 4
4, 7
6, 4
5, 3
1, 2
5, 3
6, 4
11, 2
2, 4
5, 4
6, 3
7, 5
4, 2
3, 2
6, 2
4, 3
6, 2
2, 4
1, 2
7, 5
5, 4
5, 5
5, 3
2, 5
4, 1
1, 4
3, 4
5, 5
2, 1
3, 3
4, 3
4, 3
4, 3
6, 3
12, 3
13, 3
9, 1
13, 4
15, 3
16, 3
7, 2
15, 3
13, 1
10, 3
14, 4
6, 0
4, 2
5, 2
0, 3
5, 1
5, 2
2, 2
0, 3
3, 2
3, 3
1, 4
2, 3
2, 2
7, 4
0, 3
1, 5
0, 4
5, 8
5, 7
2, 9
0, 9
2, 5
3, 8
2, 2
4, 3
3, 0
3, 1
1, 0
4, 1
2, 0
2, 2
6, 5
1, 4
4, 4
3, 2
2, 4
2, 0
2, 4
3, 2
2, 2
8, 2
4, 2
2, 0
2, 1
5, 3
2, 4
5, 0
1, 3
1, 2
0, 0
4, 0
2, 2
1, 2
4, 0
3, 1
5, 0
1, 2
2, 0
4, 2
3, 4
2, 2
3, 0
6, 0
2, 2
5, 2
3, 1
7, 1
1, 1
1, 1
3, 1
3, 1
1, 1
3, 0
1, 0
4, 2
0, 2
1, 0
0, 0
1, 1
1, 2
1, 1
1, 3
0, 1
6, 2
4, 1
0, 3
0, 3
0, 3
3, 5
1, 3
3, 2
4, 4
1, 2
5, 3
5, 6
4, 6
6, 11
6, 7
9, 8
6, 7
9, 6
6, 2
3, 7
2, 1
5, 3
5, 2
3, 3
0, 1
3, 0
2, 3
2, 1
1, 2
1, 1
1, 1
1, 1
1, 2
1, 1
1, 1
2, 1
0, 1
2, 4
0, 2
0, 1
2, 2
2, 1
3, 1
2, 2
1, 1
1, 0
3, 2
3, 1
0, 2
1, 0
1, 0
4, 1
1, 3
1, 0
2, 1
1, 0
0, 2
1, 2
0, 1
4, 1
2, 2
1, 1
2, 0
2, 3
1, 1
2, 0
1, 1
1, 1
0, 0
2, 1
1, 0
1, 0
1, 2
3, 0
4, 0
2, 1
3, 0
2, 0
2, 1
1, 1
1, 1
2, 2
1, 0
2, 3
4, 1
3, 1
2, 1
3, 0
0, 1
2, 1
2, 2
1, 1
0, 0
1, 0
1, 1
1, 0
0, 1
0, 0
0, 0
0, 2
0, 0
0, 2
0, 2
1, 0
1, 2
0, 2
0, 0
3, 2
0, 0
2, 2
1, 0
0, 0
0, 0
1, 0
1, 0
1, 1
0, 0
0, 0
1, 0
1, 1
0, 0
0, 0
1, 0
0, 0
0, 0
1, 0
1, 0
0, 0
1, 1
0, 0
0, 0
1, 1
1, 0
2, 0
0, 1
0, 1
0, 0
1, 0
0, 0
0, 0
0, 2
0, 0
0, 0
1, 0
0, 1
0, 0
0, 0
0, 0
0, 0
0, 3
0, 0
0, 1
0, 0
0, 0
0, 0
0, 0
1, 0
1, 0
0, 1
0, 0
0, 0
0, 1
0, 0
1, 0
0, 0
1, 1
1, 0
0, 0
0, 0
1, 2
0, 1
1, 0
0, 0
0, 0
1, 0
1, 0
0, 0
0, 1
0, 1
0, 0
0, 0
0, 0
0, 0
1, 0
0, 0
1, 1
0, 0
1, 3
0, 0
0, 0
1, 0
1, 0
0, 0
0, 0
1, 0
0, 0
0, 0
1, 0
0, 0
1, 0
0, 0
1, 0
1, 0
0, 0
0, 0
0, 0
0, 0
1, 0
0, 0
0, 0
0, 0
0, 0
0, 2
0, 0
0, 0
0, 0
0, 0
0, 0
0, 1
0, 0
0, 0
0, 1
1, 0
0, 0
0, 0
0, 0
1, 1
0, 0
0, 0
0, 0
0, 0
0, 1
0, 0
0, 0
0, 1
1, 0
0, 0
1, 0
0, 0
0, 0
1, 0
1, 0
0, 0
0, 0
0, 0
1, 0
1, 0
0, 0
1, 0
0, 0
0, 0
0, 0
0, 0
0, 0
0, 0
0, 0
0, 0
0, 0
0, 0
0, 0
0, 0
0, 0
0, 0
1, 0
0, 0
0, 0
0, 0
0, 0
1, 0
0, 0
0, 0
0, 0
1, 0
0, 0
0, 0
0, 0
0, 0
0, 0
1, 2
0, 0
1, 0
2, 0
0, 0
0, 0
0, 0
0, 0
0, 0
1, 0
0, 0
0, 0
0, 0
0, 0
1, 0
1, 0
1, 0
1, 0
0, 0
0, 0
0, 0
0, 0
0, 0
0, 0
0, 0
0, 0
0, 0
0, 0
0, 0
0, 0
0, 0
0, 0
0, 0
0, 1
0, 0
0, 0
0, 0
0, 0
0, 0
0, 0
0, 0
0, 0
0, 0
0, 0
0, 0
0, 0
0, 0
0, 0
0, 0
0, 0
0, 0
0, 0
1, 0
0, 0
0, 0
0, 0
0, 0
0, 0
0, 1
0, 0
1, 0
0, 0
0, 0
0, 0
0, 0
0, 0
0, 0
0, 0
0, 0
0, 0
0, 0
0, 1
0, 0
0, 0
0, 0
0, 0
0, 0
0, 0
0, 0
0, 1
0, 0
0, 0
0, 0
1, 0
0, 0
0, 0
0, 0
0, 0
0, 0
0, 0
0, 0
1, 0
0, 0
0, 0
0, 0
0, 0
0, 0
0, 0
0, 0
0, 0
0, 0
0, 0
0, 0
0, 0
0, 0
0, 0
0, 0
0, 0
0, 0
0, 0
0, 0
0, 0
0, 0
0, 0
0, 0
0, 0
0, 0
0, 0
0, 1
0, 0
0, 0
0, 0
0, 0
0, 0
0, 0
0, 0
0, 0
0, 0
0, 0
0, 0
0, 0
0, 0
0, 0
0, 0
0, 0
0, 0
0, 0
0, 0
0, 0
0, 0
0, 0
0, 0
0, 0
0, 0
0, 0
0, 0
0, 0
0, 0
0, 0
0, 0
0, 0
0, 0
0, 0
0, 0
0, 0
0, 0
0, 0
0, 0
0, 0
0, 0
0, 0
0, 0
0, 0
0, 0
0, 0
0, 1
0, 0
0, 0
0, 0
0, 0
0, 0
0, 0
0, 0
0, 0
0, 0
0, 0
0, 0
0, 0
0, 0
0, 0
0, 0
0, 0
0, 0
0, 0
0, 0
0, 0
0, 0
0, 0
0, 0
0, 0
0, 0
0, 0
0, 0
0, 0
0, 0
0, 0
0, 0
0, 0
0, 0
0, 0
0, 0
0, 0
0, 0
0, 0
0, 0
0, 0
0, 0
0, 0
0, 0
0, 0
0, 0
0, 0
0, 0
0, 0
0, 0
0, 0
0, 0
0, 0
0, 0
0, 0
0, 0
0, 0
0, 0
0, 0
0, 0
0, 0
0, 0
0, 0
0, 0
0, 0
0, 0
0, 0
0, 0
0, 0
0, 0
0, 0
0, 0
0, 0
0, 0
0, 0
0, 0
0, 0
0, 0
0, 0
0, 0
0, 0
0, 0
0, 0
0, 0
0, 0
0, 0
0, 0
0, 0
0, 0
0, 0
0, 0
0, 0
0, 0
0, 0
0, 0
0, 0
0, 0
0, 0
0, 0
0, 0
0, 0
0, 0
0, 0
0, 0
0, 0
0, 0
0, 0
0, 0
0, 0
0, 0
0, 0
0, 0
0, 0
0, 0
0, 0
0, 0
0, 0
0, 0
0, 0
0, 0
0, 0
0, 0
0, 0
0, 0
0, 0
0, 0
0, 0
0, 0
0, 0
0, 0
0, 0
0, 0
0, 0
0, 0
0, 0
0, 0
0, 0
0, 0
0, 0
0, 0
0, 0
0, 0
0, 0
0, 0
0, 0
0, 0
0, 0
0, 0
0, 0
0, 0
0, 0
0, 0
0, 0
0, 0
0, 0
0, 0
0, 0
0, 0
0, 0
0, 0
0, 0
0, 0
0, 0
0, 0
0, 0
0, 0
0, 0
0, 0
0, 0
0, 0
0, 0
0, 0
0, 0
0, 0
0, 0
0, 0
0, 0
0, 0
0, 0
0, 0
0, 0
0, 0
0, 0
0, 0
0, 0
0, 0
0, 0
0, 0
0, 0
0, 0
0, 0
0, 0
0, 0
0, 0
0, 0
0, 0
0, 0
0, 0
0, 0
0, 0
0, 0
0, 0
0, 0
0, 0
0, 0
0, 0
0, 0
0, 0
0, 0
0, 0
0, 0
0, 0
0, 0
0, 0
0, 0
0, 0
0, 0
0, 0
0, 0
0, 0
0, 0
0, 0
0, 0
0, 0
0, 0
0, 0
0, 0
0, 0
0, 0
0, 0
0, 0
0, 0
0, 0
0, 0
0, 0
0, 0
0, 0
0, 0
0, 0
0, 0
0, 0
0, 0
0, 0
0, 0
0, 0
0, 0
0, 0
0, 0
0, 0
0, 0
0, 0
0, 0
0, 0
0, 0
0, 0
1, 0
0, 0
0, 0
0, 0
0, 0
0, 0
0, 0
0, 0
0, 0
0, 0
0, 0
0, 0
0, 0
0, 0
0, 0
0, 0
0, 0
0, 0
0, 0
0, 0
0, 0
0, 0
0, 0
0, 0
0, 0
0, 0
0, 0
0, 0
0, 0
0, 0
0, 0
0, 0
0, 0
0, 0
0, 0
0, 0
0, 0
0, 0
0, 0
0, 0
0, 0
0, 0
0, 0
0, 0
0, 0
0, 0
0, 0
0, 0
0, 0
0, 0
0, 0
0, 0
0, 0
0, 0
0, 0
0, 0
0, 0
0, 0
0, 0
0, 0
0, 0
0, 0
0, 0
0, 0
0, 0
0, 0
0, 0
0, 0
0, 0
0, 0
0, 0
0, 0
0, 0
0, 0
0, 0
0, 0
0, 0
0, 0
0, 0
0, 0
0, 0
0, 0
0, 0
0, 0
0, 0
0, 0
0, 0
0, 0
0, 0
0, 0
0, 0
0, 0
0, 0
0, 0
0, 0
0, 0
0, 0
0, 0
0, 0
0, 0
0, 0
0, 0
0, 0
0, 0
0, 0
0, 0
0, 0
0, 0
0, 0
0, 0
0, 0
0, 0
0, 0
0, 0
0, 0
0, 0
0, 0
0, 0
0, 0
0, 0
0, 0
0, 0
0, 0
0, 0
0, 0
0, 0
0, 0
0, 0
0, 0
0, 0
0, 0
0, 0
0, 0
0, 0
0, 0
0, 0
0, 0
0, 0
0, 0
0, 0
0, 0
#ENDOFDATA     end of spectrum data