File: host_upload/12-01-2023/Dourbes (shot-by-shot)/upload_4/ps__0257_0689790785_000rfs_shot_3163.msa
#FORMAT      : EMSA/MAS spectral data file
#VERSION     : TC202v2.0 PIXL
#TITLE       : N/A
#DATE        :       Date in the format DD-MMM-YYYY, for example 07-JUL-2010
#TIME        :             The time of day at which the spectrum was recorded, in 24-hour format
#OWNER       : PIXL Flight Model       (PIXL will use this to indicate which instrument took the data.)
#NPOINTS     : 4096     Number of data points in the spectrum (This can be zero for configuration only files)
#NCOLUMNS    : 2     Number of data columns in the spectrum (This can be zero for configuration only files)
#XUNITS      : eV
#YUNITS      : COUNTS
#DATATYPE    : YY
#XPERCHAN    : 7.862, 7.881   eV per channel (separate by commas if more than one detector)
#OFFSET      : 18.5, -22.4         eV of first channel  (separate by commas if more than one detector
#SIGNALTYPE  : XRF
#YP_TEMP     : 3.101
#LIVETIME    : 8.97654, 8.99933   seconds (separate by commas if more than one detector)
#REALTIME    : 10, 10.0   seconds (separate by commas if more than one detector)
#SPECTRUM    : start of spectrum data
0, 0
0, 0
0, 0
0, 0
0, 0
0, 0
0, 0
0, 0
0, 0
0, 0
0, 0
0, 0
0, 0
0, 0
0, 0
0, 0
0, 0
0, 0
0, 0
0, 0
0, 0
0, 0
0, 0
0, 0
0, 0
0, 0
0, 0
0, 0
0, 0
0, 0
0, 0
1, 0
2, 0
0, 1
1, 0
0, 0
0, 1
0, 0
0, 0
2, 2
1, 0
1, 1
2, 2
0, 0
2, 2
2, 0
1, 1
3, 0
2, 1
12, 4
18, 8
28, 25
46, 33
52, 37
58, 38
41, 43
45, 29
25, 13
14, 14
4, 5
3, 1
7, 4
5, 9
8, 12
13, 9
13, 10
10, 12
10, 5
13, 11
32, 26
82, 64
172, 147
306, 262
383, 408
521, 415
501, 443
429, 379
314, 276
195, 186
112, 96
58, 53
20, 17
9, 12
17, 3
5, 3
11, 4
9, 4
7, 2
2, 7
3, 4
2, 1
1, 0
0, 1
1, 3
4, 1
5, 4
2, 10
7, 4
5, 11
6, 8
3, 6
8, 9
5, 9
6, 2
2, 2
6, 8
8, 12
11, 15
14, 13
17, 28
38, 36
40, 45
56, 65
66, 93
80, 103
87, 68
89, 75
83, 69
77, 65
63, 51
43, 41
37, 23
35, 25
32, 29
29, 24
26, 18
18, 13
12, 14
9, 18
7, 13
12, 5
8, 4
8, 3
3, 2
6, 3
5, 3
1, 2
6, 11
5, 6
5, 7
6, 7
10, 11
4, 10
4, 7
8, 1
2, 5
4, 4
2, 3
10, 4
6, 10
14, 11
19, 20
20, 23
21, 26
46, 37
42, 37
61, 38
48, 53
58, 45
31, 33
22, 21
21, 25
13, 14
6, 19
15, 13
14, 12
8, 6
9, 9
17, 13
8, 10
17, 8
12, 6
15, 13
7, 12
12, 13
7, 15
17, 11
15, 14
13, 17
6, 13
18, 15
15, 12
10, 8
9, 8
9, 11
10, 4
8, 12
14, 12
14, 32
26, 39
40, 60
39, 47
46, 58
41, 37
39, 38
39, 37
34, 35
38, 40
31, 37
31, 25
25, 18
24, 21
16, 15
23, 13
11, 13
16, 11
16, 11
17, 12
15, 12
8, 18
23, 19
13, 20
12, 24
21, 14
8, 8
14, 10
12, 7
3, 10
13, 7
13, 10
15, 7
11, 15
9, 14
13, 8
24, 14
9, 15
21, 30
30, 36
28, 29
35, 44
47, 43
34, 47
36, 30
22, 33
23, 21
24, 17
14, 16
16, 15
11, 11
18, 13
15, 18
18, 17
14, 18
22, 33
31, 33
39, 36
41, 60
72, 75
84, 80
96, 102
126, 97
108, 111
111, 75
101, 75
88, 58
75, 58
44, 29
33, 26
28, 31
40, 26
33, 25
40, 48
51, 63
118, 130
189, 186
365, 410
735, 747
1170, 1209
1805, 1818
2530, 2606
3410, 3243
3976, 3603
4163, 3662
4002, 3377
3388, 2748
2620, 1979
1848, 1314
1182, 890
621, 445
393, 222
223, 130
110, 79
41, 34
36, 17
42, 22
30, 29
30, 20
34, 28
29, 23
31, 37
38, 44
52, 52
59, 63
115, 100
150, 143
239, 230
319, 350
377, 428
518, 469
596, 511
590, 492
537, 457
458, 368
357, 271
228, 179
170, 102
107, 62
65, 41
21, 14
10, 11
7, 6
7, 5
3, 10
8, 5
6, 8
5, 5
13, 9
11, 6
8, 11
12, 7
9, 5
6, 2
7, 4
5, 4
9, 6
5, 4
6, 4
1, 2
10, 3
2, 8
5, 3
6, 9
8, 7
5, 4
8, 3
4, 6
5, 4
5, 5
2, 4
9, 5
5, 4
9, 1
5, 4
12, 3
7, 5
5, 10
9, 9
6, 8
8, 3
3, 2
6, 7
5, 3
8, 0
5, 2
8, 6
5, 8
4, 7
2, 5
1, 4
6, 6
7, 3
7, 3
3, 3
5, 6
3, 4
1, 2
3, 2
6, 3
3, 5
3, 5
8, 8
5, 9
2, 2
4, 3
2, 5
2, 3
7, 2
4, 2
2, 4
5, 2
7, 2
2, 4
5, 2
7, 2
3, 9
4, 3
1, 4
7, 3
5, 3
1, 3
8, 3
2, 2
7, 9
4, 5
4, 7
1, 6
3, 2
7, 1
7, 1
6, 2
5, 3
6, 3
3, 6
5, 1
3, 2
9, 5
8, 2
8, 8
6, 3
8, 0
4, 4
5, 2
1, 3
4, 3
3, 4
3, 2
4, 4
8, 2
3, 6
4, 2
5, 3
3, 0
2, 4
4, 8
4, 5
5, 5
7, 5
1, 1
6, 2
7, 6
3, 3
3, 2
7, 6
4, 3
1, 4
2, 3
4, 3
4, 6
0, 4
6, 3
0, 1
3, 1
1, 1
2, 0
5, 1
1, 3
0, 2
4, 1
3, 4
1, 2
2, 1
3, 4
5, 2
2, 3
3, 4
2, 5
3, 3
4, 2
3, 2
3, 2
4, 1
1, 5
5, 1
2, 0
6, 1
4, 3
5, 2
2, 2
3, 1
1, 5
2, 1
1, 3
2, 1
1, 1
3, 4
2, 2
3, 1
0, 0
1, 2
2, 2
0, 0
2, 1
0, 0
2, 2
3, 1
3, 4
0, 3
5, 3
0, 1
4, 3
1, 4
1, 1
1, 1
2, 2
2, 3
3, 5
1, 1
3, 1
6, 2
4, 4
2, 2
0, 3
2, 1
2, 0
3, 3
4, 2
1, 4
0, 2
3, 1
2, 1
1, 2
0, 0
1, 1
5, 1
0, 1
1, 1
5, 3
3, 1
4, 2
1, 1
7, 1
1, 3
0, 5
1, 3
7, 2
4, 2
3, 0
3, 2
2, 0
1, 3
0, 4
1, 2
1, 2
4, 2
2, 6
0, 0
5, 5
1, 5
6, 6
9, 8
17, 4
4, 5
7, 3
12, 13
6, 8
7, 3
6, 1
2, 0
9, 5
1, 0
2, 2
1, 1
1, 3
1, 1
0, 2
1, 1
1, 2
1, 1
0, 4
2, 2
1, 1
0, 1
2, 1
0, 2
0, 1
3, 2
3, 2
6, 4
1, 1
2, 1
6, 2
3, 5
3, 2
1, 2
1, 3
1, 3
1, 3
1, 1
2, 0
3, 0
3, 3
5, 1
2, 1
2, 0
2, 0
2, 2
1, 0
2, 2
1, 2
1, 1
1, 0
1, 0
0, 1
0, 1
0, 1
1, 1
3, 0
1, 0
1, 1
0, 2
0, 1
2, 1
0, 2
0, 1
1, 2
1, 0
0, 1
0, 1
4, 1
0, 0
1, 1
0, 2
0, 0
2, 2
0, 2
0, 1
0, 0
2, 0
0, 0
0, 1
0, 0
2, 1
0, 1
0, 0
3, 0
2, 1
1, 1
3, 0
1, 0
1, 0
1, 1
1, 0
0, 1
1, 0
0, 0
0, 0
0, 0
0, 0
0, 0
1, 1
1, 0
0, 0
0, 0
0, 0
0, 0
0, 0
0, 2
1, 2
0, 0
0, 0
0, 1
0, 1
0, 0
2, 0
0, 0
0, 1
2, 0
0, 0
0, 0
1, 0
1, 2
1, 0
0, 0
0, 1
0, 0
0, 0
0, 1
0, 0
0, 0
1, 0
0, 1
0, 1
0, 1
0, 1
0, 0
0, 0
1, 1
1, 0
1, 0
2, 0
0, 1
1, 0
0, 0
0, 0
1, 1
2, 0
0, 0
0, 2
0, 0
0, 0
0, 1
0, 1
0, 1
0, 0
0, 0
0, 0
0, 1
2, 0
0, 0
0, 0
0, 0
0, 2
0, 1
1, 1
0, 0
0, 0
0, 1
0, 1
0, 0
1, 1
0, 0
0, 1
1, 0
0, 0
1, 1
0, 0
0, 0
0, 1
0, 0
0, 1
0, 0
1, 1
0, 1
1, 0
0, 1
0, 1
0, 1
2, 0
0, 0
0, 1
0, 1
0, 1
0, 1
0, 0
0, 0
0, 0
0, 0
1, 0
0, 0
0, 0
0, 0
0, 0
0, 0
0, 0
0, 0
0, 0
0, 0
0, 0
1, 0
0, 2
0, 0
0, 1
0, 0
1, 0
0, 0
0, 0
0, 1
0, 0
0, 0
0, 0
0, 0
0, 1
0, 0
0, 0
0, 0
0, 1
0, 0
0, 0
0, 0
0, 1
0, 0
0, 1
0, 0
0, 0
0, 0
0, 0
0, 0
0, 0
0, 0
0, 0
0, 0
0, 1
0, 0
0, 0
0, 0
1, 1
1, 0
0, 0
0, 0
0, 1
0, 0
0, 0
0, 0
1, 0
0, 0
0, 0
0, 0
0, 0
0, 0
0, 0
0, 1
0, 0
0, 0
0, 0
0, 0
0, 0
0, 0
0, 0
0, 0
0, 0
0, 1
1, 0
0, 1
1, 1
1, 0
0, 0
1, 0
0, 0
0, 0
0, 0
0, 0
0, 0
0, 0
0, 0
0, 0
0, 0
1, 0
0, 2
0, 0
0, 0
0, 0
1, 0
0, 0
0, 0
0, 0
0, 0
0, 0
0, 0
0, 0
0, 0
0, 0
0, 0
0, 0
1, 0
0, 1
0, 0
0, 0
0, 0
0, 0
0, 0
0, 0
0, 0
1, 0
0, 0
1, 0
0, 0
0, 0
0, 0
0, 1
0, 0
0, 0
0, 0
0, 0
0, 0
0, 0
0, 0
0, 0
0, 0
0, 0
0, 0
0, 0
0, 0
0, 0
0, 0
0, 0
0, 0
0, 0
0, 0
0, 0
1, 0
0, 0
0, 0
0, 0
0, 0
0, 0
0, 0
0, 0
0, 0
0, 0
1, 0
0, 0
0, 0
0, 0
0, 0
0, 0
0, 0
0, 0
0, 0
0, 0
0, 0
0, 0
0, 0
0, 0
0, 0
0, 0
0, 0
0, 1
0, 0
0, 0
0, 0
0, 0
0, 0
0, 0
0, 1
0, 0
0, 0
0, 0
0, 0
0, 0
0, 0
0, 0
0, 0
0, 0
0, 0
0, 0
0, 0
0, 0
0, 0
0, 0
0, 0
0, 0
0, 0
0, 0
0, 0
0, 0
0, 0
0, 0
0, 0
0, 0
0, 0
0, 0
0, 0
0, 0
0, 0
0, 0
0, 0
0, 0
0, 0
0, 0
0, 0
0, 0
0, 0
0, 0
0, 0
1, 0
0, 0
0, 0
0, 0
0, 0
0, 0
0, 0
0, 0
0, 0
0, 0
0, 0
0, 0
0, 0
0, 0
0, 0
0, 0
0, 1
0, 0
0, 0
0, 0
0, 0
0, 0
0, 0
0, 0
0, 1
1, 0
0, 0
0, 0
0, 0
0, 0
0, 0
0, 0
0, 0
0, 1
0, 0
0, 0
0, 0
0, 0
0, 0
0, 0
0, 0
0, 0
0, 1
0, 0
0, 0
0, 0
0, 0
0, 0
0, 0
0, 0
0, 0
0, 0
0, 0
0, 0
0, 0
0, 0
0, 0
0, 0
0, 0
0, 0
0, 0
0, 0
0, 0
0, 0
0, 0
0, 0
0, 0
0, 0
0, 0
0, 0
0, 0
0, 0
0, 0
0, 0
0, 0
0, 0
0, 0
0, 0
0, 0
0, 0
0, 0
0, 0
0, 0
0, 1
0, 0
0, 0
0, 0
0, 0
0, 0
0, 0
0, 0
0, 0
0, 0
0, 0
0, 0
0, 0
0, 0
0, 0
0, 0
0, 0
0, 0
0, 0
0, 0
0, 0
0, 0
0, 0
0, 0
0, 0
0, 0
0, 0
0, 0
0, 0
0, 0
0, 0
0, 0
0, 0
0, 0
0, 0
0, 0
0, 0
0, 0
0, 0
0, 0
0, 0
0, 0
0, 0
0, 0
0, 0
0, 0
0, 0
0, 0
0, 0
0, 0
0, 0
0, 0
0, 0
0, 0
0, 0
0, 0
0, 0
0, 0
0, 0
0, 0
0, 0
0, 0
0, 0
0, 0
0, 0
0, 0
0, 0
0, 0
0, 0
0, 0
0, 0
0, 0
0, 0
0, 0
0, 0
0, 0
0, 0
0, 0
0, 0
0, 0
0, 0
0, 0
0, 0
0, 0
0, 0
0, 0
0, 0
0, 0
0, 0
0, 0
0, 0
0, 0
0, 0
0, 0
0, 0
0, 0
0, 0
0, 0
0, 0
0, 0
0, 0
0, 0
0, 0
0, 0
0, 0
0, 0
0, 0
0, 0
0, 0
0, 0
0, 0
0, 0
0, 0
0, 0
0, 0
0, 0
0, 0
0, 0
0, 0
0, 0
0, 0
0, 0
0, 0
0, 0
0, 0
0, 0
0, 0
0, 0
0, 0
0, 0
0, 0
0, 0
0, 0
0, 0
0, 0
0, 0
0, 0
0, 0
0, 0
0, 0
0, 0
0, 0
0, 0
0, 0
0, 0
0, 0
0, 0
0, 0
0, 0
0, 0
0, 0
0, 0
0, 0
0, 0
0, 0
0, 0
0, 0
0, 0
0, 0
0, 0
0, 0
0, 0
0, 0
0, 0
0, 0
0, 0
0, 0
0, 0
0, 0
0, 0
0, 0
0, 0
0, 0
0, 0
0, 0
0, 0
0, 0
0, 0
0, 0
0, 0
0, 0
0, 0
0, 0
0, 0
0, 0
0, 0
0, 0
0, 0
0, 0
0, 0
0, 0
0, 0
0, 0
0, 0
0, 0
0, 0
0, 0
0, 0
0, 0
0, 0
0, 0
0, 0
0, 0
0, 0
0, 0
0, 0
0, 0
0, 0
0, 0
0, 0
0, 0
0, 0
0, 0
0, 0
0, 0
0, 0
0, 0
0, 0
0, 0
0, 0
0, 0
0, 0
0, 0
0, 0
0, 0
0, 0
0, 0
0, 0
0, 0
0, 0
0, 0
0, 0
0, 0
0, 0
0, 0
0, 0
0, 0
0, 0
0, 0
0, 0
0, 0
0, 0
0, 0
0, 0
0, 0
0, 0
0, 0
0, 0
0, 0
0, 0
0, 0
0, 0
0, 0
0, 0
0, 0
0, 0
0, 0
0, 0
0, 0
0, 0
0, 0
0, 0
0, 0
0, 0
0, 0
0, 0
0, 0
0, 0
0, 0
0, 0
0, 0
0, 0
0, 0
0, 0
0, 0
0, 0
0, 0
0, 0
0, 0
0, 0
0, 0
0, 0
0, 0
0, 0
0, 0
0, 0
0, 0
0, 0
0, 0
0, 0
0, 0
0, 0
0, 0
0, 0
0, 0
0, 0
0, 0
0, 0
0, 0
0, 0
0, 0
0, 0
0, 0
0, 0
0, 0
0, 0
0, 0
0, 0
0, 0
0, 0
0, 0
0, 0
0, 0
0, 0
0, 0
0, 0
0, 0
0, 0
0, 0
0, 0
0, 0
0, 0
0, 0
0, 0
0, 0
0, 0
0, 0
0, 0
0, 0
#ENDOFDATA     end of spectrum data