File: host_upload/12-01-2023/Dourbes (shot-by-shot)/upload_4/ps__0257_0689790785_000rfs_shot_3146.msa
#FORMAT      : EMSA/MAS spectral data file
#VERSION     : TC202v2.0 PIXL
#TITLE       : N/A
#DATE        :       Date in the format DD-MMM-YYYY, for example 07-JUL-2010
#TIME        :             The time of day at which the spectrum was recorded, in 24-hour format
#OWNER       : PIXL Flight Model       (PIXL will use this to indicate which instrument took the data.)
#NPOINTS     : 4096     Number of data points in the spectrum (This can be zero for configuration only files)
#NCOLUMNS    : 2     Number of data columns in the spectrum (This can be zero for configuration only files)
#XUNITS      : eV
#YUNITS      : COUNTS
#DATATYPE    : YY
#XPERCHAN    : 7.862, 7.881   eV per channel (separate by commas if more than one detector)
#OFFSET      : 18.5, -22.4         eV of first channel  (separate by commas if more than one detector
#SIGNALTYPE  : XRF
#YP_TEMP     : 3.262
#LIVETIME    : 9.13077, 9.1488   seconds (separate by commas if more than one detector)
#REALTIME    : 10, 10.0   seconds (separate by commas if more than one detector)
#SPECTRUM    : start of spectrum data
0, 0
0, 0
0, 0
0, 0
0, 0
0, 0
0, 0
0, 0
0, 0
0, 0
0, 0
0, 0
0, 0
0, 0
0, 0
0, 0
0, 0
0, 0
0, 0
0, 0
0, 0
0, 0
0, 0
0, 0
0, 0
0, 0
0, 0
0, 0
0, 0
0, 0
0, 0
0, 0
1, 1
0, 0
1, 0
1, 1
0, 1
0, 0
1, 1
0, 0
1, 0
2, 2
0, 2
1, 0
2, 1
2, 2
0, 3
2, 3
3, 3
5, 5
11, 9
18, 17
30, 27
42, 32
54, 44
50, 52
30, 34
28, 25
11, 11
7, 4
6, 8
4, 4
9, 7
8, 7
9, 9
7, 11
7, 9
12, 5
21, 23
65, 53
151, 114
270, 229
504, 462
707, 653
968, 815
857, 809
742, 701
542, 490
341, 291
174, 155
90, 73
55, 45
36, 28
23, 20
22, 19
13, 7
16, 5
7, 6
3, 7
4, 1
0, 0
2, 4
1, 0
2, 2
4, 1
3, 6
3, 6
8, 6
3, 0
8, 4
3, 10
8, 5
2, 1
3, 5
3, 5
4, 4
4, 9
7, 1
5, 5
12, 11
15, 16
24, 26
21, 32
29, 40
34, 33
25, 30
35, 33
17, 30
22, 25
15, 30
20, 22
20, 17
18, 13
13, 24
25, 13
20, 16
16, 16
12, 12
9, 7
7, 7
4, 4
6, 1
7, 2
8, 2
6, 4
5, 2
6, 6
3, 1
2, 3
8, 6
4, 3
3, 3
3, 6
3, 1
5, 1
8, 7
5, 2
6, 3
12, 12
22, 26
48, 43
87, 99
203, 213
411, 394
647, 632
885, 856
1160, 1082
1234, 1228
1196, 1135
932, 903
727, 617
427, 347
243, 196
136, 111
84, 53
47, 38
62, 49
77, 78
102, 98
159, 132
180, 176
185, 173
171, 154
124, 114
87, 81
67, 37
29, 27
26, 12
7, 4
5, 6
1, 3
1, 3
2, 4
4, 2
1, 2
6, 8
6, 5
10, 10
18, 12
25, 30
28, 22
37, 27
26, 34
33, 33
27, 27
18, 20
14, 12
16, 6
11, 6
8, 13
10, 9
8, 8
6, 4
1, 8
3, 4
4, 4
4, 4
7, 7
11, 8
11, 11
10, 4
10, 7
9, 7
8, 1
6, 9
1, 4
3, 3
6, 7
2, 1
2, 7
0, 2
8, 5
5, 4
6, 2
10, 16
13, 16
28, 30
31, 35
41, 41
49, 46
48, 50
60, 51
70, 35
43, 40
32, 22
19, 22
13, 16
10, 10
7, 5
6, 7
1, 11
4, 2
6, 6
7, 12
8, 18
10, 19
15, 25
28, 23
39, 48
52, 43
48, 47
49, 54
56, 43
36, 40
31, 39
20, 20
18, 17
16, 10
19, 18
10, 11
10, 15
10, 18
25, 28
30, 43
54, 72
125, 141
210, 228
373, 425
579, 657
756, 840
1034, 1016
1241, 1139
1212, 1131
1186, 1084
1093, 905
835, 621
561, 420
372, 277
240, 156
134, 68
95, 45
31, 28
21, 15
14, 14
12, 6
12, 6
10, 8
10, 12
10, 12
13, 8
7, 12
13, 14
18, 22
26, 32
50, 81
63, 81
98, 128
123, 154
169, 198
182, 218
214, 199
168, 190
141, 170
126, 125
77, 86
51, 73
23, 51
16, 22
12, 23
3, 12
15, 5
15, 7
18, 2
20, 2
29, 6
25, 8
39, 5
50, 3
42, 6
45, 5
34, 5
26, 6
23, 5
21, 3
15, 6
5, 7
7, 7
7, 5
8, 7
11, 5
9, 6
3, 8
2, 2
8, 2
7, 2
8, 3
4, 3
4, 3
6, 6
3, 6
9, 5
5, 4
8, 4
5, 6
2, 3
5, 4
5, 5
9, 2
7, 3
5, 4
9, 5
11, 8
12, 11
9, 11
10, 13
8, 6
14, 13
12, 10
11, 9
9, 16
9, 18
4, 7
5, 9
6, 6
6, 6
10, 10
4, 6
3, 3
6, 6
6, 5
6, 9
4, 2
1, 3
4, 3
3, 6
2, 1
4, 3
5, 2
5, 6
4, 4
5, 2
6, 2
8, 4
3, 5
4, 4
6, 7
5, 5
5, 11
6, 3
6, 7
6, 4
5, 7
5, 7
5, 14
5, 10
8, 3
6, 6
10, 9
7, 9
12, 6
5, 8
8, 9
7, 7
4, 2
8, 8
5, 4
2, 11
3, 6
2, 6
2, 8
5, 8
2, 4
6, 14
7, 3
6, 8
6, 6
4, 5
3, 3
3, 2
7, 3
4, 9
4, 3
2, 4
7, 4
4, 5
1, 4
8, 3
3, 4
3, 6
6, 4
3, 4
7, 6
2, 5
3, 7
4, 7
4, 3
6, 4
5, 3
5, 5
4, 3
7, 0
2, 2
2, 1
2, 2
2, 3
6, 1
5, 3
3, 2
5, 5
2, 4
3, 2
7, 1
3, 4
3, 3
4, 1
0, 1
4, 3
3, 3
2, 1
2, 0
6, 3
2, 0
5, 0
2, 2
6, 4
2, 2
4, 1
1, 2
1, 3
3, 2
3, 3
4, 2
1, 3
5, 3
3, 5
3, 3
3, 5
2, 2
4, 4
2, 1
2, 1
0, 1
2, 6
4, 1
8, 7
1, 5
3, 4
2, 4
4, 8
2, 6
1, 6
0, 7
3, 3
1, 5
3, 3
4, 6
1, 5
2, 3
1, 4
4, 3
1, 7
0, 3
0, 2
2, 2
2, 3
2, 2
3, 1
2, 6
0, 3
5, 1
4, 3
1, 2
4, 4
3, 1
3, 2
5, 1
1, 2
6, 3
5, 3
3, 2
3, 4
3, 2
3, 0
0, 1
3, 2
2, 1
3, 2
1, 1
1, 1
3, 2
0, 2
1, 1
1, 1
1, 2
1, 0
2, 2
5, 0
2, 3
2, 1
0, 3
0, 6
2, 4
5, 1
2, 2
2, 2
1, 2
2, 1
3, 2
1, 3
1, 3
0, 0
1, 1
3, 3
3, 3
0, 3
1, 1
1, 1
0, 0
3, 1
1, 1
2, 1
0, 0
1, 1
0, 1
2, 2
0, 2
3, 0
2, 1
1, 0
2, 2
1, 2
1, 1
0, 3
2, 2
1, 3
4, 0
3, 2
3, 1
2, 1
2, 1
3, 1
1, 2
0, 2
3, 2
0, 3
1, 3
2, 1
2, 0
1, 0
1, 0
2, 1
2, 1
0, 2
0, 1
1, 1
1, 2
1, 1
1, 0
1, 1
3, 1
2, 0
1, 1
1, 2
1, 0
0, 0
3, 1
1, 1
2, 2
0, 0
0, 0
0, 1
1, 1
1, 1
3, 1
1, 1
2, 0
1, 0
1, 2
0, 1
0, 0
1, 1
0, 1
0, 1
0, 0
0, 1
2, 1
2, 0
2, 1
2, 1
1, 1
2, 2
0, 1
2, 2
0, 0
2, 0
0, 0
1, 0
1, 1
3, 1
1, 0
0, 0
1, 0
0, 1
1, 1
1, 0
1, 1
0, 0
0, 0
0, 0
0, 0
0, 0
0, 2
1, 0
1, 1
0, 2
0, 0
2, 0
1, 1
0, 0
1, 2
1, 0
2, 0
1, 0
0, 0
1, 1
0, 1
1, 0
0, 0
0, 2
0, 1
0, 0
0, 1
0, 0
1, 2
2, 2
1, 1
0, 0
1, 0
2, 0
0, 1
0, 0
0, 0
0, 0
0, 1
0, 0
1, 0
1, 0
4, 1
1, 0
0, 0
0, 0
0, 2
0, 1
0, 2
1, 1
0, 1
0, 2
0, 0
0, 0
0, 0
1, 1
0, 0
0, 0
1, 0
0, 1
0, 0
1, 0
0, 1
1, 0
1, 0
1, 0
0, 0
0, 0
0, 1
0, 0
1, 1
1, 0
0, 0
0, 0
0, 0
0, 0
1, 2
0, 0
0, 2
0, 0
1, 0
1, 0
0, 0
0, 0
1, 0
0, 0
0, 0
1, 0
1, 0
1, 1
0, 1
0, 0
0, 0
0, 0
2, 0
0, 0
1, 0
0, 0
0, 1
0, 0
0, 0
0, 0
1, 0
2, 0
0, 0
0, 0
0, 0
0, 0
0, 0
0, 0
1, 0
0, 0
2, 0
0, 0
0, 0
0, 0
0, 0
0, 0
0, 0
0, 0
0, 0
1, 0
0, 0
0, 1
0, 0
0, 1
1, 0
0, 0
0, 0
1, 0
2, 0
0, 0
1, 0
0, 0
0, 0
0, 0
1, 0
0, 0
0, 0
0, 0
0, 0
2, 1
1, 1
1, 2
1, 0
1, 0
1, 1
1, 1
0, 0
0, 0
0, 0
0, 0
0, 0
1, 0
0, 0
0, 2
0, 0
0, 0
0, 1
0, 0
0, 1
0, 0
0, 0
0, 0
0, 0
0, 0
0, 0
0, 0
0, 0
0, 1
0, 0
0, 0
0, 0
0, 0
0, 0
0, 0
0, 0
0, 0
0, 0
0, 0
1, 2
0, 0
0, 0
0, 1
0, 1
0, 0
0, 0
0, 0
0, 2
0, 0
0, 0
1, 0
0, 0
0, 0
0, 0
0, 0
1, 0
0, 0
0, 0
0, 1
0, 0
0, 0
0, 0
0, 0
0, 1
0, 1
0, 0
0, 0
0, 0
0, 0
0, 2
0, 0
0, 0
0, 1
0, 1
0, 0
0, 0
0, 0
1, 0
0, 0
0, 0
0, 0
0, 0
0, 0
0, 0
0, 0
0, 0
0, 0
0, 0
0, 0
1, 0
0, 0
0, 0
0, 0
0, 0
0, 0
0, 0
0, 0
0, 0
0, 0
0, 0
0, 0
0, 0
0, 1
0, 0
0, 0
0, 0
1, 1
0, 0
0, 0
0, 0
0, 0
0, 0
0, 0
0, 0
0, 0
0, 0
1, 0
0, 1
0, 0
0, 0
2, 0
0, 0
0, 0
0, 0
0, 0
0, 0
0, 0
0, 0
0, 0
0, 0
0, 0
0, 0
0, 0
0, 0
0, 0
0, 0
0, 0
0, 0
0, 0
0, 0
0, 0
0, 0
0, 0
0, 0
0, 0
0, 0
0, 0
0, 0
0, 0
0, 0
0, 0
0, 0
0, 0
0, 0
0, 0
0, 0
0, 0
0, 0
0, 0
0, 0
0, 0
0, 0
0, 0
0, 0
0, 0
0, 0
0, 0
0, 0
0, 0
0, 0
0, 0
0, 0
0, 0
0, 0
0, 0
0, 0
0, 0
0, 0
0, 0
0, 0
0, 0
0, 0
0, 0
0, 0
0, 0
0, 0
0, 0
0, 0
0, 0
0, 0
0, 0
0, 0
0, 0
0, 0
0, 0
0, 0
0, 0
0, 0
0, 0
0, 0
0, 0
0, 0
0, 0
0, 0
0, 0
0, 0
0, 0
0, 0
0, 0
0, 0
0, 0
0, 0
0, 0
0, 0
0, 0
0, 0
0, 0
0, 0
0, 0
0, 0
0, 0
0, 0
0, 0
0, 0
0, 0
0, 0
0, 0
0, 0
0, 0
0, 0
0, 0
0, 0
0, 0
0, 1
0, 0
0, 0
0, 0
0, 0
0, 0
0, 0
0, 0
0, 0
0, 0
0, 0
0, 0
0, 0
0, 0
0, 0
0, 0
0, 0
0, 0
0, 0
0, 0
0, 0
0, 0
0, 0
0, 0
0, 0
0, 0
0, 0
0, 0
0, 0
0, 0
0, 0
0, 0
0, 0
0, 0
0, 0
0, 0
0, 0
0, 0
0, 0
0, 0
0, 0
0, 0
0, 0
0, 0
0, 0
0, 0
0, 0
0, 0
0, 0
0, 0
0, 0
0, 0
0, 0
0, 0
0, 0
0, 0
0, 0
0, 0
0, 0
0, 0
0, 0
0, 0
0, 0
0, 0
0, 0
0, 0
0, 0
0, 0
0, 0
0, 0
0, 0
0, 0
0, 0
0, 0
0, 0
0, 0
0, 0
0, 0
0, 0
0, 0
0, 0
0, 0
0, 0
0, 0
0, 0
0, 0
0, 0
0, 0
0, 0
0, 0
0, 0
0, 0
0, 0
0, 0
0, 0
0, 0
0, 0
0, 0
0, 0
0, 0
0, 0
0, 0
0, 0
0, 0
0, 0
0, 0
0, 0
0, 0
0, 0
0, 0
0, 0
0, 0
0, 0
0, 0
0, 0
0, 0
0, 0
0, 0
0, 0
0, 0
0, 0
0, 0
0, 0
0, 0
0, 0
0, 0
0, 0
0, 0
0, 0
0, 0
0, 0
0, 0
0, 0
0, 0
0, 0
0, 0
0, 0
0, 0
0, 0
0, 0
0, 0
0, 0
0, 0
0, 0
0, 0
0, 0
0, 0
0, 0
0, 0
0, 0
0, 0
0, 0
0, 0
0, 0
0, 0
0, 0
0, 0
0, 0
0, 0
0, 0
0, 0
0, 0
0, 0
0, 0
0, 0
0, 0
0, 0
0, 0
0, 0
0, 0
0, 0
0, 0
0, 0
0, 0
0, 0
0, 0
0, 0
0, 0
0, 0
0, 0
0, 0
0, 0
0, 0
0, 0
0, 0
0, 0
0, 0
0, 0
0, 0
0, 0
0, 0
0, 0
0, 0
0, 0
0, 0
0, 0
0, 0
0, 0
0, 0
0, 0
0, 0
0, 0
0, 0
0, 0
0, 0
0, 0
0, 0
0, 0
0, 0
0, 0
0, 0
0, 0
0, 0
0, 0
0, 0
0, 0
0, 0
0, 0
0, 0
0, 0
0, 0
0, 0
0, 0
0, 0
0, 0
0, 0
0, 0
0, 0
0, 0
0, 0
0, 0
0, 0
0, 0
0, 0
0, 0
0, 0
0, 0
0, 0
0, 0
0, 0
0, 0
0, 0
0, 0
0, 0
0, 0
0, 0
0, 0
0, 0
0, 0
0, 0
0, 0
0, 0
0, 0
0, 0
0, 0
0, 0
0, 0
0, 0
0, 0
0, 0
0, 0
0, 0
0, 0
0, 0
0, 0
0, 0
0, 0
0, 0
0, 0
0, 0
0, 0
0, 0
0, 0
0, 0
0, 0
0, 0
0, 0
0, 0
0, 0
0, 0
0, 0
0, 0
0, 0
0, 0
0, 0
0, 0
0, 0
0, 0
0, 0
0, 0
0, 0
0, 0
0, 0
0, 0
0, 0
0, 0
0, 0
0, 0
0, 0
0, 0
0, 0
0, 0
0, 0
0, 0
0, 0
0, 0
0, 0
0, 0
0, 0
0, 0
0, 0
0, 0
0, 0
0, 0
0, 0
0, 0
0, 0
0, 0
0, 0
0, 0
0, 0
0, 0
0, 0
0, 0
0, 0
0, 0
0, 0
0, 0
0, 0
0, 0
0, 0
0, 0
0, 0
0, 0
0, 0
0, 0
0, 0
0, 0
0, 0
0, 0
0, 0
0, 0
0, 0
0, 0
0, 0
0, 0
0, 0
#ENDOFDATA     end of spectrum data