File: host_upload/12-01-2023/Dourbes (shot-by-shot)/upload_4/ps__0257_0689790785_000rfs_shot_3025.msa
#FORMAT      : EMSA/MAS spectral data file
#VERSION     : TC202v2.0 PIXL
#TITLE       : N/A
#DATE        :       Date in the format DD-MMM-YYYY, for example 07-JUL-2010
#TIME        :             The time of day at which the spectrum was recorded, in 24-hour format
#OWNER       : PIXL Flight Model       (PIXL will use this to indicate which instrument took the data.)
#NPOINTS     : 4096     Number of data points in the spectrum (This can be zero for configuration only files)
#NCOLUMNS    : 2     Number of data columns in the spectrum (This can be zero for configuration only files)
#XUNITS      : eV
#YUNITS      : COUNTS
#DATATYPE    : YY
#XPERCHAN    : 7.862, 7.881   eV per channel (separate by commas if more than one detector)
#OFFSET      : 18.5, -22.4         eV of first channel  (separate by commas if more than one detector
#SIGNALTYPE  : XRF
#YP_TEMP     : 2.909
#LIVETIME    : 8.99188, 8.99687   seconds (separate by commas if more than one detector)
#REALTIME    : 10, 10.0   seconds (separate by commas if more than one detector)
#SPECTRUM    : start of spectrum data
0, 0
0, 0
0, 0
0, 0
0, 0
0, 0
0, 0
0, 0
0, 0
0, 0
0, 0
0, 0
0, 0
0, 0
0, 0
0, 0
0, 0
0, 0
0, 0
0, 0
0, 0
0, 0
0, 0
0, 0
0, 0
0, 0
0, 0
0, 0
0, 0
0, 0
0, 0
0, 0
0, 0
1, 0
0, 1
0, 2
0, 1
1, 2
2, 0
4, 1
3, 1
4, 5
3, 3
2, 2
3, 5
2, 6
2, 1
2, 1
2, 3
3, 3
8, 7
24, 21
40, 29
38, 35
31, 37
39, 40
29, 25
16, 17
12, 11
6, 6
3, 9
5, 7
16, 10
11, 16
9, 6
12, 10
13, 12
14, 13
15, 26
52, 35
107, 70
206, 152
353, 316
459, 455
550, 515
593, 529
551, 470
375, 319
217, 192
132, 129
72, 53
37, 27
16, 11
11, 9
5, 5
5, 6
2, 4
5, 2
3, 8
1, 1
4, 1
5, 3
2, 2
12, 13
21, 16
34, 52
55, 64
74, 101
92, 101
97, 106
97, 84
57, 57
36, 40
39, 24
26, 21
12, 19
14, 23
22, 18
48, 41
50, 58
82, 101
110, 130
160, 162
154, 208
182, 192
167, 194
123, 147
109, 121
85, 97
71, 68
58, 46
51, 59
31, 54
33, 35
39, 30
36, 23
28, 27
18, 25
29, 21
21, 15
19, 14
9, 7
5, 6
13, 6
7, 8
8, 8
8, 9
8, 12
10, 12
14, 11
14, 10
11, 11
9, 9
6, 7
11, 9
12, 6
9, 6
8, 6
4, 6
8, 10
8, 6
22, 16
34, 16
52, 44
87, 62
89, 93
121, 115
143, 122
121, 103
82, 114
70, 71
48, 37
32, 29
15, 17
8, 13
12, 8
14, 7
18, 14
16, 16
16, 21
26, 23
24, 26
26, 29
23, 21
21, 19
14, 10
14, 6
12, 8
11, 3
14, 7
5, 18
5, 11
15, 7
8, 5
7, 6
11, 13
19, 7
13, 21
24, 17
33, 26
31, 29
36, 28
31, 29
27, 30
29, 23
47, 37
52, 25
34, 29
35, 27
24, 29
26, 19
16, 16
20, 12
10, 13
14, 12
17, 12
10, 14
11, 11
16, 8
25, 13
9, 17
9, 20
14, 20
11, 14
15, 12
13, 16
9, 9
17, 7
13, 17
15, 14
14, 14
17, 10
18, 13
14, 17
16, 21
19, 24
14, 25
26, 20
25, 30
34, 37
28, 29
28, 25
24, 26
19, 19
20, 17
15, 12
14, 11
12, 12
20, 19
13, 19
19, 16
14, 16
15, 12
13, 26
22, 27
27, 43
44, 50
70, 73
82, 93
104, 116
99, 110
112, 110
120, 87
87, 90
82, 53
57, 41
42, 29
46, 31
24, 22
30, 19
28, 23
34, 29
52, 61
66, 99
168, 210
302, 387
607, 668
995, 1129
1531, 1830
2275, 2488
2837, 3092
3365, 3535
3642, 3642
3504, 3219
3043, 2603
2348, 1938
1637, 1297
1116, 833
659, 427
337, 261
202, 123
75, 71
37, 45
27, 27
27, 29
31, 32
26, 22
35, 31
31, 28
28, 39
42, 49
35, 58
76, 72
93, 106
140, 175
206, 210
296, 311
378, 412
483, 515
498, 517
520, 546
501, 420
388, 361
310, 271
259, 188
149, 111
73, 67
52, 40
23, 19
21, 9
11, 11
4, 9
4, 8
5, 5
9, 7
7, 6
10, 1
8, 7
12, 7
6, 6
7, 2
8, 11
7, 5
4, 2
4, 4
7, 5
3, 3
2, 1
5, 6
7, 5
5, 9
7, 1
3, 3
4, 4
3, 4
6, 5
7, 11
5, 3
2, 7
9, 6
8, 6
5, 6
7, 4
4, 10
7, 9
7, 7
4, 5
2, 9
5, 6
6, 4
8, 4
4, 5
3, 8
5, 6
4, 3
5, 3
5, 4
2, 6
3, 2
7, 2
6, 1
4, 4
4, 9
3, 9
6, 3
6, 10
9, 13
9, 5
5, 9
10, 5
7, 11
12, 6
4, 7
5, 8
4, 4
10, 8
6, 7
8, 10
4, 5
8, 10
9, 3
5, 7
6, 4
1, 8
5, 6
8, 6
6, 7
5, 4
3, 2
5, 1
8, 4
4, 8
6, 6
8, 2
5, 4
4, 2
4, 5
1, 4
7, 2
1, 7
2, 8
4, 8
3, 2
5, 5
1, 1
6, 7
2, 6
5, 5
7, 6
5, 2
11, 4
2, 3
4, 3
3, 2
7, 2
4, 8
6, 2
4, 3
4, 4
5, 3
5, 4
7, 3
3, 3
3, 4
7, 3
3, 5
2, 4
7, 3
3, 4
9, 4
9, 1
9, 1
6, 2
7, 6
7, 5
8, 4
5, 1
6, 7
5, 3
0, 1
2, 6
2, 1
2, 3
2, 4
1, 5
2, 1
3, 7
3, 3
2, 3
2, 5
3, 0
2, 5
2, 2
3, 4
3, 1
5, 5
4, 1
3, 1
2, 2
2, 4
1, 1
7, 2
6, 2
4, 1
4, 3
5, 2
1, 5
0, 5
1, 2
2, 5
3, 3
2, 0
5, 2
2, 2
2, 5
3, 4
2, 2
2, 2
6, 2
4, 3
3, 3
3, 2
2, 0
0, 5
2, 0
3, 4
1, 3
2, 1
3, 5
2, 2
2, 1
5, 3
1, 2
7, 2
2, 4
0, 4
2, 1
5, 0
1, 2
2, 3
2, 3
1, 1
2, 3
2, 0
0, 4
3, 1
1, 2
3, 0
2, 1
1, 2
3, 2
1, 2
0, 4
2, 2
2, 1
1, 2
3, 0
2, 1
1, 4
2, 2
2, 3
4, 2
1, 0
0, 1
3, 1
0, 1
3, 2
2, 2
1, 1
1, 2
5, 4
1, 2
0, 4
2, 1
1, 2
4, 2
2, 1
4, 5
5, 2
3, 5
6, 7
6, 6
4, 6
2, 10
5, 6
9, 6
8, 5
6, 2
3, 2
2, 5
3, 1
1, 1
2, 0
3, 1
1, 0
1, 2
1, 1
3, 1
1, 0
3, 1
0, 1
1, 0
1, 1
2, 2
5, 0
2, 3
0, 2
1, 1
3, 2
3, 3
3, 2
4, 2
2, 4
4, 2
0, 2
2, 0
2, 1
3, 0
2, 3
1, 1
0, 0
0, 0
2, 2
0, 0
2, 0
3, 1
2, 0
0, 1
2, 0
2, 1
1, 2
2, 0
2, 2
2, 2
0, 1
0, 1
3, 1
1, 0
1, 0
2, 1
1, 2
0, 4
0, 0
3, 3
2, 0
1, 1
0, 1
0, 0
0, 2
1, 3
0, 2
0, 0
1, 1
0, 2
0, 2
0, 1
0, 0
0, 0
1, 0
2, 1
0, 1
0, 0
2, 1
1, 0
1, 2
0, 1
0, 0
0, 0
0, 2
0, 0
0, 1
0, 1
4, 0
0, 1
1, 0
0, 2
0, 0
0, 1
0, 0
1, 2
0, 0
0, 0
0, 2
1, 0
1, 0
1, 1
0, 0
1, 3
0, 0
0, 0
0, 0
0, 0
1, 1
1, 2
1, 1
1, 0
0, 0
0, 1
1, 1
1, 0
0, 1
0, 0
0, 0
1, 0
0, 0
1, 2
0, 1
0, 1
1, 0
0, 0
0, 1
0, 0
0, 1
1, 1
0, 0
0, 0
0, 1
0, 0
2, 0
0, 0
0, 0
0, 0
0, 0
0, 0
0, 0
0, 1
0, 1
1, 1
0, 0
0, 0
0, 0
0, 0
1, 0
1, 0
0, 1
1, 0
0, 1
0, 0
0, 0
0, 0
0, 1
0, 0
0, 1
0, 0
0, 1
3, 0
0, 0
0, 0
0, 0
0, 0
0, 1
0, 1
0, 0
2, 1
0, 2
0, 1
0, 0
1, 1
0, 1
1, 0
0, 0
0, 0
1, 0
0, 0
0, 0
1, 0
0, 1
1, 0
1, 1
0, 0
0, 0
1, 0
0, 1
0, 0
0, 0
0, 0
0, 0
0, 0
0, 0
0, 0
1, 0
0, 1
1, 0
0, 0
1, 0
0, 1
0, 0
0, 0
0, 0
0, 0
0, 0
1, 0
0, 0
0, 0
0, 1
0, 0
0, 1
0, 1
0, 0
1, 1
1, 0
1, 0
0, 0
1, 1
0, 0
0, 0
1, 0
0, 0
0, 0
0, 0
0, 0
0, 0
0, 0
0, 0
0, 0
0, 0
0, 0
0, 0
0, 0
0, 0
0, 1
1, 0
1, 1
0, 0
0, 0
0, 0
0, 0
0, 0
0, 0
0, 1
0, 0
0, 0
0, 0
0, 0
0, 0
1, 1
0, 0
0, 0
0, 0
0, 0
0, 0
0, 0
0, 0
0, 0
0, 0
1, 0
1, 0
0, 0
0, 0
0, 0
0, 0
0, 0
0, 0
0, 0
0, 0
1, 0
0, 0
0, 1
0, 0
0, 0
0, 0
0, 0
0, 0
0, 0
0, 0
0, 0
0, 0
0, 0
0, 0
0, 0
2, 0
0, 0
0, 0
0, 0
0, 0
0, 0
0, 0
0, 0
0, 0
0, 1
1, 1
0, 0
0, 0
0, 0
0, 0
0, 1
0, 0
0, 0
0, 1
0, 1
0, 0
0, 0
0, 2
0, 0
2, 0
1, 0
1, 0
0, 0
0, 0
0, 0
0, 0
1, 0
0, 0
0, 0
0, 0
0, 0
0, 0
0, 0
0, 0
0, 0
0, 0
1, 1
0, 0
0, 0
0, 0
0, 1
0, 0
0, 0
0, 0
1, 0
0, 0
0, 0
0, 0
0, 0
0, 0
0, 0
0, 0
0, 0
0, 0
0, 0
0, 0
0, 0
0, 0
0, 0
0, 0
0, 0
0, 0
0, 0
0, 0
0, 0
0, 0
0, 0
0, 0
0, 0
0, 0
0, 0
0, 0
0, 0
0, 0
0, 0
0, 0
0, 0
0, 0
0, 0
0, 0
0, 0
0, 0
0, 0
0, 0
0, 0
0, 0
0, 0
0, 0
0, 0
0, 0
0, 0
0, 0
0, 0
0, 0
0, 0
0, 0
0, 0
0, 0
0, 0
0, 0
0, 0
1, 0
0, 0
0, 0
0, 0
0, 0
0, 0
0, 0
0, 0
0, 0
0, 0
0, 0
0, 0
0, 0
0, 0
0, 0
0, 0
0, 0
0, 0
0, 1
0, 0
0, 0
0, 0
0, 0
0, 1
0, 0
0, 0
0, 0
0, 0
0, 0
0, 0
0, 0
0, 0
0, 0
0, 0
0, 0
0, 0
0, 0
0, 1
0, 0
0, 0
0, 0
0, 0
0, 0
0, 0
0, 0
0, 0
0, 0
0, 0
0, 0
0, 0
0, 0
0, 0
0, 0
0, 0
0, 0
0, 0
0, 0
0, 0
0, 0
0, 0
0, 0
0, 0
0, 0
0, 0
0, 0
0, 0
0, 0
1, 0
0, 0
0, 0
0, 0
0, 0
0, 0
0, 0
0, 0
0, 0
0, 0
0, 0
0, 0
0, 0
0, 0
0, 0
0, 0
0, 0
0, 0
0, 0
0, 0
0, 0
0, 0
0, 0
0, 0
0, 0
0, 0
0, 0
0, 0
0, 0
0, 0
0, 0
0, 0
0, 0
0, 0
0, 0
0, 0
0, 0
0, 0
0, 0
0, 0
0, 0
0, 0
0, 0
0, 0
0, 0
0, 0
0, 0
0, 0
0, 0
0, 0
0, 0
0, 0
0, 0
0, 0
0, 0
0, 0
0, 0
0, 0
0, 0
0, 0
0, 0
0, 0
0, 0
0, 0
0, 0
0, 0
0, 0
0, 0
0, 0
0, 0
0, 0
0, 0
0, 0
0, 0
0, 0
0, 0
0, 0
0, 0
0, 0
0, 0
0, 0
0, 0
0, 0
0, 0
0, 0
0, 0
1, 0
0, 0
0, 0
0, 0
0, 0
0, 0
0, 0
0, 0
0, 0
0, 0
0, 0
0, 0
0, 0
0, 0
0, 0
0, 0
0, 0
0, 0
0, 0
0, 0
0, 0
0, 0
0, 0
0, 0
0, 0
0, 0
0, 0
0, 0
0, 0
0, 0
0, 0
0, 0
0, 0
0, 0
0, 0
0, 0
0, 0
0, 0
0, 0
0, 0
0, 0
0, 0
0, 0
0, 0
0, 0
0, 0
0, 0
0, 0
0, 0
0, 0
0, 0
0, 0
0, 0
0, 0
0, 0
0, 0
0, 0
0, 0
0, 0
0, 0
0, 0
0, 0
0, 0
0, 0
0, 0
0, 0
0, 0
0, 0
0, 0
0, 0
0, 0
0, 0
0, 0
0, 0
0, 0
0, 0
0, 0
0, 0
0, 0
0, 0
0, 0
0, 0
0, 0
0, 0
0, 0
0, 0
0, 0
0, 0
0, 0
0, 0
0, 0
0, 0
0, 0
0, 0
0, 0
0, 0
0, 0
0, 0
0, 0
0, 0
0, 0
0, 0
0, 0
0, 0
0, 0
0, 0
0, 0
0, 0
0, 0
0, 0
0, 0
0, 0
0, 0
0, 0
0, 0
0, 0
0, 0
0, 0
0, 0
0, 0
0, 0
0, 0
0, 0
0, 0
0, 0
0, 0
0, 0
0, 0
0, 0
0, 0
0, 0
0, 0
0, 0
0, 0
0, 0
0, 0
0, 0
0, 0
0, 0
0, 0
0, 0
0, 0
0, 0
0, 0
0, 0
0, 0
0, 0
0, 0
0, 0
0, 0
0, 0
0, 0
0, 0
0, 0
0, 0
0, 0
0, 0
0, 0
0, 0
0, 0
0, 0
0, 0
0, 0
0, 0
0, 0
0, 0
0, 0
0, 0
0, 0
0, 0
0, 0
0, 0
0, 0
0, 0
0, 0
0, 0
0, 0
0, 0
0, 0
0, 0
0, 0
0, 0
0, 0
0, 0
0, 0
0, 0
0, 0
0, 0
0, 0
0, 0
0, 0
0, 0
0, 0
0, 0
0, 0
0, 0
0, 0
0, 0
0, 0
0, 0
0, 0
0, 0
0, 0
0, 0
0, 0
0, 0
0, 0
0, 0
0, 0
0, 0
0, 0
0, 0
0, 0
0, 0
0, 0
0, 0
0, 0
0, 0
0, 0
0, 0
0, 0
0, 0
0, 0
0, 0
0, 0
0, 0
0, 0
0, 0
0, 0
0, 0
0, 0
0, 0
0, 0
0, 0
0, 0
0, 0
0, 0
0, 0
0, 0
0, 0
0, 0
0, 0
0, 0
0, 0
0, 0
0, 0
0, 0
0, 0
0, 0
0, 0
0, 0
0, 0
0, 0
0, 0
0, 0
0, 0
0, 0
0, 0
0, 0
0, 0
0, 0
0, 0
0, 0
0, 0
0, 0
0, 0
0, 0
0, 0
0, 0
0, 0
0, 0
0, 0
0, 0
0, 0
0, 0
0, 0
0, 0
#ENDOFDATA     end of spectrum data