File: host_upload/12-01-2023/Dourbes (shot-by-shot)/upload_4/ps__0257_0689790785_000rfs_shot_3294.msa
#FORMAT      : EMSA/MAS spectral data file
#VERSION     : TC202v2.0 PIXL
#TITLE       : N/A
#DATE        :       Date in the format DD-MMM-YYYY, for example 07-JUL-2010
#TIME        :             The time of day at which the spectrum was recorded, in 24-hour format
#OWNER       : PIXL Flight Model       (PIXL will use this to indicate which instrument took the data.)
#NPOINTS     : 4096     Number of data points in the spectrum (This can be zero for configuration only files)
#NCOLUMNS    : 2     Number of data columns in the spectrum (This can be zero for configuration only files)
#XUNITS      : eV
#YUNITS      : COUNTS
#DATATYPE    : YY
#XPERCHAN    : 7.862, 7.881   eV per channel (separate by commas if more than one detector)
#OFFSET      : 18.5, -22.4         eV of first channel  (separate by commas if more than one detector
#SIGNALTYPE  : XRF
#YP_TEMP     : 2.909
#LIVETIME    : 8.9898, 9.00908   seconds (separate by commas if more than one detector)
#REALTIME    : 10, 10.0   seconds (separate by commas if more than one detector)
#SPECTRUM    : start of spectrum data
0, 0
0, 0
0, 0
0, 0
0, 0
0, 0
0, 0
0, 0
0, 0
0, 0
0, 0
0, 0
0, 0
0, 0
0, 0
0, 0
0, 0
0, 0
0, 0
0, 0
0, 0
0, 0
0, 0
0, 0
0, 0
0, 0
0, 0
0, 0
0, 0
0, 0
0, 0
0, 0
0, 0
0, 0
0, 0
1, 0
0, 0
0, 0
2, 0
1, 0
0, 0
2, 0
2, 0
3, 1
3, 1
1, 1
2, 0
6, 2
6, 2
9, 6
20, 19
20, 24
42, 40
60, 41
67, 59
62, 51
37, 42
21, 25
14, 11
8, 8
4, 3
5, 5
4, 8
6, 10
5, 4
2, 5
8, 10
7, 6
20, 12
27, 23
101, 76
157, 128
294, 238
388, 366
497, 468
465, 463
443, 391
318, 291
196, 166
105, 98
64, 41
21, 25
13, 13
8, 11
8, 3
6, 4
5, 3
8, 2
3, 3
3, 5
2, 2
3, 3
4, 0
2, 1
3, 3
2, 5
15, 7
6, 14
6, 9
10, 13
11, 7
3, 6
9, 11
4, 10
2, 5
6, 8
3, 3
7, 7
7, 7
15, 14
7, 12
17, 13
31, 18
39, 31
32, 41
38, 29
38, 28
45, 18
25, 27
19, 28
13, 16
32, 23
25, 25
17, 16
18, 12
15, 10
9, 11
8, 7
8, 4
8, 4
5, 2
4, 3
6, 6
11, 6
7, 4
10, 1
7, 3
18, 4
7, 6
11, 3
13, 3
10, 3
6, 1
5, 4
1, 1
3, 2
4, 2
1, 1
0, 2
1, 4
5, 6
2, 4
3, 10
8, 12
8, 28
18, 36
32, 29
44, 48
37, 25
29, 31
18, 28
15, 14
6, 16
9, 35
6, 68
9, 75
6, 94
7, 104
14, 108
13, 108
18, 50
18, 31
12, 33
7, 17
13, 19
11, 11
3, 12
6, 10
9, 6
4, 7
12, 7
9, 11
12, 2
11, 6
10, 7
9, 6
5, 8
5, 5
10, 8
11, 8
7, 19
16, 9
10, 11
16, 7
12, 14
17, 17
14, 19
26, 18
22, 17
36, 18
56, 13
68, 12
97, 9
108, 8
123, 8
120, 6
128, 9
114, 8
93, 8
69, 12
42, 9
24, 11
17, 12
11, 3
9, 5
4, 4
7, 3
6, 4
11, 6
9, 7
6, 5
9, 6
11, 9
5, 6
6, 8
10, 8
12, 11
13, 12
5, 13
11, 13
11, 10
10, 10
14, 13
9, 9
12, 16
13, 10
15, 10
12, 10
12, 7
12, 12
10, 12
9, 6
13, 10
13, 15
14, 15
31, 32
31, 50
53, 68
81, 84
91, 98
123, 116
112, 80
85, 92
76, 70
60, 44
49, 45
29, 35
36, 18
29, 14
16, 22
28, 27
38, 36
56, 63
89, 106
193, 188
380, 433
721, 769
1120, 1289
1888, 1983
2552, 2723
3282, 3341
3861, 3819
4119, 3746
3838, 3334
3263, 2862
2522, 2032
1812, 1370
1121, 840
625, 454
363, 230
188, 114
74, 41
43, 26
25, 13
16, 17
14, 15
11, 22
13, 11
18, 25
21, 20
28, 20
37, 41
67, 69
93, 119
153, 160
217, 243
322, 307
421, 454
502, 495
569, 547
612, 568
519, 502
454, 389
317, 253
246, 204
154, 115
96, 66
59, 50
31, 17
14, 14
6, 10
3, 6
11, 11
6, 7
6, 8
3, 7
6, 9
3, 10
5, 11
4, 4
6, 5
5, 3
5, 2
5, 6
5, 2
2, 3
3, 8
3, 12
3, 13
1, 32
4, 25
0, 26
8, 35
4, 30
8, 24
7, 28
7, 33
8, 33
9, 11
13, 11
34, 10
20, 7
20, 9
21, 8
12, 3
13, 1
7, 2
14, 6
5, 2
7, 2
9, 3
3, 5
5, 1
1, 1
5, 2
1, 4
7, 1
1, 7
1, 2
6, 6
1, 6
3, 3
3, 3
5, 2
4, 2
4, 8
3, 4
2, 4
6, 3
0, 3
6, 1
1, 4
2, 3
3, 5
3, 4
1, 9
0, 6
5, 4
3, 6
7, 6
2, 5
5, 4
3, 1
3, 4
3, 4
4, 5
1, 3
2, 4
2, 4
4, 4
3, 5
1, 5
4, 5
1, 8
0, 3
2, 7
3, 3
5, 5
4, 5
4, 4
4, 2
2, 0
6, 3
7, 2
3, 1
6, 3
6, 3
7, 6
5, 1
9, 2
6, 3
1, 2
2, 3
8, 0
3, 2
4, 2
6, 0
1, 4
3, 2
2, 1
4, 2
1, 3
2, 1
0, 2
4, 0
4, 0
3, 1
5, 2
4, 3
1, 5
5, 5
3, 1
6, 2
5, 1
10, 3
10, 6
16, 3
12, 1
11, 0
14, 3
11, 4
9, 3
13, 2
9, 0
6, 3
8, 4
5, 2
5, 3
1, 0
1, 3
1, 7
4, 2
1, 5
0, 2
2, 2
3, 3
0, 2
2, 12
2, 4
1, 1
2, 5
1, 2
2, 5
2, 1
3, 10
0, 5
2, 2
3, 3
1, 1
3, 1
3, 4
2, 2
1, 2
5, 2
4, 1
3, 4
5, 2
3, 0
1, 4
2, 3
2, 3
3, 3
3, 3
1, 5
2, 3
2, 2
2, 1
2, 4
1, 0
3, 2
1, 2
2, 1
1, 3
1, 0
3, 2
4, 3
2, 0
1, 2
2, 6
3, 2
2, 1
2, 2
2, 1
3, 2
2, 0
2, 1
2, 5
1, 1
3, 1
7, 1
2, 3
0, 0
0, 2
2, 2
1, 0
2, 2
2, 1
2, 3
1, 2
1, 1
3, 2
1, 5
2, 1
1, 5
0, 2
0, 1
2, 1
0, 1
2, 1
1, 3
1, 1
0, 3
1, 0
1, 2
2, 4
4, 4
8, 5
5, 6
5, 7
10, 4
4, 7
7, 8
10, 3
6, 7
4, 2
7, 8
6, 8
3, 4
1, 3
0, 3
0, 1
1, 1
0, 1
3, 2
0, 3
2, 3
2, 1
0, 3
1, 1
2, 1
3, 1
0, 0
1, 1
3, 1
0, 2
2, 4
0, 2
5, 0
2, 2
4, 4
0, 1
3, 0
2, 4
3, 2
1, 4
4, 2
0, 4
0, 1
1, 2
0, 2
1, 0
1, 4
1, 0
0, 2
1, 0
0, 0
0, 1
1, 0
0, 1
0, 0
1, 0
2, 1
1, 0
1, 0
1, 1
2, 0
1, 0
1, 0
1, 0
2, 0
4, 3
2, 1
3, 3
3, 3
2, 2
4, 0
3, 0
0, 2
5, 0
2, 0
4, 0
4, 0
1, 0
1, 0
0, 0
1, 2
0, 0
4, 0
1, 0
0, 1
1, 0
1, 1
1, 1
1, 0
1, 1
0, 1
0, 1
0, 1
1, 1
0, 2
0, 1
1, 1
0, 1
1, 0
0, 0
2, 1
0, 0
1, 1
0, 1
0, 1
1, 0
0, 0
2, 0
1, 0
0, 0
0, 1
0, 0
1, 1
0, 1
1, 1
1, 0
0, 1
0, 1
0, 1
0, 1
0, 0
1, 0
2, 0
0, 0
0, 1
0, 0
0, 2
0, 0
2, 1
1, 1
0, 0
0, 1
2, 1
1, 0
0, 0
0, 1
0, 0
0, 1
0, 0
0, 1
0, 0
0, 1
0, 0
0, 1
0, 0
1, 0
1, 0
0, 0
0, 0
0, 1
0, 2
0, 0
0, 0
0, 0
1, 0
0, 0
0, 0
0, 0
1, 1
1, 0
0, 0
0, 2
0, 0
0, 0
0, 2
1, 1
0, 0
1, 1
0, 1
0, 1
1, 0
0, 0
0, 0
1, 1
0, 0
0, 0
0, 0
2, 1
0, 1
0, 1
0, 0
1, 0
0, 1
1, 0
1, 1
0, 0
1, 1
0, 0
0, 0
0, 0
0, 0
0, 0
0, 0
0, 2
1, 0
0, 0
0, 0
0, 0
0, 0
0, 0
0, 0
0, 0
0, 0
0, 0
1, 1
1, 0
0, 0
0, 0
0, 0
0, 0
0, 0
0, 0
0, 1
0, 0
0, 2
0, 0
0, 0
0, 0
0, 0
1, 0
0, 0
0, 0
0, 0
1, 0
1, 0
1, 0
0, 0
0, 0
0, 0
0, 0
1, 0
0, 0
0, 0
0, 0
0, 0
0, 0
1, 0
0, 0
0, 0
1, 1
0, 0
0, 0
0, 1
0, 0
0, 0
0, 0
0, 0
0, 0
0, 0
0, 0
0, 0
0, 0
0, 0
0, 0
0, 0
0, 0
0, 0
1, 0
0, 0
1, 0
1, 1
0, 1
0, 0
0, 0
1, 0
0, 0
1, 0
0, 0
0, 1
0, 0
0, 0
1, 0
0, 0
1, 0
0, 0
0, 0
0, 0
0, 0
0, 1
0, 0
0, 0
0, 0
1, 0
0, 0
0, 1
0, 0
1, 0
0, 0
0, 0
0, 0
0, 0
0, 0
2, 0
0, 0
0, 0
0, 0
0, 0
0, 0
0, 0
0, 0
0, 0
0, 0
0, 0
0, 0
0, 0
0, 0
1, 0
0, 0
0, 0
0, 0
1, 0
0, 0
0, 0
0, 0
1, 0
2, 0
0, 0
0, 0
1, 0
0, 1
0, 0
0, 0
0, 0
0, 0
0, 0
1, 0
0, 0
0, 1
0, 0
0, 0
0, 0
0, 0
0, 0
0, 0
0, 0
1, 0
0, 0
1, 1
0, 0
1, 0
0, 0
0, 0
0, 0
0, 0
1, 0
0, 0
0, 0
0, 0
0, 0
0, 1
0, 0
0, 0
0, 0
0, 0
0, 0
0, 0
0, 0
0, 0
0, 0
0, 0
0, 0
0, 0
0, 0
0, 0
0, 0
0, 0
1, 0
0, 0
0, 0
0, 0
0, 0
0, 0
0, 0
0, 0
0, 0
0, 0
0, 0
0, 1
0, 0
0, 0
0, 0
0, 0
0, 0
0, 0
0, 0
0, 0
0, 0
0, 0
0, 0
0, 0
0, 0
0, 1
0, 0
0, 0
0, 0
0, 0
0, 0
0, 0
0, 0
0, 0
0, 0
0, 0
0, 0
0, 0
0, 0
0, 0
0, 0
0, 0
0, 0
0, 0
0, 0
0, 0
0, 0
0, 0
0, 0
0, 0
0, 1
0, 0
0, 0
0, 0
0, 0
0, 0
0, 0
0, 0
0, 0
0, 0
0, 1
0, 0
0, 0
0, 0
0, 0
0, 0
0, 0
0, 0
0, 0
0, 0
0, 0
0, 0
0, 0
0, 0
0, 0
0, 0
0, 0
0, 0
0, 0
0, 0
0, 0
0, 1
0, 0
0, 0
0, 0
0, 0
0, 0
0, 0
0, 0
0, 0
0, 0
0, 0
0, 0
0, 0
0, 0
0, 0
0, 0
0, 0
0, 0
0, 0
0, 0
0, 0
0, 0
0, 1
0, 0
0, 0
0, 0
0, 0
0, 0
0, 0
0, 0
1, 0
0, 0
0, 0
0, 0
0, 0
0, 0
0, 0
1, 0
0, 0
0, 0
0, 0
0, 0
0, 0
0, 0
0, 0
0, 0
0, 0
0, 0
0, 0
0, 0
0, 0
0, 0
0, 0
0, 0
0, 0
0, 0
0, 0
0, 0
0, 0
0, 0
0, 0
0, 0
0, 0
0, 0
0, 0
0, 0
0, 0
0, 0
0, 0
0, 0
0, 0
0, 0
0, 0
0, 0
0, 0
0, 0
0, 0
0, 0
0, 0
0, 0
0, 0
0, 0
0, 0
0, 0
0, 0
0, 0
0, 0
0, 0
0, 0
0, 0
0, 0
0, 0
0, 0
0, 0
0, 0
0, 0
0, 0
0, 0
0, 0
0, 0
0, 0
0, 0
0, 0
0, 0
0, 0
0, 0
0, 0
0, 0
0, 0
0, 0
0, 0
0, 0
0, 0
0, 0
0, 0
0, 0
0, 0
0, 0
0, 0
0, 0
0, 0
0, 0
0, 0
0, 0
0, 0
0, 0
0, 0
0, 0
0, 0
0, 0
0, 0
0, 0
0, 0
0, 0
0, 0
0, 0
0, 0
0, 0
0, 0
0, 0
0, 0
0, 0
0, 0
0, 0
0, 0
0, 0
0, 0
0, 0
0, 0
0, 0
0, 0
0, 0
0, 0
0, 0
0, 0
0, 0
0, 0
0, 0
0, 0
0, 0
0, 0
0, 0
0, 0
0, 0
0, 0
0, 0
0, 0
0, 0
0, 0
0, 0
0, 0
0, 0
0, 0
0, 0
0, 0
0, 0
0, 0
0, 0
0, 0
0, 0
0, 0
0, 0
0, 0
0, 0
0, 0
0, 0
0, 0
0, 0
0, 0
0, 0
0, 0
0, 0
0, 0
0, 0
0, 0
0, 0
0, 0
0, 0
0, 0
0, 0
0, 0
0, 0
0, 0
0, 0
0, 0
0, 0
0, 0
0, 0
0, 0
0, 0
0, 0
0, 0
0, 0
0, 0
0, 0
0, 0
0, 0
0, 0
0, 0
0, 0
0, 0
0, 0
0, 0
0, 0
0, 0
0, 0
0, 0
0, 0
0, 0
0, 0
0, 0
0, 0
0, 0
0, 0
0, 0
0, 0
0, 0
0, 0
0, 0
0, 0
0, 0
0, 0
0, 0
0, 0
0, 0
0, 0
0, 0
0, 0
0, 0
0, 0
0, 0
0, 0
0, 0
0, 0
0, 0
0, 0
0, 0
0, 0
0, 0
0, 0
0, 0
0, 0
0, 0
0, 0
0, 0
0, 0
0, 0
0, 0
0, 0
0, 0
0, 0
0, 0
0, 0
0, 0
0, 0
0, 0
0, 0
0, 0
0, 0
0, 0
0, 0
0, 0
0, 0
0, 0
0, 0
0, 0
0, 0
0, 0
0, 0
0, 0
0, 0
0, 0
0, 0
0, 0
0, 0
0, 0
0, 0
0, 0
0, 0
0, 0
0, 0
0, 0
0, 0
0, 0
0, 0
0, 0
0, 0
0, 0
0, 0
0, 0
0, 0
0, 0
0, 0
0, 0
0, 0
0, 0
0, 0
0, 0
0, 0
0, 0
0, 0
0, 0
0, 0
0, 0
0, 0
0, 0
0, 0
0, 0
0, 0
0, 0
0, 0
0, 0
0, 0
0, 0
0, 0
0, 0
0, 0
0, 0
0, 0
0, 0
0, 0
0, 0
0, 0
0, 0
0, 0
0, 0
0, 0
0, 0
0, 0
0, 0
0, 0
0, 0
0, 0
0, 0
0, 0
0, 0
0, 0
0, 0
0, 0
0, 0
0, 0
0, 0
0, 0
0, 0
0, 0
0, 0
0, 0
0, 0
0, 0
0, 0
0, 0
0, 0
0, 0
0, 0
0, 0
0, 0
0, 0
0, 0
0, 0
0, 0
0, 0
0, 0
0, 0
0, 0
#ENDOFDATA     end of spectrum data