File: host_upload/12-01-2023/Dourbes (shot-by-shot)/upload_4/ps__0257_0689790785_000rfs_shot_3019.msa
#FORMAT      : EMSA/MAS spectral data file
#VERSION     : TC202v2.0 PIXL
#TITLE       : N/A
#DATE        :       Date in the format DD-MMM-YYYY, for example 07-JUL-2010
#TIME        :             The time of day at which the spectrum was recorded, in 24-hour format
#OWNER       : PIXL Flight Model       (PIXL will use this to indicate which instrument took the data.)
#NPOINTS     : 4096     Number of data points in the spectrum (This can be zero for configuration only files)
#NCOLUMNS    : 2     Number of data columns in the spectrum (This can be zero for configuration only files)
#XUNITS      : eV
#YUNITS      : COUNTS
#DATATYPE    : YY
#XPERCHAN    : 7.862, 7.881   eV per channel (separate by commas if more than one detector)
#OFFSET      : 18.5, -22.4         eV of first channel  (separate by commas if more than one detector
#SIGNALTYPE  : XRF
#YP_TEMP     : 2.909
#LIVETIME    : 9.01165, 8.99202   seconds (separate by commas if more than one detector)
#REALTIME    : 10, 10.0   seconds (separate by commas if more than one detector)
#SPECTRUM    : start of spectrum data
0, 0
0, 0
0, 0
0, 0
0, 0
0, 0
0, 0
0, 0
0, 0
0, 0
0, 0
0, 0
0, 0
0, 0
0, 0
0, 0
0, 0
0, 0
0, 0
0, 0
0, 0
0, 0
0, 0
0, 0
0, 0
0, 0
0, 0
0, 0
0, 0
0, 0
0, 0
0, 0
0, 0
0, 0
0, 0
0, 0
0, 1
1, 0
1, 1
0, 0
0, 2
0, 1
1, 0
1, 0
1, 0
0, 0
1, 0
1, 4
2, 2
4, 7
10, 11
23, 27
42, 42
56, 68
62, 63
50, 58
34, 38
24, 26
14, 18
13, 3
6, 4
4, 1
1, 0
3, 2
4, 8
3, 4
8, 4
6, 4
18, 17
24, 30
75, 77
170, 155
260, 283
379, 388
483, 466
467, 480
441, 408
284, 328
176, 201
85, 103
65, 70
24, 30
12, 12
9, 6
3, 7
2, 2
0, 2
3, 4
3, 2
1, 4
9, 0
14, 0
32, 0
29, 3
49, 7
58, 8
55, 14
51, 8
63, 11
48, 21
30, 14
15, 14
10, 3
4, 7
9, 3
2, 6
3, 6
4, 3
6, 8
9, 3
15, 16
23, 26
29, 21
29, 22
27, 29
35, 16
37, 28
26, 32
23, 21
28, 12
10, 19
21, 12
15, 12
19, 19
4, 15
11, 8
11, 12
7, 10
3, 10
4, 4
4, 11
4, 3
2, 8
5, 4
6, 1
1, 2
4, 2
3, 0
3, 2
2, 2
1, 1
2, 6
2, 2
0, 2
0, 0
2, 2
4, 1
2, 3
0, 1
2, 3
1, 4
1, 3
5, 8
13, 16
19, 26
16, 24
24, 46
19, 52
17, 51
20, 49
16, 57
11, 36
7, 19
5, 17
1, 10
2, 6
3, 8
2, 4
9, 5
6, 7
8, 6
5, 7
3, 6
3, 6
4, 5
2, 8
0, 0
4, 6
2, 1
4, 5
3, 1
3, 1
2, 4
3, 4
3, 4
6, 2
3, 2
3, 3
2, 9
7, 8
8, 10
10, 11
18, 20
13, 14
16, 19
19, 11
17, 13
19, 26
25, 15
11, 22
13, 18
14, 9
7, 9
6, 10
6, 7
10, 4
8, 2
7, 7
6, 9
5, 4
5, 5
7, 4
9, 9
6, 7
14, 12
11, 10
9, 8
6, 12
11, 6
5, 15
5, 7
8, 6
8, 9
7, 16
6, 19
5, 13
4, 27
4, 41
7, 67
16, 81
11, 114
3, 142
11, 170
8, 166
18, 144
7, 129
5, 112
11, 74
10, 61
15, 31
3, 15
4, 13
4, 10
17, 12
22, 15
25, 39
37, 40
57, 52
57, 70
64, 93
93, 113
76, 98
104, 105
79, 73
62, 46
46, 41
41, 38
26, 34
18, 23
22, 17
21, 25
29, 29
53, 55
87, 135
138, 266
358, 396
590, 799
1052, 1360
1736, 2071
2316, 2833
2929, 3508
3500, 4002
3700, 3959
3551, 3597
3197, 3059
2435, 2197
1720, 1433
1079, 944
650, 523
340, 295
184, 128
88, 68
54, 35
32, 30
36, 22
22, 23
23, 15
31, 15
29, 24
29, 34
26, 33
46, 48
64, 68
80, 96
132, 173
209, 249
329, 344
369, 410
429, 523
510, 595
501, 548
546, 490
475, 423
320, 316
239, 178
144, 120
88, 66
51, 34
26, 20
13, 8
7, 7
4, 6
3, 2
7, 4
6, 8
3, 8
5, 11
5, 17
6, 7
3, 6
4, 12
11, 11
9, 5
2, 4
4, 7
3, 3
6, 6
3, 1
2, 2
4, 4
3, 2
3, 2
2, 4
8, 2
2, 4
2, 2
5, 3
3, 1
3, 2
3, 3
5, 2
4, 5
3, 2
2, 5
3, 3
2, 2
3, 5
6, 3
4, 2
3, 7
1, 3
4, 5
2, 5
4, 1
4, 5
2, 2
3, 2
3, 3
2, 2
4, 2
4, 0
2, 4
3, 7
3, 1
4, 2
4, 6
1, 5
7, 2
4, 9
4, 6
5, 7
2, 11
4, 13
3, 10
0, 16
2, 13
5, 21
8, 13
6, 12
9, 10
3, 10
8, 11
3, 9
2, 2
7, 1
4, 2
3, 5
7, 3
6, 6
3, 2
3, 3
2, 2
1, 5
1, 2
5, 4
4, 4
0, 4
2, 0
2, 2
1, 3
3, 4
4, 3
1, 3
2, 7
3, 2
2, 7
1, 5
2, 7
5, 7
2, 3
6, 6
2, 5
0, 6
1, 3
1, 3
2, 3
1, 2
0, 0
2, 3
0, 0
1, 5
2, 2
3, 0
1, 1
1, 7
2, 3
3, 3
2, 1
1, 1
1, 1
3, 3
0, 2
1, 4
0, 1
3, 2
4, 3
0, 1
0, 1
3, 2
0, 2
2, 2
2, 5
2, 3
6, 2
1, 1
4, 4
2, 4
1, 2
2, 3
1, 3
1, 4
1, 8
2, 5
3, 6
2, 1
2, 5
2, 3
2, 0
5, 8
0, 10
1, 6
3, 10
1, 11
0, 8
3, 10
4, 12
1, 10
1, 11
1, 10
2, 6
2, 5
1, 3
6, 7
5, 1
2, 3
5, 1
2, 3
5, 1
2, 0
5, 0
3, 2
4, 1
3, 2
1, 1
3, 2
7, 1
0, 2
1, 2
1, 3
0, 1
2, 0
0, 2
1, 3
0, 1
1, 2
2, 0
2, 0
0, 4
2, 2
2, 1
1, 1
2, 0
1, 3
2, 3
3, 3
3, 1
0, 3
3, 1
2, 2
1, 1
0, 1
0, 0
3, 1
0, 3
1, 2
1, 2
0, 2
0, 2
1, 3
1, 2
2, 4
1, 6
4, 1
3, 5
2, 8
2, 2
3, 1
1, 3
1, 2
3, 2
3, 1
2, 0
1, 1
3, 1
2, 4
4, 3
3, 2
4, 4
4, 5
2, 8
6, 9
5, 4
10, 6
10, 6
5, 3
6, 5
10, 3
5, 2
2, 5
1, 4
1, 2
4, 1
6, 2
1, 2
2, 2
1, 4
1, 1
3, 1
1, 2
0, 0
0, 2
2, 2
0, 4
3, 2
0, 0
2, 1
1, 3
1, 4
2, 3
5, 2
4, 0
2, 3
6, 4
1, 4
0, 3
2, 0
3, 2
1, 1
3, 1
2, 2
2, 0
1, 2
0, 1
0, 1
1, 2
1, 2
1, 1
1, 3
2, 1
1, 0
1, 1
0, 1
1, 0
1, 0
0, 3
0, 1
1, 2
3, 2
4, 0
0, 1
0, 0
0, 1
0, 3
1, 0
0, 0
1, 2
1, 0
0, 0
0, 2
1, 1
0, 0
1, 0
0, 1
1, 1
0, 1
1, 1
1, 3
0, 0
0, 0
0, 3
0, 1
0, 1
0, 1
0, 0
0, 0
0, 0
0, 0
2, 0
1, 2
0, 0
0, 0
1, 0
0, 0
1, 0
0, 0
1, 2
0, 1
0, 0
1, 0
0, 1
2, 1
0, 0
0, 1
1, 0
0, 1
0, 0
0, 2
1, 0
0, 0
1, 1
0, 1
0, 1
0, 0
1, 1
1, 1
1, 0
0, 1
1, 1
0, 0
0, 0
0, 1
1, 1
0, 1
0, 2
2, 0
0, 0
0, 0
0, 2
0, 0
0, 0
0, 1
1, 0
1, 0
0, 0
1, 0
0, 0
0, 0
0, 0
0, 0
1, 2
0, 0
0, 1
1, 0
0, 0
0, 0
0, 1
0, 1
0, 1
0, 0
0, 0
0, 1
0, 0
0, 0
0, 0
0, 0
0, 0
0, 0
1, 1
0, 1
0, 0
0, 1
0, 0
0, 1
0, 0
0, 0
0, 0
1, 0
0, 0
1, 0
1, 1
0, 0
1, 0
0, 0
1, 0
0, 0
0, 0
0, 0
0, 0
0, 1
0, 1
1, 0
0, 1
0, 0
1, 0
1, 0
0, 0
0, 0
0, 0
0, 2
0, 0
0, 0
0, 0
0, 0
0, 0
0, 0
0, 0
0, 0
0, 0
1, 0
0, 3
0, 0
0, 1
1, 0
0, 0
0, 0
0, 0
0, 1
0, 1
0, 1
0, 0
0, 0
0, 0
0, 1
0, 0
0, 0
0, 0
0, 0
0, 0
3, 0
0, 0
0, 0
0, 0
0, 0
0, 0
0, 1
1, 0
2, 0
0, 0
0, 0
0, 0
0, 0
1, 2
0, 0
0, 1
0, 0
0, 0
0, 0
0, 0
0, 1
0, 0
0, 0
0, 1
0, 0
2, 0
0, 1
0, 0
0, 1
0, 0
1, 0
0, 0
0, 1
0, 0
0, 0
0, 0
0, 0
0, 0
0, 1
0, 1
0, 0
1, 1
0, 0
0, 0
1, 0
0, 0
1, 0
0, 0
0, 0
0, 0
0, 0
0, 0
0, 0
0, 0
1, 1
0, 0
0, 0
0, 0
0, 0
1, 1
0, 0
0, 0
0, 0
0, 0
0, 0
0, 0
0, 0
1, 0
0, 1
0, 0
2, 0
0, 0
0, 0
0, 0
0, 0
1, 0
1, 0
0, 0
0, 0
0, 0
0, 0
0, 0
0, 1
0, 0
0, 0
0, 0
1, 0
0, 1
0, 0
0, 0
0, 0
0, 0
1, 0
0, 0
0, 1
0, 0
0, 0
0, 1
1, 0
0, 0
0, 0
0, 0
1, 0
0, 0
1, 0
0, 0
0, 0
0, 0
0, 0
0, 0
0, 0
0, 1
0, 0
0, 0
0, 0
0, 0
0, 0
0, 0
0, 0
0, 0
0, 0
0, 0
0, 0
0, 0
0, 0
0, 0
0, 0
0, 1
0, 0
0, 0
0, 0
0, 0
0, 0
0, 1
0, 0
0, 0
0, 0
0, 0
0, 0
0, 0
0, 0
0, 0
0, 0
0, 0
0, 0
0, 0
0, 0
0, 1
0, 0
0, 0
0, 0
0, 0
0, 0
0, 0
1, 0
0, 0
0, 0
0, 0
0, 0
0, 0
0, 0
0, 0
0, 1
0, 0
0, 0
0, 0
0, 0
0, 0
0, 0
0, 0
0, 0
0, 0
0, 0
0, 0
0, 0
0, 0
0, 0
0, 0
0, 0
0, 0
0, 0
0, 0
0, 1
0, 0
0, 0
0, 0
0, 0
0, 0
0, 0
0, 0
0, 0
0, 0
0, 1
0, 0
0, 0
0, 0
0, 0
0, 0
0, 0
0, 0
0, 0
0, 0
0, 0
0, 0
0, 0
0, 0
0, 0
0, 0
0, 0
0, 0
0, 0
0, 0
0, 0
0, 0
0, 0
0, 0
0, 0
0, 0
0, 0
0, 0
1, 0
0, 0
0, 0
0, 0
0, 0
0, 0
0, 0
0, 0
0, 0
0, 0
0, 0
0, 0
1, 0
0, 0
0, 0
0, 0
0, 0
0, 0
1, 0
0, 0
0, 0
0, 0
0, 0
0, 0
0, 0
0, 0
0, 0
0, 0
0, 0
0, 0
0, 0
0, 0
0, 0
0, 0
0, 0
0, 0
0, 0
0, 0
0, 0
0, 0
0, 0
0, 0
0, 0
0, 0
0, 0
0, 0
0, 0
0, 0
0, 0
0, 0
0, 0
0, 0
0, 0
0, 0
0, 1
0, 0
0, 0
0, 0
0, 0
0, 0
0, 0
0, 0
0, 0
0, 0
0, 0
0, 0
0, 0
0, 0
0, 0
0, 0
0, 0
0, 0
0, 0
0, 0
0, 0
0, 0
0, 0
0, 0
0, 0
0, 0
0, 0
0, 0
0, 0
0, 0
0, 0
0, 0
0, 0
0, 0
0, 0
0, 0
0, 0
0, 0
0, 0
0, 0
0, 0
0, 0
0, 0
0, 0
0, 0
0, 0
0, 0
0, 0
0, 0
0, 0
0, 0
0, 0
0, 0
0, 0
0, 1
0, 0
0, 0
0, 0
0, 0
0, 0
0, 0
0, 0
0, 0
0, 0
0, 0
0, 0
0, 0
0, 0
0, 0
0, 0
0, 0
0, 0
0, 0
0, 0
0, 0
0, 0
0, 0
0, 0
0, 0
0, 0
0, 0
0, 0
0, 0
0, 0
0, 0
0, 0
0, 0
0, 0
0, 0
0, 0
0, 0
0, 0
0, 0
0, 0
0, 0
0, 0
0, 0
0, 0
0, 0
0, 0
0, 0
0, 0
0, 0
0, 0
0, 0
0, 0
0, 0
0, 0
0, 0
0, 0
0, 0
0, 0
0, 0
0, 0
0, 0
0, 0
0, 0
0, 0
0, 0
0, 0
0, 0
0, 0
0, 0
0, 0
0, 0
0, 0
0, 0
0, 0
0, 0
0, 0
0, 0
0, 0
0, 0
0, 0
0, 0
0, 0
0, 0
0, 0
0, 0
0, 0
0, 0
0, 0
0, 0
0, 0
0, 0
0, 0
0, 0
0, 0
0, 0
0, 0
0, 0
0, 0
0, 0
0, 0
0, 0
0, 0
0, 0
0, 0
0, 0
0, 0
0, 0
0, 0
0, 0
0, 0
0, 0
0, 0
0, 0
0, 0
0, 0
0, 0
0, 0
0, 0
0, 0
0, 0
0, 0
0, 0
0, 0
0, 0
0, 0
0, 0
0, 0
0, 0
0, 0
0, 0
0, 0
0, 0
0, 0
0, 0
0, 0
0, 0
0, 0
0, 0
0, 0
0, 0
0, 0
0, 0
0, 0
0, 0
0, 0
0, 0
0, 0
0, 0
0, 0
0, 0
0, 0
0, 0
0, 0
0, 0
0, 0
0, 0
0, 0
0, 0
0, 0
0, 0
0, 0
0, 0
0, 0
0, 0
0, 0
0, 0
0, 0
0, 0
0, 0
0, 0
0, 0
0, 0
0, 0
0, 0
0, 0
0, 0
0, 0
0, 0
0, 0
0, 0
0, 0
0, 0
0, 0
0, 0
0, 0
0, 0
0, 0
0, 0
0, 0
0, 0
0, 0
0, 0
0, 0
0, 0
0, 0
0, 0
0, 0
0, 0
0, 0
0, 0
0, 0
0, 0
0, 0
0, 0
0, 0
0, 0
0, 0
0, 0
0, 0
0, 0
0, 0
0, 0
0, 0
0, 0
0, 0
0, 0
0, 0
0, 0
0, 0
0, 0
0, 0
0, 0
0, 0
0, 0
0, 0
0, 0
0, 0
0, 0
0, 0
0, 0
0, 0
0, 0
0, 0
0, 0
0, 0
0, 0
0, 0
0, 0
0, 0
0, 0
0, 0
0, 0
0, 0
0, 0
0, 0
0, 0
0, 0
0, 0
0, 0
0, 0
0, 0
0, 0
0, 0
0, 0
0, 0
0, 0
0, 0
0, 0
0, 0
0, 0
0, 0
0, 0
0, 0
0, 0
0, 0
0, 0
0, 0
0, 0
0, 0
0, 0
0, 0
0, 0
0, 0
0, 0
0, 0
0, 0
0, 0
0, 0
0, 0
0, 0
#ENDOFDATA     end of spectrum data