File: host_upload/12-01-2023/Dourbes (shot-by-shot)/upload_4/ps__0257_0689790785_000rfs_shot_3120.msa
#FORMAT      : EMSA/MAS spectral data file
#VERSION     : TC202v2.0 PIXL
#TITLE       : N/A
#DATE        :       Date in the format DD-MMM-YYYY, for example 07-JUL-2010
#TIME        :             The time of day at which the spectrum was recorded, in 24-hour format
#OWNER       : PIXL Flight Model       (PIXL will use this to indicate which instrument took the data.)
#NPOINTS     : 4096     Number of data points in the spectrum (This can be zero for configuration only files)
#NCOLUMNS    : 2     Number of data columns in the spectrum (This can be zero for configuration only files)
#XUNITS      : eV
#YUNITS      : COUNTS
#DATATYPE    : YY
#XPERCHAN    : 7.862, 7.881   eV per channel (separate by commas if more than one detector)
#OFFSET      : 18.5, -22.4         eV of first channel  (separate by commas if more than one detector
#SIGNALTYPE  : XRF
#YP_TEMP     : 3.037
#LIVETIME    : 9.14982, 9.14787   seconds (separate by commas if more than one detector)
#REALTIME    : 10, 10.0   seconds (separate by commas if more than one detector)
#SPECTRUM    : start of spectrum data
0, 0
0, 0
0, 0
0, 0
0, 0
0, 0
0, 0
0, 0
0, 0
0, 0
0, 0
0, 0
0, 0
0, 0
0, 0
0, 0
0, 0
0, 0
0, 0
0, 0
0, 0
0, 0
0, 0
0, 0
0, 0
0, 0
0, 0
0, 0
0, 0
0, 0
0, 0
0, 0
0, 0
0, 0
0, 0
0, 0
1, 2
1, 1
3, 0
2, 0
1, 2
2, 1
0, 1
1, 2
1, 0
3, 0
2, 1
0, 0
2, 3
5, 5
10, 12
20, 16
29, 28
38, 35
43, 34
27, 37
29, 35
18, 15
12, 12
4, 3
6, 2
5, 8
7, 13
9, 10
10, 10
7, 3
10, 5
9, 10
32, 18
51, 57
157, 143
275, 286
504, 499
678, 768
841, 874
828, 870
756, 816
540, 556
301, 374
207, 193
86, 109
54, 46
26, 32
26, 29
19, 17
12, 10
6, 8
4, 7
4, 2
1, 4
3, 1
2, 2
1, 3
4, 2
3, 3
3, 3
4, 5
5, 6
3, 8
4, 7
1, 5
4, 6
4, 2
3, 4
2, 6
1, 2
2, 1
3, 3
4, 6
6, 7
7, 8
11, 20
13, 16
20, 36
34, 22
19, 22
22, 22
21, 25
24, 15
24, 17
23, 15
20, 19
14, 15
22, 11
16, 13
11, 10
10, 18
16, 6
10, 7
5, 7
9, 6
3, 5
2, 4
2, 2
7, 5
9, 4
1, 2
9, 4
3, 5
2, 1
6, 8
2, 3
7, 2
4, 1
5, 5
2, 7
4, 2
5, 3
14, 8
20, 25
47, 60
89, 121
206, 265
397, 453
612, 720
911, 1003
1110, 1225
1213, 1331
1196, 1289
928, 973
688, 696
449, 456
230, 250
129, 122
63, 53
49, 49
55, 47
76, 88
106, 134
165, 147
167, 187
195, 185
157, 155
123, 137
96, 91
54, 45
30, 28
23, 10
10, 6
3, 2
5, 3
1, 4
2, 2
2, 1
6, 3
3, 1
3, 4
8, 9
11, 11
14, 18
20, 21
20, 25
31, 33
24, 34
24, 19
17, 15
9, 12
12, 6
12, 11
8, 10
6, 10
5, 3
4, 3
1, 2
2, 4
1, 6
5, 3
7, 11
7, 8
8, 13
5, 13
6, 11
7, 20
9, 12
4, 9
3, 15
3, 8
5, 6
3, 6
1, 3
2, 7
7, 2
5, 6
6, 6
7, 10
12, 15
20, 25
24, 44
46, 50
36, 53
29, 68
36, 51
32, 51
37, 27
24, 21
16, 14
15, 16
7, 6
3, 8
3, 6
1, 3
3, 9
5, 8
7, 10
2, 9
10, 20
15, 24
23, 29
26, 44
45, 63
43, 57
36, 60
41, 58
42, 31
34, 30
26, 27
16, 25
11, 20
9, 9
5, 15
7, 31
11, 27
11, 29
19, 49
42, 85
122, 183
163, 232
288, 453
483, 627
702, 889
906, 1048
1091, 1175
1103, 1206
1122, 1130
918, 896
666, 600
561, 452
357, 284
250, 158
125, 93
63, 42
25, 17
25, 12
21, 8
11, 6
9, 4
9, 9
7, 6
7, 8
8, 9
7, 15
18, 17
23, 32
31, 43
34, 63
66, 110
77, 112
129, 167
164, 208
163, 225
175, 210
176, 195
152, 166
95, 125
74, 89
50, 66
37, 51
21, 21
15, 18
13, 8
18, 7
14, 8
18, 5
27, 11
26, 8
41, 5
59, 7
40, 5
50, 8
39, 5
40, 5
20, 5
24, 7
14, 7
8, 3
8, 3
5, 7
4, 4
4, 3
10, 8
6, 3
3, 5
4, 1
2, 5
4, 4
4, 13
2, 5
7, 1
2, 4
3, 4
7, 6
2, 6
8, 10
6, 5
4, 2
7, 4
7, 5
6, 4
4, 6
5, 9
7, 6
8, 9
13, 11
7, 5
13, 15
6, 13
7, 10
10, 12
13, 12
11, 9
13, 9
6, 8
7, 6
5, 5
3, 5
7, 7
2, 2
7, 6
6, 6
2, 8
5, 4
7, 7
5, 6
6, 3
3, 2
2, 3
3, 4
3, 8
6, 5
4, 9
4, 6
6, 6
4, 11
5, 13
3, 7
5, 16
6, 10
4, 11
8, 9
3, 9
5, 10
6, 11
10, 8
8, 8
10, 5
11, 6
15, 7
14, 3
11, 10
8, 3
6, 4
6, 5
7, 4
9, 4
6, 5
3, 6
9, 6
6, 5
4, 4
4, 8
5, 6
5, 7
5, 6
5, 6
1, 4
6, 4
2, 5
6, 3
4, 4
4, 2
5, 4
3, 4
8, 2
5, 4
5, 5
6, 8
5, 7
3, 8
1, 3
5, 4
6, 1
2, 4
6, 2
5, 3
5, 2
5, 5
3, 3
1, 6
8, 5
4, 5
9, 5
6, 10
2, 3
4, 4
3, 5
7, 4
5, 4
1, 2
3, 2
4, 0
1, 4
2, 3
4, 1
3, 3
1, 2
2, 2
2, 4
3, 4
2, 3
2, 2
2, 1
5, 6
4, 4
5, 3
1, 3
2, 1
3, 5
5, 3
3, 0
4, 1
2, 4
4, 3
1, 0
1, 5
1, 2
2, 3
6, 2
4, 6
5, 0
3, 1
5, 2
2, 1
5, 6
4, 1
2, 2
4, 2
3, 5
4, 3
2, 5
0, 3
0, 6
4, 6
1, 7
1, 10
1, 10
3, 5
3, 8
1, 2
2, 5
4, 4
0, 1
1, 3
0, 6
1, 5
1, 2
4, 1
2, 1
2, 7
1, 1
0, 1
3, 2
2, 1
3, 1
2, 4
3, 3
3, 1
3, 1
4, 1
1, 2
3, 0
1, 4
4, 1
1, 1
1, 2
2, 4
2, 1
1, 2
1, 1
1, 4
2, 0
2, 2
3, 1
4, 1
2, 4
0, 1
1, 0
1, 3
1, 0
2, 1
2, 3
5, 0
2, 1
2, 5
3, 6
0, 2
2, 5
1, 1
1, 1
1, 1
3, 1
1, 0
0, 2
0, 0
3, 2
2, 1
3, 0
2, 0
2, 1
2, 0
4, 2
0, 2
1, 2
1, 1
1, 1
1, 2
3, 2
1, 1
3, 3
2, 1
0, 1
2, 1
2, 2
2, 1
5, 1
2, 2
2, 1
1, 0
0, 0
0, 0
1, 0
0, 0
2, 1
0, 2
1, 2
2, 1
2, 0
0, 0
2, 1
4, 1
1, 2
0, 1
3, 5
3, 0
0, 1
0, 0
2, 4
0, 2
4, 2
1, 0
0, 4
1, 3
1, 1
3, 1
2, 0
0, 1
1, 0
4, 2
0, 1
2, 1
0, 3
0, 0
2, 0
1, 1
0, 0
0, 0
1, 0
0, 1
1, 1
0, 0
2, 2
5, 0
0, 2
1, 1
1, 1
0, 0
0, 2
0, 1
0, 0
2, 1
4, 2
0, 2
0, 1
0, 1
1, 0
2, 0
0, 0
0, 0
0, 0
0, 0
0, 0
1, 1
1, 1
1, 0
3, 2
2, 1
0, 0
3, 1
0, 0
0, 3
1, 0
1, 1
0, 0
0, 0
2, 1
0, 0
0, 0
0, 0
2, 0
0, 0
1, 0
1, 0
0, 1
0, 1
0, 3
1, 0
1, 2
0, 1
2, 2
1, 2
0, 0
0, 2
0, 0
1, 2
1, 0
0, 2
0, 1
0, 1
0, 0
1, 1
0, 0
0, 1
0, 0
0, 0
1, 0
0, 1
0, 1
1, 0
0, 1
0, 0
0, 0
0, 0
0, 1
0, 0
1, 0
1, 0
0, 0
2, 1
0, 1
2, 0
0, 0
0, 0
2, 0
0, 1
1, 1
0, 0
0, 0
1, 1
0, 0
0, 0
0, 0
0, 0
0, 0
0, 0
0, 1
0, 0
0, 1
1, 0
0, 0
1, 0
0, 1
0, 0
0, 0
0, 1
0, 0
0, 1
2, 0
0, 0
0, 1
0, 0
1, 0
0, 0
0, 0
0, 1
0, 0
0, 0
1, 1
0, 0
0, 2
0, 0
0, 0
0, 0
0, 0
0, 0
0, 0
0, 0
1, 0
0, 0
1, 1
1, 1
0, 1
0, 0
0, 0
0, 0
0, 0
1, 0
0, 1
0, 0
0, 0
0, 0
1, 0
0, 0
0, 0
0, 0
0, 0
0, 1
0, 0
0, 0
1, 0
1, 0
0, 0
0, 0
0, 0
0, 0
0, 0
0, 0
1, 0
0, 1
0, 0
0, 2
0, 0
0, 0
0, 0
0, 0
1, 0
1, 0
0, 0
1, 0
0, 1
0, 0
0, 1
0, 0
1, 0
0, 0
0, 0
0, 0
0, 0
1, 0
0, 0
0, 0
0, 1
1, 0
0, 0
0, 0
1, 1
0, 1
0, 0
0, 0
0, 0
0, 0
0, 0
0, 2
0, 0
0, 0
0, 0
0, 0
0, 0
0, 0
0, 0
0, 0
0, 0
0, 0
0, 0
0, 0
0, 0
0, 0
0, 0
0, 0
0, 0
0, 0
0, 0
0, 1
0, 0
0, 0
0, 0
0, 0
0, 0
0, 1
0, 0
0, 0
0, 0
0, 0
0, 0
0, 0
1, 0
0, 0
0, 1
0, 0
0, 0
0, 0
0, 1
0, 0
0, 0
0, 0
0, 0
0, 0
0, 0
0, 0
0, 0
1, 0
0, 0
0, 0
0, 0
0, 0
0, 0
1, 0
0, 0
0, 0
1, 0
0, 0
0, 0
0, 0
0, 0
0, 0
0, 1
0, 0
1, 0
0, 0
0, 0
1, 0
0, 1
0, 0
0, 0
0, 0
0, 0
0, 0
1, 0
0, 1
0, 0
0, 0
0, 0
0, 0
0, 0
0, 0
0, 0
0, 0
0, 0
0, 0
0, 0
0, 0
0, 0
0, 0
0, 0
1, 0
0, 0
0, 0
0, 0
0, 0
0, 0
0, 0
0, 1
1, 0
0, 0
0, 0
0, 0
0, 0
0, 1
0, 0
0, 0
0, 0
0, 0
0, 0
0, 0
0, 0
0, 0
0, 0
0, 0
0, 0
0, 0
0, 0
0, 0
0, 0
0, 0
0, 0
0, 0
0, 0
0, 0
0, 0
0, 0
0, 0
0, 1
0, 0
1, 0
0, 0
0, 0
0, 1
0, 0
0, 0
0, 0
0, 0
0, 0
0, 0
0, 0
0, 0
1, 0
0, 0
0, 0
0, 0
0, 0
0, 0
0, 0
0, 0
0, 0
0, 0
2, 0
0, 0
0, 0
0, 0
0, 0
0, 0
0, 0
0, 0
0, 0
0, 0
0, 0
0, 0
0, 0
0, 0
0, 0
0, 0
0, 0
0, 0
0, 0
0, 0
0, 0
0, 0
0, 0
0, 0
0, 0
0, 0
0, 0
0, 0
0, 0
0, 0
1, 0
0, 0
0, 0
0, 1
0, 0
0, 0
0, 0
0, 0
0, 0
0, 0
0, 0
0, 0
0, 0
0, 0
0, 0
0, 0
0, 0
0, 0
0, 0
0, 0
0, 0
0, 0
0, 0
0, 0
0, 0
0, 0
0, 0
0, 0
0, 0
0, 0
0, 0
0, 0
1, 0
0, 0
0, 0
0, 0
0, 0
0, 0
0, 0
0, 0
0, 0
0, 0
0, 0
0, 0
0, 0
0, 0
0, 0
0, 0
0, 0
0, 0
0, 0
0, 0
0, 0
0, 0
0, 0
0, 0
0, 0
0, 0
0, 0
0, 0
0, 0
0, 0
0, 0
0, 0
0, 0
0, 0
0, 0
0, 0
0, 0
0, 0
0, 0
0, 0
0, 0
0, 0
0, 0
0, 0
0, 0
0, 0
0, 0
0, 0
0, 0
0, 0
0, 0
0, 0
0, 0
0, 0
0, 0
0, 0
0, 0
0, 0
0, 0
0, 0
0, 0
0, 0
0, 0
0, 0
0, 0
0, 0
0, 0
0, 0
0, 0
0, 0
0, 0
0, 0
0, 0
0, 0
0, 0
0, 0
0, 0
0, 0
0, 0
0, 0
0, 0
0, 0
0, 0
0, 0
0, 0
0, 0
0, 0
0, 0
0, 0
0, 0
0, 0
0, 0
0, 0
0, 0
0, 0
0, 0
0, 0
0, 0
0, 0
0, 0
0, 0
0, 0
0, 0
0, 0
0, 0
0, 0
0, 0
0, 0
0, 0
0, 0
0, 0
0, 0
0, 0
0, 0
0, 0
0, 0
0, 0
0, 0
0, 0
0, 0
0, 0
0, 0
0, 0
0, 0
0, 0
0, 0
0, 0
0, 0
0, 0
0, 0
0, 0
0, 0
0, 0
0, 0
0, 0
0, 0
0, 0
0, 0
0, 0
0, 0
0, 0
0, 0
0, 0
0, 0
0, 0
0, 0
0, 0
0, 0
0, 0
0, 0
0, 0
0, 0
0, 0
0, 0
0, 0
0, 0
0, 0
0, 0
0, 0
0, 0
0, 0
0, 0
0, 0
0, 0
0, 0
0, 0
0, 0
0, 0
0, 0
0, 0
0, 0
0, 0
0, 0
0, 0
0, 0
0, 0
0, 0
0, 0
0, 0
0, 0
0, 0
0, 0
0, 0
0, 0
0, 0
0, 0
0, 0
0, 0
0, 0
0, 0
0, 0
0, 0
0, 0
0, 0
0, 0
0, 0
0, 0
0, 0
0, 0
0, 0
0, 0
0, 0
0, 0
0, 0
0, 0
0, 0
0, 0
0, 0
0, 0
0, 0
0, 0
0, 0
0, 0
0, 0
0, 0
0, 0
0, 0
0, 0
0, 0
0, 0
0, 0
0, 0
0, 0
0, 0
0, 0
0, 0
0, 0
0, 0
0, 0
0, 0
0, 0
0, 0
0, 0
0, 0
0, 0
0, 0
0, 0
0, 0
0, 0
0, 0
0, 0
0, 0
0, 0
0, 0
0, 0
0, 0
0, 0
0, 0
0, 0
0, 0
0, 0
0, 0
0, 0
0, 0
0, 0
0, 0
0, 0
0, 0
0, 0
0, 0
0, 0
0, 0
0, 0
0, 0
0, 0
0, 0
0, 0
0, 0
0, 0
0, 0
0, 0
0, 0
0, 0
0, 0
0, 0
0, 0
0, 0
0, 0
0, 0
0, 0
0, 0
0, 0
0, 0
0, 0
0, 0
0, 0
0, 0
0, 0
0, 0
0, 0
0, 0
0, 0
0, 0
0, 0
0, 0
0, 0
0, 0
0, 0
0, 0
0, 0
0, 0
0, 0
0, 0
0, 0
0, 0
0, 0
0, 0
0, 0
0, 0
0, 0
0, 0
0, 0
0, 0
0, 0
0, 0
0, 0
0, 0
0, 0
0, 0
0, 0
0, 0
0, 0
0, 0
0, 0
0, 0
0, 0
0, 0
0, 0
0, 0
0, 0
0, 0
0, 0
0, 0
0, 0
0, 0
0, 0
0, 0
0, 0
0, 0
0, 0
0, 0
#ENDOFDATA     end of spectrum data