File: host_upload/12-01-2023/Dourbes (shot-by-shot)/upload_4/ps__0257_0689790785_000rfs_shot_3195.msa
#FORMAT      : EMSA/MAS spectral data file
#VERSION     : TC202v2.0 PIXL
#TITLE       : N/A
#DATE        :       Date in the format DD-MMM-YYYY, for example 07-JUL-2010
#TIME        :             The time of day at which the spectrum was recorded, in 24-hour format
#OWNER       : PIXL Flight Model       (PIXL will use this to indicate which instrument took the data.)
#NPOINTS     : 4096     Number of data points in the spectrum (This can be zero for configuration only files)
#NCOLUMNS    : 2     Number of data columns in the spectrum (This can be zero for configuration only files)
#XUNITS      : eV
#YUNITS      : COUNTS
#DATATYPE    : YY
#XPERCHAN    : 7.862, 7.881   eV per channel (separate by commas if more than one detector)
#OFFSET      : 18.5, -22.4         eV of first channel  (separate by commas if more than one detector
#SIGNALTYPE  : XRF
#YP_TEMP     : 2.877
#LIVETIME    : 9.11203, 9.11585   seconds (separate by commas if more than one detector)
#REALTIME    : 10, 10.0   seconds (separate by commas if more than one detector)
#SPECTRUM    : start of spectrum data
0, 0
0, 0
0, 0
0, 0
0, 0
0, 0
0, 0
0, 0
0, 0
0, 0
0, 0
0, 0
0, 0
0, 0
0, 0
0, 0
0, 0
0, 0
0, 0
0, 0
0, 0
0, 0
0, 0
0, 0
0, 0
0, 0
0, 0
0, 0
0, 0
0, 0
0, 0
0, 0
0, 0
0, 0
2, 1
0, 2
0, 4
2, 0
2, 0
1, 2
2, 3
2, 3
3, 1
1, 3
3, 4
5, 4
6, 5
2, 4
3, 2
5, 4
6, 4
16, 15
22, 21
17, 28
23, 16
27, 18
17, 17
11, 6
15, 7
24, 8
29, 12
36, 30
55, 59
80, 77
78, 73
76, 73
53, 53
39, 41
27, 39
69, 61
126, 121
271, 265
442, 461
653, 665
760, 799
781, 806
659, 638
490, 491
297, 263
198, 150
94, 83
45, 26
18, 15
5, 14
6, 6
9, 9
6, 7
2, 5
3, 6
3, 3
8, 3
3, 3
2, 2
4, 1
0, 5
5, 3
2, 6
4, 7
5, 5
9, 6
5, 5
3, 1
5, 0
1, 4
3, 8
6, 2
5, 8
10, 18
24, 26
27, 50
44, 56
56, 74
61, 76
58, 81
57, 80
56, 56
47, 38
37, 34
49, 34
34, 35
26, 43
29, 31
23, 29
25, 27
16, 21
6, 24
18, 21
14, 21
9, 14
11, 16
10, 15
5, 11
6, 8
3, 6
4, 8
11, 11
23, 16
34, 35
42, 41
61, 70
72, 82
105, 92
69, 93
80, 65
62, 52
29, 33
24, 18
16, 8
9, 8
8, 7
12, 14
25, 15
34, 29
53, 47
66, 73
83, 98
96, 122
117, 106
114, 108
85, 93
71, 62
44, 49
36, 41
22, 56
13, 45
13, 59
8, 57
9, 53
16, 47
17, 32
12, 34
20, 27
17, 17
17, 10
17, 10
12, 8
7, 13
7, 9
6, 9
5, 0
2, 3
9, 8
8, 5
12, 8
13, 16
26, 15
34, 40
58, 49
74, 90
123, 147
155, 185
209, 185
224, 201
203, 202
179, 129
130, 113
111, 58
55, 35
47, 32
22, 16
21, 29
13, 21
13, 26
8, 21
14, 24
23, 26
33, 28
33, 50
40, 30
46, 49
45, 57
52, 57
39, 42
25, 37
22, 45
17, 52
7, 54
9, 56
5, 66
11, 86
10, 70
12, 98
16, 71
27, 73
27, 56
77, 89
102, 97
133, 142
179, 187
224, 217
246, 217
226, 201
210, 163
146, 129
116, 80
62, 49
29, 31
17, 20
17, 11
14, 10
10, 11
14, 7
12, 6
8, 14
16, 14
24, 17
29, 33
38, 38
61, 53
80, 58
82, 79
94, 91
113, 82
104, 81
75, 57
74, 48
59, 51
44, 32
41, 31
40, 18
32, 21
31, 26
30, 55
56, 54
103, 101
187, 212
288, 341
500, 605
841, 944
1239, 1308
1457, 1503
1767, 1756
1907, 1808
1743, 1655
1546, 1374
1230, 968
856, 660
510, 417
294, 224
173, 127
94, 68
37, 31
30, 17
22, 14
25, 10
13, 17
13, 20
19, 18
15, 16
16, 14
17, 25
27, 25
27, 44
47, 68
74, 79
100, 105
186, 175
216, 247
243, 263
286, 262
277, 254
252, 246
232, 200
163, 142
113, 107
66, 58
42, 30
33, 26
18, 16
15, 10
6, 5
4, 9
9, 9
3, 4
9, 4
8, 13
9, 12
6, 7
11, 13
11, 13
2, 14
8, 7
12, 4
8, 8
10, 9
9, 8
8, 8
8, 5
13, 9
11, 6
9, 15
7, 11
9, 8
6, 10
8, 9
11, 8
5, 8
7, 5
2, 6
13, 4
3, 8
6, 7
7, 7
11, 6
5, 9
5, 12
7, 6
6, 10
7, 10
3, 11
4, 2
6, 15
6, 5
8, 6
5, 3
6, 8
5, 5
1, 5
9, 6
5, 7
5, 8
4, 3
15, 3
10, 9
6, 8
7, 7
4, 2
10, 4
7, 8
13, 5
6, 4
4, 5
7, 3
7, 7
8, 6
5, 3
7, 2
11, 5
5, 3
8, 5
6, 9
9, 4
3, 4
8, 4
5, 4
7, 6
7, 6
3, 9
7, 3
7, 4
13, 3
10, 6
7, 5
4, 3
5, 0
4, 2
3, 2
7, 0
6, 5
5, 4
5, 7
13, 3
6, 2
7, 7
8, 8
2, 1
5, 5
5, 9
4, 3
4, 7
3, 3
4, 6
7, 4
8, 5
9, 5
3, 6
7, 3
6, 3
5, 8
7, 6
8, 1
6, 9
8, 4
3, 3
5, 5
6, 5
7, 4
5, 5
10, 6
2, 5
2, 4
7, 10
2, 4
5, 8
5, 4
4, 5
6, 11
3, 4
3, 10
2, 5
4, 3
7, 9
4, 12
6, 3
2, 4
3, 3
5, 2
3, 0
4, 3
6, 9
7, 2
2, 2
7, 4
5, 3
3, 3
2, 6
6, 1
0, 4
5, 8
3, 3
4, 3
7, 8
1, 0
2, 3
3, 1
7, 4
3, 2
2, 2
2, 2
4, 4
2, 6
2, 5
1, 5
1, 2
2, 2
0, 1
5, 5
2, 1
3, 1
2, 1
2, 3
4, 4
6, 2
6, 6
2, 3
1, 2
2, 4
4, 2
1, 2
1, 1
1, 0
2, 2
0, 2
1, 3
2, 2
1, 5
1, 2
3, 0
5, 1
2, 4
4, 5
2, 3
5, 2
5, 2
4, 2
2, 1
4, 3
2, 0
3, 4
1, 1
5, 1
2, 0
0, 3
3, 3
2, 2
1, 2
0, 2
2, 3
1, 0
3, 0
2, 0
4, 1
1, 2
1, 1
2, 4
4, 2
1, 4
0, 2
2, 3
1, 3
3, 4
1, 0
0, 1
3, 2
4, 1
0, 1
2, 2
2, 4
1, 1
1, 0
2, 5
4, 1
4, 0
5, 4
4, 1
0, 1
1, 2
3, 1
4, 3
2, 2
1, 1
1, 2
0, 3
2, 5
3, 1
0, 3
2, 2
4, 0
2, 0
2, 2
4, 1
3, 0
1, 1
2, 2
3, 1
1, 2
4, 2
3, 1
5, 0
2, 3
0, 1
0, 2
2, 1
1, 1
1, 0
3, 0
0, 0
1, 2
2, 1
1, 1
2, 4
1, 0
0, 1
2, 0
0, 0
0, 1
2, 0
0, 1
1, 2
3, 0
2, 0
1, 1
0, 3
1, 1
1, 0
0, 0
0, 1
3, 2
1, 1
3, 2
0, 0
3, 2
1, 1
0, 0
0, 1
0, 1
3, 0
2, 1
1, 1
0, 1
0, 0
3, 1
0, 3
2, 0
0, 1
0, 0
1, 1
1, 1
2, 0
3, 1
0, 1
2, 2
0, 1
0, 3
1, 0
0, 1
2, 2
0, 2
1, 0
1, 1
2, 0
1, 2
1, 1
0, 1
1, 0
0, 0
0, 1
0, 1
0, 0
0, 1
1, 1
1, 1
0, 0
1, 0
1, 2
1, 0
1, 1
0, 0
1, 0
0, 1
0, 1
0, 1
1, 1
0, 2
0, 1
1, 0
0, 1
0, 0
1, 1
0, 0
0, 0
1, 0
3, 2
1, 1
1, 1
1, 3
0, 0
1, 0
0, 0
0, 0
0, 0
0, 0
0, 2
1, 0
0, 0
0, 1
0, 0
0, 2
3, 0
0, 0
0, 0
0, 0
1, 1
0, 0
0, 0
0, 0
1, 0
0, 0
0, 1
1, 1
0, 0
0, 0
0, 0
0, 0
0, 0
1, 0
1, 0
0, 0
1, 0
0, 0
0, 0
0, 0
0, 0
1, 0
0, 0
0, 0
0, 0
0, 1
0, 0
3, 0
0, 0
0, 0
0, 0
0, 0
0, 0
0, 0
2, 0
1, 1
0, 0
0, 0
0, 0
0, 0
0, 0
0, 1
0, 0
0, 0
0, 0
0, 0
0, 0
2, 0
0, 0
1, 0
0, 1
0, 0
1, 0
1, 0
1, 0
0, 0
0, 0
0, 0
1, 0
0, 0
1, 1
0, 0
0, 0
1, 0
2, 0
0, 0
0, 0
0, 1
0, 0
1, 0
0, 0
0, 0
0, 0
0, 0
1, 0
0, 1
0, 0
0, 0
0, 0
0, 0
0, 0
0, 0
0, 0
1, 2
0, 0
0, 0
0, 0
0, 0
0, 0
0, 0
0, 0
1, 0
0, 0
0, 0
0, 0
0, 0
0, 0
0, 0
0, 0
0, 0
0, 0
0, 1
1, 0
0, 0
0, 1
0, 0
0, 0
1, 0
1, 0
0, 0
0, 0
0, 0
0, 0
0, 0
0, 0
0, 0
0, 0
1, 0
0, 0
0, 0
0, 0
0, 0
0, 0
0, 0
0, 0
0, 0
0, 0
1, 0
0, 0
0, 0
0, 0
0, 0
0, 0
0, 0
0, 0
0, 0
0, 0
0, 0
0, 0
0, 0
0, 1
0, 0
0, 0
2, 0
0, 0
0, 0
0, 0
0, 0
0, 0
0, 0
0, 0
0, 0
0, 2
0, 0
0, 0
0, 0
1, 1
0, 0
0, 1
0, 0
0, 0
0, 0
0, 0
1, 0
0, 0
1, 0
0, 0
0, 0
0, 0
0, 0
0, 0
0, 0
0, 0
0, 0
0, 0
0, 0
0, 0
0, 0
1, 0
0, 0
1, 0
0, 0
0, 0
0, 0
0, 1
0, 0
0, 0
0, 0
0, 0
0, 0
0, 0
0, 0
0, 0
0, 0
0, 0
0, 0
1, 0
0, 0
0, 0
1, 0
0, 0
0, 0
0, 0
0, 0
0, 0
0, 0
0, 0
0, 0
0, 0
0, 0
0, 0
0, 0
1, 0
0, 0
0, 0
0, 0
0, 0
0, 0
0, 0
0, 0
0, 0
0, 0
0, 0
0, 0
0, 0
1, 0
0, 0
0, 0
0, 0
0, 0
0, 0
0, 0
0, 0
0, 0
0, 0
0, 0
0, 0
0, 0
0, 0
0, 0
0, 0
0, 0
0, 0
0, 0
0, 0
0, 0
0, 0
0, 0
0, 0
0, 0
0, 0
0, 0
0, 0
0, 0
0, 0
0, 0
0, 0
0, 0
0, 0
0, 0
0, 0
0, 0
0, 0
0, 0
0, 0
0, 0
0, 0
0, 0
0, 0
0, 0
0, 0
0, 0
0, 0
0, 0
0, 0
0, 0
0, 0
0, 0
0, 0
0, 0
0, 0
0, 0
0, 0
0, 0
0, 0
0, 0
0, 0
0, 0
0, 0
0, 0
0, 0
0, 0
0, 0
0, 0
0, 0
0, 0
0, 0
0, 0
0, 0
0, 0
0, 0
0, 0
0, 0
0, 0
0, 0
0, 0
0, 0
0, 0
0, 0
0, 0
0, 0
0, 0
0, 0
0, 0
0, 0
0, 0
0, 0
0, 0
0, 0
0, 0
0, 0
0, 0
0, 0
0, 0
0, 0
0, 0
0, 0
0, 0
0, 0
0, 0
0, 0
0, 0
0, 0
0, 0
0, 0
0, 0
0, 0
0, 0
0, 0
0, 0
0, 0
0, 0
0, 0
0, 0
0, 0
0, 0
0, 0
0, 0
0, 0
0, 0
0, 0
0, 0
0, 0
0, 0
0, 0
0, 0
0, 0
0, 0
0, 0
0, 0
0, 0
0, 0
0, 0
0, 0
0, 0
0, 0
0, 0
0, 0
0, 0
0, 0
0, 0
0, 0
0, 0
0, 0
0, 0
0, 0
0, 0
0, 0
0, 0
0, 0
0, 0
0, 0
0, 0
0, 0
0, 0
0, 0
0, 0
0, 0
0, 0
0, 0
0, 0
0, 0
0, 0
0, 0
0, 0
0, 0
0, 0
0, 0
0, 0
0, 0
0, 0
0, 0
0, 0
0, 0
0, 0
0, 0
0, 0
0, 0
0, 0
0, 0
0, 0
0, 0
0, 0
0, 0
0, 0
0, 0
0, 0
0, 0
0, 0
0, 0
0, 0
0, 0
0, 0
0, 0
0, 0
0, 0
0, 0
0, 0
0, 0
0, 0
0, 0
0, 0
0, 0
0, 0
0, 0
0, 0
0, 0
0, 0
0, 0
0, 0
0, 0
0, 0
0, 0
0, 0
0, 0
0, 0
0, 0
0, 0
0, 0
0, 0
0, 0
0, 0
0, 0
0, 0
0, 0
0, 0
0, 0
0, 0
0, 0
0, 0
0, 0
0, 0
0, 0
0, 0
0, 0
0, 0
0, 0
0, 0
0, 0
0, 0
0, 0
0, 0
0, 0
0, 0
0, 0
0, 0
0, 0
0, 0
0, 0
0, 0
0, 0
0, 0
0, 0
0, 0
0, 0
0, 0
0, 0
0, 0
0, 0
0, 0
0, 0
0, 0
0, 0
0, 0
0, 0
0, 0
0, 0
0, 0
0, 0
0, 0
0, 0
0, 0
0, 0
0, 0
0, 0
0, 0
0, 0
0, 0
0, 0
0, 0
0, 0
0, 0
0, 0
0, 0
0, 0
0, 0
0, 0
0, 0
0, 0
0, 0
0, 0
0, 0
0, 0
0, 0
0, 0
0, 0
0, 0
0, 0
0, 0
0, 0
0, 0
0, 0
0, 0
0, 0
0, 0
0, 0
0, 0
0, 0
0, 0
0, 0
0, 0
0, 0
0, 0
0, 0
0, 0
0, 0
0, 0
0, 0
0, 0
0, 0
0, 0
0, 0
0, 0
0, 0
0, 0
0, 0
0, 0
0, 0
0, 0
0, 0
0, 0
0, 0
0, 0
0, 0
0, 0
0, 0
0, 0
0, 0
0, 0
0, 0
0, 0
0, 0
0, 0
0, 0
0, 0
0, 0
0, 0
0, 0
0, 0
0, 0
0, 0
0, 0
0, 0
0, 0
0, 0
0, 0
0, 0
0, 0
0, 0
0, 0
0, 0
0, 0
0, 0
0, 0
0, 0
0, 0
0, 0
0, 0
0, 0
0, 0
0, 0
0, 0
0, 0
0, 0
0, 0
0, 0
0, 0
0, 0
0, 0
0, 0
0, 0
0, 0
0, 0
0, 0
0, 0
0, 0
0, 0
0, 0
0, 0
0, 0
0, 0
0, 0
0, 0
0, 0
0, 0
0, 0
0, 0
0, 0
0, 0
0, 0
0, 0
0, 0
0, 0
0, 0
0, 0
0, 0
0, 0
0, 0
0, 0
0, 0
0, 0
0, 0
0, 0
0, 0
0, 0
0, 0
0, 0
0, 0
0, 0
0, 0
0, 0
0, 0
0, 0
0, 0
0, 0
0, 0
0, 0
0, 0
0, 0
0, 0
0, 0
0, 0
0, 0
0, 0
0, 0
0, 0
0, 0
0, 0
0, 0
0, 0
0, 0
0, 0
0, 0
0, 0
0, 0
0, 0
0, 0
0, 0
0, 0
0, 0
0, 0
0, 0
0, 0
0, 0
#ENDOFDATA     end of spectrum data