File: host_upload/12-01-2023/Dourbes (shot-by-shot)/upload_4/ps__0257_0689790785_000rfs_shot_3314.msa
#FORMAT      : EMSA/MAS spectral data file
#VERSION     : TC202v2.0 PIXL
#TITLE       : N/A
#DATE        :       Date in the format DD-MMM-YYYY, for example 07-JUL-2010
#TIME        :             The time of day at which the spectrum was recorded, in 24-hour format
#OWNER       : PIXL Flight Model       (PIXL will use this to indicate which instrument took the data.)
#NPOINTS     : 4096     Number of data points in the spectrum (This can be zero for configuration only files)
#NCOLUMNS    : 2     Number of data columns in the spectrum (This can be zero for configuration only files)
#XUNITS      : eV
#YUNITS      : COUNTS
#DATATYPE    : YY
#XPERCHAN    : 7.862, 7.881   eV per channel (separate by commas if more than one detector)
#OFFSET      : 18.5, -22.4         eV of first channel  (separate by commas if more than one detector
#SIGNALTYPE  : XRF
#YP_TEMP     : 3.037
#LIVETIME    : 9.15498, 9.13829   seconds (separate by commas if more than one detector)
#REALTIME    : 10, 10.0   seconds (separate by commas if more than one detector)
#SPECTRUM    : start of spectrum data
0, 0
0, 0
0, 0
0, 0
0, 0
0, 0
0, 0
0, 0
0, 0
0, 0
0, 0
0, 0
0, 0
0, 0
0, 0
0, 0
0, 0
0, 0
0, 0
0, 0
0, 0
0, 0
0, 0
0, 0
0, 0
0, 0
0, 0
0, 0
0, 0
0, 0
0, 0
1, 1
0, 1
0, 1
1, 0
0, 1
0, 2
0, 0
1, 0
0, 0
0, 0
2, 0
2, 1
3, 2
1, 1
2, 1
0, 1
1, 3
1, 0
12, 3
9, 18
21, 20
33, 33
44, 46
45, 51
44, 50
41, 32
22, 28
12, 14
5, 5
4, 3
5, 5
9, 10
5, 10
15, 7
7, 13
9, 9
13, 18
25, 20
47, 61
165, 133
285, 313
490, 502
707, 787
807, 961
912, 954
750, 791
539, 546
290, 338
180, 183
98, 82
51, 57
30, 30
19, 25
11, 17
15, 10
11, 13
4, 9
4, 6
3, 0
3, 2
2, 1
1, 2
0, 1
5, 5
6, 14
5, 15
16, 10
21, 13
16, 18
8, 17
8, 12
8, 7
6, 7
4, 7
3, 6
10, 11
8, 8
11, 16
18, 20
34, 31
49, 48
47, 68
53, 56
68, 53
47, 47
52, 43
34, 20
26, 21
19, 27
28, 36
18, 35
22, 21
22, 23
11, 23
12, 25
10, 11
14, 6
14, 10
6, 6
7, 15
7, 10
8, 3
3, 4
2, 3
3, 3
6, 1
5, 1
5, 4
2, 4
4, 5
3, 3
5, 1
4, 2
3, 2
1, 2
1, 10
9, 8
14, 13
21, 22
51, 32
87, 110
166, 222
344, 427
535, 689
801, 921
1029, 1167
1032, 1227
974, 1171
771, 899
596, 605
363, 382
205, 203
104, 104
54, 62
27, 39
65, 62
60, 74
88, 128
131, 140
167, 189
153, 189
154, 143
101, 113
93, 87
43, 34
29, 36
15, 13
10, 7
4, 4
1, 3
2, 0
4, 3
1, 2
1, 4
3, 5
7, 12
6, 13
14, 15
29, 22
37, 29
37, 37
33, 49
24, 34
39, 28
26, 22
18, 16
17, 17
14, 11
3, 12
3, 13
6, 5
3, 3
6, 4
6, 6
6, 6
4, 8
6, 6
5, 8
11, 20
15, 9
10, 11
11, 16
5, 8
7, 8
7, 4
1, 5
7, 10
3, 1
4, 8
1, 5
7, 2
6, 3
8, 12
6, 10
13, 26
17, 31
20, 35
40, 47
49, 59
41, 57
43, 39
47, 39
32, 30
17, 20
9, 21
10, 9
7, 6
5, 7
4, 8
8, 4
6, 6
7, 8
11, 8
7, 11
11, 14
16, 20
19, 25
26, 46
34, 50
41, 48
40, 68
45, 52
32, 45
27, 38
33, 31
16, 22
11, 23
10, 16
9, 11
9, 15
11, 15
22, 20
31, 47
58, 97
100, 150
202, 236
351, 460
520, 668
743, 906
976, 1214
1109, 1292
1177, 1311
1171, 1175
896, 821
715, 660
536, 449
327, 279
209, 164
127, 67
69, 39
44, 19
32, 11
14, 16
9, 7
17, 8
11, 10
7, 14
9, 10
11, 14
15, 15
20, 24
20, 30
41, 46
55, 79
83, 85
80, 105
123, 165
136, 186
152, 205
161, 194
164, 166
125, 135
111, 102
74, 75
47, 61
25, 39
25, 18
17, 12
15, 7
10, 10
29, 8
35, 10
29, 4
36, 4
42, 3
40, 8
44, 2
27, 8
37, 5
31, 2
18, 8
18, 6
11, 5
12, 7
5, 6
5, 3
7, 2
4, 3
2, 4
4, 12
4, 4
5, 6
5, 4
3, 4
7, 4
7, 6
4, 3
4, 3
4, 1
8, 4
5, 8
1, 5
4, 5
2, 4
7, 2
6, 1
9, 5
3, 11
10, 9
5, 8
7, 13
4, 4
5, 12
9, 8
4, 16
4, 10
4, 18
6, 15
5, 11
5, 14
5, 14
5, 11
3, 7
3, 7
3, 2
6, 8
5, 1
2, 8
3, 5
5, 6
6, 1
9, 5
1, 7
4, 2
7, 7
6, 6
10, 8
2, 6
6, 3
9, 6
5, 8
1, 2
7, 5
2, 2
8, 5
4, 3
6, 5
3, 6
6, 8
4, 6
4, 6
7, 5
7, 12
3, 8
8, 8
5, 6
7, 7
7, 7
2, 8
9, 5
2, 8
5, 6
5, 4
2, 5
6, 3
2, 5
8, 8
2, 11
3, 11
2, 15
2, 21
3, 14
4, 18
3, 22
3, 25
8, 19
2, 6
2, 9
1, 13
6, 8
6, 2
3, 5
6, 6
7, 6
10, 5
5, 4
4, 6
9, 9
5, 9
5, 5
1, 4
5, 4
2, 2
7, 4
4, 3
9, 4
1, 3
5, 2
4, 4
5, 4
2, 2
1, 3
2, 0
5, 6
1, 6
4, 2
3, 3
4, 2
3, 3
4, 3
3, 0
3, 1
5, 3
0, 4
1, 4
2, 4
8, 3
1, 5
3, 6
2, 3
2, 3
5, 3
1, 0
6, 3
7, 4
2, 2
4, 5
8, 3
2, 1
7, 2
2, 2
0, 3
3, 2
2, 4
1, 1
4, 1
4, 1
3, 4
3, 0
0, 5
3, 6
1, 7
1, 9
2, 3
3, 5
1, 7
1, 1
2, 2
3, 5
1, 0
1, 2
6, 4
4, 3
0, 2
2, 6
1, 3
5, 4
3, 3
2, 2
1, 2
4, 3
3, 8
2, 1
2, 2
3, 0
1, 2
3, 5
2, 2
2, 4
8, 2
5, 2
9, 3
10, 2
4, 1
10, 3
9, 1
9, 3
9, 1
3, 2
6, 1
3, 1
1, 1
1, 4
2, 2
3, 2
1, 3
4, 2
1, 0
2, 2
1, 2
1, 3
2, 3
0, 1
4, 0
5, 1
2, 1
4, 2
2, 6
2, 3
1, 1
3, 4
0, 3
4, 3
1, 8
1, 2
1, 3
3, 2
4, 0
3, 4
1, 2
3, 1
2, 0
2, 1
2, 1
1, 1
1, 1
2, 1
1, 2
1, 1
2, 3
1, 1
3, 0
0, 3
1, 2
1, 5
0, 1
0, 1
3, 2
3, 2
2, 2
3, 3
2, 3
0, 1
0, 1
0, 0
1, 1
1, 3
1, 0
0, 1
1, 2
0, 0
1, 3
2, 2
0, 1
2, 1
0, 2
0, 2
2, 1
0, 1
2, 1
1, 2
1, 1
1, 1
2, 1
3, 2
2, 0
2, 1
3, 3
3, 1
1, 2
0, 1
2, 2
2, 2
1, 4
0, 0
3, 2
1, 0
0, 2
1, 0
0, 1
0, 2
0, 1
3, 0
0, 0
1, 3
1, 1
1, 0
1, 1
1, 0
1, 0
1, 0
3, 3
2, 4
1, 0
1, 0
2, 0
3, 1
3, 0
2, 0
1, 1
2, 0
2, 1
0, 2
0, 1
3, 0
0, 3
1, 1
1, 1
2, 0
1, 1
1, 0
1, 0
0, 0
0, 0
0, 0
2, 0
2, 0
2, 0
1, 0
0, 0
1, 1
0, 1
0, 2
0, 2
1, 0
0, 1
0, 0
0, 4
0, 1
2, 1
1, 0
0, 0
0, 1
0, 0
0, 0
2, 1
2, 2
0, 1
0, 1
0, 0
1, 1
0, 0
0, 0
1, 1
1, 0
2, 2
0, 0
1, 0
0, 1
0, 0
0, 0
1, 0
0, 0
1, 0
1, 0
1, 1
1, 0
0, 1
1, 0
0, 0
0, 1
1, 0
0, 0
0, 0
0, 0
0, 1
1, 3
0, 0
0, 0
0, 2
1, 0
0, 1
1, 0
1, 0
1, 1
0, 0
1, 0
0, 0
1, 0
0, 0
0, 0
0, 2
0, 0
0, 0
0, 0
1, 0
0, 0
0, 0
0, 2
0, 0
0, 0
0, 0
1, 0
0, 0
0, 1
0, 1
0, 0
0, 0
0, 0
0, 0
0, 0
1, 0
0, 0
0, 0
0, 0
0, 0
0, 0
0, 0
0, 0
0, 0
0, 0
0, 0
0, 0
0, 2
0, 0
0, 1
1, 0
0, 0
0, 0
1, 0
0, 0
0, 1
0, 1
0, 0
0, 0
0, 0
0, 0
0, 0
1, 0
0, 0
0, 0
0, 0
0, 0
0, 0
0, 0
1, 0
2, 0
0, 0
0, 1
0, 1
0, 0
0, 0
0, 0
0, 0
0, 0
2, 0
0, 0
0, 0
0, 0
0, 0
0, 0
1, 0
1, 0
2, 0
0, 0
0, 0
0, 0
0, 0
0, 0
0, 0
0, 0
0, 1
1, 0
0, 1
3, 1
0, 2
0, 0
0, 0
0, 0
0, 0
0, 0
0, 0
0, 1
0, 0
0, 0
0, 0
0, 0
0, 0
0, 1
0, 1
0, 1
0, 0
0, 1
0, 0
1, 0
0, 1
0, 0
0, 0
1, 0
0, 0
0, 0
0, 0
0, 0
0, 0
0, 0
0, 0
0, 0
0, 1
0, 0
0, 0
1, 1
0, 0
0, 0
0, 0
0, 1
0, 0
0, 0
1, 0
0, 0
0, 0
0, 1
0, 0
0, 0
0, 0
0, 0
0, 0
0, 0
0, 0
0, 0
0, 0
0, 0
1, 0
0, 0
1, 0
0, 0
0, 0
0, 1
0, 1
0, 0
0, 0
0, 0
0, 0
0, 0
1, 0
0, 0
0, 0
0, 0
0, 0
0, 0
0, 0
0, 0
0, 1
0, 0
0, 0
0, 0
0, 0
0, 0
0, 0
0, 0
0, 0
0, 0
0, 0
0, 0
0, 0
0, 0
0, 0
0, 0
0, 0
0, 0
0, 0
0, 0
0, 0
0, 0
0, 0
0, 1
0, 0
0, 0
0, 0
0, 0
0, 0
0, 0
0, 0
0, 0
0, 0
0, 0
0, 0
0, 0
0, 1
0, 0
0, 1
0, 0
0, 0
0, 0
0, 1
1, 1
0, 0
0, 0
0, 0
0, 0
1, 0
0, 0
0, 0
0, 0
0, 0
0, 0
0, 0
0, 0
0, 0
0, 0
0, 0
0, 0
0, 0
0, 0
0, 0
0, 0
0, 0
0, 0
0, 0
0, 0
0, 0
0, 0
0, 0
0, 0
0, 0
0, 0
0, 0
0, 0
0, 0
0, 0
0, 0
0, 0
0, 0
0, 0
0, 0
0, 0
0, 0
0, 0
0, 0
0, 0
0, 0
0, 0
0, 0
0, 0
0, 0
0, 0
0, 0
0, 0
0, 0
0, 0
0, 0
0, 0
0, 0
0, 0
0, 0
0, 0
0, 0
0, 0
0, 0
0, 0
0, 0
0, 0
0, 0
0, 0
0, 0
0, 0
0, 0
0, 0
0, 0
0, 0
0, 0
0, 0
0, 0
0, 0
0, 0
0, 0
0, 0
0, 0
0, 0
0, 0
0, 0
0, 0
0, 0
0, 0
0, 0
0, 0
0, 0
0, 0
0, 0
0, 0
0, 0
0, 0
0, 0
0, 0
0, 0
0, 0
0, 0
0, 0
0, 0
0, 0
0, 0
0, 0
0, 0
0, 0
0, 0
0, 0
0, 0
0, 0
0, 0
0, 0
0, 0
0, 0
0, 0
0, 0
0, 0
0, 0
0, 0
0, 0
0, 0
0, 0
0, 0
0, 0
0, 0
0, 0
0, 0
0, 0
0, 0
0, 0
0, 0
0, 0
0, 0
0, 0
0, 0
0, 0
0, 0
0, 0
0, 0
0, 0
0, 0
0, 0
0, 0
0, 0
0, 0
0, 0
0, 0
0, 0
0, 0
0, 0
0, 0
0, 0
0, 0
0, 0
0, 0
0, 0
0, 0
0, 0
0, 0
0, 0
0, 0
0, 0
0, 0
0, 0
0, 0
0, 0
0, 0
0, 0
0, 0
0, 0
0, 0
0, 0
0, 0
0, 0
0, 0
0, 0
0, 0
0, 0
0, 0
0, 0
0, 0
0, 0
0, 0
0, 0
0, 0
0, 0
0, 0
0, 0
0, 0
0, 0
0, 0
0, 0
0, 0
0, 0
0, 0
0, 0
0, 0
0, 0
0, 0
0, 0
0, 0
0, 0
0, 0
0, 0
0, 0
0, 0
0, 0
0, 0
0, 0
0, 0
0, 0
0, 0
0, 0
0, 0
0, 0
0, 0
0, 0
0, 0
0, 0
0, 0
0, 0
0, 1
0, 0
0, 0
0, 0
0, 0
0, 0
0, 0
0, 0
0, 0
0, 0
0, 0
0, 0
0, 0
0, 0
0, 0
0, 0
0, 0
0, 0
0, 0
0, 0
0, 0
0, 0
0, 0
0, 0
0, 0
0, 0
0, 0
0, 0
0, 0
0, 0
0, 0
0, 0
0, 0
0, 0
0, 0
0, 0
0, 0
0, 0
0, 0
0, 0
0, 0
0, 0
0, 0
0, 0
0, 0
0, 0
0, 0
0, 0
0, 0
0, 0
0, 0
0, 0
0, 0
0, 0
0, 0
0, 0
0, 0
0, 0
0, 0
0, 0
0, 0
0, 0
0, 0
0, 0
0, 0
0, 0
0, 0
0, 0
0, 0
0, 0
0, 0
0, 0
0, 0
0, 0
0, 0
0, 0
0, 0
0, 0
0, 0
0, 0
0, 0
0, 0
0, 0
0, 0
0, 0
0, 0
0, 0
0, 0
0, 0
0, 0
0, 0
0, 0
0, 0
0, 0
0, 0
0, 0
0, 0
0, 0
0, 0
0, 0
0, 0
0, 0
0, 0
0, 0
0, 0
0, 0
0, 0
0, 0
0, 0
0, 0
0, 0
0, 0
0, 0
0, 0
0, 0
0, 0
0, 0
0, 0
0, 0
0, 0
0, 0
0, 0
0, 0
0, 0
0, 0
0, 0
0, 0
0, 0
0, 0
0, 0
0, 0
0, 0
0, 0
0, 0
0, 0
0, 0
0, 0
0, 0
0, 0
0, 0
0, 0
0, 0
0, 0
0, 0
0, 0
0, 0
0, 0
0, 0
0, 0
0, 0
0, 0
0, 0
0, 0
0, 0
0, 0
0, 0
0, 0
0, 0
0, 0
0, 0
0, 0
0, 0
0, 0
0, 0
0, 0
0, 0
0, 0
0, 0
0, 0
0, 0
0, 0
0, 0
0, 0
0, 0
0, 0
0, 0
0, 0
0, 0
0, 0
0, 0
0, 0
0, 0
0, 0
0, 0
0, 0
0, 0
0, 0
0, 0
0, 0
0, 0
0, 0
0, 0
0, 0
0, 0
0, 0
0, 0
0, 0
0, 0
0, 0
0, 0
0, 0
0, 0
0, 0
0, 0
0, 0
0, 0
0, 0
0, 0
0, 0
0, 0
0, 0
0, 0
0, 0
0, 0
0, 0
0, 0
0, 0
0, 0
0, 0
0, 0
0, 0
0, 0
0, 0
0, 0
0, 0
0, 0
0, 0
#ENDOFDATA     end of spectrum data