File: host_upload/12-01-2023/Dourbes (shot-by-shot)/upload_4/ps__0257_0689790785_000rfs_shot_3154.msa
#FORMAT      : EMSA/MAS spectral data file
#VERSION     : TC202v2.0 PIXL
#TITLE       : N/A
#DATE        :       Date in the format DD-MMM-YYYY, for example 07-JUL-2010
#TIME        :             The time of day at which the spectrum was recorded, in 24-hour format
#OWNER       : PIXL Flight Model       (PIXL will use this to indicate which instrument took the data.)
#NPOINTS     : 4096     Number of data points in the spectrum (This can be zero for configuration only files)
#NCOLUMNS    : 2     Number of data columns in the spectrum (This can be zero for configuration only files)
#XUNITS      : eV
#YUNITS      : COUNTS
#DATATYPE    : YY
#XPERCHAN    : 7.862, 7.881   eV per channel (separate by commas if more than one detector)
#OFFSET      : 18.5, -22.4         eV of first channel  (separate by commas if more than one detector
#SIGNALTYPE  : XRF
#YP_TEMP     : 3.005
#LIVETIME    : 9.14935, 9.14286   seconds (separate by commas if more than one detector)
#REALTIME    : 10, 10.0   seconds (separate by commas if more than one detector)
#SPECTRUM    : start of spectrum data
0, 0
0, 0
0, 0
0, 0
0, 0
0, 0
0, 0
0, 0
0, 0
0, 0
0, 0
0, 0
0, 0
0, 0
0, 0
0, 0
0, 0
0, 0
0, 0
0, 0
0, 0
0, 0
0, 0
0, 0
0, 0
0, 0
0, 0
0, 0
0, 0
0, 0
0, 0
0, 0
1, 0
0, 1
0, 1
1, 0
0, 0
1, 3
2, 2
2, 0
2, 2
4, 1
1, 2
2, 1
0, 2
2, 2
0, 0
4, 1
5, 3
7, 4
5, 12
24, 20
41, 33
27, 33
41, 54
45, 40
40, 24
21, 20
10, 13
5, 6
6, 7
3, 4
13, 4
13, 17
5, 15
9, 15
16, 19
14, 13
26, 29
47, 46
140, 153
267, 270
447, 489
583, 724
768, 840
804, 858
715, 729
474, 535
306, 302
153, 198
90, 93
42, 54
31, 33
22, 22
8, 15
5, 13
12, 8
4, 7
2, 6
2, 0
1, 1
2, 4
2, 2
0, 4
2, 4
5, 10
4, 5
7, 8
4, 3
5, 2
10, 8
7, 2
6, 3
6, 3
2, 6
2, 4
4, 0
6, 8
12, 13
12, 11
25, 16
25, 40
37, 45
41, 36
39, 42
29, 36
32, 42
30, 33
32, 30
21, 22
29, 23
14, 32
16, 22
24, 23
15, 17
16, 16
12, 10
7, 10
9, 10
5, 9
6, 9
4, 3
9, 3
6, 4
0, 2
4, 4
4, 3
3, 5
1, 7
4, 3
3, 2
2, 2
7, 2
6, 6
1, 2
3, 1
8, 3
7, 8
8, 10
19, 22
34, 53
82, 96
171, 222
318, 421
550, 618
819, 927
985, 1125
1080, 1230
1032, 1075
905, 876
618, 604
373, 371
217, 205
129, 98
68, 53
35, 43
49, 42
66, 64
112, 124
121, 136
147, 168
172, 153
159, 140
106, 137
75, 95
63, 43
33, 21
7, 16
6, 7
7, 5
7, 5
0, 2
2, 3
4, 1
5, 5
7, 1
12, 9
15, 9
20, 21
22, 20
34, 37
32, 34
42, 38
33, 31
18, 29
20, 27
20, 11
16, 14
19, 12
8, 10
8, 9
7, 4
5, 8
9, 4
9, 3
6, 6
6, 5
7, 2
11, 11
13, 15
5, 15
14, 7
8, 11
9, 10
3, 8
5, 6
5, 4
3, 7
7, 4
2, 4
4, 3
4, 9
5, 9
6, 8
3, 21
20, 15
16, 24
40, 33
43, 37
49, 50
49, 46
44, 53
33, 39
36, 36
23, 24
16, 12
7, 10
6, 5
1, 7
6, 5
5, 5
5, 9
7, 8
7, 8
11, 11
10, 18
13, 17
29, 33
45, 42
45, 53
46, 51
55, 54
51, 51
38, 49
39, 35
32, 27
28, 19
11, 12
14, 12
14, 13
9, 12
11, 14
16, 17
36, 40
58, 55
95, 159
200, 292
405, 477
521, 722
797, 955
989, 1188
1194, 1359
1199, 1364
1184, 1173
1015, 987
803, 751
548, 502
362, 281
200, 157
134, 106
68, 47
38, 29
13, 13
12, 17
13, 13
9, 12
10, 8
10, 12
15, 13
3, 8
5, 7
21, 30
33, 22
39, 42
56, 83
62, 82
94, 123
145, 146
140, 201
196, 207
184, 196
170, 212
139, 121
116, 109
88, 68
43, 43
34, 22
23, 16
10, 5
5, 10
13, 5
14, 8
12, 10
19, 6
13, 8
15, 3
21, 6
14, 9
12, 3
13, 9
6, 4
5, 6
4, 8
2, 4
5, 3
2, 2
5, 9
5, 5
8, 5
2, 7
6, 5
2, 10
4, 4
3, 3
4, 1
8, 4
6, 3
8, 1
6, 3
7, 2
5, 4
9, 6
9, 2
1, 3
4, 5
10, 4
8, 6
7, 6
9, 4
6, 4
8, 7
7, 4
6, 7
7, 1
7, 13
5, 9
6, 12
6, 12
2, 13
6, 15
6, 10
8, 5
5, 10
4, 5
5, 4
3, 7
2, 8
3, 2
4, 4
3, 3
6, 6
5, 4
2, 4
6, 5
2, 7
4, 1
2, 8
4, 7
6, 3
6, 4
3, 4
8, 3
7, 5
8, 5
9, 3
8, 4
7, 3
5, 4
5, 5
6, 6
5, 9
6, 9
4, 2
2, 9
6, 5
4, 7
1, 8
5, 15
3, 7
1, 8
6, 10
4, 8
4, 5
3, 4
4, 5
4, 2
1, 7
2, 4
7, 7
3, 8
2, 15
7, 6
5, 9
1, 9
3, 16
4, 5
12, 8
5, 2
4, 3
3, 5
6, 3
5, 5
6, 2
11, 4
10, 2
9, 2
13, 4
9, 4
6, 4
6, 1
10, 2
9, 3
7, 3
6, 4
4, 1
4, 3
6, 3
3, 2
1, 2
2, 1
3, 3
6, 1
2, 4
5, 2
3, 2
2, 2
2, 2
2, 4
2, 2
2, 3
4, 1
3, 2
3, 3
3, 3
5, 2
1, 0
2, 4
2, 1
4, 1
3, 8
6, 5
5, 2
6, 5
4, 3
5, 1
9, 2
6, 2
1, 3
1, 1
6, 2
3, 2
6, 4
5, 5
5, 2
5, 6
0, 4
1, 1
1, 1
4, 4
2, 4
4, 3
1, 8
4, 5
2, 1
5, 2
2, 1
1, 1
2, 5
2, 3
0, 3
5, 4
0, 3
0, 5
3, 4
0, 4
3, 0
4, 6
1, 4
2, 1
4, 5
3, 1
1, 6
5, 2
1, 1
2, 3
4, 1
1, 3
2, 2
1, 0
9, 3
7, 1
4, 1
4, 4
1, 1
5, 3
3, 2
4, 3
4, 2
5, 2
3, 0
2, 3
0, 1
4, 2
3, 2
2, 2
2, 3
1, 3
1, 1
0, 0
1, 2
0, 5
0, 1
0, 3
3, 1
0, 3
2, 0
1, 0
2, 1
2, 3
2, 1
1, 4
1, 0
5, 4
2, 0
2, 2
3, 3
2, 1
0, 2
1, 1
3, 0
5, 2
2, 1
0, 2
1, 0
2, 4
1, 1
1, 3
1, 1
1, 3
0, 4
2, 2
3, 1
2, 4
0, 3
0, 1
0, 1
0, 4
1, 4
2, 2
1, 1
1, 3
1, 1
2, 1
2, 3
2, 1
0, 3
1, 1
2, 0
1, 0
0, 1
3, 2
1, 1
2, 3
0, 0
0, 0
1, 1
1, 5
1, 1
1, 2
3, 2
1, 1
1, 2
1, 1
1, 2
1, 1
2, 1
0, 3
2, 1
1, 0
1, 2
1, 0
1, 0
4, 1
3, 0
0, 0
0, 3
3, 0
0, 3
0, 0
3, 2
1, 0
1, 0
3, 0
1, 1
1, 0
0, 1
2, 1
0, 0
1, 0
2, 0
1, 0
4, 0
2, 1
2, 1
2, 1
2, 1
1, 1
2, 0
0, 1
0, 0
0, 2
1, 0
1, 0
1, 1
4, 1
1, 0
1, 0
0, 0
1, 0
0, 1
1, 3
0, 0
0, 0
0, 1
1, 1
0, 2
4, 1
0, 0
2, 2
1, 1
1, 0
1, 2
0, 0
1, 1
1, 1
0, 0
0, 2
1, 1
3, 0
0, 0
1, 1
2, 2
1, 0
0, 0
2, 0
0, 1
0, 1
0, 1
0, 0
0, 1
1, 0
2, 1
0, 1
1, 0
0, 1
0, 2
1, 0
0, 1
0, 0
0, 0
0, 0
0, 0
1, 0
1, 0
0, 1
0, 0
2, 2
0, 0
0, 0
0, 0
0, 0
1, 0
0, 0
1, 0
0, 1
1, 0
0, 1
0, 0
1, 0
0, 1
1, 0
0, 0
1, 0
0, 0
0, 1
0, 0
1, 0
0, 0
0, 0
0, 1
0, 0
0, 0
0, 0
0, 0
0, 0
0, 0
0, 0
0, 1
1, 0
0, 3
0, 0
0, 1
0, 3
1, 1
1, 0
1, 0
0, 0
0, 0
0, 0
0, 0
0, 0
0, 0
1, 0
0, 1
0, 0
0, 0
2, 0
0, 0
0, 0
0, 0
0, 1
0, 3
1, 0
0, 0
1, 0
0, 0
0, 0
0, 0
1, 0
1, 0
0, 0
1, 0
0, 0
0, 1
0, 0
0, 0
0, 0
0, 0
1, 1
0, 1
0, 0
0, 0
0, 0
0, 1
0, 0
0, 0
1, 0
0, 0
0, 0
0, 0
1, 1
1, 1
1, 0
0, 1
0, 3
0, 0
0, 0
1, 0
0, 0
0, 0
0, 0
0, 1
2, 0
0, 0
1, 0
0, 1
0, 0
0, 0
0, 0
0, 0
1, 0
0, 0
0, 0
1, 1
0, 1
2, 0
0, 0
0, 0
0, 0
0, 0
1, 0
0, 0
0, 0
0, 0
1, 0
0, 0
0, 0
0, 1
0, 0
0, 0
0, 0
0, 0
0, 0
0, 0
1, 0
0, 0
0, 0
1, 1
0, 0
0, 0
0, 1
0, 0
0, 0
0, 0
0, 0
0, 0
1, 0
1, 0
0, 0
0, 0
0, 0
0, 0
0, 0
0, 0
0, 0
0, 0
1, 0
0, 0
0, 0
0, 0
0, 0
0, 0
0, 0
0, 0
0, 0
0, 0
1, 0
0, 0
1, 0
0, 0
0, 0
0, 0
0, 0
0, 1
1, 0
0, 0
0, 0
0, 0
0, 0
1, 0
0, 0
0, 0
0, 0
1, 0
0, 0
1, 0
0, 0
0, 0
0, 0
0, 0
0, 0
0, 0
0, 1
0, 0
0, 0
1, 1
0, 0
0, 0
0, 0
0, 0
0, 0
0, 0
0, 0
0, 0
0, 0
0, 0
0, 0
0, 0
0, 0
0, 0
0, 0
0, 1
0, 0
0, 0
0, 0
0, 0
0, 1
0, 0
0, 0
0, 0
0, 0
0, 0
0, 0
0, 0
1, 0
0, 0
0, 1
0, 0
0, 0
0, 0
0, 0
0, 0
0, 0
0, 1
0, 0
0, 0
0, 0
0, 0
0, 0
0, 0
0, 0
0, 0
0, 0
0, 0
0, 0
0, 0
0, 0
0, 0
0, 0
0, 0
0, 0
0, 0
0, 0
0, 0
0, 0
0, 0
0, 0
0, 0
0, 0
0, 0
0, 0
0, 1
0, 0
0, 0
0, 0
0, 0
0, 0
0, 0
0, 0
0, 0
0, 0
0, 0
0, 0
0, 0
0, 0
0, 0
0, 0
0, 0
0, 0
0, 0
0, 0
0, 0
0, 0
0, 0
0, 0
0, 0
0, 0
0, 0
0, 0
0, 0
0, 1
0, 0
0, 0
0, 0
0, 0
0, 0
0, 0
0, 0
0, 0
0, 0
0, 0
0, 0
0, 0
0, 0
0, 0
0, 0
0, 0
0, 0
0, 0
0, 0
0, 0
0, 0
0, 0
0, 0
0, 0
0, 0
0, 0
0, 0
0, 0
0, 0
0, 0
0, 0
0, 0
0, 0
0, 0
0, 0
0, 0
0, 0
0, 0
0, 0
0, 0
0, 0
0, 0
0, 0
0, 0
0, 0
0, 0
0, 0
0, 0
0, 0
0, 0
0, 0
0, 0
0, 0
0, 0
0, 0
0, 0
0, 0
0, 0
0, 0
0, 0
0, 0
0, 0
0, 0
0, 0
0, 0
0, 0
0, 0
0, 0
0, 0
0, 0
0, 0
0, 0
0, 0
0, 1
0, 0
0, 0
0, 0
0, 0
0, 0
0, 0
0, 0
0, 0
0, 0
0, 0
0, 0
0, 0
0, 0
0, 0
0, 0
0, 0
0, 0
0, 0
0, 0
0, 0
0, 0
0, 0
0, 0
0, 0
0, 0
0, 0
0, 0
0, 0
0, 0
0, 0
0, 0
0, 0
0, 0
0, 0
0, 0
0, 0
0, 0
0, 0
0, 0
0, 0
0, 0
0, 0
0, 0
0, 0
0, 0
0, 0
0, 0
0, 0
0, 0
0, 0
0, 0
0, 0
0, 0
0, 1
0, 0
0, 0
0, 0
0, 0
0, 0
0, 0
0, 0
0, 0
0, 0
0, 0
0, 0
0, 0
0, 0
0, 0
0, 0
0, 0
0, 0
0, 0
0, 0
0, 0
0, 0
0, 0
0, 0
0, 0
0, 0
0, 0
0, 0
0, 0
0, 0
0, 0
0, 0
0, 0
0, 0
0, 0
0, 0
0, 0
0, 0
0, 0
0, 0
0, 0
0, 0
0, 0
0, 0
0, 0
0, 0
0, 0
0, 0
0, 0
0, 0
0, 0
0, 0
0, 0
0, 0
0, 0
0, 0
0, 0
0, 0
0, 0
0, 0
0, 0
0, 0
0, 0
0, 0
0, 0
0, 0
0, 0
0, 0
0, 0
0, 0
0, 0
0, 0
0, 0
0, 0
0, 0
0, 0
0, 0
0, 0
0, 0
0, 0
0, 0
0, 0
0, 0
0, 0
0, 0
0, 0
0, 0
0, 0
0, 0
0, 0
0, 0
0, 0
0, 0
0, 0
0, 0
0, 0
0, 0
0, 0
0, 0
0, 0
0, 0
0, 0
0, 0
0, 0
0, 0
0, 0
0, 0
0, 0
0, 0
0, 0
0, 0
0, 0
0, 0
0, 0
0, 0
0, 0
0, 0
0, 0
0, 0
0, 0
0, 0
0, 0
0, 0
0, 0
0, 0
0, 0
0, 0
0, 0
0, 0
0, 0
0, 0
0, 0
0, 0
0, 0
0, 0
0, 0
0, 0
0, 0
0, 0
0, 0
0, 0
0, 0
0, 0
0, 0
0, 0
0, 0
0, 0
0, 0
0, 0
0, 0
0, 0
0, 0
0, 0
0, 0
0, 0
0, 0
0, 0
0, 0
0, 0
0, 0
0, 0
0, 0
0, 0
0, 0
0, 0
0, 0
0, 0
0, 0
0, 0
0, 0
0, 0
0, 0
0, 0
0, 0
0, 0
0, 0
0, 0
0, 0
0, 0
0, 0
0, 0
0, 0
0, 0
0, 0
0, 0
0, 0
0, 0
0, 0
0, 0
0, 0
0, 0
0, 0
0, 0
0, 0
0, 0
0, 0
0, 0
0, 0
0, 0
0, 0
0, 0
0, 0
0, 0
0, 0
0, 0
0, 0
0, 0
0, 0
0, 0
0, 0
0, 0
0, 0
0, 0
0, 0
0, 0
0, 0
0, 0
0, 0
0, 0
0, 0
0, 0
0, 0
0, 0
0, 0
0, 0
0, 0
0, 0
0, 0
0, 0
0, 0
0, 0
0, 0
0, 0
0, 0
0, 0
0, 0
0, 0
0, 0
0, 0
0, 0
0, 0
0, 0
0, 0
0, 0
0, 0
0, 0
0, 0
0, 0
0, 0
0, 0
0, 0
0, 0
0, 0
0, 0
0, 0
0, 0
0, 0
0, 0
0, 0
0, 0
0, 0
0, 0
0, 0
0, 0
0, 0
0, 0
0, 0
0, 0
#ENDOFDATA     end of spectrum data