File: host_upload/12-01-2023/Dourbes (shot-by-shot)/upload_4/ps__0257_0689790785_000rfs_shot_3083.msa
#FORMAT      : EMSA/MAS spectral data file
#VERSION     : TC202v2.0 PIXL
#TITLE       : N/A
#DATE        :       Date in the format DD-MMM-YYYY, for example 07-JUL-2010
#TIME        :             The time of day at which the spectrum was recorded, in 24-hour format
#OWNER       : PIXL Flight Model       (PIXL will use this to indicate which instrument took the data.)
#NPOINTS     : 4096     Number of data points in the spectrum (This can be zero for configuration only files)
#NCOLUMNS    : 2     Number of data columns in the spectrum (This can be zero for configuration only files)
#XUNITS      : eV
#YUNITS      : COUNTS
#DATATYPE    : YY
#XPERCHAN    : 7.862, 7.881   eV per channel (separate by commas if more than one detector)
#OFFSET      : 18.5, -22.4         eV of first channel  (separate by commas if more than one detector
#SIGNALTYPE  : XRF
#YP_TEMP     : 3.198
#LIVETIME    : 9.09161, 9.09082   seconds (separate by commas if more than one detector)
#REALTIME    : 10, 10.0   seconds (separate by commas if more than one detector)
#SPECTRUM    : start of spectrum data
0, 0
0, 0
0, 0
0, 0
0, 0
0, 0
0, 0
0, 0
0, 0
0, 0
0, 0
0, 0
0, 0
0, 0
0, 0
0, 0
0, 0
0, 0
0, 0
0, 0
0, 0
0, 0
0, 0
0, 0
0, 0
0, 0
0, 0
0, 0
0, 0
0, 0
0, 0
0, 0
0, 0
0, 0
0, 1
0, 1
0, 1
1, 0
1, 0
2, 1
1, 3
0, 2
0, 1
3, 1
2, 2
1, 1
7, 4
5, 1
1, 2
6, 2
13, 5
21, 22
26, 34
48, 32
45, 29
35, 35
28, 27
18, 13
11, 13
12, 6
19, 22
37, 26
45, 44
66, 58
55, 53
50, 60
49, 34
42, 29
32, 30
62, 47
119, 113
216, 198
401, 329
548, 472
638, 615
626, 624
547, 509
424, 387
268, 189
152, 137
60, 75
26, 30
16, 15
7, 7
4, 5
4, 3
0, 3
4, 2
2, 0
1, 1
0, 2
1, 0
0, 1
1, 1
1, 0
2, 4
3, 3
1, 7
3, 4
4, 2
3, 4
5, 3
5, 3
3, 1
5, 0
2, 3
6, 1
11, 4
5, 10
13, 16
19, 19
29, 21
29, 26
39, 26
37, 37
33, 32
31, 32
25, 30
22, 32
25, 17
22, 11
22, 12
12, 16
19, 22
10, 16
17, 16
12, 20
6, 18
10, 15
9, 19
5, 9
7, 8
2, 11
2, 14
3, 6
5, 11
6, 14
12, 13
12, 20
25, 23
24, 32
36, 32
22, 27
20, 15
17, 12
15, 5
12, 8
3, 5
1, 4
3, 4
4, 9
16, 7
11, 26
19, 17
38, 41
65, 48
59, 50
54, 45
47, 48
34, 50
33, 22
22, 20
11, 8
9, 8
1, 1
2, 5
3, 6
9, 2
13, 7
8, 12
17, 13
5, 11
8, 10
13, 9
10, 10
7, 9
5, 7
4, 3
4, 5
4, 3
2, 4
4, 2
4, 0
6, 5
4, 4
6, 4
3, 7
8, 10
5, 9
7, 11
11, 7
12, 18
16, 9
17, 9
21, 18
14, 16
11, 15
18, 11
18, 9
11, 15
7, 18
12, 12
11, 7
3, 8
4, 7
6, 7
4, 11
15, 3
8, 8
4, 6
1, 7
12, 6
10, 4
7, 3
4, 6
5, 5
6, 6
3, 7
5, 3
6, 6
6, 12
3, 7
13, 11
4, 8
8, 8
3, 7
12, 10
8, 8
7, 4
11, 12
7, 9
10, 5
8, 7
8, 11
8, 6
12, 11
10, 5
11, 9
6, 6
10, 8
12, 4
6, 4
6, 8
13, 9
13, 11
16, 16
33, 26
44, 33
67, 50
73, 52
73, 66
85, 72
61, 58
71, 50
41, 38
38, 30
37, 19
27, 24
21, 14
24, 17
23, 15
21, 21
35, 37
59, 90
144, 177
240, 298
458, 488
824, 834
1254, 1357
1808, 1909
2299, 2377
2652, 2590
2822, 2593
2747, 2462
2412, 2059
1778, 1490
1316, 940
850, 578
482, 331
238, 180
130, 71
79, 46
33, 30
16, 32
17, 51
10, 52
10, 52
10, 57
18, 54
20, 53
28, 56
34, 46
33, 58
74, 84
109, 114
174, 169
212, 241
280, 305
371, 375
384, 408
400, 400
370, 332
314, 294
227, 211
174, 145
116, 101
73, 63
40, 32
27, 30
15, 12
12, 15
14, 14
17, 11
15, 11
19, 5
14, 10
20, 18
17, 5
21, 10
6, 6
18, 4
5, 4
12, 4
9, 1
5, 6
8, 5
5, 2
3, 6
1, 9
2, 9
6, 7
4, 8
1, 6
7, 10
3, 5
4, 8
3, 6
4, 3
10, 5
3, 7
3, 7
7, 5
5, 6
8, 8
4, 8
5, 4
3, 8
9, 5
8, 7
8, 4
9, 7
4, 5
5, 9
12, 3
3, 8
9, 6
6, 3
13, 5
8, 6
4, 3
5, 2
6, 7
9, 3
6, 1
7, 5
4, 6
8, 7
8, 5
11, 2
8, 4
6, 2
5, 2
15, 1
3, 1
3, 3
4, 4
2, 4
6, 3
6, 1
6, 1
8, 2
5, 6
5, 1
4, 2
4, 1
4, 1
8, 6
6, 4
9, 5
14, 4
9, 3
7, 3
8, 2
11, 5
4, 3
6, 1
6, 4
3, 3
5, 3
8, 4
8, 1
8, 1
8, 1
3, 2
10, 3
10, 3
7, 1
7, 4
8, 3
7, 5
9, 2
2, 6
7, 2
6, 2
3, 0
4, 2
2, 2
3, 1
6, 2
7, 2
0, 2
4, 1
2, 2
3, 5
5, 2
4, 6
4, 3
2, 6
3, 3
3, 4
8, 4
8, 2
6, 3
7, 6
6, 6
6, 1
3, 6
5, 3
4, 5
4, 3
3, 3
3, 1
5, 1
5, 1
5, 4
5, 4
1, 3
4, 2
8, 3
7, 3
2, 2
5, 1
2, 0
6, 1
9, 3
2, 4
2, 6
1, 6
4, 4
3, 2
5, 3
2, 5
5, 1
2, 4
1, 4
3, 0
4, 2
7, 5
2, 7
0, 2
2, 2
6, 2
3, 6
6, 3
6, 2
4, 6
3, 1
3, 1
6, 4
1, 1
6, 2
3, 0
2, 1
2, 0
3, 5
2, 2
2, 3
0, 3
4, 2
4, 2
3, 3
1, 2
1, 0
2, 7
2, 1
2, 1
2, 3
4, 3
0, 1
1, 5
3, 2
1, 3
3, 4
2, 1
6, 4
4, 3
0, 2
5, 0
0, 1
1, 1
5, 2
1, 1
3, 1
5, 2
4, 2
3, 2
2, 1
1, 5
4, 1
5, 4
2, 1
7, 0
1, 0
7, 2
2, 3
2, 3
1, 0
2, 2
5, 1
3, 5
5, 1
3, 2
6, 1
1, 3
1, 2
2, 2
5, 3
2, 1
2, 3
1, 1
6, 2
5, 7
11, 5
5, 3
3, 5
4, 1
4, 7
1, 2
5, 1
1, 3
1, 0
1, 1
1, 2
1, 2
4, 3
6, 1
3, 1
3, 2
1, 0
4, 4
2, 0
2, 2
1, 1
3, 4
3, 1
2, 1
2, 3
1, 0
4, 1
4, 1
5, 2
3, 0
3, 4
4, 7
2, 6
3, 3
1, 2
0, 1
3, 2
2, 2
2, 0
1, 3
3, 1
2, 0
1, 0
0, 1
2, 5
2, 0
4, 1
0, 0
1, 2
2, 2
0, 0
0, 2
3, 0
3, 1
2, 0
2, 0
4, 2
2, 0
2, 3
1, 1
3, 2
3, 1
4, 2
3, 1
3, 1
2, 3
1, 1
2, 1
2, 1
2, 1
4, 0
2, 2
3, 1
2, 0
0, 0
0, 1
0, 0
4, 0
1, 0
0, 1
0, 1
0, 1
1, 0
1, 0
2, 0
4, 1
0, 1
1, 0
3, 0
0, 1
1, 0
0, 0
0, 2
2, 2
0, 1
1, 1
0, 0
0, 2
0, 0
2, 0
0, 1
1, 2
1, 0
0, 0
0, 0
0, 0
0, 1
1, 2
1, 1
1, 1
0, 0
3, 0
0, 1
1, 0
1, 0
2, 0
1, 0
0, 2
0, 0
0, 0
0, 0
0, 2
1, 1
0, 1
0, 1
1, 1
0, 0
1, 1
1, 0
0, 1
1, 0
0, 0
0, 0
0, 2
0, 1
1, 0
1, 1
1, 0
1, 0
0, 0
0, 0
0, 0
1, 0
0, 1
1, 0
1, 1
0, 0
1, 0
0, 1
1, 0
0, 1
0, 0
0, 0
0, 0
1, 0
0, 0
1, 0
1, 0
0, 0
0, 0
1, 1
1, 0
0, 0
1, 0
0, 1
0, 0
0, 1
0, 0
1, 1
0, 0
1, 0
0, 1
0, 1
1, 2
0, 0
0, 0
0, 0
0, 0
1, 0
0, 0
0, 0
1, 0
1, 0
0, 1
0, 1
1, 0
0, 1
1, 0
4, 1
0, 0
0, 0
0, 0
0, 0
3, 0
0, 0
0, 1
0, 0
0, 0
0, 0
0, 0
1, 0
0, 0
0, 1
0, 0
1, 0
0, 1
1, 0
0, 0
0, 0
0, 0
1, 0
1, 0
0, 0
0, 0
1, 0
0, 0
0, 0
0, 0
0, 0
0, 0
0, 0
0, 1
0, 0
0, 1
0, 1
0, 0
0, 0
0, 0
0, 0
0, 0
0, 0
0, 0
0, 0
0, 0
0, 0
1, 0
0, 1
0, 0
0, 1
0, 0
0, 0
1, 0
0, 0
1, 0
0, 0
1, 0
0, 0
0, 0
2, 0
0, 0
1, 0
1, 0
0, 0
1, 0
1, 0
0, 0
1, 0
0, 0
1, 0
0, 0
1, 0
0, 0
0, 0
0, 1
0, 0
0, 0
1, 0
0, 0
0, 0
1, 0
0, 0
0, 1
0, 0
1, 0
0, 0
0, 0
0, 0
0, 0
0, 0
0, 0
0, 0
1, 0
0, 0
0, 0
1, 0
0, 0
0, 0
1, 0
0, 0
1, 0
0, 0
1, 0
1, 0
0, 0
0, 0
1, 1
0, 0
0, 0
0, 1
0, 0
0, 0
0, 0
0, 0
0, 0
0, 0
0, 0
0, 1
0, 0
0, 0
0, 0
1, 0
1, 0
0, 0
0, 0
1, 0
0, 0
0, 2
0, 0
1, 1
1, 0
0, 0
0, 1
0, 1
0, 0
0, 0
1, 0
0, 0
0, 0
0, 0
0, 0
0, 0
0, 0
1, 0
0, 0
0, 0
0, 0
0, 0
0, 0
0, 0
0, 0
0, 0
0, 0
0, 0
0, 0
0, 0
0, 0
0, 0
0, 0
0, 0
0, 0
0, 1
0, 0
1, 0
1, 0
1, 0
0, 0
0, 0
0, 1
0, 0
0, 0
0, 0
0, 0
0, 0
0, 0
0, 0
0, 0
0, 0
0, 0
0, 0
0, 0
0, 0
0, 0
0, 0
0, 0
0, 0
0, 0
0, 0
0, 0
0, 0
0, 0
1, 0
0, 0
0, 0
1, 0
0, 0
0, 0
0, 0
0, 0
0, 0
0, 0
0, 0
0, 0
0, 0
0, 0
0, 0
0, 0
0, 0
0, 0
0, 0
0, 0
0, 0
0, 0
0, 0
0, 0
0, 0
0, 0
0, 0
0, 0
0, 0
0, 0
1, 0
0, 0
0, 0
0, 0
0, 0
0, 0
0, 0
0, 0
0, 1
1, 0
0, 0
0, 1
0, 0
0, 0
1, 0
0, 0
0, 0
0, 0
0, 0
0, 0
0, 0
0, 0
0, 0
0, 0
0, 0
0, 0
0, 0
0, 0
0, 0
0, 0
0, 0
0, 0
0, 0
0, 0
0, 0
0, 0
0, 1
0, 0
0, 0
0, 0
0, 0
0, 0
0, 0
0, 0
0, 0
0, 0
0, 0
0, 0
1, 0
0, 0
0, 0
0, 0
0, 0
0, 0
0, 0
0, 0
0, 0
0, 0
0, 0
0, 0
0, 0
0, 0
0, 0
0, 0
0, 0
0, 0
0, 0
0, 0
0, 0
0, 0
0, 0
0, 0
0, 0
0, 0
0, 0
0, 0
0, 0
0, 0
0, 0
0, 0
0, 0
0, 0
0, 0
0, 0
0, 0
0, 0
0, 0
0, 0
0, 0
0, 0
0, 0
0, 0
0, 0
0, 0
0, 0
0, 0
0, 0
0, 0
0, 0
0, 0
0, 0
0, 0
0, 0
0, 0
0, 0
0, 0
0, 0
0, 0
0, 0
0, 0
0, 0
0, 0
0, 0
0, 0
0, 0
0, 0
0, 0
0, 0
0, 0
0, 0
0, 0
0, 0
0, 0
0, 0
0, 0
0, 0
0, 0
1, 0
0, 0
0, 0
0, 0
0, 0
0, 0
0, 0
0, 0
0, 0
0, 0
0, 0
0, 0
0, 0
0, 0
0, 0
0, 0
0, 0
0, 0
0, 0
0, 0
0, 0
0, 0
0, 0
0, 0
0, 0
0, 0
0, 0
0, 0
0, 0
0, 0
0, 0
0, 0
0, 0
0, 0
0, 0
0, 0
0, 0
0, 0
0, 0
0, 0
0, 0
0, 0
0, 0
0, 0
0, 0
0, 0
0, 0
0, 0
0, 0
0, 0
0, 0
0, 0
0, 0
0, 0
0, 0
0, 0
0, 0
0, 0
0, 0
0, 0
0, 0
0, 0
0, 0
0, 0
0, 0
0, 0
0, 0
0, 0
0, 0
0, 0
0, 0
0, 0
0, 0
0, 0
0, 0
0, 0
0, 0
0, 0
0, 0
0, 0
0, 0
0, 0
0, 0
0, 0
0, 0
0, 0
0, 0
0, 0
0, 0
0, 0
0, 0
0, 0
0, 0
0, 0
0, 0
0, 0
0, 0
0, 0
0, 0
0, 0
0, 0
0, 0
0, 0
0, 0
0, 0
0, 0
0, 0
0, 0
0, 0
0, 0
0, 0
0, 0
0, 0
0, 0
0, 0
0, 0
0, 0
0, 0
0, 0
0, 0
0, 0
0, 0
0, 0
0, 0
0, 0
0, 0
0, 0
0, 0
0, 0
0, 0
0, 0
0, 0
0, 0
0, 0
0, 0
0, 0
0, 0
0, 0
0, 0
0, 0
0, 0
0, 0
0, 0
0, 0
0, 0
0, 0
0, 0
0, 0
0, 0
0, 0
0, 0
0, 0
0, 0
0, 0
0, 0
0, 0
0, 0
0, 0
0, 0
0, 0
0, 0
0, 0
0, 0
0, 0
0, 0
0, 0
0, 0
0, 0
0, 0
0, 0
0, 0
0, 0
0, 0
0, 0
0, 0
0, 0
0, 0
0, 0
0, 0
0, 0
0, 0
0, 0
0, 0
0, 0
0, 0
0, 0
0, 0
0, 0
0, 0
0, 0
0, 0
0, 0
0, 0
0, 0
0, 0
0, 0
0, 0
0, 0
0, 0
0, 0
0, 0
0, 0
0, 0
0, 0
0, 0
0, 0
0, 0
0, 0
0, 0
0, 0
0, 0
0, 0
0, 0
0, 0
0, 0
0, 0
0, 0
0, 0
0, 0
0, 0
0, 0
0, 0
0, 0
0, 0
0, 0
0, 0
0, 0
0, 0
0, 0
0, 0
0, 0
0, 0
0, 0
0, 0
0, 0
0, 0
0, 0
0, 0
0, 0
0, 0
0, 0
0, 0
0, 0
0, 0
0, 0
0, 0
0, 0
0, 0
0, 0
0, 0
0, 0
0, 0
0, 0
0, 0
0, 0
0, 0
0, 0
0, 0
0, 0
0, 0
0, 0
0, 0
0, 0
0, 0
0, 0
0, 0
0, 0
0, 0
0, 0
0, 0
0, 0
0, 0
0, 0
0, 0
0, 0
0, 0
0, 0
0, 0
0, 0
0, 0
0, 0
0, 0
0, 0
0, 0
0, 0
0, 0
0, 0
#ENDOFDATA     end of spectrum data