File: host_upload/12-01-2023/Dourbes (shot-by-shot)/upload_4/ps__0257_0689790785_000rfs_shot_3194.msa
#FORMAT      : EMSA/MAS spectral data file
#VERSION     : TC202v2.0 PIXL
#TITLE       : N/A
#DATE        :       Date in the format DD-MMM-YYYY, for example 07-JUL-2010
#TIME        :             The time of day at which the spectrum was recorded, in 24-hour format
#OWNER       : PIXL Flight Model       (PIXL will use this to indicate which instrument took the data.)
#NPOINTS     : 4096     Number of data points in the spectrum (This can be zero for configuration only files)
#NCOLUMNS    : 2     Number of data columns in the spectrum (This can be zero for configuration only files)
#XUNITS      : eV
#YUNITS      : COUNTS
#DATATYPE    : YY
#XPERCHAN    : 7.862, 7.881   eV per channel (separate by commas if more than one detector)
#OFFSET      : 18.5, -22.4         eV of first channel  (separate by commas if more than one detector
#SIGNALTYPE  : XRF
#YP_TEMP     : 3.165
#LIVETIME    : 9.16005, 9.16932   seconds (separate by commas if more than one detector)
#REALTIME    : 10, 10.0   seconds (separate by commas if more than one detector)
#SPECTRUM    : start of spectrum data
0, 0
0, 0
0, 0
0, 0
0, 0
0, 0
0, 0
0, 0
0, 0
0, 0
0, 0
0, 0
0, 0
0, 0
0, 0
0, 0
0, 0
0, 0
0, 0
0, 0
0, 0
0, 0
0, 0
0, 0
0, 0
0, 0
0, 0
0, 0
0, 0
0, 0
0, 0
1, 0
0, 1
0, 0
0, 0
1, 1
1, 1
1, 0
1, 0
1, 1
1, 1
2, 3
3, 2
5, 3
4, 7
3, 6
5, 6
4, 4
3, 2
4, 4
5, 6
14, 9
20, 19
15, 19
25, 23
21, 13
14, 17
17, 19
14, 13
9, 13
31, 18
68, 44
63, 72
120, 103
116, 87
92, 99
70, 78
59, 47
48, 45
93, 53
148, 132
297, 280
513, 484
756, 737
906, 933
854, 898
833, 771
548, 533
361, 323
208, 180
114, 77
46, 43
23, 19
14, 7
5, 15
5, 3
6, 11
5, 5
9, 1
4, 4
6, 4
3, 1
2, 1
5, 2
8, 2
4, 5
1, 4
1, 4
8, 6
4, 5
8, 5
3, 5
3, 4
6, 5
1, 3
2, 2
4, 3
12, 15
16, 17
35, 24
37, 38
65, 70
63, 73
51, 62
72, 62
52, 60
47, 67
47, 58
38, 45
41, 68
36, 40
30, 46
34, 30
29, 30
20, 28
21, 23
17, 14
15, 16
12, 14
6, 14
8, 11
10, 6
4, 7
3, 7
9, 8
14, 12
21, 23
34, 51
71, 64
101, 128
125, 133
152, 124
152, 123
102, 104
88, 71
60, 41
30, 19
23, 14
19, 11
12, 17
14, 13
24, 24
27, 32
34, 43
40, 58
53, 64
56, 52
68, 59
59, 47
43, 37
34, 26
18, 14
12, 6
9, 6
5, 3
3, 11
4, 9
6, 10
13, 5
14, 9
12, 12
13, 9
7, 7
15, 9
4, 5
14, 5
7, 2
8, 5
4, 3
2, 3
5, 9
3, 2
2, 4
8, 4
6, 6
6, 6
9, 8
18, 10
10, 18
18, 21
27, 23
24, 26
40, 32
15, 33
22, 22
23, 20
14, 24
20, 20
7, 12
9, 13
10, 13
15, 9
10, 9
9, 11
8, 10
15, 12
9, 14
10, 13
12, 24
14, 15
11, 23
20, 27
15, 25
14, 16
18, 24
5, 22
8, 18
7, 14
6, 19
7, 23
9, 13
9, 21
12, 19
14, 15
15, 20
22, 29
31, 35
41, 48
58, 62
76, 81
81, 80
82, 67
67, 65
45, 63
30, 33
38, 38
22, 31
18, 20
24, 23
17, 22
11, 18
10, 9
16, 13
15, 11
13, 15
16, 19
26, 19
23, 24
37, 31
39, 38
44, 37
44, 35
40, 47
48, 44
42, 26
44, 26
31, 25
32, 14
19, 13
19, 16
22, 17
25, 16
29, 32
38, 61
69, 84
141, 148
266, 283
412, 490
666, 719
911, 1038
1135, 1242
1386, 1426
1445, 1435
1349, 1328
1145, 1009
888, 764
662, 548
419, 322
210, 171
115, 80
75, 36
27, 30
18, 20
14, 18
14, 12
12, 12
9, 12
17, 14
12, 12
16, 27
25, 20
27, 26
25, 40
48, 62
78, 81
103, 111
124, 158
160, 204
162, 219
231, 240
241, 251
219, 229
194, 184
134, 141
103, 95
58, 67
43, 38
34, 13
19, 21
12, 11
8, 10
14, 17
7, 12
6, 12
9, 7
7, 7
11, 9
6, 12
6, 11
4, 20
7, 6
7, 10
11, 8
6, 7
9, 9
4, 4
6, 6
13, 5
8, 8
7, 3
7, 6
7, 3
10, 7
4, 3
9, 8
10, 6
9, 6
12, 9
17, 5
14, 9
6, 4
6, 9
10, 14
6, 10
7, 12
11, 13
4, 12
3, 6
6, 15
11, 11
6, 4
5, 7
5, 4
11, 3
8, 7
4, 10
6, 4
7, 11
7, 6
8, 9
6, 9
4, 7
3, 8
9, 8
8, 4
6, 9
6, 7
15, 6
9, 6
4, 9
2, 7
5, 3
5, 2
2, 3
5, 2
7, 3
7, 5
11, 11
10, 7
8, 5
6, 1
7, 6
8, 6
10, 11
6, 3
7, 3
15, 5
4, 6
9, 6
6, 3
6, 5
4, 6
6, 6
4, 10
5, 6
5, 10
4, 6
10, 3
8, 5
11, 5
7, 2
3, 5
6, 4
7, 7
8, 2
6, 6
6, 5
5, 7
7, 7
9, 7
9, 6
6, 8
2, 7
4, 6
7, 3
4, 4
2, 6
7, 3
7, 2
7, 8
6, 6
8, 5
4, 3
6, 6
8, 4
2, 7
0, 8
4, 4
2, 10
4, 7
8, 7
6, 7
3, 6
3, 4
5, 4
4, 6
3, 9
3, 4
7, 2
3, 5
5, 4
5, 2
5, 3
3, 3
6, 4
7, 2
6, 5
5, 1
9, 2
8, 6
2, 0
3, 7
7, 8
5, 3
4, 4
7, 3
1, 2
1, 5
5, 3
3, 4
4, 3
2, 2
3, 2
5, 2
2, 8
2, 4
2, 1
3, 2
3, 1
2, 2
1, 4
6, 3
1, 2
4, 3
7, 3
3, 4
4, 1
2, 7
1, 3
1, 0
2, 6
1, 2
1, 6
3, 3
1, 5
2, 4
4, 2
3, 2
4, 5
4, 2
0, 5
3, 0
1, 1
1, 2
2, 0
4, 1
2, 5
3, 1
3, 5
3, 6
7, 1
3, 2
4, 0
1, 1
2, 3
7, 0
3, 2
0, 5
4, 1
2, 2
3, 3
1, 1
2, 0
2, 3
2, 1
4, 4
1, 4
1, 2
2, 1
1, 1
2, 2
3, 4
4, 1
4, 6
2, 1
2, 1
4, 3
1, 0
4, 1
0, 1
2, 0
0, 3
1, 0
2, 1
2, 1
3, 1
2, 1
2, 1
3, 5
3, 2
1, 4
2, 4
2, 2
3, 2
0, 4
1, 1
2, 1
2, 3
2, 4
2, 1
1, 2
0, 0
4, 1
2, 0
0, 1
1, 0
3, 4
1, 1
0, 1
0, 0
2, 0
0, 0
0, 0
6, 1
4, 1
0, 3
1, 2
0, 2
1, 1
0, 1
0, 2
0, 1
2, 0
2, 2
3, 1
1, 0
3, 2
1, 0
1, 1
1, 1
1, 2
4, 1
0, 1
1, 1
1, 1
0, 3
0, 1
1, 0
0, 2
1, 3
0, 1
2, 1
0, 0
0, 0
1, 0
2, 0
1, 1
1, 1
1, 0
0, 0
1, 0
1, 2
0, 0
0, 0
0, 0
0, 0
1, 0
1, 2
1, 1
2, 0
0, 0
0, 2
1, 2
0, 0
0, 2
0, 0
0, 1
0, 1
1, 0
2, 1
0, 0
0, 0
2, 0
1, 0
0, 0
1, 1
2, 1
2, 0
0, 0
1, 1
0, 2
1, 0
1, 1
0, 1
0, 0
0, 0
1, 0
0, 0
1, 0
1, 2
1, 1
1, 1
1, 1
0, 0
0, 0
2, 1
0, 0
0, 0
1, 1
1, 1
0, 1
0, 0
0, 0
0, 0
1, 0
0, 0
1, 0
0, 1
0, 0
1, 1
2, 0
0, 0
0, 0
2, 0
0, 0
0, 0
0, 0
1, 1
0, 0
1, 1
0, 1
1, 0
0, 0
0, 1
0, 0
1, 0
1, 0
1, 1
1, 0
1, 0
1, 0
0, 2
2, 0
0, 0
0, 0
0, 1
0, 0
0, 0
1, 0
1, 0
0, 1
1, 0
1, 0
1, 1
1, 0
2, 0
0, 0
0, 0
0, 0
0, 0
0, 0
0, 0
1, 0
1, 0
0, 1
1, 0
0, 0
0, 0
0, 0
1, 0
0, 0
0, 0
1, 0
2, 1
0, 0
0, 0
0, 0
0, 0
0, 2
0, 1
0, 0
0, 1
0, 0
0, 1
0, 1
0, 0
1, 0
0, 0
0, 2
0, 0
0, 0
0, 0
0, 0
0, 0
0, 0
0, 0
0, 1
0, 0
0, 1
1, 0
0, 0
0, 0
0, 0
0, 0
0, 1
0, 1
1, 0
1, 0
0, 0
2, 2
0, 0
0, 0
0, 1
0, 0
0, 0
0, 1
0, 1
0, 0
0, 1
0, 0
0, 0
0, 0
0, 0
0, 0
1, 0
0, 0
0, 1
0, 0
0, 0
0, 2
0, 0
0, 0
0, 0
0, 0
0, 1
0, 0
1, 0
0, 0
0, 0
0, 0
0, 0
0, 0
0, 1
0, 0
0, 0
0, 0
1, 0
0, 0
0, 0
0, 0
0, 0
1, 0
0, 1
1, 0
0, 0
0, 0
0, 0
0, 1
0, 2
0, 1
1, 0
0, 0
0, 2
0, 0
0, 0
0, 0
0, 0
0, 0
0, 0
0, 0
0, 0
0, 0
0, 0
0, 1
0, 0
0, 0
0, 0
0, 1
0, 1
0, 1
0, 0
0, 0
0, 0
0, 1
0, 0
0, 0
0, 0
0, 0
0, 0
0, 0
0, 0
0, 1
0, 0
0, 0
0, 0
0, 0
0, 0
0, 0
0, 0
0, 0
0, 0
0, 0
0, 0
0, 0
0, 0
0, 0
1, 0
0, 0
0, 0
0, 0
0, 1
0, 0
0, 0
1, 1
0, 0
0, 0
0, 0
0, 0
0, 0
0, 1
0, 0
0, 0
1, 0
0, 0
0, 0
0, 0
0, 0
0, 0
0, 0
0, 0
1, 0
0, 0
0, 0
0, 0
0, 0
0, 0
0, 0
0, 1
0, 0
0, 0
0, 0
0, 0
0, 0
0, 0
0, 0
0, 0
0, 0
0, 0
1, 0
0, 0
0, 0
0, 1
0, 0
0, 0
0, 0
0, 0
0, 1
0, 0
0, 0
0, 0
0, 0
0, 0
0, 0
0, 0
0, 0
0, 0
0, 0
0, 0
0, 0
0, 0
0, 0
0, 0
0, 0
0, 0
0, 0
0, 0
0, 0
0, 0
0, 0
1, 0
0, 0
0, 0
0, 0
0, 0
0, 0
0, 0
0, 0
0, 0
0, 0
0, 0
0, 0
0, 0
0, 0
0, 0
0, 0
0, 0
0, 0
0, 0
0, 0
0, 0
0, 0
0, 0
0, 0
0, 0
0, 0
0, 0
0, 0
0, 0
0, 0
0, 0
0, 0
0, 0
0, 0
0, 0
0, 0
0, 0
0, 0
0, 0
0, 0
0, 0
0, 0
0, 0
0, 0
0, 0
0, 0
0, 0
0, 0
0, 0
0, 0
0, 0
0, 0
0, 0
0, 0
0, 0
0, 0
0, 0
0, 0
0, 0
0, 0
0, 0
0, 0
0, 0
0, 0
0, 0
0, 0
0, 0
0, 0
0, 0
0, 0
0, 0
0, 0
0, 0
0, 0
0, 0
0, 0
0, 0
0, 0
0, 0
0, 0
0, 0
0, 0
0, 0
0, 0
0, 0
0, 0
0, 0
0, 0
0, 0
0, 0
0, 0
0, 0
0, 0
0, 0
0, 0
0, 0
0, 0
0, 0
0, 0
0, 0
0, 0
0, 0
0, 0
0, 0
0, 0
0, 0
0, 0
0, 0
0, 0
0, 0
0, 0
0, 0
0, 0
0, 0
0, 0
0, 0
0, 0
0, 0
0, 0
0, 0
0, 0
0, 0
0, 0
0, 0
0, 0
0, 0
0, 0
0, 0
0, 0
0, 0
0, 0
0, 0
0, 0
0, 0
0, 0
0, 0
0, 0
0, 0
0, 0
0, 0
0, 0
0, 0
0, 0
0, 0
0, 0
0, 0
0, 0
0, 0
0, 0
0, 0
0, 0
0, 0
0, 0
0, 0
0, 0
0, 0
0, 0
0, 0
0, 0
0, 0
0, 0
0, 0
0, 0
0, 0
0, 0
0, 0
0, 0
0, 1
0, 0
0, 0
0, 0
0, 0
0, 0
0, 0
0, 0
0, 0
0, 0
0, 0
0, 0
0, 0
0, 0
0, 0
0, 0
0, 0
0, 0
0, 0
0, 0
0, 0
0, 0
0, 0
0, 0
0, 0
0, 0
0, 0
0, 0
0, 0
0, 0
0, 0
0, 0
0, 0
0, 0
0, 0
0, 0
0, 0
0, 0
0, 0
0, 0
0, 0
0, 0
0, 0
0, 0
0, 0
0, 0
0, 0
0, 0
0, 0
0, 0
0, 0
0, 0
0, 0
0, 0
0, 0
0, 0
0, 0
0, 0
0, 0
0, 0
0, 0
0, 0
0, 0
0, 0
0, 0
0, 0
0, 0
0, 0
0, 0
0, 0
0, 0
0, 0
0, 0
0, 0
0, 0
0, 0
0, 0
0, 0
0, 0
0, 0
0, 0
0, 0
0, 0
0, 0
0, 0
0, 0
0, 0
0, 0
0, 0
0, 0
0, 0
0, 0
0, 0
0, 0
0, 0
0, 0
0, 0
0, 0
0, 0
0, 0
0, 0
0, 0
0, 0
0, 0
0, 0
0, 0
0, 0
0, 0
0, 0
0, 0
0, 0
0, 0
0, 0
0, 0
0, 0
0, 0
0, 0
0, 0
0, 0
0, 0
0, 0
0, 0
0, 0
0, 0
0, 0
0, 0
0, 0
0, 0
0, 0
0, 0
0, 0
0, 0
0, 0
0, 0
0, 0
0, 0
0, 0
0, 0
0, 0
0, 0
0, 0
0, 0
0, 0
0, 0
0, 0
0, 0
0, 0
0, 0
0, 0
0, 0
0, 0
0, 0
0, 0
0, 0
0, 0
0, 0
0, 0
0, 0
0, 0
0, 0
0, 0
0, 0
0, 0
0, 0
0, 0
0, 0
0, 0
0, 0
0, 0
0, 0
0, 0
0, 0
0, 0
0, 0
0, 0
0, 0
0, 0
0, 0
0, 0
0, 0
0, 0
0, 0
0, 0
0, 0
0, 0
0, 0
0, 0
0, 0
0, 0
0, 0
0, 0
0, 0
0, 0
0, 0
0, 0
0, 0
0, 0
0, 0
0, 0
0, 0
0, 0
0, 0
0, 0
0, 0
0, 0
0, 0
0, 0
0, 0
0, 0
0, 0
0, 0
0, 0
0, 0
0, 0
0, 0
0, 0
0, 0
0, 0
0, 0
0, 0
0, 0
0, 0
0, 0
0, 0
0, 0
0, 0
0, 0
0, 0
0, 0
0, 0
0, 0
0, 0
0, 0
0, 0
0, 0
0, 0
0, 0
0, 0
0, 0
0, 0
0, 0
0, 0
0, 0
0, 0
0, 0
0, 0
0, 0
0, 0
0, 0
0, 0
0, 0
0, 0
0, 0
0, 0
0, 0
0, 0
0, 0
0, 0
0, 0
0, 0
0, 0
0, 0
0, 0
0, 0
0, 0
0, 0
0, 0
0, 0
0, 0
0, 0
0, 0
0, 0
0, 0
0, 0
0, 0
0, 0
0, 0
0, 0
0, 0
0, 0
#ENDOFDATA     end of spectrum data