File: host_upload/12-01-2023/Dourbes (shot-by-shot)/upload_4/ps__0257_0689790785_000rfs_shot_3254.msa
#FORMAT      : EMSA/MAS spectral data file
#VERSION     : TC202v2.0 PIXL
#TITLE       : N/A
#DATE        :       Date in the format DD-MMM-YYYY, for example 07-JUL-2010
#TIME        :             The time of day at which the spectrum was recorded, in 24-hour format
#OWNER       : PIXL Flight Model       (PIXL will use this to indicate which instrument took the data.)
#NPOINTS     : 4096     Number of data points in the spectrum (This can be zero for configuration only files)
#NCOLUMNS    : 2     Number of data columns in the spectrum (This can be zero for configuration only files)
#XUNITS      : eV
#YUNITS      : COUNTS
#DATATYPE    : YY
#XPERCHAN    : 7.862, 7.881   eV per channel (separate by commas if more than one detector)
#OFFSET      : 18.5, -22.4         eV of first channel  (separate by commas if more than one detector
#SIGNALTYPE  : XRF
#YP_TEMP     : 3.326
#LIVETIME    : 8.89578, 8.97054   seconds (separate by commas if more than one detector)
#REALTIME    : 10, 10.0   seconds (separate by commas if more than one detector)
#SPECTRUM    : start of spectrum data
0, 0
0, 0
0, 0
0, 0
0, 0
0, 0
0, 0
0, 0
0, 0
0, 0
0, 0
0, 0
0, 0
0, 0
0, 0
0, 0
0, 0
0, 0
0, 0
0, 0
0, 0
0, 0
0, 0
0, 0
0, 0
0, 0
0, 0
0, 0
0, 0
0, 0
0, 0
0, 0
1, 0
0, 0
2, 0
4, 0
3, 1
8, 3
20, 1
33, 1
40, 4
44, 1
37, 5
33, 5
22, 3
15, 2
9, 3
2, 3
7, 3
13, 8
6, 9
29, 15
47, 41
57, 47
53, 57
50, 44
38, 43
25, 26
24, 9
10, 5
5, 4
6, 2
3, 2
5, 1
4, 5
4, 1
8, 4
13, 7
5, 10
21, 14
62, 53
108, 113
180, 189
248, 298
328, 309
330, 353
349, 292
191, 210
125, 105
71, 73
43, 39
15, 16
12, 11
5, 5
13, 1
1, 2
7, 3
11, 3
3, 3
4, 4
4, 4
6, 5
17, 14
32, 24
67, 65
110, 119
156, 192
227, 225
278, 309
284, 291
249, 220
191, 181
104, 107
65, 100
41, 41
43, 30
37, 30
53, 33
101, 37
279, 53
516, 92
1021, 101
1689, 155
2484, 175
3051, 170
3345, 185
3093, 162
2513, 106
1668, 82
1051, 55
521, 52
279, 41
130, 49
67, 31
29, 37
29, 25
26, 29
31, 36
21, 27
30, 24
9, 18
9, 7
9, 6
6, 7
3, 9
11, 2
2, 4
4, 9
6, 9
3, 6
5, 3
4, 7
6, 6
5, 2
6, 2
6, 2
1, 3
4, 3
4, 4
3, 6
6, 5
12, 11
18, 23
26, 20
47, 42
52, 52
59, 75
68, 78
59, 57
55, 59
57, 34
29, 24
13, 17
11, 7
7, 10
5, 9
7, 6
6, 12
12, 6
19, 14
20, 12
25, 17
24, 17
10, 5
19, 4
13, 10
3, 3
10, 3
5, 7
5, 10
5, 5
8, 9
5, 6
4, 5
6, 8
9, 10
8, 19
13, 7
16, 10
13, 15
22, 15
14, 31
22, 33
17, 45
19, 63
29, 78
25, 94
21, 98
16, 80
23, 73
26, 36
16, 45
13, 25
18, 21
9, 9
11, 9
14, 9
6, 8
8, 6
7, 17
6, 10
10, 11
11, 6
10, 11
9, 11
7, 10
9, 5
9, 9
9, 13
8, 13
8, 12
9, 18
7, 10
19, 10
21, 16
24, 12
25, 14
16, 10
18, 14
16, 14
16, 9
21, 10
23, 13
10, 8
14, 13
8, 16
9, 6
6, 11
9, 7
13, 7
8, 9
11, 12
7, 11
20, 13
22, 25
29, 37
40, 56
53, 70
94, 98
93, 113
118, 122
110, 110
105, 111
71, 93
67, 71
56, 60
27, 34
32, 31
17, 42
26, 32
22, 20
31, 48
38, 68
96, 115
178, 243
308, 441
601, 791
1098, 1298
1662, 2035
2359, 2786
3079, 3434
3391, 3809
3607, 3770
3385, 3453
2935, 2832
2250, 2134
1618, 1364
1077, 867
610, 492
294, 209
156, 128
88, 57
62, 29
51, 20
42, 18
60, 24
51, 16
58, 31
64, 26
55, 27
52, 31
67, 57
78, 60
113, 112
171, 146
208, 249
293, 355
405, 468
470, 550
531, 542
493, 544
466, 440
405, 395
324, 300
222, 181
131, 104
95, 55
38, 40
26, 21
8, 11
3, 9
5, 7
6, 4
12, 11
4, 5
6, 9
7, 4
3, 5
6, 11
5, 8
6, 12
5, 8
4, 5
1, 4
7, 4
4, 5
5, 3
3, 4
4, 3
1, 12
6, 8
7, 11
1, 9
2, 12
8, 15
3, 6
3, 14
4, 8
5, 8
7, 7
2, 8
10, 3
4, 5
6, 7
8, 3
3, 5
7, 4
4, 6
11, 5
6, 5
4, 4
3, 3
4, 6
2, 3
7, 3
2, 1
5, 4
1, 4
3, 5
5, 5
3, 2
3, 2
8, 5
3, 3
3, 4
5, 5
6, 4
7, 6
5, 3
3, 9
6, 2
1, 6
4, 3
3, 2
5, 6
3, 6
4, 3
2, 4
2, 7
7, 2
6, 7
12, 2
7, 5
7, 5
5, 6
18, 4
11, 5
14, 1
15, 4
9, 10
8, 8
7, 9
6, 14
5, 9
1, 16
2, 8
1, 11
8, 7
8, 6
6, 10
5, 5
8, 6
11, 4
3, 4
9, 2
3, 6
2, 7
3, 4
8, 4
7, 2
3, 1
1, 7
4, 6
6, 3
1, 5
4, 5
5, 1
4, 4
2, 1
2, 5
2, 1
4, 1
2, 4
3, 3
7, 3
2, 3
2, 4
0, 3
1, 2
4, 3
1, 2
2, 2
2, 3
2, 2
2, 1
0, 5
1, 1
4, 4
0, 4
3, 0
4, 4
5, 1
3, 2
3, 2
3, 2
1, 3
1, 0
2, 2
2, 3
4, 2
5, 7
6, 0
8, 2
6, 4
4, 2
5, 2
9, 4
10, 1
11, 2
11, 3
11, 5
3, 3
9, 2
5, 3
5, 0
3, 3
2, 3
2, 2
4, 2
2, 1
1, 3
2, 2
1, 2
2, 2
1, 2
1, 2
3, 1
2, 3
2, 2
1, 0
1, 4
1, 1
3, 2
1, 4
0, 3
1, 2
3, 6
0, 2
1, 0
4, 3
2, 0
1, 2
0, 5
2, 0
2, 0
3, 2
2, 1
1, 2
1, 0
0, 3
4, 2
2, 2
2, 1
2, 4
0, 1
2, 1
0, 4
2, 1
3, 3
1, 1
1, 2
0, 0
2, 2
1, 2
4, 3
5, 3
3, 1
1, 1
0, 2
3, 1
2, 2
3, 2
4, 1
0, 3
3, 0
3, 2
2, 0
5, 0
0, 3
1, 2
4, 2
2, 3
2, 1
3, 3
2, 0
2, 0
1, 4
4, 1
7, 4
4, 6
5, 9
7, 7
4, 5
3, 8
4, 4
5, 5
4, 2
6, 4
3, 2
5, 3
1, 2
2, 1
1, 0
0, 2
1, 0
1, 1
2, 2
1, 1
2, 0
1, 0
1, 1
1, 0
0, 2
1, 0
1, 1
2, 2
6, 2
6, 1
1, 2
3, 2
2, 3
2, 2
1, 2
3, 4
2, 1
3, 2
2, 0
2, 0
0, 2
1, 1
0, 0
2, 1
1, 1
1, 0
1, 2
2, 1
0, 1
0, 1
3, 0
0, 0
1, 1
0, 3
0, 0
0, 2
0, 1
1, 3
0, 1
0, 0
0, 1
1, 1
0, 2
2, 0
2, 2
2, 2
0, 0
0, 1
1, 1
0, 0
0, 1
0, 0
2, 1
0, 0
0, 1
2, 1
0, 0
0, 1
1, 0
1, 0
0, 1
0, 0
0, 1
0, 0
0, 1
1, 0
0, 0
0, 0
1, 1
0, 1
0, 0
1, 0
2, 2
0, 1
2, 1
0, 1
0, 0
2, 0
0, 0
0, 0
1, 0
0, 0
1, 2
0, 1
0, 0
1, 0
1, 1
0, 1
0, 0
2, 0
0, 1
0, 1
0, 0
0, 0
0, 0
0, 0
0, 0
1, 0
0, 1
1, 0
1, 0
1, 0
0, 1
0, 0
2, 1
0, 0
0, 0
1, 0
0, 0
1, 1
2, 0
0, 0
0, 0
0, 1
1, 0
1, 0
0, 0
0, 0
1, 0
0, 0
0, 0
0, 0
1, 0
0, 0
0, 1
0, 0
0, 1
0, 0
0, 1
1, 1
1, 0
0, 0
1, 1
0, 1
0, 0
0, 1
1, 0
2, 0
1, 1
0, 0
0, 0
0, 0
0, 0
0, 0
0, 1
0, 0
1, 1
3, 0
0, 0
0, 2
0, 0
0, 0
0, 0
0, 1
1, 1
1, 1
0, 2
0, 0
0, 0
0, 1
0, 0
0, 2
0, 0
1, 0
0, 0
0, 0
0, 0
0, 0
0, 0
1, 0
1, 1
0, 0
0, 0
0, 0
3, 0
1, 0
0, 0
0, 0
0, 0
0, 0
0, 1
0, 0
0, 1
1, 0
1, 0
0, 0
1, 0
0, 1
0, 1
0, 1
0, 0
1, 0
0, 1
1, 0
0, 0
0, 0
0, 1
0, 0
0, 0
0, 0
0, 0
0, 0
0, 0
1, 0
0, 0
0, 0
0, 2
1, 0
2, 0
0, 0
0, 0
0, 0
0, 1
0, 0
0, 0
0, 1
0, 0
0, 0
1, 0
0, 0
1, 0
0, 0
0, 0
0, 0
0, 0
0, 1
0, 0
0, 1
1, 0
0, 0
0, 0
0, 0
2, 0
0, 1
0, 0
0, 1
0, 0
0, 0
0, 2
1, 1
0, 0
0, 0
0, 0
0, 0
0, 0
0, 1
0, 0
0, 0
0, 0
0, 0
0, 1
0, 0
0, 0
1, 0
0, 0
1, 0
0, 0
0, 0
0, 0
0, 0
0, 0
0, 0
0, 0
0, 0
0, 0
0, 0
0, 1
0, 0
0, 0
0, 0
0, 2
0, 0
0, 0
0, 0
0, 0
0, 0
0, 1
0, 0
0, 1
0, 0
0, 0
1, 0
0, 0
0, 1
0, 0
1, 0
0, 0
0, 0
0, 0
0, 0
0, 0
0, 0
1, 1
1, 0
1, 0
0, 0
0, 0
0, 1
1, 0
0, 0
0, 1
0, 0
0, 0
0, 0
0, 0
0, 0
0, 0
0, 0
0, 0
0, 0
1, 0
0, 0
0, 0
0, 0
0, 0
0, 0
0, 0
0, 0
0, 0
0, 0
0, 0
0, 0
0, 0
0, 0
0, 0
0, 1
0, 0
0, 0
0, 0
0, 0
0, 0
0, 0
0, 0
0, 0
0, 0
0, 0
0, 0
0, 0
0, 0
0, 1
0, 0
0, 0
0, 0
0, 0
0, 0
0, 0
0, 0
0, 0
0, 0
0, 0
0, 0
0, 0
0, 0
0, 0
0, 0
0, 0
0, 0
0, 0
0, 0
0, 0
0, 0
0, 0
1, 1
0, 0
0, 0
0, 0
0, 0
0, 0
0, 0
0, 0
0, 0
0, 0
0, 0
0, 0
0, 0
0, 0
0, 0
0, 0
0, 0
0, 0
0, 0
0, 0
0, 0
0, 0
0, 0
0, 0
1, 0
0, 0
0, 0
0, 0
0, 0
0, 0
0, 0
0, 0
0, 0
0, 0
0, 0
0, 0
0, 0
0, 0
0, 0
0, 0
0, 0
0, 0
0, 0
0, 0
1, 0
0, 0
0, 0
0, 0
0, 0
0, 0
0, 0
0, 0
0, 0
0, 0
0, 0
0, 0
0, 0
0, 0
0, 0
0, 0
0, 0
0, 0
0, 0
0, 0
0, 0
0, 0
0, 0
0, 0
0, 0
0, 0
0, 0
0, 0
0, 0
0, 0
0, 0
0, 0
0, 0
1, 0
0, 0
0, 0
0, 0
0, 0
0, 0
0, 0
0, 0
0, 0
0, 0
0, 0
0, 0
0, 0
0, 0
0, 0
0, 0
0, 0
0, 0
0, 0
0, 0
0, 1
0, 0
0, 0
0, 0
0, 0
0, 0
0, 0
0, 0
0, 0
0, 0
0, 0
0, 0
0, 0
0, 0
0, 0
0, 0
0, 0
0, 0
0, 0
0, 0
0, 0
0, 0
0, 0
0, 0
0, 0
0, 0
0, 0
0, 0
0, 0
0, 0
0, 0
0, 0
0, 0
0, 0
0, 0
0, 0
0, 0
0, 0
0, 0
0, 0
0, 0
0, 0
0, 0
0, 0
0, 0
0, 0
0, 0
0, 0
0, 0
0, 0
0, 0
0, 1
0, 0
0, 0
0, 0
0, 0
0, 0
0, 0
0, 0
0, 0
0, 0
0, 0
0, 0
0, 0
0, 0
0, 0
0, 0
0, 0
0, 0
0, 0
0, 0
0, 0
0, 0
0, 0
0, 0
0, 0
0, 0
0, 0
0, 0
0, 0
0, 0
0, 0
0, 0
0, 0
0, 0
0, 0
0, 0
0, 0
0, 0
0, 0
0, 0
0, 0
0, 0
0, 0
0, 0
0, 0
0, 0
0, 0
0, 0
0, 0
0, 0
0, 0
0, 0
0, 0
0, 0
0, 0
0, 0
0, 0
0, 0
0, 0
0, 0
0, 0
0, 0
0, 0
0, 0
0, 0
0, 0
0, 0
0, 0
0, 0
0, 0
0, 0
0, 0
0, 0
0, 0
0, 0
0, 0
0, 0
0, 0
0, 0
0, 0
0, 0
0, 0
0, 0
0, 0
0, 0
0, 0
0, 0
0, 0
0, 0
0, 0
0, 0
0, 0
0, 0
0, 0
0, 0
0, 0
0, 0
0, 0
0, 0
0, 0
0, 0
0, 0
0, 0
0, 0
0, 0
0, 0
0, 0
0, 0
0, 0
0, 0
0, 0
0, 0
0, 0
0, 0
0, 0
0, 0
0, 0
0, 0
0, 0
0, 0
0, 0
0, 0
0, 0
0, 0
0, 0
0, 0
0, 0
0, 0
0, 0
0, 0
0, 0
0, 0
0, 0
0, 0
0, 0
0, 0
0, 0
0, 0
0, 0
0, 0
0, 0
0, 0
0, 0
0, 0
0, 0
0, 0
0, 0
0, 0
0, 0
0, 0
0, 0
0, 0
0, 0
0, 0
0, 0
0, 0
0, 0
0, 0
0, 0
0, 0
0, 0
0, 0
0, 0
0, 0
0, 0
0, 0
0, 0
0, 0
0, 0
0, 0
0, 0
0, 0
0, 0
0, 0
0, 0
0, 0
0, 0
0, 0
0, 0
0, 0
0, 0
0, 0
0, 0
0, 0
0, 0
0, 0
0, 0
0, 0
0, 0
0, 0
0, 0
0, 0
0, 0
0, 0
0, 0
0, 0
0, 0
0, 0
0, 0
0, 0
0, 0
0, 0
0, 0
0, 0
0, 0
0, 0
0, 0
0, 0
0, 0
0, 0
0, 0
0, 0
0, 0
0, 0
0, 0
0, 0
0, 0
0, 0
0, 0
0, 0
0, 0
0, 0
0, 0
0, 0
0, 0
0, 0
0, 0
0, 0
0, 0
0, 0
0, 0
0, 0
0, 0
0, 0
0, 0
0, 0
0, 0
0, 0
0, 0
0, 0
0, 0
0, 0
0, 0
0, 0
0, 0
0, 0
0, 0
0, 0
0, 0
0, 0
0, 0
0, 0
0, 0
0, 0
0, 0
0, 0
0, 0
0, 0
0, 0
0, 0
0, 0
0, 0
0, 0
0, 0
0, 0
0, 0
0, 0
0, 0
0, 0
0, 0
0, 0
0, 0
0, 0
0, 0
0, 0
0, 0
0, 0
0, 0
0, 0
0, 0
0, 0
0, 0
0, 0
0, 0
0, 0
0, 0
0, 0
0, 0
0, 0
0, 0
0, 0
0, 0
0, 0
0, 0
0, 0
0, 0
0, 0
0, 0
#ENDOFDATA     end of spectrum data