File: host_upload/12-01-2023/Dourbes (shot-by-shot)/upload_4/ps__0257_0689790785_000rfs_shot_3302.msa
#FORMAT      : EMSA/MAS spectral data file
#VERSION     : TC202v2.0 PIXL
#TITLE       : N/A
#DATE        :       Date in the format DD-MMM-YYYY, for example 07-JUL-2010
#TIME        :             The time of day at which the spectrum was recorded, in 24-hour format
#OWNER       : PIXL Flight Model       (PIXL will use this to indicate which instrument took the data.)
#NPOINTS     : 4096     Number of data points in the spectrum (This can be zero for configuration only files)
#NCOLUMNS    : 2     Number of data columns in the spectrum (This can be zero for configuration only files)
#XUNITS      : eV
#YUNITS      : COUNTS
#DATATYPE    : YY
#XPERCHAN    : 7.862, 7.881   eV per channel (separate by commas if more than one detector)
#OFFSET      : 18.5, -22.4         eV of first channel  (separate by commas if more than one detector
#SIGNALTYPE  : XRF
#YP_TEMP     : 3.037
#LIVETIME    : 9.00446, 9.0088   seconds (separate by commas if more than one detector)
#REALTIME    : 10, 10.0   seconds (separate by commas if more than one detector)
#SPECTRUM    : start of spectrum data
0, 0
0, 0
0, 0
0, 0
0, 0
0, 0
0, 0
0, 0
0, 0
0, 0
0, 0
0, 0
0, 0
0, 0
0, 0
0, 0
0, 0
0, 0
0, 0
0, 0
0, 0
0, 0
0, 0
0, 0
0, 0
0, 0
0, 0
0, 0
0, 0
0, 0
0, 0
1, 0
1, 0
0, 1
0, 0
1, 0
1, 0
1, 0
0, 1
1, 0
0, 1
0, 0
1, 2
1, 3
3, 0
3, 3
1, 3
1, 1
3, 3
6, 4
5, 10
25, 20
35, 34
49, 50
55, 42
43, 46
32, 30
22, 18
6, 20
7, 2
3, 1
2, 5
3, 0
6, 6
5, 6
5, 3
9, 6
8, 9
19, 7
35, 27
80, 68
151, 119
305, 263
395, 375
480, 439
517, 423
409, 394
302, 262
217, 160
102, 94
56, 41
31, 23
15, 13
15, 9
7, 5
4, 5
4, 7
10, 4
2, 5
9, 8
1, 4
3, 1
4, 0
0, 2
2, 3
4, 3
6, 7
7, 7
8, 5
5, 4
7, 4
10, 8
3, 5
4, 7
3, 6
5, 6
11, 8
11, 4
18, 13
21, 16
26, 45
37, 37
48, 53
61, 59
72, 67
60, 55
63, 56
54, 50
37, 43
31, 49
33, 45
36, 60
23, 52
21, 70
29, 65
19, 50
19, 30
14, 30
5, 16
11, 17
4, 7
7, 12
6, 2
4, 5
3, 5
3, 2
3, 3
5, 4
3, 9
4, 4
5, 2
2, 6
2, 3
3, 5
2, 4
6, 3
4, 6
5, 3
7, 2
9, 6
8, 9
11, 11
26, 19
25, 24
33, 37
58, 49
58, 58
75, 56
57, 72
46, 34
52, 33
19, 22
9, 9
10, 10
10, 10
9, 4
10, 3
5, 10
7, 16
16, 14
10, 15
10, 11
14, 15
11, 7
8, 6
12, 14
11, 5
6, 9
12, 14
4, 10
8, 6
8, 12
4, 9
7, 8
7, 9
12, 13
9, 7
16, 8
20, 24
27, 27
30, 36
32, 42
39, 43
34, 50
41, 41
41, 38
38, 35
42, 37
35, 24
33, 20
39, 21
38, 16
41, 11
40, 12
29, 5
30, 9
29, 7
18, 12
25, 15
8, 8
11, 8
14, 12
11, 11
9, 9
8, 11
5, 14
7, 11
11, 12
5, 7
8, 10
6, 8
9, 5
8, 12
8, 10
13, 9
15, 12
13, 11
14, 22
16, 17
26, 16
13, 23
24, 14
24, 20
22, 17
19, 16
19, 12
12, 9
14, 15
13, 17
10, 16
9, 27
5, 39
15, 38
19, 38
27, 57
34, 52
41, 64
59, 86
70, 109
100, 105
113, 95
126, 97
110, 82
82, 50
66, 46
45, 36
33, 24
26, 27
33, 14
26, 20
38, 22
37, 29
72, 45
98, 87
169, 200
368, 383
669, 717
1179, 1285
1784, 1942
2594, 2698
3193, 3185
3795, 3544
3956, 3507
3727, 3271
3201, 2646
2480, 1934
1746, 1329
1104, 803
623, 418
337, 229
172, 108
91, 59
41, 29
28, 19
19, 24
17, 33
20, 25
27, 27
24, 32
25, 28
27, 26
45, 41
58, 82
91, 111
165, 138
212, 261
334, 319
417, 413
556, 465
573, 490
559, 501
493, 459
429, 376
337, 246
236, 187
138, 132
83, 75
58, 38
29, 16
9, 16
7, 5
7, 13
4, 2
7, 13
8, 8
8, 7
12, 6
14, 6
10, 5
14, 3
8, 1
14, 5
15, 2
16, 4
12, 3
6, 2
8, 6
5, 4
5, 4
3, 5
5, 4
5, 6
11, 5
3, 4
7, 4
2, 6
6, 6
6, 3
7, 3
8, 5
5, 4
4, 3
4, 3
2, 5
5, 3
3, 4
7, 5
9, 1
5, 7
2, 5
6, 4
1, 7
3, 10
2, 5
4, 6
4, 3
4, 5
1, 5
1, 3
2, 6
2, 2
9, 4
3, 2
2, 4
2, 5
3, 5
5, 5
3, 5
5, 3
4, 4
3, 10
5, 1
2, 8
4, 4
3, 6
4, 1
3, 4
3, 3
5, 5
4, 3
9, 2
8, 5
2, 1
3, 6
3, 4
8, 2
2, 2
11, 4
7, 1
4, 2
9, 6
6, 5
5, 4
8, 0
4, 3
10, 2
8, 2
7, 5
6, 3
6, 3
4, 0
5, 4
1, 2
3, 3
3, 1
4, 2
4, 10
6, 3
1, 5
3, 5
3, 1
6, 3
3, 2
6, 5
4, 5
3, 2
5, 2
4, 2
1, 2
4, 3
5, 3
4, 5
4, 2
2, 0
6, 3
3, 0
1, 3
2, 1
2, 2
3, 2
2, 1
4, 4
1, 5
2, 6
3, 2
2, 2
5, 3
2, 10
1, 1
3, 0
1, 3
2, 1
1, 2
4, 4
2, 1
3, 1
1, 3
4, 2
2, 2
4, 4
2, 1
3, 3
3, 1
1, 3
3, 3
3, 1
2, 5
1, 1
3, 3
3, 2
5, 1
2, 1
2, 2
7, 2
3, 3
3, 2
2, 3
1, 0
3, 2
3, 2
1, 3
1, 0
1, 2
1, 3
2, 1
0, 0
0, 3
1, 2
1, 2
3, 1
2, 0
2, 1
0, 5
0, 3
1, 4
2, 3
1, 3
0, 5
2, 3
3, 3
2, 4
3, 2
6, 4
0, 2
1, 2
0, 0
0, 1
0, 3
1, 2
1, 0
3, 3
1, 3
4, 0
2, 1
2, 1
0, 0
3, 2
0, 3
4, 3
3, 1
0, 2
5, 1
1, 2
2, 2
1, 2
3, 2
1, 1
1, 0
2, 1
1, 3
2, 4
4, 6
5, 2
2, 4
0, 0
5, 2
0, 3
0, 1
1, 3
3, 2
0, 1
3, 1
2, 1
0, 0
3, 7
1, 2
2, 5
2, 3
4, 4
3, 6
7, 4
5, 5
8, 4
7, 2
7, 5
6, 6
2, 8
4, 4
2, 2
1, 3
1, 2
3, 1
1, 1
1, 1
1, 1
3, 1
3, 0
1, 0
0, 2
2, 2
1, 0
1, 1
5, 2
1, 1
2, 0
2, 2
1, 2
1, 0
0, 5
4, 2
2, 4
1, 2
2, 3
4, 2
0, 4
2, 0
2, 3
0, 3
2, 1
0, 1
1, 0
1, 0
3, 2
0, 2
0, 0
4, 1
1, 0
1, 0
2, 0
3, 0
1, 1
1, 1
1, 2
0, 1
2, 1
2, 1
2, 2
2, 1
2, 0
2, 0
1, 0
1, 0
2, 2
1, 0
0, 0
2, 0
1, 0
0, 0
1, 0
1, 0
0, 0
1, 2
1, 0
2, 0
0, 1
0, 1
1, 1
0, 0
0, 2
0, 0
0, 0
2, 0
1, 0
0, 0
0, 0
1, 1
1, 2
1, 1
1, 0
1, 1
0, 1
2, 1
0, 1
2, 1
1, 0
1, 0
0, 1
0, 0
1, 0
0, 0
1, 0
1, 1
0, 0
1, 0
0, 1
0, 1
0, 2
0, 0
0, 1
0, 1
1, 1
0, 1
0, 0
0, 1
0, 1
0, 1
1, 1
0, 0
1, 2
0, 0
1, 1
0, 1
1, 0
0, 0
1, 0
0, 1
1, 0
0, 0
2, 0
1, 1
0, 0
1, 0
1, 0
0, 0
0, 0
2, 0
1, 0
0, 0
0, 0
0, 0
1, 1
0, 0
0, 0
0, 1
0, 0
0, 0
0, 1
0, 0
0, 1
1, 0
1, 0
0, 0
1, 0
1, 0
1, 0
0, 0
0, 0
0, 1
0, 0
0, 1
0, 0
0, 0
0, 1
0, 0
1, 0
2, 0
0, 0
0, 0
0, 1
0, 1
1, 1
0, 0
0, 1
1, 0
0, 0
1, 1
0, 0
0, 2
0, 1
1, 1
0, 0
0, 0
0, 0
0, 0
0, 0
1, 0
1, 1
0, 1
0, 1
1, 0
1, 1
0, 0
1, 0
0, 0
0, 0
1, 0
0, 1
0, 0
0, 1
0, 2
1, 0
0, 0
0, 0
0, 0
1, 0
0, 0
0, 1
2, 0
0, 0
0, 0
0, 0
0, 0
0, 0
0, 1
0, 0
1, 0
1, 1
0, 1
0, 0
0, 2
0, 0
2, 0
0, 1
0, 0
0, 0
0, 0
0, 0
1, 1
1, 0
1, 0
1, 1
0, 0
0, 1
1, 1
0, 0
0, 0
0, 0
0, 0
0, 1
0, 1
1, 0
0, 0
0, 0
0, 1
1, 1
0, 0
0, 1
0, 0
0, 1
0, 0
0, 0
0, 0
0, 0
0, 0
1, 1
0, 0
0, 0
0, 0
0, 1
0, 0
0, 0
0, 1
0, 0
0, 0
0, 0
0, 0
0, 0
0, 0
0, 0
0, 0
0, 1
0, 0
0, 0
0, 0
0, 0
1, 0
0, 0
0, 0
0, 0
0, 0
0, 0
0, 0
0, 0
1, 0
0, 0
0, 0
0, 0
0, 0
0, 0
0, 0
0, 0
0, 0
1, 0
0, 0
0, 0
0, 0
0, 1
0, 0
1, 0
0, 0
0, 0
0, 0
0, 0
0, 0
0, 0
1, 0
0, 0
0, 0
0, 0
1, 0
0, 0
0, 0
0, 0
0, 0
0, 0
0, 0
1, 1
0, 0
0, 0
0, 0
1, 0
0, 0
0, 0
0, 0
0, 0
0, 0
0, 0
0, 0
0, 0
0, 0
0, 0
0, 0
0, 0
0, 0
0, 0
0, 0
0, 0
0, 0
0, 0
0, 0
0, 0
1, 0
0, 0
0, 0
0, 0
0, 0
0, 0
0, 0
0, 0
0, 0
0, 0
0, 0
0, 0
0, 0
0, 0
0, 0
0, 1
0, 0
0, 0
0, 0
1, 1
0, 0
0, 1
0, 0
0, 0
0, 1
0, 0
0, 0
0, 0
0, 0
0, 0
0, 0
1, 0
0, 0
0, 0
0, 0
0, 0
0, 0
0, 0
0, 0
0, 0
0, 0
0, 0
0, 0
0, 0
0, 0
0, 1
0, 0
0, 0
0, 0
0, 0
0, 0
0, 1
0, 0
0, 0
0, 0
0, 0
0, 0
0, 0
0, 0
0, 0
0, 0
0, 0
0, 0
0, 0
0, 0
0, 0
0, 0
0, 0
0, 0
0, 0
0, 0
0, 0
0, 0
0, 0
0, 0
0, 0
0, 0
0, 0
0, 0
0, 0
0, 0
0, 1
0, 0
0, 0
0, 0
0, 0
0, 0
0, 0
0, 0
0, 0
0, 0
0, 0
0, 0
0, 0
0, 0
0, 0
0, 0
0, 0
0, 0
0, 0
0, 0
0, 0
0, 0
0, 0
0, 0
0, 0
0, 0
0, 0
0, 0
0, 0
0, 0
0, 0
0, 0
0, 0
0, 0
0, 0
0, 0
0, 0
0, 0
0, 0
0, 0
0, 0
0, 0
0, 0
0, 0
0, 0
0, 0
0, 0
0, 0
1, 0
0, 0
0, 0
0, 0
0, 0
0, 0
0, 0
0, 0
0, 0
0, 0
0, 0
0, 0
0, 0
0, 0
0, 0
0, 0
0, 0
0, 0
0, 0
0, 0
0, 0
0, 0
0, 0
0, 0
0, 0
0, 0
0, 0
0, 0
0, 0
0, 0
0, 0
0, 0
0, 0
0, 0
0, 0
0, 0
0, 0
0, 0
0, 0
0, 0
0, 0
0, 0
0, 0
0, 0
0, 0
0, 0
0, 0
0, 0
0, 0
0, 0
0, 0
0, 0
0, 0
0, 0
0, 0
0, 0
0, 0
0, 0
0, 0
0, 0
0, 0
0, 0
0, 0
0, 0
0, 0
0, 0
0, 0
0, 0
0, 0
0, 0
0, 0
0, 0
0, 0
0, 0
0, 0
0, 0
0, 0
0, 0
0, 0
0, 0
0, 0
0, 0
0, 0
0, 0
0, 0
0, 0
0, 0
0, 0
0, 0
0, 0
0, 0
0, 0
0, 0
0, 0
0, 0
0, 0
0, 0
0, 0
0, 0
0, 0
0, 0
0, 0
0, 0
0, 0
0, 0
0, 0
0, 0
0, 0
0, 0
0, 0
0, 0
0, 0
0, 0
0, 0
0, 0
0, 0
0, 0
0, 0
0, 0
0, 0
0, 0
0, 0
0, 0
0, 0
0, 0
0, 0
0, 0
0, 0
0, 0
0, 0
0, 0
0, 0
0, 0
0, 0
0, 0
0, 0
0, 0
0, 0
0, 0
0, 0
0, 0
0, 0
0, 0
0, 0
0, 0
0, 0
0, 0
0, 0
0, 0
0, 0
0, 0
0, 0
0, 0
0, 0
0, 0
0, 0
0, 0
0, 0
0, 0
0, 0
0, 0
0, 0
0, 0
0, 0
0, 0
0, 0
0, 0
0, 0
0, 0
0, 0
0, 0
0, 0
0, 0
0, 0
0, 0
0, 0
0, 0
0, 0
0, 0
0, 0
0, 0
0, 0
0, 0
0, 0
0, 0
0, 0
0, 0
0, 0
0, 0
0, 0
0, 0
0, 0
0, 0
0, 0
0, 0
0, 0
0, 0
0, 0
0, 0
0, 0
0, 0
0, 0
0, 0
0, 0
0, 0
0, 0
0, 0
0, 0
0, 0
0, 0
0, 0
0, 0
0, 0
0, 0
0, 0
0, 0
0, 0
0, 0
0, 0
0, 0
0, 0
0, 0
0, 0
0, 0
0, 0
0, 0
0, 0
0, 0
0, 0
0, 0
0, 0
0, 0
0, 0
0, 0
0, 0
0, 0
0, 0
0, 0
0, 0
0, 0
0, 0
0, 0
0, 0
0, 0
0, 0
0, 0
0, 0
0, 0
0, 0
0, 0
0, 0
0, 0
0, 0
0, 0
0, 0
0, 0
0, 0
0, 0
0, 0
0, 0
0, 0
0, 0
0, 0
0, 0
0, 0
0, 0
0, 0
0, 0
0, 0
0, 0
0, 0
0, 0
0, 0
0, 0
0, 0
0, 0
0, 0
0, 0
0, 0
0, 0
0, 0
0, 0
0, 0
0, 0
0, 0
0, 0
0, 0
0, 0
0, 0
0, 0
0, 0
0, 0
0, 0
0, 0
0, 0
0, 0
0, 0
0, 0
0, 0
0, 0
0, 0
0, 0
0, 0
0, 0
0, 0
0, 0
0, 0
0, 0
0, 0
0, 0
0, 0
0, 0
0, 0
0, 0
0, 0
0, 0
0, 0
0, 0
0, 0
0, 0
0, 0
0, 0
0, 0
0, 0
0, 0
0, 0
0, 0
0, 0
0, 0
0, 0
0, 0
0, 0
0, 0
0, 0
0, 0
0, 0
0, 0
0, 0
0, 0
0, 0
0, 0
0, 0
0, 0
0, 0
0, 0
0, 0
0, 0
0, 0
0, 0
0, 0
0, 0
0, 0
0, 0
0, 0
0, 0
0, 0
#ENDOFDATA     end of spectrum data