File: host_upload/12-01-2023/Dourbes (shot-by-shot)/upload_4/ps__0257_0689790785_000rfs_shot_3147.msa
#FORMAT      : EMSA/MAS spectral data file
#VERSION     : TC202v2.0 PIXL
#TITLE       : N/A
#DATE        :       Date in the format DD-MMM-YYYY, for example 07-JUL-2010
#TIME        :             The time of day at which the spectrum was recorded, in 24-hour format
#OWNER       : PIXL Flight Model       (PIXL will use this to indicate which instrument took the data.)
#NPOINTS     : 4096     Number of data points in the spectrum (This can be zero for configuration only files)
#NCOLUMNS    : 2     Number of data columns in the spectrum (This can be zero for configuration only files)
#XUNITS      : eV
#YUNITS      : COUNTS
#DATATYPE    : YY
#XPERCHAN    : 7.862, 7.881   eV per channel (separate by commas if more than one detector)
#OFFSET      : 18.5, -22.4         eV of first channel  (separate by commas if more than one detector
#SIGNALTYPE  : XRF
#YP_TEMP     : 3.037
#LIVETIME    : 9.14121, 9.14539   seconds (separate by commas if more than one detector)
#REALTIME    : 10, 10.0   seconds (separate by commas if more than one detector)
#SPECTRUM    : start of spectrum data
0, 0
0, 0
0, 0
0, 0
0, 0
0, 0
0, 0
0, 0
0, 0
0, 0
0, 0
0, 0
0, 0
0, 0
0, 0
0, 0
0, 0
0, 0
0, 0
0, 0
0, 0
0, 0
0, 0
0, 0
0, 0
0, 0
0, 0
0, 0
0, 0
0, 0
0, 0
0, 0
0, 0
0, 0
0, 0
0, 0
0, 1
2, 0
0, 1
2, 1
1, 3
0, 1
0, 3
2, 0
2, 1
2, 1
1, 1
2, 1
4, 0
7, 5
15, 10
22, 25
37, 21
44, 40
57, 45
44, 29
23, 27
20, 17
8, 12
8, 7
3, 9
6, 5
7, 5
12, 8
9, 13
13, 8
12, 5
11, 12
23, 22
39, 44
167, 133
271, 269
553, 464
809, 714
907, 834
883, 879
729, 659
541, 515
337, 311
220, 165
87, 91
61, 38
25, 24
20, 17
16, 20
17, 13
12, 15
8, 4
7, 6
3, 3
5, 2
3, 4
3, 0
8, 2
2, 2
2, 3
8, 7
7, 7
5, 4
12, 8
8, 1
3, 1
1, 3
2, 5
1, 3
2, 6
2, 3
5, 5
5, 6
10, 19
24, 20
20, 26
38, 29
31, 33
40, 33
30, 21
24, 29
28, 25
27, 22
15, 13
19, 13
23, 20
14, 15
14, 15
12, 11
13, 15
10, 14
10, 11
6, 7
4, 11
4, 5
7, 4
3, 2
4, 3
2, 4
3, 3
2, 4
3, 7
1, 4
2, 1
4, 3
3, 5
3, 4
5, 7
5, 2
7, 4
0, 2
6, 2
9, 5
17, 21
47, 44
110, 116
195, 227
402, 419
589, 641
866, 906
1125, 1117
1182, 1164
1148, 1101
942, 849
719, 643
444, 378
260, 205
134, 109
67, 47
48, 36
59, 56
74, 87
104, 109
143, 151
183, 171
171, 169
157, 138
150, 120
93, 79
54, 50
37, 17
19, 16
10, 5
5, 3
6, 1
6, 4
5, 3
1, 3
6, 3
5, 4
5, 4
9, 6
15, 15
20, 27
25, 25
27, 27
30, 28
30, 28
28, 25
24, 23
14, 12
12, 10
16, 9
9, 6
8, 7
7, 1
4, 4
6, 1
9, 3
5, 5
3, 9
7, 5
1, 7
9, 10
11, 7
7, 7
12, 3
7, 2
3, 6
6, 1
4, 4
5, 5
2, 4
3, 5
4, 3
2, 5
8, 6
15, 8
11, 10
11, 16
22, 24
22, 34
41, 35
53, 45
46, 53
48, 46
52, 40
18, 29
18, 25
14, 18
10, 15
7, 8
6, 6
6, 6
5, 3
2, 5
8, 8
5, 8
10, 14
10, 13
18, 23
27, 27
25, 34
50, 52
61, 62
46, 54
42, 57
52, 34
35, 35
30, 28
19, 14
13, 22
11, 10
6, 13
9, 14
16, 13
19, 20
29, 34
53, 77
128, 119
200, 238
354, 430
571, 645
827, 832
1013, 1103
1148, 1203
1270, 1163
1225, 1057
1015, 879
829, 695
604, 472
387, 247
250, 154
145, 87
76, 48
42, 17
34, 8
21, 10
13, 9
18, 11
8, 7
6, 13
5, 4
8, 10
10, 9
13, 24
25, 30
41, 44
45, 58
69, 73
107, 107
147, 145
181, 165
191, 184
202, 183
182, 184
130, 129
101, 106
82, 79
41, 44
40, 29
16, 21
18, 3
8, 4
14, 7
10, 6
14, 5
25, 6
30, 7
27, 7
25, 6
35, 4
29, 5
19, 9
16, 5
17, 7
10, 6
11, 6
12, 2
3, 5
9, 3
2, 5
5, 5
4, 4
7, 6
3, 4
3, 4
5, 5
4, 0
6, 5
4, 5
10, 5
7, 7
5, 5
7, 7
4, 9
9, 5
9, 1
9, 3
11, 7
13, 8
9, 6
13, 5
19, 7
12, 7
12, 7
12, 9
23, 6
6, 7
9, 7
5, 14
6, 10
6, 17
6, 13
3, 9
8, 13
3, 5
2, 7
4, 7
11, 7
5, 6
1, 8
8, 1
3, 3
3, 2
2, 2
3, 3
7, 7
7, 4
10, 4
5, 6
5, 3
2, 1
12, 6
5, 6
2, 3
3, 2
11, 3
5, 2
5, 3
9, 6
6, 2
3, 6
11, 7
9, 5
3, 9
9, 8
4, 8
4, 6
3, 4
5, 3
4, 4
3, 5
6, 3
5, 5
2, 6
6, 4
4, 4
5, 7
5, 9
4, 6
4, 6
2, 13
4, 11
3, 13
3, 26
3, 21
2, 22
5, 11
4, 23
8, 16
4, 21
4, 17
3, 2
8, 11
9, 4
8, 4
2, 7
6, 4
9, 5
5, 5
11, 6
6, 3
8, 5
8, 0
12, 0
0, 6
6, 1
7, 5
5, 0
6, 5
2, 3
1, 0
4, 2
1, 1
1, 2
5, 5
3, 6
2, 3
5, 3
0, 3
7, 2
1, 5
1, 1
3, 5
2, 3
1, 4
7, 5
0, 3
3, 1
4, 1
5, 3
1, 7
4, 3
5, 2
2, 6
4, 3
4, 0
4, 4
4, 5
3, 5
4, 1
4, 1
5, 1
2, 4
0, 5
2, 1
1, 4
4, 4
5, 1
2, 4
4, 4
1, 2
4, 4
1, 4
1, 1
1, 4
3, 2
3, 3
1, 4
1, 5
3, 2
1, 2
2, 9
5, 4
5, 3
3, 2
2, 2
3, 0
3, 6
3, 6
3, 1
2, 5
2, 4
0, 1
2, 2
2, 2
4, 3
2, 0
6, 1
3, 5
0, 3
1, 1
1, 3
2, 2
3, 3
6, 0
2, 3
5, 1
5, 4
4, 3
11, 2
5, 1
1, 2
7, 3
4, 2
4, 3
1, 3
4, 2
3, 4
1, 3
2, 2
1, 1
3, 4
2, 0
1, 0
0, 1
0, 0
1, 0
3, 2
2, 1
2, 1
1, 1
2, 1
4, 1
2, 0
2, 3
3, 0
2, 3
1, 2
4, 2
3, 3
2, 0
0, 4
2, 2
2, 0
0, 0
0, 1
1, 4
1, 1
1, 2
1, 2
2, 1
3, 2
1, 2
3, 3
1, 1
0, 5
2, 3
0, 2
4, 1
0, 1
4, 3
1, 4
2, 1
1, 2
1, 0
1, 2
4, 1
4, 1
2, 0
1, 3
1, 4
1, 2
0, 3
0, 1
1, 2
1, 3
1, 0
1, 0
1, 3
3, 1
2, 1
2, 1
0, 2
0, 3
0, 4
3, 0
2, 0
3, 2
2, 0
2, 1
1, 1
2, 1
1, 1
2, 1
1, 2
0, 2
1, 2
4, 1
0, 1
3, 0
1, 2
2, 2
1, 0
4, 0
0, 0
0, 2
1, 1
1, 0
1, 1
0, 2
1, 0
1, 0
1, 0
1, 0
0, 0
0, 1
1, 0
0, 1
2, 1
2, 0
2, 0
1, 2
0, 1
0, 0
2, 1
1, 3
2, 0
2, 0
0, 0
0, 0
1, 2
2, 0
1, 1
2, 1
2, 0
2, 0
0, 1
2, 0
1, 2
0, 0
0, 0
1, 0
0, 2
0, 0
0, 1
0, 1
0, 0
0, 1
0, 0
0, 1
3, 0
0, 1
0, 0
0, 0
0, 2
0, 0
0, 0
1, 0
1, 0
1, 0
1, 0
1, 0
1, 0
1, 0
2, 1
0, 1
0, 1
1, 0
1, 1
2, 0
0, 1
0, 2
2, 0
1, 1
0, 1
1, 0
1, 0
2, 1
0, 0
1, 0
5, 1
0, 1
0, 0
0, 0
0, 0
1, 1
1, 1
0, 1
0, 0
1, 3
0, 0
0, 2
1, 0
0, 0
0, 1
0, 0
0, 0
0, 0
1, 0
0, 0
0, 0
0, 1
0, 0
0, 0
0, 1
0, 0
1, 1
0, 0
1, 0
1, 1
0, 1
0, 0
1, 1
0, 0
0, 0
0, 1
0, 1
0, 0
2, 0
1, 0
0, 0
0, 0
1, 1
0, 1
1, 0
0, 0
0, 0
0, 1
0, 0
0, 1
0, 0
1, 1
0, 0
0, 0
0, 0
0, 0
0, 0
0, 0
1, 0
1, 0
0, 2
1, 1
0, 0
1, 0
1, 0
0, 0
0, 0
0, 0
0, 0
0, 1
1, 0
0, 0
0, 0
0, 1
0, 0
1, 1
0, 0
0, 0
0, 0
1, 1
0, 0
0, 0
0, 1
0, 1
0, 0
0, 0
1, 0
0, 0
2, 0
0, 0
1, 0
0, 0
0, 0
0, 0
0, 2
0, 0
0, 3
0, 0
0, 0
0, 0
0, 0
0, 0
1, 3
0, 0
1, 0
0, 0
0, 1
1, 1
0, 0
1, 1
1, 0
1, 0
0, 0
1, 0
0, 0
0, 0
1, 0
0, 1
0, 0
0, 0
0, 0
0, 0
0, 0
0, 0
0, 0
0, 0
0, 0
0, 0
0, 0
0, 0
0, 0
0, 0
0, 0
0, 1
0, 0
0, 0
0, 0
1, 0
0, 0
0, 0
0, 0
0, 0
0, 0
0, 0
0, 0
0, 0
0, 0
0, 0
2, 0
0, 1
0, 0
0, 0
0, 0
0, 1
1, 0
0, 0
0, 0
0, 0
0, 0
1, 0
0, 0
0, 0
0, 0
0, 1
0, 0
0, 0
0, 1
0, 0
1, 0
1, 0
0, 1
0, 0
0, 0
0, 0
0, 0
0, 0
0, 0
1, 0
0, 0
0, 0
0, 0
0, 0
0, 0
0, 0
0, 1
0, 0
0, 0
0, 0
0, 0
0, 0
0, 0
0, 0
0, 0
0, 0
0, 0
0, 0
0, 0
0, 0
0, 0
0, 0
0, 0
1, 0
1, 0
0, 0
0, 0
0, 0
0, 0
0, 0
0, 0
0, 0
0, 0
0, 0
0, 0
0, 0
0, 0
0, 0
0, 0
0, 0
0, 0
0, 0
0, 0
0, 0
0, 0
0, 0
0, 0
0, 0
0, 0
0, 0
0, 0
0, 0
0, 0
1, 0
0, 0
0, 0
0, 0
0, 0
0, 0
0, 0
0, 0
0, 0
0, 0
0, 1
0, 0
0, 0
0, 0
0, 0
0, 0
0, 0
0, 1
0, 0
0, 0
0, 0
0, 0
0, 0
0, 0
0, 0
0, 0
0, 0
0, 0
0, 0
0, 0
0, 0
0, 0
0, 0
0, 0
0, 0
0, 0
0, 0
0, 0
0, 0
0, 0
0, 0
0, 0
0, 0
0, 0
0, 0
0, 0
0, 0
0, 0
0, 0
0, 0
0, 0
0, 0
0, 0
0, 0
0, 0
0, 0
0, 1
0, 0
0, 0
0, 0
0, 0
0, 0
0, 0
0, 0
0, 0
0, 0
0, 0
0, 0
0, 0
0, 0
0, 0
0, 0
0, 0
0, 0
0, 0
0, 0
0, 0
0, 0
0, 1
0, 0
0, 0
0, 0
0, 0
0, 0
0, 0
0, 0
0, 0
0, 0
0, 0
0, 0
0, 0
0, 0
0, 0
0, 0
0, 0
0, 0
0, 0
0, 0
0, 0
0, 0
0, 0
0, 0
0, 0
0, 0
0, 0
0, 0
0, 0
0, 0
0, 0
0, 0
0, 0
0, 0
0, 0
0, 0
0, 0
0, 0
0, 0
0, 0
0, 0
0, 0
0, 0
0, 0
0, 0
0, 0
0, 0
0, 0
0, 0
0, 0
0, 0
0, 0
0, 0
0, 0
0, 0
0, 0
0, 0
0, 0
0, 0
0, 0
0, 0
0, 0
0, 0
0, 0
0, 0
0, 0
0, 0
0, 0
0, 0
0, 0
0, 0
0, 0
0, 0
0, 0
0, 0
0, 0
0, 0
0, 0
0, 0
0, 0
0, 0
0, 0
0, 0
0, 0
0, 0
0, 0
0, 0
0, 0
0, 0
0, 0
0, 0
0, 0
0, 0
0, 0
0, 0
0, 0
0, 0
0, 0
0, 0
0, 0
0, 0
0, 0
0, 0
0, 0
0, 0
0, 0
0, 0
0, 0
0, 0
0, 0
0, 0
0, 0
0, 0
0, 0
0, 0
0, 0
0, 0
0, 0
0, 0
0, 0
0, 0
0, 0
0, 0
0, 0
0, 0
0, 0
0, 0
0, 0
0, 0
0, 0
0, 0
0, 0
0, 0
0, 0
0, 0
0, 0
0, 0
0, 0
0, 0
0, 0
0, 0
0, 0
0, 0
0, 0
0, 0
0, 0
0, 0
0, 0
0, 0
0, 0
0, 0
0, 0
0, 0
0, 0
0, 0
0, 0
0, 0
0, 0
0, 0
0, 0
0, 0
0, 0
0, 0
0, 0
0, 0
0, 0
0, 0
0, 0
0, 0
0, 0
0, 0
0, 0
0, 0
0, 0
0, 0
0, 0
0, 0
0, 0
0, 0
0, 0
0, 0
0, 0
0, 0
0, 0
0, 0
0, 0
0, 0
0, 0
0, 0
0, 0
0, 0
0, 0
0, 0
0, 0
0, 0
0, 0
0, 0
0, 0
0, 0
0, 0
0, 0
0, 0
0, 0
0, 0
0, 0
0, 0
0, 0
0, 0
0, 0
0, 0
0, 0
0, 0
0, 0
0, 0
0, 0
0, 0
0, 0
0, 0
0, 0
0, 0
0, 0
0, 0
0, 0
0, 0
0, 0
0, 0
0, 0
0, 0
0, 0
0, 0
0, 0
0, 0
0, 0
0, 0
0, 0
0, 0
0, 0
0, 0
0, 0
0, 0
0, 0
0, 0
0, 0
0, 0
0, 0
0, 0
0, 0
0, 0
0, 0
0, 0
0, 0
0, 0
0, 0
0, 0
0, 0
0, 0
0, 0
0, 0
0, 0
0, 0
0, 0
0, 0
0, 0
0, 0
0, 0
0, 0
0, 0
0, 0
0, 0
0, 0
0, 0
0, 0
0, 0
0, 0
0, 0
0, 0
0, 0
0, 0
0, 0
0, 0
0, 0
0, 0
0, 0
0, 0
0, 0
0, 0
0, 0
0, 0
0, 0
0, 0
0, 0
0, 0
0, 0
0, 0
0, 0
0, 0
0, 0
0, 0
0, 0
0, 0
0, 0
0, 0
0, 0
0, 0
0, 0
0, 0
0, 0
0, 0
0, 0
0, 0
0, 0
0, 0
0, 0
0, 0
0, 0
0, 0
0, 0
0, 0
0, 0
0, 0
0, 0
0, 0
0, 0
0, 0
0, 0
0, 0
0, 0
0, 0
0, 0
0, 0
0, 0
0, 0
0, 0
0, 0
0, 0
0, 0
0, 0
0, 0
0, 0
0, 0
0, 0
0, 0
0, 0
0, 0
0, 0
0, 0
0, 0
0, 0
0, 0
0, 0
0, 0
0, 0
0, 0
0, 0
0, 0
0, 0
0, 0
0, 0
0, 0
0, 0
0, 0
0, 0
0, 0
0, 0
0, 0
0, 0
0, 0
0, 0
0, 0
#ENDOFDATA     end of spectrum data