File: host_upload/12-01-2023/Dourbes (shot-by-shot)/upload_4/ps__0257_0689790785_000rfs_shot_3232.msa
#FORMAT      : EMSA/MAS spectral data file
#VERSION     : TC202v2.0 PIXL
#TITLE       : N/A
#DATE        :       Date in the format DD-MMM-YYYY, for example 07-JUL-2010
#TIME        :             The time of day at which the spectrum was recorded, in 24-hour format
#OWNER       : PIXL Flight Model       (PIXL will use this to indicate which instrument took the data.)
#NPOINTS     : 4096     Number of data points in the spectrum (This can be zero for configuration only files)
#NCOLUMNS    : 2     Number of data columns in the spectrum (This can be zero for configuration only files)
#XUNITS      : eV
#YUNITS      : COUNTS
#DATATYPE    : YY
#XPERCHAN    : 7.862, 7.881   eV per channel (separate by commas if more than one detector)
#OFFSET      : 18.5, -22.4         eV of first channel  (separate by commas if more than one detector
#SIGNALTYPE  : XRF
#YP_TEMP     : 2.781
#LIVETIME    : 9.07743, 9.07652   seconds (separate by commas if more than one detector)
#REALTIME    : 10, 10.0   seconds (separate by commas if more than one detector)
#SPECTRUM    : start of spectrum data
0, 0
0, 0
0, 0
0, 0
0, 0
0, 0
0, 0
0, 0
0, 0
0, 0
0, 0
0, 0
0, 0
0, 0
0, 0
0, 0
0, 0
0, 0
0, 0
0, 0
0, 0
0, 0
0, 0
0, 0
0, 0
0, 0
0, 0
0, 0
0, 0
0, 0
0, 0
0, 0
1, 0
1, 0
0, 0
1, 0
1, 2
5, 5
2, 1
6, 3
4, 2
7, 2
1, 5
3, 4
1, 3
0, 2
7, 1
4, 2
5, 6
10, 9
13, 14
13, 13
21, 24
32, 33
40, 43
23, 32
30, 17
22, 21
13, 11
5, 7
15, 8
11, 15
17, 24
20, 28
33, 24
21, 30
17, 13
14, 19
24, 23
37, 34
82, 94
216, 219
328, 387
476, 542
591, 665
579, 627
477, 550
350, 391
249, 232
116, 139
54, 65
30, 35
22, 14
14, 14
12, 15
20, 17
18, 8
14, 20
13, 10
11, 11
5, 5
7, 6
5, 1
6, 5
3, 6
7, 11
15, 15
11, 11
22, 25
25, 23
16, 24
13, 17
13, 5
10, 4
13, 9
10, 14
18, 18
21, 30
44, 61
74, 98
141, 133
162, 183
185, 197
206, 196
174, 194
176, 193
143, 170
134, 117
88, 102
83, 83
59, 74
63, 54
41, 47
45, 38
46, 45
35, 31
32, 36
32, 24
19, 19
23, 18
11, 9
12, 5
5, 5
3, 5
7, 3
5, 6
10, 12
10, 6
11, 13
19, 12
21, 23
17, 14
12, 16
13, 16
11, 17
11, 11
5, 5
7, 4
3, 10
6, 5
12, 16
18, 22
17, 32
30, 41
53, 51
57, 75
87, 88
96, 84
98, 93
74, 70
42, 56
32, 33
23, 21
12, 10
10, 9
12, 5
8, 9
5, 7
12, 11
19, 17
21, 22
22, 15
19, 13
15, 12
14, 12
10, 13
13, 9
13, 5
11, 10
8, 12
8, 6
5, 9
6, 12
4, 5
7, 6
5, 10
4, 8
12, 6
10, 15
8, 14
16, 13
20, 4
16, 17
11, 16
19, 16
21, 27
16, 27
24, 33
27, 20
17, 15
26, 30
27, 14
10, 20
16, 16
11, 11
14, 19
15, 8
11, 11
7, 13
11, 11
13, 19
16, 15
13, 13
13, 19
11, 14
17, 15
11, 14
14, 9
15, 15
5, 12
14, 8
15, 5
15, 11
18, 10
20, 7
15, 18
16, 12
16, 14
15, 20
19, 16
16, 20
13, 11
14, 19
7, 19
8, 9
12, 13
12, 8
10, 15
14, 12
15, 15
13, 11
21, 19
15, 15
11, 16
27, 18
36, 21
38, 45
45, 50
67, 50
65, 65
69, 78
63, 75
64, 55
54, 60
44, 37
32, 31
30, 25
21, 19
21, 22
15, 23
27, 20
24, 29
36, 53
73, 97
115, 165
260, 322
493, 576
723, 960
1182, 1454
1700, 1950
2286, 2503
2556, 2793
2689, 2760
2510, 2520
2241, 1999
1717, 1415
1248, 1024
781, 599
460, 363
218, 167
120, 104
59, 55
43, 31
31, 17
27, 20
19, 27
15, 21
18, 28
23, 17
28, 28
30, 29
48, 57
49, 63
74, 81
107, 113
177, 179
248, 240
291, 329
353, 335
404, 388
397, 386
382, 352
330, 268
250, 217
173, 139
96, 89
72, 62
38, 36
16, 17
13, 14
7, 7
4, 11
9, 10
5, 7
6, 9
6, 9
13, 9
8, 12
12, 11
13, 8
11, 11
5, 5
10, 8
4, 8
3, 7
12, 8
5, 7
8, 6
7, 5
9, 5
7, 7
9, 9
5, 3
12, 9
6, 5
7, 5
14, 10
6, 13
5, 11
11, 8
5, 9
7, 6
11, 8
6, 7
6, 8
6, 7
10, 9
4, 6
5, 7
8, 5
10, 8
8, 5
8, 6
9, 11
8, 8
8, 4
7, 5
5, 7
2, 6
6, 4
9, 5
2, 4
9, 3
9, 10
7, 8
9, 4
13, 9
9, 14
7, 11
8, 7
7, 9
8, 3
8, 6
6, 5
9, 3
13, 5
4, 6
6, 6
3, 9
3, 7
4, 6
7, 4
11, 4
9, 8
5, 7
7, 8
1, 4
1, 5
5, 5
6, 7
6, 5
3, 4
5, 6
6, 6
5, 6
7, 1
4, 7
5, 6
4, 3
2, 3
5, 4
2, 4
2, 2
5, 7
3, 6
4, 8
2, 6
7, 3
6, 2
2, 8
6, 9
8, 5
4, 7
4, 9
7, 3
3, 4
4, 9
6, 8
5, 12
5, 4
0, 12
5, 10
6, 5
4, 8
2, 9
6, 4
3, 8
6, 7
5, 7
4, 3
3, 6
6, 3
3, 5
7, 5
4, 7
8, 3
5, 5
4, 6
2, 4
2, 5
4, 4
3, 4
6, 1
2, 6
3, 0
4, 3
7, 2
7, 7
6, 5
2, 5
1, 6
4, 2
1, 1
9, 3
4, 1
4, 2
3, 3
3, 3
2, 5
2, 1
2, 3
0, 4
5, 5
3, 0
5, 2
3, 1
3, 4
4, 1
7, 3
1, 4
5, 2
1, 5
1, 2
7, 6
1, 2
4, 3
4, 5
6, 6
0, 6
4, 3
3, 2
4, 3
1, 3
3, 2
2, 4
1, 4
1, 1
3, 3
3, 3
4, 4
3, 3
4, 2
3, 3
1, 4
6, 2
6, 3
4, 4
1, 1
1, 1
2, 6
3, 2
2, 4
4, 2
1, 0
2, 3
1, 3
3, 3
2, 2
2, 4
4, 3
2, 1
3, 3
1, 2
1, 6
2, 0
5, 3
1, 2
1, 3
1, 3
6, 3
5, 1
2, 2
1, 3
2, 3
1, 3
2, 1
3, 0
2, 1
5, 1
5, 2
3, 1
2, 0
3, 4
0, 3
0, 2
3, 3
4, 3
6, 5
8, 3
1, 2
2, 1
5, 4
2, 5
4, 4
5, 4
3, 6
3, 2
2, 3
4, 2
1, 3
1, 4
0, 3
4, 1
0, 0
2, 2
3, 0
2, 2
3, 2
0, 2
0, 5
3, 4
2, 4
2, 3
3, 1
2, 5
2, 1
4, 1
6, 1
1, 1
3, 5
0, 3
1, 1
2, 2
2, 1
2, 5
1, 3
1, 0
2, 2
0, 1
2, 3
4, 1
2, 0
1, 2
5, 1
3, 1
0, 1
0, 4
3, 3
1, 1
1, 3
0, 4
2, 0
1, 0
1, 0
0, 3
0, 2
2, 1
0, 1
1, 1
0, 1
0, 2
3, 3
0, 2
1, 3
2, 1
0, 2
2, 0
0, 0
1, 1
3, 1
1, 0
1, 1
3, 2
1, 1
1, 1
0, 2
2, 2
0, 0
0, 1
2, 1
2, 2
1, 0
1, 1
0, 2
1, 0
1, 0
0, 0
1, 0
2, 0
3, 2
0, 1
1, 1
0, 0
0, 1
0, 1
0, 0
1, 0
0, 1
0, 1
1, 1
1, 0
2, 1
0, 1
0, 0
1, 0
0, 1
4, 0
2, 1
1, 0
0, 0
3, 1
0, 1
0, 1
0, 0
0, 0
0, 0
2, 0
0, 1
2, 0
1, 0
3, 1
0, 1
0, 2
1, 1
0, 0
0, 1
2, 0
1, 0
0, 1
0, 0
3, 1
0, 2
0, 1
1, 0
0, 0
0, 1
1, 0
0, 0
2, 3
0, 1
0, 0
0, 0
1, 1
2, 0
0, 0
0, 1
1, 0
0, 0
1, 0
0, 0
0, 1
1, 2
0, 0
0, 1
0, 1
0, 0
1, 0
0, 0
0, 1
0, 1
0, 2
1, 0
0, 0
0, 0
0, 0
0, 0
0, 0
1, 1
0, 0
0, 0
1, 0
1, 0
0, 0
1, 1
0, 0
0, 1
0, 0
0, 0
0, 1
0, 0
1, 0
2, 0
0, 0
0, 0
0, 0
0, 0
1, 1
1, 0
0, 1
0, 3
0, 1
0, 0
0, 0
0, 0
1, 0
0, 0
0, 0
0, 1
0, 0
0, 0
0, 1
0, 0
1, 0
0, 0
0, 0
1, 0
0, 1
0, 0
0, 0
1, 0
0, 0
0, 0
1, 2
1, 0
1, 0
1, 0
0, 0
0, 1
0, 0
0, 0
0, 0
0, 0
0, 0
0, 0
0, 1
0, 1
0, 0
0, 1
0, 1
0, 0
0, 0
0, 1
1, 0
0, 1
1, 0
0, 0
0, 0
0, 0
0, 0
0, 1
0, 1
1, 0
0, 3
0, 0
0, 0
0, 2
0, 2
0, 0
0, 0
0, 0
0, 0
0, 0
0, 0
0, 1
0, 0
0, 0
0, 0
0, 0
1, 0
1, 0
1, 0
0, 0
0, 0
1, 0
1, 0
1, 0
0, 0
0, 0
0, 1
0, 0
0, 0
1, 0
0, 0
0, 0
0, 0
0, 0
0, 0
0, 0
0, 0
0, 1
0, 0
0, 0
0, 0
0, 0
0, 0
1, 0
0, 0
0, 0
0, 0
0, 0
0, 1
0, 0
0, 0
0, 0
0, 0
0, 0
0, 0
0, 0
0, 0
0, 0
0, 0
0, 0
0, 0
0, 0
0, 0
0, 0
0, 0
0, 1
0, 1
0, 1
0, 0
0, 0
0, 0
1, 0
0, 0
0, 1
0, 1
0, 0
1, 0
0, 0
0, 0
0, 0
0, 0
0, 0
0, 1
0, 0
0, 0
1, 0
0, 0
0, 0
1, 1
0, 0
0, 0
0, 0
0, 1
0, 0
0, 0
0, 0
0, 0
0, 0
0, 0
0, 0
0, 0
0, 0
0, 0
0, 0
0, 0
0, 0
0, 0
0, 0
0, 0
0, 0
0, 0
0, 0
0, 0
0, 0
0, 0
0, 0
0, 0
0, 0
0, 0
0, 2
0, 0
0, 0
0, 0
1, 0
0, 0
0, 0
0, 0
1, 0
0, 0
0, 0
0, 0
0, 0
0, 0
0, 0
0, 0
0, 0
0, 0
0, 0
1, 0
0, 0
0, 0
0, 0
0, 0
0, 0
0, 0
0, 0
0, 0
0, 0
0, 0
0, 0
0, 0
0, 0
0, 0
0, 0
0, 0
0, 0
0, 0
0, 0
0, 0
0, 0
0, 0
0, 0
1, 0
0, 0
0, 0
0, 1
1, 0
1, 0
0, 0
0, 0
0, 0
0, 0
0, 1
0, 0
0, 0
0, 0
0, 0
0, 0
0, 0
0, 0
0, 0
0, 0
0, 0
0, 0
0, 0
0, 0
0, 0
0, 0
0, 0
0, 0
0, 0
0, 0
0, 0
0, 0
0, 0
0, 0
0, 0
0, 0
0, 0
0, 0
0, 0
0, 0
0, 0
0, 0
0, 0
0, 0
0, 0
0, 0
0, 0
0, 0
0, 0
0, 0
0, 0
0, 0
0, 0
0, 0
0, 0
0, 0
0, 0
0, 0
0, 0
0, 1
0, 0
0, 0
0, 0
0, 0
0, 0
0, 0
0, 0
0, 0
0, 0
0, 0
0, 0
0, 0
0, 0
0, 0
0, 0
0, 0
0, 0
0, 0
0, 0
0, 0
0, 0
0, 0
0, 0
0, 0
0, 0
0, 0
0, 0
0, 0
1, 0
0, 0
0, 0
0, 0
0, 0
0, 0
0, 0
0, 0
0, 0
0, 0
0, 0
0, 0
0, 0
0, 0
0, 0
0, 0
0, 0
0, 0
0, 0
0, 0
0, 0
0, 0
0, 0
0, 0
0, 0
0, 0
0, 0
0, 0
0, 0
0, 0
0, 0
0, 0
0, 0
0, 0
0, 0
0, 0
0, 0
0, 0
0, 0
0, 0
0, 0
0, 0
0, 0
0, 0
0, 0
0, 0
0, 0
0, 0
0, 0
0, 0
0, 0
0, 0
0, 0
0, 0
0, 0
0, 0
0, 0
0, 0
0, 0
0, 0
0, 0
0, 0
0, 0
0, 0
0, 0
0, 0
0, 0
0, 0
0, 0
0, 0
0, 0
0, 0
0, 0
0, 0
0, 0
0, 0
0, 0
0, 0
0, 0
0, 0
0, 0
0, 0
0, 0
0, 0
0, 0
0, 0
0, 0
0, 0
0, 0
0, 0
0, 0
0, 0
0, 0
0, 0
0, 0
0, 0
0, 0
0, 0
0, 0
0, 0
0, 0
0, 0
0, 0
0, 0
0, 0
0, 0
0, 0
0, 0
0, 0
0, 0
0, 0
0, 0
0, 0
0, 0
0, 0
0, 0
0, 0
0, 0
0, 0
0, 0
0, 0
0, 0
0, 0
0, 0
0, 0
0, 0
0, 0
0, 0
0, 0
0, 0
0, 0
0, 0
0, 0
0, 0
0, 0
0, 0
0, 0
0, 0
0, 0
0, 0
0, 0
0, 0
0, 0
0, 0
0, 0
0, 0
0, 0
0, 0
0, 0
0, 0
0, 0
0, 0
0, 0
0, 0
0, 0
0, 0
0, 0
0, 0
0, 0
0, 0
0, 0
0, 0
0, 0
0, 0
0, 0
0, 0
0, 0
0, 0
0, 0
0, 0
0, 0
0, 0
0, 0
0, 0
0, 0
0, 0
0, 0
0, 0
0, 0
0, 0
0, 0
0, 0
0, 0
0, 0
0, 0
0, 0
0, 0
0, 0
0, 0
0, 0
0, 0
0, 0
0, 0
0, 0
0, 0
0, 0
0, 0
0, 0
0, 0
0, 0
0, 0
0, 0
0, 0
0, 0
0, 0
0, 0
0, 0
0, 0
0, 0
0, 0
0, 0
0, 0
0, 0
0, 0
0, 0
0, 0
0, 0
0, 0
0, 0
0, 0
0, 0
0, 0
0, 0
0, 0
0, 0
0, 0
0, 0
0, 0
0, 0
0, 0
0, 0
0, 0
0, 0
0, 0
0, 0
0, 0
0, 0
0, 0
0, 0
0, 0
0, 0
0, 0
0, 0
0, 0
0, 0
0, 0
0, 0
0, 0
0, 0
0, 0
0, 0
0, 0
0, 0
0, 0
0, 0
0, 0
0, 0
0, 0
0, 0
0, 0
0, 0
0, 0
0, 0
0, 0
0, 0
0, 0
0, 0
0, 0
0, 0
0, 0
0, 0
0, 0
0, 0
0, 0
0, 0
0, 0
0, 0
0, 0
0, 0
0, 0
0, 0
0, 0
0, 0
0, 0
0, 0
0, 0
0, 0
0, 0
0, 0
0, 0
0, 0
0, 0
0, 0
0, 0
0, 0
0, 0
0, 0
0, 0
0, 0
0, 0
0, 0
0, 0
0, 0
0, 0
0, 0
0, 0
0, 0
0, 0
0, 0
0, 0
0, 0
0, 0
0, 0
0, 0
0, 0
0, 0
0, 0
0, 0
0, 0
0, 0
0, 0
0, 0
0, 0
0, 0
0, 0
0, 0
0, 0
0, 0
0, 0
0, 0
0, 0
0, 0
0, 0
0, 0
#ENDOFDATA     end of spectrum data