File: host_upload/12-01-2023/Dourbes (shot-by-shot)/upload_4/ps__0257_0689790785_000rfs_shot_3174.msa
#FORMAT      : EMSA/MAS spectral data file
#VERSION     : TC202v2.0 PIXL
#TITLE       : N/A
#DATE        :       Date in the format DD-MMM-YYYY, for example 07-JUL-2010
#TIME        :             The time of day at which the spectrum was recorded, in 24-hour format
#OWNER       : PIXL Flight Model       (PIXL will use this to indicate which instrument took the data.)
#NPOINTS     : 4096     Number of data points in the spectrum (This can be zero for configuration only files)
#NCOLUMNS    : 2     Number of data columns in the spectrum (This can be zero for configuration only files)
#XUNITS      : eV
#YUNITS      : COUNTS
#DATATYPE    : YY
#XPERCHAN    : 7.862, 7.881   eV per channel (separate by commas if more than one detector)
#OFFSET      : 18.5, -22.4         eV of first channel  (separate by commas if more than one detector
#SIGNALTYPE  : XRF
#YP_TEMP     : 3.037
#LIVETIME    : 9.02347, 9.07611   seconds (separate by commas if more than one detector)
#REALTIME    : 10, 10.0   seconds (separate by commas if more than one detector)
#SPECTRUM    : start of spectrum data
0, 0
0, 0
0, 0
0, 0
0, 0
0, 0
0, 0
0, 0
0, 0
0, 0
0, 0
0, 0
0, 0
0, 0
0, 0
0, 0
0, 0
0, 0
0, 0
0, 0
0, 0
0, 0
0, 0
0, 0
0, 0
0, 0
0, 0
0, 0
0, 0
0, 1
0, 0
1, 0
0, 0
0, 0
0, 0
2, 1
0, 1
1, 1
1, 1
3, 1
2, 1
0, 1
2, 0
1, 2
0, 2
1, 0
3, 1
1, 2
4, 2
8, 7
8, 10
23, 20
27, 29
56, 45
61, 38
47, 41
38, 29
11, 19
11, 9
8, 5
8, 9
4, 6
7, 6
7, 13
8, 12
10, 10
7, 7
7, 5
25, 15
36, 25
98, 60
193, 180
304, 265
436, 384
537, 534
579, 462
472, 419
376, 289
227, 195
112, 104
84, 46
29, 20
24, 29
9, 10
13, 7
7, 4
5, 5
5, 7
5, 11
5, 3
2, 1
2, 1
1, 2
4, 0
0, 3
5, 2
5, 2
13, 3
8, 3
9, 10
6, 3
10, 1
3, 3
2, 2
3, 5
6, 4
2, 3
7, 6
11, 8
17, 14
24, 17
26, 32
35, 34
45, 38
47, 30
52, 30
34, 31
36, 22
28, 22
17, 25
23, 12
20, 14
11, 12
17, 18
14, 13
10, 12
11, 12
10, 13
11, 7
6, 8
8, 11
2, 13
8, 5
7, 4
3, 7
6, 10
5, 3
4, 3
5, 6
3, 4
5, 7
5, 4
5, 2
7, 2
2, 4
4, 1
2, 3
3, 9
6, 1
6, 18
13, 19
30, 34
63, 59
107, 107
152, 143
249, 258
284, 258
308, 337
286, 290
250, 243
198, 142
131, 111
77, 45
40, 34
31, 35
43, 33
52, 40
76, 48
86, 62
104, 57
97, 73
97, 65
77, 44
64, 33
45, 35
24, 22
13, 10
14, 5
6, 7
7, 2
6, 2
5, 6
3, 5
6, 7
6, 2
5, 5
12, 3
6, 8
4, 7
8, 9
14, 12
21, 11
17, 20
15, 12
17, 10
18, 20
22, 21
17, 13
27, 14
27, 14
15, 7
21, 10
12, 4
23, 7
28, 5
29, 10
19, 14
35, 10
13, 18
14, 21
18, 14
12, 12
9, 19
6, 12
7, 7
3, 6
3, 7
6, 7
9, 1
3, 5
4, 5
5, 6
7, 7
7, 5
11, 13
9, 6
12, 8
13, 12
25, 21
27, 24
11, 25
23, 30
23, 26
18, 20
17, 17
15, 15
17, 8
26, 4
9, 4
10, 5
7, 12
10, 12
15, 12
15, 11
21, 11
29, 19
35, 36
42, 48
70, 65
85, 87
82, 88
95, 95
82, 68
83, 43
55, 45
50, 38
32, 24
33, 22
28, 16
15, 15
25, 20
23, 28
50, 35
82, 79
159, 157
332, 333
590, 574
972, 993
1583, 1514
2279, 2007
2866, 2618
3341, 2862
3537, 2784
3371, 2624
2874, 2114
2209, 1583
1586, 983
972, 629
536, 358
312, 166
155, 80
73, 44
38, 28
16, 8
19, 17
20, 16
25, 17
23, 12
22, 19
25, 22
22, 21
30, 33
63, 68
100, 93
125, 135
200, 192
276, 268
397, 345
454, 389
498, 389
485, 438
479, 369
374, 319
294, 209
185, 149
159, 97
77, 53
38, 27
24, 18
11, 10
21, 7
7, 4
7, 4
5, 12
5, 7
4, 5
9, 7
7, 4
2, 6
9, 2
7, 3
8, 6
1, 5
5, 3
9, 2
10, 0
5, 4
4, 5
5, 5
4, 6
3, 4
2, 9
3, 8
5, 8
8, 7
7, 10
7, 8
8, 3
9, 8
9, 6
9, 5
3, 4
11, 5
5, 5
6, 6
8, 6
5, 3
4, 3
3, 4
8, 6
4, 6
10, 1
5, 3
9, 1
3, 3
10, 3
7, 4
4, 6
5, 3
3, 8
7, 7
3, 7
2, 2
3, 3
2, 4
3, 4
2, 5
5, 1
2, 6
3, 3
9, 3
4, 4
2, 6
1, 7
3, 3
1, 5
4, 6
2, 4
3, 6
9, 6
2, 5
3, 4
3, 4
4, 4
3, 2
2, 4
2, 3
4, 0
2, 2
3, 0
1, 3
2, 4
4, 4
1, 7
2, 4
7, 4
2, 5
6, 2
7, 4
5, 7
7, 5
8, 1
9, 5
3, 5
6, 2
9, 2
7, 4
5, 2
5, 5
6, 3
4, 3
4, 3
2, 2
2, 7
4, 6
3, 7
3, 3
3, 9
1, 4
2, 4
5, 7
2, 4
2, 2
3, 3
3, 6
3, 5
3, 5
4, 2
1, 5
3, 3
3, 4
7, 4
4, 3
4, 7
9, 7
4, 6
11, 4
11, 4
10, 2
7, 5
11, 6
15, 5
7, 3
6, 5
13, 5
5, 1
6, 2
5, 2
3, 2
3, 4
3, 1
1, 3
2, 2
1, 1
5, 3
1, 0
3, 2
2, 1
0, 3
3, 3
1, 3
3, 3
2, 1
2, 3
1, 5
4, 3
2, 1
2, 1
3, 2
3, 2
3, 2
3, 1
4, 1
3, 0
5, 1
2, 0
3, 1
4, 2
1, 2
1, 2
3, 2
0, 3
7, 4
1, 0
1, 0
1, 2
3, 0
0, 4
1, 1
1, 2
4, 3
0, 1
1, 1
1, 0
2, 0
0, 0
1, 3
4, 3
2, 2
4, 3
2, 0
0, 2
5, 1
4, 2
6, 0
6, 2
1, 1
2, 2
2, 3
1, 4
0, 2
4, 4
2, 1
1, 2
1, 1
1, 0
3, 2
1, 2
1, 1
2, 5
0, 2
2, 1
1, 2
0, 0
2, 4
1, 1
2, 1
2, 3
1, 1
0, 2
2, 2
1, 0
0, 2
4, 1
2, 4
2, 2
4, 2
3, 3
6, 0
12, 6
6, 0
5, 1
3, 1
2, 5
5, 3
2, 7
5, 2
2, 5
3, 2
0, 3
3, 5
4, 2
0, 1
4, 3
1, 1
4, 2
0, 1
6, 0
0, 1
2, 0
3, 0
2, 0
1, 2
2, 2
1, 1
3, 3
1, 1
1, 0
2, 2
0, 1
1, 2
4, 1
1, 3
3, 2
1, 1
2, 4
1, 0
2, 0
0, 1
3, 3
3, 1
1, 1
0, 0
1, 2
0, 0
1, 3
0, 1
1, 0
3, 0
2, 0
0, 0
3, 0
1, 0
0, 0
0, 2
0, 0
2, 1
0, 0
2, 0
2, 1
1, 1
2, 1
5, 1
2, 0
4, 0
1, 0
4, 0
4, 0
1, 0
3, 1
0, 1
6, 0
1, 1
2, 1
2, 0
0, 0
1, 0
0, 0
2, 1
1, 2
0, 1
0, 0
0, 1
0, 1
0, 1
1, 0
1, 0
0, 2
0, 0
1, 2
1, 0
3, 2
1, 1
0, 0
0, 1
0, 0
0, 2
0, 0
1, 0
0, 0
0, 1
0, 0
0, 1
1, 0
2, 1
1, 2
1, 1
0, 0
1, 0
0, 1
2, 0
0, 0
1, 0
0, 1
1, 1
0, 0
0, 2
0, 0
0, 1
0, 1
1, 0
0, 2
1, 0
1, 1
0, 1
1, 0
0, 1
1, 0
0, 0
0, 1
0, 0
0, 0
1, 0
0, 0
0, 0
0, 0
1, 0
1, 0
0, 0
0, 0
0, 0
1, 0
0, 0
0, 0
1, 1
0, 0
0, 0
0, 0
2, 0
0, 1
0, 0
0, 1
0, 1
0, 0
0, 1
0, 0
0, 0
1, 0
0, 0
1, 1
1, 1
0, 1
0, 1
2, 0
1, 0
0, 1
0, 1
1, 2
0, 0
0, 0
1, 3
0, 0
0, 2
0, 0
0, 0
1, 0
0, 2
0, 0
0, 0
0, 1
1, 0
0, 0
0, 1
0, 1
0, 0
0, 0
0, 1
0, 0
0, 0
0, 0
1, 0
0, 0
2, 0
0, 0
0, 0
0, 0
0, 0
0, 1
0, 0
0, 0
0, 0
1, 0
1, 1
0, 0
0, 1
0, 0
0, 0
2, 0
0, 0
0, 0
0, 0
0, 0
0, 0
0, 0
0, 0
0, 0
0, 0
0, 0
0, 1
0, 0
0, 0
0, 0
1, 1
0, 0
0, 0
0, 0
1, 0
0, 0
0, 0
0, 0
0, 1
0, 0
0, 0
0, 0
0, 0
0, 0
0, 0
0, 0
1, 1
0, 0
2, 0
0, 0
0, 0
1, 0
0, 1
0, 0
1, 0
0, 1
1, 0
0, 0
0, 0
2, 1
1, 1
0, 0
0, 0
0, 0
0, 0
0, 0
1, 0
0, 0
0, 0
0, 0
1, 0
0, 0
0, 1
0, 1
0, 0
0, 0
0, 0
0, 0
0, 1
2, 0
0, 1
0, 1
0, 0
0, 0
0, 0
1, 0
0, 0
0, 0
0, 0
0, 0
0, 1
0, 0
0, 0
0, 0
0, 0
0, 0
0, 0
0, 0
0, 0
1, 0
0, 1
0, 0
0, 0
0, 0
0, 0
0, 0
0, 0
0, 0
0, 0
0, 0
0, 0
0, 0
0, 0
0, 1
0, 0
0, 0
0, 0
0, 1
0, 0
0, 1
1, 0
0, 0
3, 0
0, 0
0, 0
0, 0
1, 1
0, 0
0, 0
0, 1
0, 0
0, 0
0, 0
0, 0
0, 0
0, 0
0, 0
0, 0
0, 0
1, 0
0, 0
0, 0
0, 0
0, 0
0, 0
0, 0
0, 0
0, 1
0, 0
0, 0
0, 0
0, 0
0, 0
0, 0
0, 0
0, 0
0, 0
0, 0
0, 0
0, 0
0, 0
0, 0
0, 0
0, 0
0, 0
1, 0
0, 0
0, 0
0, 0
0, 0
0, 0
0, 0
0, 0
0, 0
0, 0
0, 0
0, 0
1, 0
0, 0
0, 0
0, 0
0, 0
0, 0
0, 0
0, 0
0, 0
0, 0
0, 0
0, 0
0, 0
0, 1
0, 0
0, 0
0, 0
0, 1
0, 0
0, 0
0, 0
0, 0
0, 0
0, 0
0, 0
0, 0
0, 0
0, 0
0, 0
0, 0
0, 0
0, 0
0, 0
0, 0
0, 0
0, 0
0, 0
0, 0
0, 1
0, 0
1, 0
0, 0
0, 0
0, 0
0, 0
0, 0
0, 0
0, 1
0, 0
0, 0
0, 0
0, 0
0, 0
0, 0
0, 0
0, 0
0, 0
0, 0
1, 0
0, 0
0, 0
0, 0
0, 1
0, 0
0, 0
0, 0
0, 0
0, 0
0, 0
0, 0
0, 0
0, 0
0, 0
0, 0
0, 0
0, 0
0, 0
0, 0
0, 0
0, 0
0, 0
0, 0
0, 0
0, 0
0, 0
0, 0
0, 0
0, 0
0, 0
0, 0
0, 0
0, 0
0, 0
0, 0
0, 0
0, 0
0, 0
0, 0
0, 0
0, 0
0, 0
0, 0
0, 0
0, 0
0, 0
0, 0
0, 0
0, 0
0, 0
0, 0
0, 0
0, 0
0, 0
0, 0
0, 0
0, 0
0, 0
0, 0
0, 0
0, 0
0, 0
0, 0
0, 0
0, 0
0, 0
0, 0
0, 0
0, 0
0, 0
0, 0
0, 0
0, 0
0, 0
0, 0
0, 0
0, 0
0, 0
0, 0
0, 0
0, 0
0, 0
0, 0
0, 0
0, 0
0, 0
0, 0
0, 0
0, 0
0, 0
0, 0
0, 0
0, 0
0, 0
0, 0
0, 0
0, 0
0, 0
0, 0
0, 0
0, 0
0, 0
0, 0
0, 0
0, 0
0, 0
0, 0
0, 0
0, 0
0, 0
0, 0
0, 0
0, 0
0, 0
0, 0
0, 0
0, 0
0, 0
0, 0
0, 0
0, 0
0, 0
0, 0
0, 0
0, 0
0, 0
0, 0
0, 0
0, 0
0, 0
0, 0
0, 0
0, 0
0, 0
1, 0
0, 0
0, 0
0, 0
0, 0
0, 0
0, 0
0, 0
0, 0
0, 0
0, 0
0, 0
0, 0
0, 0
0, 0
0, 0
0, 0
0, 0
0, 0
0, 0
0, 0
0, 0
0, 0
0, 0
0, 0
0, 0
0, 0
0, 0
0, 0
0, 0
0, 0
0, 0
0, 0
0, 0
0, 0
0, 0
0, 0
0, 0
0, 0
0, 0
0, 0
0, 0
0, 0
0, 0
0, 0
0, 0
0, 0
0, 0
0, 0
0, 0
0, 0
0, 0
0, 0
0, 0
0, 0
0, 0
0, 0
0, 0
0, 0
0, 0
0, 0
0, 0
0, 0
0, 0
0, 0
0, 0
0, 0
0, 0
0, 0
0, 0
0, 0
0, 0
0, 0
0, 0
0, 0
0, 0
0, 0
0, 0
0, 0
0, 0
0, 0
0, 0
0, 0
0, 0
0, 0
0, 0
0, 0
0, 0
0, 0
0, 0
0, 0
0, 0
0, 0
0, 0
0, 0
0, 0
0, 0
0, 0
0, 0
0, 0
0, 0
0, 0
0, 0
0, 0
0, 0
0, 0
0, 0
0, 0
0, 0
0, 0
0, 0
0, 0
0, 0
0, 0
0, 0
0, 0
0, 0
0, 0
0, 0
0, 0
0, 0
0, 0
0, 0
0, 0
0, 0
0, 0
0, 0
0, 0
0, 0
0, 0
0, 0
0, 0
0, 0
0, 0
0, 0
0, 0
0, 0
0, 0
0, 0
0, 0
0, 0
0, 0
0, 0
0, 0
0, 0
0, 0
0, 0
0, 0
0, 0
0, 0
0, 0
0, 0
0, 0
0, 0
0, 0
0, 0
0, 0
0, 0
0, 0
0, 0
0, 0
0, 0
0, 0
0, 0
0, 0
0, 0
0, 0
0, 0
0, 0
0, 0
0, 0
0, 0
0, 0
0, 0
0, 0
0, 0
0, 0
0, 0
0, 0
0, 0
0, 0
0, 0
0, 0
0, 0
0, 0
0, 0
0, 0
0, 0
0, 0
0, 0
0, 0
0, 0
0, 0
0, 0
0, 0
0, 0
0, 0
0, 0
0, 0
0, 0
0, 0
0, 0
0, 0
0, 0
0, 0
0, 0
0, 0
0, 0
0, 0
0, 0
0, 0
0, 0
0, 0
0, 0
0, 0
0, 0
0, 0
0, 0
0, 0
0, 0
0, 0
0, 0
0, 0
0, 0
0, 0
0, 0
0, 0
0, 0
0, 0
0, 0
0, 0
0, 0
0, 0
0, 0
0, 0
0, 0
0, 0
0, 0
0, 0
0, 0
0, 0
0, 0
0, 0
0, 0
0, 0
0, 0
0, 0
0, 0
0, 0
0, 0
0, 0
0, 0
0, 0
0, 0
0, 0
0, 0
0, 0
0, 0
0, 0
0, 0
0, 0
0, 0
0, 0
0, 0
#ENDOFDATA     end of spectrum data