File: host_upload/12-01-2023/Dourbes (shot-by-shot)/upload_4/ps__0257_0689790785_000rfs_shot_3158.msa
#FORMAT      : EMSA/MAS spectral data file
#VERSION     : TC202v2.0 PIXL
#TITLE       : N/A
#DATE        :       Date in the format DD-MMM-YYYY, for example 07-JUL-2010
#TIME        :             The time of day at which the spectrum was recorded, in 24-hour format
#OWNER       : PIXL Flight Model       (PIXL will use this to indicate which instrument took the data.)
#NPOINTS     : 4096     Number of data points in the spectrum (This can be zero for configuration only files)
#NCOLUMNS    : 2     Number of data columns in the spectrum (This can be zero for configuration only files)
#XUNITS      : eV
#YUNITS      : COUNTS
#DATATYPE    : YY
#XPERCHAN    : 7.862, 7.881   eV per channel (separate by commas if more than one detector)
#OFFSET      : 18.5, -22.4         eV of first channel  (separate by commas if more than one detector
#SIGNALTYPE  : XRF
#YP_TEMP     : 3.133
#LIVETIME    : 9.00849, 8.98747   seconds (separate by commas if more than one detector)
#REALTIME    : 10, 10.0   seconds (separate by commas if more than one detector)
#SPECTRUM    : start of spectrum data
0, 0
0, 0
0, 0
0, 0
0, 0
0, 0
0, 0
0, 0
0, 0
0, 0
0, 0
0, 0
0, 0
0, 0
0, 0
0, 0
0, 0
0, 0
0, 0
0, 0
0, 0
0, 0
0, 0
0, 0
0, 0
0, 0
0, 0
0, 0
0, 0
0, 0
0, 0
0, 0
0, 0
0, 0
0, 2
0, 1
0, 0
1, 0
0, 1
0, 1
2, 0
0, 0
0, 0
0, 0
0, 0
0, 1
1, 1
4, 1
3, 3
7, 4
10, 8
17, 22
47, 44
49, 62
51, 48
55, 45
36, 30
25, 28
15, 15
4, 7
2, 4
2, 4
2, 3
5, 5
2, 3
3, 4
2, 4
6, 4
11, 16
32, 32
62, 77
159, 139
272, 277
388, 394
420, 467
453, 478
386, 442
273, 298
134, 160
111, 92
52, 53
24, 17
13, 13
4, 9
6, 5
7, 5
0, 3
3, 0
1, 1
4, 2
0, 2
0, 0
1, 1
3, 2
1, 2
0, 0
4, 2
1, 3
2, 2
2, 2
2, 1
2, 3
6, 1
4, 2
3, 2
3, 4
2, 6
3, 5
7, 6
6, 6
13, 13
18, 20
27, 22
20, 26
29, 27
21, 33
33, 19
17, 24
17, 19
28, 27
23, 15
17, 15
19, 17
9, 10
16, 14
12, 19
10, 11
11, 13
10, 4
9, 10
12, 6
7, 5
12, 3
10, 2
5, 1
5, 0
2, 3
3, 2
2, 2
5, 3
1, 1
0, 3
1, 1
1, 1
1, 0
1, 3
0, 2
1, 2
3, 2
1, 2
3, 2
2, 0
6, 11
9, 11
9, 15
17, 19
26, 27
27, 26
19, 16
23, 21
13, 11
6, 10
6, 6
4, 6
2, 4
6, 4
6, 2
2, 1
4, 2
6, 6
8, 5
4, 8
3, 9
4, 1
2, 6
8, 7
2, 6
3, 4
1, 7
4, 3
3, 4
3, 4
0, 2
2, 7
6, 10
3, 22
3, 37
4, 77
5, 110
6, 156
7, 170
10, 181
11, 203
18, 172
19, 124
14, 90
16, 69
23, 40
22, 20
15, 21
16, 19
13, 17
5, 10
6, 7
7, 3
4, 7
6, 9
10, 6
6, 6
5, 2
6, 9
6, 5
6, 8
11, 4
5, 9
6, 6
5, 5
3, 5
3, 8
6, 4
4, 10
8, 8
9, 7
8, 10
8, 8
9, 5
8, 13
11, 10
10, 7
7, 10
9, 13
12, 10
13, 6
7, 10
4, 9
6, 7
11, 8
6, 5
10, 3
12, 13
5, 4
8, 9
6, 12
11, 13
9, 14
25, 36
50, 41
52, 65
67, 75
90, 98
109, 115
108, 115
97, 105
81, 76
67, 50
44, 39
30, 39
28, 33
24, 27
22, 45
18, 48
27, 61
50, 94
95, 139
177, 282
340, 482
636, 863
1100, 1377
1698, 2065
2406, 2848
3216, 3658
3643, 3999
3907, 4024
3595, 3586
3116, 2982
2377, 2131
1714, 1485
1113, 902
664, 494
336, 271
225, 119
86, 56
40, 31
21, 21
21, 21
12, 14
13, 20
11, 23
22, 21
24, 26
25, 29
32, 47
62, 67
93, 107
150, 167
228, 248
301, 374
406, 480
450, 578
525, 599
571, 592
517, 539
460, 448
339, 283
238, 197
150, 134
83, 60
59, 41
23, 19
14, 9
9, 3
2, 4
7, 4
8, 5
4, 6
7, 4
9, 5
5, 9
9, 11
11, 9
4, 7
5, 4
7, 4
4, 5
2, 5
3, 3
3, 5
1, 4
9, 3
4, 11
1, 7
2, 20
5, 17
5, 22
5, 22
6, 16
2, 16
5, 12
2, 12
2, 7
1, 9
2, 6
8, 2
4, 6
6, 3
3, 4
2, 3
5, 2
5, 3
4, 3
6, 7
2, 4
1, 9
4, 0
3, 3
3, 3
3, 3
6, 3
7, 3
4, 1
2, 3
4, 5
2, 4
3, 6
0, 2
1, 2
4, 6
1, 8
1, 3
3, 3
5, 3
2, 4
3, 2
3, 5
1, 1
4, 3
2, 5
1, 1
0, 3
4, 1
3, 4
2, 3
4, 2
2, 2
3, 1
3, 4
3, 1
3, 1
3, 0
3, 5
4, 3
0, 2
5, 1
2, 2
5, 2
2, 3
1, 4
5, 3
3, 6
2, 3
2, 6
1, 7
2, 9
2, 11
2, 15
5, 10
1, 11
4, 11
2, 3
6, 10
3, 5
5, 6
0, 3
1, 4
2, 6
3, 1
3, 2
5, 3
2, 1
3, 3
2, 1
4, 1
1, 3
2, 1
6, 2
1, 1
1, 1
1, 2
2, 5
0, 2
1, 4
4, 0
5, 1
3, 4
2, 4
0, 1
2, 1
3, 3
4, 4
2, 1
5, 4
1, 2
0, 2
3, 5
1, 1
1, 1
2, 1
3, 3
3, 2
4, 5
1, 2
3, 3
2, 6
2, 3
5, 7
3, 4
2, 4
2, 1
5, 4
5, 2
5, 2
6, 5
6, 0
5, 1
9, 3
2, 2
7, 2
2, 0
2, 1
2, 0
2, 4
2, 2
4, 1
0, 3
1, 4
0, 1
4, 3
3, 3
2, 2
6, 0
3, 0
2, 1
2, 2
4, 1
2, 4
0, 1
1, 2
1, 0
2, 2
2, 3
1, 2
1, 1
0, 0
1, 3
2, 1
0, 1
0, 0
3, 1
4, 3
2, 0
1, 1
1, 0
1, 2
0, 0
3, 0
0, 0
3, 1
2, 1
0, 3
1, 2
0, 0
1, 1
2, 2
2, 1
1, 5
0, 2
3, 4
1, 1
3, 2
4, 4
1, 6
0, 5
3, 8
2, 9
1, 5
0, 2
3, 5
1, 4
1, 5
2, 5
1, 2
1, 4
1, 4
0, 2
1, 0
5, 3
2, 3
4, 8
8, 5
2, 5
9, 10
6, 7
6, 10
8, 4
5, 7
5, 6
7, 5
5, 3
4, 3
1, 2
0, 0
2, 0
1, 1
1, 0
2, 0
4, 1
2, 2
0, 1
3, 1
1, 3
1, 3
2, 2
0, 5
1, 3
1, 3
0, 2
1, 3
0, 3
3, 4
4, 1
2, 6
2, 2
4, 2
0, 4
3, 0
1, 1
2, 3
0, 0
3, 0
0, 0
0, 2
0, 2
2, 2
0, 0
0, 0
0, 1
1, 0
3, 0
2, 1
2, 1
1, 2
2, 0
2, 0
1, 1
1, 0
0, 0
1, 1
0, 1
0, 3
1, 0
1, 1
1, 1
1, 0
0, 0
0, 1
1, 0
0, 0
2, 2
2, 0
1, 0
2, 1
2, 2
2, 1
0, 0
0, 0
1, 0
2, 0
0, 0
0, 1
0, 0
0, 2
1, 0
0, 1
2, 1
1, 0
0, 0
1, 2
1, 0
0, 1
0, 1
0, 0
0, 0
0, 0
0, 0
1, 0
0, 1
0, 0
0, 2
0, 1
0, 2
0, 1
0, 2
0, 0
2, 0
0, 1
0, 0
0, 0
0, 1
0, 1
0, 2
0, 0
0, 1
2, 0
0, 1
0, 0
1, 2
0, 0
0, 0
0, 0
0, 1
0, 0
1, 1
0, 0
2, 1
0, 1
1, 2
0, 0
0, 1
1, 0
0, 1
0, 1
2, 0
1, 1
1, 0
1, 1
1, 1
0, 0
0, 0
0, 1
0, 1
1, 0
0, 1
1, 0
0, 0
0, 0
0, 0
0, 0
1, 0
0, 0
0, 2
2, 0
0, 0
0, 0
0, 0
0, 1
0, 2
0, 0
0, 0
2, 1
1, 0
0, 0
0, 0
0, 0
0, 0
0, 1
0, 0
0, 0
0, 1
0, 0
0, 1
0, 1
2, 0
0, 0
0, 0
1, 0
1, 0
1, 0
0, 0
0, 0
0, 0
0, 0
0, 0
0, 0
0, 0
1, 0
0, 0
0, 0
0, 1
0, 0
0, 0
0, 1
2, 0
0, 0
0, 0
0, 0
0, 0
0, 0
0, 0
1, 0
0, 0
1, 0
0, 0
0, 0
0, 0
1, 0
1, 0
0, 0
0, 0
0, 0
0, 0
0, 2
0, 0
0, 0
0, 0
0, 0
0, 0
0, 1
0, 0
0, 0
0, 2
0, 1
0, 0
1, 0
0, 0
1, 0
0, 0
0, 0
0, 0
0, 0
1, 2
0, 0
0, 0
0, 0
1, 0
0, 0
0, 0
0, 2
1, 0
0, 0
0, 0
0, 0
0, 1
0, 1
0, 0
0, 1
0, 0
0, 0
0, 0
1, 0
0, 0
0, 0
0, 0
0, 0
0, 1
1, 0
0, 0
0, 0
0, 1
0, 1
1, 0
0, 0
0, 0
0, 0
0, 0
0, 0
0, 0
0, 0
0, 0
0, 0
0, 0
1, 0
0, 1
0, 0
0, 0
0, 0
0, 1
0, 0
0, 0
1, 1
0, 0
0, 0
1, 1
0, 0
0, 0
1, 1
0, 0
0, 1
0, 0
0, 0
0, 0
1, 0
0, 0
0, 0
0, 0
0, 0
0, 0
0, 0
0, 0
0, 1
0, 0
0, 0
0, 0
0, 0
0, 0
0, 0
0, 1
0, 0
0, 0
0, 0
0, 0
0, 0
0, 0
0, 0
0, 0
0, 0
0, 0
0, 0
0, 0
0, 0
0, 0
0, 1
0, 0
0, 0
0, 0
0, 0
0, 0
0, 0
0, 0
0, 0
0, 0
0, 0
0, 0
0, 0
0, 0
0, 0
0, 0
0, 0
0, 0
0, 0
0, 0
0, 0
0, 0
0, 0
0, 0
0, 0
0, 0
0, 0
0, 0
0, 0
0, 0
0, 0
0, 0
0, 0
0, 0
0, 0
0, 0
0, 0
0, 1
0, 0
1, 0
0, 0
0, 0
0, 0
0, 0
0, 0
0, 1
0, 0
1, 0
0, 0
0, 0
0, 0
0, 0
0, 0
0, 0
0, 0
0, 0
0, 0
0, 0
0, 0
0, 0
1, 0
0, 1
0, 0
0, 0
0, 0
0, 0
0, 0
0, 0
0, 0
0, 0
0, 0
0, 0
0, 0
0, 0
0, 0
0, 0
0, 0
0, 0
0, 0
0, 0
0, 0
0, 0
0, 0
0, 0
0, 0
1, 0
0, 0
0, 0
0, 0
0, 0
0, 0
0, 0
0, 0
0, 0
0, 0
1, 0
0, 0
0, 0
1, 0
0, 0
0, 0
0, 0
0, 0
0, 0
0, 0
0, 0
0, 0
0, 0
0, 0
0, 0
0, 0
0, 0
0, 0
0, 0
0, 0
0, 0
0, 0
0, 0
0, 0
0, 0
0, 0
0, 0
0, 0
0, 0
0, 0
0, 0
0, 0
0, 0
0, 0
0, 0
0, 0
0, 0
0, 0
0, 0
0, 0
0, 0
0, 0
0, 0
0, 0
0, 0
0, 0
0, 0
0, 0
0, 0
0, 0
0, 0
0, 0
0, 0
0, 0
0, 1
0, 0
0, 0
0, 0
0, 0
0, 0
0, 0
0, 0
1, 0
0, 0
0, 0
0, 0
0, 0
0, 0
0, 0
0, 0
0, 0
0, 0
0, 0
0, 0
0, 0
0, 0
0, 0
0, 0
0, 0
0, 0
0, 0
0, 0
0, 0
0, 0
0, 0
0, 0
0, 0
0, 0
0, 0
0, 0
0, 0
0, 0
0, 0
0, 0
0, 0
0, 0
0, 0
0, 0
0, 0
0, 0
0, 0
0, 0
0, 0
0, 0
0, 0
0, 0
0, 0
0, 0
0, 0
0, 0
0, 0
0, 0
0, 0
0, 0
0, 0
0, 0
0, 0
0, 0
0, 0
0, 0
0, 0
0, 0
0, 0
0, 0
0, 0
0, 0
0, 0
0, 0
0, 0
0, 0
0, 0
0, 0
0, 0
0, 0
0, 0
0, 0
0, 0
0, 0
0, 0
0, 0
0, 0
0, 0
0, 0
0, 0
0, 0
0, 0
0, 0
0, 0
0, 0
0, 0
0, 0
0, 0
0, 0
0, 0
0, 0
0, 0
0, 0
0, 0
0, 0
0, 0
0, 0
0, 0
0, 0
0, 0
0, 0
0, 0
0, 0
0, 0
0, 0
0, 0
0, 0
0, 0
0, 0
0, 0
0, 0
0, 0
0, 0
0, 0
0, 0
0, 0
0, 0
0, 0
0, 0
0, 0
0, 0
0, 0
0, 0
0, 0
0, 0
0, 0
0, 0
0, 0
0, 0
0, 0
0, 0
0, 0
0, 0
0, 0
0, 0
0, 0
0, 0
0, 0
0, 0
0, 0
0, 0
0, 0
0, 0
0, 0
0, 0
0, 0
0, 0
0, 0
0, 0
0, 0
0, 0
0, 0
0, 0
0, 0
0, 0
0, 0
0, 0
0, 0
0, 0
0, 0
0, 0
0, 0
0, 0
0, 0
0, 0
0, 0
0, 0
0, 0
0, 0
0, 0
0, 0
0, 0
0, 0
0, 0
0, 0
0, 0
0, 0
0, 0
0, 0
0, 0
0, 0
0, 0
0, 0
0, 0
0, 0
0, 0
0, 0
0, 0
0, 0
0, 0
0, 0
0, 0
0, 0
0, 0
0, 0
0, 0
0, 0
0, 0
0, 0
0, 0
0, 0
0, 0
0, 0
0, 0
0, 0
0, 0
0, 0
0, 0
0, 0
0, 0
0, 0
0, 0
0, 0
0, 0
0, 0
0, 0
0, 0
0, 0
0, 0
0, 0
0, 0
0, 0
0, 0
0, 0
0, 0
0, 0
0, 0
0, 0
0, 0
0, 0
0, 0
0, 0
0, 0
0, 0
0, 0
0, 0
0, 0
0, 0
0, 0
0, 0
0, 0
0, 0
0, 0
0, 0
0, 0
0, 0
0, 0
0, 0
0, 0
0, 0
0, 0
0, 0
0, 0
0, 0
0, 0
0, 0
0, 0
0, 0
0, 0
0, 0
0, 0
0, 0
0, 0
0, 0
0, 0
0, 0
0, 0
0, 0
0, 0
0, 0
0, 0
0, 0
0, 0
0, 0
0, 0
0, 0
0, 0
0, 0
0, 0
0, 0
0, 0
0, 0
0, 0
0, 0
0, 0
0, 0
0, 0
0, 0
0, 0
0, 0
0, 0
0, 0
0, 0
0, 0
0, 0
0, 0
0, 0
0, 0
0, 0
0, 0
0, 0
0, 0
0, 0
0, 0
0, 0
0, 0
0, 0
0, 0
0, 0
0, 0
0, 0
0, 0
0, 0
0, 0
0, 0
0, 0
0, 0
0, 0
0, 0
0, 0
0, 0
0, 0
0, 0
0, 0
0, 0
0, 0
0, 0
0, 0
0, 0
0, 0
0, 0
0, 0
0, 0
0, 0
0, 0
0, 0
0, 0
0, 0
0, 0
0, 0
0, 0
0, 0
0, 0
0, 0
0, 0
0, 0
0, 0
#ENDOFDATA     end of spectrum data