File: host_upload/12-01-2023/Dourbes (shot-by-shot)/upload_4/ps__0257_0689790785_000rfs_shot_3316.msa
#FORMAT      : EMSA/MAS spectral data file
#VERSION     : TC202v2.0 PIXL
#TITLE       : N/A
#DATE        :       Date in the format DD-MMM-YYYY, for example 07-JUL-2010
#TIME        :             The time of day at which the spectrum was recorded, in 24-hour format
#OWNER       : PIXL Flight Model       (PIXL will use this to indicate which instrument took the data.)
#NPOINTS     : 4096     Number of data points in the spectrum (This can be zero for configuration only files)
#NCOLUMNS    : 2     Number of data columns in the spectrum (This can be zero for configuration only files)
#XUNITS      : eV
#YUNITS      : COUNTS
#DATATYPE    : YY
#XPERCHAN    : 7.862, 7.881   eV per channel (separate by commas if more than one detector)
#OFFSET      : 18.5, -22.4         eV of first channel  (separate by commas if more than one detector
#SIGNALTYPE  : XRF
#YP_TEMP     : 3.165
#LIVETIME    : 9.13991, 9.13769   seconds (separate by commas if more than one detector)
#REALTIME    : 10, 10.0   seconds (separate by commas if more than one detector)
#SPECTRUM    : start of spectrum data
0, 0
0, 0
0, 0
0, 0
0, 0
0, 0
0, 0
0, 0
0, 0
0, 0
0, 0
0, 0
0, 0
0, 0
0, 0
0, 0
0, 0
0, 0
0, 0
0, 0
0, 0
0, 0
0, 0
0, 0
0, 0
0, 0
0, 0
0, 0
0, 0
0, 0
0, 0
0, 0
0, 0
0, 0
0, 0
0, 0
0, 0
1, 0
1, 0
0, 2
2, 2
1, 1
1, 1
1, 0
1, 2
2, 2
2, 2
3, 3
4, 2
6, 5
12, 4
18, 22
33, 36
42, 48
45, 51
39, 52
34, 25
22, 18
13, 14
8, 6
6, 7
5, 8
12, 9
10, 14
16, 8
9, 8
8, 9
13, 19
26, 25
66, 50
136, 127
283, 278
517, 515
733, 784
913, 903
844, 939
731, 738
548, 552
338, 315
195, 177
102, 103
47, 49
35, 35
20, 16
14, 15
16, 12
11, 9
6, 2
3, 4
2, 2
2, 0
1, 0
1, 1
1, 1
4, 1
5, 7
5, 7
11, 8
6, 11
8, 7
8, 9
5, 5
5, 2
2, 3
4, 1
5, 3
4, 2
3, 5
6, 6
8, 9
17, 12
27, 15
23, 33
27, 32
35, 40
21, 35
29, 30
22, 28
24, 18
12, 23
25, 13
16, 20
13, 13
10, 6
14, 8
11, 9
4, 14
11, 6
7, 7
10, 4
9, 9
6, 6
9, 6
2, 8
3, 2
6, 4
3, 4
2, 1
1, 6
4, 7
6, 3
3, 3
4, 3
1, 5
5, 6
6, 3
5, 8
3, 4
10, 10
22, 20
50, 46
101, 120
203, 227
376, 443
605, 733
936, 991
1140, 1214
1168, 1292
1138, 1175
950, 896
668, 648
430, 424
218, 205
136, 101
71, 51
51, 33
52, 54
75, 96
119, 134
159, 177
157, 181
169, 168
172, 172
131, 135
84, 87
54, 63
27, 26
11, 15
8, 5
4, 3
3, 3
2, 4
2, 2
4, 1
3, 1
5, 5
6, 3
10, 14
9, 20
20, 15
38, 21
21, 26
37, 37
25, 27
31, 28
24, 14
9, 13
11, 12
12, 16
2, 7
8, 7
6, 7
4, 5
4, 6
6, 1
8, 5
4, 5
6, 6
13, 6
14, 10
4, 18
12, 1
6, 7
8, 13
5, 8
6, 6
2, 4
0, 7
4, 6
4, 2
3, 5
5, 7
6, 7
4, 5
8, 20
12, 17
21, 28
30, 47
24, 40
47, 58
48, 40
40, 53
43, 37
32, 20
19, 21
13, 12
12, 4
6, 11
5, 6
9, 7
11, 10
6, 11
4, 9
8, 6
6, 10
9, 12
19, 23
34, 24
30, 39
40, 47
44, 52
59, 51
54, 42
37, 21
37, 31
27, 18
12, 14
9, 6
14, 16
8, 14
15, 12
9, 10
22, 28
30, 40
58, 92
106, 159
234, 289
344, 417
529, 592
829, 936
928, 1112
1204, 1316
1278, 1238
1143, 1133
962, 873
810, 770
543, 452
383, 282
231, 138
140, 85
74, 48
41, 21
32, 17
16, 16
9, 9
12, 8
14, 11
14, 9
9, 9
5, 9
16, 10
11, 19
19, 20
33, 34
49, 62
78, 74
92, 127
131, 174
161, 176
185, 186
188, 214
162, 158
110, 139
116, 89
83, 60
44, 46
44, 30
15, 18
16, 13
26, 12
25, 2
20, 6
24, 5
37, 8
53, 9
55, 4
47, 5
49, 6
42, 6
23, 2
25, 8
14, 4
11, 4
10, 2
8, 5
7, 7
5, 6
6, 5
4, 3
4, 2
3, 4
4, 5
5, 4
4, 3
7, 7
3, 3
7, 2
5, 7
8, 7
6, 4
7, 3
9, 3
11, 5
11, 4
5, 5
3, 4
3, 5
5, 5
3, 2
5, 5
5, 4
10, 4
6, 9
5, 12
5, 8
10, 10
4, 13
4, 12
9, 15
3, 9
4, 9
4, 13
9, 16
8, 16
3, 3
5, 12
4, 6
5, 6
3, 10
7, 4
2, 3
3, 5
5, 4
5, 6
3, 7
4, 1
4, 1
5, 5
4, 5
8, 4
1, 5
3, 2
2, 2
9, 9
7, 6
4, 7
3, 5
4, 7
2, 4
5, 6
5, 9
1, 6
4, 10
3, 9
0, 5
4, 10
5, 5
3, 13
4, 12
3, 15
4, 8
3, 7
2, 5
3, 3
7, 8
6, 3
1, 9
4, 6
3, 7
7, 7
4, 8
2, 7
1, 8
4, 17
2, 13
5, 16
4, 6
2, 11
2, 6
2, 10
6, 5
6, 5
3, 2
9, 3
8, 4
6, 6
18, 4
13, 2
8, 3
4, 7
5, 9
6, 2
9, 5
4, 6
4, 3
1, 6
5, 0
9, 3
1, 0
2, 3
2, 2
3, 2
0, 3
3, 2
6, 3
3, 1
7, 4
2, 5
5, 4
2, 3
5, 6
5, 2
4, 3
5, 4
4, 3
6, 3
5, 2
1, 3
3, 3
4, 2
0, 0
4, 4
5, 0
3, 2
7, 2
3, 3
6, 0
4, 2
3, 1
4, 1
5, 5
8, 1
3, 2
1, 2
5, 2
0, 2
2, 2
3, 2
2, 2
4, 2
3, 2
3, 3
4, 1
5, 2
1, 4
3, 1
3, 7
2, 8
3, 8
2, 7
1, 3
1, 3
2, 2
3, 1
1, 3
1, 5
4, 3
1, 2
3, 3
0, 3
0, 3
3, 1
3, 1
3, 1
2, 1
5, 0
3, 2
6, 2
6, 1
8, 4
5, 0
8, 4
7, 1
5, 2
9, 2
7, 1
5, 2
3, 4
3, 2
3, 3
0, 1
2, 2
4, 2
1, 3
6, 2
1, 0
2, 1
1, 4
1, 2
3, 2
0, 2
3, 3
1, 2
1, 2
2, 3
1, 1
1, 2
3, 2
2, 1
1, 1
2, 1
2, 2
0, 2
3, 3
4, 1
4, 1
1, 3
0, 2
1, 3
1, 1
4, 1
4, 2
2, 0
1, 1
2, 2
5, 2
1, 1
1, 2
2, 1
2, 1
0, 1
0, 1
2, 0
1, 3
1, 4
1, 2
0, 1
3, 1
3, 3
1, 1
1, 1
1, 2
2, 0
3, 3
2, 3
1, 1
2, 0
3, 1
2, 3
1, 2
1, 2
1, 3
2, 2
2, 4
0, 2
0, 1
0, 0
0, 2
0, 0
2, 3
1, 0
1, 1
2, 2
2, 1
2, 2
1, 3
2, 0
0, 1
2, 2
2, 3
1, 2
0, 0
2, 0
0, 3
2, 1
0, 1
1, 0
0, 1
2, 1
1, 1
1, 1
0, 0
0, 0
1, 0
1, 1
1, 0
2, 0
0, 1
1, 0
1, 1
2, 1
1, 0
2, 2
2, 2
1, 1
0, 1
1, 2
1, 1
0, 0
1, 1
1, 3
2, 1
5, 3
1, 1
2, 1
1, 0
1, 1
0, 2
1, 0
1, 1
0, 2
0, 0
1, 3
0, 0
2, 0
0, 0
1, 1
0, 0
1, 0
0, 2
0, 2
0, 1
0, 0
0, 0
0, 1
0, 1
0, 0
2, 1
1, 1
0, 0
1, 0
1, 2
0, 1
2, 0
2, 0
1, 0
0, 0
0, 2
1, 1
1, 0
1, 0
0, 1
1, 2
0, 1
0, 0
0, 1
0, 2
0, 0
0, 0
0, 1
1, 0
1, 1
0, 1
1, 0
1, 0
1, 0
0, 1
0, 0
0, 1
1, 0
1, 0
0, 0
0, 1
0, 1
0, 0
1, 0
0, 1
0, 1
0, 1
0, 0
1, 0
0, 0
0, 0
0, 0
0, 0
1, 1
2, 0
0, 0
0, 0
0, 0
0, 1
0, 0
1, 0
0, 0
0, 0
0, 1
1, 0
0, 0
0, 0
0, 1
0, 0
1, 0
0, 0
0, 0
1, 0
0, 1
1, 1
1, 0
0, 0
1, 0
1, 0
0, 0
1, 1
0, 0
0, 1
1, 0
0, 1
0, 2
2, 0
0, 0
0, 0
1, 0
0, 2
0, 1
0, 0
0, 0
0, 0
0, 1
0, 0
0, 0
0, 0
2, 0
1, 0
2, 0
1, 1
2, 1
1, 0
1, 0
0, 0
0, 1
0, 0
0, 0
0, 0
0, 0
0, 0
0, 0
0, 3
0, 1
0, 4
0, 0
0, 0
0, 0
0, 0
0, 1
0, 0
1, 0
1, 0
0, 0
1, 0
0, 0
0, 0
1, 0
1, 0
0, 0
0, 0
0, 1
0, 1
1, 1
0, 1
0, 2
1, 0
0, 0
0, 0
0, 0
0, 0
0, 0
0, 1
1, 0
0, 1
0, 0
0, 0
0, 1
0, 0
0, 0
0, 0
0, 0
0, 1
0, 0
0, 0
0, 0
0, 0
0, 1
0, 0
0, 0
1, 0
0, 0
1, 1
0, 0
0, 0
0, 0
0, 0
0, 0
0, 0
0, 0
0, 1
0, 0
0, 0
0, 0
0, 0
0, 0
0, 0
0, 0
0, 0
0, 0
0, 0
1, 0
0, 0
0, 0
0, 0
0, 0
0, 0
0, 0
0, 0
0, 0
0, 0
0, 0
0, 1
1, 0
0, 0
0, 0
0, 0
1, 0
0, 0
0, 0
0, 0
1, 0
0, 0
0, 0
0, 0
0, 1
0, 0
1, 0
0, 0
0, 0
0, 0
0, 0
0, 0
1, 0
0, 0
1, 0
1, 0
0, 0
1, 0
1, 0
0, 0
0, 0
0, 0
0, 0
0, 0
0, 0
1, 0
0, 0
0, 0
0, 0
1, 0
0, 0
0, 0
0, 0
0, 0
0, 0
0, 0
0, 0
1, 0
0, 0
0, 0
0, 1
0, 0
0, 0
0, 0
0, 0
1, 0
0, 0
0, 0
0, 0
0, 0
0, 0
0, 0
0, 0
0, 0
0, 1
0, 0
0, 0
0, 0
0, 0
0, 0
0, 0
0, 0
0, 0
0, 0
0, 0
0, 0
0, 1
0, 0
0, 0
0, 0
0, 0
0, 0
0, 0
0, 0
0, 0
0, 0
0, 0
0, 0
0, 0
0, 0
0, 0
0, 0
0, 0
0, 0
0, 0
0, 0
0, 0
0, 0
0, 0
0, 0
0, 0
0, 0
0, 0
0, 0
0, 0
0, 0
0, 0
0, 0
0, 0
0, 0
0, 0
0, 0
0, 0
0, 0
0, 0
0, 0
0, 0
0, 0
0, 0
0, 0
0, 0
0, 0
0, 0
0, 0
0, 0
0, 0
0, 0
0, 0
0, 0
0, 0
0, 0
0, 0
0, 0
0, 0
0, 0
0, 0
0, 1
0, 0
0, 0
0, 0
0, 0
0, 0
0, 0
0, 0
0, 0
0, 0
0, 0
0, 0
0, 0
0, 0
0, 0
0, 0
0, 1
0, 0
0, 0
0, 0
0, 0
0, 0
0, 0
0, 1
0, 0
0, 0
0, 0
0, 0
0, 0
0, 0
0, 0
0, 0
0, 0
0, 0
0, 0
0, 0
0, 0
0, 0
0, 0
0, 0
0, 0
0, 0
0, 0
0, 0
0, 0
0, 0
0, 0
0, 0
0, 0
0, 0
0, 0
0, 0
0, 0
0, 0
0, 0
0, 0
0, 0
0, 0
0, 0
0, 0
0, 0
0, 0
0, 0
0, 0
0, 0
0, 0
0, 0
0, 0
0, 0
0, 0
0, 0
0, 0
0, 0
0, 0
0, 0
0, 0
0, 0
0, 0
0, 0
0, 0
0, 0
0, 0
0, 0
0, 0
0, 0
0, 0
0, 0
0, 0
0, 0
0, 0
0, 0
0, 0
0, 0
0, 0
0, 0
0, 0
0, 0
0, 0
0, 0
0, 0
0, 0
0, 0
0, 0
0, 0
0, 0
0, 0
0, 0
0, 0
0, 0
0, 0
0, 0
0, 0
0, 0
0, 0
0, 0
0, 0
0, 0
0, 0
0, 0
0, 0
0, 0
0, 0
0, 0
0, 0
0, 0
0, 0
0, 0
0, 0
0, 0
0, 0
0, 0
0, 0
0, 0
0, 0
0, 0
0, 0
0, 0
0, 0
0, 0
0, 0
0, 0
0, 0
0, 0
0, 0
0, 0
0, 0
0, 0
0, 0
0, 0
0, 0
0, 0
0, 0
0, 0
0, 0
0, 0
0, 0
0, 0
0, 0
0, 0
0, 0
0, 0
0, 0
0, 0
0, 0
0, 0
0, 0
0, 0
0, 0
0, 0
0, 0
0, 0
0, 0
0, 0
0, 0
0, 0
0, 0
0, 0
0, 0
0, 0
0, 0
0, 0
0, 0
0, 0
0, 0
0, 0
0, 0
0, 0
0, 0
0, 0
0, 0
0, 0
0, 0
0, 0
0, 0
0, 0
0, 0
0, 0
0, 0
0, 0
0, 0
0, 0
0, 0
0, 0
0, 0
0, 0
0, 0
0, 0
0, 0
0, 0
0, 0
0, 0
0, 0
0, 0
0, 0
0, 0
0, 0
0, 0
0, 0
0, 0
0, 0
0, 0
0, 0
0, 0
0, 0
0, 0
0, 0
0, 0
0, 0
0, 0
0, 0
0, 0
0, 0
0, 0
0, 0
0, 0
0, 0
0, 0
0, 0
0, 0
0, 0
0, 0
0, 0
0, 0
0, 0
0, 0
0, 0
0, 0
0, 0
0, 0
0, 0
0, 0
0, 0
0, 0
0, 0
0, 0
0, 0
0, 0
0, 0
0, 0
0, 0
0, 0
0, 0
0, 0
0, 0
0, 0
0, 0
0, 0
0, 0
0, 0
0, 0
0, 0
0, 0
0, 0
0, 0
0, 0
0, 0
0, 0
0, 0
0, 0
0, 0
0, 0
0, 0
0, 0
0, 0
0, 0
0, 0
0, 0
0, 0
0, 0
0, 0
0, 0
0, 0
0, 0
0, 0
0, 0
0, 0
0, 0
0, 0
0, 0
0, 0
0, 0
0, 0
0, 0
0, 0
0, 0
0, 0
0, 0
0, 0
0, 0
0, 0
0, 0
0, 0
0, 0
0, 0
0, 0
0, 0
0, 0
0, 0
0, 0
0, 0
0, 0
0, 0
0, 0
0, 0
0, 0
0, 0
0, 0
0, 0
0, 0
0, 0
0, 0
0, 0
0, 0
0, 0
0, 0
0, 0
0, 0
0, 0
0, 0
0, 0
0, 0
0, 0
0, 0
0, 0
0, 0
0, 0
0, 0
0, 0
0, 0
0, 0
0, 0
0, 0
0, 0
0, 0
0, 0
0, 0
0, 0
0, 0
0, 0
0, 0
0, 0
0, 0
0, 0
0, 0
0, 0
0, 0
0, 0
0, 0
0, 0
0, 0
0, 0
0, 0
0, 0
0, 0
0, 0
0, 0
0, 0
0, 0
0, 0
0, 0
0, 0
0, 0
0, 0
0, 0
0, 0
#ENDOFDATA     end of spectrum data