File: host_upload/12-01-2023/Dourbes (shot-by-shot)/upload_4/ps__0257_0689790785_000rfs_shot_3043.msa
#FORMAT      : EMSA/MAS spectral data file
#VERSION     : TC202v2.0 PIXL
#TITLE       : N/A
#DATE        :       Date in the format DD-MMM-YYYY, for example 07-JUL-2010
#TIME        :             The time of day at which the spectrum was recorded, in 24-hour format
#OWNER       : PIXL Flight Model       (PIXL will use this to indicate which instrument took the data.)
#NPOINTS     : 4096     Number of data points in the spectrum (This can be zero for configuration only files)
#NCOLUMNS    : 2     Number of data columns in the spectrum (This can be zero for configuration only files)
#XUNITS      : eV
#YUNITS      : COUNTS
#DATATYPE    : YY
#XPERCHAN    : 7.862, 7.881   eV per channel (separate by commas if more than one detector)
#OFFSET      : 18.5, -22.4         eV of first channel  (separate by commas if more than one detector
#SIGNALTYPE  : XRF
#YP_TEMP     : 3.454
#LIVETIME    : 9.001, 9.00839   seconds (separate by commas if more than one detector)
#REALTIME    : 10, 10.0   seconds (separate by commas if more than one detector)
#SPECTRUM    : start of spectrum data
0, 0
0, 0
0, 0
0, 0
0, 0
0, 0
0, 0
0, 0
0, 0
0, 0
0, 0
0, 0
0, 0
0, 0
0, 0
0, 0
0, 0
0, 0
0, 0
0, 0
0, 0
0, 0
0, 0
0, 0
0, 0
0, 0
0, 0
0, 0
0, 0
0, 0
0, 0
0, 0
1, 0
0, 0
0, 0
1, 1
0, 0
0, 1
1, 1
0, 0
0, 0
0, 3
0, 1
0, 0
0, 0
1, 1
2, 2
0, 2
3, 1
6, 7
13, 16
39, 25
39, 37
55, 46
56, 52
53, 53
33, 46
32, 23
11, 17
11, 6
8, 4
6, 2
2, 4
3, 2
1, 6
3, 4
4, 2
7, 5
16, 14
43, 22
77, 63
152, 141
278, 234
398, 374
465, 423
517, 443
423, 365
300, 288
205, 148
112, 89
62, 48
39, 23
11, 6
5, 4
8, 3
3, 1
4, 4
3, 0
4, 2
5, 5
6, 2
9, 2
24, 1
42, 5
68, 3
77, 2
88, 2
66, 2
46, 8
30, 7
23, 5
11, 7
7, 0
4, 2
4, 2
4, 1
1, 5
5, 2
7, 3
2, 4
11, 8
16, 14
19, 9
11, 15
25, 18
20, 27
26, 21
22, 17
28, 14
36, 17
22, 16
19, 16
22, 12
14, 19
7, 17
11, 5
9, 10
10, 4
6, 4
6, 2
2, 5
2, 3
7, 3
0, 2
2, 2
2, 3
1, 2
5, 3
1, 2
2, 2
4, 4
4, 1
1, 2
1, 3
5, 0
0, 3
0, 2
2, 2
2, 1
3, 2
1, 1
3, 1
3, 3
13, 11
12, 22
17, 37
23, 38
21, 54
22, 52
22, 66
13, 55
5, 43
3, 25
3, 19
2, 12
2, 3
2, 9
2, 7
4, 3
9, 3
4, 1
6, 4
4, 12
5, 4
4, 3
4, 5
4, 5
1, 5
4, 6
3, 0
4, 6
2, 4
4, 4
4, 2
5, 3
2, 2
1, 3
7, 5
4, 1
5, 8
13, 13
13, 10
13, 12
17, 13
7, 10
16, 23
20, 9
19, 22
16, 15
27, 19
14, 17
9, 17
8, 8
4, 7
4, 11
3, 4
2, 4
2, 8
8, 7
8, 3
10, 5
7, 4
6, 7
11, 7
7, 10
10, 5
2, 2
8, 5
3, 6
4, 2
5, 5
7, 0
6, 3
7, 11
11, 13
7, 20
13, 18
4, 34
6, 63
13, 86
6, 120
8, 129
13, 143
7, 138
16, 149
13, 144
10, 104
7, 76
6, 52
8, 25
9, 15
8, 14
10, 8
7, 9
17, 13
35, 28
32, 39
40, 61
78, 68
82, 80
98, 110
91, 93
109, 78
91, 80
54, 54
42, 50
36, 30
36, 15
20, 15
29, 14
21, 19
40, 28
41, 49
84, 100
159, 225
365, 390
649, 776
1089, 1257
1679, 1903
2500, 2729
3221, 3320
3839, 3801
3970, 3793
3825, 3472
3306, 2817
2572, 2161
1781, 1509
1180, 831
688, 454
358, 265
184, 119
90, 71
57, 23
34, 15
31, 12
25, 20
32, 12
32, 19
23, 20
26, 28
48, 31
32, 39
56, 54
90, 104
155, 159
224, 249
308, 320
395, 411
530, 495
552, 511
616, 542
565, 455
455, 419
316, 272
207, 189
167, 118
95, 73
49, 33
26, 22
13, 16
4, 11
3, 3
7, 5
6, 8
3, 4
5, 6
6, 9
12, 13
7, 4
10, 11
5, 8
4, 7
9, 7
2, 5
3, 5
3, 2
5, 1
1, 5
1, 4
0, 5
1, 1
2, 4
3, 7
1, 3
3, 4
2, 4
1, 3
2, 2
3, 2
1, 4
2, 4
2, 0
2, 2
3, 0
6, 3
2, 2
5, 2
4, 4
1, 2
5, 5
3, 2
1, 3
2, 1
3, 1
3, 2
1, 2
5, 3
4, 2
2, 5
2, 4
1, 2
1, 2
0, 4
3, 1
5, 0
3, 1
2, 2
3, 6
4, 5
7, 5
5, 10
3, 8
3, 8
2, 11
1, 15
4, 12
2, 13
3, 12
3, 17
8, 11
6, 5
4, 4
1, 1
8, 2
7, 3
4, 2
7, 1
7, 4
4, 5
8, 3
1, 3
4, 2
2, 4
5, 5
3, 6
3, 5
2, 6
2, 2
3, 2
3, 3
1, 3
2, 4
2, 4
3, 3
2, 5
2, 6
1, 4
1, 9
1, 6
0, 2
3, 4
3, 6
2, 3
1, 2
3, 1
3, 4
1, 0
4, 4
1, 3
0, 1
1, 2
2, 1
2, 2
1, 3
0, 0
4, 4
3, 4
5, 5
3, 1
3, 5
1, 2
2, 2
1, 4
1, 7
3, 2
1, 2
1, 2
1, 3
1, 2
1, 2
1, 7
2, 3
0, 2
2, 6
0, 4
1, 5
0, 4
1, 2
3, 2
5, 3
1, 1
0, 1
3, 4
0, 3
1, 3
2, 4
1, 5
2, 6
3, 5
3, 9
6, 4
2, 7
4, 8
2, 17
3, 6
1, 11
0, 12
2, 10
2, 4
6, 4
2, 3
4, 3
2, 3
0, 3
2, 2
3, 2
4, 1
1, 2
5, 0
3, 1
2, 0
3, 1
2, 3
3, 0
2, 2
0, 0
1, 1
0, 1
2, 3
2, 0
0, 2
0, 1
0, 2
2, 3
1, 1
0, 1
4, 0
1, 1
1, 2
0, 2
3, 2
0, 0
2, 4
2, 3
0, 0
2, 1
2, 0
2, 1
1, 2
2, 0
0, 3
0, 1
0, 1
1, 3
1, 3
2, 1
1, 3
3, 1
2, 3
2, 2
2, 4
1, 2
3, 3
3, 3
0, 1
1, 1
2, 1
1, 0
1, 2
4, 0
2, 1
1, 1
0, 1
2, 1
3, 1
0, 3
3, 2
2, 3
4, 4
7, 6
8, 3
6, 7
8, 6
5, 8
9, 8
7, 6
6, 6
3, 4
2, 0
2, 1
0, 1
0, 0
1, 4
1, 0
1, 0
1, 3
1, 4
1, 0
4, 1
2, 1
0, 0
0, 0
1, 2
0, 0
3, 3
1, 2
0, 4
2, 1
1, 3
6, 2
1, 4
3, 2
0, 0
3, 2
1, 0
0, 2
3, 2
2, 1
0, 0
0, 0
1, 1
1, 2
1, 0
2, 0
2, 0
0, 0
0, 0
0, 1
0, 1
0, 2
1, 0
0, 1
0, 1
2, 1
2, 3
0, 2
1, 1
1, 3
0, 0
1, 0
2, 1
1, 0
0, 0
1, 0
1, 0
1, 0
1, 0
1, 1
1, 1
0, 0
0, 2
0, 1
1, 0
0, 2
1, 1
0, 0
0, 2
0, 0
2, 0
0, 0
1, 0
0, 0
1, 2
0, 0
0, 1
0, 1
1, 0
1, 1
1, 0
1, 0
0, 0
1, 1
0, 0
2, 0
0, 0
1, 1
0, 0
1, 1
0, 0
1, 0
3, 1
0, 1
0, 2
2, 0
0, 0
0, 0
0, 1
0, 0
1, 0
0, 0
1, 0
0, 1
1, 0
1, 1
0, 0
1, 0
0, 2
0, 1
0, 1
0, 0
0, 0
2, 0
2, 0
1, 1
0, 0
0, 1
0, 1
0, 0
0, 0
1, 0
1, 0
1, 0
0, 0
0, 0
0, 0
0, 0
2, 1
1, 0
1, 0
0, 1
0, 0
0, 1
0, 0
0, 0
0, 1
0, 0
0, 0
1, 0
0, 2
1, 0
2, 0
0, 0
0, 0
0, 0
1, 2
0, 1
0, 0
1, 0
0, 0
0, 0
0, 0
0, 0
0, 0
0, 0
1, 0
0, 0
0, 0
0, 0
0, 0
0, 0
0, 0
1, 0
0, 1
0, 0
0, 0
0, 0
1, 1
0, 0
0, 0
0, 0
0, 1
0, 0
0, 0
0, 0
0, 1
0, 0
0, 0
0, 0
0, 0
1, 0
0, 2
1, 1
0, 1
0, 0
0, 0
0, 0
0, 1
0, 1
0, 0
0, 0
0, 0
0, 0
0, 0
0, 0
0, 0
0, 0
0, 0
0, 0
0, 0
0, 0
0, 1
0, 0
0, 0
1, 0
0, 0
0, 0
0, 0
0, 0
0, 1
0, 0
0, 0
0, 0
0, 0
1, 0
0, 0
0, 0
0, 2
0, 0
0, 0
0, 0
0, 0
0, 0
0, 0
1, 0
0, 0
0, 1
0, 0
0, 0
0, 0
0, 0
0, 1
0, 0
0, 0
0, 0
1, 0
1, 0
0, 0
0, 0
0, 0
0, 0
0, 0
3, 0
0, 0
0, 0
1, 0
0, 0
1, 0
0, 0
0, 0
1, 0
0, 0
0, 0
0, 0
0, 0
0, 0
0, 0
0, 0
0, 0
0, 0
1, 0
0, 0
0, 0
0, 0
0, 0
0, 0
0, 0
0, 0
0, 0
0, 0
0, 0
0, 0
0, 0
0, 1
0, 0
0, 0
0, 0
0, 0
1, 0
0, 0
0, 0
0, 0
0, 0
1, 0
0, 0
0, 0
0, 1
0, 0
0, 0
0, 0
0, 0
2, 0
0, 0
0, 0
0, 1
0, 0
0, 0
1, 0
0, 0
0, 0
0, 0
0, 0
1, 0
0, 0
0, 0
0, 0
0, 0
0, 0
0, 0
0, 1
0, 0
0, 0
0, 0
0, 0
0, 0
0, 0
0, 0
0, 0
0, 0
0, 0
0, 0
0, 1
0, 0
0, 0
0, 0
1, 0
0, 0
0, 0
0, 0
0, 0
0, 0
0, 0
0, 0
0, 0
0, 0
1, 0
0, 0
0, 0
0, 0
0, 0
0, 0
0, 0
0, 0
0, 0
0, 0
0, 0
0, 0
0, 0
0, 1
0, 0
0, 0
0, 0
0, 1
0, 0
0, 0
0, 0
0, 0
0, 0
0, 1
0, 0
0, 0
0, 0
0, 1
0, 0
0, 0
0, 0
0, 0
0, 0
0, 0
0, 0
0, 0
0, 0
0, 0
0, 0
0, 0
0, 1
0, 0
0, 0
0, 0
0, 0
0, 0
0, 0
0, 0
0, 0
0, 0
0, 0
0, 0
0, 0
0, 0
0, 0
0, 0
0, 0
0, 0
0, 0
1, 0
1, 0
0, 0
0, 0
0, 0
0, 0
0, 1
0, 0
0, 0
0, 0
0, 0
0, 0
0, 0
0, 0
0, 0
0, 0
0, 0
0, 0
1, 0
0, 0
0, 0
0, 0
0, 0
0, 0
0, 0
0, 0
0, 0
0, 0
0, 0
0, 0
0, 1
0, 0
0, 0
0, 0
0, 0
1, 0
0, 0
0, 0
0, 0
0, 0
0, 0
0, 0
0, 0
0, 0
0, 0
0, 0
0, 0
0, 0
0, 0
0, 0
0, 0
0, 1
0, 0
0, 0
0, 0
0, 0
0, 0
0, 0
0, 0
0, 0
1, 0
0, 0
0, 0
0, 0
0, 0
0, 0
0, 0
0, 0
0, 0
0, 0
0, 0
0, 0
0, 0
0, 0
0, 0
0, 0
0, 0
0, 0
0, 0
0, 0
0, 0
0, 0
0, 0
0, 0
0, 1
0, 0
0, 0
0, 0
0, 0
0, 0
0, 0
0, 0
0, 0
0, 0
0, 0
0, 0
0, 0
0, 0
0, 0
0, 0
0, 0
0, 0
0, 0
0, 0
0, 0
0, 0
0, 0
0, 0
0, 0
0, 0
0, 0
0, 0
0, 0
0, 0
0, 0
0, 0
0, 0
0, 0
0, 0
0, 0
0, 0
0, 0
0, 0
0, 0
0, 0
0, 0
0, 0
0, 0
0, 0
0, 0
0, 0
0, 0
0, 0
0, 0
0, 0
0, 0
0, 0
0, 0
0, 0
0, 0
0, 0
0, 0
0, 0
0, 0
0, 0
0, 0
0, 0
0, 0
0, 0
0, 0
0, 0
0, 0
0, 0
0, 0
0, 0
0, 0
0, 0
0, 0
0, 0
0, 0
0, 0
0, 0
0, 0
0, 0
0, 0
0, 0
0, 0
0, 0
0, 0
0, 0
0, 0
0, 0
0, 0
0, 0
0, 0
0, 0
0, 0
0, 0
0, 0
0, 0
0, 0
0, 0
0, 0
0, 0
0, 0
0, 0
0, 0
0, 0
0, 0
0, 0
0, 0
0, 0
0, 0
0, 0
0, 0
0, 0
0, 0
0, 0
0, 0
0, 0
0, 0
0, 0
0, 0
0, 0
0, 0
0, 0
0, 0
0, 0
0, 0
0, 0
0, 0
0, 0
0, 0
0, 0
0, 0
0, 0
0, 0
0, 0
0, 0
0, 0
0, 0
0, 0
0, 0
0, 0
0, 0
0, 0
0, 0
0, 0
0, 0
0, 0
0, 0
0, 0
0, 0
0, 0
0, 0
0, 0
0, 0
0, 0
0, 0
0, 0
0, 0
0, 0
0, 0
0, 0
0, 0
0, 0
0, 0
0, 0
0, 0
0, 0
0, 0
0, 0
0, 0
0, 0
0, 0
0, 0
0, 0
0, 0
0, 0
0, 0
0, 0
0, 0
0, 0
0, 0
0, 0
0, 0
0, 0
0, 0
0, 0
0, 0
0, 0
0, 0
0, 0
0, 0
0, 0
0, 0
0, 0
0, 0
0, 0
0, 0
0, 0
0, 0
0, 0
0, 0
0, 0
0, 0
0, 0
0, 0
0, 0
0, 0
0, 0
0, 0
0, 0
0, 0
0, 0
0, 0
0, 0
0, 0
0, 0
0, 0
0, 0
0, 0
0, 0
0, 0
0, 0
0, 0
0, 0
0, 0
0, 0
0, 0
0, 0
0, 0
0, 0
0, 0
0, 0
0, 0
0, 0
0, 0
0, 0
0, 0
0, 0
0, 0
0, 0
0, 0
0, 0
0, 0
0, 0
0, 0
0, 0
0, 0
0, 0
0, 0
0, 0
0, 0
0, 0
0, 0
0, 0
0, 0
0, 0
0, 0
0, 0
0, 0
0, 0
0, 0
0, 0
0, 0
0, 0
0, 0
0, 0
0, 0
0, 0
0, 0
0, 0
0, 0
0, 0
0, 0
0, 0
0, 0
0, 0
0, 0
0, 0
0, 0
0, 0
0, 0
0, 0
0, 0
0, 0
0, 0
0, 0
0, 0
0, 0
0, 0
0, 0
0, 0
0, 0
0, 0
0, 0
0, 0
0, 0
0, 0
0, 0
0, 0
0, 0
0, 0
0, 0
0, 0
0, 0
0, 0
0, 0
0, 0
0, 0
0, 0
0, 0
0, 0
0, 0
0, 0
0, 0
0, 0
0, 0
0, 0
0, 0
0, 0
0, 0
0, 0
0, 0
0, 0
0, 0
0, 0
0, 0
0, 0
0, 0
0, 0
0, 0
0, 0
0, 0
0, 0
0, 0
0, 0
0, 0
0, 0
0, 0
0, 0
0, 0
#ENDOFDATA     end of spectrum data