File: host_upload/12-01-2023/Dourbes (shot-by-shot)/upload_4/ps__0257_0689790785_000rfs_shot_3042.msa
#FORMAT      : EMSA/MAS spectral data file
#VERSION     : TC202v2.0 PIXL
#TITLE       : N/A
#DATE        :       Date in the format DD-MMM-YYYY, for example 07-JUL-2010
#TIME        :             The time of day at which the spectrum was recorded, in 24-hour format
#OWNER       : PIXL Flight Model       (PIXL will use this to indicate which instrument took the data.)
#NPOINTS     : 4096     Number of data points in the spectrum (This can be zero for configuration only files)
#NCOLUMNS    : 2     Number of data columns in the spectrum (This can be zero for configuration only files)
#XUNITS      : eV
#YUNITS      : COUNTS
#DATATYPE    : YY
#XPERCHAN    : 7.862, 7.881   eV per channel (separate by commas if more than one detector)
#OFFSET      : 18.5, -22.4         eV of first channel  (separate by commas if more than one detector
#SIGNALTYPE  : XRF
#YP_TEMP     : 2.973
#LIVETIME    : 8.99455, 8.99279   seconds (separate by commas if more than one detector)
#REALTIME    : 10, 10.0   seconds (separate by commas if more than one detector)
#SPECTRUM    : start of spectrum data
0, 0
0, 0
0, 0
0, 0
0, 0
0, 0
0, 0
0, 0
0, 0
0, 0
0, 0
0, 0
0, 0
0, 0
0, 0
0, 0
0, 0
0, 0
0, 0
0, 0
0, 0
0, 0
0, 0
0, 0
0, 0
0, 0
0, 0
0, 0
0, 0
0, 0
0, 0
0, 0
0, 0
0, 0
0, 0
0, 1
0, 0
0, 0
1, 0
2, 1
0, 2
1, 0
0, 2
0, 1
3, 1
2, 1
1, 1
4, 2
6, 1
2, 7
8, 18
22, 32
42, 34
59, 38
70, 60
59, 53
47, 45
17, 28
15, 18
8, 8
2, 5
4, 4
0, 1
2, 1
4, 1
1, 7
4, 2
3, 5
11, 8
30, 33
70, 82
158, 141
277, 270
368, 409
473, 450
473, 482
432, 380
327, 274
182, 166
127, 87
51, 65
34, 21
17, 10
4, 6
7, 3
3, 4
5, 5
0, 1
2, 1
3, 2
8, 2
17, 0
23, 2
26, 0
60, 2
65, 2
71, 2
56, 2
43, 3
27, 3
13, 4
10, 2
3, 2
2, 1
3, 4
0, 2
5, 4
2, 4
5, 3
4, 7
7, 10
13, 15
13, 18
23, 22
26, 24
26, 10
16, 11
19, 26
16, 15
18, 18
15, 21
12, 11
14, 18
13, 11
10, 9
14, 13
11, 11
7, 8
7, 8
11, 9
5, 6
3, 4
3, 4
2, 4
4, 1
6, 4
2, 2
1, 3
2, 1
2, 1
3, 1
2, 2
1, 2
1, 3
1, 4
1, 2
2, 0
2, 3
1, 0
1, 2
5, 2
5, 3
4, 5
12, 15
12, 19
13, 37
19, 45
27, 48
17, 43
16, 58
16, 51
11, 53
3, 34
1, 22
2, 12
3, 6
1, 3
5, 4
2, 2
4, 5
6, 5
7, 5
6, 5
1, 6
5, 3
4, 5
1, 4
4, 1
1, 3
1, 5
3, 2
2, 5
2, 0
5, 4
2, 5
0, 1
7, 1
3, 6
10, 5
6, 7
13, 5
8, 9
10, 14
10, 9
10, 16
9, 10
17, 17
17, 19
23, 17
20, 19
14, 11
14, 13
12, 8
8, 4
7, 4
6, 5
6, 8
3, 6
6, 4
8, 7
5, 5
9, 6
13, 8
4, 5
6, 7
9, 8
6, 2
8, 4
7, 11
5, 6
5, 6
4, 6
8, 10
8, 8
7, 6
8, 13
6, 25
11, 34
10, 60
12, 97
16, 133
13, 122
9, 152
4, 156
5, 132
7, 145
9, 90
6, 76
11, 42
8, 37
8, 19
5, 13
8, 18
5, 4
15, 20
7, 23
28, 41
52, 51
71, 67
84, 95
93, 98
112, 93
93, 101
69, 66
71, 56
47, 34
38, 26
22, 25
19, 10
21, 17
29, 20
24, 37
51, 55
73, 109
190, 212
351, 411
685, 799
1104, 1326
1741, 1942
2443, 2837
3240, 3425
3668, 3752
3961, 3882
3858, 3456
3341, 2905
2541, 2137
1826, 1458
1183, 827
695, 471
353, 248
179, 145
101, 66
61, 25
34, 32
24, 10
22, 16
20, 13
34, 20
32, 20
31, 20
36, 24
39, 46
65, 65
75, 105
138, 180
223, 253
335, 325
396, 430
499, 498
542, 586
607, 518
510, 481
447, 437
346, 320
242, 197
144, 113
115, 60
55, 31
30, 20
9, 5
10, 4
11, 3
7, 4
6, 10
4, 8
8, 4
9, 8
4, 15
11, 16
9, 10
13, 3
4, 11
11, 9
7, 3
2, 4
3, 2
1, 2
2, 3
5, 3
4, 1
3, 4
1, 3
3, 0
2, 2
2, 6
1, 3
4, 6
4, 1
3, 2
3, 2
0, 1
1, 3
2, 3
9, 3
2, 6
4, 3
5, 5
3, 4
6, 6
3, 2
2, 5
2, 2
6, 2
4, 5
1, 2
2, 3
4, 2
4, 1
0, 1
2, 1
2, 5
3, 1
3, 1
3, 0
3, 3
4, 3
5, 4
2, 7
3, 6
2, 4
5, 9
3, 9
1, 10
2, 7
3, 17
4, 15
6, 15
3, 10
6, 8
6, 11
2, 4
2, 3
5, 5
3, 6
9, 6
3, 2
2, 2
7, 6
3, 2
3, 2
5, 6
4, 8
3, 6
4, 7
1, 3
3, 3
4, 8
2, 6
2, 2
1, 4
2, 6
2, 3
4, 9
0, 5
3, 4
1, 3
2, 6
4, 11
1, 6
3, 4
1, 8
1, 3
1, 9
1, 2
2, 1
4, 3
1, 2
3, 2
4, 2
3, 0
0, 0
1, 2
1, 1
2, 5
0, 2
0, 0
2, 1
0, 3
2, 4
3, 2
2, 1
2, 1
3, 3
3, 3
2, 4
2, 3
3, 0
3, 5
3, 3
3, 1
0, 3
2, 1
2, 2
3, 1
0, 2
3, 2
1, 1
1, 6
1, 9
2, 9
1, 1
4, 2
5, 1
2, 5
1, 1
0, 4
3, 5
2, 7
2, 12
2, 5
1, 7
2, 7
3, 6
1, 13
2, 11
4, 10
3, 7
1, 10
0, 5
2, 7
5, 1
4, 1
1, 3
5, 3
6, 0
0, 3
3, 1
1, 1
1, 4
4, 0
5, 1
7, 1
2, 3
5, 2
2, 2
3, 0
0, 0
0, 3
3, 3
1, 0
2, 1
2, 1
3, 3
2, 1
3, 4
2, 2
3, 2
0, 5
0, 2
1, 3
4, 5
0, 2
3, 2
2, 0
0, 4
2, 5
1, 0
0, 0
2, 2
2, 1
1, 3
1, 0
2, 0
1, 1
1, 1
1, 5
1, 1
2, 3
5, 3
6, 3
4, 3
4, 3
5, 3
1, 2
4, 2
2, 1
3, 1
5, 1
4, 2
2, 3
1, 2
5, 0
3, 1
1, 3
2, 1
1, 0
2, 3
2, 5
2, 4
4, 1
7, 2
10, 9
9, 3
3, 9
8, 9
5, 3
7, 5
3, 1
4, 1
2, 1
5, 1
1, 4
5, 2
0, 0
4, 1
1, 2
1, 1
1, 4
0, 3
1, 3
0, 1
1, 0
0, 2
4, 0
4, 4
2, 3
1, 5
2, 3
0, 2
2, 3
4, 1
3, 4
3, 2
1, 1
1, 2
4, 4
1, 1
3, 0
2, 3
1, 0
0, 0
4, 2
2, 1
2, 0
0, 1
1, 0
0, 1
1, 0
0, 0
2, 0
0, 1
0, 0
2, 1
1, 0
1, 0
1, 0
0, 0
3, 1
1, 2
0, 1
3, 0
1, 1
2, 0
1, 1
0, 1
1, 0
0, 0
1, 0
1, 2
0, 0
0, 0
1, 1
0, 1
1, 0
0, 0
0, 0
0, 2
1, 0
0, 1
0, 0
0, 1
0, 2
0, 1
1, 0
0, 1
0, 0
2, 1
0, 1
0, 2
1, 0
0, 0
2, 1
0, 1
1, 0
1, 0
0, 0
3, 1
0, 0
0, 0
0, 1
0, 0
0, 0
0, 0
0, 0
3, 0
2, 0
0, 1
1, 0
1, 0
1, 0
1, 0
0, 1
0, 1
0, 0
0, 0
3, 0
0, 1
1, 1
0, 1
0, 2
0, 0
0, 1
1, 0
0, 1
2, 0
0, 1
1, 2
1, 0
1, 2
0, 1
0, 0
0, 0
1, 0
1, 0
0, 0
0, 0
2, 0
1, 1
0, 0
0, 0
0, 1
3, 1
0, 0
0, 0
1, 0
0, 2
0, 3
0, 0
0, 1
0, 1
0, 0
0, 0
0, 0
0, 0
1, 1
0, 0
0, 2
0, 1
0, 0
0, 0
0, 1
0, 0
1, 1
0, 1
0, 1
0, 0
0, 0
0, 0
0, 2
0, 0
0, 0
1, 1
1, 0
0, 1
1, 0
1, 0
2, 0
0, 1
1, 0
2, 0
0, 0
1, 0
0, 0
0, 0
0, 0
0, 0
0, 0
0, 1
0, 0
1, 0
0, 0
0, 0
0, 0
0, 0
0, 0
0, 0
0, 0
2, 0
0, 0
0, 0
0, 0
1, 0
0, 0
0, 0
0, 1
0, 0
0, 1
0, 0
0, 0
0, 1
0, 0
0, 1
0, 0
0, 0
0, 0
0, 0
0, 0
1, 0
0, 0
0, 0
0, 0
1, 0
1, 0
0, 1
0, 0
1, 0
0, 0
1, 1
0, 0
0, 0
0, 0
0, 1
0, 1
1, 1
1, 1
0, 0
0, 0
0, 1
0, 0
0, 0
0, 1
0, 0
0, 0
1, 0
0, 1
0, 1
0, 0
0, 0
0, 0
0, 0
0, 0
1, 0
0, 0
0, 0
0, 0
0, 2
0, 1
0, 0
0, 1
0, 0
1, 0
0, 1
0, 0
0, 0
0, 0
0, 0
0, 0
0, 0
0, 1
0, 1
2, 0
0, 0
0, 0
1, 0
1, 0
0, 1
0, 0
0, 0
0, 0
0, 0
0, 0
0, 0
0, 0
0, 0
1, 0
0, 1
1, 0
2, 0
0, 0
0, 0
0, 0
0, 0
0, 0
0, 0
0, 0
0, 0
0, 0
0, 1
0, 0
0, 0
0, 0
0, 0
0, 0
1, 0
0, 0
0, 0
0, 0
0, 0
0, 0
0, 0
0, 0
0, 0
0, 0
0, 0
0, 0
0, 0
0, 0
1, 0
0, 0
0, 0
0, 0
0, 0
0, 0
0, 1
0, 0
0, 0
0, 0
0, 0
0, 0
0, 0
0, 0
0, 0
0, 0
0, 0
0, 0
0, 0
0, 0
0, 1
0, 0
0, 0
0, 0
0, 0
0, 0
0, 0
0, 0
0, 0
0, 0
0, 0
0, 0
1, 0
0, 0
0, 0
0, 0
0, 0
0, 0
0, 0
0, 0
0, 0
0, 0
0, 0
0, 0
0, 0
0, 0
0, 1
0, 0
0, 0
0, 0
0, 0
0, 0
0, 0
0, 1
0, 0
0, 0
0, 0
0, 0
0, 0
0, 0
0, 0
0, 0
0, 0
0, 0
0, 0
0, 0
0, 0
0, 0
0, 0
0, 0
0, 0
0, 0
0, 0
0, 0
0, 0
0, 0
0, 0
0, 0
0, 0
0, 0
0, 0
0, 0
0, 0
0, 0
0, 0
0, 0
0, 0
0, 0
1, 0
0, 0
0, 0
0, 0
0, 0
0, 0
0, 0
0, 0
0, 0
0, 0
0, 0
1, 0
0, 0
0, 0
0, 0
0, 0
0, 0
0, 0
0, 0
0, 0
0, 0
0, 0
1, 0
0, 0
0, 0
0, 0
0, 0
0, 0
0, 0
0, 0
0, 0
0, 0
0, 0
0, 0
0, 0
0, 0
0, 0
0, 0
0, 0
0, 0
0, 0
0, 0
0, 0
0, 0
0, 0
0, 0
0, 0
0, 0
0, 0
0, 0
0, 0
0, 0
0, 0
0, 0
0, 0
0, 0
0, 0
0, 0
0, 0
0, 0
0, 0
0, 0
0, 0
0, 0
0, 0
0, 0
0, 0
0, 0
0, 0
0, 0
0, 0
0, 0
0, 0
0, 0
0, 0
0, 0
0, 0
0, 0
0, 0
0, 0
0, 0
0, 0
0, 0
0, 0
0, 0
0, 0
0, 0
0, 0
0, 0
0, 0
0, 0
0, 0
0, 0
0, 0
0, 0
0, 0
0, 1
0, 0
0, 0
0, 0
0, 0
0, 0
0, 0
0, 0
0, 0
0, 0
0, 0
0, 0
0, 0
0, 0
0, 0
0, 0
0, 0
0, 0
0, 0
0, 0
0, 0
0, 0
0, 0
0, 0
0, 0
0, 0
0, 0
0, 0
0, 0
0, 0
0, 0
0, 0
0, 0
0, 0
0, 0
0, 0
0, 0
0, 0
0, 0
0, 0
0, 0
0, 0
0, 0
0, 0
0, 0
0, 0
0, 0
0, 0
0, 0
0, 0
0, 0
0, 0
0, 0
0, 0
0, 0
0, 0
0, 0
0, 0
0, 0
0, 0
0, 0
0, 0
0, 0
0, 0
0, 0
0, 0
0, 0
0, 0
0, 0
0, 0
0, 0
0, 0
0, 0
0, 0
0, 0
0, 0
0, 0
0, 0
0, 0
0, 0
0, 0
0, 0
0, 0
0, 0
0, 0
0, 0
0, 0
0, 0
0, 0
0, 0
0, 0
0, 0
0, 0
0, 0
0, 0
0, 0
0, 0
0, 0
0, 0
0, 0
0, 0
0, 0
0, 0
0, 0
0, 0
0, 0
0, 0
0, 0
0, 0
0, 0
0, 0
0, 0
0, 0
0, 0
0, 0
0, 0
0, 0
0, 0
0, 0
0, 0
0, 0
0, 0
0, 0
0, 0
0, 0
0, 0
0, 0
0, 0
0, 0
0, 0
0, 0
0, 0
0, 0
0, 0
0, 0
0, 0
0, 0
0, 0
0, 0
0, 0
0, 0
0, 0
0, 0
0, 0
0, 0
0, 0
0, 0
0, 0
0, 0
0, 0
0, 0
0, 0
0, 0
0, 0
0, 0
0, 0
0, 0
0, 0
0, 0
0, 0
0, 0
0, 0
0, 0
0, 0
0, 0
0, 0
0, 0
0, 0
0, 0
0, 0
0, 0
0, 0
0, 0
0, 0
0, 0
0, 0
0, 0
0, 0
0, 0
0, 0
0, 0
0, 0
0, 0
0, 0
0, 0
0, 0
0, 0
0, 0
0, 0
0, 0
0, 0
0, 0
0, 0
0, 0
0, 0
0, 0
0, 0
0, 0
0, 0
0, 0
0, 0
0, 0
0, 0
0, 0
0, 0
0, 0
0, 0
0, 0
0, 0
0, 0
0, 0
0, 0
0, 0
0, 0
0, 0
0, 0
0, 0
0, 0
0, 0
0, 0
0, 0
0, 0
0, 0
0, 0
0, 0
0, 0
0, 0
0, 0
0, 0
0, 0
0, 0
0, 0
0, 0
0, 0
0, 0
0, 0
0, 0
0, 0
0, 0
0, 0
0, 0
0, 0
0, 0
0, 0
0, 0
0, 0
0, 0
0, 0
0, 0
0, 0
0, 0
0, 0
0, 0
0, 0
0, 0
0, 0
0, 0
0, 0
0, 0
0, 0
0, 0
0, 0
0, 0
0, 0
0, 0
0, 0
0, 0
0, 0
0, 0
0, 0
0, 0
0, 0
0, 0
0, 0
0, 0
0, 0
0, 0
0, 0
0, 0
0, 0
0, 0
0, 0
0, 0
0, 0
0, 0
0, 0
0, 0
0, 0
0, 0
0, 0
0, 0
0, 0
0, 0
0, 0
0, 0
0, 0
0, 0
0, 0
0, 0
0, 0
0, 0
0, 0
0, 0
0, 0
0, 0
0, 0
0, 0
0, 0
0, 0
0, 0
0, 0
0, 0
0, 0
0, 0
0, 0
0, 0
0, 0
0, 0
0, 0
0, 0
0, 0
0, 0
0, 0
0, 0
0, 0
#ENDOFDATA     end of spectrum data