File: host_upload/12-01-2023/Dourbes (shot-by-shot)/upload_4/ps__0257_0689790785_000rfs_shot_3090.msa
#FORMAT      : EMSA/MAS spectral data file
#VERSION     : TC202v2.0 PIXL
#TITLE       : N/A
#DATE        :       Date in the format DD-MMM-YYYY, for example 07-JUL-2010
#TIME        :             The time of day at which the spectrum was recorded, in 24-hour format
#OWNER       : PIXL Flight Model       (PIXL will use this to indicate which instrument took the data.)
#NPOINTS     : 4096     Number of data points in the spectrum (This can be zero for configuration only files)
#NCOLUMNS    : 2     Number of data columns in the spectrum (This can be zero for configuration only files)
#XUNITS      : eV
#YUNITS      : COUNTS
#DATATYPE    : YY
#XPERCHAN    : 7.862, 7.881   eV per channel (separate by commas if more than one detector)
#OFFSET      : 18.5, -22.4         eV of first channel  (separate by commas if more than one detector
#SIGNALTYPE  : XRF
#YP_TEMP     : 3.294
#LIVETIME    : 9.00462, 8.98879   seconds (separate by commas if more than one detector)
#REALTIME    : 10, 10.0   seconds (separate by commas if more than one detector)
#SPECTRUM    : start of spectrum data
0, 0
0, 0
0, 0
0, 0
0, 0
0, 0
0, 0
0, 0
0, 0
0, 0
0, 0
0, 0
0, 0
0, 0
0, 0
0, 0
0, 0
0, 0
0, 0
0, 0
0, 0
0, 0
0, 0
0, 0
0, 0
0, 0
0, 0
0, 0
0, 0
0, 0
0, 0
0, 0
0, 0
0, 1
0, 0
1, 0
1, 0
0, 0
2, 1
0, 0
3, 0
1, 1
0, 0
1, 0
1, 0
1, 0
2, 1
4, 1
2, 2
6, 9
14, 19
23, 27
24, 39
51, 56
66, 65
47, 49
41, 37
19, 19
15, 9
2, 9
6, 3
2, 1
4, 3
5, 3
6, 5
5, 2
3, 7
11, 6
17, 12
33, 21
71, 66
144, 140
283, 285
364, 379
430, 483
454, 508
435, 405
265, 281
186, 168
110, 102
52, 51
22, 25
12, 8
8, 6
3, 6
2, 3
4, 2
1, 0
0, 2
2, 1
2, 1
5, 1
1, 3
3, 0
3, 1
3, 4
2, 1
5, 3
6, 7
3, 5
6, 7
7, 6
5, 2
4, 3
1, 3
2, 4
5, 5
3, 5
6, 12
9, 10
13, 19
25, 22
38, 31
31, 39
47, 40
32, 37
41, 40
40, 24
32, 25
27, 25
16, 25
22, 23
29, 22
13, 26
13, 14
18, 12
7, 11
8, 13
8, 3
9, 5
4, 6
4, 3
6, 1
6, 4
3, 3
7, 0
2, 3
1, 1
1, 2
4, 2
1, 3
1, 2
5, 1
5, 4
3, 1
3, 4
1, 3
1, 3
1, 1
2, 2
5, 9
3, 2
9, 13
13, 16
23, 17
20, 41
38, 44
36, 31
30, 34
15, 24
26, 22
15, 20
10, 18
11, 11
23, 17
31, 13
56, 29
56, 29
68, 23
66, 28
90, 21
89, 19
42, 13
42, 9
32, 7
14, 6
8, 6
6, 8
10, 9
5, 5
2, 2
2, 5
7, 4
3, 4
2, 7
7, 9
8, 2
4, 3
3, 4
9, 11
6, 7
6, 11
13, 12
15, 15
21, 15
19, 14
18, 11
21, 19
16, 15
23, 16
17, 15
11, 11
9, 13
9, 8
5, 8
10, 12
6, 13
8, 10
6, 16
9, 20
5, 19
7, 24
3, 23
12, 20
3, 14
4, 20
7, 12
2, 11
6, 14
7, 4
4, 9
6, 8
3, 8
11, 6
3, 7
8, 13
15, 11
11, 12
7, 9
17, 15
13, 14
15, 6
19, 17
15, 11
10, 7
19, 14
9, 8
12, 8
18, 10
17, 7
13, 5
16, 14
11, 14
11, 13
16, 13
22, 25
34, 40
58, 63
63, 86
89, 107
91, 118
118, 94
110, 91
70, 74
55, 58
50, 43
36, 40
17, 25
20, 20
22, 16
22, 32
24, 31
41, 54
103, 111
170, 263
365, 430
596, 806
1063, 1392
1624, 2156
2364, 2927
3048, 3543
3525, 3981
3796, 4109
3658, 3617
3168, 3084
2363, 2267
1724, 1541
1117, 939
648, 518
351, 255
188, 133
90, 61
41, 40
19, 24
14, 20
18, 17
16, 17
22, 24
12, 25
26, 24
29, 41
37, 55
53, 80
108, 126
139, 218
219, 269
284, 383
384, 430
481, 535
549, 575
553, 574
496, 511
391, 437
315, 309
229, 206
136, 113
100, 70
52, 36
23, 19
15, 11
5, 9
6, 8
2, 12
3, 14
8, 9
8, 6
4, 14
7, 8
3, 8
4, 6
7, 10
4, 7
5, 8
4, 4
3, 3
4, 3
0, 7
2, 7
1, 4
7, 4
3, 8
3, 11
2, 10
5, 20
5, 11
8, 9
7, 11
5, 5
6, 7
6, 5
6, 8
9, 2
4, 5
1, 6
1, 3
6, 7
10, 6
3, 2
4, 3
6, 9
5, 5
2, 5
0, 6
4, 4
4, 4
3, 8
3, 7
4, 6
4, 6
1, 6
5, 3
2, 8
2, 7
2, 5
3, 2
2, 3
6, 3
2, 7
4, 4
5, 7
0, 6
2, 5
6, 10
4, 11
4, 7
3, 5
3, 11
2, 3
3, 13
4, 6
1, 7
2, 3
1, 3
1, 0
2, 6
3, 2
1, 2
5, 0
2, 1
2, 0
0, 1
1, 3
3, 4
1, 2
2, 3
3, 3
2, 6
4, 2
3, 3
0, 2
2, 3
5, 2
8, 3
8, 3
4, 5
5, 1
6, 4
6, 2
4, 2
4, 6
4, 0
3, 3
4, 2
1, 0
6, 3
2, 5
2, 3
2, 3
1, 3
0, 3
0, 5
1, 7
1, 2
2, 3
3, 4
2, 6
2, 1
5, 2
2, 0
2, 1
7, 1
7, 4
8, 1
5, 2
6, 1
4, 1
11, 5
5, 2
7, 2
6, 1
13, 4
11, 1
8, 4
6, 4
4, 1
3, 2
1, 3
4, 2
0, 3
2, 2
4, 0
2, 2
1, 3
3, 1
0, 2
3, 4
2, 3
0, 4
1, 3
0, 4
0, 4
1, 9
4, 4
1, 3
0, 4
0, 3
3, 5
1, 5
3, 6
4, 1
0, 4
1, 0
0, 3
4, 6
2, 4
5, 1
5, 0
3, 4
1, 3
2, 2
0, 2
1, 2
3, 1
1, 5
1, 1
3, 3
0, 2
1, 6
3, 1
0, 1
3, 3
2, 2
0, 1
3, 2
0, 2
2, 3
3, 0
1, 1
1, 2
4, 0
3, 3
5, 2
3, 2
1, 2
5, 0
4, 1
4, 1
1, 1
3, 3
1, 4
1, 3
3, 0
2, 3
3, 4
2, 0
3, 2
3, 2
3, 2
1, 3
0, 1
2, 0
1, 3
2, 5
2, 1
4, 2
1, 1
0, 2
1, 2
2, 2
1, 1
0, 1
2, 1
1, 0
2, 6
0, 3
3, 0
0, 6
4, 4
6, 6
10, 7
6, 8
7, 16
3, 6
6, 11
7, 7
5, 5
6, 9
3, 8
4, 1
6, 5
1, 1
0, 1
1, 3
1, 2
1, 3
0, 1
2, 1
0, 3
1, 2
2, 1
1, 2
3, 1
0, 1
1, 2
2, 1
2, 2
5, 4
3, 1
2, 2
5, 3
1, 3
1, 2
4, 2
1, 3
1, 2
2, 1
4, 0
1, 1
1, 0
0, 2
1, 0
2, 0
1, 1
1, 0
0, 0
1, 0
0, 1
1, 0
1, 1
2, 1
1, 0
1, 1
1, 3
2, 0
2, 1
0, 0
2, 3
2, 1
2, 0
2, 3
2, 1
4, 0
2, 1
3, 0
3, 1
3, 1
2, 3
0, 1
2, 0
4, 1
0, 1
0, 1
5, 1
3, 1
1, 0
0, 1
2, 1
1, 3
0, 1
2, 0
0, 0
1, 0
0, 1
2, 0
1, 1
3, 0
0, 2
1, 1
0, 0
0, 1
0, 1
1, 1
1, 3
0, 0
0, 0
1, 1
0, 0
0, 0
0, 2
0, 1
0, 1
1, 0
0, 1
1, 1
0, 0
1, 1
0, 0
3, 1
0, 1
0, 0
0, 1
1, 0
0, 1
0, 2
2, 1
0, 0
1, 1
0, 2
1, 1
0, 0
0, 0
0, 1
0, 0
1, 0
0, 0
0, 0
0, 0
0, 1
1, 1
0, 0
0, 0
1, 0
1, 1
0, 0
0, 1
0, 1
0, 0
0, 0
0, 0
2, 0
0, 1
0, 0
0, 0
2, 0
0, 0
1, 0
1, 0
0, 0
0, 0
0, 1
0, 0
0, 0
0, 2
0, 0
0, 0
2, 0
0, 1
0, 2
0, 1
0, 0
1, 0
1, 0
0, 0
1, 0
0, 0
0, 1
0, 1
0, 0
0, 0
0, 0
0, 1
1, 1
0, 2
0, 0
0, 0
1, 1
0, 0
0, 0
1, 0
0, 0
0, 0
1, 1
0, 1
1, 0
0, 0
0, 0
0, 0
0, 0
0, 0
0, 0
0, 1
0, 1
1, 1
0, 0
0, 0
0, 1
0, 0
0, 1
1, 1
0, 0
0, 1
0, 0
0, 0
2, 0
1, 0
0, 0
0, 0
0, 0
0, 0
0, 0
0, 1
0, 0
0, 0
0, 0
0, 0
0, 0
0, 0
0, 1
0, 0
0, 0
0, 1
0, 0
2, 0
0, 0
0, 0
0, 0
0, 0
1, 0
0, 0
0, 0
1, 0
0, 0
0, 0
0, 0
0, 0
0, 0
0, 0
1, 0
0, 0
0, 0
0, 0
0, 0
0, 0
0, 1
0, 0
0, 0
0, 0
2, 0
0, 0
1, 1
0, 0
0, 0
0, 1
0, 0
0, 1
0, 1
0, 0
0, 0
0, 0
1, 0
0, 1
1, 0
0, 0
0, 0
1, 0
0, 0
1, 0
0, 0
0, 0
0, 1
0, 0
1, 1
0, 0
0, 0
0, 0
0, 0
0, 0
0, 0
0, 0
0, 0
0, 0
0, 0
0, 0
0, 1
1, 0
0, 0
0, 1
0, 0
0, 0
0, 0
0, 0
0, 0
0, 0
0, 0
0, 0
0, 0
0, 0
0, 0
0, 0
0, 0
0, 0
0, 0
0, 0
0, 0
0, 0
0, 0
0, 0
0, 0
0, 0
2, 0
0, 0
0, 0
1, 0
0, 1
0, 0
0, 0
0, 0
0, 0
0, 0
0, 0
0, 0
1, 0
0, 1
0, 0
0, 0
0, 0
0, 0
0, 0
0, 0
0, 0
1, 0
0, 0
0, 0
0, 0
0, 0
1, 0
0, 0
0, 0
0, 0
0, 0
0, 0
0, 0
0, 0
0, 0
0, 0
0, 0
0, 0
0, 0
0, 0
0, 0
0, 0
0, 0
0, 0
0, 0
0, 1
0, 0
0, 0
0, 0
0, 0
0, 0
0, 0
0, 0
0, 0
0, 0
0, 0
0, 0
0, 0
0, 0
0, 0
0, 0
0, 0
0, 0
0, 0
0, 0
0, 0
0, 0
0, 0
0, 0
0, 0
0, 0
0, 0
0, 0
0, 0
0, 0
0, 0
0, 1
0, 0
0, 0
0, 0
0, 0
0, 0
0, 0
0, 0
0, 0
0, 0
1, 0
0, 0
0, 0
0, 0
0, 0
0, 0
0, 0
0, 0
0, 0
0, 0
0, 0
0, 0
0, 0
0, 0
0, 0
0, 0
0, 0
0, 0
0, 0
0, 0
0, 0
0, 0
0, 0
0, 0
0, 0
0, 0
0, 0
0, 0
0, 0
0, 0
0, 0
0, 0
0, 0
0, 0
0, 0
0, 0
0, 0
0, 0
0, 0
0, 0
0, 0
0, 0
0, 0
0, 0
0, 0
0, 0
0, 0
0, 0
0, 0
0, 0
0, 0
0, 0
0, 0
0, 0
0, 0
0, 0
0, 0
0, 0
0, 0
0, 0
0, 0
0, 0
0, 0
0, 0
0, 0
0, 0
0, 0
0, 0
0, 0
0, 0
0, 0
0, 0
0, 0
0, 0
0, 0
0, 0
0, 0
0, 0
0, 0
0, 0
0, 0
0, 0
0, 0
0, 0
0, 0
0, 0
0, 0
0, 0
0, 0
0, 0
0, 0
0, 0
0, 0
0, 0
0, 0
0, 0
0, 0
0, 0
0, 0
0, 0
0, 0
0, 0
0, 0
0, 0
0, 0
0, 0
0, 0
0, 0
0, 0
0, 0
0, 0
0, 0
0, 0
0, 0
1, 0
0, 0
0, 0
0, 0
0, 0
0, 0
0, 0
0, 0
0, 0
0, 0
0, 0
0, 0
0, 0
0, 0
0, 0
0, 0
0, 0
0, 0
0, 0
0, 0
0, 0
0, 0
0, 0
0, 0
0, 0
0, 0
0, 0
0, 0
0, 0
0, 0
0, 0
0, 0
0, 0
0, 0
0, 0
0, 0
0, 0
0, 0
0, 0
0, 0
0, 0
0, 0
0, 0
0, 0
0, 0
0, 0
0, 0
0, 0
0, 0
0, 0
0, 0
0, 0
0, 0
0, 0
0, 0
0, 0
0, 0
0, 0
0, 0
0, 0
0, 0
0, 0
0, 0
0, 0
0, 0
0, 0
0, 0
0, 0
0, 0
0, 0
0, 0
0, 0
0, 0
0, 0
0, 0
0, 0
0, 0
0, 0
0, 0
0, 0
0, 0
0, 0
0, 0
0, 0
0, 0
0, 0
0, 0
0, 0
0, 0
0, 0
0, 0
0, 0
0, 0
0, 0
0, 0
0, 0
0, 0
0, 0
0, 0
0, 0
0, 0
0, 0
0, 0
0, 0
0, 0
0, 0
0, 0
0, 0
0, 0
0, 0
0, 0
0, 0
0, 0
0, 0
0, 0
0, 0
0, 0
0, 0
0, 0
0, 0
0, 0
0, 0
0, 0
0, 0
0, 0
0, 0
0, 0
0, 0
0, 0
0, 0
0, 0
0, 0
0, 0
0, 0
0, 0
0, 0
0, 0
0, 0
0, 0
0, 0
0, 0
0, 0
0, 0
0, 0
0, 0
0, 0
0, 0
0, 0
0, 0
0, 0
0, 0
0, 0
0, 0
0, 0
0, 0
0, 0
0, 0
0, 0
0, 0
0, 0
0, 0
0, 0
0, 0
0, 0
0, 0
0, 0
0, 0
0, 0
0, 0
0, 0
0, 0
0, 0
0, 0
0, 0
0, 0
0, 0
0, 0
0, 0
0, 0
0, 0
0, 0
0, 0
0, 0
0, 0
0, 0
0, 0
0, 0
0, 0
0, 0
0, 0
0, 0
0, 0
0, 0
0, 0
0, 0
0, 0
0, 0
0, 0
0, 0
0, 0
0, 0
0, 0
0, 0
0, 0
0, 0
0, 0
0, 0
0, 0
0, 0
0, 0
0, 0
0, 0
0, 0
0, 0
0, 0
0, 0
0, 0
0, 0
0, 0
0, 0
0, 0
0, 0
0, 0
0, 0
0, 0
0, 0
0, 0
0, 0
0, 0
0, 0
0, 0
0, 0
0, 0
0, 0
0, 0
0, 0
0, 0
0, 0
0, 0
0, 0
0, 0
0, 0
0, 0
0, 0
0, 0
0, 0
0, 0
0, 0
0, 0
0, 0
0, 0
0, 0
0, 0
0, 0
0, 0
0, 0
0, 0
0, 0
0, 0
0, 0
0, 0
0, 0
0, 0
0, 0
0, 0
0, 0
0, 0
0, 0
0, 0
0, 0
0, 0
0, 0
0, 0
0, 0
0, 0
0, 0
0, 0
0, 0
0, 0
0, 0
0, 0
0, 0
0, 0
0, 0
0, 0
0, 0
0, 0
0, 0
0, 0
0, 0
0, 0
0, 0
0, 0
0, 0
0, 0
0, 0
0, 0
0, 0
0, 0
0, 0
0, 0
0, 0
0, 0
0, 0
0, 0
0, 0
0, 0
0, 0
0, 0
0, 0
0, 0
0, 0
0, 0
0, 0
0, 0
0, 0
0, 0
#ENDOFDATA     end of spectrum data