File: host_upload/12-01-2023/Dourbes (shot-by-shot)/upload_4/ps__0257_0689790785_000rfs_shot_3082.msa
#FORMAT      : EMSA/MAS spectral data file
#VERSION     : TC202v2.0 PIXL
#TITLE       : N/A
#DATE        :       Date in the format DD-MMM-YYYY, for example 07-JUL-2010
#TIME        :             The time of day at which the spectrum was recorded, in 24-hour format
#OWNER       : PIXL Flight Model       (PIXL will use this to indicate which instrument took the data.)
#NPOINTS     : 4096     Number of data points in the spectrum (This can be zero for configuration only files)
#NCOLUMNS    : 2     Number of data columns in the spectrum (This can be zero for configuration only files)
#XUNITS      : eV
#YUNITS      : COUNTS
#DATATYPE    : YY
#XPERCHAN    : 7.862, 7.881   eV per channel (separate by commas if more than one detector)
#OFFSET      : 18.5, -22.4         eV of first channel  (separate by commas if more than one detector
#SIGNALTYPE  : XRF
#YP_TEMP     : 2.973
#LIVETIME    : 9.00292, 9.00179   seconds (separate by commas if more than one detector)
#REALTIME    : 10, 10.0   seconds (separate by commas if more than one detector)
#SPECTRUM    : start of spectrum data
0, 0
0, 0
0, 0
0, 0
0, 0
0, 0
0, 0
0, 0
0, 0
0, 0
0, 0
0, 0
0, 0
0, 0
0, 0
0, 0
0, 0
0, 0
0, 0
0, 0
0, 0
0, 0
0, 0
0, 0
0, 0
0, 0
0, 0
0, 1
0, 0
0, 0
0, 0
0, 0
0, 0
0, 0
0, 0
0, 1
1, 1
1, 1
1, 1
1, 0
0, 1
1, 1
1, 1
0, 1
2, 2
2, 1
2, 1
2, 0
2, 3
9, 4
12, 16
33, 18
43, 30
47, 63
57, 68
57, 48
41, 31
21, 17
15, 12
4, 9
2, 1
4, 2
2, 5
2, 5
5, 3
5, 3
4, 3
8, 4
10, 13
24, 29
65, 68
173, 165
287, 264
373, 365
465, 459
463, 480
418, 411
325, 272
173, 191
102, 108
47, 54
21, 22
19, 16
6, 3
0, 8
1, 0
0, 3
4, 1
1, 1
2, 2
3, 0
2, 0
3, 1
3, 2
0, 1
1, 2
4, 3
1, 3
6, 3
2, 2
2, 2
4, 5
4, 4
5, 2
1, 0
4, 2
5, 1
4, 3
4, 3
11, 3
10, 8
16, 9
26, 22
33, 22
24, 25
36, 39
26, 30
21, 23
25, 14
9, 22
26, 12
15, 13
17, 17
11, 10
9, 8
14, 8
14, 10
12, 14
5, 8
7, 4
1, 6
2, 5
2, 2
4, 1
2, 3
2, 3
4, 3
0, 2
3, 3
3, 0
1, 1
1, 3
2, 1
0, 3
4, 1
2, 0
1, 3
1, 2
5, 2
5, 0
2, 4
6, 1
5, 10
11, 6
10, 12
23, 15
19, 20
18, 13
23, 19
19, 12
16, 12
13, 7
5, 6
5, 3
4, 2
0, 1
3, 3
2, 3
6, 2
7, 5
3, 5
8, 4
4, 6
4, 12
4, 4
2, 6
3, 2
2, 4
4, 2
5, 1
3, 1
2, 3
2, 7
3, 1
3, 2
4, 7
6, 4
3, 0
9, 6
7, 6
5, 7
11, 10
17, 11
8, 18
14, 7
14, 19
25, 12
30, 24
17, 25
15, 15
17, 12
7, 14
12, 6
13, 6
7, 10
2, 4
4, 6
12, 6
10, 5
7, 6
4, 5
6, 9
6, 6
4, 3
5, 4
3, 3
1, 7
2, 10
7, 9
4, 3
3, 6
12, 7
5, 8
6, 9
4, 8
8, 9
4, 6
14, 4
10, 14
7, 14
10, 2
7, 5
16, 10
11, 6
8, 9
10, 2
4, 7
8, 10
6, 6
10, 7
6, 4
7, 8
16, 6
6, 14
12, 22
25, 22
36, 47
50, 72
81, 86
84, 103
113, 109
103, 98
87, 95
76, 67
52, 43
47, 41
29, 25
21, 17
23, 19
22, 20
33, 22
35, 32
52, 67
95, 113
157, 212
376, 449
708, 813
1137, 1331
1758, 1996
2507, 2895
3279, 3459
3812, 3927
3935, 3904
3727, 3632
3165, 3095
2603, 2136
1773, 1404
1124, 879
679, 542
368, 283
193, 139
102, 78
40, 52
25, 55
23, 76
12, 80
19, 69
18, 74
11, 101
28, 85
43, 72
43, 82
51, 97
90, 121
149, 154
215, 251
308, 346
395, 451
506, 500
532, 572
576, 543
484, 496
445, 421
346, 278
246, 206
160, 130
86, 69
44, 41
34, 26
10, 20
11, 21
11, 22
19, 12
17, 14
20, 8
15, 14
15, 6
13, 5
6, 6
7, 2
5, 4
7, 6
5, 6
4, 4
2, 4
2, 4
0, 7
4, 10
1, 6
3, 8
2, 15
1, 13
1, 10
0, 15
1, 10
2, 8
5, 8
2, 4
2, 6
6, 4
2, 1
2, 5
3, 5
4, 2
3, 5
5, 3
5, 3
6, 5
6, 3
3, 1
4, 3
2, 3
6, 5
1, 3
5, 4
3, 5
5, 2
3, 3
4, 3
0, 4
3, 5
4, 1
4, 0
8, 6
6, 2
7, 1
8, 2
5, 0
7, 7
9, 6
4, 0
7, 0
7, 5
1, 3
2, 3
1, 2
2, 1
2, 2
1, 4
3, 4
0, 2
0, 1
4, 1
3, 3
3, 3
7, 2
0, 2
3, 2
1, 3
2, 5
2, 2
6, 1
3, 1
2, 3
3, 0
5, 3
2, 4
4, 4
2, 5
3, 3
7, 2
5, 4
4, 3
4, 0
4, 3
2, 2
3, 4
4, 2
4, 4
5, 3
4, 5
2, 0
1, 1
5, 2
0, 6
1, 4
2, 0
4, 1
1, 2
0, 1
3, 2
0, 4
4, 2
3, 6
3, 4
2, 3
2, 2
3, 1
3, 5
3, 3
4, 4
3, 1
2, 4
1, 1
1, 1
1, 0
1, 3
3, 5
3, 3
0, 0
2, 1
1, 4
2, 4
2, 5
2, 4
3, 4
0, 1
2, 3
1, 3
3, 7
2, 4
2, 3
2, 7
2, 3
0, 2
0, 5
1, 4
1, 3
1, 2
2, 4
2, 2
1, 3
2, 3
1, 3
0, 0
3, 1
1, 4
3, 4
3, 2
3, 6
2, 3
4, 1
3, 3
0, 0
2, 1
4, 2
3, 3
3, 4
3, 0
1, 0
2, 4
1, 2
1, 3
2, 0
3, 1
1, 2
1, 3
0, 2
2, 3
2, 2
1, 2
2, 3
2, 0
1, 3
4, 1
0, 1
0, 1
3, 2
1, 2
1, 3
1, 1
2, 4
3, 5
1, 2
0, 1
0, 2
1, 0
1, 2
0, 2
1, 0
0, 0
2, 2
0, 2
1, 2
3, 1
0, 1
0, 2
1, 0
1, 3
2, 1
2, 0
3, 3
3, 3
4, 3
3, 2
1, 1
2, 5
4, 2
0, 2
0, 1
2, 2
0, 1
1, 1
1, 3
4, 1
1, 1
0, 4
2, 5
6, 4
4, 6
13, 5
6, 7
10, 7
3, 3
7, 7
6, 5
3, 6
3, 3
6, 1
0, 2
1, 2
0, 0
0, 0
1, 4
2, 1
2, 1
0, 3
3, 0
0, 1
4, 1
1, 3
1, 3
4, 4
1, 0
4, 1
0, 3
3, 3
1, 3
2, 1
1, 2
4, 3
4, 5
1, 1
1, 2
2, 2
2, 2
1, 2
1, 3
0, 2
3, 0
1, 1
1, 0
0, 1
2, 1
0, 2
1, 0
2, 1
0, 0
2, 1
1, 1
0, 0
2, 0
2, 1
1, 2
2, 1
1, 1
0, 1
3, 2
1, 1
1, 2
0, 1
1, 2
0, 1
1, 3
1, 1
1, 0
1, 1
0, 1
0, 1
0, 1
2, 2
2, 0
2, 0
4, 3
0, 1
0, 1
0, 0
0, 0
0, 0
0, 0
2, 0
0, 0
0, 1
0, 0
0, 0
1, 0
2, 0
1, 0
1, 1
1, 0
1, 0
1, 0
0, 0
0, 0
1, 0
1, 0
0, 0
1, 1
0, 0
0, 1
1, 0
3, 0
0, 1
1, 0
0, 0
1, 0
0, 1
1, 0
0, 1
0, 0
0, 0
1, 1
1, 0
0, 0
1, 0
0, 2
0, 1
0, 0
0, 0
1, 0
1, 0
0, 2
0, 0
1, 0
0, 1
1, 1
1, 0
0, 0
0, 0
1, 0
0, 1
0, 0
0, 0
1, 0
2, 1
1, 0
2, 1
1, 1
0, 1
0, 0
2, 1
0, 0
0, 0
0, 0
1, 0
1, 0
1, 0
0, 0
0, 0
1, 0
0, 0
0, 0
0, 0
1, 0
0, 1
0, 1
0, 0
1, 1
1, 2
0, 0
1, 0
1, 1
0, 0
2, 0
0, 1
0, 0
0, 0
1, 1
0, 0
2, 0
0, 0
0, 0
0, 0
0, 0
0, 0
0, 0
0, 0
0, 0
1, 0
3, 0
0, 0
0, 1
0, 0
0, 0
1, 1
0, 0
1, 0
0, 0
1, 0
0, 0
0, 0
1, 2
0, 0
1, 0
1, 1
1, 0
0, 0
1, 2
0, 0
1, 0
0, 0
0, 0
0, 0
1, 0
0, 1
1, 0
0, 0
0, 0
0, 0
0, 0
0, 0
0, 1
1, 1
0, 1
0, 0
1, 0
0, 1
0, 0
0, 0
0, 1
0, 1
0, 0
0, 1
0, 1
2, 0
0, 1
1, 0
1, 1
0, 0
0, 0
0, 0
0, 0
0, 0
0, 0
0, 0
1, 0
0, 0
2, 0
1, 0
0, 0
0, 0
0, 0
1, 1
1, 0
0, 0
0, 0
1, 0
1, 1
0, 0
1, 0
0, 0
0, 0
2, 0
0, 0
0, 0
0, 0
1, 0
0, 0
0, 0
0, 0
1, 0
1, 0
0, 0
0, 0
0, 0
1, 0
0, 0
0, 0
0, 0
0, 0
0, 0
0, 0
0, 0
0, 0
0, 0
0, 0
0, 0
1, 0
0, 0
0, 0
0, 0
0, 0
0, 0
0, 0
1, 1
0, 0
0, 0
0, 0
2, 0
0, 0
0, 0
0, 0
0, 0
0, 0
0, 0
1, 0
0, 1
0, 0
0, 0
1, 1
1, 0
0, 0
0, 0
2, 0
0, 0
0, 0
0, 0
0, 0
0, 0
0, 0
0, 0
0, 0
0, 0
0, 0
0, 0
0, 0
0, 0
0, 0
0, 0
0, 0
0, 0
0, 1
0, 0
0, 0
0, 0
0, 0
0, 0
0, 0
0, 0
0, 0
0, 0
0, 0
1, 0
0, 0
0, 0
1, 0
0, 0
0, 0
0, 0
0, 0
0, 0
0, 0
0, 0
0, 0
0, 0
0, 0
0, 0
0, 0
0, 0
0, 0
0, 0
0, 0
0, 0
0, 0
0, 0
0, 0
0, 0
0, 0
0, 0
0, 0
0, 0
0, 0
0, 0
0, 0
0, 0
0, 0
0, 0
0, 0
0, 0
0, 0
1, 0
0, 0
0, 0
1, 0
0, 0
0, 0
0, 0
0, 0
0, 0
1, 0
0, 0
0, 0
0, 0
0, 0
0, 0
0, 0
0, 0
0, 0
0, 0
0, 0
0, 0
0, 0
0, 0
0, 0
0, 0
0, 0
0, 0
0, 0
0, 0
0, 0
0, 0
0, 0
0, 0
0, 0
0, 0
0, 0
0, 0
0, 0
0, 0
0, 0
0, 0
0, 0
0, 0
0, 0
0, 0
0, 0
0, 0
0, 0
0, 0
0, 0
0, 0
0, 0
0, 0
0, 0
0, 0
0, 0
0, 0
0, 0
0, 0
0, 1
0, 0
0, 0
0, 0
0, 0
0, 0
0, 0
0, 0
0, 0
0, 0
0, 0
0, 0
0, 0
0, 0
0, 0
0, 0
0, 0
0, 0
0, 0
0, 0
0, 0
0, 0
0, 0
0, 0
0, 0
1, 0
0, 0
0, 0
0, 0
0, 0
0, 0
0, 0
0, 0
0, 0
0, 0
0, 0
0, 0
0, 0
0, 0
0, 0
0, 0
0, 0
0, 0
0, 0
0, 0
0, 0
0, 0
0, 0
0, 0
0, 0
0, 0
0, 0
0, 0
0, 0
0, 0
0, 0
0, 0
0, 0
0, 0
0, 0
0, 0
0, 0
0, 0
0, 0
0, 0
0, 0
0, 0
0, 0
0, 0
0, 0
0, 0
0, 0
0, 0
0, 0
0, 0
0, 0
0, 0
0, 0
0, 0
0, 0
0, 0
0, 0
0, 0
0, 0
0, 0
0, 0
0, 0
0, 0
0, 0
0, 0
0, 0
0, 0
0, 0
0, 0
0, 0
0, 0
0, 0
0, 0
0, 0
0, 0
0, 0
0, 0
0, 0
0, 0
0, 0
0, 0
0, 0
0, 0
0, 0
0, 0
0, 0
0, 0
0, 0
0, 0
0, 0
0, 0
0, 0
0, 0
0, 0
0, 0
0, 0
0, 0
0, 0
0, 0
0, 0
0, 0
0, 0
0, 0
0, 0
0, 0
0, 0
0, 0
0, 0
0, 0
0, 0
0, 0
0, 0
0, 0
0, 0
0, 0
0, 0
0, 0
0, 0
0, 0
0, 0
0, 0
0, 0
0, 0
0, 0
0, 0
0, 0
0, 0
0, 0
0, 0
0, 0
0, 0
0, 0
0, 0
0, 0
0, 0
0, 0
0, 0
0, 0
0, 0
0, 0
0, 0
0, 0
0, 0
0, 0
0, 0
0, 0
0, 0
0, 0
0, 0
0, 0
0, 0
0, 0
0, 0
0, 0
0, 0
0, 0
0, 0
0, 0
0, 0
0, 0
0, 0
0, 0
0, 0
0, 0
0, 0
0, 0
0, 0
0, 0
0, 0
0, 0
0, 0
0, 0
0, 0
0, 0
0, 0
0, 0
0, 0
0, 0
0, 0
0, 0
0, 0
0, 0
0, 0
0, 0
0, 0
0, 0
0, 0
0, 0
0, 0
0, 0
0, 0
0, 0
0, 0
0, 0
0, 0
0, 0
0, 0
0, 0
0, 0
0, 0
0, 0
0, 0
0, 0
0, 0
0, 0
0, 0
0, 0
0, 0
0, 0
0, 0
0, 0
0, 0
0, 0
0, 0
0, 0
0, 0
0, 0
0, 0
0, 0
0, 0
0, 0
0, 0
0, 0
0, 0
0, 0
0, 0
0, 0
0, 0
0, 0
0, 0
0, 0
0, 0
0, 0
0, 0
0, 0
0, 0
0, 0
0, 0
0, 0
0, 0
0, 0
0, 0
0, 0
0, 0
0, 0
0, 0
0, 0
0, 0
0, 0
0, 0
0, 0
0, 0
0, 0
0, 0
0, 0
0, 0
0, 0
0, 0
0, 0
0, 0
0, 0
0, 0
0, 0
0, 0
0, 0
0, 0
0, 0
0, 0
0, 0
0, 0
0, 0
0, 0
0, 0
0, 0
0, 0
0, 0
0, 0
0, 0
0, 0
0, 0
0, 0
0, 0
0, 0
0, 0
0, 0
0, 0
0, 0
0, 0
0, 0
0, 0
0, 0
0, 0
0, 0
0, 0
0, 0
0, 0
0, 0
0, 0
0, 0
0, 0
0, 0
0, 0
0, 0
0, 0
0, 0
0, 0
0, 0
0, 0
0, 0
0, 0
0, 0
0, 0
0, 0
0, 0
0, 0
0, 0
0, 0
0, 0
0, 0
0, 0
0, 0
0, 0
0, 0
0, 0
0, 0
0, 0
0, 0
0, 0
0, 0
0, 0
0, 0
0, 0
0, 0
0, 0
0, 0
0, 0
0, 0
0, 0
0, 0
0, 0
0, 0
0, 0
0, 0
0, 0
0, 0
0, 0
0, 0
0, 0
0, 0
0, 0
0, 0
0, 0
0, 0
0, 0
0, 0
0, 0
0, 0
0, 0
0, 0
0, 0
0, 0
0, 0
0, 0
0, 0
0, 0
0, 0
0, 0
0, 0
0, 0
0, 0
0, 0
0, 0
#ENDOFDATA     end of spectrum data