File: host_upload/12-01-2023/Dourbes (shot-by-shot)/upload_4/ps__0257_0689790785_000rfs_shot_3088.msa
#FORMAT      : EMSA/MAS spectral data file
#VERSION     : TC202v2.0 PIXL
#TITLE       : N/A
#DATE        :       Date in the format DD-MMM-YYYY, for example 07-JUL-2010
#TIME        :             The time of day at which the spectrum was recorded, in 24-hour format
#OWNER       : PIXL Flight Model       (PIXL will use this to indicate which instrument took the data.)
#NPOINTS     : 4096     Number of data points in the spectrum (This can be zero for configuration only files)
#NCOLUMNS    : 2     Number of data columns in the spectrum (This can be zero for configuration only files)
#XUNITS      : eV
#YUNITS      : COUNTS
#DATATYPE    : YY
#XPERCHAN    : 7.862, 7.881   eV per channel (separate by commas if more than one detector)
#OFFSET      : 18.5, -22.4         eV of first channel  (separate by commas if more than one detector
#SIGNALTYPE  : XRF
#YP_TEMP     : 3.069
#LIVETIME    : 9.00037, 9.01399   seconds (separate by commas if more than one detector)
#REALTIME    : 10, 10.0   seconds (separate by commas if more than one detector)
#SPECTRUM    : start of spectrum data
0, 0
0, 0
0, 0
0, 0
0, 0
0, 0
0, 0
0, 0
0, 0
0, 0
0, 0
0, 0
0, 0
0, 0
0, 0
0, 0
0, 0
0, 0
0, 0
0, 0
0, 0
0, 0
0, 0
0, 0
0, 0
0, 0
0, 0
0, 0
0, 0
0, 0
0, 0
0, 0
0, 0
0, 0
1, 0
0, 0
0, 0
2, 1
1, 1
2, 2
1, 1
2, 1
0, 0
1, 3
1, 2
0, 2
1, 1
2, 1
5, 3
5, 8
12, 10
19, 23
44, 21
44, 43
64, 51
40, 38
39, 45
19, 20
16, 15
6, 5
6, 5
5, 4
8, 2
6, 8
7, 5
9, 9
10, 9
10, 5
17, 10
40, 20
82, 74
158, 150
284, 280
418, 353
500, 468
479, 488
404, 388
321, 245
176, 173
100, 95
54, 47
34, 29
12, 14
10, 9
17, 14
9, 10
18, 22
14, 9
10, 17
13, 11
10, 6
3, 1
1, 1
2, 4
3, 2
4, 4
6, 6
2, 4
8, 0
8, 3
4, 6
2, 3
5, 3
3, 6
5, 0
2, 3
4, 5
7, 7
11, 9
29, 25
25, 30
45, 41
46, 49
53, 46
51, 52
42, 46
60, 36
34, 34
31, 21
30, 32
28, 23
31, 23
27, 19
23, 19
14, 14
9, 18
7, 13
8, 7
8, 13
6, 8
7, 6
6, 1
3, 3
3, 3
1, 7
5, 6
3, 2
3, 2
7, 2
5, 3
1, 5
6, 1
1, 2
5, 3
2, 3
5, 3
0, 4
4, 3
2, 3
1, 2
3, 6
10, 11
13, 14
27, 21
47, 30
52, 54
64, 69
57, 48
60, 58
62, 51
38, 37
39, 26
16, 17
17, 14
23, 23
29, 37
38, 38
58, 37
57, 37
78, 40
58, 31
67, 34
53, 16
31, 11
19, 12
12, 9
7, 7
16, 7
6, 4
6, 2
7, 3
6, 4
4, 2
8, 2
4, 5
4, 6
9, 10
9, 5
13, 8
9, 17
14, 11
28, 13
26, 21
24, 14
27, 16
17, 18
25, 24
18, 17
29, 16
13, 14
20, 11
19, 11
13, 10
22, 6
16, 8
12, 7
25, 13
18, 14
18, 18
7, 21
7, 24
13, 19
7, 19
16, 25
4, 20
6, 16
2, 19
5, 10
3, 4
4, 5
3, 6
4, 9
9, 10
9, 9
9, 11
11, 12
14, 13
14, 17
13, 17
20, 19
13, 17
22, 15
15, 16
15, 9
18, 13
18, 4
15, 10
19, 14
11, 5
15, 8
14, 13
9, 6
14, 11
12, 13
12, 15
25, 31
36, 51
49, 56
73, 63
87, 79
89, 95
103, 77
93, 81
68, 63
52, 52
46, 44
24, 22
25, 22
21, 20
20, 28
23, 25
36, 35
50, 60
82, 98
153, 221
306, 409
615, 781
1074, 1292
1675, 1899
2408, 2711
3090, 3252
3651, 3709
3834, 3752
3763, 3383
3130, 2741
2451, 2049
1764, 1393
1117, 832
631, 447
351, 249
175, 128
84, 58
34, 30
19, 13
23, 20
17, 18
14, 16
13, 16
8, 28
17, 27
26, 25
37, 45
55, 79
86, 113
123, 173
217, 217
309, 350
406, 394
499, 507
535, 548
543, 538
488, 476
418, 403
327, 266
206, 207
153, 130
96, 65
56, 29
33, 27
16, 9
8, 8
9, 2
6, 6
6, 1
6, 12
9, 6
5, 8
5, 7
7, 9
6, 8
10, 8
3, 4
7, 2
2, 11
1, 10
5, 2
1, 2
3, 10
4, 8
6, 5
4, 7
2, 5
3, 14
8, 14
8, 13
6, 5
7, 7
3, 7
6, 8
6, 10
3, 6
11, 4
7, 3
7, 6
6, 6
4, 5
5, 3
4, 3
5, 10
6, 4
6, 7
9, 2
3, 2
8, 8
7, 5
3, 8
4, 5
4, 5
3, 9
0, 9
0, 5
1, 7
1, 1
2, 3
9, 3
5, 5
3, 4
2, 5
6, 5
3, 5
6, 4
2, 4
4, 3
2, 4
5, 5
3, 8
5, 7
1, 6
3, 8
2, 7
3, 7
8, 6
2, 7
0, 3
3, 1
0, 1
4, 4
2, 3
4, 2
3, 1
2, 2
7, 5
0, 5
0, 5
4, 3
1, 6
2, 5
1, 4
5, 3
2, 6
4, 2
2, 1
3, 1
8, 5
3, 2
1, 0
3, 1
11, 2
3, 2
4, 6
5, 2
2, 4
4, 4
4, 3
3, 3
2, 4
3, 1
5, 3
1, 1
3, 6
2, 3
4, 5
3, 4
2, 4
4, 5
4, 3
5, 1
0, 0
1, 4
1, 3
1, 3
4, 4
6, 3
9, 4
5, 0
12, 1
3, 6
12, 2
6, 5
11, 5
13, 1
9, 4
5, 3
5, 4
6, 2
4, 2
2, 2
4, 2
0, 0
5, 2
6, 2
3, 1
4, 2
2, 2
1, 1
0, 2
4, 2
5, 3
3, 4
1, 3
2, 5
4, 5
2, 3
1, 5
3, 5
0, 4
0, 5
5, 1
2, 4
1, 4
3, 1
2, 3
0, 3
0, 2
3, 2
3, 2
4, 1
3, 2
6, 3
4, 2
3, 3
2, 1
3, 2
4, 3
2, 3
0, 0
0, 3
2, 4
0, 2
0, 0
1, 0
4, 1
1, 5
0, 1
4, 3
0, 4
1, 1
1, 0
2, 0
3, 0
2, 0
1, 2
1, 2
1, 3
3, 1
7, 0
2, 3
5, 3
2, 1
3, 3
0, 1
0, 6
2, 1
1, 1
2, 1
2, 4
2, 2
0, 2
2, 4
0, 1
4, 2
1, 1
1, 0
1, 0
2, 2
0, 1
1, 3
1, 6
1, 1
4, 2
1, 2
5, 1
2, 2
0, 1
4, 4
4, 1
4, 3
7, 5
3, 9
6, 6
6, 4
5, 8
8, 6
10, 5
6, 7
5, 7
1, 7
6, 3
5, 3
3, 0
2, 2
4, 1
2, 2
1, 1
2, 2
2, 1
3, 1
0, 2
0, 0
2, 4
3, 2
1, 3
1, 1
2, 1
3, 1
1, 1
0, 1
4, 1
3, 4
2, 4
4, 2
7, 4
2, 2
3, 2
0, 5
2, 0
0, 1
5, 1
3, 3
2, 0
1, 3
0, 0
3, 0
3, 0
1, 1
2, 2
2, 0
0, 2
2, 2
1, 3
1, 4
0, 1
0, 2
2, 3
1, 1
0, 0
0, 1
3, 0
0, 0
1, 0
1, 1
0, 0
1, 1
0, 1
2, 2
3, 2
1, 0
1, 1
3, 1
0, 1
2, 0
3, 0
2, 1
4, 0
1, 0
1, 2
2, 0
0, 0
0, 1
0, 1
0, 0
0, 0
1, 1
0, 0
1, 0
1, 3
1, 0
1, 0
0, 2
2, 1
0, 0
0, 1
0, 1
0, 1
2, 1
2, 2
1, 2
1, 0
1, 2
0, 0
1, 1
0, 0
0, 1
0, 1
0, 2
1, 1
1, 0
1, 0
0, 0
0, 1
0, 0
1, 1
1, 0
0, 0
0, 1
0, 1
0, 0
1, 0
0, 1
1, 0
0, 0
2, 0
1, 0
2, 0
0, 1
0, 0
0, 1
1, 2
0, 1
1, 0
0, 0
0, 0
2, 1
0, 0
0, 1
0, 0
0, 0
0, 0
0, 1
0, 1
0, 0
0, 1
1, 1
0, 0
0, 0
0, 1
1, 1
1, 0
0, 0
0, 0
1, 0
0, 0
1, 1
1, 0
0, 0
1, 0
0, 3
1, 1
0, 1
0, 0
0, 0
0, 0
0, 1
0, 0
0, 0
0, 0
0, 1
0, 0
0, 0
0, 0
1, 1
0, 0
1, 1
0, 0
0, 1
0, 0
1, 1
1, 0
0, 0
0, 0
0, 0
0, 1
0, 0
0, 0
0, 0
0, 0
1, 0
0, 0
0, 0
1, 0
0, 0
0, 1
0, 0
0, 0
1, 0
0, 0
0, 0
0, 0
0, 0
0, 0
0, 0
0, 0
0, 1
1, 0
2, 1
0, 0
0, 0
0, 0
0, 1
0, 0
0, 0
3, 0
0, 0
0, 0
0, 0
0, 0
1, 0
0, 0
0, 0
0, 0
0, 0
0, 0
0, 0
0, 1
0, 0
0, 1
0, 1
0, 0
1, 0
0, 0
0, 0
0, 0
0, 1
0, 0
1, 0
1, 1
0, 0
0, 0
0, 1
0, 0
0, 0
0, 0
1, 0
0, 1
1, 0
0, 0
0, 0
1, 0
0, 0
0, 0
0, 0
1, 1
0, 1
1, 0
0, 0
0, 0
1, 0
0, 1
0, 2
0, 0
0, 0
0, 1
1, 0
0, 0
0, 0
0, 1
0, 0
0, 1
1, 0
1, 0
1, 0
0, 0
0, 0
0, 0
0, 0
1, 0
0, 0
0, 1
1, 0
0, 0
0, 0
0, 0
0, 0
0, 0
0, 0
0, 0
0, 0
0, 0
0, 0
1, 0
0, 0
0, 0
0, 1
0, 0
0, 0
0, 0
0, 0
0, 0
0, 0
0, 1
0, 0
0, 0
0, 0
0, 0
0, 0
0, 0
0, 0
0, 1
1, 0
0, 0
0, 0
0, 1
0, 0
0, 0
0, 1
0, 0
0, 0
0, 0
0, 0
0, 0
0, 0
0, 0
0, 1
0, 0
1, 0
0, 0
0, 0
0, 0
0, 0
0, 0
0, 0
0, 0
1, 0
0, 0
0, 0
0, 0
0, 0
0, 0
0, 0
0, 0
0, 0
0, 0
0, 0
0, 0
0, 0
0, 0
0, 0
0, 0
0, 0
0, 0
0, 0
0, 0
0, 0
0, 0
0, 0
0, 0
0, 0
0, 0
0, 0
0, 0
0, 0
0, 0
1, 0
0, 0
0, 0
0, 0
0, 0
0, 0
0, 0
0, 0
0, 0
0, 1
0, 0
0, 0
0, 0
0, 0
0, 0
0, 0
0, 0
0, 0
0, 0
0, 0
1, 0
0, 0
0, 0
0, 0
0, 0
0, 0
0, 0
0, 0
0, 0
0, 0
0, 0
0, 0
0, 0
0, 0
0, 0
0, 0
0, 0
0, 0
0, 0
0, 0
0, 0
0, 0
0, 0
0, 0
0, 0
0, 0
0, 0
0, 0
0, 0
0, 0
0, 0
0, 0
0, 0
0, 0
0, 0
0, 0
0, 0
0, 0
0, 0
0, 0
0, 0
0, 0
0, 0
0, 0
0, 0
0, 0
0, 0
0, 0
0, 0
0, 0
0, 0
0, 0
0, 0
0, 0
0, 0
0, 0
0, 0
0, 0
0, 0
0, 0
0, 0
0, 0
0, 0
0, 0
0, 0
0, 0
0, 0
0, 0
0, 0
0, 0
0, 0
0, 0
0, 0
0, 0
0, 0
0, 0
0, 0
0, 0
0, 0
0, 0
0, 0
0, 0
0, 0
0, 0
0, 0
0, 0
0, 0
0, 0
0, 0
0, 0
0, 0
0, 0
0, 0
0, 0
0, 0
0, 0
0, 0
0, 0
0, 0
0, 0
0, 0
0, 0
0, 0
0, 0
0, 0
0, 0
0, 0
0, 0
0, 0
0, 0
0, 0
0, 0
0, 0
0, 0
0, 0
0, 0
0, 0
0, 0
0, 0
0, 0
0, 1
0, 0
0, 0
0, 0
0, 0
0, 0
0, 0
0, 0
0, 0
0, 0
0, 0
0, 0
0, 0
0, 0
0, 0
0, 0
0, 0
0, 0
0, 0
0, 0
0, 0
0, 0
0, 0
0, 0
0, 0
0, 0
0, 0
0, 0
0, 0
0, 0
0, 0
0, 0
0, 0
0, 0
0, 0
0, 0
0, 0
0, 0
0, 0
0, 0
0, 0
0, 0
0, 0
0, 0
0, 0
0, 0
0, 0
0, 0
0, 0
0, 0
0, 0
0, 0
0, 0
0, 0
0, 0
0, 0
0, 0
0, 0
0, 0
0, 0
0, 0
0, 0
0, 0
0, 0
0, 0
0, 0
0, 0
0, 0
0, 0
0, 0
0, 0
0, 0
0, 0
0, 0
0, 0
0, 0
0, 0
0, 0
0, 0
0, 0
0, 0
0, 0
0, 0
0, 0
0, 0
0, 0
0, 0
0, 0
0, 0
0, 0
0, 0
0, 0
0, 0
0, 0
0, 0
0, 0
0, 0
0, 0
0, 0
0, 0
0, 0
0, 0
0, 0
0, 0
0, 0
0, 0
0, 0
0, 0
0, 0
0, 0
0, 0
0, 0
0, 0
0, 0
0, 0
0, 0
0, 0
0, 0
0, 0
0, 0
0, 0
0, 0
0, 0
0, 0
0, 0
0, 0
0, 0
0, 0
0, 0
0, 0
0, 0
0, 0
0, 0
0, 0
0, 0
0, 0
0, 0
0, 0
0, 0
0, 0
0, 0
0, 0
0, 0
0, 0
0, 0
0, 0
0, 0
0, 0
0, 0
0, 0
0, 0
0, 0
0, 0
0, 0
0, 0
0, 0
0, 0
0, 0
0, 0
0, 0
0, 0
0, 0
0, 0
0, 0
0, 0
0, 0
0, 0
0, 0
0, 0
0, 0
0, 0
0, 0
0, 0
0, 0
0, 0
0, 0
0, 0
0, 0
0, 0
0, 0
0, 0
0, 0
0, 0
0, 0
0, 0
0, 0
0, 0
0, 0
0, 0
0, 0
0, 0
0, 0
0, 0
0, 0
0, 0
0, 0
0, 0
0, 0
0, 0
0, 0
0, 0
0, 0
0, 0
0, 0
0, 0
0, 0
0, 0
0, 0
0, 0
0, 0
0, 0
0, 0
0, 0
0, 0
0, 0
0, 0
0, 0
0, 0
0, 0
0, 0
0, 0
0, 0
0, 0
0, 0
0, 0
0, 0
0, 0
0, 0
0, 0
0, 0
0, 0
0, 0
0, 0
0, 0
0, 0
0, 0
0, 0
0, 0
0, 0
0, 0
0, 0
0, 0
0, 0
0, 0
0, 0
0, 0
0, 0
0, 0
0, 0
0, 0
0, 0
0, 0
0, 0
0, 0
0, 0
0, 0
0, 0
0, 0
0, 0
0, 0
0, 0
0, 0
0, 0
0, 0
0, 0
0, 0
0, 0
0, 0
0, 0
0, 0
0, 0
0, 0
0, 0
0, 0
0, 0
0, 0
0, 0
0, 0
0, 0
0, 0
0, 0
0, 0
0, 0
0, 0
0, 0
0, 0
0, 0
0, 0
0, 0
0, 0
0, 0
0, 0
0, 0
0, 0
0, 0
0, 0
0, 0
0, 0
0, 0
0, 0
0, 0
0, 0
0, 0
0, 0
0, 0
0, 0
0, 0
0, 0
0, 0
0, 0
0, 0
0, 0
0, 0
0, 0
0, 0
0, 0
0, 0
0, 0
0, 0
0, 0
0, 0
0, 0
0, 0
0, 0
#ENDOFDATA     end of spectrum data