File: host_upload/12-01-2023/Dourbes (shot-by-shot)/upload_4/ps__0257_0689790785_000rfs_shot_3199.msa
#FORMAT      : EMSA/MAS spectral data file
#VERSION     : TC202v2.0 PIXL
#TITLE       : N/A
#DATE        :       Date in the format DD-MMM-YYYY, for example 07-JUL-2010
#TIME        :             The time of day at which the spectrum was recorded, in 24-hour format
#OWNER       : PIXL Flight Model       (PIXL will use this to indicate which instrument took the data.)
#NPOINTS     : 4096     Number of data points in the spectrum (This can be zero for configuration only files)
#NCOLUMNS    : 2     Number of data columns in the spectrum (This can be zero for configuration only files)
#XUNITS      : eV
#YUNITS      : COUNTS
#DATATYPE    : YY
#XPERCHAN    : 7.862, 7.881   eV per channel (separate by commas if more than one detector)
#OFFSET      : 18.5, -22.4         eV of first channel  (separate by commas if more than one detector
#SIGNALTYPE  : XRF
#YP_TEMP     : 2.973
#LIVETIME    : 9.01548, 9.01407   seconds (separate by commas if more than one detector)
#REALTIME    : 10, 10.0   seconds (separate by commas if more than one detector)
#SPECTRUM    : start of spectrum data
0, 0
0, 0
0, 0
0, 0
0, 0
0, 0
0, 0
0, 0
0, 0
0, 0
0, 0
0, 0
0, 0
0, 0
0, 0
0, 0
0, 0
0, 0
0, 0
0, 0
0, 0
0, 0
0, 0
0, 0
0, 0
0, 0
0, 0
0, 0
0, 0
0, 0
0, 0
0, 0
0, 0
0, 0
1, 1
0, 1
0, 1
0, 3
1, 0
1, 1
0, 2
0, 3
1, 0
3, 1
1, 2
2, 0
3, 3
0, 6
5, 5
8, 7
20, 11
13, 23
47, 34
35, 55
49, 56
49, 61
35, 31
25, 34
8, 17
10, 6
9, 7
4, 10
11, 8
7, 11
10, 20
9, 6
13, 13
9, 9
14, 16
36, 45
81, 83
166, 168
309, 323
421, 436
517, 528
492, 522
427, 486
303, 324
176, 193
120, 111
57, 43
36, 24
12, 17
5, 1
7, 5
3, 2
4, 3
1, 0
1, 0
8, 1
0, 1
1, 3
4, 3
4, 3
5, 3
8, 12
9, 14
17, 15
21, 13
15, 9
13, 11
13, 12
5, 6
6, 8
8, 8
5, 2
3, 11
4, 17
16, 17
26, 31
33, 32
49, 48
62, 62
64, 71
64, 81
64, 88
48, 66
54, 41
46, 48
37, 35
26, 32
25, 26
20, 16
18, 25
25, 19
19, 15
18, 13
13, 11
13, 17
10, 5
10, 5
6, 7
4, 2
2, 2
7, 1
4, 4
4, 3
2, 7
5, 13
8, 6
13, 20
13, 21
15, 15
16, 11
6, 10
4, 4
6, 4
3, 7
5, 2
5, 3
5, 8
9, 6
10, 14
15, 23
27, 26
37, 40
39, 37
32, 49
36, 42
41, 33
29, 26
16, 12
8, 16
11, 4
4, 6
2, 4
4, 6
4, 6
11, 9
12, 9
11, 8
6, 13
5, 6
3, 11
5, 9
4, 11
7, 7
2, 5
3, 11
3, 7
8, 9
7, 8
7, 10
4, 13
8, 8
6, 8
13, 9
22, 8
16, 17
29, 16
47, 38
37, 32
46, 34
30, 37
36, 31
19, 24
24, 31
18, 28
17, 28
13, 13
13, 9
12, 11
13, 11
10, 14
7, 5
6, 8
8, 12
9, 9
8, 7
9, 10
7, 11
9, 15
8, 14
12, 8
11, 10
14, 8
10, 6
7, 11
13, 5
6, 5
4, 4
9, 8
10, 13
5, 10
12, 15
9, 13
10, 12
11, 16
18, 9
17, 16
11, 18
18, 9
15, 14
15, 17
22, 16
11, 15
13, 14
8, 13
8, 9
12, 10
10, 13
15, 15
14, 13
13, 22
22, 23
22, 32
41, 55
40, 60
72, 90
82, 95
81, 109
86, 118
80, 100
67, 81
39, 90
35, 67
28, 64
25, 43
25, 48
32, 38
28, 35
32, 44
47, 60
83, 120
151, 249
295, 409
642, 813
1002, 1295
1589, 1869
2285, 2722
2904, 3468
3385, 3586
3506, 3746
3352, 3388
2907, 2821
2201, 2067
1591, 1350
1010, 814
572, 434
307, 262
143, 115
89, 57
42, 39
32, 22
53, 20
51, 22
56, 10
56, 24
59, 24
63, 20
75, 33
69, 33
81, 57
113, 105
132, 161
196, 261
311, 314
381, 433
456, 508
437, 522
518, 527
496, 460
360, 380
310, 253
223, 197
136, 104
79, 65
52, 32
31, 18
14, 9
5, 4
5, 6
2, 4
7, 7
4, 5
14, 11
11, 10
6, 12
6, 9
8, 4
7, 5
3, 8
4, 2
3, 3
3, 4
5, 2
3, 3
4, 4
2, 0
5, 3
3, 2
4, 2
4, 4
4, 3
5, 3
2, 5
5, 4
5, 15
4, 7
4, 6
9, 3
5, 5
8, 8
3, 9
6, 6
4, 7
3, 6
5, 5
7, 6
6, 7
2, 8
4, 4
7, 6
5, 5
10, 2
2, 7
4, 5
3, 5
6, 4
2, 9
4, 6
8, 9
5, 5
3, 5
8, 2
8, 6
5, 6
6, 5
3, 5
6, 5
6, 3
2, 4
4, 3
3, 7
4, 3
1, 1
3, 4
5, 5
4, 4
2, 2
6, 4
3, 4
3, 1
4, 3
1, 1
5, 5
2, 2
5, 4
3, 0
5, 5
8, 8
4, 5
6, 4
6, 2
3, 2
5, 1
3, 2
5, 2
1, 3
5, 2
1, 2
5, 0
1, 1
6, 2
2, 3
5, 6
3, 3
1, 1
1, 2
5, 2
2, 7
5, 2
2, 3
3, 4
4, 4
4, 3
3, 2
2, 4
0, 3
2, 3
3, 3
2, 6
4, 3
3, 4
0, 2
3, 3
0, 3
2, 1
2, 3
3, 4
2, 2
2, 3
2, 4
3, 2
1, 3
0, 5
0, 3
2, 0
2, 2
2, 5
3, 3
6, 2
1, 3
3, 2
0, 2
1, 8
4, 3
1, 2
4, 1
2, 2
3, 3
3, 4
3, 3
1, 2
3, 4
2, 2
2, 2
2, 0
0, 4
1, 2
1, 3
2, 4
2, 4
3, 4
1, 2
5, 1
4, 5
3, 2
1, 1
3, 1
0, 1
2, 5
1, 0
3, 0
5, 2
3, 0
2, 3
3, 2
2, 1
1, 1
4, 0
4, 4
2, 3
1, 4
7, 1
2, 3
2, 2
3, 0
5, 3
3, 2
1, 3
3, 4
0, 4
2, 0
2, 0
1, 0
2, 2
3, 1
0, 1
1, 1
2, 0
4, 1
0, 4
3, 1
0, 0
3, 3
0, 3
0, 0
0, 3
3, 1
5, 2
1, 2
1, 2
1, 4
1, 1
4, 2
0, 2
1, 0
2, 2
0, 2
3, 1
1, 4
2, 2
2, 3
1, 2
0, 0
0, 1
1, 4
0, 0
0, 0
2, 1
3, 2
0, 2
2, 1
2, 2
2, 1
6, 2
0, 1
4, 2
5, 3
0, 3
7, 8
12, 9
7, 6
5, 7
3, 0
2, 7
5, 3
4, 4
5, 2
2, 1
1, 1
0, 0
2, 1
3, 0
3, 0
2, 1
0, 0
1, 0
3, 0
1, 1
0, 2
2, 0
1, 1
2, 1
2, 2
0, 0
2, 7
0, 2
2, 6
4, 0
3, 6
2, 3
4, 1
4, 1
4, 2
3, 0
3, 3
1, 0
0, 1
2, 0
1, 0
1, 1
4, 0
3, 2
0, 1
1, 2
0, 0
0, 2
1, 1
3, 2
0, 3
0, 4
0, 1
1, 3
0, 1
0, 1
1, 2
2, 0
3, 0
0, 0
0, 1
4, 0
1, 0
0, 1
1, 0
0, 2
0, 0
0, 1
1, 0
1, 2
0, 0
1, 1
1, 1
2, 0
0, 0
1, 1
0, 0
1, 0
0, 1
0, 1
1, 1
0, 0
0, 0
1, 0
0, 1
0, 4
0, 2
1, 1
0, 0
1, 0
1, 0
0, 0
0, 1
0, 1
0, 1
0, 2
1, 1
1, 1
3, 0
0, 2
1, 0
0, 0
0, 0
0, 0
0, 0
1, 1
2, 0
0, 0
0, 0
0, 0
0, 0
1, 0
1, 0
1, 1
0, 1
0, 0
1, 1
1, 1
1, 0
0, 1
0, 1
0, 1
1, 0
1, 1
0, 0
0, 0
1, 0
0, 1
0, 0
0, 0
2, 0
0, 0
2, 0
0, 1
0, 0
0, 1
0, 0
0, 0
0, 0
0, 2
1, 1
0, 0
0, 0
0, 0
0, 1
0, 0
0, 0
0, 0
0, 1
0, 0
3, 0
0, 1
1, 2
2, 3
1, 0
0, 0
2, 0
1, 0
1, 0
0, 1
0, 0
0, 1
0, 1
1, 1
2, 1
0, 2
1, 1
0, 0
0, 0
0, 1
1, 0
1, 1
1, 0
0, 1
0, 0
0, 0
0, 0
1, 0
0, 0
1, 1
0, 1
0, 0
0, 0
0, 0
0, 1
0, 0
1, 0
1, 0
0, 0
1, 1
2, 0
0, 1
0, 1
0, 0
0, 1
0, 0
0, 0
0, 0
0, 0
0, 0
0, 2
0, 0
1, 0
0, 0
0, 0
0, 0
0, 0
0, 0
2, 1
0, 0
1, 0
0, 0
0, 1
0, 0
0, 0
0, 0
0, 0
0, 0
1, 0
0, 0
0, 0
0, 0
0, 1
0, 0
0, 1
0, 0
1, 0
1, 1
0, 0
0, 0
1, 1
0, 0
0, 1
0, 0
0, 0
1, 0
0, 0
0, 0
0, 0
0, 0
0, 0
0, 0
0, 0
1, 0
0, 0
1, 0
0, 0
0, 0
0, 0
1, 1
1, 1
0, 0
0, 0
0, 1
0, 0
0, 0
0, 1
0, 0
0, 0
1, 0
0, 0
0, 0
0, 0
1, 1
0, 0
0, 1
0, 0
0, 0
0, 0
1, 0
0, 0
0, 0
0, 0
0, 0
0, 0
0, 0
0, 1
0, 0
0, 0
1, 0
0, 0
1, 0
0, 0
0, 0
0, 0
0, 0
0, 0
0, 0
0, 0
0, 1
0, 0
0, 0
0, 0
0, 0
0, 0
0, 0
0, 0
0, 0
0, 1
0, 0
0, 0
1, 0
0, 0
1, 0
0, 0
0, 0
0, 0
1, 0
0, 0
0, 1
0, 0
0, 0
0, 0
0, 0
0, 0
0, 0
0, 0
0, 0
0, 1
0, 0
0, 0
0, 0
0, 1
1, 0
0, 0
0, 0
0, 0
0, 0
1, 0
0, 0
0, 0
0, 0
0, 0
0, 0
0, 0
0, 1
0, 0
0, 0
0, 0
0, 0
1, 0
0, 0
0, 0
0, 0
0, 0
1, 0
0, 0
0, 0
0, 0
0, 0
0, 0
0, 0
1, 0
0, 0
0, 0
1, 0
0, 0
0, 0
0, 0
1, 0
0, 0
0, 0
0, 1
0, 0
1, 0
0, 0
0, 0
0, 0
0, 0
0, 0
0, 0
0, 0
0, 0
0, 0
0, 0
0, 0
0, 0
0, 0
0, 0
0, 0
0, 0
0, 0
1, 0
0, 0
0, 0
0, 0
0, 0
0, 0
0, 0
0, 0
0, 0
0, 0
0, 1
0, 0
1, 0
0, 0
0, 0
0, 0
0, 0
0, 0
0, 0
0, 0
0, 0
0, 0
0, 0
0, 0
0, 0
0, 0
0, 0
0, 0
0, 0
0, 0
0, 0
0, 0
0, 0
0, 0
0, 0
0, 0
0, 0
0, 0
0, 0
0, 0
0, 0
0, 0
0, 0
0, 0
0, 0
0, 0
0, 0
0, 0
0, 0
0, 0
0, 0
0, 0
0, 0
0, 0
0, 0
0, 0
0, 0
0, 0
0, 1
0, 0
0, 0
0, 0
0, 0
0, 0
1, 1
0, 0
0, 0
0, 0
0, 0
0, 0
0, 0
0, 0
0, 0
0, 0
0, 0
0, 0
0, 0
0, 0
0, 0
0, 0
0, 0
0, 0
0, 0
0, 0
0, 0
0, 0
0, 0
0, 0
0, 0
0, 0
0, 0
0, 0
0, 0
0, 0
0, 0
0, 0
0, 0
0, 0
0, 0
0, 0
0, 0
0, 0
0, 0
0, 0
0, 0
0, 0
0, 0
0, 0
0, 0
0, 0
0, 0
0, 0
0, 0
0, 0
0, 0
0, 0
0, 0
0, 0
0, 0
0, 0
0, 0
0, 0
0, 0
0, 0
0, 0
0, 0
0, 0
0, 0
0, 0
0, 0
0, 0
0, 0
0, 0
0, 0
0, 0
0, 0
0, 0
0, 0
0, 0
0, 0
0, 0
0, 0
0, 0
0, 0
0, 0
0, 0
0, 0
0, 0
0, 0
0, 0
0, 0
0, 0
0, 0
0, 0
0, 0
0, 0
0, 0
0, 0
0, 0
0, 0
0, 0
0, 0
0, 0
0, 0
0, 0
0, 0
0, 0
0, 0
0, 0
0, 0
0, 0
0, 0
0, 0
0, 0
0, 0
0, 0
0, 0
0, 0
0, 0
0, 0
0, 0
0, 0
0, 0
0, 0
0, 0
0, 0
0, 0
0, 0
0, 0
0, 0
0, 0
0, 0
0, 0
0, 0
0, 0
0, 0
0, 0
0, 0
0, 0
0, 0
0, 0
0, 0
0, 0
0, 0
0, 0
0, 0
0, 0
0, 0
0, 0
0, 0
0, 0
0, 0
0, 0
0, 0
0, 0
0, 0
0, 0
0, 0
0, 0
0, 0
0, 0
0, 0
0, 0
0, 0
0, 0
0, 0
0, 0
0, 0
0, 0
0, 0
0, 0
0, 0
0, 0
0, 0
0, 0
0, 0
0, 0
0, 0
0, 0
0, 0
0, 0
0, 0
0, 0
0, 0
0, 0
0, 0
0, 0
0, 0
0, 0
0, 0
0, 0
0, 0
0, 0
0, 0
0, 0
0, 0
0, 0
0, 0
0, 0
0, 0
0, 0
0, 0
0, 0
0, 0
0, 0
0, 0
0, 0
0, 0
0, 0
0, 0
0, 0
0, 0
0, 0
0, 0
0, 0
0, 0
0, 0
0, 0
0, 0
0, 0
0, 0
0, 0
0, 0
0, 0
0, 0
0, 0
0, 0
0, 0
0, 0
0, 0
0, 0
0, 0
0, 0
0, 0
0, 0
0, 0
0, 0
0, 0
0, 0
0, 0
0, 0
0, 0
0, 0
0, 0
0, 0
0, 0
0, 0
0, 0
0, 0
0, 0
0, 0
0, 0
0, 0
0, 0
0, 0
0, 0
0, 0
0, 0
0, 0
0, 0
0, 0
0, 0
0, 0
0, 0
0, 0
0, 0
0, 0
0, 0
0, 0
0, 0
0, 0
0, 0
0, 0
0, 0
0, 0
0, 0
0, 0
0, 0
0, 0
0, 0
0, 0
0, 0
0, 0
0, 0
0, 0
0, 0
0, 0
0, 0
0, 0
0, 0
0, 0
0, 0
0, 0
0, 0
0, 0
0, 0
0, 0
0, 0
0, 0
0, 0
0, 0
0, 0
0, 0
0, 0
0, 0
0, 0
0, 0
0, 0
0, 0
0, 0
0, 0
0, 0
0, 0
0, 0
0, 0
0, 0
0, 0
0, 0
0, 0
0, 0
0, 0
0, 0
0, 0
0, 0
0, 0
0, 0
0, 0
0, 0
0, 0
0, 0
0, 0
0, 0
0, 0
0, 0
0, 0
0, 0
0, 0
0, 0
0, 0
0, 0
0, 0
0, 0
0, 0
0, 0
0, 0
0, 0
0, 0
0, 0
0, 0
0, 0
0, 0
0, 0
0, 0
0, 0
0, 0
0, 0
0, 0
0, 0
0, 0
0, 0
0, 0
0, 0
0, 0
0, 0
0, 0
0, 0
0, 0
0, 0
0, 0
0, 0
0, 0
0, 0
0, 0
0, 0
0, 0
0, 0
0, 0
0, 0
0, 0
0, 0
0, 0
0, 0
0, 0
#ENDOFDATA     end of spectrum data