File: host_upload/12-01-2023/Dourbes (shot-by-shot)/upload_4/ps__0257_0689790785_000rfs_shot_3201.msa
#FORMAT      : EMSA/MAS spectral data file
#VERSION     : TC202v2.0 PIXL
#TITLE       : N/A
#DATE        :       Date in the format DD-MMM-YYYY, for example 07-JUL-2010
#TIME        :             The time of day at which the spectrum was recorded, in 24-hour format
#OWNER       : PIXL Flight Model       (PIXL will use this to indicate which instrument took the data.)
#NPOINTS     : 4096     Number of data points in the spectrum (This can be zero for configuration only files)
#NCOLUMNS    : 2     Number of data columns in the spectrum (This can be zero for configuration only files)
#XUNITS      : eV
#YUNITS      : COUNTS
#DATATYPE    : YY
#XPERCHAN    : 7.862, 7.881   eV per channel (separate by commas if more than one detector)
#OFFSET      : 18.5, -22.4         eV of first channel  (separate by commas if more than one detector
#SIGNALTYPE  : XRF
#YP_TEMP     : 3.005
#LIVETIME    : 9.04522, 9.03158   seconds (separate by commas if more than one detector)
#REALTIME    : 10, 10.0   seconds (separate by commas if more than one detector)
#SPECTRUM    : start of spectrum data
0, 0
0, 0
0, 0
0, 0
0, 0
0, 0
0, 0
0, 0
0, 0
0, 0
0, 0
0, 0
0, 0
0, 0
0, 0
0, 0
0, 0
0, 0
0, 0
0, 0
0, 0
0, 0
0, 0
0, 0
0, 0
0, 0
0, 0
0, 0
0, 0
0, 0
0, 0
0, 0
0, 1
0, 0
0, 0
0, 1
0, 4
0, 1
2, 3
4, 1
1, 1
2, 0
2, 0
1, 0
1, 4
0, 3
1, 2
3, 1
7, 2
4, 6
17, 7
23, 19
34, 45
33, 51
50, 48
44, 60
31, 29
22, 23
7, 11
5, 4
4, 6
7, 4
6, 6
8, 9
11, 10
11, 4
9, 4
9, 11
22, 16
30, 49
92, 107
218, 225
380, 379
506, 555
577, 669
571, 654
521, 556
342, 404
211, 265
131, 121
67, 78
37, 28
11, 16
6, 10
6, 8
4, 1
3, 4
2, 3
2, 3
2, 4
4, 0
1, 1
6, 4
4, 5
9, 9
13, 20
26, 15
29, 47
27, 34
39, 50
31, 39
22, 21
20, 18
13, 12
13, 6
6, 7
12, 11
18, 15
17, 27
30, 38
66, 65
79, 68
110, 106
105, 117
86, 123
104, 101
112, 68
93, 71
47, 54
58, 45
47, 40
39, 34
36, 41
28, 32
22, 21
23, 19
13, 16
10, 14
15, 11
10, 8
8, 11
4, 4
3, 5
3, 4
5, 6
2, 2
4, 3
8, 3
8, 4
4, 8
6, 6
6, 4
8, 3
6, 4
4, 7
3, 3
2, 3
6, 4
2, 1
8, 2
2, 4
7, 10
10, 15
11, 25
17, 26
39, 49
33, 70
36, 64
53, 55
45, 53
26, 29
25, 28
12, 11
9, 5
6, 5
6, 4
4, 9
3, 10
8, 8
11, 15
10, 11
16, 11
16, 11
9, 5
2, 8
6, 11
8, 6
5, 9
3, 7
5, 3
1, 8
3, 6
6, 2
6, 7
4, 5
1, 8
5, 10
7, 7
9, 15
13, 18
17, 20
20, 17
14, 22
19, 24
17, 31
23, 34
29, 31
21, 34
12, 27
15, 15
11, 25
9, 14
8, 12
7, 15
9, 11
7, 7
9, 9
7, 10
11, 6
9, 8
11, 17
6, 13
10, 9
11, 7
9, 8
8, 10
5, 7
12, 15
4, 14
5, 15
8, 13
12, 14
13, 12
19, 11
23, 17
15, 9
42, 8
38, 12
42, 17
66, 20
47, 10
51, 15
43, 15
37, 11
24, 14
20, 20
16, 12
10, 7
12, 19
7, 10
8, 17
10, 16
8, 20
10, 23
18, 19
20, 30
36, 47
48, 55
49, 70
71, 87
70, 112
66, 91
69, 75
55, 65
55, 55
36, 36
33, 29
26, 16
21, 24
13, 16
19, 38
31, 26
36, 51
79, 104
137, 207
294, 411
579, 758
867, 1210
1450, 1824
1994, 2569
2508, 3212
2967, 3432
3166, 3533
2912, 3185
2527, 2590
2014, 1907
1364, 1297
850, 816
509, 443
274, 199
115, 107
71, 66
39, 24
24, 19
26, 19
14, 19
17, 22
22, 28
13, 19
17, 18
25, 38
24, 43
59, 74
82, 112
120, 163
168, 215
239, 331
340, 426
399, 430
441, 511
526, 520
413, 448
313, 352
275, 248
202, 164
126, 95
72, 66
36, 35
22, 22
16, 10
9, 10
8, 12
6, 5
6, 8
5, 5
6, 8
10, 5
3, 9
6, 8
5, 4
6, 10
9, 8
7, 5
4, 9
4, 3
2, 5
4, 4
4, 4
1, 5
2, 5
6, 0
4, 6
5, 5
6, 5
3, 4
6, 4
1, 4
4, 2
3, 3
10, 5
6, 6
11, 12
15, 6
15, 7
19, 6
18, 6
16, 5
21, 9
11, 7
13, 4
18, 6
9, 7
6, 4
4, 6
4, 4
5, 5
4, 7
5, 4
4, 5
3, 6
3, 9
4, 4
6, 5
0, 8
4, 11
5, 7
9, 8
3, 6
3, 10
8, 7
2, 5
6, 5
8, 5
8, 3
8, 6
4, 3
3, 8
2, 1
3, 5
6, 1
2, 7
4, 5
2, 5
2, 7
3, 6
5, 4
5, 4
6, 0
3, 3
4, 4
4, 4
2, 13
6, 9
5, 6
5, 2
2, 5
5, 3
1, 6
4, 2
3, 3
5, 5
3, 2
5, 3
0, 2
1, 3
4, 3
3, 3
3, 2
5, 6
1, 2
4, 2
5, 2
4, 5
4, 0
4, 5
2, 3
0, 7
2, 3
1, 3
3, 3
4, 3
4, 0
3, 3
1, 6
5, 2
2, 2
1, 9
0, 6
6, 4
4, 7
4, 3
2, 7
1, 11
1, 17
3, 7
1, 13
1, 18
2, 16
5, 8
1, 10
2, 12
4, 11
1, 10
5, 6
2, 1
3, 4
0, 3
3, 5
1, 4
3, 3
0, 4
3, 3
3, 2
1, 4
4, 3
0, 0
3, 1
2, 3
2, 3
1, 1
1, 0
5, 2
2, 1
2, 2
2, 0
2, 6
2, 3
2, 3
2, 2
1, 2
4, 3
2, 4
0, 3
3, 2
2, 1
3, 3
1, 1
0, 3
1, 2
0, 3
2, 2
1, 3
0, 8
1, 2
1, 3
2, 2
0, 2
1, 1
1, 1
2, 2
1, 3
1, 5
2, 4
1, 2
2, 3
2, 4
0, 5
3, 7
2, 6
1, 3
2, 0
0, 2
1, 3
3, 3
3, 0
1, 3
2, 1
0, 3
1, 1
0, 3
2, 2
2, 1
2, 4
0, 1
0, 3
2, 0
2, 3
1, 4
2, 1
1, 4
2, 0
1, 2
2, 1
2, 1
0, 1
2, 0
1, 4
3, 1
0, 1
1, 1
2, 1
3, 1
1, 1
2, 0
0, 6
0, 0
4, 5
5, 3
6, 5
2, 3
3, 5
2, 8
11, 9
3, 5
8, 4
4, 1
3, 8
4, 2
2, 6
0, 4
3, 2
1, 0
2, 2
1, 1
2, 1
1, 2
2, 0
1, 3
0, 7
2, 4
4, 2
0, 1
0, 1
0, 5
1, 3
0, 1
2, 3
3, 3
2, 4
1, 3
2, 3
2, 1
3, 5
1, 2
5, 2
3, 2
1, 0
1, 0
2, 1
1, 2
3, 1
0, 0
1, 2
1, 3
1, 1
1, 0
2, 0
0, 2
2, 1
0, 0
1, 2
2, 0
0, 2
0, 1
3, 0
0, 1
1, 3
2, 0
0, 2
2, 3
1, 1
0, 0
0, 1
1, 0
0, 1
1, 0
0, 2
2, 2
0, 0
1, 1
0, 0
1, 0
0, 1
0, 0
0, 0
1, 2
2, 1
1, 1
1, 2
0, 2
1, 0
2, 2
1, 0
5, 0
2, 0
2, 2
0, 0
0, 3
0, 0
0, 1
0, 1
0, 0
1, 0
0, 0
1, 0
1, 1
0, 0
0, 1
0, 1
1, 0
0, 3
0, 0
0, 0
0, 0
0, 0
1, 1
0, 1
0, 0
0, 0
1, 0
0, 0
1, 2
0, 0
0, 2
1, 1
1, 2
1, 1
0, 0
0, 0
1, 0
2, 0
1, 0
1, 1
1, 0
1, 1
1, 0
0, 0
1, 1
0, 0
0, 0
0, 2
0, 1
2, 2
0, 0
0, 0
1, 1
1, 0
0, 0
0, 1
2, 1
0, 1
0, 1
0, 0
0, 0
0, 0
0, 1
0, 0
0, 0
0, 0
0, 1
1, 0
0, 0
0, 1
0, 0
0, 0
0, 0
1, 1
0, 0
0, 0
0, 1
0, 1
0, 0
0, 0
0, 0
1, 0
0, 2
0, 0
0, 0
0, 0
0, 0
0, 0
1, 1
2, 1
0, 1
1, 0
0, 0
1, 0
0, 0
0, 0
0, 1
0, 0
0, 0
0, 0
0, 0
0, 0
0, 0
0, 0
2, 0
1, 0
0, 0
0, 0
0, 1
0, 0
0, 0
0, 0
0, 0
1, 1
0, 0
1, 1
0, 0
0, 0
0, 0
1, 0
0, 1
1, 0
0, 0
0, 0
0, 0
0, 1
0, 0
1, 0
0, 0
0, 0
0, 0
0, 0
0, 1
0, 1
0, 0
1, 0
0, 0
0, 0
0, 1
0, 0
1, 0
0, 0
0, 0
1, 0
0, 0
0, 0
0, 0
1, 0
0, 2
0, 0
1, 1
0, 0
0, 1
0, 0
0, 0
0, 0
1, 0
0, 0
0, 1
1, 0
0, 0
0, 0
0, 0
0, 0
0, 0
0, 1
0, 1
0, 0
0, 0
0, 0
0, 0
0, 0
0, 0
0, 0
0, 0
1, 0
0, 1
1, 0
0, 0
1, 0
0, 0
0, 0
0, 0
0, 1
0, 0
0, 0
0, 1
0, 1
0, 0
0, 0
1, 0
0, 0
0, 0
0, 0
0, 0
1, 0
1, 0
0, 0
0, 1
0, 0
0, 0
0, 0
0, 0
0, 1
0, 0
0, 0
0, 0
0, 0
0, 0
0, 0
0, 0
1, 0
0, 0
0, 0
1, 0
0, 0
0, 0
0, 0
0, 0
0, 0
0, 0
0, 0
0, 0
0, 0
0, 0
0, 0
0, 0
1, 0
0, 2
0, 0
0, 1
1, 0
1, 0
0, 0
0, 0
0, 0
0, 0
0, 0
0, 0
0, 1
0, 0
0, 0
0, 0
0, 0
0, 0
0, 0
0, 0
0, 0
0, 1
1, 0
0, 0
0, 0
0, 0
0, 0
0, 0
1, 0
0, 0
0, 0
0, 0
0, 0
0, 1
0, 2
0, 0
0, 0
0, 0
0, 0
0, 0
1, 0
0, 0
0, 0
1, 0
0, 0
0, 0
0, 0
0, 0
0, 1
0, 0
0, 0
0, 0
0, 0
0, 0
0, 0
0, 0
0, 0
0, 1
0, 0
0, 0
0, 0
0, 0
0, 0
0, 0
0, 0
0, 0
0, 0
0, 0
0, 0
0, 0
0, 0
0, 0
0, 0
0, 0
0, 0
0, 0
0, 0
0, 0
0, 0
0, 0
0, 0
0, 0
0, 0
0, 0
0, 0
0, 0
0, 0
0, 0
0, 0
0, 0
0, 0
0, 0
0, 0
0, 0
0, 1
0, 0
0, 0
0, 0
0, 0
0, 0
0, 0
0, 0
0, 0
0, 0
0, 0
0, 0
0, 0
0, 0
0, 0
0, 0
0, 0
0, 0
0, 0
0, 0
0, 0
0, 0
0, 0
0, 0
0, 0
0, 0
0, 0
1, 0
1, 0
0, 0
0, 0
0, 0
0, 0
0, 0
0, 0
0, 0
0, 0
0, 0
0, 0
0, 0
0, 0
0, 0
0, 0
0, 0
0, 0
1, 0
0, 0
0, 0
0, 0
0, 0
0, 0
0, 0
0, 0
0, 0
0, 0
0, 0
0, 0
0, 0
0, 0
0, 0
0, 0
0, 0
0, 0
0, 0
0, 0
0, 0
0, 0
0, 0
0, 0
0, 0
0, 0
0, 0
0, 0
0, 0
0, 0
0, 0
0, 0
0, 0
0, 0
0, 0
0, 0
0, 0
0, 0
0, 0
0, 0
0, 0
0, 0
0, 0
0, 0
0, 0
0, 0
0, 0
0, 0
0, 0
0, 0
0, 0
0, 0
0, 0
0, 0
0, 0
0, 0
0, 0
0, 0
0, 0
0, 0
0, 0
0, 0
0, 0
0, 0
0, 0
0, 0
0, 0
0, 0
0, 0
0, 0
0, 0
0, 0
0, 0
0, 0
0, 0
0, 0
0, 0
0, 0
0, 0
0, 0
0, 0
0, 0
0, 0
0, 0
0, 0
0, 0
0, 0
0, 0
0, 0
0, 0
0, 0
0, 0
0, 0
0, 0
0, 0
0, 0
0, 0
0, 0
0, 0
0, 0
0, 0
0, 0
0, 0
0, 0
0, 0
0, 0
0, 0
0, 0
0, 0
0, 0
0, 0
0, 0
0, 0
0, 0
0, 0
0, 0
0, 0
0, 0
0, 0
0, 0
0, 0
0, 0
0, 0
0, 0
0, 0
0, 0
0, 0
0, 0
0, 0
0, 0
0, 0
0, 0
0, 0
0, 0
0, 0
0, 0
0, 0
0, 0
0, 0
0, 0
0, 0
0, 0
0, 0
0, 0
0, 0
0, 0
0, 0
0, 0
0, 0
0, 0
0, 0
0, 0
0, 0
0, 0
0, 0
0, 0
0, 0
0, 0
0, 0
0, 0
0, 0
0, 0
0, 0
0, 0
0, 0
0, 0
0, 0
0, 0
0, 0
0, 0
0, 0
0, 0
0, 0
0, 0
0, 0
0, 0
0, 0
0, 0
0, 0
0, 0
0, 0
0, 0
0, 0
0, 0
0, 0
0, 0
0, 0
0, 0
0, 0
0, 0
0, 0
0, 0
0, 0
0, 0
0, 0
0, 0
0, 0
0, 0
0, 0
0, 0
0, 0
0, 0
0, 0
0, 0
0, 0
0, 0
0, 0
0, 0
0, 0
0, 0
0, 0
0, 0
0, 0
0, 0
0, 0
0, 0
0, 0
0, 0
0, 0
0, 0
0, 0
0, 0
0, 0
0, 0
0, 0
0, 0
0, 0
0, 0
0, 0
0, 0
0, 0
0, 0
0, 0
0, 0
0, 0
0, 0
0, 0
0, 0
0, 0
0, 0
0, 0
0, 0
0, 0
0, 0
0, 0
0, 0
0, 0
0, 0
0, 0
0, 0
0, 0
0, 0
0, 0
0, 0
0, 0
0, 0
0, 0
0, 0
0, 0
0, 0
0, 0
0, 0
0, 0
0, 0
0, 0
0, 0
0, 0
0, 0
0, 0
0, 0
0, 0
0, 0
0, 0
0, 0
0, 0
0, 0
0, 0
0, 0
0, 0
0, 0
0, 0
0, 0
0, 0
0, 0
0, 0
0, 0
0, 0
0, 0
0, 0
0, 0
0, 0
0, 0
0, 0
0, 0
0, 0
0, 0
0, 0
0, 0
0, 0
0, 0
0, 0
0, 0
0, 0
0, 0
0, 0
0, 0
0, 0
0, 0
0, 0
0, 0
0, 0
0, 0
0, 0
0, 0
0, 0
0, 0
0, 0
0, 0
0, 0
0, 0
0, 0
0, 0
0, 0
0, 0
0, 0
0, 0
0, 0
0, 0
0, 0
0, 0
0, 0
0, 0
0, 0
0, 0
0, 0
0, 0
0, 0
0, 0
0, 0
0, 0
0, 0
0, 0
0, 0
0, 0
0, 0
0, 0
0, 0
0, 0
0, 0
0, 0
0, 0
0, 0
0, 0
0, 0
0, 0
0, 0
0, 0
0, 0
0, 0
0, 0
0, 0
0, 0
0, 0
0, 0
0, 0
0, 0
0, 0
0, 0
0, 0
0, 0
0, 0
0, 0
0, 0
0, 0
0, 0
0, 0
0, 0
#ENDOFDATA     end of spectrum data