File: host_upload/12-01-2023/Dourbes (shot-by-shot)/upload_4/ps__0257_0689790785_000rfs_shot_3157.msa
#FORMAT      : EMSA/MAS spectral data file
#VERSION     : TC202v2.0 PIXL
#TITLE       : N/A
#DATE        :       Date in the format DD-MMM-YYYY, for example 07-JUL-2010
#TIME        :             The time of day at which the spectrum was recorded, in 24-hour format
#OWNER       : PIXL Flight Model       (PIXL will use this to indicate which instrument took the data.)
#NPOINTS     : 4096     Number of data points in the spectrum (This can be zero for configuration only files)
#NCOLUMNS    : 2     Number of data columns in the spectrum (This can be zero for configuration only files)
#XUNITS      : eV
#YUNITS      : COUNTS
#DATATYPE    : YY
#XPERCHAN    : 7.862, 7.881   eV per channel (separate by commas if more than one detector)
#OFFSET      : 18.5, -22.4         eV of first channel  (separate by commas if more than one detector
#SIGNALTYPE  : XRF
#YP_TEMP     : 3.037
#LIVETIME    : 9.01653, 8.98945   seconds (separate by commas if more than one detector)
#REALTIME    : 10, 10.0   seconds (separate by commas if more than one detector)
#SPECTRUM    : start of spectrum data
0, 0
0, 0
0, 0
0, 0
0, 0
0, 0
0, 0
0, 0
0, 0
0, 0
0, 0
0, 0
0, 0
0, 0
0, 0
0, 0
0, 0
0, 0
0, 0
0, 0
0, 0
0, 0
0, 0
0, 0
0, 0
0, 0
0, 0
0, 0
0, 0
0, 0
1, 0
0, 1
0, 0
0, 1
0, 0
1, 0
1, 0
1, 0
0, 1
1, 2
2, 1
0, 0
0, 0
0, 0
2, 0
0, 1
1, 0
2, 2
3, 2
7, 2
13, 9
25, 26
34, 42
48, 54
50, 71
52, 42
41, 36
31, 24
13, 10
11, 8
8, 0
3, 0
3, 1
3, 4
2, 7
3, 2
5, 6
6, 6
8, 12
31, 37
94, 84
177, 173
256, 276
425, 417
473, 508
470, 530
410, 398
307, 283
185, 184
101, 99
57, 53
25, 27
19, 15
6, 8
1, 5
2, 3
0, 4
6, 2
0, 2
2, 1
0, 0
2, 0
2, 0
1, 3
4, 4
1, 5
4, 2
0, 5
3, 4
8, 5
4, 5
3, 3
2, 1
0, 2
1, 6
2, 3
4, 2
10, 5
14, 13
24, 24
25, 29
31, 27
40, 41
46, 42
53, 39
41, 43
39, 40
37, 28
24, 23
21, 23
21, 25
20, 26
16, 27
27, 14
15, 29
19, 21
8, 23
12, 19
14, 9
13, 7
10, 5
11, 5
6, 5
4, 5
4, 1
2, 5
3, 1
3, 3
0, 4
4, 3
2, 4
3, 2
2, 2
2, 4
2, 2
1, 1
4, 4
2, 2
5, 0
3, 0
4, 7
8, 10
9, 14
30, 21
37, 44
52, 55
57, 55
73, 60
67, 72
47, 39
36, 44
38, 28
16, 12
11, 6
6, 6
8, 3
4, 4
8, 8
7, 6
11, 8
10, 12
15, 22
8, 9
9, 17
7, 15
9, 9
8, 7
9, 11
8, 17
5, 3
9, 3
4, 3
5, 5
7, 4
5, 9
5, 13
10, 27
9, 40
20, 52
20, 89
19, 64
15, 111
24, 92
18, 74
21, 59
21, 48
32, 48
22, 29
25, 32
19, 25
13, 14
12, 13
16, 4
6, 8
8, 4
7, 8
6, 7
7, 7
15, 4
4, 9
7, 12
8, 6
6, 7
3, 8
2, 4
7, 9
5, 7
7, 3
12, 6
4, 5
8, 10
5, 3
6, 7
8, 13
12, 9
9, 9
12, 11
14, 13
8, 10
11, 10
14, 11
14, 17
18, 15
11, 14
10, 13
6, 10
8, 12
11, 11
6, 23
6, 17
3, 16
7, 21
10, 14
15, 30
15, 19
29, 36
47, 43
58, 57
62, 63
101, 90
99, 91
100, 98
90, 91
83, 78
61, 57
40, 46
44, 24
24, 35
21, 28
20, 24
21, 38
27, 59
45, 80
85, 115
143, 222
343, 461
625, 815
1074, 1331
1705, 2038
2314, 2742
3037, 3550
3519, 3855
3733, 3800
3492, 3634
3065, 2887
2316, 2097
1658, 1447
1065, 864
592, 478
340, 240
152, 109
80, 58
38, 25
20, 19
21, 15
14, 10
18, 24
14, 15
20, 26
24, 21
31, 38
36, 43
51, 66
81, 101
167, 167
197, 255
248, 335
363, 463
480, 557
547, 615
574, 578
491, 488
393, 367
290, 263
246, 173
149, 129
84, 73
36, 33
28, 20
22, 12
6, 4
13, 4
12, 5
15, 7
13, 2
12, 7
11, 10
11, 8
15, 12
12, 7
8, 7
11, 7
12, 4
4, 1
6, 5
10, 2
3, 5
1, 5
3, 5
5, 9
7, 5
3, 9
4, 16
2, 16
2, 12
5, 8
5, 6
3, 4
4, 6
1, 4
2, 7
3, 4
3, 4
7, 6
2, 6
7, 9
6, 5
5, 9
3, 7
5, 8
9, 13
3, 5
2, 3
4, 6
2, 2
7, 2
3, 4
3, 3
4, 3
3, 4
5, 4
5, 4
3, 4
3, 4
1, 3
5, 9
3, 2
5, 6
5, 2
6, 3
3, 1
4, 2
2, 2
2, 5
1, 3
5, 1
4, 2
4, 3
2, 3
4, 5
1, 7
2, 3
2, 4
4, 6
1, 3
5, 4
2, 5
0, 3
1, 2
1, 4
5, 3
1, 3
1, 5
4, 1
2, 3
0, 3
5, 2
5, 3
3, 3
3, 7
0, 5
1, 4
0, 4
4, 6
3, 11
2, 4
4, 5
2, 5
1, 6
6, 7
4, 5
2, 6
2, 0
3, 4
4, 9
4, 2
3, 3
3, 4
2, 3
1, 5
2, 1
3, 2
3, 1
4, 2
1, 4
1, 1
3, 2
5, 2
5, 3
1, 1
2, 2
2, 3
7, 2
3, 3
0, 2
3, 0
0, 1
2, 3
1, 1
3, 1
2, 4
2, 1
4, 2
3, 1
2, 2
5, 3
2, 3
2, 3
3, 3
3, 7
1, 1
3, 4
0, 4
1, 3
2, 2
5, 3
7, 4
2, 1
2, 0
5, 1
3, 5
5, 1
5, 1
3, 3
6, 2
1, 0
5, 4
3, 4
2, 6
3, 4
1, 2
1, 2
0, 3
3, 1
3, 0
4, 2
2, 1
5, 0
4, 1
3, 0
2, 0
1, 2
2, 2
3, 1
1, 1
2, 3
3, 2
1, 3
4, 0
4, 0
6, 0
2, 1
1, 0
1, 1
2, 2
3, 4
1, 0
3, 3
2, 1
3, 2
2, 0
3, 0
3, 0
5, 0
4, 4
3, 2
4, 2
2, 0
1, 0
4, 1
0, 0
2, 1
2, 1
1, 1
0, 2
1, 2
1, 3
3, 2
2, 2
2, 3
2, 7
3, 1
2, 2
3, 5
1, 5
3, 7
3, 5
1, 3
3, 5
1, 5
1, 3
1, 2
1, 1
7, 6
1, 2
5, 3
3, 4
2, 5
3, 6
5, 6
5, 5
6, 11
4, 6
4, 4
6, 8
9, 5
6, 6
5, 1
5, 2
3, 2
3, 1
2, 0
3, 0
1, 0
2, 1
1, 2
1, 3
1, 0
0, 4
1, 0
1, 1
1, 0
0, 1
1, 2
1, 3
2, 1
0, 4
2, 2
2, 3
1, 4
2, 2
2, 3
3, 4
2, 3
2, 2
1, 1
1, 2
0, 1
1, 0
0, 0
1, 1
2, 1
3, 0
1, 1
2, 0
0, 0
1, 0
2, 1
0, 1
1, 0
0, 0
0, 2
3, 1
0, 1
2, 3
1, 0
1, 2
2, 0
1, 0
1, 1
0, 0
0, 1
1, 0
0, 0
0, 0
1, 0
1, 1
2, 1
0, 0
3, 1
1, 1
1, 0
0, 0
1, 0
0, 0
0, 0
0, 0
1, 2
2, 2
0, 1
0, 1
0, 0
0, 0
1, 0
2, 2
0, 0
1, 1
0, 0
1, 3
1, 1
1, 0
0, 2
0, 0
0, 1
0, 0
0, 1
0, 1
0, 0
1, 0
0, 1
2, 1
0, 0
0, 0
0, 2
0, 0
0, 1
1, 2
0, 1
0, 1
1, 0
0, 0
1, 0
1, 0
1, 2
0, 0
3, 0
0, 0
1, 0
0, 0
0, 0
1, 1
0, 0
0, 0
1, 0
0, 3
0, 1
3, 1
0, 0
0, 1
0, 0
1, 1
0, 0
1, 0
0, 1
1, 0
0, 0
0, 0
2, 1
1, 0
0, 1
0, 0
0, 0
0, 0
0, 1
0, 1
0, 1
0, 0
0, 0
1, 0
0, 0
0, 0
1, 0
0, 0
0, 0
0, 1
1, 1
0, 0
1, 0
0, 0
2, 2
1, 0
0, 0
0, 0
0, 0
0, 0
0, 0
0, 0
0, 0
0, 0
2, 0
0, 0
0, 2
1, 0
0, 0
1, 1
0, 0
0, 0
0, 1
0, 1
0, 0
0, 0
0, 0
0, 2
2, 0
0, 1
2, 0
1, 2
0, 0
0, 0
0, 1
0, 0
0, 0
0, 0
0, 0
0, 0
1, 0
0, 0
0, 1
1, 0
0, 0
0, 0
0, 0
0, 0
0, 0
0, 0
1, 0
0, 0
1, 0
0, 0
0, 0
1, 0
0, 0
1, 0
1, 0
1, 0
0, 0
0, 1
0, 0
0, 0
0, 0
0, 0
0, 0
0, 0
0, 0
0, 0
0, 0
0, 0
0, 1
0, 1
0, 0
0, 0
0, 0
0, 0
0, 0
0, 0
0, 0
0, 1
0, 0
0, 0
0, 0
0, 0
0, 0
2, 0
0, 0
2, 0
0, 0
2, 0
1, 0
0, 0
1, 0
1, 0
2, 1
0, 0
0, 0
0, 0
0, 0
2, 1
0, 2
0, 0
0, 0
0, 0
1, 0
1, 0
0, 0
1, 0
0, 1
0, 0
0, 0
0, 0
0, 0
0, 0
0, 0
0, 0
0, 1
0, 0
0, 0
0, 0
0, 0
0, 0
0, 0
0, 0
0, 0
0, 2
0, 0
0, 0
0, 0
1, 0
0, 0
0, 1
1, 0
0, 0
0, 0
0, 0
0, 0
0, 0
0, 0
0, 0
0, 0
0, 2
0, 0
0, 0
0, 0
1, 1
0, 0
0, 0
0, 0
0, 0
0, 0
0, 0
0, 0
0, 0
0, 0
1, 0
0, 0
0, 0
0, 0
0, 0
1, 0
0, 0
0, 0
0, 0
0, 0
0, 0
0, 0
0, 0
0, 0
0, 0
0, 0
1, 0
0, 0
0, 0
0, 0
0, 0
1, 0
0, 0
0, 1
0, 0
0, 0
0, 0
0, 0
0, 0
0, 0
0, 0
0, 0
0, 0
0, 0
0, 0
0, 0
0, 0
0, 0
0, 0
0, 0
1, 0
0, 0
0, 0
0, 1
0, 0
0, 0
0, 0
0, 0
0, 0
0, 0
0, 0
0, 0
0, 0
0, 0
0, 0
0, 1
0, 0
0, 0
0, 0
0, 0
0, 0
0, 0
0, 0
0, 0
0, 0
0, 0
0, 0
0, 0
0, 0
0, 0
0, 0
0, 0
0, 0
0, 0
0, 0
0, 0
0, 0
0, 0
0, 0
0, 0
0, 0
0, 0
0, 0
0, 0
0, 0
0, 0
0, 0
0, 0
0, 0
0, 0
0, 0
0, 0
0, 0
0, 0
0, 0
0, 0
0, 0
0, 0
0, 1
0, 0
0, 0
0, 0
0, 0
0, 0
0, 0
0, 0
0, 0
0, 0
0, 0
0, 0
0, 0
0, 0
0, 0
0, 0
0, 0
0, 0
0, 0
0, 0
0, 0
0, 0
0, 0
0, 0
0, 0
0, 0
0, 0
0, 0
0, 0
0, 0
0, 0
0, 0
0, 1
0, 0
0, 0
0, 0
0, 0
0, 0
0, 0
0, 0
0, 0
0, 0
0, 0
0, 0
0, 0
0, 0
0, 0
0, 0
0, 0
0, 0
0, 0
0, 0
0, 0
0, 0
0, 0
0, 0
0, 0
0, 0
0, 0
0, 0
0, 0
0, 0
0, 0
0, 0
0, 0
0, 0
0, 0
0, 0
0, 0
0, 0
0, 0
0, 0
0, 0
0, 0
0, 0
0, 0
0, 0
0, 0
0, 0
0, 0
0, 0
0, 0
0, 0
0, 0
0, 0
0, 0
0, 0
0, 0
0, 0
0, 0
0, 0
0, 0
0, 0
0, 0
0, 0
0, 0
0, 0
0, 0
0, 0
0, 0
0, 0
0, 0
0, 0
0, 0
0, 0
0, 0
0, 0
0, 0
0, 0
0, 0
0, 0
0, 0
0, 0
0, 0
0, 0
0, 0
0, 0
0, 0
0, 0
0, 0
0, 1
0, 0
0, 0
0, 0
0, 0
0, 0
0, 0
0, 0
0, 0
0, 0
0, 0
0, 0
0, 0
0, 0
0, 0
0, 0
0, 0
0, 0
0, 0
0, 0
0, 0
0, 0
0, 0
0, 0
0, 0
0, 0
0, 0
0, 0
0, 0
0, 0
0, 0
0, 0
0, 0
0, 0
0, 0
0, 0
0, 0
0, 0
0, 0
0, 0
0, 0
0, 0
0, 0
0, 0
0, 0
0, 0
0, 0
0, 0
0, 0
0, 0
0, 0
0, 0
0, 0
0, 0
0, 0
0, 0
0, 0
0, 0
0, 0
0, 0
0, 0
0, 0
0, 0
0, 0
0, 0
0, 0
0, 0
0, 0
0, 0
0, 0
0, 0
0, 0
0, 0
0, 0
0, 0
0, 0
0, 0
0, 0
0, 0
0, 0
0, 0
0, 0
0, 0
0, 0
0, 0
0, 0
0, 0
0, 0
0, 0
0, 0
0, 0
0, 0
0, 0
0, 0
0, 0
0, 0
0, 0
0, 0
0, 0
0, 0
0, 0
0, 0
0, 0
0, 0
0, 0
0, 0
0, 0
0, 0
0, 0
0, 0
0, 0
0, 0
0, 0
0, 0
0, 0
0, 0
0, 0
0, 0
0, 0
0, 0
0, 0
0, 0
0, 0
0, 0
0, 0
0, 0
0, 0
0, 0
0, 0
0, 0
0, 0
0, 0
0, 0
0, 0
0, 0
0, 0
0, 0
0, 0
0, 0
0, 0
0, 0
0, 0
0, 0
0, 0
0, 0
0, 0
0, 0
0, 0
0, 0
0, 0
0, 0
0, 0
0, 0
0, 0
0, 0
0, 0
0, 0
0, 0
0, 0
0, 0
0, 0
0, 0
0, 0
0, 0
0, 0
0, 0
0, 0
0, 0
0, 0
0, 0
0, 0
0, 0
0, 0
0, 0
0, 0
0, 0
0, 0
0, 0
0, 0
0, 0
0, 0
0, 0
0, 0
0, 0
0, 0
0, 0
0, 0
0, 0
0, 0
0, 0
0, 0
0, 0
0, 0
0, 0
0, 0
0, 0
0, 0
0, 0
0, 0
0, 0
0, 0
0, 0
0, 0
0, 0
0, 0
0, 0
0, 0
0, 0
0, 0
0, 0
0, 0
0, 0
0, 0
0, 0
0, 0
0, 0
0, 0
0, 0
0, 0
0, 0
0, 0
0, 0
0, 0
0, 0
0, 0
0, 0
0, 0
0, 0
0, 0
0, 0
0, 0
0, 0
0, 0
0, 0
0, 0
0, 0
0, 0
0, 0
0, 0
0, 0
0, 0
0, 0
0, 0
0, 0
0, 0
0, 0
0, 0
0, 0
0, 0
0, 0
0, 0
0, 0
0, 0
0, 0
0, 0
0, 0
0, 0
0, 0
0, 0
0, 0
0, 0
0, 0
0, 0
0, 0
0, 0
0, 0
0, 0
0, 0
0, 0
0, 0
0, 0
0, 0
0, 0
0, 0
0, 0
0, 0
0, 0
0, 0
0, 0
0, 0
0, 0
0, 0
0, 0
0, 0
0, 0
0, 0
0, 0
0, 0
0, 0
0, 0
0, 0
0, 0
0, 0
0, 0
0, 0
0, 0
#ENDOFDATA     end of spectrum data