File: host_upload/12-01-2023/Dourbes (shot-by-shot)/upload_4/ps__0257_0689790785_000rfs_shot_3152.msa
#FORMAT      : EMSA/MAS spectral data file
#VERSION     : TC202v2.0 PIXL
#TITLE       : N/A
#DATE        :       Date in the format DD-MMM-YYYY, for example 07-JUL-2010
#TIME        :             The time of day at which the spectrum was recorded, in 24-hour format
#OWNER       : PIXL Flight Model       (PIXL will use this to indicate which instrument took the data.)
#NPOINTS     : 4096     Number of data points in the spectrum (This can be zero for configuration only files)
#NCOLUMNS    : 2     Number of data columns in the spectrum (This can be zero for configuration only files)
#XUNITS      : eV
#YUNITS      : COUNTS
#DATATYPE    : YY
#XPERCHAN    : 7.862, 7.881   eV per channel (separate by commas if more than one detector)
#OFFSET      : 18.5, -22.4         eV of first channel  (separate by commas if more than one detector
#SIGNALTYPE  : XRF
#YP_TEMP     : 3.165
#LIVETIME    : 9.1301, 9.13433   seconds (separate by commas if more than one detector)
#REALTIME    : 10, 10.0   seconds (separate by commas if more than one detector)
#SPECTRUM    : start of spectrum data
0, 0
0, 0
0, 0
0, 0
0, 0
0, 0
0, 0
0, 0
0, 0
0, 0
0, 0
0, 0
0, 0
0, 0
0, 0
0, 0
0, 0
0, 0
0, 0
0, 0
0, 0
0, 0
0, 0
0, 0
0, 0
0, 0
0, 0
0, 0
0, 0
0, 0
0, 0
0, 0
0, 0
0, 0
0, 0
0, 0
1, 3
1, 3
0, 1
3, 1
0, 2
4, 0
2, 3
0, 2
3, 0
3, 0
1, 2
1, 5
3, 4
10, 6
12, 10
25, 10
37, 25
42, 43
51, 37
45, 47
17, 26
18, 22
17, 15
6, 2
6, 4
12, 5
10, 14
8, 11
7, 8
7, 15
15, 10
17, 8
23, 11
47, 51
123, 100
255, 246
400, 381
574, 593
710, 680
689, 722
571, 587
438, 434
293, 251
148, 118
78, 70
47, 40
25, 23
22, 23
20, 17
9, 10
6, 10
9, 5
9, 2
3, 2
7, 2
0, 1
1, 4
2, 4
1, 4
2, 6
9, 8
10, 7
7, 4
6, 12
7, 5
4, 9
6, 2
4, 8
3, 6
5, 7
7, 11
15, 15
12, 10
20, 19
29, 19
27, 34
33, 48
56, 45
67, 59
74, 45
57, 56
58, 54
45, 42
36, 36
36, 39
29, 44
23, 40
36, 37
33, 43
23, 26
26, 26
27, 18
20, 18
14, 8
9, 11
7, 9
8, 9
2, 5
6, 6
0, 3
3, 6
4, 4
7, 3
6, 3
4, 6
3, 4
5, 5
1, 2
3, 5
7, 7
6, 7
7, 5
14, 13
18, 16
35, 49
82, 75
174, 172
310, 335
521, 566
740, 756
931, 954
923, 974
874, 889
743, 773
580, 501
349, 301
182, 173
92, 94
54, 55
47, 43
39, 49
71, 81
106, 106
115, 113
139, 139
157, 149
137, 131
108, 116
79, 60
59, 44
25, 19
15, 14
12, 6
6, 7
8, 5
8, 4
3, 3
6, 8
5, 6
14, 3
15, 6
20, 15
18, 16
27, 25
44, 40
34, 40
46, 41
52, 28
24, 33
22, 29
18, 20
19, 14
15, 22
12, 16
12, 6
8, 10
11, 4
5, 7
8, 3
9, 9
7, 13
5, 17
11, 8
11, 13
13, 16
18, 20
11, 17
11, 6
8, 10
12, 5
8, 3
6, 6
7, 7
4, 1
7, 11
4, 7
8, 7
8, 12
18, 15
10, 24
25, 23
37, 34
24, 46
39, 64
40, 44
61, 49
43, 54
48, 42
23, 16
20, 23
16, 9
15, 6
10, 5
7, 8
9, 7
6, 11
5, 10
9, 11
11, 16
21, 26
28, 32
38, 49
55, 70
50, 69
58, 74
65, 78
88, 62
48, 70
47, 43
27, 34
29, 34
14, 14
16, 14
23, 15
21, 10
25, 26
21, 31
58, 38
62, 107
170, 153
268, 345
449, 535
665, 825
948, 1119
1269, 1392
1447, 1473
1527, 1562
1480, 1392
1273, 1159
1014, 817
645, 559
458, 341
256, 187
145, 85
73, 62
42, 28
24, 19
11, 13
9, 11
12, 11
7, 8
10, 11
7, 14
14, 19
22, 19
23, 25
24, 36
44, 52
64, 81
89, 112
134, 154
169, 210
187, 228
239, 219
219, 256
205, 208
174, 160
131, 112
79, 96
70, 50
43, 33
30, 18
24, 11
10, 15
11, 9
13, 7
10, 5
17, 6
9, 4
14, 3
13, 9
13, 10
15, 9
12, 13
5, 5
7, 9
7, 6
7, 4
6, 5
5, 9
5, 9
5, 7
10, 6
5, 8
6, 3
8, 7
7, 8
2, 12
8, 9
7, 7
6, 5
8, 8
6, 9
6, 6
8, 7
3, 6
8, 8
8, 1
4, 10
4, 7
14, 8
5, 7
14, 4
12, 7
10, 5
12, 0
14, 8
3, 6
3, 8
6, 7
10, 6
6, 7
7, 6
4, 4
9, 5
6, 6
6, 1
6, 4
3, 10
7, 3
8, 5
4, 7
6, 9
9, 5
4, 5
10, 6
0, 4
2, 6
7, 3
5, 6
6, 6
5, 6
4, 8
3, 8
4, 6
6, 2
6, 10
3, 7
4, 3
4, 6
8, 4
9, 8
5, 5
6, 6
9, 3
8, 5
7, 3
4, 4
8, 7
5, 5
5, 4
7, 3
4, 7
3, 3
9, 4
5, 4
3, 4
1, 5
7, 5
9, 4
6, 5
5, 7
2, 5
8, 10
4, 9
3, 10
5, 6
6, 12
4, 10
5, 15
4, 11
3, 7
7, 7
8, 7
4, 11
4, 7
9, 4
3, 6
7, 5
6, 6
3, 7
10, 9
6, 5
6, 6
6, 4
4, 8
3, 1
2, 6
2, 1
4, 1
1, 4
3, 4
4, 1
3, 5
8, 5
2, 6
3, 5
1, 2
6, 2
2, 2
2, 0
2, 2
8, 4
3, 2
6, 1
9, 2
1, 4
3, 4
1, 3
2, 5
5, 4
1, 3
2, 6
6, 4
2, 2
3, 2
6, 0
4, 3
3, 3
1, 3
3, 4
4, 4
4, 3
6, 6
5, 2
4, 3
5, 2
1, 0
5, 3
1, 2
5, 2
1, 5
4, 0
3, 3
1, 5
1, 2
1, 4
5, 3
2, 4
8, 5
5, 4
4, 1
2, 6
2, 2
5, 7
2, 6
2, 4
6, 2
4, 5
2, 3
2, 3
1, 4
4, 3
1, 4
4, 2
2, 4
3, 1
1, 3
1, 1
1, 2
0, 1
2, 0
3, 1
2, 2
2, 2
4, 3
4, 1
2, 0
7, 2
5, 1
3, 1
5, 4
8, 2
4, 2
4, 5
5, 7
2, 2
2, 3
1, 1
2, 3
2, 3
1, 2
4, 0
2, 0
2, 2
4, 3
1, 3
2, 2
2, 3
1, 1
2, 2
1, 2
4, 6
4, 2
0, 1
1, 2
1, 3
3, 3
0, 4
3, 2
1, 1
2, 4
6, 2
1, 1
1, 1
1, 1
3, 4
2, 2
2, 1
1, 2
3, 2
2, 2
2, 3
1, 2
2, 2
3, 2
2, 4
2, 4
2, 1
2, 0
0, 1
2, 1
0, 1
0, 1
2, 4
2, 3
1, 1
1, 1
0, 1
3, 0
1, 1
0, 1
0, 1
0, 2
0, 2
1, 2
3, 2
1, 2
1, 0
2, 1
0, 1
1, 1
1, 0
2, 0
0, 0
2, 1
1, 2
1, 2
1, 0
1, 1
2, 0
0, 0
1, 2
0, 1
1, 0
2, 1
3, 0
1, 0
2, 3
2, 0
2, 0
1, 0
2, 1
3, 0
0, 0
1, 3
2, 0
0, 1
0, 1
2, 1
1, 2
0, 1
0, 0
0, 1
0, 0
0, 0
1, 1
0, 0
0, 2
0, 0
0, 0
2, 0
0, 0
2, 1
0, 1
2, 0
0, 0
2, 0
0, 1
0, 0
2, 2
1, 0
0, 1
0, 2
3, 3
0, 2
0, 0
1, 1
1, 0
0, 1
1, 0
1, 0
0, 0
0, 1
1, 0
1, 1
0, 1
0, 1
0, 1
1, 0
1, 0
1, 1
0, 0
0, 0
1, 0
0, 1
0, 1
0, 0
2, 1
1, 0
1, 1
1, 0
0, 0
3, 1
1, 1
0, 0
0, 0
0, 0
1, 0
0, 1
0, 1
0, 0
0, 1
2, 1
2, 2
0, 0
1, 0
0, 1
0, 0
0, 1
0, 1
1, 0
1, 0
2, 0
0, 2
1, 0
0, 0
0, 2
0, 1
0, 2
1, 0
0, 2
1, 0
2, 0
0, 1
0, 0
0, 1
1, 0
0, 0
2, 0
0, 1
1, 0
0, 0
1, 1
0, 0
0, 0
0, 0
1, 1
0, 0
0, 0
1, 0
1, 0
0, 2
1, 1
1, 0
0, 0
0, 1
0, 2
0, 0
0, 0
2, 1
0, 0
0, 1
0, 1
0, 0
1, 0
1, 0
0, 0
0, 0
0, 0
1, 0
1, 1
1, 0
1, 0
0, 1
0, 0
0, 0
0, 1
0, 0
0, 0
1, 1
0, 0
0, 1
2, 1
0, 0
0, 1
1, 1
0, 0
0, 1
0, 1
0, 0
0, 1
0, 0
0, 1
1, 0
0, 1
2, 2
0, 0
0, 1
0, 0
0, 0
0, 0
1, 0
0, 0
1, 0
0, 0
1, 0
0, 1
0, 0
0, 0
0, 0
1, 0
0, 1
0, 0
0, 1
0, 0
0, 2
0, 0
0, 1
0, 0
0, 0
0, 0
0, 0
0, 0
0, 0
0, 0
0, 0
1, 0
0, 0
0, 0
0, 0
3, 0
0, 0
0, 0
1, 0
0, 1
0, 0
0, 0
0, 0
0, 1
0, 0
0, 0
1, 2
0, 0
0, 0
1, 0
0, 0
1, 0
1, 1
0, 0
0, 0
0, 0
0, 0
1, 0
0, 1
0, 0
0, 0
0, 0
1, 2
0, 0
0, 0
0, 0
0, 1
1, 0
2, 0
0, 0
0, 0
0, 1
0, 0
0, 1
0, 0
0, 0
0, 0
0, 0
0, 0
0, 0
0, 0
0, 0
0, 0
0, 0
0, 0
0, 0
0, 0
0, 0
0, 1
0, 0
0, 0
0, 0
0, 1
0, 0
1, 0
0, 0
0, 0
1, 0
1, 0
0, 0
1, 0
0, 0
1, 0
0, 0
0, 0
0, 1
0, 0
0, 1
0, 0
0, 0
0, 0
0, 0
0, 0
0, 0
0, 0
0, 0
0, 0
1, 0
0, 0
0, 0
0, 0
0, 1
1, 0
0, 0
0, 0
0, 1
0, 0
0, 0
0, 0
0, 0
0, 0
0, 0
1, 0
0, 0
0, 0
0, 0
0, 0
0, 0
0, 0
0, 0
0, 0
0, 0
0, 0
0, 0
0, 1
1, 0
0, 0
0, 0
0, 0
0, 0
1, 0
0, 0
0, 0
0, 0
0, 0
0, 0
1, 0
0, 0
0, 0
0, 0
0, 0
0, 0
0, 0
0, 0
0, 0
0, 0
0, 0
0, 0
0, 0
0, 0
0, 0
0, 0
0, 0
0, 0
0, 0
0, 0
0, 0
0, 0
0, 0
0, 0
0, 0
0, 0
0, 0
0, 0
0, 0
0, 0
1, 0
0, 0
0, 0
0, 0
0, 0
0, 0
0, 0
0, 0
0, 0
0, 0
0, 0
0, 0
1, 0
0, 0
0, 0
0, 0
0, 0
0, 0
0, 0
0, 0
0, 0
0, 0
0, 0
0, 0
0, 0
0, 0
0, 0
0, 0
0, 0
0, 0
0, 0
0, 0
0, 0
0, 0
0, 0
0, 0
0, 0
0, 0
0, 0
0, 0
0, 0
0, 0
0, 0
0, 0
0, 0
0, 0
0, 0
0, 0
0, 0
0, 0
0, 0
0, 0
0, 0
0, 0
0, 0
0, 0
0, 0
0, 0
0, 0
0, 0
0, 0
0, 0
0, 0
0, 0
0, 0
0, 0
0, 0
0, 0
0, 0
0, 0
0, 0
0, 0
0, 0
0, 0
0, 0
0, 0
0, 0
0, 0
0, 0
0, 0
0, 0
0, 0
0, 0
0, 0
0, 0
0, 0
0, 0
0, 0
0, 0
0, 0
0, 0
0, 0
0, 0
0, 0
0, 0
0, 0
0, 0
0, 0
0, 0
0, 0
0, 0
0, 0
0, 0
0, 0
0, 0
0, 0
0, 0
0, 0
0, 0
0, 0
0, 0
0, 0
0, 0
0, 0
0, 0
0, 0
0, 0
0, 0
0, 0
0, 0
0, 0
0, 0
0, 0
0, 0
0, 0
0, 0
0, 0
0, 0
0, 0
0, 0
0, 0
0, 0
0, 0
0, 0
0, 0
0, 0
0, 0
0, 0
0, 0
0, 0
0, 0
0, 0
0, 0
0, 0
0, 0
0, 0
0, 0
0, 0
0, 0
0, 0
0, 0
0, 0
0, 0
0, 0
0, 0
0, 0
0, 0
0, 0
0, 0
0, 0
0, 0
0, 0
0, 0
0, 0
0, 0
0, 0
0, 0
0, 0
0, 0
0, 0
0, 0
0, 0
0, 0
0, 0
0, 0
0, 0
0, 0
0, 0
0, 0
0, 0
0, 0
0, 0
0, 0
0, 0
0, 0
0, 0
0, 0
0, 0
0, 0
0, 0
0, 0
0, 0
0, 0
0, 0
0, 0
0, 0
0, 0
0, 0
0, 0
0, 0
0, 0
0, 0
0, 0
0, 0
0, 0
0, 0
0, 0
0, 0
0, 0
0, 0
0, 0
0, 0
0, 0
0, 0
0, 0
0, 0
0, 0
0, 0
0, 0
0, 0
0, 0
0, 0
0, 0
0, 0
0, 0
0, 0
0, 0
0, 0
0, 0
0, 0
0, 0
0, 0
0, 0
0, 0
0, 0
0, 0
0, 0
0, 0
0, 0
0, 0
0, 0
0, 0
0, 0
0, 0
0, 0
0, 0
0, 0
0, 0
0, 0
0, 0
0, 0
0, 0
0, 0
0, 0
0, 0
0, 0
0, 0
0, 0
0, 0
0, 0
0, 0
0, 0
0, 0
0, 0
0, 0
0, 0
0, 0
0, 0
0, 0
0, 0
0, 0
0, 0
0, 0
0, 0
0, 0
0, 0
0, 0
0, 0
0, 0
0, 0
0, 0
0, 0
0, 0
0, 0
0, 0
0, 0
0, 0
0, 0
0, 0
0, 0
0, 0
0, 0
0, 0
0, 0
0, 0
0, 0
0, 0
0, 0
0, 0
0, 0
0, 0
0, 0
0, 0
0, 0
0, 0
0, 0
0, 0
0, 0
0, 0
0, 0
0, 0
0, 0
0, 0
0, 0
0, 0
0, 0
0, 0
0, 0
0, 0
0, 0
0, 0
0, 0
0, 0
0, 0
0, 0
0, 0
0, 0
0, 0
0, 0
0, 0
0, 0
0, 0
0, 0
0, 0
0, 0
0, 0
0, 0
0, 0
0, 0
0, 0
0, 0
0, 0
0, 0
0, 0
0, 0
0, 0
0, 0
0, 0
0, 0
0, 0
0, 0
0, 0
0, 0
0, 0
0, 0
0, 0
0, 0
0, 0
0, 0
0, 0
0, 0
0, 0
0, 0
0, 0
0, 0
0, 0
0, 0
0, 0
0, 0
0, 0
0, 0
0, 0
0, 0
0, 0
0, 0
0, 0
0, 0
0, 0
0, 0
0, 0
0, 0
0, 0
0, 0
0, 0
0, 0
0, 0
0, 0
0, 0
0, 0
0, 0
0, 0
0, 0
0, 0
0, 0
0, 0
0, 0
0, 0
0, 0
0, 0
0, 0
0, 0
0, 0
0, 0
0, 0
0, 0
0, 0
0, 0
0, 0
0, 0
0, 0
0, 0
0, 0
0, 0
0, 0
0, 0
0, 0
0, 0
0, 0
#ENDOFDATA     end of spectrum data