File: host_upload/12-01-2023/Dourbes (shot-by-shot)/upload_4/ps__0257_0689790785_000rfs_shot_3064.msa
#FORMAT      : EMSA/MAS spectral data file
#VERSION     : TC202v2.0 PIXL
#TITLE       : N/A
#DATE        :       Date in the format DD-MMM-YYYY, for example 07-JUL-2010
#TIME        :             The time of day at which the spectrum was recorded, in 24-hour format
#OWNER       : PIXL Flight Model       (PIXL will use this to indicate which instrument took the data.)
#NPOINTS     : 4096     Number of data points in the spectrum (This can be zero for configuration only files)
#NCOLUMNS    : 2     Number of data columns in the spectrum (This can be zero for configuration only files)
#XUNITS      : eV
#YUNITS      : COUNTS
#DATATYPE    : YY
#XPERCHAN    : 7.862, 7.881   eV per channel (separate by commas if more than one detector)
#OFFSET      : 18.5, -22.4         eV of first channel  (separate by commas if more than one detector
#SIGNALTYPE  : XRF
#YP_TEMP     : 3.262
#LIVETIME    : 8.98566, 8.97648   seconds (separate by commas if more than one detector)
#REALTIME    : 10, 10.0   seconds (separate by commas if more than one detector)
#SPECTRUM    : start of spectrum data
0, 0
0, 0
0, 0
0, 0
0, 0
0, 0
0, 0
0, 0
0, 0
0, 0
0, 0
0, 0
0, 0
0, 0
0, 0
0, 0
0, 0
0, 0
0, 0
0, 0
0, 0
0, 0
0, 0
0, 0
0, 0
0, 0
0, 0
0, 0
0, 0
0, 0
0, 0
0, 1
0, 0
0, 0
0, 0
0, 1
0, 1
3, 2
0, 0
1, 0
2, 1
3, 2
0, 3
0, 2
0, 3
1, 1
1, 3
0, 3
3, 6
3, 4
13, 11
28, 19
26, 37
40, 44
44, 45
36, 42
36, 24
22, 17
9, 9
7, 10
5, 5
5, 4
4, 7
13, 9
9, 14
10, 10
8, 9
14, 6
13, 13
31, 32
72, 60
145, 154
247, 246
317, 366
433, 439
410, 422
372, 368
277, 254
163, 151
109, 84
44, 38
23, 22
18, 13
4, 9
3, 8
7, 7
4, 12
9, 12
6, 5
6, 2
3, 1
0, 4
2, 1
1, 3
5, 7
4, 11
15, 9
19, 18
17, 23
24, 11
16, 19
16, 9
7, 14
5, 10
6, 10
11, 4
6, 10
11, 14
11, 16
25, 40
31, 51
40, 80
51, 90
69, 116
73, 118
66, 147
80, 132
59, 113
57, 65
43, 58
38, 50
26, 31
32, 30
17, 30
25, 17
22, 17
19, 13
17, 16
10, 12
10, 6
5, 8
5, 2
5, 1
4, 6
5, 5
5, 4
0, 3
3, 2
4, 6
6, 6
10, 9
5, 8
7, 8
9, 6
4, 6
6, 5
3, 4
6, 2
4, 3
4, 6
8, 10
19, 11
20, 23
18, 38
48, 48
60, 71
70, 71
60, 95
73, 76
57, 56
29, 41
29, 33
16, 40
17, 48
11, 35
12, 32
6, 39
10, 44
9, 30
12, 25
13, 20
12, 22
11, 11
14, 17
12, 14
10, 10
8, 13
7, 6
4, 9
11, 9
10, 9
12, 12
3, 11
11, 12
14, 17
20, 26
44, 47
55, 64
88, 108
156, 151
170, 221
256, 222
246, 223
237, 213
196, 186
156, 134
107, 88
63, 78
44, 47
26, 39
24, 25
25, 26
19, 22
19, 21
19, 12
23, 24
24, 34
31, 32
44, 42
52, 54
46, 42
42, 41
33, 35
25, 34
23, 16
15, 22
10, 28
8, 33
6, 41
9, 46
8, 52
5, 42
20, 52
23, 55
40, 65
68, 82
106, 111
164, 140
227, 233
250, 230
256, 236
274, 256
200, 193
180, 144
115, 122
97, 73
46, 47
18, 35
13, 20
15, 22
14, 18
9, 16
15, 11
19, 24
26, 46
45, 47
39, 54
71, 84
71, 95
97, 107
110, 133
112, 143
118, 118
100, 99
101, 98
77, 63
70, 52
46, 33
31, 38
24, 35
34, 22
26, 34
44, 58
70, 106
164, 207
298, 390
556, 747
998, 1290
1537, 1909
2225, 2723
2860, 3326
3417, 3619
3615, 3568
3499, 3382
2964, 2801
2241, 2071
1606, 1432
1060, 887
625, 490
360, 255
154, 151
123, 78
75, 35
37, 30
61, 13
49, 20
29, 24
59, 22
64, 24
55, 37
56, 28
69, 47
67, 61
86, 116
136, 160
210, 262
303, 342
393, 410
439, 488
530, 505
504, 548
465, 482
398, 350
331, 291
197, 179
151, 117
83, 61
46, 42
27, 20
10, 17
6, 6
10, 8
4, 7
11, 9
7, 6
8, 6
12, 3
10, 6
9, 4
4, 9
3, 8
8, 2
6, 2
6, 3
4, 5
8, 5
6, 4
7, 7
3, 6
4, 4
5, 6
0, 6
3, 2
5, 3
5, 6
5, 4
7, 10
3, 5
4, 3
5, 5
3, 6
5, 4
5, 0
2, 4
3, 9
3, 3
2, 4
4, 7
2, 9
1, 9
10, 5
2, 7
4, 5
6, 2
2, 3
10, 5
3, 3
12, 3
1, 6
8, 7
6, 6
6, 8
4, 8
5, 2
3, 8
7, 7
3, 4
4, 7
5, 3
8, 6
6, 3
6, 3
7, 5
9, 8
7, 2
6, 4
3, 6
3, 5
4, 2
6, 4
3, 3
3, 3
3, 5
1, 7
6, 6
6, 5
5, 3
3, 6
7, 1
3, 2
5, 4
1, 5
5, 3
3, 5
5, 3
2, 7
1, 2
1, 4
3, 4
5, 4
3, 4
3, 3
6, 0
4, 0
3, 2
5, 3
5, 2
5, 2
4, 7
6, 0
3, 1
5, 5
4, 7
4, 5
3, 0
6, 0
3, 2
2, 2
2, 6
3, 2
4, 3
3, 1
2, 1
2, 3
1, 7
0, 3
3, 5
3, 5
4, 3
10, 4
2, 3
3, 6
2, 4
4, 5
9, 2
1, 5
2, 6
3, 4
2, 8
1, 10
0, 4
3, 4
4, 6
3, 4
3, 2
1, 4
0, 4
3, 4
2, 3
0, 3
3, 1
1, 1
2, 0
3, 2
2, 1
2, 1
4, 2
5, 2
5, 3
4, 5
2, 2
4, 4
2, 0
3, 3
2, 1
5, 0
3, 3
5, 1
3, 4
3, 5
1, 1
2, 1
2, 0
3, 3
2, 1
1, 1
1, 2
3, 2
1, 2
1, 2
1, 2
2, 4
1, 2
4, 3
3, 0
1, 1
1, 0
2, 1
0, 4
3, 1
1, 2
0, 4
2, 1
3, 5
0, 3
1, 2
2, 3
2, 3
2, 1
2, 3
5, 1
1, 1
2, 5
3, 2
0, 1
2, 4
6, 2
4, 1
1, 2
3, 2
2, 0
1, 1
0, 0
4, 1
1, 1
1, 0
5, 1
4, 2
2, 2
2, 3
2, 0
0, 1
1, 2
2, 7
3, 4
1, 1
1, 4
4, 1
0, 1
0, 2
0, 1
1, 2
2, 2
2, 0
0, 5
2, 1
2, 0
2, 4
2, 9
10, 10
5, 8
2, 2
8, 7
7, 7
3, 5
3, 3
4, 7
4, 4
6, 2
2, 1
3, 1
0, 1
0, 1
0, 2
3, 0
1, 1
3, 2
1, 0
2, 4
0, 0
0, 0
0, 0
3, 1
3, 0
3, 1
0, 4
5, 3
1, 2
0, 2
4, 3
2, 5
3, 1
1, 1
2, 1
2, 1
0, 2
1, 1
0, 1
1, 0
0, 1
1, 1
0, 2
2, 0
2, 0
0, 0
3, 2
1, 3
0, 0
1, 0
0, 1
2, 1
0, 0
0, 1
0, 2
1, 0
3, 1
1, 2
1, 2
0, 1
2, 4
1, 2
3, 0
1, 1
1, 0
0, 1
0, 3
1, 1
0, 0
0, 0
0, 3
0, 0
1, 3
2, 2
0, 0
2, 1
0, 0
0, 1
1, 0
0, 1
0, 0
2, 0
0, 1
2, 0
1, 1
0, 0
3, 0
1, 2
1, 0
0, 0
0, 0
0, 1
0, 0
0, 0
0, 0
1, 2
1, 1
2, 0
1, 1
0, 1
0, 0
0, 1
0, 0
2, 1
1, 0
1, 3
0, 1
0, 0
0, 2
0, 0
0, 0
0, 0
0, 0
2, 1
0, 0
1, 3
0, 0
0, 1
0, 0
2, 0
1, 2
0, 1
0, 1
0, 0
3, 0
1, 0
1, 0
1, 0
0, 0
0, 0
1, 1
1, 0
1, 0
0, 1
0, 0
0, 0
0, 1
0, 0
0, 1
1, 0
0, 1
1, 1
0, 0
1, 0
0, 0
1, 0
0, 1
0, 0
0, 0
1, 0
0, 0
0, 1
0, 1
0, 0
1, 0
0, 0
0, 3
0, 0
1, 0
2, 0
0, 0
1, 1
0, 0
2, 0
0, 0
0, 0
0, 2
0, 1
1, 0
0, 1
0, 0
0, 0
0, 0
1, 2
0, 0
0, 0
0, 0
0, 0
0, 1
0, 0
0, 0
0, 1
1, 0
0, 0
1, 0
0, 0
0, 0
1, 2
1, 0
1, 2
0, 0
0, 0
0, 0
0, 0
0, 1
0, 0
0, 0
0, 1
0, 0
0, 0
0, 0
0, 0
0, 0
1, 0
0, 0
0, 0
0, 0
1, 1
0, 0
0, 0
0, 0
0, 0
0, 0
1, 0
0, 0
0, 0
0, 0
0, 1
0, 2
1, 0
0, 1
1, 0
0, 0
0, 0
0, 0
0, 0
1, 0
0, 0
0, 1
0, 0
0, 0
0, 0
0, 0
0, 0
0, 0
0, 0
0, 0
0, 0
0, 1
0, 0
0, 0
0, 0
0, 0
0, 1
0, 0
0, 0
1, 1
0, 0
1, 0
1, 0
1, 0
0, 0
0, 0
0, 0
0, 1
0, 0
1, 1
0, 1
0, 0
0, 0
0, 0
0, 0
0, 0
0, 0
1, 2
0, 0
0, 0
0, 1
0, 0
0, 0
0, 1
0, 0
0, 0
0, 0
0, 0
0, 0
0, 0
0, 0
0, 0
0, 1
0, 0
1, 1
0, 0
0, 0
0, 1
0, 0
0, 0
1, 2
0, 0
2, 0
0, 0
0, 0
0, 0
0, 0
0, 0
0, 0
0, 0
0, 0
0, 0
0, 0
0, 1
0, 0
0, 0
0, 0
0, 0
0, 0
0, 0
0, 0
0, 0
0, 0
0, 1
0, 0
0, 1
0, 1
0, 0
0, 0
0, 0
1, 0
0, 0
1, 0
0, 0
0, 0
1, 0
0, 0
0, 0
0, 0
0, 0
0, 0
0, 0
0, 0
0, 0
0, 0
0, 0
0, 0
0, 0
0, 0
0, 0
1, 0
0, 0
0, 0
0, 0
0, 0
0, 0
0, 0
1, 0
0, 0
0, 0
0, 0
0, 1
0, 0
1, 1
0, 0
0, 0
1, 0
0, 0
0, 0
0, 0
0, 0
0, 0
0, 0
0, 0
0, 0
0, 0
0, 0
0, 0
0, 0
0, 0
0, 0
0, 0
0, 0
0, 0
0, 0
0, 0
0, 0
0, 0
0, 0
0, 0
0, 0
0, 0
0, 0
0, 0
0, 0
0, 0
0, 0
0, 0
0, 0
0, 0
0, 0
0, 0
0, 0
0, 0
0, 0
0, 0
0, 0
1, 0
0, 0
0, 0
0, 0
0, 0
0, 0
0, 0
0, 0
0, 0
0, 0
0, 0
0, 0
0, 0
0, 0
0, 0
0, 0
0, 0
0, 0
0, 0
0, 0
0, 0
0, 0
0, 0
0, 0
0, 0
0, 0
0, 0
0, 0
0, 0
0, 0
0, 0
0, 0
0, 0
0, 1
0, 0
0, 0
0, 0
0, 0
0, 0
0, 0
0, 0
0, 0
0, 0
0, 0
0, 0
0, 0
0, 0
0, 0
0, 0
0, 0
0, 0
0, 0
0, 0
0, 0
0, 0
0, 1
0, 0
0, 0
0, 0
0, 0
0, 0
0, 0
0, 0
0, 0
0, 0
0, 0
0, 0
0, 0
0, 0
0, 0
0, 0
0, 0
0, 0
0, 0
0, 0
0, 0
0, 0
0, 0
0, 0
0, 0
0, 0
0, 0
0, 0
0, 0
0, 0
0, 0
0, 0
0, 0
0, 0
0, 0
0, 0
0, 0
0, 0
0, 0
0, 0
0, 0
0, 0
0, 0
0, 0
0, 0
0, 0
0, 0
0, 0
0, 0
0, 0
0, 0
0, 0
0, 0
0, 0
0, 0
0, 0
0, 0
0, 0
0, 0
0, 0
0, 0
0, 0
0, 0
0, 0
0, 0
0, 0
0, 0
0, 0
0, 0
0, 0
0, 0
0, 0
0, 0
0, 0
0, 0
0, 0
0, 0
0, 0
0, 0
0, 0
0, 0
0, 0
0, 0
0, 0
0, 0
0, 0
0, 0
0, 0
0, 0
0, 0
0, 0
0, 0
0, 0
0, 0
0, 0
0, 0
0, 0
0, 0
0, 0
0, 0
0, 0
0, 0
0, 0
0, 0
0, 0
0, 0
0, 0
0, 0
0, 0
0, 0
0, 0
0, 0
0, 0
0, 0
0, 0
0, 0
0, 0
0, 0
0, 0
0, 0
0, 0
0, 0
0, 0
0, 0
0, 0
0, 0
0, 0
0, 0
0, 0
0, 0
0, 0
0, 0
0, 0
0, 0
0, 0
0, 0
0, 0
0, 0
0, 0
0, 0
0, 0
0, 0
0, 0
0, 0
0, 0
0, 0
0, 0
0, 0
0, 0
0, 0
0, 0
0, 0
0, 0
0, 0
0, 0
0, 0
0, 0
0, 0
0, 0
0, 0
0, 0
0, 0
0, 0
0, 0
0, 0
0, 0
0, 0
0, 0
0, 0
0, 0
0, 0
0, 0
0, 0
0, 0
0, 0
0, 0
0, 0
0, 0
0, 0
0, 0
0, 0
0, 0
0, 0
0, 0
0, 0
0, 0
0, 0
0, 0
0, 0
0, 0
0, 0
0, 0
0, 0
0, 0
0, 0
0, 0
0, 0
0, 0
0, 0
0, 0
0, 0
0, 0
0, 0
0, 0
0, 0
0, 0
0, 0
0, 0
0, 0
0, 0
0, 0
0, 0
0, 0
0, 0
0, 0
0, 0
0, 0
0, 0
0, 0
0, 0
0, 0
0, 0
0, 0
0, 0
0, 0
0, 0
0, 0
0, 0
0, 0
0, 0
0, 0
0, 0
0, 0
0, 0
0, 0
0, 0
0, 0
0, 0
0, 0
0, 0
0, 0
0, 0
0, 0
0, 0
0, 0
0, 0
0, 0
0, 0
0, 0
0, 0
0, 0
0, 0
0, 0
0, 0
0, 0
0, 0
0, 0
0, 0
0, 0
0, 0
0, 0
0, 0
0, 0
0, 0
0, 0
0, 0
0, 0
0, 0
0, 0
0, 0
0, 0
0, 0
0, 0
0, 0
0, 0
0, 0
0, 0
0, 0
0, 0
0, 0
0, 0
0, 0
0, 0
0, 0
0, 0
0, 0
0, 0
0, 0
0, 0
0, 0
0, 0
0, 0
0, 0
0, 0
0, 0
0, 0
0, 0
0, 0
0, 0
0, 0
0, 0
0, 0
0, 0
0, 0
0, 0
0, 0
0, 0
0, 0
0, 0
0, 0
0, 0
0, 0
0, 0
0, 0
0, 0
0, 0
0, 0
0, 0
0, 0
0, 0
0, 0
0, 0
0, 0
0, 0
0, 0
0, 0
0, 0
0, 0
0, 0
0, 0
0, 0
0, 0
0, 0
0, 0
0, 0
0, 0
0, 0
0, 0
0, 0
0, 0
0, 0
0, 0
0, 0
0, 0
0, 0
0, 0
0, 0
0, 0
0, 0
0, 0
0, 0
0, 0
0, 0
0, 0
0, 0
0, 0
0, 0
0, 0
0, 0
0, 0
0, 0
0, 0
0, 0
0, 0
0, 0
0, 0
0, 0
0, 0
0, 0
0, 0
0, 0
0, 0
0, 0
0, 0
0, 0
0, 0
0, 0
0, 0
#ENDOFDATA     end of spectrum data