File: host_upload/12-01-2023/Dourbes (shot-by-shot)/upload_4/ps__0257_0689790785_000rfs_shot_3286.msa
#FORMAT      : EMSA/MAS spectral data file
#VERSION     : TC202v2.0 PIXL
#TITLE       : N/A
#DATE        :       Date in the format DD-MMM-YYYY, for example 07-JUL-2010
#TIME        :             The time of day at which the spectrum was recorded, in 24-hour format
#OWNER       : PIXL Flight Model       (PIXL will use this to indicate which instrument took the data.)
#NPOINTS     : 4096     Number of data points in the spectrum (This can be zero for configuration only files)
#NCOLUMNS    : 2     Number of data columns in the spectrum (This can be zero for configuration only files)
#XUNITS      : eV
#YUNITS      : COUNTS
#DATATYPE    : YY
#XPERCHAN    : 7.862, 7.881   eV per channel (separate by commas if more than one detector)
#OFFSET      : 18.5, -22.4         eV of first channel  (separate by commas if more than one detector
#SIGNALTYPE  : XRF
#YP_TEMP     : 3.454
#LIVETIME    : 9.11803, 9.12515   seconds (separate by commas if more than one detector)
#REALTIME    : 10, 10.0   seconds (separate by commas if more than one detector)
#SPECTRUM    : start of spectrum data
0, 0
0, 0
0, 0
0, 0
0, 0
0, 0
0, 0
0, 0
0, 0
0, 0
0, 0
0, 0
0, 0
0, 0
0, 0
0, 0
0, 0
0, 0
0, 0
0, 0
0, 0
0, 0
0, 0
0, 0
0, 0
0, 0
0, 0
0, 0
0, 0
0, 0
0, 0
1, 0
0, 0
0, 0
0, 0
0, 0
2, 0
0, 2
1, 3
1, 1
2, 3
2, 1
1, 0
1, 2
2, 2
2, 2
4, 1
3, 0
4, 1
8, 8
14, 9
18, 13
35, 29
46, 30
34, 41
45, 39
16, 25
24, 10
9, 10
5, 4
13, 4
16, 10
19, 11
32, 21
24, 35
31, 25
15, 17
19, 12
27, 21
64, 45
152, 114
277, 264
479, 477
627, 671
781, 812
854, 852
683, 705
487, 489
312, 283
174, 163
81, 83
50, 33
24, 24
21, 26
17, 12
12, 14
10, 13
10, 11
8, 10
5, 5
8, 5
5, 5
9, 2
4, 3
3, 6
8, 4
14, 3
4, 11
5, 5
3, 12
12, 7
7, 2
5, 6
3, 6
2, 3
5, 12
2, 9
6, 7
15, 14
22, 20
42, 32
45, 37
42, 64
49, 65
66, 59
55, 41
45, 50
38, 47
28, 28
38, 42
28, 35
28, 34
17, 41
19, 35
13, 53
16, 56
15, 51
13, 68
14, 56
6, 53
4, 35
2, 27
4, 21
3, 10
6, 7
7, 11
8, 5
13, 11
18, 18
30, 36
24, 26
26, 40
29, 25
29, 23
15, 17
13, 11
11, 6
6, 3
10, 6
14, 15
42, 38
69, 80
154, 129
265, 270
438, 449
563, 615
743, 757
846, 788
716, 725
612, 593
445, 398
279, 292
176, 187
93, 109
45, 70
26, 69
42, 71
49, 85
65, 120
83, 103
125, 128
128, 134
104, 112
81, 88
58, 54
43, 32
26, 16
16, 13
7, 11
6, 9
4, 6
4, 3
4, 5
9, 10
8, 4
7, 14
11, 11
22, 24
20, 26
40, 50
42, 62
53, 56
62, 54
44, 58
39, 36
31, 36
33, 18
19, 17
16, 13
13, 15
11, 11
10, 9
9, 10
8, 9
10, 7
10, 11
6, 10
18, 12
11, 15
20, 15
14, 6
26, 15
18, 13
15, 16
19, 8
10, 12
9, 9
7, 11
7, 5
13, 6
7, 5
10, 10
9, 7
14, 5
5, 10
14, 14
24, 20
19, 22
27, 30
31, 27
42, 44
34, 29
35, 27
21, 15
16, 16
14, 12
9, 8
12, 11
3, 6
6, 5
11, 13
8, 8
14, 3
12, 7
13, 12
31, 21
26, 24
26, 36
34, 54
45, 57
62, 52
52, 53
68, 54
57, 43
40, 43
28, 20
28, 16
24, 11
23, 20
39, 12
51, 17
41, 18
66, 22
93, 45
145, 91
223, 182
348, 310
485, 539
772, 799
1079, 1139
1477, 1473
1535, 1555
1688, 1575
1558, 1454
1349, 1254
1062, 914
682, 641
445, 342
280, 194
135, 116
59, 61
31, 31
18, 20
20, 16
9, 11
10, 14
10, 8
15, 14
14, 12
16, 20
16, 22
23, 28
28, 33
34, 59
57, 63
110, 112
162, 153
181, 167
216, 205
238, 257
247, 246
264, 180
200, 189
152, 120
116, 96
83, 46
40, 35
40, 11
11, 13
13, 5
12, 5
9, 5
8, 8
12, 6
9, 9
8, 7
11, 3
7, 8
5, 3
11, 4
4, 9
5, 6
8, 3
6, 10
4, 5
6, 10
6, 5
7, 3
6, 7
7, 3
4, 2
3, 7
7, 8
8, 4
4, 7
6, 14
10, 8
11, 5
9, 9
8, 6
8, 5
4, 7
15, 9
7, 7
7, 9
6, 6
5, 4
8, 3
9, 9
12, 5
6, 9
9, 6
7, 7
11, 2
9, 4
11, 5
7, 5
5, 5
7, 9
9, 11
2, 6
6, 5
5, 3
5, 5
10, 6
7, 4
7, 4
4, 5
4, 5
8, 8
3, 6
9, 5
3, 5
7, 1
6, 9
3, 5
8, 6
8, 5
5, 3
5, 6
5, 7
5, 2
3, 1
5, 7
5, 4
5, 7
8, 3
4, 10
4, 6
4, 4
6, 4
10, 6
5, 4
8, 7
7, 6
3, 9
7, 6
7, 9
4, 9
6, 10
4, 9
5, 9
5, 10
5, 9
2, 9
6, 8
4, 9
1, 5
1, 4
3, 5
1, 8
7, 2
4, 5
4, 9
7, 8
3, 7
10, 5
2, 5
6, 6
9, 5
5, 2
5, 6
8, 2
6, 3
5, 3
5, 5
9, 3
7, 4
3, 6
4, 4
5, 4
4, 5
6, 4
7, 10
8, 9
6, 10
6, 5
5, 3
9, 8
1, 2
4, 4
6, 3
7, 4
7, 4
3, 2
5, 3
2, 3
3, 8
5, 3
4, 5
2, 2
2, 2
3, 6
8, 0
0, 4
4, 5
1, 2
3, 5
4, 7
4, 2
3, 3
3, 5
1, 2
1, 3
8, 2
2, 5
1, 1
3, 3
3, 1
3, 3
4, 1
3, 2
4, 1
4, 3
5, 2
2, 3
2, 2
3, 2
3, 2
3, 4
5, 4
6, 4
5, 1
1, 3
1, 0
4, 6
3, 3
2, 2
7, 1
4, 2
0, 4
8, 4
2, 3
5, 3
4, 5
4, 2
4, 2
3, 4
1, 1
5, 2
1, 4
0, 0
2, 5
3, 3
4, 5
6, 2
1, 2
4, 6
5, 1
3, 2
2, 3
4, 2
1, 5
1, 4
0, 3
0, 5
3, 2
1, 9
1, 6
3, 4
1, 2
3, 2
2, 2
2, 4
2, 6
2, 2
1, 5
2, 9
1, 2
2, 0
4, 2
1, 1
2, 2
0, 2
3, 2
1, 2
2, 1
1, 2
2, 3
3, 1
2, 4
2, 0
0, 3
3, 1
2, 3
2, 6
1, 2
2, 2
2, 0
0, 3
0, 3
3, 1
1, 3
0, 0
0, 3
1, 1
0, 0
2, 0
2, 4
1, 0
3, 0
2, 2
1, 2
4, 2
1, 3
2, 0
3, 1
3, 3
3, 2
2, 0
1, 2
4, 0
3, 1
5, 2
1, 2
1, 2
1, 1
1, 1
0, 5
1, 1
1, 2
4, 2
1, 1
1, 1
1, 0
0, 1
2, 1
1, 1
1, 1
1, 2
3, 1
0, 0
0, 3
3, 1
1, 0
1, 0
0, 0
1, 1
2, 9
0, 0
1, 0
2, 1
1, 1
1, 2
0, 0
2, 2
1, 1
1, 0
2, 2
0, 2
2, 3
1, 0
0, 0
1, 1
0, 1
1, 1
0, 2
2, 1
1, 0
0, 1
1, 1
2, 0
1, 0
0, 0
0, 0
0, 2
1, 1
1, 1
0, 0
1, 2
0, 1
3, 0
0, 0
1, 1
2, 0
3, 1
0, 2
1, 0
1, 2
0, 0
1, 1
0, 2
0, 1
2, 1
1, 1
2, 1
1, 0
0, 1
1, 3
1, 2
1, 0
0, 0
1, 2
0, 0
1, 0
0, 0
0, 1
2, 0
0, 2
1, 1
0, 1
1, 0
1, 1
1, 0
0, 0
0, 0
0, 0
0, 3
0, 0
1, 0
1, 2
0, 3
0, 0
1, 0
0, 1
0, 0
0, 1
0, 0
0, 1
0, 1
0, 0
0, 1
0, 0
0, 0
1, 1
0, 0
0, 0
0, 0
0, 0
0, 1
1, 0
0, 0
1, 1
0, 1
0, 0
0, 1
0, 2
0, 2
1, 1
0, 2
0, 0
0, 0
0, 0
0, 0
0, 0
0, 1
0, 0
2, 0
0, 0
0, 0
0, 1
0, 1
0, 0
0, 1
0, 1
0, 0
0, 0
1, 1
0, 1
1, 1
0, 0
1, 0
1, 1
0, 1
0, 1
0, 2
0, 0
1, 0
0, 2
0, 0
0, 1
0, 0
1, 0
2, 0
1, 0
2, 1
2, 0
0, 0
0, 0
0, 1
0, 0
0, 0
1, 0
0, 0
0, 0
0, 0
0, 0
0, 0
0, 0
0, 0
0, 1
0, 0
0, 1
0, 1
0, 0
0, 1
0, 0
1, 0
0, 1
0, 0
0, 0
0, 0
0, 0
0, 0
1, 0
1, 0
0, 0
0, 0
0, 0
2, 0
0, 0
0, 0
0, 0
0, 0
0, 0
1, 0
1, 0
0, 0
0, 1
1, 0
1, 0
1, 1
1, 0
0, 1
0, 0
0, 0
1, 0
0, 0
0, 0
2, 1
0, 0
0, 0
0, 0
0, 0
0, 0
1, 1
1, 0
0, 0
0, 0
0, 0
0, 0
0, 1
0, 0
1, 0
0, 0
1, 1
0, 0
0, 0
0, 0
0, 0
0, 0
0, 0
0, 0
0, 0
0, 0
0, 0
0, 0
1, 0
0, 0
0, 0
0, 0
0, 0
0, 0
0, 0
1, 0
0, 0
0, 0
0, 0
0, 1
1, 0
0, 0
0, 0
0, 0
0, 0
0, 0
0, 0
0, 0
0, 1
0, 0
0, 0
0, 0
0, 0
0, 1
0, 1
0, 2
0, 0
0, 0
0, 0
1, 0
0, 0
0, 0
1, 1
0, 0
0, 0
0, 0
0, 1
0, 0
0, 0
0, 1
0, 0
0, 0
1, 0
0, 0
1, 0
0, 0
0, 0
1, 1
0, 0
0, 0
0, 0
1, 0
0, 0
0, 0
0, 0
0, 0
0, 0
0, 0
0, 0
0, 1
0, 0
0, 0
1, 0
0, 0
0, 0
0, 0
0, 0
0, 0
1, 0
0, 0
0, 0
0, 0
0, 0
0, 0
0, 0
0, 0
0, 0
0, 0
0, 0
0, 0
0, 0
0, 0
0, 1
0, 0
1, 0
0, 0
0, 0
0, 0
1, 0
0, 0
1, 0
0, 0
0, 0
0, 0
1, 0
0, 0
0, 0
0, 0
0, 0
0, 0
0, 0
0, 0
0, 0
0, 0
0, 0
0, 0
0, 0
0, 0
0, 0
0, 0
0, 0
0, 0
0, 0
0, 0
0, 0
0, 0
0, 0
0, 0
0, 0
0, 0
0, 0
0, 0
0, 0
0, 0
0, 0
0, 0
0, 0
0, 0
0, 0
0, 0
0, 0
0, 0
0, 0
0, 0
0, 0
0, 0
0, 0
0, 0
0, 0
0, 0
0, 0
0, 0
0, 0
0, 0
0, 0
0, 0
1, 0
0, 0
0, 0
0, 1
0, 0
0, 0
0, 0
0, 0
0, 0
0, 0
0, 0
0, 0
0, 0
0, 0
0, 0
0, 0
0, 0
0, 0
0, 0
0, 0
0, 0
0, 0
0, 0
0, 0
0, 0
0, 0
0, 0
0, 0
0, 0
0, 0
0, 0
0, 0
0, 0
0, 0
0, 0
0, 0
1, 0
0, 0
0, 0
0, 0
0, 0
0, 0
1, 0
0, 0
0, 0
0, 0
0, 0
0, 0
1, 0
0, 0
0, 0
0, 0
0, 0
0, 0
0, 0
0, 0
0, 0
0, 0
0, 0
0, 0
0, 0
0, 0
0, 0
0, 0
0, 0
0, 0
0, 0
0, 0
0, 0
0, 0
0, 0
1, 0
0, 0
0, 0
0, 0
0, 0
0, 0
0, 0
0, 0
0, 0
0, 0
0, 0
0, 0
0, 0
0, 0
0, 0
0, 0
0, 0
0, 0
0, 0
0, 0
0, 0
0, 0
0, 1
0, 0
0, 0
0, 0
0, 0
0, 0
0, 0
0, 0
0, 0
0, 0
0, 0
0, 0
0, 0
0, 0
0, 0
0, 0
0, 0
0, 0
0, 0
0, 0
0, 0
0, 0
0, 0
0, 0
0, 0
0, 0
0, 0
0, 0
0, 0
0, 0
0, 0
0, 0
0, 0
0, 0
0, 0
0, 0
0, 0
0, 0
0, 0
0, 0
0, 0
0, 0
0, 0
0, 0
0, 0
0, 0
0, 0
0, 0
0, 0
0, 0
0, 0
0, 0
0, 0
0, 0
0, 0
0, 0
0, 0
0, 0
0, 0
0, 0
0, 0
0, 0
0, 0
0, 0
0, 0
0, 0
0, 0
0, 0
0, 0
0, 0
0, 0
0, 0
0, 0
0, 0
0, 0
0, 0
0, 0
0, 0
0, 0
0, 0
0, 0
0, 0
0, 0
0, 0
0, 0
0, 0
0, 0
0, 0
0, 0
0, 0
0, 0
0, 0
0, 0
0, 0
0, 0
0, 0
0, 0
0, 0
0, 0
0, 0
0, 0
0, 0
0, 0
0, 0
0, 0
0, 0
0, 0
0, 0
0, 0
0, 0
0, 0
0, 0
0, 0
0, 0
0, 0
0, 0
0, 0
0, 0
0, 0
0, 0
0, 0
0, 0
0, 0
0, 0
0, 0
0, 0
0, 0
0, 0
0, 0
0, 0
0, 0
0, 0
0, 0
0, 0
0, 0
0, 0
0, 0
0, 0
0, 0
0, 0
0, 0
0, 0
0, 0
0, 0
0, 0
0, 0
0, 0
0, 0
0, 0
0, 0
0, 0
0, 0
0, 0
0, 0
0, 0
0, 0
0, 0
0, 0
0, 0
0, 0
0, 0
0, 0
0, 0
0, 0
0, 0
0, 0
0, 0
0, 0
0, 0
0, 0
0, 0
0, 0
0, 0
0, 0
0, 0
0, 0
0, 0
0, 0
0, 0
0, 0
0, 0
0, 0
0, 0
0, 0
0, 0
0, 0
0, 0
0, 0
0, 0
0, 0
0, 0
0, 0
0, 0
0, 0
0, 0
0, 0
0, 0
0, 0
0, 0
0, 0
0, 0
0, 0
0, 0
0, 0
0, 0
0, 0
0, 0
0, 0
0, 0
0, 0
0, 0
0, 0
0, 0
0, 0
0, 0
0, 0
0, 0
0, 0
0, 0
0, 0
0, 0
0, 0
0, 0
0, 0
0, 0
0, 0
0, 0
0, 0
0, 0
0, 0
0, 0
0, 0
0, 0
0, 0
0, 0
0, 0
0, 0
0, 0
0, 0
0, 0
0, 0
0, 0
0, 0
0, 0
0, 0
0, 0
0, 0
0, 0
0, 0
0, 0
0, 0
0, 0
0, 0
0, 0
0, 0
0, 0
0, 0
0, 0
0, 0
0, 0
0, 0
0, 0
0, 0
0, 0
0, 0
0, 0
0, 0
0, 0
0, 0
0, 0
0, 0
0, 0
0, 0
0, 0
0, 0
0, 0
0, 0
0, 0
0, 0
0, 0
0, 0
0, 0
0, 0
0, 0
0, 0
0, 0
0, 0
0, 0
0, 0
0, 0
0, 0
0, 0
0, 0
0, 0
0, 0
0, 0
0, 0
0, 0
0, 0
0, 0
0, 0
0, 0
0, 0
0, 0
0, 0
0, 0
0, 0
0, 0
#ENDOFDATA     end of spectrum data