File: host_upload/12-01-2023/Dourbes (shot-by-shot)/upload_4/ps__0257_0689790785_000rfs_shot_3198.msa
#FORMAT      : EMSA/MAS spectral data file
#VERSION     : TC202v2.0 PIXL
#TITLE       : N/A
#DATE        :       Date in the format DD-MMM-YYYY, for example 07-JUL-2010
#TIME        :             The time of day at which the spectrum was recorded, in 24-hour format
#OWNER       : PIXL Flight Model       (PIXL will use this to indicate which instrument took the data.)
#NPOINTS     : 4096     Number of data points in the spectrum (This can be zero for configuration only files)
#NCOLUMNS    : 2     Number of data columns in the spectrum (This can be zero for configuration only files)
#XUNITS      : eV
#YUNITS      : COUNTS
#DATATYPE    : YY
#XPERCHAN    : 7.862, 7.881   eV per channel (separate by commas if more than one detector)
#OFFSET      : 18.5, -22.4         eV of first channel  (separate by commas if more than one detector
#SIGNALTYPE  : XRF
#YP_TEMP     : 3.165
#LIVETIME    : 9.02058, 9.00419   seconds (separate by commas if more than one detector)
#REALTIME    : 10, 10.0   seconds (separate by commas if more than one detector)
#SPECTRUM    : start of spectrum data
0, 0
0, 0
0, 0
0, 0
0, 0
0, 0
0, 0
0, 0
0, 0
0, 0
0, 0
0, 0
0, 0
0, 0
0, 0
0, 0
0, 0
0, 0
0, 0
0, 0
0, 0
0, 0
0, 0
0, 0
0, 0
0, 0
0, 0
0, 0
0, 0
0, 0
0, 0
0, 0
0, 0
0, 0
2, 0
1, 0
1, 1
0, 1
1, 1
2, 1
2, 0
0, 1
2, 1
2, 0
0, 0
1, 3
1, 1
2, 4
3, 4
6, 6
14, 12
14, 13
30, 32
36, 31
49, 32
35, 29
39, 34
14, 18
6, 4
6, 14
4, 10
13, 10
13, 17
27, 18
12, 8
18, 15
19, 14
13, 14
23, 21
35, 20
78, 63
148, 132
266, 249
371, 394
453, 463
481, 426
391, 353
249, 270
159, 184
86, 99
52, 32
18, 25
11, 11
6, 6
7, 4
3, 7
4, 6
2, 5
5, 0
2, 0
2, 4
1, 5
2, 2
5, 3
4, 4
5, 2
6, 8
12, 13
11, 14
14, 14
6, 12
4, 9
5, 5
8, 7
3, 5
3, 9
6, 6
9, 11
16, 16
16, 22
26, 26
53, 54
56, 56
45, 73
63, 73
63, 72
57, 50
52, 51
54, 39
37, 37
24, 36
40, 26
31, 23
16, 24
20, 25
21, 15
17, 14
10, 19
11, 11
8, 8
6, 12
1, 8
6, 2
6, 6
4, 2
2, 3
5, 2
13, 8
13, 15
22, 13
19, 24
26, 17
22, 13
19, 17
12, 11
8, 6
7, 6
5, 8
2, 1
7, 8
6, 10
9, 10
14, 12
21, 25
27, 36
43, 32
52, 42
49, 37
49, 39
41, 36
28, 28
21, 23
12, 26
9, 18
4, 18
4, 19
4, 20
5, 16
12, 11
16, 24
12, 17
13, 20
10, 12
10, 7
8, 5
10, 7
6, 10
5, 9
2, 14
5, 7
4, 7
4, 8
13, 8
12, 16
15, 14
41, 40
57, 67
98, 94
165, 165
249, 253
338, 312
442, 391
458, 386
360, 337
328, 280
238, 193
153, 120
82, 81
51, 56
39, 29
19, 22
15, 12
13, 14
10, 22
18, 22
26, 21
42, 46
30, 55
67, 74
67, 66
69, 55
71, 56
63, 53
39, 45
26, 28
15, 18
24, 23
16, 27
8, 23
9, 34
13, 20
17, 27
21, 26
29, 50
51, 77
97, 114
174, 167
215, 236
295, 322
356, 362
409, 368
362, 349
321, 283
268, 223
166, 136
110, 95
62, 55
39, 34
27, 23
14, 10
8, 14
13, 10
9, 15
13, 15
26, 25
19, 35
38, 47
49, 57
59, 98
89, 116
131, 124
118, 134
117, 125
122, 128
107, 64
77, 69
79, 62
39, 36
32, 25
33, 39
28, 26
25, 31
40, 50
66, 92
148, 191
261, 306
511, 615
929, 1087
1354, 1726
1883, 2307
2420, 2842
2902, 3126
3009, 3149
2836, 2689
2511, 2281
1923, 1625
1426, 1108
841, 708
481, 372
281, 203
112, 86
58, 50
29, 34
25, 24
21, 13
14, 18
24, 20
18, 15
31, 25
19, 19
36, 32
35, 36
50, 82
80, 98
126, 162
162, 226
247, 269
336, 379
407, 424
432, 478
504, 462
413, 392
316, 320
246, 225
181, 170
110, 105
72, 55
54, 26
19, 19
14, 14
6, 4
12, 9
5, 5
9, 3
7, 13
9, 9
3, 11
11, 6
9, 9
8, 6
6, 3
7, 5
9, 7
6, 6
6, 6
10, 5
13, 4
4, 5
4, 6
6, 3
8, 10
9, 5
4, 3
5, 7
6, 5
5, 1
5, 6
8, 8
11, 6
5, 2
8, 7
5, 7
2, 6
9, 6
3, 4
7, 6
5, 5
6, 10
5, 5
8, 8
4, 7
4, 2
2, 6
3, 7
1, 4
4, 7
5, 6
4, 3
5, 7
6, 2
6, 6
4, 8
5, 4
4, 6
4, 3
6, 7
6, 7
2, 4
8, 7
5, 8
5, 7
8, 9
6, 5
4, 2
6, 6
3, 6
5, 6
2, 3
3, 2
3, 1
5, 3
6, 8
7, 7
1, 3
4, 4
1, 5
0, 6
3, 8
6, 4
10, 2
3, 4
5, 6
2, 6
1, 2
0, 5
2, 2
4, 4
7, 3
5, 1
3, 6
2, 0
5, 3
3, 3
3, 2
2, 5
6, 3
6, 3
3, 4
7, 4
5, 1
4, 6
2, 3
7, 3
6, 1
7, 1
6, 2
4, 4
4, 1
6, 0
4, 0
4, 3
2, 2
1, 4
4, 3
4, 1
5, 1
1, 5
0, 6
3, 3
2, 6
4, 4
6, 3
0, 1
1, 3
2, 4
1, 1
0, 5
3, 3
2, 2
2, 6
5, 1
4, 4
5, 4
4, 2
0, 3
2, 4
4, 4
0, 1
6, 3
1, 4
2, 3
0, 1
7, 1
4, 2
2, 4
1, 3
2, 1
4, 1
3, 4
3, 0
3, 4
2, 3
1, 4
4, 2
3, 4
2, 0
2, 3
1, 3
2, 3
3, 3
0, 0
2, 3
1, 3
1, 1
4, 3
1, 4
0, 1
0, 1
3, 2
1, 3
3, 2
3, 4
1, 3
0, 2
2, 3
1, 4
1, 3
2, 3
1, 3
2, 2
4, 3
0, 0
3, 5
0, 3
1, 1
3, 5
1, 0
3, 3
3, 4
5, 1
0, 2
6, 7
3, 1
1, 7
2, 2
2, 4
1, 1
2, 2
1, 4
2, 2
0, 1
2, 1
1, 3
2, 1
1, 2
3, 2
1, 0
2, 1
3, 2
1, 2
3, 5
1, 1
0, 1
2, 2
1, 1
1, 5
0, 3
2, 4
1, 1
0, 0
0, 2
1, 1
2, 6
2, 4
2, 1
2, 2
1, 9
4, 5
3, 7
2, 1
4, 4
5, 9
3, 6
8, 5
4, 5
2, 4
3, 3
4, 3
1, 3
3, 2
2, 3
0, 1
1, 3
1, 2
2, 1
0, 1
1, 1
2, 2
4, 0
2, 1
2, 2
0, 0
2, 2
1, 0
1, 1
3, 0
0, 1
1, 2
1, 3
3, 3
3, 2
3, 1
0, 1
4, 1
4, 1
0, 0
3, 1
1, 1
0, 1
1, 0
0, 0
0, 1
1, 3
3, 2
0, 1
1, 0
1, 1
1, 1
3, 1
1, 0
3, 1
2, 1
2, 0
0, 1
0, 0
0, 0
0, 2
0, 1
2, 0
0, 2
0, 0
1, 0
2, 0
1, 0
0, 1
1, 1
2, 2
0, 1
0, 0
1, 1
1, 1
1, 1
2, 0
0, 0
0, 0
0, 0
1, 2
0, 1
0, 1
0, 3
1, 1
1, 0
0, 0
0, 0
0, 2
2, 0
1, 2
1, 1
0, 0
1, 0
0, 1
1, 2
1, 1
0, 0
1, 2
0, 0
1, 1
1, 1
1, 0
0, 0
0, 1
0, 0
0, 1
1, 1
2, 2
1, 1
1, 1
0, 0
0, 1
1, 0
1, 0
0, 0
0, 0
1, 1
0, 0
1, 0
0, 0
0, 0
0, 1
1, 0
0, 1
1, 0
1, 0
0, 1
1, 1
2, 1
0, 0
1, 0
1, 0
0, 1
0, 1
0, 2
1, 0
2, 1
0, 1
0, 2
0, 0
0, 0
1, 0
1, 2
0, 0
0, 0
0, 0
1, 1
1, 0
0, 1
0, 0
1, 1
0, 0
1, 0
0, 0
0, 1
0, 1
1, 0
0, 0
1, 0
0, 0
0, 0
0, 0
1, 0
0, 1
0, 0
0, 0
0, 1
0, 0
0, 0
1, 1
1, 0
0, 0
0, 0
0, 0
0, 0
0, 0
0, 0
0, 0
0, 1
0, 0
0, 1
0, 0
0, 2
0, 0
0, 0
1, 0
1, 0
1, 0
0, 0
1, 0
0, 0
0, 0
1, 0
0, 0
0, 1
1, 2
0, 1
0, 1
0, 0
1, 0
0, 0
0, 0
0, 0
0, 0
0, 0
0, 0
0, 0
0, 0
0, 0
0, 0
0, 0
0, 0
0, 0
0, 0
0, 0
0, 0
1, 0
1, 0
0, 1
0, 0
0, 0
0, 0
0, 1
0, 0
0, 0
0, 2
1, 0
0, 0
1, 0
0, 1
0, 0
1, 0
0, 0
0, 0
0, 0
0, 0
0, 1
0, 0
1, 1
0, 0
0, 1
0, 1
1, 0
1, 0
0, 0
0, 1
0, 0
0, 1
0, 0
0, 0
0, 0
0, 0
0, 0
0, 0
0, 1
0, 0
0, 2
0, 1
0, 1
0, 0
0, 0
0, 0
0, 0
1, 0
0, 0
0, 1
0, 0
0, 0
0, 0
0, 1
1, 0
0, 0
0, 0
0, 0
0, 0
0, 0
0, 0
0, 0
0, 0
0, 0
1, 1
1, 0
0, 0
1, 0
0, 0
0, 0
0, 0
0, 0
0, 1
1, 1
0, 1
0, 0
0, 0
0, 0
0, 1
0, 0
1, 0
0, 0
0, 0
0, 0
0, 1
0, 0
0, 1
0, 0
0, 0
0, 0
0, 1
0, 0
0, 0
0, 0
0, 0
0, 0
1, 0
1, 0
0, 0
0, 0
0, 0
0, 0
1, 0
1, 1
0, 0
0, 0
1, 0
0, 0
0, 0
0, 1
0, 0
0, 0
0, 0
0, 0
0, 1
0, 1
0, 0
0, 0
0, 0
0, 0
0, 0
0, 0
0, 0
0, 0
0, 0
0, 0
0, 0
0, 0
0, 0
0, 0
0, 0
0, 1
0, 0
0, 0
0, 0
1, 0
0, 0
0, 0
0, 0
0, 0
0, 0
0, 0
0, 0
0, 0
0, 0
0, 0
0, 0
0, 0
0, 0
0, 1
0, 0
0, 0
0, 0
0, 0
0, 0
0, 0
0, 0
0, 0
0, 0
0, 0
0, 0
0, 0
0, 0
0, 0
0, 1
0, 0
0, 1
0, 0
0, 0
0, 0
0, 0
0, 0
1, 0
0, 1
0, 0
0, 0
0, 0
0, 0
0, 0
0, 0
0, 0
0, 1
0, 0
1, 0
0, 0
0, 0
0, 0
0, 0
0, 0
0, 0
0, 1
0, 0
0, 0
0, 0
0, 0
1, 0
0, 0
0, 0
0, 0
0, 0
0, 0
0, 0
0, 0
1, 0
0, 0
0, 0
0, 0
0, 0
0, 0
0, 0
0, 0
0, 0
0, 0
0, 0
0, 0
0, 0
0, 0
0, 0
0, 0
0, 0
0, 0
0, 1
0, 0
0, 0
0, 0
0, 0
0, 0
0, 1
0, 0
0, 0
0, 0
0, 0
0, 0
0, 0
0, 0
0, 0
0, 0
0, 0
0, 1
0, 0
0, 0
0, 0
0, 0
0, 0
0, 0
0, 0
0, 0
0, 0
0, 0
0, 0
0, 0
0, 0
0, 0
0, 0
0, 0
0, 0
0, 0
0, 0
0, 0
0, 0
0, 0
0, 0
0, 0
0, 0
0, 0
0, 0
0, 0
0, 0
0, 0
0, 0
0, 0
0, 0
0, 0
0, 0
0, 0
0, 0
0, 0
0, 0
0, 0
0, 0
0, 0
0, 0
0, 0
0, 0
0, 0
0, 0
0, 0
0, 0
0, 0
0, 0
0, 0
0, 0
0, 0
0, 0
0, 0
0, 0
0, 0
0, 0
0, 0
0, 0
0, 0
0, 0
0, 0
0, 0
0, 0
0, 0
0, 0
0, 0
0, 0
0, 0
0, 0
0, 0
0, 0
0, 0
0, 0
0, 0
0, 0
0, 0
0, 0
0, 0
0, 0
0, 0
0, 0
0, 0
0, 0
0, 0
0, 0
0, 0
0, 0
0, 0
0, 0
0, 0
0, 0
0, 0
0, 0
0, 0
0, 0
0, 0
0, 0
0, 0
0, 0
0, 0
0, 0
0, 0
0, 0
0, 0
0, 0
0, 0
0, 0
0, 0
0, 0
0, 0
0, 0
0, 0
0, 0
0, 0
0, 0
0, 0
0, 0
0, 0
0, 0
0, 0
0, 0
0, 0
0, 0
0, 0
0, 0
0, 0
0, 0
0, 0
0, 0
0, 0
0, 0
0, 0
0, 0
0, 0
0, 0
0, 0
0, 0
0, 0
0, 0
0, 0
0, 0
0, 0
0, 0
0, 0
0, 0
0, 0
0, 0
0, 0
0, 0
0, 0
0, 0
0, 0
0, 0
0, 0
0, 0
0, 0
0, 0
0, 0
0, 0
0, 0
0, 0
0, 0
0, 0
0, 0
0, 0
0, 0
0, 0
0, 0
0, 0
0, 0
0, 0
0, 0
0, 0
0, 0
0, 0
0, 0
0, 0
0, 0
0, 0
0, 0
0, 0
0, 0
0, 0
0, 0
0, 0
0, 0
0, 0
0, 0
0, 0
0, 0
0, 0
0, 0
0, 0
0, 0
0, 0
0, 0
0, 0
0, 0
0, 0
0, 0
0, 0
0, 0
0, 0
0, 0
0, 0
0, 0
0, 0
0, 0
0, 0
0, 0
0, 0
0, 0
0, 0
0, 0
0, 0
0, 0
0, 0
0, 0
0, 0
0, 0
0, 0
0, 0
0, 0
0, 0
0, 0
0, 0
0, 0
0, 0
0, 0
0, 0
0, 0
0, 0
0, 0
0, 0
0, 0
0, 0
0, 0
0, 0
0, 0
0, 0
0, 0
0, 0
0, 0
0, 0
0, 0
0, 0
0, 0
0, 0
0, 0
0, 0
0, 0
0, 0
0, 0
0, 0
0, 0
0, 0
0, 0
0, 0
0, 0
0, 0
0, 0
0, 0
0, 0
0, 0
0, 0
0, 0
0, 0
0, 0
0, 0
0, 0
0, 0
0, 0
0, 0
0, 0
0, 0
0, 0
0, 0
0, 0
0, 0
0, 0
0, 0
0, 0
0, 0
0, 0
0, 0
0, 0
0, 0
0, 0
0, 0
0, 0
0, 0
0, 0
0, 0
0, 0
0, 0
0, 0
0, 0
0, 0
0, 0
0, 0
0, 0
0, 0
0, 0
0, 0
0, 0
0, 0
0, 0
0, 0
0, 0
0, 0
0, 0
0, 0
0, 0
0, 0
0, 0
0, 0
0, 0
0, 0
0, 0
0, 0
0, 0
0, 0
0, 0
0, 0
0, 0
0, 0
0, 0
0, 0
0, 0
0, 0
0, 0
0, 0
0, 0
0, 0
0, 0
0, 0
0, 0
0, 0
0, 0
0, 0
0, 0
0, 0
0, 0
0, 0
0, 0
0, 0
0, 0
0, 0
0, 0
0, 0
0, 0
0, 0
0, 0
0, 0
0, 0
0, 0
0, 0
0, 0
0, 0
0, 0
0, 0
0, 0
0, 0
0, 0
0, 0
0, 0
0, 0
0, 0
0, 0
0, 0
0, 0
#ENDOFDATA     end of spectrum data