File: host_upload/12-01-2023/Dourbes (shot-by-shot)/upload_4/ps__0257_0689790785_000rfs_shot_3138.msa
#FORMAT      : EMSA/MAS spectral data file
#VERSION     : TC202v2.0 PIXL
#TITLE       : N/A
#DATE        :       Date in the format DD-MMM-YYYY, for example 07-JUL-2010
#TIME        :             The time of day at which the spectrum was recorded, in 24-hour format
#OWNER       : PIXL Flight Model       (PIXL will use this to indicate which instrument took the data.)
#NPOINTS     : 4096     Number of data points in the spectrum (This can be zero for configuration only files)
#NCOLUMNS    : 2     Number of data columns in the spectrum (This can be zero for configuration only files)
#XUNITS      : eV
#YUNITS      : COUNTS
#DATATYPE    : YY
#XPERCHAN    : 7.862, 7.881   eV per channel (separate by commas if more than one detector)
#OFFSET      : 18.5, -22.4         eV of first channel  (separate by commas if more than one detector
#SIGNALTYPE  : XRF
#YP_TEMP     : 2.813
#LIVETIME    : 9.13958, 9.14265   seconds (separate by commas if more than one detector)
#REALTIME    : 10, 10.0   seconds (separate by commas if more than one detector)
#SPECTRUM    : start of spectrum data
0, 0
0, 0
0, 0
0, 0
0, 0
0, 0
0, 0
0, 0
0, 0
0, 0
0, 0
0, 0
0, 0
0, 0
0, 0
0, 0
0, 0
0, 0
0, 0
0, 0
0, 0
0, 0
0, 0
0, 0
0, 0
0, 0
0, 0
0, 0
0, 0
1, 0
0, 0
0, 0
0, 0
2, 0
0, 0
1, 1
0, 0
1, 0
0, 0
2, 1
0, 2
1, 2
3, 3
1, 1
3, 0
2, 2
4, 0
0, 1
3, 2
5, 12
12, 14
32, 16
32, 25
42, 40
50, 35
41, 38
34, 38
22, 14
16, 14
0, 7
11, 11
5, 2
8, 7
18, 12
14, 14
14, 15
13, 9
16, 18
31, 18
70, 51
141, 112
278, 232
473, 427
651, 614
862, 815
885, 777
727, 629
513, 455
312, 256
178, 162
83, 70
42, 46
39, 28
10, 17
15, 11
8, 8
6, 11
5, 10
4, 4
5, 3
1, 1
0, 1
2, 4
5, 1
4, 3
7, 7
5, 4
16, 13
7, 9
11, 4
6, 11
9, 12
9, 6
8, 4
6, 3
3, 8
5, 6
19, 9
15, 11
30, 18
39, 39
39, 58
65, 57
67, 59
77, 65
55, 51
67, 44
35, 41
37, 34
23, 38
26, 32
28, 27
40, 21
31, 26
34, 18
24, 22
27, 19
13, 15
15, 12
7, 7
3, 7
9, 7
4, 3
2, 4
11, 2
7, 4
6, 1
2, 4
9, 5
6, 7
4, 8
10, 7
2, 7
6, 4
8, 3
4, 6
4, 6
11, 6
8, 8
15, 10
42, 43
77, 93
200, 204
368, 353
550, 592
815, 810
1038, 889
1143, 1019
1002, 937
849, 737
630, 523
415, 318
223, 193
123, 88
57, 45
46, 48
41, 42
78, 78
90, 94
135, 162
156, 143
156, 163
139, 137
112, 106
80, 78
45, 51
29, 30
14, 7
10, 12
5, 4
4, 6
4, 1
5, 5
6, 4
6, 5
7, 4
2, 8
12, 5
19, 17
28, 24
26, 27
38, 27
32, 32
20, 16
26, 23
18, 17
20, 11
14, 9
13, 7
14, 7
9, 10
5, 8
9, 3
6, 6
7, 9
7, 6
4, 10
7, 12
11, 13
11, 11
14, 12
9, 12
13, 8
6, 11
6, 6
4, 6
3, 4
5, 14
8, 5
6, 4
6, 4
6, 6
3, 4
6, 6
9, 13
15, 15
26, 33
30, 28
51, 44
52, 51
58, 51
43, 50
40, 41
41, 27
17, 20
17, 14
9, 10
11, 5
5, 6
4, 5
6, 1
9, 7
7, 8
10, 9
13, 18
13, 26
17, 43
30, 55
44, 52
37, 62
62, 67
58, 56
55, 72
51, 41
51, 37
45, 36
26, 26
19, 19
12, 14
10, 9
10, 19
13, 18
18, 20
49, 37
73, 79
128, 162
223, 265
355, 446
631, 666
862, 900
1108, 1153
1297, 1297
1364, 1272
1287, 1080
1126, 869
921, 713
595, 464
387, 275
258, 147
134, 75
57, 38
30, 25
20, 17
18, 11
10, 5
10, 11
8, 7
8, 9
9, 14
13, 13
18, 12
15, 22
20, 22
36, 38
52, 57
67, 94
109, 124
147, 151
175, 215
177, 210
192, 200
188, 208
157, 144
111, 143
89, 95
73, 66
44, 37
22, 20
15, 16
7, 4
11, 6
15, 6
28, 4
19, 5
26, 4
34, 5
33, 8
30, 5
47, 9
22, 7
34, 5
25, 1
9, 3
21, 6
11, 7
9, 9
11, 5
7, 4
5, 5
10, 6
6, 6
11, 5
7, 4
8, 10
4, 3
5, 4
7, 4
4, 6
7, 4
5, 4
3, 11
8, 3
12, 5
7, 3
6, 4
6, 5
4, 6
3, 9
6, 7
7, 4
9, 4
10, 6
7, 4
8, 5
8, 15
10, 11
7, 10
8, 13
9, 5
14, 9
8, 8
4, 10
5, 8
6, 6
11, 6
9, 4
6, 4
2, 5
5, 3
5, 4
5, 2
4, 5
8, 3
5, 9
7, 4
3, 8
5, 4
6, 6
7, 5
6, 7
3, 5
6, 5
3, 5
7, 12
10, 4
3, 5
9, 4
4, 6
6, 5
6, 14
6, 6
10, 11
3, 9
12, 5
13, 3
11, 10
12, 3
6, 4
10, 9
5, 5
5, 8
9, 4
7, 3
6, 4
5, 4
6, 6
7, 5
5, 5
4, 9
4, 3
7, 8
7, 6
6, 9
7, 4
5, 3
5, 4
2, 5
3, 6
2, 3
5, 5
5, 4
7, 9
4, 4
5, 8
4, 10
3, 5
3, 6
1, 3
3, 1
4, 2
9, 3
9, 2
4, 5
5, 3
4, 4
4, 3
6, 2
5, 2
1, 4
4, 5
3, 5
3, 2
1, 4
4, 1
1, 2
2, 2
5, 3
3, 3
6, 1
1, 5
6, 3
6, 2
3, 2
5, 0
4, 2
4, 1
2, 6
3, 7
2, 2
2, 4
3, 3
5, 1
2, 5
1, 3
5, 3
4, 6
5, 3
0, 1
1, 2
2, 3
5, 3
2, 3
3, 4
4, 2
3, 6
2, 1
6, 3
2, 2
3, 2
0, 1
1, 1
3, 4
2, 3
0, 3
4, 8
0, 4
1, 3
6, 7
2, 6
5, 8
4, 3
4, 5
0, 5
2, 8
4, 6
3, 4
3, 4
3, 8
2, 2
2, 2
0, 3
2, 4
2, 2
0, 3
2, 4
4, 7
1, 4
3, 5
1, 1
2, 1
5, 8
3, 3
6, 3
0, 3
0, 5
3, 5
3, 1
5, 3
1, 0
0, 0
0, 2
1, 1
1, 3
0, 1
2, 3
2, 1
4, 5
2, 1
2, 3
0, 1
0, 1
1, 2
2, 2
3, 0
2, 1
1, 3
2, 3
2, 1
2, 1
3, 2
1, 1
2, 2
0, 4
2, 3
3, 3
2, 1
2, 3
0, 3
3, 2
0, 6
1, 1
2, 0
0, 1
0, 2
1, 2
2, 1
3, 2
0, 2
1, 0
1, 0
1, 0
0, 0
2, 3
0, 2
3, 0
0, 1
3, 5
1, 2
1, 0
1, 2
1, 1
1, 2
0, 2
3, 3
2, 1
0, 1
1, 1
2, 1
1, 2
3, 0
0, 3
2, 1
1, 1
2, 1
3, 1
0, 1
4, 1
0, 1
1, 0
1, 1
0, 1
1, 1
2, 2
0, 1
2, 3
0, 1
1, 1
0, 0
1, 3
2, 0
0, 1
1, 0
0, 1
1, 2
0, 0
0, 1
1, 1
1, 0
1, 0
2, 2
2, 3
0, 0
0, 0
0, 0
1, 0
1, 0
1, 0
1, 2
0, 0
2, 2
1, 1
2, 0
0, 3
0, 1
0, 3
1, 1
1, 0
1, 1
1, 1
1, 1
1, 1
0, 3
1, 0
1, 0
0, 1
0, 2
2, 0
2, 0
1, 2
0, 0
0, 2
2, 1
1, 0
0, 1
0, 1
1, 0
1, 0
0, 0
0, 1
1, 1
1, 0
1, 0
2, 1
0, 0
2, 1
1, 1
0, 0
1, 0
1, 1
2, 0
2, 0
0, 0
0, 1
0, 1
0, 0
0, 1
0, 1
1, 0
1, 1
0, 2
2, 0
1, 1
1, 2
0, 2
0, 0
1, 0
0, 1
0, 0
0, 1
0, 0
0, 0
1, 0
0, 1
0, 0
0, 0
2, 0
3, 0
1, 0
1, 0
1, 0
0, 1
0, 0
0, 0
0, 0
1, 0
0, 0
0, 2
1, 0
1, 1
0, 0
0, 0
2, 0
0, 1
0, 0
0, 0
1, 1
2, 0
1, 0
0, 1
1, 1
1, 0
1, 0
0, 0
1, 3
0, 0
0, 1
0, 0
0, 0
1, 1
1, 0
0, 2
0, 1
0, 0
0, 0
0, 1
0, 1
2, 0
0, 0
0, 0
0, 0
1, 0
0, 0
1, 0
1, 0
2, 0
0, 1
0, 0
0, 0
1, 0
0, 0
0, 0
0, 0
0, 0
0, 0
0, 0
0, 0
1, 1
0, 0
0, 0
1, 0
0, 0
0, 1
0, 0
1, 0
0, 0
0, 0
0, 0
0, 1
0, 0
0, 0
0, 1
1, 0
0, 0
0, 0
2, 0
0, 0
1, 0
0, 1
0, 1
1, 0
0, 1
0, 0
0, 1
0, 1
1, 1
0, 0
0, 0
0, 0
0, 1
1, 0
1, 0
0, 0
0, 0
0, 0
0, 2
0, 0
0, 0
0, 0
0, 1
0, 2
0, 0
0, 0
1, 0
1, 0
0, 0
1, 0
0, 1
0, 0
1, 0
0, 0
0, 0
0, 0
1, 0
0, 0
0, 1
0, 0
0, 0
0, 0
0, 0
0, 0
0, 0
0, 0
0, 0
0, 0
0, 0
0, 0
0, 0
0, 0
0, 0
0, 0
0, 0
0, 2
0, 0
0, 0
0, 0
0, 0
0, 0
0, 0
0, 0
0, 0
0, 0
0, 0
0, 0
0, 0
0, 1
0, 0
0, 1
0, 0
0, 0
1, 0
0, 0
0, 0
2, 0
0, 0
0, 0
0, 0
0, 0
0, 0
1, 0
0, 0
0, 0
0, 0
1, 0
0, 0
0, 0
0, 1
0, 0
0, 0
0, 0
1, 0
1, 0
0, 0
0, 1
0, 0
1, 0
0, 0
0, 0
0, 0
0, 0
0, 0
0, 0
0, 0
1, 0
0, 0
0, 0
0, 0
0, 0
0, 0
0, 0
0, 0
0, 0
0, 1
0, 0
0, 0
0, 0
0, 0
0, 0
0, 0
0, 0
0, 0
0, 1
0, 0
0, 0
1, 0
0, 0
0, 0
0, 0
1, 0
0, 0
0, 0
0, 0
0, 0
0, 0
0, 0
0, 0
0, 0
0, 0
0, 0
0, 0
0, 0
0, 0
0, 0
0, 0
0, 0
0, 0
0, 0
0, 0
0, 0
0, 0
0, 1
0, 0
0, 0
0, 0
0, 0
0, 0
0, 1
0, 0
0, 0
0, 0
0, 0
0, 0
0, 1
0, 1
0, 0
0, 0
0, 0
0, 0
0, 0
0, 0
0, 0
1, 0
0, 0
0, 0
0, 0
0, 0
0, 0
0, 0
0, 0
0, 0
0, 0
0, 0
0, 0
0, 0
0, 0
1, 0
0, 0
0, 0
0, 0
0, 0
0, 0
0, 0
0, 0
0, 0
0, 0
0, 0
0, 0
0, 0
0, 0
0, 0
0, 0
0, 0
0, 0
0, 0
0, 0
0, 0
0, 0
0, 0
0, 0
0, 0
0, 0
0, 0
0, 0
0, 0
0, 0
0, 0
1, 0
0, 0
0, 0
1, 0
0, 0
0, 0
0, 0
0, 0
0, 0
0, 0
0, 0
0, 0
0, 0
0, 0
0, 0
0, 0
0, 0
0, 0
0, 0
0, 0
0, 0
0, 0
0, 0
0, 0
0, 0
0, 0
0, 0
0, 0
0, 0
0, 0
0, 0
0, 0
0, 0
0, 0
0, 0
0, 0
0, 0
0, 0
0, 0
0, 0
0, 0
0, 0
0, 0
0, 0
0, 0
0, 0
0, 0
0, 0
0, 0
0, 0
0, 0
0, 0
0, 0
0, 0
0, 0
0, 0
0, 0
0, 0
0, 0
0, 0
0, 0
0, 0
0, 0
0, 0
0, 0
0, 0
0, 0
0, 0
0, 0
0, 0
0, 0
0, 0
0, 0
0, 0
0, 0
0, 0
0, 0
0, 0
0, 0
0, 0
0, 0
0, 0
0, 0
0, 0
0, 0
0, 0
0, 0
0, 0
0, 0
0, 0
0, 0
0, 0
0, 0
0, 0
0, 0
0, 0
0, 0
0, 0
0, 0
0, 0
0, 0
0, 0
0, 0
0, 0
0, 0
0, 0
0, 0
0, 0
0, 0
0, 0
0, 0
0, 0
0, 0
0, 0
0, 0
0, 0
0, 0
0, 0
0, 0
0, 0
0, 0
0, 0
0, 0
0, 0
0, 0
0, 0
0, 0
0, 0
0, 0
0, 0
0, 0
0, 0
0, 0
0, 0
0, 0
0, 0
0, 0
0, 0
0, 0
0, 0
0, 0
0, 0
0, 0
0, 0
0, 0
0, 0
0, 0
0, 0
0, 0
0, 0
0, 0
0, 0
0, 0
0, 0
0, 0
0, 0
0, 0
0, 0
0, 0
0, 0
0, 0
0, 0
0, 0
0, 0
0, 0
0, 0
0, 0
0, 0
0, 0
0, 0
0, 0
0, 0
0, 0
0, 0
0, 0
0, 0
0, 0
0, 0
0, 0
0, 0
0, 0
0, 0
0, 0
0, 0
0, 0
0, 0
0, 0
0, 0
0, 0
0, 0
0, 0
0, 0
0, 0
0, 0
0, 0
0, 0
0, 0
0, 0
0, 0
0, 0
0, 0
0, 0
0, 0
0, 0
0, 0
0, 0
0, 0
0, 0
0, 0
0, 0
0, 0
0, 0
0, 0
0, 0
0, 0
0, 0
0, 0
0, 0
0, 0
0, 0
0, 0
0, 0
0, 0
0, 0
0, 0
0, 0
0, 0
0, 0
0, 0
0, 0
0, 0
0, 0
0, 0
0, 0
0, 0
0, 0
0, 0
0, 0
0, 0
0, 0
0, 0
0, 0
0, 0
0, 0
0, 0
0, 0
0, 0
0, 0
0, 0
0, 0
0, 0
0, 0
0, 0
0, 0
0, 0
0, 0
0, 0
0, 0
0, 0
0, 0
0, 0
0, 0
0, 0
0, 0
0, 0
0, 0
0, 0
0, 0
0, 0
0, 0
0, 0
0, 0
0, 0
0, 0
0, 0
0, 0
0, 0
0, 0
0, 0
0, 0
0, 0
0, 0
0, 0
0, 0
0, 0
0, 0
0, 0
0, 0
0, 0
0, 0
0, 0
0, 0
0, 0
0, 0
0, 0
0, 0
0, 0
0, 0
0, 0
0, 0
0, 0
0, 0
0, 0
0, 0
0, 0
0, 0
0, 0
0, 0
0, 0
0, 0
0, 0
0, 0
0, 0
0, 0
0, 0
0, 0
0, 0
0, 0
0, 0
0, 0
0, 0
0, 0
0, 0
0, 0
0, 0
0, 0
0, 0
0, 0
0, 0
0, 0
0, 0
0, 0
0, 0
0, 0
0, 0
0, 0
0, 0
0, 0
0, 0
0, 0
0, 0
0, 0
0, 0
0, 0
0, 0
0, 0
0, 0
0, 0
0, 0
0, 0
0, 0
0, 0
0, 0
0, 0
0, 0
0, 0
0, 0
0, 0
0, 0
0, 0
0, 0
0, 0
0, 0
0, 0
0, 0
0, 0
0, 0
0, 0
0, 0
0, 0
0, 0
0, 0
0, 0
0, 0
0, 0
0, 0
0, 0
0, 0
0, 0
0, 0
0, 0
#ENDOFDATA     end of spectrum data