File: host_upload/12-01-2023/Dourbes (shot-by-shot)/upload_4/ps__0257_0689790785_000rfs_shot_3113.msa
#FORMAT      : EMSA/MAS spectral data file
#VERSION     : TC202v2.0 PIXL
#TITLE       : N/A
#DATE        :       Date in the format DD-MMM-YYYY, for example 07-JUL-2010
#TIME        :             The time of day at which the spectrum was recorded, in 24-hour format
#OWNER       : PIXL Flight Model       (PIXL will use this to indicate which instrument took the data.)
#NPOINTS     : 4096     Number of data points in the spectrum (This can be zero for configuration only files)
#NCOLUMNS    : 2     Number of data columns in the spectrum (This can be zero for configuration only files)
#XUNITS      : eV
#YUNITS      : COUNTS
#DATATYPE    : YY
#XPERCHAN    : 7.862, 7.881   eV per channel (separate by commas if more than one detector)
#OFFSET      : 18.5, -22.4         eV of first channel  (separate by commas if more than one detector
#SIGNALTYPE  : XRF
#YP_TEMP     : 3.005
#LIVETIME    : 9.15059, 9.14773   seconds (separate by commas if more than one detector)
#REALTIME    : 10, 10.0   seconds (separate by commas if more than one detector)
#SPECTRUM    : start of spectrum data
0, 0
0, 0
0, 0
0, 0
0, 0
0, 0
0, 0
0, 0
0, 0
0, 0
0, 0
0, 0
0, 0
0, 0
0, 0
0, 0
0, 0
0, 0
0, 0
0, 0
0, 0
0, 0
0, 0
0, 0
0, 0
0, 0
0, 0
0, 0
0, 0
0, 1
0, 0
1, 0
0, 1
0, 1
0, 0
1, 1
0, 2
0, 0
0, 0
0, 3
1, 1
3, 0
2, 1
0, 0
1, 0
1, 1
3, 2
1, 0
2, 3
1, 6
8, 8
19, 14
40, 34
42, 38
52, 54
36, 33
39, 26
17, 10
9, 11
4, 7
5, 3
5, 10
8, 4
5, 9
12, 12
7, 11
12, 12
12, 13
28, 15
66, 54
144, 130
290, 270
498, 545
741, 708
899, 901
928, 924
797, 758
534, 555
325, 320
189, 199
94, 104
52, 67
28, 41
18, 25
14, 17
10, 11
3, 8
6, 4
5, 2
2, 0
2, 1
1, 1
4, 1
6, 2
3, 6
2, 2
9, 5
3, 4
4, 7
5, 5
5, 5
3, 4
3, 2
1, 4
3, 2
3, 2
4, 3
1, 5
5, 5
7, 10
12, 10
20, 20
26, 33
25, 28
27, 36
35, 20
24, 30
27, 30
15, 19
17, 11
17, 19
18, 12
10, 11
18, 13
13, 13
12, 13
8, 15
10, 12
8, 6
4, 5
4, 3
9, 1
3, 3
6, 2
3, 2
2, 2
2, 4
6, 4
1, 3
4, 6
4, 4
2, 4
4, 1
2, 1
4, 3
4, 2
6, 4
6, 5
12, 10
15, 18
56, 53
104, 112
211, 219
392, 441
603, 716
872, 940
1032, 1143
1216, 1267
1180, 1133
949, 877
726, 644
436, 357
267, 229
128, 110
69, 80
48, 42
42, 43
71, 96
102, 101
125, 150
150, 170
193, 175
149, 158
125, 113
78, 85
72, 72
36, 25
18, 13
12, 3
6, 4
2, 2
4, 0
4, 1
0, 4
4, 3
3, 1
8, 10
9, 12
11, 17
22, 28
24, 25
27, 39
30, 35
38, 24
29, 24
13, 18
13, 10
15, 8
10, 6
7, 9
5, 7
7, 8
7, 8
4, 1
6, 4
5, 4
5, 4
8, 5
9, 5
8, 6
9, 5
3, 11
8, 6
8, 13
2, 6
4, 3
2, 3
5, 3
9, 2
4, 5
8, 6
4, 1
5, 5
10, 11
10, 9
20, 15
26, 31
32, 40
38, 43
40, 58
49, 43
58, 52
44, 36
40, 34
31, 21
18, 24
12, 12
6, 6
6, 8
7, 4
6, 2
8, 9
2, 2
8, 4
9, 8
12, 19
16, 26
21, 33
42, 42
38, 43
49, 51
58, 53
59, 48
43, 33
34, 38
33, 20
32, 24
23, 10
14, 16
16, 4
9, 10
13, 12
15, 27
38, 40
42, 70
107, 147
214, 252
322, 405
562, 654
725, 881
1069, 1057
1185, 1218
1230, 1239
1173, 1123
1069, 929
867, 699
544, 441
369, 284
268, 158
149, 77
98, 53
46, 17
36, 19
27, 10
16, 7
9, 13
7, 5
8, 9
5, 10
14, 13
7, 15
15, 17
20, 27
29, 36
38, 41
67, 80
92, 100
135, 162
187, 161
175, 189
167, 198
157, 144
138, 135
133, 96
81, 67
55, 54
23, 28
19, 16
14, 6
13, 7
11, 2
21, 4
10, 6
23, 4
26, 4
26, 8
29, 2
32, 9
29, 3
28, 9
19, 7
14, 4
8, 5
9, 8
7, 3
6, 5
5, 4
6, 6
3, 3
5, 4
4, 8
7, 4
12, 0
10, 5
7, 6
7, 1
8, 6
8, 2
6, 4
5, 3
3, 8
5, 4
12, 5
7, 8
3, 5
1, 5
8, 5
7, 7
12, 3
6, 8
5, 3
5, 7
6, 9
4, 3
3, 10
3, 14
2, 9
5, 12
7, 6
7, 8
3, 14
4, 9
1, 8
5, 7
3, 4
2, 7
1, 8
3, 3
6, 6
3, 5
8, 5
9, 5
6, 7
8, 1
8, 6
4, 4
3, 9
4, 5
5, 5
3, 3
9, 5
4, 1
7, 5
10, 8
5, 4
6, 3
9, 5
5, 5
4, 10
9, 8
7, 4
6, 8
4, 2
1, 8
9, 8
2, 8
6, 6
4, 4
7, 7
3, 6
3, 7
7, 1
3, 6
0, 4
4, 7
2, 4
10, 7
4, 10
8, 11
3, 12
4, 29
2, 30
5, 25
0, 21
6, 21
6, 21
4, 24
3, 18
3, 17
5, 11
3, 13
5, 9
5, 6
6, 6
8, 5
9, 12
8, 2
5, 2
16, 8
5, 4
6, 6
9, 2
8, 3
3, 4
4, 2
7, 3
10, 4
3, 3
5, 1
2, 2
1, 1
2, 4
4, 1
3, 3
0, 1
1, 3
0, 2
1, 2
3, 3
2, 1
2, 2
4, 6
2, 4
3, 4
2, 2
2, 5
4, 0
2, 7
2, 2
6, 2
2, 5
6, 4
4, 7
6, 1
7, 5
5, 5
3, 2
7, 2
1, 3
6, 3
7, 4
2, 5
2, 2
6, 1
2, 3
4, 2
2, 5
2, 4
1, 3
3, 1
1, 7
3, 3
1, 0
0, 2
2, 5
3, 7
3, 4
3, 5
1, 6
4, 2
1, 7
1, 4
0, 3
2, 1
3, 1
4, 4
2, 4
2, 1
2, 4
4, 4
0, 7
4, 3
0, 4
2, 4
4, 0
5, 3
3, 7
5, 2
8, 0
1, 4
4, 6
4, 0
3, 4
4, 5
4, 0
5, 0
7, 3
9, 1
4, 0
6, 0
4, 3
5, 3
4, 2
0, 4
7, 1
5, 0
6, 2
1, 4
2, 1
1, 3
2, 3
6, 0
3, 1
2, 1
2, 3
4, 3
1, 1
2, 3
0, 2
0, 5
4, 1
1, 1
3, 3
3, 0
1, 1
2, 2
0, 2
2, 1
4, 1
5, 3
0, 3
0, 1
1, 0
3, 0
3, 2
2, 0
1, 1
2, 2
1, 1
4, 1
0, 1
1, 2
2, 3
1, 2
1, 0
3, 1
2, 2
1, 1
2, 5
0, 1
1, 2
1, 0
1, 0
1, 1
2, 4
3, 3
2, 1
0, 2
1, 3
1, 0
2, 3
3, 2
1, 1
0, 1
2, 1
1, 3
0, 1
1, 3
0, 1
0, 2
2, 0
2, 1
2, 1
1, 3
1, 4
2, 1
3, 2
1, 2
1, 0
0, 0
4, 1
1, 1
2, 2
2, 1
0, 1
0, 2
0, 3
0, 0
2, 0
2, 2
3, 2
1, 1
0, 1
2, 2
1, 0
0, 1
3, 2
1, 1
2, 0
0, 1
0, 0
0, 1
1, 1
2, 0
0, 3
2, 0
1, 1
1, 4
2, 2
0, 1
1, 1
0, 2
2, 0
1, 0
2, 1
1, 0
4, 0
0, 1
2, 1
1, 0
1, 1
1, 1
0, 0
1, 1
0, 0
1, 0
1, 0
1, 0
1, 1
1, 0
2, 0
0, 0
1, 0
1, 0
0, 0
0, 2
0, 0
0, 0
2, 0
0, 0
0, 1
1, 0
1, 1
1, 0
0, 0
0, 1
2, 0
1, 0
0, 0
0, 2
0, 0
0, 1
0, 1
0, 0
0, 0
2, 0
0, 1
1, 0
1, 1
0, 0
0, 0
2, 2
1, 2
0, 0
0, 0
2, 1
1, 1
0, 0
0, 0
0, 1
0, 1
0, 0
0, 0
2, 0
0, 0
2, 1
0, 2
3, 0
1, 0
0, 0
0, 0
0, 0
0, 1
2, 0
0, 0
1, 0
1, 0
1, 0
0, 2
0, 0
0, 0
1, 2
0, 2
0, 0
2, 0
0, 1
0, 1
0, 0
0, 0
0, 0
0, 1
0, 1
1, 0
0, 0
0, 1
0, 1
0, 1
2, 3
0, 0
0, 1
0, 0
0, 0
0, 0
0, 0
0, 1
0, 0
1, 1
0, 0
0, 0
0, 0
0, 1
0, 1
0, 0
0, 1
0, 0
1, 0
0, 0
2, 0
0, 0
0, 1
1, 0
1, 0
1, 0
0, 0
0, 0
2, 0
0, 0
0, 0
0, 0
0, 0
0, 0
0, 0
0, 0
0, 0
2, 0
0, 0
1, 0
0, 0
1, 0
0, 0
1, 0
0, 1
0, 0
0, 0
0, 0
1, 0
0, 0
0, 0
0, 0
0, 0
0, 0
1, 1
1, 0
0, 0
0, 0
0, 0
1, 2
0, 0
0, 0
0, 0
0, 0
1, 0
0, 0
0, 0
0, 0
1, 1
0, 0
0, 1
0, 0
2, 0
0, 1
0, 1
0, 0
0, 0
0, 0
0, 1
0, 0
1, 0
0, 1
0, 1
0, 0
1, 0
0, 0
0, 0
0, 0
1, 1
0, 1
0, 0
0, 0
0, 0
0, 1
0, 0
0, 0
0, 0
0, 1
0, 0
0, 0
0, 0
0, 0
0, 0
0, 0
0, 0
0, 0
2, 1
0, 0
0, 0
0, 0
0, 1
0, 0
1, 0
0, 0
0, 0
0, 0
1, 1
0, 0
0, 0
0, 0
0, 0
0, 0
0, 0
1, 1
0, 0
0, 1
0, 0
1, 0
0, 0
0, 0
0, 0
1, 0
0, 0
0, 0
0, 0
0, 0
0, 0
0, 0
0, 0
0, 0
0, 0
0, 0
1, 0
0, 0
0, 0
0, 0
0, 0
0, 0
0, 0
0, 0
0, 0
0, 0
0, 0
0, 0
0, 0
0, 0
0, 0
0, 1
0, 0
0, 0
0, 0
0, 0
0, 0
0, 0
0, 0
0, 0
0, 0
1, 0
0, 0
1, 0
0, 0
0, 0
1, 0
0, 0
0, 0
1, 0
0, 0
0, 0
0, 0
0, 0
0, 0
0, 0
0, 0
0, 0
0, 0
0, 0
0, 0
1, 0
0, 0
0, 0
0, 0
0, 0
0, 0
0, 0
0, 0
0, 0
0, 0
0, 0
0, 0
0, 0
0, 0
0, 0
0, 0
0, 0
0, 0
0, 0
0, 0
0, 0
0, 0
0, 0
0, 0
0, 0
0, 0
0, 0
0, 0
0, 0
0, 0
0, 0
0, 0
0, 0
1, 0
0, 1
0, 0
0, 0
0, 0
0, 0
0, 0
0, 0
0, 0
1, 0
0, 0
0, 0
0, 0
0, 0
0, 0
0, 0
0, 0
0, 0
0, 0
0, 0
0, 0
0, 0
0, 0
0, 0
0, 0
0, 0
0, 0
0, 0
0, 0
0, 0
0, 0
0, 0
0, 0
0, 0
0, 0
0, 0
0, 0
0, 0
0, 0
0, 0
0, 0
0, 0
0, 0
0, 0
0, 1
0, 0
0, 0
0, 0
0, 0
0, 0
0, 0
0, 0
0, 0
0, 0
0, 0
0, 0
0, 0
1, 0
0, 1
0, 0
0, 0
0, 0
0, 0
0, 0
0, 0
0, 0
0, 0
0, 0
0, 0
0, 0
0, 0
0, 0
0, 0
0, 0
0, 0
0, 0
0, 0
0, 0
0, 0
0, 0
0, 0
0, 0
1, 0
0, 0
0, 0
0, 0
0, 0
0, 0
0, 0
0, 0
0, 0
0, 0
0, 0
0, 0
0, 0
0, 0
0, 0
0, 0
0, 0
0, 0
0, 0
0, 0
0, 0
0, 0
0, 0
0, 0
0, 0
0, 0
0, 0
0, 0
0, 0
0, 0
0, 0
0, 0
0, 0
0, 0
0, 0
0, 0
0, 0
0, 0
0, 0
0, 0
0, 0
0, 0
0, 0
0, 0
0, 0
0, 0
0, 0
0, 0
0, 0
0, 0
0, 0
0, 0
0, 0
0, 0
0, 0
0, 0
0, 0
0, 0
0, 0
0, 0
0, 0
0, 0
0, 0
0, 0
0, 0
0, 0
0, 0
0, 0
0, 0
0, 0
0, 0
0, 0
0, 0
0, 0
0, 0
0, 0
0, 0
0, 0
0, 0
0, 0
0, 0
0, 0
0, 0
0, 0
0, 0
0, 0
0, 0
0, 0
0, 0
0, 0
0, 0
0, 0
0, 0
0, 0
0, 0
0, 0
0, 0
0, 0
0, 0
0, 0
0, 0
0, 0
0, 0
0, 0
0, 0
0, 0
0, 0
0, 0
0, 0
0, 0
0, 0
0, 0
0, 0
0, 0
0, 0
0, 0
0, 0
0, 0
0, 0
0, 0
0, 0
0, 0
0, 0
0, 0
0, 0
0, 0
0, 0
0, 0
0, 0
0, 0
0, 0
0, 0
0, 0
0, 0
0, 0
0, 0
0, 0
0, 0
0, 0
0, 0
0, 0
0, 0
0, 0
0, 0
0, 0
0, 0
0, 0
0, 0
0, 0
0, 0
0, 0
0, 0
0, 0
0, 0
0, 0
0, 0
0, 0
0, 0
0, 0
0, 0
0, 0
0, 0
0, 0
0, 0
0, 0
0, 0
0, 0
0, 0
0, 0
0, 0
0, 0
0, 0
0, 0
0, 0
0, 0
0, 0
0, 0
0, 0
0, 0
0, 0
0, 0
0, 0
0, 0
0, 0
0, 0
0, 0
0, 0
0, 0
0, 0
0, 0
0, 0
0, 0
0, 0
0, 0
0, 0
0, 0
0, 0
0, 0
0, 0
0, 0
0, 0
0, 0
0, 0
0, 0
0, 0
0, 0
0, 0
0, 0
0, 0
0, 0
0, 0
0, 0
0, 0
0, 0
0, 0
0, 0
0, 0
0, 0
0, 0
0, 0
0, 0
0, 0
0, 0
0, 0
0, 0
0, 0
0, 0
0, 0
0, 0
0, 0
0, 0
0, 0
0, 0
0, 0
0, 0
0, 0
0, 0
0, 0
0, 0
0, 0
0, 0
0, 0
0, 0
0, 0
0, 0
0, 0
0, 0
0, 0
0, 0
0, 0
0, 0
0, 0
0, 0
0, 0
0, 0
0, 0
0, 0
0, 0
0, 0
0, 0
0, 0
0, 0
0, 0
0, 0
0, 0
0, 0
0, 0
0, 0
0, 0
0, 0
0, 0
0, 0
0, 0
0, 0
0, 0
0, 0
0, 0
0, 0
0, 0
0, 0
0, 0
0, 0
0, 0
0, 0
0, 0
0, 0
0, 0
0, 0
0, 0
0, 0
0, 0
0, 0
0, 0
0, 0
0, 0
0, 0
0, 0
0, 0
0, 0
0, 0
0, 0
0, 0
0, 0
0, 0
0, 0
0, 0
0, 0
0, 0
0, 0
0, 0
0, 0
0, 0
0, 0
0, 0
0, 0
0, 0
0, 0
0, 0
0, 0
0, 0
0, 0
0, 0
0, 0
0, 0
0, 0
0, 0
0, 0
0, 0
0, 0
0, 0
0, 0
0, 0
0, 0
0, 0
0, 0
0, 0
0, 0
#ENDOFDATA     end of spectrum data