File: host_upload/12-01-2023/Dourbes (shot-by-shot)/upload_4/ps__0257_0689790785_000rfs_shot_3244.msa
#FORMAT      : EMSA/MAS spectral data file
#VERSION     : TC202v2.0 PIXL
#TITLE       : N/A
#DATE        :       Date in the format DD-MMM-YYYY, for example 07-JUL-2010
#TIME        :             The time of day at which the spectrum was recorded, in 24-hour format
#OWNER       : PIXL Flight Model       (PIXL will use this to indicate which instrument took the data.)
#NPOINTS     : 4096     Number of data points in the spectrum (This can be zero for configuration only files)
#NCOLUMNS    : 2     Number of data columns in the spectrum (This can be zero for configuration only files)
#XUNITS      : eV
#YUNITS      : COUNTS
#DATATYPE    : YY
#XPERCHAN    : 7.862, 7.881   eV per channel (separate by commas if more than one detector)
#OFFSET      : 18.5, -22.4         eV of first channel  (separate by commas if more than one detector
#SIGNALTYPE  : XRF
#YP_TEMP     : 3.133
#LIVETIME    : 9.06082, 9.07556   seconds (separate by commas if more than one detector)
#REALTIME    : 10, 10.0   seconds (separate by commas if more than one detector)
#SPECTRUM    : start of spectrum data
0, 0
0, 0
0, 0
0, 0
0, 0
0, 0
0, 0
0, 0
0, 0
0, 0
0, 0
0, 0
0, 0
0, 0
0, 0
0, 0
0, 0
0, 0
0, 0
0, 0
0, 0
0, 0
0, 0
0, 0
0, 0
0, 0
0, 0
0, 0
0, 0
0, 0
0, 0
0, 0
0, 0
2, 1
0, 1
2, 1
0, 1
2, 2
3, 1
1, 6
4, 1
2, 2
1, 1
2, 2
0, 1
3, 1
4, 1
3, 1
4, 4
7, 3
16, 11
23, 22
39, 21
51, 36
36, 36
32, 35
27, 24
14, 15
15, 7
5, 0
6, 8
1, 3
5, 1
1, 4
1, 7
9, 3
8, 3
11, 9
24, 14
49, 50
104, 91
236, 198
391, 351
587, 532
732, 562
687, 583
630, 495
412, 383
282, 243
156, 119
69, 57
37, 31
16, 20
8, 10
3, 9
5, 3
5, 2
3, 2
4, 3
0, 3
8, 4
1, 4
10, 2
16, 11
33, 35
72, 49
111, 78
153, 111
166, 135
153, 113
157, 104
127, 69
81, 50
45, 24
22, 15
22, 25
18, 12
33, 28
44, 41
64, 66
94, 65
107, 98
127, 128
168, 161
168, 161
161, 125
137, 124
106, 98
88, 77
77, 60
61, 42
63, 39
54, 31
36, 29
29, 21
29, 31
19, 20
33, 14
16, 17
8, 14
9, 5
8, 7
6, 6
4, 3
6, 5
5, 3
7, 9
8, 1
7, 6
2, 8
9, 7
12, 9
8, 8
11, 9
7, 3
8, 2
4, 1
7, 5
5, 2
6, 5
7, 6
9, 9
12, 20
36, 36
52, 47
60, 51
68, 69
81, 74
76, 79
63, 57
47, 63
30, 37
23, 18
15, 10
9, 10
10, 6
10, 10
9, 12
7, 11
15, 10
22, 14
14, 16
18, 9
15, 11
9, 10
19, 10
8, 7
10, 13
7, 5
6, 7
8, 7
12, 7
8, 13
5, 5
9, 9
5, 10
13, 4
7, 11
11, 10
15, 13
10, 10
14, 10
21, 18
16, 19
19, 19
13, 14
20, 26
27, 21
25, 21
18, 17
20, 24
11, 18
16, 10
12, 12
8, 12
15, 8
20, 14
9, 13
16, 17
8, 10
10, 11
18, 10
12, 14
9, 10
17, 9
14, 2
8, 8
7, 10
13, 13
9, 13
16, 10
10, 12
18, 13
15, 12
23, 13
16, 12
20, 15
14, 16
16, 19
16, 29
13, 29
20, 19
15, 30
9, 30
16, 27
11, 21
14, 16
21, 18
9, 15
17, 11
18, 9
15, 17
14, 13
19, 19
21, 16
24, 23
39, 26
58, 51
63, 63
78, 75
101, 76
97, 88
73, 78
73, 65
80, 32
49, 35
40, 29
22, 17
20, 15
19, 21
26, 15
26, 30
51, 46
72, 71
153, 137
281, 277
472, 576
794, 901
1264, 1375
1814, 1877
2370, 2320
2711, 2515
2919, 2609
2803, 2292
2315, 1910
1781, 1362
1300, 952
834, 556
493, 299
291, 195
127, 71
68, 42
36, 22
20, 20
23, 14
25, 20
31, 22
26, 17
31, 22
18, 31
35, 31
42, 39
66, 73
71, 67
121, 130
172, 154
250, 269
330, 310
403, 364
420, 419
455, 387
375, 321
376, 279
241, 215
196, 121
130, 77
67, 48
44, 24
17, 18
9, 10
4, 10
8, 8
10, 9
8, 4
6, 7
5, 9
6, 7
7, 7
9, 8
9, 13
8, 9
9, 6
4, 5
7, 6
8, 9
3, 12
10, 7
3, 2
7, 6
7, 6
4, 6
11, 5
7, 6
6, 3
13, 5
8, 8
8, 5
5, 8
8, 8
5, 6
6, 9
10, 6
5, 2
5, 10
7, 2
7, 5
15, 5
5, 2
8, 7
6, 9
5, 4
7, 5
7, 5
7, 4
8, 10
7, 9
2, 7
7, 8
4, 3
7, 9
7, 5
8, 6
10, 7
6, 10
11, 6
9, 8
7, 8
5, 5
12, 6
7, 7
9, 7
7, 7
15, 4
6, 4
8, 6
5, 8
8, 11
3, 4
6, 6
2, 4
6, 6
10, 8
4, 5
3, 3
5, 8
8, 6
8, 7
3, 7
9, 6
5, 5
4, 5
4, 3
6, 3
8, 6
6, 4
13, 5
2, 4
5, 9
3, 5
8, 6
9, 0
5, 3
5, 6
5, 8
8, 8
3, 7
7, 5
6, 6
6, 3
8, 6
8, 4
8, 5
6, 1
6, 4
10, 5
1, 6
1, 4
4, 4
3, 7
5, 2
5, 4
1, 4
1, 2
4, 2
6, 1
6, 3
4, 3
9, 2
4, 6
9, 3
1, 1
5, 4
6, 2
3, 6
2, 6
3, 2
4, 6
7, 4
4, 1
6, 2
3, 6
4, 2
2, 2
3, 4
2, 4
7, 3
1, 3
0, 8
2, 7
5, 1
3, 3
6, 6
1, 2
4, 5
5, 5
3, 6
9, 6
3, 4
7, 3
3, 4
1, 2
1, 7
2, 2
2, 3
4, 3
2, 3
4, 6
7, 4
6, 1
1, 9
5, 2
3, 3
4, 3
2, 0
1, 0
2, 3
3, 3
2, 2
2, 1
4, 4
6, 4
3, 2
2, 3
6, 2
3, 6
1, 1
2, 2
2, 3
4, 1
5, 2
2, 4
2, 5
2, 4
2, 3
3, 5
2, 0
0, 2
2, 7
2, 3
1, 4
2, 5
3, 1
3, 3
3, 2
2, 5
3, 6
2, 4
7, 3
2, 1
3, 1
2, 2
3, 2
3, 1
2, 3
1, 3
3, 2
3, 3
2, 6
5, 2
4, 4
1, 1
1, 2
3, 2
1, 3
3, 3
3, 3
2, 1
0, 2
3, 0
3, 3
2, 2
3, 2
3, 3
2, 1
2, 5
6, 3
3, 3
4, 1
1, 3
8, 7
2, 5
6, 6
5, 1
5, 1
3, 5
2, 5
3, 2
2, 2
3, 0
0, 0
4, 1
2, 0
2, 0
0, 0
4, 1
1, 1
3, 0
2, 1
3, 0
0, 3
1, 2
1, 0
4, 0
3, 2
3, 1
4, 0
3, 3
6, 0
2, 3
3, 2
4, 3
4, 4
3, 0
1, 2
1, 0
3, 3
2, 1
4, 1
1, 1
3, 3
2, 2
4, 0
1, 2
2, 0
0, 2
1, 0
0, 2
0, 0
0, 0
1, 0
2, 0
0, 1
1, 0
0, 2
2, 2
1, 0
0, 0
1, 0
0, 2
3, 1
1, 0
2, 1
0, 1
1, 1
1, 0
1, 1
0, 2
1, 0
1, 1
1, 2
2, 1
0, 1
2, 1
2, 0
0, 0
1, 2
0, 0
1, 1
2, 0
0, 0
0, 0
0, 0
1, 0
0, 1
0, 2
1, 1
0, 2
2, 1
0, 1
0, 0
0, 0
0, 0
2, 2
0, 0
1, 2
0, 2
0, 0
1, 1
0, 2
2, 1
2, 1
0, 2
2, 1
1, 0
1, 1
1, 1
0, 1
1, 0
1, 0
2, 1
0, 2
0, 0
0, 0
2, 1
0, 1
1, 0
0, 0
0, 0
0, 0
1, 0
1, 0
2, 3
0, 0
0, 2
0, 1
1, 0
0, 2
0, 0
0, 1
0, 0
1, 0
0, 0
0, 1
0, 0
0, 1
1, 1
0, 0
0, 2
1, 0
1, 0
1, 0
1, 0
0, 0
0, 0
0, 0
1, 0
0, 2
0, 0
3, 0
1, 1
0, 0
0, 1
1, 0
2, 0
1, 0
0, 0
0, 1
1, 0
0, 1
1, 0
1, 2
0, 1
0, 0
2, 0
0, 2
1, 1
1, 1
0, 0
1, 0
0, 0
1, 1
0, 0
1, 0
0, 0
1, 0
0, 0
1, 2
0, 0
0, 0
1, 0
0, 0
0, 1
1, 1
0, 0
2, 0
0, 0
0, 1
1, 0
2, 1
0, 0
0, 0
0, 0
0, 1
1, 0
0, 0
0, 0
1, 0
0, 0
2, 2
0, 0
1, 0
1, 0
0, 0
0, 0
0, 0
1, 0
0, 0
0, 0
1, 1
0, 0
0, 0
0, 0
0, 0
0, 0
0, 0
1, 1
1, 0
0, 0
0, 0
0, 0
0, 1
0, 0
0, 1
1, 0
1, 0
0, 0
0, 0
1, 0
0, 0
1, 0
0, 1
0, 0
0, 0
1, 0
0, 1
0, 0
1, 1
0, 0
1, 1
2, 0
0, 0
0, 0
1, 0
1, 0
1, 0
1, 1
1, 0
0, 1
0, 1
0, 0
0, 1
0, 0
0, 0
0, 1
0, 0
2, 0
0, 0
0, 0
0, 0
1, 0
1, 0
0, 1
0, 0
0, 0
1, 0
0, 0
0, 0
1, 0
1, 0
0, 1
0, 0
0, 0
1, 0
0, 0
0, 0
0, 0
0, 0
0, 0
1, 1
1, 0
0, 2
1, 0
0, 0
0, 0
0, 0
1, 0
0, 0
0, 0
1, 0
0, 0
0, 0
0, 0
0, 0
1, 1
1, 0
0, 0
0, 0
0, 1
0, 0
1, 1
0, 0
0, 0
0, 0
0, 0
1, 0
0, 0
1, 0
0, 0
1, 0
0, 0
0, 0
0, 0
0, 1
0, 0
0, 0
0, 0
0, 0
0, 0
0, 0
0, 0
0, 0
0, 1
0, 0
1, 0
0, 0
0, 0
0, 0
0, 1
0, 0
0, 0
0, 0
0, 0
0, 0
0, 0
0, 0
0, 0
0, 0
0, 0
0, 0
0, 0
0, 0
0, 0
0, 0
0, 0
0, 0
0, 0
0, 1
0, 0
0, 0
0, 0
0, 0
0, 0
0, 0
0, 0
0, 0
0, 0
0, 0
0, 0
0, 0
1, 0
0, 0
0, 0
0, 0
0, 0
0, 0
0, 0
0, 0
0, 0
0, 0
0, 0
0, 0
0, 0
0, 0
0, 0
0, 0
0, 0
0, 0
0, 0
0, 0
0, 0
0, 1
0, 0
0, 0
0, 0
0, 0
0, 0
0, 0
0, 0
0, 0
0, 0
0, 0
0, 0
0, 0
0, 0
0, 0
0, 0
0, 0
0, 0
0, 0
0, 0
0, 0
0, 0
0, 0
0, 0
0, 0
0, 0
0, 0
0, 0
0, 0
0, 0
0, 0
0, 0
0, 0
0, 0
0, 0
0, 0
0, 0
0, 0
0, 0
0, 0
0, 0
0, 0
0, 0
0, 0
0, 0
0, 0
0, 0
0, 0
0, 0
0, 0
0, 0
0, 0
0, 0
0, 0
0, 0
0, 0
0, 0
0, 0
0, 0
0, 0
0, 0
0, 0
0, 0
0, 0
0, 0
0, 0
0, 0
0, 0
0, 0
0, 0
0, 0
0, 0
0, 0
1, 0
0, 0
0, 0
0, 0
0, 0
0, 1
0, 0
0, 0
0, 1
0, 0
0, 0
0, 0
0, 0
0, 0
0, 0
0, 0
0, 0
0, 0
0, 0
0, 0
0, 0
0, 0
0, 0
0, 0
0, 0
0, 0
0, 0
0, 0
0, 0
0, 0
0, 0
0, 0
0, 0
0, 0
0, 0
0, 0
0, 0
0, 0
0, 0
0, 0
0, 0
0, 0
0, 0
0, 0
0, 0
0, 0
0, 0
0, 0
0, 0
0, 0
0, 0
0, 0
0, 0
0, 0
0, 0
0, 0
0, 0
0, 0
0, 0
0, 0
0, 0
0, 0
0, 0
0, 0
0, 0
0, 0
0, 0
0, 0
0, 0
0, 0
0, 0
0, 0
0, 0
0, 0
0, 0
0, 0
0, 0
0, 0
0, 0
0, 0
0, 0
0, 0
0, 0
0, 0
0, 0
0, 0
0, 0
0, 0
0, 0
0, 0
0, 0
0, 0
0, 0
0, 0
0, 0
0, 0
0, 0
0, 0
0, 0
0, 0
0, 0
0, 0
0, 0
0, 0
0, 0
0, 0
0, 0
0, 0
0, 0
0, 0
0, 0
0, 0
0, 0
0, 0
0, 0
0, 0
0, 0
0, 0
0, 0
0, 0
0, 0
0, 0
0, 0
0, 0
0, 0
0, 0
0, 0
0, 0
0, 0
0, 0
0, 0
0, 0
0, 0
0, 0
0, 0
0, 0
0, 0
0, 0
0, 0
0, 0
0, 0
0, 0
0, 0
0, 0
0, 0
0, 0
0, 0
0, 0
0, 0
0, 0
0, 0
0, 0
0, 0
0, 0
0, 0
0, 0
0, 0
0, 0
0, 0
0, 0
0, 0
0, 0
0, 0
0, 0
0, 0
0, 0
0, 0
0, 0
0, 0
0, 0
0, 0
0, 0
0, 0
0, 0
0, 0
0, 0
0, 0
0, 0
0, 0
0, 0
0, 0
0, 0
0, 0
0, 0
0, 0
0, 0
0, 0
0, 0
0, 0
0, 0
0, 0
0, 0
0, 0
0, 0
0, 0
0, 0
0, 0
0, 0
0, 0
0, 0
0, 0
0, 0
0, 0
0, 0
0, 0
0, 0
0, 0
0, 0
0, 0
0, 0
0, 0
0, 0
0, 0
0, 0
0, 0
0, 0
0, 0
0, 0
0, 0
0, 0
0, 0
0, 0
0, 0
0, 0
0, 0
0, 0
0, 0
0, 0
0, 0
0, 0
0, 0
0, 0
0, 0
0, 0
0, 0
0, 0
0, 0
0, 0
0, 0
0, 0
0, 0
0, 0
0, 0
0, 0
0, 0
0, 0
0, 0
0, 0
0, 0
0, 0
0, 0
0, 0
0, 0
0, 0
0, 0
0, 0
0, 0
0, 0
0, 0
0, 0
0, 0
0, 0
0, 0
0, 0
0, 0
0, 0
0, 0
0, 0
0, 0
0, 0
0, 0
0, 0
0, 0
0, 0
0, 0
0, 0
0, 0
0, 0
0, 0
0, 0
0, 0
0, 0
0, 0
0, 0
0, 0
0, 0
0, 0
0, 0
0, 0
0, 0
0, 0
0, 0
0, 0
0, 0
0, 0
0, 0
0, 0
0, 0
0, 0
0, 0
0, 0
0, 0
0, 0
0, 0
0, 0
0, 0
0, 0
0, 0
0, 0
0, 0
0, 0
0, 0
0, 0
0, 0
0, 0
0, 0
0, 0
0, 0
0, 0
0, 0
0, 0
0, 0
0, 0
0, 0
0, 0
0, 0
0, 0
0, 0
0, 0
0, 0
0, 0
0, 0
0, 0
0, 0
0, 0
0, 0
0, 0
0, 0
0, 0
0, 0
0, 0
0, 0
0, 0
0, 0
0, 0
0, 0
0, 0
0, 0
0, 0
0, 0
0, 0
0, 0
0, 0
0, 0
0, 0
0, 0
0, 0
0, 0
0, 0
0, 0
0, 0
0, 0
0, 0
0, 0
0, 0
0, 0
0, 0
0, 0
0, 0
0, 0
0, 0
0, 0
0, 0
#ENDOFDATA     end of spectrum data