File: host_upload/12-01-2023/Dourbes (shot-by-shot)/upload_4/ps__0257_0689790785_000rfs_shot_3243.msa
#FORMAT      : EMSA/MAS spectral data file
#VERSION     : TC202v2.0 PIXL
#TITLE       : N/A
#DATE        :       Date in the format DD-MMM-YYYY, for example 07-JUL-2010
#TIME        :             The time of day at which the spectrum was recorded, in 24-hour format
#OWNER       : PIXL Flight Model       (PIXL will use this to indicate which instrument took the data.)
#NPOINTS     : 4096     Number of data points in the spectrum (This can be zero for configuration only files)
#NCOLUMNS    : 2     Number of data columns in the spectrum (This can be zero for configuration only files)
#XUNITS      : eV
#YUNITS      : COUNTS
#DATATYPE    : YY
#XPERCHAN    : 7.862, 7.881   eV per channel (separate by commas if more than one detector)
#OFFSET      : 18.5, -22.4         eV of first channel  (separate by commas if more than one detector
#SIGNALTYPE  : XRF
#YP_TEMP     : 2.781
#LIVETIME    : 9.05926, 9.07451   seconds (separate by commas if more than one detector)
#REALTIME    : 10, 10.0   seconds (separate by commas if more than one detector)
#SPECTRUM    : start of spectrum data
0, 0
0, 0
0, 0
0, 0
0, 0
0, 0
0, 0
0, 0
0, 0
0, 0
0, 0
0, 0
0, 0
0, 0
0, 0
0, 0
0, 0
0, 0
0, 0
0, 0
0, 0
0, 0
0, 0
0, 0
0, 0
0, 0
0, 0
0, 0
0, 0
0, 0
0, 0
0, 0
0, 0
0, 0
0, 1
0, 0
0, 1
1, 4
1, 3
2, 0
1, 4
3, 5
2, 2
4, 3
3, 1
7, 1
1, 4
3, 0
2, 1
7, 1
8, 9
29, 14
43, 35
44, 34
45, 29
44, 27
34, 27
17, 8
7, 12
7, 4
6, 2
0, 4
2, 2
5, 6
5, 3
7, 8
9, 4
17, 12
20, 24
63, 57
158, 144
328, 268
549, 480
898, 712
996, 848
1015, 860
839, 714
624, 484
381, 301
207, 183
90, 64
49, 37
20, 16
16, 9
5, 5
3, 2
3, 4
2, 2
4, 2
1, 3
4, 2
5, 0
5, 4
14, 5
12, 11
47, 19
52, 39
71, 53
76, 49
59, 51
58, 53
45, 31
31, 21
23, 20
16, 10
14, 8
16, 8
22, 23
29, 41
51, 56
98, 81
109, 118
123, 129
144, 153
155, 143
153, 125
126, 114
111, 112
81, 75
60, 51
84, 47
51, 44
44, 32
33, 39
32, 22
30, 23
25, 22
21, 20
21, 16
13, 11
11, 10
5, 8
9, 6
6, 1
2, 1
2, 3
6, 6
4, 9
10, 8
8, 3
9, 8
14, 6
7, 6
10, 7
7, 1
5, 3
3, 3
4, 9
4, 2
6, 5
4, 5
13, 8
17, 13
14, 19
26, 23
48, 39
53, 44
68, 46
69, 40
48, 29
41, 25
25, 23
18, 16
14, 11
7, 8
9, 6
9, 4
12, 6
4, 14
6, 4
10, 10
18, 12
10, 10
21, 10
9, 11
13, 12
11, 6
9, 9
7, 8
6, 15
9, 4
4, 13
6, 4
7, 3
9, 6
8, 3
11, 6
9, 14
11, 7
12, 14
11, 12
16, 14
19, 10
17, 17
14, 18
18, 14
19, 22
25, 19
19, 23
18, 18
19, 14
19, 9
16, 13
15, 19
15, 7
17, 12
12, 13
11, 8
11, 11
11, 11
11, 8
19, 9
11, 9
17, 10
15, 14
12, 15
15, 9
12, 5
14, 13
10, 6
16, 11
20, 17
9, 19
10, 11
10, 14
13, 17
23, 23
13, 14
14, 13
12, 27
15, 20
19, 28
13, 41
20, 28
16, 26
13, 24
12, 18
21, 20
11, 12
9, 12
9, 9
16, 12
13, 15
11, 10
17, 16
33, 20
44, 40
56, 44
57, 63
74, 68
69, 69
90, 65
85, 44
61, 60
50, 34
43, 38
41, 30
26, 21
25, 21
25, 14
23, 25
31, 18
38, 40
81, 74
132, 139
247, 260
515, 498
853, 810
1405, 1350
1845, 1772
2399, 2184
2715, 2503
2964, 2533
2758, 2330
2331, 1858
1916, 1316
1300, 920
815, 555
521, 292
273, 152
125, 107
58, 46
55, 27
25, 29
25, 22
22, 19
25, 12
28, 17
33, 20
29, 32
29, 33
42, 47
42, 51
50, 80
135, 130
162, 170
263, 228
317, 316
364, 375
435, 399
427, 387
394, 329
337, 278
277, 202
190, 123
124, 73
74, 49
54, 34
18, 21
12, 10
9, 12
7, 6
6, 4
10, 4
9, 8
6, 6
7, 12
10, 13
12, 7
17, 16
6, 9
10, 6
7, 3
9, 6
3, 10
5, 7
11, 2
6, 6
4, 6
7, 7
7, 3
4, 2
5, 7
5, 4
4, 4
9, 8
9, 5
7, 4
5, 2
5, 9
6, 7
8, 11
9, 10
8, 10
11, 11
11, 10
7, 7
8, 4
6, 6
7, 9
5, 7
2, 5
4, 9
3, 3
16, 3
8, 4
7, 3
2, 5
8, 6
7, 7
5, 6
8, 4
8, 9
5, 8
9, 9
8, 10
14, 6
15, 2
10, 8
11, 7
10, 5
11, 5
6, 8
11, 7
8, 5
10, 6
9, 6
7, 9
0, 4
3, 7
3, 10
5, 5
4, 8
4, 3
8, 7
7, 3
12, 4
5, 4
5, 8
3, 6
5, 4
8, 4
8, 8
7, 4
5, 4
6, 2
5, 3
4, 3
1, 4
4, 7
11, 3
3, 1
10, 7
5, 7
5, 5
7, 3
6, 4
4, 7
6, 6
5, 7
5, 4
5, 5
7, 2
8, 2
9, 1
3, 4
5, 5
10, 5
1, 8
4, 7
3, 2
5, 5
5, 6
3, 5
4, 5
1, 1
4, 6
5, 6
8, 5
2, 9
9, 3
5, 5
8, 2
4, 8
4, 4
3, 6
3, 2
9, 1
4, 2
6, 4
3, 1
4, 5
7, 5
2, 1
4, 5
2, 3
6, 5
5, 1
5, 6
7, 1
2, 2
3, 2
5, 4
3, 2
3, 3
3, 1
5, 2
2, 3
4, 3
4, 1
4, 2
7, 2
3, 4
2, 4
1, 3
2, 5
2, 5
4, 7
5, 2
3, 4
1, 0
3, 3
3, 3
7, 3
5, 5
0, 4
1, 2
5, 4
1, 3
2, 2
2, 2
5, 2
3, 1
1, 3
2, 1
2, 1
5, 3
0, 5
1, 0
3, 2
5, 3
1, 2
5, 2
5, 0
3, 8
5, 1
2, 3
3, 2
1, 1
5, 2
6, 1
4, 1
3, 6
2, 1
4, 1
3, 4
0, 2
2, 4
2, 4
4, 1
3, 0
2, 4
2, 3
4, 0
2, 0
6, 3
0, 4
1, 1
2, 3
2, 5
4, 3
2, 3
0, 6
2, 1
1, 1
6, 0
1, 4
3, 2
4, 4
1, 0
2, 1
1, 1
3, 5
1, 1
1, 2
5, 3
0, 4
6, 5
4, 5
5, 2
9, 1
3, 4
4, 5
5, 4
7, 4
7, 5
4, 2
2, 3
3, 2
5, 1
2, 5
0, 0
2, 3
4, 1
2, 2
1, 0
0, 1
4, 3
0, 1
2, 1
2, 3
2, 3
1, 1
2, 1
0, 1
1, 6
1, 1
1, 0
2, 3
4, 1
1, 1
4, 1
6, 2
2, 1
2, 2
2, 3
2, 1
0, 1
0, 2
2, 1
4, 2
0, 2
2, 1
0, 4
4, 0
1, 0
0, 1
5, 3
3, 0
1, 1
3, 0
1, 0
1, 2
2, 0
0, 0
1, 2
0, 1
2, 1
0, 0
1, 0
2, 1
1, 1
1, 1
0, 1
1, 1
1, 3
2, 0
1, 1
3, 0
1, 0
3, 1
2, 1
1, 0
2, 1
2, 1
1, 1
0, 2
0, 1
1, 0
0, 0
0, 0
1, 0
1, 0
2, 1
0, 1
3, 2
0, 0
0, 1
0, 0
0, 0
0, 1
1, 0
1, 0
1, 1
1, 1
1, 1
1, 0
1, 1
2, 0
1, 0
0, 2
1, 0
0, 1
0, 0
0, 0
0, 0
2, 1
3, 1
2, 2
0, 1
0, 0
0, 0
0, 3
1, 1
2, 2
2, 0
2, 0
0, 1
0, 1
0, 0
0, 1
1, 2
0, 0
0, 0
3, 1
1, 1
0, 0
1, 1
1, 0
0, 0
0, 1
2, 1
0, 1
0, 2
2, 0
0, 0
0, 0
0, 2
3, 0
0, 1
0, 1
0, 1
0, 0
0, 0
0, 0
2, 0
2, 0
0, 1
1, 1
0, 0
1, 0
0, 0
0, 1
0, 0
1, 1
0, 1
0, 0
0, 0
0, 0
0, 0
0, 0
0, 0
1, 0
1, 1
0, 1
0, 1
0, 0
0, 0
0, 0
0, 1
0, 0
0, 0
0, 1
0, 1
0, 0
0, 0
0, 0
0, 1
0, 0
0, 0
0, 1
0, 1
0, 0
0, 0
0, 0
0, 0
0, 0
0, 0
0, 0
1, 0
0, 0
0, 0
0, 0
0, 0
0, 0
0, 0
0, 1
1, 0
0, 0
1, 1
0, 0
0, 0
0, 1
0, 0
1, 0
1, 1
1, 0
1, 0
0, 1
0, 0
0, 0
0, 1
0, 2
0, 0
0, 1
0, 1
0, 0
1, 0
1, 0
0, 0
1, 0
1, 0
0, 0
0, 0
0, 0
2, 0
0, 0
0, 0
0, 0
0, 0
0, 0
1, 1
0, 0
0, 0
0, 0
0, 0
0, 0
0, 0
0, 0
0, 0
2, 0
0, 0
0, 0
1, 0
0, 1
0, 1
0, 0
0, 0
0, 3
0, 0
1, 0
0, 0
0, 0
0, 0
1, 0
0, 0
0, 0
1, 0
0, 0
0, 0
0, 0
0, 0
1, 0
0, 1
0, 0
0, 0
0, 0
0, 0
0, 1
0, 0
0, 1
1, 0
0, 1
0, 0
0, 0
0, 1
1, 0
1, 1
0, 0
2, 1
0, 0
0, 0
0, 0
0, 0
0, 0
0, 0
0, 0
0, 1
0, 0
0, 0
0, 0
1, 0
0, 0
0, 0
0, 0
0, 1
0, 0
0, 0
0, 0
0, 0
0, 0
0, 0
0, 0
1, 0
0, 0
0, 0
1, 0
0, 0
0, 1
0, 1
1, 0
0, 1
0, 0
0, 0
0, 1
0, 1
1, 0
0, 1
1, 0
1, 0
1, 0
0, 0
0, 0
0, 0
0, 0
0, 0
0, 0
0, 0
0, 0
0, 0
0, 0
0, 0
0, 0
0, 0
1, 1
0, 0
0, 0
0, 0
0, 0
0, 0
0, 1
0, 0
1, 0
0, 0
0, 0
1, 0
0, 0
0, 0
0, 0
0, 0
0, 0
0, 0
0, 0
0, 0
0, 0
0, 0
0, 1
0, 0
0, 0
1, 0
0, 0
0, 0
0, 0
0, 0
0, 0
1, 0
0, 0
0, 0
0, 0
0, 0
0, 0
1, 0
0, 0
0, 0
0, 0
0, 0
0, 0
0, 0
0, 0
0, 0
0, 0
0, 0
0, 0
0, 0
0, 0
0, 0
0, 0
0, 0
0, 0
0, 0
0, 0
0, 0
0, 0
0, 0
0, 0
0, 0
0, 0
0, 0
0, 0
0, 0
0, 0
0, 0
0, 0
0, 0
0, 0
0, 0
0, 1
0, 0
0, 0
0, 0
0, 0
0, 0
0, 0
0, 0
0, 1
0, 0
0, 0
0, 0
0, 0
0, 0
0, 0
0, 0
0, 0
0, 0
0, 0
0, 0
0, 0
0, 0
0, 0
0, 0
0, 0
0, 0
0, 0
0, 0
0, 0
0, 0
0, 0
0, 0
0, 1
0, 0
0, 0
0, 0
0, 0
0, 0
0, 0
0, 0
0, 0
0, 0
0, 0
0, 0
0, 0
0, 0
0, 0
0, 0
0, 0
0, 0
0, 0
0, 0
0, 0
0, 0
0, 0
0, 0
0, 0
1, 0
0, 0
0, 0
0, 0
0, 0
0, 0
0, 0
0, 0
0, 0
0, 0
0, 0
0, 0
0, 0
0, 0
0, 0
0, 0
0, 0
0, 0
0, 0
0, 0
0, 0
0, 0
0, 0
0, 0
0, 0
0, 0
0, 0
0, 0
0, 0
0, 0
0, 0
0, 0
0, 0
0, 0
0, 0
0, 1
0, 0
0, 0
0, 0
0, 0
0, 0
0, 0
0, 0
0, 0
1, 0
0, 0
0, 0
0, 0
0, 0
0, 0
0, 0
0, 0
0, 0
0, 0
0, 0
0, 0
0, 0
0, 0
0, 0
0, 0
0, 0
0, 0
0, 0
0, 0
0, 0
0, 0
0, 0
0, 0
0, 0
0, 0
0, 0
0, 0
0, 0
0, 0
0, 0
0, 0
0, 0
0, 0
0, 0
0, 0
0, 0
0, 0
0, 0
0, 0
0, 0
0, 0
0, 0
0, 0
0, 0
0, 0
0, 0
0, 0
0, 0
0, 0
0, 0
0, 0
0, 0
0, 0
0, 0
0, 0
0, 0
0, 0
0, 0
0, 0
0, 0
0, 0
0, 0
0, 0
0, 0
0, 0
0, 0
0, 0
0, 0
0, 0
0, 0
0, 0
0, 0
0, 0
0, 0
0, 0
0, 0
0, 0
0, 0
0, 0
0, 0
0, 0
0, 0
0, 0
0, 0
0, 0
0, 0
0, 0
0, 0
0, 0
0, 0
0, 0
0, 0
0, 0
0, 0
0, 0
0, 0
0, 0
0, 0
0, 0
0, 0
0, 0
0, 0
0, 0
0, 0
0, 0
0, 0
0, 0
0, 0
0, 0
0, 0
0, 0
0, 0
0, 0
0, 0
0, 0
0, 0
0, 0
0, 0
0, 0
0, 0
0, 0
0, 0
0, 0
0, 0
0, 0
0, 0
0, 0
0, 0
0, 0
0, 0
0, 0
0, 0
0, 0
0, 0
0, 0
0, 0
0, 0
0, 0
0, 0
0, 0
0, 0
0, 0
0, 0
0, 0
0, 0
0, 0
0, 0
0, 0
0, 0
0, 0
0, 0
0, 0
0, 0
0, 0
0, 0
0, 0
0, 0
0, 0
0, 0
0, 0
0, 0
0, 0
0, 0
0, 0
0, 0
0, 0
0, 0
0, 0
0, 0
0, 0
0, 0
0, 0
0, 0
0, 0
0, 0
0, 0
0, 0
0, 0
0, 0
0, 0
0, 0
0, 0
0, 0
0, 0
0, 0
0, 0
0, 0
0, 0
0, 0
0, 0
0, 0
0, 0
0, 0
0, 0
0, 0
0, 0
0, 0
0, 0
0, 0
0, 0
0, 0
0, 0
0, 0
0, 0
0, 0
0, 0
0, 0
0, 0
0, 0
0, 0
0, 0
0, 0
0, 0
0, 0
0, 0
0, 0
0, 0
0, 0
0, 0
0, 0
0, 0
0, 0
0, 0
0, 0
0, 0
0, 0
0, 0
0, 0
0, 0
0, 0
0, 0
0, 0
0, 0
0, 0
0, 0
0, 0
0, 0
0, 0
0, 0
0, 0
0, 0
0, 0
0, 0
0, 0
0, 0
0, 0
0, 0
0, 0
0, 0
0, 0
0, 0
0, 0
0, 0
0, 0
0, 0
0, 0
0, 0
0, 0
0, 0
0, 0
0, 0
0, 0
0, 0
0, 0
0, 0
0, 0
0, 0
0, 0
0, 0
0, 0
0, 0
0, 0
0, 0
0, 0
0, 0
0, 0
0, 0
0, 0
0, 0
0, 0
0, 0
0, 0
0, 0
0, 0
0, 0
0, 0
0, 0
0, 0
0, 0
0, 0
0, 0
0, 0
0, 0
0, 0
0, 0
0, 0
0, 0
0, 0
0, 0
0, 0
0, 0
0, 0
0, 0
0, 0
0, 0
0, 0
0, 0
0, 0
0, 0
0, 0
0, 0
0, 0
0, 0
0, 0
0, 0
0, 0
0, 0
0, 0
#ENDOFDATA     end of spectrum data