File: host_upload/12-01-2023/Dourbes (shot-by-shot)/upload_4/ps__0257_0689790785_000rfs_shot_3021.msa
#FORMAT      : EMSA/MAS spectral data file
#VERSION     : TC202v2.0 PIXL
#TITLE       : N/A
#DATE        :       Date in the format DD-MMM-YYYY, for example 07-JUL-2010
#TIME        :             The time of day at which the spectrum was recorded, in 24-hour format
#OWNER       : PIXL Flight Model       (PIXL will use this to indicate which instrument took the data.)
#NPOINTS     : 4096     Number of data points in the spectrum (This can be zero for configuration only files)
#NCOLUMNS    : 2     Number of data columns in the spectrum (This can be zero for configuration only files)
#XUNITS      : eV
#YUNITS      : COUNTS
#DATATYPE    : YY
#XPERCHAN    : 7.862, 7.881   eV per channel (separate by commas if more than one detector)
#OFFSET      : 18.5, -22.4         eV of first channel  (separate by commas if more than one detector
#SIGNALTYPE  : XRF
#YP_TEMP     : 3.198
#LIVETIME    : 9.05524, 9.0571   seconds (separate by commas if more than one detector)
#REALTIME    : 10, 10.0   seconds (separate by commas if more than one detector)
#SPECTRUM    : start of spectrum data
0, 0
0, 0
0, 0
0, 0
0, 0
0, 0
0, 0
0, 0
0, 0
0, 0
0, 0
0, 0
0, 0
0, 0
0, 0
0, 0
0, 0
0, 0
0, 0
0, 0
0, 0
0, 0
0, 0
0, 0
0, 0
0, 0
0, 0
0, 0
0, 0
0, 0
0, 0
0, 0
0, 0
1, 1
0, 1
2, 3
0, 0
2, 2
0, 2
0, 2
2, 0
3, 2
0, 2
1, 3
2, 4
2, 1
1, 2
0, 1
3, 0
4, 0
16, 10
25, 24
31, 26
44, 40
44, 40
37, 43
39, 24
27, 19
10, 5
10, 3
2, 4
4, 4
5, 4
3, 5
8, 6
4, 2
3, 4
11, 5
28, 18
40, 22
108, 66
183, 181
349, 269
492, 418
595, 537
589, 531
489, 394
360, 310
231, 192
132, 86
53, 49
29, 27
12, 12
7, 5
5, 2
4, 4
9, 2
1, 5
2, 1
6, 0
3, 1
3, 4
6, 1
2, 5
7, 10
17, 12
13, 20
31, 27
36, 37
39, 47
23, 20
19, 17
15, 12
8, 11
8, 9
5, 9
14, 13
19, 20
31, 32
49, 54
75, 91
116, 113
151, 136
156, 153
165, 168
145, 161
138, 149
112, 112
85, 92
64, 57
45, 56
51, 43
38, 42
53, 34
37, 21
33, 32
23, 26
21, 25
27, 30
21, 20
12, 12
7, 10
10, 4
0, 3
2, 3
5, 7
8, 4
12, 3
5, 7
7, 7
8, 8
8, 7
14, 9
10, 5
8, 3
6, 5
3, 13
3, 5
6, 8
8, 6
8, 9
17, 9
29, 24
45, 47
54, 72
90, 92
112, 112
127, 119
121, 131
74, 93
56, 71
51, 45
22, 20
14, 19
13, 5
9, 6
8, 7
10, 16
14, 15
17, 19
16, 20
21, 19
19, 29
25, 18
13, 19
14, 12
15, 13
14, 9
8, 7
8, 11
15, 9
8, 4
7, 8
5, 1
6, 6
5, 6
5, 4
10, 14
5, 15
9, 17
12, 10
12, 14
13, 16
17, 20
15, 17
25, 15
25, 19
25, 30
24, 26
37, 23
17, 24
15, 20
18, 14
19, 12
17, 16
14, 17
11, 6
16, 12
22, 13
13, 9
21, 11
21, 13
20, 12
17, 13
21, 18
13, 5
18, 8
16, 14
15, 12
13, 8
12, 14
12, 15
13, 9
15, 12
21, 13
16, 14
23, 12
20, 18
12, 21
14, 13
12, 14
16, 9
12, 16
19, 10
17, 13
11, 14
11, 14
13, 13
17, 7
9, 10
18, 9
11, 18
20, 17
18, 20
29, 28
28, 37
38, 52
57, 57
64, 71
91, 85
93, 100
93, 98
90, 76
56, 69
61, 37
54, 48
34, 35
31, 36
26, 15
23, 20
19, 14
38, 29
48, 58
91, 73
140, 143
301, 341
513, 561
856, 969
1396, 1483
1950, 1976
2557, 2408
3002, 2825
3204, 2933
3025, 2636
2627, 2143
2076, 1617
1508, 1124
966, 647
578, 382
304, 206
162, 79
98, 56
45, 31
29, 23
26, 23
27, 16
34, 17
25, 15
34, 26
38, 34
37, 25
56, 43
59, 47
85, 99
138, 125
197, 170
284, 263
319, 347
419, 376
434, 456
456, 389
457, 385
409, 330
282, 218
207, 157
131, 113
90, 49
46, 29
26, 19
21, 11
7, 8
7, 10
7, 6
6, 6
8, 4
10, 9
6, 8
6, 9
8, 9
8, 7
8, 7
5, 6
6, 2
5, 3
7, 6
3, 7
7, 2
4, 7
8, 9
4, 9
8, 5
6, 4
8, 7
8, 8
6, 8
1, 4
5, 5
9, 8
7, 2
11, 4
8, 8
10, 5
4, 8
5, 4
6, 11
5, 7
8, 5
9, 7
9, 12
11, 5
11, 17
4, 6
7, 4
5, 4
6, 6
10, 4
4, 3
10, 7
8, 4
5, 3
6, 5
5, 10
7, 5
4, 11
3, 4
10, 11
7, 9
7, 7
6, 10
5, 7
10, 5
8, 4
5, 3
5, 6
4, 5
7, 10
7, 7
2, 5
6, 5
5, 3
6, 6
6, 2
6, 4
2, 2
7, 6
4, 4
6, 9
2, 3
5, 6
4, 7
8, 9
8, 3
2, 6
7, 5
6, 7
3, 8
6, 5
3, 7
4, 3
1, 5
6, 3
3, 5
2, 5
5, 3
4, 6
4, 6
4, 3
6, 8
1, 10
8, 5
8, 5
6, 4
8, 2
7, 6
5, 4
3, 2
5, 3
2, 2
5, 8
6, 2
5, 5
6, 6
9, 1
3, 2
5, 7
2, 7
2, 4
8, 6
6, 7
7, 2
7, 0
3, 5
1, 5
4, 5
4, 1
5, 3
5, 3
5, 6
4, 1
4, 3
2, 3
3, 4
2, 2
3, 4
2, 3
3, 3
3, 4
4, 1
3, 3
2, 1
3, 4
3, 2
4, 5
1, 5
1, 1
5, 3
3, 2
5, 4
1, 2
4, 1
8, 5
7, 1
2, 4
3, 2
6, 5
3, 3
3, 3
4, 2
5, 2
2, 3
4, 1
4, 2
4, 0
2, 1
0, 0
3, 1
5, 2
4, 3
5, 2
3, 2
2, 2
2, 2
1, 3
5, 3
3, 2
3, 6
3, 0
2, 3
1, 1
3, 2
2, 4
1, 5
6, 2
2, 4
2, 1
1, 0
5, 2
2, 4
4, 1
1, 1
1, 2
5, 0
1, 2
5, 0
1, 2
1, 3
4, 1
2, 2
1, 1
6, 2
3, 1
3, 3
2, 0
0, 1
3, 5
3, 5
0, 2
5, 1
1, 2
5, 4
4, 2
2, 1
2, 1
1, 5
2, 5
2, 2
0, 2
2, 3
1, 0
3, 3
1, 4
0, 1
3, 3
1, 3
3, 5
0, 5
3, 2
1, 0
2, 4
7, 6
3, 4
5, 4
9, 3
4, 2
2, 3
2, 7
5, 4
4, 5
2, 3
2, 5
5, 1
4, 1
0, 1
2, 1
1, 2
0, 0
1, 2
7, 1
2, 0
6, 2
0, 2
3, 0
1, 0
2, 4
2, 2
5, 0
5, 2
2, 2
5, 2
0, 3
2, 1
1, 2
3, 2
1, 5
1, 2
4, 1
0, 0
0, 1
2, 2
1, 1
1, 0
2, 0
1, 1
1, 1
3, 2
3, 0
1, 1
3, 1
1, 2
1, 6
1, 0
1, 0
1, 1
2, 0
2, 0
1, 1
1, 1
0, 1
1, 2
3, 0
1, 1
0, 1
2, 2
0, 0
1, 1
1, 1
1, 1
2, 0
0, 1
2, 1
1, 2
5, 1
1, 2
0, 1
1, 0
3, 1
1, 1
1, 0
1, 0
1, 0
1, 0
0, 0
0, 1
0, 0
1, 1
1, 1
3, 1
1, 0
0, 1
1, 1
3, 0
0, 1
0, 1
0, 1
0, 1
0, 1
0, 0
3, 2
3, 2
0, 1
0, 0
0, 0
0, 0
0, 0
0, 0
1, 1
1, 0
1, 0
1, 2
1, 0
2, 0
1, 0
2, 0
1, 1
0, 0
0, 0
0, 2
0, 0
1, 0
2, 0
0, 0
0, 0
0, 0
3, 2
2, 0
1, 1
0, 0
0, 0
0, 1
0, 2
0, 0
0, 0
0, 2
0, 2
0, 1
0, 0
0, 0
0, 0
4, 0
0, 0
0, 0
0, 0
0, 1
0, 0
0, 0
1, 0
1, 1
0, 0
1, 1
0, 1
1, 0
0, 1
2, 0
2, 1
0, 0
0, 1
0, 2
1, 0
1, 0
0, 0
1, 0
0, 2
0, 0
0, 0
0, 1
0, 2
0, 1
0, 0
0, 0
0, 0
1, 1
0, 0
1, 1
0, 0
0, 0
0, 0
0, 1
0, 1
0, 0
1, 0
0, 0
0, 0
0, 0
0, 1
0, 0
0, 1
0, 0
1, 0
1, 0
0, 1
1, 0
0, 0
1, 0
0, 1
0, 0
1, 0
0, 0
0, 1
0, 0
0, 0
0, 0
0, 1
0, 0
0, 0
1, 0
0, 0
1, 1
0, 0
0, 0
1, 1
0, 0
0, 0
0, 0
0, 1
0, 0
0, 0
0, 0
0, 0
0, 0
1, 0
0, 0
0, 0
0, 0
1, 1
0, 0
0, 0
0, 0
0, 1
2, 0
0, 0
0, 0
0, 0
0, 0
0, 0
0, 0
0, 0
0, 0
1, 0
1, 1
0, 1
0, 1
1, 0
0, 1
0, 0
0, 1
0, 0
0, 2
1, 0
0, 0
0, 0
0, 0
0, 0
0, 0
0, 0
0, 0
0, 0
0, 0
0, 0
1, 0
0, 1
3, 0
0, 0
1, 0
0, 0
0, 0
0, 0
0, 0
0, 0
0, 0
0, 0
0, 0
0, 0
0, 0
0, 0
0, 0
0, 0
0, 0
0, 0
0, 0
0, 0
3, 0
1, 0
0, 1
0, 0
0, 0
0, 2
1, 0
0, 0
0, 0
0, 0
0, 0
0, 0
0, 1
0, 0
0, 0
0, 0
0, 0
1, 1
0, 0
0, 0
1, 0
0, 0
1, 1
0, 0
0, 0
0, 0
0, 0
0, 0
0, 1
0, 0
0, 0
0, 0
0, 0
0, 0
0, 1
0, 0
0, 0
0, 0
1, 0
0, 0
0, 0
0, 0
0, 0
1, 0
0, 0
0, 0
0, 0
0, 0
1, 0
0, 0
0, 0
1, 0
0, 0
1, 0
0, 0
0, 0
0, 0
0, 0
0, 0
0, 0
0, 0
0, 0
1, 0
0, 0
0, 0
0, 0
0, 0
0, 0
0, 0
0, 0
0, 0
0, 1
0, 0
0, 0
0, 0
0, 0
0, 0
0, 0
0, 1
0, 0
0, 1
0, 0
0, 0
0, 0
0, 0
0, 0
0, 0
0, 0
0, 0
0, 0
0, 0
0, 0
0, 0
0, 0
0, 0
0, 0
0, 0
0, 0
0, 0
0, 0
0, 0
0, 0
0, 0
1, 0
0, 0
0, 0
0, 0
0, 0
0, 0
0, 0
0, 0
0, 0
0, 0
0, 0
0, 0
1, 0
0, 0
0, 0
0, 0
0, 0
0, 0
0, 0
0, 0
0, 0
0, 0
0, 0
0, 0
0, 0
0, 0
0, 0
1, 0
0, 0
0, 0
0, 0
0, 0
0, 0
0, 0
0, 0
0, 0
0, 1
0, 0
0, 0
0, 0
0, 0
0, 0
0, 0
0, 0
0, 0
0, 0
0, 0
0, 0
0, 0
0, 0
0, 0
0, 0
0, 0
0, 0
0, 0
0, 0
0, 0
0, 0
0, 0
0, 0
0, 0
0, 0
0, 0
0, 0
0, 0
0, 0
0, 0
0, 0
0, 0
0, 0
0, 0
0, 0
0, 0
0, 0
0, 0
0, 0
0, 0
0, 0
0, 0
0, 0
0, 0
0, 0
0, 0
0, 0
0, 0
0, 0
0, 0
0, 0
0, 0
0, 0
1, 0
0, 0
0, 0
0, 0
0, 0
0, 0
0, 0
0, 0
0, 0
0, 0
0, 0
0, 0
0, 0
0, 0
0, 0
0, 0
0, 0
0, 0
0, 0
0, 0
0, 0
0, 0
0, 0
0, 0
0, 0
0, 0
0, 0
0, 0
0, 0
0, 0
0, 0
0, 0
0, 0
0, 0
0, 0
0, 0
0, 0
0, 0
0, 0
0, 0
0, 0
0, 0
0, 0
0, 0
0, 0
0, 0
0, 0
0, 0
0, 0
0, 0
0, 0
0, 0
0, 0
0, 0
0, 0
0, 0
0, 0
0, 0
0, 0
0, 0
0, 0
0, 0
0, 0
0, 0
0, 0
0, 0
0, 0
0, 0
0, 0
0, 0
0, 0
0, 0
0, 0
0, 0
0, 0
0, 0
0, 0
0, 0
0, 0
0, 0
0, 0
0, 0
0, 0
0, 0
0, 0
0, 0
0, 0
0, 0
0, 0
0, 0
0, 0
0, 0
0, 0
0, 0
0, 0
0, 0
0, 0
0, 0
0, 0
0, 0
0, 0
0, 0
0, 0
0, 0
0, 0
0, 0
0, 0
0, 0
0, 0
0, 0
0, 0
0, 0
0, 0
0, 0
0, 0
0, 0
0, 0
0, 0
0, 0
0, 0
0, 0
0, 0
0, 0
0, 0
0, 0
0, 0
0, 0
0, 0
0, 0
0, 0
0, 0
0, 0
0, 0
0, 0
0, 0
0, 0
0, 0
0, 0
0, 0
0, 0
0, 0
0, 0
0, 0
0, 0
0, 0
0, 0
0, 0
0, 0
0, 0
0, 0
0, 0
0, 0
0, 0
0, 0
0, 0
0, 0
0, 0
0, 0
0, 0
0, 0
0, 0
0, 0
0, 0
0, 0
0, 0
0, 0
0, 0
0, 0
0, 0
0, 0
0, 0
0, 0
0, 0
0, 0
0, 0
0, 0
0, 0
0, 0
0, 0
0, 0
0, 0
0, 0
0, 0
0, 0
0, 0
0, 0
0, 0
0, 0
0, 0
0, 0
0, 0
0, 0
0, 0
0, 0
0, 0
0, 0
0, 0
0, 0
0, 0
0, 0
0, 0
0, 0
0, 0
0, 0
0, 0
0, 0
0, 0
0, 0
0, 0
0, 0
0, 0
0, 0
0, 0
0, 0
0, 0
0, 0
0, 0
0, 0
0, 0
0, 0
0, 0
0, 0
0, 0
0, 0
0, 0
0, 0
0, 0
0, 0
0, 0
0, 0
0, 0
0, 0
0, 0
0, 0
0, 0
0, 0
0, 0
0, 0
0, 0
0, 0
0, 0
0, 0
0, 0
0, 0
0, 0
0, 0
0, 0
0, 0
0, 0
0, 0
0, 0
0, 0
0, 0
0, 0
0, 0
0, 0
0, 0
0, 0
0, 0
0, 0
0, 0
0, 0
0, 0
0, 0
0, 0
0, 0
0, 0
0, 0
0, 0
0, 0
0, 0
0, 0
0, 0
0, 0
0, 0
0, 0
0, 0
0, 0
0, 0
0, 0
0, 0
0, 0
0, 0
0, 0
0, 0
0, 0
0, 0
0, 0
0, 0
0, 0
0, 0
0, 0
0, 0
0, 0
0, 0
0, 0
0, 0
0, 0
0, 0
0, 0
0, 0
0, 0
0, 0
0, 0
0, 0
0, 0
0, 0
0, 0
0, 0
0, 0
0, 0
0, 0
0, 0
0, 0
0, 0
0, 0
0, 0
0, 0
0, 0
0, 0
0, 0
0, 0
0, 0
0, 0
0, 0
0, 0
0, 0
0, 0
0, 0
0, 0
0, 0
0, 0
0, 0
0, 0
0, 0
0, 0
0, 0
0, 0
0, 0
0, 0
0, 0
0, 0
0, 0
0, 0
0, 0
0, 0
0, 0
0, 0
0, 0
0, 0
0, 0
0, 0
0, 0
#ENDOFDATA     end of spectrum data