File: host_upload/12-01-2023/Dourbes (shot-by-shot)/upload_4/ps__0257_0689790785_000rfs_shot_3272.msa
#FORMAT      : EMSA/MAS spectral data file
#VERSION     : TC202v2.0 PIXL
#TITLE       : N/A
#DATE        :       Date in the format DD-MMM-YYYY, for example 07-JUL-2010
#TIME        :             The time of day at which the spectrum was recorded, in 24-hour format
#OWNER       : PIXL Flight Model       (PIXL will use this to indicate which instrument took the data.)
#NPOINTS     : 4096     Number of data points in the spectrum (This can be zero for configuration only files)
#NCOLUMNS    : 2     Number of data columns in the spectrum (This can be zero for configuration only files)
#XUNITS      : eV
#YUNITS      : COUNTS
#DATATYPE    : YY
#XPERCHAN    : 7.862, 7.881   eV per channel (separate by commas if more than one detector)
#OFFSET      : 18.5, -22.4         eV of first channel  (separate by commas if more than one detector
#SIGNALTYPE  : XRF
#YP_TEMP     : 3.39
#LIVETIME    : 9.075, 9.06155   seconds (separate by commas if more than one detector)
#REALTIME    : 10, 10.0   seconds (separate by commas if more than one detector)
#SPECTRUM    : start of spectrum data
0, 0
0, 0
0, 0
0, 0
0, 0
0, 0
0, 0
0, 0
0, 0
0, 0
0, 0
0, 0
0, 0
0, 0
0, 0
0, 0
0, 0
0, 0
0, 0
0, 0
0, 0
0, 0
0, 0
0, 0
0, 0
0, 0
0, 0
0, 0
0, 0
0, 0
0, 0
0, 0
0, 0
0, 0
0, 0
0, 0
0, 0
1, 1
1, 0
2, 1
0, 7
1, 0
2, 4
0, 3
1, 4
2, 6
3, 2
1, 3
3, 4
8, 9
11, 11
16, 16
33, 32
52, 37
45, 46
47, 49
38, 32
16, 12
11, 16
6, 7
11, 8
10, 6
22, 7
13, 26
18, 25
10, 23
17, 18
21, 10
18, 24
54, 44
121, 115
212, 213
405, 390
568, 612
713, 636
718, 679
572, 571
408, 421
265, 246
149, 137
85, 80
33, 42
24, 13
13, 8
8, 8
7, 8
4, 10
2, 6
5, 6
1, 6
2, 6
6, 11
2, 13
2, 24
2, 24
6, 25
2, 24
5, 18
8, 13
7, 9
5, 8
10, 6
2, 6
3, 3
6, 5
1, 4
5, 3
10, 9
6, 11
10, 21
15, 13
33, 41
25, 40
45, 80
50, 100
26, 128
36, 154
47, 166
24, 197
23, 164
21, 133
13, 99
17, 47
12, 44
13, 31
15, 20
6, 11
5, 23
6, 15
8, 10
5, 7
4, 6
2, 5
5, 3
4, 3
4, 4
4, 6
6, 10
11, 9
21, 18
17, 13
21, 13
24, 25
15, 15
19, 7
26, 7
23, 7
28, 8
21, 9
44, 15
46, 29
78, 64
100, 128
177, 210
291, 331
385, 483
554, 580
567, 631
539, 528
413, 452
297, 325
197, 190
111, 92
71, 46
36, 28
22, 17
30, 30
42, 33
54, 59
79, 83
76, 87
83, 104
80, 79
53, 62
53, 44
34, 27
20, 21
21, 15
9, 11
8, 3
3, 10
4, 8
5, 18
4, 15
6, 18
2, 22
4, 17
12, 31
13, 21
14, 35
27, 31
28, 36
32, 31
27, 27
14, 19
21, 19
16, 13
18, 10
16, 20
8, 17
12, 7
14, 8
11, 2
5, 1
9, 7
11, 5
10, 11
9, 11
8, 13
8, 15
7, 17
7, 28
9, 31
5, 30
8, 19
7, 39
3, 36
5, 29
1, 14
1, 11
8, 15
6, 9
5, 11
7, 11
10, 10
17, 13
28, 21
23, 19
37, 30
32, 55
31, 46
37, 70
35, 94
31, 86
17, 126
15, 108
15, 109
9, 112
9, 72
8, 58
13, 47
14, 30
6, 18
8, 15
15, 19
25, 30
16, 32
49, 47
52, 44
57, 57
65, 58
72, 63
75, 73
55, 53
37, 36
42, 28
25, 19
28, 16
47, 21
40, 19
63, 25
65, 24
102, 46
121, 97
201, 150
309, 296
479, 507
782, 828
1127, 1357
1608, 1841
1951, 2223
2309, 2437
2394, 2424
2273, 2299
1883, 1829
1496, 1391
1035, 944
654, 575
418, 320
203, 227
101, 146
59, 65
29, 43
13, 32
15, 28
6, 27
20, 19
9, 21
7, 20
17, 20
16, 24
36, 28
44, 39
70, 82
86, 126
162, 192
210, 238
257, 281
317, 377
334, 331
359, 320
333, 286
249, 265
187, 188
144, 132
101, 61
66, 45
29, 33
23, 21
12, 10
7, 9
10, 10
3, 16
5, 10
4, 7
11, 7
10, 6
7, 8
7, 9
12, 2
10, 9
9, 10
8, 6
7, 6
3, 8
4, 5
3, 11
2, 16
5, 14
5, 21
3, 20
8, 23
7, 21
2, 15
1, 19
5, 11
4, 8
5, 9
4, 6
7, 4
4, 10
4, 6
4, 5
3, 6
5, 2
5, 5
8, 6
6, 5
5, 2
11, 4
6, 7
8, 7
7, 8
5, 3
12, 8
5, 5
12, 6
7, 2
9, 3
5, 7
7, 7
6, 9
1, 2
2, 6
4, 7
4, 6
1, 6
4, 6
4, 7
0, 7
4, 5
3, 9
5, 3
2, 8
10, 3
3, 4
2, 3
4, 7
5, 1
7, 4
1, 4
2, 6
6, 3
4, 3
2, 3
6, 6
6, 8
6, 7
0, 3
2, 8
3, 5
4, 0
6, 7
6, 5
2, 9
3, 10
7, 15
5, 13
3, 17
8, 19
12, 22
5, 25
1, 20
6, 20
7, 22
5, 12
4, 6
1, 3
12, 6
3, 8
6, 8
2, 4
5, 9
1, 9
2, 3
9, 2
3, 5
3, 4
5, 8
5, 2
6, 3
6, 6
5, 7
3, 10
3, 5
7, 12
6, 5
3, 10
6, 9
4, 11
2, 7
2, 12
3, 9
0, 5
2, 7
7, 7
2, 5
5, 11
6, 7
2, 2
4, 9
4, 2
4, 4
1, 3
1, 6
2, 5
4, 0
5, 10
2, 0
6, 4
7, 2
1, 4
3, 4
2, 2
2, 2
4, 1
2, 3
4, 0
3, 5
6, 2
2, 2
1, 8
4, 3
4, 1
1, 2
0, 1
2, 3
6, 3
2, 5
3, 3
1, 0
1, 3
3, 0
4, 1
4, 2
3, 4
4, 3
3, 1
5, 5
3, 4
3, 3
3, 2
2, 8
4, 1
3, 2
5, 1
6, 3
8, 6
7, 0
10, 1
11, 3
4, 0
7, 0
11, 2
4, 1
3, 5
5, 2
3, 1
1, 4
0, 3
3, 1
1, 2
1, 1
5, 1
3, 1
6, 5
3, 1
2, 4
1, 2
0, 7
2, 2
1, 2
2, 3
1, 1
3, 2
2, 2
0, 2
2, 3
1, 1
2, 2
2, 4
4, 1
2, 3
4, 3
4, 2
4, 1
0, 0
3, 2
2, 1
2, 0
2, 1
2, 2
3, 3
3, 3
1, 2
3, 1
3, 1
2, 1
5, 3
5, 3
6, 6
6, 4
5, 2
2, 2
4, 2
6, 4
1, 0
8, 1
2, 4
5, 2
7, 0
4, 3
3, 2
2, 1
1, 1
2, 2
2, 3
1, 0
2, 1
1, 3
1, 0
2, 2
1, 0
1, 4
1, 2
2, 2
3, 2
2, 0
2, 2
5, 1
0, 1
3, 2
0, 2
1, 1
1, 0
0, 3
1, 1
0, 0
0, 2
1, 2
2, 0
0, 2
0, 3
1, 2
2, 3
1, 1
4, 1
2, 2
1, 0
0, 0
1, 1
2, 1
0, 0
1, 1
1, 0
1, 0
1, 2
1, 0
0, 1
1, 3
1, 1
1, 0
0, 1
0, 0
0, 3
0, 1
0, 3
3, 0
2, 2
1, 1
1, 2
1, 0
0, 1
2, 0
0, 0
0, 0
0, 1
3, 1
0, 2
0, 0
0, 1
0, 2
1, 1
0, 1
1, 0
3, 2
0, 0
1, 3
0, 0
0, 1
0, 0
0, 0
0, 1
0, 0
0, 1
2, 1
0, 0
0, 2
2, 0
0, 0
0, 0
0, 0
0, 0
0, 1
0, 0
0, 1
1, 1
1, 0
0, 0
0, 1
1, 0
0, 1
0, 2
0, 0
1, 0
1, 0
0, 0
0, 1
0, 1
1, 0
0, 2
0, 1
0, 2
1, 0
1, 1
0, 0
1, 0
0, 0
0, 2
1, 0
1, 2
0, 0
0, 2
0, 1
2, 1
0, 0
1, 1
0, 0
0, 0
3, 1
0, 1
0, 0
1, 0
0, 0
0, 1
0, 0
0, 1
0, 0
1, 0
0, 0
0, 0
1, 1
0, 1
1, 2
0, 2
0, 0
0, 0
1, 0
1, 0
2, 0
1, 0
2, 1
2, 0
0, 1
0, 1
1, 1
1, 0
0, 1
0, 2
1, 1
1, 0
1, 0
0, 1
0, 1
1, 0
0, 0
0, 0
1, 0
1, 0
0, 1
0, 1
0, 0
0, 0
1, 0
1, 0
1, 0
0, 0
0, 0
0, 0
0, 0
0, 0
0, 1
0, 1
0, 0
0, 0
0, 0
0, 1
0, 0
0, 1
0, 0
0, 0
0, 0
0, 1
0, 0
0, 0
1, 1
0, 0
0, 0
0, 1
1, 0
0, 0
0, 1
0, 1
1, 0
0, 1
1, 0
1, 0
1, 0
0, 0
0, 0
1, 0
0, 0
0, 0
0, 1
1, 0
0, 1
1, 0
0, 0
0, 1
0, 0
0, 0
0, 0
2, 0
1, 1
0, 0
0, 0
0, 0
0, 0
0, 1
0, 0
0, 1
0, 0
0, 0
0, 0
0, 0
0, 0
0, 2
0, 0
0, 0
0, 0
0, 0
0, 0
1, 0
0, 0
0, 0
0, 0
0, 0
0, 0
0, 0
0, 0
3, 0
0, 0
0, 0
0, 0
0, 0
0, 1
0, 0
0, 0
2, 1
1, 0
1, 0
0, 0
0, 0
0, 0
0, 0
0, 1
0, 0
0, 0
0, 1
0, 1
0, 0
0, 0
0, 1
0, 0
0, 0
0, 0
0, 0
0, 0
0, 0
0, 0
0, 1
0, 0
0, 0
0, 0
0, 0
0, 0
0, 0
0, 0
0, 0
0, 0
0, 0
0, 0
0, 0
0, 0
0, 1
0, 0
0, 0
0, 1
1, 0
0, 0
0, 0
1, 0
0, 1
0, 0
0, 0
0, 1
0, 1
0, 0
1, 0
0, 0
0, 1
0, 0
0, 0
0, 0
0, 0
0, 0
0, 0
0, 0
0, 0
0, 0
0, 0
0, 0
0, 0
0, 0
0, 1
0, 0
0, 0
0, 0
0, 0
0, 0
0, 0
0, 0
0, 0
0, 0
0, 0
0, 1
0, 1
0, 0
0, 0
1, 1
0, 0
0, 0
0, 0
0, 0
0, 0
0, 0
0, 0
0, 0
0, 0
0, 0
0, 0
0, 0
0, 0
0, 0
0, 0
0, 0
0, 0
0, 0
0, 0
0, 0
0, 0
0, 0
0, 0
0, 0
0, 0
0, 0
0, 0
0, 0
0, 0
0, 0
0, 0
0, 1
0, 0
0, 0
0, 1
0, 0
0, 0
0, 0
0, 0
0, 0
0, 0
0, 0
0, 0
0, 0
0, 0
0, 0
0, 0
0, 0
0, 0
0, 0
0, 0
0, 0
0, 0
0, 0
0, 0
0, 0
0, 0
0, 0
1, 0
0, 0
0, 0
0, 0
0, 0
0, 0
0, 0
0, 0
0, 0
0, 0
0, 0
0, 0
0, 0
0, 0
0, 0
0, 0
0, 0
0, 0
0, 0
0, 0
0, 0
0, 0
0, 0
0, 0
0, 0
0, 0
0, 0
0, 0
0, 0
0, 0
0, 0
0, 0
0, 0
0, 0
0, 0
0, 0
0, 0
0, 0
0, 0
0, 0
0, 0
0, 0
0, 0
0, 0
0, 0
0, 0
0, 0
0, 0
0, 0
0, 0
0, 0
0, 0
0, 0
0, 0
0, 0
0, 0
0, 0
0, 0
0, 0
0, 0
0, 0
0, 0
0, 0
0, 0
0, 0
0, 0
0, 0
0, 0
0, 0
0, 0
0, 0
0, 0
0, 0
0, 0
0, 0
0, 0
0, 0
0, 0
0, 0
0, 0
0, 0
0, 0
0, 0
0, 0
0, 0
0, 0
0, 0
0, 0
0, 0
0, 0
0, 0
0, 0
0, 0
0, 0
0, 0
0, 0
0, 0
0, 0
0, 0
0, 0
0, 0
0, 0
0, 0
0, 0
0, 0
0, 0
0, 0
0, 0
0, 0
0, 0
0, 0
0, 0
0, 0
0, 0
0, 0
0, 0
0, 0
0, 0
0, 0
0, 0
0, 0
0, 0
0, 0
0, 0
0, 0
0, 0
0, 0
0, 0
0, 0
0, 0
0, 0
0, 0
0, 0
0, 0
0, 0
0, 0
0, 0
0, 0
0, 0
0, 0
0, 0
0, 0
0, 0
0, 0
0, 0
0, 0
0, 0
0, 0
0, 0
0, 0
0, 0
0, 0
0, 0
0, 0
0, 0
0, 0
0, 0
0, 0
0, 0
0, 0
0, 0
0, 0
0, 0
0, 0
0, 0
0, 0
0, 0
0, 0
0, 0
0, 0
0, 0
0, 0
0, 0
0, 0
0, 0
0, 0
0, 0
0, 0
0, 0
0, 0
0, 0
0, 0
0, 0
0, 0
0, 0
0, 0
0, 0
0, 0
0, 0
0, 0
0, 0
0, 0
0, 0
0, 0
0, 0
0, 0
0, 0
0, 0
0, 0
0, 0
0, 0
0, 0
0, 0
0, 0
0, 0
0, 0
0, 0
0, 0
0, 0
0, 0
0, 0
0, 0
0, 0
0, 0
0, 0
0, 0
0, 0
0, 0
0, 0
0, 0
0, 0
0, 0
0, 0
0, 0
0, 0
0, 0
0, 0
0, 0
0, 0
0, 0
0, 0
0, 0
0, 0
0, 0
0, 0
0, 0
0, 0
0, 0
0, 0
0, 0
0, 0
0, 0
0, 0
0, 0
0, 0
0, 0
0, 0
0, 0
0, 0
0, 0
0, 0
0, 0
0, 0
0, 0
0, 0
0, 0
0, 0
0, 0
0, 0
0, 0
0, 0
0, 0
0, 0
0, 0
0, 0
0, 0
0, 0
0, 0
0, 0
0, 0
0, 0
0, 0
0, 0
0, 0
0, 0
0, 0
0, 0
0, 0
0, 0
0, 0
0, 0
0, 0
0, 0
0, 0
0, 0
0, 0
0, 0
0, 0
0, 0
0, 0
0, 0
0, 0
0, 0
0, 0
0, 0
0, 0
0, 0
0, 0
0, 0
0, 0
0, 0
0, 0
0, 0
0, 0
0, 0
0, 0
0, 0
0, 0
0, 0
0, 0
0, 0
0, 0
0, 0
0, 0
0, 0
0, 0
0, 0
0, 0
0, 0
0, 0
0, 0
0, 0
0, 0
0, 0
0, 0
0, 0
0, 0
0, 0
0, 0
0, 0
0, 0
0, 0
0, 0
0, 0
0, 0
0, 0
0, 0
0, 0
0, 0
0, 0
0, 0
0, 0
0, 0
0, 0
0, 0
0, 0
0, 0
0, 0
0, 0
0, 0
0, 0
0, 0
0, 0
0, 0
0, 0
0, 0
0, 0
0, 0
0, 0
0, 0
0, 0
0, 0
0, 0
0, 0
0, 0
0, 0
0, 0
0, 0
0, 0
0, 0
0, 0
0, 0
0, 0
0, 0
0, 0
0, 0
0, 0
0, 0
0, 0
0, 0
0, 0
0, 0
0, 0
0, 0
0, 0
0, 0
0, 0
0, 0
0, 0
0, 0
0, 0
0, 0
0, 0
0, 0
0, 0
0, 0
0, 0
0, 0
0, 0
0, 0
0, 0
0, 0
0, 0
0, 0
0, 0
0, 0
0, 0
0, 0
0, 0
0, 0
0, 0
0, 0
0, 0
0, 0
0, 0
0, 0
0, 0
0, 0
#ENDOFDATA     end of spectrum data