File: host_upload/12-01-2023/Dourbes (shot-by-shot)/upload_4/ps__0257_0689790785_000rfs_shot_3263.msa
#FORMAT      : EMSA/MAS spectral data file
#VERSION     : TC202v2.0 PIXL
#TITLE       : N/A
#DATE        :       Date in the format DD-MMM-YYYY, for example 07-JUL-2010
#TIME        :             The time of day at which the spectrum was recorded, in 24-hour format
#OWNER       : PIXL Flight Model       (PIXL will use this to indicate which instrument took the data.)
#NPOINTS     : 4096     Number of data points in the spectrum (This can be zero for configuration only files)
#NCOLUMNS    : 2     Number of data columns in the spectrum (This can be zero for configuration only files)
#XUNITS      : eV
#YUNITS      : COUNTS
#DATATYPE    : YY
#XPERCHAN    : 7.862, 7.881   eV per channel (separate by commas if more than one detector)
#OFFSET      : 18.5, -22.4         eV of first channel  (separate by commas if more than one detector
#SIGNALTYPE  : XRF
#YP_TEMP     : 3.037
#LIVETIME    : 9.01112, 9.011   seconds (separate by commas if more than one detector)
#REALTIME    : 10, 10.0   seconds (separate by commas if more than one detector)
#SPECTRUM    : start of spectrum data
0, 0
0, 0
0, 0
0, 0
0, 0
0, 0
0, 0
0, 0
0, 0
0, 0
0, 0
0, 0
0, 0
0, 0
0, 0
0, 0
0, 0
0, 0
0, 0
0, 0
0, 0
0, 0
0, 0
0, 0
0, 0
0, 0
0, 0
0, 0
0, 0
0, 0
0, 0
0, 0
0, 0
0, 0
0, 0
0, 1
0, 0
1, 0
0, 2
0, 0
1, 1
1, 1
2, 0
0, 1
3, 1
1, 1
3, 2
3, 2
1, 2
7, 6
10, 13
18, 24
39, 43
53, 48
60, 58
58, 48
39, 34
17, 26
10, 13
4, 6
4, 4
2, 0
1, 10
2, 0
0, 1
3, 6
10, 3
7, 8
13, 12
35, 28
88, 98
182, 171
296, 304
421, 415
518, 523
519, 514
442, 443
301, 318
176, 210
94, 96
48, 53
30, 19
18, 13
11, 7
4, 2
3, 2
1, 0
4, 3
1, 3
0, 2
0, 1
2, 0
1, 0
2, 0
3, 3
4, 0
4, 3
2, 4
2, 4
3, 0
2, 2
5, 6
3, 1
5, 3
2, 3
3, 0
8, 2
1, 9
14, 10
17, 10
22, 18
14, 30
32, 37
36, 43
40, 48
44, 47
39, 32
30, 31
24, 29
17, 34
18, 22
25, 33
22, 9
10, 8
17, 16
8, 14
14, 15
13, 12
10, 3
8, 7
5, 2
4, 5
6, 4
2, 4
0, 4
3, 2
3, 2
1, 2
0, 2
1, 2
1, 0
1, 2
3, 1
1, 2
1, 3
3, 4
4, 2
0, 2
1, 1
2, 1
1, 3
9, 4
7, 7
11, 12
22, 19
16, 29
33, 28
25, 38
26, 32
20, 32
23, 20
10, 11
3, 7
4, 8
2, 4
2, 3
3, 5
3, 7
3, 6
3, 5
5, 6
10, 10
2, 12
5, 7
6, 9
4, 6
5, 3
2, 4
2, 7
1, 6
4, 4
2, 2
3, 1
1, 2
4, 4
4, 4
2, 5
7, 9
3, 6
10, 12
8, 9
9, 13
12, 15
15, 27
18, 19
14, 29
24, 30
19, 30
27, 26
14, 33
9, 14
11, 17
6, 9
5, 6
5, 5
7, 3
6, 7
7, 6
4, 5
5, 6
4, 3
4, 9
6, 2
7, 8
4, 8
10, 7
7, 9
7, 7
9, 4
5, 7
3, 10
3, 14
7, 13
2, 10
10, 8
10, 9
6, 16
8, 10
9, 14
16, 20
10, 17
10, 8
16, 16
10, 11
9, 14
4, 11
5, 6
8, 12
15, 7
5, 5
11, 7
6, 8
12, 12
9, 23
18, 19
30, 32
34, 46
47, 67
66, 73
71, 82
104, 121
89, 121
87, 84
72, 84
62, 50
34, 48
39, 22
26, 16
15, 12
12, 18
18, 27
28, 26
56, 60
80, 97
170, 196
340, 435
636, 827
1068, 1343
1740, 2005
2484, 2840
3109, 3441
3631, 3721
3856, 3792
3524, 3545
3159, 2879
2372, 2090
1631, 1386
1064, 899
573, 480
331, 246
155, 120
82, 60
42, 27
32, 14
21, 21
29, 22
31, 21
25, 18
42, 23
41, 22
35, 28
56, 31
73, 67
101, 99
137, 206
203, 225
281, 422
415, 455
467, 493
534, 534
548, 536
473, 498
447, 390
329, 271
217, 187
133, 107
77, 70
46, 38
20, 21
11, 6
5, 4
7, 6
5, 5
4, 5
7, 4
3, 6
5, 4
7, 5
6, 7
5, 3
2, 4
6, 2
6, 4
4, 2
3, 5
5, 3
1, 1
2, 5
0, 4
1, 3
2, 3
2, 2
2, 0
3, 2
4, 1
2, 4
3, 4
9, 5
4, 5
7, 4
4, 6
5, 8
3, 8
11, 5
8, 9
11, 8
4, 5
13, 4
4, 7
4, 3
2, 5
7, 1
4, 2
5, 1
1, 1
2, 6
5, 2
1, 4
3, 3
3, 4
1, 6
7, 6
1, 5
0, 4
3, 3
7, 8
4, 8
10, 7
5, 6
7, 2
3, 4
1, 4
7, 2
2, 2
3, 5
1, 0
2, 2
3, 3
2, 3
3, 4
4, 2
3, 4
3, 5
4, 2
7, 4
6, 2
4, 6
1, 1
4, 2
4, 0
5, 3
3, 0
3, 4
6, 7
7, 4
3, 6
3, 3
2, 2
2, 3
2, 2
4, 3
6, 0
2, 2
4, 4
3, 2
2, 3
4, 7
4, 4
2, 1
3, 2
4, 2
3, 4
4, 3
5, 1
3, 2
1, 3
0, 5
3, 2
2, 4
2, 2
3, 1
2, 3
3, 5
1, 3
2, 3
3, 4
1, 2
1, 4
4, 4
3, 4
1, 4
2, 7
3, 3
2, 2
3, 7
2, 4
1, 4
0, 5
4, 3
1, 4
5, 5
1, 2
1, 2
1, 4
4, 1
1, 2
2, 2
4, 8
1, 2
2, 3
0, 3
1, 4
4, 5
3, 3
3, 4
1, 1
1, 0
1, 2
3, 1
1, 3
1, 4
4, 1
1, 3
2, 3
0, 0
2, 0
0, 1
2, 1
0, 1
3, 1
2, 2
2, 1
1, 2
0, 1
2, 4
3, 3
0, 2
2, 1
4, 2
1, 1
3, 2
1, 3
1, 4
2, 4
3, 3
4, 1
2, 3
1, 2
3, 4
1, 4
1, 2
0, 2
2, 3
3, 0
1, 4
0, 2
0, 3
5, 0
2, 1
1, 2
1, 2
0, 3
1, 3
2, 1
0, 1
0, 1
0, 1
0, 0
3, 2
3, 2
0, 3
1, 0
2, 3
0, 2
3, 2
3, 1
2, 3
1, 1
2, 1
2, 1
5, 0
1, 0
0, 1
2, 0
0, 0
3, 0
1, 2
1, 2
3, 1
0, 1
2, 1
0, 1
1, 3
1, 4
2, 1
2, 4
3, 5
3, 6
4, 2
4, 2
5, 4
10, 6
11, 5
4, 2
9, 6
6, 6
3, 5
2, 2
3, 5
1, 2
2, 2
1, 2
2, 1
4, 1
1, 1
1, 1
1, 0
0, 1
1, 2
2, 2
2, 1
1, 2
2, 1
3, 3
4, 3
1, 2
3, 0
3, 1
1, 3
0, 2
3, 7
4, 0
4, 1
6, 1
4, 0
3, 0
2, 0
3, 2
2, 2
1, 0
1, 3
0, 1
0, 2
1, 2
1, 2
0, 3
3, 1
1, 1
1, 2
4, 1
2, 2
1, 2
1, 2
0, 0
4, 2
0, 1
0, 0
1, 3
2, 4
3, 3
0, 0
0, 1
0, 3
0, 0
1, 2
0, 1
1, 2
0, 3
3, 1
2, 0
0, 1
1, 0
2, 1
1, 1
1, 0
0, 1
2, 2
2, 0
0, 0
1, 2
1, 0
1, 1
0, 0
1, 4
1, 2
1, 0
1, 0
1, 1
1, 1
0, 2
1, 1
0, 0
0, 1
0, 0
0, 1
0, 2
0, 0
1, 0
0, 0
1, 0
0, 0
1, 1
0, 0
0, 0
0, 0
1, 1
0, 0
1, 0
0, 0
0, 0
1, 0
1, 0
1, 0
0, 1
0, 1
0, 1
2, 0
0, 0
2, 0
0, 0
0, 1
1, 1
1, 0
0, 0
0, 1
1, 1
0, 1
2, 1
1, 0
0, 0
0, 0
0, 1
1, 0
0, 1
0, 1
0, 0
1, 1
0, 2
0, 0
1, 1
0, 0
0, 0
0, 2
0, 0
0, 1
2, 0
0, 1
1, 0
0, 0
0, 2
0, 0
1, 0
0, 0
0, 0
1, 2
0, 1
1, 0
0, 3
0, 1
0, 0
0, 0
0, 0
0, 0
1, 0
0, 0
0, 1
0, 0
0, 0
0, 0
1, 1
0, 0
0, 0
0, 0
0, 0
0, 0
0, 0
0, 0
0, 0
0, 0
0, 0
0, 0
0, 1
0, 2
0, 0
1, 0
0, 0
0, 2
0, 0
0, 0
0, 0
0, 1
0, 1
0, 0
0, 0
0, 0
0, 1
0, 0
0, 0
0, 0
0, 0
0, 0
0, 1
0, 1
0, 0
0, 0
0, 0
1, 1
0, 0
0, 0
1, 0
0, 0
1, 0
0, 0
0, 0
1, 1
0, 0
0, 0
0, 1
0, 1
1, 1
1, 0
0, 1
0, 1
0, 0
0, 0
0, 1
0, 0
0, 0
0, 0
0, 0
1, 1
0, 0
0, 0
0, 0
1, 2
0, 0
0, 0
1, 0
1, 0
0, 0
0, 0
0, 0
0, 0
0, 0
0, 0
0, 0
1, 0
0, 0
0, 0
0, 0
0, 0
1, 0
0, 1
0, 1
0, 1
0, 0
0, 0
0, 0
1, 0
1, 0
0, 0
1, 0
0, 0
0, 0
0, 0
0, 0
1, 0
0, 0
0, 0
0, 1
0, 0
1, 0
0, 0
0, 0
0, 0
0, 0
0, 0
0, 0
0, 0
0, 0
0, 0
0, 0
0, 0
0, 0
0, 0
0, 0
0, 0
0, 0
0, 0
0, 0
0, 0
0, 0
0, 0
0, 0
0, 0
0, 0
0, 0
0, 0
0, 0
1, 0
0, 1
0, 1
0, 0
0, 0
0, 1
0, 1
0, 0
0, 0
0, 0
0, 0
0, 0
0, 0
1, 0
0, 0
1, 0
0, 0
0, 0
0, 0
0, 0
0, 0
0, 0
1, 0
0, 0
0, 0
0, 0
0, 0
0, 0
0, 0
0, 0
0, 0
0, 0
0, 1
0, 0
0, 0
0, 0
0, 0
0, 0
0, 0
0, 0
0, 0
0, 0
0, 0
0, 1
0, 0
0, 0
0, 0
0, 0
0, 0
0, 0
0, 0
0, 0
0, 0
0, 0
0, 0
0, 0
0, 0
1, 0
0, 1
0, 0
0, 0
0, 0
0, 0
0, 0
0, 0
0, 0
0, 0
0, 0
0, 0
0, 0
0, 0
0, 0
0, 0
0, 0
0, 1
0, 0
0, 0
0, 0
0, 0
0, 0
0, 0
0, 0
0, 0
0, 0
0, 0
0, 0
0, 0
0, 0
0, 0
0, 0
0, 0
0, 0
0, 0
0, 0
0, 0
0, 0
0, 0
0, 0
0, 0
0, 0
0, 0
0, 0
0, 0
0, 0
0, 0
0, 0
0, 0
0, 0
0, 0
0, 0
0, 0
0, 0
0, 0
0, 0
0, 0
0, 0
0, 0
0, 0
0, 0
0, 0
0, 0
0, 0
0, 0
0, 0
0, 0
0, 0
0, 0
0, 0
0, 0
0, 0
0, 0
0, 0
0, 0
0, 0
0, 0
0, 0
0, 0
0, 0
0, 0
0, 0
0, 0
0, 0
0, 0
0, 0
0, 0
0, 0
0, 0
0, 0
0, 0
0, 0
0, 0
0, 0
0, 0
0, 0
0, 0
0, 0
0, 0
0, 0
0, 0
0, 0
0, 0
0, 0
0, 0
0, 0
0, 0
0, 0
0, 0
0, 0
0, 0
0, 0
0, 0
0, 0
0, 0
0, 0
0, 0
0, 0
0, 0
0, 0
0, 0
0, 0
0, 0
0, 0
0, 0
0, 0
0, 0
0, 0
0, 0
0, 0
0, 0
0, 0
0, 0
0, 0
0, 0
0, 0
0, 0
0, 0
0, 0
0, 0
0, 0
0, 0
0, 0
0, 0
0, 0
0, 0
0, 0
0, 0
0, 0
0, 0
0, 0
0, 0
0, 0
0, 0
0, 0
0, 0
0, 0
0, 0
0, 0
0, 0
0, 0
0, 0
0, 0
0, 0
0, 0
0, 0
0, 0
0, 0
0, 1
0, 0
0, 0
1, 0
0, 0
0, 0
0, 1
0, 0
0, 0
0, 0
0, 0
0, 0
0, 0
0, 0
0, 0
0, 0
0, 0
0, 0
0, 0
0, 0
0, 0
0, 0
0, 0
0, 0
0, 0
0, 0
0, 0
0, 0
0, 0
0, 0
0, 0
0, 0
0, 0
0, 0
0, 0
0, 0
0, 0
0, 0
0, 0
0, 0
0, 0
0, 0
0, 0
0, 0
0, 0
0, 0
0, 0
0, 0
0, 0
0, 0
0, 0
0, 0
0, 0
0, 0
0, 0
0, 0
0, 0
0, 0
0, 0
0, 0
0, 0
0, 0
0, 0
0, 0
0, 0
0, 0
0, 0
0, 0
0, 0
0, 0
0, 0
0, 0
0, 0
0, 0
0, 0
0, 0
0, 0
0, 0
0, 0
0, 0
0, 0
0, 0
0, 0
0, 0
0, 0
0, 0
0, 0
0, 0
0, 0
0, 0
0, 0
0, 0
0, 0
0, 0
0, 0
0, 0
0, 0
0, 0
0, 0
0, 0
0, 0
0, 0
0, 0
0, 0
0, 0
0, 0
0, 0
0, 0
0, 0
0, 0
0, 0
0, 0
0, 0
0, 0
0, 0
0, 0
0, 0
0, 0
0, 0
0, 0
0, 0
0, 0
0, 0
0, 0
0, 0
0, 0
0, 0
0, 0
0, 0
0, 0
0, 0
0, 0
0, 0
0, 0
0, 0
0, 0
0, 0
0, 0
0, 0
0, 0
0, 0
0, 0
0, 0
0, 0
0, 0
0, 0
0, 0
0, 0
0, 0
0, 0
0, 0
0, 0
0, 0
0, 0
0, 0
0, 0
0, 0
0, 0
0, 0
0, 0
0, 0
0, 0
0, 0
0, 0
0, 0
0, 0
0, 0
0, 0
0, 0
0, 0
0, 0
0, 0
0, 0
0, 0
0, 0
0, 0
0, 0
0, 0
0, 0
0, 0
0, 0
0, 0
0, 0
0, 0
0, 0
0, 0
0, 0
0, 0
0, 0
0, 0
0, 0
0, 0
0, 0
0, 0
0, 0
0, 0
0, 0
0, 0
0, 0
0, 0
0, 0
0, 0
0, 0
0, 0
0, 0
0, 0
0, 0
0, 0
0, 0
0, 0
0, 0
0, 0
0, 0
0, 0
0, 0
0, 0
0, 0
0, 0
0, 0
0, 0
0, 0
0, 0
0, 0
0, 0
0, 0
0, 0
0, 0
0, 0
0, 0
0, 0
0, 0
0, 0
0, 0
0, 0
0, 0
0, 0
0, 0
0, 0
0, 0
0, 0
0, 0
0, 0
0, 0
0, 0
0, 0
0, 0
0, 0
0, 0
0, 0
0, 0
0, 0
0, 0
0, 0
0, 0
0, 0
0, 0
0, 0
0, 0
0, 0
0, 0
0, 0
0, 0
0, 0
0, 0
0, 0
0, 0
0, 0
0, 0
0, 0
0, 0
0, 0
0, 0
0, 0
0, 0
0, 0
0, 0
0, 0
0, 0
0, 0
0, 0
0, 0
0, 0
0, 0
0, 0
0, 0
0, 0
0, 0
0, 0
0, 0
0, 0
0, 0
0, 0
0, 0
0, 0
0, 0
0, 0
0, 0
0, 0
0, 0
0, 0
0, 0
#ENDOFDATA     end of spectrum data