File: host_upload/12-01-2023/Dourbes (shot-by-shot)/upload_4/ps__0257_0689790785_000rfs_shot_3210.msa
#FORMAT      : EMSA/MAS spectral data file
#VERSION     : TC202v2.0 PIXL
#TITLE       : N/A
#DATE        :       Date in the format DD-MMM-YYYY, for example 07-JUL-2010
#TIME        :             The time of day at which the spectrum was recorded, in 24-hour format
#OWNER       : PIXL Flight Model       (PIXL will use this to indicate which instrument took the data.)
#NPOINTS     : 4096     Number of data points in the spectrum (This can be zero for configuration only files)
#NCOLUMNS    : 2     Number of data columns in the spectrum (This can be zero for configuration only files)
#XUNITS      : eV
#YUNITS      : COUNTS
#DATATYPE    : YY
#XPERCHAN    : 7.862, 7.881   eV per channel (separate by commas if more than one detector)
#OFFSET      : 18.5, -22.4         eV of first channel  (separate by commas if more than one detector
#SIGNALTYPE  : XRF
#YP_TEMP     : 3.133
#LIVETIME    : 8.98881, 8.9978   seconds (separate by commas if more than one detector)
#REALTIME    : 10, 10.0   seconds (separate by commas if more than one detector)
#SPECTRUM    : start of spectrum data
0, 0
0, 0
0, 0
0, 0
0, 0
0, 0
0, 0
0, 0
0, 0
0, 0
0, 0
0, 0
0, 0
0, 0
0, 0
0, 0
0, 0
0, 0
0, 0
0, 0
0, 0
0, 0
0, 0
0, 0
0, 0
0, 0
0, 0
0, 0
0, 0
0, 0
0, 0
0, 0
0, 0
0, 1
1, 1
0, 1
1, 1
1, 2
4, 1
5, 2
4, 4
6, 6
8, 7
8, 2
4, 4
4, 5
2, 1
3, 2
4, 5
8, 3
12, 9
24, 30
40, 38
44, 43
37, 56
49, 47
35, 41
17, 19
7, 7
3, 7
1, 2
2, 2
2, 2
4, 2
3, 3
0, 3
1, 4
8, 2
2, 5
10, 10
22, 21
41, 46
95, 82
125, 106
139, 155
154, 157
127, 145
94, 106
57, 53
23, 34
16, 15
6, 6
10, 8
3, 11
13, 7
10, 3
5, 5
6, 4
4, 2
1, 4
2, 4
2, 4
2, 2
8, 7
9, 14
12, 19
31, 22
27, 38
37, 43
33, 45
28, 38
21, 24
21, 21
14, 15
9, 14
15, 6
14, 12
29, 24
44, 36
71, 62
128, 108
209, 117
295, 140
419, 197
473, 179
449, 187
428, 165
363, 111
234, 81
166, 81
115, 55
64, 57
41, 43
29, 35
29, 29
27, 29
32, 24
29, 25
26, 33
27, 14
19, 12
15, 9
6, 5
5, 9
6, 2
6, 2
2, 9
5, 2
4, 5
4, 2
7, 5
3, 3
6, 5
4, 4
6, 5
5, 2
2, 5
2, 4
6, 2
12, 6
26, 11
22, 12
41, 40
55, 64
96, 109
127, 140
158, 143
167, 187
179, 170
145, 133
116, 75
70, 67
25, 36
25, 8
18, 8
10, 13
13, 10
9, 17
16, 23
31, 22
28, 28
26, 27
17, 30
20, 13
16, 15
13, 14
10, 16
10, 10
12, 9
7, 10
3, 7
11, 5
11, 4
2, 8
7, 5
7, 9
11, 14
21, 11
15, 13
15, 12
13, 12
13, 19
19, 22
27, 32
23, 42
20, 50
20, 47
29, 47
27, 52
21, 50
13, 37
19, 27
20, 14
16, 14
7, 15
16, 12
11, 5
9, 11
11, 9
17, 20
14, 22
11, 17
14, 20
21, 13
10, 10
16, 8
12, 13
17, 10
7, 15
10, 10
7, 13
11, 6
13, 19
10, 13
14, 17
17, 20
13, 8
14, 14
19, 18
20, 15
22, 14
16, 13
14, 10
4, 15
9, 17
13, 9
9, 12
15, 11
7, 8
12, 13
11, 17
15, 12
9, 14
19, 18
26, 25
38, 44
51, 58
66, 65
94, 92
117, 131
123, 118
125, 104
102, 110
93, 98
83, 66
61, 44
46, 38
32, 32
23, 26
31, 19
22, 31
35, 40
43, 56
101, 120
170, 229
355, 451
622, 817
1081, 1355
1711, 1973
2448, 2783
3232, 3515
3644, 3847
3849, 3774
3718, 3496
3165, 2839
2484, 2161
1692, 1375
1040, 817
654, 459
310, 268
159, 124
76, 67
53, 35
47, 32
37, 29
46, 24
48, 22
50, 19
48, 28
53, 21
52, 31
69, 45
70, 79
114, 113
162, 159
232, 267
297, 350
404, 461
485, 528
560, 556
549, 528
521, 455
434, 377
338, 296
241, 178
140, 121
100, 53
49, 46
20, 17
10, 13
10, 11
7, 6
7, 5
9, 3
11, 11
3, 4
8, 6
4, 2
5, 12
2, 3
11, 4
7, 6
4, 2
5, 4
5, 9
5, 4
3, 7
0, 4
1, 7
5, 6
1, 10
3, 5
5, 4
2, 3
6, 9
6, 2
8, 9
1, 6
4, 6
3, 6
4, 3
8, 5
6, 3
6, 4
2, 4
2, 10
1, 4
4, 6
3, 2
4, 6
4, 5
6, 1
3, 7
4, 3
2, 2
9, 3
4, 5
0, 1
5, 8
6, 6
8, 4
4, 3
3, 6
1, 10
3, 5
9, 5
5, 6
6, 5
6, 7
10, 4
4, 5
5, 10
8, 3
6, 5
2, 5
5, 7
7, 5
7, 5
1, 2
4, 3
7, 4
3, 2
3, 5
6, 5
4, 3
8, 4
4, 7
3, 9
3, 12
7, 8
6, 12
7, 5
6, 9
3, 5
3, 10
5, 6
2, 5
5, 12
6, 5
5, 9
3, 8
4, 7
7, 4
8, 8
3, 3
7, 2
1, 5
3, 10
4, 4
3, 4
5, 0
4, 0
0, 3
4, 5
6, 5
2, 1
3, 7
4, 6
5, 6
5, 5
3, 4
2, 4
2, 5
1, 3
5, 3
3, 3
5, 3
3, 1
3, 3
3, 2
0, 3
3, 5
1, 0
4, 2
4, 6
7, 7
5, 5
3, 2
1, 4
3, 3
5, 3
1, 3
1, 6
1, 4
2, 3
4, 1
2, 3
2, 1
1, 8
1, 1
1, 0
2, 3
3, 3
2, 1
7, 3
6, 4
9, 2
11, 0
8, 5
5, 5
4, 5
3, 3
5, 3
6, 5
6, 1
4, 5
3, 7
1, 0
3, 3
4, 3
2, 3
3, 1
2, 0
2, 3
5, 2
3, 0
3, 3
3, 0
2, 5
2, 4
6, 2
3, 6
4, 3
2, 3
4, 2
2, 2
0, 2
0, 3
0, 3
6, 0
3, 2
3, 2
1, 2
3, 3
3, 4
1, 2
1, 2
5, 5
3, 3
1, 4
0, 2
0, 2
1, 4
0, 2
2, 1
2, 6
6, 2
3, 1
1, 0
3, 2
2, 1
4, 0
3, 1
2, 2
4, 3
3, 1
0, 0
2, 3
6, 1
1, 5
2, 3
4, 1
4, 0
3, 0
1, 1
0, 1
1, 1
1, 2
2, 2
2, 0
1, 1
0, 2
2, 1
5, 1
2, 2
2, 1
3, 2
3, 4
9, 5
3, 5
6, 5
15, 5
3, 4
8, 7
5, 6
6, 6
7, 7
6, 6
5, 0
0, 2
3, 1
2, 2
2, 1
2, 1
1, 0
2, 0
0, 2
0, 3
3, 0
2, 0
0, 0
0, 4
1, 1
2, 2
1, 0
3, 2
0, 7
3, 4
4, 3
4, 3
1, 2
4, 0
4, 4
1, 3
2, 2
1, 1
2, 2
1, 0
3, 0
3, 3
1, 0
2, 1
1, 3
1, 2
1, 1
1, 2
0, 1
0, 0
0, 0
2, 2
2, 1
5, 0
1, 1
1, 0
1, 2
2, 1
1, 0
1, 0
0, 3
0, 3
0, 0
1, 0
0, 0
1, 0
2, 1
0, 2
1, 0
0, 0
1, 0
1, 1
0, 0
0, 1
1, 0
0, 1
0, 1
1, 0
3, 1
1, 0
0, 1
1, 0
0, 2
1, 0
0, 1
1, 0
0, 0
1, 1
0, 0
1, 0
1, 4
1, 0
3, 0
1, 0
0, 0
0, 0
0, 0
2, 1
0, 0
0, 0
0, 1
1, 2
0, 0
0, 0
1, 0
1, 0
1, 1
1, 1
0, 1
0, 1
0, 0
1, 0
1, 0
0, 0
0, 1
0, 0
0, 0
1, 0
0, 1
3, 0
1, 0
0, 1
0, 2
0, 0
0, 0
1, 1
0, 1
0, 2
2, 0
0, 2
0, 0
0, 0
0, 0
0, 1
0, 0
0, 0
1, 1
0, 3
0, 0
0, 2
0, 0
1, 0
1, 0
2, 0
0, 1
0, 1
0, 0
1, 0
1, 1
0, 0
0, 0
0, 0
0, 0
0, 0
0, 0
0, 0
0, 0
0, 0
0, 0
0, 0
0, 0
1, 0
0, 0
0, 0
0, 0
0, 1
0, 0
0, 0
0, 0
0, 0
0, 0
2, 0
0, 0
2, 0
0, 0
0, 0
0, 0
0, 0
0, 0
0, 1
0, 0
1, 0
1, 0
0, 1
0, 0
0, 0
0, 1
0, 0
0, 1
2, 0
0, 0
0, 2
0, 0
0, 0
0, 0
0, 0
0, 0
0, 0
0, 0
0, 1
1, 0
1, 0
0, 0
0, 0
1, 0
0, 0
1, 0
1, 0
0, 0
0, 0
0, 0
0, 0
0, 0
0, 0
0, 1
0, 0
1, 0
0, 0
1, 1
1, 0
0, 0
0, 1
1, 0
0, 0
0, 0
0, 0
0, 0
0, 0
0, 1
0, 0
0, 0
0, 0
0, 1
0, 1
0, 1
2, 1
0, 0
0, 0
0, 0
0, 0
0, 0
0, 0
0, 1
0, 0
0, 0
1, 0
0, 1
0, 0
1, 0
1, 0
0, 1
0, 0
1, 0
2, 0
1, 0
0, 0
0, 0
0, 0
0, 0
0, 0
0, 0
0, 0
1, 0
2, 0
1, 0
0, 0
0, 0
0, 0
0, 0
0, 0
1, 2
0, 0
0, 0
0, 0
0, 0
0, 0
2, 0
0, 0
0, 0
0, 0
1, 0
0, 0
1, 0
0, 0
0, 0
1, 0
0, 0
0, 1
0, 0
0, 0
0, 1
0, 0
0, 1
0, 1
0, 0
0, 1
0, 0
0, 0
0, 0
0, 0
0, 0
0, 0
0, 0
0, 0
0, 0
0, 0
0, 0
0, 1
0, 1
1, 0
0, 0
0, 0
0, 0
1, 0
0, 0
0, 0
0, 1
0, 0
0, 0
0, 0
0, 0
0, 1
0, 0
0, 0
0, 0
0, 0
0, 0
0, 0
0, 0
0, 0
0, 0
0, 0
0, 0
0, 0
0, 0
0, 0
0, 0
0, 0
0, 0
0, 0
0, 0
0, 0
0, 0
0, 0
0, 0
0, 0
0, 0
0, 0
0, 0
0, 0
0, 0
0, 0
0, 0
0, 0
0, 0
1, 0
0, 0
0, 0
0, 0
0, 0
1, 0
0, 0
0, 0
0, 0
0, 0
0, 0
0, 0
0, 0
0, 0
0, 0
0, 0
0, 0
0, 0
0, 0
0, 0
0, 0
1, 0
0, 0
0, 0
0, 0
0, 0
0, 0
0, 0
0, 0
0, 0
0, 0
0, 0
0, 0
0, 0
0, 0
0, 0
0, 0
0, 0
0, 0
0, 0
0, 0
0, 0
0, 0
0, 0
0, 0
0, 0
0, 0
1, 0
0, 1
0, 0
0, 0
0, 0
0, 0
0, 0
0, 0
0, 0
0, 0
0, 0
0, 0
0, 0
0, 0
0, 0
0, 0
0, 0
0, 0
0, 0
0, 0
0, 0
0, 0
0, 0
0, 0
0, 0
0, 0
0, 0
0, 0
0, 1
0, 0
0, 0
0, 0
0, 0
0, 0
0, 0
0, 0
0, 0
0, 0
0, 0
0, 0
0, 0
0, 0
0, 0
0, 0
0, 0
0, 0
0, 0
0, 0
0, 0
0, 1
0, 0
0, 0
0, 0
0, 0
0, 0
0, 0
0, 0
0, 0
0, 0
0, 1
0, 0
0, 0
0, 0
0, 0
0, 0
0, 0
0, 0
0, 0
0, 0
0, 0
0, 0
0, 0
0, 0
0, 0
0, 0
0, 0
0, 0
0, 0
0, 0
0, 0
0, 0
0, 0
0, 0
0, 1
0, 0
0, 0
0, 0
0, 0
0, 0
0, 0
0, 0
0, 0
0, 0
0, 0
0, 0
0, 0
0, 0
0, 0
0, 0
0, 0
0, 0
0, 0
0, 0
0, 0
0, 0
0, 0
0, 0
0, 0
0, 0
0, 0
0, 0
0, 0
0, 0
0, 0
0, 0
0, 0
0, 0
0, 0
0, 0
0, 0
0, 0
0, 0
0, 0
0, 0
0, 0
0, 0
0, 0
0, 0
0, 0
0, 0
0, 0
0, 0
0, 0
0, 0
0, 0
0, 0
0, 0
0, 0
0, 0
0, 0
0, 0
0, 0
0, 0
0, 0
0, 0
0, 0
0, 0
0, 0
0, 0
0, 0
0, 0
0, 0
0, 0
0, 0
0, 0
0, 0
0, 0
0, 0
0, 0
0, 0
0, 0
0, 0
0, 0
0, 0
0, 0
0, 0
0, 0
0, 0
0, 0
0, 0
0, 0
0, 0
0, 0
0, 0
0, 0
0, 0
0, 0
0, 0
0, 0
0, 0
0, 0
0, 0
0, 0
0, 0
0, 0
0, 0
0, 0
0, 0
0, 0
0, 0
0, 0
0, 0
0, 0
0, 0
0, 0
0, 0
0, 0
0, 0
0, 0
0, 0
0, 0
0, 0
0, 0
0, 0
0, 0
0, 0
0, 0
0, 0
0, 0
0, 0
0, 0
0, 0
0, 0
0, 0
0, 0
0, 0
0, 0
0, 0
0, 0
0, 0
0, 0
0, 0
0, 0
0, 0
0, 0
0, 0
0, 0
0, 0
0, 0
0, 0
0, 0
0, 0
0, 0
0, 0
0, 0
0, 0
0, 0
0, 0
0, 0
0, 0
0, 0
0, 0
0, 0
0, 0
0, 0
0, 0
0, 0
0, 0
0, 0
0, 0
0, 0
0, 0
0, 0
0, 0
0, 0
0, 0
0, 0
0, 0
0, 0
0, 0
0, 0
0, 0
0, 0
0, 0
0, 0
0, 0
0, 0
0, 0
0, 0
0, 0
0, 0
0, 0
0, 0
0, 0
0, 0
0, 0
0, 0
0, 0
0, 0
0, 0
0, 0
0, 0
0, 0
0, 0
0, 0
0, 0
0, 0
0, 0
0, 0
0, 0
0, 0
0, 0
0, 0
0, 0
0, 0
0, 0
0, 0
0, 0
0, 0
0, 0
0, 0
0, 0
0, 0
0, 0
0, 0
0, 0
0, 0
0, 0
0, 0
0, 0
0, 0
0, 0
0, 0
0, 0
0, 0
0, 0
0, 0
0, 0
0, 0
0, 0
0, 0
0, 0
0, 0
0, 0
0, 0
0, 0
0, 0
0, 0
0, 0
0, 0
0, 0
0, 0
0, 0
0, 0
0, 0
0, 0
0, 0
0, 0
0, 0
0, 0
0, 0
0, 0
0, 0
0, 0
0, 0
0, 0
0, 0
0, 0
0, 0
0, 0
0, 0
0, 0
0, 0
0, 0
0, 0
0, 0
0, 0
0, 0
0, 0
0, 0
0, 0
0, 0
0, 0
0, 0
0, 0
0, 0
0, 0
0, 0
0, 0
0, 0
0, 0
0, 0
0, 0
0, 0
0, 0
0, 0
0, 0
0, 0
0, 0
0, 0
0, 0
0, 0
0, 0
0, 0
0, 0
0, 0
0, 0
0, 0
0, 0
0, 0
0, 0
0, 0
0, 0
0, 0
0, 0
0, 0
0, 0
0, 0
0, 0
0, 0
0, 0
0, 0
0, 0
0, 0
0, 0
0, 0
0, 0
0, 0
0, 0
0, 0
0, 0
0, 0
0, 0
0, 0
0, 0
0, 0
0, 0
0, 0
0, 0
0, 0
0, 0
0, 0
0, 0
0, 0
0, 0
0, 0
#ENDOFDATA     end of spectrum data