File: host_upload/12-01-2023/Dourbes (shot-by-shot)/upload_4/ps__0257_0689790785_000rfs_shot_3164.msa
#FORMAT      : EMSA/MAS spectral data file
#VERSION     : TC202v2.0 PIXL
#TITLE       : N/A
#DATE        :       Date in the format DD-MMM-YYYY, for example 07-JUL-2010
#TIME        :             The time of day at which the spectrum was recorded, in 24-hour format
#OWNER       : PIXL Flight Model       (PIXL will use this to indicate which instrument took the data.)
#NPOINTS     : 4096     Number of data points in the spectrum (This can be zero for configuration only files)
#NCOLUMNS    : 2     Number of data columns in the spectrum (This can be zero for configuration only files)
#XUNITS      : eV
#YUNITS      : COUNTS
#DATATYPE    : YY
#XPERCHAN    : 7.862, 7.881   eV per channel (separate by commas if more than one detector)
#OFFSET      : 18.5, -22.4         eV of first channel  (separate by commas if more than one detector
#SIGNALTYPE  : XRF
#YP_TEMP     : 2.973
#LIVETIME    : 9.06887, 9.01818   seconds (separate by commas if more than one detector)
#REALTIME    : 10, 10.0   seconds (separate by commas if more than one detector)
#SPECTRUM    : start of spectrum data
0, 0
0, 0
0, 0
0, 0
0, 0
0, 0
0, 0
0, 0
0, 0
0, 0
0, 0
0, 0
0, 0
0, 0
0, 0
0, 0
0, 0
0, 0
0, 0
0, 0
0, 0
0, 0
0, 0
0, 0
0, 0
0, 0
0, 0
0, 0
0, 0
0, 0
0, 0
0, 0
0, 0
0, 1
1, 0
0, 0
0, 3
1, 1
1, 1
0, 0
0, 3
1, 3
3, 2
1, 3
3, 2
1, 4
1, 1
2, 3
1, 2
4, 4
5, 8
5, 12
18, 26
13, 29
35, 25
17, 25
18, 24
14, 13
8, 8
9, 5
12, 17
19, 23
22, 49
29, 59
31, 47
28, 43
19, 41
16, 34
15, 26
24, 47
69, 84
134, 172
223, 267
307, 442
376, 528
396, 516
362, 409
220, 317
166, 190
80, 108
41, 53
32, 17
9, 13
7, 6
5, 5
2, 2
2, 3
1, 3
3, 4
1, 3
1, 1
2, 3
4, 2
4, 1
3, 3
0, 4
7, 4
2, 6
6, 6
9, 8
4, 10
3, 16
7, 8
4, 6
2, 9
5, 13
5, 12
7, 14
20, 28
27, 28
27, 32
26, 48
51, 58
54, 65
58, 65
56, 91
67, 53
52, 54
40, 45
44, 47
43, 37
27, 35
32, 37
22, 22
18, 23
24, 21
14, 11
16, 11
6, 11
5, 10
5, 6
6, 8
4, 6
2, 4
3, 7
8, 12
4, 16
9, 22
13, 38
21, 56
17, 58
26, 67
30, 62
23, 65
23, 45
10, 23
5, 10
5, 8
7, 7
5, 8
8, 10
16, 23
14, 23
19, 42
20, 29
20, 61
29, 48
35, 50
26, 74
19, 49
15, 41
13, 30
7, 26
11, 28
9, 32
4, 25
10, 25
6, 20
7, 19
5, 14
7, 13
16, 19
11, 6
7, 11
6, 6
7, 9
7, 7
8, 6
9, 7
7, 6
10, 11
5, 7
5, 9
9, 9
10, 32
27, 37
45, 83
78, 167
107, 279
216, 377
248, 509
286, 566
306, 634
286, 578
233, 454
199, 294
116, 198
68, 114
38, 73
32, 48
27, 25
9, 14
10, 18
26, 23
15, 18
19, 32
23, 54
47, 84
44, 98
53, 111
61, 126
58, 99
56, 88
47, 55
25, 43
23, 32
17, 22
6, 12
11, 19
14, 9
7, 18
9, 15
18, 29
20, 41
34, 73
47, 126
116, 211
162, 269
198, 381
204, 444
271, 416
239, 435
223, 384
169, 287
137, 178
85, 116
58, 72
33, 49
29, 37
32, 24
28, 18
30, 11
34, 22
27, 24
42, 29
33, 38
41, 50
63, 53
62, 88
67, 106
76, 124
97, 117
84, 145
111, 110
82, 112
77, 61
43, 51
41, 44
33, 39
18, 27
20, 21
28, 32
34, 54
46, 98
124, 203
244, 331
398, 666
721, 1013
1125, 1611
1534, 2200
2016, 2692
2325, 2998
2425, 3049
2279, 2844
1975, 2198
1456, 1632
1052, 1092
699, 698
397, 374
193, 188
105, 103
62, 43
22, 36
27, 17
16, 24
18, 14
20, 14
19, 18
18, 22
17, 30
29, 24
36, 37
43, 60
63, 90
97, 136
117, 220
204, 259
233, 355
337, 426
341, 427
373, 425
317, 389
274, 337
222, 219
147, 162
103, 118
49, 65
32, 21
23, 14
14, 8
6, 7
5, 7
7, 6
4, 5
3, 4
6, 12
8, 5
3, 12
11, 11
4, 5
7, 12
2, 5
3, 8
5, 9
6, 5
6, 2
8, 4
3, 4
3, 9
6, 8
1, 5
4, 3
6, 2
5, 5
2, 6
1, 6
3, 1
3, 5
2, 5
5, 10
5, 8
6, 5
5, 5
2, 3
3, 6
2, 8
1, 8
4, 6
4, 10
7, 10
10, 3
6, 8
6, 9
4, 6
7, 6
6, 3
5, 3
3, 5
7, 5
3, 6
2, 6
1, 5
4, 9
5, 5
0, 6
4, 4
1, 3
5, 4
4, 5
2, 2
1, 4
5, 2
3, 4
4, 4
7, 2
6, 8
2, 6
6, 5
1, 4
2, 5
0, 3
3, 3
2, 2
5, 4
3, 9
2, 8
2, 1
1, 9
1, 6
0, 4
2, 9
7, 5
3, 6
3, 5
3, 8
3, 6
1, 4
2, 2
3, 5
3, 5
4, 3
2, 2
0, 3
1, 4
2, 1
4, 6
4, 8
1, 6
0, 3
5, 4
0, 4
3, 2
2, 2
5, 3
4, 1
1, 4
2, 1
2, 4
1, 5
2, 5
1, 3
3, 5
3, 3
1, 3
2, 3
3, 4
0, 4
3, 2
3, 5
2, 4
3, 6
1, 0
2, 3
5, 3
1, 7
3, 3
2, 1
4, 2
4, 4
2, 6
1, 3
1, 4
3, 1
2, 2
2, 3
4, 2
1, 0
2, 3
4, 2
0, 5
4, 1
1, 3
5, 6
2, 1
6, 9
3, 4
3, 3
2, 1
4, 4
1, 4
3, 5
1, 6
5, 7
1, 10
4, 4
3, 2
1, 6
1, 3
7, 1
6, 2
2, 3
4, 5
2, 2
2, 0
3, 2
4, 3
4, 2
2, 1
5, 5
4, 2
1, 4
4, 3
2, 2
3, 3
1, 5
4, 5
3, 2
1, 1
2, 2
3, 1
0, 3
1, 2
2, 0
0, 1
4, 1
3, 2
2, 3
2, 3
2, 6
1, 4
1, 0
0, 3
0, 4
1, 3
0, 5
2, 2
1, 3
1, 5
1, 3
2, 0
0, 1
0, 2
1, 0
2, 1
1, 2
3, 2
2, 1
0, 2
1, 1
2, 6
0, 2
1, 0
0, 1
1, 0
4, 2
2, 3
0, 2
1, 2
0, 1
1, 0
3, 4
3, 2
0, 2
2, 1
2, 1
1, 2
3, 1
1, 6
3, 6
6, 1
3, 5
4, 5
2, 6
1, 4
3, 2
1, 3
1, 5
3, 5
2, 3
0, 3
0, 4
2, 1
1, 2
0, 1
1, 3
0, 1
2, 2
1, 1
0, 2
2, 3
0, 0
1, 2
1, 3
0, 1
1, 2
2, 1
2, 2
2, 3
3, 1
1, 0
0, 1
2, 2
2, 0
2, 2
1, 0
3, 1
3, 0
0, 1
1, 2
1, 1
0, 2
1, 1
1, 0
1, 2
0, 0
0, 1
0, 1
2, 0
0, 0
2, 1
0, 0
0, 1
0, 1
1, 2
3, 1
1, 0
0, 0
1, 2
1, 0
1, 3
1, 2
2, 1
2, 0
0, 0
0, 0
0, 1
1, 1
1, 0
0, 1
0, 1
2, 0
1, 0
1, 0
0, 0
0, 1
1, 0
1, 1
3, 0
0, 2
0, 1
1, 2
0, 1
0, 1
0, 0
0, 0
0, 0
0, 1
1, 2
0, 0
0, 0
0, 1
1, 0
0, 2
1, 1
0, 0
1, 2
0, 0
0, 0
0, 0
1, 0
0, 0
1, 0
0, 0
0, 2
0, 0
0, 1
1, 0
0, 1
0, 0
0, 1
2, 2
0, 0
1, 0
0, 1
1, 0
0, 1
0, 0
0, 0
0, 0
1, 2
1, 2
2, 0
0, 0
0, 0
1, 1
0, 0
0, 2
0, 0
0, 0
1, 0
0, 0
0, 0
1, 0
2, 0
0, 0
1, 1
0, 0
0, 2
0, 0
1, 0
0, 0
0, 0
1, 0
1, 0
1, 1
0, 1
1, 0
0, 0
0, 0
2, 0
0, 0
2, 0
1, 0
0, 0
0, 0
1, 0
0, 0
1, 0
1, 0
0, 0
0, 0
0, 0
0, 0
1, 0
0, 0
0, 0
0, 0
0, 0
2, 0
1, 0
0, 0
0, 0
0, 0
1, 1
1, 0
0, 1
0, 0
0, 0
0, 0
0, 0
2, 0
0, 0
1, 0
0, 0
0, 1
0, 0
0, 0
0, 0
0, 0
0, 0
0, 0
0, 0
0, 0
1, 0
0, 0
0, 0
0, 0
0, 0
0, 0
0, 0
0, 0
0, 0
0, 0
0, 0
1, 0
0, 0
0, 1
0, 1
1, 0
0, 0
0, 0
0, 0
0, 1
0, 0
0, 0
0, 0
0, 1
0, 0
0, 0
1, 0
0, 0
0, 1
0, 0
0, 0
0, 0
0, 0
1, 0
1, 0
0, 0
0, 0
0, 1
0, 0
0, 0
0, 0
1, 0
1, 0
0, 0
0, 0
1, 0
0, 1
0, 0
0, 1
0, 1
0, 2
0, 1
0, 2
0, 0
0, 0
0, 0
0, 0
1, 0
1, 0
0, 0
0, 0
0, 0
0, 1
0, 0
1, 0
0, 0
0, 0
1, 0
0, 0
0, 0
2, 0
0, 0
0, 0
1, 1
0, 1
0, 2
0, 0
1, 0
0, 0
0, 0
0, 0
0, 0
0, 0
0, 0
0, 0
1, 0
0, 0
0, 0
0, 0
0, 0
0, 1
0, 1
0, 0
0, 0
0, 0
0, 0
0, 0
1, 0
0, 0
0, 0
0, 0
0, 0
0, 1
0, 0
0, 1
0, 0
0, 0
1, 0
0, 0
1, 0
0, 0
0, 1
0, 0
0, 0
0, 0
0, 1
0, 0
1, 0
0, 0
0, 1
0, 0
0, 0
0, 0
0, 1
0, 0
1, 0
0, 0
0, 0
0, 0
0, 0
0, 0
0, 0
0, 0
0, 0
0, 0
0, 0
0, 1
0, 0
0, 0
0, 0
0, 0
0, 0
0, 0
0, 0
0, 0
0, 0
0, 0
0, 0
0, 0
0, 0
0, 0
0, 0
0, 0
0, 0
0, 0
0, 0
0, 0
0, 0
0, 0
0, 0
0, 0
0, 0
0, 0
0, 0
0, 0
0, 0
1, 0
0, 0
0, 0
0, 0
0, 0
0, 0
0, 0
0, 0
0, 0
0, 0
0, 0
0, 0
0, 0
0, 0
0, 0
0, 0
0, 0
0, 0
0, 1
0, 0
0, 0
0, 1
0, 0
0, 1
0, 0
0, 0
0, 0
0, 0
0, 0
0, 0
0, 0
0, 0
0, 0
0, 0
0, 0
0, 0
0, 0
0, 0
0, 0
0, 0
0, 0
0, 0
0, 0
0, 0
0, 0
0, 0
0, 1
0, 0
0, 0
0, 0
0, 0
0, 0
0, 0
0, 0
0, 0
0, 0
0, 0
0, 0
0, 0
0, 0
0, 0
0, 0
0, 0
0, 0
0, 0
0, 0
0, 0
0, 0
0, 0
0, 0
0, 0
0, 0
0, 0
0, 0
0, 0
0, 0
0, 0
0, 0
0, 0
0, 0
0, 0
0, 0
0, 0
0, 0
0, 0
0, 0
0, 0
0, 0
1, 0
0, 0
1, 0
0, 0
0, 0
0, 0
0, 0
0, 0
0, 0
0, 0
0, 0
0, 0
0, 0
0, 0
0, 0
0, 0
0, 0
0, 0
0, 0
0, 0
0, 0
0, 0
0, 0
0, 0
0, 0
0, 0
0, 0
0, 0
0, 0
0, 0
0, 0
0, 0
0, 0
0, 0
0, 0
0, 0
0, 0
0, 0
0, 0
0, 0
0, 0
0, 0
0, 0
0, 0
0, 0
0, 0
0, 0
0, 0
0, 0
0, 0
0, 0
0, 0
0, 0
0, 0
0, 0
0, 0
0, 0
0, 0
0, 0
0, 0
0, 0
0, 0
0, 0
0, 0
0, 0
0, 0
0, 0
0, 0
0, 0
0, 0
0, 0
0, 0
0, 0
0, 0
0, 0
0, 0
0, 0
0, 0
0, 0
0, 0
0, 0
0, 0
0, 0
0, 0
0, 0
0, 0
0, 0
0, 0
0, 0
0, 0
0, 0
0, 0
0, 0
0, 0
0, 0
0, 0
0, 0
0, 0
0, 0
0, 0
0, 0
0, 0
0, 0
0, 0
0, 0
0, 0
0, 0
0, 0
0, 0
0, 0
0, 0
0, 0
0, 0
0, 0
0, 0
0, 0
0, 0
0, 0
0, 0
0, 0
0, 0
0, 0
0, 0
0, 0
0, 0
0, 0
0, 0
0, 0
0, 0
0, 0
0, 0
0, 0
0, 0
0, 0
0, 0
0, 0
0, 0
0, 0
0, 0
0, 0
0, 0
0, 0
0, 0
0, 0
0, 0
0, 0
0, 0
0, 0
0, 0
0, 0
0, 0
0, 0
0, 0
0, 0
0, 0
0, 0
0, 0
0, 0
0, 0
0, 0
0, 0
0, 0
0, 0
0, 0
0, 0
0, 0
0, 0
0, 0
0, 0
0, 0
0, 0
0, 0
0, 0
0, 0
0, 0
0, 0
0, 0
0, 0
0, 0
0, 0
0, 0
0, 0
0, 0
0, 0
0, 0
0, 0
0, 0
0, 0
0, 0
0, 0
0, 0
0, 0
0, 0
0, 0
0, 0
0, 0
0, 0
0, 0
0, 0
0, 0
0, 0
0, 0
0, 0
0, 0
0, 0
0, 0
0, 0
0, 0
0, 0
0, 0
0, 0
0, 0
0, 0
0, 0
0, 0
0, 0
0, 0
0, 0
0, 0
0, 0
0, 0
0, 0
0, 0
0, 0
0, 0
0, 0
0, 0
0, 0
0, 0
0, 0
0, 0
0, 0
0, 0
0, 0
0, 0
0, 0
0, 0
0, 0
0, 0
0, 0
0, 0
0, 0
0, 0
0, 0
0, 0
0, 0
0, 0
0, 0
0, 0
0, 0
0, 0
0, 0
0, 0
0, 0
0, 0
0, 0
0, 0
0, 0
0, 0
0, 0
0, 0
0, 0
0, 0
0, 0
0, 0
0, 0
0, 0
0, 0
0, 0
0, 0
0, 0
0, 0
0, 0
0, 0
0, 0
0, 0
0, 0
0, 0
0, 0
0, 0
0, 0
0, 0
0, 0
0, 0
0, 0
0, 0
0, 0
0, 0
0, 0
0, 0
0, 0
0, 0
0, 0
0, 0
0, 0
0, 0
0, 0
0, 0
0, 0
0, 0
0, 0
0, 0
0, 0
0, 0
0, 0
0, 0
0, 0
0, 0
0, 0
0, 0
0, 0
0, 0
0, 0
0, 0
0, 0
0, 0
0, 0
0, 0
0, 0
0, 0
0, 0
0, 0
0, 0
0, 0
0, 0
0, 0
0, 0
0, 0
0, 0
0, 0
0, 0
0, 0
0, 0
0, 0
0, 0
0, 0
0, 0
0, 0
0, 0
0, 0
0, 0
0, 0
0, 0
0, 0
0, 0
0, 0
0, 0
0, 0
0, 0
0, 0
0, 0
0, 0
0, 0
0, 0
0, 0
0, 0
0, 0
0, 0
0, 0
0, 0
0, 0
0, 0
0, 0
0, 0
0, 0
0, 0
0, 0
0, 0
0, 0
0, 0
0, 0
0, 0
0, 0
0, 0
0, 0
0, 0
0, 0
0, 0
0, 0
#ENDOFDATA     end of spectrum data