File: host_upload/12-01-2023/Dourbes (shot-by-shot)/upload_4/ps__0257_0689790785_000rfs_shot_3008.msa
#FORMAT      : EMSA/MAS spectral data file
#VERSION     : TC202v2.0 PIXL
#TITLE       : N/A
#DATE        :       Date in the format DD-MMM-YYYY, for example 07-JUL-2010
#TIME        :             The time of day at which the spectrum was recorded, in 24-hour format
#OWNER       : PIXL Flight Model       (PIXL will use this to indicate which instrument took the data.)
#NPOINTS     : 4096     Number of data points in the spectrum (This can be zero for configuration only files)
#NCOLUMNS    : 2     Number of data columns in the spectrum (This can be zero for configuration only files)
#XUNITS      : eV
#YUNITS      : COUNTS
#DATATYPE    : YY
#XPERCHAN    : 7.862, 7.881   eV per channel (separate by commas if more than one detector)
#OFFSET      : 18.5, -22.4         eV of first channel  (separate by commas if more than one detector
#SIGNALTYPE  : XRF
#YP_TEMP     : 2.973
#LIVETIME    : 8.97723, 8.98521   seconds (separate by commas if more than one detector)
#REALTIME    : 10, 10.0   seconds (separate by commas if more than one detector)
#SPECTRUM    : start of spectrum data
0, 0
0, 0
0, 0
0, 0
0, 0
0, 0
0, 0
0, 0
0, 0
0, 0
0, 0
0, 0
0, 0
0, 0
0, 0
0, 0
0, 0
0, 0
0, 0
0, 0
0, 0
0, 0
0, 0
0, 0
0, 0
0, 0
0, 0
0, 0
0, 0
0, 0
0, 0
0, 0
1, 0
0, 0
2, 1
1, 0
3, 2
2, 1
10, 2
8, 1
11, 5
11, 4
12, 3
12, 4
9, 3
4, 1
6, 4
5, 3
2, 0
8, 9
10, 10
16, 22
34, 23
37, 29
54, 48
38, 43
23, 32
19, 22
13, 19
6, 5
2, 6
5, 5
5, 4
4, 5
2, 3
5, 6
9, 6
6, 5
12, 16
26, 26
50, 60
110, 121
202, 224
311, 319
356, 350
329, 416
322, 314
254, 240
153, 139
93, 90
49, 40
20, 13
11, 11
7, 8
4, 5
7, 4
6, 5
0, 0
3, 5
1, 3
4, 6
8, 5
8, 11
32, 37
60, 49
93, 99
154, 189
223, 225
239, 278
271, 267
251, 242
196, 180
146, 116
81, 69
47, 39
31, 32
31, 32
37, 35
53, 37
88, 71
193, 85
323, 120
471, 140
658, 178
808, 223
864, 199
831, 188
628, 152
421, 85
273, 82
171, 69
98, 63
50, 33
42, 34
38, 24
26, 34
29, 29
21, 24
22, 16
17, 16
18, 10
14, 6
5, 7
4, 5
7, 8
6, 8
7, 2
3, 7
3, 12
7, 11
9, 11
7, 8
8, 8
5, 9
3, 2
5, 6
1, 2
7, 4
7, 1
5, 5
6, 11
9, 12
21, 25
30, 39
54, 41
69, 71
79, 97
76, 85
92, 76
67, 57
53, 43
36, 31
22, 17
11, 14
9, 6
6, 5
5, 7
13, 12
10, 8
11, 4
20, 12
15, 19
23, 17
23, 18
12, 9
12, 5
11, 7
8, 5
8, 7
3, 7
6, 12
10, 6
9, 6
6, 7
8, 6
7, 10
8, 14
4, 7
14, 17
10, 12
19, 13
14, 22
15, 31
22, 34
21, 47
23, 67
25, 59
16, 61
24, 61
22, 65
25, 38
20, 34
20, 28
15, 15
16, 12
6, 10
12, 11
13, 14
17, 11
9, 17
10, 9
21, 14
11, 9
13, 7
11, 13
15, 9
11, 5
11, 8
15, 7
11, 15
9, 15
13, 8
18, 9
18, 10
14, 14
16, 14
13, 18
21, 12
15, 16
24, 14
23, 14
12, 14
15, 14
14, 20
7, 14
12, 10
10, 19
16, 8
8, 15
8, 10
9, 11
15, 16
18, 16
16, 16
12, 30
24, 37
51, 46
67, 82
82, 109
126, 128
119, 119
111, 133
112, 107
91, 84
66, 75
60, 55
40, 45
37, 43
16, 22
24, 27
17, 33
28, 37
58, 59
86, 117
169, 206
287, 429
578, 756
967, 1296
1561, 1992
2218, 2768
2964, 3352
3350, 3701
3472, 3758
3364, 3500
2927, 2817
2282, 2147
1674, 1452
1087, 846
634, 495
326, 269
192, 160
98, 51
64, 35
38, 27
47, 10
69, 24
44, 17
46, 21
50, 26
49, 22
46, 29
66, 48
66, 56
107, 105
138, 161
211, 232
292, 333
321, 473
462, 487
552, 563
504, 546
465, 469
399, 349
316, 303
218, 184
141, 112
92, 61
60, 42
31, 18
15, 6
9, 7
4, 8
5, 9
4, 7
8, 7
10, 8
7, 9
10, 14
5, 13
8, 15
5, 11
6, 1
5, 5
9, 5
7, 3
5, 5
3, 7
5, 7
2, 3
5, 10
3, 8
6, 13
6, 11
2, 12
3, 10
4, 12
4, 7
4, 5
3, 5
3, 4
2, 4
5, 3
2, 7
4, 11
5, 8
5, 5
3, 4
3, 3
5, 6
8, 4
7, 5
2, 4
2, 3
4, 5
5, 2
4, 5
4, 3
6, 2
3, 4
5, 4
6, 4
5, 3
4, 5
2, 4
5, 3
10, 4
4, 5
3, 5
5, 6
5, 5
6, 4
5, 4
6, 2
6, 6
3, 1
6, 3
2, 5
2, 2
1, 5
4, 3
5, 3
4, 3
6, 7
4, 5
3, 6
5, 5
2, 1
6, 1
7, 8
3, 10
2, 6
5, 10
1, 14
8, 10
11, 14
4, 20
1, 6
8, 14
10, 14
1, 7
7, 9
2, 15
4, 4
7, 2
1, 4
5, 3
4, 4
6, 1
2, 1
4, 0
1, 6
4, 4
0, 3
7, 5
3, 0
4, 2
2, 3
4, 1
2, 2
2, 0
1, 2
7, 3
3, 2
3, 3
2, 1
2, 1
2, 3
1, 1
3, 3
1, 4
1, 0
4, 1
5, 7
5, 2
1, 1
1, 1
3, 3
1, 4
1, 3
2, 3
3, 1
2, 3
3, 5
1, 2
5, 0
3, 1
2, 2
3, 6
3, 4
3, 4
2, 2
1, 2
3, 3
4, 1
12, 4
7, 1
7, 4
12, 1
9, 0
8, 4
6, 1
3, 4
8, 2
10, 3
6, 3
4, 2
5, 0
3, 0
3, 1
5, 4
2, 2
3, 2
1, 0
0, 0
2, 2
1, 2
3, 5
2, 0
1, 3
0, 4
1, 0
2, 2
0, 2
0, 3
0, 1
1, 1
2, 1
0, 1
0, 0
1, 3
2, 0
2, 1
1, 1
2, 2
3, 2
1, 2
1, 4
1, 0
1, 4
2, 3
0, 4
0, 0
1, 1
2, 4
0, 5
1, 1
1, 1
0, 2
5, 6
2, 1
4, 1
3, 1
2, 1
1, 1
1, 3
5, 1
2, 0
0, 4
2, 2
1, 1
1, 2
1, 3
2, 3
3, 1
1, 0
1, 0
3, 2
0, 1
2, 3
0, 2
0, 1
1, 0
1, 2
2, 4
2, 4
3, 4
0, 5
1, 9
5, 4
1, 6
7, 2
1, 5
6, 7
6, 6
2, 5
4, 12
5, 2
3, 3
1, 4
3, 0
1, 2
3, 4
3, 4
1, 2
2, 1
0, 3
0, 3
2, 0
1, 1
0, 1
1, 0
4, 3
1, 0
1, 0
2, 0
3, 1
1, 6
0, 2
3, 1
2, 2
4, 3
4, 3
6, 5
4, 1
5, 3
3, 2
1, 0
3, 1
1, 0
1, 1
0, 0
1, 0
1, 1
0, 1
4, 0
0, 0
0, 1
1, 0
1, 2
0, 0
1, 3
1, 0
1, 0
2, 1
1, 0
0, 2
2, 0
1, 0
1, 1
1, 1
2, 1
0, 1
1, 2
1, 1
0, 0
0, 1
0, 3
1, 1
0, 1
0, 0
0, 0
1, 1
0, 2
2, 1
1, 0
1, 0
0, 2
0, 2
1, 0
1, 0
0, 0
2, 0
0, 1
2, 0
2, 0
2, 1
0, 0
0, 1
1, 0
2, 1
2, 1
2, 0
0, 0
1, 0
1, 0
1, 0
1, 0
1, 1
1, 0
3, 0
0, 0
0, 0
1, 1
2, 0
0, 0
0, 0
1, 0
1, 2
0, 0
0, 1
0, 0
1, 0
0, 1
1, 0
0, 0
0, 0
1, 2
0, 1
0, 0
1, 1
0, 0
0, 0
0, 2
1, 0
0, 2
0, 1
2, 1
0, 0
0, 0
0, 0
0, 0
0, 1
0, 0
2, 0
1, 1
0, 2
2, 3
0, 0
0, 0
2, 0
1, 0
0, 0
0, 0
0, 0
1, 0
0, 0
1, 0
0, 0
0, 0
0, 0
1, 1
0, 0
0, 1
1, 1
2, 0
0, 1
0, 0
0, 0
0, 0
0, 0
0, 0
2, 0
1, 0
0, 1
0, 0
2, 1
0, 1
0, 1
0, 0
0, 0
1, 0
0, 0
0, 0
0, 0
0, 0
0, 0
1, 1
0, 1
0, 1
0, 1
0, 0
0, 0
0, 0
0, 0
1, 0
0, 0
1, 0
0, 0
0, 0
0, 0
0, 2
1, 0
0, 0
0, 0
0, 0
0, 0
0, 1
2, 0
1, 0
0, 0
0, 0
0, 0
0, 0
0, 0
0, 1
0, 0
1, 1
0, 0
0, 0
0, 0
0, 1
0, 0
0, 0
0, 0
0, 0
0, 0
0, 1
0, 1
0, 0
1, 0
0, 0
0, 1
0, 1
0, 0
0, 0
0, 0
0, 0
1, 1
0, 0
0, 0
0, 0
2, 0
1, 0
0, 0
0, 0
0, 0
0, 1
0, 0
0, 0
0, 1
0, 1
1, 0
0, 0
0, 0
0, 0
1, 1
0, 1
0, 0
0, 0
0, 0
1, 0
0, 0
0, 0
0, 0
0, 0
0, 0
1, 1
1, 0
0, 0
0, 0
0, 0
1, 0
1, 0
0, 0
0, 0
0, 0
0, 0
1, 0
1, 0
0, 1
0, 0
0, 0
0, 0
0, 0
0, 1
0, 0
0, 0
0, 0
1, 0
0, 0
1, 0
0, 0
0, 0
0, 0
0, 0
0, 0
0, 0
1, 0
0, 0
0, 0
0, 1
0, 1
0, 0
0, 0
0, 0
0, 0
0, 0
1, 1
0, 0
0, 0
0, 0
0, 0
0, 0
1, 1
0, 0
0, 0
0, 0
0, 0
0, 0
0, 0
1, 0
0, 0
0, 0
0, 0
1, 0
0, 0
1, 0
0, 0
0, 1
0, 0
0, 0
0, 0
0, 0
0, 0
0, 0
0, 0
0, 0
0, 0
0, 0
0, 0
1, 0
0, 0
0, 0
1, 0
0, 0
0, 0
0, 0
0, 0
0, 0
0, 0
0, 0
0, 0
0, 0
0, 0
1, 0
0, 0
0, 0
0, 0
0, 0
0, 0
0, 0
0, 0
0, 0
0, 0
0, 0
0, 0
0, 0
0, 0
0, 0
0, 0
0, 0
0, 0
0, 0
1, 0
0, 0
0, 0
0, 0
0, 0
0, 0
0, 0
0, 0
0, 0
0, 0
0, 0
0, 0
0, 0
0, 0
0, 0
0, 0
0, 0
0, 0
0, 0
0, 0
0, 0
0, 0
0, 0
0, 0
0, 0
0, 0
0, 0
0, 0
0, 0
0, 0
0, 0
0, 0
0, 0
0, 0
0, 0
0, 0
0, 0
0, 0
0, 0
0, 1
0, 0
0, 0
0, 0
0, 0
0, 0
0, 0
0, 0
0, 0
0, 0
0, 0
0, 0
0, 0
0, 0
0, 0
0, 0
0, 0
0, 0
0, 0
0, 0
0, 1
0, 0
0, 0
0, 0
0, 0
0, 1
0, 0
0, 0
0, 0
0, 0
0, 0
0, 0
0, 0
0, 0
0, 0
0, 0
0, 0
0, 0
0, 0
0, 0
0, 0
0, 0
0, 0
0, 0
0, 0
0, 0
0, 0
0, 0
0, 0
0, 0
0, 0
0, 0
0, 0
0, 0
0, 0
0, 0
0, 0
0, 0
0, 0
0, 0
0, 0
0, 0
0, 0
0, 0
0, 0
0, 0
1, 0
0, 0
0, 0
0, 0
0, 0
0, 0
0, 0
0, 0
0, 0
0, 0
0, 0
0, 0
0, 0
0, 0
0, 0
0, 0
0, 0
0, 0
0, 0
0, 0
0, 0
0, 0
0, 0
0, 0
1, 0
0, 0
0, 0
0, 0
0, 0
0, 0
0, 0
0, 0
0, 0
0, 0
0, 0
0, 0
0, 0
0, 0
0, 0
0, 0
0, 0
0, 0
0, 0
0, 1
0, 0
0, 0
0, 0
0, 0
0, 0
0, 0
0, 0
0, 0
0, 0
0, 0
0, 0
0, 0
0, 0
0, 0
0, 0
0, 0
0, 0
0, 0
0, 0
0, 0
0, 0
0, 0
0, 0
0, 0
0, 0
0, 0
0, 0
0, 0
0, 0
0, 0
0, 0
0, 0
0, 0
0, 0
0, 0
0, 0
0, 0
0, 0
0, 0
0, 0
0, 0
0, 0
0, 0
0, 0
0, 0
0, 0
0, 0
0, 0
0, 0
0, 0
0, 0
0, 0
0, 0
0, 0
0, 0
0, 0
0, 0
0, 0
0, 0
0, 0
0, 0
0, 0
0, 0
0, 0
0, 0
0, 0
0, 0
0, 0
0, 0
0, 0
0, 0
0, 0
0, 0
0, 0
0, 0
0, 0
0, 0
0, 0
0, 0
0, 0
0, 0
0, 0
0, 0
0, 0
0, 0
0, 0
0, 0
0, 0
0, 0
0, 0
0, 0
0, 0
0, 0
0, 0
0, 0
0, 0
0, 0
0, 0
0, 0
0, 0
0, 0
0, 0
0, 0
0, 0
0, 0
0, 0
0, 0
0, 0
0, 0
0, 0
0, 0
0, 0
0, 0
0, 0
0, 0
0, 0
0, 0
0, 0
0, 0
0, 0
0, 0
0, 0
0, 0
0, 0
0, 0
0, 0
0, 0
0, 0
0, 0
0, 0
0, 0
0, 0
0, 0
0, 0
0, 0
0, 0
0, 0
0, 0
0, 0
0, 0
0, 0
0, 0
0, 0
0, 0
0, 0
0, 0
0, 0
0, 0
0, 0
0, 0
0, 0
0, 0
0, 0
0, 0
0, 0
0, 0
0, 0
0, 0
0, 0
0, 0
0, 0
0, 0
0, 0
0, 0
0, 0
0, 0
0, 0
0, 0
0, 0
0, 0
0, 0
0, 0
0, 0
0, 0
0, 0
0, 0
0, 0
0, 0
0, 0
0, 0
0, 0
0, 0
0, 0
0, 0
0, 0
0, 0
0, 0
0, 0
0, 0
0, 0
0, 0
0, 0
0, 0
0, 0
0, 0
0, 0
0, 0
0, 0
0, 0
0, 0
0, 0
0, 0
0, 0
0, 0
0, 0
0, 0
0, 0
0, 0
0, 0
0, 0
0, 0
0, 0
0, 0
0, 0
0, 0
0, 0
0, 0
0, 0
0, 0
0, 0
0, 0
0, 0
0, 0
0, 0
0, 0
0, 0
0, 0
0, 0
0, 0
0, 0
0, 0
0, 0
0, 0
0, 0
0, 0
0, 0
0, 0
0, 0
0, 0
0, 0
0, 0
0, 0
0, 0
0, 0
0, 0
0, 0
0, 0
0, 0
0, 0
0, 0
0, 0
0, 0
0, 0
0, 0
0, 0
0, 0
0, 0
0, 0
0, 0
0, 0
0, 0
0, 0
0, 0
0, 0
0, 0
0, 0
0, 0
0, 0
0, 0
0, 0
0, 0
0, 0
0, 0
0, 0
0, 0
0, 0
0, 0
0, 0
0, 0
0, 0
0, 0
0, 0
0, 0
0, 0
0, 0
0, 0
0, 0
0, 0
0, 0
0, 0
0, 0
0, 0
0, 0
0, 0
0, 0
0, 0
0, 0
0, 0
0, 0
0, 0
0, 0
0, 0
0, 0
0, 0
0, 0
0, 0
0, 0
0, 0
0, 0
0, 0
0, 0
0, 0
0, 0
0, 0
#ENDOFDATA     end of spectrum data