File: host_upload/12-01-2023/Dourbes (shot-by-shot)/upload_4/ps__0257_0689790785_000rfs_shot_3238.msa
#FORMAT      : EMSA/MAS spectral data file
#VERSION     : TC202v2.0 PIXL
#TITLE       : N/A
#DATE        :       Date in the format DD-MMM-YYYY, for example 07-JUL-2010
#TIME        :             The time of day at which the spectrum was recorded, in 24-hour format
#OWNER       : PIXL Flight Model       (PIXL will use this to indicate which instrument took the data.)
#NPOINTS     : 4096     Number of data points in the spectrum (This can be zero for configuration only files)
#NCOLUMNS    : 2     Number of data columns in the spectrum (This can be zero for configuration only files)
#XUNITS      : eV
#YUNITS      : COUNTS
#DATATYPE    : YY
#XPERCHAN    : 7.862, 7.881   eV per channel (separate by commas if more than one detector)
#OFFSET      : 18.5, -22.4         eV of first channel  (separate by commas if more than one detector
#SIGNALTYPE  : XRF
#YP_TEMP     : 3.133
#LIVETIME    : 8.99344, 8.98118   seconds (separate by commas if more than one detector)
#REALTIME    : 10, 10.0   seconds (separate by commas if more than one detector)
#SPECTRUM    : start of spectrum data
0, 0
0, 0
0, 0
0, 0
0, 0
0, 0
0, 0
0, 0
0, 0
0, 0
0, 0
0, 0
0, 0
0, 0
0, 0
0, 0
0, 0
0, 0
0, 0
0, 0
0, 0
0, 0
0, 0
0, 0
0, 0
0, 0
0, 0
0, 0
0, 0
0, 0
0, 0
0, 0
0, 0
1, 0
0, 0
0, 0
1, 1
0, 1
4, 10
2, 6
0, 5
4, 6
3, 0
2, 2
1, 3
4, 2
0, 4
0, 2
4, 4
3, 4
19, 11
19, 19
33, 30
52, 48
54, 38
37, 47
43, 52
27, 17
11, 11
6, 3
2, 6
5, 4
1, 5
2, 2
1, 5
1, 1
2, 2
2, 3
1, 2
5, 8
8, 10
17, 14
32, 42
56, 66
63, 68
57, 67
61, 53
44, 32
20, 23
17, 20
6, 8
5, 6
3, 8
3, 8
6, 6
6, 2
0, 5
3, 2
1, 2
2, 2
4, 8
2, 1
3, 7
7, 3
3, 9
10, 13
11, 16
13, 16
20, 17
13, 8
17, 18
12, 10
6, 9
7, 5
5, 9
8, 6
6, 9
22, 16
24, 30
49, 55
69, 96
111, 144
134, 239
190, 322
212, 408
206, 409
159, 369
154, 268
107, 203
78, 125
74, 86
46, 62
27, 44
25, 33
38, 39
36, 47
36, 37
40, 43
28, 36
20, 25
16, 18
16, 15
8, 9
10, 10
11, 11
8, 9
13, 11
7, 8
11, 5
9, 5
9, 10
7, 5
5, 3
2, 6
6, 10
4, 3
3, 6
2, 7
5, 7
9, 9
17, 8
23, 37
42, 48
74, 97
162, 151
215, 202
250, 249
245, 279
207, 197
210, 177
130, 144
87, 79
52, 48
28, 33
20, 15
9, 16
19, 18
12, 24
29, 26
25, 38
43, 34
35, 37
23, 46
29, 29
32, 25
20, 25
16, 13
15, 16
12, 10
9, 20
15, 13
12, 8
7, 5
8, 12
7, 8
3, 13
7, 13
14, 23
11, 23
25, 19
18, 23
21, 26
26, 20
25, 14
36, 24
67, 22
42, 30
67, 26
54, 27
58, 39
43, 23
34, 16
22, 18
21, 17
17, 12
10, 11
8, 11
11, 10
14, 10
12, 14
13, 14
16, 11
12, 13
8, 12
12, 14
13, 12
12, 11
8, 18
10, 11
12, 15
20, 11
12, 12
17, 12
13, 18
9, 14
10, 12
18, 23
19, 16
22, 26
12, 21
11, 16
17, 14
11, 15
13, 13
14, 18
13, 16
18, 18
12, 15
21, 12
18, 14
19, 14
15, 21
15, 13
23, 22
32, 40
34, 40
51, 57
62, 84
106, 120
129, 127
141, 147
160, 135
124, 122
105, 89
79, 67
60, 67
44, 33
36, 28
24, 18
26, 21
29, 37
36, 43
54, 58
95, 101
192, 197
347, 434
649, 749
1055, 1375
1738, 1912
2468, 2815
3189, 3332
3723, 3846
3902, 3801
3665, 3462
3119, 2817
2478, 2079
1752, 1426
1122, 868
702, 479
324, 263
195, 93
94, 76
59, 32
53, 29
33, 27
33, 27
39, 24
33, 27
36, 22
44, 28
45, 39
53, 49
75, 99
105, 111
145, 201
197, 264
342, 356
450, 438
481, 522
540, 565
570, 539
510, 488
415, 391
329, 263
216, 181
153, 129
68, 76
46, 33
22, 12
18, 12
15, 9
0, 3
7, 3
6, 3
6, 7
8, 8
9, 5
9, 6
9, 4
4, 7
8, 5
0, 5
4, 4
4, 4
4, 3
4, 6
3, 4
5, 3
4, 3
7, 0
5, 2
5, 2
5, 4
5, 7
10, 3
6, 1
9, 5
0, 1
4, 4
6, 2
3, 6
13, 4
2, 3
4, 5
4, 5
7, 5
5, 6
3, 3
4, 5
4, 3
4, 4
6, 6
4, 5
8, 4
3, 6
6, 6
4, 6
4, 5
5, 7
8, 8
4, 7
4, 7
6, 7
7, 5
6, 2
7, 9
2, 4
4, 8
12, 8
11, 3
4, 4
6, 7
9, 9
7, 3
8, 6
6, 1
5, 2
4, 7
4, 4
4, 7
3, 5
4, 9
2, 5
7, 5
8, 4
3, 9
3, 2
3, 10
3, 8
4, 7
2, 6
1, 3
5, 7
3, 2
5, 2
2, 4
3, 3
4, 4
4, 1
6, 4
4, 3
6, 6
5, 9
2, 3
7, 5
4, 5
5, 1
3, 5
8, 3
5, 2
5, 6
5, 6
2, 2
2, 3
8, 3
4, 4
2, 1
1, 3
4, 5
3, 8
5, 1
2, 3
4, 7
7, 2
6, 2
6, 8
7, 4
5, 7
6, 3
8, 3
2, 4
6, 2
4, 4
9, 7
3, 4
3, 0
1, 2
6, 0
5, 4
2, 4
5, 4
3, 3
2, 4
6, 6
3, 6
3, 6
2, 1
4, 2
2, 1
3, 4
0, 2
3, 3
3, 3
3, 1
5, 8
6, 3
7, 2
3, 1
0, 2
5, 2
2, 5
9, 1
5, 1
3, 5
8, 1
7, 1
8, 4
9, 5
6, 3
0, 3
3, 4
2, 1
0, 2
3, 2
1, 4
3, 4
3, 6
1, 1
0, 2
2, 4
2, 1
1, 2
2, 3
3, 1
4, 2
1, 2
1, 3
3, 1
2, 7
2, 1
3, 3
4, 5
8, 3
5, 0
2, 5
0, 2
3, 2
1, 5
1, 5
0, 4
1, 1
3, 5
1, 4
0, 2
0, 1
3, 3
0, 6
5, 2
2, 4
1, 1
2, 2
3, 4
2, 3
3, 1
2, 5
0, 2
2, 1
2, 2
3, 1
3, 2
0, 2
2, 6
5, 7
2, 0
0, 1
3, 0
7, 6
1, 2
2, 2
2, 1
2, 3
4, 3
1, 3
0, 5
3, 0
2, 4
0, 2
5, 5
3, 4
4, 3
4, 7
4, 8
10, 3
8, 7
6, 3
3, 5
4, 4
4, 4
6, 5
1, 1
1, 4
1, 1
1, 3
3, 0
1, 1
2, 3
2, 0
1, 0
0, 2
5, 2
4, 1
1, 2
2, 2
3, 6
3, 4
5, 2
1, 4
3, 1
2, 1
2, 2
2, 5
3, 5
2, 1
1, 2
3, 2
1, 0
3, 1
1, 1
3, 0
1, 0
1, 0
3, 2
1, 1
0, 1
0, 4
1, 1
0, 1
2, 0
2, 2
1, 0
2, 3
1, 2
0, 0
1, 0
0, 0
3, 1
2, 1
0, 1
0, 1
0, 0
3, 1
1, 1
2, 2
1, 1
1, 0
1, 1
0, 0
0, 1
2, 3
1, 1
1, 0
1, 1
1, 0
0, 0
0, 1
0, 0
1, 0
2, 2
0, 0
2, 0
0, 0
2, 2
0, 0
0, 0
0, 1
0, 4
1, 1
0, 0
1, 0
0, 0
1, 1
1, 0
0, 0
0, 0
2, 2
0, 0
4, 1
3, 0
1, 0
0, 0
0, 1
2, 1
0, 0
0, 1
0, 1
0, 2
0, 0
0, 2
0, 1
1, 1
0, 0
0, 1
1, 0
2, 0
0, 1
0, 0
0, 0
0, 1
1, 0
1, 1
1, 0
1, 0
3, 0
0, 0
2, 0
1, 1
1, 0
0, 0
1, 1
1, 0
0, 0
0, 0
0, 0
0, 2
2, 1
0, 0
1, 1
2, 1
0, 0
0, 0
0, 1
0, 1
1, 0
0, 1
0, 0
2, 1
0, 0
0, 0
0, 0
0, 0
1, 0
1, 0
0, 0
1, 0
2, 0
0, 1
0, 0
0, 0
0, 0
1, 0
0, 0
0, 0
1, 1
0, 0
0, 0
0, 0
3, 1
0, 1
0, 0
1, 0
1, 0
2, 1
0, 0
1, 0
0, 0
0, 2
0, 0
0, 0
1, 0
1, 0
0, 1
0, 0
0, 1
0, 0
1, 0
0, 0
0, 0
0, 0
0, 0
0, 0
1, 1
0, 2
0, 2
0, 0
0, 1
1, 0
2, 0
0, 0
1, 0
0, 0
1, 0
0, 0
0, 0
1, 0
0, 0
0, 0
0, 0
0, 1
0, 0
1, 0
1, 0
0, 0
0, 0
0, 0
0, 0
1, 0
1, 0
0, 0
0, 0
0, 0
0, 0
0, 0
0, 0
0, 0
0, 0
0, 0
0, 1
0, 0
0, 0
0, 1
0, 0
0, 0
0, 0
0, 1
0, 1
0, 1
1, 0
0, 0
0, 0
0, 0
0, 0
0, 0
0, 0
0, 0
1, 0
0, 1
0, 0
0, 0
0, 0
1, 0
0, 1
0, 0
0, 0
0, 1
1, 0
0, 0
0, 0
0, 0
0, 1
0, 0
0, 0
0, 0
0, 0
0, 0
0, 0
1, 1
1, 0
1, 0
1, 0
0, 1
1, 1
0, 0
0, 0
0, 0
0, 0
0, 0
0, 0
0, 1
0, 0
0, 0
0, 0
0, 0
0, 0
0, 0
0, 0
1, 1
0, 0
0, 0
0, 1
0, 0
0, 0
0, 0
0, 1
0, 0
0, 1
0, 0
0, 0
0, 0
1, 0
0, 0
2, 0
1, 0
0, 0
0, 0
0, 0
0, 0
1, 0
1, 0
2, 0
0, 0
0, 1
0, 0
0, 0
0, 0
0, 1
0, 0
1, 1
0, 0
0, 0
0, 0
0, 0
0, 0
0, 0
0, 0
0, 2
0, 0
0, 0
0, 0
0, 0
0, 0
0, 0
0, 0
0, 0
0, 0
0, 0
0, 0
0, 0
0, 0
0, 0
0, 0
0, 0
0, 0
0, 0
0, 1
0, 0
0, 0
0, 0
0, 0
0, 0
0, 0
0, 0
0, 0
0, 0
0, 0
0, 0
1, 0
0, 0
0, 0
0, 0
0, 0
0, 0
0, 0
0, 0
0, 0
1, 0
0, 0
0, 1
0, 0
0, 0
0, 0
1, 0
0, 0
0, 0
0, 0
0, 0
0, 0
0, 0
0, 0
0, 0
0, 0
0, 0
0, 0
0, 0
0, 0
0, 0
0, 0
0, 0
0, 0
0, 0
0, 0
0, 0
1, 0
0, 0
0, 0
0, 0
0, 0
0, 0
0, 0
0, 0
0, 0
0, 0
0, 0
0, 0
0, 0
0, 0
0, 0
0, 0
0, 0
0, 0
0, 0
0, 0
0, 0
0, 0
0, 0
0, 0
0, 0
0, 0
0, 0
0, 0
0, 0
0, 0
0, 0
0, 0
0, 0
0, 0
0, 0
0, 0
0, 0
0, 0
0, 1
0, 0
0, 0
0, 0
0, 0
0, 0
0, 0
0, 0
0, 0
0, 0
0, 0
0, 0
0, 0
0, 0
0, 0
1, 0
0, 1
0, 0
0, 0
0, 0
0, 0
0, 0
0, 0
0, 0
0, 0
0, 0
0, 0
0, 0
0, 0
0, 0
0, 0
0, 0
0, 0
0, 0
0, 0
0, 0
0, 0
0, 0
0, 0
0, 0
0, 0
0, 0
0, 0
0, 0
0, 0
0, 0
0, 0
0, 0
0, 0
0, 0
0, 1
0, 0
0, 0
0, 0
0, 0
0, 0
0, 0
0, 0
0, 0
0, 0
0, 0
0, 0
0, 0
0, 0
0, 0
0, 0
0, 0
0, 0
0, 0
0, 0
0, 0
0, 0
0, 0
0, 0
0, 0
0, 0
0, 0
0, 0
0, 0
0, 0
0, 0
0, 0
0, 0
0, 0
0, 0
0, 0
0, 0
0, 0
0, 0
0, 0
0, 0
0, 0
0, 0
0, 0
0, 0
0, 0
0, 0
0, 0
0, 0
0, 0
0, 0
0, 0
0, 0
0, 0
0, 0
0, 0
0, 0
0, 0
0, 0
0, 0
0, 0
0, 0
0, 0
0, 0
0, 0
0, 0
0, 0
0, 0
0, 0
0, 0
0, 0
0, 0
0, 0
0, 0
0, 0
0, 0
0, 0
0, 0
0, 0
0, 0
0, 0
0, 0
0, 0
0, 0
0, 0
0, 0
0, 0
0, 0
0, 0
0, 0
0, 0
0, 0
0, 0
0, 0
0, 0
0, 0
0, 0
0, 0
0, 0
0, 0
0, 0
0, 0
0, 0
0, 0
0, 0
0, 0
0, 0
0, 0
0, 0
0, 0
0, 0
0, 0
0, 0
0, 0
0, 0
0, 0
0, 0
0, 0
0, 0
0, 0
0, 0
0, 0
0, 0
0, 0
0, 0
0, 0
0, 0
0, 0
0, 0
0, 0
0, 0
0, 0
0, 0
0, 0
0, 0
0, 0
0, 0
0, 0
0, 0
0, 0
0, 0
0, 0
0, 0
0, 0
0, 0
0, 0
0, 0
0, 0
0, 0
0, 0
0, 0
0, 0
0, 0
0, 0
0, 0
0, 0
0, 0
0, 0
0, 0
0, 0
0, 0
0, 0
0, 0
0, 0
0, 0
0, 0
0, 0
0, 0
0, 0
0, 0
0, 0
0, 0
0, 0
0, 0
0, 0
0, 0
0, 0
0, 0
0, 0
0, 0
0, 0
0, 0
0, 0
0, 0
0, 0
0, 0
0, 0
0, 0
0, 0
0, 0
0, 0
0, 0
0, 0
0, 0
0, 0
0, 0
0, 0
0, 0
0, 0
0, 0
0, 0
0, 0
0, 0
0, 0
0, 0
0, 0
0, 0
0, 0
0, 0
0, 0
0, 0
0, 0
0, 0
0, 0
0, 0
0, 0
0, 0
0, 0
0, 0
0, 0
0, 0
0, 0
0, 0
0, 0
0, 0
0, 0
0, 0
0, 0
0, 0
0, 0
0, 0
0, 0
0, 0
0, 0
0, 0
0, 0
0, 0
0, 0
0, 0
0, 0
0, 0
0, 0
0, 0
0, 0
0, 0
0, 0
0, 0
0, 0
0, 0
0, 0
0, 0
0, 0
0, 0
0, 0
0, 0
0, 0
0, 0
0, 0
0, 0
0, 0
0, 0
0, 0
0, 0
0, 0
0, 0
0, 0
0, 0
0, 0
0, 0
0, 0
0, 0
0, 0
0, 0
0, 0
0, 0
0, 0
0, 0
0, 0
0, 0
0, 0
0, 0
0, 0
0, 0
0, 0
0, 0
0, 0
0, 0
0, 0
0, 0
0, 0
0, 0
0, 0
0, 0
0, 0
0, 0
0, 0
0, 0
0, 0
0, 0
0, 0
0, 0
0, 0
0, 0
0, 0
0, 0
0, 0
0, 0
0, 0
0, 0
0, 0
0, 0
0, 0
0, 0
0, 0
0, 0
0, 0
0, 0
0, 0
0, 0
0, 0
0, 0
0, 0
0, 0
0, 0
0, 0
0, 0
0, 0
0, 0
0, 0
0, 0
0, 0
0, 0
0, 0
0, 0
0, 0
0, 0
0, 0
0, 0
0, 0
0, 0
0, 0
0, 0
0, 0
0, 0
0, 0
0, 0
0, 0
#ENDOFDATA     end of spectrum data