File: host_upload/12-01-2023/Dourbes (shot-by-shot)/upload_4/ps__0257_0689790785_000rfs_shot_3202.msa
#FORMAT      : EMSA/MAS spectral data file
#VERSION     : TC202v2.0 PIXL
#TITLE       : N/A
#DATE        :       Date in the format DD-MMM-YYYY, for example 07-JUL-2010
#TIME        :             The time of day at which the spectrum was recorded, in 24-hour format
#OWNER       : PIXL Flight Model       (PIXL will use this to indicate which instrument took the data.)
#NPOINTS     : 4096     Number of data points in the spectrum (This can be zero for configuration only files)
#NCOLUMNS    : 2     Number of data columns in the spectrum (This can be zero for configuration only files)
#XUNITS      : eV
#YUNITS      : COUNTS
#DATATYPE    : YY
#XPERCHAN    : 7.862, 7.881   eV per channel (separate by commas if more than one detector)
#OFFSET      : 18.5, -22.4         eV of first channel  (separate by commas if more than one detector
#SIGNALTYPE  : XRF
#YP_TEMP     : 3.005
#LIVETIME    : 9.12568, 9.10955   seconds (separate by commas if more than one detector)
#REALTIME    : 10, 10.0   seconds (separate by commas if more than one detector)
#SPECTRUM    : start of spectrum data
0, 0
0, 0
0, 0
0, 0
0, 0
0, 0
0, 0
0, 0
0, 0
0, 0
0, 0
0, 0
0, 0
0, 0
0, 0
0, 0
0, 0
0, 0
0, 0
0, 0
0, 0
0, 0
0, 0
0, 0
0, 0
0, 0
0, 0
0, 0
0, 0
0, 0
0, 0
0, 0
1, 0
0, 0
0, 3
1, 0
3, 2
2, 2
1, 0
1, 1
0, 3
5, 3
1, 1
0, 1
4, 1
3, 3
3, 1
3, 2
4, 2
2, 6
13, 5
16, 14
18, 23
40, 36
36, 52
30, 39
24, 31
25, 21
7, 6
8, 8
10, 13
16, 12
33, 18
29, 35
37, 56
29, 39
34, 34
25, 19
25, 21
49, 47
111, 116
191, 234
361, 421
545, 615
642, 716
643, 698
520, 594
401, 409
246, 260
121, 134
67, 74
33, 39
27, 22
15, 15
17, 27
12, 27
25, 30
18, 23
18, 20
10, 11
11, 4
6, 7
6, 5
4, 4
5, 9
12, 14
30, 35
38, 44
42, 56
39, 58
36, 33
28, 42
20, 17
17, 14
8, 8
11, 16
12, 13
25, 20
36, 50
63, 62
100, 94
106, 135
129, 154
192, 146
150, 128
145, 107
108, 93
84, 74
57, 72
59, 61
44, 50
56, 50
44, 32
31, 40
39, 21
24, 23
16, 22
19, 14
13, 9
17, 16
9, 10
5, 4
7, 3
2, 5
7, 6
5, 8
8, 11
12, 21
29, 28
38, 33
44, 38
48, 47
56, 52
29, 34
27, 28
22, 19
11, 11
12, 10
10, 6
7, 6
10, 20
27, 22
18, 35
41, 47
47, 59
63, 72
66, 78
103, 109
82, 88
55, 55
55, 46
30, 37
27, 21
10, 12
8, 11
5, 9
8, 5
7, 8
6, 16
19, 19
15, 17
15, 20
22, 11
10, 17
8, 13
8, 8
11, 11
8, 10
4, 4
6, 6
3, 5
3, 6
10, 6
5, 9
5, 5
7, 16
3, 8
10, 14
19, 20
21, 26
27, 29
22, 34
31, 30
24, 29
24, 30
21, 16
21, 20
16, 24
16, 23
15, 18
13, 13
12, 19
8, 19
5, 26
12, 19
6, 28
6, 19
6, 31
11, 27
10, 20
11, 30
13, 24
7, 23
12, 20
8, 19
10, 14
10, 15
10, 8
19, 9
17, 12
19, 11
17, 4
15, 14
24, 13
30, 13
25, 13
38, 8
28, 9
46, 8
40, 12
41, 14
36, 11
41, 8
27, 7
16, 11
21, 10
12, 4
7, 9
11, 5
13, 9
12, 10
6, 5
13, 16
18, 19
13, 20
9, 26
20, 41
29, 34
42, 54
45, 55
39, 70
50, 52
35, 48
46, 45
30, 36
31, 20
25, 21
20, 23
12, 20
12, 17
16, 15
21, 29
33, 37
48, 74
89, 137
196, 262
359, 441
560, 768
933, 1166
1355, 1642
1735, 2036
1985, 2175
2095, 2204
1943, 1996
1699, 1598
1282, 1177
886, 901
620, 523
325, 264
189, 132
88, 63
56, 23
26, 23
19, 12
19, 17
21, 10
15, 21
18, 20
24, 14
15, 22
30, 28
31, 35
36, 42
60, 64
120, 102
119, 151
171, 233
240, 271
272, 334
326, 304
297, 318
291, 288
267, 228
168, 184
118, 100
66, 69
54, 46
30, 22
13, 16
16, 13
5, 11
6, 8
7, 6
8, 13
7, 3
5, 6
6, 9
6, 10
7, 6
7, 11
11, 5
8, 3
13, 10
8, 8
10, 3
12, 7
1, 5
7, 3
5, 6
2, 5
1, 6
12, 7
7, 8
4, 0
8, 5
6, 6
8, 7
0, 6
8, 2
3, 4
6, 5
8, 2
9, 6
4, 5
8, 6
8, 4
5, 6
8, 6
5, 12
7, 7
8, 5
8, 6
5, 7
7, 7
8, 5
3, 7
8, 7
10, 11
6, 6
7, 3
8, 4
4, 9
7, 5
5, 5
7, 8
5, 8
5, 7
5, 10
8, 11
5, 8
11, 6
7, 14
4, 6
7, 16
7, 8
13, 7
8, 7
11, 11
12, 4
10, 3
6, 8
7, 4
4, 7
7, 4
11, 6
2, 4
3, 8
6, 8
1, 8
5, 8
3, 9
1, 4
4, 11
7, 10
5, 4
5, 5
3, 5
9, 3
6, 7
6, 5
5, 3
5, 3
6, 9
2, 4
9, 5
7, 9
3, 3
4, 5
7, 5
5, 4
6, 4
6, 6
4, 6
7, 4
8, 4
2, 5
3, 8
7, 3
4, 6
3, 4
2, 6
6, 10
8, 4
2, 6
5, 7
6, 5
5, 7
3, 8
2, 8
5, 4
4, 16
5, 10
5, 2
5, 11
1, 7
4, 4
5, 7
3, 9
4, 4
4, 3
8, 8
4, 3
6, 6
8, 4
3, 3
6, 3
8, 3
5, 2
4, 6
2, 2
1, 4
7, 4
3, 4
7, 6
5, 4
2, 3
2, 4
6, 5
3, 4
2, 3
6, 7
1, 3
6, 2
1, 4
1, 4
7, 3
2, 5
5, 2
4, 3
5, 7
3, 2
5, 2
2, 5
4, 3
4, 3
3, 2
5, 5
4, 5
2, 5
3, 4
2, 2
0, 3
4, 2
5, 5
0, 3
4, 2
0, 2
2, 14
4, 4
3, 6
2, 9
5, 7
2, 3
0, 5
1, 4
2, 7
2, 5
4, 2
3, 1
1, 9
5, 3
3, 2
1, 5
1, 6
3, 3
2, 2
5, 3
3, 4
2, 3
3, 4
4, 3
2, 1
2, 3
4, 0
5, 3
6, 0
3, 1
0, 1
2, 4
3, 2
2, 2
2, 0
2, 3
3, 2
4, 2
1, 3
1, 1
3, 2
0, 4
1, 2
0, 1
2, 2
1, 3
2, 1
5, 1
1, 7
2, 3
1, 3
4, 4
4, 3
3, 9
4, 2
2, 4
2, 3
6, 5
4, 3
2, 3
2, 5
4, 1
1, 2
0, 1
3, 2
0, 1
1, 1
3, 3
2, 1
3, 5
1, 4
2, 3
3, 2
2, 5
2, 2
2, 2
1, 1
2, 0
1, 4
2, 2
4, 4
0, 3
3, 2
1, 1
2, 2
7, 3
1, 0
2, 2
1, 0
1, 0
3, 1
1, 2
4, 1
1, 1
1, 0
0, 1
0, 2
0, 2
2, 1
4, 2
4, 0
2, 0
1, 1
0, 2
1, 1
0, 2
1, 0
1, 1
0, 2
0, 1
1, 0
0, 1
1, 3
1, 0
1, 5
2, 1
1, 2
1, 1
3, 2
0, 0
1, 1
0, 1
2, 0
0, 2
0, 1
0, 1
2, 2
0, 1
0, 1
0, 0
0, 0
1, 0
0, 0
0, 0
0, 0
0, 0
1, 1
1, 1
0, 1
0, 2
1, 0
1, 0
1, 0
0, 2
0, 1
2, 2
2, 2
0, 0
0, 1
2, 0
0, 0
0, 0
0, 2
0, 4
1, 1
0, 0
1, 2
1, 1
0, 0
0, 1
2, 2
0, 1
0, 3
1, 1
0, 1
1, 1
1, 1
0, 0
0, 0
2, 0
1, 0
0, 3
0, 1
1, 1
1, 0
1, 0
0, 1
0, 2
0, 1
3, 3
0, 0
0, 0
1, 0
0, 1
1, 0
0, 1
3, 0
0, 1
0, 2
0, 0
0, 0
1, 1
0, 0
0, 0
0, 1
0, 1
1, 0
1, 0
0, 0
0, 1
0, 1
1, 2
1, 0
0, 0
0, 0
0, 0
0, 0
0, 0
1, 1
1, 0
1, 0
0, 1
0, 0
1, 0
0, 1
0, 0
1, 0
0, 0
2, 0
0, 1
0, 1
0, 0
0, 0
0, 1
0, 0
0, 1
1, 0
0, 0
1, 0
1, 0
0, 1
0, 0
0, 1
1, 0
0, 0
0, 1
0, 2
0, 0
0, 0
0, 0
1, 0
1, 1
0, 0
1, 0
0, 0
0, 0
0, 1
0, 0
0, 0
0, 0
1, 0
0, 0
1, 0
0, 0
0, 1
0, 0
0, 0
1, 1
0, 0
0, 2
0, 0
0, 0
0, 0
0, 2
0, 1
0, 0
0, 0
0, 0
1, 0
0, 2
1, 1
0, 1
0, 0
0, 1
0, 0
0, 1
0, 0
0, 0
0, 0
0, 0
0, 0
0, 0
0, 1
0, 0
0, 0
0, 0
0, 1
0, 0
0, 1
0, 0
0, 0
0, 0
0, 0
0, 0
0, 0
0, 1
0, 0
0, 0
0, 0
0, 0
0, 0
0, 0
0, 0
0, 0
1, 2
0, 0
0, 0
0, 0
0, 1
0, 0
1, 0
0, 2
0, 0
0, 2
0, 0
0, 0
0, 0
0, 1
0, 2
0, 0
0, 1
0, 2
0, 0
0, 1
0, 0
0, 0
0, 0
0, 1
1, 0
0, 0
0, 0
1, 1
0, 0
0, 0
0, 1
0, 0
0, 0
0, 1
0, 0
0, 0
1, 1
0, 0
0, 0
1, 0
0, 0
0, 0
1, 0
0, 0
0, 0
0, 0
0, 0
0, 0
0, 1
0, 0
1, 0
0, 0
0, 0
0, 0
0, 1
1, 0
0, 0
0, 0
0, 0
0, 0
0, 0
0, 0
0, 0
0, 0
0, 0
0, 0
0, 0
0, 0
0, 0
0, 0
1, 0
0, 0
0, 0
0, 0
0, 0
0, 0
0, 0
0, 0
0, 0
1, 0
0, 0
0, 0
0, 0
0, 0
0, 0
0, 1
0, 0
0, 0
1, 0
0, 0
0, 0
0, 0
0, 0
1, 0
0, 0
0, 0
0, 0
0, 0
0, 0
0, 0
0, 0
0, 0
0, 0
0, 0
0, 0
0, 0
0, 0
0, 0
0, 0
0, 0
0, 0
0, 0
0, 0
0, 0
1, 0
0, 0
0, 0
0, 0
0, 0
0, 0
0, 0
0, 0
0, 0
0, 0
0, 0
0, 0
0, 0
1, 0
0, 1
0, 0
0, 0
0, 0
0, 0
0, 0
0, 0
0, 0
0, 0
0, 0
0, 0
0, 0
0, 0
0, 0
0, 0
0, 0
0, 0
0, 0
0, 0
0, 0
0, 0
0, 0
0, 0
0, 0
0, 0
0, 0
0, 0
0, 0
0, 0
0, 0
0, 0
0, 0
0, 0
0, 0
0, 0
0, 0
0, 0
0, 0
0, 0
0, 0
0, 0
0, 0
0, 0
0, 0
0, 0
0, 0
0, 0
0, 0
0, 0
0, 0
0, 0
0, 0
0, 0
0, 0
0, 0
0, 0
0, 0
0, 0
0, 0
0, 0
0, 0
0, 0
0, 0
0, 0
0, 0
0, 0
0, 0
0, 0
0, 0
0, 0
0, 0
0, 0
0, 0
0, 0
0, 0
0, 0
0, 0
0, 0
0, 0
0, 0
0, 0
0, 0
0, 0
0, 0
0, 0
0, 0
0, 0
0, 0
0, 0
0, 0
0, 0
1, 0
0, 0
0, 0
0, 0
0, 0
0, 0
0, 0
0, 0
0, 0
0, 0
0, 0
0, 0
0, 0
0, 0
0, 0
0, 0
0, 0
0, 0
0, 0
0, 0
0, 0
0, 0
0, 0
0, 0
0, 0
0, 0
0, 0
0, 0
0, 0
0, 0
0, 0
0, 0
0, 0
0, 0
0, 0
0, 0
0, 0
0, 0
0, 0
0, 0
0, 0
0, 0
0, 0
0, 0
0, 0
0, 0
0, 0
0, 0
0, 0
0, 0
0, 0
0, 0
0, 0
0, 0
0, 0
0, 0
0, 0
0, 0
0, 0
0, 0
0, 0
0, 0
0, 0
0, 0
0, 0
0, 0
0, 0
0, 0
0, 0
0, 0
0, 0
0, 0
0, 0
0, 0
0, 0
0, 0
0, 0
0, 0
0, 0
0, 0
0, 0
0, 0
0, 0
0, 0
0, 0
0, 0
0, 0
0, 0
0, 0
0, 0
0, 0
0, 0
0, 0
0, 0
0, 0
0, 0
0, 0
0, 0
0, 0
0, 0
0, 0
0, 0
0, 0
0, 0
0, 0
0, 0
0, 0
0, 0
0, 0
0, 0
0, 0
0, 0
0, 0
0, 0
0, 0
0, 0
0, 0
0, 0
0, 0
0, 0
0, 0
0, 0
0, 0
0, 0
0, 0
0, 0
0, 0
0, 0
0, 0
0, 0
0, 0
0, 0
0, 0
0, 0
0, 0
0, 0
0, 0
0, 0
0, 0
0, 0
0, 0
0, 0
0, 0
0, 0
0, 1
0, 0
0, 0
0, 0
0, 0
0, 0
0, 0
0, 0
0, 0
0, 0
0, 0
0, 0
0, 0
0, 0
0, 0
0, 0
0, 0
0, 0
0, 0
0, 0
0, 0
0, 0
0, 0
0, 0
0, 0
0, 0
0, 0
0, 0
0, 0
0, 0
0, 0
0, 0
0, 0
0, 0
0, 0
0, 0
0, 0
0, 0
0, 0
0, 0
0, 0
0, 0
0, 0
0, 0
0, 0
0, 0
0, 0
0, 0
0, 0
0, 0
0, 0
0, 0
0, 0
0, 0
0, 0
0, 0
0, 0
0, 0
0, 0
0, 0
0, 0
0, 0
0, 0
0, 0
0, 0
0, 0
0, 0
0, 0
0, 0
0, 0
0, 0
0, 0
0, 0
0, 0
0, 0
0, 0
0, 0
0, 0
0, 0
0, 0
0, 0
0, 0
0, 0
0, 0
0, 0
0, 0
0, 0
0, 0
0, 0
0, 0
0, 0
0, 0
0, 0
0, 0
0, 0
0, 0
0, 0
0, 0
0, 0
0, 0
0, 0
0, 0
0, 0
0, 0
0, 0
0, 0
0, 0
0, 0
0, 0
0, 0
0, 0
0, 0
0, 0
0, 0
0, 0
0, 0
0, 0
0, 0
0, 0
0, 0
0, 0
0, 0
0, 0
0, 0
0, 0
0, 0
0, 0
0, 0
0, 0
0, 0
0, 0
0, 0
0, 0
0, 0
0, 0
0, 0
0, 0
0, 0
0, 0
0, 0
0, 0
0, 0
0, 0
0, 0
0, 0
0, 0
0, 0
0, 0
0, 0
0, 0
0, 0
0, 0
0, 0
0, 0
0, 0
0, 0
0, 0
0, 0
0, 0
0, 0
0, 0
0, 0
0, 0
0, 0
0, 0
0, 0
0, 0
0, 0
0, 0
0, 0
0, 0
0, 0
0, 0
0, 0
0, 0
0, 0
0, 0
0, 0
0, 0
0, 0
0, 0
0, 0
0, 0
0, 0
0, 0
0, 0
0, 0
0, 0
0, 0
0, 0
0, 0
0, 0
0, 0
0, 0
0, 0
0, 0
0, 0
0, 0
0, 0
0, 0
0, 0
0, 0
0, 0
0, 0
0, 0
0, 0
0, 0
0, 0
0, 0
0, 0
0, 0
0, 0
#ENDOFDATA     end of spectrum data