File: host_upload/12-01-2023/Dourbes (shot-by-shot)/upload_4/ps__0257_0689790785_000rfs_shot_3235.msa
#FORMAT      : EMSA/MAS spectral data file
#VERSION     : TC202v2.0 PIXL
#TITLE       : N/A
#DATE        :       Date in the format DD-MMM-YYYY, for example 07-JUL-2010
#TIME        :             The time of day at which the spectrum was recorded, in 24-hour format
#OWNER       : PIXL Flight Model       (PIXL will use this to indicate which instrument took the data.)
#NPOINTS     : 4096     Number of data points in the spectrum (This can be zero for configuration only files)
#NCOLUMNS    : 2     Number of data columns in the spectrum (This can be zero for configuration only files)
#XUNITS      : eV
#YUNITS      : COUNTS
#DATATYPE    : YY
#XPERCHAN    : 7.862, 7.881   eV per channel (separate by commas if more than one detector)
#OFFSET      : 18.5, -22.4         eV of first channel  (separate by commas if more than one detector
#SIGNALTYPE  : XRF
#YP_TEMP     : 2.845
#LIVETIME    : 9.0638, 9.05343   seconds (separate by commas if more than one detector)
#REALTIME    : 10, 10.0   seconds (separate by commas if more than one detector)
#SPECTRUM    : start of spectrum data
0, 0
0, 0
0, 0
0, 0
0, 0
0, 0
0, 0
0, 0
0, 0
0, 0
0, 0
0, 0
0, 0
0, 0
0, 0
0, 0
0, 0
0, 0
0, 0
0, 0
0, 0
0, 0
0, 0
0, 0
0, 0
0, 0
0, 0
0, 0
0, 0
0, 0
0, 0
0, 0
0, 1
0, 0
1, 0
0, 1
1, 1
0, 1
8, 5
3, 2
3, 3
2, 4
4, 3
6, 6
1, 3
3, 2
5, 5
3, 7
2, 2
9, 7
10, 14
22, 20
29, 34
35, 50
34, 54
35, 48
21, 30
19, 16
6, 10
5, 8
1, 9
7, 7
12, 14
16, 15
20, 17
14, 16
12, 19
13, 9
7, 15
34, 21
73, 82
148, 176
269, 294
406, 421
498, 542
457, 476
407, 425
295, 313
194, 194
111, 104
46, 42
22, 27
7, 15
7, 13
6, 7
7, 4
6, 3
3, 6
5, 3
4, 4
2, 4
5, 2
5, 3
9, 7
15, 14
35, 28
40, 42
42, 66
56, 72
77, 65
61, 53
54, 42
32, 19
17, 18
26, 10
16, 10
24, 26
35, 37
57, 70
117, 117
168, 173
211, 219
231, 267
272, 268
258, 285
225, 214
164, 179
138, 161
108, 110
88, 104
68, 71
76, 60
64, 62
50, 63
54, 52
27, 34
23, 31
32, 26
27, 19
21, 27
6, 11
13, 14
8, 8
8, 7
2, 5
9, 6
6, 9
8, 6
10, 9
13, 18
13, 17
24, 13
24, 12
13, 5
12, 10
4, 11
6, 6
4, 6
7, 7
6, 6
8, 9
14, 23
17, 24
17, 38
53, 50
60, 68
66, 105
70, 84
86, 71
55, 60
35, 32
34, 29
19, 15
16, 18
11, 2
4, 6
8, 9
13, 8
8, 11
13, 14
11, 17
20, 19
11, 22
15, 12
19, 17
9, 10
7, 17
15, 14
10, 18
11, 11
6, 10
8, 12
8, 5
7, 4
14, 8
14, 6
11, 14
11, 12
11, 17
17, 11
21, 9
18, 13
18, 18
25, 19
28, 20
16, 25
22, 25
16, 33
35, 27
21, 18
25, 14
19, 15
16, 17
9, 11
14, 4
12, 10
11, 14
7, 8
15, 14
12, 16
10, 20
13, 21
10, 9
13, 17
8, 14
6, 15
9, 20
10, 14
13, 9
8, 7
7, 12
13, 8
16, 15
15, 16
7, 22
19, 18
12, 14
13, 18
12, 18
16, 19
15, 11
16, 12
20, 20
13, 17
14, 12
8, 8
13, 16
15, 8
5, 12
19, 17
14, 15
20, 8
10, 6
25, 17
22, 16
27, 33
52, 50
57, 58
59, 70
62, 85
84, 96
71, 68
74, 81
57, 52
43, 54
51, 40
41, 33
20, 28
19, 20
20, 32
15, 26
29, 39
29, 41
73, 86
126, 192
241, 328
473, 658
822, 1025
1274, 1561
1818, 2180
2300, 2704
2738, 2997
2893, 2995
2659, 2736
2216, 2251
1855, 1665
1266, 1118
743, 718
434, 368
259, 199
116, 102
68, 48
33, 29
25, 18
22, 21
22, 27
21, 23
13, 23
22, 21
26, 36
32, 45
34, 39
58, 53
94, 109
142, 147
164, 212
246, 281
283, 323
349, 420
419, 453
423, 450
368, 332
320, 308
254, 209
152, 145
126, 106
56, 48
42, 31
26, 18
15, 10
8, 7
4, 7
6, 14
6, 4
7, 8
10, 11
13, 6
15, 14
12, 11
13, 7
9, 10
3, 4
10, 6
7, 6
5, 5
3, 5
6, 5
6, 5
6, 4
6, 4
3, 3
8, 10
7, 6
3, 7
6, 6
7, 6
3, 5
5, 7
9, 4
7, 6
6, 4
8, 4
6, 5
8, 7
4, 5
4, 6
7, 6
9, 10
8, 11
12, 7
6, 9
4, 7
12, 10
7, 7
8, 5
6, 4
7, 8
3, 9
8, 3
3, 2
6, 4
7, 8
4, 7
3, 7
7, 4
8, 10
8, 6
5, 7
10, 3
7, 8
6, 12
8, 6
8, 4
10, 9
8, 9
3, 8
4, 4
7, 2
7, 5
4, 7
4, 7
7, 7
8, 6
5, 5
3, 11
3, 7
3, 4
4, 3
6, 8
1, 10
4, 6
6, 9
1, 4
7, 7
7, 7
3, 5
6, 5
3, 9
3, 4
3, 2
6, 3
5, 3
3, 5
4, 8
7, 5
4, 6
5, 5
3, 6
13, 6
5, 3
7, 1
5, 5
4, 8
6, 6
3, 5
6, 1
9, 5
7, 1
1, 3
4, 7
3, 2
6, 3
4, 9
0, 3
5, 4
4, 3
5, 4
5, 3
7, 5
6, 5
6, 5
6, 5
8, 3
5, 1
5, 4
3, 3
3, 4
1, 3
5, 4
4, 2
3, 2
1, 3
2, 4
3, 1
5, 7
5, 4
1, 5
2, 7
1, 4
4, 2
5, 3
3, 3
1, 1
1, 2
2, 3
1, 1
5, 7
6, 2
4, 4
1, 1
4, 6
1, 5
3, 3
2, 2
2, 3
2, 4
2, 2
2, 3
0, 2
2, 3
1, 6
3, 0
3, 2
3, 4
2, 0
5, 3
2, 4
4, 2
0, 3
3, 1
2, 3
2, 2
1, 3
0, 6
2, 1
1, 4
1, 0
1, 4
4, 4
4, 2
3, 2
3, 3
1, 0
0, 3
4, 3
2, 1
2, 3
7, 4
5, 2
3, 1
3, 5
3, 1
2, 3
2, 2
3, 3
2, 4
1, 2
2, 0
2, 4
2, 3
2, 1
4, 3
1, 0
3, 2
1, 0
3, 0
3, 2
2, 0
3, 3
0, 11
4, 1
0, 6
3, 1
4, 4
4, 2
2, 6
1, 1
4, 5
1, 4
2, 4
1, 2
5, 2
2, 0
2, 0
1, 0
1, 1
1, 3
4, 8
1, 7
3, 3
4, 6
2, 6
5, 8
8, 10
6, 2
5, 0
3, 7
2, 2
1, 7
3, 2
4, 0
0, 2
4, 1
4, 1
1, 0
1, 3
2, 0
2, 2
2, 0
2, 1
5, 6
2, 4
1, 1
2, 3
1, 2
1, 1
3, 3
2, 1
1, 3
2, 0
5, 2
2, 3
3, 0
2, 0
1, 1
3, 0
1, 1
0, 0
0, 6
2, 2
0, 3
1, 0
1, 0
2, 0
2, 1
1, 0
2, 0
1, 1
2, 0
1, 1
1, 1
1, 0
3, 0
1, 2
2, 3
2, 3
1, 1
2, 1
1, 1
0, 0
0, 0
0, 2
0, 2
0, 0
1, 1
0, 3
0, 1
2, 1
2, 1
1, 1
1, 1
0, 1
0, 1
1, 1
1, 1
0, 0
1, 1
0, 0
4, 1
0, 0
0, 2
0, 1
0, 0
1, 2
3, 1
0, 0
0, 1
2, 0
0, 0
0, 2
2, 2
1, 1
0, 1
1, 2
0, 1
1, 1
0, 0
0, 1
3, 1
1, 0
0, 0
0, 1
1, 1
0, 1
2, 1
1, 0
0, 0
0, 2
1, 1
0, 3
2, 1
0, 2
3, 0
0, 0
0, 0
0, 1
0, 2
1, 0
0, 0
0, 1
0, 1
0, 1
0, 1
0, 1
0, 1
1, 0
0, 2
2, 2
0, 0
3, 1
0, 0
1, 2
0, 1
0, 1
1, 0
0, 0
1, 2
0, 1
0, 3
0, 1
0, 0
0, 1
0, 0
1, 0
2, 0
0, 0
0, 1
0, 0
0, 0
0, 0
0, 1
1, 1
0, 0
0, 0
1, 0
0, 0
1, 3
1, 3
0, 0
1, 1
1, 1
0, 0
0, 0
0, 0
0, 0
0, 0
1, 2
1, 1
1, 0
0, 1
1, 1
0, 1
0, 2
0, 0
0, 1
0, 0
1, 0
0, 0
0, 0
0, 0
0, 0
1, 0
0, 0
0, 0
0, 1
0, 1
0, 1
0, 0
0, 0
0, 0
1, 0
0, 0
0, 0
0, 0
0, 1
0, 0
1, 0
0, 0
0, 1
0, 0
1, 0
0, 0
0, 0
0, 1
2, 1
0, 0
0, 0
0, 0
1, 1
0, 0
1, 2
0, 0
0, 0
0, 0
1, 1
0, 1
0, 1
0, 2
0, 0
0, 0
0, 0
0, 1
0, 0
0, 0
1, 1
0, 0
0, 0
0, 1
0, 0
0, 1
0, 2
0, 0
0, 0
0, 0
0, 1
0, 0
0, 0
0, 0
0, 0
1, 0
0, 0
0, 0
1, 0
1, 0
0, 0
0, 0
1, 0
0, 0
0, 0
0, 0
0, 0
1, 0
1, 0
0, 0
0, 0
1, 2
0, 1
0, 0
1, 0
0, 0
1, 0
0, 1
0, 0
1, 0
0, 0
0, 0
0, 1
0, 0
0, 0
0, 0
0, 0
0, 0
0, 0
0, 0
0, 0
0, 0
0, 0
0, 0
0, 0
0, 0
0, 0
0, 0
1, 1
0, 0
0, 0
0, 0
1, 0
0, 0
1, 0
0, 0
0, 1
0, 0
0, 0
0, 0
0, 0
0, 0
0, 0
0, 0
0, 0
0, 0
0, 0
0, 1
0, 1
0, 0
0, 0
0, 0
0, 1
1, 0
0, 0
0, 0
0, 0
0, 0
0, 0
0, 0
0, 0
0, 0
1, 0
0, 0
1, 0
0, 1
0, 0
0, 1
0, 0
0, 1
0, 0
0, 0
0, 0
0, 0
0, 1
0, 0
0, 0
0, 0
0, 1
0, 1
0, 0
0, 0
0, 0
0, 0
0, 0
0, 0
0, 0
1, 0
0, 0
0, 0
0, 0
0, 0
0, 0
0, 0
0, 0
0, 0
0, 0
1, 0
0, 0
0, 0
0, 0
0, 0
0, 0
0, 0
0, 0
0, 0
0, 0
0, 0
0, 0
0, 0
0, 0
0, 0
0, 0
0, 0
0, 0
0, 0
0, 0
0, 0
0, 0
0, 0
0, 0
0, 0
0, 0
0, 0
0, 0
0, 0
0, 1
0, 0
0, 0
0, 0
0, 0
0, 0
0, 0
0, 0
0, 0
0, 0
0, 0
0, 0
0, 0
0, 0
0, 0
0, 0
0, 0
0, 0
0, 0
0, 0
0, 0
0, 0
0, 0
0, 0
0, 0
0, 0
0, 0
0, 0
0, 0
0, 0
0, 0
0, 0
0, 0
0, 0
0, 0
0, 0
0, 0
0, 0
0, 0
0, 0
0, 0
0, 0
0, 0
0, 0
0, 0
0, 0
0, 0
0, 0
0, 0
0, 0
0, 0
0, 0
1, 0
0, 0
0, 0
0, 0
0, 0
0, 0
0, 0
0, 0
0, 0
0, 0
0, 0
0, 0
0, 0
0, 0
0, 0
0, 0
0, 0
0, 0
0, 0
0, 0
0, 0
0, 0
0, 1
0, 0
0, 0
0, 0
0, 1
0, 0
0, 0
0, 0
0, 0
0, 0
0, 0
0, 0
0, 0
0, 0
0, 0
0, 0
0, 0
0, 0
1, 0
0, 0
0, 0
0, 0
0, 0
0, 0
0, 0
0, 0
0, 0
0, 0
0, 0
0, 0
0, 0
0, 0
0, 0
0, 0
0, 0
0, 0
0, 0
0, 0
0, 0
0, 0
0, 0
0, 0
0, 0
0, 0
0, 0
0, 0
0, 0
0, 0
0, 0
0, 0
0, 0
0, 0
0, 0
0, 0
0, 0
0, 0
0, 0
0, 0
0, 0
0, 0
0, 0
0, 0
0, 0
0, 0
0, 0
0, 0
0, 0
0, 0
0, 0
0, 0
0, 0
0, 0
0, 0
0, 0
0, 0
0, 0
0, 0
0, 0
0, 0
0, 0
0, 0
0, 0
0, 0
0, 0
0, 0
0, 0
0, 0
0, 0
0, 0
0, 0
0, 0
0, 0
0, 0
0, 0
0, 0
0, 0
0, 0
0, 0
0, 0
0, 0
0, 0
0, 0
0, 0
0, 0
0, 0
0, 0
0, 0
0, 0
0, 0
0, 0
0, 0
0, 0
0, 0
0, 0
0, 0
0, 0
0, 0
0, 0
0, 0
0, 0
0, 0
0, 0
0, 0
0, 0
0, 0
0, 0
0, 0
0, 0
0, 0
0, 0
0, 0
0, 0
0, 0
0, 0
0, 0
0, 0
0, 0
0, 0
0, 0
0, 0
0, 0
0, 0
0, 0
0, 0
0, 0
0, 0
0, 0
0, 0
0, 0
0, 0
0, 0
0, 0
0, 0
0, 0
0, 0
0, 0
0, 0
0, 0
0, 0
0, 0
0, 0
0, 0
0, 0
0, 0
0, 0
0, 0
0, 0
0, 0
0, 0
0, 1
0, 0
0, 0
0, 0
0, 0
0, 0
0, 0
0, 0
0, 0
0, 0
0, 0
0, 0
0, 0
0, 0
0, 0
0, 0
0, 0
0, 0
0, 0
0, 0
0, 0
0, 0
0, 0
0, 0
0, 0
0, 0
0, 0
0, 0
0, 0
0, 0
0, 0
0, 0
0, 0
0, 0
0, 0
0, 0
0, 0
0, 0
0, 0
0, 0
0, 0
0, 0
0, 0
0, 0
0, 0
0, 0
0, 0
0, 0
0, 0
0, 0
0, 0
0, 0
0, 0
0, 0
0, 0
0, 0
0, 0
0, 0
0, 0
0, 0
0, 0
0, 0
0, 0
0, 0
0, 0
0, 0
0, 0
0, 0
0, 0
0, 0
0, 0
0, 0
0, 0
0, 0
0, 0
0, 0
0, 0
0, 0
0, 0
0, 0
0, 0
0, 0
0, 0
0, 0
0, 0
0, 0
0, 0
0, 0
0, 0
0, 0
0, 0
0, 0
0, 0
0, 0
0, 0
0, 0
0, 0
0, 0
0, 0
0, 0
0, 0
0, 0
0, 0
0, 0
0, 0
0, 0
0, 0
0, 0
0, 0
0, 0
0, 0
0, 0
0, 0
0, 0
0, 0
0, 0
0, 0
0, 0
0, 0
0, 0
0, 0
0, 0
0, 0
0, 0
0, 0
0, 0
0, 0
0, 0
0, 0
0, 0
0, 0
0, 0
0, 0
0, 0
0, 0
0, 0
0, 0
0, 0
0, 0
0, 0
0, 0
0, 0
0, 0
0, 0
0, 0
0, 0
0, 0
0, 0
0, 0
0, 0
0, 0
0, 0
0, 0
0, 0
0, 0
0, 0
0, 0
0, 0
0, 0
0, 0
0, 0
0, 0
0, 0
0, 0
0, 0
0, 0
0, 0
0, 0
0, 0
0, 0
0, 0
0, 0
0, 0
0, 0
0, 0
0, 0
0, 0
0, 0
0, 0
0, 0
0, 0
0, 0
0, 0
0, 0
0, 0
0, 0
0, 0
0, 0
0, 0
0, 0
0, 0
0, 0
0, 0
0, 0
0, 0
0, 0
0, 0
0, 0
0, 0
0, 0
0, 0
0, 0
0, 0
#ENDOFDATA     end of spectrum data