File: host_upload/12-01-2023/Dourbes (shot-by-shot)/upload_4/ps__0257_0689790785_000rfs_shot_3074.msa
#FORMAT      : EMSA/MAS spectral data file
#VERSION     : TC202v2.0 PIXL
#TITLE       : N/A
#DATE        :       Date in the format DD-MMM-YYYY, for example 07-JUL-2010
#TIME        :             The time of day at which the spectrum was recorded, in 24-hour format
#OWNER       : PIXL Flight Model       (PIXL will use this to indicate which instrument took the data.)
#NPOINTS     : 4096     Number of data points in the spectrum (This can be zero for configuration only files)
#NCOLUMNS    : 2     Number of data columns in the spectrum (This can be zero for configuration only files)
#XUNITS      : eV
#YUNITS      : COUNTS
#DATATYPE    : YY
#XPERCHAN    : 7.862, 7.881   eV per channel (separate by commas if more than one detector)
#OFFSET      : 18.5, -22.4         eV of first channel  (separate by commas if more than one detector
#SIGNALTYPE  : XRF
#YP_TEMP     : 3.23
#LIVETIME    : 9.05261, 9.05645   seconds (separate by commas if more than one detector)
#REALTIME    : 10, 10.0   seconds (separate by commas if more than one detector)
#SPECTRUM    : start of spectrum data
0, 0
0, 0
0, 0
0, 0
0, 0
0, 0
0, 0
0, 0
0, 0
0, 0
0, 0
0, 0
0, 0
0, 0
0, 0
0, 0
0, 0
0, 0
0, 0
0, 0
0, 0
0, 0
0, 0
0, 0
0, 0
0, 0
0, 0
0, 0
0, 0
0, 0
0, 0
0, 0
0, 0
1, 1
0, 2
0, 0
1, 2
1, 1
0, 2
0, 1
1, 2
2, 2
3, 2
0, 2
5, 8
2, 6
2, 1
2, 2
4, 3
7, 6
10, 8
31, 16
33, 29
51, 44
51, 44
41, 41
27, 31
12, 22
15, 10
5, 7
5, 2
5, 6
7, 5
7, 4
9, 7
13, 8
8, 7
12, 8
21, 21
50, 40
103, 102
218, 200
377, 367
560, 513
690, 646
649, 645
594, 567
369, 404
278, 231
147, 115
74, 68
40, 36
26, 21
17, 18
10, 6
9, 9
5, 5
7, 5
3, 1
1, 2
1, 2
0, 1
0, 3
1, 6
2, 6
2, 11
3, 8
5, 8
9, 7
3, 4
1, 3
5, 3
5, 4
4, 5
4, 4
1, 0
3, 1
5, 7
6, 11
8, 18
16, 18
17, 23
34, 33
33, 70
41, 91
33, 108
34, 147
39, 170
20, 182
28, 160
25, 145
19, 103
20, 69
11, 31
18, 30
14, 12
8, 17
19, 15
8, 9
4, 3
8, 9
3, 6
1, 5
4, 5
3, 6
4, 8
5, 6
4, 7
4, 8
6, 7
6, 19
1, 13
3, 12
4, 13
3, 6
9, 11
5, 5
6, 3
19, 11
24, 19
31, 37
56, 45
109, 116
207, 207
319, 323
406, 428
501, 599
578, 649
607, 575
463, 466
318, 308
206, 218
123, 117
65, 59
31, 28
33, 25
36, 25
37, 48
69, 61
61, 78
91, 88
95, 89
92, 69
63, 50
46, 39
37, 27
26, 23
19, 7
15, 6
7, 4
3, 6
8, 4
4, 3
6, 6
1, 5
6, 13
12, 13
10, 9
18, 16
12, 23
19, 27
20, 25
35, 25
14, 25
24, 20
23, 23
19, 21
23, 12
12, 19
13, 9
11, 8
12, 15
12, 5
10, 10
10, 4
8, 7
12, 13
16, 4
16, 5
14, 9
15, 8
18, 12
20, 7
14, 11
17, 10
12, 11
9, 12
7, 8
11, 11
7, 18
3, 10
8, 6
5, 4
6, 4
7, 14
14, 18
18, 18
16, 16
22, 27
26, 54
46, 60
36, 80
16, 103
33, 103
16, 123
9, 136
6, 119
12, 115
8, 75
4, 66
10, 50
7, 37
8, 17
7, 10
11, 14
16, 29
32, 35
36, 45
54, 62
58, 59
83, 89
89, 64
78, 64
78, 68
72, 60
71, 40
68, 25
63, 37
65, 24
61, 29
74, 27
95, 41
115, 41
151, 81
215, 156
322, 272
543, 523
798, 860
1230, 1333
1655, 1804
2210, 2312
2558, 2697
2662, 2751
2595, 2396
2205, 2018
1730, 1533
1200, 946
786, 587
432, 378
231, 203
133, 136
55, 98
38, 77
26, 56
12, 48
12, 32
5, 29
12, 31
16, 15
24, 19
18, 17
37, 30
42, 44
67, 78
96, 110
137, 169
220, 249
283, 281
376, 363
401, 380
391, 393
350, 373
298, 282
250, 207
168, 114
113, 73
70, 53
47, 30
25, 16
15, 9
6, 7
6, 8
2, 7
3, 5
7, 6
7, 8
7, 3
7, 8
8, 6
6, 5
6, 3
4, 6
10, 8
3, 3
6, 2
4, 5
3, 4
3, 5
3, 3
2, 8
3, 9
2, 5
4, 5
5, 7
1, 3
6, 9
6, 0
5, 5
6, 3
5, 3
9, 4
3, 2
7, 4
3, 7
9, 5
5, 3
6, 4
7, 7
4, 6
8, 5
11, 7
4, 4
6, 6
3, 6
6, 10
7, 4
8, 1
5, 5
7, 6
7, 5
4, 5
5, 2
3, 5
5, 8
5, 5
5, 4
1, 6
8, 1
5, 5
5, 5
4, 3
1, 2
2, 5
7, 3
1, 4
2, 7
5, 4
4, 1
1, 3
5, 3
3, 4
5, 4
2, 1
8, 2
5, 7
5, 6
11, 5
5, 3
6, 3
3, 3
3, 5
10, 4
5, 2
4, 4
2, 9
3, 5
8, 5
2, 10
1, 12
6, 13
0, 9
3, 12
2, 9
4, 15
2, 9
3, 9
2, 6
4, 6
1, 2
8, 6
6, 4
4, 3
2, 3
2, 2
3, 3
4, 1
4, 3
3, 4
7, 2
3, 2
7, 5
11, 6
4, 7
3, 4
5, 7
6, 5
5, 5
6, 9
5, 6
1, 6
5, 4
2, 4
2, 5
1, 4
2, 6
3, 4
3, 1
4, 6
5, 4
3, 3
4, 4
5, 3
6, 3
4, 3
4, 1
2, 1
5, 1
5, 6
6, 2
6, 3
2, 1
1, 3
6, 3
2, 5
3, 1
3, 2
1, 2
2, 4
5, 4
3, 1
1, 0
3, 5
2, 1
3, 2
4, 2
3, 3
2, 2
5, 2
2, 2
7, 4
4, 2
5, 2
3, 4
1, 1
4, 0
3, 2
6, 1
2, 2
2, 1
0, 0
2, 0
3, 3
4, 1
4, 0
4, 3
4, 5
3, 1
4, 5
2, 2
8, 0
5, 2
9, 3
7, 0
4, 0
7, 4
5, 1
5, 2
2, 0
4, 3
6, 1
1, 2
3, 4
5, 1
2, 3
3, 2
1, 2
3, 1
0, 0
3, 4
1, 2
2, 1
3, 5
4, 9
3, 3
5, 3
2, 5
5, 4
0, 7
0, 2
1, 6
1, 2
1, 6
1, 4
3, 2
2, 1
0, 0
1, 0
3, 0
3, 3
7, 1
1, 0
3, 2
2, 1
2, 5
0, 1
1, 2
5, 3
7, 7
3, 3
5, 3
3, 2
8, 7
5, 5
3, 4
6, 3
9, 4
2, 4
3, 2
1, 3
2, 4
3, 0
4, 1
1, 3
1, 1
3, 1
1, 3
1, 0
1, 0
1, 1
1, 3
1, 1
3, 3
2, 2
0, 1
2, 1
1, 1
1, 0
2, 1
3, 3
2, 1
3, 2
0, 0
1, 3
3, 4
0, 4
4, 1
0, 1
3, 2
4, 0
1, 3
0, 1
4, 2
4, 2
2, 2
1, 0
1, 0
3, 0
4, 1
1, 0
1, 0
1, 3
1, 2
2, 0
0, 5
1, 3
1, 0
2, 2
3, 0
2, 0
0, 2
0, 3
3, 1
0, 1
3, 0
0, 1
2, 1
2, 0
3, 0
3, 1
1, 2
2, 1
2, 2
0, 0
2, 0
0, 1
0, 4
2, 2
0, 1
0, 0
1, 0
1, 1
0, 1
0, 0
2, 1
0, 0
2, 1
1, 1
0, 0
0, 2
1, 3
1, 0
0, 2
2, 0
1, 0
1, 0
0, 0
3, 3
1, 0
1, 0
1, 1
1, 1
1, 0
2, 0
1, 0
0, 1
0, 0
1, 0
1, 2
1, 1
1, 0
0, 1
0, 0
0, 0
0, 1
0, 1
1, 2
0, 0
3, 1
0, 0
3, 0
0, 0
2, 0
1, 0
1, 0
1, 1
2, 0
2, 0
1, 0
2, 1
1, 0
0, 0
0, 0
0, 0
0, 0
1, 0
1, 0
2, 2
0, 0
0, 2
1, 0
2, 0
1, 1
1, 0
1, 0
0, 2
2, 0
0, 0
0, 0
0, 0
0, 1
1, 1
0, 1
0, 0
0, 0
0, 0
1, 0
1, 1
1, 1
0, 1
1, 0
1, 0
0, 0
1, 0
0, 0
0, 1
0, 1
0, 0
0, 2
1, 0
0, 0
1, 1
1, 0
1, 0
0, 1
0, 3
0, 0
1, 1
0, 1
0, 0
0, 0
0, 0
1, 1
0, 0
0, 0
0, 1
0, 0
0, 0
1, 0
1, 0
0, 0
1, 0
1, 0
1, 0
0, 1
0, 1
1, 1
1, 0
0, 0
0, 1
1, 0
0, 0
0, 0
0, 0
1, 0
0, 1
0, 0
1, 0
0, 0
1, 0
0, 0
0, 1
0, 0
1, 0
0, 0
0, 0
0, 0
0, 0
1, 1
1, 0
1, 0
0, 0
0, 0
0, 0
1, 0
0, 0
0, 0
1, 0
0, 0
1, 0
1, 0
0, 0
0, 0
1, 0
1, 0
0, 1
0, 0
0, 0
0, 1
1, 0
3, 0
0, 1
0, 0
1, 0
0, 0
0, 0
0, 0
0, 1
0, 0
0, 0
0, 1
0, 0
1, 0
1, 1
0, 1
0, 0
0, 0
0, 0
0, 0
1, 0
0, 0
1, 0
1, 0
0, 0
1, 0
0, 0
1, 0
0, 0
0, 0
0, 1
1, 0
1, 0
0, 1
0, 0
0, 0
0, 0
0, 0
1, 0
0, 0
0, 0
0, 0
0, 1
1, 1
0, 0
0, 0
0, 0
0, 0
0, 0
0, 0
0, 0
0, 0
0, 0
0, 0
0, 0
0, 0
0, 1
0, 0
0, 0
0, 0
1, 0
0, 0
0, 0
0, 0
0, 0
0, 0
0, 0
0, 0
0, 0
0, 1
0, 0
0, 1
1, 0
0, 0
0, 0
0, 0
0, 0
2, 1
0, 0
0, 0
0, 0
0, 0
0, 0
0, 0
0, 0
0, 1
0, 0
1, 0
0, 0
0, 0
0, 0
0, 0
0, 0
0, 0
0, 0
0, 0
0, 0
0, 0
1, 0
0, 0
1, 0
0, 0
0, 0
0, 0
0, 0
0, 0
0, 0
0, 0
0, 0
1, 0
0, 0
0, 0
0, 0
1, 0
0, 0
0, 1
0, 0
0, 0
1, 0
0, 0
0, 0
0, 0
1, 0
0, 0
0, 0
0, 0
0, 1
0, 0
0, 0
0, 0
0, 0
0, 0
0, 0
0, 0
0, 0
0, 1
0, 0
0, 0
0, 0
0, 0
0, 0
0, 0
0, 0
0, 0
0, 1
0, 0
0, 0
0, 0
1, 0
0, 0
0, 0
0, 0
0, 0
0, 0
1, 0
0, 0
0, 0
0, 0
0, 0
0, 0
0, 0
0, 0
0, 0
1, 0
0, 0
1, 0
0, 0
0, 0
0, 0
0, 0
0, 0
0, 0
0, 0
0, 0
0, 0
0, 0
0, 0
0, 0
0, 0
0, 0
0, 0
0, 0
0, 0
1, 0
0, 0
0, 0
0, 0
0, 0
0, 0
0, 0
0, 0
0, 0
0, 0
0, 0
0, 0
0, 0
0, 0
0, 0
0, 0
0, 0
0, 0
0, 0
0, 0
0, 0
0, 0
0, 0
0, 0
0, 0
0, 0
1, 0
0, 0
0, 0
0, 0
0, 0
0, 0
0, 0
0, 0
0, 0
0, 0
0, 0
0, 0
0, 0
0, 0
0, 0
0, 0
0, 0
0, 0
0, 0
0, 0
0, 0
0, 0
0, 0
0, 0
0, 0
0, 0
0, 0
0, 0
0, 0
0, 0
0, 0
0, 0
0, 0
0, 0
0, 0
0, 0
0, 0
0, 0
0, 0
0, 0
0, 0
0, 0
0, 0
0, 0
0, 0
0, 0
0, 0
0, 0
0, 0
0, 0
0, 0
0, 0
0, 0
0, 0
0, 0
0, 0
0, 0
0, 0
0, 0
0, 0
0, 0
0, 0
0, 0
0, 0
0, 0
0, 0
0, 0
0, 0
0, 0
0, 0
0, 0
0, 0
0, 0
0, 0
0, 0
0, 0
0, 0
0, 0
0, 0
0, 0
0, 0
0, 0
0, 0
0, 0
0, 0
0, 0
0, 0
0, 0
0, 0
0, 0
0, 0
0, 0
0, 0
0, 0
0, 0
0, 0
0, 0
0, 0
0, 0
0, 0
0, 0
0, 0
0, 0
0, 0
0, 0
0, 0
0, 0
0, 0
0, 0
0, 0
0, 0
0, 0
0, 0
0, 0
0, 0
0, 0
0, 0
0, 0
0, 0
0, 0
0, 0
0, 0
0, 0
0, 0
0, 0
0, 0
0, 0
0, 0
0, 0
0, 0
0, 0
0, 0
0, 0
0, 0
0, 0
0, 0
0, 0
0, 0
0, 0
0, 0
0, 0
0, 0
0, 0
0, 0
0, 0
0, 0
0, 0
0, 0
0, 0
0, 0
0, 0
0, 0
0, 0
0, 0
0, 0
0, 0
0, 0
0, 0
0, 0
0, 0
0, 0
0, 0
0, 0
0, 0
0, 0
0, 0
0, 0
0, 0
0, 0
0, 0
0, 0
0, 0
0, 0
0, 0
0, 0
0, 0
0, 0
0, 0
0, 0
0, 0
0, 0
0, 0
0, 0
0, 0
0, 0
0, 0
0, 0
0, 0
0, 0
0, 0
0, 0
0, 0
0, 0
0, 0
0, 0
0, 0
0, 0
0, 0
0, 0
0, 0
0, 0
0, 0
0, 0
0, 0
0, 0
0, 0
0, 0
0, 0
0, 0
0, 0
0, 0
0, 0
0, 0
0, 0
0, 0
0, 0
0, 0
0, 0
0, 0
0, 0
0, 0
0, 0
0, 0
0, 0
0, 0
0, 0
0, 0
0, 0
0, 0
0, 0
0, 0
0, 0
0, 0
0, 0
0, 0
0, 0
0, 0
0, 0
0, 0
0, 0
0, 0
0, 0
0, 0
0, 0
0, 0
0, 0
0, 0
0, 0
0, 0
0, 0
0, 0
0, 0
0, 0
0, 0
0, 0
0, 0
0, 0
0, 0
0, 0
0, 0
0, 0
0, 0
0, 0
0, 0
0, 0
0, 0
0, 0
0, 0
0, 0
0, 0
0, 0
0, 0
0, 0
0, 0
0, 0
0, 0
0, 0
0, 0
0, 0
0, 0
0, 0
0, 0
0, 0
0, 0
0, 0
0, 0
0, 0
0, 0
0, 0
0, 0
0, 0
0, 0
0, 0
0, 0
0, 0
0, 0
0, 0
0, 0
0, 0
0, 0
0, 0
0, 0
0, 0
0, 0
0, 0
0, 0
0, 0
0, 0
0, 0
0, 0
0, 0
0, 0
0, 0
0, 0
0, 0
0, 0
0, 0
0, 0
0, 0
0, 0
0, 0
0, 0
0, 0
0, 0
0, 0
0, 0
0, 0
0, 0
0, 0
0, 0
0, 0
0, 0
0, 0
0, 0
0, 0
0, 0
0, 0
0, 0
0, 0
0, 0
0, 0
0, 0
0, 0
0, 0
0, 0
0, 0
0, 0
0, 0
0, 0
0, 0
0, 0
0, 0
0, 0
0, 0
0, 0
0, 0
0, 0
0, 0
0, 0
0, 0
0, 0
0, 0
0, 0
0, 0
0, 0
0, 0
0, 0
0, 0
0, 0
0, 0
0, 0
0, 0
0, 0
0, 0
0, 0
0, 0
0, 0
0, 0
0, 0
#ENDOFDATA     end of spectrum data