File: host_upload/12-01-2023/Dourbes (shot-by-shot)/upload_4/ps__0257_0689790785_000rfs_shot_3187.msa
#FORMAT      : EMSA/MAS spectral data file
#VERSION     : TC202v2.0 PIXL
#TITLE       : N/A
#DATE        :       Date in the format DD-MMM-YYYY, for example 07-JUL-2010
#TIME        :             The time of day at which the spectrum was recorded, in 24-hour format
#OWNER       : PIXL Flight Model       (PIXL will use this to indicate which instrument took the data.)
#NPOINTS     : 4096     Number of data points in the spectrum (This can be zero for configuration only files)
#NCOLUMNS    : 2     Number of data columns in the spectrum (This can be zero for configuration only files)
#XUNITS      : eV
#YUNITS      : COUNTS
#DATATYPE    : YY
#XPERCHAN    : 7.862, 7.881   eV per channel (separate by commas if more than one detector)
#OFFSET      : 18.5, -22.4         eV of first channel  (separate by commas if more than one detector
#SIGNALTYPE  : XRF
#YP_TEMP     : 3.133
#LIVETIME    : 9.13984, 9.12723   seconds (separate by commas if more than one detector)
#REALTIME    : 10, 10.0   seconds (separate by commas if more than one detector)
#SPECTRUM    : start of spectrum data
0, 0
0, 0
0, 0
0, 0
0, 0
0, 0
0, 0
0, 0
0, 0
0, 0
0, 0
0, 0
0, 0
0, 0
0, 0
0, 0
0, 0
0, 0
0, 0
0, 0
0, 0
0, 0
0, 0
0, 0
0, 0
0, 0
0, 0
0, 0
0, 0
0, 0
0, 0
0, 0
0, 0
0, 0
0, 1
4, 0
1, 2
2, 0
3, 0
1, 1
2, 2
0, 0
1, 1
1, 4
2, 1
2, 0
2, 4
2, 0
4, 2
4, 5
17, 6
17, 22
29, 27
46, 34
53, 31
43, 34
31, 36
25, 31
14, 15
7, 7
4, 8
8, 7
10, 4
10, 13
12, 12
16, 9
11, 13
23, 17
22, 21
42, 46
140, 112
255, 260
462, 450
639, 666
819, 777
766, 766
644, 654
487, 497
287, 333
170, 168
93, 81
45, 50
36, 24
21, 20
17, 25
11, 8
7, 12
2, 4
6, 4
4, 6
4, 7
4, 8
2, 9
5, 5
6, 10
6, 5
6, 12
8, 13
8, 9
7, 1
3, 9
2, 5
4, 4
5, 4
5, 5
9, 6
5, 13
10, 10
5, 8
18, 10
16, 16
28, 22
25, 31
30, 47
58, 50
51, 48
34, 56
37, 53
33, 48
37, 41
29, 40
26, 36
19, 27
22, 36
23, 30
12, 22
17, 34
11, 29
13, 25
4, 18
7, 18
7, 13
3, 9
7, 11
7, 5
5, 7
5, 11
4, 3
3, 6
7, 6
3, 6
2, 4
2, 4
3, 4
7, 10
5, 6
8, 6
11, 10
9, 12
31, 20
42, 50
93, 110
176, 216
352, 403
588, 609
829, 916
1078, 1081
1159, 1131
1038, 1000
891, 835
657, 615
396, 368
230, 200
108, 92
74, 44
38, 43
61, 55
60, 78
97, 109
128, 141
172, 173
159, 186
131, 139
131, 127
86, 75
63, 46
35, 30
23, 21
12, 15
11, 3
5, 10
9, 12
4, 9
6, 8
6, 8
10, 13
13, 16
12, 15
21, 25
27, 45
35, 42
39, 24
37, 49
27, 26
30, 24
30, 17
19, 19
17, 16
11, 20
22, 7
17, 11
14, 7
19, 8
8, 10
9, 7
14, 10
6, 9
25, 5
10, 9
15, 14
17, 15
9, 7
14, 13
9, 14
16, 10
4, 7
6, 11
11, 7
3, 10
2, 15
5, 5
7, 11
4, 6
10, 7
16, 6
14, 19
23, 35
34, 28
46, 42
45, 57
62, 44
40, 55
48, 42
34, 40
24, 25
15, 20
14, 12
10, 17
9, 10
6, 13
2, 4
6, 6
7, 7
6, 16
13, 10
11, 26
19, 29
27, 28
39, 42
48, 63
62, 60
61, 54
66, 54
52, 44
44, 27
27, 31
40, 21
20, 25
25, 10
37, 12
44, 19
37, 15
81, 13
108, 47
148, 64
219, 189
320, 288
451, 529
629, 767
824, 1064
1172, 1238
1300, 1445
1365, 1452
1293, 1258
1131, 1026
817, 812
602, 549
369, 336
218, 213
126, 138
66, 84
33, 44
19, 39
10, 18
12, 13
8, 16
10, 14
12, 13
12, 11
13, 9
8, 15
16, 18
26, 24
53, 33
60, 55
80, 99
105, 146
139, 156
163, 181
209, 205
195, 195
185, 165
162, 134
125, 101
102, 75
61, 38
25, 27
18, 14
17, 15
9, 13
8, 15
5, 8
9, 9
6, 5
2, 4
12, 8
8, 11
11, 4
8, 5
9, 4
6, 6
11, 7
4, 2
6, 12
3, 7
3, 4
6, 5
7, 8
4, 5
8, 6
4, 7
4, 11
7, 6
9, 7
3, 5
4, 5
11, 8
5, 2
9, 3
9, 3
8, 6
8, 4
10, 5
4, 4
4, 6
7, 4
10, 4
4, 4
5, 6
3, 7
12, 6
8, 8
7, 5
12, 10
5, 9
6, 9
2, 9
5, 4
10, 4
5, 8
5, 3
3, 11
5, 6
3, 6
2, 5
2, 8
9, 5
6, 11
8, 7
5, 9
6, 9
5, 13
7, 5
2, 6
2, 9
6, 6
1, 1
7, 3
2, 3
6, 2
3, 4
4, 1
4, 1
3, 6
6, 4
6, 5
3, 6
7, 4
5, 5
5, 5
6, 7
11, 5
5, 6
7, 6
6, 9
3, 7
3, 17
5, 15
5, 23
9, 21
5, 24
4, 16
11, 25
6, 18
5, 17
5, 19
4, 15
4, 9
5, 8
2, 6
2, 3
4, 4
3, 3
3, 3
0, 2
7, 6
5, 7
5, 5
5, 4
7, 2
4, 4
10, 3
2, 7
5, 2
4, 9
4, 7
3, 4
6, 11
9, 3
4, 8
6, 5
3, 9
3, 10
2, 6
3, 7
3, 8
6, 5
2, 4
4, 3
2, 6
3, 5
6, 4
9, 5
4, 4
2, 2
1, 6
7, 5
4, 3
3, 1
2, 1
3, 3
1, 5
7, 1
3, 5
8, 6
1, 3
7, 6
0, 2
3, 6
3, 6
3, 4
0, 3
1, 3
2, 3
7, 1
5, 3
2, 5
1, 3
3, 2
4, 2
0, 3
2, 3
2, 2
4, 1
2, 2
4, 2
3, 2
1, 4
2, 1
2, 1
3, 1
6, 4
4, 1
3, 1
3, 6
7, 3
5, 3
9, 5
12, 4
11, 3
6, 2
8, 1
16, 4
4, 1
12, 1
8, 1
11, 4
2, 1
7, 1
5, 3
3, 6
2, 0
3, 2
5, 4
3, 4
4, 0
5, 1
1, 2
1, 1
3, 5
1, 2
7, 3
3, 3
2, 2
1, 3
2, 1
3, 4
2, 2
1, 7
4, 4
2, 6
1, 1
2, 3
4, 0
2, 3
3, 4
2, 1
1, 1
2, 4
4, 2
0, 2
3, 1
1, 2
2, 3
3, 4
1, 0
1, 0
3, 1
0, 1
5, 2
2, 1
1, 1
2, 2
5, 3
5, 1
5, 3
1, 3
4, 0
2, 1
0, 3
0, 3
2, 1
2, 1
3, 3
4, 0
3, 0
2, 0
2, 0
1, 2
4, 3
2, 2
1, 1
0, 1
6, 0
3, 2
2, 3
0, 0
2, 1
3, 1
3, 3
1, 5
0, 2
0, 2
2, 0
0, 1
0, 1
2, 0
2, 2
1, 4
2, 3
3, 0
1, 0
2, 0
1, 0
2, 0
1, 2
1, 3
1, 1
0, 1
2, 1
2, 1
1, 2
3, 0
0, 1
3, 3
2, 3
1, 5
3, 2
3, 4
2, 4
0, 1
0, 1
0, 0
4, 2
1, 0
0, 1
1, 1
1, 1
0, 0
2, 1
2, 2
2, 2
1, 0
2, 0
3, 1
1, 1
0, 1
0, 0
1, 0
0, 1
0, 2
2, 3
1, 1
0, 1
1, 0
0, 0
0, 2
5, 1
0, 0
1, 1
0, 0
0, 1
1, 0
0, 3
0, 0
1, 0
1, 3
1, 2
1, 3
0, 0
3, 1
0, 0
3, 2
2, 1
0, 2
2, 0
0, 1
0, 0
2, 0
2, 0
0, 1
2, 1
0, 0
1, 1
0, 2
2, 3
2, 1
1, 0
0, 1
2, 0
1, 4
1, 0
2, 0
1, 1
0, 1
0, 1
1, 1
1, 1
1, 1
0, 1
0, 2
1, 0
0, 1
0, 3
1, 0
1, 0
0, 2
0, 0
2, 0
2, 1
0, 0
1, 0
0, 0
0, 1
0, 3
0, 0
0, 0
0, 0
0, 0
1, 1
0, 0
0, 0
1, 2
0, 0
0, 1
0, 0
2, 1
0, 1
1, 1
0, 0
2, 1
1, 1
1, 0
0, 1
0, 0
1, 0
0, 0
0, 0
1, 1
0, 0
1, 1
1, 0
0, 0
2, 1
0, 0
0, 1
0, 1
2, 0
0, 0
0, 1
2, 0
0, 0
0, 0
0, 1
0, 0
0, 2
0, 1
0, 1
0, 0
1, 0
0, 0
1, 0
0, 1
0, 0
0, 0
0, 0
0, 0
0, 0
1, 0
1, 0
0, 1
0, 0
0, 1
0, 0
0, 1
1, 1
0, 0
0, 0
0, 0
0, 0
1, 0
0, 0
0, 0
0, 0
0, 0
0, 0
1, 1
0, 1
2, 0
1, 1
0, 1
0, 0
0, 0
1, 1
0, 0
0, 1
0, 0
1, 0
1, 1
0, 1
0, 0
0, 0
0, 0
0, 2
0, 0
1, 0
0, 2
0, 1
2, 0
3, 0
0, 1
1, 0
1, 0
0, 0
1, 0
1, 1
0, 0
0, 0
0, 0
1, 0
0, 0
0, 0
0, 1
0, 1
0, 0
0, 0
0, 0
0, 0
0, 0
0, 0
0, 0
0, 0
0, 1
0, 1
0, 2
2, 0
2, 0
0, 0
0, 0
0, 0
0, 0
1, 0
0, 0
1, 0
0, 0
0, 0
2, 0
2, 0
1, 0
0, 0
0, 0
0, 0
1, 0
0, 0
0, 0
0, 0
1, 0
0, 0
0, 0
0, 0
1, 0
1, 0
0, 0
0, 0
0, 0
0, 1
1, 0
0, 0
0, 0
0, 0
0, 0
0, 0
0, 0
0, 0
1, 0
0, 0
0, 0
0, 0
0, 1
0, 0
1, 0
0, 0
0, 1
0, 0
0, 0
0, 0
1, 0
0, 0
0, 0
0, 0
0, 0
0, 0
0, 0
0, 0
0, 0
0, 0
0, 0
0, 0
0, 0
0, 0
0, 0
0, 0
0, 0
0, 0
0, 0
0, 0
0, 1
0, 0
0, 0
0, 0
0, 0
0, 0
0, 0
1, 0
0, 1
0, 0
0, 0
0, 0
0, 0
1, 0
0, 0
0, 1
0, 0
0, 0
0, 0
0, 0
0, 1
0, 0
0, 0
0, 0
0, 0
0, 0
0, 0
0, 0
0, 0
0, 0
0, 0
0, 0
0, 0
0, 0
0, 0
0, 0
0, 0
0, 1
0, 0
0, 0
0, 0
0, 0
0, 0
0, 0
0, 0
1, 0
0, 0
0, 0
0, 0
0, 0
0, 0
0, 0
0, 0
0, 0
0, 0
0, 0
0, 0
0, 0
0, 0
0, 0
0, 0
0, 0
0, 0
0, 0
0, 0
0, 0
1, 0
0, 0
0, 0
0, 0
0, 0
0, 0
0, 0
0, 0
0, 0
0, 0
0, 0
0, 0
0, 0
0, 0
1, 0
0, 0
0, 0
0, 0
0, 0
0, 0
0, 0
0, 0
0, 0
0, 0
0, 0
0, 0
0, 0
0, 0
0, 0
0, 0
0, 0
0, 0
0, 0
0, 0
0, 0
0, 1
0, 0
0, 0
0, 0
0, 0
0, 0
0, 0
0, 0
0, 0
0, 0
0, 0
0, 0
0, 0
0, 0
0, 0
0, 0
0, 0
0, 0
0, 0
0, 0
0, 0
0, 0
0, 0
0, 0
0, 0
0, 0
0, 0
0, 0
0, 0
0, 0
0, 0
0, 0
0, 0
0, 0
0, 0
0, 0
0, 0
0, 0
0, 0
0, 0
0, 0
0, 0
0, 0
0, 0
0, 0
0, 0
0, 0
0, 0
0, 0
0, 0
0, 0
0, 0
0, 0
0, 0
0, 0
0, 0
0, 0
0, 0
0, 0
0, 0
0, 0
0, 0
0, 0
0, 0
0, 0
0, 0
0, 0
0, 0
0, 0
0, 0
0, 0
0, 0
0, 0
0, 0
0, 0
0, 0
0, 0
0, 0
0, 0
0, 0
0, 0
0, 0
0, 0
0, 0
0, 0
0, 0
0, 0
0, 0
0, 0
0, 0
0, 0
0, 0
0, 0
0, 0
0, 0
0, 0
0, 0
0, 0
0, 0
0, 0
0, 0
0, 0
0, 0
0, 0
0, 0
0, 0
0, 0
0, 0
0, 0
0, 0
0, 0
0, 0
0, 0
0, 0
0, 0
0, 0
0, 0
0, 0
0, 0
0, 0
0, 0
0, 0
0, 0
0, 0
0, 0
0, 0
0, 0
0, 0
0, 0
0, 0
0, 0
0, 0
0, 0
0, 0
0, 0
0, 0
0, 0
0, 0
0, 0
0, 0
0, 0
0, 0
0, 0
0, 0
0, 0
0, 0
0, 0
0, 0
0, 0
0, 0
0, 0
0, 0
0, 0
0, 0
0, 0
0, 0
0, 0
0, 0
0, 0
0, 0
0, 0
0, 0
0, 0
0, 0
0, 0
0, 0
0, 0
0, 0
0, 0
0, 0
0, 0
0, 0
0, 0
0, 0
0, 0
0, 0
0, 0
0, 0
0, 0
0, 0
0, 0
0, 0
0, 0
0, 0
0, 0
0, 0
0, 0
0, 0
0, 0
0, 0
0, 0
0, 0
0, 0
0, 0
0, 0
0, 0
0, 0
0, 0
0, 0
0, 0
0, 0
0, 0
0, 0
0, 0
0, 0
0, 0
0, 0
0, 0
0, 0
0, 0
0, 0
0, 0
0, 0
0, 0
0, 0
0, 0
0, 0
0, 0
0, 0
0, 0
0, 0
0, 0
0, 0
0, 0
0, 0
0, 0
0, 0
0, 0
0, 0
0, 0
0, 0
0, 0
0, 0
0, 0
0, 0
0, 0
0, 0
0, 0
0, 0
0, 0
0, 0
0, 0
0, 0
0, 0
0, 0
0, 0
0, 0
0, 0
0, 0
0, 0
0, 0
0, 0
0, 0
0, 0
0, 0
0, 0
0, 0
0, 0
0, 0
0, 0
0, 0
0, 0
0, 0
0, 0
0, 0
0, 0
0, 0
0, 0
0, 0
0, 0
0, 0
0, 0
0, 0
0, 0
0, 0
0, 0
0, 0
0, 0
0, 0
0, 0
0, 0
0, 0
0, 0
0, 0
0, 0
0, 0
0, 0
0, 0
0, 0
0, 0
0, 0
0, 0
0, 0
0, 0
0, 0
0, 0
0, 0
0, 0
0, 0
0, 0
0, 0
0, 0
0, 0
0, 0
0, 0
0, 0
0, 0
0, 0
0, 0
0, 0
0, 0
0, 0
0, 0
0, 0
0, 0
0, 0
0, 0
0, 0
0, 0
0, 0
0, 0
0, 0
0, 0
0, 0
0, 0
0, 0
0, 0
0, 0
0, 0
0, 0
0, 0
0, 0
0, 0
0, 0
0, 0
0, 0
0, 0
0, 0
0, 0
0, 0
0, 0
0, 0
0, 0
0, 0
0, 0
0, 0
0, 0
0, 0
0, 0
0, 0
0, 0
0, 0
0, 0
0, 0
0, 0
0, 0
0, 0
0, 0
0, 0
0, 0
0, 0
0, 0
0, 0
0, 0
0, 0
0, 0
0, 0
0, 0
0, 0
0, 0
0, 0
0, 0
0, 0
0, 0
0, 0
0, 0
0, 0
0, 0
0, 0
0, 0
0, 0
0, 0
0, 0
0, 0
0, 0
0, 0
0, 0
0, 0
0, 0
#ENDOFDATA     end of spectrum data