File: host_upload/12-01-2023/Dourbes (shot-by-shot)/upload_4/ps__0257_0689790785_000rfs_shot_3313.msa
#FORMAT      : EMSA/MAS spectral data file
#VERSION     : TC202v2.0 PIXL
#TITLE       : N/A
#DATE        :       Date in the format DD-MMM-YYYY, for example 07-JUL-2010
#TIME        :             The time of day at which the spectrum was recorded, in 24-hour format
#OWNER       : PIXL Flight Model       (PIXL will use this to indicate which instrument took the data.)
#NPOINTS     : 4096     Number of data points in the spectrum (This can be zero for configuration only files)
#NCOLUMNS    : 2     Number of data columns in the spectrum (This can be zero for configuration only files)
#XUNITS      : eV
#YUNITS      : COUNTS
#DATATYPE    : YY
#XPERCHAN    : 7.862, 7.881   eV per channel (separate by commas if more than one detector)
#OFFSET      : 18.5, -22.4         eV of first channel  (separate by commas if more than one detector
#SIGNALTYPE  : XRF
#YP_TEMP     : 3.198
#LIVETIME    : 9.13409, 9.13922   seconds (separate by commas if more than one detector)
#REALTIME    : 10, 10.0   seconds (separate by commas if more than one detector)
#SPECTRUM    : start of spectrum data
0, 0
0, 0
0, 0
0, 0
0, 0
0, 0
0, 0
0, 0
0, 0
0, 0
0, 0
0, 0
0, 0
0, 0
0, 0
0, 0
0, 0
0, 0
0, 0
0, 0
0, 0
0, 0
0, 0
0, 0
0, 0
0, 0
0, 0
0, 0
0, 0
0, 0
0, 0
0, 0
0, 0
0, 1
1, 0
0, 1
1, 0
1, 3
3, 0
2, 3
2, 1
3, 1
5, 1
5, 0
5, 2
3, 1
0, 4
5, 0
2, 2
8, 7
18, 9
20, 23
32, 30
40, 42
55, 43
36, 36
30, 27
22, 19
17, 4
5, 8
7, 3
9, 2
3, 6
11, 5
4, 10
8, 14
8, 12
16, 11
15, 24
63, 50
125, 144
310, 273
509, 456
721, 653
859, 883
904, 898
715, 730
478, 504
311, 310
157, 153
78, 82
42, 56
31, 20
14, 25
16, 13
6, 13
9, 7
4, 5
4, 1
3, 2
4, 1
3, 1
1, 2
7, 4
4, 6
3, 3
11, 7
9, 10
12, 6
13, 11
14, 9
6, 1
5, 5
8, 3
2, 4
7, 6
10, 7
19, 9
38, 25
78, 28
143, 50
210, 52
355, 53
446, 78
503, 52
504, 50
414, 42
287, 38
180, 31
113, 22
67, 23
44, 29
23, 29
22, 23
24, 34
19, 21
15, 17
7, 16
10, 11
13, 9
4, 5
5, 5
6, 3
5, 5
7, 5
3, 4
4, 4
3, 5
3, 5
3, 6
3, 9
6, 2
7, 6
4, 3
3, 3
5, 8
2, 5
9, 7
12, 7
16, 24
38, 40
81, 77
182, 220
308, 348
507, 588
729, 817
902, 982
992, 1097
934, 906
773, 726
520, 570
390, 305
227, 182
94, 71
56, 47
36, 35
50, 45
58, 84
100, 117
121, 125
167, 153
177, 152
137, 154
96, 84
87, 66
52, 35
36, 26
19, 12
7, 14
6, 5
4, 3
6, 4
1, 1
4, 3
8, 6
7, 6
10, 9
18, 20
19, 18
33, 20
36, 45
45, 44
47, 38
47, 28
27, 24
26, 24
14, 20
23, 17
15, 5
7, 5
9, 9
10, 1
5, 7
2, 4
5, 5
7, 10
9, 10
9, 6
7, 11
14, 8
9, 10
16, 9
11, 6
7, 12
5, 10
7, 4
5, 3
4, 1
5, 3
8, 5
1, 4
5, 3
3, 3
7, 6
11, 10
21, 23
27, 15
48, 34
45, 53
42, 55
53, 44
56, 40
37, 35
27, 24
24, 21
7, 16
12, 7
11, 4
9, 8
8, 7
5, 11
3, 4
9, 5
5, 11
10, 15
9, 12
19, 20
33, 32
33, 43
51, 64
49, 55
37, 61
52, 66
36, 48
25, 33
23, 27
20, 28
20, 25
9, 12
12, 17
11, 9
11, 17
19, 19
32, 36
70, 95
126, 151
238, 234
390, 421
591, 658
795, 894
1078, 1174
1224, 1257
1310, 1299
1182, 1082
1102, 948
766, 699
577, 414
392, 280
214, 155
115, 68
92, 39
46, 23
35, 13
17, 12
12, 11
9, 11
8, 10
7, 12
8, 8
9, 16
13, 8
14, 16
17, 22
41, 40
55, 56
66, 106
118, 116
137, 159
148, 179
193, 208
169, 206
191, 148
152, 146
124, 93
93, 53
55, 43
29, 20
22, 15
18, 8
17, 6
16, 7
26, 5
18, 6
21, 7
30, 2
38, 6
42, 5
36, 5
38, 8
22, 5
25, 8
22, 7
17, 8
11, 1
10, 7
11, 3
5, 11
1, 7
8, 7
7, 7
4, 5
1, 8
6, 6
4, 7
8, 9
6, 3
10, 4
10, 2
5, 6
7, 1
8, 1
10, 4
12, 6
5, 3
8, 11
6, 8
6, 7
10, 7
3, 4
6, 4
7, 7
3, 5
2, 8
3, 6
4, 8
3, 20
4, 10
5, 13
5, 15
2, 16
2, 11
7, 11
2, 11
5, 11
5, 6
6, 12
7, 4
7, 3
3, 5
4, 2
3, 6
4, 4
4, 1
6, 8
7, 4
4, 3
6, 3
3, 6
4, 5
9, 7
5, 9
5, 6
11, 4
8, 5
3, 4
3, 3
7, 8
9, 3
7, 5
6, 8
3, 9
3, 8
5, 2
3, 6
0, 9
2, 8
2, 2
2, 4
2, 10
1, 6
3, 7
3, 7
3, 7
8, 5
2, 6
3, 11
4, 8
5, 7
3, 18
2, 14
4, 21
4, 18
6, 29
2, 21
4, 27
3, 29
4, 15
3, 18
2, 9
1, 3
5, 7
8, 3
5, 5
4, 4
11, 2
10, 4
3, 2
16, 3
16, 6
2, 8
6, 4
5, 5
0, 2
4, 2
6, 3
6, 4
4, 5
3, 1
6, 0
4, 1
2, 3
3, 1
4, 4
4, 5
3, 1
4, 4
5, 2
1, 5
3, 1
4, 2
2, 1
0, 3
1, 5
0, 2
4, 2
5, 2
3, 3
1, 4
3, 2
4, 2
6, 2
5, 3
5, 2
5, 2
5, 0
6, 5
5, 0
6, 1
7, 4
1, 4
3, 2
6, 1
0, 3
1, 6
4, 2
1, 2
5, 5
2, 5
1, 5
1, 3
2, 2
2, 2
1, 4
4, 10
0, 2
1, 3
2, 3
3, 6
2, 3
2, 4
0, 3
2, 6
3, 6
1, 1
0, 2
2, 3
2, 2
1, 1
2, 3
0, 5
1, 4
1, 4
4, 4
4, 5
4, 3
3, 7
1, 2
4, 5
6, 2
3, 2
5, 3
5, 2
3, 3
6, 3
8, 3
5, 2
5, 2
12, 0
5, 5
3, 2
3, 3
4, 2
0, 0
2, 4
6, 1
2, 1
5, 2
3, 0
4, 2
1, 2
2, 0
1, 3
1, 3
1, 1
1, 0
4, 3
1, 0
1, 2
2, 1
3, 2
0, 2
2, 3
2, 0
2, 5
2, 0
3, 1
0, 3
1, 0
2, 2
3, 0
5, 0
3, 0
2, 2
0, 0
3, 1
0, 1
3, 0
2, 0
1, 1
1, 3
2, 0
0, 1
2, 2
3, 1
0, 0
0, 1
0, 1
1, 1
4, 0
1, 0
1, 2
1, 3
3, 1
1, 3
1, 3
2, 0
0, 2
1, 4
2, 1
1, 2
2, 1
2, 3
0, 2
2, 1
1, 1
0, 1
1, 1
1, 1
1, 1
1, 1
1, 1
3, 0
1, 1
2, 1
1, 2
3, 0
1, 0
1, 1
1, 1
5, 0
2, 0
0, 1
1, 0
2, 1
1, 2
2, 1
0, 1
1, 0
2, 0
1, 1
1, 0
1, 1
2, 1
1, 0
2, 0
2, 2
0, 1
2, 0
0, 1
0, 0
0, 0
1, 0
2, 0
0, 1
0, 0
0, 0
3, 1
2, 0
1, 0
1, 0
1, 0
2, 1
2, 1
0, 0
0, 1
2, 2
2, 0
0, 0
1, 1
1, 0
1, 0
0, 1
1, 0
0, 1
0, 0
0, 1
0, 1
0, 2
2, 1
0, 0
2, 0
1, 0
2, 0
0, 0
1, 0
1, 1
0, 1
1, 2
0, 2
2, 1
0, 0
0, 0
0, 0
0, 0
1, 0
1, 1
0, 0
0, 0
0, 0
2, 0
0, 0
0, 0
0, 0
0, 3
1, 0
2, 1
0, 4
1, 0
2, 1
1, 0
0, 0
1, 0
0, 0
1, 1
0, 0
0, 0
0, 2
1, 1
1, 1
0, 0
2, 0
0, 0
0, 0
0, 0
0, 1
0, 0
1, 0
0, 0
0, 0
0, 1
0, 2
0, 1
1, 0
1, 0
0, 0
0, 2
0, 1
2, 0
0, 0
1, 0
1, 0
0, 0
0, 0
1, 1
0, 0
1, 0
0, 1
0, 0
0, 1
1, 1
2, 0
0, 0
1, 0
0, 2
1, 0
0, 0
0, 0
0, 0
0, 0
0, 0
0, 1
0, 0
0, 0
0, 1
1, 0
0, 0
1, 1
0, 2
0, 0
0, 0
0, 0
2, 0
0, 0
0, 0
0, 0
0, 0
0, 0
2, 1
0, 0
0, 0
0, 0
0, 1
1, 0
0, 0
0, 0
1, 0
0, 1
0, 0
1, 0
0, 1
0, 0
0, 0
0, 0
0, 0
0, 1
0, 0
0, 0
0, 1
0, 0
1, 0
0, 0
0, 0
0, 0
0, 0
0, 0
0, 0
1, 0
0, 0
0, 0
0, 0
0, 1
1, 0
0, 0
0, 0
0, 0
0, 0
0, 0
1, 1
0, 1
1, 0
0, 0
1, 0
1, 0
1, 1
0, 1
0, 0
0, 0
0, 0
0, 0
0, 1
0, 0
0, 0
1, 0
0, 0
0, 0
0, 0
1, 1
0, 0
0, 0
0, 0
0, 0
0, 0
0, 0
0, 0
1, 0
0, 0
0, 0
0, 0
0, 2
0, 0
0, 0
1, 0
0, 0
0, 0
0, 0
0, 0
0, 0
0, 0
0, 0
0, 0
0, 0
0, 0
0, 0
0, 1
0, 0
0, 0
0, 0
0, 0
0, 0
0, 0
0, 0
0, 0
0, 0
0, 0
0, 0
0, 0
0, 0
0, 0
0, 0
0, 0
0, 0
0, 0
0, 0
1, 0
0, 0
0, 0
0, 0
0, 1
0, 0
0, 1
0, 0
0, 0
0, 0
0, 0
0, 0
0, 0
0, 0
1, 0
0, 0
0, 0
0, 0
0, 0
0, 0
0, 0
0, 0
0, 0
0, 0
0, 0
0, 0
0, 0
0, 0
0, 0
0, 0
0, 0
0, 0
0, 0
0, 0
0, 0
0, 0
0, 0
0, 0
0, 0
0, 1
0, 0
0, 0
0, 0
0, 0
0, 0
0, 0
0, 0
0, 0
0, 1
0, 0
0, 0
0, 0
0, 0
1, 0
0, 0
0, 0
0, 0
0, 2
0, 0
0, 0
0, 0
2, 0
0, 0
0, 0
0, 0
0, 1
0, 0
0, 0
0, 0
0, 0
0, 0
0, 0
0, 1
0, 0
0, 0
0, 0
0, 0
0, 0
0, 0
0, 0
0, 0
0, 0
0, 0
0, 0
1, 0
0, 0
0, 0
0, 0
0, 1
0, 0
0, 0
0, 0
0, 0
0, 0
0, 0
0, 0
0, 0
0, 0
0, 0
0, 0
0, 0
0, 0
0, 0
0, 1
0, 0
0, 0
0, 0
0, 0
0, 0
0, 0
0, 0
0, 0
0, 0
0, 0
0, 0
0, 0
0, 0
0, 0
0, 0
0, 0
0, 0
0, 0
0, 0
0, 0
0, 0
0, 0
0, 0
0, 0
0, 0
0, 0
0, 0
0, 0
0, 0
0, 0
0, 0
0, 0
0, 0
0, 0
0, 0
0, 0
0, 0
0, 0
0, 0
0, 0
0, 0
0, 0
0, 0
0, 0
0, 0
0, 0
0, 0
0, 0
0, 0
0, 0
0, 0
0, 0
0, 0
0, 0
0, 0
0, 0
0, 0
0, 0
0, 0
0, 0
0, 0
0, 0
0, 0
0, 0
0, 0
0, 0
0, 0
0, 0
0, 0
0, 0
0, 0
0, 0
0, 0
0, 0
0, 0
0, 0
0, 0
0, 0
0, 0
0, 0
0, 0
0, 0
0, 0
0, 0
0, 0
0, 0
0, 0
0, 0
0, 0
0, 0
0, 0
0, 0
0, 0
0, 0
0, 0
0, 0
0, 0
0, 0
0, 0
0, 0
0, 0
0, 0
0, 0
0, 0
0, 0
0, 0
0, 0
0, 0
0, 0
0, 0
0, 0
0, 0
0, 0
0, 0
0, 0
0, 0
0, 0
0, 0
0, 0
0, 0
0, 0
0, 0
0, 0
0, 0
0, 0
0, 0
0, 0
0, 0
0, 0
0, 0
0, 0
0, 0
0, 0
0, 0
0, 0
0, 0
0, 0
0, 0
0, 0
0, 0
0, 0
0, 0
0, 0
0, 0
0, 0
0, 0
0, 0
0, 0
0, 0
0, 0
0, 0
0, 0
0, 0
0, 0
0, 0
0, 0
0, 0
0, 0
0, 0
0, 0
0, 0
0, 0
0, 0
0, 0
0, 0
0, 0
0, 0
0, 0
0, 0
0, 0
0, 0
0, 0
0, 0
0, 0
0, 0
0, 0
0, 0
0, 0
0, 0
0, 0
0, 0
0, 0
0, 0
0, 0
0, 0
0, 0
0, 0
0, 0
0, 0
0, 0
0, 0
0, 0
0, 0
0, 0
0, 0
0, 0
0, 0
0, 0
0, 0
0, 0
0, 0
0, 0
0, 0
0, 0
0, 0
0, 0
0, 0
0, 0
0, 0
0, 0
0, 0
0, 0
0, 0
0, 0
0, 0
0, 0
0, 0
0, 0
0, 0
0, 0
0, 0
0, 0
0, 0
0, 0
0, 0
0, 0
0, 0
0, 0
0, 0
0, 0
0, 0
0, 0
0, 0
0, 0
0, 0
0, 0
0, 0
0, 0
0, 0
0, 0
0, 0
0, 0
0, 0
0, 0
0, 0
0, 0
0, 0
0, 0
0, 0
0, 0
0, 0
0, 0
0, 0
0, 0
0, 0
0, 0
0, 0
0, 0
0, 0
0, 0
0, 0
0, 0
0, 0
0, 0
0, 0
0, 0
0, 0
0, 0
0, 0
0, 0
0, 0
0, 0
0, 0
0, 0
0, 0
0, 0
0, 0
0, 0
0, 0
0, 0
0, 0
0, 0
0, 0
0, 0
0, 0
0, 0
0, 0
0, 0
0, 0
0, 0
0, 0
0, 0
0, 0
0, 0
0, 0
0, 0
0, 0
0, 0
0, 0
0, 0
0, 0
0, 0
0, 0
0, 0
0, 0
0, 0
0, 0
0, 0
0, 0
0, 0
0, 0
0, 0
0, 0
0, 0
0, 0
0, 0
0, 0
0, 0
0, 0
0, 0
0, 0
0, 0
0, 0
0, 0
0, 0
0, 0
0, 0
0, 0
0, 0
0, 0
0, 0
0, 0
0, 0
0, 0
0, 0
0, 0
0, 0
0, 0
0, 0
0, 0
0, 0
0, 0
0, 0
0, 0
0, 0
0, 0
0, 0
0, 0
0, 0
0, 0
0, 0
0, 0
0, 0
0, 0
0, 0
0, 0
0, 0
0, 0
0, 0
0, 0
0, 0
0, 0
0, 0
0, 0
0, 0
0, 0
0, 0
0, 0
0, 0
0, 0
0, 0
0, 0
0, 0
0, 0
0, 0
0, 0
0, 0
0, 0
0, 0
0, 0
0, 0
0, 0
0, 0
0, 0
0, 0
0, 0
0, 0
0, 0
0, 0
0, 0
0, 0
0, 0
0, 0
0, 0
0, 0
0, 0
0, 0
0, 0
0, 0
0, 0
0, 0
0, 0
0, 0
0, 0
0, 0
0, 0
0, 0
0, 0
0, 0
#ENDOFDATA     end of spectrum data