File: host_upload/12-01-2023/Dourbes (shot-by-shot)/upload_4/ps__0257_0689790785_000rfs_shot_3218.msa
#FORMAT      : EMSA/MAS spectral data file
#VERSION     : TC202v2.0 PIXL
#TITLE       : N/A
#DATE        :       Date in the format DD-MMM-YYYY, for example 07-JUL-2010
#TIME        :             The time of day at which the spectrum was recorded, in 24-hour format
#OWNER       : PIXL Flight Model       (PIXL will use this to indicate which instrument took the data.)
#NPOINTS     : 4096     Number of data points in the spectrum (This can be zero for configuration only files)
#NCOLUMNS    : 2     Number of data columns in the spectrum (This can be zero for configuration only files)
#XUNITS      : eV
#YUNITS      : COUNTS
#DATATYPE    : YY
#XPERCHAN    : 7.862, 7.881   eV per channel (separate by commas if more than one detector)
#OFFSET      : 18.5, -22.4         eV of first channel  (separate by commas if more than one detector
#SIGNALTYPE  : XRF
#YP_TEMP     : 3.39
#LIVETIME    : 9.01591, 9.03484   seconds (separate by commas if more than one detector)
#REALTIME    : 10, 10.0   seconds (separate by commas if more than one detector)
#SPECTRUM    : start of spectrum data
0, 0
0, 0
0, 0
0, 0
0, 0
0, 0
0, 0
0, 0
0, 0
0, 0
0, 0
0, 0
0, 0
0, 0
0, 0
0, 0
0, 0
0, 0
0, 0
0, 0
0, 0
0, 0
0, 0
0, 0
0, 0
0, 0
0, 0
0, 0
0, 0
0, 0
0, 0
0, 0
1, 0
0, 2
0, 1
2, 0
0, 1
0, 4
2, 1
0, 0
1, 0
2, 3
2, 3
1, 1
2, 1
0, 1
0, 1
3, 2
7, 3
5, 2
14, 11
29, 22
46, 21
54, 51
52, 43
70, 48
40, 26
20, 18
14, 10
3, 9
2, 2
1, 1
2, 0
2, 3
5, 1
4, 1
5, 3
3, 4
12, 8
24, 31
79, 73
162, 168
284, 230
416, 364
503, 433
482, 451
404, 386
318, 257
177, 156
108, 98
59, 44
22, 18
17, 9
10, 5
3, 4
6, 8
1, 3
1, 6
3, 4
1, 1
11, 3
22, 6
30, 6
35, 17
57, 20
84, 50
127, 105
135, 115
150, 138
139, 123
134, 103
78, 79
56, 51
31, 27
33, 23
14, 19
15, 11
10, 14
22, 11
27, 27
41, 44
55, 46
46, 51
64, 61
55, 69
46, 73
49, 58
56, 32
35, 51
43, 31
36, 25
21, 27
28, 27
22, 28
25, 23
20, 18
14, 18
17, 16
15, 8
4, 12
7, 7
2, 7
7, 4
3, 4
7, 2
1, 3
4, 2
3, 8
4, 2
5, 4
1, 5
4, 2
1, 3
6, 4
5, 1
1, 3
2, 5
4, 2
2, 1
1, 1
6, 6
3, 7
7, 18
11, 19
24, 29
41, 38
34, 65
43, 69
34, 69
26, 58
26, 48
21, 25
16, 25
4, 18
1, 7
5, 4
5, 7
4, 5
5, 7
9, 6
5, 12
10, 9
13, 10
6, 5
6, 2
6, 7
3, 4
5, 3
6, 6
4, 5
4, 4
3, 7
6, 5
1, 8
8, 1
5, 1
3, 3
2, 5
9, 8
6, 9
4, 12
14, 12
12, 17
18, 18
22, 21
24, 9
12, 15
19, 22
31, 23
13, 11
21, 16
15, 9
6, 7
13, 15
9, 4
3, 10
8, 3
10, 6
9, 4
7, 8
11, 7
12, 13
9, 6
8, 5
8, 4
7, 7
12, 9
5, 5
13, 12
7, 8
12, 6
8, 13
8, 9
13, 8
7, 10
7, 17
14, 22
11, 36
14, 45
20, 49
9, 81
14, 77
9, 85
11, 106
8, 87
7, 70
16, 67
6, 42
14, 23
15, 28
7, 15
21, 15
7, 12
15, 18
22, 19
39, 22
44, 31
54, 47
87, 74
94, 88
99, 96
122, 100
117, 107
86, 64
67, 52
53, 35
25, 21
13, 18
18, 17
24, 14
26, 18
33, 30
36, 57
94, 89
189, 183
356, 367
589, 653
1107, 1180
1680, 1701
2327, 2440
2987, 2964
3548, 3332
3848, 3363
3641, 2889
3050, 2375
2268, 1781
1683, 1210
1087, 723
637, 398
326, 211
161, 106
100, 50
60, 39
41, 17
19, 13
30, 16
33, 10
26, 25
28, 19
29, 27
36, 29
47, 38
57, 45
92, 81
159, 156
216, 193
251, 304
390, 394
475, 453
529, 484
547, 469
486, 423
428, 346
288, 245
234, 152
140, 94
82, 65
50, 20
24, 13
10, 13
8, 9
8, 2
5, 5
7, 4
11, 13
12, 11
5, 12
6, 13
4, 12
13, 6
8, 5
5, 3
10, 4
5, 3
3, 7
2, 2
1, 1
5, 0
6, 4
6, 3
0, 4
3, 4
4, 7
5, 2
2, 1
4, 2
4, 4
4, 3
6, 4
8, 5
3, 4
5, 3
4, 4
4, 6
3, 7
3, 8
3, 2
3, 6
10, 1
4, 2
10, 2
7, 3
2, 2
2, 7
4, 3
4, 1
4, 0
1, 2
1, 5
3, 5
8, 3
2, 2
5, 10
2, 1
5, 7
3, 4
4, 6
3, 2
5, 7
2, 5
3, 7
3, 4
4, 12
5, 12
2, 7
2, 13
3, 11
2, 9
7, 11
3, 4
5, 5
6, 1
4, 4
4, 2
6, 2
6, 3
4, 1
7, 3
9, 4
6, 6
3, 4
7, 2
2, 6
3, 4
3, 5
0, 0
4, 4
5, 7
0, 5
0, 3
4, 3
3, 3
3, 4
4, 4
3, 5
2, 3
1, 3
5, 8
2, 6
5, 5
0, 8
0, 6
4, 1
0, 4
2, 2
6, 6
1, 1
1, 0
4, 3
3, 0
1, 2
8, 3
3, 2
2, 4
2, 4
1, 2
5, 2
5, 3
3, 3
5, 2
2, 1
4, 1
3, 2
5, 0
3, 1
3, 6
3, 0
6, 4
6, 4
6, 0
1, 3
5, 3
3, 1
2, 2
4, 3
2, 3
1, 1
3, 3
5, 6
3, 1
5, 6
0, 3
3, 3
3, 2
1, 2
3, 3
2, 4
3, 2
3, 5
4, 5
1, 5
4, 6
4, 6
4, 8
2, 13
3, 3
0, 7
1, 8
2, 2
3, 2
3, 4
3, 3
0, 3
3, 4
2, 3
2, 2
4, 0
6, 2
3, 5
4, 0
5, 1
3, 1
1, 1
4, 1
3, 3
3, 3
2, 1
1, 3
2, 1
2, 3
4, 4
1, 1
4, 2
1, 0
3, 0
3, 1
2, 5
1, 6
1, 3
0, 2
1, 1
1, 0
2, 0
1, 2
2, 4
0, 0
1, 2
1, 2
0, 2
2, 1
0, 1
1, 0
1, 1
1, 3
2, 2
2, 1
4, 2
5, 2
1, 3
1, 2
2, 1
2, 0
3, 2
7, 4
2, 2
6, 2
5, 1
0, 1
3, 3
1, 2
1, 0
3, 1
5, 1
1, 2
1, 2
3, 0
6, 4
3, 4
8, 4
6, 5
3, 1
10, 4
3, 2
5, 4
6, 4
7, 2
5, 1
3, 2
3, 2
2, 2
4, 0
1, 0
2, 2
2, 0
0, 0
2, 2
2, 0
2, 2
1, 0
2, 0
1, 1
0, 0
0, 3
3, 2
4, 4
2, 2
2, 3
3, 3
3, 3
0, 1
5, 4
1, 1
1, 2
1, 2
0, 0
2, 2
1, 0
1, 2
0, 1
4, 2
1, 1
2, 0
1, 1
0, 1
2, 1
1, 2
0, 3
0, 0
1, 0
2, 0
2, 0
1, 0
0, 0
1, 1
1, 0
0, 1
2, 2
3, 2
2, 2
0, 2
1, 2
0, 0
1, 1
0, 1
1, 0
1, 2
1, 1
1, 1
1, 0
0, 0
0, 2
0, 1
1, 0
1, 0
1, 2
1, 0
0, 0
0, 0
2, 0
1, 0
0, 0
1, 1
0, 0
2, 1
2, 0
1, 2
1, 0
0, 0
3, 0
1, 1
1, 0
1, 0
0, 0
2, 0
0, 2
2, 1
1, 0
1, 2
1, 0
0, 0
1, 1
0, 0
0, 0
1, 0
2, 0
1, 0
1, 0
0, 1
2, 2
0, 0
0, 0
0, 1
0, 0
1, 0
0, 1
0, 1
0, 1
0, 1
0, 1
0, 0
0, 0
0, 0
0, 0
0, 0
0, 0
1, 0
1, 1
0, 0
1, 0
1, 0
0, 0
0, 1
0, 1
1, 0
1, 0
0, 0
1, 0
1, 1
0, 0
0, 1
0, 0
0, 1
0, 1
0, 1
1, 0
0, 0
0, 2
0, 0
0, 0
2, 2
0, 0
0, 0
1, 0
1, 0
0, 0
0, 0
1, 0
1, 0
1, 0
0, 0
0, 0
2, 0
0, 1
0, 0
0, 0
0, 1
1, 0
1, 0
0, 0
0, 1
0, 1
1, 1
1, 0
0, 0
0, 0
0, 0
0, 0
1, 0
0, 0
0, 0
2, 0
0, 0
1, 0
1, 0
1, 0
0, 0
0, 0
1, 0
0, 0
0, 0
0, 0
0, 0
0, 0
0, 0
0, 0
1, 1
0, 0
0, 2
0, 0
0, 0
0, 0
0, 0
0, 0
0, 0
0, 0
0, 1
2, 0
1, 0
1, 0
0, 0
0, 0
0, 0
0, 0
0, 0
0, 1
0, 0
0, 0
2, 0
0, 1
0, 0
0, 0
0, 1
0, 2
0, 0
0, 0
0, 0
0, 2
0, 0
1, 0
0, 0
0, 0
0, 1
0, 0
0, 0
0, 0
0, 0
0, 0
0, 0
0, 0
1, 0
0, 0
1, 0
0, 0
0, 0
0, 0
0, 0
0, 0
0, 0
0, 0
0, 1
1, 0
0, 0
0, 0
1, 0
0, 0
1, 0
0, 0
1, 0
0, 0
0, 1
0, 0
0, 0
0, 1
0, 0
0, 0
0, 0
0, 0
0, 0
0, 0
1, 0
0, 0
0, 0
0, 0
0, 0
0, 0
0, 0
0, 0
0, 0
0, 0
1, 0
0, 0
0, 0
0, 0
1, 0
1, 1
0, 0
0, 0
0, 0
1, 0
0, 0
0, 0
0, 0
2, 0
0, 0
0, 0
0, 0
0, 0
1, 0
0, 0
0, 0
1, 0
0, 0
1, 1
0, 0
0, 0
0, 0
0, 0
0, 0
0, 0
0, 0
1, 0
0, 0
0, 0
0, 0
0, 0
1, 0
0, 0
0, 0
0, 0
0, 0
0, 0
0, 0
0, 0
0, 0
0, 0
0, 0
0, 0
0, 0
0, 0
0, 0
0, 0
0, 0
0, 0
0, 0
0, 0
0, 0
0, 0
0, 0
0, 0
0, 0
0, 0
0, 0
0, 0
0, 0
0, 0
0, 0
0, 0
0, 0
0, 0
0, 0
0, 0
0, 0
0, 0
0, 0
0, 1
1, 0
0, 0
0, 0
0, 0
0, 0
0, 0
0, 0
1, 1
0, 0
0, 0
0, 0
0, 0
0, 0
0, 1
0, 0
0, 0
0, 0
0, 0
0, 0
0, 0
0, 0
0, 0
0, 0
0, 0
0, 0
0, 0
0, 0
0, 0
0, 0
0, 0
0, 0
0, 0
0, 0
0, 0
0, 0
0, 0
0, 0
0, 0
1, 0
0, 0
0, 0
0, 0
0, 0
0, 0
0, 0
0, 0
0, 0
0, 0
0, 0
0, 0
0, 0
0, 0
0, 0
0, 0
0, 0
0, 0
0, 0
0, 0
0, 0
0, 0
0, 0
0, 0
0, 0
0, 0
0, 0
0, 0
0, 0
0, 0
0, 0
0, 0
0, 0
0, 0
0, 0
0, 0
0, 0
0, 0
0, 0
0, 0
0, 0
0, 0
0, 0
0, 0
0, 0
0, 0
0, 0
0, 0
0, 0
0, 0
0, 0
0, 0
0, 0
0, 0
0, 0
0, 0
0, 0
0, 0
0, 0
0, 0
0, 0
0, 0
0, 0
0, 0
0, 0
0, 0
0, 0
0, 0
0, 0
0, 0
0, 0
0, 0
0, 0
0, 0
0, 0
0, 0
0, 1
0, 0
0, 0
0, 0
0, 0
0, 0
0, 0
0, 0
0, 0
0, 0
1, 0
0, 0
0, 0
0, 0
0, 0
0, 0
0, 0
0, 0
0, 0
0, 0
0, 0
0, 0
0, 0
0, 0
0, 0
0, 0
0, 0
0, 0
0, 0
0, 0
0, 0
0, 0
0, 0
0, 0
0, 0
0, 0
0, 0
0, 0
0, 0
0, 0
0, 0
0, 0
0, 0
0, 0
0, 0
0, 0
0, 0
0, 0
0, 0
0, 0
0, 0
0, 0
0, 0
0, 0
0, 0
0, 0
0, 0
0, 0
0, 0
0, 0
0, 0
0, 0
0, 0
0, 0
0, 0
0, 0
0, 0
0, 0
0, 0
0, 0
0, 0
0, 0
0, 0
0, 0
0, 0
0, 0
0, 0
0, 0
0, 0
0, 0
0, 0
0, 0
0, 0
0, 0
0, 0
0, 0
0, 0
0, 0
0, 0
0, 0
0, 0
0, 0
0, 0
0, 0
0, 0
0, 0
0, 0
0, 0
0, 0
0, 0
0, 0
0, 0
0, 0
0, 0
0, 0
0, 0
0, 0
0, 0
0, 0
0, 0
0, 0
0, 0
1, 0
0, 0
0, 0
0, 0
0, 0
0, 0
0, 0
0, 0
0, 0
0, 0
0, 0
0, 0
0, 0
0, 0
0, 0
0, 0
0, 0
0, 0
0, 0
0, 0
0, 0
0, 0
0, 0
0, 0
0, 0
0, 0
0, 0
0, 0
0, 0
0, 0
0, 0
0, 0
0, 0
0, 0
0, 0
0, 0
0, 0
0, 0
0, 0
0, 0
0, 0
0, 0
0, 0
0, 0
0, 0
0, 0
0, 0
0, 0
0, 0
0, 0
0, 0
0, 0
0, 0
0, 0
0, 0
0, 0
1, 0
0, 0
0, 0
0, 0
0, 0
0, 0
0, 0
0, 0
0, 0
0, 0
0, 0
0, 0
0, 0
0, 0
0, 0
0, 0
0, 0
0, 0
0, 0
0, 0
0, 0
0, 0
0, 0
0, 0
0, 0
0, 0
0, 0
0, 0
0, 0
0, 0
0, 0
0, 0
0, 0
0, 0
0, 0
0, 0
0, 0
0, 0
0, 0
0, 0
0, 0
0, 0
0, 0
0, 0
0, 0
0, 0
0, 0
0, 0
0, 0
0, 0
0, 0
0, 0
0, 0
0, 0
0, 0
0, 0
0, 0
0, 0
0, 0
0, 0
0, 0
0, 0
0, 0
0, 0
0, 0
0, 0
0, 0
0, 0
0, 0
0, 0
0, 0
0, 0
0, 0
0, 0
0, 0
0, 0
0, 0
0, 0
0, 0
0, 0
0, 0
0, 0
0, 0
0, 0
0, 0
0, 0
0, 0
0, 0
0, 0
0, 0
0, 0
0, 0
0, 0
0, 0
0, 0
0, 0
0, 0
0, 0
0, 0
0, 0
0, 0
0, 0
0, 0
0, 0
0, 0
0, 0
0, 0
0, 0
0, 0
0, 0
0, 0
0, 0
0, 0
0, 0
0, 0
0, 0
0, 0
0, 0
0, 0
0, 0
0, 0
0, 0
0, 0
0, 0
0, 0
0, 0
0, 0
0, 0
0, 0
0, 0
0, 0
0, 0
0, 0
0, 0
0, 0
0, 0
0, 0
0, 0
0, 0
0, 0
0, 0
0, 0
0, 0
0, 0
0, 0
0, 0
0, 0
0, 0
0, 0
0, 0
0, 0
0, 0
0, 0
0, 0
0, 0
0, 0
0, 0
0, 0
0, 0
0, 0
0, 0
0, 0
0, 0
0, 0
0, 0
0, 0
0, 0
0, 0
0, 0
0, 0
0, 0
0, 0
0, 0
0, 0
0, 0
0, 0
0, 0
0, 0
0, 0
0, 0
0, 0
0, 0
0, 0
0, 0
0, 0
0, 0
0, 0
0, 0
0, 0
#ENDOFDATA     end of spectrum data