File: host_upload/12-01-2023/Dourbes (shot-by-shot)/upload_4/ps__0257_0689790785_000rfs_shot_3162.msa
#FORMAT      : EMSA/MAS spectral data file
#VERSION     : TC202v2.0 PIXL
#TITLE       : N/A
#DATE        :       Date in the format DD-MMM-YYYY, for example 07-JUL-2010
#TIME        :             The time of day at which the spectrum was recorded, in 24-hour format
#OWNER       : PIXL Flight Model       (PIXL will use this to indicate which instrument took the data.)
#NPOINTS     : 4096     Number of data points in the spectrum (This can be zero for configuration only files)
#NCOLUMNS    : 2     Number of data columns in the spectrum (This can be zero for configuration only files)
#XUNITS      : eV
#YUNITS      : COUNTS
#DATATYPE    : YY
#XPERCHAN    : 7.862, 7.881   eV per channel (separate by commas if more than one detector)
#OFFSET      : 18.5, -22.4         eV of first channel  (separate by commas if more than one detector
#SIGNALTYPE  : XRF
#YP_TEMP     : 3.133
#LIVETIME    : 8.98476, 8.9909   seconds (separate by commas if more than one detector)
#REALTIME    : 10, 10.0   seconds (separate by commas if more than one detector)
#SPECTRUM    : start of spectrum data
0, 0
0, 0
0, 0
0, 0
0, 0
0, 0
0, 0
0, 0
0, 0
0, 0
0, 0
0, 0
0, 0
0, 0
0, 0
0, 0
0, 0
0, 0
0, 0
0, 0
0, 0
0, 0
0, 0
0, 0
0, 0
0, 0
0, 0
0, 0
0, 0
0, 0
0, 0
0, 1
0, 0
0, 0
0, 0
1, 1
1, 1
1, 1
0, 1
0, 0
1, 2
3, 6
1, 1
2, 1
1, 0
2, 0
2, 1
0, 0
3, 1
6, 3
20, 12
36, 27
46, 33
72, 51
49, 47
47, 40
25, 40
35, 21
20, 21
4, 11
3, 4
7, 4
3, 1
5, 2
1, 6
10, 8
4, 7
14, 7
13, 4
31, 32
82, 77
172, 154
278, 277
422, 387
529, 403
470, 484
443, 383
302, 286
178, 157
86, 88
56, 40
31, 18
13, 8
6, 5
5, 6
5, 0
6, 3
9, 2
5, 4
1, 2
3, 1
2, 2
1, 3
4, 1
5, 5
6, 7
7, 8
11, 13
13, 8
10, 7
13, 22
1, 11
9, 5
7, 8
4, 6
5, 7
7, 9
4, 13
15, 13
21, 19
33, 26
40, 33
68, 52
77, 89
75, 103
84, 86
85, 67
92, 92
60, 48
58, 51
38, 37
45, 44
41, 37
32, 36
29, 26
22, 30
19, 21
10, 13
16, 5
16, 6
7, 9
6, 3
4, 1
8, 6
7, 3
6, 5
4, 4
3, 3
4, 2
4, 6
2, 6
2, 6
3, 5
2, 3
9, 4
4, 5
4, 2
5, 4
5, 4
3, 7
6, 17
21, 9
17, 17
30, 28
32, 29
40, 44
55, 43
46, 50
49, 47
40, 34
30, 27
20, 24
14, 21
12, 12
13, 5
10, 7
10, 10
7, 10
7, 3
13, 16
15, 10
13, 12
10, 7
14, 6
14, 9
16, 13
6, 15
13, 12
12, 10
16, 16
9, 8
14, 12
10, 14
10, 8
8, 7
14, 8
18, 14
21, 14
35, 16
39, 35
37, 40
43, 36
40, 24
41, 37
50, 37
38, 34
35, 33
51, 27
28, 34
39, 14
24, 21
23, 9
19, 9
18, 8
12, 8
11, 5
10, 10
8, 12
12, 6
15, 10
7, 12
12, 12
14, 12
11, 11
7, 8
9, 12
8, 9
12, 10
10, 9
4, 12
5, 7
12, 8
12, 12
9, 13
15, 17
26, 17
21, 11
18, 20
28, 19
33, 25
21, 25
25, 18
31, 18
27, 19
26, 24
20, 16
11, 17
20, 13
14, 20
12, 20
16, 11
13, 27
13, 22
22, 28
19, 43
37, 40
52, 58
55, 72
82, 77
99, 89
110, 92
105, 115
93, 108
104, 96
63, 56
54, 45
39, 38
33, 23
30, 31
27, 25
26, 28
31, 46
67, 65
86, 114
184, 222
379, 402
685, 792
1151, 1337
1817, 2010
2533, 2756
3298, 3356
3835, 3794
3825, 3758
3838, 3472
3177, 2823
2429, 2196
1839, 1412
1131, 856
645, 521
404, 241
193, 125
104, 69
46, 42
35, 25
22, 28
23, 29
26, 30
19, 25
24, 31
28, 36
40, 45
35, 42
46, 62
93, 125
145, 203
210, 256
313, 336
427, 444
515, 527
547, 546
563, 569
510, 475
444, 393
346, 276
230, 197
161, 109
83, 68
61, 39
28, 26
12, 14
6, 9
7, 8
6, 6
5, 6
6, 5
15, 15
9, 12
16, 8
15, 13
13, 9
7, 5
10, 5
6, 7
4, 7
10, 2
4, 8
8, 4
5, 0
7, 5
3, 6
4, 4
1, 3
5, 1
7, 0
3, 1
7, 11
2, 6
6, 4
3, 7
10, 3
2, 5
3, 8
4, 5
5, 3
7, 4
4, 6
4, 3
8, 4
7, 6
5, 8
11, 2
3, 3
6, 5
5, 4
7, 3
2, 5
6, 3
3, 8
1, 4
5, 4
5, 2
3, 6
7, 3
7, 5
4, 5
2, 5
6, 7
4, 7
2, 2
2, 3
6, 0
5, 1
5, 3
5, 1
6, 2
3, 0
4, 1
6, 1
2, 5
3, 2
7, 2
2, 4
4, 3
4, 2
5, 3
5, 3
7, 3
5, 3
4, 5
5, 4
3, 2
3, 4
1, 4
5, 3
7, 6
7, 2
2, 1
5, 3
7, 3
1, 4
3, 5
3, 2
7, 2
5, 6
0, 2
3, 4
5, 10
9, 4
2, 7
3, 2
2, 2
5, 3
7, 5
1, 5
5, 2
4, 3
5, 2
2, 5
5, 3
3, 6
1, 1
6, 2
3, 2
5, 4
3, 3
6, 6
2, 3
1, 6
0, 6
2, 7
4, 2
3, 3
4, 7
2, 3
4, 4
3, 3
4, 4
4, 1
0, 3
3, 1
4, 0
1, 3
0, 3
5, 1
7, 5
5, 3
4, 2
1, 1
2, 4
2, 2
4, 3
4, 1
4, 5
3, 3
2, 3
3, 5
3, 1
4, 1
3, 0
2, 1
1, 4
0, 2
2, 2
1, 0
4, 3
6, 5
1, 2
1, 2
3, 1
1, 1
2, 1
0, 2
3, 2
4, 1
2, 4
3, 5
0, 1
3, 3
4, 1
4, 3
2, 2
1, 1
2, 3
2, 2
0, 3
2, 5
2, 1
2, 0
4, 1
2, 0
1, 3
1, 3
3, 1
1, 2
2, 1
3, 3
1, 3
2, 1
2, 1
5, 2
1, 0
3, 2
3, 1
2, 2
2, 2
0, 3
4, 0
1, 5
1, 0
3, 2
3, 1
1, 2
2, 2
3, 2
3, 2
4, 2
1, 0
3, 5
4, 3
1, 3
3, 3
3, 1
2, 3
2, 5
0, 4
1, 5
3, 4
0, 3
1, 1
2, 3
0, 1
0, 2
2, 1
2, 2
1, 2
3, 2
3, 0
2, 4
7, 5
5, 7
3, 8
10, 2
6, 6
7, 2
5, 7
4, 2
4, 6
2, 2
5, 2
2, 6
3, 0
2, 3
0, 1
0, 0
3, 1
0, 2
3, 1
1, 1
1, 4
1, 1
0, 0
1, 1
0, 1
1, 2
0, 2
1, 2
3, 1
2, 2
4, 3
4, 1
0, 5
1, 2
2, 3
3, 3
3, 2
2, 1
1, 2
2, 2
3, 0
0, 1
0, 0
3, 0
3, 1
0, 0
2, 0
4, 1
1, 2
0, 0
1, 3
0, 1
0, 0
1, 0
1, 0
1, 0
1, 0
2, 0
0, 1
2, 1
0, 2
1, 0
0, 1
2, 0
1, 1
0, 0
1, 0
0, 1
2, 0
2, 0
0, 1
0, 3
0, 0
1, 0
0, 2
0, 2
1, 1
2, 1
0, 1
2, 1
2, 1
0, 1
1, 0
0, 0
0, 1
0, 1
2, 2
1, 0
0, 1
0, 0
0, 0
0, 1
0, 0
0, 1
0, 0
1, 2
2, 0
0, 1
0, 0
1, 0
1, 0
0, 0
0, 0
0, 0
1, 1
0, 1
1, 1
0, 1
0, 2
1, 0
2, 0
2, 1
0, 0
0, 0
0, 2
0, 0
1, 2
1, 0
0, 0
1, 1
1, 0
2, 0
0, 1
1, 1
4, 0
1, 1
0, 0
3, 0
1, 0
1, 0
1, 1
2, 2
0, 0
0, 1
0, 0
0, 0
0, 0
0, 0
1, 0
0, 1
1, 0
0, 1
0, 0
0, 1
0, 1
0, 1
0, 0
0, 0
0, 1
1, 0
0, 0
0, 0
0, 0
0, 0
1, 0
0, 1
0, 0
1, 0
0, 1
0, 1
0, 1
1, 0
0, 0
0, 1
0, 0
0, 0
0, 0
0, 0
0, 0
0, 0
0, 0
1, 0
1, 1
0, 0
0, 0
1, 1
0, 0
0, 1
0, 2
0, 0
0, 1
1, 0
1, 1
0, 0
1, 0
1, 0
0, 0
1, 0
0, 0
1, 0
0, 0
0, 0
0, 1
1, 0
1, 1
0, 0
0, 0
0, 0
0, 0
0, 0
0, 0
0, 0
0, 0
0, 0
0, 0
0, 1
1, 1
1, 0
0, 1
0, 0
1, 0
0, 0
0, 0
1, 1
0, 0
2, 0
0, 0
0, 0
0, 0
1, 0
0, 0
1, 0
0, 1
1, 1
0, 0
0, 0
0, 0
0, 0
0, 0
0, 0
2, 0
0, 0
1, 1
0, 1
0, 0
0, 0
1, 0
0, 0
0, 0
1, 1
0, 1
0, 0
0, 1
0, 0
1, 0
0, 0
0, 1
1, 0
0, 1
1, 0
0, 0
1, 2
0, 0
0, 0
0, 0
0, 0
0, 0
0, 0
0, 0
0, 0
0, 1
0, 0
0, 0
0, 0
0, 0
1, 1
0, 0
0, 0
0, 0
0, 1
0, 0
0, 0
0, 0
0, 0
0, 0
0, 1
0, 1
0, 0
0, 0
0, 0
0, 0
0, 0
1, 0
0, 0
0, 0
0, 0
0, 0
0, 0
0, 0
0, 0
0, 0
0, 0
0, 0
0, 0
0, 0
0, 0
0, 0
0, 0
0, 0
0, 0
0, 0
0, 0
0, 0
0, 1
1, 0
0, 0
0, 0
0, 0
0, 0
0, 0
0, 0
0, 0
0, 1
0, 0
0, 1
0, 0
0, 1
0, 0
0, 0
0, 0
0, 0
0, 0
0, 0
0, 0
0, 0
0, 0
1, 0
0, 0
0, 0
0, 0
0, 0
0, 0
0, 0
0, 0
0, 0
0, 0
0, 0
1, 0
0, 1
0, 0
0, 0
1, 0
0, 0
0, 0
0, 0
1, 0
0, 0
0, 0
1, 0
0, 0
0, 0
0, 0
0, 0
0, 0
0, 0
0, 0
0, 0
0, 0
0, 0
0, 0
0, 0
0, 0
0, 0
0, 0
0, 0
0, 0
0, 0
1, 0
0, 0
0, 0
0, 0
0, 0
1, 0
0, 0
0, 0
0, 0
0, 0
0, 0
0, 0
0, 0
0, 0
0, 0
0, 0
0, 0
0, 0
0, 0
0, 0
0, 0
0, 0
0, 0
1, 0
0, 0
1, 0
0, 0
0, 0
0, 0
0, 0
0, 0
0, 0
0, 0
0, 0
0, 0
0, 0
0, 0
0, 0
0, 0
0, 0
0, 0
0, 0
0, 0
0, 0
0, 0
0, 0
0, 0
0, 0
0, 0
0, 0
0, 0
0, 0
0, 0
0, 0
0, 0
0, 0
0, 0
0, 0
0, 0
0, 0
0, 0
0, 0
0, 0
0, 0
0, 0
0, 0
0, 0
0, 0
0, 0
0, 0
0, 0
0, 0
0, 0
0, 0
0, 0
0, 0
0, 0
0, 0
0, 0
0, 0
0, 0
0, 0
0, 0
0, 0
0, 0
0, 0
0, 0
0, 0
0, 0
0, 0
0, 0
0, 0
0, 0
0, 0
0, 0
0, 0
0, 0
0, 0
0, 0
0, 0
0, 0
0, 0
0, 0
0, 0
0, 0
0, 0
0, 0
0, 0
0, 0
0, 0
0, 0
0, 0
0, 0
0, 0
0, 0
0, 0
0, 0
0, 0
0, 0
0, 0
0, 0
0, 0
0, 0
0, 0
0, 0
0, 0
0, 0
0, 0
0, 0
0, 0
0, 0
0, 0
0, 0
0, 0
0, 0
0, 0
0, 0
0, 0
0, 0
0, 0
0, 0
0, 0
0, 0
0, 0
0, 0
0, 0
0, 0
0, 0
0, 0
1, 0
0, 0
0, 0
0, 0
0, 0
0, 0
0, 0
0, 0
0, 0
0, 0
0, 0
0, 0
0, 0
0, 0
0, 0
0, 0
0, 0
0, 0
0, 0
0, 0
0, 0
0, 0
0, 0
0, 0
0, 0
0, 0
0, 0
0, 0
0, 0
0, 0
0, 0
0, 0
0, 0
0, 0
0, 0
0, 0
0, 0
0, 0
0, 0
0, 0
0, 0
0, 0
0, 0
0, 0
0, 0
0, 0
0, 0
0, 0
0, 0
0, 0
0, 0
0, 0
0, 0
0, 0
0, 0
0, 0
0, 0
0, 0
0, 0
0, 0
0, 0
0, 0
0, 0
0, 0
0, 0
0, 0
0, 0
0, 0
0, 0
0, 0
0, 0
0, 0
0, 0
0, 0
0, 0
0, 0
0, 0
0, 0
0, 0
0, 0
0, 0
0, 0
0, 0
0, 0
0, 0
0, 0
0, 0
0, 0
0, 0
0, 0
0, 0
0, 0
0, 0
0, 0
0, 0
0, 0
0, 0
0, 0
0, 0
0, 0
0, 0
0, 0
0, 0
0, 0
0, 0
0, 0
0, 0
0, 0
0, 0
0, 0
0, 0
0, 0
0, 0
0, 0
0, 0
0, 0
0, 0
0, 0
0, 0
0, 0
0, 0
0, 0
0, 0
0, 0
0, 0
0, 0
0, 0
0, 0
0, 0
0, 0
0, 0
0, 0
0, 0
0, 0
0, 0
0, 0
0, 0
0, 0
0, 0
0, 0
0, 0
0, 0
0, 0
0, 0
0, 0
0, 0
0, 0
0, 0
0, 0
0, 0
0, 0
1, 0
0, 0
0, 0
0, 0
0, 0
0, 0
0, 0
0, 0
0, 0
0, 0
0, 0
0, 0
0, 0
0, 0
0, 0
0, 0
0, 0
0, 0
0, 0
0, 0
0, 0
0, 0
0, 0
0, 0
0, 0
0, 0
0, 0
0, 0
0, 0
0, 0
0, 0
0, 0
0, 0
0, 0
0, 0
0, 0
0, 0
0, 0
0, 0
0, 0
0, 0
0, 0
0, 0
0, 0
0, 0
0, 0
0, 0
0, 0
0, 0
0, 0
0, 0
0, 0
0, 0
0, 0
0, 0
0, 0
0, 0
0, 0
0, 0
0, 0
0, 0
0, 0
0, 0
0, 0
0, 0
0, 0
0, 0
0, 0
0, 0
0, 0
0, 0
0, 0
0, 0
0, 0
0, 0
0, 0
0, 0
0, 0
0, 0
0, 0
0, 0
0, 0
0, 0
0, 0
0, 0
0, 0
0, 0
0, 0
0, 0
0, 0
0, 0
0, 0
0, 0
0, 0
0, 0
0, 0
0, 0
0, 0
0, 0
0, 0
0, 0
0, 0
0, 0
0, 0
0, 0
0, 0
0, 0
0, 0
0, 0
0, 0
0, 0
0, 0
0, 0
0, 0
0, 0
0, 0
0, 0
0, 0
0, 0
0, 0
0, 0
0, 0
0, 0
0, 0
0, 0
0, 0
0, 0
0, 0
0, 0
0, 0
0, 0
0, 0
0, 0
0, 0
0, 0
0, 0
0, 0
0, 0
0, 0
0, 0
0, 0
0, 0
0, 0
0, 0
0, 0
0, 0
0, 0
0, 0
0, 0
0, 0
0, 0
0, 0
0, 0
0, 0
0, 0
0, 0
0, 0
0, 0
0, 0
0, 0
0, 0
#ENDOFDATA     end of spectrum data