File: host_upload/02-11-2024/rqc/uplink1/ps__0567_0717304816_000rfs_shot_142.msa
#FORMAT      : EMSA/MAS spectral data file
#VERSION     : TC202v2.0 PIXL
#TITLE       : Novarupta (sol567) subset1
#DATE        : 02-11-2024      Date in the format DD-MMM-YYYY, for example 07-JUL-2010
#TIME        :             The time of day at which the spectrum was recorded, in 24-hour format
#OWNER       : PIXL Flight Model       (PIXL will use this to indicate which instrument took the data.)
#NPOINTS     : 4096     Number of data points in the spectrum (This can be zero for configuration only files)
#NCOLUMNS    : 2     Number of data columns in the spectrum (This can be zero for configuration only files)
#XUNITS      : eV
#YUNITS      : COUNTS
#DATATYPE    : YY
#XPERCHAN    : 7.862, 7.881   eV per channel (separate by commas if more than one detector)
#OFFSET      : 18.5, -22.4         eV of first channel  (separate by commas if more than one detector
#SIGNALTYPE  : XRF
#YP_TEMP     : -0.202
#LIVETIME    : 8.83669, 8.81103   seconds (separate by commas if more than one detector)
#REALTIME    : 10, 10.0   seconds (separate by commas if more than one detector)
#SPECTRUM    : start of spectrum data
0, 0
0, 0
0, 0
0, 0
0, 0
0, 0
0, 0
0, 0
0, 0
0, 0
0, 0
0, 0
0, 0
0, 0
0, 0
0, 0
0, 0
0, 0
0, 0
0, 0
0, 0
0, 0
0, 0
0, 0
0, 0
0, 0
0, 0
0, 0
0, 0
0, 0
0, 0
0, 0
0, 0
1, 0
0, 0
0, 0
1, 5
7, 2
1, 3
2, 3
5, 2
2, 7
3, 2
2, 4
3, 4
3, 2
5, 6
4, 1
4, 6
4, 5
4, 7
10, 11
15, 10
16, 14
19, 19
16, 11
9, 11
9, 13
13, 7
11, 7
19, 11
30, 27
32, 37
39, 46
53, 54
53, 44
33, 47
28, 36
25, 28
54, 72
120, 128
175, 231
276, 327
378, 424
437, 558
457, 548
402, 418
299, 332
238, 220
123, 124
86, 62
39, 41
28, 23
23, 26
34, 37
32, 33
35, 40
31, 31
23, 35
23, 25
15, 13
18, 23
20, 35
50, 50
68, 103
144, 142
208, 217
267, 312
292, 306
280, 330
260, 264
165, 219
137, 130
96, 96
73, 69
63, 42
47, 68
75, 78
87, 116
137, 184
174, 183
200, 249
216, 264
198, 269
225, 214
173, 181
145, 153
105, 107
79, 109
87, 92
76, 75
78, 72
50, 78
59, 59
41, 49
41, 38
31, 29
28, 31
13, 23
9, 12
10, 16
11, 12
8, 15
10, 4
8, 5
4, 9
10, 11
14, 17
20, 21
25, 25
19, 32
41, 31
25, 27
18, 36
26, 19
24, 21
14, 10
14, 11
14, 18
13, 19
27, 43
54, 58
96, 113
125, 166
207, 279
315, 359
328, 364
360, 395
341, 364
322, 308
246, 261
153, 151
102, 100
56, 58
33, 49
30, 30
25, 42
30, 33
43, 36
49, 56
57, 72
51, 61
49, 51
37, 49
25, 34
24, 20
13, 22
20, 16
5, 12
8, 8
6, 9
11, 4
6, 8
5, 10
6, 9
12, 12
16, 19
13, 25
41, 57
42, 43
45, 62
49, 77
59, 79
48, 67
51, 53
42, 42
31, 31
29, 33
14, 21
30, 7
14, 19
11, 16
13, 19
10, 13
19, 12
11, 12
13, 24
21, 26
17, 26
20, 20
17, 18
17, 18
15, 13
27, 17
16, 15
15, 11
13, 12
8, 11
8, 9
8, 11
11, 13
6, 12
12, 10
6, 17
13, 20
22, 16
20, 36
16, 24
39, 30
31, 40
30, 43
25, 31
22, 24
28, 28
19, 20
17, 26
13, 17
8, 5
13, 8
15, 13
12, 14
13, 17
20, 12
9, 9
15, 18
22, 24
32, 22
35, 37
38, 47
48, 69
46, 52
45, 66
51, 50
48, 31
41, 46
32, 30
16, 26
12, 20
17, 27
16, 19
22, 22
29, 46
42, 55
78, 96
128, 186
217, 301
392, 537
610, 840
865, 1088
1211, 1424
1442, 1642
1647, 1843
1688, 1875
1594, 1724
1320, 1458
1131, 1081
830, 766
504, 481
365, 309
187, 167
116, 83
69, 52
35, 44
31, 18
15, 19
19, 16
19, 19
11, 17
15, 16
16, 22
24, 22
28, 38
43, 58
57, 67
78, 97
111, 150
167, 217
188, 255
237, 281
291, 251
271, 268
243, 236
175, 224
183, 164
107, 112
72, 62
57, 44
46, 26
18, 21
13, 10
10, 11
5, 15
8, 9
15, 11
6, 11
15, 15
14, 13
8, 12
10, 12
6, 14
8, 5
9, 13
1, 10
12, 4
6, 6
4, 2
3, 4
5, 6
7, 9
3, 10
4, 4
6, 12
10, 4
4, 7
4, 10
3, 7
3, 5
8, 5
5, 3
4, 8
4, 4
6, 10
7, 10
9, 10
9, 6
7, 11
6, 8
5, 9
9, 1
4, 9
8, 6
8, 12
7, 10
11, 7
4, 3
5, 10
5, 2
9, 7
5, 4
5, 7
3, 13
12, 9
6, 11
9, 15
11, 10
14, 17
8, 11
4, 13
10, 10
6, 10
9, 8
8, 6
4, 9
7, 12
4, 6
5, 5
5, 0
6, 8
2, 8
3, 6
12, 6
7, 5
4, 6
6, 7
8, 3
1, 8
7, 5
2, 4
6, 6
11, 3
4, 6
3, 5
6, 6
10, 6
6, 1
9, 5
6, 7
5, 8
4, 7
4, 6
5, 4
3, 4
3, 3
2, 4
4, 5
8, 5
4, 6
2, 6
4, 3
8, 5
7, 7
2, 5
4, 3
1, 2
3, 5
2, 3
5, 7
3, 3
8, 5
5, 5
7, 3
0, 4
4, 3
6, 6
2, 5
7, 0
4, 2
3, 2
1, 3
4, 4
5, 8
2, 10
3, 3
3, 2
5, 7
7, 4
4, 3
4, 2
1, 4
1, 2
2, 4
6, 2
4, 4
2, 7
2, 1
4, 3
5, 6
4, 5
5, 5
1, 4
2, 4
1, 7
3, 4
1, 1
3, 4
4, 1
4, 8
3, 3
3, 5
4, 5
1, 4
3, 2
4, 9
3, 5
6, 4
4, 4
2, 1
0, 5
2, 4
0, 3
2, 3
2, 2
8, 4
2, 3
2, 3
3, 3
3, 4
1, 1
3, 3
5, 4
2, 3
5, 2
5, 2
6, 3
2, 1
3, 5
1, 4
1, 3
2, 1
3, 5
2, 3
0, 5
3, 4
4, 3
0, 2
2, 2
3, 1
0, 2
3, 4
5, 4
7, 3
4, 0
2, 6
3, 1
2, 2
4, 3
4, 3
2, 6
5, 1
3, 2
4, 3
1, 3
6, 1
5, 2
2, 1
3, 2
3, 3
5, 2
2, 1
3, 0
0, 6
3, 1
3, 2
2, 3
2, 1
0, 2
0, 4
3, 0
2, 3
2, 1
1, 1
2, 1
2, 1
0, 0
0, 2
1, 4
7, 2
3, 2
2, 4
1, 1
1, 4
4, 4
3, 3
3, 2
5, 6
2, 1
2, 1
3, 1
3, 5
0, 2
6, 3
1, 0
5, 3
3, 0
0, 0
2, 1
6, 0
0, 3
1, 0
1, 3
1, 0
2, 2
1, 3
0, 1
0, 0
2, 3
2, 0
3, 2
0, 0
2, 1
1, 0
2, 2
3, 2
1, 2
1, 3
2, 1
4, 1
0, 0
2, 4
0, 0
0, 2
0, 2
2, 2
0, 0
3, 4
2, 0
1, 2
2, 3
1, 3
1, 2
0, 1
2, 3
1, 1
1, 2
0, 1
1, 0
1, 2
0, 0
2, 2
1, 2
0, 3
1, 0
0, 1
4, 1
2, 2
1, 2
0, 0
2, 2
3, 1
0, 0
1, 0
2, 0
1, 1
1, 0
0, 0
2, 2
0, 2
1, 1
1, 3
2, 1
0, 1
1, 2
0, 1
0, 1
0, 1
2, 0
0, 1
2, 2
0, 1
1, 1
0, 2
1, 0
1, 0
0, 2
1, 0
0, 0
0, 2
1, 0
0, 1
2, 1
1, 0
0, 0
1, 1
0, 1
1, 3
0, 1
2, 1
1, 1
0, 1
1, 0
0, 0
2, 0
1, 2
0, 0
1, 0
0, 0
4, 1
1, 0
2, 1
0, 1
1, 0
0, 1
2, 1
0, 2
0, 0
0, 0
1, 2
1, 1
0, 2
0, 1
2, 0
2, 1
0, 1
1, 0
2, 1
2, 0
0, 0
0, 2
0, 0
2, 0
1, 1
1, 1
0, 0
0, 1
1, 0
0, 1
1, 0
0, 1
1, 0
2, 0
0, 0
0, 0
0, 0
2, 0
0, 1
1, 1
0, 2
0, 0
0, 0
0, 0
0, 0
0, 0
2, 0
0, 0
1, 1
1, 1
0, 1
0, 0
1, 0
0, 0
0, 0
1, 0
0, 1
0, 1
1, 0
0, 0
0, 0
0, 0
0, 0
1, 0
0, 1
0, 0
0, 2
1, 2
0, 1
0, 0
0, 0
0, 0
0, 0
0, 0
1, 1
0, 2
1, 0
0, 1
1, 0
0, 0
0, 0
0, 0
0, 1
0, 0
0, 0
0, 0
0, 1
0, 0
1, 1
0, 1
0, 0
0, 2
0, 0
1, 1
0, 0
0, 0
0, 0
1, 0
0, 0
0, 0
1, 0
1, 0
0, 0
0, 0
0, 0
0, 1
0, 0
0, 0
0, 0
0, 0
1, 1
1, 0
0, 1
0, 0
0, 1
0, 1
0, 0
1, 0
1, 2
0, 0
0, 0
0, 1
0, 0
0, 0
0, 0
0, 1
0, 0
1, 0
0, 1
0, 0
0, 3
0, 0
0, 0
1, 0
1, 0
0, 0
0, 1
0, 0
0, 0
0, 1
0, 0
1, 0
0, 0
0, 1
1, 0
1, 0
0, 0
0, 0
0, 0
1, 0
0, 2
1, 0
0, 0
0, 0
0, 0
0, 0
0, 0
0, 0
0, 0
0, 0
0, 0
1, 1
0, 0
0, 0
0, 0
0, 0
1, 0
0, 0
0, 0
0, 0
0, 0
0, 1
2, 0
0, 0
0, 1
0, 0
0, 0
0, 1
0, 0
0, 0
0, 0
0, 1
0, 0
1, 0
0, 0
0, 0
0, 0
0, 0
0, 0
0, 0
0, 0
0, 1
0, 0
0, 0
0, 1
0, 1
0, 0
0, 0
0, 0
0, 0
0, 0
0, 0
0, 0
1, 1
0, 0
0, 0
0, 1
2, 0
0, 0
0, 0
0, 0
0, 0
1, 0
0, 0
0, 0
0, 1
0, 0
0, 0
1, 0
0, 0
0, 0
0, 0
0, 1
0, 0
0, 1
0, 0
0, 0
0, 0
0, 0
0, 1
1, 0
0, 0
0, 0
0, 0
0, 0
0, 0
0, 0
1, 0
0, 0
0, 0
0, 0
0, 0
0, 0
0, 0
0, 0
0, 0
0, 0
0, 1
0, 0
1, 0
0, 1
0, 0
0, 0
0, 0
0, 0
0, 0
0, 0
0, 0
0, 0
0, 0
0, 0
1, 0
0, 0
0, 0
0, 0
0, 0
0, 0
0, 0
0, 0
0, 0
0, 0
0, 0
0, 0
0, 0
0, 0
0, 0
0, 0
0, 0
0, 0
0, 0
0, 0
0, 0
0, 0
0, 0
0, 0
0, 0
0, 0
0, 0
0, 0
0, 0
0, 0
0, 0
0, 0
0, 0
0, 0
0, 0
0, 0
0, 0
0, 0
0, 0
0, 0
0, 0
0, 0
1, 0
0, 0
0, 0
0, 0
0, 0
0, 0
0, 0
0, 0
0, 0
0, 0
0, 0
0, 0
0, 0
0, 0
0, 0
0, 0
0, 0
0, 0
0, 0
0, 0
0, 0
0, 0
0, 0
0, 0
0, 0
0, 0
0, 0
0, 0
0, 0
0, 0
0, 0
0, 0
0, 0
0, 0
0, 0
0, 0
0, 0
0, 0
0, 0
0, 0
0, 0
0, 0
0, 0
0, 0
0, 0
0, 0
0, 0
0, 0
0, 0
0, 0
0, 0
0, 0
0, 0
0, 0
0, 0
0, 0
0, 0
0, 0
0, 0
0, 0
0, 0
0, 0
0, 0
0, 0
0, 0
0, 0
0, 0
0, 0
0, 0
0, 0
0, 0
0, 0
0, 0
0, 0
0, 0
0, 0
0, 0
0, 0
0, 0
0, 0
0, 0
0, 0
0, 0
0, 0
0, 0
0, 0
0, 0
0, 0
0, 0
0, 0
0, 0
0, 0
0, 0
0, 0
0, 0
0, 0
0, 0
0, 0
0, 0
0, 0
0, 0
0, 0
0, 0
0, 0
0, 0
0, 0
0, 0
0, 0
0, 0
0, 0
0, 0
0, 0
0, 0
0, 0
0, 0
0, 0
0, 0
0, 0
0, 0
0, 0
0, 0
0, 0
0, 0
0, 0
0, 0
0, 0
0, 0
0, 0
0, 0
0, 0
0, 0
0, 0
0, 0
0, 0
0, 0
0, 0
0, 0
0, 0
0, 0
0, 0
0, 0
0, 0
0, 0
0, 0
0, 0
0, 0
0, 0
0, 0
0, 0
0, 0
0, 0
0, 0
0, 0
0, 0
0, 0
0, 0
0, 0
0, 0
0, 0
0, 0
0, 0
0, 0
0, 0
0, 0
0, 0
0, 0
0, 0
0, 0
0, 0
0, 0
0, 0
0, 0
0, 0
0, 0
0, 0
0, 0
0, 0
0, 0
0, 0
0, 0
0, 0
0, 0
0, 0
0, 0
0, 0
0, 0
0, 0
0, 0
0, 0
0, 0
0, 0
0, 0
0, 0
0, 0
0, 0
0, 0
0, 0
0, 0
0, 0
0, 0
0, 0
0, 0
0, 0
0, 0
0, 0
0, 0
0, 0
0, 0
0, 0
0, 0
0, 0
0, 0
0, 0
0, 0
0, 0
0, 0
0, 0
0, 0
0, 0
0, 0
0, 0
0, 0
0, 0
0, 0
0, 0
0, 0
0, 0
0, 0
0, 0
0, 0
0, 0
0, 0
0, 0
0, 0
0, 0
0, 0
0, 0
0, 0
0, 0
0, 0
0, 0
0, 0
0, 0
0, 0
0, 0
0, 0
0, 0
0, 0
0, 0
0, 0
0, 0
0, 0
0, 0
0, 0
0, 0
0, 0
0, 0
0, 0
0, 0
0, 0
0, 0
0, 0
0, 0
0, 0
0, 0
0, 0
0, 0
0, 0
0, 0
0, 0
0, 0
0, 0
0, 0
0, 0
0, 0
0, 0
0, 0
0, 0
0, 0
0, 0
0, 0
0, 0
0, 0
0, 0
0, 0
0, 0
0, 0
0, 0
0, 0
0, 0
0, 0
0, 0
0, 0
0, 0
0, 0
0, 0
0, 0
0, 0
0, 0
0, 0
0, 0
0, 0
0, 0
0, 0
0, 0
0, 0
0, 0
0, 0
0, 0
0, 0
0, 0
0, 0
0, 0
0, 0
0, 0
0, 0
0, 0
0, 0
0, 0
0, 0
0, 0
0, 0
0, 0
0, 0
0, 0
0, 0
0, 0
0, 0
0, 0
0, 0
0, 0
0, 0
0, 0
0, 0
0, 0
0, 0
0, 0
0, 0
0, 0
0, 0
0, 0
0, 0
0, 0
0, 0
0, 0
0, 0
0, 0
0, 0
0, 0
0, 0
0, 0
0, 0
0, 0
0, 0
0, 0
0, 0
0, 0
0, 0
0, 0
0, 0
0, 0
0, 0
0, 0
0, 0
0, 0
0, 0
0, 0
0, 0
0, 0
0, 0
0, 0
0, 0
0, 0
0, 0
0, 0
0, 0
0, 0
0, 0
0, 0
0, 0
0, 0
0, 0
0, 0
0, 0
0, 0
0, 0
0, 0
0, 0
0, 0
0, 0
0, 0
0, 0
0, 0
0, 0
0, 0
0, 0
0, 0
0, 0
0, 0
0, 0
0, 0
0, 0
0, 0
0, 0
0, 0
0, 0
0, 0
#ENDOFDATA     end of spectrum data