File: host_upload/02-11-2024/rqc/uplink1/ps__0567_0717304816_000rfs_shot_211.msa
#FORMAT      : EMSA/MAS spectral data file
#VERSION     : TC202v2.0 PIXL
#TITLE       : Novarupta (sol567) subset1
#DATE        : 02-11-2024      Date in the format DD-MMM-YYYY, for example 07-JUL-2010
#TIME        :             The time of day at which the spectrum was recorded, in 24-hour format
#OWNER       : PIXL Flight Model       (PIXL will use this to indicate which instrument took the data.)
#NPOINTS     : 4096     Number of data points in the spectrum (This can be zero for configuration only files)
#NCOLUMNS    : 2     Number of data columns in the spectrum (This can be zero for configuration only files)
#XUNITS      : eV
#YUNITS      : COUNTS
#DATATYPE    : YY
#XPERCHAN    : 7.862, 7.881   eV per channel (separate by commas if more than one detector)
#OFFSET      : 18.5, -22.4         eV of first channel  (separate by commas if more than one detector
#SIGNALTYPE  : XRF
#YP_TEMP     : 0.6
#LIVETIME    : 8.83072, 8.82945   seconds (separate by commas if more than one detector)
#REALTIME    : 10, 10.0   seconds (separate by commas if more than one detector)
#SPECTRUM    : start of spectrum data
0, 0
0, 0
0, 0
0, 0
0, 0
0, 0
0, 0
0, 0
0, 0
0, 0
0, 0
0, 0
0, 0
0, 0
0, 0
0, 0
0, 0
0, 0
0, 0
0, 0
0, 0
0, 0
0, 0
0, 0
0, 0
0, 0
0, 0
0, 0
0, 0
0, 0
0, 0
0, 0
0, 0
0, 0
1, 1
3, 2
4, 0
2, 2
4, 4
0, 1
3, 3
2, 3
3, 2
3, 2
5, 2
5, 4
3, 2
6, 1
4, 9
4, 4
5, 6
8, 12
11, 15
11, 13
10, 19
19, 19
5, 22
20, 11
8, 9
15, 8
21, 17
26, 31
39, 34
41, 46
46, 54
57, 46
36, 37
30, 38
31, 40
53, 63
101, 140
183, 213
276, 323
386, 451
468, 477
452, 520
384, 449
320, 322
229, 220
133, 122
80, 84
39, 57
26, 27
26, 36
19, 36
38, 31
36, 38
34, 25
22, 24
19, 19
14, 21
14, 15
16, 27
43, 38
73, 98
130, 160
187, 224
286, 292
302, 314
291, 327
250, 261
222, 217
167, 157
98, 90
68, 72
39, 51
36, 47
56, 72
58, 81
108, 101
161, 143
158, 169
174, 200
205, 192
187, 177
155, 129
127, 113
87, 98
87, 76
72, 88
93, 76
66, 67
56, 61
54, 51
33, 51
38, 40
23, 21
26, 13
19, 30
25, 10
9, 7
12, 10
11, 5
4, 7
8, 4
8, 10
9, 7
19, 11
19, 16
25, 32
27, 30
31, 31
31, 35
27, 37
15, 21
17, 12
15, 19
15, 12
14, 21
10, 22
26, 34
43, 66
101, 88
135, 142
200, 196
293, 336
332, 370
347, 355
306, 356
290, 289
218, 234
162, 170
91, 110
60, 61
28, 36
31, 35
31, 31
45, 45
47, 51
53, 52
59, 63
53, 51
43, 50
44, 66
37, 28
25, 23
17, 15
12, 6
8, 13
6, 9
8, 15
4, 7
6, 9
10, 11
6, 13
14, 18
13, 17
30, 24
41, 39
39, 57
58, 66
59, 79
65, 51
55, 63
41, 60
42, 45
30, 30
31, 27
24, 19
21, 13
16, 16
18, 18
14, 11
15, 5
11, 12
12, 16
8, 10
15, 15
17, 22
17, 21
14, 19
14, 22
15, 14
11, 21
13, 10
10, 13
14, 13
16, 16
10, 22
10, 11
14, 6
14, 13
13, 10
13, 13
11, 14
16, 17
13, 13
26, 23
21, 24
30, 33
28, 35
35, 27
31, 25
22, 29
19, 19
19, 16
19, 11
9, 10
13, 11
9, 9
15, 7
15, 12
16, 13
15, 16
19, 18
21, 26
27, 36
19, 27
40, 50
36, 40
44, 51
51, 54
54, 42
28, 49
35, 26
37, 25
16, 19
21, 18
16, 15
25, 24
25, 29
18, 32
31, 42
67, 79
131, 142
232, 282
334, 513
604, 727
882, 1061
1166, 1435
1457, 1590
1693, 1836
1722, 1798
1697, 1683
1377, 1390
1080, 1043
891, 716
605, 473
411, 301
213, 174
136, 106
66, 47
33, 34
11, 13
28, 15
25, 12
16, 13
24, 22
20, 16
18, 23
22, 24
32, 41
47, 53
52, 83
76, 124
111, 127
164, 210
210, 242
229, 267
253, 287
270, 276
245, 241
213, 204
163, 152
130, 117
93, 88
73, 36
32, 40
24, 26
7, 10
15, 10
9, 9
9, 7
8, 12
10, 17
8, 9
12, 15
9, 10
13, 12
19, 13
9, 6
8, 7
6, 8
10, 8
10, 6
6, 5
1, 6
8, 6
5, 5
1, 7
8, 4
10, 4
6, 5
7, 3
6, 7
8, 7
5, 5
15, 6
7, 4
5, 5
6, 8
5, 12
4, 10
6, 1
11, 1
8, 5
2, 3
11, 11
5, 5
13, 9
3, 8
10, 8
3, 5
5, 5
9, 8
8, 5
7, 6
6, 3
9, 6
9, 6
7, 13
4, 10
4, 12
15, 10
11, 10
7, 6
12, 8
19, 9
8, 7
8, 11
7, 12
11, 11
1, 7
4, 11
11, 3
0, 8
9, 7
5, 5
3, 5
3, 5
5, 6
4, 9
8, 9
4, 4
7, 3
5, 2
8, 9
5, 1
9, 5
9, 4
3, 3
4, 3
2, 5
2, 2
1, 10
5, 6
6, 4
1, 3
6, 6
1, 9
4, 5
5, 7
1, 7
4, 4
4, 5
6, 5
1, 5
5, 6
5, 5
2, 7
4, 6
6, 2
6, 3
3, 4
4, 1
4, 10
3, 2
2, 4
2, 2
2, 4
5, 3
6, 5
3, 3
2, 4
4, 1
4, 3
3, 4
5, 4
10, 4
3, 3
5, 4
5, 2
4, 7
9, 2
4, 4
4, 3
1, 2
5, 8
6, 2
1, 4
3, 8
5, 2
4, 5
2, 1
3, 1
3, 4
5, 4
6, 4
4, 2
0, 2
6, 3
3, 0
6, 3
7, 4
0, 3
3, 5
5, 3
2, 1
6, 5
2, 3
2, 7
1, 3
3, 3
4, 1
3, 2
3, 3
5, 2
4, 3
2, 6
1, 1
7, 0
4, 3
4, 4
4, 3
4, 4
4, 1
6, 4
2, 2
8, 2
6, 0
2, 3
3, 1
4, 4
1, 1
2, 4
3, 0
2, 3
4, 0
0, 4
1, 2
3, 2
4, 0
5, 2
2, 3
3, 1
0, 5
0, 1
0, 4
3, 1
3, 3
1, 3
1, 1
4, 1
2, 2
5, 5
1, 4
6, 4
1, 1
3, 4
1, 1
0, 1
2, 5
3, 4
2, 0
4, 2
0, 3
1, 3
1, 1
2, 3
2, 2
5, 1
2, 0
2, 5
1, 2
2, 0
1, 2
1, 3
2, 5
3, 1
1, 1
1, 2
4, 6
1, 2
1, 0
3, 3
1, 2
3, 2
2, 3
1, 2
1, 3
3, 2
3, 2
0, 4
4, 2
1, 2
2, 1
2, 0
3, 4
5, 1
3, 2
1, 0
2, 0
2, 2
0, 0
3, 2
0, 2
0, 0
2, 1
3, 2
0, 0
1, 1
1, 1
0, 3
2, 2
2, 3
1, 4
1, 3
0, 5
3, 2
3, 2
5, 3
3, 0
3, 3
3, 0
1, 0
1, 4
1, 2
1, 3
0, 1
1, 3
1, 2
2, 0
2, 2
4, 0
2, 1
2, 2
1, 1
0, 2
0, 0
1, 1
1, 1
2, 1
1, 1
1, 1
1, 0
3, 1
1, 0
2, 1
1, 0
0, 0
0, 1
0, 0
1, 1
3, 1
0, 0
1, 1
2, 2
1, 2
0, 1
4, 0
0, 0
2, 2
1, 1
1, 1
1, 2
4, 1
0, 1
2, 1
1, 1
1, 0
0, 2
0, 1
4, 2
0, 4
1, 0
1, 0
2, 1
2, 0
0, 0
3, 0
0, 1
0, 0
0, 0
2, 0
0, 1
2, 1
1, 0
0, 0
2, 0
1, 1
2, 3
0, 1
1, 0
2, 1
1, 0
1, 1
0, 1
0, 2
1, 0
0, 2
1, 0
1, 0
1, 1
1, 0
0, 0
0, 0
0, 0
0, 1
1, 1
1, 0
1, 0
0, 0
1, 0
1, 1
0, 1
2, 0
0, 0
1, 1
0, 2
1, 0
0, 0
1, 0
0, 0
1, 0
0, 0
1, 0
0, 0
0, 0
0, 0
0, 1
0, 1
0, 0
0, 0
2, 0
2, 1
0, 0
1, 0
0, 1
1, 0
1, 0
0, 0
0, 0
1, 0
1, 0
0, 0
2, 1
1, 1
0, 0
0, 0
0, 1
2, 0
0, 0
1, 2
0, 0
0, 1
1, 0
0, 0
0, 1
0, 0
0, 0
0, 0
0, 0
1, 1
0, 0
0, 1
1, 2
0, 0
0, 0
0, 1
1, 1
0, 1
0, 1
0, 0
0, 0
0, 0
0, 0
0, 0
0, 0
0, 0
1, 0
3, 0
0, 1
0, 0
0, 1
1, 1
0, 1
1, 0
0, 0
0, 0
0, 1
0, 0
0, 1
1, 0
0, 0
0, 0
2, 0
0, 1
0, 0
0, 0
0, 0
0, 0
0, 0
0, 0
0, 0
0, 0
0, 0
0, 0
0, 0
0, 0
1, 0
2, 0
0, 0
0, 0
0, 0
0, 0
0, 1
0, 0
0, 0
1, 0
0, 0
0, 0
0, 0
0, 0
1, 0
0, 0
0, 0
0, 0
1, 0
1, 0
0, 0
2, 1
0, 0
0, 0
0, 0
0, 0
1, 0
0, 0
0, 0
0, 0
0, 0
0, 0
0, 1
0, 1
1, 0
0, 1
0, 1
0, 0
1, 0
0, 1
0, 0
0, 0
0, 0
1, 1
1, 1
0, 0
0, 0
0, 0
0, 1
1, 0
0, 0
0, 0
0, 1
0, 0
0, 0
0, 0
0, 1
0, 0
0, 0
1, 0
0, 0
0, 0
1, 0
0, 0
0, 0
1, 0
0, 0
0, 0
1, 0
0, 0
1, 0
0, 0
0, 0
0, 0
0, 0
0, 0
0, 0
0, 1
0, 0
0, 0
1, 0
0, 0
1, 0
0, 0
0, 0
0, 0
0, 0
1, 1
0, 0
0, 1
0, 0
0, 0
0, 0
1, 0
0, 0
1, 1
0, 0
0, 0
0, 0
0, 0
0, 1
0, 0
0, 0
0, 0
0, 0
0, 0
0, 0
1, 0
0, 0
0, 0
0, 0
0, 0
0, 0
0, 0
1, 0
0, 0
0, 0
0, 0
0, 0
0, 0
0, 0
0, 0
0, 0
0, 1
0, 0
0, 0
0, 0
0, 0
0, 0
0, 1
0, 0
0, 0
0, 0
0, 0
0, 0
0, 0
1, 0
0, 0
0, 0
0, 0
0, 0
0, 1
0, 0
0, 0
0, 0
0, 0
0, 0
0, 0
0, 0
0, 0
0, 0
0, 0
0, 0
0, 0
0, 0
1, 0
0, 0
0, 0
0, 0
0, 0
0, 0
0, 0
0, 0
0, 0
0, 0
0, 0
0, 1
0, 0
0, 0
0, 0
0, 0
0, 0
0, 0
0, 0
0, 0
0, 0
0, 0
0, 0
0, 0
0, 0
0, 0
0, 0
0, 0
0, 0
0, 0
0, 0
0, 0
0, 0
0, 0
0, 0
0, 0
0, 0
0, 0
0, 0
0, 0
0, 0
0, 0
0, 0
0, 0
0, 0
0, 0
1, 0
0, 0
0, 0
0, 0
0, 0
0, 0
0, 0
0, 0
0, 0
0, 0
0, 0
0, 0
1, 0
0, 0
0, 0
0, 0
0, 0
0, 0
0, 0
0, 0
1, 0
0, 0
0, 0
0, 0
0, 0
0, 0
0, 0
0, 0
0, 0
0, 0
0, 0
0, 0
0, 0
0, 0
0, 0
0, 0
0, 0
0, 0
0, 0
0, 0
0, 0
0, 0
0, 0
0, 0
0, 0
0, 0
0, 0
0, 0
0, 0
0, 0
0, 0
0, 0
0, 0
0, 0
0, 0
0, 0
0, 0
0, 0
0, 0
0, 0
0, 0
0, 0
0, 0
0, 0
0, 0
0, 0
0, 0
0, 0
0, 0
0, 0
0, 0
0, 0
0, 0
0, 0
0, 0
0, 0
0, 0
0, 0
0, 0
0, 0
0, 0
0, 0
0, 0
0, 0
0, 0
0, 0
0, 0
0, 0
0, 0
0, 0
0, 0
0, 0
0, 0
0, 0
0, 0
0, 0
0, 0
0, 0
0, 0
0, 0
0, 0
0, 0
0, 0
0, 0
0, 0
0, 0
0, 0
0, 0
0, 0
0, 0
0, 0
0, 0
0, 0
0, 0
0, 0
0, 0
0, 0
0, 0
0, 0
0, 0
0, 0
0, 0
0, 0
0, 0
0, 0
0, 0
0, 0
0, 0
0, 0
0, 0
0, 0
0, 0
0, 0
0, 0
0, 0
0, 0
0, 0
0, 0
0, 0
0, 0
0, 0
0, 0
0, 0
0, 0
0, 0
0, 0
0, 0
0, 0
0, 0
0, 0
0, 0
0, 0
0, 0
0, 0
0, 0
0, 0
0, 0
0, 0
0, 0
0, 0
0, 0
0, 0
0, 0
0, 0
0, 0
0, 0
0, 0
0, 0
0, 0
0, 0
0, 0
0, 0
0, 0
0, 0
0, 0
0, 0
0, 0
0, 0
0, 0
0, 0
0, 0
0, 0
0, 0
0, 0
0, 0
0, 0
0, 0
0, 0
0, 0
0, 0
0, 0
0, 0
0, 0
0, 0
0, 0
0, 0
0, 0
0, 0
0, 0
0, 0
0, 0
0, 0
0, 0
0, 0
0, 0
0, 0
0, 0
0, 0
0, 0
0, 0
0, 0
0, 0
0, 0
0, 0
0, 0
0, 0
0, 0
0, 0
0, 0
0, 0
0, 0
0, 0
0, 0
0, 0
0, 0
0, 0
0, 0
0, 0
0, 0
0, 0
0, 0
0, 0
0, 0
0, 0
0, 0
0, 0
0, 0
0, 0
0, 0
0, 0
0, 0
0, 0
0, 0
0, 0
0, 0
0, 0
0, 0
0, 0
0, 0
0, 0
0, 0
0, 0
0, 0
0, 0
0, 0
0, 0
0, 0
0, 0
0, 0
0, 0
0, 0
0, 0
0, 0
0, 0
0, 0
0, 0
0, 0
0, 0
0, 0
0, 0
0, 0
0, 0
0, 0
0, 0
0, 0
0, 0
0, 0
0, 0
0, 0
0, 0
0, 0
0, 0
0, 0
0, 0
0, 0
0, 0
0, 0
0, 0
0, 0
0, 0
0, 0
0, 0
0, 0
0, 0
0, 0
0, 0
0, 0
0, 0
0, 0
0, 0
0, 0
0, 0
0, 0
0, 0
0, 0
0, 0
0, 0
0, 0
0, 0
0, 0
0, 0
0, 0
0, 0
0, 0
0, 0
0, 0
0, 0
0, 0
0, 0
0, 0
0, 0
0, 0
0, 0
0, 0
0, 0
0, 0
0, 0
0, 0
0, 0
0, 0
0, 0
0, 0
0, 0
0, 0
0, 0
0, 0
0, 0
0, 0
0, 0
0, 0
0, 0
0, 0
0, 0
0, 0
0, 0
0, 0
0, 0
0, 0
0, 0
0, 0
0, 0
0, 0
0, 0
0, 0
0, 0
0, 0
0, 0
0, 0
0, 0
0, 0
0, 0
0, 0
0, 0
0, 0
0, 0
0, 0
0, 0
0, 0
0, 0
0, 0
0, 0
0, 0
0, 0
0, 0
0, 0
0, 0
0, 0
0, 0
0, 0
0, 0
0, 0
0, 0
0, 0
0, 0
0, 0
0, 0
0, 0
0, 0
0, 0
0, 0
0, 0
0, 0
0, 0
0, 0
0, 0
0, 0
0, 0
0, 0
0, 0
0, 0
0, 0
0, 0
0, 0
0, 0
0, 0
0, 0
#ENDOFDATA     end of spectrum data