File: host_upload/02-11-2024/rqc/uplink1/ps__0567_0717304816_000rfs_shot_467.msa
#FORMAT      : EMSA/MAS spectral data file
#VERSION     : TC202v2.0 PIXL
#TITLE       : Novarupta (sol567) subset1
#DATE        : 02-11-2024      Date in the format DD-MMM-YYYY, for example 07-JUL-2010
#TIME        :             The time of day at which the spectrum was recorded, in 24-hour format
#OWNER       : PIXL Flight Model       (PIXL will use this to indicate which instrument took the data.)
#NPOINTS     : 4096     Number of data points in the spectrum (This can be zero for configuration only files)
#NCOLUMNS    : 2     Number of data columns in the spectrum (This can be zero for configuration only files)
#XUNITS      : eV
#YUNITS      : COUNTS
#DATATYPE    : YY
#XPERCHAN    : 7.862, 7.881   eV per channel (separate by commas if more than one detector)
#OFFSET      : 18.5, -22.4         eV of first channel  (separate by commas if more than one detector
#SIGNALTYPE  : XRF
#YP_TEMP     : 1.979
#LIVETIME    : 8.84115, 8.8188   seconds (separate by commas if more than one detector)
#REALTIME    : 10, 10.0   seconds (separate by commas if more than one detector)
#SPECTRUM    : start of spectrum data
0, 0
0, 0
0, 0
0, 0
0, 0
0, 0
0, 0
0, 0
0, 0
0, 0
0, 0
0, 0
0, 0
0, 0
0, 0
0, 0
0, 0
0, 0
0, 0
0, 0
0, 0
0, 0
0, 0
0, 0
0, 0
0, 0
0, 0
0, 0
0, 0
0, 0
0, 0
0, 0
0, 0
1, 1
0, 2
3, 1
1, 1
1, 5
3, 2
4, 2
6, 5
6, 6
2, 3
2, 3
4, 1
4, 4
3, 0
2, 3
6, 3
5, 6
3, 7
6, 11
8, 13
13, 15
13, 19
16, 13
13, 12
8, 13
8, 13
12, 9
17, 19
39, 28
29, 37
54, 48
44, 61
42, 50
53, 36
28, 31
38, 30
64, 66
116, 138
186, 234
255, 337
417, 478
479, 491
430, 564
454, 456
329, 348
236, 269
128, 144
84, 76
40, 42
28, 36
27, 29
32, 27
31, 40
33, 37
27, 24
33, 25
20, 20
18, 13
15, 20
20, 27
33, 51
71, 72
135, 149
181, 201
221, 277
280, 338
254, 302
255, 284
220, 221
150, 134
102, 92
50, 71
41, 39
58, 56
56, 54
84, 85
136, 132
148, 188
184, 210
224, 238
200, 234
185, 172
168, 152
124, 119
98, 102
86, 87
93, 89
61, 91
75, 74
71, 66
57, 49
35, 43
32, 30
29, 27
27, 25
18, 11
12, 24
12, 17
11, 7
8, 2
9, 8
10, 5
3, 8
5, 12
12, 19
18, 20
17, 26
25, 26
19, 43
21, 38
34, 24
22, 16
13, 23
9, 10
12, 12
9, 10
10, 14
25, 26
36, 63
68, 87
118, 161
203, 266
273, 289
310, 346
349, 419
334, 386
318, 301
238, 239
152, 139
120, 111
49, 66
31, 35
37, 27
20, 27
32, 40
32, 48
47, 55
58, 58
50, 55
64, 61
52, 44
46, 40
32, 27
25, 28
13, 11
7, 17
7, 11
18, 8
8, 7
13, 12
14, 13
6, 16
14, 15
22, 16
21, 25
35, 35
37, 51
48, 64
58, 73
52, 63
55, 61
50, 49
56, 41
37, 34
24, 31
18, 27
29, 12
19, 18
11, 16
14, 18
12, 18
10, 17
10, 14
14, 15
17, 11
18, 18
16, 26
24, 14
16, 24
31, 15
13, 22
9, 20
14, 11
10, 12
8, 9
8, 7
7, 12
11, 8
10, 11
8, 8
6, 13
9, 10
17, 22
22, 24
21, 31
25, 38
27, 34
34, 35
24, 31
36, 32
28, 15
26, 29
30, 19
11, 16
15, 19
12, 15
10, 11
14, 12
16, 11
6, 15
17, 9
11, 20
13, 27
19, 34
35, 32
30, 28
26, 47
40, 59
45, 48
49, 50
47, 47
36, 25
36, 33
21, 29
19, 25
19, 18
15, 16
23, 23
33, 32
34, 50
56, 81
88, 161
172, 258
344, 467
530, 686
842, 1041
1100, 1326
1415, 1697
1614, 1933
1684, 1922
1707, 1781
1467, 1438
1241, 1179
880, 800
611, 550
364, 357
239, 180
118, 106
67, 64
43, 24
18, 16
22, 20
18, 18
17, 14
13, 17
11, 19
12, 14
25, 26
32, 38
44, 37
65, 69
80, 100
125, 138
160, 196
192, 217
233, 270
258, 300
280, 256
264, 255
223, 213
176, 188
115, 124
104, 72
68, 58
45, 44
21, 16
10, 14
9, 7
9, 4
8, 13
6, 4
8, 12
11, 17
9, 12
12, 12
12, 13
7, 13
17, 12
10, 7
9, 8
9, 13
4, 10
8, 4
3, 8
6, 5
5, 11
6, 6
6, 6
4, 4
3, 6
3, 7
8, 7
1, 4
5, 6
5, 4
4, 8
3, 6
3, 5
12, 7
5, 8
9, 10
2, 9
3, 9
4, 4
7, 8
8, 10
8, 7
7, 7
3, 4
6, 10
11, 8
2, 6
8, 7
4, 8
7, 9
9, 7
8, 7
5, 9
6, 6
5, 4
4, 10
14, 18
9, 7
11, 8
9, 10
18, 15
7, 14
9, 8
10, 6
9, 8
8, 3
8, 5
4, 4
8, 4
8, 4
5, 5
5, 5
7, 9
2, 7
3, 7
9, 7
5, 11
4, 5
7, 9
8, 3
3, 7
2, 5
7, 4
7, 7
6, 3
7, 5
9, 10
4, 4
6, 7
4, 5
5, 5
9, 7
5, 6
3, 5
8, 1
7, 6
3, 5
10, 8
9, 5
9, 8
3, 6
0, 2
6, 3
2, 3
4, 3
6, 2
3, 6
1, 3
4, 12
3, 6
4, 2
7, 5
3, 2
6, 4
3, 1
4, 3
2, 3
4, 3
1, 4
5, 3
3, 4
3, 6
0, 3
3, 7
5, 5
5, 5
4, 2
3, 2
2, 1
6, 2
2, 7
3, 7
2, 3
4, 2
5, 5
4, 3
5, 3
0, 5
5, 3
3, 3
3, 5
3, 5
4, 3
4, 5
0, 8
2, 2
2, 7
3, 11
4, 4
4, 4
9, 1
3, 4
1, 7
3, 2
6, 5
0, 5
3, 3
6, 2
1, 1
3, 4
3, 2
3, 5
4, 6
3, 1
5, 2
1, 4
2, 3
6, 1
1, 2
3, 3
2, 6
1, 2
1, 1
3, 3
3, 3
2, 5
4, 1
2, 5
2, 1
1, 4
5, 1
4, 1
5, 2
2, 1
3, 3
0, 3
4, 4
1, 3
3, 5
2, 3
1, 3
1, 3
1, 4
4, 3
1, 8
2, 2
3, 5
5, 2
3, 3
2, 3
3, 1
2, 2
2, 2
1, 4
1, 3
0, 3
4, 5
1, 4
4, 1
3, 3
0, 3
3, 2
1, 3
5, 1
2, 2
3, 3
3, 1
2, 3
1, 3
1, 4
3, 2
2, 2
2, 2
4, 3
1, 4
0, 0
1, 2
2, 2
2, 1
2, 3
3, 4
4, 5
4, 1
2, 4
4, 4
6, 2
4, 1
3, 4
5, 2
2, 2
4, 0
0, 2
2, 6
0, 1
3, 2
0, 0
0, 2
1, 1
2, 1
0, 1
0, 2
3, 1
1, 0
3, 3
0, 2
4, 2
1, 3
2, 0
1, 1
0, 3
1, 1
4, 0
4, 5
1, 1
2, 3
0, 4
0, 2
2, 0
1, 2
2, 2
1, 1
0, 0
2, 1
2, 1
2, 2
1, 2
1, 2
1, 1
1, 1
0, 3
2, 5
0, 1
1, 1
0, 0
1, 0
3, 0
0, 0
0, 1
3, 0
3, 1
0, 2
0, 1
1, 1
2, 1
2, 3
0, 0
0, 2
0, 0
1, 0
1, 0
1, 0
1, 0
0, 1
0, 2
3, 1
0, 2
0, 2
0, 1
1, 0
0, 1
3, 1
2, 0
3, 1
2, 1
0, 0
1, 0
3, 1
1, 1
0, 1
3, 0
1, 2
2, 0
0, 2
0, 0
1, 3
1, 1
0, 0
1, 1
0, 0
0, 1
1, 0
1, 0
0, 1
1, 0
0, 1
0, 2
0, 0
3, 0
1, 0
1, 1
2, 0
1, 1
2, 2
0, 2
0, 0
1, 0
1, 2
0, 1
0, 0
0, 2
2, 1
0, 1
0, 1
2, 0
1, 0
0, 0
0, 0
0, 1
0, 0
0, 2
0, 1
0, 1
1, 0
2, 1
1, 1
0, 2
0, 0
2, 0
1, 1
0, 0
0, 0
0, 1
0, 2
1, 0
1, 0
1, 0
1, 0
2, 2
2, 1
1, 0
0, 1
0, 1
0, 0
1, 0
1, 1
0, 0
0, 0
0, 0
0, 0
1, 0
0, 0
2, 0
1, 0
0, 0
1, 0
0, 1
0, 0
1, 1
0, 2
1, 2
0, 0
1, 0
0, 0
0, 1
0, 0
0, 1
0, 0
0, 0
0, 0
0, 1
0, 1
2, 1
1, 0
0, 1
0, 0
0, 0
1, 0
0, 0
0, 1
0, 1
0, 0
0, 0
0, 0
0, 0
0, 0
0, 1
0, 0
1, 0
0, 0
1, 2
0, 0
0, 0
0, 1
0, 0
0, 0
0, 1
0, 0
0, 0
2, 0
1, 0
0, 0
0, 0
0, 0
2, 0
0, 0
0, 1
0, 0
0, 0
1, 1
0, 0
0, 1
0, 1
0, 0
0, 0
0, 0
0, 0
0, 0
0, 0
0, 0
1, 0
0, 1
1, 2
0, 0
0, 0
0, 0
0, 1
1, 0
0, 1
0, 1
0, 0
0, 0
1, 0
0, 0
1, 0
0, 0
1, 1
0, 1
0, 0
0, 0
0, 1
1, 1
0, 0
0, 1
1, 1
0, 0
0, 0
0, 0
0, 0
0, 0
0, 0
0, 0
0, 1
0, 1
0, 1
0, 0
0, 0
0, 0
0, 0
1, 0
0, 0
0, 0
0, 0
0, 0
0, 1
1, 0
0, 0
0, 0
0, 0
0, 0
1, 0
0, 0
0, 0
0, 0
0, 0
0, 0
0, 0
0, 0
1, 0
1, 0
0, 0
0, 0
0, 0
0, 0
0, 0
0, 0
0, 1
1, 0
0, 0
0, 0
0, 0
0, 0
0, 1
0, 0
0, 0
0, 0
0, 0
1, 0
0, 1
0, 0
1, 0
0, 0
0, 0
0, 1
0, 1
0, 0
0, 0
0, 0
1, 1
0, 0
0, 0
0, 0
0, 0
0, 0
0, 0
0, 1
0, 0
0, 0
0, 0
0, 0
0, 0
0, 1
0, 0
0, 0
0, 0
0, 0
0, 0
0, 0
0, 0
0, 0
0, 0
0, 0
0, 0
0, 0
0, 0
0, 0
1, 0
0, 0
0, 0
0, 0
0, 0
0, 0
0, 0
0, 0
0, 1
0, 0
1, 0
0, 0
0, 0
0, 0
1, 0
0, 0
0, 0
1, 0
0, 0
0, 0
0, 0
0, 0
0, 0
0, 0
1, 0
0, 0
0, 0
0, 0
0, 0
1, 0
0, 0
1, 0
0, 0
0, 0
0, 0
0, 0
0, 0
0, 0
0, 0
0, 1
0, 0
0, 0
0, 0
0, 0
0, 0
0, 0
0, 0
0, 0
0, 0
0, 0
0, 0
0, 0
0, 0
0, 0
0, 0
0, 0
0, 0
0, 0
0, 0
0, 0
0, 0
0, 0
0, 0
0, 0
0, 0
0, 0
0, 0
0, 0
0, 0
0, 0
0, 0
0, 0
0, 0
0, 0
0, 0
0, 0
1, 0
0, 0
0, 0
0, 0
0, 1
0, 0
0, 0
0, 0
0, 0
0, 0
0, 0
0, 0
0, 0
0, 0
0, 0
0, 0
0, 0
0, 0
0, 0
0, 0
0, 0
0, 0
0, 0
0, 0
0, 0
0, 0
0, 0
0, 0
0, 0
0, 0
0, 0
0, 0
0, 0
0, 0
0, 0
0, 0
0, 0
0, 0
0, 0
0, 0
0, 0
0, 0
0, 0
0, 0
0, 0
0, 0
0, 0
0, 0
0, 0
0, 0
0, 0
0, 0
1, 0
0, 0
0, 0
0, 0
0, 0
0, 0
0, 0
0, 0
0, 0
0, 0
0, 0
0, 0
0, 0
0, 0
0, 0
0, 0
0, 0
0, 0
0, 0
0, 0
0, 0
0, 0
0, 0
0, 0
0, 0
0, 0
0, 0
0, 0
0, 0
0, 0
0, 0
0, 0
0, 0
0, 0
0, 0
0, 0
0, 0
0, 0
0, 0
0, 0
0, 0
0, 0
0, 0
0, 0
0, 0
0, 0
0, 0
0, 0
0, 0
0, 0
0, 0
0, 0
0, 0
0, 0
0, 0
0, 0
0, 0
0, 0
0, 0
0, 0
0, 0
0, 0
0, 0
0, 0
0, 0
0, 0
0, 0
0, 0
0, 0
0, 0
0, 0
0, 0
0, 0
0, 0
0, 0
0, 0
0, 0
0, 0
0, 0
0, 0
0, 0
0, 0
0, 0
0, 0
0, 0
0, 0
0, 0
0, 0
0, 0
0, 0
0, 0
0, 0
0, 0
0, 0
0, 0
0, 0
0, 0
0, 0
0, 0
0, 0
0, 0
0, 0
0, 0
0, 0
0, 0
0, 0
0, 0
0, 0
0, 0
0, 0
0, 0
0, 0
0, 0
0, 0
0, 0
0, 0
0, 0
0, 0
0, 0
0, 0
0, 0
0, 0
0, 0
0, 0
0, 0
0, 0
0, 0
0, 0
0, 0
0, 0
0, 0
0, 0
0, 0
0, 0
0, 0
0, 0
0, 0
0, 0
0, 0
0, 0
0, 0
0, 0
0, 0
0, 0
0, 0
0, 0
0, 0
0, 0
0, 0
0, 0
0, 0
0, 0
0, 0
0, 0
0, 0
0, 0
0, 0
0, 0
0, 0
0, 0
0, 0
0, 0
0, 0
0, 0
0, 0
0, 0
0, 0
0, 0
0, 0
0, 0
0, 0
0, 0
0, 0
0, 0
0, 0
0, 0
0, 0
0, 0
0, 0
0, 0
0, 0
0, 0
0, 0
0, 0
0, 0
0, 0
0, 0
0, 0
0, 0
0, 0
0, 0
0, 0
0, 0
0, 0
0, 0
0, 0
0, 0
0, 0
0, 0
0, 0
0, 0
0, 0
0, 0
0, 0
0, 0
0, 0
0, 0
0, 0
0, 0
0, 0
0, 0
0, 0
0, 0
0, 0
0, 0
0, 0
0, 0
0, 0
0, 0
0, 0
0, 0
0, 0
0, 0
0, 0
0, 0
0, 0
0, 0
0, 0
0, 0
0, 0
0, 0
0, 0
0, 0
0, 0
0, 0
0, 0
0, 0
0, 0
0, 0
0, 0
0, 0
0, 0
0, 0
0, 0
0, 0
0, 0
0, 0
0, 0
0, 0
0, 0
0, 0
0, 0
0, 0
0, 0
0, 0
0, 0
0, 0
0, 0
0, 0
0, 0
0, 0
0, 0
0, 0
0, 0
0, 0
0, 0
0, 0
0, 0
0, 0
0, 0
0, 0
0, 0
0, 0
0, 0
0, 0
0, 0
0, 0
0, 0
0, 0
0, 0
0, 0
0, 0
0, 0
0, 0
0, 0
0, 0
0, 0
0, 0
0, 0
0, 0
0, 0
0, 0
0, 0
0, 0
0, 0
0, 0
0, 0
0, 0
0, 0
0, 0
0, 0
0, 0
0, 0
0, 0
0, 0
0, 0
0, 0
0, 0
0, 0
0, 0
0, 0
0, 0
0, 0
0, 0
0, 0
0, 0
0, 0
0, 0
0, 0
0, 0
0, 0
0, 0
0, 0
0, 0
0, 0
0, 0
0, 0
0, 0
0, 0
0, 0
0, 0
0, 0
0, 0
0, 0
0, 0
0, 0
0, 0
0, 0
0, 0
0, 0
0, 0
0, 0
0, 0
0, 0
0, 0
0, 0
0, 0
0, 0
0, 0
0, 0
0, 0
0, 0
0, 0
0, 0
0, 0
#ENDOFDATA     end of spectrum data