File: host_upload/02-11-2024/rqc/uplink1/ps__0567_0717304816_000rfs_shot_109.msa
#FORMAT      : EMSA/MAS spectral data file
#VERSION     : TC202v2.0 PIXL
#TITLE       : Novarupta (sol567) subset1
#DATE        : 02-11-2024      Date in the format DD-MMM-YYYY, for example 07-JUL-2010
#TIME        :             The time of day at which the spectrum was recorded, in 24-hour format
#OWNER       : PIXL Flight Model       (PIXL will use this to indicate which instrument took the data.)
#NPOINTS     : 4096     Number of data points in the spectrum (This can be zero for configuration only files)
#NCOLUMNS    : 2     Number of data columns in the spectrum (This can be zero for configuration only files)
#XUNITS      : eV
#YUNITS      : COUNTS
#DATATYPE    : YY
#XPERCHAN    : 7.862, 7.881   eV per channel (separate by commas if more than one detector)
#OFFSET      : 18.5, -22.4         eV of first channel  (separate by commas if more than one detector
#SIGNALTYPE  : XRF
#YP_TEMP     : -0.779
#LIVETIME    : 8.83552, 8.82876   seconds (separate by commas if more than one detector)
#REALTIME    : 10, 10.0   seconds (separate by commas if more than one detector)
#SPECTRUM    : start of spectrum data
0, 0
0, 0
0, 0
0, 0
0, 0
0, 0
0, 0
0, 0
0, 0
0, 0
0, 0
0, 0
0, 0
0, 0
0, 0
0, 0
0, 0
0, 0
0, 0
0, 0
0, 0
0, 0
0, 0
0, 0
0, 0
0, 0
0, 0
0, 0
0, 0
0, 0
0, 0
1, 0
0, 0
2, 1
4, 2
0, 2
2, 1
0, 1
3, 3
1, 3
7, 7
4, 1
5, 3
3, 0
7, 6
2, 2
3, 3
5, 2
6, 7
4, 4
5, 6
7, 10
10, 11
11, 11
15, 28
18, 15
11, 14
9, 8
8, 3
12, 16
15, 18
34, 22
40, 38
45, 37
48, 39
41, 49
48, 32
44, 33
43, 49
72, 64
112, 126
186, 191
308, 303
399, 422
420, 508
492, 509
450, 397
324, 299
248, 195
144, 138
93, 81
64, 42
20, 33
31, 28
27, 24
30, 40
34, 36
34, 25
31, 24
22, 16
10, 16
18, 21
26, 22
36, 49
87, 92
134, 152
200, 206
270, 261
307, 318
283, 303
253, 305
202, 204
144, 135
100, 87
56, 79
60, 59
49, 72
60, 57
106, 98
139, 126
161, 169
207, 192
253, 225
177, 201
198, 197
171, 162
116, 133
106, 107
94, 101
82, 83
81, 70
75, 81
63, 48
61, 57
42, 45
37, 20
25, 29
19, 27
13, 13
15, 10
11, 13
8, 7
10, 7
5, 4
6, 7
11, 6
9, 12
16, 8
14, 18
23, 16
23, 27
34, 25
31, 48
35, 22
17, 22
18, 14
12, 11
14, 10
10, 13
20, 12
44, 32
51, 52
95, 91
139, 158
220, 234
266, 322
353, 375
343, 383
295, 338
295, 246
229, 171
166, 134
96, 93
48, 50
41, 27
26, 19
26, 33
29, 31
43, 46
44, 67
48, 71
59, 53
62, 59
44, 47
40, 37
31, 29
21, 22
15, 11
17, 18
9, 10
8, 13
9, 8
3, 7
12, 11
16, 7
13, 6
18, 18
27, 33
40, 39
52, 57
39, 51
67, 57
63, 57
57, 65
45, 34
26, 47
41, 32
35, 30
25, 21
24, 14
24, 15
18, 11
11, 11
9, 8
14, 12
10, 9
15, 21
17, 12
20, 18
18, 21
15, 19
23, 13
16, 11
19, 16
13, 13
14, 10
13, 17
13, 11
3, 22
10, 6
9, 5
15, 9
15, 11
16, 12
15, 7
23, 13
22, 21
25, 30
31, 29
37, 23
23, 21
26, 35
28, 32
20, 26
24, 19
18, 13
17, 18
19, 12
15, 13
15, 8
12, 12
9, 12
6, 14
13, 8
22, 16
24, 20
25, 44
24, 35
39, 46
54, 59
60, 48
53, 47
43, 43
41, 48
39, 45
29, 22
26, 18
24, 27
8, 16
20, 20
21, 17
31, 31
57, 61
90, 91
135, 184
246, 315
390, 499
622, 757
919, 1055
1303, 1424
1456, 1662
1707, 1809
1706, 1764
1660, 1534
1406, 1295
1087, 1025
771, 708
594, 455
323, 276
205, 153
116, 83
67, 41
26, 31
25, 28
19, 13
20, 22
16, 20
21, 16
11, 14
21, 20
22, 38
29, 44
50, 55
52, 71
108, 131
116, 148
155, 182
208, 232
236, 271
252, 270
243, 292
246, 236
220, 182
177, 150
127, 110
83, 77
59, 54
34, 28
16, 19
16, 12
10, 14
10, 11
11, 5
7, 8
6, 13
13, 17
14, 10
11, 10
16, 13
13, 12
8, 9
8, 13
8, 8
7, 8
7, 1
4, 2
5, 10
6, 10
10, 2
6, 6
4, 5
3, 6
8, 5
5, 10
6, 4
5, 7
5, 8
6, 6
6, 9
10, 9
10, 10
1, 5
5, 1
3, 10
5, 10
6, 4
7, 3
10, 11
6, 6
1, 4
8, 8
8, 8
6, 9
11, 3
3, 8
6, 5
6, 10
7, 6
5, 5
7, 11
4, 7
5, 7
8, 4
6, 6
16, 10
12, 9
10, 15
12, 11
13, 12
8, 8
13, 9
6, 18
3, 6
4, 4
6, 8
5, 7
5, 5
5, 10
3, 4
2, 3
3, 6
8, 9
4, 3
5, 3
5, 8
6, 6
7, 4
8, 5
7, 6
7, 2
6, 6
3, 3
5, 4
9, 7
6, 6
2, 10
2, 6
6, 4
3, 4
2, 2
7, 2
5, 9
3, 3
4, 5
6, 6
6, 7
3, 4
0, 9
4, 5
5, 4
6, 3
4, 4
4, 6
9, 5
6, 2
3, 4
9, 8
7, 8
2, 5
2, 3
5, 5
4, 3
0, 5
3, 3
7, 7
5, 4
1, 1
3, 3
5, 4
4, 2
4, 8
7, 1
4, 2
5, 1
6, 4
0, 7
4, 4
3, 1
5, 4
3, 5
2, 0
7, 5
4, 1
1, 2
7, 1
1, 4
3, 3
2, 1
3, 2
2, 2
3, 3
5, 2
2, 6
4, 3
2, 2
3, 2
7, 2
1, 7
2, 1
2, 5
2, 1
2, 5
6, 2
3, 3
1, 7
2, 4
1, 4
5, 1
6, 1
3, 3
3, 6
4, 1
4, 2
1, 1
6, 4
5, 2
3, 4
4, 2
6, 2
4, 1
1, 2
3, 8
3, 4
0, 2
7, 4
6, 2
2, 4
2, 4
2, 3
2, 2
2, 5
5, 3
4, 3
2, 0
1, 5
2, 3
5, 0
4, 3
2, 3
2, 2
3, 4
2, 3
2, 2
1, 3
2, 3
3, 1
2, 2
5, 4
1, 3
4, 5
1, 0
2, 2
2, 3
1, 2
1, 3
6, 4
1, 1
3, 6
2, 3
1, 2
3, 0
3, 4
3, 3
4, 3
5, 4
0, 0
0, 1
4, 1
4, 2
2, 6
1, 1
2, 4
1, 1
2, 4
1, 2
0, 1
4, 0
1, 5
1, 1
2, 1
3, 3
2, 2
3, 3
2, 3
3, 7
1, 2
1, 2
3, 2
3, 1
3, 1
2, 1
3, 0
3, 5
0, 0
2, 1
1, 2
0, 0
1, 2
4, 1
2, 1
0, 1
2, 2
1, 0
1, 2
3, 2
5, 4
1, 2
2, 3
5, 0
1, 2
2, 1
2, 3
1, 2
2, 2
1, 3
0, 1
0, 1
1, 1
2, 0
0, 2
0, 1
0, 1
0, 2
2, 0
1, 2
1, 0
1, 2
1, 3
1, 1
1, 1
1, 1
2, 2
0, 0
2, 0
2, 2
0, 2
1, 0
1, 1
2, 1
2, 2
2, 1
1, 3
2, 0
1, 2
2, 1
2, 0
0, 1
0, 2
1, 2
1, 1
3, 1
0, 3
2, 0
1, 0
1, 0
1, 1
1, 2
0, 0
0, 0
0, 2
0, 0
2, 4
1, 1
0, 0
1, 3
0, 1
3, 2
1, 0
0, 0
1, 1
0, 0
0, 2
0, 0
2, 0
1, 2
2, 0
0, 1
1, 1
1, 1
1, 0
1, 1
1, 1
1, 3
0, 1
1, 0
1, 2
0, 1
0, 1
3, 2
0, 0
0, 2
1, 0
0, 1
0, 1
0, 0
1, 0
1, 0
1, 2
0, 0
0, 0
0, 1
0, 2
0, 0
0, 0
0, 0
0, 0
1, 2
1, 1
0, 0
1, 2
0, 2
2, 0
0, 0
0, 0
0, 0
1, 0
0, 1
0, 0
0, 1
0, 0
1, 0
0, 0
0, 1
0, 0
1, 1
0, 0
1, 1
0, 1
0, 1
0, 1
0, 0
1, 0
0, 1
0, 1
0, 0
0, 2
0, 0
0, 1
0, 0
1, 0
0, 1
0, 0
0, 0
0, 0
0, 1
1, 0
0, 0
0, 1
0, 2
0, 0
0, 0
2, 0
0, 0
0, 0
0, 1
0, 1
1, 1
0, 0
1, 0
0, 2
0, 0
0, 0
1, 1
1, 0
0, 1
2, 1
2, 0
0, 0
0, 0
1, 0
0, 3
0, 0
1, 3
0, 0
0, 2
0, 0
0, 1
0, 0
0, 0
0, 1
0, 1
0, 0
0, 0
0, 0
1, 0
0, 1
0, 0
0, 1
0, 0
3, 0
1, 1
0, 0
0, 1
0, 0
0, 0
2, 0
1, 0
0, 0
0, 0
0, 1
1, 0
0, 0
0, 0
0, 0
0, 0
0, 0
0, 0
0, 0
0, 1
0, 0
0, 1
2, 0
0, 0
0, 0
0, 1
0, 0
0, 0
0, 0
0, 0
0, 0
0, 1
0, 0
0, 0
0, 1
1, 1
0, 0
0, 0
0, 0
0, 0
0, 1
0, 1
1, 0
0, 0
0, 0
0, 0
0, 0
0, 0
0, 0
0, 1
0, 1
1, 0
1, 1
0, 0
0, 2
1, 0
1, 0
1, 0
0, 0
0, 0
0, 0
1, 1
0, 0
0, 0
0, 0
0, 0
0, 1
0, 0
0, 1
0, 0
0, 0
0, 0
0, 1
0, 0
0, 0
0, 0
0, 0
1, 0
1, 0
0, 1
0, 0
0, 0
0, 0
0, 0
0, 0
0, 0
0, 1
0, 0
0, 0
0, 0
0, 0
0, 0
0, 0
1, 0
0, 0
1, 0
0, 0
0, 0
1, 0
0, 0
0, 1
0, 0
0, 1
1, 1
0, 0
0, 0
0, 0
0, 1
0, 0
0, 0
0, 0
0, 0
0, 1
0, 0
0, 0
0, 0
0, 0
0, 0
1, 0
0, 0
0, 0
0, 0
0, 0
0, 0
0, 1
1, 1
0, 0
0, 0
0, 0
0, 0
0, 0
0, 0
0, 0
0, 1
0, 1
0, 0
1, 0
0, 0
0, 0
0, 0
0, 0
0, 0
0, 0
0, 1
0, 0
0, 1
0, 0
0, 0
0, 0
0, 0
0, 0
0, 0
0, 0
1, 1
0, 0
0, 0
0, 0
0, 0
1, 0
0, 0
0, 0
0, 0
0, 0
0, 0
0, 0
0, 0
0, 0
0, 0
0, 0
0, 0
0, 0
1, 0
0, 0
0, 0
0, 1
0, 0
0, 0
0, 0
0, 0
0, 1
0, 0
0, 0
0, 0
0, 0
0, 0
0, 0
0, 0
0, 0
0, 0
0, 0
0, 0
0, 0
0, 0
0, 0
0, 0
0, 0
0, 0
0, 0
0, 0
0, 0
0, 0
0, 0
0, 0
0, 0
0, 0
0, 0
0, 0
0, 0
0, 0
0, 0
0, 0
0, 0
0, 0
0, 0
0, 0
0, 0
0, 0
0, 0
0, 0
0, 0
0, 0
0, 0
0, 0
0, 0
0, 0
0, 0
0, 0
0, 0
0, 0
0, 0
0, 0
0, 0
0, 0
0, 0
0, 0
0, 0
0, 0
0, 0
0, 0
0, 0
0, 0
0, 0
0, 0
0, 0
0, 0
0, 0
0, 0
0, 0
0, 0
0, 0
0, 0
0, 0
0, 0
0, 0
0, 0
0, 0
0, 0
0, 0
0, 0
0, 0
0, 0
0, 0
0, 0
0, 0
0, 0
0, 0
0, 0
1, 0
0, 0
0, 0
0, 0
0, 0
0, 0
0, 0
0, 0
0, 0
0, 0
0, 0
0, 0
0, 0
0, 0
0, 0
0, 0
0, 0
0, 1
0, 0
0, 0
0, 0
0, 0
0, 0
0, 0
0, 0
0, 0
0, 0
0, 0
0, 0
0, 0
0, 0
0, 0
0, 0
0, 0
0, 0
0, 0
0, 0
0, 0
0, 0
0, 0
0, 0
0, 0
0, 0
0, 0
0, 0
0, 0
0, 0
0, 0
0, 0
0, 0
0, 0
0, 0
0, 0
0, 0
0, 0
0, 0
0, 0
0, 0
0, 0
0, 0
0, 0
0, 0
0, 0
0, 0
0, 0
0, 0
0, 0
0, 0
0, 0
0, 0
0, 0
0, 0
0, 0
0, 0
0, 0
0, 0
0, 0
0, 0
0, 0
0, 0
0, 0
0, 0
0, 0
0, 0
0, 0
0, 0
0, 0
0, 0
0, 0
0, 0
0, 0
0, 0
0, 0
0, 0
0, 0
0, 0
0, 0
0, 0
0, 0
0, 0
0, 0
0, 0
0, 0
0, 0
0, 0
0, 0
0, 0
0, 0
0, 0
0, 0
0, 0
0, 0
0, 0
0, 0
0, 0
0, 0
0, 0
0, 0
0, 0
0, 0
0, 0
0, 0
0, 0
0, 0
0, 0
0, 0
0, 0
0, 0
0, 0
0, 0
0, 0
0, 0
0, 0
0, 0
0, 0
0, 0
0, 0
0, 0
0, 0
0, 0
0, 0
0, 0
0, 0
0, 0
0, 0
0, 0
0, 0
0, 0
0, 0
0, 0
0, 0
0, 0
0, 0
0, 0
0, 0
0, 0
0, 0
0, 0
0, 0
0, 0
0, 0
0, 0
0, 0
0, 0
0, 0
0, 0
0, 0
0, 0
0, 0
0, 0
0, 0
0, 0
0, 0
0, 0
0, 0
0, 0
0, 0
0, 0
0, 0
0, 0
0, 0
0, 0
0, 0
0, 0
0, 0
0, 0
0, 0
0, 0
0, 0
0, 0
0, 0
0, 0
0, 0
0, 0
0, 0
0, 0
0, 0
0, 0
0, 0
0, 0
0, 0
0, 0
0, 0
0, 0
0, 0
0, 0
0, 0
0, 0
0, 0
0, 0
0, 0
0, 0
0, 0
0, 0
0, 0
0, 0
0, 0
0, 0
0, 0
0, 0
0, 0
0, 0
0, 0
0, 0
0, 0
0, 0
0, 0
0, 0
0, 0
0, 0
0, 0
0, 0
0, 0
0, 0
0, 0
0, 0
0, 0
0, 0
0, 0
0, 0
0, 0
0, 0
0, 0
0, 0
0, 0
0, 0
0, 0
0, 0
0, 0
0, 0
0, 0
0, 0
0, 0
0, 0
0, 0
0, 0
0, 0
0, 0
0, 0
0, 0
0, 0
0, 0
0, 0
0, 0
0, 0
0, 0
0, 0
0, 0
0, 0
0, 0
0, 0
0, 0
0, 0
0, 0
0, 0
0, 0
0, 0
0, 0
0, 0
0, 0
0, 0
0, 0
0, 0
0, 0
0, 0
0, 0
0, 0
0, 0
0, 0
0, 0
0, 0
0, 0
0, 0
0, 0
0, 0
0, 0
0, 0
0, 0
0, 0
0, 0
0, 0
0, 0
0, 0
0, 0
0, 0
0, 0
0, 0
0, 0
0, 0
0, 0
0, 0
0, 0
0, 0
0, 0
0, 0
0, 0
0, 0
0, 0
0, 0
0, 0
0, 0
0, 0
0, 0
0, 0
0, 0
0, 0
0, 0
0, 0
0, 0
0, 0
0, 0
0, 0
0, 0
0, 0
0, 0
0, 0
0, 0
0, 0
0, 0
0, 0
0, 0
0, 0
0, 0
0, 0
0, 0
0, 0
0, 0
0, 0
0, 0
0, 0
#ENDOFDATA     end of spectrum data