File: host_upload/02-11-2024/rqc/uplink1/ps__0567_0717304816_000rfs_shot_91.msa
#FORMAT      : EMSA/MAS spectral data file
#VERSION     : TC202v2.0 PIXL
#TITLE       : Novarupta (sol567) subset1
#DATE        : 02-11-2024      Date in the format DD-MMM-YYYY, for example 07-JUL-2010
#TIME        :             The time of day at which the spectrum was recorded, in 24-hour format
#OWNER       : PIXL Flight Model       (PIXL will use this to indicate which instrument took the data.)
#NPOINTS     : 4096     Number of data points in the spectrum (This can be zero for configuration only files)
#NCOLUMNS    : 2     Number of data columns in the spectrum (This can be zero for configuration only files)
#XUNITS      : eV
#YUNITS      : COUNTS
#DATATYPE    : YY
#XPERCHAN    : 7.862, 7.881   eV per channel (separate by commas if more than one detector)
#OFFSET      : 18.5, -22.4         eV of first channel  (separate by commas if more than one detector
#SIGNALTYPE  : XRF
#YP_TEMP     : -1.357
#LIVETIME    : 8.84495, 8.83096   seconds (separate by commas if more than one detector)
#REALTIME    : 10, 10.0   seconds (separate by commas if more than one detector)
#SPECTRUM    : start of spectrum data
0, 0
0, 0
0, 0
0, 0
0, 0
0, 0
0, 0
0, 0
0, 0
0, 0
0, 0
0, 0
0, 0
0, 0
0, 0
0, 0
0, 0
0, 0
0, 0
0, 0
0, 0
0, 0
0, 0
0, 0
0, 0
0, 0
0, 0
0, 0
0, 0
0, 0
0, 0
0, 0
1, 0
0, 1
0, 1
3, 2
2, 1
1, 2
4, 4
3, 4
2, 1
4, 4
1, 5
2, 2
2, 4
2, 5
4, 1
2, 1
7, 5
4, 4
5, 2
13, 7
10, 5
12, 13
15, 19
12, 20
16, 13
11, 8
12, 11
12, 10
20, 17
19, 24
40, 33
49, 37
45, 48
35, 42
43, 37
40, 34
31, 38
60, 72
102, 130
203, 196
294, 321
403, 443
427, 464
485, 464
375, 428
293, 332
238, 197
135, 130
86, 78
54, 45
33, 20
30, 24
24, 27
28, 29
19, 27
40, 28
25, 31
15, 17
16, 17
20, 10
25, 31
48, 49
73, 94
116, 152
173, 245
263, 276
303, 333
264, 296
235, 238
192, 181
144, 137
112, 93
58, 73
39, 63
55, 66
63, 61
90, 117
130, 136
149, 195
212, 227
221, 244
200, 229
159, 174
156, 158
118, 126
111, 103
90, 93
78, 83
62, 73
75, 74
69, 68
53, 48
40, 43
34, 40
32, 34
24, 29
24, 15
14, 14
4, 12
8, 11
8, 8
4, 8
8, 11
5, 7
10, 12
11, 17
16, 22
22, 31
24, 29
30, 32
23, 29
19, 21
27, 28
17, 11
6, 6
12, 10
14, 12
17, 9
39, 39
50, 60
108, 102
134, 148
216, 266
300, 306
325, 377
342, 323
317, 363
247, 300
228, 230
137, 145
99, 78
66, 57
37, 32
19, 26
30, 25
22, 33
44, 39
44, 44
59, 61
55, 77
54, 56
40, 52
26, 38
26, 24
22, 7
7, 13
5, 13
8, 6
6, 7
5, 11
10, 10
12, 12
6, 16
11, 10
19, 25
21, 16
31, 45
54, 54
60, 49
64, 51
69, 70
57, 57
66, 62
39, 38
31, 24
29, 22
25, 28
18, 19
17, 18
17, 13
14, 15
9, 19
18, 13
21, 18
14, 18
18, 14
10, 19
21, 24
17, 19
16, 20
15, 12
14, 24
22, 15
13, 11
14, 13
8, 10
8, 8
5, 13
10, 2
11, 11
10, 13
16, 13
8, 14
17, 21
26, 22
20, 38
32, 32
40, 31
34, 35
20, 26
24, 22
27, 24
22, 20
15, 12
10, 13
11, 7
8, 13
7, 12
6, 9
11, 9
13, 15
11, 13
13, 16
16, 14
21, 31
30, 30
45, 43
44, 55
42, 53
57, 57
44, 42
38, 41
32, 51
25, 29
31, 26
17, 16
18, 16
11, 19
21, 20
23, 36
62, 51
73, 109
145, 195
243, 334
434, 538
607, 803
931, 1030
1175, 1347
1443, 1663
1591, 1731
1642, 1785
1582, 1531
1282, 1265
1054, 973
754, 692
524, 420
311, 297
186, 147
101, 86
68, 52
31, 36
27, 21
15, 15
17, 17
13, 17
16, 25
21, 22
23, 13
23, 30
28, 38
40, 68
59, 81
84, 114
124, 165
157, 179
198, 241
243, 258
263, 273
203, 243
215, 242
173, 182
161, 136
120, 89
74, 68
57, 37
23, 20
22, 16
13, 8
10, 7
8, 12
7, 7
9, 11
6, 12
15, 10
9, 15
6, 12
11, 14
10, 13
9, 9
5, 9
8, 11
10, 4
6, 7
5, 5
4, 8
9, 5
5, 8
5, 8
4, 5
14, 7
2, 4
2, 4
4, 7
6, 4
5, 7
4, 7
9, 11
7, 6
5, 8
5, 9
8, 6
4, 6
3, 14
8, 10
4, 8
7, 9
6, 4
6, 9
8, 11
5, 10
6, 5
8, 6
5, 8
8, 6
9, 2
4, 11
7, 5
7, 10
10, 8
7, 3
12, 6
7, 13
11, 10
8, 10
15, 14
5, 6
4, 16
8, 6
5, 8
6, 11
8, 5
5, 2
6, 3
2, 8
6, 8
3, 8
7, 5
8, 7
4, 3
5, 4
7, 7
5, 10
3, 3
10, 1
5, 6
5, 4
5, 4
1, 5
8, 4
3, 3
2, 4
7, 2
3, 4
2, 5
6, 2
4, 4
8, 3
7, 2
14, 6
9, 5
4, 9
11, 7
5, 2
2, 5
5, 2
2, 5
6, 4
4, 7
3, 3
6, 1
2, 5
2, 1
3, 4
4, 3
6, 8
1, 7
4, 6
7, 8
3, 3
2, 4
5, 3
5, 6
4, 6
4, 6
2, 4
3, 4
2, 4
2, 1
2, 6
7, 6
5, 2
6, 10
8, 5
1, 5
2, 6
4, 5
2, 6
3, 4
2, 2
6, 2
5, 2
6, 5
6, 6
2, 5
5, 5
1, 3
7, 4
4, 2
3, 2
5, 5
3, 3
3, 3
2, 4
4, 3
1, 5
4, 1
1, 3
4, 4
0, 11
2, 3
1, 4
2, 3
2, 2
1, 3
2, 2
1, 1
1, 5
3, 3
3, 1
2, 0
3, 4
2, 3
0, 3
2, 0
2, 5
2, 3
5, 1
3, 2
3, 3
2, 2
2, 4
1, 0
7, 4
3, 1
4, 6
2, 4
2, 3
1, 3
1, 4
0, 1
2, 4
0, 1
4, 4
1, 6
3, 2
3, 3
4, 4
2, 1
3, 1
2, 3
2, 4
3, 3
4, 4
6, 1
4, 5
0, 2
3, 1
5, 1
0, 0
1, 3
0, 3
4, 1
2, 2
2, 1
2, 0
3, 2
1, 4
2, 1
1, 1
0, 2
2, 7
3, 1
3, 1
3, 1
5, 1
3, 3
0, 1
3, 2
1, 2
1, 3
1, 4
1, 2
3, 2
1, 1
2, 1
0, 0
2, 2
3, 0
2, 7
2, 1
1, 3
2, 2
1, 2
3, 1
1, 6
2, 1
0, 0
3, 2
2, 3
2, 4
0, 4
1, 1
1, 1
4, 0
1, 1
2, 2
2, 2
0, 0
0, 1
4, 5
2, 2
1, 1
3, 0
1, 1
3, 4
2, 0
1, 1
0, 0
3, 2
0, 0
1, 4
1, 2
2, 4
1, 1
2, 3
2, 2
1, 0
2, 0
1, 1
1, 2
0, 0
2, 0
1, 2
3, 0
0, 0
3, 0
0, 2
2, 1
1, 0
1, 2
0, 0
0, 0
4, 2
3, 1
2, 2
1, 2
1, 2
0, 1
0, 2
1, 0
1, 0
1, 2
0, 2
2, 2
3, 0
0, 1
0, 2
2, 1
2, 1
1, 1
2, 2
0, 2
0, 0
0, 0
3, 0
2, 0
1, 0
2, 1
0, 2
0, 2
1, 1
0, 2
2, 0
0, 2
0, 2
1, 0
0, 1
1, 1
1, 1
1, 0
0, 1
0, 0
0, 2
2, 0
1, 1
1, 2
1, 0
0, 1
0, 0
0, 1
3, 1
1, 1
0, 0
1, 0
0, 0
0, 1
2, 0
1, 0
0, 2
1, 0
1, 1
0, 2
0, 1
0, 0
0, 1
0, 1
0, 0
0, 1
1, 1
0, 0
1, 0
0, 0
1, 1
0, 0
0, 1
1, 2
1, 0
0, 1
0, 2
1, 2
1, 0
0, 0
0, 0
0, 0
0, 0
0, 1
0, 0
1, 0
0, 0
0, 0
0, 0
0, 1
0, 0
2, 0
1, 0
1, 0
0, 1
0, 0
1, 1
1, 0
0, 0
0, 1
1, 0
0, 0
0, 0
0, 1
1, 3
0, 1
0, 1
0, 1
0, 1
0, 0
1, 0
0, 0
0, 0
0, 0
0, 0
0, 0
0, 1
2, 0
0, 1
0, 0
0, 0
1, 2
1, 1
1, 1
1, 0
2, 0
0, 0
0, 0
0, 1
0, 0
1, 0
0, 0
0, 0
0, 0
0, 1
0, 0
2, 1
0, 0
1, 2
0, 0
3, 0
0, 0
0, 0
0, 1
0, 0
0, 0
0, 1
0, 1
0, 0
0, 0
0, 0
0, 2
0, 0
0, 0
0, 0
0, 1
0, 0
0, 0
0, 1
0, 0
0, 0
0, 0
0, 0
0, 0
1, 0
0, 0
0, 0
1, 0
0, 0
0, 0
0, 0
0, 0
0, 0
1, 0
0, 0
1, 0
0, 0
0, 1
0, 0
0, 1
0, 0
0, 0
0, 1
0, 0
0, 0
0, 1
0, 0
0, 1
0, 0
0, 1
0, 0
0, 2
1, 0
0, 0
0, 0
0, 0
0, 0
0, 0
0, 0
0, 0
0, 1
0, 0
1, 1
0, 1
0, 1
0, 0
0, 0
1, 0
0, 0
1, 0
0, 0
1, 0
0, 0
0, 0
0, 0
1, 0
0, 0
0, 0
0, 0
0, 0
0, 0
0, 0
0, 0
0, 0
0, 0
0, 0
0, 0
0, 0
0, 0
0, 0
0, 1
0, 0
2, 0
1, 0
0, 1
0, 0
0, 0
0, 0
0, 0
1, 0
0, 0
1, 0
0, 0
0, 0
0, 0
0, 0
1, 0
0, 0
0, 1
0, 0
0, 1
0, 0
0, 0
0, 0
0, 0
0, 0
0, 0
0, 0
0, 0
1, 0
0, 0
0, 0
0, 1
0, 0
0, 0
0, 0
0, 0
0, 0
0, 1
1, 0
0, 0
0, 0
0, 0
1, 0
0, 0
0, 0
0, 0
0, 0
0, 0
0, 0
0, 0
0, 0
0, 0
0, 0
0, 0
0, 0
1, 0
0, 0
0, 0
0, 1
0, 0
0, 0
0, 0
0, 0
0, 0
0, 0
0, 0
0, 0
0, 0
0, 0
0, 0
0, 0
0, 0
0, 1
0, 1
0, 0
0, 0
0, 0
0, 0
0, 0
0, 0
0, 0
1, 0
0, 0
0, 0
0, 0
0, 0
0, 0
0, 0
0, 0
1, 0
0, 0
0, 0
0, 0
0, 0
0, 1
0, 0
0, 0
0, 0
0, 0
0, 0
0, 0
0, 0
0, 0
0, 0
0, 0
0, 0
0, 0
0, 0
0, 0
0, 0
0, 0
0, 0
0, 1
0, 0
0, 1
0, 0
0, 0
0, 0
0, 0
0, 0
0, 0
0, 0
1, 0
0, 0
0, 0
0, 0
0, 0
0, 0
0, 0
0, 0
0, 0
0, 0
0, 0
0, 0
0, 0
0, 0
0, 0
0, 0
0, 0
0, 0
0, 0
0, 1
0, 0
0, 0
0, 0
0, 0
0, 0
0, 0
0, 0
0, 0
0, 0
0, 0
0, 0
0, 0
0, 0
0, 0
0, 0
0, 0
0, 0
0, 0
0, 0
0, 0
0, 0
0, 0
0, 0
0, 0
0, 0
0, 0
0, 0
0, 0
0, 0
0, 0
0, 0
0, 0
0, 0
0, 0
0, 0
0, 0
0, 0
0, 0
0, 0
0, 0
0, 0
0, 0
0, 0
0, 0
0, 0
0, 0
0, 0
0, 0
0, 0
0, 0
0, 0
0, 0
0, 0
0, 0
0, 0
0, 0
0, 0
0, 0
0, 0
0, 0
0, 0
0, 0
0, 0
0, 0
0, 0
0, 0
0, 0
0, 0
0, 0
0, 0
0, 0
0, 0
0, 0
0, 0
0, 0
0, 0
0, 0
0, 0
0, 0
0, 0
0, 0
1, 0
0, 0
0, 0
0, 0
0, 0
0, 0
0, 0
0, 0
0, 0
0, 0
0, 0
0, 0
0, 0
0, 0
0, 0
0, 0
0, 0
0, 0
0, 0
1, 0
0, 0
0, 0
0, 0
0, 0
0, 0
0, 0
0, 0
0, 0
0, 0
0, 0
0, 0
0, 0
0, 0
0, 0
0, 0
0, 0
0, 0
0, 0
0, 0
0, 0
0, 0
0, 0
0, 0
0, 0
0, 0
0, 0
0, 0
0, 0
0, 0
0, 0
0, 0
0, 0
0, 0
0, 0
0, 0
0, 0
0, 0
0, 0
0, 0
0, 0
0, 0
0, 0
0, 0
0, 0
0, 0
0, 0
0, 0
0, 0
0, 0
0, 0
0, 0
0, 0
0, 0
0, 0
0, 0
0, 0
0, 0
0, 0
0, 0
0, 0
0, 0
0, 0
0, 0
0, 0
0, 0
0, 0
0, 0
0, 0
0, 0
0, 0
0, 0
0, 0
0, 0
0, 0
0, 0
0, 0
0, 0
0, 0
0, 0
0, 0
0, 0
0, 0
0, 0
0, 0
0, 0
0, 0
0, 0
0, 0
0, 0
0, 0
0, 0
0, 0
0, 0
0, 0
0, 0
0, 0
0, 0
0, 0
0, 0
0, 0
0, 0
0, 0
0, 0
0, 0
0, 0
0, 0
0, 0
0, 0
0, 0
0, 0
0, 0
0, 0
0, 0
0, 0
0, 0
0, 0
0, 0
0, 0
0, 0
0, 0
0, 0
0, 0
0, 0
0, 0
0, 0
0, 0
0, 0
0, 0
0, 0
0, 0
0, 0
0, 0
0, 0
0, 0
0, 0
0, 0
0, 0
0, 0
0, 0
0, 0
0, 0
0, 0
0, 0
0, 0
0, 0
0, 0
0, 0
0, 0
0, 0
0, 0
0, 0
0, 0
0, 0
0, 0
0, 0
0, 0
0, 0
0, 0
0, 0
0, 0
0, 0
0, 0
0, 0
0, 0
0, 0
0, 0
0, 0
0, 0
0, 0
0, 0
0, 0
0, 0
0, 0
0, 0
0, 0
0, 0
0, 0
0, 0
0, 0
0, 0
0, 0
0, 0
0, 0
0, 0
0, 0
0, 0
0, 0
0, 0
0, 0
0, 0
0, 0
0, 0
0, 0
0, 0
0, 0
0, 0
0, 0
0, 0
0, 0
0, 0
0, 0
0, 0
0, 0
0, 0
0, 0
0, 0
0, 0
0, 0
0, 0
0, 0
0, 0
0, 0
0, 0
0, 0
0, 0
0, 0
0, 0
0, 0
0, 0
0, 0
0, 0
0, 0
0, 0
0, 0
0, 0
0, 0
0, 0
0, 0
0, 0
0, 0
0, 0
0, 0
0, 0
0, 0
0, 0
0, 0
0, 0
0, 0
0, 0
0, 0
0, 0
0, 0
0, 0
0, 0
0, 0
0, 0
0, 0
0, 0
0, 0
0, 0
0, 0
0, 0
0, 0
0, 0
0, 0
0, 0
0, 0
0, 0
0, 0
0, 0
0, 0
0, 0
0, 0
0, 0
0, 0
0, 0
0, 0
0, 0
0, 0
0, 0
0, 0
0, 0
0, 0
0, 0
0, 0
0, 0
0, 0
0, 0
0, 0
0, 0
0, 0
0, 0
0, 0
0, 0
0, 0
0, 0
0, 0
0, 0
0, 0
0, 0
0, 0
0, 0
0, 0
0, 0
0, 0
0, 0
0, 0
0, 0
#ENDOFDATA     end of spectrum data