File: host_upload/02-11-2024/rqc/uplink1/ps__0567_0717304816_000rfs_shot_284.msa
#FORMAT      : EMSA/MAS spectral data file
#VERSION     : TC202v2.0 PIXL
#TITLE       : Novarupta (sol567) subset1
#DATE        : 02-11-2024      Date in the format DD-MMM-YYYY, for example 07-JUL-2010
#TIME        :             The time of day at which the spectrum was recorded, in 24-hour format
#OWNER       : PIXL Flight Model       (PIXL will use this to indicate which instrument took the data.)
#NPOINTS     : 4096     Number of data points in the spectrum (This can be zero for configuration only files)
#NCOLUMNS    : 2     Number of data columns in the spectrum (This can be zero for configuration only files)
#XUNITS      : eV
#YUNITS      : COUNTS
#DATATYPE    : YY
#XPERCHAN    : 7.862, 7.881   eV per channel (separate by commas if more than one detector)
#OFFSET      : 18.5, -22.4         eV of first channel  (separate by commas if more than one detector
#SIGNALTYPE  : XRF
#YP_TEMP     : 1.273
#LIVETIME    : 8.82256, 8.80117   seconds (separate by commas if more than one detector)
#REALTIME    : 10, 10.0   seconds (separate by commas if more than one detector)
#SPECTRUM    : start of spectrum data
0, 0
0, 0
0, 0
0, 0
0, 0
0, 0
0, 0
0, 0
0, 0
0, 0
0, 0
0, 0
0, 0
0, 0
0, 0
0, 0
0, 0
0, 0
0, 0
0, 0
0, 0
0, 0
0, 0
0, 0
0, 0
0, 0
0, 0
0, 0
0, 0
0, 0
0, 0
0, 1
0, 0
0, 0
0, 1
3, 2
4, 1
0, 8
2, 5
2, 5
4, 1
5, 4
7, 1
3, 5
3, 6
1, 6
2, 6
4, 6
10, 6
6, 1
5, 1
6, 11
10, 12
21, 14
15, 19
19, 19
16, 10
12, 11
7, 10
8, 15
22, 23
21, 27
40, 35
44, 51
52, 49
42, 39
45, 40
36, 35
50, 42
66, 73
93, 114
197, 203
277, 361
405, 434
491, 523
547, 482
428, 463
352, 349
242, 241
156, 154
94, 73
55, 43
37, 43
24, 28
23, 33
27, 43
41, 38
34, 28
30, 27
14, 25
16, 18
14, 19
19, 22
38, 44
81, 95
126, 178
189, 241
232, 305
286, 351
297, 309
297, 335
207, 225
153, 167
121, 107
82, 65
69, 55
56, 51
64, 89
99, 110
150, 146
183, 198
211, 261
251, 245
227, 264
204, 194
189, 188
150, 123
131, 106
87, 88
81, 79
87, 88
73, 62
57, 64
64, 47
47, 45
37, 37
28, 33
24, 22
19, 16
24, 20
17, 9
9, 10
8, 14
7, 6
9, 5
3, 8
10, 20
16, 19
20, 13
33, 24
18, 37
25, 36
33, 24
21, 28
22, 22
17, 23
13, 10
8, 14
13, 12
20, 17
33, 35
47, 48
94, 114
142, 188
237, 276
293, 336
328, 396
373, 398
381, 409
287, 325
263, 239
154, 161
98, 125
72, 69
52, 41
28, 24
19, 27
30, 43
47, 46
51, 62
50, 76
67, 62
66, 53
41, 53
33, 23
37, 23
24, 17
10, 14
8, 7
14, 8
10, 6
11, 7
11, 14
14, 14
8, 19
15, 11
18, 13
25, 46
25, 32
39, 55
51, 62
70, 73
58, 67
55, 62
45, 57
50, 42
43, 41
26, 27
19, 18
16, 24
21, 17
25, 16
13, 15
9, 18
14, 19
11, 12
23, 18
15, 18
13, 27
19, 21
23, 23
16, 20
28, 17
16, 16
20, 14
7, 9
14, 12
12, 14
9, 8
10, 8
15, 9
12, 14
8, 13
14, 15
16, 14
16, 20
24, 14
27, 26
24, 40
34, 37
19, 31
27, 41
28, 35
29, 25
26, 18
13, 18
17, 12
16, 11
8, 9
12, 15
15, 13
9, 13
8, 15
10, 13
13, 28
18, 23
21, 37
32, 33
36, 46
36, 57
60, 66
49, 51
48, 36
37, 38
39, 31
22, 34
25, 24
22, 20
16, 16
13, 21
19, 28
25, 31
39, 50
56, 82
135, 162
190, 292
366, 507
619, 760
870, 1041
1173, 1466
1503, 1685
1690, 1871
1704, 1907
1712, 1806
1436, 1493
1232, 1121
872, 798
554, 474
390, 283
226, 185
117, 82
71, 52
52, 25
33, 22
18, 16
15, 18
9, 8
14, 17
14, 13
26, 25
18, 34
28, 41
43, 44
58, 84
92, 113
119, 145
162, 176
192, 254
259, 260
255, 284
251, 265
261, 239
218, 216
183, 171
152, 123
88, 70
46, 71
40, 37
22, 21
19, 9
10, 10
2, 6
9, 14
6, 11
6, 13
9, 13
11, 14
11, 14
14, 21
6, 15
6, 10
11, 8
11, 15
7, 10
7, 10
9, 8
13, 9
8, 7
5, 4
3, 3
10, 6
2, 3
1, 5
5, 5
8, 6
8, 3
5, 10
4, 7
3, 7
8, 10
11, 6
7, 9
4, 11
5, 5
4, 8
5, 5
14, 6
5, 7
5, 8
12, 7
9, 7
6, 6
6, 7
6, 12
4, 9
1, 18
8, 5
5, 4
7, 9
6, 9
4, 5
8, 6
9, 6
5, 13
13, 10
12, 19
8, 7
9, 12
9, 9
18, 6
7, 15
8, 11
11, 11
9, 6
3, 8
7, 7
4, 6
6, 3
7, 6
6, 3
3, 8
10, 9
3, 6
7, 7
4, 8
9, 5
8, 5
6, 10
6, 4
6, 4
10, 7
7, 6
7, 7
5, 3
5, 4
5, 4
10, 4
3, 7
3, 5
9, 1
9, 11
6, 8
4, 7
7, 7
2, 4
3, 7
4, 8
7, 5
4, 5
4, 5
3, 7
5, 8
4, 2
3, 3
4, 3
6, 2
3, 7
6, 5
5, 0
7, 7
7, 2
4, 2
5, 3
5, 2
8, 7
5, 6
5, 2
5, 9
4, 3
2, 5
5, 2
5, 6
4, 3
4, 9
6, 3
5, 3
8, 7
2, 4
2, 6
5, 5
6, 1
1, 4
5, 2
3, 9
4, 5
5, 2
0, 1
5, 4
8, 4
5, 10
4, 5
0, 5
7, 4
9, 3
4, 4
0, 6
5, 4
3, 9
0, 1
2, 4
4, 2
5, 3
5, 5
2, 5
2, 4
2, 1
3, 5
2, 2
1, 2
4, 4
5, 0
3, 4
5, 6
3, 5
2, 2
3, 3
1, 2
3, 4
3, 2
5, 2
0, 0
2, 5
2, 2
5, 0
1, 1
1, 2
1, 4
1, 3
3, 1
3, 4
0, 3
3, 5
2, 1
4, 4
3, 2
3, 5
3, 2
2, 2
2, 3
3, 6
2, 3
0, 2
1, 3
1, 5
3, 3
1, 3
4, 2
5, 4
4, 1
4, 1
0, 3
3, 3
3, 1
3, 5
2, 3
0, 2
2, 3
4, 3
2, 2
2, 1
3, 0
3, 1
3, 6
0, 1
3, 2
1, 3
1, 3
1, 3
1, 5
2, 4
1, 3
3, 4
3, 2
0, 2
0, 2
4, 2
3, 3
0, 2
6, 2
3, 3
3, 2
2, 1
7, 5
0, 3
4, 3
3, 2
5, 3
2, 2
5, 0
3, 1
1, 2
2, 1
0, 0
2, 1
3, 2
1, 3
1, 1
1, 5
0, 1
1, 0
2, 2
3, 2
1, 3
1, 0
1, 2
3, 2
1, 4
2, 2
0, 3
1, 0
4, 1
1, 3
2, 3
1, 0
0, 1
0, 1
0, 0
2, 1
3, 1
0, 1
1, 1
0, 2
1, 0
1, 2
4, 4
0, 2
2, 1
3, 1
2, 0
0, 1
1, 0
2, 3
1, 1
3, 3
1, 0
2, 0
5, 3
0, 0
3, 2
1, 1
0, 1
1, 2
1, 0
4, 1
0, 0
2, 1
1, 2
2, 2
0, 2
0, 2
0, 1
0, 0
1, 1
2, 1
1, 0
0, 2
2, 1
4, 1
1, 2
1, 1
0, 2
2, 2
1, 0
1, 2
2, 3
0, 0
0, 0
2, 1
0, 1
0, 2
0, 0
1, 1
2, 0
2, 1
1, 0
0, 0
1, 2
0, 1
0, 2
0, 0
0, 0
0, 0
0, 0
0, 0
0, 1
1, 0
1, 0
2, 0
0, 0
0, 0
0, 0
0, 0
0, 1
2, 0
1, 1
0, 0
0, 2
0, 1
0, 1
0, 1
0, 0
1, 0
1, 1
2, 0
0, 0
0, 1
0, 1
0, 1
0, 0
1, 0
1, 1
1, 0
1, 0
0, 0
0, 0
0, 3
1, 0
0, 0
0, 0
1, 0
0, 0
0, 1
0, 0
0, 0
0, 0
0, 0
0, 0
1, 0
2, 1
1, 1
0, 2
1, 0
0, 0
0, 0
0, 0
0, 0
0, 0
0, 0
0, 0
1, 0
1, 0
0, 0
0, 0
0, 0
1, 1
0, 0
1, 0
0, 0
1, 1
0, 0
0, 0
1, 1
0, 0
0, 0
0, 1
1, 0
0, 1
0, 0
1, 1
0, 0
0, 0
0, 0
0, 0
0, 0
0, 0
0, 0
3, 0
0, 0
0, 0
0, 0
1, 0
0, 0
0, 1
0, 1
0, 0
0, 0
1, 0
0, 0
0, 0
0, 0
0, 1
0, 1
0, 0
0, 0
0, 0
0, 1
0, 0
0, 0
0, 1
0, 2
0, 0
0, 0
0, 1
0, 1
0, 0
1, 1
1, 0
0, 0
1, 0
0, 0
0, 0
0, 0
0, 0
0, 0
0, 0
0, 0
0, 1
0, 0
1, 1
0, 0
0, 0
0, 0
0, 0
1, 0
0, 0
0, 0
1, 0
0, 0
0, 0
0, 0
1, 0
1, 0
0, 0
3, 0
0, 0
1, 1
0, 1
0, 0
1, 0
1, 0
0, 1
0, 0
0, 0
0, 0
0, 0
0, 0
0, 0
0, 0
0, 0
1, 0
0, 1
1, 0
0, 0
0, 0
0, 0
0, 0
0, 0
0, 0
0, 0
1, 1
0, 1
0, 0
0, 1
0, 1
1, 0
0, 1
1, 0
0, 0
0, 1
0, 0
0, 0
0, 0
0, 0
1, 0
0, 0
0, 0
0, 0
0, 0
1, 0
0, 0
0, 0
0, 0
1, 0
0, 0
0, 0
0, 0
1, 0
0, 0
0, 0
0, 0
0, 0
1, 0
0, 0
1, 0
0, 0
0, 0
0, 0
0, 0
0, 0
0, 0
0, 0
0, 0
0, 0
0, 0
1, 0
0, 0
0, 0
0, 0
0, 0
0, 0
0, 1
0, 1
0, 0
0, 0
0, 0
1, 0
0, 0
0, 0
0, 0
0, 0
0, 0
0, 0
0, 0
1, 0
0, 0
0, 0
0, 0
0, 0
0, 0
0, 0
0, 0
0, 0
0, 0
0, 0
0, 1
0, 0
0, 0
0, 0
0, 0
0, 0
0, 0
0, 0
0, 0
0, 0
0, 0
0, 0
0, 0
0, 1
0, 0
0, 0
0, 0
0, 0
0, 0
0, 0
0, 0
0, 0
0, 0
0, 0
0, 1
0, 0
0, 0
0, 0
0, 0
0, 1
0, 0
0, 0
0, 0
0, 0
0, 0
0, 0
0, 0
0, 0
0, 0
0, 1
0, 0
0, 0
0, 0
1, 0
0, 0
0, 0
0, 0
0, 0
0, 0
0, 0
0, 0
0, 0
0, 0
0, 0
0, 0
1, 0
1, 0
0, 0
0, 0
0, 0
0, 0
0, 0
0, 0
0, 0
0, 0
0, 1
0, 0
0, 0
0, 0
0, 0
1, 0
0, 0
0, 0
0, 1
0, 0
0, 0
0, 0
0, 0
0, 0
0, 0
0, 1
0, 0
0, 0
0, 0
0, 0
0, 0
0, 0
0, 0
0, 0
0, 0
0, 0
0, 0
0, 0
0, 0
0, 0
0, 0
0, 0
0, 0
0, 0
0, 0
0, 0
0, 0
0, 0
0, 0
0, 0
0, 0
0, 0
0, 0
0, 0
0, 0
0, 0
0, 0
0, 0
0, 0
0, 0
0, 0
0, 0
0, 0
0, 0
0, 0
0, 0
0, 0
0, 0
0, 0
0, 0
0, 0
0, 0
0, 0
0, 0
0, 0
0, 0
0, 0
0, 0
0, 0
0, 0
1, 0
0, 0
0, 0
0, 0
0, 0
0, 0
0, 0
0, 0
0, 0
0, 0
0, 0
0, 0
0, 0
0, 0
0, 0
0, 0
0, 0
0, 0
0, 0
0, 0
0, 0
0, 0
0, 0
0, 0
0, 0
0, 0
0, 0
0, 0
0, 0
0, 0
0, 0
0, 0
0, 0
0, 0
0, 0
0, 0
0, 0
0, 0
0, 0
0, 0
0, 0
0, 0
0, 0
0, 0
0, 0
0, 0
0, 0
0, 0
0, 0
0, 0
0, 0
0, 0
0, 0
0, 0
0, 0
0, 0
0, 0
0, 0
0, 0
0, 0
0, 0
0, 0
0, 0
0, 0
0, 0
0, 0
0, 0
0, 0
0, 0
0, 0
0, 0
0, 0
0, 0
0, 0
0, 0
0, 0
0, 0
0, 0
0, 0
0, 0
0, 0
0, 0
0, 0
0, 0
0, 0
0, 0
0, 0
0, 0
0, 0
0, 0
0, 0
0, 0
0, 0
0, 0
0, 0
0, 0
0, 0
0, 0
0, 0
0, 0
0, 0
0, 0
0, 0
0, 0
0, 0
0, 0
0, 0
0, 0
0, 0
0, 0
0, 0
0, 0
0, 0
0, 0
0, 0
0, 0
0, 0
0, 0
0, 0
0, 0
0, 0
0, 0
0, 0
0, 0
0, 0
0, 0
0, 0
0, 0
0, 0
0, 0
0, 0
0, 0
0, 0
0, 0
0, 0
0, 0
0, 0
0, 0
0, 0
0, 0
0, 0
0, 0
0, 0
0, 0
0, 0
0, 0
0, 0
0, 0
0, 0
0, 0
0, 0
0, 0
0, 0
0, 0
0, 0
0, 0
0, 0
0, 0
0, 0
0, 0
0, 0
0, 0
0, 0
0, 0
0, 0
0, 0
0, 0
0, 0
0, 0
0, 0
0, 0
0, 0
0, 0
0, 0
0, 0
0, 0
0, 0
0, 0
0, 0
0, 0
0, 0
0, 0
0, 0
0, 0
0, 0
0, 0
0, 0
0, 0
0, 0
0, 0
0, 0
0, 0
0, 0
0, 0
0, 0
0, 0
0, 0
0, 0
0, 0
0, 0
0, 0
0, 0
0, 0
0, 0
0, 0
0, 0
0, 0
0, 0
0, 0
0, 0
0, 0
0, 0
0, 0
0, 0
0, 0
0, 0
0, 0
0, 0
0, 0
0, 0
0, 0
0, 0
0, 0
0, 0
0, 0
0, 0
0, 0
0, 0
0, 0
0, 0
0, 0
0, 0
0, 0
0, 0
0, 0
0, 0
0, 0
0, 0
0, 0
0, 0
0, 0
0, 0
0, 0
0, 0
0, 0
0, 0
0, 0
0, 0
0, 0
0, 0
0, 0
0, 0
0, 0
0, 0
0, 0
0, 0
0, 0
0, 0
0, 0
0, 0
0, 0
0, 0
0, 0
0, 0
0, 0
0, 0
0, 0
0, 0
0, 0
0, 0
0, 0
0, 0
0, 0
0, 0
0, 0
0, 0
0, 0
0, 0
0, 0
0, 0
0, 0
0, 0
0, 0
0, 0
0, 0
0, 0
0, 0
0, 0
0, 0
0, 0
0, 0
0, 0
0, 0
0, 0
0, 0
0, 0
0, 0
0, 0
0, 0
0, 0
0, 0
0, 0
0, 0
0, 0
0, 0
0, 0
0, 0
0, 0
0, 0
0, 0
0, 0
0, 0
0, 0
0, 0
0, 0
0, 0
0, 0
0, 0
0, 0
0, 0
0, 0
0, 0
0, 0
0, 0
0, 0
0, 0
0, 0
0, 0
0, 0
0, 0
0, 0
0, 0
0, 0
0, 0
0, 0
0, 0
0, 0
0, 0
0, 0
0, 0
0, 0
0, 0
0, 0
0, 0
0, 0
0, 0
0, 0
#ENDOFDATA     end of spectrum data