File: host_upload/02-11-2024/rqc/uplink1/ps__0567_0717304816_000rfs_shot_55.msa
#FORMAT      : EMSA/MAS spectral data file
#VERSION     : TC202v2.0 PIXL
#TITLE       : Novarupta (sol567) subset1
#DATE        : 02-11-2024      Date in the format DD-MMM-YYYY, for example 07-JUL-2010
#TIME        :             The time of day at which the spectrum was recorded, in 24-hour format
#OWNER       : PIXL Flight Model       (PIXL will use this to indicate which instrument took the data.)
#NPOINTS     : 4096     Number of data points in the spectrum (This can be zero for configuration only files)
#NCOLUMNS    : 2     Number of data columns in the spectrum (This can be zero for configuration only files)
#XUNITS      : eV
#YUNITS      : COUNTS
#DATATYPE    : YY
#XPERCHAN    : 7.862, 7.881   eV per channel (separate by commas if more than one detector)
#OFFSET      : 18.5, -22.4         eV of first channel  (separate by commas if more than one detector
#SIGNALTYPE  : XRF
#YP_TEMP     : -2.543
#LIVETIME    : 8.83403, 8.82014   seconds (separate by commas if more than one detector)
#REALTIME    : 10, 10.0   seconds (separate by commas if more than one detector)
#SPECTRUM    : start of spectrum data
0, 0
0, 0
0, 0
0, 0
0, 0
0, 0
0, 0
0, 0
0, 0
0, 0
0, 0
0, 0
0, 0
0, 0
0, 0
0, 0
0, 0
0, 0
0, 0
0, 0
0, 0
0, 0
0, 0
0, 0
0, 0
0, 0
0, 0
0, 0
0, 0
0, 0
0, 0
0, 0
0, 0
2, 1
2, 0
3, 0
2, 2
4, 3
2, 6
6, 4
4, 5
1, 5
4, 6
5, 2
7, 4
3, 0
3, 1
2, 1
4, 3
6, 4
5, 6
9, 5
12, 14
19, 17
19, 12
19, 18
14, 7
12, 12
16, 22
13, 15
27, 18
29, 30
57, 34
52, 48
39, 55
46, 37
25, 46
32, 33
48, 41
69, 74
145, 129
217, 239
317, 348
405, 483
505, 553
487, 498
461, 429
347, 334
225, 215
153, 155
93, 75
58, 57
35, 48
28, 21
34, 30
28, 35
26, 42
29, 25
27, 23
19, 19
15, 17
27, 26
28, 18
75, 58
91, 99
167, 190
240, 278
271, 291
335, 357
338, 352
272, 336
186, 232
148, 172
93, 111
74, 93
65, 63
60, 55
76, 79
105, 122
132, 141
160, 167
207, 226
207, 245
199, 251
203, 203
160, 182
108, 144
103, 107
86, 102
75, 67
66, 79
62, 79
58, 52
62, 53
34, 47
35, 45
37, 39
24, 22
16, 14
11, 16
6, 9
8, 10
7, 9
9, 8
7, 8
9, 15
7, 15
19, 15
20, 29
25, 29
29, 25
28, 20
20, 31
26, 32
17, 11
16, 11
9, 10
8, 12
13, 14
21, 16
28, 42
61, 71
93, 105
155, 197
243, 287
295, 375
376, 406
383, 416
362, 374
296, 297
222, 228
160, 133
112, 109
64, 58
39, 36
37, 24
27, 25
24, 42
45, 57
38, 54
58, 70
66, 65
53, 59
42, 38
40, 33
27, 30
22, 18
10, 18
6, 16
6, 11
10, 8
5, 6
12, 6
15, 13
10, 8
15, 15
18, 26
29, 30
26, 39
45, 51
56, 61
59, 60
80, 79
64, 69
47, 55
44, 30
34, 41
21, 28
17, 28
21, 17
15, 20
15, 5
10, 9
10, 11
16, 8
17, 22
18, 20
22, 20
14, 25
14, 21
14, 21
17, 14
26, 17
12, 14
12, 13
14, 14
14, 16
7, 14
12, 14
10, 10
12, 10
13, 9
15, 17
14, 20
12, 18
15, 15
22, 16
21, 22
26, 34
32, 31
32, 28
30, 23
30, 28
20, 19
14, 23
15, 17
17, 10
11, 10
13, 12
13, 10
14, 9
9, 16
12, 12
10, 15
19, 18
21, 28
21, 31
28, 45
37, 63
44, 48
46, 72
39, 50
36, 39
45, 47
35, 28
29, 25
12, 22
14, 22
20, 13
25, 20
21, 28
37, 45
68, 66
98, 105
170, 205
291, 394
490, 582
728, 860
1034, 1218
1295, 1603
1514, 1784
1615, 1932
1653, 1786
1471, 1596
1273, 1199
1028, 1014
704, 673
477, 450
280, 237
158, 132
87, 85
54, 41
33, 32
22, 22
11, 15
17, 16
14, 25
3, 17
22, 24
21, 25
19, 29
31, 42
59, 53
76, 97
109, 118
146, 164
188, 217
197, 267
231, 290
246, 263
251, 252
215, 237
211, 185
160, 150
86, 84
79, 68
37, 33
22, 27
20, 14
12, 9
10, 4
14, 11
7, 7
10, 14
17, 20
11, 16
14, 11
8, 8
6, 12
13, 13
8, 10
10, 11
8, 9
4, 11
7, 3
10, 9
4, 6
7, 8
5, 3
10, 4
8, 3
8, 7
7, 4
5, 6
4, 4
7, 8
4, 4
6, 6
4, 14
7, 8
4, 10
6, 10
7, 7
5, 7
11, 6
6, 10
9, 11
7, 9
11, 4
5, 6
3, 5
9, 12
5, 3
4, 7
6, 10
10, 11
6, 8
3, 6
4, 7
5, 4
5, 10
10, 14
10, 9
6, 8
8, 17
15, 11
10, 13
10, 5
8, 8
10, 9
8, 5
4, 9
7, 10
10, 9
5, 6
8, 5
7, 8
2, 6
7, 10
5, 10
6, 6
6, 5
3, 6
5, 4
7, 5
8, 4
5, 7
6, 6
9, 3
3, 10
7, 9
4, 9
6, 4
2, 6
2, 8
6, 6
6, 4
6, 6
5, 7
5, 6
7, 8
5, 6
6, 8
2, 4
0, 5
8, 5
3, 7
7, 8
14, 5
1, 3
4, 3
4, 7
4, 6
4, 4
2, 10
4, 5
7, 1
3, 2
5, 4
4, 8
5, 5
7, 6
7, 6
2, 3
3, 3
3, 7
2, 3
4, 3
2, 3
4, 4
7, 5
3, 4
4, 3
5, 6
4, 2
4, 5
1, 3
5, 6
7, 3
6, 1
2, 3
3, 3
2, 4
4, 1
2, 2
3, 4
4, 10
1, 4
3, 6
3, 2
1, 4
1, 5
2, 5
2, 5
4, 1
5, 1
4, 4
5, 4
3, 1
4, 4
2, 3
3, 4
6, 3
4, 1
3, 5
4, 1
5, 2
2, 5
1, 0
3, 1
2, 1
3, 1
3, 0
2, 3
3, 3
0, 3
2, 1
2, 3
1, 2
8, 6
6, 2
2, 5
4, 3
2, 1
3, 4
2, 2
1, 3
1, 3
1, 2
1, 0
3, 2
4, 3
3, 5
3, 1
5, 0
4, 2
1, 6
1, 1
2, 1
1, 2
3, 1
1, 3
0, 1
1, 5
0, 6
1, 1
1, 2
2, 1
4, 5
3, 1
6, 3
0, 2
1, 2
2, 1
2, 4
2, 3
0, 1
2, 0
1, 1
1, 1
1, 2
3, 1
3, 1
2, 1
2, 2
4, 0
6, 3
3, 0
2, 3
4, 2
2, 0
3, 1
1, 2
0, 1
2, 1
1, 0
4, 1
3, 0
1, 5
5, 2
3, 0
1, 1
4, 0
2, 5
1, 0
4, 3
3, 2
3, 3
2, 1
1, 2
1, 0
1, 2
1, 3
1, 2
2, 1
0, 3
0, 1
0, 2
1, 0
0, 2
0, 4
2, 4
1, 5
0, 1
2, 0
5, 2
2, 2
0, 1
1, 0
0, 3
3, 1
0, 2
2, 1
3, 0
0, 0
0, 0
3, 0
0, 1
2, 0
1, 2
4, 3
2, 1
4, 1
2, 3
2, 3
1, 1
2, 0
0, 1
1, 2
1, 0
1, 1
0, 1
2, 2
2, 3
1, 1
0, 1
2, 1
0, 1
0, 0
0, 2
1, 2
1, 1
0, 0
1, 1
1, 0
1, 1
0, 0
1, 1
1, 1
0, 0
2, 1
0, 1
1, 0
1, 0
1, 1
1, 0
1, 0
0, 1
0, 1
0, 0
0, 1
1, 0
0, 0
1, 0
0, 0
0, 2
0, 1
1, 0
0, 0
0, 0
5, 1
2, 1
1, 1
0, 1
0, 0
2, 0
0, 0
0, 0
0, 1
0, 0
0, 3
1, 0
1, 1
1, 0
2, 0
1, 2
0, 2
0, 0
0, 0
0, 0
1, 3
0, 0
1, 1
2, 0
2, 1
1, 1
0, 0
0, 0
1, 0
1, 1
0, 1
0, 0
0, 1
0, 0
0, 0
0, 1
0, 1
0, 2
1, 0
0, 0
0, 0
0, 0
0, 0
1, 0
0, 0
0, 2
1, 1
1, 0
1, 1
0, 0
0, 1
1, 0
0, 0
2, 0
1, 2
0, 0
1, 0
0, 1
0, 0
0, 1
0, 0
0, 0
0, 0
0, 1
0, 1
1, 1
0, 1
0, 1
3, 0
0, 0
1, 0
1, 1
1, 1
0, 0
1, 1
0, 0
1, 0
1, 0
0, 0
1, 1
0, 0
1, 0
0, 0
0, 1
0, 1
0, 0
1, 0
0, 0
0, 0
0, 0
0, 0
0, 0
0, 0
1, 0
0, 0
0, 0
2, 0
0, 0
0, 0
1, 0
0, 0
0, 0
0, 0
0, 0
0, 0
1, 1
1, 0
0, 1
0, 0
0, 0
0, 0
0, 0
0, 0
0, 1
0, 0
0, 2
0, 0
0, 1
1, 0
0, 0
1, 0
0, 0
1, 0
0, 0
0, 1
0, 0
0, 0
0, 1
0, 0
0, 0
0, 0
0, 0
0, 0
0, 0
0, 1
1, 0
0, 0
0, 0
0, 0
0, 0
0, 1
0, 0
0, 0
0, 0
0, 1
0, 0
0, 1
0, 1
0, 0
0, 0
0, 1
0, 0
1, 0
0, 0
0, 0
0, 1
0, 0
0, 1
0, 0
0, 0
1, 0
0, 0
0, 0
0, 1
0, 0
0, 0
0, 1
0, 1
1, 0
0, 0
0, 0
0, 0
0, 0
0, 1
0, 0
0, 0
0, 0
0, 0
0, 0
0, 1
0, 0
1, 0
0, 0
0, 1
0, 0
0, 0
0, 0
0, 1
0, 0
0, 0
0, 0
0, 0
0, 0
0, 0
0, 1
0, 0
0, 1
0, 0
0, 0
0, 0
0, 0
0, 0
0, 0
0, 0
0, 0
0, 0
0, 0
0, 0
0, 0
1, 0
0, 0
0, 0
0, 0
0, 0
0, 0
0, 0
0, 0
0, 0
1, 0
0, 1
0, 0
0, 0
1, 0
0, 0
0, 0
0, 0
0, 0
0, 0
0, 0
0, 0
0, 0
0, 0
0, 0
0, 0
0, 0
0, 0
0, 0
0, 0
0, 0
0, 0
0, 0
0, 0
0, 0
1, 0
0, 0
0, 0
0, 0
0, 0
0, 0
0, 0
0, 1
0, 0
0, 0
0, 0
1, 0
0, 0
0, 0
0, 0
0, 0
0, 0
0, 0
0, 0
0, 0
0, 0
0, 0
0, 0
0, 0
0, 0
0, 0
0, 0
0, 0
0, 0
0, 0
0, 0
0, 0
0, 0
0, 0
0, 0
0, 0
0, 0
1, 1
0, 0
0, 0
0, 0
0, 0
0, 0
0, 0
0, 1
0, 0
0, 0
0, 0
0, 2
0, 0
0, 0
0, 0
0, 0
0, 0
0, 0
0, 1
0, 0
0, 0
0, 0
0, 0
0, 0
0, 0
0, 0
0, 0
0, 0
0, 0
0, 0
0, 0
0, 0
0, 0
0, 0
0, 0
0, 0
0, 0
0, 0
0, 0
0, 1
0, 0
0, 0
0, 0
0, 0
0, 0
0, 0
0, 0
0, 0
0, 0
0, 0
1, 0
0, 0
0, 0
0, 0
0, 0
0, 0
0, 0
0, 0
0, 0
0, 0
0, 0
0, 0
0, 0
0, 0
0, 0
0, 0
0, 0
0, 0
0, 0
0, 0
0, 0
0, 0
0, 0
0, 0
0, 0
0, 0
0, 0
0, 0
0, 0
0, 0
0, 0
0, 0
0, 0
0, 0
0, 0
0, 0
0, 0
0, 0
0, 0
0, 0
0, 0
0, 0
0, 0
1, 0
0, 0
0, 0
0, 0
0, 0
0, 0
0, 0
0, 0
0, 0
0, 0
0, 0
0, 0
0, 0
0, 0
0, 0
0, 0
0, 0
0, 0
0, 0
0, 0
0, 0
0, 0
0, 0
0, 0
0, 0
0, 0
0, 0
0, 0
0, 0
0, 0
0, 0
0, 0
0, 0
0, 0
0, 0
0, 0
0, 0
0, 0
0, 0
0, 0
0, 0
0, 0
0, 0
0, 0
0, 0
0, 0
0, 0
0, 0
0, 0
0, 0
0, 0
0, 0
0, 0
0, 0
0, 0
0, 0
0, 0
0, 0
0, 0
0, 0
0, 0
0, 0
0, 0
0, 0
0, 0
0, 0
0, 0
0, 0
0, 0
0, 0
0, 0
0, 1
0, 0
0, 0
0, 0
0, 0
0, 0
0, 0
0, 0
0, 0
0, 0
0, 0
0, 0
0, 0
0, 0
0, 0
0, 0
0, 0
0, 0
0, 0
0, 0
0, 0
0, 0
0, 0
0, 0
0, 0
0, 0
0, 0
0, 0
0, 0
0, 0
0, 0
0, 0
0, 0
0, 0
0, 0
0, 0
0, 0
0, 0
0, 0
0, 0
0, 0
0, 0
0, 0
0, 0
0, 0
0, 0
0, 0
0, 0
0, 0
0, 0
0, 0
0, 0
0, 0
0, 0
0, 0
0, 0
0, 0
0, 0
0, 0
0, 0
0, 0
0, 0
0, 0
0, 0
0, 0
0, 0
0, 0
0, 0
0, 0
0, 0
0, 0
0, 0
0, 0
0, 0
0, 0
0, 0
0, 0
0, 0
0, 0
0, 0
0, 0
0, 0
0, 0
0, 0
0, 0
0, 0
0, 0
0, 0
0, 0
0, 0
0, 0
0, 0
0, 0
0, 0
0, 0
0, 0
0, 0
0, 0
0, 0
0, 0
0, 0
0, 0
0, 0
0, 0
0, 0
0, 0
0, 0
0, 0
0, 0
0, 0
0, 0
0, 0
0, 0
0, 0
0, 0
0, 0
0, 0
0, 0
0, 0
0, 0
0, 0
0, 0
0, 0
0, 0
0, 0
0, 0
0, 0
0, 0
0, 0
0, 0
0, 0
0, 0
0, 0
0, 0
0, 0
0, 0
0, 0
0, 0
0, 0
0, 0
0, 0
0, 0
0, 0
0, 0
0, 0
0, 0
0, 0
0, 0
0, 0
0, 0
0, 0
0, 0
0, 0
0, 0
0, 0
0, 0
0, 0
0, 0
0, 0
0, 0
0, 0
0, 0
0, 0
0, 0
0, 0
0, 0
0, 0
0, 0
0, 0
0, 0
0, 0
0, 0
0, 0
0, 0
0, 0
0, 0
0, 0
0, 0
0, 0
0, 0
0, 0
0, 0
0, 0
0, 0
0, 0
0, 0
0, 0
0, 0
0, 0
0, 0
0, 0
0, 0
0, 0
0, 0
0, 0
0, 0
0, 0
0, 0
0, 0
0, 0
0, 0
0, 0
0, 0
0, 0
0, 0
0, 0
0, 0
0, 0
0, 0
0, 0
0, 0
0, 0
0, 0
0, 0
0, 0
0, 0
0, 0
0, 0
0, 0
0, 0
0, 0
0, 0
0, 0
0, 0
0, 0
0, 0
0, 0
0, 0
0, 0
0, 0
0, 0
0, 0
0, 0
0, 0
0, 0
0, 0
0, 0
0, 0
0, 0
0, 0
0, 0
0, 0
0, 0
0, 0
0, 0
0, 0
0, 0
0, 0
0, 0
0, 0
0, 0
0, 0
0, 0
0, 0
0, 0
0, 0
0, 0
0, 0
0, 0
0, 0
0, 0
0, 0
0, 0
0, 0
0, 0
0, 0
0, 0
0, 0
0, 0
0, 0
0, 0
0, 0
0, 0
0, 0
0, 0
0, 0
0, 0
0, 0
0, 0
0, 0
0, 0
0, 0
0, 0
0, 0
0, 0
0, 0
0, 0
0, 0
0, 0
0, 0
0, 0
0, 0
#ENDOFDATA     end of spectrum data