File: host_upload/02-11-2024/rqc/uplink1/ps__0567_0717304816_000rfs_shot_449.msa
#FORMAT      : EMSA/MAS spectral data file
#VERSION     : TC202v2.0 PIXL
#TITLE       : Novarupta (sol567) subset1
#DATE        : 02-11-2024      Date in the format DD-MMM-YYYY, for example 07-JUL-2010
#TIME        :             The time of day at which the spectrum was recorded, in 24-hour format
#OWNER       : PIXL Flight Model       (PIXL will use this to indicate which instrument took the data.)
#NPOINTS     : 4096     Number of data points in the spectrum (This can be zero for configuration only files)
#NCOLUMNS    : 2     Number of data columns in the spectrum (This can be zero for configuration only files)
#XUNITS      : eV
#YUNITS      : COUNTS
#DATATYPE    : YY
#XPERCHAN    : 7.862, 7.881   eV per channel (separate by commas if more than one detector)
#OFFSET      : 18.5, -22.4         eV of first channel  (separate by commas if more than one detector
#SIGNALTYPE  : XRF
#YP_TEMP     : 1.658
#LIVETIME    : 8.84358, 8.81358   seconds (separate by commas if more than one detector)
#REALTIME    : 10, 10.0   seconds (separate by commas if more than one detector)
#SPECTRUM    : start of spectrum data
0, 0
0, 0
0, 0
0, 0
0, 0
0, 0
0, 0
0, 0
0, 0
0, 0
0, 0
0, 0
0, 0
0, 0
0, 0
0, 0
0, 0
0, 0
0, 0
0, 0
0, 0
0, 0
0, 0
0, 0
0, 0
0, 0
0, 0
0, 0
0, 0
0, 1
0, 0
0, 0
0, 1
0, 0
1, 1
0, 2
2, 4
0, 3
5, 1
3, 5
2, 4
5, 8
4, 3
2, 2
2, 2
2, 11
2, 3
1, 1
1, 5
7, 4
9, 6
11, 5
15, 15
18, 18
14, 21
18, 21
15, 13
7, 15
8, 8
7, 13
17, 20
23, 23
30, 36
38, 61
35, 45
44, 47
34, 35
27, 31
42, 48
62, 64
102, 124
165, 212
252, 293
390, 434
437, 549
437, 541
397, 465
310, 317
223, 249
123, 178
76, 75
44, 44
40, 38
35, 34
26, 28
34, 35
28, 33
41, 32
19, 34
21, 27
13, 11
18, 15
20, 31
48, 50
67, 81
117, 141
158, 224
236, 296
261, 319
306, 331
228, 261
224, 191
159, 169
91, 107
60, 70
55, 51
49, 54
50, 75
76, 89
108, 152
148, 173
221, 239
219, 235
211, 210
160, 177
168, 182
129, 145
85, 111
73, 94
67, 91
72, 69
71, 63
56, 61
51, 69
45, 36
35, 30
22, 41
22, 23
29, 18
13, 12
14, 9
7, 5
10, 8
10, 7
5, 5
9, 11
4, 12
12, 12
14, 23
21, 28
24, 27
24, 24
28, 24
21, 26
14, 26
13, 15
10, 12
8, 10
15, 11
19, 17
23, 31
32, 69
86, 102
135, 170
183, 263
251, 333
349, 388
326, 423
356, 365
285, 311
256, 245
169, 174
110, 103
52, 61
41, 32
35, 27
26, 29
34, 37
39, 51
58, 72
64, 70
59, 80
53, 67
51, 55
37, 39
34, 30
19, 19
14, 16
15, 12
7, 13
13, 10
8, 10
11, 12
7, 3
12, 15
13, 9
16, 14
19, 24
31, 46
27, 50
47, 48
49, 54
59, 77
62, 65
44, 56
39, 44
35, 46
25, 29
21, 27
20, 19
15, 16
13, 21
9, 16
14, 12
17, 11
10, 17
17, 18
15, 20
25, 12
14, 17
14, 17
14, 20
23, 20
13, 25
11, 14
19, 12
14, 10
12, 9
12, 6
13, 10
8, 8
10, 9
11, 11
10, 12
16, 25
20, 23
18, 19
24, 25
21, 31
31, 26
27, 37
25, 35
31, 29
27, 29
21, 16
13, 26
18, 22
18, 17
17, 15
8, 8
8, 10
9, 15
12, 15
14, 9
13, 20
22, 20
27, 31
17, 36
37, 53
44, 48
49, 59
48, 49
41, 49
47, 53
24, 32
29, 22
21, 30
19, 23
21, 18
21, 14
15, 23
24, 28
32, 40
63, 90
124, 122
196, 295
349, 461
506, 733
764, 1049
1111, 1457
1377, 1626
1595, 1889
1624, 1816
1606, 1764
1407, 1459
1166, 1175
889, 826
568, 561
356, 326
205, 181
124, 96
65, 55
36, 30
23, 23
16, 26
16, 22
7, 16
6, 19
16, 20
21, 22
24, 21
27, 35
31, 47
69, 61
71, 102
101, 153
165, 206
195, 228
211, 277
242, 289
271, 277
257, 262
204, 238
152, 165
131, 118
88, 86
64, 56
41, 25
24, 24
17, 10
9, 9
6, 7
12, 16
11, 10
13, 10
15, 9
16, 10
15, 12
16, 8
11, 11
5, 10
7, 15
13, 6
13, 11
6, 5
7, 5
7, 7
5, 7
5, 8
6, 7
6, 7
9, 7
2, 10
6, 7
3, 4
1, 10
7, 6
7, 3
10, 9
10, 7
9, 4
10, 8
6, 3
9, 9
4, 11
9, 6
9, 8
5, 4
3, 7
7, 12
5, 9
4, 10
6, 9
7, 3
10, 9
6, 10
7, 4
4, 5
11, 8
6, 4
6, 8
10, 5
11, 5
10, 14
18, 16
11, 7
5, 15
10, 13
9, 15
7, 8
8, 7
10, 9
10, 4
6, 9
6, 9
6, 7
7, 7
7, 4
3, 7
5, 1
6, 3
8, 4
7, 7
5, 9
6, 2
6, 4
2, 9
2, 6
0, 3
5, 7
4, 5
11, 5
7, 5
3, 4
4, 6
5, 5
5, 4
4, 1
4, 6
7, 2
7, 4
7, 14
5, 5
6, 12
2, 15
4, 3
11, 4
7, 1
7, 4
9, 5
2, 5
7, 10
4, 5
2, 5
8, 4
3, 5
2, 2
4, 2
5, 3
9, 2
1, 2
5, 4
4, 7
5, 2
3, 2
3, 4
3, 7
5, 6
6, 7
5, 10
2, 6
2, 2
4, 6
7, 2
1, 4
4, 2
0, 4
3, 4
4, 5
1, 3
3, 7
3, 6
5, 1
5, 2
3, 9
2, 6
2, 3
2, 8
2, 5
6, 5
1, 4
5, 5
1, 5
6, 4
2, 4
4, 5
4, 2
3, 11
6, 3
5, 5
1, 5
4, 1
6, 3
3, 6
5, 6
5, 5
4, 4
5, 3
2, 3
3, 4
1, 8
5, 3
1, 5
6, 2
4, 4
3, 5
2, 5
1, 1
2, 2
2, 8
3, 4
1, 2
2, 6
1, 1
6, 6
1, 1
2, 5
2, 3
4, 2
2, 3
2, 3
2, 4
1, 3
0, 2
3, 2
0, 1
4, 3
4, 2
4, 3
2, 5
1, 4
0, 2
1, 0
3, 0
1, 0
2, 2
5, 5
3, 2
4, 2
2, 4
3, 2
1, 3
2, 2
1, 1
3, 1
5, 3
2, 1
3, 2
4, 0
2, 1
0, 1
2, 3
3, 0
4, 2
1, 0
2, 2
5, 1
2, 1
3, 1
4, 2
2, 1
2, 2
2, 2
3, 4
2, 4
2, 1
4, 0
3, 4
4, 1
1, 3
6, 5
2, 3
3, 3
1, 0
3, 1
4, 5
6, 1
2, 4
4, 1
0, 1
4, 3
2, 3
1, 2
0, 2
2, 0
2, 2
1, 1
3, 3
0, 1
0, 2
1, 1
1, 0
1, 1
2, 2
3, 2
2, 5
3, 0
0, 0
0, 4
1, 0
4, 0
2, 1
6, 2
1, 1
2, 1
2, 1
4, 2
0, 1
0, 3
0, 4
3, 0
1, 2
2, 0
0, 0
0, 1
2, 1
1, 1
1, 1
0, 0
2, 1
1, 0
0, 1
0, 0
2, 0
1, 1
1, 2
1, 0
0, 1
4, 2
2, 2
0, 1
0, 0
0, 2
0, 0
2, 0
3, 1
1, 2
3, 1
2, 0
0, 2
1, 0
0, 1
0, 1
0, 3
1, 1
1, 0
4, 1
0, 1
1, 0
1, 0
1, 3
0, 0
0, 0
1, 0
1, 1
0, 0
0, 1
0, 1
0, 1
2, 0
0, 1
2, 0
1, 1
3, 1
1, 1
0, 0
1, 1
1, 1
0, 0
0, 1
1, 2
1, 0
0, 2
0, 1
1, 2
1, 0
2, 0
1, 0
1, 0
0, 0
0, 0
0, 1
0, 1
0, 0
1, 0
1, 0
1, 0
0, 0
1, 0
0, 0
0, 0
1, 0
0, 0
0, 2
0, 0
0, 1
1, 0
1, 0
0, 1
0, 1
1, 0
0, 2
0, 1
1, 0
2, 1
0, 0
0, 0
0, 0
0, 1
0, 0
1, 1
0, 1
0, 1
0, 0
2, 0
0, 0
1, 0
1, 2
0, 0
0, 3
0, 1
0, 1
1, 1
0, 0
0, 1
0, 1
0, 0
0, 1
1, 1
0, 0
0, 0
0, 0
1, 1
2, 1
0, 1
1, 1
1, 0
0, 0
0, 0
0, 0
0, 0
0, 1
0, 1
0, 0
1, 0
1, 1
0, 0
0, 0
1, 0
0, 0
0, 0
0, 0
0, 0
0, 0
0, 1
1, 0
1, 1
1, 1
1, 0
0, 0
0, 0
0, 1
1, 0
0, 0
1, 0
0, 1
0, 0
1, 0
0, 0
0, 0
0, 0
0, 0
0, 1
0, 1
1, 1
1, 0
0, 1
0, 1
0, 2
1, 0
0, 0
0, 3
0, 0
1, 0
0, 0
2, 0
1, 0
0, 0
0, 0
0, 0
0, 0
0, 0
0, 0
0, 0
0, 1
0, 0
0, 0
0, 0
0, 0
0, 2
1, 0
0, 0
0, 0
0, 0
0, 0
0, 0
0, 0
0, 0
0, 0
0, 0
0, 1
0, 1
0, 0
0, 0
0, 0
1, 0
0, 0
0, 0
0, 0
0, 0
0, 0
0, 0
0, 0
1, 0
1, 0
0, 0
0, 0
0, 0
0, 0
1, 1
0, 0
1, 0
0, 2
0, 1
0, 1
0, 0
0, 0
0, 0
0, 0
0, 0
1, 0
1, 0
0, 0
0, 0
0, 0
0, 0
0, 0
0, 0
1, 0
0, 0
0, 0
0, 1
1, 0
0, 0
0, 0
0, 0
0, 0
0, 0
0, 0
0, 0
0, 0
0, 1
0, 0
0, 1
1, 0
0, 0
1, 1
0, 0
0, 0
0, 0
1, 0
0, 0
0, 0
0, 0
0, 0
0, 0
0, 0
0, 0
0, 0
1, 0
1, 1
1, 1
0, 0
0, 1
0, 0
0, 0
2, 0
1, 0
0, 0
0, 0
0, 0
0, 0
1, 0
0, 0
0, 1
0, 0
0, 1
1, 0
0, 0
0, 0
0, 1
0, 0
0, 0
0, 0
1, 0
0, 0
0, 0
0, 0
0, 0
0, 0
0, 0
0, 0
0, 0
0, 0
0, 0
0, 0
0, 0
0, 0
0, 0
2, 0
0, 0
0, 1
0, 0
0, 0
0, 0
1, 0
0, 0
0, 0
0, 0
0, 0
0, 0
0, 0
0, 1
0, 0
0, 0
0, 0
0, 0
0, 0
0, 0
0, 0
0, 0
0, 0
0, 0
0, 0
0, 0
0, 0
0, 0
0, 0
0, 0
0, 0
0, 0
0, 0
0, 0
0, 0
0, 0
0, 0
0, 0
0, 0
0, 0
0, 0
0, 0
0, 0
0, 0
0, 0
0, 0
0, 0
0, 0
1, 0
0, 0
0, 0
0, 0
0, 0
0, 0
0, 0
0, 0
0, 0
0, 0
0, 0
0, 0
0, 0
0, 0
0, 0
0, 0
0, 0
0, 0
0, 0
0, 0
0, 0
0, 0
0, 0
0, 0
0, 0
0, 1
0, 0
0, 0
0, 0
1, 0
0, 0
0, 0
0, 1
0, 0
0, 0
0, 0
0, 0
0, 0
0, 0
0, 0
0, 0
0, 0
0, 0
0, 0
0, 0
0, 0
0, 0
0, 0
0, 0
0, 0
0, 0
0, 0
0, 0
0, 0
0, 0
0, 0
0, 0
1, 0
0, 0
0, 0
0, 0
0, 0
0, 0
0, 0
0, 0
0, 0
0, 0
0, 0
0, 0
0, 0
0, 0
0, 0
0, 0
0, 0
0, 0
0, 0
0, 1
0, 0
0, 0
0, 0
0, 0
0, 0
0, 0
0, 0
0, 0
0, 0
0, 0
0, 0
0, 0
0, 0
0, 0
0, 0
0, 0
0, 0
0, 0
0, 0
0, 0
0, 0
0, 0
0, 0
0, 0
0, 0
0, 0
0, 0
0, 0
0, 0
0, 0
0, 0
0, 0
0, 0
0, 0
0, 0
0, 0
0, 0
0, 0
0, 0
0, 0
0, 0
0, 0
0, 0
0, 0
0, 0
0, 0
0, 0
0, 0
0, 0
0, 0
0, 0
0, 0
0, 0
0, 0
0, 0
0, 0
0, 0
0, 0
0, 0
0, 0
0, 0
0, 0
0, 0
0, 0
0, 0
0, 0
0, 0
0, 0
0, 0
0, 0
0, 0
0, 0
0, 0
0, 0
0, 0
0, 0
0, 0
0, 0
0, 0
0, 0
0, 0
0, 0
0, 0
0, 0
0, 0
0, 0
0, 0
0, 0
0, 0
0, 0
0, 0
0, 0
0, 0
0, 0
0, 0
0, 0
0, 0
0, 0
0, 0
0, 0
0, 0
0, 0
0, 0
0, 0
0, 0
0, 0
0, 0
0, 0
0, 0
0, 0
0, 0
0, 0
0, 0
0, 0
0, 0
0, 0
0, 0
0, 0
0, 0
0, 0
0, 0
0, 0
0, 0
0, 0
0, 0
0, 0
0, 0
0, 0
0, 0
0, 0
0, 0
0, 0
0, 0
0, 0
0, 0
0, 0
0, 0
0, 0
0, 0
0, 0
0, 0
0, 0
0, 0
0, 0
0, 0
0, 0
0, 0
0, 0
0, 0
0, 0
0, 0
0, 0
0, 0
0, 0
0, 0
0, 0
0, 0
0, 0
0, 0
0, 0
0, 0
0, 0
0, 0
0, 0
0, 0
0, 0
0, 0
0, 0
0, 0
0, 0
0, 0
0, 0
0, 0
0, 0
0, 0
0, 0
0, 0
0, 0
0, 0
0, 0
0, 0
0, 0
0, 0
0, 0
0, 0
0, 0
0, 0
0, 0
0, 0
0, 0
0, 0
0, 0
0, 0
0, 0
0, 0
0, 0
0, 0
0, 0
0, 0
0, 0
0, 0
0, 0
0, 0
0, 0
0, 0
0, 0
0, 0
0, 0
0, 0
0, 0
0, 0
0, 0
0, 0
0, 0
0, 0
0, 0
0, 0
0, 0
0, 0
0, 0
0, 0
0, 0
0, 0
0, 0
0, 0
0, 0
0, 0
0, 0
0, 0
0, 0
0, 0
0, 0
0, 0
0, 0
0, 0
0, 0
0, 0
0, 0
0, 0
0, 0
0, 0
0, 0
0, 0
0, 0
0, 0
0, 0
0, 0
0, 0
0, 0
0, 0
0, 0
0, 0
0, 0
0, 0
0, 0
0, 0
0, 0
0, 0
0, 0
0, 0
0, 0
0, 0
0, 0
0, 0
0, 0
0, 0
0, 0
0, 0
0, 0
0, 0
0, 0
0, 0
0, 0
0, 0
0, 0
0, 0
0, 0
0, 0
0, 0
0, 0
0, 0
0, 0
0, 0
0, 0
0, 0
0, 0
0, 0
0, 0
0, 0
0, 0
0, 0
0, 0
0, 0
0, 0
0, 0
0, 0
0, 0
0, 0
0, 0
0, 0
0, 0
0, 0
0, 0
0, 0
0, 0
0, 0
0, 0
0, 0
0, 0
0, 0
0, 0
0, 0
0, 0
0, 0
0, 0
0, 0
0, 0
0, 0
0, 0
0, 0
0, 0
0, 0
0, 0
0, 0
0, 0
0, 0
0, 0
0, 0
0, 0
0, 0
0, 0
0, 0
0, 0
0, 0
0, 0
0, 0
0, 0
0, 0
0, 0
0, 0
0, 0
0, 0
0, 0
0, 0
0, 0
0, 0
0, 0
0, 0
0, 0
0, 0
0, 0
0, 0
#ENDOFDATA     end of spectrum data