File: host_upload/02-11-2024/rqc/uplink1/ps__0567_0717304816_000rfs_shot_125.msa
#FORMAT      : EMSA/MAS spectral data file
#VERSION     : TC202v2.0 PIXL
#TITLE       : Novarupta (sol567) subset1
#DATE        : 02-11-2024      Date in the format DD-MMM-YYYY, for example 07-JUL-2010
#TIME        :             The time of day at which the spectrum was recorded, in 24-hour format
#OWNER       : PIXL Flight Model       (PIXL will use this to indicate which instrument took the data.)
#NPOINTS     : 4096     Number of data points in the spectrum (This can be zero for configuration only files)
#NCOLUMNS    : 2     Number of data columns in the spectrum (This can be zero for configuration only files)
#XUNITS      : eV
#YUNITS      : COUNTS
#DATATYPE    : YY
#XPERCHAN    : 7.862, 7.881   eV per channel (separate by commas if more than one detector)
#OFFSET      : 18.5, -22.4         eV of first channel  (separate by commas if more than one detector
#SIGNALTYPE  : XRF
#YP_TEMP     : -0.523
#LIVETIME    : 8.83758, 8.82152   seconds (separate by commas if more than one detector)
#REALTIME    : 10, 10.0   seconds (separate by commas if more than one detector)
#SPECTRUM    : start of spectrum data
0, 0
0, 0
0, 0
0, 0
0, 0
0, 0
0, 0
0, 0
0, 0
0, 0
0, 0
0, 0
0, 0
0, 0
0, 0
0, 0
0, 0
0, 0
0, 0
0, 0
0, 0
0, 0
0, 0
0, 0
0, 0
0, 0
0, 0
0, 0
0, 0
0, 0
0, 0
0, 1
1, 0
1, 1
0, 1
0, 1
1, 2
6, 1
4, 3
2, 4
6, 3
5, 4
6, 2
3, 4
3, 1
1, 2
2, 3
3, 3
1, 5
4, 3
10, 6
12, 6
11, 12
17, 14
11, 17
14, 16
18, 12
9, 7
13, 6
4, 15
21, 14
35, 39
43, 39
46, 52
60, 56
38, 45
32, 45
40, 44
33, 50
50, 89
121, 130
184, 222
256, 356
390, 464
474, 486
464, 514
395, 446
331, 336
221, 209
144, 136
73, 93
48, 52
31, 22
28, 35
19, 42
27, 45
26, 34
23, 33
22, 30
13, 18
19, 8
19, 21
29, 35
29, 66
75, 84
111, 144
177, 204
239, 239
285, 322
270, 289
235, 265
206, 229
137, 147
89, 90
86, 56
55, 62
53, 55
59, 80
88, 82
131, 123
130, 180
182, 241
201, 245
206, 208
190, 190
147, 162
144, 129
95, 110
87, 89
100, 63
80, 85
71, 78
57, 67
56, 54
40, 41
47, 47
28, 28
16, 25
16, 25
5, 13
9, 7
7, 8
6, 7
5, 10
11, 6
10, 12
10, 12
17, 12
19, 21
19, 27
29, 25
36, 31
31, 27
23, 24
22, 19
11, 18
14, 15
6, 10
11, 9
18, 28
38, 31
56, 59
92, 125
168, 191
186, 249
271, 327
307, 394
334, 375
325, 364
297, 303
215, 206
149, 180
84, 113
47, 45
32, 41
26, 34
22, 44
33, 38
44, 38
46, 52
54, 68
52, 51
57, 58
40, 42
29, 33
27, 20
16, 15
17, 20
2, 4
8, 13
6, 6
5, 7
11, 11
8, 7
5, 12
14, 14
17, 27
34, 17
32, 34
43, 58
59, 45
58, 59
61, 76
65, 51
54, 62
38, 49
43, 40
23, 38
16, 31
19, 17
20, 28
14, 14
14, 12
11, 7
11, 8
13, 9
14, 12
13, 16
11, 18
12, 28
18, 18
19, 18
25, 14
13, 12
20, 19
15, 12
5, 7
7, 11
13, 7
10, 6
13, 7
12, 7
7, 7
8, 17
11, 14
18, 17
19, 24
24, 34
31, 25
27, 35
23, 49
30, 32
30, 27
18, 29
23, 21
25, 18
11, 20
8, 6
11, 13
18, 11
13, 12
13, 17
19, 8
21, 16
12, 28
27, 29
22, 29
27, 37
40, 54
52, 67
53, 58
47, 44
53, 46
39, 38
36, 37
37, 22
29, 14
17, 26
14, 20
17, 18
17, 33
33, 48
39, 63
78, 110
129, 189
242, 301
436, 511
612, 813
943, 1137
1255, 1478
1439, 1773
1632, 1891
1626, 1912
1603, 1675
1346, 1345
1116, 1018
787, 710
548, 494
294, 293
211, 177
86, 81
54, 61
30, 30
26, 16
12, 15
11, 14
15, 18
16, 8
16, 15
18, 19
27, 20
32, 38
41, 45
67, 82
81, 117
101, 170
179, 188
192, 221
230, 287
250, 273
214, 251
207, 234
195, 221
163, 145
99, 106
82, 60
55, 49
35, 31
25, 11
9, 15
12, 8
5, 10
5, 11
7, 9
8, 9
12, 15
7, 10
11, 14
14, 8
16, 11
12, 15
16, 12
6, 16
7, 7
4, 14
5, 5
5, 5
4, 1
7, 5
6, 6
2, 7
4, 5
8, 3
5, 3
9, 4
5, 8
5, 8
6, 14
6, 7
5, 7
8, 6
5, 11
2, 5
12, 10
4, 8
6, 10
9, 10
4, 6
8, 7
7, 8
3, 6
10, 7
8, 5
3, 4
6, 7
5, 5
5, 3
10, 6
6, 5
9, 5
7, 10
4, 12
7, 8
11, 12
12, 7
9, 10
12, 18
7, 14
12, 9
11, 6
5, 11
9, 2
8, 6
5, 9
7, 6
4, 8
7, 7
5, 4
5, 4
4, 5
7, 6
4, 7
7, 4
5, 6
6, 5
6, 6
4, 2
14, 7
7, 5
5, 9
2, 5
4, 6
1, 3
3, 5
5, 5
5, 3
3, 2
3, 8
6, 3
6, 7
6, 7
6, 3
3, 4
2, 9
7, 6
6, 4
8, 10
5, 4
3, 4
2, 9
3, 3
3, 8
3, 1
6, 5
2, 4
6, 3
4, 4
4, 3
3, 5
2, 7
3, 2
7, 5
4, 4
3, 5
3, 1
5, 3
5, 6
5, 5
2, 4
2, 1
2, 2
2, 4
2, 7
9, 3
3, 2
7, 7
3, 4
3, 4
2, 6
4, 8
1, 5
3, 5
2, 3
3, 6
3, 4
6, 3
3, 5
3, 4
2, 4
5, 6
4, 2
4, 5
2, 3
2, 1
3, 3
1, 2
6, 4
2, 6
3, 1
2, 6
4, 1
5, 3
7, 3
2, 7
3, 7
2, 3
4, 0
3, 5
3, 3
4, 3
3, 1
3, 2
4, 2
1, 4
1, 3
2, 4
1, 3
6, 1
3, 4
1, 3
6, 3
2, 1
4, 3
3, 3
3, 8
2, 1
1, 2
1, 0
4, 1
2, 1
2, 1
1, 1
2, 2
4, 2
1, 4
4, 5
2, 2
1, 3
5, 2
2, 0
2, 2
3, 3
3, 1
5, 1
3, 1
1, 1
1, 3
4, 3
3, 2
2, 1
2, 2
0, 1
4, 5
2, 2
2, 2
1, 5
2, 2
4, 3
0, 0
2, 2
3, 4
1, 3
2, 5
2, 4
0, 1
0, 4
2, 3
1, 2
4, 2
3, 1
3, 0
3, 2
1, 2
2, 0
1, 2
2, 2
0, 2
4, 4
1, 5
2, 5
3, 1
1, 1
2, 4
0, 3
1, 4
3, 6
0, 1
1, 2
2, 2
2, 2
2, 0
1, 4
3, 2
0, 2
1, 1
2, 0
0, 3
0, 0
1, 1
1, 0
0, 5
0, 0
1, 3
0, 2
0, 3
2, 0
1, 3
5, 1
1, 0
2, 1
2, 1
1, 2
0, 0
0, 0
2, 0
2, 1
1, 1
0, 1
1, 2
1, 1
1, 1
2, 2
0, 0
0, 4
1, 1
1, 0
1, 2
1, 1
0, 1
3, 3
1, 2
0, 1
0, 1
1, 0
3, 3
2, 1
0, 1
1, 2
3, 0
0, 3
1, 3
2, 1
2, 1
1, 0
2, 1
1, 2
0, 0
1, 1
2, 3
2, 2
0, 0
1, 1
0, 4
2, 1
0, 0
2, 2
3, 0
0, 0
0, 0
0, 1
2, 0
0, 0
1, 0
0, 0
0, 0
0, 3
0, 0
0, 3
1, 3
1, 2
0, 2
1, 2
0, 0
1, 0
0, 2
0, 2
0, 0
0, 1
1, 0
1, 1
1, 1
1, 2
0, 2
0, 0
0, 0
0, 1
1, 1
0, 0
0, 0
1, 0
0, 1
0, 1
1, 1
0, 1
0, 0
0, 0
0, 1
0, 1
0, 3
1, 1
0, 1
1, 1
0, 0
1, 0
0, 1
1, 2
0, 2
0, 0
0, 3
0, 1
0, 1
1, 0
0, 0
1, 1
0, 0
1, 0
0, 0
0, 0
1, 0
2, 0
0, 0
0, 1
1, 0
0, 0
0, 1
0, 0
2, 0
0, 0
0, 0
0, 0
0, 0
0, 0
0, 0
0, 2
0, 1
0, 1
0, 1
1, 2
0, 1
0, 3
2, 0
0, 0
0, 1
0, 0
1, 0
0, 0
0, 0
0, 0
1, 1
1, 0
0, 0
1, 1
1, 0
1, 0
0, 0
1, 0
0, 0
0, 0
1, 0
0, 2
1, 1
2, 1
0, 1
0, 0
0, 1
0, 1
0, 0
0, 0
1, 0
0, 0
0, 1
0, 0
0, 0
0, 0
0, 0
1, 1
1, 0
0, 0
0, 0
0, 0
0, 1
0, 0
0, 0
0, 1
0, 0
0, 0
0, 1
0, 0
0, 0
0, 0
0, 0
0, 0
0, 1
1, 0
0, 1
0, 0
1, 0
0, 0
1, 0
0, 0
0, 0
1, 1
0, 0
0, 0
0, 2
0, 1
0, 0
0, 2
0, 0
0, 0
2, 0
0, 0
1, 0
0, 0
0, 0
0, 0
0, 0
0, 0
0, 0
0, 0
0, 0
0, 0
0, 0
0, 0
0, 0
1, 0
0, 0
0, 1
0, 1
0, 0
0, 0
0, 0
2, 0
0, 0
0, 0
1, 0
0, 0
0, 0
0, 0
0, 1
0, 0
1, 0
0, 0
0, 1
0, 0
0, 0
0, 0
0, 0
2, 0
0, 0
1, 0
0, 0
0, 0
2, 0
0, 0
1, 1
0, 1
0, 1
0, 0
0, 0
0, 0
0, 0
1, 0
0, 1
0, 1
0, 1
0, 0
0, 0
0, 0
0, 0
0, 0
0, 0
0, 0
1, 0
0, 0
0, 0
0, 0
0, 0
0, 1
0, 0
0, 0
0, 0
0, 0
0, 0
0, 0
1, 0
0, 0
0, 0
0, 0
0, 1
3, 1
2, 0
2, 1
0, 0
0, 0
1, 1
0, 0
1, 1
0, 0
0, 0
1, 0
0, 0
0, 0
1, 0
0, 0
0, 0
0, 0
0, 0
0, 0
0, 0
0, 0
0, 1
0, 0
0, 0
0, 0
0, 0
0, 0
0, 0
0, 0
0, 0
0, 0
0, 0
1, 0
0, 0
0, 0
1, 0
0, 0
0, 0
0, 0
0, 1
0, 0
0, 0
0, 0
0, 0
0, 0
0, 0
0, 0
0, 0
0, 0
0, 0
0, 0
0, 0
0, 0
0, 0
0, 0
0, 0
0, 0
0, 0
0, 0
0, 0
0, 0
0, 0
0, 0
0, 0
0, 0
0, 0
0, 0
0, 0
0, 0
0, 0
0, 0
0, 0
0, 1
0, 0
0, 0
1, 0
0, 0
0, 0
0, 1
0, 0
0, 0
0, 0
0, 0
1, 0
0, 0
1, 0
0, 0
0, 0
0, 0
0, 0
0, 0
0, 0
0, 0
0, 0
0, 0
0, 0
0, 0
0, 0
0, 0
0, 0
0, 0
0, 0
0, 0
0, 0
0, 0
0, 0
0, 0
0, 0
0, 0
0, 1
0, 0
0, 0
0, 0
0, 0
0, 0
0, 1
0, 0
0, 0
0, 0
0, 0
0, 0
0, 0
0, 0
0, 0
0, 0
0, 0
0, 0
0, 0
0, 1
0, 0
0, 0
0, 0
0, 0
0, 0
0, 0
0, 0
0, 0
0, 0
0, 0
0, 0
0, 0
0, 0
0, 0
0, 0
0, 0
0, 0
0, 0
0, 0
0, 0
0, 0
0, 0
0, 0
0, 0
0, 0
0, 0
0, 0
0, 0
0, 0
0, 0
0, 0
0, 0
0, 0
0, 0
0, 0
0, 0
0, 0
1, 0
0, 0
0, 0
0, 0
0, 0
0, 0
0, 0
0, 0
0, 0
0, 0
0, 0
0, 0
0, 0
0, 0
0, 0
0, 0
0, 0
0, 0
0, 0
0, 0
0, 0
0, 0
0, 0
0, 0
0, 0
0, 0
0, 0
0, 0
0, 0
0, 0
0, 0
0, 0
0, 0
0, 0
0, 0
0, 0
0, 0
0, 0
0, 0
0, 0
0, 0
0, 0
0, 0
0, 0
0, 0
0, 0
0, 0
0, 0
0, 0
0, 0
0, 0
0, 0
0, 0
0, 0
0, 0
0, 0
0, 0
0, 0
0, 0
0, 0
0, 0
0, 0
0, 0
0, 0
0, 0
0, 0
0, 0
0, 0
0, 0
0, 0
0, 0
0, 0
0, 0
0, 0
0, 0
0, 0
0, 0
0, 0
0, 0
0, 0
0, 0
0, 0
0, 0
0, 0
0, 0
0, 0
0, 0
0, 0
0, 0
0, 0
0, 0
0, 0
0, 0
0, 0
0, 0
0, 0
0, 0
0, 0
0, 0
0, 0
0, 0
0, 0
0, 0
0, 0
0, 0
0, 0
0, 0
0, 0
0, 0
0, 0
0, 0
0, 0
0, 0
0, 0
0, 0
0, 0
0, 0
0, 0
0, 0
0, 0
0, 0
0, 0
0, 0
0, 0
0, 0
0, 0
0, 0
0, 0
0, 0
0, 0
0, 0
0, 0
0, 0
0, 0
0, 0
0, 0
0, 0
0, 0
0, 0
0, 0
0, 0
0, 0
0, 0
0, 0
0, 0
0, 0
0, 0
0, 0
0, 0
0, 0
0, 0
0, 0
0, 0
0, 0
0, 0
0, 0
0, 0
0, 0
0, 0
0, 0
0, 0
0, 0
0, 0
0, 0
0, 0
0, 0
0, 0
0, 0
0, 0
0, 0
0, 0
0, 0
0, 0
0, 0
0, 0
0, 0
0, 0
0, 0
0, 0
0, 0
0, 0
0, 0
0, 0
0, 0
0, 0
0, 0
0, 0
0, 0
0, 0
0, 0
0, 0
0, 0
0, 0
0, 0
0, 0
0, 0
0, 0
0, 0
0, 0
0, 0
0, 0
0, 0
0, 0
0, 0
0, 0
0, 0
0, 0
0, 0
0, 0
0, 0
0, 0
0, 0
0, 0
0, 0
0, 0
0, 0
0, 0
0, 0
0, 0
0, 0
0, 0
0, 0
0, 0
0, 0
0, 0
0, 0
0, 0
0, 0
0, 0
0, 0
0, 0
0, 0
0, 0
0, 0
0, 0
0, 0
0, 0
0, 0
0, 0
0, 0
0, 0
0, 0
0, 0
0, 0
0, 0
0, 0
0, 0
0, 0
0, 0
0, 0
0, 0
0, 0
0, 0
0, 0
0, 0
0, 0
0, 0
0, 0
0, 0
0, 0
0, 0
0, 0
0, 0
0, 0
0, 0
0, 0
0, 0
0, 0
0, 0
0, 0
0, 0
0, 0
0, 0
0, 0
0, 0
0, 0
0, 0
0, 0
0, 0
0, 0
0, 0
0, 0
0, 0
0, 0
0, 0
0, 0
0, 0
0, 0
0, 0
0, 0
0, 0
0, 0
0, 0
0, 0
0, 0
0, 0
0, 0
0, 0
0, 0
0, 0
0, 0
0, 0
0, 0
0, 0
0, 0
0, 0
0, 0
0, 0
0, 0
0, 0
0, 0
0, 0
0, 0
0, 0
0, 0
0, 0
0, 0
0, 0
0, 0
0, 0
0, 0
0, 0
0, 0
0, 0
0, 0
0, 0
0, 0
0, 0
0, 0
0, 0
0, 0
0, 0
0, 0
0, 0
0, 0
0, 0
0, 0
0, 0
0, 0
0, 0
0, 0
0, 0
0, 0
0, 0
0, 0
0, 0
0, 0
0, 0
0, 0
0, 0
#ENDOFDATA     end of spectrum data