File: host_upload/02-11-2024/rqc/uplink1/ps__0567_0717304816_000rfs_shot_387.msa
#FORMAT      : EMSA/MAS spectral data file
#VERSION     : TC202v2.0 PIXL
#TITLE       : Novarupta (sol567) subset1
#DATE        : 02-11-2024      Date in the format DD-MMM-YYYY, for example 07-JUL-2010
#TIME        :             The time of day at which the spectrum was recorded, in 24-hour format
#OWNER       : PIXL Flight Model       (PIXL will use this to indicate which instrument took the data.)
#NPOINTS     : 4096     Number of data points in the spectrum (This can be zero for configuration only files)
#NCOLUMNS    : 2     Number of data columns in the spectrum (This can be zero for configuration only files)
#XUNITS      : eV
#YUNITS      : COUNTS
#DATATYPE    : YY
#XPERCHAN    : 7.862, 7.881   eV per channel (separate by commas if more than one detector)
#OFFSET      : 18.5, -22.4         eV of first channel  (separate by commas if more than one detector
#SIGNALTYPE  : XRF
#YP_TEMP     : 1.658
#LIVETIME    : 8.83259, 8.80926   seconds (separate by commas if more than one detector)
#REALTIME    : 10, 10.0   seconds (separate by commas if more than one detector)
#SPECTRUM    : start of spectrum data
0, 0
0, 0
0, 0
0, 0
0, 0
0, 0
0, 0
0, 0
0, 0
0, 0
0, 0
0, 0
0, 0
0, 0
0, 0
0, 0
0, 0
0, 0
0, 0
0, 0
0, 0
0, 0
0, 0
0, 0
0, 0
0, 0
0, 0
0, 0
1, 0
0, 0
0, 0
0, 0
0, 1
2, 3
0, 2
0, 0
0, 1
1, 6
3, 5
2, 1
6, 3
3, 2
1, 3
0, 6
4, 6
5, 5
1, 5
2, 4
2, 1
9, 4
12, 11
6, 14
9, 12
19, 14
11, 18
15, 13
15, 12
6, 6
11, 15
16, 12
13, 22
25, 32
32, 50
46, 45
39, 46
47, 49
36, 49
36, 32
48, 35
57, 68
98, 125
150, 246
329, 327
393, 430
482, 547
450, 574
379, 458
320, 372
241, 266
141, 156
82, 73
47, 53
31, 45
29, 36
28, 21
26, 32
28, 29
33, 35
32, 34
17, 18
15, 14
13, 12
17, 30
40, 43
83, 70
131, 154
220, 247
255, 308
269, 344
319, 368
313, 293
236, 214
156, 170
111, 130
54, 73
54, 60
49, 66
69, 59
86, 99
102, 142
153, 184
208, 221
227, 252
224, 235
194, 234
179, 173
135, 151
105, 100
64, 104
82, 91
64, 84
71, 83
57, 62
63, 58
43, 48
37, 20
27, 22
16, 22
12, 24
16, 13
9, 12
14, 11
4, 6
8, 7
7, 4
11, 11
7, 8
12, 16
9, 20
33, 23
29, 32
38, 34
30, 37
25, 38
26, 19
20, 19
17, 14
14, 14
14, 18
16, 15
25, 26
32, 69
83, 94
142, 192
200, 246
281, 369
346, 380
382, 429
367, 372
340, 347
223, 264
160, 156
91, 100
59, 69
33, 47
28, 29
23, 33
21, 43
40, 56
53, 54
53, 57
40, 56
52, 70
48, 48
46, 42
27, 29
20, 22
16, 13
10, 10
15, 10
4, 6
18, 10
10, 6
12, 4
10, 8
14, 16
22, 20
22, 29
29, 36
40, 44
55, 57
53, 72
68, 69
57, 68
53, 70
48, 46
41, 37
21, 30
19, 22
19, 13
12, 19
17, 10
12, 19
11, 14
16, 15
13, 20
16, 16
15, 21
22, 21
16, 26
18, 16
14, 21
14, 26
11, 13
14, 15
11, 12
14, 12
9, 15
16, 15
6, 17
11, 8
9, 15
11, 15
12, 15
16, 14
21, 21
21, 23
21, 26
26, 18
24, 21
35, 34
31, 35
33, 23
24, 25
26, 26
21, 24
16, 17
11, 6
11, 15
18, 12
9, 12
14, 15
8, 16
10, 10
13, 17
14, 23
22, 21
29, 39
33, 46
37, 59
49, 52
44, 52
44, 48
35, 43
34, 40
30, 32
25, 37
19, 22
23, 20
15, 24
14, 18
23, 23
23, 49
75, 90
94, 145
189, 285
345, 453
579, 765
780, 1082
1006, 1464
1413, 1610
1611, 1809
1705, 1906
1628, 1806
1362, 1438
1141, 1159
888, 871
555, 561
369, 337
227, 196
131, 113
60, 55
32, 31
22, 19
19, 20
19, 16
22, 19
12, 15
6, 24
15, 31
18, 17
29, 30
39, 48
64, 71
74, 102
110, 157
182, 205
185, 227
227, 244
239, 285
243, 249
261, 288
232, 211
178, 201
139, 121
99, 86
47, 56
50, 34
19, 15
12, 11
6, 14
6, 4
8, 14
10, 8
11, 8
13, 13
13, 10
12, 9
13, 13
10, 9
13, 6
8, 8
7, 15
7, 3
5, 5
4, 4
4, 10
8, 4
6, 7
2, 9
8, 6
2, 7
5, 4
11, 8
5, 16
1, 9
7, 9
5, 8
4, 5
8, 13
10, 10
10, 8
6, 8
6, 8
13, 6
7, 16
7, 12
10, 10
8, 6
10, 5
4, 1
6, 5
9, 3
2, 6
3, 6
5, 4
6, 12
4, 2
13, 6
5, 5
9, 8
11, 7
8, 5
8, 11
12, 11
15, 9
9, 11
8, 16
6, 9
15, 11
7, 10
9, 7
8, 7
5, 9
9, 12
4, 8
0, 9
2, 11
6, 6
5, 4
5, 8
4, 13
6, 3
9, 9
5, 9
8, 3
6, 11
3, 4
3, 7
3, 4
3, 7
5, 6
3, 3
6, 13
3, 4
2, 5
7, 7
7, 7
4, 8
3, 9
2, 4
2, 6
2, 7
9, 6
1, 8
7, 8
6, 5
5, 7
5, 6
6, 4
7, 4
3, 2
6, 7
4, 7
2, 9
5, 4
5, 6
2, 2
11, 7
8, 3
8, 5
0, 3
3, 6
8, 6
8, 8
4, 5
4, 3
8, 3
7, 4
5, 2
6, 2
5, 3
2, 8
5, 6
1, 5
2, 8
2, 7
6, 5
3, 6
10, 7
3, 4
6, 5
6, 2
3, 7
3, 2
4, 2
3, 4
5, 6
3, 9
7, 4
3, 7
2, 3
5, 1
4, 3
4, 5
5, 5
4, 3
2, 2
2, 2
2, 5
2, 6
3, 1
3, 0
2, 2
3, 4
1, 2
1, 5
1, 0
2, 3
5, 4
0, 2
2, 6
5, 0
2, 2
1, 4
4, 5
3, 1
5, 1
1, 2
2, 3
2, 5
2, 3
0, 1
2, 6
3, 2
3, 5
5, 2
4, 1
2, 2
2, 1
4, 2
2, 1
1, 0
2, 1
1, 0
3, 5
4, 5
1, 4
3, 5
2, 7
4, 4
2, 0
0, 2
2, 2
4, 4
0, 5
1, 1
1, 2
5, 1
4, 2
0, 2
2, 3
4, 2
0, 4
3, 2
3, 3
1, 0
1, 5
2, 0
1, 1
2, 0
2, 2
3, 2
0, 4
1, 3
2, 1
0, 2
1, 5
2, 1
2, 5
2, 2
3, 2
1, 0
1, 2
4, 3
1, 3
1, 3
4, 5
3, 3
4, 4
4, 3
2, 5
2, 5
4, 2
3, 1
1, 5
2, 3
3, 2
0, 0
5, 1
1, 3
3, 1
4, 3
2, 1
0, 3
0, 3
1, 1
2, 1
3, 1
2, 2
0, 4
2, 0
3, 0
2, 1
0, 2
2, 2
2, 1
2, 1
2, 0
0, 3
0, 1
1, 1
4, 1
3, 2
0, 0
1, 2
1, 0
0, 0
0, 2
1, 1
2, 1
2, 2
2, 2
0, 2
0, 3
2, 1
1, 2
1, 1
2, 0
0, 0
2, 2
0, 4
1, 0
4, 1
0, 3
0, 1
3, 1
3, 1
3, 2
0, 1
1, 0
2, 1
1, 2
0, 0
2, 0
3, 1
1, 0
2, 1
0, 1
0, 0
2, 2
2, 2
0, 2
1, 1
0, 1
2, 0
0, 0
1, 0
0, 0
0, 0
1, 2
1, 0
0, 2
2, 1
0, 0
0, 1
1, 0
1, 0
0, 2
3, 2
1, 1
2, 0
1, 0
0, 0
0, 2
0, 2
0, 1
2, 2
0, 2
0, 1
1, 1
2, 0
1, 0
0, 1
1, 0
0, 0
0, 0
0, 0
1, 0
0, 1
0, 2
0, 0
2, 0
2, 0
0, 0
0, 1
2, 0
0, 2
1, 0
0, 0
0, 2
2, 1
0, 1
1, 0
0, 1
2, 0
0, 1
0, 0
0, 0
1, 0
0, 0
0, 2
0, 0
0, 1
0, 0
0, 1
2, 0
2, 0
0, 0
1, 0
0, 0
1, 0
1, 0
0, 0
0, 0
0, 2
1, 0
1, 1
1, 0
1, 1
0, 2
0, 0
0, 0
0, 1
0, 0
0, 0
0, 0
0, 0
0, 0
1, 0
0, 0
0, 0
2, 0
1, 0
1, 0
0, 0
0, 2
3, 0
0, 0
1, 1
0, 0
3, 3
0, 0
1, 1
0, 0
0, 1
1, 0
0, 0
1, 0
0, 0
0, 1
0, 0
0, 0
0, 0
1, 1
0, 0
0, 0
0, 0
0, 0
1, 2
0, 0
0, 1
0, 0
0, 3
0, 0
0, 0
0, 0
0, 0
1, 1
0, 1
0, 1
0, 0
0, 0
1, 1
0, 0
0, 0
0, 0
0, 0
0, 1
0, 1
0, 0
1, 0
0, 0
0, 0
0, 0
0, 0
0, 0
1, 0
0, 0
1, 1
0, 0
0, 0
0, 0
1, 0
1, 0
1, 0
1, 0
1, 0
0, 0
0, 0
0, 0
0, 0
0, 0
0, 0
0, 0
0, 0
0, 0
0, 1
1, 0
0, 0
0, 0
0, 0
0, 1
0, 1
0, 1
1, 0
0, 0
0, 0
0, 0
0, 2
0, 0
0, 0
0, 0
0, 0
0, 0
0, 2
0, 0
0, 0
0, 0
0, 1
0, 1
0, 0
1, 0
0, 0
0, 1
0, 0
0, 0
1, 0
0, 0
0, 0
0, 0
0, 0
1, 1
1, 0
0, 0
0, 0
0, 0
0, 0
0, 0
0, 1
1, 0
0, 0
1, 1
0, 0
0, 0
0, 0
0, 1
0, 1
1, 0
0, 1
0, 0
0, 0
0, 0
0, 1
0, 0
0, 1
0, 0
0, 0
0, 0
0, 0
0, 0
0, 0
0, 0
0, 0
1, 0
0, 0
0, 0
0, 0
1, 0
0, 0
0, 0
1, 0
0, 0
0, 0
1, 0
0, 0
0, 0
0, 0
0, 0
0, 0
0, 1
0, 0
0, 0
0, 1
0, 0
0, 1
0, 0
0, 0
0, 0
0, 1
0, 0
0, 0
0, 0
0, 0
0, 0
0, 0
1, 0
0, 0
0, 0
0, 0
0, 0
0, 0
0, 0
0, 0
0, 0
0, 0
0, 0
0, 0
0, 0
0, 0
0, 0
0, 0
0, 0
0, 0
0, 0
0, 0
0, 0
0, 0
0, 0
0, 0
0, 0
0, 0
0, 1
0, 0
0, 0
0, 0
0, 0
0, 0
0, 0
0, 0
0, 0
0, 0
0, 1
0, 0
0, 0
0, 0
0, 0
0, 0
0, 0
0, 0
0, 0
0, 0
0, 0
0, 0
0, 0
0, 0
0, 0
0, 1
0, 0
0, 0
0, 0
0, 0
0, 0
0, 0
0, 0
1, 0
0, 0
0, 0
0, 0
0, 0
0, 0
0, 0
0, 0
0, 0
0, 0
0, 0
0, 0
0, 0
0, 0
0, 0
0, 0
0, 0
1, 0
0, 0
0, 1
0, 0
0, 0
0, 0
0, 0
0, 0
0, 0
0, 0
0, 0
0, 0
0, 0
0, 0
0, 0
0, 0
0, 0
0, 0
0, 0
0, 1
0, 0
0, 0
0, 0
0, 0
0, 0
0, 0
0, 0
0, 0
0, 0
0, 0
0, 0
0, 0
0, 0
0, 0
0, 0
0, 0
0, 0
0, 0
0, 0
0, 0
0, 0
0, 0
0, 1
0, 0
0, 0
0, 0
0, 0
0, 0
0, 0
0, 0
0, 0
0, 0
0, 0
0, 0
0, 0
0, 0
0, 0
0, 0
0, 0
0, 0
0, 0
0, 0
0, 0
0, 0
0, 0
0, 0
0, 0
0, 0
0, 1
0, 0
0, 0
0, 0
0, 0
0, 0
0, 0
0, 0
0, 0
0, 0
0, 0
0, 0
0, 0
0, 0
0, 0
0, 0
0, 0
0, 0
0, 0
0, 0
0, 0
0, 0
0, 0
0, 0
0, 0
0, 0
0, 0
0, 0
0, 0
0, 0
0, 0
0, 0
0, 0
0, 0
0, 0
0, 0
0, 0
0, 0
0, 0
0, 0
0, 0
0, 0
0, 0
0, 0
0, 0
0, 0
0, 0
0, 0
0, 0
0, 0
0, 0
0, 0
0, 0
0, 0
0, 0
0, 0
0, 0
0, 0
0, 0
0, 0
0, 0
0, 0
0, 0
0, 0
0, 0
0, 0
0, 0
0, 0
0, 0
0, 0
0, 0
0, 0
0, 0
0, 0
0, 0
0, 0
0, 0
0, 0
0, 0
0, 0
0, 0
0, 0
0, 0
0, 0
0, 0
0, 0
0, 0
0, 0
0, 0
0, 0
0, 0
0, 0
0, 0
0, 0
0, 0
0, 0
0, 0
0, 0
0, 0
0, 0
0, 0
0, 0
0, 0
0, 0
0, 0
0, 0
0, 0
0, 0
0, 0
0, 0
0, 0
0, 0
0, 0
0, 0
0, 0
0, 0
0, 0
0, 0
0, 0
0, 0
0, 0
0, 0
0, 0
0, 0
0, 0
0, 0
0, 0
0, 0
0, 0
0, 0
0, 0
0, 0
0, 0
0, 0
0, 0
0, 0
0, 0
0, 0
0, 0
0, 0
0, 0
0, 0
0, 0
0, 0
0, 0
0, 0
0, 0
0, 0
0, 0
0, 0
0, 0
0, 0
0, 0
0, 0
0, 0
0, 0
0, 0
0, 0
0, 0
0, 0
0, 0
0, 0
0, 0
0, 0
0, 0
0, 0
0, 0
0, 0
0, 0
0, 0
0, 0
0, 0
0, 0
0, 0
0, 0
0, 0
0, 0
0, 0
0, 0
0, 0
0, 0
0, 0
0, 0
0, 0
0, 0
0, 0
0, 0
0, 0
0, 0
0, 0
0, 0
0, 0
0, 0
0, 0
0, 0
0, 0
0, 0
0, 0
0, 0
0, 0
0, 0
0, 0
0, 0
0, 0
0, 0
0, 0
0, 0
0, 0
0, 0
0, 0
0, 0
0, 0
0, 0
0, 0
0, 0
0, 0
0, 0
0, 0
0, 0
0, 0
0, 0
0, 0
0, 0
0, 0
0, 0
0, 0
0, 0
0, 0
0, 0
0, 0
0, 0
0, 0
0, 0
0, 0
0, 0
0, 0
0, 0
0, 0
0, 0
0, 0
0, 0
0, 0
0, 0
0, 0
0, 0
0, 0
0, 0
0, 0
0, 0
0, 0
0, 0
0, 0
0, 0
0, 0
0, 0
0, 0
0, 0
0, 0
0, 0
0, 0
0, 0
0, 0
0, 0
0, 0
0, 0
0, 0
0, 0
0, 0
0, 0
0, 0
0, 0
0, 0
0, 0
0, 0
0, 0
0, 0
0, 0
0, 0
0, 0
0, 0
0, 0
0, 0
0, 0
0, 0
0, 0
0, 0
0, 0
0, 0
0, 0
0, 0
0, 0
0, 0
0, 0
0, 0
0, 0
0, 0
0, 0
0, 0
0, 0
0, 0
0, 0
0, 0
0, 0
0, 0
0, 0
0, 0
0, 0
0, 0
0, 0
0, 0
0, 0
0, 0
0, 0
0, 0
0, 0
0, 0
0, 0
0, 0
0, 0
0, 0
0, 0
0, 0
0, 0
0, 0
0, 0
0, 0
0, 0
0, 0
0, 0
0, 0
0, 0
0, 0
0, 0
0, 0
0, 0
0, 0
0, 0
0, 0
0, 0
0, 0
0, 0
0, 0
0, 0
0, 0
0, 0
0, 0
#ENDOFDATA     end of spectrum data