File: host_upload/02-11-2024/rqc/uplink1/ps__0567_0717304816_000rfs_shot_354.msa
#FORMAT      : EMSA/MAS spectral data file
#VERSION     : TC202v2.0 PIXL
#TITLE       : Novarupta (sol567) subset1
#DATE        : 02-11-2024      Date in the format DD-MMM-YYYY, for example 07-JUL-2010
#TIME        :             The time of day at which the spectrum was recorded, in 24-hour format
#OWNER       : PIXL Flight Model       (PIXL will use this to indicate which instrument took the data.)
#NPOINTS     : 4096     Number of data points in the spectrum (This can be zero for configuration only files)
#NCOLUMNS    : 2     Number of data columns in the spectrum (This can be zero for configuration only files)
#XUNITS      : eV
#YUNITS      : COUNTS
#DATATYPE    : YY
#XPERCHAN    : 7.862, 7.881   eV per channel (separate by commas if more than one detector)
#OFFSET      : 18.5, -22.4         eV of first channel  (separate by commas if more than one detector
#SIGNALTYPE  : XRF
#YP_TEMP     : 1.626
#LIVETIME    : 8.82377, 8.81737   seconds (separate by commas if more than one detector)
#REALTIME    : 10, 10.0   seconds (separate by commas if more than one detector)
#SPECTRUM    : start of spectrum data
0, 0
0, 0
0, 0
0, 0
0, 0
0, 0
0, 0
0, 0
0, 0
0, 0
0, 0
0, 0
0, 0
0, 0
0, 0
0, 0
0, 0
0, 0
0, 0
0, 0
0, 0
0, 0
0, 0
0, 0
0, 0
0, 0
0, 0
0, 0
0, 0
0, 0
0, 0
0, 0
0, 0
1, 0
0, 2
1, 4
5, 4
2, 4
1, 3
5, 4
2, 1
6, 4
5, 3
1, 2
3, 4
0, 5
2, 1
4, 5
3, 6
4, 4
7, 10
5, 17
14, 12
19, 16
12, 18
15, 14
13, 10
6, 18
7, 7
12, 9
15, 20
21, 30
30, 37
39, 60
53, 43
51, 61
43, 39
21, 40
28, 33
52, 61
117, 116
162, 212
292, 343
401, 450
463, 545
471, 555
422, 460
341, 329
223, 233
135, 145
62, 87
41, 50
39, 35
29, 32
29, 37
38, 34
39, 39
36, 36
30, 28
13, 15
16, 25
20, 23
22, 28
35, 48
86, 85
121, 150
181, 215
267, 304
300, 343
293, 301
293, 301
209, 224
165, 144
104, 107
73, 77
53, 52
37, 60
35, 70
82, 106
121, 119
170, 165
182, 244
191, 226
215, 220
193, 204
173, 140
108, 138
129, 99
86, 85
72, 74
65, 74
72, 74
56, 69
46, 54
40, 57
51, 44
24, 26
17, 20
21, 13
12, 17
11, 9
7, 13
7, 5
6, 5
5, 8
5, 10
10, 13
19, 12
11, 18
17, 24
25, 29
29, 25
21, 29
22, 35
22, 22
19, 18
18, 19
10, 10
9, 12
15, 23
25, 38
42, 58
83, 101
144, 169
207, 264
292, 325
313, 409
365, 449
385, 390
311, 372
244, 268
177, 179
117, 94
55, 66
48, 39
29, 35
23, 39
32, 35
48, 60
52, 70
64, 77
71, 75
51, 62
54, 53
34, 39
16, 33
12, 20
11, 15
4, 8
7, 7
13, 9
13, 5
5, 8
14, 9
17, 9
12, 14
18, 27
25, 31
39, 33
32, 43
43, 71
48, 61
47, 64
54, 70
56, 59
41, 53
35, 30
28, 30
22, 21
32, 17
18, 17
15, 14
17, 8
13, 10
5, 7
13, 16
12, 25
11, 15
16, 14
20, 23
19, 25
16, 24
18, 22
11, 16
9, 17
3, 14
8, 9
16, 13
8, 10
13, 14
13, 8
9, 10
10, 13
17, 12
14, 13
16, 13
18, 17
34, 29
25, 25
27, 45
30, 31
37, 32
32, 31
25, 31
24, 20
21, 18
14, 13
14, 12
11, 9
12, 13
10, 13
17, 15
11, 23
9, 16
11, 30
22, 18
30, 24
32, 25
33, 45
48, 64
46, 50
29, 50
53, 56
50, 47
32, 31
36, 37
30, 18
23, 15
28, 19
17, 19
20, 22
28, 39
33, 56
48, 92
113, 156
199, 273
351, 523
518, 734
813, 1053
1116, 1422
1474, 1724
1685, 1882
1621, 1985
1669, 1729
1470, 1463
1182, 1233
804, 838
583, 585
353, 334
214, 208
116, 101
68, 55
34, 27
24, 19
18, 19
16, 13
12, 19
27, 16
14, 19
18, 28
28, 24
25, 38
44, 55
54, 73
77, 126
94, 149
167, 193
190, 253
215, 304
268, 286
243, 297
245, 281
243, 212
168, 186
128, 101
75, 94
61, 53
29, 35
27, 16
13, 19
15, 10
5, 10
6, 7
10, 8
10, 8
6, 17
16, 12
17, 15
8, 8
11, 10
10, 11
7, 13
5, 6
8, 8
4, 9
5, 7
4, 8
3, 11
6, 5
6, 8
6, 5
3, 7
5, 13
6, 7
3, 8
6, 10
7, 10
5, 4
5, 8
2, 5
4, 1
5, 7
3, 6
5, 9
9, 11
10, 7
3, 10
12, 7
12, 10
6, 3
8, 11
9, 7
7, 7
6, 3
4, 3
7, 6
11, 7
7, 8
4, 9
5, 5
4, 9
9, 8
9, 11
8, 15
10, 12
11, 4
5, 11
8, 10
10, 8
10, 16
7, 16
9, 11
5, 5
4, 9
4, 9
5, 8
3, 9
5, 11
3, 13
3, 8
2, 9
7, 7
6, 8
3, 14
8, 2
1, 4
5, 8
11, 7
5, 8
5, 7
3, 5
2, 11
5, 6
5, 2
6, 5
6, 4
2, 6
3, 13
3, 7
7, 13
7, 7
4, 2
1, 5
6, 3
1, 8
4, 4
8, 5
5, 6
8, 8
4, 2
2, 7
3, 1
4, 6
7, 6
9, 12
3, 8
4, 4
3, 2
5, 7
8, 8
5, 3
6, 5
7, 5
4, 7
4, 6
3, 2
7, 7
2, 9
1, 5
4, 5
6, 3
4, 10
1, 2
1, 2
3, 6
6, 1
5, 3
2, 3
4, 6
6, 1
4, 4
8, 4
2, 1
2, 1
4, 1
4, 5
2, 3
2, 3
2, 2
4, 4
1, 2
1, 4
5, 2
1, 3
3, 6
0, 2
3, 3
0, 5
4, 3
4, 7
7, 1
2, 3
2, 2
2, 3
3, 7
3, 0
2, 3
3, 2
4, 3
3, 2
2, 1
5, 4
2, 5
4, 4
5, 5
5, 3
2, 3
1, 4
1, 2
3, 0
3, 3
0, 2
2, 4
4, 4
2, 4
1, 1
1, 3
3, 2
1, 2
3, 3
3, 3
3, 8
2, 0
2, 3
3, 0
3, 2
3, 3
3, 3
1, 2
2, 3
3, 4
4, 3
2, 8
0, 1
4, 3
5, 2
3, 4
1, 2
1, 2
0, 2
0, 3
2, 3
1, 4
1, 5
2, 1
1, 2
2, 3
0, 4
3, 3
0, 1
4, 2
1, 4
4, 4
3, 2
4, 4
3, 3
6, 1
8, 2
1, 1
5, 2
1, 1
4, 1
3, 3
1, 2
0, 1
2, 3
2, 2
2, 2
5, 3
0, 4
1, 2
4, 3
1, 4
1, 1
4, 1
2, 2
2, 3
1, 4
1, 2
2, 2
2, 1
3, 4
2, 0
1, 2
1, 1
2, 2
2, 3
1, 2
1, 1
1, 3
3, 1
1, 2
1, 2
2, 2
1, 0
3, 2
1, 1
1, 0
2, 1
1, 1
0, 1
1, 1
1, 1
1, 3
2, 1
0, 3
0, 0
0, 0
3, 1
1, 1
0, 1
1, 1
1, 1
0, 1
2, 0
1, 0
2, 1
0, 1
2, 0
0, 1
2, 1
2, 0
2, 0
1, 2
2, 3
1, 3
0, 1
1, 6
0, 0
0, 0
1, 1
1, 0
2, 2
0, 0
1, 1
0, 1
0, 1
2, 1
1, 2
0, 1
0, 1
2, 0
2, 1
0, 1
1, 0
1, 0
2, 0
1, 1
0, 2
2, 0
0, 1
0, 0
0, 1
0, 0
0, 2
3, 0
1, 1
1, 2
2, 1
1, 0
1, 1
0, 3
2, 1
0, 2
1, 0
1, 3
0, 2
1, 0
1, 0
0, 0
0, 1
0, 0
0, 1
0, 1
1, 1
1, 2
0, 0
1, 2
0, 0
0, 1
0, 1
1, 4
0, 1
0, 0
1, 1
0, 2
1, 1
0, 0
0, 0
0, 0
1, 0
0, 0
1, 0
1, 0
0, 1
1, 0
0, 0
0, 1
0, 2
2, 0
1, 1
1, 0
1, 1
0, 0
1, 3
0, 1
0, 1
0, 1
0, 1
2, 0
0, 1
0, 0
0, 1
0, 0
0, 0
2, 0
0, 0
1, 0
0, 1
0, 0
0, 0
0, 0
0, 0
1, 0
0, 0
0, 0
0, 0
1, 1
0, 0
1, 0
0, 1
1, 0
1, 0
0, 1
0, 1
0, 1
0, 0
0, 1
0, 0
0, 0
0, 0
0, 1
0, 1
0, 0
0, 0
1, 0
0, 1
1, 0
0, 0
0, 0
0, 1
1, 0
0, 0
0, 0
0, 0
1, 0
0, 1
0, 0
0, 0
0, 1
1, 0
0, 0
2, 0
0, 0
0, 0
1, 0
1, 0
0, 1
0, 0
0, 0
1, 2
1, 2
0, 0
0, 0
0, 0
0, 0
0, 1
0, 0
0, 0
0, 0
1, 0
0, 1
0, 0
0, 1
2, 0
0, 0
0, 0
0, 1
0, 0
0, 0
2, 0
0, 0
0, 1
0, 0
0, 0
1, 0
0, 0
0, 0
0, 0
0, 0
2, 0
0, 0
0, 0
0, 1
0, 0
1, 0
0, 0
1, 0
0, 1
0, 0
0, 1
0, 0
0, 0
0, 0
1, 0
0, 0
0, 0
0, 0
0, 1
0, 0
0, 0
0, 1
0, 1
2, 0
0, 0
1, 1
1, 0
1, 1
1, 0
0, 0
1, 1
1, 0
1, 1
1, 0
0, 1
1, 0
0, 1
0, 0
0, 1
0, 0
0, 0
0, 0
0, 0
0, 0
0, 1
0, 1
0, 0
0, 0
0, 0
0, 0
0, 1
0, 0
0, 0
0, 0
1, 0
0, 1
0, 0
0, 0
0, 0
0, 0
0, 0
0, 0
0, 0
0, 0
0, 0
0, 0
0, 0
0, 0
0, 0
0, 0
0, 0
0, 0
0, 0
0, 0
0, 0
0, 0
0, 0
0, 0
0, 0
0, 0
0, 1
0, 1
0, 0
0, 0
0, 0
0, 0
0, 0
1, 0
0, 0
1, 0
0, 0
0, 0
0, 0
0, 0
0, 0
0, 0
1, 0
0, 0
0, 0
0, 1
0, 0
0, 0
0, 0
0, 0
0, 0
1, 0
0, 0
0, 1
0, 1
0, 0
0, 0
0, 0
0, 0
0, 0
0, 0
0, 0
0, 0
0, 0
0, 0
0, 0
0, 0
0, 0
0, 0
0, 0
0, 0
0, 0
0, 0
0, 0
0, 0
0, 0
0, 0
0, 0
0, 0
0, 0
0, 0
0, 0
0, 1
0, 0
0, 0
0, 0
0, 0
0, 0
0, 0
0, 0
0, 0
0, 0
0, 0
0, 0
1, 0
0, 0
0, 0
0, 1
0, 0
0, 0
0, 0
0, 0
0, 0
0, 0
0, 0
0, 0
0, 0
0, 0
0, 0
0, 0
0, 0
0, 0
0, 0
0, 0
0, 0
0, 0
0, 0
0, 0
0, 0
0, 0
0, 0
0, 0
0, 0
0, 0
0, 0
1, 0
0, 0
0, 0
0, 0
0, 0
0, 0
0, 0
0, 1
0, 0
0, 0
0, 0
0, 0
0, 0
0, 0
0, 0
0, 0
0, 0
1, 0
0, 0
1, 0
1, 0
0, 0
0, 0
0, 0
0, 0
0, 0
0, 0
0, 0
0, 0
0, 0
0, 0
0, 0
0, 0
0, 0
0, 0
0, 0
0, 0
0, 0
0, 0
0, 0
0, 0
0, 0
0, 1
0, 0
0, 0
0, 0
0, 0
0, 0
0, 0
0, 0
0, 0
0, 0
0, 0
0, 0
0, 0
0, 0
0, 0
0, 0
0, 0
0, 0
0, 0
0, 0
0, 0
0, 0
0, 0
0, 0
0, 0
0, 0
0, 2
0, 0
0, 0
0, 0
0, 0
0, 0
0, 0
0, 0
0, 0
0, 0
0, 0
0, 0
0, 0
0, 0
0, 0
0, 0
0, 0
0, 0
0, 0
0, 0
0, 0
0, 0
0, 0
0, 0
0, 0
0, 0
0, 0
0, 0
0, 0
0, 0
0, 0
0, 0
0, 0
0, 0
0, 0
0, 0
0, 0
0, 0
0, 0
0, 0
0, 0
0, 0
0, 0
0, 0
0, 0
0, 0
0, 0
0, 0
0, 0
0, 0
0, 0
0, 0
0, 0
0, 0
0, 0
0, 0
0, 0
0, 0
0, 0
0, 0
0, 0
0, 0
0, 0
0, 0
0, 0
0, 0
0, 0
0, 0
0, 0
0, 0
0, 0
0, 0
0, 0
0, 0
0, 0
0, 0
0, 0
0, 0
0, 0
0, 0
0, 0
0, 0
0, 0
0, 0
0, 0
0, 0
0, 0
0, 0
0, 0
0, 0
0, 0
0, 0
0, 0
0, 0
0, 0
0, 0
0, 0
0, 0
0, 0
0, 0
0, 0
0, 0
0, 0
0, 0
0, 0
0, 0
0, 0
0, 0
0, 0
0, 0
0, 0
0, 0
0, 0
0, 0
0, 0
0, 0
0, 0
0, 0
0, 0
0, 0
0, 0
0, 0
0, 0
0, 0
0, 0
0, 0
0, 0
0, 0
0, 0
0, 0
0, 0
0, 0
0, 0
0, 0
0, 0
0, 0
0, 0
0, 0
0, 0
0, 0
0, 0
0, 0
0, 0
0, 0
0, 0
0, 0
0, 0
0, 0
0, 0
0, 0
0, 0
0, 0
0, 0
0, 0
0, 0
0, 0
0, 0
0, 0
0, 0
0, 0
0, 0
0, 0
0, 0
0, 0
0, 0
0, 0
0, 0
0, 0
0, 0
0, 0
0, 0
0, 0
0, 0
0, 0
0, 0
0, 0
0, 0
0, 0
0, 0
0, 0
0, 0
0, 0
0, 0
0, 0
0, 0
0, 0
0, 0
0, 0
0, 0
0, 0
0, 0
0, 0
0, 0
0, 0
0, 0
0, 0
0, 0
0, 0
0, 0
0, 0
0, 0
0, 0
0, 0
0, 0
0, 0
0, 0
0, 0
0, 0
0, 0
0, 0
0, 0
0, 0
0, 0
0, 0
0, 0
0, 0
0, 0
0, 0
0, 0
0, 0
0, 0
0, 0
0, 0
0, 0
0, 0
0, 0
0, 0
0, 0
0, 0
0, 0
0, 0
0, 0
0, 0
0, 0
0, 0
0, 0
0, 0
0, 0
0, 0
0, 0
0, 0
0, 0
0, 0
0, 0
0, 0
0, 0
0, 0
0, 0
0, 0
0, 0
0, 0
0, 0
0, 0
0, 0
0, 0
0, 0
0, 0
0, 0
0, 0
0, 0
0, 0
0, 0
0, 0
0, 0
0, 0
0, 0
0, 0
0, 0
0, 0
0, 0
0, 0
0, 0
0, 0
0, 0
0, 0
0, 0
0, 0
0, 0
0, 0
0, 0
0, 0
0, 0
0, 0
0, 0
0, 0
0, 0
0, 0
0, 0
0, 0
0, 0
0, 0
0, 0
0, 0
0, 0
0, 0
0, 0
0, 0
0, 0
0, 0
0, 0
0, 0
0, 0
0, 0
0, 0
0, 0
0, 0
0, 0
0, 0
0, 0
0, 0
0, 0
0, 0
0, 0
0, 0
0, 0
0, 0
0, 0
0, 0
0, 0
0, 0
0, 0
0, 0
0, 0
0, 0
0, 0
0, 0
0, 0
0, 0
0, 0
0, 0
0, 0
0, 0
0, 0
0, 0
0, 0
0, 0
0, 0
0, 0
0, 0
0, 0
0, 0
0, 0
0, 0
0, 0
0, 0
0, 0
0, 0
0, 0
0, 0
#ENDOFDATA     end of spectrum data