File: host_upload/02-11-2024/rqc/uplink1/ps__0567_0717304816_000rfs_shot_366.msa
#FORMAT      : EMSA/MAS spectral data file
#VERSION     : TC202v2.0 PIXL
#TITLE       : Novarupta (sol567) subset1
#DATE        : 02-11-2024      Date in the format DD-MMM-YYYY, for example 07-JUL-2010
#TIME        :             The time of day at which the spectrum was recorded, in 24-hour format
#OWNER       : PIXL Flight Model       (PIXL will use this to indicate which instrument took the data.)
#NPOINTS     : 4096     Number of data points in the spectrum (This can be zero for configuration only files)
#NCOLUMNS    : 2     Number of data columns in the spectrum (This can be zero for configuration only files)
#XUNITS      : eV
#YUNITS      : COUNTS
#DATATYPE    : YY
#XPERCHAN    : 7.862, 7.881   eV per channel (separate by commas if more than one detector)
#OFFSET      : 18.5, -22.4         eV of first channel  (separate by commas if more than one detector
#SIGNALTYPE  : XRF
#YP_TEMP     : 1.658
#LIVETIME    : 8.81859, 8.81545   seconds (separate by commas if more than one detector)
#REALTIME    : 10, 10.0   seconds (separate by commas if more than one detector)
#SPECTRUM    : start of spectrum data
0, 0
0, 0
0, 0
0, 0
0, 0
0, 0
0, 0
0, 0
0, 0
0, 0
0, 0
0, 0
0, 0
0, 0
0, 0
0, 0
0, 0
0, 0
0, 0
0, 0
0, 0
0, 0
0, 0
0, 0
0, 0
0, 0
0, 0
0, 0
0, 0
0, 0
0, 0
0, 1
0, 0
1, 0
0, 0
2, 0
2, 0
1, 3
3, 3
4, 3
2, 2
1, 1
2, 5
5, 2
3, 2
0, 3
5, 1
5, 1
5, 2
3, 0
12, 6
10, 13
10, 17
10, 15
10, 14
17, 16
11, 20
10, 9
12, 11
11, 10
12, 18
29, 21
35, 43
46, 52
55, 43
55, 50
34, 42
40, 40
30, 31
56, 53
102, 128
203, 220
313, 344
401, 454
476, 538
504, 547
443, 478
356, 349
226, 233
160, 142
77, 91
57, 45
37, 30
29, 35
43, 40
25, 34
36, 42
37, 28
28, 28
26, 26
26, 14
16, 14
27, 29
47, 42
68, 84
150, 134
188, 201
242, 262
303, 312
327, 301
269, 263
199, 191
192, 162
108, 99
71, 78
43, 57
67, 67
49, 62
87, 81
130, 128
194, 181
183, 214
188, 245
207, 240
187, 207
188, 161
147, 148
118, 109
104, 86
66, 87
82, 83
83, 63
61, 65
52, 56
56, 50
34, 41
33, 21
27, 21
22, 16
15, 17
15, 14
15, 11
10, 6
7, 10
6, 10
6, 4
10, 7
11, 12
23, 22
22, 17
26, 32
33, 36
31, 35
24, 20
20, 21
19, 16
17, 12
14, 8
10, 19
17, 17
18, 22
51, 54
89, 99
154, 155
209, 230
286, 304
335, 380
395, 409
333, 384
312, 313
248, 239
164, 149
109, 84
59, 53
35, 39
32, 26
27, 36
26, 33
42, 36
55, 65
51, 66
71, 65
58, 64
57, 55
34, 38
34, 33
19, 18
15, 9
11, 9
12, 10
9, 7
14, 9
12, 9
8, 11
15, 16
20, 13
17, 21
17, 23
38, 48
55, 38
63, 62
61, 59
57, 62
71, 57
72, 61
50, 31
26, 36
28, 23
24, 17
19, 20
18, 20
13, 20
14, 16
12, 16
11, 17
20, 26
17, 8
11, 11
20, 14
27, 23
16, 15
24, 17
19, 21
15, 18
8, 14
8, 10
15, 11
9, 15
15, 14
12, 12
13, 12
10, 13
6, 16
9, 13
13, 14
17, 28
27, 21
23, 32
15, 29
28, 34
31, 32
25, 36
31, 31
28, 28
21, 19
19, 21
14, 17
13, 15
12, 13
16, 12
11, 10
13, 12
10, 13
9, 21
16, 23
26, 25
15, 31
37, 32
42, 40
37, 57
48, 50
54, 54
59, 35
52, 48
40, 36
20, 27
25, 24
26, 26
14, 11
18, 29
20, 24
25, 32
44, 46
63, 94
112, 137
206, 251
394, 412
622, 679
882, 1022
1182, 1405
1460, 1630
1680, 1795
1722, 1799
1703, 1721
1582, 1423
1147, 1122
895, 801
664, 489
376, 301
216, 183
108, 101
56, 62
53, 22
29, 20
17, 15
23, 17
19, 15
22, 17
17, 18
15, 23
31, 23
29, 36
39, 43
54, 80
85, 103
109, 134
144, 205
193, 214
212, 275
282, 298
283, 266
272, 274
219, 214
169, 170
131, 99
103, 72
64, 49
29, 29
30, 19
11, 13
6, 10
5, 8
6, 6
5, 9
10, 14
16, 10
16, 9
13, 4
16, 9
15, 11
12, 11
10, 8
11, 4
11, 7
5, 9
4, 6
4, 4
13, 2
7, 8
3, 8
5, 4
3, 10
6, 12
5, 11
7, 10
9, 6
8, 10
6, 6
8, 2
3, 7
7, 12
8, 9
7, 5
9, 9
6, 11
2, 7
13, 9
4, 11
6, 4
10, 7
6, 6
6, 11
6, 7
6, 8
9, 14
7, 3
6, 7
4, 8
6, 8
8, 6
7, 6
4, 9
14, 8
8, 10
8, 12
9, 13
15, 13
18, 9
9, 14
7, 14
9, 7
14, 11
9, 7
7, 9
15, 7
8, 7
4, 3
7, 3
9, 9
6, 3
2, 4
4, 2
7, 3
7, 7
8, 9
4, 5
5, 3
6, 3
8, 6
5, 11
6, 2
3, 2
8, 8
8, 3
7, 9
5, 6
6, 4
7, 4
2, 4
4, 6
3, 4
3, 4
3, 6
5, 8
5, 6
9, 4
9, 7
6, 8
2, 8
4, 10
3, 1
6, 4
9, 4
6, 8
1, 2
3, 6
5, 6
6, 2
2, 7
1, 6
3, 4
5, 1
7, 1
2, 3
6, 6
3, 7
1, 7
6, 7
5, 4
5, 10
1, 3
6, 7
6, 5
2, 2
4, 3
2, 5
4, 3
2, 4
2, 3
1, 2
3, 7
4, 5
4, 2
5, 8
6, 5
3, 3
1, 3
4, 2
8, 5
4, 8
3, 3
5, 7
2, 8
4, 5
7, 4
5, 4
2, 3
7, 5
4, 5
2, 2
3, 1
1, 5
2, 3
3, 4
3, 1
1, 2
5, 2
4, 4
6, 3
5, 3
3, 6
3, 3
3, 1
5, 2
2, 2
4, 4
2, 1
4, 1
3, 2
1, 4
3, 1
3, 3
0, 3
4, 1
1, 3
4, 4
2, 0
1, 7
2, 3
4, 2
2, 0
3, 1
5, 1
3, 2
3, 3
2, 6
1, 3
2, 5
5, 4
7, 1
2, 2
5, 4
2, 2
4, 1
3, 3
1, 3
1, 3
1, 5
4, 1
2, 4
3, 3
2, 3
1, 1
2, 1
4, 1
2, 2
3, 3
0, 4
2, 2
2, 1
1, 1
1, 4
3, 2
0, 0
2, 2
1, 5
2, 2
0, 2
3, 3
3, 2
3, 2
1, 2
2, 4
2, 7
0, 2
2, 3
3, 1
6, 2
0, 2
3, 2
4, 5
2, 3
1, 2
5, 3
2, 3
1, 1
0, 3
5, 2
3, 1
0, 1
2, 3
2, 3
3, 3
0, 6
3, 1
1, 1
0, 0
2, 1
6, 1
0, 0
1, 4
0, 0
2, 3
1, 0
4, 2
4, 0
2, 3
1, 2
0, 1
2, 2
2, 2
1, 2
3, 1
6, 1
3, 2
1, 3
2, 2
2, 1
0, 1
0, 2
1, 1
0, 2
1, 0
0, 3
1, 1
1, 2
1, 3
0, 1
0, 3
1, 1
0, 0
0, 2
0, 0
2, 2
1, 2
1, 0
3, 0
1, 2
0, 0
3, 2
1, 1
0, 0
2, 0
0, 3
1, 1
1, 2
0, 1
0, 1
2, 0
1, 2
3, 0
4, 3
4, 0
3, 2
0, 3
0, 0
1, 0
0, 1
1, 2
1, 3
2, 0
1, 1
0, 1
0, 1
2, 1
1, 1
0, 0
1, 1
0, 2
2, 2
0, 0
1, 0
0, 0
0, 1
1, 1
0, 2
2, 1
1, 1
0, 0
0, 2
1, 0
0, 0
1, 0
0, 1
2, 1
1, 0
0, 0
1, 0
1, 2
2, 0
1, 1
1, 0
1, 0
0, 1
0, 0
0, 1
2, 2
0, 1
1, 1
0, 0
0, 1
1, 0
1, 1
2, 0
0, 0
0, 0
1, 0
0, 0
2, 0
0, 0
2, 1
1, 0
0, 2
0, 0
0, 0
2, 1
0, 1
1, 0
0, 1
1, 1
0, 1
0, 2
2, 2
0, 1
0, 2
1, 0
0, 0
1, 0
1, 0
0, 0
0, 2
0, 1
0, 0
0, 0
1, 1
0, 1
0, 1
0, 0
0, 0
1, 1
0, 0
3, 1
0, 0
2, 0
0, 0
0, 0
3, 0
1, 0
1, 0
1, 0
0, 1
0, 1
0, 1
0, 2
1, 0
0, 0
0, 1
0, 0
0, 1
0, 0
0, 0
0, 0
0, 0
0, 0
0, 0
0, 0
0, 0
3, 0
0, 0
0, 0
2, 0
0, 0
0, 0
0, 0
1, 0
0, 3
0, 1
0, 0
1, 1
0, 0
1, 1
0, 0
0, 1
3, 0
0, 0
0, 0
1, 1
1, 1
1, 0
0, 0
0, 0
0, 0
0, 0
0, 1
0, 0
0, 1
0, 1
1, 1
1, 0
0, 0
0, 0
0, 1
0, 0
0, 0
0, 0
0, 0
0, 0
0, 0
0, 1
0, 0
0, 0
0, 1
2, 0
0, 0
0, 0
0, 0
2, 0
0, 0
0, 0
0, 0
0, 0
0, 0
0, 0
0, 0
0, 1
0, 0
0, 0
0, 0
0, 0
0, 0
0, 1
0, 0
1, 0
0, 1
2, 1
1, 0
0, 0
0, 2
0, 0
0, 1
0, 0
1, 0
0, 0
0, 0
0, 0
0, 0
0, 0
0, 0
1, 0
1, 0
0, 1
0, 0
0, 0
0, 0
0, 0
0, 0
0, 1
0, 0
0, 0
0, 0
0, 1
0, 0
1, 0
1, 0
1, 1
0, 0
0, 0
0, 0
0, 0
0, 0
0, 0
0, 0
0, 0
0, 0
1, 0
0, 0
0, 0
0, 2
0, 0
0, 0
0, 0
0, 1
0, 0
0, 0
0, 0
0, 0
1, 0
0, 0
0, 0
0, 0
0, 0
0, 0
0, 0
0, 1
1, 1
0, 0
0, 0
0, 1
0, 0
0, 0
0, 0
0, 0
0, 1
0, 0
0, 0
0, 0
1, 0
0, 0
0, 0
0, 0
0, 0
0, 0
0, 0
0, 0
0, 0
0, 0
0, 0
0, 1
0, 0
0, 0
0, 1
0, 0
0, 0
0, 0
0, 0
0, 0
0, 0
0, 0
0, 1
0, 0
0, 0
0, 0
0, 0
0, 0
0, 0
0, 0
0, 0
0, 0
0, 0
0, 0
0, 0
0, 0
0, 0
0, 0
0, 0
0, 0
0, 0
0, 0
0, 0
0, 0
0, 0
0, 0
0, 0
0, 0
0, 0
0, 0
0, 0
0, 0
0, 0
0, 0
0, 0
0, 0
0, 0
0, 0
0, 0
0, 0
0, 0
0, 0
0, 0
0, 0
0, 0
0, 0
0, 0
0, 0
0, 0
0, 0
0, 0
0, 0
0, 0
0, 0
0, 0
0, 0
0, 0
0, 1
0, 0
0, 0
0, 0
0, 0
0, 0
0, 0
0, 0
1, 1
0, 1
0, 0
0, 0
0, 0
0, 0
0, 1
0, 1
0, 0
0, 0
0, 0
0, 0
0, 0
0, 0
0, 1
0, 0
0, 0
0, 0
0, 0
0, 0
0, 0
0, 0
0, 0
0, 0
0, 0
0, 0
0, 0
0, 0
0, 0
0, 0
0, 0
0, 0
0, 0
0, 0
0, 0
0, 0
1, 0
0, 0
0, 0
0, 0
0, 1
0, 0
0, 0
0, 1
0, 0
0, 0
0, 0
0, 0
0, 0
0, 0
0, 0
0, 0
0, 0
0, 0
0, 0
0, 0
0, 0
0, 0
0, 0
0, 0
0, 0
0, 0
0, 0
0, 0
0, 0
0, 0
0, 0
0, 0
0, 0
0, 0
0, 0
0, 0
0, 0
0, 0
0, 0
0, 0
0, 0
0, 0
0, 0
0, 0
0, 0
0, 0
0, 0
0, 0
0, 0
0, 0
0, 0
0, 0
0, 0
0, 0
0, 0
0, 0
0, 0
0, 0
0, 0
0, 0
0, 0
0, 0
0, 0
0, 0
0, 0
0, 0
0, 0
0, 0
0, 0
0, 0
0, 0
0, 0
0, 0
0, 0
0, 0
0, 0
0, 0
0, 0
0, 0
0, 0
0, 0
0, 0
0, 0
0, 0
0, 0
0, 0
0, 0
0, 0
0, 0
0, 0
0, 0
0, 0
0, 0
0, 0
0, 0
0, 0
0, 0
0, 0
0, 0
0, 0
0, 0
0, 0
0, 0
0, 0
0, 0
0, 0
0, 0
0, 0
0, 0
0, 0
0, 0
0, 0
0, 0
0, 0
0, 0
0, 0
0, 0
0, 0
0, 0
0, 0
0, 0
0, 0
0, 0
0, 0
0, 0
0, 0
0, 0
0, 0
0, 0
0, 0
0, 0
0, 0
0, 0
0, 0
0, 0
0, 0
0, 0
0, 0
0, 0
0, 0
0, 0
0, 0
0, 0
0, 0
0, 0
0, 0
0, 0
0, 0
0, 0
0, 0
0, 0
0, 0
0, 0
0, 0
0, 0
0, 0
0, 0
0, 0
0, 0
0, 0
0, 0
0, 0
0, 0
0, 0
0, 0
0, 0
0, 0
0, 0
0, 0
0, 0
0, 0
0, 0
0, 0
0, 0
0, 0
0, 0
0, 0
0, 0
0, 0
0, 0
0, 0
0, 0
0, 0
0, 0
0, 0
0, 0
0, 0
0, 0
0, 0
0, 0
0, 0
0, 0
0, 0
0, 0
0, 0
0, 0
0, 0
0, 0
0, 0
0, 0
0, 0
0, 0
0, 0
0, 0
0, 0
0, 0
0, 0
0, 0
0, 0
0, 0
0, 0
0, 0
0, 0
0, 0
0, 0
0, 0
0, 0
0, 0
0, 0
0, 0
0, 0
0, 0
0, 0
0, 0
0, 0
0, 0
0, 0
0, 0
0, 0
0, 0
0, 0
0, 0
0, 0
0, 0
0, 0
0, 0
0, 0
0, 0
0, 0
0, 0
0, 0
0, 0
0, 0
0, 0
0, 0
0, 0
0, 0
0, 0
0, 0
0, 0
0, 0
0, 0
0, 0
0, 0
0, 0
0, 0
0, 0
0, 0
0, 0
0, 0
0, 0
0, 0
0, 0
0, 0
0, 0
0, 0
0, 0
0, 0
0, 0
0, 0
0, 0
0, 0
0, 0
0, 0
0, 0
0, 0
0, 0
0, 0
0, 0
0, 0
0, 0
0, 0
0, 0
0, 0
0, 0
0, 0
0, 0
0, 0
0, 0
0, 0
0, 0
0, 0
0, 0
0, 0
0, 0
0, 0
0, 0
0, 0
0, 0
0, 0
0, 0
0, 0
0, 0
0, 0
0, 0
0, 0
0, 0
0, 0
0, 0
0, 0
0, 0
0, 0
0, 0
0, 0
0, 0
0, 0
0, 0
0, 0
0, 0
0, 0
0, 0
0, 0
0, 0
0, 0
0, 0
0, 0
0, 0
0, 0
0, 0
0, 0
0, 0
0, 0
0, 0
0, 0
0, 0
0, 0
0, 0
0, 0
0, 0
0, 0
0, 0
0, 0
0, 0
0, 0
0, 0
0, 0
0, 0
0, 0
0, 0
0, 0
0, 0
0, 0
0, 0
0, 0
0, 0
0, 0
0, 0
0, 0
0, 0
0, 0
0, 0
0, 0
0, 0
0, 0
0, 0
0, 0
0, 0
0, 0
0, 0
0, 0
0, 0
0, 0
0, 0
0, 0
0, 0
0, 0
0, 0
0, 0
0, 0
#ENDOFDATA     end of spectrum data