File: host_upload/02-11-2024/rqc/uplink1/ps__0567_0717304816_000rfs_shot_215.msa
#FORMAT      : EMSA/MAS spectral data file
#VERSION     : TC202v2.0 PIXL
#TITLE       : Novarupta (sol567) subset1
#DATE        : 02-11-2024      Date in the format DD-MMM-YYYY, for example 07-JUL-2010
#TIME        :             The time of day at which the spectrum was recorded, in 24-hour format
#OWNER       : PIXL Flight Model       (PIXL will use this to indicate which instrument took the data.)
#NPOINTS     : 4096     Number of data points in the spectrum (This can be zero for configuration only files)
#NCOLUMNS    : 2     Number of data columns in the spectrum (This can be zero for configuration only files)
#XUNITS      : eV
#YUNITS      : COUNTS
#DATATYPE    : YY
#XPERCHAN    : 7.862, 7.881   eV per channel (separate by commas if more than one detector)
#OFFSET      : 18.5, -22.4         eV of first channel  (separate by commas if more than one detector
#SIGNALTYPE  : XRF
#YP_TEMP     : 0.632
#LIVETIME    : 8.8508, 8.82371   seconds (separate by commas if more than one detector)
#REALTIME    : 10, 10.0   seconds (separate by commas if more than one detector)
#SPECTRUM    : start of spectrum data
0, 0
0, 0
0, 0
0, 0
0, 0
0, 0
0, 0
0, 0
0, 0
0, 0
0, 0
0, 0
0, 0
0, 0
0, 0
0, 0
0, 0
0, 0
0, 0
0, 0
0, 0
0, 0
0, 0
0, 0
0, 0
0, 0
0, 0
0, 0
0, 0
1, 0
0, 0
0, 0
0, 0
0, 0
0, 2
0, 2
0, 0
1, 4
1, 4
5, 5
9, 7
4, 4
2, 4
3, 3
3, 5
4, 6
3, 6
2, 4
2, 5
3, 6
6, 3
7, 7
8, 18
8, 17
11, 19
17, 15
12, 18
10, 8
7, 9
14, 6
11, 10
23, 28
31, 34
35, 56
52, 59
56, 48
41, 30
32, 35
28, 43
55, 59
119, 118
188, 209
227, 315
330, 437
421, 487
450, 487
350, 412
305, 363
215, 225
132, 149
63, 72
35, 55
28, 28
23, 37
30, 32
27, 30
30, 37
29, 32
21, 36
15, 22
19, 17
17, 18
17, 19
36, 50
75, 76
121, 149
187, 208
195, 282
273, 313
255, 320
241, 291
188, 202
136, 127
94, 88
75, 62
33, 60
50, 53
57, 55
84, 120
121, 141
164, 190
169, 189
187, 229
155, 236
161, 191
153, 178
106, 135
88, 89
65, 84
68, 80
78, 78
66, 77
60, 64
58, 65
37, 52
37, 42
41, 30
20, 23
14, 17
10, 17
20, 11
10, 16
7, 13
8, 7
8, 7
13, 9
18, 9
5, 21
16, 21
6, 21
22, 32
19, 30
26, 32
18, 28
16, 18
16, 15
8, 13
6, 12
7, 11
14, 12
19, 40
41, 62
69, 94
125, 181
183, 259
272, 322
325, 418
320, 433
315, 439
266, 316
228, 236
139, 179
111, 91
57, 61
31, 20
34, 26
27, 31
26, 39
29, 51
36, 60
69, 48
52, 66
36, 70
43, 49
41, 42
19, 21
12, 19
19, 13
20, 6
6, 8
7, 7
6, 5
9, 9
11, 12
12, 14
14, 13
14, 15
25, 25
36, 28
29, 48
41, 76
51, 87
54, 59
55, 56
52, 56
31, 39
22, 37
30, 31
18, 16
16, 13
22, 14
14, 21
11, 23
8, 13
11, 11
11, 15
18, 8
12, 22
17, 16
21, 17
17, 22
14, 17
18, 20
12, 22
12, 25
14, 12
10, 13
11, 8
18, 10
7, 3
12, 3
8, 12
11, 12
14, 10
9, 15
17, 23
21, 18
16, 18
25, 31
28, 38
21, 40
26, 31
25, 24
20, 24
27, 12
12, 12
19, 14
7, 11
7, 23
11, 12
6, 11
15, 13
13, 7
9, 8
21, 18
22, 15
32, 21
33, 42
34, 40
37, 40
45, 56
45, 64
40, 43
47, 36
14, 42
20, 19
23, 19
12, 19
15, 19
22, 16
20, 19
22, 23
27, 45
71, 105
99, 176
179, 283
320, 495
567, 758
797, 1065
1085, 1334
1383, 1766
1488, 1849
1560, 1924
1497, 1712
1285, 1438
1084, 1067
759, 741
508, 535
342, 300
208, 165
101, 103
52, 63
40, 21
26, 18
19, 18
16, 12
18, 14
10, 15
16, 22
18, 34
18, 27
28, 32
47, 51
55, 60
76, 114
119, 123
147, 168
166, 234
232, 262
231, 266
250, 259
240, 241
190, 219
167, 152
114, 118
70, 64
45, 45
36, 27
23, 12
15, 11
9, 8
6, 7
3, 9
7, 11
7, 11
14, 12
8, 8
11, 13
7, 10
14, 11
12, 12
11, 4
3, 15
10, 6
11, 5
6, 10
8, 4
9, 3
3, 5
3, 8
8, 4
5, 4
4, 6
2, 6
6, 6
4, 2
5, 6
4, 7
8, 4
0, 5
3, 5
1, 11
5, 7
4, 8
8, 3
6, 5
8, 6
6, 9
4, 5
3, 6
5, 9
10, 9
5, 3
10, 6
5, 5
4, 3
9, 6
11, 10
8, 7
4, 9
8, 11
3, 5
4, 6
10, 9
7, 9
6, 10
11, 10
11, 8
11, 9
14, 14
9, 10
6, 8
5, 4
7, 0
7, 4
5, 6
4, 5
7, 4
7, 7
4, 1
5, 5
4, 5
4, 2
7, 14
5, 4
6, 4
0, 7
4, 6
6, 5
4, 3
8, 5
3, 6
3, 5
5, 4
3, 4
5, 1
2, 8
8, 4
2, 5
9, 3
2, 5
4, 7
2, 4
8, 5
4, 7
7, 4
6, 7
7, 8
6, 1
7, 5
5, 5
5, 2
3, 4
8, 2
1, 5
9, 3
1, 5
5, 1
4, 3
5, 3
7, 2
3, 9
1, 3
1, 6
4, 5
5, 7
2, 2
5, 7
4, 2
2, 5
4, 3
2, 6
7, 5
7, 6
2, 2
0, 3
5, 1
4, 6
2, 3
5, 4
3, 3
5, 2
3, 1
5, 2
6, 1
4, 1
3, 5
0, 5
3, 3
6, 3
5, 4
7, 0
2, 3
2, 1
1, 4
5, 5
2, 2
3, 5
1, 2
3, 4
4, 7
0, 0
0, 1
3, 1
4, 2
2, 6
5, 8
3, 4
1, 0
1, 5
5, 2
1, 3
8, 1
0, 7
3, 2
2, 6
2, 5
4, 2
0, 2
2, 6
2, 1
2, 0
7, 4
1, 4
2, 4
2, 3
3, 4
4, 3
0, 3
4, 2
0, 1
1, 3
1, 6
3, 1
2, 3
1, 2
1, 3
3, 4
3, 4
4, 1
1, 1
1, 5
3, 4
0, 1
1, 1
3, 1
2, 4
1, 2
4, 4
4, 6
1, 2
2, 1
1, 1
2, 1
3, 2
1, 4
3, 1
4, 4
1, 2
1, 2
1, 4
2, 2
1, 2
3, 2
0, 3
0, 2
0, 3
2, 1
2, 5
2, 1
0, 2
1, 4
4, 3
1, 4
3, 4
3, 3
3, 4
3, 1
4, 7
2, 3
0, 3
2, 4
1, 2
2, 1
2, 4
0, 3
3, 0
4, 4
2, 2
2, 2
3, 2
1, 3
2, 1
0, 0
1, 3
0, 2
2, 5
2, 2
0, 1
1, 0
1, 1
0, 1
2, 0
1, 3
1, 3
1, 4
0, 2
0, 1
2, 2
0, 1
0, 4
1, 1
1, 2
2, 2
4, 1
0, 1
0, 1
1, 0
0, 2
2, 3
0, 2
1, 0
3, 0
1, 2
1, 0
1, 0
1, 1
1, 1
1, 4
2, 2
1, 0
2, 1
2, 1
0, 2
0, 2
2, 0
1, 1
1, 2
2, 0
0, 1
1, 0
2, 2
0, 0
2, 3
0, 2
3, 0
0, 1
3, 1
2, 1
1, 0
0, 0
2, 1
0, 2
0, 1
2, 0
1, 1
2, 2
1, 0
1, 1
0, 1
0, 0
2, 0
0, 0
1, 2
0, 0
0, 0
0, 5
0, 1
0, 1
0, 2
0, 2
0, 2
0, 0
0, 2
0, 3
0, 0
0, 0
1, 1
1, 2
0, 1
2, 0
1, 0
0, 3
1, 0
1, 0
1, 2
2, 0
0, 1
0, 0
0, 0
0, 0
0, 0
1, 0
1, 0
1, 0
1, 1
0, 1
0, 1
0, 1
1, 1
0, 3
0, 0
0, 0
0, 1
0, 1
2, 1
1, 0
1, 1
1, 0
0, 2
2, 0
0, 0
0, 5
0, 0
0, 1
0, 0
1, 1
0, 0
0, 0
1, 0
0, 2
0, 0
0, 0
0, 1
0, 0
0, 1
1, 1
1, 1
0, 1
1, 0
0, 0
1, 0
1, 1
0, 0
2, 0
1, 0
1, 0
2, 0
0, 0
0, 0
0, 0
0, 0
1, 0
0, 0
0, 0
1, 0
1, 2
0, 1
0, 1
0, 0
0, 1
1, 0
0, 0
0, 1
0, 0
0, 1
0, 0
0, 0
0, 0
0, 0
0, 1
0, 0
0, 1
1, 0
0, 0
0, 0
0, 0
0, 1
0, 0
0, 0
0, 0
0, 0
1, 0
0, 0
0, 2
0, 0
0, 0
0, 1
0, 0
0, 1
0, 0
0, 0
0, 1
1, 0
0, 0
0, 0
0, 1
1, 0
0, 1
0, 0
0, 0
0, 1
0, 1
0, 0
0, 0
0, 0
0, 0
0, 0
0, 0
0, 0
0, 1
0, 0
0, 0
0, 0
0, 0
0, 1
0, 0
1, 0
0, 1
0, 1
0, 0
0, 0
0, 0
0, 0
0, 2
1, 0
0, 1
0, 0
0, 1
0, 0
1, 0
1, 0
1, 1
0, 2
0, 1
0, 0
1, 0
0, 0
0, 0
0, 0
0, 0
0, 0
0, 1
2, 1
0, 1
0, 0
0, 0
0, 0
0, 0
0, 0
1, 0
0, 2
0, 1
0, 0
0, 0
1, 0
0, 0
0, 0
0, 0
0, 0
0, 0
0, 1
0, 0
0, 0
0, 2
0, 1
0, 0
1, 0
0, 0
0, 0
0, 0
0, 0
0, 0
0, 0
0, 0
0, 0
0, 0
0, 0
0, 0
0, 1
1, 0
0, 0
0, 0
0, 0
0, 0
0, 0
1, 0
0, 0
0, 0
2, 0
0, 0
0, 0
0, 0
0, 0
0, 0
0, 0
0, 0
0, 0
0, 0
0, 0
0, 0
0, 0
1, 0
0, 0
0, 0
1, 0
0, 1
0, 0
0, 2
0, 0
0, 0
0, 0
0, 0
0, 0
0, 0
0, 0
0, 0
1, 0
0, 0
0, 0
0, 0
0, 0
0, 0
0, 0
0, 0
0, 0
0, 0
0, 0
0, 0
0, 0
0, 0
0, 0
0, 1
0, 0
0, 0
0, 0
0, 0
0, 0
0, 0
0, 0
0, 0
0, 0
0, 0
0, 0
0, 0
0, 0
0, 0
0, 0
0, 0
0, 0
0, 0
0, 0
0, 0
1, 0
0, 0
0, 0
0, 0
0, 0
0, 0
0, 0
0, 0
0, 0
0, 0
0, 0
0, 0
0, 0
0, 0
0, 0
0, 0
0, 0
0, 0
0, 0
1, 0
0, 0
0, 0
0, 1
0, 0
0, 0
0, 0
0, 0
1, 0
0, 0
0, 0
0, 0
0, 0
0, 0
0, 0
0, 0
0, 0
0, 0
0, 0
0, 0
0, 0
0, 1
0, 0
0, 0
0, 0
0, 0
0, 0
0, 0
0, 0
0, 0
0, 0
0, 0
0, 0
0, 0
0, 0
0, 0
0, 0
0, 0
0, 0
0, 0
0, 0
0, 0
0, 0
0, 0
0, 1
0, 0
0, 0
0, 0
0, 0
0, 0
0, 0
0, 0
0, 0
0, 0
0, 0
0, 0
0, 0
0, 0
0, 0
0, 0
0, 0
0, 1
0, 0
0, 0
0, 0
0, 0
0, 0
0, 0
0, 0
0, 0
0, 0
0, 0
0, 0
0, 0
0, 0
0, 0
0, 0
0, 0
0, 0
0, 0
0, 0
0, 0
0, 0
0, 0
0, 0
0, 0
0, 0
0, 0
0, 0
0, 0
0, 0
0, 0
0, 0
0, 0
0, 0
0, 0
0, 0
0, 0
0, 0
0, 0
0, 0
0, 0
0, 0
0, 0
0, 0
0, 0
0, 0
0, 0
0, 0
0, 0
0, 0
1, 0
0, 0
0, 0
0, 0
0, 0
0, 0
0, 0
0, 0
0, 0
0, 0
0, 0
0, 0
0, 0
0, 0
0, 0
0, 0
0, 0
0, 0
0, 0
0, 0
0, 0
0, 0
0, 0
0, 0
0, 0
0, 0
0, 0
0, 0
0, 0
0, 0
0, 0
0, 0
0, 0
0, 0
0, 0
0, 0
0, 0
0, 0
0, 0
0, 0
0, 0
0, 0
0, 0
0, 0
0, 0
0, 0
0, 0
0, 0
0, 0
0, 0
0, 0
0, 0
0, 0
0, 0
0, 0
0, 0
0, 0
0, 0
0, 0
0, 0
0, 0
0, 0
0, 0
0, 0
0, 0
0, 0
0, 0
0, 0
0, 0
0, 0
0, 0
0, 0
0, 0
0, 0
0, 0
0, 0
0, 0
0, 0
0, 0
0, 0
0, 0
0, 0
0, 0
0, 0
0, 0
0, 0
0, 0
0, 0
0, 0
0, 0
0, 0
0, 0
0, 0
0, 0
0, 0
0, 0
0, 0
0, 0
0, 0
0, 0
0, 0
0, 0
0, 0
0, 0
0, 0
0, 0
0, 0
0, 0
0, 0
0, 0
0, 0
0, 0
0, 0
0, 0
0, 0
0, 0
0, 0
0, 0
0, 0
0, 0
0, 0
0, 0
0, 0
0, 0
0, 0
0, 0
0, 0
0, 0
0, 0
0, 0
0, 0
0, 0
0, 0
0, 0
0, 0
0, 0
0, 0
0, 0
0, 0
0, 0
0, 0
0, 0
0, 0
0, 0
0, 0
0, 0
0, 0
0, 0
0, 0
0, 0
0, 0
0, 0
0, 0
0, 0
0, 0
0, 0
0, 0
0, 0
0, 0
0, 0
0, 0
0, 0
0, 0
0, 0
0, 0
0, 0
0, 0
0, 0
0, 0
0, 0
0, 0
0, 0
0, 0
0, 0
0, 0
0, 0
0, 0
0, 0
0, 0
0, 0
0, 0
0, 0
0, 0
0, 0
0, 0
0, 0
0, 0
0, 0
0, 0
0, 0
0, 0
0, 0
0, 0
0, 0
0, 0
0, 0
0, 0
0, 0
0, 0
0, 0
0, 0
0, 0
0, 0
0, 0
0, 0
0, 0
0, 0
0, 0
0, 0
0, 0
0, 0
0, 0
0, 0
0, 0
0, 0
0, 0
0, 0
0, 0
0, 0
0, 0
0, 0
0, 0
0, 0
0, 0
0, 0
0, 0
0, 0
0, 0
0, 0
0, 0
0, 0
0, 0
0, 0
0, 0
0, 0
0, 0
0, 0
0, 0
0, 0
0, 0
0, 0
0, 0
0, 0
0, 0
0, 0
0, 0
0, 0
0, 0
0, 0
0, 0
0, 0
0, 0
0, 0
0, 0
0, 0
0, 0
0, 0
0, 0
0, 0
0, 0
0, 0
0, 0
0, 0
0, 0
0, 0
0, 0
0, 0
0, 0
0, 0
0, 0
0, 0
0, 0
0, 0
0, 0
0, 0
0, 0
0, 0
0, 0
0, 0
0, 0
0, 0
0, 0
0, 0
0, 0
0, 0
0, 0
0, 0
0, 0
0, 0
0, 0
0, 0
0, 0
0, 0
0, 0
0, 0
0, 0
0, 0
0, 0
0, 0
0, 0
0, 0
0, 0
0, 0
0, 0
0, 0
0, 0
0, 0
0, 0
0, 0
0, 0
0, 0
0, 0
0, 0
0, 0
0, 0
0, 0
0, 0
0, 0
0, 0
0, 0
0, 0
0, 0
0, 0
0, 0
0, 0
0, 0
0, 0
0, 0
0, 0
0, 0
0, 0
0, 0
0, 0
#ENDOFDATA     end of spectrum data