File: host_upload/02-11-2024/rqc/uplink1/ps__0567_0717304816_000rfs_shot_271.msa
#FORMAT      : EMSA/MAS spectral data file
#VERSION     : TC202v2.0 PIXL
#TITLE       : Novarupta (sol567) subset1
#DATE        : 02-11-2024      Date in the format DD-MMM-YYYY, for example 07-JUL-2010
#TIME        :             The time of day at which the spectrum was recorded, in 24-hour format
#OWNER       : PIXL Flight Model       (PIXL will use this to indicate which instrument took the data.)
#NPOINTS     : 4096     Number of data points in the spectrum (This can be zero for configuration only files)
#NCOLUMNS    : 2     Number of data columns in the spectrum (This can be zero for configuration only files)
#XUNITS      : eV
#YUNITS      : COUNTS
#DATATYPE    : YY
#XPERCHAN    : 7.862, 7.881   eV per channel (separate by commas if more than one detector)
#OFFSET      : 18.5, -22.4         eV of first channel  (separate by commas if more than one detector
#SIGNALTYPE  : XRF
#YP_TEMP     : 1.498
#LIVETIME    : 8.81799, 8.81152   seconds (separate by commas if more than one detector)
#REALTIME    : 10, 10.0   seconds (separate by commas if more than one detector)
#SPECTRUM    : start of spectrum data
0, 0
0, 0
0, 0
0, 0
0, 0
0, 0
0, 0
0, 0
0, 0
0, 0
0, 0
0, 0
0, 0
0, 0
0, 0
0, 0
0, 0
0, 0
0, 0
0, 0
0, 0
0, 0
0, 0
0, 0
0, 0
0, 0
0, 0
0, 0
0, 1
0, 0
0, 0
0, 0
0, 0
0, 1
1, 2
1, 2
1, 0
1, 6
4, 4
2, 8
4, 6
6, 6
3, 1
5, 5
6, 2
2, 2
5, 7
4, 3
5, 6
2, 0
7, 9
10, 9
16, 13
19, 9
15, 15
10, 17
8, 13
10, 12
12, 10
8, 12
13, 14
29, 33
28, 43
44, 63
42, 51
43, 63
43, 42
30, 29
43, 51
50, 71
131, 131
158, 205
319, 384
400, 453
507, 535
459, 559
426, 465
335, 347
213, 253
136, 143
77, 101
63, 42
35, 33
32, 28
28, 36
27, 38
40, 41
21, 39
26, 33
17, 23
14, 22
26, 27
28, 22
51, 49
83, 96
141, 178
231, 270
311, 314
291, 343
312, 354
294, 316
233, 247
155, 172
133, 102
65, 67
58, 53
46, 52
74, 69
81, 103
134, 137
177, 203
197, 219
188, 263
199, 231
209, 234
151, 163
152, 128
111, 104
87, 77
76, 79
65, 72
81, 85
62, 68
57, 56
47, 47
32, 33
27, 33
26, 28
16, 17
20, 12
10, 14
8, 15
7, 9
8, 10
7, 8
11, 13
11, 17
11, 13
22, 21
28, 29
30, 29
27, 20
30, 37
27, 30
24, 27
14, 13
12, 18
9, 5
10, 12
23, 21
35, 30
36, 61
99, 109
143, 181
209, 233
283, 380
336, 352
374, 431
351, 369
328, 349
247, 257
171, 169
96, 122
68, 67
34, 32
32, 36
23, 23
27, 23
44, 45
60, 58
68, 70
69, 54
57, 70
38, 45
38, 31
39, 35
20, 23
12, 22
11, 16
6, 10
4, 15
7, 9
5, 14
12, 12
11, 11
15, 12
18, 15
24, 30
40, 34
37, 41
45, 68
55, 59
73, 69
65, 71
48, 62
44, 48
40, 40
29, 26
26, 25
17, 17
17, 14
14, 18
19, 12
11, 14
10, 13
14, 11
16, 18
13, 12
23, 17
19, 25
19, 13
19, 30
20, 19
18, 18
13, 19
8, 15
20, 13
12, 7
15, 10
7, 15
11, 12
13, 8
7, 20
6, 10
11, 17
18, 12
18, 18
30, 23
22, 32
31, 40
36, 32
33, 43
32, 36
21, 25
22, 15
17, 23
9, 17
14, 14
17, 14
20, 19
15, 10
10, 15
19, 9
15, 18
20, 22
20, 17
25, 29
34, 38
29, 46
34, 46
61, 51
50, 55
46, 49
33, 43
29, 38
29, 32
24, 25
28, 20
22, 11
19, 21
11, 31
27, 33
41, 49
56, 91
131, 162
200, 257
350, 504
536, 715
831, 1039
1097, 1455
1392, 1721
1594, 1934
1708, 1882
1659, 1701
1398, 1486
1083, 1117
847, 855
522, 521
364, 330
242, 199
108, 109
60, 57
35, 36
20, 25
29, 18
11, 17
17, 21
17, 23
13, 19
15, 27
18, 28
32, 20
32, 46
64, 68
90, 124
103, 132
125, 202
190, 210
232, 291
241, 298
239, 292
215, 268
214, 243
152, 132
151, 122
73, 86
47, 49
37, 30
22, 14
24, 14
8, 13
12, 10
10, 8
6, 7
13, 10
13, 11
10, 14
12, 18
15, 10
11, 16
9, 14
5, 12
10, 5
7, 13
6, 10
4, 3
2, 5
5, 3
8, 4
4, 9
6, 8
4, 2
6, 8
9, 6
6, 4
5, 8
5, 6
11, 10
7, 5
5, 7
4, 5
7, 7
3, 5
10, 9
5, 6
3, 7
6, 8
7, 9
4, 8
8, 8
13, 7
6, 12
9, 5
4, 4
8, 6
4, 10
9, 6
3, 8
4, 6
6, 4
5, 8
6, 6
10, 8
8, 8
11, 10
13, 8
8, 17
13, 13
10, 12
9, 13
11, 5
13, 6
5, 15
7, 7
5, 8
6, 4
4, 5
3, 7
7, 6
4, 6
8, 9
5, 5
7, 5
6, 8
4, 8
5, 7
2, 8
4, 2
5, 4
6, 7
4, 6
8, 2
5, 3
5, 8
9, 4
5, 7
11, 7
5, 9
5, 7
4, 6
3, 4
6, 4
9, 6
0, 4
4, 9
9, 7
2, 3
6, 6
7, 3
3, 3
4, 9
5, 3
4, 9
8, 6
5, 5
3, 4
2, 3
4, 5
6, 2
6, 5
5, 1
4, 3
4, 6
4, 6
7, 3
6, 4
2, 4
4, 7
2, 2
5, 4
2, 7
3, 4
4, 5
6, 2
5, 3
4, 2
4, 3
4, 2
6, 5
5, 5
1, 5
6, 2
1, 7
4, 6
1, 5
4, 7
4, 3
1, 9
3, 3
1, 3
4, 1
1, 5
5, 1
3, 5
1, 7
0, 2
1, 0
0, 2
3, 4
4, 7
3, 4
6, 7
4, 2
5, 6
1, 6
3, 3
5, 1
1, 3
5, 3
4, 7
3, 1
3, 2
3, 0
3, 5
5, 7
2, 7
1, 0
4, 0
1, 5
5, 5
2, 2
2, 2
2, 2
3, 3
4, 3
5, 3
2, 1
2, 5
1, 2
2, 2
3, 5
2, 6
3, 4
2, 4
3, 3
1, 5
0, 1
1, 4
7, 4
2, 3
2, 5
4, 1
3, 5
3, 2
7, 1
3, 0
1, 3
1, 4
7, 1
1, 6
3, 5
0, 4
1, 7
3, 1
1, 4
1, 2
1, 1
0, 1
4, 2
6, 3
5, 3
2, 3
1, 1
1, 3
5, 3
1, 4
2, 0
1, 2
1, 4
0, 2
1, 2
3, 5
1, 0
3, 3
2, 2
2, 0
1, 6
3, 0
3, 0
2, 2
3, 4
0, 6
3, 4
3, 1
1, 3
3, 2
0, 1
3, 4
1, 4
4, 2
0, 1
0, 2
2, 1
1, 3
1, 4
1, 2
3, 2
0, 1
1, 4
1, 2
0, 1
1, 1
3, 2
2, 0
1, 0
2, 0
2, 4
1, 1
1, 4
3, 1
0, 1
1, 5
2, 3
0, 2
0, 0
2, 0
3, 0
3, 2
1, 2
0, 0
2, 1
1, 1
0, 1
0, 3
0, 2
1, 2
2, 0
0, 4
3, 1
1, 0
2, 5
0, 1
1, 2
1, 0
2, 1
1, 1
0, 0
1, 2
0, 0
0, 2
2, 0
0, 1
1, 3
2, 2
1, 3
1, 4
0, 1
1, 0
2, 1
1, 2
2, 1
1, 0
1, 0
2, 2
1, 1
0, 0
2, 0
1, 1
3, 0
2, 3
0, 2
2, 2
0, 0
1, 2
0, 2
0, 0
0, 0
3, 0
0, 0
1, 0
1, 1
1, 0
1, 1
2, 1
0, 1
0, 2
1, 1
1, 0
2, 0
1, 1
1, 0
1, 0
0, 2
1, 2
2, 0
1, 3
0, 0
0, 2
0, 0
0, 0
0, 3
0, 1
0, 0
0, 1
2, 0
0, 1
1, 2
3, 0
0, 2
0, 0
0, 0
1, 1
0, 1
0, 0
1, 1
1, 1
0, 0
0, 0
1, 0
0, 0
1, 0
0, 0
0, 0
1, 0
0, 0
0, 0
0, 0
1, 0
1, 1
1, 0
1, 0
0, 0
1, 1
0, 0
3, 0
0, 1
1, 0
0, 1
0, 1
2, 0
2, 1
1, 0
2, 1
0, 0
0, 1
0, 2
0, 0
0, 0
0, 0
0, 0
0, 1
0, 0
0, 1
0, 1
0, 1
0, 0
0, 0
1, 0
0, 0
1, 0
0, 0
1, 0
0, 0
0, 0
2, 0
0, 0
0, 0
0, 0
2, 0
0, 0
1, 1
1, 0
0, 0
0, 0
1, 1
0, 1
0, 0
0, 0
0, 0
1, 1
0, 0
1, 1
1, 0
2, 1
0, 0
1, 0
0, 0
0, 0
0, 1
1, 0
0, 0
1, 1
0, 0
0, 0
0, 0
0, 0
1, 0
1, 1
2, 0
0, 0
0, 0
1, 0
1, 0
0, 0
0, 1
1, 0
0, 0
0, 0
1, 0
0, 0
0, 0
0, 0
0, 0
0, 0
0, 0
0, 0
1, 1
0, 0
0, 0
0, 0
0, 1
0, 2
1, 0
0, 0
1, 0
0, 0
0, 0
0, 0
1, 0
0, 0
0, 1
0, 1
0, 1
1, 1
0, 1
0, 0
0, 0
0, 1
0, 0
0, 0
0, 1
0, 1
0, 1
0, 0
0, 0
0, 0
1, 0
1, 0
0, 0
0, 0
1, 0
0, 1
0, 0
0, 0
1, 0
0, 0
0, 0
1, 0
1, 1
0, 0
0, 0
0, 0
0, 0
1, 0
0, 0
1, 0
0, 0
0, 0
0, 0
0, 0
0, 0
0, 0
0, 1
0, 0
0, 0
0, 0
0, 0
0, 0
0, 0
0, 0
1, 0
0, 0
0, 0
0, 0
0, 0
0, 0
0, 0
1, 0
0, 0
0, 0
0, 0
0, 0
0, 0
0, 1
1, 0
1, 0
1, 0
0, 0
0, 0
0, 0
0, 0
0, 1
1, 0
0, 0
0, 0
0, 0
0, 1
0, 0
0, 0
0, 0
0, 0
0, 1
0, 0
0, 0
0, 0
0, 0
0, 0
0, 0
0, 0
0, 0
0, 0
0, 0
0, 0
1, 0
0, 0
0, 0
0, 0
0, 0
0, 0
0, 1
0, 0
0, 1
0, 0
0, 0
0, 0
0, 0
0, 0
1, 0
0, 0
0, 0
0, 0
0, 0
0, 0
0, 0
0, 0
0, 0
0, 0
0, 0
0, 0
0, 1
0, 0
0, 0
0, 0
0, 0
0, 0
0, 0
0, 0
0, 0
0, 0
0, 0
0, 0
0, 1
0, 0
0, 0
0, 0
0, 0
0, 0
0, 0
0, 0
0, 0
0, 0
0, 0
0, 0
0, 0
0, 0
0, 0
0, 0
0, 0
0, 0
0, 0
0, 0
0, 0
0, 0
0, 0
0, 0
0, 0
0, 0
0, 0
0, 0
0, 0
0, 0
0, 0
0, 0
0, 0
0, 0
0, 0
0, 0
0, 0
0, 0
0, 0
0, 0
0, 0
0, 0
0, 0
0, 0
0, 0
0, 0
0, 0
0, 0
0, 0
0, 0
0, 0
0, 0
0, 0
0, 0
0, 0
0, 0
0, 0
0, 0
0, 0
0, 0
0, 0
0, 0
0, 0
0, 0
0, 0
0, 0
0, 1
0, 0
0, 0
0, 0
0, 0
0, 0
0, 0
0, 0
0, 0
0, 0
0, 0
0, 0
0, 0
0, 0
0, 0
0, 0
0, 0
0, 0
0, 0
0, 0
0, 0
0, 0
0, 0
0, 0
0, 0
0, 0
0, 0
0, 0
0, 0
0, 0
0, 0
0, 0
0, 0
0, 0
0, 0
0, 0
0, 0
0, 0
0, 0
0, 0
0, 0
0, 0
0, 0
0, 1
0, 0
0, 0
0, 0
0, 0
0, 0
0, 0
0, 0
0, 0
0, 0
0, 0
0, 0
0, 0
0, 0
0, 0
0, 0
0, 0
0, 0
0, 0
0, 0
0, 0
0, 0
0, 0
0, 0
0, 0
0, 0
0, 0
0, 0
0, 0
0, 0
0, 0
0, 0
0, 0
0, 0
0, 0
0, 0
0, 0
0, 0
0, 0
0, 0
0, 0
0, 0
0, 0
0, 0
0, 0
0, 0
0, 0
0, 0
0, 0
0, 0
0, 0
0, 0
0, 0
0, 0
0, 0
0, 0
0, 0
0, 1
0, 0
0, 0
0, 0
0, 0
0, 0
0, 0
0, 0
0, 0
0, 0
0, 0
0, 0
0, 0
0, 0
0, 0
0, 0
0, 0
0, 0
0, 0
0, 0
0, 0
0, 0
0, 0
0, 0
0, 0
0, 0
0, 0
0, 0
0, 0
0, 0
0, 0
0, 0
0, 0
0, 0
0, 0
0, 0
0, 0
0, 0
0, 0
0, 0
0, 0
0, 0
0, 0
0, 0
0, 0
0, 0
0, 0
0, 0
0, 0
0, 0
0, 0
0, 0
0, 0
0, 0
0, 0
0, 0
0, 0
0, 0
0, 0
0, 0
0, 0
0, 0
0, 0
0, 0
0, 0
0, 0
0, 0
0, 0
0, 0
0, 0
0, 0
0, 0
0, 0
0, 0
0, 0
0, 0
0, 0
0, 0
0, 0
0, 0
0, 0
0, 0
0, 0
0, 0
0, 0
0, 0
0, 0
0, 0
0, 0
0, 0
0, 0
0, 0
0, 0
0, 0
0, 0
0, 0
0, 0
0, 0
0, 0
0, 0
0, 0
0, 0
0, 0
0, 0
0, 0
0, 0
0, 0
0, 0
0, 0
0, 0
0, 0
0, 0
0, 0
0, 0
0, 0
0, 0
0, 0
0, 0
0, 0
0, 0
0, 0
0, 0
0, 0
0, 0
0, 0
0, 0
0, 0
0, 0
0, 0
0, 0
0, 0
0, 0
0, 0
0, 0
0, 0
0, 0
0, 0
0, 0
0, 0
0, 0
0, 0
0, 0
0, 0
0, 0
0, 0
0, 0
0, 0
0, 0
0, 0
0, 0
0, 0
0, 0
0, 0
0, 0
0, 0
0, 0
0, 0
0, 0
0, 0
0, 0
0, 0
0, 0
0, 0
0, 0
0, 0
0, 0
0, 0
0, 0
0, 0
0, 0
0, 0
0, 0
0, 0
0, 0
0, 0
0, 0
0, 0
0, 0
0, 0
0, 0
0, 0
0, 0
0, 0
0, 0
0, 0
0, 0
0, 0
0, 0
0, 0
0, 0
0, 0
0, 0
0, 0
0, 0
0, 0
0, 0
0, 0
0, 0
0, 0
0, 0
0, 0
0, 0
0, 0
0, 0
0, 0
0, 0
0, 0
0, 0
0, 0
0, 0
0, 0
0, 0
0, 0
0, 0
0, 0
0, 0
0, 0
0, 0
0, 0
0, 0
0, 0
0, 0
0, 0
0, 0
0, 0
0, 0
0, 0
0, 0
0, 0
0, 0
0, 0
0, 0
0, 0
0, 0
0, 0
0, 0
0, 0
0, 0
0, 0
0, 0
0, 0
0, 0
0, 0
0, 0
0, 0
0, 0
0, 0
0, 0
0, 0
0, 0
0, 0
0, 0
0, 0
0, 0
0, 0
0, 0
0, 0
0, 0
0, 0
0, 0
0, 0
0, 0
0, 0
0, 0
0, 0
0, 0
0, 0
0, 0
0, 0
0, 0
0, 0
0, 0
0, 0
0, 0
0, 0
0, 0
0, 0
0, 0
0, 0
0, 0
0, 0
0, 0
0, 0
0, 0
0, 0
0, 0
0, 0
0, 0
0, 0
#ENDOFDATA     end of spectrum data