File: host_upload/02-11-2024/rqc/uplink1/ps__0567_0717304816_000rfs_shot_184.msa
#FORMAT      : EMSA/MAS spectral data file
#VERSION     : TC202v2.0 PIXL
#TITLE       : Novarupta (sol567) subset1
#DATE        : 02-11-2024      Date in the format DD-MMM-YYYY, for example 07-JUL-2010
#TIME        :             The time of day at which the spectrum was recorded, in 24-hour format
#OWNER       : PIXL Flight Model       (PIXL will use this to indicate which instrument took the data.)
#NPOINTS     : 4096     Number of data points in the spectrum (This can be zero for configuration only files)
#NCOLUMNS    : 2     Number of data columns in the spectrum (This can be zero for configuration only files)
#XUNITS      : eV
#YUNITS      : COUNTS
#DATATYPE    : YY
#XPERCHAN    : 7.862, 7.881   eV per channel (separate by commas if more than one detector)
#OFFSET      : 18.5, -22.4         eV of first channel  (separate by commas if more than one detector
#SIGNALTYPE  : XRF
#YP_TEMP     : 0.504
#LIVETIME    : 8.84049, 8.82557   seconds (separate by commas if more than one detector)
#REALTIME    : 10, 10.0   seconds (separate by commas if more than one detector)
#SPECTRUM    : start of spectrum data
0, 0
0, 0
0, 0
0, 0
0, 0
0, 0
0, 0
0, 0
0, 0
0, 0
0, 0
0, 0
0, 0
0, 0
0, 0
0, 0
0, 0
0, 0
0, 0
0, 0
0, 0
0, 0
0, 0
0, 0
0, 0
0, 0
0, 0
0, 0
0, 0
0, 0
0, 0
0, 0
0, 1
0, 1
0, 1
1, 2
3, 0
1, 6
1, 5
4, 2
7, 4
4, 5
2, 3
2, 5
2, 2
3, 3
3, 1
2, 13
1, 3
6, 5
8, 8
8, 5
12, 11
27, 9
18, 12
14, 24
8, 10
15, 12
9, 9
13, 11
20, 20
31, 21
46, 31
46, 46
52, 52
49, 57
36, 41
39, 41
44, 43
58, 55
101, 141
175, 226
287, 339
403, 453
476, 538
520, 507
366, 423
323, 366
233, 262
130, 136
72, 81
55, 52
29, 29
34, 29
31, 35
37, 28
37, 39
30, 33
31, 27
12, 19
18, 23
14, 19
25, 32
51, 52
89, 105
139, 153
216, 245
267, 319
317, 361
315, 352
290, 329
215, 227
168, 153
111, 108
66, 68
60, 59
54, 57
67, 75
96, 96
112, 160
166, 183
205, 221
267, 258
209, 243
219, 235
168, 185
132, 128
105, 109
87, 102
88, 101
93, 76
73, 66
55, 64
60, 53
39, 42
31, 37
26, 28
31, 20
9, 18
8, 15
14, 9
14, 9
10, 13
6, 6
3, 7
9, 8
15, 19
13, 16
12, 31
32, 23
16, 31
20, 37
28, 35
31, 23
20, 22
17, 17
15, 10
13, 10
10, 11
16, 23
30, 22
55, 69
78, 120
140, 166
216, 254
257, 350
357, 419
331, 412
326, 381
278, 340
206, 244
172, 197
104, 92
65, 54
53, 32
18, 31
30, 31
33, 44
33, 33
52, 80
47, 54
64, 56
48, 56
34, 41
24, 25
23, 35
21, 26
12, 11
10, 16
12, 5
7, 5
12, 5
7, 9
8, 11
6, 5
12, 14
17, 20
19, 18
29, 42
39, 40
47, 67
52, 76
57, 65
73, 65
48, 52
44, 42
33, 39
24, 36
18, 18
14, 9
9, 12
16, 12
16, 18
8, 11
10, 11
17, 11
15, 21
18, 22
16, 19
13, 21
22, 20
17, 16
14, 16
11, 17
7, 14
9, 8
13, 17
12, 14
16, 11
17, 11
8, 11
12, 14
8, 8
11, 13
15, 24
13, 20
19, 23
29, 20
34, 19
27, 27
33, 36
25, 28
31, 22
19, 21
20, 22
17, 16
19, 15
13, 12
15, 12
12, 17
10, 10
14, 10
9, 12
13, 14
10, 24
29, 23
23, 30
30, 36
41, 66
39, 45
49, 55
40, 46
59, 55
42, 38
28, 33
26, 28
17, 20
27, 12
23, 32
17, 21
22, 27
23, 25
43, 42
86, 88
116, 162
235, 321
358, 442
559, 711
871, 1046
1158, 1368
1425, 1593
1593, 1906
1620, 1828
1507, 1676
1381, 1477
1117, 1075
825, 716
577, 481
357, 340
197, 175
122, 98
68, 59
25, 38
18, 21
18, 18
23, 19
16, 10
12, 13
14, 10
16, 28
22, 22
29, 32
44, 48
79, 63
75, 117
113, 141
166, 189
174, 228
236, 263
236, 278
274, 262
233, 235
210, 229
151, 166
122, 132
92, 95
50, 42
29, 26
18, 10
15, 19
15, 12
11, 10
8, 8
9, 11
8, 5
16, 16
11, 9
9, 11
10, 12
17, 17
6, 7
12, 8
6, 8
5, 8
3, 8
7, 9
8, 8
4, 6
10, 6
5, 4
4, 5
6, 3
6, 6
9, 9
8, 3
10, 7
6, 4
6, 13
12, 6
4, 6
8, 9
8, 5
7, 7
9, 4
7, 5
8, 4
7, 17
6, 10
7, 7
4, 10
8, 9
3, 3
9, 5
9, 8
6, 9
14, 4
6, 1
7, 2
7, 8
6, 6
13, 9
4, 7
7, 9
8, 13
7, 15
12, 13
9, 19
15, 15
6, 11
11, 13
11, 8
4, 8
7, 4
10, 8
9, 5
5, 5
8, 0
6, 6
5, 10
3, 7
6, 7
3, 8
7, 5
3, 5
3, 9
7, 8
3, 8
5, 7
10, 6
6, 7
2, 6
5, 5
3, 6
5, 4
5, 8
6, 3
5, 5
5, 4
2, 1
6, 3
9, 5
4, 6
6, 9
4, 7
8, 5
2, 11
7, 2
4, 7
10, 8
1, 6
6, 4
4, 2
5, 5
1, 9
5, 7
3, 3
6, 5
6, 9
4, 5
7, 5
8, 4
3, 7
0, 4
5, 5
8, 4
3, 5
6, 5
6, 6
9, 7
7, 8
3, 5
5, 6
2, 2
3, 3
3, 3
6, 1
5, 6
7, 2
3, 6
4, 5
3, 2
4, 5
3, 4
3, 2
4, 1
5, 5
1, 0
3, 1
3, 1
5, 7
2, 1
2, 4
2, 1
2, 2
4, 1
6, 7
3, 5
1, 3
4, 2
2, 4
4, 4
1, 0
2, 4
1, 2
2, 3
2, 4
4, 6
1, 5
4, 2
5, 2
1, 3
3, 4
0, 2
0, 0
5, 1
2, 0
1, 1
1, 3
1, 2
2, 5
4, 3
3, 4
2, 3
3, 3
2, 0
1, 2
2, 4
4, 5
1, 4
6, 2
6, 5
1, 3
4, 2
4, 0
2, 3
1, 2
1, 5
4, 2
3, 2
1, 4
3, 0
2, 2
2, 0
2, 0
2, 4
3, 7
0, 2
3, 4
1, 5
0, 1
1, 4
5, 3
3, 4
3, 1
2, 0
2, 5
3, 1
2, 1
0, 2
1, 2
1, 0
1, 1
2, 0
1, 1
1, 3
1, 2
1, 2
1, 0
1, 2
3, 1
3, 3
0, 2
1, 3
0, 2
1, 1
3, 0
3, 2
2, 3
0, 1
3, 4
2, 2
4, 4
3, 4
1, 3
4, 3
6, 3
0, 5
1, 4
2, 1
1, 0
0, 2
3, 2
1, 2
2, 1
2, 2
2, 2
1, 0
0, 2
0, 3
3, 2
2, 5
1, 2
2, 2
2, 0
6, 4
1, 3
1, 0
1, 1
0, 2
4, 2
1, 2
0, 1
3, 1
3, 2
4, 4
3, 1
0, 0
0, 0
2, 1
1, 1
2, 1
0, 4
2, 2
0, 2
1, 0
0, 3
4, 2
3, 1
2, 0
1, 4
1, 2
2, 3
2, 0
0, 0
2, 0
3, 2
2, 2
0, 0
0, 0
0, 0
0, 3
3, 1
0, 1
0, 1
0, 2
0, 0
1, 1
0, 2
0, 0
0, 1
1, 1
1, 0
1, 0
2, 0
1, 0
2, 0
0, 1
1, 0
1, 1
1, 1
2, 1
1, 1
0, 1
1, 0
2, 1
0, 2
3, 0
0, 1
4, 0
0, 0
1, 0
1, 1
1, 0
1, 1
1, 1
1, 0
0, 1
0, 0
1, 1
1, 1
0, 0
0, 0
0, 2
0, 0
2, 2
0, 1
1, 1
0, 1
0, 2
1, 2
0, 1
0, 1
1, 0
4, 0
0, 2
0, 0
2, 2
1, 0
0, 1
1, 0
2, 1
1, 1
1, 2
0, 1
0, 3
0, 0
0, 2
0, 0
2, 0
1, 1
1, 0
1, 1
0, 1
1, 2
1, 1
1, 1
0, 0
1, 1
1, 1
2, 1
0, 2
0, 0
0, 1
1, 0
0, 0
1, 0
0, 0
0, 1
1, 1
0, 0
0, 1
0, 1
1, 2
0, 0
0, 1
0, 1
0, 1
1, 0
1, 1
0, 0
0, 0
0, 0
0, 0
0, 0
1, 0
0, 1
0, 1
0, 0
0, 0
0, 1
1, 2
1, 2
0, 0
0, 0
0, 0
0, 1
0, 0
0, 0
0, 0
0, 0
0, 0
0, 0
0, 0
0, 1
0, 0
0, 1
0, 1
0, 1
0, 0
0, 0
1, 0
0, 0
0, 0
0, 0
0, 0
0, 0
0, 0
0, 0
0, 1
0, 0
0, 0
1, 0
0, 0
1, 1
0, 0
0, 0
0, 1
0, 0
1, 1
0, 0
0, 0
1, 0
0, 0
1, 1
0, 0
0, 0
0, 0
0, 0
0, 0
0, 1
0, 0
0, 0
2, 0
0, 0
0, 0
0, 1
0, 0
0, 0
0, 0
1, 0
0, 1
1, 0
0, 0
0, 0
0, 0
0, 1
0, 0
0, 1
0, 1
1, 1
0, 1
0, 0
1, 0
1, 2
1, 1
0, 0
1, 0
0, 0
0, 1
1, 0
0, 1
2, 0
0, 0
0, 0
1, 1
0, 0
0, 0
0, 0
0, 0
0, 0
0, 1
0, 1
0, 1
0, 0
0, 0
0, 1
1, 0
0, 1
1, 1
0, 0
0, 1
1, 0
0, 0
0, 0
0, 0
0, 0
0, 0
0, 0
0, 0
2, 0
0, 0
0, 0
0, 0
0, 0
0, 0
0, 1
0, 0
0, 0
0, 0
0, 0
0, 0
0, 1
0, 0
0, 1
0, 0
0, 0
0, 1
0, 0
0, 0
0, 0
0, 0
0, 0
0, 1
0, 0
0, 0
0, 0
1, 1
0, 0
0, 0
0, 0
0, 0
0, 0
0, 0
1, 0
0, 1
1, 0
0, 0
0, 0
0, 0
0, 0
0, 0
0, 0
0, 0
0, 0
0, 0
0, 0
0, 0
0, 0
0, 0
0, 1
0, 0
0, 0
0, 0
0, 0
0, 0
0, 0
0, 0
0, 0
0, 0
1, 0
0, 0
0, 0
0, 0
0, 0
0, 0
0, 1
0, 0
0, 0
0, 0
0, 0
0, 0
0, 0
0, 0
0, 0
0, 0
0, 0
0, 0
0, 0
0, 1
0, 0
0, 0
0, 0
0, 0
0, 0
0, 0
0, 0
1, 0
0, 0
0, 0
0, 0
0, 0
0, 0
0, 0
0, 0
0, 0
0, 0
0, 0
0, 0
0, 0
0, 0
0, 0
0, 0
0, 0
0, 0
0, 0
0, 0
0, 0
0, 0
0, 0
0, 0
0, 0
0, 0
0, 0
0, 0
0, 0
0, 0
0, 0
0, 0
0, 0
0, 0
0, 0
0, 1
0, 0
0, 0
0, 0
0, 0
1, 0
0, 0
0, 0
0, 0
0, 0
0, 0
0, 0
0, 0
0, 0
0, 0
0, 0
0, 0
0, 0
0, 0
0, 0
0, 0
0, 0
0, 0
0, 0
0, 0
0, 0
0, 0
0, 0
0, 0
0, 0
0, 1
0, 0
0, 0
0, 0
0, 0
0, 0
0, 0
0, 0
0, 0
0, 0
0, 0
0, 0
0, 0
0, 0
0, 0
0, 0
0, 0
0, 0
0, 0
0, 0
0, 0
0, 0
0, 0
0, 0
0, 0
0, 0
0, 0
0, 0
0, 0
0, 0
0, 0
0, 0
0, 0
0, 0
0, 0
0, 0
0, 0
0, 0
0, 0
0, 0
0, 0
0, 0
0, 0
0, 0
0, 0
0, 0
0, 0
0, 0
0, 0
0, 1
0, 0
0, 0
0, 0
0, 0
0, 0
0, 0
0, 0
0, 0
0, 0
0, 0
0, 0
0, 0
0, 0
0, 0
0, 0
0, 0
0, 0
0, 0
0, 0
0, 0
0, 0
0, 0
0, 0
0, 0
0, 0
0, 0
0, 0
0, 0
0, 0
0, 0
0, 0
0, 0
0, 0
0, 0
0, 0
0, 0
0, 0
0, 0
0, 0
0, 0
0, 0
0, 0
0, 0
0, 0
0, 0
0, 0
0, 0
0, 0
0, 0
0, 0
0, 0
0, 0
0, 0
0, 0
0, 0
0, 0
0, 0
0, 0
0, 0
0, 0
0, 0
0, 0
0, 0
0, 0
0, 0
0, 0
0, 0
0, 0
0, 0
0, 0
0, 0
0, 0
0, 0
0, 0
0, 0
0, 0
0, 0
0, 0
0, 0
0, 0
0, 0
0, 0
0, 0
0, 0
0, 0
0, 0
0, 0
0, 0
0, 0
0, 0
0, 0
0, 0
0, 0
0, 0
0, 0
0, 0
0, 0
0, 0
0, 0
0, 0
0, 0
0, 0
0, 0
0, 0
0, 0
0, 0
0, 0
0, 0
0, 0
0, 0
0, 0
0, 0
0, 0
0, 0
0, 0
0, 0
0, 0
0, 0
0, 0
0, 0
0, 0
0, 0
0, 0
0, 0
0, 0
0, 0
0, 0
0, 0
0, 0
0, 0
0, 0
0, 0
0, 0
0, 0
0, 0
0, 0
0, 0
0, 0
0, 0
0, 0
0, 0
0, 0
0, 0
0, 0
0, 0
0, 0
0, 0
0, 0
0, 0
0, 0
0, 0
0, 0
0, 0
0, 0
0, 1
0, 0
0, 0
0, 0
0, 0
0, 0
0, 0
0, 0
0, 0
0, 0
0, 0
0, 0
0, 0
0, 0
0, 0
0, 0
0, 0
0, 0
0, 0
0, 0
0, 0
0, 0
0, 0
0, 0
0, 0
0, 0
0, 0
0, 0
0, 0
0, 0
0, 0
0, 0
0, 0
0, 0
0, 0
0, 0
0, 0
0, 0
0, 0
0, 0
0, 0
0, 0
0, 0
0, 0
0, 0
0, 0
0, 0
0, 0
0, 0
0, 0
0, 0
0, 0
0, 0
0, 0
0, 0
0, 0
0, 0
0, 0
0, 0
0, 0
0, 0
0, 0
0, 0
0, 0
0, 0
0, 0
0, 0
0, 0
0, 0
0, 0
0, 0
0, 0
0, 0
0, 0
0, 0
0, 0
0, 0
0, 0
0, 0
0, 0
0, 0
0, 0
0, 0
0, 0
0, 0
0, 0
0, 0
0, 0
0, 0
0, 0
0, 0
0, 0
0, 0
0, 0
0, 0
0, 0
0, 0
0, 0
0, 0
0, 0
0, 0
0, 0
0, 0
0, 0
0, 0
0, 0
0, 0
0, 0
0, 0
0, 0
0, 0
0, 0
0, 0
0, 0
0, 0
0, 0
0, 0
0, 0
0, 0
0, 0
0, 0
0, 0
0, 0
0, 0
0, 0
0, 0
0, 0
0, 0
0, 0
0, 0
0, 0
0, 0
0, 0
0, 0
0, 0
0, 0
0, 0
0, 0
0, 0
0, 0
0, 0
0, 0
0, 0
0, 0
0, 0
0, 0
0, 0
0, 0
0, 0
0, 0
0, 0
0, 0
0, 0
0, 0
0, 0
0, 0
0, 0
0, 0
0, 0
0, 0
0, 0
0, 0
0, 0
0, 0
0, 0
0, 0
0, 0
0, 0
0, 0
0, 0
0, 0
0, 0
0, 0
0, 0
0, 0
0, 0
0, 0
0, 0
0, 0
0, 0
0, 0
0, 0
0, 0
0, 0
0, 0
0, 0
0, 0
0, 0
0, 0
0, 0
0, 0
#ENDOFDATA     end of spectrum data