File: host_upload/02-11-2024/rqc/uplink1/ps__0567_0717304816_000rfs_shot_148.msa
#FORMAT      : EMSA/MAS spectral data file
#VERSION     : TC202v2.0 PIXL
#TITLE       : Novarupta (sol567) subset1
#DATE        : 02-11-2024      Date in the format DD-MMM-YYYY, for example 07-JUL-2010
#TIME        :             The time of day at which the spectrum was recorded, in 24-hour format
#OWNER       : PIXL Flight Model       (PIXL will use this to indicate which instrument took the data.)
#NPOINTS     : 4096     Number of data points in the spectrum (This can be zero for configuration only files)
#NCOLUMNS    : 2     Number of data columns in the spectrum (This can be zero for configuration only files)
#XUNITS      : eV
#YUNITS      : COUNTS
#DATATYPE    : YY
#XPERCHAN    : 7.862, 7.881   eV per channel (separate by commas if more than one detector)
#OFFSET      : 18.5, -22.4         eV of first channel  (separate by commas if more than one detector
#SIGNALTYPE  : XRF
#YP_TEMP     : 0.022
#LIVETIME    : 8.82849, 8.79902   seconds (separate by commas if more than one detector)
#REALTIME    : 10, 10.0   seconds (separate by commas if more than one detector)
#SPECTRUM    : start of spectrum data
0, 0
0, 0
0, 0
0, 0
0, 0
0, 0
0, 0
0, 0
0, 0
0, 0
0, 0
0, 0
0, 0
0, 0
0, 0
0, 0
0, 0
0, 0
0, 0
0, 0
0, 0
0, 0
0, 0
0, 0
0, 0
0, 0
0, 0
0, 0
0, 0
0, 0
1, 0
0, 0
0, 0
0, 1
0, 0
1, 0
2, 3
4, 2
8, 1
3, 6
0, 5
3, 1
1, 7
2, 2
2, 5
6, 6
5, 2
4, 3
3, 2
3, 7
6, 10
8, 9
8, 16
10, 15
20, 14
12, 25
12, 19
9, 7
8, 7
10, 8
19, 22
30, 32
37, 51
55, 50
50, 52
33, 42
26, 47
32, 30
47, 43
60, 69
115, 135
175, 212
244, 351
372, 482
458, 578
434, 508
397, 422
303, 363
193, 217
121, 148
73, 75
39, 52
41, 39
33, 32
42, 22
30, 31
30, 36
23, 44
25, 34
20, 28
14, 13
21, 17
27, 30
45, 54
80, 93
135, 160
194, 250
246, 303
280, 331
295, 320
256, 284
218, 242
129, 181
91, 98
82, 76
70, 55
55, 60
60, 88
89, 121
144, 159
170, 199
199, 241
220, 230
213, 244
191, 229
166, 176
127, 160
122, 118
83, 82
81, 80
88, 76
64, 72
59, 83
50, 53
45, 52
40, 40
31, 29
24, 17
25, 23
14, 16
17, 9
8, 12
5, 4
6, 2
5, 3
8, 11
7, 9
7, 19
14, 13
22, 27
22, 26
26, 32
22, 38
27, 18
15, 25
14, 16
15, 18
13, 15
12, 14
16, 23
36, 45
44, 64
73, 118
142, 193
177, 272
293, 335
351, 397
328, 428
353, 434
248, 315
235, 236
139, 181
90, 116
66, 63
35, 41
31, 38
28, 30
32, 37
41, 55
50, 63
44, 63
62, 54
59, 84
37, 50
26, 27
30, 35
16, 17
20, 24
10, 12
8, 9
8, 10
9, 15
6, 9
14, 14
15, 10
12, 23
16, 23
23, 28
23, 43
45, 37
40, 67
51, 67
58, 65
57, 68
47, 60
47, 47
29, 39
30, 29
23, 27
16, 22
17, 19
17, 8
16, 9
14, 23
15, 17
11, 20
14, 21
13, 23
25, 23
14, 29
17, 20
24, 22
15, 15
11, 17
9, 13
11, 15
8, 13
14, 11
13, 9
8, 12
8, 15
13, 10
16, 16
18, 12
12, 15
12, 16
24, 23
23, 25
29, 36
26, 30
27, 45
21, 29
32, 30
22, 24
23, 16
17, 11
6, 18
13, 8
14, 12
10, 9
12, 9
5, 13
6, 14
13, 19
27, 20
26, 20
21, 41
26, 45
31, 48
39, 50
43, 60
43, 61
36, 61
39, 45
29, 36
31, 25
21, 26
18, 23
22, 16
11, 16
20, 16
21, 31
38, 61
64, 104
119, 185
236, 343
416, 543
585, 817
845, 1165
1092, 1420
1393, 1864
1575, 1987
1685, 1966
1480, 1726
1340, 1516
1056, 1161
768, 763
515, 475
345, 331
222, 175
86, 89
62, 70
30, 23
18, 15
20, 18
20, 25
15, 18
15, 32
14, 16
16, 20
15, 25
31, 44
29, 48
55, 49
88, 108
118, 144
175, 182
202, 276
244, 254
216, 305
240, 281
237, 253
207, 230
161, 175
114, 125
91, 80
37, 49
41, 25
18, 20
14, 12
13, 11
10, 10
3, 7
12, 10
9, 10
7, 8
11, 8
13, 15
12, 19
8, 15
9, 18
8, 11
15, 7
10, 3
6, 9
7, 8
9, 2
11, 5
5, 5
6, 6
7, 2
6, 6
6, 6
4, 9
8, 4
6, 6
2, 6
5, 12
7, 9
4, 10
12, 8
9, 4
3, 7
10, 8
8, 5
11, 12
4, 10
5, 4
10, 4
7, 11
6, 9
3, 7
12, 10
9, 8
10, 9
8, 4
4, 6
4, 15
4, 6
7, 6
6, 10
4, 7
7, 8
11, 14
9, 8
12, 12
10, 15
11, 9
7, 13
15, 5
8, 11
10, 7
10, 8
3, 7
7, 5
1, 7
11, 3
8, 2
0, 5
6, 10
4, 8
4, 7
7, 8
5, 5
8, 3
2, 4
5, 6
4, 10
8, 7
4, 3
11, 6
4, 6
9, 2
8, 3
6, 7
8, 4
4, 3
10, 4
4, 5
2, 12
6, 5
5, 8
8, 4
6, 4
2, 11
3, 8
3, 10
6, 7
5, 8
4, 6
5, 11
3, 2
2, 2
6, 3
5, 7
4, 5
5, 4
5, 3
2, 5
4, 6
4, 6
8, 8
7, 6
5, 8
0, 5
3, 4
6, 4
1, 2
4, 4
4, 1
2, 3
2, 2
3, 3
7, 1
4, 3
5, 6
4, 4
4, 4
7, 4
1, 5
3, 5
6, 4
4, 3
1, 8
3, 3
4, 6
2, 4
5, 4
6, 3
5, 4
6, 6
4, 4
4, 5
0, 3
4, 8
0, 5
3, 5
2, 1
2, 3
1, 1
2, 0
5, 7
2, 5
4, 7
6, 5
6, 2
3, 2
3, 3
4, 1
2, 3
4, 3
2, 2
0, 2
1, 2
0, 2
1, 6
1, 2
3, 2
3, 4
2, 5
2, 2
3, 0
4, 3
0, 2
2, 4
4, 2
1, 1
5, 2
5, 4
6, 4
0, 1
1, 6
0, 2
3, 3
2, 3
3, 3
2, 2
0, 3
1, 2
3, 6
3, 2
1, 4
0, 4
1, 2
4, 2
2, 1
3, 4
0, 1
3, 1
4, 3
2, 5
3, 1
2, 3
4, 1
2, 4
2, 3
3, 0
2, 0
1, 2
0, 1
0, 4
3, 0
3, 6
1, 2
2, 1
0, 2
2, 2
0, 2
0, 3
0, 3
3, 5
3, 1
0, 4
1, 4
4, 1
2, 3
4, 3
3, 4
2, 4
1, 7
2, 8
0, 4
4, 5
4, 3
2, 1
1, 2
1, 1
2, 1
0, 1
1, 3
2, 2
3, 2
5, 4
0, 1
2, 2
1, 1
1, 2
0, 3
1, 3
1, 4
1, 2
2, 1
1, 2
1, 2
0, 1
2, 3
1, 0
3, 1
2, 3
1, 2
1, 2
1, 2
3, 2
1, 1
1, 2
1, 1
2, 1
0, 1
0, 3
1, 2
0, 3
0, 3
2, 3
2, 1
1, 0
2, 2
0, 2
2, 2
1, 0
1, 1
1, 3
1, 1
3, 1
1, 1
0, 2
1, 2
1, 0
1, 1
0, 0
0, 0
1, 0
1, 2
1, 3
3, 2
1, 1
1, 2
0, 1
2, 0
0, 1
0, 0
0, 0
0, 1
1, 0
0, 2
2, 0
1, 1
1, 2
0, 2
1, 0
0, 2
1, 0
1, 2
0, 2
0, 0
1, 0
0, 2
1, 0
1, 0
1, 0
0, 1
0, 1
3, 1
3, 0
0, 0
0, 2
1, 1
1, 1
0, 2
0, 1
1, 1
0, 1
0, 1
2, 2
3, 0
0, 1
2, 1
0, 0
0, 0
0, 0
1, 1
0, 0
0, 0
2, 1
1, 0
0, 2
1, 1
1, 0
0, 2
1, 1
0, 3
0, 2
0, 0
1, 0
0, 0
0, 1
0, 0
1, 0
0, 1
3, 0
0, 1
0, 1
0, 1
2, 1
0, 0
0, 1
0, 2
0, 0
0, 1
0, 0
1, 1
0, 0
0, 0
0, 1
1, 0
0, 0
0, 0
0, 0
0, 0
2, 0
0, 1
0, 1
0, 1
1, 0
0, 0
0, 1
0, 1
1, 1
1, 2
0, 0
1, 0
1, 0
0, 0
0, 0
0, 1
2, 3
1, 0
1, 0
0, 2
0, 1
1, 1
0, 0
0, 1
1, 0
0, 1
0, 1
0, 1
0, 0
0, 0
0, 1
0, 0
1, 0
1, 0
1, 0
0, 0
1, 0
1, 0
1, 0
0, 2
0, 0
0, 0
0, 0
0, 0
0, 1
1, 0
0, 0
0, 0
0, 0
1, 0
0, 2
0, 0
1, 0
1, 0
0, 0
0, 0
1, 0
1, 1
0, 0
1, 1
1, 0
0, 0
0, 0
1, 0
0, 0
0, 0
0, 0
1, 1
1, 0
0, 1
1, 0
0, 0
0, 0
0, 0
0, 0
0, 0
1, 0
0, 0
0, 0
1, 0
0, 0
0, 1
0, 0
0, 0
0, 0
0, 0
0, 1
0, 0
1, 0
0, 0
0, 1
0, 0
0, 0
0, 0
0, 0
0, 0
0, 1
0, 0
0, 0
0, 0
0, 0
0, 1
0, 1
0, 0
0, 0
0, 0
0, 0
0, 0
0, 1
0, 0
1, 0
0, 0
3, 2
1, 1
0, 0
0, 0
0, 0
0, 1
1, 0
0, 0
2, 0
0, 0
0, 0
0, 0
0, 0
0, 0
0, 0
0, 0
0, 0
0, 1
0, 0
0, 0
0, 0
0, 1
0, 0
0, 0
0, 0
0, 0
0, 0
0, 0
0, 0
0, 0
0, 0
0, 0
0, 0
0, 0
0, 0
0, 0
0, 0
0, 0
0, 0
0, 0
0, 0
0, 0
0, 0
1, 0
0, 0
0, 0
1, 0
0, 0
0, 0
0, 0
0, 0
0, 0
0, 2
0, 0
0, 0
0, 0
0, 0
1, 0
0, 0
0, 0
0, 0
0, 0
0, 0
0, 0
1, 0
1, 0
1, 0
0, 0
0, 0
0, 0
0, 0
0, 0
0, 0
0, 0
0, 0
0, 0
0, 0
0, 0
0, 0
0, 0
0, 0
0, 0
0, 0
1, 0
0, 0
0, 0
0, 0
1, 0
0, 1
1, 0
0, 0
0, 1
0, 0
0, 0
0, 0
0, 0
0, 0
0, 0
0, 0
0, 1
0, 0
0, 0
0, 0
0, 0
0, 0
0, 0
0, 0
0, 0
0, 1
0, 0
0, 0
0, 0
0, 0
0, 0
0, 0
0, 0
1, 0
0, 0
0, 0
1, 0
0, 0
0, 0
0, 0
0, 0
0, 0
1, 0
0, 0
0, 0
0, 0
0, 0
0, 0
0, 0
0, 0
0, 0
0, 0
0, 1
0, 0
0, 0
0, 0
0, 0
0, 0
0, 1
0, 0
0, 1
0, 0
0, 0
0, 0
0, 0
0, 0
0, 0
0, 0
0, 0
0, 0
0, 0
0, 0
0, 0
0, 0
0, 0
0, 0
0, 0
0, 0
1, 0
0, 0
0, 0
0, 0
1, 0
0, 0
0, 0
0, 0
0, 0
0, 0
0, 0
0, 0
0, 0
0, 0
0, 0
0, 0
0, 0
0, 0
0, 0
0, 0
0, 0
0, 0
0, 0
0, 0
0, 0
0, 0
0, 0
0, 0
0, 0
0, 0
0, 0
0, 0
0, 0
0, 0
0, 0
0, 0
0, 0
0, 0
0, 0
0, 0
0, 0
0, 0
0, 0
0, 0
0, 0
0, 0
0, 0
0, 0
0, 0
0, 0
0, 0
0, 0
0, 0
0, 0
0, 0
0, 0
0, 0
0, 0
0, 0
0, 0
0, 0
0, 0
0, 0
0, 0
0, 0
0, 0
0, 0
0, 0
0, 0
0, 0
0, 0
0, 0
0, 0
0, 0
0, 0
0, 0
0, 0
0, 0
0, 0
0, 0
0, 0
0, 0
0, 0
0, 0
0, 0
0, 0
0, 0
0, 0
0, 0
0, 0
0, 0
0, 0
0, 0
0, 0
0, 0
0, 0
0, 0
0, 0
0, 0
0, 0
0, 0
0, 0
0, 0
0, 0
0, 0
0, 0
1, 0
0, 0
0, 0
0, 0
0, 0
0, 0
0, 0
0, 0
0, 0
0, 0
0, 0
0, 0
0, 0
0, 0
0, 0
0, 0
0, 0
0, 0
0, 0
0, 0
0, 0
0, 0
0, 0
0, 0
0, 0
0, 0
0, 0
0, 0
0, 0
0, 0
0, 0
0, 0
0, 0
0, 0
0, 0
0, 0
0, 0
0, 0
0, 0
0, 0
0, 0
0, 0
0, 0
0, 0
0, 0
0, 0
0, 0
0, 0
0, 0
0, 0
0, 0
0, 0
0, 0
0, 0
0, 0
0, 0
0, 0
0, 0
0, 0
0, 0
0, 0
0, 0
0, 0
0, 0
0, 0
0, 0
0, 0
0, 0
0, 0
0, 0
0, 0
0, 0
0, 0
0, 0
0, 0
0, 0
0, 0
0, 0
0, 0
0, 0
0, 0
0, 0
0, 0
0, 0
0, 0
0, 0
0, 0
0, 0
0, 0
0, 0
0, 0
0, 0
0, 0
0, 0
0, 0
0, 0
0, 0
0, 0
0, 0
0, 0
0, 0
0, 0
0, 0
0, 0
0, 0
0, 0
0, 0
0, 0
0, 0
0, 0
0, 0
0, 0
0, 0
0, 0
0, 0
0, 0
0, 0
0, 0
0, 0
0, 0
0, 0
0, 0
0, 0
0, 0
0, 0
0, 0
0, 0
0, 0
0, 0
0, 0
0, 0
0, 0
0, 0
0, 0
0, 0
0, 0
0, 0
0, 0
0, 0
0, 0
0, 0
0, 0
0, 0
0, 0
0, 0
0, 0
0, 0
0, 0
0, 0
0, 0
0, 0
0, 0
0, 0
0, 0
0, 0
0, 0
0, 0
0, 0
0, 0
0, 0
0, 0
0, 0
0, 0
0, 0
0, 0
0, 0
0, 0
0, 0
0, 0
0, 0
0, 0
0, 0
0, 0
0, 0
0, 0
0, 0
0, 0
0, 0
0, 0
0, 0
0, 0
0, 0
0, 0
0, 0
0, 0
0, 0
0, 0
0, 0
0, 0
0, 0
0, 0
0, 0
0, 0
0, 0
0, 0
0, 0
0, 0
0, 0
0, 0
0, 0
0, 0
0, 0
0, 0
0, 0
0, 0
0, 0
0, 0
0, 0
0, 0
0, 0
0, 0
0, 0
0, 0
0, 0
0, 0
0, 0
0, 0
0, 0
0, 0
0, 0
0, 0
0, 0
0, 0
0, 0
0, 0
0, 0
0, 0
0, 0
0, 0
0, 0
0, 0
0, 0
0, 0
0, 0
0, 0
0, 0
0, 0
0, 0
0, 0
0, 0
0, 0
0, 0
0, 0
0, 0
0, 0
0, 0
0, 0
0, 0
0, 0
0, 0
0, 0
0, 0
0, 0
0, 0
0, 0
0, 0
0, 0
0, 0
0, 0
0, 0
0, 0
0, 0
0, 0
0, 0
0, 0
0, 0
0, 0
0, 0
0, 0
0, 0
0, 0
0, 0
0, 0
0, 0
0, 0
0, 0
0, 0
0, 0
0, 0
0, 0
0, 0
0, 0
0, 0
0, 0
0, 0
0, 0
0, 0
0, 0
0, 0
0, 0
0, 0
0, 0
0, 0
0, 0
0, 0
0, 0
0, 0
0, 0
0, 0
#ENDOFDATA     end of spectrum data