File: host_upload/02-11-2024/rqc/uplink1/ps__0567_0717304816_000rfs_shot_410.msa
#FORMAT      : EMSA/MAS spectral data file
#VERSION     : TC202v2.0 PIXL
#TITLE       : Novarupta (sol567) subset1
#DATE        : 02-11-2024      Date in the format DD-MMM-YYYY, for example 07-JUL-2010
#TIME        :             The time of day at which the spectrum was recorded, in 24-hour format
#OWNER       : PIXL Flight Model       (PIXL will use this to indicate which instrument took the data.)
#NPOINTS     : 4096     Number of data points in the spectrum (This can be zero for configuration only files)
#NCOLUMNS    : 2     Number of data columns in the spectrum (This can be zero for configuration only files)
#XUNITS      : eV
#YUNITS      : COUNTS
#DATATYPE    : YY
#XPERCHAN    : 7.862, 7.881   eV per channel (separate by commas if more than one detector)
#OFFSET      : 18.5, -22.4         eV of first channel  (separate by commas if more than one detector
#SIGNALTYPE  : XRF
#YP_TEMP     : 1.851
#LIVETIME    : 8.841, 8.82054   seconds (separate by commas if more than one detector)
#REALTIME    : 10, 10.0   seconds (separate by commas if more than one detector)
#SPECTRUM    : start of spectrum data
0, 0
0, 0
0, 0
0, 0
0, 0
0, 0
0, 0
0, 0
0, 0
0, 0
0, 0
0, 0
0, 0
0, 0
0, 0
0, 0
0, 0
0, 0
0, 0
0, 0
0, 0
0, 0
0, 0
0, 0
0, 0
0, 0
0, 0
0, 0
0, 0
0, 0
0, 0
0, 0
1, 0
0, 1
1, 1
2, 4
2, 4
3, 2
8, 4
1, 3
5, 7
5, 1
4, 4
1, 4
4, 3
1, 6
7, 8
3, 4
3, 3
5, 10
4, 7
5, 13
6, 17
10, 21
22, 26
15, 11
16, 12
5, 10
7, 7
18, 11
15, 20
25, 30
48, 37
47, 44
29, 59
40, 39
43, 56
28, 39
35, 35
58, 75
117, 128
212, 202
309, 346
400, 435
460, 564
471, 483
437, 476
315, 352
229, 251
149, 149
77, 81
46, 45
27, 46
27, 46
25, 25
27, 45
46, 58
43, 33
29, 33
28, 17
24, 13
12, 24
28, 31
39, 57
78, 84
140, 176
199, 227
232, 308
307, 360
291, 360
266, 305
200, 250
136, 176
93, 115
78, 66
45, 52
53, 56
65, 79
100, 110
108, 139
168, 211
203, 226
210, 256
226, 258
210, 232
169, 198
129, 144
106, 124
89, 110
81, 81
68, 72
77, 94
71, 69
68, 60
40, 48
39, 39
38, 29
23, 29
18, 16
16, 17
10, 13
8, 11
3, 12
10, 8
11, 3
6, 7
13, 14
10, 18
11, 19
22, 27
26, 22
31, 40
27, 31
21, 24
19, 16
10, 17
7, 17
8, 12
16, 20
14, 27
28, 30
42, 79
82, 112
136, 158
220, 260
280, 336
319, 422
334, 430
343, 427
295, 348
252, 254
151, 172
113, 105
74, 53
40, 42
28, 25
31, 23
27, 39
39, 50
58, 56
63, 56
51, 61
55, 67
43, 57
44, 29
28, 28
23, 24
19, 12
10, 11
4, 10
10, 9
15, 9
9, 10
12, 17
10, 13
10, 18
18, 21
28, 26
36, 35
27, 58
47, 64
62, 80
64, 72
61, 75
43, 51
28, 57
32, 43
25, 30
12, 23
16, 13
18, 17
11, 16
16, 15
20, 12
9, 14
16, 14
12, 16
19, 19
14, 15
19, 16
21, 19
20, 22
17, 24
19, 17
16, 14
7, 12
10, 6
4, 11
14, 12
8, 16
14, 8
13, 6
12, 17
12, 19
11, 12
15, 14
13, 32
10, 30
27, 34
19, 48
43, 41
16, 34
36, 25
27, 35
20, 34
14, 24
17, 11
14, 11
14, 12
20, 9
13, 13
16, 14
10, 14
12, 12
17, 21
15, 19
24, 33
31, 48
36, 42
46, 50
48, 51
58, 46
39, 51
44, 48
33, 28
29, 25
20, 35
16, 18
18, 14
17, 18
10, 15
17, 24
35, 44
65, 94
104, 165
191, 282
336, 458
526, 765
778, 996
1090, 1438
1396, 1721
1642, 1842
1653, 1912
1565, 1781
1377, 1452
1085, 1101
856, 889
536, 506
402, 355
214, 206
135, 85
60, 61
48, 32
31, 24
15, 22
21, 14
12, 21
21, 10
16, 16
17, 21
18, 18
17, 23
29, 48
67, 73
86, 104
92, 140
158, 173
206, 245
216, 252
252, 294
259, 287
227, 261
204, 219
180, 174
143, 125
95, 96
58, 47
33, 24
24, 18
16, 5
11, 8
10, 4
11, 10
11, 18
11, 10
13, 12
15, 14
12, 6
9, 19
11, 12
12, 15
9, 12
11, 8
9, 6
10, 4
6, 7
2, 6
2, 6
5, 8
5, 6
4, 5
10, 6
3, 3
3, 8
7, 4
4, 9
2, 6
4, 8
6, 7
3, 1
6, 3
8, 6
4, 6
8, 10
5, 6
6, 13
7, 9
15, 7
4, 7
8, 3
6, 13
6, 7
11, 1
4, 7
3, 5
6, 4
6, 8
3, 11
5, 12
8, 5
3, 6
9, 13
6, 5
12, 8
13, 8
12, 10
10, 6
11, 14
8, 13
3, 13
11, 8
9, 8
10, 10
5, 9
5, 8
7, 9
5, 10
4, 6
6, 15
8, 8
3, 7
8, 10
8, 5
3, 6
6, 7
3, 6
0, 5
1, 4
5, 6
5, 5
10, 4
4, 7
4, 4
6, 6
6, 7
7, 5
5, 8
6, 1
2, 7
3, 3
8, 4
9, 5
5, 8
4, 8
5, 4
6, 5
6, 2
5, 8
3, 2
9, 9
3, 8
4, 3
5, 1
2, 6
4, 7
3, 2
6, 4
3, 4
3, 4
4, 1
6, 3
2, 4
4, 3
9, 7
5, 3
3, 2
4, 3
7, 8
3, 8
7, 5
3, 4
6, 0
5, 3
5, 4
2, 3
2, 9
4, 3
5, 5
4, 4
3, 5
4, 2
1, 3
6, 4
5, 6
3, 2
3, 4
4, 0
2, 4
4, 7
6, 3
3, 8
4, 1
4, 5
3, 1
4, 5
4, 3
4, 7
2, 6
2, 6
2, 4
1, 2
4, 3
3, 2
0, 4
2, 2
3, 5
1, 3
2, 2
3, 5
2, 5
0, 1
5, 3
1, 2
4, 3
4, 6
4, 1
1, 5
1, 3
2, 4
5, 2
3, 0
2, 3
0, 5
5, 2
0, 1
3, 2
4, 3
4, 6
0, 3
3, 1
3, 3
2, 4
3, 2
1, 2
1, 3
1, 2
1, 4
5, 4
3, 4
2, 0
2, 1
3, 4
1, 3
3, 3
3, 5
5, 2
2, 2
2, 2
2, 5
2, 4
0, 2
4, 5
3, 5
1, 1
3, 2
3, 3
2, 2
0, 1
0, 2
2, 3
6, 2
1, 6
5, 0
1, 1
1, 2
4, 2
3, 3
3, 0
4, 2
7, 1
2, 2
1, 2
3, 5
0, 1
1, 4
2, 2
4, 2
4, 3
0, 7
6, 5
4, 4
1, 2
3, 2
1, 5
3, 2
1, 2
1, 3
4, 3
2, 3
1, 2
2, 0
2, 4
1, 2
2, 0
4, 6
1, 1
0, 2
1, 2
1, 3
3, 3
2, 1
1, 2
0, 2
1, 2
2, 3
2, 4
4, 1
0, 1
1, 2
1, 0
1, 2
0, 2
1, 0
0, 1
1, 2
0, 5
1, 1
0, 1
2, 2
4, 2
1, 0
2, 5
1, 2
1, 3
0, 1
1, 0
0, 1
0, 0
1, 0
1, 0
0, 2
2, 0
0, 0
2, 0
1, 1
0, 0
0, 1
0, 1
1, 1
1, 2
2, 1
1, 0
0, 0
1, 0
1, 4
2, 1
1, 0
1, 3
1, 1
1, 2
1, 1
0, 2
0, 0
2, 2
1, 1
2, 1
2, 2
0, 2
1, 0
0, 3
2, 1
2, 0
1, 1
1, 2
1, 3
2, 1
1, 2
0, 2
1, 2
3, 0
1, 2
0, 1
0, 1
0, 2
0, 0
1, 0
2, 1
0, 0
1, 1
1, 0
1, 0
1, 1
0, 1
0, 0
0, 1
0, 1
1, 4
0, 1
1, 0
0, 0
1, 0
2, 1
0, 1
1, 0
2, 1
1, 1
1, 1
0, 0
0, 2
0, 0
2, 0
0, 1
0, 1
0, 1
0, 0
2, 1
0, 0
1, 2
0, 2
0, 0
0, 2
0, 1
0, 0
0, 2
0, 0
3, 0
0, 1
2, 1
0, 0
0, 1
0, 0
1, 0
0, 0
1, 0
0, 1
1, 0
0, 0
0, 0
1, 0
1, 0
0, 1
0, 0
0, 1
0, 1
0, 0
1, 0
3, 0
0, 0
0, 1
0, 0
0, 0
0, 0
1, 0
0, 1
0, 0
1, 0
0, 0
0, 1
1, 0
0, 0
0, 1
1, 0
0, 0
0, 0
0, 0
1, 0
1, 0
0, 0
0, 0
0, 0
0, 1
1, 0
1, 0
0, 1
0, 1
0, 1
0, 0
0, 1
0, 1
0, 0
1, 2
0, 2
0, 0
1, 0
1, 1
0, 1
0, 1
0, 1
0, 1
0, 0
1, 0
0, 0
0, 0
2, 0
1, 0
0, 0
0, 0
0, 1
0, 0
0, 0
0, 1
1, 0
0, 1
0, 1
0, 0
1, 0
0, 1
1, 0
0, 0
0, 1
0, 0
0, 0
1, 1
0, 0
0, 0
0, 0
0, 0
0, 1
0, 0
0, 0
0, 0
1, 0
0, 2
0, 0
0, 0
0, 0
0, 1
0, 0
0, 0
1, 0
0, 0
0, 0
0, 1
1, 1
0, 0
0, 0
1, 0
0, 0
0, 0
0, 0
0, 0
0, 1
1, 1
0, 0
0, 0
1, 0
0, 0
0, 0
0, 0
0, 0
0, 0
0, 0
0, 0
0, 0
1, 0
0, 0
0, 0
0, 1
0, 0
0, 0
0, 0
0, 0
0, 0
0, 0
0, 0
0, 0
0, 0
0, 0
0, 1
0, 0
1, 0
1, 0
0, 0
0, 1
0, 0
0, 1
0, 0
0, 0
0, 0
0, 0
0, 0
0, 0
0, 1
0, 0
1, 0
0, 0
0, 0
0, 0
0, 1
0, 0
0, 0
1, 0
0, 0
0, 0
0, 0
0, 0
0, 0
0, 0
0, 0
0, 0
1, 0
0, 0
0, 0
0, 1
0, 0
1, 0
0, 1
1, 0
0, 0
0, 0
0, 0
0, 0
0, 0
0, 0
0, 0
1, 0
0, 0
0, 0
0, 0
0, 0
0, 1
0, 0
0, 0
0, 0
0, 0
0, 0
0, 0
0, 0
0, 0
0, 0
0, 0
0, 0
0, 0
0, 0
0, 0
0, 0
0, 0
0, 0
0, 0
0, 0
0, 0
0, 0
1, 0
1, 0
0, 0
1, 0
0, 0
0, 0
0, 0
0, 0
0, 0
0, 1
0, 0
0, 0
0, 0
0, 0
0, 0
0, 0
0, 0
0, 0
0, 0
1, 1
0, 0
0, 0
0, 0
0, 0
0, 0
1, 0
0, 0
0, 1
0, 0
0, 0
0, 0
0, 0
0, 0
0, 0
0, 0
0, 0
0, 0
0, 0
0, 0
0, 0
0, 0
0, 0
0, 0
0, 0
0, 0
0, 0
0, 0
0, 0
0, 2
0, 1
0, 0
0, 0
0, 0
0, 0
0, 0
0, 0
0, 1
0, 0
0, 0
0, 0
0, 0
0, 0
0, 0
0, 0
0, 0
0, 0
0, 0
0, 0
0, 0
0, 0
1, 0
1, 1
0, 0
0, 0
0, 0
0, 0
0, 0
0, 0
0, 0
0, 0
0, 0
0, 0
0, 0
0, 0
0, 0
0, 0
0, 0
0, 0
0, 0
0, 0
0, 0
0, 0
0, 0
0, 0
0, 0
0, 0
0, 0
0, 0
0, 0
0, 0
0, 0
0, 0
0, 0
0, 0
0, 0
0, 0
0, 0
0, 0
0, 0
0, 0
0, 0
0, 1
0, 0
0, 0
0, 0
0, 0
0, 0
0, 0
0, 0
0, 0
0, 0
0, 0
0, 0
0, 0
0, 0
0, 0
0, 0
0, 0
0, 0
0, 0
0, 0
0, 0
0, 0
0, 0
0, 0
0, 0
0, 0
0, 0
0, 0
0, 0
0, 0
0, 0
0, 0
0, 0
0, 0
0, 0
0, 0
0, 0
0, 0
0, 0
0, 0
0, 0
0, 0
0, 0
0, 0
0, 0
0, 0
0, 0
0, 0
0, 0
0, 0
0, 0
0, 0
0, 0
0, 0
0, 0
0, 0
0, 0
0, 0
0, 0
0, 0
0, 0
0, 0
0, 0
0, 0
0, 0
0, 0
0, 0
0, 0
0, 0
0, 0
0, 0
0, 0
0, 0
0, 0
0, 0
0, 0
0, 0
0, 0
0, 0
0, 0
0, 0
0, 0
0, 0
0, 0
0, 0
0, 0
0, 0
0, 0
0, 0
0, 0
0, 0
0, 0
0, 0
0, 0
0, 0
0, 0
0, 0
0, 0
0, 0
0, 0
0, 0
0, 0
0, 0
0, 0
0, 0
0, 0
0, 0
0, 0
0, 0
0, 0
0, 0
0, 0
0, 0
0, 0
0, 0
0, 0
0, 0
0, 0
0, 0
0, 0
0, 0
0, 0
0, 0
0, 0
0, 0
0, 0
0, 0
0, 0
0, 0
0, 0
0, 0
0, 0
0, 0
0, 0
0, 0
0, 0
0, 0
0, 0
0, 0
0, 0
0, 0
0, 0
0, 0
0, 0
0, 0
0, 0
0, 0
0, 0
0, 0
0, 0
0, 0
0, 0
0, 0
0, 0
0, 0
0, 0
0, 0
0, 0
0, 0
0, 0
0, 0
0, 0
0, 0
0, 0
0, 0
0, 0
0, 0
0, 0
0, 0
0, 0
0, 0
0, 0
0, 0
0, 0
0, 0
0, 0
0, 0
0, 0
0, 0
0, 0
0, 0
0, 0
0, 0
0, 0
0, 0
0, 0
0, 0
0, 0
0, 0
0, 0
0, 0
0, 0
0, 0
0, 0
0, 0
0, 0
0, 0
0, 0
0, 0
0, 0
0, 0
0, 0
0, 0
0, 0
0, 0
0, 0
0, 0
0, 0
0, 0
0, 0
0, 0
0, 0
0, 0
0, 0
0, 0
0, 0
0, 0
0, 0
0, 0
0, 0
0, 0
0, 0
0, 0
0, 0
0, 0
0, 0
0, 0
0, 0
0, 0
0, 0
0, 0
0, 0
0, 0
0, 0
0, 0
0, 0
0, 0
0, 0
0, 0
0, 0
0, 0
0, 0
0, 0
0, 0
0, 0
0, 0
0, 0
0, 0
0, 0
0, 0
0, 0
0, 0
0, 0
0, 0
0, 0
0, 0
0, 0
0, 0
0, 0
0, 0
0, 0
0, 0
0, 0
0, 0
0, 0
0, 0
0, 0
0, 0
0, 0
0, 0
0, 0
0, 0
0, 0
0, 0
0, 0
0, 0
0, 0
0, 0
0, 0
0, 0
0, 0
0, 0
0, 0
0, 0
0, 0
0, 0
0, 0
0, 0
0, 0
0, 0
0, 0
0, 0
0, 0
0, 0
0, 0
0, 0
0, 0
0, 0
0, 0
0, 0
0, 0
0, 0
0, 0
0, 0
0, 0
0, 0
0, 0
0, 0
0, 0
0, 0
0, 0
0, 0
0, 0
0, 0
0, 0
0, 0
0, 0
0, 0
0, 0
0, 0
0, 0
0, 0
0, 0
0, 0
0, 0
0, 0
0, 0
0, 0
0, 0
0, 0
0, 0
0, 0
0, 0
0, 0
0, 0
0, 0
0, 0
0, 0
0, 0
0, 0
0, 0
0, 0
0, 0
0, 0
0, 0
0, 0
0, 0
0, 0
0, 0
0, 0
0, 0
0, 0
0, 0
0, 0
0, 0
0, 0
0, 0
0, 0
0, 0
0, 0
0, 0
0, 0
0, 0
#ENDOFDATA     end of spectrum data