File: host_upload/02-11-2024/rqc/uplink1/ps__0567_0717304816_000rfs_shot_479.msa
#FORMAT      : EMSA/MAS spectral data file
#VERSION     : TC202v2.0 PIXL
#TITLE       : Novarupta (sol567) subset1
#DATE        : 02-11-2024      Date in the format DD-MMM-YYYY, for example 07-JUL-2010
#TIME        :             The time of day at which the spectrum was recorded, in 24-hour format
#OWNER       : PIXL Flight Model       (PIXL will use this to indicate which instrument took the data.)
#NPOINTS     : 4096     Number of data points in the spectrum (This can be zero for configuration only files)
#NCOLUMNS    : 2     Number of data columns in the spectrum (This can be zero for configuration only files)
#XUNITS      : eV
#YUNITS      : COUNTS
#DATATYPE    : YY
#XPERCHAN    : 7.862, 7.881   eV per channel (separate by commas if more than one detector)
#OFFSET      : 18.5, -22.4         eV of first channel  (separate by commas if more than one detector
#SIGNALTYPE  : XRF
#YP_TEMP     : 1.979
#LIVETIME    : 8.83478, 8.81701   seconds (separate by commas if more than one detector)
#REALTIME    : 10, 10.0   seconds (separate by commas if more than one detector)
#SPECTRUM    : start of spectrum data
0, 0
0, 0
0, 0
0, 0
0, 0
0, 0
0, 0
0, 0
0, 0
0, 0
0, 0
0, 0
0, 0
0, 0
0, 0
0, 0
0, 0
0, 0
0, 0
0, 0
0, 0
0, 0
0, 0
0, 0
0, 0
0, 0
0, 0
0, 0
0, 0
0, 0
0, 1
0, 0
0, 3
0, 1
3, 2
2, 1
1, 3
2, 1
0, 2
2, 6
3, 9
2, 2
3, 4
1, 2
3, 7
4, 6
3, 2
4, 1
3, 5
1, 4
9, 9
7, 6
10, 11
11, 13
18, 16
12, 11
11, 12
7, 12
9, 12
12, 17
19, 17
29, 22
43, 42
56, 48
37, 49
40, 38
31, 42
46, 28
37, 36
57, 65
108, 128
175, 213
309, 330
413, 450
495, 498
488, 505
459, 443
347, 324
235, 235
121, 128
71, 101
61, 37
35, 32
33, 29
26, 30
25, 39
34, 40
39, 29
25, 35
25, 27
17, 26
16, 18
30, 24
46, 44
85, 79
126, 136
175, 206
283, 260
293, 280
276, 288
280, 257
224, 235
151, 152
100, 76
69, 69
60, 62
40, 57
49, 60
75, 84
119, 124
170, 158
174, 211
221, 208
237, 216
203, 196
158, 149
130, 129
101, 112
89, 77
72, 81
73, 84
78, 56
76, 66
55, 57
46, 47
37, 35
30, 27
22, 29
18, 18
17, 19
7, 11
13, 11
11, 4
11, 4
3, 11
8, 10
6, 5
9, 14
8, 18
16, 20
25, 43
27, 36
25, 31
35, 22
28, 19
14, 20
16, 9
7, 14
7, 7
15, 15
31, 29
40, 63
89, 98
134, 171
195, 210
294, 325
338, 382
370, 413
339, 393
324, 310
269, 230
169, 148
126, 100
83, 61
37, 35
18, 20
24, 25
37, 37
48, 35
53, 61
68, 58
63, 65
64, 53
48, 41
45, 43
26, 21
23, 22
12, 14
8, 10
14, 12
12, 11
6, 10
9, 11
14, 11
7, 11
15, 14
16, 20
29, 28
31, 46
39, 48
48, 56
63, 53
78, 78
63, 58
52, 52
46, 39
45, 29
26, 26
26, 24
10, 20
19, 19
16, 16
11, 16
10, 15
16, 12
7, 16
22, 13
9, 18
15, 20
15, 17
18, 13
14, 16
21, 23
21, 16
14, 8
17, 8
10, 6
7, 13
16, 6
12, 14
14, 16
7, 13
8, 12
15, 22
16, 21
21, 18
18, 21
18, 15
25, 28
37, 32
27, 31
27, 37
31, 30
21, 19
20, 22
21, 15
15, 12
16, 18
9, 11
12, 11
9, 6
8, 10
15, 11
8, 15
17, 17
18, 14
31, 21
30, 33
29, 43
39, 52
49, 45
61, 46
52, 53
55, 45
44, 44
31, 36
18, 32
16, 21
18, 23
13, 15
14, 26
21, 26
36, 44
68, 71
125, 158
208, 305
336, 475
579, 701
855, 1047
1186, 1398
1471, 1638
1725, 1785
1753, 1865
1661, 1670
1513, 1449
1247, 1178
929, 789
590, 516
341, 321
271, 223
146, 102
78, 50
46, 37
25, 28
22, 13
22, 18
10, 19
13, 14
21, 20
18, 21
17, 32
28, 35
33, 40
48, 86
69, 119
127, 143
170, 185
180, 206
242, 263
262, 289
260, 270
268, 270
232, 184
211, 161
139, 128
98, 81
53, 53
38, 32
22, 21
18, 9
10, 9
8, 9
9, 10
11, 13
14, 10
14, 13
8, 13
13, 11
11, 13
8, 12
11, 13
7, 11
10, 5
8, 6
7, 4
6, 3
12, 10
5, 4
7, 5
8, 4
5, 5
5, 5
9, 7
8, 2
1, 7
9, 7
7, 4
5, 5
5, 6
6, 9
8, 7
7, 8
8, 6
4, 4
3, 7
11, 4
10, 6
4, 10
6, 5
15, 7
11, 7
8, 9
6, 4
8, 3
13, 5
5, 10
7, 7
9, 4
7, 9
8, 11
2, 8
10, 18
8, 5
8, 8
9, 10
10, 9
6, 10
13, 15
10, 12
10, 10
8, 8
12, 3
9, 7
2, 6
8, 7
8, 5
1, 2
3, 5
5, 8
6, 8
8, 5
4, 9
8, 7
4, 7
9, 5
6, 7
7, 7
4, 6
6, 6
5, 6
8, 4
3, 6
6, 4
3, 9
2, 4
3, 3
4, 11
6, 5
6, 5
5, 7
1, 3
0, 7
11, 5
6, 5
5, 7
3, 6
4, 9
4, 12
5, 3
3, 6
6, 6
8, 5
4, 9
4, 8
9, 8
6, 2
2, 9
5, 5
5, 2
3, 8
4, 3
4, 6
4, 5
3, 7
2, 3
8, 6
8, 5
1, 4
1, 1
7, 4
1, 3
5, 6
7, 1
6, 3
4, 3
2, 5
3, 4
3, 6
1, 5
4, 2
2, 6
1, 4
7, 3
3, 4
7, 2
3, 0
1, 6
3, 7
4, 6
2, 4
2, 1
7, 2
6, 5
3, 2
3, 4
3, 10
4, 4
2, 1
3, 3
1, 7
4, 1
2, 1
3, 2
2, 3
2, 5
2, 3
4, 0
0, 2
0, 3
3, 4
1, 3
3, 1
6, 4
5, 2
2, 0
4, 2
2, 3
3, 4
5, 2
4, 3
4, 5
3, 1
4, 0
3, 4
4, 1
5, 2
4, 1
4, 2
0, 1
3, 4
2, 2
1, 2
2, 7
1, 6
2, 3
1, 1
1, 3
2, 2
2, 2
3, 2
3, 3
2, 1
1, 1
1, 4
2, 2
0, 1
5, 1
2, 4
2, 2
0, 0
0, 2
0, 2
3, 1
2, 4
1, 2
3, 2
2, 0
1, 2
1, 1
5, 1
1, 3
2, 2
2, 4
1, 1
1, 3
4, 0
3, 0
2, 1
4, 0
0, 2
2, 0
2, 4
2, 3
1, 2
0, 3
1, 2
2, 4
5, 2
2, 2
4, 3
1, 2
1, 0
2, 2
1, 4
4, 1
4, 4
2, 3
1, 5
2, 3
1, 2
3, 3
3, 2
0, 0
3, 1
0, 1
0, 4
1, 1
1, 1
3, 2
2, 3
0, 0
3, 2
3, 2
0, 1
2, 4
1, 1
2, 5
2, 1
1, 0
1, 3
1, 3
1, 1
3, 2
2, 4
2, 2
0, 0
1, 2
2, 2
1, 2
1, 1
2, 1
1, 0
2, 3
3, 2
1, 0
1, 0
2, 1
1, 0
1, 1
2, 0
1, 0
0, 0
1, 0
5, 0
1, 1
3, 0
0, 0
2, 1
1, 1
0, 3
4, 0
2, 2
0, 0
3, 3
0, 0
0, 0
5, 0
2, 1
3, 2
4, 1
1, 1
1, 2
1, 1
1, 0
2, 1
1, 1
0, 2
1, 0
4, 1
0, 0
0, 0
0, 1
0, 1
0, 0
1, 1
1, 2
0, 0
0, 2
0, 0
0, 0
1, 0
0, 3
1, 2
0, 1
1, 0
1, 0
0, 0
1, 2
0, 3
2, 0
0, 1
0, 0
0, 0
1, 1
1, 1
0, 0
1, 1
1, 1
0, 1
2, 1
0, 1
0, 1
2, 0
0, 1
0, 0
1, 0
1, 0
0, 0
0, 1
0, 0
0, 0
1, 0
1, 1
0, 0
1, 1
0, 1
0, 0
0, 2
2, 1
0, 0
0, 0
0, 2
1, 1
1, 1
0, 1
1, 0
1, 1
0, 0
0, 0
1, 0
0, 1
0, 0
1, 1
0, 0
0, 0
0, 1
0, 0
0, 0
0, 1
0, 0
0, 2
0, 0
1, 0
0, 0
1, 0
0, 0
1, 0
0, 1
1, 0
0, 0
0, 1
0, 1
2, 1
1, 1
1, 0
1, 0
0, 0
0, 0
0, 0
0, 0
0, 0
0, 0
0, 1
0, 0
0, 0
0, 1
0, 0
0, 0
0, 1
1, 0
0, 1
1, 0
1, 2
0, 0
0, 0
0, 1
0, 0
0, 0
0, 0
0, 1
1, 0
0, 0
0, 0
0, 0
0, 0
0, 0
0, 1
0, 0
0, 0
1, 0
0, 0
0, 0
0, 0
0, 0
1, 1
0, 0
0, 2
0, 0
0, 2
1, 1
0, 0
0, 1
0, 0
0, 1
1, 0
0, 0
1, 1
1, 0
0, 0
1, 0
0, 0
0, 1
0, 0
0, 0
0, 1
0, 0
2, 0
0, 0
0, 0
0, 0
0, 0
0, 0
0, 0
1, 0
0, 0
1, 0
1, 0
0, 1
0, 0
2, 0
0, 0
1, 0
0, 0
0, 1
0, 0
1, 0
0, 0
0, 0
1, 1
1, 0
0, 0
0, 0
1, 0
0, 0
0, 1
0, 0
0, 0
0, 0
0, 0
0, 0
0, 0
1, 0
0, 1
0, 0
0, 0
0, 0
0, 1
2, 0
0, 0
0, 0
0, 0
0, 0
0, 0
0, 0
0, 0
0, 0
0, 0
0, 0
0, 1
0, 1
1, 0
0, 0
1, 0
0, 0
0, 0
0, 1
0, 0
0, 0
1, 0
0, 0
0, 0
0, 0
0, 0
0, 0
0, 0
0, 0
0, 0
0, 0
0, 0
0, 0
0, 0
0, 0
1, 0
0, 0
0, 0
0, 0
0, 0
0, 0
0, 0
0, 0
0, 0
0, 0
1, 0
0, 0
0, 0
0, 0
0, 0
0, 0
0, 0
0, 0
0, 0
0, 0
0, 0
0, 0
0, 1
0, 1
1, 1
0, 0
0, 0
0, 0
0, 0
0, 0
0, 0
0, 0
0, 0
0, 0
1, 0
0, 0
0, 0
0, 0
0, 0
0, 0
0, 0
0, 0
0, 0
0, 0
1, 0
0, 0
0, 0
0, 0
0, 1
0, 0
1, 0
0, 0
0, 0
0, 0
0, 0
0, 0
0, 0
0, 0
0, 1
0, 0
0, 0
0, 0
0, 0
0, 0
0, 0
0, 0
0, 0
0, 0
0, 0
0, 0
0, 0
0, 0
0, 0
0, 0
0, 0
0, 1
0, 0
0, 0
0, 0
0, 1
0, 0
0, 0
0, 0
0, 0
1, 0
0, 0
0, 0
0, 0
0, 0
0, 0
0, 0
0, 0
0, 0
0, 0
0, 0
0, 0
0, 0
0, 0
0, 0
0, 0
0, 0
0, 0
0, 1
0, 0
0, 0
0, 0
0, 0
0, 0
0, 0
0, 0
0, 0
0, 0
0, 0
0, 0
0, 0
0, 0
0, 0
0, 0
0, 0
0, 0
0, 0
0, 0
0, 0
0, 0
0, 0
0, 0
0, 0
0, 0
0, 0
0, 0
0, 0
0, 0
0, 0
0, 0
0, 0
0, 0
0, 0
0, 0
0, 0
0, 0
0, 0
0, 0
0, 0
0, 0
0, 0
0, 0
0, 0
0, 0
0, 0
0, 0
0, 0
0, 0
0, 0
0, 0
0, 0
0, 0
0, 0
0, 0
0, 0
0, 0
0, 0
0, 0
0, 0
0, 0
0, 0
0, 0
1, 0
0, 0
0, 0
0, 0
0, 0
0, 0
0, 0
0, 0
0, 0
0, 0
0, 0
0, 0
0, 0
0, 0
0, 0
0, 0
0, 0
0, 0
0, 0
0, 0
0, 0
0, 0
0, 0
0, 0
0, 0
0, 0
0, 0
0, 0
0, 0
0, 0
0, 0
0, 0
0, 0
0, 0
1, 0
0, 0
0, 0
0, 0
0, 0
0, 0
0, 0
0, 0
0, 0
0, 0
0, 0
0, 0
0, 0
0, 0
0, 0
0, 0
0, 0
0, 0
0, 0
0, 0
0, 0
0, 0
0, 0
0, 0
0, 0
0, 0
0, 0
0, 0
0, 0
0, 0
0, 0
0, 0
0, 0
0, 0
0, 0
0, 0
0, 0
0, 0
0, 0
0, 0
0, 0
0, 0
0, 0
0, 0
0, 0
0, 0
0, 0
0, 0
0, 0
0, 0
0, 0
0, 0
0, 0
0, 0
0, 0
0, 0
0, 0
0, 0
0, 0
0, 0
0, 0
0, 0
0, 0
0, 0
0, 0
0, 0
0, 0
0, 0
0, 0
0, 0
0, 0
0, 0
0, 0
0, 0
0, 0
0, 0
0, 0
0, 0
0, 0
0, 0
0, 0
0, 0
0, 0
0, 0
0, 0
0, 0
0, 0
0, 0
0, 0
0, 0
0, 0
0, 0
0, 0
0, 0
0, 0
0, 0
0, 0
0, 0
0, 0
0, 0
0, 0
0, 0
0, 0
0, 0
0, 0
0, 0
0, 0
0, 0
0, 0
0, 0
0, 0
0, 0
0, 0
0, 0
0, 0
0, 0
0, 0
0, 0
0, 0
0, 0
0, 0
0, 0
0, 0
0, 0
0, 0
0, 0
0, 0
0, 0
0, 0
0, 0
0, 0
0, 0
0, 0
0, 0
0, 0
0, 0
0, 0
0, 0
0, 0
0, 0
0, 0
0, 0
0, 0
0, 0
0, 0
0, 0
0, 0
0, 0
0, 0
0, 0
0, 0
0, 0
0, 0
0, 0
0, 0
0, 0
0, 0
0, 0
0, 0
0, 0
0, 0
0, 0
0, 0
0, 0
0, 0
0, 0
0, 0
0, 0
0, 0
0, 0
0, 0
0, 0
0, 0
0, 0
0, 0
0, 0
0, 0
0, 0
0, 0
0, 0
0, 0
0, 0
0, 0
0, 0
0, 0
0, 0
0, 0
0, 0
0, 0
0, 0
0, 0
0, 0
0, 0
0, 0
0, 0
0, 0
0, 0
0, 0
0, 0
0, 0
0, 0
0, 0
0, 0
0, 0
0, 0
0, 0
0, 0
0, 0
0, 0
0, 0
0, 0
0, 0
0, 0
0, 0
0, 0
0, 0
0, 0
0, 0
0, 0
0, 0
0, 0
0, 0
0, 0
0, 0
0, 0
0, 0
0, 0
0, 0
0, 0
0, 0
0, 0
0, 0
0, 0
0, 0
0, 0
0, 0
0, 0
0, 0
0, 0
0, 0
0, 0
0, 0
0, 0
0, 0
0, 0
0, 0
0, 0
0, 0
0, 0
0, 0
0, 0
0, 0
0, 0
0, 0
0, 0
0, 0
0, 0
0, 0
0, 0
0, 0
0, 0
0, 0
0, 0
0, 0
0, 0
0, 0
0, 0
0, 0
0, 0
0, 0
0, 0
0, 0
0, 0
0, 0
0, 0
0, 0
0, 0
0, 0
0, 0
0, 0
0, 0
0, 0
0, 0
0, 0
0, 0
0, 0
0, 0
0, 0
0, 0
0, 0
0, 0
0, 0
0, 0
0, 0
0, 0
0, 0
0, 0
0, 0
0, 0
0, 0
0, 0
0, 0
0, 0
0, 0
0, 0
0, 0
0, 0
0, 0
0, 0
0, 0
0, 0
0, 0
0, 0
0, 0
0, 0
0, 0
0, 0
0, 0
0, 0
0, 0
0, 0
0, 0
0, 0
0, 0
#ENDOFDATA     end of spectrum data