File: host_upload/02-11-2024/rqc/uplink1/ps__0567_0717304816_000rfs_shot_373.msa
#FORMAT      : EMSA/MAS spectral data file
#VERSION     : TC202v2.0 PIXL
#TITLE       : Novarupta (sol567) subset1
#DATE        : 02-11-2024      Date in the format DD-MMM-YYYY, for example 07-JUL-2010
#TIME        :             The time of day at which the spectrum was recorded, in 24-hour format
#OWNER       : PIXL Flight Model       (PIXL will use this to indicate which instrument took the data.)
#NPOINTS     : 4096     Number of data points in the spectrum (This can be zero for configuration only files)
#NCOLUMNS    : 2     Number of data columns in the spectrum (This can be zero for configuration only files)
#XUNITS      : eV
#YUNITS      : COUNTS
#DATATYPE    : YY
#XPERCHAN    : 7.862, 7.881   eV per channel (separate by commas if more than one detector)
#OFFSET      : 18.5, -22.4         eV of first channel  (separate by commas if more than one detector
#SIGNALTYPE  : XRF
#YP_TEMP     : 1.626
#LIVETIME    : 8.81804, 8.80201   seconds (separate by commas if more than one detector)
#REALTIME    : 10, 10.0   seconds (separate by commas if more than one detector)
#SPECTRUM    : start of spectrum data
0, 0
0, 0
0, 0
0, 0
0, 0
0, 0
0, 0
0, 0
0, 0
0, 0
0, 0
0, 0
0, 0
0, 0
0, 0
0, 0
0, 0
0, 0
0, 0
0, 0
0, 0
0, 0
0, 0
0, 0
0, 0
0, 0
0, 0
0, 0
0, 0
0, 0
0, 1
0, 0
0, 0
0, 0
3, 0
4, 0
2, 4
4, 3
4, 1
4, 11
3, 3
1, 0
0, 2
2, 3
0, 1
2, 3
3, 2
10, 2
6, 4
6, 4
6, 6
4, 10
12, 10
15, 21
13, 14
12, 16
11, 14
20, 8
14, 15
10, 10
11, 18
21, 26
50, 45
35, 53
44, 52
35, 56
32, 42
32, 34
29, 40
62, 66
106, 133
174, 220
262, 328
429, 447
453, 540
459, 539
445, 455
330, 375
232, 250
139, 151
94, 95
44, 48
27, 46
21, 35
28, 39
28, 41
36, 31
32, 31
34, 31
19, 29
23, 16
14, 16
20, 30
41, 46
86, 81
130, 165
185, 247
256, 297
329, 334
277, 284
246, 304
193, 252
140, 169
92, 109
66, 68
52, 42
59, 71
70, 73
77, 113
123, 141
176, 195
215, 238
220, 262
220, 279
194, 218
158, 219
141, 142
124, 127
104, 100
68, 93
54, 81
79, 74
49, 73
56, 58
53, 54
41, 37
28, 35
28, 25
17, 23
13, 20
16, 9
9, 13
9, 14
3, 3
8, 11
7, 8
6, 15
11, 12
18, 14
16, 30
22, 29
24, 31
26, 31
28, 27
17, 18
15, 18
9, 18
15, 10
13, 11
18, 14
19, 33
49, 69
83, 120
115, 180
185, 237
272, 336
314, 404
376, 398
345, 381
291, 358
206, 228
166, 156
100, 113
66, 73
37, 38
31, 28
21, 27
30, 40
46, 43
48, 53
52, 59
53, 61
42, 71
44, 46
31, 47
23, 24
22, 18
18, 10
9, 17
6, 10
9, 12
7, 3
7, 8
8, 13
7, 12
15, 19
21, 21
31, 32
21, 39
42, 54
45, 64
54, 65
61, 69
59, 62
54, 62
37, 41
35, 41
29, 32
20, 21
14, 20
18, 17
13, 19
17, 20
11, 16
12, 21
13, 10
12, 14
21, 19
13, 18
19, 19
14, 24
12, 8
19, 9
17, 16
14, 14
11, 16
14, 10
22, 11
9, 13
10, 10
10, 12
14, 7
17, 10
17, 18
11, 13
12, 24
18, 22
21, 22
23, 31
20, 34
25, 40
32, 30
33, 30
20, 27
19, 26
24, 13
16, 11
15, 17
8, 6
16, 6
17, 12
8, 15
7, 16
9, 22
20, 24
20, 22
23, 32
26, 35
30, 43
37, 44
44, 50
53, 54
37, 60
42, 49
36, 38
30, 33
17, 26
23, 25
12, 15
13, 17
19, 21
31, 31
42, 51
60, 90
98, 169
218, 332
371, 504
591, 763
909, 1175
1173, 1496
1505, 1767
1648, 2031
1698, 2016
1696, 1796
1455, 1561
1203, 1262
895, 864
584, 546
364, 318
220, 175
125, 96
70, 58
45, 31
20, 24
21, 8
18, 24
16, 11
15, 23
20, 26
16, 20
26, 31
38, 34
40, 58
43, 77
76, 108
124, 174
151, 196
221, 235
242, 303
249, 300
248, 285
249, 270
193, 237
178, 197
129, 132
90, 89
77, 58
46, 38
23, 20
11, 15
10, 6
6, 8
8, 6
8, 7
12, 13
17, 15
18, 16
8, 18
16, 16
8, 16
10, 10
8, 10
6, 16
10, 8
6, 13
7, 8
5, 9
1, 3
8, 12
3, 11
2, 8
10, 6
4, 6
9, 6
3, 4
6, 2
5, 6
8, 13
10, 5
9, 3
7, 11
3, 5
6, 8
3, 1
3, 5
5, 8
6, 4
6, 7
9, 9
7, 7
10, 13
6, 14
11, 4
6, 4
5, 8
8, 4
10, 7
8, 6
3, 10
2, 6
6, 9
6, 4
6, 10
10, 9
7, 17
9, 16
10, 6
9, 14
13, 7
7, 9
9, 18
8, 5
7, 9
7, 9
7, 4
4, 5
5, 4
4, 2
8, 6
6, 8
6, 6
7, 7
5, 6
6, 7
2, 6
3, 5
2, 11
4, 5
4, 5
10, 5
5, 4
7, 6
5, 5
4, 8
5, 12
4, 5
3, 4
5, 5
8, 6
6, 7
7, 6
7, 8
8, 3
5, 14
3, 9
11, 6
2, 4
4, 5
6, 5
7, 1
11, 5
1, 3
5, 5
3, 5
5, 4
7, 4
6, 2
6, 4
6, 5
3, 7
2, 4
3, 8
2, 2
6, 4
3, 9
3, 3
4, 4
5, 5
3, 8
4, 5
7, 5
4, 3
2, 5
4, 1
6, 5
5, 5
0, 5
6, 6
1, 3
5, 5
3, 7
5, 4
5, 5
5, 3
2, 2
7, 6
7, 3
2, 5
3, 1
4, 2
4, 2
4, 5
5, 7
7, 2
4, 2
5, 3
0, 4
6, 2
1, 5
2, 2
2, 2
3, 2
5, 5
2, 1
7, 6
1, 8
1, 2
2, 5
4, 2
4, 3
1, 2
4, 2
2, 3
1, 6
3, 3
3, 1
5, 2
6, 3
3, 3
2, 1
3, 3
2, 1
1, 3
3, 4
0, 2
2, 2
2, 1
3, 2
4, 3
4, 3
4, 2
3, 1
3, 4
3, 3
0, 5
4, 2
0, 5
3, 3
4, 1
5, 3
2, 2
1, 1
0, 2
6, 5
2, 2
7, 5
6, 1
2, 1
4, 6
2, 4
0, 4
6, 3
3, 3
2, 2
1, 4
3, 7
0, 0
1, 2
1, 2
2, 2
0, 6
0, 1
2, 0
1, 2
3, 2
1, 1
1, 3
5, 3
2, 3
4, 2
2, 2
1, 3
2, 5
4, 2
2, 2
1, 2
2, 1
3, 2
2, 5
3, 2
2, 3
2, 8
2, 1
5, 1
6, 1
5, 2
3, 4
1, 1
6, 0
1, 2
1, 2
2, 3
0, 1
1, 0
3, 4
1, 0
1, 0
2, 2
0, 4
1, 3
1, 2
1, 1
2, 2
3, 2
1, 1
0, 0
2, 2
1, 1
1, 1
2, 3
0, 1
2, 1
1, 5
1, 2
1, 3
0, 1
0, 1
3, 1
1, 2
0, 4
0, 1
2, 1
1, 2
2, 2
1, 3
1, 0
3, 1
1, 2
2, 4
5, 2
0, 3
1, 0
0, 1
2, 1
1, 2
1, 1
0, 1
0, 2
1, 3
1, 0
0, 1
1, 1
1, 2
0, 0
0, 2
1, 2
0, 0
1, 0
0, 2
1, 1
2, 0
1, 0
1, 0
1, 0
1, 1
0, 0
3, 2
1, 0
1, 1
1, 1
1, 1
1, 3
0, 2
1, 2
1, 0
1, 0
1, 1
2, 1
2, 2
0, 2
3, 1
0, 1
1, 3
0, 1
0, 2
0, 0
1, 0
2, 3
0, 0
0, 0
0, 0
1, 0
0, 0
0, 0
0, 1
0, 0
1, 0
3, 1
0, 1
0, 0
1, 1
0, 2
1, 0
0, 0
0, 0
1, 0
0, 1
0, 0
0, 0
0, 2
1, 1
0, 0
0, 0
0, 1
1, 0
0, 1
0, 1
0, 0
1, 1
0, 2
0, 0
0, 0
1, 1
0, 0
1, 0
0, 0
0, 0
1, 1
1, 3
0, 0
0, 0
0, 1
0, 2
0, 1
1, 1
0, 0
0, 1
1, 2
0, 1
1, 0
0, 0
0, 0
0, 3
0, 0
0, 0
0, 0
0, 0
0, 0
0, 0
2, 0
0, 0
0, 0
0, 1
1, 0
1, 0
0, 1
1, 0
0, 0
0, 0
1, 0
0, 0
0, 0
0, 1
1, 0
0, 0
0, 0
1, 0
0, 1
1, 2
0, 0
0, 0
1, 0
0, 0
0, 0
0, 0
1, 1
1, 0
0, 1
1, 0
0, 0
0, 1
0, 1
0, 0
1, 0
0, 0
0, 0
1, 1
1, 0
0, 1
1, 0
0, 2
0, 0
0, 0
0, 0
0, 0
0, 0
0, 0
1, 0
0, 1
2, 0
0, 1
0, 0
1, 0
2, 0
0, 0
0, 0
0, 0
0, 0
0, 1
0, 0
1, 0
0, 0
0, 0
0, 0
0, 0
0, 0
0, 0
0, 0
0, 1
0, 1
0, 0
0, 1
2, 0
0, 1
2, 0
0, 2
0, 0
0, 0
1, 0
0, 0
0, 1
0, 1
0, 0
1, 0
0, 0
0, 0
0, 0
0, 0
0, 0
1, 0
0, 1
1, 0
0, 0
0, 0
0, 1
0, 0
0, 0
0, 0
0, 1
1, 0
0, 0
0, 0
0, 0
0, 0
0, 0
0, 0
0, 0
0, 1
0, 1
0, 0
0, 0
0, 1
0, 0
0, 0
0, 0
0, 0
0, 0
0, 0
1, 0
0, 1
0, 0
0, 1
0, 0
0, 0
0, 0
0, 0
2, 0
0, 0
0, 0
0, 0
0, 0
0, 0
0, 0
0, 0
0, 0
0, 1
0, 1
0, 0
1, 0
0, 1
0, 0
0, 0
0, 0
0, 0
0, 0
0, 0
0, 0
0, 0
0, 0
0, 0
0, 1
0, 0
0, 0
1, 0
0, 0
0, 0
0, 2
0, 0
0, 0
0, 0
0, 0
0, 0
0, 0
0, 0
0, 1
0, 1
0, 1
0, 0
0, 0
0, 0
0, 0
0, 0
0, 0
0, 0
0, 0
0, 0
0, 0
0, 0
0, 0
0, 0
0, 0
0, 1
0, 0
0, 0
0, 0
0, 0
0, 0
0, 0
0, 1
0, 0
0, 0
0, 0
0, 0
0, 0
0, 0
0, 0
0, 0
0, 0
0, 0
0, 0
0, 0
0, 0
0, 0
0, 0
0, 0
0, 0
1, 0
0, 0
0, 0
0, 0
0, 0
0, 1
0, 0
0, 0
0, 0
0, 0
0, 0
1, 0
0, 0
0, 0
0, 0
0, 0
0, 0
0, 0
0, 0
0, 0
0, 0
0, 0
0, 0
0, 0
0, 0
0, 0
0, 0
0, 0
0, 0
0, 0
0, 0
0, 0
0, 0
0, 0
0, 0
0, 0
0, 0
0, 0
0, 0
0, 0
0, 0
0, 0
0, 0
0, 0
0, 0
0, 0
0, 0
0, 0
0, 0
0, 0
0, 0
0, 0
0, 0
0, 0
0, 1
0, 0
0, 0
0, 0
0, 0
0, 0
0, 0
0, 0
0, 0
0, 0
0, 0
0, 0
0, 0
0, 1
0, 0
0, 0
0, 0
0, 0
0, 0
0, 0
0, 0
0, 0
1, 0
0, 0
0, 0
0, 0
0, 0
0, 0
0, 0
0, 0
0, 0
0, 0
0, 0
0, 0
0, 0
0, 0
0, 0
0, 0
0, 0
0, 0
0, 0
0, 0
0, 0
0, 0
0, 0
0, 0
0, 0
0, 0
0, 0
0, 0
0, 0
0, 0
0, 0
0, 0
0, 0
0, 0
0, 0
0, 0
0, 0
0, 0
0, 0
0, 0
0, 0
0, 0
0, 0
0, 0
0, 0
0, 0
0, 0
0, 0
0, 0
0, 0
0, 0
0, 0
0, 0
0, 0
0, 0
0, 0
0, 0
0, 0
0, 0
0, 0
0, 0
0, 0
0, 0
0, 0
0, 0
0, 0
0, 0
0, 0
0, 0
0, 0
0, 0
0, 0
0, 0
0, 0
0, 0
0, 0
0, 0
0, 0
0, 0
0, 0
0, 0
0, 0
0, 0
0, 0
0, 0
0, 0
0, 0
0, 0
0, 0
0, 0
0, 0
0, 0
0, 0
0, 0
0, 0
0, 0
0, 0
0, 0
0, 0
0, 0
0, 0
0, 0
0, 0
0, 0
0, 0
0, 0
0, 0
0, 0
0, 0
0, 0
0, 0
0, 0
0, 0
0, 0
0, 0
0, 0
0, 0
0, 0
0, 0
0, 0
0, 0
0, 0
0, 0
0, 0
0, 0
0, 0
0, 0
0, 0
0, 0
0, 0
0, 0
0, 0
0, 0
0, 0
0, 0
0, 0
0, 0
0, 0
0, 0
0, 0
0, 0
0, 0
0, 0
0, 0
0, 0
0, 0
0, 0
0, 0
0, 0
0, 0
0, 0
0, 0
0, 0
0, 0
0, 0
0, 0
0, 0
0, 0
0, 0
0, 0
0, 0
0, 0
0, 0
0, 0
0, 0
0, 0
0, 0
0, 0
0, 0
0, 0
0, 0
0, 0
0, 0
0, 0
0, 0
0, 0
0, 0
0, 0
0, 0
0, 0
0, 0
0, 0
0, 0
0, 0
0, 0
0, 0
0, 0
0, 0
0, 0
0, 0
0, 0
0, 0
0, 0
0, 0
0, 0
0, 0
0, 0
0, 0
0, 0
0, 0
0, 0
0, 0
0, 0
0, 0
0, 0
0, 0
0, 0
0, 0
0, 0
0, 0
0, 0
0, 0
0, 0
0, 0
0, 0
0, 0
0, 0
0, 0
0, 0
0, 0
0, 0
0, 0
0, 0
0, 0
0, 0
0, 0
0, 0
0, 0
0, 0
0, 0
0, 0
0, 0
0, 0
0, 0
0, 0
0, 0
0, 0
0, 0
0, 0
0, 0
0, 0
0, 0
0, 0
0, 0
0, 0
0, 0
0, 0
0, 0
0, 0
0, 0
0, 0
0, 0
0, 0
0, 0
0, 0
0, 0
0, 0
0, 0
0, 0
0, 0
0, 0
0, 0
0, 0
0, 0
0, 0
0, 0
0, 0
0, 0
0, 0
0, 0
0, 0
0, 0
0, 0
0, 0
0, 0
0, 0
0, 0
0, 0
0, 0
0, 0
0, 0
0, 0
0, 0
0, 0
0, 0
0, 0
0, 0
0, 0
0, 0
0, 0
0, 0
0, 0
0, 0
0, 0
0, 0
0, 0
0, 0
0, 0
0, 0
0, 0
0, 0
0, 0
0, 0
0, 0
0, 0
0, 0
0, 0
0, 0
0, 0
0, 0
0, 0
0, 0
0, 0
0, 0
0, 0
0, 0
0, 0
0, 0
0, 0
0, 0
0, 0
0, 0
0, 0
0, 0
0, 0
0, 0
0, 0
0, 0
0, 0
0, 0
0, 0
0, 0
0, 0
0, 0
0, 0
0, 0
0, 0
0, 0
0, 0
0, 0
0, 0
0, 0
0, 0
0, 0
0, 0
0, 0
0, 0
0, 0
0, 0
0, 0
0, 0
0, 0
0, 0
0, 0
0, 0
0, 0
0, 0
0, 0
0, 0
0, 0
0, 0
0, 0
0, 0
0, 0
0, 0
0, 0
0, 0
0, 0
0, 0
0, 0
0, 0
0, 0
0, 0
0, 0
0, 0
0, 0
0, 0
0, 0
0, 0
0, 0
0, 0
0, 0
0, 0
0, 0
#ENDOFDATA     end of spectrum data