File: host_upload/02-11-2024/rqc/uplink1/ps__0567_0717304816_000rfs_shot_476.msa
#FORMAT      : EMSA/MAS spectral data file
#VERSION     : TC202v2.0 PIXL
#TITLE       : Novarupta (sol567) subset1
#DATE        : 02-11-2024      Date in the format DD-MMM-YYYY, for example 07-JUL-2010
#TIME        :             The time of day at which the spectrum was recorded, in 24-hour format
#OWNER       : PIXL Flight Model       (PIXL will use this to indicate which instrument took the data.)
#NPOINTS     : 4096     Number of data points in the spectrum (This can be zero for configuration only files)
#NCOLUMNS    : 2     Number of data columns in the spectrum (This can be zero for configuration only files)
#XUNITS      : eV
#YUNITS      : COUNTS
#DATATYPE    : YY
#XPERCHAN    : 7.862, 7.881   eV per channel (separate by commas if more than one detector)
#OFFSET      : 18.5, -22.4         eV of first channel  (separate by commas if more than one detector
#SIGNALTYPE  : XRF
#YP_TEMP     : 1.915
#LIVETIME    : 8.82054, 8.8218   seconds (separate by commas if more than one detector)
#REALTIME    : 10, 10.0   seconds (separate by commas if more than one detector)
#SPECTRUM    : start of spectrum data
0, 0
0, 0
0, 0
0, 0
0, 0
0, 0
0, 0
0, 0
0, 0
0, 0
0, 0
0, 0
0, 0
0, 0
0, 0
0, 0
0, 0
0, 0
0, 0
0, 0
0, 0
0, 0
0, 0
0, 0
0, 0
0, 0
0, 0
0, 0
0, 0
0, 0
0, 0
0, 0
0, 2
2, 2
0, 0
0, 2
1, 3
1, 3
2, 3
3, 1
3, 4
3, 3
1, 4
1, 1
3, 1
6, 2
3, 4
1, 3
3, 1
5, 3
2, 4
7, 7
14, 9
21, 16
22, 20
24, 19
6, 12
9, 16
14, 5
8, 9
21, 15
21, 11
48, 26
42, 37
52, 51
61, 43
32, 28
31, 34
42, 35
55, 61
106, 109
215, 200
339, 298
399, 432
485, 506
511, 515
456, 407
326, 324
230, 201
137, 135
81, 79
48, 43
33, 35
32, 37
31, 29
40, 40
30, 24
31, 25
30, 33
22, 20
18, 16
19, 7
29, 26
48, 42
85, 80
134, 143
231, 203
264, 292
300, 316
316, 309
297, 275
259, 204
169, 146
102, 111
50, 60
54, 62
65, 53
75, 64
93, 77
132, 126
168, 181
220, 225
251, 248
225, 245
202, 213
190, 167
142, 138
111, 111
85, 90
86, 80
79, 97
97, 79
67, 64
56, 66
48, 46
45, 41
26, 34
23, 27
16, 12
18, 11
9, 9
5, 7
6, 7
9, 9
10, 3
8, 10
14, 15
20, 16
20, 18
26, 25
40, 28
38, 41
33, 25
32, 27
28, 22
12, 11
7, 7
12, 13
9, 10
13, 12
35, 26
55, 46
73, 96
137, 132
160, 207
265, 291
316, 344
351, 360
406, 344
318, 311
226, 213
155, 136
127, 108
68, 62
45, 36
24, 21
23, 35
26, 36
29, 44
44, 47
41, 59
70, 55
56, 54
44, 38
44, 32
25, 25
17, 14
16, 17
12, 8
6, 9
12, 8
8, 12
2, 12
6, 16
10, 14
13, 13
19, 22
21, 24
29, 30
46, 44
46, 58
45, 56
56, 53
58, 57
51, 60
57, 47
37, 40
41, 20
26, 28
13, 19
18, 24
13, 12
12, 16
15, 5
13, 13
9, 15
16, 14
16, 20
17, 21
20, 32
19, 24
16, 27
19, 16
16, 11
21, 17
12, 9
17, 13
7, 6
14, 6
8, 15
13, 7
12, 18
11, 19
16, 19
13, 10
16, 15
18, 12
25, 33
34, 29
24, 22
32, 33
40, 41
32, 30
19, 26
16, 20
19, 16
18, 13
16, 8
12, 10
12, 11
10, 12
11, 11
9, 11
17, 10
17, 21
18, 18
29, 31
33, 29
44, 40
48, 54
43, 49
62, 50
41, 43
54, 40
36, 38
26, 29
32, 21
14, 20
20, 22
17, 17
20, 19
26, 30
44, 32
67, 84
129, 115
203, 257
378, 414
543, 612
865, 999
1140, 1248
1445, 1580
1662, 1801
1770, 1820
1698, 1650
1519, 1455
1262, 1122
919, 800
660, 537
403, 322
234, 174
118, 106
93, 71
41, 35
21, 25
15, 18
29, 17
21, 10
11, 14
24, 13
21, 18
15, 26
39, 28
37, 45
66, 60
78, 90
124, 123
158, 183
191, 244
240, 239
269, 289
295, 289
257, 235
220, 234
183, 179
147, 129
91, 104
68, 52
41, 30
23, 17
17, 15
13, 8
7, 9
9, 8
3, 7
6, 20
8, 13
11, 9
13, 13
9, 9
14, 14
13, 3
9, 11
8, 7
12, 5
6, 7
8, 10
3, 9
7, 3
11, 2
5, 5
6, 5
6, 5
5, 3
6, 2
7, 5
7, 8
7, 8
4, 7
5, 2
10, 8
3, 7
9, 2
5, 9
4, 3
10, 6
13, 6
6, 6
6, 7
5, 7
4, 5
6, 13
9, 6
6, 5
6, 10
4, 4
8, 5
2, 4
7, 8
7, 7
1, 8
10, 9
4, 5
5, 7
8, 8
10, 9
9, 15
17, 10
11, 10
8, 13
9, 12
8, 6
11, 8
4, 7
9, 6
6, 9
7, 8
5, 3
5, 7
3, 7
5, 5
7, 4
3, 4
6, 5
5, 8
2, 3
11, 6
6, 5
4, 0
5, 5
7, 3
5, 5
8, 6
6, 4
7, 4
4, 6
2, 7
6, 4
6, 5
11, 6
11, 10
5, 4
6, 4
2, 4
3, 9
1, 6
4, 6
8, 11
3, 4
7, 9
4, 4
8, 8
7, 3
5, 2
6, 4
4, 5
4, 2
5, 8
4, 4
1, 4
3, 6
5, 4
4, 9
5, 7
8, 4
9, 3
3, 2
4, 6
6, 4
3, 6
3, 5
0, 2
5, 4
3, 4
8, 8
1, 4
5, 5
7, 2
2, 9
5, 4
4, 2
5, 2
7, 6
3, 4
4, 2
2, 2
5, 3
5, 4
4, 3
1, 6
4, 2
5, 4
3, 2
5, 1
5, 6
2, 5
4, 3
3, 1
1, 1
4, 4
3, 3
1, 3
3, 4
4, 0
4, 4
2, 2
3, 3
4, 2
6, 3
2, 0
1, 2
2, 3
0, 4
2, 1
3, 3
4, 2
3, 5
4, 3
2, 1
4, 6
5, 5
1, 4
4, 1
3, 2
3, 6
2, 3
1, 4
3, 1
5, 4
2, 2
4, 2
4, 1
2, 5
4, 1
3, 2
1, 4
2, 2
0, 4
2, 2
0, 3
1, 1
3, 1
1, 1
4, 4
3, 2
4, 1
2, 0
1, 3
6, 1
2, 0
1, 1
1, 2
1, 1
1, 0
0, 0
3, 5
4, 0
3, 1
2, 3
0, 4
4, 1
6, 2
3, 2
2, 4
2, 1
2, 4
1, 4
3, 4
0, 4
0, 2
0, 1
3, 2
5, 1
4, 2
2, 0
2, 3
2, 6
4, 2
5, 2
5, 4
4, 3
0, 2
5, 2
4, 2
2, 4
10, 1
0, 3
2, 3
2, 2
2, 2
1, 0
4, 1
1, 5
0, 0
1, 5
2, 3
1, 2
3, 1
1, 2
1, 3
2, 4
3, 0
0, 0
1, 2
1, 0
3, 3
0, 3
2, 4
4, 1
4, 2
4, 2
0, 2
1, 1
1, 3
0, 2
2, 0
1, 1
3, 1
1, 1
1, 0
1, 1
0, 2
1, 0
2, 2
2, 0
0, 2
3, 1
2, 3
2, 1
1, 2
1, 0
0, 1
1, 1
2, 2
1, 1
1, 2
1, 2
0, 4
1, 0
0, 1
0, 3
1, 2
1, 2
1, 2
1, 5
2, 0
0, 0
2, 2
1, 2
3, 0
0, 2
1, 2
0, 1
1, 2
1, 0
1, 2
0, 0
0, 0
2, 0
0, 2
1, 0
0, 1
3, 1
0, 1
0, 0
0, 0
1, 2
0, 1
3, 1
0, 2
1, 0
1, 3
2, 1
1, 0
1, 1
0, 0
1, 0
2, 0
2, 1
1, 0
0, 0
0, 0
0, 2
0, 0
2, 0
2, 0
1, 0
0, 1
0, 0
0, 1
0, 1
1, 1
2, 0
0, 1
1, 1
0, 0
3, 0
0, 1
2, 2
2, 1
0, 0
1, 0
0, 1
0, 1
0, 1
0, 0
0, 1
1, 0
0, 0
1, 0
0, 2
0, 1
0, 0
0, 0
0, 0
0, 0
2, 0
1, 0
0, 0
1, 0
0, 1
2, 0
0, 1
1, 1
0, 1
0, 1
0, 1
0, 0
0, 0
0, 0
0, 0
0, 0
0, 0
0, 0
1, 0
0, 1
1, 1
0, 0
1, 1
0, 0
0, 1
0, 0
0, 0
0, 0
0, 0
0, 0
0, 1
0, 0
0, 0
0, 1
2, 0
0, 0
0, 2
0, 1
1, 0
0, 1
1, 2
0, 3
0, 0
0, 0
0, 0
0, 0
0, 1
0, 0
0, 2
0, 0
0, 0
1, 0
0, 1
0, 0
0, 0
0, 0
1, 0
0, 0
0, 0
1, 0
1, 1
0, 1
0, 0
0, 1
1, 0
1, 0
0, 1
0, 0
0, 0
0, 0
1, 0
0, 0
0, 0
0, 1
0, 0
0, 0
0, 0
0, 0
1, 0
0, 0
0, 0
0, 1
0, 0
0, 1
0, 0
0, 0
0, 1
0, 1
0, 1
0, 0
0, 0
0, 0
1, 0
0, 0
1, 0
0, 0
0, 0
1, 0
0, 1
1, 1
0, 0
0, 0
1, 0
0, 1
1, 0
0, 0
0, 0
1, 0
0, 1
0, 0
0, 1
0, 0
0, 0
1, 1
0, 1
0, 0
0, 0
0, 0
1, 0
0, 0
1, 0
0, 1
0, 0
0, 0
0, 1
0, 0
0, 0
0, 0
0, 0
0, 0
0, 1
0, 0
0, 0
0, 0
0, 1
0, 0
0, 1
0, 0
0, 0
0, 1
0, 0
0, 0
0, 0
1, 0
0, 0
0, 0
0, 0
0, 1
0, 0
0, 0
0, 0
0, 0
0, 0
0, 0
0, 0
0, 0
0, 0
1, 0
0, 0
0, 0
0, 0
0, 1
0, 0
0, 0
0, 0
0, 0
0, 0
0, 0
1, 1
0, 0
1, 0
0, 0
0, 0
0, 0
0, 0
0, 0
0, 0
1, 0
0, 0
1, 0
0, 1
1, 0
0, 0
0, 0
0, 0
0, 0
0, 0
1, 1
0, 0
0, 0
0, 1
0, 0
1, 0
0, 0
1, 0
0, 0
0, 0
0, 0
0, 0
0, 0
0, 0
0, 0
0, 0
0, 0
0, 1
0, 0
0, 0
0, 0
0, 0
1, 0
0, 0
0, 0
0, 0
0, 0
0, 1
1, 1
0, 0
0, 0
0, 1
0, 0
0, 1
0, 0
1, 0
0, 0
0, 0
0, 1
0, 0
0, 0
0, 0
0, 0
0, 0
0, 0
0, 0
0, 0
1, 0
0, 0
0, 0
0, 0
0, 0
0, 0
0, 0
0, 0
0, 0
0, 0
0, 1
0, 0
0, 0
0, 0
0, 1
0, 0
0, 0
0, 0
0, 0
0, 0
0, 0
0, 0
0, 0
0, 0
0, 0
0, 0
0, 0
0, 0
0, 0
0, 0
0, 0
0, 0
0, 0
0, 0
0, 0
0, 0
0, 0
0, 0
0, 0
0, 0
0, 0
0, 0
0, 1
0, 0
0, 0
0, 1
0, 0
0, 0
0, 0
0, 0
0, 0
0, 0
0, 0
0, 0
0, 1
0, 0
0, 0
0, 0
0, 0
0, 0
0, 0
0, 0
0, 0
0, 0
0, 0
0, 0
1, 0
0, 0
0, 0
0, 0
0, 0
0, 0
0, 0
0, 0
0, 0
0, 0
0, 0
0, 0
0, 0
0, 0
1, 0
0, 0
0, 0
0, 0
0, 0
0, 0
0, 0
0, 0
0, 0
0, 0
0, 0
0, 0
0, 0
0, 0
0, 0
0, 0
0, 0
0, 0
0, 0
0, 0
0, 0
0, 0
0, 0
0, 0
0, 0
0, 0
0, 0
0, 0
0, 0
0, 0
0, 0
0, 0
0, 0
0, 0
0, 0
0, 0
0, 0
0, 0
0, 0
0, 0
0, 0
0, 0
0, 0
0, 0
0, 0
0, 0
0, 0
0, 0
0, 0
0, 0
0, 0
0, 0
0, 0
0, 0
0, 0
0, 0
0, 0
0, 0
0, 0
0, 0
0, 0
0, 0
0, 0
0, 0
0, 0
0, 0
0, 0
0, 0
0, 0
0, 0
0, 0
0, 0
0, 0
0, 0
0, 0
0, 0
0, 0
0, 0
0, 0
0, 0
0, 0
0, 0
0, 0
0, 0
0, 0
0, 0
0, 0
0, 0
0, 0
0, 0
0, 0
0, 0
0, 0
0, 0
0, 0
0, 0
0, 0
0, 0
0, 0
0, 0
0, 0
0, 0
0, 0
0, 0
0, 0
0, 0
0, 0
0, 0
0, 0
0, 0
0, 0
0, 0
0, 0
0, 0
0, 0
0, 0
0, 0
0, 0
0, 0
0, 0
0, 0
0, 0
0, 0
0, 0
0, 0
0, 0
0, 0
0, 0
0, 0
0, 0
0, 0
0, 0
0, 0
0, 0
0, 0
0, 0
0, 0
0, 0
0, 0
0, 0
0, 0
0, 0
0, 0
0, 0
0, 0
0, 0
0, 0
0, 0
0, 0
0, 0
0, 0
0, 0
0, 0
0, 0
0, 0
0, 0
0, 0
0, 0
0, 0
0, 0
0, 0
0, 0
0, 0
0, 0
0, 0
0, 0
0, 0
0, 0
0, 0
0, 0
0, 0
0, 0
0, 0
0, 0
0, 0
0, 0
0, 0
0, 0
0, 0
0, 0
0, 0
0, 0
0, 0
0, 0
0, 0
0, 0
0, 0
0, 0
0, 0
0, 0
0, 0
0, 0
0, 0
0, 0
0, 0
0, 0
0, 0
0, 0
0, 0
0, 0
0, 0
0, 0
0, 0
0, 0
0, 0
0, 0
0, 0
0, 0
0, 0
0, 0
0, 0
0, 0
0, 0
0, 0
0, 0
0, 0
0, 0
0, 0
0, 0
0, 0
0, 0
0, 0
0, 0
0, 0
0, 0
0, 0
0, 0
0, 0
0, 0
0, 0
0, 0
0, 0
0, 0
0, 0
0, 0
0, 0
0, 0
0, 0
0, 0
0, 0
0, 0
0, 0
0, 0
0, 0
0, 0
0, 0
0, 0
0, 0
0, 0
0, 0
0, 0
0, 0
0, 0
0, 0
0, 0
0, 0
0, 0
0, 0
0, 0
0, 0
0, 0
0, 0
0, 0
0, 0
0, 0
0, 0
0, 0
0, 0
0, 0
0, 0
0, 0
0, 0
0, 0
0, 0
0, 0
0, 0
0, 0
0, 0
0, 0
0, 0
0, 0
0, 0
0, 0
0, 0
0, 0
0, 0
0, 0
0, 0
0, 0
0, 0
0, 0
0, 0
0, 0
0, 0
0, 0
0, 0
0, 0
0, 0
0, 0
0, 0
0, 0
0, 0
0, 0
0, 0
0, 0
0, 0
0, 0
0, 0
0, 0
0, 0
0, 0
0, 0
0, 0
0, 0
0, 0
0, 0
0, 0
0, 0
0, 0
0, 0
0, 0
0, 0
0, 0
0, 0
0, 0
0, 0
0, 0
0, 0
0, 0
0, 0
0, 0
0, 0
0, 0
0, 0
0, 0
0, 0
0, 0
0, 0
0, 0
0, 0
0, 0
0, 0
0, 0
0, 0
0, 0
0, 0
0, 0
0, 0
0, 0
0, 0
0, 0
0, 0
0, 0
0, 0
0, 0
0, 0
0, 0
0, 0
0, 0
0, 0
0, 0
0, 0
0, 0
0, 0
0, 0
0, 0
0, 0
0, 0
0, 0
0, 0
0, 0
0, 0
0, 0
0, 0
0, 0
0, 0
0, 0
#ENDOFDATA     end of spectrum data