File: host_upload/02-11-2024/rqc/uplink1/ps__0567_0717304816_000rfs_shot_252.msa
#FORMAT      : EMSA/MAS spectral data file
#VERSION     : TC202v2.0 PIXL
#TITLE       : Novarupta (sol567) subset1
#DATE        : 02-11-2024      Date in the format DD-MMM-YYYY, for example 07-JUL-2010
#TIME        :             The time of day at which the spectrum was recorded, in 24-hour format
#OWNER       : PIXL Flight Model       (PIXL will use this to indicate which instrument took the data.)
#NPOINTS     : 4096     Number of data points in the spectrum (This can be zero for configuration only files)
#NCOLUMNS    : 2     Number of data columns in the spectrum (This can be zero for configuration only files)
#XUNITS      : eV
#YUNITS      : COUNTS
#DATATYPE    : YY
#XPERCHAN    : 7.862, 7.881   eV per channel (separate by commas if more than one detector)
#OFFSET      : 18.5, -22.4         eV of first channel  (separate by commas if more than one detector
#SIGNALTYPE  : XRF
#YP_TEMP     : 1.177
#LIVETIME    : 8.82313, 8.82171   seconds (separate by commas if more than one detector)
#REALTIME    : 10, 10.0   seconds (separate by commas if more than one detector)
#SPECTRUM    : start of spectrum data
0, 0
0, 0
0, 0
0, 0
0, 0
0, 0
0, 0
0, 0
0, 0
0, 0
0, 0
0, 0
0, 0
0, 0
0, 0
0, 0
0, 0
0, 0
0, 0
0, 0
0, 0
0, 0
0, 0
0, 0
0, 0
0, 0
0, 0
0, 0
0, 0
0, 0
1, 0
0, 1
0, 0
0, 0
1, 0
1, 3
3, 4
3, 0
7, 3
3, 5
4, 4
2, 4
4, 1
5, 5
4, 3
3, 6
2, 2
3, 6
3, 5
6, 4
8, 10
8, 9
11, 14
15, 11
16, 15
11, 14
16, 11
12, 13
11, 19
9, 8
23, 17
27, 33
40, 36
59, 35
45, 49
55, 51
36, 35
32, 40
40, 41
58, 62
99, 117
196, 218
323, 317
422, 470
481, 485
445, 531
422, 452
328, 325
228, 231
153, 153
86, 66
41, 41
30, 32
29, 29
34, 37
24, 35
32, 33
30, 43
31, 35
18, 14
15, 21
19, 14
26, 30
41, 53
82, 76
129, 122
198, 203
223, 248
257, 305
311, 321
236, 240
197, 199
155, 147
99, 96
68, 58
63, 44
60, 50
64, 67
96, 122
159, 142
179, 165
201, 214
238, 225
226, 239
223, 206
178, 177
150, 149
114, 109
76, 88
94, 85
76, 95
68, 77
70, 50
56, 65
50, 62
36, 46
25, 29
23, 26
17, 17
19, 20
8, 15
10, 8
11, 12
3, 6
7, 11
6, 12
14, 11
12, 22
17, 27
25, 22
22, 26
33, 24
27, 23
24, 32
17, 28
18, 13
15, 14
10, 10
12, 7
7, 23
19, 32
49, 56
82, 100
136, 177
195, 229
273, 318
349, 358
398, 382
340, 383
299, 321
210, 209
149, 163
98, 101
76, 62
28, 33
24, 26
20, 26
36, 29
37, 49
50, 57
74, 63
54, 62
52, 43
47, 49
33, 44
25, 26
24, 17
11, 13
8, 7
8, 10
7, 9
19, 11
13, 7
11, 14
9, 10
12, 12
16, 17
29, 20
36, 26
41, 47
58, 63
69, 63
56, 67
67, 73
42, 57
59, 43
29, 32
31, 30
20, 17
20, 22
18, 19
23, 14
14, 11
15, 13
13, 9
13, 12
17, 10
19, 19
17, 22
26, 16
25, 15
18, 17
24, 17
23, 11
20, 11
17, 12
10, 16
13, 6
11, 16
7, 11
12, 14
14, 17
11, 12
18, 19
16, 13
24, 22
15, 32
24, 15
31, 28
28, 35
40, 38
34, 31
24, 25
27, 33
26, 15
19, 15
16, 22
8, 11
9, 8
7, 10
13, 12
10, 18
15, 12
19, 15
10, 17
25, 32
19, 34
25, 33
42, 45
36, 43
65, 54
49, 54
48, 58
40, 29
31, 26
34, 35
26, 24
17, 20
18, 10
29, 24
19, 27
24, 32
30, 56
66, 86
122, 178
200, 292
370, 509
591, 696
873, 1067
1165, 1395
1485, 1703
1750, 1759
1832, 1915
1704, 1705
1422, 1462
1182, 1155
842, 738
623, 545
368, 283
210, 155
126, 95
72, 59
43, 30
29, 13
17, 22
16, 20
10, 24
17, 20
19, 20
18, 28
29, 24
30, 31
42, 54
61, 74
75, 122
109, 153
156, 197
190, 221
249, 251
283, 275
249, 313
271, 232
244, 244
194, 169
157, 113
105, 70
66, 51
31, 32
21, 23
21, 8
11, 5
9, 11
7, 10
10, 8
13, 9
3, 14
12, 9
9, 13
8, 8
4, 14
12, 14
13, 16
6, 5
6, 11
7, 11
6, 6
6, 6
1, 13
9, 2
9, 2
8, 7
3, 6
7, 10
5, 10
7, 2
6, 7
7, 4
4, 5
6, 7
6, 7
4, 6
11, 7
8, 4
8, 11
4, 7
5, 10
7, 4
6, 5
10, 6
8, 5
8, 10
2, 10
12, 8
8, 11
2, 10
6, 6
4, 3
5, 5
5, 7
2, 8
8, 5
9, 9
8, 6
10, 9
13, 9
10, 9
13, 10
10, 16
13, 12
8, 12
3, 11
8, 6
7, 8
5, 8
6, 5
6, 7
2, 4
3, 5
4, 5
5, 5
3, 7
2, 4
9, 4
13, 8
8, 3
7, 5
7, 7
8, 6
3, 3
2, 7
4, 7
8, 7
4, 5
5, 8
6, 4
3, 4
2, 6
6, 10
1, 11
4, 4
4, 4
2, 9
8, 9
4, 5
7, 11
4, 5
3, 7
3, 5
4, 7
5, 6
4, 9
4, 4
3, 3
5, 2
1, 2
4, 6
9, 4
7, 7
8, 4
9, 5
5, 8
3, 5
5, 3
1, 3
4, 5
1, 7
6, 9
5, 6
4, 6
5, 5
7, 6
2, 4
4, 3
3, 9
4, 3
4, 3
4, 2
5, 4
2, 2
4, 7
4, 4
0, 8
3, 6
7, 2
4, 4
1, 6
2, 6
4, 2
3, 8
0, 3
2, 4
3, 4
7, 2
4, 3
7, 3
7, 5
2, 4
2, 2
4, 3
2, 6
5, 4
0, 5
3, 2
5, 2
3, 1
3, 0
4, 2
3, 7
1, 6
1, 2
0, 1
1, 0
1, 1
3, 1
4, 4
3, 4
4, 4
4, 3
3, 6
2, 4
6, 5
4, 0
3, 1
3, 4
4, 3
2, 3
3, 2
0, 1
3, 2
2, 3
5, 0
1, 2
1, 4
6, 2
3, 5
4, 3
3, 1
2, 1
2, 2
0, 1
0, 6
2, 3
2, 2
3, 2
1, 1
3, 2
1, 3
4, 1
2, 2
0, 3
3, 3
6, 3
4, 1
1, 3
0, 3
4, 1
4, 2
1, 2
1, 2
2, 3
2, 3
3, 0
1, 0
2, 2
2, 1
5, 3
2, 3
0, 3
1, 2
3, 2
1, 3
5, 1
2, 4
2, 0
2, 6
0, 0
0, 5
2, 4
1, 7
4, 5
2, 5
2, 1
2, 5
1, 3
4, 4
4, 1
5, 4
1, 2
1, 2
2, 2
0, 1
1, 1
3, 3
2, 2
0, 1
0, 3
1, 0
3, 2
3, 3
1, 0
0, 1
3, 2
2, 1
2, 2
1, 2
2, 1
1, 4
0, 1
1, 3
0, 4
2, 0
1, 4
0, 3
0, 1
0, 1
2, 1
2, 0
2, 0
1, 1
1, 0
0, 1
1, 1
1, 3
0, 1
4, 2
1, 1
1, 1
2, 2
2, 2
0, 0
1, 0
1, 0
2, 1
5, 0
2, 1
1, 0
0, 1
1, 2
2, 1
1, 1
0, 2
0, 0
0, 1
0, 0
0, 0
0, 1
0, 0
0, 2
0, 3
0, 0
1, 3
2, 0
0, 1
0, 0
0, 2
1, 1
0, 1
0, 0
1, 2
1, 2
0, 1
0, 1
3, 1
0, 0
2, 1
1, 3
0, 1
0, 0
0, 2
0, 1
2, 0
1, 1
3, 1
1, 1
1, 0
0, 0
3, 0
3, 0
2, 0
0, 0
0, 1
0, 0
1, 0
0, 1
2, 3
1, 1
0, 0
2, 0
0, 1
0, 0
1, 1
1, 1
1, 2
1, 0
0, 0
1, 0
1, 1
0, 1
1, 2
0, 0
2, 3
0, 0
0, 0
0, 0
1, 0
1, 0
2, 1
0, 0
0, 0
0, 0
0, 0
0, 0
0, 0
1, 0
0, 1
0, 3
0, 1
0, 2
1, 0
2, 1
1, 1
1, 0
0, 3
2, 0
0, 2
1, 0
1, 0
1, 1
1, 2
0, 0
1, 0
0, 1
1, 0
0, 0
0, 0
1, 1
2, 1
0, 0
0, 0
0, 0
0, 1
0, 0
2, 0
1, 0
0, 1
0, 0
0, 0
0, 0
1, 0
0, 1
0, 0
0, 0
0, 2
0, 0
0, 1
0, 0
0, 1
0, 0
0, 0
1, 0
0, 0
0, 0
0, 0
0, 0
0, 1
1, 1
0, 1
0, 0
1, 0
1, 0
0, 0
0, 0
0, 0
0, 1
0, 0
0, 0
0, 0
0, 2
0, 0
1, 0
0, 0
0, 0
1, 0
1, 1
0, 0
0, 0
0, 2
0, 0
0, 1
0, 0
0, 1
0, 0
0, 1
0, 0
0, 0
0, 0
2, 0
1, 1
0, 0
1, 1
0, 0
0, 0
0, 0
0, 0
0, 1
0, 1
0, 0
0, 0
1, 0
0, 0
0, 0
0, 0
0, 1
0, 0
0, 0
0, 0
0, 0
1, 0
1, 0
0, 0
0, 0
1, 0
0, 0
0, 0
0, 1
1, 0
2, 0
1, 0
0, 1
1, 0
0, 2
0, 1
0, 0
0, 0
2, 1
0, 0
0, 0
1, 0
0, 0
0, 0
0, 0
0, 0
1, 2
1, 0
0, 2
0, 0
0, 0
0, 1
0, 0
0, 0
2, 0
0, 0
1, 1
0, 0
0, 0
0, 0
0, 0
0, 0
0, 0
0, 2
0, 0
0, 0
0, 0
0, 0
0, 0
0, 0
0, 0
0, 0
0, 1
1, 0
0, 0
0, 0
0, 0
0, 0
0, 0
0, 0
0, 1
1, 0
0, 0
0, 0
0, 0
0, 0
0, 0
0, 1
0, 1
0, 0
0, 0
0, 0
0, 0
1, 0
0, 1
0, 0
0, 0
2, 0
0, 0
0, 0
0, 0
0, 0
0, 0
1, 1
0, 0
0, 0
0, 0
0, 0
0, 0
0, 1
0, 1
0, 0
0, 0
0, 0
0, 0
0, 0
0, 0
3, 0
1, 0
0, 0
0, 0
0, 0
0, 0
0, 0
0, 0
0, 1
0, 0
0, 0
0, 0
0, 0
1, 0
0, 0
0, 0
0, 0
0, 0
0, 1
0, 0
0, 0
0, 0
0, 0
0, 0
0, 0
0, 0
0, 0
0, 0
0, 0
0, 0
1, 0
0, 0
0, 0
0, 0
0, 0
0, 0
0, 0
0, 1
0, 0
0, 0
0, 0
0, 0
1, 0
0, 0
0, 0
0, 1
0, 0
0, 0
0, 0
0, 0
0, 0
0, 0
0, 0
0, 0
0, 0
0, 0
0, 0
0, 0
0, 0
0, 0
0, 0
0, 0
0, 0
0, 0
0, 0
0, 0
0, 0
0, 0
0, 0
0, 0
0, 0
0, 0
0, 0
0, 0
0, 0
0, 0
0, 0
0, 0
0, 0
0, 0
0, 0
0, 0
0, 0
0, 0
0, 0
0, 0
0, 0
0, 0
1, 0
0, 0
0, 0
0, 0
0, 0
0, 0
0, 0
0, 0
0, 0
0, 0
0, 0
0, 0
0, 0
0, 0
0, 0
0, 0
0, 0
0, 0
0, 0
0, 0
0, 0
0, 0
0, 0
0, 0
0, 0
0, 0
0, 0
1, 0
0, 0
0, 0
0, 0
0, 0
0, 0
0, 0
0, 0
0, 0
0, 0
0, 0
0, 0
0, 0
0, 0
0, 0
0, 0
0, 0
0, 0
0, 0
0, 0
0, 0
0, 0
0, 0
0, 0
0, 0
0, 1
0, 0
0, 0
0, 0
0, 0
0, 0
0, 0
0, 0
0, 0
0, 0
0, 0
0, 0
0, 0
0, 0
0, 0
0, 0
0, 0
0, 0
0, 0
0, 0
0, 0
0, 0
0, 0
0, 0
0, 0
0, 0
0, 0
0, 0
0, 0
0, 0
0, 0
0, 0
0, 0
0, 0
0, 0
0, 0
0, 0
0, 0
0, 0
0, 0
0, 0
0, 0
0, 0
0, 0
0, 0
0, 0
0, 0
0, 0
0, 0
0, 0
0, 0
0, 0
0, 0
0, 0
0, 0
0, 0
0, 0
0, 0
0, 0
0, 0
0, 0
0, 0
0, 0
0, 0
0, 0
0, 0
0, 0
0, 0
0, 0
0, 0
0, 0
0, 0
0, 0
0, 0
0, 0
0, 0
0, 0
0, 0
0, 0
0, 0
0, 0
0, 0
0, 0
0, 0
0, 0
0, 0
0, 0
0, 0
0, 0
0, 0
0, 0
0, 0
0, 0
0, 0
0, 0
0, 0
0, 0
0, 0
0, 0
0, 0
0, 0
0, 0
0, 0
0, 0
0, 0
0, 0
0, 0
0, 0
0, 0
0, 0
0, 0
0, 0
0, 0
0, 0
0, 0
0, 0
0, 0
0, 0
0, 0
0, 0
0, 0
0, 0
0, 0
0, 0
0, 0
0, 0
0, 0
0, 0
0, 0
0, 0
0, 0
0, 0
0, 0
0, 0
0, 0
0, 0
0, 0
0, 0
0, 0
0, 0
0, 0
0, 0
0, 0
0, 0
0, 0
0, 0
0, 0
0, 0
0, 0
0, 0
0, 0
0, 0
0, 0
0, 0
0, 0
0, 0
0, 0
0, 0
0, 0
0, 0
0, 0
0, 0
0, 0
0, 0
0, 0
0, 0
0, 0
0, 0
0, 0
0, 0
0, 0
0, 0
0, 0
0, 0
0, 0
0, 0
0, 0
0, 0
0, 0
0, 0
0, 0
0, 0
0, 0
0, 0
0, 0
0, 0
0, 0
0, 0
0, 0
0, 0
0, 0
0, 0
0, 0
0, 0
0, 0
0, 0
0, 0
0, 0
0, 0
0, 0
0, 0
0, 0
0, 0
0, 0
0, 0
0, 0
0, 0
0, 0
0, 0
0, 0
0, 0
0, 0
0, 0
0, 0
0, 0
0, 0
0, 0
0, 0
0, 0
0, 0
0, 0
0, 0
0, 0
0, 0
0, 0
0, 0
0, 0
0, 0
0, 0
0, 0
0, 0
0, 0
0, 0
0, 0
0, 0
0, 0
0, 0
0, 0
0, 0
0, 0
0, 0
0, 0
0, 0
0, 0
0, 0
0, 0
0, 0
0, 0
0, 0
0, 0
0, 0
0, 0
0, 0
0, 0
0, 0
0, 0
0, 0
0, 0
0, 0
0, 0
0, 0
0, 0
0, 0
0, 0
0, 0
0, 0
0, 0
0, 0
0, 0
0, 0
0, 0
0, 0
0, 0
0, 0
0, 0
0, 0
0, 0
0, 0
0, 0
0, 0
0, 0
0, 0
0, 0
0, 0
0, 0
0, 0
0, 0
0, 0
0, 0
0, 0
0, 0
0, 0
0, 0
0, 0
0, 0
0, 0
0, 0
0, 0
0, 0
0, 0
0, 0
0, 0
0, 0
0, 0
0, 0
0, 0
0, 0
0, 0
0, 0
0, 0
0, 0
0, 0
0, 0
0, 0
0, 0
0, 0
0, 0
0, 0
0, 0
0, 0
0, 0
0, 0
0, 0
0, 0
0, 0
0, 0
0, 0
0, 0
0, 0
0, 0
0, 0
0, 0
0, 0
0, 0
0, 0
0, 0
0, 0
0, 0
0, 0
0, 0
0, 0
0, 0
0, 0
0, 0
0, 0
0, 0
0, 0
0, 0
0, 0
0, 0
0, 0
0, 0
0, 0
#ENDOFDATA     end of spectrum data