File: host_upload/02-11-2024/rqc/uplink1/ps__0567_0717304816_000rfs_shot_404.msa
#FORMAT      : EMSA/MAS spectral data file
#VERSION     : TC202v2.0 PIXL
#TITLE       : Novarupta (sol567) subset1
#DATE        : 02-11-2024      Date in the format DD-MMM-YYYY, for example 07-JUL-2010
#TIME        :             The time of day at which the spectrum was recorded, in 24-hour format
#OWNER       : PIXL Flight Model       (PIXL will use this to indicate which instrument took the data.)
#NPOINTS     : 4096     Number of data points in the spectrum (This can be zero for configuration only files)
#NCOLUMNS    : 2     Number of data columns in the spectrum (This can be zero for configuration only files)
#XUNITS      : eV
#YUNITS      : COUNTS
#DATATYPE    : YY
#XPERCHAN    : 7.862, 7.881   eV per channel (separate by commas if more than one detector)
#OFFSET      : 18.5, -22.4         eV of first channel  (separate by commas if more than one detector
#SIGNALTYPE  : XRF
#YP_TEMP     : 1.818
#LIVETIME    : 8.81336, 8.81949   seconds (separate by commas if more than one detector)
#REALTIME    : 10, 10.0   seconds (separate by commas if more than one detector)
#SPECTRUM    : start of spectrum data
0, 0
0, 0
0, 0
0, 0
0, 0
0, 0
0, 0
0, 0
0, 0
0, 0
0, 0
0, 0
0, 0
0, 0
0, 0
0, 0
0, 0
0, 0
0, 0
0, 0
0, 0
0, 0
0, 0
0, 0
0, 0
0, 0
0, 0
0, 0
0, 0
0, 0
1, 0
0, 0
0, 1
0, 0
1, 1
3, 1
6, 7
5, 5
1, 1
3, 4
1, 1
0, 3
2, 2
1, 2
2, 1
1, 3
3, 2
3, 3
3, 3
6, 3
3, 7
5, 8
13, 12
17, 15
21, 24
17, 14
17, 12
12, 12
9, 8
9, 8
12, 16
32, 22
33, 36
41, 58
48, 40
54, 61
52, 36
34, 36
33, 47
71, 51
118, 140
174, 223
321, 312
444, 435
489, 575
530, 525
462, 430
364, 334
262, 232
158, 134
106, 62
63, 53
43, 31
25, 34
32, 28
38, 41
39, 35
31, 26
23, 27
20, 19
17, 28
18, 19
19, 22
44, 44
84, 78
118, 139
199, 191
239, 284
320, 341
317, 247
293, 242
215, 218
152, 169
110, 109
64, 58
50, 49
55, 49
66, 67
90, 84
129, 150
182, 185
203, 231
235, 224
210, 244
220, 183
171, 158
155, 127
122, 88
94, 69
72, 102
68, 72
75, 67
60, 63
41, 45
43, 57
32, 32
36, 29
34, 23
26, 18
8, 21
4, 11
15, 12
8, 5
8, 1
4, 11
8, 9
11, 17
11, 15
15, 16
28, 21
28, 28
29, 31
24, 25
29, 29
32, 23
16, 16
18, 16
16, 10
10, 9
14, 30
30, 32
52, 70
97, 81
139, 177
217, 233
304, 322
345, 369
392, 384
376, 400
338, 319
255, 232
197, 159
105, 88
53, 59
34, 27
31, 25
25, 31
22, 36
38, 46
43, 51
55, 57
69, 50
57, 49
51, 47
36, 48
30, 27
21, 16
10, 15
4, 10
11, 5
6, 12
8, 8
11, 6
8, 10
13, 14
13, 13
19, 20
18, 24
24, 41
41, 57
68, 54
80, 66
77, 76
81, 80
56, 58
33, 46
47, 44
29, 29
28, 32
26, 16
22, 16
13, 5
10, 12
12, 7
12, 16
21, 13
20, 6
18, 23
29, 11
27, 26
22, 14
23, 16
20, 17
20, 18
21, 11
15, 12
10, 10
12, 16
8, 12
14, 12
11, 12
11, 16
9, 13
18, 14
18, 19
23, 12
19, 19
17, 28
25, 40
35, 34
43, 29
35, 33
24, 31
24, 25
25, 20
14, 19
15, 25
14, 13
15, 16
13, 11
10, 6
12, 11
10, 15
17, 15
21, 12
28, 19
29, 37
27, 32
33, 43
47, 52
43, 58
54, 53
53, 50
47, 59
40, 46
41, 27
27, 19
27, 27
14, 24
20, 18
18, 25
26, 24
30, 45
59, 76
120, 151
215, 266
388, 479
600, 711
897, 1018
1189, 1345
1496, 1649
1783, 1782
1892, 1773
1775, 1685
1606, 1468
1338, 1067
926, 886
667, 554
420, 292
230, 194
138, 85
79, 46
38, 31
24, 23
20, 13
16, 21
10, 15
16, 14
17, 26
18, 17
19, 31
32, 35
39, 40
71, 64
69, 119
122, 137
133, 176
221, 222
236, 245
256, 286
254, 249
276, 257
229, 227
239, 148
160, 136
101, 69
61, 45
48, 31
19, 15
22, 15
6, 10
8, 4
10, 7
11, 5
15, 11
8, 8
12, 7
8, 18
11, 14
12, 10
16, 18
12, 9
11, 3
7, 8
13, 6
6, 7
7, 6
9, 7
7, 11
0, 3
6, 4
9, 9
3, 3
5, 11
3, 4
2, 5
6, 6
5, 6
11, 10
7, 7
5, 7
8, 7
3, 8
6, 4
7, 7
6, 6
4, 5
6, 8
5, 5
10, 6
7, 5
9, 10
5, 6
10, 4
7, 5
5, 6
5, 8
7, 6
8, 4
4, 8
7, 3
13, 6
7, 12
12, 8
10, 9
7, 13
6, 10
7, 8
9, 16
14, 11
15, 4
10, 14
12, 12
11, 12
9, 5
5, 6
4, 6
9, 2
8, 4
3, 3
5, 7
3, 4
3, 10
10, 11
9, 5
1, 4
8, 5
4, 6
6, 3
4, 5
5, 4
4, 4
5, 3
3, 6
5, 3
9, 6
6, 5
6, 5
7, 4
4, 4
5, 11
3, 8
4, 4
1, 5
5, 5
5, 13
4, 5
4, 6
6, 6
5, 5
4, 6
3, 8
3, 6
5, 6
4, 4
2, 3
3, 3
4, 4
5, 4
10, 8
4, 4
5, 6
3, 3
7, 9
4, 7
1, 5
6, 3
7, 1
6, 7
4, 2
3, 4
7, 2
0, 3
2, 3
5, 4
4, 2
4, 5
7, 4
3, 3
4, 3
1, 1
6, 6
5, 3
3, 7
5, 5
5, 2
4, 4
4, 4
3, 2
5, 3
5, 3
0, 1
3, 6
1, 1
4, 2
5, 4
2, 3
1, 5
4, 3
4, 2
3, 4
3, 4
4, 2
2, 5
2, 1
3, 4
2, 4
2, 5
3, 3
2, 3
3, 5
2, 2
2, 3
6, 1
3, 4
1, 3
2, 1
1, 2
2, 1
2, 4
6, 4
3, 1
1, 2
4, 4
2, 1
4, 3
2, 1
3, 1
1, 2
4, 3
2, 0
1, 2
3, 4
6, 4
2, 1
2, 1
2, 1
3, 4
3, 1
5, 3
1, 4
1, 2
4, 2
4, 0
3, 1
3, 2
3, 2
2, 3
2, 0
2, 1
3, 2
3, 0
3, 5
5, 2
3, 3
2, 2
1, 3
5, 3
2, 2
1, 1
4, 3
3, 1
3, 2
2, 3
6, 0
2, 4
2, 2
2, 0
2, 0
3, 1
2, 4
1, 4
2, 1
4, 2
2, 3
3, 2
3, 3
1, 5
3, 3
3, 4
1, 5
3, 1
3, 3
2, 4
0, 4
5, 2
1, 2
0, 3
3, 3
1, 1
1, 3
1, 1
1, 3
1, 2
1, 2
1, 1
2, 3
1, 1
1, 2
1, 3
2, 0
0, 2
3, 0
1, 1
1, 2
0, 7
0, 2
3, 3
2, 0
3, 5
1, 1
0, 1
2, 0
0, 0
0, 2
3, 2
1, 4
0, 2
2, 1
0, 1
1, 2
0, 1
0, 2
3, 1
2, 2
0, 0
2, 1
1, 2
3, 0
1, 0
2, 2
1, 2
2, 1
2, 0
0, 1
1, 1
1, 0
2, 1
4, 1
2, 2
0, 0
0, 0
1, 0
1, 1
0, 6
1, 1
0, 1
1, 2
0, 0
0, 0
1, 0
1, 1
2, 3
1, 1
0, 2
0, 3
2, 0
0, 1
0, 1
0, 1
4, 1
1, 1
0, 1
1, 0
0, 1
0, 0
1, 1
1, 1
0, 0
0, 1
2, 2
1, 0
1, 0
1, 2
2, 0
0, 1
1, 2
1, 0
3, 1
0, 1
0, 0
2, 0
2, 0
1, 1
0, 1
1, 0
0, 1
1, 0
1, 0
1, 1
0, 3
3, 5
0, 0
1, 0
0, 1
1, 0
0, 1
1, 0
0, 0
2, 0
2, 0
0, 0
0, 0
1, 1
0, 1
2, 0
1, 0
1, 0
0, 0
0, 1
0, 0
1, 1
0, 1
0, 0
0, 0
0, 0
1, 1
0, 1
0, 2
0, 0
0, 0
0, 0
2, 0
0, 0
0, 0
0, 0
0, 1
1, 0
0, 0
1, 0
0, 0
0, 0
0, 0
0, 0
0, 1
1, 0
0, 0
1, 0
0, 1
0, 0
0, 0
0, 2
0, 0
0, 0
0, 0
0, 0
3, 1
0, 0
1, 0
1, 1
0, 1
0, 0
2, 0
0, 0
0, 0
1, 1
0, 0
0, 1
0, 0
0, 2
0, 1
0, 0
0, 0
1, 0
3, 0
2, 0
0, 0
1, 2
1, 2
0, 0
0, 0
0, 0
0, 1
0, 1
2, 0
0, 2
0, 0
0, 1
0, 0
0, 0
0, 0
0, 0
0, 1
1, 0
0, 0
0, 1
0, 0
0, 0
1, 0
0, 0
0, 0
1, 0
0, 0
1, 0
0, 1
0, 0
0, 0
1, 0
0, 0
0, 0
0, 0
0, 0
0, 0
0, 0
1, 0
2, 1
0, 0
0, 0
0, 2
1, 0
0, 0
0, 0
0, 0
0, 0
0, 1
0, 0
0, 0
0, 0
0, 0
0, 1
0, 0
0, 0
0, 2
1, 0
0, 1
0, 0
0, 0
1, 0
0, 1
0, 0
0, 1
0, 0
1, 0
0, 0
0, 0
1, 0
1, 0
1, 1
0, 1
1, 1
0, 0
0, 0
0, 0
0, 1
0, 2
0, 1
1, 0
0, 0
0, 0
0, 0
0, 0
0, 0
0, 0
0, 0
0, 0
0, 0
0, 0
0, 0
0, 0
0, 0
0, 0
0, 0
0, 0
0, 0
0, 0
0, 0
0, 0
0, 0
0, 0
0, 0
1, 0
0, 0
0, 1
0, 0
0, 0
0, 0
0, 0
0, 0
0, 0
0, 0
0, 0
0, 0
0, 0
0, 0
0, 0
0, 0
0, 0
0, 0
0, 0
0, 0
0, 1
0, 1
0, 0
0, 0
0, 1
0, 0
0, 0
0, 1
0, 0
0, 0
1, 0
0, 0
0, 1
0, 0
0, 0
0, 0
0, 1
0, 0
0, 1
0, 0
0, 0
1, 0
0, 0
0, 0
0, 0
0, 0
0, 0
0, 0
0, 0
0, 0
0, 0
0, 0
0, 0
0, 0
0, 0
0, 0
0, 0
0, 0
0, 0
0, 0
1, 0
0, 0
0, 0
0, 0
0, 0
0, 0
0, 0
0, 0
0, 0
0, 0
0, 1
0, 0
0, 0
0, 0
0, 0
0, 0
0, 0
0, 0
0, 0
0, 0
0, 0
0, 0
0, 0
0, 0
0, 0
0, 0
0, 0
0, 0
0, 0
0, 0
0, 0
0, 0
0, 0
0, 0
0, 0
0, 0
1, 0
0, 0
0, 0
0, 0
0, 0
0, 1
0, 0
0, 0
0, 1
0, 0
0, 0
0, 0
0, 0
0, 0
0, 0
0, 0
0, 0
0, 0
0, 0
0, 0
0, 0
0, 0
0, 0
0, 0
0, 0
0, 0
0, 0
0, 0
0, 0
0, 0
1, 0
0, 0
0, 0
0, 0
0, 0
0, 0
0, 0
0, 0
0, 0
0, 0
0, 0
0, 0
0, 1
0, 0
0, 0
0, 0
0, 0
0, 0
0, 0
0, 0
0, 0
0, 0
0, 0
0, 0
0, 0
0, 0
0, 0
0, 0
0, 0
0, 0
0, 0
0, 0
0, 0
0, 0
0, 0
0, 0
0, 1
0, 0
0, 0
0, 0
0, 0
0, 0
0, 0
0, 0
0, 0
0, 0
0, 0
0, 0
0, 0
0, 0
0, 0
0, 0
0, 0
0, 0
0, 0
0, 0
0, 0
0, 0
0, 0
0, 0
0, 0
0, 0
0, 0
0, 0
0, 0
0, 0
0, 0
0, 0
0, 0
0, 0
0, 0
0, 0
0, 0
0, 0
0, 0
0, 0
0, 0
0, 0
0, 0
0, 0
0, 0
0, 0
0, 0
0, 0
0, 0
0, 0
0, 0
0, 0
0, 0
0, 0
0, 0
0, 0
0, 0
0, 0
0, 0
0, 0
0, 0
0, 0
0, 0
0, 0
0, 0
0, 0
0, 0
0, 0
0, 0
0, 0
0, 0
0, 0
0, 0
0, 0
0, 0
0, 0
0, 0
0, 0
0, 0
0, 0
0, 0
0, 0
0, 0
0, 0
0, 0
0, 0
0, 0
0, 0
0, 0
0, 0
0, 0
0, 0
0, 0
0, 0
0, 0
0, 0
0, 0
0, 0
0, 0
0, 0
0, 0
0, 0
0, 0
0, 0
0, 0
0, 0
0, 0
0, 0
0, 0
0, 0
0, 0
0, 0
0, 0
0, 0
0, 0
0, 0
0, 0
0, 0
0, 0
0, 0
0, 0
0, 0
0, 0
0, 0
0, 0
0, 0
0, 0
0, 0
0, 0
0, 0
0, 0
0, 0
0, 0
0, 0
0, 0
0, 0
0, 0
0, 0
0, 0
0, 0
0, 0
0, 0
0, 0
0, 0
0, 0
0, 0
0, 0
0, 0
0, 0
0, 0
0, 0
0, 0
0, 0
0, 0
0, 0
0, 0
0, 0
0, 0
0, 0
0, 0
0, 0
0, 0
0, 0
0, 0
0, 0
0, 0
0, 0
0, 0
0, 0
0, 0
0, 0
0, 0
0, 0
0, 0
0, 0
0, 0
0, 0
0, 0
0, 0
0, 0
0, 0
0, 0
0, 0
0, 0
0, 0
0, 0
0, 0
0, 0
0, 0
0, 0
0, 0
0, 0
0, 0
0, 0
0, 0
0, 0
0, 0
0, 0
0, 0
0, 0
0, 0
0, 0
0, 0
0, 0
0, 0
0, 0
0, 0
0, 0
0, 0
0, 0
0, 0
0, 0
0, 0
0, 0
0, 0
0, 0
0, 0
0, 0
0, 0
0, 0
0, 0
0, 0
0, 0
0, 0
0, 0
0, 0
0, 0
0, 0
0, 0
0, 0
0, 0
0, 0
0, 0
0, 0
0, 0
0, 0
0, 0
0, 0
0, 0
0, 0
0, 0
0, 0
0, 0
0, 0
0, 0
0, 0
0, 0
0, 0
0, 0
0, 0
0, 0
0, 0
0, 0
0, 0
0, 0
0, 0
0, 0
0, 0
0, 0
0, 0
0, 0
0, 0
0, 0
0, 0
0, 0
0, 0
0, 0
0, 0
0, 0
0, 0
0, 0
0, 0
0, 0
0, 0
0, 0
0, 0
0, 0
0, 0
0, 0
0, 0
0, 0
0, 0
0, 0
0, 0
0, 0
0, 0
0, 0
0, 0
0, 0
0, 0
0, 0
0, 0
0, 0
0, 0
0, 0
0, 0
0, 0
0, 0
0, 0
0, 0
0, 0
0, 0
0, 0
0, 0
0, 0
0, 0
0, 0
0, 0
0, 0
0, 0
0, 0
0, 0
0, 0
0, 0
0, 0
0, 0
0, 0
0, 0
0, 0
0, 0
0, 0
0, 0
0, 0
0, 0
0, 0
0, 0
0, 0
0, 0
0, 0
0, 0
0, 0
0, 0
0, 0
0, 0
0, 0
0, 0
0, 0
0, 0
0, 0
0, 0
0, 0
0, 0
0, 0
0, 0
0, 0
0, 0
0, 0
0, 0
0, 0
0, 0
0, 0
0, 0
0, 0
0, 0
0, 0
0, 0
0, 0
0, 0
0, 0
0, 0
0, 0
0, 0
0, 0
0, 0
0, 0
0, 0
0, 0
0, 0
0, 0
0, 0
0, 0
0, 0
0, 0
0, 0
#ENDOFDATA     end of spectrum data