File: host_upload/02-11-2024/rqc/uplink1/ps__0567_0717304816_000rfs_shot_14.msa
#FORMAT      : EMSA/MAS spectral data file
#VERSION     : TC202v2.0 PIXL
#TITLE       : Novarupta (sol567) subset1
#DATE        : 02-11-2024      Date in the format DD-MMM-YYYY, for example 07-JUL-2010
#TIME        :             The time of day at which the spectrum was recorded, in 24-hour format
#OWNER       : PIXL Flight Model       (PIXL will use this to indicate which instrument took the data.)
#NPOINTS     : 4096     Number of data points in the spectrum (This can be zero for configuration only files)
#NCOLUMNS    : 2     Number of data columns in the spectrum (This can be zero for configuration only files)
#XUNITS      : eV
#YUNITS      : COUNTS
#DATATYPE    : YY
#XPERCHAN    : 7.862, 7.881   eV per channel (separate by commas if more than one detector)
#OFFSET      : 18.5, -22.4         eV of first channel  (separate by commas if more than one detector
#SIGNALTYPE  : XRF
#YP_TEMP     : -4.339
#LIVETIME    : 8.85064, 8.82838   seconds (separate by commas if more than one detector)
#REALTIME    : 10, 10.0   seconds (separate by commas if more than one detector)
#SPECTRUM    : start of spectrum data
0, 0
0, 0
0, 0
0, 0
0, 0
0, 0
0, 0
0, 0
0, 0
0, 0
0, 0
0, 0
0, 0
0, 0
0, 0
0, 0
0, 0
0, 0
0, 0
0, 0
0, 0
0, 0
0, 0
0, 0
0, 0
0, 0
0, 0
0, 0
0, 0
0, 0
1, 0
0, 1
0, 0
0, 1
0, 0
1, 0
0, 2
2, 1
2, 5
2, 4
1, 4
6, 1
1, 2
6, 2
2, 3
3, 3
3, 5
4, 3
4, 2
3, 7
7, 7
12, 7
7, 9
8, 12
14, 13
13, 12
6, 14
12, 16
9, 11
19, 15
23, 25
26, 32
41, 42
38, 52
38, 56
50, 45
41, 49
33, 48
53, 49
69, 95
144, 147
223, 266
300, 396
357, 469
415, 549
426, 460
399, 414
287, 309
178, 203
139, 115
86, 79
41, 49
33, 38
33, 27
30, 39
34, 44
29, 40
40, 37
26, 25
24, 21
20, 19
18, 32
33, 46
64, 55
102, 108
177, 182
206, 229
239, 269
286, 300
246, 308
221, 260
149, 171
119, 123
71, 87
72, 72
58, 62
69, 65
81, 95
118, 119
125, 183
170, 179
205, 228
169, 221
197, 196
169, 148
126, 152
126, 134
96, 97
87, 80
67, 89
62, 91
54, 74
59, 56
46, 47
45, 46
25, 32
27, 29
18, 20
16, 17
11, 12
11, 10
5, 13
5, 7
5, 9
7, 9
13, 15
8, 17
11, 15
20, 25
18, 23
18, 27
34, 28
30, 22
15, 37
22, 22
7, 11
12, 6
10, 9
13, 16
34, 32
45, 49
68, 106
114, 141
158, 218
225, 336
295, 321
307, 392
314, 317
279, 335
230, 260
165, 203
122, 118
66, 74
39, 58
40, 26
31, 31
34, 33
33, 38
49, 45
36, 61
53, 55
48, 73
47, 45
41, 41
24, 31
24, 18
11, 8
11, 15
4, 9
8, 10
3, 16
11, 7
14, 8
6, 9
8, 17
16, 19
11, 29
26, 33
45, 52
52, 58
52, 66
62, 63
59, 67
50, 63
45, 39
22, 32
30, 34
21, 30
29, 35
16, 15
11, 15
15, 16
16, 20
20, 12
14, 12
17, 10
10, 17
14, 19
13, 22
13, 15
13, 16
18, 17
12, 17
16, 17
9, 18
12, 18
9, 15
17, 10
16, 11
15, 16
14, 14
11, 9
12, 14
15, 12
18, 11
19, 27
12, 28
26, 24
28, 31
25, 25
26, 37
23, 27
14, 20
16, 16
17, 20
19, 16
11, 15
12, 18
12, 14
12, 15
11, 22
10, 17
14, 16
10, 14
14, 29
23, 28
32, 39
34, 38
39, 43
39, 54
48, 43
44, 48
30, 34
41, 36
27, 29
25, 25
20, 13
17, 25
17, 22
18, 25
35, 31
46, 77
100, 116
156, 188
229, 339
433, 526
629, 813
870, 1070
1119, 1447
1341, 1653
1484, 1837
1567, 1807
1516, 1721
1270, 1344
985, 1093
776, 774
517, 484
316, 306
227, 154
100, 107
81, 63
34, 42
24, 26
18, 25
18, 20
16, 22
12, 13
20, 18
19, 28
29, 28
36, 45
48, 45
69, 67
85, 107
110, 148
146, 175
210, 221
222, 287
266, 264
236, 248
200, 239
203, 177
132, 153
102, 99
75, 82
48, 51
29, 28
13, 21
16, 18
7, 5
8, 7
9, 14
8, 7
12, 11
8, 10
9, 17
7, 11
11, 14
5, 7
6, 16
8, 11
7, 9
8, 10
7, 2
9, 11
2, 8
8, 8
7, 4
3, 11
6, 13
7, 5
5, 5
3, 10
8, 4
7, 5
4, 10
5, 11
4, 5
3, 5
8, 8
5, 4
6, 7
8, 9
11, 9
5, 4
8, 7
7, 7
9, 11
3, 7
7, 8
5, 5
5, 10
5, 8
4, 6
7, 8
8, 8
7, 14
5, 10
4, 10
5, 6
8, 11
7, 3
10, 9
10, 11
7, 11
9, 10
9, 9
10, 10
5, 9
9, 10
9, 8
4, 5
7, 10
6, 8
3, 5
5, 10
3, 9
9, 7
2, 6
5, 7
5, 7
7, 2
4, 6
3, 9
5, 7
10, 7
7, 3
4, 4
3, 2
5, 7
7, 4
1, 6
5, 4
6, 6
3, 9
5, 7
4, 6
4, 4
5, 5
2, 5
5, 5
4, 2
6, 5
8, 2
3, 4
7, 9
6, 7
3, 5
3, 3
3, 4
3, 6
3, 11
4, 6
0, 4
7, 4
7, 6
0, 2
7, 3
4, 6
3, 3
4, 4
10, 3
0, 6
10, 5
2, 4
7, 2
2, 4
5, 7
5, 1
3, 2
0, 4
3, 2
2, 4
5, 1
8, 1
5, 3
3, 3
6, 6
3, 4
2, 2
1, 2
7, 4
1, 6
4, 5
4, 1
4, 6
3, 4
3, 5
6, 6
1, 2
4, 2
2, 2
3, 3
3, 4
3, 1
0, 0
4, 2
3, 4
5, 3
3, 0
4, 4
3, 2
5, 2
4, 8
2, 2
1, 4
4, 2
4, 2
6, 2
5, 8
4, 1
4, 2
1, 5
4, 4
2, 2
2, 6
3, 4
4, 4
6, 2
4, 4
6, 1
5, 2
4, 3
2, 5
3, 4
1, 0
1, 7
1, 4
3, 0
6, 0
4, 3
2, 6
1, 4
0, 2
0, 4
5, 4
1, 2
0, 6
1, 1
1, 3
3, 3
4, 1
2, 1
1, 2
3, 3
4, 2
3, 2
0, 2
2, 3
3, 3
2, 2
2, 2
3, 2
6, 2
0, 2
1, 1
2, 0
3, 2
1, 0
3, 1
4, 3
4, 3
1, 2
1, 1
3, 1
0, 1
3, 4
3, 2
4, 1
3, 0
0, 1
3, 3
0, 4
3, 1
4, 3
4, 6
3, 2
1, 5
4, 6
5, 3
3, 0
2, 1
1, 6
3, 2
2, 2
4, 4
0, 2
2, 2
3, 1
2, 2
1, 5
1, 2
2, 1
0, 0
1, 4
1, 1
4, 3
6, 1
1, 3
2, 0
3, 2
3, 2
2, 2
2, 3
1, 1
3, 3
1, 1
3, 1
3, 4
2, 0
0, 0
1, 0
4, 0
2, 1
2, 1
3, 0
1, 3
0, 1
2, 2
0, 0
1, 0
1, 2
0, 1
0, 0
1, 0
0, 2
3, 1
1, 2
0, 1
0, 1
0, 1
2, 1
4, 2
0, 0
0, 2
0, 1
3, 1
1, 0
1, 1
2, 1
0, 2
2, 2
0, 0
0, 2
1, 0
0, 0
1, 2
0, 0
0, 1
1, 0
0, 3
0, 0
3, 0
0, 3
2, 0
3, 0
1, 0
1, 0
0, 0
0, 1
2, 2
1, 0
0, 0
0, 1
2, 1
0, 0
1, 0
0, 1
2, 0
0, 1
0, 1
0, 1
0, 0
0, 0
0, 0
0, 0
1, 2
0, 0
1, 3
1, 0
2, 2
1, 1
1, 0
1, 0
1, 2
1, 1
0, 1
1, 0
1, 2
1, 2
2, 0
0, 0
1, 2
1, 0
1, 0
0, 1
0, 0
1, 0
2, 0
1, 0
0, 0
1, 0
0, 0
1, 0
0, 1
1, 1
0, 0
0, 0
0, 1
1, 1
0, 0
0, 1
1, 0
0, 0
0, 1
1, 1
1, 0
1, 0
1, 1
0, 1
0, 0
1, 1
0, 0
0, 0
0, 0
2, 0
1, 1
0, 1
0, 1
0, 0
0, 1
1, 0
0, 1
1, 1
0, 0
0, 0
1, 0
2, 1
1, 0
0, 1
0, 0
0, 0
0, 0
0, 0
0, 0
0, 1
0, 1
0, 0
1, 0
0, 1
1, 0
1, 0
0, 1
0, 0
0, 0
0, 1
0, 1
0, 0
0, 0
0, 1
0, 0
0, 0
0, 0
0, 0
0, 0
0, 0
1, 0
1, 0
0, 0
0, 1
0, 1
0, 0
0, 1
0, 0
0, 0
1, 0
0, 0
0, 1
1, 2
0, 0
1, 0
0, 0
0, 0
0, 1
0, 0
0, 0
1, 0
0, 0
0, 0
0, 0
0, 1
0, 1
0, 0
1, 0
0, 1
0, 0
0, 0
1, 0
0, 0
1, 0
1, 0
1, 0
0, 0
0, 0
0, 0
1, 0
0, 1
0, 1
0, 0
1, 2
0, 0
0, 0
0, 0
0, 0
0, 0
0, 1
3, 0
0, 0
0, 0
0, 0
0, 0
1, 0
0, 0
0, 1
1, 0
1, 0
1, 0
0, 1
1, 1
1, 0
0, 0
0, 0
0, 1
0, 0
0, 1
0, 0
0, 0
0, 0
0, 0
0, 0
0, 0
0, 0
0, 0
0, 0
0, 0
0, 0
0, 0
0, 0
0, 0
0, 2
0, 0
0, 0
0, 0
0, 2
0, 0
0, 1
0, 0
0, 0
0, 0
1, 0
0, 0
0, 0
0, 0
0, 0
1, 0
0, 0
0, 0
0, 0
0, 0
0, 0
1, 0
0, 0
0, 0
0, 0
0, 1
1, 1
0, 0
0, 0
0, 0
0, 0
0, 0
0, 0
0, 0
0, 0
0, 0
0, 0
0, 0
1, 0
0, 0
0, 0
0, 0
0, 1
0, 1
0, 0
0, 0
0, 0
0, 0
0, 0
0, 0
0, 0
0, 1
0, 0
0, 0
1, 0
0, 0
0, 0
0, 0
0, 0
0, 0
0, 0
0, 0
0, 0
0, 0
0, 0
1, 0
0, 0
0, 0
0, 0
0, 0
0, 0
0, 1
0, 0
0, 0
0, 1
1, 0
0, 0
0, 0
0, 0
0, 0
0, 0
0, 0
0, 0
0, 0
0, 0
0, 0
0, 0
0, 0
0, 0
0, 0
0, 0
0, 0
0, 1
0, 0
0, 0
0, 0
0, 0
0, 0
0, 0
0, 1
0, 0
0, 0
0, 0
0, 0
0, 0
0, 0
0, 0
0, 0
0, 0
0, 0
0, 0
0, 0
1, 1
0, 0
0, 0
0, 0
0, 0
0, 0
0, 0
0, 0
0, 0
0, 0
0, 0
0, 0
0, 1
0, 0
0, 0
0, 0
0, 0
0, 0
1, 0
0, 0
0, 0
0, 0
0, 0
0, 0
0, 0
0, 0
0, 0
0, 0
0, 0
0, 0
0, 0
0, 0
0, 0
0, 0
0, 0
0, 0
0, 0
0, 0
0, 0
0, 0
1, 0
0, 0
0, 0
0, 0
0, 0
0, 0
0, 0
0, 0
0, 0
0, 0
0, 0
0, 0
0, 0
0, 0
0, 0
0, 0
0, 0
0, 0
0, 0
0, 0
0, 0
0, 0
0, 0
0, 0
0, 0
0, 0
0, 0
0, 0
0, 0
0, 0
0, 1
0, 0
0, 0
0, 0
0, 0
0, 0
0, 0
0, 0
0, 0
0, 0
0, 0
0, 0
0, 0
0, 0
0, 0
0, 0
0, 0
0, 0
0, 0
0, 0
0, 0
0, 0
0, 0
0, 0
0, 0
0, 0
0, 0
0, 0
0, 0
0, 0
0, 0
0, 0
0, 0
0, 0
0, 0
0, 0
0, 0
0, 0
0, 0
0, 0
0, 0
0, 0
0, 0
0, 0
0, 0
0, 0
0, 0
0, 0
0, 0
0, 0
0, 0
0, 0
0, 0
0, 0
0, 0
0, 0
0, 0
0, 0
0, 0
0, 0
0, 0
0, 0
0, 0
0, 0
0, 0
0, 0
0, 0
0, 0
0, 0
0, 0
0, 0
0, 0
0, 0
0, 0
0, 0
0, 0
0, 0
0, 0
0, 0
0, 0
0, 0
0, 0
0, 0
0, 0
0, 0
0, 0
0, 0
0, 0
0, 0
0, 0
0, 0
0, 0
0, 0
0, 0
0, 0
0, 0
0, 0
0, 0
0, 0
0, 0
0, 0
0, 0
0, 0
0, 0
0, 0
0, 0
0, 0
0, 0
0, 0
0, 0
0, 0
0, 0
0, 0
0, 0
0, 0
0, 0
0, 0
0, 0
0, 0
0, 0
0, 0
0, 0
0, 0
0, 0
0, 0
0, 0
0, 0
0, 0
0, 0
0, 0
0, 0
0, 0
0, 0
0, 0
0, 0
0, 0
0, 0
0, 0
0, 0
0, 0
0, 0
0, 0
0, 0
0, 0
0, 0
0, 0
0, 0
0, 0
0, 0
0, 0
0, 0
0, 0
0, 0
0, 0
0, 0
0, 0
0, 0
0, 0
0, 0
0, 0
0, 0
0, 0
0, 0
0, 0
0, 0
0, 0
0, 0
0, 0
0, 0
0, 0
0, 0
0, 0
0, 0
0, 0
0, 0
0, 0
0, 0
0, 0
0, 0
0, 0
0, 0
0, 0
0, 0
0, 0
0, 0
0, 0
0, 0
0, 0
0, 0
0, 0
0, 0
0, 0
0, 0
0, 0
0, 0
0, 0
0, 0
0, 0
0, 0
0, 0
0, 0
0, 0
0, 0
0, 0
0, 0
0, 0
0, 0
0, 0
0, 0
0, 0
0, 0
0, 0
0, 0
0, 0
0, 0
0, 0
0, 0
0, 0
0, 0
0, 0
0, 0
0, 0
0, 0
0, 0
0, 0
0, 0
0, 0
0, 0
0, 0
0, 0
0, 0
0, 0
0, 0
0, 0
0, 0
0, 0
0, 0
0, 0
0, 0
0, 0
0, 0
0, 0
0, 0
0, 0
0, 0
0, 0
0, 0
0, 0
0, 0
0, 0
0, 0
0, 0
0, 0
0, 0
0, 0
0, 0
0, 0
0, 0
0, 0
0, 0
0, 0
0, 0
0, 0
0, 0
0, 0
0, 0
0, 0
0, 0
0, 0
0, 0
0, 0
0, 0
0, 0
0, 0
0, 0
0, 0
0, 0
0, 0
0, 0
0, 0
0, 0
0, 0
0, 0
0, 0
0, 0
0, 0
0, 0
0, 0
0, 0
0, 0
0, 0
0, 0
0, 0
0, 0
0, 0
0, 0
0, 0
0, 0
0, 0
0, 0
0, 0
0, 0
0, 0
0, 0
0, 0
0, 0
0, 0
0, 0
0, 0
0, 0
0, 0
0, 0
0, 0
0, 0
0, 0
0, 0
0, 0
0, 0
0, 0
0, 0
0, 0
0, 0
0, 0
0, 0
0, 0
0, 0
0, 0
0, 0
0, 0
0, 0
0, 0
0, 0
0, 0
0, 0
0, 0
0, 0
0, 0
0, 0
0, 0
0, 0
0, 0
0, 0
0, 0
0, 0
0, 0
0, 0
0, 0
0, 0
0, 0
0, 0
0, 0
0, 0
0, 0
0, 0
0, 0
0, 0
0, 0
0, 0
0, 0
0, 0
0, 0
0, 0
0, 0
0, 0
0, 0
0, 0
0, 0
0, 0
0, 0
0, 0
0, 0
0, 0
0, 0
0, 0
0, 0
#ENDOFDATA     end of spectrum data