File: host_upload/02-11-2024/rqc/uplink1/ps__0567_0717304816_000rfs_shot_253.msa
#FORMAT      : EMSA/MAS spectral data file
#VERSION     : TC202v2.0 PIXL
#TITLE       : Novarupta (sol567) subset1
#DATE        : 02-11-2024      Date in the format DD-MMM-YYYY, for example 07-JUL-2010
#TIME        :             The time of day at which the spectrum was recorded, in 24-hour format
#OWNER       : PIXL Flight Model       (PIXL will use this to indicate which instrument took the data.)
#NPOINTS     : 4096     Number of data points in the spectrum (This can be zero for configuration only files)
#NCOLUMNS    : 2     Number of data columns in the spectrum (This can be zero for configuration only files)
#XUNITS      : eV
#YUNITS      : COUNTS
#DATATYPE    : YY
#XPERCHAN    : 7.862, 7.881   eV per channel (separate by commas if more than one detector)
#OFFSET      : 18.5, -22.4         eV of first channel  (separate by commas if more than one detector
#SIGNALTYPE  : XRF
#YP_TEMP     : 1.113
#LIVETIME    : 8.8252, 8.81159   seconds (separate by commas if more than one detector)
#REALTIME    : 10, 10.0   seconds (separate by commas if more than one detector)
#SPECTRUM    : start of spectrum data
0, 0
0, 0
0, 0
0, 0
0, 0
0, 0
0, 0
0, 0
0, 0
0, 0
0, 0
0, 0
0, 0
0, 0
0, 0
0, 0
0, 0
0, 0
0, 0
0, 0
0, 0
0, 0
0, 0
0, 0
0, 0
0, 0
0, 0
0, 0
0, 0
0, 0
0, 0
0, 0
0, 0
1, 0
1, 0
4, 3
3, 2
5, 1
1, 5
4, 3
2, 1
3, 5
4, 1
3, 1
5, 6
3, 2
3, 3
6, 5
5, 4
5, 5
0, 3
10, 8
11, 12
14, 22
14, 19
20, 11
15, 18
8, 15
8, 7
12, 12
16, 13
21, 28
32, 42
48, 53
50, 50
53, 62
36, 44
33, 37
44, 20
60, 74
123, 126
206, 224
291, 338
399, 439
468, 506
473, 501
406, 415
336, 346
226, 230
164, 145
83, 90
41, 46
39, 36
28, 32
37, 40
45, 31
29, 44
34, 39
20, 21
22, 19
22, 26
20, 16
25, 25
47, 49
91, 113
125, 162
209, 218
256, 266
299, 304
325, 324
291, 299
218, 227
169, 175
109, 94
61, 70
54, 53
56, 57
46, 76
63, 96
122, 151
182, 185
215, 216
206, 265
220, 205
204, 209
166, 170
116, 137
105, 106
102, 86
99, 77
79, 77
88, 101
59, 70
43, 55
53, 48
45, 35
24, 27
19, 18
13, 26
9, 13
10, 14
9, 10
9, 7
6, 6
4, 4
12, 7
9, 11
15, 14
29, 12
16, 25
21, 34
30, 29
30, 34
22, 40
30, 20
22, 15
12, 14
7, 9
11, 12
21, 13
33, 27
55, 65
82, 110
152, 163
229, 241
278, 376
341, 378
366, 409
376, 421
331, 321
248, 235
166, 179
129, 113
63, 68
41, 32
22, 24
25, 21
41, 33
33, 64
50, 65
84, 77
60, 54
42, 58
45, 57
47, 39
20, 27
17, 22
12, 14
15, 8
6, 14
9, 9
10, 10
16, 6
10, 8
14, 12
19, 7
23, 12
13, 24
32, 48
33, 55
46, 72
66, 71
63, 85
78, 69
31, 53
49, 43
48, 46
32, 31
25, 17
20, 15
17, 24
18, 15
7, 19
13, 15
19, 19
12, 10
16, 21
19, 15
20, 21
23, 19
23, 24
18, 16
20, 17
21, 9
8, 18
10, 10
3, 15
8, 13
12, 13
11, 9
5, 10
10, 12
10, 13
15, 17
9, 14
16, 20
16, 22
26, 34
30, 19
30, 41
26, 36
27, 33
30, 27
33, 14
14, 24
18, 16
8, 17
14, 20
13, 8
16, 10
11, 14
10, 12
11, 9
18, 17
17, 16
18, 24
25, 30
36, 25
40, 44
44, 53
55, 52
48, 61
47, 53
40, 55
40, 37
28, 18
25, 32
22, 28
15, 15
17, 15
18, 31
22, 35
42, 52
63, 94
115, 170
200, 300
366, 474
597, 778
866, 1053
1178, 1455
1441, 1710
1656, 1895
1840, 1913
1665, 1679
1420, 1513
1131, 1136
824, 757
636, 495
341, 312
224, 181
117, 106
68, 46
36, 36
34, 20
22, 10
16, 13
11, 16
15, 24
24, 25
18, 11
28, 23
37, 47
45, 44
43, 83
93, 100
113, 157
177, 216
213, 249
278, 269
252, 294
268, 274
271, 264
213, 200
178, 165
130, 117
78, 79
59, 46
31, 33
23, 9
11, 12
6, 11
7, 10
6, 9
7, 6
14, 10
8, 10
8, 18
9, 17
13, 15
9, 10
10, 10
9, 5
12, 9
6, 3
7, 8
6, 6
3, 9
7, 8
4, 4
14, 6
3, 5
4, 8
3, 3
4, 6
6, 6
5, 8
7, 5
10, 5
6, 9
6, 5
6, 7
3, 6
3, 3
3, 7
13, 6
7, 7
7, 9
7, 8
6, 7
4, 7
9, 10
5, 2
4, 7
10, 9
11, 10
10, 8
7, 5
6, 5
4, 5
5, 6
8, 10
8, 7
10, 5
10, 8
4, 7
11, 15
11, 14
9, 13
8, 9
6, 15
11, 8
12, 10
5, 4
9, 3
6, 3
4, 8
2, 7
6, 4
7, 6
4, 5
7, 4
5, 10
7, 8
9, 6
3, 5
3, 3
1, 6
9, 5
4, 12
6, 8
4, 7
3, 1
3, 7
6, 8
4, 8
4, 6
4, 3
5, 5
3, 5
2, 5
4, 6
8, 6
5, 3
2, 9
1, 8
8, 2
4, 5
6, 7
1, 6
4, 3
4, 3
2, 6
4, 5
5, 6
7, 5
5, 5
5, 4
3, 3
3, 1
4, 8
4, 7
7, 5
7, 10
5, 5
4, 7
0, 4
0, 6
3, 5
5, 5
3, 4
3, 7
1, 6
4, 4
6, 5
3, 4
5, 1
2, 4
2, 3
6, 1
2, 3
3, 1
1, 5
2, 3
5, 1
4, 4
3, 3
5, 4
3, 1
1, 1
6, 2
7, 5
2, 3
1, 5
6, 2
1, 3
7, 0
1, 1
4, 3
3, 3
2, 6
2, 2
2, 3
4, 6
4, 7
2, 1
5, 1
2, 6
4, 4
3, 2
3, 4
6, 2
2, 5
3, 2
2, 3
2, 5
2, 4
1, 2
5, 2
2, 4
4, 4
2, 2
5, 3
3, 3
3, 2
2, 2
3, 5
1, 3
1, 3
5, 2
5, 3
3, 5
5, 0
1, 5
3, 1
0, 2
5, 2
2, 2
5, 1
2, 3
2, 0
1, 4
2, 3
1, 2
6, 1
0, 2
5, 2
1, 2
0, 3
3, 1
0, 2
2, 3
3, 2
1, 0
0, 2
1, 3
1, 2
1, 0
1, 1
2, 3
4, 1
0, 2
2, 0
1, 1
0, 3
1, 3
2, 2
1, 0
3, 4
2, 0
1, 0
3, 2
1, 0
1, 0
4, 1
0, 2
2, 1
0, 2
1, 2
0, 3
4, 4
2, 4
4, 1
5, 2
0, 3
2, 1
1, 1
1, 3
3, 2
4, 3
1, 3
4, 3
3, 0
1, 1
0, 1
0, 1
1, 2
2, 2
2, 0
0, 1
2, 0
1, 2
2, 3
4, 3
1, 0
1, 1
2, 3
5, 1
1, 2
1, 0
1, 4
0, 2
2, 2
0, 2
2, 2
0, 1
4, 3
3, 3
3, 3
1, 2
2, 2
2, 0
4, 1
1, 0
0, 3
3, 1
0, 1
3, 2
2, 0
1, 1
1, 0
1, 2
0, 3
0, 1
0, 0
0, 1
1, 1
0, 1
1, 2
1, 1
2, 2
1, 1
3, 0
2, 1
1, 0
3, 0
2, 2
0, 2
2, 0
1, 1
1, 1
0, 0
1, 2
1, 1
1, 1
0, 0
0, 1
0, 1
2, 1
1, 2
0, 0
0, 1
2, 3
1, 0
0, 2
0, 1
0, 0
2, 0
2, 0
1, 2
0, 2
0, 2
0, 0
0, 1
0, 0
1, 0
3, 3
1, 1
0, 0
0, 1
0, 1
0, 0
1, 0
2, 2
0, 0
0, 1
0, 0
0, 2
0, 0
0, 2
2, 2
2, 1
1, 0
0, 0
1, 1
0, 0
0, 0
1, 1
2, 0
0, 0
1, 0
0, 0
0, 2
2, 0
1, 0
2, 0
2, 0
0, 1
0, 0
0, 0
1, 2
1, 0
0, 1
0, 0
0, 1
0, 0
0, 0
1, 0
0, 1
1, 2
0, 0
2, 0
2, 0
0, 0
0, 1
1, 1
0, 0
0, 0
2, 0
0, 0
0, 0
0, 1
0, 0
0, 1
0, 2
0, 3
0, 1
1, 1
0, 0
0, 1
0, 1
0, 0
0, 0
0, 1
0, 0
0, 2
0, 1
2, 0
0, 1
0, 1
0, 0
0, 0
0, 0
0, 0
0, 0
0, 1
0, 0
0, 0
0, 0
0, 0
0, 1
0, 0
0, 0
0, 2
0, 1
0, 0
1, 0
0, 0
1, 1
1, 0
0, 0
2, 0
0, 0
0, 0
1, 1
1, 1
0, 0
0, 1
0, 0
0, 0
0, 0
0, 0
1, 0
0, 0
0, 0
1, 0
0, 0
0, 0
2, 0
1, 0
0, 1
0, 0
0, 1
0, 0
1, 0
0, 0
0, 0
0, 0
0, 0
0, 0
0, 1
0, 0
0, 0
0, 0
0, 2
2, 0
1, 0
0, 0
0, 1
0, 0
0, 0
0, 0
0, 0
0, 1
1, 1
0, 0
0, 1
1, 0
0, 0
0, 1
0, 0
0, 0
0, 0
0, 0
0, 1
0, 0
1, 0
1, 0
0, 0
1, 0
0, 0
0, 0
0, 0
0, 0
1, 0
0, 2
0, 1
1, 1
0, 1
1, 0
0, 0
2, 1
0, 0
0, 0
0, 0
0, 0
0, 0
0, 1
0, 0
0, 0
0, 0
1, 0
0, 0
1, 0
0, 0
0, 0
0, 1
0, 0
0, 0
0, 0
0, 0
0, 1
0, 0
0, 0
0, 0
0, 0
0, 0
0, 0
1, 0
0, 0
0, 0
0, 1
0, 0
0, 0
0, 0
1, 0
0, 0
1, 0
0, 0
0, 0
0, 0
0, 0
0, 0
0, 0
0, 0
0, 0
0, 0
0, 0
0, 0
0, 0
1, 2
0, 0
0, 0
0, 0
0, 0
0, 0
0, 1
0, 0
0, 0
0, 0
0, 1
0, 0
0, 0
0, 0
0, 1
0, 0
0, 0
0, 0
0, 0
0, 0
0, 0
0, 0
0, 0
0, 0
0, 0
0, 0
0, 0
0, 1
0, 0
0, 0
0, 0
0, 1
0, 0
0, 0
0, 0
0, 0
0, 0
1, 0
0, 0
1, 0
1, 0
0, 0
0, 0
0, 0
0, 0
1, 0
0, 0
0, 0
0, 0
0, 0
0, 0
0, 0
0, 0
0, 0
0, 0
0, 0
0, 0
0, 0
0, 0
0, 0
0, 0
0, 0
0, 1
0, 0
0, 0
0, 0
0, 0
0, 0
0, 0
0, 0
0, 0
0, 0
0, 0
0, 0
0, 0
0, 0
0, 0
0, 0
0, 0
0, 0
0, 0
0, 0
0, 0
0, 0
0, 0
0, 0
0, 0
0, 0
0, 0
0, 0
0, 0
0, 0
0, 0
0, 0
0, 0
0, 0
0, 0
0, 1
0, 0
0, 0
0, 0
0, 0
0, 0
0, 0
0, 0
0, 0
0, 0
0, 0
0, 0
0, 0
0, 0
0, 0
0, 0
0, 0
0, 0
1, 0
0, 0
1, 0
0, 0
0, 0
0, 0
0, 0
0, 0
0, 0
0, 0
0, 0
0, 0
0, 0
0, 0
0, 0
1, 0
0, 0
0, 0
0, 0
0, 0
0, 0
0, 0
0, 0
0, 0
0, 0
0, 1
0, 0
0, 0
0, 0
0, 0
0, 0
0, 0
0, 0
0, 0
0, 0
0, 0
0, 0
0, 0
0, 0
0, 0
0, 0
0, 0
0, 0
0, 0
0, 0
0, 0
0, 0
0, 0
0, 0
0, 0
0, 0
0, 0
0, 0
0, 0
0, 0
0, 0
0, 0
0, 0
0, 0
0, 0
0, 0
0, 0
0, 0
0, 0
0, 0
0, 0
0, 0
0, 0
0, 0
0, 0
0, 0
0, 0
0, 0
0, 0
0, 0
0, 0
0, 0
0, 0
0, 0
0, 0
0, 0
0, 0
0, 0
0, 0
0, 0
0, 0
0, 0
0, 0
0, 0
0, 0
0, 0
0, 0
0, 0
0, 0
0, 0
0, 0
0, 0
0, 0
0, 0
0, 0
0, 0
0, 0
0, 0
0, 0
0, 0
0, 0
0, 0
0, 0
0, 0
0, 0
0, 0
0, 0
0, 0
0, 0
0, 0
0, 0
0, 0
0, 0
0, 0
0, 0
0, 0
0, 0
0, 0
0, 0
0, 0
0, 0
0, 0
0, 0
0, 0
0, 0
0, 0
0, 0
0, 0
0, 0
0, 0
0, 0
0, 0
0, 0
0, 0
0, 0
0, 0
0, 0
0, 0
0, 0
0, 0
0, 0
0, 0
0, 0
0, 0
0, 0
0, 0
0, 0
0, 0
0, 0
0, 0
0, 0
0, 0
0, 0
0, 0
0, 0
0, 0
0, 0
0, 0
0, 0
0, 0
0, 0
0, 0
0, 0
0, 0
0, 0
0, 0
0, 0
0, 0
0, 0
0, 0
0, 0
0, 0
0, 0
0, 0
0, 0
0, 0
0, 0
0, 0
0, 0
0, 0
0, 0
0, 0
0, 0
0, 0
0, 0
0, 0
0, 0
0, 0
0, 0
0, 0
0, 0
0, 0
0, 0
0, 0
0, 0
0, 0
0, 0
0, 0
0, 0
0, 0
0, 0
0, 0
0, 0
0, 0
0, 0
0, 0
0, 0
0, 0
0, 0
0, 0
0, 0
0, 0
0, 0
0, 0
0, 0
0, 0
0, 0
0, 0
0, 0
0, 0
0, 0
0, 0
0, 0
0, 0
0, 0
0, 0
0, 0
0, 0
0, 0
0, 0
0, 0
0, 0
0, 0
0, 0
0, 0
0, 0
0, 0
0, 0
0, 0
0, 0
0, 0
0, 0
0, 0
0, 0
0, 0
0, 0
0, 0
0, 0
0, 0
0, 0
0, 0
0, 0
0, 0
0, 0
0, 0
0, 0
0, 0
0, 0
0, 0
0, 0
0, 0
0, 0
0, 0
0, 0
0, 0
0, 0
0, 0
0, 0
0, 0
0, 0
0, 0
0, 0
0, 0
0, 0
0, 0
0, 0
0, 0
0, 0
0, 0
0, 0
0, 0
0, 0
0, 0
0, 0
0, 0
0, 0
0, 0
0, 0
0, 0
0, 0
0, 0
0, 0
0, 0
0, 0
0, 0
0, 0
0, 0
0, 0
0, 0
0, 0
0, 0
0, 0
0, 0
0, 0
0, 0
0, 0
0, 0
0, 0
0, 0
0, 0
0, 0
0, 0
0, 0
0, 0
0, 0
0, 0
0, 0
0, 0
0, 0
0, 0
0, 0
0, 0
0, 0
0, 0
0, 0
0, 0
0, 0
0, 0
0, 0
0, 0
0, 0
0, 0
0, 0
0, 0
0, 0
0, 0
0, 0
0, 0
0, 0
0, 0
0, 0
0, 0
0, 0
0, 0
0, 0
0, 0
0, 0
0, 0
0, 0
0, 0
0, 0
0, 0
0, 0
0, 0
0, 0
0, 0
0, 0
0, 0
0, 0
0, 0
0, 0
0, 0
0, 0
0, 0
0, 0
0, 0
0, 0
0, 0
0, 0
0, 0
0, 0
0, 0
0, 0
0, 0
0, 0
0, 0
0, 0
0, 0
0, 0
0, 0
0, 0
0, 0
0, 0
0, 0
0, 0
0, 0
0, 0
0, 0
0, 0
0, 0
0, 0
0, 0
0, 0
0, 0
0, 0
0, 0
0, 0
#ENDOFDATA     end of spectrum data