File: host_upload/02-11-2024/rqc/uplink1/ps__0567_0717304816_000rfs_shot_330.msa
#FORMAT      : EMSA/MAS spectral data file
#VERSION     : TC202v2.0 PIXL
#TITLE       : Novarupta (sol567) subset1
#DATE        : 02-11-2024      Date in the format DD-MMM-YYYY, for example 07-JUL-2010
#TIME        :             The time of day at which the spectrum was recorded, in 24-hour format
#OWNER       : PIXL Flight Model       (PIXL will use this to indicate which instrument took the data.)
#NPOINTS     : 4096     Number of data points in the spectrum (This can be zero for configuration only files)
#NCOLUMNS    : 2     Number of data columns in the spectrum (This can be zero for configuration only files)
#XUNITS      : eV
#YUNITS      : COUNTS
#DATATYPE    : YY
#XPERCHAN    : 7.862, 7.881   eV per channel (separate by commas if more than one detector)
#OFFSET      : 18.5, -22.4         eV of first channel  (separate by commas if more than one detector
#SIGNALTYPE  : XRF
#YP_TEMP     : 1.337
#LIVETIME    : 8.83702, 8.82037   seconds (separate by commas if more than one detector)
#REALTIME    : 10, 10.0   seconds (separate by commas if more than one detector)
#SPECTRUM    : start of spectrum data
0, 0
0, 0
0, 0
0, 0
0, 0
0, 0
0, 0
0, 0
0, 0
0, 0
0, 0
0, 0
0, 0
0, 0
0, 0
0, 0
0, 0
0, 0
0, 0
0, 0
0, 0
0, 0
0, 0
0, 0
0, 0
0, 0
0, 0
0, 0
0, 0
0, 0
0, 0
1, 0
0, 3
0, 0
2, 0
0, 3
7, 2
2, 4
2, 0
3, 3
4, 3
3, 6
1, 6
1, 2
3, 3
5, 4
3, 7
3, 5
4, 0
4, 6
6, 10
12, 14
8, 8
7, 21
11, 19
11, 16
10, 10
3, 5
6, 11
10, 12
12, 26
14, 20
33, 37
55, 38
43, 53
44, 46
27, 44
29, 27
22, 21
65, 73
109, 116
180, 207
263, 317
365, 484
456, 482
488, 546
415, 442
303, 344
191, 231
163, 148
83, 79
57, 64
29, 38
32, 31
29, 35
34, 27
27, 35
32, 27
37, 18
29, 21
10, 15
23, 17
28, 28
45, 56
79, 92
135, 142
182, 210
223, 292
284, 315
318, 341
269, 288
212, 235
144, 177
98, 104
76, 72
42, 50
49, 60
54, 67
80, 96
117, 145
138, 154
153, 218
191, 214
192, 216
166, 196
163, 146
110, 123
100, 102
88, 106
65, 79
71, 71
69, 56
66, 67
44, 54
39, 49
28, 35
24, 23
19, 23
17, 21
15, 17
17, 6
4, 7
7, 5
8, 3
9, 9
10, 13
8, 8
15, 11
14, 21
20, 31
40, 37
26, 31
29, 29
24, 22
21, 20
14, 20
13, 11
7, 20
10, 11
15, 16
26, 31
50, 55
85, 99
137, 166
197, 259
268, 343
282, 383
356, 393
391, 401
314, 319
256, 267
155, 170
100, 91
52, 69
37, 43
20, 31
28, 27
31, 36
47, 50
50, 46
49, 72
55, 67
64, 77
41, 41
36, 43
27, 28
14, 27
14, 12
8, 14
12, 5
13, 5
5, 8
8, 7
5, 11
10, 14
8, 20
11, 22
25, 23
29, 42
41, 47
45, 62
48, 56
66, 57
55, 51
37, 64
34, 43
41, 26
25, 20
28, 22
15, 17
13, 17
10, 15
11, 17
14, 16
18, 10
9, 10
13, 21
14, 17
10, 17
24, 27
22, 18
13, 10
18, 28
9, 13
11, 12
11, 17
10, 14
7, 13
12, 14
11, 13
11, 12
18, 10
9, 11
14, 8
11, 20
14, 21
19, 21
21, 32
20, 32
25, 27
33, 27
23, 26
22, 24
22, 35
19, 19
16, 13
17, 11
7, 17
17, 14
11, 12
11, 10
4, 8
10, 13
17, 14
18, 12
19, 19
21, 29
28, 43
39, 41
33, 51
46, 40
43, 42
35, 46
36, 44
36, 34
30, 24
19, 28
18, 16
22, 24
19, 14
20, 25
28, 26
42, 48
68, 74
106, 144
175, 271
345, 460
561, 730
772, 1046
1134, 1346
1364, 1639
1668, 1867
1668, 1870
1559, 1747
1407, 1404
1149, 1141
878, 802
576, 553
349, 334
220, 178
122, 98
64, 52
34, 39
26, 18
18, 24
12, 22
16, 15
13, 17
15, 18
14, 19
21, 18
34, 27
28, 41
49, 56
87, 107
115, 140
158, 174
161, 222
221, 249
256, 311
253, 286
221, 262
205, 216
175, 147
128, 115
84, 85
53, 57
33, 19
18, 20
11, 12
6, 10
8, 10
7, 6
10, 12
9, 5
10, 15
14, 14
14, 12
9, 11
9, 8
9, 12
7, 7
5, 9
2, 6
13, 7
5, 7
5, 7
7, 6
5, 8
6, 3
8, 11
3, 4
6, 9
5, 6
12, 9
6, 4
10, 12
2, 8
5, 4
6, 11
5, 6
3, 10
8, 6
5, 8
9, 3
6, 12
8, 7
9, 10
8, 9
7, 3
7, 8
2, 7
10, 9
6, 2
5, 2
3, 5
7, 5
11, 6
2, 5
0, 6
10, 3
6, 9
4, 13
8, 16
14, 13
12, 17
5, 9
8, 14
16, 6
9, 12
17, 10
4, 9
3, 2
6, 4
4, 9
7, 12
5, 8
10, 7
4, 5
2, 1
3, 9
13, 9
3, 10
5, 5
10, 8
1, 6
5, 7
5, 3
7, 6
8, 7
6, 4
0, 10
4, 5
9, 8
2, 5
4, 4
7, 5
4, 1
7, 3
2, 2
5, 5
2, 5
2, 11
3, 8
10, 3
3, 3
5, 10
6, 11
10, 4
3, 7
2, 5
4, 6
3, 6
2, 3
11, 8
4, 4
0, 7
2, 3
3, 2
9, 5
6, 3
7, 4
6, 5
8, 6
3, 4
9, 8
2, 7
4, 3
2, 4
8, 5
4, 6
2, 2
2, 5
3, 2
3, 4
6, 7
8, 2
5, 2
4, 3
3, 3
4, 3
3, 4
4, 3
4, 2
4, 3
1, 3
4, 1
3, 7
4, 9
3, 3
6, 3
6, 1
6, 4
6, 4
4, 2
1, 4
2, 1
1, 2
3, 3
4, 3
5, 6
1, 2
3, 4
3, 3
4, 4
7, 3
2, 1
1, 4
4, 3
3, 3
2, 3
1, 3
4, 5
0, 3
1, 4
3, 1
4, 1
3, 4
4, 3
1, 2
7, 5
1, 4
2, 2
2, 3
4, 2
3, 3
1, 4
4, 1
2, 2
1, 3
3, 0
2, 3
3, 1
4, 5
1, 2
2, 3
1, 1
1, 3
3, 0
0, 0
0, 3
2, 4
3, 7
1, 4
2, 2
3, 6
2, 1
2, 4
3, 2
2, 3
2, 2
2, 2
2, 2
4, 1
4, 1
0, 3
1, 6
0, 4
1, 3
1, 4
4, 1
0, 0
3, 1
3, 3
1, 2
1, 0
2, 2
1, 2
2, 3
2, 1
2, 1
0, 6
7, 1
0, 5
3, 3
3, 4
6, 5
3, 5
2, 4
5, 5
1, 1
2, 1
3, 2
2, 3
6, 4
3, 4
1, 1
2, 2
1, 2
3, 3
1, 3
4, 4
3, 0
2, 2
2, 1
1, 1
2, 1
1, 3
1, 2
0, 1
0, 1
3, 1
2, 2
1, 1
1, 3
1, 1
2, 2
2, 3
4, 1
0, 3
1, 5
1, 0
1, 1
0, 4
1, 4
2, 1
0, 2
2, 3
2, 3
1, 4
1, 1
2, 2
0, 3
1, 1
1, 1
1, 3
0, 0
1, 2
0, 1
1, 1
1, 0
1, 1
1, 2
2, 2
0, 3
0, 2
1, 1
0, 1
2, 1
1, 0
1, 5
1, 0
0, 0
0, 2
2, 0
2, 0
0, 3
2, 1
4, 2
1, 2
2, 2
0, 0
2, 0
0, 1
1, 0
0, 2
0, 0
0, 2
2, 0
0, 0
0, 2
1, 2
0, 0
0, 0
0, 1
2, 1
1, 1
0, 0
0, 2
2, 1
0, 1
1, 1
1, 0
1, 1
0, 0
3, 2
0, 0
1, 1
2, 1
2, 2
0, 0
0, 0
1, 0
1, 0
3, 2
0, 0
1, 0
2, 1
2, 1
0, 1
0, 0
0, 0
0, 0
0, 0
0, 2
2, 1
1, 0
1, 1
1, 0
0, 1
1, 0
0, 1
0, 0
2, 1
0, 0
1, 3
0, 1
0, 1
0, 0
0, 0
1, 1
2, 0
1, 0
1, 1
1, 1
0, 2
0, 0
0, 0
0, 0
0, 0
1, 2
0, 0
1, 0
0, 2
0, 0
0, 0
1, 0
0, 0
0, 1
0, 0
1, 0
0, 0
1, 1
0, 0
0, 1
0, 1
0, 1
2, 0
0, 1
0, 0
0, 0
0, 1
0, 0
0, 0
1, 0
0, 0
0, 1
1, 0
2, 0
0, 0
0, 1
0, 0
2, 0
0, 0
0, 0
0, 0
0, 0
0, 0
1, 0
0, 1
1, 0
0, 0
0, 0
0, 0
0, 1
0, 0
2, 0
0, 0
0, 0
0, 0
0, 1
1, 0
0, 0
0, 0
0, 0
0, 1
0, 0
0, 1
1, 0
0, 0
0, 0
0, 1
0, 0
0, 1
1, 0
0, 0
0, 0
0, 1
0, 0
2, 1
0, 0
0, 0
1, 1
1, 1
0, 0
0, 0
0, 0
0, 0
1, 0
0, 1
0, 0
0, 0
0, 0
0, 0
0, 0
0, 0
0, 0
0, 0
0, 0
1, 0
0, 0
1, 0
0, 0
0, 0
0, 0
1, 0
0, 0
0, 0
0, 1
1, 0
1, 0
0, 0
1, 1
1, 2
0, 0
0, 0
0, 0
1, 0
0, 1
0, 0
0, 0
0, 0
0, 0
0, 0
0, 0
0, 0
0, 1
0, 0
1, 1
0, 1
1, 0
0, 1
1, 1
0, 0
0, 1
0, 0
0, 0
1, 0
1, 0
0, 1
0, 0
0, 0
0, 0
0, 0
0, 0
0, 0
1, 0
0, 0
0, 1
0, 1
0, 0
1, 0
0, 0
0, 0
0, 0
0, 0
0, 0
0, 1
1, 0
0, 1
0, 0
0, 0
0, 0
1, 0
0, 0
0, 0
0, 0
0, 0
0, 0
0, 0
0, 0
0, 0
0, 0
0, 0
0, 0
0, 0
0, 0
0, 0
1, 0
1, 0
0, 0
0, 0
0, 0
1, 0
1, 1
0, 0
0, 0
0, 0
0, 1
0, 1
0, 1
0, 0
1, 0
0, 0
0, 0
1, 0
0, 0
0, 0
0, 0
0, 0
0, 0
0, 0
0, 0
0, 0
0, 0
0, 0
0, 0
0, 0
0, 0
0, 1
0, 0
0, 0
1, 0
0, 0
0, 1
0, 0
0, 0
0, 0
0, 0
0, 0
0, 0
1, 0
0, 0
0, 0
0, 0
0, 0
1, 0
0, 0
0, 0
0, 0
0, 0
0, 0
0, 0
0, 0
0, 0
0, 0
0, 0
0, 0
0, 0
0, 0
0, 0
0, 0
0, 0
0, 0
0, 0
0, 0
1, 1
0, 0
0, 0
1, 0
0, 0
0, 0
0, 0
0, 0
0, 0
0, 0
1, 0
0, 0
0, 0
0, 0
0, 0
0, 0
0, 0
0, 0
0, 0
0, 0
0, 0
0, 0
0, 0
0, 0
0, 0
0, 0
0, 0
0, 0
0, 0
0, 0
0, 0
0, 0
0, 0
0, 0
0, 0
0, 0
0, 0
0, 0
0, 0
0, 0
0, 0
0, 0
0, 0
0, 0
0, 0
0, 0
0, 0
0, 0
0, 0
0, 0
0, 0
0, 0
0, 0
0, 0
0, 0
0, 0
0, 0
0, 0
0, 0
0, 0
0, 0
0, 0
0, 0
0, 0
0, 0
0, 0
0, 0
0, 0
0, 0
0, 0
0, 0
0, 0
0, 0
0, 0
0, 0
0, 0
0, 0
0, 0
0, 0
0, 0
0, 0
0, 0
0, 0
0, 0
0, 0
0, 0
0, 0
0, 0
0, 0
0, 0
0, 0
0, 0
0, 0
0, 0
0, 0
0, 0
0, 0
0, 0
0, 0
0, 0
0, 0
0, 0
0, 0
0, 0
0, 0
0, 0
0, 0
0, 0
0, 0
0, 0
0, 0
0, 0
0, 0
0, 0
0, 0
0, 0
0, 0
0, 0
0, 0
0, 0
0, 0
0, 0
0, 0
0, 0
0, 0
0, 0
0, 0
0, 0
0, 0
0, 0
0, 0
0, 0
0, 0
0, 0
0, 0
0, 0
0, 0
0, 0
0, 0
0, 0
0, 0
0, 0
0, 0
0, 0
0, 0
0, 0
0, 0
0, 0
0, 0
0, 0
0, 0
0, 0
0, 0
0, 0
0, 0
0, 0
0, 0
0, 0
0, 0
0, 0
0, 0
0, 0
0, 0
0, 0
0, 0
0, 0
0, 0
0, 0
0, 0
0, 0
0, 0
0, 0
0, 0
0, 0
0, 0
0, 0
0, 0
0, 0
0, 0
0, 0
0, 0
0, 0
0, 0
0, 0
0, 0
0, 0
0, 0
0, 0
0, 0
0, 0
0, 0
0, 0
0, 0
0, 0
0, 0
0, 0
0, 0
0, 0
0, 0
0, 0
0, 0
0, 0
0, 0
0, 0
0, 0
0, 0
0, 0
0, 0
0, 0
0, 0
0, 0
0, 0
0, 0
0, 0
0, 0
0, 0
0, 0
0, 0
0, 0
0, 0
0, 0
0, 0
0, 0
0, 0
0, 0
0, 0
0, 0
0, 0
0, 0
0, 0
0, 0
0, 0
0, 0
0, 0
0, 0
0, 0
0, 0
0, 0
0, 0
0, 0
0, 0
0, 0
0, 0
0, 0
0, 0
0, 0
0, 0
0, 0
0, 0
0, 0
0, 0
0, 0
0, 0
0, 0
0, 0
0, 0
0, 0
0, 0
0, 0
0, 0
0, 0
0, 0
0, 0
0, 0
0, 0
0, 0
0, 0
0, 0
0, 0
0, 0
0, 0
0, 0
0, 0
0, 0
0, 0
0, 0
0, 0
0, 0
0, 0
0, 0
0, 0
0, 0
0, 0
0, 0
0, 0
0, 0
0, 0
0, 0
0, 0
0, 0
0, 0
0, 0
0, 0
0, 0
0, 0
0, 0
0, 0
0, 0
0, 0
0, 0
0, 0
0, 0
0, 0
0, 0
0, 0
0, 0
0, 0
0, 0
0, 0
0, 0
0, 0
0, 0
0, 0
0, 0
0, 0
0, 0
0, 0
0, 0
0, 0
0, 0
0, 0
0, 0
0, 0
0, 0
0, 0
0, 0
0, 0
0, 0
0, 0
0, 0
0, 0
0, 0
0, 0
0, 0
0, 0
0, 0
0, 0
0, 0
0, 0
0, 0
0, 0
0, 0
0, 0
0, 0
0, 0
0, 0
0, 0
0, 0
0, 0
0, 0
0, 0
0, 0
0, 0
0, 0
0, 0
0, 0
0, 0
0, 0
0, 0
0, 0
0, 0
0, 0
0, 0
0, 0
0, 0
0, 0
0, 0
0, 0
0, 0
0, 0
0, 0
0, 0
0, 0
0, 0
0, 0
0, 0
0, 0
0, 0
0, 0
0, 0
0, 0
0, 0
0, 0
0, 0
0, 0
0, 0
0, 0
0, 0
0, 0
0, 0
0, 0
0, 0
0, 0
0, 0
0, 0
0, 0
0, 0
0, 0
0, 0
0, 0
0, 0
0, 0
0, 0
0, 0
0, 0
0, 0
0, 0
0, 0
0, 0
0, 0
0, 0
0, 0
0, 0
0, 0
0, 0
0, 0
0, 0
0, 0
0, 0
0, 0
0, 0
0, 0
0, 0
0, 0
0, 0
0, 0
0, 0
0, 0
0, 0
0, 0
0, 0
0, 0
0, 0
0, 0
0, 0
0, 0
0, 0
0, 0
0, 0
0, 0
0, 0
0, 0
0, 0
0, 0
0, 0
0, 0
0, 0
0, 0
0, 0
0, 0
#ENDOFDATA     end of spectrum data