File: host_upload/02-11-2024/rqc/uplink1/ps__0567_0717304816_000rfs_shot_208.msa
#FORMAT      : EMSA/MAS spectral data file
#VERSION     : TC202v2.0 PIXL
#TITLE       : Novarupta (sol567) subset1
#DATE        : 02-11-2024      Date in the format DD-MMM-YYYY, for example 07-JUL-2010
#TIME        :             The time of day at which the spectrum was recorded, in 24-hour format
#OWNER       : PIXL Flight Model       (PIXL will use this to indicate which instrument took the data.)
#NPOINTS     : 4096     Number of data points in the spectrum (This can be zero for configuration only files)
#NCOLUMNS    : 2     Number of data columns in the spectrum (This can be zero for configuration only files)
#XUNITS      : eV
#YUNITS      : COUNTS
#DATATYPE    : YY
#XPERCHAN    : 7.862, 7.881   eV per channel (separate by commas if more than one detector)
#OFFSET      : 18.5, -22.4         eV of first channel  (separate by commas if more than one detector
#SIGNALTYPE  : XRF
#YP_TEMP     : 0.664
#LIVETIME    : 8.83824, 8.82645   seconds (separate by commas if more than one detector)
#REALTIME    : 10, 10.0   seconds (separate by commas if more than one detector)
#SPECTRUM    : start of spectrum data
0, 0
0, 0
0, 0
0, 0
0, 0
0, 0
0, 0
0, 0
0, 0
0, 0
0, 0
0, 0
0, 0
0, 0
0, 0
0, 0
0, 0
0, 0
0, 0
0, 0
0, 0
0, 0
0, 0
0, 0
0, 0
0, 0
0, 0
0, 0
0, 0
0, 0
0, 0
0, 0
0, 1
0, 1
0, 1
1, 2
1, 2
5, 2
2, 4
4, 1
10, 1
4, 2
3, 2
4, 5
2, 5
5, 5
1, 3
5, 8
3, 3
5, 6
9, 6
8, 6
13, 12
14, 14
19, 12
10, 7
7, 16
9, 16
9, 7
6, 18
16, 9
22, 24
31, 25
43, 40
43, 55
41, 46
41, 38
39, 27
37, 36
59, 54
112, 100
201, 206
259, 327
403, 427
453, 486
480, 453
426, 409
318, 305
218, 201
157, 132
82, 80
49, 54
41, 33
31, 34
39, 33
40, 37
35, 34
33, 35
24, 31
26, 19
20, 18
15, 17
26, 18
51, 61
74, 92
147, 134
174, 200
280, 271
287, 346
323, 328
276, 288
227, 216
163, 161
98, 116
71, 61
56, 52
54, 56
80, 63
85, 98
128, 135
144, 151
192, 176
236, 210
187, 206
194, 196
158, 142
135, 110
101, 103
83, 75
73, 55
80, 77
68, 68
61, 62
46, 46
43, 42
36, 31
29, 28
22, 20
15, 23
14, 19
11, 6
8, 11
3, 7
6, 8
6, 7
6, 8
13, 12
9, 13
31, 13
26, 22
19, 26
31, 33
31, 33
25, 29
22, 16
19, 13
12, 8
10, 5
13, 12
16, 15
36, 32
63, 58
63, 121
137, 153
232, 237
278, 314
355, 377
341, 390
353, 330
328, 312
244, 231
158, 125
109, 99
72, 43
36, 36
28, 22
35, 37
30, 31
44, 47
44, 50
48, 55
62, 64
66, 56
39, 43
44, 34
27, 26
19, 16
13, 8
4, 8
7, 11
10, 7
2, 8
5, 8
9, 10
8, 7
11, 14
12, 22
20, 25
32, 33
31, 34
56, 47
63, 58
67, 63
54, 65
55, 50
40, 32
32, 37
36, 24
18, 24
24, 23
16, 13
16, 11
16, 8
4, 12
17, 6
7, 11
20, 14
10, 17
20, 21
17, 20
21, 27
16, 20
18, 25
12, 23
10, 8
11, 11
16, 10
13, 13
17, 16
10, 13
12, 14
6, 14
9, 20
11, 13
19, 16
20, 19
20, 22
26, 28
24, 29
35, 36
31, 26
29, 35
33, 27
22, 21
25, 14
24, 15
23, 23
7, 16
10, 10
8, 12
13, 9
10, 13
9, 15
14, 15
12, 14
19, 16
36, 31
31, 35
42, 47
38, 46
45, 41
61, 56
60, 50
46, 31
37, 40
31, 25
23, 25
19, 18
23, 20
12, 19
23, 15
22, 41
49, 56
65, 82
101, 147
200, 259
405, 474
591, 687
840, 1008
1187, 1351
1522, 1609
1643, 1715
1792, 1784
1633, 1616
1473, 1341
1163, 1040
850, 733
591, 447
346, 272
207, 146
119, 93
69, 42
36, 25
24, 24
11, 13
18, 18
15, 12
17, 13
24, 17
21, 18
23, 26
29, 37
48, 43
61, 51
75, 94
127, 141
173, 219
176, 215
244, 264
267, 277
262, 258
264, 230
223, 193
161, 145
150, 121
71, 78
57, 39
29, 26
20, 18
10, 12
8, 5
14, 9
8, 8
7, 10
9, 10
12, 12
14, 12
16, 9
10, 18
13, 12
13, 13
14, 7
12, 7
6, 7
7, 6
3, 9
9, 12
5, 5
8, 11
4, 4
6, 5
4, 7
6, 4
2, 5
9, 9
7, 4
8, 5
5, 8
10, 6
6, 3
8, 4
4, 7
8, 5
4, 4
7, 12
9, 11
12, 7
6, 12
13, 8
6, 6
6, 9
8, 9
6, 7
5, 5
6, 9
6, 5
12, 7
10, 5
6, 7
3, 7
9, 8
15, 10
6, 5
8, 6
7, 10
13, 10
11, 23
8, 9
14, 9
8, 12
14, 9
9, 11
5, 7
7, 5
7, 4
5, 5
5, 10
1, 10
0, 7
5, 3
3, 4
7, 4
8, 5
2, 5
8, 4
6, 5
7, 6
6, 6
8, 5
7, 5
5, 5
6, 10
2, 6
8, 6
5, 2
5, 6
3, 5
6, 4
5, 5
6, 6
6, 0
2, 9
2, 4
5, 7
10, 7
6, 4
5, 6
4, 5
6, 6
7, 9
9, 6
5, 8
6, 8
3, 2
7, 5
6, 4
6, 6
4, 4
2, 2
3, 6
2, 3
3, 2
6, 4
2, 7
2, 3
3, 3
5, 5
4, 2
5, 3
1, 10
3, 3
5, 10
3, 3
0, 2
3, 6
3, 3
5, 5
7, 4
1, 5
4, 3
7, 5
3, 3
4, 3
2, 3
7, 8
5, 2
6, 4
3, 5
5, 3
4, 3
5, 1
5, 2
4, 1
6, 8
3, 6
1, 3
3, 2
0, 2
2, 1
3, 3
8, 1
5, 5
2, 2
4, 2
2, 3
7, 3
4, 3
5, 0
3, 4
3, 2
2, 3
3, 3
1, 2
2, 1
5, 0
2, 5
4, 1
1, 3
5, 3
3, 2
1, 1
3, 3
2, 1
3, 0
3, 0
3, 4
1, 3
0, 3
0, 0
4, 4
2, 5
3, 4
1, 2
1, 1
4, 3
4, 3
1, 0
3, 0
0, 2
5, 4
2, 2
5, 3
5, 5
4, 4
2, 2
4, 3
0, 1
1, 7
2, 4
1, 4
1, 3
0, 1
2, 1
1, 1
5, 5
2, 0
2, 2
2, 1
4, 2
1, 8
2, 3
2, 2
3, 2
4, 2
5, 1
2, 4
3, 1
3, 2
1, 0
3, 1
2, 3
1, 3
2, 0
2, 3
0, 3
0, 3
3, 2
5, 1
5, 1
1, 1
2, 3
2, 4
4, 2
4, 2
3, 1
2, 1
2, 3
5, 2
2, 0
2, 1
2, 3
2, 0
0, 2
3, 1
3, 6
2, 3
1, 0
1, 0
2, 6
2, 2
0, 0
0, 1
3, 0
0, 3
0, 1
1, 1
2, 1
2, 2
3, 0
0, 2
3, 2
2, 1
1, 3
5, 3
4, 0
0, 1
1, 3
1, 0
1, 4
3, 1
3, 1
1, 0
2, 8
1, 2
0, 3
3, 1
2, 1
2, 2
2, 2
1, 1
0, 1
1, 1
1, 0
1, 1
1, 1
3, 0
1, 1
0, 1
0, 2
1, 3
0, 2
1, 0
2, 1
1, 2
1, 2
0, 1
0, 1
2, 1
0, 1
2, 2
2, 1
1, 0
2, 1
1, 1
2, 1
1, 0
0, 1
0, 1
2, 0
0, 0
0, 1
2, 1
1, 0
0, 1
0, 0
1, 0
0, 2
0, 1
0, 0
2, 0
0, 0
2, 1
2, 1
1, 1
1, 0
1, 0
1, 1
0, 1
2, 1
0, 1
0, 0
1, 0
1, 1
1, 0
1, 1
0, 2
0, 1
3, 0
1, 0
0, 0
1, 0
0, 1
0, 0
0, 0
0, 2
0, 0
0, 1
0, 1
0, 0
0, 0
0, 0
1, 3
0, 0
0, 0
0, 1
0, 0
0, 0
1, 0
0, 0
2, 1
2, 0
0, 0
1, 2
0, 0
0, 0
0, 1
0, 1
1, 0
0, 0
2, 1
2, 1
0, 1
0, 1
2, 1
0, 0
0, 0
1, 1
0, 1
0, 1
1, 0
0, 0
1, 0
0, 1
0, 0
0, 0
0, 0
0, 0
0, 1
0, 0
1, 0
0, 0
1, 0
0, 0
1, 0
0, 1
1, 2
0, 0
1, 0
0, 0
1, 0
0, 0
2, 0
1, 0
0, 1
0, 0
0, 0
0, 2
0, 0
0, 0
0, 0
0, 0
1, 0
0, 0
0, 0
0, 0
1, 0
0, 1
1, 0
0, 0
0, 0
0, 0
0, 0
0, 1
1, 0
0, 0
0, 0
0, 0
1, 0
0, 1
0, 0
1, 0
0, 0
2, 0
0, 0
0, 0
0, 0
0, 0
0, 0
0, 1
0, 0
0, 0
0, 0
0, 0
0, 0
1, 1
1, 0
0, 0
0, 1
0, 0
1, 1
0, 0
0, 1
0, 1
0, 1
0, 0
1, 0
1, 0
1, 0
0, 0
0, 0
1, 0
2, 1
0, 0
0, 0
0, 0
0, 0
0, 0
0, 0
0, 1
1, 0
1, 0
2, 1
0, 0
0, 0
0, 0
0, 0
0, 0
0, 0
0, 0
1, 0
0, 1
0, 0
1, 1
0, 0
0, 0
0, 0
0, 0
0, 2
1, 0
1, 1
0, 0
0, 0
0, 0
0, 0
0, 1
0, 1
0, 0
0, 1
1, 0
1, 1
0, 0
0, 1
0, 0
1, 1
0, 0
0, 1
0, 0
0, 0
0, 0
0, 0
0, 0
0, 0
1, 0
0, 0
1, 0
1, 0
0, 0
0, 0
0, 0
0, 1
0, 0
0, 1
2, 1
0, 0
0, 0
0, 0
0, 0
0, 0
0, 0
1, 0
0, 0
0, 0
0, 0
0, 0
0, 0
0, 0
0, 0
0, 1
0, 1
0, 0
0, 0
0, 0
0, 0
0, 0
0, 0
0, 0
0, 0
0, 0
0, 0
1, 0
0, 0
1, 0
0, 0
1, 0
0, 0
0, 0
0, 0
1, 0
0, 0
0, 0
0, 0
0, 0
0, 0
0, 0
0, 0
0, 0
0, 0
0, 0
0, 0
0, 0
0, 0
0, 0
0, 0
0, 0
0, 0
0, 0
0, 0
0, 0
0, 0
0, 0
0, 0
0, 0
0, 0
0, 0
0, 1
0, 1
0, 0
1, 0
0, 0
0, 0
0, 0
0, 0
1, 0
0, 0
0, 0
0, 1
0, 0
0, 0
0, 0
1, 0
0, 0
0, 0
0, 0
0, 0
1, 0
0, 0
0, 0
0, 0
0, 0
0, 0
0, 0
0, 0
0, 0
1, 0
0, 0
0, 0
0, 0
0, 0
0, 0
0, 0
0, 0
0, 0
0, 0
0, 1
1, 0
0, 0
0, 0
0, 0
0, 0
0, 0
0, 0
0, 0
0, 0
0, 0
0, 0
0, 0
0, 0
0, 0
0, 0
0, 0
0, 0
0, 0
0, 0
0, 0
0, 1
0, 0
0, 0
0, 0
0, 0
0, 0
0, 0
0, 0
0, 0
0, 0
0, 0
0, 0
0, 0
0, 0
0, 0
0, 0
0, 1
0, 0
0, 0
0, 0
0, 0
0, 0
0, 0
0, 0
0, 0
0, 0
0, 0
0, 0
0, 0
0, 0
0, 0
0, 0
0, 0
0, 0
0, 0
0, 0
0, 1
0, 0
0, 0
0, 0
0, 0
0, 0
0, 0
0, 0
0, 0
0, 0
0, 0
0, 0
0, 0
0, 0
0, 0
0, 0
0, 0
0, 0
0, 0
0, 0
0, 0
0, 0
0, 0
0, 0
0, 0
0, 0
0, 0
0, 0
0, 0
0, 0
0, 0
0, 0
0, 0
0, 0
0, 0
0, 0
0, 0
0, 0
0, 0
0, 0
0, 0
0, 0
0, 0
0, 0
0, 0
0, 0
0, 0
0, 0
0, 0
0, 0
0, 0
0, 0
0, 0
0, 0
0, 0
0, 0
0, 0
0, 0
0, 0
0, 0
0, 0
0, 0
0, 0
0, 0
0, 0
0, 0
0, 0
0, 0
0, 0
0, 0
0, 0
0, 0
0, 0
0, 0
0, 0
0, 0
0, 0
0, 0
0, 0
0, 0
0, 0
0, 0
0, 0
0, 0
0, 0
0, 0
0, 0
0, 0
0, 0
0, 0
0, 0
0, 0
0, 0
0, 0
0, 0
0, 0
0, 0
0, 0
0, 0
0, 0
0, 0
0, 0
0, 0
0, 0
0, 0
0, 0
0, 0
0, 0
0, 0
0, 0
0, 0
0, 0
0, 0
0, 0
0, 0
0, 0
0, 0
0, 0
0, 0
0, 0
0, 0
0, 0
0, 0
0, 0
0, 0
0, 0
0, 0
0, 0
0, 0
0, 0
0, 0
0, 0
0, 0
0, 0
0, 0
0, 0
0, 0
0, 0
0, 0
0, 0
0, 0
0, 0
0, 0
0, 0
0, 0
0, 0
0, 0
0, 0
0, 0
0, 0
0, 0
0, 0
0, 0
0, 0
0, 0
0, 0
0, 0
0, 0
0, 0
0, 0
0, 0
0, 0
0, 0
0, 0
0, 0
0, 0
0, 0
0, 0
0, 0
0, 0
0, 0
0, 0
0, 0
0, 0
0, 0
0, 0
0, 0
0, 0
0, 0
0, 0
0, 0
0, 0
0, 0
0, 0
0, 0
0, 0
0, 0
0, 0
0, 0
0, 0
0, 0
0, 0
0, 0
0, 0
0, 0
0, 0
0, 0
0, 0
0, 0
0, 0
0, 0
0, 0
0, 0
0, 0
0, 0
0, 0
0, 0
0, 0
0, 0
0, 0
0, 0
0, 0
0, 0
0, 0
0, 0
0, 0
0, 0
0, 0
0, 0
0, 0
0, 0
0, 0
0, 0
0, 0
0, 0
0, 0
0, 0
0, 0
0, 0
0, 0
0, 0
0, 0
0, 0
0, 0
0, 0
0, 0
0, 0
0, 0
0, 0
0, 0
0, 0
0, 0
0, 0
0, 0
0, 0
0, 0
0, 0
0, 0
0, 0
0, 0
0, 0
0, 0
0, 0
0, 0
0, 0
0, 0
0, 0
0, 0
0, 0
0, 0
0, 0
0, 0
0, 0
0, 0
0, 0
0, 0
0, 0
0, 0
0, 0
0, 0
0, 0
0, 0
0, 0
0, 0
0, 0
0, 0
0, 0
0, 0
0, 0
0, 0
0, 0
0, 0
0, 0
0, 0
0, 0
0, 0
0, 0
0, 0
0, 0
0, 0
0, 0
0, 0
0, 0
0, 0
0, 0
0, 0
0, 0
0, 0
0, 0
0, 0
0, 0
0, 0
0, 0
0, 0
0, 0
0, 0
0, 0
0, 0
0, 0
0, 0
0, 0
0, 0
0, 0
0, 0
0, 0
0, 0
0, 0
0, 0
0, 0
0, 0
0, 0
0, 0
0, 0
0, 0
0, 0
0, 0
0, 0
0, 0
0, 0
0, 0
0, 0
0, 0
0, 0
0, 0
0, 0
0, 0
0, 0
0, 0
0, 0
0, 0
0, 0
0, 0
0, 0
0, 0
0, 0
0, 0
0, 0
0, 0
0, 0
0, 0
0, 0
0, 0
0, 0
0, 0
0, 0
0, 0
0, 0
0, 0
0, 0
0, 0
0, 0
0, 0
0, 0
0, 0
0, 0
0, 0
0, 0
0, 0
0, 0
0, 0
0, 0
0, 0
0, 0
0, 0
0, 0
0, 0
#ENDOFDATA     end of spectrum data