File: host_upload/02-11-2024/rqc/uplink1/ps__0567_0717304816_000rfs_shot_132.msa
#FORMAT      : EMSA/MAS spectral data file
#VERSION     : TC202v2.0 PIXL
#TITLE       : Novarupta (sol567) subset1
#DATE        : 02-11-2024      Date in the format DD-MMM-YYYY, for example 07-JUL-2010
#TIME        :             The time of day at which the spectrum was recorded, in 24-hour format
#OWNER       : PIXL Flight Model       (PIXL will use this to indicate which instrument took the data.)
#NPOINTS     : 4096     Number of data points in the spectrum (This can be zero for configuration only files)
#NCOLUMNS    : 2     Number of data columns in the spectrum (This can be zero for configuration only files)
#XUNITS      : eV
#YUNITS      : COUNTS
#DATATYPE    : YY
#XPERCHAN    : 7.862, 7.881   eV per channel (separate by commas if more than one detector)
#OFFSET      : 18.5, -22.4         eV of first channel  (separate by commas if more than one detector
#SIGNALTYPE  : XRF
#YP_TEMP     : -0.266
#LIVETIME    : 8.82638, 8.81797   seconds (separate by commas if more than one detector)
#REALTIME    : 10, 10.0   seconds (separate by commas if more than one detector)
#SPECTRUM    : start of spectrum data
0, 0
0, 0
0, 0
0, 0
0, 0
0, 0
0, 0
0, 0
0, 0
0, 0
0, 0
0, 0
0, 0
0, 0
0, 0
0, 0
0, 0
0, 0
0, 0
0, 0
0, 0
0, 0
0, 0
0, 0
0, 0
0, 0
0, 0
0, 0
0, 0
0, 0
0, 0
0, 0
1, 0
0, 1
0, 3
2, 0
3, 3
2, 1
2, 3
5, 3
3, 3
3, 3
3, 3
1, 5
2, 3
5, 4
5, 3
2, 3
3, 5
4, 3
8, 4
8, 10
19, 12
18, 7
21, 10
11, 14
16, 18
12, 6
5, 11
11, 13
12, 22
28, 17
48, 38
40, 48
49, 55
53, 56
53, 41
27, 23
29, 40
54, 65
112, 131
198, 223
319, 299
420, 454
463, 508
524, 474
420, 413
391, 347
232, 234
141, 130
86, 83
49, 37
28, 34
26, 33
23, 37
26, 40
30, 45
21, 34
23, 24
19, 19
21, 14
11, 21
21, 31
50, 56
89, 83
127, 119
190, 183
264, 272
331, 307
300, 326
267, 267
219, 230
140, 121
110, 100
67, 62
45, 50
45, 74
77, 68
79, 88
104, 141
170, 153
235, 219
223, 246
220, 235
199, 214
154, 177
124, 130
131, 99
77, 70
75, 90
89, 84
67, 85
56, 54
52, 48
39, 47
40, 28
32, 36
28, 20
22, 11
16, 16
13, 11
9, 10
1, 9
3, 11
8, 11
6, 9
10, 14
11, 13
13, 16
21, 29
30, 25
26, 26
17, 24
23, 21
17, 15
18, 13
11, 16
12, 9
8, 9
15, 16
38, 42
40, 74
95, 111
134, 149
224, 256
298, 303
323, 378
361, 362
325, 362
283, 311
205, 227
155, 137
95, 95
46, 62
41, 34
26, 29
23, 35
41, 27
42, 39
58, 52
57, 72
45, 68
56, 60
50, 50
49, 36
29, 29
14, 24
13, 11
10, 7
9, 11
7, 5
7, 12
15, 8
9, 16
7, 7
14, 10
15, 19
25, 29
28, 51
42, 46
50, 50
55, 67
66, 60
59, 53
58, 38
53, 37
21, 33
26, 27
21, 24
22, 24
20, 12
11, 11
23, 10
11, 10
18, 5
17, 16
16, 16
19, 11
14, 19
11, 23
15, 20
14, 20
18, 20
11, 18
9, 16
17, 9
3, 12
15, 12
11, 12
13, 7
14, 7
12, 13
12, 9
16, 15
16, 8
9, 18
16, 28
34, 19
29, 34
33, 21
21, 36
35, 36
25, 25
28, 19
28, 12
19, 15
17, 12
11, 10
8, 12
8, 9
15, 9
6, 6
9, 13
8, 16
21, 16
18, 25
20, 29
35, 41
36, 33
48, 46
44, 53
47, 59
38, 56
33, 45
36, 33
27, 20
23, 20
15, 12
22, 17
15, 22
23, 23
28, 30
46, 65
69, 90
132, 170
274, 310
411, 515
649, 784
997, 1080
1284, 1504
1581, 1683
1638, 1778
1682, 1810
1609, 1623
1476, 1359
1181, 1029
812, 735
575, 440
345, 298
225, 183
113, 82
59, 42
37, 28
25, 21
14, 24
17, 17
17, 7
13, 18
23, 21
18, 20
32, 25
29, 49
40, 54
68, 91
82, 95
112, 149
180, 205
207, 214
235, 242
258, 278
272, 288
245, 225
208, 224
151, 152
127, 95
111, 79
56, 35
27, 28
23, 15
10, 13
15, 7
10, 13
9, 8
13, 8
13, 14
10, 11
12, 16
11, 19
15, 20
18, 10
11, 11
13, 12
14, 10
5, 10
13, 11
6, 6
3, 5
8, 9
9, 2
5, 7
6, 10
6, 7
4, 5
7, 7
9, 4
8, 6
5, 6
4, 3
6, 8
7, 10
6, 5
11, 8
7, 6
10, 7
3, 7
6, 10
11, 8
9, 10
15, 7
9, 4
7, 11
8, 7
8, 7
8, 5
6, 7
5, 9
9, 5
7, 15
8, 7
10, 5
5, 8
11, 8
10, 13
6, 8
14, 9
12, 13
16, 5
11, 14
12, 19
10, 9
8, 7
11, 12
4, 9
8, 6
7, 4
8, 5
5, 5
3, 9
6, 10
2, 1
7, 5
6, 5
2, 7
9, 7
6, 10
7, 10
4, 2
1, 3
10, 6
7, 8
4, 3
6, 7
3, 10
6, 4
3, 5
13, 1
4, 5
3, 6
4, 6
5, 6
4, 3
9, 3
6, 4
4, 7
4, 6
5, 6
3, 8
5, 6
4, 4
5, 8
5, 2
4, 5
3, 5
6, 3
5, 5
1, 7
6, 5
2, 4
3, 5
4, 4
5, 7
3, 4
5, 3
2, 3
2, 4
7, 6
4, 2
3, 3
3, 3
7, 2
2, 2
6, 4
4, 1
2, 4
4, 10
3, 6
2, 4
4, 8
4, 3
5, 2
3, 5
4, 2
2, 3
5, 2
5, 6
4, 3
7, 5
4, 2
5, 2
5, 2
3, 3
3, 3
6, 5
4, 5
2, 1
2, 2
0, 5
4, 7
5, 4
2, 7
5, 1
2, 4
4, 2
2, 3
3, 3
1, 5
2, 1
3, 5
5, 1
4, 1
1, 3
1, 2
3, 3
1, 5
3, 1
2, 3
5, 1
1, 3
1, 0
3, 2
4, 3
2, 4
2, 3
1, 7
5, 1
2, 1
2, 2
3, 0
2, 3
2, 1
5, 1
6, 1
2, 2
2, 1
4, 3
4, 2
3, 3
4, 2
0, 3
2, 5
3, 4
3, 4
3, 1
4, 2
1, 2
3, 3
1, 0
0, 3
3, 3
3, 2
3, 1
0, 4
4, 1
2, 1
2, 0
1, 3
4, 4
1, 3
2, 2
3, 2
2, 1
3, 5
0, 2
1, 1
3, 4
0, 4
1, 2
2, 2
0, 1
5, 2
1, 1
4, 0
1, 1
2, 3
0, 1
2, 1
2, 2
3, 3
1, 1
1, 4
5, 3
3, 4
3, 3
2, 4
3, 2
2, 2
1, 3
1, 4
4, 5
3, 1
0, 1
2, 1
0, 2
3, 2
2, 2
3, 2
2, 5
2, 2
4, 6
2, 4
4, 1
1, 4
0, 0
0, 2
5, 3
2, 1
5, 1
1, 3
1, 0
2, 7
0, 2
1, 2
1, 1
3, 0
0, 0
0, 1
4, 5
2, 1
3, 2
3, 1
1, 0
1, 2
3, 1
0, 2
1, 1
2, 0
3, 0
2, 2
1, 2
1, 1
0, 0
1, 1
0, 0
1, 0
0, 0
2, 1
2, 1
1, 2
1, 1
1, 1
2, 0
2, 1
1, 0
2, 4
1, 4
2, 1
0, 3
0, 3
0, 1
1, 1
1, 0
2, 2
1, 2
0, 0
1, 2
0, 1
1, 1
2, 0
2, 1
1, 1
1, 0
1, 1
1, 0
4, 1
0, 0
2, 1
0, 1
0, 0
2, 1
0, 1
2, 0
0, 2
1, 0
0, 1
1, 1
1, 1
1, 2
0, 0
1, 0
2, 1
1, 0
0, 0
1, 1
0, 1
1, 1
0, 1
0, 0
1, 0
1, 1
0, 0
0, 0
0, 1
0, 1
0, 1
1, 0
1, 1
1, 0
0, 0
2, 1
0, 0
3, 2
1, 1
2, 0
0, 1
0, 0
0, 0
0, 0
2, 1
0, 1
1, 0
0, 0
0, 0
1, 1
0, 1
0, 3
0, 0
0, 0
0, 2
0, 0
0, 0
0, 0
1, 0
0, 2
1, 0
1, 0
0, 1
1, 0
0, 0
0, 0
0, 2
1, 1
0, 0
0, 1
2, 1
0, 0
1, 2
0, 0
0, 2
1, 0
0, 0
0, 0
0, 0
1, 0
0, 0
1, 1
0, 0
0, 1
0, 0
0, 0
1, 0
1, 0
0, 1
0, 0
0, 0
1, 1
0, 0
0, 0
0, 0
0, 1
0, 0
0, 1
0, 0
0, 0
0, 0
0, 0
1, 1
0, 0
0, 2
4, 0
0, 2
0, 0
1, 1
1, 0
0, 2
1, 0
1, 0
1, 0
0, 1
0, 0
0, 0
0, 0
0, 0
2, 1
1, 0
0, 0
0, 0
1, 1
2, 0
0, 0
1, 2
0, 0
0, 0
1, 1
1, 0
0, 2
2, 0
0, 0
1, 0
0, 2
1, 0
0, 0
1, 0
0, 0
0, 1
0, 1
0, 0
0, 1
0, 0
0, 1
0, 1
1, 1
0, 1
2, 0
0, 0
0, 0
0, 1
0, 0
1, 0
0, 0
0, 0
0, 0
0, 0
0, 0
0, 0
0, 0
0, 0
0, 0
0, 0
0, 0
0, 0
1, 0
0, 0
1, 1
0, 0
1, 1
0, 1
0, 0
2, 0
1, 0
0, 0
2, 1
0, 1
0, 0
0, 0
1, 0
0, 0
2, 2
0, 0
0, 0
0, 1
0, 0
0, 1
0, 0
0, 0
1, 0
1, 0
0, 1
0, 0
0, 0
0, 1
0, 3
0, 0
0, 0
0, 1
0, 0
0, 0
0, 0
0, 0
0, 1
0, 0
1, 0
0, 0
0, 0
0, 0
1, 1
0, 0
0, 0
0, 0
0, 0
0, 0
0, 0
1, 0
0, 0
0, 0
0, 0
0, 1
0, 0
0, 0
1, 0
0, 0
0, 0
0, 2
0, 0
0, 0
0, 0
0, 0
0, 1
0, 0
0, 2
0, 0
0, 0
1, 0
0, 0
0, 1
0, 0
0, 0
0, 0
0, 0
1, 0
0, 0
0, 0
0, 0
0, 0
0, 0
0, 0
0, 0
1, 0
0, 0
0, 0
0, 0
0, 0
0, 0
0, 0
0, 0
0, 0
0, 0
0, 0
0, 0
0, 0
0, 0
0, 0
1, 0
0, 1
0, 0
0, 0
0, 0
0, 0
0, 0
0, 0
0, 0
0, 0
0, 0
0, 0
0, 0
0, 0
0, 0
2, 0
0, 0
0, 1
0, 0
0, 0
0, 0
0, 0
0, 0
0, 0
0, 0
0, 0
0, 0
0, 0
0, 0
0, 0
0, 0
0, 0
0, 0
1, 0
0, 0
0, 0
1, 0
0, 0
0, 0
0, 0
0, 0
0, 0
0, 0
0, 0
0, 0
0, 0
0, 0
0, 0
0, 0
0, 0
0, 0
0, 0
0, 0
0, 0
0, 0
0, 0
0, 0
0, 0
0, 0
0, 0
0, 0
0, 0
0, 0
0, 0
0, 0
0, 0
0, 0
0, 0
0, 0
0, 0
0, 0
0, 0
0, 0
0, 0
0, 0
0, 1
0, 0
0, 0
0, 0
0, 0
0, 0
0, 0
0, 0
0, 0
0, 0
0, 0
0, 0
0, 0
0, 0
0, 0
0, 0
0, 0
0, 0
0, 0
0, 0
0, 0
0, 0
0, 0
0, 0
0, 0
0, 0
0, 0
0, 0
0, 0
0, 0
0, 1
0, 0
0, 0
0, 0
0, 0
0, 0
0, 0
0, 0
0, 0
0, 0
0, 0
0, 0
0, 1
0, 0
0, 0
0, 0
0, 0
0, 0
0, 0
0, 0
0, 0
0, 0
0, 0
0, 0
0, 0
1, 0
0, 0
0, 0
0, 0
0, 0
0, 0
0, 0
0, 0
0, 0
0, 0
0, 0
0, 0
0, 0
0, 0
0, 0
0, 0
0, 0
0, 0
0, 0
0, 0
0, 0
0, 0
0, 0
0, 0
0, 0
0, 0
0, 0
0, 0
0, 0
0, 0
0, 0
0, 0
0, 0
0, 0
0, 0
0, 0
0, 0
0, 0
0, 0
0, 0
0, 0
0, 0
0, 0
0, 0
0, 0
0, 0
0, 0
0, 0
0, 0
0, 0
0, 0
0, 0
0, 0
0, 0
0, 0
0, 0
0, 0
0, 0
0, 0
0, 0
0, 0
0, 0
0, 0
0, 0
0, 0
0, 0
0, 0
0, 0
0, 0
0, 0
0, 0
0, 0
0, 0
0, 0
0, 0
0, 0
0, 0
0, 0
0, 0
0, 0
0, 0
0, 0
0, 0
0, 0
0, 0
0, 0
0, 0
0, 0
0, 0
0, 0
0, 0
0, 0
0, 0
0, 0
0, 0
0, 0
0, 0
0, 0
0, 0
0, 0
0, 0
0, 0
0, 0
0, 0
0, 0
0, 0
0, 0
0, 0
0, 0
0, 0
0, 0
0, 0
0, 0
0, 0
0, 0
0, 0
0, 0
0, 0
0, 0
0, 0
0, 0
0, 0
0, 0
0, 0
0, 0
0, 0
0, 0
0, 0
0, 0
0, 0
0, 0
0, 0
0, 0
0, 0
0, 0
0, 0
0, 0
0, 0
0, 0
0, 0
0, 0
0, 0
0, 0
0, 0
0, 0
0, 0
0, 0
0, 0
0, 0
0, 0
0, 0
0, 0
0, 0
0, 0
0, 0
0, 0
0, 0
0, 0
0, 0
0, 0
0, 0
0, 0
0, 0
0, 0
0, 0
0, 0
0, 0
0, 0
0, 0
0, 0
0, 0
0, 0
0, 0
0, 0
0, 0
0, 0
0, 0
0, 0
0, 0
0, 0
0, 0
0, 0
0, 0
0, 0
0, 0
0, 0
0, 0
0, 0
0, 0
0, 0
0, 0
0, 0
0, 0
0, 0
0, 0
0, 0
0, 0
0, 0
0, 0
0, 0
0, 0
0, 0
0, 0
0, 0
0, 0
0, 0
0, 0
0, 0
0, 0
0, 0
0, 0
0, 0
0, 0
0, 0
0, 0
0, 0
0, 0
0, 0
0, 0
0, 0
0, 0
0, 0
0, 0
0, 0
0, 0
0, 0
0, 0
0, 0
0, 0
0, 0
0, 0
0, 0
0, 0
0, 0
0, 0
0, 0
0, 0
0, 0
0, 0
0, 0
0, 0
0, 0
0, 0
0, 0
0, 0
0, 0
0, 0
0, 0
0, 0
0, 0
0, 0
0, 0
0, 0
0, 0
0, 0
0, 0
0, 0
0, 0
0, 0
0, 0
0, 0
0, 0
0, 0
0, 0
0, 0
0, 0
0, 0
0, 0
0, 0
0, 0
0, 0
0, 0
0, 0
0, 0
0, 0
0, 0
0, 0
0, 0
0, 0
0, 0
0, 0
0, 0
0, 0
0, 0
0, 0
0, 0
0, 0
0, 0
0, 0
0, 0
0, 0
0, 0
0, 0
0, 0
0, 0
0, 0
0, 0
0, 0
0, 0
0, 0
0, 0
0, 0
0, 0
0, 0
0, 0
0, 0
0, 0
0, 0
0, 0
0, 0
0, 0
0, 0
0, 0
0, 0
0, 0
0, 0
0, 0
0, 0
0, 0
0, 0
0, 0
0, 0
0, 0
0, 0
0, 0
0, 0
0, 0
0, 0
0, 0
0, 0
0, 0
0, 0
0, 0
0, 0
0, 0
0, 0
0, 0
0, 0
0, 0
0, 0
0, 0
0, 0
0, 0
0, 0
0, 0
#ENDOFDATA     end of spectrum data