File: host_upload/02-11-2024/rqc/uplink1/ps__0567_0717304816_000rfs_shot_218.msa
#FORMAT      : EMSA/MAS spectral data file
#VERSION     : TC202v2.0 PIXL
#TITLE       : Novarupta (sol567) subset1
#DATE        : 02-11-2024      Date in the format DD-MMM-YYYY, for example 07-JUL-2010
#TIME        :             The time of day at which the spectrum was recorded, in 24-hour format
#OWNER       : PIXL Flight Model       (PIXL will use this to indicate which instrument took the data.)
#NPOINTS     : 4096     Number of data points in the spectrum (This can be zero for configuration only files)
#NCOLUMNS    : 2     Number of data columns in the spectrum (This can be zero for configuration only files)
#XUNITS      : eV
#YUNITS      : COUNTS
#DATATYPE    : YY
#XPERCHAN    : 7.862, 7.881   eV per channel (separate by commas if more than one detector)
#OFFSET      : 18.5, -22.4         eV of first channel  (separate by commas if more than one detector
#SIGNALTYPE  : XRF
#YP_TEMP     : 0.664
#LIVETIME    : 8.84076, 8.83219   seconds (separate by commas if more than one detector)
#REALTIME    : 10, 10.0   seconds (separate by commas if more than one detector)
#SPECTRUM    : start of spectrum data
0, 0
0, 0
0, 0
0, 0
0, 0
0, 0
0, 0
0, 0
0, 0
0, 0
0, 0
0, 0
0, 0
0, 0
0, 0
0, 0
0, 0
0, 0
0, 0
0, 0
0, 0
0, 0
0, 0
0, 0
0, 0
0, 0
0, 0
0, 0
0, 0
0, 0
0, 0
0, 0
0, 1
0, 0
2, 1
1, 2
5, 3
4, 3
2, 5
1, 3
3, 1
1, 1
3, 1
2, 1
5, 3
2, 5
1, 4
3, 1
6, 1
3, 4
9, 4
14, 14
6, 9
18, 13
14, 12
12, 10
17, 11
6, 7
6, 11
14, 17
15, 25
20, 26
36, 22
44, 42
41, 48
32, 43
41, 36
30, 40
33, 30
47, 57
116, 128
159, 208
264, 306
392, 435
443, 463
453, 510
426, 433
345, 324
223, 207
138, 145
71, 90
39, 61
30, 41
29, 31
26, 36
30, 33
29, 38
28, 30
23, 34
19, 20
15, 10
19, 12
22, 26
27, 40
70, 57
125, 125
163, 205
213, 264
236, 283
249, 273
245, 235
191, 185
114, 121
95, 85
60, 75
43, 54
54, 56
61, 70
91, 78
103, 137
169, 183
192, 219
207, 225
210, 228
192, 223
144, 158
112, 115
93, 105
100, 76
68, 83
76, 64
59, 77
65, 60
52, 57
40, 47
37, 41
31, 28
15, 30
17, 19
19, 10
9, 9
8, 6
7, 6
11, 7
5, 5
4, 8
12, 12
19, 15
18, 13
14, 18
29, 29
24, 31
27, 30
27, 24
22, 16
10, 13
13, 8
13, 9
14, 5
22, 17
22, 30
55, 65
68, 99
116, 159
188, 212
254, 325
341, 388
332, 387
341, 350
268, 284
221, 231
156, 162
102, 104
52, 52
36, 42
32, 31
26, 28
36, 28
37, 38
39, 55
57, 48
63, 66
46, 51
50, 36
49, 37
24, 23
19, 22
18, 12
9, 10
7, 7
9, 9
8, 8
13, 14
10, 14
10, 14
11, 16
17, 17
28, 21
22, 36
41, 40
53, 65
59, 55
67, 85
53, 65
51, 48
41, 42
38, 30
23, 29
28, 13
21, 17
15, 21
18, 13
11, 17
11, 20
15, 14
11, 23
13, 16
23, 19
21, 15
21, 17
13, 21
25, 17
18, 25
20, 12
12, 19
8, 14
6, 16
14, 16
6, 6
11, 13
8, 14
10, 9
8, 10
8, 18
13, 14
18, 18
20, 21
25, 26
31, 35
22, 33
31, 28
22, 25
31, 28
20, 24
17, 17
15, 21
15, 20
20, 14
4, 17
10, 8
17, 11
13, 13
11, 10
16, 12
13, 20
26, 20
21, 30
30, 34
31, 46
49, 52
56, 52
54, 53
47, 54
40, 44
34, 29
33, 30
27, 22
26, 22
19, 21
13, 12
19, 19
25, 32
30, 49
76, 93
123, 156
205, 268
373, 463
608, 745
899, 964
1079, 1367
1413, 1639
1553, 1830
1714, 1784
1571, 1754
1386, 1349
1119, 1043
835, 739
543, 460
351, 330
199, 170
119, 81
64, 56
29, 28
31, 31
23, 20
23, 22
14, 14
13, 20
18, 18
18, 20
25, 24
34, 35
35, 52
65, 77
64, 112
105, 136
144, 210
190, 212
228, 249
294, 264
269, 270
232, 244
180, 210
147, 160
138, 102
82, 76
53, 38
35, 26
29, 21
18, 10
14, 8
7, 9
6, 9
4, 17
9, 8
17, 11
14, 9
13, 13
10, 9
12, 13
10, 8
12, 7
6, 5
7, 7
4, 9
8, 2
4, 13
5, 11
8, 4
4, 10
3, 4
4, 4
7, 5
4, 10
6, 6
7, 6
9, 6
4, 8
4, 5
3, 3
7, 6
10, 8
5, 6
7, 0
4, 6
2, 9
3, 8
7, 6
7, 6
5, 6
0, 10
5, 4
8, 4
7, 9
6, 9
8, 7
9, 4
8, 3
5, 14
6, 6
4, 9
7, 4
10, 4
7, 10
12, 8
12, 5
11, 10
10, 8
15, 10
8, 8
6, 8
3, 9
4, 9
9, 6
5, 7
6, 10
6, 8
4, 9
7, 5
5, 8
4, 6
6, 8
6, 3
1, 5
6, 4
4, 4
2, 5
3, 8
4, 8
6, 8
4, 4
3, 3
7, 5
3, 8
7, 7
3, 4
4, 9
1, 7
6, 3
4, 8
3, 0
10, 7
5, 4
5, 7
5, 7
9, 4
3, 3
6, 7
6, 3
3, 7
3, 6
7, 5
3, 2
5, 2
4, 4
1, 1
2, 2
0, 2
4, 4
9, 2
3, 8
4, 5
5, 3
3, 4
3, 6
5, 6
5, 6
2, 5
4, 3
6, 4
4, 4
2, 1
3, 4
4, 2
1, 4
4, 5
1, 6
4, 7
4, 6
1, 4
3, 3
3, 4
3, 5
7, 6
3, 3
1, 3
3, 1
2, 4
5, 2
3, 2
4, 3
1, 6
3, 6
8, 4
3, 2
2, 5
3, 5
1, 4
3, 2
3, 3
2, 3
4, 1
2, 2
4, 4
4, 5
4, 1
0, 5
4, 4
1, 5
3, 1
1, 3
3, 1
4, 3
1, 5
1, 1
6, 4
2, 4
2, 2
3, 2
0, 4
4, 3
4, 0
2, 5
1, 4
1, 3
1, 2
2, 3
1, 3
3, 1
4, 1
1, 3
2, 4
2, 4
1, 2
1, 4
1, 2
2, 4
1, 1
1, 4
3, 1
2, 6
2, 4
1, 0
2, 1
2, 3
0, 4
4, 2
1, 2
2, 6
1, 0
2, 5
3, 1
3, 2
0, 6
0, 2
1, 0
0, 2
1, 5
1, 4
2, 2
2, 0
1, 2
3, 1
3, 3
2, 0
0, 2
3, 0
0, 0
0, 6
0, 1
0, 2
1, 1
0, 4
2, 3
0, 3
2, 4
3, 2
4, 3
0, 4
3, 2
5, 3
3, 6
2, 2
4, 4
3, 2
1, 1
0, 2
0, 2
2, 2
1, 2
1, 3
3, 1
2, 3
1, 1
2, 1
1, 2
1, 1
1, 1
2, 3
0, 1
3, 2
1, 2
2, 5
3, 0
1, 2
3, 3
0, 2
3, 1
1, 0
2, 6
0, 0
0, 3
4, 1
1, 2
0, 1
3, 1
1, 3
2, 1
2, 0
0, 4
1, 0
1, 3
0, 2
2, 3
3, 1
0, 3
1, 2
2, 2
1, 2
2, 0
0, 2
0, 0
2, 1
0, 0
3, 2
0, 1
2, 1
0, 2
3, 0
1, 0
2, 0
1, 3
0, 1
0, 2
2, 0
0, 0
1, 0
0, 0
0, 1
2, 0
0, 0
0, 2
0, 0
0, 0
0, 1
0, 0
1, 2
1, 0
2, 1
1, 1
1, 2
0, 2
0, 0
0, 0
0, 0
0, 1
0, 3
1, 1
2, 0
0, 0
1, 1
1, 0
0, 1
0, 0
0, 4
1, 0
0, 0
1, 0
0, 3
3, 0
1, 1
1, 2
1, 2
0, 0
0, 1
1, 0
1, 2
0, 2
2, 4
2, 0
1, 2
0, 1
0, 0
2, 0
1, 0
0, 1
2, 0
1, 1
0, 2
0, 1
0, 0
0, 1
0, 0
1, 0
0, 0
0, 1
0, 0
0, 0
2, 1
1, 0
1, 0
0, 0
0, 0
0, 2
0, 0
2, 0
0, 0
1, 0
0, 1
0, 0
0, 0
0, 0
0, 2
0, 0
0, 0
0, 0
1, 0
0, 0
0, 0
0, 0
0, 0
0, 1
3, 0
0, 1
1, 0
0, 1
1, 0
1, 0
0, 0
0, 0
0, 0
0, 0
2, 0
0, 0
1, 0
0, 0
1, 0
0, 0
0, 0
0, 0
0, 0
0, 0
1, 0
1, 0
0, 1
0, 0
0, 0
0, 0
0, 0
0, 0
0, 0
0, 0
1, 0
0, 0
0, 0
0, 1
1, 0
0, 0
0, 1
0, 0
1, 1
0, 1
0, 0
0, 0
2, 1
0, 0
1, 1
0, 0
0, 1
0, 0
2, 0
1, 1
0, 1
0, 0
0, 0
0, 0
0, 0
1, 0
2, 2
0, 0
0, 0
0, 1
0, 0
0, 0
0, 0
0, 1
0, 0
0, 0
1, 0
0, 0
0, 1
0, 0
2, 0
0, 0
0, 0
0, 0
0, 0
1, 0
0, 0
0, 0
1, 2
0, 0
0, 0
0, 0
1, 0
1, 0
0, 0
0, 0
1, 0
0, 0
0, 0
0, 0
0, 0
0, 1
0, 1
0, 0
1, 0
1, 0
1, 1
0, 0
0, 0
0, 0
1, 0
0, 0
0, 0
0, 0
0, 0
0, 0
0, 0
1, 0
0, 0
0, 0
0, 0
0, 0
0, 0
0, 0
0, 0
0, 0
1, 0
0, 1
0, 0
0, 0
0, 0
0, 0
0, 1
0, 0
0, 0
0, 0
0, 0
0, 0
0, 0
0, 0
0, 0
0, 0
0, 0
1, 0
0, 0
0, 2
0, 0
0, 0
0, 0
0, 0
1, 0
0, 0
0, 0
1, 0
0, 0
0, 0
0, 0
0, 0
0, 0
2, 0
0, 0
0, 0
0, 0
0, 0
1, 0
0, 0
0, 0
0, 0
0, 0
1, 0
0, 0
0, 0
0, 0
0, 0
0, 0
0, 0
1, 0
0, 0
0, 1
0, 0
0, 1
0, 0
0, 0
0, 0
0, 0
0, 0
0, 0
0, 0
0, 0
0, 0
0, 0
0, 0
0, 0
0, 0
0, 0
0, 0
0, 0
1, 0
0, 0
0, 0
0, 0
0, 0
0, 0
0, 0
0, 0
0, 0
0, 0
0, 0
0, 0
0, 0
0, 0
0, 0
0, 0
1, 1
0, 0
0, 0
0, 0
0, 0
0, 0
0, 0
0, 0
0, 0
1, 0
0, 0
0, 0
0, 0
0, 0
0, 0
0, 0
0, 0
0, 0
0, 0
0, 0
0, 0
0, 0
0, 0
0, 0
0, 0
0, 0
0, 0
0, 0
0, 0
0, 0
1, 0
0, 0
0, 0
0, 0
0, 0
0, 0
0, 0
0, 0
0, 0
0, 0
0, 0
0, 0
0, 0
0, 0
1, 0
0, 0
0, 0
0, 0
0, 0
0, 0
0, 0
0, 0
0, 0
0, 0
0, 0
0, 0
0, 0
0, 0
0, 0
1, 0
0, 0
0, 0
0, 0
0, 0
0, 0
0, 0
0, 0
0, 0
0, 0
0, 0
0, 0
0, 0
0, 0
0, 1
0, 0
0, 0
0, 0
0, 0
0, 0
0, 0
0, 0
0, 0
0, 0
0, 0
0, 0
0, 0
0, 0
0, 0
0, 0
0, 0
0, 0
0, 0
0, 0
0, 0
0, 0
0, 0
0, 0
0, 0
0, 0
0, 0
0, 0
0, 0
0, 0
0, 0
0, 0
0, 0
0, 0
0, 0
0, 0
0, 0
0, 0
0, 0
0, 0
0, 0
0, 0
0, 0
0, 0
0, 0
0, 0
0, 0
0, 0
0, 0
0, 0
0, 0
0, 0
0, 0
0, 0
0, 0
0, 0
0, 0
0, 0
0, 0
0, 0
0, 0
0, 0
0, 0
0, 0
0, 0
0, 0
0, 0
0, 0
0, 0
0, 0
0, 0
0, 0
0, 0
0, 0
0, 0
0, 0
0, 0
0, 0
0, 0
0, 0
0, 0
0, 0
0, 0
0, 0
0, 0
0, 0
0, 0
0, 0
0, 0
0, 0
0, 0
0, 0
0, 0
0, 0
0, 0
0, 0
0, 0
0, 0
0, 0
0, 0
0, 0
0, 0
0, 0
0, 0
0, 0
0, 0
0, 0
0, 0
0, 0
0, 0
0, 0
0, 0
0, 0
0, 0
0, 0
0, 0
0, 0
0, 0
0, 0
0, 0
0, 0
0, 0
0, 0
0, 0
0, 0
0, 0
0, 0
0, 0
0, 0
0, 0
0, 0
0, 0
0, 0
0, 0
0, 0
0, 0
0, 0
0, 0
0, 0
0, 0
0, 0
0, 0
0, 0
0, 0
0, 0
0, 0
0, 0
0, 0
0, 0
0, 0
0, 0
0, 0
0, 0
0, 0
0, 0
0, 0
0, 0
0, 0
0, 0
0, 0
0, 0
0, 0
0, 0
0, 0
0, 0
0, 0
0, 0
0, 0
0, 0
0, 0
0, 0
0, 0
0, 0
0, 0
0, 0
0, 0
0, 0
0, 0
0, 0
0, 0
0, 0
0, 0
0, 0
0, 0
0, 0
0, 0
0, 0
0, 0
0, 0
0, 0
0, 0
0, 0
0, 0
0, 0
0, 0
0, 0
0, 0
0, 0
0, 0
0, 0
0, 0
0, 0
0, 0
0, 0
0, 0
0, 0
0, 0
0, 0
0, 0
0, 0
0, 0
0, 0
0, 0
0, 0
0, 0
0, 0
0, 0
0, 0
0, 0
0, 0
0, 0
0, 0
0, 0
0, 0
0, 0
0, 0
0, 0
0, 0
0, 0
0, 0
0, 0
0, 0
0, 0
0, 0
0, 0
0, 0
0, 0
0, 0
0, 0
0, 0
0, 0
0, 0
0, 0
0, 0
0, 0
0, 0
0, 0
0, 0
0, 0
0, 0
0, 0
0, 0
0, 0
0, 0
0, 0
0, 0
0, 0
0, 0
0, 0
0, 0
0, 0
0, 0
0, 0
0, 0
0, 0
0, 0
0, 0
0, 0
0, 0
0, 0
0, 0
0, 0
0, 0
0, 0
0, 0
0, 0
0, 0
0, 0
0, 0
0, 0
0, 0
0, 0
0, 0
0, 0
0, 0
0, 0
0, 0
0, 0
0, 0
0, 0
0, 0
0, 0
0, 0
0, 0
0, 0
0, 0
0, 0
0, 0
0, 0
0, 0
0, 0
0, 0
0, 0
0, 0
0, 0
0, 0
0, 0
0, 0
0, 0
0, 0
0, 0
0, 0
0, 0
0, 0
0, 0
0, 0
0, 0
0, 0
0, 0
0, 0
0, 0
0, 0
0, 0
0, 0
0, 0
0, 0
0, 0
0, 0
0, 0
0, 0
0, 0
0, 0
0, 0
0, 0
0, 0
0, 0
0, 0
0, 0
0, 0
0, 0
0, 0
0, 0
0, 0
0, 0
0, 0
0, 0
0, 0
0, 0
0, 0
0, 0
0, 0
0, 0
0, 0
0, 0
0, 0
0, 0
0, 0
0, 0
0, 0
0, 0
0, 0
0, 0
0, 0
0, 0
0, 0
0, 0
0, 0
0, 0
0, 0
0, 0
0, 0
0, 0
0, 0
0, 0
0, 0
0, 0
0, 0
0, 0
0, 0
0, 0
0, 0
0, 0
0, 0
0, 0
0, 0
0, 0
0, 0
0, 0
0, 0
0, 0
0, 0
0, 0
0, 0
0, 0
0, 0
0, 0
0, 0
0, 0
#ENDOFDATA     end of spectrum data