File: host_upload/02-11-2024/rqc/uplink1/ps__0567_0717304816_000rfs_shot_147.msa
#FORMAT      : EMSA/MAS spectral data file
#VERSION     : TC202v2.0 PIXL
#TITLE       : Novarupta (sol567) subset1
#DATE        : 02-11-2024      Date in the format DD-MMM-YYYY, for example 07-JUL-2010
#TIME        :             The time of day at which the spectrum was recorded, in 24-hour format
#OWNER       : PIXL Flight Model       (PIXL will use this to indicate which instrument took the data.)
#NPOINTS     : 4096     Number of data points in the spectrum (This can be zero for configuration only files)
#NCOLUMNS    : 2     Number of data columns in the spectrum (This can be zero for configuration only files)
#XUNITS      : eV
#YUNITS      : COUNTS
#DATATYPE    : YY
#XPERCHAN    : 7.862, 7.881   eV per channel (separate by commas if more than one detector)
#OFFSET      : 18.5, -22.4         eV of first channel  (separate by commas if more than one detector
#SIGNALTYPE  : XRF
#YP_TEMP     : 0.343
#LIVETIME    : 8.83455, 8.81659   seconds (separate by commas if more than one detector)
#REALTIME    : 10, 10.0   seconds (separate by commas if more than one detector)
#SPECTRUM    : start of spectrum data
0, 0
0, 0
0, 0
0, 0
0, 0
0, 0
0, 0
0, 0
0, 0
0, 0
0, 0
0, 0
0, 0
0, 0
0, 0
0, 0
0, 0
0, 0
0, 0
0, 0
0, 0
0, 0
0, 0
0, 0
0, 0
0, 0
0, 0
0, 0
0, 0
0, 0
0, 0
0, 0
0, 0
0, 0
0, 0
1, 1
1, 3
4, 4
3, 2
2, 5
4, 5
4, 6
5, 2
2, 4
7, 6
4, 4
2, 1
5, 3
4, 6
6, 2
8, 8
8, 4
14, 11
12, 15
12, 21
12, 15
9, 16
9, 16
13, 11
10, 14
7, 29
18, 26
20, 43
40, 63
48, 57
49, 54
30, 36
25, 32
28, 39
62, 81
102, 121
189, 237
268, 371
401, 500
445, 529
492, 551
414, 443
334, 334
226, 258
140, 165
87, 78
44, 62
28, 39
41, 39
31, 32
34, 37
37, 40
29, 46
28, 38
15, 17
18, 17
16, 24
32, 30
47, 55
84, 87
123, 159
176, 239
221, 291
299, 339
329, 339
288, 297
194, 209
133, 148
88, 94
68, 72
41, 60
46, 55
70, 73
91, 97
141, 188
156, 206
225, 272
232, 262
246, 257
223, 232
143, 174
130, 142
117, 130
104, 120
64, 87
66, 82
64, 71
63, 80
54, 64
61, 41
32, 41
36, 35
19, 17
14, 24
12, 22
15, 12
9, 6
6, 7
4, 5
11, 10
8, 5
8, 12
17, 15
18, 18
21, 26
26, 28
21, 38
32, 24
28, 27
28, 21
12, 12
8, 15
14, 4
11, 18
16, 9
32, 33
52, 70
68, 107
114, 200
203, 274
249, 314
329, 388
325, 394
338, 397
279, 311
238, 235
147, 159
115, 95
49, 59
32, 34
23, 25
22, 32
36, 49
34, 51
53, 54
55, 62
56, 54
56, 56
49, 50
30, 42
31, 39
20, 12
13, 9
12, 6
7, 12
10, 15
9, 13
7, 9
7, 9
11, 11
13, 13
13, 27
26, 26
36, 30
39, 50
51, 69
72, 78
68, 73
61, 58
57, 58
36, 41
27, 26
23, 23
20, 20
15, 20
14, 20
18, 17
7, 11
5, 13
13, 13
12, 18
11, 20
22, 17
21, 19
17, 23
11, 24
16, 20
14, 22
21, 13
12, 14
9, 11
13, 10
10, 15
7, 17
4, 9
11, 13
14, 5
7, 12
10, 12
11, 14
10, 17
11, 20
20, 29
15, 35
28, 26
28, 33
26, 33
27, 21
27, 26
26, 24
22, 13
16, 9
14, 17
10, 14
5, 7
10, 9
19, 16
7, 10
11, 17
15, 18
20, 25
21, 31
23, 29
35, 39
48, 41
43, 51
45, 43
40, 47
40, 34
35, 35
28, 32
25, 20
27, 13
14, 22
21, 19
19, 28
19, 23
53, 61
84, 84
120, 183
222, 295
375, 509
625, 808
939, 1127
1209, 1469
1447, 1692
1686, 1796
1640, 1871
1522, 1664
1383, 1388
1083, 1147
782, 800
550, 453
334, 278
218, 181
108, 99
76, 54
46, 35
29, 33
17, 13
13, 14
8, 15
16, 19
17, 17
16, 17
12, 22
30, 37
39, 42
53, 67
79, 107
124, 140
174, 206
200, 226
244, 243
263, 295
271, 267
246, 295
206, 215
173, 156
120, 104
63, 83
58, 35
41, 26
22, 17
13, 10
8, 12
10, 10
9, 13
9, 10
18, 17
10, 17
9, 19
13, 7
10, 10
6, 11
18, 13
10, 11
11, 10
8, 10
6, 6
5, 9
4, 3
6, 7
4, 5
5, 5
4, 5
4, 9
8, 4
4, 10
4, 11
5, 8
6, 7
10, 10
6, 4
2, 6
5, 7
6, 8
10, 5
3, 4
7, 14
4, 13
7, 8
10, 6
6, 8
8, 9
4, 3
8, 5
5, 10
8, 6
2, 9
8, 6
7, 11
4, 5
7, 9
3, 12
6, 12
8, 10
8, 10
7, 9
10, 14
9, 12
8, 14
12, 14
9, 9
14, 14
12, 11
10, 8
7, 8
8, 5
6, 11
7, 8
5, 9
3, 3
12, 3
4, 3
5, 7
10, 4
9, 7
10, 9
7, 8
5, 5
9, 10
5, 4
6, 8
3, 4
3, 8
9, 6
5, 3
5, 7
4, 3
5, 5
5, 4
7, 3
3, 7
5, 8
6, 5
6, 8
8, 4
5, 7
2, 5
5, 7
6, 7
6, 1
7, 8
3, 6
8, 6
8, 3
7, 5
3, 8
3, 4
3, 2
2, 3
5, 7
4, 4
3, 5
6, 3
4, 5
3, 8
3, 7
2, 8
3, 4
8, 5
10, 5
2, 6
3, 5
5, 7
3, 4
3, 8
2, 5
4, 5
4, 3
1, 3
1, 3
5, 1
9, 2
2, 3
5, 4
2, 2
5, 2
3, 4
3, 3
1, 5
3, 7
3, 4
0, 3
7, 2
2, 2
7, 2
7, 3
1, 1
2, 3
5, 4
3, 6
2, 3
3, 4
2, 7
6, 2
1, 3
4, 4
4, 7
4, 0
4, 6
2, 1
5, 1
5, 3
0, 2
1, 2
3, 7
1, 1
2, 2
5, 3
4, 3
2, 4
1, 0
1, 4
2, 4
2, 3
3, 7
4, 6
2, 3
2, 6
1, 0
1, 4
2, 3
3, 3
0, 2
2, 1
4, 5
2, 2
3, 0
4, 1
2, 2
1, 3
3, 3
2, 4
3, 3
5, 1
1, 3
2, 7
1, 0
0, 3
3, 4
0, 2
2, 1
3, 4
3, 2
1, 3
3, 2
0, 3
1, 2
4, 1
2, 1
1, 0
0, 1
5, 2
3, 2
2, 2
0, 3
4, 2
2, 1
2, 1
2, 1
1, 4
1, 2
3, 0
4, 3
3, 2
2, 6
3, 2
1, 4
1, 2
0, 4
1, 4
4, 4
4, 2
2, 1
4, 3
1, 4
3, 1
1, 1
3, 3
0, 1
3, 2
1, 1
3, 2
1, 2
2, 1
0, 1
3, 1
2, 3
2, 1
1, 3
2, 1
0, 2
2, 0
0, 2
0, 0
0, 2
0, 1
1, 2
1, 0
5, 2
1, 1
3, 2
1, 3
0, 1
0, 2
3, 2
5, 1
0, 1
2, 2
1, 2
1, 0
2, 0
0, 2
0, 0
1, 1
0, 0
1, 2
1, 2
0, 0
0, 2
0, 1
1, 2
0, 2
2, 1
0, 0
2, 1
1, 0
1, 0
0, 1
1, 1
1, 3
1, 1
1, 2
1, 1
1, 0
3, 1
0, 1
1, 1
1, 1
2, 2
1, 1
0, 1
0, 1
0, 3
0, 2
1, 2
0, 2
2, 0
1, 0
2, 3
1, 1
1, 0
0, 2
0, 0
0, 0
1, 0
3, 0
2, 0
0, 0
2, 3
1, 2
0, 0
1, 0
0, 0
0, 2
2, 0
0, 0
1, 1
0, 0
1, 2
0, 0
0, 1
0, 1
2, 0
0, 0
0, 2
1, 0
1, 0
4, 2
0, 1
0, 0
1, 0
1, 0
0, 1
0, 1
0, 2
1, 1
0, 1
1, 0
0, 1
0, 1
0, 1
0, 1
0, 0
0, 0
0, 0
1, 0
0, 0
0, 0
1, 0
0, 1
2, 2
1, 1
1, 0
0, 2
1, 1
2, 2
2, 0
0, 2
1, 1
0, 0
0, 1
0, 1
2, 1
1, 0
0, 0
1, 1
0, 1
0, 1
0, 1
0, 0
2, 0
0, 0
0, 0
0, 1
1, 0
0, 0
0, 0
0, 1
0, 1
0, 0
0, 0
1, 0
0, 0
0, 0
1, 2
0, 2
0, 1
1, 1
1, 1
2, 0
0, 1
0, 0
0, 0
0, 1
0, 0
0, 0
0, 0
0, 0
0, 1
0, 0
1, 0
2, 0
0, 0
0, 1
0, 0
0, 0
0, 0
0, 1
0, 2
0, 0
0, 0
0, 0
0, 0
0, 1
0, 0
0, 0
0, 1
0, 0
1, 1
0, 0
0, 0
0, 0
0, 1
1, 0
0, 0
0, 0
0, 1
0, 0
1, 0
0, 0
0, 0
1, 1
0, 0
0, 0
0, 0
0, 2
1, 0
0, 1
0, 0
0, 0
0, 0
0, 0
1, 0
0, 0
0, 0
0, 0
0, 1
0, 0
0, 0
0, 1
0, 1
0, 0
0, 1
1, 1
0, 0
0, 0
0, 0
0, 0
0, 0
0, 0
1, 1
0, 0
1, 1
0, 0
1, 0
0, 0
0, 0
1, 1
1, 0
0, 0
0, 0
2, 0
0, 0
0, 1
0, 0
1, 0
0, 0
0, 0
4, 0
0, 0
1, 0
0, 0
0, 0
0, 0
1, 0
1, 0
0, 0
0, 0
0, 0
0, 0
0, 0
0, 1
0, 0
0, 0
0, 0
0, 1
1, 0
0, 0
0, 0
0, 0
0, 0
0, 1
1, 0
0, 0
0, 0
0, 0
0, 0
0, 0
0, 0
0, 0
1, 0
0, 0
0, 0
0, 0
0, 1
0, 1
1, 0
0, 0
0, 1
1, 0
0, 0
0, 0
0, 0
0, 0
0, 0
0, 0
0, 0
0, 0
0, 0
0, 0
0, 0
1, 0
0, 0
0, 1
1, 0
0, 0
0, 0
0, 0
0, 0
0, 1
0, 0
0, 0
0, 0
0, 0
0, 0
0, 0
0, 0
0, 0
0, 0
0, 0
0, 0
0, 0
0, 0
0, 1
0, 0
0, 0
0, 0
0, 0
0, 0
0, 0
0, 0
1, 0
0, 0
0, 0
0, 0
0, 0
0, 0
0, 0
0, 0
0, 0
0, 0
2, 0
0, 0
0, 0
0, 0
0, 0
0, 0
0, 0
0, 0
0, 0
0, 0
0, 0
0, 0
0, 0
0, 0
0, 0
0, 0
0, 0
0, 0
0, 0
0, 0
0, 0
0, 0
0, 0
0, 0
0, 0
0, 0
0, 0
0, 0
0, 0
0, 0
0, 0
0, 0
0, 0
0, 0
0, 0
0, 0
0, 0
0, 0
0, 0
0, 0
0, 0
0, 0
0, 0
0, 0
0, 0
0, 0
0, 0
0, 0
0, 0
0, 0
0, 0
0, 0
0, 0
0, 0
0, 0
0, 0
0, 0
0, 0
0, 0
0, 0
0, 0
0, 0
0, 0
0, 0
0, 0
0, 0
0, 0
0, 0
0, 0
0, 0
0, 0
0, 0
0, 0
0, 0
0, 0
0, 0
0, 0
0, 0
0, 0
0, 0
0, 0
0, 0
0, 0
0, 0
0, 0
0, 0
0, 0
0, 0
0, 0
0, 0
1, 0
0, 0
0, 0
0, 0
0, 1
0, 0
0, 0
0, 0
0, 0
0, 0
0, 0
0, 0
0, 0
0, 0
0, 0
0, 0
0, 0
0, 0
0, 0
0, 0
0, 0
0, 0
0, 0
0, 0
0, 0
0, 0
0, 0
0, 0
0, 0
0, 0
0, 0
0, 0
0, 0
0, 0
0, 0
0, 0
0, 0
0, 0
0, 0
0, 0
0, 0
0, 0
0, 0
0, 0
0, 0
0, 0
0, 0
0, 0
0, 0
0, 1
1, 0
0, 0
0, 0
0, 0
0, 0
0, 0
0, 0
0, 0
0, 0
0, 0
0, 0
0, 0
0, 0
0, 0
0, 0
0, 0
0, 0
0, 0
0, 0
0, 0
0, 0
0, 0
0, 0
0, 0
0, 0
0, 0
0, 0
0, 0
0, 0
0, 0
0, 0
0, 0
0, 0
0, 0
0, 0
0, 0
0, 0
0, 0
0, 0
0, 0
0, 0
0, 0
0, 0
0, 0
0, 0
0, 0
0, 0
0, 0
0, 0
0, 0
0, 0
0, 0
0, 0
0, 0
0, 0
0, 0
0, 0
0, 0
0, 0
0, 0
0, 0
0, 0
0, 0
0, 0
0, 0
0, 0
0, 0
0, 0
0, 0
0, 0
0, 0
0, 0
0, 0
0, 0
0, 0
0, 0
0, 0
0, 0
0, 0
0, 0
0, 0
0, 0
0, 0
0, 0
0, 0
0, 0
0, 0
0, 0
0, 0
0, 0
0, 0
0, 0
0, 0
0, 0
0, 0
0, 0
0, 0
0, 0
0, 0
0, 0
0, 0
0, 0
0, 0
0, 0
0, 0
0, 0
0, 0
0, 0
0, 0
0, 0
0, 0
0, 0
0, 0
0, 0
0, 0
0, 0
0, 0
0, 0
0, 0
0, 0
0, 0
0, 0
0, 0
0, 0
0, 0
0, 0
0, 0
0, 0
0, 0
0, 0
0, 0
0, 0
0, 0
0, 0
0, 0
0, 0
0, 0
0, 0
0, 0
0, 0
0, 0
0, 0
0, 0
0, 0
0, 0
0, 0
0, 0
0, 0
0, 0
0, 0
0, 0
0, 0
0, 0
0, 0
0, 0
0, 0
0, 0
0, 0
0, 0
0, 0
0, 0
0, 0
0, 0
0, 0
0, 0
0, 0
0, 0
0, 0
0, 0
0, 0
0, 0
0, 0
0, 0
0, 0
0, 0
0, 0
0, 0
0, 0
0, 0
0, 0
0, 0
0, 0
0, 0
0, 0
0, 0
0, 0
0, 0
0, 0
0, 0
0, 0
0, 0
0, 0
0, 0
0, 0
0, 0
0, 0
0, 0
0, 0
0, 0
0, 0
0, 0
0, 0
0, 0
0, 0
0, 0
0, 0
0, 0
0, 0
0, 0
0, 0
0, 0
0, 0
0, 0
0, 0
0, 0
0, 0
0, 0
0, 0
0, 0
0, 0
0, 0
0, 0
0, 0
0, 0
0, 0
0, 0
0, 0
0, 0
0, 0
0, 0
0, 0
0, 0
0, 0
0, 0
0, 0
0, 0
0, 0
0, 0
0, 0
0, 0
0, 0
0, 0
0, 0
0, 0
0, 0
0, 0
0, 0
0, 0
0, 0
0, 0
0, 0
0, 0
0, 0
0, 0
0, 0
0, 0
0, 0
0, 0
0, 0
0, 0
0, 0
0, 0
0, 0
0, 0
0, 0
0, 0
0, 0
0, 0
0, 0
0, 0
0, 0
0, 0
0, 0
0, 0
0, 0
0, 0
0, 0
0, 0
0, 0
0, 0
0, 0
0, 0
0, 0
0, 0
0, 0
0, 0
0, 0
0, 0
0, 0
0, 0
0, 0
0, 0
0, 0
0, 0
0, 0
0, 0
0, 0
0, 0
0, 0
0, 0
0, 0
0, 0
0, 0
0, 0
0, 0
0, 0
0, 0
0, 0
0, 0
0, 0
0, 0
0, 0
0, 0
0, 0
0, 0
0, 0
0, 0
0, 0
0, 0
0, 0
0, 0
0, 0
0, 0
0, 0
0, 0
0, 0
0, 0
0, 0
0, 0
0, 0
0, 0
0, 0
0, 0
0, 0
0, 0
0, 0
0, 0
#ENDOFDATA     end of spectrum data