File: host_upload/02-11-2024/rqc/uplink1/ps__0567_0717304816_000rfs_shot_361.msa
#FORMAT      : EMSA/MAS spectral data file
#VERSION     : TC202v2.0 PIXL
#TITLE       : Novarupta (sol567) subset1
#DATE        : 02-11-2024      Date in the format DD-MMM-YYYY, for example 07-JUL-2010
#TIME        :             The time of day at which the spectrum was recorded, in 24-hour format
#OWNER       : PIXL Flight Model       (PIXL will use this to indicate which instrument took the data.)
#NPOINTS     : 4096     Number of data points in the spectrum (This can be zero for configuration only files)
#NCOLUMNS    : 2     Number of data columns in the spectrum (This can be zero for configuration only files)
#XUNITS      : eV
#YUNITS      : COUNTS
#DATATYPE    : YY
#XPERCHAN    : 7.862, 7.881   eV per channel (separate by commas if more than one detector)
#OFFSET      : 18.5, -22.4         eV of first channel  (separate by commas if more than one detector
#SIGNALTYPE  : XRF
#YP_TEMP     : 1.594
#LIVETIME    : 8.81053, 8.80822   seconds (separate by commas if more than one detector)
#REALTIME    : 10, 10.0   seconds (separate by commas if more than one detector)
#SPECTRUM    : start of spectrum data
0, 0
0, 0
0, 0
0, 0
0, 0
0, 0
0, 0
0, 0
0, 0
0, 0
0, 0
0, 0
0, 0
0, 0
0, 0
0, 0
0, 0
0, 0
0, 0
0, 0
0, 0
0, 0
0, 0
0, 0
0, 0
0, 0
0, 0
0, 0
1, 0
0, 0
0, 0
2, 2
0, 0
1, 0
0, 0
3, 1
3, 2
4, 3
2, 2
9, 5
7, 2
5, 3
2, 2
5, 1
2, 2
1, 3
5, 4
4, 4
4, 4
7, 6
8, 8
8, 7
17, 16
16, 14
13, 13
20, 10
16, 18
20, 8
7, 11
13, 15
22, 10
25, 26
47, 30
50, 47
44, 39
43, 40
31, 28
33, 24
43, 36
55, 57
108, 95
199, 203
273, 295
374, 415
480, 481
499, 466
435, 380
304, 306
231, 195
145, 103
85, 78
45, 45
36, 38
31, 31
35, 29
38, 39
39, 34
38, 35
29, 32
32, 17
9, 18
23, 19
44, 43
46, 69
128, 119
207, 205
315, 326
430, 422
475, 471
490, 438
417, 384
301, 328
221, 207
182, 137
73, 90
66, 70
68, 65
75, 65
104, 86
133, 135
178, 163
221, 221
249, 236
226, 233
195, 196
177, 171
123, 128
116, 111
92, 88
103, 79
69, 79
71, 73
68, 63
59, 52
46, 54
40, 38
27, 28
29, 15
17, 12
14, 16
9, 11
10, 11
4, 7
5, 9
7, 9
11, 9
8, 9
15, 8
22, 27
33, 21
27, 26
25, 34
33, 33
27, 24
28, 19
16, 20
8, 9
9, 12
9, 8
14, 15
31, 34
52, 55
97, 102
163, 159
231, 211
341, 345
368, 431
419, 406
392, 407
349, 290
289, 244
169, 157
105, 80
72, 58
42, 35
34, 29
21, 28
47, 38
46, 38
56, 61
60, 65
65, 71
57, 49
59, 43
41, 37
23, 23
23, 23
11, 20
9, 10
10, 4
10, 12
10, 9
9, 4
11, 10
11, 7
13, 17
19, 21
21, 21
23, 31
39, 45
41, 48
66, 69
62, 56
72, 79
45, 40
46, 42
44, 35
31, 22
31, 23
14, 20
17, 16
14, 21
13, 17
10, 14
14, 16
19, 11
18, 10
11, 21
25, 30
13, 17
17, 13
24, 23
17, 20
24, 18
13, 16
10, 11
12, 13
10, 10
13, 13
19, 16
18, 11
9, 8
5, 12
15, 12
12, 14
18, 17
21, 27
25, 30
45, 33
35, 37
38, 38
28, 40
34, 23
17, 34
20, 23
14, 29
17, 18
16, 13
15, 13
11, 12
11, 14
17, 11
10, 11
15, 20
15, 9
12, 31
24, 28
27, 30
43, 42
46, 47
45, 50
54, 39
47, 44
60, 33
37, 39
37, 25
27, 34
18, 19
19, 17
21, 19
28, 25
19, 25
53, 48
73, 83
102, 146
212, 265
352, 469
607, 734
920, 1010
1200, 1289
1477, 1633
1772, 1700
1762, 1818
1737, 1686
1477, 1414
1242, 1075
968, 778
629, 544
378, 301
218, 158
146, 96
77, 51
43, 28
30, 19
14, 15
11, 15
24, 17
20, 18
13, 12
16, 27
25, 27
24, 36
41, 52
50, 69
84, 99
128, 135
171, 188
214, 217
248, 271
267, 268
300, 272
257, 257
231, 211
190, 158
146, 92
107, 80
55, 49
48, 31
29, 20
19, 15
9, 12
8, 8
7, 11
11, 7
16, 11
11, 8
10, 13
7, 13
12, 8
8, 8
13, 10
15, 7
8, 10
8, 7
12, 10
5, 8
6, 13
9, 1
6, 7
4, 9
8, 7
7, 7
5, 8
12, 2
6, 4
3, 7
9, 7
4, 6
4, 7
11, 4
8, 10
4, 7
9, 6
4, 6
11, 9
4, 8
12, 5
5, 9
7, 8
11, 10
9, 7
3, 6
3, 3
5, 6
6, 5
9, 10
5, 9
6, 8
7, 5
9, 5
6, 14
11, 7
8, 14
8, 8
11, 16
10, 14
20, 9
11, 15
9, 16
11, 7
10, 8
9, 9
6, 5
11, 5
11, 6
9, 4
5, 2
5, 2
4, 5
4, 4
3, 8
3, 3
4, 7
4, 4
7, 5
7, 7
2, 7
8, 2
8, 3
5, 2
5, 4
10, 12
5, 4
7, 5
3, 5
6, 3
3, 6
5, 3
8, 7
5, 3
7, 3
4, 1
6, 3
5, 5
6, 2
3, 7
1, 3
4, 7
4, 1
5, 6
5, 9
6, 3
5, 5
4, 2
2, 7
8, 0
5, 4
5, 11
3, 2
6, 6
3, 4
5, 5
6, 4
5, 5
4, 1
4, 4
4, 3
6, 1
1, 2
4, 1
2, 3
4, 7
5, 4
5, 3
3, 7
1, 5
4, 4
2, 2
3, 3
7, 2
5, 3
4, 4
3, 5
2, 3
4, 5
4, 4
7, 5
2, 4
3, 4
1, 1
8, 2
2, 5
3, 1
5, 6
8, 5
3, 5
4, 5
6, 2
5, 2
5, 1
3, 4
3, 3
5, 4
0, 6
1, 2
0, 6
1, 3
2, 1
3, 6
2, 2
6, 5
1, 1
4, 0
0, 3
4, 1
4, 2
3, 3
7, 1
1, 3
7, 3
5, 6
4, 1
5, 3
4, 6
1, 2
3, 3
2, 2
2, 1
1, 4
3, 3
1, 3
0, 1
8, 2
2, 6
3, 3
7, 2
2, 2
1, 2
1, 3
3, 2
3, 5
3, 3
0, 2
3, 1
2, 1
1, 3
3, 1
5, 1
4, 1
4, 3
3, 5
1, 2
2, 0
5, 1
2, 0
0, 3
0, 1
3, 0
3, 2
3, 2
3, 3
1, 1
3, 2
2, 2
1, 4
2, 0
0, 3
2, 6
5, 1
2, 3
1, 3
5, 3
3, 4
6, 1
3, 2
1, 2
2, 3
2, 2
1, 4
1, 5
2, 11
4, 0
3, 3
3, 1
5, 4
1, 4
2, 1
2, 1
4, 0
1, 3
4, 1
1, 2
2, 1
1, 3
0, 2
2, 1
2, 1
6, 0
2, 2
1, 1
1, 4
1, 2
2, 2
5, 1
1, 2
0, 2
0, 3
0, 1
1, 2
0, 3
1, 2
1, 1
3, 1
3, 2
1, 3
1, 2
1, 2
0, 2
1, 0
1, 3
2, 5
2, 1
1, 1
0, 0
0, 1
0, 1
2, 2
1, 1
1, 3
2, 1
1, 1
3, 1
0, 2
0, 3
0, 2
2, 2
1, 1
0, 0
2, 5
1, 1
0, 1
1, 2
4, 1
1, 2
2, 2
2, 1
0, 0
1, 3
2, 1
1, 2
0, 2
0, 1
1, 2
1, 2
0, 0
3, 0
0, 1
1, 0
1, 0
1, 0
1, 1
0, 1
1, 0
1, 3
1, 0
0, 1
0, 1
0, 0
1, 1
0, 0
0, 0
1, 1
0, 0
1, 0
2, 0
0, 2
0, 0
1, 0
0, 1
2, 3
2, 2
0, 1
1, 0
0, 0
1, 1
0, 0
1, 1
0, 0
2, 0
2, 1
1, 0
1, 1
1, 0
0, 0
0, 1
0, 1
1, 0
1, 1
1, 0
1, 3
0, 1
2, 2
0, 1
2, 0
0, 1
0, 1
0, 1
0, 0
0, 2
0, 0
0, 1
0, 0
0, 1
0, 0
0, 0
1, 0
0, 0
0, 0
0, 1
1, 0
2, 1
0, 1
1, 0
1, 1
0, 1
0, 2
0, 0
1, 1
0, 0
0, 0
0, 1
0, 0
0, 0
0, 0
1, 0
0, 0
0, 0
2, 2
0, 2
0, 0
0, 1
0, 0
0, 0
1, 0
0, 0
0, 0
0, 0
0, 0
1, 0
0, 1
1, 0
1, 1
1, 0
0, 0
0, 0
1, 0
1, 0
1, 0
0, 0
0, 0
1, 0
0, 1
0, 0
0, 0
0, 0
0, 1
0, 0
1, 0
0, 1
1, 0
0, 0
0, 1
1, 0
0, 0
1, 1
0, 0
0, 1
0, 0
0, 0
0, 2
0, 0
0, 0
0, 0
1, 0
1, 1
0, 1
0, 1
0, 0
0, 1
0, 0
1, 0
0, 0
0, 1
0, 0
0, 1
0, 0
0, 0
1, 1
0, 0
0, 0
1, 1
0, 0
0, 0
1, 0
0, 1
0, 0
0, 0
0, 0
0, 1
0, 0
0, 0
1, 0
0, 0
0, 0
0, 0
0, 1
0, 0
1, 0
0, 0
0, 0
1, 0
0, 0
0, 0
0, 0
0, 0
0, 0
0, 1
0, 0
0, 1
0, 0
1, 0
1, 0
1, 1
0, 0
0, 1
0, 0
0, 0
1, 0
0, 0
0, 0
0, 0
0, 0
0, 1
0, 1
0, 0
0, 1
0, 0
0, 0
0, 0
0, 0
0, 1
0, 0
0, 0
0, 1
0, 0
0, 0
0, 0
0, 1
0, 1
0, 0
0, 0
1, 0
0, 0
1, 0
0, 0
1, 1
0, 0
0, 0
0, 0
0, 0
0, 0
0, 0
0, 0
1, 0
0, 0
0, 0
0, 0
0, 0
0, 0
0, 0
1, 0
0, 1
1, 0
0, 0
0, 1
0, 0
1, 0
0, 0
0, 0
1, 1
0, 0
1, 0
0, 1
0, 1
0, 0
0, 0
0, 0
0, 0
0, 0
0, 0
0, 0
0, 0
0, 0
0, 1
1, 0
0, 0
0, 0
0, 0
0, 0
0, 0
0, 1
0, 0
0, 0
0, 0
0, 0
0, 0
0, 0
0, 0
0, 0
0, 0
0, 1
0, 0
0, 0
0, 0
0, 0
0, 0
0, 0
0, 0
0, 0
0, 0
0, 0
1, 0
0, 0
0, 0
0, 0
0, 0
0, 0
0, 0
0, 0
0, 0
0, 0
0, 0
0, 0
0, 0
0, 0
0, 0
0, 0
0, 0
0, 0
0, 0
0, 0
0, 0
0, 0
0, 0
0, 0
0, 0
0, 0
0, 0
0, 0
0, 0
0, 0
0, 0
0, 0
0, 1
0, 0
1, 0
0, 0
0, 0
0, 0
0, 0
0, 0
0, 0
0, 0
0, 0
0, 0
0, 0
0, 0
0, 0
0, 0
0, 0
0, 0
0, 0
0, 0
0, 0
0, 0
0, 0
0, 0
0, 0
0, 0
0, 0
0, 0
0, 0
0, 0
0, 0
0, 0
0, 0
0, 0
0, 0
0, 1
0, 0
0, 0
0, 0
0, 0
0, 0
0, 0
0, 0
0, 0
0, 0
0, 0
0, 0
0, 0
0, 0
0, 0
0, 0
0, 1
0, 0
0, 1
0, 0
0, 0
0, 0
0, 0
0, 0
1, 0
0, 0
0, 0
0, 0
0, 0
0, 0
0, 0
1, 0
0, 0
0, 0
0, 0
0, 0
0, 0
0, 0
0, 0
1, 0
0, 0
0, 1
0, 0
0, 0
0, 0
0, 0
0, 0
1, 0
0, 0
0, 0
0, 0
0, 0
0, 0
0, 0
0, 0
0, 0
0, 0
0, 0
0, 0
0, 0
0, 0
0, 0
1, 0
0, 0
0, 0
0, 0
0, 0
0, 0
0, 0
0, 0
0, 0
0, 0
0, 0
0, 0
0, 0
0, 0
0, 0
0, 0
0, 0
0, 0
0, 0
0, 0
0, 0
0, 0
0, 0
0, 0
0, 0
0, 0
0, 0
0, 0
0, 0
0, 0
0, 0
0, 0
0, 0
0, 0
0, 0
0, 0
0, 0
0, 0
0, 0
0, 0
0, 0
0, 0
0, 0
0, 0
0, 0
0, 0
0, 0
0, 0
0, 0
0, 0
0, 0
0, 0
0, 0
0, 0
0, 0
0, 0
0, 0
0, 0
0, 0
0, 0
0, 0
0, 0
0, 0
0, 0
0, 0
0, 0
0, 0
0, 0
0, 0
0, 0
0, 0
0, 0
0, 0
0, 0
0, 0
0, 0
0, 0
0, 0
0, 0
0, 0
0, 0
0, 0
0, 0
0, 0
0, 0
0, 0
0, 0
0, 0
0, 0
0, 0
0, 0
0, 0
0, 0
0, 0
0, 0
0, 0
0, 0
0, 0
0, 0
0, 0
0, 0
0, 0
0, 0
0, 0
0, 0
0, 0
0, 0
0, 0
0, 0
0, 0
0, 0
0, 0
0, 0
0, 0
0, 0
0, 0
0, 0
0, 0
0, 0
0, 0
0, 0
0, 0
0, 0
0, 0
0, 0
0, 0
0, 0
0, 0
0, 0
0, 0
0, 0
0, 0
0, 0
0, 0
0, 0
0, 0
0, 0
0, 0
0, 0
0, 0
0, 0
0, 0
0, 0
0, 0
0, 0
0, 0
0, 0
0, 0
0, 0
0, 0
0, 0
0, 0
0, 0
0, 0
0, 0
0, 0
0, 0
0, 0
0, 0
0, 0
0, 0
0, 0
0, 0
0, 0
0, 0
0, 0
0, 0
0, 0
0, 0
0, 0
0, 0
0, 0
0, 0
0, 0
0, 0
0, 0
0, 0
0, 0
0, 0
0, 0
0, 0
0, 0
0, 0
0, 0
0, 0
0, 0
0, 0
0, 0
0, 0
0, 0
0, 0
0, 0
0, 0
0, 0
0, 0
0, 0
0, 0
0, 0
0, 0
0, 0
0, 0
0, 0
0, 0
0, 0
0, 0
0, 0
0, 0
0, 0
0, 0
0, 0
0, 0
0, 0
0, 0
0, 0
0, 0
0, 0
0, 0
0, 0
0, 0
0, 0
0, 0
0, 0
0, 0
0, 0
0, 0
0, 0
0, 0
0, 0
0, 0
0, 0
0, 0
0, 0
0, 0
0, 0
0, 0
0, 0
0, 0
0, 0
0, 0
0, 0
0, 0
0, 0
0, 0
0, 0
0, 0
0, 0
0, 0
0, 0
0, 0
0, 0
0, 0
0, 0
0, 0
0, 0
0, 0
0, 0
0, 0
0, 0
0, 0
0, 0
0, 0
0, 0
0, 0
0, 0
0, 0
0, 0
0, 0
0, 0
0, 0
0, 0
0, 0
0, 0
0, 0
0, 0
0, 0
0, 0
0, 0
0, 0
0, 0
0, 0
0, 0
0, 0
0, 0
0, 0
0, 0
0, 0
0, 0
0, 0
0, 0
0, 0
0, 0
0, 0
0, 0
0, 0
0, 0
0, 0
0, 0
0, 0
0, 0
0, 0
0, 0
0, 0
0, 0
0, 0
0, 0
0, 0
0, 0
0, 0
0, 0
0, 0
0, 0
0, 0
0, 0
0, 0
0, 0
0, 0
0, 0
0, 0
0, 0
0, 0
0, 0
0, 0
0, 0
0, 0
0, 0
0, 0
0, 0
0, 0
0, 0
0, 0
0, 0
0, 0
0, 0
0, 0
0, 0
0, 0
0, 0
0, 0
0, 0
0, 0
0, 0
0, 0
0, 0
0, 0
0, 0
0, 0
#ENDOFDATA     end of spectrum data