File: host_upload/02-11-2024/rqc/uplink1/ps__0567_0717304816_000rfs_shot_162.msa
#FORMAT      : EMSA/MAS spectral data file
#VERSION     : TC202v2.0 PIXL
#TITLE       : Novarupta (sol567) subset1
#DATE        : 02-11-2024      Date in the format DD-MMM-YYYY, for example 07-JUL-2010
#TIME        :             The time of day at which the spectrum was recorded, in 24-hour format
#OWNER       : PIXL Flight Model       (PIXL will use this to indicate which instrument took the data.)
#NPOINTS     : 4096     Number of data points in the spectrum (This can be zero for configuration only files)
#NCOLUMNS    : 2     Number of data columns in the spectrum (This can be zero for configuration only files)
#XUNITS      : eV
#YUNITS      : COUNTS
#DATATYPE    : YY
#XPERCHAN    : 7.862, 7.881   eV per channel (separate by commas if more than one detector)
#OFFSET      : 18.5, -22.4         eV of first channel  (separate by commas if more than one detector
#SIGNALTYPE  : XRF
#YP_TEMP     : 0.087
#LIVETIME    : 8.83303, 8.82278   seconds (separate by commas if more than one detector)
#REALTIME    : 10, 10.0   seconds (separate by commas if more than one detector)
#SPECTRUM    : start of spectrum data
0, 0
0, 0
0, 0
0, 0
0, 0
0, 0
0, 0
0, 0
0, 0
0, 0
0, 0
0, 0
0, 0
0, 0
0, 0
0, 0
0, 0
0, 0
0, 0
0, 0
0, 0
0, 0
0, 0
0, 0
0, 0
0, 0
0, 0
0, 0
0, 0
0, 0
0, 0
0, 0
0, 0
1, 1
0, 0
3, 3
2, 3
3, 4
3, 4
3, 3
3, 2
5, 4
4, 2
2, 1
2, 7
3, 3
0, 5
6, 3
4, 5
3, 2
3, 10
13, 10
12, 13
14, 14
20, 12
17, 12
17, 15
19, 9
8, 10
11, 9
17, 18
24, 22
33, 30
35, 49
55, 52
33, 42
45, 49
31, 25
32, 41
55, 65
127, 139
187, 221
282, 314
400, 396
499, 518
502, 514
437, 370
324, 299
225, 207
166, 133
89, 80
47, 33
38, 24
31, 35
31, 45
33, 36
32, 33
41, 26
30, 29
15, 17
19, 19
18, 19
27, 25
47, 37
74, 86
129, 134
198, 199
257, 269
321, 316
324, 308
246, 272
203, 181
150, 136
111, 104
76, 58
39, 49
49, 55
75, 79
115, 99
110, 141
190, 173
231, 230
237, 235
247, 251
194, 180
174, 153
129, 145
127, 97
84, 103
85, 94
80, 91
66, 68
67, 62
66, 62
53, 40
37, 27
33, 25
17, 19
19, 24
14, 13
16, 6
9, 6
12, 9
12, 8
4, 2
3, 8
9, 10
18, 14
10, 25
24, 20
20, 27
27, 30
29, 24
24, 25
20, 19
20, 12
21, 7
10, 6
16, 11
12, 25
38, 36
47, 58
85, 113
143, 155
218, 239
244, 305
332, 336
388, 383
390, 337
291, 313
231, 215
166, 162
92, 99
74, 54
59, 36
28, 18
28, 27
25, 24
41, 58
55, 54
61, 67
61, 61
56, 58
57, 36
37, 40
24, 31
25, 9
15, 16
16, 11
12, 9
12, 13
9, 9
7, 8
17, 9
18, 16
18, 9
12, 17
22, 23
31, 39
40, 51
49, 52
49, 75
71, 72
58, 57
60, 55
38, 45
36, 34
33, 29
33, 17
18, 17
18, 11
16, 9
9, 7
16, 7
16, 9
10, 13
16, 18
15, 19
23, 14
18, 18
17, 29
12, 11
20, 18
11, 19
14, 20
12, 16
13, 5
10, 12
12, 10
11, 10
16, 10
6, 9
11, 8
9, 15
17, 21
24, 18
30, 17
28, 31
37, 41
32, 29
31, 26
30, 36
31, 26
26, 22
17, 26
19, 32
14, 15
25, 15
7, 11
9, 8
16, 18
13, 15
10, 10
13, 11
14, 14
21, 29
23, 33
34, 37
30, 42
46, 37
45, 57
44, 42
53, 41
47, 36
37, 32
45, 21
24, 15
17, 19
17, 23
18, 15
21, 27
22, 27
53, 51
64, 99
130, 167
231, 273
415, 455
665, 713
1009, 1036
1289, 1416
1610, 1707
1813, 1773
1792, 1824
1772, 1589
1525, 1397
1199, 1093
907, 806
617, 501
405, 325
227, 147
103, 102
42, 53
39, 32
31, 26
15, 28
23, 25
18, 15
15, 18
18, 19
20, 14
22, 29
35, 24
56, 59
86, 71
105, 101
151, 146
178, 174
207, 198
267, 278
285, 243
237, 263
248, 257
199, 219
190, 164
134, 118
94, 69
59, 43
48, 28
18, 20
10, 11
18, 12
12, 6
13, 4
9, 18
7, 14
5, 16
13, 14
9, 11
9, 12
10, 12
10, 6
3, 7
6, 7
11, 4
6, 7
4, 5
8, 8
8, 5
10, 4
12, 1
8, 7
7, 6
10, 6
9, 6
5, 7
7, 4
10, 7
8, 3
10, 8
5, 5
6, 11
9, 8
8, 7
7, 9
11, 8
6, 5
6, 4
9, 15
7, 7
6, 11
7, 10
5, 6
6, 13
9, 9
9, 5
11, 12
8, 7
4, 4
10, 5
9, 8
4, 3
11, 5
9, 9
4, 11
8, 11
16, 14
12, 11
12, 18
13, 10
7, 10
12, 6
13, 9
6, 8
11, 6
8, 6
3, 7
4, 12
6, 3
6, 6
5, 9
6, 6
8, 5
3, 12
4, 7
7, 4
6, 7
4, 4
3, 5
10, 5
10, 6
6, 4
8, 6
9, 11
4, 7
10, 7
2, 5
3, 4
3, 0
5, 6
8, 5
9, 4
6, 4
5, 8
5, 6
6, 2
6, 9
6, 7
9, 2
5, 6
10, 7
1, 4
7, 0
4, 6
5, 2
8, 2
3, 7
5, 7
3, 2
2, 2
7, 5
4, 4
6, 4
9, 10
5, 1
6, 8
5, 2
5, 3
4, 7
2, 6
2, 5
6, 5
6, 3
6, 2
3, 4
5, 2
3, 4
4, 2
4, 3
1, 8
4, 4
3, 4
1, 4
2, 4
4, 5
7, 5
4, 2
5, 4
5, 4
5, 3
3, 3
2, 5
2, 3
4, 2
4, 4
8, 1
5, 8
7, 4
5, 9
4, 6
6, 3
3, 0
4, 6
1, 5
3, 2
5, 5
3, 4
1, 6
3, 7
3, 2
3, 1
4, 0
2, 7
5, 2
2, 0
2, 4
2, 3
2, 3
4, 3
3, 2
3, 3
2, 2
4, 0
2, 2
4, 3
4, 3
2, 2
2, 2
6, 0
2, 2
0, 1
2, 1
1, 1
2, 4
1, 0
1, 5
5, 2
4, 1
1, 4
2, 1
3, 2
5, 2
0, 2
4, 1
3, 2
3, 1
3, 1
4, 1
1, 5
3, 3
2, 0
4, 2
2, 3
4, 2
1, 2
1, 2
3, 4
3, 4
3, 3
2, 0
2, 2
3, 1
2, 2
1, 3
3, 3
1, 2
1, 4
1, 2
1, 1
3, 1
0, 2
1, 1
2, 3
2, 4
4, 2
4, 3
1, 0
2, 2
4, 4
3, 5
1, 2
1, 4
1, 5
5, 6
3, 8
4, 2
1, 2
2, 2
3, 4
2, 1
1, 2
2, 1
0, 0
2, 1
1, 3
1, 0
3, 0
0, 1
1, 1
2, 5
3, 1
2, 0
1, 0
1, 3
2, 0
1, 2
2, 1
2, 1
3, 0
2, 1
1, 0
3, 3
2, 2
0, 2
3, 3
3, 3
1, 0
0, 1
2, 1
2, 2
0, 1
0, 3
3, 1
4, 0
2, 1
1, 3
1, 2
1, 2
1, 1
1, 0
1, 0
0, 1
2, 0
2, 0
0, 3
1, 1
0, 0
0, 3
1, 1
1, 0
2, 2
0, 2
1, 1
1, 1
1, 3
0, 1
0, 2
2, 2
1, 1
4, 0
3, 0
2, 0
0, 1
0, 2
1, 0
2, 1
0, 2
2, 1
1, 2
0, 0
1, 3
2, 2
1, 1
0, 1
3, 1
0, 0
0, 1
0, 0
1, 3
1, 0
0, 1
0, 0
0, 1
0, 0
2, 1
1, 0
2, 1
1, 2
0, 2
0, 1
1, 0
0, 1
4, 1
0, 2
1, 1
1, 2
0, 0
1, 1
1, 0
2, 4
0, 1
1, 0
1, 1
0, 1
1, 1
2, 1
2, 1
2, 1
1, 1
1, 0
0, 0
0, 1
0, 2
1, 1
0, 2
0, 0
1, 0
2, 0
2, 1
1, 0
2, 0
2, 0
1, 1
0, 0
1, 0
1, 1
1, 2
1, 0
0, 0
0, 0
0, 1
0, 0
1, 0
0, 0
0, 1
0, 0
2, 0
2, 1
0, 0
0, 0
0, 2
0, 1
0, 0
0, 0
1, 0
0, 1
0, 0
0, 1
1, 1
3, 0
0, 0
0, 0
0, 0
0, 0
0, 0
1, 0
0, 0
1, 0
0, 0
0, 0
0, 0
0, 0
1, 0
0, 2
0, 0
0, 0
0, 0
0, 1
1, 0
0, 0
0, 0
0, 1
2, 0
0, 0
1, 1
0, 1
0, 1
0, 0
0, 1
1, 0
1, 1
0, 0
1, 0
0, 1
0, 0
1, 1
0, 1
0, 0
0, 0
0, 0
0, 0
0, 0
0, 0
0, 1
0, 0
1, 0
0, 1
2, 0
0, 0
0, 0
0, 0
1, 0
0, 0
0, 1
0, 0
0, 1
0, 0
0, 0
0, 0
1, 0
0, 1
0, 0
0, 1
0, 1
0, 1
0, 0
0, 0
0, 0
0, 0
0, 0
0, 0
0, 0
0, 0
0, 0
1, 0
0, 0
0, 0
0, 0
0, 0
0, 1
0, 0
1, 0
0, 0
0, 0
0, 0
0, 1
1, 0
0, 0
1, 0
0, 0
0, 0
0, 0
0, 0
1, 1
1, 0
2, 1
0, 1
1, 0
0, 0
0, 0
0, 1
2, 0
0, 1
0, 0
0, 0
3, 0
0, 0
1, 0
0, 0
0, 0
0, 2
0, 0
0, 0
0, 0
0, 2
0, 0
0, 0
0, 0
0, 0
1, 0
0, 0
0, 0
0, 0
1, 0
0, 0
0, 0
0, 0
0, 0
0, 1
0, 0
0, 0
0, 0
0, 0
0, 0
1, 1
0, 0
0, 0
0, 0
0, 0
0, 0
0, 0
0, 1
0, 0
1, 0
0, 0
0, 0
0, 0
0, 0
0, 0
2, 0
0, 1
0, 0
0, 0
0, 1
0, 0
0, 0
0, 1
0, 0
0, 0
0, 0
0, 2
0, 0
0, 1
0, 1
0, 0
0, 1
0, 0
0, 0
0, 0
0, 0
0, 0
0, 0
0, 0
0, 0
0, 0
0, 0
0, 0
1, 0
0, 0
0, 0
0, 0
0, 0
0, 0
0, 1
0, 0
0, 1
0, 0
0, 0
0, 0
0, 0
0, 0
0, 0
0, 0
0, 0
0, 0
0, 0
0, 0
1, 0
0, 0
0, 0
0, 0
0, 0
0, 0
0, 0
0, 0
0, 0
0, 0
0, 0
0, 0
0, 1
0, 0
0, 0
0, 0
0, 0
0, 0
0, 0
0, 0
0, 0
0, 0
0, 1
0, 0
0, 0
0, 0
0, 0
0, 0
0, 0
0, 0
0, 0
0, 0
0, 0
0, 0
0, 0
0, 0
0, 0
0, 0
0, 0
0, 0
0, 0
1, 0
0, 0
0, 0
0, 0
0, 0
0, 0
0, 0
0, 0
0, 0
0, 0
0, 0
0, 0
0, 0
0, 0
1, 0
0, 0
0, 0
0, 0
0, 0
0, 0
0, 0
0, 0
0, 0
0, 0
0, 1
0, 0
0, 0
0, 0
0, 0
0, 0
0, 0
0, 0
0, 0
0, 0
0, 0
1, 0
0, 0
0, 0
0, 0
0, 0
0, 0
0, 0
0, 0
0, 0
0, 0
0, 0
0, 0
0, 0
0, 0
0, 0
0, 0
0, 0
0, 0
0, 0
0, 0
0, 0
0, 0
0, 0
0, 0
0, 0
0, 0
0, 0
0, 0
0, 0
0, 0
0, 0
0, 0
0, 0
0, 0
0, 0
0, 0
0, 0
0, 0
0, 0
0, 0
0, 0
0, 0
0, 0
0, 0
0, 0
0, 0
0, 0
0, 0
0, 0
0, 0
0, 0
0, 0
0, 0
0, 0
0, 0
0, 0
0, 0
0, 0
0, 0
0, 0
0, 0
0, 0
0, 0
0, 0
0, 0
0, 0
0, 0
0, 0
0, 0
0, 0
0, 0
0, 0
0, 0
0, 0
0, 0
0, 0
0, 0
0, 0
0, 0
0, 0
0, 0
0, 0
0, 0
0, 0
0, 0
0, 0
0, 0
0, 0
0, 0
0, 0
0, 0
0, 0
0, 0
0, 0
0, 0
0, 0
0, 0
0, 0
0, 0
0, 0
0, 0
0, 0
0, 0
0, 0
0, 0
0, 0
0, 0
0, 0
0, 0
0, 0
0, 0
0, 0
0, 0
0, 0
0, 0
0, 0
0, 0
0, 0
0, 0
0, 0
0, 0
0, 0
0, 0
0, 0
0, 0
0, 0
0, 0
0, 0
0, 0
0, 0
0, 0
0, 0
0, 0
0, 0
0, 0
0, 0
0, 0
0, 0
0, 0
0, 0
0, 0
0, 0
0, 0
0, 0
0, 0
0, 0
0, 0
0, 0
0, 0
0, 0
0, 0
0, 0
0, 0
0, 0
0, 0
0, 0
0, 0
0, 0
0, 0
0, 0
0, 0
0, 0
0, 0
0, 0
0, 0
0, 0
0, 0
0, 0
0, 0
0, 0
0, 0
0, 0
0, 0
0, 0
0, 0
0, 0
0, 0
0, 0
0, 0
0, 0
0, 0
0, 0
0, 0
0, 0
0, 0
0, 0
0, 0
0, 0
0, 0
0, 0
0, 0
0, 0
0, 0
0, 0
0, 0
0, 0
0, 0
0, 0
0, 0
0, 0
0, 0
0, 0
0, 0
0, 0
0, 0
0, 0
0, 0
0, 0
0, 0
0, 0
0, 0
0, 0
0, 0
0, 0
0, 0
0, 0
0, 0
0, 0
0, 0
0, 0
0, 0
0, 0
0, 0
0, 0
0, 0
0, 0
0, 0
0, 0
0, 0
0, 0
0, 0
0, 0
0, 0
0, 0
0, 0
0, 0
0, 0
0, 0
0, 0
0, 0
0, 0
0, 0
0, 0
0, 0
0, 0
0, 0
0, 0
0, 0
0, 0
0, 0
0, 0
0, 0
0, 0
0, 0
0, 0
0, 0
0, 0
0, 0
0, 0
0, 0
0, 0
0, 0
0, 0
0, 0
0, 0
0, 0
0, 0
0, 0
0, 0
0, 0
0, 0
0, 0
0, 0
0, 0
0, 0
0, 0
0, 0
0, 0
0, 0
0, 0
0, 0
0, 0
0, 0
0, 0
0, 0
0, 0
0, 0
0, 0
0, 0
0, 0
0, 0
0, 0
0, 0
0, 0
0, 0
0, 0
0, 0
0, 0
0, 0
0, 0
0, 0
0, 0
0, 0
0, 0
0, 0
0, 0
0, 0
0, 0
0, 0
0, 0
0, 0
0, 0
0, 0
0, 0
0, 0
0, 0
0, 0
0, 0
0, 0
0, 0
0, 0
0, 0
0, 0
0, 0
0, 0
0, 0
0, 0
0, 0
0, 0
0, 0
0, 0
0, 0
0, 0
0, 0
0, 0
0, 0
0, 0
0, 0
0, 0
0, 0
0, 0
0, 0
0, 0
0, 0
0, 0
0, 0
0, 0
0, 0
0, 0
0, 0
0, 0
0, 0
0, 0
0, 0
0, 0
0, 0
0, 0
0, 0
0, 0
0, 0
0, 0
0, 0
0, 0
0, 0
0, 0
0, 0
0, 0
0, 0
0, 0
0, 0
0, 0
0, 0
0, 0
0, 0
0, 0
0, 0
0, 0
0, 0
0, 0
0, 0
0, 0
0, 0
0, 0
0, 0
0, 0
0, 0
0, 0
0, 0
0, 0
0, 0
0, 0
0, 0
0, 0
0, 0
#ENDOFDATA     end of spectrum data