File: host_upload/02-11-2024/rqc/uplink1/ps__0567_0717304816_000rfs_shot_88.msa
#FORMAT      : EMSA/MAS spectral data file
#VERSION     : TC202v2.0 PIXL
#TITLE       : Novarupta (sol567) subset1
#DATE        : 02-11-2024      Date in the format DD-MMM-YYYY, for example 07-JUL-2010
#TIME        :             The time of day at which the spectrum was recorded, in 24-hour format
#OWNER       : PIXL Flight Model       (PIXL will use this to indicate which instrument took the data.)
#NPOINTS     : 4096     Number of data points in the spectrum (This can be zero for configuration only files)
#NCOLUMNS    : 2     Number of data columns in the spectrum (This can be zero for configuration only files)
#XUNITS      : eV
#YUNITS      : COUNTS
#DATATYPE    : YY
#XPERCHAN    : 7.862, 7.881   eV per channel (separate by commas if more than one detector)
#OFFSET      : 18.5, -22.4         eV of first channel  (separate by commas if more than one detector
#SIGNALTYPE  : XRF
#YP_TEMP     : -1.26
#LIVETIME    : 8.84433, 8.63896   seconds (separate by commas if more than one detector)
#REALTIME    : 10, 10.0   seconds (separate by commas if more than one detector)
#SPECTRUM    : start of spectrum data
0, 0
0, 0
0, 0
0, 0
0, 0
0, 0
0, 0
0, 0
0, 0
0, 0
0, 0
0, 0
0, 0
0, 0
0, 0
0, 0
0, 0
0, 0
0, 0
0, 0
0, 0
0, 0
0, 0
0, 0
0, 0
0, 0
0, 0
0, 0
0, 0
0, 0
0, 0
0, 0
0, 2
0, 0
5, 4
1, 0
2, 4
2, 5
1, 2
2, 5
4, 2
3, 2
2, 0
3, 5
1, 5
7, 3
3, 5
2, 3
4, 4
5, 5
6, 2
7, 8
7, 7
23, 15
15, 12
10, 13
11, 17
8, 13
8, 7
8, 11
16, 15
25, 27
31, 31
41, 47
37, 52
57, 40
37, 46
34, 27
40, 47
79, 66
105, 140
191, 231
266, 336
389, 433
478, 486
444, 494
411, 420
292, 308
190, 199
129, 133
79, 71
41, 49
27, 40
29, 30
36, 35
33, 36
33, 44
27, 34
26, 30
24, 16
14, 15
14, 24
27, 31
37, 54
83, 88
135, 155
175, 200
248, 256
297, 320
301, 315
234, 260
200, 212
144, 138
98, 129
68, 73
43, 43
42, 57
76, 65
88, 103
141, 154
172, 194
212, 223
217, 231
173, 238
164, 194
154, 156
120, 140
120, 119
97, 68
66, 87
70, 68
60, 62
63, 72
58, 67
41, 44
36, 35
28, 31
24, 25
13, 23
11, 15
6, 10
8, 9
10, 7
5, 11
4, 10
9, 10
7, 17
17, 9
25, 24
28, 30
24, 32
26, 33
20, 33
24, 21
15, 21
19, 23
15, 10
2, 10
9, 19
14, 23
22, 41
48, 65
101, 113
158, 161
192, 219
291, 336
337, 364
336, 375
327, 356
271, 290
204, 235
142, 159
102, 102
51, 62
32, 30
31, 27
23, 27
35, 47
46, 52
46, 55
41, 53
48, 51
51, 48
29, 52
32, 27
22, 23
22, 17
16, 19
10, 14
7, 14
6, 7
10, 13
6, 8
13, 8
12, 15
9, 17
14, 23
22, 18
41, 32
49, 47
57, 47
50, 62
61, 59
57, 56
43, 54
48, 45
29, 41
20, 21
21, 18
23, 16
13, 12
14, 13
7, 12
8, 10
5, 9
10, 12
18, 13
23, 25
20, 17
17, 17
16, 16
16, 13
22, 14
14, 20
14, 9
16, 16
11, 12
7, 8
13, 10
7, 16
9, 12
17, 9
11, 7
9, 13
10, 10
14, 16
19, 14
18, 25
17, 42
29, 32
32, 34
23, 30
26, 27
21, 24
15, 20
16, 21
12, 12
18, 14
8, 17
19, 10
12, 10
5, 16
6, 17
10, 10
9, 13
21, 18
18, 26
26, 28
28, 53
35, 38
51, 47
57, 63
53, 55
36, 41
26, 37
17, 28
19, 18
20, 20
10, 26
21, 21
15, 32
34, 34
45, 55
75, 105
161, 206
294, 340
402, 563
670, 899
933, 1116
1229, 1404
1437, 1650
1663, 1750
1627, 1813
1549, 1586
1265, 1271
1048, 1046
746, 661
475, 461
306, 267
168, 137
95, 85
43, 56
35, 31
19, 22
17, 16
22, 13
11, 17
18, 24
16, 12
18, 21
28, 26
34, 34
51, 47
61, 80
115, 100
134, 151
163, 182
187, 249
245, 267
234, 283
257, 255
234, 233
208, 179
147, 132
107, 89
83, 70
48, 49
27, 27
27, 12
8, 8
11, 14
7, 8
11, 8
5, 12
9, 10
9, 6
9, 13
12, 16
10, 17
5, 12
9, 11
12, 10
5, 8
8, 8
8, 9
4, 8
7, 4
6, 4
5, 5
5, 7
6, 7
4, 8
5, 8
9, 11
6, 5
6, 7
1, 8
9, 15
6, 9
7, 1
7, 8
6, 8
6, 9
3, 6
9, 6
9, 7
10, 5
3, 8
7, 12
6, 10
8, 4
5, 9
3, 10
11, 5
2, 8
13, 5
3, 3
6, 6
7, 9
7, 8
4, 13
14, 10
3, 12
6, 12
3, 12
9, 12
4, 15
17, 10
10, 17
10, 11
9, 6
6, 7
4, 7
7, 3
4, 13
5, 7
4, 11
4, 4
5, 2
5, 4
7, 4
9, 3
9, 3
1, 3
4, 7
1, 7
2, 4
4, 10
5, 6
3, 6
6, 8
5, 3
5, 2
5, 3
8, 12
3, 1
6, 8
6, 8
5, 4
10, 6
7, 4
6, 3
6, 4
8, 4
3, 4
7, 9
4, 6
7, 6
8, 5
5, 6
4, 5
7, 3
1, 6
7, 9
4, 2
2, 3
7, 5
2, 3
4, 6
2, 4
7, 3
5, 6
3, 3
4, 5
3, 6
6, 6
5, 3
4, 4
3, 5
1, 4
4, 4
6, 5
4, 5
5, 2
4, 0
2, 5
3, 6
3, 4
3, 6
1, 4
5, 5
2, 1
5, 4
7, 2
2, 7
6, 4
1, 2
4, 4
3, 4
3, 4
2, 7
3, 1
4, 3
0, 4
5, 5
4, 3
6, 3
3, 4
3, 3
4, 3
4, 3
7, 4
2, 4
4, 7
1, 7
2, 7
2, 3
4, 1
2, 2
2, 1
1, 4
5, 4
3, 5
3, 5
2, 5
4, 3
1, 7
6, 3
4, 2
4, 3
4, 4
3, 4
3, 3
5, 3
2, 2
0, 1
4, 4
3, 4
2, 3
0, 2
0, 2
4, 2
1, 5
6, 2
2, 2
0, 2
4, 7
2, 0
2, 2
1, 4
1, 4
0, 1
4, 3
6, 3
2, 1
4, 2
4, 2
2, 1
1, 0
0, 1
0, 1
3, 2
5, 5
1, 8
3, 0
6, 0
4, 2
1, 2
2, 1
2, 2
2, 4
0, 1
0, 1
4, 3
5, 2
0, 2
0, 0
0, 1
1, 0
1, 3
4, 3
2, 2
2, 4
4, 2
4, 4
4, 4
4, 3
3, 1
0, 4
4, 1
0, 3
1, 8
5, 4
3, 3
1, 4
1, 1
3, 3
3, 0
3, 1
1, 2
0, 2
1, 0
4, 2
2, 1
0, 0
0, 1
0, 1
1, 1
4, 2
0, 3
0, 2
0, 0
0, 0
1, 2
2, 2
0, 1
1, 1
0, 2
0, 1
2, 1
3, 0
2, 0
0, 2
2, 1
3, 2
3, 2
1, 2
0, 2
0, 2
0, 1
1, 0
1, 3
0, 1
2, 0
5, 5
0, 0
1, 0
4, 1
0, 1
0, 0
1, 0
1, 0
0, 0
0, 0
0, 2
0, 0
5, 0
0, 1
1, 0
1, 3
1, 0
1, 2
2, 1
1, 3
1, 1
0, 3
1, 5
0, 1
0, 1
0, 0
2, 0
1, 0
0, 0
0, 1
1, 0
0, 1
0, 3
0, 0
0, 1
1, 2
1, 1
1, 0
0, 1
2, 0
0, 0
1, 1
0, 0
2, 2
1, 0
1, 0
0, 2
0, 1
0, 0
1, 0
0, 0
0, 0
0, 0
2, 0
2, 2
0, 0
0, 0
1, 0
2, 1
0, 1
0, 1
1, 1
1, 0
0, 0
2, 0
0, 0
0, 0
1, 0
0, 0
0, 1
0, 1
0, 1
0, 1
0, 0
0, 1
0, 0
0, 1
1, 0
0, 1
0, 0
2, 1
0, 1
2, 2
0, 1
0, 0
0, 2
1, 0
1, 0
0, 0
0, 0
1, 2
0, 0
1, 0
2, 1
0, 1
0, 1
0, 1
0, 0
0, 0
2, 0
0, 1
1, 0
0, 1
0, 0
0, 0
1, 0
0, 1
0, 1
0, 0
0, 0
0, 0
0, 0
0, 1
0, 1
0, 0
0, 0
0, 0
1, 0
1, 0
0, 0
0, 0
1, 2
0, 1
1, 0
0, 1
0, 0
0, 0
0, 1
0, 0
1, 1
0, 1
0, 1
0, 0
0, 0
0, 2
1, 0
0, 0
0, 0
0, 0
1, 0
0, 0
0, 0
0, 1
2, 0
0, 0
0, 0
0, 2
0, 0
1, 1
0, 0
1, 0
0, 0
0, 0
0, 0
0, 0
0, 0
1, 0
1, 1
0, 0
1, 0
1, 0
0, 0
0, 0
0, 0
1, 2
0, 0
0, 1
1, 0
0, 0
0, 0
0, 0
0, 0
0, 1
1, 1
0, 0
0, 0
0, 0
0, 0
0, 0
1, 1
0, 0
0, 1
0, 0
0, 0
0, 0
0, 0
0, 0
0, 0
1, 0
0, 0
0, 0
0, 0
0, 0
0, 1
0, 0
1, 1
1, 0
0, 0
1, 0
0, 0
1, 0
1, 0
1, 0
0, 0
0, 0
0, 0
0, 0
0, 0
1, 0
0, 0
0, 0
0, 0
1, 0
0, 0
0, 1
0, 0
1, 1
0, 0
0, 0
0, 0
1, 0
1, 0
0, 1
0, 0
0, 0
0, 0
0, 0
0, 1
0, 1
1, 0
0, 0
1, 0
0, 0
0, 0
1, 0
1, 0
0, 0
0, 0
0, 0
0, 0
0, 0
0, 0
0, 0
0, 0
0, 0
0, 0
1, 0
1, 0
0, 2
0, 0
0, 0
0, 1
0, 0
0, 0
0, 1
0, 0
0, 0
1, 0
0, 0
0, 0
0, 0
0, 0
0, 0
0, 0
0, 0
1, 1
0, 0
0, 1
0, 0
0, 0
0, 0
2, 0
0, 0
0, 0
0, 0
0, 0
0, 0
0, 0
1, 0
0, 0
0, 1
0, 0
0, 1
0, 0
0, 0
0, 0
1, 0
0, 0
0, 0
0, 0
0, 0
0, 0
0, 0
0, 0
0, 0
0, 0
0, 0
0, 0
0, 0
0, 0
0, 0
0, 0
0, 0
1, 0
0, 0
0, 0
0, 0
0, 0
0, 0
0, 0
0, 0
0, 0
0, 0
0, 0
0, 0
0, 0
0, 0
0, 0
0, 1
0, 0
0, 0
1, 0
0, 0
0, 0
0, 0
0, 0
1, 0
0, 0
0, 0
0, 0
0, 0
0, 0
0, 0
0, 0
0, 0
0, 0
0, 0
0, 0
0, 0
0, 0
0, 0
0, 0
0, 0
0, 0
0, 0
0, 0
0, 0
0, 0
0, 0
0, 0
0, 0
0, 0
0, 0
0, 0
0, 0
0, 0
0, 0
0, 0
0, 0
0, 0
0, 0
0, 0
0, 0
0, 0
0, 0
0, 0
0, 0
0, 0
0, 0
0, 0
0, 0
0, 0
0, 0
0, 0
0, 0
0, 0
0, 0
0, 0
0, 0
0, 0
0, 0
0, 0
0, 0
0, 0
0, 0
0, 0
1, 0
0, 0
0, 0
0, 0
0, 0
0, 0
0, 0
0, 0
0, 0
0, 0
0, 0
0, 0
0, 0
0, 0
0, 0
0, 0
0, 0
0, 0
0, 0
0, 0
0, 0
0, 0
0, 0
0, 0
0, 0
0, 0
0, 0
0, 0
0, 0
0, 0
0, 0
0, 0
0, 0
0, 0
0, 0
0, 0
0, 0
0, 0
0, 0
0, 0
0, 0
0, 0
0, 0
0, 0
0, 0
0, 0
0, 0
0, 0
0, 0
0, 0
0, 0
0, 0
0, 0
0, 0
0, 1
0, 0
0, 0
0, 0
0, 0
0, 0
0, 0
0, 0
0, 0
0, 0
0, 0
0, 0
0, 0
0, 0
0, 0
0, 0
0, 0
0, 0
0, 0
0, 0
0, 0
0, 0
0, 0
0, 0
0, 0
0, 0
0, 0
0, 0
0, 0
0, 0
0, 0
0, 0
0, 0
0, 0
0, 0
0, 0
0, 0
0, 0
0, 0
0, 0
0, 0
0, 0
0, 0
0, 0
0, 0
0, 0
0, 0
0, 0
0, 0
0, 0
0, 0
0, 0
0, 0
0, 0
0, 0
0, 0
0, 0
0, 0
0, 0
0, 0
0, 0
0, 0
0, 0
0, 0
0, 0
0, 0
0, 0
0, 0
0, 0
0, 0
0, 0
0, 0
0, 0
0, 0
0, 0
0, 0
0, 0
0, 0
0, 0
0, 0
0, 0
0, 0
0, 0
0, 0
0, 0
0, 0
0, 0
0, 0
0, 0
0, 0
0, 0
0, 0
0, 0
0, 0
0, 0
0, 0
0, 0
0, 0
0, 0
0, 0
0, 0
0, 0
0, 0
0, 0
0, 0
0, 0
0, 0
0, 0
0, 0
0, 0
0, 0
0, 0
0, 0
0, 0
0, 0
0, 0
0, 0
0, 0
0, 0
0, 0
0, 0
0, 0
0, 0
0, 0
0, 0
0, 0
0, 0
0, 0
0, 0
0, 0
0, 0
0, 0
0, 0
0, 0
0, 0
0, 0
0, 0
0, 0
0, 0
0, 0
0, 0
0, 0
0, 0
0, 0
0, 0
0, 0
0, 0
0, 0
0, 0
0, 0
0, 0
0, 0
0, 0
0, 0
0, 0
0, 0
0, 0
0, 0
0, 0
0, 0
0, 0
0, 0
0, 0
0, 0
0, 0
0, 0
0, 0
0, 0
0, 0
0, 0
0, 0
0, 0
0, 0
0, 0
0, 0
0, 0
0, 0
0, 0
0, 0
0, 0
0, 0
0, 0
0, 0
0, 0
0, 0
0, 0
0, 0
0, 0
0, 0
0, 0
0, 0
0, 0
0, 0
0, 0
0, 0
0, 0
0, 0
0, 0
0, 0
0, 0
0, 0
0, 0
0, 0
0, 0
0, 0
0, 0
0, 0
0, 0
0, 0
0, 0
0, 0
0, 0
0, 0
0, 0
0, 0
0, 0
0, 0
0, 0
0, 0
0, 0
0, 0
0, 0
0, 0
0, 0
0, 0
0, 0
0, 0
0, 0
0, 0
0, 0
0, 0
0, 0
0, 0
0, 0
0, 0
0, 0
0, 0
0, 0
0, 0
0, 0
0, 0
0, 0
0, 0
0, 0
0, 0
0, 0
0, 0
0, 0
0, 0
0, 0
0, 0
0, 0
0, 0
0, 0
0, 0
0, 0
0, 0
0, 0
0, 0
0, 0
0, 0
0, 0
0, 0
0, 0
0, 0
0, 0
0, 0
0, 0
0, 0
0, 0
0, 0
0, 0
0, 0
0, 0
0, 0
0, 0
0, 0
0, 0
0, 0
0, 0
0, 0
0, 0
0, 0
0, 0
0, 0
0, 0
0, 0
0, 0
0, 0
0, 0
0, 0
0, 0
0, 0
0, 0
0, 0
0, 0
0, 0
0, 0
0, 0
0, 0
0, 0
0, 0
0, 0
0, 0
0, 0
0, 0
0, 0
0, 0
0, 0
0, 0
0, 0
0, 0
0, 0
0, 0
0, 0
0, 0
0, 0
0, 0
0, 0
0, 0
0, 0
0, 0
0, 0
0, 0
0, 0
0, 0
0, 0
0, 0
0, 0
0, 0
0, 0
0, 0
0, 0
0, 0
0, 0
0, 0
0, 0
0, 0
0, 0
0, 0
0, 0
0, 0
#ENDOFDATA     end of spectrum data