File: host_upload/02-11-2024/rqc/uplink1/ps__0567_0717304816_000rfs_shot_374.msa
#FORMAT      : EMSA/MAS spectral data file
#VERSION     : TC202v2.0 PIXL
#TITLE       : Novarupta (sol567) subset1
#DATE        : 02-11-2024      Date in the format DD-MMM-YYYY, for example 07-JUL-2010
#TIME        :             The time of day at which the spectrum was recorded, in 24-hour format
#OWNER       : PIXL Flight Model       (PIXL will use this to indicate which instrument took the data.)
#NPOINTS     : 4096     Number of data points in the spectrum (This can be zero for configuration only files)
#NCOLUMNS    : 2     Number of data columns in the spectrum (This can be zero for configuration only files)
#XUNITS      : eV
#YUNITS      : COUNTS
#DATATYPE    : YY
#XPERCHAN    : 7.862, 7.881   eV per channel (separate by commas if more than one detector)
#OFFSET      : 18.5, -22.4         eV of first channel  (separate by commas if more than one detector
#SIGNALTYPE  : XRF
#YP_TEMP     : 1.402
#LIVETIME    : 8.83539, 8.79375   seconds (separate by commas if more than one detector)
#REALTIME    : 10, 10.0   seconds (separate by commas if more than one detector)
#SPECTRUM    : start of spectrum data
0, 0
0, 0
0, 0
0, 0
0, 0
0, 0
0, 0
0, 0
0, 0
0, 0
0, 0
0, 0
0, 0
0, 0
0, 0
0, 0
0, 0
0, 0
0, 0
0, 0
0, 0
0, 0
0, 0
0, 0
0, 0
0, 0
0, 0
0, 0
0, 0
0, 0
0, 0
0, 0
0, 1
1, 1
2, 2
1, 2
1, 1
2, 4
6, 5
6, 4
2, 5
5, 2
5, 6
2, 3
3, 6
2, 6
0, 3
4, 5
3, 2
5, 7
4, 3
3, 10
13, 24
21, 15
13, 20
15, 21
11, 10
15, 14
2, 16
9, 6
15, 23
19, 35
39, 41
44, 50
39, 58
38, 52
45, 47
26, 37
31, 26
55, 64
102, 106
170, 208
277, 373
380, 487
420, 609
473, 545
406, 514
301, 339
225, 247
137, 166
80, 84
46, 49
36, 28
30, 37
25, 43
23, 31
36, 37
28, 44
24, 39
18, 13
14, 15
14, 20
21, 24
29, 44
78, 91
117, 150
189, 222
266, 296
293, 332
284, 332
262, 305
218, 222
136, 144
89, 96
55, 68
41, 69
49, 71
56, 71
102, 126
138, 156
172, 197
209, 267
240, 255
234, 259
206, 243
181, 213
140, 141
104, 122
75, 95
79, 95
81, 77
73, 80
67, 65
51, 71
48, 54
34, 32
24, 36
25, 18
11, 25
11, 14
23, 16
11, 8
7, 5
4, 7
8, 8
12, 8
11, 16
14, 22
16, 19
23, 29
30, 35
22, 30
35, 27
26, 39
17, 17
12, 11
6, 12
9, 12
15, 9
16, 25
28, 26
43, 58
81, 116
137, 181
184, 250
230, 314
334, 400
336, 435
323, 388
293, 366
199, 267
159, 186
86, 101
73, 69
41, 45
26, 26
25, 26
30, 32
35, 44
49, 70
46, 62
58, 76
58, 59
47, 49
29, 48
27, 30
25, 22
12, 13
11, 5
6, 8
14, 16
8, 11
6, 10
12, 8
10, 8
12, 16
27, 26
29, 25
34, 42
39, 52
48, 62
59, 61
48, 66
51, 65
64, 50
37, 64
32, 38
27, 40
25, 26
34, 20
10, 19
13, 13
15, 12
7, 15
13, 7
19, 11
14, 10
16, 15
16, 22
16, 17
22, 19
11, 34
17, 13
12, 15
5, 19
12, 20
14, 12
9, 14
9, 14
10, 3
7, 10
14, 18
7, 16
10, 10
10, 17
19, 25
18, 20
21, 27
24, 40
20, 45
25, 47
24, 31
27, 37
22, 43
23, 31
13, 19
21, 15
12, 12
11, 11
8, 19
14, 8
8, 10
8, 14
9, 15
20, 20
17, 23
28, 29
31, 42
37, 50
40, 36
44, 44
50, 52
48, 40
38, 48
37, 39
33, 25
28, 25
11, 20
20, 17
14, 23
26, 23
24, 22
42, 58
78, 90
126, 169
213, 279
326, 520
556, 784
811, 1094
1123, 1422
1363, 1705
1647, 1968
1755, 2013
1539, 1791
1481, 1544
1166, 1195
846, 841
587, 568
384, 335
239, 205
126, 131
70, 60
50, 36
19, 19
20, 20
17, 13
16, 15
17, 15
13, 10
9, 16
21, 24
25, 39
45, 49
55, 68
77, 124
111, 139
169, 177
201, 247
242, 270
265, 254
263, 312
260, 271
194, 259
176, 198
128, 110
88, 85
61, 63
32, 22
21, 25
12, 11
7, 8
4, 23
5, 15
5, 10
9, 12
8, 18
13, 14
9, 16
9, 19
17, 18
9, 12
14, 11
8, 14
10, 3
6, 11
7, 6
5, 8
5, 5
3, 9
3, 8
4, 5
3, 11
8, 9
6, 6
5, 9
5, 6
3, 11
2, 3
8, 3
4, 9
5, 12
8, 9
7, 9
7, 19
8, 9
6, 6
7, 15
8, 12
5, 8
13, 9
6, 16
6, 9
10, 11
4, 9
7, 6
5, 6
6, 7
4, 8
12, 5
5, 5
4, 7
7, 6
6, 12
9, 19
13, 9
8, 9
10, 23
6, 19
13, 9
9, 16
8, 6
5, 11
9, 11
4, 10
5, 9
4, 7
6, 4
5, 4
3, 6
2, 4
12, 8
6, 3
8, 7
6, 10
9, 1
6, 14
7, 4
5, 2
5, 12
4, 4
5, 6
5, 5
8, 2
6, 2
7, 5
4, 4
5, 7
4, 4
3, 8
3, 5
4, 7
6, 10
4, 10
8, 2
7, 3
2, 4
6, 6
1, 7
3, 2
2, 4
6, 9
5, 4
6, 4
9, 4
6, 7
2, 6
2, 5
2, 2
11, 4
4, 7
4, 6
5, 4
5, 5
4, 2
4, 6
3, 5
3, 4
6, 7
2, 4
0, 8
6, 4
6, 5
7, 2
6, 4
5, 3
4, 2
4, 6
4, 2
3, 5
4, 7
4, 5
1, 1
8, 2
2, 3
2, 3
1, 2
7, 1
2, 6
2, 6
6, 4
1, 5
3, 5
3, 7
3, 5
2, 8
7, 3
2, 5
9, 5
0, 6
5, 6
3, 3
1, 4
1, 3
5, 2
1, 3
2, 2
1, 3
2, 5
2, 3
5, 2
2, 2
3, 7
3, 2
0, 4
3, 2
3, 6
6, 4
4, 2
3, 5
3, 2
3, 2
1, 1
3, 0
2, 1
3, 3
3, 2
2, 1
0, 6
3, 2
3, 3
4, 2
4, 2
2, 3
3, 2
3, 2
1, 4
0, 3
1, 6
2, 6
5, 5
3, 3
3, 5
5, 3
4, 5
0, 1
3, 1
3, 3
3, 2
2, 2
2, 2
2, 3
5, 3
0, 1
2, 0
3, 1
2, 4
1, 2
2, 4
1, 1
5, 1
5, 0
2, 2
1, 3
1, 2
3, 5
0, 2
3, 3
3, 2
3, 0
6, 2
4, 0
1, 4
0, 3
3, 1
3, 4
2, 1
6, 3
3, 4
5, 6
2, 1
2, 5
1, 3
3, 2
3, 3
1, 4
1, 2
1, 2
1, 1
2, 2
2, 4
1, 2
1, 2
0, 2
3, 2
2, 4
2, 0
1, 2
1, 1
3, 1
5, 4
3, 1
3, 2
1, 3
1, 3
1, 1
1, 2
1, 2
3, 3
1, 2
1, 4
2, 0
0, 1
0, 1
4, 4
1, 3
0, 2
0, 3
0, 2
2, 2
1, 1
4, 2
0, 1
1, 0
3, 1
0, 1
0, 2
1, 2
3, 1
0, 0
1, 0
1, 1
1, 3
1, 1
0, 2
2, 2
2, 2
3, 3
0, 0
0, 1
0, 2
1, 1
1, 0
5, 1
0, 2
1, 3
1, 1
0, 0
0, 1
0, 1
1, 0
1, 1
1, 3
1, 0
2, 0
0, 0
0, 1
3, 1
1, 0
1, 2
1, 0
0, 1
1, 2
0, 1
1, 0
0, 0
0, 0
2, 2
1, 0
0, 1
4, 1
1, 0
0, 2
0, 2
0, 1
3, 1
1, 2
2, 2
0, 0
0, 1
1, 2
1, 0
0, 1
1, 0
2, 2
0, 0
1, 1
0, 1
0, 0
2, 0
0, 0
1, 2
0, 2
6, 1
0, 0
0, 2
0, 0
1, 0
0, 0
0, 0
0, 0
2, 1
2, 0
0, 0
0, 1
0, 1
0, 1
0, 2
1, 1
0, 0
0, 1
0, 1
1, 1
0, 1
0, 1
0, 0
0, 0
0, 0
1, 0
2, 1
1, 0
1, 0
0, 1
0, 0
0, 1
1, 1
0, 0
1, 0
0, 0
0, 1
0, 1
0, 0
0, 0
1, 0
0, 0
0, 2
0, 1
0, 0
0, 2
0, 0
0, 0
1, 2
1, 1
2, 1
0, 0
0, 0
0, 1
0, 0
0, 1
1, 0
2, 0
0, 0
2, 0
0, 0
3, 1
1, 1
0, 0
0, 0
2, 0
2, 1
1, 1
1, 0
0, 0
0, 0
0, 1
0, 0
0, 0
0, 1
0, 1
0, 0
0, 0
2, 1
1, 0
0, 0
0, 1
0, 0
0, 0
0, 1
0, 1
0, 1
0, 0
1, 1
0, 0
0, 0
2, 0
0, 0
0, 0
0, 0
0, 1
2, 0
0, 0
0, 0
0, 2
0, 1
0, 1
0, 1
1, 0
0, 0
0, 0
0, 0
0, 1
0, 0
0, 0
1, 0
0, 0
0, 0
0, 2
0, 0
0, 0
0, 0
1, 0
0, 0
1, 1
0, 0
0, 0
0, 0
0, 0
0, 0
0, 0
0, 0
0, 0
0, 0
1, 0
0, 1
0, 0
0, 0
0, 0
0, 0
0, 0
0, 0
0, 0
0, 1
0, 1
0, 0
0, 0
0, 1
0, 0
0, 0
0, 1
0, 0
0, 0
0, 1
0, 1
1, 0
0, 0
0, 0
0, 0
0, 0
0, 0
2, 1
0, 1
0, 1
0, 0
1, 0
0, 0
0, 0
0, 0
1, 0
0, 0
1, 0
0, 0
0, 0
1, 0
1, 0
0, 0
0, 0
0, 0
0, 0
0, 0
0, 0
0, 0
0, 0
0, 0
0, 0
0, 0
0, 0
0, 0
0, 0
1, 0
0, 0
0, 0
0, 0
0, 0
0, 0
0, 1
0, 1
0, 0
0, 1
2, 0
0, 0
0, 0
0, 0
0, 1
0, 0
1, 0
1, 1
0, 0
1, 0
0, 0
0, 0
0, 1
2, 0
0, 0
1, 0
0, 0
0, 0
0, 1
0, 0
0, 0
1, 0
0, 0
0, 0
0, 0
0, 0
0, 0
0, 0
0, 0
0, 0
0, 0
0, 0
0, 0
0, 0
0, 0
0, 0
0, 1
0, 0
0, 0
0, 0
0, 0
0, 0
0, 0
0, 0
0, 0
0, 0
0, 0
0, 0
0, 2
0, 0
1, 0
0, 0
0, 0
0, 0
0, 0
0, 0
0, 0
0, 0
0, 0
0, 0
0, 0
0, 0
0, 0
1, 0
0, 0
0, 0
0, 0
0, 0
0, 0
0, 0
0, 0
0, 0
0, 0
0, 0
0, 0
0, 0
0, 0
0, 0
1, 0
0, 0
0, 0
0, 0
0, 0
0, 0
0, 0
0, 0
0, 0
0, 0
0, 0
0, 0
0, 0
0, 0
0, 0
0, 0
0, 0
0, 0
0, 0
1, 0
0, 0
0, 0
0, 0
0, 0
0, 0
0, 0
0, 0
0, 0
0, 0
0, 0
0, 0
0, 0
0, 0
0, 0
0, 0
0, 0
0, 0
0, 0
0, 0
0, 0
0, 0
0, 0
0, 0
0, 0
0, 0
0, 0
0, 0
0, 0
0, 0
0, 0
0, 0
0, 0
0, 0
0, 0
0, 0
0, 0
0, 0
0, 0
0, 0
0, 0
0, 0
0, 0
0, 0
0, 0
0, 0
0, 0
0, 0
0, 0
0, 0
0, 0
0, 0
0, 0
0, 0
0, 0
0, 0
0, 0
0, 0
0, 0
0, 0
0, 0
0, 0
0, 0
0, 0
0, 0
0, 0
0, 0
0, 0
0, 0
0, 0
0, 0
0, 0
0, 0
0, 0
0, 0
0, 0
0, 0
0, 0
0, 0
0, 0
0, 0
0, 0
0, 0
0, 0
0, 0
0, 0
0, 0
0, 0
0, 0
0, 0
0, 0
0, 0
0, 0
0, 0
0, 0
0, 0
0, 0
0, 0
0, 0
0, 0
0, 0
0, 0
0, 0
0, 0
0, 0
0, 0
0, 0
0, 0
0, 0
0, 0
0, 0
0, 0
0, 0
0, 0
0, 0
0, 0
0, 0
0, 0
0, 0
0, 0
0, 0
0, 0
0, 0
0, 0
0, 0
0, 0
0, 0
0, 0
0, 0
0, 0
0, 0
0, 0
0, 0
0, 0
0, 0
0, 0
0, 0
0, 0
0, 0
0, 0
0, 0
0, 0
0, 0
0, 0
0, 0
0, 0
0, 0
0, 0
0, 0
0, 0
0, 0
0, 0
0, 0
0, 0
0, 0
0, 0
0, 0
0, 0
0, 0
0, 0
0, 0
0, 0
0, 0
0, 0
0, 0
0, 0
0, 0
0, 0
0, 0
0, 0
0, 0
0, 0
0, 0
0, 0
0, 0
0, 0
0, 0
0, 0
0, 0
0, 0
0, 0
0, 0
0, 0
0, 0
0, 0
0, 0
0, 0
0, 0
0, 0
0, 0
0, 0
0, 0
0, 0
0, 0
0, 0
0, 0
0, 0
0, 0
0, 0
0, 0
0, 0
0, 0
0, 0
0, 0
0, 0
0, 0
0, 0
0, 0
0, 0
0, 0
0, 0
0, 0
0, 0
0, 0
0, 0
0, 0
0, 0
0, 0
0, 0
0, 0
0, 0
0, 0
0, 0
0, 0
0, 0
0, 0
0, 0
0, 0
0, 0
0, 0
0, 0
0, 0
0, 0
0, 0
0, 0
0, 0
0, 0
0, 0
0, 0
0, 0
0, 0
0, 0
0, 0
0, 0
0, 0
0, 0
0, 0
0, 0
0, 0
0, 0
0, 0
0, 0
0, 0
0, 0
0, 0
0, 0
0, 0
0, 0
0, 0
0, 0
0, 0
0, 0
0, 0
0, 0
0, 0
0, 0
0, 0
0, 0
0, 0
0, 0
0, 0
0, 0
0, 0
0, 0
0, 0
0, 0
0, 0
0, 0
0, 0
0, 0
0, 0
0, 0
0, 0
0, 0
0, 0
0, 0
0, 0
0, 0
0, 0
0, 0
0, 0
0, 0
0, 0
0, 0
0, 0
0, 0
0, 0
0, 0
0, 0
0, 0
0, 0
0, 0
0, 0
0, 0
0, 0
0, 0
0, 0
0, 0
0, 0
0, 0
0, 0
0, 0
0, 0
0, 0
0, 0
0, 0
0, 0
0, 0
0, 0
0, 0
0, 0
0, 0
0, 0
0, 0
0, 0
0, 0
0, 0
0, 0
0, 0
0, 0
0, 0
0, 0
0, 0
0, 0
0, 0
0, 0
0, 0
0, 0
0, 0
0, 0
0, 0
0, 0
0, 0
0, 0
0, 0
0, 0
0, 0
0, 0
0, 0
0, 0
0, 0
0, 0
0, 0
0, 0
0, 0
0, 0
0, 0
0, 0
0, 0
0, 0
0, 0
0, 0
0, 0
0, 0
0, 0
0, 0
0, 0
0, 0
0, 0
0, 0
0, 0
0, 0
0, 0
0, 0
0, 0
0, 0
0, 0
0, 0
0, 0
0, 0
0, 0
0, 0
0, 0
0, 0
0, 0
0, 0
0, 0
0, 0
0, 0
0, 0
0, 0
0, 0
0, 0
0, 0
0, 0
0, 0
0, 0
0, 0
0, 0
0, 0
0, 0
0, 0
0, 0
0, 0
0, 0
0, 0
0, 0
0, 0
0, 0
0, 0
0, 0
0, 0
0, 0
0, 0
0, 0
0, 0
0, 0
0, 0
0, 0
0, 0
0, 0
0, 0
#ENDOFDATA     end of spectrum data