File: host_upload/02-11-2024/rqc/uplink1/ps__0567_0717304816_000rfs_shot_36.msa
#FORMAT      : EMSA/MAS spectral data file
#VERSION     : TC202v2.0 PIXL
#TITLE       : Novarupta (sol567) subset1
#DATE        : 02-11-2024      Date in the format DD-MMM-YYYY, for example 07-JUL-2010
#TIME        :             The time of day at which the spectrum was recorded, in 24-hour format
#OWNER       : PIXL Flight Model       (PIXL will use this to indicate which instrument took the data.)
#NPOINTS     : 4096     Number of data points in the spectrum (This can be zero for configuration only files)
#NCOLUMNS    : 2     Number of data columns in the spectrum (This can be zero for configuration only files)
#XUNITS      : eV
#YUNITS      : COUNTS
#DATATYPE    : YY
#XPERCHAN    : 7.862, 7.881   eV per channel (separate by commas if more than one detector)
#OFFSET      : 18.5, -22.4         eV of first channel  (separate by commas if more than one detector
#SIGNALTYPE  : XRF
#YP_TEMP     : -3.602
#LIVETIME    : 8.85784, 8.63724   seconds (separate by commas if more than one detector)
#REALTIME    : 10, 10.0   seconds (separate by commas if more than one detector)
#SPECTRUM    : start of spectrum data
0, 0
0, 0
0, 0
0, 0
0, 0
0, 0
0, 0
0, 0
0, 0
0, 0
0, 0
0, 0
0, 0
0, 0
0, 0
0, 0
0, 0
0, 0
0, 0
0, 0
0, 0
0, 0
0, 0
0, 0
0, 0
0, 1
0, 0
0, 0
0, 0
0, 0
0, 0
0, 0
0, 0
2, 2
0, 0
3, 4
1, 3
2, 3
2, 3
2, 4
3, 3
3, 4
3, 2
0, 1
7, 2
2, 6
1, 10
6, 4
1, 7
6, 6
2, 8
12, 11
12, 19
12, 23
14, 8
13, 20
8, 12
9, 13
6, 18
13, 21
15, 26
20, 37
27, 45
40, 51
45, 54
46, 63
34, 44
24, 43
42, 48
57, 82
116, 171
181, 289
282, 406
328, 535
397, 541
382, 591
329, 500
261, 344
186, 229
118, 151
71, 97
42, 43
26, 43
28, 34
22, 31
37, 37
27, 39
23, 39
25, 29
22, 19
16, 18
19, 29
26, 46
51, 66
84, 111
144, 189
184, 260
207, 335
263, 363
258, 363
211, 272
166, 223
121, 165
90, 92
61, 98
55, 73
48, 49
68, 79
83, 109
102, 138
156, 214
158, 219
196, 229
178, 222
164, 216
136, 173
136, 144
100, 126
78, 88
66, 81
60, 95
56, 79
51, 57
52, 58
35, 41
38, 45
29, 32
33, 21
16, 22
12, 16
8, 16
9, 10
8, 11
8, 7
2, 15
6, 5
4, 11
11, 26
22, 24
20, 23
15, 30
21, 35
20, 43
15, 31
15, 18
10, 19
11, 16
14, 17
14, 19
16, 34
30, 53
67, 94
103, 148
144, 241
252, 312
253, 399
301, 459
300, 476
266, 408
232, 327
187, 227
129, 150
72, 91
44, 61
35, 34
21, 31
32, 54
27, 42
35, 46
47, 78
46, 58
43, 79
44, 67
39, 56
31, 34
29, 27
13, 16
9, 9
8, 13
7, 10
9, 7
7, 12
5, 8
9, 13
11, 11
12, 22
16, 28
30, 26
31, 62
28, 70
44, 51
41, 79
38, 85
48, 60
39, 54
31, 47
23, 49
21, 27
19, 18
13, 15
10, 17
13, 11
8, 13
14, 15
12, 15
8, 16
13, 19
16, 27
17, 23
14, 13
23, 21
25, 21
22, 12
7, 15
8, 16
16, 11
12, 11
11, 9
4, 11
10, 15
8, 15
9, 13
11, 20
9, 13
15, 16
17, 17
13, 29
19, 31
23, 49
23, 30
22, 31
31, 28
19, 18
21, 20
11, 15
13, 24
17, 15
3, 16
9, 10
17, 13
12, 14
8, 9
11, 13
14, 16
13, 21
18, 19
25, 38
35, 44
23, 48
34, 52
35, 59
43, 46
38, 47
33, 37
25, 37
27, 31
16, 16
19, 25
24, 21
17, 18
25, 30
25, 42
58, 83
95, 178
187, 287
317, 468
477, 702
678, 1078
954, 1433
1121, 1712
1380, 1886
1349, 1913
1418, 1859
1269, 1551
1017, 1281
798, 986
507, 634
367, 420
228, 257
120, 127
72, 82
37, 46
28, 19
13, 23
21, 22
15, 16
12, 24
9, 19
12, 26
24, 24
36, 34
40, 55
55, 65
77, 113
99, 158
121, 175
190, 245
187, 275
204, 286
220, 305
218, 267
194, 245
164, 172
128, 130
86, 108
58, 59
36, 44
16, 19
12, 15
10, 11
11, 7
3, 9
1, 15
13, 11
9, 6
8, 11
10, 16
11, 13
7, 12
7, 13
6, 11
5, 7
9, 5
8, 10
6, 8
2, 10
6, 9
6, 8
6, 5
7, 6
8, 7
2, 4
7, 6
6, 5
4, 6
6, 6
8, 4
9, 10
10, 5
5, 6
1, 7
6, 11
4, 9
8, 8
5, 8
9, 5
2, 5
7, 7
2, 10
5, 16
8, 8
5, 8
4, 5
5, 5
9, 8
2, 7
2, 8
4, 4
5, 10
3, 5
5, 10
6, 9
4, 19
14, 20
3, 19
12, 19
6, 15
12, 18
8, 11
7, 9
9, 10
6, 8
3, 13
7, 10
3, 9
6, 5
4, 8
4, 10
4, 3
5, 7
3, 8
0, 3
6, 3
5, 7
5, 5
4, 10
5, 2
10, 6
2, 5
4, 9
5, 8
7, 6
3, 6
7, 4
6, 6
4, 4
3, 3
3, 7
6, 10
6, 4
7, 6
5, 6
3, 8
6, 8
2, 10
5, 8
7, 7
3, 13
3, 4
8, 3
3, 7
6, 7
5, 3
4, 6
2, 5
6, 2
0, 1
7, 6
5, 5
3, 8
2, 5
3, 6
5, 3
0, 5
3, 3
4, 13
2, 1
3, 5
4, 8
5, 2
2, 3
5, 5
5, 2
4, 7
2, 4
3, 5
1, 4
6, 2
3, 4
3, 5
3, 4
6, 4
0, 0
1, 6
0, 4
1, 3
2, 5
3, 1
2, 3
2, 4
4, 2
5, 4
6, 1
3, 2
1, 4
3, 4
6, 2
5, 2
2, 2
1, 1
6, 4
5, 2
1, 5
2, 6
2, 6
1, 2
2, 2
3, 6
0, 4
1, 12
2, 3
3, 4
4, 4
7, 2
2, 3
4, 5
1, 6
6, 2
3, 1
3, 3
4, 4
4, 3
3, 2
1, 4
1, 5
1, 3
2, 1
6, 2
2, 3
1, 3
1, 5
0, 5
3, 4
2, 2
1, 2
4, 3
2, 4
2, 5
2, 2
4, 4
0, 1
0, 1
3, 3
2, 1
3, 6
1, 5
5, 4
3, 4
3, 2
1, 3
5, 4
3, 2
1, 2
3, 3
1, 1
0, 3
2, 5
3, 5
2, 1
2, 4
3, 4
2, 2
2, 0
5, 1
0, 1
0, 1
2, 4
1, 0
1, 2
1, 2
5, 1
1, 3
2, 3
2, 2
1, 5
6, 5
3, 3
1, 3
4, 4
3, 1
4, 4
3, 4
1, 6
0, 1
1, 2
4, 2
1, 1
1, 3
1, 4
3, 0
1, 3
1, 2
2, 2
0, 2
1, 4
0, 2
0, 0
1, 2
1, 0
0, 3
0, 2
1, 2
3, 1
2, 2
3, 2
0, 3
1, 0
1, 6
2, 2
1, 4
4, 4
4, 2
3, 2
3, 0
0, 2
2, 2
1, 2
0, 4
2, 2
0, 2
1, 1
2, 1
1, 0
0, 0
2, 1
0, 2
0, 0
1, 1
0, 2
0, 2
2, 1
0, 2
1, 5
0, 2
1, 2
2, 2
1, 0
3, 0
2, 0
1, 3
1, 2
0, 0
1, 3
1, 1
1, 1
0, 1
2, 0
2, 1
0, 2
2, 0
0, 1
0, 0
1, 1
1, 1
1, 1
1, 2
0, 1
2, 3
2, 2
0, 2
1, 1
0, 0
0, 5
2, 0
1, 0
2, 1
1, 1
2, 0
0, 1
0, 0
1, 0
0, 3
0, 3
1, 0
0, 1
1, 0
0, 1
0, 2
0, 1
0, 2
2, 4
1, 0
1, 3
0, 0
0, 0
1, 0
1, 1
2, 2
1, 0
0, 1
1, 0
0, 2
1, 1
1, 1
1, 1
0, 0
0, 2
0, 2
0, 1
0, 0
0, 1
0, 0
1, 2
0, 0
1, 0
0, 1
0, 0
1, 0
0, 0
1, 0
3, 0
0, 0
1, 0
0, 0
0, 0
0, 0
1, 0
0, 0
0, 0
0, 0
0, 0
0, 0
0, 0
1, 2
1, 1
0, 0
0, 0
0, 2
0, 0
0, 0
0, 0
0, 1
0, 1
0, 0
1, 0
1, 1
1, 1
1, 0
0, 1
0, 0
0, 0
1, 1
0, 2
0, 0
2, 0
1, 2
0, 0
0, 1
0, 1
0, 1
0, 0
0, 0
1, 2
0, 0
0, 0
0, 0
1, 0
0, 1
1, 0
0, 1
0, 1
0, 0
0, 2
0, 0
0, 0
0, 0
0, 0
0, 0
0, 0
0, 0
0, 0
0, 1
0, 0
0, 1
1, 0
1, 1
0, 0
0, 0
0, 0
0, 0
0, 0
0, 0
0, 1
0, 0
1, 0
0, 0
1, 0
0, 0
1, 0
0, 1
1, 0
0, 0
0, 0
0, 0
0, 1
0, 0
0, 0
0, 1
1, 0
0, 0
0, 1
0, 0
1, 0
0, 0
0, 1
0, 0
1, 0
0, 1
0, 0
0, 0
0, 1
0, 2
0, 0
0, 1
0, 0
0, 0
0, 0
0, 1
0, 0
0, 0
0, 0
0, 1
1, 0
0, 1
0, 1
0, 0
0, 0
0, 0
0, 0
0, 1
1, 0
1, 0
1, 0
1, 0
1, 0
0, 0
0, 0
0, 0
0, 0
1, 1
0, 0
0, 0
0, 0
0, 0
0, 0
0, 0
0, 0
0, 0
0, 1
0, 0
0, 0
0, 0
0, 0
0, 0
0, 0
0, 0
0, 0
0, 1
0, 0
0, 0
0, 0
0, 0
0, 0
0, 0
0, 0
0, 0
0, 0
0, 0
0, 0
0, 0
0, 0
0, 0
1, 0
0, 1
0, 1
0, 0
0, 0
0, 0
0, 0
1, 0
0, 0
1, 0
0, 0
0, 0
0, 1
0, 0
0, 0
0, 0
0, 2
0, 0
1, 0
0, 0
0, 0
0, 1
0, 1
0, 0
0, 0
0, 1
0, 0
0, 0
0, 0
0, 0
0, 0
0, 0
0, 0
0, 0
0, 0
0, 0
0, 0
0, 0
0, 1
0, 0
0, 0
0, 0
0, 0
0, 1
0, 0
0, 0
0, 0
0, 1
0, 0
0, 0
0, 0
0, 0
0, 0
0, 0
0, 0
0, 0
0, 0
0, 0
0, 0
0, 0
0, 0
0, 0
0, 0
0, 0
0, 1
0, 0
1, 0
0, 0
0, 0
0, 0
0, 0
0, 0
0, 0
1, 0
0, 0
0, 0
0, 0
0, 0
0, 0
0, 0
0, 0
0, 0
0, 0
0, 0
0, 0
0, 0
0, 0
0, 0
0, 0
0, 0
0, 0
0, 0
0, 0
0, 0
0, 0
0, 0
0, 0
0, 0
1, 0
0, 0
0, 0
0, 0
0, 0
0, 0
0, 1
0, 0
1, 0
0, 0
0, 0
0, 0
0, 0
0, 0
0, 0
0, 0
0, 0
0, 0
0, 0
0, 0
0, 0
0, 0
0, 0
0, 0
0, 0
0, 0
0, 0
0, 1
0, 0
0, 0
0, 0
0, 0
0, 0
0, 0
0, 0
0, 0
0, 0
0, 0
0, 0
0, 0
0, 0
0, 0
0, 0
0, 0
0, 0
0, 0
0, 0
0, 0
0, 0
0, 0
0, 0
0, 0
0, 0
0, 0
0, 0
0, 0
0, 0
0, 0
0, 0
0, 0
0, 0
0, 0
0, 0
0, 0
0, 0
0, 0
0, 0
0, 0
0, 0
0, 0
0, 0
0, 0
0, 0
0, 0
0, 0
0, 0
0, 0
0, 0
0, 0
0, 0
0, 0
0, 0
0, 0
0, 0
0, 0
0, 0
0, 0
0, 0
0, 0
0, 0
0, 0
0, 0
0, 0
0, 0
0, 0
0, 0
0, 0
0, 0
0, 0
0, 0
0, 0
0, 0
0, 0
0, 0
0, 0
0, 0
0, 0
0, 0
0, 0
0, 0
0, 0
0, 0
0, 0
0, 0
0, 0
0, 0
0, 0
0, 0
0, 0
0, 0
0, 0
0, 0
0, 0
0, 0
0, 0
0, 0
0, 0
0, 0
0, 0
0, 0
0, 0
0, 0
0, 0
0, 0
0, 0
0, 0
0, 0
0, 0
0, 0
0, 0
0, 0
0, 0
0, 0
0, 0
0, 0
0, 0
0, 0
0, 0
0, 0
0, 0
0, 0
0, 0
0, 0
0, 0
0, 0
0, 0
0, 0
0, 0
0, 0
0, 0
0, 0
0, 0
0, 0
0, 0
0, 0
0, 0
0, 0
0, 0
0, 0
0, 0
0, 0
0, 0
0, 0
0, 0
0, 0
0, 0
0, 0
0, 0
0, 0
0, 0
0, 0
0, 0
0, 0
0, 0
0, 0
0, 0
0, 0
0, 0
0, 0
0, 0
0, 0
0, 0
0, 0
0, 0
0, 0
0, 0
0, 0
0, 0
0, 0
0, 0
0, 0
0, 0
0, 0
0, 0
0, 0
0, 0
0, 0
0, 0
0, 0
0, 0
0, 0
0, 0
0, 0
0, 0
0, 0
0, 0
0, 0
0, 0
0, 0
0, 0
0, 0
0, 0
0, 0
0, 0
0, 0
0, 0
0, 0
0, 0
0, 0
0, 0
0, 0
0, 0
0, 0
0, 0
0, 0
0, 0
0, 0
0, 0
0, 0
0, 0
0, 0
0, 0
0, 0
0, 0
0, 0
0, 0
0, 0
0, 0
0, 0
0, 0
0, 0
0, 0
0, 0
0, 0
0, 0
0, 0
0, 0
0, 0
0, 0
0, 0
0, 0
0, 0
0, 0
0, 0
0, 0
0, 0
0, 0
0, 0
0, 0
0, 0
0, 0
0, 0
0, 0
0, 0
0, 0
0, 0
0, 0
0, 0
0, 0
0, 0
0, 0
0, 0
0, 0
0, 0
0, 0
0, 0
0, 0
0, 0
0, 0
0, 0
0, 0
0, 0
0, 0
0, 0
0, 0
0, 0
0, 0
0, 0
0, 0
0, 0
0, 0
0, 0
0, 0
0, 0
0, 0
0, 0
0, 0
0, 0
0, 0
0, 0
0, 0
0, 0
0, 0
0, 0
0, 0
0, 0
0, 0
0, 0
0, 0
0, 0
0, 0
0, 0
0, 0
0, 0
0, 0
0, 0
0, 0
0, 0
0, 0
0, 0
0, 0
0, 0
0, 0
0, 0
0, 0
0, 0
0, 0
0, 0
0, 0
0, 0
0, 0
0, 0
0, 0
0, 0
0, 0
0, 0
0, 0
0, 0
0, 0
0, 0
0, 0
0, 0
0, 0
0, 0
0, 0
0, 0
0, 0
0, 0
0, 0
0, 0
0, 0
0, 0
0, 0
0, 0
0, 0
0, 0
0, 0
0, 0
0, 0
0, 0
0, 0
0, 0
0, 0
0, 0
0, 0
0, 0
0, 0
0, 0
0, 0
0, 0
0, 0
0, 0
0, 0
0, 0
0, 0
0, 0
0, 0
0, 0
0, 0
0, 0
0, 0
0, 0
0, 0
0, 0
0, 0
0, 0
0, 0
0, 0
0, 0
0, 0
0, 0
0, 0
0, 0
0, 0
0, 0
0, 0
0, 0
0, 0
0, 0
0, 0
0, 0
0, 0
0, 0
0, 0
0, 0
0, 0
0, 0
0, 0
0, 0
0, 0
0, 0
0, 0
0, 0
0, 0
0, 0
0, 0
0, 0
0, 0
0, 0
0, 0
0, 0
0, 0
0, 0
0, 0
0, 0
0, 0
#ENDOFDATA     end of spectrum data