File: host_upload/02-11-2024/rqc/uplink1/ps__0567_0717304816_000rfs_shot_308.msa
#FORMAT      : EMSA/MAS spectral data file
#VERSION     : TC202v2.0 PIXL
#TITLE       : Novarupta (sol567) subset1
#DATE        : 02-11-2024      Date in the format DD-MMM-YYYY, for example 07-JUL-2010
#TIME        :             The time of day at which the spectrum was recorded, in 24-hour format
#OWNER       : PIXL Flight Model       (PIXL will use this to indicate which instrument took the data.)
#NPOINTS     : 4096     Number of data points in the spectrum (This can be zero for configuration only files)
#NCOLUMNS    : 2     Number of data columns in the spectrum (This can be zero for configuration only files)
#XUNITS      : eV
#YUNITS      : COUNTS
#DATATYPE    : YY
#XPERCHAN    : 7.862, 7.881   eV per channel (separate by commas if more than one detector)
#OFFSET      : 18.5, -22.4         eV of first channel  (separate by commas if more than one detector
#SIGNALTYPE  : XRF
#YP_TEMP     : 1.402
#LIVETIME    : 8.8474, 8.81348   seconds (separate by commas if more than one detector)
#REALTIME    : 10, 10.0   seconds (separate by commas if more than one detector)
#SPECTRUM    : start of spectrum data
0, 0
0, 0
0, 0
0, 0
0, 0
0, 0
0, 0
0, 0
0, 0
0, 0
0, 0
0, 0
0, 0
0, 0
0, 0
0, 0
0, 0
0, 0
0, 0
0, 0
0, 0
0, 0
0, 0
0, 0
0, 0
0, 0
0, 0
0, 0
0, 0
0, 1
0, 0
0, 0
0, 1
0, 1
0, 0
0, 1
1, 4
3, 3
4, 3
3, 3
6, 6
7, 4
1, 3
2, 8
3, 4
3, 5
3, 1
6, 1
6, 3
10, 6
4, 6
9, 11
11, 18
17, 9
22, 20
14, 16
13, 16
8, 11
11, 13
13, 14
11, 24
24, 26
29, 41
35, 39
53, 63
49, 58
42, 42
36, 37
46, 46
48, 77
80, 128
173, 221
303, 336
381, 442
436, 543
461, 552
393, 441
330, 345
216, 230
145, 117
68, 69
46, 39
25, 32
23, 26
29, 34
29, 31
28, 29
20, 42
26, 38
21, 18
16, 11
22, 25
24, 35
37, 44
78, 76
120, 141
176, 234
242, 288
272, 311
287, 313
259, 267
217, 211
153, 149
101, 89
65, 71
43, 50
45, 65
70, 73
90, 110
128, 147
180, 233
186, 236
232, 259
226, 246
211, 218
154, 178
128, 144
101, 97
81, 83
78, 83
91, 89
80, 85
59, 69
54, 66
54, 48
34, 40
32, 40
21, 26
14, 29
15, 9
9, 8
9, 6
5, 11
5, 10
5, 10
13, 11
14, 12
6, 16
26, 16
15, 22
27, 24
25, 31
23, 25
24, 32
17, 18
11, 15
9, 15
4, 9
11, 16
15, 17
23, 25
34, 62
94, 117
124, 196
186, 230
253, 308
308, 343
331, 384
340, 365
301, 315
208, 232
150, 178
108, 107
55, 55
38, 45
25, 33
22, 27
40, 39
45, 43
53, 57
51, 58
56, 71
40, 58
38, 35
38, 52
28, 36
20, 27
11, 9
14, 10
9, 14
12, 3
9, 10
14, 13
12, 11
8, 9
10, 12
11, 22
19, 32
31, 44
41, 48
36, 50
49, 77
56, 49
74, 77
51, 57
36, 65
30, 37
28, 21
14, 27
17, 16
12, 13
20, 19
14, 6
9, 16
17, 10
12, 18
17, 15
8, 21
16, 18
22, 20
22, 24
23, 19
15, 22
3, 17
14, 19
12, 17
6, 10
10, 12
9, 15
13, 15
12, 12
15, 15
13, 13
13, 11
14, 14
14, 23
19, 26
21, 24
18, 36
28, 37
26, 24
20, 30
29, 30
25, 33
23, 19
15, 15
19, 17
11, 8
12, 13
10, 12
10, 13
11, 13
14, 19
11, 17
11, 14
20, 26
22, 26
24, 45
36, 39
39, 41
52, 60
39, 56
42, 50
43, 37
27, 38
21, 28
24, 20
17, 23
23, 21
16, 17
23, 18
17, 48
30, 50
50, 57
105, 148
211, 273
340, 476
570, 722
823, 1099
1096, 1455
1341, 1658
1561, 1917
1694, 1900
1585, 1702
1415, 1446
1129, 1131
809, 770
568, 551
365, 316
216, 202
123, 105
79, 54
22, 35
13, 12
20, 20
19, 24
12, 21
19, 21
17, 19
17, 19
12, 30
23, 35
30, 42
56, 71
79, 108
109, 153
137, 218
193, 246
223, 258
241, 292
253, 284
216, 240
211, 231
166, 179
143, 148
82, 89
56, 41
26, 25
26, 22
14, 5
13, 4
8, 5
4, 10
6, 5
4, 15
12, 11
12, 11
7, 13
13, 12
11, 16
13, 11
12, 7
10, 12
10, 6
8, 13
4, 10
1, 9
3, 5
5, 6
7, 12
5, 7
9, 3
0, 6
7, 6
4, 8
6, 4
7, 7
5, 10
8, 5
16, 14
3, 6
8, 9
4, 5
9, 6
6, 12
5, 14
6, 5
11, 5
5, 8
9, 2
9, 11
3, 11
11, 10
6, 10
12, 3
7, 7
2, 7
4, 6
13, 4
5, 5
6, 3
7, 9
9, 10
4, 12
11, 6
8, 8
13, 16
15, 6
9, 18
10, 11
8, 11
6, 7
7, 9
7, 7
10, 9
3, 5
11, 5
8, 6
8, 9
8, 8
4, 3
7, 6
6, 7
4, 4
12, 0
8, 8
7, 4
4, 6
7, 8
6, 9
4, 4
5, 4
7, 5
3, 6
6, 8
6, 8
2, 4
6, 6
5, 6
3, 7
9, 6
3, 8
5, 4
7, 4
1, 3
7, 3
4, 5
3, 3
1, 2
8, 8
4, 10
6, 5
2, 3
3, 1
3, 4
3, 4
3, 1
7, 8
6, 12
3, 7
8, 5
3, 7
5, 5
3, 8
4, 3
2, 8
5, 4
4, 7
4, 7
3, 5
4, 4
3, 5
1, 4
5, 6
6, 7
7, 3
3, 4
3, 2
4, 7
2, 4
3, 1
2, 2
2, 5
5, 4
5, 5
4, 2
5, 2
3, 2
1, 5
5, 6
7, 3
2, 6
4, 5
2, 8
3, 6
3, 8
1, 3
1, 5
1, 6
2, 4
8, 0
1, 4
3, 2
3, 5
5, 1
6, 2
1, 2
5, 1
2, 3
1, 4
1, 3
3, 4
3, 3
2, 3
1, 3
2, 6
2, 9
1, 2
5, 3
3, 1
1, 5
1, 2
2, 0
1, 7
4, 3
2, 3
0, 2
4, 5
1, 5
4, 2
3, 3
2, 2
4, 0
2, 3
2, 8
4, 3
2, 2
3, 2
1, 1
4, 3
4, 1
3, 2
3, 2
2, 3
3, 2
0, 2
4, 2
5, 2
3, 3
3, 1
1, 3
4, 4
1, 6
3, 2
1, 0
2, 2
1, 4
1, 1
0, 1
1, 3
0, 2
4, 1
5, 0
1, 4
2, 2
2, 0
3, 0
1, 3
0, 2
2, 1
3, 0
3, 2
2, 0
2, 4
2, 3
4, 1
3, 1
2, 2
2, 4
2, 3
2, 2
1, 4
3, 4
2, 4
5, 3
0, 3
1, 2
2, 3
1, 3
0, 2
0, 3
2, 0
0, 3
1, 0
2, 7
1, 2
2, 0
3, 1
0, 2
0, 3
0, 2
2, 2
1, 0
1, 6
2, 2
3, 1
0, 3
4, 0
2, 0
2, 3
1, 0
1, 2
2, 4
2, 0
0, 1
0, 2
3, 1
0, 0
3, 5
0, 2
0, 2
0, 1
2, 1
2, 0
1, 0
0, 1
0, 3
1, 2
2, 0
1, 3
0, 2
1, 2
0, 0
1, 2
1, 1
2, 1
4, 2
1, 0
1, 2
2, 0
1, 1
2, 2
2, 0
0, 2
1, 0
0, 2
0, 0
0, 1
0, 2
0, 1
0, 2
0, 2
0, 0
1, 2
0, 0
0, 0
0, 1
2, 1
0, 1
0, 1
0, 0
0, 0
1, 1
2, 0
1, 2
0, 1
1, 0
0, 0
0, 0
0, 2
0, 1
0, 2
0, 0
1, 0
0, 0
0, 2
1, 0
0, 0
0, 1
0, 2
0, 2
0, 0
0, 0
1, 3
1, 0
1, 2
0, 1
0, 1
1, 0
1, 2
0, 0
2, 0
1, 2
0, 0
0, 1
0, 1
0, 1
0, 0
0, 0
0, 1
0, 1
2, 1
0, 0
0, 1
0, 1
0, 1
0, 2
1, 0
0, 1
2, 1
0, 0
1, 1
0, 0
2, 1
1, 0
0, 0
1, 1
0, 0
1, 0
0, 0
0, 1
0, 0
0, 0
0, 3
1, 1
0, 0
0, 0
1, 0
0, 0
0, 1
2, 0
0, 0
1, 1
0, 0
0, 0
1, 1
0, 0
0, 1
0, 1
0, 0
1, 0
0, 0
0, 0
0, 0
1, 4
0, 1
0, 0
0, 0
1, 0
0, 0
0, 1
1, 0
1, 1
0, 0
0, 0
1, 0
0, 2
0, 0
0, 0
0, 0
0, 0
0, 1
1, 1
0, 0
0, 0
0, 0
0, 1
0, 0
3, 0
1, 0
0, 1
0, 0
1, 0
0, 0
0, 0
0, 0
0, 0
0, 1
1, 0
0, 2
0, 1
0, 0
0, 0
2, 0
0, 1
0, 0
0, 0
0, 0
0, 1
1, 0
1, 0
0, 0
0, 0
0, 0
2, 0
0, 0
0, 0
1, 0
0, 0
0, 0
0, 0
0, 0
0, 1
0, 0
0, 0
0, 0
0, 0
0, 1
2, 0
0, 1
0, 0
1, 0
0, 1
0, 0
0, 2
0, 1
0, 0
1, 0
1, 0
0, 0
0, 0
0, 1
1, 0
0, 0
1, 0
0, 0
0, 1
0, 2
0, 1
2, 0
0, 0
1, 1
0, 0
0, 0
0, 0
0, 0
0, 0
0, 0
0, 0
0, 0
0, 0
2, 1
0, 0
0, 1
0, 0
0, 0
0, 0
0, 0
0, 0
0, 0
0, 1
0, 0
1, 0
0, 1
0, 0
0, 0
1, 0
2, 0
0, 0
1, 0
0, 0
1, 0
0, 0
0, 0
0, 0
0, 1
0, 0
0, 0
0, 0
1, 0
0, 0
0, 0
0, 0
0, 0
0, 0
0, 1
1, 0
0, 1
0, 0
0, 0
1, 0
0, 0
0, 0
0, 0
0, 1
0, 0
1, 0
0, 0
0, 0
1, 1
0, 0
0, 0
0, 0
0, 0
0, 1
0, 0
0, 0
0, 0
0, 1
0, 0
1, 0
1, 0
1, 1
1, 0
0, 0
0, 0
0, 0
0, 0
0, 0
0, 0
0, 0
1, 0
0, 0
0, 0
0, 0
0, 0
0, 0
0, 0
0, 0
0, 0
0, 0
0, 0
0, 0
0, 0
0, 0
0, 0
0, 0
0, 0
0, 0
0, 0
0, 0
0, 0
0, 0
0, 0
0, 0
0, 0
0, 0
0, 0
0, 0
0, 0
0, 0
0, 0
0, 0
0, 0
0, 0
0, 0
0, 0
0, 0
0, 0
0, 0
0, 0
0, 0
0, 0
0, 0
0, 0
0, 0
0, 0
0, 0
0, 0
0, 0
0, 0
0, 1
0, 0
0, 0
0, 0
0, 0
0, 0
0, 0
0, 0
0, 0
0, 0
0, 0
0, 0
0, 0
1, 0
0, 0
0, 0
0, 0
0, 0
0, 0
0, 0
0, 0
0, 0
0, 0
0, 0
0, 0
0, 0
0, 0
0, 0
0, 0
0, 0
0, 0
0, 0
0, 0
0, 0
0, 0
0, 0
0, 0
1, 0
0, 0
0, 0
0, 0
0, 0
0, 0
0, 0
0, 0
0, 0
0, 0
0, 0
0, 0
0, 0
0, 0
0, 0
0, 0
0, 0
0, 0
0, 0
0, 0
0, 0
0, 0
0, 0
0, 0
0, 0
0, 0
0, 0
0, 0
0, 0
0, 0
0, 0
0, 0
0, 0
0, 0
0, 0
0, 0
0, 0
0, 0
0, 0
0, 0
0, 0
0, 0
1, 0
0, 0
0, 0
0, 0
0, 0
0, 0
0, 0
0, 0
0, 0
0, 0
0, 0
0, 0
0, 0
0, 0
0, 0
0, 0
0, 0
0, 0
0, 0
0, 0
1, 0
0, 0
0, 0
0, 0
0, 0
0, 0
0, 0
0, 0
0, 0
0, 0
0, 0
0, 0
0, 0
0, 0
0, 0
0, 0
0, 0
0, 0
0, 0
0, 0
0, 0
0, 0
0, 0
0, 0
0, 0
0, 0
0, 0
0, 0
0, 0
0, 0
0, 0
0, 0
0, 0
0, 0
0, 0
0, 0
0, 0
0, 0
0, 0
0, 0
0, 0
0, 0
0, 0
0, 0
0, 0
0, 0
0, 0
0, 0
0, 0
0, 0
0, 0
0, 0
0, 0
0, 0
0, 0
0, 0
0, 0
0, 0
0, 0
0, 0
0, 0
0, 0
0, 0
0, 0
0, 0
0, 0
0, 0
0, 0
0, 0
0, 0
0, 0
0, 0
0, 0
0, 0
0, 0
0, 0
0, 0
0, 0
0, 0
0, 0
0, 0
0, 0
0, 0
0, 0
0, 0
0, 0
0, 0
0, 0
0, 0
0, 0
0, 0
0, 0
0, 0
0, 0
0, 0
0, 0
0, 0
0, 0
0, 0
0, 0
0, 0
0, 0
0, 0
0, 0
0, 0
0, 0
0, 0
0, 0
0, 0
0, 0
0, 0
0, 0
0, 0
0, 0
0, 0
0, 0
0, 0
0, 0
0, 0
0, 0
0, 0
0, 0
0, 0
0, 0
0, 0
0, 0
0, 0
0, 0
0, 0
0, 0
0, 0
0, 0
0, 0
0, 0
0, 0
0, 0
0, 0
0, 0
0, 0
0, 0
0, 0
0, 0
0, 0
0, 0
0, 0
0, 0
0, 0
0, 0
0, 0
0, 0
0, 0
0, 0
0, 0
0, 0
0, 0
0, 0
0, 0
0, 0
0, 0
0, 0
0, 0
0, 0
0, 0
0, 0
0, 0
0, 0
0, 0
0, 0
0, 0
0, 0
0, 0
0, 0
0, 0
0, 0
0, 0
0, 0
0, 0
0, 0
0, 0
0, 0
0, 0
0, 0
0, 0
0, 0
0, 0
0, 0
0, 0
0, 0
0, 0
0, 0
0, 0
0, 0
0, 0
0, 0
0, 0
0, 0
0, 0
0, 0
0, 0
0, 0
0, 0
0, 0
0, 0
0, 0
0, 0
0, 0
0, 0
0, 0
0, 0
0, 0
0, 0
0, 0
0, 0
0, 0
0, 0
0, 0
0, 0
0, 0
0, 0
0, 0
0, 0
0, 0
0, 0
0, 0
0, 0
0, 0
0, 0
0, 0
0, 0
0, 0
0, 0
0, 0
0, 0
0, 0
0, 0
0, 0
0, 0
0, 0
0, 0
0, 0
0, 0
0, 0
0, 0
0, 0
0, 0
0, 0
0, 0
0, 0
0, 0
0, 0
0, 0
0, 0
0, 0
0, 0
0, 0
0, 0
0, 0
0, 0
0, 0
0, 0
0, 0
0, 0
0, 0
0, 0
0, 0
0, 0
0, 0
0, 0
0, 0
0, 0
0, 0
0, 0
0, 0
0, 0
0, 0
0, 0
0, 0
0, 0
0, 0
0, 0
0, 0
0, 0
0, 0
0, 0
0, 0
0, 0
0, 0
0, 0
0, 0
0, 0
0, 0
0, 0
0, 0
0, 0
0, 0
0, 0
0, 0
0, 0
0, 0
0, 0
0, 0
0, 0
0, 0
0, 0
0, 0
0, 0
0, 0
0, 0
0, 0
0, 0
0, 0
0, 0
0, 0
0, 0
0, 0
0, 0
0, 0
0, 0
0, 0
0, 0
0, 0
0, 0
0, 0
0, 0
0, 0
0, 0
0, 0
0, 0
0, 0
0, 0
0, 0
0, 0
0, 0
0, 0
0, 0
0, 0
0, 0
0, 0
0, 0
0, 0
0, 0
0, 0
0, 0
0, 0
0, 0
0, 0
#ENDOFDATA     end of spectrum data