File: host_upload/02-11-2024/rqc/uplink1/ps__0567_0717304816_000rfs_shot_128.msa
#FORMAT      : EMSA/MAS spectral data file
#VERSION     : TC202v2.0 PIXL
#TITLE       : Novarupta (sol567) subset1
#DATE        : 02-11-2024      Date in the format DD-MMM-YYYY, for example 07-JUL-2010
#TIME        :             The time of day at which the spectrum was recorded, in 24-hour format
#OWNER       : PIXL Flight Model       (PIXL will use this to indicate which instrument took the data.)
#NPOINTS     : 4096     Number of data points in the spectrum (This can be zero for configuration only files)
#NCOLUMNS    : 2     Number of data columns in the spectrum (This can be zero for configuration only files)
#XUNITS      : eV
#YUNITS      : COUNTS
#DATATYPE    : YY
#XPERCHAN    : 7.862, 7.881   eV per channel (separate by commas if more than one detector)
#OFFSET      : 18.5, -22.4         eV of first channel  (separate by commas if more than one detector
#SIGNALTYPE  : XRF
#YP_TEMP     : -0.459
#LIVETIME    : 8.84066, 8.81151   seconds (separate by commas if more than one detector)
#REALTIME    : 10, 10.0   seconds (separate by commas if more than one detector)
#SPECTRUM    : start of spectrum data
0, 0
0, 0
0, 0
0, 0
0, 0
0, 0
0, 0
0, 0
0, 0
0, 0
0, 0
0, 0
0, 0
0, 0
0, 0
0, 0
0, 0
0, 0
0, 0
0, 0
0, 0
0, 0
0, 0
0, 0
0, 0
0, 0
0, 0
0, 0
0, 0
0, 0
1, 0
0, 0
1, 0
1, 0
2, 1
1, 4
0, 5
2, 5
3, 1
5, 3
3, 1
2, 1
2, 5
2, 2
2, 3
6, 3
2, 3
2, 6
5, 5
2, 10
3, 6
8, 11
14, 14
18, 15
11, 15
12, 13
9, 6
12, 12
11, 12
11, 15
25, 20
28, 36
33, 46
43, 54
36, 52
34, 44
38, 50
35, 40
30, 47
61, 73
119, 139
160, 241
293, 366
353, 455
413, 573
440, 563
402, 442
281, 360
196, 229
126, 157
63, 83
46, 60
43, 53
29, 28
13, 38
38, 43
32, 33
28, 31
26, 26
24, 23
14, 27
12, 19
31, 24
45, 65
82, 110
123, 180
206, 266
258, 296
261, 343
289, 304
250, 263
196, 241
141, 159
87, 102
60, 72
50, 48
49, 75
62, 82
96, 96
110, 144
142, 197
167, 222
201, 245
194, 245
175, 206
137, 162
133, 154
106, 110
91, 94
60, 75
77, 88
78, 62
58, 55
50, 59
45, 48
39, 37
22, 32
16, 15
14, 16
13, 11
10, 10
5, 11
8, 10
6, 4
6, 8
3, 9
9, 17
18, 13
17, 20
12, 26
28, 25
38, 31
26, 28
28, 22
16, 35
19, 16
15, 14
12, 12
10, 10
20, 23
23, 38
52, 68
76, 125
133, 192
202, 271
271, 323
319, 402
379, 457
290, 407
282, 334
220, 241
165, 138
80, 110
59, 57
34, 48
15, 27
19, 33
34, 37
34, 56
45, 74
43, 63
51, 65
50, 56
53, 52
22, 49
23, 36
14, 19
13, 12
13, 9
6, 7
5, 10
10, 10
12, 10
9, 9
12, 7
13, 10
17, 24
24, 25
23, 41
39, 64
55, 69
51, 60
55, 71
58, 66
49, 60
36, 50
22, 33
36, 27
23, 16
13, 10
18, 9
10, 15
13, 14
9, 13
13, 12
15, 15
14, 11
11, 26
8, 20
14, 19
26, 16
15, 11
14, 23
20, 13
17, 18
8, 12
15, 18
12, 15
9, 15
14, 12
18, 12
7, 14
16, 11
14, 7
6, 13
19, 23
27, 25
22, 29
25, 31
24, 31
25, 36
28, 25
21, 20
19, 27
18, 18
18, 15
22, 15
8, 13
18, 14
13, 12
7, 11
10, 15
13, 9
19, 16
18, 12
26, 21
31, 32
37, 39
38, 39
27, 49
50, 49
45, 55
56, 57
41, 42
24, 34
29, 28
18, 20
28, 19
16, 24
17, 19
19, 39
26, 44
47, 66
77, 98
139, 187
243, 341
391, 540
629, 816
856, 1093
1115, 1515
1352, 1719
1545, 1981
1613, 1866
1397, 1752
1295, 1501
1058, 1120
744, 768
470, 519
303, 297
189, 177
123, 87
56, 48
35, 38
16, 21
20, 17
17, 15
18, 14
14, 17
20, 15
16, 31
21, 35
35, 47
44, 57
62, 87
93, 110
97, 141
180, 200
200, 232
257, 300
229, 285
255, 232
226, 233
199, 196
160, 177
102, 120
90, 79
53, 44
33, 21
20, 22
10, 13
6, 10
6, 14
5, 7
4, 12
9, 8
14, 14
13, 16
19, 11
9, 19
9, 9
5, 11
7, 5
10, 6
12, 16
8, 6
5, 6
6, 8
5, 3
2, 7
2, 11
7, 8
4, 3
6, 4
10, 11
7, 9
6, 6
6, 3
6, 4
7, 5
6, 7
2, 9
11, 13
8, 11
5, 11
5, 7
4, 8
6, 5
5, 5
7, 11
8, 13
9, 8
6, 7
9, 8
5, 9
6, 4
4, 8
7, 9
4, 11
3, 8
10, 6
6, 7
6, 5
6, 9
5, 5
8, 15
9, 10
11, 11
10, 10
8, 14
10, 9
10, 12
7, 7
10, 9
4, 5
6, 6
7, 5
4, 10
2, 8
4, 7
3, 4
6, 5
4, 10
5, 3
3, 4
3, 9
2, 8
5, 6
7, 8
7, 5
5, 3
8, 1
10, 5
4, 8
2, 6
6, 8
5, 10
6, 8
4, 7
3, 6
5, 5
3, 7
5, 7
2, 6
7, 1
9, 4
3, 5
4, 7
7, 6
3, 7
2, 3
5, 7
6, 5
5, 4
5, 6
3, 4
4, 5
2, 5
1, 7
5, 8
1, 8
8, 5
3, 2
6, 6
6, 5
5, 5
6, 1
5, 4
2, 7
2, 2
2, 4
3, 5
4, 3
5, 3
4, 7
2, 5
5, 1
5, 1
6, 8
2, 3
7, 6
3, 6
1, 2
6, 5
3, 5
3, 5
9, 2
1, 3
3, 2
1, 2
3, 7
6, 6
4, 1
7, 4
3, 6
3, 1
2, 6
2, 0
2, 2
1, 4
6, 3
6, 4
2, 1
2, 3
4, 1
3, 7
3, 2
3, 5
1, 4
3, 2
2, 5
5, 2
5, 2
2, 3
1, 3
4, 4
4, 6
1, 6
1, 2
1, 3
3, 3
1, 2
3, 5
2, 4
4, 0
3, 2
0, 5
4, 0
1, 4
1, 5
2, 1
3, 2
3, 1
4, 5
2, 0
4, 1
3, 1
4, 3
0, 2
1, 3
5, 2
2, 2
3, 3
2, 4
2, 1
4, 3
2, 3
4, 3
4, 4
6, 1
3, 7
0, 2
2, 1
0, 4
2, 3
0, 1
0, 4
5, 3
1, 2
3, 2
1, 2
0, 2
2, 2
1, 5
3, 0
2, 3
2, 1
5, 2
2, 1
1, 1
1, 0
3, 3
1, 2
5, 2
2, 2
4, 2
2, 7
2, 0
1, 4
2, 5
1, 5
3, 2
4, 4
3, 3
0, 4
1, 1
6, 3
3, 6
2, 2
3, 1
2, 2
1, 2
3, 1
2, 2
3, 2
0, 3
2, 2
3, 2
2, 4
4, 2
1, 3
0, 3
2, 2
1, 1
2, 1
1, 1
2, 2
1, 1
1, 0
2, 2
1, 0
5, 0
3, 4
5, 2
3, 2
1, 1
1, 1
2, 0
0, 1
1, 1
0, 1
0, 2
0, 2
2, 0
1, 0
1, 1
2, 2
3, 1
2, 1
0, 3
0, 0
1, 2
1, 2
2, 1
3, 3
2, 0
2, 1
1, 1
1, 0
1, 0
0, 4
2, 1
1, 1
2, 2
1, 0
1, 0
0, 0
0, 2
0, 3
0, 2
0, 0
0, 5
0, 1
0, 0
1, 0
1, 0
0, 1
2, 2
2, 0
1, 1
0, 1
1, 1
0, 2
1, 0
0, 2
0, 1
0, 1
0, 0
1, 0
0, 0
0, 1
0, 0
1, 0
0, 0
0, 0
0, 1
3, 1
1, 0
1, 3
0, 0
2, 1
0, 0
0, 2
0, 0
0, 1
2, 0
1, 1
0, 2
0, 0
2, 1
0, 0
1, 0
0, 0
1, 3
0, 0
0, 1
1, 0
0, 1
1, 0
1, 1
0, 2
0, 0
1, 0
0, 0
0, 0
1, 0
0, 1
1, 2
0, 0
0, 1
0, 0
1, 2
0, 0
2, 0
1, 0
1, 1
1, 3
0, 0
0, 0
1, 1
0, 2
0, 0
0, 0
1, 0
0, 0
0, 0
0, 1
0, 0
0, 1
1, 0
0, 0
0, 0
0, 1
1, 0
0, 1
1, 2
0, 0
0, 1
0, 1
2, 1
0, 1
0, 0
1, 1
1, 0
0, 0
0, 1
0, 1
0, 1
0, 0
1, 2
0, 0
0, 1
1, 1
0, 1
1, 0
1, 0
0, 0
1, 0
1, 0
0, 0
0, 0
1, 1
0, 0
1, 0
0, 0
0, 0
1, 1
2, 0
2, 0
0, 0
0, 1
0, 0
0, 0
0, 0
0, 0
0, 0
0, 0
0, 0
0, 1
0, 0
0, 0
0, 0
0, 1
1, 1
0, 0
1, 1
0, 0
0, 0
0, 0
0, 0
0, 0
0, 0
0, 0
0, 2
0, 0
0, 0
0, 0
1, 0
0, 0
2, 0
0, 0
0, 0
0, 0
0, 0
0, 0
1, 0
0, 0
0, 1
0, 0
0, 0
0, 1
0, 0
0, 0
0, 0
0, 0
1, 0
0, 0
0, 0
0, 0
0, 1
0, 1
1, 0
0, 0
0, 0
0, 0
0, 0
0, 0
0, 0
0, 1
1, 0
0, 0
1, 0
0, 0
0, 0
0, 0
0, 0
0, 0
0, 0
0, 0
0, 0
0, 0
0, 0
1, 0
1, 0
0, 2
0, 0
1, 0
1, 0
0, 1
0, 0
1, 0
0, 0
0, 0
0, 0
0, 0
0, 0
0, 0
0, 0
0, 0
2, 0
0, 0
0, 0
0, 0
0, 0
0, 0
0, 0
0, 0
0, 0
0, 1
0, 0
1, 0
1, 1
0, 0
0, 0
0, 0
1, 0
0, 0
1, 0
0, 0
0, 0
0, 0
1, 0
0, 0
1, 1
0, 0
0, 0
0, 0
0, 0
1, 0
0, 0
0, 0
0, 0
0, 0
0, 0
0, 0
0, 0
0, 0
0, 0
0, 0
0, 0
0, 0
0, 1
0, 0
0, 0
0, 0
0, 1
0, 0
0, 0
0, 0
0, 0
0, 1
0, 0
0, 0
0, 0
0, 0
1, 0
0, 0
0, 0
0, 0
0, 0
0, 0
0, 0
0, 0
0, 0
0, 0
0, 0
0, 0
0, 0
0, 0
0, 0
0, 0
0, 0
0, 0
0, 0
0, 0
0, 0
0, 0
0, 0
0, 0
0, 0
0, 0
0, 0
0, 0
0, 0
0, 0
0, 0
0, 0
0, 0
0, 1
0, 0
1, 1
0, 0
0, 0
0, 0
0, 0
0, 0
0, 0
0, 0
0, 0
0, 0
0, 0
0, 0
0, 0
0, 0
1, 1
1, 0
0, 0
0, 0
0, 0
0, 0
0, 0
0, 0
0, 0
0, 0
0, 0
0, 0
0, 0
0, 1
0, 0
0, 0
0, 0
0, 0
0, 0
0, 0
0, 0
0, 0
0, 0
0, 0
1, 1
0, 0
0, 0
0, 0
1, 0
0, 0
0, 1
0, 0
0, 0
0, 0
0, 0
0, 0
0, 0
0, 0
0, 0
0, 0
0, 0
0, 0
0, 0
0, 0
0, 0
0, 0
0, 0
0, 0
0, 0
0, 0
0, 0
0, 0
0, 0
0, 0
0, 0
0, 0
0, 0
0, 0
0, 0
0, 0
0, 0
0, 0
0, 0
0, 0
0, 0
0, 0
1, 0
0, 0
0, 0
0, 0
0, 0
0, 0
0, 0
0, 0
0, 0
0, 0
0, 0
0, 0
0, 0
0, 0
0, 0
0, 0
0, 0
1, 0
0, 0
0, 0
0, 0
0, 0
0, 0
0, 0
0, 0
0, 1
0, 0
0, 0
0, 0
0, 0
0, 0
0, 0
0, 0
0, 0
0, 0
0, 0
0, 0
0, 0
0, 0
0, 0
0, 0
0, 0
0, 0
0, 0
0, 0
0, 0
0, 0
0, 0
0, 0
0, 0
0, 0
0, 0
0, 0
0, 0
0, 0
0, 0
0, 0
0, 0
0, 0
0, 0
0, 0
0, 0
0, 0
0, 0
0, 0
0, 0
0, 0
0, 0
0, 0
0, 0
0, 0
0, 0
0, 0
0, 0
0, 0
0, 0
0, 0
0, 0
0, 0
0, 0
0, 0
0, 0
0, 0
0, 0
0, 0
0, 0
0, 0
0, 0
0, 0
0, 0
0, 0
0, 0
0, 0
0, 0
0, 0
0, 0
0, 0
0, 0
0, 0
0, 0
0, 0
0, 0
0, 0
0, 0
0, 0
0, 1
0, 0
0, 0
0, 0
0, 0
0, 0
0, 0
0, 0
0, 0
0, 0
0, 0
0, 0
0, 0
0, 0
0, 0
0, 0
0, 0
0, 0
0, 0
0, 0
0, 0
0, 0
0, 0
0, 0
0, 1
0, 0
0, 0
0, 0
0, 0
0, 0
0, 0
0, 0
0, 0
0, 0
0, 0
0, 0
0, 0
0, 0
0, 0
0, 0
0, 0
0, 0
0, 0
0, 0
0, 0
0, 0
0, 0
0, 0
0, 0
0, 0
0, 0
0, 0
0, 0
0, 0
0, 0
0, 0
0, 0
0, 0
0, 0
0, 0
0, 0
0, 0
0, 0
0, 0
0, 0
0, 0
0, 0
0, 0
0, 0
0, 0
0, 0
0, 0
0, 0
0, 0
0, 0
0, 0
0, 0
0, 0
0, 0
0, 0
0, 0
0, 0
0, 0
0, 0
0, 0
0, 0
0, 0
0, 0
0, 0
0, 0
0, 0
0, 0
0, 0
0, 0
0, 0
0, 0
0, 0
0, 0
0, 0
0, 0
0, 0
0, 0
0, 0
0, 0
0, 0
0, 0
0, 0
0, 0
0, 0
0, 0
0, 0
0, 0
0, 0
0, 0
0, 0
0, 0
0, 0
0, 0
0, 0
0, 0
0, 0
0, 0
0, 0
0, 0
0, 0
0, 0
0, 0
0, 0
0, 0
0, 0
0, 0
0, 0
0, 0
0, 0
0, 0
0, 0
0, 0
0, 0
0, 0
0, 0
0, 0
0, 0
0, 0
0, 0
0, 0
0, 0
0, 0
0, 0
0, 0
0, 0
0, 0
0, 0
0, 0
0, 0
0, 0
0, 0
0, 0
0, 0
0, 0
0, 0
0, 0
0, 0
0, 0
0, 0
0, 0
0, 0
0, 0
0, 0
0, 0
0, 0
0, 0
0, 0
0, 0
0, 0
0, 0
0, 0
0, 0
0, 0
0, 0
0, 0
0, 0
0, 0
0, 0
0, 0
0, 0
0, 0
0, 0
0, 0
0, 0
0, 0
0, 0
0, 0
0, 0
0, 0
0, 0
0, 0
0, 0
0, 0
0, 0
0, 0
0, 0
0, 0
0, 0
0, 0
0, 0
0, 0
0, 0
0, 0
0, 0
0, 0
0, 0
0, 0
0, 0
0, 0
0, 0
0, 0
0, 0
0, 0
0, 0
0, 0
0, 0
0, 0
0, 0
0, 0
0, 0
0, 0
0, 0
0, 0
0, 0
0, 0
0, 0
0, 0
0, 0
0, 0
0, 0
0, 0
0, 0
0, 0
0, 0
0, 0
0, 0
0, 0
0, 0
0, 0
0, 0
0, 0
0, 0
0, 0
0, 0
0, 0
0, 0
0, 0
0, 0
0, 0
0, 0
0, 0
0, 0
0, 0
0, 0
0, 0
0, 0
0, 0
0, 0
0, 0
0, 0
0, 0
0, 0
0, 0
0, 0
0, 0
0, 0
0, 0
#ENDOFDATA     end of spectrum data