File: host_upload/02-11-2024/rqc/uplink1/ps__0567_0717304816_000rfs_shot_262.msa
#FORMAT      : EMSA/MAS spectral data file
#VERSION     : TC202v2.0 PIXL
#TITLE       : Novarupta (sol567) subset1
#DATE        : 02-11-2024      Date in the format DD-MMM-YYYY, for example 07-JUL-2010
#TIME        :             The time of day at which the spectrum was recorded, in 24-hour format
#OWNER       : PIXL Flight Model       (PIXL will use this to indicate which instrument took the data.)
#NPOINTS     : 4096     Number of data points in the spectrum (This can be zero for configuration only files)
#NCOLUMNS    : 2     Number of data columns in the spectrum (This can be zero for configuration only files)
#XUNITS      : eV
#YUNITS      : COUNTS
#DATATYPE    : YY
#XPERCHAN    : 7.862, 7.881   eV per channel (separate by commas if more than one detector)
#OFFSET      : 18.5, -22.4         eV of first channel  (separate by commas if more than one detector
#SIGNALTYPE  : XRF
#YP_TEMP     : 1.209
#LIVETIME    : 8.83874, 8.81379   seconds (separate by commas if more than one detector)
#REALTIME    : 10, 10.0   seconds (separate by commas if more than one detector)
#SPECTRUM    : start of spectrum data
0, 0
0, 0
0, 0
0, 0
0, 0
0, 0
0, 0
0, 0
0, 0
0, 0
0, 0
0, 0
0, 0
0, 0
0, 0
0, 0
0, 0
0, 0
0, 0
0, 0
0, 0
0, 0
0, 0
0, 0
0, 0
0, 0
0, 0
0, 0
0, 0
0, 0
0, 0
0, 1
1, 1
1, 0
1, 5
2, 0
2, 4
3, 2
1, 2
2, 3
1, 2
4, 4
2, 3
2, 4
1, 3
3, 4
3, 5
1, 2
5, 4
9, 4
5, 6
2, 9
11, 13
17, 15
17, 13
21, 23
13, 11
13, 11
5, 18
10, 10
8, 13
18, 29
23, 33
39, 47
44, 47
38, 62
40, 55
32, 28
49, 38
56, 68
107, 130
169, 240
266, 373
383, 505
494, 570
444, 573
389, 477
310, 351
219, 239
144, 151
77, 81
50, 54
28, 39
27, 28
22, 31
36, 25
28, 26
34, 26
24, 25
20, 17
22, 24
12, 13
27, 21
43, 44
87, 75
113, 132
163, 215
225, 267
262, 290
280, 295
249, 241
193, 195
140, 134
86, 94
56, 59
38, 65
60, 69
69, 66
94, 100
129, 142
162, 202
194, 233
216, 251
197, 248
190, 223
171, 174
127, 139
101, 118
86, 91
95, 66
82, 84
79, 70
72, 63
52, 55
48, 39
34, 45
33, 27
22, 27
15, 23
11, 14
12, 12
8, 13
7, 7
13, 3
9, 7
7, 8
14, 12
9, 11
12, 24
21, 15
25, 28
24, 26
22, 25
28, 18
22, 20
12, 14
14, 10
7, 8
11, 18
14, 16
19, 31
42, 63
75, 100
134, 183
210, 286
257, 325
325, 424
369, 440
313, 388
276, 363
253, 284
155, 169
78, 88
65, 51
40, 38
22, 31
21, 29
36, 44
39, 61
42, 65
43, 50
56, 59
60, 60
39, 47
35, 41
32, 30
21, 22
12, 19
8, 9
4, 9
2, 7
3, 10
6, 8
11, 14
11, 6
18, 15
18, 18
21, 27
32, 41
41, 38
39, 80
46, 65
63, 65
68, 66
48, 70
21, 38
38, 33
25, 24
25, 25
15, 24
20, 17
10, 8
19, 19
10, 15
15, 12
8, 14
17, 12
12, 13
19, 21
19, 18
17, 28
25, 18
22, 15
7, 16
15, 12
11, 16
7, 12
12, 12
11, 6
12, 12
9, 20
10, 11
11, 12
12, 13
16, 15
8, 17
19, 32
17, 38
28, 27
31, 36
33, 35
30, 39
24, 34
20, 35
17, 26
21, 29
17, 19
6, 13
14, 10
12, 8
7, 18
14, 15
10, 16
11, 19
18, 21
19, 25
23, 29
37, 36
35, 49
51, 52
42, 64
46, 62
36, 59
37, 56
40, 27
29, 23
31, 30
22, 17
22, 26
17, 30
19, 22
25, 34
44, 54
75, 85
136, 155
203, 289
334, 480
577, 761
849, 1109
1088, 1390
1430, 1724
1658, 1967
1618, 2028
1630, 1760
1336, 1556
1113, 1154
840, 804
586, 574
364, 306
223, 203
142, 89
57, 45
43, 22
20, 23
19, 18
14, 20
18, 24
14, 23
13, 18
22, 11
23, 24
29, 35
41, 64
63, 65
86, 93
111, 147
131, 226
173, 242
213, 291
253, 316
250, 300
249, 258
214, 233
168, 178
129, 108
82, 80
57, 45
33, 32
20, 31
16, 9
9, 8
8, 6
8, 8
14, 5
12, 6
11, 9
5, 15
9, 17
10, 3
8, 8
6, 7
11, 6
6, 7
9, 5
8, 13
6, 10
6, 5
5, 9
8, 3
5, 3
7, 4
6, 7
1, 7
4, 8
4, 3
9, 7
4, 8
2, 7
6, 7
7, 8
12, 5
7, 9
4, 7
10, 14
6, 5
4, 10
6, 13
9, 11
5, 8
11, 7
5, 5
13, 4
4, 10
6, 8
3, 4
5, 7
3, 5
4, 9
9, 8
6, 8
8, 5
8, 9
7, 6
7, 6
10, 9
5, 11
18, 11
14, 14
8, 8
14, 11
5, 15
11, 6
13, 12
5, 5
5, 13
5, 6
8, 5
5, 4
1, 2
4, 4
4, 5
5, 11
6, 7
4, 6
3, 8
4, 5
7, 5
4, 5
6, 7
4, 6
6, 3
7, 3
4, 6
5, 3
2, 3
8, 9
2, 12
6, 1
6, 5
3, 5
4, 3
7, 9
8, 7
6, 5
4, 9
4, 8
5, 1
5, 7
4, 6
2, 4
6, 5
6, 1
9, 4
3, 4
4, 4
10, 2
6, 5
5, 5
2, 5
3, 9
2, 3
5, 6
5, 4
2, 3
5, 4
2, 5
3, 5
5, 5
3, 6
4, 6
3, 7
5, 7
2, 3
6, 3
6, 1
7, 4
5, 8
1, 5
4, 4
4, 2
3, 8
6, 1
3, 7
3, 8
4, 4
2, 4
2, 3
1, 5
4, 7
2, 2
1, 7
3, 3
2, 4
1, 6
1, 5
3, 7
1, 2
5, 1
4, 5
3, 3
2, 3
2, 1
4, 3
3, 2
2, 2
4, 5
3, 7
2, 5
5, 4
0, 3
2, 10
5, 2
1, 4
3, 4
5, 5
3, 4
4, 5
3, 4
1, 5
6, 3
4, 1
3, 3
4, 2
3, 5
1, 3
4, 4
6, 1
2, 3
1, 3
1, 2
2, 1
2, 3
4, 5
1, 3
2, 1
0, 1
2, 1
2, 4
2, 1
3, 5
0, 5
0, 1
3, 4
1, 5
1, 1
2, 0
4, 2
1, 2
3, 1
3, 0
2, 2
1, 5
4, 3
5, 4
2, 1
0, 2
0, 5
0, 1
1, 6
2, 0
2, 3
1, 2
0, 2
2, 1
0, 3
1, 0
2, 2
2, 0
3, 3
2, 1
3, 4
1, 1
2, 3
2, 3
2, 4
1, 5
4, 0
1, 5
3, 4
2, 0
5, 5
3, 3
2, 4
2, 4
2, 6
0, 0
2, 2
2, 0
1, 2
1, 3
2, 2
1, 5
1, 0
4, 4
1, 4
2, 0
3, 0
1, 3
1, 0
2, 0
0, 2
0, 3
0, 2
2, 3
2, 1
1, 1
1, 5
1, 1
1, 1
2, 4
1, 1
0, 0
2, 5
3, 0
5, 0
1, 1
1, 2
1, 1
0, 2
2, 0
1, 1
1, 2
1, 0
0, 2
0, 0
0, 2
1, 0
0, 2
3, 0
0, 0
1, 1
2, 3
1, 2
0, 1
3, 3
2, 2
0, 2
0, 0
1, 2
0, 2
0, 1
1, 0
0, 1
0, 1
0, 2
2, 1
1, 3
2, 3
1, 0
3, 1
1, 1
0, 0
0, 0
1, 1
1, 1
0, 0
1, 1
0, 0
0, 0
1, 0
0, 2
0, 0
1, 0
2, 2
0, 0
0, 0
1, 1
0, 0
0, 1
2, 1
2, 0
0, 1
2, 0
1, 1
2, 3
1, 0
1, 1
0, 1
1, 1
1, 2
0, 0
0, 1
0, 0
1, 0
0, 0
0, 0
0, 1
0, 1
1, 0
2, 0
0, 0
0, 0
0, 0
0, 0
1, 0
0, 0
0, 2
1, 0
0, 0
0, 0
1, 3
0, 0
0, 0
0, 2
1, 0
0, 0
0, 0
1, 0
1, 0
0, 1
1, 0
0, 0
0, 1
0, 0
0, 0
0, 0
0, 2
0, 0
1, 0
0, 0
1, 0
0, 0
0, 1
1, 1
2, 2
0, 1
0, 0
0, 0
0, 0
1, 0
0, 0
0, 0
0, 3
0, 1
0, 0
0, 0
0, 1
0, 1
0, 0
0, 1
0, 1
0, 1
0, 1
0, 1
1, 0
1, 1
0, 0
0, 0
0, 0
2, 1
0, 0
0, 1
0, 0
0, 0
2, 0
0, 1
0, 0
1, 1
0, 2
0, 0
0, 0
0, 0
1, 0
0, 0
0, 1
0, 0
0, 0
0, 1
0, 0
0, 0
0, 0
0, 0
1, 0
0, 0
0, 1
1, 2
1, 0
0, 0
0, 1
1, 0
0, 0
0, 1
0, 0
1, 0
1, 0
0, 0
0, 0
1, 0
0, 0
0, 0
0, 0
0, 0
0, 0
1, 0
0, 0
0, 0
1, 1
0, 0
1, 0
0, 0
0, 0
0, 2
0, 0
0, 0
1, 0
0, 1
0, 0
0, 1
0, 0
1, 0
2, 0
1, 1
1, 0
0, 0
1, 0
0, 0
0, 0
0, 0
0, 0
1, 1
1, 0
2, 0
0, 0
1, 1
0, 1
0, 0
0, 1
1, 1
0, 0
1, 0
0, 2
1, 1
0, 0
1, 0
0, 0
1, 0
1, 0
0, 0
0, 1
0, 0
1, 0
0, 0
1, 0
1, 0
0, 0
0, 0
0, 1
0, 1
0, 0
0, 0
0, 0
0, 2
0, 0
0, 0
1, 0
0, 0
0, 0
1, 0
0, 0
0, 0
0, 0
0, 0
0, 1
0, 0
0, 0
0, 0
0, 2
0, 0
0, 0
0, 0
0, 0
0, 0
0, 0
0, 1
0, 0
0, 0
0, 0
0, 0
0, 1
0, 0
0, 0
0, 0
0, 0
0, 0
0, 0
0, 0
1, 0
0, 0
0, 0
0, 0
0, 0
0, 0
0, 1
0, 0
0, 1
0, 0
1, 0
0, 1
0, 0
0, 0
1, 0
0, 0
0, 0
0, 1
0, 0
0, 0
0, 0
0, 0
0, 0
0, 1
0, 0
0, 0
0, 0
0, 0
0, 0
0, 0
0, 0
0, 0
0, 0
0, 0
0, 1
0, 0
0, 0
0, 0
0, 0
0, 0
0, 0
0, 1
0, 1
0, 0
0, 0
0, 0
0, 0
0, 0
0, 0
0, 0
0, 0
0, 0
1, 0
0, 0
0, 0
0, 0
0, 0
0, 0
0, 0
0, 0
0, 0
0, 0
0, 0
0, 0
0, 0
0, 0
0, 0
0, 0
0, 0
0, 0
0, 0
0, 0
0, 0
0, 2
0, 0
0, 0
0, 0
0, 0
0, 0
0, 0
0, 0
0, 0
0, 0
0, 0
0, 0
0, 0
0, 0
0, 0
0, 0
0, 0
0, 0
0, 0
0, 0
0, 1
0, 0
0, 0
0, 0
0, 0
0, 0
0, 0
0, 0
0, 0
0, 0
0, 0
0, 0
0, 0
0, 0
0, 1
0, 0
0, 0
0, 0
0, 0
0, 0
0, 0
0, 0
0, 0
0, 0
0, 0
0, 1
0, 0
0, 1
0, 1
0, 0
0, 0
0, 0
0, 0
0, 0
0, 0
0, 0
0, 0
0, 0
0, 0
0, 0
0, 0
0, 0
0, 1
0, 0
0, 0
0, 0
0, 0
0, 0
0, 0
0, 0
0, 0
0, 0
0, 0
0, 0
0, 0
0, 0
0, 0
0, 0
0, 0
0, 0
0, 0
0, 0
1, 0
0, 0
0, 0
0, 0
0, 0
0, 0
0, 0
0, 0
0, 0
0, 0
0, 0
0, 0
0, 0
0, 0
0, 0
0, 0
0, 0
0, 0
0, 0
0, 0
0, 0
0, 0
0, 0
0, 0
0, 0
0, 0
0, 0
0, 0
0, 0
0, 0
0, 0
0, 0
0, 0
0, 0
0, 0
0, 0
0, 0
0, 0
0, 0
0, 0
0, 0
0, 0
0, 0
0, 0
0, 0
0, 0
0, 0
0, 0
0, 0
0, 0
0, 1
0, 0
0, 0
0, 0
0, 0
0, 0
0, 0
0, 0
0, 0
0, 0
0, 0
0, 0
0, 0
0, 0
0, 0
0, 0
0, 0
0, 0
0, 0
0, 0
0, 0
0, 0
0, 0
0, 0
0, 0
0, 0
0, 0
0, 0
0, 0
0, 0
0, 0
0, 0
0, 0
0, 0
0, 0
0, 0
0, 0
0, 0
0, 0
0, 0
0, 0
0, 0
0, 0
0, 0
0, 0
0, 0
0, 0
0, 0
0, 0
0, 0
0, 0
0, 0
0, 0
0, 0
0, 0
0, 0
0, 0
0, 0
0, 0
0, 0
0, 0
0, 0
0, 0
0, 0
0, 0
0, 0
0, 0
0, 0
0, 0
0, 0
0, 0
0, 0
0, 0
0, 0
0, 1
0, 0
0, 0
0, 0
0, 0
0, 0
0, 0
0, 0
0, 0
0, 0
0, 0
0, 0
0, 0
0, 0
0, 0
0, 0
0, 0
0, 0
0, 0
0, 0
0, 0
0, 0
0, 0
0, 0
0, 0
0, 0
0, 0
0, 0
0, 0
0, 0
0, 0
0, 0
0, 0
0, 0
0, 0
0, 0
0, 0
0, 0
0, 0
0, 0
0, 0
0, 0
0, 0
0, 0
0, 0
0, 0
0, 0
0, 0
0, 0
0, 0
0, 0
0, 0
0, 0
0, 0
0, 0
0, 0
0, 0
0, 0
0, 0
0, 0
0, 0
0, 0
0, 0
0, 0
0, 0
0, 0
0, 0
0, 0
0, 0
0, 0
0, 0
0, 0
0, 0
0, 0
0, 0
0, 0
0, 0
0, 0
0, 0
0, 0
0, 0
0, 0
0, 0
0, 0
0, 0
0, 0
0, 0
0, 0
0, 0
0, 0
0, 0
0, 0
0, 0
0, 0
0, 0
0, 0
0, 0
0, 0
0, 0
0, 0
0, 0
0, 0
0, 0
0, 0
0, 0
0, 0
0, 0
0, 0
0, 0
0, 0
0, 0
0, 0
0, 0
0, 0
0, 0
0, 0
0, 0
0, 0
0, 0
0, 0
0, 0
0, 0
0, 0
0, 0
0, 0
0, 0
0, 0
0, 0
0, 0
0, 0
0, 0
0, 0
0, 0
0, 0
0, 0
0, 0
0, 0
0, 0
0, 0
0, 0
0, 0
0, 0
0, 0
0, 0
0, 0
0, 0
0, 0
0, 0
0, 0
0, 0
0, 0
0, 0
0, 0
0, 0
0, 0
0, 0
0, 0
0, 0
0, 0
0, 0
0, 0
0, 0
0, 0
0, 0
0, 0
0, 0
0, 0
0, 0
0, 0
0, 0
0, 0
0, 0
0, 0
0, 0
0, 0
0, 0
0, 0
0, 0
0, 0
0, 0
0, 0
0, 0
0, 0
0, 0
0, 0
0, 0
0, 0
0, 0
0, 0
0, 0
0, 0
0, 0
0, 0
0, 0
0, 0
0, 0
0, 0
0, 0
0, 0
0, 0
0, 0
0, 0
0, 0
0, 0
0, 0
0, 0
0, 0
0, 0
0, 0
0, 0
0, 0
0, 0
0, 0
0, 0
0, 0
0, 0
0, 0
0, 0
0, 0
0, 0
0, 0
0, 0
0, 0
0, 0
0, 0
0, 0
0, 0
0, 0
0, 0
0, 0
0, 0
0, 0
0, 0
0, 0
0, 0
0, 0
0, 0
0, 0
0, 0
0, 0
0, 0
#ENDOFDATA     end of spectrum data