File: host_upload/02-11-2024/rqc/uplink1/ps__0567_0717304816_000rfs_shot_16.msa
#FORMAT      : EMSA/MAS spectral data file
#VERSION     : TC202v2.0 PIXL
#TITLE       : Novarupta (sol567) subset1
#DATE        : 02-11-2024      Date in the format DD-MMM-YYYY, for example 07-JUL-2010
#TIME        :             The time of day at which the spectrum was recorded, in 24-hour format
#OWNER       : PIXL Flight Model       (PIXL will use this to indicate which instrument took the data.)
#NPOINTS     : 4096     Number of data points in the spectrum (This can be zero for configuration only files)
#NCOLUMNS    : 2     Number of data columns in the spectrum (This can be zero for configuration only files)
#XUNITS      : eV
#YUNITS      : COUNTS
#DATATYPE    : YY
#XPERCHAN    : 7.862, 7.881   eV per channel (separate by commas if more than one detector)
#OFFSET      : 18.5, -22.4         eV of first channel  (separate by commas if more than one detector
#SIGNALTYPE  : XRF
#YP_TEMP     : -4.339
#LIVETIME    : 8.84368, 8.65258   seconds (separate by commas if more than one detector)
#REALTIME    : 10, 10.0   seconds (separate by commas if more than one detector)
#SPECTRUM    : start of spectrum data
0, 0
0, 0
0, 0
0, 0
0, 0
0, 0
0, 0
0, 0
0, 0
0, 0
0, 0
0, 0
0, 0
0, 0
0, 0
0, 0
0, 0
0, 0
0, 0
0, 0
0, 0
0, 0
0, 0
0, 0
0, 0
0, 0
0, 0
0, 0
0, 0
0, 0
0, 1
0, 0
1, 0
0, 0
0, 0
1, 2
3, 6
3, 4
4, 5
5, 5
4, 5
4, 1
3, 3
1, 4
1, 5
2, 5
1, 5
3, 4
4, 4
7, 4
6, 2
9, 9
9, 14
11, 15
13, 19
15, 13
14, 15
19, 13
14, 12
9, 6
18, 25
27, 27
36, 45
37, 51
38, 49
50, 36
42, 38
36, 46
43, 57
79, 106
135, 162
201, 251
294, 367
403, 501
484, 504
421, 519
359, 427
274, 313
213, 219
115, 138
67, 92
38, 44
41, 43
25, 32
30, 28
22, 40
39, 45
28, 25
22, 24
22, 17
20, 21
17, 24
25, 34
65, 63
95, 118
165, 175
221, 239
267, 293
294, 297
290, 280
244, 261
186, 199
122, 169
102, 93
57, 74
47, 74
50, 85
68, 83
95, 124
152, 163
159, 202
184, 215
201, 228
179, 193
151, 168
142, 183
120, 128
98, 110
79, 99
81, 93
55, 86
67, 81
68, 60
62, 53
37, 38
40, 38
16, 20
19, 19
14, 22
5, 17
8, 8
9, 11
7, 8
14, 8
6, 8
12, 10
11, 11
18, 21
16, 19
23, 35
44, 35
25, 37
34, 27
21, 27
14, 24
15, 15
11, 29
14, 14
11, 14
22, 39
47, 55
82, 94
115, 144
178, 221
253, 326
294, 373
398, 381
328, 402
276, 343
265, 258
209, 219
112, 150
94, 91
56, 47
35, 31
34, 33
32, 38
35, 58
46, 48
56, 60
70, 59
45, 87
44, 55
37, 41
31, 28
24, 20
16, 17
8, 11
9, 8
6, 7
14, 6
13, 8
8, 10
15, 11
12, 17
21, 18
31, 29
26, 43
43, 36
44, 51
55, 62
67, 77
47, 62
54, 62
32, 53
45, 43
25, 28
17, 27
13, 26
15, 19
17, 9
11, 15
19, 15
18, 15
11, 15
17, 9
13, 21
16, 14
17, 23
14, 19
18, 18
10, 19
15, 16
11, 11
15, 11
8, 18
17, 10
12, 19
9, 13
10, 12
11, 13
16, 8
22, 9
11, 14
12, 19
18, 20
19, 20
33, 28
30, 26
27, 29
33, 30
38, 34
15, 22
28, 26
16, 21
15, 15
8, 9
14, 14
15, 12
7, 9
9, 17
12, 9
15, 16
19, 17
21, 22
24, 24
25, 28
34, 42
35, 44
47, 48
44, 56
45, 56
39, 48
35, 30
22, 39
32, 24
19, 26
14, 21
30, 18
24, 34
29, 40
47, 61
85, 102
144, 200
264, 321
384, 521
688, 780
901, 1079
1113, 1417
1389, 1641
1554, 1755
1582, 1764
1483, 1657
1315, 1432
1024, 1108
792, 798
552, 517
330, 311
214, 171
131, 120
72, 56
54, 43
22, 24
17, 14
19, 21
9, 16
20, 18
12, 19
15, 22
26, 34
35, 40
49, 61
78, 96
105, 141
142, 166
157, 199
192, 240
219, 242
276, 267
236, 264
210, 239
200, 187
144, 178
139, 141
85, 80
48, 44
28, 47
25, 19
13, 9
16, 8
9, 17
6, 7
11, 10
12, 13
12, 13
20, 8
16, 16
20, 20
9, 11
10, 9
7, 5
14, 14
5, 5
3, 3
7, 6
3, 8
7, 12
9, 5
4, 8
3, 4
6, 4
7, 4
6, 6
9, 4
6, 7
10, 2
6, 7
7, 9
9, 7
10, 6
3, 11
8, 3
8, 7
5, 5
7, 4
8, 5
5, 11
9, 4
6, 2
13, 5
10, 9
11, 11
6, 10
4, 5
9, 5
4, 5
6, 9
6, 6
6, 7
3, 5
13, 11
6, 10
6, 13
6, 8
4, 9
11, 12
10, 13
9, 7
12, 7
13, 7
9, 8
5, 11
9, 10
8, 9
4, 9
6, 3
5, 3
3, 4
3, 9
10, 6
6, 4
6, 8
8, 6
4, 3
6, 6
4, 9
6, 3
7, 9
0, 4
5, 2
4, 8
7, 8
5, 2
1, 9
5, 6
4, 6
4, 5
4, 4
3, 4
2, 10
5, 6
9, 6
8, 5
3, 8
6, 5
5, 8
9, 2
7, 13
3, 4
3, 9
4, 4
8, 7
3, 1
5, 5
10, 5
4, 4
3, 7
4, 4
5, 4
2, 7
6, 3
4, 6
3, 5
4, 6
3, 4
6, 2
7, 7
3, 6
2, 5
5, 8
4, 4
4, 3
3, 8
1, 3
1, 3
3, 4
4, 2
1, 4
4, 2
7, 5
1, 5
3, 3
5, 3
7, 3
4, 7
3, 4
4, 8
3, 4
3, 4
3, 3
4, 4
7, 4
5, 4
3, 3
5, 5
3, 2
4, 1
2, 4
1, 3
3, 5
4, 5
2, 6
0, 7
3, 5
7, 5
1, 5
1, 3
2, 4
4, 3
2, 2
7, 4
1, 2
5, 2
2, 5
1, 7
1, 1
4, 1
2, 1
0, 3
2, 4
2, 2
4, 5
0, 5
4, 2
4, 4
4, 1
3, 2
3, 2
2, 0
3, 1
3, 4
4, 4
1, 8
2, 3
3, 1
1, 1
2, 0
5, 1
1, 3
3, 3
3, 2
3, 3
1, 3
2, 3
2, 2
2, 5
4, 2
1, 2
1, 2
3, 1
1, 4
2, 0
1, 3
2, 3
4, 2
2, 4
2, 4
1, 3
1, 1
3, 1
2, 2
3, 1
3, 3
0, 2
3, 5
3, 3
2, 4
1, 2
1, 1
0, 2
0, 3
1, 2
4, 0
3, 5
2, 2
0, 3
5, 2
5, 2
1, 1
2, 6
4, 6
1, 2
2, 4
5, 5
3, 2
2, 2
3, 3
2, 4
2, 1
2, 1
2, 1
5, 1
1, 1
1, 1
0, 1
0, 3
1, 0
1, 1
0, 1
2, 2
3, 1
2, 4
5, 3
1, 0
1, 2
2, 3
1, 1
0, 1
2, 3
1, 0
2, 2
1, 1
0, 1
1, 2
1, 3
0, 1
2, 1
2, 0
1, 0
1, 1
3, 0
1, 5
2, 0
1, 1
1, 2
4, 0
1, 2
0, 3
3, 3
0, 1
0, 1
1, 1
2, 3
0, 1
1, 0
3, 1
0, 0
1, 1
0, 1
2, 1
0, 0
0, 2
0, 2
1, 1
0, 0
0, 3
0, 0
1, 1
0, 1
0, 1
3, 1
0, 0
0, 0
1, 1
0, 2
1, 1
1, 1
2, 1
1, 0
0, 0
0, 0
0, 1
3, 3
2, 0
0, 0
3, 1
1, 1
0, 2
0, 1
1, 1
0, 0
0, 0
2, 1
0, 3
1, 0
1, 2
2, 0
0, 1
0, 0
1, 2
1, 0
0, 0
0, 1
2, 0
0, 1
1, 2
0, 2
1, 0
1, 1
3, 0
0, 2
0, 2
0, 0
1, 0
0, 1
1, 0
0, 0
1, 0
0, 2
2, 2
1, 1
0, 0
0, 0
0, 0
0, 1
0, 0
1, 0
0, 0
0, 0
1, 0
2, 0
1, 0
0, 0
1, 0
0, 1
1, 1
0, 1
0, 0
1, 0
2, 0
1, 1
0, 0
0, 0
0, 0
1, 1
0, 1
1, 0
0, 3
0, 0
1, 1
1, 0
0, 0
3, 0
1, 0
0, 0
1, 1
1, 0
0, 2
0, 0
0, 0
2, 0
0, 0
1, 0
0, 0
1, 0
0, 0
1, 0
0, 1
0, 0
0, 0
0, 0
0, 3
1, 0
0, 0
0, 0
0, 0
0, 0
0, 0
0, 1
0, 0
1, 0
0, 0
0, 0
1, 0
1, 0
0, 0
0, 0
1, 0
0, 0
0, 0
1, 1
0, 0
0, 0
1, 0
0, 0
0, 0
0, 1
0, 0
0, 2
0, 0
0, 0
0, 0
0, 1
0, 0
0, 0
0, 0
0, 0
0, 0
0, 0
0, 1
0, 0
0, 0
1, 0
0, 0
0, 0
0, 0
0, 1
0, 0
0, 1
0, 0
0, 0
1, 1
1, 0
0, 0
0, 0
0, 1
0, 0
2, 0
1, 0
1, 0
0, 1
0, 0
0, 0
0, 0
0, 0
0, 1
0, 0
0, 0
1, 0
0, 0
0, 0
0, 0
1, 2
0, 0
1, 0
1, 1
2, 1
0, 0
1, 0
0, 0
1, 0
0, 0
0, 0
0, 0
1, 0
1, 0
0, 0
0, 0
0, 2
0, 0
0, 0
1, 0
1, 1
1, 0
0, 0
0, 0
0, 1
1, 0
0, 0
0, 1
0, 0
1, 0
0, 0
0, 0
0, 0
2, 1
0, 0
0, 0
0, 0
0, 1
0, 1
0, 0
0, 0
0, 0
0, 0
0, 0
0, 0
0, 0
0, 0
0, 1
0, 0
0, 0
0, 0
0, 0
0, 0
0, 0
0, 0
1, 0
1, 0
0, 0
0, 0
0, 0
0, 0
1, 0
0, 0
0, 1
0, 0
0, 0
0, 1
0, 0
0, 0
0, 0
0, 0
0, 0
0, 0
0, 0
0, 1
0, 0
0, 0
0, 0
1, 0
0, 0
0, 0
0, 0
0, 0
0, 0
0, 0
0, 0
1, 0
0, 0
0, 0
0, 1
0, 0
0, 0
0, 1
1, 0
0, 0
0, 1
0, 0
0, 0
0, 0
1, 0
0, 1
0, 0
0, 0
1, 0
0, 1
0, 0
0, 0
1, 0
0, 0
0, 0
0, 0
0, 0
0, 0
0, 0
0, 0
0, 1
0, 0
0, 0
0, 0
0, 0
0, 0
0, 0
0, 0
0, 0
0, 0
0, 0
0, 0
0, 1
0, 0
0, 0
0, 0
0, 0
0, 0
0, 0
0, 0
0, 0
0, 0
0, 0
0, 0
0, 0
0, 0
0, 0
0, 0
0, 0
0, 0
0, 0
0, 0
0, 0
0, 0
0, 0
0, 0
0, 0
1, 0
0, 1
0, 0
0, 0
0, 0
0, 0
0, 0
0, 0
0, 0
0, 0
0, 0
0, 0
0, 0
0, 0
0, 0
0, 0
0, 0
0, 0
0, 0
0, 0
0, 0
0, 0
0, 0
0, 0
0, 0
0, 0
0, 0
0, 0
0, 0
0, 0
0, 0
0, 0
0, 0
0, 0
0, 0
0, 0
0, 0
0, 0
0, 0
0, 0
0, 0
0, 0
0, 0
0, 0
0, 0
0, 0
0, 0
0, 0
0, 0
0, 0
0, 0
0, 0
0, 0
0, 0
0, 0
0, 0
0, 0
0, 0
0, 0
0, 0
0, 0
0, 0
0, 0
0, 0
0, 0
0, 0
0, 0
0, 0
0, 0
0, 0
0, 0
0, 0
0, 0
0, 0
0, 0
0, 0
0, 0
0, 0
0, 0
0, 0
0, 0
0, 0
0, 0
0, 0
0, 0
0, 0
0, 0
0, 0
0, 1
0, 0
0, 0
0, 0
0, 0
0, 0
0, 0
0, 0
0, 0
0, 0
0, 0
0, 0
0, 0
0, 0
0, 0
0, 0
0, 0
0, 0
0, 0
0, 0
0, 0
0, 0
0, 0
0, 0
0, 0
0, 0
0, 0
0, 0
0, 0
0, 0
0, 0
0, 0
0, 0
0, 0
0, 0
0, 0
0, 0
0, 0
0, 0
0, 0
0, 0
0, 0
0, 0
0, 0
0, 0
0, 0
0, 0
0, 0
0, 0
0, 1
0, 0
0, 0
0, 0
0, 0
0, 0
0, 0
0, 0
0, 0
0, 0
0, 0
0, 0
0, 0
0, 0
0, 0
0, 0
0, 0
0, 0
0, 0
0, 0
0, 0
0, 0
0, 0
0, 0
0, 0
0, 0
0, 0
0, 0
0, 0
0, 0
0, 0
0, 0
0, 0
0, 0
0, 0
0, 0
0, 0
0, 0
0, 0
0, 0
0, 0
0, 0
0, 0
0, 0
0, 0
0, 0
0, 0
0, 0
0, 0
0, 0
0, 0
0, 0
0, 0
0, 0
0, 0
0, 0
0, 0
0, 0
0, 0
0, 0
0, 0
0, 0
0, 0
0, 0
0, 0
0, 0
0, 0
0, 0
0, 0
0, 0
0, 0
0, 0
0, 0
0, 0
0, 0
0, 0
0, 0
0, 0
0, 0
0, 0
0, 0
0, 0
0, 0
0, 0
0, 0
0, 0
0, 0
0, 0
0, 0
0, 0
0, 0
0, 0
0, 0
0, 0
0, 0
0, 0
0, 0
0, 0
0, 0
0, 0
0, 0
0, 0
0, 0
0, 0
0, 0
0, 0
0, 0
0, 0
0, 0
0, 0
0, 0
0, 0
0, 0
0, 0
0, 0
0, 0
0, 0
0, 0
0, 0
0, 0
0, 0
0, 0
0, 0
0, 0
0, 0
0, 0
0, 0
0, 0
0, 0
0, 0
0, 0
0, 0
0, 0
0, 0
0, 0
0, 0
0, 0
0, 0
0, 0
0, 0
0, 0
0, 0
0, 0
0, 0
0, 0
0, 0
0, 0
0, 0
0, 0
0, 0
0, 0
0, 0
0, 0
0, 0
0, 0
0, 0
0, 0
0, 0
0, 0
0, 0
0, 0
0, 0
0, 0
0, 0
0, 0
0, 0
0, 0
0, 0
0, 0
0, 0
0, 0
0, 0
0, 0
0, 0
0, 0
0, 0
0, 0
0, 0
0, 0
0, 0
0, 0
0, 0
0, 0
0, 0
0, 0
0, 0
0, 0
0, 0
0, 0
0, 0
0, 0
0, 0
0, 0
0, 0
0, 0
0, 0
0, 0
0, 0
0, 0
0, 0
0, 0
0, 0
0, 0
0, 0
0, 0
0, 0
0, 0
0, 0
0, 0
0, 0
0, 0
0, 0
0, 0
0, 0
0, 0
0, 0
0, 0
0, 0
0, 0
0, 0
0, 0
0, 0
0, 0
0, 0
0, 0
0, 0
0, 0
0, 0
0, 0
0, 0
0, 0
0, 0
0, 0
0, 0
0, 0
0, 0
0, 0
0, 0
0, 0
0, 0
0, 0
0, 0
0, 0
0, 0
0, 0
0, 0
0, 0
0, 0
0, 0
0, 0
0, 0
0, 0
0, 0
0, 0
0, 0
0, 0
0, 0
0, 0
0, 0
0, 0
0, 0
0, 0
0, 0
0, 0
0, 0
0, 0
0, 0
0, 0
0, 0
0, 0
0, 0
0, 0
0, 0
0, 0
0, 0
0, 0
0, 0
0, 0
0, 0
0, 0
0, 0
0, 0
0, 0
0, 0
0, 0
0, 0
0, 0
0, 0
0, 0
0, 0
0, 0
0, 0
0, 0
0, 0
0, 0
#ENDOFDATA     end of spectrum data