File: host_upload/02-11-2024/rqc/uplink1/ps__0567_0717304816_000rfs_shot_430.msa
#FORMAT      : EMSA/MAS spectral data file
#VERSION     : TC202v2.0 PIXL
#TITLE       : Novarupta (sol567) subset1
#DATE        : 02-11-2024      Date in the format DD-MMM-YYYY, for example 07-JUL-2010
#TIME        :             The time of day at which the spectrum was recorded, in 24-hour format
#OWNER       : PIXL Flight Model       (PIXL will use this to indicate which instrument took the data.)
#NPOINTS     : 4096     Number of data points in the spectrum (This can be zero for configuration only files)
#NCOLUMNS    : 2     Number of data columns in the spectrum (This can be zero for configuration only files)
#XUNITS      : eV
#YUNITS      : COUNTS
#DATATYPE    : YY
#XPERCHAN    : 7.862, 7.881   eV per channel (separate by commas if more than one detector)
#OFFSET      : 18.5, -22.4         eV of first channel  (separate by commas if more than one detector
#SIGNALTYPE  : XRF
#YP_TEMP     : 1.754
#LIVETIME    : 8.83249, 8.81901   seconds (separate by commas if more than one detector)
#REALTIME    : 10, 10.0   seconds (separate by commas if more than one detector)
#SPECTRUM    : start of spectrum data
0, 0
0, 0
0, 0
0, 0
0, 0
0, 0
0, 0
0, 0
0, 0
0, 0
0, 0
0, 0
0, 0
0, 0
0, 0
0, 0
0, 0
0, 0
0, 0
0, 0
0, 0
0, 0
0, 0
0, 0
0, 0
0, 0
0, 0
0, 0
0, 0
0, 1
0, 0
0, 0
1, 1
1, 2
1, 0
0, 2
1, 3
0, 4
4, 4
7, 2
7, 4
3, 4
5, 2
5, 5
1, 6
4, 4
3, 3
2, 4
5, 4
5, 2
3, 3
7, 8
14, 10
14, 13
17, 12
10, 22
9, 10
5, 10
8, 10
13, 9
23, 17
23, 24
38, 48
49, 64
45, 41
52, 53
47, 41
34, 31
37, 34
44, 66
112, 128
194, 220
276, 285
365, 410
458, 495
502, 483
439, 460
338, 317
234, 223
141, 139
76, 85
47, 44
37, 24
37, 16
29, 33
34, 39
33, 28
26, 35
26, 24
18, 24
16, 22
20, 20
23, 29
35, 26
74, 81
118, 117
193, 213
290, 263
287, 283
279, 315
249, 258
210, 231
170, 141
89, 98
90, 58
66, 44
38, 59
70, 71
82, 94
122, 127
169, 176
208, 214
223, 214
237, 227
226, 194
192, 180
120, 143
108, 104
100, 98
79, 96
70, 82
49, 78
65, 75
53, 66
50, 48
41, 41
22, 28
26, 21
25, 23
18, 22
11, 10
20, 7
9, 4
3, 4
7, 5
7, 13
7, 5
16, 7
12, 16
22, 30
21, 29
30, 29
21, 26
27, 27
16, 20
10, 17
16, 14
8, 10
5, 12
12, 19
21, 31
44, 66
73, 98
115, 126
212, 221
274, 271
333, 351
331, 353
347, 356
281, 305
218, 226
155, 169
116, 89
61, 64
43, 38
19, 22
26, 29
33, 35
40, 39
36, 65
52, 63
48, 49
43, 44
48, 55
39, 45
25, 26
15, 16
13, 7
12, 8
12, 7
10, 10
9, 10
7, 9
9, 10
13, 10
12, 21
23, 19
16, 20
31, 26
42, 35
45, 65
51, 64
45, 56
60, 56
53, 66
54, 45
31, 31
37, 28
21, 24
18, 19
14, 19
12, 19
17, 10
16, 12
17, 11
15, 8
13, 8
22, 12
15, 16
22, 15
20, 26
18, 19
16, 21
14, 13
11, 11
8, 13
9, 18
10, 8
6, 7
12, 12
8, 12
8, 8
17, 8
13, 11
11, 24
4, 14
21, 24
17, 28
28, 40
27, 26
24, 35
22, 30
28, 26
25, 23
15, 27
24, 12
16, 22
12, 15
18, 10
3, 16
9, 7
13, 17
9, 12
15, 15
22, 7
28, 20
27, 27
35, 42
34, 55
43, 35
44, 46
55, 45
50, 39
38, 46
40, 37
35, 30
25, 19
25, 27
10, 19
12, 10
13, 23
30, 38
42, 37
59, 73
129, 132
215, 252
372, 446
539, 674
818, 1000
1168, 1342
1499, 1634
1715, 1852
1764, 1745
1767, 1716
1524, 1447
1219, 1058
943, 776
594, 498
399, 307
240, 169
129, 108
64, 48
46, 29
24, 24
19, 21
11, 18
27, 12
14, 22
9, 19
23, 17
21, 28
32, 39
33, 57
43, 56
91, 104
102, 147
170, 166
187, 222
222, 269
270, 284
299, 274
253, 257
219, 213
178, 184
138, 103
83, 86
69, 49
30, 33
21, 19
17, 9
14, 5
13, 7
12, 7
12, 2
12, 13
16, 17
8, 6
13, 14
12, 12
11, 13
11, 6
8, 10
7, 4
9, 4
5, 5
8, 5
1, 6
6, 9
6, 5
5, 6
2, 9
5, 5
7, 4
8, 8
11, 5
5, 10
5, 3
6, 5
5, 6
5, 6
9, 8
5, 7
3, 7
3, 9
3, 10
7, 5
5, 6
3, 6
13, 11
6, 6
8, 4
9, 10
5, 4
7, 10
4, 8
4, 8
6, 7
3, 3
6, 11
7, 8
6, 8
9, 11
5, 13
6, 10
8, 16
7, 16
7, 14
8, 20
5, 5
13, 14
9, 9
7, 8
7, 3
6, 4
3, 13
12, 2
6, 3
3, 3
3, 2
2, 5
5, 7
5, 4
7, 8
5, 11
8, 14
6, 5
10, 4
7, 7
9, 9
2, 2
6, 3
4, 8
6, 2
4, 6
6, 5
7, 7
2, 5
5, 6
4, 3
4, 5
7, 4
9, 4
6, 8
2, 3
5, 6
5, 5
4, 3
5, 9
4, 8
1, 7
5, 5
3, 6
5, 7
10, 5
4, 5
3, 0
9, 4
2, 4
4, 1
5, 6
5, 3
2, 2
4, 3
4, 4
4, 5
2, 2
7, 1
4, 6
1, 4
2, 6
3, 3
8, 4
3, 2
2, 3
5, 5
6, 8
6, 4
6, 4
4, 4
11, 9
2, 1
3, 6
1, 2
4, 5
4, 3
1, 3
5, 3
5, 0
4, 2
3, 4
6, 4
1, 2
0, 2
3, 5
3, 3
3, 7
3, 0
5, 3
4, 1
2, 2
7, 3
4, 1
1, 2
4, 7
3, 1
3, 2
6, 7
2, 3
5, 3
1, 5
3, 3
7, 2
4, 5
3, 7
5, 1
2, 2
0, 5
5, 4
2, 1
2, 2
2, 2
2, 4
4, 3
4, 3
0, 4
1, 2
2, 0
1, 2
7, 2
2, 6
4, 1
2, 3
0, 5
0, 0
3, 1
4, 4
0, 1
4, 4
4, 1
0, 3
1, 1
2, 1
2, 1
2, 3
4, 5
4, 7
3, 3
4, 5
1, 2
1, 3
5, 0
4, 2
1, 3
2, 0
3, 4
3, 5
2, 2
1, 1
3, 1
0, 1
2, 0
4, 3
2, 2
1, 2
0, 3
2, 1
2, 3
1, 3
4, 3
2, 3
5, 5
2, 5
0, 3
3, 2
2, 1
3, 3
0, 4
2, 4
3, 1
3, 3
2, 3
3, 2
5, 1
2, 7
1, 4
5, 0
2, 5
4, 4
3, 2
3, 0
3, 2
3, 3
0, 1
0, 1
2, 2
3, 0
5, 2
0, 1
3, 2
2, 3
2, 2
0, 2
1, 2
3, 2
1, 2
2, 2
1, 2
0, 1
1, 1
0, 0
1, 0
1, 2
1, 1
2, 2
1, 1
3, 1
1, 2
4, 1
1, 1
0, 1
0, 0
0, 0
3, 0
3, 2
0, 3
2, 1
2, 1
2, 1
1, 1
4, 1
1, 1
0, 1
2, 0
2, 2
4, 1
0, 1
2, 4
2, 2
2, 2
1, 4
2, 2
1, 1
1, 3
0, 0
0, 0
0, 0
2, 3
0, 1
0, 1
0, 0
0, 0
2, 0
2, 2
0, 0
1, 2
0, 1
0, 3
0, 0
0, 2
0, 0
1, 4
0, 1
0, 1
0, 6
1, 1
0, 1
0, 4
0, 0
1, 0
0, 0
0, 1
1, 2
0, 0
1, 0
2, 0
0, 1
0, 0
1, 1
0, 1
0, 1
0, 0
1, 0
1, 0
1, 1
0, 1
0, 1
0, 0
3, 2
0, 1
1, 0
1, 1
1, 1
0, 0
1, 0
3, 0
0, 0
0, 0
2, 0
1, 0
2, 1
1, 0
2, 1
0, 0
0, 0
0, 2
1, 2
0, 1
0, 2
0, 1
0, 0
1, 0
2, 2
0, 0
0, 1
0, 0
1, 0
1, 1
0, 1
0, 1
0, 0
0, 3
1, 0
0, 0
0, 2
0, 1
0, 0
0, 0
1, 0
1, 0
0, 0
0, 1
0, 0
0, 2
0, 1
0, 1
0, 1
0, 1
2, 0
0, 0
0, 1
0, 0
2, 0
1, 1
0, 1
0, 1
0, 2
0, 0
1, 0
0, 0
0, 0
1, 1
0, 0
0, 0
0, 1
2, 1
0, 1
0, 0
0, 1
0, 1
1, 0
2, 0
0, 0
0, 0
1, 0
0, 0
0, 0
0, 1
0, 0
0, 1
0, 0
0, 0
0, 0
0, 0
0, 0
0, 1
1, 1
1, 0
1, 0
1, 0
0, 1
0, 0
0, 0
0, 1
1, 0
0, 0
0, 1
1, 0
0, 0
0, 0
0, 1
0, 0
0, 0
0, 1
0, 0
0, 0
0, 2
1, 0
0, 0
0, 0
0, 1
1, 0
1, 0
0, 0
0, 0
0, 0
0, 0
0, 0
0, 0
1, 0
1, 0
0, 0
0, 0
0, 0
0, 0
0, 1
3, 0
0, 0
0, 0
0, 0
0, 0
0, 0
0, 0
0, 0
0, 0
0, 0
0, 0
0, 0
0, 0
0, 1
1, 0
0, 0
0, 0
0, 0
0, 1
0, 1
1, 0
1, 0
0, 0
0, 0
0, 1
0, 1
4, 0
0, 1
0, 0
0, 0
0, 0
0, 1
0, 1
1, 0
0, 0
0, 0
0, 1
0, 0
0, 0
0, 0
0, 0
1, 0
0, 0
1, 0
0, 0
0, 0
0, 0
0, 0
0, 0
0, 0
0, 0
1, 0
0, 0
0, 0
0, 2
0, 0
0, 0
0, 0
0, 0
1, 0
0, 1
0, 0
0, 0
0, 0
0, 0
1, 0
1, 0
0, 0
0, 0
0, 0
0, 0
0, 0
0, 0
0, 0
1, 1
0, 0
0, 0
0, 0
0, 0
0, 0
0, 0
1, 0
0, 0
0, 0
0, 0
2, 0
0, 0
0, 0
0, 0
0, 0
0, 0
0, 0
0, 0
0, 0
0, 0
0, 0
0, 0
0, 0
0, 1
0, 0
0, 0
0, 0
0, 0
0, 0
0, 0
0, 0
0, 0
0, 0
0, 0
0, 0
0, 0
0, 0
0, 0
0, 0
0, 0
0, 0
0, 0
0, 0
0, 0
0, 0
0, 0
0, 0
0, 0
1, 0
1, 0
0, 0
0, 0
0, 0
0, 0
0, 0
0, 0
0, 0
0, 0
0, 0
0, 0
0, 0
0, 0
0, 0
0, 1
0, 0
0, 0
0, 0
0, 0
0, 0
0, 0
0, 0
0, 0
0, 0
0, 0
0, 0
0, 0
0, 0
0, 0
0, 0
0, 0
0, 0
0, 0
0, 0
0, 0
0, 0
0, 0
0, 0
0, 0
0, 0
0, 0
0, 0
0, 0
0, 0
0, 0
0, 0
0, 0
0, 0
1, 0
0, 0
0, 0
0, 0
0, 0
0, 0
0, 0
0, 0
0, 0
0, 0
0, 0
0, 0
0, 0
0, 0
0, 0
0, 0
0, 0
0, 0
0, 0
0, 0
0, 0
0, 0
0, 0
0, 0
0, 0
0, 0
0, 0
0, 0
0, 0
0, 0
0, 0
0, 0
0, 0
0, 0
0, 0
0, 0
0, 0
0, 0
0, 0
0, 0
0, 0
0, 0
0, 0
0, 0
0, 0
0, 0
0, 0
0, 0
0, 0
0, 0
0, 0
0, 0
0, 0
0, 0
0, 0
0, 0
0, 0
0, 0
0, 0
0, 0
0, 0
0, 0
0, 0
0, 0
0, 0
0, 0
0, 0
0, 0
0, 0
0, 0
0, 0
0, 0
0, 0
0, 0
0, 0
0, 0
0, 0
0, 0
0, 0
0, 0
0, 0
0, 0
0, 0
0, 0
0, 0
0, 0
0, 0
0, 0
0, 0
0, 0
0, 0
0, 0
0, 0
0, 0
0, 0
0, 0
0, 0
0, 0
0, 0
0, 0
0, 0
0, 0
0, 0
0, 0
0, 0
0, 0
0, 0
0, 0
0, 0
0, 0
0, 0
0, 0
0, 0
0, 0
0, 0
0, 0
0, 0
0, 0
0, 0
0, 0
0, 0
0, 0
0, 0
0, 0
0, 0
0, 0
0, 0
0, 0
0, 0
0, 0
0, 0
0, 0
0, 0
0, 0
0, 0
0, 0
0, 0
0, 0
0, 0
0, 0
0, 0
0, 0
0, 0
0, 0
0, 0
0, 0
0, 0
0, 0
0, 0
0, 0
0, 0
0, 0
0, 0
0, 0
0, 0
0, 0
0, 0
0, 0
0, 0
0, 0
0, 0
0, 0
0, 0
0, 0
0, 0
0, 0
0, 0
0, 0
0, 0
0, 0
0, 0
0, 0
0, 0
0, 0
0, 0
0, 0
0, 0
0, 0
0, 0
0, 0
0, 0
0, 0
0, 0
0, 0
0, 0
0, 0
0, 0
0, 0
0, 0
0, 0
0, 0
0, 0
0, 0
0, 0
0, 0
0, 0
0, 0
0, 0
0, 0
0, 0
0, 0
0, 0
0, 0
0, 0
0, 0
0, 0
0, 0
0, 0
0, 0
0, 0
0, 0
0, 0
0, 0
0, 0
0, 0
0, 0
0, 0
0, 0
0, 0
0, 0
0, 0
0, 0
0, 0
0, 0
0, 0
0, 0
0, 0
0, 0
0, 0
0, 0
0, 0
0, 0
0, 0
0, 0
0, 0
0, 0
0, 0
0, 0
0, 0
0, 0
0, 0
0, 0
0, 0
0, 0
0, 0
0, 0
0, 0
0, 0
0, 0
0, 0
0, 0
0, 0
0, 0
0, 0
0, 0
0, 0
0, 0
0, 0
0, 0
0, 0
0, 0
0, 0
0, 0
0, 0
0, 0
0, 0
0, 0
0, 0
0, 0
0, 0
0, 0
0, 0
0, 0
0, 0
0, 0
0, 0
0, 0
0, 0
0, 0
0, 0
0, 0
0, 0
0, 0
0, 0
0, 0
0, 0
0, 0
0, 0
0, 0
0, 0
0, 0
0, 0
0, 0
0, 0
0, 0
0, 0
0, 0
0, 0
0, 0
0, 0
0, 0
0, 0
0, 0
0, 0
0, 0
0, 0
0, 0
0, 0
0, 0
0, 0
0, 0
0, 0
0, 0
0, 0
0, 0
0, 0
0, 0
0, 0
0, 0
0, 0
0, 0
0, 0
0, 0
0, 0
0, 0
0, 0
0, 0
0, 0
0, 0
0, 0
0, 0
0, 0
0, 0
0, 0
0, 0
0, 0
0, 0
0, 0
0, 0
0, 0
0, 0
0, 0
0, 0
0, 0
0, 0
0, 0
0, 0
0, 0
0, 0
0, 0
0, 0
0, 0
0, 0
0, 0
0, 0
0, 0
0, 0
0, 0
0, 0
0, 0
0, 0
0, 0
0, 0
0, 0
0, 0
0, 0
0, 0
0, 0
0, 0
0, 0
0, 0
0, 0
0, 0
0, 0
0, 0
0, 0
0, 0
0, 0
0, 0
0, 0
0, 0
0, 0
0, 0
0, 0
0, 0
0, 0
0, 0
0, 0
0, 0
0, 0
0, 0
0, 0
0, 0
0, 0
0, 0
0, 0
0, 0
0, 0
0, 0
0, 0
0, 0
0, 0
0, 0
0, 0
0, 0
0, 0
0, 0
0, 0
0, 0
0, 0
0, 0
0, 0
0, 0
0, 0
0, 0
0, 0
0, 0
0, 0
0, 0
#ENDOFDATA     end of spectrum data