File: host_upload/02-11-2024/rqc/uplink1/ps__0567_0717304816_000rfs_shot_316.msa
#FORMAT      : EMSA/MAS spectral data file
#VERSION     : TC202v2.0 PIXL
#TITLE       : Novarupta (sol567) subset1
#DATE        : 02-11-2024      Date in the format DD-MMM-YYYY, for example 07-JUL-2010
#TIME        :             The time of day at which the spectrum was recorded, in 24-hour format
#OWNER       : PIXL Flight Model       (PIXL will use this to indicate which instrument took the data.)
#NPOINTS     : 4096     Number of data points in the spectrum (This can be zero for configuration only files)
#NCOLUMNS    : 2     Number of data columns in the spectrum (This can be zero for configuration only files)
#XUNITS      : eV
#YUNITS      : COUNTS
#DATATYPE    : YY
#XPERCHAN    : 7.862, 7.881   eV per channel (separate by commas if more than one detector)
#OFFSET      : 18.5, -22.4         eV of first channel  (separate by commas if more than one detector
#SIGNALTYPE  : XRF
#YP_TEMP     : 1.786
#LIVETIME    : 8.84027, 8.83839   seconds (separate by commas if more than one detector)
#REALTIME    : 10, 10.0   seconds (separate by commas if more than one detector)
#SPECTRUM    : start of spectrum data
0, 0
0, 0
0, 0
0, 0
0, 0
0, 0
0, 0
0, 0
0, 0
0, 0
0, 0
0, 0
0, 0
0, 0
0, 0
0, 0
0, 0
0, 0
0, 0
0, 0
0, 0
0, 0
0, 0
0, 0
0, 0
0, 0
0, 0
0, 0
0, 0
0, 0
0, 0
0, 0
0, 0
0, 0
2, 1
3, 2
0, 2
2, 6
4, 3
0, 4
4, 4
4, 2
4, 3
2, 3
3, 3
3, 3
3, 1
2, 3
2, 7
2, 4
7, 7
7, 2
12, 12
23, 12
6, 20
20, 17
14, 4
8, 10
10, 9
9, 11
21, 15
16, 29
33, 47
53, 56
33, 59
48, 61
36, 37
35, 35
32, 37
66, 54
105, 138
173, 213
306, 337
402, 470
450, 521
496, 555
435, 459
335, 338
219, 221
151, 137
81, 86
49, 51
38, 32
27, 24
34, 30
36, 29
27, 22
30, 39
23, 30
22, 24
17, 21
10, 15
28, 33
41, 44
85, 80
151, 156
196, 204
260, 270
299, 323
278, 298
272, 296
215, 207
149, 145
90, 106
54, 72
54, 50
53, 48
70, 68
85, 89
137, 146
177, 180
181, 201
208, 241
240, 221
222, 216
144, 172
178, 137
113, 99
100, 92
94, 90
65, 61
68, 68
56, 47
47, 52
40, 58
30, 34
39, 25
25, 30
24, 22
15, 12
6, 13
9, 5
8, 8
11, 10
5, 7
3, 5
7, 13
7, 18
10, 8
27, 24
30, 29
30, 25
42, 42
28, 34
16, 26
15, 18
9, 7
9, 12
8, 12
11, 11
37, 33
51, 64
87, 89
117, 156
199, 217
256, 265
329, 363
368, 364
315, 348
284, 284
219, 206
147, 154
89, 97
48, 42
40, 31
34, 33
27, 31
32, 29
36, 42
30, 41
68, 50
39, 53
43, 50
51, 34
40, 30
15, 25
17, 25
11, 10
8, 12
9, 8
10, 7
9, 9
7, 8
5, 10
9, 14
8, 13
15, 21
21, 26
26, 38
34, 48
52, 51
50, 78
72, 68
79, 61
55, 48
44, 44
32, 25
24, 39
26, 24
19, 23
17, 19
14, 17
14, 8
14, 6
14, 9
12, 16
10, 15
11, 16
15, 23
20, 25
13, 22
24, 32
19, 16
18, 17
14, 15
9, 13
7, 13
7, 12
11, 15
7, 5
5, 14
14, 8
5, 10
17, 13
9, 15
15, 16
20, 25
21, 27
29, 34
25, 32
35, 21
25, 23
28, 29
30, 21
26, 20
15, 17
16, 12
7, 15
14, 11
9, 15
13, 2
9, 10
16, 11
14, 12
20, 20
22, 21
19, 22
20, 28
31, 49
37, 50
44, 52
46, 50
53, 52
41, 35
39, 30
28, 23
25, 28
23, 14
16, 16
25, 20
26, 19
22, 41
37, 55
71, 76
118, 125
201, 276
352, 444
549, 733
861, 980
1158, 1292
1390, 1587
1655, 1766
1676, 1864
1636, 1652
1403, 1385
1175, 1167
901, 792
548, 550
340, 321
189, 156
126, 92
58, 60
38, 35
34, 26
18, 22
18, 19
10, 14
14, 18
16, 16
15, 18
20, 30
28, 33
30, 65
60, 81
74, 90
116, 116
155, 181
215, 242
240, 253
264, 285
260, 285
223, 264
213, 233
187, 163
157, 128
98, 75
55, 60
36, 35
25, 24
19, 20
6, 8
17, 6
11, 11
10, 12
6, 5
9, 18
8, 13
10, 11
5, 14
6, 14
15, 14
6, 8
5, 6
6, 5
13, 11
8, 8
6, 10
4, 5
4, 6
2, 6
9, 11
5, 10
6, 7
7, 11
8, 3
4, 7
6, 9
10, 5
8, 10
9, 7
9, 10
5, 11
7, 4
9, 5
5, 3
7, 7
5, 7
5, 8
6, 10
10, 8
10, 12
6, 5
10, 8
7, 11
4, 6
3, 8
8, 4
3, 7
1, 9
8, 6
10, 5
5, 9
6, 12
9, 6
12, 11
13, 11
14, 10
6, 7
5, 13
10, 13
7, 12
10, 3
10, 4
7, 12
6, 7
4, 5
9, 4
5, 3
4, 5
8, 3
4, 6
9, 6
4, 4
11, 3
5, 8
4, 12
4, 7
4, 5
2, 8
2, 6
10, 6
7, 7
7, 7
8, 7
4, 6
5, 3
7, 4
6, 2
5, 6
2, 11
4, 4
3, 9
5, 5
5, 4
4, 6
2, 3
8, 5
4, 4
7, 7
3, 2
8, 4
6, 6
7, 1
5, 5
4, 5
2, 3
4, 2
8, 5
3, 8
3, 9
4, 6
2, 4
4, 5
4, 7
3, 5
3, 5
4, 8
1, 4
2, 6
6, 5
4, 2
11, 3
2, 2
7, 3
4, 3
4, 2
1, 3
3, 3
8, 4
2, 4
3, 6
4, 4
5, 3
3, 3
3, 4
4, 5
3, 3
4, 4
3, 1
2, 4
0, 3
4, 0
5, 4
3, 5
4, 4
5, 5
2, 7
3, 2
3, 0
4, 1
3, 5
1, 5
2, 4
4, 3
2, 1
2, 3
1, 1
5, 3
2, 0
2, 3
2, 7
3, 4
4, 5
0, 3
3, 2
1, 5
5, 0
2, 5
4, 1
4, 3
2, 1
2, 3
2, 3
1, 0
3, 2
1, 5
1, 2
2, 2
6, 5
5, 3
1, 3
2, 3
5, 1
2, 0
1, 1
3, 1
1, 1
3, 2
2, 0
2, 7
5, 0
2, 3
1, 1
2, 5
3, 3
1, 1
1, 5
2, 2
0, 3
2, 4
6, 2
2, 4
3, 0
2, 7
2, 3
3, 1
3, 0
1, 5
1, 3
1, 2
1, 1
2, 0
5, 4
3, 2
0, 3
1, 4
1, 1
1, 3
1, 2
2, 4
2, 3
1, 2
2, 1
2, 6
1, 5
1, 0
0, 0
3, 0
5, 4
4, 2
2, 2
4, 1
1, 1
2, 2
1, 1
4, 4
2, 0
1, 1
4, 1
1, 1
2, 1
4, 1
2, 3
1, 1
2, 3
3, 2
3, 1
1, 2
1, 0
1, 2
0, 0
2, 2
0, 4
4, 1
1, 0
2, 2
0, 2
1, 0
1, 4
1, 1
1, 4
1, 1
2, 2
1, 0
1, 2
1, 3
0, 1
0, 3
1, 0
0, 1
5, 3
2, 1
2, 0
0, 2
2, 3
0, 1
0, 1
0, 0
0, 3
1, 0
2, 0
0, 2
0, 0
1, 1
1, 0
0, 0
2, 1
0, 1
1, 2
2, 3
0, 1
0, 1
1, 1
4, 2
1, 2
1, 0
1, 2
0, 3
3, 2
0, 2
1, 1
2, 2
1, 4
0, 1
2, 1
1, 0
3, 0
0, 0
1, 0
0, 0
1, 0
2, 2
2, 1
3, 0
0, 1
2, 0
1, 0
0, 0
0, 2
0, 0
0, 2
1, 2
0, 0
1, 1
1, 1
1, 1
0, 1
1, 2
0, 0
2, 0
1, 1
1, 1
1, 1
0, 1
1, 2
2, 0
0, 1
2, 0
0, 0
0, 0
2, 0
0, 0
0, 0
1, 4
0, 2
0, 1
1, 1
1, 0
1, 0
1, 1
0, 2
0, 0
1, 1
0, 1
0, 2
0, 0
1, 2
0, 0
1, 0
1, 0
1, 0
1, 1
1, 1
0, 1
0, 1
0, 0
0, 2
1, 0
0, 0
0, 2
1, 0
0, 0
0, 1
0, 0
0, 0
0, 2
0, 0
0, 1
2, 0
0, 0
0, 0
0, 0
0, 0
1, 1
0, 0
1, 0
0, 0
0, 0
0, 1
2, 1
0, 0
0, 0
1, 1
1, 1
1, 0
0, 0
0, 0
1, 1
0, 0
0, 0
0, 0
1, 0
0, 0
3, 0
0, 1
1, 0
0, 0
1, 1
0, 1
0, 0
1, 0
0, 1
0, 0
0, 0
0, 0
0, 0
1, 1
0, 0
0, 1
0, 0
0, 0
0, 0
0, 0
1, 0
0, 0
0, 0
0, 0
2, 0
0, 0
1, 2
0, 0
1, 0
0, 0
0, 0
0, 1
0, 1
0, 0
1, 0
0, 0
0, 0
0, 0
0, 1
0, 0
0, 0
2, 0
0, 0
0, 0
0, 0
0, 0
1, 0
0, 0
0, 0
0, 0
0, 0
0, 1
0, 0
0, 0
0, 0
0, 0
0, 0
0, 0
0, 0
0, 0
1, 0
0, 0
0, 0
0, 1
0, 0
0, 0
0, 1
0, 1
0, 0
0, 0
2, 0
0, 0
0, 1
0, 0
1, 0
0, 0
0, 0
0, 0
0, 0
0, 0
1, 0
0, 1
0, 0
0, 0
1, 1
0, 1
1, 0
0, 2
0, 0
0, 2
0, 0
0, 0
0, 0
1, 0
0, 0
1, 0
0, 0
0, 0
0, 0
0, 1
1, 0
0, 0
0, 0
0, 0
0, 0
0, 0
0, 0
0, 0
0, 0
0, 0
1, 1
0, 0
1, 1
0, 0
0, 1
0, 0
0, 0
0, 0
0, 0
0, 0
0, 1
0, 2
0, 0
1, 0
0, 0
0, 0
0, 1
0, 0
0, 0
0, 0
0, 0
0, 0
0, 1
0, 0
0, 0
1, 0
1, 0
0, 0
0, 0
0, 0
0, 0
0, 1
0, 1
0, 1
1, 0
0, 0
0, 0
0, 0
0, 0
0, 0
1, 0
0, 0
1, 0
0, 0
0, 0
0, 0
0, 0
0, 0
0, 0
0, 0
0, 0
0, 0
0, 0
0, 0
0, 0
0, 0
0, 1
0, 0
0, 0
0, 0
2, 0
0, 0
0, 0
0, 0
0, 0
0, 0
1, 0
1, 0
0, 0
0, 0
0, 0
0, 0
0, 0
0, 0
0, 0
0, 0
0, 0
0, 0
0, 0
0, 0
0, 0
0, 0
0, 0
0, 0
0, 1
0, 0
0, 0
0, 0
1, 0
0, 0
0, 0
0, 0
0, 0
0, 0
1, 0
0, 0
0, 0
0, 0
0, 0
0, 0
0, 0
1, 0
0, 0
0, 0
0, 0
0, 0
0, 0
0, 0
0, 0
1, 0
0, 0
0, 0
0, 0
0, 0
0, 0
0, 0
0, 0
0, 0
0, 0
0, 0
0, 0
0, 0
0, 0
0, 0
0, 0
0, 0
0, 0
0, 0
0, 0
0, 0
0, 0
0, 0
0, 0
0, 0
0, 0
0, 0
0, 0
0, 0
0, 0
0, 0
0, 0
0, 0
0, 1
1, 0
0, 0
0, 0
0, 0
0, 0
0, 0
0, 0
0, 0
0, 0
0, 0
0, 0
0, 0
0, 0
0, 0
0, 0
0, 0
0, 0
0, 0
0, 0
0, 0
0, 0
0, 0
0, 0
0, 0
0, 0
0, 0
0, 0
0, 0
0, 0
0, 0
0, 0
0, 0
0, 0
0, 0
0, 0
0, 0
0, 0
0, 0
0, 0
0, 0
1, 0
0, 0
0, 0
0, 0
0, 0
0, 0
0, 0
0, 0
0, 0
0, 0
0, 0
0, 0
0, 0
0, 0
0, 0
0, 0
0, 0
0, 0
0, 0
0, 0
0, 0
0, 0
0, 0
0, 0
0, 0
0, 0
0, 0
0, 0
0, 0
0, 0
0, 0
0, 0
0, 0
0, 0
0, 0
0, 0
0, 0
0, 0
0, 0
0, 0
0, 0
0, 0
0, 0
0, 0
0, 0
0, 0
0, 0
0, 0
0, 0
0, 0
0, 0
0, 0
0, 0
0, 0
0, 0
0, 0
0, 0
0, 0
0, 0
0, 0
0, 0
0, 0
0, 0
0, 0
0, 0
0, 0
0, 0
0, 0
0, 0
0, 0
0, 0
0, 0
0, 0
0, 0
0, 0
0, 0
0, 0
0, 0
0, 0
0, 0
0, 0
0, 0
0, 0
0, 0
0, 0
0, 0
0, 0
0, 0
0, 0
0, 0
0, 0
0, 0
0, 0
0, 0
0, 0
0, 0
0, 0
0, 0
0, 0
0, 0
0, 0
0, 0
0, 0
0, 0
0, 0
0, 0
0, 0
0, 0
0, 0
0, 0
0, 0
0, 0
0, 0
0, 0
0, 0
0, 0
0, 0
0, 0
0, 0
0, 0
0, 0
0, 0
0, 0
0, 0
0, 0
0, 0
0, 0
0, 0
0, 0
0, 0
0, 0
0, 0
0, 0
0, 0
0, 0
0, 0
0, 0
0, 0
0, 0
0, 0
0, 0
0, 0
0, 0
0, 0
0, 0
0, 0
0, 0
0, 0
0, 0
0, 0
0, 0
0, 0
0, 0
0, 0
0, 0
0, 0
0, 0
0, 0
0, 0
0, 0
0, 0
1, 0
0, 0
0, 0
0, 0
0, 0
0, 0
0, 0
0, 0
0, 0
0, 0
0, 0
0, 0
0, 0
0, 0
0, 0
0, 0
0, 0
0, 0
0, 0
0, 0
0, 0
0, 0
0, 0
0, 0
0, 0
0, 0
0, 0
0, 0
0, 0
0, 0
0, 0
0, 0
0, 0
0, 0
0, 0
0, 0
0, 0
0, 0
0, 0
0, 0
0, 0
0, 0
0, 0
0, 0
0, 0
0, 0
0, 0
0, 0
0, 0
0, 0
0, 0
0, 0
0, 0
0, 0
0, 0
0, 0
0, 0
0, 0
0, 0
0, 0
0, 0
0, 0
0, 0
0, 0
0, 0
0, 0
0, 0
0, 0
0, 0
0, 0
0, 0
0, 0
0, 0
0, 0
0, 0
0, 0
0, 0
0, 0
0, 0
0, 0
0, 0
0, 0
0, 0
0, 0
0, 0
0, 0
0, 0
0, 0
0, 0
0, 0
0, 0
0, 0
0, 0
0, 0
0, 0
0, 0
0, 0
0, 0
0, 0
0, 0
0, 0
0, 0
0, 0
0, 0
0, 0
0, 0
0, 0
0, 0
0, 0
0, 0
0, 0
0, 0
0, 0
0, 0
0, 0
0, 0
0, 0
0, 0
0, 0
0, 0
0, 0
0, 0
0, 0
0, 0
0, 0
0, 0
0, 0
0, 0
0, 0
0, 0
0, 0
0, 0
0, 0
0, 0
0, 0
0, 0
0, 0
0, 0
0, 0
0, 0
0, 0
0, 0
0, 0
0, 0
0, 0
0, 0
0, 0
0, 0
0, 0
0, 0
0, 0
0, 0
0, 0
0, 0
0, 0
0, 0
0, 0
0, 0
0, 0
0, 0
0, 0
0, 0
0, 0
0, 0
0, 0
0, 0
0, 0
0, 0
0, 0
0, 0
0, 0
0, 0
0, 0
0, 0
0, 0
0, 0
0, 0
0, 0
0, 0
0, 0
0, 0
0, 0
0, 0
0, 0
0, 0
0, 0
0, 0
0, 0
0, 0
0, 0
0, 0
0, 0
0, 0
0, 0
0, 0
0, 0
0, 0
0, 0
0, 0
#ENDOFDATA     end of spectrum data