File: host_upload/02-11-2024/rqc/uplink1/ps__0567_0717304816_000rfs_shot_383.msa
#FORMAT      : EMSA/MAS spectral data file
#VERSION     : TC202v2.0 PIXL
#TITLE       : Novarupta (sol567) subset1
#DATE        : 02-11-2024      Date in the format DD-MMM-YYYY, for example 07-JUL-2010
#TIME        :             The time of day at which the spectrum was recorded, in 24-hour format
#OWNER       : PIXL Flight Model       (PIXL will use this to indicate which instrument took the data.)
#NPOINTS     : 4096     Number of data points in the spectrum (This can be zero for configuration only files)
#NCOLUMNS    : 2     Number of data columns in the spectrum (This can be zero for configuration only files)
#XUNITS      : eV
#YUNITS      : COUNTS
#DATATYPE    : YY
#XPERCHAN    : 7.862, 7.881   eV per channel (separate by commas if more than one detector)
#OFFSET      : 18.5, -22.4         eV of first channel  (separate by commas if more than one detector
#SIGNALTYPE  : XRF
#YP_TEMP     : 1.562
#LIVETIME    : 8.82447, 8.81307   seconds (separate by commas if more than one detector)
#REALTIME    : 10, 10.0   seconds (separate by commas if more than one detector)
#SPECTRUM    : start of spectrum data
0, 0
0, 0
0, 0
0, 0
0, 0
0, 0
0, 0
0, 0
0, 0
0, 0
0, 0
0, 0
0, 0
0, 0
0, 0
0, 0
0, 0
0, 0
0, 0
0, 0
0, 0
0, 0
0, 0
0, 0
0, 0
0, 0
0, 0
0, 0
0, 0
0, 0
0, 0
0, 1
0, 1
1, 0
2, 0
2, 0
2, 1
0, 2
6, 0
3, 4
2, 5
2, 2
3, 4
4, 5
1, 2
6, 6
0, 0
3, 5
2, 1
7, 11
11, 2
6, 4
10, 7
14, 14
14, 16
14, 18
10, 10
6, 13
11, 10
9, 13
20, 22
27, 34
48, 43
54, 42
48, 52
44, 55
38, 36
31, 29
33, 35
73, 72
114, 132
166, 197
326, 341
367, 450
470, 548
471, 527
379, 462
354, 311
244, 230
138, 125
88, 83
53, 40
30, 32
33, 31
28, 39
29, 35
37, 22
22, 27
25, 20
10, 14
13, 20
16, 12
33, 29
45, 44
74, 86
121, 144
192, 202
265, 291
295, 323
288, 321
260, 306
202, 215
155, 156
107, 122
63, 61
57, 59
53, 52
63, 80
84, 92
118, 134
178, 192
197, 196
219, 235
213, 225
208, 206
142, 168
160, 120
104, 99
86, 94
90, 89
87, 73
78, 57
54, 67
52, 63
45, 53
33, 32
29, 35
18, 26
21, 16
17, 18
9, 16
8, 6
6, 9
7, 7
8, 5
3, 4
11, 10
6, 19
15, 22
19, 22
26, 31
29, 26
23, 37
23, 22
22, 18
18, 17
7, 20
8, 11
10, 16
14, 22
30, 26
47, 58
81, 84
130, 165
184, 253
287, 315
322, 373
352, 424
314, 383
313, 327
267, 260
171, 166
114, 97
64, 48
40, 36
22, 26
32, 31
33, 32
35, 56
50, 62
61, 71
57, 66
61, 50
48, 42
38, 43
28, 23
18, 21
13, 22
13, 15
11, 7
7, 9
10, 7
4, 13
9, 8
13, 9
16, 12
18, 17
29, 26
32, 30
44, 42
36, 47
55, 49
59, 74
65, 56
56, 52
43, 52
30, 37
28, 22
30, 21
15, 28
21, 22
18, 16
10, 15
15, 12
8, 10
16, 15
18, 15
12, 13
22, 20
21, 28
18, 15
22, 20
13, 26
12, 18
9, 23
19, 6
13, 20
11, 7
17, 13
9, 14
11, 12
12, 8
10, 16
18, 11
13, 18
14, 21
25, 20
30, 22
27, 21
39, 34
30, 32
18, 32
31, 32
24, 20
20, 22
18, 16
16, 19
16, 15
7, 13
11, 15
10, 10
11, 14
15, 16
16, 19
13, 24
21, 23
19, 36
35, 33
36, 49
41, 52
44, 53
42, 60
53, 45
39, 43
28, 42
26, 37
25, 24
10, 26
17, 21
24, 24
18, 19
34, 32
47, 45
74, 67
124, 126
210, 301
363, 481
582, 725
871, 1054
1158, 1432
1454, 1694
1596, 1859
1763, 1945
1617, 1757
1478, 1527
1203, 1190
968, 831
636, 587
400, 348
203, 172
114, 98
70, 64
38, 32
20, 31
16, 19
13, 17
10, 21
21, 14
13, 19
20, 21
21, 18
23, 40
52, 51
54, 63
94, 93
106, 160
160, 180
193, 245
216, 268
270, 305
256, 299
214, 245
228, 210
171, 195
139, 111
110, 89
54, 57
24, 27
16, 19
21, 16
10, 7
8, 9
5, 8
5, 14
7, 12
11, 5
10, 18
9, 18
13, 12
9, 15
10, 11
11, 10
7, 10
8, 13
10, 5
6, 5
3, 8
9, 5
6, 7
6, 6
4, 8
5, 5
3, 7
4, 8
3, 8
5, 6
9, 4
6, 7
4, 5
12, 6
1, 8
11, 12
8, 3
7, 5
3, 5
8, 7
6, 11
15, 5
6, 8
9, 9
7, 3
6, 8
7, 5
9, 10
7, 6
6, 9
8, 6
6, 8
9, 7
6, 8
9, 11
11, 6
13, 5
3, 10
12, 9
4, 19
12, 11
13, 12
10, 12
13, 16
7, 11
8, 5
9, 10
4, 7
2, 10
3, 4
5, 6
6, 2
6, 5
8, 11
4, 11
4, 9
4, 7
3, 7
7, 9
6, 5
3, 10
7, 4
3, 2
6, 6
5, 8
5, 4
4, 8
8, 9
6, 1
5, 5
5, 3
2, 6
4, 6
6, 10
6, 6
3, 6
11, 4
5, 5
4, 3
5, 5
1, 8
6, 8
5, 5
6, 5
9, 8
4, 5
3, 2
7, 7
1, 4
4, 6
5, 6
3, 3
4, 2
3, 2
8, 6
2, 3
5, 1
1, 4
6, 7
2, 5
1, 2
5, 4
3, 6
5, 8
3, 2
3, 4
1, 5
3, 3
4, 5
7, 6
3, 3
6, 3
2, 2
6, 3
3, 2
0, 4
5, 5
1, 3
2, 4
3, 2
3, 2
3, 3
3, 2
3, 4
3, 4
3, 5
6, 4
4, 5
2, 3
2, 3
5, 3
2, 4
2, 1
4, 2
3, 1
5, 3
6, 8
3, 1
4, 7
1, 4
0, 5
4, 1
7, 2
2, 1
6, 3
8, 5
0, 2
2, 5
2, 2
1, 5
1, 7
5, 0
5, 3
2, 1
0, 0
0, 1
3, 6
4, 3
3, 4
4, 0
0, 4
3, 0
1, 4
4, 2
4, 3
1, 6
1, 1
5, 3
0, 2
2, 2
2, 4
2, 2
1, 2
1, 2
6, 3
5, 2
1, 1
3, 0
2, 2
2, 2
2, 1
7, 0
3, 2
2, 2
2, 2
2, 2
4, 3
4, 3
3, 2
4, 4
1, 0
1, 1
3, 1
1, 4
1, 0
0, 1
2, 1
4, 4
2, 2
0, 2
1, 2
4, 1
0, 1
3, 3
3, 4
1, 0
2, 0
1, 2
0, 1
3, 2
0, 2
4, 3
6, 2
1, 3
2, 6
2, 1
1, 3
0, 2
3, 6
3, 2
2, 2
1, 3
0, 1
6, 0
2, 4
2, 1
1, 3
1, 2
1, 1
2, 1
1, 2
0, 1
1, 3
1, 1
2, 0
0, 1
2, 1
0, 3
0, 2
1, 1
0, 4
0, 1
4, 1
2, 2
2, 2
3, 3
0, 2
2, 3
3, 2
3, 1
1, 1
1, 0
1, 0
0, 0
2, 0
2, 2
1, 2
0, 1
0, 2
0, 4
1, 4
1, 2
0, 2
0, 1
0, 0
1, 2
2, 2
0, 1
2, 1
0, 2
0, 1
0, 0
0, 1
0, 0
2, 4
1, 2
1, 1
3, 0
2, 1
0, 0
4, 0
3, 0
0, 2
0, 1
2, 2
0, 0
1, 0
2, 2
0, 0
2, 1
1, 2
0, 0
1, 0
0, 0
1, 1
1, 1
0, 0
2, 1
2, 0
1, 1
0, 0
0, 0
1, 0
1, 0
0, 1
1, 1
2, 0
0, 1
0, 0
2, 0
0, 1
0, 0
0, 0
2, 0
0, 0
1, 0
1, 0
1, 1
0, 1
0, 1
0, 2
1, 1
2, 1
1, 1
0, 1
1, 0
1, 0
0, 0
3, 4
1, 0
1, 0
0, 1
1, 2
0, 1
0, 0
0, 1
0, 1
3, 0
1, 0
1, 1
0, 0
3, 0
0, 1
0, 1
3, 0
0, 0
0, 0
0, 0
2, 1
0, 2
0, 0
0, 0
1, 1
1, 0
1, 0
0, 2
0, 2
1, 0
0, 0
1, 0
1, 1
0, 1
0, 0
1, 0
0, 0
1, 0
1, 2
0, 0
1, 1
0, 0
1, 1
0, 0
1, 0
1, 0
1, 1
0, 0
0, 1
0, 0
0, 0
0, 1
0, 1
0, 1
0, 1
0, 0
0, 0
0, 1
0, 1
0, 0
0, 0
2, 1
0, 0
0, 0
0, 0
1, 0
1, 0
1, 0
1, 0
0, 0
0, 0
0, 1
1, 0
1, 0
1, 0
0, 1
0, 0
0, 0
0, 1
0, 1
0, 0
0, 1
1, 0
0, 0
0, 0
0, 0
0, 1
0, 2
0, 1
0, 1
0, 0
2, 0
0, 0
0, 0
0, 1
0, 0
0, 0
0, 0
0, 0
0, 0
0, 0
0, 0
0, 0
0, 0
0, 0
1, 0
1, 1
0, 0
0, 0
0, 0
1, 0
0, 0
0, 0
0, 0
0, 0
0, 0
0, 1
0, 0
0, 0
1, 0
0, 1
0, 0
0, 0
0, 0
0, 0
0, 0
0, 0
0, 0
2, 1
0, 0
0, 1
0, 0
0, 1
0, 1
0, 0
0, 0
1, 0
0, 0
0, 0
0, 0
1, 1
2, 0
2, 0
0, 0
0, 0
0, 0
0, 0
0, 0
0, 0
0, 1
0, 0
1, 0
1, 0
0, 0
0, 0
0, 1
1, 0
0, 0
1, 0
0, 0
1, 0
1, 0
0, 0
0, 0
1, 0
0, 0
0, 0
0, 0
1, 0
0, 0
0, 0
0, 0
0, 0
0, 0
0, 0
0, 0
0, 0
0, 0
0, 0
0, 0
1, 0
0, 1
0, 0
0, 1
0, 0
0, 0
0, 0
0, 0
0, 0
0, 0
0, 0
0, 0
0, 1
0, 0
0, 1
0, 0
0, 0
0, 0
0, 0
0, 0
0, 0
0, 0
1, 0
1, 0
0, 0
1, 1
0, 0
0, 0
0, 0
0, 1
0, 0
0, 0
0, 0
0, 0
0, 0
0, 0
0, 0
0, 0
0, 0
0, 0
0, 0
0, 0
0, 0
1, 0
0, 0
0, 0
1, 0
0, 0
0, 0
0, 0
0, 0
0, 0
0, 0
0, 0
0, 0
0, 0
0, 0
0, 0
0, 1
0, 0
0, 0
0, 0
0, 0
0, 0
0, 0
0, 0
0, 0
0, 0
0, 0
0, 0
0, 0
0, 0
0, 0
0, 0
0, 0
0, 0
0, 0
0, 0
0, 0
0, 0
0, 0
0, 0
0, 0
0, 0
0, 0
0, 0
0, 1
0, 0
0, 0
0, 0
0, 0
0, 0
0, 0
0, 0
0, 0
0, 0
0, 1
0, 1
1, 0
0, 0
0, 0
0, 0
0, 0
0, 0
0, 0
0, 0
0, 1
0, 0
0, 0
0, 0
0, 0
0, 0
0, 0
0, 0
0, 0
0, 0
0, 0
0, 0
0, 0
0, 0
0, 1
0, 0
0, 0
0, 0
0, 0
0, 0
0, 0
0, 0
0, 0
0, 0
0, 0
0, 1
0, 0
0, 0
0, 0
0, 0
0, 0
0, 0
0, 0
1, 0
0, 0
0, 0
0, 0
0, 0
0, 0
0, 0
0, 0
0, 0
0, 0
0, 0
0, 0
0, 0
0, 0
0, 0
0, 0
0, 0
0, 0
0, 0
0, 0
0, 0
0, 0
0, 0
0, 0
0, 0
0, 0
0, 0
0, 0
0, 0
0, 0
0, 0
0, 0
0, 0
0, 0
0, 0
0, 0
0, 0
0, 0
0, 0
0, 0
0, 0
0, 0
0, 0
0, 0
0, 0
0, 0
0, 0
0, 0
0, 0
0, 0
0, 0
0, 0
0, 0
0, 0
0, 0
0, 0
0, 0
0, 0
0, 0
0, 0
0, 0
0, 0
0, 0
0, 0
0, 0
0, 0
0, 0
0, 0
0, 0
0, 0
0, 0
0, 0
0, 0
0, 0
0, 0
0, 0
0, 0
0, 0
0, 0
0, 0
0, 0
0, 0
0, 0
0, 0
0, 0
0, 0
0, 0
0, 0
0, 0
0, 0
0, 0
0, 0
0, 0
0, 0
0, 0
0, 0
0, 0
0, 0
0, 0
0, 0
0, 0
0, 0
0, 0
0, 0
0, 0
0, 0
0, 0
0, 0
0, 0
0, 0
0, 0
0, 0
0, 0
0, 0
0, 0
0, 0
0, 0
0, 0
0, 0
0, 0
0, 0
0, 0
0, 0
0, 0
0, 0
0, 0
0, 0
0, 0
0, 0
0, 0
0, 0
0, 0
0, 0
0, 0
0, 0
0, 0
0, 0
0, 0
0, 0
0, 0
0, 0
0, 0
0, 0
0, 0
0, 0
0, 0
0, 0
0, 0
0, 0
0, 0
0, 0
0, 0
0, 0
0, 0
0, 0
0, 0
0, 0
0, 0
0, 0
0, 0
0, 0
0, 0
0, 0
0, 0
0, 0
0, 0
0, 0
0, 0
0, 0
0, 0
0, 0
0, 0
0, 0
0, 0
0, 0
0, 0
0, 0
0, 0
0, 0
0, 0
0, 0
0, 0
0, 0
0, 0
0, 0
0, 0
0, 0
0, 0
0, 0
0, 0
0, 0
0, 0
0, 0
0, 0
0, 0
0, 0
0, 0
0, 0
0, 0
0, 0
0, 0
0, 0
0, 0
0, 0
0, 0
0, 0
0, 0
0, 0
0, 0
0, 0
0, 0
0, 0
0, 0
0, 0
0, 0
0, 0
0, 0
0, 0
0, 0
0, 0
0, 0
0, 0
0, 0
0, 0
0, 0
0, 0
0, 0
0, 0
0, 0
0, 0
0, 0
0, 0
0, 0
0, 0
0, 0
0, 0
0, 0
0, 0
0, 0
0, 0
0, 0
0, 0
0, 0
0, 0
0, 0
0, 0
0, 0
0, 0
0, 0
0, 0
0, 0
0, 0
0, 0
0, 0
0, 0
0, 0
0, 0
0, 0
0, 0
0, 0
0, 0
0, 0
0, 0
0, 0
0, 0
0, 0
0, 0
0, 0
0, 0
0, 0
0, 0
0, 0
0, 0
0, 0
0, 0
0, 0
0, 0
0, 0
0, 0
0, 0
0, 0
0, 0
0, 0
0, 0
0, 0
0, 0
0, 0
0, 0
0, 0
0, 0
0, 0
0, 0
0, 0
0, 0
0, 0
0, 0
0, 0
0, 0
0, 0
0, 0
0, 0
0, 0
0, 0
0, 0
0, 0
0, 0
0, 0
0, 0
0, 0
0, 0
0, 0
0, 0
0, 0
0, 0
0, 0
0, 0
0, 0
0, 0
0, 0
0, 0
0, 0
0, 0
0, 0
0, 0
0, 0
0, 0
0, 0
0, 0
0, 0
0, 0
0, 0
0, 0
0, 0
0, 0
0, 0
0, 0
0, 0
0, 0
0, 0
0, 0
0, 0
0, 0
0, 0
0, 0
0, 0
0, 0
0, 0
0, 0
0, 0
0, 0
0, 0
0, 0
0, 0
0, 0
0, 0
0, 0
0, 0
0, 0
0, 0
0, 0
0, 0
0, 0
0, 0
0, 0
0, 0
0, 0
0, 0
0, 0
0, 0
0, 0
0, 0
0, 0
0, 0
0, 0
0, 0
0, 0
0, 0
0, 0
0, 0
0, 0
0, 0
0, 0
0, 0
0, 0
0, 0
0, 0
0, 0
0, 0
0, 0
0, 0
0, 0
0, 0
0, 0
#ENDOFDATA     end of spectrum data