File: host_upload/02-11-2024/rqc/uplink1/ps__0567_0717304816_000rfs_shot_270.msa
#FORMAT      : EMSA/MAS spectral data file
#VERSION     : TC202v2.0 PIXL
#TITLE       : Novarupta (sol567) subset1
#DATE        : 02-11-2024      Date in the format DD-MMM-YYYY, for example 07-JUL-2010
#TIME        :             The time of day at which the spectrum was recorded, in 24-hour format
#OWNER       : PIXL Flight Model       (PIXL will use this to indicate which instrument took the data.)
#NPOINTS     : 4096     Number of data points in the spectrum (This can be zero for configuration only files)
#NCOLUMNS    : 2     Number of data columns in the spectrum (This can be zero for configuration only files)
#XUNITS      : eV
#YUNITS      : COUNTS
#DATATYPE    : YY
#XPERCHAN    : 7.862, 7.881   eV per channel (separate by commas if more than one detector)
#OFFSET      : 18.5, -22.4         eV of first channel  (separate by commas if more than one detector
#SIGNALTYPE  : XRF
#YP_TEMP     : 1.113
#LIVETIME    : 8.83495, 8.81174   seconds (separate by commas if more than one detector)
#REALTIME    : 10, 10.0   seconds (separate by commas if more than one detector)
#SPECTRUM    : start of spectrum data
0, 0
0, 0
0, 0
0, 0
0, 0
0, 0
0, 0
0, 0
0, 0
0, 0
0, 0
0, 0
0, 0
0, 0
0, 0
0, 0
0, 0
0, 0
0, 0
0, 0
0, 0
0, 0
0, 0
0, 0
0, 0
0, 0
0, 0
0, 0
0, 0
0, 0
0, 0
0, 1
0, 0
0, 2
1, 1
2, 5
1, 1
2, 5
2, 4
8, 3
8, 4
1, 3
5, 2
1, 5
4, 2
0, 3
1, 3
4, 1
4, 5
2, 5
3, 9
9, 10
16, 12
5, 20
16, 14
12, 17
14, 19
8, 13
15, 8
9, 16
20, 14
25, 32
38, 50
43, 50
43, 57
45, 54
31, 35
28, 33
39, 42
65, 64
102, 125
168, 253
264, 350
402, 473
460, 523
505, 528
435, 506
343, 375
235, 261
146, 127
76, 79
41, 47
31, 32
34, 29
36, 35
27, 37
33, 32
38, 33
25, 22
25, 19
17, 14
18, 19
25, 28
52, 54
83, 110
137, 157
215, 231
276, 315
316, 353
310, 372
293, 276
202, 250
162, 172
105, 112
68, 62
51, 63
53, 54
65, 70
75, 96
119, 145
169, 211
194, 224
200, 223
204, 256
202, 173
159, 172
137, 155
100, 103
76, 91
81, 89
70, 77
69, 72
66, 64
51, 60
28, 40
38, 41
19, 34
19, 26
16, 23
21, 16
16, 15
11, 12
4, 6
7, 7
10, 8
5, 13
7, 9
18, 21
21, 27
23, 21
28, 34
19, 33
23, 26
33, 28
23, 23
17, 15
14, 12
10, 7
11, 11
20, 18
26, 35
52, 58
92, 98
128, 157
222, 236
312, 338
323, 451
372, 451
343, 394
307, 312
253, 268
153, 153
105, 111
58, 65
36, 39
29, 26
26, 18
41, 45
54, 46
47, 58
72, 63
50, 77
49, 54
40, 52
35, 41
24, 29
19, 19
14, 12
8, 6
11, 12
11, 8
9, 9
6, 7
9, 11
9, 8
10, 16
14, 31
30, 25
27, 43
33, 57
42, 56
68, 59
57, 73
67, 65
46, 43
35, 52
35, 28
30, 39
23, 16
16, 23
9, 15
11, 17
12, 12
6, 7
11, 7
16, 13
9, 16
16, 22
19, 11
22, 14
15, 25
27, 15
12, 16
15, 9
16, 19
16, 11
7, 13
13, 11
8, 11
15, 14
11, 19
12, 15
15, 10
12, 13
15, 14
14, 15
18, 36
21, 33
15, 37
21, 24
22, 37
33, 27
19, 24
30, 27
19, 32
11, 18
11, 22
10, 22
13, 11
11, 14
10, 7
12, 9
12, 13
11, 22
16, 22
18, 26
30, 30
31, 35
40, 38
45, 48
47, 48
61, 52
47, 61
37, 50
32, 35
22, 32
27, 27
25, 30
23, 22
23, 18
19, 25
20, 31
39, 39
53, 85
123, 186
207, 272
339, 519
581, 732
853, 1032
1160, 1380
1430, 1673
1754, 1936
1732, 1959
1672, 1679
1416, 1449
1174, 1117
844, 778
549, 511
370, 325
235, 178
104, 94
68, 57
30, 34
24, 25
25, 27
16, 17
18, 12
18, 17
16, 24
21, 28
20, 35
32, 32
47, 66
54, 66
76, 94
123, 137
175, 186
195, 202
242, 281
272, 316
285, 282
253, 246
198, 194
167, 166
134, 116
95, 69
60, 52
42, 26
31, 15
13, 12
6, 10
14, 5
9, 9
6, 7
11, 18
13, 15
12, 18
14, 17
9, 15
12, 11
8, 9
9, 15
10, 8
6, 6
6, 7
7, 10
7, 7
4, 8
5, 5
7, 6
4, 6
8, 7
9, 8
11, 7
3, 9
3, 6
7, 4
3, 4
5, 5
6, 6
4, 18
6, 7
5, 9
6, 2
5, 10
10, 5
3, 13
8, 8
9, 6
12, 10
8, 7
7, 6
11, 3
7, 7
4, 10
2, 7
5, 10
2, 11
7, 3
3, 6
7, 9
8, 5
10, 7
4, 6
14, 9
17, 12
22, 14
13, 7
9, 9
12, 12
9, 14
4, 12
6, 7
4, 3
4, 7
3, 10
5, 5
7, 5
1, 6
4, 3
5, 4
6, 3
4, 5
9, 9
2, 6
6, 5
6, 9
4, 5
5, 8
4, 8
2, 4
4, 6
4, 8
9, 2
6, 7
4, 8
6, 6
6, 3
6, 3
4, 6
6, 4
4, 5
14, 8
6, 2
3, 5
5, 6
8, 4
1, 4
4, 8
4, 6
6, 5
6, 6
4, 6
2, 5
3, 4
6, 3
7, 6
4, 2
4, 6
4, 1
5, 7
3, 3
6, 7
2, 3
6, 2
5, 5
5, 3
5, 1
4, 7
2, 4
4, 5
3, 3
2, 6
1, 4
1, 5
3, 6
3, 7
5, 1
3, 5
2, 5
4, 2
4, 6
3, 7
5, 2
5, 4
3, 5
3, 2
1, 6
2, 9
4, 4
6, 4
3, 5
2, 2
7, 3
1, 6
1, 5
0, 5
3, 3
6, 4
7, 4
3, 4
4, 1
4, 4
2, 5
2, 1
4, 4
5, 2
3, 3
1, 4
0, 1
3, 2
2, 3
1, 3
3, 3
3, 3
0, 1
3, 5
1, 4
2, 1
2, 3
3, 4
3, 5
4, 2
2, 3
4, 1
3, 1
3, 4
1, 5
4, 5
5, 3
2, 4
3, 1
4, 2
3, 4
2, 5
4, 0
1, 1
1, 4
1, 2
1, 5
3, 4
2, 5
1, 2
5, 2
5, 3
0, 2
2, 4
0, 2
2, 4
1, 3
3, 0
3, 1
2, 5
2, 3
0, 2
3, 3
2, 4
3, 0
1, 2
1, 1
0, 5
1, 3
2, 2
0, 1
2, 2
4, 0
1, 3
2, 2
0, 1
3, 2
2, 0
1, 2
2, 0
3, 1
0, 2
2, 4
0, 6
1, 2
2, 2
3, 3
2, 3
2, 4
2, 4
3, 3
2, 3
2, 1
2, 3
2, 3
3, 3
0, 3
1, 1
0, 2
1, 5
2, 3
2, 4
2, 0
3, 2
1, 0
2, 1
1, 1
1, 1
0, 0
2, 0
1, 1
1, 2
1, 2
1, 2
3, 1
2, 3
1, 4
3, 2
2, 2
3, 3
2, 1
2, 0
1, 2
0, 0
0, 1
0, 1
1, 2
0, 2
2, 0
3, 1
1, 0
0, 1
2, 1
1, 0
2, 2
1, 1
1, 1
1, 1
1, 2
5, 2
0, 1
1, 0
1, 0
1, 0
1, 2
0, 2
1, 3
1, 3
0, 0
1, 3
0, 3
1, 2
0, 0
2, 2
1, 2
1, 1
1, 2
1, 3
0, 0
0, 0
0, 1
1, 3
3, 1
1, 0
1, 0
0, 1
1, 0
0, 0
1, 1
4, 0
0, 0
1, 3
0, 1
0, 1
1, 1
0, 1
0, 1
0, 2
0, 0
0, 2
0, 0
0, 0
1, 0
1, 1
3, 1
0, 1
0, 0
1, 1
1, 1
2, 1
0, 2
0, 1
2, 1
0, 0
0, 0
1, 0
3, 0
2, 0
0, 1
0, 0
1, 0
0, 1
1, 1
0, 0
0, 0
0, 2
1, 1
0, 0
1, 0
0, 2
1, 2
0, 0
0, 0
1, 1
0, 0
0, 1
0, 0
0, 0
0, 1
0, 0
0, 0
1, 0
1, 0
0, 0
0, 0
0, 1
0, 1
1, 0
0, 1
0, 0
0, 0
0, 1
0, 0
1, 0
0, 0
2, 0
1, 0
0, 1
3, 0
0, 0
1, 0
0, 0
0, 0
0, 0
0, 0
0, 0
0, 0
1, 0
0, 0
1, 1
0, 0
0, 0
1, 0
0, 0
1, 0
0, 0
0, 0
0, 2
0, 0
0, 0
0, 0
0, 0
0, 0
0, 1
1, 0
1, 2
0, 0
0, 0
2, 0
1, 1
1, 0
1, 0
0, 0
0, 0
0, 0
0, 1
0, 1
0, 2
0, 0
0, 1
0, 0
0, 0
0, 1
0, 1
0, 0
0, 0
0, 1
0, 0
2, 0
0, 0
0, 1
0, 1
0, 0
0, 1
0, 0
1, 0
0, 1
0, 0
0, 1
0, 1
0, 0
0, 0
0, 0
0, 0
2, 0
1, 0
0, 0
0, 0
0, 0
0, 1
0, 1
0, 0
0, 0
0, 2
0, 0
0, 0
0, 1
0, 1
1, 0
0, 1
1, 0
0, 0
0, 0
1, 0
1, 0
1, 0
0, 0
2, 0
0, 0
1, 0
0, 0
0, 0
1, 0
0, 0
0, 0
0, 0
0, 1
0, 1
0, 0
0, 0
1, 0
1, 0
0, 0
0, 0
1, 0
0, 1
0, 1
2, 2
1, 0
0, 0
1, 1
0, 0
0, 0
0, 0
1, 0
0, 0
0, 0
0, 1
0, 0
0, 0
0, 1
0, 0
0, 0
0, 1
0, 0
0, 0
0, 0
1, 1
0, 0
0, 0
0, 0
0, 0
0, 0
0, 0
0, 0
0, 0
0, 0
0, 1
0, 0
0, 0
1, 0
0, 0
0, 0
0, 0
0, 0
0, 0
0, 0
0, 0
0, 0
0, 0
0, 0
0, 0
0, 0
0, 0
0, 0
0, 0
1, 0
1, 0
1, 0
1, 1
1, 0
0, 0
0, 0
0, 0
0, 1
0, 0
0, 0
0, 0
0, 0
0, 0
0, 0
0, 0
0, 0
0, 0
0, 0
0, 0
0, 0
0, 0
0, 0
0, 0
0, 0
0, 0
0, 0
0, 0
0, 0
0, 0
0, 0
0, 0
0, 0
0, 0
0, 0
1, 0
0, 0
0, 0
0, 0
0, 0
0, 0
0, 0
0, 0
0, 0
0, 0
0, 0
0, 0
1, 0
0, 0
0, 0
0, 0
0, 0
0, 0
0, 0
0, 0
0, 0
0, 0
0, 0
0, 0
0, 0
0, 0
0, 0
0, 0
0, 0
0, 0
0, 1
0, 0
0, 0
0, 0
0, 0
0, 0
0, 0
0, 0
0, 0
0, 0
0, 0
0, 0
0, 0
0, 0
1, 0
0, 0
0, 0
0, 0
0, 0
0, 0
0, 0
0, 0
0, 0
0, 0
0, 0
0, 0
0, 0
0, 0
0, 0
0, 0
0, 0
0, 0
0, 0
0, 0
0, 0
0, 0
0, 0
0, 0
0, 0
0, 0
0, 0
0, 0
0, 0
0, 0
0, 0
0, 0
0, 0
0, 0
0, 0
0, 0
0, 0
0, 0
0, 0
0, 0
1, 0
0, 0
0, 0
0, 0
0, 0
0, 0
0, 0
0, 0
0, 0
0, 0
0, 0
0, 0
0, 0
0, 0
0, 0
0, 1
0, 0
0, 0
0, 0
0, 0
0, 0
0, 0
0, 0
0, 0
0, 0
0, 0
0, 0
0, 0
0, 0
0, 0
0, 0
0, 0
0, 0
0, 0
0, 0
0, 0
0, 0
0, 0
0, 0
0, 0
0, 0
0, 0
0, 0
0, 0
0, 0
0, 0
0, 0
0, 0
0, 0
0, 0
0, 0
0, 0
0, 0
0, 0
0, 0
0, 0
0, 0
0, 0
0, 0
0, 0
0, 0
0, 0
0, 0
0, 0
0, 0
0, 0
0, 0
0, 0
0, 0
0, 0
0, 0
0, 0
0, 0
0, 0
0, 0
0, 0
0, 0
0, 0
0, 0
0, 0
0, 0
0, 0
0, 0
0, 0
0, 0
0, 0
0, 0
0, 0
0, 0
0, 0
0, 0
0, 0
0, 0
0, 0
0, 0
0, 0
0, 0
0, 0
0, 0
0, 0
0, 0
0, 0
0, 0
0, 0
0, 0
0, 0
0, 0
0, 0
0, 0
0, 0
0, 0
0, 0
0, 0
0, 0
0, 0
0, 0
0, 0
0, 0
0, 0
0, 0
0, 0
0, 0
0, 0
0, 0
0, 0
0, 0
0, 0
0, 0
0, 0
0, 0
0, 0
0, 0
0, 0
0, 0
0, 0
0, 0
0, 0
0, 0
0, 0
0, 0
0, 0
0, 0
0, 0
0, 0
0, 0
0, 0
0, 0
0, 0
0, 0
0, 0
0, 0
0, 0
0, 0
0, 0
0, 0
0, 0
0, 0
0, 0
0, 0
0, 0
0, 0
0, 0
0, 0
0, 0
0, 0
0, 0
0, 0
0, 0
0, 0
0, 0
0, 0
0, 0
0, 0
0, 0
0, 0
0, 0
0, 0
0, 0
0, 0
0, 0
0, 0
0, 0
0, 0
0, 0
0, 0
0, 0
0, 0
0, 0
0, 0
0, 0
0, 0
0, 0
0, 0
0, 0
0, 0
0, 0
0, 0
0, 0
0, 0
0, 0
0, 0
0, 0
0, 0
0, 0
0, 0
0, 0
0, 0
0, 0
0, 0
0, 0
0, 0
0, 0
0, 0
0, 0
0, 0
0, 0
0, 0
0, 0
0, 0
0, 0
0, 0
0, 0
0, 0
0, 0
0, 0
0, 0
0, 0
0, 0
0, 0
0, 0
0, 0
0, 0
0, 0
0, 0
0, 0
0, 0
0, 0
0, 0
0, 0
0, 0
0, 0
0, 0
0, 0
0, 0
0, 0
0, 0
0, 0
0, 0
0, 0
0, 0
0, 0
0, 0
0, 0
0, 0
0, 0
0, 0
0, 0
0, 0
0, 0
0, 0
0, 0
0, 0
0, 0
0, 0
0, 0
0, 0
0, 0
0, 0
0, 0
0, 0
0, 0
0, 0
0, 0
0, 0
0, 0
0, 0
0, 0
0, 0
0, 0
0, 0
0, 0
0, 0
0, 0
0, 0
0, 0
0, 0
0, 0
0, 0
0, 0
0, 0
0, 0
0, 0
0, 0
0, 0
0, 0
0, 0
0, 0
0, 0
0, 0
0, 0
0, 0
0, 0
0, 0
0, 0
0, 0
0, 0
0, 0
0, 0
0, 0
0, 0
0, 0
0, 0
0, 0
0, 0
0, 0
0, 0
0, 0
0, 0
0, 0
0, 0
0, 0
0, 0
0, 0
0, 0
0, 0
0, 0
0, 0
0, 0
0, 0
0, 0
0, 0
0, 0
0, 0
0, 0
0, 0
0, 0
0, 0
0, 0
0, 0
0, 0
0, 0
0, 0
0, 0
0, 0
0, 0
0, 0
0, 0
0, 0
0, 0
0, 0
0, 0
0, 0
0, 0
0, 0
0, 0
0, 0
0, 0
0, 0
0, 0
0, 0
0, 0
0, 0
0, 0
0, 0
0, 0
0, 0
0, 0
0, 0
0, 0
0, 0
0, 0
0, 0
0, 0
0, 0
0, 0
0, 0
0, 0
0, 0
0, 0
0, 0
0, 0
0, 0
0, 0
0, 0
0, 0
0, 0
0, 0
0, 0
0, 0
0, 0
0, 0
0, 0
0, 0
0, 0
0, 0
0, 0
0, 0
0, 0
#ENDOFDATA     end of spectrum data