File: host_upload/02-11-2024/rqc/uplink1/ps__0567_0717304816_000rfs_shot_259.msa
#FORMAT      : EMSA/MAS spectral data file
#VERSION     : TC202v2.0 PIXL
#TITLE       : Novarupta (sol567) subset1
#DATE        : 02-11-2024      Date in the format DD-MMM-YYYY, for example 07-JUL-2010
#TIME        :             The time of day at which the spectrum was recorded, in 24-hour format
#OWNER       : PIXL Flight Model       (PIXL will use this to indicate which instrument took the data.)
#NPOINTS     : 4096     Number of data points in the spectrum (This can be zero for configuration only files)
#NCOLUMNS    : 2     Number of data columns in the spectrum (This can be zero for configuration only files)
#XUNITS      : eV
#YUNITS      : COUNTS
#DATATYPE    : YY
#XPERCHAN    : 7.862, 7.881   eV per channel (separate by commas if more than one detector)
#OFFSET      : 18.5, -22.4         eV of first channel  (separate by commas if more than one detector
#SIGNALTYPE  : XRF
#YP_TEMP     : 1.209
#LIVETIME    : 8.83193, 8.82021   seconds (separate by commas if more than one detector)
#REALTIME    : 10, 10.0   seconds (separate by commas if more than one detector)
#SPECTRUM    : start of spectrum data
0, 0
0, 0
0, 0
0, 0
0, 0
0, 0
0, 0
0, 0
0, 0
0, 0
0, 0
0, 0
0, 0
0, 0
0, 0
0, 0
0, 0
0, 0
0, 0
0, 0
0, 0
0, 0
0, 0
0, 0
0, 0
0, 0
0, 0
0, 0
0, 0
0, 0
0, 0
1, 0
0, 0
0, 0
0, 0
1, 3
0, 2
5, 0
2, 3
2, 3
6, 5
5, 1
2, 2
5, 3
1, 3
3, 4
3, 1
3, 4
2, 6
4, 4
4, 2
13, 8
11, 16
18, 14
14, 23
21, 14
12, 11
11, 13
9, 9
10, 11
23, 24
18, 23
39, 39
45, 51
54, 54
39, 45
43, 41
35, 32
37, 38
59, 62
94, 130
176, 205
272, 336
396, 439
504, 525
471, 516
452, 422
351, 313
235, 206
137, 127
84, 80
61, 41
39, 40
38, 40
34, 40
24, 27
41, 24
30, 34
34, 27
24, 16
17, 24
19, 18
27, 35
41, 50
77, 70
136, 158
202, 220
255, 268
331, 292
268, 297
276, 279
214, 208
137, 168
101, 95
67, 61
59, 62
54, 61
71, 67
85, 89
124, 153
169, 170
230, 207
243, 245
206, 240
190, 187
181, 155
129, 131
107, 108
102, 73
84, 82
80, 84
78, 75
70, 70
58, 67
44, 47
36, 32
22, 29
25, 26
20, 17
20, 23
13, 13
8, 6
13, 7
5, 8
5, 6
7, 6
11, 10
17, 22
21, 10
26, 20
26, 19
35, 34
29, 28
24, 34
19, 24
17, 14
16, 9
4, 12
14, 13
8, 15
28, 30
38, 67
80, 116
144, 161
218, 210
279, 287
317, 331
363, 392
377, 361
331, 319
213, 252
171, 171
103, 106
55, 58
39, 42
22, 33
28, 32
33, 43
40, 40
43, 48
57, 76
51, 57
55, 55
47, 49
32, 28
28, 23
28, 14
16, 19
6, 10
10, 9
4, 7
6, 14
3, 11
8, 10
15, 11
11, 22
22, 24
20, 20
38, 36
43, 54
48, 64
51, 70
64, 71
62, 49
71, 69
46, 50
28, 32
32, 35
18, 19
17, 17
18, 19
11, 10
15, 13
25, 15
16, 10
11, 11
19, 20
12, 13
16, 22
22, 18
23, 21
20, 28
19, 12
17, 16
14, 13
13, 13
16, 9
12, 10
9, 13
13, 11
11, 11
10, 14
10, 15
14, 14
16, 21
15, 22
14, 22
22, 23
20, 31
25, 30
35, 48
33, 37
29, 36
27, 20
30, 21
24, 15
17, 12
10, 15
17, 14
10, 18
11, 9
10, 13
21, 15
12, 17
12, 19
21, 17
40, 29
32, 31
28, 33
49, 43
45, 72
34, 53
54, 59
51, 43
38, 34
29, 25
34, 27
19, 19
13, 12
16, 19
12, 14
31, 42
48, 49
76, 86
130, 164
218, 260
387, 468
588, 727
793, 1071
1277, 1383
1496, 1586
1669, 1840
1777, 1826
1710, 1708
1466, 1459
1178, 1127
861, 797
586, 490
355, 302
216, 183
136, 108
77, 61
36, 25
19, 23
24, 17
18, 14
16, 19
17, 19
21, 16
26, 23
23, 26
43, 38
35, 46
53, 65
99, 100
132, 131
176, 165
229, 218
247, 278
273, 291
275, 297
258, 257
230, 195
174, 144
133, 106
97, 73
56, 43
34, 33
33, 15
12, 12
10, 7
9, 6
8, 8
8, 15
12, 7
11, 15
7, 17
16, 12
8, 13
5, 15
9, 16
14, 12
12, 8
12, 4
11, 5
4, 7
9, 12
6, 7
6, 7
4, 4
3, 8
4, 5
4, 4
5, 4
6, 5
10, 7
4, 2
4, 7
6, 8
8, 3
6, 5
11, 5
3, 5
5, 7
8, 5
11, 8
5, 5
3, 11
8, 4
11, 8
5, 6
2, 8
7, 6
6, 8
8, 6
6, 4
11, 7
8, 4
7, 11
9, 11
8, 9
7, 7
10, 12
10, 8
7, 8
9, 9
16, 16
11, 15
8, 13
8, 11
8, 10
4, 10
15, 9
14, 6
10, 4
4, 6
5, 9
9, 5
6, 5
5, 9
4, 6
8, 2
9, 4
6, 3
10, 3
6, 11
3, 4
4, 4
7, 7
6, 6
6, 4
9, 3
3, 7
4, 5
4, 7
1, 5
6, 5
2, 2
6, 5
11, 7
5, 4
6, 2
9, 2
3, 5
6, 7
6, 8
3, 4
8, 11
4, 6
4, 7
5, 3
8, 6
4, 8
8, 2
3, 4
5, 5
7, 2
3, 4
2, 4
2, 1
3, 8
3, 3
7, 5
5, 4
4, 5
6, 5
7, 3
6, 2
6, 7
3, 3
5, 9
4, 3
3, 6
6, 0
4, 4
4, 3
6, 4
9, 4
4, 2
2, 3
7, 1
5, 4
3, 3
5, 1
1, 2
4, 2
2, 8
4, 4
3, 1
4, 4
3, 5
7, 6
2, 3
3, 2
4, 3
2, 2
7, 7
2, 1
5, 5
4, 2
3, 5
3, 1
3, 4
3, 1
4, 5
3, 3
7, 4
3, 5
3, 3
2, 1
1, 5
2, 5
3, 2
4, 3
2, 2
3, 4
3, 1
1, 5
4, 5
2, 5
2, 2
2, 3
1, 1
3, 2
5, 2
2, 2
2, 2
3, 1
2, 4
2, 2
2, 2
1, 2
4, 4
3, 3
4, 2
1, 1
0, 4
2, 4
2, 3
0, 1
4, 6
7, 2
2, 1
1, 4
0, 2
3, 2
2, 1
1, 0
3, 2
2, 1
1, 1
4, 2
3, 0
1, 3
1, 3
1, 4
4, 4
1, 2
1, 1
3, 3
3, 0
3, 0
0, 3
1, 3
3, 3
5, 2
0, 4
2, 3
8, 0
0, 6
5, 1
5, 3
2, 3
1, 1
2, 1
0, 1
2, 1
0, 5
3, 3
4, 1
3, 2
8, 2
5, 4
3, 2
4, 5
3, 2
2, 1
2, 3
0, 3
6, 1
1, 0
4, 2
2, 0
0, 2
2, 4
1, 3
2, 0
0, 2
3, 0
4, 2
4, 3
0, 1
3, 2
1, 2
0, 1
0, 3
1, 0
1, 2
0, 1
2, 3
1, 0
2, 2
1, 0
1, 0
1, 1
3, 2
1, 1
1, 3
3, 1
1, 2
4, 1
1, 1
1, 0
1, 2
0, 1
3, 2
1, 5
2, 4
3, 1
2, 0
1, 1
0, 2
0, 2
2, 1
1, 3
2, 3
1, 0
1, 0
0, 1
0, 0
1, 0
0, 1
1, 1
1, 1
2, 0
2, 0
1, 1
1, 0
1, 0
0, 2
1, 0
1, 2
2, 2
0, 1
0, 1
0, 1
1, 3
2, 1
2, 1
0, 0
0, 2
0, 0
0, 2
2, 2
1, 0
2, 0
0, 0
0, 0
1, 1
0, 0
0, 3
0, 1
1, 2
1, 3
0, 0
1, 1
2, 2
0, 0
0, 0
0, 1
1, 0
1, 2
0, 0
0, 1
0, 0
0, 1
2, 1
0, 0
1, 0
0, 1
0, 0
1, 0
2, 0
0, 0
2, 1
0, 1
1, 0
0, 0
1, 1
0, 0
0, 0
1, 0
1, 2
0, 0
1, 0
1, 0
0, 1
2, 1
0, 0
2, 0
0, 2
1, 0
1, 1
1, 2
1, 0
0, 2
2, 0
0, 0
1, 1
1, 0
1, 0
1, 1
0, 1
0, 0
0, 0
1, 0
0, 1
2, 1
0, 0
2, 2
0, 0
0, 0
0, 0
1, 0
1, 0
0, 0
0, 2
0, 0
1, 0
1, 0
0, 0
1, 1
0, 0
0, 1
1, 0
0, 0
0, 1
0, 0
0, 1
0, 0
1, 0
0, 0
0, 1
1, 0
0, 1
0, 0
0, 0
0, 0
0, 0
1, 0
0, 1
0, 0
0, 0
0, 0
0, 1
0, 0
1, 0
1, 1
0, 1
0, 1
1, 0
1, 0
0, 1
0, 2
1, 0
0, 0
1, 0
0, 0
1, 1
0, 0
0, 0
0, 0
0, 0
0, 0
0, 0
1, 0
1, 0
0, 0
0, 1
0, 0
2, 0
0, 0
0, 0
2, 0
1, 0
0, 0
0, 0
1, 0
0, 0
0, 0
0, 0
0, 0
1, 0
0, 0
0, 0
1, 0
0, 0
0, 0
0, 0
0, 1
0, 0
0, 1
1, 0
0, 1
1, 0
0, 0
0, 0
0, 1
0, 0
0, 0
0, 0
0, 0
1, 1
0, 0
0, 1
0, 0
1, 1
0, 0
2, 0
0, 0
2, 0
0, 0
0, 0
1, 0
1, 0
1, 1
1, 0
0, 1
0, 0
0, 0
0, 0
0, 1
0, 0
0, 0
0, 0
0, 0
0, 0
1, 0
0, 0
0, 0
0, 0
0, 0
0, 0
0, 0
0, 0
0, 0
0, 0
0, 0
1, 0
0, 0
0, 0
0, 0
1, 1
1, 0
0, 0
0, 0
0, 0
0, 0
0, 0
0, 0
0, 1
0, 0
0, 0
0, 0
0, 0
0, 0
0, 1
0, 0
0, 0
0, 0
1, 0
0, 0
0, 2
0, 0
0, 0
0, 1
0, 0
1, 0
0, 0
0, 1
0, 0
0, 0
0, 1
0, 0
0, 0
0, 0
1, 0
0, 0
0, 0
0, 0
0, 0
0, 0
0, 0
0, 1
0, 0
0, 0
0, 0
0, 0
0, 0
0, 0
1, 0
0, 0
0, 0
0, 0
0, 0
0, 0
0, 0
0, 0
1, 0
0, 0
0, 0
0, 0
0, 0
0, 0
0, 0
0, 0
0, 0
0, 0
0, 0
0, 0
0, 0
0, 1
0, 0
0, 0
0, 0
0, 0
0, 0
0, 0
0, 0
0, 0
0, 0
0, 0
0, 0
0, 0
0, 0
0, 0
0, 1
0, 0
0, 0
0, 0
0, 0
0, 0
0, 1
0, 0
0, 0
0, 0
0, 0
0, 0
0, 0
0, 0
0, 0
0, 0
0, 0
0, 0
0, 0
0, 0
0, 0
0, 1
0, 0
0, 0
0, 0
0, 0
0, 0
0, 0
0, 0
0, 0
0, 0
0, 0
0, 0
1, 0
0, 0
0, 0
0, 0
0, 0
0, 0
0, 0
0, 0
0, 0
0, 0
0, 0
0, 0
0, 0
0, 0
0, 0
0, 0
0, 0
0, 0
0, 0
0, 0
0, 0
1, 0
0, 0
0, 1
0, 0
0, 0
0, 0
0, 0
0, 0
0, 0
0, 0
0, 0
0, 0
0, 0
0, 0
0, 0
0, 0
1, 0
0, 0
0, 0
0, 0
0, 0
0, 0
0, 0
0, 0
0, 0
0, 0
0, 0
0, 0
0, 0
0, 0
0, 0
0, 0
0, 0
0, 1
0, 0
0, 0
0, 0
0, 0
0, 0
0, 0
0, 0
0, 0
0, 0
0, 0
0, 0
0, 0
0, 0
0, 0
0, 0
0, 0
0, 0
0, 0
0, 0
0, 0
0, 0
0, 0
0, 0
0, 0
0, 0
0, 0
0, 0
0, 0
0, 0
0, 0
0, 0
0, 0
0, 0
0, 0
0, 0
0, 0
0, 0
0, 0
0, 0
0, 0
0, 0
0, 0
0, 0
0, 0
0, 0
0, 0
0, 0
0, 0
0, 0
0, 0
0, 0
0, 0
0, 0
0, 0
0, 0
0, 0
0, 0
0, 0
0, 0
0, 0
0, 0
0, 0
0, 0
0, 0
0, 0
0, 0
0, 0
0, 0
0, 0
0, 0
0, 0
0, 0
0, 0
0, 0
0, 0
0, 0
0, 0
0, 0
0, 0
0, 0
0, 0
0, 0
0, 0
0, 0
0, 0
0, 0
0, 0
0, 0
0, 0
0, 0
0, 0
0, 0
0, 0
0, 0
0, 0
0, 0
0, 0
0, 0
0, 0
0, 0
0, 0
0, 0
0, 0
0, 0
0, 0
0, 0
0, 0
0, 0
0, 0
0, 0
0, 0
0, 0
0, 0
0, 0
0, 0
0, 0
0, 0
0, 0
0, 0
0, 0
0, 0
0, 0
0, 0
0, 0
0, 0
0, 0
0, 0
0, 0
0, 0
0, 0
0, 0
0, 0
0, 0
0, 0
0, 0
0, 0
0, 0
0, 0
0, 0
0, 0
0, 0
0, 0
0, 0
0, 0
0, 0
0, 0
0, 0
0, 0
0, 0
0, 0
0, 0
0, 0
0, 0
0, 0
0, 0
0, 0
0, 0
0, 0
0, 0
0, 0
0, 0
0, 0
0, 0
0, 0
0, 0
0, 0
0, 0
0, 0
0, 0
0, 0
0, 0
0, 0
0, 0
0, 0
0, 0
0, 0
0, 0
0, 0
0, 0
0, 0
0, 0
0, 0
0, 0
0, 0
0, 0
0, 0
0, 0
0, 0
0, 0
0, 0
0, 0
0, 0
0, 0
0, 0
0, 0
0, 0
0, 0
0, 0
0, 0
0, 0
0, 0
0, 0
0, 0
0, 0
0, 0
0, 0
0, 0
0, 0
0, 0
0, 0
0, 0
0, 0
0, 0
0, 0
0, 0
0, 0
0, 0
0, 0
0, 0
0, 0
0, 0
0, 0
0, 0
0, 0
0, 0
0, 0
0, 0
0, 0
0, 0
0, 0
0, 0
0, 0
0, 0
0, 0
0, 0
0, 0
0, 0
0, 0
0, 0
0, 0
0, 0
0, 0
0, 0
0, 0
0, 0
0, 0
0, 0
0, 0
0, 0
0, 0
0, 0
0, 0
0, 0
0, 0
0, 0
0, 0
0, 0
0, 0
0, 0
0, 0
0, 0
0, 0
0, 0
0, 0
0, 0
0, 0
0, 0
0, 0
0, 0
0, 0
0, 0
0, 0
0, 0
0, 0
0, 0
0, 0
0, 0
0, 0
0, 0
0, 0
0, 0
0, 0
0, 0
0, 0
0, 0
0, 0
0, 0
0, 0
0, 0
0, 0
0, 0
0, 0
0, 0
0, 0
0, 0
0, 0
0, 0
0, 0
0, 0
0, 0
0, 0
0, 0
0, 0
0, 0
0, 0
0, 0
0, 0
0, 0
0, 0
0, 0
0, 0
0, 0
0, 0
0, 0
0, 0
0, 0
0, 0
0, 0
0, 0
0, 0
0, 0
0, 0
0, 0
0, 0
0, 0
0, 0
0, 0
0, 0
0, 0
0, 0
0, 0
0, 0
0, 0
0, 0
0, 0
0, 0
0, 0
0, 0
0, 0
0, 0
0, 0
0, 0
0, 0
0, 0
0, 0
0, 0
0, 0
0, 0
0, 0
0, 0
0, 0
0, 0
0, 0
0, 0
0, 0
0, 0
0, 0
0, 0
0, 0
0, 0
0, 0
0, 0
0, 0
0, 0
0, 0
0, 0
0, 0
0, 0
0, 0
0, 0
0, 0
0, 0
#ENDOFDATA     end of spectrum data