File: host_upload/02-11-2024/rqc/uplink1/ps__0567_0717304816_000rfs_shot_115.msa
#FORMAT      : EMSA/MAS spectral data file
#VERSION     : TC202v2.0 PIXL
#TITLE       : Novarupta (sol567) subset1
#DATE        : 02-11-2024      Date in the format DD-MMM-YYYY, for example 07-JUL-2010
#TIME        :             The time of day at which the spectrum was recorded, in 24-hour format
#OWNER       : PIXL Flight Model       (PIXL will use this to indicate which instrument took the data.)
#NPOINTS     : 4096     Number of data points in the spectrum (This can be zero for configuration only files)
#NCOLUMNS    : 2     Number of data columns in the spectrum (This can be zero for configuration only files)
#XUNITS      : eV
#YUNITS      : COUNTS
#DATATYPE    : YY
#XPERCHAN    : 7.862, 7.881   eV per channel (separate by commas if more than one detector)
#OFFSET      : 18.5, -22.4         eV of first channel  (separate by commas if more than one detector
#SIGNALTYPE  : XRF
#YP_TEMP     : -0.619
#LIVETIME    : 8.84554, 8.83766   seconds (separate by commas if more than one detector)
#REALTIME    : 10, 10.0   seconds (separate by commas if more than one detector)
#SPECTRUM    : start of spectrum data
0, 0
0, 0
0, 0
0, 0
0, 0
0, 0
0, 0
0, 0
0, 0
0, 0
0, 0
0, 0
0, 0
0, 0
0, 0
0, 0
0, 0
0, 0
0, 0
0, 0
0, 0
0, 0
0, 0
0, 0
0, 0
0, 0
0, 0
0, 0
0, 0
0, 0
0, 0
0, 1
0, 1
1, 0
0, 0
1, 2
4, 2
2, 3
3, 4
2, 4
1, 7
3, 3
2, 2
2, 3
2, 4
3, 0
1, 4
4, 4
4, 8
2, 3
7, 10
7, 10
7, 11
18, 13
14, 14
15, 12
7, 9
10, 6
8, 9
6, 10
14, 12
25, 22
40, 37
46, 47
56, 46
45, 35
33, 34
32, 28
34, 32
63, 59
99, 127
205, 203
286, 340
414, 412
453, 522
490, 497
434, 435
309, 313
228, 213
142, 137
81, 78
50, 46
35, 40
30, 33
28, 28
32, 36
37, 25
30, 30
25, 22
27, 27
16, 9
19, 18
20, 29
53, 51
78, 94
132, 125
212, 229
279, 242
295, 300
303, 290
265, 262
238, 213
155, 151
107, 98
68, 70
59, 60
56, 56
70, 56
94, 111
109, 141
168, 191
196, 212
218, 243
185, 200
181, 186
155, 169
124, 133
104, 113
97, 82
74, 80
76, 67
86, 68
65, 69
58, 59
35, 33
31, 26
33, 33
29, 16
14, 17
19, 17
12, 12
14, 10
7, 11
11, 12
7, 5
2, 5
8, 7
10, 13
15, 13
19, 22
24, 24
32, 22
33, 36
22, 24
22, 10
15, 19
13, 10
17, 9
12, 10
21, 19
31, 40
40, 60
80, 110
124, 162
213, 262
292, 335
346, 391
353, 394
327, 353
273, 281
220, 205
150, 142
98, 96
59, 64
41, 34
27, 35
33, 24
35, 32
36, 56
49, 40
61, 46
55, 61
49, 51
40, 58
27, 33
27, 32
16, 26
14, 15
11, 9
9, 7
9, 8
12, 11
8, 4
5, 10
10, 11
19, 21
12, 21
24, 28
31, 37
33, 45
56, 50
54, 56
45, 63
60, 59
46, 47
50, 45
38, 40
26, 29
24, 19
22, 15
21, 22
15, 17
12, 10
7, 11
7, 21
12, 13
13, 10
19, 24
22, 24
21, 22
11, 20
18, 23
21, 17
25, 11
17, 15
14, 13
17, 14
7, 16
5, 4
10, 8
13, 11
8, 8
6, 20
10, 16
11, 13
16, 23
17, 15
23, 33
23, 33
24, 26
28, 40
22, 28
23, 26
21, 28
19, 18
13, 20
21, 11
12, 13
10, 11
12, 7
9, 14
14, 10
11, 13
17, 17
15, 18
22, 18
26, 24
25, 35
27, 40
37, 39
43, 30
40, 48
44, 40
44, 36
33, 39
29, 26
18, 19
22, 14
21, 16
18, 20
29, 19
19, 35
48, 52
85, 101
132, 190
272, 300
421, 493
614, 739
930, 1071
1135, 1365
1490, 1615
1627, 1712
1649, 1776
1556, 1632
1313, 1313
1038, 1017
793, 734
566, 481
321, 268
197, 144
91, 93
63, 53
29, 32
22, 30
19, 14
11, 17
14, 16
15, 14
18, 8
28, 25
24, 24
31, 47
40, 47
53, 84
98, 112
131, 145
168, 199
188, 223
225, 265
261, 260
253, 264
236, 238
209, 174
169, 160
106, 94
75, 79
54, 41
32, 34
24, 17
5, 11
12, 5
9, 11
8, 12
11, 11
10, 17
13, 10
9, 14
15, 8
13, 16
16, 11
4, 13
9, 6
9, 6
7, 9
7, 9
8, 9
4, 9
9, 4
5, 8
6, 5
6, 3
6, 3
7, 5
5, 10
9, 4
3, 2
2, 4
6, 12
5, 2
3, 4
6, 11
11, 9
4, 3
7, 8
3, 6
7, 5
11, 5
5, 12
4, 12
8, 7
6, 7
7, 6
8, 7
10, 7
4, 4
7, 6
9, 10
4, 4
5, 11
1, 6
5, 5
9, 6
12, 13
9, 7
7, 8
9, 11
7, 14
15, 13
6, 8
16, 4
5, 12
6, 16
9, 8
8, 8
7, 3
4, 4
9, 6
10, 5
7, 8
5, 3
8, 3
7, 7
4, 2
8, 3
6, 7
8, 7
7, 5
2, 6
5, 3
8, 6
4, 5
7, 5
4, 7
3, 5
7, 4
7, 4
4, 7
4, 5
5, 4
6, 8
7, 5
5, 3
7, 6
3, 2
6, 5
4, 7
2, 7
3, 7
9, 4
4, 7
6, 8
4, 12
3, 6
3, 6
5, 8
4, 2
7, 3
4, 5
3, 5
5, 4
3, 6
3, 6
4, 8
2, 5
5, 0
4, 5
3, 3
5, 6
6, 7
3, 8
5, 4
5, 4
3, 2
5, 6
0, 3
2, 4
3, 4
3, 1
4, 1
3, 1
3, 1
2, 3
1, 3
5, 1
3, 2
2, 6
4, 5
5, 3
2, 4
4, 4
6, 2
3, 10
5, 1
7, 2
0, 7
6, 5
4, 5
5, 7
7, 3
4, 2
3, 2
2, 4
2, 3
1, 4
5, 2
0, 4
0, 1
0, 3
5, 5
5, 3
1, 3
7, 3
3, 5
1, 4
1, 3
2, 4
5, 4
3, 2
4, 0
3, 2
2, 1
5, 3
2, 6
2, 0
1, 2
1, 1
1, 2
3, 3
2, 5
3, 2
2, 2
3, 0
4, 0
1, 3
5, 1
4, 2
1, 2
1, 5
2, 1
2, 1
0, 0
2, 2
2, 0
2, 6
4, 5
2, 0
0, 3
4, 2
5, 3
4, 3
2, 2
3, 3
3, 2
2, 2
0, 2
3, 3
2, 1
3, 5
1, 2
3, 1
4, 2
5, 2
5, 2
4, 2
1, 6
4, 1
1, 0
0, 2
3, 2
2, 6
1, 7
3, 3
1, 2
3, 2
3, 1
3, 1
2, 3
0, 2
2, 1
2, 2
3, 3
2, 2
2, 1
4, 3
1, 2
2, 2
2, 2
6, 3
2, 3
5, 1
2, 4
6, 0
3, 3
3, 2
2, 1
1, 0
1, 0
1, 0
1, 1
2, 3
2, 3
3, 2
1, 3
1, 1
1, 0
0, 1
1, 1
1, 0
3, 2
2, 3
0, 1
2, 1
0, 0
1, 2
1, 2
0, 4
2, 3
1, 1
1, 1
2, 1
2, 1
1, 3
1, 2
2, 1
1, 2
3, 3
3, 3
1, 3
1, 0
1, 2
0, 0
2, 1
2, 2
0, 1
0, 1
2, 0
1, 0
3, 1
0, 1
0, 1
1, 2
1, 1
1, 0
0, 0
0, 2
1, 2
1, 0
1, 0
1, 2
2, 2
3, 2
0, 4
1, 1
2, 0
1, 1
0, 0
2, 1
1, 3
0, 1
3, 0
0, 3
3, 2
1, 3
1, 0
1, 1
0, 2
1, 1
0, 1
1, 1
0, 1
1, 2
1, 1
1, 1
1, 3
1, 2
0, 1
0, 2
0, 2
1, 1
1, 0
2, 1
1, 0
1, 0
0, 0
1, 0
1, 3
0, 0
0, 2
1, 0
1, 2
0, 0
0, 0
0, 0
0, 2
1, 0
2, 0
0, 0
0, 1
0, 1
0, 0
0, 1
0, 0
1, 0
1, 0
1, 1
0, 0
1, 0
2, 0
0, 1
1, 1
1, 0
1, 0
1, 1
2, 1
2, 0
2, 1
1, 0
0, 0
2, 1
2, 0
0, 0
0, 0
1, 0
0, 1
0, 0
0, 0
0, 0
0, 1
2, 0
0, 0
0, 0
0, 1
0, 0
0, 0
1, 0
0, 0
2, 0
0, 0
0, 1
1, 0
0, 1
3, 0
1, 0
1, 0
0, 0
0, 0
1, 0
1, 0
0, 0
0, 0
1, 0
1, 2
0, 0
0, 0
0, 0
1, 0
0, 0
0, 0
0, 1
1, 0
0, 1
0, 0
1, 0
0, 1
0, 1
0, 1
1, 0
1, 1
1, 1
0, 0
1, 1
0, 1
0, 0
0, 1
0, 0
0, 0
0, 1
0, 0
0, 0
0, 1
0, 0
0, 0
0, 1
0, 0
1, 0
0, 0
0, 2
0, 1
0, 1
0, 0
1, 1
0, 0
0, 0
2, 0
0, 0
0, 0
1, 0
0, 0
0, 0
1, 0
0, 0
0, 1
0, 1
2, 0
0, 0
0, 1
0, 0
0, 0
0, 0
0, 0
0, 0
0, 0
0, 0
0, 0
0, 0
0, 0
0, 1
0, 0
1, 0
0, 0
1, 1
1, 0
0, 0
0, 0
0, 1
0, 0
0, 0
1, 0
1, 0
1, 0
0, 0
0, 0
1, 0
0, 2
0, 0
0, 1
0, 0
0, 1
2, 0
0, 0
0, 0
1, 0
0, 0
0, 0
0, 0
0, 0
0, 0
1, 0
1, 0
1, 1
0, 0
1, 0
0, 0
0, 0
0, 0
0, 0
0, 0
1, 0
0, 0
0, 0
0, 0
0, 0
1, 0
0, 0
0, 0
0, 0
0, 0
0, 0
1, 0
0, 0
0, 0
0, 1
0, 1
0, 0
0, 0
0, 0
0, 0
0, 0
0, 0
0, 0
0, 0
0, 0
0, 0
0, 0
0, 0
0, 0
0, 0
1, 1
0, 0
0, 0
0, 3
0, 0
0, 0
0, 0
0, 0
0, 0
0, 1
1, 2
0, 0
0, 0
0, 0
0, 0
0, 0
0, 0
0, 0
0, 1
0, 0
0, 0
1, 1
0, 0
0, 0
0, 0
0, 0
0, 0
0, 0
0, 0
0, 1
0, 0
0, 0
0, 0
0, 0
0, 0
0, 0
0, 0
0, 0
0, 0
0, 0
0, 0
0, 0
0, 0
0, 0
1, 0
0, 0
0, 0
0, 0
0, 0
0, 0
0, 1
0, 0
0, 0
0, 0
0, 0
0, 0
0, 0
0, 0
0, 0
0, 0
0, 0
0, 0
0, 0
0, 1
0, 0
0, 0
0, 1
0, 0
0, 0
0, 0
1, 0
0, 0
0, 0
0, 0
0, 0
0, 0
0, 0
0, 0
0, 0
0, 0
0, 0
0, 0
1, 0
0, 0
0, 0
0, 0
0, 0
0, 0
0, 0
0, 0
0, 0
0, 0
0, 0
0, 0
0, 0
0, 0
0, 0
0, 0
0, 0
0, 0
0, 0
0, 0
0, 0
0, 0
0, 1
0, 0
0, 0
0, 0
0, 0
0, 0
0, 0
0, 0
0, 0
0, 0
0, 0
0, 0
0, 0
0, 0
0, 0
0, 0
0, 0
0, 0
0, 0
0, 0
0, 0
0, 0
0, 0
0, 0
0, 0
0, 0
0, 0
0, 0
0, 0
0, 0
1, 0
0, 1
0, 0
0, 0
0, 0
0, 0
0, 0
0, 0
0, 0
0, 0
0, 0
0, 0
0, 0
0, 0
0, 0
0, 0
0, 0
0, 0
0, 0
0, 0
0, 0
0, 0
0, 0
0, 0
0, 0
0, 0
0, 0
0, 0
0, 0
0, 0
0, 0
0, 0
0, 0
0, 0
0, 0
0, 0
0, 0
0, 0
0, 0
0, 0
0, 0
0, 0
0, 0
0, 0
0, 0
0, 0
0, 0
0, 0
0, 0
0, 0
0, 0
0, 0
0, 0
0, 0
0, 0
0, 0
0, 0
0, 0
0, 0
0, 0
0, 0
0, 0
0, 0
0, 0
0, 0
0, 0
0, 0
0, 0
0, 0
0, 0
0, 0
0, 0
0, 0
0, 0
0, 0
0, 0
0, 0
0, 0
0, 0
0, 0
0, 0
0, 0
0, 0
0, 0
0, 0
0, 0
0, 0
0, 0
0, 0
0, 0
0, 0
0, 0
0, 0
0, 0
0, 0
0, 0
0, 0
0, 0
0, 0
0, 0
0, 0
0, 0
0, 0
0, 0
0, 0
0, 0
0, 0
0, 0
0, 0
0, 0
0, 0
0, 0
0, 0
0, 0
0, 0
0, 0
0, 0
0, 0
0, 0
0, 0
0, 0
0, 0
0, 0
0, 0
0, 0
0, 0
0, 0
0, 0
0, 0
0, 0
0, 0
0, 0
0, 0
0, 0
0, 0
0, 0
0, 0
0, 0
0, 0
0, 0
0, 0
0, 0
0, 0
0, 0
0, 0
0, 0
0, 0
0, 0
0, 0
0, 0
0, 0
0, 0
0, 0
0, 0
0, 0
0, 0
0, 0
0, 0
0, 0
0, 0
0, 0
0, 0
0, 0
0, 0
0, 0
0, 0
0, 0
0, 0
0, 0
0, 0
0, 0
0, 0
0, 0
0, 0
0, 0
0, 0
0, 0
0, 0
0, 0
0, 0
0, 0
0, 0
0, 0
0, 0
0, 0
0, 0
0, 0
0, 0
0, 0
0, 0
0, 0
0, 0
0, 0
0, 0
0, 0
0, 0
0, 0
0, 0
0, 0
0, 0
0, 0
0, 0
0, 0
0, 0
0, 0
0, 0
0, 0
0, 0
0, 0
0, 0
0, 0
0, 0
0, 0
0, 0
0, 0
0, 0
0, 0
0, 0
0, 0
0, 0
0, 0
0, 0
0, 0
0, 0
0, 0
0, 0
0, 0
0, 0
0, 0
0, 0
0, 0
0, 0
0, 0
0, 0
0, 0
0, 0
0, 0
0, 0
0, 0
0, 0
0, 0
0, 0
0, 0
0, 0
0, 0
0, 0
0, 0
0, 0
0, 0
0, 0
0, 0
0, 0
0, 0
0, 0
0, 0
0, 0
0, 0
0, 0
0, 0
0, 0
0, 0
0, 0
0, 0
0, 0
0, 0
0, 0
0, 0
0, 0
0, 0
0, 0
0, 0
0, 0
0, 0
0, 0
0, 0
0, 0
0, 0
0, 0
0, 0
0, 0
0, 0
0, 0
0, 0
0, 0
0, 0
0, 0
0, 0
0, 0
0, 0
0, 0
0, 0
0, 0
0, 0
0, 0
0, 0
0, 0
0, 0
0, 0
0, 0
0, 0
0, 0
0, 0
0, 0
0, 0
0, 0
0, 0
0, 0
0, 0
0, 0
0, 0
0, 0
0, 0
0, 0
0, 0
0, 0
0, 0
0, 0
0, 0
0, 0
0, 0
0, 0
0, 0
0, 0
0, 0
0, 0
0, 0
0, 0
0, 0
0, 0
0, 0
0, 0
0, 0
0, 0
0, 0
0, 0
0, 0
0, 0
0, 0
0, 0
0, 0
0, 0
0, 0
0, 0
0, 0
0, 0
0, 0
0, 0
0, 0
0, 0
0, 0
0, 0
0, 0
0, 0
0, 0
0, 0
0, 0
0, 0
0, 0
0, 0
0, 0
0, 0
0, 0
0, 0
0, 0
0, 0
0, 0
0, 0
0, 0
0, 0
0, 0
0, 0
0, 0
0, 0
0, 0
0, 0
0, 0
0, 0
0, 0
0, 0
0, 0
0, 0
0, 0
0, 0
0, 0
0, 0
#ENDOFDATA     end of spectrum data