File: host_upload/02-11-2024/rqc/uplink1/ps__0567_0717304816_000rfs_shot_248.msa
#FORMAT      : EMSA/MAS spectral data file
#VERSION     : TC202v2.0 PIXL
#TITLE       : Novarupta (sol567) subset1
#DATE        : 02-11-2024      Date in the format DD-MMM-YYYY, for example 07-JUL-2010
#TIME        :             The time of day at which the spectrum was recorded, in 24-hour format
#OWNER       : PIXL Flight Model       (PIXL will use this to indicate which instrument took the data.)
#NPOINTS     : 4096     Number of data points in the spectrum (This can be zero for configuration only files)
#NCOLUMNS    : 2     Number of data columns in the spectrum (This can be zero for configuration only files)
#XUNITS      : eV
#YUNITS      : COUNTS
#DATATYPE    : YY
#XPERCHAN    : 7.862, 7.881   eV per channel (separate by commas if more than one detector)
#OFFSET      : 18.5, -22.4         eV of first channel  (separate by commas if more than one detector
#SIGNALTYPE  : XRF
#YP_TEMP     : 1.081
#LIVETIME    : 8.8225, 8.83047   seconds (separate by commas if more than one detector)
#REALTIME    : 10, 10.0   seconds (separate by commas if more than one detector)
#SPECTRUM    : start of spectrum data
0, 0
0, 0
0, 0
0, 0
0, 0
0, 0
0, 0
0, 0
0, 0
0, 0
0, 0
0, 0
0, 0
0, 0
0, 0
0, 0
0, 0
0, 0
0, 0
0, 0
0, 0
0, 0
0, 0
0, 0
0, 0
0, 0
0, 0
0, 0
0, 0
0, 0
0, 0
0, 0
0, 0
0, 0
1, 0
1, 1
1, 1
5, 1
1, 2
8, 3
3, 4
2, 2
4, 1
2, 2
0, 5
1, 3
2, 2
5, 6
4, 4
2, 1
7, 5
12, 8
12, 14
18, 19
13, 16
15, 9
6, 17
12, 5
11, 11
15, 10
21, 15
24, 29
26, 34
45, 52
49, 45
39, 46
34, 33
34, 36
34, 33
58, 61
127, 133
234, 196
306, 306
402, 427
503, 473
494, 462
487, 401
359, 315
253, 232
166, 126
81, 83
54, 49
36, 22
34, 38
29, 31
37, 42
34, 39
28, 46
34, 34
21, 22
19, 18
23, 20
31, 31
39, 38
76, 75
124, 144
208, 187
261, 245
286, 307
307, 329
259, 245
230, 197
133, 129
106, 99
61, 59
41, 48
49, 50
58, 54
75, 86
140, 112
151, 155
193, 194
192, 244
206, 220
176, 176
140, 159
134, 137
114, 113
76, 91
82, 73
70, 82
63, 80
59, 62
49, 48
42, 44
32, 31
27, 25
27, 30
17, 17
14, 14
11, 8
12, 10
9, 6
8, 6
3, 10
6, 11
12, 7
8, 7
7, 25
25, 21
42, 36
26, 26
29, 24
19, 26
23, 13
18, 20
13, 8
8, 8
14, 15
16, 23
24, 38
57, 52
107, 94
155, 168
190, 225
324, 263
362, 337
356, 334
377, 334
291, 306
245, 248
152, 132
112, 80
55, 63
41, 37
25, 15
34, 29
27, 33
35, 41
50, 46
86, 69
60, 43
56, 54
49, 47
34, 30
30, 23
15, 21
14, 12
13, 7
9, 10
12, 7
12, 8
8, 9
8, 7
11, 7
10, 11
18, 22
21, 33
29, 29
39, 41
64, 47
63, 65
59, 58
82, 73
55, 51
45, 36
33, 28
29, 27
29, 20
15, 18
15, 23
16, 19
18, 9
8, 15
12, 22
6, 16
13, 16
19, 18
19, 21
12, 17
11, 21
24, 19
17, 21
12, 23
9, 16
17, 12
13, 15
12, 9
16, 7
6, 14
9, 15
13, 7
11, 12
11, 13
12, 15
16, 18
23, 23
19, 16
28, 31
33, 35
26, 31
24, 38
29, 28
26, 19
20, 14
18, 12
11, 12
10, 16
11, 14
11, 9
10, 12
14, 9
13, 14
22, 15
20, 18
27, 17
25, 29
39, 36
42, 43
56, 58
51, 47
62, 46
36, 33
35, 32
37, 41
30, 26
30, 19
33, 12
11, 24
23, 19
12, 25
31, 36
39, 43
75, 85
137, 167
254, 269
444, 471
602, 716
930, 1019
1288, 1351
1531, 1605
1788, 1850
1854, 1748
1780, 1629
1636, 1366
1245, 1095
913, 808
627, 536
416, 299
253, 175
156, 91
84, 54
39, 26
31, 26
22, 14
19, 21
20, 18
14, 19
21, 18
17, 19
21, 25
39, 38
56, 56
65, 69
109, 90
139, 126
164, 180
178, 214
257, 284
267, 275
266, 267
282, 230
213, 206
186, 152
144, 93
100, 73
62, 41
48, 30
26, 22
17, 19
8, 6
8, 11
7, 10
9, 5
13, 13
16, 13
10, 16
15, 11
4, 15
13, 12
9, 10
13, 14
4, 12
12, 6
7, 8
8, 3
8, 10
3, 7
3, 7
3, 5
12, 4
7, 7
3, 5
3, 8
6, 12
7, 7
7, 4
7, 3
7, 3
7, 3
9, 7
5, 10
3, 9
2, 3
9, 7
4, 7
8, 8
4, 11
8, 9
6, 7
10, 9
10, 4
8, 6
6, 6
10, 7
8, 5
6, 7
6, 6
8, 6
5, 4
7, 7
9, 8
4, 5
10, 8
5, 12
7, 19
9, 14
10, 15
15, 13
8, 16
10, 9
5, 13
9, 7
7, 7
10, 6
5, 9
11, 7
7, 7
1, 4
4, 9
9, 4
7, 10
7, 3
11, 7
4, 1
10, 7
8, 6
5, 3
4, 6
5, 4
6, 5
4, 7
6, 3
4, 4
4, 4
12, 7
6, 3
6, 5
4, 6
10, 2
3, 7
2, 6
4, 10
4, 5
11, 4
3, 7
10, 5
6, 4
7, 5
3, 5
6, 3
6, 3
8, 4
6, 5
6, 1
7, 4
2, 4
2, 6
2, 4
5, 3
6, 4
1, 0
3, 4
7, 5
5, 5
8, 2
3, 6
8, 4
4, 4
5, 5
5, 4
1, 0
3, 2
4, 3
5, 3
4, 7
3, 3
8, 3
1, 5
3, 3
4, 7
3, 1
2, 1
4, 3
6, 2
4, 2
0, 5
7, 3
2, 2
2, 4
5, 6
5, 6
5, 4
4, 3
3, 7
3, 3
3, 7
1, 7
2, 0
2, 2
0, 6
3, 4
2, 2
1, 7
3, 3
5, 1
4, 6
1, 5
2, 5
3, 3
1, 2
2, 3
7, 2
4, 0
6, 5
2, 4
1, 1
6, 2
3, 2
2, 0
1, 2
3, 5
1, 4
2, 2
4, 6
6, 4
3, 2
2, 3
1, 6
1, 2
3, 2
1, 3
6, 2
2, 2
1, 6
2, 2
2, 2
1, 0
0, 1
0, 3
4, 3
2, 5
6, 2
1, 5
4, 0
2, 3
3, 1
3, 3
1, 1
5, 1
1, 4
3, 2
5, 5
2, 3
4, 3
2, 3
4, 2
0, 1
4, 0
6, 6
1, 1
3, 2
2, 1
1, 3
1, 0
3, 2
3, 0
2, 5
2, 2
2, 2
3, 1
0, 2
2, 1
3, 2
3, 4
2, 5
4, 0
3, 1
7, 1
1, 3
3, 4
1, 3
7, 4
5, 7
3, 3
3, 3
3, 2
4, 4
3, 1
5, 1
4, 1
1, 4
1, 4
1, 0
1, 1
0, 1
1, 1
1, 3
1, 1
3, 1
0, 1
3, 2
1, 1
5, 1
3, 2
2, 2
1, 1
1, 2
0, 3
2, 3
4, 1
2, 2
0, 0
2, 1
1, 3
2, 1
2, 1
4, 3
1, 2
3, 0
0, 2
2, 1
2, 2
2, 2
1, 0
2, 0
2, 1
0, 0
0, 0
0, 1
1, 1
1, 2
1, 0
2, 3
0, 1
0, 2
0, 0
1, 0
0, 4
0, 2
2, 0
3, 0
1, 0
0, 2
1, 1
1, 3
0, 0
0, 0
0, 0
1, 3
0, 0
2, 0
0, 1
1, 3
0, 1
2, 1
1, 1
0, 1
1, 3
1, 2
2, 2
2, 0
1, 3
0, 0
0, 1
1, 1
0, 3
0, 1
0, 0
0, 1
0, 2
1, 0
2, 1
0, 1
1, 0
0, 0
2, 0
2, 0
1, 0
0, 1
1, 1
0, 0
0, 0
2, 1
0, 1
0, 0
0, 1
0, 1
1, 0
0, 0
0, 1
1, 0
0, 1
0, 0
1, 0
0, 1
2, 0
0, 1
0, 0
1, 0
1, 0
1, 0
1, 0
0, 0
0, 1
2, 0
1, 0
1, 0
1, 0
1, 0
0, 1
1, 1
0, 1
0, 0
0, 0
0, 0
2, 2
0, 0
0, 1
2, 0
1, 2
3, 0
2, 0
1, 1
1, 0
1, 0
2, 0
0, 0
0, 0
1, 0
0, 0
1, 0
1, 0
0, 0
1, 0
0, 1
1, 0
0, 0
0, 0
1, 1
0, 0
0, 1
0, 1
0, 1
1, 0
1, 2
0, 0
0, 0
0, 0
0, 0
0, 0
1, 0
0, 0
0, 0
1, 0
0, 2
0, 0
1, 0
0, 0
0, 0
1, 2
0, 0
0, 1
0, 0
0, 1
0, 1
0, 0
0, 0
0, 0
0, 0
0, 0
0, 0
1, 0
1, 0
0, 0
2, 1
0, 0
0, 0
0, 0
0, 0
0, 0
0, 1
1, 1
0, 0
0, 0
0, 0
0, 0
0, 0
0, 0
1, 2
0, 0
0, 0
0, 0
0, 0
1, 1
0, 0
2, 0
0, 0
0, 0
0, 0
1, 0
0, 0
1, 0
0, 0
1, 0
1, 1
0, 0
0, 0
0, 0
0, 0
0, 0
0, 0
0, 0
0, 0
0, 0
0, 1
0, 3
1, 0
2, 0
1, 0
0, 0
0, 2
0, 1
1, 0
0, 0
2, 0
0, 0
0, 0
0, 0
0, 0
0, 1
0, 1
0, 0
0, 0
0, 0
0, 0
0, 1
0, 1
1, 0
0, 2
0, 2
0, 0
0, 0
0, 0
0, 1
0, 0
0, 0
0, 1
0, 0
0, 1
0, 0
0, 0
0, 1
0, 0
0, 0
1, 0
0, 0
0, 0
0, 0
0, 0
0, 0
0, 0
0, 1
0, 0
0, 0
0, 0
0, 0
0, 0
0, 0
0, 0
0, 0
0, 0
0, 0
0, 0
0, 0
0, 2
1, 0
0, 0
0, 1
0, 0
0, 0
0, 0
0, 0
0, 1
0, 0
0, 0
0, 0
0, 0
0, 0
0, 0
0, 2
1, 0
1, 0
0, 1
1, 0
0, 1
0, 0
0, 1
0, 0
0, 0
0, 0
0, 0
0, 0
0, 0
0, 0
1, 0
1, 0
0, 0
0, 0
0, 0
0, 0
0, 0
0, 0
0, 0
0, 0
0, 0
0, 0
0, 0
0, 0
0, 0
0, 0
0, 0
0, 0
0, 0
0, 0
0, 0
1, 0
0, 1
0, 0
0, 0
0, 0
0, 0
0, 0
0, 0
0, 0
0, 0
0, 0
0, 0
0, 0
1, 1
0, 0
0, 0
0, 0
1, 0
0, 0
0, 0
1, 0
0, 0
1, 0
0, 0
0, 1
0, 0
0, 0
0, 0
0, 0
0, 0
0, 0
0, 1
0, 0
0, 0
0, 1
0, 0
0, 0
0, 0
1, 0
0, 0
0, 0
0, 0
0, 0
0, 0
0, 0
0, 0
0, 1
0, 0
0, 0
0, 0
0, 0
0, 0
0, 0
0, 0
0, 1
0, 0
0, 0
0, 0
0, 0
0, 0
0, 0
0, 0
0, 0
0, 0
0, 0
0, 0
0, 0
0, 0
0, 0
0, 0
0, 0
0, 0
0, 0
0, 0
0, 0
0, 0
0, 1
0, 0
0, 0
0, 0
0, 0
0, 0
0, 0
0, 0
0, 0
0, 1
0, 0
0, 0
0, 0
0, 0
0, 0
0, 0
0, 0
0, 0
0, 0
0, 0
0, 0
0, 0
0, 0
0, 0
0, 0
0, 0
0, 0
0, 0
0, 0
0, 0
0, 0
0, 0
0, 0
0, 0
0, 0
0, 0
0, 0
0, 0
0, 0
0, 0
0, 0
0, 0
0, 0
0, 0
0, 0
0, 0
0, 0
0, 0
0, 0
0, 0
0, 0
0, 0
0, 0
0, 0
0, 0
0, 0
0, 0
0, 0
0, 0
0, 0
0, 0
0, 0
0, 0
0, 0
0, 0
0, 0
0, 0
0, 0
0, 0
0, 0
0, 1
0, 0
0, 0
0, 0
0, 0
0, 0
0, 0
0, 0
0, 0
0, 0
0, 0
0, 0
0, 0
0, 0
0, 0
0, 0
0, 0
0, 1
0, 0
0, 0
0, 0
0, 0
0, 0
0, 0
0, 0
0, 0
0, 0
0, 0
0, 0
0, 0
0, 0
0, 0
0, 0
0, 0
0, 0
0, 0
0, 0
0, 0
0, 0
0, 0
0, 0
0, 0
0, 0
0, 0
0, 0
0, 0
0, 0
0, 0
0, 0
0, 0
0, 0
0, 0
0, 0
0, 0
0, 0
0, 0
0, 0
0, 0
0, 0
0, 0
0, 0
0, 0
0, 0
0, 0
0, 0
0, 0
0, 0
0, 0
0, 0
0, 0
0, 0
0, 0
0, 0
0, 0
0, 0
0, 0
0, 0
0, 0
0, 0
0, 0
0, 0
0, 0
0, 0
0, 0
0, 0
0, 0
0, 0
0, 0
0, 0
0, 0
0, 0
0, 0
0, 0
0, 0
0, 0
0, 0
0, 0
0, 0
0, 0
0, 0
0, 0
0, 0
0, 0
0, 0
0, 0
0, 0
0, 0
0, 0
0, 0
0, 0
0, 0
0, 0
0, 0
0, 0
0, 0
0, 0
0, 0
0, 0
0, 0
0, 0
0, 0
0, 0
0, 0
0, 0
0, 0
0, 0
0, 0
0, 0
0, 0
0, 0
0, 0
0, 0
0, 0
0, 0
0, 0
0, 0
0, 0
0, 0
0, 0
0, 0
0, 0
0, 0
0, 0
0, 0
0, 0
0, 0
0, 0
0, 0
0, 0
0, 0
0, 0
0, 0
0, 0
0, 0
0, 0
0, 0
0, 0
0, 0
0, 0
0, 0
0, 0
0, 0
0, 0
0, 0
0, 0
0, 0
0, 0
0, 0
0, 0
0, 0
0, 0
0, 0
0, 0
0, 0
0, 0
0, 0
0, 0
0, 0
0, 0
0, 0
0, 0
0, 0
0, 0
0, 0
0, 0
0, 0
0, 0
0, 0
0, 0
0, 0
0, 0
0, 0
0, 0
0, 0
0, 0
0, 0
0, 0
0, 0
0, 0
0, 0
0, 0
0, 0
0, 0
0, 0
0, 0
0, 0
0, 0
0, 0
0, 0
0, 0
0, 0
0, 0
0, 0
0, 0
0, 0
0, 0
0, 0
0, 0
0, 0
0, 0
0, 0
0, 0
0, 0
0, 0
0, 0
0, 0
0, 0
0, 0
0, 0
0, 0
0, 0
0, 0
0, 0
0, 0
0, 0
0, 0
0, 0
0, 0
0, 0
0, 0
0, 0
0, 0
0, 0
0, 0
0, 0
0, 0
0, 0
0, 0
0, 0
0, 0
0, 0
0, 0
0, 0
0, 0
0, 0
0, 0
0, 0
0, 0
0, 0
0, 0
0, 0
0, 0
0, 0
0, 0
0, 0
0, 0
0, 0
0, 0
0, 0
0, 0
0, 0
0, 0
0, 0
0, 0
0, 0
0, 0
0, 0
0, 0
0, 0
0, 0
0, 0
0, 0
0, 0
0, 0
0, 0
0, 0
0, 0
0, 0
0, 0
0, 0
0, 0
0, 0
0, 0
0, 0
0, 0
0, 0
0, 0
0, 0
0, 0
0, 0
0, 0
0, 0
0, 0
0, 0
0, 0
0, 0
0, 0
0, 0
0, 0
0, 0
0, 0
0, 0
0, 0
0, 0
0, 0
0, 0
0, 0
0, 0
0, 0
0, 0
0, 0
0, 0
0, 0
0, 0
0, 0
0, 0
0, 0
0, 0
0, 0
0, 0
0, 0
0, 0
0, 0
0, 0
#ENDOFDATA     end of spectrum data