File: host_upload/02-11-2024/rqc/uplink1/ps__0567_0717304816_000rfs_shot_470.msa
#FORMAT      : EMSA/MAS spectral data file
#VERSION     : TC202v2.0 PIXL
#TITLE       : Novarupta (sol567) subset1
#DATE        : 02-11-2024      Date in the format DD-MMM-YYYY, for example 07-JUL-2010
#TIME        :             The time of day at which the spectrum was recorded, in 24-hour format
#OWNER       : PIXL Flight Model       (PIXL will use this to indicate which instrument took the data.)
#NPOINTS     : 4096     Number of data points in the spectrum (This can be zero for configuration only files)
#NCOLUMNS    : 2     Number of data columns in the spectrum (This can be zero for configuration only files)
#XUNITS      : eV
#YUNITS      : COUNTS
#DATATYPE    : YY
#XPERCHAN    : 7.862, 7.881   eV per channel (separate by commas if more than one detector)
#OFFSET      : 18.5, -22.4         eV of first channel  (separate by commas if more than one detector
#SIGNALTYPE  : XRF
#YP_TEMP     : 1.915
#LIVETIME    : 8.83397, 8.80724   seconds (separate by commas if more than one detector)
#REALTIME    : 10, 10.0   seconds (separate by commas if more than one detector)
#SPECTRUM    : start of spectrum data
0, 0
0, 0
0, 0
0, 0
0, 0
0, 0
0, 0
0, 0
0, 0
0, 0
0, 0
0, 0
0, 0
0, 0
0, 0
0, 0
0, 0
0, 0
0, 0
0, 0
0, 0
0, 0
0, 0
0, 0
0, 0
0, 0
0, 0
0, 0
0, 0
0, 0
0, 0
0, 0
0, 0
1, 0
3, 0
4, 1
1, 1
2, 4
1, 3
4, 1
5, 7
2, 2
2, 5
3, 5
1, 5
4, 2
3, 3
1, 3
0, 3
3, 6
3, 2
9, 11
9, 11
10, 14
18, 27
9, 18
15, 15
12, 9
5, 12
18, 13
17, 19
18, 24
41, 30
36, 48
57, 61
48, 56
44, 38
33, 34
34, 37
56, 72
90, 124
163, 226
288, 332
380, 468
446, 565
495, 522
422, 504
315, 356
229, 246
126, 158
75, 83
49, 45
38, 43
20, 38
33, 39
20, 32
37, 38
26, 34
21, 26
23, 15
15, 18
20, 10
25, 33
49, 41
68, 95
130, 165
196, 232
262, 268
292, 329
284, 352
243, 323
193, 209
162, 170
99, 97
56, 84
62, 63
45, 54
59, 60
84, 80
105, 115
143, 151
184, 208
170, 216
200, 214
185, 189
146, 174
144, 113
100, 116
106, 85
64, 92
61, 102
68, 74
51, 83
62, 70
42, 50
36, 34
29, 22
27, 24
26, 19
18, 14
8, 7
10, 8
7, 8
11, 9
7, 4
2, 9
7, 10
13, 21
20, 17
22, 33
28, 41
30, 42
28, 31
20, 40
17, 17
15, 16
13, 16
14, 11
6, 12
13, 16
14, 34
34, 48
73, 112
145, 163
202, 281
277, 358
323, 455
353, 459
360, 438
327, 373
230, 261
153, 173
113, 131
66, 71
40, 31
32, 32
28, 37
30, 25
38, 40
45, 56
50, 62
40, 71
58, 59
55, 63
29, 55
31, 30
22, 14
13, 10
10, 9
8, 10
11, 12
10, 8
12, 12
8, 9
10, 5
14, 22
13, 12
25, 25
33, 29
39, 51
58, 72
54, 65
64, 69
55, 64
38, 68
32, 41
29, 42
33, 32
15, 20
20, 17
9, 19
20, 17
10, 13
9, 10
14, 11
9, 8
11, 18
11, 15
23, 22
22, 12
12, 21
15, 17
21, 18
9, 18
12, 13
12, 12
13, 7
14, 16
8, 11
17, 14
6, 12
7, 13
11, 15
11, 16
15, 18
13, 19
18, 24
22, 26
22, 32
26, 34
34, 39
25, 30
24, 24
21, 26
28, 33
18, 18
13, 19
11, 13
15, 27
11, 11
5, 11
7, 7
10, 14
11, 16
15, 16
20, 20
19, 40
31, 39
38, 44
42, 53
42, 52
56, 58
51, 50
33, 31
42, 37
32, 40
22, 25
17, 20
14, 21
15, 24
19, 27
28, 25
34, 45
45, 65
108, 168
189, 279
326, 478
554, 703
792, 1043
1116, 1402
1370, 1738
1560, 1938
1670, 1901
1631, 1808
1477, 1545
1112, 1155
820, 848
564, 538
405, 336
211, 181
144, 113
62, 57
42, 41
25, 25
21, 21
18, 19
24, 20
15, 18
13, 18
16, 18
21, 27
31, 37
50, 33
70, 76
80, 109
112, 149
125, 188
189, 236
248, 268
248, 290
249, 288
217, 272
202, 231
170, 185
120, 119
90, 70
58, 72
35, 38
17, 15
11, 12
13, 14
14, 14
7, 14
13, 9
8, 13
11, 11
13, 11
13, 14
5, 12
12, 18
11, 12
7, 7
13, 5
6, 10
7, 4
6, 7
8, 3
5, 4
5, 6
6, 6
8, 3
8, 9
7, 9
7, 5
6, 8
5, 10
9, 10
5, 9
3, 6
7, 2
5, 4
9, 7
4, 4
7, 11
9, 4
9, 9
6, 6
8, 7
8, 6
9, 10
6, 10
7, 5
7, 13
4, 11
7, 6
11, 5
11, 8
5, 6
8, 6
6, 9
5, 10
8, 8
3, 10
10, 12
7, 9
8, 13
10, 14
11, 15
17, 14
11, 12
10, 8
3, 10
7, 6
6, 8
3, 4
6, 11
3, 6
7, 4
8, 4
7, 8
11, 6
4, 6
2, 7
6, 6
6, 7
3, 4
10, 13
8, 4
5, 4
8, 5
6, 5
3, 7
5, 7
3, 10
6, 3
9, 1
7, 3
6, 3
5, 2
1, 4
7, 6
4, 5
6, 7
5, 10
4, 6
5, 4
7, 7
8, 8
4, 0
7, 3
3, 9
4, 2
3, 4
4, 6
2, 8
3, 5
7, 6
7, 6
4, 2
2, 5
4, 9
5, 6
4, 4
3, 7
4, 3
6, 3
1, 4
6, 10
0, 1
7, 5
4, 3
2, 3
3, 3
1, 0
0, 6
5, 5
1, 3
2, 6
6, 3
2, 3
5, 6
7, 7
3, 3
1, 10
1, 1
2, 2
5, 2
3, 1
1, 7
2, 5
1, 3
6, 4
3, 9
5, 5
4, 2
4, 5
2, 1
1, 3
3, 4
2, 6
2, 2
5, 3
3, 2
1, 1
2, 3
4, 3
2, 4
1, 5
5, 4
3, 5
4, 3
0, 3
2, 3
3, 5
3, 3
2, 0
3, 2
3, 6
1, 2
1, 3
2, 3
5, 3
8, 4
0, 1
3, 2
2, 2
4, 4
6, 2
3, 2
1, 1
2, 3
3, 1
2, 4
4, 6
1, 4
2, 3
1, 3
3, 3
2, 3
1, 0
3, 4
1, 2
3, 1
3, 1
4, 3
1, 3
2, 3
0, 0
2, 3
1, 2
1, 1
4, 2
3, 3
2, 3
2, 4
1, 2
2, 0
4, 3
0, 4
5, 3
0, 1
2, 2
2, 0
1, 3
6, 2
4, 1
2, 5
1, 3
1, 2
2, 3
2, 4
2, 1
3, 2
2, 3
2, 4
3, 4
1, 2
2, 4
3, 1
2, 1
1, 2
1, 1
2, 1
1, 3
4, 3
0, 1
3, 2
3, 2
5, 1
3, 2
2, 5
4, 2
2, 2
2, 1
2, 0
2, 1
2, 2
2, 2
0, 0
2, 1
1, 2
0, 0
2, 4
3, 3
1, 4
2, 1
2, 2
3, 1
3, 1
1, 2
4, 3
1, 1
2, 4
1, 0
1, 3
2, 3
2, 0
0, 3
0, 3
3, 1
2, 2
0, 2
1, 2
0, 4
0, 0
1, 1
0, 0
0, 0
2, 1
2, 0
1, 0
3, 1
0, 0
1, 0
0, 1
1, 2
1, 1
1, 0
0, 2
3, 1
3, 1
0, 0
0, 0
2, 1
1, 0
1, 0
2, 0
0, 0
1, 1
0, 1
1, 2
1, 0
0, 1
2, 0
0, 2
1, 1
0, 2
0, 1
0, 2
0, 0
0, 1
1, 2
1, 1
1, 0
0, 2
0, 2
2, 0
0, 2
1, 2
2, 1
1, 2
0, 0
0, 1
1, 1
0, 1
3, 0
3, 0
0, 1
3, 0
0, 0
0, 0
2, 1
1, 0
0, 0
1, 0
0, 1
0, 0
2, 0
0, 0
1, 1
0, 1
1, 1
1, 0
0, 0
1, 1
0, 1
2, 0
1, 1
0, 2
1, 1
0, 1
0, 1
0, 0
1, 0
0, 1
2, 1
0, 0
1, 1
0, 1
0, 0
1, 2
2, 0
1, 1
1, 2
1, 2
0, 0
0, 0
0, 1
0, 0
1, 0
2, 1
0, 0
0, 3
0, 0
2, 0
0, 2
1, 0
1, 1
0, 1
0, 0
0, 0
0, 0
1, 0
2, 0
0, 0
0, 2
0, 1
0, 0
1, 0
0, 0
0, 0
1, 0
0, 0
0, 1
1, 0
0, 0
0, 0
1, 0
0, 0
0, 1
1, 1
0, 0
0, 0
0, 0
0, 1
0, 0
0, 0
0, 2
0, 0
0, 0
1, 0
0, 0
1, 1
0, 1
0, 0
0, 0
0, 0
1, 0
1, 0
1, 0
0, 1
0, 0
0, 2
0, 0
0, 1
1, 1
0, 1
0, 0
0, 0
0, 0
1, 0
0, 0
1, 0
0, 0
2, 0
0, 0
0, 0
0, 0
1, 0
0, 0
1, 1
0, 0
0, 1
0, 0
1, 0
1, 1
0, 1
0, 0
0, 1
0, 0
1, 0
0, 0
0, 1
0, 1
1, 0
1, 0
0, 0
0, 1
2, 1
0, 0
0, 0
0, 0
0, 1
0, 0
0, 0
0, 0
0, 0
0, 0
0, 0
1, 0
0, 0
0, 0
0, 0
2, 0
1, 1
0, 0
1, 0
0, 1
0, 2
0, 0
1, 0
0, 0
0, 0
0, 1
0, 0
1, 0
1, 0
0, 0
0, 0
0, 0
0, 0
0, 0
0, 0
0, 1
0, 2
0, 0
0, 0
0, 0
1, 0
1, 0
0, 0
1, 0
1, 0
1, 0
0, 1
0, 0
0, 0
0, 0
0, 1
0, 0
1, 0
0, 0
0, 1
0, 0
0, 1
0, 0
0, 0
0, 1
0, 0
0, 1
0, 0
0, 0
0, 0
0, 0
0, 0
0, 0
0, 0
1, 0
1, 0
0, 1
0, 0
0, 1
1, 0
0, 0
0, 0
0, 0
0, 0
0, 0
0, 0
1, 0
0, 0
1, 0
0, 1
0, 0
0, 0
0, 0
0, 0
0, 0
0, 1
1, 0
0, 0
0, 0
0, 0
0, 0
0, 0
0, 0
0, 0
1, 1
0, 0
1, 0
1, 0
0, 0
0, 0
0, 0
0, 0
0, 0
0, 0
0, 0
0, 0
0, 0
0, 0
0, 0
0, 0
0, 0
0, 0
0, 0
0, 0
0, 0
0, 0
0, 0
0, 0
0, 0
0, 0
0, 0
0, 0
0, 0
0, 1
0, 0
0, 0
0, 0
1, 0
0, 0
0, 0
0, 0
0, 0
0, 0
0, 0
0, 0
0, 0
0, 1
0, 0
0, 0
0, 0
1, 0
0, 0
1, 0
0, 0
0, 0
0, 0
0, 1
0, 0
0, 0
0, 0
0, 0
0, 0
0, 0
0, 0
0, 0
0, 0
0, 0
0, 0
0, 0
0, 0
0, 0
0, 0
0, 0
0, 0
0, 0
0, 0
0, 0
0, 0
0, 0
0, 0
0, 0
0, 0
0, 0
0, 0
0, 0
0, 0
0, 0
0, 0
0, 0
0, 1
0, 0
0, 1
0, 0
0, 0
0, 0
0, 0
0, 1
0, 0
0, 0
0, 0
0, 0
1, 0
0, 0
1, 0
0, 0
0, 0
0, 0
0, 0
0, 0
0, 0
0, 1
0, 0
0, 0
0, 0
0, 0
0, 0
0, 0
0, 0
0, 0
0, 0
0, 0
0, 0
0, 0
0, 0
0, 0
0, 0
0, 0
0, 0
0, 0
0, 0
0, 0
0, 0
0, 0
0, 0
0, 0
0, 0
0, 0
0, 0
0, 0
0, 0
0, 0
0, 0
0, 0
0, 0
0, 0
0, 0
0, 0
0, 0
0, 0
0, 0
0, 0
0, 0
0, 0
0, 0
0, 0
0, 0
0, 0
0, 0
0, 0
0, 0
0, 0
0, 0
0, 0
0, 0
0, 0
0, 0
0, 0
0, 0
0, 0
0, 0
0, 0
0, 0
0, 0
0, 0
0, 0
0, 0
0, 0
0, 0
0, 0
0, 0
0, 0
0, 0
0, 0
0, 0
0, 0
0, 0
0, 0
0, 0
0, 0
0, 0
0, 0
0, 0
0, 0
0, 0
0, 0
0, 0
0, 0
0, 0
0, 0
1, 0
0, 0
0, 0
0, 0
0, 0
0, 0
0, 0
0, 0
0, 0
0, 0
0, 0
0, 0
0, 0
0, 0
0, 0
0, 0
0, 0
0, 0
0, 0
0, 0
0, 0
0, 0
0, 0
0, 0
0, 0
0, 0
0, 0
0, 0
0, 0
0, 0
0, 0
0, 0
0, 0
0, 0
0, 0
0, 0
0, 0
0, 0
0, 0
0, 0
0, 0
0, 0
0, 0
0, 0
0, 0
0, 0
0, 0
0, 0
0, 0
0, 0
0, 0
0, 0
0, 0
0, 0
0, 0
0, 0
0, 0
0, 0
0, 0
0, 0
0, 0
0, 0
0, 0
0, 0
0, 0
0, 0
0, 0
0, 0
0, 0
0, 0
0, 0
0, 0
0, 0
0, 0
0, 0
0, 0
0, 0
0, 0
0, 0
0, 0
0, 0
0, 0
0, 0
0, 0
0, 0
0, 0
0, 0
0, 0
0, 0
0, 0
0, 0
0, 0
0, 0
0, 0
0, 0
0, 0
0, 0
0, 0
0, 0
0, 0
0, 0
0, 0
0, 0
0, 0
0, 0
0, 0
0, 0
0, 0
0, 0
0, 0
0, 0
0, 0
0, 0
0, 0
0, 0
0, 0
0, 0
0, 0
0, 0
0, 0
0, 0
0, 0
0, 0
0, 0
0, 0
0, 0
0, 0
0, 0
0, 0
0, 0
0, 0
0, 0
0, 0
0, 0
0, 0
0, 0
0, 0
0, 0
0, 0
0, 0
0, 0
0, 0
0, 0
0, 0
0, 0
0, 0
0, 0
0, 0
0, 0
0, 0
0, 0
0, 0
0, 0
0, 0
0, 0
0, 0
0, 0
0, 0
0, 0
0, 0
0, 0
0, 0
0, 0
0, 0
0, 0
0, 0
0, 0
0, 0
0, 0
0, 0
0, 0
0, 0
0, 0
0, 0
0, 0
0, 0
0, 0
0, 0
0, 0
0, 0
0, 0
0, 0
0, 0
0, 0
0, 0
0, 0
0, 0
0, 0
0, 0
0, 0
0, 0
0, 0
0, 0
0, 0
0, 0
0, 0
0, 0
0, 0
0, 0
0, 0
0, 0
0, 0
0, 0
0, 0
0, 0
0, 0
0, 0
0, 0
0, 0
0, 0
0, 0
0, 0
0, 0
0, 0
0, 0
0, 0
0, 0
0, 0
0, 0
0, 0
0, 0
0, 0
0, 0
0, 0
0, 0
0, 0
0, 0
0, 0
0, 0
0, 0
0, 0
0, 0
0, 0
0, 0
0, 0
0, 0
0, 0
0, 0
0, 0
0, 0
0, 0
0, 0
0, 0
0, 0
0, 0
0, 0
0, 0
0, 0
0, 0
0, 0
0, 0
0, 0
0, 0
0, 0
0, 0
0, 0
0, 0
0, 0
0, 0
0, 0
0, 0
0, 0
0, 0
0, 0
0, 0
0, 0
0, 0
0, 0
0, 0
0, 0
0, 0
0, 0
0, 0
0, 0
0, 0
0, 0
0, 0
0, 0
0, 0
0, 0
0, 0
0, 0
0, 0
0, 0
0, 0
0, 0
0, 0
0, 0
0, 0
0, 0
0, 0
0, 0
0, 0
0, 0
0, 0
0, 0
0, 0
0, 0
0, 0
0, 0
0, 0
0, 0
0, 0
0, 0
#ENDOFDATA     end of spectrum data