File: host_upload/02-11-2024/rqc/uplink1/ps__0567_0717304816_000rfs_shot_412.msa
#FORMAT      : EMSA/MAS spectral data file
#VERSION     : TC202v2.0 PIXL
#TITLE       : Novarupta (sol567) subset1
#DATE        : 02-11-2024      Date in the format DD-MMM-YYYY, for example 07-JUL-2010
#TIME        :             The time of day at which the spectrum was recorded, in 24-hour format
#OWNER       : PIXL Flight Model       (PIXL will use this to indicate which instrument took the data.)
#NPOINTS     : 4096     Number of data points in the spectrum (This can be zero for configuration only files)
#NCOLUMNS    : 2     Number of data columns in the spectrum (This can be zero for configuration only files)
#XUNITS      : eV
#YUNITS      : COUNTS
#DATATYPE    : YY
#XPERCHAN    : 7.862, 7.881   eV per channel (separate by commas if more than one detector)
#OFFSET      : 18.5, -22.4         eV of first channel  (separate by commas if more than one detector
#SIGNALTYPE  : XRF
#YP_TEMP     : 1.915
#LIVETIME    : 8.82408, 8.81015   seconds (separate by commas if more than one detector)
#REALTIME    : 10, 10.0   seconds (separate by commas if more than one detector)
#SPECTRUM    : start of spectrum data
0, 0
0, 0
0, 0
0, 0
0, 0
0, 0
0, 0
0, 0
0, 0
0, 0
0, 0
0, 0
0, 0
0, 0
0, 0
0, 0
0, 0
0, 0
0, 0
0, 0
0, 0
0, 0
0, 0
0, 0
0, 0
0, 0
0, 0
0, 0
0, 0
0, 0
0, 0
1, 0
1, 0
1, 0
1, 1
0, 3
0, 3
1, 3
6, 4
3, 2
5, 5
6, 2
4, 4
3, 4
4, 5
3, 3
1, 6
2, 4
1, 3
4, 5
5, 3
13, 10
7, 12
15, 18
12, 20
20, 16
8, 16
8, 6
15, 13
13, 15
16, 23
16, 28
41, 32
39, 55
45, 42
36, 54
36, 37
31, 34
34, 46
55, 66
97, 111
181, 220
260, 356
373, 487
451, 573
467, 554
418, 478
326, 340
235, 231
153, 158
78, 82
40, 42
37, 43
35, 39
26, 38
28, 41
35, 39
30, 31
34, 24
11, 26
17, 18
23, 14
19, 33
48, 46
76, 82
121, 154
211, 252
250, 265
293, 304
302, 301
271, 279
222, 238
137, 175
92, 107
81, 72
59, 56
53, 63
65, 81
89, 115
128, 119
150, 187
203, 202
205, 256
221, 273
196, 219
159, 184
157, 143
113, 121
78, 108
87, 95
81, 90
71, 78
64, 58
56, 57
66, 61
37, 39
29, 24
17, 21
23, 21
12, 18
13, 18
11, 7
10, 14
7, 14
10, 2
8, 7
9, 15
11, 10
21, 14
18, 31
32, 24
37, 30
34, 28
24, 33
18, 17
17, 16
14, 20
13, 8
13, 14
13, 15
27, 28
43, 77
88, 106
137, 163
194, 245
264, 271
329, 372
354, 448
387, 394
345, 350
246, 243
160, 166
116, 104
60, 58
45, 43
27, 29
31, 26
30, 42
35, 45
57, 66
64, 60
55, 71
70, 57
40, 65
39, 39
33, 30
24, 13
12, 14
8, 14
8, 10
7, 7
8, 12
8, 10
9, 9
11, 14
16, 14
16, 18
13, 30
31, 28
46, 47
50, 62
48, 62
62, 53
69, 84
43, 57
44, 47
36, 24
23, 31
27, 18
21, 16
13, 17
12, 12
18, 24
12, 16
14, 12
10, 16
13, 16
10, 17
16, 23
12, 22
22, 22
21, 20
21, 21
21, 17
14, 15
7, 15
15, 15
8, 6
11, 9
6, 10
9, 7
9, 9
6, 15
15, 11
16, 21
15, 21
18, 16
22, 36
30, 29
30, 31
33, 26
28, 26
28, 31
30, 22
24, 21
16, 14
16, 14
15, 15
15, 9
9, 14
11, 10
14, 8
15, 15
17, 17
17, 28
17, 18
24, 34
27, 30
33, 53
54, 60
45, 54
45, 42
56, 48
40, 32
41, 35
27, 39
28, 22
29, 20
23, 22
24, 24
25, 28
25, 46
31, 50
51, 73
102, 134
206, 266
363, 503
602, 706
855, 1053
1169, 1453
1418, 1735
1656, 1888
1708, 1987
1657, 1786
1444, 1535
1153, 1135
874, 856
572, 513
376, 357
209, 184
126, 106
67, 53
39, 28
18, 17
12, 26
16, 18
20, 14
12, 24
9, 9
19, 18
18, 27
30, 34
40, 39
49, 66
81, 82
118, 133
162, 189
187, 243
243, 267
257, 321
231, 298
256, 265
214, 219
158, 178
147, 122
93, 83
57, 63
36, 26
32, 15
7, 10
13, 10
9, 5
8, 2
7, 11
5, 8
11, 12
19, 9
21, 10
18, 25
14, 13
8, 11
11, 11
10, 8
9, 4
5, 8
10, 12
2, 5
8, 4
6, 9
4, 8
8, 11
12, 4
13, 4
6, 9
5, 5
4, 6
2, 3
7, 3
9, 8
10, 3
4, 10
4, 12
5, 9
8, 9
7, 6
14, 10
6, 11
9, 10
5, 4
9, 9
9, 6
7, 11
8, 12
4, 10
4, 6
4, 9
2, 11
5, 2
11, 9
6, 11
8, 7
4, 7
9, 11
11, 14
4, 7
7, 13
12, 7
16, 9
18, 18
10, 11
10, 17
8, 8
5, 9
8, 11
4, 6
6, 9
6, 9
7, 2
5, 5
7, 8
7, 3
5, 3
8, 4
6, 7
4, 4
4, 4
3, 7
3, 6
5, 2
7, 5
4, 5
5, 4
7, 4
2, 2
5, 8
6, 2
4, 5
5, 8
4, 9
8, 8
2, 4
3, 4
7, 3
4, 7
6, 2
11, 7
5, 6
9, 6
5, 8
6, 7
3, 1
5, 5
4, 2
7, 3
5, 7
4, 3
4, 5
2, 4
5, 8
4, 7
3, 2
2, 9
1, 2
5, 5
5, 4
4, 6
5, 5
7, 5
4, 7
3, 5
7, 8
2, 3
2, 1
1, 3
5, 6
6, 5
2, 3
3, 5
1, 3
2, 9
3, 2
2, 4
2, 3
5, 5
5, 7
1, 2
4, 4
4, 6
5, 2
7, 4
6, 7
5, 6
4, 4
6, 2
2, 4
4, 3
2, 2
3, 3
3, 2
4, 4
3, 3
3, 1
7, 1
4, 1
3, 4
4, 5
2, 1
7, 5
4, 3
4, 4
2, 1
4, 1
3, 3
4, 4
5, 1
3, 5
4, 5
4, 5
3, 4
2, 2
4, 3
4, 3
2, 2
4, 6
2, 3
1, 1
3, 0
3, 4
1, 1
1, 1
2, 2
2, 2
4, 1
5, 4
3, 1
2, 0
2, 3
4, 1
2, 3
1, 0
3, 2
2, 5
3, 5
2, 5
6, 3
0, 3
2, 3
4, 5
2, 6
3, 0
4, 6
1, 0
1, 3
4, 1
1, 1
2, 2
1, 6
2, 1
2, 4
2, 3
2, 3
5, 1
0, 1
1, 1
3, 2
2, 2
5, 1
3, 2
1, 4
0, 2
0, 4
2, 1
5, 2
0, 3
2, 3
1, 4
2, 2
3, 3
4, 4
5, 4
1, 1
1, 5
2, 5
1, 4
5, 2
3, 2
2, 1
1, 1
1, 6
0, 3
3, 0
2, 5
1, 0
1, 1
4, 4
0, 0
1, 2
2, 4
1, 3
2, 0
0, 1
1, 0
1, 2
0, 0
2, 3
1, 0
1, 2
2, 2
1, 0
1, 1
0, 1
0, 0
1, 3
1, 1
3, 2
0, 0
4, 1
0, 1
2, 4
1, 1
1, 1
0, 3
3, 2
0, 2
0, 0
1, 3
1, 1
0, 1
0, 3
3, 1
0, 2
0, 1
1, 2
0, 4
3, 0
3, 0
4, 0
1, 0
1, 1
0, 5
0, 1
2, 3
1, 2
2, 1
3, 0
3, 2
1, 1
0, 2
2, 1
1, 0
0, 2
0, 5
2, 2
1, 3
3, 1
2, 0
3, 0
1, 0
0, 2
1, 0
0, 0
0, 0
1, 1
1, 0
0, 1
3, 0
0, 1
0, 2
3, 1
2, 0
2, 1
2, 0
1, 1
0, 1
0, 0
0, 2
1, 1
2, 0
1, 1
0, 1
1, 2
0, 0
1, 0
2, 2
0, 2
0, 1
0, 0
1, 0
1, 2
0, 1
0, 0
0, 0
0, 2
1, 0
0, 0
0, 2
0, 0
1, 2
2, 1
0, 0
0, 1
0, 0
0, 0
0, 1
0, 1
0, 1
0, 1
0, 1
1, 0
2, 1
0, 1
1, 1
0, 0
0, 1
1, 1
0, 0
1, 0
0, 0
0, 0
0, 2
2, 0
0, 0
0, 1
0, 0
1, 0
0, 0
0, 0
0, 1
1, 0
1, 0
0, 0
0, 1
0, 0
0, 2
0, 1
0, 0
0, 0
0, 0
2, 0
0, 0
1, 1
0, 2
1, 0
0, 0
0, 1
1, 0
1, 1
0, 1
1, 0
0, 0
0, 1
0, 1
0, 1
0, 0
0, 0
0, 1
0, 0
1, 0
1, 0
0, 1
0, 1
0, 0
0, 1
1, 0
0, 0
0, 0
0, 0
1, 1
0, 0
0, 0
0, 0
0, 0
0, 0
0, 0
1, 1
0, 0
0, 1
0, 1
0, 0
0, 0
0, 1
0, 1
0, 0
0, 0
0, 0
0, 1
0, 0
0, 0
0, 0
0, 0
0, 1
0, 2
0, 0
0, 0
1, 0
0, 1
0, 0
0, 1
0, 0
0, 0
0, 0
1, 0
1, 0
1, 0
0, 0
0, 0
0, 0
2, 0
1, 0
0, 0
0, 0
0, 0
0, 0
0, 0
0, 0
0, 0
0, 0
1, 0
2, 0
0, 0
0, 0
1, 0
0, 1
0, 1
1, 0
2, 0
0, 0
0, 0
1, 0
0, 0
1, 0
0, 1
0, 0
1, 1
0, 1
0, 1
0, 0
0, 1
2, 0
0, 0
0, 0
1, 0
0, 0
1, 0
0, 1
0, 1
0, 1
0, 0
0, 0
0, 0
1, 0
0, 0
0, 0
0, 0
1, 0
0, 0
0, 0
0, 1
0, 1
0, 0
0, 0
0, 0
0, 0
0, 0
1, 0
1, 1
0, 1
0, 0
0, 0
0, 1
1, 0
0, 0
0, 0
0, 0
0, 0
0, 0
0, 0
0, 0
0, 1
0, 0
0, 0
0, 0
0, 0
0, 0
0, 1
0, 0
0, 0
0, 1
0, 0
0, 1
0, 1
0, 0
0, 0
0, 1
1, 1
0, 0
1, 0
0, 0
0, 0
0, 0
0, 0
0, 0
0, 0
0, 0
0, 0
0, 0
0, 0
0, 0
0, 1
0, 0
0, 0
0, 0
0, 0
0, 0
0, 0
0, 0
0, 0
0, 0
0, 0
0, 0
0, 1
0, 0
0, 0
0, 0
1, 0
1, 1
0, 0
0, 0
0, 0
0, 0
0, 0
0, 0
0, 0
0, 0
0, 0
0, 0
0, 0
0, 0
0, 0
0, 0
0, 0
0, 0
0, 0
0, 0
0, 0
0, 0
0, 0
0, 0
0, 0
0, 0
0, 0
0, 0
0, 0
0, 0
0, 0
0, 0
0, 0
0, 0
0, 0
0, 0
0, 0
0, 0
0, 1
0, 0
0, 0
0, 0
0, 0
0, 0
0, 0
0, 0
0, 0
0, 0
0, 0
0, 0
0, 0
0, 1
0, 0
0, 0
0, 0
0, 0
0, 0
0, 0
0, 0
0, 0
0, 0
0, 0
0, 0
0, 0
0, 0
0, 0
0, 0
0, 0
0, 0
0, 0
0, 0
0, 0
0, 0
0, 0
0, 0
0, 0
0, 0
0, 0
0, 0
0, 0
0, 0
0, 0
0, 0
0, 0
0, 0
0, 0
0, 0
0, 0
0, 0
0, 0
0, 0
0, 0
0, 0
0, 0
0, 0
0, 0
0, 0
0, 0
0, 0
0, 0
0, 0
0, 0
0, 0
0, 0
0, 0
0, 0
0, 0
0, 0
0, 0
0, 0
0, 0
0, 0
0, 0
0, 0
0, 0
0, 0
0, 0
0, 0
0, 0
0, 0
0, 0
0, 0
0, 0
0, 0
0, 0
0, 0
0, 0
0, 0
0, 0
0, 0
0, 0
0, 0
0, 0
0, 0
0, 0
0, 0
0, 0
0, 0
0, 0
0, 0
0, 0
0, 0
0, 0
0, 0
0, 0
0, 0
0, 0
0, 0
0, 0
0, 0
0, 0
0, 0
0, 0
0, 0
0, 0
0, 0
0, 0
0, 0
0, 0
0, 0
0, 0
0, 0
0, 0
0, 0
0, 0
0, 0
0, 0
0, 0
0, 0
0, 0
0, 0
0, 0
0, 0
0, 0
0, 0
0, 0
0, 0
0, 0
0, 0
0, 0
0, 0
0, 0
0, 0
0, 0
0, 0
0, 0
0, 0
0, 0
0, 0
0, 0
0, 0
0, 0
0, 0
0, 0
0, 0
0, 0
0, 0
0, 0
0, 0
0, 0
0, 0
0, 0
0, 0
0, 0
0, 0
0, 0
0, 0
0, 0
0, 0
0, 0
0, 0
0, 0
0, 0
0, 0
0, 0
0, 0
0, 0
0, 0
0, 0
0, 0
0, 0
0, 0
0, 0
0, 0
0, 0
0, 0
0, 0
0, 0
0, 0
0, 0
0, 0
0, 0
0, 0
0, 0
0, 0
0, 0
0, 0
0, 0
0, 0
0, 0
0, 0
0, 0
0, 0
0, 0
0, 0
0, 0
0, 0
0, 0
0, 0
0, 0
0, 0
0, 0
0, 0
0, 0
0, 0
0, 0
0, 0
0, 0
0, 0
0, 0
0, 0
0, 0
0, 0
0, 0
0, 0
0, 0
0, 0
0, 0
0, 0
0, 0
0, 0
0, 0
0, 0
0, 0
0, 0
0, 0
0, 0
0, 0
0, 0
0, 0
0, 0
0, 0
0, 0
0, 0
0, 0
0, 0
0, 0
0, 0
0, 0
0, 0
0, 0
0, 0
0, 0
0, 0
0, 0
0, 0
0, 0
0, 0
0, 0
0, 0
0, 0
0, 0
0, 0
0, 0
0, 0
0, 0
0, 0
0, 0
0, 0
0, 0
0, 0
0, 0
0, 0
0, 0
0, 0
0, 0
0, 0
0, 0
0, 0
0, 0
0, 0
0, 0
0, 0
0, 0
0, 0
0, 0
0, 0
0, 0
0, 0
0, 0
0, 0
0, 0
0, 0
0, 0
0, 0
0, 0
0, 0
0, 0
0, 0
0, 0
0, 0
0, 0
0, 0
0, 0
0, 0
0, 0
0, 0
0, 0
0, 0
0, 0
0, 0
0, 0
0, 0
0, 0
0, 0
0, 0
0, 0
0, 0
0, 0
0, 0
0, 0
0, 0
0, 0
0, 0
0, 0
0, 0
0, 0
0, 0
0, 0
0, 0
0, 0
0, 0
0, 0
0, 0
0, 0
0, 0
0, 0
0, 0
0, 0
0, 0
0, 0
0, 0
0, 0
0, 0
0, 0
0, 0
0, 0
0, 0
0, 0
0, 0
0, 0
0, 0
0, 0
0, 0
0, 0
0, 0
0, 0
0, 0
0, 0
0, 0
0, 0
0, 0
0, 0
0, 0
0, 0
0, 0
0, 0
0, 0
0, 0
0, 0
0, 0
0, 0
0, 0
0, 0
0, 0
0, 0
0, 0
0, 0
0, 0
0, 0
0, 0
0, 0
0, 0
0, 0
0, 0
0, 0
0, 0
0, 0
0, 0
0, 0
0, 0
0, 0
0, 0
0, 0
0, 0
0, 0
0, 0
0, 0
0, 0
0, 0
0, 0
0, 0
0, 0
0, 0
0, 0
0, 0
0, 0
0, 0
0, 0
0, 0
0, 0
0, 0
0, 0
0, 0
0, 0
0, 0
0, 0
0, 0
0, 0
0, 0
0, 0
0, 0
0, 0
0, 0
0, 0
0, 0
0, 0
0, 0
0, 0
0, 0
0, 0
0, 0
0, 0
0, 0
0, 0
0, 0
0, 0
0, 0
0, 0
0, 0
0, 0
0, 0
#ENDOFDATA     end of spectrum data