File: host_upload/02-11-2024/rqc/uplink1/ps__0567_0717304816_000rfs_shot_90.msa
#FORMAT      : EMSA/MAS spectral data file
#VERSION     : TC202v2.0 PIXL
#TITLE       : Novarupta (sol567) subset1
#DATE        : 02-11-2024      Date in the format DD-MMM-YYYY, for example 07-JUL-2010
#TIME        :             The time of day at which the spectrum was recorded, in 24-hour format
#OWNER       : PIXL Flight Model       (PIXL will use this to indicate which instrument took the data.)
#NPOINTS     : 4096     Number of data points in the spectrum (This can be zero for configuration only files)
#NCOLUMNS    : 2     Number of data columns in the spectrum (This can be zero for configuration only files)
#XUNITS      : eV
#YUNITS      : COUNTS
#DATATYPE    : YY
#XPERCHAN    : 7.862, 7.881   eV per channel (separate by commas if more than one detector)
#OFFSET      : 18.5, -22.4         eV of first channel  (separate by commas if more than one detector
#SIGNALTYPE  : XRF
#YP_TEMP     : -1.132
#LIVETIME    : 8.8521, 8.82214   seconds (separate by commas if more than one detector)
#REALTIME    : 10, 10.0   seconds (separate by commas if more than one detector)
#SPECTRUM    : start of spectrum data
0, 0
0, 0
0, 0
0, 0
0, 0
0, 0
0, 0
0, 0
0, 0
0, 0
0, 0
0, 0
0, 0
0, 0
0, 0
0, 0
0, 0
0, 0
0, 0
0, 0
0, 0
0, 0
0, 0
0, 0
0, 0
0, 0
0, 0
0, 0
0, 0
0, 0
0, 1
0, 0
0, 0
0, 0
0, 0
2, 4
2, 3
3, 2
5, 3
4, 4
5, 4
1, 3
8, 3
2, 2
4, 3
3, 2
2, 5
4, 3
4, 3
5, 4
6, 5
10, 9
18, 8
9, 14
11, 17
18, 22
15, 12
15, 18
7, 12
9, 7
17, 22
23, 20
41, 42
40, 56
44, 36
37, 42
36, 42
36, 28
40, 54
52, 79
101, 130
195, 222
304, 334
397, 410
437, 525
482, 485
410, 406
291, 313
221, 226
160, 130
77, 64
44, 46
36, 37
41, 35
21, 28
30, 36
42, 36
36, 35
28, 22
15, 27
16, 16
11, 12
31, 29
50, 50
77, 86
120, 152
195, 224
235, 269
286, 317
309, 310
253, 250
200, 191
131, 134
81, 80
59, 57
62, 64
53, 58
74, 85
75, 98
125, 151
165, 191
192, 218
209, 244
197, 224
199, 197
145, 155
139, 124
104, 126
80, 95
71, 75
71, 81
65, 69
81, 75
49, 57
46, 45
39, 43
28, 21
23, 27
12, 18
8, 9
8, 10
4, 11
6, 9
6, 9
4, 5
9, 10
15, 5
12, 20
22, 17
14, 20
24, 30
26, 37
21, 33
21, 24
15, 14
15, 23
9, 10
6, 18
13, 10
13, 14
38, 41
59, 61
89, 104
160, 188
226, 247
272, 350
307, 322
344, 396
314, 338
287, 295
227, 217
141, 140
97, 84
50, 49
29, 35
26, 25
20, 29
34, 35
59, 63
64, 44
52, 59
56, 67
65, 62
36, 57
37, 30
25, 17
15, 18
9, 7
11, 9
9, 10
11, 10
5, 8
6, 6
9, 13
11, 13
20, 12
20, 24
30, 36
39, 36
33, 39
44, 65
56, 60
60, 70
58, 69
35, 60
36, 55
29, 25
31, 32
18, 19
19, 22
18, 16
19, 11
10, 16
8, 12
15, 12
8, 14
12, 14
12, 16
9, 17
11, 26
26, 20
22, 25
18, 11
8, 10
14, 9
11, 10
10, 13
5, 10
8, 10
14, 15
14, 16
13, 13
11, 12
15, 13
15, 25
14, 17
18, 13
32, 31
25, 33
31, 24
25, 27
32, 32
27, 29
20, 21
22, 24
13, 11
14, 14
11, 13
13, 10
14, 15
11, 4
11, 11
8, 12
17, 14
13, 19
15, 23
28, 28
32, 47
34, 41
42, 53
38, 49
37, 54
44, 33
42, 36
28, 38
25, 22
27, 22
21, 22
14, 24
13, 22
20, 20
28, 35
50, 65
89, 94
140, 210
244, 351
422, 470
656, 809
871, 1092
1142, 1403
1437, 1605
1599, 1799
1593, 1706
1496, 1577
1338, 1296
1051, 996
713, 681
532, 429
289, 273
212, 151
96, 91
60, 51
32, 27
23, 25
22, 24
17, 18
15, 12
8, 13
15, 21
20, 14
29, 32
40, 50
48, 44
60, 59
85, 128
145, 148
172, 179
182, 260
248, 260
268, 283
275, 246
238, 262
189, 169
166, 123
114, 103
79, 73
47, 36
42, 29
21, 17
18, 11
10, 13
8, 8
7, 5
11, 6
10, 5
15, 10
10, 11
10, 10
17, 13
10, 13
6, 7
10, 6
7, 9
5, 6
6, 8
6, 6
7, 2
4, 5
2, 4
6, 10
4, 5
5, 7
7, 7
3, 7
5, 5
3, 7
4, 6
2, 5
7, 1
2, 8
7, 4
2, 7
5, 9
10, 5
5, 7
8, 8
5, 10
4, 9
6, 7
6, 6
3, 9
5, 4
6, 3
7, 6
3, 4
4, 5
7, 6
3, 10
6, 6
7, 8
9, 7
9, 16
4, 8
3, 11
7, 6
8, 10
11, 9
5, 7
11, 7
11, 7
7, 1
8, 8
7, 10
5, 9
3, 4
7, 8
2, 5
5, 6
3, 8
5, 6
6, 7
5, 4
4, 6
4, 4
9, 9
4, 4
6, 7
3, 5
7, 4
6, 8
5, 8
3, 5
1, 5
3, 4
5, 4
3, 6
6, 6
7, 8
5, 1
4, 3
4, 0
3, 2
7, 2
7, 6
2, 5
5, 7
5, 5
3, 6
8, 4
8, 6
5, 6
2, 8
2, 4
2, 2
4, 5
5, 5
2, 7
2, 5
4, 4
5, 4
1, 6
5, 6
3, 0
5, 3
3, 8
5, 5
2, 9
2, 9
3, 6
6, 4
5, 7
0, 6
4, 4
2, 4
3, 4
6, 2
4, 6
5, 4
6, 10
5, 4
2, 3
3, 6
2, 1
0, 5
3, 1
7, 3
3, 3
3, 3
2, 4
3, 5
5, 3
5, 3
0, 1
3, 3
1, 3
1, 1
6, 3
5, 3
5, 7
7, 1
5, 5
2, 2
4, 4
1, 5
7, 4
2, 7
4, 2
3, 4
7, 2
3, 6
1, 0
5, 3
0, 0
2, 5
5, 5
2, 2
3, 1
6, 2
1, 3
4, 2
1, 3
2, 2
3, 2
0, 3
2, 4
7, 1
3, 2
4, 1
2, 3
3, 4
3, 3
0, 3
2, 0
4, 3
2, 1
2, 0
3, 1
3, 2
4, 1
2, 3
1, 3
3, 1
3, 2
4, 3
3, 3
2, 2
3, 2
1, 4
3, 1
4, 5
2, 1
2, 0
1, 1
1, 3
2, 3
2, 3
2, 2
3, 0
2, 3
2, 3
2, 2
4, 0
4, 5
4, 4
0, 3
1, 2
4, 3
1, 0
2, 0
1, 2
0, 2
0, 1
3, 2
2, 3
1, 3
5, 0
3, 2
0, 3
3, 1
2, 2
2, 2
1, 2
5, 1
0, 3
2, 2
1, 1
1, 2
2, 1
4, 2
1, 1
4, 2
0, 3
0, 2
1, 2
0, 5
0, 2
2, 0
1, 0
1, 2
1, 6
1, 2
2, 3
1, 1
4, 0
0, 2
3, 3
0, 1
2, 2
2, 4
5, 0
2, 0
1, 0
1, 3
1, 2
2, 1
0, 0
1, 1
3, 1
1, 0
1, 2
0, 0
1, 0
4, 0
0, 2
0, 3
0, 0
1, 1
1, 0
2, 2
1, 0
0, 1
1, 1
1, 1
0, 1
3, 5
0, 2
3, 1
2, 0
2, 1
0, 2
1, 1
3, 1
0, 1
3, 2
0, 2
0, 1
0, 0
0, 0
0, 1
0, 2
1, 0
0, 2
0, 0
0, 1
3, 0
0, 2
2, 2
0, 0
0, 2
1, 0
1, 0
0, 2
2, 2
1, 0
1, 1
1, 1
0, 1
0, 0
0, 3
1, 2
0, 2
0, 0
0, 0
0, 0
2, 1
0, 1
0, 0
0, 1
0, 2
1, 1
0, 0
0, 1
0, 1
0, 1
0, 1
0, 1
1, 1
1, 0
1, 0
0, 0
1, 1
0, 0
0, 0
0, 0
1, 0
1, 0
0, 0
0, 1
0, 1
1, 0
2, 1
0, 0
1, 0
0, 0
0, 2
1, 0
0, 1
0, 0
2, 1
1, 0
1, 1
1, 0
0, 0
0, 1
0, 0
0, 1
1, 0
0, 2
0, 1
0, 0
0, 3
0, 1
2, 0
1, 0
3, 1
0, 0
0, 0
0, 0
2, 0
1, 0
0, 0
1, 0
0, 0
0, 1
0, 0
0, 1
1, 0
1, 0
0, 1
0, 0
0, 0
0, 1
1, 0
0, 0
2, 0
1, 0
1, 1
0, 0
1, 0
0, 0
0, 0
0, 0
0, 0
0, 0
0, 0
0, 0
0, 0
0, 0
0, 0
0, 1
1, 0
0, 0
1, 0
0, 0
3, 0
0, 0
1, 0
0, 1
0, 2
0, 0
0, 0
2, 0
1, 0
1, 0
0, 1
0, 0
0, 0
0, 0
0, 0
1, 0
0, 1
0, 0
0, 0
0, 2
1, 1
0, 0
2, 0
0, 0
0, 0
0, 0
0, 1
1, 0
0, 0
1, 1
0, 0
0, 1
0, 2
0, 0
0, 1
0, 1
0, 0
0, 0
0, 1
0, 1
1, 0
0, 0
0, 0
0, 1
0, 0
0, 0
1, 0
0, 0
0, 0
0, 1
1, 0
0, 0
0, 0
0, 0
0, 0
0, 0
2, 0
0, 0
0, 0
1, 0
0, 0
0, 2
0, 0
1, 0
0, 0
0, 0
0, 0
0, 0
0, 0
0, 0
1, 0
1, 0
1, 0
0, 0
1, 1
1, 0
0, 0
0, 0
0, 0
1, 1
2, 0
1, 0
1, 1
0, 0
0, 0
0, 0
0, 0
0, 0
0, 0
0, 0
0, 0
0, 1
0, 0
0, 0
0, 0
0, 1
0, 1
0, 0
0, 1
0, 0
0, 0
0, 0
0, 0
0, 0
0, 0
1, 0
0, 0
0, 1
0, 0
0, 0
1, 0
0, 0
0, 0
1, 0
0, 1
0, 0
0, 0
1, 0
1, 0
0, 1
0, 0
0, 0
0, 0
0, 0
0, 0
0, 0
0, 0
0, 0
0, 0
0, 0
0, 0
0, 0
0, 0
0, 0
0, 0
0, 0
2, 1
1, 0
0, 0
0, 1
0, 0
0, 0
0, 0
1, 0
0, 0
0, 0
0, 1
0, 0
0, 0
0, 0
0, 0
0, 0
0, 0
0, 0
0, 0
0, 0
0, 0
0, 0
0, 0
1, 0
1, 0
0, 0
0, 0
0, 0
0, 0
0, 0
0, 0
0, 0
0, 0
0, 0
0, 0
0, 0
0, 0
0, 0
0, 0
0, 0
0, 0
0, 0
0, 0
0, 0
0, 0
0, 0
0, 0
0, 0
0, 0
0, 0
0, 0
0, 0
0, 0
0, 0
0, 0
0, 0
0, 0
0, 0
0, 0
0, 0
0, 0
0, 0
0, 0
0, 0
0, 0
0, 0
0, 0
0, 0
0, 0
0, 0
0, 0
0, 0
0, 0
0, 0
0, 0
0, 0
0, 0
0, 1
0, 0
0, 0
0, 0
0, 0
0, 0
0, 0
0, 0
0, 0
0, 0
0, 0
0, 0
0, 0
0, 0
0, 0
0, 0
0, 0
0, 0
0, 0
0, 0
0, 0
0, 0
0, 0
0, 0
0, 0
0, 0
0, 0
0, 0
0, 0
0, 0
0, 0
0, 0
0, 0
0, 0
0, 0
0, 0
0, 0
0, 0
0, 0
0, 0
0, 0
0, 0
0, 0
0, 0
0, 0
0, 0
0, 0
0, 0
0, 0
0, 0
0, 0
0, 0
0, 0
0, 0
0, 0
0, 0
0, 0
0, 0
0, 0
0, 0
0, 0
0, 0
0, 0
0, 0
0, 0
0, 0
0, 0
0, 0
0, 0
0, 0
0, 0
0, 0
0, 0
0, 0
0, 0
0, 0
0, 0
0, 0
0, 0
0, 0
0, 0
0, 0
0, 0
0, 0
0, 0
0, 0
0, 0
0, 0
0, 0
0, 0
0, 0
0, 0
0, 0
0, 0
0, 0
0, 0
0, 0
0, 0
0, 0
0, 0
0, 0
0, 0
0, 0
0, 0
0, 0
0, 0
0, 0
0, 0
0, 0
0, 0
0, 1
0, 0
0, 0
0, 0
0, 0
0, 0
0, 0
0, 0
0, 0
0, 0
0, 0
0, 0
0, 0
0, 0
0, 0
0, 0
0, 0
0, 0
0, 0
0, 0
0, 0
0, 0
0, 0
0, 0
0, 0
0, 0
0, 0
0, 0
0, 0
0, 0
0, 0
0, 0
0, 0
0, 0
0, 0
0, 0
0, 0
0, 0
0, 0
0, 0
0, 0
0, 0
0, 0
0, 0
0, 0
0, 0
0, 0
1, 0
0, 0
0, 0
0, 0
0, 0
0, 0
0, 0
0, 0
0, 0
0, 0
0, 0
0, 0
0, 0
0, 0
0, 0
0, 0
0, 0
0, 0
0, 0
0, 0
0, 0
0, 0
0, 0
0, 0
0, 0
0, 0
0, 0
0, 0
0, 0
0, 0
0, 0
0, 0
0, 0
0, 0
0, 0
0, 0
0, 0
0, 0
0, 0
0, 0
0, 0
0, 0
0, 0
0, 0
0, 0
0, 0
0, 0
0, 0
0, 0
0, 0
0, 0
0, 0
0, 0
0, 0
0, 0
0, 0
0, 0
0, 0
0, 0
0, 0
0, 0
0, 0
0, 0
0, 0
0, 0
0, 0
0, 0
0, 0
0, 0
0, 0
0, 0
0, 0
0, 0
0, 0
0, 0
0, 0
0, 0
0, 0
0, 0
0, 0
0, 0
0, 0
0, 0
0, 0
0, 0
0, 0
0, 0
0, 0
0, 0
0, 0
0, 0
0, 0
0, 0
0, 0
0, 0
0, 0
0, 0
0, 0
0, 0
0, 0
0, 0
0, 0
0, 0
0, 0
0, 0
0, 0
0, 0
0, 0
0, 0
0, 0
0, 0
0, 0
0, 0
0, 0
0, 0
0, 0
0, 0
0, 0
0, 0
0, 0
0, 0
0, 0
0, 0
0, 0
0, 0
0, 0
0, 0
0, 0
0, 0
0, 0
0, 0
0, 0
0, 0
0, 0
0, 0
0, 0
0, 0
0, 0
0, 0
0, 0
0, 0
0, 0
0, 0
0, 0
0, 0
0, 0
0, 0
0, 0
0, 0
0, 0
0, 0
0, 0
0, 0
0, 0
0, 0
0, 0
0, 0
0, 0
0, 0
0, 0
0, 0
0, 0
0, 0
0, 0
0, 0
0, 0
0, 0
0, 0
0, 0
0, 0
0, 0
0, 0
0, 0
0, 0
0, 0
0, 0
0, 0
0, 0
0, 0
0, 0
0, 0
0, 0
0, 0
0, 0
0, 0
0, 0
0, 0
0, 0
0, 0
0, 0
0, 0
0, 0
0, 0
0, 0
0, 0
0, 0
0, 0
0, 0
0, 0
0, 0
0, 0
0, 0
0, 0
0, 0
0, 0
0, 0
0, 0
0, 0
0, 0
0, 0
0, 0
0, 0
0, 0
0, 0
0, 0
0, 0
0, 0
0, 0
0, 0
0, 0
0, 0
0, 0
0, 0
0, 0
0, 0
0, 0
0, 0
0, 0
0, 0
0, 0
0, 0
0, 0
0, 0
0, 0
0, 0
0, 0
0, 0
0, 0
0, 0
0, 0
0, 0
0, 0
0, 0
0, 0
0, 0
0, 0
0, 0
0, 0
0, 0
0, 0
0, 0
0, 0
0, 0
0, 0
0, 0
0, 0
0, 0
0, 0
0, 0
0, 0
0, 0
0, 0
0, 0
0, 0
0, 0
0, 0
0, 0
0, 0
0, 0
0, 0
0, 0
0, 0
#ENDOFDATA     end of spectrum data