File: host_upload/02-11-2024/rqc/uplink1/ps__0567_0717304816_000rfs_shot_37.msa
#FORMAT      : EMSA/MAS spectral data file
#VERSION     : TC202v2.0 PIXL
#TITLE       : Novarupta (sol567) subset1
#DATE        : 02-11-2024      Date in the format DD-MMM-YYYY, for example 07-JUL-2010
#TIME        :             The time of day at which the spectrum was recorded, in 24-hour format
#OWNER       : PIXL Flight Model       (PIXL will use this to indicate which instrument took the data.)
#NPOINTS     : 4096     Number of data points in the spectrum (This can be zero for configuration only files)
#NCOLUMNS    : 2     Number of data columns in the spectrum (This can be zero for configuration only files)
#XUNITS      : eV
#YUNITS      : COUNTS
#DATATYPE    : YY
#XPERCHAN    : 7.862, 7.881   eV per channel (separate by commas if more than one detector)
#OFFSET      : 18.5, -22.4         eV of first channel  (separate by commas if more than one detector
#SIGNALTYPE  : XRF
#YP_TEMP     : -3.698
#LIVETIME    : 8.84456, 8.81281   seconds (separate by commas if more than one detector)
#REALTIME    : 10, 10.0   seconds (separate by commas if more than one detector)
#SPECTRUM    : start of spectrum data
0, 0
0, 0
0, 0
0, 0
0, 0
0, 0
0, 0
0, 0
0, 0
0, 0
0, 0
0, 0
0, 0
0, 0
0, 0
0, 0
0, 0
0, 0
0, 0
0, 0
0, 0
0, 0
0, 0
0, 0
0, 0
0, 0
0, 0
0, 0
0, 0
0, 0
0, 0
0, 2
0, 0
0, 1
2, 3
0, 2
1, 2
4, 2
7, 8
4, 2
3, 5
3, 3
4, 5
4, 5
1, 6
1, 2
2, 4
5, 5
2, 7
0, 8
4, 11
5, 11
12, 10
19, 18
11, 19
11, 13
11, 13
9, 15
5, 13
7, 17
23, 12
29, 44
44, 46
36, 65
45, 53
44, 67
35, 39
24, 41
40, 56
60, 93
100, 161
184, 282
279, 359
343, 495
381, 546
380, 515
346, 451
298, 360
175, 218
114, 150
82, 76
41, 43
25, 32
18, 52
33, 30
36, 47
22, 45
26, 41
24, 26
20, 25
19, 19
13, 21
31, 37
49, 75
92, 136
143, 171
189, 264
241, 327
271, 382
282, 353
234, 313
193, 279
135, 166
106, 118
66, 80
52, 73
60, 73
64, 94
113, 139
153, 196
182, 231
228, 285
221, 277
198, 240
215, 206
144, 176
114, 150
106, 141
69, 106
64, 97
80, 84
62, 64
57, 74
50, 56
46, 53
36, 39
17, 36
18, 32
15, 14
11, 15
6, 9
16, 9
6, 9
10, 7
11, 9
6, 14
12, 13
14, 20
15, 23
38, 34
30, 35
26, 36
22, 27
14, 31
15, 24
18, 19
11, 10
10, 17
15, 15
13, 17
30, 61
55, 93
106, 148
152, 219
204, 292
273, 368
325, 457
363, 463
295, 402
246, 336
206, 277
138, 159
66, 111
56, 53
35, 32
24, 37
27, 35
28, 41
64, 54
51, 77
58, 72
57, 69
45, 65
39, 47
29, 45
15, 19
11, 16
8, 28
10, 10
4, 10
12, 8
10, 15
11, 10
12, 11
7, 12
13, 7
20, 24
30, 41
45, 62
53, 45
46, 68
46, 81
54, 71
43, 84
32, 62
23, 40
35, 34
21, 29
16, 27
18, 21
15, 30
14, 12
10, 16
16, 9
18, 10
15, 18
12, 14
20, 24
21, 20
12, 15
15, 24
6, 25
14, 23
11, 13
11, 17
9, 20
12, 16
10, 8
12, 12
14, 11
10, 7
7, 14
9, 11
10, 13
11, 18
14, 31
17, 30
20, 34
32, 32
22, 33
20, 41
26, 31
31, 32
20, 16
16, 24
16, 23
12, 13
13, 12
14, 19
12, 16
7, 9
11, 13
9, 16
15, 21
23, 26
25, 26
29, 33
37, 39
42, 46
55, 50
53, 60
42, 50
34, 38
28, 39
27, 34
26, 31
19, 17
13, 22
15, 17
24, 20
25, 28
34, 37
62, 77
100, 156
200, 291
335, 457
475, 736
725, 1017
1032, 1376
1259, 1634
1370, 1895
1522, 1878
1497, 1839
1378, 1594
1112, 1242
814, 967
554, 651
357, 422
257, 287
127, 125
87, 79
49, 53
22, 30
14, 34
17, 24
15, 23
10, 14
18, 11
24, 22
22, 25
30, 32
38, 48
64, 76
89, 86
96, 155
148, 183
177, 237
195, 290
229, 294
228, 311
231, 274
212, 241
152, 199
130, 157
86, 107
68, 53
31, 36
21, 21
15, 19
18, 13
8, 5
9, 12
8, 5
12, 16
10, 12
13, 14
13, 14
15, 13
8, 12
14, 5
8, 17
6, 9
12, 5
8, 5
14, 10
4, 3
7, 5
6, 3
8, 5
7, 6
5, 8
10, 8
6, 7
10, 4
5, 3
4, 12
9, 12
7, 10
3, 9
2, 5
4, 7
7, 13
10, 4
6, 10
10, 9
5, 11
10, 12
3, 10
4, 9
5, 8
6, 4
4, 10
8, 7
7, 11
9, 7
6, 4
6, 8
5, 6
6, 3
9, 8
11, 7
6, 11
9, 13
8, 11
9, 15
11, 6
8, 9
11, 13
9, 14
6, 7
8, 4
6, 6
7, 8
8, 11
2, 3
9, 4
4, 12
6, 11
5, 9
8, 11
7, 8
3, 14
6, 8
5, 10
8, 6
6, 11
3, 9
7, 6
8, 6
8, 4
3, 2
4, 8
4, 1
1, 11
2, 3
1, 6
4, 7
3, 7
2, 4
7, 5
4, 3
4, 4
5, 7
5, 2
6, 13
6, 6
3, 4
9, 7
10, 3
3, 5
0, 7
6, 3
7, 7
2, 6
3, 2
6, 6
6, 3
6, 2
0, 6
2, 8
5, 2
3, 8
5, 3
2, 5
4, 5
6, 7
2, 5
4, 8
3, 6
4, 3
5, 2
3, 6
0, 4
8, 9
4, 3
2, 1
3, 8
6, 2
2, 4
2, 1
0, 5
6, 2
4, 5
2, 1
2, 5
7, 3
1, 2
0, 6
2, 8
7, 6
4, 6
3, 3
1, 3
1, 7
1, 3
1, 1
2, 5
3, 5
3, 8
4, 4
4, 6
4, 3
1, 1
2, 3
2, 6
3, 5
2, 1
4, 3
1, 3
2, 8
0, 3
2, 5
1, 2
3, 4
3, 4
4, 1
1, 3
3, 2
2, 2
3, 6
2, 1
3, 2
4, 5
3, 2
0, 6
4, 2
4, 0
5, 5
3, 0
6, 1
4, 4
1, 4
1, 0
0, 5
2, 1
3, 4
3, 2
1, 2
3, 1
0, 3
1, 1
1, 2
2, 3
3, 5
1, 4
2, 3
1, 2
0, 2
2, 4
3, 1
2, 3
2, 3
2, 2
3, 2
2, 1
1, 2
2, 3
2, 0
4, 2
2, 4
3, 4
2, 3
0, 1
2, 1
2, 2
1, 4
1, 2
1, 0
2, 0
1, 0
3, 0
1, 7
0, 2
3, 2
0, 1
4, 1
1, 1
2, 3
1, 2
3, 2
1, 5
3, 8
2, 3
3, 3
0, 5
1, 2
1, 2
3, 4
1, 1
1, 1
1, 2
0, 2
0, 1
2, 0
1, 3
0, 3
0, 0
2, 3
2, 2
2, 3
1, 0
0, 1
1, 0
1, 6
3, 3
0, 2
0, 0
2, 1
2, 1
4, 2
4, 3
0, 2
3, 1
3, 0
3, 1
0, 1
0, 1
0, 1
2, 2
0, 2
1, 3
1, 1
0, 2
0, 2
3, 1
2, 2
0, 0
4, 0
1, 4
0, 2
2, 2
1, 1
1, 1
1, 3
2, 1
1, 0
0, 1
1, 1
1, 1
1, 0
2, 1
1, 0
1, 1
1, 0
0, 1
0, 2
0, 0
0, 3
0, 1
0, 1
0, 0
0, 0
0, 1
0, 0
1, 1
2, 0
1, 1
2, 1
3, 3
1, 2
0, 0
0, 0
1, 0
0, 0
1, 1
1, 1
0, 0
1, 0
1, 1
0, 1
1, 0
0, 0
1, 0
0, 2
1, 1
0, 1
2, 1
0, 2
0, 0
0, 1
1, 1
0, 0
0, 1
1, 1
2, 0
0, 1
2, 1
1, 2
0, 1
1, 1
3, 1
1, 0
0, 1
0, 1
0, 0
2, 0
0, 0
0, 0
0, 1
2, 0
0, 0
0, 2
1, 2
1, 0
2, 0
2, 1
0, 1
1, 0
0, 1
0, 0
0, 0
0, 1
1, 1
0, 1
1, 0
0, 0
2, 0
0, 0
0, 0
0, 0
1, 0
0, 0
0, 1
0, 0
0, 0
2, 0
2, 1
0, 2
1, 0
0, 2
0, 0
1, 1
0, 0
2, 0
2, 1
1, 1
0, 1
0, 0
0, 2
0, 1
0, 3
0, 0
0, 0
1, 0
0, 0
0, 1
0, 0
0, 1
0, 0
0, 1
0, 0
0, 1
0, 0
0, 0
1, 1
0, 0
1, 1
0, 0
1, 0
0, 0
0, 0
0, 0
0, 0
0, 0
1, 1
0, 0
0, 0
0, 0
0, 0
0, 0
2, 2
0, 0
0, 0
0, 0
0, 0
0, 1
0, 0
0, 1
1, 0
2, 0
0, 0
1, 0
0, 0
0, 0
0, 0
0, 0
0, 1
0, 0
0, 1
0, 0
0, 0
0, 0
0, 0
0, 0
1, 0
0, 1
0, 0
0, 0
0, 0
0, 1
0, 0
0, 1
0, 0
0, 0
2, 0
0, 0
0, 1
0, 0
1, 0
0, 0
0, 0
1, 0
0, 1
0, 1
1, 0
0, 0
0, 0
0, 0
0, 0
0, 0
0, 0
0, 1
2, 0
1, 0
0, 0
1, 0
0, 0
0, 0
0, 0
1, 0
0, 0
1, 0
0, 0
0, 0
1, 1
0, 0
0, 0
0, 1
0, 0
0, 0
1, 0
1, 0
0, 0
0, 0
0, 1
0, 0
0, 0
0, 0
0, 0
0, 0
0, 0
0, 0
0, 2
1, 0
0, 0
1, 0
0, 0
0, 0
0, 1
0, 0
0, 0
0, 0
0, 0
2, 0
0, 0
0, 0
0, 0
0, 0
0, 0
1, 0
0, 0
0, 0
0, 1
0, 0
1, 0
0, 0
0, 0
0, 0
0, 0
0, 0
0, 0
1, 0
0, 0
0, 0
0, 0
0, 0
0, 0
0, 0
0, 0
0, 0
0, 0
0, 0
2, 0
0, 0
0, 0
0, 0
0, 0
0, 0
0, 0
0, 0
1, 1
0, 0
0, 0
0, 0
1, 0
0, 0
0, 0
0, 0
0, 0
1, 0
1, 0
0, 0
0, 0
0, 1
0, 1
0, 0
0, 0
0, 0
0, 0
0, 0
0, 0
0, 0
0, 0
0, 0
0, 0
0, 0
0, 0
0, 0
0, 0
0, 0
0, 0
0, 0
0, 0
0, 0
0, 0
0, 0
0, 1
0, 0
0, 0
0, 0
0, 0
0, 0
0, 1
0, 0
0, 0
0, 0
0, 0
0, 0
0, 0
0, 0
1, 0
0, 0
0, 0
0, 0
1, 0
0, 0
0, 0
0, 0
0, 0
0, 0
0, 0
0, 0
0, 0
0, 0
0, 0
0, 0
0, 0
0, 0
0, 0
0, 0
0, 0
0, 0
0, 0
0, 0
0, 1
0, 0
0, 0
0, 0
0, 0
0, 0
0, 0
0, 0
0, 0
0, 0
0, 0
0, 0
0, 0
0, 0
0, 0
0, 0
0, 0
0, 0
0, 0
0, 0
0, 0
0, 0
0, 0
0, 0
0, 0
0, 0
0, 0
0, 0
0, 0
0, 0
0, 0
0, 0
0, 0
0, 0
0, 0
0, 0
0, 0
0, 0
0, 0
0, 0
0, 0
0, 1
0, 0
0, 0
0, 0
0, 0
0, 0
0, 0
0, 0
0, 0
0, 0
0, 0
0, 0
0, 0
0, 0
0, 0
0, 0
0, 0
0, 0
0, 0
0, 0
0, 0
1, 0
0, 0
0, 0
0, 0
0, 0
0, 0
0, 0
0, 0
0, 0
0, 0
0, 0
0, 0
0, 0
0, 0
0, 0
0, 0
0, 0
0, 0
0, 0
0, 0
0, 0
0, 0
0, 0
0, 0
0, 0
0, 0
1, 0
0, 0
0, 0
0, 0
0, 0
0, 0
0, 0
0, 0
0, 0
0, 0
0, 0
0, 0
0, 0
0, 0
0, 0
0, 0
0, 0
0, 0
0, 0
0, 0
0, 0
0, 0
0, 0
0, 0
0, 1
0, 0
0, 0
0, 0
0, 0
0, 0
0, 0
0, 0
0, 0
0, 0
0, 0
0, 0
0, 0
0, 0
0, 0
0, 0
0, 0
0, 0
0, 0
0, 0
0, 0
0, 0
0, 0
0, 0
0, 0
0, 0
0, 0
0, 0
0, 0
0, 0
0, 0
0, 0
0, 0
0, 0
0, 0
0, 0
0, 0
0, 0
0, 0
0, 0
0, 0
0, 0
0, 0
0, 0
0, 0
0, 0
0, 0
0, 0
0, 0
0, 0
0, 0
0, 0
0, 0
0, 0
0, 0
0, 0
0, 0
0, 0
0, 0
0, 0
0, 0
0, 0
0, 0
0, 0
0, 0
0, 0
0, 0
0, 0
0, 0
0, 0
0, 0
0, 0
0, 0
0, 0
0, 0
0, 0
0, 0
0, 0
0, 0
0, 0
0, 0
0, 0
0, 0
0, 0
0, 0
0, 0
0, 0
0, 0
0, 0
0, 0
0, 0
0, 0
0, 0
0, 0
0, 0
0, 0
0, 0
0, 0
0, 0
0, 0
0, 0
0, 0
0, 0
0, 0
0, 0
0, 0
0, 0
0, 0
0, 0
0, 0
0, 0
0, 0
0, 0
0, 0
0, 0
0, 0
0, 0
0, 0
0, 0
0, 0
0, 0
0, 0
0, 0
0, 0
0, 0
0, 0
0, 0
0, 0
0, 0
0, 0
0, 0
0, 0
0, 0
0, 0
0, 0
0, 0
0, 0
0, 0
0, 0
0, 0
0, 0
0, 0
0, 0
0, 0
0, 0
0, 0
0, 0
0, 0
0, 0
0, 0
0, 0
0, 0
0, 0
0, 0
0, 0
0, 0
0, 0
0, 0
0, 0
0, 0
0, 0
0, 0
0, 0
0, 0
0, 0
0, 0
0, 0
0, 0
0, 0
0, 0
0, 0
0, 0
0, 0
0, 0
0, 0
0, 0
0, 0
0, 0
0, 0
0, 0
0, 0
0, 0
0, 0
0, 0
0, 0
0, 0
0, 0
0, 0
0, 0
0, 0
0, 0
0, 0
0, 0
0, 0
0, 0
0, 0
0, 0
0, 0
0, 0
0, 0
0, 0
0, 0
0, 0
0, 0
0, 0
0, 0
0, 0
0, 0
0, 0
0, 0
0, 0
0, 0
0, 0
0, 0
0, 0
0, 0
0, 0
0, 0
0, 0
0, 0
0, 0
0, 0
0, 0
0, 0
0, 0
0, 0
0, 0
0, 0
0, 0
0, 0
0, 0
0, 0
0, 0
0, 0
0, 0
0, 0
0, 0
0, 0
0, 0
0, 0
0, 0
0, 0
0, 0
0, 0
0, 0
0, 0
0, 0
0, 0
0, 0
0, 0
0, 0
0, 0
0, 0
0, 0
0, 0
0, 0
0, 0
0, 0
0, 0
0, 0
0, 0
0, 0
0, 0
0, 0
0, 0
0, 0
0, 0
0, 0
0, 0
0, 0
0, 0
0, 0
0, 0
0, 0
0, 0
0, 0
0, 0
0, 0
0, 0
0, 0
0, 0
0, 0
0, 0
0, 0
0, 0
0, 0
0, 0
0, 0
0, 0
0, 0
0, 0
0, 0
0, 0
0, 0
0, 0
0, 0
0, 0
0, 0
0, 0
0, 0
0, 0
0, 0
0, 0
0, 0
0, 0
0, 0
0, 0
0, 0
0, 0
0, 0
0, 0
0, 0
0, 0
0, 0
0, 0
0, 0
0, 0
0, 0
0, 0
0, 0
#ENDOFDATA     end of spectrum data