File: host_upload/02-11-2024/rqc/uplink1/ps__0567_0717304816_000rfs_shot_344.msa
#FORMAT      : EMSA/MAS spectral data file
#VERSION     : TC202v2.0 PIXL
#TITLE       : Novarupta (sol567) subset1
#DATE        : 02-11-2024      Date in the format DD-MMM-YYYY, for example 07-JUL-2010
#TIME        :             The time of day at which the spectrum was recorded, in 24-hour format
#OWNER       : PIXL Flight Model       (PIXL will use this to indicate which instrument took the data.)
#NPOINTS     : 4096     Number of data points in the spectrum (This can be zero for configuration only files)
#NCOLUMNS    : 2     Number of data columns in the spectrum (This can be zero for configuration only files)
#XUNITS      : eV
#YUNITS      : COUNTS
#DATATYPE    : YY
#XPERCHAN    : 7.862, 7.881   eV per channel (separate by commas if more than one detector)
#OFFSET      : 18.5, -22.4         eV of first channel  (separate by commas if more than one detector
#SIGNALTYPE  : XRF
#YP_TEMP     : 1.273
#LIVETIME    : 8.83782, 8.82105   seconds (separate by commas if more than one detector)
#REALTIME    : 10, 10.0   seconds (separate by commas if more than one detector)
#SPECTRUM    : start of spectrum data
0, 0
0, 0
0, 0
0, 0
0, 0
0, 0
0, 0
0, 0
0, 0
0, 0
0, 0
0, 0
0, 0
0, 0
0, 0
0, 0
0, 0
0, 0
0, 0
0, 0
0, 0
0, 0
0, 0
0, 0
0, 0
0, 0
0, 0
0, 0
0, 0
0, 0
0, 0
0, 2
1, 0
0, 0
0, 0
2, 1
0, 2
3, 4
2, 6
3, 3
6, 1
1, 6
1, 3
3, 2
5, 3
2, 9
1, 0
3, 4
4, 5
5, 3
9, 6
10, 8
7, 11
19, 19
24, 21
10, 16
10, 17
14, 14
8, 11
4, 16
12, 19
32, 33
31, 31
44, 39
55, 54
39, 52
41, 46
28, 37
38, 35
64, 75
111, 105
192, 204
294, 309
412, 407
468, 494
451, 551
393, 398
306, 347
237, 229
151, 127
91, 93
40, 46
31, 33
33, 30
35, 26
36, 37
31, 36
14, 30
26, 23
19, 22
16, 9
19, 20
22, 33
57, 64
82, 82
157, 157
216, 233
305, 307
345, 386
316, 361
288, 323
250, 282
174, 171
127, 111
87, 89
57, 58
52, 60
57, 64
73, 81
114, 136
133, 177
193, 206
197, 248
189, 187
173, 226
143, 164
117, 139
103, 104
78, 89
99, 80
63, 81
59, 73
58, 57
59, 46
46, 42
40, 43
30, 37
18, 19
19, 13
17, 13
11, 15
9, 6
14, 6
10, 5
7, 7
9, 6
14, 8
10, 17
15, 13
21, 21
28, 34
41, 32
31, 29
25, 23
18, 11
15, 13
18, 9
7, 10
8, 4
9, 12
24, 20
44, 56
80, 95
129, 165
196, 217
283, 345
330, 376
401, 356
355, 399
287, 350
247, 232
172, 178
103, 93
71, 55
47, 32
23, 29
22, 31
27, 44
36, 30
52, 51
59, 77
67, 62
38, 59
44, 61
42, 41
39, 30
25, 21
13, 11
15, 17
3, 5
9, 7
9, 13
7, 10
9, 8
10, 10
11, 8
18, 13
22, 24
31, 33
49, 41
54, 55
65, 60
71, 78
77, 69
45, 59
47, 59
40, 52
31, 26
25, 24
12, 19
18, 14
10, 18
19, 13
13, 10
13, 12
15, 15
13, 11
16, 18
19, 18
23, 14
17, 25
22, 17
13, 24
9, 19
21, 19
19, 16
11, 14
17, 13
11, 12
11, 9
8, 11
13, 19
17, 17
14, 15
13, 11
19, 17
22, 21
19, 28
31, 28
32, 39
31, 33
35, 32
24, 22
28, 33
28, 25
24, 16
14, 21
15, 9
11, 14
10, 6
12, 6
11, 15
11, 19
9, 16
14, 10
26, 19
15, 25
38, 35
32, 37
45, 40
45, 57
44, 45
51, 58
41, 38
27, 53
32, 30
31, 25
25, 13
21, 16
18, 19
26, 22
25, 23
26, 47
64, 99
110, 161
206, 246
359, 444
546, 610
777, 1008
1121, 1347
1436, 1657
1661, 1803
1732, 1876
1659, 1635
1371, 1383
1182, 1118
897, 790
583, 500
387, 307
205, 177
105, 121
72, 51
34, 41
38, 26
21, 13
19, 15
21, 13
22, 24
12, 13
13, 25
27, 21
26, 40
44, 40
48, 59
104, 97
115, 128
152, 172
193, 261
217, 281
248, 310
269, 279
212, 249
185, 232
208, 155
144, 105
84, 82
57, 58
23, 27
29, 16
18, 16
12, 11
5, 7
11, 12
8, 11
8, 15
16, 9
8, 15
16, 12
6, 13
15, 7
16, 10
11, 13
8, 7
6, 7
4, 0
5, 7
6, 8
4, 5
3, 4
3, 2
6, 11
6, 5
6, 2
7, 11
2, 7
7, 4
4, 5
6, 7
4, 3
10, 9
1, 8
5, 3
2, 8
7, 10
9, 5
3, 7
11, 13
6, 5
10, 8
9, 8
7, 11
9, 11
11, 4
4, 4
11, 7
8, 9
4, 9
5, 6
7, 8
8, 3
7, 5
3, 7
12, 6
9, 5
9, 13
10, 13
14, 6
11, 7
12, 10
9, 8
3, 9
15, 9
6, 6
5, 7
5, 8
8, 5
4, 7
10, 8
10, 5
7, 6
3, 3
1, 4
10, 7
8, 5
3, 4
5, 5
8, 5
4, 7
6, 9
5, 7
5, 7
8, 10
6, 5
6, 1
8, 6
10, 4
7, 4
5, 2
5, 2
4, 5
6, 3
2, 5
4, 3
4, 2
1, 10
5, 3
5, 8
6, 9
9, 5
8, 0
2, 9
2, 2
3, 5
6, 4
3, 4
2, 7
6, 8
3, 5
6, 3
3, 7
5, 3
2, 6
6, 11
4, 2
11, 3
5, 4
4, 3
3, 3
4, 5
8, 4
6, 6
6, 2
1, 5
4, 4
3, 4
2, 10
2, 3
2, 5
5, 3
3, 1
4, 7
1, 4
1, 5
1, 4
2, 3
3, 5
4, 2
3, 4
2, 4
3, 6
2, 2
2, 2
4, 2
5, 4
3, 0
7, 4
4, 10
2, 3
3, 1
6, 2
1, 3
3, 3
4, 1
3, 1
6, 3
4, 8
4, 4
3, 1
6, 1
1, 5
1, 6
2, 8
4, 1
3, 4
4, 3
3, 2
2, 2
6, 3
3, 4
0, 4
6, 4
1, 3
3, 0
4, 1
3, 1
2, 2
3, 1
2, 3
3, 3
4, 2
1, 2
3, 0
2, 8
3, 3
1, 1
0, 3
5, 1
1, 3
2, 1
4, 3
2, 2
2, 3
3, 5
2, 3
3, 2
1, 2
7, 7
3, 2
1, 3
3, 4
1, 2
3, 1
2, 6
0, 2
4, 2
2, 2
1, 2
3, 4
2, 2
1, 4
2, 3
2, 3
2, 3
2, 2
1, 1
0, 3
1, 1
1, 2
0, 1
0, 5
2, 2
1, 2
0, 1
2, 2
2, 2
1, 4
6, 0
4, 0
1, 2
0, 2
0, 4
6, 3
6, 3
1, 4
5, 2
2, 6
3, 4
4, 2
2, 6
3, 3
0, 1
1, 1
2, 2
2, 1
2, 3
2, 2
4, 1
2, 6
2, 2
3, 1
2, 3
3, 3
1, 2
2, 2
2, 0
3, 3
2, 2
0, 5
0, 3
0, 2
2, 0
2, 0
4, 3
1, 2
1, 1
0, 4
1, 2
0, 1
0, 0
1, 0
0, 1
2, 0
1, 0
4, 0
3, 0
0, 2
0, 1
2, 0
2, 2
1, 3
1, 0
1, 0
0, 0
2, 2
2, 1
2, 2
1, 1
3, 1
0, 0
0, 1
1, 0
2, 1
1, 1
0, 1
0, 0
2, 4
1, 1
0, 2
0, 2
0, 2
1, 0
0, 0
1, 6
0, 3
0, 0
0, 0
2, 0
0, 0
1, 2
1, 0
0, 2
0, 0
1, 2
0, 1
0, 1
0, 3
0, 3
0, 1
0, 0
0, 2
0, 0
0, 1
0, 2
2, 0
1, 0
0, 0
0, 2
1, 1
1, 0
1, 0
0, 1
0, 1
2, 1
0, 0
0, 0
0, 1
0, 0
0, 0
0, 1
1, 1
0, 0
1, 0
2, 1
0, 0
0, 1
0, 0
0, 0
2, 2
3, 0
0, 1
0, 0
0, 0
0, 1
2, 2
0, 0
0, 0
1, 0
0, 2
0, 0
2, 0
1, 0
3, 1
2, 2
2, 0
0, 1
1, 3
1, 1
0, 0
0, 0
0, 0
1, 0
1, 0
1, 1
0, 0
1, 1
0, 0
0, 0
0, 0
0, 0
1, 0
0, 0
0, 0
0, 0
0, 0
2, 1
1, 1
1, 0
0, 2
0, 0
0, 0
0, 0
1, 0
0, 0
0, 2
0, 0
0, 2
0, 1
0, 1
1, 1
0, 0
1, 1
0, 1
1, 0
0, 1
0, 0
0, 0
0, 0
0, 2
0, 0
0, 0
1, 0
0, 0
0, 0
0, 0
0, 0
0, 0
0, 0
0, 0
0, 1
0, 0
1, 0
1, 0
1, 0
0, 0
0, 2
0, 2
0, 0
0, 0
0, 0
0, 0
1, 2
0, 0
0, 2
0, 0
0, 1
0, 1
0, 0
1, 1
0, 1
0, 0
0, 1
0, 0
1, 0
0, 0
0, 0
0, 0
0, 0
0, 0
0, 0
1, 0
0, 1
0, 0
0, 0
0, 0
1, 0
0, 0
1, 0
0, 0
0, 0
1, 0
0, 2
1, 0
1, 0
1, 1
0, 0
0, 1
1, 0
0, 1
1, 0
0, 1
0, 0
0, 0
1, 1
0, 0
0, 0
0, 0
0, 0
0, 2
0, 0
0, 1
1, 0
0, 0
0, 0
1, 0
0, 0
0, 0
0, 0
1, 0
0, 0
0, 1
0, 0
0, 1
0, 0
0, 0
0, 1
0, 0
0, 0
0, 0
0, 0
0, 0
0, 0
1, 0
0, 0
0, 0
0, 0
0, 0
0, 1
0, 1
0, 0
0, 0
0, 0
0, 0
0, 0
0, 1
0, 0
0, 0
0, 0
0, 0
0, 0
0, 0
0, 0
0, 0
0, 0
0, 0
0, 0
0, 0
1, 0
0, 0
0, 0
0, 0
0, 0
0, 0
0, 0
1, 0
0, 0
0, 0
0, 0
0, 0
0, 0
0, 0
0, 0
0, 0
0, 0
0, 0
0, 1
0, 1
0, 0
0, 0
1, 0
1, 0
0, 0
0, 0
0, 0
0, 0
0, 0
0, 0
0, 0
0, 0
0, 0
0, 0
0, 0
0, 0
0, 0
0, 0
0, 1
1, 0
0, 0
1, 0
0, 0
0, 0
0, 0
0, 0
0, 0
0, 0
0, 0
0, 0
0, 0
0, 0
0, 0
1, 1
0, 0
0, 1
0, 0
0, 0
0, 0
0, 0
0, 0
0, 0
0, 0
0, 0
0, 0
0, 0
0, 0
0, 0
0, 0
0, 0
0, 0
0, 0
0, 0
0, 0
0, 0
0, 0
0, 0
0, 0
0, 0
0, 0
0, 0
0, 0
0, 0
0, 0
1, 1
0, 0
0, 0
0, 1
0, 0
0, 0
0, 0
0, 0
0, 0
0, 0
0, 0
0, 0
0, 0
0, 0
0, 0
0, 0
0, 0
0, 0
1, 0
0, 0
0, 0
0, 0
0, 0
0, 0
0, 0
0, 0
0, 0
0, 0
0, 0
0, 0
0, 0
0, 0
0, 0
0, 0
0, 0
0, 0
0, 0
0, 0
0, 0
0, 0
0, 0
0, 0
0, 0
0, 0
0, 1
0, 0
0, 0
0, 0
0, 0
0, 0
0, 0
0, 0
0, 0
0, 0
0, 0
0, 0
0, 0
0, 0
0, 0
0, 0
0, 0
0, 0
0, 0
1, 0
0, 0
0, 0
0, 0
0, 0
0, 0
0, 0
0, 0
0, 0
0, 0
0, 0
0, 0
0, 0
0, 0
0, 0
0, 0
0, 0
0, 1
0, 0
0, 0
0, 0
0, 0
0, 0
0, 0
0, 0
0, 0
0, 0
0, 0
0, 0
0, 0
0, 0
0, 0
0, 0
0, 0
0, 0
0, 0
0, 0
0, 0
0, 0
0, 0
0, 0
0, 0
0, 0
1, 0
0, 0
0, 0
0, 0
0, 0
0, 0
0, 0
0, 0
0, 0
0, 0
0, 0
0, 0
0, 0
0, 0
0, 1
0, 0
0, 0
0, 0
0, 0
0, 0
0, 0
0, 0
0, 0
0, 0
0, 0
0, 0
0, 0
0, 0
0, 0
0, 0
0, 0
0, 0
0, 0
0, 0
0, 0
0, 0
0, 0
0, 0
0, 0
0, 0
0, 0
0, 0
0, 0
0, 0
0, 0
0, 0
0, 0
0, 0
0, 0
0, 0
0, 0
0, 0
0, 0
0, 0
0, 0
0, 0
0, 0
0, 0
0, 0
0, 0
0, 0
0, 0
0, 0
0, 0
0, 0
0, 0
0, 0
0, 0
0, 0
0, 0
0, 0
0, 0
0, 0
0, 0
0, 0
0, 0
0, 0
0, 0
0, 0
0, 0
0, 0
0, 0
0, 0
0, 0
0, 0
0, 0
0, 0
0, 0
0, 0
0, 0
0, 0
0, 0
0, 0
0, 0
0, 0
0, 0
0, 0
0, 0
0, 0
0, 0
0, 0
0, 0
0, 0
0, 0
0, 0
0, 0
0, 0
0, 0
0, 0
0, 0
0, 0
0, 0
0, 0
0, 0
0, 0
0, 0
0, 0
0, 0
0, 0
0, 0
0, 0
0, 0
0, 0
0, 0
0, 0
0, 0
0, 0
0, 0
0, 0
0, 0
0, 0
0, 0
0, 0
0, 0
0, 0
0, 0
0, 0
0, 0
0, 0
0, 0
0, 0
0, 0
0, 0
0, 0
0, 0
0, 0
0, 0
0, 0
0, 0
0, 0
0, 0
0, 0
0, 0
0, 0
0, 0
0, 0
0, 0
0, 0
0, 0
0, 0
0, 0
0, 0
0, 0
0, 0
0, 0
0, 0
0, 0
0, 0
0, 0
0, 0
0, 0
0, 0
0, 0
0, 0
0, 0
0, 0
0, 0
0, 0
0, 0
0, 0
0, 0
0, 0
0, 0
0, 0
0, 0
0, 0
0, 0
0, 0
0, 0
0, 0
0, 0
0, 0
0, 0
0, 0
0, 0
0, 0
0, 0
0, 0
0, 0
0, 0
0, 0
0, 0
0, 0
0, 0
0, 0
0, 0
0, 0
0, 0
0, 0
0, 0
0, 0
0, 0
0, 0
0, 0
0, 0
0, 0
0, 0
0, 0
0, 0
0, 0
0, 0
0, 0
0, 0
0, 0
0, 0
0, 0
0, 0
0, 0
0, 0
0, 0
0, 0
0, 0
0, 0
0, 0
0, 0
0, 0
0, 0
0, 0
0, 0
0, 0
0, 0
0, 0
0, 0
0, 0
0, 0
0, 0
0, 0
0, 0
0, 0
0, 0
0, 0
0, 0
0, 0
0, 0
0, 0
0, 0
0, 0
0, 0
0, 0
0, 0
0, 0
0, 0
0, 0
0, 0
0, 0
0, 0
0, 0
0, 0
0, 0
0, 0
0, 0
0, 0
0, 0
0, 0
0, 0
0, 0
0, 0
0, 0
0, 0
0, 0
0, 0
0, 0
0, 0
0, 0
0, 0
0, 0
0, 0
0, 0
0, 0
0, 0
0, 0
0, 0
0, 0
0, 0
0, 0
0, 0
0, 0
0, 0
0, 0
0, 0
0, 0
0, 0
0, 0
0, 0
0, 0
0, 0
0, 0
0, 0
0, 0
0, 0
0, 0
0, 0
0, 0
0, 0
0, 0
0, 0
0, 0
0, 0
0, 0
0, 0
0, 0
0, 0
0, 0
0, 0
0, 0
0, 0
0, 0
0, 0
0, 0
0, 0
0, 0
0, 0
0, 0
0, 0
0, 0
0, 0
0, 0
0, 0
0, 0
0, 0
#ENDOFDATA     end of spectrum data