File: host_upload/02-11-2024/rqc/uplink1/ps__0567_0717304816_000rfs_shot_478.msa
#FORMAT      : EMSA/MAS spectral data file
#VERSION     : TC202v2.0 PIXL
#TITLE       : Novarupta (sol567) subset1
#DATE        : 02-11-2024      Date in the format DD-MMM-YYYY, for example 07-JUL-2010
#TIME        :             The time of day at which the spectrum was recorded, in 24-hour format
#OWNER       : PIXL Flight Model       (PIXL will use this to indicate which instrument took the data.)
#NPOINTS     : 4096     Number of data points in the spectrum (This can be zero for configuration only files)
#NCOLUMNS    : 2     Number of data columns in the spectrum (This can be zero for configuration only files)
#XUNITS      : eV
#YUNITS      : COUNTS
#DATATYPE    : YY
#XPERCHAN    : 7.862, 7.881   eV per channel (separate by commas if more than one detector)
#OFFSET      : 18.5, -22.4         eV of first channel  (separate by commas if more than one detector
#SIGNALTYPE  : XRF
#YP_TEMP     : 2.075
#LIVETIME    : 8.83541, 8.82832   seconds (separate by commas if more than one detector)
#REALTIME    : 10, 10.0   seconds (separate by commas if more than one detector)
#SPECTRUM    : start of spectrum data
0, 0
0, 0
0, 0
0, 0
0, 0
0, 0
0, 0
0, 0
0, 0
0, 0
0, 0
0, 0
0, 0
0, 0
0, 0
0, 0
0, 0
0, 0
0, 0
0, 0
0, 0
0, 0
0, 0
0, 0
0, 0
0, 0
0, 0
0, 0
0, 1
0, 0
1, 0
0, 0
0, 1
0, 0
0, 1
2, 3
1, 1
3, 3
4, 3
4, 4
0, 7
2, 4
2, 2
3, 6
3, 3
1, 4
1, 3
2, 4
0, 5
4, 6
7, 8
9, 7
11, 17
16, 12
18, 17
12, 13
14, 11
6, 16
14, 10
15, 9
18, 20
25, 28
38, 49
43, 38
50, 52
55, 48
39, 36
26, 37
28, 41
69, 53
89, 123
162, 228
284, 359
397, 453
493, 505
496, 560
429, 407
358, 369
264, 223
152, 135
82, 71
63, 52
38, 34
34, 29
21, 38
39, 45
48, 31
37, 28
33, 43
15, 20
17, 14
15, 13
17, 24
49, 43
87, 77
134, 133
195, 228
242, 301
310, 330
310, 291
254, 254
212, 235
152, 167
107, 109
69, 71
54, 51
51, 44
67, 68
79, 85
130, 140
185, 164
171, 219
228, 207
202, 227
201, 198
159, 155
120, 124
119, 96
89, 110
72, 86
83, 96
73, 72
55, 63
51, 49
47, 51
36, 31
32, 36
21, 28
19, 13
24, 14
9, 14
12, 16
10, 7
5, 8
5, 9
9, 6
9, 8
16, 14
18, 16
24, 29
28, 33
30, 27
20, 38
38, 32
22, 17
12, 16
7, 13
14, 14
15, 10
18, 19
32, 29
46, 61
84, 106
135, 176
227, 232
272, 332
357, 389
413, 406
352, 385
319, 332
268, 261
178, 152
93, 90
63, 58
51, 35
23, 26
28, 27
38, 39
46, 35
45, 60
48, 72
54, 74
58, 78
49, 44
29, 28
27, 36
21, 23
15, 13
7, 10
5, 7
7, 9
8, 7
9, 9
10, 6
14, 12
13, 10
10, 17
20, 32
31, 32
43, 59
43, 44
75, 73
50, 65
65, 53
39, 60
47, 51
32, 29
27, 38
24, 17
23, 25
15, 11
15, 23
15, 16
11, 21
15, 14
20, 12
21, 13
12, 25
13, 9
19, 15
11, 20
16, 29
23, 15
11, 12
12, 13
17, 18
13, 18
13, 14
5, 13
11, 6
8, 6
12, 12
16, 13
12, 16
11, 9
17, 14
24, 22
34, 17
28, 17
35, 22
28, 42
25, 34
30, 20
24, 29
33, 17
15, 14
22, 17
14, 15
9, 18
9, 6
13, 14
8, 20
12, 14
11, 9
19, 13
20, 25
28, 26
22, 43
26, 38
43, 50
52, 49
54, 55
54, 45
32, 39
33, 34
21, 35
23, 29
23, 17
15, 19
25, 27
11, 19
28, 41
40, 44
55, 80
110, 122
211, 249
323, 438
525, 668
800, 911
1145, 1282
1385, 1581
1513, 1707
1740, 1765
1584, 1579
1417, 1340
1132, 1065
864, 731
567, 494
372, 299
211, 175
138, 92
77, 49
38, 38
28, 14
21, 18
22, 16
16, 11
7, 25
18, 16
20, 18
19, 21
25, 36
45, 38
39, 62
79, 96
120, 111
166, 183
200, 222
226, 264
242, 244
258, 257
237, 235
213, 179
177, 151
121, 121
94, 88
63, 42
39, 31
22, 22
7, 17
12, 9
10, 7
6, 7
9, 6
7, 12
10, 17
7, 11
12, 19
11, 16
12, 10
3, 17
7, 6
3, 7
8, 11
5, 6
8, 4
7, 5
7, 8
8, 6
8, 9
3, 4
6, 4
4, 5
12, 4
9, 8
7, 8
5, 4
7, 4
9, 5
5, 2
7, 7
8, 6
6, 4
6, 7
8, 7
11, 6
8, 6
9, 8
11, 3
3, 10
7, 8
5, 9
3, 7
3, 5
9, 5
7, 9
6, 3
9, 10
6, 2
5, 4
11, 11
11, 11
9, 8
7, 8
12, 5
9, 9
8, 17
8, 14
12, 11
12, 11
7, 4
4, 7
2, 7
5, 6
6, 8
11, 15
5, 5
11, 5
6, 5
5, 8
5, 3
6, 7
6, 3
9, 7
4, 5
5, 6
1, 6
12, 1
7, 8
6, 8
3, 6
5, 9
1, 7
1, 8
3, 6
8, 5
3, 5
2, 2
3, 6
8, 2
9, 8
6, 10
2, 5
4, 4
5, 11
11, 5
1, 12
5, 8
5, 18
9, 7
6, 4
5, 3
7, 4
5, 4
3, 5
4, 3
3, 4
10, 7
7, 5
5, 3
7, 3
2, 2
3, 3
4, 4
7, 6
6, 3
5, 3
3, 6
6, 7
2, 7
4, 3
3, 3
5, 2
4, 1
7, 3
1, 6
4, 0
7, 1
3, 4
1, 3
8, 3
1, 5
5, 7
3, 0
4, 4
5, 1
7, 2
2, 5
4, 5
0, 6
2, 2
3, 1
4, 2
3, 2
3, 3
0, 2
2, 2
5, 2
3, 0
2, 6
4, 1
0, 4
3, 2
5, 2
3, 5
7, 0
2, 1
4, 5
1, 3
6, 3
6, 1
3, 3
3, 0
1, 2
2, 3
4, 3
2, 3
3, 3
1, 6
1, 5
2, 0
4, 3
5, 4
2, 4
1, 2
2, 0
6, 4
3, 5
1, 5
4, 1
3, 1
1, 2
4, 1
2, 2
2, 4
2, 1
1, 2
3, 5
2, 2
3, 2
1, 3
2, 3
3, 2
2, 2
2, 2
3, 3
1, 2
1, 2
2, 2
2, 2
2, 2
1, 2
4, 0
3, 0
0, 2
1, 2
4, 3
1, 2
2, 2
2, 1
2, 1
2, 1
4, 3
5, 4
2, 3
4, 2
0, 1
1, 2
3, 4
0, 0
3, 5
3, 0
2, 4
2, 2
0, 3
2, 1
1, 4
2, 1
2, 1
2, 9
1, 3
2, 2
3, 3
4, 1
3, 2
1, 1
1, 1
5, 3
0, 3
3, 3
0, 2
1, 1
0, 3
2, 2
0, 5
2, 1
3, 0
0, 2
1, 0
3, 1
3, 4
1, 3
2, 1
3, 1
3, 0
1, 3
3, 2
2, 0
1, 1
4, 1
1, 2
0, 2
2, 0
0, 5
1, 2
3, 5
0, 0
1, 3
1, 2
0, 2
2, 1
1, 0
1, 1
2, 0
2, 1
2, 2
1, 0
1, 2
1, 1
0, 2
1, 1
1, 1
3, 4
1, 1
3, 1
2, 4
1, 2
2, 1
2, 0
2, 1
1, 0
0, 0
1, 2
1, 0
1, 1
0, 0
4, 0
0, 2
2, 1
0, 2
0, 0
2, 2
1, 1
0, 0
1, 2
1, 0
1, 2
1, 1
0, 1
0, 0
1, 0
0, 2
0, 1
1, 1
0, 2
1, 0
0, 0
1, 2
0, 1
1, 0
0, 1
0, 1
2, 0
1, 1
0, 0
3, 0
2, 1
0, 1
0, 1
0, 0
1, 1
0, 0
0, 3
1, 0
0, 0
1, 1
3, 1
0, 0
0, 2
2, 1
0, 0
1, 0
0, 1
0, 0
2, 1
0, 0
0, 1
0, 1
1, 2
1, 2
2, 2
0, 2
1, 1
2, 1
1, 1
1, 0
1, 1
0, 0
1, 1
1, 0
0, 1
1, 1
1, 1
1, 0
0, 0
0, 1
0, 1
1, 0
1, 0
1, 0
0, 0
1, 1
0, 0
1, 0
0, 2
0, 0
0, 1
0, 0
0, 0
0, 0
0, 0
0, 0
0, 1
0, 0
1, 0
0, 1
0, 1
1, 0
0, 0
1, 1
1, 0
0, 0
1, 0
0, 0
0, 1
0, 0
2, 1
1, 0
0, 1
0, 0
0, 0
0, 0
0, 1
0, 1
0, 1
1, 0
0, 0
0, 0
1, 0
1, 0
0, 0
0, 0
0, 0
0, 0
0, 0
0, 1
0, 0
0, 0
0, 1
1, 0
0, 0
0, 0
0, 2
0, 0
0, 0
1, 0
0, 0
0, 1
0, 0
0, 1
0, 0
0, 0
1, 0
0, 0
0, 1
1, 0
0, 0
1, 0
0, 0
1, 0
2, 0
0, 1
1, 0
1, 0
0, 0
0, 0
0, 0
0, 1
0, 0
0, 1
0, 1
1, 0
0, 0
1, 0
0, 0
0, 0
0, 0
1, 0
1, 0
0, 0
0, 0
0, 0
0, 0
0, 0
0, 2
0, 0
0, 0
0, 0
1, 0
0, 0
0, 0
0, 0
0, 0
0, 0
0, 1
0, 0
0, 0
0, 0
0, 0
1, 0
1, 1
0, 0
0, 0
0, 0
1, 0
0, 0
0, 2
0, 1
0, 0
0, 0
1, 1
0, 0
0, 0
0, 1
0, 0
0, 0
0, 0
0, 0
2, 0
0, 0
0, 0
0, 0
1, 0
0, 0
0, 0
0, 0
1, 0
0, 0
0, 0
0, 1
0, 0
0, 1
0, 1
0, 0
0, 0
0, 0
0, 0
0, 0
0, 0
0, 0
0, 0
0, 0
0, 0
0, 0
0, 0
0, 0
0, 0
0, 0
0, 0
0, 0
0, 0
0, 0
0, 0
0, 0
0, 0
0, 0
1, 0
1, 0
0, 0
1, 0
0, 0
1, 0
0, 0
0, 0
0, 0
0, 1
0, 1
0, 0
0, 0
0, 0
0, 0
0, 0
0, 1
0, 0
0, 0
0, 0
0, 0
0, 0
0, 0
0, 0
0, 0
0, 0
0, 0
1, 0
0, 0
0, 0
0, 0
0, 0
0, 0
1, 0
0, 0
0, 0
0, 0
0, 0
0, 0
0, 1
0, 0
0, 0
0, 0
0, 0
0, 0
0, 0
0, 0
0, 0
0, 0
0, 1
0, 1
0, 0
1, 0
0, 0
0, 0
0, 0
0, 0
0, 0
0, 0
0, 0
0, 0
0, 0
0, 0
0, 0
0, 0
0, 0
0, 0
1, 0
0, 0
1, 0
0, 0
0, 0
0, 0
0, 0
0, 0
0, 0
0, 0
0, 1
0, 0
0, 1
0, 0
0, 0
0, 0
0, 0
0, 0
0, 0
0, 0
0, 0
0, 0
0, 0
0, 0
0, 0
0, 0
0, 0
0, 0
0, 0
0, 0
0, 0
0, 0
0, 0
0, 0
0, 0
0, 0
0, 0
0, 0
1, 0
0, 0
0, 0
0, 0
0, 0
0, 0
0, 0
0, 0
0, 0
0, 0
0, 0
0, 0
0, 0
0, 0
0, 0
0, 0
0, 0
0, 0
0, 0
0, 0
0, 0
0, 0
0, 0
0, 0
0, 0
0, 0
0, 0
0, 0
0, 0
0, 0
0, 0
0, 0
0, 0
0, 0
0, 0
0, 0
0, 0
0, 0
0, 0
0, 0
0, 0
1, 0
0, 0
1, 0
0, 1
0, 0
0, 0
0, 0
0, 0
0, 0
0, 0
1, 0
0, 0
0, 0
0, 0
0, 0
0, 0
0, 0
0, 0
0, 0
0, 0
0, 0
0, 0
0, 0
0, 0
0, 0
0, 0
0, 0
0, 0
0, 0
0, 0
0, 0
0, 0
0, 0
0, 0
0, 0
0, 0
0, 0
0, 0
0, 0
0, 0
0, 0
0, 0
0, 0
0, 0
0, 0
0, 0
0, 0
0, 0
0, 0
0, 0
0, 0
0, 0
0, 0
0, 0
0, 0
0, 0
0, 0
0, 1
0, 0
0, 0
0, 0
0, 0
0, 0
0, 0
0, 0
0, 0
0, 0
0, 0
0, 0
0, 0
0, 0
0, 0
0, 0
0, 0
0, 0
0, 0
0, 0
0, 0
0, 0
0, 0
0, 0
0, 0
0, 0
0, 0
0, 0
0, 0
0, 0
0, 0
0, 0
0, 0
0, 0
0, 0
0, 0
0, 0
0, 0
0, 0
0, 0
0, 0
0, 0
0, 0
0, 0
0, 0
0, 0
0, 0
0, 0
0, 0
0, 0
0, 0
0, 0
0, 0
0, 0
1, 0
0, 0
0, 0
0, 0
0, 0
0, 0
0, 0
0, 0
0, 0
0, 0
0, 0
0, 0
0, 0
0, 0
0, 0
0, 0
0, 0
0, 0
0, 0
0, 0
0, 0
0, 0
0, 0
0, 0
0, 0
0, 0
0, 0
0, 0
0, 0
0, 0
0, 0
0, 0
0, 0
0, 0
0, 0
0, 0
0, 0
0, 0
0, 0
0, 0
0, 0
0, 0
0, 0
0, 0
0, 0
0, 0
0, 0
0, 0
0, 0
0, 0
0, 0
0, 0
0, 0
0, 0
0, 0
0, 0
0, 0
0, 0
0, 0
0, 0
0, 0
0, 0
0, 0
0, 0
0, 0
0, 0
0, 0
0, 0
0, 0
0, 0
0, 0
0, 0
0, 0
0, 0
0, 0
0, 0
0, 0
0, 0
0, 0
0, 0
0, 0
0, 0
0, 0
0, 0
0, 0
0, 0
0, 0
0, 0
0, 0
0, 0
0, 0
0, 0
0, 0
0, 0
0, 0
0, 0
0, 0
0, 0
0, 0
0, 0
0, 0
0, 0
0, 0
0, 0
0, 0
0, 0
0, 0
0, 0
0, 0
0, 0
0, 0
0, 0
0, 0
0, 0
0, 0
0, 0
0, 0
0, 0
0, 0
0, 0
0, 0
0, 0
0, 0
0, 0
0, 0
0, 0
0, 0
0, 0
0, 0
0, 0
0, 0
0, 0
0, 0
0, 0
0, 0
0, 0
0, 0
0, 0
0, 0
0, 0
0, 0
0, 0
0, 0
0, 0
0, 0
0, 0
0, 0
0, 0
0, 0
0, 0
0, 0
0, 0
0, 0
0, 0
0, 0
0, 0
0, 0
0, 0
0, 0
0, 0
0, 0
0, 0
0, 0
0, 0
0, 0
0, 0
0, 0
0, 0
0, 0
0, 0
0, 0
0, 0
0, 0
0, 0
0, 0
0, 0
0, 0
0, 0
0, 0
0, 0
0, 0
0, 0
0, 0
0, 0
0, 0
0, 0
0, 0
0, 0
0, 0
0, 0
0, 0
0, 0
0, 0
0, 0
0, 0
0, 0
0, 0
0, 0
0, 0
0, 0
0, 0
0, 0
0, 0
0, 0
0, 0
0, 0
0, 0
0, 0
0, 0
0, 0
0, 0
0, 0
0, 0
0, 0
0, 0
0, 0
0, 0
0, 0
0, 0
0, 0
0, 0
0, 0
0, 0
0, 0
0, 0
0, 0
0, 0
0, 0
0, 0
0, 0
0, 0
0, 0
0, 0
0, 0
0, 0
0, 0
0, 0
0, 0
0, 0
0, 0
0, 0
0, 0
0, 0
0, 0
0, 0
0, 0
0, 0
0, 0
0, 0
0, 0
0, 0
0, 0
0, 0
0, 0
0, 0
0, 0
0, 0
0, 0
0, 0
0, 0
0, 0
0, 0
0, 0
#ENDOFDATA     end of spectrum data