File: host_upload/02-11-2024/rqc/uplink1/ps__0567_0717304816_000rfs_shot_389.msa
#FORMAT      : EMSA/MAS spectral data file
#VERSION     : TC202v2.0 PIXL
#TITLE       : Novarupta (sol567) subset1
#DATE        : 02-11-2024      Date in the format DD-MMM-YYYY, for example 07-JUL-2010
#TIME        :             The time of day at which the spectrum was recorded, in 24-hour format
#OWNER       : PIXL Flight Model       (PIXL will use this to indicate which instrument took the data.)
#NPOINTS     : 4096     Number of data points in the spectrum (This can be zero for configuration only files)
#NCOLUMNS    : 2     Number of data columns in the spectrum (This can be zero for configuration only files)
#XUNITS      : eV
#YUNITS      : COUNTS
#DATATYPE    : YY
#XPERCHAN    : 7.862, 7.881   eV per channel (separate by commas if more than one detector)
#OFFSET      : 18.5, -22.4         eV of first channel  (separate by commas if more than one detector
#SIGNALTYPE  : XRF
#YP_TEMP     : 1.722
#LIVETIME    : 8.83593, 8.80173   seconds (separate by commas if more than one detector)
#REALTIME    : 10, 10.0   seconds (separate by commas if more than one detector)
#SPECTRUM    : start of spectrum data
0, 0
0, 0
0, 0
0, 0
0, 0
0, 0
0, 0
0, 0
0, 0
0, 0
0, 0
0, 0
0, 0
0, 0
0, 0
0, 0
0, 0
0, 0
0, 0
0, 0
0, 0
0, 0
0, 0
0, 0
0, 0
0, 0
0, 0
0, 0
0, 0
0, 0
0, 0
0, 0
0, 0
0, 1
2, 1
0, 1
4, 5
2, 2
4, 10
2, 4
4, 2
4, 4
4, 1
1, 5
6, 4
5, 5
3, 2
1, 5
4, 4
4, 5
5, 9
7, 15
11, 17
9, 16
12, 18
16, 12
9, 19
5, 16
10, 11
10, 15
22, 21
33, 41
44, 40
53, 61
62, 40
43, 59
30, 44
29, 31
40, 43
57, 54
106, 130
159, 217
308, 337
376, 466
502, 555
473, 531
445, 416
304, 338
241, 240
140, 142
98, 88
56, 52
23, 33
31, 40
36, 31
26, 34
26, 19
34, 26
21, 33
18, 14
10, 24
17, 24
31, 31
43, 47
63, 79
143, 140
190, 227
219, 316
309, 354
286, 344
269, 276
207, 211
150, 133
96, 92
76, 64
54, 58
57, 61
60, 81
92, 112
132, 161
182, 214
201, 248
271, 251
223, 256
194, 226
153, 178
121, 166
86, 125
101, 87
80, 94
89, 84
77, 78
45, 59
49, 55
39, 37
50, 44
30, 28
23, 20
21, 18
12, 22
12, 9
15, 7
6, 7
8, 6
9, 10
3, 6
11, 12
10, 12
16, 12
20, 42
24, 33
24, 34
22, 39
31, 32
22, 25
20, 16
14, 10
10, 9
10, 5
13, 19
25, 38
52, 52
79, 116
132, 172
209, 257
272, 374
326, 385
375, 413
353, 407
275, 347
238, 258
170, 163
97, 115
69, 59
36, 28
24, 34
25, 23
38, 37
46, 52
48, 62
51, 57
64, 58
50, 53
52, 45
37, 31
17, 23
19, 19
21, 14
14, 9
3, 11
6, 9
6, 13
10, 12
12, 11
13, 13
13, 25
14, 32
34, 31
31, 53
45, 68
51, 66
67, 73
80, 79
71, 88
71, 71
47, 55
39, 48
29, 23
26, 24
21, 26
19, 15
12, 16
14, 16
11, 16
12, 16
15, 14
15, 26
18, 18
20, 27
14, 34
21, 20
17, 31
22, 20
18, 22
11, 21
20, 15
10, 14
19, 10
6, 16
10, 13
14, 11
8, 16
14, 9
9, 17
13, 25
17, 16
18, 23
14, 26
26, 33
22, 33
33, 29
40, 28
17, 27
18, 18
19, 27
16, 23
16, 15
13, 13
11, 14
14, 8
6, 8
10, 14
15, 9
11, 15
14, 17
22, 21
16, 24
25, 50
40, 51
52, 51
48, 60
59, 51
48, 48
44, 55
40, 35
20, 29
33, 24
17, 25
16, 17
11, 21
26, 27
28, 35
29, 55
71, 86
121, 145
213, 274
316, 436
520, 764
833, 1096
1108, 1376
1369, 1638
1624, 1822
1767, 1879
1573, 1745
1437, 1491
1134, 1092
865, 874
557, 534
347, 345
228, 207
132, 99
75, 56
33, 44
21, 25
25, 20
17, 14
13, 10
15, 17
13, 18
18, 24
21, 29
29, 35
40, 50
60, 54
78, 116
113, 150
153, 189
185, 258
238, 252
229, 263
267, 306
233, 250
193, 214
186, 156
137, 128
91, 78
58, 49
44, 36
22, 15
21, 7
8, 11
13, 9
6, 11
11, 6
8, 10
4, 12
7, 11
12, 12
13, 16
11, 11
12, 13
13, 10
14, 17
8, 8
9, 6
7, 11
6, 5
7, 5
7, 6
7, 9
5, 8
3, 10
7, 3
3, 6
6, 6
10, 4
9, 8
9, 4
8, 8
7, 4
7, 7
8, 5
3, 8
6, 9
9, 6
11, 17
10, 11
6, 5
6, 4
3, 10
8, 11
7, 9
5, 7
7, 10
5, 5
7, 9
6, 6
8, 5
3, 7
13, 9
4, 8
3, 11
6, 13
4, 11
12, 10
6, 11
8, 12
9, 12
9, 13
9, 9
9, 9
10, 12
7, 7
6, 3
6, 6
6, 2
3, 5
7, 7
4, 7
7, 5
5, 8
2, 8
3, 5
3, 9
6, 8
5, 8
4, 5
3, 3
5, 6
5, 5
8, 3
4, 5
8, 6
3, 8
4, 8
5, 3
2, 3
5, 6
2, 3
3, 5
5, 5
8, 5
7, 3
5, 6
9, 5
4, 8
2, 7
3, 6
2, 2
2, 5
4, 4
3, 7
7, 8
7, 2
1, 1
5, 5
6, 3
3, 5
2, 4
1, 7
5, 2
4, 7
7, 2
4, 4
8, 10
4, 3
1, 7
2, 4
5, 3
4, 6
2, 4
1, 3
5, 5
3, 2
3, 6
4, 5
3, 6
2, 7
3, 5
6, 5
1, 5
4, 1
5, 4
1, 3
2, 7
3, 2
5, 0
4, 2
2, 5
3, 3
3, 2
6, 5
6, 0
5, 6
3, 9
3, 2
3, 5
3, 3
3, 2
0, 6
0, 6
5, 1
2, 3
3, 6
2, 3
4, 4
3, 4
4, 3
5, 4
3, 6
6, 4
2, 2
3, 2
6, 3
7, 1
3, 0
4, 2
4, 0
1, 1
1, 7
3, 3
2, 1
1, 4
1, 1
4, 1
1, 4
1, 4
2, 1
6, 2
0, 5
3, 0
3, 2
3, 5
3, 1
1, 4
3, 2
0, 3
2, 1
1, 0
1, 3
4, 0
1, 0
2, 2
5, 1
2, 3
3, 2
3, 4
2, 6
5, 1
8, 4
6, 2
5, 2
0, 5
1, 4
2, 3
2, 2
1, 4
1, 1
2, 2
4, 2
4, 1
0, 1
1, 4
2, 1
2, 1
4, 2
1, 2
0, 1
6, 1
2, 3
1, 1
1, 2
2, 2
1, 3
4, 6
2, 2
3, 3
0, 1
2, 4
5, 6
3, 6
2, 0
3, 0
4, 4
1, 3
1, 5
2, 1
2, 3
1, 2
4, 1
0, 1
0, 1
1, 0
3, 1
1, 1
0, 1
7, 0
2, 1
3, 1
3, 0
2, 2
1, 1
1, 4
5, 2
5, 0
1, 1
2, 3
2, 1
1, 1
0, 1
1, 1
0, 2
1, 2
1, 0
0, 1
0, 1
0, 1
1, 0
1, 0
3, 2
1, 3
0, 2
1, 1
1, 3
1, 2
1, 3
0, 1
2, 2
1, 0
1, 0
1, 0
0, 1
2, 2
0, 1
1, 3
1, 4
0, 1
1, 2
0, 1
0, 1
1, 1
3, 3
0, 1
2, 3
1, 4
1, 0
0, 4
3, 0
0, 1
1, 0
0, 2
1, 0
0, 0
0, 3
0, 1
1, 1
0, 2
2, 2
0, 0
0, 0
1, 0
1, 1
1, 3
1, 1
0, 1
0, 2
1, 2
0, 0
1, 1
1, 1
0, 0
0, 1
1, 0
0, 0
0, 1
1, 0
2, 3
2, 1
1, 0
1, 1
0, 1
0, 1
0, 0
1, 1
0, 0
1, 1
0, 2
1, 1
1, 0
0, 0
0, 1
0, 1
1, 0
2, 0
0, 0
0, 2
0, 3
1, 0
1, 1
1, 0
0, 1
0, 0
1, 0
1, 1
0, 0
2, 0
1, 3
1, 1
0, 0
0, 0
1, 1
3, 0
0, 0
1, 0
2, 0
1, 1
0, 0
0, 1
1, 0
0, 1
0, 1
1, 4
1, 1
0, 0
0, 1
0, 0
0, 0
0, 0
1, 0
0, 0
1, 1
2, 0
0, 0
1, 0
0, 0
1, 1
1, 0
0, 1
0, 0
1, 0
0, 1
0, 0
0, 0
0, 3
0, 0
0, 0
1, 1
0, 0
0, 0
0, 1
0, 0
0, 0
0, 1
1, 1
0, 1
1, 2
0, 0
0, 0
0, 0
1, 0
0, 1
1, 0
0, 1
0, 2
0, 1
0, 0
0, 0
0, 1
1, 0
1, 0
0, 0
0, 0
1, 0
1, 0
0, 0
1, 0
0, 0
1, 1
0, 0
0, 0
0, 0
0, 0
0, 0
0, 0
0, 1
0, 0
0, 0
0, 0
0, 0
0, 1
1, 0
0, 0
0, 0
0, 1
0, 2
0, 0
0, 1
0, 0
0, 0
0, 0
1, 1
0, 1
0, 1
0, 2
0, 0
0, 0
0, 0
0, 0
0, 0
0, 0
0, 0
0, 0
0, 0
0, 0
1, 0
0, 0
0, 1
0, 0
1, 2
0, 0
0, 0
0, 0
0, 0
0, 0
0, 1
0, 0
0, 1
0, 0
0, 0
0, 1
0, 2
0, 1
0, 0
0, 0
0, 0
0, 0
0, 0
0, 2
0, 0
1, 0
0, 0
0, 1
0, 0
0, 0
0, 0
0, 0
0, 0
0, 0
0, 1
0, 1
0, 0
0, 0
0, 0
0, 0
1, 0
0, 0
0, 0
0, 0
0, 0
0, 0
0, 0
0, 0
0, 0
0, 0
0, 0
0, 0
1, 0
0, 0
0, 0
0, 0
0, 0
0, 0
0, 0
0, 0
0, 0
0, 0
0, 0
1, 0
0, 0
0, 0
0, 0
0, 0
0, 0
0, 0
0, 0
0, 0
0, 0
0, 0
0, 0
1, 0
0, 0
0, 0
0, 0
1, 0
1, 0
1, 0
0, 0
0, 0
0, 0
0, 0
0, 0
1, 0
0, 0
0, 0
0, 0
0, 0
0, 0
0, 0
0, 0
0, 0
0, 0
0, 0
0, 0
0, 0
0, 0
0, 0
0, 0
0, 0
0, 0
0, 0
0, 0
0, 0
0, 0
0, 0
0, 1
0, 0
0, 0
0, 0
0, 0
0, 0
0, 0
0, 0
0, 0
0, 0
0, 0
0, 0
0, 0
0, 0
0, 0
0, 0
0, 1
0, 0
0, 0
0, 1
0, 0
0, 0
0, 0
0, 0
0, 0
0, 0
0, 0
0, 0
0, 0
0, 1
0, 0
0, 0
0, 0
0, 0
0, 0
0, 0
0, 0
0, 0
0, 0
0, 0
0, 0
0, 0
0, 0
0, 0
2, 1
0, 0
0, 0
0, 0
0, 0
0, 0
0, 0
0, 0
0, 0
0, 0
0, 0
0, 0
0, 0
0, 0
0, 0
0, 0
0, 0
0, 0
0, 0
0, 0
0, 0
0, 0
0, 0
0, 0
0, 0
0, 0
0, 0
0, 0
0, 0
0, 0
0, 0
0, 0
0, 0
0, 0
0, 0
0, 0
0, 0
0, 0
0, 0
0, 0
0, 0
0, 0
0, 0
0, 0
0, 0
0, 0
0, 0
0, 0
0, 0
0, 0
0, 0
0, 0
0, 0
0, 0
0, 0
0, 0
0, 0
0, 0
0, 0
0, 0
0, 0
0, 0
0, 0
0, 0
0, 0
0, 0
0, 0
0, 0
0, 0
0, 0
0, 0
0, 0
0, 0
0, 1
0, 0
0, 0
0, 0
0, 0
0, 0
0, 0
0, 0
0, 0
0, 0
0, 0
0, 0
0, 0
0, 0
0, 0
0, 0
0, 0
0, 0
0, 0
0, 0
1, 0
0, 0
0, 0
0, 0
0, 0
0, 0
0, 0
0, 0
0, 0
0, 0
0, 0
0, 0
0, 0
0, 0
0, 0
0, 0
0, 0
0, 0
0, 0
0, 0
0, 0
0, 0
0, 0
0, 0
0, 0
0, 0
0, 0
0, 0
0, 0
0, 0
0, 0
0, 0
0, 0
0, 0
0, 0
0, 0
0, 0
0, 0
0, 0
0, 0
0, 0
0, 0
0, 0
0, 0
0, 0
0, 0
0, 0
0, 0
0, 0
0, 0
0, 0
0, 0
0, 0
0, 0
0, 0
0, 0
0, 0
0, 0
0, 0
0, 0
0, 0
0, 0
0, 0
0, 0
0, 0
0, 0
0, 0
0, 0
0, 0
0, 0
0, 0
0, 0
0, 0
0, 0
0, 0
0, 0
0, 0
0, 0
0, 0
0, 0
0, 0
0, 0
0, 0
0, 0
0, 0
0, 0
0, 0
0, 0
0, 0
0, 0
0, 0
0, 0
0, 0
0, 0
0, 0
0, 0
0, 0
0, 0
0, 0
0, 0
0, 0
0, 0
0, 0
0, 0
0, 0
0, 0
0, 0
0, 0
0, 0
0, 0
0, 0
0, 0
0, 0
0, 0
0, 0
0, 0
0, 0
0, 0
0, 0
0, 0
0, 0
0, 0
0, 0
0, 0
0, 0
0, 0
0, 0
0, 0
0, 0
0, 0
0, 0
0, 0
0, 0
0, 0
0, 0
0, 0
0, 0
0, 0
0, 0
0, 0
0, 0
0, 0
0, 0
0, 0
0, 0
0, 0
0, 0
0, 0
0, 0
0, 0
0, 0
0, 0
0, 0
0, 0
0, 0
0, 0
0, 0
0, 0
0, 0
0, 0
0, 0
0, 0
0, 0
0, 0
0, 0
0, 0
0, 0
0, 0
0, 0
0, 0
0, 0
0, 0
0, 0
0, 0
0, 0
0, 0
0, 0
0, 0
0, 0
0, 0
0, 0
0, 0
0, 0
0, 0
0, 0
0, 0
0, 0
0, 0
0, 0
0, 0
0, 0
0, 0
0, 0
0, 0
0, 0
0, 0
0, 0
0, 0
0, 0
0, 0
0, 0
0, 0
0, 0
0, 0
0, 0
0, 0
0, 0
0, 0
0, 0
0, 0
0, 0
0, 0
0, 0
0, 0
0, 0
0, 0
0, 0
0, 0
0, 0
0, 0
0, 0
0, 0
0, 0
0, 0
0, 0
0, 0
0, 0
0, 0
0, 0
0, 0
0, 0
0, 0
0, 0
0, 0
0, 0
0, 0
0, 0
0, 0
0, 0
0, 0
0, 0
0, 0
0, 0
0, 0
0, 0
0, 0
0, 0
0, 0
0, 0
0, 0
0, 0
0, 0
0, 0
0, 0
0, 0
0, 0
0, 0
0, 0
0, 0
0, 0
0, 0
0, 0
0, 0
0, 0
0, 0
0, 0
0, 0
0, 0
0, 0
0, 0
0, 0
0, 0
0, 0
0, 0
0, 0
0, 0
0, 0
0, 0
0, 0
0, 0
0, 0
0, 0
0, 0
0, 0
0, 0
0, 0
0, 0
0, 0
0, 0
0, 0
0, 0
0, 0
0, 0
0, 0
0, 0
0, 0
0, 0
0, 0
0, 0
0, 0
0, 0
0, 0
0, 0
0, 0
0, 0
0, 0
0, 0
0, 0
0, 0
0, 0
0, 0
0, 0
0, 0
0, 0
0, 0
0, 0
0, 0
0, 0
0, 0
0, 0
0, 0
0, 0
0, 0
0, 0
0, 0
0, 0
0, 0
0, 0
0, 0
0, 0
0, 0
0, 0
0, 0
0, 0
0, 0
0, 0
0, 0
0, 0
0, 0
0, 0
0, 0
0, 0
0, 0
0, 0
0, 0
#ENDOFDATA     end of spectrum data