File: host_upload/02-11-2024/rqc/uplink1/ps__0567_0717304816_000rfs_shot_409.msa
#FORMAT      : EMSA/MAS spectral data file
#VERSION     : TC202v2.0 PIXL
#TITLE       : Novarupta (sol567) subset1
#DATE        : 02-11-2024      Date in the format DD-MMM-YYYY, for example 07-JUL-2010
#TIME        :             The time of day at which the spectrum was recorded, in 24-hour format
#OWNER       : PIXL Flight Model       (PIXL will use this to indicate which instrument took the data.)
#NPOINTS     : 4096     Number of data points in the spectrum (This can be zero for configuration only files)
#NCOLUMNS    : 2     Number of data columns in the spectrum (This can be zero for configuration only files)
#XUNITS      : eV
#YUNITS      : COUNTS
#DATATYPE    : YY
#XPERCHAN    : 7.862, 7.881   eV per channel (separate by commas if more than one detector)
#OFFSET      : 18.5, -22.4         eV of first channel  (separate by commas if more than one detector
#SIGNALTYPE  : XRF
#YP_TEMP     : 1.722
#LIVETIME    : 8.83293, 8.81488   seconds (separate by commas if more than one detector)
#REALTIME    : 10, 10.0   seconds (separate by commas if more than one detector)
#SPECTRUM    : start of spectrum data
0, 0
0, 0
0, 0
0, 0
0, 0
0, 0
0, 0
0, 0
0, 0
0, 0
0, 0
0, 0
0, 0
0, 0
0, 0
0, 0
0, 0
0, 0
0, 0
0, 0
0, 0
0, 0
0, 0
0, 0
0, 0
0, 0
0, 0
0, 0
0, 1
0, 0
0, 0
0, 2
1, 1
0, 1
2, 0
1, 1
2, 3
1, 2
6, 6
4, 2
7, 5
2, 2
3, 1
1, 4
5, 12
2, 5
5, 5
7, 4
8, 1
4, 6
8, 11
5, 8
12, 13
13, 19
14, 22
16, 13
8, 5
13, 8
5, 5
13, 15
20, 16
30, 26
36, 34
37, 44
47, 60
40, 47
36, 52
38, 44
32, 47
53, 53
108, 145
149, 237
275, 368
346, 456
464, 538
482, 558
391, 474
300, 325
236, 245
149, 147
72, 82
43, 42
38, 35
31, 34
33, 42
30, 39
37, 41
33, 41
27, 41
37, 16
17, 13
21, 16
24, 13
42, 40
76, 87
124, 137
223, 220
233, 305
319, 353
306, 339
296, 308
224, 228
140, 141
103, 93
73, 84
54, 55
46, 48
71, 86
93, 110
132, 144
184, 202
235, 238
223, 274
238, 234
206, 223
176, 201
146, 141
96, 129
105, 75
86, 111
82, 82
61, 83
59, 58
57, 61
44, 63
40, 33
21, 32
20, 25
20, 17
9, 14
12, 7
12, 5
15, 5
3, 6
5, 7
7, 7
4, 15
17, 14
15, 19
23, 30
26, 24
37, 43
24, 31
37, 20
28, 27
20, 14
9, 9
8, 14
12, 8
13, 14
28, 33
51, 57
69, 97
128, 174
186, 285
304, 350
305, 400
360, 448
356, 438
326, 339
249, 265
172, 184
110, 120
74, 74
49, 33
30, 21
23, 32
36, 47
54, 43
47, 61
58, 72
65, 75
52, 59
49, 62
52, 36
26, 25
16, 17
8, 22
13, 11
5, 7
9, 6
9, 8
7, 9
4, 6
7, 11
12, 18
10, 12
15, 25
27, 40
41, 44
40, 72
59, 63
72, 75
60, 65
61, 59
52, 46
29, 32
30, 21
18, 14
18, 19
9, 21
21, 9
16, 9
11, 18
12, 17
16, 17
17, 23
14, 21
17, 22
20, 14
20, 20
15, 24
11, 16
18, 16
13, 16
8, 17
12, 6
13, 16
18, 8
10, 11
6, 10
12, 13
10, 9
9, 17
14, 16
12, 20
20, 13
23, 23
21, 25
21, 30
31, 38
35, 35
31, 31
22, 31
25, 23
12, 19
21, 11
12, 17
14, 6
16, 8
12, 17
6, 24
15, 19
14, 10
13, 15
15, 23
24, 25
26, 32
32, 37
34, 34
39, 55
47, 51
46, 57
48, 39
31, 38
27, 34
22, 31
23, 21
19, 13
11, 22
17, 23
17, 18
31, 57
46, 83
107, 156
190, 246
333, 474
470, 686
795, 1050
1084, 1407
1348, 1732
1585, 1878
1652, 1881
1663, 1797
1483, 1478
1180, 1080
876, 795
559, 519
412, 362
257, 183
110, 116
68, 60
34, 32
18, 31
16, 18
16, 27
15, 15
19, 18
18, 13
29, 26
20, 33
18, 29
33, 44
53, 69
93, 93
112, 134
141, 191
234, 227
232, 271
240, 288
283, 318
239, 246
218, 207
192, 194
127, 129
79, 99
62, 47
38, 20
29, 24
13, 12
9, 6
9, 3
10, 12
6, 9
9, 11
8, 10
13, 8
6, 13
13, 13
10, 11
8, 8
10, 7
11, 8
13, 9
9, 5
7, 9
3, 1
8, 5
6, 2
8, 11
8, 5
5, 8
10, 5
4, 9
3, 3
5, 5
6, 6
7, 10
2, 2
3, 10
3, 8
5, 6
8, 7
6, 9
9, 9
8, 6
9, 8
8, 12
9, 6
7, 9
8, 11
3, 8
9, 7
5, 10
11, 4
8, 5
10, 5
15, 6
4, 2
5, 5
10, 7
8, 5
9, 10
11, 8
8, 10
10, 10
11, 3
12, 9
5, 8
9, 13
13, 17
10, 9
4, 10
6, 5
7, 5
10, 7
0, 3
7, 5
8, 6
3, 4
8, 5
7, 6
4, 2
9, 12
7, 5
2, 8
2, 4
10, 7
10, 6
8, 9
6, 6
3, 3
7, 3
2, 6
5, 7
5, 8
3, 4
6, 5
3, 7
8, 6
8, 7
8, 4
4, 8
7, 8
5, 3
5, 5
5, 3
9, 3
4, 3
9, 3
4, 2
5, 8
7, 4
3, 3
1, 3
3, 6
7, 5
3, 7
3, 5
6, 3
5, 4
4, 3
2, 3
6, 5
1, 2
8, 5
4, 10
3, 4
5, 2
6, 6
1, 2
4, 4
7, 3
1, 6
5, 6
3, 3
6, 4
6, 2
4, 1
4, 4
3, 2
1, 5
3, 5
3, 8
3, 6
1, 3
4, 1
4, 1
3, 4
2, 0
3, 1
2, 2
3, 4
1, 1
1, 3
2, 1
3, 5
7, 6
1, 5
2, 3
4, 3
4, 0
1, 0
6, 4
4, 4
6, 8
2, 1
1, 2
5, 0
2, 2
6, 6
2, 4
2, 3
3, 1
4, 3
5, 3
2, 2
1, 3
5, 0
2, 1
1, 1
4, 6
4, 3
1, 3
4, 1
4, 1
3, 1
3, 1
3, 4
7, 0
0, 2
1, 4
2, 3
4, 3
3, 0
0, 2
1, 3
2, 1
4, 7
2, 5
5, 2
1, 4
0, 1
1, 2
2, 6
1, 4
3, 4
1, 4
2, 2
1, 2
1, 1
3, 2
6, 3
2, 1
0, 3
0, 2
4, 2
1, 1
1, 4
1, 3
1, 1
4, 4
0, 3
1, 6
3, 3
1, 3
3, 3
1, 2
2, 4
4, 1
1, 3
0, 1
2, 2
0, 0
2, 0
5, 3
1, 5
4, 7
3, 1
0, 5
1, 5
1, 2
4, 1
4, 2
5, 1
5, 3
3, 0
4, 4
3, 0
2, 1
1, 3
1, 0
3, 1
0, 3
2, 1
2, 0
0, 2
1, 1
1, 2
1, 1
0, 0
2, 4
1, 2
2, 1
1, 3
1, 1
1, 3
1, 2
5, 5
2, 2
2, 1
0, 0
1, 3
0, 0
0, 3
2, 2
2, 1
0, 2
2, 0
3, 0
0, 2
5, 3
0, 2
0, 1
0, 0
1, 1
0, 0
0, 2
2, 0
1, 2
3, 1
0, 0
1, 3
0, 2
1, 4
1, 1
0, 0
2, 0
2, 0
0, 1
1, 0
0, 0
1, 0
1, 0
1, 1
3, 0
1, 3
1, 3
1, 1
3, 2
1, 0
0, 1
0, 0
2, 3
2, 0
0, 1
4, 0
1, 1
0, 1
0, 2
2, 0
2, 1
1, 1
0, 0
1, 1
1, 2
1, 0
1, 2
0, 0
1, 0
0, 0
2, 3
0, 1
0, 0
0, 0
0, 0
0, 0
0, 1
0, 3
0, 3
0, 1
0, 1
1, 1
0, 1
0, 1
0, 0
0, 1
1, 1
0, 0
0, 0
0, 1
1, 0
0, 0
1, 2
0, 2
0, 1
1, 0
0, 0
0, 1
1, 0
0, 4
1, 0
1, 1
1, 1
0, 0
1, 0
0, 2
1, 0
0, 1
0, 1
0, 0
0, 2
0, 1
1, 0
0, 0
0, 0
1, 0
1, 0
1, 0
1, 0
0, 0
1, 1
1, 0
0, 0
0, 0
0, 1
0, 1
0, 0
0, 0
1, 0
1, 2
1, 1
0, 0
0, 0
1, 1
1, 2
0, 0
0, 0
0, 1
1, 0
0, 0
0, 0
0, 0
0, 0
0, 0
1, 0
0, 1
0, 0
0, 0
0, 0
1, 0
0, 1
0, 0
1, 3
1, 2
0, 0
0, 1
1, 0
1, 2
1, 0
0, 0
1, 1
2, 0
0, 0
0, 0
0, 0
0, 0
0, 0
0, 1
0, 0
0, 0
2, 0
0, 0
0, 0
0, 0
0, 1
3, 1
0, 0
0, 0
0, 0
0, 0
1, 0
1, 0
0, 0
0, 0
0, 1
0, 0
1, 0
0, 0
0, 0
0, 0
0, 0
0, 0
0, 1
0, 0
0, 0
1, 0
0, 1
0, 0
1, 0
0, 0
0, 0
0, 0
0, 1
0, 0
0, 0
0, 0
0, 0
0, 1
0, 0
0, 0
0, 0
0, 0
0, 0
0, 0
1, 1
0, 0
0, 0
0, 0
0, 0
1, 0
0, 1
0, 0
0, 1
0, 1
0, 0
0, 1
1, 0
0, 0
0, 0
0, 0
0, 1
1, 1
0, 0
1, 1
0, 1
0, 0
1, 0
0, 0
0, 1
1, 0
0, 0
0, 0
0, 0
0, 1
0, 0
0, 0
1, 1
0, 0
0, 1
0, 0
0, 0
0, 0
0, 2
0, 0
0, 0
0, 0
0, 0
0, 0
0, 0
0, 0
0, 0
1, 0
0, 0
0, 0
0, 0
0, 0
0, 0
0, 0
1, 0
0, 0
0, 0
0, 1
0, 1
0, 0
0, 0
0, 0
0, 0
1, 0
1, 0
0, 0
0, 1
0, 0
0, 0
0, 0
0, 0
0, 0
0, 0
0, 0
0, 0
0, 1
0, 0
2, 2
0, 0
0, 0
0, 1
0, 0
0, 0
0, 0
0, 0
0, 0
0, 0
1, 0
0, 0
0, 0
0, 0
0, 0
0, 0
0, 0
0, 0
1, 0
0, 0
0, 0
0, 0
0, 0
0, 0
1, 0
0, 0
0, 0
0, 0
0, 0
0, 0
1, 0
0, 0
0, 0
0, 0
0, 0
0, 0
0, 0
0, 0
0, 0
0, 1
0, 0
0, 0
0, 0
0, 0
0, 0
0, 0
0, 0
0, 0
0, 0
0, 0
0, 0
1, 0
0, 0
0, 0
0, 0
0, 0
0, 1
0, 0
1, 0
0, 0
0, 0
0, 0
0, 0
0, 0
0, 0
0, 0
0, 0
0, 1
0, 0
0, 0
0, 0
0, 0
0, 0
0, 0
0, 0
0, 1
0, 0
0, 0
0, 0
0, 0
1, 0
0, 0
0, 0
0, 0
0, 0
0, 0
0, 0
0, 0
1, 0
0, 0
0, 0
0, 0
0, 0
0, 0
0, 0
0, 0
0, 0
0, 0
0, 0
0, 0
0, 0
0, 0
0, 0
0, 0
0, 0
0, 0
0, 0
0, 0
0, 0
0, 0
0, 0
0, 0
0, 0
0, 0
0, 0
0, 0
0, 0
0, 0
0, 0
0, 0
0, 0
0, 0
0, 0
0, 0
0, 0
0, 0
0, 0
0, 0
0, 0
0, 0
0, 0
0, 0
1, 0
0, 0
0, 0
0, 0
0, 0
0, 0
0, 0
0, 0
0, 0
0, 0
0, 0
0, 0
0, 0
0, 0
0, 0
0, 0
0, 0
0, 0
0, 0
0, 0
0, 0
0, 0
0, 0
0, 0
0, 0
0, 0
0, 0
0, 0
0, 0
0, 0
0, 0
0, 0
0, 0
0, 0
0, 0
0, 0
0, 0
0, 0
1, 0
0, 0
0, 0
0, 0
0, 0
0, 0
0, 0
0, 0
0, 0
0, 0
0, 0
0, 0
0, 0
0, 0
0, 0
0, 0
0, 0
0, 0
0, 0
0, 0
0, 0
0, 0
0, 0
0, 0
0, 0
0, 0
0, 0
0, 0
0, 0
0, 0
0, 0
0, 0
0, 0
0, 0
0, 0
0, 0
0, 0
0, 0
0, 0
0, 0
0, 0
0, 0
0, 0
0, 0
0, 0
0, 0
0, 0
0, 0
0, 0
0, 0
0, 0
0, 0
0, 0
0, 0
0, 0
0, 0
0, 0
0, 0
0, 0
0, 0
0, 0
0, 0
0, 0
0, 0
0, 0
0, 0
0, 0
0, 0
0, 0
0, 0
0, 0
0, 0
0, 0
0, 0
0, 0
0, 0
0, 0
0, 0
0, 0
0, 0
0, 0
0, 0
0, 0
0, 0
0, 0
0, 0
0, 0
0, 0
0, 0
0, 0
0, 0
0, 0
0, 0
0, 0
0, 0
0, 0
0, 0
0, 0
0, 0
0, 0
0, 0
0, 0
0, 0
0, 0
0, 0
0, 0
0, 0
0, 0
0, 0
0, 0
0, 0
0, 0
0, 0
0, 0
0, 0
0, 0
0, 0
0, 0
0, 0
0, 0
0, 0
0, 0
0, 0
0, 0
0, 0
0, 0
0, 0
0, 0
0, 0
0, 0
0, 0
0, 0
0, 0
0, 0
0, 0
0, 0
0, 0
0, 0
0, 0
0, 0
0, 0
0, 0
0, 0
0, 0
0, 0
0, 0
0, 0
0, 0
0, 0
0, 0
0, 0
0, 0
0, 0
0, 0
0, 0
0, 0
0, 0
0, 0
0, 0
0, 0
0, 0
0, 0
0, 0
0, 0
0, 0
0, 0
0, 0
0, 0
0, 0
0, 0
0, 0
0, 0
0, 0
0, 0
0, 0
0, 0
0, 0
0, 0
0, 0
0, 0
0, 0
0, 0
0, 0
0, 0
0, 0
0, 0
0, 0
0, 0
0, 0
0, 0
0, 0
0, 0
0, 0
0, 0
0, 0
0, 0
0, 0
0, 0
0, 0
0, 0
0, 0
0, 0
0, 0
0, 0
0, 0
0, 0
0, 0
0, 0
0, 0
0, 0
0, 0
0, 0
0, 0
0, 0
0, 0
0, 0
0, 0
0, 0
0, 0
0, 0
0, 0
0, 0
0, 0
0, 0
0, 0
0, 0
0, 0
0, 0
0, 0
0, 0
0, 0
0, 0
0, 0
0, 0
0, 0
0, 0
0, 0
0, 0
0, 0
0, 0
0, 0
0, 0
0, 0
0, 0
0, 0
0, 0
0, 0
0, 0
0, 0
0, 0
0, 0
0, 0
0, 0
0, 0
0, 0
0, 0
0, 0
0, 0
0, 0
0, 0
0, 0
0, 0
0, 0
0, 0
0, 0
0, 0
0, 0
0, 0
0, 0
0, 0
0, 0
0, 0
0, 0
0, 0
0, 0
0, 0
0, 0
0, 0
0, 0
0, 0
0, 0
0, 0
0, 0
0, 0
0, 0
0, 0
0, 0
0, 0
0, 0
0, 0
0, 0
0, 0
0, 0
0, 0
0, 0
0, 0
0, 0
0, 0
0, 0
0, 0
0, 0
0, 0
0, 0
0, 0
0, 0
0, 0
0, 0
0, 0
0, 0
0, 0
0, 0
0, 0
0, 0
0, 0
0, 0
0, 0
0, 0
0, 0
0, 0
0, 0
0, 0
0, 0
0, 0
0, 0
0, 0
0, 0
0, 0
0, 0
0, 0
0, 0
0, 0
0, 0
0, 0
0, 0
0, 0
0, 0
0, 0
0, 0
0, 0
0, 0
0, 0
0, 0
0, 0
0, 0
#ENDOFDATA     end of spectrum data