File: host_upload/02-11-2024/rqc/uplink1/ps__0567_0717304816_000rfs_shot_152.msa
#FORMAT      : EMSA/MAS spectral data file
#VERSION     : TC202v2.0 PIXL
#TITLE       : Novarupta (sol567) subset1
#DATE        : 02-11-2024      Date in the format DD-MMM-YYYY, for example 07-JUL-2010
#TIME        :             The time of day at which the spectrum was recorded, in 24-hour format
#OWNER       : PIXL Flight Model       (PIXL will use this to indicate which instrument took the data.)
#NPOINTS     : 4096     Number of data points in the spectrum (This can be zero for configuration only files)
#NCOLUMNS    : 2     Number of data columns in the spectrum (This can be zero for configuration only files)
#XUNITS      : eV
#YUNITS      : COUNTS
#DATATYPE    : YY
#XPERCHAN    : 7.862, 7.881   eV per channel (separate by commas if more than one detector)
#OFFSET      : 18.5, -22.4         eV of first channel  (separate by commas if more than one detector
#SIGNALTYPE  : XRF
#YP_TEMP     : -0.202
#LIVETIME    : 8.84302, 8.62941   seconds (separate by commas if more than one detector)
#REALTIME    : 10, 10.0   seconds (separate by commas if more than one detector)
#SPECTRUM    : start of spectrum data
0, 0
0, 0
0, 0
0, 0
0, 0
0, 0
0, 0
0, 0
0, 0
0, 0
0, 0
0, 0
0, 0
0, 0
0, 0
0, 0
0, 0
0, 0
0, 0
0, 0
0, 0
0, 0
0, 0
0, 0
0, 0
0, 0
0, 0
0, 0
0, 0
1, 0
0, 0
0, 0
0, 2
0, 1
2, 1
0, 2
3, 2
0, 3
2, 4
2, 7
2, 5
1, 2
1, 5
7, 5
2, 5
2, 6
4, 4
3, 6
3, 3
3, 9
6, 9
5, 14
6, 10
15, 22
16, 14
24, 14
15, 19
10, 8
12, 9
8, 14
15, 23
24, 25
50, 45
46, 46
39, 70
34, 46
36, 39
32, 42
41, 47
55, 75
101, 137
169, 236
291, 371
394, 489
426, 534
443, 542
387, 505
329, 354
189, 249
124, 177
71, 86
51, 49
39, 42
24, 32
25, 27
35, 47
37, 44
20, 28
27, 34
22, 30
11, 19
15, 17
27, 39
49, 56
79, 83
144, 178
216, 271
269, 361
321, 393
312, 397
263, 312
223, 276
153, 194
103, 122
49, 86
54, 67
46, 61
60, 77
77, 119
119, 165
171, 234
202, 252
216, 240
218, 259
203, 221
175, 175
129, 142
113, 101
90, 113
92, 93
78, 77
82, 69
65, 66
71, 62
64, 38
37, 35
36, 38
22, 28
19, 19
15, 15
10, 11
11, 13
9, 7
6, 8
7, 4
5, 8
13, 10
12, 14
21, 19
21, 33
27, 42
37, 33
41, 39
25, 35
19, 32
13, 24
10, 18
9, 15
12, 10
10, 23
29, 42
56, 62
96, 116
136, 196
223, 254
280, 380
313, 472
358, 468
321, 391
332, 343
207, 263
155, 187
96, 109
45, 77
29, 30
25, 17
33, 37
28, 47
39, 68
44, 61
57, 82
60, 63
50, 80
43, 50
30, 36
23, 30
14, 20
9, 13
13, 9
10, 14
10, 8
7, 11
4, 11
11, 14
15, 13
17, 13
17, 15
30, 27
29, 40
39, 61
41, 53
51, 79
54, 74
46, 71
43, 72
42, 53
32, 28
16, 34
19, 20
14, 18
16, 24
14, 9
16, 13
18, 17
13, 11
12, 21
9, 25
8, 18
12, 17
10, 22
15, 24
16, 16
14, 19
19, 19
8, 18
19, 13
9, 9
13, 13
8, 14
8, 12
9, 9
17, 12
6, 21
9, 27
17, 13
10, 18
22, 23
17, 22
25, 31
26, 39
32, 56
33, 31
23, 43
30, 31
25, 26
12, 11
19, 21
13, 11
5, 10
7, 10
9, 12
16, 16
14, 14
11, 17
19, 20
9, 27
14, 29
38, 47
33, 53
46, 51
57, 65
45, 46
42, 57
52, 59
34, 28
27, 26
22, 22
21, 22
14, 16
18, 20
18, 26
33, 25
45, 61
76, 106
124, 188
242, 312
366, 549
550, 848
839, 1106
1150, 1478
1406, 1778
1558, 1865
1605, 1964
1526, 1787
1286, 1495
1068, 1103
810, 817
536, 495
308, 318
200, 178
103, 100
68, 60
39, 33
27, 27
14, 12
17, 12
16, 24
23, 16
18, 23
15, 41
25, 43
19, 36
44, 48
46, 81
63, 101
119, 156
175, 198
192, 255
218, 281
239, 340
263, 277
242, 261
207, 206
153, 144
112, 139
74, 74
52, 36
38, 28
26, 24
11, 12
8, 9
13, 3
5, 8
6, 14
7, 16
8, 8
14, 14
15, 13
9, 17
11, 8
17, 16
10, 21
7, 7
4, 10
8, 8
3, 9
4, 12
6, 10
4, 9
2, 9
4, 11
5, 9
8, 7
10, 11
7, 6
9, 5
4, 17
10, 9
7, 6
3, 9
9, 10
5, 13
7, 8
4, 4
4, 10
2, 12
10, 12
6, 9
6, 6
5, 6
7, 7
4, 5
5, 8
3, 12
1, 7
6, 7
6, 5
6, 9
1, 8
5, 8
4, 4
5, 10
8, 5
5, 4
10, 16
8, 13
9, 19
10, 19
8, 9
16, 8
4, 10
4, 5
7, 14
10, 12
7, 7
13, 5
9, 4
7, 9
8, 6
5, 6
12, 4
9, 2
4, 4
6, 7
4, 7
6, 8
8, 9
10, 7
9, 6
5, 7
3, 7
1, 5
7, 5
4, 2
7, 6
5, 6
4, 4
5, 6
6, 4
5, 2
5, 2
7, 7
2, 5
4, 6
5, 5
5, 2
6, 7
6, 9
10, 9
3, 6
4, 4
2, 4
5, 7
3, 4
3, 5
7, 6
2, 3
5, 4
5, 5
6, 7
4, 6
3, 12
5, 0
2, 2
3, 5
6, 4
2, 6
2, 3
2, 3
8, 5
4, 9
5, 1
7, 3
5, 6
1, 2
2, 6
7, 3
1, 3
1, 1
5, 3
2, 6
3, 4
4, 4
3, 4
0, 7
4, 3
3, 3
3, 1
3, 3
2, 4
1, 4
6, 7
4, 5
2, 5
1, 2
4, 6
2, 2
3, 1
4, 4
1, 4
3, 2
1, 2
4, 2
3, 3
0, 1
4, 2
0, 3
3, 2
4, 5
5, 6
4, 3
3, 6
4, 1
4, 1
4, 4
1, 6
5, 4
2, 2
3, 2
2, 4
1, 2
4, 2
2, 5
0, 5
4, 2
1, 1
3, 1
3, 3
3, 5
3, 0
2, 0
2, 3
3, 3
3, 7
2, 2
2, 1
1, 3
2, 3
3, 4
1, 1
1, 4
2, 4
0, 3
2, 3
2, 3
2, 3
1, 4
3, 2
4, 0
1, 3
4, 4
3, 3
3, 3
5, 2
2, 2
4, 1
0, 2
1, 3
0, 2
1, 3
0, 2
5, 1
1, 2
3, 3
0, 2
3, 2
1, 2
3, 4
1, 3
0, 1
1, 0
6, 1
3, 2
4, 2
3, 2
2, 2
6, 5
2, 1
3, 1
2, 2
6, 1
3, 1
2, 4
3, 3
0, 3
2, 1
0, 1
5, 1
0, 1
0, 1
3, 0
2, 3
1, 4
3, 1
1, 1
1, 0
1, 2
2, 2
2, 0
3, 2
2, 3
1, 3
1, 3
2, 1
3, 3
0, 2
0, 2
2, 0
0, 3
4, 3
1, 4
0, 5
2, 1
1, 0
1, 1
2, 3
0, 1
1, 2
3, 2
0, 1
1, 0
2, 2
0, 1
1, 1
2, 3
2, 1
2, 0
0, 2
1, 0
0, 0
1, 1
0, 1
1, 2
0, 3
0, 1
0, 3
1, 1
2, 2
0, 2
0, 1
0, 0
2, 2
2, 1
2, 1
1, 0
3, 0
1, 0
2, 2
0, 1
1, 2
0, 3
1, 1
1, 2
1, 1
0, 2
1, 2
1, 0
0, 1
1, 1
0, 1
1, 1
1, 1
0, 1
0, 2
0, 1
1, 2
0, 1
0, 2
2, 0
2, 1
0, 1
3, 1
1, 0
1, 1
1, 0
0, 2
1, 0
1, 0
0, 1
1, 2
2, 1
1, 0
2, 0
1, 2
0, 0
0, 3
2, 1
1, 1
0, 0
1, 0
1, 1
0, 1
0, 0
0, 2
1, 0
1, 0
2, 0
0, 0
2, 0
0, 0
2, 0
0, 0
1, 1
0, 0
0, 0
0, 1
0, 2
1, 0
1, 0
0, 0
1, 1
0, 1
0, 0
0, 1
0, 0
0, 1
2, 0
1, 0
0, 0
0, 0
0, 2
0, 1
1, 0
0, 0
0, 0
1, 0
1, 2
1, 0
0, 1
1, 1
0, 1
0, 0
0, 0
1, 0
1, 1
0, 0
0, 1
1, 0
0, 0
1, 0
0, 0
0, 1
0, 0
0, 0
0, 0
0, 1
0, 0
0, 1
1, 2
0, 1
0, 0
0, 0
1, 0
0, 0
0, 0
1, 1
0, 1
0, 0
0, 0
1, 2
0, 0
1, 0
0, 0
0, 0
1, 1
0, 0
0, 0
1, 1
0, 1
0, 0
0, 1
0, 0
1, 0
0, 0
0, 0
0, 1
0, 2
0, 2
2, 0
0, 0
0, 1
1, 0
0, 1
0, 0
1, 0
0, 0
0, 0
0, 0
0, 0
1, 1
1, 0
0, 0
1, 0
0, 0
0, 0
0, 0
0, 0
1, 0
0, 1
0, 0
1, 0
0, 0
0, 2
0, 1
0, 1
0, 0
1, 1
0, 0
0, 0
0, 1
0, 1
1, 0
1, 1
0, 0
0, 0
0, 0
0, 0
0, 1
0, 1
0, 0
0, 0
1, 0
0, 0
0, 0
0, 1
0, 2
0, 0
0, 0
0, 0
1, 0
1, 1
1, 1
0, 0
0, 1
0, 0
0, 1
0, 1
0, 0
1, 1
1, 0
0, 0
0, 0
0, 1
1, 1
1, 0
0, 0
0, 1
0, 0
0, 0
0, 0
0, 0
0, 0
0, 0
0, 0
1, 0
0, 0
0, 0
0, 1
0, 0
0, 0
0, 1
0, 0
0, 0
0, 0
0, 0
0, 0
1, 0
0, 0
0, 0
0, 0
0, 0
0, 1
0, 0
0, 0
0, 0
0, 0
0, 0
1, 0
0, 0
0, 0
0, 0
0, 0
0, 0
0, 0
0, 0
0, 0
0, 0
0, 0
0, 0
0, 0
0, 0
0, 0
0, 0
0, 0
0, 1
0, 1
1, 0
0, 0
0, 1
0, 0
1, 0
0, 0
0, 0
1, 0
0, 0
0, 0
0, 0
0, 0
0, 0
1, 0
0, 0
0, 0
0, 0
0, 0
1, 0
0, 0
0, 0
0, 0
0, 0
0, 0
0, 0
0, 0
0, 0
0, 0
0, 1
0, 0
0, 0
0, 0
0, 0
0, 0
0, 0
0, 0
0, 0
0, 0
0, 0
0, 0
0, 0
0, 0
0, 0
0, 0
0, 0
0, 0
0, 1
0, 0
0, 0
0, 0
0, 0
0, 0
0, 0
0, 0
0, 0
0, 0
0, 0
0, 1
0, 0
0, 0
0, 0
0, 0
0, 0
0, 0
0, 0
0, 0
0, 0
0, 0
0, 0
0, 0
0, 0
0, 0
0, 0
0, 0
0, 0
0, 1
0, 0
0, 0
0, 1
0, 0
0, 0
0, 0
0, 0
0, 0
0, 0
0, 0
0, 0
0, 0
0, 0
0, 0
0, 0
0, 0
0, 0
0, 0
0, 0
0, 0
0, 0
0, 0
0, 0
0, 0
0, 0
0, 0
0, 0
0, 0
0, 0
0, 0
0, 0
0, 0
0, 0
0, 0
0, 0
0, 0
0, 0
0, 0
0, 0
0, 0
0, 0
0, 0
0, 0
0, 0
0, 0
0, 0
0, 0
0, 0
0, 0
0, 0
0, 0
0, 0
0, 0
0, 0
0, 0
0, 0
0, 0
0, 0
0, 0
0, 0
0, 0
0, 0
0, 0
0, 0
0, 0
0, 0
0, 0
0, 0
0, 0
0, 0
0, 0
0, 0
0, 0
0, 0
0, 0
0, 0
0, 0
1, 1
0, 0
0, 0
0, 0
0, 0
0, 0
0, 0
0, 0
0, 0
0, 0
0, 0
0, 0
0, 0
0, 1
0, 0
0, 0
0, 0
0, 0
0, 0
0, 0
0, 0
0, 0
0, 0
0, 0
0, 0
0, 0
0, 0
0, 0
0, 0
0, 0
0, 0
0, 0
0, 0
0, 0
0, 0
0, 0
0, 0
0, 0
0, 0
0, 0
0, 0
0, 0
0, 0
0, 0
0, 0
0, 0
0, 0
0, 0
0, 0
0, 0
0, 0
0, 0
0, 0
0, 0
0, 0
0, 0
0, 0
0, 0
0, 0
0, 0
0, 0
0, 0
0, 0
0, 0
0, 0
0, 0
0, 0
0, 0
0, 0
0, 0
0, 0
0, 0
0, 0
0, 0
0, 0
0, 0
0, 0
0, 0
0, 0
0, 0
0, 0
0, 0
0, 0
0, 0
0, 0
0, 0
0, 0
0, 0
0, 0
0, 0
0, 0
0, 0
0, 0
0, 0
0, 0
0, 0
0, 0
0, 0
0, 0
0, 0
0, 0
0, 0
0, 0
0, 0
0, 0
0, 0
0, 0
0, 0
0, 0
0, 0
0, 0
0, 0
0, 0
0, 0
0, 0
0, 0
0, 0
0, 0
0, 0
0, 0
0, 0
0, 0
0, 0
0, 0
0, 0
0, 0
0, 0
0, 0
0, 0
0, 0
0, 0
0, 0
0, 0
0, 0
0, 0
0, 0
0, 0
0, 0
0, 0
0, 0
0, 0
0, 0
0, 0
0, 0
0, 0
0, 0
0, 0
0, 0
0, 0
0, 0
0, 0
0, 0
0, 0
0, 0
0, 0
0, 0
0, 0
0, 0
0, 0
0, 0
0, 0
0, 0
0, 0
0, 0
0, 0
0, 0
0, 0
0, 0
0, 0
0, 0
0, 0
0, 0
0, 0
0, 0
0, 0
0, 0
0, 0
0, 0
0, 0
0, 0
0, 0
0, 0
0, 0
0, 0
0, 0
0, 0
0, 0
0, 0
0, 0
0, 0
0, 0
0, 0
0, 0
0, 0
0, 0
0, 0
0, 0
0, 0
0, 0
0, 0
0, 0
0, 0
0, 0
0, 0
0, 0
0, 0
0, 0
0, 0
0, 0
0, 0
0, 0
0, 0
0, 0
0, 0
0, 0
0, 0
0, 0
0, 0
0, 0
0, 0
0, 0
0, 0
0, 0
0, 0
0, 0
0, 0
0, 0
0, 0
0, 0
0, 0
0, 0
0, 0
0, 0
0, 0
0, 0
0, 0
0, 0
0, 0
0, 0
0, 0
0, 0
0, 0
0, 0
0, 0
0, 0
0, 0
0, 0
0, 0
0, 0
0, 0
0, 0
0, 0
0, 0
0, 0
0, 0
0, 0
0, 0
0, 0
0, 0
0, 0
0, 0
0, 0
0, 0
0, 0
0, 0
0, 0
0, 0
0, 0
0, 0
0, 0
0, 0
0, 0
0, 0
0, 0
0, 0
0, 0
0, 0
0, 0
0, 0
0, 0
0, 0
0, 0
0, 0
0, 0
0, 0
0, 0
0, 0
0, 0
0, 0
0, 0
0, 0
0, 0
0, 0
0, 0
0, 0
0, 0
0, 0
0, 0
0, 0
0, 0
0, 0
0, 0
0, 0
0, 0
0, 0
0, 0
0, 0
0, 0
0, 0
0, 0
0, 0
0, 0
0, 0
0, 0
0, 0
0, 0
0, 0
0, 0
0, 0
0, 0
0, 0
0, 0
0, 0
0, 0
0, 0
0, 0
0, 0
0, 0
0, 0
0, 0
0, 0
0, 0
0, 0
0, 0
0, 0
0, 0
0, 0
0, 0
0, 0
0, 0
0, 0
0, 0
0, 0
0, 0
0, 0
0, 0
0, 0
0, 0
0, 0
0, 0
0, 0
0, 0
0, 0
0, 0
0, 0
0, 0
0, 0
#ENDOFDATA     end of spectrum data