File: host_upload/02-11-2024/rqc/uplink1/ps__0567_0717304816_000rfs_shot_392.msa
#FORMAT      : EMSA/MAS spectral data file
#VERSION     : TC202v2.0 PIXL
#TITLE       : Novarupta (sol567) subset1
#DATE        : 02-11-2024      Date in the format DD-MMM-YYYY, for example 07-JUL-2010
#TIME        :             The time of day at which the spectrum was recorded, in 24-hour format
#OWNER       : PIXL Flight Model       (PIXL will use this to indicate which instrument took the data.)
#NPOINTS     : 4096     Number of data points in the spectrum (This can be zero for configuration only files)
#NCOLUMNS    : 2     Number of data columns in the spectrum (This can be zero for configuration only files)
#XUNITS      : eV
#YUNITS      : COUNTS
#DATATYPE    : YY
#XPERCHAN    : 7.862, 7.881   eV per channel (separate by commas if more than one detector)
#OFFSET      : 18.5, -22.4         eV of first channel  (separate by commas if more than one detector
#SIGNALTYPE  : XRF
#YP_TEMP     : 1.658
#LIVETIME    : 8.81832, 8.8065   seconds (separate by commas if more than one detector)
#REALTIME    : 10, 10.0   seconds (separate by commas if more than one detector)
#SPECTRUM    : start of spectrum data
0, 0
0, 0
0, 0
0, 0
0, 0
0, 0
0, 0
0, 0
0, 0
0, 0
0, 0
0, 0
0, 0
0, 0
0, 0
0, 0
0, 0
0, 0
0, 0
0, 0
0, 0
0, 0
0, 0
0, 0
0, 0
0, 0
0, 0
0, 0
0, 0
0, 0
0, 0
0, 1
1, 0
1, 2
1, 1
1, 4
3, 2
5, 2
1, 3
4, 8
3, 4
6, 4
3, 3
2, 5
2, 2
6, 2
5, 4
3, 1
3, 1
3, 5
6, 8
9, 5
13, 10
14, 15
15, 10
8, 15
10, 12
7, 12
8, 3
15, 15
20, 21
19, 32
42, 44
52, 43
50, 52
45, 42
46, 36
41, 47
42, 36
68, 64
108, 144
197, 202
276, 353
404, 453
496, 531
509, 537
430, 487
316, 351
220, 260
153, 138
96, 96
52, 48
34, 27
31, 33
22, 40
43, 37
38, 32
31, 36
35, 25
29, 27
15, 25
25, 21
23, 41
44, 58
71, 98
117, 154
233, 223
254, 279
348, 310
342, 365
300, 286
210, 214
165, 173
114, 99
82, 66
63, 73
56, 62
66, 54
73, 91
101, 94
154, 152
187, 232
192, 199
185, 222
178, 191
168, 186
129, 120
105, 107
88, 97
87, 74
69, 69
86, 86
65, 73
41, 65
43, 52
37, 39
28, 28
27, 22
25, 21
16, 19
13, 18
9, 7
12, 7
9, 5
4, 4
8, 5
16, 16
16, 14
24, 21
34, 29
23, 48
39, 37
33, 39
25, 28
24, 23
16, 19
20, 7
13, 13
15, 12
14, 13
31, 36
53, 61
107, 120
153, 175
212, 279
313, 342
382, 454
434, 448
416, 429
338, 367
246, 250
155, 178
117, 107
69, 60
56, 33
22, 29
32, 38
34, 44
44, 63
68, 72
55, 65
61, 70
49, 72
64, 62
46, 35
34, 33
18, 18
16, 15
9, 8
10, 11
8, 11
8, 3
10, 14
9, 14
12, 7
13, 20
20, 15
24, 34
25, 43
40, 46
44, 74
58, 54
61, 54
64, 65
63, 59
46, 49
36, 38
32, 29
24, 22
20, 14
10, 24
10, 14
16, 17
6, 16
11, 12
16, 14
14, 17
20, 21
16, 20
20, 19
19, 24
23, 23
21, 18
11, 22
9, 19
10, 13
14, 10
6, 15
9, 9
9, 8
9, 10
11, 16
7, 8
9, 13
15, 16
13, 16
23, 21
26, 26
22, 45
20, 33
35, 36
31, 42
42, 39
30, 21
21, 19
22, 16
15, 17
10, 14
12, 15
11, 10
9, 7
9, 12
13, 10
10, 22
25, 10
15, 26
27, 32
33, 35
38, 52
45, 66
60, 67
42, 53
54, 50
34, 52
34, 36
26, 32
24, 20
31, 28
20, 21
15, 23
17, 27
22, 28
38, 41
55, 87
101, 169
189, 250
382, 476
596, 747
888, 1068
1174, 1386
1503, 1687
1796, 1844
1762, 2020
1720, 1753
1502, 1524
1186, 1164
922, 851
595, 541
385, 383
229, 175
119, 121
60, 54
32, 28
30, 21
25, 20
20, 13
21, 16
10, 14
14, 19
27, 20
23, 24
21, 39
41, 49
48, 68
77, 108
116, 135
164, 188
195, 251
251, 276
252, 288
248, 257
252, 242
220, 238
204, 197
158, 147
106, 74
61, 56
28, 35
32, 21
20, 13
12, 12
7, 10
6, 10
9, 12
7, 11
13, 10
11, 21
12, 9
10, 13
8, 13
8, 12
5, 9
11, 13
14, 9
10, 5
9, 6
7, 7
8, 9
1, 7
8, 7
11, 7
7, 9
2, 4
1, 6
8, 4
5, 6
4, 7
4, 4
4, 10
8, 6
6, 7
7, 7
6, 9
7, 6
3, 6
5, 4
7, 9
5, 11
11, 5
5, 7
4, 13
10, 8
9, 7
6, 4
6, 8
7, 12
4, 7
9, 12
6, 7
7, 4
4, 9
8, 8
5, 6
16, 10
7, 8
20, 9
13, 10
15, 13
8, 16
9, 8
5, 16
8, 7
5, 9
4, 9
7, 2
7, 6
2, 7
7, 3
6, 6
3, 4
6, 2
7, 5
7, 8
5, 8
1, 5
3, 3
7, 8
4, 3
4, 6
2, 11
5, 4
4, 2
5, 2
5, 4
5, 4
10, 8
8, 4
6, 6
3, 5
2, 8
4, 5
12, 3
8, 9
6, 3
5, 4
6, 4
6, 7
7, 5
6, 5
7, 3
1, 6
1, 7
6, 4
8, 6
4, 5
10, 6
3, 1
4, 5
7, 5
3, 5
5, 4
8, 5
5, 6
3, 7
6, 8
4, 6
3, 5
3, 5
7, 7
3, 3
4, 5
3, 6
8, 10
4, 4
4, 4
4, 5
0, 4
2, 3
11, 2
1, 2
4, 3
2, 6
4, 9
1, 2
5, 5
5, 3
3, 2
2, 3
3, 5
2, 5
4, 2
6, 6
7, 3
2, 2
4, 2
5, 2
0, 4
1, 4
5, 4
3, 4
2, 4
1, 0
8, 6
2, 2
4, 3
7, 4
2, 4
5, 2
1, 4
1, 1
2, 2
4, 8
3, 1
3, 1
4, 2
7, 1
3, 3
1, 7
2, 6
3, 3
3, 4
2, 6
3, 2
1, 3
3, 7
2, 2
0, 1
3, 4
6, 3
3, 2
2, 1
0, 2
3, 3
3, 2
6, 0
4, 2
0, 3
3, 3
3, 1
1, 2
1, 4
5, 5
4, 4
2, 7
3, 3
5, 2
1, 0
2, 2
2, 2
4, 1
0, 4
2, 2
2, 2
2, 4
2, 4
2, 3
3, 4
2, 4
0, 4
4, 2
2, 4
2, 1
2, 3
3, 2
1, 2
1, 2
5, 2
5, 2
1, 2
1, 2
2, 1
4, 1
1, 2
2, 3
1, 2
2, 2
1, 3
1, 5
2, 3
3, 3
3, 1
2, 5
2, 2
0, 2
4, 3
3, 2
1, 2
4, 1
0, 3
2, 3
1, 2
1, 3
2, 1
2, 5
1, 0
0, 1
0, 0
0, 1
4, 0
2, 0
1, 2
5, 3
2, 2
3, 1
0, 0
1, 1
1, 4
3, 1
0, 3
1, 1
1, 4
0, 2
0, 3
1, 2
2, 3
1, 4
3, 4
4, 1
1, 0
1, 0
0, 1
3, 1
0, 2
1, 0
3, 1
0, 0
1, 1
3, 1
1, 1
0, 3
1, 0
1, 1
2, 1
2, 1
0, 0
0, 2
0, 1
3, 2
0, 1
2, 6
0, 2
0, 1
0, 0
1, 4
0, 0
1, 1
0, 0
2, 2
1, 0
0, 0
2, 0
0, 1
1, 0
1, 1
1, 0
0, 0
1, 0
1, 2
0, 1
1, 0
1, 1
2, 0
1, 2
2, 0
0, 1
1, 0
2, 0
0, 2
1, 0
1, 2
1, 1
0, 0
1, 1
1, 1
0, 2
1, 1
1, 0
1, 0
0, 0
0, 1
1, 1
0, 0
2, 1
0, 1
0, 1
1, 1
2, 0
0, 1
3, 0
0, 0
1, 1
0, 0
1, 0
0, 0
2, 0
1, 1
2, 1
1, 0
1, 1
1, 0
4, 0
0, 0
0, 0
0, 2
1, 1
1, 0
0, 0
1, 0
0, 0
0, 0
2, 1
1, 1
0, 0
0, 0
2, 0
1, 0
2, 0
0, 0
0, 1
0, 0
1, 1
0, 0
0, 0
0, 1
1, 0
0, 0
0, 0
0, 1
0, 0
1, 1
0, 1
0, 0
1, 1
0, 0
1, 0
0, 0
0, 2
1, 1
2, 0
1, 0
3, 1
3, 2
1, 0
0, 0
0, 0
0, 0
1, 0
2, 0
1, 0
1, 0
0, 0
0, 0
0, 3
1, 0
0, 1
0, 0
0, 0
0, 0
0, 3
2, 0
0, 0
0, 0
0, 1
0, 0
0, 0
0, 0
0, 0
0, 1
1, 1
0, 0
0, 0
0, 0
0, 1
0, 0
1, 1
0, 1
0, 0
0, 0
0, 0
1, 0
0, 1
0, 1
2, 1
0, 0
0, 0
0, 0
0, 0
1, 0
1, 0
0, 0
0, 1
0, 1
2, 0
0, 0
0, 0
0, 0
0, 0
0, 0
0, 0
0, 1
0, 0
0, 1
0, 0
0, 0
0, 0
0, 0
0, 0
0, 0
0, 1
0, 0
0, 0
0, 0
1, 0
0, 0
0, 0
1, 1
0, 0
0, 1
0, 0
0, 0
0, 1
0, 1
0, 0
0, 0
0, 1
0, 0
0, 0
0, 0
0, 0
0, 0
0, 1
1, 0
0, 0
0, 0
0, 0
1, 0
0, 0
0, 0
0, 1
0, 0
0, 1
0, 0
0, 0
0, 0
0, 0
0, 0
1, 0
0, 0
0, 0
0, 0
0, 1
1, 0
1, 0
0, 0
0, 0
0, 0
0, 1
0, 0
0, 0
0, 0
0, 0
0, 0
0, 1
0, 0
1, 0
0, 0
0, 0
2, 0
0, 0
0, 0
0, 0
0, 1
0, 1
0, 0
1, 0
1, 0
0, 0
0, 1
0, 0
1, 0
0, 0
0, 0
0, 0
1, 0
0, 1
0, 0
0, 0
0, 0
0, 0
0, 0
0, 0
0, 0
0, 0
0, 1
0, 0
0, 1
0, 0
0, 1
0, 0
0, 0
0, 0
0, 1
0, 0
0, 0
0, 0
1, 0
0, 0
0, 0
0, 0
0, 0
0, 0
0, 0
0, 0
1, 0
0, 0
0, 0
0, 0
0, 0
0, 0
0, 0
0, 0
0, 0
0, 0
0, 0
0, 0
0, 0
0, 0
0, 1
0, 1
0, 0
0, 0
0, 0
0, 0
0, 0
0, 0
0, 0
0, 1
0, 0
0, 0
0, 0
0, 0
0, 1
0, 0
0, 0
0, 0
0, 0
0, 0
0, 0
0, 0
1, 0
0, 0
0, 0
0, 0
0, 0
0, 0
0, 0
0, 0
0, 0
0, 0
1, 0
0, 0
0, 0
0, 0
0, 0
0, 0
0, 1
0, 0
1, 0
0, 0
0, 0
0, 0
0, 0
0, 0
0, 0
0, 1
0, 0
0, 0
0, 0
0, 0
0, 0
0, 0
0, 0
0, 0
0, 0
0, 0
0, 0
0, 0
0, 0
0, 0
0, 0
0, 0
0, 0
0, 0
0, 0
0, 0
0, 0
0, 0
0, 0
0, 0
0, 0
0, 0
0, 0
0, 0
0, 0
0, 0
0, 0
0, 0
0, 0
0, 0
0, 0
0, 0
0, 0
0, 0
0, 0
0, 0
0, 0
0, 0
1, 0
0, 0
0, 0
0, 0
0, 0
0, 0
0, 0
0, 0
0, 0
0, 0
0, 0
0, 0
0, 0
0, 0
0, 0
0, 0
0, 0
0, 0
0, 0
0, 0
0, 0
0, 0
0, 0
0, 0
0, 0
0, 0
1, 0
0, 0
0, 0
0, 0
0, 0
0, 0
0, 0
0, 0
0, 0
0, 1
0, 0
0, 0
0, 0
0, 0
0, 0
0, 0
0, 0
0, 0
0, 0
0, 0
0, 0
0, 0
0, 0
0, 0
0, 0
0, 0
0, 0
0, 0
0, 0
0, 0
0, 0
0, 0
0, 0
0, 0
0, 0
0, 0
0, 0
0, 0
0, 0
0, 0
0, 0
0, 0
0, 0
0, 0
0, 0
0, 0
0, 0
0, 0
0, 0
0, 0
0, 0
0, 0
0, 0
0, 0
0, 0
0, 0
0, 0
0, 0
0, 0
0, 0
0, 0
0, 0
0, 0
0, 0
0, 0
0, 0
0, 0
0, 0
0, 0
0, 0
0, 0
0, 0
0, 0
0, 0
0, 0
0, 0
0, 0
0, 0
0, 1
0, 0
0, 0
0, 0
0, 0
0, 0
0, 0
0, 0
0, 0
0, 0
0, 0
0, 0
0, 0
0, 0
0, 0
0, 0
0, 0
0, 0
0, 0
0, 0
0, 0
0, 0
0, 0
0, 0
0, 0
0, 0
0, 0
0, 0
0, 0
0, 0
0, 0
0, 0
0, 0
0, 0
0, 0
0, 0
0, 0
0, 0
0, 0
0, 0
0, 0
0, 0
0, 0
0, 0
0, 0
0, 0
0, 0
0, 0
0, 0
0, 0
0, 0
0, 0
0, 0
0, 0
0, 0
0, 0
0, 0
0, 0
0, 0
0, 0
0, 0
0, 0
0, 0
0, 0
0, 0
0, 0
0, 0
0, 0
0, 0
0, 0
0, 0
0, 0
0, 0
0, 0
0, 0
0, 0
0, 0
0, 0
0, 0
0, 0
0, 0
0, 0
0, 0
0, 0
0, 0
0, 0
0, 0
0, 0
0, 0
0, 0
0, 0
0, 0
0, 0
0, 0
0, 0
0, 0
0, 0
0, 0
0, 0
0, 0
0, 0
0, 0
0, 0
0, 0
0, 0
0, 0
0, 0
0, 0
0, 0
0, 0
0, 0
0, 0
0, 0
0, 0
0, 0
0, 0
0, 0
0, 0
0, 0
0, 0
0, 0
0, 0
0, 0
0, 0
0, 0
0, 0
0, 0
0, 0
0, 0
0, 0
0, 0
0, 0
0, 0
0, 0
0, 0
0, 0
0, 0
0, 0
0, 0
0, 0
0, 0
0, 0
0, 0
0, 0
0, 0
0, 0
0, 0
0, 0
0, 0
0, 0
0, 0
0, 0
0, 0
0, 0
0, 0
0, 0
0, 0
0, 0
0, 0
0, 0
0, 0
0, 0
0, 0
0, 0
0, 0
0, 0
0, 0
0, 0
0, 0
0, 0
0, 0
0, 0
0, 0
0, 0
0, 0
0, 0
0, 0
0, 0
0, 0
0, 0
0, 0
0, 0
0, 0
0, 0
0, 0
0, 0
0, 0
0, 0
0, 0
0, 0
0, 0
0, 0
0, 0
0, 0
0, 0
0, 0
0, 0
0, 0
0, 0
0, 0
0, 0
0, 0
0, 0
0, 0
0, 0
0, 0
0, 0
0, 0
0, 0
0, 0
0, 0
0, 0
0, 0
0, 0
0, 0
0, 0
0, 0
0, 0
0, 0
0, 0
0, 0
0, 0
0, 0
0, 0
0, 0
0, 0
0, 0
0, 0
0, 0
0, 0
0, 0
0, 0
0, 0
0, 0
0, 0
0, 0
0, 0
0, 0
0, 0
0, 0
0, 0
0, 0
0, 0
0, 0
0, 0
0, 0
0, 0
0, 0
0, 0
0, 0
0, 0
0, 0
0, 0
0, 0
0, 0
0, 0
0, 0
0, 0
0, 0
0, 0
0, 0
0, 0
0, 0
0, 0
0, 0
0, 0
0, 0
0, 0
0, 0
0, 0
0, 0
0, 0
0, 0
0, 0
0, 0
0, 0
0, 0
0, 0
0, 0
0, 0
0, 0
0, 0
0, 0
0, 0
0, 0
#ENDOFDATA     end of spectrum data