File: host_upload/02-11-2024/rqc/uplink1/ps__0567_0717304816_000rfs_shot_266.msa
#FORMAT      : EMSA/MAS spectral data file
#VERSION     : TC202v2.0 PIXL
#TITLE       : Novarupta (sol567) subset1
#DATE        : 02-11-2024      Date in the format DD-MMM-YYYY, for example 07-JUL-2010
#TIME        :             The time of day at which the spectrum was recorded, in 24-hour format
#OWNER       : PIXL Flight Model       (PIXL will use this to indicate which instrument took the data.)
#NPOINTS     : 4096     Number of data points in the spectrum (This can be zero for configuration only files)
#NCOLUMNS    : 2     Number of data columns in the spectrum (This can be zero for configuration only files)
#XUNITS      : eV
#YUNITS      : COUNTS
#DATATYPE    : YY
#XPERCHAN    : 7.862, 7.881   eV per channel (separate by commas if more than one detector)
#OFFSET      : 18.5, -22.4         eV of first channel  (separate by commas if more than one detector
#SIGNALTYPE  : XRF
#YP_TEMP     : 1.177
#LIVETIME    : 8.83862, 8.80876   seconds (separate by commas if more than one detector)
#REALTIME    : 10, 10.0   seconds (separate by commas if more than one detector)
#SPECTRUM    : start of spectrum data
0, 0
0, 0
0, 0
0, 0
0, 0
0, 0
0, 0
0, 0
0, 0
0, 0
0, 0
0, 0
0, 0
0, 0
0, 0
0, 0
0, 0
0, 0
0, 0
0, 0
0, 0
0, 0
0, 0
0, 0
0, 0
0, 0
0, 0
0, 0
0, 0
0, 0
0, 0
0, 0
0, 0
0, 2
0, 2
3, 2
5, 1
2, 1
3, 3
3, 6
4, 2
4, 3
5, 7
1, 2
3, 3
1, 3
3, 2
2, 6
5, 5
5, 10
3, 9
10, 10
9, 8
14, 14
11, 21
14, 16
14, 10
5, 10
12, 9
6, 7
13, 20
24, 27
33, 39
45, 47
51, 56
46, 41
36, 40
31, 36
45, 41
45, 69
106, 122
163, 242
282, 356
379, 470
445, 528
479, 579
390, 485
346, 371
239, 243
143, 130
77, 75
48, 59
31, 48
18, 38
27, 27
29, 34
41, 42
28, 39
19, 28
17, 28
13, 21
17, 15
30, 33
37, 56
69, 92
111, 180
213, 276
260, 324
305, 338
322, 345
273, 292
211, 238
184, 199
104, 110
70, 85
55, 63
47, 69
64, 63
81, 109
125, 161
149, 199
204, 218
203, 266
208, 235
181, 230
155, 191
123, 128
110, 119
74, 96
68, 63
55, 77
64, 59
56, 78
65, 42
46, 45
28, 46
32, 33
14, 19
18, 14
19, 16
11, 15
10, 11
7, 8
6, 8
2, 7
7, 9
11, 10
16, 18
13, 15
28, 27
25, 28
21, 32
31, 28
16, 29
15, 26
11, 17
10, 10
13, 12
4, 16
12, 17
29, 28
47, 56
81, 105
130, 175
192, 284
268, 369
347, 427
361, 443
371, 422
298, 361
247, 252
162, 159
100, 92
63, 62
35, 49
25, 45
36, 24
30, 46
32, 50
56, 67
56, 57
57, 67
46, 75
49, 50
29, 41
23, 30
20, 15
14, 12
8, 4
5, 11
10, 6
10, 6
9, 10
11, 17
6, 7
14, 14
17, 21
19, 14
35, 45
36, 46
48, 48
45, 78
63, 70
66, 61
56, 52
35, 51
30, 37
29, 28
21, 28
17, 22
12, 20
5, 13
12, 6
11, 5
11, 11
13, 10
17, 26
19, 15
21, 19
16, 22
22, 22
15, 17
22, 23
12, 14
11, 13
16, 25
11, 14
11, 21
9, 15
12, 10
14, 10
10, 7
7, 17
11, 12
12, 17
16, 21
16, 25
17, 31
33, 32
23, 34
36, 29
29, 24
27, 34
18, 31
17, 18
27, 17
12, 12
11, 12
7, 9
6, 16
4, 9
8, 17
12, 15
16, 13
17, 18
22, 36
26, 28
22, 43
34, 32
43, 49
43, 62
41, 63
50, 56
40, 42
30, 38
34, 28
23, 31
15, 23
24, 16
26, 13
8, 28
18, 23
41, 52
78, 105
107, 140
208, 318
350, 484
526, 748
770, 1079
1091, 1457
1343, 1771
1561, 1958
1555, 1892
1538, 1776
1369, 1448
1097, 1151
816, 796
543, 518
363, 317
200, 183
104, 90
60, 43
36, 35
27, 30
17, 21
12, 15
15, 18
16, 18
17, 25
18, 16
23, 24
23, 30
43, 56
59, 68
71, 110
110, 149
157, 212
206, 255
242, 285
237, 299
255, 282
238, 270
214, 226
137, 145
128, 109
75, 102
54, 49
46, 27
19, 13
14, 20
11, 10
8, 7
10, 6
10, 9
15, 14
8, 12
13, 15
15, 16
13, 11
13, 14
10, 10
6, 13
9, 6
8, 6
4, 9
2, 7
5, 2
6, 7
5, 6
2, 3
5, 9
7, 12
8, 7
5, 9
6, 8
4, 5
7, 2
3, 6
3, 4
3, 10
8, 4
7, 8
4, 10
2, 10
13, 4
7, 15
7, 12
7, 10
9, 5
6, 8
12, 8
5, 10
3, 6
11, 6
8, 6
4, 3
3, 7
8, 5
6, 11
8, 12
7, 7
6, 6
5, 10
9, 12
13, 5
10, 4
13, 9
9, 11
7, 12
16, 9
3, 9
7, 12
4, 11
8, 6
6, 5
4, 7
5, 8
8, 4
6, 17
9, 7
2, 5
4, 5
10, 6
1, 7
8, 8
6, 4
3, 3
6, 5
5, 10
4, 7
4, 7
7, 8
7, 9
5, 2
4, 7
9, 8
8, 3
4, 9
3, 8
4, 6
1, 5
5, 3
4, 4
3, 6
7, 4
6, 9
9, 5
9, 8
1, 10
5, 2
7, 3
3, 5
2, 5
3, 4
3, 4
6, 6
5, 4
6, 5
5, 7
2, 7
4, 1
4, 11
8, 3
1, 5
1, 2
4, 4
3, 7
4, 2
5, 9
4, 4
9, 2
3, 5
6, 7
0, 1
6, 3
5, 8
8, 6
2, 1
3, 5
4, 7
5, 3
2, 6
4, 2
7, 6
1, 5
2, 3
4, 5
3, 3
2, 5
3, 2
2, 5
3, 2
3, 2
5, 2
4, 3
2, 9
1, 4
6, 6
6, 2
2, 6
1, 2
4, 5
4, 0
3, 7
1, 2
5, 3
3, 2
9, 4
3, 2
3, 0
2, 1
0, 5
3, 2
1, 1
5, 3
2, 4
2, 2
2, 3
5, 1
2, 3
3, 3
2, 1
2, 3
0, 4
3, 1
3, 2
1, 4
4, 4
4, 2
0, 3
2, 5
1, 5
5, 2
1, 2
2, 3
3, 2
1, 5
3, 2
4, 2
2, 2
3, 1
2, 2
2, 1
4, 4
3, 1
1, 6
3, 1
1, 2
2, 4
1, 2
1, 4
0, 1
8, 1
1, 3
2, 5
2, 1
1, 3
5, 1
4, 2
2, 2
2, 2
2, 3
0, 4
4, 0
1, 2
1, 3
1, 1
2, 3
2, 5
1, 2
1, 2
2, 3
3, 2
1, 1
1, 2
2, 1
1, 3
2, 2
1, 4
5, 2
0, 1
3, 1
2, 4
0, 5
4, 4
0, 1
2, 3
1, 4
1, 3
2, 1
2, 2
2, 2
3, 0
0, 3
2, 0
3, 3
1, 0
0, 5
0, 1
1, 4
4, 3
3, 2
2, 1
0, 2
1, 5
0, 2
5, 2
3, 0
3, 0
1, 1
2, 1
0, 1
3, 2
1, 1
0, 1
2, 2
2, 1
1, 3
1, 2
2, 2
2, 0
0, 2
0, 2
1, 1
2, 3
1, 1
2, 2
0, 0
1, 1
2, 2
1, 0
1, 0
0, 0
3, 1
1, 0
2, 1
0, 3
1, 2
0, 2
2, 1
0, 3
2, 1
1, 0
1, 3
0, 4
2, 0
1, 1
1, 2
1, 0
0, 1
1, 2
0, 2
2, 2
0, 1
0, 1
1, 1
1, 0
2, 1
1, 0
0, 1
1, 3
2, 0
1, 1
1, 1
3, 0
2, 1
3, 2
1, 0
0, 1
0, 0
1, 2
0, 1
0, 1
2, 0
1, 1
0, 1
2, 1
0, 1
0, 1
1, 2
0, 2
0, 1
1, 0
0, 1
1, 0
0, 0
1, 0
2, 0
1, 3
1, 0
0, 0
0, 2
1, 0
2, 1
2, 1
1, 0
0, 1
0, 0
1, 1
1, 0
0, 0
2, 1
1, 0
1, 0
2, 1
0, 3
3, 1
0, 0
0, 0
0, 0
0, 1
0, 2
0, 0
1, 0
2, 1
0, 0
1, 0
0, 1
2, 0
1, 0
0, 0
0, 1
0, 1
2, 0
0, 1
1, 1
0, 0
0, 1
0, 0
1, 0
1, 0
0, 2
1, 0
1, 0
1, 0
0, 0
0, 0
0, 2
1, 1
1, 0
0, 0
1, 0
0, 0
0, 1
1, 0
1, 1
0, 0
0, 0
0, 1
0, 0
0, 0
0, 0
0, 1
1, 0
0, 0
1, 0
1, 0
0, 1
1, 0
1, 0
0, 0
1, 0
0, 0
0, 0
0, 1
0, 0
0, 0
0, 0
0, 0
0, 1
0, 0
1, 0
1, 0
0, 1
0, 0
2, 0
1, 1
0, 0
0, 0
1, 1
0, 0
0, 0
0, 0
0, 0
1, 2
0, 0
0, 0
1, 0
0, 0
0, 1
0, 1
0, 0
0, 0
0, 1
0, 0
0, 0
0, 1
1, 0
0, 0
0, 1
0, 1
0, 1
0, 1
0, 0
0, 0
0, 0
0, 0
0, 1
1, 0
0, 0
1, 0
1, 0
0, 1
0, 0
0, 0
0, 0
0, 0
0, 0
1, 0
0, 2
0, 0
0, 0
1, 0
3, 0
0, 0
0, 0
0, 0
0, 0
0, 2
0, 0
0, 1
0, 1
1, 1
0, 0
1, 1
0, 0
0, 0
1, 0
0, 0
1, 0
0, 0
1, 0
1, 0
0, 2
0, 1
0, 1
0, 0
0, 0
0, 0
0, 0
1, 0
1, 1
0, 0
0, 1
0, 0
0, 0
1, 0
0, 0
0, 0
1, 0
1, 0
0, 0
1, 0
1, 0
0, 0
1, 0
0, 0
0, 0
0, 0
0, 0
0, 0
0, 0
0, 0
0, 0
0, 0
0, 0
0, 0
0, 0
0, 0
0, 0
0, 0
0, 0
0, 0
2, 0
0, 0
0, 0
0, 0
0, 0
0, 0
0, 0
0, 0
0, 1
0, 0
0, 1
0, 0
1, 0
0, 0
0, 0
0, 0
0, 0
0, 0
0, 0
0, 0
0, 0
0, 0
1, 0
0, 0
0, 0
0, 0
0, 0
0, 0
0, 0
0, 0
0, 0
0, 0
0, 0
0, 0
0, 0
0, 0
0, 0
0, 0
0, 0
0, 0
0, 0
0, 0
0, 0
0, 0
0, 0
0, 0
0, 0
0, 1
0, 0
0, 0
0, 0
0, 0
0, 0
0, 0
0, 0
0, 0
0, 0
0, 0
0, 0
0, 0
0, 0
0, 0
2, 0
0, 0
0, 0
0, 0
0, 0
0, 0
0, 0
0, 0
0, 0
0, 0
0, 0
0, 0
0, 0
0, 0
0, 0
0, 0
0, 0
0, 0
0, 0
0, 0
0, 0
0, 0
0, 0
0, 0
0, 0
0, 0
0, 0
0, 0
0, 0
0, 0
0, 0
0, 1
0, 0
0, 0
0, 0
0, 0
0, 0
0, 0
0, 0
0, 0
0, 0
1, 0
0, 0
0, 0
0, 0
0, 0
1, 0
0, 1
0, 0
1, 0
0, 0
0, 0
0, 0
0, 0
0, 0
0, 0
0, 0
1, 0
0, 0
0, 0
0, 0
0, 0
0, 0
0, 0
0, 0
0, 0
0, 0
0, 0
0, 0
0, 0
0, 0
0, 0
0, 0
0, 0
0, 0
0, 0
0, 0
0, 0
0, 0
0, 0
0, 0
0, 0
0, 0
0, 0
0, 0
0, 0
0, 0
0, 0
0, 0
0, 0
0, 0
0, 1
0, 0
0, 0
0, 0
0, 0
0, 0
0, 0
0, 0
0, 0
0, 0
0, 0
0, 0
0, 0
0, 0
0, 0
0, 0
0, 0
0, 0
0, 0
0, 0
0, 0
0, 0
0, 0
0, 0
0, 0
0, 0
0, 0
0, 0
0, 0
0, 0
0, 0
0, 0
0, 0
0, 0
0, 0
0, 0
0, 0
0, 0
0, 0
0, 0
0, 0
0, 0
0, 0
0, 0
0, 0
0, 0
0, 0
0, 0
0, 0
0, 0
0, 0
0, 0
0, 0
0, 0
0, 0
0, 0
0, 0
0, 0
0, 0
0, 0
0, 0
0, 0
0, 0
0, 0
0, 0
0, 0
0, 0
0, 0
0, 0
0, 0
0, 0
0, 0
0, 0
0, 0
0, 0
0, 0
0, 0
0, 0
0, 0
0, 0
0, 0
0, 0
0, 0
0, 0
0, 0
0, 0
0, 0
0, 0
0, 0
0, 0
0, 0
0, 0
0, 0
0, 0
0, 0
0, 0
0, 0
0, 0
0, 0
0, 0
0, 0
0, 0
0, 0
0, 0
0, 0
0, 0
0, 0
0, 0
0, 0
0, 0
0, 0
0, 0
0, 0
0, 0
0, 0
0, 0
0, 0
0, 0
0, 0
0, 0
0, 0
0, 0
0, 0
0, 0
0, 0
0, 0
0, 0
0, 0
0, 0
0, 0
0, 0
0, 0
0, 0
0, 0
0, 0
0, 0
0, 0
0, 0
0, 0
0, 0
0, 0
0, 0
0, 0
0, 0
0, 0
0, 0
0, 0
0, 0
0, 0
0, 0
0, 0
0, 0
0, 0
0, 0
0, 0
0, 0
0, 0
0, 0
0, 0
0, 0
0, 0
0, 0
0, 0
0, 0
0, 0
0, 0
0, 0
0, 0
0, 0
0, 0
0, 0
0, 0
0, 0
0, 0
0, 0
0, 0
0, 0
0, 0
0, 0
0, 0
0, 0
0, 0
0, 0
0, 0
0, 0
0, 0
0, 0
0, 0
0, 0
0, 0
0, 0
0, 0
0, 0
0, 0
0, 0
0, 0
0, 0
0, 0
0, 0
0, 0
0, 0
0, 0
0, 0
0, 0
0, 0
0, 0
0, 0
0, 0
0, 0
0, 0
0, 0
0, 0
0, 0
0, 0
0, 0
0, 0
0, 0
0, 0
0, 0
0, 0
0, 0
0, 0
0, 0
0, 0
0, 0
0, 0
0, 0
0, 0
0, 0
0, 0
0, 0
0, 0
0, 0
0, 0
0, 0
0, 0
0, 0
0, 0
0, 0
0, 0
0, 0
0, 0
0, 0
0, 0
0, 0
0, 0
0, 0
0, 0
0, 0
0, 0
0, 0
0, 0
0, 0
0, 0
0, 0
0, 0
0, 0
0, 0
0, 0
0, 0
0, 0
0, 0
0, 0
0, 0
0, 0
0, 0
0, 0
0, 0
0, 0
0, 0
0, 0
0, 0
0, 0
0, 0
0, 0
0, 0
0, 0
0, 0
0, 0
0, 0
0, 0
0, 0
0, 0
0, 0
0, 0
0, 0
0, 0
0, 0
0, 0
0, 0
0, 0
0, 0
0, 0
0, 0
0, 0
0, 0
0, 0
0, 0
0, 0
0, 0
0, 0
0, 0
0, 0
0, 0
0, 0
0, 0
0, 0
0, 0
0, 0
0, 0
0, 0
0, 0
0, 0
0, 0
0, 0
0, 0
0, 0
0, 0
0, 0
0, 0
0, 0
0, 0
0, 0
0, 0
0, 0
0, 0
0, 0
0, 0
0, 0
0, 0
0, 0
0, 0
0, 0
0, 0
0, 0
0, 0
0, 0
0, 0
0, 0
0, 0
0, 0
0, 0
0, 0
0, 0
0, 0
0, 0
0, 0
0, 0
0, 0
0, 0
0, 0
0, 0
0, 0
0, 0
0, 0
0, 0
0, 0
0, 0
0, 0
0, 0
0, 0
0, 0
0, 0
0, 0
0, 0
0, 0
0, 0
0, 0
0, 0
0, 0
#ENDOFDATA     end of spectrum data