File: host_upload/02-11-2024/rqc/uplink1/ps__0567_0717304816_000rfs_shot_217.msa
#FORMAT      : EMSA/MAS spectral data file
#VERSION     : TC202v2.0 PIXL
#TITLE       : Novarupta (sol567) subset1
#DATE        : 02-11-2024      Date in the format DD-MMM-YYYY, for example 07-JUL-2010
#TIME        :             The time of day at which the spectrum was recorded, in 24-hour format
#OWNER       : PIXL Flight Model       (PIXL will use this to indicate which instrument took the data.)
#NPOINTS     : 4096     Number of data points in the spectrum (This can be zero for configuration only files)
#NCOLUMNS    : 2     Number of data columns in the spectrum (This can be zero for configuration only files)
#XUNITS      : eV
#YUNITS      : COUNTS
#DATATYPE    : YY
#XPERCHAN    : 7.862, 7.881   eV per channel (separate by commas if more than one detector)
#OFFSET      : 18.5, -22.4         eV of first channel  (separate by commas if more than one detector
#SIGNALTYPE  : XRF
#YP_TEMP     : 0.824
#LIVETIME    : 8.84721, 8.82641   seconds (separate by commas if more than one detector)
#REALTIME    : 10, 10.0   seconds (separate by commas if more than one detector)
#SPECTRUM    : start of spectrum data
0, 0
0, 0
0, 0
0, 0
0, 0
0, 0
0, 0
0, 0
0, 0
0, 0
0, 0
0, 0
0, 0
0, 0
0, 0
0, 0
0, 0
0, 0
0, 0
0, 0
0, 0
0, 0
0, 0
0, 0
0, 0
0, 0
0, 0
0, 0
0, 0
0, 0
0, 0
0, 1
0, 0
0, 1
1, 1
1, 4
1, 2
3, 3
0, 2
2, 2
3, 2
4, 5
6, 3
4, 5
1, 3
4, 3
7, 5
2, 2
5, 4
7, 4
5, 8
12, 13
8, 10
16, 19
19, 22
16, 10
13, 17
7, 10
9, 4
12, 10
11, 10
21, 28
39, 29
42, 49
47, 49
41, 32
29, 32
32, 35
41, 49
54, 50
108, 112
179, 206
270, 304
361, 460
460, 486
476, 494
406, 446
359, 309
215, 210
138, 140
64, 82
47, 41
32, 37
28, 26
25, 34
40, 34
37, 33
24, 28
21, 20
22, 15
17, 18
18, 19
22, 35
40, 44
75, 75
137, 158
158, 198
252, 275
285, 312
262, 295
244, 252
202, 192
134, 133
99, 104
63, 67
51, 49
51, 59
62, 71
95, 99
122, 136
163, 204
168, 212
229, 232
217, 240
182, 180
173, 149
123, 131
121, 109
84, 88
74, 76
73, 72
64, 76
52, 47
50, 57
40, 39
37, 35
27, 23
32, 16
17, 9
10, 13
16, 18
10, 10
4, 15
3, 9
7, 5
8, 11
5, 9
10, 17
16, 20
23, 36
23, 29
20, 29
23, 27
29, 23
30, 16
16, 17
6, 8
9, 10
10, 13
14, 18
31, 39
47, 45
83, 105
133, 174
193, 255
283, 308
304, 357
350, 369
296, 359
310, 300
212, 221
146, 157
93, 112
59, 56
39, 48
29, 26
26, 25
31, 33
39, 46
43, 40
50, 50
44, 47
47, 75
46, 49
43, 41
21, 27
15, 12
14, 12
11, 14
11, 8
10, 12
5, 8
7, 15
7, 10
7, 14
9, 15
21, 24
27, 39
25, 29
49, 47
54, 58
58, 76
51, 56
45, 68
47, 52
44, 49
41, 40
27, 25
28, 29
17, 11
11, 18
10, 12
8, 13
15, 18
14, 11
19, 13
11, 19
13, 17
16, 16
14, 15
21, 21
18, 20
13, 12
10, 13
14, 13
12, 14
6, 6
11, 8
6, 13
6, 15
8, 13
6, 17
14, 13
11, 6
13, 15
12, 13
11, 27
22, 23
30, 29
23, 28
24, 31
35, 40
22, 33
36, 23
21, 25
17, 16
13, 23
12, 12
15, 11
14, 8
14, 8
13, 9
11, 12
12, 20
19, 22
16, 18
16, 23
23, 41
40, 42
49, 36
46, 55
43, 50
42, 49
38, 42
42, 25
24, 39
25, 25
42, 22
17, 17
14, 12
22, 14
27, 41
35, 51
62, 70
128, 150
236, 289
366, 480
522, 713
808, 1073
1117, 1329
1382, 1633
1543, 1758
1614, 1832
1590, 1659
1395, 1368
1068, 1027
824, 773
542, 461
365, 329
186, 177
120, 86
59, 43
42, 34
20, 19
23, 10
11, 23
12, 26
14, 13
12, 17
10, 23
28, 29
25, 37
31, 53
55, 56
86, 94
115, 138
136, 186
205, 252
232, 285
248, 278
239, 247
211, 209
204, 221
167, 146
108, 103
80, 76
50, 50
35, 35
18, 14
17, 10
5, 10
8, 8
4, 11
8, 8
13, 8
9, 7
13, 9
9, 16
9, 11
17, 11
12, 4
8, 6
8, 12
5, 10
7, 9
14, 6
5, 6
9, 3
1, 11
11, 10
6, 4
14, 6
3, 4
7, 4
10, 4
6, 7
6, 7
9, 7
4, 3
5, 4
6, 4
5, 5
10, 10
5, 6
5, 11
8, 6
5, 7
4, 8
5, 11
5, 2
7, 12
7, 10
7, 5
4, 8
4, 7
6, 7
9, 8
3, 4
3, 2
5, 6
7, 6
6, 7
9, 12
16, 12
12, 8
6, 6
6, 9
9, 11
12, 10
5, 7
8, 9
9, 9
5, 11
8, 7
11, 3
5, 6
2, 8
5, 7
5, 7
4, 9
5, 9
3, 4
5, 5
2, 11
6, 5
2, 5
6, 8
5, 7
2, 6
3, 6
3, 7
6, 6
2, 5
3, 9
6, 5
3, 4
5, 6
2, 5
2, 5
3, 3
4, 10
5, 3
5, 4
4, 5
5, 4
10, 7
7, 7
4, 8
7, 6
7, 5
5, 2
2, 4
5, 6
2, 2
4, 2
7, 3
6, 5
4, 6
4, 5
4, 5
5, 3
4, 5
6, 8
4, 3
8, 6
5, 4
6, 4
5, 3
1, 5
4, 2
3, 4
6, 1
4, 5
5, 3
1, 3
3, 1
2, 5
1, 0
2, 2
2, 5
6, 5
4, 4
5, 1
5, 4
7, 4
6, 2
3, 3
3, 0
4, 1
7, 3
3, 3
2, 5
2, 6
2, 2
4, 2
3, 3
1, 3
5, 1
0, 6
1, 2
0, 9
3, 3
2, 5
1, 0
2, 3
3, 1
5, 1
4, 4
2, 5
3, 3
2, 1
8, 6
4, 2
5, 4
3, 4
2, 0
4, 2
1, 1
1, 3
3, 1
1, 6
4, 3
3, 9
3, 0
6, 4
2, 7
3, 2
3, 0
2, 0
0, 3
2, 3
6, 1
5, 1
4, 1
0, 2
3, 3
0, 3
4, 0
2, 4
0, 3
4, 5
2, 3
7, 0
4, 0
2, 1
1, 1
3, 5
1, 2
2, 1
0, 4
1, 3
5, 1
0, 2
1, 5
1, 2
2, 3
1, 0
1, 2
3, 1
2, 3
2, 1
1, 2
1, 1
0, 2
3, 0
3, 2
1, 2
1, 0
1, 2
1, 0
2, 1
0, 1
1, 2
2, 4
0, 2
4, 2
2, 2
3, 3
3, 1
2, 1
4, 2
2, 6
2, 4
2, 6
1, 7
4, 2
0, 3
0, 3
1, 3
1, 5
3, 2
1, 2
1, 1
1, 2
1, 3
1, 3
0, 2
0, 1
2, 2
2, 1
0, 2
3, 2
1, 4
2, 0
1, 2
2, 5
1, 0
2, 0
2, 1
0, 1
1, 0
1, 3
1, 0
1, 3
1, 1
2, 4
0, 2
1, 1
2, 0
0, 0
1, 0
1, 2
2, 3
1, 0
0, 0
1, 2
1, 2
1, 1
1, 1
0, 3
2, 1
0, 2
2, 0
1, 2
1, 1
1, 1
0, 0
2, 0
0, 1
0, 1
1, 1
0, 0
0, 4
0, 0
0, 1
1, 0
0, 2
0, 1
1, 0
0, 1
0, 2
0, 1
0, 1
0, 2
1, 0
2, 2
0, 1
1, 1
1, 3
0, 0
0, 0
2, 1
0, 1
2, 2
2, 0
1, 1
1, 0
3, 1
1, 1
1, 1
0, 0
1, 0
0, 0
2, 0
0, 1
1, 0
0, 2
1, 0
1, 1
0, 1
1, 1
1, 1
0, 0
0, 0
0, 0
2, 1
2, 0
2, 1
0, 0
0, 0
0, 0
1, 0
1, 1
0, 0
1, 0
0, 1
0, 1
1, 0
0, 1
0, 1
2, 0
0, 1
0, 0
0, 0
0, 0
1, 0
1, 0
1, 1
2, 0
0, 0
0, 0
0, 0
0, 0
2, 0
0, 0
0, 0
0, 0
0, 3
0, 0
0, 0
0, 1
1, 0
0, 0
0, 1
0, 1
1, 0
0, 0
0, 2
0, 0
0, 1
0, 2
0, 0
0, 1
0, 1
0, 0
0, 0
0, 0
0, 1
0, 1
2, 1
0, 0
0, 1
0, 2
1, 0
0, 0
0, 0
0, 0
0, 1
0, 2
1, 0
1, 0
0, 1
0, 0
0, 0
0, 0
0, 1
0, 0
0, 0
1, 2
0, 0
1, 0
0, 0
0, 0
0, 1
0, 0
1, 1
0, 0
0, 0
0, 0
1, 0
0, 0
1, 1
2, 1
0, 1
1, 0
0, 0
0, 0
0, 1
0, 0
0, 0
0, 0
0, 0
0, 1
0, 0
1, 2
0, 0
0, 0
0, 0
1, 0
0, 0
1, 0
1, 1
0, 0
0, 0
0, 0
0, 0
0, 0
1, 0
0, 0
1, 0
0, 0
0, 1
1, 0
1, 0
0, 0
0, 0
1, 1
0, 0
0, 0
1, 0
0, 0
0, 0
0, 1
1, 1
0, 0
0, 0
1, 0
1, 1
0, 0
1, 1
1, 0
0, 0
0, 0
1, 0
0, 0
0, 1
0, 0
0, 0
0, 0
0, 0
1, 0
0, 0
0, 0
0, 0
1, 0
0, 1
0, 0
0, 0
1, 0
1, 0
1, 0
0, 0
0, 0
0, 0
0, 0
0, 0
0, 1
0, 0
0, 0
0, 0
0, 0
0, 0
0, 0
0, 1
0, 0
0, 0
0, 0
0, 0
0, 0
1, 0
0, 0
0, 0
0, 0
0, 0
0, 0
0, 0
0, 0
0, 0
0, 0
0, 0
0, 0
0, 0
0, 0
0, 0
0, 0
1, 0
0, 0
0, 0
0, 0
0, 1
0, 0
0, 1
0, 0
0, 0
0, 0
0, 0
0, 0
0, 0
0, 0
0, 0
1, 0
0, 0
0, 0
0, 1
0, 0
1, 1
0, 1
1, 0
0, 1
1, 0
0, 0
0, 0
0, 0
0, 0
0, 0
0, 0
0, 0
0, 0
0, 0
0, 0
0, 0
0, 0
0, 0
0, 0
0, 0
0, 0
0, 0
0, 0
0, 0
0, 0
0, 0
0, 0
0, 0
0, 0
0, 0
0, 0
0, 0
0, 0
0, 0
0, 0
0, 1
0, 0
0, 0
0, 0
0, 0
0, 0
0, 0
0, 0
0, 0
0, 0
0, 0
0, 1
0, 0
0, 0
0, 0
0, 0
0, 0
0, 0
0, 0
0, 0
0, 0
0, 0
0, 0
0, 0
0, 0
0, 0
0, 0
0, 0
0, 0
0, 0
0, 0
0, 1
0, 0
0, 0
0, 0
0, 0
0, 0
0, 0
0, 0
0, 0
0, 0
0, 0
0, 0
0, 0
0, 0
0, 0
0, 0
0, 0
0, 0
0, 0
0, 0
0, 0
0, 0
0, 0
0, 0
0, 0
0, 0
0, 0
0, 0
0, 0
0, 0
0, 0
0, 0
0, 0
0, 0
0, 0
0, 0
0, 0
0, 0
0, 0
0, 0
0, 0
0, 0
0, 0
0, 0
0, 0
0, 0
0, 0
0, 0
0, 0
0, 0
0, 0
0, 0
0, 0
0, 0
0, 0
0, 2
0, 0
0, 0
0, 0
0, 0
0, 0
0, 0
1, 0
0, 0
0, 0
0, 0
0, 0
0, 0
0, 0
0, 0
0, 0
0, 0
0, 0
0, 0
0, 0
0, 0
0, 0
0, 0
0, 0
0, 0
0, 0
0, 0
0, 0
0, 0
0, 0
0, 0
0, 0
0, 0
0, 0
0, 0
0, 0
0, 0
0, 0
0, 0
0, 0
0, 0
0, 0
0, 0
0, 0
0, 0
0, 0
0, 0
0, 0
0, 0
0, 0
0, 0
0, 0
0, 0
0, 0
0, 0
0, 0
0, 0
0, 0
0, 0
0, 0
0, 0
0, 0
0, 0
0, 0
0, 0
0, 0
0, 0
0, 0
0, 0
0, 0
0, 0
0, 0
0, 0
0, 0
0, 0
0, 0
0, 0
0, 0
0, 0
0, 0
0, 0
0, 0
0, 0
0, 0
0, 0
0, 0
0, 0
0, 0
0, 0
0, 0
0, 0
0, 0
0, 0
0, 0
0, 0
0, 0
0, 0
0, 0
0, 0
0, 0
0, 1
0, 0
0, 0
0, 0
0, 0
0, 0
0, 0
0, 0
0, 0
0, 0
0, 0
0, 0
0, 0
0, 0
0, 0
0, 0
0, 0
0, 0
0, 0
0, 0
0, 0
0, 0
0, 0
0, 0
0, 0
0, 0
0, 0
0, 0
0, 0
0, 0
0, 0
0, 0
0, 0
0, 0
0, 0
0, 0
0, 0
0, 0
0, 0
0, 0
0, 0
0, 0
0, 0
0, 0
0, 0
0, 0
0, 0
0, 0
0, 0
0, 0
0, 0
0, 0
0, 0
0, 0
0, 0
0, 0
0, 0
0, 0
0, 0
0, 0
0, 0
0, 0
0, 0
0, 0
0, 0
0, 0
0, 0
0, 0
0, 0
0, 0
0, 0
0, 0
0, 0
0, 0
0, 0
0, 0
0, 0
0, 0
0, 0
0, 0
0, 0
0, 0
0, 0
0, 0
0, 0
0, 0
0, 0
0, 0
0, 0
0, 0
0, 0
0, 0
0, 0
0, 0
0, 0
0, 0
0, 0
0, 0
0, 0
0, 0
0, 0
0, 0
0, 0
0, 0
0, 0
0, 0
0, 0
0, 0
0, 0
0, 0
0, 0
0, 0
0, 0
0, 0
0, 0
0, 0
0, 0
0, 0
0, 0
0, 0
0, 0
0, 0
0, 0
0, 0
0, 0
0, 0
0, 0
0, 0
0, 0
0, 0
0, 0
0, 0
0, 0
0, 0
0, 0
0, 0
0, 0
0, 0
0, 0
0, 0
0, 0
0, 0
0, 0
0, 0
0, 0
0, 0
0, 0
0, 0
0, 0
0, 0
0, 0
0, 0
0, 0
0, 0
0, 0
0, 0
0, 0
0, 0
0, 0
0, 0
0, 0
0, 0
0, 0
0, 0
0, 0
0, 0
0, 0
0, 0
0, 0
0, 0
0, 0
0, 0
0, 0
0, 0
0, 0
0, 0
0, 0
0, 0
0, 0
0, 0
0, 0
0, 0
0, 0
0, 0
0, 0
0, 0
0, 0
0, 0
0, 0
0, 0
0, 0
0, 0
0, 0
0, 0
0, 0
0, 0
0, 0
0, 0
0, 0
0, 0
0, 0
0, 0
0, 0
0, 0
0, 0
0, 0
0, 0
0, 0
0, 0
0, 0
0, 0
0, 0
0, 0
0, 0
0, 0
0, 0
0, 0
0, 0
0, 0
0, 0
0, 0
0, 0
0, 0
0, 0
0, 0
0, 0
0, 0
0, 0
0, 0
0, 0
0, 0
0, 0
0, 0
0, 0
0, 0
0, 0
0, 0
0, 0
0, 0
0, 0
0, 0
0, 0
0, 0
0, 0
0, 0
0, 0
0, 0
0, 0
0, 0
0, 0
0, 0
0, 0
0, 0
0, 0
0, 0
0, 0
0, 0
0, 0
0, 0
0, 0
0, 0
0, 0
0, 0
0, 0
0, 0
0, 0
0, 0
0, 0
0, 0
0, 0
0, 0
0, 0
0, 0
0, 0
0, 0
0, 0
0, 0
0, 0
0, 0
0, 0
0, 0
0, 0
0, 0
0, 0
0, 0
0, 0
0, 0
0, 0
0, 0
0, 0
#ENDOFDATA     end of spectrum data