File: host_upload/02-11-2024/rqc/uplink1/ps__0567_0717304816_000rfs_shot_121.msa
#FORMAT      : EMSA/MAS spectral data file
#VERSION     : TC202v2.0 PIXL
#TITLE       : Novarupta (sol567) subset1
#DATE        : 02-11-2024      Date in the format DD-MMM-YYYY, for example 07-JUL-2010
#TIME        :             The time of day at which the spectrum was recorded, in 24-hour format
#OWNER       : PIXL Flight Model       (PIXL will use this to indicate which instrument took the data.)
#NPOINTS     : 4096     Number of data points in the spectrum (This can be zero for configuration only files)
#NCOLUMNS    : 2     Number of data columns in the spectrum (This can be zero for configuration only files)
#XUNITS      : eV
#YUNITS      : COUNTS
#DATATYPE    : YY
#XPERCHAN    : 7.862, 7.881   eV per channel (separate by commas if more than one detector)
#OFFSET      : 18.5, -22.4         eV of first channel  (separate by commas if more than one detector
#SIGNALTYPE  : XRF
#YP_TEMP     : -0.459
#LIVETIME    : 8.84357, 8.82124   seconds (separate by commas if more than one detector)
#REALTIME    : 10, 10.0   seconds (separate by commas if more than one detector)
#SPECTRUM    : start of spectrum data
0, 0
0, 0
0, 0
0, 0
0, 0
0, 0
0, 0
0, 0
0, 0
0, 0
0, 0
0, 0
0, 0
0, 0
0, 0
0, 0
0, 0
0, 0
0, 0
0, 0
0, 0
0, 0
0, 0
0, 0
0, 0
0, 0
0, 0
0, 0
0, 0
0, 0
0, 0
1, 0
0, 0
0, 1
1, 1
0, 4
0, 3
2, 4
2, 2
2, 2
3, 2
4, 2
1, 3
4, 5
2, 4
2, 2
1, 0
1, 2
5, 4
6, 5
2, 8
10, 7
15, 12
14, 20
13, 14
16, 13
15, 22
10, 13
12, 9
11, 12
17, 16
27, 20
30, 39
43, 46
34, 48
40, 58
34, 38
27, 36
42, 41
45, 67
123, 116
197, 194
279, 357
371, 486
452, 468
435, 494
380, 432
315, 361
201, 231
160, 149
85, 55
48, 48
44, 22
26, 34
24, 37
25, 42
22, 28
36, 31
32, 33
20, 22
13, 17
13, 12
28, 26
46, 50
73, 88
146, 133
185, 218
240, 275
278, 317
296, 287
231, 258
172, 188
164, 131
82, 86
64, 57
56, 47
63, 61
66, 87
107, 86
132, 137
147, 160
202, 196
182, 248
221, 209
194, 198
159, 162
121, 128
101, 105
95, 90
73, 83
66, 83
73, 80
66, 59
55, 67
37, 33
37, 36
32, 24
20, 22
26, 14
12, 21
11, 14
7, 4
4, 10
6, 9
4, 6
10, 5
10, 15
12, 17
18, 24
17, 32
20, 24
29, 27
27, 30
32, 14
16, 23
14, 15
12, 16
5, 6
9, 10
9, 19
27, 39
45, 78
91, 99
151, 156
187, 232
265, 300
299, 359
328, 355
325, 372
280, 293
244, 216
131, 177
92, 76
44, 45
45, 38
22, 28
29, 32
31, 40
33, 38
40, 61
58, 62
55, 64
48, 59
39, 37
35, 25
30, 28
16, 20
12, 16
11, 9
2, 11
8, 11
10, 8
6, 5
13, 8
12, 17
11, 13
15, 12
32, 36
31, 44
40, 40
60, 48
64, 76
72, 69
60, 85
42, 64
36, 46
30, 29
35, 25
29, 19
19, 12
11, 19
19, 17
12, 10
10, 13
8, 12
15, 9
9, 14
21, 18
18, 15
21, 18
21, 22
9, 16
22, 26
6, 15
18, 10
22, 17
9, 15
14, 4
13, 8
17, 8
14, 7
5, 13
7, 17
8, 12
26, 13
19, 18
18, 23
31, 30
31, 29
24, 33
27, 31
27, 34
24, 26
19, 26
26, 23
26, 13
12, 15
18, 13
11, 11
16, 8
12, 11
8, 11
8, 7
17, 8
20, 23
20, 21
30, 36
22, 42
33, 43
54, 46
44, 48
49, 41
36, 56
38, 56
34, 27
28, 27
25, 22
17, 23
19, 22
18, 21
22, 23
24, 25
34, 52
81, 82
147, 192
249, 316
408, 531
634, 784
943, 1138
1180, 1415
1493, 1748
1597, 1833
1765, 1805
1586, 1611
1387, 1272
1065, 1042
803, 741
525, 494
300, 286
195, 169
105, 82
53, 54
43, 25
18, 22
15, 16
5, 15
10, 21
20, 19
12, 25
16, 24
24, 38
34, 36
45, 64
65, 71
80, 114
133, 138
160, 182
213, 231
235, 299
239, 303
254, 277
231, 235
212, 188
183, 151
100, 105
89, 74
54, 49
37, 17
15, 14
17, 8
11, 8
11, 10
9, 7
4, 6
5, 11
9, 13
12, 14
10, 17
12, 8
15, 6
10, 16
8, 5
10, 10
13, 7
8, 6
6, 6
7, 4
6, 7
6, 10
4, 12
7, 5
7, 8
9, 5
7, 15
7, 3
7, 4
6, 5
4, 2
2, 14
10, 13
5, 6
6, 10
8, 3
4, 8
5, 10
9, 5
7, 11
5, 9
6, 10
4, 6
4, 7
5, 5
3, 5
8, 3
7, 8
6, 3
1, 4
4, 6
6, 4
8, 8
6, 6
7, 6
4, 10
9, 13
7, 12
8, 13
9, 11
11, 14
9, 8
15, 12
6, 8
13, 9
11, 4
10, 6
6, 8
5, 3
9, 8
9, 6
7, 9
2, 9
0, 7
6, 5
2, 3
3, 5
6, 3
7, 7
5, 4
6, 6
6, 9
2, 7
5, 11
8, 2
3, 6
6, 9
9, 6
5, 7
6, 2
8, 6
6, 4
8, 4
4, 4
4, 10
4, 5
3, 6
6, 4
5, 10
4, 3
6, 4
4, 4
8, 8
5, 4
2, 5
6, 4
3, 6
6, 3
7, 7
8, 6
2, 5
4, 5
1, 5
6, 6
8, 2
3, 5
3, 8
7, 3
4, 7
4, 3
4, 11
4, 4
4, 2
1, 3
4, 4
8, 2
3, 6
5, 6
2, 5
3, 5
4, 3
7, 2
3, 7
4, 6
2, 3
1, 7
4, 6
5, 3
4, 4
3, 1
5, 5
4, 2
2, 8
1, 1
7, 2
1, 3
3, 2
2, 2
3, 6
4, 3
3, 5
8, 1
5, 3
1, 0
2, 5
3, 3
4, 5
5, 1
5, 6
3, 0
0, 6
1, 3
5, 6
4, 3
2, 4
4, 0
3, 6
1, 3
2, 6
0, 2
2, 3
4, 2
2, 6
3, 1
0, 5
0, 3
2, 0
4, 0
5, 5
1, 2
3, 3
4, 3
1, 3
0, 1
3, 2
5, 3
1, 5
2, 2
1, 5
2, 2
3, 2
0, 2
1, 3
1, 2
3, 4
2, 2
3, 1
1, 3
1, 5
2, 4
5, 1
2, 4
1, 0
0, 1
3, 5
1, 3
3, 3
2, 3
2, 4
0, 4
2, 4
0, 2
3, 1
1, 0
2, 0
1, 2
1, 5
0, 4
3, 1
1, 1
4, 2
2, 5
0, 2
2, 3
0, 5
2, 1
3, 1
1, 3
2, 1
3, 3
3, 2
1, 1
2, 6
0, 3
3, 7
3, 1
3, 4
3, 2
3, 1
3, 1
4, 2
1, 3
3, 2
2, 2
2, 2
2, 2
0, 1
0, 3
2, 4
0, 1
0, 2
1, 1
1, 2
1, 1
4, 2
0, 3
1, 4
2, 2
3, 1
1, 0
1, 0
3, 2
3, 1
2, 5
4, 2
1, 3
0, 3
4, 2
0, 1
0, 1
1, 1
0, 1
1, 1
2, 3
0, 3
1, 0
0, 1
0, 4
0, 0
3, 2
0, 2
3, 1
1, 1
0, 1
2, 2
1, 4
1, 3
1, 0
1, 0
1, 4
0, 1
1, 0
2, 1
0, 2
0, 0
1, 0
0, 3
1, 2
1, 0
0, 2
0, 1
0, 3
1, 0
3, 1
3, 0
0, 0
0, 0
1, 0
1, 1
1, 3
4, 0
0, 1
0, 1
0, 3
1, 0
0, 0
0, 1
0, 0
1, 0
0, 1
0, 0
0, 0
1, 1
2, 2
1, 0
0, 0
3, 0
0, 0
2, 0
1, 2
0, 1
2, 0
0, 0
0, 0
0, 0
0, 1
0, 2
0, 0
0, 1
0, 0
1, 1
1, 0
0, 0
0, 1
0, 1
0, 1
0, 0
1, 1
0, 0
1, 0
0, 1
1, 0
0, 0
0, 0
0, 1
0, 0
0, 1
0, 0
0, 1
0, 0
0, 2
0, 0
0, 0
0, 0
1, 1
1, 2
0, 1
0, 1
2, 0
0, 0
0, 0
0, 0
0, 0
0, 0
0, 0
0, 0
0, 1
1, 0
0, 1
0, 0
0, 0
0, 0
0, 0
1, 0
0, 0
2, 1
0, 1
0, 0
0, 0
2, 0
0, 0
1, 1
1, 0
0, 2
0, 0
0, 1
0, 1
0, 0
0, 0
0, 0
1, 0
1, 0
0, 1
1, 0
0, 1
0, 0
0, 0
1, 0
0, 0
0, 0
0, 0
0, 0
0, 1
0, 1
1, 0
0, 0
0, 0
0, 1
1, 0
0, 2
0, 0
1, 0
0, 0
0, 1
0, 0
0, 1
0, 1
0, 0
1, 0
0, 0
1, 0
0, 0
0, 0
1, 0
0, 0
1, 0
0, 1
0, 0
0, 0
1, 2
0, 0
1, 0
0, 0
0, 1
0, 0
0, 1
2, 0
1, 0
0, 0
0, 0
0, 0
1, 0
0, 0
0, 1
0, 1
0, 0
1, 0
0, 1
0, 0
2, 0
0, 0
0, 1
0, 0
2, 0
0, 1
2, 0
0, 0
0, 0
0, 0
0, 1
0, 0
1, 0
1, 0
0, 2
0, 0
0, 0
0, 0
1, 0
0, 1
0, 0
0, 1
0, 1
0, 0
0, 0
0, 1
1, 0
0, 0
0, 0
1, 0
0, 0
0, 0
0, 1
0, 0
0, 1
0, 0
0, 1
1, 1
0, 0
0, 0
0, 0
0, 1
0, 0
0, 0
0, 0
0, 0
1, 1
0, 1
0, 0
0, 1
0, 0
0, 1
0, 0
0, 0
1, 0
0, 0
0, 0
0, 0
1, 2
0, 1
0, 0
0, 0
1, 0
0, 0
0, 0
0, 0
0, 0
0, 1
1, 0
0, 0
0, 0
0, 0
0, 0
0, 0
0, 0
0, 0
0, 0
0, 0
0, 0
0, 0
0, 0
0, 0
0, 0
0, 0
0, 0
0, 1
0, 0
1, 0
0, 0
1, 1
0, 0
0, 0
0, 0
0, 0
0, 0
0, 0
0, 0
0, 0
0, 0
0, 1
1, 0
0, 0
0, 0
0, 0
0, 0
0, 0
0, 0
0, 0
0, 0
0, 1
0, 0
0, 0
0, 0
0, 0
0, 0
0, 0
0, 0
0, 0
0, 0
0, 0
0, 0
1, 0
0, 0
0, 0
0, 0
0, 0
1, 0
0, 0
0, 0
0, 0
0, 0
0, 0
0, 0
0, 0
0, 0
0, 0
0, 0
0, 0
1, 0
0, 0
0, 0
0, 0
0, 0
0, 0
0, 0
0, 0
0, 0
0, 0
0, 0
0, 1
0, 0
0, 0
0, 0
0, 0
0, 0
0, 0
0, 0
0, 0
0, 0
0, 0
0, 0
0, 0
0, 0
0, 0
0, 0
0, 0
0, 0
0, 0
0, 0
0, 0
0, 0
0, 0
0, 0
0, 0
0, 0
0, 0
0, 0
0, 0
0, 0
0, 0
0, 0
0, 0
0, 1
0, 0
0, 0
0, 0
0, 0
0, 0
0, 0
0, 0
2, 0
0, 0
0, 0
0, 0
0, 0
0, 0
0, 0
0, 0
0, 0
0, 0
0, 0
1, 0
0, 0
0, 1
0, 0
0, 0
0, 0
0, 0
0, 0
0, 0
0, 0
0, 0
0, 0
0, 0
0, 0
0, 0
0, 0
0, 0
0, 0
0, 0
0, 0
0, 0
0, 0
0, 0
0, 0
0, 0
0, 0
0, 0
0, 0
0, 0
0, 0
0, 0
0, 0
0, 0
0, 0
0, 0
0, 0
0, 0
0, 0
0, 0
0, 0
0, 0
0, 0
0, 0
0, 0
0, 0
0, 0
0, 0
0, 0
0, 0
0, 0
0, 0
0, 0
0, 0
0, 0
0, 0
0, 0
0, 0
0, 0
0, 0
0, 0
0, 0
0, 0
0, 0
0, 0
0, 0
0, 0
0, 0
0, 0
0, 0
0, 0
0, 0
0, 0
0, 0
0, 0
0, 0
1, 0
0, 0
0, 0
0, 0
0, 0
0, 0
0, 0
0, 0
0, 0
0, 0
0, 0
0, 0
0, 0
0, 0
0, 0
0, 0
0, 0
0, 0
0, 0
0, 0
0, 0
0, 0
0, 0
0, 0
0, 0
0, 0
0, 0
0, 0
0, 0
0, 0
0, 0
0, 0
0, 0
0, 0
0, 0
0, 0
0, 0
0, 0
0, 0
0, 0
0, 0
0, 0
0, 0
0, 0
0, 0
0, 0
0, 0
0, 0
0, 0
0, 0
0, 0
0, 0
0, 0
0, 0
0, 0
0, 0
0, 0
0, 0
0, 0
0, 0
0, 0
0, 0
0, 0
0, 0
0, 0
0, 0
0, 0
0, 0
0, 0
0, 0
0, 0
0, 0
0, 0
0, 0
0, 0
0, 0
0, 0
0, 0
0, 0
0, 0
0, 0
0, 0
0, 0
0, 0
0, 0
0, 0
0, 0
0, 0
0, 0
0, 0
0, 0
0, 0
0, 0
0, 0
0, 0
0, 0
0, 0
0, 0
0, 0
0, 0
0, 0
0, 0
0, 0
0, 0
0, 0
0, 0
0, 0
0, 0
0, 0
0, 0
0, 0
0, 0
0, 0
0, 0
0, 0
0, 0
0, 0
0, 0
0, 0
0, 0
0, 0
0, 0
0, 0
0, 0
0, 0
0, 0
0, 0
0, 0
0, 0
0, 0
0, 0
0, 0
0, 0
0, 0
0, 0
0, 0
0, 0
0, 0
0, 0
0, 0
0, 0
0, 0
0, 0
0, 0
0, 0
0, 0
0, 0
0, 0
0, 0
0, 0
0, 0
0, 0
0, 0
0, 0
0, 0
0, 0
0, 0
0, 0
0, 0
0, 0
0, 0
0, 0
0, 0
0, 0
0, 0
0, 0
0, 0
0, 0
0, 0
0, 0
0, 0
0, 0
0, 0
0, 0
0, 0
0, 0
0, 0
0, 0
0, 0
0, 0
0, 0
0, 0
0, 0
0, 0
0, 0
0, 0
0, 0
0, 0
0, 0
0, 0
0, 0
0, 0
0, 0
0, 0
0, 0
0, 0
0, 0
0, 0
0, 0
0, 0
0, 0
0, 0
0, 0
0, 0
0, 0
0, 0
0, 0
0, 0
0, 0
0, 0
0, 0
0, 0
0, 0
0, 0
0, 0
0, 0
0, 0
0, 0
0, 0
0, 0
0, 0
0, 0
0, 0
0, 0
0, 0
0, 0
0, 0
0, 0
0, 0
0, 0
0, 0
0, 0
0, 0
0, 0
0, 0
0, 0
0, 0
0, 0
0, 0
0, 0
0, 0
0, 0
0, 0
0, 0
0, 0
0, 0
0, 0
0, 0
0, 0
0, 0
0, 0
0, 0
0, 0
0, 0
0, 0
0, 0
0, 0
0, 0
0, 0
0, 0
0, 0
0, 0
0, 0
0, 0
0, 0
0, 0
0, 0
0, 0
0, 0
0, 0
0, 0
0, 0
0, 0
0, 0
0, 0
0, 0
0, 0
0, 0
0, 0
0, 0
0, 0
0, 0
0, 0
0, 0
0, 0
0, 0
0, 0
0, 0
0, 0
0, 0
0, 0
0, 0
0, 0
0, 0
0, 0
0, 0
0, 0
0, 0
0, 0
0, 0
0, 0
0, 0
0, 0
0, 0
0, 0
0, 0
0, 0
0, 0
0, 0
0, 0
0, 0
0, 0
0, 0
0, 0
0, 0
0, 0
0, 0
0, 0
0, 0
0, 0
0, 0
0, 0
0, 0
0, 0
#ENDOFDATA     end of spectrum data