File: host_upload/02-11-2024/rqc/uplink1/ps__0567_0717304816_000rfs_shot_4.msa
#FORMAT      : EMSA/MAS spectral data file
#VERSION     : TC202v2.0 PIXL
#TITLE       : Novarupta (sol567) subset1
#DATE        : 02-11-2024      Date in the format DD-MMM-YYYY, for example 07-JUL-2010
#TIME        :             The time of day at which the spectrum was recorded, in 24-hour format
#OWNER       : PIXL Flight Model       (PIXL will use this to indicate which instrument took the data.)
#NPOINTS     : 4096     Number of data points in the spectrum (This can be zero for configuration only files)
#NCOLUMNS    : 2     Number of data columns in the spectrum (This can be zero for configuration only files)
#XUNITS      : eV
#YUNITS      : COUNTS
#DATATYPE    : YY
#XPERCHAN    : 7.862, 7.881   eV per channel (separate by commas if more than one detector)
#OFFSET      : 18.5, -22.4         eV of first channel  (separate by commas if more than one detector
#SIGNALTYPE  : XRF
#YP_TEMP     : -4.404
#LIVETIME    : 8.84217, 8.82982   seconds (separate by commas if more than one detector)
#REALTIME    : 10, 10.0   seconds (separate by commas if more than one detector)
#SPECTRUM    : start of spectrum data
0, 0
0, 0
0, 0
0, 0
0, 0
0, 0
0, 0
0, 0
0, 0
0, 0
0, 0
0, 0
0, 0
0, 0
0, 0
0, 0
0, 0
0, 0
0, 0
0, 0
0, 0
0, 0
0, 0
0, 0
0, 0
0, 0
0, 0
0, 0
0, 0
0, 0
0, 0
0, 0
0, 0
0, 1
2, 1
3, 3
3, 0
1, 3
4, 3
6, 4
1, 6
5, 3
7, 5
3, 3
1, 5
2, 7
1, 1
4, 4
6, 3
7, 3
4, 10
11, 11
15, 16
17, 27
16, 12
16, 18
16, 14
6, 13
16, 18
16, 17
23, 18
21, 27
39, 42
48, 40
51, 61
37, 28
33, 32
48, 35
71, 47
89, 103
174, 169
233, 237
312, 293
427, 411
488, 447
452, 427
378, 361
313, 299
213, 184
141, 112
71, 88
55, 36
38, 33
41, 34
28, 27
36, 35
43, 27
31, 26
17, 24
29, 12
32, 15
25, 34
48, 49
66, 91
104, 117
218, 208
270, 245
301, 336
321, 318
296, 289
254, 251
198, 190
169, 133
94, 94
76, 69
89, 64
75, 62
91, 83
112, 143
174, 168
158, 203
208, 185
213, 208
194, 215
171, 157
150, 131
116, 102
116, 109
96, 88
74, 73
74, 72
69, 73
66, 59
54, 55
35, 30
31, 37
30, 21
27, 22
20, 12
7, 8
11, 9
11, 4
7, 8
11, 3
11, 7
13, 12
14, 16
12, 18
19, 33
33, 17
22, 17
19, 28
26, 31
24, 19
15, 19
14, 9
11, 11
15, 9
15, 7
31, 27
66, 58
83, 98
138, 150
224, 204
304, 257
372, 308
352, 329
343, 342
301, 306
243, 224
200, 154
129, 103
81, 63
36, 46
36, 22
28, 40
32, 40
40, 48
64, 42
55, 45
64, 56
47, 44
43, 39
35, 38
36, 19
17, 19
12, 17
15, 6
15, 10
9, 10
9, 4
10, 15
12, 9
12, 12
12, 17
18, 14
39, 26
32, 38
50, 48
57, 43
55, 61
54, 61
54, 55
51, 61
46, 31
33, 27
28, 25
29, 20
15, 15
22, 18
15, 12
5, 13
14, 15
16, 14
18, 7
14, 11
14, 14
15, 12
20, 17
19, 27
20, 16
23, 11
21, 15
22, 16
14, 17
12, 7
10, 13
13, 9
4, 19
13, 8
7, 13
11, 14
11, 15
14, 15
18, 18
15, 28
31, 25
30, 29
36, 34
36, 32
26, 28
26, 18
21, 25
14, 21
17, 20
17, 13
10, 12
11, 10
7, 10
15, 13
10, 13
10, 14
12, 12
21, 13
19, 27
23, 27
26, 25
37, 36
42, 49
56, 40
38, 48
37, 41
41, 35
33, 27
19, 27
23, 27
25, 23
16, 21
20, 19
29, 24
47, 43
57, 66
118, 147
197, 229
324, 341
514, 568
779, 819
1032, 1145
1292, 1404
1572, 1640
1602, 1744
1654, 1584
1599, 1452
1260, 1134
1076, 855
734, 658
465, 394
309, 245
183, 168
101, 92
58, 50
36, 32
24, 21
13, 11
15, 22
17, 12
18, 13
26, 28
30, 18
28, 26
36, 42
64, 73
83, 81
106, 114
152, 159
188, 222
205, 218
214, 281
255, 248
237, 220
214, 210
190, 165
126, 143
89, 92
64, 58
39, 42
34, 30
16, 14
8, 9
5, 8
6, 5
8, 11
11, 15
15, 20
16, 16
10, 14
10, 9
9, 9
11, 16
10, 8
11, 9
10, 3
8, 6
7, 6
9, 5
7, 5
9, 5
10, 6
9, 8
6, 4
5, 7
6, 6
10, 7
4, 5
7, 8
5, 5
8, 6
6, 3
6, 6
6, 5
8, 7
4, 8
9, 7
7, 12
5, 9
2, 3
8, 5
8, 5
5, 5
7, 8
11, 9
6, 10
4, 6
5, 5
5, 6
9, 10
3, 4
5, 4
6, 4
7, 5
8, 6
7, 6
12, 10
11, 13
8, 8
14, 23
7, 14
9, 9
5, 8
9, 13
8, 5
6, 5
7, 4
11, 5
5, 5
4, 4
4, 4
4, 10
6, 4
7, 6
3, 7
6, 8
4, 2
2, 6
6, 6
2, 4
1, 5
5, 6
6, 3
7, 3
3, 9
4, 6
6, 8
1, 6
5, 4
5, 3
2, 0
3, 2
10, 4
6, 5
7, 3
3, 5
11, 8
7, 5
4, 12
8, 6
3, 6
5, 2
3, 4
4, 6
4, 4
5, 6
4, 2
8, 5
3, 4
2, 8
2, 5
2, 5
5, 5
4, 5
3, 7
5, 4
2, 6
5, 3
2, 6
2, 4
2, 3
5, 1
6, 2
6, 7
3, 3
0, 3
7, 4
5, 3
4, 3
6, 5
6, 2
5, 3
6, 6
2, 3
5, 1
2, 4
4, 10
1, 4
2, 5
6, 3
2, 1
4, 3
3, 2
3, 1
3, 4
4, 3
4, 4
2, 2
0, 0
3, 3
3, 5
3, 1
5, 1
5, 2
5, 3
3, 2
2, 1
4, 1
4, 3
4, 3
0, 1
4, 1
1, 6
9, 6
4, 2
5, 4
2, 3
8, 1
2, 3
3, 1
8, 5
2, 1
3, 0
2, 3
6, 3
4, 4
2, 1
3, 3
6, 1
0, 3
1, 4
3, 3
1, 2
6, 2
3, 3
1, 0
2, 3
3, 1
4, 3
6, 3
2, 0
1, 3
2, 2
0, 3
3, 3
2, 3
4, 0
2, 3
1, 0
2, 2
2, 3
3, 4
3, 2
0, 2
3, 2
1, 3
2, 3
5, 2
1, 6
1, 1
1, 2
3, 0
2, 4
1, 3
0, 2
1, 4
3, 1
2, 5
1, 2
3, 3
3, 1
2, 1
3, 2
2, 0
3, 2
0, 2
1, 3
3, 4
3, 3
4, 1
3, 2
7, 4
1, 1
5, 4
1, 3
1, 3
2, 0
6, 2
2, 2
3, 1
2, 2
3, 2
2, 1
1, 0
4, 1
0, 3
1, 2
2, 0
1, 1
3, 0
3, 2
0, 3
3, 5
2, 2
2, 2
2, 2
3, 0
0, 0
2, 1
3, 0
1, 1
3, 1
2, 1
2, 3
0, 1
0, 1
0, 1
1, 2
0, 2
0, 2
2, 2
1, 2
1, 1
1, 4
1, 1
2, 0
0, 0
3, 3
1, 0
3, 1
1, 2
0, 1
1, 2
0, 2
0, 1
0, 1
2, 2
1, 0
2, 0
1, 2
1, 0
1, 0
2, 0
0, 2
1, 0
1, 2
1, 0
0, 1
2, 1
2, 0
0, 3
2, 2
0, 0
1, 0
1, 1
4, 0
0, 1
1, 4
0, 0
0, 0
1, 0
0, 1
1, 1
0, 1
0, 0
1, 1
3, 0
0, 0
0, 1
1, 1
0, 2
2, 0
0, 1
1, 0
0, 0
0, 0
2, 0
2, 0
1, 0
0, 1
2, 0
0, 0
0, 2
1, 1
0, 1
1, 0
0, 0
1, 2
1, 1
0, 1
0, 2
0, 0
0, 0
0, 1
0, 2
0, 0
1, 1
0, 1
1, 1
1, 0
2, 0
2, 2
0, 0
0, 0
0, 0
0, 0
1, 0
0, 3
0, 1
0, 0
0, 0
1, 0
1, 0
0, 0
0, 0
0, 1
0, 0
1, 0
1, 0
1, 0
1, 0
0, 0
2, 0
0, 0
0, 0
2, 1
0, 0
0, 0
1, 0
0, 0
0, 0
1, 0
0, 0
0, 0
0, 0
0, 1
0, 0
0, 0
1, 0
1, 0
0, 1
0, 0
1, 0
1, 1
0, 0
0, 0
0, 0
0, 0
0, 0
0, 0
0, 0
0, 0
0, 0
1, 0
0, 0
1, 0
0, 0
0, 0
0, 2
2, 0
0, 0
0, 0
1, 0
0, 0
1, 1
1, 0
0, 0
0, 0
0, 1
0, 0
0, 0
0, 0
0, 0
0, 0
0, 0
0, 0
0, 1
0, 0
0, 0
0, 0
0, 1
1, 0
0, 1
0, 0
0, 0
0, 0
0, 0
0, 1
0, 0
0, 0
0, 0
0, 0
0, 1
0, 0
0, 0
0, 0
0, 0
1, 0
0, 0
0, 0
0, 0
0, 0
0, 0
0, 0
0, 0
0, 0
0, 0
1, 1
1, 0
0, 0
0, 1
0, 0
0, 0
0, 0
0, 0
0, 0
0, 0
0, 1
0, 0
0, 0
0, 1
0, 1
0, 0
1, 0
0, 0
0, 0
0, 0
0, 0
0, 1
0, 0
1, 0
0, 0
0, 0
0, 0
0, 0
1, 1
0, 0
0, 0
0, 2
0, 0
0, 0
0, 0
1, 0
0, 0
0, 0
0, 1
0, 0
0, 0
0, 1
0, 0
0, 1
0, 0
0, 1
1, 0
0, 0
1, 1
0, 0
0, 1
0, 0
0, 0
0, 0
0, 0
1, 0
1, 0
0, 0
0, 0
0, 0
0, 0
0, 0
0, 0
0, 0
0, 0
0, 1
0, 0
0, 0
0, 0
1, 0
0, 0
1, 0
0, 0
0, 0
0, 0
0, 0
0, 0
0, 0
1, 0
0, 0
0, 0
0, 0
0, 0
0, 0
0, 0
0, 0
0, 0
1, 1
0, 0
0, 1
0, 0
0, 0
0, 0
0, 0
0, 0
0, 0
0, 0
1, 0
0, 0
2, 0
0, 0
0, 1
0, 0
1, 0
0, 1
0, 0
0, 0
0, 1
0, 0
0, 0
0, 0
0, 0
0, 0
0, 0
0, 0
0, 0
0, 0
0, 0
0, 0
0, 0
0, 0
0, 0
0, 0
0, 0
0, 0
0, 0
0, 0
1, 0
0, 0
0, 0
0, 0
0, 0
0, 0
0, 0
0, 0
0, 0
0, 0
0, 0
1, 0
1, 0
0, 0
0, 0
0, 0
0, 0
0, 0
0, 0
0, 0
0, 0
0, 0
0, 0
0, 0
0, 0
0, 0
0, 0
0, 0
0, 0
0, 0
0, 0
0, 1
0, 0
0, 0
0, 0
0, 0
0, 0
0, 0
0, 0
0, 0
0, 0
0, 0
1, 0
0, 0
0, 0
0, 0
0, 0
0, 0
0, 0
0, 0
0, 0
0, 0
0, 0
0, 0
0, 1
0, 0
0, 0
0, 0
0, 0
0, 0
0, 0
0, 0
0, 0
0, 0
0, 0
0, 0
0, 0
0, 0
0, 0
0, 0
0, 0
0, 0
0, 0
0, 0
0, 0
0, 0
0, 0
0, 0
0, 0
0, 0
0, 0
0, 0
0, 0
0, 0
0, 0
0, 1
0, 0
0, 0
0, 0
0, 0
0, 0
0, 0
0, 0
0, 0
0, 0
0, 0
0, 0
0, 0
0, 0
0, 0
0, 0
0, 0
0, 0
0, 0
0, 0
0, 0
0, 1
0, 0
0, 0
0, 0
0, 0
0, 0
0, 0
0, 0
0, 0
0, 0
0, 0
0, 0
0, 0
0, 0
0, 0
0, 0
0, 0
0, 0
0, 0
0, 0
0, 0
0, 0
0, 0
0, 0
0, 0
0, 0
0, 0
0, 0
0, 0
0, 0
0, 0
0, 0
0, 0
0, 0
0, 0
0, 0
0, 0
0, 0
0, 0
0, 0
0, 1
0, 0
0, 0
0, 0
0, 0
0, 0
0, 0
0, 0
0, 0
0, 0
0, 0
0, 0
0, 0
0, 0
0, 0
0, 0
0, 0
0, 0
0, 0
0, 0
0, 0
0, 0
0, 0
0, 0
0, 0
0, 0
0, 0
0, 0
0, 0
0, 0
0, 0
0, 0
0, 0
0, 0
0, 0
0, 0
0, 0
0, 0
0, 0
0, 0
0, 0
0, 0
0, 0
0, 0
0, 0
0, 0
0, 0
0, 0
0, 0
0, 0
0, 0
0, 0
0, 0
0, 0
0, 0
0, 0
0, 0
0, 0
0, 0
0, 0
0, 0
0, 0
0, 0
0, 0
0, 0
0, 0
0, 0
0, 0
0, 0
0, 0
0, 0
0, 0
0, 0
0, 0
0, 0
0, 0
0, 0
0, 0
0, 0
0, 0
0, 0
0, 0
0, 0
0, 0
0, 0
0, 0
0, 0
0, 0
0, 0
0, 0
0, 0
0, 0
0, 0
0, 0
0, 0
0, 0
0, 0
0, 0
0, 0
0, 0
0, 0
0, 0
0, 0
0, 0
0, 0
0, 0
0, 0
0, 0
0, 0
0, 0
0, 0
0, 0
0, 0
0, 0
0, 0
0, 0
0, 0
0, 0
0, 0
0, 0
0, 0
0, 0
0, 0
0, 0
0, 0
0, 0
0, 0
0, 0
0, 0
0, 0
0, 0
0, 0
0, 0
0, 0
0, 0
0, 0
0, 0
0, 0
0, 0
0, 0
0, 0
0, 0
0, 0
0, 0
0, 0
0, 0
0, 0
0, 0
0, 0
0, 0
0, 0
0, 0
0, 0
0, 0
0, 0
0, 0
0, 0
0, 0
0, 0
0, 0
0, 0
0, 0
0, 0
0, 0
0, 0
0, 0
0, 0
0, 0
0, 0
0, 0
0, 0
0, 0
0, 0
0, 0
0, 0
0, 0
0, 0
0, 0
0, 0
0, 0
0, 0
0, 0
0, 0
0, 0
0, 0
0, 0
0, 0
0, 0
0, 0
0, 0
0, 0
0, 0
0, 0
0, 0
0, 0
0, 0
0, 0
0, 0
0, 0
0, 0
0, 0
0, 0
0, 0
0, 0
0, 0
0, 0
0, 0
0, 0
0, 0
0, 0
0, 0
0, 0
0, 0
0, 0
0, 0
0, 0
0, 0
0, 0
0, 0
0, 0
0, 0
0, 0
0, 0
0, 0
0, 0
0, 0
0, 0
0, 0
0, 0
0, 0
0, 0
0, 0
0, 0
0, 0
0, 0
0, 0
0, 0
0, 0
0, 0
0, 0
0, 0
0, 0
0, 0
0, 0
0, 0
0, 0
0, 0
0, 0
0, 0
0, 0
0, 0
0, 0
0, 0
0, 0
0, 0
0, 0
0, 0
0, 0
0, 0
0, 0
0, 0
0, 0
0, 0
0, 0
0, 0
0, 0
0, 0
0, 0
0, 0
0, 0
0, 0
0, 0
0, 0
0, 0
0, 0
0, 0
0, 0
0, 0
0, 0
0, 0
0, 0
0, 0
0, 0
0, 0
0, 0
0, 0
0, 0
0, 0
0, 0
0, 0
0, 0
0, 0
0, 0
0, 0
0, 0
0, 0
0, 0
0, 0
0, 0
0, 0
0, 0
0, 0
0, 0
0, 0
0, 0
0, 0
0, 0
0, 0
0, 0
0, 0
0, 0
0, 0
0, 0
0, 0
0, 0
0, 0
0, 0
0, 0
0, 0
0, 0
0, 0
0, 0
0, 0
0, 0
0, 0
0, 0
0, 0
0, 0
0, 0
0, 0
#ENDOFDATA     end of spectrum data