File: host_upload/02-11-2024/rqc/uplink1/ps__0567_0717304816_000rfs_shot_378.msa
#FORMAT      : EMSA/MAS spectral data file
#VERSION     : TC202v2.0 PIXL
#TITLE       : Novarupta (sol567) subset1
#DATE        : 02-11-2024      Date in the format DD-MMM-YYYY, for example 07-JUL-2010
#TIME        :             The time of day at which the spectrum was recorded, in 24-hour format
#OWNER       : PIXL Flight Model       (PIXL will use this to indicate which instrument took the data.)
#NPOINTS     : 4096     Number of data points in the spectrum (This can be zero for configuration only files)
#NCOLUMNS    : 2     Number of data columns in the spectrum (This can be zero for configuration only files)
#XUNITS      : eV
#YUNITS      : COUNTS
#DATATYPE    : YY
#XPERCHAN    : 7.862, 7.881   eV per channel (separate by commas if more than one detector)
#OFFSET      : 18.5, -22.4         eV of first channel  (separate by commas if more than one detector
#SIGNALTYPE  : XRF
#YP_TEMP     : 1.658
#LIVETIME    : 8.8238, 8.79429   seconds (separate by commas if more than one detector)
#REALTIME    : 10, 10.0   seconds (separate by commas if more than one detector)
#SPECTRUM    : start of spectrum data
0, 0
0, 0
0, 0
0, 0
0, 0
0, 0
0, 0
0, 0
0, 0
0, 0
0, 0
0, 0
0, 0
0, 0
0, 0
0, 0
0, 0
0, 0
0, 0
0, 0
0, 0
0, 0
0, 0
0, 0
0, 0
0, 0
0, 0
0, 0
0, 0
0, 0
1, 0
0, 0
0, 0
0, 0
1, 1
1, 0
0, 3
1, 1
4, 2
4, 3
1, 3
0, 3
2, 2
4, 5
4, 3
2, 2
3, 1
1, 1
7, 2
6, 7
6, 6
8, 14
10, 16
11, 18
19, 10
13, 17
16, 9
12, 12
7, 15
7, 11
18, 21
36, 36
30, 35
27, 56
42, 46
46, 56
42, 37
33, 35
30, 40
47, 79
107, 123
181, 243
269, 369
369, 485
462, 531
489, 541
423, 503
314, 383
255, 245
155, 140
85, 91
45, 42
33, 39
29, 21
27, 33
29, 45
31, 34
25, 44
38, 39
17, 28
16, 19
23, 21
19, 29
56, 52
60, 91
137, 134
184, 200
239, 292
285, 329
308, 346
247, 283
204, 205
152, 164
97, 104
72, 86
56, 52
52, 54
84, 85
58, 127
122, 147
168, 188
209, 215
210, 238
223, 256
228, 222
170, 176
132, 151
115, 101
68, 106
69, 85
75, 86
75, 87
56, 63
56, 55
37, 63
47, 46
29, 32
24, 17
15, 34
22, 19
8, 9
7, 9
12, 6
6, 5
9, 6
9, 8
5, 8
13, 13
16, 18
17, 30
29, 28
32, 23
20, 28
29, 27
11, 23
20, 20
6, 15
8, 8
15, 10
17, 11
22, 40
49, 58
74, 110
130, 168
174, 255
300, 373
320, 414
390, 458
339, 419
283, 369
220, 288
151, 173
102, 116
52, 79
48, 43
14, 28
24, 21
33, 33
30, 42
50, 51
67, 64
71, 68
41, 68
44, 46
42, 29
23, 34
27, 22
13, 14
12, 12
14, 7
7, 8
10, 10
9, 5
12, 8
9, 9
14, 15
19, 21
19, 31
39, 39
42, 43
57, 47
58, 60
62, 69
57, 71
49, 62
45, 48
42, 42
19, 26
21, 18
23, 16
24, 23
14, 22
13, 20
7, 15
15, 14
11, 20
8, 24
13, 22
20, 12
12, 23
20, 18
13, 26
15, 24
17, 16
8, 12
9, 13
17, 5
6, 15
8, 16
16, 11
17, 14
6, 16
8, 17
14, 17
12, 14
16, 20
15, 30
19, 36
19, 40
28, 39
29, 34
33, 46
29, 33
26, 33
18, 25
8, 24
14, 14
14, 19
10, 17
12, 11
14, 17
9, 15
15, 14
20, 15
11, 21
20, 22
25, 26
16, 47
40, 45
31, 45
48, 60
57, 50
46, 59
50, 36
44, 46
36, 36
29, 27
25, 20
15, 20
18, 19
21, 21
28, 28
31, 42
67, 105
116, 176
211, 296
352, 512
593, 832
812, 1152
1134, 1471
1419, 1817
1593, 1992
1728, 1984
1695, 1891
1509, 1590
1203, 1271
899, 867
622, 562
375, 343
228, 196
114, 128
75, 70
44, 33
21, 19
21, 30
18, 17
12, 18
17, 19
13, 19
20, 23
26, 24
19, 41
43, 63
47, 75
86, 99
91, 151
143, 179
221, 264
259, 271
253, 286
282, 324
235, 252
217, 250
151, 182
129, 153
89, 81
63, 53
49, 45
23, 15
17, 21
9, 8
11, 13
11, 3
6, 12
7, 20
9, 19
11, 14
13, 17
11, 15
10, 16
9, 17
6, 11
11, 12
8, 6
5, 7
12, 8
7, 5
5, 9
8, 6
9, 7
8, 10
8, 9
7, 12
4, 7
6, 6
7, 4
6, 3
5, 5
6, 6
9, 7
4, 7
4, 13
3, 10
7, 13
7, 6
6, 10
4, 11
6, 8
6, 7
7, 9
4, 11
6, 7
6, 4
2, 8
10, 9
3, 9
8, 3
7, 9
6, 5
7, 8
11, 10
6, 4
6, 5
10, 14
11, 12
9, 9
15, 10
13, 19
9, 21
11, 15
4, 11
21, 10
10, 3
7, 7
6, 7
2, 7
6, 4
3, 5
5, 11
7, 2
4, 11
3, 12
5, 4
5, 3
6, 10
2, 1
6, 6
5, 8
7, 7
8, 10
5, 2
6, 7
9, 5
8, 10
4, 4
4, 1
8, 8
4, 9
4, 4
7, 10
2, 5
2, 4
6, 8
9, 4
7, 7
4, 7
6, 5
7, 10
7, 3
3, 5
6, 6
6, 4
2, 4
2, 4
7, 9
7, 4
6, 5
7, 4
8, 5
3, 7
3, 6
3, 6
2, 5
1, 1
4, 5
2, 6
5, 7
3, 3
9, 5
1, 2
5, 7
3, 7
2, 3
8, 4
0, 3
5, 4
4, 6
2, 4
1, 5
2, 4
4, 6
3, 5
1, 6
5, 5
1, 3
2, 4
3, 4
3, 0
2, 1
4, 3
1, 4
7, 4
6, 0
4, 4
1, 6
4, 6
2, 5
4, 4
3, 3
3, 5
5, 6
5, 2
1, 6
5, 5
6, 3
2, 4
5, 4
4, 3
2, 2
4, 2
3, 2
4, 4
4, 2
4, 3
3, 3
3, 4
4, 2
4, 4
4, 4
1, 5
2, 4
1, 3
0, 0
1, 1
3, 0
2, 5
1, 3
2, 2
2, 6
1, 2
3, 0
2, 3
4, 2
1, 3
4, 2
3, 2
5, 2
5, 2
1, 3
0, 2
2, 1
4, 4
2, 4
4, 1
1, 3
3, 3
5, 1
3, 3
2, 4
3, 5
2, 1
5, 5
3, 3
3, 4
1, 4
1, 1
1, 4
2, 1
1, 1
4, 3
2, 2
1, 7
1, 2
1, 6
2, 5
3, 3
0, 2
5, 3
2, 2
5, 3
0, 1
1, 1
1, 2
1, 3
1, 2
1, 5
2, 2
3, 2
5, 1
6, 4
5, 3
2, 3
1, 1
4, 3
5, 3
6, 4
0, 2
2, 5
1, 3
3, 0
1, 1
4, 3
1, 3
1, 2
1, 2
5, 5
2, 1
4, 3
1, 5
1, 4
1, 2
3, 0
1, 0
0, 1
3, 2
2, 2
5, 4
2, 0
0, 1
2, 1
0, 3
2, 3
0, 1
1, 1
0, 2
1, 2
2, 0
4, 0
2, 1
1, 1
1, 0
0, 0
2, 1
1, 3
1, 1
1, 1
2, 1
0, 2
1, 0
0, 3
0, 1
1, 0
1, 2
1, 2
2, 3
1, 3
2, 3
1, 1
0, 1
1, 0
1, 1
0, 4
0, 3
0, 1
0, 2
1, 0
2, 1
0, 1
0, 0
0, 1
0, 3
1, 0
1, 1
0, 1
0, 0
0, 0
0, 1
4, 2
0, 1
1, 0
0, 1
1, 0
0, 2
0, 1
0, 1
2, 1
0, 2
0, 3
0, 2
2, 2
0, 2
0, 0
1, 0
0, 2
2, 2
0, 4
1, 1
1, 1
0, 2
1, 0
1, 1
1, 2
0, 0
0, 2
0, 1
0, 1
0, 0
1, 0
1, 1
2, 0
0, 0
1, 0
1, 1
0, 0
2, 1
0, 2
0, 0
0, 1
1, 1
0, 2
0, 0
0, 1
0, 0
0, 0
0, 1
1, 0
0, 0
0, 0
1, 1
2, 0
1, 1
1, 0
0, 1
0, 2
0, 0
1, 2
0, 0
0, 2
2, 1
0, 0
1, 0
0, 0
0, 0
0, 2
0, 1
0, 0
1, 1
2, 2
1, 0
0, 1
0, 0
2, 1
0, 0
1, 2
0, 1
0, 1
0, 1
0, 0
0, 1
0, 0
0, 0
0, 0
0, 0
0, 0
0, 0
0, 0
0, 0
2, 0
0, 0
0, 0
0, 1
0, 0
2, 1
0, 0
0, 1
1, 0
0, 0
0, 1
0, 1
0, 0
1, 0
0, 1
0, 1
0, 0
1, 1
0, 3
0, 1
0, 0
0, 0
1, 0
0, 0
1, 0
1, 0
0, 0
0, 0
0, 0
0, 0
1, 0
0, 1
0, 0
0, 0
0, 1
0, 1
1, 0
1, 1
1, 1
0, 0
0, 0
0, 0
0, 1
0, 0
0, 1
0, 0
0, 0
1, 0
0, 0
0, 0
0, 0
1, 0
1, 0
0, 0
0, 0
0, 0
0, 0
0, 0
0, 0
0, 0
0, 1
0, 1
1, 1
0, 0
0, 1
0, 0
0, 2
0, 0
0, 0
0, 1
0, 0
2, 0
0, 0
1, 0
0, 0
0, 1
0, 1
0, 1
0, 0
0, 1
0, 1
0, 0
0, 0
0, 0
1, 0
0, 0
0, 0
1, 0
1, 0
0, 0
0, 0
1, 0
0, 0
0, 1
2, 1
0, 0
0, 0
0, 0
0, 0
1, 1
0, 0
0, 0
0, 0
0, 0
0, 0
0, 0
1, 0
0, 0
0, 0
1, 0
1, 0
0, 1
0, 0
1, 0
0, 0
0, 2
0, 0
0, 0
0, 0
0, 0
0, 0
0, 0
0, 0
0, 0
0, 0
0, 0
0, 0
0, 0
0, 0
1, 0
0, 0
0, 0
1, 0
0, 0
0, 0
0, 0
0, 0
1, 0
0, 1
0, 0
0, 0
0, 1
1, 0
0, 0
0, 0
0, 0
0, 0
1, 0
1, 0
0, 0
0, 0
0, 0
0, 0
0, 0
0, 0
0, 0
0, 0
0, 0
0, 0
0, 0
0, 0
0, 0
0, 0
0, 0
0, 0
1, 0
0, 0
0, 0
0, 0
1, 0
0, 0
0, 0
0, 0
0, 0
0, 0
0, 0
1, 0
1, 0
0, 0
1, 1
0, 1
0, 1
0, 0
0, 0
1, 0
0, 0
0, 0
0, 0
0, 0
0, 0
0, 0
0, 0
0, 0
0, 0
0, 1
0, 0
0, 0
0, 0
0, 0
0, 0
0, 0
0, 0
0, 0
0, 0
0, 0
0, 0
0, 0
0, 0
0, 0
0, 0
0, 0
0, 0
0, 0
1, 0
0, 0
0, 1
0, 0
0, 0
0, 0
0, 1
0, 0
0, 1
0, 0
0, 0
0, 0
0, 0
0, 0
0, 0
0, 0
0, 0
0, 0
0, 0
0, 0
0, 0
0, 0
0, 0
0, 0
0, 0
0, 0
0, 0
0, 0
0, 0
0, 0
0, 0
0, 0
0, 0
0, 1
0, 0
0, 0
0, 0
0, 0
0, 0
0, 0
0, 0
0, 0
0, 0
0, 0
0, 0
0, 0
0, 0
0, 0
0, 0
0, 0
0, 0
0, 0
0, 0
0, 0
0, 0
0, 0
0, 0
0, 0
0, 0
0, 0
0, 0
0, 0
0, 0
0, 0
0, 0
0, 0
0, 0
0, 0
0, 0
0, 0
0, 0
0, 0
0, 0
0, 0
0, 0
0, 0
0, 0
0, 0
0, 0
0, 0
0, 0
0, 0
0, 0
0, 0
0, 0
0, 0
0, 0
0, 0
0, 0
0, 0
0, 0
0, 0
0, 0
0, 0
0, 0
0, 0
0, 0
0, 0
0, 0
0, 0
0, 0
0, 0
0, 0
0, 0
0, 0
0, 0
0, 0
0, 0
0, 0
0, 0
0, 0
0, 1
0, 0
0, 0
0, 0
0, 0
0, 0
0, 0
0, 0
0, 0
0, 0
0, 0
0, 0
0, 0
0, 0
0, 0
0, 0
0, 0
0, 0
0, 0
0, 0
0, 0
0, 0
0, 0
0, 0
0, 0
0, 0
0, 0
0, 0
0, 0
0, 0
0, 0
0, 0
0, 0
0, 0
0, 0
0, 0
0, 0
0, 0
0, 0
0, 0
0, 0
0, 0
0, 0
0, 0
0, 0
0, 0
0, 0
0, 0
0, 0
0, 0
0, 0
0, 0
0, 0
0, 0
0, 0
0, 0
0, 0
0, 0
0, 0
0, 0
0, 0
0, 0
0, 0
0, 0
0, 0
0, 0
0, 0
0, 0
0, 0
0, 0
0, 0
0, 0
0, 0
0, 0
0, 0
0, 0
0, 0
0, 0
0, 0
0, 0
0, 0
0, 0
0, 0
0, 0
0, 0
0, 0
0, 0
0, 0
0, 0
0, 0
0, 0
0, 0
0, 0
0, 0
0, 0
0, 0
0, 0
0, 0
0, 0
0, 0
0, 0
0, 0
0, 0
0, 0
0, 0
0, 0
0, 0
0, 0
0, 0
0, 0
0, 0
0, 0
0, 0
0, 0
0, 0
0, 0
0, 0
0, 0
0, 0
0, 0
0, 0
0, 0
0, 0
0, 0
0, 0
0, 0
0, 0
0, 0
0, 0
0, 0
0, 0
0, 0
0, 0
0, 0
0, 0
0, 0
0, 0
0, 0
0, 0
0, 0
0, 0
0, 0
0, 0
0, 0
0, 0
0, 0
0, 0
0, 0
0, 0
0, 0
0, 0
0, 0
0, 0
0, 0
0, 0
0, 0
0, 0
0, 0
0, 0
0, 0
0, 0
0, 0
0, 0
0, 0
0, 0
0, 0
0, 0
0, 0
0, 0
0, 0
0, 0
0, 0
0, 0
0, 0
0, 0
0, 0
0, 0
0, 0
0, 0
0, 0
0, 0
0, 0
0, 0
0, 0
0, 0
0, 0
0, 0
0, 0
0, 0
0, 0
0, 0
0, 0
0, 0
0, 0
0, 0
0, 0
0, 0
0, 0
0, 0
0, 0
0, 0
0, 0
0, 0
0, 0
0, 0
0, 0
0, 0
0, 0
0, 0
0, 0
0, 0
0, 0
0, 0
0, 0
0, 0
0, 0
0, 0
0, 0
0, 0
0, 0
0, 0
0, 0
0, 0
0, 0
0, 0
0, 0
0, 0
0, 0
0, 0
0, 0
0, 0
0, 0
0, 0
0, 0
0, 0
0, 0
0, 0
0, 0
0, 0
0, 0
0, 0
0, 0
0, 0
0, 0
0, 0
0, 0
0, 0
0, 0
0, 0
0, 0
0, 0
0, 0
0, 0
0, 0
0, 0
0, 0
0, 0
0, 0
0, 0
0, 0
0, 0
0, 0
0, 0
0, 0
0, 0
0, 0
0, 0
0, 0
0, 0
0, 0
0, 0
0, 0
0, 0
0, 0
0, 0
0, 0
0, 0
0, 0
0, 0
0, 0
0, 0
0, 0
0, 0
0, 0
0, 0
0, 0
0, 0
0, 0
0, 0
0, 0
0, 0
0, 0
0, 0
0, 0
0, 0
0, 0
0, 0
0, 0
0, 0
0, 0
0, 0
0, 0
0, 0
0, 0
0, 0
0, 0
0, 0
0, 0
0, 0
0, 0
0, 0
0, 0
0, 0
0, 0
0, 0
0, 0
0, 0
0, 0
0, 0
0, 0
0, 0
0, 0
0, 0
0, 0
0, 0
0, 0
0, 0
0, 0
0, 0
0, 0
0, 0
0, 0
0, 0
0, 0
0, 0
#ENDOFDATA     end of spectrum data