File: host_upload/02-11-2024/rqc/uplink1/ps__0567_0717304816_000rfs_shot_11.msa
#FORMAT      : EMSA/MAS spectral data file
#VERSION     : TC202v2.0 PIXL
#TITLE       : Novarupta (sol567) subset1
#DATE        : 02-11-2024      Date in the format DD-MMM-YYYY, for example 07-JUL-2010
#TIME        :             The time of day at which the spectrum was recorded, in 24-hour format
#OWNER       : PIXL Flight Model       (PIXL will use this to indicate which instrument took the data.)
#NPOINTS     : 4096     Number of data points in the spectrum (This can be zero for configuration only files)
#NCOLUMNS    : 2     Number of data columns in the spectrum (This can be zero for configuration only files)
#XUNITS      : eV
#YUNITS      : COUNTS
#DATATYPE    : YY
#XPERCHAN    : 7.862, 7.881   eV per channel (separate by commas if more than one detector)
#OFFSET      : 18.5, -22.4         eV of first channel  (separate by commas if more than one detector
#SIGNALTYPE  : XRF
#YP_TEMP     : -4.404
#LIVETIME    : 8.84501, 8.82805   seconds (separate by commas if more than one detector)
#REALTIME    : 10, 10.0   seconds (separate by commas if more than one detector)
#SPECTRUM    : start of spectrum data
0, 0
0, 0
0, 0
0, 0
0, 0
0, 0
0, 0
0, 0
0, 0
0, 0
0, 0
0, 0
0, 0
0, 0
0, 0
0, 0
0, 0
0, 0
0, 0
0, 0
0, 0
0, 0
0, 0
0, 0
0, 0
0, 0
0, 0
0, 0
0, 0
0, 0
0, 0
0, 0
0, 1
3, 1
0, 1
2, 1
3, 2
2, 6
3, 4
4, 3
2, 3
5, 6
2, 1
3, 4
3, 1
7, 4
6, 2
1, 7
7, 2
6, 9
5, 3
14, 13
16, 14
17, 17
15, 17
12, 23
11, 14
7, 18
11, 8
12, 17
13, 17
22, 38
43, 35
39, 52
30, 46
49, 48
43, 40
36, 40
48, 58
79, 86
158, 183
248, 268
306, 361
424, 467
419, 498
424, 508
371, 373
273, 294
174, 213
125, 107
83, 69
47, 53
32, 40
24, 31
31, 45
24, 31
26, 39
29, 44
20, 42
16, 30
19, 16
22, 22
38, 49
66, 89
95, 106
164, 174
185, 210
253, 292
282, 273
263, 300
228, 219
166, 180
123, 138
102, 94
67, 79
61, 51
56, 66
79, 103
109, 107
129, 139
173, 183
198, 215
185, 203
191, 226
183, 174
145, 110
117, 108
108, 86
72, 75
69, 93
71, 80
54, 71
48, 67
41, 59
31, 38
36, 44
21, 27
21, 21
10, 14
11, 9
11, 13
11, 6
6, 2
3, 9
8, 13
8, 9
13, 18
20, 21
17, 24
26, 26
21, 30
22, 29
23, 24
20, 23
18, 21
23, 18
13, 9
13, 14
21, 19
30, 30
38, 62
81, 89
99, 151
192, 222
245, 298
268, 331
288, 363
347, 340
237, 336
222, 237
188, 167
131, 136
73, 70
43, 45
38, 31
27, 35
34, 39
33, 42
38, 47
53, 54
57, 62
53, 37
42, 53
28, 51
27, 23
31, 23
19, 17
9, 8
9, 6
10, 9
7, 4
12, 9
12, 8
8, 6
16, 12
20, 22
16, 23
31, 26
26, 38
41, 50
48, 66
54, 53
48, 59
63, 54
41, 54
32, 42
30, 43
18, 24
22, 26
12, 19
21, 15
17, 19
11, 15
17, 11
11, 17
16, 16
14, 26
15, 19
15, 30
16, 21
14, 19
19, 21
13, 20
10, 16
4, 5
11, 11
12, 9
7, 11
14, 13
5, 12
16, 12
14, 8
8, 16
20, 17
17, 25
16, 19
20, 24
20, 47
28, 26
31, 29
31, 19
29, 27
18, 22
24, 22
11, 16
15, 18
16, 10
7, 15
13, 6
14, 13
13, 8
12, 15
17, 20
17, 14
25, 30
23, 18
41, 23
41, 46
53, 56
59, 59
43, 44
40, 53
31, 40
22, 44
20, 30
22, 19
18, 17
6, 15
19, 25
15, 21
34, 33
65, 71
103, 101
154, 191
288, 349
475, 596
620, 867
994, 1092
1168, 1419
1402, 1658
1550, 1759
1624, 1728
1466, 1582
1277, 1341
970, 1081
751, 726
473, 504
326, 284
192, 178
122, 97
58, 45
50, 28
23, 32
12, 14
21, 23
13, 15
12, 18
14, 19
19, 25
27, 29
41, 53
44, 57
61, 65
116, 113
118, 153
165, 245
206, 256
222, 271
293, 261
246, 253
200, 242
185, 211
149, 141
106, 94
82, 61
50, 53
24, 29
20, 25
20, 14
10, 9
8, 8
11, 12
9, 16
13, 13
15, 13
14, 13
22, 16
10, 8
7, 11
10, 9
10, 7
8, 10
8, 9
7, 7
10, 7
3, 6
5, 5
7, 5
6, 0
2, 8
7, 7
4, 6
8, 8
7, 3
9, 6
3, 4
5, 6
10, 5
9, 10
12, 7
7, 4
5, 9
10, 2
6, 6
11, 10
10, 6
3, 10
7, 6
4, 3
12, 9
5, 5
7, 5
6, 6
6, 6
2, 11
3, 7
9, 8
5, 6
4, 6
6, 9
7, 13
7, 14
5, 7
4, 11
12, 9
4, 13
11, 9
5, 8
9, 15
10, 7
8, 9
13, 11
6, 6
5, 8
5, 5
4, 2
5, 5
8, 7
5, 7
8, 5
6, 2
7, 3
3, 4
7, 5
6, 4
8, 5
5, 5
4, 4
3, 5
6, 5
5, 2
5, 3
4, 2
5, 8
3, 7
1, 6
3, 6
9, 2
4, 7
3, 7
4, 5
4, 9
5, 1
7, 4
4, 11
3, 7
6, 4
1, 1
1, 6
5, 3
3, 5
3, 4
6, 5
1, 4
1, 4
3, 10
2, 4
4, 5
4, 5
5, 3
6, 2
4, 10
4, 6
5, 4
4, 7
6, 1
1, 2
5, 3
1, 3
3, 7
7, 5
7, 6
3, 3
4, 6
3, 2
2, 1
3, 1
3, 2
4, 2
4, 4
5, 2
4, 5
1, 6
2, 4
1, 3
5, 7
1, 2
5, 2
1, 4
3, 6
2, 8
3, 2
4, 4
1, 2
2, 4
2, 3
5, 0
4, 2
3, 2
4, 5
2, 3
1, 3
1, 5
4, 2
1, 4
2, 4
6, 1
2, 3
5, 4
4, 4
3, 3
2, 3
4, 2
5, 1
2, 0
3, 1
2, 4
5, 6
3, 4
1, 6
1, 3
1, 1
6, 4
4, 6
3, 3
2, 2
1, 1
0, 1
5, 2
3, 3
2, 6
3, 1
3, 2
3, 1
2, 2
3, 1
3, 2
1, 1
3, 2
1, 4
2, 1
1, 4
1, 2
2, 2
3, 5
1, 2
3, 6
2, 2
2, 2
1, 4
0, 4
2, 1
2, 2
1, 5
1, 3
1, 3
1, 3
4, 0
0, 2
1, 1
1, 3
4, 1
2, 3
3, 1
2, 0
1, 2
5, 2
3, 3
1, 2
1, 4
3, 1
1, 2
0, 0
2, 4
4, 3
0, 4
6, 2
0, 4
2, 1
1, 0
0, 1
1, 2
4, 3
1, 5
1, 2
1, 1
0, 1
3, 6
1, 1
1, 2
2, 1
2, 3
0, 2
1, 1
3, 2
0, 2
1, 2
0, 0
5, 4
3, 1
1, 3
3, 1
2, 5
2, 2
2, 4
0, 0
4, 2
0, 3
2, 1
2, 2
1, 2
1, 1
1, 1
2, 2
3, 0
2, 1
2, 0
1, 1
1, 4
0, 1
2, 1
2, 1
2, 0
1, 1
1, 1
2, 1
1, 3
0, 1
1, 2
2, 0
0, 2
3, 1
2, 1
2, 2
1, 0
1, 5
0, 1
1, 1
1, 1
1, 0
3, 0
2, 1
0, 3
0, 0
0, 0
1, 0
1, 1
1, 0
1, 3
0, 1
2, 1
0, 0
0, 1
1, 1
0, 2
0, 0
2, 0
0, 0
1, 0
1, 0
2, 1
1, 2
0, 0
0, 1
1, 1
1, 2
3, 1
0, 2
1, 2
1, 0
0, 0
1, 0
0, 1
0, 1
2, 1
0, 1
0, 1
2, 0
0, 1
1, 0
0, 1
0, 1
1, 0
1, 0
1, 0
0, 0
0, 0
0, 0
1, 1
0, 0
1, 1
0, 0
1, 2
0, 1
0, 0
2, 0
0, 1
2, 0
0, 0
2, 1
0, 1
2, 0
0, 1
1, 0
1, 0
2, 1
0, 2
1, 1
1, 0
0, 0
1, 0
1, 0
0, 0
0, 1
0, 1
1, 0
0, 1
0, 0
0, 2
1, 3
2, 3
1, 2
0, 1
3, 0
1, 0
0, 0
0, 0
0, 0
0, 0
1, 1
0, 0
1, 0
0, 0
0, 1
0, 3
1, 0
0, 0
2, 0
1, 0
1, 0
0, 0
0, 0
0, 0
2, 0
0, 1
1, 0
0, 0
0, 1
0, 0
1, 1
0, 0
1, 1
0, 0
1, 0
0, 0
0, 0
0, 0
0, 0
2, 1
1, 1
0, 0
0, 0
0, 0
0, 0
0, 0
0, 0
0, 0
0, 0
0, 0
0, 1
0, 1
0, 1
0, 0
1, 0
0, 0
0, 0
0, 0
0, 1
1, 1
0, 0
0, 0
0, 0
0, 0
0, 0
0, 0
0, 0
1, 0
0, 0
0, 0
2, 0
0, 0
0, 0
0, 0
0, 0
0, 1
0, 0
1, 0
2, 1
1, 0
1, 2
0, 0
1, 0
0, 1
0, 0
0, 0
0, 0
0, 0
0, 0
0, 0
0, 0
1, 0
0, 0
0, 0
0, 0
0, 0
0, 0
0, 0
1, 0
0, 1
0, 0
0, 0
0, 0
0, 0
0, 0
0, 0
0, 1
1, 2
0, 0
0, 0
0, 0
0, 1
0, 0
1, 0
2, 2
1, 0
1, 0
0, 0
0, 0
1, 0
0, 0
0, 0
0, 0
0, 0
0, 0
2, 0
0, 1
0, 1
0, 0
0, 0
0, 0
0, 0
0, 0
0, 1
0, 0
0, 0
0, 1
0, 0
0, 1
0, 0
0, 0
0, 0
0, 0
0, 0
0, 1
0, 0
0, 0
0, 1
0, 0
0, 0
0, 0
0, 0
1, 0
1, 0
0, 0
1, 0
0, 0
0, 0
0, 0
0, 0
0, 0
0, 0
0, 0
0, 0
0, 0
0, 0
0, 0
0, 0
0, 0
0, 0
0, 1
0, 0
0, 0
1, 0
0, 0
0, 0
0, 1
1, 0
1, 0
0, 0
0, 0
0, 0
0, 0
0, 0
0, 0
0, 0
0, 0
0, 0
0, 0
0, 0
0, 0
0, 0
0, 0
0, 0
0, 0
0, 0
0, 0
0, 0
0, 0
0, 0
0, 0
0, 0
0, 0
0, 0
0, 0
0, 0
0, 0
0, 0
0, 0
0, 0
0, 0
0, 0
1, 1
0, 0
0, 1
0, 0
0, 0
0, 0
0, 0
0, 0
0, 0
0, 0
0, 0
0, 0
0, 0
0, 0
0, 0
0, 0
0, 0
1, 0
0, 0
1, 0
0, 0
0, 0
0, 0
0, 0
0, 0
0, 0
0, 0
0, 0
0, 0
0, 0
0, 0
0, 0
0, 0
0, 0
0, 0
1, 0
0, 0
0, 0
1, 0
0, 0
0, 0
0, 0
0, 0
1, 0
0, 0
0, 0
0, 0
0, 0
0, 0
0, 0
0, 0
0, 0
0, 0
0, 0
0, 0
0, 0
0, 0
0, 0
0, 1
0, 0
0, 0
0, 0
0, 0
0, 0
0, 0
0, 0
0, 0
0, 0
0, 0
0, 0
0, 0
0, 0
0, 0
0, 0
0, 0
0, 0
0, 0
0, 0
0, 0
0, 0
0, 0
0, 0
0, 0
0, 0
0, 0
0, 0
0, 0
0, 0
0, 0
0, 0
0, 0
0, 0
0, 0
0, 0
0, 0
0, 0
0, 0
0, 0
0, 0
0, 0
0, 0
0, 0
0, 0
0, 0
0, 0
0, 0
0, 0
0, 0
0, 0
0, 0
0, 0
0, 0
0, 0
0, 0
0, 0
0, 0
0, 0
0, 0
0, 0
0, 0
0, 0
0, 0
0, 0
0, 0
0, 0
0, 0
0, 0
0, 0
0, 0
0, 0
0, 0
0, 0
0, 0
0, 0
0, 0
0, 0
0, 0
0, 0
0, 0
0, 0
0, 0
0, 0
0, 0
0, 0
0, 0
0, 0
0, 0
0, 0
0, 0
0, 0
0, 0
0, 0
0, 0
0, 0
0, 0
0, 0
0, 0
0, 0
0, 0
0, 0
0, 0
0, 0
0, 0
0, 0
0, 0
0, 0
0, 0
0, 0
0, 0
0, 0
0, 0
0, 0
0, 0
0, 0
0, 0
0, 0
0, 0
0, 0
0, 0
0, 0
0, 0
0, 0
0, 0
0, 0
0, 0
0, 0
0, 0
0, 0
0, 0
0, 0
0, 0
0, 0
0, 0
0, 0
0, 0
0, 0
0, 0
0, 0
0, 0
0, 0
0, 0
0, 0
0, 0
0, 0
0, 0
0, 0
0, 0
0, 0
0, 0
0, 0
0, 0
0, 0
0, 0
0, 0
0, 0
0, 0
0, 0
0, 0
0, 0
0, 0
0, 0
0, 0
0, 0
0, 0
0, 0
0, 0
0, 0
0, 0
0, 0
0, 0
0, 0
0, 0
0, 0
0, 0
0, 0
0, 0
0, 0
0, 0
0, 0
0, 0
0, 0
0, 0
0, 0
0, 0
0, 0
0, 0
0, 0
0, 0
0, 0
0, 0
0, 0
0, 0
0, 0
0, 0
0, 0
0, 0
0, 0
0, 0
0, 0
0, 0
0, 0
0, 0
0, 0
0, 0
0, 0
0, 0
0, 0
0, 0
0, 0
0, 0
0, 0
0, 0
0, 0
0, 0
0, 0
0, 0
0, 0
0, 0
0, 0
0, 0
0, 0
0, 0
0, 0
0, 0
0, 0
0, 0
0, 0
0, 0
0, 0
0, 0
0, 0
0, 0
0, 0
0, 0
0, 0
0, 0
0, 0
0, 0
0, 0
0, 0
0, 0
0, 0
0, 0
0, 0
0, 0
0, 0
0, 0
0, 0
0, 0
0, 0
0, 0
0, 0
0, 0
0, 0
0, 0
0, 0
0, 0
0, 0
0, 0
0, 0
0, 0
0, 0
0, 0
0, 0
0, 0
0, 0
0, 0
0, 0
0, 0
0, 0
0, 0
0, 0
0, 0
0, 0
0, 0
0, 0
0, 0
0, 0
0, 0
0, 0
0, 0
0, 0
0, 0
0, 0
0, 0
0, 0
0, 0
0, 0
0, 0
0, 0
0, 0
0, 0
0, 0
0, 0
0, 0
0, 0
0, 0
0, 0
0, 0
0, 0
0, 0
0, 0
0, 0
0, 0
0, 0
0, 0
0, 0
0, 0
0, 0
0, 0
0, 0
0, 0
0, 0
0, 0
0, 0
0, 0
0, 0
0, 0
0, 0
0, 0
0, 0
0, 0
0, 0
0, 0
0, 0
0, 0
0, 0
0, 0
0, 0
0, 0
0, 0
0, 0
0, 0
0, 0
0, 0
0, 0
0, 0
0, 0
0, 0
0, 0
0, 0
0, 0
0, 0
0, 0
0, 0
0, 0
0, 0
0, 0
0, 0
0, 0
0, 0
0, 0
0, 0
0, 0
0, 0
0, 0
0, 0
0, 0
0, 0
0, 0
0, 0
0, 0
0, 0
0, 0
0, 0
0, 0
0, 0
0, 0
0, 0
0, 0
0, 0
0, 0
0, 0
0, 0
0, 0
0, 0
0, 0
0, 0
0, 0
0, 0
0, 0
0, 0
0, 0
0, 0
0, 0
0, 0
0, 0
0, 0
0, 0
0, 0
0, 0
0, 0
0, 0
0, 0
0, 0
0, 0
0, 0
0, 0
0, 0
0, 0
0, 0
0, 0
0, 0
0, 0
0, 0
0, 0
0, 0
0, 0
0, 0
0, 0
0, 0
0, 0
0, 0
0, 0
0, 0
#ENDOFDATA     end of spectrum data