File: host_upload/02-11-2024/rqc/uplink1/ps__0567_0717304816_000rfs_shot_97.msa
#FORMAT      : EMSA/MAS spectral data file
#VERSION     : TC202v2.0 PIXL
#TITLE       : Novarupta (sol567) subset1
#DATE        : 02-11-2024      Date in the format DD-MMM-YYYY, for example 07-JUL-2010
#TIME        :             The time of day at which the spectrum was recorded, in 24-hour format
#OWNER       : PIXL Flight Model       (PIXL will use this to indicate which instrument took the data.)
#NPOINTS     : 4096     Number of data points in the spectrum (This can be zero for configuration only files)
#NCOLUMNS    : 2     Number of data columns in the spectrum (This can be zero for configuration only files)
#XUNITS      : eV
#YUNITS      : COUNTS
#DATATYPE    : YY
#XPERCHAN    : 7.862, 7.881   eV per channel (separate by commas if more than one detector)
#OFFSET      : 18.5, -22.4         eV of first channel  (separate by commas if more than one detector
#SIGNALTYPE  : XRF
#YP_TEMP     : -0.94
#LIVETIME    : 8.84149, 8.6419   seconds (separate by commas if more than one detector)
#REALTIME    : 10, 10.0   seconds (separate by commas if more than one detector)
#SPECTRUM    : start of spectrum data
0, 0
0, 0
0, 0
0, 0
0, 0
0, 0
0, 0
0, 0
0, 0
0, 0
0, 0
0, 0
0, 0
0, 0
0, 0
0, 0
0, 0
0, 0
0, 0
0, 0
0, 0
0, 0
0, 0
0, 0
0, 0
0, 0
0, 0
0, 0
0, 0
0, 0
0, 0
0, 0
0, 2
1, 0
2, 0
0, 2
2, 2
2, 2
4, 3
2, 4
1, 8
1, 1
5, 2
5, 5
2, 0
3, 4
1, 3
4, 3
2, 6
6, 4
6, 7
5, 5
10, 9
11, 10
15, 9
12, 13
7, 13
5, 15
12, 7
9, 13
15, 14
19, 36
34, 29
41, 37
49, 62
42, 52
33, 43
37, 33
46, 45
65, 66
91, 129
190, 218
280, 323
391, 455
455, 513
443, 490
414, 411
328, 326
218, 228
114, 148
78, 80
46, 45
26, 42
31, 35
21, 32
35, 28
27, 29
26, 31
29, 27
18, 30
18, 16
15, 18
24, 31
56, 48
86, 86
143, 170
199, 231
277, 294
287, 321
284, 284
275, 277
226, 228
133, 155
99, 101
57, 63
57, 58
55, 61
68, 61
92, 99
107, 160
173, 156
170, 215
231, 201
191, 217
153, 178
141, 176
132, 132
102, 108
91, 103
78, 73
77, 64
70, 72
65, 83
45, 54
48, 44
30, 28
19, 30
14, 29
18, 18
14, 12
10, 13
6, 7
5, 10
7, 3
4, 8
13, 9
12, 7
13, 17
24, 24
14, 27
22, 31
22, 24
31, 31
19, 17
14, 21
16, 13
14, 13
8, 12
9, 19
17, 23
27, 34
50, 71
101, 115
172, 171
230, 234
303, 309
349, 341
345, 392
366, 344
283, 295
260, 237
136, 152
92, 91
51, 58
37, 38
26, 29
27, 34
32, 41
41, 44
56, 51
46, 52
44, 60
44, 61
42, 42
32, 47
21, 19
11, 19
15, 23
8, 4
11, 13
5, 7
9, 11
19, 8
12, 12
10, 15
8, 14
16, 15
20, 30
36, 38
42, 49
45, 65
56, 60
66, 68
67, 70
46, 53
43, 42
25, 44
34, 31
14, 28
14, 19
15, 21
14, 12
17, 15
9, 6
11, 12
6, 12
25, 17
14, 16
19, 16
20, 19
21, 17
15, 23
24, 9
17, 12
9, 12
10, 11
11, 6
10, 11
7, 11
11, 6
9, 9
9, 11
16, 14
9, 11
13, 15
13, 18
21, 30
24, 20
28, 24
31, 31
28, 22
30, 25
21, 22
21, 33
15, 27
18, 13
11, 13
10, 8
14, 21
11, 9
8, 13
10, 14
12, 10
13, 18
15, 24
15, 20
25, 39
29, 48
36, 48
40, 59
46, 41
44, 45
51, 42
49, 39
39, 37
22, 24
19, 34
22, 24
13, 19
11, 18
31, 17
33, 35
53, 54
74, 109
133, 172
267, 313
413, 565
604, 772
880, 1100
1192, 1420
1483, 1624
1568, 1768
1603, 1865
1522, 1646
1282, 1276
1029, 948
760, 682
506, 451
312, 261
194, 157
104, 71
44, 51
37, 25
13, 19
12, 12
25, 14
14, 24
14, 12
22, 22
14, 19
22, 25
36, 31
59, 59
76, 98
90, 115
121, 140
180, 197
187, 246
226, 235
232, 286
253, 258
242, 229
194, 198
130, 160
125, 106
77, 75
53, 58
16, 19
18, 18
10, 12
13, 6
5, 6
12, 5
8, 10
20, 8
11, 21
10, 12
10, 12
10, 8
16, 8
19, 7
13, 9
11, 8
3, 5
10, 9
4, 5
5, 5
6, 5
10, 6
5, 5
5, 4
7, 12
5, 10
4, 5
4, 3
9, 11
5, 8
6, 10
6, 7
6, 6
7, 4
5, 6
11, 5
4, 5
7, 6
4, 4
7, 3
5, 10
7, 5
5, 7
4, 7
7, 5
10, 8
6, 6
4, 6
3, 5
11, 10
6, 5
7, 4
4, 7
15, 11
7, 3
4, 8
11, 6
8, 12
8, 13
7, 11
8, 13
11, 13
5, 9
8, 7
16, 7
2, 8
6, 5
8, 7
8, 5
5, 9
7, 4
4, 5
3, 7
7, 6
1, 3
3, 10
7, 9
4, 5
5, 7
6, 5
7, 2
4, 5
4, 3
2, 8
4, 5
4, 6
12, 10
6, 8
3, 10
2, 3
4, 4
6, 4
5, 12
4, 8
3, 7
5, 8
5, 7
9, 7
3, 6
10, 5
7, 6
4, 2
6, 8
6, 7
2, 4
4, 6
3, 4
3, 5
2, 6
8, 5
3, 6
4, 3
6, 2
4, 4
2, 3
0, 5
3, 3
3, 6
6, 8
5, 4
4, 3
3, 6
6, 2
4, 7
6, 3
3, 3
2, 8
6, 3
7, 2
2, 4
0, 3
2, 4
3, 5
2, 1
2, 6
1, 2
3, 4
2, 5
2, 4
2, 6
3, 11
2, 1
3, 8
8, 2
4, 3
3, 5
1, 7
2, 3
3, 7
3, 7
3, 5
4, 4
4, 4
4, 5
3, 3
5, 2
2, 4
1, 6
4, 2
4, 3
3, 5
2, 4
2, 4
1, 3
4, 2
3, 3
6, 2
3, 5
1, 2
2, 6
4, 2
5, 6
3, 4
2, 2
0, 1
2, 4
2, 3
2, 3
2, 4
0, 3
3, 2
3, 4
3, 4
1, 2
1, 2
4, 0
0, 2
1, 3
0, 2
2, 4
4, 2
1, 4
4, 2
3, 2
1, 1
0, 0
3, 4
0, 0
4, 1
2, 4
2, 2
1, 2
4, 1
0, 3
3, 2
1, 5
3, 1
0, 4
4, 1
4, 1
1, 5
3, 2
1, 2
0, 3
1, 2
2, 3
3, 0
2, 1
1, 1
1, 1
1, 0
4, 2
3, 1
2, 3
2, 0
0, 4
2, 6
2, 3
0, 3
4, 2
4, 1
2, 4
2, 3
1, 1
7, 4
4, 1
4, 1
4, 2
2, 3
3, 0
2, 5
4, 0
0, 1
1, 0
0, 2
1, 2
0, 1
3, 1
1, 2
1, 2
1, 2
2, 3
0, 0
1, 3
3, 0
0, 0
0, 0
1, 2
1, 3
2, 2
1, 3
2, 5
2, 2
1, 1
1, 2
1, 1
1, 1
5, 4
2, 0
1, 1
2, 2
2, 1
5, 1
1, 4
2, 0
2, 1
2, 4
1, 1
3, 0
5, 0
3, 0
1, 0
2, 1
0, 1
1, 2
0, 1
1, 1
0, 0
2, 1
2, 4
0, 0
2, 0
2, 0
1, 2
0, 2
2, 4
2, 1
0, 1
1, 0
1, 1
0, 1
1, 1
3, 1
0, 1
0, 1
0, 1
1, 0
0, 2
1, 1
2, 1
1, 1
1, 0
0, 1
3, 1
2, 1
0, 1
1, 1
1, 1
1, 1
4, 0
1, 0
1, 0
2, 1
1, 0
0, 1
0, 0
1, 1
1, 4
1, 1
2, 0
0, 1
0, 3
0, 1
1, 2
0, 1
2, 0
1, 0
1, 1
0, 1
3, 0
0, 2
0, 0
0, 0
0, 0
0, 0
1, 0
1, 0
0, 0
1, 1
1, 2
0, 1
0, 0
0, 0
0, 1
0, 0
0, 1
0, 0
0, 0
0, 0
1, 1
1, 0
3, 1
0, 1
0, 1
0, 1
0, 1
0, 0
1, 2
1, 2
0, 1
0, 0
1, 2
0, 0
0, 1
2, 0
0, 0
2, 0
0, 0
0, 0
0, 0
1, 0
2, 0
0, 0
1, 0
0, 0
0, 1
1, 0
1, 0
0, 1
1, 0
0, 1
0, 1
1, 1
0, 2
0, 0
2, 0
0, 1
1, 0
1, 0
1, 0
0, 2
0, 0
0, 0
0, 0
0, 0
1, 0
0, 2
0, 4
0, 1
0, 0
0, 0
0, 0
0, 1
0, 0
0, 0
0, 2
0, 0
0, 2
0, 0
0, 1
1, 0
0, 0
0, 0
0, 2
0, 0
1, 0
0, 0
0, 1
1, 0
1, 1
0, 0
1, 0
0, 0
0, 1
0, 0
0, 1
0, 0
0, 0
1, 0
0, 0
0, 0
0, 0
0, 0
1, 0
0, 0
0, 1
0, 0
0, 0
1, 0
1, 0
0, 0
0, 0
0, 0
0, 0
0, 0
0, 0
0, 0
1, 0
1, 0
0, 1
0, 0
0, 0
0, 1
0, 1
0, 0
1, 0
0, 0
0, 0
0, 0
0, 0
0, 0
0, 1
1, 0
0, 0
1, 1
1, 1
0, 1
0, 0
0, 0
0, 0
0, 0
0, 0
0, 0
0, 0
0, 0
0, 0
0, 0
0, 0
0, 1
0, 0
1, 3
0, 0
0, 0
0, 0
0, 1
0, 1
0, 0
0, 0
0, 0
0, 0
0, 0
0, 0
0, 0
0, 0
0, 1
0, 0
0, 0
0, 0
0, 0
0, 0
1, 0
0, 0
0, 0
0, 0
0, 0
0, 0
0, 0
0, 0
0, 0
0, 1
0, 0
0, 1
0, 0
0, 0
0, 0
1, 0
0, 0
0, 0
0, 0
0, 0
0, 0
0, 0
1, 0
0, 1
0, 0
0, 0
0, 0
0, 0
0, 0
0, 2
0, 0
0, 0
0, 0
0, 0
0, 1
0, 0
0, 0
1, 0
0, 0
0, 0
0, 0
0, 0
0, 0
0, 0
0, 0
0, 0
0, 0
0, 1
0, 0
0, 0
0, 0
0, 0
0, 0
0, 0
0, 0
0, 0
0, 0
0, 1
0, 0
1, 0
0, 1
0, 0
0, 0
1, 0
0, 0
0, 0
0, 0
0, 0
0, 0
0, 0
0, 0
0, 0
0, 0
0, 0
0, 0
0, 0
0, 0
0, 0
0, 0
0, 0
0, 0
0, 0
0, 0
0, 0
0, 0
0, 0
0, 0
0, 0
0, 0
0, 0
0, 0
0, 0
0, 0
0, 0
0, 0
0, 0
0, 0
0, 1
0, 0
0, 0
0, 0
0, 0
0, 0
0, 0
0, 0
0, 0
0, 1
1, 0
0, 0
0, 0
0, 0
0, 0
0, 0
0, 0
0, 0
0, 0
0, 0
0, 0
0, 0
0, 0
0, 0
0, 0
0, 0
0, 0
0, 0
0, 0
0, 0
0, 0
0, 0
0, 0
0, 0
0, 0
0, 0
0, 0
0, 0
0, 0
0, 0
0, 0
0, 0
0, 0
0, 0
0, 0
0, 0
0, 0
0, 0
0, 0
0, 0
0, 0
0, 0
0, 0
0, 0
0, 0
0, 0
0, 0
0, 0
0, 0
0, 0
0, 0
0, 0
0, 0
0, 0
0, 0
0, 0
0, 0
0, 0
0, 0
0, 0
0, 0
0, 0
0, 0
0, 0
0, 0
0, 0
0, 0
0, 0
0, 1
0, 0
0, 0
0, 0
0, 0
0, 0
0, 0
0, 0
0, 0
0, 0
0, 0
1, 0
0, 0
0, 0
0, 0
0, 0
0, 0
0, 0
0, 0
0, 0
0, 0
0, 0
0, 0
0, 0
1, 0
0, 0
0, 0
0, 0
0, 0
0, 0
0, 0
0, 0
0, 0
0, 0
0, 0
0, 0
0, 0
0, 0
0, 0
0, 0
0, 0
0, 0
0, 0
0, 0
0, 0
0, 0
0, 0
0, 0
0, 0
0, 0
0, 0
0, 0
0, 0
0, 0
0, 1
0, 0
0, 0
0, 0
0, 0
0, 0
0, 0
0, 0
0, 0
0, 0
0, 0
0, 0
0, 0
0, 0
0, 0
0, 0
0, 0
0, 0
0, 0
0, 0
0, 0
0, 0
0, 0
0, 0
0, 0
0, 0
0, 0
0, 0
0, 0
0, 0
0, 0
0, 0
0, 0
0, 0
0, 0
0, 0
0, 0
0, 0
0, 0
0, 0
0, 0
0, 0
0, 0
0, 0
0, 0
0, 0
0, 0
0, 0
0, 0
0, 0
0, 0
0, 0
0, 0
0, 0
0, 0
0, 0
0, 0
0, 0
0, 0
0, 0
0, 0
0, 0
0, 0
0, 0
0, 0
0, 0
0, 0
0, 0
0, 0
0, 0
0, 0
0, 0
0, 0
0, 0
0, 0
0, 0
0, 0
0, 0
0, 0
0, 0
0, 0
0, 0
0, 0
0, 0
0, 0
0, 0
0, 0
0, 0
0, 0
0, 0
0, 0
0, 0
0, 0
0, 0
0, 0
0, 0
0, 0
0, 0
0, 0
0, 0
0, 0
0, 0
0, 0
0, 0
0, 0
0, 0
0, 0
0, 0
0, 0
0, 0
0, 0
0, 0
0, 0
0, 0
0, 0
0, 0
0, 0
0, 0
0, 0
0, 0
0, 0
0, 0
0, 0
0, 0
0, 0
0, 0
0, 0
0, 0
0, 0
0, 0
0, 0
0, 0
0, 0
0, 0
0, 0
0, 0
0, 0
0, 0
0, 0
0, 0
0, 0
0, 0
0, 0
0, 0
0, 0
0, 0
0, 0
0, 0
0, 0
0, 0
0, 0
0, 0
0, 0
0, 0
0, 0
0, 0
0, 0
0, 0
0, 0
0, 0
0, 0
0, 0
0, 0
0, 0
0, 0
0, 0
0, 0
0, 0
0, 0
0, 0
0, 0
0, 0
0, 0
0, 0
0, 0
0, 0
0, 0
0, 0
0, 0
0, 0
0, 0
0, 0
0, 0
0, 0
0, 0
0, 0
0, 0
0, 0
0, 0
0, 0
0, 0
0, 0
0, 0
0, 0
0, 0
0, 0
0, 0
0, 0
0, 0
0, 0
0, 0
0, 0
0, 0
0, 0
0, 0
0, 0
0, 0
0, 0
0, 0
0, 0
0, 0
0, 0
0, 0
0, 0
0, 0
0, 0
0, 0
0, 0
0, 0
0, 0
0, 0
0, 0
0, 0
0, 0
0, 0
0, 0
0, 0
0, 0
0, 0
0, 0
0, 0
0, 0
0, 0
0, 0
0, 0
0, 0
0, 0
0, 0
0, 0
0, 0
0, 0
0, 0
0, 0
0, 0
0, 0
0, 0
0, 0
0, 0
0, 0
0, 0
0, 0
0, 0
0, 0
0, 0
0, 0
0, 0
0, 0
0, 0
0, 0
0, 0
0, 0
0, 0
0, 0
0, 0
0, 0
0, 0
0, 0
0, 0
0, 0
0, 0
0, 0
0, 0
0, 0
0, 0
0, 0
0, 0
0, 0
0, 0
0, 0
0, 0
0, 0
0, 0
0, 0
0, 0
0, 0
0, 0
0, 0
0, 0
0, 0
0, 0
0, 0
0, 0
0, 0
0, 0
0, 0
0, 0
0, 0
0, 0
0, 0
0, 0
0, 0
0, 0
0, 0
0, 0
0, 0
0, 0
0, 0
0, 0
0, 0
0, 0
0, 0
0, 0
0, 0
0, 0
0, 0
0, 0
0, 0
0, 0
0, 0
0, 0
#ENDOFDATA     end of spectrum data