File: host_upload/02-11-2024/rqc/uplink1/ps__0567_0717304816_000rfs_shot_365.msa
#FORMAT      : EMSA/MAS spectral data file
#VERSION     : TC202v2.0 PIXL
#TITLE       : Novarupta (sol567) subset1
#DATE        : 02-11-2024      Date in the format DD-MMM-YYYY, for example 07-JUL-2010
#TIME        :             The time of day at which the spectrum was recorded, in 24-hour format
#OWNER       : PIXL Flight Model       (PIXL will use this to indicate which instrument took the data.)
#NPOINTS     : 4096     Number of data points in the spectrum (This can be zero for configuration only files)
#NCOLUMNS    : 2     Number of data columns in the spectrum (This can be zero for configuration only files)
#XUNITS      : eV
#YUNITS      : COUNTS
#DATATYPE    : YY
#XPERCHAN    : 7.862, 7.881   eV per channel (separate by commas if more than one detector)
#OFFSET      : 18.5, -22.4         eV of first channel  (separate by commas if more than one detector
#SIGNALTYPE  : XRF
#YP_TEMP     : 1.69
#LIVETIME    : 8.83702, 8.82422   seconds (separate by commas if more than one detector)
#REALTIME    : 10, 10.0   seconds (separate by commas if more than one detector)
#SPECTRUM    : start of spectrum data
0, 0
0, 0
0, 0
0, 0
0, 0
0, 0
0, 0
0, 0
0, 0
0, 0
0, 0
0, 0
0, 0
0, 0
0, 0
0, 0
0, 0
0, 0
0, 0
0, 0
0, 0
0, 0
0, 0
0, 0
0, 0
0, 0
0, 0
0, 0
0, 0
0, 0
0, 1
0, 0
0, 1
0, 0
0, 2
3, 1
4, 2
1, 2
3, 3
3, 4
6, 4
5, 3
2, 4
2, 5
3, 1
2, 4
5, 4
5, 3
3, 8
2, 5
4, 3
8, 12
13, 8
14, 21
17, 26
19, 15
15, 17
14, 8
6, 17
9, 11
25, 16
44, 24
48, 34
55, 64
67, 61
46, 64
48, 44
37, 35
48, 28
59, 67
104, 113
196, 229
277, 370
415, 446
472, 588
477, 529
452, 443
312, 317
213, 244
156, 168
91, 77
55, 53
32, 32
30, 39
20, 37
27, 30
34, 38
22, 35
23, 20
24, 19
12, 14
28, 20
26, 30
33, 41
56, 71
100, 129
185, 197
233, 259
275, 281
284, 289
260, 275
167, 215
129, 141
87, 110
61, 67
54, 54
40, 55
64, 69
80, 100
110, 153
150, 189
182, 229
232, 225
220, 217
162, 208
184, 175
139, 162
100, 95
87, 97
78, 82
59, 75
73, 62
66, 76
59, 61
50, 46
41, 42
34, 22
23, 29
12, 17
18, 12
10, 9
9, 4
6, 7
3, 5
3, 6
5, 11
11, 13
19, 17
13, 27
15, 23
23, 19
21, 27
24, 30
28, 27
13, 15
14, 18
13, 16
8, 8
5, 12
14, 9
21, 28
36, 68
77, 111
144, 195
207, 207
277, 314
355, 378
352, 409
308, 401
307, 303
227, 243
155, 173
103, 104
65, 73
42, 34
24, 33
22, 30
26, 41
43, 49
45, 55
53, 68
50, 70
53, 68
39, 48
24, 43
30, 26
18, 22
13, 12
18, 11
7, 12
9, 7
7, 7
9, 12
10, 21
12, 9
12, 20
25, 15
20, 34
36, 38
33, 47
45, 65
63, 64
65, 60
63, 61
64, 65
48, 48
38, 44
23, 45
19, 40
10, 22
13, 17
14, 19
14, 13
10, 18
17, 15
12, 7
13, 15
16, 19
22, 20
19, 18
22, 31
21, 19
11, 18
18, 10
16, 18
12, 12
10, 9
13, 11
7, 14
11, 18
11, 14
8, 14
15, 9
13, 9
14, 19
16, 17
21, 19
14, 21
30, 37
29, 37
34, 31
22, 21
23, 35
28, 37
22, 14
24, 18
17, 12
12, 13
13, 8
9, 12
4, 18
14, 18
9, 16
10, 14
15, 17
20, 22
28, 30
28, 47
36, 38
37, 52
47, 41
45, 56
41, 51
35, 45
30, 26
21, 22
27, 34
24, 22
19, 28
21, 10
20, 22
25, 29
35, 48
72, 82
116, 147
196, 236
342, 434
562, 726
863, 1058
1119, 1362
1407, 1696
1569, 1807
1691, 1811
1710, 1667
1505, 1440
1142, 1117
852, 799
615, 498
386, 352
233, 179
133, 87
88, 66
32, 29
19, 26
20, 14
19, 17
18, 15
13, 13
22, 18
31, 22
20, 35
27, 29
31, 42
66, 57
62, 93
114, 168
151, 210
203, 250
219, 278
255, 308
251, 275
246, 287
211, 245
188, 186
135, 138
86, 85
64, 54
47, 40
22, 16
13, 14
7, 8
5, 12
4, 10
9, 9
13, 14
12, 18
8, 11
9, 10
18, 13
15, 6
12, 10
7, 8
5, 9
12, 10
10, 7
5, 8
5, 4
6, 7
4, 8
7, 4
7, 3
5, 4
11, 5
11, 10
5, 6
5, 6
2, 5
7, 7
7, 7
5, 3
8, 6
6, 6
6, 7
9, 10
6, 5
7, 4
9, 6
9, 10
12, 6
9, 10
12, 8
8, 11
4, 10
9, 9
6, 6
7, 6
7, 3
5, 5
5, 13
4, 6
5, 5
7, 12
7, 11
8, 13
13, 13
10, 6
14, 12
13, 11
13, 19
10, 17
13, 4
14, 14
11, 3
6, 7
9, 1
7, 6
9, 6
1, 8
2, 1
9, 6
7, 5
6, 6
12, 7
7, 2
4, 8
8, 5
8, 3
7, 7
4, 3
6, 5
1, 2
4, 9
4, 9
2, 9
7, 5
1, 6
2, 6
5, 10
2, 5
2, 4
9, 4
5, 7
5, 7
4, 9
6, 0
6, 3
2, 11
7, 5
4, 6
6, 3
7, 3
4, 7
5, 5
7, 4
6, 2
5, 3
5, 0
4, 4
1, 6
4, 5
3, 4
6, 2
5, 5
3, 4
8, 5
4, 2
7, 4
3, 6
6, 7
5, 4
6, 4
7, 4
5, 5
6, 2
3, 4
5, 1
2, 5
1, 1
0, 8
3, 4
5, 4
4, 5
2, 5
3, 4
2, 3
5, 2
3, 4
1, 5
3, 2
4, 5
0, 2
4, 4
4, 5
5, 5
4, 3
2, 0
3, 6
3, 1
3, 5
4, 3
4, 6
1, 6
2, 3
2, 3
4, 7
2, 2
2, 1
4, 2
1, 3
4, 4
4, 4
2, 4
7, 2
7, 2
4, 2
3, 3
1, 4
5, 3
1, 2
6, 5
0, 0
4, 1
5, 3
3, 3
1, 5
1, 1
2, 1
1, 0
5, 2
3, 1
1, 3
4, 1
2, 3
1, 5
3, 5
0, 3
2, 1
3, 3
1, 2
2, 2
4, 6
4, 3
0, 2
5, 2
1, 1
0, 5
1, 1
1, 0
1, 5
1, 0
5, 4
4, 2
1, 3
2, 2
1, 2
1, 4
0, 4
1, 2
0, 1
7, 2
1, 5
1, 4
3, 3
1, 2
3, 2
3, 2
5, 2
1, 3
1, 5
3, 1
4, 1
2, 0
0, 2
0, 1
0, 0
3, 4
0, 2
2, 5
3, 2
3, 1
2, 4
5, 6
5, 2
4, 4
2, 3
2, 4
4, 1
2, 3
1, 1
1, 3
2, 2
3, 2
3, 4
2, 2
2, 2
1, 1
3, 0
6, 1
2, 2
1, 5
3, 1
0, 0
3, 1
0, 0
1, 2
0, 5
1, 1
0, 2
1, 3
5, 4
1, 1
2, 2
0, 2
2, 3
0, 1
1, 3
1, 3
5, 2
0, 1
0, 2
2, 1
2, 0
0, 0
0, 3
0, 2
0, 1
1, 0
1, 1
1, 0
0, 5
0, 2
0, 1
1, 1
1, 1
1, 0
2, 1
1, 0
2, 1
2, 0
3, 2
0, 1
2, 1
1, 0
0, 1
0, 1
3, 1
0, 0
1, 3
2, 2
0, 0
0, 0
0, 2
1, 1
4, 2
0, 1
1, 2
2, 0
0, 3
0, 1
0, 0
1, 2
1, 1
3, 2
2, 1
1, 3
0, 1
1, 1
1, 0
1, 0
2, 0
0, 1
0, 1
2, 1
1, 0
3, 0
1, 0
0, 1
3, 0
0, 1
0, 2
0, 1
1, 0
1, 0
1, 3
0, 0
1, 1
0, 1
0, 0
2, 0
1, 1
0, 1
1, 2
1, 2
1, 0
3, 0
1, 1
1, 1
0, 0
0, 1
2, 0
2, 0
0, 1
2, 1
1, 0
0, 0
0, 1
0, 1
0, 1
0, 0
0, 2
0, 0
0, 0
0, 2
1, 2
0, 0
0, 0
0, 0
0, 1
1, 0
0, 0
2, 0
1, 0
0, 0
0, 0
0, 0
0, 0
0, 0
0, 0
0, 1
1, 1
0, 2
1, 0
1, 0
0, 0
0, 1
1, 0
0, 0
2, 0
0, 0
2, 1
0, 0
1, 0
0, 0
0, 0
0, 0
0, 0
1, 0
0, 0
0, 0
1, 0
0, 0
0, 0
1, 0
0, 1
1, 1
0, 0
1, 1
0, 0
0, 0
0, 1
0, 0
0, 1
0, 0
0, 1
0, 0
0, 0
0, 0
1, 3
0, 1
0, 0
0, 0
1, 0
0, 1
0, 1
0, 0
0, 2
0, 0
0, 0
0, 0
0, 1
0, 0
0, 0
0, 0
0, 0
0, 0
1, 0
0, 2
0, 0
0, 0
0, 0
0, 1
0, 0
0, 0
0, 1
0, 0
1, 1
1, 2
0, 0
1, 1
0, 0
2, 1
0, 0
0, 0
1, 0
0, 1
1, 1
0, 2
0, 0
2, 1
0, 0
0, 0
0, 1
0, 0
0, 0
0, 1
0, 0
0, 0
0, 0
0, 1
0, 1
0, 1
0, 0
0, 1
0, 0
1, 0
1, 0
0, 0
0, 0
1, 1
0, 1
0, 1
0, 0
0, 0
1, 0
1, 0
0, 0
1, 0
0, 0
0, 0
1, 0
0, 1
0, 0
1, 0
0, 0
1, 0
0, 0
0, 0
0, 0
0, 0
0, 1
0, 0
0, 0
0, 0
0, 0
0, 0
0, 1
0, 0
1, 0
2, 0
1, 1
0, 0
0, 1
0, 1
0, 1
0, 0
0, 0
0, 1
0, 1
0, 0
0, 0
1, 0
0, 0
0, 0
0, 0
0, 0
0, 0
0, 0
0, 0
0, 1
0, 0
0, 0
0, 0
0, 0
0, 0
0, 0
1, 0
1, 1
0, 0
0, 1
0, 0
0, 1
0, 0
0, 0
1, 0
0, 0
0, 0
0, 0
1, 2
0, 1
0, 0
0, 0
0, 0
0, 0
0, 0
0, 0
0, 0
0, 0
0, 0
1, 0
0, 1
0, 0
0, 0
1, 0
0, 0
0, 0
0, 0
0, 0
1, 0
0, 0
0, 0
0, 0
0, 0
0, 0
0, 0
0, 0
0, 0
0, 0
0, 0
0, 0
0, 0
0, 0
0, 0
0, 0
0, 0
0, 0
0, 0
0, 0
0, 0
0, 0
0, 0
0, 0
0, 1
0, 0
0, 0
0, 0
0, 1
0, 0
0, 0
0, 0
0, 0
0, 0
0, 0
0, 0
0, 0
0, 0
0, 0
0, 0
0, 0
0, 0
0, 0
0, 0
0, 0
0, 0
0, 0
0, 0
0, 0
0, 0
0, 0
0, 0
0, 0
0, 0
0, 0
0, 0
0, 0
0, 0
0, 0
0, 0
0, 0
0, 0
0, 0
0, 0
0, 0
0, 0
0, 0
1, 0
0, 0
0, 0
0, 0
0, 0
0, 0
0, 0
0, 0
0, 0
0, 0
0, 0
0, 0
0, 0
0, 0
0, 0
0, 0
0, 0
0, 0
0, 0
0, 0
0, 0
0, 0
1, 0
0, 0
0, 0
0, 0
0, 0
0, 0
0, 0
0, 0
0, 0
0, 0
0, 0
0, 0
0, 0
0, 0
0, 0
0, 0
0, 0
0, 0
0, 0
0, 0
0, 0
0, 0
0, 0
0, 0
0, 0
0, 0
0, 0
0, 0
0, 0
0, 0
0, 0
0, 0
0, 0
0, 0
0, 0
0, 0
0, 0
0, 0
0, 0
0, 0
0, 0
0, 0
0, 0
0, 0
0, 0
0, 0
0, 0
0, 0
0, 0
0, 0
0, 0
0, 0
0, 0
0, 0
0, 0
0, 0
0, 0
0, 0
0, 0
0, 0
0, 0
0, 0
0, 0
0, 0
0, 0
0, 0
0, 0
0, 0
0, 0
0, 0
0, 0
0, 0
0, 0
0, 0
0, 0
0, 0
0, 0
0, 0
1, 0
0, 0
0, 0
0, 0
0, 0
0, 0
0, 0
0, 0
0, 0
0, 0
0, 0
0, 0
0, 0
0, 0
0, 0
0, 0
0, 0
0, 0
0, 0
0, 0
0, 0
0, 0
0, 0
0, 0
0, 0
0, 0
0, 0
0, 0
0, 0
0, 0
0, 0
0, 0
0, 0
0, 0
0, 0
0, 0
0, 0
0, 0
0, 0
0, 0
0, 0
0, 0
0, 0
0, 0
0, 0
0, 0
0, 0
0, 0
0, 0
0, 0
0, 0
0, 0
0, 0
0, 0
0, 0
0, 0
0, 0
0, 0
0, 0
0, 0
0, 0
0, 0
0, 0
0, 0
0, 0
0, 0
0, 0
0, 0
0, 0
0, 0
0, 0
0, 0
0, 0
0, 0
0, 0
0, 0
0, 0
0, 0
0, 0
0, 0
0, 0
0, 0
0, 0
0, 0
0, 0
0, 0
0, 0
0, 0
0, 0
0, 0
0, 0
0, 0
0, 0
0, 0
0, 0
0, 0
0, 0
0, 0
0, 0
0, 0
0, 0
0, 0
0, 0
0, 0
0, 0
0, 0
0, 0
0, 0
0, 0
0, 0
0, 0
0, 0
0, 0
0, 0
0, 0
0, 0
0, 0
0, 0
0, 0
0, 0
0, 0
0, 0
0, 0
0, 0
0, 0
0, 0
0, 0
0, 0
0, 0
0, 0
0, 0
0, 0
0, 0
0, 0
0, 0
0, 0
0, 0
0, 0
0, 0
0, 0
0, 0
0, 0
0, 0
0, 0
0, 0
0, 0
0, 0
0, 0
0, 0
0, 0
0, 0
0, 0
0, 0
0, 0
0, 0
0, 0
0, 0
0, 0
0, 0
0, 0
0, 0
0, 0
0, 0
0, 0
0, 0
0, 0
0, 0
0, 0
0, 0
0, 0
0, 0
0, 0
0, 0
0, 0
0, 0
0, 0
0, 0
0, 0
0, 0
0, 0
0, 0
0, 0
0, 0
0, 0
0, 0
0, 0
0, 0
0, 0
0, 0
0, 0
0, 0
0, 0
0, 0
0, 0
0, 0
0, 0
0, 0
0, 0
0, 0
0, 0
0, 0
0, 0
0, 0
0, 0
0, 0
0, 0
0, 0
0, 0
0, 0
0, 0
0, 0
0, 0
0, 0
0, 0
0, 0
0, 0
0, 0
0, 0
0, 0
0, 0
0, 0
0, 0
0, 0
0, 0
0, 0
0, 0
0, 0
0, 0
0, 0
0, 0
0, 0
0, 0
0, 0
0, 0
0, 0
0, 0
0, 0
0, 0
0, 0
0, 0
0, 0
0, 0
0, 0
0, 0
0, 0
0, 0
0, 0
0, 0
0, 0
0, 0
0, 0
0, 0
0, 0
0, 0
0, 0
0, 0
0, 0
0, 0
0, 0
0, 0
0, 0
0, 0
0, 0
0, 0
0, 0
0, 0
0, 0
0, 0
0, 0
0, 0
0, 0
0, 0
0, 0
0, 0
0, 0
0, 0
0, 0
0, 0
0, 0
0, 0
0, 0
0, 0
0, 0
0, 0
0, 0
0, 0
0, 0
0, 0
0, 0
0, 0
0, 0
0, 0
0, 0
0, 0
0, 0
0, 0
0, 0
0, 0
0, 0
0, 0
0, 0
0, 0
0, 0
0, 0
0, 0
0, 0
0, 0
0, 0
0, 0
0, 0
0, 0
0, 0
0, 0
0, 0
0, 0
0, 0
0, 0
0, 0
0, 0
0, 0
0, 0
0, 0
#ENDOFDATA     end of spectrum data