File: host_upload/02-11-2024/rqc/uplink1/ps__0567_0717304816_000rfs_shot_78.msa
#FORMAT      : EMSA/MAS spectral data file
#VERSION     : TC202v2.0 PIXL
#TITLE       : Novarupta (sol567) subset1
#DATE        : 02-11-2024      Date in the format DD-MMM-YYYY, for example 07-JUL-2010
#TIME        :             The time of day at which the spectrum was recorded, in 24-hour format
#OWNER       : PIXL Flight Model       (PIXL will use this to indicate which instrument took the data.)
#NPOINTS     : 4096     Number of data points in the spectrum (This can be zero for configuration only files)
#NCOLUMNS    : 2     Number of data columns in the spectrum (This can be zero for configuration only files)
#XUNITS      : eV
#YUNITS      : COUNTS
#DATATYPE    : YY
#XPERCHAN    : 7.862, 7.881   eV per channel (separate by commas if more than one detector)
#OFFSET      : 18.5, -22.4         eV of first channel  (separate by commas if more than one detector
#SIGNALTYPE  : XRF
#YP_TEMP     : -1.645
#LIVETIME    : 8.8599, 8.81891   seconds (separate by commas if more than one detector)
#REALTIME    : 10, 10.0   seconds (separate by commas if more than one detector)
#SPECTRUM    : start of spectrum data
0, 0
0, 0
0, 0
0, 0
0, 0
0, 0
0, 0
0, 0
0, 0
0, 0
0, 0
0, 0
0, 0
0, 0
0, 0
0, 0
0, 0
0, 0
0, 0
0, 0
0, 0
0, 0
0, 0
0, 0
0, 0
0, 0
0, 0
0, 0
0, 0
0, 0
0, 0
0, 1
1, 0
1, 0
0, 0
0, 4
1, 2
3, 1
2, 2
7, 8
3, 4
4, 0
1, 0
3, 1
2, 5
4, 3
4, 3
3, 3
2, 2
4, 7
4, 15
11, 12
9, 15
17, 15
17, 25
15, 25
13, 13
13, 15
14, 6
13, 9
20, 25
32, 41
37, 42
28, 59
34, 44
27, 54
35, 40
30, 55
51, 56
62, 77
118, 149
175, 244
275, 346
397, 475
383, 507
373, 583
365, 430
337, 317
199, 235
109, 130
67, 92
57, 52
21, 28
18, 39
27, 32
28, 46
21, 40
30, 41
20, 33
19, 26
22, 25
14, 16
32, 36
51, 51
93, 112
148, 158
197, 252
251, 340
286, 352
293, 353
221, 282
185, 211
142, 173
99, 112
60, 65
40, 73
49, 55
73, 83
94, 113
122, 145
146, 193
190, 225
198, 265
171, 226
175, 193
165, 181
129, 137
95, 118
68, 101
70, 86
60, 70
59, 84
59, 66
50, 63
37, 47
30, 35
25, 32
21, 21
20, 15
14, 11
17, 9
12, 6
7, 6
4, 6
2, 12
6, 10
11, 12
9, 18
14, 19
27, 34
25, 32
22, 26
25, 32
19, 16
15, 26
14, 12
9, 12
11, 11
11, 11
19, 18
29, 39
50, 78
86, 132
147, 185
171, 268
247, 365
297, 399
342, 460
287, 420
250, 312
190, 244
155, 149
85, 96
61, 64
28, 43
24, 26
34, 34
30, 55
37, 48
49, 64
54, 66
44, 71
47, 46
33, 42
37, 45
27, 24
14, 18
15, 16
12, 5
7, 5
9, 7
3, 13
5, 10
9, 16
11, 9
11, 11
20, 29
23, 39
38, 38
37, 43
40, 65
52, 71
59, 80
44, 62
61, 64
39, 37
39, 28
27, 33
16, 21
15, 13
13, 24
15, 18
13, 14
10, 13
7, 20
18, 16
9, 12
16, 25
18, 21
16, 23
15, 29
16, 23
15, 21
12, 11
12, 12
14, 9
9, 17
7, 15
14, 8
7, 6
16, 8
4, 15
9, 10
12, 10
9, 14
28, 20
21, 27
20, 37
31, 26
20, 27
30, 41
19, 36
16, 39
16, 25
25, 18
15, 19
19, 16
14, 14
8, 10
10, 14
9, 15
12, 11
9, 22
7, 23
10, 21
26, 17
28, 28
25, 55
28, 43
44, 48
30, 56
41, 55
40, 44
39, 39
36, 42
26, 30
19, 26
11, 20
19, 22
18, 20
15, 30
21, 37
42, 66
85, 133
136, 231
250, 370
409, 625
632, 897
899, 1218
1119, 1540
1356, 1815
1504, 1897
1531, 1863
1406, 1641
1173, 1364
980, 1064
667, 740
444, 456
299, 280
182, 149
76, 93
42, 40
27, 27
26, 20
21, 28
18, 14
14, 26
15, 23
12, 16
18, 21
27, 26
29, 35
40, 64
72, 93
117, 122
103, 149
183, 193
182, 276
223, 261
232, 296
227, 284
225, 274
173, 182
139, 172
109, 104
61, 76
49, 45
29, 22
16, 20
9, 12
14, 12
9, 10
7, 13
9, 15
9, 7
9, 10
10, 13
6, 13
10, 14
6, 11
10, 10
10, 14
7, 12
7, 6
5, 5
5, 5
8, 13
2, 5
6, 5
2, 10
8, 6
7, 3
4, 7
7, 10
5, 5
3, 7
7, 5
4, 1
5, 8
3, 7
3, 8
13, 10
9, 7
6, 11
7, 7
5, 12
9, 5
8, 4
7, 8
3, 5
7, 9
4, 6
10, 8
8, 7
8, 7
4, 4
9, 8
7, 8
3, 6
3, 7
5, 12
6, 6
3, 6
8, 13
11, 11
7, 16
11, 15
5, 11
9, 9
8, 9
10, 10
9, 6
6, 6
7, 7
7, 11
4, 2
7, 6
3, 8
2, 4
2, 9
5, 4
9, 8
4, 6
5, 12
5, 7
1, 6
6, 8
3, 5
12, 1
5, 5
4, 8
3, 7
5, 4
7, 4
5, 7
3, 4
2, 8
3, 5
6, 7
3, 5
5, 8
2, 6
3, 5
8, 5
7, 9
3, 3
2, 7
6, 8
2, 6
6, 5
9, 1
5, 4
4, 7
5, 2
3, 1
3, 4
5, 3
2, 7
4, 4
1, 10
4, 2
7, 6
3, 3
4, 3
1, 4
5, 6
6, 5
2, 8
12, 2
2, 4
5, 3
3, 7
2, 2
8, 3
1, 2
2, 4
3, 4
5, 5
6, 4
1, 3
3, 4
2, 4
1, 5
3, 1
4, 6
4, 4
1, 7
3, 5
4, 6
0, 5
2, 4
2, 4
6, 3
2, 4
2, 3
4, 5
3, 1
2, 2
0, 5
3, 4
2, 3
4, 4
4, 3
3, 10
5, 1
2, 2
4, 4
5, 4
3, 2
3, 4
2, 3
3, 0
1, 4
3, 10
3, 7
3, 4
1, 6
2, 6
2, 6
2, 4
2, 1
2, 2
3, 4
4, 1
4, 3
1, 3
3, 4
2, 3
3, 4
1, 1
1, 5
3, 4
1, 4
5, 3
3, 2
2, 3
3, 5
1, 4
2, 3
3, 3
3, 4
1, 6
0, 2
0, 1
1, 2
1, 2
0, 2
5, 3
3, 3
5, 1
1, 0
3, 0
2, 1
2, 1
3, 1
3, 1
2, 1
1, 1
0, 3
3, 3
1, 3
3, 1
2, 2
2, 0
3, 5
2, 2
3, 1
1, 4
0, 1
1, 1
2, 0
1, 6
1, 5
1, 2
3, 5
0, 3
0, 4
7, 4
2, 6
2, 3
2, 1
3, 3
4, 2
0, 1
6, 2
5, 5
2, 2
4, 4
1, 1
0, 1
2, 1
1, 3
2, 1
4, 1
0, 2
1, 0
2, 4
0, 0
0, 2
1, 3
1, 2
0, 1
3, 1
0, 2
2, 0
1, 1
1, 0
2, 2
1, 0
1, 1
1, 2
0, 3
1, 0
1, 1
1, 2
2, 2
0, 2
0, 1
4, 0
0, 5
1, 1
2, 1
2, 1
2, 1
3, 1
0, 2
4, 2
0, 1
1, 5
1, 1
0, 0
1, 3
2, 3
0, 0
1, 0
0, 2
0, 2
2, 0
2, 1
1, 1
1, 0
0, 2
1, 1
1, 0
1, 0
0, 0
0, 2
0, 1
0, 1
0, 1
2, 0
1, 1
1, 0
1, 1
1, 1
0, 0
1, 0
0, 0
1, 2
0, 0
1, 1
2, 1
1, 0
0, 0
2, 4
0, 1
0, 2
1, 1
0, 0
0, 0
1, 0
1, 3
0, 1
1, 1
2, 0
0, 0
1, 1
0, 0
0, 0
1, 0
1, 2
0, 1
2, 1
0, 1
0, 2
2, 0
1, 1
1, 1
1, 2
1, 1
0, 0
0, 1
0, 1
0, 1
0, 1
2, 1
0, 0
0, 1
1, 0
1, 2
1, 0
3, 2
0, 1
0, 0
1, 1
0, 0
1, 2
1, 0
2, 0
2, 1
0, 2
1, 0
0, 2
0, 0
0, 0
0, 1
0, 1
0, 0
0, 1
1, 1
0, 1
1, 0
1, 0
1, 1
0, 0
0, 1
1, 0
0, 0
0, 1
1, 0
0, 0
0, 1
0, 0
0, 2
0, 2
0, 0
1, 0
2, 0
0, 1
1, 0
3, 0
0, 1
1, 2
0, 1
0, 0
0, 0
0, 0
1, 0
1, 0
0, 1
1, 0
0, 0
1, 0
0, 1
1, 1
1, 0
1, 0
0, 0
0, 0
0, 0
0, 1
0, 0
0, 0
0, 1
1, 0
0, 0
0, 0
0, 1
1, 0
0, 2
0, 1
1, 0
0, 0
0, 0
2, 0
0, 1
0, 0
0, 0
0, 0
0, 0
0, 0
1, 0
0, 0
0, 0
0, 0
1, 0
0, 0
0, 0
0, 1
0, 0
0, 0
0, 0
2, 1
1, 0
0, 0
0, 0
0, 0
0, 1
0, 1
0, 0
0, 0
0, 0
0, 1
0, 0
0, 0
0, 1
0, 0
0, 0
0, 0
1, 0
0, 1
0, 0
0, 0
0, 1
0, 0
0, 0
1, 1
0, 0
0, 0
0, 0
0, 0
0, 0
0, 0
0, 0
0, 0
1, 0
0, 0
0, 0
0, 0
0, 0
0, 1
1, 0
1, 0
1, 1
0, 0
0, 0
0, 0
1, 1
0, 0
1, 0
0, 0
1, 0
0, 0
1, 1
0, 0
0, 0
0, 0
0, 0
0, 0
0, 1
0, 0
0, 0
0, 0
0, 0
0, 1
0, 0
0, 1
0, 0
0, 1
0, 0
0, 0
0, 0
0, 0
0, 0
0, 0
0, 0
0, 0
0, 0
0, 0
0, 1
0, 0
0, 0
0, 1
0, 0
0, 0
1, 0
1, 0
0, 0
0, 0
0, 0
0, 0
0, 0
0, 0
0, 0
0, 0
0, 0
0, 0
0, 0
1, 0
0, 1
0, 0
0, 0
0, 0
0, 0
2, 0
0, 0
0, 0
0, 0
0, 0
0, 0
0, 0
0, 0
1, 0
0, 0
0, 1
0, 1
1, 0
0, 0
1, 0
0, 0
0, 0
0, 0
0, 2
0, 0
0, 0
0, 0
1, 0
0, 0
0, 0
0, 0
0, 0
0, 0
0, 0
0, 0
0, 0
0, 0
0, 0
0, 0
0, 1
0, 0
0, 1
0, 0
0, 0
0, 0
0, 0
0, 0
0, 0
0, 0
0, 0
0, 0
0, 0
0, 0
0, 0
0, 0
0, 0
0, 0
0, 0
0, 0
0, 0
0, 0
0, 0
0, 0
0, 0
0, 0
0, 0
0, 0
0, 0
0, 0
0, 0
0, 0
0, 0
0, 0
0, 0
0, 0
0, 0
0, 0
0, 0
0, 0
0, 0
0, 0
0, 0
0, 1
0, 0
0, 0
0, 0
0, 0
0, 0
0, 0
0, 0
0, 0
0, 0
0, 0
0, 0
0, 0
0, 0
0, 0
0, 0
1, 0
0, 0
0, 0
0, 0
0, 0
0, 0
0, 1
0, 1
0, 0
0, 1
0, 0
0, 0
0, 0
0, 0
0, 0
0, 0
0, 0
0, 0
0, 0
0, 0
0, 0
0, 0
0, 0
0, 0
1, 0
0, 0
0, 0
0, 0
0, 0
0, 0
0, 0
0, 0
0, 0
0, 0
0, 0
0, 0
0, 0
0, 1
0, 0
0, 0
0, 0
0, 0
0, 0
0, 0
0, 0
0, 0
0, 0
0, 0
0, 0
0, 0
0, 0
0, 0
0, 0
0, 0
1, 0
0, 0
0, 0
0, 0
0, 0
0, 0
0, 0
0, 0
0, 0
0, 0
0, 0
0, 0
0, 0
0, 0
0, 0
0, 0
0, 0
0, 0
0, 0
0, 0
0, 0
0, 0
0, 0
0, 0
0, 0
0, 0
0, 0
0, 0
0, 0
0, 0
0, 0
0, 0
0, 0
0, 0
0, 0
0, 0
0, 0
0, 0
0, 0
0, 0
0, 0
0, 0
0, 1
0, 0
0, 0
0, 0
0, 0
0, 0
0, 0
0, 0
0, 0
0, 0
0, 0
0, 0
0, 0
0, 0
0, 0
0, 0
0, 0
0, 0
0, 0
0, 0
0, 0
0, 0
0, 0
0, 0
0, 0
0, 0
0, 0
0, 0
0, 0
0, 0
0, 0
0, 0
0, 0
0, 0
0, 0
0, 0
0, 0
0, 0
0, 0
0, 0
0, 0
0, 0
0, 0
0, 0
0, 0
0, 0
0, 0
0, 0
0, 0
0, 0
0, 0
0, 0
0, 0
0, 0
0, 0
0, 0
0, 0
0, 0
0, 0
0, 0
0, 0
0, 0
0, 0
0, 0
0, 0
0, 0
0, 0
0, 0
0, 0
0, 0
0, 0
0, 0
0, 0
0, 0
0, 0
0, 0
0, 0
0, 0
0, 0
0, 0
0, 0
0, 0
0, 0
0, 0
0, 0
0, 0
0, 0
0, 0
0, 0
0, 0
0, 0
0, 0
0, 0
0, 0
0, 0
0, 0
0, 0
0, 0
0, 0
0, 0
0, 0
0, 0
0, 0
0, 0
0, 0
0, 0
0, 0
0, 0
0, 0
0, 0
0, 0
0, 0
0, 0
0, 0
0, 0
0, 0
0, 0
0, 0
0, 0
0, 0
0, 0
0, 0
0, 0
0, 0
0, 0
0, 0
0, 0
0, 0
0, 0
0, 0
0, 0
0, 0
0, 0
0, 0
0, 0
0, 0
0, 0
0, 0
0, 0
0, 0
0, 0
0, 0
0, 0
0, 0
0, 0
0, 0
0, 0
0, 0
0, 0
0, 0
0, 0
0, 0
0, 0
0, 0
0, 0
0, 0
0, 0
0, 0
0, 0
0, 0
0, 0
0, 0
0, 0
0, 0
0, 0
0, 0
0, 0
0, 0
0, 0
0, 0
0, 0
0, 0
0, 0
0, 0
0, 0
0, 0
0, 0
0, 0
0, 0
0, 0
0, 0
0, 0
0, 0
0, 0
0, 0
0, 0
0, 0
0, 0
0, 0
0, 0
0, 0
0, 0
0, 0
0, 0
0, 0
0, 0
0, 0
0, 0
0, 0
0, 0
0, 0
0, 0
0, 0
0, 0
0, 0
0, 0
0, 0
0, 0
0, 0
0, 0
0, 0
0, 0
0, 0
0, 0
0, 0
0, 0
0, 0
0, 0
0, 0
0, 0
0, 0
0, 0
0, 0
0, 0
0, 0
0, 0
0, 0
0, 0
0, 0
0, 0
0, 0
0, 0
0, 0
0, 0
0, 0
0, 0
0, 0
0, 0
0, 0
0, 0
0, 0
0, 0
0, 0
0, 0
0, 0
0, 0
0, 0
0, 0
0, 0
0, 0
0, 0
0, 0
0, 0
0, 0
0, 0
0, 0
0, 0
0, 0
0, 0
0, 0
0, 0
0, 0
0, 0
0, 0
0, 0
0, 0
0, 0
0, 0
0, 0
0, 0
0, 0
0, 0
0, 0
0, 0
0, 0
0, 0
0, 0
0, 0
0, 0
0, 0
0, 0
0, 0
0, 0
0, 0
0, 0
0, 0
0, 0
0, 0
0, 0
0, 0
0, 0
0, 0
0, 0
0, 0
0, 0
0, 0
0, 0
0, 0
0, 0
0, 0
0, 0
0, 0
0, 0
0, 0
0, 0
0, 0
0, 0
0, 0
0, 0
0, 0
0, 0
0, 0
0, 0
0, 0
0, 0
0, 0
0, 0
0, 0
0, 0
0, 0
0, 0
0, 0
0, 0
#ENDOFDATA     end of spectrum data