File: host_upload/02-11-2024/rqc/uplink1/ps__0567_0717304816_000rfs_shot_220.msa
#FORMAT      : EMSA/MAS spectral data file
#VERSION     : TC202v2.0 PIXL
#TITLE       : Novarupta (sol567) subset1
#DATE        : 02-11-2024      Date in the format DD-MMM-YYYY, for example 07-JUL-2010
#TIME        :             The time of day at which the spectrum was recorded, in 24-hour format
#OWNER       : PIXL Flight Model       (PIXL will use this to indicate which instrument took the data.)
#NPOINTS     : 4096     Number of data points in the spectrum (This can be zero for configuration only files)
#NCOLUMNS    : 2     Number of data columns in the spectrum (This can be zero for configuration only files)
#XUNITS      : eV
#YUNITS      : COUNTS
#DATATYPE    : YY
#XPERCHAN    : 7.862, 7.881   eV per channel (separate by commas if more than one detector)
#OFFSET      : 18.5, -22.4         eV of first channel  (separate by commas if more than one detector
#SIGNALTYPE  : XRF
#YP_TEMP     : 0.824
#LIVETIME    : 8.84667, 8.82329   seconds (separate by commas if more than one detector)
#REALTIME    : 10, 10.0   seconds (separate by commas if more than one detector)
#SPECTRUM    : start of spectrum data
0, 0
0, 0
0, 0
0, 0
0, 0
0, 0
0, 0
0, 0
0, 0
0, 0
0, 0
0, 0
0, 0
0, 0
0, 0
0, 0
0, 0
0, 0
0, 0
0, 0
0, 0
0, 0
0, 0
0, 0
0, 0
0, 0
0, 0
0, 0
0, 1
0, 0
0, 0
0, 0
1, 0
1, 0
0, 1
0, 2
0, 4
0, 6
2, 6
3, 5
3, 4
1, 4
3, 4
3, 2
1, 1
3, 4
3, 3
3, 9
3, 1
2, 5
10, 5
10, 15
8, 12
13, 15
4, 22
18, 24
16, 15
10, 14
12, 9
9, 12
11, 12
33, 22
38, 42
46, 42
45, 46
40, 47
28, 39
21, 44
39, 39
46, 75
121, 133
196, 232
285, 321
361, 458
463, 504
476, 540
448, 424
345, 370
241, 247
149, 148
87, 79
57, 57
35, 34
28, 33
32, 32
31, 41
42, 33
26, 43
25, 28
22, 34
11, 18
17, 13
30, 31
31, 53
81, 76
141, 145
176, 195
228, 274
284, 291
305, 318
263, 254
211, 211
144, 145
80, 103
74, 74
53, 54
50, 61
56, 77
78, 103
107, 153
144, 193
194, 222
226, 276
205, 229
194, 224
172, 161
139, 132
95, 104
96, 69
80, 69
62, 69
83, 71
61, 76
54, 46
44, 49
40, 35
24, 31
19, 28
18, 28
13, 13
13, 7
5, 8
9, 4
7, 11
9, 2
6, 6
9, 14
14, 22
12, 14
16, 30
21, 36
32, 30
35, 27
24, 30
18, 16
17, 15
19, 14
8, 9
12, 8
17, 21
19, 35
37, 58
78, 94
162, 158
190, 262
244, 330
325, 385
361, 371
336, 383
277, 334
192, 225
156, 162
103, 97
72, 57
35, 33
28, 28
32, 26
33, 39
40, 33
50, 76
47, 69
58, 78
50, 53
54, 56
39, 36
29, 22
20, 20
17, 15
8, 10
6, 9
9, 4
12, 6
10, 5
11, 7
8, 10
12, 17
19, 23
20, 29
35, 32
42, 38
44, 60
53, 61
69, 60
58, 74
58, 51
37, 36
30, 28
35, 37
20, 29
15, 21
25, 10
21, 18
17, 8
7, 12
19, 23
21, 12
14, 21
13, 18
11, 18
18, 21
16, 11
13, 15
16, 18
18, 20
20, 14
11, 13
16, 14
10, 6
12, 15
6, 18
5, 10
10, 12
10, 5
12, 15
10, 13
27, 13
18, 20
18, 27
21, 32
32, 36
34, 30
32, 33
28, 22
23, 27
23, 31
11, 11
16, 23
15, 16
14, 9
8, 15
8, 13
11, 9
13, 16
13, 14
11, 13
14, 24
22, 28
21, 36
34, 56
33, 37
54, 55
50, 59
56, 49
27, 54
29, 31
29, 34
24, 24
28, 27
21, 15
18, 19
20, 28
16, 23
38, 48
61, 85
106, 159
215, 298
351, 511
522, 732
842, 1120
1149, 1373
1402, 1668
1613, 1854
1578, 1893
1633, 1718
1385, 1512
1099, 1116
804, 774
540, 516
325, 345
222, 164
121, 95
69, 50
28, 39
22, 24
28, 22
11, 14
18, 17
19, 17
20, 11
14, 37
21, 33
28, 48
38, 60
64, 65
84, 120
130, 143
166, 196
211, 244
209, 279
266, 294
237, 255
227, 243
208, 241
157, 165
128, 122
82, 80
49, 58
37, 26
18, 18
11, 15
10, 10
8, 8
9, 14
9, 8
6, 5
11, 18
7, 14
14, 15
3, 17
11, 17
17, 8
12, 14
8, 10
6, 10
8, 9
6, 6
5, 7
6, 7
5, 6
3, 7
4, 1
6, 6
5, 2
5, 4
6, 3
4, 10
2, 1
7, 5
5, 7
11, 6
9, 8
7, 7
5, 6
6, 9
6, 8
3, 9
2, 9
9, 6
5, 4
6, 5
4, 2
6, 8
8, 5
4, 14
8, 6
10, 6
7, 6
3, 6
2, 7
5, 8
6, 10
11, 4
9, 9
10, 15
12, 15
10, 9
16, 13
8, 11
11, 11
7, 14
9, 9
8, 15
9, 11
8, 6
10, 5
3, 7
6, 9
6, 7
5, 8
3, 8
3, 4
3, 7
12, 6
6, 10
6, 4
5, 7
3, 10
4, 8
7, 7
3, 1
5, 4
3, 3
3, 1
3, 6
3, 7
5, 7
1, 8
8, 6
4, 4
3, 3
6, 4
6, 6
4, 7
5, 2
8, 4
6, 6
3, 6
5, 4
3, 6
6, 7
9, 4
4, 3
10, 8
4, 7
4, 4
1, 6
6, 4
0, 8
3, 3
2, 3
5, 6
4, 1
3, 7
2, 3
8, 6
5, 5
3, 2
3, 6
3, 3
2, 6
4, 8
4, 2
7, 3
4, 5
4, 8
3, 2
1, 3
6, 4
3, 4
6, 7
7, 7
3, 4
0, 1
3, 3
4, 4
2, 4
6, 5
4, 2
5, 5
4, 3
4, 3
2, 1
6, 7
5, 4
3, 3
3, 3
3, 5
4, 2
1, 1
3, 4
2, 3
7, 6
5, 3
4, 2
0, 1
3, 6
3, 3
2, 6
5, 5
3, 1
3, 3
0, 4
1, 1
2, 0
2, 1
9, 2
3, 1
1, 4
5, 5
3, 5
2, 5
3, 4
4, 5
3, 1
3, 1
1, 4
2, 1
4, 6
2, 1
1, 4
1, 1
3, 2
3, 0
3, 2
2, 2
1, 2
1, 2
2, 3
4, 3
3, 2
6, 2
2, 2
3, 1
0, 3
4, 4
1, 4
1, 5
1, 5
4, 4
6, 2
2, 3
0, 1
3, 1
1, 2
1, 3
2, 3
3, 6
1, 3
4, 0
0, 3
3, 1
3, 3
0, 2
1, 2
2, 2
1, 3
3, 1
4, 2
3, 4
3, 3
4, 0
1, 4
0, 1
2, 5
2, 3
3, 0
2, 3
7, 2
4, 3
0, 2
10, 4
5, 2
5, 4
3, 2
5, 3
1, 0
3, 4
1, 1
3, 2
1, 0
0, 1
1, 1
1, 4
3, 2
3, 3
1, 1
2, 0
0, 3
2, 3
2, 2
3, 1
1, 1
2, 3
1, 3
6, 1
1, 1
2, 2
1, 3
1, 4
3, 0
0, 1
2, 5
2, 3
1, 1
2, 2
2, 2
3, 0
1, 6
1, 0
1, 1
1, 0
0, 1
0, 2
0, 0
0, 2
3, 2
1, 2
1, 0
1, 0
2, 2
2, 3
1, 2
2, 2
3, 0
2, 1
4, 0
1, 0
1, 1
0, 1
0, 0
0, 0
1, 1
1, 0
0, 0
1, 2
0, 1
0, 0
1, 0
0, 0
2, 2
0, 0
1, 0
1, 0
2, 1
1, 0
1, 0
0, 0
2, 2
0, 2
1, 0
0, 2
0, 1
0, 2
3, 1
2, 0
0, 0
0, 2
4, 0
1, 0
0, 1
0, 1
1, 0
0, 2
1, 3
1, 0
1, 0
1, 1
0, 1
0, 0
1, 1
1, 0
0, 1
0, 1
0, 1
1, 0
1, 1
0, 0
2, 1
0, 0
1, 0
0, 2
2, 1
1, 2
0, 0
0, 0
0, 0
1, 0
0, 0
0, 0
0, 0
0, 0
0, 0
1, 0
2, 1
0, 0
0, 0
1, 0
2, 0
0, 3
0, 2
0, 0
1, 0
1, 1
0, 0
0, 1
0, 0
1, 0
0, 1
1, 0
0, 1
0, 0
0, 1
1, 1
1, 0
2, 0
1, 1
1, 0
0, 1
1, 0
2, 0
0, 0
1, 0
0, 1
0, 0
0, 1
1, 0
0, 0
0, 0
0, 0
0, 1
0, 1
0, 0
0, 0
0, 0
0, 0
1, 1
0, 0
1, 0
0, 0
0, 0
1, 0
1, 1
0, 0
1, 0
0, 0
0, 0
2, 1
2, 1
0, 1
0, 0
1, 1
0, 0
0, 0
1, 0
0, 0
1, 0
0, 0
0, 1
0, 1
0, 0
0, 0
0, 0
0, 0
0, 0
1, 0
2, 1
0, 0
0, 0
0, 0
0, 0
0, 0
0, 1
1, 1
0, 0
0, 1
1, 0
0, 0
0, 0
0, 0
0, 0
0, 0
0, 0
0, 0
0, 0
0, 0
0, 0
0, 0
0, 0
0, 0
0, 0
0, 0
0, 1
1, 1
1, 0
0, 1
0, 0
0, 0
0, 1
0, 0
0, 0
0, 1
0, 0
0, 0
0, 0
0, 0
0, 0
0, 0
1, 0
0, 0
0, 0
0, 0
0, 0
1, 0
0, 0
0, 0
1, 0
0, 1
0, 0
0, 0
0, 0
0, 2
0, 0
0, 0
0, 0
0, 0
0, 0
0, 0
0, 0
0, 0
0, 1
0, 1
0, 0
0, 0
0, 0
0, 0
0, 0
0, 0
0, 0
1, 0
0, 0
0, 0
0, 0
0, 0
0, 0
0, 0
2, 0
0, 1
1, 0
0, 1
0, 0
0, 0
0, 0
1, 0
0, 0
0, 1
0, 0
0, 0
0, 1
0, 0
0, 0
0, 1
0, 0
0, 0
0, 0
0, 1
0, 0
1, 0
0, 0
0, 0
0, 0
0, 0
0, 0
0, 0
0, 0
0, 0
0, 1
0, 1
0, 0
0, 0
1, 0
1, 0
0, 0
0, 0
0, 0
0, 1
0, 0
1, 0
0, 0
1, 0
0, 0
0, 0
0, 0
0, 0
0, 2
0, 0
0, 0
0, 0
1, 0
0, 0
0, 0
0, 0
0, 0
0, 0
0, 0
0, 0
0, 0
0, 0
0, 0
0, 0
0, 0
0, 1
0, 0
0, 0
1, 0
0, 1
0, 0
0, 0
0, 0
0, 0
0, 0
0, 0
0, 0
0, 1
0, 0
0, 0
0, 0
0, 0
0, 0
0, 0
0, 0
0, 1
0, 0
0, 1
0, 0
0, 0
0, 0
0, 0
0, 0
0, 0
0, 0
0, 0
0, 0
0, 0
0, 0
0, 1
0, 0
0, 0
0, 0
0, 1
0, 0
0, 0
0, 0
0, 0
1, 0
0, 0
0, 0
0, 0
0, 0
0, 0
0, 0
0, 0
0, 0
0, 0
0, 0
0, 0
0, 0
0, 0
0, 0
0, 0
0, 0
0, 0
0, 0
0, 0
0, 0
0, 0
0, 0
0, 0
0, 0
0, 1
0, 0
0, 0
0, 0
0, 0
0, 0
0, 0
0, 0
0, 0
0, 0
0, 0
0, 0
0, 0
0, 0
0, 0
0, 0
0, 0
0, 0
0, 0
0, 0
0, 0
0, 0
0, 0
0, 0
0, 0
0, 0
0, 0
0, 0
0, 0
0, 0
0, 0
0, 0
0, 0
0, 0
0, 0
0, 0
0, 0
0, 0
0, 0
0, 0
0, 0
0, 0
0, 0
0, 0
0, 0
0, 0
0, 0
0, 0
0, 0
0, 0
0, 0
0, 0
0, 0
0, 0
0, 0
0, 0
0, 0
0, 0
0, 0
0, 0
0, 0
0, 0
0, 0
0, 0
0, 0
0, 0
0, 0
0, 0
0, 0
0, 0
0, 0
0, 0
0, 0
0, 0
0, 0
0, 0
0, 0
0, 0
0, 0
0, 0
0, 0
0, 0
0, 0
0, 0
0, 0
0, 0
0, 0
0, 0
0, 0
0, 0
0, 0
0, 0
0, 0
0, 0
0, 0
0, 0
0, 0
0, 0
0, 0
0, 0
0, 0
0, 0
0, 0
0, 0
0, 0
0, 0
0, 0
0, 0
0, 0
0, 0
0, 0
0, 0
0, 0
0, 0
0, 0
0, 0
0, 0
0, 0
0, 0
0, 0
0, 0
0, 0
0, 0
0, 0
0, 0
0, 0
0, 0
0, 0
0, 0
0, 0
0, 0
0, 0
0, 0
0, 0
0, 0
0, 0
0, 0
0, 0
0, 0
0, 0
0, 0
0, 0
0, 0
0, 0
0, 0
0, 0
0, 0
0, 0
0, 0
0, 0
0, 0
0, 0
0, 0
0, 0
0, 0
0, 0
0, 0
0, 0
0, 0
0, 0
0, 0
0, 0
0, 0
0, 0
0, 0
0, 0
0, 0
0, 0
0, 0
0, 1
0, 0
0, 0
0, 0
0, 0
0, 0
0, 0
0, 0
0, 0
0, 0
0, 0
0, 0
0, 0
0, 0
0, 0
0, 0
0, 0
0, 0
0, 0
0, 0
0, 0
0, 0
0, 0
0, 0
0, 0
0, 0
0, 0
0, 0
0, 0
0, 0
0, 0
0, 0
0, 0
0, 0
0, 0
0, 0
0, 0
0, 0
0, 0
0, 0
0, 0
0, 0
0, 0
0, 0
0, 0
0, 0
0, 0
0, 0
0, 0
0, 0
0, 0
0, 0
0, 0
0, 0
0, 0
0, 0
0, 0
0, 0
0, 0
0, 0
0, 0
0, 0
0, 0
0, 0
0, 0
0, 0
0, 0
0, 0
0, 0
0, 0
0, 0
0, 0
0, 0
0, 0
0, 0
0, 0
0, 0
0, 0
0, 0
0, 0
0, 0
0, 0
0, 0
0, 0
0, 0
0, 0
0, 0
0, 0
0, 0
0, 0
0, 0
0, 0
0, 0
0, 0
0, 0
0, 0
0, 0
0, 0
0, 0
0, 0
0, 0
0, 0
0, 0
0, 0
0, 0
0, 0
0, 0
0, 0
0, 0
0, 0
0, 0
0, 0
0, 0
0, 0
0, 0
0, 0
0, 0
0, 0
0, 0
0, 0
0, 0
0, 0
0, 0
0, 0
0, 0
0, 0
0, 0
0, 0
0, 0
0, 0
0, 0
0, 0
0, 0
0, 0
0, 0
0, 0
0, 0
0, 0
0, 0
0, 0
0, 0
0, 0
0, 0
0, 0
0, 0
0, 0
0, 0
0, 0
0, 0
0, 0
0, 0
0, 0
0, 0
0, 0
0, 0
0, 0
0, 0
0, 0
0, 0
0, 0
0, 0
0, 0
0, 0
0, 0
0, 0
0, 0
0, 0
0, 0
0, 0
0, 0
0, 0
0, 0
0, 0
0, 0
0, 0
0, 0
0, 0
0, 0
0, 0
0, 0
0, 0
0, 0
0, 0
0, 0
0, 0
0, 0
0, 0
0, 0
0, 0
0, 0
0, 0
0, 0
0, 0
0, 0
0, 0
0, 0
0, 0
0, 0
0, 0
0, 0
0, 0
0, 0
0, 0
0, 0
0, 0
0, 0
0, 0
0, 0
0, 0
0, 0
0, 0
0, 0
0, 0
0, 0
0, 0
0, 0
0, 0
0, 0
0, 0
0, 0
0, 0
0, 0
0, 0
0, 0
0, 0
0, 0
0, 0
0, 0
0, 0
0, 0
0, 0
0, 0
0, 0
0, 0
0, 0
0, 0
0, 0
0, 0
0, 0
0, 0
0, 0
0, 0
0, 0
0, 0
0, 0
0, 0
0, 0
0, 0
0, 0
#ENDOFDATA     end of spectrum data