File: host_upload/02-11-2024/rqc/uplink1/ps__0567_0717304816_000rfs_shot_62.msa
#FORMAT      : EMSA/MAS spectral data file
#VERSION     : TC202v2.0 PIXL
#TITLE       : Novarupta (sol567) subset1
#DATE        : 02-11-2024      Date in the format DD-MMM-YYYY, for example 07-JUL-2010
#TIME        :             The time of day at which the spectrum was recorded, in 24-hour format
#OWNER       : PIXL Flight Model       (PIXL will use this to indicate which instrument took the data.)
#NPOINTS     : 4096     Number of data points in the spectrum (This can be zero for configuration only files)
#NCOLUMNS    : 2     Number of data columns in the spectrum (This can be zero for configuration only files)
#XUNITS      : eV
#YUNITS      : COUNTS
#DATATYPE    : YY
#XPERCHAN    : 7.862, 7.881   eV per channel (separate by commas if more than one detector)
#OFFSET      : 18.5, -22.4         eV of first channel  (separate by commas if more than one detector
#SIGNALTYPE  : XRF
#YP_TEMP     : -2.03
#LIVETIME    : 8.8314, 8.81582   seconds (separate by commas if more than one detector)
#REALTIME    : 10, 10.0   seconds (separate by commas if more than one detector)
#SPECTRUM    : start of spectrum data
0, 0
0, 0
0, 0
0, 0
0, 0
0, 0
0, 0
0, 0
0, 0
0, 0
0, 0
0, 0
0, 0
0, 0
0, 0
0, 0
0, 0
0, 0
0, 0
0, 0
0, 0
0, 0
0, 0
0, 0
0, 0
0, 0
0, 0
0, 0
0, 0
0, 0
0, 0
0, 0
0, 0
0, 1
3, 1
4, 0
2, 2
4, 0
2, 4
4, 0
1, 3
7, 5
3, 6
5, 0
1, 8
2, 5
4, 2
0, 1
5, 5
7, 2
3, 5
6, 7
11, 11
17, 11
18, 18
13, 11
7, 15
11, 8
12, 9
20, 15
18, 12
26, 35
34, 34
33, 49
47, 52
52, 39
33, 38
33, 33
44, 41
58, 84
119, 115
214, 248
278, 339
417, 455
481, 508
501, 542
418, 447
317, 367
248, 220
156, 117
102, 89
61, 55
30, 20
36, 38
26, 24
40, 38
34, 35
26, 42
24, 32
22, 16
20, 11
31, 21
27, 33
46, 47
90, 85
151, 164
220, 247
281, 289
330, 313
310, 304
273, 289
225, 226
174, 159
101, 108
80, 68
49, 49
65, 67
67, 73
92, 81
143, 151
173, 185
202, 209
232, 240
239, 227
212, 202
193, 176
124, 147
109, 109
92, 94
86, 89
78, 99
77, 74
73, 57
70, 43
42, 41
39, 35
33, 20
28, 20
18, 25
18, 7
9, 14
12, 7
5, 8
3, 5
10, 5
10, 4
12, 9
12, 10
25, 22
26, 15
32, 30
35, 33
34, 29
26, 30
22, 18
16, 10
11, 21
7, 6
18, 15
27, 29
29, 38
61, 59
88, 146
193, 185
251, 255
301, 355
336, 390
396, 390
361, 384
287, 314
255, 232
149, 169
84, 87
55, 49
47, 37
22, 29
31, 35
52, 51
58, 56
55, 56
60, 73
68, 62
55, 60
39, 48
39, 34
33, 28
12, 10
14, 17
9, 10
16, 15
8, 8
11, 3
8, 11
10, 4
12, 10
11, 21
19, 21
28, 22
36, 36
46, 47
63, 59
54, 47
59, 70
57, 63
57, 58
38, 40
33, 43
22, 43
17, 21
13, 13
16, 13
18, 12
11, 14
12, 9
11, 10
16, 13
16, 20
17, 19
20, 16
22, 19
15, 26
11, 15
16, 27
13, 9
11, 14
14, 14
6, 15
9, 15
9, 11
13, 6
13, 17
11, 13
14, 20
15, 17
12, 20
13, 22
22, 23
20, 31
26, 26
22, 28
23, 27
31, 33
25, 26
27, 26
13, 10
10, 15
22, 6
12, 15
11, 15
16, 14
8, 12
10, 11
13, 14
17, 21
17, 18
25, 21
22, 35
34, 35
33, 56
38, 59
47, 63
46, 50
41, 54
37, 43
40, 37
18, 31
19, 21
16, 26
13, 19
17, 18
31, 27
38, 31
63, 75
98, 131
173, 217
308, 343
474, 558
738, 872
1017, 1140
1362, 1434
1595, 1696
1673, 1882
1761, 1748
1556, 1560
1338, 1341
1061, 937
776, 698
509, 446
292, 287
172, 151
100, 76
47, 43
38, 26
26, 19
16, 22
15, 20
14, 21
14, 14
12, 18
12, 17
29, 33
37, 37
58, 55
71, 88
95, 138
137, 175
180, 227
199, 235
263, 299
263, 307
292, 265
249, 223
193, 190
135, 141
117, 96
65, 61
48, 29
34, 21
19, 16
14, 16
16, 11
10, 12
13, 8
11, 6
7, 8
9, 12
14, 15
14, 13
11, 17
8, 8
12, 14
9, 3
7, 12
7, 14
9, 5
8, 8
8, 7
11, 6
2, 3
6, 7
10, 9
5, 6
4, 11
7, 6
9, 6
6, 5
6, 7
0, 5
6, 6
5, 5
6, 7
7, 8
9, 5
5, 5
8, 4
10, 9
9, 10
9, 3
5, 7
4, 5
7, 11
7, 10
6, 7
7, 5
7, 9
2, 3
7, 3
9, 4
10, 7
6, 7
10, 7
9, 8
9, 4
9, 10
6, 14
5, 10
12, 14
8, 7
10, 10
6, 8
9, 6
8, 10
11, 4
4, 6
6, 5
3, 2
6, 5
6, 8
3, 4
2, 11
5, 9
8, 3
6, 3
3, 2
6, 4
6, 4
9, 6
4, 3
5, 8
4, 6
4, 2
3, 4
7, 5
6, 2
5, 9
5, 9
6, 6
5, 6
0, 2
7, 4
3, 2
4, 6
2, 1
5, 2
2, 7
5, 6
6, 1
5, 8
5, 7
4, 4
6, 6
7, 7
4, 3
3, 5
6, 2
6, 6
0, 12
4, 4
4, 4
2, 4
5, 5
6, 4
6, 4
1, 3
6, 6
4, 5
7, 3
4, 9
7, 7
4, 6
5, 3
4, 2
3, 6
2, 0
9, 6
0, 4
4, 4
2, 5
2, 4
4, 5
2, 2
7, 5
3, 2
2, 2
7, 4
3, 4
3, 2
2, 6
3, 8
3, 8
2, 3
3, 3
2, 6
1, 2
4, 4
0, 3
2, 5
4, 3
3, 5
3, 1
2, 2
1, 6
1, 5
7, 5
5, 2
1, 6
4, 5
9, 1
3, 9
2, 4
3, 3
10, 0
2, 6
3, 4
3, 2
4, 5
2, 5
2, 1
2, 1
1, 3
3, 3
3, 0
8, 0
1, 2
1, 3
5, 2
1, 1
2, 0
3, 0
1, 0
3, 1
1, 3
2, 2
3, 4
1, 2
2, 0
8, 2
1, 2
1, 5
3, 4
5, 3
1, 2
2, 1
2, 1
3, 4
0, 4
2, 3
4, 4
3, 3
5, 2
1, 3
2, 2
1, 0
3, 1
4, 2
4, 2
1, 2
2, 1
2, 1
1, 1
1, 1
1, 2
0, 1
4, 2
1, 1
0, 4
2, 2
1, 1
2, 4
2, 4
3, 2
2, 1
3, 2
2, 0
3, 2
1, 2
2, 3
3, 3
1, 1
2, 5
0, 0
0, 2
1, 3
4, 1
2, 4
4, 1
2, 5
1, 3
0, 3
2, 1
2, 2
2, 1
0, 1
3, 1
0, 2
1, 2
1, 2
0, 3
1, 4
1, 0
2, 2
0, 1
1, 3
1, 0
1, 0
1, 0
3, 0
2, 1
0, 1
1, 3
0, 4
3, 0
1, 1
0, 1
4, 0
0, 0
3, 1
2, 0
1, 1
0, 0
1, 0
0, 1
1, 2
3, 2
1, 0
0, 0
0, 3
4, 1
2, 2
2, 0
2, 0
2, 1
1, 2
2, 4
1, 1
1, 1
1, 0
1, 0
0, 2
2, 0
3, 1
0, 0
0, 0
2, 1
3, 0
0, 0
0, 0
1, 2
1, 0
0, 1
3, 1
1, 0
0, 1
0, 0
0, 0
0, 0
0, 0
0, 1
1, 1
0, 0
1, 0
0, 0
1, 0
2, 1
1, 1
3, 1
1, 0
0, 0
2, 1
1, 1
2, 2
4, 0
2, 2
1, 2
0, 0
0, 2
2, 2
0, 0
0, 1
0, 1
1, 2
0, 1
1, 1
2, 0
0, 0
0, 0
2, 3
3, 1
0, 1
0, 1
0, 1
1, 0
0, 0
2, 1
1, 1
0, 0
0, 0
0, 0
1, 2
0, 1
0, 0
0, 0
0, 0
0, 0
1, 0
1, 3
0, 1
0, 0
0, 0
0, 0
0, 0
0, 1
2, 0
0, 1
1, 0
0, 0
0, 1
2, 1
0, 0
0, 0
0, 0
0, 2
0, 0
0, 0
0, 1
0, 1
0, 0
0, 0
0, 0
0, 0
0, 0
1, 0
0, 0
0, 0
2, 0
0, 0
0, 1
1, 1
0, 1
0, 0
2, 0
0, 0
1, 1
1, 2
0, 0
1, 1
0, 0
1, 0
0, 0
0, 1
0, 0
0, 1
1, 0
1, 0
0, 0
0, 0
0, 0
0, 0
0, 0
0, 1
0, 0
0, 0
2, 0
0, 0
0, 0
0, 0
0, 0
1, 0
0, 0
0, 0
1, 0
0, 0
1, 0
0, 0
2, 0
1, 0
1, 0
0, 1
0, 0
0, 1
0, 0
0, 0
0, 0
0, 0
0, 1
1, 1
1, 0
0, 1
0, 0
0, 0
0, 0
1, 0
1, 0
0, 0
0, 0
1, 0
0, 0
0, 0
1, 0
1, 1
0, 0
0, 0
0, 0
0, 0
0, 0
0, 0
0, 0
0, 0
1, 0
0, 0
0, 1
0, 0
1, 0
1, 0
0, 1
0, 2
0, 1
0, 0
1, 0
0, 0
0, 0
0, 0
1, 0
0, 0
0, 0
0, 1
1, 0
0, 0
0, 0
0, 0
0, 0
0, 1
1, 0
0, 0
0, 0
0, 0
0, 1
0, 1
0, 0
0, 0
0, 0
0, 0
0, 0
0, 0
0, 1
0, 0
0, 0
0, 0
0, 0
0, 0
0, 0
0, 0
1, 0
0, 0
0, 0
0, 0
1, 0
0, 0
0, 1
1, 0
0, 0
0, 0
0, 0
0, 0
1, 0
0, 0
0, 0
0, 0
0, 0
0, 0
0, 1
0, 1
0, 0
0, 0
0, 0
0, 0
0, 0
0, 0
0, 1
0, 0
0, 0
0, 0
0, 0
0, 0
0, 0
0, 0
0, 0
0, 0
0, 0
0, 0
0, 0
0, 0
1, 1
0, 1
0, 0
0, 1
0, 0
0, 0
0, 0
0, 1
2, 1
0, 0
0, 1
1, 0
0, 0
0, 1
0, 0
0, 1
0, 0
0, 0
0, 0
0, 0
0, 0
0, 0
0, 0
0, 0
0, 0
0, 0
0, 1
1, 0
0, 0
0, 0
0, 0
1, 0
0, 0
0, 0
0, 0
0, 0
0, 0
0, 0
0, 0
0, 0
1, 0
0, 0
0, 0
0, 0
0, 0
0, 0
0, 0
0, 0
0, 0
0, 0
0, 0
0, 0
1, 0
0, 0
0, 0
0, 0
0, 0
0, 0
0, 0
0, 0
0, 0
0, 1
0, 0
0, 0
0, 0
0, 0
0, 0
0, 1
0, 0
0, 0
0, 0
0, 0
0, 0
0, 0
0, 0
0, 0
0, 0
0, 0
0, 0
0, 0
0, 0
0, 0
0, 0
0, 1
0, 0
0, 0
0, 0
0, 0
0, 0
0, 0
0, 0
0, 0
0, 0
0, 0
0, 0
0, 0
0, 0
0, 0
0, 0
0, 0
0, 0
0, 0
1, 0
0, 0
0, 0
0, 0
0, 0
0, 0
0, 0
0, 0
0, 0
0, 0
0, 0
0, 0
0, 0
0, 0
0, 0
0, 0
0, 0
0, 0
0, 1
0, 0
0, 0
0, 0
0, 0
0, 0
0, 0
0, 0
0, 0
0, 0
0, 0
0, 0
0, 0
0, 0
0, 0
0, 0
0, 0
0, 0
0, 0
0, 0
0, 0
0, 0
0, 0
0, 0
0, 0
0, 0
0, 0
0, 0
0, 0
0, 0
0, 0
0, 0
0, 0
0, 0
0, 0
0, 0
0, 0
0, 0
0, 0
0, 0
0, 0
0, 0
0, 0
0, 0
0, 0
0, 0
0, 0
0, 0
0, 0
0, 0
0, 0
0, 0
0, 0
0, 0
0, 0
0, 0
0, 0
0, 0
0, 0
0, 0
0, 0
0, 0
0, 0
0, 0
0, 0
0, 0
0, 0
0, 0
0, 0
0, 0
0, 0
0, 0
0, 0
0, 0
0, 0
0, 0
0, 0
0, 0
0, 0
0, 0
0, 0
0, 0
0, 0
0, 0
0, 0
0, 0
0, 0
0, 0
0, 0
0, 0
0, 0
0, 0
0, 0
0, 0
0, 0
0, 0
0, 0
0, 0
0, 0
0, 0
0, 0
0, 0
0, 0
0, 0
0, 0
0, 0
0, 0
0, 0
0, 0
0, 0
0, 0
0, 0
0, 0
0, 0
0, 0
0, 0
0, 0
0, 0
0, 0
0, 0
0, 0
0, 0
0, 0
0, 0
0, 0
0, 0
0, 0
0, 0
0, 0
0, 0
0, 0
0, 0
0, 0
0, 0
0, 0
0, 0
0, 0
0, 0
0, 0
0, 0
0, 0
0, 0
0, 0
0, 0
0, 0
0, 0
0, 0
0, 0
0, 0
0, 0
0, 0
0, 0
0, 0
0, 0
0, 0
0, 0
0, 0
0, 0
0, 0
0, 0
0, 0
0, 0
0, 0
0, 0
0, 0
0, 0
0, 0
0, 0
0, 0
0, 0
0, 0
0, 0
0, 0
0, 0
0, 0
0, 0
0, 0
0, 0
0, 0
0, 0
0, 0
0, 0
0, 0
0, 0
0, 0
0, 0
0, 0
0, 0
0, 0
0, 0
0, 0
0, 0
0, 0
0, 0
0, 0
0, 0
0, 0
0, 0
0, 0
0, 0
0, 0
0, 0
0, 0
0, 0
0, 0
0, 0
0, 0
0, 0
0, 0
0, 0
0, 0
0, 0
0, 0
0, 0
0, 0
0, 0
0, 0
0, 0
0, 0
0, 0
0, 0
0, 0
0, 0
0, 0
0, 0
0, 0
0, 0
0, 0
0, 0
0, 0
0, 0
0, 0
0, 0
0, 0
0, 0
0, 0
0, 0
0, 0
0, 0
0, 0
0, 0
0, 0
0, 0
0, 0
0, 0
0, 0
0, 0
0, 0
0, 0
0, 0
0, 0
0, 0
0, 0
0, 0
0, 0
0, 0
0, 0
0, 0
0, 0
0, 0
0, 0
0, 0
0, 0
0, 0
0, 0
0, 0
0, 0
0, 0
0, 0
0, 0
0, 0
0, 0
0, 0
0, 0
0, 0
0, 0
0, 0
0, 0
0, 0
0, 0
0, 0
0, 0
0, 0
0, 0
0, 0
0, 0
0, 0
0, 0
0, 0
0, 0
0, 0
0, 0
0, 0
0, 0
0, 0
0, 0
0, 0
0, 0
0, 0
0, 0
0, 0
0, 0
0, 0
0, 0
0, 0
0, 0
0, 0
0, 0
0, 0
0, 0
0, 0
0, 0
0, 0
0, 0
0, 0
0, 0
0, 0
0, 0
0, 0
0, 0
0, 0
0, 0
0, 0
0, 0
0, 0
0, 0
0, 0
0, 0
0, 0
0, 0
0, 0
0, 0
0, 0
0, 0
0, 0
0, 0
0, 0
0, 0
0, 0
0, 0
0, 0
0, 0
0, 0
0, 0
0, 0
0, 0
0, 0
0, 0
0, 0
0, 0
0, 0
0, 0
0, 0
0, 0
0, 0
0, 0
0, 0
0, 0
0, 0
0, 0
0, 0
0, 0
0, 0
0, 0
0, 0
0, 0
0, 0
0, 0
0, 0
0, 0
0, 0
0, 0
0, 0
0, 0
0, 0
0, 0
0, 0
0, 0
0, 0
0, 0
0, 0
0, 0
0, 0
0, 0
0, 0
0, 0
0, 0
0, 0
0, 0
0, 0
0, 0
0, 0
0, 0
0, 0
#ENDOFDATA     end of spectrum data