File: host_upload/02-11-2024/rqc/uplink1/ps__0567_0717304816_000rfs_shot_472.msa
#FORMAT      : EMSA/MAS spectral data file
#VERSION     : TC202v2.0 PIXL
#TITLE       : Novarupta (sol567) subset1
#DATE        : 02-11-2024      Date in the format DD-MMM-YYYY, for example 07-JUL-2010
#TIME        :             The time of day at which the spectrum was recorded, in 24-hour format
#OWNER       : PIXL Flight Model       (PIXL will use this to indicate which instrument took the data.)
#NPOINTS     : 4096     Number of data points in the spectrum (This can be zero for configuration only files)
#NCOLUMNS    : 2     Number of data columns in the spectrum (This can be zero for configuration only files)
#XUNITS      : eV
#YUNITS      : COUNTS
#DATATYPE    : YY
#XPERCHAN    : 7.862, 7.881   eV per channel (separate by commas if more than one detector)
#OFFSET      : 18.5, -22.4         eV of first channel  (separate by commas if more than one detector
#SIGNALTYPE  : XRF
#YP_TEMP     : 1.754
#LIVETIME    : 8.83716, 8.80729   seconds (separate by commas if more than one detector)
#REALTIME    : 10, 10.0   seconds (separate by commas if more than one detector)
#SPECTRUM    : start of spectrum data
0, 0
0, 0
0, 0
0, 0
0, 0
0, 0
0, 0
0, 0
0, 0
0, 0
0, 0
0, 0
0, 0
0, 0
0, 0
0, 0
0, 0
0, 0
0, 0
0, 0
0, 0
0, 0
0, 0
0, 0
0, 0
0, 0
0, 0
0, 0
0, 0
0, 0
0, 0
0, 0
0, 0
1, 0
0, 1
1, 2
3, 1
2, 8
2, 3
0, 2
4, 6
2, 2
0, 3
2, 5
1, 3
3, 3
8, 3
3, 1
5, 4
3, 8
3, 7
6, 8
11, 9
18, 18
21, 30
15, 17
10, 11
10, 5
11, 8
12, 7
13, 18
19, 26
38, 33
36, 52
54, 60
48, 42
37, 33
34, 41
37, 52
50, 56
75, 118
178, 233
270, 303
420, 441
463, 513
481, 503
414, 471
315, 403
240, 220
143, 138
68, 72
48, 49
24, 42
30, 34
27, 37
28, 38
34, 35
33, 36
25, 31
17, 22
17, 22
16, 23
28, 24
29, 44
61, 73
121, 142
194, 221
240, 279
317, 314
292, 336
250, 287
202, 213
153, 135
109, 101
61, 83
53, 47
51, 59
47, 73
77, 102
113, 146
164, 176
224, 208
251, 237
235, 251
177, 221
158, 196
103, 124
88, 121
84, 87
73, 81
70, 93
80, 70
42, 54
60, 53
36, 55
34, 42
34, 28
24, 31
14, 18
22, 19
6, 10
3, 9
7, 8
6, 6
6, 9
2, 5
3, 11
7, 15
22, 16
15, 33
25, 35
26, 26
20, 29
18, 32
14, 31
14, 16
10, 7
12, 3
14, 12
18, 22
16, 31
45, 55
69, 107
139, 161
214, 257
237, 324
337, 400
359, 427
330, 409
310, 328
215, 259
150, 171
86, 110
65, 69
45, 34
22, 27
20, 24
31, 38
47, 42
57, 56
45, 61
51, 70
63, 59
42, 43
37, 44
20, 25
20, 26
14, 12
10, 9
11, 10
7, 6
6, 12
9, 8
9, 13
11, 12
20, 13
20, 21
21, 31
29, 41
38, 50
44, 56
59, 67
58, 69
52, 76
50, 46
36, 35
39, 35
22, 32
20, 31
22, 22
15, 17
8, 21
12, 17
12, 15
12, 14
14, 14
11, 16
19, 19
11, 16
18, 13
15, 18
16, 19
18, 13
17, 15
10, 8
13, 14
16, 10
11, 7
12, 12
12, 15
11, 10
11, 14
13, 6
6, 8
11, 19
22, 16
19, 29
15, 21
22, 37
27, 37
26, 37
33, 28
24, 22
18, 32
20, 16
15, 24
19, 21
10, 13
14, 11
6, 14
15, 19
14, 16
13, 18
21, 11
11, 13
12, 28
19, 20
32, 37
40, 47
42, 38
32, 50
40, 48
49, 64
46, 56
36, 39
30, 32
28, 21
17, 19
23, 14
14, 18
24, 28
19, 35
35, 44
63, 89
133, 157
203, 289
337, 460
520, 735
811, 1073
1062, 1490
1347, 1752
1580, 1879
1622, 1971
1629, 1795
1425, 1537
1196, 1209
864, 832
612, 554
377, 326
206, 203
126, 110
58, 60
47, 40
37, 30
15, 22
15, 21
15, 21
15, 16
12, 19
13, 20
19, 19
30, 30
45, 42
60, 58
76, 108
124, 147
148, 166
197, 233
215, 272
305, 303
265, 300
260, 258
228, 229
186, 163
156, 126
108, 83
51, 58
43, 40
21, 23
16, 15
5, 13
9, 7
5, 11
5, 12
8, 11
7, 9
11, 16
9, 15
16, 10
16, 9
13, 13
15, 12
9, 15
10, 8
11, 2
6, 7
12, 7
6, 6
1, 7
13, 5
5, 3
5, 7
6, 6
8, 11
5, 7
6, 6
4, 6
5, 6
6, 5
7, 7
7, 8
6, 4
10, 9
4, 8
7, 20
10, 11
7, 5
7, 14
8, 7
5, 5
7, 6
10, 11
7, 9
7, 6
7, 3
6, 5
7, 5
14, 2
4, 9
5, 4
3, 6
10, 8
7, 7
9, 7
9, 14
10, 7
11, 13
5, 12
7, 9
12, 14
14, 13
7, 10
12, 10
10, 6
7, 6
5, 2
4, 9
4, 3
2, 5
8, 4
3, 6
5, 7
4, 6
6, 10
3, 7
3, 7
6, 5
6, 6
7, 4
8, 3
8, 3
3, 7
1, 4
4, 6
5, 2
1, 6
5, 10
3, 6
6, 5
3, 2
4, 2
5, 3
4, 12
8, 7
2, 7
4, 5
5, 2
6, 4
9, 4
5, 1
4, 3
3, 8
8, 6
7, 8
2, 2
8, 3
3, 4
2, 3
6, 1
1, 5
7, 1
8, 1
4, 3
2, 6
4, 7
6, 5
3, 6
5, 5
2, 1
4, 5
3, 10
6, 3
3, 5
2, 4
5, 2
7, 1
2, 5
2, 7
3, 3
1, 5
6, 5
4, 9
5, 2
1, 2
2, 2
3, 5
2, 5
0, 3
6, 4
5, 2
5, 6
3, 2
4, 7
3, 5
3, 2
7, 6
5, 5
6, 1
3, 6
3, 5
2, 6
4, 3
4, 6
0, 2
4, 6
2, 4
3, 2
6, 5
0, 4
1, 4
1, 2
3, 2
6, 1
2, 5
6, 1
1, 2
2, 2
1, 0
1, 5
2, 2
0, 2
1, 6
4, 1
1, 6
0, 2
3, 4
4, 2
0, 4
3, 1
2, 3
2, 2
4, 1
5, 4
2, 4
1, 2
0, 1
1, 1
3, 6
2, 3
3, 1
1, 1
6, 4
3, 4
2, 4
1, 3
4, 2
3, 1
2, 0
1, 1
1, 2
3, 2
0, 4
1, 1
3, 1
6, 4
1, 2
1, 2
3, 1
4, 3
1, 2
2, 3
2, 1
1, 3
2, 0
3, 6
3, 3
1, 3
2, 3
2, 5
2, 3
1, 2
2, 1
1, 4
2, 2
2, 3
2, 3
0, 3
1, 4
3, 3
2, 2
1, 5
1, 1
2, 5
2, 2
5, 2
2, 1
0, 5
1, 3
2, 1
5, 1
1, 1
3, 1
0, 3
1, 5
1, 2
0, 6
1, 2
1, 1
1, 1
1, 1
0, 2
0, 2
0, 2
1, 0
1, 2
1, 1
1, 4
1, 3
1, 2
1, 1
4, 4
0, 2
3, 2
1, 3
1, 1
3, 1
1, 3
0, 0
1, 1
1, 1
1, 1
1, 2
0, 2
0, 1
0, 4
0, 2
2, 1
1, 1
0, 1
3, 0
1, 2
1, 3
1, 0
3, 2
3, 1
1, 0
1, 0
1, 0
0, 2
0, 1
1, 2
0, 1
2, 2
0, 0
2, 0
1, 0
0, 3
0, 2
0, 2
1, 0
0, 3
0, 1
1, 0
0, 0
1, 3
0, 0
1, 2
0, 0
1, 0
2, 0
1, 2
1, 0
0, 1
1, 2
0, 0
0, 1
0, 0
1, 3
1, 0
0, 0
0, 1
2, 0
0, 1
1, 0
1, 0
0, 0
0, 1
0, 0
0, 4
0, 0
1, 1
0, 3
0, 1
0, 0
4, 2
1, 0
2, 1
0, 0
0, 1
0, 1
1, 0
0, 0
0, 2
0, 0
0, 2
1, 0
1, 1
1, 0
0, 1
1, 1
0, 2
0, 0
2, 0
1, 1
0, 0
0, 1
0, 1
0, 0
1, 2
0, 1
1, 0
0, 0
2, 0
1, 0
0, 0
0, 2
1, 0
0, 0
0, 0
0, 1
0, 0
0, 0
0, 1
0, 1
1, 1
0, 0
1, 1
1, 0
1, 1
0, 0
0, 0
1, 0
0, 0
1, 0
0, 0
0, 1
0, 1
0, 0
0, 0
1, 2
1, 0
1, 0
1, 2
1, 2
0, 0
2, 0
1, 0
1, 0
0, 0
2, 0
1, 0
1, 0
0, 1
0, 0
0, 0
0, 0
0, 2
0, 1
0, 1
1, 1
0, 1
0, 0
1, 0
0, 0
0, 0
0, 0
0, 1
1, 1
0, 0
0, 0
0, 1
0, 1
0, 0
0, 0
0, 0
0, 0
0, 1
0, 0
0, 0
0, 1
1, 0
0, 0
0, 1
0, 1
0, 0
0, 0
0, 1
0, 1
1, 0
0, 0
1, 0
0, 0
0, 0
0, 1
0, 0
0, 0
0, 0
0, 0
0, 0
0, 1
0, 1
0, 0
0, 0
0, 0
0, 0
0, 0
0, 0
0, 1
0, 0
1, 0
0, 0
1, 1
0, 0
0, 0
0, 0
0, 0
0, 1
1, 0
0, 0
1, 0
0, 0
2, 0
0, 1
1, 1
0, 0
0, 0
0, 0
0, 0
0, 1
0, 0
1, 0
0, 0
0, 0
0, 0
1, 0
1, 0
0, 0
1, 0
0, 0
1, 1
1, 0
0, 0
0, 0
0, 1
0, 0
0, 0
0, 2
0, 1
0, 0
0, 0
0, 1
0, 0
0, 1
1, 0
0, 0
0, 0
0, 0
0, 0
0, 0
0, 0
0, 0
0, 0
0, 0
0, 0
1, 0
0, 0
0, 0
0, 0
1, 0
0, 0
0, 0
0, 0
0, 0
0, 0
0, 0
0, 0
0, 0
0, 0
0, 1
0, 0
0, 0
0, 0
0, 0
0, 1
0, 0
0, 0
0, 0
0, 0
0, 1
0, 0
0, 0
1, 0
1, 0
0, 0
0, 0
0, 0
1, 0
1, 0
1, 0
0, 0
1, 0
0, 1
0, 0
0, 0
0, 0
0, 0
0, 0
0, 0
0, 0
0, 1
0, 0
0, 1
0, 0
0, 0
0, 0
0, 0
0, 0
0, 0
0, 0
0, 0
1, 0
0, 0
0, 0
0, 0
1, 0
0, 0
0, 0
0, 0
0, 0
0, 0
0, 0
0, 0
0, 0
0, 0
0, 0
0, 0
0, 0
0, 0
0, 0
0, 0
0, 0
0, 0
1, 0
0, 0
0, 0
0, 1
0, 0
0, 0
0, 0
0, 0
0, 0
0, 0
0, 0
0, 0
0, 0
0, 0
0, 0
1, 0
0, 0
0, 0
0, 0
0, 0
0, 0
0, 0
0, 0
0, 0
0, 0
0, 0
0, 0
0, 0
0, 0
0, 0
0, 0
0, 0
0, 0
0, 0
0, 0
0, 0
0, 0
0, 0
0, 0
1, 0
0, 0
0, 0
0, 0
0, 0
0, 0
0, 0
0, 0
0, 0
0, 0
0, 0
0, 0
0, 0
0, 0
0, 0
0, 1
0, 0
0, 0
1, 0
0, 0
0, 0
0, 0
0, 0
1, 0
0, 0
0, 0
0, 0
0, 0
0, 0
0, 0
0, 0
0, 1
0, 0
0, 0
0, 0
0, 0
0, 0
0, 0
0, 0
0, 0
0, 0
0, 0
0, 0
0, 0
0, 1
0, 0
0, 0
0, 0
0, 0
0, 0
0, 0
0, 0
0, 0
0, 0
0, 0
0, 0
0, 0
0, 0
0, 0
0, 0
0, 0
0, 0
0, 0
0, 0
0, 0
0, 0
0, 0
0, 0
0, 0
0, 0
0, 0
0, 0
0, 0
0, 0
0, 0
0, 0
0, 0
0, 0
0, 0
0, 0
0, 0
0, 0
0, 0
0, 0
0, 0
0, 0
0, 0
0, 0
0, 0
0, 0
0, 0
0, 0
0, 0
0, 0
0, 0
0, 0
0, 0
0, 0
0, 0
0, 0
0, 0
0, 0
0, 0
0, 0
0, 0
0, 0
0, 0
0, 0
0, 0
0, 0
0, 0
0, 0
0, 0
0, 0
0, 0
0, 0
0, 0
0, 0
0, 0
0, 0
0, 0
0, 0
0, 0
0, 0
0, 0
0, 0
0, 0
0, 0
0, 0
0, 0
0, 0
0, 0
0, 0
0, 0
0, 0
0, 0
0, 0
0, 0
0, 0
0, 0
0, 0
0, 0
0, 0
0, 0
0, 0
0, 0
0, 0
0, 0
0, 0
0, 0
0, 0
0, 0
0, 0
0, 0
0, 0
0, 0
0, 0
0, 0
0, 0
0, 0
0, 0
0, 0
0, 0
0, 0
0, 0
0, 0
0, 0
0, 0
0, 0
0, 0
0, 0
0, 0
0, 0
0, 0
0, 0
0, 0
0, 0
0, 0
0, 0
0, 0
0, 0
0, 0
0, 0
0, 0
0, 0
0, 0
0, 0
0, 0
0, 0
0, 0
0, 0
0, 0
0, 0
0, 0
0, 0
0, 0
0, 0
0, 0
0, 0
0, 0
0, 0
0, 0
0, 0
0, 0
0, 0
0, 0
0, 0
0, 0
0, 0
0, 0
0, 0
0, 0
0, 0
0, 0
0, 0
0, 0
0, 0
0, 0
0, 0
0, 0
0, 0
0, 0
0, 0
0, 0
0, 0
0, 0
0, 0
0, 0
0, 0
0, 0
0, 0
0, 0
0, 0
0, 0
0, 0
0, 0
0, 0
0, 0
0, 0
0, 0
0, 0
0, 0
0, 0
0, 0
0, 0
0, 0
0, 0
0, 0
0, 0
0, 0
0, 0
0, 0
0, 0
0, 0
0, 0
0, 0
0, 0
0, 0
0, 0
0, 0
0, 0
0, 0
0, 0
0, 0
0, 0
0, 0
0, 0
0, 0
0, 0
0, 0
0, 0
0, 0
0, 0
0, 0
0, 0
0, 0
0, 0
0, 0
0, 0
0, 0
0, 0
0, 0
0, 0
0, 0
0, 0
0, 0
0, 0
0, 0
0, 0
0, 0
0, 0
0, 0
0, 0
0, 0
0, 0
0, 0
0, 0
0, 0
0, 0
0, 0
0, 0
0, 0
0, 0
0, 0
0, 0
0, 0
0, 0
0, 0
0, 0
0, 0
0, 0
0, 0
0, 0
0, 0
0, 0
0, 0
0, 0
0, 0
0, 0
0, 0
0, 0
0, 0
0, 0
0, 0
0, 0
0, 0
0, 0
0, 0
0, 0
0, 0
0, 0
0, 0
0, 0
0, 0
0, 0
0, 0
0, 0
0, 0
0, 0
0, 0
0, 0
0, 0
0, 0
0, 0
0, 0
0, 0
0, 0
0, 0
0, 0
0, 0
0, 0
0, 0
0, 0
0, 0
0, 0
0, 0
0, 0
0, 0
0, 0
0, 0
0, 0
0, 0
0, 0
0, 0
0, 0
0, 0
0, 0
0, 0
0, 0
0, 0
0, 0
0, 0
0, 0
0, 0
0, 0
0, 0
0, 0
0, 0
0, 0
0, 0
0, 0
0, 0
0, 0
0, 0
0, 0
0, 0
0, 0
0, 0
0, 0
0, 0
0, 0
0, 0
0, 0
0, 0
0, 0
0, 0
0, 0
0, 0
0, 0
0, 0
0, 0
0, 0
0, 0
0, 0
0, 0
0, 0
0, 0
0, 0
0, 0
0, 0
0, 0
0, 0
0, 0
0, 0
0, 0
0, 0
0, 0
0, 0
0, 0
0, 0
0, 0
0, 0
0, 0
0, 0
0, 0
#ENDOFDATA     end of spectrum data