File: host_upload/02-11-2024/rqc/uplink1/ps__0567_0717304816_000rfs_shot_306.msa
#FORMAT      : EMSA/MAS spectral data file
#VERSION     : TC202v2.0 PIXL
#TITLE       : Novarupta (sol567) subset1
#DATE        : 02-11-2024      Date in the format DD-MMM-YYYY, for example 07-JUL-2010
#TIME        :             The time of day at which the spectrum was recorded, in 24-hour format
#OWNER       : PIXL Flight Model       (PIXL will use this to indicate which instrument took the data.)
#NPOINTS     : 4096     Number of data points in the spectrum (This can be zero for configuration only files)
#NCOLUMNS    : 2     Number of data columns in the spectrum (This can be zero for configuration only files)
#XUNITS      : eV
#YUNITS      : COUNTS
#DATATYPE    : YY
#XPERCHAN    : 7.862, 7.881   eV per channel (separate by commas if more than one detector)
#OFFSET      : 18.5, -22.4         eV of first channel  (separate by commas if more than one detector
#SIGNALTYPE  : XRF
#YP_TEMP     : 1.466
#LIVETIME    : 8.84094, 8.81129   seconds (separate by commas if more than one detector)
#REALTIME    : 10, 10.0   seconds (separate by commas if more than one detector)
#SPECTRUM    : start of spectrum data
0, 0
0, 0
0, 0
0, 0
0, 0
0, 0
0, 0
0, 0
0, 0
0, 0
0, 0
0, 0
0, 0
0, 0
0, 0
0, 0
0, 0
0, 0
0, 0
0, 0
0, 0
0, 0
0, 0
0, 0
0, 0
0, 0
0, 0
0, 0
0, 0
0, 0
0, 0
1, 0
0, 0
1, 0
0, 0
0, 1
0, 0
3, 4
1, 4
3, 7
4, 5
4, 7
0, 7
2, 4
2, 1
1, 7
0, 1
3, 5
3, 3
2, 7
7, 4
8, 7
15, 25
9, 19
21, 24
11, 18
8, 17
6, 8
12, 11
12, 14
13, 21
19, 28
42, 42
44, 58
43, 39
52, 58
31, 36
28, 41
46, 33
42, 83
99, 131
156, 225
241, 355
381, 481
458, 577
459, 526
396, 489
294, 365
214, 229
127, 148
82, 89
49, 54
18, 42
32, 34
30, 30
32, 40
26, 38
28, 26
31, 29
23, 17
15, 16
14, 16
23, 31
40, 55
67, 102
116, 169
164, 243
240, 299
280, 313
319, 348
216, 291
200, 196
168, 162
118, 108
66, 72
50, 60
54, 56
64, 83
99, 106
117, 151
163, 161
208, 234
223, 232
200, 234
167, 222
128, 197
123, 119
105, 119
77, 89
87, 84
68, 94
74, 85
77, 67
61, 63
46, 48
46, 43
30, 38
20, 34
12, 19
11, 18
10, 12
8, 11
7, 4
4, 4
4, 6
7, 12
10, 10
11, 18
9, 20
21, 35
19, 33
34, 40
20, 36
17, 27
20, 19
23, 13
7, 14
11, 11
9, 10
14, 31
17, 28
44, 64
71, 118
109, 179
160, 267
227, 363
293, 399
362, 426
321, 390
289, 343
226, 256
160, 192
102, 122
59, 65
22, 41
25, 35
21, 30
28, 42
45, 45
41, 61
47, 79
59, 58
74, 46
53, 60
44, 35
26, 26
18, 19
12, 18
11, 11
13, 13
9, 10
4, 8
3, 6
12, 16
18, 17
12, 13
11, 11
20, 30
32, 31
38, 58
43, 66
53, 66
58, 72
48, 78
45, 49
44, 41
36, 37
18, 26
16, 35
16, 24
16, 14
12, 14
13, 12
7, 12
9, 17
18, 19
14, 13
20, 19
12, 20
20, 16
21, 15
20, 17
20, 25
14, 7
12, 28
10, 14
13, 13
11, 9
11, 13
11, 13
13, 12
6, 15
11, 18
6, 20
18, 19
23, 21
15, 25
18, 29
32, 26
29, 33
25, 42
29, 49
15, 37
21, 28
19, 13
18, 20
12, 25
7, 7
15, 9
10, 13
4, 12
8, 13
14, 9
11, 20
21, 21
22, 31
18, 20
24, 50
39, 50
40, 51
37, 64
39, 45
47, 42
40, 49
41, 40
28, 21
17, 21
23, 22
14, 24
16, 20
19, 25
22, 47
33, 44
52, 100
98, 173
189, 298
305, 496
518, 783
846, 1122
1096, 1502
1347, 1812
1550, 1897
1679, 2031
1626, 1867
1485, 1495
1066, 1202
838, 818
596, 565
370, 348
214, 198
115, 115
65, 61
39, 28
23, 23
22, 22
15, 21
16, 13
15, 17
19, 25
18, 21
19, 24
27, 36
39, 50
58, 80
85, 89
106, 150
131, 202
202, 237
223, 268
241, 293
229, 298
250, 255
239, 238
173, 152
134, 150
94, 95
53, 69
34, 33
18, 23
6, 6
11, 20
9, 8
3, 9
6, 11
10, 8
10, 13
11, 11
12, 15
10, 14
18, 13
12, 8
8, 10
7, 10
8, 10
5, 4
9, 3
2, 7
3, 7
6, 3
7, 7
5, 11
7, 4
10, 10
6, 6
4, 8
1, 6
4, 7
5, 3
3, 9
4, 11
5, 8
3, 8
6, 11
8, 5
5, 10
6, 8
8, 9
6, 9
4, 12
12, 7
3, 9
10, 8
8, 10
8, 4
9, 6
4, 4
5, 5
7, 4
9, 7
1, 8
6, 6
4, 11
3, 8
12, 8
6, 7
7, 15
9, 10
7, 15
15, 13
11, 8
9, 10
7, 6
8, 7
7, 6
6, 5
4, 6
5, 6
7, 6
2, 10
5, 6
3, 5
1, 6
4, 13
6, 5
5, 5
4, 7
3, 5
2, 5
5, 7
3, 5
5, 4
4, 11
7, 4
2, 6
8, 6
4, 6
7, 9
7, 8
1, 6
6, 9
5, 8
5, 6
5, 6
5, 4
3, 8
7, 5
4, 5
1, 4
5, 7
5, 6
5, 2
3, 7
4, 5
3, 1
7, 5
6, 6
5, 3
8, 2
3, 2
1, 8
4, 5
6, 5
7, 6
6, 9
5, 2
0, 3
9, 4
7, 2
5, 8
4, 3
2, 4
5, 5
6, 8
4, 1
5, 3
0, 4
4, 1
1, 7
7, 2
2, 4
5, 3
8, 5
3, 4
3, 3
2, 2
7, 5
3, 7
3, 6
1, 3
2, 5
1, 2
5, 4
4, 4
5, 1
3, 3
2, 5
4, 6
1, 4
1, 2
3, 6
4, 5
1, 2
3, 6
2, 2
2, 7
4, 3
2, 5
4, 4
5, 0
0, 4
1, 8
0, 3
0, 5
1, 2
3, 3
3, 4
3, 2
3, 7
3, 2
1, 2
1, 0
4, 6
0, 0
6, 1
3, 3
1, 1
2, 1
2, 3
0, 5
4, 2
3, 4
0, 4
4, 2
5, 4
3, 0
3, 2
0, 4
2, 2
3, 3
2, 3
2, 2
2, 1
1, 5
1, 4
1, 4
1, 0
5, 1
2, 0
4, 1
1, 6
2, 1
2, 4
0, 4
1, 0
0, 1
2, 3
2, 1
2, 0
1, 7
1, 2
1, 1
3, 3
5, 1
2, 1
1, 2
4, 2
2, 1
1, 1
5, 4
4, 2
1, 4
1, 2
1, 1
1, 2
3, 3
2, 5
1, 3
2, 6
2, 4
2, 6
4, 3
1, 2
4, 8
2, 3
1, 3
1, 2
2, 1
1, 1
0, 0
2, 1
0, 0
2, 2
2, 0
1, 5
3, 3
4, 2
4, 1
1, 3
1, 3
0, 0
1, 0
0, 1
4, 0
3, 3
3, 1
2, 3
2, 1
0, 3
5, 1
0, 2
0, 2
2, 3
1, 0
3, 0
2, 2
3, 5
0, 3
2, 3
2, 1
2, 3
1, 0
1, 2
0, 2
1, 0
0, 1
0, 1
4, 1
3, 2
3, 2
2, 1
1, 1
0, 2
0, 1
0, 2
2, 1
1, 0
2, 2
0, 2
0, 3
0, 1
0, 1
0, 0
0, 1
2, 0
2, 1
3, 0
1, 1
1, 2
1, 4
0, 1
1, 0
1, 0
0, 2
2, 0
0, 0
0, 2
2, 0
0, 0
0, 0
1, 1
0, 1
0, 0
0, 1
1, 0
0, 2
1, 1
0, 0
2, 1
0, 0
1, 0
3, 2
0, 0
0, 0
1, 2
0, 0
2, 0
1, 2
2, 0
0, 1
0, 0
0, 1
0, 2
0, 1
1, 0
0, 0
0, 1
1, 0
1, 0
0, 0
2, 0
0, 0
0, 0
1, 0
1, 0
2, 1
0, 0
0, 2
1, 0
0, 1
0, 0
0, 2
0, 0
2, 0
1, 0
0, 1
3, 0
0, 3
0, 1
1, 0
1, 0
1, 0
0, 1
0, 0
1, 0
1, 0
0, 1
0, 1
1, 1
0, 0
0, 1
0, 1
1, 2
0, 1
0, 2
1, 2
0, 1
1, 0
0, 0
0, 0
1, 0
0, 1
0, 2
1, 0
1, 0
0, 0
0, 0
0, 0
1, 0
1, 1
0, 1
0, 1
0, 0
0, 0
0, 0
0, 0
1, 1
1, 0
1, 0
0, 0
0, 0
0, 0
0, 0
0, 0
0, 0
0, 1
0, 0
1, 3
0, 0
0, 0
0, 0
0, 0
1, 0
0, 0
0, 0
0, 0
3, 0
2, 0
0, 0
0, 1
0, 0
0, 1
0, 0
0, 0
0, 0
1, 0
1, 1
0, 0
1, 0
0, 2
0, 1
0, 2
1, 0
0, 0
1, 0
0, 0
0, 0
0, 0
0, 0
0, 0
1, 0
0, 0
1, 0
0, 0
0, 0
0, 1
1, 0
0, 0
0, 0
1, 0
0, 0
2, 0
2, 0
1, 2
0, 0
0, 0
0, 0
1, 0
0, 0
0, 0
0, 0
1, 0
0, 1
0, 0
0, 0
0, 0
0, 0
0, 1
0, 0
0, 1
0, 0
0, 0
1, 0
1, 0
0, 2
1, 0
0, 0
0, 0
0, 0
0, 0
0, 1
0, 1
0, 1
0, 1
0, 1
0, 0
0, 0
0, 0
0, 0
1, 0
0, 0
0, 0
0, 0
0, 0
0, 0
0, 0
0, 0
1, 1
0, 0
0, 1
1, 0
1, 1
0, 1
0, 0
0, 0
0, 1
0, 0
0, 1
1, 0
0, 0
0, 0
0, 0
0, 1
0, 0
1, 0
0, 1
0, 0
0, 0
1, 0
1, 0
0, 0
0, 0
1, 0
1, 0
0, 0
0, 0
1, 0
0, 0
0, 0
0, 0
0, 0
0, 0
0, 1
0, 0
0, 0
0, 0
0, 0
0, 0
0, 0
0, 1
0, 0
0, 0
0, 0
0, 0
0, 0
0, 0
0, 1
0, 0
0, 0
0, 0
1, 0
1, 0
0, 0
0, 0
0, 0
0, 0
0, 0
0, 1
0, 0
0, 0
0, 0
0, 1
0, 0
0, 0
0, 0
0, 0
0, 0
0, 0
0, 0
1, 0
0, 0
0, 0
0, 0
0, 0
0, 0
0, 0
0, 0
0, 0
0, 0
0, 0
0, 0
0, 0
0, 0
0, 0
0, 0
0, 0
0, 0
0, 0
0, 0
0, 0
0, 0
0, 0
0, 0
0, 0
0, 0
0, 0
0, 0
0, 0
0, 0
0, 0
0, 0
1, 0
0, 0
0, 0
0, 0
0, 0
0, 0
0, 0
0, 1
0, 0
0, 0
0, 0
0, 0
0, 0
0, 0
0, 0
0, 0
0, 0
0, 0
0, 0
0, 0
0, 0
0, 0
0, 0
0, 0
0, 0
0, 0
0, 0
0, 0
0, 0
0, 0
0, 0
0, 0
0, 0
0, 0
0, 0
0, 0
0, 0
0, 0
0, 0
0, 0
0, 0
0, 0
0, 0
0, 0
0, 0
0, 0
0, 0
0, 0
0, 0
0, 0
0, 0
0, 0
0, 0
0, 0
0, 0
0, 0
1, 0
0, 0
0, 0
0, 0
0, 0
0, 0
0, 0
0, 0
0, 0
0, 0
0, 0
0, 0
0, 0
0, 0
0, 0
0, 0
0, 0
0, 0
0, 0
0, 0
0, 0
0, 0
0, 1
0, 0
0, 0
0, 0
0, 0
0, 0
0, 0
1, 0
0, 0
0, 0
0, 0
0, 0
0, 0
0, 0
0, 0
0, 0
0, 0
0, 0
0, 0
0, 0
0, 0
0, 0
0, 0
0, 0
0, 0
0, 0
0, 0
0, 0
0, 0
0, 0
0, 0
0, 0
0, 0
0, 0
0, 0
0, 0
0, 0
0, 0
0, 0
0, 0
0, 0
0, 0
0, 0
0, 0
0, 0
0, 0
0, 0
0, 0
0, 0
0, 0
0, 0
0, 0
0, 0
0, 0
0, 0
0, 0
0, 0
0, 0
0, 0
0, 0
0, 0
0, 0
0, 0
0, 0
0, 0
0, 0
0, 0
0, 0
0, 0
0, 0
0, 0
0, 0
0, 0
0, 0
0, 0
0, 0
0, 0
0, 0
0, 0
0, 0
0, 0
0, 0
0, 0
0, 0
0, 0
0, 0
0, 0
0, 0
0, 0
0, 0
0, 0
0, 0
0, 0
0, 0
0, 0
0, 0
0, 0
0, 0
0, 0
0, 0
0, 0
0, 0
0, 0
0, 0
0, 0
0, 0
0, 0
0, 0
0, 0
0, 0
0, 0
0, 0
0, 0
0, 0
0, 0
0, 0
0, 0
0, 0
0, 0
0, 0
0, 0
0, 0
0, 0
0, 0
0, 0
0, 0
0, 0
0, 0
0, 0
0, 0
0, 0
0, 0
0, 0
0, 0
0, 0
0, 0
0, 0
0, 0
0, 0
0, 0
0, 0
0, 0
0, 0
0, 0
0, 0
0, 0
0, 0
0, 0
0, 0
0, 0
0, 0
0, 0
0, 0
0, 0
0, 0
0, 0
0, 0
0, 0
0, 0
0, 0
0, 0
0, 0
0, 0
0, 0
0, 0
0, 0
0, 0
0, 0
0, 0
0, 0
0, 0
0, 0
0, 0
0, 0
0, 0
0, 0
0, 0
0, 0
0, 0
0, 0
0, 0
0, 0
0, 0
0, 0
0, 0
0, 0
0, 0
0, 0
0, 0
0, 0
0, 0
0, 0
0, 0
0, 0
0, 0
0, 0
0, 0
0, 0
0, 0
0, 0
0, 0
0, 0
0, 0
0, 0
0, 0
0, 0
0, 0
0, 0
0, 0
0, 0
0, 0
0, 0
0, 0
0, 0
0, 0
0, 0
0, 0
0, 0
0, 0
0, 0
0, 0
0, 0
0, 0
0, 0
0, 0
0, 0
0, 0
0, 0
0, 0
0, 0
0, 0
0, 0
0, 0
0, 0
0, 0
0, 0
0, 0
0, 0
0, 0
0, 0
0, 0
0, 0
0, 0
0, 0
0, 0
0, 0
0, 0
0, 0
0, 0
0, 0
0, 0
0, 0
0, 0
0, 0
0, 0
0, 0
0, 0
0, 0
0, 0
0, 0
0, 0
0, 0
0, 0
0, 0
0, 0
0, 0
0, 0
0, 0
0, 0
0, 0
0, 0
0, 0
0, 0
0, 0
0, 0
0, 0
0, 0
0, 0
0, 0
0, 0
0, 0
0, 0
0, 0
0, 0
0, 0
0, 0
0, 0
0, 0
0, 0
0, 0
0, 0
0, 0
0, 0
0, 0
0, 0
0, 0
0, 0
0, 0
0, 0
0, 0
0, 0
0, 0
0, 0
0, 0
0, 0
0, 0
0, 0
0, 0
0, 0
0, 0
0, 0
0, 0
0, 0
0, 0
0, 0
0, 0
0, 0
0, 0
0, 0
0, 0
0, 0
0, 0
0, 0
0, 0
0, 0
0, 0
0, 0
0, 0
0, 0
0, 0
0, 0
0, 0
0, 0
0, 0
0, 0
0, 0
0, 0
0, 0
0, 0
0, 0
0, 0
0, 0
0, 0
0, 0
0, 0
0, 0
0, 0
0, 0
0, 0
0, 0
0, 0
0, 0
0, 0
0, 0
0, 0
0, 0
0, 0
0, 0
0, 0
0, 0
0, 0
0, 0
0, 0
0, 0
0, 0
0, 0
0, 0
0, 0
0, 0
0, 0
0, 0
0, 0
0, 0
0, 0
0, 0
0, 0
0, 0
0, 0
#ENDOFDATA     end of spectrum data