File: host_upload/02-11-2024/rqc/uplink1/ps__0567_0717304816_000rfs_shot_485.msa
#FORMAT      : EMSA/MAS spectral data file
#VERSION     : TC202v2.0 PIXL
#TITLE       : Novarupta (sol567) subset1
#DATE        : 02-11-2024      Date in the format DD-MMM-YYYY, for example 07-JUL-2010
#TIME        :             The time of day at which the spectrum was recorded, in 24-hour format
#OWNER       : PIXL Flight Model       (PIXL will use this to indicate which instrument took the data.)
#NPOINTS     : 4096     Number of data points in the spectrum (This can be zero for configuration only files)
#NCOLUMNS    : 2     Number of data columns in the spectrum (This can be zero for configuration only files)
#XUNITS      : eV
#YUNITS      : COUNTS
#DATATYPE    : YY
#XPERCHAN    : 7.862, 7.881   eV per channel (separate by commas if more than one detector)
#OFFSET      : 18.5, -22.4         eV of first channel  (separate by commas if more than one detector
#SIGNALTYPE  : XRF
#YP_TEMP     : 2.267
#LIVETIME    : 8.83497, 8.80462   seconds (separate by commas if more than one detector)
#REALTIME    : 10, 10.0   seconds (separate by commas if more than one detector)
#SPECTRUM    : start of spectrum data
0, 0
0, 0
0, 0
0, 0
0, 0
0, 0
0, 0
0, 0
0, 0
0, 0
0, 0
0, 0
0, 0
0, 0
0, 0
0, 0
0, 0
0, 0
0, 0
0, 0
0, 0
0, 0
0, 0
0, 0
0, 0
0, 0
0, 0
0, 0
0, 0
0, 1
0, 0
0, 0
0, 0
0, 0
2, 0
1, 1
2, 8
1, 3
1, 3
2, 3
4, 7
2, 3
3, 3
4, 4
3, 3
5, 4
5, 2
4, 4
2, 5
5, 5
4, 3
15, 10
15, 14
20, 14
19, 19
17, 14
17, 17
8, 11
11, 12
7, 9
13, 11
31, 29
30, 46
37, 48
49, 56
40, 58
28, 45
37, 41
19, 36
61, 55
100, 146
184, 250
279, 367
379, 476
453, 538
441, 558
411, 432
328, 346
197, 240
134, 144
83, 93
53, 50
32, 32
23, 37
25, 45
38, 43
40, 31
34, 31
21, 18
20, 15
20, 15
17, 24
23, 23
32, 47
92, 87
108, 140
215, 207
254, 281
306, 341
265, 352
296, 323
204, 263
173, 189
105, 97
71, 58
48, 52
56, 65
64, 71
83, 96
123, 156
170, 210
215, 255
209, 269
209, 255
180, 246
167, 191
135, 143
117, 112
108, 105
75, 93
53, 82
80, 86
71, 70
59, 56
56, 42
37, 41
26, 35
25, 28
15, 16
18, 16
11, 14
13, 9
10, 5
7, 9
10, 4
6, 14
16, 13
13, 17
15, 18
21, 32
20, 30
22, 35
21, 26
23, 29
18, 19
9, 10
12, 16
17, 14
14, 12
11, 19
33, 28
39, 57
90, 98
115, 166
179, 259
252, 335
315, 422
348, 424
302, 424
308, 333
225, 279
165, 172
94, 126
63, 56
38, 45
27, 27
21, 27
19, 39
39, 60
41, 56
54, 48
51, 66
64, 66
48, 45
40, 30
30, 29
17, 23
16, 16
11, 6
7, 15
8, 6
12, 9
5, 15
9, 6
11, 10
8, 14
16, 16
20, 25
33, 33
31, 52
35, 48
43, 63
49, 63
48, 58
42, 59
34, 45
30, 29
33, 28
19, 27
17, 18
13, 20
13, 17
15, 11
8, 11
6, 10
10, 16
18, 18
14, 17
18, 21
17, 26
18, 19
20, 15
15, 25
16, 22
16, 15
7, 10
14, 11
15, 14
12, 10
15, 12
5, 8
10, 12
3, 14
14, 11
11, 20
20, 28
13, 26
23, 30
36, 29
32, 31
22, 34
28, 46
26, 25
19, 27
21, 27
17, 27
10, 17
16, 17
10, 13
7, 16
17, 7
7, 17
9, 19
16, 14
10, 11
19, 30
25, 20
21, 37
40, 34
48, 55
37, 52
48, 50
43, 72
36, 45
35, 36
29, 39
24, 24
20, 22
14, 22
18, 19
21, 26
18, 22
33, 34
50, 89
110, 166
222, 296
316, 492
514, 762
798, 1090
1086, 1393
1362, 1747
1562, 1970
1654, 2028
1545, 1848
1338, 1526
1167, 1221
798, 858
628, 569
365, 348
246, 189
108, 122
59, 61
33, 26
26, 24
9, 14
13, 18
17, 19
15, 25
13, 23
18, 11
18, 30
17, 46
46, 44
52, 78
71, 111
98, 143
137, 192
189, 245
228, 256
239, 287
248, 260
213, 272
213, 227
177, 176
111, 122
113, 89
56, 52
32, 32
22, 21
19, 17
4, 7
9, 9
7, 11
5, 13
5, 7
14, 8
13, 12
11, 21
7, 14
10, 15
9, 10
9, 14
9, 7
5, 7
6, 9
7, 5
6, 3
2, 4
5, 7
6, 8
3, 9
6, 6
4, 3
3, 5
2, 8
4, 10
7, 6
4, 4
6, 8
3, 11
4, 7
5, 9
10, 10
11, 5
6, 3
7, 8
2, 5
7, 15
3, 11
7, 8
7, 6
5, 9
5, 8
8, 4
6, 8
4, 14
5, 9
6, 10
8, 4
6, 3
11, 9
6, 11
3, 9
10, 9
11, 14
8, 14
9, 5
10, 10
7, 11
6, 12
12, 13
6, 7
9, 9
8, 15
10, 7
8, 4
5, 5
3, 7
5, 6
4, 4
4, 7
4, 10
5, 6
5, 5
2, 10
8, 6
4, 3
2, 8
8, 7
7, 7
3, 7
3, 5
4, 9
6, 6
7, 5
6, 8
6, 4
9, 4
6, 7
3, 4
8, 6
0, 5
6, 3
1, 9
6, 2
2, 4
11, 5
12, 8
5, 3
7, 5
4, 5
5, 6
2, 1
3, 5
6, 2
7, 5
3, 3
4, 3
3, 6
3, 6
3, 4
6, 5
2, 5
6, 7
3, 4
2, 7
6, 15
3, 6
6, 3
5, 5
4, 1
3, 5
4, 5
3, 4
4, 6
5, 1
4, 1
4, 2
2, 3
4, 5
3, 5
3, 1
4, 3
6, 4
5, 3
3, 3
0, 2
5, 5
2, 3
5, 9
7, 2
4, 4
3, 1
4, 4
4, 8
3, 4
0, 9
7, 2
2, 2
2, 3
3, 2
4, 2
2, 4
4, 6
5, 3
2, 4
4, 5
3, 6
0, 2
2, 6
1, 2
4, 6
3, 7
2, 2
5, 3
5, 6
0, 2
0, 2
2, 1
0, 1
0, 2
3, 3
2, 3
4, 0
3, 3
1, 2
6, 3
0, 1
2, 3
1, 6
2, 5
1, 2
2, 2
0, 3
0, 1
2, 4
2, 2
1, 0
1, 2
2, 4
0, 3
0, 0
4, 5
2, 0
1, 4
2, 5
1, 1
2, 2
1, 1
1, 2
2, 2
1, 2
2, 2
3, 3
3, 5
2, 1
1, 1
3, 2
3, 3
1, 3
5, 5
1, 1
1, 4
2, 1
2, 2
2, 1
2, 0
2, 2
4, 1
0, 1
4, 2
0, 1
0, 2
1, 0
3, 1
1, 3
3, 1
1, 0
4, 0
1, 3
2, 2
1, 4
4, 4
2, 3
7, 2
3, 2
1, 5
3, 2
2, 5
0, 1
1, 3
2, 3
2, 1
2, 1
1, 3
2, 3
2, 2
1, 1
0, 2
2, 1
2, 2
1, 4
2, 2
2, 3
0, 5
6, 1
0, 3
1, 3
0, 1
1, 4
1, 5
2, 0
1, 3
1, 2
4, 3
3, 3
2, 1
1, 0
1, 0
2, 3
0, 1
1, 0
1, 1
0, 0
0, 2
2, 0
2, 0
0, 2
0, 3
0, 3
1, 1
2, 0
1, 0
0, 1
1, 3
2, 1
1, 3
1, 3
2, 1
0, 1
3, 2
0, 0
2, 1
1, 2
3, 1
0, 3
0, 1
1, 0
1, 2
0, 1
1, 0
0, 0
2, 0
1, 2
2, 0
1, 0
0, 0
0, 2
1, 2
0, 1
1, 0
1, 1
0, 1
1, 1
0, 1
1, 1
1, 0
1, 1
0, 1
0, 0
1, 2
0, 0
0, 1
0, 1
2, 1
2, 1
0, 2
0, 1
1, 2
3, 0
0, 0
0, 0
1, 1
0, 0
2, 3
3, 0
1, 1
1, 2
0, 0
0, 1
0, 0
1, 0
1, 1
0, 0
1, 0
0, 0
0, 0
0, 0
2, 0
0, 2
1, 1
0, 0
0, 0
0, 1
4, 1
0, 0
0, 1
0, 0
0, 1
1, 0
1, 1
0, 0
0, 1
0, 0
0, 3
1, 0
0, 0
1, 1
2, 1
0, 0
2, 1
1, 0
0, 0
0, 1
0, 0
0, 1
1, 1
1, 1
1, 1
0, 0
0, 0
0, 1
0, 1
0, 0
0, 1
0, 1
0, 0
0, 1
0, 1
1, 0
0, 2
1, 0
1, 0
1, 0
2, 1
1, 1
0, 1
0, 0
0, 0
0, 0
0, 0
0, 0
0, 0
0, 1
0, 0
0, 0
1, 1
0, 0
0, 0
1, 1
0, 1
0, 0
0, 0
0, 0
0, 0
0, 0
0, 0
0, 0
0, 1
0, 1
0, 0
0, 0
0, 1
0, 1
1, 1
0, 0
0, 0
0, 1
1, 2
0, 0
0, 0
1, 0
1, 3
0, 0
0, 1
0, 0
0, 0
0, 1
1, 0
0, 0
0, 1
1, 0
0, 0
0, 0
0, 1
1, 0
0, 0
1, 1
2, 0
0, 1
0, 0
1, 0
0, 0
0, 2
0, 0
0, 0
0, 0
0, 0
0, 0
0, 0
0, 0
0, 0
0, 0
0, 0
0, 2
0, 0
0, 0
0, 0
0, 1
0, 1
0, 1
2, 0
0, 0
0, 0
0, 1
0, 0
0, 0
0, 1
1, 0
1, 1
0, 1
0, 0
0, 0
0, 0
0, 1
0, 0
0, 1
0, 0
0, 2
1, 1
0, 0
0, 0
0, 1
0, 1
1, 0
0, 0
1, 1
0, 0
0, 1
0, 0
1, 0
0, 1
0, 0
0, 0
0, 0
0, 0
0, 0
0, 1
0, 0
0, 0
1, 0
0, 0
0, 0
0, 0
0, 0
0, 0
0, 0
0, 0
0, 0
0, 0
0, 0
0, 0
1, 0
0, 0
0, 0
0, 0
1, 0
0, 0
0, 0
0, 1
0, 0
0, 0
0, 0
0, 0
0, 0
0, 0
0, 0
0, 0
0, 0
0, 0
0, 0
0, 0
0, 0
1, 0
0, 0
0, 0
0, 0
0, 0
0, 0
1, 0
1, 0
0, 0
1, 0
2, 0
1, 0
0, 0
0, 0
0, 0
0, 1
0, 0
0, 0
0, 0
0, 0
0, 1
0, 0
0, 0
0, 0
0, 1
0, 0
0, 0
0, 0
1, 0
0, 0
0, 0
0, 0
0, 0
0, 0
0, 0
0, 0
0, 0
0, 0
0, 0
0, 0
0, 0
0, 0
0, 0
0, 0
0, 0
0, 0
0, 0
0, 0
0, 0
0, 0
0, 0
0, 0
0, 0
0, 0
0, 0
0, 0
0, 0
1, 0
0, 0
0, 0
1, 0
0, 0
0, 0
0, 0
0, 0
0, 0
0, 1
0, 0
0, 0
0, 0
0, 0
0, 0
0, 0
0, 0
0, 0
0, 0
0, 0
0, 0
0, 0
0, 0
0, 0
0, 0
0, 1
0, 0
0, 0
0, 0
0, 0
0, 0
0, 1
0, 0
0, 0
0, 0
0, 0
0, 0
0, 0
0, 0
0, 0
0, 0
0, 0
0, 0
0, 0
0, 0
0, 0
0, 0
0, 0
0, 0
0, 0
0, 0
0, 0
0, 0
0, 0
0, 0
0, 0
1, 0
0, 0
0, 0
0, 1
0, 0
0, 0
0, 0
0, 1
0, 0
0, 0
0, 0
0, 0
0, 0
0, 0
0, 0
0, 0
0, 0
0, 0
0, 0
0, 0
0, 0
0, 0
0, 0
0, 0
0, 0
0, 0
0, 0
0, 0
0, 0
1, 0
0, 0
0, 0
0, 0
0, 0
1, 0
0, 0
0, 0
0, 0
1, 0
0, 0
0, 0
1, 0
0, 0
0, 0
0, 0
0, 0
0, 0
0, 0
0, 0
0, 0
0, 0
0, 0
0, 0
0, 0
0, 0
0, 0
0, 0
0, 0
0, 0
0, 0
0, 0
0, 0
0, 0
0, 0
0, 0
0, 0
0, 0
0, 0
0, 0
0, 0
0, 0
0, 0
0, 0
0, 0
0, 0
0, 0
0, 0
0, 0
0, 0
0, 0
0, 0
0, 0
0, 0
0, 0
0, 0
0, 0
0, 0
0, 0
0, 0
0, 0
0, 0
0, 0
0, 0
0, 0
0, 0
0, 0
0, 0
0, 0
0, 0
0, 0
0, 0
0, 0
0, 0
0, 0
0, 0
0, 0
0, 0
0, 0
0, 0
0, 0
0, 0
0, 0
0, 0
0, 0
0, 0
0, 0
0, 0
0, 0
0, 0
0, 0
0, 0
0, 0
0, 0
0, 0
0, 0
0, 0
0, 0
0, 0
0, 0
0, 0
0, 0
0, 0
0, 0
0, 0
0, 0
0, 0
0, 0
0, 0
0, 0
0, 0
0, 0
0, 0
0, 0
0, 0
0, 0
0, 0
0, 0
0, 0
0, 0
0, 0
0, 0
0, 0
0, 0
0, 0
0, 0
0, 0
0, 0
0, 0
0, 0
0, 0
0, 0
0, 0
0, 0
0, 0
0, 0
0, 0
0, 0
0, 0
0, 0
0, 0
0, 0
0, 0
0, 0
0, 0
0, 0
0, 0
0, 0
0, 0
0, 0
0, 0
0, 0
0, 0
0, 0
0, 0
0, 0
0, 0
0, 0
0, 0
0, 0
0, 0
0, 0
0, 0
0, 0
0, 0
0, 0
0, 0
0, 0
0, 0
0, 0
0, 0
0, 0
0, 0
0, 0
0, 0
0, 0
0, 0
0, 0
0, 0
0, 0
0, 0
0, 0
0, 0
0, 0
0, 0
0, 0
0, 0
0, 0
0, 0
0, 0
0, 0
0, 0
0, 0
0, 0
0, 0
0, 0
0, 0
0, 0
0, 0
0, 0
0, 0
0, 0
0, 0
0, 0
0, 0
0, 0
0, 0
0, 0
0, 0
0, 0
0, 0
0, 0
0, 0
0, 0
0, 0
0, 0
0, 0
0, 0
0, 0
0, 0
0, 0
0, 0
0, 0
0, 0
0, 0
0, 0
0, 0
0, 0
0, 0
0, 0
0, 0
0, 0
0, 0
0, 0
0, 0
0, 0
0, 0
0, 0
0, 0
0, 0
0, 0
0, 0
0, 0
0, 0
0, 0
0, 0
0, 0
0, 0
0, 0
0, 0
0, 0
0, 0
0, 0
0, 0
0, 0
0, 0
0, 0
0, 0
0, 0
0, 0
0, 0
0, 0
0, 0
0, 0
0, 0
0, 0
0, 0
0, 0
0, 0
0, 0
0, 0
0, 0
0, 0
0, 0
0, 0
0, 0
0, 0
0, 0
0, 0
0, 0
0, 0
0, 0
0, 0
0, 0
0, 0
0, 0
0, 0
0, 0
0, 0
0, 0
0, 0
0, 0
0, 0
0, 0
0, 0
0, 0
0, 0
0, 0
0, 0
0, 0
0, 0
0, 0
0, 0
0, 0
0, 0
0, 0
0, 0
0, 0
0, 0
0, 0
0, 0
0, 0
0, 0
0, 0
0, 0
0, 0
0, 0
0, 0
0, 0
0, 0
0, 0
0, 0
0, 0
0, 0
0, 0
0, 0
0, 0
0, 0
0, 0
0, 0
0, 0
0, 0
0, 0
0, 0
0, 0
0, 0
0, 0
0, 0
0, 0
0, 0
0, 0
0, 0
0, 0
0, 0
0, 0
0, 0
0, 0
0, 0
0, 0
0, 0
0, 0
0, 0
0, 0
0, 0
0, 0
0, 0
0, 0
0, 0
0, 0
0, 0
0, 0
0, 0
0, 0
0, 0
0, 0
0, 0
0, 0
0, 0
0, 0
0, 0
0, 0
#ENDOFDATA     end of spectrum data