File: host_upload/02-11-2024/rqc/uplink1/ps__0567_0717304816_000rfs_shot_56.msa
#FORMAT      : EMSA/MAS spectral data file
#VERSION     : TC202v2.0 PIXL
#TITLE       : Novarupta (sol567) subset1
#DATE        : 02-11-2024      Date in the format DD-MMM-YYYY, for example 07-JUL-2010
#TIME        :             The time of day at which the spectrum was recorded, in 24-hour format
#OWNER       : PIXL Flight Model       (PIXL will use this to indicate which instrument took the data.)
#NPOINTS     : 4096     Number of data points in the spectrum (This can be zero for configuration only files)
#NCOLUMNS    : 2     Number of data columns in the spectrum (This can be zero for configuration only files)
#XUNITS      : eV
#YUNITS      : COUNTS
#DATATYPE    : YY
#XPERCHAN    : 7.862, 7.881   eV per channel (separate by commas if more than one detector)
#OFFSET      : 18.5, -22.4         eV of first channel  (separate by commas if more than one detector
#SIGNALTYPE  : XRF
#YP_TEMP     : -2.511
#LIVETIME    : 8.83034, 8.64083   seconds (separate by commas if more than one detector)
#REALTIME    : 10, 10.0   seconds (separate by commas if more than one detector)
#SPECTRUM    : start of spectrum data
0, 0
0, 0
0, 0
0, 0
0, 0
0, 0
0, 0
0, 0
0, 0
0, 0
0, 0
0, 0
0, 0
0, 0
0, 0
0, 0
0, 0
0, 0
0, 0
0, 0
0, 0
0, 0
0, 0
0, 0
0, 0
0, 0
0, 0
0, 0
0, 0
0, 0
0, 0
0, 0
0, 0
1, 0
0, 1
1, 0
7, 1
1, 8
2, 3
6, 5
7, 2
4, 4
3, 4
1, 5
1, 3
4, 4
3, 4
7, 5
6, 6
3, 8
9, 5
13, 7
17, 14
16, 9
20, 13
15, 20
11, 15
10, 17
12, 11
9, 11
20, 19
36, 36
37, 37
58, 57
51, 59
39, 43
50, 34
44, 43
53, 43
76, 92
131, 145
239, 228
324, 368
414, 452
471, 539
470, 512
423, 437
323, 309
200, 213
146, 125
78, 81
36, 54
43, 43
28, 31
21, 38
38, 34
42, 22
35, 30
21, 28
15, 16
11, 20
14, 25
32, 36
60, 65
110, 95
159, 200
226, 258
295, 345
333, 382
338, 364
279, 283
214, 237
151, 145
115, 99
65, 80
56, 73
61, 50
75, 82
102, 116
131, 181
189, 212
207, 234
202, 241
212, 233
216, 207
160, 189
145, 114
100, 97
97, 110
93, 104
80, 96
78, 50
53, 62
70, 58
45, 36
50, 24
45, 34
32, 25
21, 23
22, 12
11, 12
9, 6
11, 3
3, 10
5, 10
8, 12
9, 16
10, 15
17, 32
31, 27
18, 13
23, 36
33, 25
22, 22
22, 25
19, 15
20, 11
10, 13
18, 8
27, 29
46, 47
53, 73
116, 134
178, 195
273, 290
306, 368
363, 418
373, 432
351, 383
301, 307
235, 240
150, 155
93, 101
52, 48
44, 47
31, 35
29, 44
32, 42
42, 65
70, 61
51, 71
63, 66
52, 57
39, 63
36, 38
24, 20
22, 17
7, 12
6, 8
7, 9
12, 5
6, 5
13, 14
11, 9
11, 11
15, 15
28, 18
24, 26
41, 33
49, 64
47, 71
61, 45
56, 66
58, 55
39, 48
32, 34
32, 29
23, 28
18, 18
16, 15
23, 12
12, 11
11, 15
15, 17
14, 12
6, 12
18, 16
16, 19
23, 19
13, 27
14, 26
20, 17
11, 25
23, 15
11, 19
10, 12
10, 14
12, 9
6, 9
15, 10
12, 11
11, 10
16, 16
14, 21
18, 17
15, 22
25, 23
26, 27
35, 28
32, 29
25, 34
32, 31
30, 34
30, 19
13, 14
18, 13
15, 14
10, 21
8, 15
6, 15
11, 15
12, 16
13, 11
15, 15
22, 21
27, 30
30, 22
39, 46
43, 31
41, 40
53, 53
53, 40
38, 47
31, 42
41, 28
24, 21
17, 21
14, 23
21, 9
24, 19
25, 24
31, 40
60, 66
89, 140
156, 214
307, 342
496, 585
731, 871
1032, 1177
1238, 1468
1476, 1620
1602, 1758
1673, 1711
1534, 1547
1220, 1228
925, 943
709, 612
465, 388
292, 240
178, 166
98, 83
47, 48
30, 33
23, 16
21, 18
19, 20
14, 20
21, 23
20, 17
15, 23
26, 25
41, 44
49, 68
80, 80
97, 117
138, 144
191, 198
239, 272
237, 268
259, 227
247, 254
238, 256
180, 149
128, 146
132, 92
56, 61
56, 36
24, 19
18, 23
21, 16
5, 8
15, 7
7, 5
10, 10
11, 17
9, 17
10, 11
17, 13
10, 17
7, 13
8, 11
6, 8
7, 12
5, 7
7, 9
7, 5
6, 4
6, 6
5, 4
5, 6
5, 3
7, 4
9, 7
7, 4
10, 7
5, 8
4, 4
7, 4
8, 11
2, 6
7, 7
3, 11
5, 11
9, 7
8, 5
6, 11
4, 8
3, 7
9, 11
13, 8
7, 6
4, 10
7, 7
8, 5
5, 1
6, 8
6, 9
10, 8
6, 4
10, 3
6, 3
9, 9
7, 8
6, 9
15, 14
10, 7
7, 14
12, 13
9, 12
7, 8
8, 7
7, 4
9, 8
5, 4
2, 5
9, 4
11, 2
1, 7
6, 6
4, 9
5, 5
4, 8
10, 11
9, 4
2, 4
6, 8
4, 1
6, 6
11, 10
4, 7
5, 10
6, 3
5, 5
5, 2
4, 7
6, 6
2, 4
3, 3
3, 3
5, 3
5, 3
5, 9
7, 2
5, 5
2, 6
5, 7
0, 4
5, 7
4, 6
7, 5
4, 5
6, 9
4, 5
5, 3
4, 2
2, 2
3, 7
4, 6
6, 5
6, 6
5, 2
4, 8
3, 6
7, 8
5, 6
7, 9
3, 7
6, 4
3, 8
5, 5
4, 8
5, 3
5, 4
7, 3
6, 1
1, 5
4, 4
4, 3
4, 3
6, 3
2, 2
3, 4
3, 5
6, 2
1, 3
5, 5
7, 3
3, 7
2, 2
4, 3
8, 6
5, 4
4, 6
5, 5
5, 8
4, 1
4, 7
4, 1
0, 6
1, 7
1, 4
4, 4
4, 5
4, 7
1, 3
1, 0
3, 3
0, 4
2, 1
6, 5
0, 3
3, 6
5, 3
2, 4
2, 1
3, 1
5, 3
4, 3
4, 2
2, 3
3, 4
2, 3
0, 2
4, 1
0, 0
3, 4
2, 3
2, 2
4, 7
1, 2
6, 2
6, 3
0, 0
2, 2
3, 2
1, 2
2, 1
2, 4
3, 3
1, 0
4, 2
1, 3
3, 1
2, 3
1, 10
3, 0
4, 3
2, 5
1, 1
2, 2
1, 3
1, 3
0, 3
3, 3
1, 4
5, 0
1, 3
4, 1
3, 1
2, 1
1, 6
3, 0
2, 5
2, 1
2, 1
4, 3
0, 3
0, 1
4, 1
2, 2
3, 1
2, 2
1, 1
4, 2
3, 7
3, 3
1, 2
3, 5
3, 3
4, 1
2, 2
5, 2
6, 5
4, 3
2, 5
3, 6
3, 1
1, 1
0, 1
1, 2
5, 4
3, 1
2, 2
1, 4
2, 0
3, 1
2, 3
0, 2
1, 2
2, 0
2, 3
1, 1
3, 0
1, 6
1, 4
3, 3
3, 8
2, 1
3, 3
1, 0
2, 1
1, 0
1, 0
3, 0
2, 3
2, 2
3, 0
2, 2
0, 0
2, 0
2, 2
3, 2
0, 0
2, 4
1, 0
2, 1
2, 1
1, 4
4, 2
0, 2
1, 1
1, 0
1, 0
0, 4
0, 2
2, 2
1, 0
1, 1
1, 3
2, 1
0, 4
0, 2
4, 0
2, 4
1, 1
1, 0
1, 1
0, 1
0, 1
0, 0
2, 1
2, 1
0, 1
1, 0
0, 0
1, 1
2, 1
1, 0
1, 0
1, 1
1, 1
2, 1
1, 0
0, 2
1, 2
0, 1
0, 1
1, 1
1, 1
4, 0
1, 1
0, 0
3, 1
0, 1
0, 0
0, 1
1, 0
0, 0
1, 0
1, 0
1, 0
1, 0
2, 2
0, 1
1, 1
1, 2
0, 1
0, 1
1, 0
1, 1
1, 1
1, 0
1, 1
1, 0
1, 0
0, 0
0, 0
0, 0
1, 0
0, 0
0, 1
0, 0
1, 0
0, 0
1, 1
1, 1
1, 0
0, 0
0, 0
0, 0
0, 1
2, 0
0, 0
0, 0
0, 1
1, 0
1, 1
0, 0
0, 0
1, 1
0, 1
0, 1
0, 0
1, 0
0, 0
0, 0
0, 1
0, 0
1, 1
0, 0
1, 0
1, 0
1, 1
0, 0
1, 0
0, 0
0, 0
0, 0
0, 1
0, 1
0, 0
0, 0
0, 0
1, 0
0, 1
0, 1
0, 1
1, 0
0, 1
0, 1
1, 0
0, 0
0, 1
1, 0
0, 0
0, 0
0, 0
0, 0
0, 0
0, 0
2, 0
0, 1
0, 0
0, 0
1, 1
0, 0
1, 0
1, 1
0, 0
0, 0
0, 1
1, 0
1, 0
0, 0
0, 1
0, 0
0, 0
0, 0
0, 0
0, 0
0, 1
0, 0
0, 1
1, 0
0, 1
0, 0
0, 0
0, 0
1, 0
0, 0
1, 0
0, 0
0, 0
1, 0
0, 1
0, 0
0, 0
0, 0
0, 0
0, 0
0, 1
0, 0
1, 0
0, 0
0, 0
0, 0
0, 3
0, 0
0, 0
0, 2
0, 1
0, 0
0, 0
0, 0
0, 0
0, 0
1, 0
0, 0
0, 1
0, 0
0, 0
0, 1
1, 0
0, 0
0, 1
2, 0
2, 0
3, 1
0, 0
0, 0
0, 1
0, 0
0, 0
0, 1
0, 1
0, 0
0, 0
0, 0
0, 0
0, 1
1, 0
0, 0
1, 0
1, 0
1, 0
1, 0
0, 1
0, 0
0, 0
0, 0
0, 0
1, 0
1, 0
0, 1
0, 0
1, 0
0, 0
0, 0
0, 0
0, 0
0, 0
0, 0
0, 0
0, 0
0, 0
0, 0
0, 0
0, 0
0, 1
0, 0
0, 0
0, 0
1, 1
0, 0
0, 1
0, 1
1, 0
0, 0
0, 0
0, 0
0, 0
0, 0
0, 0
0, 0
0, 0
0, 0
0, 0
0, 0
0, 0
0, 0
1, 0
0, 1
0, 0
0, 0
0, 0
0, 0
0, 0
0, 0
1, 0
0, 0
0, 0
0, 0
0, 0
0, 0
0, 1
0, 1
0, 0
0, 0
0, 0
0, 0
0, 0
0, 0
0, 0
0, 0
0, 0
0, 0
0, 0
0, 0
0, 0
0, 0
1, 0
1, 0
0, 0
0, 0
0, 0
0, 0
0, 1
0, 0
1, 1
0, 0
0, 0
0, 0
0, 0
0, 0
1, 0
0, 0
1, 0
0, 0
0, 0
0, 0
0, 0
0, 0
0, 0
0, 0
0, 0
0, 0
0, 0
0, 0
0, 0
0, 0
0, 0
0, 0
0, 0
0, 0
0, 0
0, 0
0, 1
0, 0
0, 0
0, 1
0, 0
0, 0
0, 0
0, 0
0, 0
0, 0
0, 0
0, 0
0, 0
0, 0
0, 0
0, 0
0, 0
0, 0
0, 0
0, 0
0, 0
0, 0
0, 0
0, 0
0, 0
0, 0
0, 0
0, 0
0, 0
0, 0
0, 0
0, 0
0, 0
0, 0
0, 0
0, 0
0, 0
0, 0
0, 0
0, 0
1, 0
0, 0
0, 0
0, 0
0, 0
0, 0
0, 0
1, 0
0, 0
0, 0
0, 0
0, 0
0, 0
0, 0
0, 0
0, 0
0, 0
0, 0
0, 0
0, 0
0, 0
0, 0
0, 0
0, 0
0, 0
0, 0
0, 0
0, 0
0, 0
0, 0
0, 0
0, 0
0, 0
0, 0
0, 0
0, 0
0, 0
0, 0
0, 0
0, 0
0, 0
0, 0
0, 0
0, 0
0, 0
0, 0
0, 0
0, 0
0, 0
0, 0
0, 0
0, 0
0, 0
0, 0
0, 0
0, 0
0, 0
0, 0
0, 0
0, 0
0, 0
0, 0
0, 0
0, 0
0, 0
0, 0
0, 0
0, 0
0, 0
0, 0
0, 0
0, 0
0, 0
0, 0
0, 0
0, 0
0, 0
0, 0
0, 0
0, 0
0, 0
0, 0
0, 0
0, 0
0, 0
0, 0
0, 0
0, 0
0, 0
0, 0
0, 0
0, 0
0, 0
0, 0
0, 0
0, 0
0, 0
0, 0
0, 0
0, 0
0, 0
0, 0
0, 0
0, 0
0, 0
0, 0
0, 0
0, 0
0, 0
0, 0
0, 0
0, 0
0, 0
0, 0
0, 0
0, 0
0, 0
0, 0
0, 0
0, 0
0, 0
0, 0
0, 0
0, 0
0, 0
0, 0
0, 0
0, 0
0, 0
0, 0
0, 0
0, 0
0, 0
0, 0
0, 0
0, 0
0, 0
0, 0
0, 0
0, 0
0, 0
0, 0
0, 0
0, 0
0, 0
0, 0
0, 0
0, 0
0, 0
0, 0
0, 0
0, 0
0, 0
0, 0
0, 0
0, 0
0, 0
0, 0
0, 0
0, 0
0, 0
0, 0
0, 0
0, 0
0, 0
0, 0
0, 0
0, 0
0, 0
0, 0
0, 0
0, 0
0, 0
0, 0
0, 0
0, 0
0, 0
0, 0
0, 0
0, 0
0, 0
0, 0
0, 0
0, 0
0, 0
0, 0
0, 0
0, 0
0, 0
0, 0
0, 0
0, 0
0, 0
0, 0
0, 0
0, 0
0, 0
0, 0
0, 0
0, 0
0, 0
0, 0
0, 0
0, 0
0, 0
0, 0
0, 0
0, 0
0, 0
0, 0
0, 0
0, 0
0, 0
0, 0
0, 0
0, 0
0, 0
0, 0
0, 0
0, 0
0, 0
0, 0
0, 0
0, 0
0, 0
0, 0
1, 0
0, 0
0, 0
0, 0
0, 0
0, 0
0, 0
0, 0
0, 0
0, 0
0, 0
0, 0
0, 0
0, 0
0, 0
0, 0
0, 0
0, 0
0, 0
0, 0
0, 0
0, 0
0, 0
0, 0
0, 0
0, 0
0, 0
0, 0
0, 0
0, 0
0, 0
0, 0
0, 0
0, 0
0, 0
0, 0
0, 0
0, 0
0, 0
0, 0
0, 0
0, 0
0, 0
0, 0
0, 0
0, 0
0, 0
0, 0
0, 0
0, 0
0, 0
0, 0
0, 0
0, 0
0, 0
0, 0
0, 0
0, 0
0, 0
0, 0
0, 0
0, 0
0, 0
0, 0
0, 0
0, 0
0, 0
0, 0
0, 0
0, 0
0, 0
0, 0
0, 0
0, 0
0, 0
0, 0
0, 0
0, 0
0, 0
0, 0
0, 0
0, 0
0, 0
0, 0
0, 0
0, 0
0, 0
0, 0
0, 0
0, 0
0, 0
0, 0
0, 0
0, 0
0, 0
0, 0
0, 0
0, 0
0, 0
0, 0
0, 0
0, 0
0, 0
0, 0
0, 0
0, 0
0, 0
0, 0
0, 0
0, 0
0, 0
0, 0
0, 0
0, 0
0, 0
0, 0
0, 0
0, 0
0, 0
0, 0
0, 0
0, 0
0, 0
0, 0
0, 0
0, 0
0, 0
0, 0
0, 0
0, 0
0, 0
0, 0
0, 0
0, 0
0, 0
0, 0
0, 0
0, 0
0, 0
0, 0
0, 0
0, 0
0, 0
0, 0
0, 0
0, 0
0, 0
0, 0
0, 0
0, 0
0, 0
0, 0
0, 0
0, 0
0, 0
0, 0
0, 0
0, 0
0, 0
0, 0
0, 0
0, 0
0, 0
0, 0
0, 0
0, 0
0, 0
0, 0
0, 0
0, 0
0, 0
0, 0
0, 0
0, 0
0, 0
0, 0
0, 0
0, 0
0, 0
0, 0
0, 0
0, 0
0, 0
0, 0
#ENDOFDATA     end of spectrum data