File: host_upload/02-11-2024/rqc/uplink1/ps__0567_0717304816_000rfs_shot_279.msa
#FORMAT      : EMSA/MAS spectral data file
#VERSION     : TC202v2.0 PIXL
#TITLE       : Novarupta (sol567) subset1
#DATE        : 02-11-2024      Date in the format DD-MMM-YYYY, for example 07-JUL-2010
#TIME        :             The time of day at which the spectrum was recorded, in 24-hour format
#OWNER       : PIXL Flight Model       (PIXL will use this to indicate which instrument took the data.)
#NPOINTS     : 4096     Number of data points in the spectrum (This can be zero for configuration only files)
#NCOLUMNS    : 2     Number of data columns in the spectrum (This can be zero for configuration only files)
#XUNITS      : eV
#YUNITS      : COUNTS
#DATATYPE    : YY
#XPERCHAN    : 7.862, 7.881   eV per channel (separate by commas if more than one detector)
#OFFSET      : 18.5, -22.4         eV of first channel  (separate by commas if more than one detector
#SIGNALTYPE  : XRF
#YP_TEMP     : 1.113
#LIVETIME    : 8.82949, 8.80421   seconds (separate by commas if more than one detector)
#REALTIME    : 10, 10.0   seconds (separate by commas if more than one detector)
#SPECTRUM    : start of spectrum data
0, 0
0, 0
0, 0
0, 0
0, 0
0, 0
0, 0
0, 0
0, 0
0, 0
0, 0
0, 0
0, 0
0, 0
0, 0
0, 0
0, 0
0, 0
0, 0
0, 0
0, 0
0, 0
0, 0
0, 0
0, 0
0, 1
0, 0
0, 0
0, 1
0, 0
0, 0
0, 0
1, 0
0, 1
0, 1
1, 0
6, 1
1, 3
4, 3
2, 5
5, 2
3, 5
4, 0
2, 1
0, 7
2, 2
2, 6
3, 2
5, 2
6, 5
7, 6
7, 9
8, 18
12, 21
24, 19
16, 21
13, 10
9, 11
9, 13
12, 14
21, 18
28, 24
44, 43
50, 49
52, 42
59, 38
45, 37
38, 29
39, 37
65, 67
128, 127
184, 229
270, 346
396, 474
512, 539
519, 519
439, 449
338, 342
257, 221
145, 132
96, 72
40, 41
34, 34
42, 30
29, 36
30, 35
31, 36
43, 29
29, 27
27, 26
15, 19
16, 15
22, 28
36, 43
90, 80
130, 155
185, 215
230, 290
297, 347
332, 319
246, 308
203, 210
150, 136
97, 90
69, 74
66, 52
53, 68
71, 59
91, 110
158, 152
195, 203
210, 265
252, 248
269, 263
240, 221
198, 196
163, 118
105, 103
99, 114
96, 80
81, 75
85, 66
77, 74
65, 60
44, 42
57, 32
27, 23
35, 15
21, 17
9, 13
9, 12
7, 8
12, 9
4, 10
6, 4
7, 9
7, 9
11, 18
17, 20
24, 20
24, 28
28, 35
23, 24
36, 29
25, 17
12, 6
13, 12
12, 14
10, 11
24, 15
25, 26
48, 63
83, 91
146, 175
223, 224
303, 308
343, 373
393, 407
354, 352
333, 309
250, 237
180, 160
111, 89
52, 71
51, 39
26, 33
19, 25
28, 28
62, 47
50, 47
44, 49
62, 56
50, 61
47, 51
44, 42
32, 26
24, 20
12, 14
9, 14
10, 9
9, 10
9, 5
12, 8
7, 15
10, 12
9, 17
13, 17
26, 20
43, 27
48, 55
45, 55
60, 79
65, 71
60, 65
49, 63
47, 57
38, 32
26, 21
20, 18
27, 16
18, 20
16, 9
16, 11
15, 8
13, 12
14, 16
22, 14
11, 15
20, 21
18, 22
15, 19
22, 21
24, 18
9, 13
15, 12
10, 13
11, 13
14, 10
14, 2
10, 12
13, 7
9, 11
16, 21
11, 12
20, 21
18, 15
21, 28
28, 24
30, 35
28, 42
29, 27
27, 34
28, 30
27, 21
27, 14
11, 17
12, 13
25, 9
12, 11
6, 14
6, 13
8, 5
12, 18
13, 17
12, 12
23, 24
30, 26
24, 41
44, 47
50, 52
49, 50
44, 50
55, 49
56, 44
28, 33
24, 29
36, 30
19, 18
22, 20
25, 26
27, 21
31, 33
45, 54
72, 86
114, 153
221, 291
374, 471
622, 770
913, 1048
1211, 1449
1489, 1769
1732, 1927
1823, 1866
1687, 1793
1605, 1458
1215, 1111
939, 811
619, 515
368, 298
223, 201
134, 106
60, 49
38, 30
29, 25
21, 19
22, 11
19, 17
20, 13
23, 13
19, 21
32, 19
42, 45
44, 47
60, 71
86, 109
132, 161
155, 202
200, 254
247, 279
276, 287
292, 274
241, 270
248, 227
177, 170
123, 117
98, 77
57, 55
42, 28
24, 18
22, 13
14, 9
9, 8
7, 13
20, 8
7, 12
14, 13
13, 12
19, 14
14, 11
16, 8
9, 13
11, 16
9, 9
15, 6
7, 3
6, 8
7, 7
8, 6
7, 8
3, 6
7, 2
5, 9
9, 5
7, 4
8, 7
3, 7
7, 8
6, 5
3, 6
8, 5
6, 5
4, 9
9, 12
7, 6
5, 6
6, 11
9, 7
8, 6
2, 6
11, 2
11, 6
8, 3
5, 5
5, 6
8, 8
5, 11
9, 3
6, 3
8, 3
1, 5
7, 4
5, 6
5, 7
13, 9
13, 14
11, 12
12, 14
7, 11
13, 17
12, 11
9, 8
9, 7
8, 6
11, 9
4, 8
4, 6
5, 6
5, 4
5, 6
1, 10
4, 6
8, 10
5, 5
6, 4
6, 8
6, 8
5, 14
6, 10
1, 5
9, 5
7, 4
6, 7
7, 6
2, 6
9, 4
4, 4
7, 5
13, 8
7, 8
6, 9
6, 1
1, 7
6, 7
7, 5
4, 6
6, 5
9, 4
3, 7
4, 4
3, 8
5, 5
7, 5
5, 5
4, 2
6, 4
4, 6
4, 4
2, 5
4, 2
3, 6
8, 5
1, 5
3, 4
4, 9
3, 3
8, 3
6, 5
7, 9
5, 1
6, 5
3, 4
4, 3
0, 1
2, 2
4, 5
6, 5
3, 1
3, 3
2, 2
7, 4
5, 4
2, 4
2, 2
7, 1
7, 1
3, 6
8, 1
5, 5
1, 3
2, 4
1, 6
10, 1
1, 3
1, 3
2, 4
4, 5
5, 5
6, 4
7, 1
6, 5
3, 5
3, 3
10, 4
5, 5
3, 4
3, 2
5, 3
0, 5
4, 3
4, 1
4, 2
5, 3
2, 6
0, 1
5, 5
2, 3
4, 1
3, 3
4, 4
3, 3
3, 5
3, 1
3, 3
1, 0
3, 3
3, 3
5, 2
5, 3
3, 0
3, 2
2, 1
5, 5
4, 6
1, 1
1, 2
1, 1
3, 4
2, 0
5, 1
4, 4
0, 1
1, 3
2, 2
1, 4
4, 0
3, 2
1, 3
3, 3
2, 1
3, 1
3, 4
5, 4
4, 0
1, 2
2, 2
0, 5
2, 6
4, 6
2, 3
4, 1
3, 2
4, 4
3, 3
2, 1
3, 0
0, 2
0, 3
1, 2
1, 0
2, 4
0, 2
2, 0
2, 2
1, 6
1, 2
1, 2
5, 1
2, 4
3, 3
2, 5
4, 6
2, 4
3, 6
8, 2
3, 1
2, 3
4, 1
5, 0
1, 1
3, 0
1, 2
1, 0
2, 1
2, 1
1, 0
4, 1
0, 2
0, 1
0, 3
1, 4
1, 0
3, 1
2, 2
2, 1
1, 1
0, 4
0, 1
2, 2
1, 4
2, 1
2, 0
2, 2
4, 1
1, 2
3, 2
0, 1
0, 1
0, 1
3, 5
0, 2
2, 0
1, 0
1, 1
0, 0
2, 2
1, 3
0, 2
0, 1
1, 1
0, 2
1, 1
0, 0
3, 0
2, 1
0, 1
1, 2
2, 0
1, 0
1, 0
0, 2
0, 3
1, 0
1, 1
0, 2
0, 1
1, 1
2, 1
0, 1
0, 1
0, 2
1, 0
0, 0
0, 0
0, 0
0, 0
1, 1
0, 0
0, 1
3, 0
1, 0
0, 2
0, 0
0, 0
0, 0
2, 0
2, 2
0, 0
0, 2
1, 1
1, 0
2, 0
0, 0
1, 0
0, 1
0, 0
0, 0
0, 1
1, 0
1, 0
1, 0
1, 1
0, 1
2, 1
0, 1
0, 0
0, 0
1, 0
1, 0
2, 1
1, 1
0, 0
0, 1
1, 0
1, 1
1, 2
1, 1
0, 1
0, 0
0, 0
1, 2
0, 0
2, 0
0, 1
0, 0
0, 0
2, 2
1, 0
0, 0
0, 1
0, 1
1, 0
2, 1
0, 0
0, 0
1, 0
1, 0
1, 0
0, 0
0, 1
1, 2
0, 0
0, 0
1, 0
1, 0
0, 0
0, 0
0, 0
1, 0
1, 0
0, 2
0, 1
0, 0
1, 0
0, 0
0, 1
0, 2
2, 0
1, 0
0, 0
0, 2
0, 0
1, 1
0, 1
0, 0
2, 2
0, 0
0, 0
0, 0
1, 0
0, 0
0, 0
0, 0
0, 1
0, 1
0, 1
0, 0
1, 0
0, 0
0, 0
0, 1
3, 1
0, 0
0, 0
0, 1
0, 1
0, 0
0, 0
1, 0
0, 0
1, 0
0, 2
0, 0
0, 0
0, 0
1, 0
1, 0
0, 0
1, 1
1, 0
0, 0
1, 0
0, 0
0, 0
0, 0
0, 1
0, 0
1, 0
0, 0
1, 1
0, 0
0, 2
0, 0
0, 1
0, 0
0, 1
0, 0
0, 1
1, 0
0, 0
0, 2
0, 0
0, 1
0, 0
0, 0
1, 0
0, 0
0, 0
0, 0
0, 1
2, 0
0, 0
0, 0
0, 0
0, 1
0, 1
0, 0
0, 0
0, 0
0, 0
0, 1
0, 0
0, 0
0, 0
1, 0
1, 0
0, 0
1, 0
0, 0
0, 1
0, 0
0, 0
0, 1
1, 0
0, 0
0, 0
0, 0
0, 0
0, 0
0, 0
0, 1
0, 0
0, 2
0, 0
1, 0
1, 1
0, 0
0, 0
0, 0
0, 1
0, 0
0, 0
0, 0
0, 0
0, 0
0, 0
0, 1
0, 0
0, 0
1, 0
0, 0
1, 0
0, 0
0, 0
1, 0
0, 0
0, 0
0, 1
0, 1
0, 1
0, 0
0, 0
0, 0
0, 1
0, 0
0, 0
0, 0
1, 0
0, 0
0, 0
0, 0
0, 0
0, 0
0, 0
0, 0
0, 0
0, 0
1, 0
0, 0
0, 0
0, 0
0, 0
0, 0
0, 1
0, 0
0, 0
0, 0
1, 0
0, 0
0, 0
0, 0
0, 0
0, 2
0, 0
0, 0
0, 1
0, 0
0, 0
0, 0
0, 0
0, 0
1, 0
0, 0
0, 0
0, 0
0, 0
0, 0
0, 0
0, 0
0, 0
0, 0
0, 0
0, 0
0, 0
0, 0
0, 0
0, 0
0, 0
0, 0
0, 0
0, 0
1, 0
0, 0
0, 0
0, 0
0, 0
0, 0
0, 1
0, 0
0, 0
0, 0
0, 0
0, 0
0, 0
0, 0
0, 0
0, 0
0, 0
0, 0
0, 0
0, 0
0, 0
0, 0
0, 0
0, 0
0, 0
0, 0
0, 0
0, 0
0, 0
0, 0
0, 0
0, 0
0, 0
0, 0
0, 0
0, 0
0, 0
1, 0
0, 0
0, 0
0, 0
0, 0
0, 0
0, 0
0, 0
0, 0
0, 0
0, 0
0, 0
0, 0
0, 0
0, 0
0, 0
1, 0
0, 0
0, 0
0, 0
0, 0
0, 0
0, 0
0, 0
0, 0
0, 0
0, 0
0, 0
0, 0
1, 0
0, 0
0, 0
0, 0
0, 0
1, 0
0, 0
0, 0
0, 0
0, 0
0, 0
0, 0
0, 0
0, 0
0, 0
0, 0
0, 0
0, 0
0, 0
0, 1
0, 0
1, 0
0, 0
0, 0
0, 0
0, 0
0, 0
0, 0
0, 0
0, 0
0, 0
0, 0
0, 0
0, 0
0, 0
0, 0
0, 0
0, 0
0, 0
0, 0
0, 0
0, 0
0, 0
0, 0
0, 0
0, 0
0, 0
0, 1
0, 0
0, 0
0, 0
0, 0
0, 0
0, 0
0, 0
0, 0
0, 0
0, 0
0, 0
0, 0
0, 0
0, 0
0, 0
0, 0
0, 0
0, 0
0, 0
0, 0
0, 0
0, 0
0, 0
0, 0
0, 0
0, 0
0, 0
0, 0
0, 0
0, 0
0, 0
0, 0
0, 0
0, 0
0, 0
0, 0
0, 0
0, 0
0, 0
0, 0
0, 0
0, 0
0, 0
0, 0
0, 0
0, 0
0, 0
0, 0
0, 0
1, 0
0, 0
0, 0
0, 0
0, 0
0, 0
0, 0
0, 0
0, 0
0, 0
0, 0
0, 0
0, 0
0, 0
0, 0
0, 0
0, 0
0, 0
0, 0
0, 0
0, 0
0, 0
0, 0
0, 0
0, 0
0, 0
0, 0
0, 0
1, 0
0, 0
0, 0
0, 0
0, 0
0, 0
0, 0
0, 0
0, 0
0, 0
0, 0
0, 0
0, 0
0, 0
0, 0
0, 0
0, 0
0, 0
0, 0
0, 0
0, 0
0, 0
0, 0
0, 0
0, 0
0, 0
0, 0
0, 0
0, 0
0, 0
0, 0
0, 0
0, 0
0, 0
0, 0
0, 0
0, 1
0, 0
0, 0
0, 0
0, 0
0, 0
0, 0
0, 0
0, 0
0, 0
0, 0
0, 0
0, 0
0, 0
0, 0
0, 0
0, 0
0, 0
0, 0
0, 0
0, 0
0, 0
0, 0
0, 0
0, 0
0, 0
0, 0
0, 0
0, 0
0, 0
0, 0
0, 0
0, 0
0, 0
0, 0
0, 0
0, 0
0, 0
0, 0
0, 0
0, 0
0, 0
0, 0
0, 0
0, 0
0, 0
0, 0
0, 0
0, 0
0, 0
0, 0
0, 0
0, 0
0, 0
0, 0
0, 0
0, 0
0, 0
0, 0
0, 0
0, 0
0, 0
0, 0
0, 0
0, 0
0, 0
0, 0
0, 0
0, 0
0, 0
0, 0
0, 0
0, 0
0, 0
0, 0
0, 0
0, 0
0, 0
0, 0
0, 0
0, 0
0, 0
0, 0
0, 0
0, 0
0, 0
0, 0
0, 0
0, 0
0, 0
0, 0
0, 0
0, 0
0, 0
0, 0
0, 0
0, 0
0, 0
0, 0
0, 0
0, 0
0, 0
0, 0
0, 0
0, 0
0, 0
0, 0
0, 0
0, 0
0, 0
0, 0
0, 0
0, 0
0, 0
0, 0
0, 0
0, 0
0, 0
0, 0
0, 0
0, 0
0, 0
0, 0
0, 0
0, 0
0, 0
0, 0
0, 0
0, 0
0, 0
0, 0
0, 0
0, 0
0, 0
0, 0
0, 0
0, 0
0, 0
0, 0
0, 0
0, 0
0, 0
0, 0
0, 0
0, 0
0, 0
0, 0
0, 0
0, 0
0, 0
0, 0
0, 0
0, 0
0, 0
0, 0
0, 0
0, 0
0, 0
0, 0
0, 0
0, 0
0, 0
0, 0
0, 0
0, 0
0, 0
0, 0
0, 0
0, 0
0, 0
0, 0
0, 0
0, 0
0, 0
0, 0
0, 0
0, 0
0, 0
0, 0
0, 0
0, 0
0, 0
0, 0
0, 0
0, 0
0, 0
0, 0
0, 0
0, 0
0, 0
0, 0
0, 0
0, 0
0, 0
0, 0
0, 0
0, 0
0, 0
0, 0
0, 0
0, 0
0, 0
0, 0
0, 0
0, 0
0, 0
0, 0
0, 0
0, 0
0, 0
0, 0
0, 0
0, 0
0, 0
0, 0
0, 0
0, 0
0, 0
0, 0
0, 0
0, 0
0, 0
0, 0
0, 0
0, 0
0, 0
0, 0
0, 0
0, 0
0, 0
0, 0
0, 0
0, 0
0, 0
0, 0
0, 0
0, 0
0, 0
0, 0
0, 0
0, 0
0, 0
0, 0
0, 0
0, 0
0, 0
0, 0
0, 0
0, 0
#ENDOFDATA     end of spectrum data