File: host_upload/02-11-2024/rqc/uplink1/ps__0567_0717304816_000rfs_shot_158.msa
#FORMAT      : EMSA/MAS spectral data file
#VERSION     : TC202v2.0 PIXL
#TITLE       : Novarupta (sol567) subset1
#DATE        : 02-11-2024      Date in the format DD-MMM-YYYY, for example 07-JUL-2010
#TIME        :             The time of day at which the spectrum was recorded, in 24-hour format
#OWNER       : PIXL Flight Model       (PIXL will use this to indicate which instrument took the data.)
#NPOINTS     : 4096     Number of data points in the spectrum (This can be zero for configuration only files)
#NCOLUMNS    : 2     Number of data columns in the spectrum (This can be zero for configuration only files)
#XUNITS      : eV
#YUNITS      : COUNTS
#DATATYPE    : YY
#XPERCHAN    : 7.862, 7.881   eV per channel (separate by commas if more than one detector)
#OFFSET      : 18.5, -22.4         eV of first channel  (separate by commas if more than one detector
#SIGNALTYPE  : XRF
#YP_TEMP     : 0.151
#LIVETIME    : 8.82062, 8.80317   seconds (separate by commas if more than one detector)
#REALTIME    : 10, 10.0   seconds (separate by commas if more than one detector)
#SPECTRUM    : start of spectrum data
0, 0
0, 0
0, 0
0, 0
0, 0
0, 0
0, 0
0, 0
0, 0
0, 0
0, 0
0, 0
0, 0
0, 0
0, 0
0, 0
0, 0
0, 0
0, 0
0, 0
0, 0
0, 0
0, 0
0, 0
0, 0
0, 0
0, 0
0, 0
0, 0
0, 0
0, 0
0, 0
0, 0
0, 0
1, 2
2, 1
3, 5
2, 5
5, 4
2, 5
8, 5
1, 5
3, 3
5, 5
3, 3
3, 3
3, 2
5, 3
2, 1
3, 5
3, 8
8, 12
15, 11
14, 24
15, 18
21, 15
18, 10
9, 10
13, 9
8, 13
22, 21
25, 30
36, 46
47, 47
50, 42
51, 50
30, 49
36, 32
34, 50
67, 66
107, 127
236, 230
299, 359
449, 433
486, 549
494, 531
457, 446
337, 334
236, 246
149, 141
78, 72
45, 60
43, 33
20, 27
28, 42
26, 27
31, 30
37, 32
23, 31
29, 20
20, 17
21, 21
39, 28
56, 57
91, 92
134, 174
215, 268
286, 309
317, 371
326, 357
286, 356
257, 252
167, 193
118, 127
90, 81
72, 60
53, 81
63, 60
90, 120
120, 142
167, 189
235, 237
236, 245
228, 224
199, 188
163, 176
112, 130
88, 111
97, 88
80, 84
68, 66
64, 86
59, 68
59, 61
52, 39
34, 53
24, 25
28, 27
25, 23
18, 14
10, 10
11, 9
8, 11
7, 5
6, 12
5, 11
9, 11
14, 16
30, 32
27, 30
32, 30
34, 50
33, 50
29, 27
27, 16
18, 15
14, 12
7, 10
20, 20
14, 18
26, 45
47, 71
101, 116
130, 194
253, 252
275, 322
358, 374
415, 417
349, 422
338, 356
249, 250
189, 162
122, 114
56, 74
56, 48
42, 29
28, 32
34, 38
40, 49
60, 63
55, 63
52, 91
58, 57
52, 53
38, 38
31, 23
23, 17
17, 16
13, 9
13, 11
9, 8
11, 11
11, 13
9, 9
10, 12
10, 16
23, 25
24, 38
31, 49
43, 58
54, 65
54, 66
70, 67
51, 64
60, 70
39, 56
33, 36
32, 24
17, 30
13, 11
19, 16
7, 20
13, 7
11, 19
12, 16
18, 13
10, 25
15, 17
20, 22
15, 27
21, 22
20, 18
22, 27
19, 24
17, 9
9, 12
11, 14
9, 11
12, 8
6, 14
12, 11
12, 15
9, 14
12, 10
16, 22
24, 20
26, 25
18, 22
25, 33
24, 25
28, 33
35, 47
25, 33
27, 20
28, 25
25, 13
12, 14
11, 14
11, 12
9, 18
11, 11
9, 12
10, 13
21, 22
23, 19
23, 26
27, 25
33, 30
45, 48
44, 53
37, 69
52, 48
46, 43
39, 47
32, 38
41, 36
24, 20
17, 16
18, 16
18, 16
24, 16
27, 37
34, 54
86, 89
131, 170
256, 310
424, 485
613, 802
922, 1128
1175, 1468
1520, 1765
1705, 1856
1694, 1839
1647, 1707
1455, 1412
1138, 1112
862, 755
582, 489
359, 321
216, 186
100, 94
66, 53
31, 31
15, 22
22, 16
21, 9
14, 14
18, 17
11, 19
23, 14
25, 25
35, 45
58, 58
56, 79
83, 115
128, 170
177, 201
210, 264
275, 272
257, 305
231, 273
265, 258
229, 230
146, 158
143, 125
71, 76
75, 52
36, 32
15, 11
21, 9
17, 8
9, 9
15, 11
13, 11
11, 13
9, 5
15, 14
9, 13
9, 18
16, 9
13, 12
11, 12
16, 10
4, 12
6, 9
8, 5
4, 14
5, 5
11, 6
3, 9
8, 5
8, 3
9, 10
2, 7
2, 6
5, 4
1, 4
8, 5
7, 8
5, 10
4, 6
9, 11
5, 10
2, 8
7, 7
6, 5
4, 5
3, 11
7, 7
7, 11
7, 13
11, 11
4, 6
7, 5
9, 9
11, 5
5, 5
5, 11
6, 7
6, 5
7, 6
8, 11
10, 9
12, 7
11, 12
9, 17
13, 10
14, 13
13, 12
11, 11
8, 13
9, 6
6, 19
10, 13
5, 7
9, 6
7, 6
6, 6
5, 9
5, 6
2, 3
4, 5
3, 8
10, 5
7, 4
9, 8
2, 9
4, 6
4, 6
3, 7
9, 4
8, 6
5, 5
9, 6
5, 6
2, 3
8, 6
7, 4
5, 5
6, 2
7, 8
4, 4
6, 2
9, 4
9, 13
6, 8
4, 1
4, 6
3, 4
3, 4
6, 1
4, 7
4, 6
9, 3
4, 4
5, 7
3, 3
2, 5
4, 7
2, 2
3, 5
8, 5
4, 4
9, 4
6, 3
4, 4
3, 4
6, 5
3, 6
3, 8
3, 4
3, 3
8, 7
2, 4
4, 7
2, 5
6, 2
7, 5
3, 2
7, 3
5, 3
5, 4
5, 2
4, 2
4, 2
3, 3
3, 2
3, 5
3, 3
1, 4
3, 4
6, 3
2, 5
4, 5
6, 2
4, 2
4, 2
4, 5
4, 3
4, 2
3, 3
4, 5
2, 1
2, 1
0, 3
4, 4
1, 2
8, 3
0, 1
2, 1
1, 8
6, 4
1, 1
5, 4
3, 3
4, 1
3, 2
4, 5
5, 0
2, 1
2, 4
2, 7
2, 5
5, 2
0, 2
2, 0
1, 2
4, 1
4, 2
1, 2
3, 0
5, 4
0, 1
5, 1
2, 3
2, 1
1, 5
2, 4
3, 1
5, 1
3, 1
6, 1
0, 1
2, 4
3, 2
0, 4
2, 3
3, 0
4, 1
4, 4
1, 3
4, 1
5, 3
2, 4
5, 3
0, 1
1, 4
2, 5
2, 5
1, 2
2, 1
1, 3
0, 3
5, 0
2, 2
0, 1
1, 6
2, 6
0, 2
2, 5
2, 2
2, 1
1, 1
2, 1
2, 3
3, 3
4, 2
4, 2
2, 2
3, 3
2, 1
1, 3
2, 1
4, 2
5, 6
2, 1
4, 0
1, 1
5, 4
2, 3
3, 0
1, 2
1, 1
1, 2
0, 1
1, 5
1, 3
2, 1
2, 1
1, 1
1, 1
3, 0
2, 4
3, 2
0, 0
0, 2
4, 1
1, 3
1, 0
1, 4
4, 2
1, 0
2, 0
2, 1
2, 2
0, 1
1, 1
2, 2
2, 1
0, 1
2, 2
1, 2
0, 2
0, 0
0, 1
2, 3
0, 0
1, 0
1, 1
0, 0
0, 0
1, 4
2, 1
4, 1
0, 1
1, 2
1, 1
0, 3
2, 0
0, 2
0, 1
2, 1
1, 0
1, 3
1, 1
3, 2
1, 3
3, 1
2, 1
3, 3
0, 1
0, 0
1, 2
0, 3
1, 2
0, 1
0, 1
0, 1
0, 2
0, 0
1, 1
1, 0
1, 0
2, 0
3, 1
0, 0
1, 1
0, 0
0, 1
0, 2
1, 1
0, 0
0, 0
3, 0
2, 1
2, 1
1, 0
0, 1
0, 1
1, 1
1, 0
0, 1
1, 0
1, 1
0, 0
0, 1
0, 3
0, 3
0, 0
0, 0
1, 1
0, 0
1, 2
0, 0
1, 1
0, 0
0, 1
1, 0
1, 0
2, 0
0, 0
0, 1
2, 1
0, 1
3, 0
0, 0
0, 0
0, 0
3, 0
0, 1
2, 1
1, 0
0, 1
0, 1
0, 0
0, 1
1, 2
1, 1
0, 0
0, 0
0, 1
1, 1
0, 0
0, 1
0, 1
0, 1
0, 0
1, 0
0, 1
0, 0
0, 0
0, 2
2, 2
0, 0
0, 1
0, 0
0, 2
1, 0
3, 0
0, 0
0, 1
0, 2
0, 0
0, 0
0, 0
1, 1
0, 0
1, 1
0, 0
1, 0
1, 0
0, 0
0, 0
0, 0
0, 1
0, 0
1, 1
0, 0
0, 1
1, 0
1, 0
0, 0
1, 0
0, 1
0, 1
0, 0
1, 0
0, 1
0, 0
0, 1
0, 0
1, 0
1, 1
0, 1
1, 0
0, 0
0, 0
0, 1
0, 1
1, 1
2, 0
0, 0
0, 1
0, 1
0, 0
1, 0
0, 0
1, 0
0, 1
0, 0
1, 0
0, 0
0, 0
0, 0
0, 0
0, 0
0, 0
1, 1
0, 0
1, 0
0, 0
0, 0
0, 0
0, 1
0, 0
2, 1
0, 1
0, 0
0, 0
0, 1
0, 0
0, 0
0, 0
0, 1
0, 0
0, 0
1, 0
1, 0
0, 0
0, 0
0, 0
0, 0
0, 0
0, 0
1, 0
0, 0
0, 0
0, 0
0, 0
0, 1
0, 0
0, 0
0, 0
1, 0
0, 0
0, 0
0, 0
0, 0
0, 0
1, 0
0, 1
0, 0
0, 1
0, 0
0, 0
0, 0
0, 0
0, 0
0, 1
1, 0
0, 0
1, 0
0, 0
0, 0
0, 1
0, 0
0, 0
0, 0
0, 0
0, 0
0, 0
0, 1
0, 0
0, 0
0, 1
0, 0
0, 0
0, 0
0, 0
0, 0
0, 0
0, 0
0, 0
0, 0
0, 0
0, 0
0, 0
0, 0
0, 1
0, 1
0, 0
0, 0
0, 0
0, 0
0, 1
0, 0
1, 0
0, 0
0, 0
0, 0
1, 0
0, 0
0, 0
0, 0
0, 0
0, 0
1, 0
0, 0
0, 0
0, 1
0, 1
0, 0
0, 0
0, 0
0, 1
0, 0
0, 0
0, 0
0, 0
0, 0
0, 0
0, 0
1, 0
0, 0
0, 0
0, 0
0, 0
0, 0
0, 0
0, 0
0, 0
0, 0
0, 0
0, 1
0, 0
0, 0
0, 0
0, 1
0, 0
0, 1
0, 0
0, 0
0, 0
0, 0
1, 0
0, 0
0, 0
0, 0
0, 1
0, 0
0, 0
0, 0
0, 0
0, 0
0, 0
0, 0
0, 0
0, 0
0, 0
0, 0
0, 0
0, 0
0, 0
1, 0
0, 0
0, 0
0, 0
0, 0
0, 0
0, 0
0, 0
0, 0
0, 0
0, 0
0, 0
0, 0
0, 0
0, 0
0, 1
0, 0
0, 0
0, 0
0, 0
0, 0
0, 0
0, 0
0, 0
0, 0
0, 0
0, 0
0, 0
0, 0
0, 0
0, 0
0, 0
0, 0
0, 0
0, 0
0, 0
0, 0
0, 0
0, 0
0, 0
0, 0
0, 0
0, 0
0, 0
0, 0
0, 0
0, 0
0, 0
0, 0
0, 0
0, 0
0, 0
0, 0
0, 0
0, 0
0, 0
0, 0
0, 0
0, 0
0, 0
0, 0
0, 0
0, 0
0, 0
0, 0
0, 0
0, 0
0, 0
0, 0
0, 0
0, 0
0, 0
0, 0
0, 0
0, 0
0, 0
0, 0
0, 0
0, 0
0, 0
0, 0
0, 0
0, 0
0, 0
0, 0
0, 0
0, 0
0, 0
0, 0
0, 0
0, 0
0, 0
0, 0
0, 0
0, 0
0, 0
0, 0
0, 0
0, 0
0, 0
0, 0
0, 0
0, 0
0, 0
0, 0
0, 0
0, 0
0, 0
0, 0
0, 0
0, 0
0, 0
0, 0
0, 0
0, 0
0, 0
0, 0
0, 0
0, 0
0, 0
0, 0
0, 0
0, 0
0, 0
0, 0
0, 0
0, 0
0, 0
0, 0
0, 0
0, 0
0, 0
0, 0
0, 0
0, 0
0, 0
0, 0
0, 0
0, 0
0, 0
0, 0
0, 0
0, 0
0, 0
0, 0
0, 0
0, 0
0, 0
0, 0
0, 0
0, 0
0, 0
0, 0
0, 0
0, 0
0, 0
0, 0
0, 0
0, 0
0, 0
0, 0
0, 0
0, 0
0, 0
0, 0
0, 0
0, 0
0, 0
0, 0
0, 0
0, 0
0, 0
0, 0
0, 0
0, 0
0, 0
0, 0
0, 0
0, 0
0, 0
0, 0
0, 0
0, 0
0, 0
0, 0
0, 0
0, 0
0, 0
0, 0
0, 0
0, 0
0, 0
0, 0
0, 0
0, 0
0, 0
0, 0
0, 0
0, 0
0, 0
0, 0
0, 0
0, 0
0, 0
0, 0
0, 0
0, 0
0, 0
0, 0
0, 0
0, 0
0, 0
0, 0
0, 0
0, 0
0, 0
0, 0
0, 0
0, 0
0, 0
0, 0
0, 0
0, 0
0, 0
0, 0
0, 0
0, 0
0, 0
0, 0
0, 0
0, 0
0, 0
0, 0
0, 0
0, 0
0, 0
0, 0
0, 0
0, 0
0, 0
0, 0
0, 0
0, 0
0, 0
0, 0
0, 0
0, 0
0, 0
0, 0
0, 0
0, 0
0, 0
0, 0
0, 0
0, 0
0, 0
0, 0
0, 0
0, 0
0, 0
0, 0
0, 0
0, 0
0, 0
0, 0
0, 0
0, 0
0, 0
0, 0
0, 0
0, 0
0, 0
0, 0
0, 0
0, 0
0, 0
0, 0
0, 0
0, 0
0, 0
0, 0
0, 0
0, 0
0, 0
0, 0
0, 0
0, 0
0, 0
0, 0
0, 0
0, 0
0, 0
0, 0
0, 0
0, 0
0, 0
0, 0
0, 0
0, 0
0, 0
0, 0
0, 0
0, 0
0, 0
0, 0
0, 0
0, 0
0, 0
0, 0
0, 0
0, 0
0, 0
0, 0
0, 0
0, 0
0, 0
0, 0
0, 0
0, 0
0, 0
0, 0
0, 0
0, 0
0, 0
0, 0
0, 0
0, 0
0, 0
0, 0
0, 0
0, 0
0, 0
0, 0
0, 0
0, 0
0, 0
0, 0
0, 0
0, 0
0, 0
0, 0
0, 0
0, 0
0, 0
0, 0
0, 0
0, 0
0, 0
0, 0
0, 0
0, 0
0, 0
0, 0
0, 0
0, 0
0, 0
0, 0
0, 0
0, 0
0, 0
0, 0
0, 0
0, 0
0, 0
0, 0
0, 0
0, 0
0, 0
0, 0
0, 0
0, 0
0, 0
0, 0
0, 0
0, 0
0, 0
0, 0
0, 0
0, 0
0, 0
0, 0
0, 0
0, 0
0, 0
0, 0
0, 0
0, 0
0, 0
0, 0
0, 0
0, 0
0, 0
0, 0
0, 0
0, 0
0, 0
0, 0
0, 0
0, 0
0, 0
0, 0
0, 0
0, 0
0, 0
0, 0
0, 0
0, 0
0, 0
0, 0
0, 0
0, 0
0, 0
0, 0
0, 0
0, 0
0, 0
0, 0
0, 0
0, 0
0, 0
0, 0
0, 0
0, 0
0, 0
0, 0
0, 0
0, 0
0, 0
0, 0
0, 0
0, 0
0, 0
0, 0
0, 0
0, 0
0, 0
0, 0
0, 0
0, 0
0, 0
0, 0
0, 0
0, 0
0, 0
0, 0
0, 0
0, 0
0, 0
0, 0
0, 0
0, 0
0, 0
0, 0
#ENDOFDATA     end of spectrum data