File: host_upload/02-11-2024/rqc/uplink1/ps__0567_0717304816_000rfs_shot_369.msa
#FORMAT      : EMSA/MAS spectral data file
#VERSION     : TC202v2.0 PIXL
#TITLE       : Novarupta (sol567) subset1
#DATE        : 02-11-2024      Date in the format DD-MMM-YYYY, for example 07-JUL-2010
#TIME        :             The time of day at which the spectrum was recorded, in 24-hour format
#OWNER       : PIXL Flight Model       (PIXL will use this to indicate which instrument took the data.)
#NPOINTS     : 4096     Number of data points in the spectrum (This can be zero for configuration only files)
#NCOLUMNS    : 2     Number of data columns in the spectrum (This can be zero for configuration only files)
#XUNITS      : eV
#YUNITS      : COUNTS
#DATATYPE    : YY
#XPERCHAN    : 7.862, 7.881   eV per channel (separate by commas if more than one detector)
#OFFSET      : 18.5, -22.4         eV of first channel  (separate by commas if more than one detector
#SIGNALTYPE  : XRF
#YP_TEMP     : 1.786
#LIVETIME    : 8.82337, 8.8093   seconds (separate by commas if more than one detector)
#REALTIME    : 10, 10.0   seconds (separate by commas if more than one detector)
#SPECTRUM    : start of spectrum data
0, 0
0, 0
0, 0
0, 0
0, 0
0, 0
0, 0
0, 0
0, 0
0, 0
0, 0
0, 0
0, 0
0, 0
0, 0
0, 0
0, 0
0, 0
0, 0
0, 0
0, 0
0, 0
0, 0
0, 0
0, 0
0, 0
0, 0
0, 0
0, 0
0, 0
0, 0
1, 0
0, 0
1, 2
0, 2
1, 0
4, 1
4, 0
3, 6
4, 2
5, 3
1, 8
0, 3
7, 4
2, 1
3, 6
4, 4
0, 3
2, 3
3, 3
10, 5
11, 7
6, 13
14, 17
14, 18
28, 16
12, 12
10, 8
13, 3
11, 18
20, 23
25, 27
36, 43
47, 46
53, 46
50, 56
41, 36
43, 19
33, 35
42, 72
97, 117
200, 228
288, 311
399, 461
439, 511
458, 512
408, 417
318, 368
236, 221
149, 141
93, 80
58, 40
34, 44
17, 33
39, 26
34, 28
40, 35
25, 40
21, 33
24, 20
27, 20
25, 11
20, 33
51, 40
79, 84
129, 162
177, 217
243, 302
320, 311
301, 301
243, 269
214, 237
153, 165
93, 109
79, 58
47, 51
54, 48
51, 81
92, 121
126, 152
150, 210
202, 245
232, 254
211, 237
184, 207
188, 187
139, 149
103, 114
102, 92
95, 78
74, 90
81, 78
53, 64
60, 65
44, 45
45, 39
31, 33
20, 21
23, 17
21, 8
15, 11
6, 17
11, 6
1, 9
4, 4
8, 5
8, 11
14, 13
19, 14
23, 28
30, 31
32, 32
28, 22
14, 22
21, 21
21, 9
12, 16
14, 11
4, 13
16, 12
24, 31
36, 48
87, 91
123, 159
185, 274
272, 331
349, 373
369, 417
343, 395
281, 308
233, 252
138, 153
131, 97
60, 68
27, 36
34, 34
23, 23
20, 46
42, 39
56, 54
44, 58
60, 78
43, 62
37, 58
43, 36
32, 27
14, 13
11, 13
11, 8
8, 8
13, 15
10, 5
11, 16
10, 9
13, 10
18, 15
10, 18
25, 32
34, 37
32, 60
40, 63
61, 69
62, 55
70, 58
50, 45
41, 46
33, 43
24, 32
21, 24
18, 21
11, 12
20, 15
11, 9
13, 13
21, 18
11, 14
17, 15
15, 19
21, 25
17, 20
16, 26
26, 20
22, 24
13, 17
12, 11
18, 9
6, 12
8, 8
10, 9
14, 14
7, 10
10, 14
15, 14
15, 16
13, 19
16, 30
27, 46
40, 34
33, 63
50, 56
60, 54
36, 46
47, 38
29, 40
40, 39
23, 30
22, 17
11, 22
13, 7
14, 18
6, 9
15, 15
13, 13
21, 13
13, 14
20, 28
19, 34
36, 47
48, 38
40, 46
56, 55
50, 54
44, 44
39, 51
48, 48
31, 22
27, 23
29, 27
22, 17
24, 25
18, 30
25, 35
50, 48
66, 91
112, 159
200, 276
339, 463
590, 707
850, 1089
1144, 1462
1419, 1809
1659, 1932
1783, 1990
1643, 1833
1459, 1558
1225, 1204
896, 818
583, 569
404, 358
194, 186
107, 104
68, 55
33, 40
30, 31
22, 20
18, 16
14, 16
18, 18
20, 14
15, 15
18, 30
22, 31
38, 45
62, 71
83, 112
136, 153
151, 201
202, 223
212, 309
270, 278
263, 277
239, 281
217, 222
173, 181
124, 121
77, 91
68, 48
32, 36
19, 30
16, 14
9, 6
10, 11
7, 8
15, 15
9, 10
10, 9
14, 11
9, 18
15, 12
16, 14
6, 12
8, 4
13, 8
10, 7
9, 5
6, 8
6, 6
7, 3
5, 7
11, 6
4, 7
5, 6
5, 8
8, 12
12, 8
5, 4
9, 4
3, 4
7, 7
1, 8
7, 6
6, 5
4, 7
10, 13
3, 9
7, 9
6, 4
13, 8
5, 8
8, 11
3, 10
6, 10
5, 7
6, 9
6, 9
6, 10
6, 6
6, 6
9, 8
8, 9
6, 9
7, 8
4, 11
6, 14
8, 13
15, 10
11, 15
9, 13
5, 16
18, 12
11, 13
6, 5
8, 9
7, 10
4, 6
6, 2
1, 6
6, 6
9, 7
10, 2
4, 2
10, 2
7, 6
1, 4
4, 7
5, 3
6, 6
1, 9
6, 8
5, 6
6, 7
4, 3
5, 3
8, 1
6, 6
4, 7
8, 7
6, 12
5, 6
8, 7
9, 4
4, 7
1, 1
7, 4
6, 6
4, 6
8, 6
4, 7
7, 5
8, 2
3, 7
3, 2
5, 7
3, 7
7, 6
4, 5
6, 5
6, 3
3, 8
2, 6
8, 3
4, 4
8, 5
2, 3
9, 5
5, 5
8, 10
2, 5
5, 2
6, 2
7, 3
2, 3
2, 2
4, 4
3, 3
2, 4
7, 5
1, 6
0, 3
2, 4
1, 7
2, 5
6, 3
0, 2
7, 2
3, 6
3, 4
3, 4
5, 3
4, 5
2, 4
4, 5
4, 2
3, 3
2, 4
4, 6
5, 3
4, 1
5, 6
4, 6
3, 3
3, 2
0, 2
0, 3
4, 2
6, 0
4, 4
2, 3
4, 3
2, 4
3, 4
1, 4
6, 1
1, 7
3, 3
1, 2
2, 3
4, 2
3, 5
2, 3
1, 6
0, 3
1, 4
2, 2
4, 2
1, 3
5, 4
1, 1
2, 3
2, 4
2, 2
1, 0
3, 2
2, 0
2, 3
1, 2
2, 5
4, 3
1, 3
1, 2
1, 5
1, 1
4, 4
2, 1
3, 1
1, 8
2, 0
2, 5
2, 4
1, 4
3, 1
1, 1
0, 5
3, 4
4, 1
1, 2
2, 0
2, 2
1, 2
2, 4
4, 5
3, 3
5, 2
2, 1
6, 4
1, 0
2, 2
2, 2
3, 2
0, 2
4, 3
3, 2
3, 1
2, 5
4, 1
2, 3
2, 2
2, 4
2, 2
2, 2
5, 5
5, 4
2, 4
3, 1
3, 3
1, 3
4, 1
5, 4
3, 0
3, 1
0, 2
0, 1
3, 1
1, 3
1, 3
1, 3
1, 0
4, 1
4, 3
1, 1
1, 2
2, 1
1, 0
3, 6
1, 0
2, 1
4, 0
2, 1
1, 0
3, 2
2, 3
4, 4
4, 2
1, 2
5, 2
2, 1
2, 1
4, 1
2, 1
0, 0
0, 1
1, 2
2, 3
3, 0
2, 4
2, 0
1, 0
1, 1
0, 1
1, 1
1, 1
1, 1
0, 1
1, 1
1, 1
3, 0
0, 1
1, 2
1, 0
2, 0
0, 2
3, 3
1, 2
1, 1
0, 1
2, 1
1, 2
0, 0
1, 2
2, 2
0, 3
1, 2
0, 0
2, 1
0, 2
1, 1
0, 0
1, 3
1, 0
0, 0
1, 1
0, 0
0, 1
0, 0
0, 1
0, 0
1, 1
1, 2
0, 1
2, 1
0, 2
2, 1
0, 4
0, 0
2, 0
0, 0
1, 1
1, 1
2, 0
1, 2
2, 1
1, 0
1, 0
0, 0
0, 1
0, 0
2, 0
1, 0
0, 0
0, 0
0, 1
2, 0
0, 0
1, 0
0, 0
1, 0
0, 0
1, 1
1, 0
1, 0
0, 0
0, 1
2, 0
1, 0
1, 2
0, 0
0, 0
0, 0
0, 1
1, 1
0, 1
1, 0
0, 0
0, 0
1, 0
2, 1
1, 0
0, 0
2, 1
1, 1
1, 1
1, 2
0, 0
0, 0
0, 0
1, 0
0, 0
2, 0
0, 0
0, 0
2, 0
1, 0
0, 0
0, 0
0, 0
0, 0
1, 0
0, 2
1, 0
0, 1
2, 2
0, 1
0, 0
1, 0
0, 1
2, 2
0, 0
0, 0
1, 0
0, 2
1, 0
0, 0
0, 0
1, 1
0, 0
0, 0
0, 0
0, 0
0, 0
0, 1
0, 0
0, 0
0, 0
0, 1
0, 0
0, 0
1, 0
0, 0
0, 0
0, 0
1, 1
0, 0
1, 0
0, 1
0, 0
0, 0
1, 0
0, 0
0, 0
0, 0
0, 0
1, 0
0, 0
0, 0
0, 0
0, 0
0, 0
0, 0
0, 0
0, 0
0, 0
0, 2
0, 0
0, 0
0, 0
2, 1
0, 1
1, 0
0, 0
1, 0
0, 0
0, 1
0, 1
0, 0
0, 1
0, 1
0, 0
0, 2
0, 0
1, 1
0, 1
0, 2
0, 1
0, 0
0, 0
0, 0
0, 0
0, 0
0, 1
0, 0
0, 0
0, 0
0, 1
0, 0
0, 0
0, 0
0, 1
1, 0
0, 1
0, 0
1, 1
1, 0
0, 0
0, 0
0, 0
1, 0
0, 0
1, 1
0, 0
0, 2
0, 0
0, 0
0, 1
0, 0
1, 0
0, 0
0, 0
1, 1
0, 0
0, 0
0, 0
0, 0
0, 0
0, 0
0, 0
0, 0
0, 0
0, 0
0, 0
0, 1
0, 0
0, 0
0, 0
1, 1
0, 1
0, 0
0, 0
0, 0
0, 1
0, 0
0, 0
0, 0
0, 0
0, 0
0, 0
0, 0
0, 0
0, 0
0, 0
0, 0
0, 0
0, 0
0, 1
0, 0
0, 0
1, 0
0, 0
0, 0
0, 0
0, 0
0, 0
0, 1
0, 0
0, 0
2, 0
1, 0
0, 0
0, 0
1, 0
0, 0
0, 1
0, 0
0, 0
0, 0
1, 0
0, 0
0, 0
0, 0
0, 0
0, 0
0, 0
0, 0
0, 0
0, 0
0, 0
0, 0
0, 0
0, 0
0, 0
0, 0
0, 0
0, 0
0, 0
0, 0
1, 1
0, 0
0, 0
0, 0
0, 0
0, 0
0, 0
0, 0
0, 0
0, 0
0, 0
0, 0
0, 0
0, 0
0, 0
0, 0
0, 0
0, 0
0, 0
0, 0
0, 0
0, 0
0, 0
1, 0
0, 0
0, 0
0, 0
0, 0
0, 0
0, 0
0, 0
0, 0
0, 0
0, 0
0, 0
0, 0
0, 1
0, 0
0, 0
1, 0
0, 0
0, 0
0, 0
0, 0
0, 0
0, 0
0, 0
0, 0
0, 0
0, 0
0, 0
0, 0
0, 0
0, 0
0, 0
0, 0
0, 0
0, 0
0, 0
0, 0
0, 0
0, 0
0, 0
0, 0
0, 0
0, 0
0, 0
0, 0
0, 0
0, 0
0, 0
0, 0
0, 0
0, 0
0, 0
0, 0
0, 0
0, 0
0, 0
0, 0
0, 0
0, 0
0, 0
0, 1
0, 0
1, 0
0, 0
0, 0
0, 0
0, 0
0, 0
0, 0
0, 0
0, 0
0, 0
0, 0
0, 0
0, 0
0, 0
0, 0
0, 0
0, 0
0, 0
0, 0
0, 0
0, 0
0, 0
0, 0
0, 0
0, 0
0, 0
0, 0
0, 0
0, 0
0, 0
0, 0
0, 0
0, 0
0, 0
0, 0
0, 0
0, 0
0, 0
0, 0
0, 0
0, 0
0, 0
0, 0
0, 0
0, 0
0, 0
0, 0
0, 0
0, 0
0, 0
0, 0
0, 0
0, 0
0, 0
0, 0
0, 0
0, 0
0, 0
1, 0
0, 0
0, 0
0, 0
0, 0
0, 0
0, 0
0, 0
0, 0
0, 0
0, 0
0, 0
0, 0
0, 0
0, 0
0, 0
0, 0
0, 0
0, 0
0, 0
0, 0
0, 0
0, 0
0, 0
0, 0
0, 0
0, 0
0, 0
0, 0
0, 0
0, 0
0, 0
0, 0
0, 0
0, 0
0, 0
0, 0
0, 0
0, 0
0, 0
0, 0
0, 0
0, 0
0, 0
0, 0
0, 0
0, 0
0, 0
0, 0
0, 0
0, 0
0, 0
0, 0
0, 0
0, 0
0, 0
0, 0
0, 0
0, 0
0, 0
0, 0
0, 0
0, 0
0, 0
0, 0
0, 0
0, 0
0, 0
0, 0
0, 0
0, 0
0, 0
0, 0
0, 0
0, 0
0, 0
0, 0
0, 0
0, 0
0, 0
0, 0
0, 0
0, 0
0, 0
0, 0
0, 0
0, 0
0, 0
0, 0
0, 0
0, 0
0, 0
0, 0
0, 0
0, 0
0, 0
0, 0
0, 0
0, 0
0, 0
0, 0
0, 0
0, 0
0, 0
0, 0
0, 0
0, 0
0, 0
0, 0
0, 0
0, 0
0, 0
0, 0
0, 0
0, 0
0, 0
0, 0
0, 0
0, 0
0, 0
0, 0
0, 0
0, 0
0, 0
0, 0
0, 0
0, 0
0, 0
0, 0
0, 0
0, 0
0, 0
0, 0
0, 0
0, 0
0, 0
0, 0
0, 0
0, 0
0, 0
0, 0
0, 0
0, 0
0, 0
0, 0
0, 0
0, 0
0, 0
0, 0
0, 0
0, 0
0, 0
0, 0
0, 0
0, 0
0, 0
0, 0
0, 0
0, 0
0, 0
0, 0
0, 0
0, 0
0, 0
0, 0
0, 0
0, 0
0, 0
0, 0
0, 0
0, 0
0, 0
0, 0
0, 0
0, 0
0, 0
0, 0
0, 0
0, 0
0, 0
0, 0
0, 0
0, 0
0, 0
0, 0
0, 0
0, 0
0, 0
0, 0
0, 0
0, 0
0, 0
0, 0
0, 0
0, 0
0, 0
0, 0
0, 0
0, 0
0, 0
0, 0
0, 0
0, 0
0, 0
0, 0
0, 0
0, 0
0, 0
0, 0
0, 0
0, 0
0, 0
0, 0
0, 0
0, 0
0, 0
0, 0
0, 0
0, 0
0, 0
0, 0
0, 0
0, 0
0, 0
0, 0
0, 0
0, 0
0, 0
0, 0
0, 0
0, 0
0, 0
0, 0
0, 0
0, 0
0, 0
0, 0
0, 0
0, 0
0, 0
0, 0
0, 0
0, 0
0, 0
0, 0
0, 0
0, 0
0, 0
0, 0
0, 0
0, 0
0, 0
0, 0
0, 0
0, 0
0, 0
0, 0
0, 0
0, 0
0, 0
0, 0
0, 0
0, 0
0, 0
0, 0
0, 0
0, 0
0, 0
0, 0
0, 0
0, 0
0, 0
0, 0
0, 0
0, 0
0, 0
0, 0
0, 0
0, 0
0, 0
0, 0
0, 0
0, 0
0, 0
0, 0
0, 0
0, 0
0, 0
0, 0
0, 0
0, 0
0, 0
0, 0
0, 0
0, 0
0, 0
0, 0
0, 0
0, 0
0, 0
0, 0
0, 0
0, 0
0, 0
0, 0
0, 0
0, 0
0, 0
0, 0
0, 0
0, 0
0, 0
0, 0
0, 0
0, 0
0, 0
0, 0
0, 0
0, 0
0, 0
0, 0
0, 0
0, 0
0, 0
0, 0
0, 0
0, 0
0, 0
0, 0
0, 0
0, 0
0, 0
0, 0
0, 0
0, 0
0, 0
0, 0
0, 0
0, 0
#ENDOFDATA     end of spectrum data