File: host_upload/02-11-2024/rqc/uplink1/ps__0567_0717304816_000rfs_shot_273.msa
#FORMAT      : EMSA/MAS spectral data file
#VERSION     : TC202v2.0 PIXL
#TITLE       : Novarupta (sol567) subset1
#DATE        : 02-11-2024      Date in the format DD-MMM-YYYY, for example 07-JUL-2010
#TIME        :             The time of day at which the spectrum was recorded, in 24-hour format
#OWNER       : PIXL Flight Model       (PIXL will use this to indicate which instrument took the data.)
#NPOINTS     : 4096     Number of data points in the spectrum (This can be zero for configuration only files)
#NCOLUMNS    : 2     Number of data columns in the spectrum (This can be zero for configuration only files)
#XUNITS      : eV
#YUNITS      : COUNTS
#DATATYPE    : YY
#XPERCHAN    : 7.862, 7.881   eV per channel (separate by commas if more than one detector)
#OFFSET      : 18.5, -22.4         eV of first channel  (separate by commas if more than one detector
#SIGNALTYPE  : XRF
#YP_TEMP     : 1.337
#LIVETIME    : 8.82988, 8.81469   seconds (separate by commas if more than one detector)
#REALTIME    : 10, 10.0   seconds (separate by commas if more than one detector)
#SPECTRUM    : start of spectrum data
0, 0
0, 0
0, 0
0, 0
0, 0
0, 0
0, 0
0, 0
0, 0
0, 0
0, 0
0, 0
0, 0
0, 0
0, 0
0, 0
0, 0
0, 0
0, 0
0, 0
0, 0
0, 0
0, 0
0, 0
0, 0
0, 0
0, 0
0, 0
0, 0
0, 0
0, 0
0, 0
1, 0
0, 0
1, 1
3, 1
3, 1
1, 2
2, 5
4, 4
2, 6
5, 9
3, 4
4, 2
2, 1
7, 1
1, 4
4, 2
4, 3
5, 2
3, 9
8, 6
10, 9
9, 21
13, 17
17, 16
18, 14
10, 8
9, 9
14, 12
16, 22
28, 28
36, 44
50, 49
48, 59
58, 41
39, 45
41, 35
44, 59
55, 51
97, 103
194, 218
310, 350
392, 502
465, 542
492, 528
441, 470
364, 351
199, 223
137, 137
95, 95
50, 32
39, 42
24, 28
21, 40
24, 41
27, 36
32, 51
24, 41
14, 29
21, 17
22, 24
29, 30
48, 54
82, 97
135, 127
251, 238
266, 333
294, 350
322, 340
293, 313
234, 240
186, 160
103, 118
67, 68
69, 51
53, 60
68, 71
84, 115
132, 154
169, 200
204, 256
252, 224
230, 269
217, 225
163, 190
114, 135
122, 112
104, 101
79, 97
80, 77
61, 82
52, 65
51, 68
49, 38
37, 34
26, 31
18, 27
17, 19
14, 9
14, 15
8, 10
8, 6
10, 8
8, 3
7, 7
10, 18
20, 21
13, 23
25, 30
42, 42
32, 30
21, 32
21, 29
22, 20
14, 11
17, 11
6, 9
9, 7
19, 21
41, 31
50, 67
77, 117
138, 166
198, 254
311, 339
350, 412
350, 417
373, 403
276, 330
252, 264
168, 163
111, 94
73, 48
44, 36
39, 34
20, 29
33, 59
44, 48
53, 56
63, 87
47, 58
65, 66
43, 54
39, 29
25, 27
18, 22
18, 16
4, 10
11, 6
8, 17
12, 11
12, 9
7, 11
7, 9
11, 11
19, 24
34, 26
32, 31
48, 58
66, 56
78, 79
46, 64
47, 61
59, 46
43, 47
42, 29
26, 18
28, 25
19, 23
11, 19
17, 12
21, 8
13, 19
16, 8
9, 13
21, 6
16, 15
13, 15
12, 27
14, 24
26, 17
20, 16
22, 13
19, 11
8, 12
18, 20
8, 5
9, 17
11, 8
9, 8
13, 12
18, 14
12, 16
15, 21
17, 14
19, 22
18, 25
20, 31
31, 35
31, 21
21, 29
23, 37
21, 29
17, 23
15, 13
12, 10
17, 13
8, 11
8, 16
4, 15
8, 18
19, 24
15, 13
16, 18
16, 23
28, 40
36, 29
27, 42
37, 57
50, 55
36, 43
55, 42
45, 39
31, 41
36, 27
24, 15
18, 23
23, 19
19, 21
23, 29
31, 32
56, 57
63, 88
109, 176
213, 300
413, 488
538, 765
851, 1091
1189, 1352
1434, 1672
1716, 1868
1772, 1901
1689, 1662
1457, 1441
1211, 1108
873, 818
589, 559
386, 309
196, 193
126, 122
70, 62
33, 41
18, 24
10, 13
21, 16
15, 17
12, 15
24, 19
18, 25
28, 24
30, 37
43, 56
57, 62
73, 111
111, 164
156, 199
193, 247
206, 266
285, 315
262, 273
253, 275
220, 189
188, 156
131, 138
112, 91
52, 50
31, 42
18, 21
17, 14
13, 18
6, 9
5, 13
9, 17
3, 10
13, 8
8, 14
13, 12
11, 11
12, 13
15, 19
11, 9
12, 13
12, 6
9, 7
12, 6
1, 6
4, 6
5, 4
2, 5
5, 3
6, 7
9, 6
6, 5
2, 7
2, 4
10, 4
8, 4
4, 8
4, 6
11, 6
4, 7
8, 7
8, 13
8, 10
6, 10
7, 8
4, 7
6, 4
5, 8
5, 14
5, 8
5, 5
5, 6
3, 5
6, 5
5, 6
3, 5
5, 8
9, 5
12, 12
11, 11
5, 9
8, 12
5, 12
11, 12
10, 10
7, 17
10, 9
12, 11
12, 10
6, 6
13, 13
6, 12
5, 4
8, 7
6, 5
9, 3
4, 7
3, 11
3, 9
4, 11
4, 9
6, 3
6, 6
5, 11
12, 6
5, 8
6, 7
4, 4
1, 3
6, 2
10, 9
2, 7
5, 7
1, 5
6, 10
5, 4
4, 1
9, 8
6, 3
3, 5
2, 7
4, 6
7, 9
3, 7
4, 6
3, 1
7, 4
2, 6
5, 4
3, 5
5, 3
6, 4
9, 6
6, 4
6, 7
8, 5
3, 1
5, 3
11, 5
4, 10
4, 4
7, 7
7, 1
5, 2
3, 9
3, 2
3, 11
10, 3
4, 5
5, 5
4, 3
2, 0
7, 3
6, 4
6, 3
5, 3
6, 2
5, 4
2, 8
2, 5
6, 4
4, 8
4, 7
2, 5
1, 4
4, 2
5, 8
5, 4
3, 3
5, 7
4, 3
4, 4
2, 5
3, 7
6, 5
3, 2
3, 4
7, 2
4, 4
4, 9
4, 2
6, 3
1, 4
4, 3
4, 3
3, 1
2, 5
4, 3
7, 2
1, 4
5, 3
5, 5
3, 2
3, 3
2, 1
3, 3
4, 4
4, 6
5, 2
1, 6
3, 3
3, 2
0, 1
3, 3
5, 3
1, 3
2, 3
4, 2
5, 1
4, 2
0, 2
5, 4
4, 4
5, 5
4, 5
2, 0
1, 4
1, 2
3, 7
1, 3
5, 1
2, 2
2, 3
0, 1
3, 3
2, 1
3, 2
1, 2
4, 2
3, 3
0, 2
2, 2
3, 1
4, 0
3, 2
5, 1
1, 6
2, 1
3, 1
1, 2
2, 2
4, 0
1, 4
1, 4
0, 3
3, 3
0, 3
2, 3
2, 4
4, 3
0, 3
2, 0
2, 4
1, 1
2, 1
1, 0
1, 6
4, 2
3, 6
1, 3
3, 2
6, 0
1, 2
3, 2
5, 2
0, 2
3, 0
2, 1
3, 1
1, 1
0, 2
0, 1
1, 1
2, 2
0, 0
1, 2
1, 4
4, 1
1, 1
4, 2
2, 2
0, 0
2, 2
2, 4
4, 1
3, 5
1, 2
2, 1
3, 0
4, 3
0, 1
3, 1
1, 1
1, 1
3, 0
1, 0
7, 1
0, 3
2, 2
2, 3
1, 1
1, 2
3, 3
1, 1
0, 2
0, 0
2, 2
3, 0
0, 1
2, 1
1, 1
0, 3
3, 1
1, 0
1, 1
0, 0
2, 1
2, 0
1, 0
0, 0
2, 0
1, 0
2, 0
0, 0
2, 1
0, 0
0, 0
2, 0
0, 2
2, 2
1, 0
0, 0
1, 2
0, 1
0, 1
0, 1
2, 0
1, 0
0, 1
1, 2
1, 1
0, 3
1, 0
1, 1
0, 0
2, 1
1, 0
0, 1
1, 0
0, 2
0, 1
0, 0
1, 3
0, 0
1, 1
1, 1
1, 1
1, 0
0, 1
1, 2
2, 0
1, 1
1, 1
0, 0
0, 1
0, 0
0, 0
0, 0
1, 1
2, 1
1, 1
1, 1
1, 1
0, 0
3, 2
2, 1
1, 1
0, 0
1, 1
0, 2
0, 1
1, 0
3, 0
3, 0
1, 0
2, 0
0, 0
0, 1
0, 0
2, 1
1, 0
2, 0
0, 0
0, 0
0, 3
3, 2
0, 0
1, 0
0, 0
0, 0
0, 0
1, 2
0, 0
0, 1
1, 0
0, 2
1, 0
1, 0
0, 1
0, 0
0, 0
1, 1
0, 0
0, 1
0, 2
1, 1
1, 0
1, 0
0, 0
0, 0
0, 0
2, 1
0, 0
0, 2
0, 0
0, 0
0, 1
0, 1
0, 0
0, 2
0, 1
0, 0
1, 2
0, 1
0, 0
1, 0
0, 0
0, 0
2, 0
0, 1
0, 0
0, 1
0, 0
0, 0
0, 0
0, 0
0, 0
0, 0
0, 1
0, 0
0, 0
0, 0
1, 0
1, 1
0, 1
1, 1
1, 0
0, 0
0, 1
0, 0
1, 0
0, 1
1, 0
0, 0
0, 0
1, 0
0, 0
0, 1
2, 0
0, 0
0, 1
0, 0
1, 0
0, 1
0, 0
0, 0
0, 0
0, 1
0, 0
1, 1
1, 0
0, 0
0, 0
0, 0
0, 0
0, 0
0, 0
0, 1
1, 0
0, 0
1, 0
0, 0
1, 0
2, 0
1, 0
0, 0
0, 0
0, 0
1, 0
0, 0
0, 0
0, 0
0, 0
1, 1
0, 1
0, 0
0, 2
1, 0
0, 1
0, 0
0, 0
0, 0
0, 0
0, 0
0, 0
0, 0
0, 0
0, 1
0, 0
0, 0
0, 1
0, 0
0, 0
0, 0
1, 1
0, 0
0, 0
1, 0
1, 0
1, 0
0, 0
0, 0
0, 0
0, 0
0, 1
0, 0
0, 0
0, 0
0, 0
0, 0
0, 0
0, 0
2, 0
0, 0
1, 0
0, 0
0, 0
0, 0
0, 0
0, 0
0, 0
0, 0
0, 0
0, 0
0, 0
0, 0
0, 1
1, 0
0, 0
1, 0
0, 0
0, 0
0, 0
0, 0
0, 1
0, 0
0, 0
0, 0
0, 0
0, 0
0, 0
0, 1
0, 0
0, 0
0, 0
0, 0
0, 1
0, 0
0, 2
0, 0
1, 0
0, 0
0, 0
0, 0
0, 0
0, 0
0, 0
0, 0
0, 0
0, 0
0, 0
1, 0
0, 0
0, 0
0, 0
0, 0
0, 0
0, 0
0, 1
0, 1
0, 0
0, 0
0, 0
0, 0
0, 0
0, 0
0, 0
0, 0
0, 0
0, 0
0, 0
0, 0
0, 0
0, 0
0, 0
0, 0
0, 0
0, 0
0, 1
0, 0
1, 0
0, 0
0, 0
0, 0
0, 1
0, 0
0, 0
0, 0
0, 0
0, 0
0, 0
0, 0
0, 0
0, 0
0, 0
1, 0
0, 0
0, 0
0, 0
0, 0
0, 0
0, 0
0, 0
0, 0
0, 0
0, 0
0, 0
0, 0
0, 0
0, 0
0, 0
0, 0
0, 0
0, 0
0, 0
0, 0
1, 0
0, 0
0, 0
0, 0
0, 0
0, 0
0, 0
0, 0
0, 0
0, 0
0, 0
0, 0
0, 0
0, 0
0, 0
0, 1
0, 0
0, 0
0, 0
0, 0
0, 0
0, 0
0, 0
0, 0
0, 0
0, 0
0, 0
0, 0
0, 0
0, 0
0, 0
0, 0
0, 0
0, 0
0, 0
0, 0
0, 0
0, 0
0, 0
0, 0
1, 0
0, 0
0, 0
0, 0
0, 0
0, 0
0, 0
0, 0
0, 0
0, 0
0, 0
0, 0
0, 0
0, 0
0, 0
0, 0
0, 0
0, 0
0, 1
0, 0
0, 0
0, 0
0, 0
0, 0
0, 0
0, 0
0, 0
0, 0
0, 0
0, 0
0, 0
0, 0
0, 0
0, 0
0, 0
0, 0
0, 0
0, 0
0, 0
0, 0
0, 0
0, 0
0, 0
0, 0
0, 0
0, 0
0, 0
0, 0
0, 0
0, 0
0, 0
0, 0
0, 0
0, 0
0, 0
0, 0
0, 0
0, 0
0, 0
0, 0
0, 0
1, 0
0, 0
0, 0
0, 0
0, 0
0, 0
0, 0
0, 0
0, 0
0, 0
0, 0
0, 0
0, 0
0, 0
0, 0
0, 0
0, 0
0, 0
0, 0
0, 0
0, 0
0, 0
0, 0
0, 0
0, 0
0, 0
0, 0
0, 0
0, 0
0, 0
0, 0
0, 0
0, 0
0, 0
0, 0
0, 0
0, 0
0, 0
0, 0
0, 0
0, 0
0, 0
0, 0
0, 0
0, 0
0, 0
0, 0
0, 0
0, 0
0, 0
0, 0
0, 0
0, 0
0, 0
0, 0
0, 0
0, 0
0, 0
0, 0
0, 0
0, 0
0, 0
0, 0
0, 0
0, 0
0, 0
0, 0
0, 0
0, 0
0, 0
0, 0
0, 0
0, 0
0, 0
0, 0
0, 0
0, 0
0, 0
0, 0
0, 0
0, 0
0, 0
0, 0
0, 0
0, 0
0, 0
0, 0
0, 0
0, 0
0, 0
0, 0
0, 0
0, 0
0, 0
0, 0
0, 0
0, 0
0, 0
0, 0
0, 0
0, 0
0, 0
0, 0
0, 0
0, 0
0, 0
0, 0
0, 0
0, 0
0, 0
0, 0
0, 0
0, 0
0, 0
0, 0
0, 0
0, 0
0, 0
0, 0
0, 0
0, 0
0, 0
0, 0
0, 0
0, 0
0, 0
0, 0
0, 0
0, 0
0, 0
0, 0
0, 0
0, 0
0, 0
0, 0
0, 0
0, 0
0, 0
0, 0
0, 0
0, 0
0, 0
0, 0
0, 0
0, 0
0, 0
0, 0
0, 0
0, 0
0, 0
0, 0
0, 0
0, 0
0, 0
0, 0
0, 0
0, 0
0, 0
0, 0
0, 0
0, 0
0, 0
0, 0
0, 0
0, 0
0, 0
0, 0
0, 0
0, 0
0, 0
0, 0
0, 0
0, 0
0, 0
0, 0
0, 0
0, 0
0, 0
0, 0
0, 0
0, 0
0, 0
0, 0
0, 0
0, 0
0, 0
0, 0
0, 0
0, 0
0, 0
0, 0
0, 0
0, 0
0, 0
0, 0
0, 0
0, 0
0, 0
0, 0
0, 0
0, 0
0, 0
0, 0
0, 0
0, 0
0, 0
0, 0
0, 0
0, 0
0, 0
0, 0
0, 0
0, 0
0, 0
0, 0
0, 0
0, 0
0, 0
0, 0
0, 0
0, 0
0, 0
0, 0
0, 0
0, 0
0, 0
0, 0
0, 0
0, 0
0, 0
0, 0
0, 0
0, 0
0, 0
0, 0
0, 0
0, 0
0, 0
0, 0
0, 0
0, 0
0, 0
0, 0
0, 0
0, 0
0, 0
0, 0
0, 0
0, 0
0, 0
0, 0
0, 0
0, 0
0, 0
0, 0
0, 0
0, 0
0, 0
0, 0
0, 0
0, 0
0, 0
0, 0
0, 0
0, 0
0, 0
0, 0
0, 0
0, 0
0, 0
0, 0
0, 0
0, 0
0, 0
0, 0
0, 0
0, 0
0, 0
0, 0
0, 0
0, 0
0, 0
0, 0
0, 0
0, 0
0, 0
0, 0
0, 0
0, 0
0, 0
0, 0
0, 0
0, 0
0, 0
0, 0
0, 0
0, 0
0, 0
0, 0
0, 0
0, 0
0, 0
0, 0
0, 0
0, 0
0, 0
0, 0
0, 0
0, 0
0, 0
0, 0
0, 0
0, 0
0, 0
0, 0
0, 0
0, 0
0, 0
0, 0
0, 0
0, 0
0, 0
0, 0
0, 0
0, 0
0, 0
0, 0
#ENDOFDATA     end of spectrum data