File: host_upload/02-11-2024/rqc/uplink1/ps__0567_0717304816_000rfs_shot_320.msa
#FORMAT      : EMSA/MAS spectral data file
#VERSION     : TC202v2.0 PIXL
#TITLE       : Novarupta (sol567) subset1
#DATE        : 02-11-2024      Date in the format DD-MMM-YYYY, for example 07-JUL-2010
#TIME        :             The time of day at which the spectrum was recorded, in 24-hour format
#OWNER       : PIXL Flight Model       (PIXL will use this to indicate which instrument took the data.)
#NPOINTS     : 4096     Number of data points in the spectrum (This can be zero for configuration only files)
#NCOLUMNS    : 2     Number of data columns in the spectrum (This can be zero for configuration only files)
#XUNITS      : eV
#YUNITS      : COUNTS
#DATATYPE    : YY
#XPERCHAN    : 7.862, 7.881   eV per channel (separate by commas if more than one detector)
#OFFSET      : 18.5, -22.4         eV of first channel  (separate by commas if more than one detector
#SIGNALTYPE  : XRF
#YP_TEMP     : 1.594
#LIVETIME    : 8.84642, 8.82517   seconds (separate by commas if more than one detector)
#REALTIME    : 10, 10.0   seconds (separate by commas if more than one detector)
#SPECTRUM    : start of spectrum data
0, 0
0, 0
0, 0
0, 0
0, 0
0, 0
0, 0
0, 0
0, 0
0, 0
0, 0
0, 0
0, 0
0, 0
0, 0
0, 0
0, 0
0, 0
0, 0
0, 0
0, 0
0, 0
0, 0
0, 0
0, 0
0, 0
0, 0
0, 0
0, 0
0, 0
0, 0
0, 0
0, 1
1, 2
1, 1
1, 1
3, 2
0, 2
3, 4
3, 3
3, 1
5, 2
4, 7
3, 3
4, 9
5, 6
2, 3
0, 6
3, 3
6, 6
10, 4
9, 7
19, 17
17, 13
10, 16
10, 20
17, 6
8, 4
10, 8
10, 9
15, 12
20, 29
37, 40
50, 53
39, 41
45, 47
28, 44
30, 41
31, 38
59, 72
101, 114
198, 185
301, 320
381, 496
456, 547
458, 529
404, 447
300, 331
251, 252
121, 140
68, 76
48, 52
29, 32
15, 28
22, 35
32, 48
25, 28
23, 30
26, 29
17, 19
10, 22
13, 20
18, 15
36, 38
62, 69
107, 119
156, 178
213, 217
249, 255
220, 276
224, 228
183, 184
117, 124
83, 83
49, 56
47, 47
47, 43
46, 56
68, 93
105, 110
142, 127
183, 204
201, 211
188, 210
171, 199
128, 137
116, 136
79, 95
83, 83
72, 85
90, 82
53, 75
61, 55
55, 40
42, 50
37, 32
28, 35
20, 31
23, 19
15, 11
6, 11
15, 8
8, 12
6, 6
5, 5
7, 9
11, 13
8, 9
12, 27
25, 22
33, 28
28, 33
22, 26
22, 26
18, 22
18, 14
10, 10
9, 8
14, 13
16, 15
24, 29
50, 55
73, 95
117, 157
206, 228
266, 299
310, 362
329, 384
338, 345
301, 308
244, 234
146, 155
93, 105
56, 55
34, 27
27, 23
34, 31
27, 27
28, 42
46, 50
46, 61
50, 54
43, 70
42, 47
33, 44
33, 23
10, 11
8, 15
9, 10
12, 8
10, 7
5, 7
7, 8
4, 12
13, 12
12, 16
17, 16
21, 25
27, 38
50, 42
57, 55
65, 68
58, 67
63, 40
52, 77
40, 45
32, 40
29, 34
32, 24
17, 23
14, 19
21, 13
12, 16
12, 10
9, 14
20, 17
14, 18
9, 16
18, 12
15, 20
17, 11
22, 15
12, 16
8, 11
13, 21
9, 12
10, 11
11, 7
12, 11
11, 16
10, 9
8, 10
13, 12
9, 12
14, 18
9, 12
19, 19
23, 29
23, 26
29, 43
34, 36
27, 34
26, 31
17, 24
24, 19
23, 22
20, 21
9, 6
7, 13
14, 7
14, 12
11, 12
11, 10
16, 14
16, 13
19, 14
21, 30
27, 31
35, 49
38, 43
41, 60
40, 53
48, 44
40, 36
21, 33
23, 27
25, 10
22, 23
18, 16
11, 24
22, 20
19, 18
34, 45
63, 71
111, 161
204, 284
336, 405
556, 688
816, 1002
1092, 1365
1360, 1668
1608, 1791
1646, 1751
1602, 1674
1434, 1353
1125, 1126
814, 792
556, 496
328, 316
191, 186
128, 111
75, 52
39, 30
28, 22
20, 20
13, 12
10, 15
13, 12
11, 18
13, 18
17, 31
34, 40
39, 42
59, 55
77, 96
110, 152
131, 158
181, 222
227, 284
252, 261
238, 317
220, 223
176, 179
145, 179
103, 113
82, 80
62, 59
32, 21
24, 24
6, 21
6, 8
7, 11
8, 11
8, 10
8, 10
16, 16
18, 14
13, 15
17, 10
12, 14
10, 11
3, 13
13, 5
8, 11
6, 6
9, 7
5, 5
4, 6
4, 5
6, 4
5, 4
11, 11
6, 5
5, 10
4, 8
12, 8
5, 4
9, 7
6, 3
5, 4
7, 8
8, 6
2, 13
11, 9
8, 6
5, 9
7, 4
5, 6
6, 9
4, 6
7, 7
4, 6
10, 4
6, 5
5, 3
8, 8
5, 8
1, 5
3, 7
6, 9
6, 8
14, 10
10, 8
6, 9
9, 13
13, 6
11, 12
6, 8
8, 6
9, 10
9, 18
13, 7
7, 7
4, 7
5, 7
5, 5
4, 10
4, 7
6, 2
8, 8
7, 9
5, 7
9, 3
8, 6
7, 5
2, 10
1, 3
2, 8
3, 2
2, 5
2, 3
4, 4
4, 2
5, 2
9, 3
5, 10
6, 3
4, 2
10, 9
5, 5
6, 3
4, 3
2, 5
10, 7
8, 4
5, 7
6, 4
4, 3
7, 8
7, 6
5, 7
3, 3
2, 7
3, 3
3, 3
3, 3
6, 8
4, 2
4, 8
5, 5
5, 4
1, 5
5, 2
5, 3
5, 3
6, 4
3, 2
3, 5
6, 6
2, 4
6, 3
3, 6
4, 7
4, 2
3, 4
2, 7
4, 0
7, 2
4, 5
4, 6
10, 4
2, 3
2, 1
7, 4
4, 5
5, 3
8, 5
7, 2
3, 3
2, 2
2, 6
1, 1
4, 1
3, 0
4, 3
0, 4
6, 2
4, 4
1, 6
3, 2
3, 6
4, 6
5, 6
1, 1
3, 5
7, 2
2, 5
2, 2
2, 2
4, 5
2, 4
2, 3
4, 2
3, 1
5, 3
2, 0
4, 3
1, 2
0, 0
1, 2
1, 3
1, 3
2, 4
4, 2
1, 2
5, 1
2, 5
1, 1
3, 2
6, 4
4, 0
5, 5
3, 1
4, 3
2, 0
4, 3
2, 3
3, 3
1, 1
1, 3
1, 2
2, 4
4, 3
3, 5
7, 1
3, 3
3, 3
1, 2
3, 2
2, 3
1, 2
3, 5
2, 2
2, 1
1, 2
3, 2
0, 1
1, 0
1, 2
1, 1
0, 3
4, 0
7, 5
2, 0
2, 2
1, 0
2, 2
1, 3
1, 3
2, 9
3, 1
3, 2
1, 2
2, 1
3, 1
2, 3
0, 1
2, 2
3, 7
1, 1
3, 2
5, 2
3, 4
3, 3
2, 4
1, 2
5, 1
3, 0
3, 3
0, 5
0, 3
1, 2
1, 2
1, 3
0, 2
1, 3
1, 0
2, 1
1, 1
1, 2
0, 0
4, 1
1, 2
0, 1
2, 1
1, 3
1, 0
3, 0
3, 1
3, 1
1, 2
2, 3
1, 4
0, 1
1, 0
1, 2
0, 2
2, 1
1, 3
0, 0
0, 0
2, 1
1, 2
0, 1
1, 0
0, 0
1, 2
4, 0
1, 3
3, 2
0, 0
1, 0
0, 1
1, 2
1, 1
1, 1
0, 0
3, 1
0, 0
1, 2
1, 0
0, 1
3, 2
2, 0
1, 2
0, 1
0, 2
2, 1
3, 0
1, 1
1, 1
1, 0
1, 2
1, 1
0, 1
2, 0
1, 1
1, 2
0, 1
0, 0
0, 1
0, 1
0, 0
5, 0
0, 1
1, 1
3, 0
0, 2
0, 0
0, 0
1, 0
1, 2
0, 2
1, 0
0, 0
1, 1
3, 4
2, 2
0, 0
2, 0
1, 1
0, 0
0, 1
1, 0
1, 0
0, 1
1, 1
0, 2
0, 1
0, 1
0, 0
1, 1
0, 0
0, 2
0, 0
1, 1
1, 1
0, 1
0, 0
0, 0
1, 0
0, 0
0, 0
0, 1
1, 0
0, 0
0, 0
1, 0
0, 0
0, 0
2, 0
0, 1
0, 1
0, 0
0, 0
0, 0
0, 2
1, 0
3, 1
0, 1
1, 0
0, 0
0, 0
1, 0
0, 0
0, 0
0, 0
2, 0
0, 0
0, 0
0, 0
0, 0
0, 0
0, 0
0, 0
1, 1
0, 0
0, 0
1, 3
0, 0
1, 0
0, 0
0, 0
0, 0
0, 1
0, 0
1, 1
0, 0
0, 0
0, 1
0, 0
2, 1
0, 1
0, 0
0, 0
0, 0
0, 1
0, 0
1, 2
0, 0
0, 0
0, 1
1, 1
0, 0
0, 1
1, 0
0, 1
0, 0
0, 0
1, 0
0, 0
0, 0
1, 0
0, 0
1, 0
0, 0
1, 0
1, 0
0, 1
0, 0
0, 0
0, 0
0, 0
1, 0
0, 2
0, 0
0, 0
1, 1
0, 0
0, 0
0, 1
0, 0
0, 0
0, 0
1, 0
0, 0
0, 0
1, 1
1, 1
0, 0
0, 0
0, 0
0, 0
1, 0
0, 2
1, 0
0, 0
0, 0
0, 0
0, 0
2, 0
1, 0
0, 0
0, 1
0, 0
0, 0
2, 1
0, 2
0, 0
1, 0
0, 0
0, 0
0, 0
0, 0
0, 1
0, 1
0, 0
0, 0
0, 0
0, 0
0, 0
0, 1
0, 0
0, 1
0, 1
0, 0
1, 0
0, 0
0, 0
1, 0
0, 0
0, 0
0, 1
0, 0
1, 0
0, 0
0, 1
0, 0
0, 0
0, 0
0, 2
0, 0
0, 0
0, 0
0, 0
1, 0
0, 0
0, 0
1, 0
0, 0
0, 0
2, 0
0, 0
0, 0
0, 0
0, 0
0, 0
0, 0
0, 1
0, 0
0, 0
0, 0
0, 1
0, 0
0, 1
0, 0
0, 0
0, 0
0, 1
0, 0
0, 0
1, 0
0, 0
0, 0
0, 0
0, 0
0, 0
0, 0
0, 0
0, 0
0, 2
0, 0
0, 0
0, 1
0, 0
0, 0
0, 0
0, 0
0, 0
0, 0
0, 1
0, 0
1, 0
0, 0
0, 1
0, 0
0, 1
0, 0
0, 0
0, 0
0, 0
0, 0
0, 0
0, 0
0, 0
0, 0
0, 0
0, 0
0, 0
0, 0
0, 0
1, 0
0, 0
0, 0
0, 1
0, 0
0, 0
0, 0
0, 0
0, 0
0, 0
0, 0
0, 0
1, 0
0, 0
0, 0
0, 0
0, 0
0, 0
0, 0
0, 0
0, 0
0, 0
0, 0
0, 0
0, 0
0, 0
0, 0
0, 0
0, 0
0, 0
0, 0
0, 0
0, 0
0, 0
0, 0
0, 0
0, 0
0, 0
0, 0
0, 0
0, 0
0, 0
0, 0
0, 0
0, 0
0, 0
0, 0
0, 0
0, 0
0, 0
0, 0
0, 0
0, 0
0, 0
0, 0
0, 0
0, 0
0, 0
0, 0
0, 0
0, 0
0, 0
0, 0
0, 0
0, 0
0, 0
0, 0
0, 0
0, 0
1, 0
0, 0
0, 0
0, 0
0, 0
0, 0
0, 1
0, 0
0, 0
0, 0
0, 0
0, 0
0, 0
0, 0
0, 0
0, 0
0, 0
0, 0
0, 0
0, 0
0, 0
0, 0
0, 0
0, 0
0, 0
0, 0
0, 0
0, 0
0, 0
0, 0
0, 0
0, 0
0, 0
0, 0
0, 0
0, 0
0, 0
0, 0
0, 0
0, 0
0, 0
0, 0
0, 0
0, 0
0, 0
0, 1
0, 0
0, 0
0, 0
0, 0
0, 0
0, 0
0, 0
0, 0
0, 0
0, 0
0, 0
0, 0
0, 0
0, 0
0, 0
0, 0
0, 0
0, 0
0, 0
0, 0
0, 0
0, 0
0, 0
0, 0
0, 0
0, 0
0, 0
0, 0
0, 0
0, 0
0, 0
0, 0
0, 0
0, 0
0, 0
0, 0
0, 0
0, 0
0, 0
0, 0
0, 0
0, 0
0, 0
0, 0
0, 0
0, 0
0, 0
0, 0
0, 0
0, 0
0, 0
0, 0
0, 0
0, 0
0, 0
0, 0
0, 0
0, 0
0, 0
0, 0
0, 0
0, 0
0, 0
0, 0
0, 0
0, 0
0, 0
0, 0
0, 0
0, 0
0, 0
0, 0
0, 0
0, 0
0, 0
0, 0
0, 0
0, 0
0, 0
0, 0
0, 0
0, 0
0, 0
0, 0
0, 0
0, 0
0, 0
0, 0
0, 0
0, 0
0, 0
0, 0
0, 0
0, 0
0, 0
0, 0
0, 0
0, 0
0, 0
0, 0
0, 0
0, 0
0, 0
0, 0
0, 0
0, 0
0, 0
0, 0
0, 0
0, 0
0, 0
0, 0
0, 0
0, 0
0, 0
0, 0
0, 0
0, 0
0, 0
0, 0
0, 0
0, 0
0, 0
0, 0
0, 0
0, 0
0, 0
0, 0
0, 0
0, 0
0, 0
0, 0
0, 0
0, 0
0, 0
0, 0
0, 0
0, 0
0, 0
0, 0
0, 0
0, 0
0, 0
0, 0
0, 0
0, 0
0, 0
0, 0
0, 0
0, 0
0, 0
0, 0
0, 0
0, 0
0, 0
0, 0
0, 0
0, 0
0, 0
0, 0
0, 0
0, 0
0, 0
0, 0
0, 0
0, 0
0, 0
0, 0
0, 0
0, 0
0, 0
0, 0
0, 0
0, 0
0, 0
0, 0
0, 0
0, 0
0, 0
0, 0
0, 0
0, 0
0, 0
0, 0
0, 0
0, 0
0, 0
0, 0
0, 0
0, 0
0, 0
0, 0
0, 0
0, 0
0, 0
0, 0
0, 0
0, 0
0, 0
0, 0
0, 0
0, 0
0, 0
0, 0
0, 0
0, 0
0, 0
0, 0
0, 0
0, 0
0, 0
0, 0
0, 0
0, 0
0, 0
0, 0
0, 0
0, 0
0, 0
0, 0
0, 0
0, 0
0, 0
0, 0
0, 0
0, 0
0, 0
0, 0
0, 0
0, 0
0, 0
0, 0
0, 0
0, 0
0, 0
0, 0
0, 0
0, 0
0, 0
0, 0
0, 0
0, 0
0, 0
0, 0
0, 0
0, 0
0, 0
0, 0
0, 0
0, 0
0, 0
0, 0
0, 0
0, 0
0, 0
0, 0
0, 0
0, 0
0, 0
0, 0
0, 0
0, 0
0, 0
0, 0
0, 0
0, 0
0, 0
0, 0
0, 0
0, 0
0, 0
0, 0
0, 0
0, 0
0, 0
0, 0
0, 0
0, 0
0, 0
0, 0
0, 0
0, 0
0, 0
0, 0
0, 0
0, 0
0, 0
0, 0
0, 0
0, 0
0, 0
0, 0
0, 0
0, 0
0, 0
0, 0
0, 0
0, 0
0, 0
0, 0
0, 0
0, 0
0, 0
0, 0
0, 0
0, 0
0, 0
0, 0
0, 0
0, 0
0, 0
0, 0
0, 0
0, 0
0, 0
0, 0
0, 0
0, 0
0, 0
0, 0
0, 0
0, 0
0, 0
0, 0
0, 0
0, 0
0, 0
0, 0
0, 0
0, 0
0, 0
0, 0
0, 0
0, 0
0, 0
0, 0
0, 0
0, 0
0, 0
0, 0
0, 0
0, 0
0, 0
0, 0
0, 0
0, 0
0, 0
0, 0
0, 0
0, 0
0, 0
0, 0
0, 0
0, 0
0, 0
0, 0
0, 0
0, 0
0, 0
0, 0
0, 0
0, 0
0, 0
0, 0
0, 0
0, 0
0, 0
0, 0
0, 0
0, 0
#ENDOFDATA     end of spectrum data