File: host_upload/02-11-2024/rqc/uplink1/ps__0567_0717304816_000rfs_shot_420.msa
#FORMAT      : EMSA/MAS spectral data file
#VERSION     : TC202v2.0 PIXL
#TITLE       : Novarupta (sol567) subset1
#DATE        : 02-11-2024      Date in the format DD-MMM-YYYY, for example 07-JUL-2010
#TIME        :             The time of day at which the spectrum was recorded, in 24-hour format
#OWNER       : PIXL Flight Model       (PIXL will use this to indicate which instrument took the data.)
#NPOINTS     : 4096     Number of data points in the spectrum (This can be zero for configuration only files)
#NCOLUMNS    : 2     Number of data columns in the spectrum (This can be zero for configuration only files)
#XUNITS      : eV
#YUNITS      : COUNTS
#DATATYPE    : YY
#XPERCHAN    : 7.862, 7.881   eV per channel (separate by commas if more than one detector)
#OFFSET      : 18.5, -22.4         eV of first channel  (separate by commas if more than one detector
#SIGNALTYPE  : XRF
#YP_TEMP     : 1.947
#LIVETIME    : 8.82926, 8.80636   seconds (separate by commas if more than one detector)
#REALTIME    : 10, 10.0   seconds (separate by commas if more than one detector)
#SPECTRUM    : start of spectrum data
0, 0
0, 0
0, 0
0, 0
0, 0
0, 0
0, 0
0, 0
0, 0
0, 0
0, 0
0, 0
0, 0
0, 0
0, 0
0, 0
0, 0
0, 0
0, 0
0, 0
0, 0
0, 0
0, 0
0, 0
0, 0
0, 0
0, 0
0, 0
0, 0
0, 0
0, 0
0, 0
1, 0
0, 0
4, 0
1, 1
2, 1
4, 1
4, 5
2, 5
1, 6
4, 6
3, 1
2, 1
2, 3
2, 3
1, 3
2, 6
1, 3
1, 6
9, 8
6, 8
11, 10
13, 8
16, 14
10, 9
10, 16
10, 16
7, 13
11, 13
14, 20
24, 32
31, 43
48, 53
48, 56
25, 53
28, 51
28, 29
39, 37
45, 71
106, 126
149, 197
270, 353
399, 478
449, 536
439, 516
393, 419
300, 323
257, 267
132, 131
79, 84
47, 44
29, 42
19, 31
28, 39
28, 35
37, 31
35, 30
23, 29
23, 14
12, 16
19, 15
21, 31
50, 49
84, 87
104, 128
194, 206
242, 267
317, 315
272, 322
284, 294
208, 223
151, 150
105, 104
65, 67
50, 50
55, 63
45, 68
70, 106
89, 134
157, 144
177, 226
202, 211
203, 233
194, 206
163, 172
126, 123
94, 134
80, 100
73, 101
69, 83
65, 89
71, 70
50, 53
44, 45
37, 42
26, 16
14, 19
24, 18
12, 11
12, 9
7, 10
8, 9
10, 6
3, 11
9, 6
9, 16
7, 14
19, 29
18, 29
25, 33
24, 37
31, 30
22, 26
21, 19
22, 20
16, 9
13, 9
14, 11
11, 14
24, 31
43, 53
65, 94
113, 163
201, 250
281, 328
311, 369
354, 413
323, 364
300, 355
232, 229
143, 198
117, 99
60, 55
30, 30
16, 29
20, 29
34, 38
37, 45
54, 51
50, 55
53, 51
51, 65
50, 52
40, 31
14, 34
13, 30
11, 12
6, 12
9, 11
8, 12
5, 7
6, 11
6, 11
10, 16
10, 5
16, 21
22, 30
31, 34
50, 34
49, 45
53, 60
53, 65
52, 64
56, 56
41, 37
43, 31
33, 27
19, 16
26, 10
19, 21
13, 15
7, 10
13, 13
9, 17
11, 14
16, 17
20, 15
19, 27
14, 17
14, 19
15, 18
18, 21
11, 21
15, 19
14, 12
12, 9
15, 13
8, 9
10, 12
11, 9
10, 8
8, 8
12, 13
18, 15
9, 27
11, 22
25, 23
19, 13
25, 23
24, 38
33, 42
23, 25
20, 26
23, 21
21, 19
14, 10
12, 15
12, 14
14, 11
17, 18
8, 13
9, 11
13, 17
13, 23
11, 21
22, 35
23, 45
27, 57
31, 38
49, 43
48, 61
55, 51
57, 44
33, 35
29, 34
23, 26
28, 26
25, 21
19, 13
23, 20
29, 23
45, 40
48, 96
131, 177
197, 283
370, 450
575, 752
841, 1039
1138, 1463
1409, 1799
1605, 1962
1740, 2009
1698, 1895
1402, 1548
1147, 1201
910, 870
640, 562
384, 355
237, 229
129, 108
80, 67
33, 34
26, 19
21, 12
17, 16
13, 17
15, 14
23, 21
23, 27
23, 24
26, 39
33, 40
65, 60
90, 92
116, 160
155, 203
188, 234
259, 248
243, 269
260, 288
250, 280
209, 215
152, 177
142, 128
93, 68
66, 58
33, 27
25, 18
15, 25
10, 12
4, 17
9, 14
6, 10
9, 10
12, 10
12, 16
11, 19
10, 14
10, 9
15, 14
9, 16
9, 11
8, 8
6, 4
4, 6
5, 8
5, 8
9, 7
9, 4
7, 6
4, 7
5, 12
6, 3
4, 7
7, 4
3, 5
3, 5
7, 7
6, 6
6, 8
6, 8
6, 12
2, 1
7, 5
9, 5
7, 5
11, 8
6, 11
6, 6
7, 6
3, 5
4, 4
7, 7
4, 5
7, 11
8, 8
6, 10
6, 6
12, 4
4, 9
11, 10
7, 8
6, 6
8, 12
10, 13
16, 13
18, 9
14, 9
6, 8
17, 9
9, 5
6, 5
7, 5
10, 4
3, 9
7, 5
6, 3
1, 4
3, 8
3, 6
9, 1
5, 4
7, 5
6, 5
3, 5
7, 3
4, 6
6, 10
4, 3
7, 5
7, 4
3, 3
5, 8
6, 3
1, 4
7, 3
7, 2
9, 10
6, 7
9, 7
2, 4
2, 6
10, 7
0, 2
5, 7
8, 8
2, 8
9, 5
2, 4
0, 8
7, 5
3, 5
5, 6
4, 1
2, 6
2, 3
4, 7
3, 3
7, 1
4, 2
7, 4
8, 2
5, 9
1, 4
4, 4
6, 6
7, 7
3, 4
1, 6
4, 5
2, 4
5, 4
4, 2
8, 5
4, 0
4, 2
3, 2
1, 3
0, 3
3, 2
4, 4
4, 2
4, 5
5, 6
3, 4
6, 6
5, 4
6, 2
2, 1
3, 3
2, 6
1, 2
5, 3
1, 1
1, 1
4, 4
2, 1
1, 2
3, 8
3, 3
4, 4
7, 3
3, 0
2, 4
3, 3
2, 4
5, 6
3, 2
5, 2
2, 0
2, 2
1, 2
1, 5
2, 4
5, 1
3, 4
2, 2
2, 3
2, 4
3, 3
5, 3
5, 4
1, 1
3, 3
0, 1
0, 1
0, 3
7, 3
2, 4
3, 4
1, 5
2, 5
2, 4
2, 0
3, 3
0, 2
5, 2
3, 2
0, 4
4, 3
1, 1
4, 6
3, 1
3, 2
1, 4
2, 0
2, 3
1, 0
3, 2
3, 1
2, 0
1, 2
2, 2
2, 1
4, 5
5, 1
2, 1
2, 0
2, 4
2, 2
1, 4
3, 1
3, 1
1, 4
2, 3
3, 1
4, 0
1, 1
1, 2
2, 5
1, 2
0, 1
1, 1
3, 1
2, 2
3, 3
4, 1
5, 5
3, 2
3, 3
1, 5
3, 2
2, 1
6, 2
2, 6
3, 2
0, 0
3, 1
1, 3
1, 1
6, 2
1, 1
2, 0
1, 2
3, 0
0, 1
0, 2
0, 2
2, 1
0, 0
2, 1
3, 1
2, 1
2, 0
2, 0
1, 2
1, 1
1, 2
0, 2
6, 3
0, 2
1, 1
1, 1
0, 1
3, 2
1, 3
3, 5
2, 2
0, 0
0, 1
3, 0
1, 3
0, 1
0, 1
0, 4
1, 0
0, 0
1, 1
1, 3
1, 0
1, 2
0, 1
2, 0
2, 2
0, 2
1, 1
1, 1
1, 1
2, 4
0, 1
0, 1
0, 2
0, 1
0, 2
2, 1
0, 1
1, 0
0, 1
0, 0
0, 3
0, 3
1, 0
0, 2
0, 0
1, 0
1, 1
1, 1
1, 0
2, 1
0, 1
0, 2
0, 2
0, 0
0, 0
1, 0
1, 1
1, 1
0, 1
0, 1
0, 1
0, 1
1, 4
0, 1
0, 0
1, 0
1, 1
1, 1
0, 1
1, 0
0, 0
0, 1
0, 0
2, 0
0, 0
2, 0
1, 1
0, 0
1, 0
1, 0
0, 1
2, 2
1, 1
1, 2
2, 1
0, 1
0, 1
0, 0
4, 0
1, 0
0, 0
0, 0
0, 0
0, 3
0, 1
0, 0
0, 0
1, 0
0, 0
2, 1
0, 1
0, 1
1, 0
0, 0
0, 0
0, 1
3, 0
2, 1
1, 0
1, 1
0, 1
0, 0
0, 0
0, 0
0, 1
4, 0
1, 0
1, 0
0, 0
1, 0
0, 1
2, 0
1, 2
0, 1
1, 1
1, 0
0, 0
0, 0
0, 0
0, 0
2, 1
0, 1
0, 2
0, 0
0, 0
0, 0
0, 0
2, 0
1, 1
0, 0
2, 0
1, 0
0, 0
2, 0
1, 0
1, 0
1, 1
0, 0
0, 1
2, 0
1, 1
0, 0
0, 0
0, 0
0, 1
0, 0
0, 0
0, 0
2, 0
0, 0
1, 0
0, 0
0, 0
0, 0
0, 0
2, 0
0, 0
0, 0
0, 0
0, 0
1, 1
0, 0
0, 1
0, 0
0, 2
0, 0
0, 0
1, 0
0, 1
0, 0
0, 0
0, 0
1, 0
0, 0
0, 1
0, 0
0, 0
0, 1
0, 0
1, 0
0, 0
2, 0
0, 0
0, 0
0, 1
0, 1
0, 0
0, 0
0, 0
1, 0
0, 1
0, 1
0, 0
0, 0
1, 1
0, 0
0, 0
1, 1
0, 0
2, 0
0, 0
1, 1
0, 0
0, 0
0, 1
1, 0
1, 0
0, 0
1, 0
0, 0
0, 0
0, 0
0, 0
0, 0
0, 1
0, 0
0, 0
0, 0
0, 0
1, 0
0, 0
0, 2
1, 0
1, 1
1, 1
0, 0
0, 0
0, 0
0, 1
1, 0
0, 0
1, 0
0, 1
1, 0
0, 0
0, 1
0, 1
0, 1
0, 0
0, 0
0, 0
0, 0
0, 1
0, 1
0, 1
0, 1
0, 0
0, 0
0, 0
0, 0
0, 0
0, 1
0, 0
1, 0
0, 0
0, 0
1, 0
0, 0
0, 0
0, 0
0, 0
0, 0
0, 0
0, 0
0, 0
0, 0
0, 0
0, 1
0, 0
0, 0
0, 1
0, 0
1, 0
0, 0
0, 0
0, 1
0, 0
0, 0
0, 0
0, 0
0, 0
0, 0
0, 1
1, 0
0, 0
0, 0
0, 0
0, 0
0, 0
0, 0
0, 0
0, 0
0, 0
0, 0
0, 0
0, 0
0, 0
0, 0
0, 0
0, 0
0, 1
0, 0
0, 0
0, 1
0, 0
0, 0
0, 0
0, 0
0, 0
0, 0
0, 0
0, 0
1, 0
0, 0
0, 0
0, 0
0, 0
0, 0
0, 0
0, 0
0, 0
0, 0
0, 0
0, 0
1, 0
0, 0
0, 0
0, 0
0, 0
0, 0
0, 0
0, 0
1, 0
0, 0
0, 0
0, 0
0, 0
0, 0
0, 0
0, 0
0, 0
0, 0
0, 0
0, 0
0, 0
0, 0
0, 0
0, 0
0, 0
0, 0
0, 0
0, 0
0, 0
1, 0
0, 0
0, 0
0, 0
0, 0
0, 0
0, 0
0, 0
0, 0
0, 0
0, 0
0, 0
0, 0
0, 0
0, 1
0, 0
0, 0
0, 0
0, 0
0, 0
0, 0
0, 0
0, 0
0, 0
0, 0
1, 0
0, 0
0, 0
0, 0
0, 0
0, 0
0, 0
0, 0
0, 0
0, 0
0, 0
0, 0
0, 0
0, 0
0, 0
0, 0
0, 0
0, 0
0, 0
0, 0
0, 0
0, 0
0, 0
0, 1
0, 0
0, 0
0, 0
0, 0
0, 0
0, 0
0, 0
0, 0
0, 0
0, 0
0, 0
0, 0
0, 0
0, 0
0, 0
0, 0
0, 0
0, 0
0, 0
0, 0
0, 0
0, 0
0, 0
0, 0
0, 0
0, 0
0, 0
0, 0
0, 0
0, 0
0, 0
0, 0
0, 0
0, 0
0, 0
0, 0
0, 0
0, 0
0, 0
0, 0
0, 0
0, 0
0, 0
0, 0
0, 0
0, 0
0, 0
0, 0
0, 0
0, 0
0, 0
0, 0
0, 0
0, 0
0, 0
0, 0
0, 0
0, 0
0, 0
0, 0
0, 0
0, 0
0, 0
0, 0
0, 0
0, 0
0, 0
0, 0
0, 0
0, 0
0, 0
0, 0
0, 0
0, 0
0, 0
0, 0
0, 0
0, 0
0, 0
0, 0
0, 0
0, 0
0, 0
0, 0
0, 0
0, 0
0, 0
0, 0
0, 0
0, 0
0, 0
0, 0
0, 0
0, 0
0, 0
0, 0
0, 0
0, 0
0, 0
0, 0
0, 0
0, 0
0, 0
0, 0
0, 0
0, 0
0, 0
0, 0
0, 0
0, 0
0, 0
0, 0
0, 0
0, 0
0, 0
0, 0
0, 0
0, 0
0, 0
0, 0
0, 0
0, 0
0, 0
0, 0
0, 0
0, 0
0, 0
0, 0
0, 0
0, 0
0, 0
0, 0
0, 0
0, 0
0, 0
0, 0
0, 0
0, 0
0, 0
0, 0
0, 0
0, 0
0, 0
0, 0
0, 0
0, 0
0, 0
0, 0
0, 0
0, 0
0, 0
0, 0
0, 0
0, 0
0, 0
0, 0
0, 0
0, 0
0, 0
0, 0
0, 0
0, 0
0, 0
0, 0
0, 0
0, 0
0, 0
0, 0
0, 0
0, 0
0, 0
0, 0
0, 0
0, 0
0, 0
0, 0
0, 0
0, 0
0, 0
0, 0
0, 0
0, 0
0, 0
0, 0
0, 0
0, 0
0, 0
0, 0
0, 0
0, 0
0, 0
0, 0
0, 0
0, 0
0, 0
0, 0
0, 0
0, 0
0, 0
0, 0
0, 0
0, 0
0, 0
0, 0
0, 0
0, 0
0, 0
0, 0
0, 0
0, 0
0, 0
0, 0
0, 0
0, 0
0, 0
0, 0
0, 0
0, 0
0, 0
0, 0
0, 0
0, 0
0, 0
0, 0
0, 0
0, 0
0, 0
0, 0
0, 0
0, 0
0, 0
0, 0
0, 0
0, 0
0, 0
0, 0
0, 0
0, 0
0, 0
0, 0
0, 0
0, 0
0, 0
0, 0
0, 0
0, 0
0, 0
0, 0
0, 0
0, 0
0, 0
0, 0
0, 0
0, 0
0, 0
0, 0
0, 0
0, 0
0, 0
0, 0
0, 0
0, 0
0, 0
0, 0
0, 0
0, 0
0, 0
0, 0
0, 0
0, 0
0, 0
0, 0
0, 0
0, 0
0, 0
0, 0
0, 0
0, 0
0, 0
0, 0
0, 0
0, 0
0, 0
0, 0
0, 0
0, 0
0, 0
0, 0
0, 0
0, 0
0, 0
0, 0
0, 0
0, 0
0, 0
0, 0
0, 0
0, 0
0, 0
0, 0
0, 0
0, 0
0, 0
0, 0
0, 0
0, 0
0, 0
0, 0
0, 0
0, 0
0, 0
0, 0
0, 0
0, 0
0, 0
0, 0
0, 0
0, 0
0, 0
0, 0
0, 0
0, 0
0, 0
0, 0
0, 0
0, 0
0, 0
0, 0
0, 0
0, 0
0, 0
0, 0
0, 0
0, 0
0, 0
0, 0
0, 0
0, 0
0, 0
0, 0
0, 0
0, 0
0, 0
0, 0
0, 0
0, 0
0, 0
0, 0
0, 0
0, 0
0, 0
0, 0
0, 0
0, 0
0, 0
0, 0
0, 0
0, 0
0, 0
0, 0
0, 0
0, 0
0, 0
0, 0
0, 0
0, 0
0, 0
0, 0
0, 0
0, 0
0, 0
0, 0
0, 0
0, 0
0, 0
0, 0
0, 0
0, 0
0, 0
0, 0
0, 0
0, 0
0, 0
0, 0
#ENDOFDATA     end of spectrum data