File: host_upload/02-11-2024/rqc/uplink1/ps__0567_0717304816_000rfs_shot_415.msa
#FORMAT      : EMSA/MAS spectral data file
#VERSION     : TC202v2.0 PIXL
#TITLE       : Novarupta (sol567) subset1
#DATE        : 02-11-2024      Date in the format DD-MMM-YYYY, for example 07-JUL-2010
#TIME        :             The time of day at which the spectrum was recorded, in 24-hour format
#OWNER       : PIXL Flight Model       (PIXL will use this to indicate which instrument took the data.)
#NPOINTS     : 4096     Number of data points in the spectrum (This can be zero for configuration only files)
#NCOLUMNS    : 2     Number of data columns in the spectrum (This can be zero for configuration only files)
#XUNITS      : eV
#YUNITS      : COUNTS
#DATATYPE    : YY
#XPERCHAN    : 7.862, 7.881   eV per channel (separate by commas if more than one detector)
#OFFSET      : 18.5, -22.4         eV of first channel  (separate by commas if more than one detector
#SIGNALTYPE  : XRF
#YP_TEMP     : 1.658
#LIVETIME    : 8.83589, 8.81602   seconds (separate by commas if more than one detector)
#REALTIME    : 10, 10.0   seconds (separate by commas if more than one detector)
#SPECTRUM    : start of spectrum data
0, 0
0, 0
0, 0
0, 0
0, 0
0, 0
0, 0
0, 0
0, 0
0, 0
0, 0
0, 0
0, 0
0, 0
0, 0
0, 0
0, 0
0, 0
0, 0
0, 0
0, 0
0, 0
0, 0
0, 0
0, 0
0, 0
0, 0
0, 0
0, 0
0, 1
0, 0
0, 0
1, 0
1, 2
0, 1
0, 0
0, 1
3, 5
3, 0
4, 2
5, 4
8, 4
1, 4
4, 4
1, 3
3, 0
3, 0
0, 3
3, 4
3, 2
9, 7
7, 10
13, 10
16, 16
15, 16
18, 18
12, 9
5, 7
6, 6
9, 12
20, 18
28, 22
31, 33
46, 36
45, 57
55, 45
37, 39
25, 36
36, 46
57, 65
107, 134
198, 221
260, 383
397, 430
476, 515
457, 516
423, 479
335, 350
238, 242
135, 135
74, 67
47, 60
34, 25
32, 21
32, 31
24, 24
35, 28
31, 32
23, 26
18, 15
9, 12
15, 14
30, 31
37, 43
81, 78
121, 175
208, 227
270, 296
285, 332
282, 312
271, 261
218, 221
165, 155
113, 117
63, 70
50, 50
50, 52
60, 62
89, 90
128, 151
139, 168
193, 228
205, 249
208, 239
201, 179
154, 161
113, 136
114, 89
88, 88
67, 89
71, 91
69, 68
51, 94
53, 56
42, 38
28, 35
27, 29
21, 23
11, 16
15, 12
11, 7
6, 7
5, 6
3, 4
6, 5
4, 16
8, 12
13, 9
24, 30
25, 15
33, 26
22, 30
26, 22
21, 24
15, 18
14, 14
15, 13
10, 10
9, 11
10, 12
12, 27
39, 61
81, 107
132, 166
203, 233
261, 312
319, 403
342, 368
344, 368
299, 302
216, 245
160, 176
99, 105
75, 62
39, 41
22, 25
29, 40
22, 37
39, 44
53, 65
48, 58
43, 67
51, 60
42, 64
33, 39
28, 32
25, 21
13, 12
9, 12
13, 7
12, 10
6, 10
6, 12
8, 17
17, 23
8, 18
17, 25
22, 30
28, 45
58, 56
60, 68
71, 84
82, 59
80, 84
58, 64
46, 51
35, 48
29, 21
26, 27
22, 30
19, 16
11, 7
11, 12
11, 19
10, 8
14, 20
13, 9
10, 17
18, 20
18, 30
14, 26
19, 21
21, 20
12, 20
13, 17
18, 15
13, 15
6, 14
9, 9
10, 18
9, 11
12, 13
16, 13
15, 13
11, 7
17, 30
16, 22
28, 30
22, 29
34, 38
36, 40
46, 34
31, 30
20, 23
22, 28
18, 18
14, 15
13, 9
7, 13
16, 8
10, 18
14, 15
12, 12
21, 14
8, 12
23, 37
23, 27
28, 40
37, 41
40, 54
42, 36
38, 57
51, 55
42, 41
38, 30
34, 32
28, 19
21, 17
22, 24
14, 20
24, 27
22, 30
36, 45
72, 78
122, 149
203, 276
343, 446
568, 737
806, 1011
1155, 1310
1451, 1606
1634, 1905
1629, 1833
1628, 1725
1509, 1437
1155, 1167
898, 779
593, 523
422, 343
211, 162
136, 120
62, 68
37, 30
21, 17
19, 20
10, 13
18, 20
13, 25
20, 23
23, 16
20, 26
19, 37
31, 44
51, 66
86, 90
122, 133
151, 193
221, 225
252, 275
240, 273
249, 292
244, 265
224, 230
169, 176
128, 129
85, 78
64, 45
33, 25
18, 21
24, 10
14, 13
15, 12
5, 7
7, 11
7, 11
13, 9
8, 9
14, 8
11, 14
14, 15
15, 10
8, 9
7, 8
8, 7
6, 7
2, 3
4, 8
5, 2
3, 5
7, 2
9, 5
4, 6
7, 7
4, 10
5, 10
8, 3
8, 7
5, 6
6, 9
6, 9
8, 2
6, 17
3, 9
4, 11
3, 5
9, 11
6, 7
4, 12
9, 6
3, 7
10, 11
4, 5
5, 3
12, 4
5, 8
3, 11
7, 6
8, 5
3, 6
5, 5
4, 11
6, 5
8, 11
8, 13
8, 9
13, 9
7, 11
8, 4
12, 11
8, 17
7, 13
7, 7
6, 7
3, 3
4, 1
9, 7
7, 11
5, 7
6, 8
5, 2
7, 4
6, 4
7, 4
3, 9
3, 7
8, 5
7, 7
6, 8
9, 3
3, 3
5, 10
1, 8
3, 3
1, 2
1, 5
5, 5
3, 7
3, 4
5, 8
1, 2
5, 1
3, 4
7, 4
2, 3
7, 4
9, 5
5, 1
8, 2
4, 7
5, 9
5, 5
2, 6
3, 4
7, 2
3, 6
6, 3
6, 4
6, 2
5, 3
4, 4
2, 5
4, 4
5, 6
6, 6
8, 5
4, 5
4, 7
6, 4
3, 6
3, 2
6, 3
6, 8
5, 2
6, 2
3, 8
3, 6
2, 4
2, 3
1, 3
2, 8
1, 4
2, 3
5, 1
8, 4
1, 6
5, 7
5, 4
3, 0
2, 3
3, 4
3, 2
4, 5
1, 4
4, 0
3, 3
3, 3
1, 3
4, 3
5, 4
4, 6
6, 1
3, 7
4, 5
1, 4
2, 3
3, 1
4, 2
5, 5
0, 4
3, 1
4, 7
3, 3
7, 2
3, 3
6, 2
5, 2
2, 8
2, 7
2, 5
6, 1
5, 2
4, 2
4, 4
4, 1
1, 3
4, 2
4, 1
5, 2
5, 3
6, 0
0, 5
0, 2
4, 2
1, 2
0, 2
1, 2
0, 1
3, 2
1, 2
2, 2
1, 3
2, 5
3, 2
1, 6
4, 2
2, 1
2, 2
2, 8
2, 3
2, 1
1, 1
2, 2
1, 1
2, 4
0, 2
2, 1
3, 1
1, 1
1, 1
3, 3
5, 0
1, 4
3, 4
6, 1
2, 3
1, 3
2, 2
2, 1
1, 4
1, 3
4, 3
1, 2
4, 5
1, 4
3, 1
1, 1
2, 4
3, 2
2, 1
0, 5
4, 6
2, 6
2, 2
2, 2
5, 2
7, 6
0, 2
4, 0
2, 1
2, 1
1, 2
0, 1
1, 2
2, 1
2, 5
1, 1
2, 1
2, 1
1, 1
1, 3
3, 3
3, 1
1, 3
2, 4
2, 3
3, 0
1, 0
0, 0
3, 2
4, 2
1, 1
1, 1
1, 3
1, 2
0, 1
0, 3
1, 0
1, 1
0, 1
0, 0
3, 3
3, 1
2, 1
1, 0
3, 1
2, 2
2, 0
0, 0
1, 5
1, 1
0, 0
1, 3
1, 4
1, 0
1, 1
0, 1
0, 0
0, 0
4, 2
1, 3
2, 0
4, 1
1, 0
0, 0
1, 0
0, 4
3, 0
1, 1
1, 2
1, 0
1, 0
1, 1
0, 0
0, 2
0, 1
1, 1
0, 1
2, 2
1, 1
2, 3
0, 1
0, 1
3, 0
4, 0
0, 1
0, 1
1, 1
1, 2
1, 0
3, 0
0, 1
1, 0
1, 0
1, 1
0, 0
0, 0
1, 1
0, 1
0, 0
0, 1
1, 2
1, 0
0, 2
0, 0
1, 1
0, 0
1, 0
0, 0
0, 1
0, 0
1, 0
2, 1
0, 0
0, 2
0, 0
0, 1
0, 1
0, 0
1, 0
1, 1
0, 0
1, 2
0, 1
2, 0
1, 0
1, 0
1, 0
0, 1
0, 3
0, 2
0, 0
1, 0
1, 0
0, 0
1, 1
1, 0
0, 1
0, 1
0, 1
0, 0
0, 0
0, 0
0, 0
0, 1
1, 0
0, 1
0, 0
1, 2
1, 0
0, 0
0, 1
0, 0
1, 0
0, 0
0, 0
0, 1
0, 2
1, 1
0, 1
0, 0
2, 0
0, 0
0, 0
1, 1
0, 0
1, 1
0, 1
0, 1
0, 1
0, 1
0, 0
0, 1
0, 0
0, 0
0, 0
1, 1
1, 0
0, 0
0, 0
0, 0
1, 0
1, 1
0, 0
0, 1
0, 0
0, 1
0, 0
0, 1
0, 0
0, 1
0, 0
0, 0
0, 1
0, 1
1, 0
0, 0
0, 0
0, 0
0, 0
0, 0
1, 0
0, 1
0, 0
1, 0
0, 0
0, 0
0, 0
0, 1
0, 0
0, 0
0, 0
0, 1
0, 2
0, 1
0, 0
0, 1
0, 0
0, 1
2, 0
0, 0
0, 0
0, 1
0, 0
0, 0
0, 1
0, 0
0, 1
2, 0
0, 0
0, 1
0, 1
0, 1
1, 0
0, 0
0, 0
2, 1
0, 0
0, 1
0, 0
0, 0
0, 1
0, 0
0, 0
0, 0
0, 0
1, 0
0, 0
0, 0
0, 0
0, 0
0, 0
0, 0
1, 0
0, 0
0, 0
0, 0
1, 1
0, 0
1, 3
0, 0
0, 1
0, 0
0, 0
0, 0
0, 0
0, 0
0, 0
0, 0
0, 1
0, 0
0, 0
0, 1
0, 0
1, 1
0, 1
2, 0
0, 0
0, 0
0, 0
0, 0
0, 0
0, 0
0, 0
0, 0
0, 1
0, 0
0, 0
0, 0
0, 0
0, 0
0, 0
0, 0
0, 0
0, 0
0, 0
1, 0
0, 0
0, 0
0, 0
0, 0
0, 1
0, 0
0, 0
0, 0
0, 0
0, 0
0, 0
0, 0
0, 0
0, 0
0, 1
1, 0
0, 1
1, 0
0, 0
0, 1
0, 0
0, 0
0, 0
0, 0
0, 0
0, 0
0, 0
0, 0
0, 0
0, 0
0, 0
0, 0
0, 0
0, 0
1, 0
0, 0
0, 1
0, 0
0, 0
0, 0
0, 1
0, 0
0, 0
0, 0
1, 0
0, 0
0, 0
0, 0
0, 0
0, 1
0, 0
0, 0
0, 0
0, 0
0, 0
0, 0
0, 0
0, 1
0, 0
0, 0
0, 0
1, 0
0, 0
0, 0
0, 0
0, 0
0, 0
0, 0
0, 0
0, 0
0, 0
0, 0
0, 0
0, 0
0, 0
0, 0
0, 0
0, 0
0, 0
0, 0
0, 0
0, 0
0, 0
0, 0
0, 0
0, 0
0, 0
0, 0
0, 0
0, 0
0, 0
0, 0
0, 0
0, 0
0, 0
0, 0
0, 0
0, 0
0, 0
0, 0
0, 0
0, 0
0, 0
0, 0
0, 0
0, 1
0, 0
0, 0
0, 0
0, 0
0, 0
0, 0
0, 0
0, 0
0, 0
0, 0
0, 0
0, 0
0, 0
0, 0
0, 0
0, 0
0, 0
0, 0
0, 0
0, 0
0, 0
0, 0
0, 0
0, 0
0, 0
0, 0
0, 0
0, 0
0, 0
0, 0
0, 0
0, 0
0, 0
0, 0
0, 0
0, 0
0, 0
0, 0
0, 0
0, 0
0, 0
0, 0
0, 0
0, 0
0, 0
0, 0
0, 0
0, 0
0, 0
0, 0
0, 0
0, 0
0, 0
0, 0
0, 0
0, 0
0, 0
0, 0
0, 0
0, 0
0, 0
0, 0
0, 0
0, 0
0, 0
0, 0
0, 0
0, 0
0, 0
0, 0
0, 0
0, 0
0, 0
0, 0
0, 0
0, 0
0, 0
0, 0
0, 0
0, 0
0, 0
0, 0
0, 0
0, 0
0, 0
0, 0
0, 0
0, 0
0, 0
0, 0
0, 0
0, 0
0, 0
0, 0
0, 0
0, 0
0, 0
0, 0
0, 0
0, 0
0, 0
0, 0
0, 0
0, 0
0, 0
0, 0
0, 0
0, 0
0, 0
0, 0
0, 0
0, 0
0, 0
0, 0
0, 0
0, 0
0, 0
0, 0
0, 0
0, 0
0, 0
0, 0
0, 0
1, 0
0, 0
0, 0
0, 0
0, 0
0, 0
0, 0
0, 0
0, 0
0, 0
0, 0
0, 0
0, 0
0, 0
0, 0
0, 0
0, 0
0, 0
0, 0
0, 0
0, 0
0, 0
0, 0
0, 0
0, 0
0, 0
0, 0
0, 0
0, 0
0, 0
0, 0
0, 0
0, 0
0, 0
0, 0
0, 0
0, 0
0, 0
0, 0
0, 0
0, 0
0, 0
0, 0
0, 0
0, 0
0, 0
0, 0
0, 0
0, 0
0, 0
0, 0
0, 0
0, 0
0, 0
0, 0
0, 0
0, 0
0, 0
0, 0
0, 0
0, 0
0, 0
0, 0
0, 0
0, 0
0, 0
0, 0
0, 0
0, 0
0, 0
0, 0
0, 0
0, 0
0, 0
0, 0
0, 0
0, 0
0, 0
0, 0
0, 0
0, 0
0, 0
0, 0
0, 0
0, 0
0, 0
0, 0
0, 0
0, 0
0, 0
0, 0
0, 0
0, 0
0, 0
0, 0
0, 0
0, 0
0, 0
0, 0
0, 0
0, 0
0, 0
0, 0
0, 0
0, 0
0, 0
0, 0
0, 0
0, 0
0, 0
0, 0
0, 0
0, 0
0, 0
0, 0
0, 0
0, 0
0, 0
0, 0
0, 0
0, 0
0, 0
0, 0
0, 0
0, 0
0, 0
0, 0
0, 0
0, 0
0, 0
0, 0
0, 0
0, 0
0, 0
0, 0
0, 0
0, 0
0, 0
0, 0
0, 0
0, 0
0, 0
0, 0
0, 0
0, 0
0, 0
0, 0
0, 0
0, 0
0, 0
0, 0
0, 0
0, 0
0, 0
0, 0
0, 0
0, 0
0, 0
0, 0
0, 0
0, 0
0, 0
0, 0
0, 0
0, 0
0, 0
0, 0
0, 0
0, 0
0, 0
0, 0
0, 0
0, 0
0, 0
0, 0
0, 0
0, 0
0, 0
0, 0
0, 0
0, 0
0, 0
0, 0
0, 0
0, 0
0, 0
0, 0
0, 0
0, 0
0, 0
0, 0
0, 0
0, 0
0, 0
0, 0
0, 0
0, 0
0, 0
0, 0
0, 0
0, 0
0, 0
0, 0
0, 0
0, 0
0, 0
0, 0
0, 0
0, 0
0, 0
0, 0
0, 0
0, 0
0, 0
0, 0
0, 0
0, 0
0, 0
0, 0
0, 0
0, 0
0, 0
0, 0
0, 0
0, 0
0, 0
0, 0
0, 0
0, 0
0, 0
0, 0
0, 0
0, 0
0, 0
0, 0
0, 0
0, 0
0, 0
0, 0
0, 0
0, 0
0, 0
0, 0
0, 0
0, 0
0, 0
0, 0
0, 0
0, 0
0, 0
0, 0
0, 0
0, 0
0, 0
0, 0
0, 0
0, 0
0, 0
0, 0
0, 0
0, 0
0, 0
0, 0
0, 0
0, 0
0, 0
0, 0
0, 0
0, 0
0, 0
0, 0
0, 0
0, 0
0, 0
0, 0
0, 0
0, 0
0, 0
0, 0
0, 0
0, 0
0, 0
0, 0
0, 0
0, 0
0, 0
0, 0
0, 0
0, 0
0, 0
0, 0
0, 0
0, 0
0, 0
0, 0
0, 0
0, 0
0, 0
0, 0
0, 0
0, 0
#ENDOFDATA     end of spectrum data