File: host_upload/02-11-2024/rqc/uplink1/ps__0567_0717304816_000rfs_shot_352.msa
#FORMAT      : EMSA/MAS spectral data file
#VERSION     : TC202v2.0 PIXL
#TITLE       : Novarupta (sol567) subset1
#DATE        : 02-11-2024      Date in the format DD-MMM-YYYY, for example 07-JUL-2010
#TIME        :             The time of day at which the spectrum was recorded, in 24-hour format
#OWNER       : PIXL Flight Model       (PIXL will use this to indicate which instrument took the data.)
#NPOINTS     : 4096     Number of data points in the spectrum (This can be zero for configuration only files)
#NCOLUMNS    : 2     Number of data columns in the spectrum (This can be zero for configuration only files)
#XUNITS      : eV
#YUNITS      : COUNTS
#DATATYPE    : YY
#XPERCHAN    : 7.862, 7.881   eV per channel (separate by commas if more than one detector)
#OFFSET      : 18.5, -22.4         eV of first channel  (separate by commas if more than one detector
#SIGNALTYPE  : XRF
#YP_TEMP     : 1.594
#LIVETIME    : 8.83316, 8.80277   seconds (separate by commas if more than one detector)
#REALTIME    : 10, 10.0   seconds (separate by commas if more than one detector)
#SPECTRUM    : start of spectrum data
0, 0
0, 0
0, 0
0, 0
0, 0
0, 0
0, 0
0, 0
0, 0
0, 0
0, 0
0, 0
0, 0
0, 0
0, 0
0, 0
0, 0
0, 0
0, 0
0, 0
0, 0
0, 0
0, 0
0, 0
0, 0
0, 0
0, 0
0, 0
0, 0
0, 0
0, 0
0, 0
2, 0
0, 1
2, 1
2, 0
0, 2
2, 3
3, 2
5, 4
2, 6
1, 4
2, 5
4, 4
0, 2
4, 4
3, 4
5, 7
6, 5
6, 5
7, 7
5, 14
9, 10
17, 12
14, 24
12, 20
12, 22
9, 16
17, 4
15, 5
16, 11
18, 19
41, 51
37, 39
46, 38
49, 38
40, 41
39, 34
37, 37
66, 63
92, 117
171, 215
254, 335
399, 440
441, 540
493, 520
464, 426
342, 344
233, 178
131, 132
80, 88
48, 48
40, 32
30, 40
33, 39
32, 41
39, 41
29, 32
25, 28
22, 22
17, 24
15, 24
29, 35
36, 56
74, 83
124, 150
183, 228
257, 264
309, 323
310, 367
264, 290
228, 206
161, 166
92, 97
81, 79
59, 55
48, 49
68, 64
88, 115
118, 139
144, 182
181, 215
208, 200
190, 217
171, 189
165, 142
120, 129
103, 109
70, 105
78, 86
68, 81
80, 54
65, 69
40, 63
42, 54
38, 48
24, 23
30, 17
15, 15
12, 23
20, 8
7, 2
10, 5
5, 10
7, 4
9, 14
8, 15
7, 13
18, 22
29, 34
24, 39
27, 24
20, 31
20, 26
20, 26
17, 12
13, 12
10, 7
11, 11
14, 22
25, 38
48, 63
86, 97
131, 183
206, 248
273, 313
291, 365
373, 396
355, 358
313, 332
229, 262
155, 162
97, 101
51, 64
43, 44
29, 29
28, 29
29, 34
47, 40
57, 42
50, 73
60, 47
47, 57
55, 42
37, 43
21, 32
21, 11
13, 10
9, 10
8, 6
12, 4
6, 9
9, 9
10, 5
12, 5
8, 19
23, 22
26, 26
33, 28
42, 42
58, 49
52, 59
55, 66
72, 62
44, 50
49, 47
29, 35
38, 40
16, 29
24, 12
17, 10
15, 19
17, 18
17, 7
8, 10
18, 15
10, 22
17, 21
11, 17
17, 24
9, 22
15, 16
14, 23
20, 13
13, 9
10, 19
11, 11
9, 20
13, 6
10, 12
11, 19
12, 12
17, 11
9, 12
14, 13
23, 15
18, 19
25, 25
29, 34
38, 27
40, 24
28, 36
31, 23
16, 14
27, 21
24, 23
13, 9
6, 14
9, 15
13, 8
5, 19
11, 15
8, 19
15, 13
23, 23
17, 23
17, 38
37, 36
35, 37
47, 38
50, 53
62, 51
50, 51
41, 36
39, 23
25, 18
31, 20
20, 18
19, 16
21, 15
14, 25
23, 18
36, 47
53, 89
118, 161
241, 290
407, 480
597, 700
861, 1102
1236, 1462
1468, 1643
1689, 1922
1738, 1986
1634, 1781
1514, 1550
1160, 1169
938, 815
625, 558
388, 311
222, 183
137, 111
75, 47
40, 31
20, 14
23, 28
13, 33
16, 10
22, 14
15, 24
28, 19
23, 30
29, 35
37, 37
63, 60
89, 103
116, 157
145, 183
211, 246
234, 279
269, 291
283, 330
238, 266
223, 256
202, 161
149, 131
113, 85
63, 52
36, 35
15, 32
9, 21
14, 14
13, 5
16, 7
8, 6
7, 18
17, 15
16, 17
14, 17
10, 11
10, 13
10, 10
10, 15
12, 5
4, 5
7, 10
4, 4
9, 8
9, 2
8, 5
10, 9
4, 5
5, 4
7, 5
5, 5
3, 6
6, 10
5, 8
8, 12
2, 2
7, 7
10, 10
7, 6
6, 7
6, 2
9, 9
10, 9
5, 5
5, 6
11, 9
6, 0
8, 7
12, 6
8, 5
6, 11
5, 3
6, 4
9, 6
2, 6
4, 8
7, 6
10, 9
6, 10
8, 8
9, 14
14, 9
13, 13
12, 7
15, 16
14, 4
8, 11
10, 9
6, 7
8, 8
7, 8
5, 4
3, 3
6, 8
6, 4
11, 5
5, 6
5, 6
3, 3
2, 7
7, 5
8, 3
8, 7
6, 4
4, 5
2, 2
5, 8
4, 5
9, 5
3, 6
5, 6
8, 3
4, 8
3, 6
3, 7
4, 6
10, 2
7, 4
6, 7
3, 6
6, 7
7, 5
5, 12
2, 9
8, 10
4, 6
5, 9
5, 3
6, 3
5, 4
7, 2
7, 5
4, 8
4, 1
5, 5
3, 6
6, 5
2, 3
2, 8
2, 8
3, 6
5, 3
6, 3
4, 2
2, 4
3, 4
1, 9
6, 4
4, 2
3, 4
3, 5
2, 7
4, 5
4, 3
1, 4
0, 2
8, 6
2, 2
5, 2
4, 1
9, 6
2, 2
6, 3
3, 2
2, 2
1, 4
2, 3
2, 5
4, 2
2, 2
6, 4
2, 4
4, 3
2, 3
3, 3
1, 3
2, 3
6, 3
3, 3
5, 3
5, 1
1, 7
1, 3
4, 1
2, 5
4, 3
1, 1
5, 0
1, 1
3, 2
5, 1
1, 1
4, 1
4, 5
2, 6
6, 6
1, 0
2, 1
0, 2
3, 4
2, 3
1, 3
3, 3
1, 4
2, 4
2, 1
5, 1
1, 5
2, 3
1, 3
2, 2
4, 3
6, 2
5, 3
1, 2
0, 0
1, 2
4, 3
2, 5
3, 2
1, 3
4, 0
0, 1
1, 1
4, 2
6, 0
5, 1
1, 4
1, 1
0, 3
2, 1
2, 2
4, 4
1, 5
1, 3
2, 3
1, 1
0, 1
3, 2
3, 1
2, 4
2, 0
0, 3
3, 4
3, 1
3, 2
3, 1
0, 1
0, 1
2, 2
3, 2
1, 4
4, 2
4, 3
2, 2
6, 1
2, 3
5, 1
4, 3
3, 0
2, 4
3, 8
2, 1
6, 7
4, 3
1, 1
4, 2
0, 0
6, 0
0, 2
2, 4
2, 5
1, 1
2, 1
0, 1
0, 4
4, 0
1, 2
2, 3
0, 1
2, 3
2, 0
2, 0
3, 1
1, 1
2, 0
1, 5
2, 1
3, 1
2, 0
2, 3
1, 1
3, 1
4, 1
2, 0
1, 1
1, 3
0, 1
0, 2
1, 0
0, 3
0, 1
0, 0
2, 0
0, 1
0, 1
1, 0
1, 2
0, 1
1, 1
1, 1
0, 0
3, 0
1, 1
1, 1
2, 2
1, 0
1, 2
2, 0
4, 0
3, 3
0, 0
2, 3
1, 1
1, 0
2, 0
2, 2
1, 1
1, 3
1, 2
1, 1
2, 1
0, 1
2, 4
0, 0
0, 1
0, 0
3, 1
0, 0
0, 1
1, 1
0, 1
0, 1
0, 0
0, 0
3, 2
0, 0
0, 1
0, 1
2, 0
0, 1
1, 1
0, 3
1, 0
2, 0
0, 0
0, 1
2, 1
2, 1
1, 2
1, 2
1, 3
2, 1
0, 0
0, 0
1, 2
0, 0
0, 0
1, 1
0, 0
2, 2
0, 1
0, 1
2, 1
0, 2
1, 0
1, 0
1, 0
0, 1
2, 0
0, 0
0, 0
1, 0
2, 0
0, 0
0, 2
0, 0
1, 2
0, 0
1, 0
1, 0
0, 1
0, 0
1, 1
0, 1
0, 0
1, 0
1, 1
1, 1
0, 0
1, 1
0, 0
0, 1
0, 0
0, 0
1, 0
0, 0
1, 0
1, 0
0, 1
1, 0
0, 1
1, 0
0, 5
1, 0
0, 0
0, 2
0, 1
0, 0
1, 0
1, 0
1, 0
0, 0
1, 1
1, 0
0, 0
0, 0
0, 0
1, 2
1, 0
1, 0
3, 1
1, 0
1, 1
0, 0
0, 1
0, 0
0, 0
0, 1
0, 0
0, 0
0, 0
0, 0
0, 0
0, 0
1, 1
1, 0
0, 0
0, 0
0, 0
0, 3
1, 0
1, 0
0, 0
0, 0
0, 0
0, 0
1, 0
1, 1
0, 0
0, 0
0, 1
0, 0
0, 0
0, 0
0, 1
0, 0
0, 0
0, 0
0, 0
0, 0
1, 0
0, 0
0, 0
0, 0
0, 0
0, 0
0, 0
1, 2
0, 0
0, 0
0, 1
0, 0
1, 0
0, 0
0, 0
0, 0
0, 0
2, 1
0, 0
0, 0
0, 0
1, 0
0, 0
1, 0
0, 1
0, 0
0, 0
0, 0
0, 0
0, 1
0, 0
0, 0
1, 1
1, 0
0, 0
1, 0
0, 0
2, 1
2, 1
2, 0
0, 1
0, 0
0, 0
0, 0
0, 0
0, 0
0, 0
0, 0
0, 0
0, 0
0, 1
0, 0
0, 0
0, 1
0, 0
1, 0
1, 1
0, 0
0, 0
0, 0
0, 0
1, 1
0, 0
1, 1
0, 0
0, 0
0, 0
0, 0
0, 0
0, 0
0, 1
0, 0
0, 0
0, 0
0, 0
1, 0
0, 1
0, 0
0, 0
0, 0
0, 0
0, 0
0, 1
0, 0
0, 0
0, 0
0, 0
0, 1
0, 0
0, 0
1, 0
0, 0
0, 0
0, 0
1, 0
0, 0
0, 0
0, 0
0, 0
0, 1
1, 0
0, 0
0, 1
0, 0
0, 0
0, 0
0, 0
0, 0
0, 0
0, 0
1, 0
0, 0
0, 0
0, 0
0, 1
0, 0
1, 0
0, 0
0, 0
0, 1
0, 0
0, 0
0, 0
0, 0
0, 0
0, 0
0, 0
0, 0
0, 0
0, 0
0, 0
0, 0
0, 0
0, 0
0, 0
0, 0
0, 0
0, 0
0, 0
0, 0
0, 0
0, 0
0, 0
0, 0
0, 0
0, 0
0, 0
0, 0
1, 0
0, 0
0, 1
0, 0
0, 0
0, 0
1, 0
0, 1
0, 0
0, 0
0, 0
0, 0
1, 0
0, 0
0, 0
0, 1
0, 0
0, 0
0, 0
0, 0
0, 1
0, 0
0, 0
0, 0
0, 0
1, 1
0, 0
0, 0
0, 0
0, 0
0, 0
1, 0
0, 0
0, 0
0, 0
0, 0
0, 0
0, 0
0, 0
0, 0
0, 0
0, 0
0, 0
0, 0
1, 0
0, 0
0, 0
0, 0
0, 0
0, 0
0, 0
0, 0
0, 0
0, 0
0, 0
0, 0
0, 0
0, 0
0, 0
0, 0
0, 0
0, 0
0, 0
1, 0
0, 0
0, 0
0, 0
0, 0
0, 0
0, 0
0, 0
0, 0
0, 0
0, 0
0, 0
0, 0
0, 0
0, 0
0, 0
0, 0
0, 0
0, 0
0, 0
0, 0
0, 0
0, 0
0, 0
0, 0
0, 0
0, 0
0, 0
0, 0
0, 0
0, 0
0, 0
0, 0
0, 0
0, 0
0, 0
0, 0
0, 0
0, 0
0, 0
0, 0
0, 0
0, 0
0, 0
0, 0
0, 0
0, 0
0, 0
0, 0
0, 0
0, 0
0, 0
0, 0
0, 0
0, 0
0, 0
0, 0
0, 0
0, 0
0, 0
0, 0
0, 0
0, 0
0, 0
0, 0
0, 0
0, 0
0, 0
0, 0
0, 0
0, 0
0, 0
0, 0
0, 0
0, 0
0, 0
0, 0
0, 0
0, 0
0, 0
0, 0
0, 0
0, 0
0, 0
0, 0
0, 0
0, 0
0, 0
0, 0
0, 0
0, 0
0, 0
0, 0
0, 0
0, 0
0, 0
0, 0
0, 0
0, 0
0, 0
0, 0
0, 0
0, 0
0, 0
0, 0
0, 0
0, 0
0, 0
0, 0
0, 0
0, 0
0, 0
0, 0
0, 0
0, 0
0, 0
0, 0
0, 0
0, 0
0, 0
0, 0
0, 0
0, 0
0, 0
0, 0
0, 0
0, 0
0, 0
0, 0
0, 0
0, 0
0, 0
0, 0
0, 0
0, 0
0, 0
0, 0
0, 0
0, 0
0, 0
0, 0
0, 0
0, 0
0, 0
0, 0
0, 0
0, 0
0, 0
0, 0
0, 0
0, 0
0, 0
0, 0
0, 0
0, 0
0, 0
0, 0
0, 0
0, 0
0, 0
0, 0
0, 0
0, 0
0, 0
0, 0
0, 0
0, 0
0, 0
0, 0
0, 0
0, 0
0, 0
0, 0
0, 0
0, 0
0, 0
0, 0
0, 0
0, 0
0, 0
0, 0
0, 0
0, 0
0, 0
0, 0
0, 0
0, 0
0, 0
0, 0
0, 0
0, 0
0, 0
0, 0
0, 0
0, 0
0, 0
0, 0
0, 0
0, 0
0, 0
0, 0
0, 0
0, 0
0, 0
0, 0
0, 0
0, 0
0, 0
0, 0
0, 0
0, 0
0, 0
0, 0
0, 0
0, 0
0, 0
0, 0
0, 0
0, 0
0, 0
0, 0
0, 0
0, 0
0, 0
0, 0
0, 0
0, 0
0, 0
0, 0
0, 0
0, 0
0, 0
0, 0
0, 0
0, 0
0, 0
0, 0
0, 0
0, 0
0, 0
0, 0
0, 0
0, 0
0, 0
0, 0
0, 0
0, 0
0, 0
0, 0
0, 0
0, 0
0, 0
0, 0
0, 0
0, 0
0, 0
0, 0
0, 0
0, 0
0, 0
0, 0
0, 0
0, 0
0, 0
0, 0
0, 0
0, 0
0, 0
0, 0
0, 0
0, 0
0, 0
0, 0
0, 0
0, 0
0, 0
0, 0
0, 0
0, 0
0, 0
0, 0
0, 0
0, 0
0, 0
0, 0
0, 0
0, 0
0, 0
0, 0
0, 0
0, 0
0, 0
0, 0
0, 0
0, 0
0, 0
0, 0
0, 0
0, 0
0, 0
0, 0
0, 0
0, 0
0, 0
0, 0
0, 0
0, 0
0, 0
0, 0
0, 0
0, 0
0, 0
0, 0
0, 0
0, 0
0, 0
0, 0
0, 0
0, 0
0, 0
0, 0
0, 0
0, 0
0, 0
0, 0
0, 0
0, 0
0, 0
0, 0
0, 0
0, 0
0, 0
0, 0
0, 0
0, 0
0, 0
0, 0
0, 0
0, 0
0, 0
0, 0
0, 0
0, 0
0, 0
0, 0
0, 0
0, 0
0, 0
0, 0
0, 0
0, 0
0, 0
0, 0
0, 0
0, 0
0, 0
0, 0
0, 0
0, 0
0, 0
0, 0
0, 0
0, 0
0, 0
0, 0
0, 0
0, 0
0, 0
0, 0
0, 0
0, 0
0, 0
0, 0
0, 0
0, 0
0, 0
0, 0
0, 0
0, 0
0, 0
0, 0
0, 0
0, 0
0, 0
0, 0
0, 0
0, 0
0, 0
0, 0
0, 0
0, 0
0, 0
0, 0
0, 0
0, 0
0, 0
0, 0
0, 0
0, 0
0, 0
0, 0
#ENDOFDATA     end of spectrum data