File: host_upload/02-11-2024/rqc/uplink1/ps__0567_0717304816_000rfs_shot_101.msa
#FORMAT      : EMSA/MAS spectral data file
#VERSION     : TC202v2.0 PIXL
#TITLE       : Novarupta (sol567) subset1
#DATE        : 02-11-2024      Date in the format DD-MMM-YYYY, for example 07-JUL-2010
#TIME        :             The time of day at which the spectrum was recorded, in 24-hour format
#OWNER       : PIXL Flight Model       (PIXL will use this to indicate which instrument took the data.)
#NPOINTS     : 4096     Number of data points in the spectrum (This can be zero for configuration only files)
#NCOLUMNS    : 2     Number of data columns in the spectrum (This can be zero for configuration only files)
#XUNITS      : eV
#YUNITS      : COUNTS
#DATATYPE    : YY
#XPERCHAN    : 7.862, 7.881   eV per channel (separate by commas if more than one detector)
#OFFSET      : 18.5, -22.4         eV of first channel  (separate by commas if more than one detector
#SIGNALTYPE  : XRF
#YP_TEMP     : -1.1
#LIVETIME    : 8.84074, 8.81444   seconds (separate by commas if more than one detector)
#REALTIME    : 10, 10.0   seconds (separate by commas if more than one detector)
#SPECTRUM    : start of spectrum data
0, 0
0, 0
0, 0
0, 0
0, 0
0, 0
0, 0
0, 0
0, 0
0, 0
0, 0
0, 0
0, 0
0, 0
0, 0
0, 0
0, 0
0, 0
0, 0
0, 0
0, 0
0, 0
0, 0
0, 0
0, 0
0, 0
0, 0
0, 0
0, 0
0, 0
0, 0
0, 0
0, 1
0, 0
1, 2
1, 3
4, 3
1, 1
2, 8
1, 1
4, 4
3, 7
2, 0
6, 4
1, 3
3, 3
1, 4
1, 4
1, 2
5, 2
8, 11
10, 9
15, 11
17, 23
14, 28
11, 16
14, 10
13, 13
9, 8
7, 15
20, 25
25, 33
30, 39
36, 48
46, 62
34, 42
34, 45
27, 28
38, 44
47, 79
102, 132
199, 225
272, 349
419, 504
470, 489
427, 527
403, 454
324, 328
182, 244
123, 137
76, 89
53, 51
34, 44
32, 24
35, 31
35, 25
35, 36
32, 32
28, 37
19, 15
17, 18
15, 18
24, 20
44, 59
72, 81
136, 148
174, 241
235, 253
272, 299
263, 301
261, 260
200, 205
131, 141
94, 111
50, 66
49, 54
51, 52
66, 74
82, 118
120, 146
139, 213
175, 242
204, 241
187, 212
190, 202
174, 169
120, 130
95, 135
88, 95
73, 81
72, 75
60, 97
66, 64
39, 53
41, 47
33, 30
22, 27
28, 21
16, 16
11, 20
10, 13
4, 7
6, 12
3, 11
11, 11
6, 3
11, 7
13, 11
23, 14
25, 27
32, 36
28, 28
24, 26
23, 24
21, 18
11, 16
13, 15
15, 10
9, 17
16, 26
36, 44
61, 63
84, 124
154, 202
197, 249
257, 325
317, 359
324, 401
313, 341
280, 281
209, 251
140, 155
79, 74
45, 43
40, 28
21, 26
31, 44
32, 31
47, 41
40, 53
51, 51
52, 52
47, 50
27, 45
29, 28
25, 30
19, 21
15, 13
15, 8
13, 15
6, 11
9, 12
12, 10
16, 8
9, 6
12, 15
17, 16
22, 36
44, 32
39, 40
47, 48
48, 71
64, 75
48, 68
54, 52
49, 46
31, 43
34, 26
26, 24
21, 19
17, 16
12, 14
14, 16
10, 13
11, 8
9, 13
13, 16
11, 14
26, 20
20, 21
20, 21
18, 19
15, 23
15, 15
12, 12
10, 15
9, 13
5, 9
11, 18
8, 10
8, 6
11, 18
11, 12
10, 11
11, 16
17, 22
21, 22
24, 31
24, 28
22, 31
28, 40
27, 36
24, 30
16, 28
19, 30
21, 14
22, 17
12, 10
12, 16
15, 12
9, 10
13, 14
16, 14
11, 14
14, 21
12, 25
20, 24
35, 41
40, 48
45, 41
41, 41
50, 49
41, 41
37, 45
35, 27
19, 31
13, 23
20, 20
17, 15
16, 20
27, 39
23, 49
47, 72
74, 102
112, 162
222, 335
377, 555
617, 820
861, 1183
1142, 1478
1458, 1705
1564, 1827
1537, 1858
1590, 1714
1287, 1398
1002, 1015
758, 714
509, 460
315, 274
153, 154
107, 90
49, 56
30, 17
16, 25
20, 16
10, 8
21, 23
12, 22
19, 24
19, 27
32, 31
31, 37
41, 50
65, 95
73, 110
120, 178
154, 239
197, 249
223, 286
234, 291
262, 259
225, 220
199, 187
175, 139
106, 123
90, 53
42, 40
39, 27
20, 21
13, 11
11, 8
6, 7
9, 9
6, 16
7, 14
12, 14
9, 15
13, 8
14, 9
17, 10
9, 11
8, 6
5, 7
6, 9
3, 7
7, 5
9, 8
8, 5
5, 3
5, 6
4, 4
3, 3
8, 9
3, 11
3, 1
9, 3
7, 6
3, 5
9, 5
4, 7
6, 17
2, 11
8, 9
8, 3
5, 8
1, 10
2, 8
4, 10
6, 3
1, 8
9, 5
4, 2
6, 6
8, 10
4, 9
5, 4
7, 5
7, 4
9, 12
10, 5
4, 7
4, 8
7, 15
10, 9
8, 14
11, 14
9, 13
8, 11
11, 12
7, 7
8, 10
11, 8
8, 6
8, 5
4, 11
4, 8
8, 9
11, 10
6, 5
10, 7
4, 10
8, 5
6, 7
3, 7
5, 9
5, 5
6, 8
8, 9
6, 9
6, 4
2, 3
7, 6
5, 5
3, 2
8, 4
8, 2
6, 5
8, 9
7, 4
2, 9
6, 3
5, 3
5, 3
3, 4
4, 5
4, 6
6, 3
5, 7
7, 6
2, 10
1, 3
4, 5
2, 5
5, 2
3, 5
6, 4
5, 4
1, 8
4, 5
8, 8
3, 5
5, 5
7, 6
4, 5
4, 6
5, 3
3, 3
4, 0
4, 3
3, 4
4, 7
2, 4
6, 5
2, 5
6, 6
0, 4
1, 6
3, 3
1, 5
4, 3
3, 3
7, 2
3, 2
4, 6
4, 5
5, 1
4, 4
3, 4
2, 5
3, 3
4, 3
3, 6
3, 7
1, 4
3, 3
4, 5
4, 3
3, 5
0, 7
4, 3
4, 6
2, 4
2, 3
3, 6
2, 3
3, 5
4, 3
2, 4
2, 2
2, 1
3, 2
1, 3
1, 3
5, 7
4, 4
3, 3
2, 2
3, 2
4, 4
1, 2
3, 7
2, 4
2, 3
1, 5
2, 9
3, 1
1, 5
0, 6
0, 1
3, 1
1, 3
0, 0
0, 1
6, 2
3, 4
2, 5
4, 3
3, 2
2, 4
3, 2
3, 6
4, 3
2, 2
3, 5
2, 0
1, 3
4, 6
2, 0
1, 2
3, 3
4, 1
3, 1
3, 2
1, 1
5, 4
4, 1
4, 2
3, 4
0, 1
3, 0
0, 2
1, 0
4, 1
3, 2
4, 3
0, 2
0, 1
2, 3
4, 3
0, 1
1, 3
2, 3
4, 0
4, 3
2, 2
1, 4
2, 4
3, 0
0, 5
4, 3
2, 3
2, 1
2, 2
1, 2
1, 2
5, 3
1, 0
1, 4
6, 2
0, 1
1, 0
2, 0
0, 0
0, 3
1, 2
4, 2
1, 1
2, 5
3, 0
2, 5
0, 2
1, 1
1, 0
2, 4
1, 1
3, 5
1, 0
2, 1
2, 2
3, 0
3, 4
1, 2
1, 2
3, 3
2, 1
0, 0
3, 1
2, 2
0, 1
1, 1
2, 1
0, 0
0, 1
2, 0
3, 5
1, 1
0, 2
0, 1
2, 2
0, 1
1, 1
3, 0
1, 2
3, 4
1, 0
3, 2
1, 1
2, 0
1, 1
2, 1
1, 1
0, 3
1, 2
2, 1
0, 0
1, 0
1, 1
1, 1
1, 0
1, 2
0, 1
0, 2
1, 1
0, 0
1, 1
0, 1
3, 2
2, 3
3, 1
0, 0
1, 1
1, 1
0, 0
2, 1
0, 0
2, 1
3, 0
0, 0
0, 0
2, 0
2, 0
3, 1
0, 0
0, 2
0, 1
2, 1
0, 2
1, 0
0, 0
0, 0
1, 3
0, 1
2, 0
0, 0
0, 1
1, 1
0, 2
1, 0
0, 0
0, 1
0, 1
0, 0
0, 0
0, 2
1, 0
0, 0
1, 0
0, 0
0, 1
0, 0
0, 1
0, 0
0, 0
0, 0
3, 2
0, 0
0, 0
0, 1
0, 0
1, 0
1, 1
0, 0
1, 0
0, 1
1, 0
0, 0
2, 0
1, 1
0, 0
0, 1
0, 1
1, 0
1, 0
1, 1
1, 0
0, 0
2, 1
1, 1
2, 2
1, 0
0, 0
0, 0
1, 0
1, 0
0, 1
0, 0
1, 0
0, 0
0, 0
1, 0
0, 1
0, 0
0, 0
0, 0
0, 1
0, 1
0, 0
1, 0
1, 0
1, 1
0, 0
0, 1
0, 1
0, 0
0, 0
1, 0
0, 2
0, 0
0, 0
0, 0
0, 0
0, 0
0, 0
0, 0
1, 0
0, 0
1, 1
0, 2
0, 1
0, 0
0, 1
0, 0
1, 0
1, 0
0, 0
0, 0
0, 1
0, 1
0, 0
0, 0
0, 0
0, 0
0, 0
0, 1
0, 0
0, 2
0, 1
0, 0
0, 0
0, 0
0, 0
0, 0
0, 0
0, 1
0, 1
1, 0
0, 0
0, 0
0, 0
0, 0
0, 0
0, 0
0, 0
0, 1
0, 0
0, 1
0, 0
0, 0
0, 0
0, 1
0, 0
0, 0
0, 0
0, 0
0, 0
0, 0
0, 1
0, 0
0, 0
1, 0
0, 0
1, 0
0, 0
1, 0
0, 1
0, 0
1, 0
0, 1
1, 0
2, 0
0, 0
1, 1
1, 0
1, 0
0, 0
0, 0
1, 0
0, 1
0, 1
0, 2
0, 0
0, 0
0, 0
0, 0
0, 0
0, 0
0, 1
0, 0
0, 0
2, 0
0, 1
1, 0
0, 0
1, 0
0, 0
0, 1
0, 0
0, 0
0, 0
0, 0
0, 0
0, 0
0, 0
1, 0
0, 0
0, 0
0, 0
0, 0
0, 1
1, 0
0, 1
0, 0
0, 0
1, 1
0, 0
0, 0
0, 0
0, 1
0, 1
0, 0
0, 0
1, 0
0, 0
0, 0
0, 0
0, 0
1, 0
0, 1
0, 0
0, 0
0, 0
0, 1
0, 0
0, 0
1, 0
0, 0
1, 0
0, 1
0, 0
0, 0
0, 0
0, 0
0, 0
0, 0
0, 0
0, 0
0, 0
0, 0
0, 0
0, 0
0, 0
1, 0
0, 0
0, 0
0, 0
0, 0
0, 1
0, 0
0, 0
0, 0
0, 0
0, 0
0, 0
0, 0
0, 0
0, 0
0, 1
0, 0
0, 0
0, 0
0, 0
1, 0
0, 1
0, 0
0, 0
0, 0
0, 0
0, 0
0, 0
0, 0
0, 0
0, 0
0, 0
0, 0
0, 0
0, 0
0, 0
0, 0
0, 0
0, 0
0, 0
0, 0
0, 0
0, 0
0, 0
0, 0
0, 0
0, 0
0, 0
0, 0
0, 0
0, 0
0, 0
0, 0
2, 0
0, 0
0, 0
0, 0
0, 0
0, 0
0, 0
0, 0
0, 0
0, 0
0, 0
0, 0
0, 0
0, 0
0, 0
0, 0
0, 0
0, 0
0, 0
0, 0
0, 0
0, 0
0, 0
0, 0
0, 0
0, 0
0, 0
0, 0
0, 0
0, 0
0, 0
0, 0
0, 1
0, 0
0, 0
0, 0
0, 0
0, 0
0, 0
0, 0
0, 1
0, 0
0, 0
0, 0
0, 0
0, 1
0, 0
0, 0
0, 0
0, 0
0, 0
0, 0
0, 0
0, 0
0, 0
0, 0
0, 0
0, 0
0, 1
0, 0
0, 0
0, 0
0, 0
0, 0
0, 1
0, 0
0, 0
0, 0
0, 0
0, 0
0, 0
0, 0
0, 0
0, 0
0, 0
0, 0
0, 0
0, 0
0, 0
0, 0
0, 0
0, 0
0, 0
0, 0
0, 0
0, 0
0, 0
0, 0
0, 0
0, 0
0, 0
0, 0
0, 0
0, 0
0, 0
1, 0
0, 0
0, 0
0, 0
0, 0
0, 0
0, 0
1, 0
0, 0
0, 0
0, 0
0, 0
0, 0
0, 0
0, 0
0, 0
0, 0
0, 0
0, 0
0, 0
0, 0
0, 0
0, 0
0, 0
0, 0
0, 0
0, 0
0, 0
0, 0
0, 0
0, 0
0, 0
0, 0
0, 0
0, 0
0, 0
0, 0
0, 0
0, 0
0, 0
0, 0
0, 0
0, 0
0, 0
0, 0
0, 0
0, 0
0, 0
0, 0
0, 0
0, 0
0, 0
0, 0
0, 0
0, 0
0, 0
0, 0
0, 0
0, 0
0, 0
0, 0
0, 0
0, 0
0, 0
0, 0
0, 0
0, 0
0, 0
0, 0
0, 0
0, 0
0, 0
0, 0
0, 0
0, 0
0, 0
0, 0
0, 0
0, 0
0, 0
0, 0
0, 0
0, 0
0, 0
0, 0
1, 0
0, 0
0, 0
0, 0
0, 0
0, 0
0, 0
0, 0
0, 0
0, 0
0, 0
0, 0
0, 0
0, 0
0, 0
0, 0
0, 0
0, 0
0, 0
0, 0
0, 0
0, 0
0, 0
0, 0
0, 0
0, 0
0, 0
0, 0
0, 0
0, 0
0, 0
0, 0
0, 0
0, 0
0, 0
0, 0
0, 0
0, 0
0, 0
0, 0
0, 0
0, 0
0, 0
0, 0
0, 0
0, 0
0, 0
0, 0
0, 0
0, 0
0, 0
0, 0
0, 0
0, 0
0, 0
0, 0
0, 0
0, 0
0, 0
0, 0
0, 0
0, 0
0, 0
0, 0
0, 0
0, 0
0, 0
0, 0
0, 0
0, 0
0, 0
0, 0
0, 0
0, 0
0, 0
0, 0
0, 0
0, 0
0, 0
0, 0
0, 0
0, 0
0, 0
0, 0
0, 0
0, 0
0, 0
0, 0
0, 0
0, 0
0, 0
0, 0
0, 0
0, 0
0, 0
0, 0
0, 0
0, 0
0, 0
0, 0
0, 0
0, 0
0, 0
0, 0
0, 0
0, 0
0, 0
0, 0
0, 0
0, 0
0, 0
0, 0
0, 0
0, 0
0, 0
0, 0
0, 0
0, 0
0, 0
0, 0
0, 0
0, 0
0, 0
0, 0
0, 0
0, 0
0, 0
0, 0
0, 0
0, 0
0, 0
0, 0
0, 0
0, 0
0, 0
0, 0
0, 0
0, 0
0, 0
0, 0
0, 0
0, 0
0, 0
0, 0
0, 0
0, 0
0, 0
0, 0
0, 0
0, 0
0, 0
0, 0
0, 0
0, 0
0, 0
0, 0
0, 0
0, 0
0, 0
0, 0
0, 0
0, 0
0, 0
0, 0
0, 0
0, 0
0, 0
0, 0
0, 0
0, 0
0, 0
0, 0
0, 0
0, 0
0, 0
0, 0
0, 0
0, 0
0, 0
0, 0
0, 0
0, 0
0, 0
0, 0
0, 0
0, 0
0, 0
0, 0
0, 0
0, 0
0, 0
0, 0
0, 0
0, 0
0, 0
0, 0
0, 0
0, 0
0, 0
0, 0
0, 0
0, 0
0, 0
0, 0
0, 0
0, 0
0, 0
0, 0
0, 0
0, 0
0, 0
0, 0
0, 0
0, 0
0, 0
0, 0
0, 0
0, 0
0, 0
0, 0
0, 0
0, 0
0, 0
0, 0
0, 0
0, 0
0, 0
0, 0
0, 0
0, 0
0, 0
0, 0
0, 0
0, 0
0, 0
0, 0
0, 0
0, 0
0, 0
0, 0
0, 0
0, 0
0, 0
0, 0
0, 0
0, 0
0, 0
0, 0
0, 0
0, 0
0, 0
0, 0
0, 0
0, 0
0, 0
0, 0
0, 0
0, 0
0, 0
0, 0
0, 0
0, 0
#ENDOFDATA     end of spectrum data