File: host_upload/02-11-2024/rqc/uplink1/ps__0567_0717304816_000rfs_shot_51.msa
#FORMAT      : EMSA/MAS spectral data file
#VERSION     : TC202v2.0 PIXL
#TITLE       : Novarupta (sol567) subset1
#DATE        : 02-11-2024      Date in the format DD-MMM-YYYY, for example 07-JUL-2010
#TIME        :             The time of day at which the spectrum was recorded, in 24-hour format
#OWNER       : PIXL Flight Model       (PIXL will use this to indicate which instrument took the data.)
#NPOINTS     : 4096     Number of data points in the spectrum (This can be zero for configuration only files)
#NCOLUMNS    : 2     Number of data columns in the spectrum (This can be zero for configuration only files)
#XUNITS      : eV
#YUNITS      : COUNTS
#DATATYPE    : YY
#XPERCHAN    : 7.862, 7.881   eV per channel (separate by commas if more than one detector)
#OFFSET      : 18.5, -22.4         eV of first channel  (separate by commas if more than one detector
#SIGNALTYPE  : XRF
#YP_TEMP     : -2.575
#LIVETIME    : 8.84283, 8.82895   seconds (separate by commas if more than one detector)
#REALTIME    : 10, 10.0   seconds (separate by commas if more than one detector)
#SPECTRUM    : start of spectrum data
0, 0
0, 0
0, 0
0, 0
0, 0
0, 0
0, 0
0, 0
0, 0
0, 0
0, 0
0, 0
0, 0
0, 0
0, 0
0, 0
0, 0
0, 0
0, 0
0, 0
0, 0
0, 0
0, 0
0, 0
0, 0
0, 0
0, 0
0, 0
0, 1
1, 0
1, 0
0, 0
0, 1
1, 2
0, 0
0, 0
0, 0
4, 4
2, 5
4, 6
0, 2
5, 8
4, 3
2, 2
6, 6
0, 3
1, 2
4, 4
4, 5
3, 8
5, 6
14, 12
13, 14
15, 19
12, 14
14, 18
8, 17
11, 18
10, 18
16, 12
24, 16
33, 31
49, 45
45, 49
55, 46
47, 47
39, 35
38, 38
55, 33
79, 67
149, 130
205, 237
341, 402
413, 423
493, 518
487, 501
453, 433
303, 335
238, 210
169, 150
89, 74
42, 58
45, 36
40, 28
30, 28
30, 26
33, 46
26, 31
25, 22
29, 25
19, 16
13, 25
32, 29
62, 66
92, 110
152, 145
217, 233
281, 286
254, 311
290, 298
258, 271
216, 213
136, 148
95, 109
78, 77
59, 43
63, 64
69, 65
116, 120
161, 162
185, 200
218, 213
230, 233
198, 231
200, 215
164, 171
129, 133
110, 97
113, 88
62, 87
87, 84
82, 76
73, 64
62, 56
54, 44
33, 28
25, 32
29, 18
19, 13
20, 13
7, 8
11, 6
7, 5
6, 6
15, 9
8, 3
16, 12
19, 12
12, 17
18, 14
29, 36
29, 32
24, 20
19, 29
20, 15
8, 15
12, 12
5, 10
16, 13
20, 20
38, 47
70, 73
123, 118
172, 201
219, 275
299, 355
390, 398
350, 411
359, 374
300, 276
233, 203
139, 138
104, 116
55, 59
42, 28
25, 31
34, 34
34, 33
48, 45
55, 60
59, 51
69, 76
54, 64
46, 32
42, 38
20, 26
32, 21
9, 19
10, 14
9, 13
10, 7
9, 12
5, 14
12, 12
8, 9
13, 22
19, 25
32, 42
34, 31
39, 45
64, 59
49, 74
64, 66
53, 52
52, 40
41, 33
28, 35
20, 19
16, 26
24, 16
16, 17
15, 24
11, 16
14, 14
11, 18
17, 15
19, 23
13, 16
16, 19
16, 15
15, 14
17, 16
18, 31
17, 9
9, 14
9, 13
18, 10
7, 10
13, 10
8, 9
11, 6
19, 10
13, 7
17, 11
17, 17
14, 17
18, 26
19, 30
16, 38
23, 37
31, 30
24, 22
16, 38
22, 24
22, 18
21, 19
14, 19
13, 19
12, 11
9, 12
10, 11
10, 16
10, 11
16, 27
16, 24
27, 30
29, 35
32, 35
48, 42
44, 45
31, 46
55, 54
40, 42
36, 32
40, 31
27, 22
17, 25
15, 19
26, 24
24, 13
35, 28
33, 45
58, 62
99, 112
174, 218
279, 360
513, 601
733, 819
1028, 1071
1303, 1436
1519, 1635
1589, 1802
1628, 1622
1469, 1471
1218, 1196
1023, 881
700, 606
445, 395
267, 229
144, 133
87, 69
50, 28
22, 21
21, 25
17, 17
17, 17
17, 21
20, 12
17, 24
21, 30
31, 32
33, 41
46, 64
71, 89
87, 115
127, 164
191, 230
213, 229
239, 271
239, 260
236, 260
216, 239
175, 179
132, 127
97, 96
71, 65
41, 45
28, 25
23, 15
13, 17
10, 7
11, 12
11, 7
10, 7
7, 17
9, 13
12, 11
14, 10
13, 15
10, 2
13, 9
6, 8
3, 8
1, 9
6, 7
5, 4
8, 2
2, 6
3, 9
9, 5
7, 9
8, 11
10, 6
11, 8
6, 5
9, 12
6, 5
9, 2
8, 5
5, 18
10, 8
6, 9
7, 5
4, 7
3, 6
5, 6
15, 4
9, 7
5, 5
7, 9
4, 11
5, 8
11, 6
9, 7
5, 5
2, 5
4, 6
4, 5
5, 5
11, 13
2, 12
12, 4
5, 6
9, 12
16, 8
8, 15
11, 8
9, 13
13, 6
10, 11
8, 6
8, 11
5, 5
11, 2
3, 8
1, 3
3, 9
5, 6
8, 1
7, 2
2, 10
10, 9
5, 7
4, 5
1, 9
7, 7
4, 3
6, 3
3, 8
7, 3
7, 7
6, 8
3, 9
7, 8
6, 3
8, 5
4, 7
7, 4
3, 5
8, 11
4, 5
7, 5
7, 6
6, 10
8, 4
4, 8
4, 9
3, 2
4, 2
5, 5
7, 1
5, 4
9, 4
5, 3
3, 2
5, 1
4, 4
2, 5
9, 6
4, 5
2, 3
2, 8
2, 4
4, 1
4, 6
11, 6
4, 5
4, 6
4, 5
4, 8
7, 3
4, 9
5, 4
8, 12
2, 2
7, 3
3, 3
3, 4
5, 6
3, 8
3, 1
3, 3
0, 1
3, 3
3, 6
3, 5
2, 7
7, 2
2, 5
6, 3
3, 3
6, 1
7, 4
5, 3
1, 5
4, 8
3, 3
4, 4
5, 8
4, 1
3, 1
3, 5
2, 2
4, 6
1, 3
0, 2
4, 2
7, 0
3, 2
3, 3
1, 1
4, 4
4, 2
3, 1
2, 2
3, 0
4, 6
2, 4
4, 1
1, 6
2, 3
2, 4
1, 1
3, 2
2, 5
3, 5
0, 4
2, 5
2, 1
3, 4
2, 4
0, 2
2, 2
0, 2
3, 1
2, 5
0, 2
1, 2
5, 4
3, 2
6, 0
6, 2
2, 3
1, 2
5, 0
5, 5
2, 2
2, 3
2, 3
4, 0
1, 1
3, 4
1, 1
3, 1
4, 0
3, 4
2, 3
1, 1
2, 2
0, 4
2, 4
1, 2
3, 2
3, 4
1, 3
2, 2
3, 1
1, 2
2, 0
1, 4
3, 0
0, 2
1, 3
2, 1
0, 2
2, 0
4, 4
5, 2
2, 2
5, 4
4, 1
2, 3
3, 1
3, 1
5, 3
5, 2
4, 0
5, 7
3, 2
3, 2
1, 1
0, 1
1, 0
7, 4
4, 3
2, 1
0, 1
2, 2
0, 7
1, 2
0, 1
0, 1
0, 0
1, 2
2, 5
1, 2
4, 0
2, 3
0, 2
1, 2
3, 2
0, 5
0, 2
3, 0
0, 0
0, 0
1, 0
1, 3
0, 2
1, 0
1, 0
1, 0
2, 1
0, 0
1, 0
1, 1
1, 1
4, 3
1, 0
2, 2
0, 2
0, 3
1, 2
2, 0
2, 1
2, 1
1, 1
1, 2
0, 2
0, 1
0, 0
1, 1
1, 0
1, 0
1, 1
1, 0
1, 1
3, 3
0, 2
1, 0
2, 1
1, 1
0, 1
0, 0
1, 1
3, 1
1, 0
0, 1
0, 1
1, 0
1, 1
1, 0
0, 1
0, 1
0, 1
0, 3
1, 0
1, 1
0, 0
0, 0
1, 1
0, 2
1, 1
0, 0
0, 1
2, 1
1, 1
0, 1
0, 0
0, 2
0, 1
2, 1
1, 0
0, 1
0, 0
0, 0
1, 1
0, 0
0, 0
2, 1
0, 1
0, 2
0, 0
1, 0
1, 0
1, 1
0, 0
1, 1
0, 0
1, 0
0, 0
1, 1
2, 0
0, 1
0, 0
1, 0
0, 0
0, 0
0, 0
0, 0
2, 0
0, 1
1, 0
0, 0
1, 0
1, 1
1, 1
0, 0
0, 3
0, 0
0, 1
1, 1
0, 0
1, 0
0, 0
0, 1
0, 1
0, 0
0, 1
1, 0
0, 0
1, 0
0, 0
0, 0
1, 1
0, 0
0, 0
1, 0
1, 0
0, 1
0, 0
0, 0
0, 0
1, 1
0, 0
0, 0
0, 0
1, 2
0, 0
1, 1
0, 2
0, 0
0, 0
0, 0
0, 0
1, 0
0, 1
0, 0
0, 2
1, 0
0, 0
1, 0
0, 0
0, 0
0, 0
0, 1
0, 1
0, 0
0, 0
0, 0
1, 1
0, 0
0, 0
1, 0
0, 0
0, 0
0, 0
0, 0
0, 1
0, 1
0, 0
0, 0
0, 0
0, 0
0, 0
0, 0
0, 0
0, 0
0, 0
0, 0
0, 0
0, 0
0, 1
0, 0
1, 0
0, 0
0, 0
0, 0
0, 0
1, 0
0, 1
0, 1
0, 0
1, 2
0, 0
0, 1
0, 0
0, 0
0, 0
0, 0
0, 1
0, 0
1, 1
0, 0
0, 0
0, 0
0, 0
1, 0
0, 0
1, 0
0, 1
0, 0
0, 0
0, 1
0, 0
0, 0
0, 0
0, 2
0, 0
0, 0
0, 1
1, 0
1, 0
0, 0
0, 0
0, 0
1, 1
0, 1
0, 0
0, 0
0, 0
0, 1
0, 0
1, 1
0, 0
1, 0
0, 0
0, 0
1, 0
1, 0
0, 1
0, 0
0, 0
0, 0
0, 1
0, 0
0, 0
0, 0
0, 0
0, 0
0, 0
0, 0
2, 0
0, 1
0, 0
0, 0
0, 0
0, 0
0, 0
0, 0
0, 0
0, 0
0, 0
0, 0
0, 0
0, 0
0, 0
0, 1
0, 0
0, 1
1, 0
0, 0
0, 0
0, 1
0, 0
0, 0
0, 0
0, 1
0, 0
0, 0
0, 0
1, 0
0, 0
0, 0
0, 1
0, 0
0, 1
0, 1
1, 0
0, 0
0, 0
0, 0
0, 0
0, 0
0, 0
0, 0
0, 0
0, 0
0, 0
0, 0
0, 0
0, 0
1, 0
0, 0
0, 0
0, 1
0, 0
0, 0
0, 0
0, 0
1, 0
0, 0
0, 0
0, 0
0, 0
0, 0
0, 1
0, 0
0, 0
0, 0
0, 0
1, 0
0, 0
0, 0
0, 0
1, 0
0, 0
0, 0
0, 0
0, 0
0, 0
0, 0
0, 1
0, 0
0, 0
0, 1
0, 0
0, 0
1, 0
0, 0
0, 0
0, 0
0, 0
0, 0
0, 0
0, 0
0, 0
0, 1
0, 0
0, 0
0, 0
0, 0
0, 0
0, 0
0, 0
0, 0
0, 0
0, 0
0, 0
0, 0
0, 0
0, 0
0, 0
0, 0
0, 0
0, 0
0, 0
1, 0
0, 0
0, 0
0, 0
0, 0
0, 0
0, 0
0, 0
0, 0
0, 0
0, 0
0, 0
0, 0
0, 0
0, 0
0, 0
0, 0
0, 0
0, 0
0, 0
0, 0
0, 0
0, 0
0, 0
0, 0
0, 0
0, 0
0, 0
0, 0
0, 0
0, 0
0, 0
0, 0
0, 0
0, 0
0, 0
0, 0
0, 0
0, 0
0, 0
0, 0
0, 0
0, 0
0, 0
0, 0
0, 0
0, 0
0, 0
0, 0
0, 0
0, 0
0, 0
0, 0
0, 0
0, 0
1, 0
0, 0
0, 0
0, 0
0, 0
0, 0
0, 0
0, 0
0, 0
0, 0
0, 0
0, 0
0, 0
0, 0
0, 0
0, 0
0, 0
0, 0
0, 0
0, 0
0, 0
0, 0
0, 0
0, 0
0, 0
0, 0
0, 0
0, 0
0, 0
0, 0
0, 0
0, 0
0, 0
0, 0
0, 0
0, 0
0, 0
0, 0
1, 0
0, 0
0, 0
0, 0
0, 0
0, 0
0, 0
0, 0
0, 0
0, 0
0, 0
0, 0
0, 0
0, 0
0, 0
0, 0
0, 0
0, 0
0, 0
0, 0
0, 0
0, 0
0, 0
0, 0
0, 0
0, 0
0, 0
0, 0
0, 0
0, 0
0, 0
0, 0
0, 0
0, 0
0, 0
0, 0
0, 0
0, 0
0, 0
0, 0
0, 0
0, 0
0, 0
0, 0
0, 0
0, 0
0, 0
0, 0
0, 0
0, 0
0, 0
0, 0
0, 0
0, 0
0, 0
0, 0
0, 0
0, 0
0, 0
0, 0
0, 0
0, 0
0, 0
0, 0
0, 0
0, 0
0, 0
0, 0
0, 0
0, 0
0, 0
0, 0
0, 0
0, 0
0, 0
0, 0
0, 0
0, 0
0, 0
0, 0
0, 0
0, 0
0, 0
0, 0
0, 0
0, 0
0, 0
0, 0
0, 0
0, 0
0, 0
0, 0
0, 0
0, 0
0, 0
0, 0
0, 0
0, 0
0, 0
0, 0
0, 0
0, 0
0, 0
0, 0
0, 0
0, 0
0, 0
0, 0
0, 0
0, 0
0, 0
0, 0
0, 0
0, 0
0, 0
0, 0
0, 0
0, 0
0, 0
0, 0
0, 0
0, 0
0, 0
0, 0
0, 0
0, 0
0, 0
0, 0
0, 0
0, 0
0, 0
0, 0
0, 0
0, 0
0, 0
0, 0
0, 0
0, 0
0, 0
0, 0
0, 0
0, 0
0, 0
0, 0
0, 0
0, 0
0, 0
0, 0
0, 0
0, 0
0, 0
0, 0
0, 0
0, 0
0, 0
0, 0
0, 0
0, 0
0, 0
0, 0
0, 0
0, 0
0, 0
0, 0
0, 0
0, 0
0, 0
0, 0
0, 0
0, 0
0, 0
0, 0
0, 0
0, 0
0, 0
0, 0
0, 0
0, 0
0, 0
0, 0
0, 0
0, 0
0, 0
0, 0
0, 0
0, 0
0, 0
0, 0
0, 0
0, 0
0, 0
0, 0
0, 0
0, 0
0, 0
0, 0
0, 0
0, 0
0, 0
0, 0
0, 0
0, 0
0, 0
0, 0
0, 0
0, 0
0, 0
0, 0
0, 0
0, 0
0, 0
0, 0
0, 0
0, 0
0, 0
0, 0
0, 0
0, 0
0, 0
0, 0
0, 0
0, 0
0, 0
0, 0
0, 0
0, 0
0, 0
0, 0
0, 0
0, 0
0, 0
0, 0
0, 0
0, 0
0, 0
0, 0
0, 0
0, 0
0, 0
0, 0
0, 0
0, 0
0, 0
0, 0
0, 0
0, 0
0, 0
0, 0
0, 0
0, 0
0, 0
0, 0
0, 0
0, 0
0, 0
0, 0
0, 0
0, 0
0, 0
0, 0
0, 0
0, 0
0, 0
0, 0
0, 0
0, 0
0, 0
0, 0
0, 0
0, 0
0, 0
0, 0
0, 0
0, 0
0, 0
0, 0
0, 0
0, 0
0, 0
0, 0
0, 0
0, 0
0, 0
0, 0
0, 0
0, 0
0, 0
0, 0
0, 0
0, 0
0, 0
0, 0
0, 0
0, 0
0, 0
0, 0
0, 0
0, 0
0, 0
0, 0
0, 0
0, 0
0, 0
0, 0
0, 0
0, 0
0, 0
0, 0
0, 0
0, 0
0, 0
0, 0
0, 0
0, 0
0, 0
0, 0
0, 0
0, 0
0, 0
0, 0
0, 0
0, 0
0, 0
0, 0
0, 0
0, 0
0, 0
0, 0
0, 0
0, 0
0, 0
0, 0
0, 0
0, 0
0, 0
0, 0
#ENDOFDATA     end of spectrum data