File: host_upload/02-11-2024/rqc/uplink1/ps__0567_0717304816_000rfs_shot_275.msa
#FORMAT      : EMSA/MAS spectral data file
#VERSION     : TC202v2.0 PIXL
#TITLE       : Novarupta (sol567) subset1
#DATE        : 02-11-2024      Date in the format DD-MMM-YYYY, for example 07-JUL-2010
#TIME        :             The time of day at which the spectrum was recorded, in 24-hour format
#OWNER       : PIXL Flight Model       (PIXL will use this to indicate which instrument took the data.)
#NPOINTS     : 4096     Number of data points in the spectrum (This can be zero for configuration only files)
#NCOLUMNS    : 2     Number of data columns in the spectrum (This can be zero for configuration only files)
#XUNITS      : eV
#YUNITS      : COUNTS
#DATATYPE    : YY
#XPERCHAN    : 7.862, 7.881   eV per channel (separate by commas if more than one detector)
#OFFSET      : 18.5, -22.4         eV of first channel  (separate by commas if more than one detector
#SIGNALTYPE  : XRF
#YP_TEMP     : 1.145
#LIVETIME    : 8.82493, 8.8051   seconds (separate by commas if more than one detector)
#REALTIME    : 10, 10.0   seconds (separate by commas if more than one detector)
#SPECTRUM    : start of spectrum data
0, 0
0, 0
0, 0
0, 0
0, 0
0, 0
0, 0
0, 0
0, 0
0, 0
0, 0
0, 0
0, 0
0, 0
0, 0
0, 0
0, 0
0, 0
0, 0
0, 0
0, 0
0, 0
0, 0
0, 0
0, 0
0, 0
0, 0
0, 0
0, 0
0, 0
0, 0
0, 0
0, 0
0, 0
0, 3
0, 3
1, 5
5, 5
3, 4
1, 6
3, 9
6, 0
4, 3
2, 3
3, 3
5, 4
1, 4
5, 4
4, 6
2, 3
6, 10
7, 11
13, 17
17, 17
12, 18
11, 15
11, 12
10, 10
10, 11
12, 9
16, 8
33, 25
39, 47
32, 48
50, 47
30, 40
41, 43
33, 52
35, 27
52, 76
103, 134
161, 205
337, 336
377, 471
482, 523
505, 547
447, 484
345, 339
242, 269
164, 140
103, 95
41, 58
30, 31
27, 33
34, 34
30, 37
35, 33
31, 22
33, 27
25, 23
17, 15
17, 25
23, 22
35, 40
62, 99
99, 153
198, 204
242, 267
314, 300
282, 314
258, 273
214, 211
149, 178
111, 103
68, 63
49, 63
57, 67
63, 65
94, 89
147, 151
173, 212
208, 223
248, 245
222, 263
185, 247
187, 175
153, 126
99, 139
102, 97
76, 82
76, 83
73, 69
61, 83
60, 63
44, 52
34, 33
30, 36
19, 17
27, 12
13, 11
15, 13
15, 17
5, 8
9, 3
5, 7
12, 13
14, 14
16, 14
22, 26
27, 24
30, 27
34, 41
31, 50
33, 31
29, 14
14, 21
13, 8
10, 10
9, 19
19, 18
35, 42
55, 54
85, 97
144, 176
211, 232
291, 330
364, 382
358, 445
372, 370
298, 321
241, 250
184, 181
139, 103
72, 65
29, 45
24, 30
22, 37
29, 26
52, 44
46, 59
52, 56
81, 62
63, 61
46, 45
35, 39
27, 27
16, 10
13, 10
11, 11
6, 8
12, 9
8, 9
9, 9
14, 9
7, 13
15, 17
20, 12
22, 29
28, 34
50, 51
50, 49
61, 53
72, 55
71, 72
41, 45
38, 46
29, 28
29, 34
16, 28
21, 24
11, 15
17, 15
9, 12
11, 11
11, 16
13, 20
13, 13
18, 16
13, 19
13, 26
24, 22
23, 19
17, 17
21, 19
17, 19
14, 10
14, 12
10, 12
9, 3
11, 12
9, 11
7, 17
13, 14
11, 14
11, 17
12, 21
22, 21
19, 22
28, 31
28, 34
28, 27
36, 35
20, 32
30, 20
30, 14
13, 22
15, 18
16, 14
12, 17
12, 14
10, 8
11, 14
4, 10
12, 14
29, 19
21, 25
30, 17
30, 49
43, 46
44, 47
38, 49
46, 46
49, 59
33, 48
36, 51
27, 30
18, 24
22, 22
22, 21
24, 13
13, 29
23, 38
38, 57
66, 102
117, 157
224, 305
379, 467
581, 763
892, 1101
1218, 1490
1392, 1787
1719, 1906
1764, 1929
1666, 1714
1430, 1468
1265, 1025
854, 774
579, 507
371, 333
260, 183
123, 110
70, 57
39, 35
26, 28
17, 25
16, 23
25, 22
16, 20
26, 22
19, 24
23, 25
27, 39
37, 66
56, 70
68, 107
123, 154
148, 195
228, 246
225, 316
258, 284
273, 274
273, 228
224, 218
178, 164
146, 113
107, 88
68, 50
46, 30
34, 16
20, 12
10, 13
14, 8
12, 5
5, 9
6, 11
8, 16
11, 18
12, 14
11, 9
10, 9
14, 14
17, 6
9, 8
5, 8
3, 5
15, 4
11, 8
5, 4
5, 11
6, 9
3, 8
8, 8
5, 4
10, 5
4, 10
6, 5
7, 5
8, 6
6, 10
8, 8
2, 5
7, 12
7, 8
5, 9
6, 12
2, 8
7, 5
6, 11
9, 10
4, 11
5, 11
4, 8
4, 5
6, 5
6, 8
7, 4
4, 8
11, 6
6, 5
6, 10
3, 10
6, 12
8, 5
5, 11
7, 7
9, 11
8, 11
12, 12
12, 11
11, 10
13, 12
6, 7
10, 16
4, 9
3, 4
3, 9
3, 8
8, 5
8, 7
7, 6
6, 7
2, 3
3, 12
6, 5
4, 6
5, 4
3, 4
7, 6
3, 0
2, 6
7, 6
8, 6
1, 9
0, 10
4, 4
9, 6
7, 8
6, 10
3, 6
5, 7
3, 5
3, 5
1, 1
9, 3
8, 5
7, 5
5, 2
6, 6
5, 9
4, 2
4, 4
13, 9
5, 4
5, 5
3, 8
8, 6
6, 1
3, 1
3, 1
3, 8
7, 0
6, 10
7, 4
6, 3
6, 12
5, 4
7, 5
12, 6
5, 2
5, 9
3, 2
5, 7
4, 4
4, 6
3, 5
7, 7
2, 5
4, 5
4, 4
3, 5
5, 4
2, 4
5, 1
3, 9
5, 6
1, 6
1, 5
3, 3
2, 0
1, 1
3, 4
2, 3
1, 1
5, 6
2, 3
5, 3
1, 3
3, 5
3, 4
3, 5
5, 2
4, 3
2, 3
1, 0
1, 3
2, 3
2, 2
4, 6
4, 3
4, 6
1, 2
0, 4
3, 4
1, 4
2, 3
2, 6
5, 2
2, 0
5, 4
4, 6
2, 4
1, 3
4, 3
4, 3
1, 2
4, 3
3, 2
5, 1
3, 1
3, 9
2, 3
1, 3
7, 6
3, 4
3, 0
2, 4
1, 5
2, 5
4, 5
3, 5
4, 4
1, 4
3, 3
4, 3
2, 4
1, 1
7, 2
6, 3
1, 3
2, 0
1, 3
2, 5
3, 5
0, 3
1, 0
1, 3
2, 1
5, 0
3, 1
0, 1
2, 1
1, 3
4, 1
1, 4
4, 3
1, 4
1, 2
1, 2
3, 2
0, 2
2, 0
3, 4
2, 3
8, 1
4, 6
2, 2
1, 5
1, 4
2, 2
1, 3
2, 8
2, 2
1, 4
2, 6
2, 3
2, 3
4, 1
3, 3
2, 0
1, 2
3, 0
1, 2
4, 2
2, 4
0, 0
2, 1
3, 0
0, 0
2, 2
2, 3
2, 2
2, 1
3, 1
0, 2
3, 2
1, 1
1, 1
2, 5
1, 0
0, 2
1, 1
1, 4
2, 3
3, 0
2, 1
0, 2
1, 1
4, 3
2, 3
2, 2
3, 4
3, 0
2, 3
1, 1
1, 2
4, 1
2, 0
0, 1
1, 1
3, 0
1, 0
2, 1
0, 1
0, 1
2, 0
1, 0
3, 1
1, 1
2, 3
4, 1
1, 0
2, 2
2, 1
0, 1
3, 2
4, 3
3, 1
0, 0
3, 0
0, 0
1, 2
0, 2
0, 0
1, 0
2, 0
1, 0
0, 0
0, 0
0, 0
1, 0
3, 3
1, 1
1, 0
0, 1
0, 1
1, 1
1, 0
0, 1
0, 0
0, 1
1, 1
0, 1
1, 1
2, 2
1, 1
0, 0
1, 1
0, 0
1, 0
1, 1
0, 0
1, 0
0, 1
0, 0
1, 2
0, 0
1, 1
0, 0
0, 0
0, 1
0, 0
0, 3
0, 0
1, 0
0, 3
2, 2
0, 0
1, 1
0, 0
0, 1
1, 0
0, 0
0, 2
0, 0
1, 0
1, 1
2, 3
0, 0
0, 0
0, 0
5, 0
0, 0
0, 0
0, 0
1, 0
1, 1
0, 0
2, 0
0, 1
2, 0
1, 1
0, 0
0, 0
0, 0
2, 3
0, 0
0, 0
0, 2
2, 0
1, 0
0, 0
0, 0
1, 2
0, 0
0, 1
0, 1
0, 0
0, 0
0, 0
0, 1
0, 0
0, 1
1, 1
2, 1
0, 1
0, 0
0, 1
1, 0
1, 0
0, 0
0, 0
0, 0
0, 0
2, 0
0, 0
0, 0
0, 0
1, 0
0, 4
0, 1
0, 0
0, 0
0, 0
0, 1
0, 0
0, 0
0, 1
0, 0
0, 0
0, 0
1, 0
1, 1
0, 0
2, 1
0, 0
0, 0
0, 0
1, 0
2, 1
1, 0
0, 0
0, 0
0, 0
0, 0
0, 0
0, 0
0, 0
1, 0
0, 0
0, 0
2, 0
2, 0
0, 0
0, 1
0, 0
0, 0
0, 0
1, 0
0, 0
0, 0
0, 0
1, 0
0, 1
1, 0
0, 0
1, 0
0, 1
0, 0
0, 1
0, 2
0, 1
0, 0
1, 1
0, 0
1, 0
0, 0
0, 0
0, 0
1, 1
0, 1
0, 0
0, 0
1, 0
0, 0
0, 1
1, 0
0, 0
0, 0
1, 1
0, 0
0, 0
0, 1
1, 2
0, 1
0, 0
0, 0
0, 0
1, 0
0, 0
0, 1
0, 0
0, 0
1, 0
0, 0
0, 1
0, 0
1, 0
0, 0
0, 0
0, 0
0, 0
2, 0
0, 1
0, 0
1, 0
0, 1
0, 0
0, 0
0, 0
0, 0
0, 0
0, 0
0, 0
0, 0
0, 0
0, 1
0, 0
0, 0
0, 0
0, 0
0, 0
0, 0
0, 0
0, 0
0, 0
0, 0
0, 0
0, 0
0, 1
0, 0
0, 0
0, 0
0, 1
0, 0
0, 0
0, 0
1, 0
0, 0
0, 0
1, 0
1, 0
0, 0
0, 0
0, 0
0, 0
0, 0
0, 0
0, 0
0, 0
1, 0
0, 0
0, 0
0, 0
0, 1
0, 0
0, 0
0, 1
0, 0
0, 0
0, 0
0, 0
0, 0
0, 0
1, 0
0, 0
0, 0
0, 0
0, 0
1, 0
0, 0
0, 0
0, 0
0, 0
0, 0
0, 0
0, 0
0, 0
0, 1
1, 0
0, 0
0, 0
0, 0
0, 0
0, 0
0, 0
0, 0
0, 0
0, 0
0, 0
0, 0
0, 0
0, 0
0, 0
0, 1
0, 0
0, 0
0, 0
0, 0
0, 0
0, 0
0, 0
0, 0
0, 0
0, 0
0, 0
0, 0
0, 0
0, 1
0, 0
0, 0
0, 0
0, 0
0, 0
1, 0
0, 0
0, 0
0, 0
0, 0
0, 0
0, 0
0, 0
0, 0
0, 0
0, 0
0, 0
0, 0
0, 0
0, 0
0, 0
0, 0
0, 0
0, 0
0, 0
0, 0
0, 0
0, 0
0, 0
0, 0
0, 0
0, 0
1, 0
0, 0
0, 0
0, 0
0, 0
0, 1
0, 0
0, 0
0, 0
0, 0
1, 0
0, 0
0, 0
0, 0
0, 0
0, 0
0, 0
0, 0
0, 0
1, 0
0, 0
0, 0
0, 0
0, 0
0, 0
0, 0
0, 0
0, 0
0, 0
0, 0
0, 0
0, 0
0, 1
0, 0
0, 0
0, 0
0, 0
1, 0
0, 0
0, 0
0, 0
0, 0
0, 0
0, 0
0, 0
0, 0
0, 0
0, 0
0, 0
0, 0
0, 0
0, 0
0, 0
0, 0
0, 0
0, 0
0, 0
0, 0
0, 0
0, 0
0, 0
0, 0
0, 0
0, 0
0, 0
0, 0
0, 0
0, 0
0, 0
0, 0
0, 0
0, 0
0, 0
0, 0
0, 0
0, 0
0, 0
0, 0
0, 0
0, 0
0, 0
0, 0
0, 0
0, 0
0, 0
0, 0
0, 0
0, 0
0, 0
0, 0
0, 0
0, 0
0, 0
0, 0
0, 0
0, 0
0, 0
0, 0
0, 0
0, 0
0, 0
0, 0
0, 0
0, 0
0, 0
0, 0
0, 0
0, 0
0, 1
0, 0
0, 0
0, 0
0, 0
0, 0
0, 0
0, 0
0, 0
0, 0
0, 0
0, 0
0, 0
0, 0
0, 0
0, 0
0, 0
0, 0
0, 0
0, 0
0, 0
0, 0
0, 0
0, 0
0, 0
0, 0
0, 0
0, 0
0, 0
0, 0
0, 0
0, 0
0, 0
0, 0
0, 0
0, 0
0, 0
0, 0
0, 0
0, 0
0, 0
0, 0
0, 0
0, 0
0, 0
0, 0
0, 0
0, 0
0, 0
0, 0
0, 0
0, 0
0, 0
0, 0
0, 0
0, 0
0, 0
0, 0
0, 0
0, 0
0, 0
0, 0
0, 0
0, 0
0, 0
0, 0
0, 0
0, 0
0, 0
0, 0
0, 0
0, 0
0, 0
0, 0
0, 0
0, 0
0, 0
0, 0
0, 0
0, 0
0, 0
0, 0
0, 0
0, 0
0, 0
0, 0
0, 0
0, 0
0, 0
0, 0
0, 0
0, 0
0, 0
0, 0
0, 0
0, 0
0, 0
0, 0
0, 0
0, 0
0, 0
0, 0
0, 0
0, 0
0, 0
0, 0
0, 0
0, 0
0, 0
0, 0
0, 0
0, 0
0, 0
0, 0
0, 0
0, 0
0, 0
0, 0
0, 0
0, 0
0, 0
0, 0
0, 0
0, 0
0, 0
0, 0
0, 0
0, 0
0, 0
0, 0
0, 0
0, 0
0, 0
0, 0
0, 0
0, 0
0, 0
0, 0
0, 0
0, 0
0, 0
0, 0
0, 0
0, 0
0, 0
0, 0
0, 0
0, 0
0, 0
0, 0
0, 0
0, 0
0, 0
0, 0
0, 0
0, 0
0, 0
0, 0
0, 0
0, 0
0, 0
0, 0
0, 0
0, 0
0, 0
0, 0
0, 0
0, 0
0, 0
0, 0
0, 0
0, 0
0, 0
0, 0
0, 0
0, 0
0, 0
0, 0
0, 0
0, 0
0, 0
0, 0
0, 0
0, 0
0, 0
0, 0
0, 0
0, 0
0, 0
0, 0
0, 0
0, 0
0, 0
0, 0
0, 0
0, 0
0, 0
0, 0
0, 0
0, 0
0, 0
0, 0
0, 0
0, 0
0, 0
0, 0
0, 0
0, 0
0, 0
0, 0
0, 0
0, 0
0, 0
0, 0
0, 0
0, 0
0, 0
0, 0
0, 0
0, 0
0, 0
0, 0
0, 0
0, 0
0, 0
0, 0
0, 0
0, 0
0, 0
0, 0
0, 0
0, 0
0, 0
0, 0
0, 0
0, 0
0, 0
0, 0
0, 0
0, 0
0, 0
0, 0
0, 0
0, 0
0, 0
0, 0
0, 0
0, 0
0, 0
0, 0
0, 0
0, 0
0, 0
0, 0
0, 0
0, 0
0, 0
0, 0
0, 0
0, 0
0, 0
0, 0
0, 0
0, 0
0, 0
0, 0
0, 0
0, 0
0, 0
0, 0
0, 0
0, 0
0, 0
0, 0
0, 0
0, 0
0, 0
0, 0
0, 0
0, 0
0, 0
0, 0
0, 0
0, 0
0, 0
0, 0
0, 0
0, 0
0, 0
0, 0
0, 0
0, 0
0, 0
0, 0
0, 0
0, 0
0, 0
0, 0
0, 0
0, 0
0, 0
0, 0
0, 0
0, 0
0, 0
0, 0
0, 0
0, 0
#ENDOFDATA     end of spectrum data