File: host_upload/02-11-2024/rqc/uplink1/ps__0567_0717304816_000rfs_shot_17.msa
#FORMAT      : EMSA/MAS spectral data file
#VERSION     : TC202v2.0 PIXL
#TITLE       : Novarupta (sol567) subset1
#DATE        : 02-11-2024      Date in the format DD-MMM-YYYY, for example 07-JUL-2010
#TIME        :             The time of day at which the spectrum was recorded, in 24-hour format
#OWNER       : PIXL Flight Model       (PIXL will use this to indicate which instrument took the data.)
#NPOINTS     : 4096     Number of data points in the spectrum (This can be zero for configuration only files)
#NCOLUMNS    : 2     Number of data columns in the spectrum (This can be zero for configuration only files)
#XUNITS      : eV
#YUNITS      : COUNTS
#DATATYPE    : YY
#XPERCHAN    : 7.862, 7.881   eV per channel (separate by commas if more than one detector)
#OFFSET      : 18.5, -22.4         eV of first channel  (separate by commas if more than one detector
#SIGNALTYPE  : XRF
#YP_TEMP     : -4.307
#LIVETIME    : 8.83748, 8.81917   seconds (separate by commas if more than one detector)
#REALTIME    : 10, 10.0   seconds (separate by commas if more than one detector)
#SPECTRUM    : start of spectrum data
0, 0
0, 0
0, 0
0, 0
0, 0
0, 0
0, 0
0, 0
0, 0
0, 0
0, 0
0, 0
0, 0
0, 0
0, 0
0, 0
0, 0
0, 0
0, 0
0, 0
0, 0
0, 0
0, 0
0, 0
0, 0
0, 0
0, 0
0, 0
0, 0
0, 0
0, 0
0, 1
0, 0
2, 0
3, 2
4, 0
1, 4
2, 4
4, 1
1, 4
5, 10
4, 3
2, 3
2, 0
1, 2
2, 3
5, 4
2, 1
1, 5
5, 6
9, 6
8, 14
11, 14
14, 14
13, 19
13, 10
6, 12
15, 8
11, 18
17, 11
25, 12
33, 42
32, 37
49, 42
50, 54
44, 43
36, 55
35, 38
50, 49
85, 91
127, 143
234, 257
328, 393
405, 435
448, 497
430, 450
375, 378
293, 301
198, 211
115, 121
76, 68
60, 52
44, 26
25, 35
38, 31
34, 28
31, 31
32, 33
16, 22
25, 25
15, 20
23, 22
27, 43
59, 79
99, 120
162, 172
219, 238
264, 295
247, 323
262, 326
242, 235
185, 173
126, 164
103, 96
82, 65
60, 57
60, 71
69, 86
105, 126
160, 170
196, 203
204, 238
223, 221
205, 212
199, 209
125, 177
105, 115
102, 111
115, 95
95, 74
68, 78
73, 80
57, 60
55, 55
39, 43
25, 30
31, 21
15, 22
18, 20
11, 18
8, 8
7, 9
10, 6
4, 7
4, 5
8, 9
16, 15
14, 16
17, 28
29, 43
34, 35
39, 25
22, 19
14, 26
18, 33
14, 13
17, 13
17, 17
8, 27
34, 24
42, 53
71, 79
121, 141
199, 199
261, 287
308, 357
313, 411
327, 421
331, 323
256, 251
223, 192
129, 133
92, 83
64, 53
42, 34
31, 25
31, 34
38, 53
56, 56
57, 55
61, 53
61, 61
56, 62
42, 45
37, 23
20, 26
17, 19
11, 17
11, 9
12, 8
9, 8
10, 6
8, 10
8, 11
10, 10
18, 16
19, 13
46, 26
32, 42
54, 45
55, 59
43, 66
60, 66
48, 58
32, 41
36, 36
33, 28
26, 27
15, 22
15, 11
15, 12
10, 9
22, 11
9, 14
13, 14
20, 22
13, 18
12, 26
23, 19
25, 22
20, 26
15, 22
16, 17
12, 18
14, 16
16, 13
11, 2
15, 9
12, 15
9, 9
8, 13
9, 20
10, 20
18, 21
19, 13
25, 24
25, 27
25, 22
31, 30
34, 30
18, 24
21, 22
17, 21
16, 30
20, 21
17, 15
11, 15
14, 15
16, 11
10, 13
12, 8
13, 17
19, 21
16, 17
16, 29
28, 27
32, 38
26, 34
31, 41
43, 50
45, 54
52, 45
41, 46
41, 33
37, 38
28, 35
20, 21
25, 23
22, 18
28, 19
36, 44
32, 52
76, 113
148, 185
269, 317
457, 512
645, 775
919, 1054
1136, 1314
1445, 1602
1487, 1762
1675, 1737
1501, 1560
1297, 1392
1035, 1062
842, 801
564, 469
351, 333
208, 171
111, 101
69, 52
39, 40
24, 22
30, 23
16, 19
15, 17
12, 19
25, 19
20, 20
34, 28
49, 31
55, 55
56, 75
108, 112
158, 156
188, 172
200, 259
230, 238
254, 270
248, 259
219, 233
174, 178
148, 155
100, 115
74, 72
60, 42
29, 32
27, 29
11, 9
15, 13
9, 9
6, 13
11, 12
15, 13
8, 13
14, 17
9, 11
7, 10
10, 13
14, 10
16, 14
3, 17
8, 6
7, 6
8, 6
8, 10
8, 9
5, 7
6, 8
4, 6
6, 5
12, 5
7, 4
8, 7
9, 6
9, 7
3, 10
10, 10
4, 6
14, 5
4, 8
6, 7
5, 7
7, 4
6, 10
7, 15
11, 6
8, 8
7, 9
8, 3
7, 8
6, 11
7, 7
5, 9
4, 6
4, 5
8, 8
8, 7
6, 6
5, 12
8, 8
9, 11
6, 8
10, 12
11, 12
8, 11
10, 10
8, 10
8, 7
8, 7
9, 7
4, 5
7, 7
7, 3
2, 4
3, 4
3, 5
5, 4
6, 7
3, 8
5, 5
5, 10
6, 7
3, 3
4, 3
6, 4
4, 5
4, 5
8, 4
8, 3
6, 4
9, 7
7, 4
4, 3
7, 2
9, 4
2, 4
6, 6
1, 4
2, 3
5, 6
1, 6
5, 4
7, 10
9, 6
3, 3
6, 5
7, 3
6, 8
3, 1
2, 5
4, 6
3, 7
1, 5
3, 4
11, 4
7, 5
4, 3
5, 3
3, 3
5, 6
4, 6
2, 4
5, 11
4, 8
3, 5
5, 4
2, 9
3, 3
6, 4
3, 4
3, 5
3, 1
3, 1
3, 1
3, 3
5, 3
0, 6
4, 2
4, 4
3, 5
3, 3
2, 3
6, 6
4, 4
0, 2
2, 4
6, 3
3, 6
4, 5
3, 4
3, 6
7, 3
3, 4
1, 4
2, 5
5, 3
1, 5
4, 4
2, 3
3, 7
3, 7
3, 3
3, 6
2, 6
5, 6
2, 1
5, 3
3, 1
2, 4
1, 2
2, 2
2, 5
2, 3
4, 1
1, 4
4, 3
4, 4
1, 3
1, 2
2, 1
5, 1
3, 1
2, 1
1, 3
3, 1
4, 4
3, 1
7, 3
2, 2
1, 4
3, 4
3, 2
1, 1
4, 2
4, 2
4, 6
2, 1
3, 3
0, 7
2, 3
3, 1
3, 1
1, 2
1, 4
5, 7
1, 4
4, 4
0, 2
6, 3
0, 2
6, 2
1, 1
1, 0
1, 3
4, 4
3, 3
2, 6
3, 4
4, 4
2, 3
0, 1
3, 4
1, 2
1, 2
4, 1
1, 0
0, 0
1, 2
4, 4
3, 1
2, 2
0, 0
2, 4
1, 6
4, 3
2, 1
3, 2
2, 5
3, 1
3, 3
3, 3
4, 2
2, 3
2, 1
0, 2
0, 1
2, 3
3, 0
1, 4
1, 0
3, 1
1, 0
2, 0
3, 1
1, 2
3, 0
2, 0
0, 0
1, 1
0, 4
4, 1
0, 1
2, 1
3, 1
1, 2
3, 2
1, 3
3, 0
3, 0
0, 2
0, 0
1, 5
1, 3
3, 3
1, 0
0, 3
1, 1
2, 2
1, 1
1, 2
2, 1
0, 1
3, 2
1, 1
2, 2
1, 3
0, 1
0, 1
2, 2
2, 1
3, 0
2, 1
1, 4
1, 0
1, 0
2, 2
1, 3
2, 0
0, 1
1, 0
0, 4
1, 1
0, 1
2, 2
2, 1
2, 2
1, 0
2, 0
2, 1
0, 1
1, 1
0, 2
0, 0
1, 0
2, 2
1, 0
3, 1
0, 0
0, 1
1, 1
0, 0
0, 1
0, 0
2, 0
1, 1
2, 1
2, 3
1, 1
2, 1
0, 0
4, 0
0, 1
0, 0
0, 0
0, 1
0, 0
0, 0
0, 0
2, 5
0, 0
0, 1
0, 0
1, 1
1, 0
0, 1
0, 0
0, 0
0, 0
0, 1
0, 2
1, 0
0, 0
1, 1
2, 0
2, 0
1, 3
1, 0
0, 0
0, 0
0, 3
3, 0
1, 0
2, 0
0, 0
0, 1
0, 0
0, 1
2, 2
2, 1
0, 0
0, 1
0, 2
0, 0
1, 0
0, 0
0, 0
0, 1
0, 1
0, 1
0, 0
2, 0
0, 1
0, 0
0, 2
0, 0
1, 0
0, 0
1, 0
0, 4
0, 1
0, 0
1, 0
0, 1
1, 0
0, 0
0, 0
0, 1
2, 2
0, 0
0, 1
0, 0
0, 1
0, 0
1, 0
0, 0
0, 1
2, 0
1, 0
2, 0
1, 0
0, 0
0, 0
0, 0
0, 1
1, 1
0, 0
0, 0
1, 0
0, 0
0, 0
0, 0
0, 0
0, 1
1, 0
2, 0
0, 0
1, 0
0, 1
0, 0
1, 0
1, 0
0, 1
0, 1
0, 0
1, 0
0, 0
0, 0
0, 0
0, 0
0, 0
0, 0
1, 0
1, 0
0, 0
1, 1
1, 0
0, 0
0, 0
0, 0
0, 0
0, 0
0, 0
0, 0
1, 1
0, 0
0, 0
1, 0
0, 0
0, 0
0, 0
0, 0
1, 1
0, 0
0, 0
0, 0
0, 0
0, 0
0, 1
0, 0
0, 0
0, 0
0, 0
0, 0
0, 0
0, 0
0, 0
0, 0
1, 1
0, 0
0, 0
0, 0
0, 0
1, 0
0, 0
0, 0
0, 1
0, 0
0, 0
0, 0
0, 0
0, 0
0, 0
0, 0
0, 1
1, 0
1, 0
0, 0
0, 0
0, 0
0, 0
0, 0
0, 0
1, 0
0, 1
1, 0
0, 0
1, 0
0, 0
0, 0
0, 0
0, 0
0, 0
0, 0
0, 0
0, 0
0, 0
0, 0
0, 0
0, 0
0, 0
0, 1
1, 0
0, 0
0, 0
0, 0
0, 1
0, 0
0, 1
0, 0
0, 0
0, 0
0, 1
0, 0
0, 0
0, 0
0, 0
0, 0
0, 0
0, 0
1, 0
0, 1
0, 0
0, 0
0, 1
0, 0
0, 0
0, 0
0, 0
1, 0
0, 1
0, 0
0, 0
0, 1
0, 0
0, 0
0, 0
0, 0
0, 0
0, 0
0, 0
0, 0
0, 0
0, 0
0, 0
0, 0
0, 0
0, 0
0, 0
0, 0
0, 0
0, 1
0, 0
0, 0
0, 0
0, 0
0, 0
0, 0
0, 1
0, 0
0, 0
0, 0
0, 0
0, 0
0, 0
0, 0
0, 0
0, 0
0, 0
0, 0
0, 0
0, 0
0, 0
0, 0
0, 0
0, 0
0, 0
0, 0
0, 0
0, 0
0, 0
0, 0
0, 0
0, 0
0, 0
0, 0
0, 0
0, 0
0, 0
0, 0
0, 0
0, 0
0, 0
1, 0
0, 0
0, 0
0, 0
0, 0
0, 0
0, 0
0, 0
0, 0
0, 1
0, 0
0, 0
0, 0
0, 0
1, 0
0, 0
0, 0
0, 0
0, 0
0, 0
0, 0
0, 0
0, 0
0, 0
0, 0
0, 1
0, 1
0, 0
0, 0
0, 1
0, 0
0, 0
0, 0
0, 0
0, 0
0, 0
0, 0
0, 0
0, 0
0, 0
0, 1
0, 0
0, 0
0, 0
0, 0
0, 0
0, 1
0, 0
0, 0
0, 0
0, 0
0, 0
0, 0
0, 0
0, 0
0, 0
0, 0
0, 0
0, 0
0, 0
0, 0
0, 0
0, 0
0, 0
0, 0
0, 0
0, 0
0, 0
0, 0
0, 0
0, 0
0, 0
0, 0
0, 0
0, 0
0, 0
0, 0
0, 0
0, 0
0, 0
0, 0
0, 0
0, 0
0, 0
0, 0
0, 0
0, 0
0, 0
0, 0
0, 0
0, 0
0, 0
0, 0
0, 0
0, 0
0, 0
0, 0
0, 0
0, 0
0, 0
0, 0
0, 0
0, 0
0, 0
0, 0
0, 0
0, 0
0, 0
0, 0
0, 0
0, 0
0, 0
0, 0
0, 0
0, 0
0, 0
0, 0
0, 0
0, 0
0, 0
0, 0
0, 0
0, 0
0, 0
0, 0
0, 0
0, 0
0, 0
0, 0
0, 0
0, 0
0, 0
0, 0
0, 0
0, 0
0, 0
0, 0
0, 0
0, 0
0, 0
0, 0
0, 0
0, 0
0, 0
0, 0
0, 0
0, 0
0, 0
0, 0
0, 0
0, 0
0, 0
0, 0
0, 0
0, 0
0, 0
0, 0
0, 0
0, 0
0, 0
0, 0
0, 0
0, 0
0, 0
0, 0
0, 0
0, 0
0, 0
0, 0
0, 0
0, 0
0, 0
0, 0
0, 0
0, 0
0, 0
0, 0
0, 0
0, 0
0, 0
0, 0
0, 0
0, 0
0, 0
0, 0
0, 0
0, 0
0, 0
0, 0
0, 0
0, 0
0, 0
0, 0
0, 0
0, 0
0, 0
0, 0
0, 0
0, 0
0, 0
0, 0
0, 0
0, 0
0, 0
0, 0
0, 0
0, 0
0, 0
0, 0
0, 0
0, 0
0, 0
0, 0
0, 0
0, 0
0, 0
0, 0
0, 0
0, 0
0, 0
0, 0
0, 0
0, 0
0, 0
0, 0
0, 0
0, 0
0, 0
0, 0
0, 0
0, 0
0, 0
0, 0
0, 0
0, 0
0, 0
0, 0
0, 0
0, 0
0, 0
0, 0
0, 0
0, 0
0, 0
0, 0
0, 0
0, 0
0, 0
0, 0
0, 0
0, 0
0, 0
0, 0
0, 0
0, 0
0, 0
0, 0
0, 0
0, 0
0, 0
0, 0
0, 0
0, 0
0, 0
0, 0
0, 0
0, 0
0, 0
0, 0
0, 0
0, 0
0, 0
0, 0
0, 0
0, 0
0, 0
0, 0
0, 0
0, 0
0, 0
0, 0
0, 0
0, 0
0, 0
0, 0
0, 0
0, 0
0, 0
0, 0
0, 0
0, 0
0, 0
0, 0
0, 0
0, 0
0, 0
0, 0
0, 0
0, 0
0, 0
0, 0
0, 0
0, 0
0, 0
0, 0
0, 0
0, 0
0, 0
0, 0
0, 0
0, 0
0, 0
0, 0
0, 0
0, 0
0, 0
0, 0
0, 0
0, 0
0, 0
0, 0
0, 0
0, 0
0, 0
0, 0
0, 0
0, 0
0, 0
0, 0
0, 0
0, 0
0, 0
0, 0
0, 0
0, 0
0, 0
0, 0
0, 0
0, 0
0, 0
0, 0
0, 0
0, 0
0, 0
0, 0
0, 0
0, 0
0, 0
0, 0
0, 0
0, 0
0, 0
0, 0
0, 0
0, 0
0, 0
0, 0
0, 0
0, 0
0, 0
0, 0
0, 0
0, 0
0, 0
0, 0
0, 0
0, 0
0, 0
0, 0
0, 0
0, 0
0, 0
0, 0
0, 0
0, 0
0, 0
0, 0
0, 0
0, 0
0, 0
0, 0
0, 0
0, 0
0, 0
0, 0
0, 0
0, 0
0, 0
0, 0
0, 0
0, 0
0, 0
0, 0
0, 0
0, 0
0, 0
0, 0
0, 0
0, 0
0, 0
0, 0
0, 0
0, 0
0, 0
0, 0
0, 0
0, 0
0, 0
0, 0
0, 0
0, 0
0, 0
0, 0
0, 0
0, 0
0, 0
0, 0
0, 0
0, 0
0, 0
0, 0
0, 0
0, 0
0, 0
0, 0
0, 0
0, 0
0, 0
0, 0
0, 0
0, 0
0, 0
0, 0
0, 0
0, 0
0, 0
0, 0
0, 0
0, 0
0, 0
0, 0
0, 0
0, 0
0, 0
0, 0
0, 0
0, 0
0, 0
0, 0
0, 0
0, 0
0, 0
0, 0
#ENDOFDATA     end of spectrum data