File: host_upload/02-11-2024/rqc/uplink1/ps__0567_0717304816_000rfs_shot_82.msa
#FORMAT      : EMSA/MAS spectral data file
#VERSION     : TC202v2.0 PIXL
#TITLE       : Novarupta (sol567) subset1
#DATE        : 02-11-2024      Date in the format DD-MMM-YYYY, for example 07-JUL-2010
#TIME        :             The time of day at which the spectrum was recorded, in 24-hour format
#OWNER       : PIXL Flight Model       (PIXL will use this to indicate which instrument took the data.)
#NPOINTS     : 4096     Number of data points in the spectrum (This can be zero for configuration only files)
#NCOLUMNS    : 2     Number of data columns in the spectrum (This can be zero for configuration only files)
#XUNITS      : eV
#YUNITS      : COUNTS
#DATATYPE    : YY
#XPERCHAN    : 7.862, 7.881   eV per channel (separate by commas if more than one detector)
#OFFSET      : 18.5, -22.4         eV of first channel  (separate by commas if more than one detector
#SIGNALTYPE  : XRF
#YP_TEMP     : -1.517
#LIVETIME    : 8.8366, 8.82811   seconds (separate by commas if more than one detector)
#REALTIME    : 10, 10.0   seconds (separate by commas if more than one detector)
#SPECTRUM    : start of spectrum data
0, 0
0, 0
0, 0
0, 0
0, 0
0, 0
0, 0
0, 0
0, 0
0, 0
0, 0
0, 0
0, 0
0, 0
0, 0
0, 0
0, 0
0, 0
0, 0
0, 0
0, 0
0, 0
0, 0
0, 0
0, 0
0, 0
0, 0
0, 0
0, 0
0, 0
0, 0
0, 0
1, 1
0, 3
1, 1
1, 2
2, 2
2, 3
2, 2
2, 4
2, 2
4, 2
4, 3
4, 6
1, 4
3, 2
1, 0
5, 2
5, 3
3, 5
13, 8
9, 9
15, 8
16, 21
15, 9
18, 21
4, 13
13, 10
3, 6
14, 12
15, 21
33, 35
46, 34
45, 43
48, 34
30, 44
45, 34
23, 31
39, 38
76, 77
120, 128
191, 194
290, 344
373, 464
467, 531
413, 481
415, 430
353, 333
233, 202
133, 137
79, 75
48, 48
29, 31
23, 30
27, 42
24, 25
29, 39
32, 31
26, 18
20, 29
18, 19
15, 21
19, 34
41, 52
78, 92
118, 172
220, 212
228, 281
271, 317
273, 265
234, 289
181, 206
131, 170
73, 103
62, 61
58, 79
68, 75
66, 61
87, 111
128, 143
163, 209
215, 225
189, 240
216, 258
188, 222
166, 162
128, 124
104, 89
81, 99
68, 79
88, 60
71, 81
78, 55
55, 71
38, 46
28, 26
29, 23
19, 22
22, 17
11, 20
15, 12
10, 8
8, 5
10, 6
10, 10
9, 6
7, 10
11, 11
14, 23
29, 23
18, 27
22, 23
30, 36
27, 17
21, 19
14, 19
8, 17
10, 11
13, 10
23, 19
28, 35
41, 76
96, 113
145, 169
211, 228
293, 343
284, 376
368, 374
364, 348
290, 266
202, 236
148, 152
85, 83
54, 41
33, 42
22, 29
23, 31
41, 55
42, 40
45, 52
61, 59
52, 50
46, 60
48, 52
40, 40
21, 25
16, 21
11, 7
7, 16
8, 8
9, 15
5, 3
11, 6
9, 5
14, 13
11, 10
24, 19
29, 35
31, 44
42, 55
48, 55
52, 70
60, 89
53, 54
55, 62
32, 51
45, 27
24, 27
18, 25
9, 19
7, 18
17, 11
9, 14
17, 8
16, 14
13, 17
10, 14
14, 16
19, 18
28, 18
15, 22
16, 14
19, 21
17, 14
11, 12
17, 11
8, 17
14, 12
12, 12
12, 11
7, 8
8, 10
5, 14
14, 9
22, 12
25, 13
21, 25
30, 37
27, 29
25, 32
23, 25
32, 30
20, 33
30, 23
21, 17
19, 16
10, 14
12, 11
16, 10
13, 14
8, 12
9, 11
11, 10
8, 10
17, 26
13, 20
20, 21
33, 42
33, 30
46, 53
49, 52
32, 42
38, 42
38, 41
41, 42
30, 28
17, 13
23, 18
12, 17
13, 25
22, 35
24, 36
45, 63
94, 106
126, 186
268, 334
445, 519
695, 780
968, 1210
1248, 1371
1484, 1641
1618, 1843
1617, 1760
1485, 1558
1279, 1289
1051, 976
739, 637
481, 410
319, 298
165, 162
96, 66
55, 42
39, 37
28, 24
25, 13
13, 20
14, 20
12, 14
16, 15
16, 26
21, 27
33, 31
50, 66
63, 81
106, 109
122, 150
184, 212
196, 231
233, 254
245, 275
265, 268
222, 223
193, 187
133, 139
117, 104
76, 64
54, 48
34, 36
29, 18
11, 13
14, 9
11, 12
10, 14
7, 8
12, 9
7, 13
8, 15
10, 10
9, 16
9, 11
15, 13
7, 12
6, 7
7, 7
15, 9
6, 3
5, 5
6, 12
5, 4
5, 5
4, 2
9, 8
5, 3
8, 8
5, 6
3, 9
5, 4
10, 5
7, 9
8, 11
5, 4
7, 12
3, 9
8, 7
9, 3
8, 9
4, 8
10, 7
4, 9
13, 10
6, 15
5, 2
4, 5
7, 4
5, 3
6, 3
8, 7
5, 6
5, 8
5, 5
9, 6
12, 8
7, 12
8, 7
9, 10
8, 14
12, 6
9, 11
11, 6
9, 8
8, 10
7, 10
8, 3
4, 5
4, 7
5, 2
2, 6
6, 4
2, 10
4, 6
5, 5
6, 6
5, 7
2, 5
4, 5
5, 4
11, 8
6, 7
11, 5
8, 3
5, 3
3, 7
1, 4
1, 7
8, 5
3, 5
6, 6
5, 5
2, 6
7, 4
9, 4
5, 3
8, 9
8, 4
5, 4
7, 6
7, 6
3, 4
7, 4
1, 3
2, 5
3, 5
7, 11
4, 10
6, 6
4, 4
9, 3
3, 5
6, 5
2, 3
4, 1
7, 3
3, 4
2, 9
4, 8
5, 4
4, 2
7, 2
2, 4
8, 3
2, 6
2, 5
4, 7
10, 5
1, 6
5, 3
5, 7
0, 2
7, 8
4, 2
4, 6
4, 5
5, 1
0, 3
5, 4
1, 3
3, 4
3, 5
3, 3
3, 5
3, 3
3, 1
2, 0
1, 2
2, 2
2, 10
1, 6
4, 1
2, 2
4, 7
4, 0
3, 3
1, 3
4, 2
5, 4
3, 2
1, 2
5, 6
4, 3
5, 6
0, 0
2, 3
7, 1
3, 1
6, 6
1, 4
5, 4
5, 1
4, 3
3, 2
0, 5
5, 1
5, 6
4, 4
4, 11
3, 2
5, 2
4, 0
1, 4
2, 1
1, 5
1, 1
5, 2
1, 2
2, 2
5, 1
4, 2
0, 1
1, 1
2, 2
0, 1
2, 3
2, 3
2, 1
2, 0
4, 3
3, 3
3, 3
2, 1
2, 3
4, 3
0, 4
3, 2
6, 2
3, 5
1, 2
3, 1
1, 1
1, 2
2, 0
1, 2
0, 2
3, 1
1, 2
2, 3
5, 2
3, 1
2, 2
5, 2
1, 1
0, 2
3, 2
2, 7
0, 2
1, 0
1, 1
1, 4
1, 2
2, 5
4, 1
3, 1
3, 4
3, 3
3, 4
3, 4
2, 3
2, 6
3, 2
2, 3
4, 4
0, 1
1, 4
0, 2
2, 2
0, 1
0, 2
1, 2
2, 0
1, 0
2, 2
1, 0
1, 4
1, 0
1, 1
2, 1
4, 2
1, 1
1, 2
1, 3
1, 1
1, 2
5, 1
1, 1
1, 0
0, 2
2, 1
0, 0
0, 1
0, 2
3, 1
1, 0
1, 1
1, 1
1, 0
0, 0
2, 1
1, 1
2, 3
1, 1
1, 2
1, 4
2, 2
1, 3
1, 0
1, 1
1, 0
2, 2
0, 1
4, 1
0, 1
0, 1
1, 1
2, 1
3, 1
1, 2
0, 0
0, 0
0, 1
0, 1
3, 1
0, 0
2, 0
1, 2
1, 3
2, 0
0, 1
0, 0
0, 2
0, 2
1, 2
0, 0
1, 1
1, 4
0, 1
2, 0
0, 0
0, 2
1, 0
2, 3
0, 1
0, 2
1, 0
1, 1
0, 0
0, 1
1, 2
1, 2
0, 0
0, 1
1, 2
2, 2
1, 1
1, 0
1, 1
1, 0
0, 1
0, 1
1, 1
1, 0
0, 0
0, 1
0, 0
0, 0
3, 0
1, 1
0, 0
0, 0
0, 0
0, 0
1, 0
1, 0
3, 2
1, 0
1, 0
1, 0
2, 0
0, 0
0, 0
1, 0
0, 1
0, 0
1, 0
2, 1
2, 0
0, 1
0, 0
2, 1
2, 1
1, 0
0, 0
0, 0
2, 0
0, 0
0, 2
2, 0
2, 0
0, 3
0, 0
1, 2
0, 2
1, 1
0, 0
1, 0
1, 1
0, 1
0, 0
1, 0
0, 0
0, 0
0, 0
0, 2
0, 0
1, 0
0, 0
0, 0
0, 2
0, 0
1, 0
2, 3
0, 0
0, 0
0, 1
1, 1
0, 0
0, 0
0, 0
0, 0
0, 1
0, 0
1, 0
0, 0
0, 0
0, 0
0, 0
0, 0
0, 0
1, 0
0, 0
0, 0
0, 0
1, 0
0, 1
0, 0
0, 1
1, 0
0, 0
0, 0
0, 0
0, 0
0, 0
0, 1
0, 0
0, 0
0, 0
0, 0
0, 0
0, 0
0, 0
0, 0
0, 0
0, 0
0, 0
0, 1
0, 0
1, 0
1, 0
1, 1
0, 0
1, 0
0, 0
0, 0
0, 0
0, 0
0, 0
0, 0
0, 1
1, 0
0, 0
0, 0
0, 0
2, 0
1, 0
0, 0
0, 0
0, 0
2, 0
0, 0
0, 0
0, 0
1, 0
0, 2
0, 0
0, 1
0, 0
0, 0
0, 0
1, 0
0, 0
0, 1
1, 0
1, 1
1, 0
1, 0
1, 1
1, 0
1, 0
0, 0
1, 2
1, 0
0, 1
0, 3
0, 0
1, 1
0, 1
0, 0
0, 0
0, 0
0, 0
0, 2
1, 0
0, 0
0, 0
0, 0
0, 0
0, 1
1, 0
0, 1
0, 0
0, 0
0, 0
0, 0
0, 0
0, 0
1, 0
0, 0
1, 0
0, 1
0, 0
0, 0
0, 0
0, 0
0, 0
0, 0
0, 0
0, 0
0, 0
0, 0
0, 0
0, 0
0, 0
0, 0
0, 0
0, 0
0, 0
0, 0
1, 0
0, 0
0, 0
0, 0
0, 1
1, 0
0, 0
0, 0
0, 0
1, 0
0, 0
0, 1
0, 0
1, 1
0, 0
0, 0
0, 0
0, 1
0, 0
0, 0
0, 0
0, 0
0, 0
0, 0
0, 0
1, 0
1, 0
0, 1
1, 0
0, 1
0, 0
0, 1
0, 0
0, 0
0, 1
0, 0
0, 0
0, 0
0, 0
0, 0
0, 0
0, 0
0, 0
0, 0
0, 0
0, 0
0, 0
0, 0
0, 0
0, 0
0, 0
0, 0
0, 1
0, 0
0, 0
0, 0
0, 0
0, 0
0, 0
0, 0
0, 0
0, 1
0, 0
0, 0
0, 0
0, 0
0, 0
0, 0
0, 0
0, 0
0, 0
0, 0
0, 0
0, 0
0, 0
0, 0
0, 0
0, 0
0, 0
0, 0
0, 0
0, 0
0, 0
0, 0
0, 0
0, 0
0, 0
0, 0
0, 0
0, 0
0, 0
0, 0
0, 0
0, 0
0, 0
0, 0
0, 0
0, 0
0, 0
0, 0
1, 0
0, 0
0, 0
0, 0
0, 0
0, 0
0, 0
0, 0
0, 0
0, 0
0, 0
0, 0
0, 0
0, 0
0, 0
0, 0
0, 0
0, 0
0, 0
0, 0
0, 0
0, 0
0, 0
0, 0
0, 0
0, 0
0, 0
0, 0
0, 0
0, 0
0, 0
0, 0
0, 0
0, 0
0, 0
0, 0
0, 0
0, 0
0, 0
0, 0
0, 0
0, 0
0, 0
0, 0
0, 0
0, 0
0, 0
0, 0
0, 0
0, 0
0, 0
0, 0
0, 0
0, 0
0, 0
0, 0
0, 0
0, 0
0, 0
0, 0
0, 0
0, 0
0, 0
0, 0
0, 0
0, 0
0, 0
0, 0
0, 0
0, 0
0, 0
0, 1
0, 0
0, 0
0, 0
0, 0
0, 0
0, 0
0, 0
0, 0
0, 0
0, 0
0, 0
0, 0
0, 0
0, 0
0, 0
0, 0
0, 0
0, 0
0, 0
0, 0
0, 0
0, 0
0, 0
0, 0
0, 0
0, 0
0, 0
0, 0
0, 0
0, 0
0, 0
0, 0
0, 0
0, 0
0, 0
0, 0
0, 0
0, 0
0, 0
0, 0
0, 0
0, 0
0, 0
0, 0
0, 0
0, 0
0, 0
0, 0
0, 0
0, 0
0, 0
0, 0
0, 0
0, 0
0, 0
0, 0
0, 0
0, 0
0, 0
0, 0
0, 0
0, 0
0, 0
0, 0
0, 0
0, 0
0, 0
0, 0
0, 0
0, 0
0, 0
0, 0
0, 0
0, 0
0, 0
0, 0
0, 0
0, 0
0, 0
0, 0
0, 0
0, 0
0, 0
0, 0
0, 0
0, 0
0, 0
0, 0
0, 0
0, 0
0, 0
0, 0
0, 0
0, 0
0, 0
0, 0
0, 0
0, 0
0, 0
0, 0
0, 0
0, 0
0, 0
0, 0
0, 0
0, 0
0, 0
0, 0
0, 0
0, 0
0, 0
0, 0
0, 0
0, 0
0, 0
0, 0
0, 0
0, 0
0, 0
0, 0
0, 0
0, 0
0, 0
0, 0
0, 0
0, 0
0, 0
0, 0
0, 0
0, 0
0, 0
0, 0
0, 0
0, 0
0, 0
0, 0
0, 0
0, 0
0, 0
0, 0
0, 0
0, 0
0, 0
0, 0
0, 0
0, 0
0, 0
0, 0
0, 0
0, 0
0, 0
0, 0
0, 0
0, 0
0, 0
0, 0
0, 0
0, 0
0, 0
0, 0
0, 0
0, 0
0, 0
0, 0
0, 0
0, 0
0, 0
0, 0
0, 0
0, 0
0, 0
0, 0
0, 0
0, 0
0, 0
0, 0
0, 0
0, 0
0, 0
0, 0
0, 0
0, 0
0, 0
0, 0
0, 0
0, 0
0, 0
0, 0
0, 0
0, 0
0, 0
0, 0
0, 0
0, 0
0, 0
0, 0
0, 0
0, 0
0, 0
0, 0
0, 0
0, 0
0, 0
0, 0
0, 0
0, 0
0, 0
0, 0
0, 0
0, 0
0, 0
0, 0
0, 0
0, 0
0, 0
0, 0
0, 0
0, 0
0, 0
0, 0
0, 0
0, 0
0, 0
0, 0
0, 0
0, 0
0, 0
0, 0
0, 0
0, 0
0, 0
0, 0
0, 0
0, 0
0, 0
0, 0
0, 0
0, 0
0, 0
0, 0
0, 0
0, 0
0, 0
0, 0
0, 0
0, 0
0, 0
0, 0
0, 0
0, 0
0, 0
0, 0
0, 0
0, 0
0, 0
0, 0
0, 0
0, 0
0, 0
0, 0
0, 0
0, 0
0, 0
0, 0
0, 0
0, 0
0, 0
0, 0
0, 0
0, 0
0, 0
0, 0
0, 0
0, 0
0, 0
0, 0
0, 0
0, 0
0, 0
0, 0
0, 0
0, 0
0, 0
0, 0
0, 0
0, 0
0, 0
0, 0
0, 0
0, 0
0, 0
0, 0
0, 0
0, 0
0, 0
0, 0
0, 0
0, 0
0, 0
0, 0
0, 0
0, 0
0, 0
0, 0
0, 0
0, 0
0, 0
0, 0
0, 0
0, 0
0, 0
0, 0
0, 0
0, 0
0, 0
0, 0
0, 0
0, 0
0, 0
0, 0
0, 0
0, 0
0, 0
0, 0
0, 0
0, 0
0, 0
0, 0
0, 0
0, 0
0, 0
0, 0
0, 0
0, 0
0, 0
0, 0
0, 0
0, 0
0, 0
0, 0
0, 0
0, 0
0, 0
0, 0
0, 0
0, 0
0, 0
0, 0
0, 0
#ENDOFDATA     end of spectrum data