File: host_upload/02-11-2024/rqc/uplink1/ps__0567_0717304816_000rfs_shot_417.msa
#FORMAT      : EMSA/MAS spectral data file
#VERSION     : TC202v2.0 PIXL
#TITLE       : Novarupta (sol567) subset1
#DATE        : 02-11-2024      Date in the format DD-MMM-YYYY, for example 07-JUL-2010
#TIME        :             The time of day at which the spectrum was recorded, in 24-hour format
#OWNER       : PIXL Flight Model       (PIXL will use this to indicate which instrument took the data.)
#NPOINTS     : 4096     Number of data points in the spectrum (This can be zero for configuration only files)
#NCOLUMNS    : 2     Number of data columns in the spectrum (This can be zero for configuration only files)
#XUNITS      : eV
#YUNITS      : COUNTS
#DATATYPE    : YY
#XPERCHAN    : 7.862, 7.881   eV per channel (separate by commas if more than one detector)
#OFFSET      : 18.5, -22.4         eV of first channel  (separate by commas if more than one detector
#SIGNALTYPE  : XRF
#YP_TEMP     : 1.851
#LIVETIME    : 8.83464, 8.80862   seconds (separate by commas if more than one detector)
#REALTIME    : 10, 10.0   seconds (separate by commas if more than one detector)
#SPECTRUM    : start of spectrum data
0, 0
0, 0
0, 0
0, 0
0, 0
0, 0
0, 0
0, 0
0, 0
0, 0
0, 0
0, 0
0, 0
0, 0
0, 0
0, 0
0, 0
0, 0
0, 0
0, 0
0, 0
0, 0
0, 0
0, 0
0, 0
0, 0
0, 0
0, 0
0, 0
0, 1
0, 0
0, 1
0, 0
1, 0
2, 0
1, 2
2, 4
0, 5
2, 2
4, 7
2, 5
3, 3
5, 2
1, 2
2, 3
3, 2
5, 2
7, 3
5, 2
3, 4
7, 6
6, 5
13, 13
13, 14
20, 13
12, 12
14, 5
5, 11
6, 11
10, 20
16, 20
27, 19
42, 48
37, 45
40, 52
36, 64
42, 50
37, 31
37, 39
48, 54
96, 117
181, 229
305, 357
376, 465
442, 563
484, 527
409, 441
321, 370
229, 243
130, 132
72, 85
54, 53
34, 30
27, 26
30, 32
30, 28
28, 45
32, 34
26, 16
18, 27
23, 14
16, 24
30, 19
49, 34
72, 91
134, 182
185, 210
232, 295
300, 295
297, 314
269, 303
210, 241
165, 154
104, 112
70, 64
67, 64
45, 59
65, 58
63, 95
135, 151
150, 205
188, 240
234, 256
203, 228
191, 195
145, 183
146, 110
91, 124
73, 101
72, 98
69, 79
72, 73
64, 64
37, 77
47, 48
36, 32
28, 21
25, 31
18, 22
14, 14
12, 11
8, 10
9, 9
9, 10
8, 9
9, 9
11, 9
14, 17
12, 26
20, 34
26, 33
21, 34
33, 35
23, 23
26, 28
17, 13
12, 11
12, 5
10, 10
14, 16
20, 21
48, 55
73, 118
109, 181
212, 258
291, 327
321, 401
369, 386
352, 436
327, 325
221, 267
164, 176
116, 125
69, 76
28, 43
28, 33
21, 32
37, 35
36, 44
50, 59
36, 62
56, 81
52, 63
38, 49
49, 35
25, 28
14, 19
16, 11
12, 13
7, 10
11, 9
11, 9
10, 7
14, 7
5, 9
13, 15
17, 15
10, 24
21, 38
42, 51
51, 54
70, 57
62, 66
53, 62
42, 64
45, 49
36, 40
26, 33
24, 16
25, 23
18, 15
15, 8
17, 11
7, 10
18, 14
12, 13
16, 15
15, 19
17, 22
14, 25
15, 21
20, 16
19, 18
19, 19
14, 10
11, 19
13, 13
7, 11
7, 10
14, 18
9, 6
17, 4
12, 9
11, 14
20, 13
15, 22
11, 24
21, 26
25, 33
31, 29
24, 37
35, 36
26, 31
25, 21
27, 24
24, 18
12, 17
14, 9
11, 15
12, 9
7, 15
9, 19
10, 8
19, 12
17, 17
21, 27
23, 13
27, 33
36, 41
46, 47
43, 66
48, 42
50, 44
39, 37
34, 31
29, 34
24, 27
19, 21
17, 21
12, 16
16, 23
27, 32
27, 50
59, 83
109, 165
214, 299
334, 450
541, 713
789, 1120
1049, 1327
1365, 1716
1619, 1883
1657, 1924
1598, 1729
1376, 1508
1159, 1149
879, 842
540, 528
343, 309
228, 199
113, 120
61, 42
33, 34
20, 18
18, 22
15, 26
7, 18
14, 17
17, 22
21, 27
26, 26
38, 42
40, 43
54, 80
83, 90
92, 123
156, 191
185, 256
217, 286
247, 277
247, 271
243, 280
187, 221
164, 188
135, 131
89, 86
56, 60
34, 47
28, 16
15, 31
14, 6
5, 11
10, 3
3, 11
7, 10
13, 13
12, 9
9, 17
13, 13
10, 15
11, 8
11, 11
6, 7
6, 6
9, 10
6, 7
6, 7
3, 6
4, 11
8, 9
8, 8
5, 5
5, 2
3, 9
4, 4
10, 6
6, 4
4, 5
7, 6
5, 11
8, 9
10, 6
7, 7
6, 14
11, 1
8, 11
5, 5
4, 12
14, 7
9, 8
3, 7
9, 13
5, 8
8, 6
3, 7
4, 11
5, 5
1, 3
8, 9
8, 7
8, 7
14, 12
6, 7
6, 12
7, 10
10, 8
12, 21
9, 17
13, 4
7, 11
9, 10
5, 6
17, 9
4, 8
9, 13
12, 10
5, 8
4, 9
3, 6
8, 7
5, 5
4, 6
6, 5
1, 6
5, 8
3, 5
4, 4
4, 5
3, 7
3, 9
5, 2
8, 9
3, 5
2, 3
4, 7
6, 5
10, 5
3, 7
6, 6
4, 2
4, 8
4, 7
3, 1
2, 4
5, 4
5, 8
7, 3
6, 5
6, 7
7, 7
6, 3
4, 5
4, 9
6, 7
4, 5
4, 8
4, 5
3, 11
5, 7
6, 7
3, 7
5, 6
8, 7
3, 6
4, 7
4, 7
3, 8
5, 0
2, 6
1, 3
6, 8
3, 3
0, 2
3, 5
3, 4
3, 1
5, 5
5, 7
4, 4
3, 4
1, 6
4, 1
2, 2
5, 5
7, 1
1, 3
8, 4
1, 7
3, 4
1, 8
4, 3
3, 6
3, 1
1, 7
2, 5
7, 6
1, 4
2, 1
1, 3
4, 2
3, 2
1, 2
2, 4
0, 2
2, 2
4, 2
2, 3
3, 1
3, 1
1, 1
2, 5
4, 1
4, 3
2, 4
5, 5
2, 3
2, 3
0, 2
5, 2
3, 5
0, 4
3, 4
6, 7
2, 7
3, 2
2, 4
0, 4
3, 2
1, 3
0, 2
3, 5
1, 0
0, 7
2, 1
1, 3
2, 4
1, 2
3, 1
3, 2
3, 4
3, 3
2, 2
5, 2
3, 4
2, 4
4, 2
1, 3
0, 4
3, 2
3, 2
2, 1
2, 2
1, 2
3, 0
3, 2
3, 2
2, 1
2, 3
1, 3
1, 3
2, 1
1, 0
2, 2
3, 2
3, 1
1, 3
0, 2
2, 3
6, 7
4, 2
1, 4
2, 3
0, 5
2, 1
1, 2
2, 3
1, 5
3, 2
3, 5
4, 3
1, 2
2, 2
4, 1
2, 5
3, 5
2, 1
2, 1
3, 4
2, 3
2, 1
4, 4
3, 5
2, 1
2, 3
2, 0
2, 1
1, 0
3, 3
1, 4
5, 1
2, 1
2, 1
1, 5
0, 3
2, 5
0, 3
0, 3
3, 3
1, 4
4, 2
1, 3
1, 2
1, 1
2, 1
3, 3
4, 2
1, 1
1, 1
0, 1
0, 0
1, 2
1, 2
1, 1
4, 4
2, 4
0, 3
0, 2
2, 1
1, 2
0, 1
1, 2
3, 1
0, 0
1, 1
0, 2
0, 1
0, 0
1, 1
0, 1
1, 2
2, 1
0, 0
0, 1
3, 1
1, 1
3, 3
1, 1
0, 2
0, 1
3, 0
1, 1
0, 1
1, 1
0, 1
1, 0
2, 0
0, 0
1, 2
1, 0
0, 0
1, 1
2, 2
0, 1
0, 2
1, 0
0, 1
1, 0
1, 3
0, 0
0, 1
2, 0
2, 1
3, 0
2, 1
0, 2
1, 0
2, 2
0, 0
0, 0
0, 1
1, 0
0, 0
0, 0
0, 0
0, 0
1, 2
0, 2
2, 2
0, 1
1, 2
0, 1
0, 2
0, 0
3, 0
1, 0
0, 1
0, 1
1, 0
1, 0
3, 0
1, 0
0, 0
1, 2
1, 0
0, 0
2, 0
1, 1
0, 0
1, 1
0, 1
0, 0
1, 1
0, 1
0, 1
1, 1
0, 2
1, 1
0, 0
1, 0
0, 1
1, 0
1, 0
1, 1
0, 0
1, 0
2, 2
1, 0
0, 1
1, 2
1, 0
0, 0
0, 0
0, 1
0, 0
0, 0
0, 0
0, 1
1, 0
2, 1
0, 0
0, 0
1, 1
0, 0
0, 1
2, 1
0, 0
1, 2
1, 1
0, 1
0, 2
0, 1
1, 1
1, 0
1, 1
0, 2
1, 0
0, 0
0, 1
0, 2
0, 0
0, 1
0, 0
0, 0
1, 0
0, 0
0, 0
0, 1
2, 0
0, 0
1, 0
0, 0
0, 1
1, 0
0, 1
1, 1
0, 0
0, 0
2, 0
0, 0
0, 0
0, 0
0, 0
0, 0
0, 2
1, 1
0, 0
1, 0
1, 0
1, 1
0, 1
0, 2
0, 1
0, 0
0, 0
2, 2
0, 0
1, 1
1, 1
1, 0
0, 2
0, 1
0, 0
0, 0
0, 0
0, 0
1, 0
0, 1
0, 1
0, 1
0, 1
0, 0
0, 0
0, 0
0, 0
0, 0
0, 1
0, 0
1, 0
0, 1
1, 0
1, 0
0, 0
0, 1
0, 0
0, 0
0, 0
1, 0
2, 1
0, 0
1, 0
0, 0
1, 0
2, 0
1, 0
1, 0
0, 0
0, 1
0, 0
0, 0
0, 1
2, 0
0, 2
0, 0
1, 0
0, 1
0, 1
0, 0
0, 0
0, 0
0, 0
0, 1
0, 0
0, 0
0, 1
0, 0
0, 1
0, 0
0, 0
0, 0
0, 0
0, 0
0, 0
0, 0
0, 0
0, 0
0, 0
0, 0
0, 0
1, 1
0, 1
0, 0
0, 1
1, 0
0, 0
0, 0
0, 0
0, 0
0, 0
0, 0
0, 0
0, 0
0, 0
0, 0
0, 0
0, 0
0, 0
0, 0
1, 0
0, 0
1, 0
0, 0
0, 0
0, 1
0, 0
1, 0
0, 0
0, 0
0, 0
0, 0
1, 0
0, 0
0, 1
0, 0
0, 0
0, 0
0, 0
0, 0
0, 0
0, 0
0, 0
0, 0
0, 0
0, 0
0, 0
0, 0
0, 0
0, 0
0, 0
1, 0
0, 0
0, 0
0, 0
0, 0
0, 0
0, 0
0, 0
0, 0
0, 0
0, 0
1, 0
1, 1
0, 0
0, 0
0, 0
0, 0
0, 0
0, 0
0, 0
0, 0
0, 0
0, 0
0, 0
0, 0
0, 0
0, 0
0, 0
0, 0
0, 0
0, 0
0, 0
0, 0
0, 0
1, 0
0, 0
0, 0
0, 0
0, 0
0, 0
0, 0
0, 0
0, 0
0, 0
0, 0
0, 0
0, 0
0, 0
0, 0
0, 0
0, 0
0, 0
0, 0
0, 0
0, 0
0, 0
0, 0
0, 0
0, 0
0, 0
0, 0
0, 0
0, 0
0, 0
0, 0
0, 0
0, 0
0, 0
0, 0
0, 0
0, 0
0, 0
0, 0
0, 0
0, 0
0, 0
0, 0
0, 0
0, 0
0, 0
0, 0
0, 1
0, 0
0, 0
0, 0
0, 1
0, 0
0, 0
0, 0
0, 0
0, 0
0, 0
0, 0
0, 0
0, 0
0, 0
0, 0
0, 0
0, 0
0, 0
0, 0
0, 0
0, 0
0, 0
0, 0
0, 0
0, 0
0, 0
0, 0
0, 0
0, 0
0, 0
0, 0
0, 0
0, 0
0, 0
0, 1
0, 0
0, 0
0, 0
0, 0
0, 0
0, 0
0, 0
0, 0
0, 0
0, 0
0, 0
0, 0
0, 0
0, 0
0, 0
0, 0
0, 0
0, 0
0, 0
0, 0
0, 0
0, 0
0, 0
0, 0
0, 0
0, 0
0, 0
0, 0
0, 0
0, 0
0, 0
0, 0
0, 0
0, 0
0, 0
0, 0
0, 0
0, 0
0, 0
0, 0
0, 0
0, 0
0, 0
0, 0
0, 0
0, 0
0, 0
0, 0
0, 0
0, 0
0, 0
0, 0
0, 0
0, 0
0, 0
0, 0
0, 0
0, 0
0, 0
0, 0
0, 0
0, 0
0, 0
0, 0
0, 0
0, 0
0, 0
0, 0
0, 0
0, 0
0, 0
0, 0
0, 0
0, 0
0, 0
0, 0
0, 0
0, 0
0, 0
0, 0
0, 0
0, 0
0, 0
0, 0
0, 0
0, 0
0, 0
0, 0
0, 0
0, 0
0, 0
0, 0
0, 0
0, 0
0, 0
0, 0
0, 0
0, 0
0, 0
1, 0
0, 0
0, 0
0, 0
0, 0
0, 0
0, 0
0, 0
0, 0
0, 0
0, 0
0, 0
0, 0
0, 0
0, 0
0, 0
0, 0
0, 0
0, 0
0, 0
0, 0
0, 0
0, 0
0, 0
0, 0
0, 0
0, 0
0, 0
0, 0
0, 0
0, 0
0, 0
0, 0
0, 0
0, 0
0, 0
0, 0
0, 0
0, 0
0, 0
0, 0
0, 0
0, 0
0, 0
0, 0
0, 0
0, 0
0, 0
0, 0
0, 0
0, 0
0, 0
0, 0
0, 0
0, 0
0, 0
0, 0
0, 0
0, 0
0, 0
0, 0
0, 0
0, 0
0, 0
0, 0
0, 0
0, 0
0, 0
0, 0
0, 0
0, 0
0, 0
0, 0
0, 0
0, 0
0, 0
0, 0
0, 0
0, 0
0, 0
0, 0
0, 0
0, 0
0, 0
0, 0
0, 0
0, 0
0, 0
0, 0
0, 0
0, 0
0, 0
0, 0
0, 0
0, 0
0, 0
0, 0
0, 0
0, 0
0, 0
0, 0
0, 0
0, 0
0, 0
0, 0
0, 0
0, 0
0, 0
0, 0
0, 0
0, 0
0, 0
0, 0
0, 0
0, 0
0, 0
0, 0
0, 0
0, 0
0, 0
0, 0
0, 0
0, 0
0, 0
0, 0
0, 0
0, 0
0, 0
0, 0
0, 0
0, 0
0, 0
0, 0
0, 0
0, 0
0, 0
0, 0
0, 0
0, 0
0, 0
0, 0
0, 0
0, 0
0, 0
0, 0
0, 0
0, 0
0, 0
0, 0
0, 0
0, 0
0, 0
0, 0
0, 0
0, 0
0, 0
0, 0
0, 0
0, 0
0, 0
0, 0
0, 0
0, 0
0, 0
0, 0
0, 0
0, 0
0, 0
0, 0
0, 0
0, 0
0, 0
0, 0
0, 0
0, 0
0, 0
0, 0
0, 0
0, 0
0, 0
0, 0
0, 0
0, 0
0, 0
0, 0
0, 0
0, 0
0, 0
0, 0
0, 0
0, 0
0, 0
0, 0
0, 0
0, 0
0, 0
0, 0
0, 0
0, 0
0, 0
0, 0
0, 0
0, 0
0, 0
0, 0
0, 0
0, 0
0, 0
0, 0
0, 0
0, 0
0, 0
0, 0
0, 0
0, 0
0, 0
0, 0
0, 0
0, 0
0, 0
0, 0
0, 0
0, 0
0, 0
0, 0
0, 0
0, 0
0, 0
0, 0
0, 0
0, 0
0, 0
0, 0
0, 0
0, 0
0, 0
0, 0
0, 0
0, 0
0, 0
0, 0
0, 0
0, 0
0, 0
0, 0
0, 0
0, 0
0, 0
0, 0
0, 0
0, 0
0, 0
0, 0
0, 0
0, 0
0, 0
0, 0
0, 0
0, 0
0, 0
0, 0
0, 0
0, 0
0, 0
0, 0
0, 0
0, 0
0, 0
0, 0
0, 0
0, 0
0, 0
#ENDOFDATA     end of spectrum data