File: host_upload/02-11-2024/rqc/uplink1/ps__0567_0717304816_000rfs_shot_475.msa
#FORMAT      : EMSA/MAS spectral data file
#VERSION     : TC202v2.0 PIXL
#TITLE       : Novarupta (sol567) subset1
#DATE        : 02-11-2024      Date in the format DD-MMM-YYYY, for example 07-JUL-2010
#TIME        :             The time of day at which the spectrum was recorded, in 24-hour format
#OWNER       : PIXL Flight Model       (PIXL will use this to indicate which instrument took the data.)
#NPOINTS     : 4096     Number of data points in the spectrum (This can be zero for configuration only files)
#NCOLUMNS    : 2     Number of data columns in the spectrum (This can be zero for configuration only files)
#XUNITS      : eV
#YUNITS      : COUNTS
#DATATYPE    : YY
#XPERCHAN    : 7.862, 7.881   eV per channel (separate by commas if more than one detector)
#OFFSET      : 18.5, -22.4         eV of first channel  (separate by commas if more than one detector
#SIGNALTYPE  : XRF
#YP_TEMP     : 2.267
#LIVETIME    : 8.82248, 8.82361   seconds (separate by commas if more than one detector)
#REALTIME    : 10, 10.0   seconds (separate by commas if more than one detector)
#SPECTRUM    : start of spectrum data
0, 0
0, 0
0, 0
0, 0
0, 0
0, 0
0, 0
0, 0
0, 0
0, 0
0, 0
0, 0
0, 0
0, 0
0, 0
0, 0
0, 0
0, 0
0, 0
0, 0
0, 0
0, 0
0, 0
0, 0
0, 0
0, 0
0, 0
0, 0
0, 0
0, 0
1, 0
0, 0
0, 0
0, 0
1, 0
1, 1
3, 1
2, 2
4, 1
5, 3
2, 1
3, 3
1, 3
2, 5
5, 3
3, 4
4, 2
0, 4
5, 3
5, 6
7, 7
7, 9
19, 14
16, 16
18, 21
14, 8
12, 5
6, 12
10, 11
16, 14
21, 22
33, 24
48, 29
47, 37
39, 43
48, 39
41, 39
35, 37
30, 39
76, 59
109, 112
193, 195
271, 264
418, 427
529, 484
491, 524
481, 460
357, 341
260, 204
145, 136
109, 65
56, 42
29, 35
31, 27
36, 31
51, 47
32, 41
37, 30
39, 19
18, 21
13, 13
20, 12
26, 35
48, 58
83, 78
153, 148
207, 221
305, 299
313, 342
323, 282
307, 267
257, 208
161, 180
121, 96
76, 61
61, 47
50, 54
75, 47
88, 90
105, 125
165, 158
169, 194
227, 236
208, 216
198, 187
162, 160
126, 126
128, 120
94, 78
78, 71
78, 64
73, 69
70, 68
66, 49
48, 39
35, 39
23, 26
20, 19
14, 13
9, 13
7, 11
6, 8
9, 8
6, 6
8, 7
9, 7
10, 6
16, 17
21, 28
36, 29
22, 33
36, 33
34, 27
30, 27
20, 15
18, 20
16, 14
13, 16
19, 8
17, 12
18, 27
46, 51
88, 98
124, 151
215, 225
287, 281
341, 364
392, 351
379, 325
298, 314
262, 223
166, 157
107, 91
65, 50
44, 44
26, 31
33, 27
45, 37
36, 44
56, 57
65, 51
74, 56
56, 55
56, 45
36, 43
21, 25
18, 14
17, 9
10, 13
11, 11
8, 9
7, 10
13, 5
13, 8
14, 14
16, 19
12, 16
20, 22
31, 28
27, 37
57, 68
53, 56
65, 58
67, 56
60, 41
38, 48
40, 39
32, 31
20, 24
17, 12
15, 20
18, 24
14, 20
16, 14
13, 7
11, 19
12, 15
18, 17
17, 23
28, 17
15, 17
25, 21
24, 17
8, 13
18, 15
11, 10
12, 7
10, 10
11, 12
17, 5
4, 12
15, 12
15, 14
14, 15
10, 18
12, 12
22, 16
30, 20
23, 36
28, 32
29, 43
29, 30
25, 20
21, 28
22, 21
22, 18
22, 12
10, 10
22, 11
15, 9
8, 11
19, 16
13, 10
13, 6
17, 21
17, 16
25, 22
34, 33
45, 29
57, 43
51, 56
52, 56
43, 45
43, 39
55, 39
28, 17
27, 25
23, 22
17, 14
17, 15
18, 22
28, 31
34, 44
65, 78
121, 163
207, 264
409, 461
601, 751
888, 1056
1268, 1274
1537, 1587
1807, 1878
1802, 1856
1798, 1762
1593, 1415
1251, 1151
935, 834
649, 543
461, 338
251, 186
141, 102
90, 56
32, 36
25, 28
22, 22
16, 13
26, 11
25, 10
20, 13
26, 22
24, 23
27, 34
46, 58
76, 79
81, 82
127, 137
173, 179
230, 244
247, 239
303, 291
294, 292
274, 248
248, 197
191, 163
145, 125
101, 92
77, 36
41, 34
29, 18
19, 15
13, 5
13, 13
13, 8
11, 10
12, 12
10, 14
13, 10
9, 5
15, 14
13, 16
16, 11
9, 11
12, 11
8, 5
9, 8
6, 6
8, 6
5, 8
4, 9
2, 11
7, 6
4, 4
2, 5
3, 6
3, 5
8, 7
9, 8
7, 2
5, 5
7, 6
13, 5
4, 3
8, 3
9, 9
5, 7
7, 9
8, 8
12, 10
2, 6
5, 6
5, 9
7, 9
6, 13
4, 3
7, 9
3, 5
9, 4
8, 5
7, 5
13, 10
6, 6
6, 12
6, 6
12, 12
9, 12
15, 8
15, 16
15, 13
17, 15
13, 10
10, 7
8, 5
5, 5
3, 4
4, 10
9, 4
8, 2
6, 4
3, 5
5, 5
7, 6
10, 3
5, 7
6, 6
7, 11
9, 6
7, 9
7, 7
11, 6
5, 4
5, 5
7, 1
2, 5
3, 9
5, 9
9, 6
4, 2
9, 8
6, 9
4, 7
2, 4
6, 8
1, 2
8, 5
4, 10
3, 6
8, 4
7, 4
6, 6
3, 6
7, 3
8, 5
6, 5
8, 6
4, 5
6, 8
3, 5
4, 3
2, 4
8, 5
4, 3
4, 4
7, 1
4, 2
4, 6
3, 8
8, 8
3, 6
3, 9
4, 6
3, 7
6, 3
6, 4
3, 4
5, 4
7, 2
5, 5
1, 4
5, 4
3, 1
1, 4
2, 4
4, 4
2, 5
4, 8
5, 3
8, 1
4, 5
5, 1
5, 4
2, 8
4, 7
2, 2
4, 3
6, 4
5, 1
7, 3
4, 2
1, 6
5, 4
2, 2
1, 2
2, 5
4, 1
2, 2
4, 5
5, 2
5, 4
2, 1
3, 5
3, 1
3, 8
0, 4
1, 8
4, 5
1, 6
2, 2
4, 2
0, 3
1, 3
0, 3
7, 2
1, 1
2, 4
0, 3
6, 6
2, 2
4, 1
0, 5
4, 3
5, 2
3, 0
2, 2
3, 2
1, 0
2, 0
3, 3
4, 2
3, 2
2, 0
3, 1
2, 3
1, 4
3, 4
4, 4
2, 2
1, 1
4, 4
2, 1
5, 3
1, 4
6, 1
2, 1
7, 3
2, 2
4, 3
4, 5
3, 2
2, 2
2, 1
3, 0
1, 4
1, 1
4, 1
1, 2
4, 5
2, 4
1, 4
1, 2
4, 1
6, 2
1, 3
1, 2
2, 3
5, 0
1, 2
3, 3
2, 3
1, 3
5, 0
3, 0
7, 4
3, 0
2, 4
2, 3
3, 3
5, 3
5, 3
3, 2
1, 0
1, 2
1, 3
2, 1
2, 0
0, 2
5, 2
1, 2
3, 3
2, 4
3, 0
1, 1
2, 0
2, 0
1, 2
2, 1
3, 0
1, 0
2, 2
5, 0
2, 1
0, 3
3, 0
2, 0
4, 4
3, 3
0, 1
0, 1
1, 1
3, 2
0, 0
1, 1
0, 2
2, 0
1, 2
1, 1
0, 1
0, 2
1, 2
1, 1
0, 2
0, 1
2, 1
1, 1
1, 0
1, 4
2, 0
1, 0
1, 3
1, 1
1, 1
5, 5
2, 0
1, 1
2, 3
1, 2
2, 0
1, 0
1, 0
1, 0
2, 2
0, 2
2, 1
1, 0
1, 0
2, 1
1, 2
0, 4
2, 3
1, 0
0, 1
3, 1
0, 1
0, 0
1, 1
0, 3
1, 2
0, 2
0, 0
0, 1
0, 1
0, 1
1, 1
1, 1
1, 0
0, 1
1, 0
1, 1
0, 1
0, 1
0, 1
2, 1
2, 2
0, 1
0, 0
0, 0
0, 1
1, 0
0, 0
0, 0
0, 0
1, 1
0, 1
0, 0
0, 1
0, 2
1, 1
0, 1
2, 0
0, 0
1, 0
1, 1
1, 1
1, 2
1, 0
1, 2
0, 0
0, 0
1, 0
1, 0
0, 0
0, 1
2, 0
0, 0
0, 0
0, 0
0, 2
0, 0
0, 1
1, 1
0, 2
0, 0
0, 1
0, 0
1, 0
2, 0
1, 0
1, 0
1, 0
0, 0
0, 0
0, 2
0, 1
0, 2
1, 1
0, 0
2, 0
0, 0
0, 0
1, 0
0, 1
1, 0
1, 0
0, 0
0, 0
0, 0
0, 0
0, 1
0, 0
0, 0
0, 0
0, 0
1, 0
0, 0
0, 0
1, 1
0, 0
1, 0
0, 0
1, 0
0, 0
1, 0
0, 0
1, 0
2, 0
1, 0
0, 1
0, 0
0, 1
0, 0
0, 0
0, 0
1, 0
0, 0
0, 0
1, 0
1, 0
0, 0
0, 0
2, 2
1, 0
0, 0
0, 1
1, 0
0, 0
0, 0
1, 1
0, 0
1, 0
1, 0
1, 0
0, 1
0, 1
0, 1
0, 0
0, 0
0, 1
0, 0
0, 0
0, 1
1, 1
0, 0
0, 0
0, 0
0, 0
1, 0
0, 1
0, 1
0, 0
0, 0
0, 0
0, 0
0, 0
0, 0
0, 0
0, 0
0, 0
0, 0
0, 0
0, 0
0, 0
0, 1
2, 0
0, 0
0, 1
0, 1
1, 0
0, 0
0, 1
1, 0
0, 0
0, 1
0, 0
0, 0
1, 1
0, 0
1, 0
2, 0
0, 0
0, 1
0, 0
2, 0
0, 0
0, 0
2, 0
1, 0
1, 0
0, 0
0, 0
0, 0
0, 0
0, 0
0, 0
0, 0
0, 1
1, 0
0, 0
0, 0
0, 0
0, 1
0, 0
0, 0
0, 0
0, 0
1, 0
0, 1
1, 0
0, 0
0, 0
0, 0
0, 0
0, 0
0, 0
0, 0
0, 0
0, 0
0, 0
0, 0
0, 0
0, 1
0, 0
0, 0
0, 0
1, 0
0, 1
0, 0
0, 1
0, 0
1, 0
0, 0
0, 0
0, 1
0, 0
0, 1
0, 0
1, 0
0, 0
0, 0
1, 0
0, 1
0, 0
0, 0
0, 1
0, 0
0, 0
1, 0
0, 0
0, 0
0, 0
0, 0
0, 0
0, 0
1, 0
0, 0
0, 0
0, 0
0, 0
1, 0
0, 0
0, 0
0, 0
0, 0
0, 0
0, 0
1, 0
0, 0
0, 0
1, 0
0, 0
0, 0
0, 0
0, 0
1, 0
1, 0
0, 0
1, 0
0, 0
0, 0
0, 0
0, 0
0, 0
0, 0
0, 0
0, 0
0, 0
0, 0
0, 0
0, 0
0, 0
0, 0
0, 0
0, 0
0, 0
0, 0
0, 0
0, 0
1, 0
0, 0
1, 0
0, 0
0, 0
0, 0
0, 0
0, 0
0, 0
0, 0
0, 0
0, 0
0, 0
0, 0
0, 0
0, 0
0, 0
0, 0
0, 0
0, 0
0, 0
0, 0
0, 0
0, 0
0, 0
0, 0
0, 0
0, 0
0, 0
0, 0
0, 0
0, 0
0, 0
0, 0
0, 0
0, 0
0, 0
0, 0
0, 0
0, 0
1, 0
0, 0
0, 0
0, 0
0, 0
0, 0
0, 0
0, 0
0, 0
0, 0
0, 0
0, 0
0, 0
0, 0
0, 0
0, 0
0, 0
0, 0
0, 0
0, 0
0, 0
0, 0
0, 0
0, 0
0, 0
0, 0
0, 0
0, 0
0, 0
0, 0
0, 0
0, 0
0, 0
0, 0
0, 0
0, 0
0, 0
0, 0
0, 0
0, 0
0, 0
0, 0
0, 0
0, 0
0, 0
0, 0
0, 0
0, 0
0, 0
0, 0
0, 0
0, 0
0, 0
0, 0
0, 0
0, 0
0, 0
0, 0
0, 0
0, 0
0, 0
0, 0
0, 0
0, 0
0, 0
0, 0
0, 0
0, 0
0, 0
0, 0
0, 0
0, 0
0, 0
0, 0
0, 0
0, 0
0, 0
0, 0
0, 0
0, 0
0, 0
0, 0
0, 0
0, 0
0, 0
0, 0
0, 0
0, 0
0, 0
0, 0
0, 0
0, 0
0, 0
0, 0
0, 0
0, 0
0, 0
0, 0
0, 0
0, 0
0, 0
0, 0
0, 0
0, 0
0, 0
0, 0
0, 0
0, 0
0, 0
0, 0
0, 0
0, 0
0, 0
0, 0
0, 0
0, 0
0, 0
0, 0
0, 0
0, 0
0, 0
0, 0
0, 0
0, 0
0, 0
0, 0
0, 0
0, 0
0, 0
0, 0
0, 0
0, 0
0, 0
0, 0
0, 0
0, 0
0, 0
0, 0
0, 0
1, 0
0, 0
0, 0
0, 0
0, 0
0, 0
0, 0
0, 0
0, 0
0, 0
0, 0
0, 0
0, 0
0, 0
0, 0
0, 0
0, 0
0, 0
0, 0
0, 0
0, 0
0, 0
0, 0
0, 0
0, 0
0, 0
0, 0
0, 0
0, 0
0, 0
0, 0
0, 0
0, 0
0, 0
0, 0
0, 0
0, 0
0, 0
0, 0
0, 0
0, 0
0, 0
0, 0
0, 0
0, 0
0, 0
0, 0
0, 0
0, 0
0, 0
0, 0
0, 0
0, 0
0, 0
0, 0
0, 0
0, 0
0, 0
0, 0
0, 0
0, 0
0, 0
0, 0
0, 0
0, 0
0, 0
0, 0
0, 0
0, 0
0, 0
0, 0
0, 0
0, 0
0, 0
0, 0
0, 0
0, 0
0, 0
0, 0
0, 0
0, 0
0, 0
0, 0
0, 0
0, 0
0, 0
0, 0
0, 0
0, 0
0, 0
0, 0
0, 0
0, 0
0, 0
0, 0
0, 0
0, 0
0, 0
0, 0
0, 0
0, 0
0, 0
0, 0
0, 0
0, 0
0, 0
0, 0
0, 0
0, 0
0, 0
0, 0
0, 0
0, 0
0, 0
0, 0
0, 0
0, 0
0, 0
0, 0
0, 0
0, 0
0, 0
0, 0
0, 0
0, 0
0, 0
0, 0
0, 0
0, 0
0, 0
0, 0
0, 0
0, 0
0, 0
0, 0
0, 0
0, 0
0, 0
0, 0
0, 0
0, 0
0, 0
0, 0
0, 0
0, 0
0, 0
0, 0
0, 0
0, 0
0, 0
0, 0
0, 0
0, 0
0, 0
0, 0
0, 0
0, 0
0, 0
0, 0
0, 0
0, 0
0, 0
0, 0
0, 0
0, 0
0, 0
0, 0
0, 0
0, 0
0, 0
0, 0
0, 0
0, 0
0, 0
0, 0
0, 0
0, 0
0, 0
0, 0
0, 0
0, 0
0, 0
0, 0
0, 0
0, 0
0, 0
0, 0
0, 0
0, 0
0, 0
0, 0
0, 0
0, 0
0, 0
0, 0
0, 0
0, 0
0, 0
0, 0
0, 0
0, 0
0, 0
0, 0
0, 0
0, 0
0, 0
0, 0
0, 0
0, 0
0, 0
0, 0
0, 0
0, 0
0, 0
0, 0
0, 0
0, 0
0, 0
0, 0
0, 0
0, 0
0, 0
0, 0
0, 0
0, 0
0, 0
0, 0
0, 0
0, 0
0, 0
0, 0
0, 0
0, 0
0, 0
0, 0
0, 0
0, 0
0, 0
0, 0
0, 0
0, 0
0, 0
0, 0
0, 0
0, 0
0, 0
0, 0
0, 0
0, 0
0, 0
0, 0
0, 0
0, 0
0, 0
0, 0
0, 0
0, 0
0, 0
0, 0
0, 0
0, 0
0, 0
0, 0
0, 0
0, 0
0, 0
0, 0
0, 0
0, 0
0, 0
0, 0
0, 0
#ENDOFDATA     end of spectrum data