File: host_upload/02-11-2024/rqc/uplink1/ps__0567_0717304816_000rfs_shot_437.msa
#FORMAT      : EMSA/MAS spectral data file
#VERSION     : TC202v2.0 PIXL
#TITLE       : Novarupta (sol567) subset1
#DATE        : 02-11-2024      Date in the format DD-MMM-YYYY, for example 07-JUL-2010
#TIME        :             The time of day at which the spectrum was recorded, in 24-hour format
#OWNER       : PIXL Flight Model       (PIXL will use this to indicate which instrument took the data.)
#NPOINTS     : 4096     Number of data points in the spectrum (This can be zero for configuration only files)
#NCOLUMNS    : 2     Number of data columns in the spectrum (This can be zero for configuration only files)
#XUNITS      : eV
#YUNITS      : COUNTS
#DATATYPE    : YY
#XPERCHAN    : 7.862, 7.881   eV per channel (separate by commas if more than one detector)
#OFFSET      : 18.5, -22.4         eV of first channel  (separate by commas if more than one detector
#SIGNALTYPE  : XRF
#YP_TEMP     : 1.69
#LIVETIME    : 8.83499, 8.82197   seconds (separate by commas if more than one detector)
#REALTIME    : 10, 10.0   seconds (separate by commas if more than one detector)
#SPECTRUM    : start of spectrum data
0, 0
0, 0
0, 0
0, 0
0, 0
0, 0
0, 0
0, 0
0, 0
0, 0
0, 0
0, 0
0, 0
0, 0
0, 0
0, 0
0, 0
0, 0
0, 0
0, 0
0, 0
0, 0
0, 0
0, 0
0, 0
0, 0
0, 0
0, 0
0, 0
0, 0
0, 0
0, 0
1, 0
2, 3
2, 0
0, 0
2, 1
4, 5
9, 2
1, 1
5, 3
3, 2
3, 2
0, 2
5, 4
1, 3
4, 4
3, 3
6, 6
3, 5
8, 5
10, 15
6, 11
13, 9
23, 24
14, 19
29, 6
13, 11
11, 15
7, 12
12, 17
19, 28
32, 35
41, 48
51, 44
43, 40
45, 34
27, 36
44, 62
51, 70
103, 115
181, 161
289, 297
420, 438
441, 451
479, 508
421, 422
314, 319
227, 246
156, 111
107, 75
33, 45
39, 42
30, 29
26, 32
33, 34
35, 40
31, 33
27, 24
24, 22
21, 25
14, 22
22, 26
35, 41
77, 78
154, 149
209, 228
300, 255
318, 356
316, 309
283, 272
206, 202
169, 184
107, 104
79, 66
69, 51
41, 48
59, 71
75, 88
106, 138
149, 169
216, 176
172, 231
179, 195
191, 191
178, 155
154, 139
93, 106
84, 83
75, 89
88, 68
69, 67
44, 58
55, 53
49, 34
50, 41
27, 29
22, 18
21, 13
9, 14
11, 9
11, 8
6, 7
6, 3
5, 8
17, 8
8, 11
13, 11
13, 24
13, 27
36, 26
32, 35
26, 34
25, 14
22, 27
15, 13
14, 14
17, 13
12, 7
13, 14
26, 23
42, 62
77, 107
131, 162
200, 190
272, 274
293, 325
318, 403
329, 330
300, 302
227, 231
152, 142
110, 87
66, 57
43, 32
28, 23
26, 22
29, 35
38, 46
50, 52
47, 62
68, 56
49, 47
41, 52
30, 38
21, 25
19, 16
9, 8
9, 9
11, 7
7, 9
12, 10
13, 7
8, 10
14, 11
8, 22
16, 17
24, 32
22, 31
33, 40
59, 62
56, 60
51, 64
57, 64
48, 53
47, 47
37, 31
23, 34
21, 18
19, 19
18, 8
15, 8
19, 21
5, 18
13, 18
14, 10
16, 8
14, 23
11, 13
17, 25
19, 15
24, 13
12, 22
14, 12
12, 8
16, 10
11, 15
11, 13
12, 7
10, 10
12, 20
12, 13
16, 3
13, 8
12, 14
16, 20
22, 31
17, 31
26, 35
30, 30
26, 21
28, 26
27, 27
24, 25
16, 24
15, 13
14, 21
11, 13
15, 10
5, 13
13, 14
14, 9
10, 20
17, 18
15, 13
23, 18
28, 29
25, 34
31, 43
46, 44
49, 52
45, 56
50, 46
50, 40
44, 34
35, 35
26, 17
22, 26
18, 17
17, 18
14, 28
29, 27
29, 47
67, 79
101, 155
212, 281
378, 401
572, 696
882, 1021
1169, 1311
1443, 1566
1653, 1809
1819, 1778
1713, 1686
1542, 1397
1284, 1101
925, 853
601, 520
415, 328
216, 194
128, 106
70, 60
37, 33
29, 20
22, 21
13, 15
15, 27
21, 11
15, 28
16, 22
18, 12
27, 29
39, 35
64, 80
62, 101
127, 152
154, 185
199, 238
231, 250
261, 262
262, 313
239, 245
203, 190
205, 172
115, 105
82, 81
59, 65
38, 23
23, 23
10, 18
7, 12
6, 11
6, 6
9, 7
18, 11
10, 12
16, 9
6, 17
16, 7
14, 15
11, 7
12, 11
13, 12
10, 10
8, 8
4, 10
3, 7
6, 5
8, 9
9, 4
3, 5
7, 0
5, 8
5, 5
8, 5
4, 5
5, 7
8, 6
6, 8
9, 5
3, 12
12, 5
3, 5
5, 9
3, 7
7, 10
6, 10
8, 8
11, 4
2, 9
10, 3
7, 7
5, 9
8, 3
4, 9
4, 6
3, 6
6, 3
6, 6
6, 6
3, 10
15, 10
7, 7
8, 6
10, 8
4, 10
17, 7
18, 11
5, 17
17, 8
11, 9
6, 9
10, 7
3, 8
6, 3
4, 10
7, 9
7, 6
10, 6
4, 3
3, 7
3, 11
5, 3
7, 6
3, 2
8, 5
3, 7
7, 2
5, 4
3, 6
5, 5
4, 5
5, 9
7, 6
6, 5
8, 6
7, 5
4, 7
4, 4
8, 9
6, 3
2, 7
4, 4
7, 6
4, 8
6, 8
10, 4
2, 3
7, 5
4, 3
2, 5
4, 3
3, 5
8, 2
3, 3
2, 6
9, 8
7, 6
6, 3
4, 4
6, 5
7, 1
5, 7
8, 3
7, 4
4, 3
6, 2
5, 8
6, 1
7, 4
4, 7
4, 0
6, 5
3, 2
5, 2
3, 4
5, 4
2, 7
0, 4
1, 5
0, 2
2, 3
3, 4
2, 5
2, 6
4, 6
2, 5
5, 6
2, 6
5, 3
1, 4
2, 1
3, 2
3, 3
3, 4
0, 1
2, 3
4, 1
5, 4
5, 0
5, 1
1, 1
1, 1
5, 3
6, 3
2, 3
4, 2
5, 2
2, 4
3, 2
5, 4
2, 4
2, 6
2, 5
5, 1
2, 5
4, 5
2, 5
2, 5
3, 4
0, 3
1, 4
4, 6
6, 0
0, 4
5, 4
5, 2
3, 1
1, 1
1, 2
0, 2
0, 2
0, 2
4, 1
1, 4
2, 2
1, 1
0, 0
0, 2
4, 3
2, 2
2, 3
7, 4
1, 3
4, 2
0, 1
0, 1
1, 1
5, 5
1, 4
4, 2
4, 5
4, 6
3, 1
3, 1
3, 4
3, 0
2, 6
3, 2
1, 1
5, 1
1, 0
3, 0
3, 3
0, 1
0, 3
5, 1
2, 4
1, 1
0, 2
5, 3
2, 2
0, 0
3, 5
1, 4
2, 3
2, 2
2, 2
0, 3
3, 2
6, 4
3, 4
2, 3
2, 5
3, 7
0, 3
1, 3
4, 2
2, 2
0, 1
1, 0
3, 1
2, 2
1, 2
3, 0
1, 1
2, 0
0, 0
4, 1
1, 0
1, 2
1, 1
0, 1
1, 0
2, 4
0, 0
3, 0
2, 3
4, 1
5, 2
1, 2
2, 3
3, 0
3, 1
4, 3
2, 1
1, 1
2, 2
4, 4
2, 2
3, 1
1, 0
0, 1
2, 3
2, 1
0, 2
2, 0
1, 1
3, 2
1, 1
1, 3
1, 0
0, 2
0, 1
1, 3
0, 0
0, 0
1, 0
0, 1
2, 3
1, 1
1, 2
1, 0
1, 2
1, 4
1, 2
0, 1
4, 1
1, 2
2, 1
0, 1
1, 1
2, 2
3, 0
0, 0
1, 2
1, 1
1, 0
1, 1
0, 0
2, 0
4, 1
2, 1
0, 1
0, 3
1, 0
1, 1
1, 2
0, 1
2, 1
1, 0
0, 1
2, 1
0, 1
1, 3
1, 0
2, 1
0, 0
1, 0
0, 0
0, 3
0, 0
1, 0
0, 1
2, 1
0, 1
2, 0
0, 0
0, 1
1, 1
1, 1
0, 1
0, 1
1, 0
1, 1
1, 0
0, 1
0, 1
1, 0
3, 1
0, 0
4, 0
0, 0
0, 0
1, 1
0, 1
0, 0
0, 1
0, 0
0, 0
1, 0
0, 0
1, 0
1, 1
0, 0
1, 2
1, 0
0, 1
2, 1
0, 0
1, 0
0, 0
0, 0
0, 0
0, 0
1, 2
1, 0
0, 0
0, 1
0, 0
0, 2
0, 0
1, 1
1, 0
0, 0
1, 3
0, 1
0, 0
0, 0
1, 0
1, 0
1, 0
0, 0
0, 0
0, 0
0, 0
1, 1
0, 0
1, 0
0, 1
1, 3
1, 3
0, 1
0, 0
1, 1
0, 0
0, 1
1, 1
0, 0
0, 0
0, 1
1, 0
0, 0
0, 0
1, 0
0, 0
1, 1
0, 0
0, 1
0, 0
1, 2
0, 2
0, 0
0, 0
0, 0
0, 0
0, 1
0, 0
1, 1
0, 1
0, 0
0, 0
0, 0
0, 0
0, 0
0, 0
0, 0
0, 0
0, 0
0, 0
0, 0
0, 1
0, 0
2, 0
0, 1
0, 0
1, 1
0, 0
0, 0
0, 2
1, 0
0, 0
0, 0
0, 0
0, 1
0, 0
0, 0
0, 0
3, 1
0, 0
0, 0
0, 1
0, 0
0, 0
0, 0
0, 0
1, 0
0, 0
0, 0
0, 0
1, 0
0, 1
0, 0
0, 0
0, 0
0, 0
0, 0
0, 0
0, 0
0, 0
0, 0
0, 0
0, 1
3, 0
0, 0
1, 0
1, 1
0, 0
0, 1
0, 0
0, 0
0, 0
0, 1
0, 0
0, 1
1, 0
0, 0
0, 0
0, 0
0, 0
0, 0
0, 1
0, 0
0, 1
0, 0
0, 0
0, 0
0, 1
0, 0
0, 0
1, 0
0, 0
0, 0
0, 0
0, 0
0, 0
0, 0
0, 0
0, 0
0, 0
0, 1
0, 0
0, 0
0, 0
0, 0
0, 0
0, 0
0, 0
0, 0
0, 0
0, 0
0, 0
0, 0
0, 1
1, 0
0, 0
0, 0
0, 0
0, 0
0, 0
0, 0
1, 0
0, 0
0, 0
1, 2
0, 0
0, 1
0, 0
0, 0
0, 0
0, 0
1, 0
0, 1
1, 1
0, 0
0, 1
0, 0
0, 0
0, 0
0, 0
0, 0
0, 0
0, 0
0, 0
0, 0
0, 0
0, 1
0, 0
0, 1
0, 0
1, 0
0, 0
0, 0
0, 0
0, 1
0, 0
0, 0
0, 0
0, 0
0, 0
0, 0
0, 0
0, 0
0, 1
0, 0
0, 0
0, 0
0, 0
0, 0
0, 0
0, 0
0, 0
0, 0
0, 0
0, 0
0, 0
0, 0
0, 0
0, 0
0, 0
0, 0
0, 1
0, 0
1, 0
0, 0
0, 0
0, 0
0, 0
0, 0
0, 0
0, 0
0, 0
0, 0
0, 0
0, 0
0, 0
0, 0
0, 0
0, 0
0, 0
0, 0
0, 0
0, 0
0, 0
1, 0
0, 0
0, 0
0, 0
0, 0
0, 0
0, 0
0, 1
0, 0
0, 0
0, 0
0, 0
0, 0
0, 0
0, 0
0, 0
0, 0
0, 0
0, 0
0, 0
0, 0
0, 0
0, 0
0, 0
0, 0
0, 0
0, 0
0, 0
0, 0
0, 0
0, 0
0, 0
0, 0
0, 0
0, 0
0, 0
0, 0
0, 0
0, 0
0, 0
0, 0
0, 1
0, 0
0, 0
0, 0
0, 0
0, 0
0, 0
0, 0
0, 0
0, 0
0, 0
0, 0
0, 0
0, 0
0, 0
0, 0
0, 0
0, 0
0, 0
1, 0
0, 0
0, 0
0, 0
0, 0
0, 0
0, 0
0, 0
0, 0
0, 0
0, 0
0, 0
0, 0
1, 0
0, 0
0, 0
0, 0
0, 0
0, 0
0, 0
0, 0
0, 0
0, 0
0, 0
0, 0
0, 0
0, 0
0, 0
0, 0
0, 0
0, 0
0, 0
0, 0
0, 0
0, 0
0, 0
0, 0
0, 0
0, 0
0, 0
0, 0
0, 0
0, 0
0, 0
0, 0
0, 0
0, 0
0, 0
0, 0
0, 0
0, 0
0, 0
0, 0
0, 0
0, 0
0, 0
0, 0
0, 0
0, 0
0, 0
0, 0
0, 0
0, 0
0, 0
0, 0
0, 0
0, 0
0, 1
0, 0
0, 0
0, 0
0, 0
0, 0
0, 0
0, 0
0, 0
0, 0
0, 0
0, 0
0, 0
0, 0
0, 0
0, 0
0, 0
0, 0
0, 0
0, 0
0, 0
0, 0
0, 0
0, 0
0, 0
0, 0
0, 0
0, 0
0, 0
0, 0
0, 0
0, 0
0, 0
0, 0
0, 0
0, 0
0, 0
0, 0
0, 0
0, 0
0, 0
0, 0
0, 0
0, 0
0, 0
0, 0
0, 0
0, 0
0, 0
0, 0
0, 0
0, 0
0, 0
0, 0
0, 0
0, 0
0, 0
0, 0
0, 0
0, 0
0, 0
0, 0
0, 0
0, 0
0, 0
0, 0
0, 0
0, 0
0, 0
0, 0
0, 0
0, 0
0, 0
0, 0
0, 0
0, 0
0, 0
0, 0
0, 0
0, 0
0, 0
0, 0
0, 0
0, 0
0, 0
0, 0
0, 0
0, 0
0, 0
0, 0
0, 0
0, 0
0, 0
0, 0
0, 0
0, 0
0, 0
0, 0
0, 0
0, 0
0, 0
0, 0
0, 0
0, 0
0, 0
0, 0
0, 0
0, 0
0, 0
0, 0
0, 0
0, 0
0, 0
0, 0
0, 0
0, 0
0, 0
0, 0
0, 0
0, 0
0, 0
0, 0
0, 0
0, 0
0, 0
0, 0
0, 0
0, 0
0, 0
0, 0
0, 0
0, 0
0, 0
0, 0
0, 0
0, 0
0, 0
0, 0
0, 0
0, 0
0, 0
0, 0
0, 0
0, 0
0, 0
0, 0
0, 0
0, 0
0, 0
0, 0
0, 0
0, 0
0, 0
0, 0
0, 0
0, 0
0, 0
0, 0
0, 0
0, 0
0, 0
0, 0
0, 0
0, 0
0, 0
0, 0
0, 0
0, 0
0, 0
0, 0
0, 0
0, 0
0, 0
0, 0
0, 0
0, 0
0, 0
0, 0
0, 0
0, 0
0, 0
0, 0
0, 0
0, 0
0, 0
0, 0
0, 0
0, 0
0, 0
0, 0
0, 0
0, 0
0, 0
0, 0
0, 0
0, 0
0, 0
0, 0
0, 0
0, 0
0, 0
0, 0
0, 0
0, 0
0, 0
0, 0
0, 0
0, 0
0, 0
0, 0
0, 0
0, 0
0, 0
0, 0
0, 0
0, 0
0, 0
0, 0
0, 0
0, 0
0, 0
0, 0
0, 0
0, 0
0, 0
0, 0
0, 0
0, 0
0, 0
0, 0
0, 0
0, 0
0, 0
0, 0
0, 0
0, 0
0, 0
0, 0
0, 0
0, 0
0, 0
0, 0
0, 0
0, 0
0, 0
0, 0
0, 0
0, 0
0, 0
0, 0
0, 0
0, 0
0, 0
0, 0
0, 0
0, 0
0, 0
0, 0
0, 0
0, 0
0, 0
0, 0
0, 0
0, 0
0, 0
0, 0
0, 0
0, 0
0, 0
0, 0
0, 0
0, 0
0, 0
0, 0
0, 0
0, 0
0, 0
0, 0
0, 0
0, 0
0, 0
0, 0
0, 0
0, 0
0, 0
0, 0
0, 0
0, 0
0, 0
0, 0
0, 0
0, 0
0, 0
0, 0
0, 0
0, 0
0, 0
0, 0
0, 0
0, 0
0, 0
0, 0
0, 0
0, 0
0, 0
#ENDOFDATA     end of spectrum data