File: host_upload/02-11-2024/rqc/uplink1/ps__0567_0717304816_000rfs_shot_31.msa
#FORMAT      : EMSA/MAS spectral data file
#VERSION     : TC202v2.0 PIXL
#TITLE       : Novarupta (sol567) subset1
#DATE        : 02-11-2024      Date in the format DD-MMM-YYYY, for example 07-JUL-2010
#TIME        :             The time of day at which the spectrum was recorded, in 24-hour format
#OWNER       : PIXL Flight Model       (PIXL will use this to indicate which instrument took the data.)
#NPOINTS     : 4096     Number of data points in the spectrum (This can be zero for configuration only files)
#NCOLUMNS    : 2     Number of data columns in the spectrum (This can be zero for configuration only files)
#XUNITS      : eV
#YUNITS      : COUNTS
#DATATYPE    : YY
#XPERCHAN    : 7.862, 7.881   eV per channel (separate by commas if more than one detector)
#OFFSET      : 18.5, -22.4         eV of first channel  (separate by commas if more than one detector
#SIGNALTYPE  : XRF
#YP_TEMP     : -4.275
#LIVETIME    : 8.83162, 8.8266   seconds (separate by commas if more than one detector)
#REALTIME    : 10, 10.0   seconds (separate by commas if more than one detector)
#SPECTRUM    : start of spectrum data
0, 0
0, 0
0, 0
0, 0
0, 0
0, 0
0, 0
0, 0
0, 0
0, 0
0, 0
0, 0
0, 0
0, 0
0, 0
0, 0
0, 0
0, 0
0, 0
0, 0
0, 0
0, 0
0, 0
0, 0
0, 0
0, 0
0, 0
0, 0
0, 0
0, 0
0, 1
0, 1
0, 0
0, 0
1, 0
2, 1
1, 3
2, 1
5, 4
5, 5
4, 5
5, 5
3, 2
5, 7
3, 5
2, 1
3, 4
3, 4
3, 6
4, 6
4, 11
10, 14
13, 10
19, 15
12, 19
9, 17
12, 12
13, 8
6, 15
12, 14
15, 21
19, 39
31, 38
49, 46
65, 60
45, 49
32, 44
34, 42
48, 46
81, 82
131, 182
211, 242
325, 387
396, 522
485, 518
440, 501
418, 433
315, 316
218, 227
128, 150
88, 95
57, 57
31, 29
39, 37
39, 37
48, 33
44, 32
27, 27
17, 33
21, 24
24, 12
28, 23
37, 27
59, 66
102, 106
147, 168
200, 249
235, 276
298, 306
283, 332
264, 258
180, 190
131, 156
108, 89
59, 78
65, 59
54, 70
60, 85
104, 122
133, 179
167, 186
198, 200
252, 224
215, 225
168, 203
147, 158
119, 131
101, 90
73, 105
80, 85
67, 79
76, 62
60, 73
46, 51
36, 32
28, 29
19, 29
19, 30
24, 21
12, 11
18, 12
7, 9
10, 9
5, 7
12, 13
14, 10
12, 17
16, 26
22, 18
21, 19
18, 30
22, 32
18, 34
18, 31
21, 24
18, 17
6, 11
21, 18
15, 16
26, 22
32, 44
70, 86
130, 111
184, 202
239, 282
347, 340
350, 404
353, 373
325, 398
264, 304
210, 210
127, 153
84, 103
61, 36
41, 42
31, 27
32, 34
38, 37
51, 50
53, 68
52, 65
46, 63
64, 58
40, 36
25, 40
21, 20
16, 13
12, 12
8, 11
10, 6
8, 9
4, 7
11, 11
11, 8
13, 14
11, 15
10, 34
33, 27
41, 53
45, 66
55, 59
66, 65
62, 71
54, 56
46, 49
45, 41
32, 38
23, 26
13, 34
15, 20
19, 12
13, 10
9, 15
12, 15
6, 13
11, 18
17, 14
13, 17
14, 25
19, 22
19, 23
19, 17
24, 20
17, 22
11, 9
8, 15
9, 11
12, 15
10, 7
10, 11
10, 16
10, 15
11, 19
15, 21
22, 15
21, 23
19, 15
18, 32
28, 32
36, 32
45, 43
31, 31
27, 22
22, 18
23, 19
17, 7
13, 14
12, 16
10, 10
15, 12
15, 10
9, 17
17, 20
16, 15
16, 18
25, 20
30, 27
30, 37
43, 48
47, 65
50, 45
45, 47
38, 38
36, 26
30, 35
28, 25
21, 31
23, 24
19, 28
16, 26
24, 35
37, 34
87, 96
126, 153
215, 250
339, 503
609, 725
802, 938
1139, 1333
1324, 1590
1554, 1747
1699, 1832
1644, 1689
1444, 1525
1183, 1110
880, 875
619, 587
383, 384
250, 220
127, 124
90, 60
42, 47
26, 32
20, 20
17, 12
17, 24
11, 18
16, 17
15, 29
20, 20
40, 41
51, 51
70, 82
92, 94
132, 169
176, 203
213, 236
240, 254
247, 263
248, 295
238, 266
198, 218
202, 163
118, 99
98, 88
63, 58
35, 41
24, 19
18, 24
11, 18
8, 13
12, 11
9, 8
14, 13
8, 11
18, 8
11, 10
17, 8
14, 8
6, 13
8, 7
6, 10
15, 10
7, 9
9, 7
8, 9
4, 6
7, 6
5, 3
5, 4
7, 5
2, 7
5, 2
7, 9
11, 10
2, 10
4, 10
9, 6
7, 10
9, 2
6, 8
10, 7
6, 5
7, 7
10, 7
9, 3
9, 7
5, 12
6, 9
9, 9
7, 12
6, 7
9, 7
8, 2
7, 11
3, 3
8, 5
6, 6
3, 6
8, 5
4, 13
10, 13
6, 6
7, 14
6, 6
6, 14
15, 7
13, 13
9, 20
7, 8
8, 18
8, 10
3, 7
4, 8
3, 11
3, 9
5, 6
9, 3
4, 2
6, 5
2, 5
6, 6
2, 5
7, 6
7, 11
6, 6
2, 6
5, 7
1, 6
7, 5
3, 7
6, 6
0, 7
6, 12
8, 6
5, 8
4, 4
3, 4
0, 5
5, 6
6, 8
4, 4
2, 3
5, 8
5, 4
3, 4
12, 8
2, 7
6, 9
2, 4
7, 3
4, 3
7, 5
0, 9
7, 3
5, 5
2, 9
4, 4
7, 6
1, 7
4, 7
1, 5
2, 5
3, 4
6, 5
7, 9
4, 7
7, 2
8, 6
6, 4
3, 4
8, 6
3, 3
10, 3
5, 2
4, 3
2, 4
1, 3
7, 7
3, 3
1, 3
3, 2
5, 2
5, 2
3, 4
5, 3
4, 1
4, 4
4, 2
2, 6
4, 2
2, 2
2, 6
2, 7
4, 8
3, 1
1, 5
3, 3
1, 2
2, 3
3, 4
3, 2
6, 1
2, 6
5, 2
6, 5
6, 2
1, 1
3, 1
2, 3
5, 3
5, 2
3, 4
0, 1
3, 0
2, 1
4, 1
1, 1
4, 3
0, 2
0, 0
1, 2
4, 2
3, 0
2, 3
1, 2
2, 1
3, 2
5, 3
1, 5
3, 4
0, 2
0, 2
2, 2
0, 0
0, 2
1, 1
2, 0
0, 3
5, 4
2, 4
2, 2
3, 2
5, 4
6, 1
3, 4
2, 2
2, 1
1, 3
2, 1
3, 1
2, 2
2, 3
3, 1
2, 5
0, 2
3, 0
1, 4
3, 4
2, 2
0, 1
1, 1
3, 2
2, 0
0, 0
2, 1
1, 1
1, 1
3, 1
3, 3
4, 1
1, 2
3, 0
3, 2
2, 3
5, 2
0, 2
2, 1
0, 6
3, 0
2, 2
3, 5
1, 0
4, 1
2, 5
3, 3
3, 6
0, 3
2, 2
3, 2
1, 1
1, 3
0, 3
1, 7
1, 1
3, 2
1, 0
1, 2
0, 2
0, 0
0, 2
2, 3
0, 1
2, 0
1, 4
0, 2
1, 1
2, 1
1, 1
2, 1
0, 1
4, 1
2, 2
0, 2
2, 0
1, 1
1, 0
0, 3
2, 0
0, 1
0, 0
0, 0
1, 0
1, 1
1, 0
3, 0
0, 1
2, 1
1, 0
0, 2
2, 2
1, 2
1, 1
2, 0
1, 2
3, 2
0, 1
2, 2
1, 0
0, 1
1, 2
1, 4
1, 2
2, 2
2, 1
0, 0
0, 0
1, 2
3, 0
3, 1
2, 1
2, 0
0, 0
1, 1
0, 1
3, 1
0, 0
0, 2
1, 0
1, 1
0, 0
1, 0
0, 1
0, 0
1, 0
1, 0
1, 1
0, 1
1, 1
3, 0
0, 0
0, 0
1, 1
0, 1
1, 0
1, 0
2, 0
0, 1
0, 1
0, 0
0, 2
3, 0
0, 1
1, 1
0, 1
2, 0
3, 0
0, 2
2, 0
0, 0
1, 0
0, 0
1, 0
1, 0
0, 1
1, 3
1, 1
1, 1
1, 0
1, 3
0, 0
0, 0
2, 0
1, 1
1, 1
0, 0
0, 2
2, 0
0, 1
4, 0
1, 1
0, 0
1, 1
0, 0
0, 0
0, 1
0, 0
0, 0
0, 0
0, 0
0, 0
0, 0
1, 0
0, 1
0, 3
0, 0
0, 0
0, 0
1, 0
0, 0
0, 1
0, 0
0, 0
0, 1
1, 0
1, 0
1, 0
0, 0
2, 2
0, 0
0, 0
1, 1
0, 0
2, 1
0, 1
1, 1
0, 1
1, 0
0, 1
0, 0
0, 1
1, 1
1, 0
0, 1
0, 1
0, 0
0, 0
0, 1
0, 0
2, 1
0, 0
0, 0
0, 0
0, 1
0, 0
0, 1
0, 0
0, 0
0, 0
0, 0
0, 0
1, 0
1, 0
0, 0
1, 0
0, 0
0, 0
0, 1
0, 0
0, 0
0, 0
0, 0
0, 0
0, 0
0, 0
0, 0
0, 0
0, 0
0, 1
0, 0
1, 0
0, 0
0, 0
0, 1
0, 2
0, 0
1, 0
0, 0
0, 1
0, 0
1, 0
0, 0
0, 0
1, 1
0, 0
0, 0
0, 0
0, 0
2, 0
0, 0
1, 1
0, 0
0, 0
0, 0
0, 2
0, 0
0, 0
0, 0
0, 1
0, 0
0, 0
0, 0
0, 0
1, 0
0, 1
0, 1
0, 0
0, 0
0, 2
1, 1
0, 1
0, 0
2, 0
0, 0
0, 0
0, 0
0, 0
0, 1
0, 0
1, 0
0, 0
0, 0
2, 0
0, 0
1, 0
1, 0
0, 0
1, 0
0, 1
0, 0
0, 0
0, 0
0, 0
1, 1
0, 0
0, 0
0, 0
0, 0
0, 1
1, 1
0, 0
0, 0
0, 0
0, 0
0, 0
0, 0
0, 0
1, 0
0, 1
0, 0
0, 0
0, 0
0, 0
0, 0
0, 0
0, 0
0, 0
0, 0
0, 0
0, 0
0, 0
0, 1
0, 0
0, 0
0, 0
0, 0
1, 0
0, 0
0, 1
0, 0
0, 0
0, 0
0, 1
0, 0
1, 0
0, 0
0, 0
0, 1
0, 0
0, 0
1, 0
0, 0
0, 0
0, 0
0, 0
0, 0
0, 0
0, 0
0, 0
0, 0
0, 0
0, 0
0, 0
0, 0
0, 0
0, 0
0, 0
0, 0
1, 0
0, 0
0, 0
0, 0
0, 1
1, 0
0, 0
0, 0
0, 0
0, 0
0, 0
0, 0
0, 0
0, 0
0, 0
0, 0
0, 0
0, 0
0, 0
0, 0
0, 0
0, 0
0, 0
0, 0
0, 0
0, 0
0, 0
0, 0
0, 1
0, 0
0, 0
0, 0
0, 0
0, 0
1, 0
0, 0
0, 0
0, 0
0, 0
0, 0
0, 0
0, 0
0, 0
0, 0
0, 0
0, 0
0, 0
0, 0
0, 0
0, 0
0, 0
0, 0
0, 0
0, 0
0, 0
0, 1
0, 0
0, 0
0, 0
0, 0
0, 1
0, 0
0, 0
0, 0
0, 0
0, 0
0, 0
0, 0
0, 0
0, 0
0, 0
0, 0
0, 0
0, 0
0, 0
0, 0
0, 0
0, 0
0, 0
0, 0
0, 0
0, 0
0, 0
0, 0
0, 0
0, 0
0, 0
0, 0
0, 0
0, 0
0, 0
0, 0
0, 0
0, 0
0, 0
0, 0
0, 0
0, 0
0, 0
0, 0
0, 0
0, 0
1, 0
0, 0
0, 0
0, 0
0, 0
0, 1
0, 0
0, 0
0, 0
0, 0
0, 0
0, 0
0, 0
0, 0
0, 0
0, 0
0, 0
0, 0
0, 0
0, 0
0, 0
0, 0
0, 0
0, 0
0, 0
0, 0
0, 0
0, 0
0, 0
0, 0
0, 0
0, 0
0, 0
0, 0
0, 0
0, 0
0, 0
0, 0
0, 0
0, 0
0, 0
0, 0
0, 0
0, 0
0, 0
0, 0
0, 0
0, 0
0, 0
0, 0
0, 0
0, 0
0, 0
0, 0
0, 0
0, 0
0, 0
0, 0
0, 0
0, 0
0, 0
0, 0
0, 0
0, 0
0, 0
0, 0
0, 0
0, 0
0, 0
0, 0
0, 0
0, 0
0, 0
0, 0
0, 0
0, 0
0, 0
0, 0
0, 0
0, 0
0, 0
0, 0
0, 0
0, 0
0, 0
0, 0
0, 0
0, 0
0, 0
0, 0
0, 0
0, 0
0, 0
0, 0
0, 0
0, 0
0, 0
0, 0
0, 0
0, 0
0, 0
0, 0
0, 0
0, 0
0, 0
0, 0
0, 0
0, 0
0, 0
0, 0
0, 0
0, 0
0, 0
0, 0
0, 0
0, 0
0, 0
0, 0
0, 0
0, 0
0, 0
0, 0
0, 0
0, 0
0, 0
0, 0
0, 0
0, 0
0, 0
0, 0
0, 0
0, 0
0, 0
0, 0
0, 0
0, 0
0, 0
0, 0
0, 0
0, 0
0, 0
0, 0
0, 0
0, 0
0, 0
0, 0
0, 0
0, 0
0, 0
0, 0
0, 0
0, 0
0, 0
0, 0
0, 0
0, 0
0, 0
0, 0
0, 0
0, 0
0, 0
0, 0
0, 0
0, 0
0, 0
0, 0
0, 0
0, 0
0, 0
0, 0
0, 0
0, 0
0, 0
0, 0
0, 0
0, 0
0, 0
0, 0
0, 0
0, 0
0, 0
0, 0
0, 0
0, 0
0, 0
0, 0
0, 0
0, 0
0, 0
0, 0
0, 0
0, 0
0, 0
0, 0
0, 0
0, 0
0, 0
0, 0
0, 0
0, 0
0, 0
0, 0
0, 0
0, 0
0, 0
0, 0
0, 0
0, 0
0, 0
0, 0
0, 0
0, 0
0, 0
0, 0
0, 0
0, 0
0, 0
0, 0
0, 0
0, 0
0, 0
0, 0
0, 0
0, 0
0, 0
0, 0
0, 0
0, 0
0, 0
0, 0
0, 0
0, 0
0, 0
0, 0
0, 0
0, 0
0, 0
0, 0
0, 0
0, 0
0, 0
0, 0
0, 0
0, 0
0, 0
0, 0
0, 0
0, 0
0, 0
0, 0
0, 0
0, 0
0, 0
0, 0
0, 0
0, 0
0, 0
0, 0
0, 0
0, 0
0, 0
0, 0
0, 0
0, 0
0, 0
0, 0
0, 0
0, 0
0, 0
0, 0
0, 0
0, 0
0, 0
0, 0
0, 0
0, 0
0, 0
0, 0
0, 0
0, 0
0, 0
0, 0
0, 0
0, 0
0, 0
0, 0
0, 0
0, 0
0, 0
0, 0
0, 0
0, 0
0, 0
0, 0
0, 0
0, 0
0, 0
0, 0
0, 0
0, 0
0, 0
0, 0
0, 0
0, 0
0, 0
0, 0
0, 0
0, 0
0, 0
0, 0
0, 0
0, 0
0, 0
0, 0
0, 0
0, 0
0, 0
0, 0
0, 0
0, 0
0, 0
0, 0
0, 0
0, 0
0, 0
0, 0
0, 0
0, 0
0, 0
0, 0
0, 0
0, 0
0, 0
0, 0
0, 0
0, 0
0, 0
0, 0
0, 0
0, 0
0, 0
0, 0
0, 0
0, 0
0, 0
0, 0
0, 0
0, 0
0, 0
0, 0
0, 0
0, 0
0, 0
0, 0
0, 0
0, 0
0, 0
0, 0
0, 0
0, 0
0, 0
0, 0
0, 0
0, 0
0, 0
0, 0
0, 0
0, 0
0, 0
0, 0
0, 0
0, 0
0, 0
0, 0
0, 0
0, 0
0, 0
0, 0
0, 0
0, 0
0, 0
0, 0
0, 0
0, 0
0, 0
0, 0
#ENDOFDATA     end of spectrum data