File: host_upload/02-11-2024/rqc/uplink1/ps__0567_0717304816_000rfs_shot_403.msa
#FORMAT      : EMSA/MAS spectral data file
#VERSION     : TC202v2.0 PIXL
#TITLE       : Novarupta (sol567) subset1
#DATE        : 02-11-2024      Date in the format DD-MMM-YYYY, for example 07-JUL-2010
#TIME        :             The time of day at which the spectrum was recorded, in 24-hour format
#OWNER       : PIXL Flight Model       (PIXL will use this to indicate which instrument took the data.)
#NPOINTS     : 4096     Number of data points in the spectrum (This can be zero for configuration only files)
#NCOLUMNS    : 2     Number of data columns in the spectrum (This can be zero for configuration only files)
#XUNITS      : eV
#YUNITS      : COUNTS
#DATATYPE    : YY
#XPERCHAN    : 7.862, 7.881   eV per channel (separate by commas if more than one detector)
#OFFSET      : 18.5, -22.4         eV of first channel  (separate by commas if more than one detector
#SIGNALTYPE  : XRF
#YP_TEMP     : 1.818
#LIVETIME    : 8.81907, 8.62656   seconds (separate by commas if more than one detector)
#REALTIME    : 10, 10.0   seconds (separate by commas if more than one detector)
#SPECTRUM    : start of spectrum data
0, 0
0, 0
0, 0
0, 0
0, 0
0, 0
0, 0
0, 0
0, 0
0, 0
0, 0
0, 0
0, 0
0, 0
0, 0
0, 0
0, 0
0, 0
0, 0
0, 0
0, 0
0, 0
0, 0
0, 0
0, 0
0, 0
0, 0
0, 0
0, 0
1, 0
0, 0
0, 0
1, 0
3, 0
3, 1
4, 2
2, 3
2, 3
1, 5
1, 0
4, 5
5, 0
6, 5
3, 2
5, 5
5, 1
1, 0
3, 2
1, 2
3, 4
6, 6
11, 5
11, 5
8, 17
18, 24
9, 16
8, 12
10, 8
11, 9
9, 17
29, 22
27, 30
47, 36
47, 43
59, 46
52, 33
47, 45
45, 36
45, 43
62, 67
121, 117
213, 209
327, 305
471, 418
503, 515
514, 476
435, 448
358, 349
239, 222
175, 132
85, 78
48, 30
38, 33
33, 24
46, 31
25, 31
43, 34
40, 26
37, 25
27, 14
16, 8
23, 19
23, 30
55, 34
77, 95
122, 143
203, 184
251, 268
312, 311
319, 320
289, 287
223, 213
173, 136
113, 93
84, 75
51, 55
62, 58
62, 72
100, 103
134, 135
164, 203
229, 221
209, 243
250, 257
220, 230
181, 186
150, 124
114, 108
121, 99
92, 88
78, 90
78, 67
60, 67
56, 66
41, 43
46, 33
29, 28
24, 32
15, 15
14, 18
9, 16
3, 4
9, 7
8, 12
9, 7
2, 10
3, 7
10, 14
23, 24
23, 32
20, 27
37, 29
33, 27
31, 29
18, 13
13, 15
17, 10
14, 15
11, 18
18, 14
26, 30
49, 56
87, 73
135, 160
222, 259
300, 295
347, 361
360, 401
384, 378
340, 296
219, 207
169, 155
131, 109
57, 70
45, 36
33, 29
23, 27
30, 31
46, 49
52, 57
48, 57
75, 76
43, 58
48, 43
36, 40
22, 22
16, 18
14, 21
15, 8
9, 8
7, 12
6, 9
10, 13
20, 4
12, 10
9, 11
16, 17
19, 22
28, 43
43, 45
60, 58
52, 68
60, 76
73, 64
56, 59
51, 48
35, 28
37, 23
30, 14
22, 16
11, 13
12, 18
13, 11
7, 13
17, 10
14, 24
11, 10
17, 16
19, 25
18, 24
24, 19
19, 24
20, 15
19, 13
12, 14
14, 9
19, 9
13, 8
14, 12
5, 12
10, 6
10, 9
14, 16
18, 11
17, 16
10, 15
20, 16
26, 22
34, 32
40, 29
35, 28
29, 39
25, 27
27, 19
26, 15
11, 32
18, 15
14, 10
11, 11
4, 11
4, 17
15, 15
17, 19
12, 19
22, 12
24, 20
20, 38
24, 28
32, 42
61, 48
51, 56
66, 55
46, 56
52, 37
41, 26
40, 19
22, 25
16, 20
12, 22
22, 29
19, 16
26, 40
45, 53
71, 93
103, 131
225, 254
357, 462
629, 696
942, 1017
1185, 1411
1541, 1560
1774, 1752
1870, 1870
1780, 1710
1610, 1518
1269, 1127
997, 853
630, 555
425, 276
263, 172
146, 102
65, 56
53, 29
28, 16
20, 16
16, 24
15, 19
15, 18
19, 20
21, 18
26, 20
39, 31
49, 40
56, 62
80, 109
133, 151
154, 192
227, 228
272, 277
301, 276
270, 268
276, 229
209, 208
168, 148
158, 106
97, 90
62, 52
37, 36
30, 23
17, 11
7, 10
12, 8
11, 7
9, 11
11, 5
13, 14
8, 15
18, 13
11, 10
15, 10
13, 7
8, 9
10, 7
13, 6
6, 7
5, 4
5, 3
10, 4
7, 6
4, 10
8, 7
11, 7
5, 6
5, 5
8, 5
6, 5
1, 9
4, 5
12, 4
3, 6
8, 9
9, 5
8, 6
9, 7
3, 5
7, 9
8, 1
8, 7
11, 9
13, 9
7, 7
10, 5
4, 3
8, 9
6, 12
8, 6
6, 8
4, 8
6, 5
5, 3
6, 11
6, 5
13, 12
9, 8
9, 11
13, 10
17, 11
9, 11
18, 11
13, 7
6, 5
6, 9
11, 9
6, 4
6, 6
1, 8
1, 4
3, 9
11, 6
4, 6
5, 7
8, 6
6, 4
9, 8
5, 3
5, 8
5, 6
2, 3
7, 7
7, 5
4, 5
5, 5
4, 1
4, 5
4, 7
6, 3
4, 7
13, 5
9, 9
4, 4
6, 3
5, 4
7, 3
7, 4
6, 3
4, 4
10, 2
6, 1
6, 3
5, 4
7, 3
6, 4
10, 10
1, 5
6, 8
3, 4
5, 4
4, 7
7, 8
6, 7
4, 4
4, 5
5, 5
2, 6
4, 6
6, 5
5, 2
5, 3
2, 6
5, 7
7, 7
4, 5
7, 3
7, 6
5, 5
3, 3
6, 5
3, 1
1, 3
3, 4
3, 9
5, 3
2, 6
1, 4
2, 2
7, 5
3, 5
5, 5
8, 3
2, 4
3, 5
4, 3
2, 4
6, 2
2, 2
5, 4
2, 4
5, 2
4, 4
3, 1
9, 3
2, 6
4, 4
1, 2
1, 1
4, 2
3, 4
2, 3
0, 1
2, 1
1, 2
2, 3
3, 2
1, 2
4, 3
2, 0
3, 3
2, 3
2, 5
1, 5
1, 4
2, 2
4, 3
3, 4
7, 2
2, 2
4, 4
2, 4
6, 2
2, 6
7, 2
3, 3
1, 4
7, 4
2, 2
2, 3
8, 0
1, 3
1, 5
1, 3
3, 1
3, 6
4, 5
2, 5
0, 4
2, 1
1, 5
3, 5
2, 4
0, 4
1, 2
2, 1
1, 4
0, 4
1, 1
3, 2
2, 3
2, 3
3, 2
3, 1
0, 3
5, 0
0, 2
5, 0
4, 0
1, 4
0, 0
2, 4
4, 3
0, 2
1, 1
2, 2
1, 1
0, 1
0, 2
3, 3
2, 1
5, 2
1, 3
3, 1
3, 3
3, 2
3, 2
0, 4
3, 3
2, 4
2, 2
0, 2
3, 2
1, 4
1, 1
4, 1
1, 1
4, 1
1, 1
4, 2
0, 3
1, 1
2, 0
1, 1
2, 0
0, 3
2, 2
1, 5
3, 0
2, 1
1, 1
1, 3
3, 2
2, 2
0, 0
2, 2
2, 2
1, 6
2, 0
0, 2
2, 0
0, 2
1, 1
1, 3
0, 1
2, 2
1, 2
1, 1
1, 2
2, 2
2, 4
0, 1
3, 1
0, 3
1, 1
2, 0
1, 2
0, 0
0, 0
0, 1
1, 1
4, 0
1, 1
0, 0
2, 0
2, 0
1, 0
5, 2
0, 1
0, 0
1, 1
2, 1
1, 0
0, 0
0, 2
3, 2
0, 1
1, 0
0, 2
2, 1
2, 0
0, 1
0, 0
0, 2
2, 0
1, 3
1, 0
0, 1
1, 2
3, 0
1, 0
2, 0
1, 0
0, 1
0, 0
0, 1
1, 0
1, 1
1, 1
0, 0
0, 0
1, 2
0, 0
0, 3
1, 1
2, 0
1, 1
2, 1
0, 4
0, 0
1, 0
0, 0
0, 2
0, 1
0, 2
1, 1
1, 0
1, 1
1, 0
0, 1
0, 3
1, 0
0, 0
1, 0
0, 4
1, 2
0, 0
0, 0
0, 0
0, 1
1, 0
0, 1
0, 1
1, 0
1, 0
3, 0
0, 0
1, 0
2, 0
0, 0
1, 0
0, 0
1, 3
0, 0
0, 0
0, 0
2, 0
0, 0
0, 1
0, 0
1, 0
1, 1
0, 0
1, 0
0, 1
1, 0
0, 0
0, 1
0, 1
0, 2
0, 1
0, 0
0, 0
1, 0
0, 0
1, 2
0, 0
0, 0
0, 0
0, 1
0, 1
1, 0
0, 0
1, 0
0, 0
0, 2
1, 1
0, 0
0, 0
0, 1
0, 0
0, 0
0, 0
1, 0
0, 0
0, 0
0, 1
0, 0
0, 1
1, 1
1, 0
0, 0
0, 1
0, 1
0, 0
1, 0
0, 2
0, 1
0, 1
0, 0
0, 0
1, 0
1, 0
0, 0
0, 0
0, 0
0, 0
0, 0
1, 1
0, 0
0, 0
1, 0
0, 1
0, 0
0, 0
0, 1
0, 0
0, 0
0, 0
0, 1
0, 0
0, 0
1, 0
0, 0
0, 0
0, 1
0, 0
0, 1
0, 0
0, 0
0, 0
1, 0
0, 0
1, 0
1, 0
1, 0
0, 1
0, 0
1, 1
1, 0
0, 0
0, 0
0, 0
0, 0
0, 0
0, 0
0, 1
0, 0
0, 0
0, 0
0, 0
0, 0
1, 1
0, 0
0, 0
2, 0
0, 0
1, 0
1, 0
0, 2
0, 0
0, 0
0, 0
0, 0
0, 0
0, 0
0, 1
0, 0
0, 0
0, 0
0, 0
0, 0
0, 0
1, 0
0, 0
0, 0
0, 2
0, 1
0, 0
0, 1
0, 1
0, 0
0, 0
0, 0
1, 0
0, 0
1, 0
0, 0
0, 0
0, 0
1, 0
1, 0
0, 0
0, 0
0, 1
0, 0
0, 1
0, 0
2, 0
0, 0
0, 1
0, 0
0, 0
0, 0
0, 0
1, 1
0, 0
0, 1
0, 0
0, 0
0, 1
0, 0
0, 1
0, 0
0, 0
0, 0
0, 0
0, 0
0, 0
0, 0
0, 0
0, 0
0, 0
0, 0
0, 0
0, 0
0, 0
0, 0
0, 0
0, 0
0, 1
0, 0
0, 0
0, 0
0, 0
0, 0
0, 0
0, 0
0, 0
0, 0
0, 0
0, 0
0, 0
0, 0
0, 0
0, 0
0, 0
1, 0
0, 0
0, 0
0, 0
0, 0
0, 0
0, 0
0, 0
0, 0
0, 0
0, 1
0, 0
0, 0
0, 0
0, 0
0, 0
0, 0
0, 0
0, 0
0, 0
0, 0
0, 0
0, 1
0, 0
0, 1
0, 0
0, 0
0, 1
0, 0
0, 0
0, 0
0, 0
0, 1
0, 0
0, 1
0, 0
0, 0
0, 0
1, 0
0, 0
0, 0
0, 0
0, 0
0, 0
0, 0
0, 0
0, 0
0, 0
0, 0
0, 0
0, 0
0, 0
0, 0
0, 0
0, 0
0, 0
0, 0
0, 0
0, 0
0, 0
0, 0
0, 0
0, 0
0, 0
0, 0
0, 0
0, 0
0, 0
0, 0
0, 0
0, 0
0, 0
0, 0
0, 0
1, 0
0, 0
0, 0
0, 0
0, 0
0, 0
0, 0
0, 0
0, 0
0, 0
0, 0
0, 0
0, 0
0, 0
0, 0
0, 0
0, 0
0, 0
0, 0
0, 0
0, 0
0, 0
0, 0
0, 0
0, 0
0, 0
0, 0
0, 0
0, 0
0, 0
0, 0
0, 0
0, 0
0, 0
0, 0
0, 0
0, 0
0, 0
0, 0
0, 0
0, 0
0, 0
0, 0
0, 0
0, 0
0, 0
0, 0
0, 0
0, 0
0, 0
0, 0
0, 0
0, 1
0, 0
0, 0
0, 0
0, 0
0, 0
0, 0
0, 0
0, 0
0, 0
0, 0
0, 0
0, 0
0, 0
0, 0
0, 0
0, 0
0, 0
0, 0
0, 0
0, 0
0, 0
0, 0
0, 0
0, 0
0, 0
0, 0
0, 0
0, 0
0, 0
0, 0
0, 0
0, 0
0, 0
0, 0
0, 0
0, 0
0, 0
0, 0
0, 0
0, 0
0, 0
0, 0
0, 0
0, 0
0, 0
0, 0
0, 0
0, 0
0, 0
0, 0
0, 0
0, 0
0, 0
0, 0
0, 0
0, 0
0, 0
0, 0
0, 0
0, 0
0, 0
0, 0
0, 0
0, 0
0, 0
0, 0
0, 0
0, 0
0, 0
0, 0
0, 0
0, 0
0, 0
0, 0
0, 0
0, 0
0, 0
0, 0
0, 0
0, 0
0, 0
0, 0
0, 0
0, 0
0, 0
0, 0
0, 0
0, 0
0, 0
0, 0
0, 0
0, 0
0, 0
0, 0
0, 0
0, 0
0, 0
0, 0
0, 0
0, 0
0, 0
0, 0
0, 0
0, 0
0, 0
0, 0
0, 0
0, 0
0, 0
0, 0
0, 0
0, 0
0, 0
0, 0
0, 0
0, 0
0, 0
0, 0
0, 0
0, 0
0, 0
0, 0
0, 0
0, 0
0, 0
0, 0
0, 0
0, 0
0, 0
0, 0
0, 0
0, 0
0, 0
0, 0
0, 0
0, 0
0, 0
0, 0
0, 0
0, 0
0, 0
0, 0
0, 0
0, 0
0, 0
0, 0
0, 0
0, 0
0, 0
0, 0
0, 0
0, 0
0, 0
0, 0
0, 0
0, 0
0, 0
0, 0
0, 0
0, 0
0, 0
0, 0
0, 0
0, 0
0, 0
0, 0
0, 0
0, 0
0, 0
0, 0
0, 0
0, 0
0, 0
0, 0
0, 0
0, 0
0, 0
0, 0
0, 0
0, 0
0, 0
0, 0
0, 0
0, 0
0, 0
0, 0
0, 0
0, 0
0, 0
0, 0
0, 0
0, 0
0, 0
0, 0
0, 0
0, 0
0, 0
0, 0
0, 0
0, 0
0, 0
0, 0
0, 0
0, 0
0, 0
0, 0
0, 0
0, 0
0, 0
0, 0
0, 0
0, 0
0, 0
0, 0
0, 0
0, 0
0, 0
0, 0
0, 0
0, 0
0, 0
0, 0
0, 0
0, 0
0, 0
0, 0
0, 0
0, 0
0, 0
0, 0
0, 0
0, 0
0, 0
0, 0
0, 0
0, 0
0, 0
0, 0
0, 0
0, 0
0, 0
0, 0
0, 0
0, 0
0, 0
0, 0
0, 0
0, 0
0, 0
0, 0
0, 0
0, 0
0, 0
0, 0
0, 0
0, 0
0, 0
0, 0
0, 0
0, 0
0, 0
0, 0
0, 0
0, 0
0, 0
0, 0
0, 0
0, 0
0, 0
0, 0
0, 0
0, 0
0, 0
0, 0
0, 0
0, 0
0, 0
0, 0
0, 0
0, 0
0, 0
0, 0
0, 0
0, 0
0, 0
0, 0
0, 0
0, 0
0, 0
0, 0
0, 0
0, 0
0, 0
0, 0
0, 0
0, 0
0, 0
0, 0
0, 0
0, 0
0, 0
0, 0
0, 0
0, 0
0, 0
0, 0
0, 0
0, 0
0, 0
0, 0
0, 0
0, 0
0, 0
0, 0
0, 0
0, 0
0, 0
0, 0
0, 0
0, 0
0, 0
0, 0
0, 0
0, 0
0, 0
0, 0
0, 0
0, 0
0, 0
0, 0
0, 0
0, 0
0, 0
0, 0
0, 0
0, 0
0, 0
0, 0
0, 0
0, 0
0, 0
0, 0
0, 0
0, 0
0, 0
0, 0
0, 0
0, 0
0, 0
0, 0
0, 0
0, 0
0, 0
0, 0
0, 0
0, 0
#ENDOFDATA     end of spectrum data