File: host_upload/02-11-2024/rqc/uplink1/ps__0567_0717304816_000rfs_shot_360.msa
#FORMAT      : EMSA/MAS spectral data file
#VERSION     : TC202v2.0 PIXL
#TITLE       : Novarupta (sol567) subset1
#DATE        : 02-11-2024      Date in the format DD-MMM-YYYY, for example 07-JUL-2010
#TIME        :             The time of day at which the spectrum was recorded, in 24-hour format
#OWNER       : PIXL Flight Model       (PIXL will use this to indicate which instrument took the data.)
#NPOINTS     : 4096     Number of data points in the spectrum (This can be zero for configuration only files)
#NCOLUMNS    : 2     Number of data columns in the spectrum (This can be zero for configuration only files)
#XUNITS      : eV
#YUNITS      : COUNTS
#DATATYPE    : YY
#XPERCHAN    : 7.862, 7.881   eV per channel (separate by commas if more than one detector)
#OFFSET      : 18.5, -22.4         eV of first channel  (separate by commas if more than one detector
#SIGNALTYPE  : XRF
#YP_TEMP     : 1.594
#LIVETIME    : 8.82209, 8.82346   seconds (separate by commas if more than one detector)
#REALTIME    : 10, 10.0   seconds (separate by commas if more than one detector)
#SPECTRUM    : start of spectrum data
0, 0
0, 0
0, 0
0, 0
0, 0
0, 0
0, 0
0, 0
0, 0
0, 0
0, 0
0, 0
0, 0
0, 0
0, 0
0, 0
0, 0
0, 0
0, 0
0, 0
0, 0
0, 0
0, 0
0, 0
0, 0
0, 0
0, 0
0, 0
0, 0
0, 0
0, 0
0, 0
0, 0
0, 2
0, 1
2, 0
2, 4
3, 2
5, 2
5, 4
2, 5
9, 11
3, 3
1, 5
1, 1
5, 9
2, 5
3, 4
2, 2
3, 6
6, 4
14, 16
13, 12
15, 18
22, 14
11, 16
14, 13
12, 7
8, 6
10, 21
18, 20
26, 23
34, 35
44, 43
44, 55
45, 47
47, 44
27, 29
33, 40
64, 59
117, 121
174, 211
286, 309
415, 409
509, 473
516, 464
449, 449
364, 365
216, 227
145, 135
91, 69
59, 37
31, 29
41, 30
40, 21
38, 29
26, 26
33, 33
38, 25
25, 21
26, 23
24, 15
25, 25
51, 64
89, 110
168, 148
281, 260
325, 296
401, 403
374, 372
344, 342
308, 272
214, 179
134, 98
97, 88
85, 50
64, 66
76, 84
98, 76
133, 118
180, 176
225, 213
232, 236
229, 226
214, 194
164, 168
172, 137
98, 97
72, 105
97, 86
90, 80
64, 68
69, 72
66, 62
57, 39
32, 37
38, 30
25, 21
22, 16
15, 16
14, 9
10, 9
0, 7
7, 6
11, 5
8, 10
9, 12
12, 18
17, 23
25, 29
27, 30
40, 34
39, 26
18, 38
24, 11
17, 17
6, 15
8, 5
11, 12
15, 16
27, 33
68, 48
92, 93
143, 152
233, 222
296, 343
328, 363
396, 379
396, 339
329, 309
257, 251
149, 134
119, 89
48, 58
40, 35
36, 22
25, 24
31, 44
41, 35
56, 44
50, 54
65, 50
57, 44
45, 40
38, 34
22, 35
14, 21
15, 11
7, 10
5, 6
7, 10
9, 6
8, 8
12, 11
10, 10
11, 14
16, 19
21, 21
28, 31
45, 43
48, 44
60, 74
65, 58
58, 74
55, 50
51, 39
35, 34
37, 19
34, 23
13, 15
18, 16
15, 16
12, 7
13, 14
11, 21
16, 12
12, 14
11, 23
19, 22
14, 19
13, 26
17, 17
22, 16
17, 13
19, 14
9, 13
9, 14
12, 8
15, 12
9, 13
8, 10
8, 9
8, 8
12, 11
9, 13
15, 22
24, 17
26, 20
25, 25
37, 42
31, 40
37, 34
23, 15
33, 32
18, 26
25, 22
9, 16
11, 17
19, 18
10, 6
10, 15
13, 8
13, 8
14, 18
10, 20
23, 27
23, 28
34, 31
31, 36
44, 61
55, 55
45, 41
70, 42
39, 40
40, 35
37, 31
21, 29
26, 21
19, 23
23, 14
25, 24
37, 25
43, 49
70, 59
137, 147
212, 275
393, 481
637, 705
929, 1050
1253, 1319
1486, 1588
1731, 1891
1854, 1867
1781, 1714
1540, 1411
1321, 1144
907, 780
702, 535
411, 311
238, 176
128, 102
95, 56
29, 27
27, 17
25, 19
11, 16
11, 14
16, 10
12, 16
25, 27
29, 26
26, 32
45, 52
70, 71
95, 101
140, 136
176, 174
212, 249
237, 286
293, 295
295, 265
267, 265
234, 209
190, 170
121, 117
100, 76
72, 48
37, 36
27, 18
20, 12
13, 10
8, 12
8, 6
6, 10
9, 11
9, 12
16, 16
14, 15
11, 15
7, 12
15, 11
14, 14
13, 6
12, 12
6, 2
10, 6
5, 7
7, 7
4, 6
7, 6
5, 8
5, 10
9, 5
5, 7
8, 6
4, 9
9, 3
5, 7
5, 7
4, 5
9, 9
7, 9
8, 3
6, 7
6, 15
11, 5
7, 9
8, 5
5, 5
8, 9
7, 7
8, 8
10, 4
10, 7
11, 6
8, 6
9, 9
6, 6
13, 11
6, 8
3, 7
11, 11
5, 13
4, 4
4, 17
23, 12
13, 5
16, 10
15, 11
12, 9
12, 9
10, 9
7, 7
8, 5
6, 7
6, 6
5, 1
5, 4
7, 4
4, 7
5, 5
7, 4
4, 2
2, 1
3, 6
0, 8
5, 12
5, 7
4, 2
3, 4
3, 2
7, 3
5, 3
6, 5
5, 5
2, 8
5, 7
6, 2
4, 5
6, 5
3, 7
5, 9
9, 7
9, 5
5, 8
5, 6
4, 7
6, 5
3, 6
2, 6
5, 6
4, 3
8, 2
3, 3
4, 4
3, 2
4, 2
6, 2
7, 5
4, 5
5, 3
3, 0
6, 3
6, 1
7, 5
2, 3
9, 4
2, 4
2, 2
3, 5
1, 0
4, 5
4, 1
7, 2
3, 3
5, 5
1, 1
2, 5
9, 2
2, 2
4, 1
1, 4
6, 4
2, 5
4, 3
1, 5
3, 4
2, 6
5, 5
2, 1
6, 1
1, 3
3, 8
3, 6
8, 7
1, 6
1, 5
4, 1
4, 4
2, 0
6, 3
3, 0
2, 4
2, 2
2, 2
1, 1
1, 4
5, 0
2, 2
2, 4
4, 3
3, 3
1, 3
4, 6
2, 2
7, 4
6, 1
5, 4
1, 6
3, 7
6, 1
2, 4
5, 5
4, 6
3, 1
3, 4
3, 2
3, 2
1, 0
3, 4
2, 6
1, 0
1, 5
2, 5
0, 1
3, 2
3, 4
1, 5
1, 5
3, 3
2, 5
0, 3
1, 3
1, 0
6, 4
1, 5
2, 1
2, 1
3, 7
5, 3
2, 3
3, 1
0, 3
4, 6
2, 2
1, 5
2, 3
3, 2
3, 1
0, 2
3, 3
3, 2
3, 2
4, 1
1, 2
3, 0
1, 1
2, 2
1, 0
2, 4
2, 0
4, 2
1, 1
3, 1
0, 5
6, 4
6, 1
2, 2
2, 1
5, 5
5, 1
4, 4
5, 3
2, 2
3, 2
3, 1
4, 4
3, 0
5, 1
1, 3
2, 3
0, 3
1, 1
1, 1
4, 3
3, 1
1, 0
1, 1
4, 4
1, 1
0, 1
2, 2
0, 0
1, 2
1, 2
1, 2
1, 3
3, 3
0, 3
0, 1
1, 0
1, 2
0, 3
2, 1
3, 2
1, 4
4, 2
1, 4
1, 2
3, 2
1, 1
3, 2
0, 0
4, 0
1, 1
3, 1
1, 2
4, 0
1, 0
0, 1
2, 0
1, 0
3, 0
5, 1
2, 0
2, 0
0, 1
0, 3
1, 2
1, 0
3, 1
2, 2
0, 1
0, 4
0, 0
0, 1
2, 1
1, 0
3, 0
1, 0
0, 0
2, 0
0, 1
3, 1
0, 1
1, 0
0, 2
0, 0
3, 1
0, 1
2, 1
0, 1
0, 0
1, 1
0, 1
2, 1
0, 0
3, 2
2, 1
1, 2
0, 1
0, 1
1, 1
1, 0
0, 1
1, 2
2, 1
0, 1
1, 2
0, 1
2, 0
1, 0
0, 1
0, 1
0, 0
1, 1
1, 0
1, 2
1, 2
0, 1
0, 0
1, 1
0, 0
2, 1
0, 0
0, 1
0, 0
0, 0
0, 0
1, 0
0, 0
0, 0
1, 0
0, 1
0, 2
0, 1
0, 0
0, 0
1, 2
1, 1
1, 1
0, 3
0, 0
0, 0
0, 0
0, 0
0, 3
0, 0
0, 0
0, 1
0, 0
0, 0
2, 0
1, 0
0, 1
1, 0
0, 0
1, 0
1, 0
0, 1
0, 0
0, 1
1, 0
0, 0
2, 0
3, 1
1, 1
0, 0
1, 0
0, 1
0, 0
1, 0
1, 0
0, 1
0, 1
0, 1
2, 0
0, 0
1, 1
0, 1
0, 1
0, 0
1, 1
0, 0
0, 0
0, 1
0, 1
0, 0
1, 0
1, 0
0, 1
0, 2
0, 0
0, 0
0, 0
1, 0
1, 1
0, 0
0, 0
0, 0
3, 0
0, 0
0, 0
2, 1
0, 0
0, 0
1, 0
0, 0
0, 0
0, 0
0, 0
0, 0
1, 0
0, 0
1, 0
2, 1
0, 1
0, 0
0, 0
0, 0
0, 0
0, 0
2, 0
0, 1
0, 0
0, 0
0, 0
0, 0
0, 0
0, 0
0, 0
0, 1
0, 1
1, 0
0, 0
0, 2
0, 0
0, 0
2, 0
0, 1
0, 0
0, 0
0, 0
0, 0
0, 0
0, 0
0, 0
0, 0
0, 0
0, 0
0, 1
0, 1
0, 0
1, 0
0, 1
0, 1
0, 0
0, 1
0, 1
0, 0
1, 0
0, 0
0, 1
0, 0
0, 0
0, 0
1, 0
0, 0
0, 0
0, 0
1, 1
1, 0
0, 0
0, 1
1, 1
0, 0
0, 0
0, 0
1, 2
0, 0
0, 0
0, 1
0, 0
0, 1
0, 0
0, 1
1, 0
0, 0
0, 0
0, 0
1, 0
0, 0
0, 0
1, 0
0, 0
0, 0
0, 0
0, 0
0, 0
0, 0
0, 0
0, 0
0, 0
0, 0
0, 0
1, 0
0, 0
0, 0
0, 0
0, 0
0, 0
1, 2
0, 0
1, 1
0, 0
0, 0
0, 0
0, 0
0, 1
0, 0
1, 0
0, 1
0, 0
0, 0
0, 0
0, 0
0, 0
1, 0
0, 0
0, 0
0, 0
1, 0
0, 0
0, 0
0, 0
0, 0
1, 1
0, 0
0, 0
0, 0
0, 0
0, 0
0, 0
2, 0
0, 0
0, 0
0, 0
0, 0
0, 1
0, 0
0, 0
0, 0
0, 1
0, 0
0, 0
2, 0
0, 0
1, 0
0, 0
0, 0
0, 0
0, 0
0, 0
1, 0
0, 0
0, 0
0, 0
0, 0
0, 0
0, 0
0, 0
0, 0
0, 0
0, 0
0, 0
0, 0
0, 0
0, 0
0, 0
0, 0
0, 0
0, 1
0, 1
1, 0
0, 0
0, 0
0, 1
0, 0
0, 0
0, 0
0, 0
0, 0
0, 0
0, 0
0, 0
0, 0
0, 0
0, 0
0, 0
0, 0
0, 0
0, 0
0, 0
0, 0
0, 0
0, 0
0, 0
0, 0
0, 0
1, 0
0, 0
0, 0
0, 1
0, 0
0, 0
0, 0
0, 0
0, 0
0, 0
0, 0
0, 0
0, 0
0, 0
0, 1
0, 0
0, 0
0, 0
0, 0
0, 0
0, 0
0, 0
0, 0
0, 1
0, 0
0, 0
0, 0
0, 0
0, 0
0, 0
0, 0
0, 0
0, 1
0, 0
0, 0
0, 0
0, 0
0, 0
0, 0
0, 0
0, 0
0, 0
0, 0
0, 0
0, 0
0, 0
0, 0
0, 0
0, 0
0, 0
0, 0
0, 0
0, 0
0, 0
0, 0
0, 0
0, 0
0, 0
0, 0
0, 0
0, 0
0, 0
0, 0
0, 0
0, 0
0, 0
0, 0
1, 0
0, 0
0, 0
0, 0
0, 0
0, 0
0, 0
0, 0
0, 0
0, 0
0, 0
0, 0
0, 0
0, 0
0, 0
0, 0
0, 0
0, 0
0, 0
0, 0
0, 0
0, 0
0, 0
0, 0
0, 0
0, 0
0, 0
0, 0
0, 0
0, 0
0, 0
0, 0
0, 0
0, 0
0, 0
0, 0
0, 0
0, 0
0, 1
0, 0
0, 0
0, 0
0, 0
0, 0
0, 0
0, 0
0, 0
0, 0
0, 0
0, 0
1, 0
0, 0
0, 0
0, 0
0, 0
0, 0
0, 0
0, 0
0, 0
0, 0
0, 0
0, 0
0, 0
0, 0
0, 0
0, 0
0, 0
0, 0
0, 0
0, 0
0, 0
0, 0
0, 0
0, 0
0, 0
0, 0
0, 0
0, 0
0, 0
0, 0
0, 0
0, 0
0, 0
0, 0
0, 0
0, 0
0, 0
0, 0
0, 0
0, 0
0, 0
0, 0
0, 0
0, 0
0, 0
0, 0
0, 0
0, 0
0, 0
0, 0
0, 0
0, 0
0, 0
0, 0
0, 0
0, 0
0, 0
0, 0
0, 0
0, 0
0, 0
0, 0
0, 0
0, 0
0, 0
0, 0
0, 0
0, 0
0, 0
0, 0
0, 0
0, 0
0, 0
0, 0
0, 0
0, 0
0, 0
0, 0
0, 0
0, 0
0, 0
0, 0
0, 0
0, 0
0, 0
0, 0
0, 0
0, 0
0, 0
0, 0
0, 0
0, 0
0, 0
0, 0
0, 0
0, 0
0, 0
0, 0
0, 0
0, 0
0, 0
0, 0
0, 0
0, 0
0, 0
0, 0
0, 0
0, 0
0, 0
0, 0
0, 0
0, 0
0, 0
0, 0
0, 0
0, 0
0, 0
0, 0
0, 0
0, 0
0, 0
0, 0
0, 0
0, 0
0, 0
0, 0
0, 0
0, 0
0, 0
0, 0
0, 0
0, 0
0, 0
0, 0
0, 0
0, 0
0, 0
0, 0
0, 0
0, 0
0, 0
0, 0
0, 0
0, 0
0, 0
0, 0
0, 0
0, 0
0, 0
0, 0
0, 0
0, 0
0, 0
0, 0
0, 0
0, 0
0, 0
0, 0
0, 0
0, 0
0, 0
0, 0
0, 0
0, 0
0, 0
0, 0
0, 0
0, 0
0, 0
0, 0
0, 0
0, 0
0, 0
0, 0
0, 0
0, 0
0, 0
0, 0
0, 0
0, 0
0, 0
0, 0
0, 0
0, 0
0, 0
0, 0
0, 0
0, 0
0, 0
0, 0
0, 0
0, 0
0, 0
0, 0
0, 0
0, 0
0, 0
0, 0
0, 0
0, 0
0, 0
0, 0
0, 0
0, 0
0, 0
0, 0
0, 0
0, 0
0, 0
0, 0
0, 0
0, 0
0, 0
0, 0
0, 0
0, 0
0, 0
0, 0
0, 0
0, 0
0, 0
0, 0
0, 0
0, 0
0, 0
0, 0
0, 0
0, 0
0, 0
0, 0
0, 0
0, 0
0, 0
0, 0
0, 0
0, 0
0, 0
0, 0
0, 0
0, 0
0, 0
0, 0
0, 0
0, 0
0, 0
0, 0
0, 0
0, 0
0, 0
0, 0
0, 0
0, 0
0, 0
0, 0
0, 0
0, 0
0, 0
0, 0
0, 0
0, 0
0, 0
0, 0
0, 0
0, 0
0, 0
0, 0
0, 0
0, 0
0, 0
0, 0
0, 0
0, 0
0, 0
0, 0
0, 0
0, 0
0, 0
0, 0
0, 0
0, 0
0, 0
0, 0
0, 0
0, 0
0, 0
0, 0
0, 0
0, 0
0, 0
0, 0
0, 0
0, 0
0, 0
0, 0
0, 0
0, 0
0, 0
0, 0
0, 0
0, 0
0, 0
0, 0
0, 0
0, 0
0, 0
0, 0
0, 0
0, 0
0, 0
0, 0
#ENDOFDATA     end of spectrum data