File: host_upload/02-11-2024/rqc/uplink1/ps__0567_0717304816_000rfs_shot_471.msa
#FORMAT      : EMSA/MAS spectral data file
#VERSION     : TC202v2.0 PIXL
#TITLE       : Novarupta (sol567) subset1
#DATE        : 02-11-2024      Date in the format DD-MMM-YYYY, for example 07-JUL-2010
#TIME        :             The time of day at which the spectrum was recorded, in 24-hour format
#OWNER       : PIXL Flight Model       (PIXL will use this to indicate which instrument took the data.)
#NPOINTS     : 4096     Number of data points in the spectrum (This can be zero for configuration only files)
#NCOLUMNS    : 2     Number of data columns in the spectrum (This can be zero for configuration only files)
#XUNITS      : eV
#YUNITS      : COUNTS
#DATATYPE    : YY
#XPERCHAN    : 7.862, 7.881   eV per channel (separate by commas if more than one detector)
#OFFSET      : 18.5, -22.4         eV of first channel  (separate by commas if more than one detector
#SIGNALTYPE  : XRF
#YP_TEMP     : 1.915
#LIVETIME    : 8.83659, 8.80857   seconds (separate by commas if more than one detector)
#REALTIME    : 10, 10.0   seconds (separate by commas if more than one detector)
#SPECTRUM    : start of spectrum data
0, 0
0, 0
0, 0
0, 0
0, 0
0, 0
0, 0
0, 0
0, 0
0, 0
0, 0
0, 0
0, 0
0, 0
0, 0
0, 0
0, 0
0, 0
0, 0
0, 0
0, 0
0, 0
0, 0
0, 0
0, 0
0, 0
0, 0
0, 0
0, 0
0, 0
0, 0
1, 0
1, 1
0, 0
0, 2
1, 1
1, 1
3, 5
1, 4
4, 5
1, 4
6, 4
7, 4
4, 4
1, 2
5, 2
1, 7
1, 6
5, 3
3, 4
3, 5
7, 8
12, 17
15, 12
19, 19
8, 19
16, 22
7, 10
7, 7
8, 14
19, 11
37, 33
37, 37
29, 54
53, 55
43, 50
41, 46
26, 46
38, 43
52, 52
109, 108
177, 187
279, 357
371, 427
479, 509
443, 531
399, 453
320, 354
228, 218
172, 145
71, 87
41, 63
34, 39
24, 31
27, 24
35, 38
29, 46
27, 43
18, 29
16, 27
18, 20
11, 14
23, 25
45, 50
69, 110
115, 139
175, 223
254, 283
277, 312
284, 315
270, 262
203, 234
166, 148
96, 97
62, 73
51, 63
51, 54
67, 72
86, 96
114, 168
180, 178
194, 210
226, 282
215, 258
184, 201
156, 189
132, 153
117, 112
90, 99
65, 80
71, 76
68, 77
69, 64
41, 55
35, 49
37, 42
25, 36
22, 32
18, 19
11, 24
13, 15
7, 7
10, 6
8, 5
6, 13
4, 8
8, 10
10, 14
16, 22
20, 21
22, 30
24, 16
24, 30
25, 32
27, 26
18, 23
14, 8
4, 10
11, 7
14, 12
17, 33
31, 58
92, 88
113, 169
179, 248
259, 375
305, 416
331, 433
349, 397
293, 324
213, 233
160, 183
104, 114
61, 68
23, 48
18, 18
23, 31
20, 32
37, 54
39, 59
55, 57
56, 79
57, 52
52, 57
45, 34
25, 25
13, 24
14, 18
15, 3
9, 8
8, 8
10, 7
6, 14
15, 11
14, 13
14, 13
15, 19
18, 32
30, 30
31, 56
55, 50
51, 62
47, 70
52, 69
56, 44
50, 44
45, 38
28, 27
29, 29
11, 24
14, 13
20, 22
10, 14
9, 15
12, 18
10, 25
14, 14
12, 20
18, 15
27, 13
21, 12
23, 14
23, 18
14, 13
10, 16
16, 18
15, 11
6, 11
4, 13
9, 9
6, 14
10, 8
13, 14
10, 10
15, 16
15, 18
17, 19
20, 18
19, 26
34, 23
35, 24
31, 31
25, 26
20, 22
18, 21
14, 20
9, 11
18, 13
11, 11
12, 14
8, 14
9, 14
16, 17
14, 20
22, 21
18, 20
21, 32
28, 33
32, 43
48, 59
57, 71
43, 58
48, 42
39, 58
35, 39
33, 35
19, 22
21, 27
12, 19
13, 24
19, 22
22, 31
38, 45
58, 84
112, 143
198, 276
311, 461
533, 759
799, 1079
1151, 1450
1353, 1731
1624, 1902
1710, 1956
1543, 1850
1542, 1521
1141, 1250
848, 847
569, 562
375, 331
204, 200
126, 118
72, 66
50, 33
24, 22
17, 18
21, 15
14, 20
13, 15
17, 25
18, 19
31, 20
30, 25
35, 46
62, 64
85, 127
131, 125
160, 214
206, 245
221, 288
270, 293
255, 301
258, 298
232, 206
185, 174
134, 119
103, 81
57, 66
35, 28
31, 21
16, 10
6, 6
12, 7
8, 10
7, 7
7, 14
11, 14
13, 10
14, 15
14, 6
17, 16
12, 10
11, 8
8, 5
10, 6
8, 9
4, 5
5, 3
6, 4
3, 8
5, 5
6, 6
8, 8
8, 9
4, 6
8, 6
8, 12
7, 10
6, 10
3, 8
2, 8
5, 10
9, 13
7, 9
7, 9
8, 15
7, 7
10, 10
8, 8
6, 9
7, 13
8, 5
9, 9
10, 9
7, 3
7, 10
9, 11
5, 7
4, 3
6, 3
5, 8
3, 8
10, 14
12, 10
8, 13
11, 15
9, 7
18, 12
8, 10
11, 11
7, 10
8, 6
4, 10
8, 8
7, 7
7, 2
7, 5
7, 7
4, 6
7, 5
6, 4
8, 4
5, 5
4, 5
5, 4
7, 4
4, 4
5, 5
7, 7
5, 6
5, 2
6, 7
5, 10
4, 6
5, 7
5, 6
5, 9
5, 8
2, 5
4, 1
1, 6
3, 2
2, 3
9, 5
6, 5
4, 6
2, 2
7, 7
6, 5
6, 4
6, 10
1, 6
1, 4
4, 8
6, 3
4, 6
5, 9
3, 4
3, 0
5, 4
5, 3
6, 4
5, 7
4, 3
4, 4
7, 8
3, 0
5, 2
4, 2
4, 6
9, 4
2, 1
3, 6
3, 5
3, 2
2, 1
4, 3
6, 3
5, 7
2, 2
5, 6
3, 8
1, 3
5, 5
4, 6
1, 5
1, 5
4, 5
4, 5
2, 6
1, 5
3, 2
2, 4
1, 6
4, 1
3, 4
3, 1
5, 4
1, 4
0, 4
2, 2
3, 4
4, 4
1, 2
0, 4
4, 1
1, 2
3, 3
2, 4
4, 2
1, 4
1, 1
3, 3
2, 3
2, 5
1, 5
6, 4
5, 6
5, 2
1, 1
2, 1
3, 2
1, 3
5, 1
3, 2
2, 5
2, 3
3, 3
2, 1
4, 2
3, 1
4, 6
2, 3
2, 4
2, 2
2, 0
5, 2
0, 4
2, 1
1, 2
3, 3
1, 3
1, 4
0, 8
2, 3
2, 2
5, 4
2, 2
4, 0
4, 2
6, 4
1, 2
1, 2
3, 1
3, 2
2, 0
3, 3
2, 1
3, 1
0, 1
3, 4
2, 0
2, 1
4, 0
1, 3
4, 0
2, 1
3, 0
2, 1
1, 3
0, 6
1, 1
0, 4
2, 3
3, 2
1, 1
6, 3
1, 6
1, 3
3, 1
1, 1
0, 4
3, 4
2, 5
2, 6
3, 4
0, 3
2, 3
1, 3
2, 3
1, 2
0, 2
4, 3
2, 0
4, 4
2, 3
1, 1
2, 1
0, 1
2, 1
0, 2
3, 3
0, 2
1, 4
1, 3
1, 1
2, 2
2, 2
2, 0
0, 3
0, 1
1, 4
0, 2
0, 1
1, 2
4, 1
2, 2
1, 1
2, 1
3, 1
1, 2
0, 4
2, 2
1, 2
1, 2
1, 3
1, 0
0, 3
1, 1
2, 1
0, 2
2, 0
4, 1
0, 2
1, 3
2, 2
3, 2
4, 2
2, 1
0, 1
1, 3
0, 0
1, 1
1, 0
1, 2
2, 1
2, 2
1, 1
1, 0
0, 2
2, 1
0, 2
0, 1
0, 1
0, 1
1, 1
0, 2
1, 2
0, 3
0, 0
0, 0
1, 1
1, 1
2, 2
1, 1
0, 2
1, 2
1, 1
1, 2
1, 1
2, 2
0, 1
2, 0
0, 1
0, 1
2, 0
2, 0
0, 1
0, 2
2, 0
0, 0
1, 1
0, 1
1, 0
2, 1
0, 1
0, 2
0, 2
0, 1
1, 1
0, 2
1, 0
0, 1
2, 1
0, 1
0, 1
1, 1
0, 0
1, 1
0, 2
1, 1
0, 0
1, 1
0, 0
2, 0
1, 0
1, 2
0, 0
0, 0
1, 0
1, 2
1, 0
0, 0
0, 0
0, 1
1, 1
1, 1
1, 0
0, 0
1, 1
0, 0
1, 0
0, 1
0, 0
1, 0
0, 0
2, 1
1, 0
0, 2
0, 1
0, 1
3, 0
0, 0
1, 0
1, 0
1, 0
0, 0
0, 0
0, 0
1, 0
0, 0
0, 1
0, 0
1, 1
1, 0
1, 1
0, 0
0, 1
0, 0
0, 1
0, 0
0, 0
0, 0
0, 2
1, 0
1, 0
1, 0
1, 1
1, 1
1, 3
1, 0
1, 0
0, 0
1, 0
0, 1
0, 0
0, 0
0, 1
0, 0
2, 1
1, 0
1, 0
0, 0
2, 1
0, 0
1, 0
0, 0
0, 1
0, 0
0, 0
0, 0
0, 0
1, 0
1, 3
0, 0
2, 0
0, 0
0, 0
0, 1
1, 1
0, 0
0, 0
1, 0
1, 0
0, 1
1, 0
0, 0
0, 0
0, 0
0, 1
0, 0
0, 0
0, 0
0, 0
0, 0
1, 1
1, 0
1, 0
0, 0
0, 0
1, 2
1, 0
0, 0
1, 0
1, 0
0, 0
0, 0
0, 0
0, 0
1, 0
2, 0
0, 1
1, 0
0, 0
1, 0
1, 0
0, 0
0, 0
0, 1
0, 1
0, 0
0, 0
0, 0
1, 0
0, 0
0, 1
0, 0
0, 2
0, 0
1, 0
0, 0
0, 0
0, 1
1, 0
0, 1
0, 0
1, 1
0, 0
1, 0
0, 0
0, 0
0, 0
0, 0
1, 0
0, 0
0, 0
0, 0
0, 1
0, 0
0, 1
0, 0
0, 1
1, 0
0, 0
0, 0
1, 2
2, 2
0, 0
0, 0
0, 0
0, 0
0, 0
0, 0
0, 0
1, 0
0, 0
0, 0
0, 0
0, 0
0, 0
0, 0
0, 0
0, 0
0, 0
0, 0
0, 0
0, 0
0, 0
0, 0
0, 0
0, 0
0, 2
0, 0
1, 0
0, 0
0, 0
0, 0
0, 0
0, 0
1, 0
1, 0
0, 0
0, 0
1, 0
0, 0
0, 0
0, 0
0, 0
1, 0
0, 0
0, 0
0, 0
0, 0
0, 0
0, 0
0, 0
0, 0
0, 0
0, 0
0, 0
0, 0
0, 0
1, 0
0, 0
0, 0
0, 0
0, 0
0, 0
0, 0
0, 0
0, 0
0, 0
0, 0
0, 0
0, 0
0, 1
0, 0
0, 1
0, 0
0, 0
0, 0
0, 0
0, 0
0, 0
1, 0
0, 0
0, 0
0, 0
0, 0
0, 0
0, 0
0, 0
0, 0
0, 0
0, 0
0, 0
0, 0
0, 0
0, 0
0, 0
0, 0
0, 0
0, 0
0, 0
0, 0
0, 0
0, 0
0, 0
0, 0
0, 0
0, 0
0, 0
0, 0
0, 0
0, 0
0, 0
0, 0
0, 0
0, 0
0, 0
0, 0
0, 0
0, 0
0, 0
0, 0
0, 0
0, 0
0, 0
0, 1
0, 0
0, 0
0, 0
0, 0
0, 0
0, 0
0, 0
0, 0
0, 0
0, 0
0, 0
0, 0
0, 0
0, 0
0, 0
0, 0
0, 0
0, 0
0, 0
0, 0
0, 0
0, 0
0, 0
0, 0
0, 0
0, 0
0, 0
0, 0
0, 0
0, 0
0, 0
0, 0
0, 0
0, 0
0, 0
0, 0
0, 0
0, 0
0, 0
0, 0
0, 0
0, 0
0, 0
0, 0
0, 0
0, 0
0, 0
0, 0
0, 0
0, 0
0, 0
0, 0
0, 0
0, 0
0, 0
0, 0
0, 0
0, 0
0, 0
0, 0
0, 1
0, 0
0, 0
0, 0
0, 0
0, 0
0, 0
0, 0
0, 0
0, 0
0, 0
0, 0
0, 0
0, 0
0, 0
0, 0
0, 0
0, 0
0, 0
0, 0
0, 0
0, 0
0, 0
0, 0
0, 0
0, 0
0, 0
0, 0
0, 0
0, 0
0, 0
0, 0
0, 0
0, 0
0, 0
0, 0
0, 0
0, 0
0, 0
0, 0
0, 0
0, 0
0, 0
0, 0
0, 0
0, 0
0, 0
0, 0
0, 0
0, 0
0, 0
0, 0
0, 0
0, 0
0, 0
0, 0
0, 0
0, 0
0, 0
0, 0
0, 0
0, 0
0, 0
0, 0
0, 0
0, 0
0, 0
0, 0
0, 0
0, 0
0, 0
0, 0
0, 0
0, 0
0, 0
0, 0
0, 0
0, 0
0, 0
0, 0
0, 0
0, 0
0, 0
0, 0
0, 0
0, 0
0, 0
0, 0
0, 0
0, 0
0, 0
0, 0
0, 0
0, 0
0, 0
0, 0
0, 0
0, 0
0, 0
0, 0
0, 0
0, 0
0, 0
0, 0
0, 0
0, 0
0, 0
0, 0
0, 0
0, 0
0, 0
0, 0
0, 0
0, 0
0, 0
0, 0
0, 0
0, 0
0, 0
0, 0
0, 0
0, 0
0, 0
0, 0
0, 0
0, 0
0, 0
0, 0
0, 0
0, 0
0, 0
0, 0
0, 0
0, 0
0, 0
0, 0
0, 0
0, 0
0, 0
0, 0
0, 0
0, 0
0, 0
0, 0
0, 0
0, 0
0, 0
0, 0
0, 0
0, 0
0, 0
0, 0
0, 0
0, 0
0, 0
0, 0
0, 0
0, 0
0, 0
0, 0
0, 0
0, 0
0, 0
0, 0
0, 0
0, 0
0, 0
0, 0
0, 0
0, 0
0, 0
0, 0
0, 0
0, 0
0, 0
0, 0
0, 0
0, 0
0, 0
0, 0
0, 0
0, 0
0, 0
0, 0
0, 0
0, 0
0, 0
0, 0
0, 0
0, 0
0, 0
0, 0
0, 0
0, 0
0, 0
0, 0
0, 0
0, 0
0, 0
0, 0
0, 0
0, 0
0, 0
0, 0
0, 0
0, 0
0, 0
0, 0
0, 0
0, 0
0, 0
0, 0
0, 0
0, 0
0, 0
0, 0
0, 0
0, 0
0, 0
0, 0
0, 0
0, 0
0, 0
0, 0
0, 0
0, 0
0, 0
0, 0
0, 0
0, 0
0, 0
0, 0
0, 0
0, 0
0, 0
0, 0
0, 0
0, 0
0, 0
0, 0
0, 0
0, 0
0, 0
0, 0
0, 0
0, 0
0, 0
0, 0
0, 0
0, 0
0, 0
0, 0
0, 0
0, 0
0, 0
0, 0
0, 0
0, 0
0, 0
0, 0
0, 0
0, 0
0, 0
0, 0
0, 0
0, 0
0, 0
0, 0
0, 0
0, 0
0, 0
0, 0
0, 0
0, 0
0, 0
0, 0
0, 0
0, 0
0, 0
0, 0
0, 0
0, 0
0, 0
0, 0
0, 0
0, 0
0, 0
0, 0
0, 0
0, 0
0, 0
0, 0
0, 0
0, 0
0, 0
0, 0
0, 0
0, 0
0, 0
0, 0
0, 0
0, 0
0, 0
0, 0
0, 0
0, 0
0, 0
0, 0
0, 0
0, 0
0, 0
0, 0
0, 0
0, 0
0, 0
0, 0
0, 0
0, 0
0, 0
0, 0
0, 0
0, 0
0, 0
0, 0
0, 0
0, 0
0, 0
0, 0
0, 0
0, 0
0, 0
0, 0
0, 0
0, 0
0, 0
0, 0
0, 0
0, 0
0, 0
0, 0
0, 0
0, 0
0, 0
0, 0
0, 0
0, 0
0, 0
0, 0
0, 0
0, 0
0, 0
0, 0
0, 0
0, 0
0, 0
0, 0
0, 0
0, 0
#ENDOFDATA     end of spectrum data