File: host_upload/02-11-2024/rqc/uplink1/ps__0567_0717304816_000rfs_shot_144.msa
#FORMAT      : EMSA/MAS spectral data file
#VERSION     : TC202v2.0 PIXL
#TITLE       : Novarupta (sol567) subset1
#DATE        : 02-11-2024      Date in the format DD-MMM-YYYY, for example 07-JUL-2010
#TIME        :             The time of day at which the spectrum was recorded, in 24-hour format
#OWNER       : PIXL Flight Model       (PIXL will use this to indicate which instrument took the data.)
#NPOINTS     : 4096     Number of data points in the spectrum (This can be zero for configuration only files)
#NCOLUMNS    : 2     Number of data columns in the spectrum (This can be zero for configuration only files)
#XUNITS      : eV
#YUNITS      : COUNTS
#DATATYPE    : YY
#XPERCHAN    : 7.862, 7.881   eV per channel (separate by commas if more than one detector)
#OFFSET      : 18.5, -22.4         eV of first channel  (separate by commas if more than one detector
#SIGNALTYPE  : XRF
#YP_TEMP     : 0.022
#LIVETIME    : 8.82856, 8.82613   seconds (separate by commas if more than one detector)
#REALTIME    : 10, 10.0   seconds (separate by commas if more than one detector)
#SPECTRUM    : start of spectrum data
0, 0
0, 0
0, 0
0, 0
0, 0
0, 0
0, 0
0, 0
0, 0
0, 0
0, 0
0, 0
0, 0
0, 0
0, 0
0, 0
0, 0
0, 0
0, 0
0, 0
0, 0
0, 0
0, 0
0, 0
0, 0
0, 0
0, 0
0, 0
0, 0
0, 0
0, 0
1, 0
0, 0
0, 0
1, 0
3, 1
2, 1
2, 3
5, 6
7, 4
3, 8
6, 1
5, 3
5, 4
2, 3
3, 6
3, 1
1, 5
2, 1
4, 3
5, 8
7, 8
14, 13
13, 19
16, 12
15, 14
12, 17
11, 11
12, 11
16, 10
19, 24
26, 27
39, 44
41, 58
48, 46
64, 45
29, 48
33, 38
42, 44
54, 83
93, 125
195, 220
291, 330
398, 482
480, 520
447, 519
387, 436
334, 307
221, 207
147, 142
81, 73
55, 41
36, 21
35, 30
41, 28
30, 37
38, 35
36, 39
27, 19
13, 28
20, 20
18, 17
28, 34
42, 44
104, 88
155, 157
185, 226
248, 292
295, 324
304, 319
263, 277
228, 200
157, 151
96, 95
81, 79
47, 60
59, 63
84, 75
102, 117
123, 157
189, 210
220, 273
244, 270
245, 270
211, 210
184, 171
142, 121
85, 108
103, 81
85, 104
73, 87
66, 69
56, 73
46, 55
44, 46
31, 40
38, 23
21, 28
21, 19
21, 14
8, 11
7, 6
9, 5
5, 8
9, 3
10, 5
10, 9
12, 20
17, 24
31, 27
29, 31
35, 26
35, 35
25, 30
14, 13
8, 16
17, 25
11, 13
10, 7
15, 26
17, 26
49, 81
74, 114
137, 190
217, 279
267, 333
305, 388
342, 420
362, 369
304, 300
238, 235
162, 167
115, 92
58, 40
34, 40
31, 22
19, 32
27, 38
43, 46
52, 67
58, 58
63, 78
47, 52
37, 53
35, 33
37, 20
18, 21
11, 14
3, 13
8, 8
6, 9
6, 15
13, 12
8, 9
8, 10
12, 12
22, 24
28, 29
37, 46
47, 43
49, 70
44, 56
54, 75
49, 62
66, 47
47, 46
33, 20
25, 28
28, 24
23, 17
16, 13
14, 10
12, 16
11, 15
7, 10
11, 17
8, 14
15, 23
24, 13
21, 19
18, 19
23, 27
19, 16
12, 17
8, 15
8, 11
8, 12
12, 6
8, 5
11, 11
5, 8
11, 14
10, 10
19, 9
12, 21
14, 16
24, 13
24, 25
29, 32
27, 23
34, 31
34, 30
23, 24
34, 25
23, 27
18, 23
11, 12
9, 12
11, 13
9, 16
17, 9
23, 18
14, 22
12, 13
13, 21
19, 28
22, 34
25, 34
25, 34
53, 44
46, 56
49, 48
44, 50
43, 32
26, 42
21, 25
16, 21
20, 32
15, 18
11, 19
17, 34
20, 35
49, 61
78, 86
123, 164
217, 283
388, 471
644, 866
861, 1096
1163, 1432
1527, 1719
1665, 1850
1704, 1824
1612, 1733
1371, 1385
1147, 1058
790, 709
574, 502
351, 273
182, 185
95, 83
67, 38
32, 30
17, 24
17, 25
16, 12
18, 10
15, 20
12, 18
14, 19
23, 28
27, 31
36, 53
63, 80
86, 120
106, 156
143, 218
210, 238
227, 267
252, 303
271, 284
227, 255
200, 180
167, 144
126, 107
77, 81
57, 55
36, 30
21, 21
16, 8
6, 10
11, 6
9, 7
4, 14
10, 9
15, 12
9, 13
7, 10
8, 15
13, 11
9, 7
3, 14
7, 8
13, 9
10, 11
5, 5
6, 3
6, 5
8, 3
3, 4
5, 5
8, 8
2, 5
7, 6
7, 9
10, 5
4, 6
7, 11
7, 4
8, 5
8, 9
2, 8
9, 5
11, 7
8, 10
4, 5
4, 7
7, 9
7, 10
5, 7
7, 12
8, 9
9, 10
4, 6
5, 5
9, 6
8, 2
11, 9
4, 8
5, 9
5, 12
5, 8
5, 18
8, 12
12, 14
9, 12
9, 8
15, 18
11, 16
12, 9
11, 8
7, 11
8, 9
11, 5
9, 6
8, 5
3, 3
6, 10
5, 7
5, 3
7, 8
6, 2
4, 7
5, 4
8, 7
9, 7
3, 4
9, 6
6, 5
7, 5
6, 4
2, 8
5, 3
7, 7
4, 9
7, 8
1, 5
4, 7
5, 8
4, 7
4, 9
6, 3
1, 8
4, 4
7, 6
5, 6
4, 4
7, 6
2, 6
2, 6
7, 5
2, 8
2, 4
3, 8
3, 3
3, 4
4, 4
4, 4
3, 3
3, 9
6, 6
3, 6
6, 4
3, 4
2, 3
5, 5
2, 4
2, 6
3, 1
4, 5
1, 5
2, 4
3, 3
4, 4
7, 9
5, 5
3, 4
4, 3
5, 3
3, 6
6, 3
4, 4
2, 3
2, 3
2, 3
7, 6
3, 3
4, 2
4, 0
1, 0
3, 2
1, 3
4, 3
2, 1
4, 4
2, 3
5, 1
4, 3
6, 2
3, 4
2, 4
5, 1
3, 6
2, 3
2, 3
2, 5
3, 2
5, 4
2, 4
3, 1
4, 0
1, 0
2, 9
3, 2
4, 4
3, 2
2, 4
2, 3
2, 5
1, 2
0, 0
2, 2
1, 2
5, 1
2, 2
1, 1
4, 3
0, 1
3, 1
1, 6
0, 1
1, 2
2, 1
3, 3
2, 3
3, 3
3, 1
1, 4
1, 2
3, 0
0, 6
2, 3
0, 2
2, 1
1, 4
1, 2
4, 0
5, 1
1, 1
5, 5
4, 3
6, 2
3, 0
2, 2
2, 1
2, 1
3, 3
1, 1
6, 1
2, 2
1, 2
3, 3
3, 3
4, 1
0, 3
2, 0
2, 3
0, 0
2, 6
1, 2
1, 3
2, 1
1, 1
6, 1
3, 3
4, 5
0, 0
3, 3
4, 2
4, 2
1, 1
2, 1
1, 1
3, 3
1, 3
4, 1
5, 0
3, 2
1, 2
1, 4
3, 2
2, 3
1, 2
3, 1
1, 0
0, 0
0, 1
0, 4
1, 1
2, 0
0, 1
1, 0
2, 4
1, 5
1, 3
1, 2
2, 2
3, 2
3, 1
1, 0
0, 3
0, 1
0, 2
1, 2
2, 1
0, 4
1, 4
0, 3
1, 3
1, 2
1, 0
1, 0
1, 1
0, 2
1, 2
1, 1
3, 1
2, 0
2, 0
0, 1
1, 3
0, 1
2, 1
0, 2
0, 0
0, 1
0, 1
0, 0
1, 3
1, 0
1, 2
2, 1
1, 0
0, 2
2, 1
4, 0
1, 0
0, 1
1, 0
1, 1
0, 0
1, 0
0, 0
1, 0
0, 0
0, 1
2, 1
0, 0
1, 2
0, 3
0, 0
1, 0
1, 0
1, 1
0, 1
0, 1
0, 2
0, 2
1, 1
1, 2
0, 0
2, 0
0, 1
1, 2
1, 1
1, 0
2, 2
0, 3
2, 2
0, 0
0, 1
0, 1
1, 0
1, 0
1, 0
0, 0
2, 4
1, 1
0, 0
0, 0
0, 2
0, 0
1, 0
1, 2
0, 1
0, 1
1, 1
2, 1
2, 1
0, 1
0, 3
0, 0
0, 0
0, 1
1, 0
0, 1
0, 1
1, 0
0, 2
1, 0
0, 1
0, 0
1, 0
0, 1
0, 1
2, 0
2, 0
0, 0
0, 1
0, 0
1, 0
1, 1
0, 1
0, 0
2, 1
0, 0
0, 1
0, 1
2, 0
0, 0
1, 0
0, 0
0, 0
0, 1
0, 2
0, 1
1, 0
0, 0
1, 1
0, 1
1, 0
1, 1
0, 0
0, 0
0, 0
0, 2
0, 0
0, 0
0, 0
0, 0
0, 0
0, 1
0, 0
0, 0
1, 0
0, 0
1, 0
2, 0
0, 0
0, 0
0, 0
0, 0
0, 0
0, 0
1, 0
0, 0
0, 0
0, 1
0, 0
0, 2
0, 0
0, 0
0, 0
0, 0
0, 0
1, 0
2, 0
0, 0
0, 0
0, 1
2, 0
0, 0
1, 0
0, 0
1, 0
0, 0
0, 1
0, 0
0, 0
0, 0
0, 1
0, 0
1, 1
0, 0
1, 0
0, 0
0, 0
0, 0
0, 0
0, 0
0, 0
0, 0
0, 0
1, 0
0, 1
0, 0
1, 0
0, 1
0, 0
1, 0
0, 1
0, 0
0, 1
1, 1
0, 1
0, 0
0, 0
0, 0
2, 0
0, 0
2, 2
0, 0
0, 0
0, 0
0, 0
0, 0
0, 0
1, 0
0, 0
0, 0
0, 0
0, 0
0, 0
0, 2
1, 0
1, 0
1, 0
0, 0
0, 0
0, 0
0, 0
1, 1
0, 0
1, 0
0, 0
0, 0
0, 0
0, 0
0, 0
0, 0
1, 1
0, 0
0, 0
1, 0
0, 0
0, 0
0, 0
0, 0
0, 1
0, 1
0, 1
0, 0
0, 0
0, 2
0, 0
0, 0
1, 0
1, 0
0, 0
0, 1
0, 0
0, 0
0, 0
0, 0
0, 0
0, 0
0, 0
0, 0
1, 0
0, 0
0, 0
1, 0
1, 0
0, 0
0, 0
0, 0
0, 0
0, 0
0, 0
0, 0
0, 0
1, 1
2, 0
0, 0
0, 0
0, 0
1, 0
1, 0
0, 0
0, 0
0, 1
0, 0
0, 0
1, 0
0, 0
0, 0
0, 0
0, 0
0, 0
0, 0
0, 0
0, 0
0, 0
0, 0
0, 0
1, 0
0, 0
0, 0
0, 0
0, 0
0, 0
0, 0
0, 0
0, 0
0, 0
0, 0
0, 0
0, 0
0, 0
0, 0
0, 0
0, 0
1, 0
0, 0
0, 1
0, 0
0, 0
0, 0
0, 0
0, 0
0, 0
0, 0
0, 0
0, 0
0, 0
0, 0
0, 0
0, 0
0, 0
0, 0
0, 0
0, 0
0, 0
0, 0
0, 0
1, 0
0, 0
0, 0
0, 0
0, 0
0, 0
1, 0
0, 0
0, 0
0, 0
0, 0
0, 0
0, 0
0, 0
0, 0
0, 0
0, 0
0, 0
0, 0
0, 0
0, 0
0, 0
0, 0
0, 0
0, 0
0, 0
0, 0
0, 0
0, 0
0, 0
0, 0
0, 0
0, 0
0, 0
0, 0
0, 0
0, 0
0, 0
0, 0
0, 0
0, 1
0, 0
0, 0
0, 0
0, 0
0, 0
0, 0
0, 0
0, 0
0, 0
0, 0
0, 0
0, 0
0, 0
0, 0
0, 0
0, 0
0, 0
0, 0
0, 0
0, 0
0, 0
0, 0
0, 0
0, 0
0, 0
0, 0
0, 0
0, 0
0, 0
0, 0
1, 0
0, 0
0, 0
0, 0
0, 0
0, 0
0, 0
0, 0
0, 0
0, 0
0, 0
0, 1
0, 0
0, 0
0, 0
0, 0
0, 0
1, 0
0, 0
0, 0
0, 0
0, 0
0, 0
0, 0
0, 0
0, 0
0, 0
0, 0
0, 0
0, 0
0, 0
0, 0
0, 0
0, 0
0, 0
0, 0
1, 0
0, 0
0, 0
0, 0
0, 0
0, 0
0, 0
0, 0
0, 0
0, 0
0, 0
0, 0
0, 0
0, 0
0, 0
0, 0
0, 0
0, 0
0, 0
0, 0
0, 0
0, 0
0, 0
0, 0
0, 0
0, 0
0, 0
0, 0
0, 0
0, 0
0, 0
0, 0
0, 0
0, 0
0, 0
0, 0
0, 0
0, 0
0, 0
0, 0
0, 0
0, 0
0, 0
0, 0
0, 0
0, 0
0, 0
0, 0
0, 0
0, 0
0, 0
0, 0
0, 0
0, 0
0, 0
0, 0
0, 0
0, 0
0, 0
0, 0
0, 0
0, 0
0, 0
0, 0
0, 0
0, 0
0, 0
0, 0
0, 0
0, 0
0, 0
0, 0
0, 0
0, 0
0, 0
0, 0
1, 0
0, 0
0, 0
0, 0
0, 0
0, 0
0, 0
0, 0
0, 0
0, 0
0, 0
0, 0
0, 0
0, 0
0, 0
0, 0
0, 0
0, 0
0, 0
0, 0
0, 0
0, 0
0, 0
0, 0
0, 0
0, 0
0, 0
0, 0
0, 0
0, 0
0, 0
0, 0
0, 0
0, 0
0, 0
0, 0
0, 0
0, 0
0, 0
0, 0
0, 0
0, 0
0, 0
0, 0
0, 0
0, 0
0, 0
0, 0
0, 0
0, 0
0, 0
0, 0
0, 0
0, 0
0, 0
0, 0
0, 0
0, 0
0, 0
0, 0
0, 0
0, 0
0, 0
0, 0
0, 0
0, 0
0, 0
0, 0
0, 0
0, 0
0, 0
0, 0
0, 0
0, 0
0, 0
0, 0
0, 0
0, 0
0, 0
0, 0
0, 0
0, 0
0, 0
0, 0
0, 0
0, 0
0, 0
0, 0
0, 0
0, 0
0, 0
0, 0
0, 0
0, 0
0, 0
0, 0
0, 0
0, 0
0, 0
0, 0
0, 0
0, 0
0, 0
0, 0
0, 0
0, 0
0, 0
0, 0
0, 0
0, 0
0, 0
0, 0
0, 0
0, 0
0, 0
0, 0
0, 0
0, 0
0, 0
0, 0
0, 0
0, 0
0, 0
0, 0
0, 0
0, 0
0, 0
0, 0
0, 0
0, 0
0, 0
0, 0
0, 0
0, 0
0, 0
0, 0
0, 0
0, 0
0, 0
0, 0
0, 0
0, 0
0, 0
0, 0
0, 0
0, 0
0, 0
0, 0
0, 0
0, 0
0, 0
0, 0
0, 0
0, 0
0, 0
0, 0
0, 0
0, 0
0, 0
0, 0
0, 0
0, 0
0, 0
0, 0
0, 0
0, 0
0, 0
0, 0
0, 0
0, 0
0, 0
0, 0
0, 0
0, 0
0, 0
0, 0
0, 0
0, 0
0, 0
0, 0
0, 0
0, 0
0, 0
0, 0
0, 0
0, 0
0, 0
0, 0
0, 0
0, 0
0, 0
0, 0
0, 0
0, 0
0, 0
0, 0
0, 0
0, 0
0, 0
0, 0
0, 0
0, 0
0, 0
0, 0
0, 0
0, 0
0, 0
0, 0
0, 0
0, 0
0, 0
0, 0
0, 0
0, 0
0, 0
0, 0
0, 0
0, 0
0, 0
0, 0
0, 0
0, 0
0, 0
0, 0
0, 0
0, 0
0, 0
0, 0
0, 0
0, 0
0, 0
0, 0
0, 0
0, 0
0, 0
0, 0
0, 0
0, 0
0, 0
0, 0
0, 0
0, 0
0, 0
0, 0
0, 0
0, 0
0, 0
0, 0
0, 0
0, 0
0, 0
0, 0
0, 0
0, 0
0, 0
0, 0
0, 0
0, 0
0, 0
0, 0
0, 0
0, 0
0, 0
0, 0
0, 0
0, 0
0, 0
0, 0
#ENDOFDATA     end of spectrum data