File: host_upload/02-11-2024/rqc/uplink1/ps__0567_0717304816_000rfs_shot_386.msa
#FORMAT      : EMSA/MAS spectral data file
#VERSION     : TC202v2.0 PIXL
#TITLE       : Novarupta (sol567) subset1
#DATE        : 02-11-2024      Date in the format DD-MMM-YYYY, for example 07-JUL-2010
#TIME        :             The time of day at which the spectrum was recorded, in 24-hour format
#OWNER       : PIXL Flight Model       (PIXL will use this to indicate which instrument took the data.)
#NPOINTS     : 4096     Number of data points in the spectrum (This can be zero for configuration only files)
#NCOLUMNS    : 2     Number of data columns in the spectrum (This can be zero for configuration only files)
#XUNITS      : eV
#YUNITS      : COUNTS
#DATATYPE    : YY
#XPERCHAN    : 7.862, 7.881   eV per channel (separate by commas if more than one detector)
#OFFSET      : 18.5, -22.4         eV of first channel  (separate by commas if more than one detector
#SIGNALTYPE  : XRF
#YP_TEMP     : 1.658
#LIVETIME    : 8.82355, 8.64348   seconds (separate by commas if more than one detector)
#REALTIME    : 10, 10.0   seconds (separate by commas if more than one detector)
#SPECTRUM    : start of spectrum data
0, 0
0, 0
0, 0
0, 0
0, 0
0, 0
0, 0
0, 0
0, 0
0, 0
0, 0
0, 0
0, 0
0, 0
0, 0
0, 0
0, 0
0, 0
0, 0
0, 0
0, 0
0, 0
0, 0
0, 0
0, 0
0, 0
0, 0
0, 0
0, 0
0, 0
0, 0
0, 1
1, 0
0, 1
1, 1
3, 1
4, 0
2, 3
4, 2
8, 2
4, 2
5, 8
6, 7
3, 2
4, 3
4, 3
3, 7
3, 0
0, 4
5, 5
8, 6
9, 9
12, 12
8, 18
25, 18
19, 17
10, 16
8, 10
11, 13
9, 9
20, 20
18, 25
28, 43
59, 47
58, 48
44, 49
40, 47
41, 34
32, 42
58, 65
106, 130
178, 199
282, 316
377, 477
442, 493
486, 525
379, 491
347, 318
195, 203
156, 156
74, 76
43, 43
35, 24
33, 21
29, 38
27, 37
32, 39
37, 39
34, 24
28, 23
14, 18
21, 19
27, 27
35, 53
60, 95
142, 157
180, 217
269, 291
303, 327
354, 316
274, 315
213, 246
151, 155
97, 120
65, 71
61, 74
45, 63
55, 71
84, 102
123, 158
166, 194
205, 228
233, 256
209, 262
199, 225
174, 162
139, 125
115, 116
84, 92
95, 75
94, 100
78, 68
55, 69
67, 65
49, 45
38, 36
24, 34
21, 22
26, 14
17, 20
13, 13
9, 13
5, 6
6, 5
12, 5
9, 13
13, 19
12, 14
19, 21
14, 22
31, 32
32, 30
20, 37
23, 28
19, 22
16, 23
14, 15
15, 11
14, 10
19, 20
24, 33
44, 41
84, 81
143, 189
201, 222
291, 352
338, 372
365, 438
356, 380
274, 350
212, 230
172, 165
102, 109
71, 62
37, 33
21, 29
26, 27
30, 34
38, 58
46, 59
55, 54
59, 59
49, 49
48, 62
34, 36
21, 31
19, 20
10, 11
8, 9
6, 4
9, 8
3, 10
15, 8
10, 11
15, 11
17, 14
19, 24
21, 20
30, 49
28, 49
47, 46
56, 63
60, 75
54, 76
64, 52
43, 46
30, 39
24, 31
19, 16
13, 24
15, 17
17, 17
13, 16
5, 9
10, 14
13, 15
9, 13
8, 9
20, 19
15, 22
20, 26
15, 18
16, 15
16, 26
11, 12
15, 14
13, 7
21, 15
10, 12
8, 13
12, 15
14, 10
13, 22
12, 6
21, 17
14, 19
24, 15
24, 34
28, 22
26, 34
29, 32
28, 30
26, 28
27, 22
27, 18
20, 23
10, 9
11, 7
9, 13
17, 10
10, 19
14, 12
18, 16
12, 16
17, 15
16, 18
26, 34
31, 34
38, 45
31, 55
44, 53
36, 54
49, 39
40, 31
42, 44
29, 21
31, 30
25, 27
25, 16
20, 13
20, 15
25, 29
32, 51
63, 93
123, 160
157, 252
353, 450
576, 766
801, 1059
1125, 1391
1418, 1668
1582, 1785
1736, 1940
1614, 1792
1505, 1454
1223, 1184
839, 820
600, 563
337, 338
228, 192
137, 106
57, 42
42, 30
34, 26
25, 20
24, 16
7, 14
16, 17
19, 18
15, 23
18, 34
29, 40
40, 46
51, 60
91, 91
121, 138
157, 180
216, 231
233, 268
229, 287
267, 311
244, 267
221, 233
190, 174
128, 143
79, 89
57, 47
37, 27
34, 20
22, 15
8, 11
6, 11
7, 21
8, 12
5, 8
9, 9
13, 6
9, 13
11, 21
6, 7
5, 12
5, 10
12, 8
7, 6
9, 6
6, 5
7, 10
11, 4
4, 4
10, 4
2, 3
3, 6
4, 6
6, 7
4, 4
8, 3
5, 10
7, 4
6, 8
9, 11
7, 5
10, 5
2, 8
10, 6
3, 8
6, 8
10, 7
5, 10
8, 10
8, 8
4, 2
6, 5
4, 6
8, 5
7, 5
9, 7
6, 5
4, 9
10, 2
6, 10
3, 8
7, 9
9, 8
11, 8
11, 11
7, 8
8, 13
14, 8
12, 10
13, 13
9, 7
9, 9
8, 12
6, 4
7, 8
6, 4
4, 8
5, 3
2, 4
4, 11
6, 3
8, 4
5, 7
6, 6
3, 11
4, 11
3, 3
2, 6
8, 2
2, 2
8, 6
3, 2
6, 6
9, 8
2, 5
5, 3
4, 8
8, 3
6, 5
5, 8
1, 7
10, 4
4, 9
12, 7
8, 6
4, 1
2, 3
3, 3
5, 8
3, 4
2, 6
6, 7
3, 4
4, 4
6, 4
4, 2
9, 4
4, 3
2, 3
2, 9
5, 3
6, 3
6, 2
8, 3
5, 7
5, 6
5, 3
8, 5
1, 6
7, 7
4, 11
4, 7
2, 2
6, 8
3, 6
0, 2
6, 4
1, 5
6, 3
3, 4
6, 3
1, 1
6, 1
2, 1
3, 6
2, 4
4, 2
2, 4
5, 2
2, 2
2, 5
4, 4
4, 1
3, 5
4, 2
2, 7
3, 4
7, 4
4, 4
2, 2
4, 2
3, 5
4, 4
4, 1
3, 7
3, 5
2, 5
1, 1
5, 4
2, 2
3, 3
1, 3
1, 2
2, 2
3, 0
4, 1
3, 2
5, 4
2, 5
3, 1
2, 3
2, 5
3, 4
4, 2
0, 4
4, 1
2, 4
4, 2
0, 4
4, 5
4, 4
3, 2
2, 0
2, 4
2, 3
3, 4
1, 2
2, 2
1, 4
2, 4
1, 0
2, 3
0, 5
1, 4
2, 2
4, 0
1, 4
2, 0
4, 6
1, 2
3, 2
4, 2
1, 5
2, 5
0, 4
2, 2
1, 2
0, 2
2, 2
2, 4
2, 4
2, 1
3, 2
1, 7
2, 3
0, 1
1, 2
1, 2
0, 3
4, 2
2, 4
3, 3
3, 6
1, 2
1, 0
3, 2
2, 4
2, 3
1, 3
4, 4
1, 4
5, 6
1, 6
5, 1
7, 3
0, 4
2, 2
3, 3
2, 0
3, 2
1, 4
1, 2
3, 3
1, 4
2, 3
2, 1
0, 4
2, 4
1, 1
3, 2
4, 0
2, 2
1, 1
2, 2
5, 2
0, 2
2, 5
0, 1
1, 1
2, 2
0, 4
0, 1
4, 3
1, 2
1, 1
3, 0
2, 1
1, 0
2, 4
0, 4
2, 2
4, 1
2, 0
0, 1
1, 1
0, 0
2, 0
2, 1
1, 1
3, 1
1, 1
1, 1
1, 1
0, 1
0, 0
0, 1
1, 1
0, 0
2, 1
0, 0
0, 1
1, 1
2, 1
0, 1
1, 0
0, 1
0, 0
2, 1
0, 0
0, 4
1, 1
0, 0
0, 1
3, 0
2, 0
0, 2
0, 1
1, 1
0, 1
1, 1
1, 0
2, 0
1, 5
2, 1
1, 1
2, 2
3, 0
0, 4
0, 1
0, 0
0, 0
0, 4
2, 1
0, 1
0, 2
0, 0
1, 0
0, 1
1, 0
1, 0
0, 0
1, 2
0, 1
0, 1
0, 1
1, 0
0, 1
0, 2
1, 0
0, 2
1, 0
1, 1
0, 3
0, 2
0, 0
0, 0
1, 1
0, 1
0, 0
1, 0
0, 0
1, 1
1, 2
1, 0
1, 2
1, 2
2, 0
1, 1
0, 0
3, 1
0, 0
0, 0
1, 0
1, 1
1, 1
1, 0
0, 0
1, 0
1, 0
1, 0
1, 0
0, 0
1, 0
0, 0
0, 1
0, 0
0, 2
1, 1
0, 0
0, 0
0, 1
2, 0
0, 1
0, 0
1, 0
0, 0
0, 1
1, 0
1, 0
0, 0
0, 3
0, 0
0, 0
0, 0
0, 2
0, 0
0, 1
0, 0
0, 0
0, 0
1, 1
0, 0
0, 0
0, 1
0, 0
0, 1
1, 3
0, 0
2, 0
0, 1
0, 0
1, 1
0, 0
0, 1
0, 0
1, 0
0, 1
1, 1
1, 0
0, 2
0, 0
1, 1
0, 0
1, 0
0, 0
0, 0
0, 0
0, 0
0, 1
0, 0
0, 0
0, 0
0, 0
0, 0
0, 0
0, 0
1, 0
0, 0
0, 1
0, 0
0, 1
0, 0
1, 0
0, 0
0, 0
0, 0
0, 0
1, 0
1, 2
0, 0
1, 0
0, 0
0, 0
0, 0
1, 0
0, 1
0, 0
0, 0
0, 1
1, 0
0, 0
0, 1
1, 0
0, 0
1, 0
1, 0
1, 0
0, 0
1, 0
1, 1
0, 0
0, 0
0, 0
0, 0
0, 1
1, 1
0, 1
0, 1
0, 1
0, 1
0, 0
1, 1
0, 0
0, 0
0, 1
1, 0
0, 0
0, 0
0, 0
0, 0
0, 0
0, 0
0, 0
0, 0
0, 0
1, 0
0, 0
0, 1
1, 0
0, 1
0, 0
1, 0
1, 0
1, 0
0, 0
0, 0
0, 1
0, 1
0, 0
0, 0
1, 0
0, 0
0, 0
0, 0
1, 0
0, 0
0, 0
0, 0
0, 0
0, 0
0, 0
0, 0
0, 0
0, 1
1, 0
0, 0
0, 0
0, 0
0, 0
1, 0
0, 0
1, 0
0, 0
0, 0
0, 0
0, 0
0, 0
1, 0
0, 0
0, 0
2, 0
0, 0
0, 1
0, 0
0, 0
0, 0
0, 0
0, 0
0, 0
0, 0
0, 0
0, 0
0, 0
0, 0
0, 0
0, 0
0, 0
0, 0
0, 2
0, 0
0, 0
0, 0
0, 0
0, 0
0, 0
0, 0
0, 0
0, 0
0, 0
0, 0
0, 0
0, 0
0, 0
0, 0
0, 0
0, 1
0, 0
0, 0
0, 0
0, 0
0, 0
1, 0
0, 0
0, 0
0, 0
0, 0
0, 0
0, 0
0, 0
1, 0
0, 0
0, 0
0, 0
0, 0
0, 0
0, 0
0, 0
0, 0
0, 0
1, 1
0, 0
0, 0
0, 0
0, 0
0, 0
0, 0
0, 0
0, 0
0, 0
0, 0
0, 0
0, 0
0, 0
0, 0
0, 0
0, 0
0, 0
0, 0
0, 0
0, 0
0, 0
0, 0
0, 0
0, 0
0, 0
0, 0
0, 0
0, 0
0, 0
0, 0
0, 0
0, 0
0, 0
0, 0
1, 0
0, 0
0, 0
0, 0
0, 0
1, 0
0, 0
0, 0
0, 0
0, 0
0, 0
0, 0
0, 0
0, 0
0, 0
0, 0
0, 0
0, 0
0, 0
0, 1
0, 0
0, 0
0, 0
0, 0
0, 0
0, 0
0, 0
0, 0
0, 0
0, 0
0, 0
0, 0
0, 0
0, 0
0, 0
0, 0
0, 0
0, 0
1, 0
0, 0
0, 0
0, 0
0, 0
0, 0
0, 0
0, 0
0, 0
0, 0
0, 0
0, 0
0, 0
0, 0
0, 0
0, 0
0, 0
0, 1
0, 0
0, 0
0, 0
0, 0
0, 1
0, 0
0, 0
0, 0
0, 0
0, 0
0, 0
0, 0
0, 0
0, 0
0, 0
0, 0
0, 0
0, 0
0, 0
0, 0
0, 0
0, 0
0, 0
0, 0
0, 0
0, 0
0, 0
0, 0
0, 0
0, 0
0, 0
0, 1
0, 0
0, 0
0, 0
0, 0
0, 0
0, 0
0, 0
0, 0
0, 0
0, 0
0, 0
0, 0
0, 0
0, 0
0, 0
0, 0
0, 0
0, 0
0, 0
0, 0
0, 0
0, 0
0, 0
0, 0
0, 0
0, 0
0, 0
0, 0
0, 0
0, 0
0, 0
0, 0
0, 0
0, 0
0, 0
0, 0
0, 0
0, 0
0, 0
0, 0
0, 0
0, 0
0, 0
0, 0
0, 0
0, 0
0, 0
0, 0
0, 0
0, 0
0, 0
0, 0
0, 0
0, 0
0, 0
0, 0
0, 0
0, 0
0, 0
0, 0
0, 0
0, 0
0, 0
0, 0
0, 0
0, 0
0, 0
0, 0
0, 0
0, 0
0, 0
0, 0
0, 0
0, 0
0, 0
0, 0
0, 0
0, 0
0, 0
0, 0
0, 0
0, 0
0, 0
0, 0
0, 0
0, 0
0, 0
0, 0
0, 0
0, 0
0, 0
0, 0
0, 0
0, 0
0, 0
0, 0
0, 0
0, 0
0, 0
0, 0
0, 0
0, 0
0, 0
0, 0
0, 0
0, 0
0, 0
0, 0
0, 0
0, 0
0, 0
0, 0
0, 0
0, 0
0, 0
0, 0
0, 0
0, 0
0, 0
0, 0
0, 0
0, 0
0, 0
0, 0
0, 0
0, 0
0, 0
0, 0
0, 0
0, 0
0, 0
0, 0
0, 0
0, 0
0, 0
0, 0
0, 0
0, 0
0, 0
0, 0
0, 0
0, 0
0, 0
0, 0
0, 0
0, 0
0, 0
0, 0
0, 0
0, 0
0, 0
0, 0
0, 0
0, 0
0, 0
0, 0
0, 0
0, 0
0, 0
0, 0
0, 0
0, 0
0, 0
0, 0
0, 0
0, 0
0, 0
0, 0
0, 0
0, 0
0, 0
0, 0
0, 0
0, 0
0, 0
0, 0
0, 0
0, 0
0, 0
0, 0
0, 0
0, 0
0, 0
0, 0
0, 0
0, 0
0, 0
0, 0
0, 0
0, 0
0, 0
0, 0
0, 0
0, 0
0, 0
0, 0
0, 0
0, 0
0, 0
0, 0
0, 0
0, 0
0, 0
0, 0
0, 0
0, 0
0, 0
0, 0
0, 0
0, 0
0, 0
0, 0
0, 0
0, 0
0, 0
0, 0
0, 0
0, 0
0, 0
0, 0
0, 0
0, 0
0, 0
0, 0
0, 0
0, 0
0, 0
0, 0
0, 0
0, 0
0, 0
0, 0
0, 0
0, 0
0, 0
0, 0
0, 0
0, 0
0, 0
0, 0
0, 0
0, 0
0, 0
0, 0
0, 0
0, 0
0, 0
0, 0
0, 0
0, 0
0, 0
0, 0
0, 0
0, 0
0, 0
0, 0
0, 0
0, 0
0, 0
0, 0
0, 0
0, 0
0, 0
0, 0
0, 0
0, 0
0, 0
0, 0
0, 0
0, 0
0, 0
0, 0
0, 0
0, 0
0, 0
0, 0
0, 0
0, 0
0, 0
0, 0
0, 0
0, 0
0, 0
0, 0
0, 0
0, 0
0, 0
0, 0
0, 0
0, 0
0, 0
0, 0
0, 0
0, 0
0, 0
0, 0
0, 0
0, 0
0, 0
0, 0
0, 0
0, 0
0, 0
0, 0
0, 0
0, 0
0, 0
0, 0
0, 0
0, 0
0, 0
0, 0
0, 0
0, 0
0, 0
0, 0
0, 0
0, 0
0, 0
0, 0
0, 0
0, 0
0, 0
0, 0
0, 0
0, 0
0, 0
0, 0
0, 0
0, 0
0, 0
0, 0
0, 0
0, 0
#ENDOFDATA     end of spectrum data