File: host_upload/02-11-2024/rqc/uplink1/ps__0567_0717304816_000rfs_shot_260.msa
#FORMAT      : EMSA/MAS spectral data file
#VERSION     : TC202v2.0 PIXL
#TITLE       : Novarupta (sol567) subset1
#DATE        : 02-11-2024      Date in the format DD-MMM-YYYY, for example 07-JUL-2010
#TIME        :             The time of day at which the spectrum was recorded, in 24-hour format
#OWNER       : PIXL Flight Model       (PIXL will use this to indicate which instrument took the data.)
#NPOINTS     : 4096     Number of data points in the spectrum (This can be zero for configuration only files)
#NCOLUMNS    : 2     Number of data columns in the spectrum (This can be zero for configuration only files)
#XUNITS      : eV
#YUNITS      : COUNTS
#DATATYPE    : YY
#XPERCHAN    : 7.862, 7.881   eV per channel (separate by commas if more than one detector)
#OFFSET      : 18.5, -22.4         eV of first channel  (separate by commas if more than one detector
#SIGNALTYPE  : XRF
#YP_TEMP     : 1.049
#LIVETIME    : 8.84021, 8.81759   seconds (separate by commas if more than one detector)
#REALTIME    : 10, 10.0   seconds (separate by commas if more than one detector)
#SPECTRUM    : start of spectrum data
0, 0
0, 0
0, 0
0, 0
0, 0
0, 0
0, 0
0, 0
0, 0
0, 0
0, 0
0, 0
0, 0
0, 0
0, 0
0, 0
0, 0
0, 0
0, 0
0, 0
0, 0
0, 0
0, 0
0, 0
0, 0
0, 0
0, 0
0, 0
0, 0
0, 0
1, 0
1, 0
0, 1
0, 0
0, 0
0, 2
3, 1
0, 1
2, 2
1, 5
3, 1
3, 5
6, 1
0, 5
4, 4
3, 1
3, 4
0, 4
5, 8
4, 6
9, 5
7, 10
6, 18
21, 13
12, 14
19, 15
13, 15
8, 12
6, 8
13, 14
17, 19
29, 30
34, 42
32, 42
49, 46
43, 51
43, 45
35, 39
31, 32
55, 66
105, 130
202, 204
297, 312
403, 477
496, 541
473, 525
413, 461
296, 326
240, 244
150, 159
75, 77
50, 43
37, 39
31, 32
30, 29
30, 26
27, 33
33, 38
23, 36
12, 28
21, 17
9, 15
14, 22
38, 34
81, 68
116, 148
152, 200
229, 228
274, 310
249, 277
254, 267
176, 186
136, 157
108, 86
83, 58
53, 52
61, 58
48, 67
91, 105
129, 142
163, 182
209, 208
215, 217
213, 194
185, 195
152, 171
137, 123
125, 100
100, 98
76, 98
61, 92
82, 79
67, 58
53, 60
45, 54
35, 47
23, 22
27, 16
22, 20
10, 17
14, 11
8, 13
11, 8
8, 7
9, 8
6, 7
2, 14
13, 11
19, 26
11, 28
26, 31
27, 30
32, 22
23, 25
31, 15
17, 15
9, 12
12, 1
11, 9
12, 20
19, 27
43, 57
81, 113
115, 149
198, 247
244, 269
292, 327
323, 364
332, 365
268, 300
209, 232
134, 156
75, 78
63, 58
30, 31
19, 17
27, 32
28, 31
30, 45
49, 56
40, 62
54, 55
59, 55
48, 46
36, 37
24, 30
15, 13
15, 10
7, 14
7, 16
12, 11
9, 9
7, 10
11, 8
8, 11
11, 15
14, 20
15, 29
25, 34
34, 46
55, 60
73, 67
77, 71
61, 61
50, 67
41, 44
31, 27
28, 21
33, 30
18, 9
13, 15
16, 16
13, 19
10, 15
17, 18
18, 18
15, 25
15, 17
15, 10
16, 20
17, 19
24, 28
29, 20
9, 17
20, 17
16, 20
10, 8
19, 14
8, 9
5, 12
9, 16
17, 15
15, 13
16, 18
12, 12
20, 18
19, 24
21, 26
29, 25
30, 27
25, 29
35, 31
28, 29
24, 32
17, 17
19, 16
11, 21
14, 14
10, 15
10, 16
6, 17
8, 10
17, 14
10, 11
16, 12
16, 18
31, 28
25, 35
37, 39
35, 39
50, 58
39, 49
51, 58
55, 45
36, 32
36, 44
19, 26
22, 22
16, 18
14, 22
17, 22
25, 34
44, 56
68, 91
103, 160
216, 292
360, 487
587, 753
885, 1052
1158, 1381
1452, 1637
1701, 1861
1684, 1797
1605, 1708
1415, 1471
1160, 1115
832, 790
554, 513
361, 298
209, 172
127, 100
70, 57
45, 27
39, 21
16, 19
19, 21
20, 12
15, 20
16, 15
17, 11
22, 25
29, 27
39, 43
40, 68
76, 98
126, 144
158, 192
197, 244
209, 226
248, 303
262, 274
240, 258
237, 206
167, 159
116, 114
86, 81
65, 49
43, 31
21, 14
18, 6
11, 10
6, 12
6, 6
11, 8
9, 14
13, 13
18, 9
9, 16
21, 10
16, 8
9, 7
7, 14
10, 10
7, 9
5, 4
6, 5
2, 10
9, 9
3, 9
5, 5
3, 6
6, 11
6, 6
8, 7
5, 3
6, 7
3, 7
2, 10
10, 2
3, 8
10, 7
7, 6
6, 3
9, 3
6, 5
6, 11
8, 4
10, 7
8, 7
4, 13
11, 9
6, 8
2, 7
9, 12
3, 8
4, 6
3, 6
7, 6
11, 4
6, 4
3, 8
11, 11
14, 3
10, 9
15, 11
9, 14
10, 15
11, 10
15, 13
15, 12
14, 12
14, 15
8, 10
3, 7
6, 3
6, 7
11, 2
3, 10
8, 7
9, 10
6, 4
4, 6
6, 5
4, 3
8, 4
2, 14
6, 3
4, 3
6, 3
7, 9
2, 8
6, 5
3, 5
3, 4
3, 9
2, 5
6, 6
4, 4
3, 4
8, 8
5, 8
2, 3
5, 6
4, 3
3, 9
7, 9
4, 5
3, 1
3, 5
5, 7
4, 11
1, 6
3, 4
2, 3
4, 4
5, 3
10, 4
6, 6
5, 7
4, 1
0, 6
5, 4
5, 10
5, 5
1, 7
4, 6
3, 3
4, 4
3, 3
5, 6
7, 6
1, 2
5, 3
2, 4
8, 3
2, 1
3, 4
6, 5
4, 3
7, 2
3, 5
4, 5
4, 2
3, 5
1, 3
6, 5
4, 7
3, 2
5, 3
6, 3
7, 4
2, 4
2, 3
4, 4
2, 3
2, 1
4, 8
4, 2
1, 1
3, 5
4, 2
0, 1
3, 1
4, 2
1, 0
4, 6
5, 5
2, 3
1, 4
1, 3
3, 1
3, 2
3, 3
2, 2
4, 2
4, 5
4, 3
3, 0
3, 3
1, 4
4, 3
4, 2
2, 2
3, 1
1, 0
3, 6
0, 1
4, 1
2, 2
5, 0
2, 2
3, 3
5, 3
2, 1
2, 3
0, 6
2, 3
0, 3
1, 3
3, 4
0, 1
4, 4
4, 5
3, 2
2, 4
2, 5
1, 1
2, 5
2, 0
1, 2
2, 1
1, 1
5, 0
2, 3
3, 3
4, 3
1, 0
2, 2
1, 1
4, 3
0, 1
2, 2
1, 1
1, 4
2, 1
1, 1
3, 2
3, 2
2, 4
0, 1
2, 0
0, 3
1, 2
1, 0
3, 0
2, 1
3, 4
1, 2
3, 6
4, 5
2, 2
1, 4
2, 1
3, 1
4, 3
3, 3
2, 3
1, 0
0, 3
0, 0
1, 1
1, 0
0, 2
3, 3
1, 0
3, 2
0, 1
0, 2
3, 1
3, 1
4, 4
2, 2
2, 1
1, 1
1, 2
2, 1
4, 0
2, 3
1, 2
2, 0
0, 2
1, 2
0, 2
3, 1
2, 0
0, 3
5, 0
0, 1
2, 3
3, 1
0, 2
0, 2
1, 1
2, 3
1, 2
4, 1
2, 0
1, 1
1, 0
0, 1
1, 1
0, 0
0, 0
2, 1
0, 2
2, 1
1, 0
0, 0
1, 0
0, 1
1, 2
1, 2
0, 0
3, 2
3, 0
1, 0
2, 2
2, 1
0, 1
1, 1
2, 3
1, 0
0, 0
1, 0
1, 0
1, 2
1, 0
1, 1
0, 1
0, 0
0, 1
1, 0
1, 1
2, 1
2, 0
0, 1
1, 0
2, 2
0, 0
0, 0
0, 1
3, 0
0, 0
0, 0
1, 2
0, 0
0, 2
2, 0
0, 1
1, 0
0, 0
0, 2
0, 0
0, 2
2, 1
2, 2
0, 0
0, 1
1, 0
1, 0
0, 0
2, 1
1, 0
0, 1
0, 0
1, 0
1, 0
0, 0
0, 0
1, 0
0, 1
0, 0
0, 0
2, 0
0, 0
0, 0
1, 1
0, 1
1, 0
1, 1
1, 0
1, 1
0, 0
2, 1
0, 1
0, 0
0, 0
0, 1
0, 1
0, 0
0, 0
1, 0
0, 0
0, 1
0, 0
0, 2
0, 0
0, 0
0, 0
2, 1
0, 0
0, 0
0, 0
0, 0
0, 0
0, 1
0, 0
0, 0
1, 0
0, 0
1, 0
1, 1
1, 1
1, 2
0, 0
0, 1
0, 0
0, 0
0, 1
0, 0
0, 0
0, 0
1, 1
0, 1
0, 0
0, 0
0, 0
1, 0
1, 0
0, 1
0, 1
1, 1
1, 0
0, 0
0, 1
1, 0
0, 0
0, 1
0, 0
0, 0
0, 1
0, 0
0, 0
0, 1
0, 0
0, 1
0, 0
0, 0
0, 0
0, 0
1, 1
0, 0
0, 2
1, 0
1, 0
0, 1
0, 0
0, 0
0, 1
0, 0
0, 0
2, 2
1, 0
0, 0
1, 0
0, 0
1, 1
0, 0
0, 0
0, 0
0, 1
0, 0
1, 0
0, 0
0, 0
0, 2
0, 0
0, 1
0, 0
0, 0
0, 0
0, 1
0, 0
0, 0
1, 0
0, 0
1, 0
0, 2
0, 0
1, 0
1, 0
0, 0
0, 0
0, 0
0, 0
0, 0
0, 0
1, 0
0, 0
0, 1
0, 0
1, 0
0, 1
0, 0
1, 0
0, 0
0, 0
1, 0
0, 1
0, 0
0, 0
1, 0
1, 0
0, 0
0, 0
0, 1
0, 0
0, 0
1, 0
0, 0
0, 0
0, 0
0, 0
0, 0
0, 0
0, 0
0, 0
0, 0
0, 1
1, 1
0, 0
0, 0
1, 0
0, 0
0, 0
0, 0
0, 1
1, 0
1, 0
1, 0
0, 0
0, 0
0, 0
0, 0
0, 0
1, 0
1, 0
0, 0
0, 0
0, 0
0, 1
0, 0
0, 0
0, 0
0, 0
0, 0
0, 0
0, 0
1, 1
0, 0
0, 1
0, 0
0, 0
0, 0
0, 0
0, 0
1, 1
0, 0
0, 0
0, 0
0, 0
0, 0
0, 0
0, 0
0, 0
0, 0
0, 0
0, 0
0, 0
0, 1
0, 0
0, 1
0, 0
0, 0
0, 0
0, 0
0, 0
0, 0
0, 0
0, 0
0, 0
0, 0
0, 0
0, 0
0, 0
0, 0
0, 0
0, 0
0, 0
0, 0
0, 0
0, 0
0, 0
0, 0
0, 0
0, 0
0, 0
0, 0
0, 0
0, 0
0, 0
0, 0
0, 0
0, 0
0, 0
1, 0
0, 0
0, 1
0, 0
0, 0
0, 0
0, 0
0, 0
0, 1
0, 0
0, 0
0, 0
0, 0
0, 0
0, 0
0, 0
0, 0
0, 0
0, 0
0, 0
0, 0
0, 0
0, 0
0, 0
0, 0
0, 0
0, 0
0, 0
0, 0
0, 0
0, 0
0, 1
0, 0
0, 0
0, 0
0, 0
0, 0
0, 0
0, 0
0, 0
0, 0
1, 0
0, 0
0, 0
0, 0
0, 0
0, 0
0, 0
0, 0
0, 0
1, 0
0, 0
0, 0
0, 0
0, 0
0, 0
0, 0
0, 0
0, 0
0, 0
0, 0
0, 0
0, 0
0, 0
0, 0
0, 0
0, 0
0, 0
0, 0
0, 0
0, 0
0, 0
0, 0
0, 0
0, 0
0, 0
0, 0
1, 0
0, 0
0, 0
0, 0
0, 0
0, 0
0, 0
0, 0
0, 0
0, 1
0, 0
0, 0
0, 0
0, 1
0, 0
0, 0
0, 0
0, 0
0, 0
0, 0
0, 0
0, 0
0, 0
0, 0
0, 0
0, 0
0, 0
0, 0
0, 0
0, 0
0, 0
0, 0
0, 0
0, 0
0, 0
0, 0
0, 0
0, 0
0, 0
0, 0
0, 0
0, 0
0, 0
0, 0
0, 0
0, 0
0, 0
0, 0
0, 0
0, 0
0, 0
0, 0
0, 0
0, 0
0, 0
0, 0
0, 0
0, 0
0, 0
0, 0
0, 0
0, 0
0, 0
0, 0
0, 0
0, 0
0, 0
0, 0
0, 0
0, 0
0, 0
0, 0
0, 0
0, 0
0, 0
0, 0
0, 1
0, 0
0, 0
0, 0
0, 0
0, 0
0, 0
0, 0
0, 0
0, 0
0, 0
0, 0
0, 0
0, 0
0, 0
0, 0
0, 0
0, 0
0, 0
0, 0
0, 0
0, 0
0, 0
0, 0
0, 0
0, 0
0, 0
0, 0
0, 0
0, 0
0, 0
0, 0
0, 0
0, 0
0, 0
0, 0
0, 0
0, 0
0, 0
0, 0
0, 0
0, 0
0, 0
0, 0
0, 0
0, 0
0, 0
0, 0
0, 0
0, 0
0, 0
0, 0
0, 0
0, 0
0, 0
0, 0
0, 0
0, 0
0, 0
0, 0
0, 0
0, 0
0, 0
0, 0
0, 0
0, 0
0, 0
0, 0
0, 0
0, 0
0, 0
0, 0
0, 0
0, 0
0, 0
0, 0
0, 1
0, 0
0, 0
0, 0
0, 0
0, 0
0, 0
0, 0
0, 0
0, 0
0, 0
0, 0
0, 0
0, 0
0, 0
0, 0
0, 0
0, 0
0, 0
0, 0
0, 0
0, 0
0, 0
0, 0
0, 0
0, 0
0, 0
0, 0
0, 0
0, 0
0, 0
0, 0
0, 0
0, 0
0, 0
0, 0
0, 0
0, 0
0, 0
0, 0
0, 0
0, 0
0, 0
0, 0
0, 0
0, 0
0, 0
0, 0
0, 0
0, 0
0, 0
0, 0
0, 0
0, 0
0, 0
0, 0
0, 0
0, 0
0, 0
0, 0
0, 0
0, 0
0, 0
0, 0
0, 0
0, 0
0, 0
0, 0
0, 0
0, 0
0, 0
0, 0
0, 0
0, 0
0, 0
0, 0
0, 0
0, 0
0, 0
0, 0
0, 0
0, 0
0, 0
0, 0
0, 0
0, 0
0, 0
0, 0
0, 0
0, 0
0, 0
0, 0
0, 0
0, 0
0, 0
0, 0
0, 0
0, 0
0, 0
0, 0
0, 0
0, 0
0, 0
0, 0
0, 0
0, 0
0, 0
0, 0
0, 0
0, 0
0, 0
0, 0
0, 0
0, 0
0, 0
0, 0
0, 0
0, 0
0, 0
0, 0
0, 0
0, 0
0, 0
0, 0
0, 0
0, 0
0, 0
0, 0
0, 0
0, 0
0, 0
0, 0
0, 0
0, 0
0, 0
0, 0
0, 0
0, 0
0, 0
0, 0
0, 0
0, 0
0, 0
0, 0
0, 0
0, 0
0, 0
0, 0
0, 0
0, 0
0, 0
0, 0
0, 0
0, 0
0, 0
0, 0
0, 0
0, 0
0, 0
0, 0
0, 0
0, 0
0, 0
0, 0
0, 0
0, 0
0, 0
0, 0
0, 0
0, 0
0, 0
0, 0
0, 0
0, 0
0, 0
0, 0
0, 0
0, 0
0, 0
0, 0
0, 0
0, 0
0, 0
0, 0
0, 0
0, 0
0, 0
0, 0
0, 0
0, 0
0, 0
0, 0
0, 0
0, 0
0, 0
0, 0
0, 0
0, 0
0, 0
0, 0
0, 0
0, 0
0, 0
0, 0
0, 0
0, 0
0, 0
0, 0
0, 0
0, 0
0, 0
0, 0
0, 0
0, 0
0, 0
0, 0
0, 0
0, 0
0, 0
0, 0
0, 0
0, 0
0, 0
0, 0
0, 0
0, 0
0, 0
0, 0
0, 0
0, 0
0, 0
0, 0
#ENDOFDATA     end of spectrum data