File: host_upload/02-11-2024/rqc/uplink1/ps__0567_0717304816_000rfs_shot_385.msa
#FORMAT      : EMSA/MAS spectral data file
#VERSION     : TC202v2.0 PIXL
#TITLE       : Novarupta (sol567) subset1
#DATE        : 02-11-2024      Date in the format DD-MMM-YYYY, for example 07-JUL-2010
#TIME        :             The time of day at which the spectrum was recorded, in 24-hour format
#OWNER       : PIXL Flight Model       (PIXL will use this to indicate which instrument took the data.)
#NPOINTS     : 4096     Number of data points in the spectrum (This can be zero for configuration only files)
#NCOLUMNS    : 2     Number of data columns in the spectrum (This can be zero for configuration only files)
#XUNITS      : eV
#YUNITS      : COUNTS
#DATATYPE    : YY
#XPERCHAN    : 7.862, 7.881   eV per channel (separate by commas if more than one detector)
#OFFSET      : 18.5, -22.4         eV of first channel  (separate by commas if more than one detector
#SIGNALTYPE  : XRF
#YP_TEMP     : 1.979
#LIVETIME    : 8.83364, 8.79878   seconds (separate by commas if more than one detector)
#REALTIME    : 10, 10.0   seconds (separate by commas if more than one detector)
#SPECTRUM    : start of spectrum data
0, 0
0, 0
0, 0
0, 0
0, 0
0, 0
0, 0
0, 0
0, 0
0, 0
0, 0
0, 0
0, 0
0, 0
0, 0
0, 0
0, 0
0, 0
0, 0
0, 0
0, 0
0, 0
0, 0
0, 0
0, 0
0, 0
0, 0
0, 0
0, 0
0, 1
0, 0
0, 0
0, 0
0, 0
0, 1
2, 1
3, 1
2, 1
2, 4
1, 6
5, 5
2, 6
1, 8
2, 4
4, 6
1, 3
0, 4
3, 3
1, 4
2, 3
7, 14
10, 13
14, 8
12, 13
14, 26
21, 10
15, 12
7, 20
14, 9
10, 16
22, 27
28, 28
40, 37
38, 48
45, 49
42, 39
28, 41
37, 33
40, 30
46, 79
119, 144
207, 216
251, 360
369, 413
495, 546
455, 558
386, 414
339, 347
235, 230
156, 130
69, 83
38, 63
21, 44
37, 38
39, 35
40, 41
34, 39
30, 41
26, 33
21, 26
15, 23
16, 23
26, 24
51, 51
61, 107
120, 144
188, 235
234, 295
300, 347
330, 359
280, 285
231, 229
158, 146
131, 121
69, 98
47, 53
59, 58
61, 74
90, 107
147, 124
148, 183
213, 214
228, 221
219, 243
176, 216
151, 163
128, 122
105, 110
95, 100
89, 70
76, 88
62, 79
46, 60
69, 59
35, 50
42, 40
27, 33
28, 33
8, 24
15, 18
9, 16
7, 12
5, 6
6, 5
6, 4
5, 13
6, 8
14, 24
19, 14
24, 25
32, 38
32, 34
27, 40
30, 24
12, 22
12, 24
11, 19
14, 8
13, 13
14, 20
31, 29
31, 53
83, 114
134, 160
196, 242
274, 346
339, 403
379, 426
361, 375
318, 334
269, 247
158, 161
122, 104
64, 71
31, 35
22, 29
22, 33
29, 31
37, 47
51, 66
52, 58
72, 72
74, 58
48, 59
40, 33
22, 37
21, 20
11, 20
5, 10
6, 7
8, 8
3, 9
7, 8
10, 5
14, 12
8, 8
18, 14
19, 24
26, 43
47, 52
54, 63
62, 72
54, 68
66, 72
62, 53
42, 34
34, 39
28, 33
27, 14
14, 19
11, 23
11, 12
9, 11
12, 20
5, 12
14, 10
9, 13
13, 19
20, 18
19, 23
17, 17
19, 12
5, 16
21, 16
13, 7
5, 17
15, 11
15, 10
10, 13
8, 14
10, 8
14, 19
11, 12
15, 6
14, 18
12, 16
21, 29
23, 27
20, 22
34, 37
25, 32
19, 34
24, 24
22, 23
28, 29
14, 12
15, 18
8, 11
6, 11
9, 12
17, 13
12, 16
10, 13
12, 13
19, 16
19, 15
25, 28
33, 41
37, 43
46, 43
48, 54
49, 42
33, 39
34, 45
39, 43
37, 29
17, 29
20, 19
19, 21
18, 15
19, 21
26, 30
38, 49
63, 82
115, 139
211, 273
367, 451
550, 741
872, 994
1099, 1400
1411, 1667
1615, 1923
1673, 1935
1634, 1799
1484, 1489
1223, 1115
881, 832
576, 598
368, 330
224, 179
122, 80
74, 58
41, 26
19, 30
22, 20
13, 19
11, 15
16, 16
21, 10
18, 21
21, 23
30, 36
35, 50
59, 70
89, 102
120, 136
164, 197
200, 222
258, 285
251, 279
272, 318
236, 240
236, 225
171, 173
130, 124
89, 72
51, 49
43, 32
19, 23
14, 11
13, 10
12, 11
10, 8
9, 9
9, 10
9, 12
14, 16
15, 16
11, 15
7, 12
12, 16
8, 5
8, 9
4, 7
5, 11
6, 7
4, 4
4, 13
2, 7
7, 5
8, 5
2, 6
6, 5
2, 9
5, 6
5, 6
7, 5
5, 11
5, 8
5, 8
7, 11
6, 5
6, 7
5, 9
6, 9
6, 9
5, 6
3, 6
4, 14
7, 9
12, 11
1, 9
11, 8
1, 7
4, 6
6, 9
9, 7
9, 5
9, 7
7, 8
2, 6
10, 7
9, 11
4, 11
9, 11
6, 6
7, 9
8, 9
10, 11
9, 10
5, 6
9, 13
8, 7
9, 10
8, 8
3, 4
3, 6
4, 4
10, 4
4, 7
5, 6
7, 8
2, 6
4, 7
4, 7
5, 7
8, 6
6, 9
9, 9
8, 3
10, 5
4, 10
9, 1
9, 8
5, 7
6, 8
8, 7
4, 7
8, 5
3, 5
5, 6
8, 8
4, 4
9, 6
4, 6
4, 9
3, 6
7, 9
6, 7
7, 5
3, 5
5, 6
2, 2
5, 3
4, 7
3, 10
4, 3
2, 2
3, 5
6, 8
8, 5
4, 4
3, 6
1, 6
7, 5
6, 7
5, 4
3, 5
1, 4
3, 5
3, 3
4, 6
2, 8
2, 7
5, 5
3, 2
4, 0
2, 5
0, 5
6, 8
8, 4
6, 3
4, 7
3, 1
7, 3
4, 4
4, 4
1, 4
6, 3
0, 3
3, 1
4, 3
2, 4
2, 3
4, 2
2, 7
3, 4
3, 2
1, 1
3, 4
6, 7
2, 6
3, 6
3, 8
3, 5
2, 2
2, 4
8, 3
5, 4
5, 6
3, 6
2, 2
3, 6
3, 5
3, 4
2, 5
6, 2
4, 2
8, 7
3, 4
0, 3
2, 5
3, 6
3, 1
1, 1
2, 4
0, 4
1, 3
3, 2
3, 3
1, 4
1, 0
1, 4
1, 2
1, 1
2, 3
2, 1
1, 0
1, 3
0, 2
2, 0
4, 0
2, 1
3, 5
1, 1
1, 4
3, 1
2, 4
3, 3
1, 2
2, 4
4, 2
0, 2
4, 0
3, 2
1, 1
3, 3
0, 2
0, 1
1, 4
2, 2
3, 2
8, 3
0, 2
4, 3
1, 2
2, 2
1, 1
3, 0
3, 2
3, 0
0, 2
1, 1
0, 2
1, 4
1, 4
1, 3
2, 1
1, 7
2, 6
5, 4
5, 4
4, 2
2, 2
0, 2
1, 1
1, 1
3, 2
2, 3
0, 2
3, 2
2, 0
3, 4
0, 3
2, 3
1, 1
1, 1
1, 0
1, 2
2, 0
3, 0
2, 0
3, 1
2, 3
0, 3
0, 1
1, 3
1, 0
2, 1
1, 2
2, 3
3, 4
1, 1
0, 0
1, 1
4, 3
1, 0
1, 1
1, 4
0, 2
3, 1
2, 2
1, 0
1, 1
1, 2
0, 1
0, 2
2, 1
0, 1
3, 2
0, 0
0, 2
0, 1
0, 3
2, 6
2, 2
0, 3
0, 0
3, 0
4, 0
2, 1
2, 5
2, 1
0, 0
0, 1
0, 2
2, 1
0, 0
1, 2
2, 0
1, 4
2, 0
2, 0
3, 1
0, 0
1, 2
3, 1
0, 1
2, 1
1, 1
1, 0
0, 1
1, 0
2, 2
0, 1
2, 4
0, 2
1, 2
1, 0
0, 1
0, 1
1, 1
0, 2
0, 0
0, 1
0, 1
2, 1
0, 1
0, 1
0, 0
0, 1
0, 0
1, 1
0, 0
0, 0
1, 0
1, 2
2, 0
1, 1
0, 1
0, 0
0, 0
0, 1
0, 0
0, 2
1, 1
2, 0
0, 1
1, 0
0, 0
1, 0
0, 0
1, 1
2, 0
3, 2
1, 0
1, 0
0, 0
2, 1
1, 1
2, 0
3, 2
1, 0
0, 0
1, 1
1, 0
0, 1
0, 1
1, 0
0, 0
1, 0
1, 0
0, 0
1, 0
0, 0
1, 0
0, 1
1, 0
1, 1
1, 0
0, 0
0, 0
0, 1
0, 0
0, 0
1, 1
1, 0
0, 0
0, 0
0, 0
0, 1
0, 0
1, 0
0, 0
2, 1
1, 1
0, 0
0, 0
1, 1
0, 0
0, 0
0, 1
1, 0
1, 1
0, 0
1, 0
0, 0
1, 0
2, 0
0, 3
1, 0
1, 0
0, 1
0, 0
2, 0
0, 0
1, 0
0, 0
0, 0
1, 1
0, 1
0, 0
0, 0
0, 0
0, 0
0, 0
0, 0
0, 1
0, 0
0, 0
0, 0
0, 0
0, 1
0, 1
1, 0
1, 0
0, 0
0, 1
0, 0
0, 1
0, 0
0, 0
0, 1
0, 0
0, 0
0, 1
1, 0
0, 0
0, 0
1, 0
0, 1
0, 0
0, 0
0, 0
0, 1
0, 0
0, 1
0, 0
0, 0
0, 1
0, 0
1, 0
0, 1
0, 0
0, 0
1, 1
1, 0
0, 1
0, 0
0, 0
0, 1
0, 0
0, 0
0, 0
0, 0
0, 1
1, 0
0, 0
0, 1
2, 0
0, 0
0, 0
1, 0
0, 0
0, 0
0, 1
0, 3
1, 1
0, 1
0, 0
0, 0
0, 2
0, 0
0, 0
0, 0
0, 1
1, 0
1, 0
0, 1
0, 0
0, 0
2, 0
0, 0
0, 1
0, 0
0, 1
0, 0
0, 0
0, 0
0, 0
0, 0
1, 1
0, 0
0, 0
0, 0
0, 0
0, 1
0, 1
0, 0
0, 0
1, 0
0, 0
0, 0
0, 0
0, 0
0, 0
0, 0
0, 0
0, 0
1, 0
0, 0
0, 0
0, 1
1, 0
0, 0
0, 1
0, 0
0, 0
0, 0
1, 0
0, 0
0, 0
0, 0
0, 0
0, 0
0, 0
0, 0
0, 0
0, 0
0, 0
0, 0
0, 0
0, 0
0, 0
0, 0
1, 0
0, 0
0, 0
0, 0
0, 0
0, 0
0, 0
0, 0
1, 0
0, 1
0, 0
0, 0
0, 0
0, 0
0, 0
0, 0
0, 1
0, 0
0, 0
0, 0
0, 0
0, 0
0, 0
0, 0
0, 0
0, 0
1, 0
0, 0
0, 0
0, 0
0, 0
0, 0
0, 0
0, 0
0, 0
0, 0
0, 0
0, 0
0, 0
0, 0
0, 0
0, 0
0, 0
0, 0
0, 0
0, 0
0, 0
0, 0
0, 0
0, 0
0, 0
0, 0
0, 0
0, 0
0, 0
0, 0
0, 0
0, 1
0, 0
0, 0
0, 0
0, 0
0, 0
0, 0
0, 0
0, 0
0, 0
0, 0
0, 0
0, 0
0, 0
0, 0
0, 0
0, 0
0, 0
0, 0
0, 0
0, 0
0, 0
0, 0
0, 0
0, 0
0, 0
0, 0
0, 0
0, 0
0, 0
0, 0
0, 1
0, 0
0, 0
0, 0
0, 0
0, 0
0, 0
0, 0
0, 1
0, 0
0, 0
0, 0
0, 0
0, 0
0, 0
0, 0
0, 0
0, 0
0, 0
0, 0
0, 0
0, 0
0, 0
0, 0
0, 0
0, 0
0, 0
1, 0
0, 0
0, 0
0, 0
0, 0
0, 0
0, 0
0, 0
0, 0
0, 0
0, 0
0, 0
0, 0
0, 0
0, 0
0, 0
0, 0
0, 0
0, 1
0, 0
0, 0
0, 0
0, 0
0, 0
0, 0
0, 0
0, 0
0, 0
0, 0
0, 0
0, 0
0, 0
0, 0
0, 0
0, 0
0, 0
0, 0
0, 0
0, 0
0, 0
0, 0
0, 0
0, 0
0, 0
0, 0
0, 0
0, 0
0, 0
0, 0
0, 0
0, 0
0, 0
0, 0
0, 0
0, 0
0, 0
0, 0
0, 0
0, 0
0, 0
0, 0
0, 0
0, 0
0, 0
0, 0
0, 0
0, 0
0, 0
0, 0
0, 0
0, 0
0, 0
0, 0
0, 0
0, 0
0, 0
0, 0
0, 0
0, 0
0, 0
0, 0
0, 0
0, 0
0, 0
0, 0
0, 0
0, 0
0, 0
0, 0
0, 0
0, 0
0, 0
0, 0
0, 0
0, 0
0, 0
0, 0
0, 0
0, 0
0, 0
0, 0
0, 0
0, 0
0, 0
0, 0
0, 0
0, 0
0, 0
0, 0
0, 0
0, 0
0, 0
0, 0
0, 0
0, 0
0, 0
0, 0
0, 0
0, 0
0, 0
0, 0
0, 0
0, 0
0, 0
0, 0
0, 0
0, 0
0, 0
0, 0
0, 0
0, 0
0, 0
0, 0
0, 0
0, 0
0, 0
0, 0
0, 0
0, 0
0, 0
0, 0
0, 0
0, 0
0, 0
0, 0
0, 0
0, 0
0, 0
0, 0
0, 0
0, 0
0, 0
0, 0
0, 0
0, 0
0, 0
0, 0
0, 0
0, 0
0, 0
0, 0
0, 0
0, 0
0, 0
0, 0
0, 0
0, 0
0, 0
0, 0
0, 0
0, 0
0, 0
0, 0
0, 0
0, 0
0, 0
0, 0
0, 0
0, 0
0, 0
0, 0
0, 0
0, 0
0, 0
0, 0
0, 0
0, 0
0, 0
0, 0
0, 0
0, 0
0, 0
0, 0
0, 0
0, 0
0, 0
0, 0
0, 0
0, 0
0, 0
0, 0
0, 0
0, 0
0, 0
0, 0
0, 0
0, 0
0, 0
0, 0
0, 0
0, 0
0, 0
0, 0
0, 0
0, 0
0, 0
0, 0
0, 0
0, 0
0, 0
0, 0
0, 0
0, 0
0, 0
0, 0
0, 0
0, 0
0, 0
0, 0
0, 0
0, 0
0, 0
0, 0
0, 0
0, 0
0, 0
0, 0
0, 0
0, 0
0, 0
0, 0
0, 0
0, 0
0, 0
0, 0
0, 0
0, 0
0, 0
0, 0
0, 0
0, 0
0, 0
0, 0
0, 0
0, 0
0, 0
0, 0
0, 0
0, 0
0, 0
0, 0
0, 0
0, 0
0, 0
0, 0
0, 0
0, 0
0, 0
0, 0
0, 0
0, 0
0, 0
0, 0
0, 0
0, 0
0, 0
0, 0
0, 0
0, 0
0, 0
0, 0
0, 0
0, 0
0, 0
0, 0
0, 0
0, 0
0, 0
0, 0
0, 0
0, 0
0, 0
0, 0
0, 0
0, 0
0, 0
0, 0
0, 0
0, 0
0, 0
0, 0
0, 0
0, 0
0, 0
0, 0
0, 0
0, 0
0, 0
0, 0
0, 0
0, 0
0, 0
0, 0
0, 0
0, 0
0, 0
0, 0
0, 0
0, 0
0, 0
0, 0
0, 0
0, 0
0, 0
0, 0
0, 0
0, 0
0, 0
0, 0
0, 0
0, 0
0, 0
0, 0
0, 0
0, 0
0, 0
0, 0
0, 0
0, 0
0, 0
0, 0
0, 0
0, 0
0, 0
0, 0
0, 0
0, 0
0, 0
0, 0
0, 0
0, 0
0, 0
0, 0
0, 0
0, 0
0, 0
0, 0
0, 0
0, 0
0, 0
0, 0
0, 0
0, 0
0, 0
0, 0
0, 0
0, 0
0, 0
0, 0
0, 0
0, 0
0, 0
0, 0
0, 0
0, 0
0, 0
0, 0
0, 0
0, 0
0, 0
0, 0
0, 0
0, 0
0, 0
0, 0
0, 0
#ENDOFDATA     end of spectrum data