File: host_upload/02-11-2024/rqc/uplink1/ps__0567_0717304816_000rfs_shot_411.msa
#FORMAT      : EMSA/MAS spectral data file
#VERSION     : TC202v2.0 PIXL
#TITLE       : Novarupta (sol567) subset1
#DATE        : 02-11-2024      Date in the format DD-MMM-YYYY, for example 07-JUL-2010
#TIME        :             The time of day at which the spectrum was recorded, in 24-hour format
#OWNER       : PIXL Flight Model       (PIXL will use this to indicate which instrument took the data.)
#NPOINTS     : 4096     Number of data points in the spectrum (This can be zero for configuration only files)
#NCOLUMNS    : 2     Number of data columns in the spectrum (This can be zero for configuration only files)
#XUNITS      : eV
#YUNITS      : COUNTS
#DATATYPE    : YY
#XPERCHAN    : 7.862, 7.881   eV per channel (separate by commas if more than one detector)
#OFFSET      : 18.5, -22.4         eV of first channel  (separate by commas if more than one detector
#SIGNALTYPE  : XRF
#YP_TEMP     : 1.818
#LIVETIME    : 8.83459, 8.81747   seconds (separate by commas if more than one detector)
#REALTIME    : 10, 10.0   seconds (separate by commas if more than one detector)
#SPECTRUM    : start of spectrum data
0, 0
0, 0
0, 0
0, 0
0, 0
0, 0
0, 0
0, 0
0, 0
0, 0
0, 0
0, 0
0, 0
0, 0
0, 0
0, 0
0, 0
0, 0
0, 0
0, 0
0, 0
0, 0
0, 0
0, 0
0, 0
0, 0
0, 0
0, 0
0, 0
0, 0
0, 1
0, 0
1, 0
0, 1
0, 0
1, 4
1, 1
1, 4
4, 3
4, 5
2, 4
8, 3
4, 6
4, 5
6, 2
1, 1
1, 0
1, 5
3, 4
2, 2
1, 5
8, 11
11, 15
14, 13
27, 15
11, 12
19, 11
8, 10
9, 10
13, 11
21, 27
26, 34
38, 33
38, 52
38, 56
49, 44
35, 50
40, 31
33, 30
56, 62
106, 132
172, 210
301, 335
388, 450
495, 518
488, 503
449, 449
312, 331
247, 228
120, 131
74, 77
57, 46
32, 28
29, 32
32, 37
39, 48
36, 45
30, 28
35, 30
19, 19
30, 12
17, 19
30, 29
54, 51
79, 82
121, 151
183, 210
278, 278
305, 343
292, 317
296, 289
207, 243
174, 159
106, 116
82, 62
61, 53
48, 59
68, 75
79, 108
130, 151
172, 185
229, 210
233, 255
218, 264
229, 228
147, 190
139, 144
104, 116
96, 96
65, 90
56, 85
67, 66
53, 60
54, 58
47, 37
36, 42
32, 26
29, 20
21, 19
13, 12
10, 13
10, 4
6, 10
2, 11
6, 10
9, 7
10, 6
13, 13
21, 22
14, 27
32, 28
26, 28
22, 35
31, 28
20, 22
20, 17
13, 21
12, 15
12, 13
15, 19
24, 26
31, 63
93, 105
139, 142
213, 245
283, 353
323, 437
374, 457
364, 417
292, 323
270, 260
190, 168
102, 120
59, 64
36, 48
23, 28
18, 31
43, 33
36, 41
54, 69
60, 58
49, 55
55, 65
56, 48
40, 49
32, 35
12, 15
19, 14
14, 10
5, 6
7, 3
7, 10
7, 11
11, 15
11, 9
8, 11
15, 14
20, 27
21, 34
57, 50
57, 61
61, 70
56, 87
52, 74
50, 65
35, 44
21, 34
30, 31
19, 28
15, 17
12, 24
14, 16
8, 12
15, 11
12, 11
16, 16
14, 20
13, 14
14, 11
26, 22
20, 20
17, 27
19, 16
12, 21
25, 15
13, 18
12, 13
13, 11
12, 12
9, 12
11, 11
8, 11
15, 11
10, 15
13, 10
13, 29
16, 17
27, 16
17, 22
29, 36
27, 23
26, 39
24, 31
28, 36
27, 18
16, 20
11, 13
16, 10
9, 6
14, 11
19, 10
11, 11
10, 14
10, 18
14, 16
13, 15
28, 23
24, 33
39, 36
37, 47
46, 53
43, 59
50, 45
38, 35
32, 39
26, 33
35, 17
40, 16
19, 23
12, 18
18, 25
30, 20
36, 39
58, 89
120, 152
218, 269
371, 494
566, 726
843, 1040
1120, 1418
1372, 1629
1584, 1795
1698, 1825
1679, 1825
1438, 1502
1237, 1198
799, 854
636, 554
379, 339
252, 180
141, 103
86, 47
38, 32
15, 23
23, 15
20, 13
8, 16
14, 16
19, 16
16, 23
12, 30
16, 38
43, 43
63, 65
85, 82
121, 146
163, 215
194, 241
220, 290
256, 313
245, 291
256, 256
239, 231
159, 182
116, 113
92, 82
54, 43
28, 25
27, 21
17, 15
12, 13
4, 4
12, 10
6, 8
14, 13
16, 11
10, 15
10, 19
9, 14
11, 16
9, 8
4, 12
12, 6
5, 5
4, 7
3, 8
9, 9
8, 3
4, 5
2, 7
3, 6
7, 5
5, 6
5, 5
10, 9
6, 2
7, 4
2, 7
9, 5
5, 7
6, 10
6, 12
6, 9
5, 6
8, 5
5, 9
7, 7
8, 8
8, 5
5, 10
10, 8
9, 1
5, 8
11, 3
7, 3
4, 6
5, 6
4, 7
10, 6
12, 7
6, 7
8, 7
7, 12
10, 10
13, 11
12, 10
8, 20
12, 10
13, 10
12, 8
8, 11
6, 9
9, 7
7, 11
7, 10
8, 4
5, 4
3, 1
3, 3
3, 3
6, 5
6, 9
9, 6
6, 6
8, 5
6, 11
8, 5
6, 3
6, 3
5, 4
2, 8
5, 4
6, 1
6, 5
0, 4
7, 9
5, 8
5, 3
2, 5
10, 2
7, 5
1, 5
7, 1
3, 3
3, 3
5, 5
8, 7
4, 5
5, 2
3, 3
5, 6
11, 8
3, 6
6, 3
5, 4
6, 5
4, 4
1, 3
7, 5
7, 4
4, 5
8, 4
3, 3
3, 5
6, 5
4, 4
4, 7
3, 4
7, 2
4, 7
4, 5
6, 4
3, 4
3, 8
1, 2
4, 7
5, 2
2, 8
4, 3
5, 4
3, 4
1, 3
3, 2
6, 1
4, 3
0, 4
4, 2
2, 1
7, 1
5, 5
6, 6
4, 4
3, 6
3, 5
2, 1
5, 5
5, 6
3, 0
1, 4
5, 2
2, 5
3, 6
4, 4
5, 4
3, 3
4, 0
2, 2
2, 1
4, 5
3, 5
2, 3
5, 3
5, 2
4, 3
6, 2
3, 1
2, 1
4, 1
2, 5
2, 9
1, 2
4, 3
2, 1
2, 6
2, 2
1, 1
2, 4
0, 4
2, 2
2, 3
2, 5
0, 5
1, 3
5, 0
2, 4
2, 2
3, 3
2, 3
3, 2
6, 5
0, 3
1, 0
2, 1
2, 2
7, 3
1, 3
5, 4
3, 2
2, 1
5, 4
4, 4
7, 3
1, 1
1, 0
1, 3
4, 5
0, 3
1, 5
2, 2
3, 4
2, 3
0, 3
3, 2
2, 0
2, 3
1, 2
2, 3
1, 2
2, 2
3, 3
1, 1
1, 1
3, 1
1, 3
1, 2
2, 0
3, 3
4, 3
3, 3
1, 4
5, 3
0, 4
9, 4
4, 4
2, 4
5, 4
4, 2
2, 3
0, 0
3, 2
2, 2
0, 1
3, 1
0, 1
0, 0
0, 2
0, 6
1, 1
3, 3
2, 1
1, 2
0, 4
1, 0
2, 2
1, 0
1, 2
2, 1
2, 2
0, 1
1, 3
3, 3
5, 1
5, 0
4, 2
1, 4
0, 0
0, 0
2, 2
0, 3
1, 3
2, 0
2, 1
2, 2
1, 0
0, 1
0, 2
0, 1
0, 1
1, 1
4, 2
1, 2
1, 1
3, 0
2, 2
1, 1
1, 0
1, 3
0, 0
4, 0
1, 0
2, 0
0, 2
1, 0
0, 0
1, 4
0, 1
2, 2
3, 1
0, 0
1, 0
2, 0
0, 0
2, 1
1, 1
0, 3
1, 1
0, 0
0, 1
0, 0
0, 1
0, 3
0, 0
1, 2
0, 2
0, 1
0, 0
1, 2
1, 0
0, 0
1, 2
0, 1
0, 0
0, 0
2, 0
0, 1
1, 1
1, 0
0, 0
0, 0
0, 0
3, 0
1, 1
1, 2
2, 2
2, 1
1, 0
1, 0
0, 0
0, 1
0, 1
0, 2
0, 1
0, 1
0, 0
1, 0
0, 0
1, 1
0, 0
1, 0
1, 0
1, 0
0, 2
0, 0
2, 0
0, 3
0, 0
1, 0
0, 0
0, 1
0, 1
0, 0
3, 0
1, 0
0, 0
1, 1
0, 1
0, 1
0, 0
2, 1
1, 0
0, 0
0, 2
0, 1
2, 0
1, 1
0, 1
0, 1
1, 0
0, 1
1, 0
0, 1
0, 1
0, 1
0, 0
1, 0
0, 1
1, 1
1, 1
0, 0
0, 0
1, 0
2, 0
1, 1
0, 0
0, 2
0, 0
1, 1
0, 1
0, 0
0, 0
0, 0
0, 0
0, 0
0, 0
0, 0
0, 0
1, 0
0, 0
0, 0
0, 0
0, 0
0, 2
0, 0
0, 0
0, 2
0, 0
0, 0
1, 0
0, 0
1, 1
0, 0
0, 0
0, 0
0, 0
0, 0
0, 1
0, 0
0, 2
0, 0
0, 1
1, 0
0, 1
0, 1
1, 2
0, 0
1, 0
2, 1
0, 0
1, 0
0, 1
0, 1
0, 0
0, 2
0, 1
0, 0
0, 0
1, 0
0, 0
0, 0
0, 2
0, 0
0, 0
2, 0
1, 0
0, 0
0, 0
1, 1
1, 2
0, 0
0, 0
0, 0
0, 1
1, 0
0, 0
0, 0
0, 0
0, 0
0, 0
0, 0
1, 0
0, 0
0, 1
0, 1
0, 0
0, 0
0, 1
0, 0
0, 0
1, 0
0, 0
0, 0
0, 2
0, 0
0, 0
0, 0
0, 1
0, 0
0, 1
0, 0
0, 1
0, 1
0, 0
1, 1
1, 0
0, 0
0, 0
0, 0
0, 0
0, 0
0, 0
0, 0
0, 0
1, 0
0, 0
0, 0
0, 0
0, 0
0, 1
0, 0
1, 0
0, 0
0, 0
0, 1
0, 0
0, 0
0, 0
0, 0
1, 0
0, 0
0, 0
0, 0
0, 0
0, 0
0, 0
1, 1
0, 0
0, 0
0, 0
0, 0
0, 1
0, 0
0, 0
0, 0
0, 0
0, 0
0, 0
1, 0
1, 0
0, 1
1, 0
0, 0
0, 1
0, 0
0, 0
0, 0
0, 0
0, 0
0, 0
0, 1
0, 0
1, 0
0, 0
1, 0
0, 0
0, 0
0, 0
0, 0
0, 0
0, 0
0, 0
0, 0
0, 0
0, 0
0, 0
0, 0
0, 0
0, 0
0, 0
1, 0
1, 0
0, 0
0, 0
0, 0
0, 0
0, 0
0, 0
0, 1
0, 0
0, 0
0, 0
0, 0
0, 0
0, 0
1, 0
0, 1
0, 0
0, 0
0, 0
0, 0
1, 1
0, 0
0, 0
0, 0
0, 0
0, 0
0, 0
0, 0
0, 1
0, 0
0, 0
0, 0
0, 0
0, 0
0, 0
0, 0
0, 0
0, 0
0, 0
0, 0
0, 0
0, 1
0, 0
0, 0
0, 0
0, 0
0, 0
0, 0
0, 0
0, 0
0, 0
0, 0
0, 0
0, 0
0, 0
0, 0
0, 0
0, 0
0, 0
0, 0
0, 0
0, 0
0, 0
0, 0
0, 0
0, 0
0, 0
0, 0
0, 0
0, 0
0, 0
0, 0
0, 0
0, 0
0, 0
0, 0
0, 0
0, 0
0, 0
0, 0
0, 0
0, 0
0, 1
0, 0
0, 0
0, 0
1, 0
0, 0
0, 0
0, 0
0, 0
0, 0
0, 0
0, 0
0, 0
0, 0
0, 0
0, 0
0, 0
0, 0
0, 0
0, 1
0, 0
0, 0
0, 0
0, 0
0, 0
0, 0
0, 0
0, 0
0, 0
0, 0
0, 0
0, 0
0, 0
0, 0
0, 0
0, 0
0, 0
0, 0
0, 0
0, 0
0, 0
0, 0
0, 0
0, 0
0, 0
0, 0
0, 0
0, 0
0, 0
0, 0
0, 0
0, 0
0, 0
0, 0
0, 0
0, 0
0, 0
0, 0
0, 0
0, 0
0, 0
0, 0
0, 0
0, 0
0, 0
0, 0
0, 0
0, 0
0, 0
0, 0
0, 0
0, 0
0, 0
0, 0
0, 0
0, 0
0, 0
0, 0
0, 0
0, 0
0, 0
0, 0
0, 0
0, 0
0, 0
1, 0
0, 0
0, 0
0, 0
0, 0
0, 0
0, 0
0, 0
0, 0
0, 0
0, 0
0, 0
0, 0
0, 0
0, 0
0, 0
0, 0
0, 0
0, 0
0, 0
0, 0
0, 0
0, 0
0, 0
0, 0
0, 0
0, 0
0, 0
0, 0
0, 0
0, 0
0, 0
0, 0
0, 0
0, 0
0, 0
0, 0
0, 0
0, 0
0, 0
0, 0
0, 0
0, 0
0, 0
0, 0
0, 0
0, 0
0, 0
0, 0
0, 0
0, 0
0, 0
0, 0
0, 0
0, 0
0, 0
0, 0
0, 0
0, 0
0, 0
0, 0
0, 0
0, 0
0, 0
0, 0
0, 0
0, 0
0, 0
0, 0
0, 0
0, 0
0, 0
0, 0
0, 0
0, 0
0, 0
0, 0
0, 0
0, 0
0, 0
0, 0
0, 0
0, 0
0, 0
0, 0
0, 0
0, 0
0, 0
0, 0
0, 0
0, 0
0, 0
0, 0
0, 0
0, 0
0, 0
0, 0
0, 0
0, 0
0, 0
0, 0
0, 0
0, 0
0, 0
0, 0
0, 0
0, 0
0, 0
0, 0
0, 0
0, 0
0, 0
0, 0
0, 0
0, 0
0, 0
0, 0
0, 0
0, 0
0, 0
0, 0
0, 0
0, 0
0, 0
0, 0
0, 0
0, 0
0, 0
0, 0
0, 0
0, 0
0, 0
0, 0
0, 0
0, 0
0, 0
0, 0
0, 0
0, 0
0, 0
0, 0
0, 0
0, 0
0, 0
0, 0
0, 0
0, 0
0, 0
0, 0
0, 0
0, 0
0, 0
0, 0
0, 0
0, 0
0, 0
0, 0
0, 0
0, 0
0, 0
0, 0
0, 0
0, 0
0, 0
0, 0
0, 0
0, 0
0, 0
0, 0
0, 0
0, 0
0, 0
0, 0
0, 0
0, 0
0, 0
0, 0
0, 0
0, 0
0, 0
0, 0
0, 0
0, 0
0, 0
0, 0
0, 0
0, 0
0, 0
0, 0
0, 0
0, 0
0, 0
0, 0
0, 0
0, 0
0, 0
0, 0
0, 0
0, 0
0, 0
0, 0
0, 0
0, 0
0, 0
0, 0
0, 0
0, 0
0, 0
0, 0
0, 0
0, 0
0, 0
0, 0
0, 0
0, 0
0, 0
0, 0
0, 0
0, 0
0, 0
0, 0
0, 0
0, 0
0, 0
0, 0
0, 0
0, 0
0, 0
0, 0
0, 0
0, 0
0, 0
0, 0
0, 0
0, 0
0, 0
0, 0
0, 0
0, 0
0, 0
0, 0
0, 0
0, 0
0, 0
0, 0
0, 0
0, 0
0, 0
0, 0
0, 0
0, 0
0, 0
0, 0
0, 0
0, 0
0, 0
0, 0
0, 0
0, 0
0, 0
0, 0
0, 0
0, 0
0, 0
0, 0
0, 0
0, 0
0, 0
0, 0
0, 0
0, 0
0, 0
0, 0
0, 0
0, 0
0, 0
0, 0
0, 0
0, 0
0, 0
0, 0
0, 0
0, 0
0, 0
0, 0
0, 0
0, 0
0, 0
0, 0
0, 0
0, 0
0, 0
0, 0
0, 0
0, 0
0, 0
0, 0
0, 0
0, 0
0, 0
0, 0
0, 0
0, 0
0, 0
0, 0
0, 0
0, 0
0, 0
0, 0
0, 0
0, 0
0, 0
0, 0
0, 0
0, 0
0, 0
0, 0
0, 0
0, 0
0, 0
#ENDOFDATA     end of spectrum data