File: host_upload/02-11-2024/rqc/uplink1/ps__0567_0717304816_000rfs_shot_221.msa
#FORMAT      : EMSA/MAS spectral data file
#VERSION     : TC202v2.0 PIXL
#TITLE       : Novarupta (sol567) subset1
#DATE        : 02-11-2024      Date in the format DD-MMM-YYYY, for example 07-JUL-2010
#TIME        :             The time of day at which the spectrum was recorded, in 24-hour format
#OWNER       : PIXL Flight Model       (PIXL will use this to indicate which instrument took the data.)
#NPOINTS     : 4096     Number of data points in the spectrum (This can be zero for configuration only files)
#NCOLUMNS    : 2     Number of data columns in the spectrum (This can be zero for configuration only files)
#XUNITS      : eV
#YUNITS      : COUNTS
#DATATYPE    : YY
#XPERCHAN    : 7.862, 7.881   eV per channel (separate by commas if more than one detector)
#OFFSET      : 18.5, -22.4         eV of first channel  (separate by commas if more than one detector
#SIGNALTYPE  : XRF
#YP_TEMP     : 0.504
#LIVETIME    : 8.8419, 8.83019   seconds (separate by commas if more than one detector)
#REALTIME    : 10, 10.0   seconds (separate by commas if more than one detector)
#SPECTRUM    : start of spectrum data
0, 0
0, 0
0, 0
0, 0
0, 0
0, 0
0, 0
0, 0
0, 0
0, 0
0, 0
0, 0
0, 0
0, 0
0, 0
0, 0
0, 0
0, 0
0, 0
0, 0
0, 0
0, 0
0, 0
0, 0
0, 0
0, 0
0, 0
0, 0
0, 0
0, 0
0, 0
0, 0
1, 1
0, 1
0, 0
0, 1
4, 2
2, 1
3, 4
4, 6
5, 4
3, 4
1, 2
1, 4
1, 1
5, 3
3, 4
5, 0
3, 2
3, 4
4, 9
5, 9
7, 15
13, 21
18, 16
21, 12
21, 9
9, 12
13, 12
12, 7
23, 16
33, 32
30, 46
50, 37
45, 52
51, 52
43, 39
37, 33
38, 31
60, 63
103, 137
183, 203
284, 316
376, 429
425, 487
472, 467
410, 480
341, 312
244, 223
149, 133
73, 84
52, 48
33, 38
32, 27
36, 29
39, 35
24, 35
40, 39
21, 39
21, 15
17, 14
12, 16
30, 22
45, 54
81, 86
125, 139
164, 201
244, 290
279, 293
295, 312
250, 229
192, 192
136, 139
101, 103
65, 69
53, 56
50, 62
59, 72
84, 98
114, 155
168, 172
198, 242
219, 218
227, 259
205, 198
149, 164
135, 119
138, 128
97, 84
77, 89
88, 78
75, 76
56, 65
54, 57
40, 55
44, 40
32, 28
22, 22
18, 13
12, 12
11, 6
6, 10
6, 6
2, 12
9, 5
9, 6
8, 11
14, 14
24, 16
18, 25
22, 26
30, 36
31, 19
23, 34
12, 16
22, 9
10, 7
9, 9
10, 10
9, 11
23, 36
50, 56
77, 93
135, 178
203, 251
273, 324
339, 377
332, 411
314, 372
293, 293
219, 262
157, 154
109, 111
66, 61
31, 33
24, 24
26, 26
26, 42
40, 45
40, 64
47, 74
64, 66
61, 53
50, 41
42, 32
22, 15
17, 13
10, 18
12, 11
10, 5
9, 8
9, 12
8, 10
7, 9
13, 13
10, 16
12, 27
15, 36
27, 29
39, 40
64, 46
63, 58
63, 58
56, 63
63, 55
44, 45
34, 29
21, 29
18, 23
24, 25
14, 13
9, 16
19, 12
9, 14
14, 16
7, 10
13, 14
13, 19
14, 17
22, 14
10, 16
16, 18
25, 14
16, 21
10, 13
9, 16
15, 8
11, 10
11, 12
13, 6
9, 14
10, 9
11, 15
15, 11
11, 16
14, 17
17, 19
21, 26
26, 27
24, 23
31, 32
28, 26
32, 25
25, 22
15, 21
22, 20
15, 9
10, 14
19, 11
6, 11
8, 13
7, 16
7, 8
14, 16
16, 15
15, 24
30, 27
28, 32
31, 44
39, 46
44, 55
42, 48
51, 48
44, 38
32, 30
22, 26
27, 25
20, 19
18, 23
12, 28
16, 19
25, 15
43, 56
68, 93
123, 152
233, 271
371, 449
585, 718
872, 980
1187, 1399
1402, 1629
1634, 1808
1716, 1759
1617, 1612
1449, 1402
1135, 1036
889, 730
559, 478
399, 334
213, 179
127, 103
68, 51
36, 24
29, 24
23, 16
17, 16
13, 19
10, 9
18, 13
16, 21
15, 34
32, 31
36, 52
53, 76
95, 135
113, 154
156, 172
183, 202
244, 249
241, 311
282, 260
244, 247
207, 202
172, 143
129, 116
65, 67
63, 46
31, 27
25, 21
15, 12
8, 11
2, 6
12, 14
12, 13
7, 14
21, 12
5, 13
17, 8
14, 19
10, 18
9, 11
9, 5
10, 7
11, 8
6, 8
6, 6
9, 5
2, 4
8, 3
8, 6
10, 3
4, 6
4, 5
4, 7
6, 8
6, 9
5, 10
8, 9
6, 7
10, 11
7, 11
8, 5
6, 6
9, 3
5, 12
4, 7
6, 7
9, 10
13, 7
9, 7
2, 8
4, 10
8, 6
10, 7
9, 4
6, 9
8, 6
8, 7
2, 6
6, 4
4, 6
9, 10
7, 9
12, 9
11, 17
6, 10
6, 10
8, 15
12, 10
12, 9
13, 13
5, 14
7, 7
4, 7
6, 6
5, 3
5, 6
6, 8
6, 5
6, 7
6, 2
2, 5
2, 5
4, 7
13, 9
8, 9
7, 5
5, 4
10, 5
3, 4
10, 3
6, 8
6, 9
7, 6
5, 7
4, 6
6, 8
3, 5
5, 8
6, 7
10, 6
6, 2
5, 4
7, 6
5, 7
6, 7
3, 7
1, 7
6, 6
5, 4
6, 5
4, 3
9, 2
2, 5
5, 2
5, 7
1, 3
8, 5
1, 5
2, 4
4, 3
2, 0
10, 1
4, 5
10, 6
3, 5
4, 4
5, 4
4, 3
1, 1
4, 4
3, 4
5, 2
2, 5
3, 5
3, 7
5, 3
2, 6
5, 1
6, 1
3, 2
1, 4
2, 5
8, 1
5, 2
4, 5
1, 5
2, 8
2, 4
3, 4
4, 2
2, 2
6, 4
3, 2
7, 2
2, 4
3, 2
0, 4
4, 3
2, 3
4, 0
7, 5
5, 3
3, 2
1, 3
3, 5
6, 5
4, 2
2, 2
2, 4
4, 3
1, 2
2, 3
1, 4
3, 4
2, 3
5, 4
5, 4
3, 1
2, 4
1, 3
6, 1
2, 6
0, 2
3, 4
0, 2
0, 3
3, 3
3, 2
2, 2
3, 5
3, 2
4, 2
1, 3
0, 1
3, 2
1, 3
2, 3
0, 3
1, 1
2, 2
2, 4
5, 2
2, 1
4, 4
1, 1
0, 1
1, 2
2, 2
1, 2
3, 3
6, 1
2, 1
1, 0
1, 4
3, 4
4, 5
1, 2
3, 0
2, 2
0, 2
1, 0
3, 2
2, 2
2, 3
2, 2
3, 1
2, 2
1, 1
0, 1
0, 0
2, 2
1, 1
2, 3
0, 1
0, 5
3, 2
4, 2
1, 0
7, 1
1, 2
1, 1
3, 5
3, 2
2, 2
4, 1
4, 0
1, 2
2, 0
1, 0
0, 4
0, 3
1, 1
0, 0
3, 0
1, 2
1, 1
0, 3
1, 1
1, 3
0, 1
2, 0
1, 1
1, 3
0, 1
1, 2
1, 0
0, 3
2, 1
0, 0
0, 3
0, 1
2, 1
2, 1
3, 1
0, 1
1, 1
1, 1
0, 0
1, 2
1, 0
1, 2
1, 1
3, 1
0, 2
0, 0
1, 0
1, 0
0, 2
3, 1
1, 1
0, 2
2, 2
0, 0
1, 2
2, 1
2, 1
0, 2
1, 1
1, 1
1, 1
0, 2
1, 2
0, 1
2, 0
1, 3
0, 2
1, 1
2, 0
3, 1
2, 2
1, 1
0, 1
1, 1
0, 1
2, 0
2, 3
0, 0
0, 2
0, 1
1, 0
0, 0
1, 2
1, 0
0, 1
0, 1
4, 0
2, 0
1, 1
2, 2
1, 0
0, 1
1, 1
1, 2
0, 1
1, 0
0, 0
0, 3
0, 2
0, 0
1, 0
1, 1
3, 0
2, 0
2, 0
0, 0
3, 1
1, 0
2, 0
0, 0
0, 0
0, 1
1, 0
0, 1
1, 2
0, 1
0, 0
0, 1
1, 0
0, 1
0, 1
0, 0
1, 0
1, 0
0, 0
1, 0
0, 0
1, 0
0, 1
1, 2
1, 0
0, 2
1, 0
0, 1
0, 2
0, 0
0, 0
0, 0
1, 0
0, 0
0, 0
0, 1
0, 0
0, 1
1, 2
1, 1
0, 1
0, 1
1, 1
0, 0
1, 0
0, 1
0, 1
0, 1
1, 0
0, 0
1, 1
0, 0
0, 0
0, 0
0, 0
0, 2
0, 1
2, 0
0, 0
1, 0
0, 2
0, 0
1, 1
1, 1
1, 0
1, 1
0, 1
2, 0
1, 1
0, 0
0, 0
0, 1
0, 1
0, 1
0, 0
0, 0
0, 0
0, 0
1, 1
0, 0
0, 0
0, 1
2, 0
0, 0
0, 0
0, 0
0, 0
0, 0
0, 0
0, 0
1, 0
0, 0
0, 0
0, 0
1, 1
0, 0
0, 0
0, 0
0, 1
0, 0
1, 0
1, 1
0, 0
0, 0
0, 0
0, 0
0, 1
0, 0
1, 0
0, 0
0, 0
1, 1
1, 0
0, 0
0, 0
0, 0
0, 0
0, 0
0, 0
0, 0
1, 2
0, 0
0, 0
0, 1
0, 1
1, 0
0, 0
0, 0
1, 0
0, 0
0, 0
1, 0
0, 0
0, 0
0, 0
0, 0
0, 0
0, 0
0, 1
1, 0
0, 1
0, 1
0, 0
0, 0
0, 0
1, 1
0, 0
0, 0
0, 1
0, 0
0, 0
0, 1
1, 0
0, 1
1, 1
0, 0
1, 0
0, 0
0, 0
0, 0
0, 0
0, 0
0, 0
0, 1
1, 0
0, 1
0, 0
0, 0
0, 0
0, 0
0, 0
0, 0
0, 0
0, 1
0, 0
0, 0
0, 0
0, 0
0, 0
0, 0
0, 0
0, 0
0, 0
0, 0
1, 0
0, 0
0, 0
0, 0
0, 0
0, 0
0, 0
0, 0
0, 0
0, 0
0, 0
0, 2
0, 0
1, 0
0, 0
0, 1
0, 0
0, 0
0, 1
0, 0
0, 0
0, 1
0, 1
0, 0
0, 0
0, 0
0, 0
0, 0
0, 0
0, 0
0, 0
0, 0
0, 0
0, 0
0, 0
1, 0
0, 0
0, 1
0, 0
0, 0
0, 0
1, 1
0, 0
0, 0
0, 0
0, 0
0, 0
0, 0
0, 0
1, 0
0, 0
0, 0
0, 0
0, 0
0, 0
0, 0
0, 0
0, 0
0, 0
0, 0
1, 0
0, 0
0, 0
0, 0
0, 0
0, 0
0, 0
0, 0
0, 0
0, 0
0, 0
0, 0
0, 0
0, 0
0, 0
0, 0
0, 0
0, 0
0, 0
0, 0
0, 0
0, 0
0, 0
0, 0
0, 0
0, 0
0, 0
0, 0
0, 0
0, 0
0, 0
0, 0
0, 0
0, 0
0, 0
1, 0
0, 0
0, 0
0, 0
0, 0
0, 0
0, 0
0, 1
0, 0
0, 0
0, 0
0, 0
0, 0
0, 0
0, 0
0, 0
0, 0
0, 0
0, 0
0, 0
0, 0
0, 0
0, 0
0, 0
0, 0
0, 0
0, 0
0, 0
0, 0
0, 0
0, 0
0, 0
0, 1
0, 0
0, 0
0, 0
0, 0
0, 0
0, 0
0, 0
0, 0
0, 0
0, 0
0, 0
0, 0
0, 0
0, 0
0, 0
0, 0
0, 0
0, 0
0, 0
0, 0
0, 0
0, 1
0, 0
0, 0
0, 0
0, 0
0, 0
0, 0
0, 0
0, 0
0, 0
0, 0
0, 0
0, 0
0, 0
0, 0
0, 0
0, 0
0, 0
0, 0
0, 0
0, 0
0, 0
0, 0
0, 0
0, 0
0, 0
1, 0
0, 0
0, 0
0, 0
0, 0
0, 0
0, 0
0, 0
0, 0
0, 0
0, 0
0, 0
0, 0
0, 0
0, 0
0, 0
0, 0
0, 0
0, 0
0, 0
0, 0
0, 0
0, 0
0, 0
0, 0
0, 0
0, 0
0, 0
0, 0
0, 0
0, 0
0, 0
0, 0
0, 0
0, 0
0, 0
0, 0
0, 0
0, 0
0, 0
0, 0
0, 0
0, 0
0, 0
0, 0
0, 0
0, 0
0, 0
0, 0
0, 0
0, 0
0, 0
0, 0
0, 0
0, 0
0, 0
0, 0
0, 0
0, 0
0, 0
0, 0
0, 0
0, 0
0, 0
0, 0
0, 0
0, 0
0, 0
0, 0
0, 0
0, 0
0, 0
0, 0
0, 0
0, 0
0, 0
0, 0
0, 0
0, 0
0, 0
0, 0
0, 0
0, 0
0, 0
0, 0
0, 0
0, 0
0, 0
0, 0
0, 0
0, 0
0, 0
0, 0
0, 0
0, 0
0, 0
0, 0
0, 0
0, 0
0, 0
0, 0
0, 0
0, 0
0, 0
0, 0
0, 0
0, 0
0, 0
0, 0
0, 0
0, 0
0, 0
0, 0
0, 0
0, 0
0, 0
0, 0
0, 0
0, 0
0, 0
0, 0
0, 0
0, 0
0, 0
0, 0
0, 0
0, 0
0, 0
0, 0
0, 0
0, 0
0, 0
0, 0
0, 0
0, 0
0, 0
0, 0
0, 0
0, 0
0, 0
0, 0
0, 0
0, 0
0, 0
0, 0
0, 0
0, 0
0, 0
0, 0
0, 0
0, 0
0, 0
0, 0
0, 0
0, 0
0, 0
0, 0
0, 0
0, 0
0, 0
0, 0
0, 0
0, 0
0, 0
0, 0
0, 0
0, 0
0, 0
0, 0
0, 0
0, 0
0, 0
0, 0
0, 0
0, 0
0, 0
0, 0
0, 0
0, 0
0, 0
0, 0
0, 0
0, 0
0, 0
0, 0
0, 0
0, 0
0, 0
0, 0
0, 0
0, 0
0, 0
0, 0
0, 0
0, 0
0, 0
0, 0
0, 0
0, 0
0, 0
0, 0
0, 0
0, 0
0, 0
0, 0
0, 0
0, 0
0, 0
0, 0
0, 0
0, 0
0, 0
0, 0
0, 0
0, 0
0, 0
0, 0
0, 0
0, 0
0, 0
0, 0
0, 0
0, 0
0, 0
0, 0
0, 0
0, 0
0, 0
0, 0
0, 0
0, 0
0, 0
0, 0
0, 0
0, 0
0, 0
0, 0
0, 0
0, 0
0, 0
0, 0
0, 0
0, 0
0, 0
0, 0
0, 0
0, 0
0, 0
0, 0
0, 0
0, 0
0, 0
0, 0
0, 0
0, 0
0, 0
0, 0
0, 0
0, 0
0, 0
0, 0
0, 0
0, 0
0, 0
0, 0
0, 0
0, 0
0, 0
0, 0
0, 0
0, 0
0, 0
0, 0
0, 0
0, 0
0, 0
0, 0
0, 0
0, 0
0, 0
0, 0
0, 0
0, 0
0, 0
0, 0
0, 0
0, 0
0, 0
0, 0
0, 0
0, 0
0, 0
0, 0
0, 0
0, 0
0, 0
0, 0
0, 0
0, 0
0, 0
0, 0
0, 0
0, 0
0, 0
0, 0
0, 0
0, 0
0, 0
0, 0
0, 0
0, 0
0, 0
0, 0
0, 0
0, 0
0, 0
0, 0
0, 0
0, 0
0, 0
0, 0
0, 0
0, 0
0, 0
0, 0
0, 0
0, 0
0, 0
0, 0
0, 0
0, 0
0, 0
0, 0
0, 0
0, 0
0, 0
0, 0
0, 0
0, 0
0, 0
0, 0
0, 0
0, 0
0, 0
0, 0
0, 0
0, 0
0, 0
0, 0
0, 0
0, 0
0, 0
0, 0
0, 0
0, 0
0, 0
0, 0
0, 0
0, 0
0, 0
0, 0
#ENDOFDATA     end of spectrum data