File: host_upload/02-11-2024/rqc/uplink1/ps__0567_0717304816_000rfs_shot_87.msa
#FORMAT      : EMSA/MAS spectral data file
#VERSION     : TC202v2.0 PIXL
#TITLE       : Novarupta (sol567) subset1
#DATE        : 02-11-2024      Date in the format DD-MMM-YYYY, for example 07-JUL-2010
#TIME        :             The time of day at which the spectrum was recorded, in 24-hour format
#OWNER       : PIXL Flight Model       (PIXL will use this to indicate which instrument took the data.)
#NPOINTS     : 4096     Number of data points in the spectrum (This can be zero for configuration only files)
#NCOLUMNS    : 2     Number of data columns in the spectrum (This can be zero for configuration only files)
#XUNITS      : eV
#YUNITS      : COUNTS
#DATATYPE    : YY
#XPERCHAN    : 7.862, 7.881   eV per channel (separate by commas if more than one detector)
#OFFSET      : 18.5, -22.4         eV of first channel  (separate by commas if more than one detector
#SIGNALTYPE  : XRF
#YP_TEMP     : -1.293
#LIVETIME    : 8.83608, 8.83435   seconds (separate by commas if more than one detector)
#REALTIME    : 10, 10.0   seconds (separate by commas if more than one detector)
#SPECTRUM    : start of spectrum data
0, 0
0, 0
0, 0
0, 0
0, 0
0, 0
0, 0
0, 0
0, 0
0, 0
0, 0
0, 0
0, 0
0, 0
0, 0
0, 0
0, 0
0, 0
0, 0
0, 0
0, 0
0, 0
0, 0
0, 0
0, 0
0, 0
0, 0
0, 0
0, 0
0, 0
0, 0
1, 0
0, 0
0, 0
0, 2
2, 3
1, 2
1, 3
4, 0
3, 4
4, 1
6, 3
2, 1
4, 4
3, 2
2, 3
3, 3
2, 2
2, 5
5, 3
6, 7
12, 8
12, 10
17, 9
18, 14
10, 9
10, 16
12, 12
9, 8
11, 14
14, 15
34, 36
46, 46
41, 33
53, 41
42, 45
28, 48
48, 36
35, 49
58, 54
121, 131
188, 200
304, 339
386, 446
465, 498
445, 475
420, 410
297, 273
243, 220
141, 115
80, 90
53, 49
23, 31
34, 25
25, 34
30, 38
37, 44
38, 29
31, 33
17, 27
12, 17
23, 16
29, 27
32, 57
102, 96
138, 141
181, 218
287, 281
291, 317
285, 285
240, 244
194, 213
175, 152
104, 99
60, 75
63, 50
47, 52
67, 86
108, 108
137, 140
184, 201
213, 201
242, 231
221, 211
194, 198
164, 167
108, 109
122, 106
92, 92
84, 70
73, 83
56, 71
68, 76
49, 58
50, 58
34, 41
34, 20
23, 21
21, 18
13, 12
16, 10
13, 12
7, 9
3, 5
4, 3
9, 8
9, 10
14, 19
18, 16
25, 21
31, 25
29, 19
18, 46
21, 34
21, 17
14, 13
15, 15
3, 9
8, 14
24, 19
34, 26
60, 61
114, 108
140, 186
239, 202
286, 318
328, 368
344, 346
307, 376
275, 274
175, 207
130, 149
91, 97
57, 57
35, 28
26, 24
28, 36
33, 39
47, 42
49, 47
50, 59
64, 57
36, 53
48, 46
36, 35
29, 32
14, 13
12, 21
8, 17
8, 9
7, 11
4, 6
10, 9
13, 9
12, 8
20, 13
16, 15
32, 32
25, 36
52, 52
52, 48
66, 64
67, 64
49, 50
49, 50
40, 50
35, 33
19, 36
17, 22
16, 19
15, 14
19, 15
11, 15
8, 12
14, 16
20, 14
13, 19
13, 12
25, 15
24, 16
13, 19
20, 24
26, 22
14, 5
11, 21
12, 8
13, 8
9, 14
7, 11
4, 16
12, 15
10, 8
13, 9
12, 21
21, 25
14, 19
22, 20
26, 25
30, 25
28, 33
28, 21
29, 29
22, 34
28, 19
18, 17
15, 15
18, 14
10, 8
15, 9
17, 8
10, 14
8, 8
19, 24
20, 19
21, 16
31, 18
25, 20
41, 38
47, 41
66, 45
45, 49
48, 45
44, 46
48, 29
43, 31
38, 24
28, 18
18, 29
19, 19
18, 21
25, 21
28, 30
44, 55
81, 94
154, 185
279, 317
389, 541
650, 787
931, 1103
1253, 1431
1493, 1718
1627, 1721
1604, 1710
1543, 1557
1295, 1370
1010, 963
728, 655
520, 439
300, 289
190, 149
100, 80
66, 45
36, 26
30, 26
16, 18
13, 18
12, 18
11, 17
21, 25
23, 17
29, 36
25, 30
45, 62
79, 61
112, 107
134, 167
166, 188
202, 225
246, 244
243, 254
276, 273
221, 232
192, 185
142, 137
138, 99
93, 51
52, 46
23, 32
20, 18
11, 8
8, 7
6, 6
8, 9
8, 13
10, 12
10, 8
16, 15
16, 18
7, 13
11, 9
9, 13
6, 10
9, 6
7, 8
6, 5
7, 3
7, 7
8, 3
5, 7
3, 6
9, 3
4, 7
5, 8
5, 4
4, 5
7, 3
7, 4
5, 5
4, 7
5, 3
3, 8
3, 6
8, 2
3, 8
5, 8
6, 3
11, 5
3, 8
6, 3
10, 6
4, 5
6, 4
2, 5
5, 9
4, 5
3, 2
9, 8
3, 5
6, 8
7, 4
7, 5
6, 4
6, 5
8, 13
13, 11
10, 10
10, 16
10, 9
14, 19
6, 12
9, 17
6, 11
10, 6
14, 6
5, 13
8, 5
8, 9
6, 4
6, 4
3, 3
4, 3
3, 3
8, 7
8, 5
11, 5
7, 4
9, 5
4, 2
5, 5
8, 4
4, 3
4, 7
2, 3
1, 1
8, 6
3, 5
5, 6
2, 7
7, 3
4, 5
2, 3
5, 4
4, 2
4, 5
5, 4
3, 8
3, 4
7, 5
4, 10
2, 9
7, 5
10, 4
2, 6
9, 3
3, 8
5, 5
2, 5
8, 4
5, 2
3, 3
2, 7
4, 2
5, 4
2, 4
2, 8
1, 5
3, 5
3, 3
2, 3
2, 6
4, 1
6, 2
4, 3
4, 3
1, 5
2, 7
5, 5
4, 4
4, 3
4, 6
2, 7
4, 8
4, 4
4, 3
3, 3
1, 4
5, 10
3, 3
3, 4
2, 4
3, 1
3, 3
2, 4
3, 5
2, 3
3, 6
3, 3
2, 1
4, 3
6, 2
1, 3
1, 3
5, 2
4, 3
1, 4
3, 3
3, 1
2, 4
2, 3
1, 3
2, 3
6, 3
3, 5
1, 3
5, 3
3, 4
4, 5
3, 3
0, 2
1, 1
2, 4
4, 2
4, 1
1, 3
1, 2
2, 1
4, 3
1, 2
3, 0
5, 4
3, 1
5, 2
0, 2
3, 0
0, 2
1, 1
3, 1
2, 2
2, 1
3, 3
5, 1
2, 2
2, 0
2, 3
3, 4
3, 4
3, 3
0, 0
1, 4
3, 3
1, 2
1, 0
0, 1
3, 0
3, 1
3, 4
2, 2
2, 1
0, 1
2, 1
1, 2
1, 4
0, 1
3, 2
3, 3
2, 3
3, 5
2, 5
0, 1
1, 2
3, 1
3, 2
3, 1
2, 1
1, 2
2, 1
2, 4
1, 3
1, 1
4, 2
2, 3
1, 2
1, 6
1, 2
5, 3
2, 2
4, 3
3, 4
3, 4
1, 0
5, 1
1, 1
0, 1
2, 1
3, 1
0, 4
1, 0
3, 0
0, 2
0, 1
2, 1
0, 1
1, 1
0, 2
0, 1
3, 3
2, 0
2, 2
3, 0
0, 1
2, 2
1, 4
3, 1
1, 2
1, 1
1, 2
2, 1
2, 0
2, 0
2, 3
4, 0
3, 1
1, 0
0, 1
2, 1
1, 0
2, 0
2, 2
0, 3
0, 2
1, 2
0, 1
0, 0
0, 1
2, 4
1, 0
2, 1
0, 0
1, 0
0, 0
1, 1
0, 1
0, 2
0, 2
0, 1
2, 3
1, 2
3, 0
0, 0
0, 0
1, 1
3, 0
1, 3
2, 1
1, 0
0, 0
1, 1
2, 0
1, 1
1, 1
0, 0
1, 0
0, 0
0, 0
1, 0
1, 0
0, 1
1, 0
1, 0
1, 1
1, 2
3, 3
0, 0
0, 0
0, 1
0, 0
0, 1
1, 0
0, 0
0, 1
0, 0
0, 1
0, 0
0, 1
1, 1
0, 2
0, 1
1, 0
0, 0
0, 0
2, 1
0, 1
0, 1
0, 0
3, 0
0, 1
1, 0
1, 0
0, 0
0, 0
1, 0
0, 0
1, 0
0, 0
0, 2
0, 1
1, 1
1, 1
0, 0
0, 0
0, 0
0, 0
2, 2
0, 0
1, 1
0, 1
0, 1
2, 2
1, 0
1, 1
1, 1
0, 0
1, 1
2, 0
0, 0
0, 0
1, 0
1, 0
1, 1
0, 0
1, 0
0, 1
0, 1
2, 0
1, 0
0, 0
1, 1
1, 1
1, 0
0, 1
1, 0
1, 0
0, 0
0, 0
1, 0
1, 0
1, 0
0, 1
0, 0
1, 0
0, 1
0, 0
0, 0
0, 0
0, 0
0, 0
0, 1
0, 0
1, 0
1, 0
0, 1
0, 0
1, 0
0, 0
0, 0
0, 0
0, 0
0, 0
0, 0
0, 0
0, 0
0, 1
0, 0
0, 0
0, 0
0, 1
0, 0
0, 0
1, 0
0, 0
0, 0
1, 2
1, 0
0, 0
1, 0
0, 0
0, 0
0, 0
0, 0
0, 0
0, 1
1, 0
0, 0
1, 0
1, 0
0, 0
0, 0
0, 0
0, 0
0, 0
0, 0
0, 0
1, 0
0, 0
0, 1
0, 0
1, 1
0, 0
0, 0
2, 1
0, 0
0, 0
0, 0
0, 0
0, 1
0, 0
1, 0
0, 1
0, 0
0, 0
0, 1
0, 0
0, 1
0, 1
0, 1
0, 0
0, 0
0, 0
1, 0
0, 0
1, 0
0, 0
0, 0
0, 0
1, 0
0, 1
0, 0
0, 1
0, 2
0, 0
0, 0
0, 0
0, 0
0, 0
0, 0
0, 0
0, 0
0, 1
0, 0
0, 0
0, 0
0, 0
0, 0
1, 0
0, 0
0, 0
0, 0
0, 0
0, 0
1, 0
1, 1
0, 0
0, 0
0, 0
0, 0
0, 1
0, 1
1, 0
1, 0
0, 0
0, 0
0, 0
0, 0
1, 0
0, 0
1, 0
0, 0
0, 1
0, 0
0, 0
0, 0
0, 0
0, 0
0, 0
0, 0
0, 0
0, 0
1, 0
0, 0
0, 1
0, 0
0, 0
0, 0
2, 0
0, 1
0, 0
0, 0
0, 0
0, 0
0, 0
0, 0
1, 0
0, 0
0, 0
0, 0
1, 0
0, 0
0, 0
0, 0
0, 0
0, 0
0, 0
0, 1
0, 0
0, 0
0, 0
0, 0
0, 0
0, 0
0, 0
0, 1
0, 0
0, 0
0, 1
0, 0
0, 0
0, 1
0, 0
0, 0
0, 0
0, 1
0, 0
1, 0
0, 0
0, 0
0, 0
0, 0
0, 0
0, 0
0, 1
0, 0
0, 0
0, 0
0, 0
0, 0
1, 0
0, 0
0, 0
0, 0
0, 0
0, 0
0, 0
0, 0
0, 0
0, 0
0, 0
0, 0
0, 0
0, 0
0, 0
0, 0
0, 0
0, 0
0, 0
0, 0
0, 0
0, 0
0, 0
0, 0
0, 0
0, 0
0, 0
0, 0
0, 0
0, 0
0, 0
0, 0
0, 0
0, 0
0, 0
0, 0
0, 0
0, 0
0, 0
0, 0
0, 0
0, 0
0, 0
0, 0
0, 0
0, 0
0, 0
0, 0
0, 0
0, 0
0, 0
0, 0
0, 0
0, 0
0, 0
0, 0
0, 1
0, 0
0, 0
0, 0
0, 1
0, 0
0, 0
0, 0
0, 0
0, 0
0, 0
0, 0
0, 0
1, 0
0, 0
0, 0
0, 0
0, 0
0, 0
0, 0
0, 0
0, 0
0, 0
0, 0
0, 0
0, 0
0, 0
0, 0
0, 0
0, 0
0, 0
0, 0
0, 0
0, 0
0, 0
0, 0
0, 0
0, 0
0, 0
0, 0
0, 0
0, 0
0, 0
0, 1
0, 0
0, 0
0, 0
0, 0
0, 0
0, 0
0, 0
1, 0
0, 0
0, 0
0, 0
0, 0
0, 0
0, 0
0, 0
0, 0
0, 0
0, 0
0, 0
0, 0
0, 0
0, 0
0, 0
0, 0
0, 0
0, 0
0, 0
0, 0
0, 0
0, 0
0, 0
0, 0
0, 0
0, 0
0, 0
0, 0
0, 0
0, 0
0, 0
0, 0
0, 0
0, 0
0, 0
0, 0
0, 0
0, 0
0, 0
0, 0
0, 0
0, 0
0, 0
0, 0
0, 0
0, 0
0, 0
0, 0
0, 0
0, 0
0, 0
0, 0
0, 0
0, 0
0, 0
0, 0
0, 0
0, 0
0, 0
0, 0
0, 0
0, 0
0, 0
0, 0
0, 0
0, 0
0, 0
0, 0
0, 0
0, 0
0, 0
0, 0
0, 0
0, 0
0, 0
0, 0
0, 0
0, 0
0, 0
0, 0
0, 0
0, 0
0, 0
0, 0
0, 0
0, 0
0, 0
0, 0
0, 0
0, 0
0, 0
0, 0
0, 0
0, 0
0, 0
0, 0
0, 0
0, 0
0, 0
0, 0
0, 0
0, 0
0, 0
0, 0
0, 0
0, 0
0, 0
0, 0
0, 0
0, 0
0, 0
0, 0
0, 0
0, 0
0, 0
0, 0
0, 0
0, 0
0, 0
0, 0
0, 0
0, 0
0, 0
0, 0
0, 0
0, 0
0, 0
0, 0
0, 0
0, 0
0, 0
0, 0
0, 0
0, 0
0, 0
0, 0
0, 0
0, 0
0, 0
0, 0
0, 0
0, 0
0, 0
0, 0
0, 0
0, 0
0, 0
0, 0
0, 0
0, 0
0, 0
0, 0
0, 0
0, 0
0, 0
0, 0
0, 0
0, 0
0, 0
0, 0
0, 0
0, 0
0, 0
0, 0
0, 0
0, 0
0, 0
0, 0
0, 0
0, 0
0, 0
0, 0
0, 0
0, 0
0, 0
0, 0
0, 0
0, 0
0, 0
0, 0
0, 0
0, 0
0, 0
0, 0
0, 0
0, 0
0, 0
0, 0
0, 0
0, 0
0, 0
0, 0
0, 0
0, 0
0, 0
0, 0
0, 0
0, 0
0, 0
0, 0
0, 0
0, 0
0, 0
0, 0
0, 0
0, 0
0, 0
0, 0
0, 0
0, 0
0, 0
0, 0
0, 0
0, 0
0, 0
0, 0
0, 0
0, 0
0, 0
0, 0
0, 0
0, 0
0, 0
0, 0
0, 0
0, 0
0, 0
0, 0
0, 0
0, 0
0, 0
0, 0
0, 0
0, 0
0, 0
0, 0
0, 0
0, 0
0, 0
0, 0
0, 0
0, 0
0, 0
0, 0
0, 0
0, 0
0, 0
0, 0
0, 0
0, 0
0, 0
0, 0
0, 0
0, 0
0, 0
0, 0
0, 0
0, 0
0, 0
0, 0
0, 0
0, 0
0, 0
0, 0
0, 0
0, 0
0, 0
0, 0
0, 0
0, 0
0, 0
0, 0
0, 0
0, 0
0, 0
0, 0
0, 0
0, 0
0, 0
0, 0
0, 0
0, 0
0, 0
0, 0
0, 0
0, 0
0, 0
0, 0
0, 0
0, 0
0, 0
0, 0
0, 0
0, 0
0, 0
0, 0
0, 0
0, 0
0, 0
0, 0
0, 0
0, 0
0, 0
0, 0
0, 0
0, 0
0, 0
0, 0
0, 0
0, 0
0, 0
0, 0
0, 0
0, 0
0, 0
0, 0
0, 0
0, 0
0, 0
0, 0
0, 0
0, 0
0, 0
0, 0
0, 0
0, 0
0, 0
0, 0
0, 0
0, 0
0, 0
0, 0
0, 0
0, 0
0, 0
0, 0
0, 0
0, 0
0, 0
0, 0
0, 0
0, 0
0, 0
0, 0
0, 0
0, 0
0, 0
0, 0
0, 0
0, 0
0, 0
0, 0
0, 0
#ENDOFDATA     end of spectrum data