File: host_upload/02-11-2024/rqc/uplink1/ps__0567_0717304816_000rfs_shot_297.msa
#FORMAT      : EMSA/MAS spectral data file
#VERSION     : TC202v2.0 PIXL
#TITLE       : Novarupta (sol567) subset1
#DATE        : 02-11-2024      Date in the format DD-MMM-YYYY, for example 07-JUL-2010
#TIME        :             The time of day at which the spectrum was recorded, in 24-hour format
#OWNER       : PIXL Flight Model       (PIXL will use this to indicate which instrument took the data.)
#NPOINTS     : 4096     Number of data points in the spectrum (This can be zero for configuration only files)
#NCOLUMNS    : 2     Number of data columns in the spectrum (This can be zero for configuration only files)
#XUNITS      : eV
#YUNITS      : COUNTS
#DATATYPE    : YY
#XPERCHAN    : 7.862, 7.881   eV per channel (separate by commas if more than one detector)
#OFFSET      : 18.5, -22.4         eV of first channel  (separate by commas if more than one detector
#SIGNALTYPE  : XRF
#YP_TEMP     : 1.081
#LIVETIME    : 8.84425, 8.81852   seconds (separate by commas if more than one detector)
#REALTIME    : 10, 10.0   seconds (separate by commas if more than one detector)
#SPECTRUM    : start of spectrum data
0, 0
0, 0
0, 0
0, 0
0, 0
0, 0
0, 0
0, 0
0, 0
0, 0
0, 0
0, 0
0, 0
0, 0
0, 0
0, 0
0, 0
0, 0
0, 0
0, 0
0, 0
0, 0
0, 0
0, 0
0, 0
0, 0
0, 0
0, 0
0, 0
1, 0
0, 0
0, 0
0, 0
0, 2
1, 1
0, 1
1, 0
3, 1
2, 6
2, 5
4, 7
2, 4
4, 3
4, 4
4, 3
3, 4
1, 3
3, 4
1, 2
6, 8
10, 7
15, 9
8, 10
16, 20
12, 17
15, 18
6, 21
6, 8
10, 13
15, 5
9, 15
20, 31
41, 43
57, 48
44, 69
38, 47
44, 44
45, 30
38, 46
67, 59
123, 146
190, 227
309, 325
412, 446
452, 577
511, 546
413, 494
359, 381
262, 236
151, 152
80, 80
43, 59
34, 39
27, 32
27, 33
29, 36
31, 31
26, 39
26, 31
33, 20
20, 19
17, 17
23, 32
39, 54
78, 98
155, 176
190, 237
262, 293
321, 341
324, 351
286, 307
212, 204
162, 164
102, 105
87, 65
56, 56
56, 62
56, 73
88, 103
126, 146
150, 199
200, 207
213, 212
207, 224
192, 194
171, 188
138, 136
108, 120
80, 78
92, 78
75, 84
74, 83
40, 81
66, 51
44, 50
24, 31
29, 29
28, 20
23, 25
17, 13
5, 11
12, 11
7, 5
5, 4
9, 4
9, 9
10, 10
6, 19
15, 21
26, 25
23, 37
33, 49
34, 40
16, 28
19, 23
18, 19
5, 9
2, 6
9, 16
12, 22
23, 36
48, 66
73, 74
155, 193
218, 249
264, 322
350, 441
360, 400
350, 421
295, 331
216, 272
164, 186
105, 106
59, 58
41, 40
30, 29
24, 39
22, 34
33, 59
44, 71
56, 72
62, 74
51, 54
42, 53
32, 46
21, 22
17, 20
11, 13
10, 9
9, 12
10, 9
5, 11
14, 8
12, 8
7, 8
14, 8
15, 13
23, 37
37, 34
47, 56
46, 72
55, 65
64, 55
65, 64
56, 62
38, 34
28, 34
25, 23
21, 23
28, 15
15, 22
15, 10
15, 13
10, 15
9, 12
10, 19
15, 20
15, 9
14, 18
25, 23
22, 25
19, 20
24, 22
13, 11
17, 15
11, 13
16, 19
12, 10
3, 12
11, 9
8, 16
10, 15
12, 5
14, 16
16, 14
13, 20
8, 29
22, 31
23, 36
28, 29
24, 27
24, 25
38, 26
24, 32
25, 20
19, 12
17, 14
11, 11
11, 18
14, 6
9, 17
12, 16
9, 16
16, 13
18, 17
25, 24
36, 22
27, 28
30, 38
42, 54
39, 56
53, 54
65, 55
40, 55
37, 32
22, 26
29, 28
26, 22
11, 12
19, 19
18, 29
25, 32
40, 52
70, 95
122, 135
212, 286
355, 516
528, 710
848, 1049
1106, 1373
1404, 1659
1637, 1841
1737, 1911
1620, 1685
1478, 1433
1147, 1199
887, 859
569, 569
386, 324
230, 164
118, 104
58, 62
46, 22
24, 17
17, 24
16, 17
20, 21
12, 26
21, 16
22, 22
15, 22
37, 35
44, 51
64, 71
90, 105
129, 126
144, 171
208, 231
229, 269
260, 287
277, 318
258, 273
208, 241
193, 171
122, 105
99, 85
67, 51
37, 33
24, 18
17, 22
12, 11
8, 9
7, 6
10, 9
8, 8
8, 16
16, 17
17, 12
16, 18
11, 16
1, 11
10, 8
8, 6
7, 6
10, 5
6, 3
8, 9
3, 5
10, 10
5, 7
12, 6
6, 5
3, 3
5, 5
7, 4
3, 10
5, 5
6, 4
9, 3
6, 6
5, 4
6, 4
3, 5
9, 2
4, 4
7, 5
11, 10
9, 6
4, 8
8, 10
7, 7
5, 10
6, 4
7, 6
4, 6
6, 5
12, 4
5, 12
6, 10
8, 5
10, 10
9, 6
10, 8
7, 9
10, 14
6, 13
8, 6
7, 14
7, 12
12, 12
5, 7
7, 13
6, 5
8, 9
4, 4
6, 8
2, 3
6, 7
3, 7
5, 7
6, 5
6, 9
3, 5
4, 4
7, 6
5, 9
6, 6
7, 5
8, 6
10, 2
2, 6
4, 5
4, 8
2, 6
4, 6
4, 12
5, 4
5, 9
7, 10
8, 5
2, 7
4, 4
4, 8
7, 1
1, 2
6, 9
4, 10
6, 3
6, 10
3, 3
3, 6
5, 8
3, 5
6, 10
3, 5
6, 9
5, 1
5, 6
3, 4
0, 2
5, 5
2, 4
2, 7
5, 7
3, 7
3, 8
3, 3
9, 3
5, 4
10, 2
3, 4
3, 7
5, 2
4, 4
4, 3
5, 7
2, 5
2, 4
2, 2
5, 7
4, 5
1, 3
6, 3
4, 4
3, 4
1, 5
7, 6
4, 5
3, 3
2, 1
4, 3
2, 4
2, 5
4, 3
1, 3
4, 2
5, 0
1, 5
3, 5
2, 3
2, 2
5, 2
4, 4
6, 6
1, 2
4, 5
4, 4
5, 2
3, 0
3, 1
1, 8
7, 3
2, 0
1, 1
1, 0
3, 7
0, 4
3, 6
1, 4
1, 2
3, 4
2, 0
2, 2
2, 0
4, 2
2, 4
1, 4
3, 0
1, 2
2, 1
4, 2
0, 5
2, 1
1, 1
2, 1
1, 4
3, 1
4, 1
0, 6
1, 3
1, 7
3, 3
0, 3
0, 2
2, 5
3, 2
2, 3
1, 1
1, 1
4, 3
2, 2
4, 6
2, 2
4, 1
2, 1
1, 3
1, 4
0, 4
2, 2
2, 1
0, 0
3, 1
2, 3
1, 5
1, 0
2, 2
1, 6
0, 1
3, 4
3, 1
2, 5
1, 1
2, 3
1, 2
1, 2
3, 1
1, 2
1, 3
3, 1
2, 3
4, 6
2, 5
3, 2
5, 3
2, 3
5, 1
5, 2
3, 2
1, 5
1, 3
1, 1
1, 0
4, 4
1, 1
1, 1
3, 0
1, 2
3, 4
4, 1
0, 2
0, 1
0, 6
4, 3
2, 1
2, 2
1, 3
0, 1
1, 2
3, 2
3, 1
1, 2
3, 4
1, 2
2, 0
2, 3
1, 1
3, 7
1, 3
0, 0
0, 2
1, 2
0, 0
1, 1
3, 1
2, 2
0, 1
2, 0
1, 1
0, 4
0, 0
0, 1
1, 0
0, 0
0, 2
2, 2
1, 0
1, 4
1, 1
2, 3
1, 0
1, 1
0, 1
1, 1
0, 1
1, 3
2, 0
0, 0
1, 0
3, 1
1, 1
2, 1
2, 0
1, 1
3, 2
1, 1
1, 2
0, 1
1, 0
2, 1
0, 0
0, 0
0, 1
0, 0
4, 0
1, 1
0, 0
1, 1
0, 0
1, 0
1, 0
0, 0
4, 0
0, 1
0, 2
2, 1
0, 2
1, 2
0, 0
0, 3
0, 0
2, 1
2, 2
0, 1
1, 0
1, 0
0, 0
1, 0
1, 1
0, 0
0, 1
1, 2
0, 0
1, 0
0, 1
0, 0
0, 1
1, 0
0, 1
1, 1
0, 0
0, 2
1, 0
3, 1
2, 0
0, 0
0, 0
0, 1
0, 1
1, 0
1, 1
0, 0
0, 0
1, 1
0, 0
0, 1
1, 0
1, 0
0, 1
1, 0
0, 1
1, 1
1, 0
0, 0
0, 1
0, 0
0, 0
0, 0
0, 0
0, 1
2, 0
2, 0
1, 0
0, 1
0, 0
0, 0
0, 0
0, 1
1, 0
1, 1
0, 0
0, 1
0, 1
1, 0
1, 0
0, 2
0, 0
0, 0
1, 0
0, 0
0, 0
1, 3
0, 0
0, 0
3, 0
1, 0
0, 0
1, 1
0, 1
1, 1
0, 0
0, 0
0, 0
0, 0
0, 0
0, 1
0, 1
0, 0
0, 0
0, 0
0, 0
1, 0
0, 0
1, 1
0, 1
0, 2
0, 1
0, 0
1, 0
0, 0
0, 0
0, 1
0, 0
2, 0
0, 2
0, 0
2, 0
0, 0
0, 1
0, 0
1, 0
0, 0
1, 0
0, 0
0, 2
0, 0
0, 0
0, 0
0, 0
1, 0
0, 1
0, 0
0, 0
0, 0
0, 0
1, 0
1, 0
0, 0
0, 0
0, 1
0, 0
0, 0
0, 0
1, 0
0, 0
0, 1
0, 0
0, 0
0, 1
0, 0
0, 0
0, 0
0, 0
0, 1
1, 1
0, 1
0, 2
0, 0
0, 1
0, 0
0, 0
1, 0
0, 0
0, 1
0, 0
0, 0
0, 0
1, 0
0, 0
0, 1
0, 0
1, 0
0, 1
0, 0
0, 1
0, 1
0, 0
0, 0
0, 0
0, 1
0, 0
0, 1
0, 0
0, 0
0, 0
0, 0
0, 0
0, 0
0, 0
0, 0
0, 0
1, 0
0, 0
0, 0
0, 0
0, 0
0, 0
0, 1
0, 0
0, 0
0, 1
0, 0
0, 0
0, 0
0, 0
0, 0
0, 0
0, 0
0, 0
1, 0
0, 0
0, 0
0, 0
0, 0
0, 0
0, 0
0, 0
0, 0
0, 0
0, 1
0, 0
0, 0
0, 0
0, 0
0, 1
1, 0
0, 0
0, 0
0, 0
0, 0
0, 0
0, 0
0, 0
0, 0
0, 0
0, 0
0, 0
1, 0
0, 0
0, 0
0, 0
0, 0
0, 0
0, 0
0, 0
0, 0
0, 0
0, 0
0, 0
0, 0
0, 0
0, 1
0, 0
0, 0
0, 0
0, 0
0, 0
0, 0
0, 0
0, 0
0, 0
0, 0
0, 0
0, 0
0, 0
0, 0
0, 0
1, 0
0, 0
0, 0
0, 0
0, 0
0, 0
0, 0
0, 1
0, 0
0, 0
0, 1
0, 0
0, 0
0, 0
0, 0
0, 0
0, 0
0, 0
0, 0
0, 0
0, 0
0, 0
0, 0
0, 0
0, 0
0, 0
0, 0
0, 0
0, 0
0, 0
0, 0
0, 0
0, 0
0, 0
0, 0
0, 0
0, 0
0, 0
1, 0
0, 0
0, 0
0, 0
0, 0
0, 0
0, 0
0, 0
0, 0
0, 0
0, 0
0, 0
0, 0
0, 0
0, 0
0, 0
0, 0
0, 0
0, 0
0, 0
0, 0
0, 0
0, 0
0, 0
0, 0
0, 0
1, 0
0, 0
0, 0
0, 0
0, 0
0, 1
0, 0
0, 0
0, 0
0, 0
0, 0
0, 0
0, 0
0, 0
0, 0
0, 0
0, 0
0, 0
0, 0
0, 0
0, 0
0, 0
0, 0
0, 0
0, 0
0, 0
0, 0
0, 0
0, 0
0, 0
0, 0
0, 0
0, 0
0, 0
0, 0
0, 0
0, 0
0, 0
0, 0
0, 0
0, 0
0, 0
0, 0
0, 0
0, 0
0, 0
0, 0
0, 0
0, 0
0, 0
0, 0
0, 0
0, 0
0, 0
0, 0
0, 0
0, 0
0, 0
0, 0
0, 0
0, 0
0, 0
0, 0
0, 0
0, 0
0, 0
0, 0
0, 0
0, 0
0, 0
0, 0
0, 0
0, 0
0, 0
0, 0
0, 0
0, 0
0, 0
0, 0
0, 0
0, 0
0, 0
0, 0
0, 0
0, 0
0, 0
0, 0
0, 0
0, 0
0, 0
0, 1
0, 0
0, 0
0, 0
0, 0
0, 0
0, 0
0, 0
0, 0
0, 0
0, 0
0, 0
0, 0
0, 0
0, 0
0, 0
0, 0
0, 0
0, 0
0, 0
0, 0
0, 0
0, 0
0, 0
0, 0
0, 0
0, 0
0, 0
0, 0
0, 0
0, 0
0, 0
0, 0
0, 0
0, 0
0, 0
0, 0
0, 0
0, 0
0, 0
0, 0
0, 0
0, 0
0, 0
0, 0
0, 0
0, 0
0, 0
0, 0
0, 0
0, 0
0, 0
0, 0
0, 0
0, 0
0, 0
0, 0
0, 0
0, 0
0, 0
0, 0
0, 0
0, 0
0, 0
0, 0
0, 0
0, 0
0, 0
0, 0
0, 0
0, 0
0, 0
0, 0
0, 0
0, 0
0, 0
0, 0
0, 0
0, 0
0, 0
0, 0
0, 0
0, 0
0, 0
0, 0
0, 0
0, 0
0, 0
0, 0
0, 0
0, 0
0, 0
0, 0
0, 0
0, 0
0, 0
0, 0
0, 0
0, 0
0, 0
0, 0
0, 0
0, 0
0, 0
0, 0
0, 0
0, 0
0, 0
0, 0
0, 0
0, 0
0, 0
0, 0
0, 0
0, 0
0, 0
0, 0
0, 0
0, 0
0, 0
0, 0
0, 0
0, 0
0, 0
0, 0
0, 0
0, 0
0, 0
0, 0
0, 0
0, 0
0, 0
0, 0
0, 0
0, 0
0, 0
0, 0
0, 0
0, 0
0, 0
0, 0
0, 0
0, 0
0, 0
0, 0
0, 0
0, 0
0, 0
0, 0
0, 0
0, 0
0, 0
0, 0
0, 0
0, 0
0, 0
0, 0
0, 0
0, 0
0, 0
0, 0
0, 0
0, 0
0, 0
0, 0
0, 0
0, 0
0, 0
0, 0
0, 0
0, 0
0, 0
0, 0
0, 0
0, 0
0, 0
0, 0
0, 0
0, 0
0, 0
0, 0
0, 0
0, 0
0, 0
0, 0
0, 0
0, 0
0, 0
0, 0
0, 0
0, 0
0, 0
0, 0
0, 0
0, 0
0, 0
0, 0
0, 0
0, 0
0, 0
0, 0
0, 0
0, 0
0, 0
0, 0
0, 0
0, 0
0, 0
0, 0
0, 0
0, 0
0, 0
0, 0
0, 0
0, 0
0, 0
0, 0
0, 0
0, 0
0, 0
0, 0
0, 0
0, 0
0, 0
0, 0
0, 0
0, 0
0, 0
0, 0
0, 0
0, 0
0, 0
0, 0
0, 0
0, 0
0, 0
0, 0
0, 0
0, 0
0, 0
0, 0
0, 0
0, 0
0, 0
0, 0
0, 0
0, 0
0, 0
0, 0
0, 0
0, 0
0, 0
0, 0
0, 0
0, 0
0, 0
0, 0
0, 0
0, 0
0, 0
0, 0
0, 0
0, 0
0, 0
0, 0
0, 0
0, 0
0, 0
0, 0
0, 0
0, 0
0, 0
0, 0
0, 0
0, 0
0, 0
0, 0
0, 0
0, 0
0, 0
0, 0
0, 0
0, 0
0, 0
0, 0
0, 0
0, 0
0, 0
0, 0
0, 0
0, 0
0, 0
0, 0
0, 0
0, 0
0, 0
0, 0
0, 0
0, 0
0, 0
0, 0
0, 0
0, 0
0, 0
0, 0
0, 0
0, 0
0, 0
0, 0
0, 0
0, 0
0, 0
0, 0
0, 0
0, 0
0, 0
#ENDOFDATA     end of spectrum data