File: host_upload/02-11-2024/rqc/uplink1/ps__0567_0717304816_000rfs_shot_317.msa
#FORMAT      : EMSA/MAS spectral data file
#VERSION     : TC202v2.0 PIXL
#TITLE       : Novarupta (sol567) subset1
#DATE        : 02-11-2024      Date in the format DD-MMM-YYYY, for example 07-JUL-2010
#TIME        :             The time of day at which the spectrum was recorded, in 24-hour format
#OWNER       : PIXL Flight Model       (PIXL will use this to indicate which instrument took the data.)
#NPOINTS     : 4096     Number of data points in the spectrum (This can be zero for configuration only files)
#NCOLUMNS    : 2     Number of data columns in the spectrum (This can be zero for configuration only files)
#XUNITS      : eV
#YUNITS      : COUNTS
#DATATYPE    : YY
#XPERCHAN    : 7.862, 7.881   eV per channel (separate by commas if more than one detector)
#OFFSET      : 18.5, -22.4         eV of first channel  (separate by commas if more than one detector
#SIGNALTYPE  : XRF
#YP_TEMP     : 1.241
#LIVETIME    : 8.82505, 8.8151   seconds (separate by commas if more than one detector)
#REALTIME    : 10, 10.0   seconds (separate by commas if more than one detector)
#SPECTRUM    : start of spectrum data
0, 0
0, 0
0, 0
0, 0
0, 0
0, 0
0, 0
0, 0
0, 0
0, 0
0, 0
0, 0
0, 0
0, 0
0, 0
0, 0
0, 0
0, 0
0, 0
0, 0
0, 0
0, 0
0, 0
0, 0
0, 0
0, 0
0, 0
0, 0
0, 0
0, 0
0, 0
0, 0
0, 1
1, 0
2, 0
0, 0
8, 2
2, 7
5, 2
0, 5
3, 5
3, 2
4, 5
1, 4
2, 2
1, 3
3, 3
2, 3
7, 3
3, 0
4, 4
12, 6
11, 12
15, 14
11, 23
14, 14
14, 3
11, 9
6, 10
10, 10
22, 16
23, 30
34, 34
53, 39
48, 52
40, 55
40, 37
39, 26
30, 40
63, 64
111, 116
167, 178
309, 306
421, 418
470, 501
482, 529
421, 422
343, 320
219, 222
154, 138
76, 74
47, 46
26, 36
27, 38
33, 37
38, 27
35, 35
25, 21
27, 27
26, 19
11, 24
23, 18
36, 32
42, 37
85, 86
152, 151
199, 224
222, 277
284, 306
297, 305
278, 287
185, 197
147, 147
91, 106
71, 60
54, 50
45, 67
56, 55
88, 117
133, 128
151, 196
190, 212
213, 228
220, 212
193, 187
152, 173
148, 140
92, 118
82, 87
81, 56
60, 75
72, 66
57, 62
42, 44
54, 52
37, 30
44, 28
23, 17
14, 9
10, 14
8, 12
8, 7
6, 8
9, 8
6, 5
10, 5
8, 18
17, 14
18, 19
26, 20
31, 25
26, 27
22, 23
26, 29
24, 22
21, 18
13, 13
9, 9
16, 14
15, 20
16, 34
42, 61
80, 78
111, 139
206, 236
261, 305
355, 335
372, 346
384, 343
296, 292
219, 254
169, 170
115, 108
72, 62
34, 30
35, 24
29, 23
29, 35
39, 44
52, 39
63, 65
65, 60
53, 70
51, 43
40, 40
30, 22
15, 21
14, 9
11, 11
5, 16
4, 3
9, 6
10, 11
9, 9
10, 14
9, 15
9, 18
26, 24
34, 45
49, 48
55, 57
71, 57
57, 71
63, 51
59, 67
49, 43
39, 37
29, 26
29, 22
26, 17
14, 14
11, 11
10, 16
12, 16
9, 14
10, 14
21, 15
9, 9
21, 20
14, 12
18, 29
23, 23
16, 18
26, 17
19, 12
12, 11
11, 12
13, 18
9, 12
16, 10
11, 9
9, 11
14, 15
11, 10
15, 14
15, 16
19, 18
23, 20
25, 29
27, 31
44, 21
31, 31
30, 26
16, 16
24, 22
22, 12
19, 18
11, 14
13, 9
7, 8
9, 19
12, 10
7, 13
17, 13
15, 17
18, 19
31, 34
30, 32
35, 48
53, 58
60, 56
51, 50
50, 46
56, 43
36, 28
24, 43
32, 33
21, 21
24, 15
19, 22
21, 19
25, 26
27, 37
59, 72
108, 149
225, 274
365, 442
609, 665
901, 995
1145, 1311
1499, 1574
1672, 1744
1755, 1786
1672, 1733
1513, 1355
1265, 1076
864, 786
626, 516
345, 299
212, 165
101, 97
58, 50
47, 36
29, 16
19, 15
19, 15
13, 16
16, 19
20, 18
18, 27
26, 25
31, 40
38, 45
62, 79
86, 102
120, 135
165, 178
169, 224
250, 267
231, 287
271, 281
256, 268
211, 203
180, 166
138, 124
97, 80
56, 49
43, 32
23, 22
8, 17
11, 2
12, 4
13, 12
7, 5
7, 11
15, 7
10, 13
17, 10
8, 10
10, 12
8, 10
12, 14
5, 13
6, 8
8, 8
4, 4
4, 7
6, 8
4, 5
6, 6
6, 4
4, 6
2, 8
8, 3
5, 7
5, 2
3, 7
8, 3
6, 4
6, 10
10, 7
3, 6
7, 6
4, 4
8, 9
5, 4
7, 6
5, 5
3, 3
5, 6
6, 11
9, 11
5, 4
4, 4
7, 4
5, 2
3, 8
6, 7
8, 3
4, 3
9, 6
3, 8
4, 9
6, 10
5, 8
9, 14
13, 9
14, 11
11, 11
8, 9
5, 10
16, 9
11, 7
2, 1
7, 5
4, 4
9, 7
5, 4
5, 7
6, 4
5, 4
5, 6
2, 6
6, 4
8, 5
4, 7
4, 8
8, 3
8, 11
7, 3
4, 4
7, 4
5, 3
2, 5
5, 3
5, 3
2, 7
4, 6
3, 3
3, 6
6, 5
4, 6
2, 7
1, 5
3, 6
6, 7
4, 10
5, 11
7, 8
7, 3
7, 6
7, 4
6, 4
3, 6
9, 3
7, 2
9, 5
2, 5
6, 2
1, 5
1, 5
6, 4
8, 5
4, 3
4, 5
7, 4
6, 6
4, 7
3, 0
7, 3
5, 3
2, 4
3, 4
4, 4
3, 4
5, 5
3, 6
6, 4
6, 5
5, 5
4, 3
7, 10
4, 4
5, 0
5, 3
3, 2
4, 6
0, 8
4, 6
3, 6
2, 7
1, 5
1, 2
1, 4
4, 2
4, 1
1, 4
1, 2
5, 4
2, 2
4, 2
1, 3
3, 3
2, 5
2, 3
4, 2
9, 2
5, 2
6, 3
2, 4
8, 3
3, 2
1, 4
0, 2
2, 5
2, 0
4, 4
4, 0
2, 2
4, 3
2, 2
0, 0
3, 5
1, 0
2, 3
1, 7
2, 5
2, 3
2, 1
2, 2
3, 2
2, 1
3, 2
2, 3
4, 4
2, 3
4, 2
4, 4
3, 3
1, 3
1, 2
0, 2
2, 2
3, 3
2, 3
1, 2
3, 4
2, 2
2, 3
0, 3
1, 2
1, 2
1, 2
1, 3
0, 3
4, 2
1, 1
1, 1
3, 0
3, 5
1, 1
0, 2
3, 1
3, 0
1, 2
1, 2
2, 3
1, 3
2, 4
2, 1
1, 4
0, 2
5, 2
1, 2
4, 0
2, 1
4, 1
5, 2
2, 4
4, 5
5, 1
1, 2
2, 2
3, 5
3, 2
4, 3
3, 1
2, 1
2, 2
2, 5
0, 2
1, 0
1, 1
1, 2
1, 2
2, 3
3, 1
2, 3
1, 3
2, 1
1, 3
2, 3
2, 1
1, 2
2, 0
3, 0
1, 1
2, 1
0, 2
0, 1
0, 2
1, 2
3, 0
1, 2
3, 0
3, 3
2, 3
1, 2
1, 2
1, 2
0, 0
2, 1
0, 0
1, 2
2, 1
1, 0
0, 0
1, 0
2, 2
2, 1
2, 2
1, 2
1, 0
2, 2
3, 2
1, 2
0, 0
0, 0
1, 1
1, 0
2, 2
0, 1
0, 1
0, 0
1, 0
0, 1
2, 0
0, 1
1, 1
1, 1
0, 2
1, 0
0, 0
2, 1
1, 1
0, 1
3, 0
0, 1
1, 1
0, 1
0, 1
0, 0
0, 1
2, 1
1, 1
1, 0
1, 0
0, 1
0, 2
1, 1
1, 0
2, 1
0, 1
0, 0
2, 1
1, 1
1, 1
1, 2
1, 2
1, 3
1, 2
1, 2
1, 2
2, 2
0, 0
3, 1
2, 0
1, 1
1, 0
2, 2
1, 1
0, 0
1, 1
0, 1
0, 0
0, 0
1, 1
0, 0
0, 0
2, 0
0, 0
1, 0
0, 0
1, 0
2, 1
0, 0
0, 0
1, 0
1, 2
0, 0
1, 0
1, 1
1, 1
3, 0
0, 0
0, 1
2, 0
0, 1
1, 0
0, 0
0, 1
0, 2
0, 0
0, 0
1, 2
0, 0
0, 0
0, 1
0, 0
1, 1
0, 0
0, 1
1, 0
0, 0
1, 0
0, 1
0, 0
0, 0
0, 0
0, 0
0, 0
0, 1
0, 0
1, 2
0, 0
1, 1
1, 0
0, 0
0, 1
0, 0
0, 0
0, 1
0, 1
0, 0
0, 1
0, 0
0, 0
0, 0
0, 0
0, 0
0, 1
0, 0
0, 0
1, 0
1, 0
1, 2
1, 1
1, 0
0, 0
1, 1
0, 0
0, 0
1, 0
0, 0
1, 1
0, 0
0, 0
0, 0
0, 0
0, 0
0, 0
0, 0
0, 0
0, 0
0, 0
0, 0
1, 0
0, 2
0, 1
0, 2
0, 1
0, 0
0, 0
0, 2
0, 0
0, 0
1, 1
1, 0
0, 0
1, 0
1, 0
0, 0
1, 0
0, 0
0, 0
0, 2
1, 0
1, 1
1, 0
1, 0
0, 1
1, 0
0, 0
0, 0
1, 0
0, 0
0, 0
0, 0
0, 0
2, 0
1, 0
1, 0
0, 0
0, 0
0, 1
0, 0
0, 0
0, 0
0, 0
0, 0
0, 0
0, 0
0, 1
1, 0
1, 0
0, 0
1, 0
1, 1
0, 2
0, 0
0, 0
0, 0
1, 0
0, 0
0, 1
0, 0
0, 0
0, 0
0, 1
1, 0
2, 0
1, 0
0, 0
0, 0
0, 1
1, 0
0, 0
0, 0
0, 0
0, 0
0, 0
0, 0
0, 0
1, 0
0, 0
0, 0
0, 0
0, 0
0, 0
1, 0
0, 0
0, 0
0, 2
0, 0
1, 0
0, 0
1, 0
0, 0
0, 0
0, 0
0, 0
1, 0
0, 0
0, 0
0, 1
0, 0
0, 0
0, 0
0, 0
1, 0
0, 0
0, 0
0, 0
1, 0
0, 0
0, 0
1, 1
0, 0
0, 0
0, 0
0, 0
0, 0
1, 0
1, 0
0, 0
0, 1
0, 1
0, 0
0, 0
0, 0
0, 0
0, 0
0, 0
0, 0
0, 0
0, 0
0, 0
0, 0
0, 0
0, 0
0, 0
0, 0
0, 0
0, 0
1, 0
0, 0
1, 0
1, 0
0, 0
0, 0
0, 0
0, 0
0, 0
0, 0
0, 0
0, 0
0, 0
0, 0
0, 0
0, 0
0, 0
0, 0
1, 1
0, 0
0, 0
0, 0
1, 0
0, 0
0, 0
0, 1
0, 0
0, 0
0, 0
0, 0
0, 0
0, 0
0, 0
0, 1
0, 0
0, 0
0, 0
0, 0
0, 0
0, 0
0, 0
0, 0
0, 0
0, 0
0, 0
0, 0
0, 0
0, 0
0, 0
0, 0
1, 0
0, 0
0, 0
0, 0
0, 0
0, 0
0, 0
0, 0
0, 0
0, 0
0, 0
0, 0
0, 0
0, 0
0, 0
0, 0
0, 0
0, 0
0, 0
0, 0
0, 0
0, 0
0, 0
0, 0
0, 0
0, 1
0, 0
0, 0
0, 0
0, 0
0, 0
0, 0
0, 0
0, 0
0, 0
0, 0
0, 0
0, 0
0, 0
0, 0
0, 0
0, 0
0, 0
0, 0
0, 0
0, 0
0, 0
0, 0
0, 0
0, 0
0, 0
0, 0
0, 0
0, 0
0, 0
0, 0
0, 0
0, 0
0, 0
0, 0
0, 1
0, 0
0, 0
0, 0
0, 0
0, 0
0, 0
0, 0
0, 0
0, 0
0, 0
0, 0
0, 0
0, 0
0, 0
0, 0
0, 0
0, 0
0, 0
0, 0
0, 0
0, 0
0, 0
0, 0
0, 0
0, 0
0, 0
0, 0
0, 0
0, 0
0, 0
0, 0
0, 0
0, 0
0, 0
0, 0
0, 0
0, 0
0, 0
0, 0
0, 0
0, 0
0, 0
0, 0
0, 0
0, 0
0, 0
0, 0
0, 0
0, 0
0, 0
0, 0
0, 0
0, 0
0, 0
0, 0
0, 0
0, 0
0, 0
0, 0
0, 0
0, 0
0, 0
0, 0
0, 0
0, 0
0, 0
0, 0
0, 0
0, 0
0, 0
0, 0
0, 0
0, 0
0, 0
0, 0
0, 0
0, 0
0, 0
0, 0
0, 0
0, 0
0, 0
0, 0
0, 0
0, 0
0, 0
0, 0
0, 0
0, 0
0, 0
0, 0
0, 0
0, 0
0, 0
0, 0
0, 0
0, 0
0, 0
0, 0
0, 0
0, 0
0, 0
0, 0
0, 0
0, 0
0, 0
0, 0
0, 0
0, 0
0, 0
0, 0
0, 0
0, 0
0, 0
0, 0
0, 0
0, 0
0, 0
0, 0
0, 0
0, 0
0, 0
0, 0
0, 0
0, 0
0, 0
0, 0
0, 0
0, 0
0, 0
0, 0
0, 0
0, 0
0, 0
0, 0
0, 0
0, 0
0, 0
0, 0
0, 0
0, 0
0, 0
0, 0
0, 0
0, 0
0, 0
0, 0
0, 0
0, 0
0, 0
0, 0
0, 0
0, 0
0, 0
0, 0
0, 0
0, 0
0, 0
0, 0
0, 0
0, 0
0, 0
0, 0
0, 0
0, 0
0, 0
0, 0
0, 0
0, 0
0, 0
0, 0
0, 0
0, 0
0, 0
0, 0
0, 0
0, 0
0, 0
0, 0
0, 0
0, 0
0, 0
0, 0
0, 0
0, 0
0, 0
0, 0
0, 0
0, 0
0, 0
0, 0
0, 0
0, 0
0, 0
0, 0
0, 0
0, 0
0, 0
0, 0
0, 0
0, 0
0, 0
0, 0
0, 0
0, 0
0, 0
0, 0
0, 0
0, 0
0, 0
0, 0
0, 0
0, 0
0, 0
0, 0
0, 0
0, 0
0, 0
0, 0
0, 0
0, 0
0, 0
0, 0
0, 0
0, 0
0, 0
0, 0
0, 0
0, 0
0, 0
0, 0
0, 0
0, 0
0, 0
0, 0
0, 0
0, 0
0, 0
0, 0
0, 0
0, 0
0, 0
0, 0
0, 0
0, 0
0, 0
0, 0
0, 0
0, 0
0, 0
0, 0
0, 0
0, 0
0, 0
0, 0
0, 0
0, 0
0, 0
0, 0
0, 0
0, 0
0, 0
0, 0
0, 0
0, 0
0, 0
0, 0
0, 0
0, 0
0, 0
0, 0
0, 0
0, 0
0, 0
0, 0
0, 0
0, 0
0, 0
0, 0
0, 0
0, 0
0, 0
0, 0
0, 0
0, 0
0, 0
0, 0
0, 0
0, 0
0, 0
0, 0
0, 0
0, 0
0, 0
0, 0
0, 0
0, 0
0, 0
0, 0
0, 0
0, 0
0, 0
0, 0
0, 0
0, 0
0, 0
0, 0
0, 0
0, 0
0, 0
0, 0
0, 0
0, 0
0, 0
0, 0
0, 0
0, 0
0, 0
0, 0
0, 0
0, 0
0, 0
0, 0
0, 0
0, 0
0, 0
0, 0
0, 0
0, 0
0, 0
0, 0
0, 0
0, 0
0, 0
0, 0
0, 0
0, 0
0, 0
0, 0
0, 0
0, 0
0, 0
0, 0
0, 0
0, 0
0, 0
0, 0
0, 0
0, 0
0, 0
0, 0
0, 0
0, 0
0, 0
0, 0
0, 0
0, 0
0, 0
0, 0
0, 0
0, 0
0, 0
0, 0
0, 0
0, 0
0, 0
0, 0
0, 0
0, 0
0, 0
0, 0
#ENDOFDATA     end of spectrum data