File: host_upload/02-11-2024/rqc/uplink1/ps__0567_0717304816_000rfs_shot_114.msa
#FORMAT      : EMSA/MAS spectral data file
#VERSION     : TC202v2.0 PIXL
#TITLE       : Novarupta (sol567) subset1
#DATE        : 02-11-2024      Date in the format DD-MMM-YYYY, for example 07-JUL-2010
#TIME        :             The time of day at which the spectrum was recorded, in 24-hour format
#OWNER       : PIXL Flight Model       (PIXL will use this to indicate which instrument took the data.)
#NPOINTS     : 4096     Number of data points in the spectrum (This can be zero for configuration only files)
#NCOLUMNS    : 2     Number of data columns in the spectrum (This can be zero for configuration only files)
#XUNITS      : eV
#YUNITS      : COUNTS
#DATATYPE    : YY
#XPERCHAN    : 7.862, 7.881   eV per channel (separate by commas if more than one detector)
#OFFSET      : 18.5, -22.4         eV of first channel  (separate by commas if more than one detector
#SIGNALTYPE  : XRF
#YP_TEMP     : -0.362
#LIVETIME    : 8.83828, 8.83293   seconds (separate by commas if more than one detector)
#REALTIME    : 10, 10.0   seconds (separate by commas if more than one detector)
#SPECTRUM    : start of spectrum data
0, 0
0, 0
0, 0
0, 0
0, 0
0, 0
0, 0
0, 0
0, 0
0, 0
0, 0
0, 0
0, 0
0, 0
0, 0
0, 0
0, 0
0, 0
0, 0
0, 0
0, 0
0, 0
0, 0
0, 0
0, 0
0, 0
0, 0
0, 0
0, 0
0, 0
0, 0
0, 1
0, 0
0, 1
0, 1
0, 2
2, 2
6, 0
6, 4
1, 3
3, 5
9, 4
1, 1
3, 1
4, 3
2, 4
3, 3
4, 3
3, 3
2, 4
7, 10
6, 10
18, 7
21, 16
20, 13
13, 11
7, 11
6, 9
9, 5
17, 17
19, 16
33, 21
40, 36
46, 41
42, 57
47, 53
30, 40
30, 28
33, 56
65, 64
129, 122
180, 207
276, 361
444, 427
440, 534
502, 487
418, 423
338, 279
251, 227
146, 127
88, 78
51, 56
33, 38
25, 36
27, 35
47, 29
35, 29
29, 29
28, 24
25, 31
14, 15
23, 19
33, 23
43, 48
98, 85
127, 141
198, 211
270, 256
293, 312
271, 292
255, 274
200, 192
155, 157
90, 91
63, 76
49, 57
39, 60
52, 81
89, 97
116, 145
191, 151
186, 189
190, 212
203, 213
202, 187
184, 148
120, 112
121, 90
82, 83
79, 94
70, 59
81, 69
67, 64
46, 47
33, 42
43, 45
33, 29
24, 25
19, 15
11, 15
6, 13
10, 5
7, 9
7, 4
3, 7
13, 9
9, 8
12, 22
20, 17
20, 25
32, 23
36, 32
20, 37
16, 29
13, 21
21, 20
8, 12
8, 15
10, 14
25, 25
32, 22
55, 58
93, 107
146, 161
221, 259
279, 317
351, 376
359, 387
368, 382
276, 298
236, 225
154, 137
111, 81
53, 52
35, 34
27, 21
31, 29
37, 32
46, 54
42, 45
57, 54
58, 56
55, 52
35, 35
34, 29
20, 28
18, 24
20, 11
5, 4
6, 8
5, 3
8, 11
13, 8
15, 5
10, 10
13, 15
24, 24
23, 30
26, 28
49, 42
56, 68
53, 59
53, 68
63, 52
53, 58
41, 40
26, 33
21, 19
23, 24
10, 22
13, 17
22, 16
13, 12
9, 16
8, 11
7, 9
22, 17
12, 15
18, 16
11, 18
14, 20
19, 23
16, 23
9, 19
14, 13
13, 17
12, 13
12, 10
10, 14
17, 11
7, 10
10, 16
20, 10
15, 16
6, 10
19, 21
22, 26
24, 29
23, 30
32, 32
28, 38
33, 28
25, 20
26, 24
21, 15
8, 20
19, 10
14, 18
18, 8
6, 18
14, 9
8, 14
12, 8
12, 17
22, 15
26, 28
33, 34
37, 26
33, 33
46, 41
42, 61
52, 61
38, 44
47, 34
33, 31
22, 18
24, 17
22, 15
19, 14
12, 12
25, 18
20, 34
47, 58
86, 94
132, 178
232, 320
428, 518
595, 717
953, 1030
1250, 1390
1449, 1614
1654, 1762
1666, 1735
1525, 1521
1332, 1327
1044, 1001
774, 669
526, 474
349, 292
180, 141
108, 98
46, 55
42, 24
28, 17
22, 22
16, 23
12, 21
27, 17
9, 26
19, 20
25, 22
32, 43
45, 48
64, 73
88, 88
111, 150
164, 166
201, 229
238, 242
239, 283
266, 261
215, 233
219, 206
168, 146
128, 92
79, 67
60, 43
37, 24
25, 11
13, 12
16, 7
7, 15
10, 10
10, 5
3, 7
9, 10
15, 12
14, 16
14, 13
11, 13
14, 9
12, 8
5, 7
4, 3
6, 13
7, 7
11, 9
6, 3
5, 7
5, 5
5, 7
5, 5
5, 8
8, 6
3, 5
5, 1
5, 8
7, 4
2, 7
7, 5
5, 3
8, 5
6, 5
8, 7
13, 5
5, 7
7, 9
3, 8
9, 4
5, 10
9, 3
8, 3
11, 10
5, 8
5, 7
7, 2
6, 4
6, 6
8, 4
6, 4
4, 9
4, 7
13, 9
8, 10
10, 11
8, 12
17, 13
9, 11
9, 11
13, 10
10, 14
14, 6
7, 7
3, 8
5, 8
7, 1
8, 6
4, 5
5, 1
6, 1
7, 6
2, 7
5, 7
7, 11
4, 4
3, 3
1, 5
7, 10
7, 4
3, 5
11, 3
7, 6
6, 5
4, 13
7, 8
4, 8
6, 6
5, 5
4, 6
4, 8
7, 2
6, 3
8, 5
6, 2
7, 5
7, 6
4, 9
4, 5
6, 3
6, 7
2, 6
8, 4
5, 5
3, 3
1, 4
4, 1
5, 1
1, 6
4, 6
3, 3
7, 6
1, 10
2, 9
5, 5
5, 7
3, 7
0, 5
6, 6
6, 7
1, 3
6, 5
4, 4
1, 2
5, 4
4, 3
2, 0
2, 4
4, 6
2, 4
4, 2
4, 5
7, 7
5, 6
5, 3
6, 4
7, 5
2, 4
2, 4
2, 2
4, 5
4, 3
3, 3
2, 3
1, 3
2, 1
1, 3
2, 6
2, 1
1, 5
4, 3
3, 3
2, 1
4, 3
0, 5
1, 4
2, 3
4, 4
6, 2
4, 3
2, 5
4, 2
2, 1
1, 4
1, 6
5, 4
2, 1
2, 3
2, 4
7, 4
1, 1
4, 2
1, 3
4, 2
4, 2
3, 1
3, 3
3, 2
3, 1
7, 7
4, 5
6, 2
3, 4
1, 0
5, 0
0, 1
0, 2
1, 5
1, 2
3, 1
5, 2
2, 3
1, 1
3, 2
3, 3
3, 3
2, 3
3, 5
4, 8
2, 1
2, 1
3, 4
4, 4
0, 0
2, 4
1, 1
1, 2
4, 1
0, 1
0, 0
4, 5
3, 2
3, 1
2, 4
0, 1
1, 3
5, 3
6, 2
0, 1
1, 4
1, 3
2, 1
4, 2
3, 1
1, 3
4, 0
4, 2
2, 3
2, 2
3, 2
1, 1
3, 4
3, 2
3, 4
3, 0
3, 2
3, 3
1, 1
3, 1
2, 2
5, 1
0, 1
1, 2
2, 0
3, 3
3, 0
1, 2
0, 0
4, 3
1, 1
3, 1
1, 0
2, 2
1, 1
2, 0
2, 0
0, 2
3, 3
1, 0
1, 1
4, 1
1, 1
1, 0
3, 1
2, 4
0, 0
1, 1
5, 0
1, 2
1, 2
2, 1
0, 1
2, 0
1, 3
1, 0
5, 3
0, 0
0, 6
0, 2
2, 0
1, 3
0, 1
1, 0
3, 1
1, 0
2, 3
1, 1
2, 0
0, 3
1, 1
0, 1
2, 1
0, 1
1, 0
1, 1
1, 1
2, 2
0, 1
1, 2
1, 1
0, 3
1, 1
1, 0
1, 1
0, 0
1, 0
1, 1
2, 1
0, 2
1, 0
0, 1
1, 0
0, 2
1, 0
0, 3
1, 0
1, 2
2, 2
1, 1
0, 0
1, 0
0, 1
1, 1
1, 1
0, 1
1, 0
2, 2
1, 1
0, 1
2, 1
0, 2
0, 0
1, 2
1, 1
0, 1
0, 0
1, 1
0, 1
0, 1
0, 3
1, 0
0, 2
0, 0
1, 1
0, 0
3, 0
0, 0
1, 0
0, 0
1, 1
0, 1
1, 0
0, 0
0, 0
0, 0
1, 1
0, 1
1, 2
1, 0
1, 0
1, 0
2, 0
0, 0
0, 1
0, 2
2, 0
0, 1
1, 0
0, 1
1, 0
1, 0
0, 0
1, 2
0, 0
1, 0
0, 0
0, 1
0, 0
0, 2
1, 0
0, 0
0, 0
0, 1
0, 0
1, 1
0, 0
0, 0
0, 1
0, 0
0, 0
2, 1
0, 0
0, 1
1, 0
0, 1
0, 0
0, 0
2, 0
0, 1
0, 0
0, 0
2, 0
0, 1
1, 0
0, 0
0, 0
0, 0
1, 1
0, 0
0, 0
0, 0
1, 0
0, 1
0, 0
1, 0
2, 0
0, 0
0, 0
0, 0
0, 0
0, 0
1, 0
0, 0
0, 2
0, 0
0, 0
0, 1
0, 0
0, 0
0, 0
1, 0
0, 0
0, 0
0, 0
0, 0
0, 0
0, 0
0, 0
1, 0
1, 0
0, 1
0, 0
0, 0
0, 0
0, 0
0, 0
0, 0
1, 1
1, 0
0, 0
0, 0
0, 0
1, 1
0, 1
1, 0
0, 0
0, 0
0, 2
0, 1
0, 0
0, 0
0, 0
0, 0
0, 0
0, 0
0, 0
0, 0
0, 1
1, 0
0, 0
0, 1
0, 0
0, 0
0, 0
1, 0
0, 0
0, 1
0, 0
1, 0
1, 0
2, 0
1, 0
0, 1
0, 0
1, 0
0, 0
0, 1
1, 1
0, 0
1, 0
0, 1
0, 0
0, 0
0, 0
1, 1
1, 0
0, 1
0, 0
0, 0
0, 1
0, 0
0, 0
1, 0
0, 0
0, 0
1, 0
0, 1
0, 0
0, 1
0, 0
0, 0
0, 0
1, 0
0, 0
0, 0
0, 0
0, 0
0, 0
0, 0
1, 0
0, 0
0, 0
0, 0
0, 0
0, 0
0, 0
0, 0
0, 0
0, 0
0, 0
0, 0
0, 1
0, 0
0, 0
0, 0
0, 1
0, 0
0, 0
0, 0
0, 0
0, 0
0, 1
0, 0
1, 0
0, 0
0, 0
0, 0
0, 0
0, 0
0, 0
0, 0
0, 0
0, 0
0, 0
0, 0
0, 0
0, 0
0, 0
0, 1
0, 0
0, 0
0, 0
0, 0
0, 0
0, 0
0, 1
0, 0
0, 0
0, 0
0, 0
0, 0
0, 0
0, 0
0, 1
1, 0
0, 0
1, 0
0, 0
0, 0
0, 0
0, 0
0, 0
0, 0
0, 0
0, 0
0, 0
0, 0
0, 0
0, 0
0, 0
0, 0
0, 0
0, 0
0, 1
0, 0
0, 0
0, 0
0, 0
0, 0
0, 0
0, 0
0, 0
0, 0
0, 0
0, 0
0, 0
0, 0
0, 0
0, 0
0, 0
0, 0
0, 0
0, 0
0, 0
0, 0
1, 0
0, 0
0, 0
0, 0
0, 0
0, 0
0, 1
0, 1
0, 0
0, 0
1, 0
0, 0
0, 0
0, 0
1, 0
0, 0
1, 0
0, 0
0, 0
0, 0
0, 0
0, 0
0, 0
0, 0
0, 0
0, 0
0, 1
0, 0
0, 0
0, 0
0, 0
0, 0
0, 0
0, 0
0, 1
0, 0
0, 0
0, 0
0, 0
0, 0
0, 0
0, 0
0, 0
0, 0
0, 0
0, 0
0, 1
0, 0
0, 0
0, 0
0, 0
0, 0
0, 0
0, 0
0, 0
0, 0
0, 0
0, 0
0, 0
0, 0
0, 0
0, 0
0, 0
0, 0
0, 0
0, 0
0, 0
0, 0
0, 0
0, 0
0, 0
0, 0
0, 0
0, 0
0, 0
0, 0
0, 0
0, 1
0, 0
0, 0
0, 1
0, 0
0, 0
0, 0
0, 0
0, 0
0, 0
0, 0
0, 0
0, 0
0, 0
0, 0
0, 0
0, 0
0, 0
0, 0
0, 0
0, 0
0, 0
0, 0
0, 0
0, 0
0, 0
0, 0
0, 0
0, 0
0, 0
0, 0
0, 0
0, 0
0, 0
1, 0
0, 0
0, 0
0, 0
0, 0
0, 0
0, 0
0, 0
0, 0
0, 0
0, 0
0, 0
0, 0
0, 0
0, 0
0, 0
0, 0
0, 0
0, 0
0, 0
0, 0
0, 0
0, 0
0, 0
0, 0
0, 0
0, 0
0, 0
0, 0
0, 0
0, 0
0, 0
0, 0
0, 0
0, 0
0, 0
0, 0
0, 0
0, 0
0, 0
0, 0
0, 0
0, 0
0, 0
0, 0
0, 0
0, 0
0, 0
0, 0
0, 0
0, 0
0, 0
0, 0
0, 0
0, 0
0, 0
0, 0
0, 0
0, 0
0, 0
0, 0
0, 0
0, 0
0, 0
0, 0
0, 0
0, 0
0, 0
0, 0
0, 0
0, 0
0, 0
0, 0
0, 0
0, 0
0, 0
0, 0
0, 0
0, 0
0, 0
0, 0
0, 0
0, 0
0, 0
0, 0
0, 0
0, 0
0, 0
0, 0
0, 0
0, 0
0, 0
0, 0
0, 0
0, 0
0, 0
0, 0
0, 0
0, 0
0, 0
0, 0
0, 0
0, 0
0, 0
0, 0
0, 0
0, 0
0, 0
0, 0
0, 0
0, 0
0, 0
0, 0
0, 0
0, 0
0, 0
0, 0
0, 0
0, 0
0, 0
0, 0
0, 0
0, 0
0, 0
0, 0
0, 0
0, 0
0, 0
0, 0
0, 0
0, 0
0, 0
0, 0
0, 0
0, 0
0, 0
0, 0
0, 0
0, 0
0, 0
0, 0
0, 0
0, 0
0, 0
0, 0
0, 0
0, 0
0, 0
0, 0
0, 0
0, 0
0, 0
0, 0
0, 0
0, 0
0, 0
0, 0
0, 0
0, 0
0, 0
0, 0
0, 0
0, 0
0, 0
0, 0
0, 0
0, 0
0, 0
0, 0
0, 0
0, 0
0, 0
0, 0
0, 0
0, 0
0, 0
0, 0
0, 0
0, 0
0, 0
0, 0
0, 0
0, 0
0, 0
0, 0
0, 0
0, 0
0, 0
0, 0
0, 0
0, 0
0, 0
0, 0
0, 0
0, 0
0, 0
0, 0
0, 0
0, 0
0, 0
0, 0
0, 0
0, 0
0, 0
0, 0
0, 0
0, 0
0, 0
0, 0
0, 0
0, 0
0, 0
0, 0
0, 0
0, 0
0, 0
0, 0
0, 0
0, 0
0, 0
0, 0
0, 0
0, 0
0, 0
0, 0
0, 0
0, 0
0, 0
0, 0
0, 0
0, 0
0, 0
0, 0
0, 0
0, 0
0, 0
0, 0
0, 0
0, 0
0, 0
0, 0
0, 0
0, 0
0, 0
0, 0
0, 0
0, 0
0, 0
0, 0
0, 0
0, 0
0, 0
0, 0
0, 0
0, 0
0, 0
0, 0
0, 0
0, 0
0, 0
0, 0
0, 0
0, 0
0, 0
0, 0
0, 0
0, 0
0, 0
0, 0
0, 0
0, 0
0, 0
0, 0
0, 0
0, 0
0, 0
0, 0
0, 0
0, 0
0, 0
0, 0
0, 0
0, 0
0, 0
0, 0
0, 0
0, 0
0, 0
0, 0
0, 0
0, 0
0, 0
0, 0
0, 0
0, 0
0, 0
0, 0
0, 0
0, 0
0, 0
0, 0
0, 0
0, 0
0, 0
0, 0
0, 0
0, 0
0, 0
0, 0
0, 0
0, 0
0, 0
0, 0
0, 0
0, 0
0, 0
0, 0
0, 0
0, 0
0, 0
0, 0
0, 0
0, 0
0, 0
0, 0
0, 0
0, 0
0, 0
0, 0
0, 0
0, 0
#ENDOFDATA     end of spectrum data