File: host_upload/02-11-2024/rqc/uplink1/ps__0567_0717304816_000rfs_shot_84.msa
#FORMAT      : EMSA/MAS spectral data file
#VERSION     : TC202v2.0 PIXL
#TITLE       : Novarupta (sol567) subset1
#DATE        : 02-11-2024      Date in the format DD-MMM-YYYY, for example 07-JUL-2010
#TIME        :             The time of day at which the spectrum was recorded, in 24-hour format
#OWNER       : PIXL Flight Model       (PIXL will use this to indicate which instrument took the data.)
#NPOINTS     : 4096     Number of data points in the spectrum (This can be zero for configuration only files)
#NCOLUMNS    : 2     Number of data columns in the spectrum (This can be zero for configuration only files)
#XUNITS      : eV
#YUNITS      : COUNTS
#DATATYPE    : YY
#XPERCHAN    : 7.862, 7.881   eV per channel (separate by commas if more than one detector)
#OFFSET      : 18.5, -22.4         eV of first channel  (separate by commas if more than one detector
#SIGNALTYPE  : XRF
#YP_TEMP     : -1.26
#LIVETIME    : 8.84717, 8.82361   seconds (separate by commas if more than one detector)
#REALTIME    : 10, 10.0   seconds (separate by commas if more than one detector)
#SPECTRUM    : start of spectrum data
0, 0
0, 0
0, 0
0, 0
0, 0
0, 0
0, 0
0, 0
0, 0
0, 0
0, 0
0, 0
0, 0
0, 0
0, 0
0, 0
0, 0
0, 0
0, 0
0, 0
0, 0
0, 0
0, 0
0, 0
0, 0
0, 0
0, 0
0, 0
0, 0
0, 0
0, 1
0, 0
0, 0
1, 0
3, 5
3, 3
3, 1
4, 3
7, 5
1, 2
1, 2
2, 3
2, 6
5, 1
4, 2
2, 4
3, 5
3, 2
2, 4
3, 2
8, 6
7, 11
17, 14
13, 25
17, 14
17, 16
13, 16
13, 11
5, 8
7, 19
16, 18
21, 24
50, 38
46, 48
61, 52
43, 43
38, 31
30, 32
41, 42
49, 71
109, 140
198, 222
259, 335
416, 461
448, 523
459, 487
392, 378
309, 298
211, 188
151, 146
89, 86
53, 34
38, 40
25, 40
27, 26
33, 29
37, 28
23, 39
32, 31
23, 23
15, 19
21, 18
22, 27
51, 43
75, 83
143, 154
163, 241
262, 248
273, 299
264, 298
235, 251
227, 204
135, 150
81, 102
66, 60
49, 63
56, 52
67, 60
92, 86
132, 157
171, 187
221, 225
243, 227
197, 247
229, 186
183, 167
112, 122
106, 100
93, 86
85, 83
66, 74
69, 74
60, 70
45, 35
52, 46
36, 26
26, 18
20, 22
16, 17
8, 19
10, 12
8, 7
4, 2
4, 9
5, 7
6, 6
10, 20
16, 15
14, 15
17, 26
21, 30
29, 28
20, 30
21, 19
22, 17
11, 9
9, 16
9, 8
13, 23
18, 22
25, 39
69, 67
89, 122
145, 160
205, 237
276, 303
325, 356
346, 401
360, 341
253, 295
220, 215
166, 177
87, 82
63, 44
31, 34
23, 20
41, 26
24, 33
43, 43
45, 68
55, 58
53, 71
39, 53
38, 49
39, 42
18, 16
19, 15
13, 14
11, 11
13, 10
13, 9
7, 5
12, 13
1, 12
13, 8
9, 10
28, 17
20, 33
47, 41
50, 54
55, 57
65, 61
52, 78
45, 60
49, 57
42, 46
38, 26
35, 21
23, 20
22, 17
22, 14
11, 4
11, 10
12, 14
9, 13
12, 20
12, 11
14, 20
24, 21
16, 19
16, 11
21, 16
15, 19
13, 18
16, 12
14, 16
8, 6
8, 11
12, 11
7, 13
12, 12
11, 12
11, 15
15, 14
21, 14
23, 19
14, 12
18, 24
23, 32
28, 29
36, 23
29, 28
32, 24
24, 30
15, 9
16, 10
9, 14
14, 8
9, 9
9, 16
11, 13
16, 8
18, 11
14, 19
15, 13
21, 20
28, 28
35, 40
34, 40
41, 53
70, 55
42, 47
61, 49
46, 38
32, 31
25, 23
24, 23
21, 22
17, 13
22, 12
29, 30
39, 38
44, 66
79, 105
163, 183
280, 312
446, 550
669, 795
966, 1135
1205, 1462
1455, 1703
1590, 1803
1638, 1759
1535, 1501
1304, 1233
970, 956
746, 661
464, 423
271, 269
193, 142
109, 83
61, 42
36, 22
23, 15
24, 21
26, 17
19, 11
23, 13
25, 19
18, 17
17, 32
36, 34
44, 54
67, 84
102, 129
114, 159
170, 211
232, 229
262, 277
282, 266
268, 255
260, 234
208, 164
160, 164
119, 100
83, 62
50, 47
35, 28
33, 10
13, 10
9, 5
5, 9
8, 8
8, 12
7, 6
6, 12
11, 20
5, 6
18, 14
15, 12
11, 17
8, 3
6, 8
8, 5
4, 5
6, 9
3, 6
2, 4
5, 6
7, 10
9, 8
3, 5
5, 4
8, 9
5, 6
4, 4
4, 4
8, 6
7, 10
1, 7
7, 10
7, 10
7, 8
6, 8
10, 5
5, 11
8, 9
11, 11
5, 8
8, 8
7, 6
9, 7
4, 9
8, 6
10, 11
2, 3
6, 9
5, 5
6, 3
8, 6
9, 12
5, 11
8, 11
13, 11
8, 15
8, 10
10, 11
5, 16
4, 11
10, 12
9, 13
10, 10
8, 7
5, 6
7, 4
2, 5
8, 8
3, 9
8, 8
3, 12
4, 14
8, 10
5, 5
3, 4
2, 6
5, 10
4, 8
2, 4
7, 1
3, 5
7, 3
0, 7
3, 3
2, 5
3, 7
3, 3
5, 3
4, 2
5, 10
4, 6
2, 8
2, 5
6, 8
3, 5
4, 5
4, 4
6, 3
6, 3
3, 7
11, 8
3, 5
8, 1
5, 5
3, 3
7, 6
2, 5
6, 6
5, 7
4, 5
4, 4
4, 3
5, 3
3, 2
2, 6
1, 4
5, 4
3, 6
6, 2
7, 3
3, 5
4, 6
7, 4
4, 6
4, 0
5, 4
4, 3
6, 1
3, 4
4, 5
1, 9
4, 1
4, 9
4, 4
6, 7
2, 2
1, 12
6, 2
2, 5
5, 4
2, 3
5, 3
6, 2
2, 1
2, 2
4, 0
5, 3
3, 6
3, 6
0, 3
5, 6
4, 2
2, 2
4, 5
3, 6
3, 2
1, 4
8, 2
7, 1
3, 1
5, 6
2, 0
3, 6
0, 6
3, 3
4, 2
3, 4
3, 0
2, 2
1, 2
4, 4
1, 4
7, 0
2, 4
4, 2
2, 1
2, 4
4, 4
0, 3
2, 4
2, 3
5, 3
1, 6
5, 3
0, 3
1, 3
3, 1
3, 1
0, 4
3, 3
1, 1
4, 4
0, 4
0, 0
2, 4
2, 2
4, 2
3, 1
4, 2
2, 4
0, 2
0, 3
3, 2
3, 3
1, 0
0, 3
0, 2
0, 4
2, 1
0, 0
3, 2
1, 3
2, 0
2, 0
4, 3
1, 3
3, 0
1, 8
5, 2
2, 1
0, 0
4, 4
3, 1
1, 2
0, 5
0, 1
2, 1
3, 1
1, 2
2, 3
3, 4
2, 0
2, 4
1, 1
4, 5
3, 2
2, 1
2, 4
0, 4
3, 2
2, 3
2, 2
2, 0
0, 1
1, 1
2, 2
1, 0
0, 1
1, 1
1, 0
3, 0
0, 0
3, 1
0, 1
3, 2
0, 0
3, 1
2, 0
1, 2
1, 1
0, 1
0, 2
2, 1
0, 1
0, 4
3, 2
0, 0
1, 1
3, 1
2, 1
0, 0
1, 1
2, 1
1, 0
1, 1
0, 0
2, 1
0, 1
4, 0
2, 0
3, 2
2, 1
1, 2
1, 3
0, 1
1, 1
3, 1
2, 2
3, 1
3, 1
0, 1
0, 1
2, 1
1, 1
1, 0
1, 1
0, 0
1, 4
1, 2
2, 1
1, 0
2, 0
3, 0
2, 2
0, 0
1, 0
0, 0
1, 1
1, 1
2, 2
3, 1
3, 0
0, 1
0, 3
0, 0
1, 0
4, 1
0, 0
2, 0
0, 1
1, 1
0, 0
1, 1
0, 1
0, 2
0, 0
0, 3
1, 1
1, 2
0, 1
1, 2
1, 0
0, 0
0, 1
3, 1
0, 2
1, 1
0, 2
0, 0
0, 1
0, 1
1, 0
0, 0
1, 1
1, 1
4, 0
0, 0
1, 1
1, 2
0, 0
2, 0
1, 0
1, 1
1, 2
0, 0
1, 1
1, 0
0, 0
1, 0
0, 0
1, 0
0, 0
0, 0
0, 0
1, 0
0, 0
0, 0
0, 0
0, 1
0, 0
1, 0
0, 0
0, 0
0, 0
0, 0
0, 0
0, 1
3, 0
0, 0
1, 1
0, 0
2, 0
1, 0
0, 1
3, 0
0, 0
0, 3
2, 0
0, 0
2, 0
0, 0
0, 0
1, 0
0, 0
0, 0
1, 1
1, 0
0, 0
0, 0
0, 0
0, 0
0, 1
0, 0
0, 0
0, 0
0, 0
1, 0
2, 0
1, 1
1, 0
0, 0
0, 0
0, 1
1, 0
0, 0
0, 0
0, 1
0, 0
0, 1
0, 0
0, 0
0, 0
0, 0
0, 0
0, 1
1, 0
0, 0
0, 0
0, 1
0, 1
0, 1
0, 0
0, 0
1, 1
1, 0
0, 1
0, 0
0, 0
0, 0
0, 0
1, 0
0, 0
0, 0
0, 0
0, 0
1, 1
0, 0
0, 0
0, 0
0, 0
0, 0
0, 0
1, 0
0, 0
1, 1
0, 0
0, 0
0, 0
0, 0
0, 0
1, 0
0, 0
0, 0
0, 0
0, 0
0, 0
1, 0
0, 0
0, 0
0, 0
0, 0
0, 0
0, 1
0, 0
0, 1
0, 0
1, 0
0, 1
0, 1
0, 0
0, 0
0, 0
0, 0
0, 0
1, 0
1, 0
0, 0
0, 1
0, 1
0, 1
1, 0
0, 0
1, 0
0, 1
1, 0
0, 0
0, 1
0, 1
0, 0
0, 0
0, 0
0, 1
0, 0
0, 0
0, 0
0, 0
1, 0
0, 0
1, 0
0, 0
0, 0
1, 0
0, 0
0, 0
0, 0
0, 1
0, 0
0, 0
0, 0
0, 0
0, 0
0, 0
0, 0
0, 0
0, 0
0, 0
0, 0
0, 0
1, 1
1, 1
0, 0
0, 0
0, 0
0, 0
1, 0
0, 0
0, 0
0, 0
0, 0
0, 0
0, 0
0, 0
1, 0
1, 0
1, 0
0, 1
0, 0
0, 1
1, 0
0, 0
0, 1
0, 0
0, 1
0, 0
0, 0
0, 1
0, 0
0, 0
0, 0
0, 0
1, 0
0, 1
0, 0
0, 0
0, 0
0, 0
0, 0
0, 0
0, 0
0, 0
0, 0
0, 0
0, 0
1, 0
0, 0
0, 0
0, 0
1, 0
0, 0
0, 0
0, 0
0, 0
0, 0
0, 0
0, 0
0, 0
0, 0
0, 0
0, 0
0, 0
0, 0
0, 0
0, 1
0, 0
0, 0
0, 0
0, 0
0, 0
0, 0
0, 0
0, 0
0, 0
0, 0
0, 0
0, 0
0, 0
0, 0
0, 0
0, 0
0, 0
0, 0
0, 0
0, 0
0, 0
0, 0
0, 0
0, 0
0, 0
0, 0
0, 0
0, 0
0, 0
0, 0
0, 0
0, 0
0, 1
0, 0
0, 0
0, 0
0, 0
0, 0
0, 0
0, 0
0, 0
0, 0
0, 0
0, 0
0, 0
0, 0
0, 0
0, 0
0, 0
0, 0
0, 0
0, 0
0, 0
0, 0
0, 0
0, 0
0, 0
0, 0
0, 0
0, 0
0, 0
0, 0
0, 0
0, 0
0, 0
0, 0
0, 0
0, 0
0, 0
0, 0
0, 0
0, 0
0, 0
0, 0
0, 0
0, 0
0, 0
0, 0
0, 0
0, 0
0, 0
0, 0
0, 0
0, 0
0, 0
0, 0
0, 0
0, 0
0, 0
0, 0
0, 0
0, 0
0, 0
0, 0
0, 0
0, 0
0, 0
0, 0
0, 0
0, 0
0, 0
0, 0
0, 0
0, 0
0, 0
0, 0
0, 0
0, 0
0, 0
0, 0
0, 0
0, 0
0, 0
0, 0
0, 0
0, 0
0, 0
0, 0
0, 0
0, 0
0, 0
0, 0
0, 0
0, 0
0, 0
0, 0
0, 0
0, 0
0, 0
0, 0
0, 0
0, 0
0, 0
0, 0
0, 0
0, 0
0, 0
0, 0
0, 0
0, 0
0, 0
1, 0
0, 0
0, 0
0, 0
0, 0
0, 0
0, 0
0, 0
0, 0
0, 0
0, 0
0, 0
0, 0
0, 0
0, 0
0, 0
0, 0
0, 0
0, 0
0, 0
0, 0
0, 0
0, 0
0, 0
0, 0
0, 0
1, 0
0, 0
0, 0
0, 0
0, 0
0, 0
0, 0
0, 0
0, 0
0, 0
0, 0
0, 0
0, 0
0, 0
0, 0
0, 0
0, 0
0, 0
0, 0
0, 0
0, 0
0, 0
0, 0
0, 0
0, 0
0, 0
0, 0
0, 0
0, 0
0, 0
0, 0
0, 0
0, 0
0, 0
0, 0
0, 0
0, 0
0, 0
0, 0
0, 0
0, 0
0, 0
0, 0
0, 0
0, 0
0, 0
0, 0
0, 0
0, 0
0, 0
0, 0
0, 0
0, 0
0, 0
0, 0
0, 0
0, 0
0, 0
0, 0
0, 0
0, 0
0, 0
0, 0
0, 0
0, 0
0, 0
0, 0
0, 0
0, 0
0, 0
0, 0
0, 0
0, 0
0, 0
0, 0
0, 0
0, 0
0, 0
0, 0
0, 0
0, 0
0, 0
0, 0
0, 0
0, 0
0, 0
0, 0
0, 0
0, 0
0, 0
0, 0
0, 0
0, 0
0, 0
0, 0
0, 0
0, 0
0, 0
0, 0
0, 0
0, 0
0, 0
0, 0
0, 0
0, 0
0, 0
0, 0
0, 0
0, 0
0, 0
0, 0
0, 0
0, 0
0, 0
0, 0
0, 0
0, 0
0, 0
0, 0
0, 0
0, 0
0, 0
0, 0
0, 0
0, 0
0, 0
0, 0
0, 0
0, 0
0, 0
0, 0
0, 0
0, 0
0, 0
0, 0
0, 0
0, 0
0, 0
0, 0
0, 0
0, 0
0, 0
0, 0
0, 0
0, 0
0, 0
0, 0
0, 0
0, 0
0, 0
0, 0
0, 0
0, 0
0, 0
0, 0
0, 0
0, 0
0, 0
0, 0
0, 0
0, 0
0, 0
0, 0
0, 0
0, 0
0, 0
0, 0
0, 0
0, 0
0, 0
0, 0
0, 0
0, 0
0, 0
0, 0
0, 0
0, 0
0, 0
0, 0
0, 0
0, 0
0, 0
0, 0
0, 0
0, 0
0, 0
0, 0
0, 0
0, 0
0, 0
0, 0
0, 0
0, 0
0, 0
0, 0
0, 0
0, 0
0, 0
0, 0
0, 0
0, 0
0, 0
0, 0
0, 0
0, 0
0, 0
0, 0
0, 0
0, 0
0, 0
0, 0
0, 0
0, 0
0, 0
0, 0
0, 0
0, 0
0, 0
0, 0
0, 0
0, 0
0, 0
0, 0
0, 0
0, 0
0, 0
0, 0
0, 0
0, 0
0, 0
0, 0
0, 0
0, 0
0, 0
0, 0
0, 0
0, 0
0, 0
0, 0
0, 0
0, 0
0, 0
0, 0
0, 0
0, 0
0, 0
0, 0
0, 0
0, 0
0, 0
0, 0
0, 0
0, 0
0, 0
0, 0
0, 0
0, 0
0, 0
0, 0
0, 0
0, 0
0, 0
0, 0
0, 0
0, 0
0, 0
0, 0
0, 0
0, 0
0, 0
0, 0
0, 0
0, 0
0, 0
0, 0
0, 0
0, 0
0, 0
0, 0
0, 0
0, 0
0, 0
0, 0
0, 0
0, 0
0, 0
0, 0
0, 0
0, 0
0, 0
0, 0
0, 0
0, 0
0, 0
0, 0
0, 0
0, 0
#ENDOFDATA     end of spectrum data