File: host_upload/02-11-2024/rqc/uplink1/ps__0567_0717304816_000rfs_shot_139.msa
#FORMAT      : EMSA/MAS spectral data file
#VERSION     : TC202v2.0 PIXL
#TITLE       : Novarupta (sol567) subset1
#DATE        : 02-11-2024      Date in the format DD-MMM-YYYY, for example 07-JUL-2010
#TIME        :             The time of day at which the spectrum was recorded, in 24-hour format
#OWNER       : PIXL Flight Model       (PIXL will use this to indicate which instrument took the data.)
#NPOINTS     : 4096     Number of data points in the spectrum (This can be zero for configuration only files)
#NCOLUMNS    : 2     Number of data columns in the spectrum (This can be zero for configuration only files)
#XUNITS      : eV
#YUNITS      : COUNTS
#DATATYPE    : YY
#XPERCHAN    : 7.862, 7.881   eV per channel (separate by commas if more than one detector)
#OFFSET      : 18.5, -22.4         eV of first channel  (separate by commas if more than one detector
#SIGNALTYPE  : XRF
#YP_TEMP     : -0.042
#LIVETIME    : 8.83506, 8.81714   seconds (separate by commas if more than one detector)
#REALTIME    : 10, 10.0   seconds (separate by commas if more than one detector)
#SPECTRUM    : start of spectrum data
0, 0
0, 0
0, 0
0, 0
0, 0
0, 0
0, 0
0, 0
0, 0
0, 0
0, 0
0, 0
0, 0
0, 0
0, 0
0, 0
0, 0
0, 0
0, 0
0, 0
0, 0
0, 0
0, 0
0, 0
0, 0
0, 0
0, 0
0, 0
0, 0
0, 0
0, 0
0, 0
0, 1
0, 1
1, 1
2, 1
4, 1
5, 3
2, 4
4, 3
3, 7
2, 1
3, 4
3, 3
5, 2
6, 4
1, 2
3, 3
5, 3
4, 7
7, 2
9, 8
7, 10
13, 19
19, 10
11, 20
12, 14
13, 8
9, 4
12, 18
18, 13
19, 28
50, 41
54, 42
55, 49
36, 46
37, 41
31, 31
37, 47
62, 86
113, 128
190, 219
275, 314
407, 449
469, 514
478, 510
449, 442
313, 349
222, 231
157, 123
93, 78
46, 40
30, 31
24, 27
29, 33
31, 28
23, 36
40, 35
30, 20
25, 25
16, 19
15, 16
27, 22
42, 46
102, 88
137, 139
203, 217
239, 272
275, 327
286, 332
256, 268
191, 206
129, 140
99, 100
75, 71
68, 59
59, 56
64, 81
92, 95
115, 146
173, 182
181, 226
238, 249
216, 217
195, 187
146, 170
126, 136
110, 118
86, 95
72, 94
78, 84
53, 64
58, 72
58, 59
46, 49
38, 30
22, 27
21, 25
18, 21
15, 17
8, 9
5, 6
10, 8
5, 3
5, 5
7, 8
10, 10
9, 12
20, 25
19, 23
24, 26
34, 31
29, 32
23, 25
22, 14
15, 16
22, 14
9, 9
13, 13
17, 19
31, 32
48, 51
90, 115
148, 156
225, 240
278, 380
335, 359
397, 468
367, 389
263, 325
232, 261
163, 143
104, 105
64, 51
29, 39
27, 29
29, 39
44, 25
38, 48
54, 51
62, 64
70, 73
37, 55
49, 40
40, 45
31, 27
19, 15
15, 9
12, 9
10, 8
10, 3
8, 10
6, 10
10, 12
11, 4
10, 15
10, 22
19, 29
28, 34
45, 52
52, 56
59, 61
48, 62
48, 62
60, 47
35, 47
44, 42
28, 21
23, 22
26, 21
16, 16
13, 21
14, 19
18, 11
16, 15
15, 14
15, 14
7, 16
19, 13
19, 18
17, 21
22, 25
18, 20
11, 11
12, 15
10, 15
16, 16
5, 10
15, 14
15, 6
8, 9
10, 9
9, 13
21, 17
17, 24
16, 15
9, 24
15, 22
22, 27
26, 43
30, 36
26, 33
28, 21
21, 27
21, 13
16, 19
11, 5
11, 16
12, 15
9, 14
9, 13
10, 12
8, 13
16, 17
19, 25
22, 16
28, 31
30, 36
41, 33
53, 47
35, 46
46, 51
46, 50
43, 35
32, 36
28, 30
33, 18
23, 22
19, 16
12, 13
28, 20
22, 28
43, 54
89, 78
128, 162
268, 307
384, 519
655, 841
857, 1148
1213, 1391
1548, 1764
1686, 1862
1706, 1876
1569, 1634
1361, 1419
1093, 1100
794, 779
515, 500
323, 301
202, 166
101, 85
57, 46
41, 28
31, 21
23, 20
18, 26
22, 14
21, 20
22, 21
14, 26
31, 24
23, 52
34, 42
54, 98
81, 104
128, 175
179, 181
214, 240
247, 262
267, 308
271, 271
279, 248
199, 210
167, 154
109, 94
86, 83
54, 40
37, 37
26, 19
13, 9
6, 12
10, 11
13, 12
9, 8
9, 19
9, 12
8, 18
10, 17
9, 12
7, 9
14, 12
7, 10
12, 6
6, 14
5, 5
8, 10
6, 7
3, 9
4, 8
5, 12
11, 4
5, 6
10, 6
11, 9
6, 4
7, 5
1, 7
8, 11
6, 15
7, 5
12, 10
7, 7
8, 5
11, 11
6, 6
7, 7
6, 9
11, 9
5, 6
6, 6
11, 10
2, 5
8, 8
8, 5
7, 9
6, 8
7, 4
7, 7
11, 7
5, 8
3, 6
6, 6
6, 8
8, 14
8, 10
11, 10
15, 5
12, 10
14, 13
10, 14
8, 6
11, 8
2, 6
9, 7
7, 5
9, 6
1, 9
8, 5
4, 5
7, 7
3, 4
7, 9
3, 5
9, 7
9, 10
4, 10
5, 4
4, 6
2, 10
6, 2
3, 4
4, 7
3, 4
3, 3
6, 6
4, 3
4, 4
2, 7
1, 3
3, 7
5, 4
5, 4
7, 9
5, 6
5, 5
3, 2
2, 4
7, 5
4, 6
4, 7
5, 5
2, 4
7, 1
5, 3
3, 4
7, 3
5, 5
3, 5
5, 8
3, 3
3, 3
6, 7
6, 2
3, 2
2, 1
7, 4
3, 6
4, 4
5, 3
2, 9
3, 3
5, 5
4, 4
4, 5
5, 2
3, 2
2, 4
2, 3
3, 6
4, 3
3, 6
6, 5
3, 3
1, 3
7, 5
4, 7
4, 7
6, 6
3, 1
5, 3
1, 6
4, 2
2, 6
2, 2
2, 1
4, 5
3, 3
1, 2
6, 2
2, 6
4, 3
4, 9
4, 3
3, 2
1, 3
5, 0
3, 7
5, 3
4, 3
1, 5
3, 0
5, 0
1, 2
1, 3
3, 3
1, 2
1, 0
1, 3
2, 2
2, 5
4, 3
3, 0
1, 1
2, 3
4, 1
5, 2
0, 4
3, 4
4, 1
5, 2
4, 3
1, 3
1, 2
5, 3
3, 0
2, 3
3, 0
4, 4
3, 3
1, 1
1, 1
1, 0
4, 4
3, 3
2, 1
1, 4
4, 4
2, 0
0, 5
1, 4
2, 1
2, 5
3, 5
3, 1
2, 2
0, 2
2, 2
2, 6
1, 1
1, 2
2, 1
1, 3
0, 2
3, 2
2, 2
3, 0
0, 3
1, 2
3, 1
4, 1
1, 0
5, 0
0, 0
1, 3
2, 5
1, 4
1, 4
4, 1
2, 2
0, 1
3, 1
1, 4
2, 4
3, 1
5, 4
1, 2
0, 6
3, 0
4, 3
2, 1
1, 3
4, 1
2, 1
4, 1
0, 2
4, 3
0, 2
0, 1
1, 1
3, 1
5, 1
1, 1
0, 2
1, 1
0, 3
1, 1
2, 0
3, 1
1, 2
2, 1
1, 0
4, 2
1, 2
1, 2
1, 1
2, 1
1, 1
1, 1
2, 2
1, 1
3, 0
1, 2
0, 0
3, 1
0, 0
1, 0
2, 1
0, 2
0, 2
0, 1
1, 2
1, 2
0, 0
1, 1
3, 1
3, 1
2, 2
0, 4
0, 1
0, 0
1, 0
3, 1
1, 2
1, 2
0, 0
1, 0
1, 2
0, 1
1, 0
3, 0
1, 2
0, 0
1, 1
0, 1
3, 0
1, 2
0, 3
2, 0
2, 1
2, 1
1, 3
1, 1
1, 0
1, 0
0, 0
1, 0
0, 0
1, 1
0, 2
1, 2
0, 2
1, 0
1, 3
0, 1
0, 0
2, 0
0, 0
1, 3
1, 2
2, 1
0, 0
0, 1
0, 0
1, 0
0, 3
0, 1
0, 1
2, 1
1, 0
1, 0
3, 1
0, 1
1, 0
0, 0
0, 0
0, 4
0, 1
1, 1
0, 1
0, 1
1, 1
0, 0
1, 1
1, 0
2, 0
0, 1
1, 1
0, 1
0, 2
1, 1
0, 0
1, 1
0, 0
1, 1
1, 0
2, 1
0, 0
1, 0
0, 2
1, 0
0, 0
1, 0
0, 1
1, 0
1, 0
1, 0
1, 1
0, 1
1, 0
1, 2
1, 0
0, 0
0, 0
0, 0
0, 0
0, 0
0, 0
0, 0
0, 0
0, 0
2, 0
1, 1
0, 0
0, 0
1, 3
0, 0
0, 0
1, 2
0, 0
0, 0
1, 0
0, 0
0, 0
1, 1
1, 1
0, 0
1, 0
0, 1
0, 0
0, 1
1, 0
0, 0
0, 1
0, 1
0, 3
0, 0
0, 0
0, 0
0, 1
0, 0
0, 0
1, 1
0, 0
0, 0
0, 2
0, 0
0, 1
0, 0
0, 0
0, 1
0, 0
0, 0
1, 0
0, 0
0, 0
0, 0
1, 0
1, 0
1, 1
1, 1
0, 1
1, 0
0, 2
1, 0
0, 1
1, 0
0, 1
0, 0
0, 1
0, 0
0, 0
0, 0
0, 0
1, 0
0, 1
0, 0
1, 0
1, 0
0, 0
1, 0
0, 0
0, 0
0, 0
0, 0
0, 0
0, 0
0, 0
1, 0
1, 0
0, 0
1, 0
0, 0
0, 0
0, 0
0, 0
0, 0
0, 0
0, 1
2, 0
0, 0
0, 1
0, 1
0, 0
0, 0
1, 1
0, 0
0, 1
0, 0
1, 1
0, 0
0, 0
0, 0
1, 0
0, 1
0, 1
0, 2
0, 0
0, 0
0, 0
0, 0
0, 0
0, 0
0, 1
0, 0
0, 0
0, 0
0, 0
0, 0
0, 2
0, 0
1, 1
0, 0
0, 0
0, 0
0, 0
0, 0
0, 0
0, 0
0, 0
1, 0
0, 0
0, 0
0, 0
0, 0
1, 0
0, 1
0, 0
0, 0
0, 1
0, 0
0, 0
0, 0
0, 1
0, 1
0, 0
0, 0
0, 0
1, 0
0, 0
1, 0
0, 0
1, 0
0, 0
0, 0
0, 0
0, 0
0, 1
0, 0
0, 1
0, 1
1, 0
0, 1
0, 0
1, 0
0, 0
0, 0
0, 0
1, 0
0, 0
0, 0
1, 1
0, 0
0, 0
0, 0
0, 0
0, 0
0, 0
0, 0
0, 0
0, 0
0, 0
0, 0
0, 0
1, 0
0, 1
0, 0
0, 0
0, 0
0, 0
0, 0
0, 0
0, 0
0, 0
0, 0
0, 0
0, 0
0, 0
0, 0
0, 0
0, 0
0, 0
0, 0
0, 0
0, 0
0, 0
0, 0
0, 0
0, 0
0, 0
0, 0
0, 0
0, 0
0, 0
0, 0
0, 0
0, 0
0, 1
0, 0
0, 0
0, 0
0, 0
0, 0
0, 0
0, 0
0, 0
0, 0
0, 1
0, 0
0, 0
0, 0
0, 0
0, 0
0, 0
0, 0
0, 0
0, 0
0, 0
0, 0
0, 0
0, 0
0, 0
0, 0
0, 0
0, 0
0, 0
0, 0
0, 0
0, 0
0, 0
1, 0
0, 0
0, 0
0, 0
1, 0
0, 0
0, 0
0, 0
0, 0
0, 0
0, 0
0, 0
0, 0
0, 0
0, 0
0, 0
0, 0
0, 0
0, 0
0, 0
1, 0
0, 0
0, 0
0, 0
0, 0
0, 0
0, 0
0, 0
0, 0
0, 0
0, 0
0, 0
0, 0
0, 0
0, 0
0, 0
0, 0
0, 0
0, 0
0, 0
0, 0
0, 0
0, 0
0, 0
0, 0
0, 0
0, 0
0, 0
0, 0
0, 0
0, 0
0, 0
0, 0
0, 0
0, 0
0, 0
0, 0
0, 0
0, 0
0, 0
0, 0
0, 0
0, 0
0, 0
0, 0
0, 0
0, 0
0, 0
0, 0
0, 0
0, 0
0, 0
0, 0
0, 0
0, 0
0, 0
0, 0
0, 0
0, 0
0, 0
0, 0
0, 0
0, 0
0, 0
0, 0
0, 0
0, 0
0, 0
0, 0
0, 0
0, 0
0, 0
0, 0
0, 0
0, 0
0, 0
0, 0
0, 0
0, 0
0, 0
0, 0
0, 0
0, 0
0, 0
1, 0
0, 0
0, 0
0, 0
0, 0
0, 0
0, 0
0, 0
0, 0
0, 0
0, 0
0, 0
0, 0
0, 0
0, 0
0, 0
0, 0
0, 0
0, 0
0, 0
0, 0
0, 0
0, 0
0, 0
0, 0
0, 0
0, 0
0, 0
0, 0
0, 0
0, 0
0, 0
0, 0
0, 0
0, 0
0, 0
0, 0
0, 0
0, 0
0, 0
0, 0
0, 0
0, 0
0, 0
0, 0
0, 0
0, 0
0, 0
0, 0
0, 0
0, 0
0, 0
0, 0
0, 0
0, 0
0, 0
0, 0
0, 0
0, 0
0, 0
0, 0
0, 0
0, 0
0, 0
0, 0
0, 0
0, 0
0, 0
0, 0
0, 0
0, 0
0, 0
0, 0
0, 0
0, 0
0, 0
0, 0
0, 0
0, 0
0, 0
0, 0
0, 0
0, 0
0, 0
0, 0
0, 0
0, 0
0, 0
0, 0
0, 0
0, 0
0, 0
0, 0
0, 0
0, 0
0, 0
0, 0
0, 0
0, 0
0, 0
0, 0
0, 0
0, 0
0, 0
0, 0
0, 0
0, 0
0, 0
0, 0
0, 0
0, 0
0, 0
0, 0
0, 0
0, 0
0, 0
0, 0
0, 0
0, 0
0, 0
0, 0
0, 0
0, 0
0, 0
0, 0
0, 0
0, 0
0, 0
0, 0
0, 0
0, 0
0, 0
0, 0
0, 0
0, 0
0, 0
0, 0
0, 0
0, 0
0, 0
0, 0
0, 0
0, 0
0, 0
0, 0
0, 0
0, 0
0, 0
0, 0
0, 0
0, 0
0, 0
0, 0
0, 0
0, 0
0, 0
0, 0
0, 0
0, 0
0, 0
0, 0
0, 0
0, 0
0, 0
0, 0
0, 0
0, 0
0, 0
0, 0
0, 0
0, 0
0, 0
0, 0
0, 0
0, 0
0, 0
0, 0
0, 0
0, 0
0, 0
0, 0
0, 0
0, 0
0, 0
0, 0
0, 0
0, 0
0, 0
0, 0
0, 0
0, 0
0, 0
0, 0
0, 0
0, 0
0, 0
0, 0
0, 0
0, 0
0, 0
0, 0
0, 0
0, 0
0, 0
0, 0
0, 0
0, 0
0, 0
0, 0
0, 0
0, 0
0, 0
0, 0
0, 0
0, 0
0, 0
0, 0
0, 0
0, 0
0, 0
0, 0
0, 0
0, 0
0, 0
0, 0
0, 0
0, 0
0, 0
0, 0
0, 0
0, 0
0, 0
0, 0
0, 0
0, 0
0, 0
0, 0
0, 0
0, 0
0, 0
0, 0
0, 0
0, 0
0, 0
0, 0
0, 0
0, 0
0, 0
0, 0
0, 0
0, 0
0, 0
0, 0
0, 0
0, 0
0, 0
0, 0
0, 0
0, 0
0, 0
0, 0
0, 0
0, 0
0, 0
0, 0
0, 0
0, 0
0, 0
0, 0
0, 0
0, 0
0, 0
0, 0
0, 0
0, 0
0, 0
0, 0
0, 0
0, 0
0, 0
0, 0
0, 0
0, 0
0, 0
0, 0
0, 0
0, 0
0, 0
0, 0
0, 0
0, 0
0, 0
0, 0
0, 0
0, 0
0, 0
0, 0
0, 0
0, 0
0, 0
0, 0
0, 0
0, 0
0, 0
0, 0
0, 0
0, 0
0, 0
0, 0
0, 0
0, 0
0, 0
0, 0
#ENDOFDATA     end of spectrum data