File: host_upload/02-11-2024/rqc/uplink1/ps__0567_0717304816_000rfs_shot_223.msa
#FORMAT      : EMSA/MAS spectral data file
#VERSION     : TC202v2.0 PIXL
#TITLE       : Novarupta (sol567) subset1
#DATE        : 02-11-2024      Date in the format DD-MMM-YYYY, for example 07-JUL-2010
#TIME        :             The time of day at which the spectrum was recorded, in 24-hour format
#OWNER       : PIXL Flight Model       (PIXL will use this to indicate which instrument took the data.)
#NPOINTS     : 4096     Number of data points in the spectrum (This can be zero for configuration only files)
#NCOLUMNS    : 2     Number of data columns in the spectrum (This can be zero for configuration only files)
#XUNITS      : eV
#YUNITS      : COUNTS
#DATATYPE    : YY
#XPERCHAN    : 7.862, 7.881   eV per channel (separate by commas if more than one detector)
#OFFSET      : 18.5, -22.4         eV of first channel  (separate by commas if more than one detector
#SIGNALTYPE  : XRF
#YP_TEMP     : 0.76
#LIVETIME    : 8.83918, 8.82267   seconds (separate by commas if more than one detector)
#REALTIME    : 10, 10.0   seconds (separate by commas if more than one detector)
#SPECTRUM    : start of spectrum data
0, 0
0, 0
0, 0
0, 0
0, 0
0, 0
0, 0
0, 0
0, 0
0, 0
0, 0
0, 0
0, 0
0, 0
0, 0
0, 0
0, 0
0, 0
0, 0
0, 0
0, 0
0, 0
0, 0
0, 0
0, 0
0, 0
0, 0
0, 0
0, 0
0, 0
1, 0
0, 0
1, 1
0, 0
0, 0
1, 0
2, 2
1, 5
3, 8
4, 6
4, 3
5, 3
4, 2
4, 2
3, 3
3, 3
3, 2
4, 6
4, 4
2, 7
8, 10
9, 6
17, 12
10, 16
13, 22
15, 16
12, 18
8, 19
9, 13
16, 16
25, 20
31, 35
45, 20
42, 45
53, 48
42, 39
54, 40
40, 36
40, 49
59, 74
117, 130
185, 196
289, 326
414, 414
477, 505
467, 530
407, 414
332, 349
231, 234
158, 136
71, 69
59, 47
31, 27
26, 35
36, 24
40, 35
21, 48
40, 37
21, 19
23, 21
15, 11
18, 12
27, 19
48, 46
58, 85
120, 126
187, 220
251, 247
265, 304
300, 294
252, 244
194, 200
152, 129
104, 92
64, 70
52, 56
54, 57
73, 72
102, 101
119, 139
186, 184
212, 200
241, 236
180, 242
221, 224
175, 160
119, 133
91, 110
79, 83
77, 77
77, 77
65, 72
63, 67
55, 50
32, 55
37, 28
32, 36
18, 18
18, 20
14, 14
15, 11
4, 16
6, 5
12, 5
7, 3
9, 6
12, 14
13, 16
17, 19
21, 21
18, 33
20, 32
27, 30
17, 16
13, 23
13, 11
9, 16
11, 4
19, 8
9, 14
35, 41
40, 56
80, 115
166, 162
204, 246
253, 320
322, 403
330, 418
345, 408
307, 298
228, 225
162, 192
117, 82
69, 68
38, 38
28, 26
28, 36
35, 29
41, 29
46, 52
47, 73
55, 61
46, 57
50, 52
36, 31
19, 32
20, 19
16, 6
8, 6
16, 4
11, 8
9, 5
12, 8
7, 12
10, 7
12, 13
19, 16
18, 28
39, 36
33, 49
52, 55
55, 65
72, 52
65, 56
48, 43
53, 43
40, 33
27, 22
16, 18
17, 18
13, 11
12, 9
11, 13
10, 10
6, 9
10, 15
20, 14
16, 16
11, 21
12, 18
27, 24
25, 16
9, 13
8, 25
7, 8
11, 13
20, 18
13, 12
13, 14
18, 12
9, 11
11, 6
15, 15
14, 13
14, 14
19, 21
25, 26
21, 29
25, 23
25, 39
25, 28
25, 42
37, 31
24, 29
24, 13
13, 17
6, 15
8, 10
17, 18
14, 10
12, 10
11, 10
10, 15
15, 20
15, 21
13, 22
23, 28
28, 27
44, 39
48, 37
58, 49
39, 46
52, 59
39, 46
39, 39
32, 22
21, 25
14, 21
16, 19
22, 23
16, 27
31, 39
39, 36
58, 80
106, 136
197, 281
378, 504
587, 722
857, 1082
1216, 1404
1396, 1677
1536, 1805
1720, 1780
1580, 1623
1390, 1396
1122, 1159
844, 752
540, 465
375, 313
180, 178
115, 96
52, 61
37, 41
27, 13
17, 15
10, 17
14, 17
15, 22
22, 14
21, 25
23, 25
24, 34
39, 50
51, 84
96, 98
100, 146
150, 189
200, 208
238, 233
230, 292
250, 269
227, 275
217, 213
163, 158
115, 112
72, 91
50, 38
39, 26
31, 14
13, 15
13, 10
10, 11
11, 9
7, 8
9, 11
10, 11
12, 12
20, 14
19, 8
20, 10
10, 15
14, 13
9, 2
10, 7
2, 6
11, 6
3, 10
3, 5
5, 10
6, 5
8, 4
7, 5
13, 8
11, 6
9, 2
7, 3
6, 6
4, 5
8, 13
4, 2
8, 7
3, 7
8, 17
8, 8
6, 9
7, 2
5, 7
8, 12
6, 7
6, 15
5, 3
6, 8
5, 7
9, 11
4, 6
5, 12
10, 8
3, 8
8, 5
5, 2
7, 7
9, 10
8, 9
12, 9
10, 14
8, 16
18, 13
11, 14
7, 11
3, 13
9, 8
9, 7
8, 7
9, 8
6, 5
7, 7
9, 3
2, 7
3, 4
4, 13
8, 5
5, 8
6, 9
8, 5
3, 6
7, 5
3, 3
8, 7
7, 5
3, 7
7, 12
4, 5
12, 2
4, 8
3, 5
4, 2
8, 7
9, 7
5, 10
4, 6
6, 3
3, 6
7, 4
1, 9
6, 7
6, 4
6, 6
9, 6
4, 7
7, 5
5, 7
5, 5
2, 3
6, 6
4, 4
8, 5
2, 6
2, 9
5, 10
7, 4
5, 5
4, 3
5, 4
5, 1
5, 8
6, 3
4, 4
7, 5
6, 3
8, 6
4, 5
4, 3
4, 3
6, 6
2, 4
2, 6
4, 2
1, 7
3, 6
4, 5
10, 3
2, 2
2, 5
1, 1
2, 5
2, 2
7, 3
4, 5
2, 4
5, 9
2, 3
2, 5
2, 3
4, 3
4, 1
1, 2
3, 2
0, 6
3, 6
5, 6
1, 6
9, 1
3, 3
4, 4
2, 6
3, 2
2, 6
3, 4
3, 2
2, 1
1, 5
1, 2
3, 2
3, 5
0, 2
3, 0
5, 3
3, 3
1, 2
2, 4
3, 2
0, 2
3, 4
2, 4
3, 5
1, 2
1, 5
2, 3
4, 0
1, 2
3, 0
1, 0
1, 1
2, 4
3, 0
2, 4
2, 3
3, 1
3, 2
2, 3
5, 4
4, 2
1, 2
1, 3
3, 4
3, 2
4, 3
2, 4
0, 1
2, 2
1, 1
3, 3
1, 1
1, 4
3, 3
2, 2
0, 2
0, 1
4, 3
2, 3
1, 0
4, 4
3, 2
0, 0
2, 2
2, 1
5, 3
0, 2
1, 2
3, 2
4, 3
2, 4
0, 4
1, 2
4, 2
2, 4
1, 4
3, 4
3, 2
0, 0
2, 5
1, 1
2, 2
4, 3
3, 2
2, 4
4, 4
1, 0
0, 2
2, 3
1, 0
2, 1
3, 2
4, 4
2, 2
1, 1
4, 3
0, 0
1, 5
2, 2
0, 2
2, 3
0, 2
0, 2
1, 3
1, 1
2, 4
3, 6
1, 1
1, 1
5, 2
3, 4
0, 1
2, 3
1, 3
2, 1
2, 3
1, 0
2, 0
3, 3
0, 2
0, 1
1, 1
0, 2
0, 0
3, 1
1, 1
2, 0
1, 4
1, 2
3, 2
3, 1
2, 1
0, 0
2, 0
2, 0
2, 2
1, 2
1, 2
0, 1
0, 1
0, 0
0, 0
2, 0
1, 1
1, 0
0, 1
2, 1
2, 0
3, 0
0, 2
3, 0
1, 0
1, 1
0, 2
1, 0
1, 0
0, 2
0, 0
0, 0
1, 0
0, 0
4, 1
2, 0
1, 1
0, 3
4, 0
2, 2
0, 0
0, 1
2, 0
0, 0
0, 1
2, 1
2, 0
0, 0
0, 0
1, 0
0, 2
3, 1
0, 1
1, 0
0, 0
0, 2
1, 0
0, 1
0, 3
2, 0
0, 2
1, 1
0, 1
1, 0
2, 1
0, 0
3, 0
0, 0
1, 1
0, 0
0, 0
0, 2
1, 1
1, 1
2, 0
0, 1
0, 1
0, 0
0, 3
0, 1
0, 1
0, 2
0, 0
1, 2
0, 2
1, 1
0, 1
0, 1
0, 0
1, 0
2, 1
0, 0
1, 0
1, 1
2, 0
0, 0
1, 1
1, 1
1, 0
0, 0
0, 3
1, 0
0, 0
0, 0
0, 0
0, 0
0, 0
1, 0
1, 0
1, 0
1, 1
0, 0
0, 1
0, 0
0, 0
1, 0
1, 0
1, 0
0, 1
0, 1
1, 1
0, 0
0, 0
3, 0
0, 1
0, 2
0, 0
0, 2
1, 1
0, 0
0, 1
1, 0
1, 2
0, 0
0, 0
0, 0
0, 0
0, 1
0, 0
0, 0
1, 0
0, 1
0, 0
0, 0
0, 0
0, 0
0, 0
0, 0
0, 0
0, 0
1, 0
0, 0
0, 1
0, 0
0, 0
0, 0
0, 0
0, 0
0, 0
0, 0
0, 0
0, 0
0, 1
0, 0
0, 0
0, 0
0, 1
0, 1
1, 0
0, 0
0, 0
0, 0
2, 0
0, 1
0, 0
0, 0
0, 1
0, 0
0, 2
0, 0
0, 0
0, 0
0, 0
0, 0
0, 0
0, 0
1, 0
0, 1
1, 0
0, 1
1, 0
0, 0
1, 0
0, 0
0, 0
0, 0
0, 0
0, 1
0, 0
2, 0
1, 0
0, 1
0, 1
1, 0
1, 1
1, 1
0, 1
0, 1
0, 0
1, 0
0, 0
1, 0
0, 0
0, 0
0, 1
0, 0
1, 0
0, 1
0, 0
0, 0
0, 0
0, 0
0, 0
1, 1
0, 0
0, 0
0, 1
1, 0
0, 0
0, 0
0, 0
0, 2
0, 0
0, 0
0, 0
0, 0
0, 0
0, 0
0, 1
0, 0
0, 0
1, 0
0, 0
0, 0
0, 0
0, 0
0, 0
0, 0
0, 0
0, 0
0, 1
0, 0
0, 0
0, 0
0, 0
0, 0
0, 0
0, 0
0, 0
0, 0
0, 0
0, 0
1, 1
0, 0
0, 0
0, 0
0, 1
0, 0
0, 0
0, 0
0, 0
0, 0
0, 0
0, 0
0, 0
0, 0
0, 0
0, 0
0, 0
0, 0
0, 0
0, 0
0, 0
0, 0
0, 0
0, 0
1, 1
0, 0
0, 0
0, 0
0, 0
0, 0
0, 0
0, 0
0, 0
0, 1
0, 0
0, 0
0, 0
0, 0
0, 0
0, 0
0, 0
0, 0
0, 0
0, 0
0, 1
0, 0
0, 0
0, 0
0, 0
0, 1
0, 0
0, 0
0, 0
0, 0
0, 0
0, 0
0, 0
0, 0
0, 0
0, 0
0, 0
0, 0
0, 0
0, 0
0, 0
0, 0
0, 0
0, 0
0, 0
0, 0
0, 0
0, 0
0, 0
0, 0
0, 0
0, 0
0, 0
0, 0
0, 0
0, 0
0, 0
0, 0
0, 1
0, 0
0, 0
0, 0
0, 0
0, 0
0, 0
0, 0
0, 0
0, 0
0, 0
0, 0
0, 0
0, 0
0, 0
0, 0
0, 0
0, 0
0, 0
0, 0
0, 0
0, 0
0, 0
0, 0
0, 0
0, 0
0, 0
0, 0
0, 0
1, 0
0, 0
0, 0
0, 0
0, 0
0, 0
0, 0
0, 0
0, 0
0, 0
0, 0
0, 0
0, 0
0, 0
0, 0
0, 0
0, 0
0, 0
0, 0
0, 0
0, 0
0, 0
0, 0
0, 0
0, 0
0, 0
0, 0
0, 0
0, 0
0, 0
0, 0
0, 0
0, 0
0, 0
0, 0
0, 0
0, 0
0, 0
0, 0
0, 0
0, 0
0, 0
0, 0
0, 0
0, 0
0, 0
0, 0
0, 0
0, 0
0, 0
0, 0
0, 0
0, 0
0, 0
0, 0
0, 0
0, 0
0, 0
0, 0
0, 0
0, 0
0, 0
0, 0
0, 0
0, 0
0, 0
0, 0
0, 0
0, 0
0, 0
0, 0
0, 0
0, 0
0, 0
0, 0
0, 0
0, 0
0, 0
0, 0
0, 0
0, 0
0, 0
0, 0
0, 0
0, 0
0, 0
0, 0
0, 0
0, 0
0, 0
0, 0
0, 0
0, 0
0, 0
0, 0
0, 0
0, 0
0, 0
0, 0
0, 0
0, 0
0, 0
0, 0
0, 0
0, 0
0, 0
0, 0
0, 0
0, 0
0, 0
0, 0
0, 0
0, 0
0, 0
0, 0
0, 0
0, 0
0, 0
0, 0
0, 0
0, 0
0, 0
0, 0
0, 0
0, 0
0, 0
0, 0
0, 0
0, 0
0, 0
0, 0
0, 0
0, 0
0, 0
0, 0
0, 0
0, 0
0, 0
0, 0
0, 0
0, 0
0, 0
0, 0
0, 0
0, 0
0, 0
0, 0
0, 0
0, 0
0, 0
0, 0
0, 0
0, 0
0, 0
0, 0
0, 0
0, 0
0, 0
0, 0
0, 0
0, 0
0, 0
0, 0
0, 0
0, 0
0, 0
0, 0
0, 0
0, 0
0, 0
0, 0
0, 0
0, 0
0, 0
0, 0
0, 0
0, 0
0, 0
0, 0
0, 0
0, 0
0, 0
0, 0
0, 0
0, 0
0, 0
0, 0
0, 0
0, 0
0, 0
0, 0
0, 0
0, 0
0, 0
0, 0
0, 0
0, 0
0, 0
0, 0
0, 0
0, 0
0, 0
0, 0
0, 0
0, 0
0, 0
0, 0
0, 0
0, 0
0, 0
0, 0
0, 0
0, 0
0, 0
0, 0
0, 0
0, 0
0, 0
0, 0
0, 0
0, 0
0, 0
0, 0
0, 0
0, 0
0, 0
0, 0
0, 0
0, 0
0, 0
0, 0
0, 0
0, 0
0, 0
0, 0
0, 0
0, 0
0, 0
0, 0
0, 0
0, 0
0, 0
0, 0
0, 0
0, 0
0, 0
0, 0
0, 0
0, 0
0, 0
0, 0
0, 0
0, 0
0, 0
0, 0
0, 0
0, 0
0, 0
0, 0
0, 0
0, 0
0, 0
0, 0
0, 0
0, 0
0, 0
0, 0
0, 0
0, 0
0, 0
0, 0
0, 0
0, 0
0, 0
0, 0
0, 0
0, 0
0, 0
0, 0
0, 0
0, 0
0, 0
0, 0
0, 0
0, 0
0, 0
0, 0
0, 0
0, 0
0, 0
0, 0
0, 0
0, 0
0, 0
0, 0
0, 0
0, 0
0, 0
0, 0
0, 0
0, 0
0, 0
0, 0
0, 0
0, 0
0, 0
0, 0
0, 0
0, 0
0, 0
0, 0
0, 0
0, 0
0, 0
0, 0
0, 0
0, 0
0, 0
0, 0
0, 0
0, 0
0, 0
0, 0
0, 0
0, 0
0, 0
0, 0
0, 0
0, 0
0, 0
0, 0
0, 0
0, 0
0, 0
0, 0
0, 0
0, 0
0, 0
0, 0
0, 0
0, 0
0, 0
0, 0
0, 0
0, 0
0, 0
0, 0
0, 0
0, 0
0, 0
0, 0
0, 0
0, 0
0, 0
0, 0
0, 0
0, 0
0, 0
0, 0
0, 0
0, 0
0, 0
0, 0
0, 0
0, 0
0, 0
0, 0
0, 0
0, 0
0, 0
0, 0
0, 0
0, 0
0, 0
0, 0
0, 0
0, 0
0, 0
0, 0
0, 0
0, 0
0, 0
0, 0
0, 0
0, 0
0, 0
0, 0
0, 0
0, 0
0, 0
0, 0
0, 0
0, 0
0, 0
0, 0
0, 0
0, 0
0, 0
0, 0
0, 0
0, 0
0, 0
0, 0
0, 0
0, 0
#ENDOFDATA     end of spectrum data