File: host_upload/02-11-2024/rqc/uplink1/ps__0567_0717304816_000rfs_shot_130.msa
#FORMAT      : EMSA/MAS spectral data file
#VERSION     : TC202v2.0 PIXL
#TITLE       : Novarupta (sol567) subset1
#DATE        : 02-11-2024      Date in the format DD-MMM-YYYY, for example 07-JUL-2010
#TIME        :             The time of day at which the spectrum was recorded, in 24-hour format
#OWNER       : PIXL Flight Model       (PIXL will use this to indicate which instrument took the data.)
#NPOINTS     : 4096     Number of data points in the spectrum (This can be zero for configuration only files)
#NCOLUMNS    : 2     Number of data columns in the spectrum (This can be zero for configuration only files)
#XUNITS      : eV
#YUNITS      : COUNTS
#DATATYPE    : YY
#XPERCHAN    : 7.862, 7.881   eV per channel (separate by commas if more than one detector)
#OFFSET      : 18.5, -22.4         eV of first channel  (separate by commas if more than one detector
#SIGNALTYPE  : XRF
#YP_TEMP     : -0.459
#LIVETIME    : 8.82559, 8.81709   seconds (separate by commas if more than one detector)
#REALTIME    : 10, 10.0   seconds (separate by commas if more than one detector)
#SPECTRUM    : start of spectrum data
0, 0
0, 0
0, 0
0, 0
0, 0
0, 0
0, 0
0, 0
0, 0
0, 0
0, 0
0, 0
0, 0
0, 0
0, 0
0, 0
0, 0
0, 0
0, 0
0, 0
0, 0
0, 0
0, 0
0, 0
0, 0
0, 0
0, 0
0, 1
0, 0
0, 0
0, 0
0, 0
0, 0
1, 1
0, 0
2, 2
2, 3
1, 0
1, 5
2, 8
3, 1
1, 4
3, 4
2, 2
2, 8
8, 4
2, 4
3, 2
2, 2
9, 5
3, 7
10, 11
11, 19
16, 13
16, 18
11, 19
11, 14
5, 12
6, 11
9, 13
17, 22
26, 32
35, 38
45, 52
40, 48
45, 51
39, 40
27, 39
37, 32
51, 64
113, 123
200, 244
269, 357
406, 455
471, 478
472, 481
437, 482
323, 316
220, 214
128, 114
82, 75
54, 57
28, 38
27, 36
39, 32
26, 31
38, 40
39, 35
32, 29
20, 26
34, 14
25, 23
30, 27
57, 33
104, 93
143, 155
204, 281
273, 324
299, 348
351, 335
278, 290
221, 226
155, 157
126, 116
70, 66
53, 58
63, 61
64, 58
91, 106
118, 136
150, 155
160, 223
207, 226
211, 236
196, 203
155, 171
96, 115
105, 97
78, 93
76, 72
86, 75
70, 73
75, 69
57, 55
45, 38
32, 38
36, 30
23, 21
17, 17
11, 22
11, 7
10, 7
11, 7
7, 6
8, 7
9, 9
11, 9
9, 17
24, 13
20, 27
32, 27
26, 45
23, 31
19, 26
16, 18
18, 15
18, 15
10, 12
20, 12
15, 17
27, 34
57, 69
81, 100
146, 165
199, 243
269, 275
331, 364
336, 390
308, 312
289, 297
212, 223
173, 162
88, 106
55, 56
37, 35
32, 32
30, 20
38, 27
29, 43
43, 50
53, 40
57, 60
44, 53
53, 51
30, 43
21, 27
18, 20
14, 13
13, 12
4, 10
4, 9
5, 10
5, 11
10, 15
18, 9
12, 19
14, 22
29, 27
40, 39
43, 53
53, 59
62, 68
73, 65
61, 63
55, 63
57, 48
37, 28
29, 22
15, 22
20, 13
14, 10
14, 21
14, 21
11, 12
11, 13
15, 11
15, 22
17, 18
12, 16
17, 24
15, 22
13, 13
12, 21
11, 14
9, 13
10, 9
13, 19
15, 15
18, 12
11, 16
9, 8
8, 8
6, 11
6, 17
10, 7
11, 20
25, 24
23, 26
30, 22
28, 25
26, 38
23, 32
22, 37
40, 19
23, 16
16, 12
12, 11
15, 10
14, 11
12, 10
14, 9
13, 13
13, 12
13, 14
11, 20
27, 17
20, 30
28, 38
44, 54
38, 49
41, 54
53, 55
42, 46
43, 51
27, 30
25, 20
23, 25
13, 30
18, 9
17, 23
28, 25
36, 32
51, 53
80, 87
136, 207
239, 333
457, 540
701, 841
1002, 1160
1359, 1421
1603, 1737
1756, 1953
1808, 1863
1704, 1601
1384, 1427
1152, 1158
863, 756
586, 485
322, 305
202, 150
111, 84
64, 49
42, 26
18, 17
16, 25
14, 13
16, 20
19, 14
15, 23
20, 21
27, 25
24, 37
44, 56
58, 90
105, 100
139, 154
163, 213
221, 247
249, 242
283, 308
267, 280
275, 257
223, 190
146, 165
109, 104
96, 73
64, 53
37, 23
21, 16
12, 11
9, 13
7, 9
7, 9
15, 14
9, 18
12, 17
8, 21
15, 13
11, 18
13, 8
12, 10
7, 7
7, 8
6, 10
5, 8
4, 7
6, 6
4, 10
3, 3
5, 6
3, 6
3, 6
6, 0
9, 6
6, 8
4, 4
5, 7
5, 6
7, 8
9, 6
6, 7
7, 9
6, 11
8, 11
9, 5
4, 9
3, 6
6, 6
7, 5
4, 11
3, 12
3, 8
6, 5
8, 5
8, 9
6, 4
4, 8
10, 11
8, 6
8, 7
6, 11
11, 9
13, 4
5, 7
11, 18
12, 15
13, 11
11, 14
14, 9
14, 10
13, 7
6, 8
5, 7
6, 7
7, 7
6, 7
3, 5
4, 8
6, 4
12, 6
6, 7
1, 3
7, 5
3, 6
7, 4
7, 8
3, 9
5, 5
5, 8
5, 6
3, 3
4, 4
3, 2
6, 4
3, 4
5, 4
6, 6
8, 8
3, 6
6, 10
4, 10
1, 1
4, 3
1, 3
7, 8
8, 5
9, 4
10, 6
4, 4
4, 5
6, 4
3, 7
5, 7
5, 3
1, 7
5, 6
5, 2
6, 4
4, 5
4, 2
7, 4
4, 4
4, 9
2, 6
5, 7
3, 7
7, 6
4, 4
6, 5
6, 5
2, 3
1, 6
5, 4
7, 3
5, 2
3, 3
3, 4
7, 3
4, 0
2, 2
2, 5
6, 4
3, 2
5, 4
4, 1
5, 3
6, 2
2, 1
5, 6
6, 2
3, 2
1, 5
7, 3
3, 4
5, 3
2, 5
4, 6
1, 3
2, 3
2, 4
4, 1
3, 3
3, 4
2, 4
1, 4
4, 2
2, 5
5, 3
0, 3
1, 4
3, 2
1, 5
1, 2
3, 5
2, 3
3, 1
5, 2
3, 4
4, 1
3, 5
6, 2
1, 4
4, 2
1, 2
3, 3
6, 5
3, 3
0, 1
2, 4
1, 3
4, 1
1, 3
2, 3
2, 2
3, 1
1, 2
1, 4
2, 1
4, 3
3, 1
0, 0
1, 3
2, 4
3, 2
2, 3
2, 3
3, 2
4, 5
0, 5
1, 1
2, 3
1, 0
3, 2
6, 0
4, 2
4, 1
2, 2
0, 3
4, 1
1, 0
1, 3
1, 4
3, 1
1, 4
4, 3
1, 1
4, 3
1, 4
1, 2
3, 2
4, 6
1, 3
2, 0
0, 1
1, 1
3, 3
0, 2
1, 2
3, 2
0, 3
3, 2
1, 4
1, 5
5, 1
3, 4
6, 4
1, 4
0, 2
0, 0
3, 5
4, 3
8, 0
0, 1
3, 1
0, 2
2, 0
0, 1
3, 2
2, 1
1, 3
1, 1
3, 2
2, 0
4, 4
2, 3
0, 3
2, 3
0, 1
2, 2
0, 0
1, 1
1, 1
1, 3
1, 1
0, 0
1, 3
0, 0
1, 0
2, 1
1, 2
1, 5
1, 0
2, 0
3, 2
2, 0
0, 0
0, 2
0, 0
4, 0
0, 1
1, 1
2, 2
3, 0
2, 3
1, 2
3, 0
3, 5
1, 1
2, 1
1, 2
2, 3
1, 2
3, 0
0, 0
0, 1
0, 0
2, 1
3, 2
3, 2
3, 0
2, 0
0, 2
0, 1
3, 3
2, 0
2, 3
1, 1
1, 2
2, 0
1, 1
0, 1
1, 3
1, 0
1, 1
0, 0
0, 0
1, 0
2, 2
0, 2
2, 0
0, 0
2, 1
1, 0
0, 0
3, 0
0, 0
1, 0
0, 0
0, 1
0, 0
0, 0
0, 1
0, 1
1, 0
1, 0
0, 1
0, 0
0, 0
0, 0
0, 0
0, 1
0, 2
0, 0
1, 2
0, 1
0, 0
1, 1
0, 0
1, 0
0, 0
3, 0
1, 0
0, 0
1, 1
1, 2
0, 0
1, 0
1, 0
0, 0
1, 1
2, 0
1, 0
1, 0
0, 0
1, 0
1, 1
0, 1
0, 1
0, 0
0, 2
1, 0
0, 2
3, 1
0, 0
0, 0
0, 3
1, 0
0, 1
0, 1
1, 2
1, 1
0, 0
0, 0
0, 2
1, 1
1, 1
0, 0
0, 2
1, 1
1, 0
0, 0
2, 1
0, 0
0, 1
0, 0
0, 0
0, 0
0, 0
1, 0
2, 0
0, 0
0, 1
1, 0
0, 1
1, 0
0, 0
0, 1
0, 2
0, 0
0, 0
1, 0
0, 0
1, 1
1, 0
0, 1
0, 0
0, 0
0, 1
0, 0
0, 0
0, 0
1, 0
0, 0
0, 1
1, 0
1, 0
0, 0
0, 1
0, 0
0, 0
1, 0
1, 1
0, 0
0, 0
0, 0
0, 0
2, 2
0, 0
0, 0
0, 0
1, 0
0, 1
0, 0
0, 0
0, 0
1, 0
0, 0
0, 0
1, 0
0, 0
0, 0
0, 0
1, 0
0, 1
2, 0
0, 0
0, 0
0, 1
0, 0
0, 1
0, 0
0, 0
1, 1
0, 0
0, 1
0, 0
0, 0
0, 0
1, 0
2, 1
0, 0
0, 1
0, 0
0, 1
0, 0
0, 1
0, 0
0, 0
0, 0
0, 0
0, 0
0, 0
0, 0
0, 1
0, 0
0, 0
0, 0
0, 0
0, 0
1, 0
1, 1
0, 0
0, 2
0, 0
1, 0
0, 1
0, 0
1, 0
0, 0
0, 0
1, 0
0, 0
0, 0
0, 0
0, 0
0, 0
1, 1
0, 0
0, 0
1, 1
0, 0
0, 0
0, 0
0, 0
0, 0
0, 0
0, 0
0, 0
1, 0
0, 0
0, 1
0, 1
0, 0
1, 0
0, 0
0, 0
0, 0
0, 0
0, 0
0, 0
0, 1
0, 1
0, 0
0, 1
0, 0
0, 0
0, 0
0, 1
0, 0
0, 0
0, 0
0, 0
1, 0
0, 0
0, 0
0, 1
0, 0
1, 0
0, 0
0, 1
1, 0
0, 0
0, 0
0, 0
0, 0
0, 1
0, 0
0, 0
1, 0
0, 0
0, 0
1, 0
0, 0
0, 0
1, 1
0, 0
0, 0
0, 0
0, 0
0, 0
0, 0
0, 0
0, 1
0, 0
0, 0
0, 0
0, 1
0, 0
0, 0
0, 0
0, 0
0, 0
0, 0
0, 1
1, 0
0, 0
0, 1
1, 0
0, 0
0, 0
0, 0
0, 0
0, 0
0, 0
0, 0
0, 0
0, 0
0, 0
0, 0
0, 0
1, 0
0, 0
0, 0
0, 0
0, 1
0, 0
0, 0
0, 0
0, 0
0, 0
0, 0
0, 0
0, 0
0, 0
0, 0
0, 0
0, 0
0, 0
0, 0
0, 0
0, 0
0, 0
0, 0
0, 0
0, 0
0, 0
0, 0
0, 1
0, 1
0, 0
0, 0
0, 0
0, 0
0, 0
0, 0
0, 0
0, 0
0, 0
1, 0
0, 0
0, 0
0, 0
0, 0
0, 0
0, 0
0, 0
0, 0
0, 0
0, 0
1, 0
0, 0
0, 0
0, 0
0, 0
0, 0
0, 0
0, 0
0, 0
0, 0
0, 0
0, 0
0, 0
0, 0
0, 0
1, 0
0, 0
0, 0
0, 0
0, 0
0, 0
0, 0
0, 0
0, 0
0, 0
0, 0
0, 0
0, 0
0, 0
0, 0
0, 1
0, 1
0, 0
0, 0
0, 0
0, 0
0, 0
0, 0
0, 0
1, 0
0, 0
0, 0
0, 0
0, 1
0, 0
0, 0
0, 0
0, 0
0, 0
0, 0
0, 0
0, 0
0, 0
0, 0
0, 0
0, 0
0, 0
0, 0
0, 0
0, 0
0, 0
0, 0
0, 0
0, 0
0, 0
0, 0
0, 0
0, 0
0, 0
0, 0
0, 0
0, 0
0, 0
0, 0
0, 0
0, 0
0, 0
0, 0
0, 0
0, 0
0, 0
0, 0
0, 0
0, 0
0, 0
0, 0
0, 0
0, 0
0, 0
0, 0
0, 0
0, 0
0, 0
0, 0
1, 0
0, 0
0, 0
0, 0
0, 0
0, 0
0, 0
0, 0
0, 0
0, 0
0, 0
0, 0
0, 0
0, 0
0, 0
0, 0
0, 0
0, 0
0, 0
0, 0
0, 0
0, 0
0, 0
0, 0
0, 0
0, 0
0, 0
0, 0
0, 0
0, 0
0, 0
0, 0
0, 0
0, 0
0, 0
0, 0
0, 0
0, 0
0, 0
0, 0
0, 0
0, 0
0, 0
0, 0
0, 0
0, 0
0, 0
0, 0
0, 0
0, 0
0, 0
0, 0
0, 0
0, 0
0, 0
0, 0
0, 0
0, 0
0, 0
0, 0
0, 0
0, 0
0, 0
0, 0
0, 0
0, 0
0, 0
0, 0
0, 0
0, 0
0, 0
0, 0
0, 0
0, 0
0, 0
0, 0
0, 0
0, 0
0, 0
0, 0
0, 0
0, 0
0, 0
0, 0
0, 0
0, 0
0, 0
0, 0
0, 0
0, 0
0, 0
0, 0
0, 0
0, 0
0, 0
0, 0
0, 0
0, 0
0, 0
0, 0
0, 0
0, 0
0, 0
0, 0
0, 0
0, 0
0, 0
0, 0
0, 0
0, 0
0, 0
0, 0
0, 0
0, 0
0, 0
0, 0
0, 0
0, 0
0, 0
0, 0
0, 0
0, 0
0, 0
0, 0
0, 0
0, 0
0, 0
0, 0
0, 0
0, 0
0, 0
0, 0
0, 0
0, 0
0, 0
0, 0
0, 0
0, 0
0, 0
0, 0
0, 0
0, 0
0, 0
0, 0
0, 0
0, 0
0, 0
0, 0
0, 0
0, 0
0, 0
0, 0
0, 0
0, 0
0, 0
0, 0
0, 0
0, 0
0, 0
0, 0
0, 0
0, 0
0, 0
0, 0
0, 0
0, 0
0, 0
0, 0
0, 0
0, 0
0, 0
0, 0
0, 0
0, 0
0, 0
0, 0
0, 0
0, 0
0, 0
0, 0
0, 0
0, 0
0, 0
0, 0
0, 0
0, 0
0, 0
0, 0
0, 0
0, 0
0, 0
0, 0
0, 0
0, 0
0, 0
0, 0
0, 0
0, 0
0, 0
0, 0
0, 0
0, 0
0, 0
0, 0
0, 0
0, 0
0, 0
0, 0
0, 0
0, 0
0, 0
0, 0
0, 0
0, 0
0, 0
0, 0
0, 0
0, 0
0, 0
0, 0
0, 0
0, 0
0, 0
0, 0
0, 0
0, 0
0, 0
0, 0
0, 0
0, 0
0, 0
0, 0
0, 0
0, 0
0, 0
0, 0
0, 0
0, 0
0, 0
0, 0
0, 0
0, 0
0, 0
0, 0
0, 0
0, 0
0, 0
0, 0
0, 0
0, 0
0, 0
0, 0
0, 0
0, 0
0, 0
0, 0
0, 0
0, 0
0, 0
0, 0
0, 0
0, 0
0, 0
0, 0
0, 0
0, 0
0, 0
0, 0
0, 0
0, 0
0, 0
0, 0
0, 0
0, 0
0, 0
0, 0
0, 0
0, 0
0, 0
0, 0
0, 0
0, 0
0, 0
0, 0
0, 0
0, 0
0, 0
0, 0
0, 0
0, 0
0, 0
0, 0
0, 0
0, 0
0, 0
0, 0
0, 0
0, 0
0, 0
0, 0
0, 0
0, 0
0, 0
0, 0
0, 0
0, 0
0, 0
0, 0
0, 0
0, 0
0, 0
0, 0
0, 0
#ENDOFDATA     end of spectrum data