File: host_upload/02-11-2024/rqc/uplink1/ps__0567_0717304816_000rfs_shot_172.msa
#FORMAT      : EMSA/MAS spectral data file
#VERSION     : TC202v2.0 PIXL
#TITLE       : Novarupta (sol567) subset1
#DATE        : 02-11-2024      Date in the format DD-MMM-YYYY, for example 07-JUL-2010
#TIME        :             The time of day at which the spectrum was recorded, in 24-hour format
#OWNER       : PIXL Flight Model       (PIXL will use this to indicate which instrument took the data.)
#NPOINTS     : 4096     Number of data points in the spectrum (This can be zero for configuration only files)
#NCOLUMNS    : 2     Number of data columns in the spectrum (This can be zero for configuration only files)
#XUNITS      : eV
#YUNITS      : COUNTS
#DATATYPE    : YY
#XPERCHAN    : 7.862, 7.881   eV per channel (separate by commas if more than one detector)
#OFFSET      : 18.5, -22.4         eV of first channel  (separate by commas if more than one detector
#SIGNALTYPE  : XRF
#YP_TEMP     : 0.215
#LIVETIME    : 8.83345, 8.81494   seconds (separate by commas if more than one detector)
#REALTIME    : 10, 10.0   seconds (separate by commas if more than one detector)
#SPECTRUM    : start of spectrum data
0, 0
0, 0
0, 0
0, 0
0, 0
0, 0
0, 0
0, 0
0, 0
0, 0
0, 0
0, 0
0, 0
0, 0
0, 0
0, 0
0, 0
0, 0
0, 0
0, 0
0, 0
0, 0
0, 0
0, 0
0, 0
0, 0
0, 0
0, 0
0, 0
0, 0
1, 1
1, 2
0, 0
0, 0
0, 3
1, 1
2, 2
2, 4
9, 1
3, 2
3, 6
6, 6
3, 6
3, 2
2, 3
1, 6
1, 4
2, 3
5, 5
7, 3
3, 5
6, 10
12, 14
19, 14
13, 24
21, 19
6, 16
12, 8
16, 12
8, 16
14, 19
23, 31
37, 55
41, 40
51, 58
28, 46
50, 44
30, 28
33, 40
46, 71
116, 130
171, 235
271, 338
417, 446
463, 557
508, 544
396, 453
342, 310
222, 231
150, 149
93, 89
57, 57
32, 32
27, 31
28, 34
42, 38
44, 29
28, 37
18, 47
16, 25
24, 19
12, 24
25, 22
48, 46
77, 104
143, 134
218, 228
293, 316
311, 332
303, 323
285, 276
225, 199
160, 152
92, 117
77, 58
53, 53
47, 54
47, 70
91, 101
131, 130
178, 200
200, 251
234, 268
215, 249
209, 224
162, 184
135, 132
105, 112
83, 101
80, 77
79, 61
57, 66
52, 68
52, 61
46, 53
35, 31
23, 31
39, 19
16, 26
13, 14
15, 9
6, 11
4, 12
7, 4
8, 4
7, 9
14, 13
12, 14
21, 22
23, 21
37, 33
32, 40
38, 31
28, 42
35, 24
18, 22
9, 11
11, 15
16, 13
16, 13
31, 29
49, 64
82, 117
130, 200
231, 271
273, 363
349, 390
351, 423
372, 423
286, 352
243, 239
184, 164
110, 111
64, 69
37, 46
28, 26
19, 41
31, 40
41, 44
45, 60
51, 69
45, 56
60, 59
58, 56
31, 39
27, 23
18, 13
13, 11
9, 15
2, 11
10, 11
3, 12
7, 7
8, 13
17, 15
13, 8
11, 25
32, 32
33, 38
33, 50
55, 62
66, 69
66, 74
58, 70
40, 66
49, 44
34, 37
31, 33
30, 20
15, 17
12, 15
15, 12
14, 16
12, 16
9, 15
11, 13
16, 18
13, 21
17, 24
18, 16
20, 22
14, 30
17, 24
12, 18
10, 23
16, 20
10, 16
13, 11
6, 7
11, 8
14, 17
6, 15
9, 14
11, 21
12, 15
14, 9
21, 26
24, 23
22, 30
29, 26
34, 47
26, 28
23, 35
20, 15
21, 18
17, 15
7, 21
15, 16
11, 8
13, 11
10, 17
14, 7
12, 13
13, 19
9, 18
21, 20
26, 34
36, 34
42, 40
37, 51
60, 54
44, 63
34, 64
40, 42
32, 40
18, 34
26, 25
14, 22
14, 16
21, 22
17, 31
17, 30
45, 64
65, 82
120, 162
236, 297
363, 513
647, 761
867, 1091
1187, 1385
1558, 1773
1612, 1916
1807, 1917
1622, 1711
1431, 1447
1126, 1134
880, 736
572, 585
380, 306
190, 171
113, 103
60, 43
39, 21
27, 33
15, 22
15, 22
13, 17
18, 14
11, 17
20, 35
29, 26
11, 37
49, 46
70, 79
104, 91
123, 163
172, 197
213, 277
228, 271
273, 292
256, 287
238, 246
215, 209
166, 187
136, 128
79, 71
62, 43
30, 30
23, 24
24, 10
8, 15
7, 14
10, 11
5, 9
14, 21
15, 8
12, 12
15, 16
21, 10
14, 12
16, 13
6, 8
13, 7
6, 4
6, 3
9, 4
5, 5
8, 3
6, 2
2, 14
6, 5
10, 6
4, 4
4, 6
5, 5
7, 7
3, 5
6, 8
7, 5
6, 5
6, 4
10, 9
7, 14
3, 10
3, 13
8, 10
2, 4
5, 12
11, 11
9, 5
6, 7
6, 8
6, 9
9, 6
10, 7
4, 7
13, 8
4, 6
6, 5
7, 8
7, 12
4, 6
6, 12
12, 11
14, 11
9, 10
9, 9
14, 8
7, 16
9, 9
7, 9
5, 7
9, 2
5, 9
2, 8
5, 8
4, 3
5, 6
10, 5
6, 2
7, 11
8, 7
5, 2
3, 3
2, 2
3, 8
7, 7
2, 6
5, 4
4, 6
13, 4
7, 3
5, 2
4, 8
3, 1
11, 4
4, 1
7, 2
11, 5
5, 2
9, 8
5, 10
6, 8
3, 5
11, 2
7, 9
5, 5
6, 7
6, 1
5, 5
6, 1
7, 7
6, 6
7, 5
6, 1
1, 5
3, 8
4, 5
6, 8
3, 2
6, 6
5, 3
3, 8
2, 7
1, 5
4, 2
5, 8
6, 6
6, 12
3, 7
6, 5
4, 8
3, 4
7, 4
6, 6
5, 2
9, 8
5, 5
5, 3
3, 4
4, 5
4, 2
3, 4
2, 6
4, 7
6, 0
2, 6
2, 4
3, 5
6, 1
3, 5
3, 1
4, 1
2, 2
3, 1
6, 1
4, 5
5, 5
2, 3
9, 5
4, 3
3, 2
1, 3
1, 5
8, 1
2, 2
3, 5
9, 3
2, 2
4, 1
2, 5
0, 5
6, 3
4, 4
4, 5
1, 1
5, 3
0, 2
0, 2
1, 5
2, 1
5, 4
5, 2
1, 2
3, 2
2, 2
1, 0
4, 6
3, 4
3, 5
4, 3
4, 2
3, 4
1, 1
0, 6
1, 2
2, 2
2, 0
5, 3
5, 2
2, 2
5, 1
3, 3
3, 5
1, 3
4, 2
1, 3
2, 2
3, 3
1, 5
1, 2
2, 4
1, 1
1, 2
3, 0
1, 2
2, 3
2, 2
0, 3
2, 0
1, 2
0, 2
0, 1
0, 2
3, 1
2, 2
1, 4
3, 5
2, 2
3, 2
4, 1
2, 2
1, 3
1, 2
1, 3
3, 1
0, 1
3, 1
1, 3
1, 3
3, 1
1, 4
3, 2
0, 2
3, 3
2, 4
5, 2
2, 3
3, 1
3, 0
2, 1
1, 0
0, 3
1, 0
3, 2
2, 1
0, 1
3, 1
0, 1
3, 1
1, 2
4, 4
0, 3
2, 0
1, 2
1, 2
2, 1
3, 1
2, 3
0, 4
1, 1
0, 1
2, 4
1, 0
1, 1
2, 2
2, 2
1, 2
1, 3
3, 2
0, 1
0, 0
1, 1
1, 0
1, 3
1, 2
2, 1
1, 1
0, 2
2, 0
1, 1
2, 1
0, 1
1, 1
0, 0
0, 2
1, 3
2, 0
0, 1
2, 1
1, 0
1, 0
0, 0
0, 0
1, 1
1, 0
1, 1
0, 1
0, 1
1, 1
3, 0
1, 0
1, 2
1, 1
1, 1
1, 0
0, 0
0, 1
1, 0
0, 0
0, 0
1, 0
1, 1
1, 3
0, 3
1, 2
1, 0
1, 1
0, 1
0, 2
0, 2
0, 2
3, 0
0, 0
0, 1
0, 0
1, 0
2, 0
0, 0
1, 0
0, 0
0, 1
2, 1
0, 3
0, 0
1, 1
0, 1
1, 2
1, 1
0, 0
1, 0
2, 0
2, 0
0, 3
3, 0
1, 1
0, 1
0, 1
0, 0
1, 3
0, 0
1, 0
0, 0
1, 0
1, 0
1, 0
0, 0
0, 1
1, 2
1, 0
1, 1
0, 0
1, 1
0, 0
1, 0
0, 1
1, 0
1, 1
0, 0
1, 0
0, 1
1, 0
0, 1
0, 0
0, 1
1, 0
1, 0
1, 1
0, 0
1, 0
0, 0
0, 0
1, 2
0, 1
0, 0
2, 0
1, 0
1, 0
1, 0
0, 0
1, 1
0, 1
0, 2
0, 1
1, 0
0, 0
0, 1
1, 1
1, 1
1, 0
1, 0
0, 1
0, 1
0, 0
1, 0
1, 0
0, 0
0, 0
4, 1
0, 0
0, 0
0, 0
2, 0
1, 1
1, 1
0, 0
1, 0
1, 1
0, 1
0, 0
1, 0
0, 0
0, 0
0, 0
0, 0
0, 0
0, 1
0, 0
1, 2
1, 2
0, 1
1, 1
0, 1
0, 0
1, 0
0, 1
1, 1
0, 0
0, 0
0, 0
0, 1
0, 0
0, 0
1, 0
0, 0
1, 0
0, 0
1, 0
0, 1
0, 1
0, 0
1, 0
0, 0
0, 0
1, 1
0, 1
0, 1
0, 1
0, 0
0, 0
0, 0
0, 0
0, 1
1, 0
0, 1
0, 0
0, 1
0, 0
0, 0
0, 0
0, 0
0, 0
0, 0
0, 0
0, 0
0, 0
0, 2
1, 1
1, 0
0, 0
0, 0
1, 0
0, 1
0, 0
0, 0
0, 1
1, 0
0, 0
0, 0
1, 0
0, 0
0, 0
0, 0
0, 0
0, 2
1, 0
0, 0
2, 0
0, 1
0, 0
0, 0
0, 0
0, 0
0, 0
0, 1
1, 0
0, 0
0, 0
0, 0
0, 0
0, 0
0, 1
1, 0
0, 0
1, 0
1, 0
0, 0
1, 0
0, 0
0, 0
0, 0
0, 0
0, 0
0, 0
1, 1
0, 0
0, 0
0, 0
0, 0
0, 0
0, 0
0, 1
0, 0
0, 0
2, 1
0, 0
1, 0
0, 0
0, 1
0, 0
0, 0
0, 0
0, 0
0, 0
0, 0
0, 0
0, 0
2, 0
0, 0
0, 0
0, 0
0, 0
0, 0
0, 0
0, 0
0, 0
0, 0
0, 0
1, 0
0, 0
0, 0
0, 0
0, 0
0, 0
0, 0
0, 0
0, 0
0, 0
0, 0
0, 0
0, 0
0, 0
0, 0
0, 0
0, 0
0, 0
0, 0
0, 0
0, 0
0, 0
0, 0
0, 0
0, 0
0, 0
0, 0
0, 0
0, 0
0, 0
0, 0
0, 1
0, 1
0, 0
0, 0
0, 0
0, 0
0, 0
0, 1
0, 0
0, 0
0, 0
0, 0
0, 0
0, 0
0, 0
0, 0
0, 0
0, 0
0, 0
0, 0
0, 0
0, 0
0, 0
0, 0
0, 0
0, 0
0, 0
1, 0
0, 0
0, 0
0, 0
0, 0
0, 0
0, 0
0, 0
0, 0
0, 0
0, 0
0, 0
0, 0
0, 0
0, 0
0, 0
0, 0
0, 0
0, 0
1, 0
0, 0
0, 1
0, 1
0, 0
0, 0
0, 0
0, 0
0, 0
0, 0
0, 0
0, 0
0, 0
0, 0
0, 0
0, 0
0, 0
0, 0
0, 0
0, 0
0, 0
0, 0
0, 0
0, 0
0, 1
1, 0
0, 0
0, 0
0, 1
0, 0
0, 0
0, 1
1, 0
0, 0
0, 0
0, 0
0, 0
0, 0
0, 0
0, 1
0, 0
0, 0
0, 0
0, 0
0, 0
0, 0
0, 0
0, 0
0, 0
0, 0
0, 0
0, 0
0, 1
0, 0
0, 0
0, 0
0, 0
0, 0
0, 0
0, 0
0, 0
0, 0
0, 0
0, 0
0, 0
0, 0
0, 0
0, 0
0, 0
0, 0
0, 0
0, 0
0, 0
0, 0
0, 0
0, 0
0, 0
0, 0
0, 0
0, 0
0, 0
0, 0
0, 0
0, 0
0, 0
0, 0
0, 0
0, 0
0, 0
0, 0
1, 0
0, 0
0, 0
0, 0
0, 0
0, 0
0, 0
0, 0
0, 0
0, 0
0, 0
0, 0
0, 0
0, 0
0, 0
0, 0
0, 0
0, 0
0, 0
0, 0
0, 0
0, 0
0, 0
0, 0
0, 0
0, 0
0, 0
0, 0
0, 0
0, 0
0, 0
0, 0
0, 0
0, 0
0, 0
0, 0
0, 0
0, 0
0, 0
0, 0
0, 0
0, 0
0, 0
0, 0
0, 0
0, 0
0, 0
0, 0
0, 0
0, 0
0, 0
0, 0
0, 0
0, 0
0, 0
0, 0
0, 0
0, 0
0, 0
0, 0
0, 0
0, 0
0, 0
0, 0
0, 0
0, 0
0, 0
0, 0
0, 0
0, 0
0, 0
0, 0
0, 0
0, 0
0, 0
0, 0
0, 0
0, 0
0, 0
0, 0
0, 0
0, 0
0, 0
0, 0
0, 0
0, 0
0, 0
0, 0
0, 0
0, 0
0, 0
0, 0
0, 0
0, 0
0, 0
0, 0
0, 0
0, 0
0, 0
0, 0
0, 0
0, 0
0, 0
0, 0
0, 0
0, 0
0, 0
0, 0
0, 0
0, 0
0, 0
0, 0
0, 0
0, 0
0, 0
0, 0
0, 0
0, 0
0, 0
0, 0
0, 0
0, 0
0, 0
0, 0
0, 0
0, 0
0, 0
0, 0
0, 0
0, 0
0, 0
0, 0
0, 0
0, 0
1, 0
0, 0
0, 0
0, 0
0, 0
0, 0
0, 0
0, 0
0, 0
0, 0
0, 0
0, 0
0, 0
0, 0
0, 0
0, 0
0, 0
0, 0
0, 0
0, 0
0, 0
0, 0
0, 0
0, 0
0, 0
0, 0
0, 0
0, 0
0, 0
0, 0
0, 0
0, 0
0, 0
0, 0
0, 0
0, 0
0, 0
0, 0
0, 0
0, 0
0, 0
0, 0
0, 0
0, 0
0, 0
0, 0
0, 0
0, 0
0, 0
0, 0
0, 0
0, 0
0, 0
0, 0
0, 0
0, 0
0, 0
0, 0
0, 0
0, 0
0, 0
0, 0
0, 0
0, 0
0, 0
0, 0
0, 0
0, 0
0, 0
0, 0
0, 0
0, 0
0, 0
0, 0
0, 0
0, 0
0, 0
0, 0
0, 0
0, 0
0, 0
0, 0
0, 0
0, 0
0, 0
0, 0
0, 0
0, 0
0, 0
0, 0
0, 0
0, 0
0, 0
0, 0
0, 0
0, 0
0, 0
0, 0
0, 0
0, 0
0, 0
0, 0
0, 0
0, 0
0, 0
0, 0
0, 0
0, 0
0, 0
0, 0
0, 0
0, 0
0, 0
0, 0
0, 0
0, 0
0, 0
0, 0
0, 0
0, 0
0, 0
0, 0
0, 0
0, 0
0, 0
0, 0
0, 0
0, 0
0, 0
0, 0
0, 0
0, 0
0, 0
0, 0
0, 0
0, 0
0, 0
0, 0
0, 0
0, 0
0, 0
0, 0
0, 0
0, 0
0, 0
0, 0
0, 0
0, 0
0, 0
0, 0
0, 0
0, 0
0, 0
0, 0
0, 0
0, 0
0, 0
0, 0
0, 0
0, 0
0, 0
0, 0
0, 0
0, 0
0, 0
0, 0
0, 0
0, 0
0, 0
0, 0
0, 0
0, 0
0, 0
0, 0
0, 0
0, 0
0, 0
0, 0
0, 0
0, 0
0, 0
0, 0
0, 0
0, 0
0, 0
0, 0
0, 0
0, 0
0, 0
0, 0
0, 0
0, 0
0, 0
0, 0
0, 0
0, 0
0, 0
#ENDOFDATA     end of spectrum data