File: host_upload/02-11-2024/rqc/uplink1/ps__0567_0717304816_000rfs_shot_367.msa
#FORMAT      : EMSA/MAS spectral data file
#VERSION     : TC202v2.0 PIXL
#TITLE       : Novarupta (sol567) subset1
#DATE        : 02-11-2024      Date in the format DD-MMM-YYYY, for example 07-JUL-2010
#TIME        :             The time of day at which the spectrum was recorded, in 24-hour format
#OWNER       : PIXL Flight Model       (PIXL will use this to indicate which instrument took the data.)
#NPOINTS     : 4096     Number of data points in the spectrum (This can be zero for configuration only files)
#NCOLUMNS    : 2     Number of data columns in the spectrum (This can be zero for configuration only files)
#XUNITS      : eV
#YUNITS      : COUNTS
#DATATYPE    : YY
#XPERCHAN    : 7.862, 7.881   eV per channel (separate by commas if more than one detector)
#OFFSET      : 18.5, -22.4         eV of first channel  (separate by commas if more than one detector
#SIGNALTYPE  : XRF
#YP_TEMP     : 1.722
#LIVETIME    : 8.82556, 8.82158   seconds (separate by commas if more than one detector)
#REALTIME    : 10, 10.0   seconds (separate by commas if more than one detector)
#SPECTRUM    : start of spectrum data
0, 0
0, 0
0, 0
0, 0
0, 0
0, 0
0, 0
0, 0
0, 0
0, 0
0, 0
0, 0
0, 0
0, 0
0, 0
0, 0
0, 0
0, 0
0, 0
0, 0
0, 0
0, 0
0, 0
0, 0
0, 0
0, 0
0, 0
0, 0
0, 0
0, 0
0, 1
1, 0
1, 1
0, 0
2, 0
1, 4
2, 3
1, 2
1, 0
4, 3
3, 2
1, 4
7, 3
4, 4
4, 2
5, 1
1, 0
2, 1
3, 3
2, 4
5, 5
5, 13
10, 16
9, 24
19, 19
12, 11
8, 16
12, 14
11, 13
12, 6
17, 17
24, 27
40, 35
55, 51
49, 50
59, 51
36, 43
28, 36
33, 52
48, 61
97, 124
180, 235
315, 308
420, 465
525, 536
489, 501
475, 436
353, 328
244, 235
147, 138
101, 87
59, 54
29, 30
28, 34
24, 29
29, 38
35, 42
32, 34
30, 24
13, 17
13, 24
25, 15
24, 30
37, 50
73, 78
135, 135
183, 195
225, 258
282, 303
321, 301
249, 273
213, 203
149, 143
110, 88
72, 57
40, 56
51, 62
59, 66
103, 96
146, 164
161, 192
205, 206
210, 254
224, 230
217, 227
171, 164
146, 139
109, 113
104, 89
86, 103
78, 74
86, 77
69, 76
63, 41
47, 48
36, 47
29, 18
26, 17
18, 25
17, 17
8, 14
12, 11
7, 12
7, 3
5, 5
6, 5
7, 15
12, 16
18, 19
13, 27
30, 37
28, 25
25, 26
25, 28
28, 18
17, 11
11, 9
13, 7
11, 19
16, 24
22, 27
44, 52
79, 109
133, 137
207, 220
277, 283
319, 335
326, 379
373, 338
297, 318
213, 231
151, 159
90, 98
51, 78
37, 40
36, 23
35, 19
42, 39
43, 41
48, 63
59, 64
59, 64
47, 59
48, 51
36, 49
28, 32
22, 18
19, 19
10, 8
17, 9
6, 5
8, 9
5, 8
8, 9
8, 11
11, 11
15, 20
26, 42
34, 35
37, 41
52, 38
63, 65
66, 67
56, 70
47, 53
38, 45
35, 44
33, 32
23, 25
31, 10
15, 22
15, 10
12, 12
19, 18
11, 8
12, 5
9, 13
13, 14
14, 22
16, 24
18, 20
18, 26
16, 18
17, 21
17, 15
13, 18
11, 8
19, 9
9, 13
6, 15
5, 12
12, 11
15, 10
8, 14
13, 12
22, 27
20, 20
17, 27
28, 35
30, 33
22, 31
22, 40
21, 33
20, 32
26, 18
19, 18
12, 15
15, 16
11, 17
18, 18
8, 14
12, 15
12, 16
12, 13
15, 20
15, 31
18, 34
24, 41
30, 37
41, 41
46, 63
50, 42
44, 43
42, 39
34, 34
37, 34
33, 26
19, 26
20, 23
21, 15
18, 27
26, 19
38, 47
76, 97
127, 147
201, 254
390, 460
570, 684
901, 1056
1227, 1401
1472, 1678
1722, 1788
1801, 1968
1690, 1680
1493, 1432
1186, 1104
913, 794
646, 517
366, 335
248, 175
121, 96
83, 52
40, 29
19, 23
30, 16
27, 16
14, 21
18, 14
18, 14
21, 24
30, 25
35, 25
35, 54
59, 66
96, 112
125, 132
178, 185
228, 244
261, 254
266, 287
268, 292
270, 240
236, 224
201, 175
125, 135
92, 77
49, 56
37, 35
22, 28
15, 16
14, 9
9, 8
7, 8
10, 7
9, 10
13, 16
15, 9
14, 17
21, 13
15, 17
15, 8
6, 7
8, 8
11, 8
7, 4
7, 8
8, 4
6, 10
3, 6
3, 5
3, 5
4, 3
10, 3
8, 6
5, 4
3, 4
6, 6
5, 11
2, 11
4, 7
8, 10
5, 9
6, 6
3, 8
4, 9
10, 8
13, 9
8, 10
9, 7
12, 7
3, 9
5, 3
7, 10
2, 7
6, 8
6, 3
8, 9
5, 10
4, 4
9, 5
8, 6
8, 8
12, 11
13, 8
9, 10
9, 19
13, 9
6, 18
12, 11
12, 9
8, 10
6, 7
5, 11
7, 10
3, 7
6, 6
9, 9
2, 6
4, 4
2, 7
10, 8
2, 9
8, 10
3, 10
3, 4
6, 7
6, 6
9, 2
3, 5
5, 7
1, 6
3, 7
6, 6
6, 3
3, 6
4, 5
2, 6
4, 7
1, 3
5, 6
2, 9
5, 7
6, 5
7, 9
4, 8
5, 4
3, 1
2, 3
2, 4
4, 6
4, 8
5, 4
5, 5
8, 5
10, 8
4, 4
5, 4
3, 4
7, 4
4, 8
4, 2
6, 7
6, 3
8, 5
3, 4
9, 6
4, 5
2, 6
6, 6
1, 5
2, 4
4, 5
3, 4
3, 3
5, 3
2, 4
10, 7
6, 3
1, 2
9, 2
4, 5
6, 5
4, 3
3, 3
2, 4
5, 6
3, 0
6, 2
2, 4
6, 3
3, 1
5, 3
3, 4
6, 3
3, 4
3, 2
2, 4
4, 5
2, 2
4, 1
1, 3
2, 3
1, 2
2, 1
1, 4
3, 1
1, 3
2, 7
5, 1
3, 3
6, 1
1, 2
1, 1
2, 2
2, 5
3, 3
1, 3
3, 4
1, 4
0, 2
3, 2
0, 6
1, 4
2, 3
4, 0
1, 2
1, 7
2, 3
4, 3
3, 4
6, 3
3, 2
4, 2
1, 5
3, 3
1, 1
1, 1
2, 0
2, 3
1, 6
1, 4
3, 2
3, 3
4, 4
2, 3
2, 2
5, 3
2, 1
2, 0
4, 1
5, 1
2, 2
1, 2
1, 2
5, 2
3, 3
3, 2
3, 5
2, 2
3, 1
1, 1
2, 3
2, 2
3, 3
3, 1
3, 3
0, 2
3, 1
4, 2
0, 1
2, 2
0, 2
2, 0
3, 1
0, 2
3, 3
0, 1
1, 3
1, 3
4, 0
2, 5
3, 5
4, 5
5, 2
5, 3
0, 1
1, 4
1, 3
0, 2
3, 1
1, 3
3, 3
1, 1
1, 2
3, 1
2, 2
1, 0
2, 1
3, 0
1, 1
1, 5
1, 1
0, 1
1, 2
4, 2
1, 2
2, 1
0, 2
2, 5
2, 0
3, 2
0, 0
0, 2
6, 2
1, 2
0, 3
1, 2
0, 0
0, 2
2, 0
3, 0
4, 2
2, 3
2, 0
0, 0
3, 1
1, 1
1, 0
0, 2
1, 0
0, 2
1, 1
0, 2
0, 3
0, 1
1, 0
1, 1
1, 1
0, 1
1, 1
1, 1
2, 1
1, 0
2, 1
0, 0
4, 0
1, 4
0, 2
0, 0
2, 1
0, 0
0, 3
2, 0
0, 1
1, 1
2, 1
2, 3
1, 0
1, 0
0, 2
0, 1
1, 0
4, 0
0, 0
0, 2
1, 0
1, 0
1, 2
1, 0
0, 1
1, 1
2, 1
2, 0
0, 3
1, 4
1, 1
0, 1
2, 1
1, 0
1, 2
1, 1
2, 0
2, 1
0, 0
0, 1
1, 1
1, 1
3, 1
0, 3
2, 1
1, 1
1, 0
2, 0
1, 0
0, 0
1, 0
1, 0
1, 0
0, 0
0, 0
2, 0
2, 0
0, 0
1, 2
1, 1
0, 1
1, 0
0, 0
0, 1
1, 0
0, 3
2, 0
1, 4
0, 2
0, 1
0, 0
0, 0
0, 0
2, 0
1, 0
1, 1
1, 1
0, 0
1, 0
0, 1
1, 0
1, 1
0, 0
2, 0
1, 1
0, 0
0, 1
1, 0
0, 0
1, 0
1, 1
0, 0
1, 0
1, 0
0, 1
2, 1
0, 0
0, 1
1, 0
0, 0
0, 0
1, 1
0, 0
0, 1
1, 0
0, 0
1, 0
0, 0
0, 0
0, 1
1, 1
0, 1
1, 0
1, 0
0, 0
0, 1
0, 1
1, 1
0, 0
0, 0
0, 0
0, 0
0, 0
0, 0
0, 0
0, 2
0, 2
2, 0
0, 0
0, 0
0, 0
0, 0
0, 0
0, 0
0, 0
1, 0
0, 1
0, 1
0, 0
1, 0
1, 0
0, 1
0, 0
0, 0
0, 0
0, 0
0, 0
0, 2
0, 0
0, 1
0, 0
0, 0
0, 0
0, 1
0, 0
0, 0
1, 0
0, 0
0, 0
0, 1
1, 0
0, 0
1, 0
0, 0
0, 0
0, 0
1, 0
1, 0
0, 0
0, 0
0, 0
0, 0
0, 1
0, 0
0, 1
0, 1
0, 0
0, 0
0, 0
0, 0
0, 0
1, 0
0, 0
0, 1
0, 2
0, 0
0, 0
0, 0
1, 1
0, 0
0, 0
1, 0
1, 0
0, 2
1, 1
0, 0
0, 0
1, 0
0, 0
0, 0
1, 0
0, 0
1, 0
0, 0
1, 0
0, 0
0, 0
0, 1
0, 0
0, 0
0, 0
0, 0
0, 1
0, 0
0, 0
0, 0
0, 0
0, 0
0, 0
0, 1
0, 0
0, 0
0, 0
0, 0
0, 0
0, 0
0, 0
0, 0
0, 0
0, 0
0, 1
0, 0
0, 0
0, 1
0, 0
0, 0
0, 1
0, 0
0, 0
0, 1
0, 0
0, 0
0, 2
0, 0
0, 0
0, 0
0, 0
0, 0
0, 0
0, 0
1, 0
1, 0
0, 0
0, 0
0, 0
0, 0
1, 0
1, 0
0, 0
0, 0
0, 0
0, 0
0, 0
0, 0
0, 0
0, 1
0, 0
0, 0
0, 0
0, 0
0, 0
1, 0
0, 0
2, 0
0, 0
0, 0
1, 0
0, 0
0, 0
0, 0
0, 0
1, 0
0, 0
0, 0
0, 0
1, 0
0, 0
0, 0
0, 0
0, 0
0, 0
0, 0
1, 0
0, 0
0, 0
0, 0
0, 1
0, 1
0, 0
0, 0
0, 0
0, 0
0, 0
1, 0
0, 1
0, 0
0, 0
0, 0
1, 0
0, 0
0, 0
0, 0
0, 1
0, 0
0, 0
0, 1
0, 0
0, 0
0, 0
0, 0
0, 0
0, 0
0, 0
0, 0
0, 0
0, 0
0, 0
0, 0
0, 0
0, 0
0, 0
0, 0
0, 0
0, 0
0, 0
0, 0
0, 0
0, 0
0, 0
0, 0
0, 0
0, 0
0, 0
0, 0
0, 0
0, 0
0, 1
0, 0
0, 0
0, 0
0, 0
0, 0
0, 0
0, 0
0, 0
0, 0
0, 0
0, 0
0, 0
0, 0
0, 0
0, 0
0, 0
0, 0
0, 0
1, 0
0, 0
0, 0
0, 0
0, 0
0, 0
0, 0
0, 0
0, 0
0, 0
0, 0
0, 0
0, 0
0, 0
0, 0
0, 0
0, 0
0, 0
0, 0
0, 0
0, 0
0, 0
0, 0
0, 0
0, 0
0, 0
0, 0
0, 0
0, 0
0, 0
0, 0
0, 0
0, 0
0, 0
0, 0
0, 0
0, 0
0, 0
0, 0
0, 0
0, 0
0, 0
0, 0
0, 0
0, 0
0, 0
0, 0
0, 0
0, 0
0, 0
0, 0
0, 0
0, 0
0, 0
0, 0
0, 0
0, 1
0, 0
0, 0
0, 0
0, 0
0, 0
0, 0
0, 0
0, 0
0, 0
0, 0
0, 0
0, 0
0, 0
0, 0
0, 0
0, 0
0, 0
0, 0
0, 0
0, 0
0, 0
0, 0
0, 0
0, 0
0, 0
0, 0
1, 0
0, 0
0, 0
0, 0
0, 0
0, 0
0, 0
0, 0
1, 0
0, 0
0, 0
0, 0
0, 0
0, 0
0, 0
0, 0
0, 0
0, 0
0, 0
0, 0
0, 0
0, 0
0, 0
0, 0
0, 0
0, 0
0, 0
0, 0
0, 0
0, 0
0, 0
0, 0
0, 0
0, 0
0, 0
0, 0
0, 0
0, 0
0, 0
0, 0
0, 0
0, 0
0, 0
0, 0
0, 0
0, 0
0, 0
0, 0
0, 0
0, 0
0, 0
0, 0
0, 0
0, 0
0, 0
0, 0
0, 0
0, 0
0, 0
0, 0
0, 0
0, 0
0, 0
0, 0
0, 0
0, 0
0, 0
0, 0
0, 0
0, 0
0, 0
0, 0
0, 0
0, 0
0, 0
0, 0
0, 0
0, 0
0, 0
0, 0
0, 0
0, 0
0, 0
0, 0
0, 0
0, 0
0, 0
0, 0
0, 0
0, 0
0, 0
0, 0
0, 0
0, 0
0, 0
0, 0
0, 0
0, 0
0, 0
0, 0
0, 0
0, 0
0, 0
0, 0
0, 0
0, 0
0, 0
0, 0
0, 0
0, 0
0, 0
0, 0
0, 0
0, 0
0, 0
0, 0
0, 0
0, 0
0, 0
0, 0
0, 0
0, 0
0, 0
0, 0
0, 0
0, 0
0, 0
0, 0
0, 0
0, 0
0, 0
0, 0
0, 0
0, 0
0, 0
0, 0
0, 0
0, 0
0, 0
0, 0
0, 0
0, 0
0, 0
0, 0
0, 0
0, 0
0, 0
0, 0
0, 0
0, 0
0, 0
0, 0
0, 0
0, 0
0, 0
0, 0
0, 0
0, 0
0, 0
0, 0
0, 0
0, 0
0, 0
0, 0
0, 0
0, 0
0, 0
0, 0
0, 0
0, 0
0, 0
0, 0
0, 0
0, 0
0, 0
0, 0
0, 0
0, 0
0, 0
0, 0
0, 0
0, 0
0, 0
0, 0
0, 0
0, 0
0, 0
0, 0
0, 0
0, 0
0, 0
0, 0
0, 0
0, 0
0, 0
0, 0
0, 0
0, 0
0, 0
0, 0
0, 0
0, 0
0, 0
0, 0
0, 0
0, 0
0, 0
0, 0
0, 0
0, 0
0, 0
0, 0
0, 0
0, 0
0, 0
0, 0
0, 0
0, 0
0, 0
0, 0
0, 0
0, 0
0, 0
0, 0
0, 0
0, 0
0, 0
0, 0
0, 0
0, 0
0, 0
0, 0
0, 0
0, 0
0, 0
0, 0
0, 0
0, 0
0, 0
0, 0
0, 0
0, 0
0, 0
0, 0
0, 0
0, 0
0, 0
0, 0
0, 0
0, 0
0, 0
0, 0
0, 0
0, 0
0, 0
0, 0
0, 0
0, 0
0, 0
0, 0
0, 0
0, 0
0, 0
0, 0
0, 0
0, 0
0, 0
0, 0
0, 0
0, 0
0, 0
0, 0
0, 0
0, 0
0, 0
0, 0
0, 0
0, 0
0, 0
0, 0
0, 0
0, 0
0, 0
0, 0
0, 0
0, 0
0, 0
0, 0
0, 0
0, 0
0, 0
0, 0
0, 0
0, 0
0, 0
0, 0
0, 0
0, 0
0, 0
0, 0
0, 0
0, 0
0, 0
0, 0
0, 0
0, 0
0, 0
0, 0
0, 0
0, 0
0, 0
0, 0
0, 0
#ENDOFDATA     end of spectrum data