File: host_upload/02-11-2024/rqc/uplink1/ps__0567_0717304816_000rfs_shot_310.msa
#FORMAT      : EMSA/MAS spectral data file
#VERSION     : TC202v2.0 PIXL
#TITLE       : Novarupta (sol567) subset1
#DATE        : 02-11-2024      Date in the format DD-MMM-YYYY, for example 07-JUL-2010
#TIME        :             The time of day at which the spectrum was recorded, in 24-hour format
#OWNER       : PIXL Flight Model       (PIXL will use this to indicate which instrument took the data.)
#NPOINTS     : 4096     Number of data points in the spectrum (This can be zero for configuration only files)
#NCOLUMNS    : 2     Number of data columns in the spectrum (This can be zero for configuration only files)
#XUNITS      : eV
#YUNITS      : COUNTS
#DATATYPE    : YY
#XPERCHAN    : 7.862, 7.881   eV per channel (separate by commas if more than one detector)
#OFFSET      : 18.5, -22.4         eV of first channel  (separate by commas if more than one detector
#SIGNALTYPE  : XRF
#YP_TEMP     : 1.402
#LIVETIME    : 8.84228, 8.6308   seconds (separate by commas if more than one detector)
#REALTIME    : 10, 10.0   seconds (separate by commas if more than one detector)
#SPECTRUM    : start of spectrum data
0, 0
0, 0
0, 0
0, 0
0, 0
0, 0
0, 0
0, 0
0, 0
0, 0
0, 0
0, 0
0, 0
0, 0
0, 0
0, 0
0, 0
0, 0
0, 0
0, 0
0, 0
0, 0
0, 0
0, 0
0, 0
0, 0
0, 0
0, 0
0, 0
0, 0
0, 0
0, 0
0, 0
0, 0
1, 1
2, 2
1, 2
2, 3
8, 6
2, 7
3, 4
5, 5
5, 1
1, 5
1, 3
2, 6
0, 4
2, 3
3, 2
7, 7
10, 9
5, 14
9, 12
14, 21
18, 21
15, 8
12, 11
16, 13
5, 7
12, 9
24, 14
20, 28
34, 52
39, 38
39, 59
48, 49
39, 29
34, 35
31, 33
45, 61
98, 128
195, 219
271, 298
377, 469
456, 512
414, 549
418, 407
307, 336
215, 226
133, 122
72, 85
53, 37
30, 35
33, 33
32, 36
28, 36
36, 32
27, 41
23, 25
20, 22
16, 18
14, 9
23, 23
46, 47
65, 74
105, 151
168, 222
224, 256
279, 331
284, 282
256, 245
191, 216
135, 144
92, 88
66, 72
51, 54
48, 46
69, 55
86, 108
114, 160
160, 179
203, 230
195, 222
211, 220
173, 192
145, 172
153, 134
104, 105
96, 118
72, 84
66, 84
89, 86
62, 56
71, 58
38, 45
41, 35
26, 32
23, 21
26, 17
23, 16
16, 12
9, 9
6, 10
5, 11
9, 10
4, 13
8, 8
15, 13
17, 16
24, 20
24, 26
31, 31
29, 26
28, 41
25, 24
26, 12
14, 14
5, 9
17, 11
15, 21
21, 31
44, 63
77, 76
153, 139
176, 258
282, 312
306, 364
322, 407
332, 373
313, 323
191, 253
153, 168
91, 94
73, 55
54, 36
34, 34
23, 25
37, 42
31, 52
40, 50
52, 77
47, 60
44, 58
43, 50
27, 43
19, 20
21, 18
16, 11
12, 12
10, 11
6, 10
9, 6
8, 8
8, 8
11, 12
15, 16
20, 20
19, 33
24, 36
40, 37
42, 55
58, 68
63, 60
62, 55
53, 47
44, 36
24, 36
16, 34
22, 28
18, 19
14, 19
15, 11
8, 5
10, 10
13, 12
12, 14
11, 14
12, 15
18, 21
16, 13
17, 17
19, 16
19, 11
18, 14
15, 14
10, 15
11, 8
22, 8
14, 8
4, 15
12, 15
5, 22
12, 9
9, 15
16, 16
20, 17
12, 23
30, 18
22, 23
22, 38
22, 43
30, 31
38, 31
20, 27
16, 21
18, 21
15, 17
19, 11
9, 10
7, 11
22, 9
9, 7
11, 9
14, 15
13, 22
20, 31
16, 32
37, 28
32, 50
50, 40
46, 50
41, 66
46, 48
42, 48
40, 27
29, 35
29, 31
20, 14
14, 25
26, 18
23, 22
31, 31
28, 56
67, 87
112, 154
198, 298
349, 477
568, 733
811, 1073
1157, 1437
1442, 1785
1669, 1854
1663, 1971
1641, 1804
1439, 1470
1163, 1203
850, 792
560, 521
404, 370
223, 202
147, 92
65, 56
41, 36
22, 24
17, 21
28, 17
17, 16
12, 13
11, 17
19, 22
18, 25
35, 39
44, 45
58, 68
74, 100
124, 124
156, 196
187, 229
270, 322
282, 273
293, 308
275, 284
229, 246
172, 156
123, 114
120, 84
65, 46
42, 27
20, 18
11, 9
7, 6
8, 6
7, 10
3, 16
10, 7
5, 11
10, 16
10, 15
13, 10
11, 15
9, 12
12, 14
6, 9
4, 8
6, 7
9, 11
6, 3
4, 8
6, 2
6, 3
1, 3
3, 7
4, 10
4, 8
7, 3
2, 7
5, 3
7, 2
3, 8
6, 6
7, 7
8, 13
6, 2
11, 9
3, 9
10, 5
5, 11
4, 7
10, 8
5, 12
11, 9
3, 8
9, 7
4, 5
3, 8
4, 2
1, 7
6, 4
10, 5
5, 11
7, 15
6, 7
7, 9
6, 6
8, 10
10, 16
9, 11
10, 6
12, 12
16, 6
12, 4
7, 8
8, 9
11, 10
4, 5
5, 6
4, 8
5, 8
7, 10
3, 8
3, 7
6, 7
4, 9
4, 8
3, 8
5, 4
4, 3
5, 10
8, 8
4, 10
2, 12
3, 4
10, 8
9, 6
5, 10
5, 7
9, 8
3, 4
9, 11
3, 5
6, 6
4, 6
8, 4
5, 9
6, 3
3, 4
6, 7
5, 5
5, 4
8, 5
7, 7
5, 6
2, 3
4, 3
7, 4
4, 4
4, 5
3, 2
5, 3
3, 3
4, 2
4, 2
5, 3
10, 5
3, 8
3, 4
4, 4
6, 3
2, 3
3, 8
4, 7
4, 2
1, 5
4, 3
6, 4
4, 7
2, 2
7, 4
5, 4
4, 10
5, 0
4, 3
5, 2
6, 4
2, 7
1, 1
7, 3
2, 3
4, 4
3, 5
1, 3
5, 1
1, 4
3, 3
4, 2
3, 4
3, 1
1, 2
2, 1
4, 3
3, 6
4, 4
0, 3
2, 2
2, 4
1, 5
5, 4
2, 5
1, 4
1, 1
5, 2
0, 4
8, 4
6, 1
4, 2
2, 1
2, 6
1, 3
0, 6
1, 4
1, 1
5, 4
2, 1
4, 0
2, 1
3, 1
4, 1
1, 4
1, 5
2, 4
8, 3
5, 3
3, 3
3, 6
6, 1
2, 1
0, 0
8, 4
1, 0
1, 3
3, 4
2, 1
1, 1
5, 2
2, 1
3, 1
5, 2
5, 4
3, 3
3, 2
0, 0
3, 1
4, 3
3, 2
1, 1
2, 3
2, 3
1, 3
3, 3
3, 2
2, 0
0, 1
0, 2
1, 2
2, 0
4, 0
0, 3
5, 6
1, 3
2, 1
2, 3
4, 1
6, 0
1, 5
1, 4
1, 1
3, 1
1, 3
3, 0
4, 2
3, 5
2, 2
4, 2
0, 1
4, 1
4, 8
3, 2
1, 0
5, 1
3, 3
0, 2
0, 2
1, 2
2, 0
2, 3
0, 5
3, 2
4, 1
1, 2
3, 2
1, 1
0, 2
0, 3
1, 2
0, 2
1, 2
1, 3
0, 2
3, 4
2, 6
2, 1
0, 2
0, 2
0, 0
1, 0
2, 2
2, 1
1, 4
1, 1
2, 1
3, 1
3, 1
1, 0
1, 3
2, 1
0, 1
2, 4
2, 1
0, 1
2, 1
0, 0
1, 0
2, 0
2, 1
1, 3
4, 1
0, 2
1, 2
0, 0
2, 1
0, 0
0, 1
0, 1
0, 0
4, 0
1, 2
0, 4
2, 0
2, 3
2, 1
0, 2
1, 0
1, 3
1, 0
3, 1
3, 1
0, 2
0, 2
0, 2
0, 1
1, 1
0, 0
0, 0
0, 0
0, 0
0, 1
1, 2
1, 0
0, 1
2, 0
2, 0
0, 1
0, 0
0, 0
0, 0
1, 0
1, 1
0, 2
0, 2
2, 4
0, 2
1, 0
1, 0
4, 3
1, 1
0, 0
0, 2
1, 2
3, 1
0, 0
0, 0
2, 1
0, 3
0, 0
0, 1
0, 0
0, 1
0, 1
1, 0
0, 0
0, 1
0, 0
3, 0
1, 0
0, 0
0, 0
1, 0
0, 2
0, 0
0, 0
0, 1
0, 1
0, 0
0, 1
0, 0
0, 0
0, 0
1, 0
0, 0
0, 0
0, 0
1, 1
0, 1
0, 0
0, 0
1, 0
0, 0
0, 1
1, 1
0, 1
2, 2
0, 1
0, 1
0, 1
0, 0
0, 1
1, 0
0, 0
2, 1
2, 0
1, 0
0, 1
0, 0
1, 1
1, 0
0, 0
0, 0
1, 0
0, 1
1, 0
0, 0
0, 0
1, 1
0, 1
0, 0
3, 0
0, 0
0, 0
0, 3
0, 0
0, 0
0, 0
0, 1
0, 0
0, 0
0, 0
1, 0
0, 0
0, 0
0, 1
0, 0
0, 2
0, 0
0, 0
0, 0
0, 0
0, 1
1, 0
0, 0
1, 0
0, 0
0, 0
0, 0
0, 0
0, 0
0, 0
0, 0
0, 0
0, 0
0, 1
0, 0
0, 1
0, 0
0, 0
0, 1
0, 1
0, 1
1, 0
1, 1
0, 0
0, 0
0, 0
0, 0
0, 0
0, 0
1, 1
0, 0
0, 0
0, 0
2, 0
0, 0
0, 1
1, 0
0, 0
0, 0
0, 0
2, 0
0, 1
0, 1
1, 0
1, 0
0, 0
0, 0
0, 1
0, 1
0, 0
0, 0
0, 0
2, 0
0, 0
2, 0
0, 0
0, 0
0, 2
0, 2
0, 0
1, 0
0, 0
0, 0
0, 0
0, 0
0, 1
0, 0
0, 0
0, 0
0, 0
1, 0
0, 0
0, 1
0, 0
0, 0
0, 0
0, 0
0, 0
0, 0
0, 0
0, 0
1, 0
1, 1
1, 0
0, 1
0, 1
0, 1
0, 0
0, 0
0, 0
0, 0
0, 0
0, 0
0, 0
0, 0
0, 0
0, 0
0, 0
0, 0
1, 0
0, 0
0, 0
0, 0
0, 0
0, 1
0, 0
0, 0
0, 0
0, 0
0, 1
0, 0
0, 0
0, 0
0, 0
0, 0
0, 0
1, 0
1, 0
0, 0
0, 0
0, 1
0, 0
0, 0
0, 0
0, 0
0, 0
0, 0
0, 0
0, 0
0, 0
0, 0
0, 0
0, 0
0, 0
0, 0
0, 0
0, 0
0, 0
0, 0
0, 0
0, 0
0, 0
0, 0
1, 0
0, 0
0, 0
0, 0
0, 0
0, 0
0, 0
0, 0
0, 0
0, 1
0, 0
0, 0
0, 0
0, 1
1, 0
0, 0
0, 0
0, 0
0, 0
0, 0
0, 0
0, 0
0, 0
0, 0
0, 0
0, 0
0, 0
0, 0
0, 0
0, 0
0, 0
0, 0
0, 0
0, 0
0, 0
0, 0
0, 0
0, 0
0, 0
0, 0
1, 0
0, 0
0, 0
0, 0
0, 0
0, 0
0, 0
0, 0
0, 0
0, 0
0, 0
0, 0
0, 0
0, 0
0, 1
0, 0
0, 0
0, 0
0, 0
0, 0
0, 0
0, 0
0, 0
0, 0
0, 0
0, 0
0, 0
0, 0
0, 0
0, 0
0, 0
0, 0
0, 0
0, 0
0, 0
0, 0
0, 0
0, 0
0, 0
0, 0
0, 0
0, 0
0, 0
0, 0
0, 0
0, 0
0, 0
0, 0
0, 0
0, 0
0, 0
0, 0
0, 0
0, 0
0, 0
0, 0
0, 0
0, 0
0, 0
0, 0
0, 0
0, 0
0, 0
0, 0
0, 0
0, 0
0, 0
0, 0
0, 0
0, 0
0, 0
0, 0
1, 0
0, 0
0, 0
0, 0
0, 0
0, 0
0, 0
0, 0
0, 0
0, 0
0, 0
0, 0
0, 0
0, 0
0, 0
0, 0
0, 0
0, 0
0, 0
0, 0
0, 0
0, 0
0, 0
0, 0
0, 0
0, 0
0, 0
0, 0
0, 0
0, 0
0, 0
0, 0
0, 0
0, 0
0, 0
0, 0
0, 0
0, 0
0, 0
0, 0
0, 0
0, 0
0, 0
0, 0
0, 0
0, 0
0, 0
0, 0
0, 0
0, 0
0, 0
0, 0
0, 0
0, 0
0, 0
0, 0
0, 0
0, 0
0, 0
0, 0
0, 0
0, 0
0, 0
0, 0
0, 0
0, 0
0, 0
0, 0
0, 0
0, 0
0, 0
0, 0
0, 0
0, 0
0, 0
0, 0
0, 0
0, 0
0, 0
0, 0
0, 0
0, 0
0, 0
0, 0
0, 0
0, 0
0, 0
0, 0
1, 0
0, 0
0, 0
0, 0
0, 0
0, 0
0, 0
0, 0
0, 0
0, 0
0, 0
0, 0
0, 0
0, 0
0, 0
0, 0
0, 0
0, 0
0, 0
0, 0
0, 0
0, 0
0, 0
0, 0
0, 0
0, 0
0, 0
0, 0
0, 0
0, 0
0, 0
0, 0
0, 0
0, 0
0, 0
0, 0
0, 0
0, 0
0, 0
0, 0
0, 0
0, 0
0, 0
0, 0
0, 0
0, 0
0, 0
0, 0
0, 0
0, 0
0, 0
0, 0
0, 0
0, 0
0, 0
0, 0
0, 0
0, 0
0, 0
0, 0
0, 0
0, 0
0, 0
0, 0
0, 0
0, 0
0, 0
0, 0
0, 0
0, 0
0, 0
0, 0
0, 0
0, 0
0, 0
0, 0
0, 0
0, 0
0, 0
0, 0
0, 0
0, 0
0, 0
0, 0
0, 0
0, 0
0, 0
0, 0
0, 0
0, 0
0, 0
0, 0
0, 0
0, 0
0, 0
0, 0
0, 0
0, 0
0, 0
0, 0
0, 0
0, 0
0, 0
0, 0
0, 0
0, 0
0, 0
0, 0
0, 0
0, 0
0, 0
0, 0
0, 0
0, 0
0, 0
0, 0
0, 0
0, 0
0, 0
0, 0
0, 0
0, 0
0, 0
0, 0
0, 0
0, 0
0, 0
0, 0
0, 0
0, 0
0, 0
0, 0
0, 0
0, 0
0, 0
0, 0
0, 0
0, 0
0, 0
0, 0
0, 0
0, 0
0, 0
0, 0
0, 0
0, 0
0, 0
0, 0
0, 0
0, 0
0, 0
0, 0
0, 0
0, 0
0, 0
0, 0
0, 0
0, 0
0, 0
0, 0
0, 0
0, 0
0, 0
0, 0
0, 0
0, 0
0, 0
0, 0
0, 0
0, 0
0, 0
0, 0
0, 0
0, 0
0, 0
0, 0
0, 0
0, 0
0, 0
0, 0
0, 0
0, 0
0, 0
0, 0
0, 0
0, 0
0, 0
0, 0
0, 0
0, 0
0, 0
0, 0
0, 0
0, 0
0, 0
0, 0
0, 0
0, 0
0, 0
0, 0
0, 0
0, 0
0, 0
0, 0
0, 0
0, 0
0, 0
0, 0
0, 0
0, 0
0, 0
0, 0
0, 0
0, 0
0, 0
0, 0
0, 0
0, 0
0, 0
0, 0
0, 0
0, 0
0, 0
0, 0
0, 0
0, 0
0, 0
0, 0
0, 0
0, 0
0, 0
0, 0
0, 0
0, 0
0, 0
0, 0
0, 0
0, 0
0, 0
0, 0
0, 0
0, 0
0, 0
0, 0
0, 0
0, 0
0, 0
0, 0
0, 0
0, 0
0, 0
0, 0
0, 0
0, 0
0, 0
0, 0
0, 0
0, 0
0, 0
0, 0
0, 0
0, 0
0, 0
0, 0
0, 0
0, 0
0, 0
0, 0
0, 0
0, 0
0, 0
0, 0
0, 0
0, 0
0, 0
0, 0
0, 0
0, 0
0, 0
0, 0
0, 0
0, 0
0, 0
0, 0
0, 0
0, 0
0, 0
#ENDOFDATA     end of spectrum data