File: host_upload/02-11-2024/rqc/uplink1/ps__0567_0717304816_000rfs_shot_315.msa
#FORMAT      : EMSA/MAS spectral data file
#VERSION     : TC202v2.0 PIXL
#TITLE       : Novarupta (sol567) subset1
#DATE        : 02-11-2024      Date in the format DD-MMM-YYYY, for example 07-JUL-2010
#TIME        :             The time of day at which the spectrum was recorded, in 24-hour format
#OWNER       : PIXL Flight Model       (PIXL will use this to indicate which instrument took the data.)
#NPOINTS     : 4096     Number of data points in the spectrum (This can be zero for configuration only files)
#NCOLUMNS    : 2     Number of data columns in the spectrum (This can be zero for configuration only files)
#XUNITS      : eV
#YUNITS      : COUNTS
#DATATYPE    : YY
#XPERCHAN    : 7.862, 7.881   eV per channel (separate by commas if more than one detector)
#OFFSET      : 18.5, -22.4         eV of first channel  (separate by commas if more than one detector
#SIGNALTYPE  : XRF
#YP_TEMP     : 1.369
#LIVETIME    : 8.8367, 8.81334   seconds (separate by commas if more than one detector)
#REALTIME    : 10, 10.0   seconds (separate by commas if more than one detector)
#SPECTRUM    : start of spectrum data
0, 0
0, 0
0, 0
0, 0
0, 0
0, 0
0, 0
0, 0
0, 0
0, 0
0, 0
0, 0
0, 0
0, 0
0, 0
0, 0
0, 0
0, 0
0, 0
0, 0
0, 0
0, 0
0, 0
0, 0
0, 0
0, 0
0, 0
0, 0
0, 0
0, 0
0, 0
0, 0
0, 0
1, 0
0, 2
0, 0
3, 2
3, 0
4, 3
3, 4
1, 2
8, 3
3, 1
2, 4
5, 4
4, 3
4, 4
4, 4
3, 4
4, 3
4, 0
11, 10
14, 9
14, 12
14, 7
19, 23
17, 12
7, 11
9, 9
4, 10
17, 12
26, 25
33, 40
51, 44
41, 65
44, 53
37, 42
45, 34
32, 48
56, 61
116, 118
189, 174
291, 309
391, 408
471, 521
451, 502
442, 437
354, 328
250, 248
145, 153
94, 77
60, 41
31, 32
17, 29
41, 26
34, 27
28, 36
38, 32
24, 29
22, 24
22, 12
13, 17
18, 27
37, 51
65, 70
126, 138
189, 187
245, 280
284, 295
296, 287
262, 315
202, 180
146, 154
84, 96
66, 53
54, 54
55, 60
65, 70
103, 88
102, 167
156, 176
201, 249
208, 191
222, 223
215, 182
163, 164
144, 143
100, 111
89, 81
90, 71
66, 71
80, 80
58, 66
62, 46
47, 51
32, 39
29, 38
12, 34
23, 13
18, 13
6, 9
8, 5
4, 8
7, 5
8, 9
6, 8
9, 7
17, 9
16, 21
25, 32
26, 26
34, 27
32, 34
19, 26
17, 19
9, 15
6, 14
9, 9
10, 4
17, 19
24, 24
55, 47
78, 104
120, 139
193, 240
251, 314
335, 367
384, 386
349, 378
284, 319
211, 227
143, 150
105, 102
56, 59
34, 48
30, 22
30, 31
38, 40
35, 47
46, 51
49, 66
59, 69
49, 54
48, 48
31, 39
22, 25
17, 19
18, 11
9, 17
8, 10
6, 8
5, 11
9, 5
8, 8
12, 18
16, 9
20, 18
29, 22
36, 35
31, 46
34, 58
50, 56
56, 77
47, 68
49, 61
43, 42
42, 43
29, 17
22, 26
13, 14
16, 15
16, 12
11, 13
9, 15
17, 11
10, 23
9, 11
15, 25
25, 20
17, 25
20, 15
19, 22
12, 18
19, 15
12, 11
8, 11
14, 16
12, 13
6, 7
9, 14
11, 15
10, 10
16, 11
12, 16
9, 17
17, 22
24, 26
33, 33
38, 44
35, 47
46, 55
34, 34
42, 44
40, 28
23, 27
26, 24
9, 17
12, 17
11, 13
11, 14
9, 9
11, 10
13, 11
12, 21
21, 19
24, 18
21, 24
28, 43
35, 45
45, 34
56, 56
51, 55
35, 45
52, 43
41, 43
32, 35
17, 26
31, 17
16, 13
24, 13
22, 19
24, 31
39, 38
70, 75
110, 138
212, 279
359, 460
582, 712
825, 1084
1104, 1321
1484, 1581
1712, 1781
1755, 1941
1639, 1755
1437, 1369
1195, 1146
842, 784
579, 577
384, 290
232, 186
106, 105
76, 48
38, 30
27, 21
18, 22
22, 21
18, 14
10, 18
12, 15
18, 13
18, 25
32, 39
36, 53
48, 56
88, 100
124, 118
122, 161
197, 229
211, 256
246, 239
274, 255
275, 243
231, 187
165, 167
118, 116
86, 77
59, 48
35, 23
25, 19
16, 14
11, 10
6, 9
8, 7
11, 4
14, 11
9, 12
13, 17
19, 19
16, 20
9, 13
9, 10
8, 13
14, 13
8, 6
5, 4
6, 7
8, 9
5, 13
3, 8
3, 6
11, 7
6, 6
2, 6
4, 3
11, 5
7, 11
8, 5
6, 6
7, 7
10, 6
8, 10
7, 5
8, 6
5, 7
5, 5
3, 8
13, 12
7, 12
9, 10
6, 11
8, 10
6, 5
5, 12
6, 7
2, 6
7, 11
4, 5
3, 7
10, 3
6, 4
6, 10
6, 4
7, 13
9, 5
8, 14
14, 20
8, 9
7, 19
16, 10
13, 10
15, 11
8, 8
5, 5
5, 6
3, 8
6, 11
7, 6
4, 7
7, 4
11, 7
2, 5
4, 4
15, 6
10, 4
6, 4
2, 8
7, 5
3, 2
3, 2
9, 3
1, 5
5, 7
5, 5
5, 8
3, 3
5, 4
5, 8
6, 4
9, 1
4, 9
5, 2
10, 4
7, 3
4, 3
9, 9
5, 7
4, 5
5, 7
8, 4
7, 6
3, 5
5, 6
10, 6
6, 4
10, 5
5, 3
5, 4
6, 5
3, 3
4, 7
3, 3
6, 6
4, 4
3, 1
2, 8
3, 7
2, 0
6, 4
2, 6
1, 3
6, 5
2, 4
5, 2
4, 1
8, 3
3, 5
4, 1
3, 3
7, 4
2, 3
2, 3
5, 1
2, 5
3, 5
5, 7
2, 2
5, 5
4, 7
6, 6
5, 1
3, 5
6, 8
4, 0
5, 4
5, 6
2, 5
2, 2
3, 5
3, 3
8, 2
3, 5
6, 2
1, 4
3, 4
4, 2
4, 1
2, 5
2, 4
2, 4
4, 3
0, 2
3, 5
1, 3
2, 2
2, 3
3, 0
2, 0
6, 6
1, 6
0, 5
1, 5
2, 2
2, 4
5, 1
1, 2
2, 1
2, 2
1, 2
2, 2
2, 0
3, 2
3, 0
3, 4
2, 4
3, 2
4, 2
0, 3
3, 6
2, 3
1, 5
2, 3
6, 1
3, 5
7, 2
0, 2
1, 1
2, 6
3, 0
2, 5
2, 5
3, 5
2, 0
0, 1
0, 3
2, 4
1, 3
3, 3
1, 5
3, 0
0, 1
1, 4
4, 1
1, 3
3, 1
1, 3
1, 0
3, 5
2, 0
1, 2
1, 1
5, 1
2, 2
1, 0
2, 3
3, 1
2, 3
0, 5
2, 3
2, 3
3, 2
3, 1
5, 1
1, 2
1, 3
4, 2
4, 2
1, 3
2, 1
2, 0
3, 1
2, 3
5, 1
1, 1
1, 1
4, 3
2, 1
2, 2
6, 3
0, 1
0, 1
0, 0
1, 1
0, 1
2, 3
4, 1
0, 1
0, 1
2, 2
0, 0
5, 0
1, 0
2, 2
2, 1
2, 5
1, 5
2, 2
3, 1
2, 0
2, 3
0, 0
0, 0
0, 2
1, 0
1, 0
0, 0
0, 1
2, 0
2, 1
0, 1
0, 0
1, 2
1, 3
2, 0
2, 1
2, 1
3, 0
1, 0
2, 0
3, 1
2, 1
1, 1
0, 0
2, 1
1, 2
0, 4
0, 1
0, 1
2, 0
1, 1
2, 1
1, 1
0, 0
0, 1
0, 0
1, 1
2, 1
0, 2
1, 1
0, 0
1, 2
1, 0
1, 1
1, 0
1, 0
0, 0
0, 2
0, 1
0, 2
0, 0
0, 1
2, 0
1, 0
1, 2
0, 3
0, 0
1, 1
0, 1
0, 1
0, 0
1, 2
0, 1
2, 0
0, 0
0, 1
0, 0
0, 2
0, 2
0, 0
2, 1
0, 0
1, 0
0, 1
0, 1
0, 2
1, 0
1, 0
2, 0
0, 0
1, 0
0, 0
1, 1
0, 1
0, 1
1, 3
0, 2
0, 0
1, 0
0, 0
0, 1
0, 0
1, 0
0, 0
0, 0
1, 0
0, 0
2, 0
0, 1
0, 2
0, 0
1, 0
0, 0
1, 1
0, 0
1, 0
1, 0
1, 1
0, 0
1, 0
0, 1
1, 0
0, 0
1, 0
0, 0
0, 0
0, 0
2, 1
1, 1
1, 1
1, 1
0, 1
0, 1
1, 0
0, 0
0, 2
0, 0
0, 1
0, 0
0, 0
0, 0
1, 0
0, 0
0, 0
0, 0
0, 1
0, 0
0, 0
0, 0
0, 0
0, 1
0, 0
1, 0
0, 1
1, 0
0, 0
0, 0
0, 0
0, 1
0, 0
0, 0
0, 0
0, 0
0, 0
0, 0
0, 1
0, 1
0, 1
0, 0
0, 0
1, 1
0, 0
0, 0
0, 0
0, 0
1, 0
0, 0
0, 0
2, 1
0, 0
0, 0
0, 1
0, 0
1, 2
0, 0
1, 0
1, 0
0, 0
0, 0
0, 0
0, 0
1, 2
1, 0
1, 0
0, 0
0, 0
0, 0
0, 0
0, 0
0, 0
1, 0
0, 0
0, 1
0, 0
0, 0
0, 0
0, 0
0, 1
0, 0
0, 0
0, 0
1, 1
0, 0
0, 0
0, 0
0, 0
0, 0
0, 0
2, 0
0, 0
0, 0
0, 0
0, 0
0, 0
0, 0
0, 1
0, 0
0, 0
0, 0
0, 0
0, 0
0, 0
0, 0
1, 0
0, 0
0, 0
0, 1
0, 0
0, 0
0, 0
0, 0
0, 0
0, 0
0, 1
0, 1
1, 0
0, 0
0, 0
0, 0
1, 0
0, 1
1, 0
0, 0
0, 0
0, 0
0, 0
1, 1
0, 0
0, 0
0, 0
0, 0
0, 1
0, 0
0, 0
0, 0
0, 0
0, 0
0, 0
0, 1
0, 0
0, 0
0, 0
0, 0
0, 0
0, 0
0, 0
0, 0
0, 0
0, 0
0, 0
0, 0
0, 0
0, 0
0, 1
0, 0
1, 0
0, 1
0, 0
0, 0
1, 1
1, 0
0, 1
0, 0
0, 0
1, 0
0, 1
0, 0
0, 0
0, 0
0, 0
0, 0
0, 0
0, 0
0, 0
1, 0
0, 0
0, 1
0, 1
0, 0
0, 0
1, 0
0, 0
0, 0
0, 0
0, 0
0, 1
1, 0
0, 0
0, 0
0, 0
0, 0
1, 0
0, 0
0, 0
0, 0
0, 0
0, 1
0, 0
0, 0
0, 0
0, 0
0, 0
0, 0
0, 0
1, 0
0, 0
0, 0
0, 0
0, 0
0, 0
0, 0
0, 0
0, 0
0, 0
0, 0
0, 0
0, 0
0, 0
1, 0
0, 0
0, 0
0, 0
0, 0
0, 1
0, 0
0, 0
0, 0
0, 0
0, 0
0, 0
0, 0
0, 0
0, 1
0, 0
0, 0
0, 0
0, 0
0, 0
0, 0
0, 1
0, 0
0, 0
0, 0
0, 0
0, 0
0, 0
0, 0
0, 0
0, 0
0, 0
0, 0
0, 0
0, 0
0, 0
0, 0
0, 0
0, 0
0, 0
0, 0
0, 0
0, 0
0, 0
0, 0
0, 0
0, 0
0, 0
0, 0
0, 0
0, 0
0, 0
0, 0
1, 0
0, 0
0, 0
0, 0
0, 0
0, 0
0, 0
0, 0
0, 0
0, 0
0, 0
0, 0
0, 0
0, 0
0, 0
0, 0
0, 0
0, 0
0, 0
0, 0
0, 0
0, 0
0, 0
0, 0
0, 0
0, 0
0, 0
0, 0
0, 0
0, 0
0, 1
0, 0
0, 0
0, 0
0, 0
0, 0
0, 0
0, 0
0, 0
0, 0
0, 0
0, 0
0, 0
0, 0
0, 0
1, 0
0, 0
0, 0
0, 0
0, 0
0, 0
0, 0
0, 0
0, 0
0, 0
0, 0
0, 0
0, 0
0, 0
0, 0
0, 0
0, 0
0, 0
0, 0
0, 0
0, 0
0, 0
0, 0
0, 0
0, 0
0, 0
0, 0
0, 0
0, 0
0, 0
0, 0
0, 0
0, 0
0, 0
0, 0
0, 0
0, 0
0, 0
0, 0
0, 0
0, 0
0, 0
0, 0
0, 0
0, 0
0, 0
0, 0
0, 0
0, 0
0, 0
0, 0
0, 0
0, 0
0, 0
0, 0
0, 0
0, 0
0, 0
0, 0
0, 0
0, 0
0, 0
0, 0
0, 0
0, 0
0, 0
0, 0
0, 0
0, 0
0, 0
0, 0
0, 0
0, 0
0, 0
0, 0
0, 0
0, 0
0, 0
0, 0
0, 0
0, 0
0, 0
0, 0
0, 0
0, 0
0, 0
0, 0
0, 0
0, 0
0, 0
0, 0
0, 0
0, 0
0, 0
0, 0
0, 0
0, 0
0, 0
0, 0
0, 0
0, 0
1, 0
0, 0
0, 0
0, 0
0, 0
0, 0
0, 0
0, 0
0, 0
0, 0
0, 0
0, 0
0, 0
0, 0
0, 0
0, 0
0, 0
0, 0
0, 0
0, 0
0, 0
0, 0
0, 0
0, 0
0, 0
0, 0
0, 0
0, 0
0, 0
0, 0
0, 0
0, 0
0, 0
0, 0
0, 0
0, 0
0, 0
0, 0
0, 0
0, 0
0, 0
0, 0
0, 0
0, 0
0, 0
0, 0
0, 0
0, 0
0, 0
0, 0
0, 0
0, 0
0, 0
0, 0
0, 0
0, 0
0, 0
0, 0
0, 0
0, 0
0, 0
0, 0
0, 0
0, 0
0, 0
0, 0
0, 0
0, 0
0, 0
0, 0
0, 0
0, 0
0, 0
0, 0
0, 0
0, 0
0, 0
0, 0
0, 0
0, 0
0, 0
0, 0
0, 0
0, 0
0, 0
0, 0
0, 0
0, 0
0, 0
0, 0
0, 0
0, 0
0, 0
0, 0
0, 0
0, 0
0, 0
0, 0
0, 0
0, 0
0, 0
0, 0
0, 0
0, 0
0, 0
0, 0
0, 0
0, 0
0, 0
0, 0
0, 0
0, 0
0, 0
0, 0
0, 0
0, 0
0, 0
0, 0
0, 0
0, 0
0, 0
0, 0
0, 0
0, 0
0, 0
0, 0
0, 0
0, 0
0, 0
0, 0
0, 0
0, 0
0, 0
0, 0
0, 0
0, 0
0, 0
0, 0
0, 0
0, 0
0, 0
0, 0
0, 0
0, 0
0, 0
0, 0
0, 0
0, 0
0, 0
0, 0
0, 0
0, 0
0, 0
0, 0
0, 0
0, 0
0, 0
0, 0
0, 0
0, 0
0, 0
0, 0
0, 0
0, 0
0, 0
0, 0
0, 0
0, 0
0, 0
0, 0
0, 0
0, 0
0, 0
0, 0
0, 0
0, 0
0, 0
0, 0
0, 0
0, 0
0, 0
0, 0
0, 0
0, 0
0, 0
0, 0
0, 0
0, 0
0, 0
0, 0
0, 0
0, 0
0, 0
0, 0
0, 0
0, 0
0, 0
0, 0
0, 0
0, 0
0, 0
0, 0
0, 0
0, 0
0, 0
0, 0
0, 0
0, 0
0, 0
0, 0
0, 0
0, 0
0, 0
0, 0
0, 0
0, 0
0, 0
0, 0
0, 0
0, 0
0, 0
0, 0
0, 0
0, 0
0, 0
0, 0
0, 0
0, 0
0, 0
0, 0
0, 0
0, 0
0, 0
0, 0
0, 0
0, 0
0, 0
0, 0
0, 0
0, 0
0, 0
0, 0
0, 0
0, 0
0, 0
0, 0
0, 0
0, 0
0, 0
0, 0
0, 0
#ENDOFDATA     end of spectrum data