File: host_upload/02-11-2024/rqc/uplink1/ps__0567_0717304816_000rfs_shot_347.msa
#FORMAT      : EMSA/MAS spectral data file
#VERSION     : TC202v2.0 PIXL
#TITLE       : Novarupta (sol567) subset1
#DATE        : 02-11-2024      Date in the format DD-MMM-YYYY, for example 07-JUL-2010
#TIME        :             The time of day at which the spectrum was recorded, in 24-hour format
#OWNER       : PIXL Flight Model       (PIXL will use this to indicate which instrument took the data.)
#NPOINTS     : 4096     Number of data points in the spectrum (This can be zero for configuration only files)
#NCOLUMNS    : 2     Number of data columns in the spectrum (This can be zero for configuration only files)
#XUNITS      : eV
#YUNITS      : COUNTS
#DATATYPE    : YY
#XPERCHAN    : 7.862, 7.881   eV per channel (separate by commas if more than one detector)
#OFFSET      : 18.5, -22.4         eV of first channel  (separate by commas if more than one detector
#SIGNALTYPE  : XRF
#YP_TEMP     : 1.466
#LIVETIME    : 8.83262, 8.81681   seconds (separate by commas if more than one detector)
#REALTIME    : 10, 10.0   seconds (separate by commas if more than one detector)
#SPECTRUM    : start of spectrum data
0, 0
0, 0
0, 0
0, 0
0, 0
0, 0
0, 0
0, 0
0, 0
0, 0
0, 0
0, 0
0, 0
0, 0
0, 0
0, 0
0, 0
0, 0
0, 0
0, 0
0, 0
0, 0
0, 0
0, 0
0, 0
0, 0
0, 0
0, 0
0, 0
0, 0
0, 0
0, 0
0, 0
0, 0
1, 1
2, 1
0, 4
3, 1
8, 6
7, 2
1, 6
7, 4
0, 2
2, 1
3, 5
5, 6
1, 6
7, 4
3, 2
8, 2
6, 15
4, 7
18, 14
13, 14
15, 21
20, 21
10, 16
10, 15
7, 16
13, 14
11, 22
25, 28
34, 39
41, 52
55, 43
45, 54
33, 37
29, 40
39, 36
41, 64
106, 117
163, 190
281, 352
400, 463
449, 566
464, 565
418, 495
285, 370
228, 205
140, 143
102, 79
41, 55
35, 34
20, 30
29, 24
28, 43
34, 32
26, 30
23, 29
16, 21
21, 20
12, 24
32, 30
38, 40
64, 92
109, 127
176, 249
247, 269
276, 306
308, 317
249, 280
213, 242
148, 171
101, 107
80, 82
56, 56
53, 55
58, 70
70, 84
114, 125
166, 160
192, 228
207, 224
217, 238
153, 216
162, 167
145, 140
113, 109
91, 107
90, 91
64, 92
62, 60
58, 72
45, 41
48, 42
47, 42
19, 35
20, 23
15, 24
14, 14
16, 12
8, 9
9, 10
4, 8
7, 8
4, 7
9, 8
9, 19
15, 19
19, 27
33, 23
38, 32
28, 25
29, 32
13, 25
17, 15
8, 7
12, 9
13, 10
10, 18
23, 29
42, 63
77, 100
127, 176
173, 227
244, 344
292, 394
338, 439
308, 384
268, 303
244, 246
155, 163
86, 103
53, 62
43, 35
29, 25
23, 37
30, 32
32, 41
42, 70
47, 57
50, 63
61, 61
53, 53
33, 28
25, 31
16, 22
13, 14
7, 12
5, 8
11, 6
6, 5
11, 6
11, 14
4, 12
12, 9
9, 16
35, 30
39, 43
41, 53
37, 54
63, 69
51, 52
57, 73
69, 57
43, 51
30, 53
31, 24
17, 27
15, 16
19, 17
11, 12
15, 15
13, 14
17, 12
12, 16
17, 12
21, 18
16, 14
13, 18
16, 16
22, 25
10, 16
15, 14
14, 19
9, 12
13, 12
10, 17
11, 12
13, 11
8, 19
11, 15
9, 13
6, 5
7, 11
16, 23
18, 20
14, 23
26, 29
35, 31
24, 40
23, 33
24, 27
22, 37
20, 22
18, 21
20, 14
13, 11
12, 9
14, 12
7, 11
11, 9
12, 11
11, 15
12, 17
21, 27
31, 20
25, 42
36, 40
59, 47
40, 54
33, 43
40, 46
43, 47
34, 42
25, 32
21, 27
13, 19
19, 22
22, 17
15, 31
28, 34
36, 54
62, 74
114, 154
177, 269
368, 500
540, 729
835, 1037
1117, 1459
1386, 1719
1649, 1893
1677, 1956
1644, 1722
1428, 1476
1190, 1197
902, 892
592, 545
363, 337
207, 189
119, 97
64, 58
35, 38
24, 22
13, 22
12, 12
8, 23
16, 17
13, 23
19, 19
17, 26
38, 35
30, 47
56, 66
80, 121
124, 130
161, 224
193, 220
226, 268
254, 269
249, 305
233, 253
208, 217
177, 173
136, 117
94, 99
63, 45
36, 32
21, 19
11, 15
15, 7
9, 12
8, 9
9, 9
10, 8
14, 13
13, 18
15, 17
12, 13
17, 14
12, 8
14, 10
10, 8
9, 6
5, 8
7, 6
5, 9
6, 4
7, 6
6, 3
1, 10
8, 4
4, 6
4, 3
6, 7
3, 6
8, 4
4, 5
9, 4
6, 9
8, 9
2, 7
6, 6
4, 11
4, 5
4, 4
18, 12
6, 8
15, 10
7, 4
4, 9
6, 7
5, 7
5, 7
14, 5
7, 9
2, 4
5, 3
8, 9
4, 13
8, 6
8, 5
13, 8
7, 4
10, 18
6, 14
14, 9
15, 14
14, 9
7, 10
12, 14
5, 8
10, 7
7, 4
11, 6
9, 9
7, 8
8, 6
14, 7
3, 8
6, 10
4, 3
4, 10
5, 6
3, 9
7, 6
3, 6
5, 9
6, 9
9, 7
5, 4
9, 9
3, 4
2, 8
4, 4
2, 9
5, 3
9, 2
7, 9
5, 10
5, 7
5, 6
6, 6
2, 3
5, 4
7, 9
3, 5
3, 2
6, 2
3, 2
4, 3
3, 5
8, 7
4, 2
10, 1
2, 7
5, 4
7, 3
6, 2
5, 6
5, 7
2, 2
4, 5
2, 4
3, 2
3, 2
2, 5
6, 4
3, 5
5, 3
4, 2
4, 5
3, 5
5, 5
6, 5
3, 2
5, 2
0, 4
4, 4
4, 6
1, 3
5, 2
2, 5
3, 7
2, 3
1, 4
5, 3
6, 4
1, 3
4, 2
4, 3
4, 1
3, 2
1, 4
7, 2
5, 4
8, 3
1, 6
4, 2
3, 3
3, 0
4, 5
3, 3
4, 2
5, 3
4, 4
6, 4
5, 7
2, 5
2, 7
1, 0
2, 3
5, 3
1, 4
4, 2
1, 2
1, 3
3, 4
4, 4
0, 1
4, 0
1, 2
3, 1
3, 3
4, 3
1, 5
4, 3
3, 5
2, 4
4, 4
1, 1
1, 4
6, 2
1, 3
2, 2
3, 4
1, 1
2, 1
3, 3
1, 4
4, 3
2, 1
2, 4
1, 2
3, 4
3, 0
1, 0
3, 3
0, 3
1, 2
5, 2
4, 3
3, 2
1, 1
3, 3
0, 0
4, 1
3, 1
0, 4
4, 0
2, 4
3, 1
0, 0
3, 3
2, 0
4, 3
4, 1
3, 3
1, 3
2, 0
2, 4
3, 2
2, 2
3, 3
1, 2
4, 3
1, 2
2, 1
5, 3
3, 4
3, 6
2, 0
2, 2
8, 6
2, 2
3, 4
2, 2
1, 6
1, 1
1, 0
1, 2
2, 0
3, 3
2, 3
1, 3
2, 1
2, 1
2, 0
2, 0
2, 1
2, 1
1, 3
1, 0
0, 0
1, 0
2, 3
2, 1
3, 1
1, 4
3, 3
1, 3
2, 0
0, 1
0, 1
1, 2
1, 2
0, 0
1, 3
1, 3
2, 1
1, 0
0, 1
2, 1
1, 1
1, 2
2, 0
2, 0
1, 0
1, 1
0, 1
0, 2
3, 3
1, 1
1, 1
2, 0
2, 2
1, 0
3, 2
0, 1
0, 1
0, 0
2, 1
0, 1
2, 1
3, 2
1, 2
2, 1
2, 1
0, 1
1, 1
1, 0
1, 0
1, 1
1, 1
0, 0
2, 0
1, 0
1, 0
1, 1
1, 0
0, 1
1, 3
0, 0
1, 1
1, 1
0, 0
1, 2
1, 0
1, 3
0, 1
1, 2
1, 3
0, 4
0, 0
0, 0
1, 1
1, 0
1, 0
1, 2
0, 0
0, 1
0, 0
0, 2
0, 2
0, 0
0, 0
0, 0
0, 0
0, 1
1, 0
0, 1
1, 0
0, 2
2, 0
0, 2
1, 0
0, 0
2, 2
0, 1
0, 0
0, 1
0, 1
0, 1
1, 1
1, 2
1, 1
3, 2
0, 3
0, 0
1, 1
0, 0
0, 2
0, 2
1, 2
1, 1
0, 1
0, 1
1, 0
0, 0
0, 1
2, 0
0, 0
0, 0
0, 0
0, 1
0, 1
1, 0
0, 1
1, 0
0, 1
0, 0
0, 0
0, 0
0, 0
1, 0
1, 2
0, 0
0, 1
1, 1
1, 0
0, 1
0, 0
0, 0
1, 0
0, 0
2, 0
0, 0
0, 1
1, 0
2, 2
0, 1
0, 0
0, 0
0, 1
0, 1
0, 0
0, 0
1, 0
0, 0
0, 0
0, 1
0, 1
0, 0
0, 1
0, 1
1, 0
0, 2
0, 0
0, 1
0, 0
0, 1
0, 0
1, 1
0, 0
0, 1
0, 1
0, 0
0, 1
1, 1
0, 0
0, 0
0, 0
1, 0
0, 0
1, 0
0, 0
0, 1
0, 0
1, 0
0, 0
3, 0
0, 0
0, 0
0, 1
0, 1
2, 1
0, 0
0, 0
1, 0
0, 0
0, 0
0, 1
0, 1
0, 0
0, 0
0, 1
0, 0
0, 0
0, 0
1, 1
0, 1
0, 0
0, 0
1, 1
1, 0
0, 0
0, 0
0, 0
0, 0
0, 0
0, 0
0, 1
0, 1
0, 1
0, 0
0, 0
0, 0
0, 0
0, 0
0, 1
0, 0
0, 1
0, 0
0, 0
1, 0
0, 1
0, 1
1, 0
0, 1
0, 0
1, 1
0, 1
0, 0
0, 0
0, 0
1, 0
0, 0
0, 0
0, 0
1, 1
0, 0
0, 0
0, 0
0, 1
0, 0
0, 0
0, 0
0, 1
0, 0
0, 1
0, 0
1, 0
0, 0
0, 0
0, 0
0, 0
0, 0
0, 0
0, 0
0, 0
0, 0
1, 0
0, 0
0, 0
0, 0
0, 0
0, 0
1, 0
1, 1
0, 0
0, 0
0, 0
1, 0
0, 0
0, 0
0, 0
0, 0
0, 0
0, 1
0, 0
0, 1
0, 0
0, 0
0, 0
0, 0
0, 0
0, 0
0, 0
0, 0
1, 0
0, 0
0, 0
0, 1
0, 0
0, 0
0, 0
0, 0
0, 0
0, 0
0, 0
1, 1
0, 0
0, 0
0, 1
0, 0
0, 0
0, 0
0, 0
0, 0
0, 0
0, 0
0, 0
0, 0
0, 0
0, 0
1, 0
0, 0
0, 1
0, 0
1, 0
0, 0
0, 0
0, 0
0, 0
0, 0
0, 0
0, 0
0, 0
0, 0
0, 0
0, 0
0, 1
0, 0
1, 0
0, 0
0, 0
0, 0
0, 0
0, 0
0, 0
0, 0
0, 0
0, 0
0, 0
0, 0
0, 0
0, 0
0, 0
0, 1
0, 0
1, 0
0, 1
0, 0
0, 0
0, 0
0, 0
0, 0
0, 0
0, 0
0, 0
0, 0
0, 0
0, 0
0, 0
0, 0
0, 0
0, 0
0, 0
0, 0
0, 0
0, 0
1, 1
0, 0
0, 0
0, 0
0, 0
0, 0
0, 0
0, 0
0, 0
0, 0
0, 0
0, 0
0, 0
0, 1
0, 0
0, 0
0, 0
0, 0
0, 0
0, 0
0, 0
0, 0
0, 0
0, 0
0, 0
1, 1
0, 0
0, 0
0, 0
0, 0
0, 0
0, 0
0, 0
0, 0
0, 0
0, 0
0, 0
0, 0
0, 0
0, 0
0, 0
0, 0
0, 0
0, 0
0, 0
0, 0
0, 0
0, 0
0, 0
0, 0
0, 0
0, 0
0, 0
0, 0
0, 0
0, 1
0, 0
0, 0
0, 0
0, 0
0, 0
0, 0
0, 0
0, 0
0, 0
0, 0
0, 0
0, 0
0, 0
1, 0
0, 0
0, 0
0, 0
0, 0
0, 0
0, 0
0, 0
0, 0
0, 0
0, 0
0, 0
0, 0
0, 0
0, 0
0, 0
0, 0
0, 0
0, 0
0, 0
0, 0
0, 0
0, 0
0, 0
0, 0
0, 0
0, 0
0, 0
0, 0
0, 0
0, 0
0, 0
0, 0
0, 0
0, 0
0, 0
0, 0
0, 0
0, 0
0, 0
0, 0
0, 0
0, 0
0, 0
0, 0
0, 0
0, 0
0, 0
0, 0
0, 0
0, 0
0, 0
0, 0
0, 0
0, 0
0, 0
0, 0
0, 0
0, 0
0, 0
0, 0
0, 0
0, 0
0, 0
0, 0
0, 0
0, 0
0, 0
0, 0
0, 0
0, 0
0, 0
0, 0
0, 0
0, 0
0, 0
0, 0
0, 0
0, 0
0, 0
0, 0
0, 0
0, 0
0, 0
0, 0
0, 0
0, 0
0, 0
0, 0
0, 0
0, 0
0, 0
0, 0
0, 0
0, 0
0, 0
0, 0
0, 0
0, 0
0, 0
0, 0
0, 0
0, 0
0, 0
0, 0
0, 0
0, 0
0, 0
0, 0
0, 0
0, 0
0, 0
0, 0
0, 0
0, 0
0, 0
0, 0
0, 0
0, 0
0, 0
0, 0
0, 0
0, 0
0, 0
0, 0
0, 0
0, 0
0, 0
0, 0
0, 0
0, 0
0, 0
0, 0
0, 0
0, 0
0, 0
0, 0
0, 0
0, 0
0, 0
0, 0
0, 0
0, 0
0, 0
0, 0
0, 0
0, 0
0, 0
0, 0
0, 0
0, 0
0, 0
0, 0
0, 0
0, 0
0, 0
0, 0
0, 0
0, 0
0, 0
0, 0
0, 0
0, 0
0, 0
0, 0
0, 0
0, 0
0, 0
0, 0
0, 0
0, 0
0, 0
0, 0
0, 0
0, 0
0, 0
0, 0
0, 0
0, 0
0, 0
0, 0
0, 0
0, 0
0, 0
0, 0
0, 0
0, 0
0, 0
0, 0
0, 0
0, 0
0, 0
0, 0
0, 0
0, 0
0, 0
0, 0
0, 0
0, 0
0, 0
0, 0
0, 0
0, 0
0, 0
0, 0
0, 0
0, 0
0, 0
0, 0
0, 0
0, 0
0, 0
0, 0
0, 0
0, 0
0, 0
0, 0
0, 0
0, 0
0, 0
0, 0
0, 0
0, 0
0, 0
0, 0
0, 0
0, 0
0, 0
0, 0
0, 0
0, 0
0, 0
0, 0
0, 0
0, 0
0, 0
0, 0
0, 0
0, 0
0, 0
0, 0
0, 0
0, 0
0, 0
0, 0
0, 0
0, 0
0, 0
0, 0
0, 0
0, 0
0, 0
0, 0
0, 0
0, 0
0, 0
0, 0
0, 0
0, 0
0, 0
0, 0
0, 0
0, 0
0, 0
0, 0
0, 0
0, 0
0, 0
0, 0
0, 0
0, 0
0, 0
0, 0
0, 0
0, 0
0, 0
0, 0
0, 0
0, 0
0, 0
0, 0
0, 0
0, 0
0, 0
0, 0
0, 0
0, 0
0, 0
0, 0
0, 0
0, 0
0, 0
0, 0
0, 0
0, 0
0, 0
0, 0
0, 0
0, 0
0, 0
0, 0
0, 0
0, 0
0, 0
0, 0
0, 0
0, 0
0, 0
0, 0
0, 0
0, 0
0, 0
0, 0
0, 0
0, 0
0, 0
0, 0
0, 0
0, 0
0, 0
0, 0
0, 0
0, 0
0, 0
0, 0
0, 0
0, 0
0, 0
0, 0
0, 0
0, 0
0, 0
0, 0
0, 0
0, 0
0, 0
0, 0
0, 0
0, 0
0, 0
0, 0
0, 0
0, 0
0, 0
0, 0
0, 0
0, 0
0, 0
0, 0
0, 0
0, 0
0, 0
0, 0
0, 0
0, 0
0, 0
#ENDOFDATA     end of spectrum data