File: host_upload/02-11-2024/rqc/uplink1/ps__0567_0717304816_000rfs_shot_104.msa
#FORMAT      : EMSA/MAS spectral data file
#VERSION     : TC202v2.0 PIXL
#TITLE       : Novarupta (sol567) subset1
#DATE        : 02-11-2024      Date in the format DD-MMM-YYYY, for example 07-JUL-2010
#TIME        :             The time of day at which the spectrum was recorded, in 24-hour format
#OWNER       : PIXL Flight Model       (PIXL will use this to indicate which instrument took the data.)
#NPOINTS     : 4096     Number of data points in the spectrum (This can be zero for configuration only files)
#NCOLUMNS    : 2     Number of data columns in the spectrum (This can be zero for configuration only files)
#XUNITS      : eV
#YUNITS      : COUNTS
#DATATYPE    : YY
#XPERCHAN    : 7.862, 7.881   eV per channel (separate by commas if more than one detector)
#OFFSET      : 18.5, -22.4         eV of first channel  (separate by commas if more than one detector
#SIGNALTYPE  : XRF
#YP_TEMP     : -0.94
#LIVETIME    : 8.84433, 8.82757   seconds (separate by commas if more than one detector)
#REALTIME    : 10, 10.0   seconds (separate by commas if more than one detector)
#SPECTRUM    : start of spectrum data
0, 0
0, 0
0, 0
0, 0
0, 0
0, 0
0, 0
0, 0
0, 0
0, 0
0, 0
0, 0
0, 0
0, 0
0, 0
0, 0
0, 0
0, 0
0, 0
0, 0
0, 0
0, 0
0, 0
0, 0
0, 0
0, 0
0, 0
0, 0
0, 0
0, 0
0, 0
1, 0
0, 1
1, 1
0, 4
2, 2
4, 4
1, 4
3, 5
3, 2
4, 3
0, 2
1, 5
4, 2
2, 3
8, 6
3, 4
3, 2
4, 3
5, 3
3, 5
4, 8
17, 14
19, 12
17, 10
7, 21
15, 13
7, 11
11, 12
12, 18
15, 18
27, 31
36, 67
56, 45
44, 52
41, 53
30, 49
36, 41
41, 40
62, 71
96, 122
177, 233
309, 313
382, 468
468, 504
463, 508
401, 488
337, 316
223, 235
143, 148
73, 68
61, 40
30, 37
34, 35
22, 21
21, 40
32, 33
33, 33
20, 20
18, 17
24, 16
21, 19
25, 26
44, 45
71, 87
132, 141
185, 221
262, 263
243, 304
286, 328
225, 262
196, 202
117, 133
88, 96
54, 61
42, 59
51, 60
80, 73
90, 110
114, 150
139, 172
163, 213
211, 244
201, 207
186, 201
171, 152
128, 134
103, 104
91, 96
67, 76
37, 80
56, 83
63, 70
44, 57
46, 39
28, 22
24, 33
20, 30
19, 19
11, 16
10, 7
6, 7
7, 9
3, 3
5, 8
6, 8
11, 10
14, 12
18, 15
26, 23
21, 28
21, 29
30, 39
19, 25
17, 14
15, 12
13, 10
7, 11
8, 13
17, 22
18, 30
48, 58
80, 118
161, 178
191, 211
275, 316
316, 372
334, 370
318, 355
293, 269
218, 212
167, 146
99, 98
60, 49
42, 26
25, 18
39, 27
30, 31
52, 56
40, 59
58, 45
44, 49
48, 60
41, 50
36, 31
18, 25
17, 18
13, 21
6, 12
8, 6
12, 8
4, 9
8, 11
6, 16
17, 10
22, 19
24, 15
26, 15
33, 38
43, 37
65, 63
56, 65
68, 58
66, 65
59, 49
42, 51
30, 33
30, 18
24, 25
17, 18
22, 17
15, 16
11, 17
19, 9
10, 8
10, 16
8, 20
15, 18
16, 16
21, 17
16, 26
17, 26
13, 12
15, 16
10, 11
18, 16
6, 19
12, 3
6, 10
11, 12
12, 15
15, 15
10, 9
14, 18
16, 21
25, 11
21, 25
20, 23
19, 27
28, 28
35, 39
30, 29
29, 29
19, 22
22, 19
12, 12
16, 13
11, 13
10, 19
10, 13
13, 14
12, 13
15, 17
11, 16
14, 19
14, 18
19, 27
36, 36
36, 43
38, 56
60, 60
51, 43
35, 50
26, 47
40, 33
32, 34
17, 26
17, 25
19, 15
22, 20
21, 20
27, 54
38, 69
73, 127
144, 174
254, 354
408, 535
664, 783
930, 1139
1169, 1440
1422, 1727
1616, 1817
1715, 1765
1545, 1699
1344, 1372
1024, 935
780, 719
526, 450
307, 287
193, 184
104, 81
57, 48
36, 28
23, 17
19, 15
13, 22
13, 15
11, 24
15, 17
25, 17
30, 27
26, 29
38, 49
56, 73
97, 108
104, 152
160, 194
196, 228
260, 257
247, 243
258, 261
203, 274
189, 169
154, 128
129, 108
83, 70
47, 32
26, 31
16, 15
18, 10
6, 8
7, 8
22, 8
9, 12
8, 5
10, 9
11, 15
10, 16
13, 13
7, 13
9, 9
12, 11
8, 8
7, 8
2, 11
5, 5
7, 11
4, 5
10, 3
6, 3
7, 4
9, 7
3, 5
7, 6
6, 5
7, 4
7, 7
5, 5
8, 8
6, 6
6, 7
2, 7
4, 10
7, 3
4, 5
3, 7
8, 4
5, 8
9, 8
3, 10
9, 6
10, 7
8, 5
7, 9
4, 7
6, 6
5, 5
11, 7
2, 10
5, 6
8, 7
7, 6
7, 8
9, 7
14, 10
10, 10
6, 12
7, 11
10, 9
13, 7
10, 8
9, 6
8, 9
9, 5
12, 6
4, 3
7, 11
3, 9
4, 9
6, 9
7, 11
7, 4
5, 9
7, 4
7, 7
4, 4
5, 6
5, 8
5, 6
5, 6
5, 6
7, 6
4, 5
4, 4
1, 0
5, 10
4, 8
5, 7
4, 1
9, 7
6, 5
2, 6
8, 7
3, 8
9, 6
8, 7
4, 4
4, 10
5, 6
3, 10
1, 3
4, 2
6, 8
8, 2
5, 0
0, 4
3, 4
2, 8
4, 3
3, 6
4, 4
4, 3
3, 6
1, 4
5, 4
6, 4
2, 4
7, 2
3, 6
6, 6
6, 2
5, 1
5, 5
3, 5
2, 3
2, 3
3, 5
7, 1
3, 1
1, 2
2, 2
5, 6
4, 1
2, 8
2, 0
3, 1
2, 5
6, 0
5, 4
4, 2
0, 4
3, 3
4, 3
4, 2
3, 5
3, 2
0, 2
2, 3
2, 1
1, 4
2, 3
2, 3
1, 3
3, 0
4, 7
1, 4
3, 2
2, 4
3, 4
3, 2
0, 3
2, 5
2, 3
2, 2
4, 2
6, 5
1, 2
2, 2
4, 3
3, 3
4, 4
2, 1
1, 5
3, 3
2, 3
6, 4
2, 3
1, 2
0, 2
3, 2
4, 2
1, 3
3, 2
3, 5
1, 3
1, 5
3, 0
0, 4
4, 1
3, 1
2, 4
2, 2
1, 4
2, 2
6, 2
5, 4
4, 3
2, 2
1, 2
2, 3
3, 6
0, 0
1, 2
1, 6
3, 1
2, 3
3, 2
2, 4
0, 4
6, 5
2, 0
2, 2
0, 2
2, 1
2, 1
1, 4
5, 2
1, 3
1, 1
1, 2
2, 4
1, 1
2, 0
3, 2
1, 3
8, 1
2, 0
3, 2
2, 1
5, 5
1, 5
3, 4
1, 4
2, 1
3, 2
2, 3
3, 4
3, 2
3, 5
4, 0
2, 2
0, 1
0, 1
1, 2
0, 2
1, 1
2, 0
0, 2
2, 4
2, 0
0, 0
1, 0
1, 3
1, 3
0, 1
2, 1
1, 3
1, 2
1, 1
2, 2
2, 2
1, 1
1, 1
0, 0
1, 1
4, 0
1, 0
3, 1
1, 0
2, 1
0, 2
1, 1
2, 2
0, 1
1, 0
1, 2
0, 1
0, 1
2, 1
1, 1
0, 2
0, 0
3, 2
1, 0
2, 0
0, 3
0, 2
2, 1
1, 0
1, 1
1, 0
2, 2
1, 1
0, 1
2, 0
1, 2
0, 1
2, 0
0, 0
0, 0
3, 0
0, 0
1, 1
0, 1
1, 0
1, 1
0, 0
1, 0
1, 0
0, 3
2, 0
1, 1
0, 0
2, 0
1, 2
1, 0
0, 2
2, 0
0, 0
1, 2
0, 2
0, 1
1, 1
3, 1
1, 0
0, 1
0, 0
1, 0
0, 0
1, 2
0, 0
3, 2
0, 2
2, 1
0, 1
1, 1
0, 0
0, 1
0, 1
0, 3
0, 0
1, 1
0, 0
0, 1
0, 2
0, 1
0, 0
1, 1
0, 1
2, 1
1, 0
1, 1
0, 2
1, 0
1, 0
0, 1
0, 0
1, 1
0, 2
0, 0
2, 2
0, 1
1, 0
0, 1
2, 1
1, 1
1, 1
1, 0
0, 1
0, 0
0, 0
0, 1
1, 1
0, 1
0, 2
2, 0
0, 0
2, 0
0, 0
0, 3
1, 0
0, 0
0, 0
0, 0
1, 1
0, 0
2, 0
0, 2
0, 0
0, 0
0, 1
1, 0
1, 0
0, 1
1, 0
0, 1
0, 0
0, 1
0, 2
0, 0
0, 1
0, 0
0, 0
1, 1
1, 1
1, 0
1, 1
0, 0
0, 0
0, 1
0, 0
2, 0
1, 0
0, 0
2, 0
0, 1
0, 0
0, 0
2, 1
0, 0
0, 0
0, 0
2, 0
1, 1
0, 0
0, 0
0, 0
0, 0
0, 0
0, 0
0, 0
0, 0
0, 0
0, 0
0, 0
0, 0
0, 0
0, 0
0, 0
0, 0
0, 1
0, 0
0, 0
0, 1
0, 1
0, 0
0, 0
0, 0
0, 0
0, 1
0, 0
0, 0
0, 0
0, 0
0, 0
0, 1
2, 2
0, 0
0, 1
0, 0
0, 2
1, 0
0, 1
0, 0
0, 0
0, 1
0, 2
0, 0
0, 0
0, 1
1, 0
1, 1
0, 0
0, 1
0, 0
0, 0
1, 0
0, 1
0, 0
0, 0
0, 1
0, 1
1, 1
0, 0
1, 0
1, 0
1, 0
0, 0
0, 0
0, 0
0, 1
0, 1
3, 0
1, 1
0, 0
0, 1
0, 0
0, 0
0, 0
0, 0
0, 0
1, 0
0, 0
0, 0
0, 0
0, 0
0, 0
0, 0
0, 0
0, 0
0, 0
0, 0
0, 1
0, 0
1, 0
0, 0
0, 0
0, 0
0, 0
0, 1
0, 0
0, 0
0, 0
0, 0
0, 0
0, 0
0, 0
0, 0
0, 0
0, 0
0, 1
1, 2
0, 0
0, 0
0, 1
0, 0
0, 1
0, 0
0, 1
0, 0
0, 1
0, 0
0, 0
1, 0
0, 0
0, 0
1, 0
0, 0
0, 0
0, 1
0, 0
0, 0
1, 0
0, 0
0, 0
0, 0
0, 0
0, 0
0, 0
0, 0
0, 0
0, 0
0, 0
0, 0
0, 0
0, 0
0, 0
0, 0
0, 0
0, 1
0, 0
0, 0
0, 0
0, 0
0, 0
0, 0
0, 0
0, 0
0, 0
0, 0
0, 0
0, 0
0, 1
0, 0
0, 0
0, 0
0, 1
0, 0
0, 0
0, 0
0, 0
0, 0
0, 0
0, 0
0, 0
0, 0
0, 0
0, 0
0, 0
0, 0
0, 0
0, 0
0, 0
0, 0
0, 0
0, 0
0, 0
0, 0
0, 0
0, 0
0, 0
0, 0
0, 0
0, 0
0, 1
0, 0
0, 0
0, 0
0, 0
0, 0
0, 0
0, 0
0, 0
0, 0
0, 0
0, 0
0, 0
0, 0
0, 0
0, 0
0, 0
0, 0
0, 0
0, 0
0, 0
0, 0
0, 0
0, 0
0, 0
0, 0
0, 0
0, 0
0, 0
0, 0
0, 0
0, 0
0, 0
0, 0
0, 0
0, 0
0, 0
0, 0
0, 0
0, 0
0, 0
0, 0
0, 0
0, 0
0, 0
0, 0
0, 0
0, 0
0, 0
0, 0
0, 0
0, 0
0, 0
0, 0
0, 0
0, 0
0, 0
0, 0
0, 0
0, 0
0, 0
0, 0
0, 0
0, 0
0, 0
0, 0
0, 0
0, 0
0, 0
0, 0
0, 0
1, 0
0, 0
0, 0
0, 0
0, 0
0, 0
0, 0
0, 0
0, 0
0, 0
0, 0
0, 0
0, 0
0, 0
0, 0
0, 0
0, 0
0, 0
0, 0
0, 0
0, 0
0, 0
0, 0
0, 0
0, 0
0, 0
0, 0
0, 0
0, 0
0, 0
0, 0
0, 0
0, 0
0, 0
0, 0
0, 0
0, 0
0, 0
0, 0
0, 0
0, 0
0, 0
0, 0
0, 0
0, 0
0, 0
0, 0
0, 0
0, 0
0, 0
0, 0
0, 0
0, 0
0, 0
0, 0
0, 0
0, 0
0, 0
0, 0
0, 0
0, 0
0, 0
0, 0
0, 0
0, 0
0, 0
0, 0
0, 0
0, 0
0, 0
0, 0
0, 0
0, 0
0, 0
0, 0
0, 0
0, 0
0, 0
0, 0
0, 0
0, 0
0, 0
0, 0
0, 0
0, 0
0, 0
0, 0
0, 0
0, 0
0, 0
0, 0
0, 0
0, 0
0, 0
0, 0
0, 0
0, 0
0, 0
0, 0
0, 0
0, 0
0, 0
0, 0
0, 0
0, 0
0, 1
0, 0
0, 0
0, 0
0, 0
0, 0
0, 0
0, 0
0, 0
0, 0
0, 0
0, 0
0, 0
0, 0
0, 0
0, 0
0, 0
0, 0
0, 0
0, 0
0, 0
0, 0
0, 0
0, 0
0, 0
0, 0
0, 1
0, 0
0, 0
0, 0
0, 0
0, 0
0, 0
0, 0
0, 0
0, 0
0, 0
0, 0
0, 0
0, 0
0, 0
0, 0
0, 0
0, 0
0, 0
0, 0
0, 0
0, 0
0, 0
0, 0
0, 0
0, 0
0, 0
0, 0
0, 0
0, 0
0, 0
0, 0
0, 0
0, 0
0, 0
0, 0
0, 0
0, 0
0, 0
0, 0
0, 0
0, 0
0, 0
0, 0
0, 0
0, 0
0, 0
0, 0
0, 0
0, 0
0, 0
0, 0
0, 0
0, 0
0, 0
0, 0
0, 0
0, 0
0, 0
0, 0
0, 0
0, 0
0, 0
0, 0
0, 0
0, 0
0, 0
0, 0
0, 0
0, 0
0, 0
0, 0
0, 0
0, 0
0, 0
0, 0
0, 0
0, 0
0, 0
0, 0
0, 0
0, 0
0, 0
0, 0
0, 0
0, 0
0, 0
0, 0
0, 0
0, 0
0, 0
0, 0
0, 0
0, 0
0, 0
0, 0
0, 0
0, 0
0, 0
0, 0
0, 0
0, 0
0, 0
0, 0
0, 0
0, 0
0, 0
0, 0
0, 0
0, 0
0, 0
0, 0
0, 0
0, 0
0, 0
0, 0
0, 0
0, 0
0, 0
0, 0
0, 0
0, 0
0, 0
0, 0
0, 0
0, 0
0, 0
0, 0
0, 0
0, 0
0, 0
0, 0
0, 0
0, 0
0, 0
0, 0
0, 0
0, 0
0, 0
0, 0
0, 0
0, 0
0, 0
0, 0
0, 0
0, 0
0, 0
0, 0
0, 0
0, 0
0, 0
0, 0
0, 0
0, 0
0, 0
0, 0
0, 0
0, 0
0, 0
0, 0
0, 0
0, 0
0, 0
0, 0
0, 0
0, 0
0, 0
0, 0
0, 0
0, 0
0, 0
0, 0
0, 0
0, 0
0, 0
0, 0
0, 0
0, 0
0, 0
0, 0
0, 0
0, 0
0, 0
0, 0
0, 0
0, 0
0, 0
0, 0
0, 0
0, 0
0, 0
0, 0
0, 0
0, 0
0, 0
0, 0
0, 0
0, 0
0, 0
0, 0
0, 0
0, 0
0, 0
0, 0
0, 0
0, 0
0, 0
0, 0
0, 0
0, 0
0, 0
0, 0
0, 0
0, 0
0, 0
0, 0
0, 0
0, 0
0, 0
0, 0
0, 0
0, 0
0, 0
0, 0
0, 0
0, 0
0, 0
0, 0
0, 0
0, 0
0, 0
0, 0
0, 0
0, 0
0, 0
0, 0
0, 0
0, 0
0, 0
0, 0
#ENDOFDATA     end of spectrum data