File: host_upload/02-11-2024/rqc/uplink1/ps__0567_0717304816_000rfs_shot_170.msa
#FORMAT      : EMSA/MAS spectral data file
#VERSION     : TC202v2.0 PIXL
#TITLE       : Novarupta (sol567) subset1
#DATE        : 02-11-2024      Date in the format DD-MMM-YYYY, for example 07-JUL-2010
#TIME        :             The time of day at which the spectrum was recorded, in 24-hour format
#OWNER       : PIXL Flight Model       (PIXL will use this to indicate which instrument took the data.)
#NPOINTS     : 4096     Number of data points in the spectrum (This can be zero for configuration only files)
#NCOLUMNS    : 2     Number of data columns in the spectrum (This can be zero for configuration only files)
#XUNITS      : eV
#YUNITS      : COUNTS
#DATATYPE    : YY
#XPERCHAN    : 7.862, 7.881   eV per channel (separate by commas if more than one detector)
#OFFSET      : 18.5, -22.4         eV of first channel  (separate by commas if more than one detector
#SIGNALTYPE  : XRF
#YP_TEMP     : 0.279
#LIVETIME    : 8.83096, 8.81141   seconds (separate by commas if more than one detector)
#REALTIME    : 10, 10.0   seconds (separate by commas if more than one detector)
#SPECTRUM    : start of spectrum data
0, 0
0, 0
0, 0
0, 0
0, 0
0, 0
0, 0
0, 0
0, 0
0, 0
0, 0
0, 0
0, 0
0, 0
0, 0
0, 0
0, 0
0, 0
0, 0
0, 0
0, 0
0, 0
0, 0
0, 0
0, 0
0, 0
0, 0
0, 0
0, 0
0, 0
0, 0
0, 0
1, 1
0, 0
2, 2
2, 2
1, 2
4, 7
6, 1
5, 3
2, 7
2, 3
5, 3
5, 2
4, 5
5, 6
3, 3
1, 5
3, 4
1, 5
12, 13
8, 12
13, 9
16, 6
10, 17
17, 14
18, 11
12, 16
6, 10
10, 10
11, 15
28, 29
42, 52
48, 56
44, 66
47, 56
37, 46
41, 35
25, 55
64, 73
95, 122
204, 218
304, 323
420, 442
438, 526
495, 544
421, 440
325, 340
226, 238
158, 129
100, 87
60, 60
35, 37
26, 35
22, 29
23, 38
36, 38
26, 32
28, 35
21, 26
16, 17
20, 22
24, 25
44, 39
88, 114
144, 151
222, 221
273, 328
310, 342
310, 344
308, 278
230, 237
149, 161
105, 115
77, 71
60, 64
49, 52
72, 68
95, 118
122, 168
181, 199
184, 205
240, 275
254, 225
197, 201
170, 150
128, 143
126, 103
87, 84
96, 69
61, 93
68, 91
58, 71
58, 53
43, 45
40, 50
32, 14
29, 26
21, 20
10, 19
13, 6
1, 7
4, 8
8, 5
8, 6
11, 12
12, 12
10, 13
21, 16
22, 29
25, 32
22, 44
29, 25
27, 28
16, 17
12, 16
12, 11
10, 10
6, 12
17, 15
32, 21
52, 76
80, 107
157, 180
222, 245
284, 355
354, 380
377, 406
346, 419
289, 336
251, 218
176, 175
86, 98
77, 57
33, 33
34, 35
35, 27
30, 44
43, 47
44, 67
63, 66
61, 59
49, 62
56, 66
17, 45
34, 19
21, 21
8, 10
15, 10
9, 10
6, 12
14, 8
8, 12
11, 12
8, 5
10, 19
23, 24
23, 30
39, 45
38, 51
47, 54
58, 66
67, 84
69, 62
52, 64
48, 43
27, 39
36, 22
18, 26
18, 13
16, 12
13, 22
12, 15
10, 15
13, 15
13, 18
12, 20
16, 13
20, 18
15, 20
19, 24
19, 12
14, 16
15, 18
13, 26
16, 10
13, 4
18, 11
19, 13
11, 18
4, 14
14, 11
14, 13
12, 13
10, 21
20, 22
20, 27
26, 33
18, 33
20, 45
39, 35
26, 33
30, 31
22, 25
21, 20
26, 20
12, 14
10, 9
17, 20
20, 10
11, 11
17, 9
14, 17
12, 18
14, 22
24, 22
28, 33
36, 28
28, 46
51, 46
45, 47
51, 47
53, 45
44, 46
28, 28
32, 39
26, 20
19, 26
20, 25
20, 21
27, 21
24, 37
50, 50
68, 104
128, 171
253, 324
376, 516
657, 794
937, 1139
1237, 1481
1478, 1703
1628, 1934
1719, 1848
1667, 1705
1404, 1442
1152, 1108
833, 753
550, 504
339, 314
195, 174
110, 105
72, 54
26, 24
34, 20
17, 14
11, 19
12, 20
20, 27
17, 16
23, 28
14, 33
31, 27
45, 48
62, 86
108, 104
131, 138
170, 185
205, 249
242, 297
242, 284
244, 263
245, 247
208, 231
169, 149
121, 142
102, 66
54, 52
33, 36
22, 17
7, 11
12, 10
6, 9
5, 15
6, 17
16, 8
10, 13
8, 16
7, 14
12, 11
15, 16
9, 4
10, 6
9, 14
6, 13
6, 3
5, 5
5, 6
6, 9
6, 4
5, 5
7, 6
2, 10
9, 5
6, 7
2, 7
5, 3
4, 4
7, 7
7, 6
6, 10
7, 9
7, 5
6, 4
10, 6
6, 6
6, 9
11, 8
7, 7
5, 5
9, 8
6, 7
8, 12
12, 8
5, 8
7, 2
4, 10
6, 10
4, 10
11, 6
6, 7
8, 9
3, 6
13, 11
13, 14
9, 11
7, 20
13, 7
12, 6
10, 14
14, 12
13, 9
10, 5
8, 7
8, 3
8, 3
7, 4
4, 5
8, 7
5, 10
6, 7
3, 3
2, 3
7, 8
3, 10
6, 5
7, 8
3, 6
10, 7
8, 8
7, 7
3, 8
6, 3
8, 7
3, 1
5, 5
3, 6
6, 5
6, 4
0, 2
5, 6
6, 1
4, 3
6, 7
3, 3
4, 4
4, 8
8, 5
2, 15
9, 7
3, 8
5, 9
1, 7
2, 6
4, 7
2, 6
5, 6
4, 3
2, 1
2, 6
5, 4
3, 8
6, 5
7, 5
3, 3
7, 2
1, 4
4, 10
6, 7
4, 5
4, 4
4, 4
1, 5
2, 5
2, 4
4, 4
4, 7
5, 5
5, 6
5, 5
7, 4
3, 6
2, 5
3, 3
1, 3
2, 5
3, 5
3, 3
1, 5
2, 1
2, 3
2, 4
3, 2
2, 3
1, 4
3, 2
3, 2
6, 5
3, 1
1, 4
3, 3
3, 3
4, 2
3, 1
1, 1
4, 3
1, 1
5, 1
8, 3
1, 3
4, 3
1, 6
5, 3
4, 4
5, 5
3, 3
6, 2
2, 1
4, 1
3, 1
3, 3
4, 3
1, 5
3, 4
2, 2
1, 4
2, 7
3, 3
4, 3
4, 3
2, 4
1, 2
2, 3
3, 3
1, 3
2, 2
6, 0
0, 3
5, 5
2, 5
1, 1
1, 3
2, 3
3, 0
0, 1
5, 1
1, 1
2, 1
3, 2
6, 4
3, 2
2, 1
2, 1
2, 5
1, 4
1, 2
4, 2
2, 1
2, 3
3, 4
1, 1
3, 1
1, 5
2, 2
0, 5
1, 5
0, 0
2, 0
2, 1
2, 0
0, 3
3, 1
3, 3
1, 3
4, 4
2, 2
0, 1
1, 2
1, 6
0, 1
2, 3
3, 1
2, 2
4, 2
2, 3
2, 2
3, 2
3, 2
2, 2
5, 1
0, 3
3, 1
1, 4
0, 2
1, 1
2, 0
3, 3
0, 2
2, 2
4, 1
1, 1
3, 0
2, 4
2, 1
3, 3
0, 0
3, 2
2, 1
1, 1
2, 3
1, 0
2, 2
3, 1
1, 3
1, 3
1, 1
2, 0
1, 0
2, 1
0, 1
1, 3
3, 1
2, 1
1, 1
2, 0
2, 1
2, 1
0, 1
4, 1
0, 0
1, 1
0, 1
0, 1
3, 1
2, 1
0, 2
1, 1
0, 3
2, 5
1, 3
2, 0
1, 1
1, 2
3, 1
1, 1
1, 1
0, 1
3, 1
0, 0
1, 1
0, 1
1, 3
1, 3
1, 3
0, 0
0, 1
0, 1
1, 1
0, 1
1, 1
1, 3
1, 1
1, 1
2, 1
2, 1
0, 0
0, 0
0, 1
0, 2
1, 0
2, 0
2, 0
1, 1
1, 1
0, 0
2, 0
1, 0
1, 1
1, 0
1, 0
1, 1
1, 0
0, 0
2, 1
1, 0
1, 0
2, 2
2, 0
0, 0
1, 1
1, 2
2, 1
0, 0
5, 0
1, 2
2, 2
2, 0
0, 0
0, 2
1, 0
0, 0
2, 1
0, 1
0, 0
1, 0
0, 2
0, 2
0, 0
0, 2
1, 0
1, 0
0, 1
0, 0
0, 0
0, 2
0, 1
0, 0
2, 0
0, 0
0, 0
1, 0
0, 0
0, 2
0, 0
0, 0
1, 1
0, 1
1, 0
1, 0
0, 1
0, 1
0, 1
0, 2
0, 0
0, 0
1, 0
0, 0
1, 0
0, 0
0, 0
0, 1
0, 0
2, 1
1, 0
1, 0
0, 0
0, 1
1, 0
1, 0
1, 0
0, 1
0, 1
0, 0
0, 2
0, 0
0, 0
0, 2
1, 0
0, 1
0, 0
1, 0
0, 0
0, 2
0, 0
0, 0
1, 0
0, 0
1, 0
1, 0
1, 0
0, 1
0, 0
0, 0
0, 0
0, 0
0, 0
0, 0
0, 0
0, 0
2, 0
0, 0
0, 0
0, 0
1, 0
0, 0
0, 0
0, 1
1, 0
0, 0
0, 1
0, 0
0, 0
1, 0
0, 0
0, 0
0, 0
0, 0
0, 0
0, 0
0, 0
0, 0
0, 0
0, 1
0, 0
0, 0
1, 0
1, 0
0, 0
0, 1
0, 0
0, 0
1, 0
0, 0
0, 1
2, 1
0, 0
1, 0
0, 0
1, 0
0, 0
0, 0
0, 1
0, 0
0, 0
0, 0
1, 0
1, 0
0, 1
0, 0
0, 0
0, 1
0, 0
1, 2
0, 0
0, 0
0, 0
0, 1
0, 0
0, 0
0, 0
0, 0
0, 0
1, 1
0, 0
0, 0
0, 0
0, 0
1, 0
1, 0
0, 0
1, 0
0, 1
0, 0
0, 1
0, 0
0, 0
0, 0
0, 0
0, 1
0, 1
1, 1
0, 0
0, 0
0, 0
0, 0
0, 0
0, 0
0, 0
0, 0
0, 1
0, 0
0, 0
0, 0
0, 0
0, 0
0, 0
0, 0
0, 0
0, 0
0, 0
0, 0
0, 1
0, 0
0, 0
0, 0
0, 1
0, 0
0, 0
0, 0
0, 0
0, 0
0, 0
0, 0
0, 1
0, 0
2, 0
0, 0
0, 0
0, 0
0, 0
0, 0
0, 0
0, 0
0, 0
0, 0
0, 0
0, 0
0, 0
0, 0
1, 0
0, 0
0, 0
1, 0
0, 0
0, 0
0, 1
0, 0
0, 0
0, 0
0, 0
1, 0
0, 0
0, 0
0, 0
0, 0
0, 0
0, 0
0, 1
0, 0
0, 0
0, 0
0, 0
0, 0
1, 0
0, 0
0, 0
0, 0
0, 0
0, 0
0, 0
0, 0
0, 0
0, 0
0, 0
0, 0
0, 0
0, 0
0, 0
0, 0
0, 0
0, 0
0, 0
0, 0
0, 0
0, 0
0, 0
0, 0
0, 0
0, 0
0, 0
0, 0
0, 0
0, 0
0, 0
0, 0
0, 0
0, 0
0, 0
0, 0
0, 0
0, 0
0, 0
0, 0
0, 0
1, 0
0, 0
0, 0
0, 0
0, 0
0, 0
0, 0
0, 0
0, 0
0, 0
0, 0
0, 0
0, 1
0, 0
0, 0
0, 0
0, 0
0, 0
0, 0
0, 0
0, 0
0, 0
0, 0
0, 0
0, 0
0, 0
0, 0
0, 0
0, 0
0, 0
0, 0
0, 0
0, 0
0, 0
0, 0
0, 0
0, 0
0, 0
0, 0
0, 0
0, 0
0, 0
0, 0
0, 0
0, 0
0, 0
0, 0
1, 0
0, 0
0, 0
0, 1
0, 0
0, 0
0, 0
0, 0
0, 0
0, 0
0, 0
0, 0
0, 0
0, 0
0, 0
0, 0
0, 0
0, 0
0, 0
0, 0
0, 0
0, 0
0, 0
0, 0
0, 0
0, 0
0, 1
0, 0
0, 0
0, 0
0, 0
0, 0
0, 0
0, 0
0, 0
0, 0
0, 0
0, 0
0, 0
0, 0
0, 0
0, 0
0, 0
0, 0
0, 0
0, 0
0, 0
0, 0
0, 0
0, 0
1, 0
0, 0
0, 0
0, 0
0, 0
0, 0
0, 0
0, 0
0, 0
0, 0
0, 0
0, 0
0, 0
0, 0
0, 0
0, 0
0, 0
0, 0
0, 0
0, 0
0, 0
0, 0
0, 0
0, 0
0, 0
0, 0
0, 0
0, 0
0, 0
0, 0
0, 0
0, 0
0, 0
0, 0
0, 0
0, 0
0, 0
0, 0
0, 0
0, 0
0, 0
0, 0
0, 0
0, 0
0, 0
0, 0
0, 0
0, 0
0, 0
0, 0
0, 0
0, 0
0, 0
0, 0
0, 0
0, 0
0, 0
0, 0
0, 0
0, 0
0, 0
0, 0
0, 0
0, 0
0, 0
0, 0
0, 0
0, 0
0, 0
0, 0
0, 0
0, 0
0, 0
0, 0
0, 0
0, 0
0, 0
0, 0
0, 0
0, 0
0, 0
0, 0
0, 0
0, 0
0, 0
0, 0
0, 0
0, 0
0, 0
0, 0
0, 0
0, 0
0, 0
0, 0
0, 0
0, 0
0, 0
0, 0
0, 0
0, 0
0, 0
0, 0
0, 0
0, 0
0, 0
0, 0
0, 0
0, 0
0, 0
0, 0
0, 0
0, 0
0, 0
0, 0
0, 0
0, 0
0, 0
0, 0
0, 0
0, 0
0, 0
0, 0
0, 0
0, 0
0, 0
0, 0
0, 0
0, 0
0, 0
0, 0
0, 0
0, 0
0, 0
0, 0
0, 0
0, 0
0, 0
0, 0
0, 0
0, 0
0, 0
0, 0
0, 0
0, 0
0, 0
0, 0
0, 0
0, 0
0, 0
0, 0
0, 0
0, 0
0, 0
0, 0
0, 0
0, 0
0, 0
0, 0
0, 0
0, 0
0, 0
0, 0
0, 0
0, 0
0, 0
0, 0
0, 0
0, 0
0, 0
0, 0
0, 0
0, 0
0, 0
0, 0
0, 0
0, 0
0, 0
0, 0
0, 0
0, 0
0, 0
0, 0
0, 0
0, 0
0, 0
0, 0
0, 0
0, 0
0, 0
0, 0
0, 0
0, 0
0, 0
0, 0
0, 0
0, 0
0, 0
0, 0
0, 0
0, 0
0, 0
0, 0
0, 0
0, 0
0, 0
0, 0
0, 0
0, 0
0, 0
0, 0
0, 0
0, 0
0, 0
0, 0
0, 0
0, 0
0, 0
0, 0
0, 0
0, 0
0, 0
0, 0
0, 0
0, 0
0, 0
0, 0
0, 0
0, 0
0, 0
0, 0
0, 0
0, 0
0, 0
0, 0
0, 0
0, 0
0, 0
0, 0
0, 0
0, 0
0, 0
0, 0
0, 0
0, 0
0, 0
0, 0
0, 0
0, 0
0, 0
0, 0
0, 0
0, 0
0, 0
0, 0
0, 0
0, 0
0, 0
0, 0
0, 0
0, 0
0, 0
0, 0
0, 0
0, 0
0, 0
0, 0
0, 0
0, 0
0, 0
0, 0
0, 0
0, 0
0, 0
0, 0
0, 0
0, 0
0, 0
0, 0
0, 0
0, 0
0, 0
0, 0
0, 0
0, 0
0, 0
0, 0
0, 0
0, 0
0, 0
0, 0
0, 0
0, 0
0, 0
0, 0
0, 0
0, 0
0, 0
0, 0
0, 0
0, 0
0, 0
0, 0
0, 0
0, 0
0, 0
0, 0
0, 0
0, 0
0, 0
0, 0
0, 0
0, 0
0, 0
0, 0
0, 0
0, 0
0, 0
0, 0
0, 0
0, 0
0, 0
0, 0
0, 0
0, 0
0, 0
0, 0
0, 0
0, 0
0, 0
0, 0
0, 0
0, 0
0, 0
0, 0
0, 0
0, 0
#ENDOFDATA     end of spectrum data