File: host_upload/02-11-2024/rqc/uplink1/ps__0567_0717304816_000rfs_shot_75.msa
#FORMAT      : EMSA/MAS spectral data file
#VERSION     : TC202v2.0 PIXL
#TITLE       : Novarupta (sol567) subset1
#DATE        : 02-11-2024      Date in the format DD-MMM-YYYY, for example 07-JUL-2010
#TIME        :             The time of day at which the spectrum was recorded, in 24-hour format
#OWNER       : PIXL Flight Model       (PIXL will use this to indicate which instrument took the data.)
#NPOINTS     : 4096     Number of data points in the spectrum (This can be zero for configuration only files)
#NCOLUMNS    : 2     Number of data columns in the spectrum (This can be zero for configuration only files)
#XUNITS      : eV
#YUNITS      : COUNTS
#DATATYPE    : YY
#XPERCHAN    : 7.862, 7.881   eV per channel (separate by commas if more than one detector)
#OFFSET      : 18.5, -22.4         eV of first channel  (separate by commas if more than one detector
#SIGNALTYPE  : XRF
#YP_TEMP     : -1.774
#LIVETIME    : 8.85271, 8.82183   seconds (separate by commas if more than one detector)
#REALTIME    : 10, 10.0   seconds (separate by commas if more than one detector)
#SPECTRUM    : start of spectrum data
0, 0
0, 0
0, 0
0, 0
0, 0
0, 0
0, 0
0, 0
0, 0
0, 0
0, 0
0, 0
0, 0
0, 0
0, 0
0, 0
0, 0
0, 0
0, 0
0, 0
0, 0
0, 0
0, 0
0, 0
0, 0
0, 0
0, 0
0, 1
0, 0
0, 0
0, 0
0, 0
0, 1
1, 1
2, 0
3, 2
0, 0
1, 4
4, 3
3, 2
3, 4
4, 5
1, 0
1, 4
2, 3
4, 2
1, 1
2, 3
4, 0
4, 4
3, 4
5, 3
7, 7
11, 11
13, 20
12, 15
12, 15
14, 19
9, 7
10, 11
24, 14
29, 38
28, 47
53, 44
36, 46
56, 32
39, 43
30, 37
38, 44
77, 82
98, 144
185, 266
300, 342
371, 447
457, 542
401, 518
371, 464
326, 316
199, 246
127, 123
71, 92
46, 62
31, 33
30, 34
29, 37
25, 38
20, 32
22, 27
27, 34
20, 24
15, 26
16, 28
20, 47
54, 62
113, 99
118, 166
203, 240
256, 315
250, 358
301, 344
261, 295
186, 215
126, 149
102, 111
86, 70
59, 58
51, 63
59, 83
98, 106
121, 142
166, 197
197, 218
202, 243
200, 237
191, 181
165, 162
113, 128
99, 109
89, 95
77, 85
75, 75
77, 78
76, 72
64, 66
51, 54
48, 41
39, 31
44, 22
30, 23
19, 17
18, 9
8, 7
13, 5
10, 4
8, 6
9, 11
4, 14
8, 20
19, 19
21, 34
25, 28
24, 38
27, 32
19, 28
27, 23
21, 17
15, 15
8, 14
16, 9
19, 28
38, 36
54, 76
88, 121
142, 200
222, 274
289, 349
317, 401
332, 454
337, 391
249, 340
207, 270
130, 154
93, 93
49, 47
31, 35
31, 23
32, 34
32, 32
43, 47
52, 57
47, 73
54, 68
45, 53
40, 47
22, 47
22, 33
18, 12
11, 18
9, 7
12, 6
8, 4
9, 9
10, 15
12, 13
19, 12
11, 15
25, 14
22, 35
26, 39
33, 59
55, 60
62, 65
57, 66
56, 51
48, 49
46, 53
27, 31
25, 22
20, 18
21, 18
14, 12
15, 14
10, 8
7, 11
7, 17
15, 20
8, 23
14, 14
16, 16
22, 21
15, 21
21, 18
12, 10
10, 18
10, 15
8, 9
7, 17
13, 14
12, 20
9, 9
6, 9
11, 13
9, 14
7, 9
10, 16
17, 30
24, 28
30, 26
27, 33
27, 31
16, 40
31, 26
22, 29
18, 23
13, 23
15, 13
12, 16
11, 12
9, 16
12, 12
9, 11
7, 18
12, 9
13, 19
12, 12
17, 18
25, 37
32, 38
30, 39
37, 63
37, 57
42, 54
57, 40
34, 32
32, 35
26, 27
28, 16
18, 14
16, 22
17, 25
24, 28
33, 37
43, 62
72, 110
143, 211
221, 370
446, 543
628, 855
911, 1196
1251, 1404
1376, 1704
1536, 1858
1570, 1772
1407, 1570
1152, 1321
920, 1022
701, 732
401, 479
306, 292
161, 173
103, 88
39, 44
28, 33
18, 24
14, 12
18, 14
14, 16
23, 16
18, 20
20, 21
29, 32
26, 42
47, 60
73, 78
94, 115
126, 147
166, 171
200, 252
211, 279
229, 301
225, 281
221, 247
174, 194
148, 153
108, 118
60, 76
38, 45
25, 22
16, 17
21, 12
11, 13
8, 5
10, 6
13, 11
6, 15
8, 11
9, 9
4, 14
10, 13
11, 10
4, 8
16, 11
11, 9
4, 10
6, 9
7, 5
4, 3
6, 6
4, 8
15, 7
6, 7
7, 6
2, 2
7, 8
5, 12
6, 7
7, 10
10, 3
9, 7
7, 11
6, 7
6, 8
7, 13
8, 11
3, 6
8, 5
6, 5
9, 7
11, 7
11, 4
6, 7
6, 10
6, 9
6, 8
5, 13
7, 8
10, 3
6, 3
3, 4
6, 10
10, 6
6, 12
8, 16
12, 12
16, 6
9, 7
9, 12
8, 16
9, 11
7, 15
8, 5
11, 3
10, 6
4, 9
9, 6
4, 6
5, 2
9, 7
5, 6
10, 8
3, 9
5, 8
5, 5
2, 3
6, 7
5, 4
7, 7
7, 4
10, 2
3, 3
5, 8
9, 12
2, 10
3, 5
1, 1
9, 3
2, 4
12, 6
3, 6
6, 5
6, 5
5, 4
9, 6
7, 6
3, 11
4, 5
3, 2
4, 3
5, 3
1, 3
3, 6
3, 7
2, 4
3, 8
4, 7
2, 3
7, 7
4, 6
5, 8
4, 5
5, 7
1, 7
6, 4
2, 8
0, 5
5, 6
5, 6
3, 7
2, 2
4, 8
4, 5
3, 3
2, 6
7, 3
2, 4
2, 2
6, 6
4, 2
4, 2
7, 3
2, 1
1, 5
1, 3
1, 6
4, 2
4, 2
4, 2
4, 3
2, 2
3, 2
2, 2
6, 4
2, 5
1, 3
3, 3
4, 6
5, 4
3, 5
1, 1
4, 4
1, 1
3, 5
5, 3
1, 5
3, 6
1, 2
3, 5
7, 1
7, 4
4, 4
3, 4
5, 2
4, 2
1, 4
5, 6
0, 1
1, 5
5, 5
4, 1
3, 4
2, 2
2, 2
1, 0
3, 4
2, 0
3, 2
6, 5
2, 1
1, 5
3, 2
0, 3
1, 3
1, 1
3, 3
1, 2
2, 2
2, 2
3, 4
4, 1
0, 2
4, 0
2, 2
4, 2
1, 7
2, 4
2, 0
3, 2
1, 2
4, 4
0, 3
1, 1
0, 2
3, 4
3, 1
3, 2
2, 4
0, 3
2, 2
3, 2
3, 4
0, 2
4, 2
0, 4
1, 0
1, 3
3, 1
1, 0
2, 4
1, 2
2, 2
2, 3
8, 2
0, 3
2, 2
0, 3
1, 2
3, 2
3, 3
3, 6
4, 1
2, 5
2, 1
2, 4
3, 4
3, 2
3, 1
2, 0
4, 2
1, 1
2, 1
1, 2
0, 0
2, 3
0, 1
0, 2
0, 2
2, 2
0, 3
0, 1
2, 0
0, 0
1, 2
2, 4
0, 1
1, 1
2, 1
2, 2
0, 1
1, 3
3, 3
1, 1
3, 4
0, 3
1, 1
2, 0
0, 1
5, 1
1, 2
0, 3
0, 2
1, 2
2, 0
1, 1
1, 0
0, 1
1, 2
0, 1
2, 0
5, 0
2, 2
1, 1
1, 0
2, 0
1, 1
0, 1
0, 0
3, 1
0, 0
1, 1
1, 5
6, 1
0, 2
1, 0
0, 0
2, 2
1, 1
1, 2
0, 2
1, 0
1, 2
2, 2
0, 0
1, 0
2, 0
1, 0
3, 0
2, 0
1, 0
0, 0
2, 0
1, 1
0, 0
1, 0
1, 1
0, 0
0, 0
0, 1
2, 1
2, 1
0, 0
2, 2
0, 0
1, 0
0, 3
2, 1
0, 0
1, 1
1, 0
0, 1
2, 1
2, 1
0, 0
0, 1
0, 1
0, 1
1, 1
1, 1
1, 2
0, 0
0, 0
1, 1
0, 1
0, 1
2, 0
1, 1
2, 0
0, 0
3, 0
0, 0
1, 1
1, 0
0, 1
1, 1
0, 0
0, 2
0, 0
0, 1
0, 0
0, 1
0, 2
0, 0
0, 0
0, 1
0, 2
0, 0
0, 1
0, 0
0, 0
0, 0
0, 1
1, 2
0, 0
1, 0
0, 0
0, 1
1, 0
0, 0
0, 0
0, 0
0, 0
0, 0
0, 0
1, 0
0, 1
1, 0
0, 0
1, 1
0, 0
0, 0
1, 1
0, 0
0, 0
0, 0
0, 0
0, 0
0, 0
1, 0
0, 0
1, 1
0, 1
1, 1
0, 0
0, 0
0, 0
0, 0
0, 3
0, 0
1, 0
1, 0
0, 0
1, 0
0, 0
0, 0
2, 1
0, 0
0, 2
1, 0
0, 0
0, 0
0, 1
0, 0
0, 0
0, 0
0, 1
0, 0
0, 2
0, 0
0, 1
0, 0
1, 1
1, 0
0, 0
0, 0
0, 0
0, 0
1, 0
0, 0
1, 2
0, 1
0, 0
0, 0
0, 0
0, 1
1, 1
0, 0
0, 2
0, 1
0, 1
1, 0
0, 1
0, 0
1, 0
0, 0
0, 0
0, 1
0, 0
0, 0
0, 1
0, 0
0, 0
0, 0
0, 0
0, 1
0, 1
0, 0
0, 0
0, 0
0, 0
0, 0
0, 0
0, 0
0, 0
0, 0
0, 0
0, 0
1, 1
2, 0
0, 0
0, 1
1, 0
0, 0
0, 1
0, 0
1, 1
0, 0
0, 0
0, 0
0, 0
0, 1
0, 0
0, 0
0, 0
0, 0
0, 0
0, 0
0, 0
0, 0
0, 1
0, 0
1, 0
0, 0
2, 0
0, 0
0, 1
0, 0
0, 0
0, 0
0, 0
0, 0
0, 0
0, 0
0, 0
0, 1
0, 0
0, 0
0, 0
0, 0
0, 0
0, 0
0, 0
0, 0
0, 0
0, 0
0, 0
0, 0
0, 0
0, 0
0, 0
0, 1
0, 1
0, 0
0, 0
0, 0
0, 0
0, 1
1, 0
0, 0
0, 0
0, 0
0, 1
0, 0
0, 0
0, 0
1, 0
0, 0
0, 0
0, 0
0, 0
2, 0
0, 0
0, 0
0, 0
0, 0
1, 0
0, 1
0, 0
0, 0
0, 0
0, 0
0, 0
0, 0
0, 0
0, 0
0, 0
0, 0
0, 0
0, 0
0, 0
0, 0
0, 0
0, 0
0, 1
0, 0
0, 0
0, 0
0, 0
0, 0
0, 0
0, 0
0, 0
0, 0
0, 0
0, 0
0, 0
0, 0
0, 0
0, 1
1, 1
0, 0
0, 0
0, 0
1, 0
0, 0
0, 1
0, 0
0, 0
0, 0
0, 0
0, 0
0, 0
0, 0
0, 0
0, 0
0, 0
0, 0
0, 0
0, 0
0, 0
0, 0
0, 0
0, 0
0, 0
0, 0
1, 0
0, 0
0, 0
0, 0
0, 0
0, 1
0, 0
0, 0
0, 0
0, 0
0, 0
1, 0
0, 0
0, 0
0, 0
1, 0
0, 0
0, 0
0, 0
0, 0
0, 0
0, 0
0, 0
0, 0
0, 0
0, 0
0, 0
0, 0
0, 0
0, 0
0, 0
0, 0
0, 0
0, 0
0, 0
0, 0
0, 0
0, 0
0, 0
0, 0
0, 0
0, 0
0, 0
0, 0
0, 0
0, 0
0, 0
0, 0
0, 0
0, 0
0, 0
0, 0
0, 0
0, 0
0, 0
0, 0
0, 0
0, 0
0, 0
0, 0
0, 0
0, 0
0, 0
0, 0
0, 0
0, 0
1, 0
0, 0
0, 0
0, 0
0, 0
0, 0
0, 0
0, 0
0, 0
0, 0
0, 0
0, 0
0, 0
0, 0
0, 0
0, 0
0, 0
0, 0
0, 0
0, 0
0, 0
0, 0
0, 0
0, 0
0, 0
0, 0
0, 0
0, 0
0, 0
0, 0
0, 0
0, 0
0, 0
0, 0
0, 0
0, 0
0, 0
0, 0
0, 0
0, 0
0, 0
0, 0
0, 0
0, 0
0, 0
0, 0
0, 0
0, 0
0, 0
0, 0
0, 0
0, 0
0, 0
0, 0
0, 0
0, 0
0, 0
0, 0
0, 0
0, 0
0, 0
0, 0
0, 0
0, 0
0, 0
0, 0
0, 0
0, 0
0, 0
0, 0
0, 0
0, 0
0, 0
0, 0
0, 0
0, 0
0, 0
0, 0
0, 0
0, 0
0, 0
0, 0
0, 0
0, 0
0, 0
1, 0
0, 0
0, 0
0, 0
0, 0
0, 0
0, 0
0, 0
0, 0
0, 0
0, 0
0, 0
0, 0
0, 0
0, 0
0, 0
0, 0
0, 0
0, 0
0, 0
0, 0
0, 0
0, 0
0, 0
0, 0
0, 0
0, 0
0, 0
0, 0
0, 0
0, 0
0, 0
0, 0
0, 0
0, 0
0, 0
0, 0
0, 0
0, 0
0, 0
0, 0
0, 0
0, 0
0, 0
0, 0
0, 0
0, 0
0, 0
0, 0
0, 0
0, 0
0, 0
0, 0
0, 0
0, 0
0, 0
0, 0
0, 0
0, 0
0, 0
0, 0
0, 0
0, 0
0, 0
0, 0
0, 0
0, 0
0, 0
0, 0
0, 0
0, 0
0, 0
0, 0
0, 0
0, 0
0, 0
0, 0
0, 0
0, 0
0, 0
0, 0
0, 0
0, 0
0, 0
0, 0
0, 0
0, 0
0, 0
0, 0
0, 0
0, 0
0, 0
0, 0
0, 0
0, 0
1, 0
0, 0
0, 0
0, 0
0, 0
0, 0
0, 0
0, 0
0, 0
0, 0
0, 0
0, 0
0, 0
0, 0
0, 0
0, 0
0, 0
0, 0
0, 0
0, 0
0, 0
0, 0
0, 0
0, 0
0, 0
0, 0
0, 0
0, 0
0, 0
0, 0
0, 0
0, 0
0, 0
0, 0
0, 0
0, 0
0, 0
0, 0
0, 0
0, 0
0, 0
0, 0
0, 0
0, 0
0, 0
0, 0
0, 0
0, 0
0, 0
0, 0
0, 0
0, 0
0, 0
0, 0
0, 0
0, 0
0, 0
0, 0
0, 0
0, 0
0, 0
0, 0
0, 0
0, 0
0, 0
0, 0
0, 0
0, 0
0, 0
0, 0
0, 0
0, 0
0, 0
0, 0
0, 0
0, 0
0, 0
0, 0
0, 0
0, 0
0, 0
0, 0
0, 0
0, 0
0, 0
0, 0
0, 0
0, 0
0, 0
0, 0
0, 0
0, 0
0, 0
0, 0
0, 0
0, 0
0, 0
0, 0
0, 0
0, 0
0, 0
0, 0
0, 0
0, 0
0, 0
0, 0
0, 0
0, 0
0, 0
0, 0
0, 0
0, 0
0, 0
0, 0
0, 0
0, 0
0, 0
0, 0
0, 0
0, 0
0, 0
0, 0
0, 0
0, 0
0, 0
0, 0
0, 0
0, 0
0, 0
0, 0
0, 0
0, 0
0, 0
0, 0
0, 0
0, 0
0, 0
0, 0
0, 0
0, 0
0, 0
0, 0
0, 0
0, 0
0, 0
0, 0
0, 0
0, 0
0, 0
0, 0
0, 0
0, 0
0, 0
0, 0
0, 0
0, 0
0, 0
0, 0
0, 0
0, 0
0, 0
0, 0
0, 0
0, 0
0, 0
0, 0
0, 0
0, 0
0, 0
0, 0
0, 0
0, 0
0, 0
0, 0
0, 0
0, 0
0, 0
0, 0
0, 0
0, 0
0, 0
0, 0
0, 0
0, 0
0, 0
0, 0
0, 0
0, 0
0, 0
0, 0
0, 0
0, 0
0, 0
0, 0
0, 0
0, 0
0, 0
#ENDOFDATA     end of spectrum data