File: host_upload/02-11-2024/rqc/uplink1/ps__0567_0717304816_000rfs_shot_219.msa
#FORMAT      : EMSA/MAS spectral data file
#VERSION     : TC202v2.0 PIXL
#TITLE       : Novarupta (sol567) subset1
#DATE        : 02-11-2024      Date in the format DD-MMM-YYYY, for example 07-JUL-2010
#TIME        :             The time of day at which the spectrum was recorded, in 24-hour format
#OWNER       : PIXL Flight Model       (PIXL will use this to indicate which instrument took the data.)
#NPOINTS     : 4096     Number of data points in the spectrum (This can be zero for configuration only files)
#NCOLUMNS    : 2     Number of data columns in the spectrum (This can be zero for configuration only files)
#XUNITS      : eV
#YUNITS      : COUNTS
#DATATYPE    : YY
#XPERCHAN    : 7.862, 7.881   eV per channel (separate by commas if more than one detector)
#OFFSET      : 18.5, -22.4         eV of first channel  (separate by commas if more than one detector
#SIGNALTYPE  : XRF
#YP_TEMP     : 0.92
#LIVETIME    : 8.85311, 8.83383   seconds (separate by commas if more than one detector)
#REALTIME    : 10, 10.0   seconds (separate by commas if more than one detector)
#SPECTRUM    : start of spectrum data
0, 0
0, 0
0, 0
0, 0
0, 0
0, 0
0, 0
0, 0
0, 0
0, 0
0, 0
0, 0
0, 0
0, 0
0, 0
0, 0
0, 0
0, 0
0, 0
0, 0
0, 0
0, 0
0, 0
0, 0
0, 0
0, 0
0, 0
0, 0
0, 0
0, 0
0, 0
0, 0
0, 0
1, 0
0, 0
3, 0
2, 4
4, 2
5, 4
3, 4
3, 3
2, 6
3, 1
3, 2
2, 2
3, 4
5, 3
3, 8
4, 4
3, 6
9, 4
8, 11
11, 15
12, 17
14, 13
11, 16
15, 10
8, 8
6, 5
13, 11
19, 19
28, 19
36, 37
53, 35
37, 43
32, 46
35, 27
35, 25
38, 32
49, 70
103, 132
183, 215
281, 317
370, 432
449, 490
433, 474
422, 440
331, 340
208, 212
152, 119
85, 67
37, 42
29, 48
31, 27
28, 36
28, 39
28, 35
25, 27
23, 27
14, 26
21, 20
16, 19
30, 26
38, 37
69, 93
103, 139
174, 207
256, 270
256, 329
268, 290
220, 229
167, 208
121, 157
111, 86
73, 65
54, 67
49, 58
52, 68
87, 87
111, 132
161, 175
188, 207
197, 216
189, 210
190, 192
148, 151
132, 147
93, 109
81, 90
73, 97
81, 82
62, 74
70, 71
45, 56
34, 44
46, 40
18, 41
26, 11
18, 14
9, 19
12, 9
6, 4
11, 8
5, 9
9, 7
3, 7
7, 14
16, 14
19, 19
17, 20
28, 32
26, 33
26, 29
17, 29
21, 26
18, 15
10, 8
11, 22
5, 12
13, 12
23, 20
43, 46
87, 92
122, 165
166, 222
222, 297
308, 346
369, 402
339, 363
262, 302
203, 229
152, 142
97, 91
53, 54
32, 34
19, 33
30, 24
41, 35
40, 52
49, 55
50, 56
71, 52
59, 60
40, 44
37, 39
17, 23
9, 21
14, 14
6, 13
7, 5
4, 9
8, 5
10, 10
10, 8
15, 12
15, 14
23, 19
26, 25
22, 31
41, 51
53, 63
53, 66
54, 62
50, 76
48, 54
47, 51
35, 29
25, 22
25, 17
22, 13
15, 23
10, 16
10, 20
13, 7
9, 6
8, 10
9, 14
14, 14
13, 21
13, 14
18, 23
20, 20
22, 17
12, 12
17, 20
9, 14
11, 11
11, 12
8, 11
12, 10
14, 12
11, 14
8, 10
6, 11
11, 11
14, 18
14, 23
18, 18
21, 28
25, 40
22, 36
31, 39
28, 36
26, 18
9, 21
16, 12
17, 18
12, 10
15, 10
13, 10
9, 11
14, 11
10, 11
11, 16
19, 13
18, 29
27, 27
23, 33
33, 41
38, 51
44, 50
42, 46
42, 41
49, 45
33, 39
27, 30
27, 25
14, 18
14, 12
14, 16
12, 14
32, 31
42, 38
49, 81
117, 160
203, 261
338, 510
546, 718
844, 1122
1141, 1411
1332, 1664
1509, 1839
1646, 1788
1594, 1684
1368, 1443
1089, 1120
789, 768
544, 489
357, 317
220, 187
118, 101
67, 58
41, 29
19, 28
15, 20
22, 12
15, 14
14, 19
14, 24
18, 26
11, 21
36, 38
38, 50
62, 70
83, 102
114, 140
155, 180
201, 224
203, 275
259, 287
231, 289
227, 274
198, 203
167, 157
121, 119
93, 59
62, 41
26, 21
20, 21
15, 16
5, 9
10, 8
3, 11
10, 9
11, 7
7, 17
20, 12
8, 7
8, 15
15, 5
15, 14
12, 11
9, 7
7, 8
9, 5
6, 7
4, 6
5, 3
6, 5
5, 6
4, 6
3, 8
9, 3
5, 6
3, 5
5, 6
4, 3
5, 6
9, 5
2, 4
2, 7
8, 9
6, 8
8, 10
5, 4
8, 8
7, 8
4, 12
1, 4
9, 8
8, 8
4, 12
4, 6
4, 7
6, 6
3, 3
7, 6
7, 6
8, 2
5, 6
9, 7
5, 14
3, 8
3, 6
8, 13
9, 10
6, 11
15, 10
10, 10
11, 15
12, 5
9, 6
8, 9
3, 12
2, 4
3, 2
7, 9
5, 9
2, 9
4, 3
5, 5
2, 11
4, 8
1, 7
4, 6
3, 3
7, 7
5, 4
4, 4
1, 2
3, 7
4, 6
3, 5
3, 6
7, 4
2, 4
2, 5
7, 0
4, 6
7, 8
5, 2
5, 3
5, 3
5, 7
5, 3
2, 5
8, 8
8, 7
7, 3
4, 7
4, 6
2, 5
3, 7
4, 6
8, 4
4, 3
1, 6
5, 4
3, 6
8, 4
7, 6
3, 4
4, 5
7, 5
2, 7
3, 5
5, 1
8, 2
2, 6
3, 4
2, 4
1, 4
2, 3
2, 6
6, 4
1, 5
3, 4
4, 4
3, 0
2, 3
4, 2
4, 0
3, 4
3, 2
3, 1
5, 8
1, 2
4, 1
6, 5
1, 4
0, 2
3, 4
6, 1
0, 4
3, 6
1, 6
10, 6
2, 6
4, 2
3, 5
3, 2
2, 5
3, 3
5, 2
1, 5
2, 3
3, 4
2, 4
4, 3
4, 2
5, 2
4, 5
3, 2
3, 5
1, 5
7, 2
0, 2
4, 2
3, 1
1, 7
1, 3
8, 4
4, 1
6, 3
3, 6
2, 4
7, 3
4, 1
1, 1
4, 1
2, 1
4, 4
2, 3
2, 3
1, 4
0, 3
2, 2
2, 1
0, 2
1, 0
1, 1
1, 1
2, 2
1, 3
3, 1
1, 1
1, 5
2, 4
1, 3
6, 4
2, 3
1, 4
6, 2
2, 2
1, 2
1, 5
2, 3
0, 2
5, 0
4, 1
0, 2
1, 2
3, 4
0, 2
2, 2
1, 7
5, 2
1, 3
4, 0
2, 1
0, 2
0, 2
2, 2
2, 1
1, 2
1, 3
0, 2
3, 2
1, 1
3, 4
3, 3
1, 2
5, 3
2, 2
6, 2
1, 2
1, 2
4, 3
1, 4
1, 0
3, 0
2, 0
3, 0
3, 3
2, 1
1, 2
1, 1
0, 0
2, 1
4, 0
0, 3
2, 1
1, 0
1, 1
3, 2
2, 1
1, 1
0, 2
5, 0
0, 2
2, 1
0, 2
0, 1
1, 3
3, 2
2, 2
1, 2
2, 2
0, 2
2, 0
1, 1
0, 0
0, 5
1, 1
1, 1
2, 1
0, 1
0, 3
0, 1
1, 0
0, 1
4, 3
1, 1
1, 2
0, 2
2, 0
1, 1
2, 1
1, 1
0, 2
0, 0
1, 4
0, 0
4, 1
2, 1
0, 0
0, 0
0, 0
1, 0
0, 1
1, 2
1, 0
1, 1
2, 0
2, 0
0, 0
0, 1
0, 3
1, 0
0, 0
2, 2
1, 2
0, 1
1, 1
3, 0
0, 0
1, 3
1, 1
0, 2
0, 0
4, 0
1, 2
1, 1
3, 1
1, 0
1, 1
0, 1
0, 1
0, 2
1, 2
0, 2
1, 0
1, 0
0, 0
2, 1
0, 0
0, 1
1, 0
0, 0
0, 0
0, 2
1, 1
0, 1
1, 0
0, 0
1, 0
0, 0
0, 2
0, 2
0, 0
0, 0
1, 0
1, 1
1, 1
0, 0
0, 0
1, 0
0, 0
2, 1
0, 0
0, 1
1, 0
0, 0
0, 1
1, 1
1, 0
1, 0
0, 0
0, 1
1, 1
1, 0
1, 0
0, 0
0, 0
1, 0
0, 0
1, 0
0, 0
0, 2
1, 0
0, 1
0, 1
0, 0
0, 0
0, 0
0, 0
0, 1
0, 0
1, 0
1, 0
0, 0
0, 0
1, 0
0, 0
2, 0
0, 0
1, 0
1, 0
0, 0
1, 0
0, 0
0, 0
2, 0
1, 1
1, 0
1, 2
0, 0
0, 0
0, 0
1, 0
0, 0
2, 0
0, 0
0, 0
1, 1
0, 0
0, 0
0, 0
0, 1
0, 1
1, 2
0, 0
1, 0
1, 0
0, 0
0, 0
0, 1
0, 1
1, 0
0, 2
0, 0
0, 0
1, 0
0, 0
0, 0
0, 1
0, 0
0, 0
0, 0
1, 1
0, 1
0, 0
0, 0
1, 2
0, 0
0, 0
1, 1
1, 0
0, 0
0, 0
1, 0
1, 2
0, 0
0, 0
0, 1
0, 0
0, 0
0, 0
0, 0
1, 0
0, 1
0, 3
0, 0
0, 0
0, 0
0, 0
0, 0
1, 1
1, 1
0, 0
0, 0
0, 0
1, 0
0, 0
0, 0
0, 0
1, 0
0, 0
1, 0
0, 0
0, 1
0, 0
0, 1
0, 1
0, 0
0, 0
0, 0
1, 0
1, 2
0, 0
1, 0
2, 0
1, 0
1, 2
1, 0
0, 0
0, 0
0, 0
0, 0
0, 0
0, 0
0, 0
0, 0
0, 0
0, 0
0, 0
0, 0
0, 0
0, 0
0, 0
1, 0
0, 0
0, 0
0, 1
0, 0
0, 0
0, 0
0, 0
1, 1
0, 0
0, 0
0, 0
0, 0
0, 0
1, 0
0, 0
0, 0
0, 0
0, 0
0, 0
0, 1
0, 0
1, 1
0, 0
0, 0
0, 0
0, 1
0, 0
0, 1
1, 0
0, 0
0, 0
1, 0
0, 0
0, 1
0, 0
0, 0
0, 0
0, 0
0, 0
0, 0
0, 0
1, 0
0, 0
0, 0
0, 0
0, 0
0, 0
0, 0
1, 0
0, 0
0, 0
0, 0
0, 0
0, 0
0, 0
0, 0
0, 0
0, 0
0, 0
0, 0
0, 0
0, 0
0, 0
0, 0
0, 0
0, 0
0, 0
0, 0
0, 1
0, 0
0, 0
0, 0
1, 0
0, 0
0, 0
0, 0
0, 1
0, 0
0, 0
0, 0
0, 1
0, 0
0, 0
0, 0
0, 0
0, 0
0, 0
0, 0
0, 0
0, 0
0, 0
0, 0
1, 0
0, 0
0, 0
0, 0
0, 0
0, 0
0, 0
0, 0
0, 0
0, 0
0, 0
0, 0
0, 0
0, 0
0, 0
0, 0
0, 0
0, 0
0, 1
0, 0
0, 0
0, 0
0, 0
0, 0
0, 0
0, 0
0, 0
0, 0
0, 0
0, 0
0, 0
0, 0
0, 0
0, 0
0, 0
0, 0
0, 0
0, 0
0, 0
0, 0
0, 0
0, 0
0, 0
0, 0
0, 0
0, 0
0, 0
0, 0
0, 0
0, 0
0, 0
0, 0
0, 0
0, 0
0, 0
0, 0
0, 0
0, 0
0, 0
0, 0
0, 0
0, 0
0, 0
0, 0
0, 0
0, 0
0, 0
0, 0
0, 0
0, 0
0, 0
0, 0
0, 0
0, 0
0, 0
0, 0
0, 0
0, 0
0, 0
0, 0
0, 0
0, 0
0, 0
0, 0
0, 0
0, 0
0, 0
0, 0
0, 0
0, 0
0, 0
0, 0
0, 0
0, 0
0, 0
0, 0
0, 0
0, 0
0, 0
0, 0
0, 0
0, 0
0, 0
0, 0
0, 0
0, 0
0, 0
0, 0
0, 0
0, 0
0, 0
0, 0
0, 0
0, 0
0, 0
0, 0
0, 0
0, 0
0, 0
0, 0
0, 0
0, 0
0, 0
0, 0
0, 0
0, 0
0, 0
0, 0
0, 0
0, 0
0, 0
0, 0
0, 0
0, 0
0, 0
0, 0
0, 0
0, 0
0, 0
0, 0
0, 0
0, 0
0, 0
0, 0
0, 0
0, 0
0, 0
0, 0
0, 0
0, 0
0, 0
0, 0
0, 0
0, 0
0, 0
0, 0
0, 0
0, 0
0, 0
0, 0
0, 0
0, 0
0, 0
0, 0
0, 0
0, 0
0, 0
0, 0
0, 0
0, 0
0, 0
0, 0
0, 0
0, 0
0, 1
0, 0
0, 0
0, 0
0, 0
0, 0
0, 0
0, 0
0, 0
0, 0
0, 0
0, 0
0, 0
0, 0
0, 0
0, 0
0, 0
0, 0
0, 0
0, 0
0, 0
0, 0
0, 0
0, 0
0, 0
0, 0
0, 0
0, 0
0, 0
0, 0
0, 0
0, 0
0, 0
0, 0
0, 0
0, 0
0, 0
0, 0
0, 0
0, 0
0, 0
0, 0
0, 0
0, 0
0, 0
0, 0
0, 0
0, 0
0, 0
0, 0
0, 0
0, 0
0, 0
0, 0
0, 0
0, 0
0, 0
0, 0
0, 0
0, 0
0, 0
0, 0
0, 0
0, 0
0, 0
0, 0
0, 0
0, 0
0, 0
0, 0
0, 0
0, 0
0, 0
0, 0
0, 0
0, 0
0, 0
0, 0
0, 0
0, 0
0, 0
0, 0
0, 0
0, 0
0, 0
0, 0
0, 0
0, 0
0, 0
0, 0
0, 0
0, 0
0, 0
0, 0
0, 0
0, 0
0, 0
0, 0
0, 0
0, 0
0, 0
0, 0
0, 0
0, 0
0, 0
0, 0
0, 0
0, 0
0, 0
0, 0
0, 0
0, 0
0, 0
0, 0
0, 0
0, 0
0, 0
0, 0
0, 0
0, 0
0, 0
0, 0
0, 0
0, 0
0, 0
0, 0
0, 0
0, 0
0, 0
0, 0
0, 0
0, 0
0, 0
0, 0
0, 0
0, 0
0, 0
0, 0
0, 0
0, 0
0, 0
0, 0
0, 0
0, 0
0, 0
0, 0
0, 0
0, 0
0, 0
0, 0
0, 0
0, 0
0, 0
0, 0
0, 0
0, 0
0, 0
0, 0
0, 0
0, 0
0, 0
0, 0
0, 0
0, 0
0, 0
0, 0
0, 0
0, 0
0, 0
0, 0
0, 0
0, 0
0, 0
0, 0
0, 0
0, 0
0, 0
0, 0
0, 0
0, 0
0, 0
0, 0
0, 0
0, 0
0, 0
0, 0
0, 0
0, 0
0, 0
0, 0
0, 0
0, 0
0, 0
0, 0
0, 0
0, 0
0, 0
0, 0
0, 0
0, 0
0, 0
0, 0
0, 0
0, 0
0, 0
0, 0
0, 0
0, 0
0, 0
0, 0
0, 0
0, 0
0, 0
0, 0
0, 0
0, 0
0, 0
0, 0
0, 0
0, 0
0, 0
0, 0
0, 0
0, 0
0, 0
0, 0
0, 0
0, 0
0, 0
0, 0
0, 0
0, 0
0, 0
0, 0
0, 0
0, 0
0, 0
0, 0
0, 0
0, 0
0, 0
0, 0
0, 0
0, 0
0, 0
0, 0
0, 0
0, 0
0, 0
0, 0
0, 0
0, 0
0, 0
0, 0
0, 0
0, 0
0, 0
0, 0
0, 0
0, 0
0, 0
0, 0
0, 0
0, 0
0, 0
0, 0
0, 0
0, 0
0, 0
0, 0
0, 0
0, 0
0, 0
0, 0
0, 0
0, 0
0, 0
0, 0
0, 0
#ENDOFDATA     end of spectrum data