File: host_upload/02-11-2024/rqc/uplink1/ps__0567_0717304816_000rfs_shot_80.msa
#FORMAT      : EMSA/MAS spectral data file
#VERSION     : TC202v2.0 PIXL
#TITLE       : Novarupta (sol567) subset1
#DATE        : 02-11-2024      Date in the format DD-MMM-YYYY, for example 07-JUL-2010
#TIME        :             The time of day at which the spectrum was recorded, in 24-hour format
#OWNER       : PIXL Flight Model       (PIXL will use this to indicate which instrument took the data.)
#NPOINTS     : 4096     Number of data points in the spectrum (This can be zero for configuration only files)
#NCOLUMNS    : 2     Number of data columns in the spectrum (This can be zero for configuration only files)
#XUNITS      : eV
#YUNITS      : COUNTS
#DATATYPE    : YY
#XPERCHAN    : 7.862, 7.881   eV per channel (separate by commas if more than one detector)
#OFFSET      : 18.5, -22.4         eV of first channel  (separate by commas if more than one detector
#SIGNALTYPE  : XRF
#YP_TEMP     : -1.357
#LIVETIME    : 8.84297, 8.82622   seconds (separate by commas if more than one detector)
#REALTIME    : 10, 10.0   seconds (separate by commas if more than one detector)
#SPECTRUM    : start of spectrum data
0, 0
0, 0
0, 0
0, 0
0, 0
0, 0
0, 0
0, 0
0, 0
0, 0
0, 0
0, 0
0, 0
0, 0
0, 0
0, 0
0, 0
0, 0
0, 0
0, 0
0, 0
0, 0
0, 0
0, 0
0, 0
0, 0
0, 0
0, 0
0, 0
0, 0
0, 0
1, 0
0, 0
2, 0
1, 2
3, 1
4, 5
4, 5
2, 5
3, 7
1, 8
5, 7
2, 6
5, 2
4, 6
6, 3
0, 3
6, 2
1, 3
2, 7
4, 6
6, 8
11, 12
15, 20
17, 21
15, 26
14, 6
6, 18
7, 10
12, 15
20, 18
27, 24
30, 35
36, 53
50, 48
40, 44
42, 43
37, 33
41, 45
48, 78
82, 136
166, 244
276, 337
365, 408
449, 520
427, 536
332, 428
305, 323
206, 230
111, 134
70, 80
43, 47
44, 33
22, 35
30, 39
38, 34
33, 36
35, 29
15, 30
24, 20
16, 17
28, 24
32, 27
48, 47
88, 104
140, 153
195, 208
231, 271
274, 311
264, 330
229, 265
189, 213
135, 163
90, 105
55, 81
58, 63
66, 60
61, 96
93, 108
140, 126
162, 210
198, 244
204, 234
215, 243
186, 210
150, 165
139, 138
96, 98
91, 89
85, 84
62, 77
63, 67
54, 83
51, 52
38, 47
28, 33
32, 25
19, 31
20, 18
10, 15
9, 8
7, 13
7, 10
9, 2
8, 10
10, 10
5, 14
14, 11
18, 21
22, 33
23, 30
30, 25
18, 23
18, 30
18, 27
11, 13
5, 8
6, 12
5, 15
12, 19
33, 29
45, 58
82, 124
156, 190
214, 274
302, 341
330, 351
339, 384
322, 390
286, 319
202, 229
128, 149
107, 102
61, 51
46, 40
29, 24
36, 39
38, 35
50, 53
63, 62
40, 57
51, 63
50, 63
50, 48
34, 37
11, 27
22, 16
8, 13
7, 9
9, 8
9, 10
5, 10
9, 11
6, 11
16, 5
18, 12
18, 20
18, 29
39, 40
44, 53
61, 71
56, 66
65, 71
49, 70
48, 53
52, 59
33, 38
19, 28
19, 28
25, 17
16, 13
19, 17
8, 15
14, 16
12, 17
14, 13
15, 18
15, 12
13, 22
13, 20
15, 21
18, 26
13, 17
18, 16
11, 18
5, 18
14, 11
11, 7
9, 18
10, 12
7, 12
12, 8
13, 9
14, 3
15, 16
14, 13
12, 26
24, 33
25, 26
26, 35
20, 31
25, 31
29, 37
23, 19
21, 15
19, 14
11, 17
16, 17
15, 8
11, 13
11, 12
8, 17
11, 12
14, 16
16, 22
12, 24
15, 30
34, 37
42, 57
38, 57
42, 45
47, 54
38, 46
30, 33
26, 35
26, 29
23, 31
23, 18
21, 17
13, 22
29, 23
30, 52
46, 71
91, 102
143, 210
225, 331
429, 603
634, 807
920, 1211
1199, 1501
1426, 1759
1584, 1828
1587, 1868
1487, 1658
1353, 1311
965, 1031
716, 668
428, 486
285, 291
167, 149
87, 98
45, 44
37, 25
24, 18
13, 17
24, 15
21, 14
20, 21
20, 17
24, 32
25, 29
35, 37
37, 50
59, 74
83, 110
107, 168
156, 187
206, 262
224, 288
236, 273
216, 280
216, 256
190, 212
156, 136
117, 115
79, 64
39, 38
23, 30
20, 19
9, 6
3, 9
9, 14
10, 8
6, 8
8, 12
9, 20
12, 9
11, 13
12, 15
13, 9
8, 10
13, 10
4, 5
7, 11
5, 7
7, 8
4, 6
5, 4
7, 5
4, 4
10, 7
7, 12
2, 4
5, 11
10, 5
9, 7
11, 6
2, 5
2, 6
8, 6
7, 15
7, 4
7, 8
4, 10
10, 11
6, 3
5, 13
10, 8
4, 6
9, 14
6, 8
5, 9
9, 11
4, 10
8, 4
4, 2
4, 7
7, 1
9, 10
7, 6
7, 6
9, 7
5, 8
6, 12
11, 14
10, 11
10, 11
4, 14
13, 11
12, 11
9, 13
7, 9
5, 5
4, 11
5, 4
7, 6
6, 2
6, 6
8, 13
6, 5
4, 8
3, 7
7, 4
3, 5
4, 6
5, 6
3, 8
12, 5
4, 7
5, 2
2, 3
1, 5
2, 3
3, 5
10, 8
4, 4
12, 0
5, 4
7, 5
4, 3
3, 6
2, 9
5, 5
5, 7
6, 4
2, 4
3, 7
5, 2
3, 6
6, 5
4, 4
6, 7
4, 2
6, 3
5, 6
4, 5
8, 7
1, 4
5, 1
4, 3
5, 6
6, 7
4, 3
3, 7
4, 6
1, 5
3, 4
7, 7
9, 3
4, 2
2, 3
3, 7
3, 5
2, 1
5, 6
1, 2
2, 2
3, 5
6, 6
1, 6
3, 3
3, 4
2, 6
3, 6
1, 3
0, 3
1, 4
2, 3
3, 3
4, 5
3, 2
4, 3
3, 3
1, 6
3, 1
2, 2
2, 5
1, 2
2, 3
3, 7
4, 4
3, 5
2, 5
5, 3
1, 3
1, 5
2, 2
2, 4
2, 4
6, 4
7, 2
1, 5
0, 6
1, 3
2, 0
1, 5
5, 2
2, 3
5, 5
2, 2
5, 3
4, 1
5, 3
5, 7
3, 4
2, 2
3, 0
4, 1
2, 2
4, 0
2, 1
2, 2
3, 1
2, 1
5, 3
2, 1
4, 0
1, 2
2, 5
1, 1
0, 0
1, 3
6, 5
3, 5
2, 1
5, 3
2, 4
0, 4
0, 1
2, 4
3, 2
8, 2
3, 2
0, 1
1, 2
1, 2
0, 1
1, 2
1, 2
0, 2
4, 1
0, 1
3, 2
3, 2
1, 2
0, 4
0, 3
4, 1
2, 0
3, 4
2, 3
2, 1
1, 0
3, 1
2, 3
3, 5
3, 1
0, 0
4, 2
4, 2
3, 3
4, 2
3, 5
1, 1
0, 3
2, 0
1, 3
3, 2
2, 4
2, 2
3, 2
0, 0
1, 0
2, 2
3, 0
1, 1
1, 2
0, 0
2, 5
2, 2
0, 3
1, 3
3, 2
0, 4
0, 0
3, 1
0, 3
0, 3
0, 3
4, 3
1, 0
1, 3
1, 1
1, 1
3, 3
1, 2
1, 1
0, 2
0, 4
1, 0
3, 0
0, 1
2, 2
0, 1
0, 0
0, 1
3, 1
4, 1
0, 3
0, 0
0, 3
0, 0
3, 2
0, 1
0, 0
1, 2
0, 2
0, 0
0, 1
3, 1
1, 1
0, 1
1, 3
0, 1
0, 0
1, 2
0, 2
1, 0
1, 1
0, 1
2, 0
1, 2
0, 1
2, 1
0, 1
1, 0
1, 0
1, 3
1, 1
1, 1
0, 1
1, 1
2, 0
1, 0
1, 2
0, 1
1, 0
1, 0
0, 1
0, 0
3, 1
0, 3
1, 0
1, 1
0, 0
2, 0
0, 0
2, 0
0, 1
2, 2
0, 0
0, 0
0, 0
0, 1
2, 1
0, 0
0, 0
0, 0
0, 1
0, 1
0, 0
0, 1
2, 1
1, 3
0, 1
1, 0
0, 0
0, 1
1, 0
0, 0
0, 0
0, 0
0, 1
0, 2
1, 2
0, 4
0, 0
0, 1
0, 0
0, 2
0, 1
0, 1
0, 0
2, 0
0, 1
0, 1
1, 2
3, 0
2, 1
2, 0
0, 0
0, 2
0, 0
0, 1
1, 1
0, 1
0, 1
0, 1
0, 0
1, 1
0, 0
0, 0
0, 0
0, 1
1, 3
2, 0
0, 0
0, 1
0, 0
0, 0
1, 0
0, 0
1, 1
0, 0
1, 0
1, 1
1, 0
1, 0
0, 0
1, 0
0, 0
0, 0
1, 0
1, 0
0, 0
1, 1
0, 2
1, 0
0, 0
0, 2
0, 0
0, 0
1, 1
0, 1
0, 2
1, 0
0, 0
0, 0
0, 0
1, 0
0, 0
0, 0
0, 0
0, 0
0, 0
0, 0
0, 0
0, 0
1, 0
0, 0
0, 0
0, 0
0, 0
1, 0
0, 0
0, 0
0, 1
1, 0
0, 0
0, 1
0, 1
1, 1
0, 0
1, 0
0, 0
0, 0
0, 1
0, 0
0, 2
0, 0
1, 1
0, 0
0, 0
0, 0
0, 0
1, 0
0, 0
0, 0
0, 0
0, 1
0, 0
1, 0
0, 0
0, 0
1, 0
0, 1
0, 0
0, 0
0, 0
0, 0
0, 0
1, 0
0, 0
0, 1
0, 0
0, 1
0, 0
0, 0
0, 0
0, 0
1, 0
1, 1
0, 0
0, 0
0, 1
0, 0
1, 0
0, 1
0, 2
0, 0
0, 0
0, 2
0, 0
0, 0
0, 0
0, 0
0, 1
1, 0
0, 1
0, 0
0, 0
0, 0
1, 0
1, 0
0, 0
0, 0
0, 0
0, 0
0, 0
0, 0
0, 0
0, 0
0, 0
0, 0
0, 0
0, 0
0, 0
0, 0
0, 0
1, 0
0, 0
0, 0
0, 1
0, 0
0, 0
0, 1
0, 0
0, 0
0, 1
0, 0
0, 0
0, 0
0, 1
0, 1
0, 0
0, 0
0, 0
0, 0
1, 0
0, 0
0, 0
0, 0
0, 0
0, 0
1, 0
0, 0
0, 0
0, 1
0, 0
0, 0
0, 0
0, 0
0, 0
0, 0
0, 0
0, 0
0, 0
0, 0
0, 0
0, 0
0, 0
0, 0
0, 0
0, 0
0, 0
0, 0
0, 0
0, 0
0, 0
0, 0
0, 0
0, 0
0, 0
0, 0
0, 0
0, 0
0, 0
0, 0
0, 0
0, 0
0, 0
0, 0
0, 0
0, 0
0, 0
0, 0
0, 0
0, 0
0, 0
0, 0
0, 0
0, 0
0, 0
0, 0
0, 0
0, 0
0, 0
0, 1
0, 0
0, 0
0, 0
0, 0
0, 0
0, 0
0, 0
0, 0
0, 0
0, 0
0, 0
0, 0
0, 0
0, 0
0, 0
1, 0
0, 0
0, 0
0, 1
0, 0
0, 0
0, 0
1, 0
0, 0
0, 0
0, 0
0, 0
0, 0
0, 0
0, 0
0, 0
0, 0
0, 0
0, 0
0, 0
0, 0
0, 0
0, 0
0, 0
0, 0
0, 0
0, 0
0, 0
0, 0
0, 0
0, 0
0, 0
0, 0
0, 0
0, 0
0, 0
0, 0
0, 0
0, 0
0, 0
0, 0
0, 0
0, 0
0, 0
0, 0
0, 0
0, 0
0, 0
0, 0
0, 0
0, 0
0, 0
0, 0
0, 0
0, 0
0, 0
0, 0
0, 0
0, 0
0, 0
0, 0
0, 1
0, 0
0, 0
0, 0
0, 0
0, 0
0, 0
0, 0
0, 0
0, 0
0, 0
0, 0
0, 0
0, 0
0, 0
0, 0
0, 0
0, 0
0, 0
0, 0
0, 0
0, 0
0, 0
0, 0
0, 0
0, 0
0, 0
0, 0
0, 0
0, 0
0, 0
0, 0
0, 0
0, 0
0, 0
0, 0
0, 0
0, 0
0, 0
0, 0
0, 0
0, 0
0, 0
0, 0
0, 0
0, 0
0, 0
1, 0
0, 0
0, 0
0, 0
0, 0
0, 0
0, 0
0, 0
0, 0
0, 0
0, 0
0, 0
0, 0
0, 0
0, 0
0, 0
0, 0
0, 0
0, 0
0, 0
0, 0
0, 0
0, 0
0, 0
0, 0
0, 0
0, 0
0, 0
0, 0
0, 0
0, 0
0, 0
0, 0
0, 0
0, 0
0, 0
0, 0
0, 0
0, 0
0, 0
0, 0
0, 0
0, 0
0, 0
0, 0
0, 0
0, 0
0, 0
0, 0
0, 0
0, 0
0, 0
0, 0
0, 0
0, 0
0, 0
0, 0
0, 0
0, 0
0, 0
0, 0
0, 0
0, 0
0, 0
0, 0
0, 0
0, 0
0, 0
0, 0
0, 0
0, 0
0, 0
0, 0
0, 0
0, 0
0, 0
0, 0
0, 0
0, 0
0, 0
0, 0
0, 0
0, 0
0, 0
0, 0
0, 0
0, 0
0, 0
0, 0
0, 0
0, 0
0, 0
0, 0
0, 0
0, 0
0, 0
0, 0
0, 0
0, 0
0, 0
0, 0
0, 0
0, 0
0, 0
0, 0
0, 0
0, 0
0, 0
0, 0
0, 0
0, 0
0, 0
0, 0
0, 0
0, 0
0, 0
0, 0
0, 0
0, 0
0, 0
0, 0
0, 0
0, 0
0, 0
0, 0
0, 0
0, 0
0, 0
0, 0
0, 0
0, 0
0, 0
0, 0
0, 0
0, 0
0, 0
0, 0
0, 0
0, 0
0, 0
0, 0
0, 0
0, 0
0, 0
0, 0
0, 0
0, 0
0, 0
0, 0
0, 0
0, 0
0, 0
0, 0
0, 0
0, 0
0, 0
0, 0
0, 0
0, 0
0, 0
0, 0
0, 0
0, 0
0, 0
0, 0
0, 0
0, 0
0, 0
0, 0
0, 0
0, 0
0, 0
0, 0
0, 0
0, 0
0, 0
0, 0
0, 0
0, 0
0, 0
0, 0
0, 0
0, 0
0, 0
0, 0
0, 0
0, 0
0, 0
0, 0
0, 0
0, 0
0, 0
0, 0
0, 0
0, 0
0, 0
0, 0
0, 0
0, 0
0, 0
0, 0
0, 0
0, 0
0, 0
0, 0
0, 0
0, 0
0, 0
0, 0
0, 0
0, 0
0, 0
0, 0
0, 0
0, 0
0, 0
0, 0
0, 0
0, 0
0, 0
0, 0
0, 0
0, 0
0, 0
0, 0
0, 0
0, 0
0, 0
0, 0
0, 0
0, 0
0, 0
0, 0
0, 0
0, 0
0, 0
0, 0
0, 0
0, 0
0, 0
0, 0
0, 0
0, 0
0, 0
0, 0
0, 0
0, 0
0, 0
0, 0
0, 0
0, 0
0, 0
0, 0
0, 0
0, 0
0, 0
0, 0
0, 0
0, 0
0, 0
0, 0
0, 0
0, 0
0, 0
0, 0
0, 0
0, 0
0, 0
0, 0
0, 0
0, 0
0, 0
0, 0
0, 0
0, 0
0, 0
0, 0
0, 0
0, 0
0, 0
0, 0
0, 0
0, 0
0, 0
0, 0
0, 0
0, 0
0, 0
0, 0
0, 0
0, 0
0, 0
0, 0
0, 0
0, 0
0, 0
0, 0
0, 0
0, 0
0, 0
0, 0
0, 0
0, 0
0, 0
0, 0
0, 0
0, 0
0, 0
0, 0
0, 0
0, 0
0, 0
0, 0
0, 0
0, 0
0, 0
0, 0
0, 0
0, 0
0, 0
0, 0
0, 0
0, 0
0, 0
0, 0
0, 0
0, 0
0, 0
0, 0
0, 0
0, 0
0, 0
0, 0
0, 0
0, 0
#ENDOFDATA     end of spectrum data