File: host_upload/02-11-2024/rqc/uplink1/ps__0567_0717304816_000rfs_shot_22.msa
#FORMAT      : EMSA/MAS spectral data file
#VERSION     : TC202v2.0 PIXL
#TITLE       : Novarupta (sol567) subset1
#DATE        : 02-11-2024      Date in the format DD-MMM-YYYY, for example 07-JUL-2010
#TIME        :             The time of day at which the spectrum was recorded, in 24-hour format
#OWNER       : PIXL Flight Model       (PIXL will use this to indicate which instrument took the data.)
#NPOINTS     : 4096     Number of data points in the spectrum (This can be zero for configuration only files)
#NCOLUMNS    : 2     Number of data columns in the spectrum (This can be zero for configuration only files)
#XUNITS      : eV
#YUNITS      : COUNTS
#DATATYPE    : YY
#XPERCHAN    : 7.862, 7.881   eV per channel (separate by commas if more than one detector)
#OFFSET      : 18.5, -22.4         eV of first channel  (separate by commas if more than one detector
#SIGNALTYPE  : XRF
#YP_TEMP     : -4.115
#LIVETIME    : 8.84632, 8.8202   seconds (separate by commas if more than one detector)
#REALTIME    : 10, 10.0   seconds (separate by commas if more than one detector)
#SPECTRUM    : start of spectrum data
0, 0
0, 0
0, 0
0, 0
0, 0
0, 0
0, 0
0, 0
0, 0
0, 0
0, 0
0, 0
0, 0
0, 0
0, 0
0, 0
0, 0
0, 0
0, 0
0, 0
0, 0
0, 0
0, 0
0, 0
0, 0
0, 0
0, 0
0, 0
0, 0
0, 0
1, 0
0, 0
1, 0
1, 1
0, 1
2, 0
1, 3
3, 0
4, 3
4, 4
4, 5
7, 2
3, 6
2, 4
3, 4
5, 3
0, 8
2, 5
5, 4
8, 6
7, 10
7, 12
13, 15
12, 14
15, 10
14, 14
5, 11
11, 9
10, 18
16, 6
23, 17
26, 25
39, 37
48, 45
43, 44
50, 38
40, 44
46, 41
43, 58
74, 91
140, 141
247, 230
341, 360
420, 469
490, 474
451, 489
383, 394
292, 304
232, 217
146, 138
82, 79
43, 49
34, 39
38, 27
34, 42
36, 35
36, 38
27, 25
18, 23
22, 15
17, 21
27, 19
31, 38
69, 59
102, 102
144, 139
195, 242
279, 297
264, 318
280, 303
236, 260
193, 177
136, 137
100, 102
66, 73
62, 47
64, 71
78, 96
100, 131
158, 152
172, 191
225, 277
226, 247
239, 217
202, 199
160, 168
131, 135
102, 101
92, 96
83, 86
60, 81
74, 71
76, 59
54, 40
46, 39
42, 39
24, 34
29, 12
19, 14
13, 17
11, 11
10, 9
8, 10
6, 7
12, 7
12, 6
13, 13
14, 15
24, 28
26, 23
29, 28
21, 31
28, 23
24, 25
16, 12
10, 15
7, 17
10, 12
13, 17
21, 22
46, 45
72, 92
134, 130
177, 204
262, 296
330, 366
350, 360
338, 380
342, 336
265, 271
191, 195
149, 129
84, 104
54, 42
30, 32
26, 46
33, 29
43, 39
45, 55
56, 46
54, 51
55, 50
48, 34
36, 44
35, 29
26, 22
20, 23
7, 11
7, 15
6, 14
6, 5
10, 7
9, 6
12, 14
15, 18
17, 14
23, 31
25, 25
33, 40
51, 56
53, 58
58, 69
52, 60
46, 56
47, 40
44, 37
26, 37
24, 26
21, 22
18, 12
20, 13
21, 21
14, 9
8, 17
10, 16
13, 6
16, 22
14, 17
16, 18
16, 20
19, 24
16, 22
19, 23
11, 17
16, 13
11, 12
8, 12
9, 12
9, 11
8, 9
12, 16
15, 7
11, 23
14, 12
16, 24
23, 13
22, 27
31, 24
20, 32
30, 32
32, 39
36, 18
21, 19
18, 18
8, 15
10, 12
14, 15
15, 6
14, 13
13, 17
14, 13
6, 16
17, 19
13, 9
16, 6
29, 42
27, 29
45, 48
35, 42
36, 42
51, 49
40, 45
45, 48
35, 34
30, 32
20, 29
15, 19
18, 18
24, 19
19, 34
29, 24
52, 57
73, 94
139, 146
252, 303
385, 443
556, 659
836, 1032
1135, 1302
1470, 1563
1589, 1743
1677, 1731
1572, 1636
1388, 1391
1175, 1096
851, 837
579, 492
395, 353
226, 185
116, 118
94, 66
45, 40
28, 29
23, 25
17, 26
16, 20
15, 18
18, 16
21, 21
25, 20
26, 43
40, 54
74, 83
98, 101
126, 151
166, 196
182, 201
211, 276
225, 251
255, 270
244, 231
212, 203
181, 149
121, 107
78, 71
64, 38
36, 34
22, 19
15, 13
13, 7
8, 9
13, 8
9, 16
6, 15
6, 10
15, 11
17, 13
8, 17
8, 11
10, 15
4, 14
13, 9
8, 14
11, 8
3, 7
6, 5
3, 6
4, 9
5, 10
7, 5
12, 6
2, 3
8, 7
8, 8
2, 8
9, 11
6, 6
4, 8
9, 5
7, 6
8, 5
9, 6
7, 5
12, 7
6, 15
8, 13
10, 8
14, 9
10, 9
7, 13
7, 6
1, 8
6, 15
5, 7
12, 6
6, 6
10, 5
6, 11
5, 6
8, 6
11, 11
13, 16
5, 9
15, 14
9, 11
7, 12
11, 18
10, 9
11, 12
14, 11
11, 8
4, 8
13, 10
15, 6
4, 5
8, 3
9, 4
2, 6
6, 13
5, 7
5, 5
7, 7
2, 6
2, 11
5, 4
6, 3
5, 2
3, 6
10, 6
2, 1
2, 2
0, 3
3, 5
4, 2
6, 4
7, 0
5, 7
4, 10
6, 7
4, 11
6, 7
6, 4
6, 5
2, 2
4, 4
11, 6
5, 11
2, 6
4, 15
4, 2
2, 6
4, 3
8, 4
3, 3
6, 2
4, 6
4, 4
2, 5
4, 3
3, 7
2, 4
4, 4
5, 7
3, 2
4, 5
7, 7
5, 5
10, 6
4, 1
3, 5
5, 3
5, 7
6, 3
4, 7
5, 3
5, 7
5, 5
5, 2
2, 9
2, 3
1, 3
6, 4
0, 3
6, 2
3, 3
10, 4
1, 1
2, 4
2, 5
6, 3
5, 4
4, 2
5, 3
4, 6
5, 3
4, 3
4, 3
4, 3
1, 3
3, 4
2, 3
1, 4
7, 5
1, 4
2, 5
5, 1
0, 2
5, 3
3, 4
5, 3
2, 2
2, 4
1, 2
3, 3
7, 2
2, 3
2, 2
4, 2
2, 2
0, 4
3, 4
2, 0
4, 3
5, 6
1, 2
6, 3
3, 4
4, 2
5, 3
4, 6
3, 1
4, 5
3, 2
3, 2
1, 2
2, 3
0, 4
4, 2
3, 3
4, 5
2, 1
1, 2
1, 3
2, 3
0, 4
2, 2
1, 8
1, 0
3, 4
1, 0
5, 2
2, 2
2, 3
0, 4
1, 2
2, 4
3, 2
4, 4
3, 1
2, 3
1, 1
1, 2
2, 1
2, 2
1, 2
1, 1
0, 1
1, 1
2, 4
0, 2
0, 2
2, 2
4, 2
0, 1
2, 3
1, 3
1, 4
1, 1
4, 1
4, 3
4, 7
3, 2
5, 2
6, 3
1, 1
2, 2
2, 1
3, 0
2, 4
0, 1
2, 1
3, 0
1, 2
1, 0
1, 0
0, 1
0, 2
2, 1
2, 0
3, 1
1, 1
1, 2
1, 1
4, 1
2, 2
3, 1
2, 3
2, 2
0, 1
3, 0
4, 2
1, 1
0, 2
3, 3
0, 1
1, 1
0, 1
2, 1
2, 2
0, 3
2, 2
1, 1
1, 1
2, 1
1, 1
2, 0
0, 2
3, 1
1, 2
1, 1
1, 5
1, 1
1, 0
2, 2
1, 2
0, 4
0, 2
0, 2
0, 0
1, 1
1, 2
3, 1
1, 1
2, 1
3, 0
0, 2
2, 1
1, 1
0, 0
0, 1
1, 0
1, 0
2, 1
1, 0
0, 0
0, 0
0, 1
2, 0
1, 2
0, 0
2, 0
3, 0
1, 1
2, 0
3, 0
1, 0
2, 1
0, 1
0, 1
0, 2
1, 0
0, 0
0, 0
0, 2
0, 0
1, 0
0, 1
0, 0
0, 0
1, 0
2, 2
2, 0
0, 0
0, 0
1, 1
1, 0
1, 0
1, 0
1, 1
0, 1
1, 0
2, 0
0, 0
1, 0
0, 0
1, 0
1, 0
2, 1
1, 1
1, 1
0, 1
0, 1
1, 2
0, 0
0, 1
1, 0
4, 1
0, 1
0, 1
0, 1
0, 0
3, 0
0, 0
0, 0
0, 1
0, 0
0, 0
0, 2
0, 0
1, 2
0, 1
1, 2
1, 1
0, 3
0, 0
0, 1
0, 0
1, 0
0, 0
1, 1
1, 0
0, 0
0, 2
1, 0
1, 3
1, 0
0, 0
0, 0
0, 0
1, 2
0, 1
0, 1
0, 1
2, 0
1, 0
0, 1
1, 0
0, 0
0, 1
0, 1
0, 0
0, 1
0, 0
1, 0
1, 0
1, 0
1, 0
0, 0
0, 0
0, 0
0, 0
1, 0
1, 0
0, 0
0, 0
0, 0
0, 0
1, 0
0, 2
0, 0
0, 0
0, 0
1, 0
0, 0
0, 1
1, 0
0, 0
0, 0
0, 0
0, 0
2, 2
1, 1
0, 0
0, 0
0, 1
0, 1
1, 0
1, 2
0, 0
0, 0
0, 0
0, 1
0, 0
0, 0
0, 0
0, 0
0, 0
0, 1
0, 0
1, 0
0, 0
1, 0
0, 0
0, 1
0, 1
0, 0
0, 0
1, 0
0, 0
0, 0
0, 0
1, 0
1, 0
0, 0
1, 0
0, 0
0, 0
0, 1
0, 1
0, 0
1, 0
0, 0
0, 0
0, 0
1, 0
0, 2
0, 0
0, 1
0, 1
0, 0
0, 0
1, 0
1, 0
0, 0
1, 0
0, 1
0, 0
0, 0
0, 0
0, 0
0, 0
0, 0
0, 0
0, 0
2, 0
0, 1
0, 0
0, 0
0, 2
0, 0
0, 0
0, 0
0, 0
0, 0
0, 0
0, 0
1, 0
1, 0
0, 0
1, 0
0, 0
0, 0
0, 0
0, 0
0, 0
0, 0
0, 0
0, 0
1, 1
0, 2
0, 0
0, 0
0, 0
0, 0
0, 1
0, 0
0, 1
0, 0
0, 1
0, 0
0, 0
0, 0
0, 0
0, 0
0, 0
0, 0
0, 0
1, 0
0, 1
0, 0
0, 0
1, 0
1, 0
0, 0
0, 0
1, 0
0, 0
0, 0
0, 0
0, 0
0, 0
0, 0
0, 0
0, 1
0, 0
0, 0
0, 0
0, 0
0, 0
0, 1
0, 0
0, 0
0, 0
0, 0
0, 0
1, 0
1, 0
0, 0
0, 0
0, 0
0, 0
0, 0
0, 0
1, 1
0, 0
0, 0
0, 0
0, 0
0, 0
0, 0
0, 0
0, 0
0, 0
0, 0
0, 0
0, 0
0, 0
0, 0
0, 1
0, 0
0, 0
0, 0
0, 0
0, 0
0, 0
0, 0
0, 0
0, 0
1, 0
0, 0
0, 0
1, 0
0, 0
0, 0
0, 0
0, 0
0, 0
0, 0
0, 0
0, 0
0, 0
0, 0
0, 0
0, 0
0, 0
0, 0
0, 0
0, 0
0, 0
0, 0
0, 0
0, 0
0, 0
0, 0
0, 0
0, 0
0, 0
0, 0
0, 0
0, 0
0, 0
0, 0
0, 0
0, 0
0, 0
0, 0
0, 0
0, 0
0, 0
0, 0
1, 0
0, 0
0, 0
0, 0
0, 0
0, 0
0, 0
0, 0
0, 0
0, 0
0, 0
0, 0
0, 0
0, 0
0, 0
0, 0
0, 0
0, 0
0, 0
0, 0
0, 0
0, 1
0, 0
0, 0
1, 0
0, 0
0, 0
0, 0
0, 0
0, 0
0, 0
0, 0
0, 0
0, 0
0, 0
0, 0
0, 0
0, 0
0, 0
0, 0
0, 1
0, 0
0, 0
0, 0
0, 0
0, 0
0, 0
0, 0
0, 0
0, 0
0, 0
0, 0
0, 0
0, 0
0, 0
0, 0
0, 0
0, 0
0, 0
0, 0
0, 0
0, 0
0, 0
0, 0
0, 0
0, 0
0, 0
0, 0
0, 0
0, 0
0, 0
0, 0
0, 0
0, 0
0, 0
0, 0
0, 0
0, 0
0, 1
0, 0
0, 0
0, 0
0, 0
0, 0
0, 0
0, 0
0, 0
0, 0
0, 0
0, 0
0, 0
0, 0
0, 0
0, 0
0, 0
1, 0
0, 0
0, 0
0, 0
0, 0
0, 0
0, 0
0, 0
0, 0
0, 0
0, 0
0, 0
0, 0
0, 0
0, 0
0, 0
0, 0
0, 0
0, 0
0, 0
0, 0
0, 0
0, 0
0, 0
0, 0
0, 0
0, 0
0, 0
0, 0
0, 0
0, 0
0, 0
0, 0
0, 0
0, 0
0, 0
0, 0
0, 0
0, 0
0, 0
0, 0
0, 0
0, 0
0, 0
0, 0
0, 0
0, 0
0, 0
0, 0
0, 0
0, 0
0, 0
0, 0
0, 0
0, 0
0, 0
0, 0
0, 0
0, 0
0, 0
0, 0
0, 0
0, 0
0, 0
0, 0
0, 0
0, 0
0, 0
0, 0
0, 0
0, 0
0, 0
0, 0
0, 0
0, 0
0, 0
0, 0
0, 0
0, 0
0, 0
0, 0
0, 0
0, 0
0, 0
0, 0
0, 0
0, 0
0, 0
0, 0
0, 0
0, 0
0, 0
0, 0
0, 0
0, 0
0, 0
0, 0
0, 0
0, 0
0, 0
0, 0
1, 0
0, 0
0, 0
0, 0
0, 0
0, 0
0, 0
0, 0
0, 0
0, 0
0, 0
0, 0
0, 0
0, 0
0, 0
0, 0
0, 0
0, 0
0, 0
0, 0
0, 0
0, 0
0, 0
0, 0
0, 0
0, 0
0, 0
0, 0
0, 0
0, 0
0, 0
0, 0
0, 0
0, 0
0, 0
0, 0
0, 0
0, 0
0, 0
0, 0
0, 0
0, 0
0, 0
0, 0
0, 0
0, 0
0, 0
0, 0
0, 0
0, 0
0, 0
0, 0
0, 0
0, 0
0, 0
0, 0
0, 0
0, 0
0, 0
0, 0
0, 0
0, 0
0, 0
0, 0
0, 0
0, 0
0, 0
0, 0
0, 0
0, 0
0, 0
0, 0
0, 0
0, 0
0, 0
0, 0
0, 0
0, 0
0, 0
0, 0
0, 0
0, 0
0, 0
0, 0
0, 0
0, 0
0, 0
0, 0
0, 0
0, 0
0, 0
0, 0
0, 0
0, 0
0, 0
0, 0
0, 0
0, 0
0, 0
0, 0
0, 0
0, 0
0, 0
0, 0
0, 0
0, 0
0, 0
0, 0
0, 0
0, 0
0, 0
0, 0
0, 0
0, 0
0, 0
0, 0
0, 0
0, 0
0, 0
0, 0
0, 0
0, 0
0, 0
0, 0
0, 0
0, 0
0, 0
0, 0
0, 0
0, 0
0, 0
0, 0
0, 0
0, 0
0, 0
0, 0
0, 0
0, 0
0, 0
0, 0
0, 0
0, 0
0, 0
0, 0
0, 0
0, 0
0, 0
0, 0
0, 0
0, 0
0, 0
0, 0
0, 0
0, 0
0, 0
0, 0
0, 0
0, 0
0, 0
0, 0
0, 0
0, 0
0, 0
0, 0
0, 0
0, 0
0, 0
0, 0
0, 0
0, 0
0, 0
0, 0
0, 0
0, 0
0, 0
0, 0
0, 0
0, 0
0, 0
0, 0
0, 0
0, 0
0, 0
0, 0
0, 0
0, 0
0, 0
0, 0
0, 0
0, 0
0, 0
0, 0
0, 0
0, 0
0, 0
0, 0
0, 0
0, 0
0, 0
0, 0
0, 0
0, 0
0, 0
0, 0
0, 0
0, 0
0, 0
0, 0
0, 0
0, 0
0, 0
0, 0
0, 0
0, 0
0, 0
0, 0
0, 0
0, 0
0, 0
0, 0
#ENDOFDATA     end of spectrum data