File: host_upload/02-11-2024/rqc/uplink1/ps__0567_0717304816_000rfs_shot_277.msa
#FORMAT      : EMSA/MAS spectral data file
#VERSION     : TC202v2.0 PIXL
#TITLE       : Novarupta (sol567) subset1
#DATE        : 02-11-2024      Date in the format DD-MMM-YYYY, for example 07-JUL-2010
#TIME        :             The time of day at which the spectrum was recorded, in 24-hour format
#OWNER       : PIXL Flight Model       (PIXL will use this to indicate which instrument took the data.)
#NPOINTS     : 4096     Number of data points in the spectrum (This can be zero for configuration only files)
#NCOLUMNS    : 2     Number of data columns in the spectrum (This can be zero for configuration only files)
#XUNITS      : eV
#YUNITS      : COUNTS
#DATATYPE    : YY
#XPERCHAN    : 7.862, 7.881   eV per channel (separate by commas if more than one detector)
#OFFSET      : 18.5, -22.4         eV of first channel  (separate by commas if more than one detector
#SIGNALTYPE  : XRF
#YP_TEMP     : 1.498
#LIVETIME    : 8.79926, 8.80006   seconds (separate by commas if more than one detector)
#REALTIME    : 10, 10.0   seconds (separate by commas if more than one detector)
#SPECTRUM    : start of spectrum data
0, 0
0, 0
0, 0
0, 0
0, 0
0, 0
0, 0
0, 0
0, 0
0, 0
0, 0
0, 0
0, 0
0, 0
0, 0
0, 0
0, 0
0, 0
0, 0
0, 0
0, 0
0, 0
0, 0
0, 0
0, 0
0, 0
0, 0
0, 0
0, 0
0, 0
0, 0
0, 0
1, 0
0, 1
1, 1
2, 3
1, 1
6, 3
2, 3
4, 7
3, 3
1, 1
5, 4
5, 6
1, 2
7, 5
2, 2
0, 5
7, 3
3, 7
4, 8
9, 9
9, 9
16, 21
16, 16
16, 11
4, 11
20, 7
11, 16
11, 14
15, 19
31, 36
41, 42
47, 46
47, 62
48, 50
48, 36
30, 36
40, 47
66, 72
112, 117
200, 209
280, 316
371, 426
486, 512
520, 476
428, 477
331, 307
237, 214
150, 119
100, 86
40, 38
38, 37
35, 28
35, 39
29, 40
34, 44
34, 33
24, 33
26, 21
15, 20
19, 18
29, 27
43, 56
76, 77
136, 151
175, 220
272, 282
285, 286
269, 306
285, 268
219, 221
140, 147
123, 107
74, 71
42, 56
57, 47
63, 72
108, 84
132, 151
174, 208
232, 215
230, 223
235, 232
216, 223
159, 156
127, 157
118, 96
83, 87
91, 78
78, 68
67, 61
65, 61
58, 61
45, 54
32, 27
29, 24
27, 14
18, 16
17, 17
3, 12
9, 8
8, 8
9, 5
8, 8
8, 7
15, 16
13, 21
21, 23
28, 22
26, 30
40, 30
29, 34
30, 16
19, 27
17, 19
11, 14
8, 16
7, 9
15, 16
20, 24
50, 58
95, 101
142, 170
206, 218
281, 319
343, 370
365, 367
371, 335
317, 295
256, 228
169, 140
96, 93
63, 64
41, 25
32, 30
31, 26
39, 43
36, 47
41, 56
56, 72
51, 68
68, 56
38, 69
46, 43
27, 22
18, 17
24, 9
19, 13
22, 12
29, 11
19, 17
19, 11
28, 4
19, 17
22, 20
16, 15
21, 28
44, 32
42, 52
56, 64
62, 68
69, 77
49, 64
44, 57
48, 50
27, 44
35, 29
27, 25
18, 21
16, 21
19, 22
19, 16
23, 8
14, 15
12, 5
14, 11
17, 16
20, 18
21, 24
15, 34
12, 25
16, 26
21, 16
17, 21
14, 12
15, 16
10, 16
6, 7
6, 6
8, 15
4, 15
10, 15
13, 16
14, 13
22, 20
19, 22
30, 25
18, 23
28, 29
29, 42
37, 46
30, 35
26, 31
31, 28
22, 23
17, 26
15, 13
10, 18
10, 15
17, 11
9, 11
14, 5
11, 16
14, 27
18, 24
17, 29
26, 43
32, 45
45, 64
57, 45
50, 63
43, 54
45, 38
37, 33
36, 30
22, 29
18, 12
18, 15
18, 13
17, 19
27, 28
41, 64
69, 122
137, 210
232, 305
382, 461
695, 814
975, 1209
1337, 1621
1704, 1898
1801, 2134
2053, 2210
1905, 1962
1600, 1673
1470, 1261
934, 858
729, 594
405, 335
236, 214
158, 107
71, 63
45, 41
29, 25
21, 14
24, 24
20, 13
19, 18
19, 21
18, 19
23, 22
25, 40
50, 52
63, 81
102, 128
122, 156
176, 231
221, 270
236, 332
262, 341
293, 314
277, 263
248, 242
192, 183
155, 107
90, 94
70, 40
41, 35
17, 28
15, 15
13, 7
12, 6
5, 7
7, 6
6, 10
13, 13
15, 19
15, 8
10, 13
16, 8
8, 9
13, 13
10, 8
5, 5
7, 8
4, 6
6, 6
4, 4
8, 6
5, 2
6, 8
6, 6
6, 5
10, 4
10, 9
9, 9
7, 5
8, 13
2, 3
5, 3
11, 3
6, 9
5, 7
7, 13
8, 12
12, 9
11, 11
5, 8
9, 5
3, 14
10, 5
5, 11
9, 2
4, 0
10, 2
6, 5
8, 2
7, 4
2, 5
6, 9
6, 8
15, 8
8, 14
7, 9
5, 11
11, 12
9, 11
8, 12
12, 11
6, 15
8, 8
9, 5
9, 8
7, 6
2, 6
4, 10
5, 8
7, 5
7, 3
3, 4
9, 9
6, 8
5, 7
3, 3
6, 9
6, 10
6, 4
7, 7
3, 7
6, 5
4, 3
2, 8
9, 6
3, 4
5, 7
3, 5
3, 14
4, 2
7, 3
9, 7
5, 5
8, 5
6, 3
5, 8
2, 11
3, 7
4, 6
5, 7
2, 5
2, 6
7, 9
9, 8
4, 7
6, 1
5, 5
3, 7
5, 5
7, 4
9, 2
5, 3
4, 1
1, 3
4, 4
5, 2
0, 5
5, 3
5, 3
0, 8
8, 3
1, 6
2, 4
4, 3
5, 3
7, 1
0, 1
5, 3
4, 1
4, 6
3, 5
1, 5
5, 3
2, 5
5, 4
4, 4
2, 2
4, 3
3, 5
2, 4
2, 2
4, 2
1, 6
2, 5
4, 2
3, 2
3, 6
7, 6
1, 2
3, 4
7, 2
3, 3
2, 2
6, 1
7, 6
2, 3
5, 2
1, 0
4, 4
2, 2
1, 4
5, 1
3, 6
5, 3
2, 2
2, 3
2, 3
1, 1
5, 5
2, 3
3, 2
7, 0
2, 3
3, 4
0, 1
2, 3
2, 5
6, 2
1, 2
5, 1
0, 1
4, 3
2, 3
4, 2
2, 4
2, 1
1, 2
1, 2
2, 2
2, 1
3, 2
2, 3
5, 1
1, 4
1, 2
3, 2
4, 1
3, 1
2, 3
2, 3
3, 3
2, 0
4, 4
1, 1
2, 3
3, 2
1, 0
6, 5
1, 4
0, 2
2, 1
3, 1
2, 6
4, 7
1, 5
2, 1
2, 1
3, 2
4, 0
2, 2
0, 1
4, 3
1, 2
0, 1
1, 0
0, 1
1, 4
0, 3
1, 1
1, 1
3, 0
7, 2
4, 3
2, 5
4, 5
1, 1
3, 3
4, 7
3, 3
2, 2
3, 0
2, 1
0, 2
2, 0
2, 2
2, 1
1, 3
4, 2
1, 0
3, 4
0, 4
2, 5
0, 1
1, 0
0, 2
0, 2
1, 1
1, 3
0, 1
1, 3
2, 3
2, 0
2, 3
0, 3
2, 2
2, 2
0, 2
0, 4
1, 0
1, 1
2, 2
1, 0
0, 0
0, 0
0, 2
2, 1
3, 2
1, 2
0, 2
1, 1
2, 1
1, 0
1, 1
2, 0
0, 2
0, 2
1, 4
0, 0
3, 1
1, 0
2, 2
0, 0
1, 1
0, 1
0, 0
1, 1
1, 1
1, 3
1, 2
0, 1
0, 2
0, 0
0, 2
0, 1
1, 2
1, 0
0, 1
1, 1
0, 0
0, 0
0, 1
0, 1
1, 0
1, 0
1, 1
0, 0
2, 3
1, 2
0, 0
0, 2
1, 0
2, 1
1, 1
0, 1
0, 2
1, 1
0, 0
0, 1
1, 1
3, 2
0, 0
0, 0
1, 3
0, 0
0, 2
2, 0
1, 0
1, 2
0, 0
0, 0
0, 0
0, 0
1, 1
1, 0
0, 2
1, 0
0, 0
1, 2
1, 1
0, 1
1, 0
0, 1
1, 2
0, 0
1, 1
0, 0
2, 1
1, 0
0, 0
0, 1
3, 0
0, 1
0, 0
0, 0
0, 0
0, 1
1, 1
0, 1
1, 0
0, 1
0, 0
0, 0
1, 0
0, 0
2, 0
0, 2
1, 0
0, 0
0, 2
0, 1
0, 0
0, 0
0, 2
1, 0
0, 0
1, 2
0, 0
1, 0
1, 0
0, 1
0, 0
1, 1
0, 1
0, 0
0, 1
0, 1
0, 0
0, 1
0, 1
0, 0
0, 0
0, 1
0, 0
1, 0
0, 0
0, 2
0, 0
0, 1
1, 0
1, 1
0, 1
0, 1
0, 0
0, 0
0, 1
0, 0
0, 0
0, 0
0, 1
0, 0
1, 0
0, 0
1, 0
0, 1
0, 0
0, 0
0, 0
2, 0
0, 0
1, 0
0, 1
0, 0
0, 0
0, 0
0, 0
0, 1
0, 0
0, 0
0, 0
0, 1
0, 0
1, 1
1, 0
0, 0
0, 1
1, 0
0, 0
0, 0
0, 0
0, 0
0, 0
0, 0
0, 0
1, 0
0, 1
0, 0
0, 0
0, 1
0, 0
0, 0
0, 0
0, 1
1, 0
1, 0
0, 0
0, 0
0, 0
0, 0
0, 0
0, 0
0, 1
1, 0
0, 0
0, 0
1, 0
0, 0
1, 0
0, 0
0, 0
0, 0
1, 0
0, 1
1, 0
0, 1
0, 0
0, 0
0, 0
1, 0
0, 0
0, 0
1, 1
1, 0
0, 0
1, 1
0, 1
1, 0
0, 0
0, 0
0, 0
0, 0
0, 1
0, 1
1, 0
0, 0
0, 0
0, 0
0, 1
1, 0
1, 0
0, 0
0, 0
0, 0
1, 0
0, 0
0, 0
0, 0
0, 0
0, 0
0, 0
1, 0
0, 1
0, 0
0, 1
0, 0
0, 0
0, 0
0, 0
0, 1
0, 0
0, 0
0, 0
0, 0
0, 0
0, 0
1, 0
0, 0
0, 0
0, 0
0, 0
0, 0
1, 2
0, 0
0, 0
0, 1
0, 0
0, 0
0, 0
0, 0
0, 1
0, 0
1, 0
0, 0
0, 0
0, 0
0, 1
0, 0
0, 0
0, 0
0, 0
1, 0
0, 0
0, 0
0, 0
0, 0
0, 1
0, 0
0, 0
0, 0
1, 0
0, 0
0, 1
0, 0
0, 1
0, 1
0, 0
0, 0
0, 0
0, 0
0, 0
0, 0
0, 0
0, 0
1, 0
1, 1
1, 0
0, 0
1, 0
0, 0
0, 0
0, 0
1, 0
1, 0
0, 0
0, 0
0, 0
0, 0
0, 0
0, 0
0, 0
0, 0
0, 0
0, 0
0, 0
0, 0
0, 0
0, 0
0, 0
0, 0
1, 0
0, 0
0, 0
0, 0
0, 0
0, 0
0, 0
0, 0
0, 0
0, 0
0, 0
0, 0
0, 0
0, 0
0, 0
0, 0
0, 0
0, 0
0, 0
0, 0
0, 0
0, 0
0, 0
0, 0
0, 0
0, 0
0, 0
0, 0
0, 0
0, 0
0, 0
0, 0
1, 0
0, 0
0, 0
0, 0
0, 0
0, 0
0, 0
0, 0
0, 0
0, 0
0, 0
0, 0
0, 0
0, 0
0, 0
0, 0
0, 0
0, 0
0, 0
0, 0
0, 0
0, 0
0, 0
0, 0
0, 0
0, 0
0, 0
0, 0
0, 0
0, 0
0, 0
0, 0
0, 0
0, 0
0, 0
0, 0
0, 0
0, 0
0, 0
0, 0
0, 0
0, 0
0, 0
0, 0
0, 0
0, 0
0, 0
0, 0
1, 0
0, 0
0, 0
0, 0
0, 0
0, 0
0, 0
0, 0
0, 0
0, 0
0, 0
0, 0
0, 0
0, 0
0, 0
0, 0
0, 0
0, 0
0, 0
0, 0
0, 0
0, 0
0, 0
0, 0
0, 0
0, 0
0, 0
0, 0
0, 0
0, 0
0, 0
0, 0
0, 0
0, 0
0, 0
0, 0
0, 0
0, 0
0, 0
0, 0
0, 0
0, 0
0, 0
0, 0
0, 0
0, 0
0, 0
0, 0
0, 0
0, 0
0, 0
0, 0
0, 0
0, 0
0, 0
0, 0
0, 0
0, 0
0, 0
0, 0
0, 0
0, 0
0, 0
0, 0
0, 0
0, 0
0, 0
0, 0
0, 0
0, 0
0, 0
0, 0
0, 0
0, 0
0, 0
0, 0
0, 0
0, 0
0, 0
0, 0
0, 0
0, 0
0, 0
0, 0
0, 0
0, 0
0, 0
0, 0
0, 0
0, 0
0, 0
0, 0
0, 0
0, 0
0, 0
0, 0
0, 0
0, 0
0, 0
0, 0
0, 0
0, 0
0, 0
0, 0
0, 0
0, 0
0, 0
0, 0
0, 0
0, 0
0, 0
0, 0
0, 0
0, 0
0, 0
0, 0
0, 0
0, 0
0, 0
0, 0
0, 0
0, 0
0, 0
0, 0
0, 0
0, 0
0, 0
0, 0
0, 0
0, 0
0, 0
0, 0
0, 0
0, 0
0, 0
0, 0
0, 0
0, 0
0, 0
0, 0
0, 0
0, 0
0, 0
0, 0
0, 0
0, 0
0, 0
0, 0
0, 0
0, 0
0, 0
0, 0
0, 0
0, 0
0, 0
0, 0
0, 0
0, 0
0, 0
0, 0
0, 0
0, 0
0, 0
0, 0
0, 0
0, 0
0, 0
0, 0
0, 0
0, 0
0, 0
0, 0
0, 0
0, 0
0, 0
0, 0
0, 0
0, 0
0, 0
0, 0
0, 0
0, 0
0, 0
0, 0
0, 0
0, 0
0, 0
0, 0
0, 0
0, 0
0, 0
0, 0
0, 0
0, 0
0, 0
0, 0
0, 0
0, 0
0, 0
0, 0
0, 0
0, 0
0, 0
0, 0
0, 0
0, 0
0, 0
0, 0
0, 0
0, 0
0, 0
0, 0
0, 0
0, 0
0, 0
0, 0
0, 0
0, 0
0, 0
0, 0
0, 0
0, 0
0, 0
0, 0
0, 0
0, 0
0, 0
0, 0
0, 0
0, 0
0, 0
0, 0
0, 0
0, 0
0, 0
0, 0
0, 0
0, 0
0, 0
0, 0
0, 0
0, 0
0, 0
0, 0
0, 0
0, 0
0, 0
0, 0
0, 0
0, 0
0, 0
0, 0
0, 0
0, 0
0, 0
0, 0
0, 0
0, 0
0, 0
0, 0
0, 0
0, 0
0, 0
0, 0
0, 0
0, 0
0, 0
0, 0
0, 0
0, 0
0, 0
0, 0
0, 0
0, 0
0, 0
0, 0
0, 0
0, 0
0, 0
0, 0
0, 0
0, 0
0, 0
0, 0
0, 0
0, 0
0, 0
0, 0
0, 0
0, 0
0, 0
0, 0
0, 0
0, 0
0, 0
0, 0
0, 0
0, 0
0, 0
0, 0
0, 0
0, 0
0, 0
0, 0
0, 0
0, 0
0, 0
0, 0
0, 0
0, 0
0, 0
0, 0
0, 0
0, 0
0, 0
0, 0
0, 0
0, 0
0, 0
0, 0
0, 0
0, 0
0, 0
0, 0
0, 0
0, 0
0, 0
0, 0
0, 0
0, 0
0, 0
0, 0
0, 0
0, 0
0, 0
0, 0
0, 0
0, 0
0, 0
0, 0
0, 0
0, 0
0, 0
0, 0
0, 0
0, 0
0, 0
0, 0
0, 0
0, 0
0, 0
0, 0
0, 0
0, 0
0, 0
0, 0
0, 0
0, 0
0, 0
0, 0
0, 0
0, 0
0, 0
0, 0
0, 0
0, 0
0, 0
0, 0
0, 0
0, 0
#ENDOFDATA     end of spectrum data