File: host_upload/02-11-2024/rqc/uplink1/ps__0567_0717304816_000rfs_shot_26.msa
#FORMAT      : EMSA/MAS spectral data file
#VERSION     : TC202v2.0 PIXL
#TITLE       : Novarupta (sol567) subset1
#DATE        : 02-11-2024      Date in the format DD-MMM-YYYY, for example 07-JUL-2010
#TIME        :             The time of day at which the spectrum was recorded, in 24-hour format
#OWNER       : PIXL Flight Model       (PIXL will use this to indicate which instrument took the data.)
#NPOINTS     : 4096     Number of data points in the spectrum (This can be zero for configuration only files)
#NCOLUMNS    : 2     Number of data columns in the spectrum (This can be zero for configuration only files)
#XUNITS      : eV
#YUNITS      : COUNTS
#DATATYPE    : YY
#XPERCHAN    : 7.862, 7.881   eV per channel (separate by commas if more than one detector)
#OFFSET      : 18.5, -22.4         eV of first channel  (separate by commas if more than one detector
#SIGNALTYPE  : XRF
#YP_TEMP     : -4.243
#LIVETIME    : 8.83516, 8.83037   seconds (separate by commas if more than one detector)
#REALTIME    : 10, 10.0   seconds (separate by commas if more than one detector)
#SPECTRUM    : start of spectrum data
0, 0
0, 0
0, 0
0, 0
0, 0
0, 0
0, 0
0, 0
0, 0
0, 0
0, 0
0, 0
0, 0
0, 0
0, 0
0, 0
0, 0
0, 0
0, 0
0, 0
0, 0
0, 0
0, 0
0, 0
0, 0
0, 0
0, 0
0, 0
0, 0
0, 0
0, 0
0, 2
0, 1
0, 1
2, 0
2, 1
3, 2
2, 3
5, 5
1, 5
4, 2
3, 4
1, 6
2, 3
3, 2
2, 3
4, 0
5, 2
3, 4
1, 8
7, 11
15, 8
17, 12
21, 15
18, 18
20, 21
14, 10
11, 9
15, 9
13, 12
20, 20
36, 29
35, 45
57, 40
51, 41
47, 34
37, 29
53, 48
54, 50
83, 84
146, 133
222, 245
309, 363
409, 447
492, 527
417, 514
390, 399
309, 340
213, 221
137, 117
95, 86
53, 42
27, 34
29, 29
35, 27
42, 32
45, 41
34, 32
29, 29
22, 17
15, 10
27, 19
26, 38
48, 72
98, 102
149, 174
198, 244
257, 320
299, 306
266, 286
267, 265
174, 204
145, 123
101, 91
66, 67
75, 62
62, 61
84, 90
122, 139
142, 158
163, 189
215, 219
226, 221
226, 230
190, 174
156, 162
132, 125
108, 103
90, 100
93, 94
75, 78
65, 76
61, 63
52, 58
35, 46
39, 32
32, 37
26, 12
16, 16
18, 15
9, 12
7, 11
6, 8
7, 8
11, 14
12, 8
12, 10
11, 16
17, 20
24, 29
26, 24
36, 20
27, 28
21, 25
23, 23
18, 21
10, 15
11, 15
16, 20
19, 22
40, 44
80, 87
123, 144
204, 211
234, 308
314, 383
336, 365
367, 367
312, 359
248, 279
218, 206
134, 138
89, 73
52, 51
44, 29
29, 41
32, 37
31, 44
47, 47
71, 52
55, 68
47, 56
42, 59
48, 35
26, 39
24, 27
22, 13
6, 10
8, 13
10, 9
11, 10
4, 5
14, 10
10, 14
12, 11
16, 13
15, 24
33, 37
40, 45
43, 60
57, 54
59, 65
53, 59
57, 48
47, 44
43, 28
27, 37
29, 27
25, 25
8, 16
13, 12
11, 14
12, 12
9, 18
14, 15
16, 17
19, 23
11, 22
19, 19
18, 24
17, 22
15, 15
16, 25
19, 17
16, 16
13, 16
11, 9
13, 10
8, 8
14, 7
15, 10
14, 8
16, 16
14, 17
18, 13
20, 17
20, 30
29, 29
24, 26
34, 25
34, 27
17, 24
21, 24
22, 22
16, 18
22, 18
19, 15
10, 11
14, 17
10, 19
9, 12
17, 11
16, 15
16, 8
23, 15
26, 25
29, 34
38, 40
42, 54
51, 63
44, 49
51, 35
42, 60
19, 40
26, 26
23, 24
23, 11
21, 15
25, 16
20, 23
20, 25
38, 51
84, 96
121, 181
221, 289
389, 441
607, 740
856, 1009
1196, 1282
1407, 1580
1597, 1739
1638, 1850
1638, 1684
1431, 1459
1150, 1080
900, 763
592, 599
375, 341
245, 201
160, 107
55, 61
54, 48
18, 16
19, 24
11, 22
13, 14
26, 12
20, 20
24, 24
15, 26
34, 39
48, 49
53, 84
99, 100
126, 148
175, 191
198, 192
234, 241
249, 259
246, 256
237, 229
189, 227
183, 168
117, 127
93, 87
55, 46
43, 41
28, 17
18, 9
11, 9
4, 14
9, 8
13, 20
10, 13
12, 8
12, 7
14, 12
8, 13
12, 13
10, 15
7, 3
6, 8
5, 10
6, 8
3, 10
8, 10
7, 7
8, 11
5, 13
5, 7
6, 6
6, 5
4, 8
6, 7
10, 6
4, 11
4, 4
3, 6
8, 3
4, 4
7, 5
6, 8
12, 7
6, 9
8, 12
4, 8
7, 3
2, 4
5, 3
11, 10
10, 7
12, 7
2, 10
3, 10
5, 6
2, 6
9, 8
10, 8
6, 9
6, 8
12, 8
9, 5
10, 11
8, 11
8, 10
14, 14
10, 7
9, 10
12, 9
10, 6
7, 9
7, 4
11, 10
6, 6
6, 6
6, 7
5, 4
9, 6
6, 10
10, 8
3, 4
7, 6
4, 4
6, 9
2, 4
7, 3
3, 6
8, 9
3, 5
6, 3
4, 7
3, 6
7, 1
0, 6
4, 8
3, 2
5, 6
9, 5
6, 6
5, 2
5, 5
7, 8
4, 5
2, 6
5, 7
7, 6
8, 6
5, 4
6, 7
5, 5
1, 9
6, 4
4, 7
6, 2
4, 5
2, 6
5, 4
4, 3
5, 2
8, 8
4, 6
3, 5
5, 8
2, 5
5, 2
1, 1
5, 3
4, 3
8, 5
3, 3
4, 3
4, 7
4, 1
2, 3
1, 3
9, 4
5, 3
2, 5
7, 7
4, 1
1, 2
2, 3
1, 3
6, 8
4, 3
2, 4
3, 8
1, 4
3, 4
5, 2
3, 2
2, 3
8, 2
4, 3
5, 6
3, 3
1, 4
6, 1
2, 2
0, 3
4, 5
3, 2
5, 5
3, 5
2, 6
3, 1
4, 6
5, 1
3, 2
2, 2
4, 2
3, 5
2, 2
2, 0
1, 4
2, 1
4, 3
3, 3
4, 3
2, 3
4, 3
3, 0
3, 1
4, 2
4, 5
1, 5
2, 3
3, 2
5, 0
4, 2
2, 2
5, 2
2, 4
0, 1
1, 1
2, 1
2, 0
2, 3
1, 2
5, 3
5, 1
3, 4
2, 1
1, 5
3, 3
2, 2
1, 5
0, 2
2, 2
6, 2
1, 3
2, 1
2, 3
1, 2
2, 6
3, 2
3, 3
2, 4
3, 1
2, 2
4, 3
0, 1
0, 1
3, 2
0, 3
2, 0
5, 0
3, 2
0, 4
3, 2
0, 1
2, 1
3, 2
5, 1
5, 4
3, 4
1, 3
2, 3
5, 4
1, 1
3, 1
2, 3
2, 3
5, 2
1, 1
1, 2
1, 3
2, 4
0, 2
0, 5
2, 2
3, 1
2, 1
2, 0
1, 1
1, 0
2, 1
1, 2
0, 6
0, 1
1, 1
3, 1
0, 2
0, 2
0, 7
2, 2
1, 3
1, 2
2, 0
4, 0
0, 2
3, 4
1, 1
1, 2
2, 2
2, 3
3, 3
1, 2
1, 0
3, 0
2, 1
1, 0
1, 0
4, 2
0, 0
2, 0
0, 1
0, 0
0, 4
0, 0
0, 2
1, 1
0, 1
4, 1
1, 2
2, 0
0, 1
0, 0
0, 3
0, 0
0, 0
1, 0
1, 1
3, 1
1, 0
1, 0
1, 0
1, 1
1, 1
0, 0
1, 0
0, 0
0, 0
3, 0
2, 0
1, 1
2, 3
1, 1
0, 1
0, 0
1, 0
2, 0
0, 0
0, 1
1, 0
1, 1
2, 0
0, 1
1, 0
1, 1
0, 0
0, 1
0, 0
0, 1
0, 1
1, 0
0, 0
2, 0
0, 1
1, 0
1, 1
1, 1
3, 0
1, 1
2, 1
0, 1
0, 2
0, 1
0, 2
1, 1
0, 0
1, 0
1, 0
1, 1
0, 2
0, 0
0, 1
0, 0
1, 1
0, 0
0, 0
1, 0
1, 0
0, 1
0, 0
0, 0
1, 1
1, 0
1, 1
0, 0
0, 0
0, 1
3, 0
0, 0
0, 0
1, 0
0, 3
0, 0
0, 0
3, 0
1, 0
0, 1
0, 0
0, 1
0, 0
0, 1
0, 1
1, 1
0, 0
1, 0
0, 0
0, 1
1, 0
0, 1
2, 0
0, 0
1, 0
0, 1
0, 0
0, 0
2, 2
0, 0
0, 0
1, 0
0, 0
0, 1
1, 1
0, 0
0, 1
0, 0
1, 0
0, 0
0, 0
0, 0
0, 0
0, 0
0, 0
0, 0
1, 0
1, 1
0, 0
0, 0
1, 0
1, 1
0, 1
0, 0
1, 0
1, 0
3, 0
0, 0
0, 1
0, 0
0, 1
0, 0
0, 0
0, 0
1, 0
0, 0
0, 0
0, 0
0, 1
0, 0
0, 0
0, 0
0, 0
0, 0
0, 0
1, 1
0, 0
1, 0
0, 0
0, 0
0, 0
0, 2
1, 0
0, 0
0, 0
0, 0
0, 0
0, 0
0, 0
0, 0
0, 0
0, 0
0, 0
0, 0
0, 0
0, 0
0, 0
0, 0
0, 0
0, 0
1, 0
0, 0
1, 1
0, 1
0, 0
0, 0
0, 0
0, 1
0, 0
0, 1
0, 0
0, 0
0, 0
0, 0
0, 0
0, 0
0, 0
0, 0
0, 0
0, 0
0, 0
0, 0
0, 0
0, 0
0, 2
0, 0
0, 0
0, 0
0, 2
1, 1
0, 0
2, 0
0, 0
1, 0
0, 2
0, 0
0, 0
1, 0
0, 0
0, 0
1, 0
0, 1
0, 0
0, 0
0, 0
2, 0
0, 0
0, 0
0, 0
2, 1
1, 0
0, 0
0, 0
0, 0
0, 1
0, 0
0, 0
0, 0
0, 1
0, 0
0, 0
0, 0
0, 0
0, 1
0, 0
0, 0
0, 0
0, 0
0, 0
0, 0
0, 0
0, 0
0, 0
1, 0
0, 1
1, 0
0, 0
0, 0
0, 0
1, 0
1, 0
0, 0
1, 0
1, 0
0, 0
0, 0
0, 0
0, 0
0, 0
0, 0
0, 0
0, 0
0, 0
1, 0
0, 0
0, 0
0, 0
0, 1
1, 1
0, 0
0, 0
0, 0
0, 0
0, 0
0, 0
0, 0
0, 0
0, 0
0, 0
0, 1
0, 0
0, 0
0, 0
0, 0
0, 0
0, 0
1, 0
1, 0
0, 0
0, 0
0, 0
0, 0
0, 0
0, 0
1, 0
0, 0
0, 0
0, 0
0, 0
0, 0
0, 0
0, 0
0, 0
0, 0
0, 1
0, 0
0, 0
0, 0
0, 0
0, 0
0, 0
0, 0
0, 0
0, 0
0, 0
0, 0
0, 0
0, 0
0, 0
0, 0
0, 0
0, 0
0, 0
0, 0
0, 0
0, 0
0, 0
0, 0
0, 0
0, 0
0, 0
0, 0
0, 0
0, 1
0, 0
0, 0
0, 0
0, 0
0, 0
0, 0
0, 0
0, 0
0, 0
0, 0
0, 0
0, 0
0, 0
0, 0
0, 0
0, 0
0, 0
0, 0
0, 0
0, 0
0, 1
0, 0
0, 0
0, 0
0, 1
0, 0
0, 0
0, 0
0, 0
0, 0
0, 0
0, 0
0, 0
0, 0
0, 0
0, 0
0, 0
0, 1
0, 0
0, 0
0, 0
0, 0
0, 0
0, 0
0, 0
0, 0
0, 0
0, 0
0, 0
0, 0
0, 0
0, 0
0, 0
0, 0
0, 0
0, 0
0, 0
0, 0
0, 0
0, 0
0, 0
0, 0
0, 0
0, 0
0, 0
0, 0
0, 0
0, 0
0, 0
0, 0
0, 0
0, 0
0, 0
0, 0
0, 0
0, 0
0, 0
1, 0
0, 0
0, 0
0, 0
0, 0
0, 0
0, 0
0, 0
0, 0
0, 0
0, 0
0, 0
0, 0
0, 0
0, 0
0, 0
0, 0
0, 0
0, 0
0, 0
0, 0
0, 0
0, 0
0, 0
0, 0
0, 0
0, 0
0, 0
0, 0
0, 0
0, 0
0, 0
0, 0
0, 0
0, 0
0, 0
0, 0
0, 0
0, 0
0, 0
0, 0
0, 0
0, 0
0, 0
0, 0
0, 0
0, 0
0, 0
0, 0
0, 0
0, 0
0, 0
0, 0
0, 0
0, 0
0, 0
0, 0
0, 0
0, 0
0, 0
0, 0
0, 0
0, 0
0, 0
0, 0
0, 0
0, 0
0, 0
0, 0
0, 0
0, 0
0, 0
0, 0
0, 0
0, 0
0, 0
0, 0
0, 0
0, 0
0, 0
0, 0
0, 0
0, 0
0, 0
0, 0
0, 0
0, 0
0, 0
0, 0
0, 0
0, 0
0, 0
0, 0
0, 0
0, 0
0, 0
0, 0
0, 0
0, 0
0, 0
0, 0
0, 0
0, 0
0, 0
0, 0
0, 0
0, 0
0, 0
0, 0
0, 0
0, 0
0, 0
0, 0
0, 0
0, 0
0, 0
0, 0
0, 0
0, 0
0, 0
0, 0
0, 0
0, 0
0, 0
0, 0
0, 0
0, 0
0, 0
0, 0
0, 0
0, 0
0, 0
0, 0
0, 0
0, 0
0, 0
0, 0
0, 0
0, 0
0, 0
0, 0
0, 0
0, 0
0, 0
0, 0
0, 0
0, 0
0, 0
0, 0
0, 0
0, 0
0, 0
0, 0
0, 0
0, 0
0, 0
0, 0
0, 0
0, 0
0, 0
0, 0
0, 0
0, 0
0, 0
0, 0
0, 0
0, 0
0, 0
0, 0
0, 0
0, 0
0, 0
0, 0
0, 0
0, 0
0, 0
0, 0
0, 0
0, 0
0, 0
0, 0
0, 0
0, 0
0, 0
0, 0
0, 0
0, 0
0, 0
0, 0
0, 0
0, 0
0, 0
0, 0
0, 0
0, 0
0, 0
0, 0
0, 0
0, 0
0, 0
0, 0
0, 0
0, 0
0, 0
0, 0
0, 0
0, 0
0, 0
0, 0
0, 0
0, 0
0, 0
0, 0
0, 0
0, 0
0, 0
0, 0
0, 0
0, 0
0, 0
0, 0
0, 0
0, 0
0, 0
0, 0
0, 0
0, 0
0, 0
0, 0
0, 0
0, 0
0, 0
0, 0
0, 0
0, 0
0, 0
0, 0
0, 0
0, 0
0, 0
0, 0
0, 0
0, 0
0, 0
0, 0
0, 0
0, 0
0, 0
0, 0
0, 0
0, 0
0, 0
0, 0
0, 0
0, 0
0, 0
0, 0
0, 0
0, 0
0, 0
0, 0
0, 0
0, 0
0, 0
0, 0
0, 0
0, 0
0, 0
0, 0
0, 0
0, 0
0, 0
0, 0
0, 0
0, 0
0, 0
0, 0
0, 0
0, 0
0, 0
0, 0
0, 0
0, 0
0, 0
0, 0
0, 0
0, 0
0, 0
0, 0
0, 0
0, 0
0, 0
0, 0
0, 0
0, 0
0, 0
0, 0
0, 0
0, 0
0, 0
0, 0
0, 0
0, 0
0, 0
0, 0
0, 0
0, 0
0, 0
0, 0
0, 0
0, 0
0, 0
0, 0
0, 0
0, 0
0, 0
0, 0
0, 0
0, 0
0, 0
0, 0
0, 0
0, 0
0, 0
0, 0
0, 0
0, 0
0, 0
0, 0
0, 0
0, 0
0, 0
0, 0
0, 0
0, 0
0, 0
0, 0
0, 0
0, 0
0, 0
0, 0
0, 0
0, 0
0, 0
0, 0
0, 0
0, 0
0, 0
0, 0
0, 0
0, 0
0, 0
0, 0
#ENDOFDATA     end of spectrum data