File: host_upload/02-11-2024/rqc/uplink1/ps__0567_0717304816_000rfs_shot_201.msa
#FORMAT      : EMSA/MAS spectral data file
#VERSION     : TC202v2.0 PIXL
#TITLE       : Novarupta (sol567) subset1
#DATE        : 02-11-2024      Date in the format DD-MMM-YYYY, for example 07-JUL-2010
#TIME        :             The time of day at which the spectrum was recorded, in 24-hour format
#OWNER       : PIXL Flight Model       (PIXL will use this to indicate which instrument took the data.)
#NPOINTS     : 4096     Number of data points in the spectrum (This can be zero for configuration only files)
#NCOLUMNS    : 2     Number of data columns in the spectrum (This can be zero for configuration only files)
#XUNITS      : eV
#YUNITS      : COUNTS
#DATATYPE    : YY
#XPERCHAN    : 7.862, 7.881   eV per channel (separate by commas if more than one detector)
#OFFSET      : 18.5, -22.4         eV of first channel  (separate by commas if more than one detector
#SIGNALTYPE  : XRF
#YP_TEMP     : 0.632
#LIVETIME    : 8.8531, 8.83208   seconds (separate by commas if more than one detector)
#REALTIME    : 10, 10.0   seconds (separate by commas if more than one detector)
#SPECTRUM    : start of spectrum data
0, 0
0, 0
0, 0
0, 0
0, 0
0, 0
0, 0
0, 0
0, 0
0, 0
0, 0
0, 0
0, 0
0, 0
0, 0
0, 0
0, 0
0, 0
0, 0
0, 0
0, 0
0, 0
0, 0
0, 0
0, 0
0, 0
0, 0
0, 0
0, 0
0, 0
0, 0
0, 0
0, 1
0, 2
0, 2
0, 2
1, 3
1, 1
4, 1
2, 2
1, 2
1, 4
2, 3
2, 2
2, 5
1, 3
4, 3
3, 5
3, 4
3, 3
7, 8
9, 8
10, 12
12, 13
11, 16
16, 17
12, 16
11, 11
17, 12
8, 14
18, 14
22, 28
35, 36
31, 49
37, 51
53, 40
32, 44
26, 26
34, 32
50, 65
99, 121
169, 197
297, 299
397, 453
468, 422
438, 527
395, 436
340, 335
212, 225
132, 144
86, 67
44, 48
40, 34
31, 41
40, 28
25, 36
28, 49
30, 36
21, 13
24, 30
19, 13
16, 16
36, 30
40, 40
67, 94
129, 158
168, 194
238, 256
270, 293
285, 289
256, 271
210, 201
128, 171
81, 99
58, 77
46, 52
54, 53
60, 73
86, 86
116, 115
165, 162
177, 219
206, 230
190, 190
190, 202
147, 142
125, 122
101, 103
90, 86
69, 81
79, 87
61, 79
50, 63
50, 62
35, 52
33, 33
24, 35
24, 26
14, 20
15, 20
10, 11
5, 13
3, 9
7, 8
6, 7
13, 12
11, 16
14, 13
18, 10
10, 19
21, 32
23, 36
22, 30
21, 23
22, 12
24, 21
13, 11
8, 16
5, 8
19, 20
26, 40
48, 65
80, 112
129, 180
222, 257
269, 323
329, 323
344, 357
353, 369
285, 294
222, 238
171, 161
91, 95
67, 64
29, 32
24, 26
24, 20
30, 40
37, 56
61, 56
48, 49
48, 69
53, 57
34, 41
32, 37
27, 25
18, 11
14, 14
6, 13
3, 9
8, 7
5, 4
8, 11
8, 7
22, 9
17, 13
14, 18
24, 31
23, 27
48, 37
49, 55
52, 54
61, 53
59, 68
48, 47
53, 42
35, 30
35, 29
17, 22
18, 16
28, 9
14, 11
16, 10
14, 13
17, 11
10, 7
9, 16
8, 15
16, 16
12, 20
22, 28
20, 21
26, 19
11, 12
15, 9
15, 9
11, 10
8, 11
9, 14
7, 6
9, 8
10, 11
12, 14
14, 9
15, 15
11, 16
16, 24
24, 30
30, 35
31, 27
30, 28
35, 36
23, 24
28, 30
26, 27
19, 10
13, 14
12, 18
10, 10
7, 14
5, 7
13, 11
11, 15
10, 10
14, 21
11, 16
15, 20
36, 37
38, 39
35, 46
51, 51
42, 49
37, 41
40, 57
37, 36
31, 30
32, 28
28, 17
14, 16
22, 22
23, 21
39, 36
36, 46
62, 84
117, 143
203, 269
392, 469
575, 723
850, 992
1136, 1358
1384, 1661
1650, 1823
1706, 1762
1672, 1603
1388, 1287
1098, 998
828, 780
569, 497
356, 298
190, 158
116, 101
69, 55
29, 31
22, 18
11, 15
20, 21
22, 17
19, 11
13, 13
20, 26
21, 20
24, 45
52, 49
65, 67
80, 112
124, 129
151, 166
182, 221
185, 286
239, 278
279, 229
250, 221
238, 169
162, 141
128, 115
75, 76
45, 57
38, 28
22, 20
14, 9
14, 7
5, 4
9, 6
12, 5
9, 11
16, 8
12, 15
14, 12
8, 14
14, 16
14, 16
6, 7
6, 15
4, 10
10, 8
4, 4
5, 9
3, 6
5, 8
1, 10
6, 8
8, 8
3, 5
6, 5
6, 8
4, 8
4, 9
4, 4
7, 10
5, 6
3, 7
11, 10
12, 4
6, 8
5, 4
6, 8
5, 9
6, 6
10, 8
7, 6
5, 10
5, 4
6, 11
8, 5
11, 5
10, 4
10, 7
5, 5
5, 10
6, 5
9, 9
4, 6
7, 7
10, 10
9, 16
15, 11
10, 10
8, 12
9, 9
5, 11
10, 8
12, 10
8, 5
7, 1
9, 8
4, 7
7, 7
4, 6
11, 2
9, 7
1, 5
7, 4
5, 8
7, 5
8, 5
7, 7
3, 5
6, 8
2, 6
6, 4
7, 7
3, 5
5, 9
3, 1
3, 5
7, 5
4, 7
4, 2
2, 3
5, 7
8, 12
5, 8
2, 7
5, 7
1, 3
3, 5
6, 7
2, 4
5, 4
2, 7
1, 8
4, 7
5, 0
4, 5
3, 5
4, 5
2, 3
3, 3
6, 5
5, 2
5, 4
2, 3
3, 7
4, 4
4, 2
5, 11
3, 4
6, 9
6, 5
5, 1
2, 6
4, 8
6, 3
6, 4
3, 4
6, 6
1, 8
9, 4
1, 4
1, 0
2, 3
5, 3
1, 3
2, 5
5, 3
2, 4
3, 4
4, 4
5, 6
3, 7
3, 2
6, 2
4, 5
3, 0
3, 2
5, 3
8, 2
4, 3
8, 5
3, 2
2, 1
5, 1
3, 0
3, 0
0, 4
0, 3
2, 2
0, 3
2, 2
6, 4
3, 7
3, 3
3, 1
2, 3
1, 3
2, 6
2, 4
2, 4
5, 2
3, 6
2, 1
2, 3
4, 3
1, 2
2, 2
2, 4
4, 0
2, 2
5, 2
1, 1
3, 3
1, 2
2, 4
1, 3
1, 0
0, 4
3, 8
5, 3
5, 1
3, 3
1, 1
4, 0
5, 3
2, 3
1, 2
2, 2
3, 1
4, 4
3, 1
2, 2
2, 2
1, 1
1, 3
1, 5
2, 0
3, 0
1, 1
2, 3
2, 2
4, 3
1, 0
1, 1
2, 2
4, 1
4, 3
3, 2
2, 2
0, 0
3, 4
0, 4
1, 3
1, 4
1, 2
5, 2
2, 1
0, 2
2, 1
3, 2
0, 2
4, 0
1, 3
3, 2
2, 2
2, 5
4, 1
3, 2
6, 2
5, 4
2, 5
2, 0
2, 3
1, 1
2, 3
0, 4
0, 0
2, 2
1, 1
2, 2
0, 2
2, 1
0, 1
1, 1
3, 1
1, 4
2, 4
2, 1
0, 2
5, 2
5, 2
3, 0
2, 1
0, 1
2, 4
4, 2
2, 1
2, 0
0, 0
1, 2
0, 1
1, 3
4, 1
0, 1
0, 2
2, 0
0, 1
2, 0
3, 2
1, 0
3, 1
3, 2
1, 0
1, 0
2, 2
0, 0
1, 0
0, 2
0, 1
2, 2
3, 3
0, 2
2, 2
0, 1
0, 1
0, 3
0, 2
0, 2
0, 0
1, 0
0, 3
3, 0
1, 0
2, 0
0, 1
2, 4
1, 0
1, 4
0, 2
2, 1
3, 0
2, 1
0, 3
0, 1
0, 2
0, 2
0, 0
0, 0
2, 0
1, 1
0, 0
2, 1
1, 0
1, 0
0, 0
0, 1
1, 0
2, 0
0, 1
0, 0
1, 2
0, 1
0, 1
2, 2
1, 1
1, 0
1, 0
4, 0
0, 1
1, 1
1, 1
1, 0
1, 0
0, 0
1, 1
1, 1
1, 0
2, 1
2, 0
1, 0
0, 0
2, 1
1, 1
1, 0
1, 0
0, 0
1, 0
1, 0
1, 0
0, 0
1, 2
0, 0
1, 0
0, 0
1, 2
0, 1
0, 0
1, 0
0, 0
1, 1
0, 0
0, 0
0, 0
0, 0
0, 0
0, 0
1, 0
0, 1
1, 0
1, 1
0, 0
0, 1
0, 0
0, 0
0, 0
1, 0
0, 0
0, 0
0, 1
0, 2
0, 0
0, 0
0, 0
2, 0
0, 0
0, 0
0, 0
0, 0
0, 0
1, 2
1, 1
2, 1
0, 0
1, 0
0, 1
0, 0
0, 0
0, 0
2, 1
1, 1
0, 0
0, 0
0, 0
0, 0
0, 0
2, 0
1, 0
0, 0
0, 0
0, 0
1, 0
2, 0
0, 0
0, 0
0, 2
0, 0
0, 1
0, 1
0, 0
0, 0
0, 2
0, 0
1, 0
1, 0
1, 0
1, 0
0, 0
0, 0
0, 0
0, 2
0, 0
1, 1
0, 0
1, 0
0, 0
0, 0
0, 0
1, 0
0, 0
0, 1
0, 0
0, 2
1, 0
0, 1
0, 0
0, 0
0, 1
0, 1
1, 0
0, 1
2, 0
0, 0
0, 0
1, 0
0, 0
0, 0
0, 0
0, 0
1, 0
0, 0
1, 1
1, 0
0, 0
0, 1
0, 0
0, 1
0, 0
0, 0
0, 1
1, 0
1, 2
0, 0
1, 0
0, 0
0, 1
0, 0
0, 0
1, 0
0, 0
1, 0
0, 1
1, 0
0, 1
0, 1
0, 0
1, 0
0, 0
0, 0
0, 0
0, 0
0, 0
0, 0
0, 0
0, 0
0, 0
0, 0
0, 1
0, 0
0, 0
0, 0
0, 0
1, 0
0, 2
0, 0
1, 0
0, 0
0, 1
0, 0
0, 1
0, 0
0, 0
0, 0
0, 0
0, 0
0, 0
0, 1
0, 0
0, 0
0, 0
0, 0
0, 0
0, 0
0, 0
0, 0
0, 1
0, 0
0, 0
0, 0
0, 0
1, 0
0, 1
1, 0
0, 0
1, 0
0, 1
0, 0
0, 0
0, 0
1, 0
0, 0
0, 0
0, 0
0, 0
0, 0
0, 0
0, 0
0, 0
0, 0
0, 1
0, 0
0, 1
0, 0
0, 0
0, 0
0, 0
0, 0
0, 0
0, 0
0, 0
0, 0
0, 1
0, 0
0, 0
1, 0
0, 0
0, 0
0, 0
0, 0
0, 0
0, 0
0, 0
0, 0
0, 0
1, 0
0, 0
0, 0
0, 1
0, 0
1, 0
0, 0
0, 0
0, 0
0, 0
0, 0
0, 0
0, 0
0, 0
0, 0
0, 0
0, 1
0, 0
0, 0
0, 0
0, 0
0, 0
0, 0
0, 0
0, 0
0, 0
0, 0
0, 0
1, 0
1, 0
0, 0
0, 0
0, 0
0, 0
0, 0
0, 0
0, 0
0, 0
1, 0
0, 0
0, 0
0, 0
0, 0
0, 0
0, 0
0, 0
0, 0
0, 0
0, 0
0, 0
0, 0
0, 0
0, 0
0, 0
0, 0
0, 0
0, 0
0, 0
0, 0
0, 0
0, 1
0, 0
0, 0
0, 0
0, 0
0, 0
0, 0
0, 0
0, 0
0, 0
1, 0
0, 0
0, 0
0, 0
0, 0
0, 0
0, 0
0, 0
0, 0
0, 0
0, 0
0, 0
0, 0
0, 0
0, 0
0, 0
0, 0
0, 0
0, 0
0, 0
0, 0
0, 0
0, 0
0, 0
0, 0
0, 0
0, 0
0, 0
0, 0
0, 0
0, 0
0, 0
0, 0
0, 0
0, 0
0, 0
0, 0
0, 0
0, 0
0, 0
0, 0
0, 0
0, 0
0, 0
0, 0
0, 0
0, 0
0, 0
0, 0
1, 0
0, 0
0, 0
0, 0
0, 0
0, 0
0, 0
0, 0
0, 0
0, 0
0, 0
0, 0
0, 0
0, 0
0, 0
0, 0
0, 0
0, 0
0, 0
0, 0
0, 0
0, 0
0, 0
0, 0
0, 0
0, 0
0, 0
0, 0
0, 0
0, 0
0, 0
0, 0
0, 0
0, 0
0, 0
0, 0
0, 0
0, 0
0, 0
0, 0
0, 0
0, 0
0, 0
0, 0
0, 0
0, 0
0, 1
0, 0
0, 0
0, 0
0, 0
0, 0
0, 0
0, 0
0, 0
0, 0
0, 0
0, 0
0, 0
0, 0
0, 0
0, 0
0, 0
0, 0
0, 0
0, 0
0, 0
0, 0
0, 0
0, 0
0, 0
0, 0
0, 0
0, 0
0, 0
0, 0
0, 0
0, 0
0, 0
0, 0
0, 0
0, 0
0, 0
0, 0
1, 0
0, 0
0, 0
0, 0
0, 0
0, 0
0, 0
0, 0
0, 0
0, 0
0, 1
0, 0
0, 0
0, 0
0, 0
0, 0
0, 0
0, 0
0, 0
0, 0
0, 0
0, 0
0, 0
0, 0
0, 0
0, 0
0, 0
0, 0
0, 0
0, 0
0, 0
0, 0
0, 0
0, 0
0, 0
0, 0
0, 0
0, 0
0, 0
0, 0
0, 0
0, 0
0, 0
0, 0
0, 0
0, 0
0, 0
0, 0
0, 0
0, 0
0, 0
0, 0
0, 0
0, 0
0, 0
0, 0
0, 0
0, 0
0, 0
0, 0
0, 0
0, 0
0, 0
0, 0
0, 0
0, 0
0, 0
0, 0
0, 0
0, 0
0, 0
0, 0
0, 0
0, 0
0, 0
0, 0
0, 0
0, 0
0, 0
0, 0
0, 0
0, 0
0, 0
0, 0
0, 0
0, 0
0, 0
0, 0
0, 0
0, 0
0, 0
0, 0
0, 0
0, 0
0, 0
0, 0
0, 0
0, 0
0, 0
0, 0
0, 0
0, 0
0, 0
0, 0
0, 0
0, 0
0, 0
0, 0
0, 0
0, 0
0, 0
0, 0
0, 0
0, 0
0, 0
0, 0
0, 0
0, 0
0, 0
0, 0
0, 0
0, 0
0, 0
0, 0
0, 0
0, 0
0, 0
0, 0
0, 0
0, 0
0, 0
0, 0
0, 0
0, 0
0, 0
0, 0
0, 0
0, 0
0, 0
0, 0
0, 0
0, 0
0, 0
0, 0
0, 0
0, 0
0, 0
0, 0
0, 0
0, 0
0, 0
0, 0
0, 0
0, 0
0, 0
0, 0
0, 0
0, 0
0, 0
0, 0
0, 0
0, 0
0, 0
0, 0
0, 0
0, 0
0, 0
0, 0
0, 0
0, 0
0, 0
0, 0
0, 0
0, 0
0, 0
0, 0
0, 0
0, 0
0, 0
0, 0
0, 0
0, 0
0, 0
0, 0
0, 0
0, 0
0, 0
0, 0
0, 0
0, 0
0, 0
0, 0
0, 0
0, 0
0, 0
0, 0
0, 0
0, 0
0, 0
0, 0
0, 0
0, 0
0, 0
0, 0
0, 0
0, 0
0, 0
0, 0
0, 0
0, 0
0, 0
0, 0
0, 0
0, 0
0, 0
0, 0
0, 0
0, 0
0, 0
0, 0
0, 0
0, 0
0, 0
0, 0
0, 0
0, 0
0, 0
0, 0
0, 0
0, 0
0, 0
0, 0
0, 0
0, 0
0, 0
0, 0
0, 0
0, 0
0, 0
0, 0
0, 0
0, 0
0, 0
0, 0
0, 0
0, 0
0, 0
0, 0
0, 0
0, 0
0, 0
0, 0
0, 0
0, 0
0, 0
0, 0
0, 0
0, 0
0, 0
0, 0
0, 0
0, 0
0, 0
0, 0
0, 0
0, 0
0, 0
0, 0
0, 0
0, 0
0, 0
0, 0
#ENDOFDATA     end of spectrum data