File: host_upload/02-11-2024/rqc/uplink1/ps__0567_0717304816_000rfs_shot_463.msa
#FORMAT      : EMSA/MAS spectral data file
#VERSION     : TC202v2.0 PIXL
#TITLE       : Novarupta (sol567) subset1
#DATE        : 02-11-2024      Date in the format DD-MMM-YYYY, for example 07-JUL-2010
#TIME        :             The time of day at which the spectrum was recorded, in 24-hour format
#OWNER       : PIXL Flight Model       (PIXL will use this to indicate which instrument took the data.)
#NPOINTS     : 4096     Number of data points in the spectrum (This can be zero for configuration only files)
#NCOLUMNS    : 2     Number of data columns in the spectrum (This can be zero for configuration only files)
#XUNITS      : eV
#YUNITS      : COUNTS
#DATATYPE    : YY
#XPERCHAN    : 7.862, 7.881   eV per channel (separate by commas if more than one detector)
#OFFSET      : 18.5, -22.4         eV of first channel  (separate by commas if more than one detector
#SIGNALTYPE  : XRF
#YP_TEMP     : 1.818
#LIVETIME    : 8.85051, 8.81608   seconds (separate by commas if more than one detector)
#REALTIME    : 10, 10.0   seconds (separate by commas if more than one detector)
#SPECTRUM    : start of spectrum data
0, 0
0, 0
0, 0
0, 0
0, 0
0, 0
0, 0
0, 0
0, 0
0, 0
0, 0
0, 0
0, 0
0, 0
0, 0
0, 0
0, 0
0, 0
0, 0
0, 0
0, 0
0, 0
0, 0
0, 0
0, 0
0, 0
0, 0
0, 0
0, 0
0, 0
1, 0
0, 2
0, 1
1, 3
1, 3
1, 2
3, 1
1, 3
4, 5
5, 5
3, 4
1, 3
5, 7
4, 3
4, 2
1, 2
2, 3
3, 3
3, 6
1, 3
7, 4
10, 3
9, 14
12, 14
13, 20
12, 16
14, 25
10, 16
9, 14
12, 9
14, 25
29, 29
32, 32
44, 50
42, 44
47, 52
40, 39
42, 46
44, 44
55, 54
99, 125
166, 210
265, 334
377, 473
455, 560
400, 512
396, 451
326, 322
204, 223
139, 136
92, 67
47, 40
20, 31
25, 34
17, 41
41, 29
34, 45
37, 37
18, 20
32, 23
20, 19
16, 17
26, 23
41, 38
68, 68
128, 151
191, 178
259, 288
307, 302
287, 309
233, 248
207, 208
147, 139
103, 84
69, 91
46, 56
40, 73
53, 81
82, 104
139, 133
149, 190
188, 219
217, 250
205, 232
196, 228
180, 174
136, 109
95, 112
97, 93
84, 100
56, 74
69, 77
60, 61
52, 52
52, 55
38, 35
28, 30
22, 24
11, 20
20, 11
11, 18
9, 8
11, 12
4, 3
10, 4
6, 5
8, 12
6, 15
14, 22
22, 25
23, 27
26, 27
25, 36
17, 31
19, 25
19, 12
11, 13
8, 9
16, 12
15, 14
24, 20
35, 54
84, 105
112, 192
183, 219
238, 322
303, 346
310, 428
284, 393
304, 326
256, 227
187, 165
106, 114
62, 80
39, 47
31, 33
21, 23
23, 32
31, 44
46, 64
52, 61
63, 70
48, 67
42, 46
36, 35
22, 29
23, 21
12, 7
6, 9
16, 4
7, 8
12, 10
8, 14
7, 16
6, 10
19, 13
15, 27
24, 24
19, 42
43, 45
56, 67
49, 50
70, 82
57, 76
54, 53
53, 43
25, 42
18, 36
20, 26
15, 16
16, 14
11, 21
11, 10
9, 13
13, 18
10, 15
17, 10
12, 20
19, 21
16, 28
14, 18
7, 15
9, 15
12, 15
13, 12
20, 11
21, 16
14, 10
6, 10
13, 9
9, 11
13, 15
4, 13
10, 9
10, 18
17, 19
14, 33
21, 29
22, 30
24, 42
31, 37
26, 44
28, 28
30, 24
17, 16
19, 18
11, 20
9, 18
13, 9
11, 16
8, 9
13, 13
9, 9
15, 17
19, 15
22, 26
15, 28
31, 33
34, 49
50, 44
47, 52
32, 54
36, 61
42, 52
39, 26
32, 34
16, 29
24, 28
21, 16
15, 19
20, 23
23, 30
22, 56
56, 78
118, 135
185, 245
322, 497
524, 735
764, 1010
1074, 1394
1293, 1635
1535, 1850
1632, 1799
1487, 1722
1366, 1467
1139, 1134
811, 858
541, 556
343, 324
223, 191
105, 109
62, 61
37, 40
22, 19
20, 21
13, 9
14, 18
19, 17
17, 18
19, 21
15, 26
27, 25
29, 49
45, 66
77, 95
92, 124
161, 181
199, 212
218, 287
250, 302
251, 283
251, 253
183, 210
183, 192
142, 127
98, 82
55, 45
44, 23
22, 18
10, 11
14, 11
10, 12
10, 8
13, 5
6, 12
7, 12
13, 15
11, 13
7, 16
7, 8
14, 11
10, 11
5, 9
12, 9
5, 6
4, 5
4, 3
9, 4
6, 4
5, 4
1, 5
5, 10
11, 7
10, 4
10, 6
7, 10
3, 3
6, 1
6, 11
5, 9
2, 3
7, 7
2, 13
3, 10
10, 12
4, 8
4, 6
7, 5
6, 10
8, 10
5, 13
6, 10
9, 7
8, 12
6, 1
3, 5
4, 10
4, 8
3, 3
3, 7
5, 11
8, 6
8, 12
8, 10
9, 13
7, 16
11, 14
15, 14
12, 12
9, 10
6, 11
8, 10
7, 8
7, 6
2, 7
7, 10
2, 11
7, 6
7, 8
5, 3
4, 2
7, 2
7, 1
5, 8
5, 9
4, 3
2, 8
4, 9
8, 7
4, 5
7, 5
2, 6
5, 7
2, 6
6, 6
2, 6
6, 9
7, 6
4, 7
4, 9
3, 6
2, 8
7, 3
8, 4
6, 3
3, 4
5, 5
3, 8
6, 8
4, 4
3, 4
4, 9
2, 4
8, 5
1, 2
3, 3
4, 0
3, 4
2, 2
7, 2
4, 5
4, 8
3, 9
4, 5
7, 5
8, 4
1, 6
4, 4
4, 5
5, 5
4, 6
5, 1
4, 3
3, 4
4, 1
6, 4
1, 5
4, 4
8, 8
0, 4
6, 2
5, 6
2, 3
2, 4
3, 7
6, 5
1, 5
2, 4
1, 2
2, 3
4, 5
3, 6
5, 4
3, 2
5, 5
5, 1
3, 6
1, 1
4, 1
5, 4
4, 2
7, 6
1, 1
4, 3
2, 2
2, 3
2, 3
2, 5
6, 2
3, 2
4, 3
3, 1
2, 2
1, 0
2, 3
1, 1
4, 3
3, 4
4, 1
3, 5
1, 2
4, 3
0, 3
3, 5
3, 0
4, 3
1, 6
4, 1
3, 4
1, 2
1, 1
4, 2
5, 3
4, 1
1, 5
2, 2
4, 1
0, 2
1, 1
2, 2
1, 2
1, 3
1, 2
5, 5
3, 3
4, 1
4, 1
1, 1
3, 1
4, 2
2, 1
0, 4
2, 1
0, 4
2, 3
1, 0
2, 2
1, 5
0, 0
2, 2
3, 3
4, 2
3, 4
3, 4
1, 2
1, 1
5, 3
2, 3
2, 2
2, 2
2, 1
6, 1
1, 2
1, 3
2, 2
2, 1
1, 2
2, 3
1, 2
2, 5
1, 3
0, 1
3, 3
4, 2
3, 5
1, 2
2, 0
0, 5
2, 3
0, 2
1, 1
3, 2
2, 4
2, 1
3, 1
0, 1
2, 3
2, 1
2, 1
0, 1
4, 2
1, 4
5, 1
0, 2
1, 2
0, 0
0, 0
2, 2
3, 0
1, 2
1, 4
2, 2
3, 2
5, 2
4, 0
2, 2
0, 0
0, 1
0, 1
0, 3
1, 0
0, 2
1, 2
2, 2
1, 2
1, 3
0, 0
4, 0
0, 1
3, 0
2, 1
1, 4
0, 0
1, 1
1, 1
0, 3
1, 3
2, 2
1, 1
0, 2
1, 1
0, 1
1, 5
1, 0
0, 0
0, 0
0, 0
1, 2
4, 0
1, 0
3, 0
1, 1
1, 3
0, 0
0, 2
0, 1
0, 1
1, 1
0, 0
2, 0
0, 2
1, 2
0, 1
0, 0
0, 2
0, 3
3, 2
0, 3
1, 1
1, 3
0, 1
0, 1
0, 1
0, 2
1, 1
0, 0
1, 0
1, 0
0, 1
2, 0
1, 0
2, 2
1, 1
0, 1
0, 1
0, 1
0, 1
0, 0
1, 0
0, 1
0, 0
1, 0
1, 1
0, 1
0, 1
0, 3
1, 3
2, 1
1, 1
4, 1
1, 2
2, 3
0, 0
3, 1
1, 0
0, 0
0, 2
1, 0
0, 2
1, 0
0, 0
1, 1
0, 0
0, 0
0, 0
0, 0
0, 0
1, 0
0, 1
0, 0
0, 2
0, 0
0, 1
0, 0
1, 0
1, 0
0, 1
0, 0
1, 0
1, 0
0, 0
0, 1
0, 0
1, 0
1, 0
1, 1
0, 0
0, 0
1, 0
0, 3
1, 0
0, 0
0, 1
0, 0
0, 0
2, 1
0, 0
0, 0
1, 1
2, 0
1, 1
0, 0
0, 0
0, 1
0, 1
0, 0
0, 0
0, 0
0, 1
1, 0
0, 0
1, 0
0, 1
0, 0
0, 0
1, 0
0, 0
0, 0
0, 0
0, 0
1, 1
0, 0
1, 0
0, 0
0, 0
0, 2
1, 1
0, 1
0, 0
0, 1
0, 1
0, 0
0, 0
0, 0
0, 0
0, 0
0, 0
0, 1
1, 2
0, 1
0, 0
0, 1
0, 1
0, 0
0, 0
0, 0
0, 0
1, 0
0, 0
0, 0
0, 0
0, 0
0, 0
0, 0
0, 0
0, 0
0, 0
0, 0
0, 0
0, 0
0, 1
0, 0
0, 0
0, 1
0, 1
0, 0
0, 0
0, 0
0, 0
1, 0
2, 0
1, 0
0, 1
0, 0
0, 0
0, 0
0, 0
0, 0
1, 0
1, 1
0, 1
0, 0
1, 0
0, 0
0, 0
1, 0
1, 1
0, 0
0, 0
0, 0
0, 1
0, 0
0, 0
0, 0
0, 0
0, 0
0, 0
0, 0
0, 0
0, 0
0, 0
0, 1
1, 1
0, 0
0, 0
0, 0
0, 0
1, 0
0, 0
1, 0
0, 0
0, 0
0, 0
0, 1
0, 1
0, 0
0, 1
0, 1
0, 0
1, 0
0, 0
0, 0
0, 0
0, 0
0, 0
0, 0
1, 0
0, 0
0, 0
0, 0
0, 0
0, 0
1, 0
0, 0
0, 0
0, 1
0, 0
0, 0
1, 0
0, 0
0, 0
0, 1
0, 1
0, 0
0, 1
1, 1
1, 0
0, 1
1, 0
0, 0
0, 0
0, 0
0, 0
0, 0
0, 0
0, 0
0, 0
1, 0
0, 0
0, 0
0, 0
0, 0
0, 0
0, 0
0, 0
0, 0
0, 0
0, 0
0, 0
0, 0
0, 0
0, 0
0, 0
0, 0
0, 0
0, 0
0, 0
0, 0
0, 0
0, 0
0, 0
0, 0
0, 0
0, 0
0, 0
0, 0
0, 0
0, 0
0, 0
0, 0
0, 0
0, 0
0, 0
0, 0
0, 0
0, 0
0, 0
0, 0
0, 0
0, 0
0, 0
0, 0
0, 0
0, 0
0, 0
0, 0
0, 0
0, 0
0, 0
0, 0
0, 0
0, 0
0, 0
0, 0
0, 0
0, 0
0, 0
0, 0
0, 0
0, 0
0, 0
0, 0
0, 0
0, 0
0, 0
0, 0
0, 0
0, 0
0, 0
0, 0
0, 0
0, 0
0, 0
0, 0
0, 1
0, 0
0, 0
0, 0
0, 0
0, 0
0, 0
0, 0
0, 0
0, 0
0, 0
0, 0
0, 0
0, 0
0, 0
0, 0
0, 0
0, 0
0, 1
0, 0
0, 0
0, 0
0, 0
0, 0
0, 0
0, 0
0, 0
0, 0
0, 0
1, 0
0, 0
0, 0
0, 0
0, 0
0, 0
0, 0
0, 0
0, 0
0, 0
0, 0
0, 0
0, 0
0, 0
0, 0
0, 0
0, 0
0, 0
0, 0
0, 0
0, 0
0, 0
0, 0
0, 0
0, 0
0, 0
0, 0
1, 0
1, 0
0, 0
0, 0
0, 0
0, 0
0, 0
0, 0
0, 0
0, 0
0, 0
0, 0
0, 0
0, 0
0, 0
0, 0
0, 0
0, 0
0, 0
0, 0
0, 0
0, 0
0, 0
0, 0
0, 0
0, 0
0, 0
0, 0
0, 0
0, 0
0, 0
0, 0
0, 0
0, 0
0, 0
0, 0
0, 0
0, 0
0, 0
0, 0
0, 0
0, 0
0, 0
0, 0
0, 0
0, 0
0, 0
0, 0
0, 0
0, 0
0, 0
0, 0
0, 0
0, 0
0, 0
0, 0
0, 0
0, 0
0, 0
0, 0
0, 0
0, 0
0, 0
0, 0
0, 0
0, 0
0, 0
0, 0
0, 0
0, 0
0, 0
0, 0
0, 0
0, 0
0, 0
0, 0
0, 0
0, 0
0, 0
0, 0
0, 0
0, 0
0, 0
0, 0
0, 0
0, 0
0, 0
0, 0
0, 0
0, 0
0, 0
0, 0
0, 0
0, 0
0, 0
0, 0
0, 0
0, 0
0, 0
0, 0
0, 0
0, 0
0, 0
0, 0
0, 0
0, 0
0, 0
0, 0
0, 0
0, 0
0, 0
0, 0
0, 0
0, 0
0, 0
0, 0
0, 0
0, 0
0, 0
0, 0
0, 0
0, 0
0, 0
0, 0
0, 0
0, 0
0, 0
0, 0
0, 0
0, 0
0, 0
0, 0
0, 0
0, 0
0, 0
0, 0
0, 0
0, 0
0, 0
0, 0
0, 0
0, 0
0, 0
0, 0
0, 0
0, 0
0, 0
0, 0
0, 0
0, 0
0, 0
0, 0
0, 0
0, 0
0, 0
0, 0
0, 0
0, 0
0, 0
0, 0
0, 0
0, 0
0, 0
0, 0
0, 0
0, 0
0, 0
0, 0
0, 0
0, 0
0, 0
0, 0
0, 0
0, 0
0, 0
0, 0
0, 0
0, 0
0, 0
0, 0
0, 0
0, 0
0, 0
0, 0
0, 0
0, 0
0, 0
0, 0
0, 0
0, 0
0, 0
0, 0
0, 0
0, 0
0, 0
0, 0
0, 0
0, 0
0, 0
0, 0
0, 0
0, 0
0, 0
0, 0
0, 0
0, 0
0, 0
0, 0
0, 0
0, 0
0, 0
0, 0
0, 0
0, 0
0, 0
0, 0
0, 0
0, 0
0, 0
0, 0
0, 0
0, 0
0, 0
0, 0
0, 0
0, 0
0, 0
0, 0
0, 0
0, 0
0, 0
0, 0
0, 0
0, 0
0, 0
0, 0
0, 0
0, 0
0, 0
0, 0
0, 0
0, 0
0, 0
0, 0
0, 0
0, 0
0, 0
0, 0
0, 0
0, 0
0, 0
0, 0
0, 0
0, 0
0, 0
0, 0
0, 0
0, 0
0, 0
0, 0
0, 0
0, 0
0, 0
0, 0
0, 0
0, 0
0, 0
0, 0
0, 0
0, 0
0, 0
0, 0
0, 0
0, 0
0, 0
0, 0
0, 0
0, 0
0, 0
0, 0
0, 0
0, 0
0, 0
0, 0
0, 0
0, 0
0, 0
0, 0
0, 0
0, 0
0, 0
0, 0
0, 0
0, 0
0, 0
0, 0
0, 0
0, 0
0, 0
0, 0
0, 0
0, 0
0, 0
0, 0
0, 0
0, 0
0, 0
0, 0
0, 0
0, 0
0, 0
0, 0
0, 0
0, 0
0, 0
0, 0
0, 0
0, 0
0, 0
0, 0
0, 0
0, 0
0, 0
0, 0
0, 0
0, 0
0, 0
0, 0
0, 0
0, 0
0, 0
0, 0
0, 0
0, 0
0, 0
0, 0
0, 0
0, 0
0, 0
0, 0
0, 0
0, 0
0, 0
0, 0
0, 0
0, 0
0, 0
0, 0
0, 0
0, 0
0, 0
0, 0
0, 0
0, 0
0, 0
0, 0
0, 0
0, 0
0, 0
0, 0
0, 0
0, 0
0, 0
0, 0
0, 0
0, 0
#ENDOFDATA     end of spectrum data