File: host_upload/02-11-2024/rqc/uplink1/ps__0567_0717304816_000rfs_shot_177.msa
#FORMAT      : EMSA/MAS spectral data file
#VERSION     : TC202v2.0 PIXL
#TITLE       : Novarupta (sol567) subset1
#DATE        : 02-11-2024      Date in the format DD-MMM-YYYY, for example 07-JUL-2010
#TIME        :             The time of day at which the spectrum was recorded, in 24-hour format
#OWNER       : PIXL Flight Model       (PIXL will use this to indicate which instrument took the data.)
#NPOINTS     : 4096     Number of data points in the spectrum (This can be zero for configuration only files)
#NCOLUMNS    : 2     Number of data columns in the spectrum (This can be zero for configuration only files)
#XUNITS      : eV
#YUNITS      : COUNTS
#DATATYPE    : YY
#XPERCHAN    : 7.862, 7.881   eV per channel (separate by commas if more than one detector)
#OFFSET      : 18.5, -22.4         eV of first channel  (separate by commas if more than one detector
#SIGNALTYPE  : XRF
#YP_TEMP     : 0.471
#LIVETIME    : 8.82533, 8.81682   seconds (separate by commas if more than one detector)
#REALTIME    : 10, 10.0   seconds (separate by commas if more than one detector)
#SPECTRUM    : start of spectrum data
0, 0
0, 0
0, 0
0, 0
0, 0
0, 0
0, 0
0, 0
0, 0
0, 0
0, 0
0, 0
0, 0
0, 0
0, 0
0, 0
0, 0
0, 0
0, 0
0, 0
0, 0
0, 0
0, 0
0, 0
0, 0
0, 0
0, 0
0, 0
0, 0
0, 0
0, 0
0, 0
0, 1
1, 2
0, 0
1, 1
1, 5
0, 4
1, 3
7, 5
5, 3
2, 6
2, 3
4, 2
1, 2
3, 6
4, 4
7, 2
1, 4
7, 3
8, 8
10, 5
17, 14
11, 14
27, 17
17, 18
9, 13
12, 12
12, 9
15, 16
13, 17
22, 24
34, 35
43, 57
44, 40
48, 64
54, 40
35, 48
44, 46
56, 72
99, 117
193, 191
324, 339
406, 457
499, 487
468, 496
418, 449
351, 326
218, 239
140, 121
89, 75
55, 46
31, 30
33, 39
21, 30
38, 45
36, 37
26, 41
33, 19
22, 20
12, 13
14, 19
25, 31
43, 54
74, 87
129, 152
183, 221
260, 269
301, 303
337, 313
255, 269
184, 221
144, 150
101, 93
70, 69
48, 56
44, 61
71, 83
84, 97
125, 129
163, 184
228, 196
245, 231
273, 231
224, 203
173, 175
165, 138
119, 122
104, 95
77, 78
78, 68
78, 68
77, 64
64, 78
45, 40
43, 37
32, 19
23, 32
15, 13
14, 17
16, 12
6, 8
5, 9
7, 6
8, 8
8, 5
17, 12
16, 21
22, 28
22, 29
38, 28
30, 34
18, 30
16, 29
25, 18
17, 25
12, 12
8, 14
9, 7
14, 16
22, 30
55, 50
83, 121
133, 160
224, 243
297, 308
340, 380
391, 398
342, 394
291, 290
267, 236
150, 162
98, 106
75, 50
32, 36
31, 30
34, 25
24, 38
50, 40
48, 70
52, 69
72, 72
50, 66
53, 48
24, 29
12, 19
16, 19
11, 9
9, 6
8, 10
5, 8
8, 6
12, 11
8, 11
3, 13
14, 14
17, 17
13, 22
30, 36
46, 58
41, 58
61, 45
58, 66
62, 69
51, 48
28, 41
28, 34
23, 23
29, 31
11, 20
16, 7
13, 15
12, 13
14, 8
14, 16
13, 16
13, 18
16, 23
16, 23
22, 18
19, 21
26, 21
13, 22
13, 20
23, 10
10, 19
8, 12
3, 16
14, 14
16, 12
16, 10
9, 19
11, 14
14, 10
19, 18
20, 23
27, 15
26, 28
23, 26
40, 30
34, 27
31, 39
33, 22
22, 24
30, 18
14, 15
12, 12
17, 10
16, 14
10, 9
7, 12
13, 15
6, 15
20, 10
15, 15
20, 27
24, 33
21, 39
49, 37
44, 50
26, 57
48, 43
55, 47
43, 33
35, 39
28, 24
25, 23
17, 22
16, 19
22, 21
32, 30
22, 31
35, 56
77, 97
115, 163
236, 276
383, 473
651, 779
969, 1129
1269, 1348
1536, 1722
1701, 1834
1764, 1812
1682, 1790
1480, 1436
1217, 1118
838, 742
582, 483
352, 303
242, 170
134, 84
60, 46
38, 31
21, 21
11, 24
14, 17
15, 18
13, 18
28, 12
24, 26
30, 26
30, 40
39, 46
61, 75
76, 114
131, 142
154, 196
208, 243
241, 267
255, 297
251, 264
270, 230
215, 210
180, 177
124, 111
80, 86
58, 46
36, 22
22, 23
13, 9
12, 8
15, 10
8, 4
4, 6
9, 9
16, 14
21, 6
21, 11
15, 21
11, 12
9, 10
7, 8
9, 9
10, 6
12, 9
10, 3
6, 2
9, 4
10, 2
9, 3
5, 4
6, 8
3, 6
9, 7
6, 10
5, 11
3, 3
6, 9
9, 1
9, 6
5, 5
10, 9
8, 5
12, 7
7, 6
9, 9
2, 2
3, 8
11, 8
5, 7
7, 6
4, 2
5, 9
7, 4
9, 4
6, 4
8, 7
9, 6
5, 5
5, 11
13, 8
12, 9
10, 6
5, 5
6, 12
14, 9
7, 7
9, 5
15, 14
11, 8
11, 14
10, 10
3, 8
11, 8
6, 5
5, 6
4, 2
6, 4
6, 9
8, 8
1, 5
3, 7
4, 8
6, 4
4, 7
3, 3
4, 4
6, 4
2, 6
1, 8
5, 5
8, 9
4, 6
8, 6
10, 3
7, 6
8, 6
9, 4
7, 9
5, 7
5, 13
5, 3
6, 8
7, 8
4, 1
5, 4
6, 3
11, 0
8, 5
10, 5
7, 7
1, 5
5, 8
4, 5
1, 4
3, 2
2, 6
5, 11
5, 6
1, 7
6, 10
6, 4
8, 5
8, 3
5, 5
3, 5
2, 6
2, 4
8, 3
6, 4
4, 4
2, 5
2, 3
3, 5
5, 1
4, 2
4, 3
6, 2
4, 10
6, 3
9, 3
4, 3
2, 2
3, 4
5, 5
5, 8
4, 3
7, 5
3, 5
4, 4
3, 1
1, 2
4, 9
5, 4
3, 5
3, 3
3, 2
6, 4
3, 3
3, 4
6, 2
4, 2
7, 3
2, 7
2, 3
4, 3
3, 3
3, 3
1, 5
4, 4
1, 2
0, 2
3, 1
6, 5
6, 4
3, 6
5, 3
2, 4
1, 4
2, 2
0, 1
2, 2
2, 3
4, 0
2, 3
2, 4
1, 4
5, 2
1, 2
8, 2
2, 2
5, 5
2, 4
2, 1
4, 3
1, 6
2, 0
0, 2
3, 2
2, 2
2, 7
2, 1
5, 2
1, 7
3, 2
3, 1
2, 1
4, 0
1, 1
7, 1
2, 3
1, 3
1, 1
1, 3
5, 0
2, 0
0, 4
3, 0
2, 3
2, 3
2, 0
3, 0
2, 3
2, 4
3, 1
2, 1
3, 3
5, 3
2, 1
1, 1
0, 0
0, 1
1, 0
6, 1
1, 4
1, 1
3, 0
1, 2
3, 3
0, 6
1, 4
2, 1
1, 1
4, 3
1, 2
3, 3
3, 2
1, 3
2, 5
4, 3
2, 0
2, 1
2, 3
3, 2
1, 2
3, 2
3, 0
1, 1
0, 1
2, 1
2, 0
2, 0
0, 0
0, 1
3, 3
3, 0
1, 4
1, 2
3, 1
1, 1
2, 3
1, 3
1, 0
1, 0
2, 0
1, 1
2, 1
2, 2
3, 0
0, 1
3, 1
1, 0
2, 0
1, 1
1, 1
2, 0
2, 3
2, 1
0, 0
1, 0
3, 2
2, 2
0, 2
1, 1
2, 6
2, 3
1, 1
1, 0
1, 2
0, 3
0, 0
1, 1
1, 0
1, 0
2, 1
2, 0
1, 1
2, 3
0, 1
1, 1
2, 0
1, 0
2, 0
1, 1
0, 0
1, 1
0, 0
1, 1
1, 0
1, 1
1, 1
1, 0
3, 0
0, 0
1, 2
2, 1
2, 2
1, 0
0, 3
0, 0
0, 1
2, 4
2, 3
0, 0
1, 1
1, 0
0, 3
0, 0
1, 1
2, 2
1, 0
3, 0
3, 0
0, 0
2, 0
0, 1
2, 0
2, 1
1, 0
0, 0
0, 0
0, 1
0, 0
1, 0
0, 0
0, 0
1, 0
0, 1
0, 1
0, 0
3, 0
2, 1
3, 0
1, 0
2, 2
1, 3
0, 1
0, 0
0, 1
0, 0
1, 1
1, 0
0, 0
0, 1
0, 1
0, 1
0, 0
1, 0
0, 2
0, 3
0, 0
0, 0
1, 0
2, 1
0, 1
0, 1
0, 1
0, 0
0, 0
1, 1
0, 0
2, 1
0, 0
0, 1
2, 0
1, 0
0, 0
0, 1
0, 0
1, 1
0, 0
2, 0
1, 0
0, 0
0, 0
0, 0
0, 0
0, 0
0, 0
0, 0
1, 0
1, 1
0, 1
0, 0
0, 1
0, 1
1, 1
0, 0
0, 0
1, 0
0, 0
0, 0
0, 0
0, 1
1, 0
0, 2
1, 1
0, 1
1, 0
1, 1
0, 0
1, 0
0, 0
0, 0
0, 0
0, 0
0, 0
0, 0
0, 0
0, 1
0, 0
0, 0
0, 0
0, 0
1, 1
0, 1
0, 1
1, 0
0, 1
0, 0
0, 0
0, 1
1, 0
0, 0
2, 0
0, 0
1, 0
0, 0
0, 0
1, 0
0, 0
0, 0
0, 0
0, 0
0, 1
0, 0
0, 0
0, 1
0, 0
0, 0
0, 0
0, 0
0, 0
0, 1
0, 0
1, 1
1, 0
0, 0
0, 0
0, 0
0, 1
0, 0
0, 0
2, 0
1, 1
0, 0
0, 0
0, 0
0, 0
1, 0
1, 0
0, 0
0, 1
0, 1
0, 0
0, 0
1, 0
0, 0
0, 1
1, 0
0, 0
1, 0
0, 0
1, 0
0, 0
1, 0
0, 0
0, 0
0, 0
0, 0
0, 0
0, 2
0, 0
0, 1
0, 0
1, 2
1, 0
0, 1
1, 2
0, 0
0, 0
0, 0
0, 0
1, 0
0, 0
0, 0
1, 0
1, 0
0, 0
0, 0
0, 0
2, 0
1, 0
0, 0
0, 0
0, 0
1, 1
0, 0
0, 0
1, 0
0, 1
0, 0
0, 0
0, 0
0, 1
0, 0
0, 0
0, 0
1, 0
0, 1
0, 0
0, 1
0, 0
0, 2
1, 0
0, 0
0, 0
1, 0
0, 1
0, 0
0, 1
0, 1
1, 0
0, 0
0, 1
0, 0
1, 0
0, 0
0, 0
0, 0
0, 0
0, 0
0, 0
0, 0
0, 0
0, 1
0, 0
1, 0
0, 0
0, 0
0, 0
0, 0
0, 0
0, 0
0, 0
0, 0
0, 0
0, 0
0, 0
1, 0
0, 0
0, 0
0, 0
0, 0
0, 0
0, 0
0, 1
0, 0
0, 0
0, 0
0, 0
0, 0
0, 0
0, 0
0, 0
0, 1
0, 0
0, 1
0, 0
1, 1
0, 0
0, 0
0, 0
1, 0
0, 0
0, 1
0, 0
0, 0
0, 1
1, 0
0, 0
0, 0
0, 0
0, 0
0, 0
0, 0
0, 0
0, 0
0, 0
0, 0
0, 0
0, 1
0, 0
0, 0
1, 0
0, 1
0, 0
0, 0
0, 0
0, 0
0, 0
0, 0
0, 0
0, 0
0, 0
0, 0
0, 0
0, 0
0, 0
0, 0
0, 0
0, 0
0, 0
0, 0
0, 0
0, 0
0, 0
0, 0
0, 0
0, 0
0, 0
0, 0
0, 0
0, 0
0, 0
0, 0
0, 0
0, 0
0, 0
0, 0
0, 0
0, 0
0, 0
0, 0
0, 0
0, 0
0, 0
0, 0
0, 0
1, 0
0, 0
0, 0
0, 0
0, 0
0, 0
0, 0
0, 1
0, 0
0, 0
0, 0
0, 0
0, 0
0, 0
0, 0
0, 0
0, 0
0, 0
0, 0
0, 0
0, 0
0, 0
0, 0
0, 0
1, 0
0, 0
0, 0
0, 0
0, 0
0, 0
0, 0
0, 0
0, 0
0, 0
0, 0
0, 0
0, 0
0, 0
0, 0
0, 0
0, 0
0, 0
0, 0
0, 0
0, 0
0, 0
0, 0
0, 0
0, 0
0, 0
0, 0
0, 0
0, 0
0, 0
0, 0
0, 0
0, 0
0, 0
0, 0
0, 0
0, 0
0, 0
0, 0
0, 0
0, 0
0, 0
0, 0
0, 0
0, 0
0, 0
0, 0
0, 0
0, 0
0, 0
0, 0
0, 0
0, 0
0, 0
0, 0
0, 0
0, 0
0, 0
0, 0
0, 0
0, 0
0, 0
0, 0
0, 0
0, 0
0, 0
0, 0
0, 0
0, 0
0, 0
0, 0
0, 0
0, 0
0, 0
0, 0
1, 0
0, 0
0, 0
0, 0
0, 0
0, 0
0, 0
0, 0
0, 0
0, 0
0, 0
0, 0
0, 0
0, 0
0, 0
0, 0
0, 0
0, 0
0, 0
0, 0
0, 0
0, 0
0, 0
0, 0
0, 0
0, 0
0, 0
0, 0
0, 0
0, 0
0, 0
0, 0
0, 0
0, 0
0, 0
0, 0
0, 0
0, 0
0, 0
0, 0
0, 0
0, 0
0, 0
0, 0
0, 0
0, 0
0, 0
0, 0
0, 0
0, 0
0, 0
0, 0
0, 0
0, 0
0, 0
0, 0
0, 0
0, 0
0, 0
0, 0
0, 0
0, 0
0, 0
0, 0
0, 0
0, 0
0, 0
0, 0
0, 0
0, 0
0, 0
1, 0
0, 0
0, 0
0, 0
0, 0
0, 0
0, 0
0, 0
0, 0
0, 0
0, 0
0, 0
0, 0
0, 0
0, 0
0, 0
0, 0
0, 0
0, 0
0, 0
0, 0
0, 0
0, 0
0, 0
0, 0
0, 0
0, 0
0, 0
0, 0
0, 0
0, 0
0, 0
0, 0
0, 0
0, 0
0, 0
0, 0
0, 0
0, 0
0, 0
0, 0
0, 0
0, 0
0, 0
0, 0
0, 0
0, 0
0, 0
0, 0
0, 0
0, 0
0, 0
0, 0
0, 0
0, 0
0, 0
0, 0
0, 0
0, 0
0, 0
0, 0
0, 0
0, 0
0, 0
0, 0
0, 0
0, 0
0, 0
0, 0
0, 0
0, 0
0, 0
0, 0
0, 0
0, 0
0, 0
0, 0
0, 0
0, 0
0, 0
0, 0
0, 0
0, 0
0, 0
0, 0
0, 0
0, 0
0, 0
0, 0
0, 0
0, 0
0, 0
0, 0
0, 0
0, 0
0, 0
0, 0
0, 0
0, 0
0, 0
0, 0
0, 0
0, 0
0, 0
0, 0
0, 0
0, 0
0, 0
0, 0
0, 0
0, 0
0, 0
0, 0
0, 0
0, 0
0, 0
0, 0
0, 0
0, 0
0, 0
0, 0
0, 0
0, 0
0, 0
0, 0
0, 0
0, 0
0, 0
0, 0
0, 0
0, 0
0, 0
0, 0
0, 0
0, 0
0, 0
0, 0
0, 0
0, 0
0, 0
0, 0
0, 0
0, 0
0, 0
0, 0
0, 0
0, 0
0, 0
0, 0
0, 0
0, 0
0, 0
0, 0
0, 0
0, 0
0, 0
0, 0
0, 0
0, 0
0, 0
0, 0
0, 0
0, 0
0, 0
0, 0
0, 0
0, 0
0, 0
0, 0
0, 0
0, 0
0, 0
0, 0
0, 0
0, 0
0, 0
0, 0
0, 0
0, 0
0, 0
0, 0
0, 0
0, 0
0, 0
0, 0
0, 0
0, 0
0, 0
0, 0
0, 0
0, 0
0, 0
0, 0
0, 0
0, 0
0, 0
0, 0
0, 0
0, 0
0, 0
0, 0
0, 0
0, 0
0, 0
0, 0
0, 0
0, 0
0, 0
0, 0
0, 0
0, 0
0, 0
0, 0
0, 0
0, 0
0, 0
0, 0
#ENDOFDATA     end of spectrum data