File: host_upload/02-11-2024/rqc/uplink1/ps__0567_0717304816_000rfs_shot_329.msa
#FORMAT      : EMSA/MAS spectral data file
#VERSION     : TC202v2.0 PIXL
#TITLE       : Novarupta (sol567) subset1
#DATE        : 02-11-2024      Date in the format DD-MMM-YYYY, for example 07-JUL-2010
#TIME        :             The time of day at which the spectrum was recorded, in 24-hour format
#OWNER       : PIXL Flight Model       (PIXL will use this to indicate which instrument took the data.)
#NPOINTS     : 4096     Number of data points in the spectrum (This can be zero for configuration only files)
#NCOLUMNS    : 2     Number of data columns in the spectrum (This can be zero for configuration only files)
#XUNITS      : eV
#YUNITS      : COUNTS
#DATATYPE    : YY
#XPERCHAN    : 7.862, 7.881   eV per channel (separate by commas if more than one detector)
#OFFSET      : 18.5, -22.4         eV of first channel  (separate by commas if more than one detector
#SIGNALTYPE  : XRF
#YP_TEMP     : 1.369
#LIVETIME    : 8.84615, 8.82383   seconds (separate by commas if more than one detector)
#REALTIME    : 10, 10.0   seconds (separate by commas if more than one detector)
#SPECTRUM    : start of spectrum data
0, 0
0, 0
0, 0
0, 0
0, 0
0, 0
0, 0
0, 0
0, 0
0, 0
0, 0
0, 0
0, 0
0, 0
0, 0
0, 0
0, 0
0, 0
0, 0
0, 0
0, 0
0, 0
0, 0
0, 0
0, 0
0, 0
0, 0
0, 0
0, 0
0, 0
0, 0
0, 0
0, 0
1, 2
0, 2
0, 2
4, 2
2, 5
3, 2
3, 6
2, 4
3, 6
4, 3
1, 3
4, 4
0, 5
0, 5
3, 3
2, 4
1, 3
2, 7
9, 5
14, 10
15, 11
21, 19
18, 15
13, 10
9, 8
10, 9
11, 8
26, 22
23, 27
37, 31
28, 41
49, 73
40, 47
23, 52
34, 29
36, 41
49, 76
100, 102
174, 240
287, 300
340, 467
427, 506
472, 511
394, 441
328, 316
219, 228
114, 146
65, 71
43, 44
23, 35
34, 33
17, 34
32, 40
30, 33
34, 39
32, 29
20, 21
24, 20
23, 24
21, 21
44, 46
80, 100
126, 130
172, 203
216, 294
262, 349
255, 301
276, 284
222, 247
139, 139
97, 118
53, 72
51, 49
40, 42
60, 84
94, 85
114, 150
154, 159
157, 222
211, 215
183, 209
168, 181
137, 181
127, 143
99, 115
81, 94
63, 67
78, 85
79, 78
56, 67
66, 52
40, 35
44, 43
17, 31
24, 16
24, 25
18, 18
13, 10
8, 6
10, 10
4, 9
10, 6
8, 7
8, 11
18, 17
18, 23
20, 20
23, 48
32, 33
14, 30
25, 28
20, 20
12, 14
9, 10
16, 10
16, 12
15, 15
19, 37
39, 51
89, 91
118, 148
185, 229
287, 323
318, 385
355, 406
348, 384
276, 314
210, 235
148, 153
111, 112
70, 61
33, 37
29, 22
29, 22
25, 28
31, 40
49, 57
45, 59
58, 58
47, 52
43, 53
32, 38
30, 20
12, 24
12, 9
12, 6
5, 13
9, 7
3, 10
7, 11
7, 9
6, 13
8, 11
14, 13
26, 23
25, 27
40, 47
54, 56
52, 67
69, 65
62, 53
38, 42
49, 40
29, 29
35, 21
19, 26
16, 15
10, 13
21, 26
14, 12
18, 10
10, 18
11, 9
23, 18
11, 20
14, 19
21, 15
17, 19
13, 14
16, 20
8, 12
8, 17
7, 14
15, 15
17, 14
4, 14
7, 16
13, 12
7, 12
12, 9
7, 10
12, 18
16, 21
18, 25
24, 22
22, 27
29, 28
23, 28
42, 38
27, 24
29, 22
22, 26
14, 17
18, 12
10, 13
14, 17
11, 8
11, 11
5, 13
12, 13
15, 14
10, 12
19, 29
28, 35
24, 30
39, 47
45, 47
38, 54
48, 43
35, 49
32, 42
33, 43
31, 19
21, 26
18, 24
10, 20
17, 20
14, 24
25, 31
41, 54
62, 82
98, 149
197, 288
388, 457
518, 703
854, 1050
1150, 1359
1427, 1630
1569, 1853
1630, 1836
1621, 1723
1465, 1449
1032, 1142
838, 802
565, 531
369, 320
231, 202
108, 93
66, 62
34, 32
19, 30
17, 11
20, 13
13, 21
14, 10
24, 17
20, 22
18, 17
17, 22
39, 38
54, 55
79, 99
109, 140
137, 207
201, 256
243, 339
256, 294
260, 260
235, 291
183, 199
160, 158
123, 115
93, 75
57, 44
44, 35
25, 15
15, 8
13, 13
9, 9
2, 8
5, 7
12, 13
11, 7
17, 14
11, 11
14, 16
16, 11
7, 12
10, 6
7, 11
7, 7
13, 6
4, 6
5, 8
6, 6
4, 9
5, 5
6, 6
4, 6
4, 6
6, 2
4, 8
8, 10
5, 5
3, 7
5, 7
6, 6
8, 5
6, 6
3, 4
8, 5
6, 8
3, 8
5, 10
2, 3
6, 5
4, 8
9, 9
5, 12
8, 10
10, 6
5, 5
11, 6
4, 7
4, 10
2, 6
4, 2
7, 6
12, 5
7, 9
11, 9
8, 12
10, 14
5, 14
9, 12
8, 9
13, 10
5, 11
11, 10
6, 8
7, 9
7, 7
7, 6
4, 7
6, 10
7, 7
4, 4
9, 0
2, 6
7, 9
5, 6
3, 8
10, 7
5, 5
11, 8
4, 4
4, 5
5, 6
4, 11
9, 2
10, 6
9, 4
4, 3
2, 4
9, 7
2, 4
2, 9
6, 6
3, 5
7, 9
8, 8
6, 0
6, 5
10, 3
5, 8
2, 2
7, 2
2, 6
9, 5
1, 2
4, 4
3, 7
5, 2
5, 2
2, 5
1, 5
2, 2
5, 5
3, 5
5, 7
3, 5
2, 4
8, 4
12, 3
4, 5
6, 4
4, 5
9, 1
3, 3
6, 5
4, 7
2, 4
2, 0
6, 2
7, 3
4, 4
6, 7
3, 7
6, 7
2, 4
6, 6
3, 1
2, 4
2, 4
5, 1
4, 2
0, 1
3, 7
3, 2
4, 4
1, 5
3, 1
4, 7
4, 3
0, 5
5, 2
2, 1
2, 10
2, 5
3, 2
3, 3
4, 5
1, 7
0, 3
4, 3
4, 6
2, 1
6, 2
3, 4
2, 3
5, 3
4, 3
2, 4
3, 3
1, 4
5, 3
2, 3
3, 3
4, 1
5, 1
3, 0
4, 2
0, 2
0, 2
1, 2
2, 3
2, 1
4, 1
2, 2
5, 1
3, 3
3, 3
2, 4
2, 6
1, 2
0, 2
3, 3
2, 1
1, 0
0, 4
2, 3
2, 3
1, 2
3, 5
3, 4
3, 1
1, 2
2, 4
0, 4
3, 6
4, 2
1, 1
1, 2
0, 1
6, 0
0, 3
3, 2
2, 2
1, 0
1, 1
3, 1
2, 2
6, 2
3, 1
3, 1
6, 0
3, 3
2, 4
1, 2
5, 3
4, 3
1, 4
4, 2
2, 2
3, 7
5, 1
3, 3
3, 4
1, 3
1, 1
6, 1
2, 4
3, 1
4, 2
1, 0
2, 1
0, 2
5, 2
0, 1
2, 1
0, 3
2, 3
0, 2
1, 2
0, 4
0, 1
1, 0
1, 4
1, 2
4, 1
2, 2
2, 1
1, 0
1, 0
0, 2
1, 1
1, 2
2, 2
3, 2
3, 0
1, 3
3, 1
3, 1
0, 1
1, 2
0, 0
1, 2
0, 0
2, 0
1, 2
0, 5
0, 1
1, 3
2, 0
4, 0
1, 1
4, 0
0, 0
0, 2
0, 3
4, 0
3, 2
0, 0
1, 0
1, 2
2, 1
1, 1
0, 2
2, 2
1, 3
0, 2
1, 0
0, 0
0, 1
2, 1
0, 0
1, 0
0, 0
0, 1
0, 1
1, 2
0, 1
4, 2
0, 0
3, 1
0, 1
2, 0
0, 3
3, 0
1, 0
0, 0
2, 0
1, 1
0, 1
2, 3
0, 0
0, 1
0, 2
0, 1
1, 1
0, 5
2, 0
1, 1
1, 0
1, 0
0, 0
2, 0
0, 2
0, 1
1, 1
0, 4
0, 0
0, 2
0, 1
1, 2
1, 0
0, 0
0, 1
0, 1
1, 3
0, 1
0, 3
1, 0
0, 1
0, 0
0, 1
2, 0
2, 0
1, 1
1, 0
0, 3
1, 1
1, 0
0, 1
0, 1
0, 1
2, 1
0, 2
2, 0
0, 2
1, 0
1, 0
0, 0
1, 0
1, 1
0, 0
0, 0
0, 1
1, 0
0, 1
3, 1
0, 1
1, 1
1, 1
1, 2
0, 1
0, 0
0, 0
0, 1
0, 1
0, 1
0, 2
0, 0
1, 2
0, 0
1, 0
1, 0
0, 1
2, 0
0, 0
1, 1
0, 0
1, 1
0, 1
0, 0
0, 0
0, 0
2, 0
1, 0
0, 0
0, 2
0, 0
2, 0
1, 0
0, 3
1, 0
1, 0
0, 0
0, 0
2, 0
2, 0
0, 1
0, 0
0, 0
2, 0
0, 0
0, 0
0, 0
1, 0
0, 0
0, 1
0, 0
0, 1
0, 0
0, 0
0, 1
0, 1
0, 1
0, 0
0, 0
0, 1
0, 0
0, 0
1, 0
0, 0
2, 0
0, 0
0, 0
0, 0
1, 1
1, 0
0, 0
0, 0
0, 1
0, 0
0, 0
0, 0
0, 1
0, 0
1, 0
1, 0
0, 0
0, 1
0, 0
0, 0
1, 0
0, 1
0, 0
0, 0
0, 0
0, 0
0, 0
0, 0
0, 1
0, 0
0, 0
0, 0
1, 0
0, 0
1, 0
0, 0
0, 0
1, 0
1, 0
0, 0
0, 0
0, 0
0, 0
0, 0
0, 0
0, 1
0, 0
0, 1
0, 0
0, 1
0, 0
0, 0
0, 0
2, 1
0, 0
0, 0
0, 0
0, 0
1, 0
0, 0
0, 0
0, 1
0, 0
0, 0
0, 0
0, 0
0, 0
0, 0
0, 1
0, 0
0, 1
0, 0
0, 1
1, 0
0, 0
0, 0
0, 1
0, 0
0, 0
0, 0
0, 0
0, 0
0, 0
0, 0
0, 0
0, 0
0, 0
0, 0
0, 0
0, 0
0, 0
1, 0
0, 0
0, 0
0, 1
0, 0
1, 0
0, 0
0, 0
0, 1
0, 0
0, 0
0, 0
1, 0
1, 1
0, 0
2, 0
0, 0
0, 0
0, 0
0, 0
0, 1
0, 0
0, 0
1, 0
0, 0
0, 0
0, 0
0, 0
0, 0
0, 0
0, 0
0, 0
0, 0
0, 0
0, 0
0, 0
0, 0
0, 0
0, 0
0, 0
0, 0
0, 0
0, 0
0, 0
0, 0
0, 1
0, 0
0, 0
0, 0
0, 0
0, 0
0, 0
0, 0
0, 0
0, 0
0, 0
0, 0
0, 0
0, 0
0, 0
0, 0
0, 0
0, 0
0, 0
0, 0
0, 0
0, 0
0, 0
0, 1
0, 0
0, 0
0, 0
0, 0
0, 0
0, 0
0, 1
0, 0
0, 0
0, 0
0, 0
0, 0
0, 0
0, 0
0, 0
0, 0
0, 0
0, 0
0, 0
0, 0
0, 0
0, 0
0, 0
0, 0
0, 0
0, 0
0, 0
0, 0
0, 0
0, 0
0, 0
0, 0
0, 0
0, 0
1, 0
0, 0
0, 0
0, 0
0, 0
0, 0
0, 0
0, 0
0, 0
0, 0
0, 0
0, 0
0, 0
0, 0
0, 0
0, 0
0, 0
0, 0
0, 0
0, 0
0, 1
0, 0
0, 0
0, 0
0, 0
0, 0
0, 0
0, 0
0, 1
0, 0
0, 0
0, 0
0, 0
0, 0
0, 0
0, 0
0, 0
0, 0
0, 0
0, 0
0, 0
0, 0
0, 0
0, 0
0, 0
0, 0
0, 0
0, 0
0, 0
0, 0
0, 0
0, 0
0, 0
0, 0
0, 0
0, 0
0, 0
0, 0
0, 0
0, 0
0, 0
0, 0
0, 0
0, 0
0, 0
0, 0
0, 0
0, 0
0, 0
0, 0
0, 0
0, 0
0, 0
0, 0
0, 0
0, 0
0, 0
0, 0
0, 0
0, 0
0, 0
0, 0
0, 0
0, 0
0, 0
0, 0
0, 0
0, 0
0, 0
0, 0
0, 0
0, 0
0, 0
0, 0
0, 0
0, 0
0, 0
0, 0
0, 0
0, 0
0, 0
0, 0
0, 0
0, 0
0, 0
0, 0
0, 0
0, 0
0, 0
0, 0
0, 0
0, 0
0, 0
0, 0
0, 0
0, 0
0, 0
0, 0
0, 0
0, 0
0, 0
0, 0
0, 0
0, 0
0, 0
0, 0
0, 0
0, 0
0, 0
0, 0
0, 0
0, 0
0, 0
0, 0
0, 0
0, 0
0, 0
0, 0
0, 0
0, 0
0, 0
0, 0
0, 0
0, 0
0, 0
0, 0
0, 0
0, 0
0, 0
0, 0
0, 0
0, 0
0, 0
0, 0
0, 0
0, 0
0, 0
0, 0
0, 0
0, 0
0, 0
0, 0
0, 0
0, 0
0, 0
0, 0
0, 0
0, 0
0, 0
0, 0
0, 0
0, 0
0, 0
0, 0
0, 0
0, 0
0, 0
0, 0
0, 0
0, 0
0, 0
0, 0
0, 0
0, 0
0, 0
0, 0
0, 0
0, 0
0, 0
0, 0
0, 0
0, 0
0, 0
0, 0
0, 0
0, 0
0, 0
0, 0
0, 0
0, 0
0, 0
0, 0
0, 0
0, 0
0, 0
0, 0
0, 0
0, 0
0, 0
0, 0
0, 0
0, 0
0, 0
0, 0
0, 0
0, 0
0, 0
0, 0
0, 0
0, 0
0, 0
0, 0
0, 0
0, 0
0, 0
0, 0
0, 0
0, 0
0, 0
0, 0
0, 0
0, 0
0, 0
0, 0
0, 0
0, 0
0, 0
0, 0
0, 0
0, 0
0, 0
0, 0
0, 0
0, 0
0, 0
0, 0
0, 0
0, 0
0, 0
0, 0
0, 0
0, 0
0, 0
0, 0
0, 0
0, 0
0, 0
0, 0
0, 0
0, 0
0, 0
0, 0
0, 0
0, 0
0, 0
0, 0
0, 0
0, 0
0, 0
0, 0
0, 0
0, 0
0, 0
0, 0
0, 0
0, 0
0, 0
0, 0
0, 0
0, 0
0, 0
0, 0
0, 0
0, 0
0, 0
0, 0
0, 0
0, 0
0, 0
0, 0
0, 0
0, 0
0, 0
0, 0
0, 0
0, 0
0, 0
0, 0
0, 0
0, 0
0, 0
0, 0
0, 0
0, 0
0, 0
0, 0
0, 0
0, 0
0, 0
0, 0
0, 0
0, 0
0, 0
0, 0
0, 0
0, 0
0, 0
0, 0
0, 0
0, 0
0, 0
0, 0
0, 0
0, 0
0, 0
0, 0
0, 0
0, 0
0, 0
0, 0
0, 0
0, 0
0, 0
0, 0
0, 0
0, 0
0, 0
0, 0
0, 0
0, 0
0, 0
0, 0
0, 0
0, 0
0, 0
0, 0
0, 0
0, 0
0, 0
0, 0
0, 0
0, 0
0, 0
0, 0
0, 0
0, 0
0, 0
0, 0
0, 0
0, 0
0, 0
0, 0
0, 0
0, 0
0, 0
0, 0
0, 0
0, 0
0, 0
0, 0
0, 0
0, 0
0, 0
0, 0
0, 0
0, 0
0, 0
0, 0
0, 0
0, 0
0, 0
0, 0
0, 0
0, 0
0, 0
0, 0
0, 0
0, 0
0, 0
0, 0
0, 0
0, 0
0, 0
0, 0
0, 0
0, 0
0, 0
0, 0
0, 0
0, 0
0, 0
0, 0
0, 0
0, 0
0, 0
0, 0
0, 0
0, 0
0, 0
0, 0
0, 0
0, 0
0, 0
0, 0
0, 0
0, 0
0, 0
0, 0
0, 0
0, 0
0, 0
0, 0
0, 0
0, 0
#ENDOFDATA     end of spectrum data