File: host_upload/02-11-2024/rqc/uplink1/ps__0567_0717304816_000rfs_shot_73.msa
#FORMAT      : EMSA/MAS spectral data file
#VERSION     : TC202v2.0 PIXL
#TITLE       : Novarupta (sol567) subset1
#DATE        : 02-11-2024      Date in the format DD-MMM-YYYY, for example 07-JUL-2010
#TIME        :             The time of day at which the spectrum was recorded, in 24-hour format
#OWNER       : PIXL Flight Model       (PIXL will use this to indicate which instrument took the data.)
#NPOINTS     : 4096     Number of data points in the spectrum (This can be zero for configuration only files)
#NCOLUMNS    : 2     Number of data columns in the spectrum (This can be zero for configuration only files)
#XUNITS      : eV
#YUNITS      : COUNTS
#DATATYPE    : YY
#XPERCHAN    : 7.862, 7.881   eV per channel (separate by commas if more than one detector)
#OFFSET      : 18.5, -22.4         eV of first channel  (separate by commas if more than one detector
#SIGNALTYPE  : XRF
#YP_TEMP     : -1.902
#LIVETIME    : 8.84426, 8.82397   seconds (separate by commas if more than one detector)
#REALTIME    : 10, 10.0   seconds (separate by commas if more than one detector)
#SPECTRUM    : start of spectrum data
0, 0
0, 0
0, 0
0, 0
0, 0
0, 0
0, 0
0, 0
0, 0
0, 0
0, 0
0, 0
0, 0
0, 0
0, 0
0, 0
0, 0
0, 0
0, 0
0, 0
0, 0
0, 0
0, 0
0, 0
0, 0
0, 0
0, 0
0, 0
0, 0
0, 0
0, 0
0, 0
0, 0
1, 0
1, 2
1, 0
4, 1
3, 4
4, 1
1, 6
1, 2
3, 5
6, 1
1, 3
2, 7
3, 6
3, 4
2, 1
4, 3
3, 3
9, 12
17, 8
12, 7
18, 15
21, 12
8, 7
16, 11
13, 15
2, 16
14, 19
16, 23
20, 27
34, 40
47, 50
36, 55
36, 62
25, 44
50, 36
39, 41
72, 77
106, 128
180, 249
288, 343
398, 463
463, 538
463, 502
407, 412
328, 331
250, 217
142, 150
64, 98
60, 61
35, 39
33, 26
25, 30
33, 33
26, 43
32, 36
26, 27
21, 19
17, 27
17, 23
41, 28
46, 76
109, 94
137, 185
231, 252
311, 297
295, 321
309, 337
263, 295
193, 211
153, 160
100, 98
70, 83
50, 55
61, 55
75, 86
95, 103
121, 140
168, 182
223, 221
202, 239
230, 257
187, 193
164, 182
129, 140
90, 98
88, 103
60, 71
70, 76
83, 86
53, 55
46, 59
40, 45
35, 40
23, 25
25, 24
22, 19
23, 10
11, 10
8, 2
8, 7
14, 9
7, 8
8, 10
13, 16
13, 14
24, 28
28, 46
19, 34
34, 42
33, 38
30, 31
15, 18
13, 18
17, 19
10, 11
13, 24
23, 17
29, 32
57, 69
95, 132
151, 187
228, 280
309, 357
342, 387
349, 415
342, 334
308, 310
216, 193
164, 134
90, 115
52, 63
26, 32
23, 30
33, 25
39, 35
41, 49
49, 65
52, 67
55, 61
51, 63
47, 51
38, 43
28, 30
22, 18
9, 12
8, 17
14, 7
3, 10
8, 22
3, 6
13, 17
13, 15
13, 20
15, 21
20, 30
40, 38
38, 49
56, 53
50, 63
57, 66
45, 60
46, 61
51, 32
26, 37
33, 25
31, 22
16, 15
26, 15
21, 8
17, 11
17, 17
11, 21
23, 13
16, 18
20, 24
14, 14
17, 12
14, 18
21, 27
10, 17
18, 14
14, 16
15, 19
6, 7
8, 9
9, 7
8, 14
9, 16
10, 10
10, 16
12, 5
12, 10
13, 19
28, 23
30, 34
26, 27
22, 41
34, 34
31, 24
21, 24
20, 25
13, 18
11, 12
13, 17
7, 15
16, 16
9, 13
8, 14
8, 17
12, 8
14, 10
15, 23
25, 20
28, 35
27, 42
39, 32
42, 46
40, 42
40, 55
45, 52
44, 32
28, 32
36, 27
17, 19
18, 20
21, 19
17, 21
26, 28
48, 29
57, 60
94, 112
145, 189
263, 300
424, 550
700, 816
988, 1144
1273, 1413
1517, 1628
1686, 1747
1617, 1782
1431, 1559
1307, 1279
982, 1032
711, 668
494, 449
277, 260
146, 141
104, 96
53, 43
27, 27
18, 16
13, 13
15, 22
12, 13
20, 13
21, 14
13, 28
21, 33
40, 45
47, 51
73, 82
119, 107
144, 145
164, 218
189, 248
230, 278
256, 268
251, 273
210, 234
209, 196
141, 132
108, 95
63, 59
44, 47
31, 22
18, 19
7, 8
4, 12
5, 8
5, 8
11, 10
7, 15
16, 14
14, 15
15, 9
13, 16
5, 14
9, 12
10, 10
10, 10
6, 11
8, 6
5, 6
6, 6
4, 6
3, 10
6, 6
9, 7
1, 6
2, 6
3, 4
6, 5
4, 4
7, 11
7, 5
9, 9
3, 7
6, 4
6, 5
4, 4
6, 14
10, 5
5, 8
6, 3
4, 10
8, 5
6, 13
8, 8
8, 8
10, 15
7, 10
6, 6
7, 2
1, 6
4, 10
6, 5
7, 5
5, 5
4, 7
5, 8
8, 9
8, 7
12, 13
7, 8
8, 10
11, 8
9, 7
13, 11
8, 13
6, 7
5, 10
6, 8
6, 7
8, 6
4, 9
5, 9
3, 5
2, 6
8, 3
3, 5
3, 3
7, 6
3, 8
7, 7
8, 8
4, 8
4, 6
6, 7
9, 8
6, 5
2, 2
4, 5
6, 8
3, 4
6, 8
3, 9
6, 6
8, 4
5, 2
3, 5
0, 9
4, 6
6, 7
2, 5
5, 4
5, 7
3, 1
4, 6
4, 5
8, 6
6, 3
3, 5
3, 4
3, 6
2, 3
7, 2
3, 3
3, 6
2, 4
7, 7
4, 5
1, 6
6, 3
3, 3
5, 4
5, 4
5, 5
7, 3
5, 6
1, 8
1, 4
4, 3
1, 2
3, 2
6, 5
3, 8
3, 1
2, 4
5, 5
4, 2
7, 2
4, 8
4, 7
4, 3
2, 3
4, 4
1, 7
3, 0
3, 3
2, 9
2, 3
1, 2
3, 5
6, 5
3, 6
4, 6
6, 6
4, 4
4, 3
0, 3
1, 3
2, 2
1, 1
2, 2
4, 2
1, 3
4, 1
3, 3
0, 2
2, 5
0, 4
2, 4
7, 1
4, 6
1, 1
0, 0
0, 2
2, 1
4, 1
2, 1
2, 2
5, 6
2, 2
3, 7
5, 7
2, 2
6, 3
2, 0
1, 0
0, 2
3, 2
4, 1
6, 3
0, 1
3, 4
2, 4
3, 0
2, 5
3, 3
1, 4
2, 2
2, 0
3, 0
3, 4
2, 3
0, 5
3, 1
3, 2
2, 5
0, 2
3, 1
1, 2
0, 1
0, 2
1, 4
0, 4
4, 3
7, 1
1, 0
0, 3
1, 2
2, 1
1, 0
3, 2
2, 5
4, 2
4, 1
2, 1
0, 2
2, 2
0, 4
4, 5
2, 0
0, 2
3, 1
1, 2
2, 4
3, 5
3, 1
6, 4
6, 5
5, 5
2, 1
2, 0
0, 1
2, 4
1, 4
4, 0
0, 3
2, 2
1, 1
3, 2
1, 1
1, 1
1, 0
2, 0
2, 2
2, 4
6, 2
1, 2
3, 2
3, 3
0, 1
2, 1
1, 3
2, 2
1, 1
1, 0
1, 2
0, 2
1, 1
2, 4
4, 2
1, 1
1, 1
0, 1
1, 2
2, 2
0, 3
1, 1
1, 2
3, 3
0, 1
1, 1
1, 1
2, 4
6, 1
0, 0
0, 3
2, 1
0, 1
0, 0
2, 0
4, 1
2, 2
1, 1
4, 2
2, 1
2, 2
0, 0
1, 1
3, 0
1, 0
3, 2
1, 2
1, 1
0, 0
2, 0
1, 1
0, 0
0, 0
0, 2
0, 1
0, 1
0, 2
0, 0
3, 0
1, 0
1, 1
0, 0
0, 0
0, 2
2, 0
2, 1
0, 0
0, 0
3, 1
1, 0
1, 1
0, 3
0, 2
0, 2
0, 0
2, 2
1, 0
1, 1
1, 0
1, 3
1, 1
2, 2
0, 1
2, 1
1, 2
0, 0
0, 1
0, 1
0, 0
0, 0
1, 0
1, 0
0, 0
0, 0
1, 1
0, 1
1, 0
0, 3
1, 4
0, 1
0, 0
2, 2
1, 0
1, 0
1, 1
0, 0
2, 1
0, 2
1, 0
0, 0
0, 0
1, 1
1, 1
3, 0
0, 0
0, 0
0, 1
0, 2
1, 1
1, 1
1, 2
3, 0
1, 0
1, 0
1, 0
0, 1
0, 1
0, 0
0, 0
0, 0
0, 0
1, 0
0, 1
0, 1
1, 0
0, 0
0, 0
0, 0
0, 1
0, 0
0, 0
0, 0
0, 1
0, 0
0, 0
0, 0
0, 1
1, 0
0, 1
0, 0
1, 0
0, 0
1, 1
1, 0
0, 0
1, 0
0, 0
0, 0
0, 0
1, 0
0, 0
0, 0
0, 1
0, 0
1, 0
1, 0
1, 0
0, 0
0, 0
0, 0
1, 1
0, 0
0, 1
0, 0
0, 0
0, 0
0, 0
1, 0
0, 1
0, 1
1, 0
0, 0
0, 0
1, 0
0, 0
1, 0
1, 0
1, 0
1, 0
2, 0
0, 0
1, 0
0, 0
0, 1
1, 0
0, 0
1, 0
1, 0
0, 0
1, 0
0, 0
0, 0
0, 0
0, 0
0, 0
0, 0
0, 0
0, 0
1, 0
2, 0
0, 1
0, 0
0, 0
0, 1
0, 0
0, 0
0, 0
0, 0
0, 0
0, 0
0, 0
0, 0
0, 0
0, 0
0, 0
0, 0
0, 1
0, 0
0, 0
0, 1
0, 0
0, 0
0, 0
1, 0
0, 1
0, 0
0, 1
0, 1
0, 0
0, 1
1, 0
0, 1
0, 0
0, 0
0, 1
0, 0
0, 0
0, 2
0, 1
0, 0
1, 1
0, 0
0, 0
1, 0
0, 0
0, 0
0, 0
0, 0
0, 0
0, 1
0, 0
1, 0
0, 0
0, 0
0, 0
0, 1
0, 0
0, 0
0, 0
0, 0
0, 0
0, 0
1, 1
0, 0
0, 0
0, 0
0, 0
0, 0
0, 0
0, 1
0, 0
0, 0
0, 0
1, 0
1, 1
0, 0
1, 0
0, 1
1, 0
0, 0
1, 0
1, 0
0, 1
0, 1
0, 0
0, 0
0, 1
0, 0
2, 0
0, 0
0, 0
0, 0
0, 0
0, 0
0, 0
0, 0
0, 0
0, 0
0, 0
0, 1
0, 0
0, 0
0, 0
0, 0
0, 0
0, 0
0, 0
0, 0
0, 0
0, 0
0, 0
0, 0
0, 0
0, 0
0, 0
0, 0
0, 0
0, 0
0, 0
0, 0
0, 0
0, 0
0, 0
0, 0
0, 0
0, 0
0, 0
0, 0
0, 0
0, 0
1, 0
0, 0
0, 0
0, 0
0, 1
0, 0
0, 0
0, 0
0, 0
0, 0
0, 1
0, 0
0, 0
0, 0
0, 0
0, 0
0, 0
0, 0
0, 0
0, 0
0, 0
0, 0
0, 0
0, 0
0, 0
0, 0
0, 0
0, 0
0, 0
0, 0
0, 0
0, 1
0, 0
1, 0
0, 0
0, 0
0, 0
0, 0
0, 0
0, 0
0, 0
0, 0
0, 0
0, 0
0, 0
0, 0
0, 0
0, 0
0, 0
0, 0
0, 0
0, 0
0, 0
0, 0
0, 0
0, 0
0, 0
0, 0
0, 0
0, 0
0, 0
0, 0
0, 0
0, 0
0, 0
0, 0
0, 0
0, 0
0, 0
0, 0
0, 0
0, 0
0, 0
0, 0
0, 0
0, 0
0, 0
0, 0
0, 0
0, 0
0, 0
0, 0
0, 0
0, 0
0, 0
0, 0
0, 0
0, 0
0, 0
0, 0
0, 0
0, 0
0, 0
0, 0
0, 0
0, 0
0, 0
0, 0
0, 0
0, 0
0, 0
0, 0
0, 0
0, 0
0, 0
0, 0
0, 0
0, 0
0, 0
0, 0
0, 0
0, 0
0, 0
0, 0
0, 0
0, 0
0, 0
0, 0
0, 0
0, 1
0, 0
0, 0
0, 0
0, 0
0, 0
0, 0
0, 0
0, 0
0, 0
0, 0
0, 0
0, 0
0, 0
0, 0
0, 0
0, 0
0, 0
0, 0
0, 0
0, 0
0, 0
0, 0
0, 0
0, 0
0, 0
0, 0
0, 0
0, 0
0, 0
0, 0
0, 0
0, 0
0, 0
0, 0
0, 0
0, 0
0, 0
0, 0
0, 0
0, 0
0, 0
0, 0
0, 0
0, 0
0, 0
0, 0
0, 0
0, 0
0, 0
0, 0
0, 0
0, 0
0, 0
0, 0
0, 0
0, 0
0, 0
0, 0
0, 0
0, 0
0, 0
0, 0
0, 0
0, 0
0, 0
0, 0
0, 0
0, 0
0, 0
0, 0
0, 0
0, 0
0, 0
0, 0
0, 0
0, 0
0, 0
0, 0
0, 0
0, 0
0, 0
0, 0
0, 0
0, 0
0, 0
0, 0
0, 0
0, 0
0, 0
0, 0
0, 0
0, 0
0, 0
0, 0
0, 0
0, 0
0, 0
0, 0
0, 0
0, 0
0, 0
0, 0
0, 0
0, 0
0, 0
0, 0
0, 0
0, 0
0, 0
0, 0
0, 0
0, 0
0, 0
0, 0
0, 0
0, 0
0, 0
0, 0
0, 0
0, 0
0, 0
0, 0
0, 0
0, 0
0, 0
0, 0
0, 0
0, 0
0, 0
0, 0
0, 0
0, 0
0, 0
0, 0
0, 0
0, 0
0, 0
0, 0
0, 0
0, 0
0, 0
0, 0
0, 0
0, 0
0, 0
0, 0
0, 0
0, 0
0, 0
0, 0
0, 0
0, 0
0, 0
0, 0
0, 0
0, 0
0, 0
0, 0
0, 0
0, 0
0, 0
0, 0
0, 0
0, 0
0, 0
0, 0
0, 0
0, 0
0, 0
0, 0
0, 0
0, 0
0, 0
0, 0
0, 0
0, 0
0, 0
0, 0
0, 0
0, 0
0, 0
0, 0
0, 0
0, 0
0, 0
0, 0
0, 0
0, 0
0, 0
0, 0
0, 0
0, 0
0, 0
0, 0
0, 0
0, 0
0, 0
0, 0
0, 0
0, 0
0, 0
0, 0
0, 0
0, 0
0, 0
0, 0
0, 0
0, 0
0, 0
0, 0
0, 0
0, 0
0, 0
0, 0
0, 0
0, 0
0, 0
0, 0
0, 0
0, 0
0, 0
0, 0
0, 0
0, 0
0, 0
0, 0
0, 0
0, 0
0, 0
0, 0
0, 0
0, 0
0, 0
0, 0
0, 0
0, 0
0, 0
0, 0
0, 0
0, 0
0, 0
0, 0
0, 0
0, 0
0, 0
0, 0
0, 0
0, 0
0, 0
0, 0
0, 0
0, 0
0, 0
0, 0
0, 0
0, 0
0, 0
0, 0
0, 0
0, 0
0, 0
0, 0
0, 0
0, 0
0, 0
0, 0
0, 0
0, 0
0, 0
0, 0
0, 0
0, 0
0, 0
0, 0
0, 0
0, 0
0, 0
0, 0
0, 0
0, 0
0, 0
0, 0
0, 0
0, 0
0, 0
0, 0
0, 0
0, 0
0, 0
0, 0
0, 0
0, 0
0, 0
0, 0
0, 0
0, 0
0, 0
0, 0
0, 0
0, 0
0, 0
0, 0
0, 0
0, 0
0, 0
0, 0
0, 0
0, 0
0, 0
0, 0
0, 0
0, 0
0, 0
0, 0
0, 0
0, 0
0, 0
0, 0
0, 0
0, 0
0, 0
0, 0
0, 0
0, 0
0, 0
0, 0
0, 0
0, 0
0, 0
0, 0
0, 0
0, 0
0, 0
0, 0
0, 0
0, 0
0, 0
0, 0
0, 0
0, 0
0, 0
0, 0
0, 0
0, 0
0, 0
#ENDOFDATA     end of spectrum data