File: host_upload/02-11-2024/rqc/uplink1/ps__0567_0717304816_000rfs_shot_304.msa
#FORMAT      : EMSA/MAS spectral data file
#VERSION     : TC202v2.0 PIXL
#TITLE       : Novarupta (sol567) subset1
#DATE        : 02-11-2024      Date in the format DD-MMM-YYYY, for example 07-JUL-2010
#TIME        :             The time of day at which the spectrum was recorded, in 24-hour format
#OWNER       : PIXL Flight Model       (PIXL will use this to indicate which instrument took the data.)
#NPOINTS     : 4096     Number of data points in the spectrum (This can be zero for configuration only files)
#NCOLUMNS    : 2     Number of data columns in the spectrum (This can be zero for configuration only files)
#XUNITS      : eV
#YUNITS      : COUNTS
#DATATYPE    : YY
#XPERCHAN    : 7.862, 7.881   eV per channel (separate by commas if more than one detector)
#OFFSET      : 18.5, -22.4         eV of first channel  (separate by commas if more than one detector
#SIGNALTYPE  : XRF
#YP_TEMP     : 1.466
#LIVETIME    : 8.8446, 8.80828   seconds (separate by commas if more than one detector)
#REALTIME    : 10, 10.0   seconds (separate by commas if more than one detector)
#SPECTRUM    : start of spectrum data
0, 0
0, 0
0, 0
0, 0
0, 0
0, 0
0, 0
0, 0
0, 0
0, 0
0, 0
0, 0
0, 0
0, 0
0, 0
0, 0
0, 0
0, 0
0, 0
0, 0
0, 0
0, 0
0, 0
0, 0
0, 0
0, 0
0, 1
0, 0
0, 0
0, 0
1, 0
0, 1
0, 1
1, 1
1, 1
1, 0
3, 2
2, 2
2, 3
5, 5
4, 7
5, 5
4, 4
3, 5
5, 4
2, 4
1, 6
1, 0
2, 4
4, 3
7, 3
7, 10
17, 14
14, 20
17, 16
9, 13
11, 19
6, 7
8, 6
10, 11
19, 16
24, 27
33, 38
47, 48
50, 49
33, 41
34, 40
29, 33
35, 39
54, 63
115, 124
172, 209
246, 386
356, 461
412, 561
483, 519
390, 450
306, 340
198, 241
128, 159
62, 87
48, 47
27, 34
22, 37
27, 46
31, 39
30, 34
34, 36
27, 32
14, 25
11, 19
17, 18
23, 28
31, 45
75, 114
123, 159
199, 247
252, 305
289, 336
293, 334
248, 320
219, 278
140, 181
99, 113
76, 67
55, 69
50, 57
62, 80
81, 108
115, 139
118, 188
183, 239
209, 282
192, 232
214, 216
152, 180
131, 151
84, 101
85, 83
67, 95
74, 77
71, 80
70, 65
53, 52
58, 44
34, 52
24, 22
28, 17
20, 20
10, 10
14, 10
9, 6
5, 12
5, 9
8, 5
6, 13
10, 15
10, 18
13, 28
28, 34
27, 38
22, 38
33, 46
19, 34
23, 20
12, 21
10, 12
9, 8
10, 12
10, 14
16, 35
47, 66
80, 96
136, 166
184, 303
248, 341
298, 394
337, 433
351, 456
303, 357
253, 248
148, 186
98, 118
52, 70
31, 37
25, 39
30, 39
29, 30
35, 58
51, 54
61, 66
45, 71
58, 80
42, 59
45, 48
26, 18
19, 9
10, 10
9, 16
11, 10
8, 11
7, 11
5, 11
7, 12
12, 16
6, 13
17, 20
23, 34
29, 43
34, 35
43, 78
48, 65
53, 86
56, 71
47, 62
29, 47
44, 33
20, 31
15, 23
15, 23
8, 16
9, 12
16, 21
10, 13
8, 11
16, 14
15, 22
9, 19
11, 19
22, 19
21, 18
15, 14
19, 14
13, 14
17, 14
12, 14
9, 21
11, 9
10, 17
4, 13
6, 7
13, 12
13, 14
12, 19
19, 12
11, 15
11, 20
12, 28
25, 23
24, 32
29, 22
29, 30
13, 31
20, 27
18, 20
12, 13
12, 20
14, 12
6, 12
8, 14
12, 15
8, 13
12, 20
12, 13
10, 18
20, 28
18, 27
21, 31
41, 42
44, 57
42, 59
40, 59
47, 42
33, 48
35, 27
27, 30
20, 31
18, 25
19, 19
20, 19
18, 25
20, 31
41, 49
57, 82
108, 148
221, 291
325, 516
492, 741
827, 1132
1051, 1439
1352, 1716
1473, 1954
1627, 1989
1549, 1784
1416, 1512
1100, 1184
749, 815
594, 537
343, 325
198, 195
113, 96
54, 67
34, 44
31, 22
24, 19
15, 16
21, 20
13, 16
21, 13
14, 20
20, 37
22, 41
35, 38
52, 69
89, 103
99, 145
160, 199
197, 232
208, 283
259, 298
259, 276
246, 277
218, 207
177, 166
130, 126
92, 87
65, 50
33, 38
19, 17
15, 13
9, 6
7, 6
13, 11
10, 10
12, 12
11, 12
4, 17
11, 16
10, 15
7, 21
13, 11
7, 7
8, 10
7, 7
7, 7
4, 10
9, 6
3, 10
6, 4
5, 4
6, 9
5, 7
6, 3
4, 5
3, 11
12, 6
6, 8
5, 15
10, 2
2, 10
5, 6
3, 6
4, 9
10, 12
7, 9
6, 9
6, 7
9, 9
8, 12
10, 4
9, 6
5, 9
5, 12
9, 5
8, 7
5, 3
6, 12
3, 8
2, 5
2, 6
5, 7
9, 11
8, 3
6, 10
8, 6
9, 11
8, 13
10, 8
9, 13
10, 11
16, 7
7, 10
4, 4
3, 6
4, 9
4, 9
4, 6
4, 5
4, 2
2, 5
6, 6
6, 7
7, 5
5, 7
4, 7
5, 6
6, 6
5, 5
8, 2
1, 5
6, 5
6, 5
4, 11
4, 4
4, 9
6, 5
8, 8
5, 8
5, 2
6, 6
6, 7
7, 2
3, 6
5, 8
3, 7
4, 8
1, 5
1, 8
5, 8
2, 2
6, 5
4, 6
6, 7
5, 6
2, 5
4, 6
2, 3
3, 6
6, 8
6, 3
1, 7
4, 4
3, 2
9, 3
4, 5
2, 7
2, 8
5, 4
6, 6
4, 6
7, 6
4, 7
2, 6
4, 2
5, 5
5, 4
7, 4
0, 5
6, 3
4, 5
3, 6
5, 4
2, 4
9, 6
4, 1
1, 3
6, 5
3, 3
5, 6
3, 7
3, 7
1, 6
2, 1
7, 9
3, 2
3, 4
4, 3
0, 2
3, 4
2, 4
4, 6
3, 3
3, 5
6, 3
3, 9
1, 4
5, 2
3, 1
3, 2
2, 5
1, 4
3, 7
1, 3
5, 4
2, 2
2, 1
2, 5
1, 1
5, 5
1, 4
4, 4
1, 2
1, 0
2, 5
0, 1
2, 4
2, 1
4, 5
4, 6
0, 1
4, 6
1, 3
2, 3
6, 2
3, 2
1, 0
0, 1
2, 2
5, 5
3, 4
1, 3
0, 3
2, 5
1, 3
1, 7
3, 5
2, 2
6, 3
1, 1
1, 1
3, 1
4, 3
2, 1
0, 0
1, 3
1, 0
2, 3
0, 1
2, 1
0, 2
1, 3
2, 7
1, 2
3, 3
0, 1
0, 3
1, 2
4, 2
0, 5
2, 3
0, 2
4, 2
1, 3
1, 2
1, 3
3, 2
3, 1
2, 2
2, 6
4, 6
3, 3
3, 2
7, 4
1, 3
3, 3
0, 4
4, 4
4, 2
3, 4
1, 1
1, 1
3, 0
2, 3
1, 2
1, 2
3, 2
0, 3
0, 3
1, 3
2, 3
1, 1
2, 0
3, 1
3, 0
1, 0
0, 0
3, 2
1, 2
1, 3
0, 1
0, 3
0, 0
0, 2
0, 4
2, 2
0, 2
1, 3
3, 2
1, 4
1, 0
0, 1
0, 0
0, 2
0, 0
0, 2
1, 2
1, 1
0, 1
1, 5
1, 0
1, 4
0, 1
1, 2
0, 3
1, 1
2, 3
0, 2
1, 1
0, 0
1, 0
3, 2
1, 1
0, 0
1, 1
3, 5
1, 2
1, 1
2, 0
1, 3
0, 2
1, 2
5, 2
2, 1
1, 2
0, 0
2, 2
0, 5
0, 0
2, 0
0, 1
0, 0
2, 0
0, 0
2, 0
0, 2
0, 0
2, 3
1, 0
1, 1
0, 3
0, 0
1, 1
1, 1
0, 1
2, 2
1, 4
1, 0
1, 1
0, 0
1, 1
2, 0
2, 1
0, 1
3, 1
1, 0
1, 0
0, 0
0, 1
1, 2
0, 2
0, 3
0, 0
0, 2
0, 2
1, 0
2, 0
0, 1
1, 1
0, 2
0, 1
0, 0
1, 2
0, 0
0, 1
0, 0
0, 0
0, 1
1, 0
0, 0
0, 1
1, 2
0, 0
0, 0
0, 0
1, 1
1, 2
0, 0
1, 1
0, 0
1, 2
4, 0
1, 0
0, 0
0, 1
0, 2
0, 1
0, 2
2, 0
0, 1
1, 0
1, 2
3, 1
0, 0
0, 0
2, 0
0, 0
1, 1
1, 0
1, 0
0, 0
1, 1
1, 0
2, 0
1, 0
0, 1
0, 0
0, 0
0, 2
0, 0
1, 1
0, 1
0, 0
2, 1
0, 1
1, 0
2, 0
1, 1
0, 0
0, 1
0, 0
0, 0
0, 0
0, 0
0, 0
0, 0
0, 1
1, 0
1, 0
0, 1
0, 2
0, 0
0, 0
0, 1
0, 0
1, 1
1, 0
0, 0
0, 0
1, 0
1, 0
0, 1
0, 0
0, 1
0, 0
1, 0
0, 0
0, 0
0, 0
0, 0
2, 0
0, 0
3, 0
0, 0
0, 0
0, 0
0, 0
0, 0
1, 0
1, 0
0, 1
1, 0
1, 0
0, 0
0, 0
0, 0
0, 0
0, 0
0, 0
0, 0
1, 0
0, 0
1, 0
0, 0
0, 1
0, 1
1, 0
0, 0
0, 0
0, 0
1, 1
0, 0
0, 0
0, 1
0, 0
0, 1
0, 0
0, 0
0, 0
0, 1
4, 2
0, 0
0, 1
0, 0
0, 1
0, 1
0, 0
0, 0
0, 2
0, 0
0, 0
0, 0
1, 0
0, 0
1, 0
0, 0
0, 1
0, 0
0, 1
0, 0
1, 0
1, 0
0, 0
0, 0
0, 0
0, 1
0, 1
1, 0
0, 0
0, 0
0, 0
0, 1
0, 0
0, 0
0, 0
0, 0
0, 0
1, 0
0, 1
1, 1
0, 0
0, 0
0, 0
0, 0
0, 0
0, 0
0, 0
0, 1
0, 0
2, 0
1, 1
0, 1
0, 0
0, 0
0, 0
0, 0
0, 0
1, 0
0, 1
0, 0
0, 1
0, 0
0, 0
0, 0
1, 1
0, 0
0, 0
0, 0
0, 0
0, 0
0, 0
0, 0
0, 0
0, 0
0, 0
1, 0
0, 0
0, 0
0, 0
0, 0
0, 0
0, 0
0, 0
0, 0
0, 0
0, 0
0, 0
0, 0
0, 0
0, 0
0, 0
0, 0
0, 0
0, 0
0, 0
0, 0
1, 0
0, 0
0, 0
0, 0
0, 0
0, 0
0, 0
0, 0
0, 0
0, 0
0, 0
0, 0
0, 0
0, 0
0, 0
0, 0
0, 0
0, 0
0, 0
0, 0
0, 0
1, 0
0, 0
0, 0
0, 0
0, 0
0, 0
0, 0
0, 0
0, 0
0, 0
0, 0
0, 0
0, 0
0, 0
0, 0
0, 0
0, 0
0, 0
0, 0
0, 1
0, 0
0, 0
0, 0
0, 0
1, 0
0, 0
0, 0
0, 0
0, 0
0, 0
0, 0
1, 0
0, 0
0, 0
0, 0
0, 0
0, 0
0, 0
0, 0
0, 0
0, 0
0, 0
0, 0
0, 0
0, 0
0, 1
0, 0
0, 0
0, 0
0, 0
1, 0
0, 0
0, 0
0, 0
0, 0
0, 0
0, 0
0, 0
0, 0
0, 0
0, 0
0, 0
0, 0
0, 0
0, 0
0, 0
0, 0
0, 0
0, 0
0, 0
0, 0
0, 0
0, 0
0, 0
0, 0
0, 0
0, 0
0, 1
0, 0
0, 0
0, 0
0, 0
0, 0
0, 0
0, 0
0, 0
0, 0
0, 0
0, 0
0, 0
0, 0
0, 0
0, 0
0, 0
0, 0
0, 0
0, 0
0, 0
0, 0
0, 0
0, 0
0, 0
0, 0
0, 0
0, 0
0, 0
0, 0
0, 0
0, 0
0, 0
0, 0
0, 0
0, 0
0, 0
0, 0
0, 0
0, 0
0, 0
0, 0
0, 0
0, 0
0, 0
0, 0
0, 0
0, 0
0, 0
0, 0
0, 0
0, 0
0, 0
0, 0
0, 0
0, 0
0, 0
0, 0
0, 0
0, 0
0, 0
0, 0
0, 0
0, 0
0, 0
0, 0
0, 0
0, 0
0, 0
0, 0
0, 0
0, 0
0, 0
0, 0
0, 0
0, 0
0, 0
0, 0
0, 0
0, 0
0, 0
0, 0
0, 0
0, 0
0, 0
0, 0
0, 0
0, 0
0, 0
0, 0
0, 0
0, 0
0, 0
0, 0
0, 0
0, 0
0, 0
0, 0
0, 0
0, 0
0, 0
0, 0
0, 0
0, 0
0, 0
0, 0
0, 0
0, 0
0, 0
0, 0
0, 0
0, 0
0, 0
0, 0
0, 0
0, 0
0, 0
0, 0
0, 0
0, 0
0, 0
0, 0
0, 0
0, 0
0, 0
0, 0
0, 0
0, 0
0, 0
0, 0
0, 0
0, 0
0, 0
0, 0
0, 0
0, 0
0, 0
0, 0
0, 0
0, 0
0, 0
0, 0
0, 0
0, 0
0, 0
0, 0
0, 0
0, 0
0, 0
0, 0
0, 0
0, 0
0, 0
0, 0
0, 0
0, 0
0, 0
0, 0
0, 0
0, 0
0, 0
0, 0
0, 0
0, 0
0, 0
0, 0
0, 0
0, 0
0, 0
0, 0
0, 0
0, 0
0, 0
0, 0
0, 0
0, 0
0, 0
0, 0
0, 0
0, 0
0, 0
0, 0
0, 0
0, 0
0, 0
0, 0
0, 0
0, 0
0, 0
0, 0
0, 0
0, 0
0, 0
0, 0
0, 0
0, 0
0, 0
0, 0
0, 0
0, 0
0, 0
0, 0
0, 0
0, 0
0, 0
0, 0
0, 0
0, 0
0, 0
0, 0
0, 0
0, 0
0, 0
0, 0
0, 0
0, 0
0, 0
0, 0
0, 0
0, 0
0, 0
0, 0
0, 0
0, 0
0, 0
0, 0
0, 0
0, 0
0, 0
0, 0
0, 0
0, 0
0, 0
0, 0
0, 0
0, 0
0, 0
0, 0
0, 0
0, 0
0, 0
0, 0
0, 0
0, 0
0, 0
0, 0
0, 0
0, 0
0, 0
0, 0
0, 0
0, 0
0, 0
0, 0
0, 0
0, 0
0, 0
0, 0
0, 0
0, 0
0, 0
0, 0
0, 0
0, 0
0, 0
0, 0
0, 0
0, 0
0, 0
0, 0
0, 0
0, 0
0, 0
0, 0
0, 0
0, 0
0, 0
0, 0
0, 0
0, 0
0, 0
0, 0
0, 0
0, 0
0, 0
0, 0
0, 0
0, 0
0, 0
0, 0
0, 0
0, 0
0, 0
0, 0
0, 0
0, 0
0, 0
0, 0
0, 0
0, 0
0, 0
0, 0
0, 0
0, 0
0, 0
0, 0
0, 0
0, 0
0, 0
0, 0
0, 0
0, 0
0, 0
0, 0
0, 0
0, 0
0, 0
0, 0
0, 0
0, 0
0, 0
0, 0
0, 0
0, 0
0, 0
0, 0
0, 0
0, 0
0, 0
0, 0
0, 0
0, 0
0, 0
0, 0
0, 0
0, 0
0, 0
0, 0
0, 0
0, 0
0, 0
0, 0
0, 0
0, 0
0, 0
0, 0
0, 0
0, 0
0, 0
0, 0
0, 0
0, 0
0, 0
0, 0
0, 0
0, 0
0, 0
0, 0
0, 0
0, 0
0, 0
0, 0
0, 0
0, 0
0, 0
0, 0
0, 0
0, 0
0, 0
0, 0
0, 0
0, 0
0, 0
0, 0
0, 0
0, 0
0, 0
0, 0
0, 0
0, 0
0, 0
0, 0
0, 0
#ENDOFDATA     end of spectrum data