File: host_upload/02-11-2024/rqc/uplink1/ps__0567_0717304816_000rfs_shot_483.msa
#FORMAT      : EMSA/MAS spectral data file
#VERSION     : TC202v2.0 PIXL
#TITLE       : Novarupta (sol567) subset1
#DATE        : 02-11-2024      Date in the format DD-MMM-YYYY, for example 07-JUL-2010
#TIME        :             The time of day at which the spectrum was recorded, in 24-hour format
#OWNER       : PIXL Flight Model       (PIXL will use this to indicate which instrument took the data.)
#NPOINTS     : 4096     Number of data points in the spectrum (This can be zero for configuration only files)
#NCOLUMNS    : 2     Number of data columns in the spectrum (This can be zero for configuration only files)
#XUNITS      : eV
#YUNITS      : COUNTS
#DATATYPE    : YY
#XPERCHAN    : 7.862, 7.881   eV per channel (separate by commas if more than one detector)
#OFFSET      : 18.5, -22.4         eV of first channel  (separate by commas if more than one detector
#SIGNALTYPE  : XRF
#YP_TEMP     : 2.107
#LIVETIME    : 8.83311, 8.64796   seconds (separate by commas if more than one detector)
#REALTIME    : 10, 10.0   seconds (separate by commas if more than one detector)
#SPECTRUM    : start of spectrum data
0, 0
0, 0
0, 0
0, 0
0, 0
0, 0
0, 0
0, 0
0, 0
0, 0
0, 0
0, 0
0, 0
0, 0
0, 0
0, 0
0, 0
0, 0
0, 0
0, 0
0, 0
0, 0
0, 0
0, 0
0, 0
0, 0
0, 0
0, 0
0, 1
1, 0
1, 0
0, 0
0, 0
0, 0
3, 0
1, 5
0, 1
6, 8
4, 3
2, 5
5, 9
3, 5
4, 6
2, 1
2, 4
2, 5
2, 3
2, 1
6, 3
3, 3
6, 7
6, 9
12, 18
19, 11
26, 18
23, 18
9, 10
12, 13
8, 13
7, 8
16, 22
25, 40
31, 41
38, 52
41, 54
45, 64
39, 43
42, 34
33, 45
42, 68
103, 113
173, 225
307, 332
441, 436
492, 578
483, 538
427, 467
311, 346
177, 253
129, 149
74, 111
49, 40
48, 23
32, 34
24, 31
37, 40
41, 40
25, 35
26, 20
29, 24
22, 12
19, 19
16, 24
33, 30
64, 78
126, 140
181, 210
239, 288
277, 336
285, 332
243, 301
222, 217
142, 171
90, 115
76, 81
43, 45
59, 58
68, 82
76, 104
130, 135
159, 206
191, 222
210, 254
211, 222
238, 190
156, 175
141, 122
116, 123
86, 102
83, 92
67, 76
82, 80
65, 71
57, 57
47, 54
38, 30
21, 28
23, 36
19, 21
17, 10
11, 9
8, 14
7, 8
11, 9
8, 12
6, 8
7, 10
16, 10
18, 23
17, 19
28, 29
21, 32
25, 34
28, 24
23, 28
14, 20
12, 12
9, 12
11, 11
20, 11
24, 32
47, 48
90, 82
114, 172
180, 206
245, 303
303, 407
322, 400
315, 356
311, 290
254, 251
153, 151
107, 99
55, 52
40, 36
21, 30
23, 28
37, 33
32, 43
48, 45
41, 76
66, 76
56, 58
41, 57
33, 31
25, 29
21, 17
15, 14
13, 10
6, 10
11, 15
11, 5
11, 10
9, 10
11, 11
13, 15
20, 15
24, 24
29, 38
37, 52
53, 55
59, 69
62, 82
61, 73
38, 66
33, 51
44, 30
36, 30
23, 35
24, 22
16, 20
15, 13
10, 11
9, 11
9, 17
8, 15
10, 19
11, 20
23, 24
21, 21
20, 17
17, 13
11, 16
17, 14
17, 13
12, 14
8, 16
13, 11
10, 9
13, 10
12, 10
9, 13
10, 15
11, 14
13, 12
22, 17
24, 27
27, 37
20, 30
22, 28
23, 24
40, 38
28, 17
35, 30
24, 16
23, 19
13, 18
7, 14
17, 11
10, 16
12, 17
11, 11
14, 17
12, 12
15, 23
24, 30
23, 29
32, 39
33, 58
40, 39
47, 52
36, 64
49, 57
45, 44
35, 41
30, 41
21, 21
21, 20
18, 14
15, 20
23, 23
19, 26
38, 50
61, 90
88, 163
210, 295
344, 505
541, 723
830, 1028
1098, 1429
1423, 1653
1562, 1865
1681, 1993
1589, 1751
1504, 1513
1182, 1168
904, 875
618, 577
384, 368
219, 193
128, 100
69, 64
33, 35
13, 25
21, 14
14, 18
14, 21
16, 22
22, 16
20, 24
29, 36
29, 44
31, 45
51, 61
72, 115
103, 164
156, 205
182, 239
236, 273
256, 296
257, 276
249, 245
192, 222
181, 140
149, 122
100, 93
68, 61
34, 32
21, 20
22, 16
6, 9
10, 7
7, 12
6, 7
14, 8
13, 13
8, 8
12, 15
12, 11
11, 11
2, 12
7, 9
7, 13
10, 10
10, 8
2, 8
9, 8
4, 5
3, 9
8, 7
7, 8
5, 4
5, 7
3, 7
6, 7
5, 11
5, 10
8, 7
9, 7
5, 2
3, 4
7, 6
8, 4
4, 12
5, 11
7, 10
3, 11
8, 5
10, 9
7, 7
11, 9
10, 12
14, 9
11, 5
4, 9
7, 8
5, 4
6, 10
6, 6
4, 2
2, 11
6, 8
6, 10
7, 12
7, 6
15, 16
6, 9
5, 15
11, 14
13, 17
5, 8
14, 7
11, 7
7, 7
3, 8
8, 7
5, 6
3, 4
9, 8
6, 2
5, 6
6, 2
3, 5
5, 6
3, 10
8, 10
6, 5
6, 8
8, 5
2, 8
6, 3
5, 5
4, 6
4, 9
4, 9
2, 4
6, 3
6, 8
8, 4
1, 5
10, 5
7, 3
5, 8
3, 10
3, 3
10, 4
4, 8
7, 3
7, 6
4, 3
4, 11
3, 9
7, 2
5, 8
4, 3
2, 7
2, 3
0, 2
4, 9
4, 3
4, 4
4, 5
6, 8
5, 3
3, 7
5, 6
7, 4
4, 7
7, 6
3, 5
5, 5
4, 5
2, 7
3, 8
4, 2
3, 0
5, 7
4, 7
3, 3
5, 10
2, 5
3, 3
3, 7
2, 7
5, 4
3, 2
2, 2
4, 3
4, 5
1, 3
5, 4
2, 4
6, 0
2, 1
2, 5
2, 3
6, 3
5, 3
2, 6
3, 5
3, 6
6, 2
3, 2
2, 4
2, 2
7, 3
5, 2
4, 4
2, 3
1, 3
3, 2
4, 5
2, 3
1, 4
2, 3
2, 3
2, 3
3, 1
3, 4
4, 4
4, 7
1, 1
2, 7
0, 2
4, 3
1, 3
1, 1
4, 5
2, 5
0, 2
4, 3
2, 3
3, 3
4, 3
4, 5
2, 1
3, 4
1, 4
2, 2
0, 1
0, 1
5, 0
3, 0
1, 3
2, 3
1, 0
1, 3
5, 2
2, 3
2, 3
2, 4
4, 1
0, 4
0, 1
5, 1
2, 4
2, 4
1, 3
1, 5
1, 2
5, 1
2, 0
3, 3
1, 2
2, 2
1, 4
3, 1
3, 4
2, 2
3, 0
1, 8
2, 3
3, 0
2, 2
0, 4
0, 5
1, 5
1, 1
4, 2
2, 3
6, 3
0, 5
1, 5
6, 8
3, 7
1, 2
4, 5
2, 0
2, 4
4, 1
1, 2
2, 1
1, 2
2, 3
1, 1
1, 2
1, 2
0, 0
1, 0
2, 0
1, 0
0, 3
1, 3
0, 0
0, 4
1, 0
2, 0
2, 3
0, 2
1, 2
2, 3
2, 2
2, 3
0, 3
2, 4
3, 0
1, 1
4, 2
1, 0
4, 1
0, 2
1, 1
1, 2
1, 1
0, 2
1, 1
1, 0
2, 3
2, 3
0, 0
1, 1
1, 1
3, 0
2, 1
0, 0
1, 0
0, 0
2, 1
1, 1
1, 4
0, 1
0, 0
4, 0
0, 2
0, 0
0, 2
1, 2
0, 1
1, 0
1, 1
4, 1
0, 1
0, 1
1, 1
0, 0
0, 1
0, 1
2, 1
2, 0
0, 3
2, 1
1, 3
1, 3
1, 1
1, 0
0, 1
0, 1
1, 0
2, 3
3, 2
0, 0
1, 2
1, 0
0, 1
0, 1
2, 0
0, 0
0, 1
0, 2
0, 0
0, 0
1, 0
0, 2
0, 1
1, 0
1, 0
1, 2
1, 0
0, 1
1, 1
0, 1
1, 0
1, 0
1, 0
0, 2
0, 0
0, 0
1, 1
1, 1
0, 0
1, 0
0, 0
0, 1
2, 1
0, 2
0, 0
2, 1
0, 1
0, 2
0, 0
1, 0
0, 0
0, 1
0, 1
0, 2
0, 0
0, 0
0, 1
1, 0
1, 0
1, 0
0, 1
0, 1
1, 1
0, 0
0, 1
0, 0
0, 0
1, 2
0, 1
0, 0
0, 0
0, 0
0, 0
0, 0
0, 0
0, 2
2, 0
0, 0
0, 0
1, 1
0, 0
0, 0
0, 1
0, 1
2, 0
0, 3
0, 0
1, 0
1, 0
0, 0
0, 0
0, 0
0, 0
0, 1
1, 0
0, 1
1, 0
0, 0
0, 1
0, 0
0, 0
0, 0
1, 0
0, 1
2, 0
0, 0
0, 0
0, 0
1, 1
1, 0
0, 2
0, 0
1, 0
1, 0
1, 0
0, 0
0, 0
0, 0
0, 0
0, 0
0, 1
1, 0
0, 0
0, 1
0, 1
1, 0
1, 0
0, 0
0, 0
0, 0
0, 0
2, 0
0, 0
0, 1
0, 1
0, 0
0, 1
0, 0
0, 0
1, 0
0, 0
0, 0
1, 0
0, 0
0, 0
0, 0
0, 0
0, 1
0, 0
0, 1
0, 0
0, 0
0, 0
1, 0
0, 1
0, 0
1, 1
1, 0
0, 0
2, 1
0, 0
0, 1
0, 0
0, 1
0, 0
0, 1
1, 0
0, 1
0, 1
0, 0
0, 0
1, 0
0, 0
0, 1
0, 0
1, 1
0, 2
0, 0
0, 0
0, 0
0, 0
0, 0
0, 0
0, 0
0, 0
1, 0
0, 0
0, 1
0, 0
0, 1
0, 1
0, 0
0, 1
0, 0
0, 0
0, 1
0, 0
1, 0
1, 1
0, 1
0, 0
0, 0
1, 0
1, 1
0, 0
0, 0
0, 0
1, 1
0, 0
0, 1
0, 0
0, 0
0, 0
0, 0
0, 0
0, 0
0, 0
0, 0
0, 0
0, 0
0, 0
0, 1
0, 0
0, 0
0, 0
1, 0
0, 0
0, 0
0, 0
0, 0
0, 0
0, 0
0, 0
0, 1
0, 0
0, 0
0, 0
0, 0
0, 0
0, 0
0, 0
0, 1
0, 0
0, 0
0, 0
0, 0
0, 1
0, 0
0, 0
0, 0
0, 0
0, 0
0, 0
1, 0
1, 0
0, 0
0, 1
0, 0
0, 0
0, 0
0, 0
0, 0
0, 0
0, 0
0, 0
0, 0
0, 0
0, 0
0, 0
0, 0
0, 0
0, 0
1, 0
1, 0
0, 0
0, 0
0, 0
0, 1
0, 0
0, 0
0, 0
0, 0
0, 0
0, 0
0, 0
0, 0
0, 0
0, 0
0, 0
0, 0
0, 0
0, 0
0, 0
0, 0
0, 0
0, 0
0, 0
0, 0
0, 0
0, 0
0, 1
0, 0
0, 0
0, 0
0, 0
0, 0
0, 0
0, 0
0, 0
0, 0
0, 0
0, 0
0, 0
0, 0
0, 0
0, 0
0, 0
0, 0
0, 0
0, 0
0, 0
1, 0
0, 0
0, 0
0, 0
0, 0
0, 0
0, 0
0, 0
0, 0
0, 0
0, 1
0, 0
1, 0
0, 0
0, 0
0, 0
0, 0
0, 0
0, 0
0, 0
0, 0
0, 0
0, 0
0, 0
0, 0
0, 1
0, 0
0, 0
0, 0
0, 0
0, 0
0, 0
0, 0
0, 0
0, 0
0, 0
0, 0
0, 0
1, 0
0, 0
0, 0
0, 0
0, 0
0, 0
0, 0
0, 0
0, 0
0, 0
0, 0
0, 0
0, 0
0, 0
0, 0
0, 0
0, 0
0, 0
0, 0
0, 0
0, 0
0, 0
0, 0
0, 0
0, 0
0, 0
0, 0
0, 0
0, 0
0, 0
0, 0
0, 0
0, 0
0, 0
0, 0
0, 0
0, 0
0, 0
0, 0
0, 0
0, 0
0, 0
0, 0
0, 0
0, 0
0, 0
0, 0
0, 0
0, 0
0, 0
0, 0
0, 0
0, 0
0, 0
0, 0
0, 1
0, 0
0, 0
0, 0
0, 0
0, 0
0, 0
0, 0
0, 0
0, 0
0, 0
0, 0
0, 0
0, 0
0, 0
0, 0
0, 0
0, 0
0, 0
0, 0
0, 0
0, 0
0, 0
0, 0
0, 0
0, 0
0, 0
0, 0
0, 0
0, 0
0, 0
0, 0
0, 0
0, 0
0, 0
0, 0
0, 0
0, 0
0, 0
0, 0
0, 0
0, 0
0, 0
0, 0
0, 0
0, 0
0, 0
0, 0
0, 0
0, 0
0, 0
0, 0
0, 0
0, 0
0, 0
0, 0
0, 0
0, 0
0, 0
0, 0
0, 0
0, 0
0, 0
0, 0
0, 0
0, 0
0, 0
0, 0
0, 0
0, 0
0, 0
0, 0
0, 0
0, 0
0, 0
0, 0
0, 0
0, 0
0, 0
0, 0
0, 1
0, 0
0, 0
0, 0
0, 0
0, 0
0, 0
0, 0
0, 0
0, 0
0, 0
0, 0
0, 0
0, 0
0, 0
0, 0
0, 0
0, 0
0, 0
0, 0
0, 0
0, 0
0, 0
0, 0
0, 0
0, 0
0, 0
0, 0
0, 0
0, 0
0, 0
0, 0
0, 0
0, 0
0, 0
0, 0
0, 0
0, 0
0, 0
0, 0
0, 0
0, 0
0, 0
0, 0
0, 0
0, 0
0, 0
0, 0
0, 0
0, 0
0, 0
0, 0
0, 0
0, 0
0, 0
0, 0
0, 0
0, 0
0, 0
0, 0
0, 0
0, 0
0, 0
0, 0
0, 0
0, 0
0, 0
0, 0
0, 0
0, 0
0, 0
0, 0
0, 0
0, 0
0, 0
0, 0
0, 0
0, 0
0, 0
0, 0
0, 0
0, 0
0, 0
0, 0
0, 0
0, 0
0, 0
0, 0
0, 0
0, 0
0, 0
0, 0
0, 0
0, 0
0, 0
0, 0
0, 0
0, 0
0, 0
0, 0
0, 0
0, 0
0, 0
0, 0
0, 0
0, 0
0, 0
0, 0
0, 0
0, 0
0, 0
0, 0
0, 0
0, 0
0, 0
0, 0
0, 0
0, 0
0, 0
0, 0
0, 0
0, 0
0, 0
0, 0
0, 0
0, 0
0, 0
0, 0
0, 0
0, 0
0, 0
0, 0
0, 0
0, 0
0, 0
0, 0
0, 0
0, 0
0, 0
0, 0
0, 0
0, 0
0, 0
0, 0
0, 0
0, 0
0, 0
0, 0
0, 0
0, 0
0, 0
0, 0
0, 0
0, 0
0, 0
0, 0
0, 0
0, 0
0, 0
0, 0
0, 0
0, 0
0, 0
0, 0
0, 0
0, 0
0, 0
0, 0
0, 0
0, 0
0, 0
0, 0
0, 0
0, 0
0, 0
0, 0
0, 0
0, 0
0, 0
0, 0
0, 0
0, 0
0, 0
0, 0
0, 0
0, 0
0, 0
0, 0
0, 0
0, 0
0, 0
0, 0
0, 0
0, 0
0, 0
0, 0
0, 0
0, 0
0, 0
0, 0
0, 0
0, 0
0, 0
0, 0
0, 0
0, 0
0, 0
0, 0
0, 0
0, 0
0, 0
0, 0
0, 0
0, 0
0, 0
0, 0
0, 0
0, 0
0, 0
0, 0
0, 0
0, 0
0, 0
0, 0
0, 0
0, 0
0, 0
0, 0
0, 0
0, 0
0, 0
0, 0
0, 0
0, 0
0, 0
0, 0
0, 0
0, 0
0, 0
0, 0
0, 0
0, 0
0, 0
0, 0
0, 0
0, 0
0, 0
0, 0
0, 0
0, 0
0, 0
#ENDOFDATA     end of spectrum data