File: host_upload/02-11-2024/rqc/uplink1/ps__0567_0717304816_000rfs_shot_12.msa
#FORMAT      : EMSA/MAS spectral data file
#VERSION     : TC202v2.0 PIXL
#TITLE       : Novarupta (sol567) subset1
#DATE        : 02-11-2024      Date in the format DD-MMM-YYYY, for example 07-JUL-2010
#TIME        :             The time of day at which the spectrum was recorded, in 24-hour format
#OWNER       : PIXL Flight Model       (PIXL will use this to indicate which instrument took the data.)
#NPOINTS     : 4096     Number of data points in the spectrum (This can be zero for configuration only files)
#NCOLUMNS    : 2     Number of data columns in the spectrum (This can be zero for configuration only files)
#XUNITS      : eV
#YUNITS      : COUNTS
#DATATYPE    : YY
#XPERCHAN    : 7.862, 7.881   eV per channel (separate by commas if more than one detector)
#OFFSET      : 18.5, -22.4         eV of first channel  (separate by commas if more than one detector
#SIGNALTYPE  : XRF
#YP_TEMP     : -4.371
#LIVETIME    : 8.84365, 8.82156   seconds (separate by commas if more than one detector)
#REALTIME    : 10, 10.0   seconds (separate by commas if more than one detector)
#SPECTRUM    : start of spectrum data
0, 0
0, 0
0, 0
0, 0
0, 0
0, 0
0, 0
0, 0
0, 0
0, 0
0, 0
0, 0
0, 0
0, 0
0, 0
0, 0
0, 0
0, 0
0, 0
0, 0
0, 0
0, 0
0, 0
0, 0
0, 0
0, 0
0, 0
0, 0
0, 0
0, 0
0, 1
1, 1
0, 0
0, 0
2, 1
3, 1
2, 2
2, 2
6, 3
3, 3
2, 1
6, 4
4, 2
5, 4
3, 4
5, 3
0, 3
3, 0
7, 4
4, 8
13, 7
9, 14
8, 12
15, 20
14, 21
14, 14
11, 13
12, 14
13, 10
17, 16
20, 26
32, 33
36, 33
28, 54
42, 51
42, 57
43, 34
36, 37
51, 67
73, 90
141, 161
204, 250
344, 384
404, 454
421, 560
404, 498
355, 415
302, 307
177, 234
127, 131
93, 87
43, 54
31, 38
25, 45
30, 31
42, 32
36, 37
31, 21
17, 28
18, 23
18, 27
26, 29
31, 32
85, 76
89, 106
149, 194
205, 214
213, 288
252, 283
229, 275
208, 240
172, 182
144, 129
96, 70
58, 60
56, 58
50, 78
59, 86
81, 129
129, 151
170, 166
181, 200
174, 222
181, 212
170, 190
132, 146
114, 106
108, 102
88, 84
83, 82
82, 58
69, 62
69, 64
61, 46
34, 37
28, 35
33, 29
19, 18
11, 34
11, 13
7, 9
7, 11
14, 11
7, 6
9, 13
5, 12
11, 15
14, 20
21, 22
27, 26
23, 31
24, 29
20, 37
29, 20
13, 20
12, 8
11, 14
9, 12
14, 15
21, 30
53, 66
87, 89
104, 149
173, 221
249, 271
272, 365
298, 379
305, 345
275, 354
214, 279
167, 176
100, 108
83, 91
53, 57
36, 37
23, 28
39, 38
32, 34
39, 50
57, 60
51, 58
37, 60
39, 49
40, 35
25, 39
22, 21
14, 16
14, 18
13, 8
6, 14
10, 13
8, 10
9, 12
8, 17
19, 17
19, 22
26, 25
33, 43
43, 52
47, 70
58, 69
43, 70
59, 68
47, 56
54, 45
32, 38
29, 31
20, 23
19, 23
11, 20
20, 17
20, 16
15, 15
19, 14
9, 11
5, 12
22, 14
11, 16
22, 23
23, 25
21, 23
16, 30
13, 19
9, 23
10, 15
11, 12
13, 11
15, 11
6, 13
12, 19
9, 11
16, 14
9, 16
18, 11
8, 19
15, 17
21, 23
27, 35
32, 28
31, 39
28, 29
24, 26
21, 20
14, 20
18, 29
19, 13
13, 24
14, 13
12, 3
14, 15
9, 18
12, 14
14, 19
20, 11
22, 16
28, 32
34, 35
30, 53
45, 42
48, 48
51, 50
40, 53
47, 37
44, 24
22, 35
17, 25
14, 28
18, 16
30, 18
23, 30
33, 36
50, 59
88, 130
155, 190
238, 359
418, 545
641, 808
911, 1107
1165, 1456
1399, 1705
1536, 1852
1524, 1828
1422, 1647
1212, 1316
998, 1049
762, 722
517, 505
362, 309
190, 176
102, 131
70, 59
28, 35
25, 17
20, 14
11, 17
14, 20
18, 15
14, 29
22, 33
20, 24
42, 44
32, 71
63, 89
101, 119
159, 177
178, 231
210, 252
239, 255
239, 257
247, 278
195, 230
195, 189
143, 145
95, 94
73, 59
58, 49
34, 22
22, 30
12, 16
7, 6
7, 12
8, 8
16, 9
10, 7
8, 10
11, 14
8, 16
15, 11
16, 7
8, 9
9, 8
9, 10
6, 8
5, 7
5, 10
7, 5
4, 6
7, 6
3, 7
10, 5
3, 5
7, 7
4, 7
3, 9
7, 7
4, 6
3, 5
6, 7
3, 3
1, 5
7, 7
8, 7
5, 8
8, 13
3, 8
15, 5
16, 3
6, 6
8, 11
7, 11
7, 6
3, 10
4, 6
7, 8
5, 3
3, 4
8, 7
6, 8
6, 8
3, 5
8, 10
4, 10
11, 14
13, 17
6, 21
9, 11
11, 16
7, 8
5, 12
10, 6
8, 13
3, 6
2, 10
2, 4
7, 7
6, 7
4, 5
2, 9
6, 4
6, 10
4, 7
6, 4
7, 5
8, 7
1, 5
7, 6
5, 9
2, 3
7, 5
4, 7
7, 2
3, 5
2, 5
5, 12
5, 2
2, 8
3, 6
10, 3
4, 4
4, 1
5, 3
0, 9
5, 10
6, 3
2, 7
3, 5
5, 5
5, 4
5, 4
5, 4
4, 6
8, 6
4, 6
7, 2
1, 8
3, 2
6, 3
3, 8
6, 4
6, 3
2, 5
3, 7
4, 2
6, 1
5, 7
6, 5
4, 6
4, 4
5, 6
1, 2
3, 5
2, 5
4, 2
3, 4
4, 3
6, 3
1, 6
1, 6
2, 4
3, 3
3, 5
1, 5
1, 3
4, 3
4, 7
3, 0
4, 4
3, 7
3, 9
2, 2
8, 5
4, 5
6, 2
2, 4
8, 2
6, 6
3, 3
5, 3
3, 2
5, 3
5, 6
6, 6
2, 2
5, 0
4, 4
1, 1
3, 1
3, 4
4, 4
1, 2
2, 6
0, 1
5, 3
0, 3
1, 3
4, 3
1, 4
3, 3
3, 1
2, 3
3, 3
4, 2
5, 4
2, 2
3, 3
1, 3
4, 2
0, 3
6, 1
2, 5
2, 4
2, 5
0, 0
0, 1
4, 2
2, 3
0, 2
4, 2
4, 0
1, 0
3, 2
2, 5
4, 2
2, 2
2, 4
5, 2
2, 2
3, 2
2, 6
4, 1
1, 2
1, 2
2, 1
1, 2
6, 1
1, 0
1, 1
0, 2
0, 3
1, 2
4, 2
3, 2
1, 3
2, 1
3, 4
2, 2
1, 5
1, 3
3, 0
2, 3
1, 3
2, 4
1, 3
0, 1
3, 0
0, 3
3, 7
4, 5
0, 5
2, 2
0, 3
3, 0
5, 4
2, 0
2, 1
0, 1
2, 2
2, 3
0, 2
2, 2
3, 3
2, 3
0, 2
2, 0
0, 2
1, 1
1, 0
1, 1
2, 2
1, 3
2, 1
1, 0
0, 0
1, 1
2, 1
3, 1
1, 0
1, 3
3, 2
0, 2
0, 0
2, 1
4, 1
3, 0
4, 1
0, 0
1, 2
0, 2
2, 2
1, 2
1, 1
2, 0
0, 1
1, 4
1, 1
0, 1
0, 1
1, 0
1, 2
2, 0
1, 2
2, 3
1, 1
0, 0
0, 1
2, 0
3, 1
2, 2
0, 0
3, 1
1, 1
0, 3
0, 0
0, 2
1, 1
1, 1
1, 0
1, 1
0, 0
1, 0
4, 1
2, 1
2, 0
2, 1
1, 1
0, 1
1, 2
3, 3
2, 0
0, 3
1, 1
1, 1
0, 0
0, 1
1, 1
0, 1
1, 0
3, 0
2, 1
0, 1
0, 1
1, 0
2, 1
1, 1
0, 0
0, 0
0, 0
0, 0
1, 0
2, 0
0, 1
0, 0
0, 0
0, 2
0, 0
1, 1
0, 1
1, 0
0, 3
1, 0
2, 0
1, 1
1, 0
0, 2
1, 2
0, 0
1, 0
0, 2
1, 0
0, 2
2, 1
1, 2
0, 0
1, 1
1, 0
0, 1
0, 0
0, 1
0, 0
1, 2
0, 0
1, 0
0, 0
0, 2
0, 3
0, 0
1, 0
0, 0
0, 0
0, 1
2, 0
1, 1
0, 0
1, 2
2, 1
0, 0
0, 0
0, 1
0, 0
0, 0
0, 1
0, 0
0, 1
0, 0
0, 1
0, 0
0, 0
1, 0
1, 0
0, 0
0, 0
0, 0
1, 0
0, 0
0, 1
1, 2
0, 1
0, 1
1, 0
1, 0
0, 0
0, 0
0, 0
0, 0
0, 1
1, 0
0, 1
1, 1
0, 1
0, 0
0, 0
1, 2
0, 1
1, 0
0, 0
0, 0
0, 2
0, 1
0, 0
0, 0
0, 0
2, 1
0, 0
0, 0
0, 0
0, 0
0, 0
0, 0
0, 0
1, 0
0, 0
0, 0
0, 0
0, 0
0, 0
0, 1
0, 1
0, 1
0, 1
0, 0
0, 0
0, 0
0, 0
0, 0
1, 0
0, 1
0, 0
0, 0
0, 0
0, 0
0, 2
0, 0
0, 0
0, 0
0, 0
0, 0
1, 0
0, 0
1, 0
0, 0
0, 0
0, 1
0, 0
0, 0
0, 0
0, 1
0, 1
0, 2
0, 0
0, 0
0, 0
0, 1
0, 0
0, 1
1, 0
1, 0
0, 0
0, 0
0, 0
0, 0
0, 0
0, 0
0, 0
1, 0
0, 2
0, 0
0, 0
0, 0
0, 0
0, 0
0, 0
0, 0
0, 0
0, 0
0, 0
0, 0
0, 1
0, 0
0, 0
0, 0
0, 0
0, 0
1, 0
0, 0
0, 0
0, 0
0, 0
0, 0
0, 0
0, 0
0, 0
0, 1
0, 1
0, 1
0, 0
0, 0
0, 0
0, 1
0, 0
0, 0
0, 0
0, 0
0, 0
1, 0
0, 0
0, 0
0, 0
0, 0
0, 1
0, 0
0, 0
0, 0
0, 0
0, 1
0, 0
0, 1
0, 0
0, 0
0, 0
0, 0
0, 1
0, 0
0, 0
0, 1
1, 0
0, 0
0, 0
0, 0
0, 0
1, 0
0, 1
0, 0
0, 0
0, 0
0, 0
0, 0
0, 0
0, 0
0, 0
0, 0
0, 0
0, 0
0, 0
0, 0
0, 0
0, 0
0, 0
0, 0
0, 0
0, 0
0, 0
0, 0
0, 0
1, 0
0, 0
0, 0
0, 0
1, 1
0, 0
0, 0
0, 0
0, 0
0, 0
0, 0
0, 0
0, 0
0, 0
0, 0
0, 0
0, 0
0, 1
0, 0
0, 0
0, 0
0, 0
0, 0
0, 0
0, 0
0, 0
0, 0
0, 0
0, 0
0, 0
0, 0
0, 0
0, 0
0, 0
0, 0
0, 0
0, 0
0, 0
0, 0
0, 0
1, 0
0, 0
0, 0
0, 0
0, 0
0, 0
0, 0
0, 0
0, 0
0, 0
0, 0
0, 0
0, 0
0, 0
0, 0
0, 0
0, 0
0, 0
0, 0
0, 0
0, 0
0, 0
0, 0
0, 0
0, 0
0, 0
0, 0
0, 0
0, 0
0, 0
0, 0
0, 0
0, 0
0, 0
1, 0
0, 0
0, 1
0, 0
1, 0
0, 0
0, 0
0, 0
0, 0
0, 0
0, 0
0, 0
0, 0
0, 0
0, 0
0, 0
0, 0
0, 0
0, 0
0, 0
0, 0
0, 0
0, 0
0, 0
0, 0
0, 0
0, 0
0, 0
0, 0
0, 1
0, 0
0, 0
0, 0
0, 0
0, 0
0, 0
0, 0
0, 0
0, 0
0, 0
0, 0
0, 0
0, 0
0, 0
0, 0
0, 0
0, 0
0, 0
0, 0
0, 0
0, 0
0, 0
0, 0
0, 0
0, 0
0, 0
0, 0
0, 0
0, 0
0, 0
0, 0
0, 0
0, 0
0, 0
0, 0
0, 0
0, 0
0, 0
0, 0
0, 0
0, 0
0, 0
0, 0
0, 0
0, 0
0, 0
0, 0
0, 0
0, 0
0, 0
0, 0
0, 0
0, 0
0, 0
0, 0
0, 0
0, 0
0, 0
0, 0
0, 0
0, 0
0, 0
0, 1
0, 0
0, 0
0, 0
0, 0
0, 0
0, 0
0, 0
0, 0
0, 0
0, 0
0, 0
0, 0
0, 0
0, 0
0, 0
0, 0
0, 0
0, 0
0, 0
0, 0
0, 0
0, 0
0, 0
0, 0
0, 0
0, 0
0, 0
0, 0
0, 0
0, 0
0, 0
0, 0
0, 0
0, 0
0, 0
0, 0
0, 0
0, 0
0, 0
0, 0
0, 0
0, 0
0, 0
0, 0
0, 0
0, 0
0, 0
0, 0
0, 0
0, 0
0, 0
0, 0
0, 0
0, 0
0, 0
0, 0
0, 0
0, 0
0, 0
0, 0
0, 0
0, 0
0, 0
0, 0
0, 0
0, 0
0, 0
0, 0
0, 0
0, 0
0, 0
0, 0
0, 0
0, 0
0, 0
0, 0
0, 0
0, 0
0, 0
0, 0
0, 0
0, 0
0, 0
0, 0
0, 0
0, 0
0, 0
0, 0
0, 0
0, 0
0, 0
0, 0
0, 0
0, 0
0, 0
0, 0
0, 0
0, 0
0, 0
0, 0
0, 0
0, 0
0, 0
0, 0
0, 0
0, 0
0, 0
0, 0
0, 0
0, 0
0, 0
0, 0
0, 0
0, 0
0, 0
0, 0
0, 0
0, 0
0, 0
0, 0
0, 0
0, 0
0, 0
0, 0
0, 0
0, 0
0, 0
0, 0
0, 0
0, 0
0, 0
0, 0
0, 0
0, 0
0, 0
0, 0
0, 0
0, 0
0, 0
0, 0
0, 0
0, 0
0, 0
0, 0
0, 0
0, 0
0, 0
0, 0
0, 0
0, 0
0, 0
0, 0
0, 0
0, 0
0, 0
0, 0
0, 0
0, 0
0, 0
0, 0
0, 0
0, 0
0, 0
0, 0
0, 0
0, 0
0, 0
0, 0
0, 0
0, 0
0, 0
0, 0
0, 0
0, 0
0, 0
0, 0
0, 0
0, 0
0, 0
0, 0
0, 0
0, 0
0, 0
0, 0
0, 0
0, 0
0, 0
0, 0
0, 0
0, 0
0, 0
0, 0
0, 0
0, 0
0, 0
0, 0
0, 0
0, 0
0, 0
0, 0
0, 0
0, 0
0, 0
0, 0
0, 0
0, 0
0, 0
0, 0
0, 0
0, 0
0, 0
0, 0
0, 0
0, 0
0, 0
0, 0
0, 0
0, 0
0, 0
0, 0
0, 0
0, 0
0, 0
0, 0
0, 0
0, 0
0, 0
0, 0
0, 0
0, 0
0, 0
0, 0
0, 0
0, 0
0, 0
0, 0
0, 0
0, 0
0, 0
0, 0
0, 0
0, 0
0, 0
0, 0
0, 0
0, 0
0, 0
0, 0
0, 0
0, 0
0, 0
0, 0
0, 0
0, 0
0, 0
0, 0
0, 0
0, 0
0, 0
0, 0
0, 0
0, 0
0, 0
0, 0
0, 0
0, 0
0, 0
0, 0
0, 0
0, 0
0, 0
0, 0
0, 0
0, 0
0, 0
0, 0
0, 0
0, 0
0, 0
0, 0
0, 0
0, 0
0, 0
0, 0
0, 0
0, 0
0, 0
0, 0
0, 0
0, 0
0, 0
0, 0
0, 0
0, 0
0, 0
0, 0
0, 0
0, 0
0, 0
0, 0
0, 0
0, 0
0, 0
0, 0
0, 0
0, 0
0, 0
0, 0
0, 0
0, 0
0, 0
0, 0
0, 0
0, 0
0, 0
0, 0
#ENDOFDATA     end of spectrum data