File: host_upload/02-11-2024/rqc/uplink1/ps__0567_0717304816_000rfs_shot_351.msa
#FORMAT      : EMSA/MAS spectral data file
#VERSION     : TC202v2.0 PIXL
#TITLE       : Novarupta (sol567) subset1
#DATE        : 02-11-2024      Date in the format DD-MMM-YYYY, for example 07-JUL-2010
#TIME        :             The time of day at which the spectrum was recorded, in 24-hour format
#OWNER       : PIXL Flight Model       (PIXL will use this to indicate which instrument took the data.)
#NPOINTS     : 4096     Number of data points in the spectrum (This can be zero for configuration only files)
#NCOLUMNS    : 2     Number of data columns in the spectrum (This can be zero for configuration only files)
#XUNITS      : eV
#YUNITS      : COUNTS
#DATATYPE    : YY
#XPERCHAN    : 7.862, 7.881   eV per channel (separate by commas if more than one detector)
#OFFSET      : 18.5, -22.4         eV of first channel  (separate by commas if more than one detector
#SIGNALTYPE  : XRF
#YP_TEMP     : 1.594
#LIVETIME    : 8.83178, 8.81495   seconds (separate by commas if more than one detector)
#REALTIME    : 10, 10.0   seconds (separate by commas if more than one detector)
#SPECTRUM    : start of spectrum data
0, 0
0, 0
0, 0
0, 0
0, 0
0, 0
0, 0
0, 0
0, 0
0, 0
0, 0
0, 0
0, 0
0, 0
0, 0
0, 0
0, 0
0, 0
0, 0
0, 0
0, 0
0, 0
0, 0
0, 0
0, 0
0, 0
0, 0
0, 0
0, 0
0, 0
0, 0
0, 1
0, 0
1, 1
0, 4
2, 1
1, 1
4, 5
3, 8
3, 5
3, 3
4, 2
4, 2
1, 2
1, 5
1, 2
3, 1
3, 6
2, 3
6, 5
2, 6
8, 16
17, 12
9, 16
12, 14
14, 20
8, 13
9, 3
7, 13
12, 15
23, 13
19, 25
24, 43
31, 47
54, 57
40, 49
49, 43
32, 44
33, 44
52, 65
94, 137
192, 212
282, 294
392, 455
475, 510
502, 527
437, 467
344, 363
226, 236
135, 159
83, 89
39, 47
36, 35
21, 25
31, 34
30, 34
29, 37
31, 33
21, 34
23, 20
10, 18
18, 17
24, 25
39, 34
79, 91
114, 157
218, 206
232, 305
284, 296
261, 329
268, 285
204, 217
142, 150
109, 82
63, 60
71, 49
52, 40
66, 63
78, 93
90, 109
133, 158
176, 223
200, 228
204, 210
179, 203
152, 172
127, 136
109, 89
71, 99
60, 76
75, 71
66, 88
52, 84
41, 69
44, 49
25, 41
29, 32
20, 30
15, 12
22, 15
6, 12
5, 9
6, 9
9, 3
2, 4
8, 4
9, 7
16, 17
25, 18
19, 23
35, 33
31, 21
21, 30
26, 26
14, 28
10, 14
13, 15
15, 7
13, 16
16, 16
23, 41
32, 57
90, 95
128, 169
201, 247
262, 330
299, 395
329, 411
361, 386
273, 323
267, 242
177, 133
82, 98
60, 61
38, 46
35, 31
22, 29
30, 50
40, 63
54, 53
56, 66
56, 59
56, 42
52, 39
24, 39
26, 25
20, 13
11, 17
9, 11
8, 8
9, 13
5, 11
14, 11
21, 8
9, 10
11, 11
17, 18
23, 27
27, 33
41, 45
52, 56
55, 61
51, 70
66, 63
58, 51
54, 37
31, 24
29, 31
19, 18
17, 22
24, 18
16, 13
16, 9
11, 23
16, 12
10, 16
10, 22
21, 19
11, 21
21, 20
14, 14
19, 12
16, 13
18, 21
15, 12
11, 9
11, 10
11, 11
4, 7
14, 9
11, 8
6, 12
9, 15
16, 16
17, 10
19, 6
18, 28
17, 26
31, 31
28, 37
19, 38
33, 34
24, 25
16, 33
24, 17
17, 12
9, 12
11, 11
14, 15
14, 12
10, 14
8, 17
16, 13
9, 16
20, 9
15, 16
16, 33
27, 36
38, 41
53, 45
35, 59
49, 50
35, 42
37, 43
42, 34
35, 36
25, 23
12, 22
15, 19
18, 16
15, 29
29, 31
41, 52
67, 98
125, 131
193, 247
366, 498
578, 741
800, 1076
1173, 1437
1502, 1700
1612, 1878
1765, 1874
1757, 1748
1493, 1442
1197, 1159
953, 829
588, 539
371, 328
238, 183
108, 103
72, 58
36, 27
27, 14
27, 11
11, 14
15, 13
15, 18
14, 21
25, 31
21, 19
27, 40
32, 55
63, 77
82, 89
102, 154
176, 198
189, 248
212, 253
254, 304
273, 270
254, 267
210, 213
164, 192
145, 140
85, 72
52, 66
42, 34
25, 29
12, 18
15, 15
12, 11
8, 6
11, 7
7, 12
13, 6
15, 19
13, 8
11, 13
10, 12
12, 8
5, 10
8, 7
9, 5
8, 8
6, 6
8, 3
7, 6
6, 4
4, 4
3, 4
9, 7
7, 7
3, 2
5, 10
4, 9
4, 9
8, 4
2, 9
6, 6
11, 10
6, 7
5, 6
4, 8
5, 6
9, 7
8, 5
8, 5
9, 9
11, 7
10, 5
7, 4
7, 6
5, 6
5, 9
5, 4
7, 7
7, 7
6, 7
11, 9
14, 7
6, 9
8, 10
16, 8
12, 10
11, 8
9, 13
12, 10
6, 9
10, 10
4, 4
7, 13
13, 8
2, 12
6, 9
8, 9
6, 8
7, 6
8, 7
4, 6
4, 10
4, 4
6, 8
9, 8
1, 7
9, 5
2, 8
4, 4
5, 3
6, 3
6, 12
3, 5
5, 5
5, 9
4, 4
2, 6
3, 5
6, 2
8, 3
5, 5
7, 6
6, 12
4, 2
2, 5
8, 3
7, 7
3, 11
4, 5
3, 7
4, 8
5, 10
6, 6
4, 0
2, 6
3, 4
3, 6
6, 2
5, 5
4, 7
2, 4
5, 3
4, 1
5, 2
3, 7
5, 7
4, 4
7, 4
1, 5
5, 2
5, 1
4, 2
3, 3
7, 1
6, 4
3, 0
2, 3
5, 6
5, 8
2, 1
1, 4
5, 3
4, 1
4, 3
5, 3
2, 4
7, 6
2, 0
2, 4
3, 7
5, 4
3, 2
5, 3
4, 2
3, 2
3, 4
4, 4
2, 2
8, 4
5, 2
4, 5
2, 2
3, 2
2, 4
5, 1
3, 4
1, 6
5, 1
4, 2
3, 3
1, 2
3, 4
4, 5
4, 1
5, 3
3, 2
0, 3
0, 3
5, 5
4, 4
2, 3
5, 1
0, 2
4, 1
1, 1
1, 4
5, 1
2, 2
4, 3
1, 3
4, 2
2, 1
3, 1
2, 4
1, 4
2, 4
3, 3
2, 3
4, 3
3, 1
5, 1
2, 0
1, 3
3, 5
2, 2
6, 2
2, 1
2, 2
3, 4
0, 1
1, 2
2, 3
4, 4
1, 4
1, 7
0, 0
4, 2
1, 3
5, 1
2, 0
1, 4
4, 4
5, 1
0, 4
2, 1
3, 1
2, 4
3, 3
2, 2
3, 2
1, 0
3, 3
2, 2
2, 2
1, 4
3, 2
3, 1
3, 2
3, 2
3, 4
5, 2
4, 2
4, 2
1, 1
0, 4
2, 1
8, 4
4, 2
1, 1
3, 2
2, 1
1, 0
2, 2
0, 2
1, 2
3, 1
2, 4
1, 3
1, 1
1, 0
1, 4
2, 4
0, 3
3, 2
1, 2
0, 3
0, 1
0, 0
2, 2
3, 0
2, 1
1, 2
2, 1
0, 0
0, 3
0, 2
1, 0
0, 2
1, 2
1, 2
0, 3
0, 2
2, 0
0, 0
0, 1
0, 2
1, 0
4, 1
0, 6
0, 0
2, 2
3, 2
3, 2
3, 4
0, 1
0, 1
4, 2
0, 1
4, 0
0, 1
1, 0
1, 1
1, 1
0, 1
0, 0
1, 1
3, 3
1, 2
1, 1
2, 2
3, 2
0, 1
0, 0
0, 0
2, 3
0, 0
2, 2
0, 0
1, 1
4, 1
1, 3
0, 0
1, 0
1, 0
1, 0
1, 1
0, 1
0, 0
0, 1
0, 0
2, 1
0, 0
1, 2
2, 1
1, 0
0, 1
1, 1
1, 1
0, 4
0, 0
1, 0
1, 2
0, 1
2, 2
0, 1
0, 0
1, 0
0, 0
1, 0
0, 0
1, 0
1, 0
2, 0
0, 0
0, 0
0, 0
0, 1
0, 1
0, 0
0, 1
1, 0
1, 0
0, 0
0, 0
3, 3
0, 1
1, 1
0, 1
1, 0
0, 0
0, 2
1, 2
0, 0
2, 1
1, 0
1, 1
0, 1
1, 1
2, 0
0, 0
3, 1
0, 0
0, 0
0, 0
0, 1
1, 0
1, 1
2, 2
0, 1
0, 0
0, 0
1, 0
0, 2
1, 0
1, 1
0, 0
0, 0
4, 0
1, 1
1, 0
1, 1
1, 0
1, 0
0, 0
2, 0
0, 1
0, 1
0, 0
0, 0
1, 1
0, 0
0, 1
0, 0
0, 0
0, 0
0, 0
0, 1
0, 0
1, 1
0, 0
1, 0
0, 0
0, 1
0, 0
1, 0
0, 0
0, 1
0, 0
0, 0
0, 0
0, 0
0, 0
0, 2
0, 0
0, 0
0, 0
0, 0
0, 0
1, 2
1, 0
0, 0
0, 0
0, 0
0, 0
1, 0
0, 0
0, 0
0, 0
0, 0
0, 1
0, 0
0, 0
0, 1
0, 0
0, 0
0, 0
0, 0
0, 0
1, 0
0, 0
1, 0
0, 0
1, 0
0, 0
0, 0
0, 0
0, 0
0, 0
0, 0
0, 2
0, 2
2, 0
0, 0
0, 0
0, 0
0, 0
0, 0
0, 2
0, 0
0, 1
0, 2
0, 0
0, 1
0, 0
2, 0
0, 0
0, 1
0, 0
0, 1
0, 0
0, 0
1, 0
0, 0
0, 1
0, 1
0, 0
0, 0
0, 0
0, 0
0, 0
0, 0
0, 0
2, 1
1, 1
1, 0
1, 1
0, 0
0, 0
1, 0
0, 0
1, 0
0, 0
0, 1
0, 0
0, 0
0, 0
0, 0
0, 1
0, 1
0, 0
0, 0
0, 1
0, 0
0, 0
1, 0
0, 1
1, 0
0, 0
0, 0
0, 0
0, 0
0, 0
0, 0
0, 0
0, 0
0, 0
0, 0
0, 0
0, 0
0, 0
0, 0
0, 1
0, 0
0, 0
0, 0
0, 0
0, 1
0, 1
0, 0
0, 0
1, 0
0, 0
0, 0
0, 1
1, 1
0, 0
0, 0
0, 0
0, 0
0, 0
0, 0
0, 0
0, 0
0, 0
0, 0
0, 0
0, 0
0, 0
0, 0
0, 0
1, 0
0, 1
0, 0
1, 0
0, 0
0, 0
0, 0
0, 0
0, 0
0, 0
0, 0
0, 0
0, 0
0, 0
0, 0
0, 0
0, 0
0, 0
0, 0
0, 0
0, 0
0, 0
0, 0
0, 0
0, 0
0, 0
0, 0
0, 0
0, 0
0, 0
0, 0
0, 0
0, 0
0, 0
0, 0
0, 0
0, 0
0, 0
0, 0
0, 0
1, 0
1, 0
0, 0
0, 0
1, 0
0, 0
0, 0
0, 0
0, 0
0, 0
0, 0
0, 0
0, 0
0, 0
0, 0
0, 0
0, 0
0, 0
0, 0
0, 0
0, 0
0, 0
0, 0
0, 0
0, 0
0, 0
0, 0
0, 0
0, 0
0, 0
0, 0
0, 0
0, 0
0, 0
0, 0
0, 0
0, 0
0, 0
0, 0
0, 0
0, 0
0, 0
0, 0
0, 0
0, 0
0, 0
0, 0
0, 0
0, 0
0, 0
0, 0
0, 0
0, 0
0, 0
0, 0
0, 0
0, 0
1, 0
0, 0
0, 0
0, 0
0, 0
0, 0
0, 0
0, 0
0, 0
0, 0
0, 0
0, 0
0, 0
0, 0
0, 0
0, 0
0, 0
0, 0
0, 0
0, 0
0, 0
0, 0
0, 0
1, 0
0, 0
0, 0
0, 0
0, 0
0, 0
0, 0
0, 0
0, 0
0, 0
0, 0
0, 0
0, 0
0, 0
0, 0
0, 0
0, 0
0, 0
0, 0
0, 0
0, 0
0, 0
0, 0
0, 0
0, 0
0, 0
0, 0
0, 0
0, 0
0, 0
0, 0
0, 0
0, 0
0, 0
0, 0
0, 0
0, 0
0, 0
0, 0
1, 0
0, 0
0, 0
0, 0
0, 0
0, 0
0, 0
0, 0
0, 0
0, 0
0, 0
0, 0
0, 0
0, 0
0, 0
0, 0
0, 0
0, 0
0, 0
0, 0
0, 0
0, 0
0, 0
0, 0
0, 0
0, 0
0, 0
0, 0
0, 0
0, 0
0, 0
0, 0
0, 0
0, 0
0, 0
0, 0
0, 0
0, 0
0, 1
0, 0
0, 0
0, 0
0, 0
0, 0
0, 0
0, 0
0, 0
0, 0
0, 0
0, 0
0, 0
0, 0
0, 0
0, 0
0, 0
0, 0
0, 0
0, 0
0, 0
0, 0
0, 0
0, 0
0, 0
0, 0
0, 0
0, 0
0, 0
0, 0
0, 0
0, 0
0, 0
0, 0
0, 0
0, 0
0, 0
0, 0
0, 0
0, 0
0, 0
0, 0
0, 0
0, 0
0, 0
0, 0
0, 0
0, 0
0, 0
0, 0
0, 0
0, 0
0, 0
0, 0
0, 0
0, 0
0, 0
0, 0
0, 0
0, 0
0, 0
0, 0
0, 0
0, 0
0, 0
0, 0
0, 0
0, 0
0, 0
0, 0
0, 0
0, 0
0, 0
0, 0
0, 0
0, 0
0, 0
0, 0
0, 0
0, 0
0, 0
0, 0
0, 0
0, 0
0, 0
0, 0
0, 0
0, 0
0, 0
0, 0
0, 0
0, 0
0, 0
0, 0
0, 0
0, 0
0, 0
0, 0
0, 0
0, 0
0, 0
0, 0
0, 0
0, 0
0, 0
0, 0
0, 0
0, 0
0, 0
0, 0
0, 0
0, 0
0, 0
0, 0
0, 0
0, 0
0, 0
0, 0
0, 0
0, 0
0, 0
0, 0
0, 0
0, 0
0, 0
0, 0
0, 0
0, 0
0, 0
0, 0
0, 0
0, 0
0, 0
0, 0
0, 0
0, 0
0, 0
0, 0
0, 0
0, 0
0, 0
0, 0
0, 0
0, 0
0, 0
0, 0
0, 0
0, 0
0, 0
0, 0
0, 0
0, 0
0, 0
0, 0
0, 0
0, 0
0, 0
0, 0
0, 0
0, 0
0, 0
0, 0
0, 0
0, 0
0, 0
0, 0
0, 0
0, 0
0, 0
0, 0
0, 0
0, 0
0, 0
0, 0
0, 0
0, 0
0, 0
0, 0
0, 0
0, 0
0, 0
0, 0
0, 0
0, 0
0, 0
0, 0
0, 0
0, 0
0, 0
0, 0
0, 0
0, 0
0, 0
0, 0
0, 0
0, 0
0, 0
0, 0
0, 0
0, 0
0, 0
0, 0
0, 0
0, 0
0, 0
0, 0
0, 0
0, 0
0, 0
0, 0
0, 0
0, 0
0, 0
0, 0
0, 0
0, 0
0, 0
0, 0
0, 0
0, 0
0, 0
0, 0
0, 0
0, 0
0, 0
0, 0
0, 0
0, 0
0, 0
0, 0
0, 0
0, 0
0, 0
0, 0
0, 0
0, 0
0, 0
0, 0
0, 0
0, 0
0, 0
0, 0
0, 0
0, 0
0, 0
0, 0
0, 0
0, 0
0, 0
0, 0
0, 0
0, 0
0, 0
0, 0
0, 0
0, 0
0, 0
0, 0
0, 0
0, 0
0, 0
0, 0
0, 0
0, 0
0, 0
0, 0
0, 0
0, 0
0, 0
0, 0
0, 0
0, 0
0, 0
0, 0
0, 0
0, 0
0, 0
0, 0
0, 0
0, 0
0, 0
0, 0
0, 0
0, 0
0, 0
0, 0
0, 0
0, 0
0, 0
0, 0
0, 0
0, 0
0, 0
0, 0
0, 0
0, 0
0, 0
0, 0
0, 0
0, 0
#ENDOFDATA     end of spectrum data