File: host_upload/02-11-2024/rqc/uplink1/ps__0567_0717304816_000rfs_shot_141.msa
#FORMAT      : EMSA/MAS spectral data file
#VERSION     : TC202v2.0 PIXL
#TITLE       : Novarupta (sol567) subset1
#DATE        : 02-11-2024      Date in the format DD-MMM-YYYY, for example 07-JUL-2010
#TIME        :             The time of day at which the spectrum was recorded, in 24-hour format
#OWNER       : PIXL Flight Model       (PIXL will use this to indicate which instrument took the data.)
#NPOINTS     : 4096     Number of data points in the spectrum (This can be zero for configuration only files)
#NCOLUMNS    : 2     Number of data columns in the spectrum (This can be zero for configuration only files)
#XUNITS      : eV
#YUNITS      : COUNTS
#DATATYPE    : YY
#XPERCHAN    : 7.862, 7.881   eV per channel (separate by commas if more than one detector)
#OFFSET      : 18.5, -22.4         eV of first channel  (separate by commas if more than one detector
#SIGNALTYPE  : XRF
#YP_TEMP     : -0.202
#LIVETIME    : 8.83138, 8.82102   seconds (separate by commas if more than one detector)
#REALTIME    : 10, 10.0   seconds (separate by commas if more than one detector)
#SPECTRUM    : start of spectrum data
0, 0
0, 0
0, 0
0, 0
0, 0
0, 0
0, 0
0, 0
0, 0
0, 0
0, 0
0, 0
0, 0
0, 0
0, 0
0, 0
0, 0
0, 0
0, 0
0, 0
0, 0
0, 0
0, 0
0, 0
0, 0
0, 0
0, 0
0, 0
0, 0
0, 1
0, 0
0, 0
1, 0
0, 2
2, 0
2, 2
6, 0
3, 3
3, 2
2, 0
4, 6
1, 2
5, 3
3, 2
2, 2
4, 4
5, 5
1, 2
5, 1
4, 7
9, 7
12, 11
9, 13
20, 20
20, 15
14, 14
16, 20
9, 8
13, 15
11, 8
11, 24
26, 29
54, 49
53, 39
55, 48
45, 44
35, 42
37, 26
34, 38
67, 69
115, 151
196, 244
278, 368
399, 458
444, 574
477, 525
418, 446
337, 312
200, 209
144, 152
87, 76
50, 37
40, 35
30, 36
34, 27
29, 35
35, 35
26, 36
16, 35
22, 28
16, 21
10, 20
22, 39
41, 66
83, 81
127, 164
218, 211
261, 255
292, 316
305, 328
273, 258
194, 220
162, 163
87, 87
66, 78
65, 48
48, 65
67, 84
97, 123
145, 146
187, 221
228, 231
225, 237
222, 229
208, 211
165, 195
128, 143
128, 119
91, 89
72, 81
73, 91
68, 80
69, 72
53, 60
53, 48
43, 28
40, 42
25, 26
16, 18
14, 16
12, 12
11, 8
10, 3
4, 4
3, 3
7, 11
8, 16
18, 11
21, 30
20, 22
29, 17
23, 35
28, 33
27, 26
20, 21
14, 15
12, 13
7, 21
11, 11
18, 20
21, 31
51, 69
95, 101
143, 189
205, 270
265, 302
330, 340
335, 427
333, 371
287, 308
241, 215
157, 165
106, 90
50, 57
33, 32
33, 20
22, 24
32, 36
32, 44
49, 63
57, 71
49, 64
53, 65
41, 41
36, 36
16, 34
15, 20
15, 17
14, 9
9, 12
10, 11
5, 12
5, 4
9, 12
12, 14
11, 15
17, 8
21, 21
36, 37
48, 43
45, 61
56, 61
67, 61
44, 52
50, 69
47, 48
32, 38
31, 34
22, 22
21, 20
11, 24
6, 9
10, 13
12, 13
12, 15
21, 18
10, 21
22, 14
18, 18
19, 18
19, 21
15, 19
15, 18
9, 18
22, 20
11, 10
10, 11
16, 19
13, 9
6, 11
17, 13
9, 13
11, 13
15, 16
16, 24
15, 19
17, 24
22, 26
23, 25
27, 29
32, 30
20, 31
20, 33
12, 37
23, 20
8, 25
19, 17
14, 10
12, 7
14, 9
13, 10
13, 9
14, 12
16, 10
21, 14
20, 13
28, 28
25, 28
34, 44
44, 51
50, 63
49, 47
53, 46
36, 39
29, 31
28, 31
27, 22
22, 16
21, 23
14, 22
18, 12
49, 43
41, 52
79, 95
145, 167
237, 310
436, 511
598, 739
906, 1071
1195, 1418
1481, 1641
1698, 1762
1677, 1848
1633, 1660
1393, 1397
1139, 1043
767, 731
533, 491
325, 274
208, 164
129, 69
53, 57
43, 23
19, 24
19, 22
12, 18
16, 17
16, 12
19, 24
26, 28
34, 33
25, 33
45, 42
61, 83
91, 115
126, 139
152, 154
190, 214
212, 258
261, 306
284, 272
253, 232
202, 225
164, 153
143, 106
75, 76
54, 51
38, 18
19, 20
13, 14
10, 6
10, 12
11, 11
6, 15
4, 8
9, 18
14, 10
12, 17
19, 11
19, 16
14, 9
13, 11
5, 12
7, 6
10, 10
9, 10
7, 6
4, 7
4, 2
5, 4
8, 6
7, 5
4, 6
4, 7
4, 3
7, 4
7, 9
7, 5
7, 8
1, 4
5, 6
5, 7
2, 12
9, 6
10, 8
8, 6
9, 11
7, 11
4, 8
8, 6
5, 6
3, 3
6, 5
8, 5
6, 7
3, 9
7, 6
4, 12
6, 7
8, 10
9, 7
6, 6
12, 4
14, 6
12, 13
14, 17
9, 16
11, 16
8, 15
11, 12
12, 9
7, 8
9, 3
13, 4
4, 3
3, 9
10, 5
4, 13
7, 8
2, 11
10, 10
3, 3
4, 3
4, 8
5, 6
3, 9
4, 2
4, 4
3, 3
3, 3
4, 5
5, 7
5, 4
3, 3
5, 2
4, 5
8, 7
7, 6
3, 5
4, 0
4, 2
5, 5
4, 5
5, 6
4, 3
4, 4
8, 4
8, 4
12, 7
6, 3
5, 10
6, 3
3, 7
1, 4
2, 5
6, 5
4, 3
2, 4
2, 1
9, 3
5, 2
6, 8
3, 3
3, 7
0, 5
6, 5
6, 5
3, 4
7, 10
3, 5
5, 5
4, 4
5, 5
2, 5
3, 3
4, 1
1, 6
3, 5
3, 5
2, 5
1, 5
3, 3
4, 3
4, 4
4, 3
6, 7
7, 4
3, 5
3, 4
3, 4
2, 7
2, 5
5, 4
2, 5
4, 5
1, 3
6, 1
5, 2
2, 4
2, 6
4, 3
2, 1
4, 4
4, 3
5, 8
5, 0
5, 4
3, 1
5, 6
3, 5
2, 3
3, 1
3, 2
2, 5
3, 2
5, 1
2, 3
2, 4
2, 2
8, 2
5, 3
1, 4
1, 2
2, 3
1, 5
1, 4
3, 3
3, 6
1, 3
2, 2
2, 3
2, 4
4, 3
1, 1
1, 2
4, 2
1, 3
2, 4
0, 1
4, 3
1, 2
4, 2
1, 6
2, 7
3, 4
5, 0
4, 2
3, 0
1, 4
2, 2
2, 2
3, 1
2, 2
2, 4
2, 1
1, 2
2, 2
2, 2
5, 2
3, 1
0, 3
2, 2
0, 1
1, 1
3, 1
1, 0
1, 4
1, 1
1, 1
3, 1
0, 4
4, 3
1, 2
6, 2
3, 0
2, 0
5, 2
2, 5
1, 2
3, 1
2, 1
1, 3
2, 5
4, 3
7, 4
1, 3
2, 4
2, 7
1, 1
4, 3
4, 1
2, 1
0, 2
2, 5
1, 0
2, 1
3, 2
3, 0
2, 1
3, 5
1, 2
2, 1
1, 2
4, 0
1, 0
1, 2
2, 3
1, 1
1, 2
2, 0
1, 1
1, 1
2, 2
2, 1
2, 1
1, 1
2, 4
2, 1
2, 0
1, 2
2, 2
2, 0
1, 2
2, 0
1, 1
1, 0
0, 1
1, 0
2, 1
2, 2
1, 3
1, 4
1, 4
1, 3
0, 1
1, 0
2, 1
1, 1
3, 1
3, 0
0, 3
4, 2
3, 1
0, 0
0, 0
0, 1
2, 0
1, 0
0, 0
2, 3
0, 1
0, 0
1, 0
1, 2
2, 0
0, 1
1, 1
0, 1
1, 0
2, 0
0, 3
1, 2
1, 0
1, 3
0, 3
1, 0
3, 2
1, 1
0, 1
0, 1
0, 1
1, 0
1, 1
2, 1
2, 0
0, 0
0, 0
1, 1
1, 1
1, 0
0, 1
1, 3
0, 1
1, 0
0, 0
1, 0
3, 1
0, 0
0, 1
0, 0
1, 1
0, 1
0, 2
2, 4
1, 0
0, 0
1, 3
0, 0
1, 1
1, 1
0, 0
0, 0
1, 0
1, 0
2, 1
1, 1
0, 0
0, 1
1, 0
0, 1
0, 2
1, 1
2, 0
0, 0
0, 2
2, 0
3, 0
3, 1
1, 2
0, 0
4, 0
1, 0
1, 1
1, 0
1, 0
1, 1
0, 0
0, 0
0, 1
2, 0
0, 0
0, 0
0, 0
0, 0
0, 1
2, 0
1, 0
0, 0
1, 1
0, 1
0, 0
1, 0
0, 0
0, 2
0, 0
0, 0
0, 0
1, 1
0, 0
0, 0
0, 0
1, 0
0, 0
0, 0
0, 0
0, 0
0, 0
0, 1
2, 2
0, 0
0, 1
0, 1
0, 0
0, 2
0, 0
0, 0
0, 0
0, 0
0, 0
1, 0
0, 0
1, 0
0, 1
1, 0
0, 2
1, 0
0, 2
0, 1
0, 1
1, 0
0, 0
0, 0
0, 0
0, 1
0, 0
0, 0
0, 0
0, 1
0, 0
1, 1
0, 0
0, 0
1, 0
0, 1
0, 0
0, 0
2, 0
0, 0
0, 0
1, 1
0, 0
0, 0
0, 1
1, 3
0, 0
0, 0
1, 0
1, 1
1, 0
0, 0
0, 0
0, 0
0, 1
0, 0
0, 0
2, 0
0, 0
0, 0
0, 0
0, 1
1, 1
0, 0
0, 2
0, 1
0, 0
0, 0
0, 0
0, 2
0, 0
0, 0
1, 0
0, 0
1, 0
0, 0
0, 0
1, 0
0, 1
0, 0
0, 0
0, 1
0, 1
0, 2
0, 1
0, 1
1, 1
0, 0
0, 0
0, 0
0, 0
0, 1
0, 0
0, 0
0, 0
1, 0
0, 0
0, 0
0, 0
0, 0
0, 1
0, 2
1, 0
0, 0
0, 0
0, 0
1, 0
1, 2
0, 0
0, 0
0, 0
0, 0
0, 0
0, 0
0, 0
0, 1
1, 0
0, 0
0, 0
0, 1
1, 0
0, 1
0, 0
1, 1
0, 0
0, 0
0, 0
0, 1
0, 0
0, 1
0, 0
0, 0
0, 0
0, 0
1, 0
0, 1
0, 1
0, 0
0, 0
0, 1
0, 1
0, 0
0, 0
0, 0
0, 0
0, 0
0, 0
0, 0
0, 0
0, 0
0, 0
0, 0
0, 0
0, 0
0, 0
0, 0
0, 0
0, 0
0, 0
0, 0
0, 0
0, 0
0, 0
0, 0
0, 0
1, 0
0, 0
0, 1
0, 0
0, 0
0, 0
0, 0
0, 0
0, 0
0, 0
0, 0
0, 0
0, 0
1, 0
0, 1
0, 0
0, 0
0, 0
0, 1
0, 0
0, 0
0, 0
0, 1
0, 0
0, 0
0, 0
0, 0
0, 0
0, 0
0, 0
0, 0
0, 0
0, 0
0, 0
0, 0
0, 0
0, 0
0, 0
0, 0
0, 0
0, 0
0, 0
0, 0
0, 0
0, 0
0, 0
0, 0
0, 0
0, 0
0, 0
0, 0
0, 0
0, 0
0, 0
0, 0
0, 0
0, 0
0, 0
0, 0
0, 0
0, 0
0, 0
0, 0
0, 0
0, 0
0, 0
0, 0
0, 0
0, 0
0, 0
0, 0
0, 0
0, 0
0, 0
0, 0
0, 0
0, 0
0, 0
0, 0
0, 0
0, 0
0, 0
0, 0
0, 0
0, 0
0, 0
0, 0
0, 0
0, 0
0, 0
0, 0
0, 0
0, 0
0, 0
0, 0
0, 0
0, 0
0, 0
1, 0
0, 0
0, 0
0, 0
0, 0
0, 0
0, 0
0, 0
0, 0
0, 0
0, 0
0, 0
0, 0
0, 0
0, 0
0, 0
0, 0
0, 0
0, 0
0, 0
0, 0
0, 1
0, 0
0, 0
0, 0
0, 0
0, 0
0, 0
0, 0
0, 0
0, 0
0, 0
0, 0
0, 0
0, 0
0, 0
0, 0
0, 0
0, 0
0, 0
0, 0
0, 0
0, 0
0, 0
0, 0
0, 0
0, 0
0, 0
0, 0
0, 0
0, 0
0, 0
0, 0
0, 0
0, 0
0, 0
0, 0
0, 0
0, 0
0, 0
0, 0
0, 0
0, 0
0, 0
0, 0
0, 0
0, 0
0, 0
0, 0
0, 0
0, 0
0, 0
0, 0
0, 0
0, 0
0, 0
0, 0
0, 0
0, 0
0, 0
0, 0
0, 0
0, 0
0, 0
0, 0
0, 0
0, 0
0, 0
0, 0
0, 0
0, 0
0, 0
0, 0
0, 0
0, 0
0, 0
0, 0
0, 0
0, 0
0, 0
0, 0
0, 0
0, 0
0, 0
0, 0
0, 0
0, 0
0, 0
0, 0
0, 0
0, 0
0, 0
0, 0
0, 0
0, 0
0, 0
0, 0
0, 0
0, 0
0, 0
0, 0
0, 0
0, 0
0, 0
0, 0
0, 0
0, 0
0, 0
0, 0
0, 0
0, 0
0, 0
0, 0
0, 0
0, 0
0, 0
0, 0
0, 0
0, 0
0, 0
0, 0
0, 0
0, 0
0, 0
0, 0
0, 0
0, 0
0, 0
0, 0
0, 0
0, 0
0, 0
0, 0
0, 0
0, 0
0, 0
0, 0
0, 0
0, 0
0, 0
0, 0
0, 0
0, 0
0, 0
0, 0
0, 0
0, 0
0, 0
0, 0
0, 0
0, 0
0, 0
0, 0
0, 0
0, 0
0, 0
0, 0
0, 0
0, 0
0, 0
0, 0
0, 0
0, 0
0, 0
0, 0
0, 0
0, 0
0, 0
0, 0
0, 0
0, 0
0, 0
0, 0
0, 0
0, 0
0, 0
0, 0
0, 0
0, 0
0, 0
0, 0
0, 0
0, 0
0, 0
0, 0
1, 0
0, 0
0, 0
0, 0
0, 0
0, 0
0, 0
0, 0
0, 0
0, 0
0, 0
0, 0
0, 0
0, 0
0, 0
0, 0
0, 0
0, 0
0, 0
0, 0
0, 0
0, 0
0, 0
0, 0
0, 0
0, 0
0, 0
0, 0
0, 0
0, 0
0, 0
0, 0
0, 0
0, 0
0, 0
0, 0
0, 0
0, 0
0, 0
0, 0
0, 0
0, 0
0, 0
0, 0
0, 0
0, 0
0, 0
0, 0
0, 0
0, 0
0, 0
0, 0
0, 0
0, 0
0, 0
0, 0
0, 0
0, 0
0, 0
0, 0
0, 0
0, 0
0, 0
0, 0
0, 0
0, 0
0, 0
0, 0
0, 0
0, 0
0, 0
0, 0
0, 0
0, 0
0, 0
0, 0
0, 0
0, 0
0, 0
0, 0
0, 0
0, 0
0, 0
0, 0
0, 0
0, 0
0, 0
0, 0
0, 0
0, 0
0, 0
0, 0
0, 0
0, 0
0, 0
0, 0
0, 0
0, 0
0, 0
0, 0
0, 0
0, 0
0, 0
0, 0
0, 0
0, 0
0, 0
0, 0
0, 0
0, 0
0, 0
0, 0
0, 0
0, 0
0, 0
0, 0
0, 0
0, 0
0, 0
0, 0
0, 0
0, 0
0, 0
0, 0
0, 0
0, 0
0, 0
0, 0
0, 0
0, 0
0, 0
0, 0
0, 0
0, 0
0, 0
0, 0
0, 0
0, 0
0, 0
0, 0
0, 0
0, 0
0, 0
0, 0
0, 0
0, 0
0, 0
0, 0
0, 0
0, 0
0, 0
0, 0
0, 0
0, 0
0, 0
0, 0
0, 0
0, 0
0, 0
0, 0
0, 0
0, 0
0, 0
0, 0
0, 0
0, 0
0, 0
0, 0
0, 0
0, 0
0, 0
0, 0
0, 0
0, 0
0, 0
0, 0
0, 0
0, 0
0, 0
0, 0
#ENDOFDATA     end of spectrum data