File: host_upload/02-11-2024/rqc/uplink1/ps__0567_0717304816_000rfs_shot_8.msa
#FORMAT      : EMSA/MAS spectral data file
#VERSION     : TC202v2.0 PIXL
#TITLE       : Novarupta (sol567) subset1
#DATE        : 02-11-2024      Date in the format DD-MMM-YYYY, for example 07-JUL-2010
#TIME        :             The time of day at which the spectrum was recorded, in 24-hour format
#OWNER       : PIXL Flight Model       (PIXL will use this to indicate which instrument took the data.)
#NPOINTS     : 4096     Number of data points in the spectrum (This can be zero for configuration only files)
#NCOLUMNS    : 2     Number of data columns in the spectrum (This can be zero for configuration only files)
#XUNITS      : eV
#YUNITS      : COUNTS
#DATATYPE    : YY
#XPERCHAN    : 7.862, 7.881   eV per channel (separate by commas if more than one detector)
#OFFSET      : 18.5, -22.4         eV of first channel  (separate by commas if more than one detector
#SIGNALTYPE  : XRF
#YP_TEMP     : -4.339
#LIVETIME    : 8.83459, 8.82571   seconds (separate by commas if more than one detector)
#REALTIME    : 10, 10.0   seconds (separate by commas if more than one detector)
#SPECTRUM    : start of spectrum data
0, 0
0, 0
0, 0
0, 0
0, 0
0, 0
0, 0
0, 0
0, 0
0, 0
0, 0
0, 0
0, 0
0, 0
0, 0
0, 0
0, 0
0, 0
0, 0
0, 0
0, 0
0, 0
0, 0
0, 0
0, 0
0, 0
0, 0
0, 0
0, 0
0, 0
0, 0
2, 0
1, 1
1, 1
2, 3
1, 0
2, 2
2, 2
4, 7
3, 5
3, 5
2, 2
4, 2
4, 5
4, 2
1, 1
3, 3
3, 0
5, 4
5, 3
5, 8
11, 10
14, 11
20, 20
13, 18
14, 11
8, 16
9, 12
10, 10
14, 12
22, 22
32, 30
43, 44
48, 39
42, 46
41, 42
29, 42
38, 49
56, 68
83, 86
150, 172
258, 265
328, 355
410, 426
443, 489
449, 445
362, 401
313, 308
239, 202
118, 131
78, 76
52, 45
30, 32
32, 41
27, 29
33, 32
33, 31
22, 32
22, 24
16, 18
17, 22
22, 24
38, 43
81, 76
96, 101
155, 178
229, 232
296, 266
282, 304
242, 277
216, 231
185, 177
134, 136
84, 93
62, 63
69, 63
56, 63
62, 94
115, 98
136, 163
175, 198
176, 212
215, 224
196, 214
158, 178
144, 168
125, 118
102, 106
79, 81
69, 90
83, 74
60, 70
65, 60
41, 46
42, 33
28, 22
18, 24
23, 17
19, 16
10, 4
9, 9
7, 7
5, 6
6, 10
8, 5
8, 9
14, 15
15, 19
23, 24
25, 29
22, 25
23, 38
26, 35
21, 21
23, 19
8, 16
10, 10
10, 10
12, 15
25, 29
48, 48
73, 72
135, 137
168, 214
264, 300
299, 320
324, 334
323, 343
287, 308
208, 229
181, 156
108, 99
70, 70
42, 43
35, 41
30, 23
33, 43
34, 49
43, 38
33, 60
64, 61
44, 53
40, 57
48, 49
19, 32
20, 23
10, 15
10, 16
14, 12
9, 12
4, 7
14, 6
11, 6
9, 17
17, 11
17, 22
25, 32
24, 30
26, 41
45, 63
54, 54
51, 60
48, 64
53, 52
57, 35
38, 36
27, 27
19, 23
16, 23
12, 13
13, 20
19, 12
15, 17
10, 12
19, 19
9, 17
14, 14
21, 19
27, 19
19, 11
11, 17
12, 22
13, 14
10, 12
12, 6
14, 18
5, 18
9, 16
12, 10
7, 12
9, 13
10, 14
16, 9
10, 13
20, 21
17, 29
21, 31
21, 30
32, 29
28, 21
22, 36
22, 24
23, 26
25, 31
9, 21
13, 11
13, 11
11, 12
10, 12
7, 17
13, 19
8, 10
12, 22
19, 13
25, 19
19, 36
33, 34
36, 43
28, 56
41, 49
45, 55
39, 49
49, 36
30, 45
25, 21
22, 27
22, 21
17, 21
26, 23
31, 33
36, 38
53, 73
92, 149
174, 194
294, 355
472, 548
712, 814
996, 1143
1313, 1482
1526, 1675
1671, 1782
1576, 1736
1466, 1538
1282, 1283
995, 941
702, 696
514, 506
293, 297
200, 170
105, 95
60, 53
41, 35
24, 14
12, 20
10, 15
7, 14
22, 17
22, 17
14, 16
21, 25
37, 38
44, 76
84, 100
123, 137
133, 165
179, 212
190, 265
244, 280
251, 272
263, 262
216, 187
171, 194
139, 142
92, 86
68, 70
42, 42
32, 25
12, 16
10, 10
13, 10
9, 9
9, 11
12, 9
15, 9
14, 9
18, 10
16, 7
12, 19
15, 16
11, 9
11, 9
4, 5
13, 7
10, 7
2, 6
5, 4
7, 6
7, 5
4, 9
5, 10
7, 5
6, 6
4, 1
7, 12
2, 5
5, 8
7, 3
4, 6
4, 7
4, 8
7, 7
11, 5
9, 4
4, 11
5, 6
10, 7
4, 10
2, 11
8, 3
3, 4
6, 11
1, 7
10, 9
7, 8
6, 6
6, 2
6, 6
7, 17
4, 10
8, 8
9, 8
9, 14
6, 12
11, 10
19, 9
5, 11
7, 10
9, 9
6, 10
9, 6
9, 5
4, 5
6, 7
8, 4
7, 3
4, 5
7, 6
3, 7
7, 3
5, 4
6, 7
3, 5
4, 4
6, 11
6, 13
6, 6
8, 6
5, 5
7, 11
7, 5
7, 5
1, 7
6, 5
4, 7
4, 7
5, 4
8, 5
5, 9
3, 5
4, 12
7, 9
6, 7
3, 7
7, 4
4, 4
3, 4
3, 10
3, 2
3, 6
1, 3
3, 6
3, 9
1, 4
8, 9
6, 4
3, 3
4, 6
2, 7
2, 2
4, 4
8, 5
4, 1
1, 6
3, 5
4, 4
5, 13
4, 4
4, 5
4, 5
3, 9
1, 4
2, 4
1, 8
2, 2
3, 6
8, 2
3, 3
2, 4
4, 5
3, 5
3, 4
3, 2
3, 3
6, 5
3, 4
3, 4
5, 6
3, 5
4, 4
5, 8
3, 2
2, 1
3, 7
0, 1
3, 4
1, 3
4, 5
1, 1
5, 2
4, 0
3, 5
5, 5
2, 1
3, 2
2, 1
3, 6
3, 1
3, 2
1, 2
6, 3
2, 1
7, 3
6, 3
2, 6
5, 5
1, 2
3, 4
2, 4
4, 2
2, 8
5, 2
2, 1
3, 0
2, 3
3, 6
4, 1
1, 3
2, 3
4, 5
2, 3
2, 1
1, 3
2, 1
2, 4
2, 5
2, 2
4, 1
4, 3
4, 3
1, 1
1, 4
1, 4
2, 2
0, 1
6, 5
2, 0
1, 1
3, 1
3, 2
0, 2
3, 1
0, 1
5, 6
2, 5
5, 1
4, 0
3, 3
1, 2
4, 1
1, 2
0, 1
1, 3
0, 2
3, 1
2, 0
1, 2
1, 1
2, 1
3, 2
1, 0
1, 0
3, 3
1, 5
3, 0
1, 0
0, 2
6, 1
4, 5
3, 3
4, 4
4, 2
6, 2
1, 5
3, 2
2, 4
3, 0
1, 2
3, 1
0, 0
0, 0
1, 1
0, 1
2, 1
2, 1
3, 1
1, 0
1, 1
3, 0
1, 2
1, 1
2, 1
3, 2
0, 2
3, 1
0, 2
2, 3
6, 0
2, 0
2, 4
1, 1
3, 4
0, 0
2, 0
1, 2
1, 1
2, 0
0, 4
2, 1
2, 2
1, 2
0, 2
0, 2
2, 0
1, 3
1, 2
0, 1
4, 2
2, 2
0, 1
1, 3
0, 3
0, 0
0, 2
0, 1
0, 1
1, 0
1, 2
1, 0
0, 2
0, 1
2, 0
2, 1
0, 0
0, 0
2, 1
3, 3
1, 0
0, 1
2, 0
0, 0
2, 0
0, 1
1, 0
0, 0
0, 0
0, 1
0, 1
0, 0
3, 1
2, 0
0, 2
0, 1
0, 1
0, 0
1, 1
1, 0
0, 0
1, 0
0, 0
2, 1
0, 1
1, 0
2, 1
0, 3
0, 0
1, 2
0, 2
3, 1
2, 0
1, 0
0, 3
0, 1
1, 1
1, 1
1, 0
2, 0
1, 2
0, 0
0, 0
0, 0
2, 0
1, 2
2, 0
0, 0
0, 1
0, 1
0, 1
0, 0
0, 0
0, 2
0, 1
0, 1
0, 0
0, 1
1, 0
1, 1
1, 1
0, 0
0, 0
1, 1
0, 0
0, 2
0, 0
0, 0
0, 1
1, 1
0, 0
0, 0
1, 0
0, 2
1, 1
1, 0
0, 0
0, 2
1, 0
1, 0
0, 0
1, 0
1, 0
0, 0
0, 1
0, 1
2, 1
0, 1
2, 0
1, 0
0, 0
0, 0
0, 0
1, 0
0, 0
1, 0
0, 1
0, 1
2, 0
0, 0
0, 2
0, 0
0, 0
1, 0
0, 0
0, 0
0, 0
0, 0
0, 0
1, 0
0, 0
0, 0
1, 0
0, 0
0, 0
0, 0
1, 0
0, 0
0, 0
0, 0
0, 0
0, 0
0, 0
0, 0
0, 0
0, 0
0, 1
0, 0
1, 1
1, 2
0, 1
0, 2
0, 0
0, 1
0, 0
0, 0
0, 1
1, 0
0, 0
0, 0
0, 0
0, 0
0, 0
1, 1
0, 1
0, 1
1, 0
1, 0
0, 0
0, 0
0, 1
0, 0
0, 0
1, 1
1, 1
0, 0
0, 0
0, 1
0, 0
0, 0
0, 0
0, 0
0, 0
1, 0
0, 0
1, 0
0, 0
0, 0
1, 0
0, 0
0, 1
0, 0
0, 0
0, 0
1, 0
0, 0
1, 1
0, 1
0, 0
0, 0
1, 0
0, 1
0, 0
0, 0
0, 0
0, 1
0, 0
0, 0
0, 0
0, 1
0, 0
0, 0
1, 1
0, 0
0, 2
0, 0
0, 1
0, 1
1, 0
0, 0
0, 0
0, 0
1, 0
0, 1
0, 0
0, 0
0, 0
1, 0
0, 0
0, 0
0, 1
0, 0
0, 0
0, 0
0, 0
0, 0
0, 0
1, 0
0, 1
0, 0
0, 0
0, 0
0, 0
1, 0
0, 0
0, 0
0, 0
0, 0
0, 0
0, 0
0, 0
0, 0
1, 0
0, 0
0, 1
0, 0
1, 0
0, 0
1, 0
0, 0
0, 0
0, 0
0, 0
0, 0
0, 0
0, 0
0, 0
1, 0
1, 0
0, 0
0, 0
0, 0
0, 0
0, 0
0, 0
0, 0
0, 0
0, 0
0, 0
1, 0
0, 0
0, 0
0, 0
0, 0
0, 0
0, 0
1, 0
0, 0
0, 0
0, 0
0, 0
0, 0
0, 0
0, 0
0, 0
0, 1
0, 0
0, 0
0, 0
0, 0
0, 0
0, 0
0, 0
0, 0
0, 0
0, 0
0, 0
0, 0
1, 0
0, 0
0, 0
0, 0
0, 0
0, 1
0, 0
0, 0
0, 0
0, 0
0, 0
0, 0
0, 0
0, 0
0, 0
1, 0
0, 0
0, 0
0, 0
0, 2
0, 0
0, 1
0, 0
0, 0
0, 0
0, 1
0, 0
0, 0
1, 0
0, 0
0, 0
0, 0
0, 0
0, 0
0, 0
0, 0
0, 0
0, 0
0, 0
0, 0
0, 0
0, 0
0, 0
0, 0
0, 0
0, 0
0, 0
0, 0
1, 0
0, 0
0, 0
0, 0
0, 0
0, 0
0, 0
0, 0
0, 0
0, 0
0, 0
0, 0
0, 0
0, 0
0, 0
0, 0
0, 0
0, 0
0, 0
0, 0
0, 0
0, 0
0, 0
0, 0
0, 0
0, 0
0, 0
0, 0
0, 0
0, 0
0, 0
1, 0
0, 0
0, 0
0, 0
0, 0
0, 0
0, 0
0, 0
0, 0
0, 0
0, 0
0, 0
0, 1
0, 0
0, 0
0, 0
0, 0
0, 0
0, 0
0, 0
0, 0
0, 0
0, 0
0, 0
0, 0
0, 0
0, 0
0, 0
0, 0
0, 0
0, 0
0, 0
0, 0
0, 0
0, 0
0, 0
0, 0
0, 0
0, 0
0, 0
0, 0
0, 0
0, 0
0, 0
0, 0
0, 0
0, 0
0, 0
0, 0
0, 0
0, 0
0, 0
0, 0
0, 0
0, 0
0, 0
0, 0
0, 0
0, 0
0, 0
0, 0
0, 0
0, 0
0, 0
0, 0
0, 0
0, 0
0, 0
0, 0
0, 0
0, 0
0, 0
0, 0
0, 0
0, 0
0, 0
0, 0
0, 0
0, 0
0, 0
0, 0
0, 0
0, 0
0, 0
0, 0
0, 0
0, 0
0, 0
0, 0
0, 0
0, 0
0, 0
0, 0
0, 0
0, 0
0, 0
0, 0
0, 0
0, 0
0, 0
0, 0
0, 0
0, 0
0, 0
0, 0
0, 0
0, 0
0, 0
0, 0
0, 0
0, 0
0, 0
0, 0
0, 0
0, 0
0, 0
0, 0
0, 0
0, 0
0, 0
0, 0
0, 0
0, 0
0, 0
0, 0
0, 0
0, 0
0, 0
0, 0
0, 0
0, 0
0, 0
0, 0
0, 0
0, 0
0, 0
0, 0
0, 0
0, 0
0, 0
0, 0
0, 0
0, 0
0, 0
0, 0
0, 0
0, 0
0, 0
0, 0
0, 0
0, 0
0, 0
0, 0
0, 0
0, 0
0, 0
0, 0
0, 0
0, 0
0, 0
0, 0
0, 0
0, 0
0, 0
0, 0
0, 0
0, 0
0, 0
0, 0
0, 0
0, 0
0, 0
0, 0
0, 0
0, 0
0, 0
0, 0
0, 0
0, 0
0, 0
0, 0
0, 0
0, 0
0, 0
0, 0
0, 0
0, 0
0, 0
0, 0
0, 0
0, 0
0, 0
0, 0
0, 0
0, 0
0, 0
0, 0
0, 0
0, 0
0, 0
0, 0
0, 0
0, 0
0, 0
0, 0
0, 0
0, 0
0, 0
0, 0
0, 0
0, 0
0, 0
0, 0
0, 0
0, 0
0, 0
0, 0
0, 0
0, 0
0, 0
0, 0
0, 0
0, 0
0, 0
0, 0
0, 0
0, 0
0, 0
0, 0
0, 0
0, 0
0, 0
0, 0
0, 0
0, 0
0, 0
0, 0
0, 0
0, 0
0, 0
0, 0
0, 0
0, 0
0, 0
0, 0
0, 0
0, 0
0, 0
0, 0
0, 0
0, 0
0, 0
0, 0
0, 0
0, 0
0, 0
0, 0
0, 0
0, 0
0, 0
0, 0
0, 0
0, 0
0, 0
0, 0
0, 0
0, 0
0, 0
0, 0
0, 0
0, 0
0, 0
0, 0
0, 0
0, 0
0, 0
0, 0
0, 0
0, 0
0, 0
0, 0
0, 0
0, 0
0, 0
0, 0
0, 0
0, 0
0, 0
0, 0
0, 0
0, 0
0, 0
0, 0
0, 0
0, 0
0, 0
0, 0
0, 0
0, 0
0, 0
0, 0
0, 0
0, 0
0, 0
0, 0
0, 0
0, 0
0, 0
0, 0
0, 0
0, 0
0, 0
0, 0
0, 0
0, 0
0, 0
0, 0
0, 0
0, 0
0, 0
0, 0
0, 0
0, 0
0, 0
0, 0
0, 0
0, 0
0, 0
0, 0
0, 0
0, 0
0, 0
0, 0
0, 0
0, 0
0, 0
0, 0
0, 0
0, 0
0, 0
0, 0
0, 0
0, 0
0, 0
0, 0
0, 0
0, 0
0, 0
0, 0
0, 0
0, 0
0, 0
0, 0
0, 0
0, 0
0, 0
0, 0
0, 0
0, 0
0, 0
0, 0
0, 0
0, 0
0, 0
0, 0
0, 0
0, 0
0, 0
0, 0
0, 0
0, 0
0, 0
0, 0
0, 0
0, 0
0, 0
0, 0
0, 0
0, 0
0, 0
0, 0
0, 0
0, 0
0, 0
0, 0
0, 0
0, 0
0, 0
0, 0
0, 0
0, 0
0, 0
0, 0
#ENDOFDATA     end of spectrum data