File: host_upload/02-11-2024/rqc/uplink1/ps__0567_0717304816_000rfs_shot_355.msa
#FORMAT      : EMSA/MAS spectral data file
#VERSION     : TC202v2.0 PIXL
#TITLE       : Novarupta (sol567) subset1
#DATE        : 02-11-2024      Date in the format DD-MMM-YYYY, for example 07-JUL-2010
#TIME        :             The time of day at which the spectrum was recorded, in 24-hour format
#OWNER       : PIXL Flight Model       (PIXL will use this to indicate which instrument took the data.)
#NPOINTS     : 4096     Number of data points in the spectrum (This can be zero for configuration only files)
#NCOLUMNS    : 2     Number of data columns in the spectrum (This can be zero for configuration only files)
#XUNITS      : eV
#YUNITS      : COUNTS
#DATATYPE    : YY
#XPERCHAN    : 7.862, 7.881   eV per channel (separate by commas if more than one detector)
#OFFSET      : 18.5, -22.4         eV of first channel  (separate by commas if more than one detector
#SIGNALTYPE  : XRF
#YP_TEMP     : 1.562
#LIVETIME    : 8.84096, 8.62518   seconds (separate by commas if more than one detector)
#REALTIME    : 10, 10.0   seconds (separate by commas if more than one detector)
#SPECTRUM    : start of spectrum data
0, 0
0, 0
0, 0
0, 0
0, 0
0, 0
0, 0
0, 0
0, 0
0, 0
0, 0
0, 0
0, 0
0, 0
0, 0
0, 0
0, 0
0, 0
0, 0
0, 0
0, 0
0, 0
0, 0
0, 0
0, 0
0, 0
0, 0
0, 0
0, 0
0, 0
0, 0
0, 0
0, 0
1, 0
0, 0
1, 4
3, 3
1, 3
2, 5
4, 3
4, 2
2, 3
1, 5
5, 5
5, 2
3, 1
2, 4
3, 6
1, 2
1, 7
5, 7
7, 8
16, 9
14, 12
18, 24
12, 25
16, 8
11, 10
6, 10
18, 9
17, 22
31, 27
37, 41
29, 49
33, 56
38, 38
32, 32
28, 51
35, 37
59, 72
99, 124
176, 212
278, 369
328, 496
459, 536
435, 525
359, 448
357, 329
213, 235
159, 150
81, 85
47, 42
45, 37
27, 35
26, 47
27, 38
38, 23
33, 30
29, 29
23, 21
18, 13
19, 14
14, 27
48, 41
62, 89
115, 142
191, 230
267, 294
276, 361
274, 329
253, 283
206, 216
158, 160
93, 107
70, 63
64, 54
55, 57
69, 62
81, 109
102, 131
140, 207
199, 254
227, 269
197, 212
199, 215
144, 169
123, 113
83, 115
88, 108
68, 76
65, 75
77, 72
60, 67
47, 45
48, 50
38, 43
35, 25
17, 26
26, 13
12, 16
16, 14
13, 12
6, 6
7, 10
5, 6
6, 5
7, 7
7, 20
17, 22
25, 19
25, 29
32, 33
17, 28
24, 33
19, 30
23, 25
8, 14
13, 5
15, 11
15, 18
34, 26
41, 66
90, 131
126, 165
198, 267
261, 326
306, 414
360, 442
332, 400
299, 329
235, 227
164, 191
104, 113
62, 56
37, 39
27, 29
24, 32
30, 52
45, 38
42, 52
46, 60
56, 57
39, 55
52, 44
40, 45
17, 25
21, 22
9, 15
13, 15
8, 7
7, 9
8, 10
9, 8
13, 7
14, 16
13, 9
14, 21
21, 22
26, 38
30, 57
56, 44
66, 71
61, 72
56, 46
63, 49
25, 40
32, 39
31, 31
19, 24
23, 18
14, 13
17, 24
24, 10
13, 11
16, 8
8, 9
10, 20
18, 29
18, 20
17, 18
20, 18
25, 23
16, 16
25, 17
17, 18
11, 8
12, 8
7, 8
10, 13
9, 9
13, 24
7, 15
7, 13
12, 16
11, 12
14, 15
18, 21
23, 20
28, 28
27, 35
33, 45
37, 27
24, 27
20, 20
21, 23
11, 17
17, 11
12, 10
6, 17
15, 7
12, 13
11, 17
14, 6
15, 11
16, 18
23, 24
28, 26
31, 37
37, 45
33, 47
46, 46
60, 55
46, 53
31, 43
39, 34
40, 31
33, 17
28, 18
15, 22
17, 24
20, 24
29, 30
41, 49
59, 87
108, 174
205, 302
318, 472
560, 710
806, 1161
1137, 1403
1404, 1674
1649, 1933
1675, 1921
1654, 1826
1398, 1495
1116, 1192
903, 851
583, 525
391, 314
215, 191
113, 113
60, 54
35, 26
33, 27
20, 16
18, 20
20, 12
15, 23
12, 13
17, 23
23, 28
29, 28
32, 53
51, 66
76, 92
100, 159
173, 177
185, 245
223, 274
256, 316
273, 266
253, 239
219, 221
178, 161
124, 125
81, 106
55, 42
32, 29
25, 13
18, 21
7, 8
9, 11
6, 8
6, 13
10, 8
7, 7
11, 14
13, 7
13, 12
11, 15
7, 12
13, 9
15, 12
9, 9
10, 8
5, 3
5, 3
7, 7
0, 10
1, 6
5, 9
7, 4
3, 12
9, 9
7, 3
7, 8
4, 9
6, 4
10, 12
9, 6
4, 6
11, 9
5, 13
6, 9
8, 7
6, 7
4, 5
6, 5
4, 5
6, 6
6, 8
7, 6
1, 6
9, 7
3, 7
9, 5
6, 15
7, 4
3, 3
7, 5
9, 17
6, 11
5, 11
9, 12
12, 15
15, 9
8, 16
7, 17
3, 14
11, 18
8, 11
6, 10
7, 6
4, 6
8, 4
8, 9
4, 5
11, 9
8, 2
4, 2
8, 4
5, 7
1, 6
7, 6
4, 5
4, 5
6, 8
11, 7
1, 5
7, 4
3, 10
6, 3
2, 5
5, 7
6, 6
7, 8
6, 4
7, 8
9, 7
2, 7
3, 5
3, 6
9, 6
6, 6
3, 6
2, 5
3, 7
3, 4
11, 4
5, 6
6, 2
2, 5
7, 3
3, 6
1, 4
6, 7
4, 8
4, 3
5, 4
3, 1
3, 2
5, 9
2, 2
2, 1
6, 8
8, 5
5, 6
4, 4
3, 3
4, 4
2, 1
5, 4
7, 4
1, 6
5, 5
3, 7
4, 7
4, 6
4, 1
8, 5
2, 0
6, 9
7, 6
5, 9
5, 5
4, 5
1, 3
4, 4
10, 3
3, 6
3, 6
1, 2
2, 5
1, 5
0, 4
4, 4
6, 2
5, 3
2, 7
1, 2
0, 4
5, 2
1, 3
1, 2
5, 5
4, 3
6, 2
2, 5
3, 2
4, 3
4, 4
2, 1
3, 3
5, 6
2, 2
1, 2
4, 2
8, 4
4, 1
6, 0
4, 1
6, 2
2, 2
4, 2
1, 3
0, 6
1, 3
3, 5
1, 2
2, 2
2, 1
4, 5
2, 2
2, 5
3, 2
0, 5
3, 3
2, 3
4, 3
5, 2
2, 2
3, 4
2, 4
3, 6
3, 2
3, 2
1, 3
3, 3
1, 5
3, 3
3, 0
3, 2
4, 2
1, 2
1, 4
0, 3
1, 2
4, 2
4, 3
1, 3
3, 1
1, 1
3, 0
4, 1
2, 2
2, 2
0, 1
1, 2
1, 3
2, 1
3, 5
2, 1
3, 0
2, 0
0, 2
4, 3
2, 0
4, 3
4, 9
1, 1
7, 2
6, 8
4, 4
2, 2
2, 2
2, 2
4, 1
0, 4
3, 3
1, 1
2, 2
1, 3
3, 0
1, 1
1, 1
3, 3
2, 2
1, 0
1, 1
2, 2
1, 2
1, 0
1, 4
1, 4
1, 2
3, 4
2, 0
6, 2
0, 0
4, 3
0, 1
1, 1
1, 1
3, 0
1, 2
0, 2
1, 2
0, 1
0, 1
2, 2
3, 0
0, 3
1, 0
1, 0
0, 4
2, 3
1, 3
1, 0
0, 1
0, 2
1, 2
0, 1
2, 3
1, 0
1, 1
1, 1
2, 1
1, 3
1, 0
0, 1
0, 0
0, 0
2, 0
0, 1
1, 0
0, 1
0, 1
1, 2
2, 1
1, 0
0, 1
0, 0
0, 2
0, 0
1, 0
1, 1
1, 1
0, 2
0, 1
2, 0
1, 0
1, 1
0, 3
1, 0
0, 0
0, 1
1, 1
0, 0
1, 0
0, 4
2, 0
1, 1
1, 2
1, 1
2, 0
1, 0
0, 1
1, 1
1, 2
0, 1
0, 0
2, 0
0, 0
1, 1
0, 1
1, 0
0, 0
0, 1
0, 1
1, 1
0, 0
1, 0
1, 1
0, 0
3, 0
1, 1
0, 1
1, 1
0, 0
0, 1
0, 2
0, 0
0, 2
2, 0
0, 1
1, 0
0, 0
2, 2
0, 1
0, 0
1, 0
0, 0
0, 2
0, 1
2, 1
1, 0
0, 1
1, 1
0, 0
1, 1
1, 0
0, 4
0, 1
0, 0
0, 2
0, 0
1, 0
0, 2
0, 0
1, 0
1, 0
0, 0
0, 1
0, 0
2, 0
0, 0
1, 2
0, 0
0, 0
0, 0
1, 0
1, 0
0, 0
0, 1
0, 0
0, 0
0, 1
0, 1
1, 0
0, 0
0, 0
0, 0
0, 2
0, 0
0, 0
0, 0
0, 0
0, 0
0, 0
0, 1
0, 0
0, 1
0, 0
0, 0
0, 0
0, 0
1, 1
1, 1
1, 0
1, 0
0, 1
1, 1
0, 0
1, 1
0, 0
1, 0
0, 3
0, 1
0, 1
0, 0
2, 0
0, 0
0, 0
0, 0
0, 0
1, 1
0, 0
0, 0
0, 0
0, 0
0, 0
1, 0
0, 0
0, 0
0, 0
0, 1
0, 1
2, 0
0, 0
1, 0
0, 0
0, 0
0, 0
0, 0
0, 0
0, 0
0, 0
0, 0
1, 0
1, 0
0, 0
1, 0
0, 0
0, 0
0, 0
0, 1
0, 0
0, 1
0, 0
0, 0
0, 1
0, 2
0, 0
0, 0
0, 0
1, 0
0, 0
0, 0
0, 1
0, 1
0, 0
1, 0
0, 0
1, 0
0, 0
0, 0
0, 0
0, 1
0, 0
0, 0
1, 0
0, 0
0, 0
0, 0
0, 0
1, 0
0, 0
0, 0
0, 0
0, 0
0, 0
0, 0
0, 0
0, 0
0, 0
0, 0
0, 0
0, 0
0, 0
0, 0
0, 1
0, 0
0, 0
0, 0
1, 1
1, 1
0, 1
0, 0
0, 0
0, 0
0, 0
0, 0
0, 0
0, 0
0, 1
0, 0
0, 0
0, 0
0, 0
0, 0
0, 0
0, 0
0, 0
0, 0
0, 0
1, 1
0, 0
0, 0
0, 0
1, 0
0, 0
0, 0
1, 1
0, 1
0, 0
0, 0
0, 0
0, 1
0, 0
0, 0
0, 0
0, 0
0, 0
0, 0
0, 0
0, 0
0, 0
1, 0
0, 0
0, 0
0, 0
0, 0
0, 0
0, 0
0, 0
0, 0
0, 0
0, 0
0, 0
0, 0
0, 0
0, 0
0, 1
0, 0
0, 0
1, 0
0, 0
1, 0
0, 0
0, 0
0, 0
0, 0
0, 0
0, 0
0, 0
0, 0
0, 1
0, 0
0, 0
0, 1
0, 0
0, 0
0, 1
0, 0
0, 0
0, 0
0, 0
0, 0
0, 0
0, 0
0, 0
0, 0
0, 0
0, 0
0, 0
0, 0
0, 0
0, 0
0, 0
0, 0
0, 0
0, 0
0, 0
0, 0
0, 0
0, 0
0, 0
0, 0
0, 0
1, 0
0, 0
0, 0
0, 0
0, 0
0, 0
0, 0
0, 0
0, 0
0, 0
0, 0
0, 0
0, 0
0, 0
0, 0
0, 0
0, 0
0, 0
0, 0
0, 0
0, 0
0, 0
0, 0
0, 0
0, 0
0, 0
0, 0
0, 0
0, 0
0, 0
0, 0
0, 0
0, 0
0, 0
0, 0
0, 0
0, 0
0, 0
0, 0
0, 0
0, 0
0, 0
0, 0
0, 0
0, 0
0, 0
0, 0
0, 0
0, 0
0, 0
0, 0
0, 0
1, 0
0, 0
0, 0
0, 0
0, 0
0, 0
0, 0
0, 0
0, 0
0, 0
0, 0
0, 0
0, 0
0, 0
0, 0
0, 0
0, 0
0, 0
0, 0
0, 0
0, 0
0, 0
0, 0
0, 0
0, 0
0, 0
0, 0
0, 0
0, 0
0, 0
0, 0
0, 0
0, 0
0, 0
0, 0
0, 0
0, 0
0, 0
0, 0
0, 0
0, 0
0, 0
0, 0
0, 0
0, 0
0, 0
0, 0
0, 0
0, 0
0, 0
0, 0
0, 0
0, 0
0, 0
0, 0
0, 0
0, 0
0, 0
0, 0
0, 0
0, 0
0, 0
0, 0
0, 0
0, 0
0, 0
0, 0
0, 0
0, 0
0, 0
0, 0
0, 0
0, 0
0, 0
0, 0
0, 0
0, 0
0, 0
0, 0
0, 0
0, 0
0, 0
0, 0
0, 0
0, 0
0, 0
0, 0
0, 0
0, 0
0, 0
0, 0
0, 0
0, 0
0, 0
0, 0
0, 0
0, 0
0, 0
0, 0
0, 0
0, 0
0, 0
0, 0
0, 0
0, 0
0, 0
0, 0
0, 0
0, 0
0, 0
0, 0
0, 0
0, 0
0, 0
0, 0
0, 0
0, 0
0, 0
0, 0
0, 0
0, 0
0, 0
0, 0
0, 0
0, 0
0, 0
0, 0
0, 0
0, 0
0, 0
0, 0
0, 0
0, 0
0, 0
0, 0
0, 0
0, 0
0, 0
0, 0
0, 0
0, 0
0, 0
0, 0
0, 0
0, 0
0, 0
0, 0
0, 0
0, 0
0, 0
0, 0
0, 0
0, 0
0, 0
0, 0
0, 0
0, 0
0, 0
0, 0
0, 0
0, 0
0, 0
0, 0
0, 0
0, 0
0, 0
0, 0
0, 0
0, 0
0, 0
0, 0
0, 0
0, 0
0, 0
0, 0
0, 0
0, 0
0, 0
0, 0
0, 0
0, 0
0, 0
0, 0
0, 0
0, 0
0, 0
0, 0
0, 0
0, 0
0, 0
0, 0
0, 0
0, 0
0, 0
0, 0
0, 0
0, 0
0, 0
0, 0
0, 0
0, 0
0, 0
0, 0
0, 0
0, 0
0, 0
0, 0
0, 0
0, 0
0, 0
0, 0
0, 0
0, 0
0, 0
0, 0
0, 0
0, 0
0, 0
0, 0
0, 0
0, 0
0, 0
0, 0
0, 0
0, 0
0, 0
0, 0
0, 0
0, 0
0, 0
0, 0
0, 0
0, 0
0, 0
0, 0
0, 0
0, 0
0, 0
0, 0
0, 0
0, 0
0, 0
0, 0
0, 0
0, 0
0, 0
0, 0
0, 0
0, 0
0, 0
0, 0
0, 0
0, 0
0, 0
0, 0
0, 0
0, 0
0, 0
0, 0
0, 0
0, 0
0, 0
0, 0
0, 0
0, 0
0, 0
0, 0
0, 0
0, 0
0, 0
0, 0
0, 0
0, 0
0, 0
0, 0
0, 0
0, 0
0, 0
0, 0
0, 0
0, 0
0, 0
0, 0
0, 0
0, 0
0, 0
0, 0
0, 0
0, 0
0, 0
0, 0
0, 0
0, 0
0, 0
0, 0
0, 0
0, 0
0, 0
0, 0
0, 0
0, 0
0, 0
0, 0
0, 0
0, 0
0, 0
0, 0
0, 0
0, 0
0, 0
0, 0
0, 0
0, 0
0, 0
0, 0
0, 0
0, 0
0, 0
0, 0
0, 0
0, 0
0, 0
0, 0
0, 0
0, 0
0, 0
0, 0
0, 0
0, 0
0, 0
0, 0
0, 0
0, 0
0, 0
0, 0
0, 0
0, 0
0, 0
0, 0
0, 0
0, 0
0, 0
0, 0
0, 0
0, 0
0, 0
0, 0
0, 0
0, 0
0, 0
0, 0
0, 0
0, 0
0, 0
0, 0
0, 0
0, 0
0, 0
0, 0
0, 0
0, 0
0, 0
0, 0
0, 0
0, 0
0, 0
0, 0
0, 0
0, 0
0, 0
0, 0
0, 0
0, 0
0, 0
0, 0
0, 0
0, 0
0, 0
0, 0
0, 0
0, 0
0, 0
0, 0
0, 0
0, 0
#ENDOFDATA     end of spectrum data