File: host_upload/02-11-2024/rqc/uplink1/ps__0567_0717304816_000rfs_shot_212.msa
#FORMAT      : EMSA/MAS spectral data file
#VERSION     : TC202v2.0 PIXL
#TITLE       : Novarupta (sol567) subset1
#DATE        : 02-11-2024      Date in the format DD-MMM-YYYY, for example 07-JUL-2010
#TIME        :             The time of day at which the spectrum was recorded, in 24-hour format
#OWNER       : PIXL Flight Model       (PIXL will use this to indicate which instrument took the data.)
#NPOINTS     : 4096     Number of data points in the spectrum (This can be zero for configuration only files)
#NCOLUMNS    : 2     Number of data columns in the spectrum (This can be zero for configuration only files)
#XUNITS      : eV
#YUNITS      : COUNTS
#DATATYPE    : YY
#XPERCHAN    : 7.862, 7.881   eV per channel (separate by commas if more than one detector)
#OFFSET      : 18.5, -22.4         eV of first channel  (separate by commas if more than one detector
#SIGNALTYPE  : XRF
#YP_TEMP     : 0.728
#LIVETIME    : 8.8407, 8.6361   seconds (separate by commas if more than one detector)
#REALTIME    : 10, 10.0   seconds (separate by commas if more than one detector)
#SPECTRUM    : start of spectrum data
0, 0
0, 0
0, 0
0, 0
0, 0
0, 0
0, 0
0, 0
0, 0
0, 0
0, 0
0, 0
0, 0
0, 0
0, 0
0, 0
0, 0
0, 0
0, 0
0, 0
0, 0
0, 0
0, 0
0, 0
0, 0
0, 0
0, 0
0, 0
0, 0
0, 0
0, 0
0, 0
0, 1
0, 1
1, 1
0, 2
0, 3
4, 3
5, 9
3, 3
3, 6
3, 4
2, 2
3, 3
2, 6
2, 4
1, 3
5, 4
2, 4
5, 2
6, 7
4, 7
5, 16
10, 11
9, 16
16, 15
12, 8
5, 11
11, 10
11, 9
11, 16
23, 38
31, 34
43, 47
32, 39
42, 53
23, 43
33, 34
37, 41
59, 52
110, 133
193, 215
286, 357
382, 443
432, 482
456, 514
390, 481
310, 335
191, 198
140, 119
79, 75
47, 50
30, 31
27, 27
26, 36
32, 38
40, 43
25, 33
20, 40
23, 20
23, 20
13, 12
32, 34
45, 49
85, 102
119, 156
187, 238
228, 332
290, 326
276, 334
248, 260
220, 257
138, 178
97, 112
70, 74
57, 40
59, 50
65, 67
72, 94
85, 124
148, 163
141, 205
179, 218
154, 201
178, 173
157, 171
112, 154
103, 92
76, 88
74, 71
71, 60
76, 70
54, 69
46, 46
38, 58
30, 38
23, 31
24, 23
25, 14
14, 7
11, 5
4, 10
7, 8
6, 6
8, 7
6, 7
7, 13
16, 11
23, 17
23, 46
20, 28
35, 28
26, 26
21, 28
18, 19
8, 19
11, 10
6, 11
12, 10
17, 26
32, 37
47, 64
86, 110
139, 178
202, 293
245, 348
334, 406
359, 426
357, 410
304, 353
229, 260
168, 180
108, 103
58, 61
38, 42
36, 33
28, 32
37, 50
40, 53
70, 57
47, 56
63, 73
38, 53
53, 41
38, 52
32, 23
22, 22
10, 8
9, 17
5, 11
7, 8
9, 11
8, 10
9, 9
5, 10
9, 18
20, 18
18, 23
37, 40
27, 57
48, 54
57, 61
55, 73
56, 53
59, 71
34, 33
29, 29
34, 30
33, 24
11, 24
11, 16
25, 11
10, 10
7, 16
8, 12
13, 14
13, 21
10, 17
8, 9
15, 17
12, 18
23, 30
15, 34
13, 16
16, 20
6, 11
16, 11
6, 7
7, 13
8, 12
14, 7
8, 9
15, 18
9, 11
14, 10
12, 19
15, 24
27, 32
29, 33
28, 33
30, 30
22, 26
19, 36
29, 33
29, 21
11, 18
12, 10
10, 16
11, 8
15, 11
8, 13
14, 8
7, 17
8, 17
20, 23
20, 24
19, 38
18, 50
42, 42
38, 47
36, 46
44, 52
48, 43
37, 39
35, 30
26, 25
29, 24
23, 22
21, 21
19, 18
15, 13
16, 30
40, 51
71, 85
129, 163
212, 279
377, 477
603, 741
839, 1132
1092, 1433
1363, 1663
1539, 1808
1653, 1884
1531, 1724
1290, 1383
1063, 1112
770, 778
567, 500
349, 319
201, 164
125, 93
62, 36
30, 40
19, 28
25, 16
12, 11
19, 17
18, 14
12, 28
13, 22
31, 26
20, 35
37, 36
66, 93
68, 97
109, 150
151, 197
177, 217
232, 271
238, 262
237, 279
240, 253
182, 211
142, 169
104, 113
86, 64
43, 68
37, 26
17, 16
19, 13
10, 9
7, 12
6, 4
10, 11
7, 16
6, 6
18, 15
10, 13
10, 14
11, 13
11, 7
9, 8
12, 8
8, 8
6, 5
11, 8
7, 6
3, 3
2, 4
9, 5
7, 4
8, 7
5, 9
5, 6
3, 8
7, 5
7, 5
8, 7
8, 9
8, 11
6, 9
9, 7
16, 8
5, 3
10, 4
4, 9
8, 7
8, 7
8, 6
5, 6
16, 5
8, 7
8, 8
1, 5
3, 3
6, 7
4, 3
3, 6
8, 7
9, 6
5, 11
2, 14
7, 13
14, 16
7, 13
4, 11
6, 12
12, 12
9, 7
12, 7
3, 10
8, 2
8, 5
5, 7
4, 7
6, 5
6, 4
8, 3
4, 5
7, 4
2, 5
4, 2
3, 8
4, 4
4, 1
1, 6
5, 3
5, 6
4, 3
9, 3
12, 6
9, 4
7, 4
3, 6
2, 4
7, 4
8, 9
5, 2
4, 7
9, 4
8, 6
3, 8
4, 3
4, 4
5, 9
4, 4
3, 3
4, 6
3, 1
6, 5
0, 7
1, 2
3, 2
6, 3
6, 8
2, 6
3, 4
4, 5
2, 8
2, 5
4, 4
6, 6
2, 4
2, 6
4, 4
1, 3
0, 7
4, 4
6, 3
4, 6
4, 4
5, 5
1, 3
4, 5
5, 6
3, 11
1, 4
3, 2
2, 0
4, 3
2, 3
4, 5
5, 4
2, 6
7, 5
4, 3
4, 5
7, 2
5, 1
4, 2
6, 1
1, 1
5, 2
3, 1
4, 2
3, 3
1, 2
1, 5
3, 4
3, 6
4, 2
5, 2
0, 2
2, 4
2, 1
2, 4
2, 2
5, 5
2, 4
6, 1
3, 3
6, 3
3, 5
2, 5
2, 1
1, 2
5, 1
4, 3
2, 4
3, 6
1, 4
4, 4
2, 3
4, 5
1, 0
1, 1
3, 4
5, 5
3, 2
3, 3
0, 6
3, 4
0, 2
1, 3
2, 4
2, 5
2, 3
2, 3
1, 2
2, 4
4, 3
0, 1
2, 1
1, 4
1, 5
1, 2
4, 4
5, 1
3, 3
3, 0
1, 4
1, 1
2, 6
2, 3
2, 2
0, 0
1, 3
1, 2
1, 1
2, 4
5, 5
0, 3
3, 2
5, 3
0, 4
2, 2
1, 1
0, 1
3, 3
2, 1
3, 3
0, 3
1, 1
4, 4
2, 2
2, 0
3, 2
6, 2
2, 7
1, 1
3, 3
2, 4
3, 6
2, 6
3, 1
2, 4
8, 2
2, 1
1, 2
1, 0
2, 2
2, 3
1, 3
1, 1
1, 1
2, 1
1, 5
1, 2
1, 0
1, 3
1, 3
1, 1
1, 0
1, 1
0, 3
0, 1
2, 2
2, 2
0, 1
1, 1
3, 1
0, 2
2, 2
3, 6
1, 3
0, 0
1, 0
0, 2
1, 1
2, 1
0, 0
3, 1
1, 2
3, 3
1, 1
4, 1
0, 1
3, 1
3, 2
1, 1
3, 0
0, 1
3, 1
4, 2
2, 2
0, 1
0, 1
1, 2
0, 1
1, 2
2, 0
1, 2
0, 3
1, 2
0, 2
0, 2
1, 3
3, 1
0, 2
0, 2
1, 1
1, 1
1, 1
1, 4
0, 2
0, 3
1, 1
0, 0
1, 0
1, 1
1, 1
1, 0
0, 1
0, 3
0, 1
0, 0
0, 1
1, 0
1, 0
1, 2
2, 1
0, 1
0, 0
4, 1
0, 1
0, 1
0, 1
0, 0
2, 1
2, 0
2, 0
1, 0
1, 0
0, 1
0, 1
1, 1
2, 0
1, 1
0, 0
0, 0
1, 0
1, 0
0, 0
0, 0
0, 1
0, 1
0, 1
2, 1
1, 1
2, 1
0, 1
1, 0
0, 1
1, 1
0, 0
0, 1
1, 1
0, 1
2, 1
0, 0
0, 0
0, 0
0, 0
0, 0
0, 0
0, 0
2, 0
0, 0
0, 0
2, 0
0, 0
0, 0
0, 0
0, 0
1, 2
0, 2
0, 3
0, 1
1, 0
2, 2
0, 0
0, 1
0, 1
0, 0
0, 2
0, 2
1, 0
0, 1
1, 0
1, 0
2, 2
0, 0
1, 0
0, 0
0, 3
0, 0
0, 0
0, 1
0, 0
0, 1
3, 0
0, 0
1, 0
1, 1
0, 0
0, 0
0, 0
0, 0
0, 2
0, 0
0, 0
1, 0
0, 0
0, 0
0, 0
0, 0
0, 0
0, 0
0, 1
0, 0
0, 1
0, 0
0, 0
0, 0
0, 0
0, 1
0, 0
0, 0
0, 0
0, 0
1, 1
2, 0
1, 0
0, 0
0, 0
0, 0
0, 0
0, 1
1, 0
0, 1
0, 0
0, 0
1, 1
1, 1
0, 0
1, 0
0, 0
0, 0
1, 0
0, 0
0, 0
2, 0
0, 0
0, 0
0, 2
1, 1
0, 1
1, 1
0, 1
0, 0
0, 0
0, 0
0, 0
1, 0
0, 0
1, 0
1, 0
0, 0
0, 0
0, 0
1, 1
0, 0
0, 1
0, 0
0, 0
0, 1
1, 0
0, 1
0, 1
0, 0
1, 0
0, 0
0, 0
0, 1
1, 0
0, 1
0, 1
1, 0
0, 0
0, 0
0, 0
2, 0
0, 0
1, 1
1, 0
0, 0
0, 1
0, 0
0, 0
0, 0
0, 0
0, 0
1, 0
0, 0
0, 0
0, 0
0, 0
0, 0
0, 0
0, 0
0, 0
0, 0
0, 0
0, 0
0, 0
0, 0
0, 0
0, 1
0, 1
1, 0
0, 0
0, 1
1, 0
0, 0
0, 1
0, 0
0, 0
0, 0
0, 0
0, 0
0, 0
0, 0
0, 0
0, 0
0, 0
0, 0
0, 0
0, 0
0, 0
0, 0
0, 0
1, 0
0, 0
0, 0
0, 1
0, 0
0, 0
0, 0
0, 0
0, 0
0, 1
0, 0
0, 0
0, 0
0, 0
0, 1
0, 0
0, 0
0, 0
0, 0
0, 0
0, 0
0, 0
0, 0
0, 0
0, 0
0, 0
0, 0
0, 0
0, 0
0, 0
0, 0
0, 0
0, 0
0, 0
1, 0
0, 0
1, 1
0, 0
0, 0
0, 0
0, 1
0, 0
1, 0
0, 0
0, 0
0, 0
0, 0
0, 0
0, 0
1, 0
0, 0
0, 0
0, 0
0, 0
0, 0
1, 0
0, 0
0, 0
0, 0
0, 0
0, 0
0, 1
0, 0
0, 0
0, 1
0, 0
0, 0
0, 0
0, 0
0, 0
0, 0
0, 0
0, 0
0, 1
0, 0
0, 0
0, 0
0, 0
0, 0
0, 0
0, 0
0, 0
0, 0
1, 0
0, 0
0, 0
0, 0
0, 0
0, 0
0, 0
0, 0
0, 0
0, 0
0, 0
0, 0
0, 0
0, 0
0, 0
0, 0
0, 0
0, 0
0, 0
0, 0
0, 0
0, 0
0, 0
0, 0
0, 0
0, 0
0, 0
0, 0
0, 0
0, 0
0, 0
0, 0
0, 0
0, 0
0, 0
0, 0
0, 0
0, 0
0, 0
0, 0
1, 0
0, 0
0, 0
0, 0
0, 0
0, 0
0, 0
0, 0
0, 0
0, 0
0, 0
0, 0
0, 0
0, 0
0, 0
1, 0
0, 0
0, 0
0, 0
0, 0
0, 0
0, 0
0, 0
0, 0
0, 0
0, 0
0, 0
0, 0
0, 0
0, 0
0, 1
0, 0
0, 0
0, 0
0, 0
0, 0
0, 0
0, 0
0, 0
0, 0
0, 0
0, 0
0, 0
0, 0
0, 0
0, 0
0, 0
0, 0
0, 0
0, 0
0, 0
0, 0
0, 0
0, 0
0, 0
0, 0
0, 0
0, 0
0, 0
0, 0
0, 0
0, 0
0, 0
0, 0
0, 0
0, 0
0, 0
0, 0
0, 0
0, 0
0, 0
0, 0
0, 0
0, 0
0, 0
0, 0
1, 0
0, 0
0, 0
0, 0
0, 0
0, 0
0, 0
0, 0
0, 0
0, 0
0, 0
0, 0
0, 0
0, 0
0, 0
0, 0
0, 0
0, 0
0, 0
0, 0
0, 0
0, 0
0, 0
0, 0
0, 0
0, 0
0, 0
0, 0
0, 0
0, 0
0, 0
0, 0
0, 0
0, 0
0, 0
0, 0
0, 0
0, 0
0, 0
0, 0
0, 0
0, 0
0, 0
0, 0
0, 0
0, 0
0, 0
0, 0
0, 0
0, 0
0, 0
0, 0
0, 0
0, 0
0, 0
0, 0
0, 0
0, 0
0, 0
0, 0
0, 0
0, 0
0, 0
0, 0
0, 0
0, 0
0, 0
0, 0
0, 0
0, 0
0, 0
0, 0
0, 0
0, 0
0, 0
0, 0
0, 0
0, 0
0, 0
0, 0
0, 0
0, 0
0, 0
0, 0
0, 0
0, 0
0, 0
0, 0
0, 0
0, 0
0, 0
0, 0
0, 0
0, 0
0, 0
0, 0
0, 0
0, 0
0, 0
0, 0
0, 0
0, 0
0, 0
0, 0
0, 0
0, 0
0, 0
0, 0
0, 0
0, 0
0, 0
0, 0
0, 0
0, 0
0, 0
0, 0
0, 0
0, 0
0, 0
0, 0
0, 0
0, 0
0, 0
0, 0
0, 0
0, 0
0, 0
0, 0
0, 0
0, 0
0, 0
0, 0
0, 0
0, 0
0, 0
0, 0
0, 0
0, 0
0, 0
0, 0
0, 0
0, 0
0, 0
0, 0
0, 0
0, 0
0, 0
0, 0
0, 0
0, 0
0, 0
0, 0
0, 0
0, 0
0, 0
0, 0
0, 0
0, 0
0, 0
0, 0
0, 0
0, 0
0, 0
0, 0
0, 0
0, 0
0, 0
0, 0
0, 0
0, 0
0, 0
0, 0
0, 0
0, 0
0, 0
0, 0
0, 0
0, 0
0, 0
0, 0
0, 0
0, 0
0, 0
0, 0
0, 0
0, 0
0, 0
0, 0
0, 0
0, 0
0, 0
0, 0
0, 0
0, 0
0, 0
0, 0
0, 0
0, 0
0, 0
0, 0
0, 0
0, 0
0, 0
0, 0
0, 0
0, 0
0, 0
0, 0
0, 0
0, 0
0, 0
0, 0
0, 0
0, 0
0, 0
0, 0
0, 0
0, 0
0, 0
0, 0
0, 0
0, 0
0, 0
0, 0
0, 0
0, 0
0, 0
0, 0
0, 0
0, 0
0, 0
0, 0
0, 0
0, 0
0, 0
0, 0
0, 0
0, 0
0, 0
0, 0
0, 0
0, 0
0, 0
0, 0
0, 0
0, 0
0, 0
0, 0
0, 0
0, 0
0, 0
0, 0
0, 0
0, 0
0, 0
0, 0
0, 0
0, 0
0, 0
0, 0
0, 0
0, 0
0, 0
0, 0
0, 0
0, 0
0, 0
0, 0
0, 0
0, 0
0, 0
0, 0
0, 0
0, 0
0, 0
0, 0
0, 0
0, 0
0, 0
0, 0
0, 0
0, 0
0, 0
0, 0
0, 0
0, 0
0, 0
0, 0
0, 0
0, 0
0, 0
0, 0
0, 0
0, 0
0, 0
0, 0
0, 0
0, 0
0, 0
0, 0
0, 0
0, 0
0, 0
0, 0
0, 0
0, 0
0, 0
0, 0
0, 0
0, 0
0, 0
0, 0
0, 0
0, 0
0, 0
0, 0
#ENDOFDATA     end of spectrum data