File: host_upload/02-11-2024/rqc/uplink1/ps__0567_0717304816_000rfs_shot_166.msa
#FORMAT      : EMSA/MAS spectral data file
#VERSION     : TC202v2.0 PIXL
#TITLE       : Novarupta (sol567) subset1
#DATE        : 02-11-2024      Date in the format DD-MMM-YYYY, for example 07-JUL-2010
#TIME        :             The time of day at which the spectrum was recorded, in 24-hour format
#OWNER       : PIXL Flight Model       (PIXL will use this to indicate which instrument took the data.)
#NPOINTS     : 4096     Number of data points in the spectrum (This can be zero for configuration only files)
#NCOLUMNS    : 2     Number of data columns in the spectrum (This can be zero for configuration only files)
#XUNITS      : eV
#YUNITS      : COUNTS
#DATATYPE    : YY
#XPERCHAN    : 7.862, 7.881   eV per channel (separate by commas if more than one detector)
#OFFSET      : 18.5, -22.4         eV of first channel  (separate by commas if more than one detector
#SIGNALTYPE  : XRF
#YP_TEMP     : 0.119
#LIVETIME    : 8.83188, 8.82523   seconds (separate by commas if more than one detector)
#REALTIME    : 10, 10.0   seconds (separate by commas if more than one detector)
#SPECTRUM    : start of spectrum data
0, 0
0, 0
0, 0
0, 0
0, 0
0, 0
0, 0
0, 0
0, 0
0, 0
0, 0
0, 0
0, 0
0, 0
0, 0
0, 0
0, 0
0, 0
0, 0
0, 0
0, 0
0, 0
0, 0
0, 0
0, 0
0, 0
0, 0
0, 0
0, 0
0, 0
1, 0
0, 0
1, 0
0, 0
2, 3
0, 3
4, 2
4, 3
6, 4
2, 2
7, 3
5, 6
2, 1
5, 8
4, 3
5, 4
2, 5
2, 2
1, 3
3, 6
12, 6
9, 10
17, 10
15, 13
13, 18
13, 16
13, 18
9, 12
14, 9
20, 10
17, 15
29, 24
37, 40
46, 48
57, 46
50, 45
45, 46
34, 33
44, 30
61, 63
91, 104
190, 223
301, 336
401, 431
456, 504
456, 477
441, 449
355, 338
242, 226
148, 143
69, 78
39, 50
34, 47
28, 31
29, 31
33, 37
34, 36
27, 40
20, 24
25, 26
21, 11
13, 16
28, 32
39, 43
79, 102
122, 153
229, 219
241, 251
277, 296
316, 290
293, 268
224, 216
180, 152
113, 97
82, 58
47, 62
66, 62
66, 80
99, 135
138, 151
216, 184
224, 259
259, 286
269, 274
225, 215
197, 190
150, 138
115, 117
88, 99
86, 93
66, 76
76, 85
69, 67
43, 52
54, 43
41, 39
34, 25
23, 25
21, 18
15, 12
11, 12
5, 7
2, 9
6, 10
13, 7
10, 6
9, 11
16, 16
22, 20
36, 25
22, 27
30, 31
31, 35
28, 35
17, 19
17, 23
8, 10
7, 6
8, 17
19, 15
31, 40
38, 54
105, 121
146, 163
247, 220
287, 301
354, 395
370, 399
350, 360
305, 330
238, 247
195, 161
96, 80
70, 61
55, 48
38, 34
35, 28
46, 38
42, 44
57, 50
69, 53
64, 75
63, 52
41, 41
37, 39
39, 26
28, 19
18, 15
11, 15
10, 7
5, 8
11, 6
6, 7
14, 10
11, 12
15, 12
29, 23
24, 36
33, 42
47, 47
61, 52
66, 50
66, 52
64, 72
51, 53
32, 51
46, 32
24, 30
31, 24
20, 21
18, 12
21, 14
10, 14
12, 18
11, 11
22, 10
16, 12
16, 24
15, 15
18, 20
20, 20
16, 18
16, 23
14, 12
16, 14
12, 17
18, 14
21, 12
18, 11
10, 12
12, 11
7, 8
14, 14
18, 12
13, 14
12, 26
23, 15
27, 28
27, 39
39, 29
35, 27
34, 31
30, 21
25, 28
22, 19
22, 22
16, 13
15, 14
15, 20
18, 13
16, 11
17, 9
16, 15
14, 12
12, 19
17, 20
31, 28
24, 38
40, 45
62, 46
41, 61
63, 70
50, 47
41, 42
47, 27
30, 30
28, 26
36, 14
18, 19
12, 20
26, 22
26, 26
47, 50
68, 82
168, 164
216, 300
390, 521
633, 796
1010, 1062
1259, 1446
1462, 1648
1779, 1895
1777, 1865
1694, 1634
1448, 1407
1236, 1102
817, 784
609, 516
351, 309
212, 178
123, 106
67, 51
44, 33
22, 22
28, 25
17, 13
17, 13
24, 16
21, 18
23, 23
23, 23
26, 44
35, 56
70, 85
91, 111
132, 136
167, 176
183, 226
240, 294
257, 284
269, 241
271, 247
199, 239
186, 144
138, 116
93, 85
57, 48
50, 30
21, 13
17, 13
13, 12
10, 11
4, 11
4, 5
12, 8
12, 10
21, 13
13, 12
5, 14
9, 19
12, 10
12, 11
10, 11
7, 5
10, 9
7, 5
9, 7
10, 4
7, 7
6, 7
2, 7
6, 4
4, 7
8, 3
5, 5
7, 7
4, 9
1, 1
6, 6
7, 7
7, 4
8, 4
8, 5
7, 13
11, 10
5, 11
13, 6
4, 9
5, 9
10, 10
12, 12
6, 7
9, 7
9, 5
8, 6
4, 6
5, 10
7, 8
5, 7
7, 9
11, 7
12, 6
8, 11
11, 11
9, 8
11, 12
12, 14
10, 9
11, 15
11, 5
11, 12
12, 5
8, 9
12, 6
10, 9
10, 8
5, 7
2, 4
6, 5
3, 5
6, 8
6, 3
5, 7
5, 6
5, 4
5, 6
8, 3
6, 4
6, 9
5, 7
3, 5
5, 5
7, 5
7, 7
4, 9
4, 6
6, 2
9, 6
6, 8
3, 3
8, 5
7, 4
3, 6
4, 6
5, 4
0, 4
3, 9
4, 5
4, 4
4, 4
6, 3
6, 3
4, 3
5, 5
8, 4
6, 4
3, 6
9, 8
4, 4
7, 6
6, 4
8, 5
4, 2
7, 8
3, 4
3, 2
4, 2
8, 1
3, 2
3, 8
2, 3
3, 3
4, 7
3, 4
3, 2
4, 5
3, 3
3, 1
5, 1
3, 2
6, 5
7, 4
3, 3
4, 2
4, 1
3, 4
2, 1
1, 4
4, 1
4, 3
6, 3
4, 1
3, 7
5, 3
1, 4
4, 4
5, 3
6, 5
6, 2
2, 2
2, 3
0, 5
6, 3
5, 1
3, 1
4, 6
2, 3
2, 3
2, 9
5, 3
2, 2
2, 6
0, 2
6, 0
1, 3
3, 3
3, 3
3, 5
3, 1
4, 2
4, 5
4, 3
5, 3
4, 4
1, 3
3, 4
3, 2
2, 2
2, 4
2, 2
4, 1
2, 3
2, 1
2, 1
4, 4
2, 1
1, 2
2, 3
4, 3
1, 2
0, 1
2, 3
6, 1
2, 4
4, 1
4, 3
2, 2
7, 2
1, 1
3, 2
3, 0
1, 0
0, 2
1, 1
0, 1
3, 0
2, 4
4, 5
2, 2
2, 0
8, 1
2, 1
2, 3
0, 2
2, 1
6, 2
1, 3
0, 1
2, 1
3, 0
1, 0
3, 1
0, 3
0, 2
4, 0
2, 2
2, 5
4, 1
3, 2
3, 2
4, 3
3, 7
2, 2
1, 6
1, 5
4, 5
3, 2
3, 4
5, 2
0, 1
3, 1
2, 0
2, 1
0, 0
1, 2
1, 2
2, 5
1, 4
1, 0
1, 7
0, 1
1, 1
1, 0
1, 1
4, 2
5, 3
0, 1
1, 0
0, 3
0, 2
0, 1
1, 1
2, 0
1, 0
1, 0
1, 0
0, 4
0, 1
0, 0
1, 3
2, 4
1, 1
2, 2
1, 1
1, 2
1, 0
1, 1
1, 2
0, 1
1, 2
1, 1
0, 1
1, 1
1, 3
0, 0
2, 0
0, 2
2, 1
0, 4
2, 1
1, 0
0, 2
2, 3
1, 2
1, 2
1, 1
0, 0
3, 1
2, 0
0, 1
1, 3
4, 0
2, 1
0, 1
2, 1
3, 1
2, 1
2, 0
1, 0
2, 0
0, 1
0, 0
1, 0
1, 1
0, 3
1, 1
2, 0
0, 0
0, 0
1, 1
0, 1
0, 2
1, 1
0, 0
1, 1
0, 0
0, 1
1, 2
1, 1
0, 1
0, 0
1, 1
0, 0
1, 1
0, 1
1, 1
0, 0
1, 0
0, 0
0, 0
0, 0
0, 0
1, 0
1, 1
1, 1
0, 0
0, 1
3, 0
1, 2
0, 0
1, 0
1, 0
0, 0
0, 1
0, 0
0, 1
0, 1
0, 1
0, 1
0, 0
0, 1
0, 2
2, 0
1, 0
0, 1
0, 0
0, 0
0, 0
0, 1
1, 0
2, 0
1, 0
0, 1
2, 1
2, 1
1, 0
0, 0
0, 1
1, 0
1, 1
0, 1
1, 0
1, 0
0, 1
0, 0
1, 1
0, 0
1, 0
0, 0
1, 0
0, 0
1, 1
1, 1
1, 1
0, 0
0, 1
0, 0
0, 0
1, 1
0, 0
1, 0
1, 1
0, 0
0, 0
0, 1
0, 0
0, 1
0, 1
0, 1
1, 0
0, 1
0, 0
0, 0
0, 0
0, 0
0, 1
0, 0
0, 0
1, 0
1, 0
0, 0
1, 0
0, 1
0, 0
0, 1
2, 0
0, 0
0, 0
0, 0
0, 0
1, 0
0, 0
0, 0
0, 0
0, 0
0, 0
0, 0
0, 0
0, 0
0, 0
0, 0
0, 0
0, 0
0, 2
0, 0
0, 0
0, 0
0, 1
0, 1
0, 0
0, 0
0, 0
0, 1
0, 1
0, 0
0, 0
0, 0
1, 0
0, 0
1, 0
0, 1
0, 0
0, 1
0, 0
0, 2
0, 1
0, 0
2, 0
0, 1
0, 0
0, 0
1, 0
0, 0
0, 0
1, 1
0, 1
0, 0
0, 0
0, 0
1, 0
1, 1
0, 0
0, 0
0, 0
0, 0
1, 0
0, 0
0, 0
0, 0
0, 0
0, 0
0, 0
1, 0
0, 0
0, 1
0, 0
1, 0
0, 0
0, 0
0, 0
0, 0
0, 0
0, 0
0, 1
0, 0
0, 0
0, 0
0, 0
2, 0
0, 0
0, 0
1, 0
0, 0
0, 0
0, 0
0, 0
0, 0
0, 0
0, 0
0, 0
0, 0
0, 0
0, 0
0, 0
0, 0
0, 0
1, 0
0, 0
0, 0
0, 0
0, 0
0, 0
0, 1
0, 0
0, 0
1, 0
0, 0
0, 0
1, 0
0, 1
0, 0
0, 0
0, 0
2, 0
1, 1
0, 1
0, 0
0, 0
0, 0
0, 1
0, 0
0, 0
0, 0
1, 0
0, 0
0, 0
0, 1
0, 0
0, 0
0, 0
0, 0
0, 0
0, 0
0, 0
0, 0
1, 0
0, 1
0, 0
0, 0
0, 0
0, 0
0, 0
0, 0
0, 0
0, 0
0, 0
0, 0
0, 0
0, 0
0, 0
0, 0
0, 0
0, 0
0, 0
0, 0
0, 0
0, 0
0, 0
0, 0
0, 0
0, 1
1, 0
0, 0
0, 0
0, 0
0, 0
0, 0
0, 0
0, 0
0, 0
1, 0
0, 0
0, 0
0, 0
0, 0
0, 0
0, 0
0, 0
0, 0
0, 0
0, 0
0, 0
0, 0
0, 1
0, 0
0, 0
0, 0
0, 0
0, 0
0, 0
0, 0
0, 0
0, 0
0, 0
0, 0
0, 0
0, 0
0, 0
0, 0
0, 0
0, 0
0, 0
0, 0
0, 0
0, 0
0, 0
0, 0
0, 0
0, 0
0, 0
0, 0
0, 0
0, 0
0, 0
0, 0
0, 0
0, 0
0, 0
0, 0
0, 0
0, 0
0, 0
0, 0
0, 0
0, 0
0, 0
0, 0
0, 0
0, 0
0, 0
0, 0
0, 0
0, 0
0, 0
0, 0
0, 0
0, 0
0, 0
0, 0
0, 0
0, 0
0, 0
0, 0
0, 0
0, 0
0, 0
0, 0
0, 0
0, 0
0, 0
0, 0
0, 0
0, 0
0, 0
0, 0
0, 0
0, 0
0, 0
0, 0
0, 0
0, 0
0, 0
0, 0
0, 0
0, 0
0, 0
0, 0
0, 0
0, 0
0, 0
0, 0
0, 0
0, 0
0, 0
0, 0
0, 0
0, 0
0, 0
0, 0
0, 0
0, 0
0, 0
0, 0
0, 0
0, 0
0, 0
0, 0
0, 0
0, 0
0, 0
0, 0
0, 0
0, 0
0, 0
0, 0
0, 0
0, 0
0, 0
0, 0
0, 0
0, 0
0, 0
0, 0
0, 0
0, 0
0, 0
0, 0
0, 0
0, 0
0, 0
0, 0
0, 0
0, 0
0, 0
0, 0
0, 0
0, 0
0, 0
0, 0
0, 0
0, 0
0, 0
0, 0
0, 0
0, 0
0, 0
0, 0
0, 0
0, 0
0, 0
0, 0
0, 0
0, 0
0, 0
0, 0
0, 0
0, 0
0, 0
0, 0
0, 0
0, 0
0, 0
0, 0
0, 0
0, 0
0, 0
0, 0
0, 0
0, 0
0, 0
0, 0
0, 0
0, 0
0, 0
0, 0
0, 0
0, 0
0, 0
0, 0
0, 0
0, 0
0, 0
0, 0
0, 0
0, 0
0, 0
0, 0
0, 0
0, 0
0, 0
0, 0
0, 0
0, 0
0, 0
0, 0
0, 0
0, 0
0, 0
0, 0
0, 0
0, 0
0, 0
0, 0
0, 0
0, 0
0, 0
0, 0
0, 0
0, 0
0, 0
0, 0
0, 0
0, 0
0, 0
0, 0
0, 0
0, 0
0, 0
0, 0
0, 0
0, 0
0, 0
0, 0
0, 0
0, 0
0, 0
0, 0
0, 0
0, 0
0, 0
0, 0
0, 0
0, 0
0, 0
0, 0
0, 0
0, 0
0, 0
0, 0
0, 0
0, 0
0, 0
0, 0
0, 0
0, 0
0, 0
0, 0
0, 0
0, 0
0, 0
0, 0
0, 0
0, 0
0, 0
0, 0
0, 0
0, 0
0, 0
0, 0
0, 0
0, 0
0, 0
0, 0
0, 0
0, 0
0, 0
0, 0
0, 0
0, 0
0, 0
0, 0
0, 0
0, 0
0, 0
0, 0
0, 0
0, 0
0, 0
0, 0
0, 0
0, 0
0, 0
0, 0
0, 0
0, 0
0, 0
0, 0
0, 0
0, 0
0, 0
0, 0
0, 0
0, 0
0, 0
0, 0
0, 0
0, 0
0, 0
0, 0
0, 0
0, 0
0, 0
0, 0
0, 0
0, 0
0, 0
0, 0
0, 0
0, 0
0, 0
0, 0
0, 0
0, 0
0, 0
0, 0
0, 0
0, 0
0, 0
0, 0
0, 0
0, 0
0, 0
0, 0
0, 0
0, 0
0, 0
0, 0
0, 0
0, 0
0, 0
0, 0
0, 0
0, 0
0, 0
0, 0
0, 0
0, 0
0, 0
0, 0
0, 0
0, 0
0, 0
0, 0
0, 0
0, 0
0, 0
0, 0
0, 0
0, 0
0, 0
0, 0
0, 0
0, 0
0, 0
0, 0
0, 0
0, 0
0, 0
0, 0
0, 0
0, 0
0, 0
0, 0
0, 0
0, 0
0, 0
0, 0
0, 0
0, 0
0, 0
0, 0
0, 0
0, 0
0, 0
0, 0
0, 0
0, 0
0, 0
0, 0
0, 0
0, 0
0, 0
0, 0
0, 0
0, 0
0, 0
0, 0
0, 0
0, 0
0, 0
0, 0
0, 0
0, 0
0, 0
0, 0
0, 0
0, 0
0, 0
0, 0
0, 0
0, 0
0, 0
0, 0
0, 0
0, 0
0, 0
0, 0
0, 0
0, 0
0, 0
0, 0
0, 0
0, 0
0, 0
0, 0
0, 0
0, 0
0, 0
0, 0
0, 0
0, 0
0, 0
0, 0
0, 0
0, 0
0, 0
0, 0
0, 0
0, 0
0, 0
0, 0
0, 0
0, 0
0, 0
0, 0
0, 0
0, 0
0, 0
0, 0
0, 0
0, 0
0, 0
0, 0
0, 0
0, 0
0, 0
#ENDOFDATA     end of spectrum data