File: host_upload/02-11-2024/rqc/uplink1/ps__0567_0717304816_000rfs_shot_494.msa
#FORMAT      : EMSA/MAS spectral data file
#VERSION     : TC202v2.0 PIXL
#TITLE       : Novarupta (sol567) subset1
#DATE        : 02-11-2024      Date in the format DD-MMM-YYYY, for example 07-JUL-2010
#TIME        :             The time of day at which the spectrum was recorded, in 24-hour format
#OWNER       : PIXL Flight Model       (PIXL will use this to indicate which instrument took the data.)
#NPOINTS     : 4096     Number of data points in the spectrum (This can be zero for configuration only files)
#NCOLUMNS    : 2     Number of data columns in the spectrum (This can be zero for configuration only files)
#XUNITS      : eV
#YUNITS      : COUNTS
#DATATYPE    : YY
#XPERCHAN    : 7.862, 7.881   eV per channel (separate by commas if more than one detector)
#OFFSET      : 18.5, -22.4         eV of first channel  (separate by commas if more than one detector
#SIGNALTYPE  : XRF
#YP_TEMP     : 2.267
#LIVETIME    : 8.8334, 8.808   seconds (separate by commas if more than one detector)
#REALTIME    : 10, 10.0   seconds (separate by commas if more than one detector)
#SPECTRUM    : start of spectrum data
0, 0
0, 0
0, 0
0, 0
0, 0
0, 0
0, 0
0, 0
0, 0
0, 0
0, 0
0, 0
0, 0
0, 0
0, 0
0, 0
0, 0
0, 0
0, 0
0, 0
0, 0
0, 0
0, 0
0, 0
0, 0
0, 0
0, 0
0, 0
0, 0
0, 0
0, 1
0, 0
0, 0
0, 1
0, 0
3, 0
3, 2
5, 5
3, 1
3, 3
0, 7
5, 3
4, 2
2, 3
0, 3
2, 4
1, 3
1, 6
3, 3
4, 6
7, 10
9, 10
8, 10
10, 22
14, 17
20, 20
19, 15
5, 10
8, 15
8, 11
20, 22
27, 40
32, 47
41, 51
49, 55
41, 46
35, 53
31, 35
22, 39
52, 73
102, 109
204, 217
270, 323
397, 473
476, 548
524, 526
433, 427
356, 384
241, 226
147, 146
83, 90
42, 56
28, 28
36, 30
27, 37
31, 38
31, 32
23, 38
24, 35
29, 23
17, 16
15, 21
22, 18
28, 46
76, 85
142, 157
190, 232
285, 313
308, 353
312, 321
269, 311
204, 261
158, 175
104, 111
71, 72
47, 63
59, 66
59, 74
99, 112
118, 141
188, 222
198, 233
234, 230
226, 245
189, 214
183, 183
122, 159
114, 110
89, 105
87, 90
95, 88
79, 74
69, 73
48, 59
43, 44
44, 46
37, 27
27, 19
15, 15
12, 12
10, 14
12, 8
1, 7
6, 3
3, 7
9, 14
16, 13
15, 19
14, 31
26, 18
25, 31
36, 32
27, 39
34, 30
18, 24
15, 17
13, 9
11, 10
17, 16
15, 24
26, 28
51, 55
73, 99
133, 187
215, 295
292, 348
359, 426
368, 415
378, 380
290, 343
252, 253
174, 168
100, 118
68, 76
30, 37
37, 38
20, 19
39, 36
38, 58
46, 58
57, 66
54, 57
60, 58
48, 46
33, 33
36, 27
20, 27
10, 21
17, 12
8, 7
8, 9
8, 12
10, 12
12, 12
4, 12
19, 14
16, 22
22, 27
39, 37
43, 54
58, 54
62, 68
51, 48
62, 64
41, 54
43, 34
31, 37
27, 32
22, 29
19, 27
17, 25
12, 21
14, 10
12, 19
14, 14
13, 14
13, 12
18, 21
20, 24
14, 23
24, 27
19, 24
22, 20
17, 12
16, 13
12, 11
14, 19
12, 8
11, 7
9, 5
10, 7
6, 11
8, 15
12, 13
15, 15
16, 26
14, 30
21, 29
32, 23
34, 32
32, 36
35, 37
29, 32
26, 22
24, 21
20, 15
6, 18
10, 11
12, 11
17, 15
14, 7
19, 13
13, 9
17, 12
8, 23
21, 26
25, 33
23, 35
34, 59
42, 45
41, 62
55, 63
47, 51
39, 28
42, 37
34, 29
21, 22
23, 26
21, 20
25, 20
17, 28
28, 36
32, 59
63, 94
104, 155
203, 289
358, 489
533, 780
868, 1077
1098, 1404
1378, 1712
1692, 1977
1780, 2019
1650, 1750
1492, 1483
1194, 1131
977, 879
631, 549
372, 343
239, 200
127, 90
74, 63
48, 41
26, 29
32, 16
14, 19
15, 13
21, 15
18, 22
12, 27
22, 33
38, 22
29, 49
57, 78
85, 113
119, 139
146, 181
221, 249
254, 277
254, 299
259, 305
249, 254
217, 217
174, 184
117, 125
109, 84
60, 40
40, 36
27, 24
16, 11
10, 12
10, 6
8, 6
6, 18
10, 15
9, 9
10, 12
8, 19
8, 13
11, 14
11, 13
10, 7
10, 10
10, 10
3, 2
4, 8
8, 5
8, 9
4, 6
6, 7
3, 5
4, 11
4, 11
4, 12
6, 4
4, 8
3, 7
11, 6
4, 7
6, 6
7, 4
3, 5
5, 8
8, 4
4, 8
5, 10
5, 6
6, 9
3, 7
5, 3
9, 10
7, 7
7, 8
4, 5
7, 5
1, 4
7, 4
4, 6
6, 7
3, 9
4, 3
6, 8
5, 4
8, 9
17, 13
14, 10
11, 6
14, 5
13, 10
6, 11
10, 12
7, 7
7, 5
11, 7
6, 8
1, 3
2, 8
5, 8
7, 4
7, 5
6, 6
8, 9
3, 4
7, 6
6, 5
4, 7
11, 3
5, 9
7, 6
8, 6
4, 4
5, 6
7, 5
0, 6
8, 3
1, 1
3, 7
7, 9
3, 6
7, 4
6, 8
6, 6
3, 7
4, 10
5, 9
4, 5
2, 9
2, 7
2, 5
7, 6
4, 9
3, 5
2, 3
6, 7
2, 5
3, 8
3, 7
2, 6
6, 4
4, 6
6, 5
1, 6
6, 5
4, 8
4, 3
4, 4
1, 5
1, 4
4, 10
7, 4
1, 4
1, 4
2, 5
4, 4
0, 2
1, 4
0, 4
2, 5
1, 2
0, 2
3, 3
3, 4
2, 3
2, 3
6, 3
2, 7
6, 6
5, 5
1, 3
3, 5
3, 3
5, 3
2, 6
4, 2
4, 5
3, 2
1, 1
4, 6
2, 2
2, 6
3, 7
5, 1
2, 2
1, 5
2, 1
2, 4
2, 3
6, 3
3, 4
2, 2
2, 3
5, 4
1, 1
5, 2
2, 4
2, 6
0, 2
1, 5
3, 5
2, 3
2, 4
3, 1
5, 3
3, 2
2, 1
1, 2
3, 5
2, 7
1, 2
2, 1
0, 0
3, 4
0, 1
2, 2
0, 4
0, 2
4, 2
5, 4
1, 2
5, 1
2, 0
1, 5
1, 4
0, 4
1, 4
2, 2
4, 2
6, 0
5, 5
0, 2
1, 3
1, 3
1, 2
1, 3
3, 1
0, 4
2, 1
1, 4
2, 5
3, 2
0, 3
5, 2
2, 1
1, 0
0, 3
0, 3
3, 2
1, 2
1, 5
1, 5
2, 5
0, 3
3, 0
1, 4
2, 6
2, 1
2, 4
1, 4
4, 1
2, 2
2, 1
5, 5
5, 2
2, 4
4, 1
3, 3
4, 2
1, 0
1, 2
3, 0
1, 1
3, 2
0, 0
0, 3
2, 4
3, 3
1, 2
1, 6
0, 2
4, 1
1, 2
3, 2
0, 1
0, 4
1, 4
1, 3
2, 3
3, 2
4, 2
0, 0
1, 4
2, 3
1, 3
2, 2
2, 1
1, 3
2, 3
0, 1
4, 1
0, 1
1, 3
2, 4
0, 0
0, 2
2, 2
1, 2
1, 0
2, 2
0, 3
3, 1
2, 0
2, 0
2, 1
1, 2
0, 2
2, 0
0, 1
1, 1
2, 4
2, 5
0, 1
1, 1
1, 0
1, 1
0, 1
1, 3
1, 3
1, 1
0, 1
3, 1
0, 2
0, 1
0, 3
2, 1
1, 1
1, 4
0, 1
0, 0
0, 1
1, 0
0, 0
0, 1
0, 1
0, 0
3, 1
0, 1
0, 0
1, 1
1, 2
1, 0
0, 0
2, 2
0, 0
0, 1
0, 0
0, 2
1, 2
0, 1
0, 0
0, 1
0, 0
0, 1
2, 1
0, 0
1, 1
0, 1
2, 0
2, 1
0, 1
1, 1
0, 0
0, 0
0, 2
0, 0
0, 0
0, 1
0, 1
0, 0
1, 2
2, 0
1, 0
0, 1
0, 0
1, 0
1, 1
0, 0
0, 0
0, 1
1, 0
0, 0
0, 0
2, 0
0, 0
1, 0
0, 2
0, 2
1, 0
1, 1
1, 0
0, 1
0, 1
0, 2
0, 0
1, 2
2, 1
0, 0
0, 0
0, 0
3, 0
0, 0
1, 0
0, 0
1, 0
1, 1
1, 0
1, 0
0, 0
0, 0
1, 1
1, 0
0, 1
0, 0
0, 2
1, 1
1, 1
1, 0
1, 0
0, 1
0, 0
0, 0
1, 0
0, 0
0, 1
0, 0
1, 1
1, 0
0, 1
0, 0
0, 1
0, 0
0, 0
1, 0
0, 0
0, 0
0, 0
0, 0
0, 1
0, 1
0, 0
0, 1
0, 0
0, 0
0, 1
0, 1
0, 1
0, 1
0, 0
0, 0
1, 0
1, 0
0, 0
0, 0
0, 0
0, 0
1, 0
0, 0
0, 0
0, 1
0, 1
0, 0
1, 1
0, 0
0, 0
1, 0
1, 0
0, 0
0, 0
2, 0
1, 1
0, 0
0, 1
1, 0
0, 1
0, 0
0, 0
0, 0
0, 0
0, 2
2, 0
0, 1
0, 0
1, 0
0, 0
0, 2
1, 0
0, 0
0, 0
0, 0
0, 0
0, 0
0, 0
0, 0
1, 0
0, 0
0, 0
0, 0
1, 1
1, 0
0, 0
0, 1
1, 0
0, 1
2, 0
0, 0
0, 0
0, 0
0, 0
0, 1
0, 2
0, 0
0, 1
0, 0
0, 1
1, 0
0, 0
0, 0
0, 1
0, 0
0, 0
0, 1
0, 0
1, 0
0, 0
0, 0
0, 0
0, 0
0, 0
0, 0
0, 0
0, 0
0, 1
0, 0
0, 0
1, 0
0, 0
0, 1
0, 0
0, 0
0, 1
0, 0
0, 0
0, 0
0, 0
0, 0
0, 1
0, 0
0, 0
0, 1
0, 0
1, 0
0, 1
0, 1
0, 0
0, 0
0, 0
0, 0
0, 1
0, 0
0, 0
0, 0
0, 0
0, 0
0, 1
0, 1
0, 0
0, 0
0, 1
0, 0
0, 0
0, 1
0, 1
0, 0
0, 0
0, 0
1, 0
0, 0
0, 0
0, 0
0, 0
0, 0
0, 1
0, 0
0, 0
0, 0
0, 0
0, 0
0, 0
0, 0
0, 0
1, 0
0, 0
0, 0
0, 0
0, 0
0, 0
0, 0
0, 0
0, 0
0, 0
0, 0
0, 0
0, 0
0, 0
0, 1
0, 0
0, 0
0, 0
0, 1
0, 0
0, 0
0, 0
0, 0
0, 0
0, 0
0, 0
0, 0
0, 0
0, 0
0, 0
0, 0
0, 0
0, 0
0, 0
0, 0
0, 0
0, 0
0, 0
0, 0
1, 0
0, 0
0, 0
0, 0
0, 0
1, 0
0, 0
0, 0
0, 0
0, 0
0, 0
0, 0
0, 0
0, 0
0, 0
0, 0
0, 0
0, 0
0, 0
0, 0
0, 0
0, 0
0, 0
0, 0
0, 0
0, 0
0, 0
0, 0
0, 0
0, 0
0, 0
1, 0
0, 0
0, 0
0, 0
0, 0
0, 0
0, 0
0, 0
0, 0
0, 0
0, 0
0, 0
0, 0
0, 0
0, 0
0, 0
0, 0
0, 0
0, 0
1, 0
0, 0
0, 0
0, 0
0, 0
0, 0
0, 0
0, 0
0, 0
0, 0
0, 0
0, 0
0, 0
0, 0
0, 0
0, 0
0, 0
0, 0
0, 0
0, 0
0, 0
0, 0
0, 0
0, 0
0, 0
0, 0
0, 0
0, 0
0, 0
0, 0
0, 0
0, 0
0, 0
0, 0
0, 0
0, 0
0, 0
0, 0
0, 0
0, 0
0, 0
0, 0
0, 0
0, 0
0, 0
0, 0
0, 0
1, 0
0, 0
0, 0
0, 0
0, 0
0, 0
0, 0
0, 0
0, 0
0, 0
0, 0
0, 0
0, 0
0, 0
0, 0
0, 0
0, 0
0, 0
0, 0
0, 0
0, 0
0, 0
0, 0
0, 0
0, 0
0, 0
0, 0
0, 0
0, 0
0, 0
0, 0
0, 0
0, 0
0, 0
0, 0
1, 0
0, 0
0, 0
0, 0
0, 0
0, 0
0, 0
0, 0
0, 0
0, 0
1, 0
0, 0
0, 0
0, 0
0, 0
0, 0
0, 0
0, 0
0, 0
0, 0
0, 0
0, 0
0, 0
0, 0
0, 0
0, 0
0, 0
0, 0
0, 0
0, 0
0, 0
0, 0
0, 0
0, 0
0, 0
0, 0
0, 0
0, 0
0, 0
0, 0
0, 0
0, 0
0, 0
0, 0
0, 0
0, 0
0, 0
0, 0
0, 0
0, 0
0, 0
0, 0
0, 0
0, 0
0, 0
0, 0
0, 0
0, 0
0, 0
0, 0
0, 0
0, 0
0, 0
0, 0
0, 0
0, 0
0, 0
0, 0
0, 0
0, 0
0, 0
0, 0
0, 0
0, 0
0, 0
0, 0
0, 0
0, 0
0, 0
0, 0
0, 0
0, 0
0, 0
0, 0
0, 0
0, 0
0, 0
0, 0
0, 0
0, 0
0, 0
0, 0
0, 0
0, 0
0, 0
0, 0
0, 0
0, 0
0, 0
0, 0
0, 0
0, 0
0, 0
0, 0
0, 0
0, 0
0, 0
0, 0
0, 0
0, 0
0, 0
0, 0
0, 0
0, 0
0, 0
0, 0
0, 0
0, 0
0, 0
0, 0
0, 0
0, 0
0, 0
0, 0
0, 0
0, 0
0, 0
0, 0
0, 0
0, 0
0, 0
0, 0
0, 0
0, 0
0, 0
0, 0
0, 0
0, 0
0, 0
0, 0
0, 0
0, 0
0, 0
0, 0
0, 0
0, 0
0, 0
0, 0
0, 0
0, 0
0, 0
0, 0
0, 0
0, 0
0, 0
0, 0
0, 0
0, 0
0, 0
0, 0
0, 0
0, 0
0, 0
0, 0
0, 0
0, 0
0, 0
0, 0
0, 0
0, 0
0, 0
0, 0
0, 0
0, 0
0, 0
0, 0
0, 0
0, 0
0, 0
0, 0
0, 0
0, 0
0, 0
0, 0
0, 0
0, 0
0, 0
0, 0
0, 0
0, 0
0, 0
0, 0
0, 0
0, 0
0, 0
0, 0
0, 0
0, 0
0, 0
0, 0
0, 0
0, 0
0, 0
0, 0
0, 0
0, 0
0, 0
0, 0
0, 0
0, 0
0, 0
0, 0
0, 0
0, 0
0, 0
0, 0
0, 0
0, 0
0, 0
0, 0
0, 0
0, 0
0, 0
0, 0
0, 0
0, 0
0, 0
0, 0
0, 0
0, 0
0, 0
0, 0
0, 0
0, 0
0, 0
0, 0
0, 0
0, 0
0, 0
0, 0
0, 0
0, 0
0, 0
0, 0
0, 0
0, 0
0, 0
0, 0
0, 0
0, 0
0, 0
0, 0
0, 0
0, 0
0, 0
0, 0
0, 0
0, 0
0, 0
0, 0
0, 0
0, 0
0, 0
0, 0
0, 0
0, 0
0, 0
0, 0
0, 0
0, 0
0, 0
0, 0
0, 0
0, 0
0, 0
0, 0
0, 0
0, 0
0, 0
0, 0
0, 0
0, 0
0, 0
0, 0
0, 0
0, 0
0, 0
0, 0
0, 0
0, 0
0, 0
0, 0
0, 0
0, 0
0, 0
0, 0
0, 0
0, 0
0, 0
0, 0
0, 0
0, 0
0, 0
0, 0
0, 0
0, 0
0, 0
0, 0
0, 0
0, 0
0, 0
0, 0
0, 0
0, 0
0, 0
0, 0
#ENDOFDATA     end of spectrum data