File: host_upload/02-11-2024/rqc/uplink1/ps__0567_0717304816_000rfs_shot_21.msa
#FORMAT      : EMSA/MAS spectral data file
#VERSION     : TC202v2.0 PIXL
#TITLE       : Novarupta (sol567) subset1
#DATE        : 02-11-2024      Date in the format DD-MMM-YYYY, for example 07-JUL-2010
#TIME        :             The time of day at which the spectrum was recorded, in 24-hour format
#OWNER       : PIXL Flight Model       (PIXL will use this to indicate which instrument took the data.)
#NPOINTS     : 4096     Number of data points in the spectrum (This can be zero for configuration only files)
#NCOLUMNS    : 2     Number of data columns in the spectrum (This can be zero for configuration only files)
#XUNITS      : eV
#YUNITS      : COUNTS
#DATATYPE    : YY
#XPERCHAN    : 7.862, 7.881   eV per channel (separate by commas if more than one detector)
#OFFSET      : 18.5, -22.4         eV of first channel  (separate by commas if more than one detector
#SIGNALTYPE  : XRF
#YP_TEMP     : -4.115
#LIVETIME    : 8.83979, 8.64063   seconds (separate by commas if more than one detector)
#REALTIME    : 10, 10.0   seconds (separate by commas if more than one detector)
#SPECTRUM    : start of spectrum data
0, 0
0, 0
0, 0
0, 0
0, 0
0, 0
0, 0
0, 0
0, 0
0, 0
0, 0
0, 0
0, 0
0, 0
0, 0
0, 0
0, 0
0, 0
0, 0
0, 0
0, 0
0, 0
0, 0
0, 0
0, 0
0, 0
0, 0
0, 0
0, 0
0, 0
2, 0
0, 0
0, 0
3, 1
0, 1
2, 0
3, 3
4, 4
4, 7
3, 4
3, 4
3, 4
2, 3
5, 6
6, 5
1, 3
5, 4
1, 6
6, 4
7, 6
9, 7
11, 13
15, 14
20, 10
21, 22
20, 16
14, 11
11, 9
12, 19
20, 15
20, 20
28, 34
38, 26
49, 60
34, 57
44, 38
42, 34
36, 37
39, 56
70, 89
133, 132
257, 234
329, 337
415, 446
458, 486
462, 468
415, 424
286, 264
203, 216
148, 133
78, 78
54, 45
43, 21
35, 31
31, 41
35, 38
29, 28
24, 27
15, 23
21, 22
20, 22
25, 22
42, 34
67, 72
105, 122
167, 169
220, 241
257, 266
320, 296
288, 298
218, 230
189, 196
149, 151
95, 112
55, 66
66, 55
61, 61
93, 86
93, 140
186, 186
211, 221
240, 264
232, 292
223, 246
208, 208
161, 192
134, 157
135, 120
98, 102
93, 87
83, 78
74, 74
50, 65
53, 52
47, 37
27, 34
23, 26
27, 25
31, 9
10, 10
10, 8
16, 16
5, 7
8, 3
10, 7
8, 7
11, 10
19, 15
15, 17
26, 33
35, 24
29, 27
28, 24
22, 14
23, 15
19, 15
20, 11
14, 18
15, 18
31, 31
49, 46
66, 87
108, 134
170, 206
246, 317
327, 333
369, 397
377, 355
298, 356
264, 255
201, 170
126, 107
77, 73
49, 58
37, 32
35, 37
39, 38
40, 40
47, 52
50, 48
55, 61
41, 47
46, 38
46, 34
35, 28
19, 25
17, 16
13, 14
15, 5
11, 7
15, 5
7, 8
9, 20
6, 13
7, 13
12, 18
17, 26
25, 25
45, 41
53, 53
56, 64
61, 54
51, 66
61, 60
46, 45
33, 31
28, 21
27, 28
17, 22
11, 23
8, 13
19, 16
12, 12
12, 12
11, 17
15, 18
14, 17
22, 24
19, 17
19, 19
17, 29
21, 17
17, 22
14, 15
9, 13
12, 15
12, 12
17, 11
16, 13
13, 11
12, 9
15, 16
13, 14
16, 14
22, 21
16, 18
25, 20
20, 30
24, 27
36, 22
34, 26
28, 38
33, 16
22, 17
14, 15
15, 14
24, 14
12, 14
11, 6
16, 12
8, 10
16, 12
11, 18
21, 24
12, 13
16, 31
27, 40
28, 44
32, 40
43, 37
50, 40
32, 52
39, 40
33, 32
33, 29
20, 28
19, 23
29, 16
16, 12
17, 25
34, 33
61, 41
90, 73
138, 167
270, 300
398, 489
626, 714
924, 1014
1177, 1363
1358, 1611
1566, 1741
1653, 1779
1615, 1620
1381, 1384
1126, 1120
841, 770
610, 543
369, 321
224, 201
134, 110
90, 72
55, 32
33, 28
25, 17
21, 15
25, 13
17, 16
18, 11
28, 18
29, 37
45, 41
50, 49
50, 67
104, 109
147, 144
167, 179
212, 210
233, 230
236, 272
229, 270
200, 233
190, 201
187, 158
128, 121
100, 75
46, 46
44, 31
26, 25
12, 21
17, 16
7, 15
12, 11
7, 17
4, 13
13, 13
12, 14
9, 6
8, 16
9, 19
12, 11
6, 12
8, 2
10, 9
7, 6
6, 8
4, 8
9, 7
6, 7
2, 6
5, 3
6, 7
7, 7
2, 8
5, 7
10, 5
4, 3
8, 4
9, 6
7, 6
7, 5
6, 7
10, 8
4, 11
5, 11
4, 7
8, 9
6, 9
4, 8
8, 7
14, 6
8, 11
9, 5
5, 2
6, 5
5, 5
7, 3
3, 8
6, 4
5, 3
6, 12
10, 11
12, 12
7, 6
13, 11
12, 8
13, 11
13, 9
12, 7
8, 6
6, 12
8, 7
9, 4
10, 8
1, 7
4, 6
7, 6
10, 10
6, 7
6, 6
5, 5
6, 8
6, 6
3, 6
5, 2
1, 10
9, 5
5, 7
2, 3
4, 6
2, 4
6, 10
10, 3
3, 7
3, 3
5, 5
4, 6
6, 5
2, 8
4, 5
8, 5
5, 4
2, 4
2, 4
8, 6
4, 5
4, 5
4, 8
6, 2
6, 1
3, 5
4, 5
3, 2
5, 6
2, 3
4, 4
5, 2
4, 5
5, 4
6, 2
2, 5
4, 4
2, 8
4, 3
10, 5
10, 4
3, 5
3, 4
6, 6
3, 2
6, 6
7, 6
3, 6
4, 4
4, 8
5, 4
6, 3
4, 3
6, 7
5, 6
2, 11
3, 3
4, 4
3, 4
4, 0
2, 2
2, 2
6, 5
3, 3
2, 5
6, 2
2, 3
3, 7
1, 1
3, 6
3, 3
2, 3
4, 1
4, 4
1, 4
1, 1
7, 5
4, 5
3, 1
5, 3
2, 6
3, 6
3, 3
4, 0
2, 5
7, 3
5, 1
4, 7
4, 4
1, 4
4, 3
3, 2
1, 4
4, 5
3, 2
2, 4
6, 3
0, 6
4, 6
1, 1
1, 3
4, 3
0, 4
4, 2
4, 2
2, 4
3, 0
2, 3
6, 5
3, 2
4, 2
2, 2
4, 1
5, 2
1, 3
4, 2
1, 4
1, 2
3, 3
1, 6
6, 2
3, 0
1, 1
2, 1
2, 2
1, 2
1, 2
1, 3
3, 0
2, 6
2, 2
1, 2
2, 0
3, 1
3, 1
2, 0
0, 2
4, 2
1, 4
3, 4
1, 2
1, 2
1, 2
1, 1
2, 0
0, 3
2, 4
1, 2
3, 4
2, 1
0, 2
2, 5
6, 2
1, 3
1, 3
6, 2
1, 2
3, 4
1, 2
3, 2
2, 0
2, 1
1, 2
1, 2
2, 0
5, 3
2, 2
2, 3
3, 2
3, 1
2, 0
3, 1
2, 2
2, 0
3, 2
1, 1
1, 3
0, 2
1, 1
1, 2
0, 1
1, 3
3, 0
3, 3
2, 0
1, 2
2, 1
1, 3
2, 2
4, 5
2, 3
0, 3
1, 1
3, 2
0, 0
5, 0
0, 0
0, 1
1, 2
2, 1
3, 1
0, 1
2, 0
1, 1
0, 2
0, 3
0, 1
1, 2
1, 1
2, 1
0, 2
1, 1
2, 4
2, 2
3, 2
2, 1
1, 0
0, 1
0, 3
0, 0
1, 0
0, 0
1, 0
2, 1
1, 2
0, 0
0, 0
1, 0
1, 2
0, 1
3, 0
0, 3
0, 1
1, 1
1, 4
0, 0
1, 1
0, 0
1, 1
1, 0
1, 2
1, 2
3, 0
0, 0
2, 1
0, 1
0, 0
2, 1
0, 0
0, 0
1, 0
0, 0
0, 2
1, 0
0, 0
1, 3
1, 0
0, 1
2, 2
1, 0
0, 1
0, 1
0, 1
0, 1
0, 0
1, 1
2, 1
1, 0
1, 0
0, 1
0, 1
1, 0
1, 2
1, 1
1, 2
1, 0
1, 0
1, 0
0, 0
2, 1
1, 0
0, 0
0, 0
0, 2
0, 0
0, 0
0, 2
1, 1
0, 0
1, 1
0, 2
0, 1
0, 1
1, 1
0, 0
1, 1
0, 0
0, 0
0, 1
1, 0
0, 1
0, 1
0, 2
0, 0
0, 1
1, 0
0, 1
0, 1
0, 0
0, 0
0, 1
0, 0
1, 1
0, 0
0, 0
0, 0
1, 1
0, 0
0, 0
0, 0
0, 0
1, 0
1, 0
0, 0
0, 2
0, 0
0, 0
0, 1
0, 0
0, 1
0, 0
1, 0
0, 0
1, 0
0, 0
1, 0
0, 0
1, 0
0, 0
0, 0
0, 2
0, 0
0, 0
0, 2
1, 0
0, 0
0, 1
0, 0
0, 0
1, 0
0, 1
0, 0
1, 0
1, 0
1, 0
1, 0
1, 0
0, 1
0, 0
1, 0
0, 0
0, 0
1, 0
0, 0
1, 0
0, 0
0, 0
1, 0
0, 1
0, 0
1, 0
0, 0
0, 0
0, 0
0, 0
0, 1
0, 0
1, 1
0, 0
0, 0
0, 0
0, 0
0, 1
0, 0
0, 0
1, 0
0, 0
1, 0
0, 0
0, 0
1, 0
0, 0
0, 0
0, 0
0, 1
0, 0
1, 0
0, 0
0, 1
1, 0
1, 1
0, 0
0, 0
0, 0
0, 1
0, 1
3, 0
0, 0
0, 0
1, 1
0, 1
0, 1
0, 0
0, 0
0, 0
0, 1
0, 0
0, 0
0, 0
0, 0
0, 0
0, 0
1, 0
2, 0
0, 0
0, 0
0, 0
0, 0
0, 0
1, 0
0, 0
0, 0
0, 0
0, 1
1, 0
0, 0
0, 1
0, 0
0, 0
0, 0
0, 1
0, 0
0, 0
1, 2
0, 0
0, 0
0, 0
0, 0
0, 0
0, 0
0, 0
0, 0
0, 0
0, 1
0, 0
0, 0
0, 0
0, 0
0, 0
0, 0
1, 1
0, 0
0, 0
0, 0
0, 1
0, 0
0, 0
0, 2
0, 0
1, 0
0, 0
0, 0
1, 0
0, 0
0, 0
0, 0
0, 0
0, 0
0, 0
1, 0
0, 0
0, 0
0, 0
0, 0
0, 0
0, 0
0, 0
0, 0
0, 0
0, 0
0, 0
0, 0
0, 0
0, 0
0, 0
0, 0
0, 0
0, 0
0, 0
0, 0
0, 0
0, 0
0, 0
0, 0
0, 0
0, 0
0, 0
0, 0
0, 0
0, 0
0, 0
0, 0
0, 0
0, 0
0, 0
0, 1
0, 0
0, 0
0, 1
0, 0
0, 0
0, 0
0, 0
0, 0
0, 0
0, 0
0, 0
0, 0
0, 0
0, 0
0, 0
0, 0
0, 0
0, 0
0, 0
1, 0
0, 0
0, 0
0, 0
0, 0
1, 0
0, 0
0, 0
0, 0
0, 0
0, 0
0, 0
0, 0
0, 0
0, 0
0, 0
0, 0
0, 0
0, 0
0, 0
1, 0
0, 0
0, 0
0, 0
0, 0
0, 0
0, 0
0, 0
0, 0
0, 0
0, 0
0, 0
0, 0
0, 0
0, 0
0, 0
0, 0
0, 0
0, 0
1, 0
0, 0
0, 0
0, 0
0, 0
0, 0
0, 0
0, 0
0, 0
0, 0
0, 0
0, 0
0, 0
0, 0
0, 0
0, 0
0, 0
1, 0
0, 0
0, 0
0, 0
0, 0
0, 0
0, 0
0, 0
0, 0
0, 0
0, 1
0, 0
0, 0
0, 0
0, 0
0, 0
0, 0
0, 0
0, 0
0, 0
0, 0
0, 0
0, 0
0, 0
0, 0
0, 0
0, 0
0, 0
0, 0
0, 0
0, 0
0, 0
0, 0
0, 0
0, 0
0, 0
0, 0
0, 0
0, 0
0, 1
0, 0
0, 0
0, 0
0, 0
0, 0
0, 0
0, 0
0, 0
0, 0
0, 0
0, 0
0, 0
0, 0
0, 0
0, 0
0, 0
0, 0
0, 0
0, 0
0, 0
0, 0
0, 0
0, 0
0, 0
0, 0
0, 0
0, 0
0, 0
0, 0
0, 0
0, 0
0, 0
0, 0
0, 0
0, 0
0, 0
0, 0
0, 0
0, 0
0, 0
0, 0
0, 0
0, 0
0, 0
0, 0
0, 0
0, 0
0, 0
0, 0
0, 0
0, 0
0, 0
0, 0
0, 0
0, 0
0, 0
0, 0
0, 0
0, 0
0, 0
0, 0
0, 0
0, 0
0, 0
0, 0
0, 0
0, 0
0, 0
0, 0
0, 0
0, 0
0, 0
0, 0
0, 0
0, 0
0, 0
0, 0
0, 0
0, 0
0, 0
0, 0
0, 0
0, 0
0, 0
0, 0
0, 0
0, 0
0, 0
0, 0
0, 0
0, 0
0, 0
0, 0
0, 0
0, 0
0, 0
0, 0
0, 0
0, 0
0, 0
0, 0
0, 0
0, 0
0, 0
0, 0
0, 0
0, 0
0, 0
0, 0
0, 0
0, 0
0, 0
0, 0
0, 0
0, 0
0, 0
0, 0
0, 0
0, 0
0, 0
0, 0
0, 0
0, 0
0, 0
0, 0
0, 0
0, 0
0, 0
0, 0
0, 0
0, 0
0, 0
0, 0
0, 0
0, 0
0, 0
0, 0
0, 0
0, 0
0, 0
0, 0
0, 0
0, 0
0, 0
0, 0
0, 0
0, 0
0, 0
0, 0
0, 0
0, 0
0, 0
0, 0
0, 0
0, 0
0, 0
0, 0
0, 0
0, 0
0, 0
0, 0
0, 0
0, 0
0, 0
0, 0
0, 0
0, 0
0, 0
0, 0
0, 0
0, 0
0, 0
0, 0
0, 0
0, 0
0, 0
0, 0
0, 0
0, 0
0, 0
0, 0
0, 0
0, 0
0, 0
0, 0
0, 0
0, 0
0, 0
0, 0
0, 0
0, 0
0, 0
0, 0
0, 0
0, 0
0, 0
0, 0
0, 0
0, 0
0, 0
0, 0
0, 0
0, 0
0, 0
0, 0
0, 0
0, 0
0, 0
0, 0
0, 0
0, 0
0, 0
0, 0
0, 0
0, 0
0, 0
0, 0
0, 0
0, 0
0, 0
0, 0
0, 0
0, 0
0, 0
0, 0
0, 0
0, 0
0, 0
0, 0
0, 0
0, 0
0, 0
0, 0
0, 0
0, 0
0, 0
0, 0
0, 0
0, 0
0, 0
0, 0
0, 0
0, 0
0, 0
0, 0
0, 0
0, 0
0, 0
0, 0
0, 0
0, 0
0, 0
0, 0
0, 0
0, 0
0, 0
0, 0
0, 0
0, 0
0, 0
0, 0
0, 0
0, 0
0, 0
0, 0
0, 0
0, 0
0, 0
0, 0
0, 0
0, 0
0, 0
0, 0
0, 0
0, 0
0, 0
0, 0
0, 0
0, 0
0, 0
0, 0
0, 0
0, 0
0, 0
0, 0
0, 0
0, 0
0, 0
0, 0
0, 0
0, 0
0, 0
0, 0
0, 0
0, 0
0, 0
0, 0
0, 0
0, 0
0, 0
0, 0
0, 0
0, 0
0, 0
0, 0
0, 0
0, 0
0, 0
0, 0
0, 0
0, 0
0, 0
0, 0
0, 0
0, 0
0, 0
0, 0
0, 0
0, 0
0, 0
0, 0
0, 0
0, 0
0, 0
0, 0
0, 0
0, 0
0, 0
0, 0
0, 0
0, 0
0, 0
0, 0
0, 0
0, 0
0, 0
0, 0
0, 0
0, 0
0, 0
0, 0
0, 0
0, 0
0, 0
0, 0
0, 0
0, 0
0, 0
0, 0
0, 0
0, 0
#ENDOFDATA     end of spectrum data