File: host_upload/02-11-2024/rqc/uplink1/ps__0567_0717304816_000rfs_shot_187.msa
#FORMAT      : EMSA/MAS spectral data file
#VERSION     : TC202v2.0 PIXL
#TITLE       : Novarupta (sol567) subset1
#DATE        : 02-11-2024      Date in the format DD-MMM-YYYY, for example 07-JUL-2010
#TIME        :             The time of day at which the spectrum was recorded, in 24-hour format
#OWNER       : PIXL Flight Model       (PIXL will use this to indicate which instrument took the data.)
#NPOINTS     : 4096     Number of data points in the spectrum (This can be zero for configuration only files)
#NCOLUMNS    : 2     Number of data columns in the spectrum (This can be zero for configuration only files)
#XUNITS      : eV
#YUNITS      : COUNTS
#DATATYPE    : YY
#XPERCHAN    : 7.862, 7.881   eV per channel (separate by commas if more than one detector)
#OFFSET      : 18.5, -22.4         eV of first channel  (separate by commas if more than one detector
#SIGNALTYPE  : XRF
#YP_TEMP     : 0.632
#LIVETIME    : 8.84246, 8.82508   seconds (separate by commas if more than one detector)
#REALTIME    : 10, 10.0   seconds (separate by commas if more than one detector)
#SPECTRUM    : start of spectrum data
0, 0
0, 0
0, 0
0, 0
0, 0
0, 0
0, 0
0, 0
0, 0
0, 0
0, 0
0, 0
0, 0
0, 0
0, 0
0, 0
0, 0
0, 0
0, 0
0, 0
0, 0
0, 0
0, 0
0, 0
0, 0
0, 0
0, 0
0, 0
0, 0
0, 0
0, 0
0, 0
0, 0
0, 0
2, 0
2, 2
1, 3
1, 2
3, 6
2, 4
2, 3
1, 2
1, 3
2, 2
3, 2
3, 4
1, 2
4, 4
5, 2
3, 2
2, 5
8, 10
15, 12
10, 10
19, 15
12, 12
9, 19
19, 12
10, 20
13, 15
25, 23
22, 27
39, 47
47, 50
49, 59
50, 52
35, 39
32, 39
38, 42
73, 75
85, 122
190, 244
291, 375
378, 481
498, 564
476, 546
412, 448
295, 334
220, 232
139, 143
80, 77
38, 48
42, 27
31, 28
34, 28
30, 28
23, 36
36, 34
25, 38
21, 24
16, 9
16, 18
29, 20
50, 45
72, 105
132, 150
205, 252
271, 309
328, 325
289, 368
288, 289
212, 206
152, 151
92, 95
68, 82
52, 65
45, 52
60, 71
105, 94
120, 137
174, 172
201, 216
183, 228
207, 230
195, 204
160, 182
121, 138
85, 113
80, 88
78, 86
63, 76
70, 70
45, 57
57, 63
50, 44
43, 36
35, 33
21, 21
26, 24
9, 16
14, 7
11, 2
8, 3
7, 12
10, 7
10, 13
6, 15
14, 14
16, 20
25, 23
39, 32
32, 41
27, 38
15, 32
21, 28
7, 19
7, 11
12, 10
21, 14
12, 25
35, 32
45, 59
83, 97
143, 170
200, 236
275, 348
343, 388
342, 405
352, 406
282, 332
216, 230
146, 169
86, 107
59, 54
45, 29
26, 31
21, 31
37, 30
35, 52
46, 41
54, 69
72, 66
59, 62
49, 53
30, 26
19, 27
18, 15
7, 14
10, 14
9, 8
9, 11
5, 7
10, 9
8, 9
10, 12
7, 16
15, 13
23, 23
31, 40
44, 60
49, 59
45, 62
55, 64
71, 65
47, 70
38, 52
29, 35
23, 28
16, 28
22, 15
12, 10
13, 13
14, 13
14, 11
11, 14
12, 15
15, 18
15, 22
14, 21
17, 16
22, 23
16, 15
16, 16
18, 14
9, 9
9, 12
16, 13
3, 13
13, 16
10, 8
10, 12
4, 10
7, 10
15, 17
16, 20
11, 14
22, 23
19, 33
20, 30
25, 28
30, 42
23, 26
29, 25
29, 30
18, 23
17, 27
12, 21
20, 13
9, 13
14, 8
11, 13
8, 7
17, 24
8, 14
21, 21
20, 23
22, 35
36, 43
31, 50
38, 59
47, 44
48, 59
40, 34
37, 38
25, 32
30, 24
24, 26
25, 19
16, 26
18, 28
21, 22
17, 32
32, 62
60, 97
117, 143
217, 243
382, 467
548, 732
821, 1083
1074, 1369
1314, 1685
1528, 1812
1597, 1737
1583, 1650
1354, 1413
1133, 1055
812, 769
505, 513
306, 298
202, 172
114, 96
50, 56
32, 33
31, 18
11, 21
14, 20
14, 11
15, 12
14, 22
24, 28
21, 25
27, 34
44, 36
52, 64
72, 95
99, 121
137, 186
191, 252
212, 245
230, 261
217, 289
217, 236
214, 205
147, 169
121, 130
91, 71
57, 57
33, 36
17, 23
13, 10
7, 8
11, 8
4, 8
9, 22
12, 16
13, 11
10, 8
11, 16
9, 19
12, 12
6, 16
8, 13
3, 6
10, 12
6, 11
8, 5
7, 5
9, 7
5, 5
7, 4
10, 8
10, 6
4, 10
5, 7
8, 5
5, 12
5, 4
7, 8
6, 5
11, 9
8, 9
7, 8
7, 4
2, 7
5, 9
10, 5
10, 9
5, 7
15, 6
6, 8
8, 11
5, 11
2, 8
3, 8
6, 12
3, 8
7, 6
7, 9
9, 10
6, 9
6, 9
5, 9
6, 13
10, 13
4, 15
7, 4
15, 10
8, 11
14, 10
11, 14
10, 7
4, 6
6, 8
5, 7
7, 3
9, 6
8, 6
7, 7
1, 6
8, 7
4, 8
4, 14
0, 8
4, 7
2, 6
4, 6
3, 3
5, 12
8, 3
4, 8
7, 12
7, 5
6, 8
8, 3
4, 7
6, 5
4, 12
7, 4
9, 7
9, 6
2, 5
4, 5
3, 6
8, 4
9, 7
7, 5
7, 3
8, 6
5, 2
2, 5
11, 6
6, 5
5, 4
6, 7
1, 9
8, 5
6, 3
3, 2
5, 6
4, 4
7, 4
3, 7
4, 6
4, 3
6, 11
2, 4
5, 12
2, 1
7, 7
4, 2
6, 5
1, 5
1, 1
3, 7
8, 4
3, 2
3, 0
4, 4
4, 2
4, 0
4, 3
1, 4
3, 4
1, 4
1, 4
5, 3
3, 4
1, 2
3, 5
0, 7
5, 4
7, 5
1, 8
4, 2
2, 2
5, 6
1, 4
5, 2
3, 3
4, 3
5, 4
3, 1
5, 5
1, 3
2, 2
2, 3
0, 3
1, 2
0, 2
4, 3
3, 7
3, 3
3, 2
3, 3
1, 2
3, 0
3, 3
3, 3
5, 4
1, 3
2, 2
3, 5
4, 2
3, 5
5, 0
1, 1
3, 2
7, 2
0, 2
1, 2
3, 1
2, 4
3, 3
2, 2
5, 5
0, 2
0, 2
3, 4
0, 1
3, 1
2, 2
2, 2
2, 2
3, 1
2, 1
3, 4
0, 3
2, 1
2, 3
3, 5
0, 0
5, 6
4, 6
2, 4
3, 3
1, 3
3, 3
5, 2
4, 2
1, 2
3, 1
1, 0
0, 0
3, 3
1, 7
0, 2
0, 2
2, 1
3, 2
3, 1
5, 1
4, 3
1, 3
1, 2
2, 3
4, 3
1, 2
1, 3
4, 0
1, 2
4, 4
2, 5
2, 3
4, 3
3, 3
3, 2
4, 4
4, 1
2, 1
1, 1
2, 3
1, 1
1, 1
3, 1
4, 2
1, 0
1, 3
3, 2
1, 2
1, 3
1, 3
3, 4
0, 2
3, 1
1, 1
4, 4
2, 3
4, 6
5, 1
0, 3
2, 1
1, 0
0, 2
1, 4
3, 4
1, 2
1, 0
0, 3
2, 1
1, 0
3, 0
1, 2
1, 1
2, 0
1, 2
0, 4
3, 0
1, 2
1, 1
1, 0
0, 1
1, 0
3, 0
0, 2
2, 2
0, 1
0, 0
0, 2
1, 0
1, 0
0, 1
0, 0
2, 0
1, 2
0, 1
0, 2
1, 1
0, 0
3, 1
1, 1
1, 0
3, 0
0, 0
0, 1
0, 2
1, 2
0, 2
0, 2
1, 0
0, 0
0, 1
0, 1
0, 1
1, 0
0, 0
0, 0
2, 0
0, 2
1, 0
0, 1
0, 1
0, 1
1, 2
0, 0
2, 0
3, 1
0, 0
0, 2
1, 0
3, 2
3, 1
0, 0
0, 1
0, 3
0, 1
0, 1
2, 1
0, 0
0, 1
0, 0
2, 2
0, 0
0, 0
0, 0
0, 0
2, 0
0, 0
0, 1
0, 0
0, 0
0, 1
1, 0
0, 1
0, 1
0, 1
0, 0
0, 0
1, 1
0, 0
0, 1
0, 0
0, 1
0, 0
0, 1
0, 1
0, 0
0, 1
0, 1
0, 0
1, 0
1, 0
1, 1
0, 0
0, 0
0, 0
1, 0
0, 1
0, 0
0, 0
0, 1
1, 0
1, 0
0, 2
1, 1
1, 1
0, 0
0, 1
2, 2
0, 0
0, 1
0, 0
1, 0
1, 0
0, 0
0, 0
0, 1
0, 0
0, 1
0, 0
0, 0
0, 0
1, 0
2, 1
0, 0
0, 0
1, 1
0, 0
0, 1
0, 1
0, 0
0, 0
0, 0
0, 0
0, 0
0, 0
0, 0
0, 0
1, 0
1, 0
0, 0
0, 2
0, 0
0, 0
0, 0
0, 0
0, 0
0, 0
0, 0
0, 0
0, 0
0, 0
0, 0
0, 1
0, 0
0, 0
0, 0
0, 0
0, 0
0, 1
0, 0
0, 0
0, 0
0, 0
0, 1
0, 0
0, 1
0, 0
0, 0
1, 0
0, 0
0, 0
0, 0
0, 0
0, 0
0, 0
0, 0
0, 1
1, 0
1, 0
0, 1
2, 0
0, 0
0, 0
0, 0
0, 0
1, 0
0, 0
0, 0
0, 0
0, 0
0, 0
1, 0
0, 0
0, 1
0, 0
0, 0
0, 2
4, 0
0, 0
1, 1
0, 0
0, 1
0, 0
0, 1
0, 1
0, 0
0, 0
0, 0
1, 2
1, 0
0, 1
1, 0
0, 1
0, 0
0, 0
1, 0
0, 0
0, 0
0, 0
0, 0
0, 0
0, 0
1, 1
0, 1
0, 0
0, 0
0, 0
0, 0
0, 0
0, 0
0, 0
0, 0
0, 0
0, 0
0, 0
0, 0
2, 0
0, 0
0, 0
0, 0
0, 1
1, 0
0, 0
0, 1
0, 0
0, 0
1, 0
0, 1
0, 0
0, 0
0, 0
0, 0
0, 0
0, 0
0, 0
0, 1
0, 0
0, 1
1, 0
0, 0
0, 0
0, 0
1, 0
0, 0
0, 0
0, 0
0, 0
1, 0
0, 0
0, 0
0, 0
0, 0
0, 1
0, 0
0, 0
0, 0
0, 0
0, 0
0, 0
0, 0
0, 0
0, 0
0, 0
0, 0
0, 1
0, 0
0, 0
0, 0
0, 0
0, 0
1, 0
0, 0
0, 0
0, 1
0, 0
0, 0
0, 1
0, 0
0, 0
0, 0
0, 0
0, 1
0, 0
0, 1
1, 0
0, 0
0, 0
0, 0
0, 0
0, 1
1, 0
0, 0
0, 0
0, 0
0, 0
0, 0
0, 0
0, 0
0, 0
0, 0
0, 0
0, 0
0, 0
0, 0
0, 0
0, 0
0, 0
0, 0
0, 0
0, 0
0, 0
0, 0
0, 0
0, 0
0, 0
0, 0
0, 0
0, 0
0, 0
0, 0
0, 0
0, 0
0, 0
0, 0
0, 0
0, 1
0, 0
0, 0
0, 0
1, 0
0, 0
0, 0
0, 0
0, 0
0, 0
0, 0
0, 0
0, 0
0, 0
0, 0
0, 1
0, 0
0, 0
0, 0
0, 0
0, 0
0, 0
0, 0
0, 0
0, 0
0, 0
0, 0
0, 0
0, 0
0, 0
0, 0
0, 0
0, 0
0, 0
0, 0
0, 0
0, 0
0, 0
0, 0
1, 0
0, 0
0, 0
0, 0
0, 0
0, 0
0, 0
0, 0
0, 0
0, 0
0, 0
0, 0
0, 0
0, 0
0, 0
0, 0
0, 0
0, 0
0, 0
0, 0
0, 0
0, 0
0, 0
0, 0
0, 0
0, 0
0, 0
0, 0
0, 0
0, 0
0, 0
0, 0
0, 0
0, 0
0, 0
0, 0
0, 0
0, 0
0, 0
0, 0
0, 0
0, 0
0, 0
0, 0
0, 0
0, 0
0, 1
0, 0
0, 0
0, 0
0, 0
0, 0
0, 0
0, 0
0, 0
0, 0
0, 0
0, 0
0, 0
0, 0
0, 0
0, 0
0, 0
0, 0
0, 0
0, 0
0, 0
0, 0
0, 0
0, 0
0, 0
0, 0
0, 0
0, 0
0, 0
0, 0
0, 0
0, 0
0, 0
0, 0
0, 0
0, 0
0, 0
0, 0
0, 0
0, 0
0, 0
0, 0
0, 0
0, 0
0, 0
0, 0
0, 0
0, 0
0, 0
0, 0
0, 0
0, 0
0, 1
0, 0
0, 0
0, 0
0, 0
0, 0
0, 0
0, 0
0, 0
0, 0
0, 0
0, 0
0, 0
0, 0
0, 0
0, 0
0, 0
0, 0
0, 0
0, 0
0, 0
0, 0
0, 0
0, 0
0, 0
0, 0
0, 0
0, 0
0, 0
0, 0
0, 0
0, 0
0, 0
0, 0
0, 0
0, 0
0, 0
0, 0
0, 0
0, 0
0, 0
0, 0
0, 0
0, 0
0, 0
0, 0
0, 0
0, 0
0, 0
0, 0
0, 0
0, 0
0, 0
0, 0
0, 0
0, 0
0, 0
0, 0
0, 0
0, 0
0, 0
0, 0
0, 0
0, 0
0, 0
0, 0
0, 0
0, 0
0, 0
0, 0
0, 0
0, 0
0, 0
0, 0
0, 0
0, 0
0, 0
0, 0
0, 0
0, 0
0, 0
0, 0
0, 0
0, 0
0, 0
0, 0
0, 0
0, 0
0, 0
0, 0
0, 0
0, 0
0, 0
0, 0
0, 0
0, 0
0, 0
0, 0
0, 0
0, 0
0, 0
0, 0
0, 0
0, 0
0, 0
0, 0
0, 0
0, 0
0, 0
0, 0
0, 0
0, 0
0, 0
0, 0
0, 0
0, 0
0, 0
0, 0
0, 0
0, 0
0, 0
0, 0
0, 0
0, 0
0, 0
0, 0
0, 0
0, 0
0, 0
0, 0
0, 0
0, 0
0, 0
0, 0
0, 0
0, 0
0, 0
0, 0
0, 0
0, 0
0, 0
0, 0
0, 0
0, 0
0, 0
0, 0
0, 0
0, 0
0, 0
0, 0
0, 0
0, 0
0, 0
0, 0
0, 0
0, 0
0, 0
0, 0
0, 0
0, 0
0, 0
0, 0
0, 0
0, 0
0, 0
0, 0
0, 0
0, 0
0, 0
0, 0
0, 0
0, 0
0, 0
0, 0
0, 0
0, 0
0, 0
0, 0
0, 0
0, 0
0, 0
0, 0
0, 0
0, 0
0, 0
0, 0
0, 0
0, 0
0, 0
0, 0
0, 0
0, 0
0, 0
0, 0
0, 0
0, 0
0, 0
0, 0
0, 0
0, 0
0, 0
0, 0
0, 0
0, 0
0, 0
0, 0
0, 0
0, 0
0, 0
0, 0
0, 0
0, 0
0, 0
0, 0
0, 0
0, 0
0, 0
0, 0
0, 0
0, 0
0, 0
0, 0
0, 0
0, 0
0, 0
0, 0
0, 0
0, 0
0, 0
0, 0
0, 0
0, 0
0, 0
0, 0
0, 0
0, 0
0, 0
0, 0
0, 0
0, 0
0, 0
0, 0
0, 0
0, 0
0, 0
0, 0
0, 0
0, 0
0, 0
0, 0
0, 0
0, 0
0, 0
0, 0
0, 0
0, 0
0, 0
0, 0
0, 0
0, 0
0, 0
0, 0
0, 0
0, 0
0, 0
0, 0
0, 0
0, 0
0, 0
0, 0
0, 0
0, 0
0, 0
0, 0
0, 0
0, 0
0, 0
0, 0
0, 0
0, 0
0, 0
0, 0
0, 0
0, 0
0, 0
0, 0
0, 0
0, 0
0, 0
0, 0
0, 0
0, 0
0, 0
0, 0
#ENDOFDATA     end of spectrum data