File: host_upload/02-11-2024/rqc/uplink1/ps__0567_0717304816_000rfs_shot_462.msa
#FORMAT      : EMSA/MAS spectral data file
#VERSION     : TC202v2.0 PIXL
#TITLE       : Novarupta (sol567) subset1
#DATE        : 02-11-2024      Date in the format DD-MMM-YYYY, for example 07-JUL-2010
#TIME        :             The time of day at which the spectrum was recorded, in 24-hour format
#OWNER       : PIXL Flight Model       (PIXL will use this to indicate which instrument took the data.)
#NPOINTS     : 4096     Number of data points in the spectrum (This can be zero for configuration only files)
#NCOLUMNS    : 2     Number of data columns in the spectrum (This can be zero for configuration only files)
#XUNITS      : eV
#YUNITS      : COUNTS
#DATATYPE    : YY
#XPERCHAN    : 7.862, 7.881   eV per channel (separate by commas if more than one detector)
#OFFSET      : 18.5, -22.4         eV of first channel  (separate by commas if more than one detector
#SIGNALTYPE  : XRF
#YP_TEMP     : 1.883
#LIVETIME    : 8.83987, 8.82035   seconds (separate by commas if more than one detector)
#REALTIME    : 10, 10.0   seconds (separate by commas if more than one detector)
#SPECTRUM    : start of spectrum data
0, 0
0, 0
0, 0
0, 0
0, 0
0, 0
0, 0
0, 0
0, 0
0, 0
0, 0
0, 0
0, 0
0, 0
0, 0
0, 0
0, 0
0, 0
0, 0
0, 0
0, 0
0, 0
0, 0
0, 0
0, 0
0, 0
0, 0
0, 0
0, 0
0, 0
1, 0
0, 1
1, 0
0, 0
1, 0
0, 4
1, 2
2, 2
5, 5
5, 3
4, 0
0, 6
1, 0
1, 0
2, 4
1, 3
2, 3
2, 4
2, 3
7, 6
3, 4
10, 9
14, 10
21, 17
18, 22
14, 19
10, 21
13, 16
13, 12
12, 9
17, 15
22, 23
37, 48
45, 59
38, 53
43, 48
37, 35
36, 37
32, 37
60, 54
83, 130
180, 241
275, 334
390, 422
474, 534
457, 560
415, 411
321, 309
247, 223
156, 135
85, 91
43, 67
37, 32
35, 38
31, 29
38, 37
35, 37
28, 46
29, 22
27, 19
9, 14
17, 15
27, 26
50, 43
89, 64
140, 135
179, 215
236, 278
305, 282
295, 288
284, 249
166, 201
160, 155
87, 82
70, 82
56, 51
34, 49
58, 82
87, 100
118, 133
154, 206
194, 246
198, 223
199, 224
209, 212
183, 148
127, 125
105, 75
79, 97
81, 88
89, 78
71, 79
66, 66
59, 50
58, 50
27, 36
27, 31
14, 24
13, 12
16, 11
14, 12
4, 10
9, 13
7, 5
5, 7
10, 9
12, 7
10, 6
12, 17
18, 34
27, 32
22, 25
32, 27
29, 23
16, 23
8, 22
10, 29
10, 9
12, 12
21, 21
21, 35
37, 52
78, 104
135, 166
184, 241
257, 298
354, 360
363, 347
328, 375
269, 311
240, 242
155, 187
89, 92
64, 66
36, 45
25, 22
21, 30
29, 28
24, 39
60, 53
48, 65
51, 52
54, 51
43, 44
35, 42
28, 35
25, 11
26, 14
5, 12
6, 3
11, 3
7, 9
9, 9
6, 10
8, 13
10, 17
24, 15
17, 22
39, 39
46, 51
38, 53
61, 65
52, 63
58, 54
43, 57
49, 42
33, 37
30, 28
29, 25
17, 18
18, 18
17, 21
9, 6
14, 11
13, 13
12, 14
12, 22
15, 21
15, 18
20, 19
19, 14
18, 22
19, 18
12, 20
14, 9
10, 14
8, 8
11, 15
10, 9
10, 7
4, 13
8, 6
13, 10
7, 16
5, 22
12, 15
25, 19
26, 14
14, 31
22, 37
23, 34
28, 29
35, 36
26, 22
18, 30
24, 23
13, 7
7, 15
18, 13
14, 15
10, 11
7, 11
20, 11
9, 19
15, 15
23, 20
34, 13
30, 34
30, 38
44, 48
34, 53
55, 48
49, 70
43, 44
32, 30
28, 22
21, 21
20, 23
22, 15
17, 18
20, 15
32, 22
37, 41
53, 78
115, 135
198, 255
350, 431
558, 641
853, 886
1090, 1349
1428, 1593
1672, 1820
1682, 1855
1622, 1696
1515, 1460
1147, 1136
889, 805
615, 527
384, 313
237, 186
129, 109
76, 55
41, 31
25, 27
19, 13
15, 13
12, 15
14, 13
8, 17
18, 20
21, 32
24, 27
42, 38
38, 77
72, 91
103, 165
161, 181
205, 218
229, 252
257, 255
269, 328
233, 268
228, 207
170, 154
150, 121
79, 65
53, 38
34, 44
21, 21
22, 13
12, 13
5, 6
10, 8
12, 13
10, 13
17, 8
5, 9
12, 14
11, 22
14, 12
12, 16
7, 12
7, 5
10, 3
7, 10
6, 5
7, 8
8, 10
7, 9
7, 8
5, 6
4, 9
8, 7
6, 9
9, 6
6, 3
7, 3
9, 9
8, 4
9, 7
4, 3
10, 7
7, 8
8, 6
12, 4
2, 5
8, 3
9, 8
8, 6
9, 10
11, 10
8, 8
3, 4
2, 8
9, 6
10, 8
4, 6
7, 5
10, 11
4, 8
11, 7
7, 4
4, 5
8, 8
11, 11
9, 8
9, 8
13, 6
10, 9
13, 10
3, 11
9, 7
7, 8
9, 13
5, 4
4, 3
8, 2
4, 5
10, 5
10, 11
6, 2
7, 10
6, 3
5, 3
5, 6
6, 2
6, 5
4, 8
3, 5
5, 5
3, 3
1, 8
3, 4
6, 6
4, 7
5, 7
1, 3
2, 3
6, 5
5, 4
6, 4
4, 6
7, 3
2, 8
5, 7
8, 5
0, 4
3, 12
4, 7
3, 7
7, 9
9, 3
4, 6
9, 4
8, 6
4, 5
4, 3
6, 2
7, 3
5, 6
4, 5
4, 2
3, 5
2, 8
2, 3
4, 4
4, 4
8, 3
10, 6
5, 4
2, 6
4, 4
1, 7
5, 2
5, 1
5, 4
1, 1
3, 3
5, 6
3, 4
7, 1
3, 2
2, 5
1, 3
8, 4
2, 5
3, 6
5, 4
6, 4
4, 2
7, 5
6, 6
3, 2
3, 0
7, 2
2, 2
5, 3
2, 3
6, 6
1, 5
0, 3
1, 6
6, 7
1, 5
3, 2
2, 2
3, 2
5, 1
1, 2
3, 3
1, 4
2, 4
2, 3
6, 3
4, 3
3, 1
3, 4
1, 5
4, 4
3, 3
3, 1
1, 2
1, 2
3, 4
4, 3
8, 3
2, 4
1, 3
2, 1
4, 0
5, 2
2, 4
1, 2
6, 1
4, 1
2, 0
1, 6
2, 5
2, 1
3, 0
4, 2
2, 1
1, 2
3, 0
0, 2
5, 3
2, 0
0, 3
1, 3
2, 2
3, 2
0, 4
2, 1
4, 3
0, 3
1, 3
1, 3
3, 3
2, 2
5, 2
0, 4
1, 2
4, 3
0, 2
3, 4
2, 2
3, 0
2, 2
1, 2
1, 2
0, 1
2, 2
4, 4
4, 2
1, 2
1, 3
3, 2
2, 2
1, 1
4, 1
7, 1
7, 3
4, 7
2, 4
4, 4
1, 2
2, 1
1, 9
2, 3
3, 0
3, 3
3, 1
1, 2
2, 2
1, 4
0, 3
1, 0
1, 0
2, 1
1, 0
2, 2
1, 0
2, 1
2, 1
2, 0
2, 1
1, 1
0, 0
3, 0
1, 0
2, 2
1, 2
2, 3
3, 4
1, 0
0, 1
2, 2
3, 0
1, 0
0, 4
0, 1
2, 1
2, 2
0, 2
0, 2
0, 0
1, 1
0, 1
0, 0
1, 2
0, 0
0, 1
1, 1
0, 2
0, 2
0, 1
5, 1
0, 5
3, 2
1, 1
1, 1
1, 1
1, 0
2, 3
0, 1
1, 2
2, 0
3, 0
1, 3
2, 0
4, 2
1, 1
1, 1
0, 1
2, 0
1, 2
0, 2
2, 1
0, 0
1, 2
0, 0
1, 0
0, 0
2, 1
1, 0
1, 0
1, 1
2, 0
0, 0
0, 1
0, 1
0, 3
0, 1
2, 1
0, 2
0, 0
1, 0
0, 1
1, 0
0, 2
2, 0
0, 1
0, 0
2, 0
0, 0
0, 0
1, 1
1, 1
0, 1
1, 0
0, 2
0, 0
0, 0
1, 1
0, 2
1, 0
0, 1
0, 1
2, 1
0, 1
0, 2
1, 0
0, 1
0, 0
0, 1
0, 0
1, 0
1, 1
0, 4
0, 1
1, 0
0, 2
2, 0
1, 2
2, 0
0, 0
0, 2
1, 0
1, 1
0, 1
0, 2
0, 0
0, 0
0, 1
0, 0
2, 0
0, 0
0, 1
0, 0
0, 0
1, 0
1, 1
0, 0
2, 0
0, 0
2, 0
0, 1
0, 0
0, 0
0, 1
0, 0
0, 0
0, 0
1, 0
1, 1
0, 0
0, 0
0, 1
1, 0
0, 1
1, 0
0, 1
1, 1
0, 2
0, 2
0, 0
0, 1
0, 0
1, 0
0, 0
0, 1
0, 0
0, 1
1, 0
0, 0
0, 0
0, 0
0, 1
1, 0
0, 1
1, 0
0, 0
0, 0
0, 0
0, 0
2, 0
1, 0
0, 0
1, 0
1, 1
1, 0
1, 1
1, 0
0, 0
0, 0
0, 0
0, 0
1, 0
1, 1
0, 0
1, 1
0, 0
0, 0
0, 0
0, 0
0, 0
1, 0
0, 0
0, 0
0, 0
3, 1
0, 0
0, 0
0, 0
0, 0
0, 0
1, 0
0, 0
1, 0
1, 0
0, 0
0, 0
0, 0
0, 0
0, 0
0, 1
0, 0
0, 1
0, 0
1, 0
0, 0
0, 3
0, 0
0, 0
1, 1
1, 0
0, 0
0, 1
0, 0
0, 1
0, 0
0, 0
0, 1
1, 0
0, 0
0, 0
0, 0
1, 0
0, 0
0, 0
0, 0
1, 0
0, 0
0, 0
0, 1
1, 0
0, 0
0, 0
0, 1
0, 0
0, 0
1, 0
1, 0
0, 0
0, 0
0, 0
0, 0
0, 0
0, 0
0, 0
0, 1
0, 0
1, 0
0, 0
0, 0
0, 0
0, 0
0, 0
0, 0
0, 0
0, 0
0, 0
0, 0
0, 0
0, 0
0, 0
1, 0
0, 0
0, 1
0, 0
0, 0
0, 0
0, 0
0, 0
0, 0
0, 0
0, 1
0, 0
1, 1
0, 1
0, 1
0, 0
0, 1
0, 0
0, 1
0, 0
0, 0
0, 1
0, 0
0, 0
0, 1
0, 1
0, 0
0, 0
0, 0
0, 0
0, 0
0, 1
0, 0
0, 0
0, 0
0, 0
0, 0
0, 0
0, 0
1, 0
0, 0
0, 0
1, 0
0, 0
0, 0
0, 0
0, 0
0, 1
0, 0
0, 0
0, 0
0, 0
0, 0
0, 0
0, 0
0, 0
0, 0
0, 0
0, 0
0, 0
0, 1
0, 0
0, 0
0, 0
0, 0
0, 0
0, 0
0, 0
0, 0
0, 0
0, 0
0, 0
0, 0
0, 0
0, 0
0, 0
0, 0
0, 0
0, 0
0, 0
0, 0
0, 0
0, 0
0, 0
0, 0
0, 0
0, 0
0, 0
0, 0
0, 0
0, 0
0, 0
0, 0
0, 0
0, 0
0, 0
0, 0
0, 0
0, 0
0, 0
0, 0
0, 0
0, 0
0, 0
0, 0
0, 0
0, 0
0, 0
0, 0
0, 0
1, 0
0, 0
0, 0
0, 0
0, 0
0, 0
0, 0
0, 0
0, 0
0, 0
0, 0
0, 0
0, 0
0, 0
0, 0
0, 0
0, 0
0, 0
0, 0
0, 0
0, 0
0, 0
0, 2
1, 0
0, 0
0, 0
0, 0
0, 0
0, 1
0, 0
0, 0
0, 0
0, 0
0, 0
0, 0
0, 0
0, 0
0, 0
0, 0
0, 0
0, 0
0, 0
0, 0
0, 0
0, 0
0, 0
0, 0
0, 0
1, 0
0, 0
0, 0
0, 0
0, 0
0, 0
0, 0
0, 0
0, 0
0, 0
0, 0
0, 0
0, 0
0, 0
0, 0
0, 0
0, 0
0, 0
0, 0
0, 0
0, 0
0, 0
0, 0
0, 0
0, 0
0, 0
0, 0
0, 0
0, 0
0, 0
0, 0
0, 0
0, 0
0, 0
0, 0
0, 0
0, 0
0, 0
0, 0
0, 0
0, 0
0, 0
0, 0
0, 0
1, 0
0, 0
0, 0
0, 0
0, 0
0, 0
0, 0
0, 0
0, 0
0, 0
0, 0
0, 0
0, 0
0, 0
0, 0
0, 0
0, 0
0, 0
0, 0
0, 0
0, 0
0, 0
0, 0
0, 0
0, 0
0, 0
0, 0
0, 0
0, 0
0, 0
0, 0
0, 0
0, 0
0, 0
0, 0
0, 0
0, 0
0, 0
0, 0
0, 0
0, 0
0, 0
0, 0
0, 0
0, 0
0, 0
0, 0
0, 0
0, 0
0, 0
0, 0
0, 0
0, 0
0, 0
0, 0
0, 0
0, 0
0, 0
0, 0
0, 0
0, 0
0, 0
0, 0
0, 0
0, 0
0, 0
0, 0
0, 0
0, 0
0, 0
0, 0
0, 0
0, 0
0, 0
0, 0
0, 0
0, 0
0, 0
0, 0
0, 0
0, 0
0, 0
0, 0
0, 0
0, 0
0, 0
0, 0
0, 0
0, 0
0, 0
0, 0
0, 0
0, 0
0, 0
0, 0
0, 0
0, 0
0, 0
0, 0
0, 0
0, 0
0, 0
0, 0
0, 0
0, 0
0, 0
0, 0
0, 0
0, 0
0, 0
0, 0
0, 0
0, 0
0, 0
0, 0
0, 0
0, 0
0, 0
0, 0
0, 0
0, 0
0, 0
0, 0
0, 0
0, 0
0, 0
0, 0
0, 0
0, 0
0, 0
0, 0
0, 0
0, 0
0, 0
0, 0
0, 0
0, 0
0, 0
0, 0
0, 0
0, 0
0, 0
0, 0
0, 0
0, 0
0, 0
0, 0
0, 0
0, 0
0, 0
0, 0
0, 0
0, 0
0, 0
0, 0
0, 0
0, 0
0, 0
0, 0
0, 0
0, 0
0, 0
0, 0
0, 0
0, 0
0, 0
0, 0
0, 0
0, 0
0, 0
0, 0
0, 0
0, 0
0, 0
0, 0
0, 0
0, 0
0, 0
0, 0
0, 0
0, 0
0, 0
0, 0
0, 0
0, 0
0, 0
0, 0
0, 0
0, 0
0, 0
0, 0
0, 0
0, 0
0, 0
0, 0
0, 0
0, 0
0, 0
0, 0
0, 0
0, 0
0, 0
0, 0
0, 0
0, 0
0, 0
0, 0
0, 0
0, 0
0, 0
0, 0
0, 0
0, 0
0, 0
0, 0
0, 0
0, 0
0, 0
0, 0
0, 0
0, 0
0, 0
0, 0
0, 0
0, 0
0, 0
0, 0
0, 0
0, 0
0, 0
0, 0
0, 0
0, 0
0, 0
0, 0
0, 0
0, 0
0, 0
0, 0
0, 0
0, 0
0, 0
0, 0
0, 0
0, 0
0, 0
0, 0
0, 0
0, 0
0, 0
0, 0
0, 0
0, 0
0, 0
0, 0
0, 0
0, 0
0, 0
0, 0
0, 0
0, 0
0, 0
0, 0
0, 0
0, 0
0, 0
0, 0
0, 0
0, 0
0, 0
0, 0
0, 0
0, 0
0, 0
0, 0
0, 0
0, 0
0, 0
0, 0
0, 0
0, 0
0, 0
0, 0
0, 0
0, 0
0, 0
0, 0
0, 0
0, 0
0, 0
0, 0
0, 0
0, 0
0, 0
0, 0
0, 0
0, 0
0, 0
0, 0
0, 0
0, 0
0, 0
0, 0
0, 0
0, 0
0, 0
0, 0
0, 0
0, 0
0, 0
0, 0
0, 0
0, 0
0, 0
0, 0
0, 0
0, 0
0, 0
0, 0
0, 0
0, 0
0, 0
0, 0
0, 0
0, 0
0, 0
0, 0
0, 0
#ENDOFDATA     end of spectrum data