File: host_upload/02-11-2024/rqc/uplink1/ps__0567_0717304816_000rfs_shot_305.msa
#FORMAT      : EMSA/MAS spectral data file
#VERSION     : TC202v2.0 PIXL
#TITLE       : Novarupta (sol567) subset1
#DATE        : 02-11-2024      Date in the format DD-MMM-YYYY, for example 07-JUL-2010
#TIME        :             The time of day at which the spectrum was recorded, in 24-hour format
#OWNER       : PIXL Flight Model       (PIXL will use this to indicate which instrument took the data.)
#NPOINTS     : 4096     Number of data points in the spectrum (This can be zero for configuration only files)
#NCOLUMNS    : 2     Number of data columns in the spectrum (This can be zero for configuration only files)
#XUNITS      : eV
#YUNITS      : COUNTS
#DATATYPE    : YY
#XPERCHAN    : 7.862, 7.881   eV per channel (separate by commas if more than one detector)
#OFFSET      : 18.5, -22.4         eV of first channel  (separate by commas if more than one detector
#SIGNALTYPE  : XRF
#YP_TEMP     : 1.145
#LIVETIME    : 8.83392, 8.80441   seconds (separate by commas if more than one detector)
#REALTIME    : 10, 10.0   seconds (separate by commas if more than one detector)
#SPECTRUM    : start of spectrum data
0, 0
0, 0
0, 0
0, 0
0, 0
0, 0
0, 0
0, 0
0, 0
0, 0
0, 0
0, 0
0, 0
0, 0
0, 0
0, 0
0, 0
0, 0
0, 0
0, 0
0, 0
0, 0
0, 0
0, 0
0, 0
0, 0
0, 0
0, 0
0, 0
0, 0
0, 0
0, 1
0, 0
1, 0
1, 0
1, 4
2, 5
1, 5
3, 4
3, 1
4, 4
4, 2
3, 1
2, 2
1, 3
3, 9
5, 6
4, 5
6, 2
2, 4
5, 9
7, 7
12, 17
13, 19
13, 12
12, 16
14, 18
8, 13
5, 6
10, 10
28, 24
21, 28
23, 37
41, 58
36, 63
42, 57
29, 40
26, 32
31, 40
64, 61
84, 135
171, 245
276, 360
360, 446
433, 544
441, 548
351, 465
300, 368
189, 239
135, 140
75, 91
43, 51
38, 37
28, 38
29, 37
28, 45
31, 38
28, 33
17, 31
26, 17
18, 22
9, 12
28, 32
43, 45
69, 80
112, 148
204, 214
228, 316
269, 339
293, 339
265, 291
226, 243
137, 161
110, 114
80, 79
51, 61
57, 52
50, 69
83, 114
115, 126
175, 185
187, 205
225, 273
203, 247
212, 212
153, 166
131, 128
103, 101
87, 105
64, 81
60, 83
61, 74
66, 51
43, 63
46, 51
30, 39
31, 29
25, 28
27, 19
12, 15
17, 12
8, 5
5, 5
10, 8
6, 4
8, 7
11, 5
9, 14
18, 34
14, 20
37, 29
22, 28
25, 32
28, 30
17, 26
16, 22
6, 17
11, 10
11, 11
13, 21
22, 38
35, 65
67, 105
130, 195
189, 268
251, 336
303, 397
349, 453
302, 411
293, 331
216, 252
157, 221
105, 107
47, 62
45, 35
35, 26
27, 32
29, 42
40, 69
42, 61
44, 64
44, 82
50, 57
46, 55
23, 30
27, 17
26, 26
17, 12
10, 13
14, 12
8, 10
7, 4
7, 12
9, 13
10, 11
15, 15
13, 18
24, 28
26, 31
49, 36
37, 52
44, 69
54, 75
48, 65
49, 47
50, 45
37, 39
23, 24
12, 27
15, 25
10, 17
17, 11
10, 12
9, 15
11, 5
15, 15
11, 12
17, 14
10, 27
18, 17
10, 14
18, 12
6, 17
13, 12
12, 18
15, 17
8, 9
8, 11
5, 14
9, 12
5, 8
7, 12
14, 15
14, 24
4, 23
16, 20
15, 21
18, 18
21, 38
25, 36
30, 27
24, 34
23, 28
18, 16
15, 28
22, 15
10, 11
9, 18
10, 12
6, 16
9, 9
7, 11
9, 15
7, 14
13, 22
14, 22
26, 30
41, 32
44, 41
33, 43
35, 60
48, 46
39, 57
32, 49
33, 47
28, 37
26, 28
24, 22
16, 18
16, 16
15, 23
27, 36
20, 43
51, 106
116, 183
202, 322
327, 506
512, 759
805, 1140
1132, 1511
1381, 1775
1534, 1962
1617, 1994
1588, 1817
1420, 1550
1140, 1281
844, 862
516, 592
325, 322
204, 204
96, 75
80, 54
46, 29
29, 20
16, 20
15, 21
13, 19
19, 20
13, 17
14, 21
21, 25
33, 39
31, 47
52, 59
84, 105
98, 159
141, 178
200, 234
217, 300
229, 291
245, 243
257, 262
221, 219
181, 181
122, 114
98, 80
65, 44
33, 37
14, 19
9, 13
3, 12
12, 7
7, 10
6, 7
10, 14
10, 16
13, 16
8, 20
15, 12
14, 17
8, 15
4, 7
5, 13
8, 5
4, 9
5, 4
5, 9
7, 6
5, 8
12, 10
4, 5
6, 8
2, 4
6, 7
5, 5
8, 4
5, 7
1, 7
5, 6
6, 6
7, 4
3, 6
8, 11
7, 9
5, 5
6, 8
5, 9
7, 8
8, 10
4, 8
7, 7
4, 10
7, 5
6, 6
5, 3
5, 6
7, 4
6, 7
4, 8
7, 3
5, 5
6, 8
5, 10
5, 12
5, 12
11, 13
6, 8
16, 10
9, 13
8, 9
10, 15
8, 10
7, 5
2, 6
7, 9
4, 3
4, 6
5, 6
7, 6
9, 6
8, 8
3, 6
6, 4
5, 1
3, 3
5, 6
7, 8
4, 4
7, 9
4, 8
4, 6
3, 7
10, 8
8, 9
8, 4
5, 5
5, 1
5, 2
3, 3
3, 4
6, 5
4, 5
2, 7
3, 1
5, 6
7, 12
4, 1
3, 7
2, 4
2, 4
5, 3
7, 7
3, 2
4, 7
2, 5
7, 5
4, 3
3, 10
4, 2
2, 4
2, 5
7, 6
2, 4
3, 2
5, 5
5, 2
0, 5
4, 3
4, 4
5, 10
6, 6
6, 2
5, 5
0, 6
5, 6
6, 3
2, 3
7, 1
2, 2
4, 3
4, 4
4, 5
4, 2
3, 3
1, 5
5, 2
4, 3
5, 3
8, 2
3, 9
4, 3
6, 5
2, 2
4, 2
2, 0
3, 9
4, 3
2, 2
4, 1
2, 8
3, 3
3, 3
5, 1
1, 1
5, 3
2, 3
2, 8
2, 3
5, 1
2, 3
3, 2
2, 2
2, 3
2, 5
4, 2
2, 2
1, 3
1, 1
4, 4
1, 7
0, 3
2, 2
1, 9
1, 3
4, 2
2, 2
2, 2
4, 1
5, 3
2, 2
2, 3
3, 1
0, 2
2, 2
0, 2
3, 6
3, 2
5, 1
2, 3
2, 1
3, 2
3, 1
2, 1
4, 3
3, 1
2, 3
5, 0
2, 2
2, 0
3, 3
1, 5
3, 0
1, 2
1, 3
1, 5
2, 3
3, 5
2, 1
3, 2
2, 3
1, 3
1, 1
1, 4
3, 3
3, 4
1, 2
1, 2
0, 2
0, 1
2, 1
5, 3
3, 4
4, 4
0, 1
1, 5
3, 3
2, 2
1, 6
4, 2
0, 4
3, 2
5, 2
3, 4
6, 2
1, 2
1, 2
3, 4
2, 2
2, 2
2, 2
2, 1
1, 3
2, 0
1, 4
1, 1
0, 3
7, 2
2, 3
2, 2
1, 3
0, 0
1, 2
2, 2
1, 2
0, 1
2, 1
1, 0
3, 4
2, 3
1, 1
1, 0
1, 1
4, 2
1, 3
0, 1
0, 3
2, 2
2, 2
2, 2
4, 0
0, 0
1, 3
1, 0
0, 4
2, 0
0, 0
0, 1
1, 1
2, 1
2, 2
2, 2
2, 2
1, 1
1, 1
1, 1
1, 0
0, 1
0, 2
2, 1
1, 2
1, 1
2, 0
4, 3
0, 1
2, 2
0, 1
1, 1
0, 2
1, 2
3, 0
3, 2
0, 0
1, 3
1, 0
3, 0
2, 0
0, 0
1, 0
1, 1
0, 0
1, 3
1, 0
2, 0
1, 1
1, 0
0, 3
1, 2
1, 0
1, 3
1, 2
0, 0
1, 0
3, 0
1, 0
0, 0
0, 2
0, 2
1, 0
0, 0
0, 0
0, 1
0, 1
1, 1
0, 1
0, 1
1, 1
1, 0
0, 0
0, 1
0, 1
1, 2
0, 1
1, 1
1, 2
0, 0
0, 0
0, 0
2, 0
0, 0
0, 1
2, 0
2, 2
0, 0
0, 0
0, 1
1, 1
0, 2
0, 0
0, 1
0, 1
0, 0
0, 1
1, 0
0, 0
0, 0
0, 0
1, 0
0, 0
0, 0
0, 0
0, 0
1, 1
1, 0
0, 0
0, 0
1, 1
0, 1
1, 1
0, 0
0, 0
0, 0
0, 0
1, 1
1, 1
0, 0
1, 1
0, 1
0, 1
0, 0
1, 0
0, 0
0, 0
1, 1
0, 0
1, 1
0, 1
0, 0
1, 0
1, 1
0, 0
1, 1
0, 0
0, 0
0, 0
1, 0
1, 0
0, 0
1, 0
0, 1
0, 0
0, 0
0, 0
0, 1
0, 0
0, 0
0, 0
0, 0
0, 0
0, 0
0, 0
0, 0
0, 0
0, 0
0, 0
0, 1
1, 0
0, 1
0, 1
0, 0
1, 1
0, 0
2, 0
0, 0
1, 0
0, 0
0, 0
0, 1
0, 1
0, 0
0, 0
0, 0
1, 0
0, 0
0, 0
0, 0
0, 0
0, 0
1, 0
0, 2
0, 1
2, 0
0, 1
0, 0
0, 0
0, 0
0, 0
0, 1
0, 0
1, 0
0, 1
0, 1
0, 0
0, 0
2, 0
0, 1
1, 1
0, 1
0, 0
0, 0
0, 0
0, 0
0, 2
1, 0
0, 0
0, 1
0, 1
0, 0
0, 0
0, 1
0, 0
0, 0
0, 1
0, 0
0, 0
0, 1
0, 0
1, 0
0, 0
0, 0
0, 0
0, 0
0, 0
0, 0
0, 0
0, 0
0, 2
0, 0
0, 0
0, 0
1, 0
0, 0
0, 0
0, 0
0, 0
0, 1
0, 0
1, 0
0, 0
0, 1
1, 1
0, 0
0, 0
0, 1
0, 0
0, 0
0, 0
0, 0
0, 0
0, 0
0, 0
0, 0
0, 0
0, 0
0, 0
0, 0
0, 0
0, 0
0, 0
1, 0
0, 0
0, 0
0, 0
0, 0
0, 0
0, 1
0, 0
1, 0
0, 0
0, 0
0, 0
0, 0
0, 1
1, 0
1, 1
1, 0
0, 0
0, 0
0, 0
0, 1
0, 0
0, 0
0, 0
0, 0
0, 0
0, 0
0, 0
0, 0
0, 0
0, 0
0, 0
0, 1
0, 0
0, 0
0, 0
0, 0
0, 0
0, 0
0, 0
0, 0
0, 0
0, 0
1, 0
0, 0
0, 0
0, 0
0, 0
0, 0
0, 0
0, 0
0, 0
0, 0
0, 0
0, 0
0, 1
0, 1
0, 0
0, 0
0, 0
0, 0
0, 0
0, 0
0, 0
0, 0
0, 0
0, 0
0, 0
0, 1
0, 0
0, 1
1, 0
0, 0
0, 0
0, 0
0, 0
0, 0
0, 0
0, 0
0, 0
0, 0
0, 0
0, 0
0, 0
1, 0
0, 0
0, 0
0, 0
0, 0
0, 0
0, 0
0, 0
1, 0
0, 0
0, 0
0, 0
0, 0
0, 0
0, 0
0, 0
0, 0
0, 0
0, 1
0, 1
0, 0
0, 0
0, 0
0, 0
1, 0
0, 0
0, 0
0, 0
0, 0
0, 0
0, 0
0, 0
0, 0
0, 0
0, 0
0, 0
0, 0
0, 0
0, 0
0, 0
0, 0
0, 0
0, 0
0, 0
0, 0
0, 0
0, 0
0, 0
0, 0
0, 0
0, 0
0, 0
0, 0
0, 0
0, 0
0, 0
0, 0
0, 0
0, 0
1, 0
0, 0
0, 0
0, 0
0, 0
0, 0
0, 0
0, 0
0, 0
0, 0
0, 0
0, 0
0, 0
1, 0
0, 0
0, 0
0, 0
0, 0
0, 0
0, 0
0, 0
0, 0
0, 0
0, 0
0, 0
0, 0
0, 0
0, 0
0, 0
0, 0
0, 0
0, 0
0, 0
0, 0
0, 0
0, 0
0, 0
0, 0
0, 0
0, 0
0, 0
0, 0
0, 0
0, 0
0, 0
0, 0
0, 0
0, 0
0, 0
0, 0
0, 0
0, 0
0, 0
0, 0
0, 0
0, 0
0, 0
0, 0
0, 0
0, 0
0, 0
0, 0
0, 0
0, 0
0, 0
0, 0
0, 0
0, 0
0, 0
0, 0
0, 0
0, 0
0, 0
0, 0
0, 0
0, 0
0, 0
0, 0
0, 0
0, 0
0, 0
0, 0
0, 0
0, 0
0, 0
0, 0
0, 0
0, 0
0, 0
0, 0
0, 0
0, 0
0, 0
0, 0
0, 0
0, 0
0, 0
0, 0
0, 0
0, 0
0, 0
0, 0
0, 0
0, 0
0, 0
0, 0
0, 0
0, 0
0, 0
0, 0
0, 0
0, 0
0, 0
0, 0
0, 0
0, 0
0, 0
0, 0
0, 0
0, 0
0, 0
0, 0
0, 0
0, 0
0, 0
0, 0
0, 0
0, 0
0, 0
0, 0
0, 0
0, 0
0, 0
0, 0
0, 0
0, 0
0, 0
0, 0
0, 0
0, 0
0, 0
0, 0
0, 0
0, 0
0, 0
0, 0
0, 0
0, 0
0, 0
0, 0
0, 0
0, 0
0, 0
0, 0
0, 0
0, 0
0, 0
0, 0
0, 0
0, 0
0, 0
0, 0
0, 0
0, 0
0, 0
0, 0
0, 0
0, 0
0, 0
0, 0
0, 0
0, 0
0, 0
0, 0
0, 0
0, 0
0, 0
0, 0
0, 0
0, 0
0, 0
0, 0
0, 0
0, 0
0, 0
0, 0
0, 0
0, 0
0, 0
0, 0
0, 0
0, 0
0, 0
0, 0
0, 0
0, 0
0, 0
0, 0
0, 0
0, 0
0, 0
0, 0
0, 0
0, 0
0, 0
0, 0
0, 0
0, 0
0, 0
0, 0
0, 0
0, 0
0, 0
0, 0
0, 0
0, 0
0, 0
0, 0
0, 0
0, 0
0, 0
0, 0
0, 0
0, 0
0, 0
0, 0
0, 0
0, 0
0, 0
0, 0
0, 0
0, 0
0, 0
0, 0
0, 0
0, 0
0, 0
0, 0
0, 0
0, 0
0, 0
0, 0
0, 0
0, 0
0, 0
0, 0
0, 0
0, 0
0, 0
0, 0
0, 0
0, 0
0, 0
0, 0
0, 0
0, 0
0, 0
0, 0
0, 0
0, 0
0, 0
0, 0
0, 0
0, 0
0, 0
0, 0
0, 0
0, 0
0, 0
0, 0
0, 0
0, 0
0, 0
0, 0
0, 0
0, 0
0, 0
0, 0
0, 0
0, 0
0, 0
0, 0
0, 0
0, 0
0, 0
0, 0
0, 0
0, 0
0, 0
0, 0
0, 0
0, 0
0, 0
0, 0
0, 0
0, 0
0, 0
0, 0
0, 0
0, 0
0, 0
0, 0
0, 0
0, 0
0, 0
0, 0
0, 0
0, 0
0, 0
0, 0
0, 0
0, 0
0, 0
0, 0
0, 0
0, 0
0, 0
0, 0
0, 0
0, 0
0, 0
0, 0
0, 0
0, 0
0, 0
0, 0
0, 0
0, 0
0, 0
0, 0
0, 0
0, 0
0, 0
0, 0
0, 0
0, 0
0, 0
0, 0
0, 0
0, 0
0, 0
0, 0
0, 0
0, 0
0, 0
0, 0
0, 0
0, 0
0, 0
0, 0
0, 0
0, 0
0, 0
0, 0
0, 0
0, 0
0, 0
0, 0
0, 0
0, 0
0, 0
0, 0
0, 0
0, 0
0, 0
0, 0
0, 0
0, 0
0, 0
0, 0
0, 0
0, 0
0, 0
0, 0
0, 0
0, 0
0, 0
0, 0
0, 0
0, 0
0, 0
0, 0
0, 0
0, 0
0, 0
#ENDOFDATA     end of spectrum data