File: host_upload/02-11-2024/rqc/uplink1/ps__0567_0717304816_000rfs_shot_9.msa
#FORMAT      : EMSA/MAS spectral data file
#VERSION     : TC202v2.0 PIXL
#TITLE       : Novarupta (sol567) subset1
#DATE        : 02-11-2024      Date in the format DD-MMM-YYYY, for example 07-JUL-2010
#TIME        :             The time of day at which the spectrum was recorded, in 24-hour format
#OWNER       : PIXL Flight Model       (PIXL will use this to indicate which instrument took the data.)
#NPOINTS     : 4096     Number of data points in the spectrum (This can be zero for configuration only files)
#NCOLUMNS    : 2     Number of data columns in the spectrum (This can be zero for configuration only files)
#XUNITS      : eV
#YUNITS      : COUNTS
#DATATYPE    : YY
#XPERCHAN    : 7.862, 7.881   eV per channel (separate by commas if more than one detector)
#OFFSET      : 18.5, -22.4         eV of first channel  (separate by commas if more than one detector
#SIGNALTYPE  : XRF
#YP_TEMP     : -4.275
#LIVETIME    : 8.84481, 8.64624   seconds (separate by commas if more than one detector)
#REALTIME    : 10, 10.0   seconds (separate by commas if more than one detector)
#SPECTRUM    : start of spectrum data
0, 0
0, 0
0, 0
0, 0
0, 0
0, 0
0, 0
0, 0
0, 0
0, 0
0, 0
0, 0
0, 0
0, 0
0, 0
0, 0
0, 0
0, 0
0, 0
0, 0
0, 0
0, 0
0, 0
0, 0
0, 0
0, 0
0, 0
1, 0
0, 0
0, 0
0, 0
1, 0
0, 1
1, 2
1, 0
2, 2
0, 2
1, 3
1, 2
3, 9
3, 1
3, 2
2, 2
2, 0
4, 2
3, 2
3, 5
8, 5
6, 6
4, 8
6, 9
8, 11
14, 14
11, 15
13, 14
13, 17
10, 13
10, 12
10, 12
6, 14
22, 25
30, 30
39, 53
39, 51
42, 45
48, 48
38, 36
37, 35
51, 58
92, 106
131, 150
215, 261
307, 380
384, 424
454, 508
404, 436
347, 419
302, 283
205, 197
128, 132
83, 75
40, 59
38, 34
33, 39
30, 30
35, 36
25, 28
27, 38
27, 26
18, 15
26, 17
31, 24
31, 54
64, 73
95, 127
154, 172
184, 246
257, 287
262, 351
251, 287
222, 225
189, 179
125, 115
90, 76
74, 61
70, 53
63, 64
74, 95
114, 93
128, 150
166, 176
214, 209
158, 240
175, 207
138, 181
148, 147
136, 146
103, 108
86, 98
76, 82
72, 75
82, 67
49, 57
59, 51
41, 43
33, 34
30, 17
21, 22
12, 12
16, 8
11, 11
11, 9
7, 8
4, 5
7, 6
6, 5
11, 13
10, 18
16, 22
16, 22
26, 19
25, 25
17, 20
23, 29
16, 17
10, 8
12, 11
6, 8
18, 17
26, 29
43, 42
75, 111
127, 164
183, 235
238, 282
320, 379
326, 366
302, 377
281, 324
221, 240
185, 189
93, 129
62, 72
55, 47
33, 29
26, 22
29, 32
35, 47
37, 58
52, 51
51, 65
44, 43
36, 41
26, 38
36, 29
19, 17
16, 11
19, 17
11, 10
8, 11
5, 12
11, 8
9, 8
15, 8
15, 16
19, 21
18, 25
30, 36
40, 54
52, 56
60, 63
48, 79
56, 51
45, 64
50, 42
41, 35
22, 33
28, 20
26, 19
14, 14
10, 17
15, 7
14, 11
9, 17
11, 17
10, 12
19, 21
17, 13
22, 19
14, 13
23, 12
21, 19
14, 20
13, 17
14, 15
11, 9
11, 15
11, 11
14, 12
15, 9
14, 12
9, 10
13, 6
19, 22
10, 18
17, 18
16, 24
28, 29
35, 35
39, 26
30, 33
25, 26
21, 28
14, 23
23, 22
9, 15
10, 19
15, 8
15, 13
11, 14
11, 5
15, 10
16, 17
18, 20
18, 19
23, 25
26, 38
34, 55
50, 56
45, 55
41, 39
48, 49
25, 47
35, 49
24, 31
22, 24
19, 20
22, 22
18, 17
26, 28
29, 39
60, 80
99, 116
177, 203
280, 363
491, 570
700, 887
913, 1164
1225, 1413
1411, 1638
1548, 1769
1611, 1765
1455, 1673
1278, 1295
955, 943
755, 713
512, 467
313, 301
184, 173
104, 104
67, 45
43, 39
22, 17
21, 13
12, 16
15, 18
20, 24
15, 14
24, 21
37, 32
41, 39
55, 63
62, 83
105, 130
146, 157
170, 208
204, 227
223, 247
232, 288
247, 250
231, 233
185, 190
133, 136
102, 102
63, 58
40, 48
32, 24
20, 20
10, 12
6, 13
8, 9
15, 18
6, 13
10, 15
10, 10
11, 15
11, 9
10, 10
12, 14
11, 7
13, 7
6, 6
6, 7
3, 8
9, 3
5, 5
4, 8
8, 3
4, 10
8, 5
5, 4
5, 5
2, 9
8, 4
6, 5
4, 8
4, 7
10, 8
7, 2
9, 4
7, 3
6, 8
5, 5
5, 4
6, 9
7, 12
10, 11
5, 8
6, 5
5, 6
13, 2
6, 7
5, 7
8, 6
4, 6
3, 5
6, 7
11, 9
4, 7
3, 11
9, 9
8, 13
10, 9
7, 13
7, 9
5, 9
13, 9
15, 14
8, 11
6, 10
8, 12
5, 9
7, 3
5, 3
7, 4
5, 4
6, 7
4, 8
9, 7
11, 6
3, 3
6, 3
2, 3
3, 6
3, 5
3, 5
6, 8
8, 4
7, 1
8, 3
8, 8
3, 7
8, 5
8, 8
6, 8
6, 6
8, 11
3, 2
2, 3
2, 6
2, 8
6, 6
6, 5
4, 3
9, 7
6, 4
4, 7
2, 3
1, 3
1, 0
4, 0
10, 6
2, 7
4, 6
8, 4
5, 3
3, 9
6, 5
2, 6
4, 2
10, 6
7, 4
6, 4
7, 3
4, 5
5, 4
4, 7
10, 9
5, 9
4, 3
5, 3
2, 3
4, 6
4, 8
3, 3
6, 3
2, 4
6, 2
1, 4
4, 2
3, 3
6, 6
3, 2
0, 4
5, 3
3, 2
3, 3
5, 6
3, 3
3, 4
4, 4
3, 4
3, 4
5, 5
0, 2
3, 4
3, 1
1, 3
3, 3
3, 4
4, 0
3, 6
3, 1
4, 1
1, 2
4, 1
1, 1
4, 8
6, 7
3, 3
2, 7
4, 3
3, 2
3, 4
3, 5
0, 4
2, 1
2, 2
2, 2
4, 2
4, 5
3, 2
3, 4
0, 0
3, 3
1, 7
3, 0
2, 2
0, 2
2, 5
2, 4
2, 0
1, 2
2, 3
5, 3
1, 5
4, 4
4, 1
3, 5
2, 6
0, 0
0, 2
2, 4
2, 3
2, 2
5, 1
2, 6
3, 3
2, 1
1, 2
2, 3
4, 3
1, 2
1, 4
0, 2
1, 2
3, 1
0, 2
0, 1
3, 3
2, 1
4, 2
2, 3
1, 1
3, 3
4, 2
1, 2
4, 0
1, 5
0, 3
1, 2
0, 3
0, 3
3, 2
3, 2
5, 1
4, 6
4, 1
3, 6
4, 4
3, 3
3, 8
3, 2
6, 4
2, 4
2, 1
1, 5
1, 1
4, 0
1, 2
0, 2
1, 0
1, 0
1, 1
0, 2
0, 2
4, 0
0, 0
1, 1
3, 1
0, 0
1, 2
2, 3
0, 1
5, 1
1, 4
2, 1
2, 2
3, 3
1, 1
0, 2
2, 1
2, 2
4, 1
0, 0
1, 1
2, 1
3, 1
1, 3
1, 1
0, 3
0, 2
2, 2
0, 1
1, 1
1, 1
0, 2
2, 0
0, 1
0, 0
1, 1
2, 1
0, 1
1, 1
2, 1
0, 1
1, 1
1, 2
1, 1
0, 1
1, 0
0, 1
0, 0
0, 1
0, 0
0, 2
0, 2
0, 0
0, 1
0, 1
0, 0
0, 0
1, 1
1, 1
0, 1
1, 0
1, 1
1, 2
0, 0
1, 2
2, 1
1, 1
1, 1
0, 2
1, 1
0, 0
3, 0
0, 1
0, 1
1, 1
0, 1
1, 0
0, 0
0, 1
0, 2
1, 0
1, 2
0, 0
0, 0
0, 1
0, 2
0, 1
1, 0
0, 0
2, 1
1, 2
1, 3
1, 2
0, 1
1, 0
0, 1
1, 0
1, 0
1, 1
1, 0
1, 1
1, 2
1, 0
0, 0
1, 2
0, 0
1, 1
0, 4
1, 0
1, 0
0, 0
1, 0
0, 1
0, 0
0, 1
1, 0
0, 2
0, 0
0, 0
0, 0
0, 0
0, 1
0, 1
1, 0
0, 0
0, 1
0, 0
1, 2
0, 0
0, 0
0, 2
0, 1
0, 0
0, 1
0, 0
1, 0
1, 0
0, 0
1, 0
0, 2
1, 2
0, 0
0, 0
0, 0
0, 0
1, 0
0, 0
1, 0
0, 1
0, 0
0, 1
0, 2
0, 0
0, 0
0, 1
1, 0
0, 0
0, 0
2, 1
1, 0
0, 0
2, 0
1, 0
0, 0
1, 0
1, 0
0, 0
0, 0
0, 0
0, 0
0, 0
0, 1
0, 0
1, 1
0, 0
0, 0
0, 0
0, 0
1, 0
0, 0
0, 0
0, 0
0, 1
0, 0
0, 1
0, 0
1, 0
0, 0
2, 0
2, 0
1, 0
0, 0
0, 0
0, 0
1, 1
0, 0
0, 2
0, 0
0, 0
0, 0
0, 3
0, 0
0, 0
1, 1
1, 0
0, 0
0, 0
0, 0
0, 0
0, 1
1, 0
0, 0
0, 0
0, 1
0, 0
0, 0
0, 0
0, 0
0, 1
0, 1
0, 1
0, 0
2, 0
0, 0
0, 0
0, 1
0, 0
1, 1
1, 0
0, 0
0, 1
0, 0
0, 1
0, 1
1, 0
0, 0
1, 0
0, 0
0, 0
0, 0
0, 0
1, 0
0, 0
0, 0
0, 0
0, 0
0, 1
0, 0
0, 1
0, 0
0, 0
0, 1
0, 0
0, 1
0, 0
0, 0
0, 0
0, 0
0, 0
1, 0
0, 0
0, 0
0, 0
0, 0
0, 0
0, 0
0, 0
0, 0
0, 0
0, 0
0, 0
0, 0
0, 0
0, 0
0, 0
0, 0
1, 0
0, 0
0, 0
0, 0
0, 0
0, 0
0, 0
0, 1
0, 0
0, 0
0, 0
0, 1
0, 0
1, 0
0, 0
0, 0
0, 0
1, 1
1, 0
0, 0
0, 0
0, 0
0, 0
0, 1
0, 0
0, 1
0, 0
0, 0
0, 0
0, 0
0, 0
0, 0
0, 0
0, 0
0, 0
0, 0
0, 0
0, 0
0, 0
1, 0
0, 0
0, 0
0, 0
0, 1
0, 0
0, 0
0, 0
0, 0
1, 0
1, 1
0, 1
0, 0
0, 0
0, 0
0, 0
0, 0
0, 0
0, 1
0, 0
0, 0
0, 0
0, 0
0, 0
0, 0
0, 0
0, 0
0, 0
0, 0
0, 0
0, 0
0, 0
0, 0
0, 0
1, 0
0, 0
0, 0
0, 0
0, 0
0, 0
0, 0
0, 0
0, 0
0, 0
0, 0
0, 0
0, 0
0, 0
0, 0
0, 0
0, 0
0, 0
0, 0
0, 0
0, 0
0, 0
0, 0
0, 0
1, 0
0, 0
0, 0
0, 0
0, 0
0, 0
0, 0
0, 0
0, 1
0, 0
0, 0
0, 0
0, 0
0, 0
0, 0
0, 0
0, 1
0, 0
0, 0
0, 0
0, 0
0, 0
0, 0
0, 0
0, 0
0, 0
0, 0
0, 0
0, 0
0, 0
0, 0
0, 0
0, 1
0, 0
0, 0
0, 0
0, 0
0, 0
0, 0
0, 0
0, 0
0, 0
0, 0
0, 0
0, 0
0, 0
0, 0
0, 0
0, 0
0, 0
0, 0
0, 0
0, 0
0, 0
0, 0
0, 0
0, 0
0, 0
0, 0
0, 0
0, 0
0, 0
0, 0
0, 0
0, 0
0, 0
0, 0
0, 0
0, 0
0, 0
0, 0
0, 0
0, 0
0, 0
0, 0
0, 0
0, 0
0, 0
0, 0
0, 0
0, 0
0, 0
0, 0
0, 0
0, 0
0, 0
0, 0
0, 0
0, 0
0, 0
0, 0
0, 0
0, 0
0, 0
0, 0
0, 0
0, 0
0, 0
0, 0
0, 0
0, 0
0, 0
0, 0
0, 0
0, 0
0, 0
0, 0
0, 0
0, 0
0, 0
0, 0
0, 0
0, 0
0, 0
0, 0
0, 0
0, 0
0, 0
0, 0
0, 0
0, 0
0, 0
0, 0
0, 0
0, 0
0, 0
0, 0
0, 0
0, 0
0, 0
0, 0
0, 0
0, 0
0, 0
0, 0
0, 0
0, 0
0, 0
0, 0
0, 0
0, 0
0, 0
0, 0
0, 0
0, 0
0, 0
0, 0
0, 0
0, 0
0, 0
0, 0
0, 0
0, 0
0, 0
0, 0
0, 0
0, 0
0, 0
0, 0
0, 0
0, 0
0, 0
0, 0
0, 0
0, 0
0, 0
0, 0
0, 0
0, 0
0, 0
0, 0
0, 0
0, 0
0, 0
0, 0
0, 0
0, 0
0, 0
0, 0
0, 0
0, 0
0, 0
0, 0
0, 0
0, 0
0, 0
0, 0
0, 0
0, 0
0, 0
0, 0
0, 0
0, 0
0, 0
0, 0
0, 0
0, 0
0, 0
0, 0
0, 0
0, 0
0, 0
0, 0
0, 0
0, 0
0, 0
0, 0
0, 0
0, 0
0, 0
0, 0
0, 0
0, 0
0, 0
0, 0
0, 0
0, 0
0, 0
0, 0
0, 0
0, 0
0, 0
0, 0
0, 0
0, 0
0, 0
0, 0
0, 0
0, 0
0, 0
0, 0
0, 0
0, 0
0, 0
0, 0
0, 0
0, 0
0, 0
0, 0
0, 0
0, 0
0, 0
0, 0
0, 0
0, 0
0, 0
0, 0
0, 0
0, 0
0, 0
0, 0
0, 0
0, 0
0, 0
0, 0
0, 0
0, 0
0, 0
0, 0
0, 0
0, 0
0, 0
0, 0
0, 0
0, 0
0, 0
0, 0
0, 0
0, 0
0, 0
0, 0
0, 0
0, 0
0, 0
0, 0
0, 0
0, 0
0, 0
0, 0
0, 0
0, 0
0, 0
0, 0
0, 0
0, 0
0, 0
0, 0
0, 0
0, 0
0, 0
0, 0
0, 0
0, 0
0, 0
0, 0
0, 0
0, 0
0, 0
0, 0
0, 0
0, 0
0, 0
0, 0
0, 0
0, 0
0, 0
0, 0
0, 0
0, 0
0, 0
0, 0
0, 0
0, 0
0, 0
0, 0
0, 0
0, 0
0, 0
0, 0
0, 0
0, 0
0, 0
0, 0
0, 0
0, 0
0, 0
0, 0
0, 0
0, 0
0, 0
0, 0
0, 0
0, 0
0, 0
0, 0
0, 0
0, 0
0, 0
0, 0
0, 0
0, 0
0, 0
0, 0
0, 0
0, 0
0, 0
0, 0
0, 0
0, 0
0, 0
0, 0
0, 0
0, 0
0, 0
0, 0
0, 0
0, 0
0, 0
0, 0
0, 0
0, 0
0, 0
0, 0
0, 0
0, 0
0, 0
0, 0
0, 0
0, 0
0, 0
0, 0
0, 0
0, 0
0, 0
0, 0
0, 0
0, 0
0, 0
0, 0
0, 0
0, 0
0, 0
0, 0
0, 0
0, 0
0, 0
0, 0
0, 0
0, 0
0, 0
0, 0
0, 0
0, 0
0, 0
0, 0
0, 0
0, 0
0, 0
0, 0
0, 0
0, 0
0, 0
0, 0
0, 0
0, 0
0, 0
0, 0
0, 0
0, 0
0, 0
0, 0
0, 0
0, 0
0, 0
0, 0
0, 0
0, 0
0, 0
0, 0
0, 0
0, 0
0, 0
0, 0
0, 0
0, 0
0, 0
0, 0
0, 0
0, 0
0, 0
0, 0
0, 0
0, 0
0, 0
0, 0
0, 0
0, 0
0, 0
#ENDOFDATA     end of spectrum data