File: host_upload/02-11-2024/rqc/uplink1/ps__0567_0717304816_000rfs_shot_237.msa
#FORMAT      : EMSA/MAS spectral data file
#VERSION     : TC202v2.0 PIXL
#TITLE       : Novarupta (sol567) subset1
#DATE        : 02-11-2024      Date in the format DD-MMM-YYYY, for example 07-JUL-2010
#TIME        :             The time of day at which the spectrum was recorded, in 24-hour format
#OWNER       : PIXL Flight Model       (PIXL will use this to indicate which instrument took the data.)
#NPOINTS     : 4096     Number of data points in the spectrum (This can be zero for configuration only files)
#NCOLUMNS    : 2     Number of data columns in the spectrum (This can be zero for configuration only files)
#XUNITS      : eV
#YUNITS      : COUNTS
#DATATYPE    : YY
#XPERCHAN    : 7.862, 7.881   eV per channel (separate by commas if more than one detector)
#OFFSET      : 18.5, -22.4         eV of first channel  (separate by commas if more than one detector
#SIGNALTYPE  : XRF
#YP_TEMP     : 1.049
#LIVETIME    : 8.82362, 8.81818   seconds (separate by commas if more than one detector)
#REALTIME    : 10, 10.0   seconds (separate by commas if more than one detector)
#SPECTRUM    : start of spectrum data
0, 0
0, 0
0, 0
0, 0
0, 0
0, 0
0, 0
0, 0
0, 0
0, 0
0, 0
0, 0
0, 0
0, 0
0, 0
0, 0
0, 0
0, 0
0, 0
0, 0
0, 0
0, 0
0, 0
0, 0
0, 0
0, 0
0, 0
0, 0
0, 0
0, 0
0, 0
0, 0
2, 0
0, 1
3, 1
2, 1
2, 0
0, 3
1, 7
3, 4
5, 2
2, 4
3, 5
5, 1
2, 4
2, 3
3, 3
1, 2
7, 4
2, 4
3, 2
7, 9
15, 14
11, 8
13, 19
13, 10
12, 14
15, 11
12, 10
9, 14
16, 9
32, 34
34, 51
43, 45
55, 46
41, 46
36, 42
30, 40
26, 24
44, 48
125, 125
178, 229
311, 320
382, 445
462, 497
517, 477
398, 443
316, 314
207, 197
141, 153
78, 71
51, 49
29, 37
23, 23
35, 31
27, 25
26, 31
38, 23
32, 31
16, 18
16, 24
26, 12
24, 31
39, 59
75, 78
126, 136
185, 217
233, 307
287, 322
318, 302
277, 270
206, 180
165, 155
110, 118
80, 67
58, 58
56, 61
52, 68
85, 105
122, 148
159, 175
204, 218
214, 200
216, 182
217, 194
156, 162
112, 149
82, 115
93, 86
79, 90
81, 70
67, 64
56, 58
53, 70
48, 50
46, 33
30, 37
20, 27
20, 16
14, 12
13, 8
8, 10
9, 7
7, 4
7, 8
7, 5
9, 6
13, 16
16, 20
26, 25
32, 29
35, 38
23, 24
36, 20
18, 23
14, 18
10, 19
7, 10
13, 15
12, 21
18, 24
50, 54
80, 99
118, 150
213, 258
275, 292
340, 345
352, 368
351, 359
263, 297
210, 217
175, 170
107, 93
57, 63
25, 28
20, 30
32, 29
35, 32
34, 66
43, 63
50, 55
50, 63
49, 59
35, 44
34, 32
26, 26
21, 19
12, 16
9, 13
13, 7
9, 12
9, 7
9, 9
9, 14
10, 11
15, 18
22, 21
22, 30
30, 24
57, 40
48, 62
60, 66
67, 77
54, 64
60, 53
45, 35
33, 38
21, 34
21, 23
13, 18
12, 22
25, 16
11, 17
11, 12
20, 8
9, 14
14, 15
14, 21
23, 26
11, 19
17, 27
19, 23
9, 24
12, 17
18, 15
12, 10
10, 16
14, 9
8, 6
8, 15
7, 16
14, 12
15, 10
18, 9
9, 18
16, 17
22, 19
20, 29
20, 33
32, 29
25, 25
34, 36
30, 29
28, 21
27, 16
20, 19
13, 15
21, 11
8, 11
10, 13
15, 15
14, 13
17, 11
14, 18
16, 16
17, 16
22, 19
40, 28
32, 46
47, 55
49, 59
56, 46
40, 62
40, 35
38, 45
27, 16
27, 31
21, 19
19, 17
16, 18
15, 21
27, 25
54, 53
58, 82
115, 137
243, 265
376, 459
620, 781
946, 1141
1183, 1391
1491, 1767
1702, 1946
1796, 1877
1682, 1729
1422, 1444
1212, 1074
867, 810
605, 524
377, 292
233, 181
133, 100
73, 51
30, 28
14, 26
23, 19
15, 13
24, 17
17, 18
22, 19
27, 18
21, 28
27, 51
39, 39
59, 69
80, 100
127, 154
193, 179
212, 238
243, 247
289, 318
272, 296
247, 258
205, 180
177, 156
115, 109
106, 73
54, 42
40, 41
19, 18
12, 14
8, 16
9, 9
7, 16
8, 9
10, 12
8, 10
7, 14
15, 19
9, 13
12, 12
10, 10
5, 10
4, 7
16, 8
1, 8
10, 9
10, 4
10, 7
8, 6
10, 5
1, 6
1, 3
10, 9
6, 3
8, 5
5, 6
8, 2
6, 12
4, 8
3, 6
5, 10
2, 10
4, 4
5, 9
13, 10
6, 10
7, 1
8, 7
4, 3
6, 3
3, 7
6, 8
10, 8
3, 9
6, 8
5, 7
7, 4
4, 5
4, 9
6, 3
5, 8
14, 9
4, 7
7, 12
12, 8
14, 18
10, 12
16, 15
16, 9
7, 12
9, 9
6, 12
7, 6
10, 8
8, 9
6, 4
3, 4
6, 5
11, 11
3, 6
3, 7
11, 10
6, 6
3, 5
9, 3
4, 4
6, 8
4, 3
3, 5
6, 3
8, 6
3, 3
10, 11
5, 6
5, 3
6, 4
3, 3
6, 6
9, 7
2, 5
7, 3
3, 5
4, 9
2, 5
8, 3
7, 8
6, 7
6, 7
3, 2
12, 3
9, 5
6, 4
4, 4
6, 4
2, 4
2, 4
4, 9
2, 1
6, 2
0, 3
5, 2
1, 5
7, 6
3, 2
3, 6
4, 3
3, 4
5, 4
10, 4
5, 4
3, 4
6, 2
2, 5
4, 6
4, 7
6, 4
4, 4
2, 1
9, 6
7, 5
3, 1
3, 2
2, 2
3, 5
2, 4
5, 0
5, 1
3, 1
4, 2
3, 4
0, 3
1, 3
2, 9
5, 2
6, 3
3, 2
6, 7
6, 1
2, 1
1, 3
5, 4
2, 2
3, 4
3, 4
3, 6
2, 3
1, 7
1, 5
2, 2
4, 2
1, 4
1, 2
6, 2
2, 1
4, 0
2, 2
3, 3
2, 2
2, 3
3, 6
1, 1
1, 6
3, 1
1, 0
4, 4
1, 3
3, 2
3, 1
2, 1
4, 5
3, 1
1, 1
2, 2
3, 5
3, 4
3, 1
3, 3
3, 4
1, 3
2, 3
3, 1
2, 2
5, 3
3, 3
1, 1
2, 2
1, 2
3, 2
2, 4
3, 2
4, 3
2, 2
2, 5
2, 0
3, 4
3, 1
2, 3
2, 2
1, 2
2, 1
1, 3
2, 2
2, 1
1, 1
1, 1
2, 3
1, 2
4, 1
3, 1
1, 3
4, 1
3, 1
3, 3
1, 1
1, 1
1, 1
6, 1
3, 4
1, 2
2, 7
0, 4
3, 1
3, 2
2, 4
3, 2
3, 3
2, 2
4, 2
0, 1
4, 1
8, 1
2, 0
3, 1
1, 4
3, 0
0, 2
4, 1
1, 0
2, 4
2, 1
0, 3
2, 2
2, 4
1, 4
2, 1
2, 6
3, 2
2, 0
1, 1
3, 1
2, 1
3, 6
5, 1
0, 1
1, 1
1, 1
0, 0
1, 2
1, 1
3, 0
1, 0
2, 2
1, 2
2, 3
0, 2
1, 0
1, 2
1, 2
0, 2
0, 1
0, 1
2, 2
1, 1
3, 1
0, 0
2, 0
0, 1
0, 2
1, 1
0, 2
2, 0
0, 0
1, 1
0, 0
2, 1
0, 1
1, 0
1, 2
1, 2
2, 0
1, 2
1, 0
2, 1
2, 1
0, 0
2, 0
0, 0
0, 0
4, 1
2, 2
2, 0
1, 0
2, 3
1, 0
0, 1
2, 0
0, 1
1, 0
0, 0
1, 1
1, 0
1, 0
0, 0
0, 0
1, 0
2, 1
3, 0
1, 0
2, 2
2, 0
0, 0
1, 0
2, 0
1, 0
1, 0
0, 1
0, 1
1, 0
0, 0
0, 0
0, 0
0, 0
1, 1
0, 4
0, 0
2, 1
0, 0
1, 0
0, 1
1, 1
0, 1
1, 0
0, 2
1, 0
1, 1
0, 2
1, 0
0, 0
0, 0
0, 0
1, 0
0, 0
0, 0
0, 0
1, 1
0, 0
1, 1
2, 1
1, 0
0, 0
0, 0
0, 0
0, 0
0, 0
0, 0
1, 1
0, 1
0, 1
1, 0
0, 0
0, 1
0, 1
0, 1
0, 1
0, 0
0, 0
0, 0
1, 0
0, 0
0, 0
2, 0
0, 0
0, 1
0, 0
0, 0
1, 0
1, 0
0, 0
0, 0
0, 1
0, 0
1, 0
0, 0
0, 0
0, 2
0, 2
0, 0
0, 0
0, 0
0, 0
0, 0
0, 0
0, 2
0, 0
1, 0
2, 0
0, 0
0, 1
0, 0
0, 0
0, 0
1, 2
0, 1
0, 0
0, 1
0, 0
0, 0
1, 2
0, 0
1, 0
0, 0
0, 0
0, 0
0, 0
1, 0
0, 0
0, 0
1, 0
1, 0
0, 0
0, 0
0, 0
0, 0
0, 0
1, 0
0, 0
0, 0
0, 0
1, 0
0, 0
2, 1
0, 0
0, 0
0, 0
1, 0
0, 0
0, 0
0, 0
2, 0
1, 0
0, 1
1, 0
0, 0
0, 0
0, 0
0, 1
0, 1
0, 0
1, 0
0, 1
0, 0
0, 0
0, 1
0, 1
0, 0
1, 0
0, 0
0, 0
0, 1
1, 0
0, 0
0, 0
0, 0
0, 1
0, 0
0, 1
0, 0
1, 0
0, 0
0, 0
0, 1
0, 1
0, 0
0, 2
0, 0
0, 1
0, 0
1, 0
0, 0
1, 1
1, 0
0, 0
1, 0
0, 0
0, 0
0, 0
0, 1
0, 0
0, 0
0, 0
0, 0
0, 0
0, 1
0, 0
0, 0
0, 0
0, 1
0, 0
0, 0
0, 1
0, 0
0, 0
1, 0
0, 0
0, 0
0, 0
0, 0
0, 0
0, 0
0, 0
0, 0
0, 0
0, 0
0, 0
0, 1
0, 0
0, 0
0, 0
0, 0
1, 0
0, 0
1, 0
0, 0
0, 1
0, 0
0, 0
0, 0
0, 0
0, 0
0, 0
0, 1
0, 0
0, 0
0, 0
0, 0
0, 0
1, 0
0, 0
0, 0
0, 0
0, 0
0, 0
0, 0
0, 0
1, 0
0, 0
0, 0
0, 0
0, 0
0, 0
0, 0
0, 0
0, 0
0, 0
0, 0
0, 0
0, 0
0, 1
0, 0
0, 0
0, 0
0, 0
0, 0
0, 0
0, 0
0, 0
0, 0
0, 0
0, 0
0, 0
0, 0
0, 0
0, 0
0, 0
0, 0
0, 1
0, 0
0, 0
0, 0
0, 0
0, 0
0, 0
0, 0
0, 0
0, 0
0, 0
0, 0
0, 0
0, 0
0, 0
0, 0
0, 0
0, 0
0, 0
0, 0
0, 0
1, 0
0, 0
0, 0
0, 0
0, 0
0, 0
0, 0
0, 0
0, 0
0, 0
0, 0
0, 0
0, 0
0, 0
0, 0
0, 0
0, 0
0, 0
0, 0
0, 0
0, 0
0, 0
0, 0
0, 0
0, 0
0, 0
0, 0
0, 0
0, 0
0, 0
0, 0
0, 0
0, 0
0, 0
0, 0
0, 0
0, 0
0, 0
0, 0
0, 0
0, 0
0, 0
0, 0
0, 0
0, 0
0, 0
0, 0
0, 0
0, 0
0, 0
0, 0
0, 0
0, 0
0, 0
0, 0
0, 0
0, 0
0, 0
0, 0
0, 0
0, 0
0, 0
0, 0
0, 0
0, 0
0, 0
0, 0
0, 0
0, 0
0, 0
0, 0
0, 0
0, 0
0, 0
0, 0
0, 0
0, 0
0, 0
0, 0
0, 0
0, 0
0, 0
0, 0
0, 0
0, 0
0, 0
0, 0
0, 0
0, 0
0, 0
0, 0
0, 0
0, 0
0, 0
0, 0
0, 0
0, 0
0, 0
0, 0
0, 0
0, 0
0, 0
0, 0
0, 0
0, 0
0, 0
0, 0
0, 0
0, 0
0, 0
0, 0
0, 0
0, 0
0, 0
0, 0
0, 0
0, 0
0, 0
0, 0
0, 0
0, 0
0, 0
0, 0
0, 0
0, 0
0, 0
0, 0
0, 0
0, 0
0, 0
0, 0
0, 0
0, 0
0, 0
0, 0
0, 0
0, 0
0, 0
0, 0
0, 0
0, 0
0, 0
0, 0
0, 0
0, 0
0, 0
0, 0
0, 0
0, 0
0, 0
0, 0
0, 0
0, 0
0, 0
0, 0
0, 0
0, 0
0, 0
0, 0
0, 0
0, 0
0, 0
0, 0
0, 0
0, 0
0, 0
0, 0
0, 0
0, 0
0, 0
0, 0
0, 0
0, 0
0, 0
0, 0
0, 0
0, 0
0, 0
0, 0
0, 0
0, 0
0, 0
0, 0
0, 0
0, 0
0, 0
0, 0
0, 0
0, 0
0, 0
0, 0
0, 0
0, 0
0, 0
0, 0
0, 0
0, 0
0, 0
0, 0
0, 0
0, 0
0, 0
0, 0
0, 0
0, 0
0, 0
0, 0
0, 0
0, 0
0, 0
0, 0
0, 0
1, 0
0, 0
0, 0
0, 0
0, 0
0, 0
0, 0
0, 0
0, 0
0, 0
0, 0
0, 0
0, 0
0, 0
0, 0
0, 0
0, 0
0, 0
0, 0
0, 0
0, 0
0, 0
0, 0
0, 0
0, 0
0, 0
0, 0
0, 0
0, 0
0, 0
0, 0
0, 0
0, 0
0, 0
0, 0
0, 0
0, 0
0, 0
0, 0
0, 0
0, 0
0, 0
0, 0
0, 0
0, 0
0, 0
0, 0
0, 0
0, 0
0, 0
0, 0
0, 0
0, 0
0, 0
0, 0
0, 0
0, 0
0, 0
0, 0
0, 0
0, 0
0, 0
0, 0
0, 0
0, 0
0, 0
0, 0
0, 0
0, 0
0, 0
0, 0
0, 0
0, 0
0, 0
0, 0
0, 0
0, 0
0, 0
0, 0
0, 0
0, 0
0, 0
0, 0
0, 0
0, 0
0, 0
0, 0
0, 0
0, 0
0, 0
0, 0
0, 0
0, 0
0, 0
0, 0
0, 0
0, 0
0, 0
0, 0
0, 0
0, 0
0, 0
0, 0
0, 0
0, 0
0, 0
0, 0
0, 0
0, 0
0, 0
0, 0
0, 0
0, 0
0, 0
0, 0
0, 0
0, 0
0, 0
0, 0
0, 0
0, 0
0, 0
0, 0
0, 0
0, 0
0, 0
0, 0
0, 0
0, 0
0, 0
0, 0
0, 0
0, 0
0, 0
0, 0
0, 0
0, 0
0, 0
0, 0
0, 0
0, 0
0, 0
0, 0
0, 0
0, 0
0, 0
0, 0
0, 0
0, 0
0, 0
0, 0
0, 0
0, 0
0, 0
0, 0
0, 0
0, 0
0, 0
0, 0
0, 0
0, 0
0, 0
0, 0
0, 0
0, 0
0, 0
0, 0
0, 0
0, 0
0, 0
0, 0
0, 0
0, 0
0, 0
0, 0
0, 0
0, 0
0, 0
0, 0
0, 0
0, 0
0, 0
0, 0
0, 0
0, 0
0, 0
0, 0
0, 0
0, 0
0, 0
0, 0
0, 0
0, 0
0, 0
0, 0
0, 0
0, 0
0, 0
0, 0
0, 0
0, 0
0, 0
0, 0
0, 0
0, 0
0, 0
0, 0
0, 0
0, 0
0, 0
0, 0
0, 0
0, 0
0, 0
0, 0
0, 0
0, 0
0, 0
0, 0
0, 0
0, 0
0, 0
0, 0
0, 0
0, 0
0, 0
0, 0
0, 0
#ENDOFDATA     end of spectrum data