File: host_upload/02-11-2024/rqc/uplink1/ps__0567_0717304816_000rfs_shot_465.msa
#FORMAT      : EMSA/MAS spectral data file
#VERSION     : TC202v2.0 PIXL
#TITLE       : Novarupta (sol567) subset1
#DATE        : 02-11-2024      Date in the format DD-MMM-YYYY, for example 07-JUL-2010
#TIME        :             The time of day at which the spectrum was recorded, in 24-hour format
#OWNER       : PIXL Flight Model       (PIXL will use this to indicate which instrument took the data.)
#NPOINTS     : 4096     Number of data points in the spectrum (This can be zero for configuration only files)
#NCOLUMNS    : 2     Number of data columns in the spectrum (This can be zero for configuration only files)
#XUNITS      : eV
#YUNITS      : COUNTS
#DATATYPE    : YY
#XPERCHAN    : 7.862, 7.881   eV per channel (separate by commas if more than one detector)
#OFFSET      : 18.5, -22.4         eV of first channel  (separate by commas if more than one detector
#SIGNALTYPE  : XRF
#YP_TEMP     : 2.043
#LIVETIME    : 8.83235, 8.82095   seconds (separate by commas if more than one detector)
#REALTIME    : 10, 10.0   seconds (separate by commas if more than one detector)
#SPECTRUM    : start of spectrum data
0, 0
0, 0
0, 0
0, 0
0, 0
0, 0
0, 0
0, 0
0, 0
0, 0
0, 0
0, 0
0, 0
0, 0
0, 0
0, 0
0, 0
0, 0
0, 0
0, 0
0, 0
0, 0
0, 0
0, 0
0, 0
0, 0
0, 0
0, 0
0, 0
0, 0
0, 0
0, 0
2, 1
0, 0
2, 1
3, 2
0, 1
3, 1
7, 3
1, 5
2, 4
3, 4
0, 4
0, 5
2, 2
2, 4
3, 9
3, 1
2, 5
3, 2
3, 4
8, 10
12, 7
10, 24
9, 11
18, 12
5, 19
17, 9
5, 11
16, 13
17, 21
27, 25
31, 34
46, 40
46, 49
36, 64
34, 39
36, 37
37, 37
44, 64
112, 129
167, 208
297, 350
362, 470
454, 535
461, 562
408, 448
328, 356
239, 241
160, 132
79, 82
43, 53
22, 36
23, 25
24, 31
34, 35
41, 38
39, 30
23, 29
17, 26
13, 13
18, 18
21, 22
54, 33
59, 95
130, 142
203, 207
255, 257
275, 307
311, 298
228, 316
187, 209
158, 157
82, 100
46, 58
58, 43
47, 59
61, 62
96, 88
117, 128
168, 185
208, 235
228, 272
219, 234
163, 196
149, 157
127, 130
113, 113
99, 101
84, 87
66, 89
68, 64
69, 82
53, 58
39, 47
42, 38
26, 34
19, 14
15, 17
15, 19
18, 10
5, 7
3, 12
6, 6
6, 4
7, 11
13, 6
5, 18
24, 16
21, 20
25, 32
24, 37
27, 29
19, 31
20, 22
14, 16
13, 18
13, 10
10, 23
15, 18
18, 41
48, 59
83, 94
142, 183
186, 238
244, 299
345, 400
324, 381
321, 379
267, 326
215, 255
154, 155
103, 104
63, 64
44, 30
26, 26
22, 31
29, 36
41, 39
46, 56
50, 52
65, 71
46, 56
49, 53
47, 40
19, 26
10, 22
17, 15
10, 8
11, 8
5, 12
12, 6
8, 7
10, 11
10, 10
6, 17
20, 14
23, 27
37, 33
41, 45
59, 60
58, 55
53, 66
69, 67
56, 56
42, 36
34, 35
22, 33
15, 21
18, 15
16, 14
11, 17
12, 15
12, 16
17, 11
13, 11
15, 17
15, 20
17, 14
15, 17
15, 20
21, 16
22, 21
15, 28
11, 14
15, 9
10, 13
14, 13
8, 14
9, 15
14, 12
6, 14
9, 10
9, 17
15, 21
15, 19
12, 23
20, 32
27, 17
34, 32
28, 33
32, 28
32, 31
27, 29
22, 21
18, 10
12, 13
19, 14
15, 15
15, 17
12, 17
6, 11
9, 17
13, 10
14, 13
16, 16
23, 34
26, 42
38, 56
37, 55
43, 65
50, 67
44, 53
43, 46
38, 31
24, 29
21, 27
18, 27
23, 15
19, 15
18, 27
16, 31
36, 43
54, 69
114, 159
192, 272
317, 496
550, 704
807, 996
1015, 1350
1429, 1655
1580, 1913
1654, 1983
1609, 1824
1410, 1455
1188, 1179
811, 858
549, 569
363, 320
212, 187
131, 111
63, 58
41, 30
23, 27
18, 23
18, 20
13, 19
18, 13
16, 17
20, 28
21, 24
22, 37
45, 66
56, 68
69, 74
104, 139
151, 189
163, 228
238, 246
265, 301
246, 294
210, 270
217, 218
175, 172
107, 125
94, 82
61, 63
46, 31
28, 11
18, 19
9, 6
10, 7
7, 9
4, 12
13, 11
6, 5
9, 16
11, 8
11, 12
10, 11
8, 11
10, 14
11, 6
9, 10
5, 6
8, 8
14, 6
2, 6
4, 6
5, 9
7, 6
3, 8
0, 4
6, 10
3, 6
6, 9
2, 5
8, 6
6, 5
11, 4
6, 3
5, 8
6, 4
3, 7
9, 3
10, 9
7, 9
4, 8
7, 12
8, 4
10, 8
5, 8
8, 8
4, 10
10, 11
10, 7
6, 8
3, 7
7, 7
13, 9
9, 4
6, 14
8, 10
5, 10
14, 10
8, 14
12, 11
11, 6
12, 9
9, 9
8, 7
7, 7
4, 8
11, 5
5, 8
10, 12
3, 9
4, 9
10, 4
6, 7
9, 5
8, 9
1, 6
4, 5
3, 8
5, 3
5, 3
7, 7
2, 7
9, 4
4, 6
8, 5
11, 4
5, 6
9, 1
7, 7
7, 3
6, 3
5, 6
10, 3
8, 2
8, 7
5, 4
5, 4
6, 3
0, 5
6, 6
5, 5
8, 8
5, 4
6, 6
4, 4
2, 10
7, 4
1, 5
7, 4
3, 3
7, 1
4, 1
1, 5
7, 5
4, 5
1, 4
7, 3
6, 3
4, 5
5, 1
2, 5
4, 3
6, 5
4, 1
3, 4
3, 5
2, 4
3, 6
9, 4
3, 4
4, 4
4, 6
2, 2
4, 3
8, 2
4, 5
7, 7
5, 4
3, 2
6, 5
6, 3
1, 6
5, 3
4, 6
3, 4
4, 6
2, 5
2, 2
3, 3
6, 3
3, 3
5, 3
2, 4
2, 1
4, 4
1, 6
1, 3
5, 2
2, 1
1, 4
0, 5
7, 5
3, 1
4, 3
2, 1
5, 4
7, 3
5, 0
5, 4
2, 2
3, 1
1, 4
4, 2
3, 3
3, 3
3, 4
1, 1
1, 2
5, 0
2, 3
1, 2
1, 3
3, 1
2, 5
0, 3
1, 2
4, 2
1, 6
2, 2
1, 1
4, 1
1, 4
2, 1
4, 2
2, 6
2, 6
4, 2
1, 0
0, 0
5, 4
2, 4
5, 4
2, 3
0, 4
2, 2
1, 6
2, 1
3, 2
5, 2
7, 3
2, 2
4, 2
4, 2
0, 2
2, 3
1, 1
3, 3
1, 0
1, 0
4, 1
1, 0
3, 4
2, 2
0, 0
2, 2
1, 1
3, 1
1, 1
4, 6
1, 4
2, 4
2, 2
2, 2
7, 3
1, 4
2, 6
4, 3
2, 3
0, 1
3, 1
1, 5
3, 2
0, 2
0, 0
1, 3
3, 2
0, 2
0, 1
2, 0
0, 3
1, 2
0, 1
1, 3
2, 0
1, 2
0, 0
0, 1
0, 2
1, 0
2, 2
0, 0
1, 3
1, 2
5, 2
2, 2
0, 1
1, 2
6, 0
1, 1
3, 3
1, 2
2, 1
2, 0
2, 1
1, 2
1, 0
0, 2
2, 1
0, 0
3, 1
1, 3
0, 0
2, 4
1, 1
2, 2
1, 1
1, 1
1, 1
1, 2
1, 0
2, 1
1, 0
0, 0
0, 2
0, 1
0, 1
2, 2
0, 2
1, 1
0, 1
1, 1
1, 2
0, 1
1, 0
0, 4
1, 1
1, 1
0, 2
1, 0
0, 1
1, 0
3, 2
1, 1
0, 1
1, 0
1, 1
2, 1
1, 2
0, 0
0, 1
0, 1
0, 0
0, 1
1, 0
0, 1
0, 1
1, 0
1, 1
0, 2
2, 0
1, 1
1, 0
1, 2
2, 0
1, 0
0, 1
1, 1
0, 1
1, 0
0, 1
1, 1
0, 1
1, 0
1, 1
1, 1
1, 1
1, 2
0, 0
2, 1
0, 0
1, 0
1, 1
1, 0
1, 1
1, 2
1, 0
1, 0
1, 1
0, 1
0, 0
0, 3
1, 0
0, 0
0, 0
2, 0
0, 0
0, 0
0, 0
0, 1
2, 0
0, 0
2, 1
0, 0
0, 0
0, 0
0, 1
0, 0
0, 0
0, 0
0, 0
0, 0
2, 1
0, 0
0, 1
0, 0
0, 0
0, 0
1, 1
0, 0
1, 1
1, 1
1, 0
1, 1
1, 2
0, 1
0, 1
0, 0
0, 0
0, 0
1, 0
0, 0
1, 0
0, 2
0, 0
1, 0
1, 0
0, 0
0, 1
0, 3
0, 0
2, 1
0, 0
0, 1
0, 0
1, 3
1, 0
2, 1
0, 0
0, 0
0, 1
1, 0
0, 2
0, 0
0, 2
0, 2
0, 1
1, 1
0, 0
0, 0
0, 0
0, 0
0, 0
0, 0
0, 1
1, 0
0, 0
0, 0
1, 0
0, 0
0, 0
0, 0
1, 0
0, 0
0, 0
1, 0
0, 0
0, 1
0, 0
0, 0
0, 0
1, 0
1, 1
0, 0
0, 0
0, 0
0, 0
0, 0
0, 0
0, 1
0, 0
2, 0
0, 0
0, 1
1, 1
0, 1
0, 0
1, 2
0, 0
0, 0
1, 0
1, 0
1, 1
0, 1
0, 0
1, 0
0, 1
0, 0
0, 1
0, 0
0, 0
0, 0
0, 0
0, 0
1, 0
0, 2
0, 0
0, 0
0, 1
0, 0
1, 0
0, 1
0, 0
0, 1
2, 1
0, 0
0, 0
0, 1
0, 1
0, 1
0, 1
0, 1
0, 0
0, 0
0, 0
0, 0
0, 0
0, 0
0, 0
0, 0
0, 0
0, 1
0, 0
0, 0
2, 0
0, 0
1, 0
1, 0
0, 0
0, 0
0, 0
0, 0
0, 0
0, 0
0, 0
0, 0
0, 0
0, 0
0, 0
0, 0
0, 0
0, 0
0, 0
0, 0
0, 0
0, 0
0, 0
0, 0
1, 0
0, 0
0, 0
0, 0
0, 0
0, 0
0, 0
0, 0
0, 0
0, 0
0, 0
0, 0
0, 0
0, 0
0, 1
0, 1
0, 0
0, 0
0, 0
0, 0
0, 0
0, 0
0, 0
0, 0
0, 0
0, 0
0, 0
0, 0
0, 0
0, 0
0, 0
0, 0
0, 0
0, 0
1, 0
0, 0
0, 0
0, 0
0, 0
0, 0
0, 0
0, 1
0, 0
0, 0
0, 0
0, 0
0, 1
0, 0
0, 0
0, 0
0, 0
0, 0
0, 0
0, 0
0, 0
0, 0
0, 0
0, 0
0, 0
1, 0
0, 0
0, 0
0, 0
0, 0
0, 0
0, 0
0, 0
0, 0
0, 0
0, 0
0, 0
0, 0
0, 0
0, 0
0, 0
0, 0
0, 0
0, 0
0, 0
0, 0
0, 0
0, 0
1, 0
0, 0
0, 0
0, 0
0, 0
0, 0
0, 0
0, 0
0, 0
0, 0
0, 0
0, 0
0, 0
0, 0
0, 0
0, 0
0, 0
0, 0
0, 0
0, 0
0, 0
0, 0
0, 1
0, 0
0, 0
0, 0
0, 0
0, 0
0, 0
0, 0
0, 0
0, 0
0, 0
0, 0
0, 0
0, 0
0, 0
0, 0
0, 0
0, 0
0, 0
0, 0
0, 0
0, 1
0, 0
0, 0
0, 0
0, 0
0, 0
0, 0
0, 0
0, 0
0, 0
0, 0
0, 0
0, 0
0, 0
0, 0
0, 0
0, 0
0, 0
0, 0
0, 0
0, 0
0, 0
0, 0
0, 0
0, 0
0, 0
0, 0
0, 0
0, 0
0, 0
0, 0
0, 0
0, 0
0, 0
0, 0
0, 0
0, 0
0, 0
0, 0
0, 0
0, 0
0, 0
0, 0
0, 0
0, 0
0, 0
0, 0
0, 0
0, 0
0, 0
0, 0
0, 0
0, 0
0, 0
0, 0
0, 0
0, 0
0, 0
0, 0
0, 0
0, 0
0, 0
0, 0
0, 0
0, 0
0, 1
0, 0
0, 0
0, 0
0, 0
0, 0
0, 0
0, 0
0, 0
0, 0
0, 0
0, 0
0, 0
0, 0
0, 0
0, 0
0, 0
0, 0
0, 0
0, 0
0, 0
0, 0
0, 0
0, 0
0, 0
0, 0
0, 0
0, 0
0, 0
0, 0
0, 0
0, 0
0, 0
0, 0
0, 0
1, 0
0, 0
0, 0
0, 0
0, 0
0, 0
0, 0
0, 0
0, 0
0, 0
0, 0
0, 0
0, 0
0, 0
0, 0
0, 0
0, 0
0, 0
0, 0
0, 0
0, 0
0, 0
0, 0
0, 0
0, 0
0, 0
0, 0
0, 0
0, 0
0, 0
0, 0
0, 0
0, 0
0, 0
0, 0
0, 0
0, 0
0, 0
0, 0
0, 0
0, 0
0, 0
0, 0
0, 0
0, 0
0, 0
0, 0
0, 0
0, 0
0, 0
0, 0
0, 0
0, 0
0, 0
0, 0
0, 0
0, 0
0, 0
0, 0
0, 0
0, 0
0, 0
0, 0
0, 0
0, 0
0, 0
0, 0
0, 0
0, 0
0, 0
0, 0
0, 0
0, 0
0, 0
0, 0
0, 0
0, 0
0, 0
0, 0
0, 0
0, 0
0, 0
0, 0
0, 0
0, 0
0, 0
0, 0
0, 0
0, 0
0, 0
0, 0
0, 0
0, 0
0, 0
0, 0
0, 0
0, 0
0, 0
0, 0
0, 0
0, 0
0, 0
0, 0
0, 0
0, 0
0, 0
0, 0
0, 0
0, 0
0, 0
0, 0
0, 0
0, 0
0, 0
0, 0
0, 0
0, 0
0, 0
0, 0
0, 0
0, 0
0, 0
0, 0
0, 0
0, 0
0, 0
0, 0
0, 0
0, 0
0, 0
0, 0
0, 0
0, 0
0, 0
0, 0
0, 0
0, 0
0, 0
0, 0
0, 0
0, 0
0, 0
0, 0
0, 0
0, 0
0, 0
0, 0
0, 0
0, 0
0, 0
0, 0
0, 0
0, 0
0, 0
0, 0
0, 0
0, 0
0, 0
0, 0
0, 0
0, 0
0, 0
0, 0
0, 0
0, 0
0, 0
0, 0
0, 0
0, 0
0, 0
0, 0
0, 0
0, 0
0, 0
0, 0
0, 0
0, 0
0, 0
0, 0
0, 0
0, 0
0, 0
0, 0
0, 0
0, 0
0, 0
0, 0
0, 0
0, 0
0, 0
0, 0
0, 0
0, 0
0, 0
0, 0
0, 0
0, 0
0, 0
0, 0
0, 0
0, 0
0, 0
0, 0
0, 0
0, 0
0, 0
0, 0
0, 0
0, 0
0, 0
0, 0
0, 0
0, 0
0, 0
0, 0
0, 0
0, 0
0, 0
0, 0
0, 0
0, 0
0, 0
0, 0
0, 0
0, 0
0, 0
0, 0
0, 0
0, 0
0, 0
0, 0
0, 0
0, 0
0, 0
0, 0
0, 0
0, 0
0, 0
0, 0
0, 0
0, 0
0, 0
0, 0
0, 0
0, 0
0, 0
0, 0
0, 0
0, 0
0, 0
0, 0
0, 0
0, 0
0, 0
0, 0
0, 0
0, 0
0, 0
0, 0
0, 0
0, 0
0, 0
0, 0
0, 0
0, 0
0, 0
0, 0
0, 0
0, 0
0, 0
0, 0
0, 0
0, 0
0, 0
0, 0
0, 0
0, 0
0, 0
0, 0
0, 0
0, 0
0, 0
0, 0
0, 0
0, 0
0, 0
0, 0
0, 0
0, 0
0, 0
0, 0
0, 0
0, 0
0, 0
0, 0
0, 0
0, 0
#ENDOFDATA     end of spectrum data