File: host_upload/02-11-2024/rqc/uplink1/ps__0567_0717304816_000rfs_shot_240.msa
#FORMAT      : EMSA/MAS spectral data file
#VERSION     : TC202v2.0 PIXL
#TITLE       : Novarupta (sol567) subset1
#DATE        : 02-11-2024      Date in the format DD-MMM-YYYY, for example 07-JUL-2010
#TIME        :             The time of day at which the spectrum was recorded, in 24-hour format
#OWNER       : PIXL Flight Model       (PIXL will use this to indicate which instrument took the data.)
#NPOINTS     : 4096     Number of data points in the spectrum (This can be zero for configuration only files)
#NCOLUMNS    : 2     Number of data columns in the spectrum (This can be zero for configuration only files)
#XUNITS      : eV
#YUNITS      : COUNTS
#DATATYPE    : YY
#XPERCHAN    : 7.862, 7.881   eV per channel (separate by commas if more than one detector)
#OFFSET      : 18.5, -22.4         eV of first channel  (separate by commas if more than one detector
#SIGNALTYPE  : XRF
#YP_TEMP     : 1.145
#LIVETIME    : 8.8455, 8.80854   seconds (separate by commas if more than one detector)
#REALTIME    : 10, 10.0   seconds (separate by commas if more than one detector)
#SPECTRUM    : start of spectrum data
0, 0
0, 0
0, 0
0, 0
0, 0
0, 0
0, 0
0, 0
0, 0
0, 0
0, 0
0, 0
0, 0
0, 0
0, 0
0, 0
0, 0
0, 0
0, 0
0, 0
0, 0
0, 0
0, 0
0, 0
0, 0
0, 0
0, 0
0, 0
0, 0
0, 0
0, 0
0, 0
0, 0
0, 1
0, 2
1, 1
2, 2
3, 3
2, 5
3, 3
3, 4
2, 4
1, 2
4, 4
2, 5
3, 3
2, 2
2, 6
5, 4
2, 6
1, 5
5, 13
10, 7
16, 15
18, 16
12, 21
18, 9
8, 11
6, 5
13, 22
13, 18
27, 31
32, 42
34, 47
43, 50
35, 60
45, 45
35, 35
28, 43
59, 70
97, 110
169, 228
282, 364
356, 479
452, 503
467, 486
425, 436
334, 316
200, 206
126, 147
73, 101
61, 54
27, 27
22, 24
32, 37
39, 32
26, 38
19, 32
23, 26
20, 27
22, 10
16, 28
24, 28
43, 43
65, 80
137, 157
195, 204
231, 281
264, 311
289, 356
251, 263
212, 248
135, 133
120, 112
65, 55
47, 63
52, 51
73, 67
94, 96
126, 130
139, 183
182, 219
201, 224
200, 259
208, 214
152, 181
133, 119
101, 110
66, 96
72, 72
69, 79
78, 80
72, 71
51, 72
55, 59
42, 32
21, 37
25, 22
21, 11
14, 20
15, 13
11, 11
11, 3
4, 8
6, 6
8, 12
5, 11
17, 13
14, 25
21, 28
14, 34
20, 44
25, 31
25, 21
13, 19
12, 18
15, 9
9, 9
7, 17
13, 21
28, 41
56, 63
80, 105
134, 159
171, 235
252, 305
323, 405
386, 420
349, 398
293, 331
241, 231
152, 177
102, 102
64, 50
37, 29
27, 27
20, 33
33, 45
36, 48
45, 67
57, 53
49, 68
60, 66
41, 46
32, 43
29, 20
18, 21
15, 12
11, 11
8, 9
5, 7
9, 13
11, 9
6, 9
8, 9
9, 22
20, 18
25, 25
35, 39
33, 54
37, 55
53, 58
65, 74
54, 61
44, 49
47, 40
40, 40
22, 31
24, 26
21, 18
20, 19
15, 20
11, 17
12, 17
18, 14
9, 13
16, 18
13, 23
10, 20
16, 18
11, 13
25, 10
10, 20
15, 17
17, 15
7, 13
9, 7
10, 16
14, 10
8, 12
7, 13
12, 11
5, 10
13, 16
9, 20
13, 14
19, 20
18, 34
18, 35
25, 33
26, 31
28, 34
29, 32
27, 29
26, 19
17, 29
16, 7
15, 11
8, 12
6, 11
10, 15
12, 13
5, 13
12, 12
19, 18
18, 22
22, 20
27, 42
23, 43
35, 48
26, 46
43, 50
43, 52
31, 47
33, 39
31, 16
23, 20
16, 20
18, 17
17, 26
30, 23
32, 40
33, 43
61, 88
119, 154
179, 252
377, 486
510, 722
801, 1149
1188, 1485
1355, 1711
1575, 1871
1673, 1913
1598, 1759
1392, 1501
1063, 1214
841, 785
522, 542
340, 321
227, 164
101, 117
72, 53
35, 28
19, 24
23, 16
20, 19
11, 15
15, 15
19, 17
22, 17
23, 30
32, 38
47, 51
67, 80
85, 97
123, 156
170, 200
156, 250
242, 259
248, 313
263, 306
257, 276
186, 218
153, 155
131, 130
86, 84
57, 52
35, 33
13, 12
12, 11
12, 15
9, 10
10, 10
15, 11
13, 12
16, 11
14, 11
10, 18
8, 16
13, 10
7, 12
11, 7
10, 9
8, 7
4, 9
4, 7
14, 3
6, 5
7, 6
8, 5
8, 1
6, 7
8, 7
4, 8
0, 13
5, 9
5, 8
4, 8
2, 7
5, 6
9, 3
3, 3
6, 6
5, 8
4, 7
5, 2
11, 2
1, 5
5, 8
5, 7
7, 4
12, 4
3, 9
3, 5
16, 8
3, 8
7, 6
6, 8
12, 4
3, 3
8, 3
7, 6
7, 10
7, 6
11, 11
10, 10
16, 13
9, 8
13, 13
10, 10
11, 9
9, 8
6, 7
7, 8
7, 9
7, 6
7, 4
4, 4
8, 7
6, 7
5, 4
2, 6
5, 3
5, 4
3, 6
4, 4
2, 7
5, 7
1, 8
3, 5
2, 8
7, 2
5, 11
5, 2
2, 4
4, 6
2, 8
10, 7
6, 8
3, 3
4, 7
7, 4
5, 5
6, 6
4, 7
8, 11
0, 6
3, 8
5, 6
5, 10
1, 4
4, 2
5, 3
4, 4
6, 1
3, 1
5, 5
6, 7
5, 3
4, 6
11, 7
5, 6
5, 8
5, 7
3, 3
6, 9
5, 6
1, 3
3, 7
4, 5
3, 5
4, 6
3, 4
5, 2
3, 4
5, 1
7, 2
4, 5
5, 3
2, 4
3, 3
0, 4
1, 5
4, 3
3, 2
3, 6
2, 3
4, 4
9, 3
5, 2
4, 3
4, 4
3, 6
1, 4
3, 3
0, 7
1, 5
3, 10
4, 7
6, 2
3, 4
5, 4
6, 0
9, 4
3, 3
2, 3
2, 1
5, 4
5, 3
0, 6
5, 3
2, 5
6, 4
1, 2
3, 4
1, 4
2, 1
7, 2
3, 5
2, 2
1, 1
1, 1
1, 3
3, 1
4, 3
3, 2
3, 4
1, 2
1, 4
3, 3
1, 2
2, 4
3, 3
3, 0
2, 1
2, 4
7, 1
5, 2
2, 0
1, 3
2, 3
2, 2
4, 3
1, 1
3, 3
6, 1
4, 2
2, 2
3, 1
1, 1
3, 2
2, 3
2, 1
1, 0
1, 3
1, 3
1, 0
2, 7
2, 2
2, 0
2, 0
2, 2
1, 1
1, 5
1, 7
2, 2
1, 2
0, 1
2, 2
2, 2
0, 3
2, 1
0, 2
4, 4
0, 2
1, 1
2, 6
2, 4
3, 4
1, 0
3, 1
2, 1
2, 5
2, 7
6, 4
3, 2
1, 2
5, 4
4, 3
3, 0
1, 0
3, 3
3, 1
3, 1
1, 5
1, 2
3, 4
0, 1
1, 0
0, 1
1, 3
1, 1
1, 3
1, 1
2, 0
1, 0
2, 0
4, 1
0, 3
6, 6
1, 1
1, 1
1, 2
3, 2
1, 2
2, 0
4, 1
0, 2
0, 1
0, 2
0, 0
0, 0
0, 1
1, 0
2, 2
2, 1
1, 2
1, 0
0, 1
0, 4
0, 1
1, 1
1, 2
0, 2
1, 1
2, 2
2, 1
2, 2
0, 2
2, 0
2, 0
1, 0
1, 0
1, 0
1, 0
1, 0
2, 0
0, 1
3, 1
0, 0
1, 0
0, 0
1, 3
2, 0
1, 1
0, 1
0, 1
0, 1
1, 2
0, 1
0, 0
1, 0
1, 2
0, 1
0, 0
2, 0
1, 1
0, 0
0, 0
1, 2
2, 1
0, 0
0, 0
0, 0
0, 1
0, 0
2, 0
0, 0
0, 0
0, 1
0, 2
2, 0
1, 2
0, 1
0, 0
0, 3
0, 0
0, 0
1, 1
0, 0
0, 1
0, 1
2, 3
2, 1
1, 1
0, 1
0, 0
0, 0
0, 1
0, 0
0, 0
0, 2
0, 0
0, 0
1, 1
0, 1
1, 0
0, 0
0, 0
1, 1
0, 1
0, 0
0, 0
1, 0
2, 1
1, 0
2, 0
1, 0
0, 1
0, 0
0, 0
0, 1
0, 0
1, 0
0, 0
0, 0
0, 0
0, 3
0, 0
1, 0
1, 1
1, 0
0, 0
0, 1
0, 0
0, 2
0, 1
0, 1
0, 1
0, 0
1, 0
0, 0
0, 1
0, 1
0, 2
0, 0
1, 0
1, 0
1, 0
0, 0
1, 1
0, 2
0, 2
0, 0
0, 1
0, 0
0, 0
0, 1
0, 0
0, 1
0, 0
0, 0
1, 1
0, 0
0, 0
0, 0
0, 0
0, 1
0, 0
1, 1
0, 0
1, 0
1, 0
0, 2
1, 0
0, 0
0, 0
2, 0
0, 0
0, 0
1, 0
1, 0
1, 0
0, 0
0, 0
0, 2
1, 0
0, 0
1, 0
2, 2
2, 0
0, 0
0, 0
0, 1
0, 0
0, 0
0, 0
0, 0
0, 0
0, 0
0, 1
1, 0
0, 0
0, 0
0, 0
0, 0
1, 0
0, 0
0, 0
0, 1
0, 0
1, 0
0, 0
0, 0
0, 0
0, 0
0, 0
0, 0
1, 2
0, 0
0, 0
0, 0
0, 0
0, 0
0, 1
0, 0
0, 0
0, 0
1, 0
1, 0
1, 0
0, 1
1, 0
0, 0
0, 0
0, 1
0, 0
1, 1
0, 0
0, 0
0, 0
0, 0
0, 0
0, 0
0, 0
0, 0
1, 2
0, 2
0, 0
0, 0
0, 0
0, 0
1, 0
0, 0
0, 0
0, 0
0, 0
0, 0
0, 0
0, 0
0, 0
0, 2
0, 0
0, 1
0, 1
1, 0
0, 0
0, 0
0, 0
1, 0
0, 0
0, 0
0, 0
0, 0
0, 0
0, 0
0, 0
0, 0
0, 0
1, 0
1, 0
0, 1
0, 0
0, 0
1, 0
0, 0
0, 0
0, 0
0, 0
0, 0
0, 0
1, 0
0, 0
1, 0
0, 0
0, 0
1, 0
0, 0
0, 0
0, 0
0, 0
0, 1
0, 0
0, 0
0, 0
0, 1
0, 0
0, 0
1, 0
0, 0
0, 0
0, 0
0, 0
0, 0
0, 0
0, 0
0, 1
0, 0
0, 0
0, 1
0, 0
0, 0
0, 0
0, 0
0, 0
0, 0
0, 0
0, 0
0, 0
0, 0
0, 0
0, 0
0, 0
0, 0
0, 0
0, 0
0, 0
0, 0
0, 0
0, 0
0, 0
0, 0
1, 0
0, 0
0, 0
0, 0
0, 0
0, 0
0, 0
0, 0
0, 0
0, 0
0, 0
0, 0
0, 0
1, 0
0, 0
0, 0
0, 0
0, 0
0, 0
0, 0
0, 0
0, 0
0, 0
0, 0
0, 0
0, 0
0, 0
0, 0
0, 0
0, 0
0, 0
0, 0
0, 0
0, 0
0, 0
0, 0
0, 0
0, 1
0, 0
0, 0
0, 0
0, 0
0, 0
0, 0
0, 0
0, 0
0, 0
0, 0
0, 0
0, 0
0, 0
0, 1
0, 0
0, 0
0, 0
0, 0
0, 0
0, 0
0, 0
0, 0
0, 0
0, 0
0, 0
0, 0
0, 0
0, 0
0, 0
0, 0
0, 0
0, 0
0, 0
0, 0
0, 0
0, 0
0, 0
0, 0
0, 0
0, 0
0, 0
0, 0
0, 0
0, 0
0, 0
0, 0
0, 0
0, 0
0, 0
0, 0
0, 0
0, 0
0, 0
0, 0
0, 0
0, 0
0, 0
0, 0
0, 0
0, 0
0, 0
0, 0
0, 0
0, 0
0, 0
0, 0
0, 0
0, 0
0, 0
0, 0
0, 0
0, 0
0, 0
0, 0
0, 0
0, 0
0, 0
0, 0
0, 0
0, 0
0, 0
0, 0
0, 0
0, 0
0, 0
0, 0
0, 0
0, 0
0, 0
0, 0
0, 0
0, 0
0, 0
0, 0
0, 0
0, 0
0, 0
0, 0
0, 0
0, 0
0, 0
0, 0
0, 0
0, 0
0, 0
0, 0
0, 0
0, 0
0, 0
0, 0
0, 0
0, 0
0, 0
0, 0
0, 0
0, 0
0, 0
0, 0
0, 0
0, 0
0, 0
0, 0
0, 0
0, 0
0, 0
0, 0
0, 0
0, 0
0, 0
0, 0
0, 0
0, 0
0, 0
0, 0
0, 0
0, 0
0, 0
0, 0
0, 0
0, 0
0, 0
0, 0
0, 0
0, 0
0, 0
0, 0
0, 0
0, 0
0, 0
0, 0
0, 0
0, 0
0, 0
0, 0
0, 0
0, 0
0, 0
0, 0
0, 0
0, 0
0, 0
0, 0
0, 0
0, 0
0, 0
0, 0
0, 0
0, 0
0, 0
0, 0
0, 0
0, 0
0, 0
0, 0
0, 0
0, 0
0, 0
0, 0
0, 0
0, 0
0, 0
0, 0
0, 0
0, 0
0, 0
0, 0
0, 0
0, 0
0, 0
0, 0
0, 0
0, 0
0, 0
0, 0
0, 0
0, 0
0, 0
0, 0
0, 0
0, 0
0, 0
0, 0
0, 0
0, 0
0, 0
0, 0
0, 0
0, 0
0, 0
0, 0
0, 0
0, 0
0, 0
0, 0
0, 0
0, 0
0, 0
0, 0
0, 0
0, 0
0, 0
0, 0
0, 0
0, 0
0, 0
0, 0
0, 0
0, 0
0, 0
0, 0
0, 0
0, 0
0, 0
0, 0
0, 0
0, 0
0, 0
0, 0
0, 0
0, 0
0, 0
0, 0
0, 0
0, 0
0, 0
0, 0
0, 0
0, 0
0, 0
0, 0
0, 0
0, 0
0, 0
0, 0
0, 0
0, 0
0, 0
0, 0
0, 0
0, 0
0, 0
0, 0
0, 0
0, 0
0, 0
0, 0
0, 0
0, 0
0, 0
0, 0
0, 0
0, 0
0, 0
0, 0
0, 0
0, 0
0, 0
0, 0
0, 0
0, 0
0, 0
0, 0
0, 0
0, 0
0, 0
0, 0
0, 0
0, 0
0, 0
0, 0
0, 0
0, 0
0, 0
0, 0
0, 0
0, 0
0, 0
0, 0
0, 0
0, 0
0, 0
0, 0
0, 0
0, 0
0, 0
0, 0
0, 0
0, 0
0, 0
0, 0
0, 0
0, 0
0, 0
0, 0
0, 0
0, 0
0, 0
0, 0
0, 0
0, 0
0, 0
0, 0
0, 0
0, 0
0, 0
0, 0
0, 0
0, 0
0, 0
0, 0
0, 0
0, 0
0, 0
0, 0
0, 0
0, 0
0, 0
0, 0
0, 0
0, 0
0, 0
0, 0
0, 0
0, 0
0, 0
0, 0
0, 0
0, 0
0, 0
0, 0
0, 0
0, 0
0, 0
0, 0
0, 0
0, 0
0, 0
0, 0
0, 0
0, 0
0, 0
0, 0
0, 0
0, 0
0, 0
0, 0
0, 0
0, 0
0, 0
0, 0
0, 0
0, 0
0, 0
0, 0
0, 0
0, 0
0, 0
0, 0
0, 0
0, 0
0, 0
0, 0
0, 0
0, 0
0, 0
0, 0
0, 0
0, 0
0, 0
0, 0
0, 0
0, 0
0, 0
0, 0
0, 0
0, 0
0, 0
0, 0
0, 0
0, 0
0, 0
0, 0
0, 0
0, 0
0, 0
0, 0
0, 0
0, 0
0, 0
0, 0
0, 0
0, 0
0, 0
0, 0
0, 0
0, 0
0, 0
0, 0
0, 0
0, 0
0, 0
0, 0
0, 0
0, 0
0, 0
0, 0
#ENDOFDATA     end of spectrum data