File: host_upload/02-11-2024/rqc/uplink1/ps__0567_0717304816_000rfs_shot_390.msa
#FORMAT      : EMSA/MAS spectral data file
#VERSION     : TC202v2.0 PIXL
#TITLE       : Novarupta (sol567) subset1
#DATE        : 02-11-2024      Date in the format DD-MMM-YYYY, for example 07-JUL-2010
#TIME        :             The time of day at which the spectrum was recorded, in 24-hour format
#OWNER       : PIXL Flight Model       (PIXL will use this to indicate which instrument took the data.)
#NPOINTS     : 4096     Number of data points in the spectrum (This can be zero for configuration only files)
#NCOLUMNS    : 2     Number of data columns in the spectrum (This can be zero for configuration only files)
#XUNITS      : eV
#YUNITS      : COUNTS
#DATATYPE    : YY
#XPERCHAN    : 7.862, 7.881   eV per channel (separate by commas if more than one detector)
#OFFSET      : 18.5, -22.4         eV of first channel  (separate by commas if more than one detector
#SIGNALTYPE  : XRF
#YP_TEMP     : 1.562
#LIVETIME    : 8.83127, 8.80868   seconds (separate by commas if more than one detector)
#REALTIME    : 10, 10.0   seconds (separate by commas if more than one detector)
#SPECTRUM    : start of spectrum data
0, 0
0, 0
0, 0
0, 0
0, 0
0, 0
0, 0
0, 0
0, 0
0, 0
0, 0
0, 0
0, 0
0, 0
0, 0
0, 0
0, 0
0, 0
0, 0
0, 0
0, 0
0, 0
0, 0
0, 0
0, 0
0, 0
0, 0
0, 0
0, 0
1, 0
0, 0
0, 0
0, 0
1, 0
1, 2
0, 2
3, 0
4, 3
7, 4
5, 3
8, 2
2, 4
7, 5
3, 4
3, 5
0, 1
3, 0
5, 2
5, 6
3, 5
6, 3
11, 9
9, 5
9, 15
15, 16
17, 15
13, 13
13, 9
7, 12
12, 10
12, 22
21, 21
42, 35
60, 54
39, 42
51, 56
38, 42
40, 32
41, 46
43, 70
116, 116
189, 218
271, 334
413, 478
461, 506
475, 531
429, 493
320, 339
199, 240
138, 143
81, 80
45, 53
24, 42
31, 29
26, 23
36, 34
32, 31
30, 34
21, 27
29, 17
11, 13
9, 13
27, 16
36, 52
61, 111
124, 140
193, 253
253, 257
270, 311
287, 325
249, 283
226, 203
145, 165
91, 124
67, 88
56, 60
49, 69
68, 81
99, 119
159, 146
171, 215
219, 257
257, 309
229, 266
237, 217
192, 180
150, 144
120, 135
100, 72
84, 64
84, 75
72, 85
61, 75
51, 59
53, 41
32, 32
35, 27
21, 23
26, 22
14, 10
14, 6
5, 11
8, 10
4, 10
4, 12
3, 6
8, 18
16, 14
11, 18
22, 30
22, 25
30, 43
19, 28
27, 21
19, 22
26, 17
11, 10
15, 3
12, 9
23, 14
33, 21
49, 53
79, 124
136, 195
209, 295
287, 336
344, 368
358, 424
353, 408
312, 369
242, 261
152, 151
98, 96
52, 57
40, 32
36, 35
24, 35
28, 31
32, 50
56, 61
50, 58
49, 60
63, 62
56, 38
29, 47
20, 21
27, 16
17, 18
14, 7
10, 9
7, 10
9, 11
6, 10
12, 6
10, 8
16, 11
19, 19
22, 27
33, 39
40, 44
45, 64
75, 54
74, 91
64, 72
50, 64
40, 45
39, 30
22, 33
22, 24
25, 24
16, 15
13, 16
12, 15
10, 16
6, 10
5, 14
20, 22
19, 10
21, 20
19, 30
19, 16
17, 14
11, 16
10, 26
12, 20
7, 14
12, 14
10, 13
10, 11
7, 14
13, 9
12, 13
14, 10
8, 18
13, 11
14, 13
15, 21
26, 23
22, 24
27, 35
29, 21
30, 28
36, 27
26, 19
26, 24
20, 24
14, 16
13, 8
6, 11
15, 14
14, 9
11, 14
10, 8
14, 18
12, 16
21, 32
17, 22
21, 32
35, 46
40, 53
47, 62
57, 43
50, 53
50, 46
25, 41
27, 33
21, 30
17, 25
12, 18
13, 22
17, 26
31, 24
31, 37
71, 71
104, 160
221, 291
344, 483
561, 710
914, 1051
1173, 1420
1426, 1716
1676, 1981
1694, 1949
1624, 1761
1425, 1483
1171, 1197
890, 832
637, 511
364, 348
199, 207
117, 122
81, 60
29, 32
27, 38
16, 27
21, 19
18, 16
12, 19
19, 13
17, 18
25, 29
34, 28
37, 37
70, 81
85, 86
114, 155
152, 190
195, 209
248, 241
238, 277
272, 278
257, 226
225, 216
179, 181
157, 124
79, 75
66, 44
31, 28
24, 19
18, 16
11, 12
8, 13
7, 11
6, 6
10, 11
4, 7
13, 13
9, 10
11, 10
14, 17
16, 11
11, 11
14, 6
9, 6
2, 3
7, 5
6, 6
8, 9
7, 10
9, 6
6, 8
7, 10
8, 7
5, 5
5, 7
4, 4
6, 6
8, 4
6, 10
7, 5
7, 5
11, 7
9, 9
7, 5
9, 7
5, 10
5, 8
7, 11
5, 10
4, 4
5, 11
7, 7
16, 6
7, 9
7, 10
5, 1
8, 8
9, 4
6, 7
5, 6
6, 9
9, 7
8, 5
7, 9
11, 9
12, 4
12, 20
12, 4
11, 11
10, 9
11, 2
8, 9
6, 9
7, 5
4, 2
2, 5
4, 6
6, 12
4, 7
10, 8
6, 6
8, 4
8, 10
8, 9
2, 4
10, 5
4, 3
3, 7
5, 5
1, 0
3, 7
4, 6
3, 8
7, 4
4, 2
4, 3
4, 5
4, 4
7, 4
1, 5
8, 7
5, 3
4, 6
10, 7
6, 3
7, 7
4, 6
6, 3
2, 7
8, 7
5, 5
2, 3
6, 5
2, 6
2, 3
5, 4
3, 4
0, 7
3, 2
6, 6
3, 3
1, 5
4, 6
2, 7
5, 4
4, 4
3, 5
8, 2
4, 2
4, 6
6, 4
5, 2
7, 5
5, 3
2, 3
4, 10
2, 2
4, 4
3, 6
1, 4
8, 3
3, 4
3, 5
2, 1
3, 5
3, 4
4, 4
4, 2
3, 3
1, 5
4, 0
4, 4
2, 3
7, 4
1, 4
4, 5
2, 2
1, 2
4, 2
3, 3
1, 3
4, 2
5, 6
2, 6
4, 2
3, 1
3, 4
5, 1
1, 4
2, 4
0, 3
2, 1
2, 3
7, 3
2, 4
8, 2
1, 5
3, 4
1, 3
2, 0
2, 3
2, 3
4, 5
5, 2
0, 6
1, 3
1, 0
2, 4
4, 3
2, 1
0, 1
0, 3
2, 5
3, 3
1, 2
2, 3
2, 4
0, 3
1, 3
5, 3
1, 1
4, 6
3, 4
4, 3
0, 1
3, 5
5, 4
1, 2
2, 2
3, 1
5, 2
1, 2
0, 4
5, 3
1, 3
0, 4
1, 5
1, 1
1, 3
4, 1
2, 2
3, 3
1, 0
3, 1
2, 3
3, 1
2, 1
2, 5
0, 2
2, 2
3, 5
0, 1
2, 3
1, 2
5, 1
0, 4
4, 5
1, 4
2, 6
3, 5
2, 5
6, 4
1, 4
4, 2
2, 1
4, 1
2, 5
0, 3
0, 2
0, 2
2, 0
1, 3
0, 3
1, 2
2, 2
2, 3
0, 0
1, 4
2, 1
0, 1
1, 0
1, 0
1, 2
2, 3
1, 1
1, 2
3, 3
1, 5
2, 0
3, 2
1, 2
5, 3
1, 4
1, 0
1, 1
1, 2
1, 4
0, 3
1, 1
0, 1
0, 1
1, 1
0, 0
0, 0
2, 3
3, 1
1, 0
0, 0
5, 0
0, 0
0, 1
0, 1
1, 2
0, 3
2, 3
2, 1
1, 0
1, 1
0, 0
1, 0
0, 1
1, 3
1, 2
2, 0
1, 1
0, 0
1, 1
3, 3
1, 2
1, 1
1, 0
0, 1
1, 2
2, 1
2, 0
3, 0
0, 0
0, 2
0, 1
0, 2
0, 0
1, 2
1, 0
1, 2
2, 0
2, 2
0, 0
1, 0
2, 1
0, 0
0, 1
0, 1
1, 3
1, 1
0, 0
1, 4
0, 1
1, 2
0, 1
0, 3
1, 1
0, 1
0, 2
2, 0
0, 0
1, 1
0, 2
1, 2
2, 1
0, 0
1, 0
0, 1
0, 0
0, 0
2, 0
0, 0
1, 0
1, 1
1, 1
0, 0
0, 1
1, 2
0, 0
0, 0
0, 0
0, 1
0, 0
0, 0
0, 0
0, 1
2, 2
0, 1
0, 0
2, 0
0, 1
1, 1
1, 0
2, 0
3, 1
0, 1
3, 0
0, 1
0, 0
0, 0
0, 0
0, 0
1, 0
2, 0
0, 0
1, 3
0, 1
0, 0
0, 0
2, 0
0, 1
0, 0
0, 0
0, 0
0, 0
1, 0
1, 0
0, 0
1, 0
1, 0
0, 0
0, 0
0, 0
0, 0
0, 1
0, 0
0, 0
1, 2
0, 0
1, 0
0, 0
0, 0
0, 0
0, 0
1, 0
0, 0
0, 1
0, 0
1, 0
0, 0
1, 0
1, 0
0, 0
0, 0
0, 0
1, 0
0, 1
0, 0
1, 1
0, 0
1, 2
0, 0
0, 0
0, 0
0, 0
0, 0
0, 0
0, 0
0, 0
0, 0
0, 0
0, 0
0, 0
1, 0
0, 0
0, 0
0, 0
0, 1
0, 0
0, 0
0, 0
1, 0
0, 2
0, 0
1, 0
0, 0
0, 1
1, 1
0, 0
0, 1
1, 1
0, 0
0, 0
0, 0
0, 0
1, 1
0, 0
0, 0
0, 1
0, 0
0, 0
0, 0
1, 0
0, 0
0, 0
0, 1
0, 0
0, 0
0, 0
0, 1
0, 0
0, 0
0, 1
0, 0
0, 0
0, 0
1, 0
1, 1
1, 1
0, 0
0, 0
0, 0
0, 1
0, 0
0, 0
0, 0
1, 0
0, 0
0, 0
2, 0
0, 0
0, 0
0, 0
0, 0
1, 0
0, 0
0, 1
0, 0
1, 0
2, 0
0, 0
1, 0
0, 0
0, 0
0, 0
0, 0
0, 0
0, 0
1, 0
1, 1
0, 0
0, 0
0, 1
0, 0
0, 1
0, 0
0, 1
0, 0
0, 0
0, 0
0, 0
0, 0
0, 0
0, 0
0, 0
0, 0
1, 0
0, 0
0, 0
0, 0
0, 0
0, 0
0, 0
0, 0
0, 0
0, 0
1, 0
0, 0
0, 0
0, 0
0, 0
0, 0
0, 1
0, 0
0, 0
0, 0
0, 1
0, 0
0, 0
0, 0
0, 0
0, 0
0, 0
0, 0
0, 0
1, 0
0, 0
0, 0
0, 0
1, 1
1, 1
0, 0
0, 0
0, 0
0, 0
0, 0
0, 0
0, 0
0, 0
0, 0
0, 0
1, 0
0, 0
1, 0
1, 1
0, 0
0, 0
0, 0
0, 0
0, 0
0, 0
0, 0
0, 0
0, 0
0, 0
0, 0
0, 0
0, 0
0, 0
0, 0
0, 1
0, 0
0, 0
0, 0
0, 0
0, 0
0, 0
0, 0
0, 0
0, 0
0, 0
0, 0
0, 0
0, 0
0, 0
0, 0
0, 0
0, 0
0, 0
0, 0
0, 0
0, 0
0, 0
0, 0
0, 0
0, 0
0, 0
0, 0
0, 0
0, 0
0, 0
0, 0
0, 0
0, 0
0, 0
0, 0
0, 0
0, 0
0, 0
0, 0
0, 0
0, 0
0, 0
0, 0
0, 0
0, 0
0, 0
0, 0
0, 0
0, 0
0, 0
0, 0
0, 0
0, 0
0, 0
0, 0
0, 0
0, 0
0, 0
0, 0
0, 0
0, 0
0, 1
0, 0
0, 0
0, 0
0, 0
1, 0
0, 0
0, 0
0, 0
0, 0
0, 0
0, 0
0, 0
0, 0
0, 0
0, 0
0, 0
0, 0
0, 0
0, 0
0, 0
0, 0
0, 0
0, 0
0, 0
0, 1
0, 0
0, 0
0, 0
0, 0
1, 0
0, 0
0, 0
0, 0
0, 0
0, 0
0, 0
0, 0
0, 0
0, 0
0, 0
0, 0
0, 0
0, 0
0, 0
0, 0
0, 0
0, 0
0, 0
0, 0
1, 0
0, 0
0, 0
0, 0
0, 0
0, 0
0, 0
0, 0
0, 0
0, 0
0, 0
0, 0
0, 0
0, 0
0, 0
0, 0
0, 0
0, 0
0, 0
0, 0
0, 0
0, 0
0, 0
0, 0
0, 0
0, 0
0, 0
0, 0
0, 0
0, 0
0, 0
0, 0
0, 0
0, 0
0, 0
0, 0
0, 0
0, 0
0, 0
0, 0
0, 0
0, 0
0, 0
0, 0
0, 0
0, 0
0, 0
0, 0
0, 0
0, 0
0, 0
0, 0
0, 0
0, 0
0, 0
0, 0
0, 0
0, 0
0, 0
0, 0
0, 0
0, 0
0, 0
0, 0
0, 0
0, 0
0, 0
0, 0
0, 0
0, 0
0, 0
0, 0
0, 0
0, 0
0, 0
0, 0
0, 0
0, 0
0, 0
0, 0
0, 0
0, 0
0, 0
0, 0
0, 0
0, 0
0, 0
0, 0
0, 0
0, 0
0, 0
0, 0
0, 0
0, 0
0, 0
0, 0
0, 0
0, 0
0, 0
0, 0
0, 0
0, 0
0, 0
0, 0
0, 0
0, 0
0, 0
0, 0
0, 0
0, 0
0, 0
0, 0
0, 0
0, 0
0, 0
0, 0
0, 0
0, 0
0, 0
0, 0
0, 0
0, 0
0, 0
0, 0
0, 0
0, 0
0, 0
0, 0
0, 0
0, 0
0, 0
0, 0
0, 0
0, 0
0, 0
0, 0
0, 0
0, 0
0, 0
0, 0
0, 0
0, 0
0, 0
0, 0
0, 0
0, 0
0, 0
0, 0
0, 0
0, 0
0, 0
0, 0
0, 0
0, 0
0, 0
0, 0
0, 0
0, 0
0, 0
0, 0
0, 0
0, 0
0, 0
0, 0
0, 0
0, 0
0, 0
0, 0
0, 0
0, 0
0, 0
0, 0
0, 0
0, 0
0, 0
0, 0
0, 0
0, 0
0, 0
0, 0
0, 0
0, 0
0, 0
0, 0
0, 0
0, 0
0, 0
0, 0
0, 0
0, 0
0, 0
0, 0
0, 0
0, 0
0, 0
0, 0
0, 0
0, 0
0, 0
0, 0
0, 0
0, 0
0, 0
0, 0
0, 0
0, 0
0, 0
0, 0
0, 0
0, 0
0, 0
0, 0
0, 0
0, 0
0, 0
0, 0
0, 0
0, 0
0, 0
0, 0
0, 0
0, 0
0, 0
0, 0
0, 0
0, 0
0, 0
0, 0
0, 0
0, 0
0, 0
0, 0
0, 0
0, 0
0, 0
0, 0
0, 0
0, 0
0, 0
0, 0
0, 0
0, 0
0, 0
0, 0
0, 0
0, 0
0, 0
0, 0
0, 0
0, 0
0, 0
0, 0
0, 0
0, 0
0, 0
0, 0
0, 0
0, 0
0, 0
0, 0
0, 0
0, 0
0, 0
0, 0
0, 0
0, 0
0, 0
0, 0
0, 0
0, 0
0, 0
0, 0
0, 0
0, 0
0, 0
0, 0
0, 0
0, 0
0, 0
0, 0
0, 0
0, 0
0, 0
0, 0
0, 0
0, 0
0, 0
0, 0
0, 0
0, 0
0, 0
0, 0
0, 0
0, 0
0, 0
0, 0
0, 0
0, 0
0, 0
0, 0
0, 0
0, 0
0, 0
0, 0
0, 0
0, 0
0, 0
0, 0
0, 0
0, 0
0, 0
0, 0
0, 0
0, 0
0, 0
0, 0
0, 0
0, 0
0, 0
0, 0
0, 0
0, 0
0, 0
0, 0
0, 0
0, 0
0, 0
0, 0
0, 0
0, 0
0, 0
0, 0
0, 0
0, 0
0, 0
0, 0
0, 0
0, 0
0, 0
0, 0
0, 0
0, 0
0, 0
0, 0
0, 0
0, 0
0, 0
0, 0
0, 0
0, 0
#ENDOFDATA     end of spectrum data