File: host_upload/02-11-2024/rqc/uplink1/ps__0567_0717304816_000rfs_shot_324.msa
#FORMAT      : EMSA/MAS spectral data file
#VERSION     : TC202v2.0 PIXL
#TITLE       : Novarupta (sol567) subset1
#DATE        : 02-11-2024      Date in the format DD-MMM-YYYY, for example 07-JUL-2010
#TIME        :             The time of day at which the spectrum was recorded, in 24-hour format
#OWNER       : PIXL Flight Model       (PIXL will use this to indicate which instrument took the data.)
#NPOINTS     : 4096     Number of data points in the spectrum (This can be zero for configuration only files)
#NCOLUMNS    : 2     Number of data columns in the spectrum (This can be zero for configuration only files)
#XUNITS      : eV
#YUNITS      : COUNTS
#DATATYPE    : YY
#XPERCHAN    : 7.862, 7.881   eV per channel (separate by commas if more than one detector)
#OFFSET      : 18.5, -22.4         eV of first channel  (separate by commas if more than one detector
#SIGNALTYPE  : XRF
#YP_TEMP     : 1.434
#LIVETIME    : 8.82262, 8.81613   seconds (separate by commas if more than one detector)
#REALTIME    : 10, 10.0   seconds (separate by commas if more than one detector)
#SPECTRUM    : start of spectrum data
0, 0
0, 0
0, 0
0, 0
0, 0
0, 0
0, 0
0, 0
0, 0
0, 0
0, 0
0, 0
0, 0
0, 0
0, 0
0, 0
0, 0
0, 0
0, 0
0, 0
0, 0
0, 0
0, 0
0, 0
0, 0
0, 0
0, 0
0, 1
0, 0
0, 0
0, 0
0, 0
0, 0
2, 0
3, 1
1, 2
1, 0
3, 1
3, 3
5, 3
1, 3
1, 3
3, 4
7, 1
3, 3
2, 2
2, 5
4, 5
3, 2
8, 6
9, 3
6, 9
12, 8
21, 18
10, 20
20, 9
14, 18
13, 18
9, 14
11, 11
22, 16
27, 29
33, 40
52, 48
47, 53
46, 44
39, 46
35, 36
24, 36
71, 65
105, 119
200, 197
316, 301
438, 435
469, 481
500, 489
399, 403
338, 343
242, 212
160, 136
59, 78
43, 54
29, 45
22, 29
31, 30
31, 33
36, 39
32, 30
35, 30
17, 13
17, 23
23, 17
25, 30
47, 40
84, 90
127, 137
223, 252
300, 291
302, 302
309, 342
260, 263
219, 228
156, 137
107, 94
83, 64
55, 47
49, 46
63, 61
85, 86
117, 129
138, 137
153, 200
200, 187
194, 199
164, 171
159, 131
130, 124
104, 111
94, 86
83, 78
70, 78
69, 70
68, 69
68, 53
47, 44
41, 41
31, 33
26, 21
20, 20
18, 15
5, 10
7, 5
9, 11
7, 3
8, 7
9, 4
9, 12
13, 12
16, 17
19, 22
24, 31
34, 32
31, 29
27, 19
32, 22
14, 16
11, 12
16, 8
7, 11
20, 22
24, 24
42, 55
75, 86
133, 165
200, 220
309, 295
379, 365
367, 401
374, 366
278, 314
241, 248
151, 156
112, 107
76, 55
37, 41
27, 24
33, 23
40, 42
38, 33
54, 42
59, 61
58, 65
47, 54
55, 48
41, 42
40, 23
20, 23
20, 11
9, 13
7, 10
5, 6
4, 5
11, 14
9, 14
4, 5
13, 7
15, 18
28, 24
38, 34
31, 43
48, 49
62, 64
68, 63
66, 61
42, 43
45, 43
32, 30
33, 17
21, 22
14, 20
15, 11
16, 15
10, 7
10, 12
11, 12
13, 14
14, 16
22, 10
14, 18
21, 18
17, 18
15, 19
16, 15
20, 13
18, 9
18, 15
15, 10
15, 12
14, 9
11, 8
11, 6
7, 8
8, 11
8, 12
16, 10
9, 20
19, 26
18, 27
24, 31
29, 25
33, 27
22, 25
27, 31
20, 23
17, 21
14, 11
20, 24
16, 13
14, 17
8, 16
11, 13
8, 12
15, 11
13, 17
19, 16
22, 24
14, 23
34, 30
33, 30
44, 32
38, 63
45, 45
47, 32
52, 39
39, 38
39, 22
28, 19
16, 17
20, 11
24, 19
13, 30
32, 34
38, 36
73, 88
143, 173
210, 239
372, 452
567, 709
839, 1046
1179, 1324
1526, 1624
1613, 1835
1778, 1797
1726, 1670
1531, 1469
1199, 1079
834, 791
657, 548
397, 288
232, 178
126, 98
56, 48
36, 20
27, 11
17, 23
17, 14
9, 15
18, 15
19, 18
18, 26
28, 27
29, 26
52, 48
54, 75
72, 96
121, 134
162, 177
202, 201
198, 276
275, 282
242, 275
251, 221
217, 223
169, 158
150, 94
115, 72
62, 57
47, 26
28, 15
13, 17
10, 10
2, 6
12, 8
11, 7
5, 10
11, 12
16, 15
10, 21
12, 12
11, 16
16, 10
8, 9
13, 13
4, 6
4, 6
6, 7
4, 7
11, 2
5, 12
13, 3
7, 3
7, 5
4, 8
6, 8
4, 3
3, 5
4, 8
10, 0
1, 6
6, 6
8, 7
6, 8
3, 12
6, 7
9, 6
7, 15
6, 3
5, 14
7, 12
7, 12
12, 9
8, 11
2, 7
2, 8
5, 5
8, 7
8, 5
8, 10
4, 5
8, 5
5, 8
8, 9
8, 9
6, 14
11, 9
8, 6
15, 10
13, 10
9, 15
14, 8
6, 8
9, 3
11, 5
10, 5
8, 3
6, 6
4, 3
15, 5
3, 5
3, 4
4, 6
3, 10
3, 3
5, 9
7, 4
5, 4
7, 3
7, 10
8, 2
3, 5
5, 5
3, 7
6, 3
6, 4
8, 3
8, 2
5, 3
4, 3
3, 8
3, 5
3, 9
7, 6
3, 5
5, 8
7, 5
6, 3
7, 4
5, 6
6, 4
2, 2
3, 5
9, 4
5, 8
7, 4
6, 3
7, 8
2, 6
7, 7
1, 4
8, 3
4, 6
4, 3
5, 4
6, 1
4, 6
6, 6
2, 6
7, 9
4, 3
7, 3
3, 7
2, 3
6, 1
7, 6
2, 2
2, 4
2, 7
2, 3
4, 5
3, 5
2, 5
3, 3
4, 2
3, 5
3, 2
2, 7
6, 6
2, 5
3, 4
2, 0
5, 3
3, 1
1, 2
5, 6
5, 5
6, 4
1, 4
3, 1
3, 6
5, 4
1, 4
2, 3
1, 1
4, 3
4, 3
1, 6
4, 4
2, 0
4, 3
3, 2
3, 5
2, 3
0, 0
1, 2
3, 2
2, 3
3, 2
2, 3
5, 3
0, 2
6, 2
1, 2
2, 1
3, 1
1, 6
2, 3
1, 2
3, 2
4, 0
4, 2
0, 6
4, 5
2, 0
2, 1
3, 6
2, 4
1, 1
4, 3
3, 1
1, 5
3, 1
3, 3
1, 3
5, 3
3, 2
3, 2
8, 2
3, 2
1, 3
4, 3
0, 3
2, 2
2, 4
3, 2
2, 0
1, 1
1, 0
4, 2
4, 1
4, 5
1, 4
3, 3
4, 2
3, 4
3, 3
1, 0
0, 2
1, 8
0, 4
3, 1
3, 2
2, 2
2, 1
2, 1
2, 2
1, 2
2, 3
1, 5
6, 5
3, 3
2, 5
3, 3
2, 3
4, 3
2, 4
1, 5
3, 2
1, 5
1, 4
2, 2
2, 4
2, 4
1, 3
2, 1
3, 1
2, 0
1, 1
5, 1
0, 1
0, 1
0, 1
2, 4
2, 3
1, 2
1, 0
5, 1
4, 5
2, 1
1, 0
1, 0
3, 1
4, 0
0, 3
1, 1
1, 0
2, 2
2, 2
4, 1
3, 1
1, 1
1, 1
2, 0
2, 2
1, 0
0, 4
3, 2
0, 2
1, 0
1, 2
1, 0
3, 1
1, 5
4, 0
2, 1
0, 1
0, 0
2, 0
1, 1
1, 1
1, 0
3, 1
1, 1
1, 0
0, 1
1, 1
0, 1
1, 0
1, 1
2, 1
0, 0
0, 0
2, 1
2, 2
1, 1
1, 2
0, 0
0, 0
1, 0
1, 1
1, 1
0, 0
0, 0
0, 1
1, 0
0, 0
2, 0
1, 0
1, 0
0, 0
0, 0
1, 0
0, 0
0, 0
2, 2
0, 0
1, 0
1, 1
0, 2
0, 1
0, 0
2, 0
1, 1
0, 0
0, 1
1, 3
0, 1
2, 0
0, 2
2, 1
0, 0
2, 0
1, 0
0, 0
1, 0
0, 1
1, 1
1, 1
0, 0
2, 0
1, 0
0, 3
1, 1
0, 0
0, 1
0, 0
0, 2
0, 1
1, 0
2, 0
0, 2
0, 0
0, 1
1, 2
1, 1
0, 0
2, 0
1, 1
0, 0
2, 0
0, 0
0, 0
0, 1
0, 0
1, 0
1, 0
0, 0
0, 1
1, 0
3, 1
0, 1
0, 0
0, 2
0, 0
0, 1
0, 2
1, 1
0, 1
0, 1
1, 0
0, 0
0, 0
1, 0
0, 0
0, 0
0, 2
0, 0
0, 0
1, 1
0, 0
0, 1
1, 1
0, 0
1, 0
1, 1
2, 0
0, 0
0, 1
0, 1
1, 0
0, 0
1, 1
0, 0
1, 0
0, 1
0, 0
0, 0
0, 0
0, 0
0, 0
0, 0
1, 0
2, 0
0, 0
0, 0
0, 2
1, 1
1, 0
0, 1
0, 0
0, 0
0, 0
0, 1
0, 0
0, 0
2, 0
0, 0
0, 0
0, 1
0, 0
1, 0
0, 0
0, 0
2, 0
0, 1
0, 1
0, 0
0, 0
0, 0
0, 1
0, 0
0, 0
0, 0
1, 0
0, 0
0, 0
0, 1
0, 1
1, 0
1, 1
0, 0
0, 0
1, 0
0, 0
0, 0
0, 0
0, 0
2, 0
0, 0
0, 1
1, 0
0, 2
0, 0
2, 0
0, 0
0, 0
1, 0
0, 0
0, 0
0, 0
0, 1
0, 0
0, 0
0, 0
0, 0
0, 0
1, 2
1, 0
0, 0
1, 0
0, 0
0, 0
0, 0
0, 1
0, 0
0, 0
0, 0
0, 0
1, 1
0, 1
1, 0
0, 0
0, 0
1, 1
0, 0
0, 0
0, 0
0, 0
0, 0
0, 0
0, 0
0, 0
1, 0
0, 0
1, 0
0, 0
1, 0
0, 1
0, 0
0, 0
1, 0
0, 0
0, 0
0, 0
0, 1
0, 0
0, 0
0, 0
0, 0
0, 0
0, 0
0, 0
0, 0
0, 0
0, 0
0, 0
1, 0
0, 0
0, 0
0, 0
0, 0
0, 0
0, 0
1, 0
0, 0
0, 0
0, 0
0, 0
0, 1
0, 1
0, 0
0, 0
0, 0
0, 0
0, 0
0, 0
0, 0
0, 0
0, 0
1, 0
0, 1
0, 0
0, 0
0, 0
0, 0
0, 0
0, 0
0, 0
0, 0
0, 0
0, 0
0, 0
0, 0
0, 1
0, 0
0, 0
0, 0
0, 0
0, 1
1, 0
0, 0
0, 0
0, 0
0, 0
0, 0
0, 0
0, 0
1, 0
0, 0
0, 0
0, 1
0, 0
0, 0
0, 0
0, 0
0, 0
0, 0
0, 0
0, 0
0, 0
0, 0
0, 0
0, 0
0, 0
0, 0
0, 0
0, 0
0, 0
0, 0
0, 0
0, 0
0, 0
0, 0
0, 0
0, 0
0, 0
0, 0
0, 0
0, 0
0, 0
0, 0
0, 0
0, 1
0, 0
0, 0
0, 0
0, 0
0, 0
0, 0
0, 0
0, 0
0, 0
0, 0
0, 0
0, 0
0, 0
0, 0
0, 0
0, 0
0, 0
0, 0
0, 0
0, 0
0, 0
0, 0
0, 1
0, 0
0, 0
0, 0
0, 0
0, 0
0, 0
0, 0
0, 0
0, 0
0, 0
0, 0
1, 0
0, 0
0, 0
0, 0
0, 0
0, 0
0, 0
0, 0
0, 0
0, 0
0, 0
0, 0
0, 0
0, 0
0, 0
0, 0
0, 0
0, 0
0, 0
0, 0
0, 0
0, 0
0, 0
0, 0
0, 0
0, 0
0, 0
0, 0
0, 0
0, 0
0, 0
0, 0
0, 0
0, 0
0, 0
0, 0
0, 0
0, 0
0, 0
0, 1
0, 0
0, 0
0, 0
1, 0
0, 0
0, 0
0, 0
0, 0
1, 0
0, 0
0, 0
0, 0
0, 0
0, 0
0, 0
0, 0
0, 0
0, 0
0, 0
0, 0
0, 0
0, 0
0, 0
0, 0
0, 0
0, 0
0, 0
0, 0
0, 0
0, 0
0, 0
0, 0
0, 0
0, 0
0, 0
0, 0
0, 0
0, 0
0, 0
0, 0
0, 0
0, 0
0, 0
0, 0
0, 0
0, 0
0, 0
0, 0
0, 0
0, 0
0, 0
0, 0
0, 0
0, 0
0, 0
0, 0
0, 0
0, 0
0, 0
0, 0
0, 0
0, 0
0, 0
0, 0
0, 0
0, 0
0, 0
0, 0
0, 0
0, 0
0, 0
0, 0
0, 0
0, 0
0, 0
0, 0
0, 0
0, 0
0, 0
0, 0
0, 0
0, 0
0, 0
0, 0
0, 0
0, 0
0, 0
0, 0
0, 0
0, 0
0, 0
0, 0
0, 0
0, 0
0, 0
0, 0
0, 0
0, 0
0, 0
0, 0
0, 0
0, 0
0, 0
0, 0
0, 0
0, 0
0, 0
0, 0
0, 0
0, 0
0, 0
0, 0
0, 0
0, 0
0, 0
0, 0
0, 0
0, 0
0, 0
0, 0
0, 0
0, 0
0, 0
0, 0
0, 0
0, 0
0, 0
0, 0
0, 0
0, 0
0, 0
0, 0
0, 0
0, 0
0, 0
0, 0
0, 0
0, 0
0, 0
0, 0
0, 0
0, 0
0, 0
0, 0
0, 0
0, 0
0, 0
0, 0
0, 0
0, 0
0, 0
0, 0
0, 0
0, 0
0, 0
0, 0
1, 0
0, 0
0, 0
0, 0
0, 0
0, 0
0, 0
0, 0
0, 0
0, 0
0, 0
0, 0
0, 0
0, 0
0, 0
0, 0
0, 0
0, 0
0, 0
0, 0
0, 0
0, 0
0, 0
0, 0
0, 0
0, 0
0, 0
0, 0
0, 0
0, 0
0, 0
0, 0
0, 0
0, 0
0, 0
0, 0
0, 0
0, 0
0, 0
0, 0
0, 0
0, 0
0, 0
0, 0
0, 0
0, 0
0, 0
0, 0
0, 0
0, 0
0, 0
0, 0
0, 0
0, 0
0, 0
0, 0
0, 0
0, 0
0, 0
0, 0
0, 0
0, 0
0, 0
0, 0
0, 0
0, 0
0, 0
0, 0
0, 0
0, 0
0, 0
0, 0
0, 0
0, 0
0, 0
0, 0
0, 0
0, 0
0, 0
0, 0
0, 0
0, 0
0, 0
0, 0
0, 0
0, 0
0, 0
0, 0
0, 0
0, 0
0, 0
0, 0
0, 0
0, 0
0, 0
0, 0
0, 0
0, 0
0, 0
0, 0
0, 0
0, 0
0, 0
0, 0
0, 0
0, 0
0, 0
0, 0
0, 0
0, 0
0, 0
0, 0
0, 0
0, 0
0, 0
0, 0
0, 0
0, 0
0, 0
0, 0
0, 0
0, 0
0, 0
0, 0
0, 0
0, 0
0, 0
0, 0
0, 0
0, 0
0, 0
0, 0
0, 0
0, 0
0, 0
0, 0
0, 0
0, 0
0, 0
0, 0
0, 0
0, 0
0, 0
0, 0
0, 0
0, 0
0, 0
0, 0
0, 0
0, 0
0, 0
0, 0
0, 0
0, 0
0, 0
0, 0
0, 0
0, 0
0, 0
0, 0
0, 0
0, 0
0, 0
0, 0
0, 0
0, 0
0, 0
0, 0
0, 0
0, 0
0, 0
0, 0
0, 0
0, 0
0, 0
0, 0
0, 0
0, 0
0, 0
0, 0
0, 0
0, 0
0, 0
0, 0
0, 0
0, 0
0, 0
0, 0
0, 0
0, 0
0, 0
0, 0
0, 0
0, 0
0, 0
0, 0
0, 0
0, 0
0, 0
0, 0
0, 0
0, 0
0, 0
0, 0
#ENDOFDATA     end of spectrum data