File: host_upload/02-11-2024/rqc/uplink1/ps__0567_0717304816_000rfs_shot_357.msa
#FORMAT      : EMSA/MAS spectral data file
#VERSION     : TC202v2.0 PIXL
#TITLE       : Novarupta (sol567) subset1
#DATE        : 02-11-2024      Date in the format DD-MMM-YYYY, for example 07-JUL-2010
#TIME        :             The time of day at which the spectrum was recorded, in 24-hour format
#OWNER       : PIXL Flight Model       (PIXL will use this to indicate which instrument took the data.)
#NPOINTS     : 4096     Number of data points in the spectrum (This can be zero for configuration only files)
#NCOLUMNS    : 2     Number of data columns in the spectrum (This can be zero for configuration only files)
#XUNITS      : eV
#YUNITS      : COUNTS
#DATATYPE    : YY
#XPERCHAN    : 7.862, 7.881   eV per channel (separate by commas if more than one detector)
#OFFSET      : 18.5, -22.4         eV of first channel  (separate by commas if more than one detector
#SIGNALTYPE  : XRF
#YP_TEMP     : 1.626
#LIVETIME    : 8.8299, 8.81104   seconds (separate by commas if more than one detector)
#REALTIME    : 10, 10.0   seconds (separate by commas if more than one detector)
#SPECTRUM    : start of spectrum data
0, 0
0, 0
0, 0
0, 0
0, 0
0, 0
0, 0
0, 0
0, 0
0, 0
0, 0
0, 0
0, 0
0, 0
0, 0
0, 0
0, 0
0, 0
0, 0
0, 0
0, 0
0, 0
0, 0
0, 0
0, 0
0, 0
0, 0
0, 0
0, 0
0, 0
1, 0
1, 0
0, 0
0, 1
1, 2
1, 0
1, 1
6, 3
4, 6
2, 2
4, 1
4, 2
4, 2
2, 4
4, 2
4, 0
3, 3
7, 4
4, 3
6, 7
4, 3
9, 7
11, 18
10, 12
16, 22
12, 16
15, 19
7, 15
13, 11
8, 17
19, 13
27, 26
43, 46
48, 52
55, 46
32, 60
31, 44
29, 34
30, 36
64, 74
100, 142
196, 209
285, 367
384, 485
462, 527
463, 536
413, 473
321, 349
240, 219
146, 160
81, 94
43, 49
44, 36
31, 33
25, 40
36, 31
30, 45
31, 37
19, 32
15, 19
21, 15
13, 18
23, 32
50, 44
69, 103
131, 146
200, 223
237, 289
290, 326
283, 331
253, 283
205, 212
154, 168
118, 111
78, 81
41, 60
52, 54
58, 70
88, 103
124, 156
152, 205
207, 225
191, 249
228, 255
208, 212
167, 190
130, 134
102, 123
80, 95
88, 94
72, 90
66, 74
73, 78
50, 71
41, 43
34, 44
26, 21
19, 18
28, 13
15, 20
12, 17
10, 7
4, 12
3, 9
5, 8
11, 15
9, 11
10, 19
17, 19
23, 22
14, 20
36, 35
22, 22
28, 19
20, 24
13, 16
10, 29
5, 12
8, 9
15, 20
30, 31
48, 64
71, 123
137, 168
203, 237
270, 342
316, 381
359, 387
308, 394
307, 313
240, 254
172, 167
108, 112
57, 47
42, 41
24, 43
24, 32
31, 33
37, 37
50, 49
59, 62
50, 53
59, 63
67, 46
42, 31
22, 29
20, 20
10, 15
4, 15
9, 9
9, 7
4, 9
8, 11
17, 9
8, 15
15, 15
19, 26
14, 22
20, 46
46, 45
50, 78
51, 65
51, 68
72, 61
50, 55
36, 46
31, 43
29, 31
25, 25
15, 20
23, 17
14, 14
13, 18
15, 11
13, 11
20, 9
12, 19
17, 22
13, 30
16, 17
27, 23
21, 19
22, 16
10, 15
20, 13
18, 8
12, 14
15, 13
11, 13
12, 12
10, 11
9, 16
14, 9
9, 12
11, 12
18, 21
15, 22
22, 24
26, 30
31, 34
26, 40
26, 32
26, 21
22, 34
27, 19
22, 15
18, 14
11, 18
7, 9
12, 10
12, 15
10, 16
8, 13
15, 21
12, 24
17, 33
21, 22
33, 49
34, 43
37, 54
40, 63
43, 63
47, 41
45, 43
36, 39
24, 32
22, 24
27, 32
18, 27
18, 15
21, 24
26, 29
43, 57
63, 97
111, 170
202, 257
352, 480
520, 733
813, 1126
1149, 1513
1354, 1672
1678, 1861
1703, 1887
1562, 1795
1493, 1477
1134, 1190
867, 862
593, 543
404, 334
223, 182
100, 95
61, 52
35, 44
23, 23
17, 15
13, 23
12, 11
16, 13
24, 26
17, 16
27, 29
28, 38
28, 51
49, 80
85, 91
121, 142
154, 195
194, 251
222, 284
249, 298
234, 285
231, 250
210, 219
181, 171
137, 129
90, 90
66, 53
38, 35
23, 18
17, 21
9, 12
10, 15
8, 6
3, 16
12, 13
11, 12
5, 14
6, 9
12, 15
18, 9
14, 6
7, 16
3, 11
8, 6
7, 6
2, 11
9, 2
4, 10
6, 5
8, 7
9, 4
2, 5
9, 3
8, 8
6, 3
5, 5
6, 4
4, 14
3, 6
10, 5
3, 5
6, 13
6, 7
5, 5
3, 9
6, 11
4, 12
10, 6
8, 8
8, 6
11, 9
7, 6
5, 6
6, 4
7, 10
4, 0
2, 10
5, 7
14, 6
10, 6
9, 13
4, 7
12, 11
4, 11
8, 20
7, 8
13, 12
5, 18
10, 18
14, 5
11, 12
15, 6
9, 7
3, 4
9, 4
8, 8
4, 5
4, 7
9, 6
5, 9
4, 4
1, 10
5, 2
5, 5
5, 6
4, 8
6, 5
8, 11
6, 8
8, 4
10, 6
2, 2
5, 6
6, 8
7, 7
8, 9
6, 5
8, 5
5, 8
5, 6
7, 5
5, 11
10, 3
6, 5
3, 6
7, 8
4, 8
7, 4
4, 4
1, 8
6, 5
3, 9
6, 9
8, 4
4, 5
4, 8
6, 8
3, 2
3, 7
4, 4
2, 3
4, 3
5, 7
2, 2
3, 5
6, 7
2, 3
4, 4
5, 3
3, 8
4, 4
6, 7
3, 4
5, 8
2, 5
7, 5
2, 4
5, 6
3, 2
1, 3
6, 6
3, 3
7, 3
3, 3
2, 3
3, 5
1, 5
1, 6
1, 2
2, 3
1, 4
1, 1
1, 1
4, 1
6, 1
4, 3
4, 2
4, 8
6, 2
5, 4
2, 3
6, 3
4, 0
5, 6
2, 4
5, 6
0, 4
4, 1
1, 0
3, 4
2, 6
2, 2
3, 4
2, 5
1, 4
0, 8
4, 2
4, 3
4, 9
2, 5
3, 5
0, 4
5, 2
3, 1
1, 3
3, 4
0, 1
4, 5
2, 3
2, 2
1, 8
4, 4
5, 6
2, 6
1, 2
8, 3
3, 2
2, 2
3, 2
3, 6
3, 3
2, 2
1, 4
5, 3
1, 4
0, 1
1, 6
3, 3
2, 3
3, 5
3, 3
1, 5
1, 1
1, 2
1, 1
1, 2
3, 1
3, 2
2, 3
1, 3
3, 0
0, 3
0, 2
6, 2
3, 4
2, 1
1, 3
3, 2
1, 0
2, 0
2, 2
3, 3
4, 2
3, 3
4, 5
4, 2
0, 0
0, 0
0, 3
1, 1
0, 1
4, 3
4, 6
2, 1
2, 6
3, 1
1, 3
2, 7
1, 3
2, 4
3, 6
1, 1
0, 1
1, 2
1, 1
1, 3
2, 0
2, 0
2, 1
2, 1
0, 3
2, 0
1, 3
2, 0
3, 1
0, 3
1, 3
3, 1
3, 0
1, 6
2, 2
2, 1
1, 2
0, 4
0, 5
2, 1
0, 0
0, 1
2, 1
2, 2
1, 0
0, 1
2, 1
0, 3
2, 6
1, 0
1, 2
1, 3
0, 3
0, 1
2, 1
1, 1
3, 2
3, 2
1, 0
0, 2
1, 1
1, 3
0, 1
0, 0
2, 1
1, 2
0, 1
1, 0
1, 1
2, 0
1, 0
1, 2
2, 0
0, 2
1, 0
0, 1
0, 0
0, 1
0, 0
4, 2
0, 1
1, 2
1, 0
0, 0
3, 0
1, 1
2, 1
0, 1
0, 0
2, 0
0, 0
0, 1
4, 0
0, 0
0, 0
1, 0
2, 1
0, 2
0, 2
0, 0
0, 2
1, 0
1, 0
0, 1
1, 1
1, 1
0, 0
1, 0
1, 0
0, 0
0, 1
1, 0
1, 1
1, 1
0, 0
0, 1
0, 0
1, 0
3, 1
0, 1
0, 0
1, 0
1, 0
0, 1
0, 2
0, 3
0, 1
1, 1
0, 2
1, 1
0, 0
1, 1
0, 0
0, 0
0, 0
0, 1
0, 0
0, 1
1, 0
1, 2
0, 1
0, 0
0, 1
0, 1
0, 0
0, 1
0, 2
1, 1
0, 0
0, 0
0, 0
1, 0
0, 1
0, 0
0, 0
2, 2
1, 1
0, 0
0, 2
0, 0
0, 1
1, 0
0, 1
1, 0
0, 0
0, 1
1, 0
0, 0
1, 1
0, 1
1, 1
1, 1
0, 2
1, 1
0, 1
0, 1
2, 1
0, 0
0, 1
0, 0
0, 0
0, 0
0, 0
0, 0
0, 0
1, 0
0, 0
0, 1
0, 0
0, 0
0, 1
0, 0
0, 1
0, 0
0, 0
1, 0
0, 0
0, 0
0, 0
0, 0
1, 0
0, 0
0, 0
2, 1
0, 0
1, 0
0, 1
0, 0
0, 1
1, 0
0, 1
0, 0
0, 1
0, 1
0, 1
0, 1
2, 0
0, 1
0, 0
0, 0
0, 1
0, 0
1, 0
1, 0
0, 0
0, 0
0, 1
1, 0
0, 2
0, 0
0, 0
0, 0
0, 0
0, 0
0, 3
0, 0
0, 0
0, 0
0, 0
0, 0
0, 0
0, 0
0, 2
0, 0
1, 0
0, 0
0, 0
1, 0
0, 2
0, 0
0, 1
0, 0
1, 0
0, 0
0, 1
1, 0
0, 0
0, 0
0, 0
0, 0
0, 0
0, 1
1, 1
0, 0
0, 0
0, 0
0, 0
1, 0
0, 1
0, 0
0, 0
0, 0
0, 0
0, 0
0, 0
0, 0
0, 0
0, 0
0, 1
0, 0
0, 0
0, 0
0, 0
0, 0
0, 0
0, 0
0, 1
0, 0
0, 0
0, 0
0, 0
0, 0
0, 0
0, 1
0, 0
1, 0
1, 0
0, 0
0, 0
0, 0
0, 0
0, 0
0, 0
0, 0
0, 0
0, 0
1, 0
0, 0
1, 0
0, 0
1, 0
0, 0
0, 1
0, 0
0, 0
0, 0
0, 0
0, 2
0, 0
0, 1
1, 0
0, 0
0, 0
0, 0
0, 0
0, 0
0, 0
0, 0
1, 0
0, 0
0, 0
0, 0
0, 0
0, 0
1, 0
0, 0
0, 0
0, 0
0, 0
0, 0
0, 0
0, 0
0, 0
0, 0
1, 0
0, 0
0, 0
0, 0
0, 0
0, 0
1, 0
0, 0
0, 0
0, 0
0, 0
0, 0
0, 0
0, 0
0, 0
0, 1
0, 0
0, 0
0, 0
0, 0
0, 0
0, 0
1, 0
0, 0
0, 0
0, 0
0, 0
0, 0
0, 0
0, 0
1, 0
0, 0
0, 0
0, 1
0, 0
0, 0
0, 0
0, 0
0, 0
0, 0
0, 0
0, 0
0, 0
0, 0
0, 0
0, 0
0, 0
0, 0
0, 0
0, 0
0, 0
0, 0
0, 0
0, 0
0, 0
0, 0
0, 1
0, 0
0, 0
0, 0
0, 0
0, 0
0, 1
0, 0
0, 0
0, 0
0, 0
0, 0
0, 0
0, 0
0, 0
0, 0
0, 0
0, 0
0, 0
0, 0
0, 0
0, 0
0, 0
0, 0
0, 0
0, 0
0, 0
0, 0
0, 0
0, 0
0, 1
0, 0
0, 0
0, 0
0, 0
0, 0
0, 0
0, 0
0, 0
0, 0
0, 0
0, 0
0, 0
0, 0
0, 0
0, 0
0, 0
0, 0
0, 0
0, 0
0, 0
0, 0
0, 0
0, 0
0, 0
0, 0
0, 0
0, 0
0, 0
0, 0
0, 0
0, 0
0, 0
0, 0
0, 0
0, 0
0, 0
0, 0
0, 0
0, 0
0, 0
0, 0
0, 0
0, 0
0, 0
0, 0
0, 0
0, 0
0, 0
0, 0
0, 0
0, 0
0, 0
0, 0
0, 0
1, 0
0, 0
0, 0
0, 0
0, 0
0, 0
0, 0
0, 0
0, 0
0, 0
0, 0
0, 0
0, 0
0, 0
0, 0
0, 0
0, 0
0, 0
0, 0
0, 0
0, 0
0, 0
0, 0
0, 0
0, 0
0, 0
0, 0
0, 0
0, 0
0, 0
0, 0
0, 0
0, 0
0, 0
0, 0
0, 0
0, 0
0, 0
0, 0
0, 0
0, 0
0, 0
0, 0
0, 0
0, 0
0, 0
0, 0
0, 0
0, 0
0, 0
0, 0
0, 0
0, 0
0, 0
0, 0
0, 0
0, 0
0, 0
0, 0
0, 0
0, 0
0, 0
0, 0
0, 0
0, 0
0, 0
0, 0
0, 0
0, 0
0, 0
0, 0
0, 0
0, 0
0, 0
0, 0
0, 0
0, 0
0, 0
0, 0
0, 0
0, 0
0, 0
0, 0
0, 0
0, 0
0, 0
0, 0
0, 0
0, 0
0, 0
0, 0
0, 0
0, 0
0, 0
0, 0
0, 0
0, 0
0, 0
0, 0
0, 0
0, 0
0, 0
0, 0
0, 0
0, 0
0, 0
0, 0
0, 0
0, 0
0, 0
0, 0
0, 0
0, 0
0, 0
0, 0
0, 0
0, 0
0, 0
0, 0
0, 0
0, 0
0, 0
0, 0
0, 0
0, 0
0, 0
0, 0
0, 0
0, 0
0, 0
0, 0
0, 0
0, 0
0, 0
0, 0
0, 0
0, 0
0, 0
0, 0
0, 0
0, 0
0, 0
0, 0
0, 0
0, 0
0, 0
0, 0
0, 0
0, 0
0, 0
0, 0
0, 0
0, 0
0, 0
0, 0
0, 0
0, 0
0, 0
0, 0
0, 0
0, 0
0, 0
0, 0
0, 0
0, 0
0, 0
0, 0
0, 0
0, 0
0, 0
0, 0
0, 0
0, 0
0, 0
0, 0
0, 0
0, 0
0, 0
0, 0
0, 0
0, 0
0, 0
0, 0
0, 0
0, 0
0, 0
0, 0
0, 0
0, 0
0, 0
0, 0
0, 0
0, 0
0, 0
0, 0
0, 0
0, 0
0, 0
0, 0
0, 0
0, 0
0, 0
0, 0
0, 0
0, 0
0, 0
0, 0
0, 0
0, 0
0, 0
0, 0
0, 0
0, 0
0, 0
0, 0
0, 0
0, 0
0, 0
0, 0
0, 0
0, 0
0, 0
0, 0
0, 0
0, 0
0, 0
0, 0
0, 0
0, 0
0, 0
0, 0
0, 0
0, 0
0, 0
0, 0
0, 0
0, 0
0, 0
0, 0
0, 0
0, 0
0, 0
0, 0
0, 0
0, 0
0, 0
0, 0
0, 0
0, 0
0, 0
0, 0
0, 0
0, 0
0, 0
0, 0
0, 0
0, 0
0, 0
0, 0
0, 0
0, 0
0, 0
0, 0
0, 0
0, 0
0, 0
0, 0
0, 0
0, 0
0, 0
0, 0
0, 0
0, 0
0, 0
0, 0
0, 0
0, 0
0, 0
0, 0
0, 0
0, 0
0, 0
0, 0
0, 0
0, 0
0, 0
0, 0
0, 0
0, 0
0, 0
0, 0
0, 0
0, 0
0, 0
0, 0
0, 0
0, 0
0, 0
0, 0
0, 0
0, 0
0, 0
0, 0
0, 0
0, 0
0, 0
0, 0
0, 0
0, 0
0, 0
0, 0
0, 0
0, 0
0, 0
0, 0
0, 0
0, 0
0, 0
0, 0
0, 0
0, 0
0, 0
0, 0
0, 0
0, 0
0, 0
0, 0
0, 0
0, 0
0, 0
0, 0
0, 0
0, 0
0, 0
0, 0
0, 0
0, 0
0, 0
0, 0
0, 0
0, 0
0, 0
0, 0
0, 0
0, 0
#ENDOFDATA     end of spectrum data