File: host_upload/02-11-2024/rqc/uplink1/ps__0567_0717304816_000rfs_shot_238.msa
#FORMAT      : EMSA/MAS spectral data file
#VERSION     : TC202v2.0 PIXL
#TITLE       : Novarupta (sol567) subset1
#DATE        : 02-11-2024      Date in the format DD-MMM-YYYY, for example 07-JUL-2010
#TIME        :             The time of day at which the spectrum was recorded, in 24-hour format
#OWNER       : PIXL Flight Model       (PIXL will use this to indicate which instrument took the data.)
#NPOINTS     : 4096     Number of data points in the spectrum (This can be zero for configuration only files)
#NCOLUMNS    : 2     Number of data columns in the spectrum (This can be zero for configuration only files)
#XUNITS      : eV
#YUNITS      : COUNTS
#DATATYPE    : YY
#XPERCHAN    : 7.862, 7.881   eV per channel (separate by commas if more than one detector)
#OFFSET      : 18.5, -22.4         eV of first channel  (separate by commas if more than one detector
#SIGNALTYPE  : XRF
#YP_TEMP     : 1.049
#LIVETIME    : 8.84038, 8.81105   seconds (separate by commas if more than one detector)
#REALTIME    : 10, 10.0   seconds (separate by commas if more than one detector)
#SPECTRUM    : start of spectrum data
0, 0
0, 0
0, 0
0, 0
0, 0
0, 0
0, 0
0, 0
0, 0
0, 0
0, 0
0, 0
0, 0
0, 0
0, 0
0, 0
0, 0
0, 0
0, 0
0, 0
0, 0
0, 0
0, 0
0, 0
0, 0
0, 0
0, 0
0, 0
0, 0
0, 0
1, 0
0, 0
0, 1
1, 1
1, 1
2, 1
0, 2
3, 0
4, 4
3, 5
1, 4
2, 4
2, 2
2, 3
2, 6
3, 2
4, 3
2, 6
3, 2
4, 8
4, 3
13, 12
14, 13
22, 11
17, 18
13, 12
13, 13
10, 14
11, 12
8, 14
14, 21
28, 39
36, 32
48, 58
45, 57
47, 47
42, 46
34, 33
39, 53
50, 57
95, 147
153, 217
285, 333
385, 438
484, 518
462, 495
407, 401
353, 328
243, 252
130, 135
64, 79
53, 41
32, 38
27, 36
27, 36
27, 40
25, 36
30, 30
17, 28
13, 21
19, 22
16, 23
28, 17
36, 58
82, 72
129, 147
187, 226
248, 272
317, 357
278, 339
261, 285
196, 217
132, 189
109, 94
61, 62
56, 47
67, 59
73, 93
78, 103
122, 129
168, 177
178, 216
196, 252
209, 253
182, 208
150, 154
119, 131
101, 98
80, 90
85, 73
72, 70
61, 78
67, 56
53, 57
38, 38
30, 27
27, 35
23, 18
15, 15
8, 17
11, 9
12, 8
4, 8
7, 3
7, 10
5, 8
9, 11
11, 18
14, 21
26, 27
26, 24
25, 33
22, 26
16, 18
20, 21
9, 10
13, 15
8, 7
12, 9
16, 15
33, 35
55, 61
95, 79
126, 171
196, 218
294, 297
332, 407
347, 389
314, 377
277, 315
213, 255
167, 179
103, 101
54, 62
48, 27
26, 22
15, 28
28, 30
38, 56
53, 59
56, 63
64, 54
51, 46
49, 60
39, 33
25, 23
24, 19
7, 10
14, 10
5, 9
7, 4
11, 7
7, 8
14, 13
15, 8
10, 9
20, 28
19, 28
30, 27
31, 41
49, 59
67, 65
70, 60
71, 60
68, 59
43, 48
33, 33
23, 24
21, 27
15, 21
14, 16
15, 20
19, 8
10, 8
18, 18
18, 17
11, 17
13, 20
21, 18
22, 20
15, 26
19, 17
19, 19
23, 12
16, 11
13, 20
13, 13
11, 8
12, 12
7, 17
9, 12
11, 14
18, 8
10, 16
5, 20
19, 18
25, 16
19, 36
24, 43
37, 27
33, 27
35, 42
22, 37
17, 27
22, 20
22, 17
14, 14
14, 15
6, 13
12, 9
9, 16
8, 7
11, 5
14, 8
12, 17
17, 19
23, 36
32, 28
33, 29
35, 49
62, 64
52, 51
39, 57
39, 38
46, 27
30, 44
23, 38
16, 22
11, 15
20, 20
16, 27
27, 33
42, 54
73, 89
121, 151
210, 279
341, 494
583, 736
849, 1100
1092, 1358
1437, 1647
1612, 1878
1689, 1867
1612, 1769
1432, 1466
1141, 1111
829, 777
534, 512
374, 319
214, 177
130, 99
61, 52
40, 45
17, 21
25, 25
23, 21
4, 22
23, 19
13, 17
17, 26
36, 23
30, 34
32, 43
55, 74
82, 105
96, 134
157, 195
208, 234
231, 257
260, 267
237, 285
243, 255
234, 201
170, 182
131, 102
81, 75
58, 49
41, 33
17, 16
23, 9
9, 8
11, 13
2, 15
14, 9
11, 7
11, 10
10, 17
21, 19
16, 11
12, 12
9, 9
7, 9
7, 8
7, 6
8, 4
7, 5
6, 14
5, 1
9, 3
3, 0
8, 7
7, 7
7, 7
6, 11
4, 4
7, 5
6, 10
5, 4
6, 8
5, 7
7, 6
5, 6
4, 6
8, 9
4, 4
12, 6
8, 4
7, 11
4, 5
9, 4
9, 6
3, 7
5, 9
5, 8
5, 5
7, 5
5, 6
6, 4
10, 5
3, 6
5, 8
11, 8
13, 9
9, 11
8, 12
7, 14
10, 10
16, 13
7, 11
10, 11
8, 8
10, 5
8, 12
3, 8
5, 3
6, 4
8, 7
7, 8
5, 4
7, 5
5, 2
5, 6
4, 12
2, 6
5, 7
4, 8
8, 3
8, 3
5, 4
3, 4
8, 6
3, 6
6, 5
8, 10
8, 6
7, 1
7, 4
1, 3
9, 5
5, 6
4, 3
5, 1
3, 1
5, 7
7, 4
9, 4
5, 6
3, 8
7, 7
7, 4
4, 1
6, 3
1, 6
3, 4
10, 7
5, 9
2, 5
3, 7
5, 3
3, 7
1, 4
5, 2
3, 1
4, 6
3, 5
3, 9
6, 2
7, 5
0, 6
0, 4
6, 2
4, 6
8, 2
4, 7
2, 0
0, 3
4, 3
3, 6
2, 7
2, 1
6, 3
4, 6
6, 3
5, 5
4, 4
1, 2
6, 4
2, 3
9, 3
1, 4
3, 5
4, 3
1, 5
1, 8
4, 3
4, 1
5, 3
4, 4
4, 2
2, 5
7, 1
4, 2
5, 1
1, 3
2, 2
0, 3
1, 3
3, 2
6, 6
5, 4
0, 2
4, 3
4, 2
1, 5
3, 3
2, 6
4, 2
4, 2
2, 2
4, 4
1, 4
2, 5
3, 5
1, 3
4, 5
0, 4
1, 5
0, 1
2, 6
1, 3
4, 2
1, 2
3, 4
0, 2
1, 3
1, 3
0, 4
2, 2
2, 5
1, 0
3, 0
3, 3
1, 0
1, 3
2, 6
3, 1
1, 2
0, 3
2, 0
2, 4
3, 1
2, 2
2, 1
2, 2
1, 7
0, 2
2, 3
1, 3
0, 1
3, 2
2, 4
2, 2
2, 3
4, 2
4, 0
1, 0
2, 0
2, 2
3, 2
0, 1
1, 1
1, 2
0, 0
1, 3
1, 3
1, 3
3, 7
5, 1
3, 5
4, 3
4, 3
2, 1
4, 3
1, 1
2, 4
3, 1
3, 3
1, 4
5, 3
0, 1
2, 3
2, 2
1, 1
2, 2
1, 0
1, 0
2, 2
4, 1
0, 3
1, 2
1, 2
1, 1
2, 0
0, 1
2, 3
1, 1
4, 0
4, 1
1, 2
1, 1
4, 2
1, 3
1, 1
2, 1
1, 1
0, 1
1, 1
1, 2
1, 1
0, 1
0, 0
3, 0
2, 1
1, 1
1, 1
1, 1
0, 1
1, 1
1, 0
2, 3
0, 0
0, 2
2, 2
0, 2
2, 1
0, 0
0, 2
1, 0
3, 1
0, 0
1, 0
5, 0
2, 2
2, 1
1, 2
1, 0
1, 1
1, 2
0, 0
1, 1
2, 0
1, 0
0, 1
1, 1
0, 1
1, 0
1, 1
1, 1
1, 0
1, 3
0, 0
1, 1
2, 0
0, 1
2, 1
1, 0
2, 1
1, 4
1, 0
1, 1
0, 0
0, 1
0, 1
0, 0
0, 1
1, 3
0, 0
1, 3
1, 2
0, 2
2, 1
2, 0
0, 0
2, 1
2, 0
0, 0
2, 2
1, 2
1, 1
2, 1
1, 1
1, 0
1, 1
1, 0
0, 1
1, 0
1, 4
1, 1
1, 0
2, 3
0, 0
1, 0
0, 1
4, 0
0, 0
0, 0
0, 1
0, 1
0, 0
1, 0
1, 0
0, 1
0, 0
0, 0
0, 0
0, 1
0, 0
0, 0
0, 0
0, 0
0, 0
0, 1
0, 0
0, 0
2, 0
1, 1
0, 0
0, 1
0, 0
2, 0
0, 0
1, 0
0, 1
0, 0
0, 2
1, 1
0, 0
1, 0
0, 0
1, 0
1, 0
1, 1
0, 0
0, 0
1, 0
0, 0
1, 0
1, 1
0, 1
1, 0
0, 0
0, 1
0, 1
0, 0
0, 1
0, 2
0, 0
0, 0
2, 0
0, 0
0, 0
0, 1
0, 0
0, 0
0, 0
1, 0
0, 1
0, 0
0, 0
0, 0
0, 0
0, 0
0, 0
0, 0
1, 2
0, 1
1, 1
0, 0
0, 0
0, 0
0, 0
0, 0
0, 0
0, 0
0, 0
0, 0
1, 0
1, 1
0, 0
0, 0
0, 0
0, 0
0, 0
0, 1
0, 0
0, 0
0, 1
1, 0
0, 0
0, 0
0, 0
0, 0
0, 0
0, 0
0, 0
0, 1
0, 1
0, 0
0, 0
0, 0
0, 0
0, 0
0, 0
0, 1
0, 0
1, 1
1, 2
0, 0
1, 0
1, 0
0, 0
0, 0
1, 1
1, 0
0, 0
2, 1
0, 1
1, 0
0, 0
0, 0
1, 0
0, 0
0, 1
1, 0
0, 1
0, 1
0, 0
0, 0
0, 0
0, 2
0, 0
0, 0
0, 0
0, 0
1, 0
0, 0
0, 0
0, 0
0, 0
0, 0
0, 0
2, 0
0, 1
0, 0
0, 0
0, 0
0, 0
0, 0
0, 1
0, 0
0, 1
0, 0
0, 0
1, 0
0, 0
0, 0
0, 1
1, 0
0, 0
0, 0
0, 0
0, 0
0, 0
0, 0
0, 1
0, 0
0, 0
0, 0
0, 0
0, 0
0, 0
0, 0
0, 1
0, 0
0, 0
0, 0
0, 0
0, 0
1, 0
0, 1
0, 1
0, 0
1, 0
1, 0
0, 0
0, 0
0, 1
1, 0
1, 0
0, 0
0, 1
1, 0
0, 0
0, 0
0, 0
0, 0
0, 0
0, 1
0, 0
0, 1
0, 0
1, 0
1, 0
0, 0
0, 0
0, 0
0, 1
1, 0
0, 1
0, 0
0, 0
0, 0
0, 0
0, 0
0, 1
0, 0
1, 0
0, 0
1, 0
1, 0
0, 0
0, 0
0, 0
0, 0
0, 0
0, 0
0, 0
0, 0
0, 0
0, 0
0, 0
0, 1
0, 0
0, 0
0, 0
1, 0
0, 0
0, 0
0, 0
0, 0
0, 0
0, 0
0, 0
0, 0
0, 0
0, 0
0, 0
0, 0
0, 0
0, 0
0, 0
0, 1
0, 0
0, 0
0, 0
0, 0
0, 0
0, 0
0, 0
0, 0
0, 0
0, 0
0, 0
0, 0
0, 0
0, 0
0, 0
0, 0
0, 0
0, 0
0, 0
0, 0
0, 0
0, 0
0, 0
0, 0
0, 0
0, 1
0, 0
0, 0
0, 0
0, 0
0, 0
0, 0
0, 0
0, 0
0, 0
0, 0
0, 0
0, 0
1, 0
0, 0
0, 1
0, 0
0, 0
1, 0
0, 0
0, 0
0, 0
0, 0
0, 0
0, 1
0, 1
0, 0
0, 0
0, 0
0, 0
0, 0
0, 0
0, 0
0, 0
0, 0
0, 0
0, 0
0, 0
0, 0
0, 0
0, 0
0, 0
0, 0
0, 0
0, 0
0, 0
0, 0
0, 0
0, 0
0, 0
0, 0
0, 0
0, 0
0, 0
0, 0
0, 0
0, 0
0, 0
0, 0
0, 0
0, 0
0, 0
0, 0
0, 0
0, 0
0, 0
0, 0
0, 0
0, 0
0, 0
0, 0
0, 1
0, 0
0, 0
0, 0
0, 0
0, 0
0, 0
0, 0
0, 0
0, 0
0, 0
0, 0
0, 0
0, 0
0, 0
0, 0
0, 0
0, 0
0, 0
0, 0
0, 0
0, 0
0, 0
0, 0
0, 0
0, 0
0, 0
0, 0
0, 0
0, 0
0, 0
0, 0
0, 0
0, 0
0, 0
0, 0
0, 0
0, 0
0, 0
0, 0
0, 0
0, 0
0, 0
0, 0
0, 0
0, 0
0, 0
0, 0
0, 0
0, 0
0, 0
0, 0
0, 0
0, 0
0, 0
0, 0
0, 0
0, 0
0, 0
0, 0
0, 0
0, 0
0, 0
0, 0
0, 0
0, 0
0, 0
0, 0
0, 0
0, 0
0, 0
0, 0
0, 0
0, 0
0, 0
0, 0
0, 0
0, 0
0, 0
0, 0
0, 0
0, 0
0, 0
0, 0
0, 0
0, 0
0, 0
0, 0
0, 0
0, 0
0, 0
0, 0
0, 0
0, 0
0, 0
0, 0
0, 0
0, 0
0, 0
0, 0
0, 0
0, 0
0, 0
0, 0
0, 0
0, 0
0, 0
0, 0
0, 0
0, 0
0, 0
0, 0
0, 0
0, 0
0, 0
0, 0
0, 0
0, 0
0, 0
0, 0
0, 0
0, 0
0, 0
0, 0
0, 0
0, 0
0, 0
0, 0
0, 0
0, 0
0, 0
0, 0
0, 0
0, 0
0, 0
0, 0
0, 0
0, 0
0, 0
0, 0
0, 0
0, 0
0, 0
0, 0
0, 0
0, 0
0, 0
0, 0
0, 0
0, 0
0, 0
0, 0
0, 0
0, 0
0, 0
0, 0
0, 0
0, 0
0, 0
0, 0
0, 0
0, 0
0, 0
0, 0
0, 0
0, 0
0, 0
0, 0
0, 0
0, 0
0, 0
0, 0
0, 0
0, 0
0, 0
0, 0
0, 0
0, 0
0, 0
0, 0
0, 0
0, 0
0, 0
0, 0
0, 0
0, 0
0, 0
0, 0
0, 0
0, 0
0, 0
0, 0
0, 0
0, 0
0, 0
0, 0
0, 0
0, 0
0, 0
0, 0
0, 0
0, 0
0, 0
0, 0
0, 0
0, 0
0, 0
0, 0
0, 0
0, 0
0, 0
0, 0
0, 0
0, 0
0, 0
0, 0
0, 0
0, 0
0, 0
0, 0
0, 0
0, 0
0, 0
0, 0
0, 0
0, 0
0, 0
0, 0
0, 0
0, 0
0, 0
0, 0
0, 0
0, 0
0, 0
0, 0
0, 0
0, 0
0, 0
0, 0
0, 0
0, 0
0, 0
0, 0
0, 0
0, 0
0, 0
0, 0
0, 0
0, 0
0, 0
0, 0
0, 0
0, 0
0, 0
0, 0
0, 0
0, 0
0, 0
0, 0
0, 0
0, 0
0, 0
0, 0
0, 0
0, 0
0, 0
0, 0
0, 0
0, 0
0, 0
0, 0
0, 0
0, 0
0, 0
0, 0
0, 0
0, 0
0, 0
0, 0
0, 0
0, 0
0, 0
0, 0
0, 0
0, 0
0, 0
0, 0
0, 0
0, 0
0, 0
0, 0
0, 0
0, 0
0, 0
0, 0
0, 0
0, 0
0, 0
0, 0
0, 0
0, 0
0, 0
0, 0
0, 0
0, 0
0, 0
0, 0
0, 0
0, 0
0, 0
0, 0
0, 0
0, 0
0, 0
0, 0
0, 0
0, 0
0, 0
0, 0
0, 0
0, 0
0, 0
0, 0
0, 0
0, 0
0, 0
0, 0
0, 0
0, 0
0, 0
0, 0
0, 0
0, 0
0, 0
0, 0
0, 0
0, 0
0, 0
0, 0
0, 0
0, 0
0, 0
0, 0
0, 0
0, 0
0, 0
0, 0
#ENDOFDATA     end of spectrum data