File: host_upload/02-11-2024/rqc/uplink1/ps__0567_0717304816_000rfs_shot_181.msa
#FORMAT      : EMSA/MAS spectral data file
#VERSION     : TC202v2.0 PIXL
#TITLE       : Novarupta (sol567) subset1
#DATE        : 02-11-2024      Date in the format DD-MMM-YYYY, for example 07-JUL-2010
#TIME        :             The time of day at which the spectrum was recorded, in 24-hour format
#OWNER       : PIXL Flight Model       (PIXL will use this to indicate which instrument took the data.)
#NPOINTS     : 4096     Number of data points in the spectrum (This can be zero for configuration only files)
#NCOLUMNS    : 2     Number of data columns in the spectrum (This can be zero for configuration only files)
#XUNITS      : eV
#YUNITS      : COUNTS
#DATATYPE    : YY
#XPERCHAN    : 7.862, 7.881   eV per channel (separate by commas if more than one detector)
#OFFSET      : 18.5, -22.4         eV of first channel  (separate by commas if more than one detector
#SIGNALTYPE  : XRF
#YP_TEMP     : 0.375
#LIVETIME    : 8.82591, 8.82081   seconds (separate by commas if more than one detector)
#REALTIME    : 10, 10.0   seconds (separate by commas if more than one detector)
#SPECTRUM    : start of spectrum data
0, 0
0, 0
0, 0
0, 0
0, 0
0, 0
0, 0
0, 0
0, 0
0, 0
0, 0
0, 0
0, 0
0, 0
0, 0
0, 0
0, 0
0, 0
0, 0
0, 0
0, 0
0, 0
0, 0
0, 0
0, 0
0, 0
0, 0
0, 0
0, 0
0, 0
1, 0
2, 0
0, 2
0, 0
1, 1
3, 1
1, 4
6, 5
5, 4
3, 3
4, 5
4, 3
5, 6
4, 2
2, 3
2, 3
0, 5
3, 6
4, 1
4, 3
6, 7
12, 8
9, 9
17, 13
11, 26
21, 14
9, 17
12, 9
13, 9
11, 13
19, 14
23, 28
46, 42
54, 47
68, 52
40, 51
37, 28
25, 36
47, 35
75, 63
109, 136
198, 209
270, 310
372, 424
482, 494
523, 516
431, 430
323, 333
230, 222
160, 133
88, 96
46, 48
32, 43
31, 41
32, 33
29, 41
34, 40
32, 28
33, 24
30, 19
13, 13
15, 18
22, 18
39, 40
84, 96
130, 140
187, 220
264, 292
313, 334
291, 331
291, 277
223, 220
175, 149
104, 98
75, 66
58, 54
59, 49
65, 86
89, 115
139, 157
181, 193
205, 239
237, 255
217, 257
214, 218
193, 204
140, 160
105, 107
90, 80
80, 88
77, 75
74, 68
58, 81
41, 51
50, 59
32, 36
33, 32
26, 21
19, 24
8, 13
16, 8
7, 11
6, 12
9, 3
10, 8
7, 10
6, 14
6, 9
15, 19
30, 23
26, 42
24, 35
24, 31
21, 22
22, 22
25, 17
13, 12
9, 8
11, 16
14, 26
24, 27
49, 65
90, 89
151, 152
202, 243
286, 326
339, 391
339, 403
368, 371
314, 308
250, 213
147, 178
115, 102
60, 63
34, 31
32, 25
35, 25
34, 39
37, 46
48, 65
58, 56
52, 76
45, 59
43, 43
31, 40
25, 30
15, 20
12, 12
6, 10
4, 9
12, 4
8, 5
11, 9
16, 6
17, 10
8, 16
22, 20
26, 28
25, 33
44, 45
51, 45
63, 68
65, 79
51, 61
55, 59
39, 36
32, 30
27, 27
29, 28
16, 19
13, 20
16, 18
16, 12
13, 13
9, 13
11, 18
8, 14
13, 25
17, 16
19, 17
16, 18
20, 14
19, 24
12, 20
13, 15
4, 16
7, 8
9, 8
9, 18
13, 10
17, 12
13, 17
13, 13
9, 13
10, 21
21, 16
21, 20
20, 21
30, 29
37, 25
29, 19
43, 29
31, 29
25, 26
21, 24
22, 14
18, 20
16, 14
13, 11
5, 11
13, 16
13, 15
8, 12
19, 14
10, 11
21, 25
27, 29
29, 25
38, 41
50, 42
53, 56
56, 56
42, 57
40, 32
36, 34
20, 28
30, 25
19, 18
19, 26
10, 16
16, 14
22, 30
50, 42
70, 82
116, 173
213, 266
359, 485
636, 772
910, 1063
1191, 1407
1443, 1693
1654, 1862
1721, 1862
1642, 1640
1487, 1383
1161, 1045
833, 797
596, 519
371, 310
202, 178
136, 81
70, 46
38, 42
29, 21
10, 19
17, 22
15, 25
14, 21
14, 17
24, 29
20, 30
33, 32
48, 52
59, 70
91, 91
132, 130
177, 168
188, 218
260, 260
276, 261
266, 278
253, 255
209, 195
202, 156
90, 129
89, 82
60, 44
34, 37
24, 27
15, 14
11, 13
9, 6
10, 9
10, 10
10, 13
9, 12
13, 9
12, 15
14, 12
9, 14
12, 8
15, 9
9, 9
10, 5
10, 9
5, 6
6, 6
8, 5
9, 6
3, 6
7, 0
8, 8
4, 7
7, 7
3, 3
6, 5
8, 7
7, 6
8, 7
7, 7
8, 3
4, 9
6, 8
3, 8
9, 4
5, 7
14, 8
3, 8
6, 7
7, 13
7, 7
4, 7
7, 10
6, 8
4, 9
7, 8
4, 9
4, 8
4, 4
5, 9
7, 8
10, 9
7, 5
6, 9
12, 10
10, 17
4, 10
9, 9
14, 10
17, 19
10, 8
7, 10
3, 7
9, 6
5, 7
3, 8
5, 7
9, 3
9, 2
5, 5
6, 7
5, 4
7, 7
5, 2
6, 5
5, 3
4, 3
4, 5
4, 6
6, 7
6, 4
6, 6
6, 6
6, 3
7, 2
5, 3
3, 4
5, 6
4, 3
2, 6
4, 3
5, 2
8, 4
10, 9
6, 5
3, 5
2, 8
3, 2
7, 5
5, 5
4, 3
4, 7
11, 5
2, 6
5, 6
3, 5
6, 4
3, 3
7, 5
5, 2
4, 8
1, 2
3, 1
4, 3
7, 3
2, 1
1, 3
2, 8
2, 5
6, 6
3, 0
1, 5
2, 4
2, 2
4, 5
3, 5
8, 1
6, 7
4, 3
2, 4
3, 4
3, 5
4, 6
5, 5
3, 3
3, 5
4, 5
4, 0
2, 6
4, 9
3, 3
2, 1
3, 3
5, 2
9, 4
1, 1
3, 3
6, 5
3, 3
6, 6
1, 2
1, 4
4, 2
3, 2
0, 3
4, 1
5, 2
4, 1
3, 0
3, 3
3, 2
1, 6
4, 2
1, 6
4, 5
7, 1
0, 1
5, 3
1, 1
2, 4
4, 4
4, 4
0, 1
2, 2
2, 6
2, 1
6, 3
4, 5
2, 6
4, 3
2, 1
4, 1
2, 3
3, 4
4, 4
2, 0
0, 1
3, 2
4, 3
1, 2
2, 5
2, 1
3, 6
6, 1
1, 2
1, 3
4, 6
2, 3
3, 4
3, 3
1, 3
2, 1
1, 3
4, 6
2, 1
0, 3
3, 2
1, 3
1, 4
1, 3
2, 3
3, 2
4, 1
2, 5
0, 7
0, 2
5, 1
1, 0
2, 1
1, 1
1, 2
1, 1
3, 2
4, 3
4, 0
1, 1
0, 2
0, 5
2, 7
2, 0
6, 4
2, 4
1, 3
1, 3
1, 4
4, 3
4, 2
4, 4
1, 3
1, 1
2, 2
2, 2
5, 1
1, 0
1, 2
2, 2
1, 1
2, 1
1, 2
1, 3
1, 1
3, 2
1, 0
4, 3
2, 2
4, 0
0, 1
5, 2
2, 1
0, 0
2, 3
1, 4
3, 3
0, 1
1, 0
2, 4
1, 0
1, 2
2, 0
1, 1
0, 2
3, 0
2, 1
1, 2
1, 1
1, 0
2, 2
0, 0
0, 0
2, 1
0, 2
0, 4
1, 1
2, 1
1, 1
1, 1
1, 0
1, 0
0, 2
1, 2
0, 2
1, 0
0, 2
0, 2
1, 0
0, 1
1, 1
0, 1
1, 0
1, 0
1, 1
0, 3
0, 1
2, 2
0, 1
1, 1
0, 1
2, 1
1, 0
0, 2
2, 0
0, 1
0, 1
1, 2
0, 1
1, 2
0, 0
0, 1
1, 2
4, 1
1, 0
0, 1
0, 0
1, 0
2, 1
3, 1
1, 1
2, 2
1, 1
0, 0
2, 1
2, 1
0, 1
0, 0
1, 1
0, 0
1, 0
0, 0
2, 0
0, 0
0, 0
1, 0
0, 0
0, 1
1, 0
0, 0
1, 2
0, 1
1, 0
0, 1
0, 1
0, 3
1, 0
1, 0
0, 0
1, 0
0, 1
0, 0
1, 1
1, 0
1, 0
0, 0
1, 0
0, 1
0, 1
0, 0
1, 0
1, 2
1, 0
0, 0
0, 0
2, 0
0, 1
0, 0
0, 0
0, 0
0, 1
0, 0
1, 0
0, 0
2, 1
0, 1
0, 0
0, 1
0, 0
2, 0
1, 0
0, 0
1, 1
0, 0
0, 0
0, 0
0, 0
0, 0
0, 0
0, 0
0, 0
0, 0
1, 0
2, 1
0, 0
0, 0
0, 1
0, 0
0, 0
0, 1
1, 0
0, 0
1, 1
0, 0
0, 1
1, 0
0, 0
1, 0
0, 0
0, 0
0, 0
1, 0
0, 0
0, 0
0, 0
0, 0
0, 0
0, 0
1, 0
0, 0
1, 0
0, 0
2, 0
0, 1
0, 0
0, 1
0, 0
0, 1
1, 0
0, 0
0, 1
0, 0
0, 0
0, 0
0, 0
0, 0
0, 0
0, 0
0, 0
0, 0
0, 0
0, 0
1, 0
0, 0
0, 1
1, 0
0, 0
0, 1
1, 0
0, 0
0, 0
0, 0
1, 0
0, 0
0, 0
0, 0
0, 0
0, 1
0, 0
1, 0
0, 0
0, 1
2, 1
0, 0
0, 0
0, 0
0, 0
0, 0
0, 2
1, 0
0, 0
0, 1
0, 1
2, 2
0, 0
1, 0
0, 1
0, 0
0, 0
0, 1
0, 0
0, 0
0, 0
0, 1
1, 0
1, 0
0, 0
1, 0
0, 1
1, 1
0, 0
0, 0
0, 0
0, 0
0, 0
1, 0
0, 0
0, 0
0, 0
0, 0
0, 0
0, 0
1, 0
0, 0
0, 0
0, 0
0, 1
0, 0
0, 0
0, 0
0, 0
0, 0
0, 0
0, 0
1, 0
0, 0
0, 0
0, 0
0, 0
0, 0
0, 0
1, 0
0, 0
0, 0
0, 0
0, 0
0, 0
0, 0
0, 0
0, 1
0, 0
0, 1
0, 0
1, 0
1, 0
0, 0
0, 0
0, 0
0, 0
0, 0
0, 0
0, 0
1, 1
0, 0
0, 0
0, 0
0, 0
0, 1
0, 0
0, 0
0, 0
0, 0
0, 0
0, 0
1, 0
0, 1
0, 0
0, 0
0, 0
0, 0
0, 0
0, 0
0, 0
0, 0
0, 0
0, 0
0, 0
0, 0
0, 0
0, 0
0, 0
0, 0
0, 0
0, 0
1, 0
0, 0
0, 0
0, 0
0, 0
0, 0
0, 0
0, 0
0, 0
0, 0
0, 0
0, 0
0, 0
0, 0
0, 0
1, 0
0, 0
0, 0
0, 0
0, 0
0, 0
0, 0
0, 0
0, 0
0, 0
0, 0
0, 0
0, 0
0, 0
0, 0
0, 0
0, 0
0, 0
0, 0
1, 0
0, 0
0, 0
0, 0
0, 0
0, 0
0, 0
0, 0
0, 1
0, 0
0, 0
0, 0
0, 0
0, 0
0, 0
0, 0
0, 0
0, 0
0, 0
0, 0
0, 0
0, 0
0, 0
0, 0
0, 0
0, 0
0, 0
0, 0
0, 0
0, 0
0, 0
0, 0
0, 0
0, 0
0, 0
0, 0
0, 0
0, 0
0, 0
0, 0
0, 0
0, 0
0, 0
0, 0
0, 0
0, 0
1, 0
0, 0
0, 0
0, 0
0, 0
0, 0
0, 0
0, 0
0, 0
0, 0
0, 0
0, 0
0, 0
0, 0
0, 0
0, 0
0, 0
1, 0
0, 0
0, 0
0, 0
0, 0
0, 1
0, 0
0, 0
0, 0
0, 0
0, 0
0, 0
0, 0
0, 0
0, 0
0, 0
0, 0
0, 0
0, 0
0, 0
0, 0
0, 0
0, 0
0, 0
0, 0
0, 0
0, 0
0, 0
0, 0
0, 0
0, 0
0, 0
0, 0
0, 0
0, 0
0, 0
0, 1
0, 0
0, 0
0, 0
0, 0
0, 0
0, 0
0, 0
0, 0
0, 0
0, 0
0, 0
0, 0
0, 0
0, 0
0, 0
0, 0
0, 0
0, 0
0, 0
0, 0
0, 0
0, 0
0, 0
0, 0
0, 0
0, 0
0, 0
0, 0
0, 0
0, 0
0, 0
0, 0
0, 0
0, 0
0, 0
0, 0
0, 0
0, 0
0, 0
0, 0
0, 0
0, 0
0, 0
0, 0
0, 0
0, 0
0, 0
0, 0
0, 0
0, 0
0, 0
0, 0
0, 0
0, 0
0, 0
0, 0
0, 0
0, 0
0, 0
0, 0
0, 0
0, 0
0, 0
0, 0
0, 0
0, 0
0, 0
0, 0
0, 0
0, 0
0, 0
0, 0
0, 0
0, 0
0, 0
0, 0
0, 0
0, 0
0, 0
0, 0
0, 0
0, 0
0, 0
0, 0
0, 0
0, 0
0, 0
0, 0
0, 0
0, 0
0, 0
0, 0
0, 0
0, 0
0, 0
0, 0
0, 0
0, 0
0, 0
0, 0
0, 0
0, 0
0, 0
0, 0
0, 0
0, 0
0, 0
0, 0
0, 0
0, 0
0, 0
0, 0
0, 0
0, 0
0, 0
0, 0
0, 0
0, 0
0, 0
0, 0
0, 0
0, 0
0, 0
0, 0
0, 0
0, 0
0, 0
1, 0
0, 0
0, 0
0, 0
0, 0
0, 0
0, 0
0, 0
0, 0
0, 0
0, 0
0, 0
0, 0
0, 0
0, 0
0, 0
0, 0
0, 0
0, 0
0, 0
0, 0
0, 0
0, 0
0, 0
0, 0
0, 0
0, 0
0, 0
0, 0
0, 0
0, 0
0, 0
0, 0
0, 0
0, 0
0, 0
0, 0
0, 0
0, 0
0, 0
0, 0
0, 0
0, 0
0, 0
0, 0
0, 0
0, 0
0, 0
0, 0
0, 0
0, 0
0, 0
0, 0
0, 0
0, 0
0, 0
0, 0
0, 0
0, 0
0, 0
0, 0
0, 0
0, 0
0, 0
0, 0
0, 0
0, 0
0, 0
0, 0
0, 0
0, 0
0, 0
0, 0
0, 0
0, 0
0, 0
0, 0
0, 0
0, 0
0, 0
0, 0
0, 0
0, 0
0, 0
0, 0
0, 0
0, 0
0, 0
0, 0
0, 0
0, 0
0, 0
0, 0
0, 0
0, 0
0, 0
0, 0
0, 0
0, 0
0, 0
0, 0
0, 0
0, 0
0, 0
0, 0
0, 0
0, 0
0, 0
0, 0
0, 0
0, 0
0, 0
0, 0
0, 0
0, 0
0, 0
0, 0
0, 0
0, 0
0, 0
0, 0
0, 0
0, 0
0, 0
0, 0
0, 0
0, 0
0, 0
0, 0
0, 0
0, 0
0, 0
0, 0
0, 0
0, 0
0, 0
0, 0
0, 0
0, 0
0, 0
0, 0
0, 0
0, 0
0, 0
0, 0
0, 0
0, 0
0, 0
0, 0
0, 0
0, 0
0, 0
0, 0
0, 0
0, 0
0, 0
0, 0
0, 0
0, 0
0, 0
0, 0
0, 0
0, 0
0, 0
0, 0
0, 0
0, 0
0, 0
0, 0
0, 0
0, 0
0, 0
0, 0
0, 0
0, 0
0, 0
0, 0
0, 0
0, 0
0, 0
0, 0
0, 0
0, 0
0, 0
0, 0
0, 0
0, 0
0, 0
0, 0
0, 0
0, 0
0, 0
0, 0
0, 0
0, 0
0, 0
0, 0
0, 0
0, 0
0, 0
0, 0
0, 0
0, 0
0, 0
0, 0
0, 0
0, 0
0, 0
0, 0
0, 0
0, 0
0, 0
0, 0
0, 0
0, 0
#ENDOFDATA     end of spectrum data