File: host_upload/02-11-2024/rqc/uplink1/ps__0567_0717304816_000rfs_shot_397.msa
#FORMAT      : EMSA/MAS spectral data file
#VERSION     : TC202v2.0 PIXL
#TITLE       : Novarupta (sol567) subset1
#DATE        : 02-11-2024      Date in the format DD-MMM-YYYY, for example 07-JUL-2010
#TIME        :             The time of day at which the spectrum was recorded, in 24-hour format
#OWNER       : PIXL Flight Model       (PIXL will use this to indicate which instrument took the data.)
#NPOINTS     : 4096     Number of data points in the spectrum (This can be zero for configuration only files)
#NCOLUMNS    : 2     Number of data columns in the spectrum (This can be zero for configuration only files)
#XUNITS      : eV
#YUNITS      : COUNTS
#DATATYPE    : YY
#XPERCHAN    : 7.862, 7.881   eV per channel (separate by commas if more than one detector)
#OFFSET      : 18.5, -22.4         eV of first channel  (separate by commas if more than one detector
#SIGNALTYPE  : XRF
#YP_TEMP     : 1.883
#LIVETIME    : 8.82086, 8.79854   seconds (separate by commas if more than one detector)
#REALTIME    : 10, 10.0   seconds (separate by commas if more than one detector)
#SPECTRUM    : start of spectrum data
0, 0
0, 0
0, 0
0, 0
0, 0
0, 0
0, 0
0, 0
0, 0
0, 0
0, 0
0, 0
0, 0
0, 0
0, 0
0, 0
0, 0
0, 0
0, 0
0, 0
0, 0
0, 0
0, 0
0, 0
0, 0
0, 0
0, 0
0, 0
0, 0
0, 1
0, 1
1, 1
0, 1
0, 0
0, 0
2, 3
1, 2
0, 0
2, 4
0, 5
2, 4
4, 6
3, 3
3, 2
4, 3
4, 4
3, 7
2, 2
4, 3
6, 3
7, 6
11, 10
5, 22
17, 23
25, 20
10, 18
18, 21
4, 12
8, 8
10, 13
14, 18
19, 29
29, 32
42, 45
37, 60
50, 42
36, 45
30, 31
39, 40
56, 67
108, 121
176, 211
274, 311
403, 470
486, 572
463, 523
459, 471
338, 339
214, 221
135, 135
90, 85
50, 45
40, 26
35, 27
27, 34
29, 41
37, 26
26, 33
34, 35
22, 19
14, 22
21, 19
25, 30
34, 50
84, 91
134, 126
179, 212
267, 312
316, 306
303, 322
257, 279
210, 214
154, 160
115, 106
58, 74
53, 67
68, 51
73, 61
87, 96
146, 146
160, 198
209, 278
245, 243
218, 255
180, 215
156, 166
131, 137
109, 119
89, 89
83, 89
87, 78
64, 61
69, 71
74, 53
44, 54
32, 33
36, 27
28, 27
18, 22
13, 14
14, 11
8, 15
6, 11
8, 4
5, 14
6, 10
5, 8
15, 18
13, 23
20, 27
22, 31
20, 32
30, 32
35, 26
16, 24
20, 21
14, 11
10, 13
9, 14
15, 13
27, 32
46, 54
91, 91
153, 149
199, 229
263, 323
326, 396
309, 395
343, 404
297, 333
231, 218
166, 156
107, 100
70, 65
34, 41
31, 33
26, 39
29, 40
41, 50
35, 51
65, 64
63, 74
54, 49
47, 63
38, 41
35, 25
14, 16
9, 11
11, 9
14, 9
6, 9
2, 12
8, 15
3, 8
14, 8
5, 14
19, 24
30, 28
25, 34
48, 50
59, 65
53, 70
83, 78
58, 63
55, 57
46, 37
35, 29
35, 24
23, 16
17, 20
12, 17
14, 15
14, 9
14, 13
21, 11
19, 20
9, 13
15, 26
20, 17
19, 20
18, 27
16, 19
16, 18
23, 19
22, 20
12, 18
11, 14
10, 14
9, 8
11, 14
10, 14
3, 13
12, 14
8, 16
10, 9
17, 20
22, 22
9, 28
21, 28
19, 23
26, 29
32, 31
25, 23
23, 26
14, 39
18, 17
13, 13
11, 9
12, 15
17, 18
14, 10
8, 12
11, 8
12, 12
16, 16
17, 19
22, 23
28, 41
36, 39
39, 53
48, 55
57, 50
50, 65
38, 48
37, 34
35, 38
34, 31
19, 26
17, 15
23, 15
22, 16
22, 25
47, 60
67, 75
117, 170
224, 293
337, 491
550, 733
852, 1047
1155, 1436
1461, 1765
1645, 1926
1711, 1980
1701, 1840
1529, 1531
1204, 1136
917, 865
619, 551
412, 357
260, 191
120, 102
67, 63
32, 24
22, 21
18, 28
18, 16
21, 16
15, 16
18, 9
21, 24
33, 28
23, 41
41, 53
47, 76
86, 95
96, 144
183, 191
213, 252
231, 283
261, 307
251, 265
226, 274
217, 235
164, 168
138, 129
92, 90
56, 46
33, 31
28, 15
17, 18
9, 8
9, 8
9, 7
9, 13
16, 15
10, 13
10, 10
10, 6
15, 9
10, 15
12, 11
10, 12
7, 5
5, 10
8, 12
8, 10
3, 6
8, 9
6, 6
6, 5
4, 8
6, 5
2, 10
7, 4
9, 6
3, 3
8, 6
1, 3
7, 5
3, 4
3, 11
5, 10
7, 8
7, 5
3, 5
8, 10
5, 8
8, 6
7, 8
6, 12
5, 7
5, 8
5, 9
6, 11
10, 8
8, 10
11, 9
6, 4
9, 11
3, 11
7, 5
8, 14
12, 11
4, 7
10, 12
6, 19
15, 16
12, 21
10, 9
12, 7
9, 11
8, 7
7, 8
10, 3
8, 13
4, 7
5, 3
4, 6
7, 7
4, 9
9, 7
4, 7
9, 10
8, 5
8, 6
5, 2
2, 5
6, 3
2, 9
2, 7
10, 6
2, 4
4, 2
2, 6
11, 7
2, 5
3, 5
3, 3
10, 4
7, 5
9, 6
4, 8
3, 6
6, 7
5, 4
6, 7
7, 3
7, 6
6, 6
7, 8
4, 5
7, 6
3, 5
4, 5
5, 5
9, 7
5, 5
3, 5
1, 2
3, 3
8, 2
5, 2
8, 8
4, 3
5, 3
4, 6
7, 6
2, 2
3, 4
3, 7
5, 7
2, 5
4, 6
4, 6
1, 6
3, 2
3, 6
11, 5
2, 2
1, 3
6, 9
3, 6
5, 5
1, 3
2, 5
5, 3
4, 6
8, 3
5, 4
3, 4
1, 2
9, 4
9, 3
2, 3
5, 1
7, 1
1, 5
4, 2
4, 5
5, 2
6, 6
3, 1
4, 2
6, 6
3, 3
3, 2
4, 2
5, 0
3, 3
3, 4
2, 4
4, 6
1, 4
4, 5
3, 4
2, 2
2, 3
6, 4
5, 4
1, 3
6, 5
3, 1
1, 2
1, 4
3, 3
1, 1
3, 1
3, 1
1, 3
2, 3
4, 1
2, 2
2, 4
0, 5
2, 2
1, 2
1, 1
1, 0
3, 3
1, 0
2, 1
1, 3
3, 1
1, 0
2, 4
2, 1
3, 1
2, 1
2, 1
1, 5
3, 1
4, 2
1, 4
1, 2
2, 6
2, 2
1, 6
2, 3
2, 3
3, 2
0, 2
1, 1
1, 0
2, 0
0, 1
4, 2
0, 1
5, 2
2, 4
2, 1
2, 5
3, 0
1, 3
1, 2
4, 2
1, 3
3, 1
1, 6
2, 3
6, 1
1, 2
3, 4
0, 3
4, 4
5, 2
1, 2
6, 3
2, 4
2, 1
1, 5
2, 0
3, 2
4, 5
3, 1
1, 1
1, 1
3, 1
3, 0
2, 4
2, 1
1, 2
3, 3
4, 1
3, 4
2, 2
1, 0
1, 3
4, 1
1, 1
0, 1
2, 1
0, 1
2, 2
5, 1
2, 2
0, 1
3, 1
2, 1
0, 3
0, 0
1, 2
1, 4
2, 2
1, 3
0, 0
2, 1
1, 1
0, 1
0, 2
1, 2
4, 1
1, 2
0, 0
0, 1
2, 2
0, 2
1, 0
0, 1
0, 1
2, 1
2, 2
0, 2
0, 0
1, 1
1, 4
0, 1
0, 0
2, 2
0, 2
1, 0
2, 0
0, 0
0, 1
1, 1
0, 3
0, 2
2, 2
1, 2
2, 1
2, 1
0, 0
1, 1
1, 2
0, 1
2, 3
0, 1
0, 0
1, 1
1, 2
2, 1
1, 1
2, 3
0, 2
0, 0
0, 0
2, 0
3, 0
1, 2
1, 1
0, 0
2, 0
1, 1
0, 2
0, 0
1, 0
1, 1
0, 2
1, 0
0, 2
0, 1
1, 1
1, 0
2, 1
0, 0
0, 1
0, 3
1, 0
0, 0
3, 0
1, 1
1, 2
0, 0
0, 0
2, 1
0, 0
0, 0
0, 4
1, 0
1, 0
0, 1
3, 1
0, 0
0, 0
1, 0
0, 1
0, 0
1, 1
0, 1
0, 0
0, 0
0, 2
0, 0
1, 1
1, 1
0, 1
0, 0
0, 0
1, 0
0, 1
0, 0
0, 1
0, 0
0, 2
1, 0
0, 0
0, 0
1, 0
0, 1
0, 0
0, 2
0, 0
0, 0
2, 0
0, 0
1, 0
0, 0
0, 0
0, 0
1, 1
3, 0
1, 0
1, 1
2, 1
0, 1
1, 0
0, 0
1, 0
0, 0
0, 1
0, 0
0, 0
0, 0
2, 0
0, 1
0, 2
0, 0
0, 1
0, 0
0, 0
0, 0
0, 1
0, 1
0, 0
0, 0
0, 0
0, 1
0, 0
0, 1
0, 0
0, 0
0, 0
0, 0
1, 2
0, 0
0, 1
1, 0
0, 0
0, 0
1, 0
0, 1
1, 0
0, 0
0, 0
0, 0
0, 0
0, 0
0, 0
0, 0
0, 0
0, 0
1, 0
1, 0
0, 0
1, 0
0, 0
0, 1
2, 0
0, 0
1, 2
0, 0
0, 0
0, 0
0, 0
0, 0
0, 0
1, 0
1, 0
0, 0
1, 0
0, 0
0, 0
0, 0
0, 1
0, 1
0, 1
0, 0
0, 1
0, 0
0, 0
0, 1
1, 0
0, 0
0, 0
0, 0
0, 0
0, 0
1, 0
2, 0
0, 1
0, 0
0, 0
1, 0
0, 0
0, 0
0, 0
0, 0
0, 0
1, 0
0, 0
0, 0
0, 0
0, 0
0, 0
0, 0
0, 0
0, 0
0, 0
1, 0
0, 0
0, 0
1, 0
0, 0
0, 0
0, 0
1, 1
0, 0
0, 0
0, 1
0, 0
0, 0
0, 0
0, 1
0, 1
0, 0
0, 0
0, 0
0, 0
0, 0
0, 0
0, 0
0, 0
0, 0
0, 0
0, 0
0, 0
0, 0
1, 0
0, 0
0, 0
0, 0
0, 1
1, 0
0, 0
0, 0
0, 0
1, 0
0, 0
0, 0
0, 0
0, 0
0, 0
0, 0
1, 0
0, 0
0, 0
0, 0
0, 0
0, 0
0, 0
0, 0
0, 0
0, 0
0, 0
1, 0
0, 0
0, 0
0, 0
0, 0
0, 0
0, 0
0, 0
0, 0
0, 0
0, 0
0, 0
0, 0
0, 0
1, 0
1, 0
0, 0
0, 0
0, 1
0, 0
0, 0
0, 0
0, 0
0, 0
0, 0
0, 0
0, 0
1, 0
0, 0
0, 0
0, 0
0, 0
0, 0
0, 0
0, 0
0, 0
0, 0
0, 0
0, 0
0, 0
0, 0
0, 0
0, 0
0, 0
1, 0
0, 0
0, 0
0, 0
0, 0
0, 0
0, 1
0, 0
0, 0
0, 0
0, 0
0, 0
0, 0
0, 0
0, 0
0, 0
0, 0
0, 0
0, 0
0, 0
0, 0
0, 0
0, 0
0, 0
0, 0
0, 0
0, 0
0, 0
0, 0
0, 0
0, 0
0, 0
0, 0
0, 0
0, 0
0, 0
0, 0
0, 0
0, 0
0, 0
0, 0
0, 0
0, 0
0, 0
0, 0
0, 0
0, 1
0, 0
1, 0
0, 0
0, 0
0, 0
0, 0
0, 0
0, 0
0, 0
0, 0
0, 0
1, 0
0, 0
0, 0
0, 0
0, 0
0, 1
0, 0
0, 0
0, 0
1, 0
0, 0
1, 0
0, 0
0, 0
0, 0
0, 0
0, 0
0, 0
0, 0
0, 0
0, 1
0, 0
0, 0
0, 0
0, 0
0, 0
0, 0
0, 0
0, 0
0, 1
0, 0
0, 0
0, 0
0, 1
0, 0
0, 0
0, 0
0, 0
0, 0
0, 0
0, 0
0, 0
0, 0
0, 0
0, 0
0, 0
0, 0
0, 0
0, 0
0, 0
0, 0
0, 0
0, 0
0, 0
0, 0
0, 0
0, 0
0, 0
0, 0
0, 0
0, 0
0, 0
0, 0
0, 0
0, 0
0, 0
0, 0
0, 0
0, 0
0, 0
0, 0
0, 0
0, 0
0, 0
0, 0
0, 0
0, 0
0, 0
0, 0
0, 0
0, 0
0, 0
0, 0
0, 0
0, 0
0, 0
0, 0
0, 0
0, 0
0, 0
0, 0
0, 0
0, 0
0, 0
0, 0
0, 0
0, 0
0, 0
0, 0
0, 0
0, 0
0, 0
0, 0
0, 0
0, 0
0, 0
0, 0
0, 0
0, 0
0, 0
0, 0
0, 0
0, 0
0, 0
0, 0
1, 0
0, 0
0, 0
0, 0
0, 0
0, 0
0, 0
0, 0
0, 0
0, 0
0, 0
0, 0
0, 0
0, 0
0, 0
0, 0
0, 0
0, 0
0, 0
0, 0
0, 0
0, 0
0, 0
0, 0
0, 0
0, 0
0, 0
0, 0
0, 0
0, 0
0, 0
0, 0
0, 0
0, 0
0, 0
0, 0
0, 0
0, 0
0, 0
0, 0
0, 0
0, 0
0, 0
0, 0
0, 0
0, 0
0, 0
0, 0
0, 0
0, 0
0, 0
0, 0
0, 0
0, 0
0, 0
0, 0
0, 0
0, 0
0, 0
0, 0
0, 0
0, 0
0, 0
0, 0
0, 0
0, 0
0, 0
0, 0
0, 0
0, 0
0, 0
0, 0
0, 0
0, 0
0, 0
0, 0
0, 0
0, 0
0, 0
0, 0
0, 0
0, 0
0, 0
0, 0
0, 0
0, 0
0, 0
0, 0
0, 0
0, 0
0, 0
0, 0
0, 0
0, 0
0, 0
0, 0
0, 0
0, 0
0, 0
0, 0
0, 0
0, 0
0, 0
0, 0
0, 0
0, 0
0, 0
0, 0
0, 0
0, 0
0, 0
0, 0
0, 0
0, 0
0, 0
0, 0
0, 0
0, 0
0, 0
0, 0
0, 0
0, 0
0, 0
0, 0
0, 0
0, 0
0, 0
0, 0
0, 0
0, 0
0, 0
0, 0
0, 0
0, 0
0, 0
0, 0
0, 0
0, 0
0, 0
0, 0
0, 0
0, 0
0, 0
0, 0
0, 0
0, 0
0, 0
0, 0
0, 0
0, 0
0, 0
0, 0
0, 0
0, 0
0, 0
0, 0
0, 0
0, 0
0, 0
0, 0
0, 0
0, 0
0, 0
0, 0
0, 0
0, 0
0, 0
0, 0
0, 0
0, 0
0, 0
0, 0
0, 0
0, 0
0, 0
0, 0
0, 0
0, 0
0, 0
0, 0
0, 0
0, 0
0, 0
0, 0
0, 0
0, 0
0, 0
0, 0
0, 0
0, 0
0, 0
0, 0
0, 0
0, 0
0, 0
0, 0
0, 0
0, 0
0, 0
0, 0
0, 0
0, 0
0, 0
0, 0
0, 0
0, 0
0, 0
0, 0
0, 0
0, 0
0, 0
0, 0
0, 0
0, 0
0, 0
0, 0
0, 0
0, 0
0, 0
0, 0
0, 0
0, 0
0, 0
0, 0
0, 0
0, 0
0, 0
0, 0
0, 0
0, 0
0, 0
0, 0
0, 0
0, 0
0, 0
0, 0
0, 0
0, 0
0, 0
0, 0
0, 0
0, 0
0, 0
0, 0
0, 0
0, 0
0, 0
0, 0
0, 0
0, 0
0, 0
0, 0
0, 0
0, 0
0, 0
0, 0
0, 0
0, 0
0, 0
0, 0
0, 0
0, 0
0, 0
0, 0
0, 0
0, 0
0, 0
0, 0
0, 0
0, 0
0, 0
0, 0
0, 0
0, 0
0, 0
0, 0
#ENDOFDATA     end of spectrum data