File: host_upload/02-11-2024/rqc/uplink1/ps__0567_0717304816_000rfs_shot_126.msa
#FORMAT      : EMSA/MAS spectral data file
#VERSION     : TC202v2.0 PIXL
#TITLE       : Novarupta (sol567) subset1
#DATE        : 02-11-2024      Date in the format DD-MMM-YYYY, for example 07-JUL-2010
#TIME        :             The time of day at which the spectrum was recorded, in 24-hour format
#OWNER       : PIXL Flight Model       (PIXL will use this to indicate which instrument took the data.)
#NPOINTS     : 4096     Number of data points in the spectrum (This can be zero for configuration only files)
#NCOLUMNS    : 2     Number of data columns in the spectrum (This can be zero for configuration only files)
#XUNITS      : eV
#YUNITS      : COUNTS
#DATATYPE    : YY
#XPERCHAN    : 7.862, 7.881   eV per channel (separate by commas if more than one detector)
#OFFSET      : 18.5, -22.4         eV of first channel  (separate by commas if more than one detector
#SIGNALTYPE  : XRF
#YP_TEMP     : -0.523
#LIVETIME    : 8.83892, 8.81832   seconds (separate by commas if more than one detector)
#REALTIME    : 10, 10.0   seconds (separate by commas if more than one detector)
#SPECTRUM    : start of spectrum data
0, 0
0, 0
0, 0
0, 0
0, 0
0, 0
0, 0
0, 0
0, 0
0, 0
0, 0
0, 0
0, 0
0, 0
0, 0
0, 0
0, 0
0, 0
0, 0
0, 0
0, 0
0, 0
0, 0
0, 0
0, 0
0, 0
0, 0
0, 0
0, 0
0, 0
0, 0
0, 0
0, 0
0, 1
1, 1
2, 1
1, 3
1, 3
2, 3
3, 3
5, 6
7, 6
2, 4
2, 2
2, 1
1, 5
4, 3
3, 3
3, 6
4, 1
4, 7
10, 9
11, 14
18, 18
26, 21
16, 18
6, 11
9, 7
7, 7
7, 13
14, 24
25, 28
31, 42
38, 43
46, 45
54, 36
38, 35
37, 37
46, 34
65, 48
101, 117
172, 218
266, 315
361, 491
446, 505
467, 543
392, 436
337, 325
205, 261
134, 130
77, 98
51, 58
29, 49
32, 34
24, 27
44, 28
29, 40
24, 29
29, 28
20, 20
12, 11
27, 19
19, 33
52, 51
93, 83
105, 164
173, 208
259, 271
256, 295
240, 321
226, 298
203, 219
124, 146
94, 90
70, 62
57, 72
50, 62
64, 85
63, 116
127, 168
174, 202
189, 225
190, 221
196, 214
186, 209
156, 156
113, 121
92, 110
79, 100
61, 71
74, 76
76, 80
62, 69
49, 59
39, 48
35, 37
22, 28
24, 16
24, 19
22, 15
11, 7
14, 11
4, 11
10, 11
8, 7
8, 10
13, 8
17, 20
16, 21
23, 18
22, 33
27, 42
24, 36
27, 26
19, 16
11, 25
9, 17
12, 9
3, 11
16, 19
40, 38
52, 49
73, 128
154, 180
182, 244
262, 358
333, 353
347, 408
321, 371
288, 338
223, 233
151, 154
76, 88
49, 50
27, 45
29, 22
31, 33
25, 32
39, 47
55, 61
59, 60
55, 67
52, 45
52, 38
37, 36
27, 22
13, 15
11, 15
17, 11
7, 9
7, 4
4, 7
8, 12
11, 11
11, 6
8, 20
17, 22
24, 31
27, 54
43, 51
49, 69
57, 82
71, 56
54, 56
38, 46
36, 35
33, 27
25, 20
16, 29
13, 14
9, 13
18, 12
13, 14
6, 16
11, 15
18, 11
13, 10
10, 12
19, 21
21, 14
18, 21
14, 23
12, 13
14, 14
12, 14
13, 13
15, 10
11, 11
19, 10
4, 20
11, 10
9, 15
9, 9
13, 14
16, 13
17, 27
22, 19
15, 32
24, 30
27, 34
22, 37
33, 31
19, 25
28, 26
19, 23
20, 22
8, 12
19, 11
10, 13
7, 16
16, 13
12, 17
16, 11
12, 15
19, 19
15, 25
20, 24
25, 29
40, 42
43, 51
51, 47
55, 65
45, 46
41, 41
41, 42
15, 27
23, 17
13, 26
17, 19
26, 18
16, 27
24, 36
43, 71
80, 132
124, 198
269, 332
391, 548
602, 789
879, 1145
1128, 1471
1338, 1737
1524, 1824
1651, 1834
1460, 1767
1280, 1400
1014, 1059
793, 712
494, 459
322, 306
185, 172
102, 78
55, 56
47, 31
19, 19
18, 18
12, 21
20, 20
10, 13
16, 24
25, 19
21, 21
25, 48
47, 48
59, 72
86, 128
120, 146
140, 207
208, 255
226, 289
244, 319
242, 255
220, 272
181, 217
179, 152
98, 97
77, 95
46, 55
38, 26
11, 28
10, 11
8, 16
13, 6
12, 9
9, 11
6, 16
7, 13
12, 13
15, 13
12, 14
9, 17
15, 15
10, 11
7, 8
8, 5
12, 7
7, 5
3, 11
6, 9
6, 8
5, 10
5, 10
4, 1
11, 7
3, 6
4, 6
3, 5
9, 5
4, 14
4, 6
5, 7
7, 12
5, 9
3, 9
10, 12
11, 8
6, 9
5, 14
7, 8
7, 8
11, 4
13, 11
8, 11
9, 8
7, 5
6, 7
5, 3
9, 7
3, 7
5, 7
4, 5
4, 9
5, 13
2, 10
7, 13
8, 17
10, 13
9, 12
9, 9
9, 12
6, 10
14, 10
10, 13
4, 9
9, 5
7, 2
1, 9
2, 6
1, 5
5, 6
4, 4
5, 4
3, 7
9, 4
5, 4
2, 5
3, 12
1, 6
7, 6
4, 11
5, 3
6, 1
2, 6
3, 5
7, 5
1, 9
4, 8
0, 4
5, 1
5, 6
3, 6
4, 6
6, 6
5, 4
5, 8
3, 3
3, 4
5, 2
8, 4
10, 6
5, 5
3, 7
3, 8
4, 5
3, 2
5, 5
5, 6
3, 9
4, 5
3, 4
4, 6
2, 9
4, 6
3, 8
2, 6
9, 3
4, 8
4, 2
2, 7
2, 11
2, 6
2, 6
8, 3
1, 5
5, 4
5, 5
2, 5
7, 8
3, 5
3, 8
4, 5
3, 8
2, 7
1, 5
5, 1
2, 4
3, 5
4, 2
0, 6
1, 4
4, 5
2, 4
7, 1
1, 6
2, 2
4, 8
2, 3
6, 5
5, 1
2, 5
3, 3
1, 3
4, 2
4, 3
1, 5
3, 1
1, 4
1, 3
4, 4
1, 3
2, 1
3, 3
2, 5
0, 2
3, 7
1, 7
1, 1
1, 4
6, 2
1, 0
3, 2
1, 2
3, 1
1, 4
3, 7
1, 3
3, 1
1, 1
5, 4
2, 2
5, 3
0, 3
1, 3
0, 0
2, 5
2, 5
3, 2
1, 1
1, 6
2, 0
1, 7
2, 5
4, 4
1, 2
2, 1
1, 3
1, 3
3, 2
3, 1
2, 4
1, 4
0, 2
2, 2
2, 3
1, 1
3, 4
3, 2
4, 3
2, 2
0, 0
1, 4
1, 0
1, 3
2, 2
2, 2
1, 3
1, 2
2, 1
1, 0
1, 4
2, 1
2, 0
2, 2
2, 0
5, 0
3, 1
2, 4
0, 1
1, 4
1, 4
0, 1
3, 3
1, 4
2, 4
3, 4
4, 2
2, 3
0, 5
0, 2
1, 3
3, 3
2, 6
2, 0
2, 3
2, 2
3, 2
2, 0
0, 1
1, 2
0, 0
3, 2
0, 2
0, 0
0, 0
1, 1
0, 1
1, 2
2, 2
3, 2
3, 1
1, 3
1, 1
2, 2
1, 1
8, 2
4, 1
0, 0
0, 2
1, 1
0, 1
2, 0
0, 0
3, 2
1, 3
0, 1
1, 2
2, 0
1, 2
0, 1
0, 2
0, 1
2, 0
0, 3
3, 2
1, 0
2, 1
0, 2
1, 2
0, 1
0, 1
2, 0
2, 1
0, 3
0, 1
1, 1
0, 1
2, 0
0, 1
0, 0
1, 0
0, 0
0, 1
1, 1
2, 1
0, 1
1, 2
2, 2
2, 0
0, 3
0, 0
2, 0
1, 1
1, 1
0, 0
1, 3
1, 3
0, 0
1, 0
0, 1
2, 0
0, 0
0, 0
0, 1
2, 1
1, 0
0, 3
0, 1
2, 0
0, 0
2, 2
0, 0
1, 0
1, 1
0, 1
1, 0
0, 2
0, 0
0, 0
0, 1
1, 0
0, 0
0, 0
0, 1
1, 0
2, 1
0, 0
0, 0
0, 0
2, 1
0, 1
0, 0
1, 0
1, 0
0, 1
0, 1
0, 0
0, 0
1, 0
1, 0
1, 0
0, 0
0, 0
2, 1
1, 1
0, 0
1, 0
1, 1
0, 0
4, 1
0, 1
0, 0
1, 0
1, 1
1, 1
2, 0
0, 1
0, 0
0, 1
0, 0
1, 0
1, 0
0, 1
1, 1
0, 2
0, 0
0, 0
1, 0
0, 1
0, 2
0, 0
1, 1
0, 0
2, 0
2, 0
0, 0
0, 0
1, 0
0, 0
0, 0
0, 0
0, 0
0, 0
1, 1
1, 0
1, 0
0, 0
1, 0
0, 0
0, 1
0, 0
0, 1
0, 0
0, 0
0, 0
0, 0
0, 0
1, 1
0, 0
0, 0
0, 0
0, 0
0, 0
0, 0
0, 0
0, 1
0, 0
0, 0
0, 0
0, 0
0, 0
1, 0
0, 0
0, 0
0, 0
1, 0
1, 0
0, 0
0, 0
0, 0
0, 0
0, 0
0, 0
2, 1
0, 0
0, 1
0, 0
0, 1
0, 0
0, 0
1, 1
0, 0
1, 0
1, 0
0, 2
0, 0
0, 0
0, 0
0, 0
1, 1
0, 0
0, 0
1, 0
0, 0
0, 0
0, 1
1, 1
0, 0
0, 0
0, 0
0, 0
0, 1
1, 1
0, 0
0, 0
0, 0
0, 0
0, 1
0, 0
0, 0
0, 1
0, 0
0, 0
0, 0
1, 0
0, 0
0, 0
0, 0
0, 0
0, 0
0, 0
0, 0
1, 0
0, 1
1, 0
0, 0
0, 0
0, 0
0, 0
0, 1
2, 0
0, 0
0, 0
0, 0
0, 1
0, 0
0, 0
0, 0
1, 0
0, 0
0, 0
0, 1
0, 2
0, 0
0, 0
1, 0
0, 0
0, 0
0, 0
0, 0
0, 0
0, 0
0, 0
0, 0
0, 0
0, 1
0, 1
0, 0
0, 0
1, 0
0, 0
0, 1
0, 0
0, 1
1, 0
0, 0
0, 0
0, 0
1, 0
0, 1
0, 0
0, 0
1, 0
0, 0
0, 0
0, 0
1, 0
0, 0
2, 0
0, 1
0, 0
0, 0
0, 0
0, 0
0, 0
1, 0
0, 0
0, 0
0, 0
0, 0
0, 0
0, 1
0, 0
0, 0
0, 0
0, 0
0, 0
0, 0
0, 0
1, 0
0, 0
0, 0
0, 0
0, 0
0, 0
0, 0
0, 0
0, 0
0, 0
0, 0
0, 0
0, 0
0, 0
0, 0
0, 0
0, 0
0, 0
0, 0
0, 0
1, 0
0, 0
0, 0
0, 0
0, 0
0, 0
0, 0
1, 0
0, 0
0, 0
0, 0
0, 0
0, 0
0, 0
0, 0
0, 0
0, 0
0, 0
0, 0
0, 0
0, 0
1, 0
0, 0
0, 0
0, 0
0, 0
0, 0
0, 0
0, 0
1, 0
0, 0
0, 0
1, 0
0, 0
0, 0
1, 0
0, 0
0, 1
0, 0
0, 0
0, 0
0, 0
0, 0
0, 0
0, 0
0, 0
0, 0
0, 0
0, 0
0, 0
1, 0
0, 0
1, 0
0, 0
0, 0
0, 0
0, 0
0, 0
0, 0
0, 0
0, 0
0, 0
0, 0
0, 0
0, 0
0, 0
0, 0
0, 0
0, 0
0, 0
0, 0
0, 0
0, 0
0, 0
0, 0
0, 0
0, 0
0, 0
0, 0
0, 0
0, 0
0, 0
0, 0
0, 0
0, 0
0, 0
0, 0
0, 0
0, 0
0, 0
0, 0
0, 0
0, 0
0, 0
0, 0
0, 0
0, 0
0, 0
0, 0
0, 0
0, 0
0, 0
0, 0
0, 0
0, 0
0, 0
0, 0
0, 0
0, 0
0, 0
0, 0
0, 0
0, 0
0, 0
0, 0
0, 0
0, 0
0, 0
0, 0
0, 0
0, 0
0, 0
0, 0
0, 0
1, 0
0, 0
0, 0
0, 0
0, 0
0, 0
0, 0
0, 0
0, 0
0, 0
0, 0
0, 0
0, 0
0, 0
0, 0
0, 0
0, 0
0, 0
0, 0
0, 0
0, 0
0, 0
0, 0
0, 0
0, 0
0, 0
0, 0
0, 0
0, 0
0, 0
0, 0
0, 0
0, 0
0, 0
0, 0
0, 0
0, 0
0, 0
0, 0
0, 0
0, 0
0, 0
0, 0
0, 0
0, 0
0, 0
0, 0
0, 0
0, 0
0, 0
0, 0
0, 0
0, 0
0, 0
0, 0
0, 0
0, 0
0, 0
0, 0
0, 0
0, 0
0, 0
0, 0
0, 0
0, 0
0, 0
0, 0
0, 0
0, 0
0, 0
0, 0
0, 0
0, 0
0, 0
0, 0
0, 0
0, 0
0, 0
0, 0
0, 0
0, 0
0, 0
0, 0
0, 0
0, 0
0, 0
0, 0
0, 0
0, 0
0, 0
0, 0
0, 0
0, 0
0, 0
0, 0
0, 0
0, 0
0, 0
0, 0
0, 0
0, 0
0, 0
0, 0
0, 0
0, 0
0, 0
0, 0
0, 0
0, 0
0, 0
0, 0
0, 0
0, 0
0, 0
0, 0
0, 0
0, 0
0, 0
0, 0
0, 0
0, 0
0, 0
0, 0
0, 0
0, 0
0, 0
0, 0
0, 0
0, 0
0, 0
0, 0
0, 0
0, 0
0, 0
0, 0
0, 0
0, 0
0, 0
0, 0
0, 0
0, 0
0, 0
0, 0
0, 0
0, 0
0, 0
0, 0
0, 0
0, 0
0, 0
0, 0
0, 0
0, 0
0, 0
0, 0
0, 0
0, 0
0, 0
0, 0
0, 0
0, 0
0, 0
0, 0
0, 0
0, 0
0, 0
0, 0
0, 0
0, 0
0, 0
0, 0
0, 0
0, 0
0, 0
0, 0
0, 0
0, 0
0, 0
0, 0
0, 0
0, 0
0, 0
0, 0
0, 0
0, 0
0, 0
0, 0
0, 0
0, 0
0, 0
0, 0
0, 0
0, 0
0, 0
0, 0
0, 0
0, 0
0, 0
0, 0
0, 0
0, 0
0, 0
0, 0
0, 0
0, 0
0, 0
0, 0
0, 0
0, 0
0, 0
0, 0
0, 0
0, 0
0, 0
0, 0
0, 0
0, 0
0, 0
0, 0
0, 0
0, 0
0, 0
0, 0
0, 0
0, 0
0, 0
0, 0
0, 0
0, 0
0, 0
0, 0
0, 0
0, 0
0, 0
0, 0
0, 0
0, 0
0, 0
0, 0
0, 0
0, 0
0, 0
0, 0
0, 0
0, 0
0, 0
0, 0
0, 0
0, 0
0, 0
0, 0
0, 0
0, 0
0, 0
0, 0
0, 0
0, 0
0, 0
0, 0
0, 0
0, 0
0, 0
0, 0
0, 0
0, 0
0, 0
0, 0
0, 0
0, 0
0, 0
0, 0
0, 0
0, 0
0, 0
0, 0
0, 0
0, 0
0, 0
0, 0
0, 0
0, 0
0, 0
0, 0
0, 0
0, 0
0, 0
0, 0
0, 0
0, 0
0, 0
0, 0
0, 0
0, 0
0, 0
0, 0
0, 0
0, 0
0, 0
0, 0
0, 0
0, 0
0, 0
0, 0
0, 0
0, 0
0, 0
0, 0
0, 0
0, 0
0, 0
0, 0
0, 0
0, 0
0, 0
0, 0
0, 0
0, 0
0, 0
0, 0
0, 0
0, 0
0, 0
0, 0
0, 0
0, 0
0, 0
0, 0
0, 0
0, 0
0, 0
0, 0
0, 0
0, 0
0, 0
0, 0
0, 0
0, 0
0, 0
0, 0
0, 0
0, 0
0, 0
0, 0
0, 0
0, 0
#ENDOFDATA     end of spectrum data