File: host_upload/02-11-2024/rqc/uplink1/ps__0567_0717304816_000rfs_shot_334.msa
#FORMAT      : EMSA/MAS spectral data file
#VERSION     : TC202v2.0 PIXL
#TITLE       : Novarupta (sol567) subset1
#DATE        : 02-11-2024      Date in the format DD-MMM-YYYY, for example 07-JUL-2010
#TIME        :             The time of day at which the spectrum was recorded, in 24-hour format
#OWNER       : PIXL Flight Model       (PIXL will use this to indicate which instrument took the data.)
#NPOINTS     : 4096     Number of data points in the spectrum (This can be zero for configuration only files)
#NCOLUMNS    : 2     Number of data columns in the spectrum (This can be zero for configuration only files)
#XUNITS      : eV
#YUNITS      : COUNTS
#DATATYPE    : YY
#XPERCHAN    : 7.862, 7.881   eV per channel (separate by commas if more than one detector)
#OFFSET      : 18.5, -22.4         eV of first channel  (separate by commas if more than one detector
#SIGNALTYPE  : XRF
#YP_TEMP     : 1.337
#LIVETIME    : 8.83923, 8.83493   seconds (separate by commas if more than one detector)
#REALTIME    : 10, 10.0   seconds (separate by commas if more than one detector)
#SPECTRUM    : start of spectrum data
0, 0
0, 0
0, 0
0, 0
0, 0
0, 0
0, 0
0, 0
0, 0
0, 0
0, 0
0, 0
0, 0
0, 0
0, 0
0, 0
0, 0
0, 0
0, 0
0, 0
0, 0
0, 0
0, 0
0, 0
0, 0
0, 0
0, 0
0, 0
0, 0
0, 0
0, 0
1, 0
0, 0
0, 4
2, 1
0, 2
1, 4
1, 2
1, 2
5, 9
2, 3
2, 3
3, 4
0, 3
5, 3
4, 1
4, 6
2, 2
0, 3
8, 5
6, 4
10, 10
4, 14
16, 8
11, 12
13, 12
19, 7
3, 8
11, 16
12, 16
17, 19
25, 27
38, 44
49, 46
56, 49
46, 41
34, 29
30, 44
37, 45
40, 67
85, 119
150, 209
273, 329
357, 481
410, 534
446, 511
382, 442
313, 345
206, 234
150, 140
81, 78
43, 45
27, 40
28, 19
27, 38
32, 31
36, 32
43, 33
27, 27
23, 26
11, 20
17, 19
29, 28
35, 52
70, 89
130, 152
206, 219
243, 268
280, 343
252, 322
255, 277
208, 217
140, 171
97, 86
64, 89
57, 60
49, 57
57, 59
83, 86
108, 116
132, 183
166, 210
203, 223
161, 198
151, 187
154, 174
126, 124
97, 103
81, 80
80, 84
73, 92
74, 84
56, 68
51, 65
47, 42
41, 38
27, 27
15, 26
15, 21
17, 12
16, 9
4, 5
7, 9
8, 8
6, 11
1, 9
11, 9
17, 15
15, 19
21, 31
23, 27
31, 36
31, 28
18, 29
23, 26
16, 18
9, 15
11, 16
11, 13
17, 11
27, 27
37, 63
69, 101
124, 199
213, 229
272, 347
307, 427
334, 410
332, 380
296, 333
267, 241
166, 197
120, 102
66, 65
43, 46
26, 32
12, 31
22, 45
44, 53
53, 60
46, 80
53, 63
44, 69
47, 37
35, 35
24, 20
23, 20
9, 8
7, 9
6, 6
10, 12
5, 7
12, 12
9, 4
15, 11
11, 13
7, 29
12, 29
20, 34
31, 48
51, 58
60, 64
54, 77
54, 66
66, 53
43, 34
37, 29
20, 31
16, 24
18, 19
20, 25
16, 15
10, 10
13, 12
13, 9
14, 16
16, 19
14, 15
18, 11
18, 17
17, 16
14, 18
6, 24
15, 15
13, 18
9, 15
8, 7
10, 9
9, 6
8, 10
14, 11
9, 13
12, 8
9, 12
9, 14
11, 19
15, 23
24, 29
27, 25
20, 31
24, 37
29, 38
30, 38
32, 19
23, 12
13, 18
15, 16
9, 13
17, 10
9, 11
17, 23
10, 14
18, 19
16, 11
18, 17
20, 16
23, 24
32, 43
36, 44
39, 42
35, 58
50, 63
48, 44
40, 41
41, 37
33, 36
19, 20
25, 27
18, 20
18, 16
15, 36
17, 31
39, 51
63, 82
109, 141
189, 285
307, 487
520, 726
754, 1091
1092, 1395
1354, 1695
1518, 1865
1659, 1857
1659, 1692
1405, 1418
1132, 1147
884, 761
579, 542
380, 342
203, 189
117, 92
62, 38
42, 30
26, 23
22, 21
14, 16
9, 20
10, 21
16, 15
20, 25
17, 28
24, 33
49, 60
62, 76
75, 108
105, 155
151, 151
178, 233
219, 264
213, 248
265, 280
253, 242
206, 211
179, 168
113, 116
86, 71
45, 71
53, 32
29, 28
15, 13
11, 12
13, 15
5, 9
7, 8
10, 12
12, 11
11, 11
12, 10
8, 15
9, 15
10, 9
11, 6
9, 7
7, 3
2, 9
9, 5
5, 11
10, 4
4, 4
9, 7
3, 11
8, 6
5, 13
7, 6
5, 5
5, 10
9, 9
3, 6
2, 7
7, 2
8, 3
6, 7
5, 4
3, 1
8, 9
7, 12
7, 12
6, 11
10, 9
9, 7
14, 12
7, 9
7, 11
4, 7
10, 9
8, 8
3, 4
10, 5
6, 6
4, 8
7, 7
4, 6
13, 10
8, 6
12, 12
8, 14
12, 8
7, 10
7, 11
8, 13
9, 8
6, 9
7, 3
6, 9
2, 5
6, 8
5, 6
5, 4
3, 8
9, 6
5, 7
6, 7
7, 8
1, 6
3, 3
9, 5
6, 9
6, 4
4, 4
4, 3
1, 4
10, 9
4, 6
3, 4
3, 7
5, 6
5, 5
4, 5
5, 5
4, 4
7, 8
3, 2
8, 7
4, 9
1, 5
4, 7
5, 5
5, 8
8, 4
3, 2
2, 2
8, 6
5, 6
4, 5
4, 7
4, 4
9, 5
4, 6
5, 3
1, 7
5, 4
1, 6
5, 5
3, 7
3, 1
3, 6
6, 9
2, 7
8, 5
3, 3
3, 4
3, 8
7, 2
6, 4
5, 2
7, 6
3, 7
3, 4
0, 4
2, 1
5, 6
3, 3
5, 3
4, 4
4, 1
3, 1
0, 5
6, 1
1, 3
4, 3
4, 3
4, 6
0, 5
4, 4
2, 3
6, 4
3, 4
0, 3
1, 2
2, 1
4, 3
6, 4
2, 2
3, 4
4, 5
3, 2
3, 6
1, 3
1, 3
0, 3
3, 4
5, 3
6, 0
0, 2
0, 2
1, 7
4, 3
3, 2
2, 2
1, 2
5, 1
3, 3
4, 1
5, 3
1, 2
3, 2
3, 2
6, 3
3, 2
4, 2
1, 4
0, 5
0, 1
2, 0
2, 2
1, 2
6, 5
1, 4
2, 2
3, 2
3, 4
3, 4
1, 5
1, 1
3, 3
0, 2
4, 1
5, 3
1, 5
2, 3
1, 4
3, 1
1, 1
0, 2
1, 2
1, 1
0, 2
1, 2
2, 2
5, 3
7, 3
2, 1
0, 3
0, 3
0, 1
5, 5
3, 3
5, 1
2, 0
3, 2
3, 1
3, 3
2, 2
1, 2
1, 2
1, 1
3, 3
4, 2
2, 5
1, 3
3, 4
2, 4
2, 3
4, 4
3, 3
1, 3
1, 5
5, 1
2, 0
3, 2
6, 3
3, 2
6, 0
0, 2
1, 0
5, 0
1, 1
0, 1
0, 1
0, 1
2, 3
2, 1
1, 1
4, 0
1, 1
1, 2
1, 1
0, 1
1, 3
3, 2
1, 1
2, 2
1, 1
3, 1
4, 2
2, 0
2, 2
1, 2
4, 1
1, 1
1, 3
0, 1
0, 2
3, 6
0, 0
4, 2
1, 0
1, 2
1, 3
3, 2
3, 0
0, 1
0, 0
1, 1
1, 2
1, 2
1, 0
0, 1
0, 2
0, 1
1, 2
3, 2
0, 0
1, 0
0, 1
0, 1
1, 1
1, 0
1, 0
0, 0
0, 0
0, 0
1, 1
1, 1
1, 0
1, 1
2, 0
2, 0
2, 4
1, 1
1, 1
1, 2
0, 3
1, 2
0, 1
1, 0
0, 1
0, 1
2, 0
1, 1
0, 0
1, 2
0, 1
2, 1
1, 0
0, 0
1, 1
2, 5
0, 2
2, 0
0, 0
0, 2
1, 0
1, 1
1, 1
0, 1
0, 0
0, 0
0, 1
0, 1
0, 1
0, 0
0, 0
0, 1
0, 0
3, 0
0, 2
0, 0
1, 2
0, 2
0, 0
0, 0
1, 0
1, 0
0, 0
0, 0
0, 1
0, 0
0, 0
0, 1
2, 0
0, 0
0, 2
1, 0
0, 1
0, 1
0, 0
0, 0
0, 1
2, 0
0, 2
2, 0
0, 1
0, 0
1, 2
0, 0
0, 0
0, 0
1, 0
2, 2
0, 0
0, 1
0, 0
0, 2
0, 1
0, 1
1, 2
1, 0
0, 0
0, 1
1, 1
1, 0
1, 0
0, 0
0, 0
0, 1
0, 0
0, 1
0, 0
1, 0
0, 0
0, 0
0, 2
0, 1
0, 0
0, 0
0, 2
0, 0
0, 0
0, 1
0, 1
0, 0
0, 0
0, 0
0, 0
1, 1
0, 0
0, 0
0, 0
1, 3
0, 0
0, 0
0, 0
0, 0
0, 0
0, 1
1, 0
0, 0
0, 0
0, 0
0, 0
1, 0
1, 0
0, 0
0, 0
1, 0
0, 0
1, 1
0, 0
0, 1
0, 0
0, 2
0, 0
0, 0
0, 1
0, 0
1, 0
0, 1
1, 0
1, 0
0, 0
0, 0
0, 0
0, 0
0, 0
0, 0
0, 1
0, 0
0, 0
0, 0
0, 0
1, 0
0, 0
0, 0
2, 1
0, 1
0, 0
0, 1
0, 0
0, 0
0, 0
0, 0
0, 0
0, 1
0, 0
1, 0
2, 1
0, 0
0, 0
1, 0
0, 2
0, 0
1, 0
0, 1
0, 1
1, 0
0, 0
1, 0
1, 0
1, 0
0, 0
0, 2
0, 1
0, 0
0, 0
1, 1
0, 0
0, 0
0, 0
1, 0
0, 0
1, 1
0, 0
0, 0
0, 0
0, 0
0, 0
0, 1
0, 0
0, 0
0, 1
0, 0
0, 0
0, 0
0, 0
0, 0
0, 1
0, 0
0, 0
0, 0
0, 0
0, 0
0, 0
0, 0
0, 0
0, 0
0, 0
0, 0
0, 1
0, 1
0, 0
0, 0
0, 0
1, 0
0, 0
0, 0
0, 0
0, 0
0, 0
0, 1
1, 0
0, 0
1, 0
0, 1
0, 1
0, 0
0, 0
2, 1
0, 0
0, 1
0, 1
1, 0
0, 0
0, 0
0, 0
0, 0
0, 0
0, 0
0, 0
0, 0
0, 0
0, 0
0, 0
0, 0
0, 0
0, 0
0, 0
0, 0
0, 0
0, 0
0, 0
0, 0
0, 0
0, 0
0, 0
0, 0
0, 0
0, 0
0, 0
0, 0
0, 0
0, 0
0, 0
0, 0
0, 1
0, 0
0, 0
0, 0
0, 0
0, 0
0, 0
0, 0
0, 1
0, 1
0, 0
0, 0
0, 0
0, 0
0, 0
0, 0
0, 0
0, 0
0, 0
0, 0
0, 0
0, 0
0, 0
0, 0
0, 1
0, 0
0, 0
0, 1
0, 0
0, 0
0, 0
0, 0
0, 0
0, 0
0, 0
0, 0
0, 0
0, 0
0, 0
0, 0
0, 0
0, 0
0, 0
0, 0
0, 0
0, 0
0, 0
0, 0
0, 0
0, 0
0, 0
0, 0
0, 0
0, 0
0, 0
0, 0
0, 0
0, 0
0, 0
0, 0
0, 0
0, 0
0, 0
0, 0
0, 0
0, 0
0, 1
0, 0
0, 0
0, 0
0, 0
0, 0
0, 0
0, 0
0, 0
0, 0
0, 0
0, 0
0, 0
0, 0
0, 0
0, 0
0, 0
0, 0
0, 0
0, 0
0, 0
0, 0
0, 0
0, 0
0, 0
0, 0
0, 1
0, 0
0, 0
0, 1
0, 0
0, 0
1, 0
0, 0
0, 0
0, 0
0, 0
0, 0
0, 0
0, 0
0, 0
0, 0
0, 0
0, 0
0, 0
0, 0
0, 0
0, 0
0, 0
0, 0
0, 0
0, 0
0, 0
0, 0
0, 0
0, 0
0, 0
0, 0
0, 0
0, 0
0, 0
0, 0
0, 0
0, 0
0, 0
0, 0
0, 0
0, 0
0, 0
0, 0
0, 0
0, 0
0, 0
0, 0
0, 0
0, 0
0, 0
0, 0
0, 0
0, 0
0, 0
0, 0
0, 0
0, 0
0, 0
0, 0
0, 0
0, 0
0, 0
0, 0
0, 0
0, 0
0, 0
0, 0
0, 0
0, 0
0, 0
0, 0
0, 0
0, 0
0, 0
0, 0
0, 0
0, 0
0, 0
0, 0
0, 0
0, 0
0, 0
0, 1
0, 0
0, 0
0, 0
0, 1
0, 0
0, 0
0, 0
0, 0
0, 0
0, 0
0, 0
0, 0
0, 0
0, 0
0, 0
0, 0
0, 0
0, 0
0, 0
0, 0
0, 0
0, 0
0, 0
0, 0
0, 0
0, 0
0, 0
0, 0
0, 0
0, 0
0, 0
0, 0
0, 0
0, 0
0, 0
0, 0
0, 0
0, 0
0, 0
0, 0
0, 0
0, 0
0, 0
0, 0
0, 0
0, 0
0, 0
0, 0
0, 0
0, 0
0, 0
0, 0
0, 0
0, 0
0, 0
0, 0
0, 0
0, 0
0, 0
0, 0
0, 0
0, 0
0, 0
0, 0
0, 0
0, 0
0, 0
0, 0
0, 0
0, 0
0, 0
0, 0
0, 0
0, 0
0, 0
0, 0
0, 0
0, 0
0, 0
0, 0
0, 0
0, 0
0, 0
0, 0
0, 0
0, 0
0, 0
0, 0
0, 0
0, 0
0, 0
0, 0
0, 0
0, 0
0, 0
0, 0
0, 0
0, 0
0, 0
0, 0
0, 0
0, 0
0, 0
0, 0
0, 0
0, 0
0, 0
0, 0
0, 0
0, 0
0, 0
0, 0
0, 0
0, 0
0, 0
0, 0
0, 0
0, 0
0, 0
0, 0
0, 0
0, 0
0, 0
0, 0
0, 0
0, 0
0, 0
0, 0
0, 0
0, 0
0, 0
0, 0
0, 0
0, 0
0, 0
0, 0
0, 0
0, 0
0, 0
0, 0
0, 0
0, 0
0, 0
0, 0
0, 0
0, 0
0, 0
0, 0
0, 0
0, 0
0, 0
0, 0
0, 0
0, 0
0, 0
0, 0
0, 0
0, 0
0, 0
0, 0
0, 0
0, 0
0, 0
0, 0
0, 0
0, 0
0, 0
0, 0
0, 0
0, 0
0, 0
0, 0
0, 0
0, 0
0, 0
0, 0
0, 0
0, 0
0, 0
0, 0
0, 0
0, 0
0, 0
0, 0
0, 0
0, 0
0, 0
0, 0
0, 0
0, 0
0, 0
0, 0
0, 0
0, 0
0, 0
0, 0
0, 0
0, 0
0, 0
0, 0
0, 0
0, 0
0, 0
0, 0
0, 0
0, 0
0, 0
0, 0
0, 0
0, 0
0, 0
0, 0
0, 0
0, 0
0, 0
0, 0
0, 0
0, 0
0, 0
0, 0
0, 0
0, 0
0, 0
0, 0
0, 0
0, 0
0, 0
0, 0
0, 0
0, 0
0, 0
0, 0
0, 0
0, 0
0, 0
0, 0
0, 0
0, 0
0, 0
0, 0
0, 0
0, 0
0, 0
0, 0
0, 0
0, 0
0, 0
0, 0
0, 0
0, 0
0, 0
0, 0
0, 0
0, 0
0, 0
0, 0
0, 0
0, 0
0, 0
0, 0
0, 0
0, 0
0, 0
0, 0
0, 0
0, 0
0, 0
0, 0
0, 0
0, 0
0, 0
0, 0
0, 0
0, 0
0, 0
0, 0
0, 0
0, 0
0, 0
0, 0
0, 0
0, 0
0, 0
0, 0
0, 0
0, 0
0, 0
0, 0
0, 0
0, 0
0, 0
0, 0
0, 0
0, 0
0, 0
0, 0
#ENDOFDATA     end of spectrum data