File: host_upload/02-11-2024/rqc/uplink1/ps__0567_0717304816_000rfs_shot_169.msa
#FORMAT      : EMSA/MAS spectral data file
#VERSION     : TC202v2.0 PIXL
#TITLE       : Novarupta (sol567) subset1
#DATE        : 02-11-2024      Date in the format DD-MMM-YYYY, for example 07-JUL-2010
#TIME        :             The time of day at which the spectrum was recorded, in 24-hour format
#OWNER       : PIXL Flight Model       (PIXL will use this to indicate which instrument took the data.)
#NPOINTS     : 4096     Number of data points in the spectrum (This can be zero for configuration only files)
#NCOLUMNS    : 2     Number of data columns in the spectrum (This can be zero for configuration only files)
#XUNITS      : eV
#YUNITS      : COUNTS
#DATATYPE    : YY
#XPERCHAN    : 7.862, 7.881   eV per channel (separate by commas if more than one detector)
#OFFSET      : 18.5, -22.4         eV of first channel  (separate by commas if more than one detector
#SIGNALTYPE  : XRF
#YP_TEMP     : 0.215
#LIVETIME    : 8.82344, 8.81209   seconds (separate by commas if more than one detector)
#REALTIME    : 10, 10.0   seconds (separate by commas if more than one detector)
#SPECTRUM    : start of spectrum data
0, 0
0, 0
0, 0
0, 0
0, 0
0, 0
0, 0
0, 0
0, 0
0, 0
0, 0
0, 0
0, 0
0, 0
0, 0
0, 0
0, 0
0, 0
0, 0
0, 0
0, 0
0, 0
0, 0
0, 0
0, 0
0, 0
0, 0
0, 0
0, 0
0, 0
0, 0
0, 1
0, 0
0, 2
2, 1
1, 0
1, 6
2, 4
2, 7
2, 3
4, 4
1, 3
5, 3
6, 9
2, 4
3, 3
1, 3
1, 2
4, 2
7, 7
9, 6
8, 10
18, 12
14, 13
12, 27
15, 11
12, 20
8, 10
12, 17
16, 11
19, 26
35, 37
26, 45
39, 55
47, 52
42, 53
38, 43
40, 37
42, 36
59, 65
101, 127
214, 221
270, 371
429, 456
485, 541
477, 510
408, 493
337, 349
209, 269
151, 121
87, 75
59, 44
43, 42
34, 30
36, 31
33, 24
42, 36
26, 38
30, 25
15, 18
22, 17
20, 12
23, 27
49, 68
86, 90
127, 181
239, 205
237, 283
307, 328
286, 352
248, 300
223, 234
157, 147
110, 111
74, 80
69, 62
62, 60
80, 66
85, 111
145, 159
169, 228
206, 276
226, 281
228, 236
193, 194
165, 193
140, 151
118, 112
91, 96
90, 72
81, 70
78, 69
65, 73
67, 57
42, 54
29, 38
27, 24
12, 24
16, 14
11, 15
9, 10
8, 12
13, 9
3, 4
11, 9
11, 6
10, 8
14, 7
22, 26
32, 29
24, 26
38, 27
25, 30
29, 31
12, 24
18, 19
13, 7
6, 14
9, 18
25, 23
25, 50
34, 62
82, 114
139, 186
178, 240
258, 328
364, 389
370, 414
381, 416
308, 297
220, 250
164, 158
107, 128
59, 62
35, 39
20, 30
24, 37
30, 35
41, 49
49, 50
65, 61
62, 67
57, 57
61, 55
41, 33
25, 25
20, 17
9, 14
9, 7
7, 10
8, 7
4, 14
15, 9
9, 14
4, 13
15, 21
26, 17
21, 34
26, 32
33, 56
39, 63
53, 79
59, 71
65, 85
61, 43
40, 55
41, 33
29, 28
27, 28
11, 27
17, 23
16, 20
16, 11
13, 19
7, 11
18, 23
16, 21
25, 18
23, 18
18, 15
18, 16
23, 24
18, 20
12, 14
13, 16
16, 15
12, 17
9, 10
9, 16
2, 8
7, 11
7, 6
14, 14
13, 10
14, 18
16, 15
16, 14
25, 31
29, 21
27, 34
34, 44
23, 45
39, 28
24, 17
19, 25
12, 23
18, 18
19, 13
8, 7
8, 14
7, 12
11, 17
10, 13
15, 20
33, 19
20, 13
20, 26
47, 34
37, 49
44, 44
52, 55
47, 48
41, 52
49, 48
29, 40
26, 30
14, 16
19, 19
16, 22
15, 15
26, 26
27, 34
43, 68
79, 87
142, 181
227, 290
391, 499
607, 790
870, 1063
1188, 1403
1430, 1666
1585, 1874
1756, 1941
1571, 1698
1407, 1446
1065, 1111
805, 771
569, 523
356, 333
185, 155
105, 101
61, 50
43, 25
30, 15
26, 21
14, 13
16, 20
22, 21
21, 26
21, 14
24, 29
43, 42
52, 43
62, 65
80, 116
123, 159
173, 199
195, 225
251, 273
261, 270
253, 285
258, 247
216, 216
197, 149
117, 118
90, 76
65, 45
30, 24
25, 13
17, 7
7, 10
6, 14
5, 11
12, 14
12, 10
14, 16
17, 12
5, 5
10, 10
13, 14
13, 9
16, 11
9, 7
4, 8
7, 12
8, 9
5, 8
10, 10
8, 1
3, 6
3, 9
2, 5
6, 6
3, 5
12, 5
7, 8
6, 2
2, 5
5, 4
6, 3
2, 8
11, 6
2, 9
7, 6
7, 12
7, 9
6, 10
5, 8
8, 6
7, 10
5, 7
5, 9
9, 9
8, 7
4, 10
4, 4
6, 2
6, 5
8, 7
6, 9
9, 13
10, 9
5, 9
9, 10
3, 12
9, 15
6, 12
9, 11
17, 13
14, 11
12, 11
7, 7
6, 2
9, 8
7, 6
7, 4
11, 5
4, 6
3, 9
3, 7
6, 4
3, 11
10, 7
5, 4
8, 12
2, 4
7, 6
9, 7
6, 9
2, 4
3, 5
6, 9
5, 4
9, 11
8, 7
7, 6
2, 9
6, 9
9, 7
8, 3
8, 5
4, 3
7, 2
1, 4
7, 5
6, 8
1, 4
2, 2
6, 7
6, 7
3, 8
6, 5
6, 3
5, 4
6, 5
2, 2
4, 2
3, 4
3, 5
3, 4
4, 7
6, 4
4, 2
4, 6
4, 4
7, 8
3, 7
2, 5
6, 6
8, 5
2, 1
4, 5
5, 4
7, 3
6, 5
5, 2
1, 4
5, 2
3, 4
6, 4
2, 2
4, 1
3, 4
3, 4
8, 2
3, 2
7, 3
2, 2
2, 3
2, 3
5, 5
4, 6
3, 2
5, 4
5, 1
5, 4
3, 4
3, 4
3, 2
4, 3
0, 4
3, 2
2, 2
2, 3
2, 6
3, 6
3, 6
2, 3
5, 4
4, 7
2, 2
5, 3
4, 3
3, 5
6, 3
2, 4
2, 1
4, 4
2, 4
3, 3
5, 3
1, 3
4, 1
1, 3
2, 1
1, 2
3, 5
0, 4
4, 2
2, 2
2, 4
3, 2
3, 2
3, 7
1, 2
2, 1
3, 4
2, 3
2, 3
3, 3
4, 1
3, 3
3, 1
1, 2
3, 0
1, 6
1, 3
2, 2
3, 2
2, 2
7, 2
3, 1
2, 2
0, 4
1, 2
1, 2
2, 3
2, 2
0, 4
4, 6
2, 3
1, 2
4, 1
0, 0
2, 0
2, 1
1, 1
3, 3
2, 4
4, 1
1, 2
2, 4
2, 4
1, 3
3, 7
1, 3
3, 2
3, 2
5, 3
3, 1
1, 4
3, 5
1, 2
3, 2
3, 4
4, 3
2, 4
3, 2
1, 0
2, 3
2, 2
1, 3
1, 2
2, 1
1, 1
0, 2
1, 3
2, 3
0, 1
3, 2
1, 3
4, 1
2, 1
0, 2
0, 2
2, 3
0, 2
1, 2
0, 3
2, 1
3, 3
0, 2
1, 2
0, 1
0, 0
2, 2
1, 1
2, 1
0, 1
0, 1
1, 3
1, 1
0, 0
3, 2
1, 1
1, 0
1, 1
1, 1
1, 0
1, 1
2, 2
1, 2
3, 1
1, 1
2, 1
1, 0
2, 1
1, 3
0, 1
0, 0
0, 2
0, 2
0, 2
1, 0
2, 1
2, 2
0, 1
1, 1
0, 4
0, 2
1, 1
1, 0
2, 0
1, 1
1, 0
0, 0
2, 0
0, 0
3, 3
0, 0
0, 1
1, 0
0, 0
2, 0
1, 1
2, 1
0, 1
1, 2
0, 0
3, 0
1, 1
1, 2
0, 1
0, 0
0, 0
0, 2
1, 1
0, 3
0, 0
0, 0
1, 0
0, 1
0, 0
1, 1
0, 1
0, 1
0, 1
0, 0
1, 0
1, 1
1, 2
2, 0
0, 1
2, 1
0, 1
1, 0
1, 0
0, 0
0, 1
0, 0
0, 0
0, 0
1, 2
0, 0
2, 0
1, 1
0, 0
1, 0
1, 3
1, 1
0, 0
0, 1
1, 1
0, 0
1, 0
2, 0
0, 0
0, 1
0, 1
0, 1
2, 1
1, 0
1, 0
1, 0
0, 0
0, 1
1, 0
1, 3
0, 0
0, 0
0, 1
0, 1
0, 0
1, 0
1, 0
1, 0
0, 0
1, 0
0, 1
0, 0
0, 0
1, 1
0, 0
2, 0
1, 0
0, 0
1, 0
0, 0
1, 0
2, 0
1, 0
0, 1
1, 0
0, 0
0, 2
1, 0
1, 1
0, 0
0, 0
1, 0
1, 1
0, 0
0, 1
0, 0
1, 0
0, 1
1, 1
0, 0
0, 0
0, 1
1, 0
0, 0
0, 0
1, 0
0, 0
0, 0
0, 0
1, 0
0, 0
0, 0
0, 0
0, 0
0, 0
0, 0
1, 1
1, 1
0, 0
0, 0
0, 0
1, 0
0, 0
1, 0
0, 0
0, 0
0, 1
0, 0
0, 0
0, 1
0, 0
0, 0
1, 0
0, 1
0, 0
2, 0
1, 0
0, 0
0, 0
0, 0
0, 0
1, 0
0, 0
0, 0
1, 1
0, 0
0, 1
0, 0
0, 0
1, 0
0, 1
0, 0
0, 0
2, 0
0, 0
0, 0
0, 1
1, 0
0, 0
0, 1
0, 1
0, 1
2, 0
0, 0
0, 0
0, 0
1, 0
0, 1
0, 1
0, 1
0, 0
0, 0
0, 0
0, 0
0, 0
1, 0
0, 0
0, 1
0, 0
0, 0
0, 0
1, 1
0, 0
0, 1
0, 0
1, 0
0, 0
0, 0
0, 1
0, 1
0, 1
0, 1
0, 0
1, 0
0, 0
0, 0
0, 0
0, 0
0, 0
0, 0
0, 0
0, 0
0, 0
0, 1
0, 0
0, 0
0, 0
0, 0
0, 1
0, 0
0, 1
0, 0
0, 0
0, 0
0, 0
2, 1
0, 0
0, 1
0, 0
0, 0
0, 0
0, 0
0, 0
0, 0
0, 0
1, 2
1, 0
0, 0
0, 0
0, 0
0, 0
0, 0
0, 0
0, 2
0, 0
1, 0
0, 0
0, 0
0, 0
0, 0
0, 0
0, 0
0, 0
0, 0
0, 0
0, 0
0, 0
0, 0
0, 1
0, 0
0, 0
0, 0
0, 0
0, 0
0, 0
0, 0
0, 0
0, 0
0, 1
0, 0
0, 0
0, 0
0, 0
0, 0
0, 0
0, 0
0, 0
0, 0
0, 0
0, 0
0, 0
0, 0
0, 0
0, 1
0, 0
0, 0
0, 0
0, 0
0, 0
0, 0
0, 0
0, 0
0, 0
0, 0
0, 0
0, 1
0, 0
1, 0
0, 0
0, 1
0, 0
0, 0
0, 0
0, 0
0, 0
0, 0
1, 0
0, 0
0, 0
0, 0
0, 0
0, 0
0, 0
0, 0
0, 0
0, 1
0, 0
0, 0
0, 0
0, 0
0, 0
0, 0
0, 0
0, 0
0, 0
0, 0
0, 0
0, 0
0, 0
0, 0
0, 0
0, 0
0, 0
0, 0
0, 0
0, 0
0, 0
0, 0
0, 0
0, 0
0, 0
0, 0
0, 1
0, 0
0, 0
0, 0
0, 0
0, 0
0, 1
0, 0
0, 0
0, 0
0, 0
0, 0
0, 0
0, 0
0, 0
0, 0
1, 0
0, 0
0, 0
0, 0
0, 0
0, 0
0, 0
0, 0
0, 0
0, 0
0, 0
0, 0
0, 0
0, 0
0, 0
0, 0
0, 0
0, 0
0, 0
0, 0
0, 0
0, 0
0, 0
0, 0
0, 0
0, 0
0, 0
0, 0
0, 0
0, 0
0, 0
0, 0
0, 0
0, 0
0, 0
0, 0
0, 0
0, 0
0, 0
1, 0
0, 0
0, 0
0, 0
0, 0
0, 0
0, 0
0, 0
0, 0
0, 0
0, 0
0, 0
0, 0
0, 0
0, 0
0, 0
0, 0
0, 0
0, 0
0, 0
0, 0
0, 0
0, 0
0, 0
0, 0
0, 0
0, 0
0, 0
0, 0
0, 0
0, 0
0, 0
0, 0
0, 0
0, 0
0, 0
0, 0
0, 0
0, 0
0, 0
0, 0
0, 0
0, 0
0, 0
0, 0
0, 0
0, 0
0, 0
0, 0
0, 0
0, 0
0, 0
0, 0
0, 0
0, 0
0, 0
0, 0
0, 0
0, 0
0, 0
0, 0
0, 0
0, 0
0, 0
0, 0
0, 0
0, 0
0, 0
0, 0
0, 0
0, 0
0, 0
0, 0
0, 0
0, 0
0, 0
0, 0
0, 0
0, 0
0, 0
0, 0
0, 0
0, 0
0, 0
0, 0
0, 0
0, 0
0, 0
0, 0
0, 0
0, 0
0, 0
0, 0
0, 0
0, 0
0, 0
0, 0
0, 0
0, 0
0, 0
0, 0
0, 0
0, 0
0, 0
0, 0
0, 0
0, 0
0, 0
0, 0
0, 0
0, 0
0, 0
0, 0
0, 0
0, 0
0, 0
0, 0
0, 0
0, 0
0, 0
0, 0
0, 0
0, 0
0, 0
0, 0
0, 0
0, 0
0, 0
0, 0
0, 0
0, 0
0, 0
0, 0
0, 0
0, 0
0, 0
0, 0
0, 0
0, 0
0, 0
0, 0
0, 0
0, 0
0, 0
0, 0
0, 0
0, 0
0, 0
0, 0
0, 0
0, 0
0, 0
0, 0
0, 0
0, 0
0, 0
0, 0
0, 0
0, 0
0, 0
0, 0
0, 0
0, 0
0, 0
0, 0
0, 0
0, 0
0, 0
0, 0
0, 0
0, 0
0, 0
0, 0
0, 0
0, 0
0, 0
0, 0
0, 0
0, 0
0, 0
0, 0
0, 0
0, 0
0, 0
0, 0
0, 0
0, 0
0, 0
0, 0
0, 0
0, 0
0, 0
0, 0
0, 0
0, 0
0, 0
0, 0
0, 0
0, 0
0, 0
0, 0
0, 0
0, 0
0, 0
0, 0
0, 0
0, 0
0, 0
0, 0
0, 0
0, 0
0, 0
0, 0
0, 0
0, 0
0, 0
0, 0
0, 0
0, 0
0, 0
0, 0
0, 0
0, 0
0, 0
0, 0
0, 0
0, 0
0, 0
0, 0
0, 0
0, 0
0, 0
0, 0
0, 0
0, 0
0, 0
0, 0
0, 0
0, 0
0, 0
0, 0
0, 0
0, 0
0, 0
0, 0
0, 0
0, 0
0, 0
0, 0
0, 0
0, 0
0, 0
0, 0
0, 0
0, 0
0, 0
0, 0
0, 0
0, 0
0, 0
0, 0
0, 0
0, 0
0, 0
0, 0
0, 0
0, 0
0, 0
0, 0
0, 0
0, 0
0, 0
0, 0
0, 0
0, 0
0, 0
0, 0
0, 0
0, 0
0, 0
0, 0
0, 0
0, 0
0, 0
0, 0
0, 0
0, 0
0, 0
0, 0
0, 0
0, 0
0, 0
0, 0
0, 0
0, 0
0, 0
0, 0
0, 0
0, 0
0, 0
0, 0
0, 0
0, 0
0, 0
0, 0
0, 0
0, 0
0, 0
0, 0
0, 0
0, 0
0, 0
0, 0
0, 0
0, 0
0, 0
0, 0
0, 0
0, 0
0, 0
0, 0
0, 0
0, 0
0, 0
0, 0
0, 0
0, 0
0, 0
0, 0
0, 0
0, 0
0, 0
0, 0
0, 0
0, 0
0, 0
0, 0
0, 0
0, 0
0, 0
0, 0
0, 0
0, 0
0, 0
0, 0
0, 0
0, 0
0, 0
0, 0
0, 0
0, 0
#ENDOFDATA     end of spectrum data