File: host_upload/02-11-2024/rqc/uplink1/ps__0567_0717304816_000rfs_shot_106.msa
#FORMAT      : EMSA/MAS spectral data file
#VERSION     : TC202v2.0 PIXL
#TITLE       : Novarupta (sol567) subset1
#DATE        : 02-11-2024      Date in the format DD-MMM-YYYY, for example 07-JUL-2010
#TIME        :             The time of day at which the spectrum was recorded, in 24-hour format
#OWNER       : PIXL Flight Model       (PIXL will use this to indicate which instrument took the data.)
#NPOINTS     : 4096     Number of data points in the spectrum (This can be zero for configuration only files)
#NCOLUMNS    : 2     Number of data columns in the spectrum (This can be zero for configuration only files)
#XUNITS      : eV
#YUNITS      : COUNTS
#DATATYPE    : YY
#XPERCHAN    : 7.862, 7.881   eV per channel (separate by commas if more than one detector)
#OFFSET      : 18.5, -22.4         eV of first channel  (separate by commas if more than one detector
#SIGNALTYPE  : XRF
#YP_TEMP     : -0.876
#LIVETIME    : 8.83312, 8.81987   seconds (separate by commas if more than one detector)
#REALTIME    : 10, 10.0   seconds (separate by commas if more than one detector)
#SPECTRUM    : start of spectrum data
0, 0
0, 0
0, 0
0, 0
0, 0
0, 0
0, 0
0, 0
0, 0
0, 0
0, 0
0, 0
0, 0
0, 0
0, 0
0, 0
0, 0
0, 0
0, 0
0, 0
0, 0
0, 0
0, 0
0, 0
0, 0
0, 0
0, 0
0, 0
0, 0
0, 1
0, 0
0, 0
0, 0
0, 2
3, 3
2, 3
0, 2
1, 0
3, 4
5, 1
1, 0
5, 2
4, 2
2, 4
5, 5
1, 2
3, 3
2, 4
4, 1
6, 5
8, 5
15, 9
11, 13
12, 16
10, 17
14, 14
10, 14
9, 8
16, 12
7, 14
13, 13
24, 25
46, 45
39, 45
51, 57
36, 50
48, 28
37, 40
45, 41
45, 66
120, 134
180, 218
252, 355
379, 412
426, 474
476, 497
395, 435
283, 379
230, 218
135, 117
85, 80
36, 45
25, 39
27, 34
34, 25
25, 38
33, 23
32, 26
22, 35
21, 14
17, 21
11, 20
29, 23
50, 54
67, 107
129, 171
182, 228
252, 270
259, 242
267, 286
246, 250
201, 184
122, 121
98, 109
63, 69
56, 59
49, 58
71, 74
93, 106
133, 143
173, 192
192, 234
224, 244
223, 226
186, 215
146, 167
142, 119
88, 129
84, 100
69, 69
65, 65
87, 60
65, 69
51, 55
40, 39
30, 38
24, 26
22, 11
20, 24
14, 15
8, 15
7, 12
8, 7
6, 7
8, 6
5, 12
12, 8
18, 15
21, 24
24, 19
17, 23
38, 27
27, 25
22, 27
20, 21
10, 16
16, 11
12, 15
8, 15
13, 19
32, 29
53, 54
97, 113
138, 169
211, 265
279, 332
309, 361
368, 363
294, 380
268, 302
230, 236
164, 159
111, 91
62, 65
30, 28
31, 41
20, 37
24, 31
40, 40
43, 52
49, 64
48, 54
47, 67
40, 37
37, 47
30, 28
22, 18
7, 8
16, 7
7, 4
6, 6
5, 11
15, 10
13, 6
11, 11
15, 16
13, 14
30, 26
34, 30
54, 42
51, 57
59, 71
75, 59
54, 54
49, 44
34, 30
38, 36
30, 26
28, 19
15, 18
10, 13
11, 10
15, 15
14, 12
8, 15
10, 20
17, 14
16, 16
18, 23
23, 16
21, 18
21, 18
15, 18
18, 16
21, 13
14, 13
7, 17
12, 9
10, 10
9, 10
9, 13
5, 8
6, 16
18, 23
13, 13
20, 21
27, 24
21, 20
15, 33
21, 29
26, 29
29, 34
23, 30
16, 20
17, 19
16, 19
9, 17
16, 10
11, 18
14, 18
8, 14
14, 15
9, 10
11, 14
17, 18
20, 21
26, 28
36, 32
41, 50
41, 42
42, 49
39, 58
52, 60
32, 40
33, 31
40, 34
21, 27
19, 16
20, 19
19, 12
20, 29
29, 28
29, 51
79, 120
150, 152
237, 338
425, 499
642, 786
952, 1080
1196, 1409
1461, 1754
1623, 1700
1665, 1759
1521, 1590
1344, 1295
1108, 944
779, 668
516, 425
305, 277
178, 151
128, 76
58, 36
35, 34
24, 23
20, 11
20, 14
15, 21
20, 26
13, 20
21, 20
27, 27
30, 40
40, 67
53, 75
98, 122
130, 138
181, 178
209, 262
246, 264
226, 263
237, 260
231, 230
212, 182
160, 134
92, 120
65, 63
48, 47
33, 27
20, 24
20, 6
9, 11
7, 7
8, 10
11, 13
7, 9
10, 8
8, 12
16, 16
18, 13
9, 9
12, 9
15, 9
6, 3
6, 8
5, 4
7, 5
4, 5
6, 6
4, 11
6, 5
3, 4
3, 5
4, 7
7, 3
7, 5
9, 1
5, 6
7, 6
7, 5
2, 4
7, 4
5, 10
3, 8
6, 5
9, 7
8, 7
4, 11
5, 5
9, 5
6, 9
8, 5
8, 10
11, 7
5, 3
4, 6
5, 9
6, 10
3, 3
9, 3
4, 8
5, 6
11, 11
10, 8
12, 7
9, 12
12, 7
5, 8
15, 10
9, 9
9, 5
8, 9
7, 13
6, 10
5, 7
9, 9
6, 6
3, 3
6, 2
4, 4
8, 1
10, 4
9, 5
4, 6
12, 6
4, 5
3, 8
7, 5
9, 8
3, 5
5, 7
5, 4
5, 3
5, 8
7, 5
6, 5
2, 5
2, 4
2, 3
5, 5
4, 10
4, 4
4, 4
8, 3
8, 8
5, 2
6, 3
4, 6
4, 10
7, 3
8, 5
5, 2
12, 3
5, 2
7, 8
3, 1
6, 7
4, 2
2, 6
3, 3
2, 5
3, 3
2, 4
1, 2
1, 9
6, 9
3, 4
9, 1
3, 2
5, 2
4, 3
6, 6
3, 1
2, 3
6, 5
4, 4
6, 5
3, 4
3, 1
3, 6
7, 0
4, 3
4, 3
4, 5
5, 5
5, 4
1, 2
4, 2
6, 9
1, 5
4, 3
3, 4
3, 2
3, 3
1, 5
4, 2
0, 5
2, 6
2, 3
2, 2
3, 9
1, 5
2, 3
1, 3
1, 2
3, 2
2, 4
2, 2
2, 2
3, 2
3, 4
8, 2
0, 1
3, 2
3, 4
1, 2
5, 1
6, 1
4, 0
2, 3
3, 3
2, 3
5, 2
4, 2
1, 1
2, 4
2, 2
3, 1
1, 4
2, 2
1, 2
3, 0
3, 2
1, 0
5, 2
0, 3
4, 2
0, 5
1, 6
4, 2
1, 1
3, 1
2, 1
0, 2
1, 3
6, 1
5, 4
2, 2
5, 3
2, 3
3, 2
1, 4
2, 4
3, 1
2, 5
2, 4
1, 2
3, 4
1, 1
1, 5
1, 2
1, 3
0, 4
1, 1
0, 1
3, 2
1, 1
3, 0
3, 1
2, 3
2, 2
2, 4
2, 1
3, 1
0, 2
2, 1
1, 0
6, 1
1, 2
5, 10
2, 2
3, 3
3, 3
3, 3
4, 3
2, 2
3, 5
5, 1
4, 1
0, 2
2, 3
0, 2
2, 1
1, 0
0, 2
1, 2
2, 1
0, 1
2, 1
3, 2
0, 1
2, 1
1, 3
2, 1
1, 1
1, 4
2, 0
2, 0
2, 1
3, 2
1, 2
2, 3
2, 2
2, 1
2, 2
3, 0
2, 1
1, 3
0, 4
1, 1
2, 2
2, 1
2, 2
2, 3
1, 0
2, 1
1, 2
0, 2
0, 2
0, 1
2, 3
0, 2
1, 2
2, 1
0, 0
2, 0
2, 0
3, 0
1, 2
0, 1
0, 4
6, 2
0, 4
1, 1
1, 1
1, 1
1, 2
3, 0
0, 0
1, 1
0, 1
1, 0
2, 0
0, 0
1, 0
0, 3
1, 1
2, 1
0, 0
2, 0
0, 0
0, 0
0, 1
0, 1
0, 0
1, 0
2, 0
0, 1
1, 1
1, 1
1, 4
0, 2
3, 0
0, 1
0, 2
0, 0
1, 0
2, 0
0, 0
0, 3
1, 0
0, 2
0, 0
0, 1
0, 0
0, 1
1, 2
2, 0
1, 2
0, 2
2, 0
1, 2
2, 0
1, 0
0, 1
1, 1
2, 3
1, 1
1, 0
0, 1
1, 1
0, 1
0, 0
0, 1
0, 1
0, 0
0, 1
1, 0
1, 0
0, 0
1, 0
0, 1
0, 1
0, 0
0, 0
0, 1
0, 2
1, 0
0, 1
0, 2
0, 0
1, 0
0, 0
0, 0
0, 0
0, 0
0, 0
0, 0
0, 0
0, 1
2, 0
0, 0
0, 0
0, 0
1, 0
0, 0
1, 0
1, 0
0, 2
3, 0
1, 0
0, 0
0, 0
0, 0
1, 0
1, 1
1, 0
0, 1
0, 0
1, 0
0, 0
1, 1
1, 0
0, 0
0, 1
1, 0
0, 0
1, 0
0, 0
0, 0
2, 0
0, 0
1, 0
0, 1
0, 0
1, 1
1, 0
1, 1
0, 0
0, 1
0, 1
0, 0
0, 0
0, 0
0, 0
0, 0
0, 0
0, 2
1, 0
1, 0
0, 0
0, 0
0, 0
0, 0
1, 0
0, 0
1, 2
1, 0
0, 2
0, 0
0, 0
1, 0
0, 0
0, 0
1, 0
0, 0
0, 1
1, 0
0, 0
2, 0
0, 1
0, 0
0, 0
0, 0
0, 0
0, 0
0, 0
1, 0
1, 0
0, 0
0, 0
0, 0
0, 0
0, 0
0, 0
0, 1
0, 0
0, 1
0, 1
0, 2
1, 1
1, 0
0, 1
1, 0
1, 0
0, 0
0, 1
0, 0
0, 0
0, 0
0, 0
0, 0
1, 0
1, 1
0, 0
0, 0
0, 1
0, 0
1, 0
0, 0
0, 0
0, 2
0, 1
0, 0
1, 0
0, 1
1, 0
0, 0
0, 0
0, 2
0, 0
0, 0
0, 0
0, 0
0, 0
1, 0
0, 0
0, 0
0, 0
0, 1
0, 0
0, 0
0, 0
0, 1
1, 1
0, 1
0, 0
1, 0
0, 0
0, 0
0, 0
0, 0
0, 0
0, 0
0, 0
0, 0
0, 0
0, 0
0, 0
0, 0
0, 0
0, 0
0, 0
2, 0
0, 0
0, 1
0, 0
0, 0
0, 0
0, 0
0, 1
0, 0
1, 0
1, 0
0, 2
0, 0
0, 0
0, 0
0, 0
0, 0
0, 0
0, 0
0, 0
0, 0
1, 0
0, 0
0, 0
0, 0
0, 0
0, 0
0, 1
0, 1
0, 0
1, 0
0, 0
1, 0
0, 0
0, 0
0, 0
0, 0
0, 0
0, 0
1, 0
0, 1
0, 1
0, 0
0, 0
0, 0
0, 0
0, 0
0, 0
0, 0
0, 0
0, 0
0, 0
0, 0
0, 1
0, 0
0, 0
0, 0
2, 0
0, 0
0, 0
0, 0
0, 1
0, 0
0, 0
0, 0
0, 0
0, 0
0, 0
0, 0
0, 0
0, 0
0, 0
1, 0
0, 0
0, 0
0, 0
0, 0
0, 0
0, 0
0, 0
0, 0
0, 0
0, 0
0, 0
0, 0
0, 0
0, 0
0, 0
1, 0
0, 0
0, 0
0, 0
0, 0
0, 0
0, 0
0, 0
0, 1
0, 0
0, 0
0, 0
0, 0
0, 0
0, 0
0, 0
0, 0
0, 0
0, 0
0, 0
0, 0
0, 0
0, 0
0, 0
0, 0
0, 0
0, 1
0, 0
0, 0
0, 0
0, 0
0, 0
0, 0
0, 0
0, 0
1, 0
0, 0
0, 0
0, 0
0, 0
0, 0
0, 0
0, 0
0, 0
0, 0
0, 0
0, 0
0, 0
0, 0
0, 0
0, 0
0, 0
0, 0
0, 0
0, 0
0, 0
0, 0
1, 0
0, 0
0, 0
0, 0
0, 0
0, 0
0, 0
0, 0
0, 0
0, 0
0, 0
0, 0
0, 0
0, 0
0, 0
0, 0
0, 0
0, 0
0, 0
0, 0
0, 0
0, 0
0, 0
0, 0
0, 0
0, 0
0, 0
0, 0
0, 0
0, 0
0, 0
0, 0
0, 0
0, 0
0, 0
0, 0
0, 0
0, 0
0, 0
0, 0
0, 0
0, 0
0, 0
0, 0
0, 0
0, 0
0, 0
0, 0
0, 0
0, 0
0, 0
0, 0
0, 0
0, 0
0, 0
0, 0
0, 0
0, 0
0, 0
0, 0
0, 0
0, 0
0, 0
1, 0
0, 0
0, 0
0, 0
0, 0
0, 0
0, 0
0, 0
0, 0
0, 0
0, 0
0, 0
0, 0
0, 0
0, 0
0, 0
0, 0
0, 0
0, 0
0, 0
0, 0
0, 0
0, 0
0, 0
0, 0
0, 0
0, 0
0, 0
0, 0
0, 0
0, 0
0, 0
0, 0
0, 0
0, 0
0, 0
0, 0
0, 0
0, 0
0, 0
0, 0
0, 0
0, 0
0, 0
0, 0
0, 0
0, 0
0, 0
0, 0
0, 0
0, 0
0, 0
0, 0
0, 0
0, 0
0, 0
0, 0
0, 0
0, 0
0, 0
0, 0
0, 0
0, 0
0, 0
0, 0
0, 0
0, 0
0, 0
0, 0
0, 0
0, 0
0, 0
0, 0
0, 0
0, 0
0, 0
0, 0
0, 0
0, 0
0, 0
0, 0
0, 0
0, 0
0, 0
0, 0
0, 0
0, 0
0, 0
0, 0
0, 0
0, 0
0, 0
0, 0
0, 0
0, 0
0, 0
0, 0
0, 0
0, 0
0, 0
0, 0
0, 0
0, 0
0, 0
0, 0
0, 0
0, 0
0, 0
0, 0
0, 0
0, 0
0, 0
0, 0
0, 0
0, 0
0, 0
0, 0
0, 0
0, 0
0, 0
0, 0
0, 0
0, 0
0, 0
0, 0
0, 0
0, 0
0, 0
0, 0
0, 0
0, 0
0, 0
0, 0
0, 0
0, 0
0, 0
0, 0
0, 0
0, 0
0, 0
0, 0
0, 0
0, 0
0, 0
0, 0
0, 0
0, 0
0, 0
0, 0
0, 0
0, 0
0, 0
0, 0
0, 0
0, 0
0, 0
0, 0
0, 0
0, 0
0, 0
0, 0
0, 0
0, 0
0, 0
0, 0
0, 0
0, 0
0, 0
0, 0
0, 0
0, 0
0, 0
0, 0
0, 0
0, 0
0, 0
0, 0
0, 0
0, 0
0, 0
0, 0
0, 0
0, 0
0, 0
0, 0
0, 0
0, 0
0, 0
0, 0
0, 0
0, 0
0, 0
0, 0
0, 0
0, 0
0, 0
0, 0
0, 0
0, 0
0, 0
0, 0
0, 0
0, 0
0, 0
0, 0
0, 0
0, 0
0, 0
0, 0
0, 0
0, 0
0, 0
0, 0
0, 0
0, 0
0, 0
0, 0
0, 0
0, 0
0, 0
0, 0
0, 0
0, 0
0, 0
0, 0
0, 0
0, 0
0, 0
0, 0
0, 0
0, 0
0, 0
0, 0
0, 0
0, 0
0, 0
0, 0
0, 0
0, 0
0, 0
0, 0
0, 0
0, 0
0, 0
0, 0
0, 0
0, 0
0, 0
0, 0
0, 0
0, 0
0, 0
0, 0
0, 0
0, 0
0, 0
0, 0
0, 0
0, 0
0, 0
0, 0
0, 0
0, 0
0, 0
0, 0
0, 0
0, 0
0, 0
0, 0
0, 0
0, 0
0, 0
0, 0
0, 0
0, 0
0, 0
0, 0
0, 0
0, 0
0, 0
0, 0
0, 0
0, 0
0, 0
0, 0
0, 0
0, 0
0, 0
0, 0
0, 0
0, 0
0, 0
0, 0
0, 0
0, 0
0, 0
0, 0
0, 0
0, 0
0, 0
0, 0
0, 0
0, 0
0, 0
0, 0
0, 0
0, 0
0, 0
0, 0
0, 0
0, 0
0, 0
0, 0
0, 0
0, 0
0, 0
#ENDOFDATA     end of spectrum data