File: host_upload/02-11-2024/rqc/uplink1/ps__0567_0717304816_000rfs_shot_176.msa
#FORMAT      : EMSA/MAS spectral data file
#VERSION     : TC202v2.0 PIXL
#TITLE       : Novarupta (sol567) subset1
#DATE        : 02-11-2024      Date in the format DD-MMM-YYYY, for example 07-JUL-2010
#TIME        :             The time of day at which the spectrum was recorded, in 24-hour format
#OWNER       : PIXL Flight Model       (PIXL will use this to indicate which instrument took the data.)
#NPOINTS     : 4096     Number of data points in the spectrum (This can be zero for configuration only files)
#NCOLUMNS    : 2     Number of data columns in the spectrum (This can be zero for configuration only files)
#XUNITS      : eV
#YUNITS      : COUNTS
#DATATYPE    : YY
#XPERCHAN    : 7.862, 7.881   eV per channel (separate by commas if more than one detector)
#OFFSET      : 18.5, -22.4         eV of first channel  (separate by commas if more than one detector
#SIGNALTYPE  : XRF
#YP_TEMP     : 0.247
#LIVETIME    : 8.82226, 8.82291   seconds (separate by commas if more than one detector)
#REALTIME    : 10, 10.0   seconds (separate by commas if more than one detector)
#SPECTRUM    : start of spectrum data
0, 0
0, 0
0, 0
0, 0
0, 0
0, 0
0, 0
0, 0
0, 0
0, 0
0, 0
0, 0
0, 0
0, 0
0, 0
0, 0
0, 0
0, 0
0, 0
0, 0
0, 0
0, 0
0, 0
0, 0
0, 0
0, 0
0, 0
0, 0
0, 0
0, 0
0, 0
0, 2
0, 1
1, 0
0, 1
4, 2
4, 3
2, 1
3, 3
2, 4
5, 3
4, 3
5, 1
5, 3
8, 4
1, 3
2, 4
1, 6
3, 2
5, 3
5, 8
9, 10
11, 10
12, 13
19, 13
13, 25
16, 10
16, 10
11, 15
14, 18
19, 22
22, 23
43, 46
38, 38
41, 40
49, 44
37, 31
31, 42
28, 41
54, 68
89, 131
181, 213
327, 365
426, 438
498, 519
519, 495
412, 430
312, 370
219, 209
132, 154
83, 83
58, 50
36, 37
33, 33
37, 27
32, 32
35, 41
28, 41
21, 36
24, 19
12, 12
24, 18
25, 27
41, 56
80, 80
140, 126
189, 219
260, 288
316, 338
304, 296
268, 242
209, 212
147, 165
95, 114
72, 63
48, 61
69, 57
91, 78
105, 97
119, 164
173, 192
190, 245
244, 212
258, 251
227, 215
176, 182
159, 121
99, 127
97, 64
103, 91
82, 61
81, 73
67, 82
44, 65
47, 46
43, 40
27, 31
22, 26
16, 23
16, 14
15, 14
14, 12
5, 8
10, 6
7, 4
9, 10
8, 5
14, 13
16, 22
23, 20
29, 27
37, 24
25, 32
27, 23
14, 17
21, 19
11, 10
8, 13
11, 9
15, 10
33, 37
50, 65
91, 107
139, 165
196, 216
272, 318
296, 387
349, 388
362, 405
304, 283
192, 259
148, 152
112, 100
68, 57
41, 43
25, 21
47, 22
34, 45
35, 44
37, 47
48, 66
50, 66
53, 48
44, 53
39, 34
26, 24
21, 14
22, 16
7, 6
6, 3
7, 11
12, 15
12, 10
10, 11
6, 9
17, 18
22, 17
30, 22
30, 43
53, 60
51, 57
64, 55
78, 74
65, 86
51, 42
51, 48
20, 48
27, 33
20, 12
18, 33
18, 23
9, 7
21, 16
17, 17
18, 13
15, 13
22, 5
21, 31
22, 16
28, 24
17, 20
21, 21
17, 18
20, 22
8, 17
8, 15
18, 12
7, 15
5, 7
12, 7
12, 15
5, 11
15, 8
8, 9
14, 25
16, 24
20, 20
22, 22
25, 21
29, 36
34, 39
29, 38
29, 18
20, 23
26, 23
17, 22
14, 21
14, 15
13, 12
19, 17
12, 6
11, 14
12, 16
17, 15
10, 12
16, 24
23, 29
37, 37
36, 49
50, 40
48, 48
41, 35
43, 53
47, 45
27, 41
22, 32
27, 35
24, 12
24, 20
22, 23
27, 25
28, 31
50, 54
74, 90
139, 158
238, 290
357, 453
580, 781
907, 1138
1215, 1455
1514, 1706
1669, 1864
1792, 1943
1698, 1750
1404, 1452
1168, 1103
879, 808
595, 530
367, 341
224, 172
129, 105
77, 51
41, 35
36, 20
22, 20
19, 25
18, 23
12, 17
23, 12
20, 25
26, 18
25, 49
44, 54
47, 73
96, 102
110, 152
155, 176
182, 234
233, 290
277, 272
252, 285
265, 247
209, 204
160, 159
131, 113
86, 72
63, 41
28, 36
24, 22
11, 15
12, 15
6, 12
7, 2
9, 24
11, 14
6, 16
11, 16
16, 9
13, 16
12, 18
12, 13
14, 4
2, 4
4, 6
14, 9
5, 9
7, 4
6, 7
7, 7
5, 6
7, 6
3, 5
5, 4
8, 3
8, 10
3, 6
8, 10
9, 4
7, 4
3, 9
4, 6
4, 5
12, 11
10, 12
5, 6
7, 7
3, 5
4, 4
6, 8
6, 8
5, 9
7, 6
10, 8
9, 7
7, 7
4, 7
1, 6
4, 8
6, 7
7, 11
6, 7
10, 6
9, 13
11, 10
15, 8
17, 13
6, 13
9, 12
10, 11
10, 10
14, 8
10, 4
12, 8
5, 9
7, 3
7, 8
5, 5
1, 4
5, 6
3, 3
8, 6
10, 6
6, 4
9, 8
7, 6
6, 8
2, 4
11, 4
3, 5
6, 10
4, 4
3, 6
9, 1
7, 5
3, 7
6, 2
6, 3
3, 7
4, 8
7, 5
8, 3
5, 4
7, 5
6, 4
3, 6
8, 3
4, 6
2, 2
8, 5
5, 7
4, 6
6, 4
3, 4
4, 2
2, 7
4, 4
3, 2
1, 4
10, 4
5, 7
8, 4
1, 7
5, 7
4, 3
2, 3
8, 7
5, 5
6, 8
5, 8
8, 4
2, 1
6, 6
3, 5
7, 3
5, 1
4, 4
4, 5
5, 3
1, 4
3, 3
3, 3
5, 2
3, 5
3, 3
1, 6
3, 2
7, 4
5, 6
2, 2
6, 4
3, 3
5, 3
5, 3
3, 2
4, 4
0, 7
3, 3
3, 2
3, 3
3, 6
4, 3
5, 1
5, 6
4, 6
3, 4
2, 1
2, 4
6, 5
1, 4
3, 3
1, 1
1, 4
1, 1
2, 5
1, 4
0, 6
4, 4
4, 7
2, 3
1, 5
0, 3
1, 2
1, 2
6, 5
3, 1
3, 3
3, 3
5, 4
2, 8
5, 2
1, 3
2, 1
1, 2
0, 0
2, 1
2, 1
1, 4
3, 3
4, 4
4, 1
3, 0
2, 4
3, 4
1, 2
1, 3
1, 3
3, 3
5, 3
2, 1
3, 1
2, 0
1, 1
0, 2
2, 1
1, 1
3, 3
0, 6
1, 0
4, 1
1, 2
2, 2
4, 2
2, 2
4, 2
1, 3
2, 3
1, 1
3, 3
3, 4
1, 3
4, 2
2, 1
4, 2
0, 3
1, 0
0, 1
3, 1
2, 2
4, 4
2, 6
1, 2
6, 2
3, 2
4, 1
5, 3
2, 0
2, 2
5, 3
1, 4
3, 1
6, 1
2, 1
2, 0
0, 1
1, 5
3, 1
1, 3
3, 1
1, 2
1, 2
1, 2
0, 3
2, 1
0, 2
1, 3
0, 1
1, 1
2, 1
4, 0
0, 0
1, 1
4, 3
2, 2
2, 1
0, 0
2, 1
2, 3
0, 3
0, 0
1, 0
2, 0
2, 3
1, 2
0, 1
0, 2
1, 1
2, 1
2, 2
1, 2
3, 1
1, 1
2, 0
2, 0
0, 3
3, 1
0, 0
2, 2
0, 1
1, 1
0, 1
0, 0
1, 1
2, 2
0, 0
1, 0
0, 0
3, 0
0, 2
0, 0
2, 1
1, 0
2, 0
0, 0
0, 2
1, 0
1, 0
1, 0
0, 1
1, 0
0, 0
1, 2
1, 4
1, 2
4, 2
1, 1
1, 0
0, 2
1, 0
0, 1
3, 0
0, 1
0, 0
0, 1
0, 1
1, 0
0, 0
0, 0
0, 0
0, 1
1, 2
1, 0
0, 1
0, 1
0, 0
1, 1
0, 0
0, 0
0, 0
0, 0
1, 1
0, 0
1, 1
0, 1
0, 3
0, 0
0, 2
1, 0
0, 0
0, 0
1, 1
1, 0
0, 0
0, 0
0, 0
0, 1
0, 1
0, 0
1, 0
0, 0
0, 0
1, 0
1, 1
1, 0
0, 1
0, 0
0, 0
1, 0
1, 0
0, 0
0, 0
1, 2
0, 1
1, 0
1, 0
0, 0
0, 0
0, 0
0, 0
1, 1
0, 0
0, 0
1, 1
0, 0
0, 0
0, 0
0, 0
0, 1
1, 0
1, 0
1, 0
0, 0
0, 0
0, 0
0, 0
1, 0
0, 0
3, 0
0, 1
0, 0
2, 1
0, 0
1, 1
0, 0
0, 0
0, 0
1, 1
0, 0
0, 0
1, 0
0, 2
1, 1
0, 1
0, 1
0, 0
1, 0
1, 0
0, 0
0, 1
0, 0
0, 0
0, 0
0, 1
0, 0
0, 0
1, 0
0, 1
0, 1
0, 0
0, 0
0, 1
0, 1
0, 1
0, 1
2, 0
0, 0
0, 1
0, 0
0, 1
0, 1
1, 0
0, 0
0, 0
0, 0
0, 0
0, 0
0, 0
0, 1
0, 0
0, 0
1, 0
0, 0
0, 0
0, 1
0, 0
0, 0
0, 0
0, 0
2, 0
0, 0
0, 0
2, 0
0, 0
0, 1
1, 0
1, 0
1, 0
0, 0
1, 0
0, 0
1, 0
0, 0
0, 0
1, 0
0, 0
0, 0
1, 0
0, 0
0, 0
0, 0
0, 1
2, 0
0, 0
0, 1
0, 1
0, 0
0, 0
0, 0
1, 1
0, 0
0, 0
0, 1
0, 0
1, 0
0, 0
0, 0
0, 0
0, 0
1, 0
0, 1
0, 0
1, 0
0, 0
0, 0
1, 0
1, 0
0, 0
0, 0
0, 0
0, 0
0, 0
0, 0
0, 0
0, 0
0, 0
0, 0
0, 0
0, 0
0, 0
0, 0
0, 0
0, 0
0, 0
0, 0
0, 1
0, 0
0, 0
0, 0
0, 0
0, 0
0, 0
0, 0
0, 0
0, 0
0, 0
0, 0
0, 0
0, 0
0, 0
0, 1
0, 0
0, 0
0, 1
0, 0
0, 2
0, 1
0, 0
0, 1
0, 0
0, 0
0, 0
0, 0
0, 0
0, 0
1, 0
0, 0
0, 0
0, 0
0, 0
0, 0
0, 0
0, 0
0, 0
0, 0
0, 0
0, 0
0, 0
0, 0
1, 0
1, 1
0, 0
0, 1
0, 0
0, 0
0, 0
0, 0
1, 1
0, 0
0, 0
0, 0
0, 0
0, 0
1, 0
0, 0
0, 0
0, 0
0, 0
0, 0
0, 0
0, 0
0, 0
1, 0
0, 0
0, 0
0, 0
0, 0
0, 0
0, 0
0, 0
0, 0
0, 0
0, 1
0, 0
0, 0
2, 0
0, 0
0, 0
0, 0
0, 0
0, 0
0, 0
0, 0
0, 0
0, 0
0, 0
0, 0
0, 0
0, 0
0, 0
0, 0
0, 0
0, 1
0, 0
0, 0
0, 0
0, 0
0, 0
0, 0
0, 0
1, 0
0, 0
0, 0
0, 1
0, 0
0, 0
0, 0
0, 0
0, 0
0, 0
0, 0
0, 0
0, 1
0, 0
0, 0
0, 0
0, 0
0, 0
0, 0
0, 0
0, 0
0, 0
0, 0
0, 0
0, 0
1, 0
0, 0
0, 0
0, 0
0, 0
0, 0
0, 0
0, 0
0, 0
0, 0
0, 0
0, 0
0, 0
0, 0
0, 0
0, 0
0, 0
0, 0
0, 0
0, 0
0, 0
0, 0
0, 0
0, 0
0, 0
0, 0
0, 0
0, 0
0, 0
0, 0
0, 0
0, 0
0, 0
0, 0
0, 0
0, 0
0, 0
0, 0
0, 0
0, 0
0, 0
0, 0
0, 0
0, 0
0, 0
0, 0
0, 0
0, 0
0, 0
0, 0
0, 0
0, 0
0, 0
0, 0
0, 0
0, 0
0, 0
0, 0
0, 0
0, 0
0, 0
0, 0
0, 0
0, 0
0, 0
0, 0
0, 0
0, 0
0, 0
0, 0
0, 0
0, 0
0, 0
0, 0
1, 0
0, 0
0, 0
0, 0
0, 0
0, 0
0, 0
0, 0
0, 0
0, 0
0, 0
0, 0
0, 0
0, 0
0, 0
0, 0
0, 0
0, 0
0, 0
0, 0
0, 0
0, 0
0, 0
0, 0
0, 0
0, 0
0, 0
0, 0
0, 0
0, 0
0, 0
0, 0
0, 0
0, 0
0, 0
0, 0
0, 0
0, 0
0, 0
0, 0
0, 0
0, 0
0, 0
0, 0
0, 0
0, 0
0, 0
0, 0
0, 0
0, 0
0, 0
0, 0
0, 0
0, 0
0, 0
0, 0
0, 0
0, 0
0, 0
0, 0
0, 0
0, 0
0, 0
0, 0
0, 0
0, 0
0, 0
0, 0
0, 0
0, 0
0, 0
0, 0
0, 0
0, 0
0, 0
0, 0
0, 0
0, 0
0, 0
0, 0
0, 0
0, 0
0, 0
0, 0
0, 0
0, 0
0, 0
0, 0
0, 0
0, 0
0, 0
0, 0
0, 0
0, 0
0, 0
0, 0
0, 0
0, 0
0, 0
0, 0
0, 0
0, 0
0, 0
0, 0
0, 0
0, 0
0, 0
0, 0
0, 0
0, 0
0, 0
0, 0
0, 0
0, 0
0, 0
0, 0
0, 0
0, 0
0, 0
0, 0
0, 0
0, 0
0, 0
0, 0
0, 0
0, 0
0, 0
0, 0
0, 0
0, 0
0, 0
0, 0
0, 0
0, 0
0, 0
0, 0
0, 0
0, 0
0, 0
0, 0
0, 0
0, 0
0, 0
0, 0
0, 0
0, 0
0, 0
0, 0
0, 0
0, 0
0, 0
0, 0
0, 0
0, 0
0, 0
0, 0
0, 0
0, 0
0, 0
0, 0
0, 0
0, 0
0, 0
0, 0
0, 0
0, 0
0, 0
0, 0
0, 0
0, 0
0, 0
0, 0
0, 0
0, 0
0, 0
0, 0
0, 0
0, 0
0, 0
0, 0
0, 0
0, 0
0, 0
0, 0
0, 0
0, 0
0, 0
0, 0
0, 0
0, 0
0, 0
0, 0
0, 0
0, 0
0, 0
0, 0
0, 0
0, 0
0, 0
0, 0
0, 0
0, 0
0, 0
0, 0
0, 0
0, 0
0, 0
0, 0
0, 0
0, 0
0, 0
0, 0
0, 0
0, 0
0, 0
0, 0
0, 0
0, 0
0, 0
0, 0
0, 0
0, 0
0, 0
0, 0
0, 0
0, 0
0, 0
0, 0
0, 0
0, 0
0, 0
0, 0
0, 0
0, 0
0, 0
0, 0
0, 0
0, 0
0, 0
0, 0
0, 0
0, 0
0, 0
0, 0
0, 0
0, 0
0, 0
0, 0
0, 0
0, 0
0, 0
0, 0
0, 0
0, 0
0, 0
0, 0
0, 0
0, 0
0, 0
0, 0
0, 0
0, 0
0, 0
0, 0
0, 0
0, 0
0, 0
0, 0
0, 0
0, 0
0, 0
0, 0
0, 0
0, 0
0, 0
0, 0
0, 0
0, 0
0, 0
0, 0
0, 0
0, 0
0, 0
0, 0
0, 0
0, 0
0, 0
0, 0
0, 0
0, 0
0, 0
0, 0
0, 0
0, 0
0, 0
0, 0
0, 0
0, 0
0, 0
0, 0
0, 0
0, 0
0, 0
0, 0
0, 0
0, 0
0, 0
0, 0
0, 0
0, 0
0, 0
0, 0
0, 0
0, 0
0, 0
0, 0
0, 0
0, 0
0, 0
0, 0
0, 0
0, 0
0, 0
0, 0
0, 0
0, 0
0, 0
0, 0
0, 0
#ENDOFDATA     end of spectrum data