File: host_upload/02-11-2024/rqc/uplink1/ps__0567_0717304816_000rfs_shot_145.msa
#FORMAT      : EMSA/MAS spectral data file
#VERSION     : TC202v2.0 PIXL
#TITLE       : Novarupta (sol567) subset1
#DATE        : 02-11-2024      Date in the format DD-MMM-YYYY, for example 07-JUL-2010
#TIME        :             The time of day at which the spectrum was recorded, in 24-hour format
#OWNER       : PIXL Flight Model       (PIXL will use this to indicate which instrument took the data.)
#NPOINTS     : 4096     Number of data points in the spectrum (This can be zero for configuration only files)
#NCOLUMNS    : 2     Number of data columns in the spectrum (This can be zero for configuration only files)
#XUNITS      : eV
#YUNITS      : COUNTS
#DATATYPE    : YY
#XPERCHAN    : 7.862, 7.881   eV per channel (separate by commas if more than one detector)
#OFFSET      : 18.5, -22.4         eV of first channel  (separate by commas if more than one detector
#SIGNALTYPE  : XRF
#YP_TEMP     : -0.33
#LIVETIME    : 8.8351, 8.82029   seconds (separate by commas if more than one detector)
#REALTIME    : 10, 10.0   seconds (separate by commas if more than one detector)
#SPECTRUM    : start of spectrum data
0, 0
0, 0
0, 0
0, 0
0, 0
0, 0
0, 0
0, 0
0, 0
0, 0
0, 0
0, 0
0, 0
0, 0
0, 0
0, 0
0, 0
0, 0
0, 0
0, 0
0, 0
0, 0
0, 0
0, 0
0, 0
0, 0
0, 0
0, 0
0, 0
0, 0
0, 1
0, 0
0, 0
0, 1
1, 1
1, 3
1, 2
3, 4
3, 8
4, 6
4, 2
8, 6
5, 4
3, 2
4, 3
2, 4
3, 1
2, 4
2, 4
1, 1
9, 7
9, 13
14, 14
10, 15
13, 21
14, 12
5, 10
13, 10
7, 10
14, 7
18, 10
23, 24
32, 41
43, 43
44, 44
35, 53
37, 37
35, 37
36, 40
61, 74
99, 142
194, 220
289, 332
397, 413
503, 534
470, 513
411, 450
346, 334
226, 218
145, 125
74, 84
49, 40
38, 41
34, 25
33, 37
42, 34
36, 32
30, 34
22, 29
19, 24
20, 22
11, 13
26, 28
47, 39
78, 73
144, 147
212, 220
245, 270
304, 331
276, 341
236, 261
201, 191
147, 156
98, 94
84, 84
61, 60
62, 54
64, 78
99, 111
142, 138
177, 197
185, 226
232, 225
215, 240
198, 203
152, 182
149, 126
103, 110
86, 98
73, 79
68, 86
67, 87
79, 59
58, 81
44, 52
37, 40
21, 31
29, 25
22, 25
19, 17
10, 18
12, 10
8, 5
8, 9
9, 8
8, 16
12, 13
22, 8
16, 14
31, 25
26, 31
30, 31
34, 18
29, 29
25, 28
22, 14
12, 13
20, 9
15, 13
18, 26
24, 32
48, 51
89, 94
150, 181
192, 234
299, 302
366, 380
360, 393
342, 383
302, 316
228, 198
184, 174
87, 94
72, 52
38, 30
28, 29
28, 31
23, 37
38, 41
43, 58
56, 61
58, 54
54, 71
56, 51
39, 46
26, 31
26, 16
11, 22
9, 13
8, 11
8, 10
5, 9
7, 18
4, 9
8, 15
17, 10
15, 26
18, 24
26, 30
39, 38
51, 54
53, 77
64, 72
56, 60
53, 50
46, 53
31, 38
26, 34
28, 24
21, 22
17, 7
15, 8
8, 14
14, 15
17, 12
16, 11
13, 12
23, 19
19, 23
18, 21
25, 20
14, 31
13, 11
17, 17
15, 19
18, 10
10, 12
13, 10
12, 17
10, 9
10, 11
12, 12
13, 12
17, 15
12, 9
17, 21
21, 23
25, 28
17, 27
17, 32
28, 39
34, 34
25, 25
24, 35
21, 23
21, 20
15, 13
13, 12
12, 17
15, 11
20, 13
9, 6
14, 6
15, 17
19, 27
28, 16
20, 34
28, 31
40, 37
41, 61
42, 52
43, 55
48, 42
50, 43
33, 52
42, 29
27, 19
21, 14
16, 17
16, 25
19, 30
23, 34
44, 42
75, 96
128, 150
229, 293
425, 533
630, 833
949, 1085
1234, 1463
1435, 1660
1621, 1812
1735, 1855
1692, 1767
1448, 1403
1131, 1096
837, 789
576, 482
347, 295
248, 174
116, 84
62, 52
30, 51
27, 24
24, 25
16, 13
16, 22
11, 17
22, 14
20, 20
28, 19
33, 37
38, 49
68, 73
73, 112
100, 145
187, 198
197, 229
242, 249
238, 317
261, 288
234, 221
211, 212
163, 137
130, 137
88, 64
64, 34
36, 31
19, 23
10, 13
14, 8
11, 12
10, 11
7, 13
9, 12
17, 11
12, 11
8, 16
14, 9
8, 14
10, 11
11, 10
14, 9
4, 7
13, 7
2, 2
8, 5
4, 10
7, 8
8, 4
3, 12
2, 10
4, 7
7, 3
6, 3
7, 9
4, 6
2, 14
9, 10
7, 8
6, 5
3, 8
4, 3
6, 5
7, 2
6, 7
9, 9
3, 7
9, 7
7, 11
6, 5
13, 5
4, 4
6, 7
9, 8
7, 6
9, 6
5, 11
6, 5
5, 4
6, 7
12, 2
7, 9
9, 13
5, 5
8, 6
5, 11
5, 13
6, 10
6, 15
7, 11
10, 8
5, 12
6, 6
5, 11
5, 8
4, 5
4, 5
3, 4
5, 3
1, 1
5, 13
5, 4
4, 8
8, 2
6, 7
7, 5
6, 6
5, 6
9, 6
6, 4
7, 2
6, 7
2, 8
4, 6
9, 6
4, 5
3, 3
2, 6
9, 5
3, 3
5, 7
2, 3
3, 4
6, 8
4, 4
7, 9
7, 10
4, 6
5, 10
5, 1
1, 4
5, 6
6, 5
4, 6
4, 2
6, 1
4, 8
5, 7
6, 5
6, 3
2, 1
4, 5
1, 4
4, 5
6, 6
1, 4
6, 6
4, 7
4, 7
5, 3
6, 1
2, 5
3, 5
3, 4
3, 4
9, 3
4, 3
5, 3
4, 5
2, 3
1, 3
4, 2
4, 1
3, 6
3, 1
4, 3
3, 5
0, 3
4, 4
2, 7
0, 3
2, 2
2, 2
2, 3
1, 2
2, 6
1, 3
6, 0
3, 8
3, 6
3, 5
6, 2
3, 3
1, 2
3, 1
3, 2
0, 0
1, 1
0, 4
4, 4
0, 6
3, 6
2, 2
4, 4
7, 1
2, 1
2, 2
4, 4
2, 5
7, 4
4, 2
2, 1
1, 0
2, 2
2, 4
2, 4
3, 2
1, 6
2, 2
1, 3
4, 2
2, 4
3, 3
1, 3
2, 2
4, 2
3, 3
0, 3
0, 4
2, 0
3, 6
2, 1
3, 6
3, 1
2, 2
1, 1
4, 3
3, 5
2, 0
3, 4
4, 1
2, 2
2, 1
1, 3
1, 3
3, 3
2, 1
1, 3
1, 3
5, 1
1, 0
3, 2
1, 2
1, 2
2, 0
2, 6
2, 1
1, 5
3, 0
3, 2
2, 3
2, 1
4, 1
3, 4
2, 4
4, 1
2, 1
0, 5
3, 5
0, 3
3, 5
2, 3
3, 1
4, 4
5, 3
2, 2
3, 0
0, 1
1, 0
3, 4
1, 2
2, 1
3, 2
1, 1
4, 1
1, 0
1, 4
1, 2
0, 0
1, 1
2, 2
0, 0
1, 1
1, 0
1, 2
2, 2
2, 0
1, 2
1, 4
0, 5
1, 1
2, 2
2, 3
1, 1
2, 3
0, 4
2, 1
1, 1
1, 0
1, 1
1, 4
0, 0
1, 0
1, 1
2, 0
0, 1
1, 0
0, 2
1, 2
0, 2
1, 3
0, 1
0, 1
0, 0
1, 2
2, 2
2, 0
3, 2
1, 0
1, 3
1, 2
2, 1
1, 0
2, 3
3, 1
1, 4
0, 2
0, 2
0, 0
0, 0
2, 2
1, 0
2, 1
2, 0
0, 1
1, 2
1, 0
0, 1
1, 0
1, 0
0, 0
0, 0
2, 3
0, 2
0, 2
0, 0
1, 2
1, 0
1, 0
0, 0
0, 0
0, 4
1, 1
2, 2
2, 0
2, 2
1, 0
1, 2
0, 0
0, 0
1, 0
0, 0
0, 1
0, 1
1, 0
1, 0
2, 1
0, 1
0, 1
3, 1
2, 0
0, 2
1, 1
0, 1
1, 0
0, 0
1, 0
0, 0
0, 0
0, 1
1, 2
0, 0
1, 2
0, 0
0, 1
0, 0
0, 1
1, 0
0, 1
1, 1
0, 1
2, 1
0, 0
1, 0
0, 0
1, 0
0, 0
1, 1
0, 0
0, 1
1, 0
1, 0
1, 0
0, 1
0, 0
0, 1
1, 1
0, 1
1, 0
0, 0
2, 1
0, 1
0, 1
0, 0
0, 1
1, 0
0, 0
1, 0
0, 1
0, 0
1, 0
0, 1
0, 2
0, 0
0, 0
0, 1
0, 0
0, 0
1, 0
0, 0
0, 0
0, 0
0, 0
1, 0
0, 0
1, 1
0, 0
0, 0
0, 0
1, 0
0, 0
1, 1
0, 1
0, 0
0, 1
1, 0
0, 0
1, 0
1, 1
0, 0
1, 2
0, 0
1, 0
1, 0
2, 1
0, 1
0, 2
0, 0
0, 1
1, 0
0, 0
0, 0
0, 1
2, 0
0, 1
0, 1
0, 0
1, 0
0, 0
0, 0
0, 0
0, 0
0, 0
0, 1
0, 0
0, 0
0, 0
0, 0
0, 0
0, 1
0, 0
0, 0
0, 2
1, 0
0, 0
0, 0
0, 0
0, 0
0, 0
1, 0
0, 1
0, 0
0, 1
0, 0
0, 0
0, 0
0, 0
0, 0
0, 0
1, 0
0, 0
0, 0
1, 0
1, 0
0, 0
0, 0
0, 0
0, 0
0, 2
0, 0
0, 0
0, 0
0, 0
0, 0
0, 0
0, 0
0, 0
0, 0
2, 0
0, 0
0, 1
0, 0
0, 0
0, 0
0, 0
0, 0
0, 1
0, 1
0, 1
1, 0
0, 0
0, 0
0, 0
0, 0
0, 0
1, 1
1, 0
0, 0
2, 0
0, 1
0, 0
0, 1
0, 0
0, 0
0, 1
0, 0
0, 0
0, 0
0, 0
0, 0
0, 0
0, 1
0, 0
0, 0
0, 0
0, 0
0, 0
0, 0
0, 1
0, 0
0, 0
0, 0
0, 0
0, 0
1, 0
1, 0
1, 0
0, 0
0, 0
0, 0
0, 0
0, 0
0, 0
1, 1
0, 1
0, 0
0, 0
0, 0
1, 0
0, 0
0, 0
0, 0
0, 1
0, 0
0, 0
0, 0
0, 0
0, 0
1, 0
0, 0
0, 0
1, 0
0, 0
1, 1
0, 0
0, 1
0, 0
0, 0
0, 0
0, 0
0, 0
0, 0
1, 0
0, 0
0, 0
0, 0
0, 0
0, 1
0, 0
0, 0
0, 0
0, 0
0, 0
0, 0
0, 0
0, 0
0, 0
0, 0
0, 0
0, 0
0, 0
0, 0
0, 0
0, 0
0, 0
0, 0
0, 0
0, 0
0, 0
0, 0
0, 0
0, 0
0, 1
0, 0
0, 0
0, 0
0, 0
0, 0
0, 0
0, 0
0, 0
0, 0
0, 0
0, 0
0, 0
0, 0
0, 0
0, 0
0, 0
0, 0
0, 0
1, 0
0, 0
0, 0
0, 0
0, 0
0, 0
0, 0
0, 0
0, 0
0, 0
0, 0
0, 1
0, 0
0, 0
0, 0
0, 0
0, 0
0, 0
0, 0
0, 0
0, 0
0, 0
0, 0
0, 0
0, 0
0, 0
0, 1
0, 0
0, 0
1, 0
0, 0
0, 0
1, 0
0, 0
0, 0
0, 0
0, 0
0, 0
0, 0
0, 0
0, 0
0, 0
0, 0
0, 0
0, 0
0, 0
0, 0
0, 1
0, 0
0, 0
0, 0
0, 0
0, 0
0, 0
0, 0
0, 0
0, 0
0, 0
0, 0
0, 0
0, 0
0, 0
0, 0
0, 0
0, 0
0, 0
0, 0
0, 0
0, 0
0, 0
0, 0
1, 0
0, 0
0, 0
1, 0
0, 0
0, 0
0, 0
0, 0
0, 0
0, 0
0, 0
0, 0
0, 0
0, 0
0, 0
0, 0
0, 0
0, 0
0, 0
0, 0
0, 0
0, 0
0, 0
0, 0
0, 0
0, 0
0, 0
0, 0
0, 0
0, 0
0, 0
0, 0
0, 0
0, 0
0, 0
0, 0
0, 0
0, 0
0, 0
0, 0
0, 0
0, 0
0, 0
0, 0
0, 0
0, 0
0, 0
0, 0
0, 0
0, 0
0, 0
0, 0
0, 0
0, 0
0, 0
0, 0
0, 0
0, 0
0, 0
0, 0
0, 0
0, 0
0, 0
0, 0
0, 0
0, 0
0, 0
0, 0
0, 0
0, 0
0, 0
0, 0
0, 0
0, 0
0, 0
0, 0
0, 0
0, 0
0, 0
0, 0
0, 0
0, 0
0, 0
0, 0
0, 0
0, 0
0, 0
0, 0
0, 0
0, 0
0, 0
0, 0
0, 0
0, 0
0, 0
0, 0
0, 0
0, 0
0, 0
0, 0
0, 0
0, 0
0, 0
0, 0
0, 0
0, 0
0, 0
0, 0
0, 0
0, 0
0, 0
0, 0
0, 0
0, 0
0, 0
0, 0
0, 0
0, 0
0, 0
0, 0
0, 0
0, 0
0, 0
0, 0
0, 0
0, 0
0, 0
0, 0
0, 0
0, 0
0, 0
0, 0
0, 0
0, 0
0, 0
0, 0
0, 0
0, 0
0, 0
0, 0
0, 0
0, 0
0, 0
0, 0
0, 0
0, 0
0, 0
0, 0
0, 0
0, 0
0, 0
0, 0
0, 0
0, 0
0, 0
0, 0
0, 0
0, 0
0, 0
0, 0
0, 0
0, 0
0, 0
0, 0
0, 0
0, 0
0, 0
0, 0
0, 0
0, 0
0, 0
0, 0
0, 0
0, 0
0, 0
0, 0
0, 0
0, 0
0, 0
0, 0
0, 0
0, 0
0, 0
0, 0
0, 0
0, 0
0, 0
0, 0
0, 0
0, 0
0, 0
0, 0
0, 0
0, 0
0, 0
0, 0
0, 0
0, 0
0, 0
0, 0
0, 0
0, 0
0, 0
0, 0
0, 0
0, 0
0, 0
0, 0
0, 0
0, 0
0, 0
0, 0
0, 0
0, 0
0, 0
0, 0
0, 0
0, 0
0, 0
0, 0
0, 0
0, 0
0, 0
0, 0
0, 0
0, 0
0, 0
0, 0
0, 0
0, 0
0, 0
0, 0
0, 0
0, 0
0, 0
0, 0
0, 0
0, 0
0, 0
0, 0
0, 0
0, 0
0, 0
0, 0
0, 0
0, 0
0, 0
0, 0
0, 0
0, 0
0, 0
0, 0
0, 0
0, 0
0, 0
0, 0
0, 0
0, 0
0, 0
0, 0
0, 0
0, 0
0, 0
0, 0
0, 0
0, 0
0, 0
0, 0
0, 0
0, 0
0, 0
0, 0
0, 0
0, 0
0, 0
0, 0
0, 0
0, 0
0, 0
0, 0
0, 0
0, 0
0, 0
0, 0
0, 0
0, 0
0, 0
0, 0
0, 0
0, 0
0, 0
0, 0
0, 0
0, 0
0, 0
0, 0
0, 0
0, 0
0, 0
0, 0
0, 0
0, 0
0, 0
0, 0
0, 0
0, 0
0, 0
0, 0
0, 0
0, 0
0, 0
0, 0
0, 0
0, 0
0, 0
0, 0
0, 0
0, 0
0, 0
0, 0
0, 0
0, 0
0, 0
0, 0
0, 0
0, 0
0, 0
0, 0
0, 0
0, 0
0, 0
0, 0
0, 0
0, 0
0, 0
0, 0
0, 0
0, 0
0, 0
0, 0
0, 0
0, 0
0, 0
0, 0
0, 0
0, 0
0, 0
0, 0
0, 0
0, 0
0, 0
0, 0
0, 0
0, 0
0, 0
0, 0
0, 0
0, 0
0, 0
0, 0
0, 0
0, 0
0, 0
#ENDOFDATA     end of spectrum data