File: host_upload/02-11-2024/rqc/uplink1/ps__0567_0717304816_000rfs_shot_153.msa
#FORMAT      : EMSA/MAS spectral data file
#VERSION     : TC202v2.0 PIXL
#TITLE       : Novarupta (sol567) subset1
#DATE        : 02-11-2024      Date in the format DD-MMM-YYYY, for example 07-JUL-2010
#TIME        :             The time of day at which the spectrum was recorded, in 24-hour format
#OWNER       : PIXL Flight Model       (PIXL will use this to indicate which instrument took the data.)
#NPOINTS     : 4096     Number of data points in the spectrum (This can be zero for configuration only files)
#NCOLUMNS    : 2     Number of data columns in the spectrum (This can be zero for configuration only files)
#XUNITS      : eV
#YUNITS      : COUNTS
#DATATYPE    : YY
#XPERCHAN    : 7.862, 7.881   eV per channel (separate by commas if more than one detector)
#OFFSET      : 18.5, -22.4         eV of first channel  (separate by commas if more than one detector
#SIGNALTYPE  : XRF
#YP_TEMP     : -0.202
#LIVETIME    : 8.83684, 8.80539   seconds (separate by commas if more than one detector)
#REALTIME    : 10, 10.0   seconds (separate by commas if more than one detector)
#SPECTRUM    : start of spectrum data
0, 0
0, 0
0, 0
0, 0
0, 0
0, 0
0, 0
0, 0
0, 0
0, 0
0, 0
0, 0
0, 0
0, 0
0, 0
0, 0
0, 0
0, 0
0, 0
0, 0
0, 0
0, 0
0, 0
0, 0
0, 0
0, 0
0, 0
0, 0
0, 0
0, 1
0, 0
1, 1
0, 1
1, 0
2, 3
3, 1
1, 5
3, 0
4, 6
3, 2
5, 5
5, 0
4, 4
0, 6
5, 3
5, 5
2, 2
3, 1
5, 7
3, 5
8, 4
6, 11
14, 13
13, 22
13, 19
8, 16
13, 7
7, 17
8, 11
12, 9
23, 28
26, 33
53, 33
44, 59
48, 58
48, 57
38, 49
26, 37
28, 40
66, 69
114, 158
197, 230
313, 380
406, 506
437, 577
458, 527
391, 449
310, 352
222, 239
136, 135
86, 76
54, 42
26, 33
19, 26
26, 41
39, 36
36, 26
39, 42
21, 34
30, 22
20, 22
22, 21
22, 23
59, 55
80, 93
151, 188
193, 225
265, 306
296, 368
290, 353
255, 338
231, 214
164, 181
100, 132
68, 71
45, 67
61, 58
69, 95
103, 109
115, 163
169, 202
218, 231
223, 264
231, 240
200, 240
174, 197
123, 141
108, 124
83, 106
74, 84
81, 97
66, 92
61, 61
59, 57
38, 37
37, 44
24, 37
28, 21
15, 20
21, 10
13, 12
9, 10
11, 9
5, 10
6, 3
8, 5
16, 12
20, 18
16, 21
22, 29
31, 34
32, 24
34, 29
24, 32
25, 20
17, 17
12, 13
17, 8
12, 18
23, 21
42, 40
46, 73
78, 112
156, 176
209, 275
301, 360
328, 420
371, 465
369, 375
305, 351
217, 250
185, 184
110, 96
57, 74
34, 43
34, 38
24, 35
32, 37
55, 50
56, 59
62, 65
54, 70
41, 59
39, 46
42, 40
23, 21
13, 21
12, 14
9, 6
10, 6
4, 8
8, 10
15, 10
11, 13
10, 17
15, 22
22, 21
28, 37
32, 47
33, 60
53, 65
54, 79
51, 69
63, 61
59, 47
38, 46
26, 41
28, 23
30, 22
20, 16
14, 18
10, 30
12, 19
15, 18
14, 17
10, 13
15, 16
21, 16
19, 18
14, 19
22, 22
18, 14
28, 18
14, 25
11, 12
16, 14
15, 8
7, 14
14, 9
5, 20
7, 7
13, 18
10, 16
13, 18
9, 24
16, 22
19, 19
21, 20
31, 32
31, 36
37, 42
22, 37
21, 31
22, 25
16, 20
22, 31
15, 10
16, 17
12, 11
13, 13
11, 9
14, 17
14, 21
12, 14
18, 14
19, 20
25, 33
35, 34
35, 44
35, 48
44, 47
60, 58
44, 49
49, 40
36, 41
33, 34
26, 31
23, 14
12, 23
15, 18
19, 28
28, 37
56, 63
61, 102
113, 188
231, 327
357, 536
612, 798
856, 1129
1112, 1507
1412, 1769
1613, 1953
1613, 1873
1586, 1682
1384, 1447
1072, 1110
756, 791
565, 547
314, 297
184, 165
109, 106
53, 50
41, 29
14, 22
22, 18
17, 19
14, 13
17, 15
15, 20
19, 27
26, 35
29, 33
50, 60
68, 84
82, 85
130, 155
142, 195
183, 233
201, 261
271, 308
225, 300
257, 282
210, 218
142, 166
107, 121
67, 78
41, 38
35, 30
16, 23
14, 10
12, 7
14, 16
5, 9
6, 17
16, 4
9, 4
15, 14
14, 9
8, 10
8, 12
13, 15
9, 13
6, 6
10, 13
9, 7
3, 4
3, 4
6, 8
9, 10
4, 7
4, 6
8, 5
6, 4
5, 6
3, 12
7, 9
3, 11
5, 3
4, 8
6, 10
3, 6
8, 9
6, 9
8, 7
8, 9
6, 5
8, 11
14, 9
7, 4
4, 5
9, 9
5, 5
8, 10
11, 13
6, 9
9, 6
8, 4
9, 13
4, 12
4, 12
5, 6
4, 6
6, 9
7, 12
10, 14
7, 12
7, 13
11, 8
12, 10
15, 10
10, 10
10, 7
10, 7
6, 5
8, 8
5, 7
8, 3
3, 4
5, 9
5, 5
8, 4
10, 6
4, 5
2, 6
3, 6
7, 9
4, 9
3, 7
9, 4
9, 3
8, 5
6, 7
6, 4
8, 5
6, 4
6, 3
5, 10
2, 3
6, 7
4, 7
9, 7
8, 5
4, 4
3, 8
2, 5
4, 8
1, 4
7, 5
6, 4
7, 2
12, 6
2, 6
5, 5
1, 6
9, 6
3, 5
5, 4
2, 6
5, 5
5, 8
3, 5
3, 6
6, 7
4, 2
4, 4
7, 3
2, 7
3, 2
6, 4
4, 7
3, 3
2, 5
1, 2
7, 4
4, 3
4, 6
0, 5
2, 0
4, 3
5, 8
4, 4
5, 3
3, 3
2, 3
4, 4
1, 5
3, 4
6, 1
5, 4
5, 4
2, 2
4, 5
5, 6
4, 4
2, 3
2, 3
5, 2
3, 4
5, 5
4, 9
2, 3
6, 3
5, 2
4, 4
2, 6
4, 4
2, 4
8, 5
2, 3
2, 9
2, 7
1, 5
3, 3
5, 4
2, 3
1, 4
7, 3
1, 2
1, 3
2, 6
2, 2
5, 1
2, 3
3, 3
3, 4
1, 1
1, 3
5, 6
2, 1
3, 5
2, 4
3, 3
0, 5
3, 3
3, 2
0, 9
2, 2
1, 2
2, 3
3, 2
0, 4
3, 2
1, 3
7, 3
3, 2
1, 3
5, 3
2, 8
2, 1
1, 2
3, 1
1, 0
1, 1
1, 1
5, 5
3, 2
5, 3
1, 0
4, 6
1, 4
0, 2
3, 2
3, 1
1, 2
0, 1
3, 3
5, 2
1, 0
3, 3
4, 1
4, 2
1, 2
4, 3
1, 4
2, 3
0, 6
3, 4
1, 4
1, 4
2, 2
7, 2
2, 2
2, 6
2, 5
2, 3
1, 3
4, 2
2, 4
2, 0
1, 3
0, 3
1, 2
2, 4
1, 2
2, 2
1, 2
1, 1
1, 1
1, 0
0, 3
3, 3
3, 0
3, 0
4, 2
2, 2
0, 4
1, 3
2, 1
1, 1
1, 4
2, 1
2, 3
2, 0
0, 2
3, 1
0, 1
1, 0
0, 0
0, 1
0, 1
0, 1
2, 2
1, 1
2, 1
2, 1
0, 0
2, 1
3, 2
1, 1
0, 4
1, 0
0, 1
3, 3
2, 2
0, 1
2, 1
0, 0
1, 1
0, 0
3, 0
2, 2
1, 1
0, 0
0, 1
3, 1
2, 0
0, 0
1, 2
3, 3
0, 1
0, 3
1, 1
2, 0
2, 1
0, 1
2, 0
1, 1
0, 1
0, 0
1, 1
2, 3
3, 1
1, 2
2, 0
0, 2
1, 3
0, 0
3, 1
0, 2
1, 0
0, 1
0, 0
0, 1
1, 1
0, 1
0, 1
2, 0
0, 1
1, 2
0, 1
0, 0
1, 1
0, 2
0, 0
0, 0
0, 0
0, 1
0, 0
0, 0
2, 1
0, 1
1, 0
1, 1
1, 0
0, 0
0, 1
2, 1
0, 0
0, 2
1, 0
1, 1
0, 1
0, 0
0, 0
0, 0
0, 2
1, 1
0, 0
0, 4
0, 1
2, 1
2, 0
1, 0
0, 0
1, 2
0, 2
0, 0
0, 1
1, 2
0, 0
2, 0
0, 0
0, 1
0, 2
0, 1
0, 0
0, 1
0, 0
0, 0
1, 0
2, 0
1, 3
0, 0
1, 0
2, 2
0, 1
0, 1
1, 0
1, 1
0, 0
0, 0
0, 2
1, 1
0, 0
0, 0
0, 1
0, 0
0, 0
0, 0
0, 0
0, 0
2, 0
1, 0
0, 0
1, 0
1, 0
1, 0
0, 0
0, 1
1, 0
2, 0
1, 0
0, 0
0, 1
0, 0
0, 0
0, 0
0, 0
0, 0
0, 0
0, 0
0, 0
0, 1
0, 1
0, 0
1, 0
0, 1
0, 0
1, 0
0, 1
0, 0
0, 1
0, 1
1, 0
0, 0
0, 0
0, 0
0, 0
0, 0
0, 0
0, 0
0, 0
0, 0
0, 0
1, 0
0, 1
1, 0
0, 0
0, 0
0, 0
0, 0
0, 0
0, 0
0, 0
0, 1
0, 0
0, 1
0, 1
0, 1
1, 0
0, 0
1, 0
0, 0
0, 2
0, 0
1, 0
0, 0
0, 1
2, 0
2, 0
0, 0
0, 0
0, 0
0, 1
1, 1
0, 0
0, 0
0, 0
0, 0
0, 0
0, 1
1, 0
0, 0
0, 1
0, 0
0, 0
0, 0
1, 1
0, 1
0, 1
0, 1
0, 0
0, 0
0, 0
0, 0
0, 0
0, 0
0, 0
0, 0
0, 0
0, 0
0, 1
1, 0
0, 0
0, 0
0, 0
0, 0
0, 0
0, 0
0, 0
0, 0
0, 0
1, 0
0, 1
0, 0
0, 0
0, 0
0, 0
0, 0
0, 0
0, 0
0, 0
0, 0
0, 0
0, 0
0, 0
0, 0
1, 0
0, 0
0, 0
0, 1
0, 0
0, 0
0, 1
0, 0
0, 0
0, 0
0, 0
0, 0
0, 0
0, 0
0, 0
0, 0
0, 1
0, 0
0, 0
0, 0
0, 0
0, 0
0, 0
1, 0
0, 0
0, 0
0, 0
1, 0
1, 0
1, 0
0, 0
0, 0
0, 0
0, 0
0, 0
0, 0
0, 0
0, 0
0, 0
0, 0
0, 0
0, 0
0, 0
0, 0
0, 0
1, 0
0, 0
0, 0
1, 0
1, 0
0, 0
0, 0
0, 0
0, 0
0, 0
0, 0
0, 0
0, 0
0, 0
0, 0
0, 0
0, 1
0, 0
0, 0
0, 0
0, 1
0, 0
0, 0
0, 0
0, 0
0, 0
0, 0
0, 0
0, 0
0, 0
0, 0
0, 0
0, 0
0, 0
0, 0
0, 0
1, 0
0, 0
0, 0
0, 0
0, 0
0, 0
0, 0
0, 0
0, 0
0, 0
0, 0
0, 0
0, 0
0, 0
0, 0
0, 0
0, 0
0, 0
0, 0
0, 0
0, 0
0, 0
0, 0
0, 0
0, 0
0, 0
0, 0
0, 0
0, 0
0, 0
0, 0
0, 0
0, 0
0, 0
0, 0
0, 0
0, 0
0, 0
0, 0
0, 1
0, 0
0, 0
0, 0
0, 0
0, 0
0, 0
0, 0
0, 0
0, 0
0, 0
0, 0
0, 0
0, 0
0, 0
0, 0
0, 2
0, 0
0, 0
0, 0
0, 0
0, 0
0, 0
0, 0
0, 0
0, 0
0, 0
0, 0
0, 0
0, 0
0, 0
0, 1
0, 0
0, 0
0, 0
0, 0
0, 0
0, 0
0, 0
0, 0
0, 0
0, 0
0, 0
0, 0
0, 0
0, 0
0, 0
0, 0
0, 0
0, 0
0, 0
0, 0
0, 0
0, 0
0, 0
0, 0
0, 0
0, 0
0, 0
0, 0
0, 0
0, 0
0, 0
0, 0
0, 0
0, 0
0, 0
0, 0
0, 0
0, 0
0, 0
0, 0
0, 0
0, 0
0, 0
0, 0
0, 0
0, 0
0, 0
0, 0
0, 0
0, 0
0, 0
0, 0
0, 0
0, 0
0, 0
0, 0
0, 0
0, 0
0, 0
0, 0
0, 0
0, 0
0, 0
0, 0
0, 0
0, 0
0, 0
0, 0
0, 0
0, 0
0, 0
0, 0
0, 0
0, 0
0, 0
0, 0
0, 0
0, 0
0, 0
0, 0
0, 0
0, 0
0, 0
0, 0
0, 0
0, 0
0, 0
0, 0
0, 0
0, 0
0, 0
0, 0
0, 0
0, 0
0, 0
0, 0
0, 0
0, 0
0, 0
0, 0
0, 0
0, 0
0, 0
0, 0
0, 0
0, 0
0, 0
0, 0
0, 0
0, 0
0, 0
0, 0
0, 0
0, 0
0, 0
0, 0
0, 0
0, 0
0, 0
0, 0
0, 0
0, 0
0, 0
0, 0
0, 0
0, 0
0, 0
0, 0
0, 0
0, 0
0, 0
0, 0
0, 0
0, 0
0, 0
0, 0
0, 0
0, 0
0, 0
0, 0
0, 0
0, 0
0, 0
0, 0
0, 0
0, 0
0, 0
0, 0
0, 0
0, 0
0, 0
0, 0
0, 0
0, 0
0, 0
0, 0
0, 0
0, 0
0, 0
0, 0
0, 0
0, 0
0, 0
0, 0
0, 0
0, 0
0, 0
0, 0
0, 0
0, 0
0, 0
0, 0
0, 0
0, 0
0, 0
0, 0
0, 0
0, 0
0, 0
0, 0
0, 0
0, 0
0, 0
0, 0
0, 0
0, 0
0, 0
0, 0
0, 0
0, 0
0, 0
0, 0
0, 0
0, 0
0, 0
0, 0
0, 0
0, 0
0, 0
0, 0
0, 0
0, 0
0, 0
0, 0
0, 0
0, 0
0, 0
0, 0
0, 0
0, 0
0, 0
0, 0
0, 0
0, 0
0, 0
0, 0
0, 0
0, 0
0, 0
0, 0
0, 0
0, 0
0, 0
0, 0
0, 0
0, 0
0, 0
0, 0
0, 0
0, 0
0, 0
0, 0
0, 0
0, 0
0, 0
0, 0
0, 0
0, 0
0, 0
0, 0
0, 0
0, 0
0, 0
0, 0
0, 0
0, 0
0, 0
0, 0
0, 0
0, 0
0, 0
0, 0
0, 0
0, 0
0, 0
0, 0
0, 0
0, 0
0, 0
0, 0
0, 0
0, 0
0, 0
0, 0
0, 0
0, 0
0, 0
0, 0
0, 0
0, 0
0, 0
0, 0
0, 0
0, 0
0, 0
0, 0
0, 0
0, 0
0, 0
0, 0
0, 0
0, 0
0, 0
0, 0
0, 0
0, 0
0, 0
0, 0
0, 0
0, 0
0, 0
0, 0
0, 0
0, 0
0, 0
0, 0
0, 0
0, 0
0, 0
0, 0
0, 0
0, 0
0, 0
0, 0
0, 0
0, 0
0, 0
0, 0
0, 0
0, 0
0, 0
0, 0
0, 0
0, 0
0, 0
0, 0
0, 0
0, 0
0, 0
0, 0
0, 0
0, 0
0, 0
0, 0
0, 0
0, 0
0, 0
0, 0
0, 0
0, 0
0, 0
0, 0
0, 0
0, 0
0, 0
0, 0
0, 0
0, 0
0, 0
0, 0
0, 0
0, 0
0, 0
0, 0
0, 0
0, 0
0, 0
0, 0
0, 0
0, 0
0, 0
0, 0
0, 0
0, 0
0, 0
0, 0
0, 0
0, 0
0, 0
0, 0
0, 0
0, 0
0, 0
0, 0
0, 0
0, 0
0, 0
0, 0
0, 0
0, 0
0, 0
0, 0
0, 0
0, 0
0, 0
0, 0
0, 0
#ENDOFDATA     end of spectrum data