File: host_upload/02-11-2024/rqc/uplink1/ps__0567_0717304816_000rfs_shot_377.msa
#FORMAT      : EMSA/MAS spectral data file
#VERSION     : TC202v2.0 PIXL
#TITLE       : Novarupta (sol567) subset1
#DATE        : 02-11-2024      Date in the format DD-MMM-YYYY, for example 07-JUL-2010
#TIME        :             The time of day at which the spectrum was recorded, in 24-hour format
#OWNER       : PIXL Flight Model       (PIXL will use this to indicate which instrument took the data.)
#NPOINTS     : 4096     Number of data points in the spectrum (This can be zero for configuration only files)
#NCOLUMNS    : 2     Number of data columns in the spectrum (This can be zero for configuration only files)
#XUNITS      : eV
#YUNITS      : COUNTS
#DATATYPE    : YY
#XPERCHAN    : 7.862, 7.881   eV per channel (separate by commas if more than one detector)
#OFFSET      : 18.5, -22.4         eV of first channel  (separate by commas if more than one detector
#SIGNALTYPE  : XRF
#YP_TEMP     : 1.851
#LIVETIME    : 8.82666, 8.79253   seconds (separate by commas if more than one detector)
#REALTIME    : 10, 10.0   seconds (separate by commas if more than one detector)
#SPECTRUM    : start of spectrum data
0, 0
0, 0
0, 0
0, 0
0, 0
0, 0
0, 0
0, 0
0, 0
0, 0
0, 0
0, 0
0, 0
0, 0
0, 0
0, 0
0, 0
0, 0
0, 0
0, 0
0, 0
0, 0
0, 0
0, 0
0, 0
0, 0
0, 0
0, 0
0, 0
0, 0
0, 0
0, 2
1, 0
0, 2
1, 3
3, 4
2, 1
4, 4
2, 1
6, 7
4, 1
0, 4
7, 5
3, 2
5, 4
3, 3
1, 4
5, 1
4, 5
3, 3
10, 8
5, 9
7, 7
14, 14
15, 16
11, 7
11, 21
10, 14
8, 11
8, 9
22, 20
29, 36
30, 42
47, 51
37, 45
44, 43
40, 45
18, 31
40, 38
54, 74
92, 120
173, 192
293, 362
357, 434
449, 585
436, 547
433, 512
309, 387
208, 233
131, 145
87, 90
47, 66
36, 29
21, 41
27, 40
33, 35
34, 45
26, 38
23, 32
22, 26
18, 14
15, 13
22, 29
37, 45
92, 115
144, 156
180, 244
265, 289
315, 311
317, 335
263, 280
227, 224
147, 193
128, 92
87, 73
52, 48
32, 61
61, 84
86, 110
122, 134
185, 178
185, 208
224, 273
211, 246
213, 207
178, 181
136, 139
114, 117
73, 84
80, 81
90, 93
56, 67
67, 79
50, 70
50, 42
35, 39
35, 30
20, 23
18, 16
16, 19
10, 11
5, 6
8, 9
11, 8
6, 11
13, 11
8, 13
13, 16
21, 26
26, 29
25, 29
32, 30
29, 41
29, 25
24, 25
14, 18
17, 8
15, 14
13, 11
16, 13
25, 42
48, 62
91, 104
138, 194
187, 267
286, 372
297, 460
393, 455
381, 425
286, 366
249, 259
180, 180
111, 100
57, 56
39, 40
22, 35
21, 41
30, 36
42, 61
54, 64
45, 70
48, 81
52, 66
43, 30
43, 29
22, 25
22, 17
11, 9
10, 11
7, 8
2, 14
4, 8
7, 4
9, 9
2, 11
9, 16
15, 15
25, 28
31, 39
39, 51
51, 59
59, 91
52, 87
49, 50
48, 53
47, 47
31, 37
28, 27
20, 18
24, 22
9, 19
16, 14
17, 18
7, 17
14, 14
10, 15
9, 17
11, 12
13, 18
15, 19
17, 21
15, 21
17, 23
16, 16
13, 16
16, 16
6, 14
8, 8
9, 15
12, 7
3, 13
8, 13
7, 17
16, 18
15, 15
21, 25
22, 18
18, 27
21, 27
32, 33
26, 31
26, 43
38, 39
23, 32
23, 26
13, 19
18, 15
13, 15
15, 14
15, 12
15, 17
8, 9
8, 14
2, 17
13, 18
21, 16
31, 33
26, 38
28, 51
47, 64
48, 51
45, 54
44, 66
43, 49
32, 34
36, 35
24, 27
18, 30
21, 26
16, 21
23, 16
27, 34
42, 64
67, 84
117, 173
206, 277
349, 515
570, 804
845, 1136
1182, 1458
1516, 1774
1597, 2062
1780, 2029
1660, 1817
1474, 1563
1247, 1231
873, 807
568, 502
385, 336
245, 204
104, 90
57, 68
29, 42
28, 25
15, 28
17, 19
18, 25
25, 14
20, 18
24, 28
24, 29
34, 46
37, 47
53, 79
85, 106
118, 164
158, 210
218, 239
188, 253
251, 310
258, 349
257, 282
215, 246
159, 193
141, 143
104, 96
64, 58
37, 21
19, 22
16, 13
12, 14
12, 9
8, 7
5, 12
7, 20
11, 9
17, 15
11, 13
14, 19
17, 13
5, 11
6, 9
8, 6
9, 7
10, 7
6, 4
12, 5
9, 8
5, 9
6, 4
8, 4
4, 6
4, 5
9, 6
2, 10
5, 5
3, 9
6, 12
8, 6
4, 8
2, 4
10, 9
8, 4
11, 3
8, 8
6, 11
9, 4
7, 6
8, 8
6, 11
8, 9
5, 6
8, 4
8, 9
5, 8
9, 7
6, 11
5, 6
6, 5
3, 3
3, 7
8, 10
5, 11
11, 18
12, 13
5, 9
6, 13
6, 12
11, 8
16, 4
4, 17
6, 9
4, 4
10, 5
5, 6
5, 6
8, 7
4, 2
5, 7
6, 8
6, 6
4, 1
4, 7
2, 9
6, 7
6, 9
2, 11
4, 9
3, 4
6, 2
4, 7
3, 6
6, 8
5, 9
5, 7
9, 8
7, 3
3, 7
5, 2
4, 5
6, 7
3, 5
8, 5
6, 3
6, 5
8, 5
5, 7
6, 5
4, 8
1, 5
8, 5
1, 8
8, 5
7, 2
4, 6
2, 8
7, 1
5, 7
5, 1
1, 1
11, 0
4, 5
3, 1
2, 4
6, 4
6, 3
6, 3
5, 3
7, 3
1, 3
3, 4
1, 3
5, 5
4, 2
5, 4
5, 2
2, 1
5, 5
3, 3
6, 5
2, 6
3, 5
5, 4
1, 3
4, 3
6, 3
1, 5
3, 4
3, 4
3, 6
0, 5
4, 2
2, 5
2, 0
5, 1
2, 7
0, 9
0, 6
2, 3
1, 4
2, 2
2, 1
4, 2
2, 0
8, 5
4, 3
6, 3
1, 4
4, 2
0, 2
1, 4
1, 4
1, 5
2, 2
3, 4
3, 5
4, 7
3, 4
1, 4
2, 6
5, 2
0, 0
1, 2
1, 4
0, 0
5, 3
3, 6
3, 2
2, 7
2, 1
5, 4
2, 1
0, 0
3, 1
2, 10
2, 2
1, 2
4, 5
2, 0
4, 1
3, 2
3, 5
3, 4
1, 5
5, 4
4, 5
3, 1
2, 2
1, 2
1, 0
5, 4
3, 2
1, 2
2, 2
3, 2
4, 0
3, 1
0, 2
1, 1
2, 2
2, 2
0, 1
2, 1
2, 2
1, 1
0, 0
1, 4
3, 2
0, 2
0, 3
6, 0
2, 0
3, 3
4, 4
2, 1
2, 5
3, 2
3, 4
2, 5
1, 1
2, 3
2, 2
0, 4
4, 2
2, 3
1, 4
4, 3
3, 1
3, 2
2, 1
4, 4
2, 3
1, 2
2, 2
0, 2
2, 1
5, 2
5, 4
3, 1
2, 4
2, 0
1, 5
2, 1
0, 1
0, 0
1, 0
2, 2
0, 0
2, 2
0, 2
0, 1
0, 2
1, 2
0, 1
2, 2
1, 0
2, 3
2, 1
0, 2
0, 1
1, 3
3, 0
1, 3
0, 4
0, 2
1, 1
0, 0
1, 1
1, 2
1, 2
1, 1
1, 2
2, 1
1, 4
1, 1
2, 1
1, 2
0, 3
0, 2
1, 1
1, 2
1, 4
2, 3
2, 2
0, 0
0, 0
1, 3
0, 0
2, 0
1, 2
0, 2
2, 2
0, 1
0, 1
1, 3
1, 1
0, 0
1, 0
2, 0
1, 0
1, 1
0, 0
1, 1
2, 1
1, 1
0, 1
1, 1
1, 0
0, 0
0, 0
0, 0
1, 0
0, 0
0, 1
0, 1
1, 0
0, 1
0, 0
0, 0
0, 0
0, 0
1, 0
0, 0
2, 2
0, 0
0, 0
0, 1
1, 1
1, 0
0, 2
0, 0
1, 1
1, 0
0, 1
1, 0
1, 0
0, 0
0, 0
2, 0
0, 1
0, 2
1, 1
2, 2
0, 0
0, 1
2, 0
0, 0
0, 0
0, 1
1, 0
0, 0
0, 0
1, 0
1, 2
0, 0
0, 4
0, 0
1, 1
1, 1
1, 1
0, 0
0, 0
0, 1
2, 1
1, 1
1, 1
0, 0
0, 0
0, 0
1, 1
0, 0
0, 2
0, 0
0, 1
2, 2
1, 0
0, 0
0, 0
1, 0
0, 0
0, 1
1, 0
1, 2
0, 1
0, 0
0, 0
1, 2
1, 0
0, 1
0, 0
0, 0
1, 0
0, 0
0, 1
1, 0
0, 0
0, 0
0, 0
0, 0
0, 1
0, 1
1, 1
1, 0
0, 0
0, 0
0, 1
0, 0
0, 0
0, 0
1, 0
0, 2
1, 3
0, 0
0, 1
1, 2
0, 1
0, 1
1, 0
0, 0
1, 1
0, 1
0, 1
1, 0
0, 0
1, 0
0, 0
0, 0
0, 0
1, 0
0, 0
0, 0
0, 1
0, 0
0, 0
0, 0
0, 0
0, 1
0, 1
0, 0
0, 0
0, 0
1, 0
0, 1
0, 2
0, 0
1, 0
1, 0
0, 0
0, 1
0, 1
0, 0
0, 0
0, 0
0, 1
1, 0
0, 0
0, 0
0, 0
0, 0
3, 0
0, 2
0, 0
0, 0
0, 0
0, 0
0, 1
0, 0
0, 0
0, 0
0, 0
0, 0
0, 0
0, 1
1, 1
0, 0
0, 0
0, 0
0, 0
0, 0
0, 1
0, 0
0, 1
0, 0
0, 1
0, 0
0, 1
0, 1
1, 0
0, 0
1, 0
1, 0
0, 0
0, 0
0, 0
0, 0
0, 0
0, 1
0, 0
0, 0
0, 0
0, 0
0, 1
0, 0
0, 0
0, 0
0, 0
0, 1
0, 0
0, 0
0, 0
0, 0
0, 0
0, 0
0, 0
1, 1
0, 0
0, 0
0, 0
0, 0
0, 0
0, 0
0, 0
0, 1
0, 0
0, 0
0, 0
0, 0
0, 0
0, 0
0, 1
0, 0
0, 0
0, 0
0, 0
0, 0
0, 1
0, 0
0, 0
0, 0
0, 0
0, 0
0, 0
0, 1
0, 0
0, 0
0, 0
0, 0
0, 0
0, 0
0, 1
0, 0
0, 0
0, 0
0, 0
0, 1
0, 0
1, 0
0, 0
0, 0
0, 0
0, 1
0, 0
0, 0
0, 0
0, 0
0, 0
0, 0
0, 1
0, 0
0, 0
0, 0
0, 0
0, 0
0, 0
0, 0
0, 0
0, 0
0, 0
0, 0
0, 0
1, 0
0, 0
0, 0
0, 0
0, 0
0, 0
0, 0
0, 0
0, 0
1, 1
0, 0
0, 0
0, 0
0, 0
0, 0
0, 0
0, 0
0, 1
0, 0
0, 0
0, 0
0, 0
0, 0
0, 0
0, 0
0, 0
0, 0
0, 0
0, 0
1, 0
0, 0
0, 0
0, 0
0, 0
0, 0
0, 0
0, 0
0, 0
0, 0
0, 0
0, 0
0, 0
0, 0
0, 0
0, 0
0, 0
0, 0
0, 0
0, 0
0, 0
0, 0
0, 0
0, 0
0, 0
0, 0
0, 0
0, 0
0, 0
0, 0
0, 0
0, 0
0, 0
0, 0
0, 0
0, 0
0, 0
0, 0
0, 0
0, 0
0, 0
0, 0
0, 0
0, 0
0, 0
0, 0
0, 0
0, 0
0, 0
0, 0
0, 0
0, 0
0, 0
0, 0
0, 0
0, 0
0, 0
0, 0
0, 0
0, 0
0, 0
0, 0
0, 0
0, 0
0, 0
1, 0
0, 0
0, 0
0, 0
0, 0
0, 1
0, 0
0, 0
0, 0
0, 0
0, 0
0, 0
0, 0
0, 0
0, 0
0, 0
0, 0
0, 0
0, 0
0, 0
0, 0
0, 0
0, 0
0, 0
0, 0
0, 0
0, 0
0, 0
0, 0
0, 0
0, 0
0, 0
0, 0
0, 0
0, 0
0, 0
0, 0
1, 0
0, 0
0, 0
0, 0
0, 0
0, 0
0, 0
0, 0
0, 0
0, 0
0, 0
0, 0
0, 0
0, 0
0, 0
0, 0
0, 0
0, 0
0, 0
0, 0
0, 0
0, 0
0, 0
0, 0
0, 0
0, 0
0, 0
0, 0
0, 0
0, 0
0, 0
0, 0
0, 0
0, 0
0, 0
0, 0
1, 0
0, 0
0, 0
0, 0
0, 0
0, 0
0, 0
0, 0
0, 0
0, 0
0, 0
0, 0
0, 0
0, 0
0, 0
0, 0
0, 0
0, 0
0, 0
0, 0
0, 0
0, 0
0, 0
0, 0
0, 0
0, 0
0, 0
0, 0
0, 0
0, 0
0, 0
0, 0
0, 0
0, 0
0, 0
0, 0
0, 0
0, 0
0, 0
0, 0
0, 0
0, 0
0, 0
0, 0
0, 0
0, 0
0, 0
0, 0
0, 0
0, 0
0, 0
0, 0
0, 0
0, 0
0, 0
0, 0
0, 0
0, 0
0, 0
0, 0
0, 0
0, 0
0, 0
0, 0
0, 0
0, 0
0, 0
0, 0
0, 0
0, 0
0, 0
0, 0
0, 0
0, 0
0, 0
0, 0
0, 0
0, 0
0, 0
0, 0
0, 0
0, 0
0, 0
0, 0
0, 0
0, 0
0, 0
0, 0
0, 0
0, 0
0, 0
0, 0
0, 0
0, 0
0, 0
0, 0
0, 0
0, 0
0, 0
0, 0
0, 0
0, 0
0, 0
0, 0
0, 0
0, 0
0, 0
0, 0
0, 0
0, 0
0, 0
0, 0
0, 0
0, 0
0, 0
0, 0
0, 0
0, 0
0, 0
0, 0
0, 0
0, 0
0, 0
0, 0
0, 0
0, 0
0, 0
0, 0
0, 0
0, 0
0, 0
0, 0
0, 0
0, 0
0, 0
0, 0
0, 0
0, 0
0, 0
0, 0
0, 0
0, 0
0, 0
0, 0
0, 0
0, 0
0, 0
0, 0
0, 0
0, 0
0, 0
0, 0
0, 0
0, 0
0, 0
0, 0
0, 0
0, 0
0, 0
0, 0
0, 0
0, 0
0, 0
0, 0
0, 0
0, 0
0, 0
0, 0
0, 0
0, 0
0, 0
0, 0
0, 0
0, 0
0, 0
0, 0
0, 0
0, 0
0, 0
0, 0
0, 0
0, 0
0, 0
0, 0
0, 0
0, 0
0, 0
0, 0
0, 0
0, 0
0, 0
0, 0
0, 0
0, 0
0, 0
0, 0
0, 0
0, 0
0, 0
0, 0
0, 0
0, 0
0, 0
0, 0
0, 0
0, 0
0, 0
0, 0
0, 0
0, 0
0, 0
0, 0
0, 0
0, 0
0, 0
0, 0
0, 0
0, 0
0, 0
0, 0
0, 0
0, 0
0, 0
0, 0
0, 0
0, 0
0, 0
0, 0
0, 0
0, 0
0, 0
0, 0
0, 0
0, 0
0, 0
0, 0
0, 0
0, 0
0, 0
0, 0
0, 0
0, 0
0, 0
0, 0
0, 0
0, 0
0, 0
0, 0
0, 0
0, 0
0, 0
0, 0
0, 0
0, 0
0, 0
0, 0
0, 0
0, 0
0, 0
0, 0
0, 0
0, 0
0, 0
0, 0
0, 0
0, 0
0, 0
0, 0
0, 0
0, 0
0, 0
0, 0
0, 0
0, 0
0, 0
0, 0
0, 0
0, 0
0, 0
0, 0
0, 0
0, 0
0, 0
0, 0
0, 0
0, 0
0, 0
0, 0
0, 0
0, 0
0, 0
0, 0
0, 0
0, 0
0, 0
0, 0
0, 0
0, 0
0, 0
#ENDOFDATA     end of spectrum data