File: host_upload/02-11-2024/rqc/uplink1/ps__0567_0717304816_000rfs_shot_247.msa
#FORMAT      : EMSA/MAS spectral data file
#VERSION     : TC202v2.0 PIXL
#TITLE       : Novarupta (sol567) subset1
#DATE        : 02-11-2024      Date in the format DD-MMM-YYYY, for example 07-JUL-2010
#TIME        :             The time of day at which the spectrum was recorded, in 24-hour format
#OWNER       : PIXL Flight Model       (PIXL will use this to indicate which instrument took the data.)
#NPOINTS     : 4096     Number of data points in the spectrum (This can be zero for configuration only files)
#NCOLUMNS    : 2     Number of data columns in the spectrum (This can be zero for configuration only files)
#XUNITS      : eV
#YUNITS      : COUNTS
#DATATYPE    : YY
#XPERCHAN    : 7.862, 7.881   eV per channel (separate by commas if more than one detector)
#OFFSET      : 18.5, -22.4         eV of first channel  (separate by commas if more than one detector
#SIGNALTYPE  : XRF
#YP_TEMP     : 1.081
#LIVETIME    : 8.82581, 8.63057   seconds (separate by commas if more than one detector)
#REALTIME    : 10, 10.0   seconds (separate by commas if more than one detector)
#SPECTRUM    : start of spectrum data
0, 0
0, 0
0, 0
0, 0
0, 0
0, 0
0, 0
0, 0
0, 0
0, 0
0, 0
0, 0
0, 0
0, 0
0, 0
0, 0
0, 0
0, 0
0, 0
0, 0
0, 0
0, 0
0, 0
0, 0
0, 0
0, 1
0, 0
0, 0
0, 0
0, 0
0, 0
1, 0
1, 0
0, 2
0, 3
1, 3
0, 2
6, 4
2, 3
3, 2
0, 4
1, 2
1, 2
5, 1
3, 3
3, 2
1, 6
6, 4
1, 4
4, 3
12, 4
6, 10
10, 17
15, 21
22, 18
22, 9
8, 21
7, 10
5, 10
10, 9
17, 15
20, 16
29, 23
39, 46
41, 45
48, 35
43, 36
47, 30
40, 36
51, 64
83, 115
170, 198
288, 279
416, 411
465, 492
479, 470
467, 413
332, 327
239, 200
151, 107
96, 54
45, 48
43, 32
30, 27
35, 43
47, 28
34, 37
35, 28
22, 20
29, 13
19, 12
17, 14
40, 38
63, 70
103, 110
178, 184
280, 290
360, 378
442, 424
423, 436
377, 337
296, 295
207, 196
146, 123
91, 99
56, 75
74, 59
67, 79
100, 100
155, 144
160, 193
203, 211
221, 243
221, 230
212, 176
177, 147
137, 154
113, 96
96, 88
76, 76
63, 82
81, 88
70, 55
47, 52
49, 54
37, 28
27, 21
24, 26
16, 24
14, 14
7, 11
8, 10
7, 4
6, 15
6, 8
5, 4
8, 9
11, 21
14, 16
24, 25
31, 42
35, 30
30, 27
30, 26
26, 22
15, 11
15, 9
18, 8
15, 13
24, 17
27, 32
60, 58
101, 112
161, 176
248, 246
314, 341
341, 415
431, 389
371, 386
333, 336
261, 230
155, 165
127, 126
69, 64
40, 36
22, 23
38, 22
30, 37
38, 44
53, 50
72, 64
70, 72
67, 62
55, 42
24, 48
23, 32
26, 18
18, 9
11, 9
18, 5
7, 6
6, 7
9, 8
16, 9
9, 11
14, 12
16, 22
19, 23
27, 37
47, 47
53, 50
68, 45
56, 69
68, 64
48, 45
53, 42
35, 33
34, 24
24, 11
21, 15
20, 15
15, 17
12, 14
13, 15
10, 8
12, 13
16, 14
15, 20
12, 13
15, 21
13, 24
27, 16
19, 15
21, 18
20, 12
14, 14
9, 13
6, 7
6, 10
8, 10
10, 12
9, 16
10, 11
16, 12
22, 18
25, 18
21, 13
26, 24
20, 31
29, 29
23, 33
32, 39
29, 19
26, 26
26, 18
22, 15
12, 13
12, 4
13, 11
12, 10
16, 9
8, 22
12, 14
13, 21
17, 14
16, 19
29, 28
29, 32
36, 47
39, 48
36, 45
49, 63
36, 54
45, 46
39, 31
37, 24
26, 28
27, 14
15, 25
27, 27
17, 24
29, 36
36, 39
76, 73
153, 152
228, 293
380, 478
611, 725
890, 1085
1230, 1323
1537, 1582
1638, 1857
1713, 1737
1731, 1673
1532, 1414
1223, 1133
914, 715
647, 450
406, 308
220, 195
129, 97
60, 71
43, 38
22, 25
13, 13
19, 17
17, 12
15, 19
13, 24
19, 26
33, 27
29, 29
40, 44
48, 65
83, 119
123, 133
171, 177
217, 229
252, 237
260, 263
255, 286
252, 233
236, 212
166, 141
134, 110
87, 61
67, 51
36, 23
18, 14
17, 5
6, 14
10, 12
12, 6
6, 14
8, 11
9, 14
13, 22
8, 12
20, 9
13, 12
20, 17
11, 14
11, 8
8, 7
7, 10
4, 5
6, 6
7, 5
3, 8
10, 8
6, 9
6, 6
12, 6
6, 11
6, 6
8, 11
6, 7
5, 6
8, 13
8, 6
8, 7
7, 12
4, 5
9, 5
2, 13
7, 5
3, 6
7, 5
6, 7
5, 6
7, 8
4, 13
5, 7
10, 1
8, 11
8, 11
6, 13
5, 8
11, 5
2, 9
7, 3
8, 7
9, 11
8, 9
7, 10
14, 10
11, 11
11, 11
11, 12
12, 8
11, 5
11, 9
8, 8
6, 5
5, 7
3, 7
1, 6
8, 1
5, 8
9, 9
1, 3
3, 7
6, 2
4, 6
7, 7
2, 3
3, 4
4, 8
5, 1
5, 7
4, 4
5, 5
8, 3
6, 7
4, 7
10, 3
7, 10
5, 6
8, 4
5, 1
4, 5
7, 1
6, 7
5, 6
4, 7
3, 4
6, 6
3, 7
7, 5
6, 7
5, 5
5, 11
3, 4
1, 9
5, 7
8, 2
2, 1
11, 5
3, 6
7, 5
6, 3
7, 5
10, 5
5, 3
8, 6
4, 6
4, 4
3, 3
2, 8
1, 1
3, 10
7, 4
4, 6
4, 4
1, 8
6, 3
2, 2
8, 6
7, 6
1, 4
3, 5
6, 4
4, 7
2, 4
2, 9
2, 1
3, 2
1, 5
6, 5
2, 3
1, 3
4, 2
8, 5
1, 4
4, 3
2, 2
4, 4
3, 1
3, 4
6, 4
4, 3
3, 2
6, 2
3, 7
1, 7
6, 2
6, 2
7, 3
3, 3
3, 0
4, 5
1, 2
1, 2
2, 2
2, 0
3, 3
5, 4
1, 4
2, 5
1, 1
3, 6
2, 2
2, 4
2, 4
4, 0
1, 5
2, 1
5, 0
3, 3
3, 4
1, 1
3, 1
1, 3
2, 3
2, 0
0, 4
0, 3
4, 2
1, 1
1, 6
7, 3
4, 0
1, 5
0, 2
5, 2
7, 5
3, 2
1, 5
5, 2
4, 3
2, 3
1, 2
0, 4
1, 1
2, 0
1, 3
2, 2
5, 2
1, 2
1, 4
2, 1
0, 4
2, 4
2, 0
2, 1
3, 3
6, 3
1, 2
5, 2
1, 2
1, 1
4, 2
2, 0
2, 2
1, 1
0, 2
5, 2
2, 2
4, 4
2, 1
2, 5
4, 3
0, 2
2, 6
5, 1
4, 1
2, 2
2, 1
4, 0
0, 3
3, 4
1, 4
1, 5
1, 1
1, 2
0, 1
2, 4
1, 0
0, 1
0, 0
2, 2
1, 2
1, 1
1, 0
0, 1
2, 4
2, 2
4, 1
2, 2
5, 2
2, 2
4, 4
2, 3
3, 6
3, 0
0, 1
1, 1
2, 3
2, 0
2, 1
3, 1
0, 1
2, 1
4, 1
1, 0
1, 0
0, 2
1, 3
0, 2
1, 1
1, 0
1, 1
3, 0
1, 0
2, 0
1, 2
3, 3
0, 1
0, 0
0, 0
2, 1
0, 0
1, 1
0, 5
0, 1
0, 1
0, 0
2, 2
2, 1
2, 1
1, 0
0, 0
2, 1
0, 1
0, 0
2, 0
1, 0
0, 0
0, 0
0, 1
1, 2
1, 0
2, 1
1, 0
4, 2
0, 0
1, 1
3, 2
1, 1
0, 1
1, 1
2, 0
1, 1
0, 2
0, 0
2, 1
1, 0
0, 0
0, 0
0, 0
0, 1
0, 1
2, 1
0, 0
0, 0
1, 1
1, 0
1, 1
1, 1
0, 2
1, 0
1, 0
1, 2
0, 0
0, 2
1, 2
1, 1
1, 1
1, 0
0, 0
0, 0
2, 0
1, 0
1, 1
0, 0
1, 1
1, 1
1, 0
1, 0
1, 1
1, 1
2, 0
0, 1
0, 0
1, 0
1, 0
2, 1
0, 0
0, 0
0, 3
0, 0
1, 1
1, 0
2, 2
1, 1
0, 0
0, 0
0, 0
0, 0
0, 1
0, 1
0, 0
0, 1
1, 1
1, 0
0, 1
1, 0
1, 2
0, 1
0, 0
0, 0
2, 0
0, 1
0, 2
0, 0
2, 0
0, 0
0, 1
1, 2
1, 2
0, 0
0, 1
0, 1
1, 0
0, 0
0, 0
1, 2
0, 0
0, 0
0, 0
0, 0
0, 0
1, 0
1, 0
1, 0
2, 0
1, 0
0, 0
0, 0
0, 1
1, 0
1, 0
0, 0
0, 0
1, 0
1, 0
0, 0
0, 0
0, 0
0, 0
0, 0
0, 0
0, 1
0, 0
0, 0
1, 0
0, 0
0, 0
1, 1
1, 0
1, 0
1, 1
1, 0
0, 1
1, 0
0, 0
1, 0
0, 0
0, 2
1, 0
1, 0
0, 2
0, 0
0, 0
0, 0
1, 0
1, 0
0, 0
1, 0
0, 0
0, 0
0, 0
0, 0
0, 1
0, 1
0, 0
0, 0
1, 0
1, 0
0, 0
1, 0
0, 2
0, 0
1, 0
0, 0
0, 0
1, 1
0, 1
1, 0
0, 0
0, 0
0, 0
2, 0
0, 0
1, 0
0, 0
0, 0
0, 0
0, 0
0, 0
0, 0
0, 1
0, 0
0, 1
0, 0
1, 0
0, 0
0, 0
0, 0
0, 0
0, 0
0, 0
0, 0
0, 0
0, 0
0, 0
2, 0
0, 0
0, 0
0, 1
0, 1
0, 0
1, 0
0, 0
0, 0
0, 0
0, 1
0, 0
0, 0
0, 0
0, 0
0, 0
1, 1
0, 0
0, 0
0, 0
0, 0
0, 0
0, 0
0, 0
0, 1
0, 0
0, 0
2, 0
0, 0
1, 0
0, 0
0, 0
0, 1
0, 0
0, 0
0, 0
0, 0
0, 0
0, 0
0, 0
0, 0
0, 0
0, 1
0, 0
0, 1
0, 0
0, 0
0, 0
0, 0
0, 0
0, 0
0, 0
0, 0
0, 0
0, 0
1, 0
0, 0
0, 0
0, 0
0, 0
0, 0
0, 0
0, 0
0, 0
0, 0
0, 0
0, 0
0, 0
0, 0
0, 0
0, 0
1, 0
0, 0
0, 0
0, 0
0, 0
0, 0
0, 0
0, 0
0, 0
0, 0
0, 0
0, 1
0, 0
0, 0
0, 0
0, 0
0, 0
0, 0
0, 0
0, 0
1, 1
0, 1
0, 0
0, 0
0, 1
0, 0
0, 0
0, 0
0, 0
0, 0
0, 0
0, 0
1, 0
0, 0
0, 0
0, 0
0, 0
0, 0
0, 0
0, 0
0, 0
0, 0
0, 0
0, 0
0, 0
0, 0
0, 0
0, 0
0, 0
0, 0
0, 0
0, 0
0, 0
0, 0
0, 0
0, 0
1, 0
0, 0
0, 0
0, 0
0, 0
0, 0
0, 0
0, 0
0, 0
0, 0
0, 0
0, 0
0, 0
0, 0
0, 0
0, 0
0, 0
0, 0
0, 0
0, 0
0, 0
0, 0
0, 0
0, 0
0, 0
0, 0
0, 0
0, 0
0, 0
0, 0
0, 0
0, 0
0, 0
0, 0
0, 0
0, 0
0, 0
0, 0
0, 0
1, 0
0, 0
0, 0
0, 0
0, 0
0, 0
0, 0
0, 0
0, 0
0, 0
0, 0
0, 0
0, 0
0, 0
0, 0
0, 0
0, 1
0, 0
0, 0
0, 0
0, 0
0, 0
0, 0
1, 0
0, 0
0, 0
0, 0
0, 0
0, 0
0, 0
0, 0
1, 0
0, 0
0, 0
0, 0
0, 0
0, 0
0, 0
0, 0
0, 0
0, 0
0, 0
1, 0
0, 0
0, 0
0, 0
0, 0
0, 0
0, 0
0, 0
0, 0
0, 0
0, 0
0, 0
0, 0
0, 0
0, 0
0, 0
0, 0
0, 0
0, 0
0, 0
0, 0
0, 0
0, 0
0, 0
0, 0
0, 0
0, 0
0, 0
0, 0
0, 0
0, 0
0, 0
0, 0
0, 0
0, 0
0, 0
0, 0
0, 0
0, 0
0, 0
0, 0
0, 0
0, 0
0, 0
0, 0
0, 0
0, 0
0, 0
0, 0
0, 0
0, 0
0, 0
0, 0
0, 0
0, 0
0, 0
0, 0
0, 0
0, 0
0, 0
0, 0
0, 0
0, 0
0, 0
0, 0
0, 0
0, 0
0, 0
0, 0
1, 0
0, 0
0, 0
0, 0
0, 0
0, 0
0, 0
0, 0
0, 0
0, 0
0, 0
0, 0
0, 0
0, 0
0, 0
0, 1
0, 0
0, 0
0, 0
0, 0
0, 0
0, 0
0, 0
0, 0
0, 0
0, 0
0, 0
0, 0
0, 0
0, 0
0, 0
0, 0
0, 0
0, 0
0, 0
0, 0
0, 0
0, 0
0, 0
0, 0
0, 0
0, 0
0, 0
0, 0
0, 0
0, 0
0, 0
0, 0
0, 0
0, 0
0, 0
0, 0
0, 0
0, 0
0, 0
0, 0
0, 0
0, 0
0, 0
0, 0
0, 0
0, 0
0, 0
0, 0
0, 0
0, 0
0, 0
0, 0
0, 0
0, 0
0, 0
0, 0
0, 0
0, 0
0, 0
0, 0
0, 0
0, 0
0, 0
0, 0
0, 0
0, 0
0, 0
0, 0
0, 0
0, 0
0, 0
0, 0
0, 0
0, 0
0, 0
0, 0
0, 0
0, 0
0, 0
0, 0
0, 0
0, 0
0, 0
0, 0
0, 0
0, 0
0, 0
0, 0
0, 0
0, 0
0, 0
0, 0
0, 0
0, 0
0, 0
0, 0
0, 0
0, 0
0, 0
0, 0
0, 0
0, 0
0, 0
0, 0
0, 0
0, 0
0, 0
0, 0
0, 0
0, 0
0, 0
0, 0
0, 0
0, 0
0, 0
0, 0
0, 0
0, 0
0, 0
0, 0
0, 0
0, 0
0, 0
0, 0
0, 0
0, 0
0, 0
0, 0
0, 0
0, 0
0, 0
0, 0
0, 0
0, 0
0, 0
0, 0
0, 0
0, 0
0, 0
0, 0
0, 0
0, 0
0, 0
0, 0
0, 0
0, 0
0, 0
0, 0
0, 0
0, 0
0, 0
0, 0
0, 0
0, 0
0, 0
0, 0
0, 0
0, 0
0, 0
0, 0
0, 0
0, 0
0, 0
0, 0
0, 0
0, 0
0, 0
0, 0
0, 0
0, 0
0, 0
0, 0
0, 0
0, 0
0, 0
0, 0
0, 0
0, 0
0, 0
0, 0
0, 0
0, 0
0, 0
0, 0
0, 0
0, 0
0, 0
0, 0
0, 0
0, 0
0, 0
0, 0
0, 0
0, 0
0, 0
0, 0
0, 0
0, 0
0, 0
0, 0
0, 0
0, 0
0, 0
0, 0
0, 0
0, 0
0, 0
0, 0
0, 0
0, 0
0, 0
0, 0
0, 0
0, 0
0, 0
0, 0
0, 0
0, 0
0, 0
0, 0
0, 0
0, 0
0, 0
0, 0
0, 0
0, 0
0, 0
0, 0
0, 0
0, 0
0, 0
0, 0
0, 0
0, 0
0, 0
0, 0
0, 0
0, 0
0, 0
0, 0
0, 0
0, 0
0, 0
0, 0
0, 0
0, 0
0, 0
0, 0
0, 0
0, 0
0, 0
0, 0
0, 0
0, 0
0, 0
0, 0
0, 0
#ENDOFDATA     end of spectrum data