File: host_upload/02-11-2024/rqc/uplink1/ps__0567_0717304816_000rfs_shot_267.msa
#FORMAT      : EMSA/MAS spectral data file
#VERSION     : TC202v2.0 PIXL
#TITLE       : Novarupta (sol567) subset1
#DATE        : 02-11-2024      Date in the format DD-MMM-YYYY, for example 07-JUL-2010
#TIME        :             The time of day at which the spectrum was recorded, in 24-hour format
#OWNER       : PIXL Flight Model       (PIXL will use this to indicate which instrument took the data.)
#NPOINTS     : 4096     Number of data points in the spectrum (This can be zero for configuration only files)
#NCOLUMNS    : 2     Number of data columns in the spectrum (This can be zero for configuration only files)
#XUNITS      : eV
#YUNITS      : COUNTS
#DATATYPE    : YY
#XPERCHAN    : 7.862, 7.881   eV per channel (separate by commas if more than one detector)
#OFFSET      : 18.5, -22.4         eV of first channel  (separate by commas if more than one detector
#SIGNALTYPE  : XRF
#YP_TEMP     : 1.369
#LIVETIME    : 8.82957, 8.81605   seconds (separate by commas if more than one detector)
#REALTIME    : 10, 10.0   seconds (separate by commas if more than one detector)
#SPECTRUM    : start of spectrum data
0, 0
0, 0
0, 0
0, 0
0, 0
0, 0
0, 0
0, 0
0, 0
0, 0
0, 0
0, 0
0, 0
0, 0
0, 0
0, 0
0, 0
0, 0
0, 0
0, 0
0, 0
0, 0
0, 0
0, 0
0, 0
0, 0
0, 0
0, 0
0, 0
0, 0
0, 0
0, 0
1, 0
0, 0
1, 1
1, 0
2, 3
0, 4
3, 5
5, 4
1, 6
3, 4
2, 1
3, 2
5, 3
2, 1
3, 3
2, 3
2, 6
3, 7
3, 6
6, 7
9, 9
18, 19
10, 11
13, 19
13, 5
4, 13
8, 9
5, 10
14, 15
21, 39
44, 40
48, 45
34, 46
38, 48
34, 41
33, 45
40, 47
56, 49
85, 133
177, 218
269, 337
425, 482
477, 553
417, 505
405, 471
335, 376
227, 224
135, 155
81, 84
62, 57
29, 35
37, 38
31, 42
24, 31
49, 37
43, 39
30, 29
15, 28
17, 9
12, 18
24, 32
43, 63
85, 95
132, 167
192, 225
266, 321
309, 397
317, 368
289, 313
202, 229
162, 202
123, 134
63, 68
65, 60
47, 51
58, 90
102, 112
133, 125
165, 166
186, 207
204, 269
256, 236
213, 218
166, 179
138, 135
93, 97
83, 73
66, 89
56, 95
75, 70
71, 80
53, 56
44, 41
36, 45
32, 42
26, 35
17, 23
20, 20
8, 5
5, 12
6, 5
9, 8
10, 6
8, 13
6, 17
11, 19
17, 21
17, 31
24, 34
19, 25
34, 27
30, 33
22, 26
19, 17
10, 16
5, 7
7, 11
18, 19
29, 41
53, 71
74, 108
143, 155
200, 253
309, 384
330, 417
338, 447
337, 380
302, 329
221, 248
162, 174
102, 98
64, 73
36, 44
27, 32
21, 29
37, 42
52, 61
61, 57
57, 67
52, 71
59, 73
60, 55
36, 36
36, 31
18, 13
8, 18
12, 17
5, 6
8, 5
2, 10
9, 10
9, 10
9, 14
10, 20
21, 18
26, 24
32, 48
40, 47
60, 66
69, 77
59, 78
73, 68
50, 67
45, 47
29, 40
17, 32
22, 19
13, 18
17, 15
12, 14
9, 10
12, 15
11, 14
11, 21
12, 17
11, 25
18, 22
14, 24
15, 20
24, 18
18, 14
12, 22
13, 18
5, 18
15, 16
8, 10
9, 18
11, 14
7, 13
10, 16
18, 11
17, 11
13, 16
14, 36
17, 25
22, 28
34, 28
25, 36
28, 36
24, 29
26, 29
24, 24
19, 25
14, 22
15, 15
11, 12
15, 13
11, 13
9, 10
11, 15
10, 12
10, 10
19, 12
21, 26
15, 33
32, 27
43, 41
32, 48
55, 53
56, 62
44, 36
49, 51
45, 32
28, 32
32, 26
21, 25
16, 13
16, 20
23, 16
22, 25
53, 49
69, 95
118, 156
193, 311
331, 480
573, 782
821, 1056
1089, 1414
1369, 1685
1591, 1827
1603, 1872
1518, 1760
1391, 1459
1169, 1111
851, 784
575, 517
329, 296
212, 192
125, 94
72, 48
37, 45
26, 23
15, 18
14, 14
15, 16
16, 13
13, 10
22, 25
18, 43
29, 43
36, 59
67, 82
78, 103
98, 140
137, 191
187, 230
254, 249
235, 271
245, 295
228, 297
198, 257
165, 156
97, 101
101, 81
54, 48
40, 28
39, 23
14, 14
13, 8
4, 7
9, 8
10, 13
11, 13
10, 12
9, 14
9, 12
20, 19
12, 9
17, 13
9, 7
6, 11
6, 3
6, 7
6, 8
6, 6
6, 7
6, 6
8, 11
7, 1
3, 8
6, 6
8, 8
9, 5
5, 7
10, 8
8, 10
7, 2
5, 6
3, 6
5, 7
11, 8
7, 7
11, 7
3, 13
5, 9
6, 3
9, 7
7, 4
8, 2
3, 8
6, 9
5, 7
5, 4
6, 7
4, 7
7, 7
3, 5
3, 7
4, 4
9, 4
7, 19
8, 10
11, 14
6, 15
9, 10
10, 12
10, 10
6, 12
9, 19
8, 10
8, 12
12, 5
4, 9
7, 8
6, 5
7, 3
5, 5
9, 6
8, 8
9, 7
8, 11
2, 9
7, 7
8, 4
4, 9
3, 6
6, 3
9, 4
2, 8
5, 2
3, 6
6, 6
3, 6
7, 5
4, 10
6, 3
3, 3
4, 6
8, 7
7, 8
11, 9
5, 8
7, 11
7, 8
2, 3
5, 12
6, 6
4, 4
4, 4
5, 5
2, 3
3, 9
7, 6
2, 3
4, 8
1, 1
4, 4
2, 7
4, 2
1, 4
3, 10
6, 2
2, 3
2, 2
1, 4
5, 8
3, 6
3, 6
4, 4
3, 1
1, 4
4, 4
2, 6
4, 4
3, 5
4, 4
3, 3
5, 9
5, 7
1, 3
6, 4
0, 7
4, 3
1, 2
4, 6
3, 2
1, 4
2, 4
3, 5
2, 6
2, 6
3, 5
3, 4
1, 1
1, 3
3, 5
4, 4
1, 4
2, 5
4, 5
1, 1
2, 7
2, 2
2, 5
3, 3
4, 2
4, 0
1, 2
9, 1
2, 5
2, 5
3, 3
3, 3
1, 1
4, 7
2, 4
3, 3
2, 3
1, 2
2, 3
2, 4
2, 1
1, 2
3, 2
1, 6
1, 1
1, 4
1, 3
3, 2
4, 3
3, 4
3, 5
5, 2
3, 2
2, 2
1, 1
1, 2
4, 3
2, 3
1, 3
3, 2
0, 1
4, 4
1, 6
3, 2
3, 3
1, 5
2, 4
3, 1
1, 3
1, 0
2, 1
5, 0
1, 3
6, 1
1, 2
3, 0
0, 2
2, 2
3, 4
4, 1
3, 2
2, 0
2, 3
2, 3
3, 1
4, 1
2, 1
1, 1
1, 1
1, 2
1, 2
0, 4
5, 4
2, 4
3, 3
2, 3
2, 3
3, 3
4, 4
3, 3
4, 2
2, 0
3, 0
1, 2
1, 1
3, 0
5, 0
0, 2
3, 2
1, 5
1, 1
0, 0
1, 1
2, 0
0, 4
0, 3
1, 1
3, 3
1, 5
3, 3
0, 1
2, 3
0, 0
2, 1
0, 1
1, 3
1, 2
2, 1
1, 2
2, 0
4, 2
1, 1
2, 3
2, 1
0, 1
1, 0
4, 1
0, 1
1, 0
1, 1
2, 1
1, 1
0, 3
1, 1
2, 0
1, 0
1, 4
3, 0
1, 0
2, 3
4, 2
1, 2
3, 0
0, 2
1, 2
3, 2
2, 1
0, 1
1, 0
0, 1
0, 0
1, 3
0, 1
2, 2
4, 0
2, 0
1, 0
1, 0
0, 2
2, 1
1, 1
2, 0
2, 1
1, 0
1, 1
2, 2
0, 1
3, 0
0, 0
0, 0
1, 1
2, 0
0, 1
1, 0
3, 0
2, 0
0, 0
1, 1
0, 1
1, 0
0, 2
0, 1
2, 0
0, 1
2, 0
1, 2
1, 1
1, 1
0, 3
0, 0
0, 1
1, 0
0, 2
1, 1
0, 0
2, 0
1, 0
0, 2
1, 2
1, 1
1, 1
0, 0
1, 0
0, 0
0, 1
0, 1
2, 0
0, 0
0, 3
0, 0
1, 0
0, 1
0, 1
0, 1
1, 0
1, 0
0, 1
1, 0
0, 0
2, 0
0, 0
0, 1
2, 0
0, 0
2, 1
0, 1
2, 3
0, 0
1, 0
0, 0
0, 0
0, 1
2, 0
0, 1
1, 1
0, 1
1, 0
0, 0
0, 0
0, 0
1, 0
1, 0
0, 2
0, 0
0, 1
1, 0
0, 0
0, 0
0, 0
0, 1
1, 1
2, 0
0, 1
1, 0
1, 0
0, 1
1, 1
1, 1
1, 0
0, 0
0, 0
0, 0
0, 0
1, 0
0, 1
0, 0
0, 0
0, 0
0, 0
0, 0
0, 0
1, 1
0, 2
1, 0
0, 1
1, 0
1, 0
0, 0
0, 0
0, 0
0, 0
0, 0
1, 0
1, 0
0, 0
0, 1
0, 0
0, 1
1, 0
1, 0
0, 0
0, 0
2, 0
0, 0
0, 1
0, 0
0, 0
0, 0
0, 0
0, 0
0, 0
0, 0
0, 0
0, 0
0, 0
0, 2
0, 0
0, 0
1, 0
0, 0
0, 0
1, 0
0, 0
0, 0
0, 0
1, 1
0, 0
0, 1
1, 0
0, 0
0, 0
0, 0
0, 0
0, 0
0, 0
0, 0
0, 1
0, 0
0, 1
0, 0
0, 0
0, 1
0, 1
1, 0
0, 0
0, 0
1, 2
1, 0
1, 0
0, 1
0, 0
0, 0
2, 1
1, 1
0, 1
0, 1
0, 0
0, 0
0, 0
0, 0
1, 0
0, 0
0, 0
0, 0
0, 0
0, 0
2, 0
0, 0
0, 0
0, 0
0, 0
0, 0
0, 0
0, 0
0, 0
0, 1
0, 0
0, 0
1, 0
0, 0
0, 0
0, 0
0, 0
0, 0
0, 0
0, 0
1, 0
0, 0
0, 0
0, 0
0, 0
1, 0
0, 0
0, 0
0, 0
0, 1
0, 0
0, 0
0, 1
0, 0
0, 0
0, 1
0, 0
0, 0
0, 0
0, 0
0, 0
1, 0
0, 0
0, 0
0, 0
0, 1
0, 0
0, 0
0, 1
0, 0
0, 0
0, 0
1, 1
0, 0
0, 0
0, 0
0, 0
0, 0
0, 0
0, 0
0, 0
1, 0
0, 0
0, 0
0, 0
0, 0
0, 0
0, 0
0, 0
1, 0
0, 0
0, 0
0, 0
0, 0
1, 0
0, 0
0, 0
0, 1
0, 0
0, 0
0, 0
0, 0
0, 0
0, 0
0, 0
0, 0
0, 0
0, 0
0, 0
0, 1
0, 0
0, 0
0, 0
0, 0
0, 0
0, 0
1, 0
0, 0
0, 0
0, 0
0, 0
0, 0
0, 0
0, 0
0, 1
0, 0
0, 0
0, 0
1, 0
0, 0
1, 0
0, 1
0, 0
0, 0
0, 0
0, 0
0, 0
0, 1
0, 0
0, 0
0, 0
0, 0
0, 0
0, 0
0, 0
0, 0
0, 0
0, 0
0, 0
0, 0
0, 0
0, 0
0, 0
0, 0
0, 0
0, 0
0, 0
0, 0
0, 0
0, 0
0, 0
0, 0
0, 0
0, 0
0, 0
0, 0
0, 0
0, 0
0, 0
0, 0
0, 1
0, 0
0, 0
0, 0
0, 0
0, 0
0, 0
0, 0
0, 0
0, 0
0, 0
0, 0
0, 0
0, 0
0, 0
0, 0
0, 0
0, 0
0, 0
0, 0
0, 0
0, 0
0, 0
0, 0
0, 0
0, 0
0, 1
0, 0
0, 0
0, 0
0, 0
0, 0
0, 0
0, 0
0, 0
0, 0
0, 0
0, 0
0, 0
0, 0
0, 0
0, 0
0, 0
0, 0
0, 0
0, 0
0, 0
0, 0
0, 0
0, 0
0, 0
0, 0
0, 0
0, 0
0, 0
0, 0
0, 0
0, 0
0, 0
0, 0
0, 0
0, 0
0, 0
0, 0
0, 0
0, 0
0, 0
0, 0
0, 0
0, 0
0, 0
0, 0
0, 0
0, 0
0, 0
0, 0
0, 0
0, 0
0, 0
0, 1
0, 0
0, 0
0, 0
0, 0
0, 0
0, 0
0, 0
0, 0
0, 0
0, 0
0, 0
0, 0
0, 0
0, 0
0, 0
0, 0
0, 0
0, 0
0, 0
0, 0
0, 0
0, 0
0, 0
0, 0
0, 0
0, 0
0, 0
0, 0
0, 0
0, 0
0, 0
0, 0
0, 0
0, 0
0, 0
0, 0
0, 0
0, 0
0, 0
0, 0
0, 0
0, 0
0, 0
0, 0
0, 0
0, 0
0, 0
0, 0
0, 0
0, 0
0, 0
0, 0
0, 0
0, 0
0, 0
0, 0
0, 0
0, 0
0, 0
0, 0
0, 0
0, 0
0, 0
0, 0
0, 0
0, 0
0, 0
0, 0
0, 0
0, 0
0, 0
0, 0
0, 0
0, 0
0, 0
0, 0
0, 0
0, 0
0, 0
0, 0
0, 0
0, 0
0, 0
0, 0
0, 0
0, 0
0, 0
0, 0
0, 0
0, 0
0, 0
0, 0
0, 0
0, 0
0, 0
0, 0
0, 0
0, 0
0, 0
0, 0
0, 0
0, 0
0, 0
0, 0
0, 0
0, 0
0, 0
0, 0
0, 0
0, 0
0, 0
0, 0
0, 0
0, 0
0, 0
0, 0
0, 0
0, 0
0, 0
0, 0
0, 0
0, 0
0, 0
0, 0
0, 0
0, 0
0, 0
0, 0
0, 0
0, 0
0, 0
0, 0
0, 0
0, 0
0, 0
0, 0
0, 0
0, 0
0, 0
0, 0
0, 0
0, 0
0, 0
0, 0
0, 0
0, 0
0, 0
0, 0
0, 0
0, 0
1, 0
0, 0
0, 0
0, 0
0, 0
0, 0
0, 0
0, 0
0, 0
0, 0
0, 0
0, 0
0, 0
0, 0
0, 0
0, 0
0, 0
0, 0
0, 0
0, 0
0, 0
0, 0
0, 0
0, 0
0, 0
0, 0
0, 0
0, 0
0, 0
0, 0
0, 0
0, 0
0, 0
0, 0
0, 0
0, 0
0, 0
0, 0
0, 0
0, 0
0, 0
0, 0
0, 0
0, 0
0, 0
0, 0
0, 0
0, 0
0, 0
0, 0
0, 0
0, 0
0, 0
0, 0
0, 0
0, 0
0, 0
0, 0
0, 0
0, 0
0, 0
0, 0
0, 0
0, 0
0, 0
0, 0
0, 0
0, 0
0, 0
0, 0
0, 0
0, 0
0, 0
0, 0
0, 0
0, 0
0, 0
0, 0
0, 0
0, 0
0, 0
0, 0
0, 0
0, 0
0, 0
0, 0
0, 0
0, 0
0, 0
0, 0
0, 0
0, 0
0, 0
0, 0
0, 0
0, 0
0, 0
0, 0
0, 0
0, 0
0, 0
0, 0
0, 0
0, 0
0, 0
0, 0
0, 0
0, 0
0, 0
0, 0
0, 0
0, 0
0, 0
0, 0
0, 0
0, 0
0, 0
0, 0
0, 0
0, 0
0, 0
0, 0
0, 0
0, 0
0, 0
0, 0
0, 0
0, 0
0, 0
0, 0
0, 0
0, 0
0, 0
0, 0
0, 0
0, 0
0, 0
0, 0
0, 0
0, 0
0, 0
0, 0
0, 0
0, 0
0, 0
0, 0
0, 0
0, 0
0, 0
0, 0
0, 0
0, 0
0, 0
0, 0
0, 0
0, 0
0, 0
0, 0
0, 0
0, 0
0, 0
0, 0
0, 0
0, 0
0, 0
0, 0
0, 0
0, 0
0, 0
0, 0
0, 0
0, 0
0, 0
0, 0
0, 0
0, 0
0, 0
#ENDOFDATA     end of spectrum data