File: host_upload/02-11-2024/rqc/uplink1/ps__0567_0717304816_000rfs_shot_484.msa
#FORMAT      : EMSA/MAS spectral data file
#VERSION     : TC202v2.0 PIXL
#TITLE       : Novarupta (sol567) subset1
#DATE        : 02-11-2024      Date in the format DD-MMM-YYYY, for example 07-JUL-2010
#TIME        :             The time of day at which the spectrum was recorded, in 24-hour format
#OWNER       : PIXL Flight Model       (PIXL will use this to indicate which instrument took the data.)
#NPOINTS     : 4096     Number of data points in the spectrum (This can be zero for configuration only files)
#NCOLUMNS    : 2     Number of data columns in the spectrum (This can be zero for configuration only files)
#XUNITS      : eV
#YUNITS      : COUNTS
#DATATYPE    : YY
#XPERCHAN    : 7.862, 7.881   eV per channel (separate by commas if more than one detector)
#OFFSET      : 18.5, -22.4         eV of first channel  (separate by commas if more than one detector
#SIGNALTYPE  : XRF
#YP_TEMP     : 1.947
#LIVETIME    : 8.82431, 8.81337   seconds (separate by commas if more than one detector)
#REALTIME    : 10, 10.0   seconds (separate by commas if more than one detector)
#SPECTRUM    : start of spectrum data
0, 0
0, 0
0, 0
0, 0
0, 0
0, 0
0, 0
0, 0
0, 0
0, 0
0, 0
0, 0
0, 0
0, 0
0, 0
0, 0
0, 0
0, 0
0, 0
0, 0
0, 0
0, 0
0, 0
0, 0
0, 0
0, 0
0, 0
0, 0
0, 0
0, 0
0, 0
0, 0
0, 0
0, 1
0, 2
0, 3
3, 2
3, 3
3, 2
1, 1
3, 4
5, 6
3, 5
3, 3
2, 3
3, 7
3, 5
4, 5
3, 5
4, 0
9, 6
9, 6
17, 11
11, 24
14, 20
16, 8
17, 13
11, 10
12, 14
10, 9
16, 24
21, 23
39, 40
32, 56
41, 43
45, 56
35, 37
38, 38
31, 41
47, 48
118, 109
166, 233
267, 346
388, 454
426, 546
470, 532
384, 438
306, 362
230, 209
139, 166
84, 77
59, 50
33, 31
19, 31
17, 45
30, 39
25, 28
36, 44
23, 27
20, 23
18, 22
9, 19
22, 28
40, 35
79, 92
115, 159
190, 205
236, 291
273, 326
290, 323
252, 258
211, 216
167, 167
88, 99
59, 76
46, 60
54, 68
77, 73
101, 116
124, 141
163, 172
225, 213
231, 281
196, 250
205, 224
150, 201
113, 125
105, 94
79, 108
75, 91
74, 97
73, 74
59, 68
49, 53
47, 50
30, 42
22, 35
24, 24
17, 16
18, 18
8, 9
8, 6
5, 3
5, 8
6, 5
7, 9
8, 15
13, 15
20, 32
24, 17
29, 42
25, 34
27, 29
30, 23
21, 17
9, 15
16, 16
12, 8
11, 9
16, 17
25, 18
48, 49
66, 69
117, 170
188, 250
244, 326
316, 359
322, 418
340, 373
297, 343
223, 225
149, 163
112, 96
69, 53
29, 45
22, 33
29, 27
29, 35
35, 35
42, 55
57, 73
63, 65
42, 53
50, 46
42, 34
33, 28
22, 24
9, 9
10, 14
7, 7
9, 7
9, 8
9, 14
8, 13
7, 11
9, 15
20, 15
15, 24
35, 34
43, 42
56, 60
60, 62
48, 73
65, 51
50, 55
23, 47
37, 37
41, 25
24, 28
12, 20
20, 25
11, 12
8, 13
9, 9
13, 12
17, 18
14, 23
18, 17
15, 24
12, 24
10, 21
24, 15
12, 20
10, 20
18, 15
14, 12
11, 11
6, 11
11, 8
8, 10
8, 9
9, 12
7, 12
13, 11
13, 17
18, 11
23, 20
33, 20
29, 35
20, 37
19, 38
33, 37
35, 34
15, 29
20, 20
21, 18
19, 15
19, 12
16, 11
12, 12
11, 15
10, 16
18, 15
11, 14
18, 21
21, 23
27, 31
34, 36
47, 47
53, 43
46, 56
43, 64
56, 55
40, 48
43, 45
22, 27
24, 18
15, 28
24, 24
19, 10
26, 20
21, 26
35, 52
78, 106
99, 161
204, 268
305, 488
590, 733
843, 1084
1076, 1420
1372, 1697
1551, 1907
1733, 1959
1606, 1864
1451, 1562
1146, 1216
862, 874
609, 568
381, 341
228, 205
136, 118
88, 68
42, 32
27, 16
16, 25
21, 16
7, 9
18, 15
19, 24
21, 23
29, 26
32, 39
36, 39
51, 72
79, 96
108, 151
164, 198
206, 239
229, 249
281, 282
259, 277
233, 281
222, 214
151, 186
154, 116
100, 76
66, 55
42, 45
24, 19
14, 14
4, 14
12, 10
7, 12
7, 13
9, 10
7, 12
15, 11
14, 10
5, 13
6, 10
4, 12
8, 14
11, 12
5, 10
4, 9
9, 4
4, 5
5, 6
6, 3
7, 5
7, 8
7, 4
6, 9
3, 2
8, 4
6, 11
3, 9
8, 10
10, 5
6, 11
7, 7
9, 8
6, 9
4, 7
8, 7
6, 5
13, 9
6, 11
9, 6
5, 10
9, 6
11, 6
8, 5
4, 10
6, 11
9, 3
6, 6
8, 7
2, 10
5, 9
6, 8
3, 9
6, 7
6, 13
12, 8
8, 12
13, 21
18, 9
16, 18
14, 7
20, 8
12, 10
2, 8
11, 7
5, 5
5, 4
7, 4
11, 7
8, 7
4, 7
3, 8
6, 6
5, 4
4, 7
3, 8
4, 7
8, 7
7, 1
9, 3
4, 7
9, 2
6, 8
7, 5
6, 7
4, 2
4, 8
6, 4
1, 1
2, 3
4, 7
3, 4
5, 7
9, 2
3, 6
4, 4
5, 9
6, 7
5, 6
6, 3
4, 9
5, 3
3, 2
3, 6
6, 7
3, 8
1, 6
8, 5
8, 5
5, 2
4, 1
3, 4
4, 4
1, 5
4, 3
5, 5
2, 8
9, 6
8, 8
4, 5
6, 4
5, 4
5, 3
6, 4
7, 6
3, 6
4, 2
2, 6
2, 2
3, 3
4, 2
7, 4
3, 4
5, 2
4, 5
5, 3
4, 7
6, 2
3, 0
3, 4
1, 4
3, 3
4, 3
2, 3
2, 4
5, 6
0, 7
2, 4
2, 3
3, 5
5, 5
1, 2
5, 5
2, 2
2, 5
1, 4
4, 4
3, 1
2, 2
5, 2
2, 1
3, 5
3, 2
3, 2
3, 0
5, 3
4, 3
4, 3
2, 5
2, 3
8, 1
1, 2
5, 3
5, 0
4, 4
6, 4
1, 2
5, 6
3, 4
1, 5
1, 4
2, 1
7, 6
1, 6
3, 3
4, 4
0, 4
1, 2
1, 1
1, 4
3, 1
0, 1
6, 4
5, 3
2, 1
4, 1
1, 6
3, 0
1, 1
3, 5
4, 2
4, 1
0, 2
1, 1
1, 4
1, 0
3, 4
0, 3
5, 4
1, 4
2, 2
2, 5
2, 1
3, 4
0, 2
0, 3
2, 2
1, 1
2, 2
2, 1
5, 3
2, 2
0, 3
0, 0
2, 1
1, 1
0, 0
1, 4
1, 4
2, 3
1, 2
1, 1
1, 3
0, 5
3, 4
4, 5
2, 3
2, 1
3, 0
1, 2
1, 2
1, 1
2, 4
2, 2
0, 2
0, 1
0, 2
1, 2
1, 0
1, 0
0, 1
4, 1
0, 4
4, 4
0, 2
0, 0
4, 0
2, 2
3, 3
1, 2
2, 2
1, 1
2, 5
2, 2
1, 2
2, 0
4, 5
2, 0
2, 3
3, 2
2, 1
3, 0
0, 0
1, 2
1, 3
1, 3
1, 0
2, 0
2, 1
0, 0
1, 0
1, 0
0, 2
0, 0
1, 1
0, 3
0, 0
1, 0
2, 2
0, 1
1, 0
0, 1
0, 1
1, 0
3, 1
0, 0
1, 2
0, 3
2, 1
2, 1
1, 2
2, 0
1, 0
3, 1
1, 0
2, 1
0, 0
1, 0
1, 3
0, 0
0, 1
0, 0
0, 1
1, 0
0, 3
4, 1
2, 1
1, 0
1, 1
1, 1
2, 0
1, 0
0, 1
1, 2
1, 1
0, 0
0, 2
1, 1
0, 0
0, 1
0, 0
1, 1
1, 0
0, 2
2, 1
0, 1
1, 0
0, 0
0, 1
0, 0
1, 0
1, 0
0, 0
0, 3
1, 0
0, 1
1, 4
0, 0
0, 0
1, 0
0, 0
0, 1
3, 1
1, 1
0, 0
0, 0
0, 0
1, 0
1, 3
0, 2
1, 1
0, 0
2, 1
0, 2
1, 1
1, 0
2, 0
0, 0
0, 1
0, 0
3, 0
0, 0
1, 0
0, 1
1, 0
0, 0
0, 0
0, 0
0, 0
1, 0
0, 2
2, 0
1, 1
0, 0
1, 1
1, 0
0, 0
0, 0
0, 0
1, 0
0, 0
0, 0
1, 1
0, 0
0, 3
0, 0
0, 0
0, 1
1, 0
0, 1
2, 0
0, 0
0, 3
0, 1
0, 0
0, 0
0, 0
0, 0
0, 0
0, 1
1, 0
0, 0
1, 1
0, 0
0, 1
0, 1
0, 0
0, 2
0, 2
0, 0
0, 0
0, 1
1, 1
1, 0
0, 0
1, 1
1, 2
0, 0
0, 1
0, 0
0, 0
0, 0
0, 0
1, 0
0, 0
1, 2
1, 0
1, 0
0, 0
0, 0
0, 0
0, 0
0, 0
0, 1
0, 0
0, 0
0, 0
1, 0
0, 0
0, 0
1, 0
0, 2
0, 0
0, 0
0, 0
0, 1
1, 0
0, 0
1, 0
0, 0
0, 1
0, 0
0, 0
0, 0
1, 0
0, 0
1, 0
1, 0
0, 1
0, 0
0, 0
0, 0
0, 0
0, 0
1, 0
0, 0
0, 0
0, 1
1, 0
0, 0
0, 0
1, 1
0, 0
0, 0
1, 0
1, 0
0, 0
0, 0
2, 0
0, 0
0, 0
1, 0
0, 0
0, 1
1, 0
0, 1
0, 0
0, 0
2, 0
0, 0
0, 0
0, 0
0, 0
0, 0
0, 0
0, 0
0, 0
0, 0
0, 0
0, 0
0, 0
0, 0
0, 0
0, 0
0, 0
0, 0
0, 0
0, 1
0, 0
0, 0
1, 0
1, 0
0, 0
0, 1
0, 0
0, 2
0, 0
0, 0
0, 0
0, 0
0, 0
0, 0
0, 0
0, 1
0, 0
0, 0
0, 0
0, 0
0, 0
0, 0
0, 0
0, 0
0, 0
1, 0
0, 1
0, 1
0, 0
0, 1
1, 1
0, 0
0, 0
0, 0
0, 0
0, 0
0, 0
0, 0
1, 0
2, 0
0, 0
0, 0
0, 0
0, 0
0, 0
0, 0
0, 0
0, 0
1, 0
0, 0
0, 0
0, 0
0, 0
0, 0
0, 0
0, 0
0, 0
0, 0
0, 0
0, 0
0, 0
0, 0
0, 0
0, 0
0, 0
0, 0
0, 0
0, 0
1, 1
0, 0
0, 0
0, 0
0, 1
0, 0
0, 0
0, 0
0, 0
0, 1
0, 1
0, 0
0, 0
0, 0
0, 0
0, 0
0, 0
0, 0
0, 0
0, 0
0, 0
0, 0
0, 0
0, 0
0, 0
0, 0
0, 1
0, 0
0, 0
0, 0
0, 0
0, 0
0, 0
0, 0
0, 0
0, 0
0, 0
0, 0
0, 0
0, 0
1, 0
0, 0
0, 0
0, 0
0, 0
0, 0
0, 0
0, 0
0, 0
0, 1
0, 0
0, 0
0, 0
0, 0
0, 0
0, 0
0, 0
0, 0
0, 0
0, 0
0, 0
0, 0
0, 0
0, 1
0, 0
0, 0
0, 0
0, 0
0, 1
0, 0
0, 0
0, 0
0, 0
0, 0
0, 0
0, 0
1, 0
0, 0
0, 0
0, 0
0, 1
0, 0
0, 0
0, 0
0, 0
0, 0
0, 0
0, 0
0, 0
1, 0
0, 0
0, 0
0, 0
0, 0
0, 0
0, 0
0, 0
0, 0
0, 0
0, 1
0, 0
0, 0
0, 0
0, 0
0, 0
0, 0
0, 0
0, 0
0, 0
0, 0
0, 0
0, 0
0, 0
0, 0
0, 0
0, 0
0, 0
0, 0
0, 0
0, 0
0, 0
0, 0
0, 0
0, 0
0, 0
0, 0
0, 0
0, 0
0, 0
0, 0
0, 0
0, 0
0, 0
0, 0
0, 0
0, 0
0, 0
0, 0
0, 0
0, 0
0, 0
0, 0
0, 0
0, 0
0, 0
0, 0
0, 0
0, 0
0, 0
0, 0
0, 0
0, 0
0, 0
0, 0
0, 0
0, 0
0, 0
0, 0
0, 0
0, 0
0, 0
0, 0
0, 0
0, 0
0, 0
0, 0
0, 0
0, 0
0, 0
0, 0
0, 0
0, 0
0, 0
0, 0
0, 0
0, 0
0, 0
0, 0
0, 0
0, 0
0, 0
0, 0
0, 0
0, 0
0, 0
0, 0
0, 0
0, 0
0, 0
0, 0
0, 0
0, 0
0, 0
0, 0
0, 0
0, 0
0, 0
0, 0
0, 0
0, 0
0, 0
0, 0
0, 0
0, 0
0, 0
0, 0
0, 0
0, 0
0, 0
0, 0
0, 0
0, 0
0, 0
0, 0
0, 0
0, 0
0, 0
0, 0
0, 0
0, 0
0, 0
0, 0
0, 0
0, 0
0, 0
0, 0
0, 0
0, 0
0, 0
0, 0
0, 0
0, 0
0, 0
0, 0
0, 0
0, 0
0, 0
0, 0
0, 0
0, 0
0, 0
0, 0
0, 0
0, 0
0, 0
0, 0
0, 0
0, 0
0, 0
0, 0
0, 0
0, 0
0, 0
0, 0
0, 0
0, 0
0, 0
0, 0
0, 0
0, 0
0, 0
0, 0
0, 0
0, 0
0, 0
0, 0
0, 0
0, 0
0, 0
0, 0
0, 0
0, 0
0, 0
0, 0
0, 0
0, 0
0, 0
0, 0
0, 0
0, 0
0, 0
0, 0
0, 0
0, 0
0, 0
0, 0
0, 0
0, 0
0, 0
0, 0
0, 0
0, 0
0, 0
0, 0
0, 0
0, 0
0, 0
0, 0
0, 0
0, 0
0, 0
0, 0
0, 0
0, 0
0, 0
0, 0
0, 0
0, 0
0, 0
0, 0
0, 0
0, 0
0, 0
0, 0
0, 0
0, 0
0, 0
0, 0
0, 0
0, 0
0, 0
0, 0
0, 0
0, 0
0, 0
0, 0
0, 0
0, 0
0, 0
0, 0
0, 0
0, 0
0, 0
0, 0
0, 0
0, 0
0, 0
0, 0
0, 0
0, 0
0, 0
0, 0
0, 0
0, 0
0, 0
0, 0
0, 0
0, 0
0, 0
0, 0
0, 0
0, 0
0, 0
0, 0
0, 0
0, 0
0, 0
0, 0
0, 0
0, 0
0, 0
0, 0
0, 0
0, 0
0, 0
0, 0
0, 0
0, 0
0, 0
0, 0
0, 0
0, 0
0, 0
0, 0
0, 0
0, 0
0, 0
0, 0
0, 0
0, 0
0, 0
0, 0
0, 0
0, 0
0, 0
0, 0
0, 0
0, 0
0, 0
0, 0
0, 0
0, 0
0, 0
0, 0
0, 0
0, 0
0, 0
0, 0
0, 0
0, 0
0, 0
0, 0
0, 0
0, 0
0, 0
0, 0
0, 0
0, 0
0, 0
0, 0
0, 0
0, 0
0, 0
0, 0
0, 0
0, 0
0, 0
0, 0
0, 0
0, 0
0, 0
0, 0
0, 0
0, 0
0, 0
0, 0
0, 0
0, 0
0, 0
0, 0
0, 0
0, 0
0, 0
0, 0
0, 0
0, 0
0, 0
0, 0
0, 0
0, 0
0, 0
0, 0
0, 0
0, 0
0, 0
0, 0
0, 0
0, 0
0, 0
0, 0
0, 0
0, 0
0, 0
0, 0
0, 0
0, 0
0, 0
0, 0
0, 0
0, 0
0, 0
0, 0
0, 0
0, 0
0, 0
0, 0
0, 0
0, 0
0, 0
0, 0
0, 0
#ENDOFDATA     end of spectrum data