File: host_upload/02-11-2024/rqc/uplink1/ps__0567_0717304816_000rfs_shot_89.msa
#FORMAT      : EMSA/MAS spectral data file
#VERSION     : TC202v2.0 PIXL
#TITLE       : Novarupta (sol567) subset1
#DATE        : 02-11-2024      Date in the format DD-MMM-YYYY, for example 07-JUL-2010
#TIME        :             The time of day at which the spectrum was recorded, in 24-hour format
#OWNER       : PIXL Flight Model       (PIXL will use this to indicate which instrument took the data.)
#NPOINTS     : 4096     Number of data points in the spectrum (This can be zero for configuration only files)
#NCOLUMNS    : 2     Number of data columns in the spectrum (This can be zero for configuration only files)
#XUNITS      : eV
#YUNITS      : COUNTS
#DATATYPE    : YY
#XPERCHAN    : 7.862, 7.881   eV per channel (separate by commas if more than one detector)
#OFFSET      : 18.5, -22.4         eV of first channel  (separate by commas if more than one detector
#SIGNALTYPE  : XRF
#YP_TEMP     : -1.26
#LIVETIME    : 8.84439, 8.83056   seconds (separate by commas if more than one detector)
#REALTIME    : 10, 10.0   seconds (separate by commas if more than one detector)
#SPECTRUM    : start of spectrum data
0, 0
0, 0
0, 0
0, 0
0, 0
0, 0
0, 0
0, 0
0, 0
0, 0
0, 0
0, 0
0, 0
0, 0
0, 0
0, 0
0, 0
0, 0
0, 0
0, 0
0, 0
0, 0
0, 0
0, 0
0, 0
0, 0
0, 0
0, 0
0, 0
1, 0
0, 0
0, 0
0, 2
1, 0
0, 1
2, 0
0, 5
5, 6
2, 5
3, 4
1, 8
7, 3
3, 6
2, 2
2, 3
7, 5
2, 4
2, 4
1, 3
5, 8
8, 3
7, 8
12, 12
18, 21
8, 21
12, 24
8, 20
9, 9
13, 9
10, 6
19, 14
27, 24
40, 24
35, 50
56, 48
49, 48
38, 37
25, 33
34, 52
61, 81
124, 131
159, 209
320, 312
379, 431
416, 452
440, 485
446, 401
306, 315
213, 222
130, 123
81, 83
42, 45
36, 36
30, 40
27, 31
30, 41
41, 24
32, 29
35, 23
20, 17
22, 19
19, 17
22, 40
52, 56
92, 91
148, 170
184, 233
264, 275
278, 368
287, 284
275, 276
183, 231
121, 141
84, 101
66, 85
54, 50
62, 76
52, 91
119, 104
130, 148
170, 177
209, 210
221, 238
214, 248
181, 176
153, 172
106, 118
115, 112
98, 102
80, 72
88, 76
61, 62
62, 66
53, 49
47, 42
36, 21
27, 24
20, 27
25, 15
8, 15
6, 6
9, 5
8, 7
3, 7
7, 8
8, 4
14, 6
17, 15
12, 27
18, 26
28, 31
27, 28
22, 36
22, 24
21, 11
20, 15
15, 10
10, 13
19, 10
11, 23
30, 29
50, 81
105, 113
144, 177
195, 255
253, 339
357, 367
355, 419
313, 391
290, 281
204, 245
167, 157
101, 105
47, 62
37, 29
34, 28
34, 29
29, 39
46, 45
40, 60
53, 70
64, 67
60, 52
46, 44
45, 38
28, 23
18, 19
14, 15
6, 12
10, 8
3, 10
7, 8
3, 3
5, 11
9, 12
14, 18
18, 17
29, 32
27, 26
38, 40
36, 63
64, 60
74, 46
58, 60
48, 48
49, 37
30, 43
25, 31
19, 17
12, 25
12, 14
16, 15
13, 9
10, 19
9, 11
10, 16
4, 10
20, 15
6, 16
17, 24
21, 27
22, 22
17, 14
18, 16
14, 4
13, 14
9, 11
12, 12
6, 11
8, 5
20, 14
10, 18
9, 10
11, 15
12, 15
21, 24
17, 23
23, 37
23, 29
28, 36
21, 36
25, 26
14, 28
23, 19
26, 24
18, 16
7, 14
12, 8
9, 10
8, 17
7, 11
10, 14
13, 9
14, 17
17, 22
17, 19
21, 19
24, 31
40, 36
42, 44
54, 63
44, 52
39, 54
44, 35
46, 32
22, 20
14, 15
14, 13
18, 25
8, 16
13, 30
30, 24
38, 76
78, 95
121, 200
245, 305
425, 521
622, 814
845, 1104
1192, 1375
1380, 1665
1614, 1740
1580, 1712
1444, 1604
1336, 1254
1033, 984
737, 674
508, 408
294, 259
173, 157
82, 73
74, 56
44, 33
22, 21
18, 18
16, 16
24, 18
14, 11
20, 21
22, 17
21, 36
38, 40
41, 63
72, 74
96, 109
126, 157
144, 177
221, 249
244, 240
270, 272
268, 269
215, 222
202, 198
138, 155
98, 91
56, 55
50, 49
29, 32
25, 12
8, 14
7, 11
5, 11
4, 15
10, 6
17, 10
14, 15
9, 10
11, 20
12, 12
10, 11
9, 13
6, 8
4, 8
6, 7
9, 7
5, 3
7, 2
8, 8
6, 6
3, 4
7, 6
4, 1
3, 5
5, 7
5, 6
7, 3
7, 4
6, 2
6, 7
4, 3
5, 9
11, 7
5, 6
2, 10
5, 12
4, 15
6, 7
3, 7
3, 8
5, 1
5, 11
3, 9
8, 3
2, 6
5, 6
7, 7
4, 4
3, 7
3, 11
4, 11
6, 6
11, 14
7, 11
7, 8
7, 9
10, 9
16, 15
14, 12
11, 8
11, 6
13, 9
9, 11
5, 5
3, 5
7, 11
9, 9
10, 2
9, 6
7, 8
8, 5
7, 8
9, 8
6, 8
6, 4
4, 6
4, 4
3, 6
9, 5
4, 4
6, 6
7, 5
3, 3
2, 3
10, 6
6, 8
3, 5
4, 6
8, 6
6, 4
4, 7
8, 4
2, 9
5, 7
6, 6
5, 5
10, 1
5, 3
5, 4
1, 8
5, 5
10, 5
1, 7
3, 4
7, 3
2, 7
1, 3
5, 7
8, 4
3, 5
6, 2
5, 3
9, 5
3, 2
1, 5
5, 7
3, 5
0, 7
7, 8
3, 5
4, 6
6, 4
4, 5
2, 3
6, 5
4, 4
3, 2
4, 2
4, 4
5, 1
2, 2
4, 4
4, 1
2, 4
3, 0
7, 3
2, 3
0, 2
4, 5
5, 4
6, 4
2, 8
5, 5
4, 5
7, 5
2, 2
4, 8
3, 4
2, 4
8, 4
3, 3
3, 2
3, 1
3, 3
4, 3
2, 5
2, 5
2, 6
4, 2
4, 5
1, 4
1, 3
3, 4
2, 3
2, 3
2, 1
4, 6
1, 3
3, 2
2, 2
1, 6
2, 4
2, 3
3, 2
3, 3
0, 6
2, 1
3, 1
1, 2
0, 2
4, 0
4, 4
2, 3
3, 3
2, 1
0, 2
5, 2
2, 2
2, 0
5, 2
3, 0
1, 1
1, 2
2, 1
1, 3
2, 1
2, 4
3, 4
1, 0
3, 1
3, 1
4, 1
1, 2
4, 1
1, 3
1, 0
1, 2
2, 4
1, 2
1, 3
1, 4
3, 3
3, 5
2, 3
1, 3
3, 4
3, 4
2, 2
3, 0
1, 3
3, 1
0, 1
3, 2
1, 6
3, 2
3, 1
2, 0
3, 3
0, 2
1, 5
7, 4
5, 1
1, 3
4, 3
2, 0
2, 2
1, 2
2, 3
1, 3
2, 2
2, 3
1, 0
1, 2
1, 0
1, 1
0, 2
1, 1
2, 1
1, 3
0, 6
0, 2
1, 3
0, 2
2, 1
1, 1
4, 3
0, 3
2, 1
2, 1
1, 4
1, 2
1, 1
1, 3
3, 1
0, 0
0, 3
1, 2
0, 1
2, 0
1, 2
0, 2
1, 1
2, 1
3, 0
1, 2
0, 2
1, 0
1, 2
1, 1
1, 0
0, 1
1, 4
1, 2
1, 4
2, 2
1, 1
1, 1
4, 1
1, 1
0, 1
4, 0
1, 0
1, 0
1, 1
2, 0
0, 1
0, 1
1, 2
1, 1
1, 4
1, 0
0, 2
1, 1
0, 1
1, 2
0, 0
4, 1
1, 0
0, 0
2, 0
0, 1
1, 1
0, 0
1, 1
0, 1
1, 0
1, 1
1, 1
1, 0
0, 0
1, 0
1, 0
1, 1
3, 2
0, 0
1, 2
2, 0
0, 1
0, 0
0, 0
0, 2
2, 0
1, 0
0, 1
0, 0
1, 1
2, 0
0, 1
0, 0
1, 1
0, 3
0, 0
0, 0
0, 1
1, 0
0, 0
1, 0
0, 2
0, 0
0, 0
0, 0
2, 0
0, 0
1, 2
0, 0
1, 0
0, 0
1, 0
0, 0
1, 0
0, 0
0, 1
2, 2
0, 2
2, 1
0, 0
1, 1
1, 0
2, 1
0, 0
0, 1
1, 1
1, 0
1, 0
1, 2
1, 1
0, 0
0, 0
2, 0
0, 1
0, 1
1, 0
1, 0
0, 0
0, 1
0, 0
2, 1
1, 0
0, 0
0, 1
0, 1
0, 1
0, 0
0, 0
0, 0
0, 0
0, 2
0, 0
0, 0
1, 0
0, 1
0, 0
1, 0
1, 0
1, 0
0, 1
0, 0
1, 0
0, 0
1, 0
0, 0
2, 0
0, 1
0, 0
0, 0
0, 2
0, 0
0, 0
0, 0
0, 0
0, 0
1, 0
0, 0
1, 0
0, 0
0, 0
0, 0
0, 0
0, 0
0, 0
0, 1
0, 1
0, 2
0, 0
0, 1
0, 1
0, 2
0, 0
1, 0
1, 0
0, 0
0, 0
0, 0
0, 0
0, 0
0, 0
1, 0
0, 0
1, 0
0, 0
1, 1
0, 0
0, 1
0, 0
0, 0
1, 0
0, 0
0, 0
0, 1
1, 0
0, 0
2, 1
0, 0
0, 0
0, 0
0, 0
0, 1
0, 0
0, 1
0, 0
0, 0
1, 0
1, 0
0, 1
0, 0
0, 0
1, 0
0, 2
0, 1
0, 0
0, 0
0, 0
1, 0
0, 0
1, 0
0, 1
0, 0
1, 1
0, 0
0, 0
1, 0
2, 0
0, 0
1, 2
1, 0
0, 0
0, 0
0, 0
1, 0
0, 0
0, 0
0, 0
0, 0
0, 0
0, 0
0, 0
1, 0
0, 0
0, 0
0, 0
0, 0
0, 0
0, 0
0, 0
0, 0
0, 0
0, 0
0, 0
0, 0
0, 1
0, 1
0, 0
1, 0
0, 1
0, 0
0, 0
0, 0
0, 0
1, 0
0, 0
0, 0
0, 0
2, 0
0, 0
0, 0
1, 0
0, 0
0, 0
0, 0
0, 0
0, 1
0, 0
0, 0
0, 0
0, 0
0, 0
0, 0
0, 0
0, 0
0, 0
0, 1
0, 0
0, 0
0, 1
0, 0
0, 0
0, 0
1, 0
0, 0
0, 0
0, 0
0, 0
0, 0
1, 0
0, 0
0, 0
0, 0
0, 1
0, 0
0, 0
0, 0
0, 0
0, 1
0, 0
0, 0
0, 0
1, 0
0, 0
0, 0
1, 0
0, 0
0, 0
0, 0
0, 0
0, 0
0, 0
1, 0
0, 0
0, 0
0, 0
1, 0
0, 0
0, 0
0, 0
0, 0
0, 0
0, 0
0, 0
0, 0
0, 0
0, 0
0, 0
0, 0
0, 0
0, 0
0, 0
0, 0
0, 0
0, 0
0, 0
0, 0
0, 0
0, 0
0, 0
0, 0
0, 0
0, 0
0, 0
0, 0
0, 0
0, 0
0, 0
0, 0
0, 0
0, 0
0, 0
0, 0
0, 0
0, 0
0, 0
0, 0
0, 0
0, 0
0, 0
0, 0
0, 0
0, 0
0, 0
0, 0
0, 0
0, 0
0, 0
0, 0
0, 0
1, 0
0, 0
0, 0
0, 0
0, 0
0, 0
0, 0
0, 0
0, 0
0, 0
0, 0
0, 0
0, 0
0, 0
0, 0
0, 0
0, 0
0, 0
0, 0
0, 0
0, 0
0, 0
0, 0
0, 0
0, 0
0, 0
0, 0
0, 0
0, 1
0, 0
0, 1
0, 0
0, 0
0, 0
0, 0
0, 0
0, 0
0, 0
0, 0
0, 0
0, 0
0, 0
0, 0
0, 0
0, 0
0, 0
0, 0
0, 0
0, 0
0, 0
0, 0
0, 0
0, 0
0, 0
0, 0
0, 0
0, 0
0, 0
0, 0
0, 0
0, 0
0, 0
0, 0
0, 0
0, 0
0, 0
0, 0
0, 0
0, 0
0, 0
0, 0
0, 0
0, 0
1, 0
0, 0
0, 0
0, 0
0, 0
0, 0
0, 0
0, 0
0, 0
0, 0
0, 0
0, 0
0, 0
0, 0
0, 0
0, 0
0, 0
0, 0
0, 0
0, 0
0, 0
0, 0
0, 0
0, 0
0, 0
0, 0
0, 0
0, 0
0, 0
0, 0
0, 0
0, 0
0, 0
0, 0
0, 0
0, 0
0, 0
0, 0
0, 0
0, 0
0, 0
0, 0
0, 0
0, 0
0, 0
0, 0
0, 0
0, 0
0, 0
0, 0
0, 0
0, 0
0, 0
0, 0
0, 0
0, 0
0, 0
0, 0
0, 0
0, 0
0, 0
0, 0
0, 0
0, 0
0, 0
0, 0
0, 0
0, 0
0, 0
0, 0
0, 0
0, 0
0, 0
0, 0
0, 0
0, 0
0, 0
0, 0
0, 0
0, 0
0, 0
0, 0
0, 0
0, 0
0, 0
0, 0
0, 0
0, 0
0, 0
0, 0
0, 0
0, 0
0, 0
0, 0
0, 0
0, 0
0, 0
0, 0
0, 0
0, 0
0, 0
0, 0
0, 0
0, 0
0, 0
0, 0
0, 0
0, 0
0, 0
0, 0
0, 0
0, 0
0, 0
0, 0
0, 0
0, 0
0, 0
0, 0
0, 0
0, 0
0, 0
0, 0
0, 0
0, 0
0, 0
0, 0
0, 0
0, 0
0, 0
0, 0
0, 0
0, 0
0, 0
0, 0
0, 0
0, 0
0, 0
0, 0
0, 0
0, 0
0, 0
0, 0
0, 0
0, 0
0, 0
0, 0
0, 0
0, 0
0, 0
0, 0
0, 0
0, 0
0, 0
0, 0
0, 0
0, 0
0, 0
0, 0
0, 0
0, 0
0, 0
0, 0
0, 0
0, 0
0, 0
0, 0
0, 0
0, 0
0, 0
0, 0
0, 0
0, 0
0, 0
0, 0
0, 0
0, 0
0, 0
0, 0
0, 0
0, 0
0, 0
0, 0
0, 0
0, 0
0, 0
0, 0
0, 0
0, 0
0, 0
0, 0
0, 0
0, 0
0, 0
0, 0
0, 0
0, 0
0, 0
0, 0
0, 0
0, 0
0, 0
0, 0
0, 0
0, 0
0, 0
0, 0
0, 0
0, 0
0, 0
0, 0
0, 0
0, 0
0, 0
0, 0
0, 0
0, 0
0, 0
0, 0
0, 0
0, 0
0, 0
0, 0
0, 0
0, 0
0, 0
0, 0
0, 0
0, 0
0, 0
0, 0
0, 0
0, 0
0, 0
0, 0
0, 0
0, 0
0, 0
0, 0
0, 0
0, 0
0, 0
0, 0
0, 0
0, 0
0, 0
0, 0
0, 0
0, 0
0, 0
0, 0
0, 0
0, 0
0, 0
0, 0
0, 0
0, 0
0, 0
0, 0
0, 0
0, 0
0, 0
0, 0
0, 0
0, 0
0, 0
0, 0
0, 0
0, 0
0, 0
0, 0
0, 0
0, 0
0, 0
0, 0
0, 0
0, 0
0, 0
0, 0
0, 0
0, 0
0, 0
0, 0
0, 0
0, 0
0, 0
0, 0
0, 0
0, 0
0, 0
0, 0
0, 0
0, 0
0, 0
0, 0
0, 0
0, 0
0, 0
0, 0
0, 0
0, 0
0, 0
0, 0
0, 0
0, 0
0, 0
0, 0
0, 0
0, 0
0, 0
0, 0
0, 0
0, 0
0, 0
0, 0
0, 0
0, 0
0, 0
0, 0
0, 0
0, 0
0, 0
0, 0
0, 0
0, 0
0, 0
0, 0
0, 0
0, 0
0, 0
0, 0
0, 0
0, 0
0, 0
0, 0
0, 0
0, 0
0, 0
0, 0
0, 0
0, 0
#ENDOFDATA     end of spectrum data