File: host_upload/02-11-2024/rqc/uplink1/ps__0567_0717304816_000rfs_shot_486.msa
#FORMAT      : EMSA/MAS spectral data file
#VERSION     : TC202v2.0 PIXL
#TITLE       : Novarupta (sol567) subset1
#DATE        : 02-11-2024      Date in the format DD-MMM-YYYY, for example 07-JUL-2010
#TIME        :             The time of day at which the spectrum was recorded, in 24-hour format
#OWNER       : PIXL Flight Model       (PIXL will use this to indicate which instrument took the data.)
#NPOINTS     : 4096     Number of data points in the spectrum (This can be zero for configuration only files)
#NCOLUMNS    : 2     Number of data columns in the spectrum (This can be zero for configuration only files)
#XUNITS      : eV
#YUNITS      : COUNTS
#DATATYPE    : YY
#XPERCHAN    : 7.862, 7.881   eV per channel (separate by commas if more than one detector)
#OFFSET      : 18.5, -22.4         eV of first channel  (separate by commas if more than one detector
#SIGNALTYPE  : XRF
#YP_TEMP     : 1.786
#LIVETIME    : 8.82652, 8.80953   seconds (separate by commas if more than one detector)
#REALTIME    : 10, 10.0   seconds (separate by commas if more than one detector)
#SPECTRUM    : start of spectrum data
0, 0
0, 0
0, 0
0, 0
0, 0
0, 0
0, 0
0, 0
0, 0
0, 0
0, 0
0, 0
0, 0
0, 0
0, 0
0, 0
0, 0
0, 0
0, 0
0, 0
0, 0
0, 0
0, 0
0, 0
0, 0
0, 0
0, 0
0, 0
0, 0
0, 0
0, 0
0, 0
0, 0
1, 0
2, 3
0, 2
2, 3
4, 3
0, 5
3, 1
3, 1
2, 6
0, 5
5, 1
3, 3
1, 6
4, 2
5, 0
0, 3
7, 5
7, 10
5, 9
14, 11
8, 17
24, 12
16, 11
10, 17
12, 14
2, 9
13, 14
15, 19
24, 33
36, 51
39, 58
50, 57
41, 41
37, 33
26, 37
24, 47
51, 66
89, 125
169, 251
269, 350
347, 469
453, 531
452, 537
405, 520
328, 363
220, 242
150, 148
78, 107
45, 41
33, 34
31, 44
30, 36
28, 41
33, 45
33, 33
30, 29
18, 19
9, 23
17, 11
26, 23
45, 52
69, 81
113, 153
208, 240
252, 291
280, 353
293, 345
259, 315
217, 224
146, 171
95, 108
73, 70
56, 64
65, 52
51, 69
88, 99
129, 172
160, 189
196, 249
199, 249
220, 256
168, 238
196, 196
150, 149
102, 127
74, 97
67, 89
81, 95
95, 71
69, 63
52, 57
40, 59
33, 34
26, 30
21, 23
20, 21
11, 10
10, 15
8, 11
13, 5
11, 9
8, 8
5, 16
11, 7
12, 20
13, 21
22, 23
23, 27
39, 34
27, 40
24, 33
18, 28
25, 27
15, 11
9, 11
8, 10
12, 24
17, 31
43, 51
77, 117
136, 193
203, 272
286, 382
353, 387
353, 450
371, 401
293, 357
237, 250
179, 174
110, 130
68, 61
40, 44
21, 26
21, 27
38, 38
32, 57
51, 76
45, 66
64, 69
45, 62
46, 63
38, 41
31, 32
21, 27
9, 12
13, 15
5, 6
7, 11
3, 8
8, 10
8, 9
8, 10
11, 15
18, 18
25, 27
29, 32
25, 45
55, 57
50, 62
48, 74
52, 66
52, 64
28, 52
36, 34
26, 25
23, 22
27, 25
14, 19
21, 17
12, 12
17, 15
10, 7
8, 9
12, 17
23, 26
18, 13
22, 17
19, 23
20, 19
18, 20
18, 9
15, 17
11, 17
7, 9
9, 16
9, 11
7, 18
9, 8
5, 12
8, 14
11, 16
10, 10
14, 21
23, 18
20, 28
22, 36
37, 39
28, 46
33, 38
25, 31
22, 38
15, 23
20, 21
14, 12
12, 17
16, 16
15, 20
14, 10
13, 13
13, 15
10, 10
18, 13
15, 30
23, 30
21, 41
31, 48
41, 49
48, 60
55, 47
38, 52
41, 48
32, 35
27, 30
24, 31
21, 29
10, 17
19, 18
15, 26
28, 40
29, 50
70, 87
99, 146
208, 303
321, 480
526, 737
811, 1083
1144, 1434
1389, 1718
1568, 1863
1721, 1974
1607, 1885
1479, 1512
1149, 1133
886, 813
560, 570
336, 335
204, 195
103, 105
53, 54
36, 27
26, 15
14, 17
14, 22
14, 22
14, 23
9, 28
14, 22
23, 23
31, 37
45, 44
46, 61
62, 113
85, 135
142, 204
165, 236
193, 256
250, 286
272, 292
279, 254
223, 250
162, 177
128, 148
81, 87
59, 69
27, 44
20, 13
15, 12
10, 14
13, 13
9, 14
6, 11
6, 18
13, 12
6, 15
12, 15
10, 19
8, 11
8, 10
10, 7
6, 11
7, 6
7, 6
6, 2
8, 6
8, 5
10, 12
7, 1
12, 3
8, 6
6, 5
5, 6
2, 11
6, 8
4, 13
8, 6
9, 5
4, 4
7, 13
5, 15
11, 4
7, 7
6, 14
7, 8
9, 6
3, 5
5, 13
7, 9
9, 12
10, 7
13, 7
9, 5
5, 6
8, 8
5, 2
10, 12
11, 7
4, 8
6, 4
4, 9
6, 6
6, 15
5, 11
9, 12
5, 5
13, 10
12, 10
13, 15
9, 10
13, 10
5, 10
15, 7
8, 5
5, 6
7, 6
3, 4
8, 9
4, 6
7, 5
2, 5
3, 7
4, 0
7, 2
5, 8
1, 1
7, 5
6, 5
6, 9
4, 7
4, 8
2, 8
2, 12
3, 7
4, 5
3, 1
4, 8
3, 5
3, 6
2, 7
2, 1
2, 5
5, 5
3, 5
6, 5
4, 7
2, 4
5, 4
5, 4
5, 1
5, 3
6, 8
2, 4
5, 4
4, 4
4, 3
3, 2
5, 5
3, 10
1, 7
9, 5
7, 7
2, 4
4, 8
5, 8
5, 5
4, 5
8, 6
3, 5
1, 2
3, 3
3, 7
4, 5
5, 8
3, 5
4, 7
7, 4
5, 2
4, 5
5, 5
3, 3
3, 6
6, 3
6, 2
1, 5
5, 4
1, 4
4, 3
3, 5
2, 3
2, 3
4, 5
1, 1
2, 9
3, 1
5, 4
3, 1
3, 7
0, 4
2, 4
5, 4
2, 2
2, 5
2, 4
3, 3
2, 2
2, 4
3, 3
2, 4
2, 3
0, 5
5, 2
2, 3
3, 4
2, 6
5, 4
2, 1
3, 4
5, 5
4, 2
3, 3
2, 2
3, 5
4, 1
2, 2
7, 2
1, 3
7, 3
4, 1
1, 3
3, 1
2, 0
1, 3
1, 7
3, 8
3, 5
2, 3
3, 3
3, 3
4, 2
4, 5
4, 5
1, 3
4, 3
0, 5
2, 1
4, 4
4, 2
6, 1
2, 1
0, 1
6, 3
1, 2
3, 4
2, 1
4, 4
0, 4
1, 0
0, 5
1, 1
1, 1
1, 4
1, 3
1, 0
2, 1
3, 0
0, 0
4, 1
2, 2
2, 3
0, 0
2, 2
1, 0
1, 3
0, 3
1, 1
5, 2
2, 1
5, 0
2, 3
2, 4
2, 2
3, 3
3, 4
4, 2
1, 2
1, 2
3, 2
2, 4
2, 1
0, 4
2, 2
3, 2
3, 2
4, 1
2, 1
0, 3
0, 2
2, 3
1, 3
1, 3
2, 2
1, 1
1, 4
2, 0
0, 1
2, 1
4, 4
1, 1
4, 4
2, 1
0, 1
1, 3
0, 3
0, 2
2, 1
2, 0
0, 0
2, 1
2, 5
3, 1
0, 1
1, 1
0, 3
1, 3
0, 0
1, 2
0, 1
2, 1
0, 2
2, 3
2, 2
0, 1
1, 0
1, 0
1, 0
3, 1
1, 1
1, 0
1, 1
0, 1
1, 3
1, 1
0, 0
1, 0
2, 0
0, 3
3, 0
2, 0
0, 0
1, 0
0, 0
1, 0
1, 0
0, 3
1, 2
1, 0
2, 1
3, 1
0, 2
0, 0
0, 3
0, 2
1, 0
1, 0
1, 1
2, 1
1, 1
1, 1
3, 0
1, 0
0, 2
1, 1
2, 2
1, 1
0, 2
0, 0
0, 1
1, 0
0, 2
0, 1
1, 0
2, 1
0, 0
1, 3
2, 0
0, 1
1, 1
0, 0
0, 1
0, 1
0, 0
0, 0
1, 0
0, 0
2, 0
0, 0
0, 0
0, 1
1, 0
0, 0
0, 0
0, 0
1, 1
1, 0
0, 0
0, 0
0, 2
1, 0
0, 2
0, 1
0, 1
0, 1
1, 0
1, 2
1, 0
0, 0
1, 1
0, 0
0, 0
1, 0
0, 0
0, 0
1, 0
0, 0
0, 0
1, 1
1, 2
0, 0
1, 0
0, 0
1, 0
1, 1
0, 1
2, 0
0, 0
0, 1
0, 1
1, 0
1, 1
1, 0
0, 0
0, 0
0, 0
1, 1
1, 0
0, 2
0, 0
0, 0
2, 0
1, 0
2, 0
0, 0
0, 0
0, 0
0, 0
1, 2
0, 1
0, 2
1, 0
0, 0
1, 1
0, 0
0, 1
0, 1
0, 0
0, 1
1, 1
0, 2
0, 0
0, 0
0, 1
0, 0
0, 0
0, 1
0, 0
1, 1
1, 0
0, 0
0, 0
0, 1
0, 0
0, 0
0, 0
0, 0
0, 1
0, 0
0, 1
0, 0
0, 1
2, 0
1, 0
0, 0
1, 0
1, 0
0, 0
1, 0
0, 0
0, 1
0, 1
0, 0
1, 0
0, 1
0, 0
0, 0
0, 0
0, 0
0, 0
0, 0
0, 0
0, 0
0, 0
1, 0
0, 0
0, 0
0, 1
0, 0
0, 0
0, 0
0, 0
0, 2
0, 0
0, 0
0, 0
0, 1
0, 0
1, 0
0, 1
0, 0
0, 1
0, 0
1, 0
0, 0
1, 0
0, 1
0, 0
0, 0
0, 0
0, 0
0, 1
0, 0
0, 1
0, 0
0, 0
0, 0
1, 0
0, 0
0, 0
0, 0
0, 0
0, 0
0, 0
0, 0
0, 1
0, 0
0, 0
0, 0
0, 0
0, 0
1, 1
0, 0
1, 0
0, 0
0, 0
0, 0
0, 1
0, 1
0, 0
0, 0
0, 0
0, 0
0, 0
0, 0
0, 0
0, 0
0, 0
0, 0
0, 0
0, 0
0, 0
0, 0
0, 0
0, 0
0, 0
0, 0
0, 0
1, 0
0, 0
0, 0
0, 1
1, 1
1, 0
2, 0
0, 0
0, 1
0, 0
0, 0
0, 1
0, 0
0, 0
1, 2
0, 0
0, 0
0, 1
0, 0
0, 0
0, 0
0, 0
0, 0
0, 0
1, 0
0, 0
0, 0
0, 0
1, 0
0, 0
0, 0
0, 1
0, 0
0, 0
0, 0
0, 0
0, 0
0, 0
0, 0
0, 0
0, 0
0, 0
0, 0
0, 0
0, 0
0, 0
0, 0
0, 0
0, 0
0, 0
0, 0
0, 0
0, 0
0, 0
0, 0
0, 0
0, 0
0, 0
0, 0
0, 0
0, 0
1, 0
0, 1
0, 0
0, 0
0, 0
0, 0
0, 0
0, 0
0, 0
0, 0
0, 1
0, 0
0, 0
0, 0
0, 0
0, 0
0, 0
0, 0
0, 0
0, 1
0, 0
0, 0
0, 0
0, 0
0, 0
0, 0
0, 0
1, 0
1, 0
0, 0
0, 0
0, 0
0, 0
0, 0
0, 0
0, 0
0, 0
0, 0
0, 0
0, 1
0, 0
0, 0
0, 0
0, 0
0, 0
0, 0
0, 0
0, 0
0, 0
0, 0
0, 0
0, 0
0, 0
0, 0
0, 0
0, 0
0, 0
0, 0
0, 0
0, 0
0, 0
0, 0
0, 0
0, 0
0, 0
0, 0
0, 0
0, 0
0, 0
0, 0
0, 0
0, 0
0, 0
0, 0
0, 0
0, 0
0, 0
0, 0
0, 0
0, 0
0, 0
0, 0
0, 0
0, 0
0, 0
0, 0
0, 0
0, 0
0, 0
0, 0
0, 0
0, 0
0, 0
0, 0
0, 0
0, 0
0, 0
0, 0
0, 0
0, 0
0, 0
0, 0
0, 0
0, 0
0, 0
0, 0
0, 0
0, 0
0, 0
0, 0
0, 0
0, 0
0, 0
0, 0
0, 0
0, 0
0, 0
0, 0
0, 0
0, 0
0, 0
0, 0
0, 0
0, 0
0, 0
0, 0
0, 0
0, 0
0, 0
0, 0
0, 0
0, 0
0, 0
0, 0
0, 0
0, 0
0, 0
0, 0
0, 0
0, 0
0, 0
0, 0
0, 0
0, 0
0, 0
0, 0
0, 0
0, 0
0, 0
0, 0
0, 0
0, 0
0, 0
0, 0
0, 0
0, 0
0, 0
0, 0
0, 0
0, 0
0, 0
0, 0
0, 0
0, 0
0, 0
0, 0
0, 0
0, 0
0, 0
0, 0
0, 0
0, 0
0, 0
0, 0
0, 0
0, 0
0, 0
0, 0
0, 0
0, 0
0, 0
0, 0
0, 0
0, 0
0, 0
0, 0
0, 0
0, 0
0, 0
0, 0
0, 0
0, 0
0, 0
0, 0
0, 0
0, 0
0, 0
0, 0
0, 0
0, 0
0, 0
0, 0
0, 0
0, 0
0, 0
0, 0
0, 0
0, 0
0, 0
0, 0
0, 0
0, 0
0, 0
0, 0
0, 0
0, 0
0, 0
0, 0
0, 0
0, 0
0, 0
0, 0
0, 0
0, 0
0, 0
0, 0
0, 0
0, 0
0, 0
0, 0
0, 0
0, 0
0, 0
0, 0
0, 0
0, 0
0, 0
0, 0
0, 0
0, 0
0, 0
0, 0
0, 0
0, 0
0, 0
0, 0
0, 0
0, 0
0, 0
0, 0
0, 0
0, 0
0, 0
0, 0
0, 0
0, 0
0, 0
0, 0
0, 0
0, 0
0, 0
0, 0
0, 0
0, 0
0, 0
0, 0
0, 0
0, 0
0, 0
0, 0
0, 0
0, 0
0, 0
0, 0
0, 0
0, 0
0, 0
0, 0
0, 0
0, 0
0, 0
0, 0
0, 0
0, 0
0, 0
0, 0
0, 0
0, 0
0, 0
0, 0
0, 0
0, 0
0, 0
0, 0
0, 0
0, 0
0, 0
0, 0
0, 0
0, 0
0, 0
0, 0
0, 0
0, 0
0, 0
0, 0
0, 0
0, 0
0, 0
0, 0
0, 0
0, 0
0, 0
0, 0
0, 0
0, 0
0, 0
0, 0
0, 0
0, 0
0, 0
0, 0
0, 0
0, 0
0, 0
0, 0
0, 0
0, 0
0, 0
0, 0
0, 0
0, 0
0, 0
0, 0
0, 0
0, 0
0, 0
0, 0
0, 0
0, 0
0, 0
0, 0
0, 0
0, 0
0, 0
0, 0
0, 0
0, 0
0, 0
0, 0
0, 0
0, 0
0, 0
0, 0
0, 0
0, 0
0, 0
0, 0
0, 0
0, 0
0, 0
0, 0
0, 0
0, 0
0, 0
0, 0
0, 0
0, 0
0, 0
0, 0
0, 0
0, 0
0, 0
0, 0
0, 0
0, 0
0, 0
0, 0
0, 0
0, 0
0, 0
0, 0
0, 0
0, 0
0, 0
0, 0
0, 0
0, 0
0, 0
0, 0
0, 0
0, 0
0, 0
0, 0
0, 0
0, 0
0, 0
0, 0
0, 0
0, 0
0, 0
0, 0
0, 0
0, 0
0, 0
0, 0
0, 0
0, 0
0, 0
0, 0
0, 0
0, 0
0, 0
0, 0
0, 0
0, 0
0, 0
0, 0
0, 0
0, 0
0, 0
0, 0
0, 0
0, 0
0, 0
0, 0
0, 0
0, 0
0, 0
0, 0
0, 0
0, 0
0, 0
0, 0
0, 0
0, 0
0, 0
0, 0
0, 0
0, 0
0, 0
0, 0
0, 0
0, 0
0, 0
0, 0
0, 0
0, 0
0, 0
0, 0
0, 0
0, 0
0, 0
0, 0
0, 0
0, 0
0, 0
0, 0
#ENDOFDATA     end of spectrum data