File: host_upload/02-11-2024/rqc/uplink1/ps__0567_0717304816_000rfs_shot_68.msa
#FORMAT      : EMSA/MAS spectral data file
#VERSION     : TC202v2.0 PIXL
#TITLE       : Novarupta (sol567) subset1
#DATE        : 02-11-2024      Date in the format DD-MMM-YYYY, for example 07-JUL-2010
#TIME        :             The time of day at which the spectrum was recorded, in 24-hour format
#OWNER       : PIXL Flight Model       (PIXL will use this to indicate which instrument took the data.)
#NPOINTS     : 4096     Number of data points in the spectrum (This can be zero for configuration only files)
#NCOLUMNS    : 2     Number of data columns in the spectrum (This can be zero for configuration only files)
#XUNITS      : eV
#YUNITS      : COUNTS
#DATATYPE    : YY
#XPERCHAN    : 7.862, 7.881   eV per channel (separate by commas if more than one detector)
#OFFSET      : 18.5, -22.4         eV of first channel  (separate by commas if more than one detector
#SIGNALTYPE  : XRF
#YP_TEMP     : -1.774
#LIVETIME    : 8.82274, 8.81828   seconds (separate by commas if more than one detector)
#REALTIME    : 10, 10.0   seconds (separate by commas if more than one detector)
#SPECTRUM    : start of spectrum data
0, 0
0, 0
0, 0
0, 0
0, 0
0, 0
0, 0
0, 0
0, 0
0, 0
0, 0
0, 0
0, 0
0, 0
0, 0
0, 0
0, 0
0, 0
0, 0
0, 0
0, 0
0, 0
0, 0
0, 0
0, 0
0, 0
0, 0
0, 0
0, 0
0, 0
0, 1
0, 1
0, 0
0, 1
1, 2
3, 0
4, 1
5, 2
2, 3
3, 5
3, 5
3, 4
2, 3
3, 3
4, 3
3, 7
1, 3
2, 3
6, 5
3, 2
5, 3
13, 2
6, 14
9, 21
9, 18
14, 14
18, 10
14, 6
11, 7
7, 11
20, 26
24, 21
39, 36
47, 48
45, 47
44, 49
31, 41
34, 37
37, 38
70, 58
129, 144
209, 242
294, 349
443, 441
525, 505
423, 488
453, 464
302, 324
223, 216
143, 151
108, 88
50, 45
34, 38
37, 44
38, 34
39, 43
33, 32
26, 22
23, 27
24, 19
22, 17
15, 26
27, 34
55, 58
96, 85
137, 158
206, 246
297, 286
338, 333
299, 348
287, 295
230, 222
167, 137
93, 102
76, 73
60, 54
46, 67
73, 79
89, 123
131, 143
184, 172
223, 221
215, 264
194, 211
189, 202
169, 171
142, 151
110, 105
80, 104
77, 88
78, 71
62, 83
63, 84
59, 60
44, 44
44, 31
28, 37
24, 19
15, 22
15, 19
12, 13
11, 7
9, 7
7, 8
7, 6
13, 10
15, 10
7, 15
14, 22
24, 29
28, 38
29, 26
33, 36
29, 22
26, 22
12, 18
11, 5
10, 5
10, 11
21, 24
29, 41
69, 75
101, 138
175, 189
236, 289
299, 351
361, 388
371, 394
334, 383
319, 321
248, 238
164, 166
82, 104
71, 55
40, 37
31, 35
32, 30
40, 44
32, 52
50, 71
54, 62
70, 63
51, 55
51, 42
37, 38
37, 21
26, 16
8, 10
10, 16
8, 11
7, 10
4, 7
8, 7
9, 11
11, 13
19, 19
26, 20
20, 32
30, 40
48, 63
62, 47
57, 53
60, 54
63, 52
44, 51
41, 38
32, 37
25, 29
23, 24
16, 28
13, 19
11, 12
14, 13
15, 12
17, 6
13, 14
14, 14
25, 14
23, 17
14, 17
22, 21
19, 19
21, 13
16, 17
11, 17
13, 10
10, 17
11, 8
12, 15
10, 13
16, 8
17, 8
9, 7
10, 15
24, 13
14, 20
15, 18
20, 28
30, 19
21, 29
25, 33
23, 30
32, 21
25, 19
23, 23
11, 14
9, 7
15, 9
12, 12
12, 11
9, 14
8, 12
11, 9
16, 21
20, 16
18, 22
29, 31
29, 42
30, 53
25, 47
52, 47
47, 52
47, 43
57, 50
28, 25
39, 23
23, 31
21, 12
25, 19
18, 25
25, 32
40, 37
60, 71
95, 118
167, 226
294, 376
497, 579
755, 835
1031, 1167
1348, 1501
1519, 1709
1720, 1835
1756, 1792
1617, 1562
1349, 1298
1026, 973
769, 711
505, 415
304, 284
177, 130
112, 84
56, 51
27, 25
29, 17
21, 12
23, 11
19, 18
15, 11
17, 20
22, 24
31, 36
15, 40
56, 71
62, 84
94, 119
160, 169
190, 207
221, 252
255, 264
302, 279
270, 251
241, 241
189, 195
143, 152
134, 91
77, 55
53, 33
34, 28
21, 15
6, 10
8, 6
7, 15
14, 4
10, 10
11, 10
16, 12
14, 15
11, 16
14, 13
9, 10
8, 11
11, 9
10, 4
8, 5
9, 3
14, 6
8, 8
4, 8
6, 4
4, 4
6, 4
6, 5
9, 4
7, 7
6, 5
5, 11
2, 7
5, 4
7, 5
5, 10
3, 8
4, 5
3, 7
10, 8
5, 4
7, 5
9, 9
2, 4
9, 9
5, 5
4, 7
7, 5
14, 3
4, 9
4, 8
8, 6
5, 2
5, 5
6, 6
6, 3
11, 6
5, 9
10, 6
7, 10
8, 12
5, 13
12, 9
13, 10
12, 9
12, 9
3, 10
6, 8
2, 8
6, 5
8, 10
5, 3
4, 7
7, 3
6, 6
3, 5
5, 7
7, 0
2, 9
4, 3
7, 6
4, 3
4, 6
10, 8
2, 7
3, 4
6, 4
8, 9
11, 8
7, 6
5, 5
7, 5
9, 5
4, 3
5, 6
2, 6
6, 5
4, 7
2, 3
5, 4
12, 2
4, 8
7, 3
4, 2
2, 5
3, 3
3, 4
6, 3
8, 3
3, 2
9, 4
1, 2
5, 4
3, 7
1, 3
1, 2
3, 3
3, 5
7, 2
3, 4
1, 7
5, 4
3, 5
1, 4
3, 10
3, 1
4, 7
5, 7
4, 6
3, 7
3, 3
5, 8
5, 2
5, 3
2, 7
2, 8
1, 4
1, 5
6, 2
3, 1
2, 2
5, 6
4, 5
5, 0
4, 5
5, 2
5, 4
3, 1
1, 0
3, 2
2, 5
2, 3
2, 1
4, 1
3, 3
1, 1
2, 5
5, 2
4, 3
5, 3
1, 2
0, 6
1, 3
11, 4
2, 2
2, 5
4, 1
1, 2
2, 0
6, 2
3, 1
1, 4
1, 1
2, 3
4, 4
2, 3
3, 7
1, 5
2, 3
3, 3
3, 0
4, 3
2, 2
4, 1
3, 3
3, 4
2, 1
6, 8
0, 3
1, 1
0, 1
7, 5
4, 0
1, 4
0, 1
2, 1
1, 3
1, 3
0, 3
2, 1
2, 1
4, 2
1, 1
1, 3
3, 3
5, 2
2, 0
0, 3
2, 2
2, 2
3, 4
2, 2
3, 4
2, 2
4, 1
2, 4
1, 3
0, 3
2, 1
0, 0
4, 1
3, 2
2, 3
2, 2
4, 3
4, 4
2, 1
3, 5
2, 3
1, 2
3, 0
3, 1
2, 3
4, 5
4, 1
2, 1
7, 6
2, 1
3, 2
2, 1
4, 0
4, 2
3, 2
2, 2
1, 1
2, 4
2, 2
2, 2
1, 3
1, 2
1, 2
1, 1
3, 0
1, 2
0, 2
4, 2
3, 0
2, 2
2, 3
1, 3
2, 1
4, 2
1, 2
3, 5
0, 0
2, 2
4, 0
3, 2
2, 0
2, 1
1, 2
0, 0
0, 0
1, 1
3, 1
1, 0
2, 1
1, 1
0, 1
1, 3
4, 4
1, 1
2, 2
1, 1
0, 3
1, 0
2, 0
4, 0
0, 1
0, 1
0, 0
2, 1
1, 1
1, 1
2, 3
0, 0
1, 0
0, 0
2, 1
2, 4
0, 0
1, 2
2, 1
2, 0
1, 0
3, 0
1, 0
1, 0
1, 0
4, 1
2, 2
1, 0
2, 0
1, 1
0, 0
1, 2
2, 2
0, 1
1, 0
1, 1
2, 1
0, 0
0, 0
1, 0
1, 0
1, 0
1, 0
1, 0
2, 1
0, 1
1, 0
0, 1
1, 0
0, 1
1, 0
0, 1
0, 0
0, 0
0, 1
1, 2
1, 1
0, 2
0, 0
0, 0
0, 1
0, 0
0, 1
1, 1
1, 1
2, 1
0, 0
0, 2
1, 0
0, 0
0, 0
0, 0
0, 0
1, 2
0, 2
1, 0
0, 0
1, 3
0, 1
1, 1
1, 1
1, 2
1, 1
4, 0
0, 0
0, 1
0, 0
0, 2
1, 0
0, 3
2, 0
1, 0
0, 1
2, 0
1, 1
1, 0
0, 2
0, 0
0, 0
0, 1
0, 0
1, 0
0, 0
1, 0
0, 1
0, 0
1, 0
2, 0
1, 0
0, 0
0, 0
1, 0
0, 0
0, 0
0, 2
0, 0
0, 0
0, 1
2, 0
0, 1
0, 0
0, 0
0, 0
1, 0
0, 2
0, 0
1, 0
0, 1
1, 0
0, 0
1, 0
0, 0
0, 1
0, 0
1, 0
0, 0
1, 0
0, 1
0, 0
0, 0
1, 0
1, 0
0, 0
1, 0
0, 0
0, 0
0, 0
0, 1
1, 0
1, 0
0, 0
0, 0
0, 0
0, 0
0, 0
0, 0
1, 1
0, 0
0, 0
0, 1
1, 0
0, 1
0, 0
0, 0
0, 0
0, 0
1, 0
0, 0
0, 0
0, 0
1, 0
1, 0
0, 0
0, 0
0, 0
0, 0
0, 0
0, 0
1, 0
0, 0
1, 0
0, 0
0, 0
0, 0
1, 0
1, 0
0, 0
1, 1
0, 0
0, 0
0, 0
0, 0
0, 0
0, 0
0, 0
0, 0
1, 1
1, 0
0, 0
0, 0
2, 0
0, 0
0, 0
0, 0
0, 0
0, 1
0, 0
1, 0
0, 0
0, 1
0, 1
0, 0
1, 0
1, 0
0, 0
0, 0
0, 0
0, 0
0, 0
0, 0
0, 0
0, 1
0, 0
1, 1
0, 0
1, 0
0, 1
0, 0
0, 0
0, 0
0, 0
0, 0
0, 1
1, 0
0, 0
0, 0
0, 0
0, 0
0, 0
0, 0
0, 0
0, 0
0, 0
0, 0
0, 0
0, 0
0, 0
0, 1
0, 0
0, 0
0, 0
0, 0
0, 1
0, 0
0, 0
0, 0
1, 0
0, 0
0, 1
0, 0
0, 0
0, 0
1, 0
0, 0
1, 0
0, 1
0, 0
0, 0
0, 1
0, 0
0, 0
0, 0
0, 0
0, 0
0, 0
0, 1
0, 0
1, 0
0, 0
1, 1
0, 0
1, 0
0, 0
0, 0
0, 0
0, 0
0, 0
0, 0
0, 0
0, 0
0, 0
0, 0
0, 0
0, 0
0, 0
0, 0
0, 0
0, 0
0, 0
0, 0
0, 0
0, 0
0, 0
0, 1
0, 0
0, 0
0, 0
0, 0
0, 0
0, 0
0, 1
0, 1
0, 0
0, 0
0, 0
0, 0
0, 1
0, 0
1, 0
0, 0
0, 0
0, 1
0, 0
0, 0
0, 0
0, 0
1, 0
0, 0
0, 0
0, 0
0, 0
0, 0
0, 0
0, 0
0, 0
0, 0
1, 0
0, 0
0, 0
0, 0
0, 0
0, 0
0, 0
0, 0
0, 0
0, 0
0, 1
0, 0
0, 0
0, 0
0, 0
0, 0
0, 0
0, 0
0, 1
0, 0
0, 0
0, 1
0, 0
0, 0
0, 0
0, 0
0, 0
0, 0
0, 0
0, 0
0, 0
0, 0
0, 0
0, 0
0, 0
0, 0
0, 1
0, 0
0, 0
0, 0
0, 0
0, 0
0, 0
0, 0
0, 0
0, 0
0, 0
0, 0
0, 0
0, 0
0, 0
0, 0
0, 0
0, 0
0, 0
1, 0
0, 0
0, 0
0, 0
0, 0
0, 0
0, 0
0, 0
0, 0
0, 0
0, 0
0, 0
0, 0
0, 0
0, 0
0, 0
0, 0
0, 0
0, 0
0, 0
0, 0
0, 0
0, 0
0, 0
0, 0
0, 0
0, 0
0, 0
0, 0
0, 0
0, 0
0, 0
0, 0
0, 0
0, 0
0, 0
0, 0
0, 0
0, 0
0, 0
0, 0
0, 0
0, 0
0, 0
0, 0
0, 0
0, 0
0, 0
0, 0
0, 0
0, 0
0, 0
0, 0
0, 0
0, 0
0, 0
0, 0
0, 0
0, 0
0, 0
0, 0
0, 0
0, 0
0, 0
0, 0
0, 0
0, 0
0, 0
0, 0
0, 0
0, 0
0, 0
0, 0
0, 0
0, 0
0, 0
0, 0
0, 0
0, 0
0, 0
0, 0
0, 0
0, 0
0, 0
0, 0
0, 0
0, 0
0, 0
0, 0
0, 0
0, 0
0, 0
1, 0
0, 0
0, 0
0, 0
0, 0
0, 0
0, 0
0, 0
0, 0
0, 0
0, 0
0, 0
0, 0
0, 0
0, 0
0, 0
0, 0
0, 0
0, 0
0, 0
0, 0
0, 0
0, 0
0, 0
0, 0
0, 0
0, 0
0, 0
0, 0
0, 0
0, 0
0, 0
0, 0
0, 0
0, 0
0, 0
0, 0
0, 0
0, 0
0, 0
0, 0
0, 0
0, 0
0, 0
0, 0
0, 0
0, 0
0, 0
0, 0
0, 0
0, 0
0, 0
0, 0
0, 0
0, 0
0, 0
0, 0
0, 0
0, 0
0, 0
0, 0
0, 0
0, 0
0, 0
0, 0
0, 0
0, 0
0, 0
0, 0
0, 0
0, 0
0, 0
0, 0
0, 0
0, 0
0, 0
0, 0
0, 0
0, 0
0, 0
0, 0
0, 0
0, 0
0, 0
0, 0
0, 0
0, 0
0, 0
0, 0
0, 0
0, 0
0, 0
0, 0
0, 0
0, 0
0, 0
0, 0
0, 0
0, 0
0, 0
0, 0
0, 0
0, 0
0, 0
0, 0
0, 0
0, 0
0, 0
0, 0
0, 0
0, 0
0, 0
0, 0
0, 0
0, 0
0, 0
0, 0
0, 0
0, 0
0, 0
0, 0
0, 0
0, 0
0, 0
0, 0
0, 0
0, 0
0, 0
0, 0
0, 0
0, 0
0, 0
0, 0
0, 0
0, 0
0, 0
0, 0
0, 0
0, 0
0, 0
0, 0
0, 0
0, 0
0, 0
0, 0
0, 0
0, 0
0, 0
0, 0
0, 0
0, 0
0, 0
0, 0
0, 0
0, 0
0, 0
0, 0
0, 0
0, 0
0, 0
0, 0
0, 0
0, 0
0, 0
0, 0
0, 0
0, 0
0, 0
0, 0
0, 0
0, 0
0, 0
0, 0
0, 0
0, 0
0, 0
0, 0
0, 0
0, 0
0, 0
0, 0
0, 0
0, 0
0, 0
0, 0
0, 0
0, 0
0, 0
0, 0
0, 0
0, 0
0, 0
0, 0
0, 0
0, 0
0, 0
0, 0
0, 0
0, 0
0, 0
0, 0
0, 0
0, 0
0, 0
0, 0
0, 0
0, 0
0, 0
0, 0
0, 0
0, 0
0, 0
0, 0
0, 0
0, 0
0, 0
0, 0
0, 0
0, 0
0, 0
0, 0
0, 0
0, 0
0, 0
0, 0
0, 0
0, 0
0, 0
0, 0
0, 0
0, 0
0, 0
0, 0
0, 0
0, 0
0, 0
0, 0
0, 0
0, 0
0, 0
0, 0
0, 0
0, 0
0, 0
0, 0
0, 0
0, 0
0, 0
0, 0
0, 0
0, 0
0, 0
0, 0
0, 0
0, 0
0, 0
0, 0
0, 0
0, 0
0, 0
0, 0
0, 0
0, 0
0, 0
0, 0
0, 0
0, 0
0, 0
0, 0
0, 0
0, 0
0, 0
0, 0
0, 0
0, 0
0, 0
0, 0
0, 0
0, 0
0, 0
0, 0
0, 0
0, 0
0, 0
0, 0
0, 0
0, 0
0, 0
0, 0
0, 0
0, 0
0, 0
0, 0
0, 0
0, 0
#ENDOFDATA     end of spectrum data