File: host_upload/02-11-2024/rqc/uplink1/ps__0567_0717304816_000rfs_shot_138.msa
#FORMAT      : EMSA/MAS spectral data file
#VERSION     : TC202v2.0 PIXL
#TITLE       : Novarupta (sol567) subset1
#DATE        : 02-11-2024      Date in the format DD-MMM-YYYY, for example 07-JUL-2010
#TIME        :             The time of day at which the spectrum was recorded, in 24-hour format
#OWNER       : PIXL Flight Model       (PIXL will use this to indicate which instrument took the data.)
#NPOINTS     : 4096     Number of data points in the spectrum (This can be zero for configuration only files)
#NCOLUMNS    : 2     Number of data columns in the spectrum (This can be zero for configuration only files)
#XUNITS      : eV
#YUNITS      : COUNTS
#DATATYPE    : YY
#XPERCHAN    : 7.862, 7.881   eV per channel (separate by commas if more than one detector)
#OFFSET      : 18.5, -22.4         eV of first channel  (separate by commas if more than one detector
#SIGNALTYPE  : XRF
#YP_TEMP     : -0.17
#LIVETIME    : 8.83576, 8.63312   seconds (separate by commas if more than one detector)
#REALTIME    : 10, 10.0   seconds (separate by commas if more than one detector)
#SPECTRUM    : start of spectrum data
0, 0
0, 0
0, 0
0, 0
0, 0
0, 0
0, 0
0, 0
0, 0
0, 0
0, 0
0, 0
0, 0
0, 0
0, 0
0, 0
0, 0
0, 0
0, 0
0, 0
0, 0
0, 0
0, 0
0, 0
0, 0
0, 0
0, 0
0, 0
0, 0
0, 0
0, 0
0, 0
0, 2
0, 1
0, 1
1, 1
2, 4
5, 1
1, 5
5, 1
7, 4
2, 3
3, 2
8, 6
4, 4
6, 5
3, 3
3, 6
1, 4
5, 4
8, 4
9, 6
7, 15
13, 22
23, 18
13, 23
12, 15
15, 10
9, 5
9, 18
14, 15
24, 21
35, 25
37, 54
58, 37
48, 52
41, 38
37, 35
28, 38
53, 82
123, 112
168, 219
300, 316
387, 475
443, 524
480, 527
434, 462
316, 313
224, 200
147, 132
89, 80
50, 49
30, 38
31, 31
35, 34
29, 41
34, 48
33, 35
33, 32
21, 19
20, 15
23, 18
28, 22
57, 42
80, 101
114, 162
184, 233
254, 261
282, 336
287, 318
263, 269
205, 220
134, 147
94, 100
75, 58
56, 48
56, 66
60, 65
102, 96
125, 161
155, 204
223, 234
227, 248
223, 216
181, 207
179, 177
144, 164
112, 118
98, 90
94, 77
69, 61
63, 88
73, 82
43, 53
37, 50
31, 31
29, 29
21, 18
23, 14
10, 17
13, 10
13, 8
4, 7
6, 4
5, 11
6, 14
5, 14
7, 14
18, 21
27, 26
22, 30
23, 35
33, 33
23, 21
17, 16
11, 12
14, 13
15, 12
5, 8
19, 11
24, 34
59, 65
87, 131
165, 176
211, 245
314, 315
329, 371
370, 379
329, 373
308, 297
252, 245
141, 169
92, 82
39, 58
30, 30
21, 26
22, 30
39, 44
34, 39
43, 62
54, 60
66, 57
72, 63
46, 31
33, 29
20, 19
15, 15
14, 6
6, 7
12, 7
5, 2
8, 10
7, 7
13, 8
9, 6
13, 8
15, 24
23, 21
24, 44
27, 55
47, 71
56, 69
55, 50
58, 66
52, 64
32, 43
31, 35
26, 33
39, 18
19, 15
17, 20
14, 11
15, 10
11, 15
18, 14
8, 11
23, 9
15, 17
20, 16
17, 22
22, 27
25, 17
14, 17
9, 16
6, 11
18, 18
18, 12
9, 11
11, 8
13, 12
11, 11
10, 15
10, 7
13, 19
13, 19
21, 28
17, 18
19, 14
28, 27
21, 28
28, 34
23, 33
32, 29
26, 24
24, 17
19, 17
16, 11
17, 10
9, 18
17, 16
11, 9
11, 15
12, 13
16, 15
15, 21
16, 26
25, 22
41, 30
42, 44
46, 45
49, 45
53, 42
45, 41
26, 35
32, 30
23, 21
25, 24
15, 20
21, 19
15, 13
14, 24
28, 36
54, 53
82, 107
132, 183
245, 316
367, 521
592, 791
924, 1093
1206, 1483
1475, 1711
1626, 1830
1703, 1915
1520, 1603
1325, 1422
1060, 1003
731, 695
507, 517
331, 299
201, 162
98, 98
55, 56
34, 37
19, 16
20, 22
16, 19
13, 18
15, 20
16, 21
22, 24
18, 35
24, 28
43, 54
53, 77
82, 125
116, 148
170, 183
222, 223
227, 291
260, 271
266, 272
248, 246
186, 182
168, 176
143, 100
92, 77
56, 48
30, 25
21, 12
21, 11
12, 12
4, 7
5, 6
12, 12
8, 14
11, 10
11, 10
12, 10
15, 11
10, 15
7, 13
8, 5
10, 6
9, 6
6, 8
8, 3
9, 4
11, 8
2, 12
9, 10
8, 5
4, 7
11, 10
9, 1
5, 13
5, 8
4, 4
6, 3
9, 7
7, 9
3, 4
8, 4
6, 7
8, 12
5, 6
6, 4
9, 3
6, 7
11, 12
8, 8
6, 12
10, 5
8, 6
8, 4
4, 9
3, 7
4, 8
5, 3
6, 11
7, 11
7, 7
7, 9
11, 11
10, 8
9, 9
10, 8
6, 9
16, 7
10, 12
13, 8
12, 8
8, 9
7, 12
6, 3
6, 4
4, 9
5, 4
6, 6
2, 5
2, 3
4, 5
5, 7
3, 4
4, 3
8, 7
4, 6
7, 4
5, 10
3, 5
7, 10
5, 7
1, 6
7, 6
2, 4
3, 2
6, 3
6, 4
2, 5
7, 8
8, 1
7, 5
2, 9
3, 5
6, 10
5, 6
4, 2
5, 5
5, 3
4, 7
2, 5
3, 6
4, 9
5, 7
8, 6
4, 2
4, 5
3, 3
5, 2
7, 3
5, 9
3, 6
6, 5
4, 12
3, 6
4, 4
4, 2
4, 1
2, 2
10, 3
3, 3
1, 4
1, 4
2, 4
4, 2
8, 2
2, 8
4, 2
7, 3
4, 2
4, 6
5, 6
1, 4
4, 3
3, 3
5, 3
3, 2
3, 5
2, 4
7, 1
2, 3
3, 3
6, 5
2, 3
0, 6
3, 5
3, 6
4, 4
5, 2
3, 4
4, 4
3, 1
5, 4
3, 1
5, 3
2, 4
3, 4
2, 1
3, 1
4, 3
5, 1
6, 2
3, 2
1, 2
2, 1
3, 2
1, 3
3, 5
7, 1
2, 9
4, 2
4, 3
2, 6
1, 1
4, 1
4, 2
2, 4
0, 2
2, 3
5, 4
3, 1
4, 4
1, 4
3, 2
1, 3
4, 5
1, 2
2, 4
5, 3
0, 2
1, 4
2, 2
2, 0
3, 2
1, 2
2, 3
1, 3
2, 4
4, 2
0, 3
3, 3
4, 2
3, 2
4, 4
4, 2
0, 2
1, 1
4, 2
2, 6
2, 1
0, 0
2, 1
3, 6
2, 1
6, 1
0, 1
2, 5
4, 0
0, 2
1, 3
2, 2
2, 2
4, 2
1, 2
3, 2
3, 2
5, 2
3, 1
1, 2
3, 4
0, 1
1, 4
4, 3
3, 4
2, 3
5, 3
2, 4
2, 2
4, 1
5, 5
2, 2
1, 1
0, 2
0, 5
0, 1
1, 3
3, 2
1, 3
6, 0
1, 2
3, 0
2, 1
3, 0
2, 2
3, 2
1, 2
1, 1
3, 1
0, 0
2, 1
0, 0
1, 3
0, 1
3, 3
1, 1
4, 2
5, 1
2, 2
1, 1
1, 0
0, 0
0, 1
0, 2
0, 2
0, 2
1, 0
3, 0
4, 1
0, 0
0, 0
2, 1
2, 2
0, 0
3, 1
0, 0
1, 0
0, 0
0, 1
2, 0
0, 0
2, 1
0, 2
1, 1
0, 1
2, 0
2, 0
1, 2
1, 2
2, 2
1, 2
1, 0
0, 2
3, 1
2, 1
2, 2
0, 0
0, 0
2, 1
1, 1
1, 1
0, 1
1, 0
0, 0
1, 5
0, 0
1, 1
1, 2
2, 0
1, 2
2, 0
1, 1
1, 0
1, 1
1, 1
0, 1
0, 1
2, 0
0, 1
0, 0
0, 3
0, 1
0, 1
2, 0
1, 0
0, 1
2, 1
2, 1
1, 0
0, 0
0, 1
0, 1
0, 1
0, 1
0, 3
1, 0
2, 0
0, 0
1, 0
1, 2
0, 0
1, 0
1, 1
0, 0
1, 2
1, 1
1, 0
2, 0
1, 0
0, 0
0, 0
0, 0
0, 0
0, 1
0, 0
0, 0
0, 0
1, 1
0, 0
1, 1
0, 0
1, 1
1, 0
0, 0
0, 0
0, 1
0, 0
0, 1
0, 0
0, 1
0, 0
0, 0
0, 1
0, 0
1, 1
1, 0
0, 0
2, 1
0, 0
0, 1
0, 0
0, 2
0, 0
0, 0
0, 0
0, 0
0, 0
1, 0
0, 1
0, 0
1, 0
0, 0
0, 0
0, 0
0, 0
0, 1
0, 1
0, 0
0, 0
0, 0
0, 0
1, 1
1, 0
0, 0
0, 0
0, 0
1, 0
0, 0
0, 0
0, 0
0, 0
0, 0
0, 0
2, 0
0, 0
0, 1
0, 2
0, 0
1, 1
2, 2
0, 0
0, 0
0, 0
1, 0
0, 0
1, 0
0, 0
1, 0
0, 0
0, 0
0, 1
0, 0
0, 0
0, 0
0, 0
0, 0
0, 0
0, 0
0, 1
0, 0
0, 1
3, 0
0, 0
0, 0
0, 0
0, 0
0, 0
0, 0
0, 0
1, 1
0, 1
1, 0
0, 2
2, 0
0, 0
1, 0
0, 0
2, 0
1, 0
0, 0
0, 0
0, 1
0, 0
1, 0
1, 0
0, 0
0, 0
0, 0
0, 0
0, 0
0, 0
0, 0
0, 0
0, 0
0, 0
0, 0
0, 0
1, 0
0, 1
1, 0
0, 0
0, 0
0, 0
1, 1
0, 0
0, 0
0, 0
0, 0
0, 0
0, 0
0, 0
0, 0
0, 1
0, 0
0, 0
0, 0
0, 0
0, 0
0, 0
0, 0
1, 0
2, 0
0, 0
0, 1
0, 0
0, 0
0, 0
0, 0
0, 0
0, 0
1, 0
0, 0
0, 0
0, 0
0, 0
0, 0
0, 0
1, 0
0, 0
0, 0
0, 0
1, 0
0, 0
0, 2
0, 0
0, 0
1, 0
0, 0
0, 0
0, 0
1, 0
0, 0
0, 1
0, 0
0, 0
0, 0
0, 0
1, 0
1, 0
0, 0
0, 0
0, 1
0, 0
0, 0
0, 0
0, 0
0, 0
0, 0
0, 0
0, 0
0, 0
0, 0
0, 0
0, 0
0, 0
0, 0
0, 0
0, 0
0, 0
0, 0
0, 0
0, 0
0, 0
0, 0
0, 1
0, 0
0, 0
0, 0
0, 0
0, 0
0, 0
0, 0
0, 0
1, 0
0, 0
0, 0
0, 0
1, 0
0, 0
0, 0
0, 0
0, 0
0, 0
0, 0
0, 0
0, 0
0, 0
0, 0
0, 0
0, 0
0, 0
0, 0
0, 0
1, 0
0, 0
0, 0
0, 0
0, 0
0, 0
0, 1
0, 0
0, 1
0, 0
0, 0
0, 0
0, 0
0, 0
0, 1
0, 0
0, 0
0, 0
0, 0
0, 0
0, 0
0, 0
0, 0
0, 0
0, 0
0, 0
0, 0
0, 0
0, 0
0, 0
0, 0
0, 0
0, 0
0, 0
0, 0
0, 0
0, 1
0, 0
0, 0
0, 0
0, 0
0, 0
0, 0
0, 0
0, 0
0, 0
0, 0
0, 0
0, 0
0, 0
0, 0
0, 0
0, 0
1, 0
0, 0
0, 0
0, 1
0, 0
0, 0
0, 0
0, 0
0, 0
0, 0
0, 0
0, 0
0, 0
0, 0
0, 0
0, 0
0, 0
0, 0
0, 0
0, 0
0, 0
0, 0
0, 0
0, 0
0, 0
0, 0
0, 0
0, 0
0, 0
0, 0
0, 0
0, 0
0, 0
0, 0
0, 0
0, 0
0, 0
0, 0
0, 0
0, 0
0, 0
0, 0
0, 0
0, 0
0, 0
0, 0
0, 0
0, 0
0, 0
0, 0
0, 0
0, 0
0, 0
0, 0
0, 0
0, 0
0, 0
0, 0
0, 0
0, 0
0, 0
0, 0
0, 0
0, 0
0, 0
0, 0
0, 0
0, 0
0, 0
0, 0
0, 0
0, 0
0, 0
0, 0
0, 0
0, 0
0, 0
0, 0
0, 0
0, 0
0, 0
0, 0
0, 0
0, 0
0, 0
0, 0
0, 0
0, 0
0, 0
0, 0
0, 0
0, 0
0, 0
0, 0
0, 0
0, 0
0, 0
0, 0
0, 0
0, 0
0, 0
0, 0
0, 0
0, 0
0, 0
0, 0
0, 0
0, 0
0, 0
0, 0
0, 0
0, 0
0, 0
0, 0
0, 0
0, 0
0, 0
0, 0
0, 0
0, 0
0, 0
0, 0
0, 0
0, 0
0, 0
0, 0
0, 0
0, 0
0, 0
0, 0
0, 0
0, 0
0, 0
0, 0
0, 0
0, 0
0, 0
0, 0
0, 0
0, 0
0, 0
0, 0
0, 0
0, 0
0, 0
0, 0
0, 0
0, 0
0, 0
0, 0
0, 0
0, 0
0, 0
0, 0
0, 0
0, 0
0, 0
0, 0
0, 0
0, 0
0, 0
0, 0
0, 0
0, 0
0, 0
0, 0
0, 0
0, 0
0, 0
0, 0
0, 0
0, 0
0, 0
0, 0
0, 0
0, 0
0, 0
0, 0
0, 0
0, 0
0, 0
0, 0
0, 0
0, 0
0, 0
0, 0
0, 0
0, 0
0, 0
0, 0
0, 0
0, 0
0, 0
0, 0
0, 0
0, 0
0, 0
0, 0
0, 0
0, 0
0, 0
0, 0
0, 0
0, 0
0, 0
0, 0
0, 0
0, 0
0, 0
0, 0
0, 0
0, 0
0, 0
0, 0
0, 0
0, 0
0, 0
0, 0
0, 0
0, 0
0, 0
0, 0
0, 0
0, 0
0, 0
0, 0
0, 0
0, 0
0, 0
0, 0
0, 0
0, 0
0, 0
0, 0
0, 0
0, 0
0, 0
0, 0
0, 0
0, 0
0, 0
0, 0
0, 0
0, 0
0, 0
0, 0
0, 0
0, 0
0, 0
0, 0
0, 0
0, 0
0, 0
0, 0
0, 0
0, 0
0, 0
0, 0
0, 0
0, 0
0, 0
0, 0
0, 0
0, 0
0, 0
0, 0
0, 0
0, 0
0, 0
0, 0
0, 0
0, 0
0, 0
0, 0
0, 0
0, 0
0, 0
0, 0
0, 0
0, 0
0, 0
0, 0
0, 0
0, 0
0, 0
0, 0
0, 0
0, 0
0, 0
0, 0
0, 0
0, 0
0, 0
0, 0
0, 0
0, 0
0, 0
0, 0
0, 0
0, 0
0, 0
0, 0
0, 0
0, 0
0, 0
0, 0
0, 0
0, 0
0, 0
0, 0
0, 0
0, 0
0, 0
0, 0
0, 0
0, 0
0, 0
0, 0
0, 0
0, 0
0, 0
0, 0
0, 0
0, 0
0, 0
0, 0
0, 0
0, 0
0, 0
0, 0
0, 0
0, 0
0, 0
0, 0
0, 0
0, 0
0, 0
0, 0
0, 0
0, 0
0, 0
0, 0
0, 0
0, 0
0, 0
0, 0
0, 0
0, 0
0, 0
0, 0
0, 0
0, 0
0, 0
0, 0
0, 0
0, 0
0, 0
0, 0
0, 0
0, 0
0, 0
0, 0
0, 0
0, 0
0, 0
0, 0
0, 0
0, 0
0, 0
0, 0
0, 0
0, 0
0, 0
0, 0
0, 0
0, 0
0, 0
0, 0
0, 0
0, 0
0, 0
0, 0
0, 0
0, 0
0, 0
0, 0
0, 0
0, 0
0, 0
0, 0
0, 0
0, 0
0, 0
0, 0
0, 0
0, 0
0, 0
0, 0
0, 0
0, 0
0, 0
0, 0
#ENDOFDATA     end of spectrum data