File: host_upload/02-11-2024/rqc/uplink1/ps__0567_0717304816_000rfs_shot_48.msa
#FORMAT      : EMSA/MAS spectral data file
#VERSION     : TC202v2.0 PIXL
#TITLE       : Novarupta (sol567) subset1
#DATE        : 02-11-2024      Date in the format DD-MMM-YYYY, for example 07-JUL-2010
#TIME        :             The time of day at which the spectrum was recorded, in 24-hour format
#OWNER       : PIXL Flight Model       (PIXL will use this to indicate which instrument took the data.)
#NPOINTS     : 4096     Number of data points in the spectrum (This can be zero for configuration only files)
#NCOLUMNS    : 2     Number of data columns in the spectrum (This can be zero for configuration only files)
#XUNITS      : eV
#YUNITS      : COUNTS
#DATATYPE    : YY
#XPERCHAN    : 7.862, 7.881   eV per channel (separate by commas if more than one detector)
#OFFSET      : 18.5, -22.4         eV of first channel  (separate by commas if more than one detector
#SIGNALTYPE  : XRF
#YP_TEMP     : -2.8
#LIVETIME    : 8.83166, 8.64771   seconds (separate by commas if more than one detector)
#REALTIME    : 10, 10.0   seconds (separate by commas if more than one detector)
#SPECTRUM    : start of spectrum data
0, 0
0, 0
0, 0
0, 0
0, 0
0, 0
0, 0
0, 0
0, 0
0, 0
0, 0
0, 0
0, 0
0, 0
0, 0
0, 0
0, 0
0, 0
0, 0
0, 0
0, 0
0, 0
0, 0
0, 0
0, 0
0, 0
0, 0
0, 0
0, 0
0, 0
0, 0
0, 0
2, 2
0, 1
1, 1
1, 2
2, 1
3, 2
0, 2
2, 1
2, 7
6, 1
0, 2
3, 3
2, 3
6, 7
2, 4
4, 0
3, 5
6, 4
4, 6
13, 10
16, 10
12, 10
23, 18
14, 15
12, 8
7, 10
7, 14
12, 9
20, 18
36, 28
40, 37
50, 36
47, 47
57, 50
38, 40
32, 38
50, 49
78, 87
132, 129
221, 220
316, 347
460, 425
496, 550
483, 498
431, 438
345, 331
195, 213
144, 131
69, 86
55, 49
33, 43
32, 52
33, 36
33, 34
38, 34
29, 32
30, 35
25, 15
22, 19
21, 18
37, 26
66, 57
102, 95
149, 178
236, 233
298, 316
291, 325
326, 306
277, 301
197, 207
163, 163
102, 114
92, 73
59, 54
53, 59
87, 84
97, 111
142, 164
163, 192
253, 206
215, 243
235, 219
207, 176
178, 168
157, 115
116, 92
94, 101
67, 64
65, 88
75, 67
75, 73
62, 45
33, 49
37, 27
27, 26
18, 35
25, 18
20, 13
18, 8
8, 3
8, 9
8, 9
11, 6
15, 6
6, 13
13, 21
18, 25
24, 28
26, 28
34, 30
29, 34
23, 25
23, 23
20, 13
15, 10
12, 12
18, 14
27, 22
26, 45
75, 71
128, 131
164, 191
249, 244
305, 340
348, 447
387, 413
364, 380
310, 289
215, 224
150, 134
106, 95
65, 63
45, 35
29, 35
33, 36
36, 53
56, 57
50, 60
55, 66
66, 62
49, 44
34, 39
35, 24
25, 30
20, 11
13, 15
13, 10
5, 7
9, 12
10, 5
7, 10
12, 13
12, 4
14, 13
19, 20
35, 40
30, 31
48, 52
63, 53
63, 71
60, 55
55, 57
59, 46
37, 40
27, 30
34, 19
14, 27
13, 20
13, 12
20, 20
14, 7
18, 16
13, 12
17, 14
19, 24
8, 14
18, 23
20, 23
13, 7
16, 21
12, 13
13, 15
6, 16
10, 9
10, 6
9, 9
10, 6
17, 10
7, 13
6, 7
11, 13
7, 13
19, 14
18, 17
24, 22
35, 22
27, 35
34, 35
20, 29
33, 21
38, 25
18, 29
21, 15
11, 16
13, 22
16, 14
11, 15
9, 10
11, 13
13, 15
16, 17
12, 19
19, 18
28, 36
39, 29
34, 41
38, 49
45, 45
51, 56
46, 44
37, 36
45, 41
33, 29
32, 31
24, 24
26, 25
20, 16
11, 19
34, 24
36, 50
59, 77
106, 134
206, 206
285, 388
562, 600
775, 926
1106, 1231
1385, 1525
1593, 1639
1692, 1734
1704, 1752
1498, 1504
1346, 1197
961, 840
700, 644
460, 396
271, 238
158, 128
81, 68
57, 46
23, 21
22, 20
21, 11
14, 9
20, 14
25, 20
19, 19
24, 21
36, 29
43, 41
62, 64
76, 93
128, 130
132, 146
218, 200
230, 239
258, 278
285, 289
236, 252
234, 212
185, 197
150, 137
96, 93
71, 56
40, 42
19, 21
21, 17
12, 14
6, 5
10, 7
11, 10
10, 17
12, 13
6, 19
13, 18
13, 14
13, 12
14, 10
10, 8
9, 17
9, 7
5, 3
8, 2
6, 3
11, 3
6, 8
2, 4
11, 7
5, 9
6, 9
5, 5
7, 11
5, 6
8, 14
4, 8
6, 11
4, 4
5, 7
8, 7
15, 8
6, 5
10, 6
9, 4
8, 3
5, 6
10, 9
8, 5
5, 10
10, 10
9, 5
8, 1
11, 9
9, 5
5, 8
4, 6
4, 6
9, 5
7, 8
4, 5
6, 11
9, 4
2, 7
8, 11
9, 10
10, 11
16, 12
7, 8
2, 13
6, 7
2, 11
10, 9
8, 7
7, 4
9, 6
8, 6
4, 11
3, 11
10, 5
10, 3
9, 6
8, 9
8, 4
3, 4
3, 5
6, 5
3, 6
3, 4
5, 9
5, 6
6, 9
4, 4
7, 10
4, 8
7, 10
3, 2
6, 4
3, 7
6, 8
8, 3
4, 6
3, 6
2, 9
4, 5
7, 5
3, 7
4, 5
5, 8
7, 5
7, 5
6, 6
6, 4
8, 3
10, 6
6, 5
1, 4
3, 4
2, 3
5, 3
3, 6
3, 7
6, 5
1, 5
4, 4
4, 5
3, 6
2, 2
5, 4
3, 2
7, 8
3, 4
5, 1
5, 5
0, 6
5, 5
3, 7
0, 2
1, 6
4, 3
4, 5
3, 3
1, 0
2, 4
4, 5
7, 1
4, 3
2, 6
4, 3
3, 2
1, 3
9, 1
4, 1
3, 3
3, 2
2, 2
6, 5
2, 1
2, 1
3, 2
3, 5
3, 5
5, 2
4, 2
2, 4
3, 5
3, 3
1, 4
3, 4
4, 0
1, 1
0, 4
2, 6
3, 3
5, 4
2, 2
4, 5
2, 1
0, 5
2, 2
7, 0
3, 4
2, 1
2, 3
2, 2
5, 0
3, 5
4, 3
1, 1
2, 5
3, 5
4, 3
1, 5
2, 2
0, 1
1, 2
3, 2
4, 5
3, 0
4, 6
3, 4
1, 3
3, 2
2, 3
5, 3
0, 3
2, 1
2, 2
3, 2
4, 2
2, 4
0, 2
1, 3
2, 2
3, 5
4, 3
0, 3
1, 2
0, 0
6, 1
4, 2
0, 2
5, 1
2, 2
3, 6
1, 3
1, 7
0, 0
3, 1
1, 2
1, 4
3, 0
1, 1
2, 2
2, 4
4, 1
6, 2
2, 1
4, 2
6, 3
2, 3
3, 4
4, 1
0, 3
3, 3
2, 2
0, 1
1, 2
2, 3
0, 0
3, 1
1, 1
1, 1
1, 3
1, 0
2, 0
1, 1
4, 2
1, 1
1, 1
1, 1
3, 3
1, 2
3, 1
3, 1
1, 1
3, 0
0, 1
1, 1
1, 0
0, 1
2, 2
2, 0
4, 1
1, 2
4, 0
2, 0
2, 1
2, 2
1, 0
5, 3
0, 3
2, 1
0, 2
1, 0
2, 0
0, 0
2, 1
0, 0
2, 0
1, 0
1, 0
1, 0
2, 0
0, 1
2, 1
0, 2
3, 0
1, 1
2, 0
2, 0
3, 0
0, 0
0, 2
1, 1
0, 2
0, 1
1, 2
1, 0
0, 0
1, 1
1, 1
0, 0
1, 0
1, 1
0, 0
0, 1
0, 1
3, 0
1, 2
1, 0
0, 0
0, 0
2, 1
1, 0
4, 1
0, 2
0, 1
2, 0
1, 1
0, 0
0, 0
0, 2
0, 1
0, 1
3, 1
2, 2
1, 0
0, 0
1, 1
0, 0
1, 0
1, 0
0, 1
2, 1
2, 1
0, 0
0, 0
1, 3
2, 0
2, 1
1, 0
1, 0
0, 0
2, 0
1, 0
1, 2
0, 0
0, 0
1, 0
1, 0
2, 1
2, 0
0, 3
1, 3
2, 1
0, 0
1, 0
1, 0
0, 0
0, 0
0, 0
0, 1
0, 1
0, 2
2, 0
1, 1
0, 0
1, 1
0, 1
1, 0
1, 0
0, 0
0, 1
0, 0
0, 0
0, 1
0, 0
0, 0
1, 0
0, 3
0, 2
0, 0
1, 1
0, 0
0, 1
0, 0
1, 0
0, 0
0, 0
0, 0
0, 0
0, 0
0, 1
0, 1
0, 0
0, 0
0, 0
0, 2
0, 0
0, 0
1, 0
0, 0
2, 0
0, 2
1, 0
1, 0
0, 2
1, 1
0, 0
0, 2
1, 1
1, 1
0, 1
0, 1
1, 1
0, 0
0, 0
1, 0
0, 0
0, 0
0, 0
2, 0
0, 0
0, 1
0, 1
1, 1
0, 0
0, 0
0, 0
0, 0
0, 0
0, 1
0, 0
1, 0
0, 1
1, 0
1, 0
0, 0
1, 0
0, 0
1, 0
0, 0
0, 1
0, 0
1, 0
0, 0
0, 0
0, 1
0, 1
0, 0
0, 0
0, 0
0, 0
0, 1
0, 0
0, 1
0, 1
0, 0
0, 0
0, 2
2, 2
0, 0
0, 0
0, 1
0, 1
1, 0
0, 0
0, 1
0, 0
2, 0
0, 0
1, 0
0, 0
0, 0
0, 1
0, 0
0, 0
0, 0
0, 0
0, 0
0, 0
0, 0
2, 0
1, 1
0, 0
0, 0
0, 0
0, 0
1, 0
0, 1
0, 1
0, 0
0, 0
0, 0
1, 0
0, 0
0, 0
0, 0
0, 0
1, 1
0, 0
0, 0
0, 0
0, 0
0, 0
1, 0
0, 1
1, 0
0, 0
0, 0
0, 0
0, 0
0, 0
1, 0
0, 0
0, 0
0, 0
0, 0
0, 0
0, 1
0, 0
0, 0
0, 1
0, 0
0, 0
1, 0
0, 0
0, 0
0, 0
0, 0
0, 0
0, 0
1, 0
0, 0
0, 0
0, 1
0, 1
0, 1
0, 0
0, 0
0, 0
1, 0
0, 1
0, 0
0, 0
0, 0
0, 1
0, 1
0, 0
0, 0
0, 0
0, 0
1, 0
0, 0
0, 0
0, 0
0, 0
0, 0
0, 0
0, 0
0, 0
0, 0
0, 0
0, 0
0, 0
0, 0
0, 0
0, 0
0, 0
0, 0
1, 1
0, 0
0, 1
0, 0
0, 0
0, 0
0, 0
0, 0
0, 0
0, 0
0, 0
0, 0
0, 0
0, 0
0, 0
0, 0
0, 0
0, 0
0, 0
0, 1
0, 0
0, 0
0, 0
0, 0
0, 0
0, 0
0, 0
0, 0
0, 0
0, 0
1, 0
0, 0
0, 0
0, 0
0, 0
0, 0
0, 0
0, 0
0, 0
1, 1
0, 0
0, 0
0, 0
0, 0
0, 0
0, 0
0, 0
0, 0
0, 0
0, 0
0, 0
0, 0
1, 0
0, 1
0, 0
0, 0
0, 0
0, 0
0, 0
0, 0
0, 0
0, 0
0, 0
0, 0
0, 0
0, 0
0, 0
0, 0
0, 0
0, 0
0, 0
0, 0
0, 0
0, 0
0, 0
1, 0
0, 0
0, 0
0, 0
0, 0
0, 0
0, 0
0, 0
0, 0
0, 0
0, 0
0, 0
0, 0
0, 0
0, 0
0, 0
1, 0
0, 0
0, 0
0, 0
0, 0
0, 0
0, 0
0, 0
0, 0
0, 0
0, 0
0, 0
0, 0
0, 0
0, 0
0, 0
0, 0
0, 0
0, 0
0, 0
0, 0
0, 0
0, 0
0, 0
0, 0
0, 0
0, 0
0, 0
0, 0
0, 0
0, 0
1, 0
0, 0
0, 0
0, 0
0, 0
0, 0
0, 0
0, 0
0, 0
0, 0
0, 0
0, 0
0, 0
0, 0
0, 0
0, 0
0, 0
0, 0
0, 0
0, 0
0, 0
0, 0
0, 0
0, 0
0, 0
0, 0
0, 0
0, 0
0, 0
0, 0
0, 0
0, 0
0, 0
0, 0
0, 0
0, 0
0, 0
0, 0
0, 0
0, 0
0, 0
0, 0
0, 0
0, 0
0, 0
0, 0
0, 0
0, 0
0, 0
0, 0
0, 0
0, 0
0, 0
0, 0
0, 0
0, 0
0, 0
0, 0
0, 0
0, 0
0, 0
0, 0
0, 0
0, 0
0, 1
0, 0
0, 0
0, 0
0, 0
0, 0
0, 0
0, 0
0, 0
0, 0
0, 0
0, 0
0, 0
0, 0
0, 0
0, 0
0, 0
0, 0
0, 0
0, 0
0, 0
0, 0
0, 0
0, 0
0, 0
0, 0
0, 0
0, 0
0, 0
0, 0
0, 0
0, 0
0, 0
0, 0
0, 0
0, 0
0, 0
0, 0
0, 0
0, 0
0, 0
0, 0
0, 0
0, 0
0, 0
0, 0
0, 0
0, 0
0, 0
0, 0
0, 0
0, 0
0, 0
0, 0
0, 0
0, 0
0, 0
0, 0
0, 0
0, 0
0, 0
0, 0
0, 0
0, 0
0, 0
0, 0
0, 0
0, 0
0, 0
0, 0
0, 0
0, 0
0, 0
0, 0
0, 0
0, 0
0, 0
0, 0
0, 0
0, 0
0, 0
0, 0
0, 0
0, 0
0, 0
0, 0
0, 0
0, 0
0, 0
0, 0
0, 0
0, 0
0, 0
0, 0
0, 0
0, 0
0, 0
0, 0
0, 0
0, 0
0, 0
1, 0
0, 0
0, 0
0, 0
0, 0
0, 0
0, 0
0, 0
0, 0
0, 0
0, 0
0, 0
0, 0
0, 0
0, 0
0, 0
0, 0
0, 0
0, 0
0, 0
0, 0
0, 0
0, 0
0, 0
0, 0
0, 0
0, 0
0, 0
0, 0
0, 0
0, 0
0, 0
0, 0
0, 0
0, 0
0, 0
0, 0
0, 0
0, 0
0, 0
0, 0
0, 0
0, 0
0, 0
0, 0
0, 0
0, 0
0, 0
0, 0
0, 0
0, 0
0, 0
0, 0
0, 0
0, 0
0, 0
0, 0
0, 0
0, 0
0, 0
0, 0
0, 0
0, 0
0, 0
0, 0
0, 0
0, 0
0, 0
0, 0
0, 0
0, 0
0, 0
0, 0
0, 0
0, 0
0, 0
0, 0
0, 0
0, 0
0, 0
0, 0
0, 0
0, 0
0, 0
0, 0
0, 0
0, 0
0, 0
0, 0
0, 0
0, 0
0, 0
0, 0
0, 0
0, 0
0, 0
0, 0
0, 0
0, 0
0, 0
0, 0
0, 0
0, 0
0, 0
0, 0
0, 0
0, 0
0, 0
0, 0
0, 0
0, 0
0, 0
0, 0
0, 0
0, 0
0, 0
0, 0
0, 0
0, 0
0, 0
0, 0
0, 0
0, 0
0, 0
0, 0
0, 0
0, 0
0, 0
0, 0
0, 0
0, 0
0, 0
0, 0
0, 0
0, 0
0, 0
0, 0
0, 0
0, 0
0, 0
0, 0
0, 0
0, 0
0, 0
0, 0
0, 0
0, 0
0, 0
0, 0
0, 0
0, 0
0, 0
0, 0
0, 0
0, 0
0, 0
0, 0
0, 0
0, 0
0, 0
0, 0
0, 0
0, 0
0, 0
0, 0
0, 0
0, 0
0, 0
0, 0
0, 0
0, 0
0, 0
0, 0
0, 0
0, 0
0, 0
0, 0
0, 0
0, 0
0, 0
0, 0
0, 0
0, 0
0, 0
0, 0
0, 0
0, 0
0, 0
0, 0
0, 0
0, 0
0, 0
0, 0
0, 0
0, 0
0, 0
0, 0
0, 0
#ENDOFDATA     end of spectrum data