File: host_upload/02-11-2024/rqc/uplink1/ps__0567_0717304816_000rfs_shot_203.msa
#FORMAT      : EMSA/MAS spectral data file
#VERSION     : TC202v2.0 PIXL
#TITLE       : Novarupta (sol567) subset1
#DATE        : 02-11-2024      Date in the format DD-MMM-YYYY, for example 07-JUL-2010
#TIME        :             The time of day at which the spectrum was recorded, in 24-hour format
#OWNER       : PIXL Flight Model       (PIXL will use this to indicate which instrument took the data.)
#NPOINTS     : 4096     Number of data points in the spectrum (This can be zero for configuration only files)
#NCOLUMNS    : 2     Number of data columns in the spectrum (This can be zero for configuration only files)
#XUNITS      : eV
#YUNITS      : COUNTS
#DATATYPE    : YY
#XPERCHAN    : 7.862, 7.881   eV per channel (separate by commas if more than one detector)
#OFFSET      : 18.5, -22.4         eV of first channel  (separate by commas if more than one detector
#SIGNALTYPE  : XRF
#YP_TEMP     : 0.664
#LIVETIME    : 8.84251, 8.82676   seconds (separate by commas if more than one detector)
#REALTIME    : 10, 10.0   seconds (separate by commas if more than one detector)
#SPECTRUM    : start of spectrum data
0, 0
0, 0
0, 0
0, 0
0, 0
0, 0
0, 0
0, 0
0, 0
0, 0
0, 0
0, 0
0, 0
0, 0
0, 0
0, 0
0, 0
0, 0
0, 0
0, 0
0, 0
0, 0
0, 0
0, 0
0, 0
0, 0
0, 0
0, 0
0, 0
0, 0
0, 0
1, 0
0, 1
0, 0
1, 1
0, 0
2, 1
1, 0
2, 2
1, 1
5, 2
5, 1
3, 2
0, 1
2, 2
0, 4
3, 5
2, 3
3, 2
2, 7
8, 7
8, 9
9, 13
17, 21
9, 19
17, 11
17, 22
10, 9
6, 4
12, 13
14, 22
16, 20
41, 37
39, 56
51, 56
38, 46
36, 38
30, 37
33, 39
78, 65
93, 130
180, 196
272, 341
377, 430
459, 485
458, 494
413, 437
319, 330
234, 248
161, 128
74, 73
45, 51
30, 27
23, 27
27, 31
21, 34
48, 37
29, 37
29, 22
25, 16
17, 14
22, 11
21, 23
39, 51
84, 84
131, 126
193, 186
197, 251
305, 337
264, 295
230, 238
207, 206
142, 143
108, 103
65, 63
56, 58
48, 46
72, 61
96, 100
136, 119
149, 177
209, 228
173, 227
188, 240
210, 175
161, 171
127, 116
123, 111
90, 86
74, 97
76, 59
81, 83
52, 57
57, 43
44, 35
25, 40
34, 27
27, 21
18, 23
13, 12
15, 13
7, 8
7, 8
9, 11
6, 3
6, 7
3, 10
13, 10
16, 23
11, 25
24, 28
25, 32
25, 17
15, 24
12, 18
18, 14
9, 8
5, 17
8, 8
8, 24
27, 24
52, 61
63, 120
133, 162
204, 235
257, 298
329, 336
355, 364
356, 340
293, 317
204, 227
162, 151
102, 89
63, 51
39, 39
21, 24
31, 25
29, 46
40, 46
55, 53
65, 54
77, 70
55, 51
48, 35
32, 30
16, 25
16, 14
6, 12
8, 12
11, 9
7, 10
10, 11
9, 6
8, 7
7, 13
11, 13
21, 17
21, 29
35, 30
45, 34
51, 52
53, 47
70, 60
54, 57
44, 49
40, 42
41, 43
25, 20
30, 15
21, 21
17, 18
17, 15
13, 8
9, 10
12, 20
12, 7
13, 12
11, 16
20, 25
15, 14
19, 22
28, 15
18, 15
16, 13
15, 13
21, 11
16, 9
12, 11
16, 8
6, 12
11, 13
14, 6
11, 14
7, 17
13, 16
14, 11
19, 18
19, 24
26, 30
32, 39
31, 37
29, 36
33, 30
27, 25
22, 25
8, 24
14, 12
10, 10
14, 12
5, 11
15, 21
8, 14
10, 13
11, 14
21, 22
20, 35
33, 31
29, 33
33, 33
48, 58
42, 55
57, 56
45, 39
32, 40
28, 41
34, 20
28, 27
24, 21
22, 24
17, 15
26, 17
20, 34
40, 47
67, 92
117, 154
201, 274
359, 476
617, 657
922, 1102
1097, 1347
1403, 1584
1615, 1810
1697, 1745
1632, 1668
1430, 1349
1086, 1065
806, 788
552, 445
360, 311
207, 168
105, 94
62, 56
39, 30
20, 25
19, 18
21, 17
21, 16
14, 10
18, 23
16, 22
21, 14
40, 45
34, 45
49, 57
74, 96
110, 148
146, 194
205, 210
226, 245
220, 267
238, 263
255, 259
199, 195
168, 150
126, 115
84, 77
55, 39
31, 31
23, 20
13, 5
5, 8
4, 6
8, 8
8, 12
11, 9
16, 14
7, 13
15, 12
5, 10
11, 9
11, 14
10, 10
8, 4
11, 11
7, 7
8, 7
6, 7
4, 7
4, 7
2, 1
5, 4
2, 5
7, 8
7, 7
6, 8
11, 6
2, 6
10, 4
8, 8
1, 4
7, 6
8, 8
3, 6
5, 10
10, 9
5, 10
7, 3
9, 5
14, 9
6, 11
5, 8
11, 7
8, 8
9, 8
2, 7
5, 5
6, 3
4, 3
6, 4
8, 5
12, 7
3, 5
12, 9
7, 17
9, 7
11, 14
24, 10
17, 16
17, 10
14, 15
11, 10
10, 10
8, 6
5, 8
5, 5
7, 5
7, 2
3, 5
6, 10
7, 3
8, 3
6, 6
4, 15
6, 8
2, 5
2, 4
5, 9
6, 6
4, 5
1, 5
8, 4
6, 6
5, 10
9, 1
4, 8
2, 4
3, 5
4, 4
6, 2
6, 4
6, 4
1, 2
4, 6
8, 7
8, 3
2, 4
2, 4
9, 9
5, 5
3, 6
6, 8
5, 6
3, 9
1, 3
3, 4
5, 6
5, 8
4, 3
4, 2
1, 7
4, 3
3, 6
4, 5
7, 10
3, 6
5, 2
4, 4
4, 3
6, 3
7, 8
5, 5
1, 4
6, 4
4, 3
3, 4
4, 3
1, 2
6, 6
1, 4
4, 6
3, 4
1, 5
3, 3
3, 3
0, 3
7, 1
2, 2
3, 2
4, 6
1, 4
3, 2
2, 4
5, 8
2, 5
4, 4
1, 2
1, 3
0, 2
3, 3
4, 3
4, 3
2, 2
2, 2
2, 1
2, 5
2, 1
4, 2
2, 2
3, 1
3, 4
3, 3
2, 6
1, 1
2, 3
2, 2
5, 4
1, 2
3, 4
3, 3
2, 4
0, 3
2, 3
4, 3
2, 5
6, 1
2, 1
3, 2
3, 3
1, 2
1, 4
4, 1
1, 1
6, 2
2, 3
3, 1
2, 7
0, 1
2, 4
4, 2
1, 2
2, 5
3, 2
2, 2
2, 1
0, 5
2, 3
3, 3
5, 2
3, 1
2, 3
2, 1
6, 5
2, 1
3, 1
2, 0
2, 5
1, 3
2, 1
2, 2
1, 4
1, 1
1, 4
1, 2
0, 4
2, 3
1, 2
2, 2
1, 3
3, 1
1, 2
3, 4
1, 0
2, 3
3, 2
3, 3
3, 5
5, 1
2, 2
0, 4
4, 5
3, 3
1, 5
1, 1
6, 3
3, 3
3, 2
3, 2
1, 0
0, 4
0, 2
1, 2
2, 1
2, 3
1, 1
3, 2
0, 2
0, 3
2, 3
3, 2
1, 2
2, 2
1, 4
1, 1
1, 2
1, 2
2, 2
3, 0
0, 3
0, 1
1, 1
2, 0
1, 2
0, 3
1, 1
1, 2
1, 0
2, 1
0, 2
1, 1
2, 0
1, 0
1, 0
1, 0
1, 2
2, 0
1, 0
1, 0
3, 2
1, 0
1, 0
1, 1
1, 1
1, 0
1, 2
2, 1
1, 0
3, 1
0, 2
0, 0
0, 4
1, 0
1, 6
0, 0
0, 0
1, 3
1, 0
1, 0
1, 0
3, 1
0, 1
3, 1
0, 0
1, 2
0, 2
0, 0
0, 2
0, 0
1, 3
0, 1
1, 1
0, 0
2, 1
0, 0
0, 1
0, 0
1, 1
0, 0
0, 1
1, 0
0, 3
0, 1
0, 0
1, 1
1, 0
1, 1
0, 0
0, 0
1, 0
0, 1
2, 1
1, 2
1, 0
0, 1
0, 1
1, 0
0, 0
4, 1
0, 1
0, 2
0, 0
0, 0
1, 1
1, 1
0, 0
0, 1
0, 2
0, 1
1, 2
0, 0
0, 0
0, 1
2, 0
0, 0
1, 1
0, 2
0, 0
1, 1
0, 2
1, 2
1, 0
2, 0
0, 1
0, 1
0, 0
1, 2
0, 0
0, 1
0, 0
0, 1
0, 1
0, 0
1, 0
1, 0
1, 0
0, 0
2, 1
1, 0
1, 0
0, 2
0, 2
1, 0
1, 0
0, 0
0, 0
1, 1
0, 0
1, 1
0, 0
0, 0
0, 0
0, 2
0, 0
0, 2
2, 0
1, 0
1, 0
0, 1
0, 0
1, 0
2, 1
0, 0
1, 1
0, 0
1, 0
2, 1
0, 1
1, 0
0, 0
2, 0
0, 1
0, 0
0, 0
1, 0
0, 1
0, 1
0, 1
0, 0
0, 0
0, 0
0, 1
1, 1
0, 0
1, 0
0, 0
2, 0
0, 0
0, 1
0, 0
0, 1
1, 0
0, 0
0, 0
1, 0
0, 0
0, 0
1, 0
0, 0
0, 1
0, 0
2, 0
0, 0
0, 0
0, 0
0, 1
0, 1
0, 0
0, 0
1, 0
0, 0
1, 1
0, 0
0, 0
1, 1
0, 1
0, 0
0, 0
0, 0
0, 0
0, 0
0, 0
0, 1
1, 0
1, 0
0, 1
0, 1
0, 0
0, 0
0, 0
0, 0
0, 0
0, 0
0, 0
0, 0
0, 0
0, 0
0, 0
1, 1
0, 0
0, 0
0, 0
0, 0
1, 0
1, 0
1, 0
0, 1
0, 0
0, 0
2, 0
0, 0
0, 0
0, 0
0, 0
0, 0
0, 0
0, 0
1, 0
0, 1
0, 0
0, 0
0, 1
0, 0
0, 0
1, 1
0, 0
0, 0
0, 0
0, 0
0, 0
0, 0
0, 0
0, 0
0, 0
0, 0
0, 0
0, 0
0, 0
0, 0
0, 0
0, 0
0, 0
0, 0
0, 0
0, 0
0, 0
1, 0
0, 0
0, 0
0, 0
0, 0
0, 0
0, 0
0, 0
0, 0
0, 0
1, 0
0, 1
0, 0
0, 0
0, 0
1, 0
0, 0
0, 0
0, 0
0, 0
0, 0
0, 0
1, 0
0, 0
0, 1
1, 0
0, 0
1, 0
0, 0
0, 1
0, 0
0, 0
0, 0
0, 0
0, 0
0, 0
0, 0
0, 0
0, 0
0, 0
0, 0
0, 0
0, 0
0, 0
1, 0
0, 0
0, 0
0, 0
0, 0
0, 0
1, 0
0, 1
0, 0
0, 0
0, 0
0, 0
0, 0
0, 0
0, 0
0, 1
0, 0
0, 0
0, 1
0, 0
0, 0
0, 0
0, 0
0, 0
0, 0
0, 0
0, 1
0, 0
0, 0
0, 0
0, 0
0, 0
0, 0
0, 0
0, 0
0, 0
0, 0
0, 0
0, 0
0, 0
0, 0
0, 0
0, 0
0, 0
0, 0
0, 0
0, 0
0, 0
0, 0
0, 0
1, 0
0, 0
0, 0
0, 0
0, 0
0, 0
0, 0
0, 0
0, 0
0, 0
0, 0
0, 0
0, 0
0, 0
0, 0
1, 0
0, 0
0, 0
0, 0
0, 0
0, 0
0, 1
0, 0
0, 0
0, 0
0, 0
0, 0
0, 0
0, 0
0, 0
0, 0
0, 0
0, 0
0, 0
0, 0
0, 0
0, 0
0, 0
0, 0
0, 0
0, 0
0, 0
0, 0
0, 0
0, 1
0, 0
0, 0
0, 0
0, 0
0, 0
0, 0
0, 0
0, 0
0, 0
0, 0
0, 0
0, 0
0, 0
0, 0
0, 0
0, 0
0, 0
0, 0
0, 0
0, 1
0, 0
0, 0
0, 0
0, 0
0, 0
0, 0
0, 0
0, 0
0, 0
0, 0
0, 0
0, 0
0, 0
0, 0
0, 0
0, 0
0, 0
0, 0
0, 0
0, 0
0, 0
0, 0
0, 0
0, 0
0, 0
0, 0
0, 0
0, 0
0, 0
0, 1
0, 0
0, 0
0, 0
0, 0
0, 0
0, 0
0, 0
0, 0
0, 0
0, 0
0, 0
0, 0
0, 0
0, 0
0, 0
0, 0
0, 0
0, 0
0, 0
0, 0
0, 0
0, 0
0, 0
0, 0
0, 0
0, 0
0, 0
0, 0
0, 0
0, 0
0, 0
0, 0
0, 0
0, 0
0, 0
0, 0
0, 0
0, 0
0, 0
0, 0
0, 0
0, 0
0, 0
0, 0
0, 0
0, 0
0, 0
0, 0
0, 0
0, 0
0, 0
0, 0
0, 0
0, 0
0, 0
0, 0
0, 0
0, 0
0, 0
0, 0
0, 0
0, 0
0, 0
0, 0
0, 0
0, 0
0, 0
0, 0
0, 0
0, 0
0, 0
0, 0
0, 0
0, 0
0, 0
0, 0
0, 0
0, 0
0, 0
0, 0
0, 0
0, 0
0, 0
0, 0
0, 0
0, 0
0, 0
0, 0
0, 0
0, 0
0, 0
0, 0
0, 0
0, 0
0, 0
0, 0
0, 0
0, 0
0, 0
0, 0
0, 0
0, 0
0, 0
0, 0
0, 0
0, 0
0, 0
0, 0
0, 0
0, 0
0, 0
0, 0
0, 0
0, 0
0, 0
0, 0
0, 0
0, 0
0, 0
0, 0
0, 0
0, 0
0, 0
0, 0
0, 0
0, 0
0, 0
0, 0
0, 0
0, 0
0, 0
0, 0
0, 0
0, 0
0, 0
0, 0
0, 0
0, 0
0, 0
0, 0
0, 0
0, 0
0, 0
0, 0
0, 0
0, 0
0, 0
0, 0
0, 0
0, 0
0, 0
0, 0
0, 0
0, 0
0, 0
0, 0
0, 0
0, 0
0, 0
0, 0
0, 0
0, 0
0, 0
0, 0
0, 0
0, 0
0, 0
0, 0
0, 0
0, 0
0, 0
0, 0
0, 0
0, 0
0, 0
0, 0
0, 0
0, 0
0, 0
0, 0
0, 0
0, 0
0, 0
0, 0
0, 0
0, 0
0, 0
0, 0
0, 0
0, 0
0, 0
0, 0
0, 0
0, 0
0, 0
0, 0
0, 0
0, 0
0, 0
0, 0
0, 0
0, 0
0, 0
0, 0
0, 0
0, 0
0, 0
0, 0
0, 0
0, 0
0, 0
0, 0
0, 0
0, 0
0, 0
0, 0
0, 0
0, 0
0, 0
0, 0
0, 0
0, 0
0, 0
0, 0
0, 0
0, 0
0, 0
0, 0
0, 0
0, 0
0, 0
0, 0
0, 0
0, 0
0, 0
0, 0
0, 0
0, 0
0, 0
0, 0
0, 0
0, 0
0, 0
0, 0
0, 0
0, 0
0, 0
0, 0
0, 0
0, 0
0, 0
0, 0
0, 0
0, 0
0, 0
0, 0
0, 0
0, 0
0, 0
0, 0
0, 0
0, 0
0, 0
0, 0
0, 0
0, 0
0, 0
0, 0
0, 0
0, 0
0, 0
0, 0
0, 0
0, 0
0, 0
0, 0
0, 0
0, 0
0, 0
0, 0
0, 0
0, 0
0, 0
0, 0
0, 0
0, 0
0, 0
0, 0
0, 0
0, 0
0, 0
0, 0
0, 0
0, 0
0, 0
0, 0
0, 0
0, 0
0, 0
0, 0
0, 0
0, 0
0, 0
0, 0
0, 0
0, 0
0, 0
0, 0
0, 0
0, 0
0, 0
0, 0
0, 0
0, 0
0, 0
0, 0
0, 0
0, 0
0, 0
0, 0
0, 0
0, 0
0, 0
0, 0
0, 0
0, 0
0, 0
0, 0
0, 0
0, 0
0, 0
0, 0
0, 0
0, 0
0, 0
0, 0
0, 0
0, 0
0, 0
0, 0
0, 0
0, 0
0, 0
#ENDOFDATA     end of spectrum data