File: host_upload/02-11-2024/rqc/uplink1/ps__0567_0717304816_000rfs_shot_371.msa
#FORMAT      : EMSA/MAS spectral data file
#VERSION     : TC202v2.0 PIXL
#TITLE       : Novarupta (sol567) subset1
#DATE        : 02-11-2024      Date in the format DD-MMM-YYYY, for example 07-JUL-2010
#TIME        :             The time of day at which the spectrum was recorded, in 24-hour format
#OWNER       : PIXL Flight Model       (PIXL will use this to indicate which instrument took the data.)
#NPOINTS     : 4096     Number of data points in the spectrum (This can be zero for configuration only files)
#NCOLUMNS    : 2     Number of data columns in the spectrum (This can be zero for configuration only files)
#XUNITS      : eV
#YUNITS      : COUNTS
#DATATYPE    : YY
#XPERCHAN    : 7.862, 7.881   eV per channel (separate by commas if more than one detector)
#OFFSET      : 18.5, -22.4         eV of first channel  (separate by commas if more than one detector
#SIGNALTYPE  : XRF
#YP_TEMP     : 1.883
#LIVETIME    : 8.82413, 8.80765   seconds (separate by commas if more than one detector)
#REALTIME    : 10, 10.0   seconds (separate by commas if more than one detector)
#SPECTRUM    : start of spectrum data
0, 0
0, 0
0, 0
0, 0
0, 0
0, 0
0, 0
0, 0
0, 0
0, 0
0, 0
0, 0
0, 0
0, 0
0, 0
0, 0
0, 0
0, 0
0, 0
0, 0
0, 0
0, 0
0, 0
0, 0
0, 0
0, 0
0, 0
0, 0
0, 0
0, 0
0, 0
0, 0
1, 0
0, 0
1, 0
3, 2
1, 0
0, 4
2, 8
5, 6
2, 6
2, 7
3, 1
1, 2
3, 2
3, 3
3, 5
3, 5
3, 3
6, 4
7, 11
2, 9
10, 11
18, 10
13, 25
5, 16
10, 9
14, 8
6, 16
12, 14
19, 21
18, 32
33, 32
47, 54
58, 54
44, 50
27, 35
30, 38
25, 43
47, 79
115, 145
172, 221
265, 374
395, 482
491, 522
420, 557
419, 474
332, 321
211, 224
130, 125
77, 88
56, 61
29, 36
30, 41
28, 45
34, 49
30, 37
38, 36
31, 40
18, 23
10, 19
9, 24
29, 23
45, 48
71, 101
112, 164
230, 218
243, 314
307, 397
319, 340
277, 334
227, 253
152, 186
120, 114
62, 65
53, 60
38, 57
66, 65
72, 99
123, 122
168, 196
190, 225
199, 249
211, 216
194, 212
182, 183
112, 117
115, 110
93, 90
86, 84
71, 67
60, 78
72, 68
49, 56
46, 54
30, 49
36, 33
19, 30
19, 16
15, 24
15, 13
13, 6
8, 8
8, 4
5, 6
12, 12
6, 14
13, 16
20, 17
29, 21
29, 35
33, 25
29, 22
28, 21
25, 23
14, 22
13, 9
11, 15
12, 8
9, 13
16, 28
50, 60
77, 122
122, 186
195, 259
273, 332
329, 382
325, 448
392, 434
295, 376
251, 284
169, 177
95, 118
64, 69
38, 46
26, 31
35, 29
41, 42
36, 49
42, 60
41, 86
40, 72
62, 67
45, 61
48, 39
21, 26
19, 26
7, 11
4, 8
16, 9
13, 3
12, 10
7, 15
9, 8
8, 5
14, 19
11, 14
24, 38
34, 32
34, 65
43, 57
52, 64
44, 67
47, 56
59, 62
39, 36
38, 41
34, 30
24, 29
12, 16
10, 7
13, 13
18, 21
18, 17
15, 18
17, 13
11, 14
14, 13
21, 18
16, 10
19, 19
15, 28
18, 19
12, 12
9, 17
8, 20
10, 11
7, 5
15, 13
9, 22
12, 17
9, 7
15, 8
18, 10
15, 14
16, 12
21, 26
27, 27
21, 37
37, 38
28, 27
34, 34
21, 33
15, 26
18, 28
15, 17
18, 14
12, 11
11, 16
4, 9
9, 16
9, 18
11, 12
14, 17
17, 19
18, 24
21, 37
25, 35
32, 42
38, 57
41, 58
37, 51
38, 53
36, 46
32, 32
37, 31
22, 33
17, 21
19, 14
19, 13
21, 26
26, 30
33, 44
65, 92
130, 157
182, 304
329, 500
533, 798
801, 1126
1164, 1456
1392, 1799
1570, 1933
1666, 2021
1613, 1814
1413, 1515
1178, 1201
870, 843
582, 573
384, 368
206, 214
116, 108
63, 67
41, 26
25, 26
17, 15
14, 18
13, 18
14, 20
18, 23
16, 27
14, 27
30, 32
35, 47
63, 62
81, 98
110, 167
151, 214
179, 261
235, 277
274, 303
276, 333
246, 235
215, 250
177, 162
130, 127
98, 84
61, 47
27, 31
19, 21
9, 8
11, 11
3, 8
6, 8
6, 10
6, 8
8, 12
13, 7
8, 13
9, 18
9, 8
13, 14
13, 8
13, 6
8, 11
6, 5
7, 4
7, 6
5, 6
2, 10
6, 5
4, 10
6, 5
2, 7
8, 3
7, 10
7, 7
6, 8
9, 6
10, 10
4, 4
3, 7
5, 2
7, 6
7, 6
7, 6
7, 10
7, 8
7, 11
10, 12
7, 13
9, 8
10, 8
9, 7
6, 6
7, 13
7, 8
4, 6
6, 12
6, 4
6, 10
5, 8
5, 5
6, 11
18, 15
7, 19
9, 13
13, 13
15, 9
16, 11
9, 9
8, 16
10, 7
12, 3
5, 4
7, 11
9, 7
3, 7
7, 7
6, 2
6, 4
6, 3
13, 3
5, 9
4, 5
5, 5
3, 5
3, 6
9, 5
2, 7
9, 11
6, 5
6, 10
6, 5
7, 3
4, 11
5, 4
3, 9
4, 3
8, 3
4, 5
5, 6
7, 9
6, 6
2, 6
2, 5
7, 3
10, 10
5, 6
6, 11
4, 7
5, 5
8, 2
3, 3
5, 7
2, 3
2, 7
4, 5
1, 5
8, 6
3, 1
9, 8
4, 2
3, 3
3, 9
5, 7
5, 4
3, 3
3, 3
2, 5
6, 4
3, 5
2, 5
5, 2
5, 6
4, 2
3, 2
6, 2
1, 5
4, 7
4, 10
3, 2
4, 3
2, 3
5, 4
2, 7
6, 5
8, 7
1, 3
3, 2
2, 3
1, 1
3, 5
4, 2
3, 5
5, 2
3, 0
3, 1
5, 5
5, 2
6, 1
1, 7
2, 1
5, 6
5, 5
2, 3
1, 3
2, 4
2, 2
2, 5
11, 3
5, 7
1, 2
1, 3
0, 1
0, 2
2, 2
2, 3
2, 3
3, 0
4, 2
0, 5
2, 1
5, 2
0, 4
3, 6
5, 4
4, 2
2, 1
1, 3
4, 3
1, 2
1, 1
4, 5
7, 6
4, 3
2, 3
0, 2
3, 5
0, 3
1, 5
2, 3
2, 3
4, 3
1, 1
2, 2
2, 1
2, 1
3, 6
2, 4
2, 1
5, 3
3, 5
7, 3
1, 2
5, 3
2, 2
1, 1
2, 1
3, 2
3, 4
3, 3
1, 4
0, 3
1, 1
1, 4
2, 2
2, 2
2, 2
2, 2
1, 4
0, 2
0, 1
4, 0
2, 6
2, 0
4, 1
1, 6
1, 6
4, 2
2, 2
2, 1
2, 4
2, 5
1, 1
1, 4
4, 7
3, 4
3, 3
3, 3
2, 0
3, 2
1, 1
2, 3
1, 0
3, 2
1, 1
1, 3
1, 1
2, 0
4, 0
1, 1
6, 1
0, 3
2, 2
0, 3
3, 1
2, 3
1, 1
2, 0
4, 0
1, 2
2, 2
2, 1
2, 5
2, 0
4, 1
3, 3
1, 0
1, 0
1, 2
1, 0
1, 1
1, 1
2, 0
2, 0
3, 2
0, 2
1, 1
1, 2
0, 1
2, 1
1, 1
1, 2
2, 2
0, 1
1, 2
2, 1
0, 0
0, 2
0, 1
1, 2
0, 1
0, 2
0, 1
1, 2
1, 1
0, 1
1, 1
0, 3
2, 1
1, 2
1, 3
1, 1
1, 0
1, 2
0, 0
2, 1
1, 1
0, 1
0, 0
1, 2
2, 0
2, 1
0, 0
0, 2
1, 1
1, 1
0, 0
0, 1
1, 0
1, 1
0, 1
0, 0
0, 0
0, 1
0, 2
2, 1
1, 2
0, 2
0, 0
1, 2
2, 1
0, 1
0, 1
0, 1
1, 2
1, 1
0, 1
0, 1
0, 2
0, 0
1, 1
0, 1
1, 1
0, 1
1, 0
1, 0
1, 2
2, 0
1, 0
0, 0
0, 1
0, 1
0, 1
0, 0
0, 0
1, 0
0, 1
1, 0
0, 2
2, 0
1, 1
0, 1
1, 0
1, 0
0, 0
0, 1
1, 0
3, 1
0, 1
0, 1
1, 0
2, 1
1, 0
0, 0
0, 0
1, 0
0, 0
0, 0
0, 0
1, 1
0, 0
0, 0
0, 0
2, 0
1, 1
0, 0
0, 1
0, 0
1, 1
0, 2
1, 0
0, 0
0, 0
0, 0
1, 0
1, 0
0, 0
0, 0
0, 1
0, 0
0, 0
0, 1
0, 1
0, 0
0, 0
1, 1
0, 0
0, 2
0, 3
1, 0
0, 0
1, 0
0, 1
2, 0
0, 0
0, 0
0, 2
1, 0
0, 0
0, 0
0, 1
0, 0
1, 1
0, 0
0, 0
1, 0
0, 0
0, 0
0, 0
0, 0
0, 1
1, 1
0, 0
1, 0
0, 0
0, 0
0, 0
1, 0
0, 0
1, 1
1, 0
0, 0
0, 0
2, 0
0, 0
0, 1
0, 0
0, 0
0, 0
0, 0
1, 0
1, 1
0, 0
1, 0
0, 0
0, 0
0, 0
0, 0
0, 1
0, 0
0, 1
1, 0
0, 1
0, 0
0, 0
0, 1
1, 0
0, 0
0, 0
0, 0
0, 0
0, 0
0, 0
0, 0
0, 2
1, 0
0, 0
0, 0
0, 0
0, 0
1, 0
0, 0
0, 0
2, 0
1, 1
0, 1
0, 0
0, 0
0, 1
2, 0
0, 0
0, 0
0, 1
1, 0
0, 0
0, 1
0, 0
0, 0
0, 0
0, 0
0, 0
0, 0
0, 0
1, 0
0, 0
1, 0
0, 0
0, 0
0, 0
0, 0
0, 1
0, 0
0, 1
0, 0
0, 0
0, 0
1, 0
0, 0
0, 0
0, 0
0, 0
0, 0
0, 0
0, 0
0, 0
1, 0
0, 0
0, 0
0, 0
0, 0
0, 0
0, 0
0, 0
0, 0
1, 0
0, 1
0, 0
1, 0
0, 0
0, 0
0, 1
0, 0
2, 1
0, 1
0, 2
1, 0
0, 0
0, 1
0, 1
1, 0
0, 0
0, 1
1, 1
0, 0
0, 1
0, 0
0, 0
0, 0
0, 1
0, 0
0, 0
0, 0
0, 0
0, 0
0, 0
0, 0
0, 0
0, 0
0, 0
0, 0
0, 1
0, 0
0, 0
0, 0
0, 0
0, 0
0, 0
0, 0
0, 0
1, 0
0, 1
0, 0
0, 0
0, 0
0, 0
0, 1
0, 0
0, 0
0, 0
0, 0
0, 0
0, 0
0, 0
0, 1
0, 0
0, 0
0, 0
0, 0
0, 0
0, 0
0, 0
0, 0
0, 0
0, 0
0, 0
0, 0
0, 0
0, 0
0, 0
1, 0
0, 0
0, 0
0, 0
0, 0
0, 0
0, 0
0, 0
0, 0
0, 0
0, 0
0, 0
0, 0
0, 0
0, 0
0, 0
0, 0
0, 0
0, 0
0, 0
0, 0
0, 0
0, 0
0, 0
0, 0
0, 0
0, 0
0, 0
0, 1
0, 0
0, 0
0, 0
0, 0
0, 1
0, 0
0, 0
0, 0
0, 0
0, 0
0, 0
0, 0
0, 0
0, 0
0, 0
0, 0
0, 0
0, 0
0, 0
0, 0
0, 0
0, 0
0, 0
0, 0
0, 0
0, 0
0, 0
0, 0
0, 0
0, 0
0, 0
0, 1
0, 0
0, 0
0, 0
0, 0
0, 0
0, 0
0, 0
0, 0
0, 0
0, 0
0, 0
0, 0
0, 0
0, 0
0, 0
0, 0
0, 0
0, 0
0, 0
0, 0
0, 0
0, 0
0, 0
0, 0
0, 0
0, 0
0, 0
0, 0
0, 0
0, 0
0, 0
0, 0
0, 0
0, 0
0, 0
0, 0
0, 0
0, 0
0, 1
0, 0
0, 0
0, 0
0, 0
0, 0
0, 0
0, 0
0, 0
0, 0
0, 0
0, 0
1, 0
0, 0
0, 0
0, 0
0, 0
0, 0
0, 0
0, 0
0, 0
0, 0
0, 0
0, 0
0, 0
0, 0
0, 0
0, 0
0, 0
0, 0
0, 0
0, 0
0, 0
0, 0
0, 0
0, 0
0, 0
0, 0
0, 0
0, 0
0, 0
0, 0
0, 0
0, 0
0, 0
0, 0
0, 0
0, 0
0, 0
0, 0
0, 0
0, 0
0, 0
0, 0
0, 0
0, 0
0, 0
0, 0
0, 0
0, 0
0, 0
0, 0
0, 0
0, 0
0, 0
0, 0
0, 0
0, 0
0, 0
0, 0
0, 0
0, 0
0, 0
0, 0
0, 0
0, 0
0, 0
0, 0
0, 0
0, 0
0, 0
0, 0
0, 0
0, 0
0, 0
0, 0
0, 0
0, 0
0, 0
0, 0
0, 0
0, 0
0, 0
0, 0
0, 0
0, 0
0, 0
0, 0
0, 0
0, 0
0, 0
0, 0
0, 0
0, 0
0, 0
0, 0
0, 0
0, 0
0, 0
0, 0
0, 0
0, 0
0, 0
0, 0
0, 0
0, 0
0, 0
0, 0
0, 0
0, 0
0, 0
0, 0
0, 0
0, 0
0, 0
0, 0
0, 0
0, 0
0, 0
0, 0
0, 0
0, 0
0, 0
0, 0
0, 0
0, 0
0, 0
0, 0
0, 0
0, 0
0, 0
0, 0
0, 0
0, 0
0, 0
0, 0
0, 0
0, 0
0, 0
0, 0
0, 0
0, 0
0, 0
0, 0
0, 0
0, 0
0, 0
0, 0
0, 0
0, 0
0, 0
0, 0
0, 0
0, 0
0, 0
0, 0
0, 0
0, 0
0, 0
0, 0
0, 0
0, 0
0, 0
0, 0
0, 0
0, 0
0, 0
0, 0
0, 0
0, 0
0, 0
0, 0
0, 0
0, 0
0, 0
0, 0
0, 0
0, 0
0, 0
0, 0
0, 0
0, 0
0, 0
0, 0
0, 0
0, 0
0, 0
0, 0
0, 0
0, 0
0, 0
0, 0
0, 0
0, 0
0, 0
0, 0
0, 0
0, 0
0, 0
0, 0
0, 0
0, 0
0, 0
0, 0
0, 0
0, 0
0, 0
0, 0
0, 0
0, 0
0, 0
0, 0
0, 0
0, 0
0, 0
0, 0
0, 0
0, 0
0, 0
0, 0
0, 0
0, 0
0, 0
0, 0
0, 0
0, 0
0, 0
0, 0
0, 0
0, 0
0, 0
0, 0
0, 0
0, 0
0, 0
0, 0
0, 0
0, 0
0, 0
0, 0
0, 0
0, 0
0, 0
0, 0
0, 0
0, 0
0, 0
0, 0
0, 0
0, 0
0, 0
0, 0
0, 0
0, 0
0, 0
0, 0
0, 0
0, 0
0, 0
0, 0
0, 0
0, 0
0, 0
0, 0
0, 0
0, 0
0, 0
0, 0
0, 0
0, 0
0, 0
0, 0
0, 0
0, 0
0, 0
0, 0
0, 0
0, 0
0, 0
0, 0
0, 0
0, 0
0, 0
0, 0
0, 0
0, 0
0, 0
0, 0
0, 0
0, 0
0, 0
0, 0
0, 0
0, 0
0, 0
0, 0
0, 0
0, 0
0, 0
0, 0
0, 0
0, 0
0, 0
0, 0
0, 0
0, 0
0, 0
0, 0
0, 0
0, 0
0, 0
0, 0
0, 0
0, 0
0, 0
0, 0
0, 0
0, 0
0, 0
0, 0
0, 0
0, 0
0, 0
0, 0
0, 0
0, 0
0, 0
0, 0
0, 0
0, 0
0, 0
0, 0
0, 0
0, 0
0, 0
0, 0
0, 0
#ENDOFDATA     end of spectrum data