File: host_upload/02-11-2024/rqc/uplink1/ps__0567_0717304816_000rfs_shot_445.msa
#FORMAT      : EMSA/MAS spectral data file
#VERSION     : TC202v2.0 PIXL
#TITLE       : Novarupta (sol567) subset1
#DATE        : 02-11-2024      Date in the format DD-MMM-YYYY, for example 07-JUL-2010
#TIME        :             The time of day at which the spectrum was recorded, in 24-hour format
#OWNER       : PIXL Flight Model       (PIXL will use this to indicate which instrument took the data.)
#NPOINTS     : 4096     Number of data points in the spectrum (This can be zero for configuration only files)
#NCOLUMNS    : 2     Number of data columns in the spectrum (This can be zero for configuration only files)
#XUNITS      : eV
#YUNITS      : COUNTS
#DATATYPE    : YY
#XPERCHAN    : 7.862, 7.881   eV per channel (separate by commas if more than one detector)
#OFFSET      : 18.5, -22.4         eV of first channel  (separate by commas if more than one detector
#SIGNALTYPE  : XRF
#YP_TEMP     : 1.69
#LIVETIME    : 8.83848, 8.81256   seconds (separate by commas if more than one detector)
#REALTIME    : 10, 10.0   seconds (separate by commas if more than one detector)
#SPECTRUM    : start of spectrum data
0, 0
0, 0
0, 0
0, 0
0, 0
0, 0
0, 0
0, 0
0, 0
0, 0
0, 0
0, 0
0, 0
0, 0
0, 0
0, 0
0, 0
0, 0
0, 0
0, 0
0, 0
0, 0
0, 0
0, 0
0, 0
0, 0
0, 0
0, 0
0, 0
0, 0
0, 0
0, 1
0, 0
0, 0
1, 0
1, 2
1, 6
2, 3
3, 2
1, 4
2, 0
7, 1
6, 5
2, 4
3, 4
1, 5
5, 3
2, 4
3, 5
7, 6
4, 5
9, 15
6, 10
6, 24
11, 20
14, 15
20, 13
10, 16
6, 11
13, 7
10, 11
23, 27
34, 43
46, 45
44, 56
47, 56
34, 50
38, 40
33, 55
45, 64
94, 104
166, 223
269, 333
390, 449
477, 527
491, 514
446, 434
332, 342
243, 259
148, 124
96, 84
46, 44
29, 41
20, 25
24, 32
39, 28
38, 38
34, 36
28, 23
23, 20
15, 20
13, 16
41, 22
42, 46
67, 82
121, 145
216, 217
242, 294
317, 339
298, 273
277, 271
229, 227
149, 165
102, 92
69, 64
58, 59
41, 49
48, 50
66, 97
100, 137
172, 183
171, 190
212, 215
206, 222
157, 192
140, 152
134, 139
91, 116
76, 84
66, 76
70, 70
66, 65
53, 71
47, 57
38, 47
32, 36
25, 23
24, 25
13, 11
18, 16
8, 10
10, 11
9, 10
8, 6
3, 6
2, 12
11, 12
9, 7
17, 31
19, 25
18, 26
23, 30
35, 38
25, 33
22, 18
21, 15
11, 7
7, 11
12, 14
19, 20
24, 26
34, 43
87, 94
151, 168
179, 230
278, 306
319, 367
389, 434
342, 365
274, 319
221, 264
156, 157
89, 102
65, 86
44, 34
25, 24
28, 28
16, 34
42, 33
55, 53
57, 52
50, 73
48, 67
34, 37
43, 41
26, 24
24, 29
14, 9
12, 6
8, 7
9, 4
7, 5
9, 8
10, 6
10, 10
11, 22
11, 22
23, 28
35, 39
46, 46
57, 52
57, 71
75, 64
48, 70
62, 49
50, 47
35, 27
38, 25
16, 24
14, 15
14, 25
12, 20
12, 13
14, 10
16, 14
11, 12
14, 24
19, 23
16, 24
24, 18
13, 19
15, 27
11, 17
7, 22
15, 22
10, 16
11, 8
8, 7
12, 15
12, 14
7, 16
11, 11
11, 8
10, 12
13, 12
11, 17
21, 21
27, 23
24, 34
27, 26
28, 38
24, 25
29, 32
30, 27
20, 24
13, 17
15, 17
16, 10
13, 11
14, 15
9, 6
8, 17
12, 7
15, 13
17, 11
21, 21
21, 21
30, 32
30, 42
39, 55
47, 41
40, 52
44, 45
42, 43
35, 41
30, 35
22, 27
19, 20
12, 15
15, 25
22, 28
30, 36
38, 49
55, 69
113, 140
198, 256
327, 450
546, 727
826, 1041
1103, 1346
1391, 1652
1696, 1882
1858, 1877
1639, 1727
1450, 1493
1185, 1150
860, 865
585, 567
376, 331
224, 192
123, 104
68, 47
31, 41
36, 19
20, 18
17, 18
13, 13
7, 12
16, 13
19, 22
22, 25
28, 29
42, 44
61, 68
80, 94
137, 148
159, 148
190, 245
235, 263
273, 265
243, 296
245, 253
204, 232
180, 181
134, 121
94, 88
62, 56
41, 27
22, 23
11, 12
13, 12
17, 9
11, 11
16, 6
5, 11
9, 8
16, 9
16, 7
5, 11
14, 12
15, 13
11, 9
3, 6
7, 9
6, 9
7, 11
10, 3
8, 7
5, 10
8, 7
3, 10
9, 10
11, 5
7, 4
5, 3
9, 9
2, 8
4, 5
9, 4
5, 8
6, 6
11, 6
7, 9
9, 4
5, 11
8, 3
8, 8
8, 7
6, 9
6, 8
6, 3
7, 5
4, 7
2, 6
12, 4
7, 10
8, 3
1, 6
2, 6
8, 5
8, 7
7, 5
6, 3
10, 6
12, 13
12, 7
8, 9
11, 12
7, 16
7, 9
7, 11
16, 7
17, 8
8, 3
6, 9
4, 6
5, 5
4, 5
3, 5
5, 6
2, 9
4, 3
5, 5
3, 4
2, 10
4, 10
3, 6
7, 8
3, 4
8, 9
4, 1
6, 6
8, 7
3, 2
4, 5
3, 2
8, 12
4, 9
5, 3
3, 10
4, 2
4, 6
4, 7
4, 5
3, 9
5, 1
2, 5
6, 3
4, 7
6, 5
6, 3
7, 7
4, 3
5, 7
6, 5
4, 8
3, 3
4, 3
4, 5
5, 4
1, 5
5, 4
5, 4
6, 6
3, 2
2, 4
4, 6
3, 4
8, 4
9, 9
4, 5
6, 4
0, 2
1, 1
3, 5
4, 6
5, 4
2, 3
2, 6
3, 3
2, 3
4, 6
1, 3
3, 2
3, 2
2, 3
6, 4
4, 7
2, 4
1, 1
2, 2
0, 3
3, 5
2, 3
3, 5
3, 4
4, 5
5, 7
2, 1
5, 5
4, 5
4, 2
1, 3
6, 3
2, 2
3, 3
3, 5
3, 6
2, 4
3, 4
4, 1
4, 3
3, 4
5, 2
5, 2
2, 2
5, 1
2, 4
3, 3
4, 4
1, 2
2, 1
2, 3
0, 2
2, 3
0, 4
4, 1
3, 2
1, 1
2, 7
2, 3
3, 5
3, 5
1, 3
4, 2
6, 1
3, 2
6, 3
2, 4
1, 4
3, 2
2, 3
1, 8
2, 3
1, 2
1, 1
4, 2
1, 4
3, 1
2, 2
4, 2
1, 3
2, 4
4, 2
3, 1
0, 4
3, 1
2, 1
0, 1
0, 2
2, 4
4, 2
3, 2
2, 1
1, 3
2, 1
0, 2
0, 0
0, 5
3, 0
3, 2
1, 2
3, 3
3, 6
3, 4
1, 1
1, 3
4, 1
2, 2
2, 4
2, 1
2, 4
2, 4
4, 2
3, 1
4, 5
3, 4
2, 5
3, 1
1, 2
2, 2
1, 2
0, 2
1, 1
3, 1
2, 1
3, 1
0, 3
1, 1
2, 1
1, 1
1, 3
1, 4
2, 0
3, 0
2, 2
0, 4
1, 0
1, 1
2, 1
0, 1
0, 0
1, 0
0, 0
1, 2
0, 0
3, 0
1, 2
1, 0
0, 1
1, 1
0, 0
1, 2
0, 2
2, 1
0, 1
4, 0
1, 1
1, 2
3, 0
2, 3
0, 2
0, 1
0, 2
2, 2
1, 2
1, 2
1, 1
3, 1
1, 0
0, 0
1, 1
3, 0
1, 1
0, 2
0, 1
0, 1
1, 3
1, 0
0, 1
2, 1
2, 2
1, 1
0, 0
1, 1
3, 3
1, 1
0, 0
1, 0
0, 2
1, 0
0, 2
2, 0
3, 2
1, 1
0, 0
1, 1
1, 0
2, 0
0, 0
0, 0
2, 0
1, 0
0, 2
1, 0
1, 2
0, 0
0, 1
1, 0
0, 1
1, 0
1, 1
2, 0
0, 0
1, 1
2, 0
0, 0
2, 0
0, 2
0, 1
1, 1
1, 1
2, 1
0, 2
1, 1
1, 0
0, 0
1, 0
2, 0
1, 1
2, 0
0, 0
0, 0
0, 0
0, 1
1, 1
0, 0
0, 0
0, 1
0, 1
0, 3
0, 0
1, 0
1, 1
0, 0
0, 0
0, 1
0, 1
3, 0
0, 0
0, 2
0, 0
1, 0
1, 1
0, 0
0, 0
1, 0
0, 0
0, 1
1, 0
0, 1
0, 0
0, 0
0, 0
0, 1
0, 0
1, 0
0, 0
0, 3
0, 0
0, 0
0, 0
2, 0
2, 0
1, 2
0, 0
0, 0
1, 0
1, 1
0, 0
0, 0
1, 0
0, 0
0, 0
1, 0
0, 1
1, 0
0, 0
0, 1
1, 0
1, 0
0, 0
0, 1
0, 0
0, 0
1, 0
0, 0
0, 1
0, 0
0, 0
0, 0
1, 1
0, 0
0, 0
0, 0
0, 1
0, 0
0, 0
0, 0
0, 0
1, 0
0, 0
0, 0
0, 2
0, 0
0, 2
0, 0
0, 0
0, 0
1, 0
0, 0
1, 0
1, 0
0, 0
0, 2
0, 0
1, 0
1, 0
1, 0
0, 0
0, 1
0, 0
0, 0
0, 0
0, 1
0, 0
1, 0
0, 0
1, 1
0, 0
1, 1
0, 0
0, 1
1, 0
0, 0
1, 0
0, 0
0, 0
1, 0
0, 0
1, 0
0, 1
0, 1
0, 0
0, 0
0, 1
0, 1
1, 0
1, 0
0, 1
2, 2
0, 0
0, 0
1, 1
0, 0
0, 0
0, 0
0, 0
1, 0
0, 0
0, 0
0, 0
0, 0
1, 0
1, 1
0, 0
0, 1
0, 0
0, 1
1, 1
0, 1
0, 0
0, 0
0, 1
0, 0
1, 0
0, 0
0, 0
0, 1
0, 1
0, 1
0, 0
0, 0
0, 0
0, 0
0, 0
0, 0
0, 0
0, 0
1, 0
1, 0
0, 0
0, 0
0, 1
0, 0
0, 0
0, 0
0, 1
0, 1
0, 0
2, 0
0, 0
0, 0
0, 0
0, 0
0, 0
0, 0
0, 0
0, 0
0, 0
0, 0
1, 0
0, 0
0, 0
0, 0
1, 0
1, 0
0, 0
0, 0
0, 1
0, 0
0, 0
0, 0
0, 0
1, 0
0, 0
1, 0
0, 0
0, 0
0, 0
0, 0
0, 0
0, 0
0, 0
0, 0
0, 0
0, 0
0, 0
0, 0
0, 0
0, 1
0, 0
0, 0
0, 0
1, 0
0, 0
0, 0
0, 0
0, 0
0, 0
0, 0
0, 0
0, 0
0, 0
1, 0
0, 0
0, 0
0, 0
1, 0
0, 0
0, 0
0, 0
0, 0
0, 0
0, 0
0, 0
0, 0
0, 0
0, 0
0, 0
0, 0
0, 0
1, 0
0, 0
0, 0
0, 0
0, 0
0, 0
0, 0
0, 0
0, 0
0, 0
0, 0
0, 0
0, 0
0, 0
0, 0
0, 0
0, 0
0, 1
0, 0
0, 0
0, 0
0, 0
0, 0
0, 0
0, 0
0, 1
0, 0
0, 0
0, 0
0, 0
0, 0
0, 0
0, 0
0, 0
0, 0
0, 0
0, 0
0, 0
0, 0
0, 0
0, 0
0, 0
0, 0
0, 0
0, 0
0, 0
0, 0
0, 0
0, 0
0, 0
0, 0
0, 0
0, 0
0, 0
0, 0
0, 0
0, 0
0, 0
0, 0
0, 0
0, 0
0, 0
0, 0
0, 0
0, 0
0, 0
0, 0
0, 0
0, 1
0, 0
0, 0
0, 0
0, 0
0, 0
0, 0
0, 0
0, 0
0, 0
0, 0
0, 0
0, 0
0, 0
0, 0
0, 0
0, 0
0, 0
0, 0
0, 0
0, 0
0, 0
0, 0
0, 0
0, 0
0, 0
0, 0
0, 0
0, 0
0, 0
0, 0
0, 0
0, 0
0, 0
0, 0
0, 0
0, 0
0, 0
0, 0
0, 0
0, 0
0, 0
0, 0
0, 0
0, 0
0, 0
0, 0
0, 0
0, 0
0, 0
0, 0
0, 0
0, 0
0, 0
0, 0
0, 0
0, 0
0, 0
0, 0
0, 0
0, 0
0, 0
0, 0
0, 0
0, 0
0, 0
0, 0
0, 0
0, 0
0, 0
0, 0
0, 0
0, 0
0, 0
0, 0
0, 0
0, 0
0, 0
0, 0
0, 0
0, 0
0, 0
0, 0
0, 0
0, 0
0, 0
0, 0
0, 0
0, 0
0, 0
0, 0
0, 0
0, 0
0, 0
0, 0
0, 0
0, 0
0, 0
0, 0
0, 0
0, 0
0, 0
0, 0
0, 0
0, 0
0, 0
0, 0
0, 0
0, 0
0, 0
0, 0
0, 0
0, 0
0, 0
0, 0
0, 0
0, 0
0, 0
0, 0
0, 0
0, 0
0, 0
0, 0
0, 0
0, 0
0, 0
0, 0
0, 0
0, 0
0, 0
0, 0
0, 0
0, 0
0, 0
0, 0
0, 0
0, 0
0, 0
0, 0
0, 0
0, 0
0, 0
0, 0
0, 0
0, 0
0, 0
0, 0
0, 0
0, 0
0, 0
0, 0
0, 0
0, 0
0, 0
0, 0
0, 0
0, 0
0, 0
0, 0
0, 0
0, 0
0, 0
0, 0
0, 0
0, 0
0, 0
0, 0
0, 0
0, 0
0, 0
0, 0
0, 0
0, 0
0, 0
0, 0
0, 0
0, 0
0, 0
0, 0
0, 0
0, 0
0, 0
0, 0
0, 0
0, 0
0, 0
0, 0
0, 0
0, 0
0, 0
0, 0
0, 0
0, 0
0, 0
0, 0
0, 0
0, 0
0, 0
0, 0
0, 0
0, 0
0, 0
0, 0
0, 0
0, 0
0, 0
0, 0
0, 0
0, 0
0, 0
0, 0
0, 0
0, 0
0, 0
0, 0
0, 0
0, 0
0, 0
0, 0
0, 0
0, 0
0, 0
0, 0
0, 0
0, 0
0, 0
0, 0
0, 0
0, 0
0, 0
0, 0
0, 0
0, 0
0, 0
0, 0
0, 0
0, 0
0, 0
0, 0
0, 0
0, 0
0, 0
0, 0
0, 0
0, 0
0, 0
0, 0
0, 0
0, 0
0, 0
0, 0
0, 0
0, 0
0, 0
0, 0
0, 0
0, 0
0, 0
0, 0
0, 0
0, 0
0, 0
0, 0
0, 0
0, 0
0, 0
0, 0
0, 0
0, 0
0, 0
0, 0
0, 0
0, 0
0, 0
0, 0
0, 0
0, 0
0, 0
0, 0
0, 0
0, 0
0, 0
0, 0
0, 0
0, 0
0, 0
0, 0
0, 0
0, 0
0, 0
0, 0
0, 0
0, 0
0, 0
0, 0
0, 0
0, 0
0, 0
0, 0
0, 0
0, 0
0, 0
0, 0
0, 0
0, 0
0, 0
0, 0
0, 0
0, 0
0, 0
0, 0
0, 0
0, 0
0, 0
0, 0
0, 0
0, 0
0, 0
0, 0
0, 0
0, 0
0, 0
0, 0
0, 0
0, 0
0, 0
0, 0
0, 0
0, 0
0, 0
0, 0
0, 0
0, 0
0, 0
0, 0
0, 0
0, 0
0, 0
0, 0
0, 0
0, 0
0, 0
0, 0
0, 0
0, 0
0, 0
0, 0
0, 0
0, 0
0, 0
0, 0
0, 0
0, 0
0, 0
0, 0
0, 0
0, 0
0, 0
0, 0
0, 0
0, 0
0, 0
0, 0
0, 0
0, 0
0, 0
0, 0
0, 0
0, 0
0, 0
0, 0
0, 0
0, 0
0, 0
0, 0
0, 0
0, 0
0, 0
0, 0
0, 0
0, 0
0, 0
0, 0
0, 0
0, 0
0, 0
#ENDOFDATA     end of spectrum data