File: host_upload/02-11-2024/rqc/uplink1/ps__0567_0717304816_000rfs_shot_364.msa
#FORMAT      : EMSA/MAS spectral data file
#VERSION     : TC202v2.0 PIXL
#TITLE       : Novarupta (sol567) subset1
#DATE        : 02-11-2024      Date in the format DD-MMM-YYYY, for example 07-JUL-2010
#TIME        :             The time of day at which the spectrum was recorded, in 24-hour format
#OWNER       : PIXL Flight Model       (PIXL will use this to indicate which instrument took the data.)
#NPOINTS     : 4096     Number of data points in the spectrum (This can be zero for configuration only files)
#NCOLUMNS    : 2     Number of data columns in the spectrum (This can be zero for configuration only files)
#XUNITS      : eV
#YUNITS      : COUNTS
#DATATYPE    : YY
#XPERCHAN    : 7.862, 7.881   eV per channel (separate by commas if more than one detector)
#OFFSET      : 18.5, -22.4         eV of first channel  (separate by commas if more than one detector
#SIGNALTYPE  : XRF
#YP_TEMP     : 1.626
#LIVETIME    : 8.84805, 8.8109   seconds (separate by commas if more than one detector)
#REALTIME    : 10, 10.0   seconds (separate by commas if more than one detector)
#SPECTRUM    : start of spectrum data
0, 0
0, 0
0, 0
0, 0
0, 0
0, 0
0, 0
0, 0
0, 0
0, 0
0, 0
0, 0
0, 0
0, 0
0, 0
0, 0
0, 0
0, 0
0, 0
0, 0
0, 0
0, 0
0, 0
0, 0
0, 0
0, 0
0, 0
0, 0
1, 0
0, 0
0, 0
0, 0
0, 0
0, 1
1, 1
1, 0
1, 1
5, 3
3, 5
1, 3
3, 2
5, 3
5, 2
4, 4
4, 1
6, 0
4, 4
2, 4
4, 0
4, 7
6, 4
8, 5
13, 10
11, 12
15, 15
14, 15
8, 18
12, 6
5, 11
20, 14
11, 15
32, 29
25, 36
45, 38
75, 52
58, 54
35, 42
32, 33
44, 45
55, 77
98, 131
185, 203
289, 326
332, 492
458, 536
465, 528
405, 444
327, 368
238, 236
155, 156
80, 84
42, 52
21, 33
26, 35
28, 29
25, 30
38, 40
33, 31
17, 32
16, 24
17, 13
13, 9
19, 26
38, 40
55, 59
94, 120
147, 184
202, 203
254, 270
235, 276
179, 237
176, 183
134, 135
87, 98
61, 76
60, 43
55, 47
54, 56
68, 73
115, 109
135, 176
161, 189
176, 206
171, 195
163, 190
133, 146
120, 133
93, 97
80, 81
80, 86
67, 76
65, 77
53, 69
57, 53
50, 48
36, 35
40, 32
25, 25
16, 21
14, 11
11, 9
7, 6
3, 7
5, 6
9, 6
3, 6
2, 10
21, 20
15, 17
17, 24
20, 39
26, 34
27, 33
32, 22
16, 24
13, 21
11, 6
13, 9
8, 12
16, 21
19, 33
36, 51
69, 110
125, 145
172, 231
209, 316
299, 374
294, 366
319, 424
282, 307
217, 251
154, 152
96, 107
48, 73
33, 39
29, 34
16, 26
28, 46
40, 47
38, 46
49, 67
61, 70
40, 53
33, 46
35, 31
22, 20
18, 23
11, 14
8, 14
7, 9
6, 9
6, 12
6, 12
9, 15
10, 16
16, 20
13, 23
19, 28
40, 33
38, 45
47, 54
69, 68
57, 61
56, 70
50, 60
31, 54
41, 44
25, 30
26, 32
16, 21
11, 12
13, 13
18, 20
12, 19
9, 11
12, 16
12, 18
13, 18
25, 21
25, 11
17, 23
18, 21
17, 20
13, 15
9, 15
10, 19
11, 8
8, 15
19, 18
6, 12
14, 12
12, 9
10, 13
12, 15
18, 10
17, 16
10, 28
25, 25
20, 34
18, 32
18, 30
33, 36
22, 32
29, 26
22, 25
11, 23
7, 14
14, 18
13, 15
9, 17
3, 14
15, 11
16, 18
16, 14
16, 11
15, 29
31, 20
27, 38
44, 51
34, 47
51, 70
56, 46
44, 42
34, 42
39, 32
29, 27
26, 29
22, 22
14, 20
14, 29
20, 27
25, 22
36, 53
62, 82
110, 170
201, 308
341, 472
535, 789
810, 1110
1150, 1441
1389, 1817
1584, 1932
1712, 2035
1529, 1814
1406, 1530
1150, 1230
888, 886
579, 586
348, 308
214, 214
103, 106
66, 50
39, 28
27, 27
27, 23
14, 21
10, 20
15, 23
13, 19
22, 21
24, 27
22, 35
34, 55
55, 71
74, 89
111, 130
160, 208
190, 229
229, 288
232, 274
229, 311
233, 274
196, 237
173, 168
127, 145
85, 89
51, 49
45, 30
24, 29
17, 16
11, 16
6, 13
11, 9
7, 12
9, 8
12, 8
12, 20
12, 13
10, 9
11, 12
6, 8
7, 9
10, 7
4, 7
7, 6
8, 12
5, 17
6, 7
4, 5
8, 3
2, 7
5, 5
9, 6
4, 4
7, 9
1, 4
6, 8
5, 10
7, 12
3, 6
5, 8
7, 7
5, 4
4, 6
6, 4
6, 4
8, 9
8, 5
8, 6
9, 18
3, 6
5, 10
8, 5
3, 12
7, 12
2, 10
4, 7
3, 6
4, 10
4, 12
7, 5
6, 11
8, 6
10, 19
11, 12
7, 11
10, 20
7, 18
12, 11
5, 8
11, 13
6, 5
7, 12
7, 12
4, 8
10, 2
6, 1
4, 11
6, 6
4, 5
5, 9
3, 8
3, 10
6, 9
9, 10
10, 3
1, 3
4, 8
5, 6
4, 10
7, 6
7, 4
4, 3
5, 8
6, 2
3, 3
4, 8
6, 4
4, 4
3, 8
7, 4
3, 6
4, 4
5, 6
4, 8
7, 6
5, 12
3, 5
6, 3
6, 4
5, 6
7, 5
9, 5
2, 7
5, 3
4, 5
4, 7
3, 6
2, 3
5, 5
5, 3
1, 7
2, 4
5, 11
4, 9
2, 7
4, 6
5, 9
4, 9
4, 5
5, 3
7, 4
4, 8
6, 3
3, 3
3, 2
3, 4
2, 6
3, 4
2, 7
4, 7
1, 6
6, 4
1, 8
2, 9
3, 3
4, 4
5, 8
2, 3
3, 3
5, 4
2, 4
3, 3
5, 2
5, 4
3, 0
4, 3
4, 4
4, 2
3, 4
3, 5
0, 5
2, 6
1, 4
2, 6
2, 8
1, 1
5, 1
0, 2
4, 6
5, 4
2, 4
4, 4
4, 0
2, 5
7, 2
3, 5
6, 4
3, 2
7, 5
2, 2
2, 4
4, 3
3, 5
2, 2
1, 3
1, 7
5, 4
4, 3
3, 5
5, 1
1, 1
2, 2
1, 3
2, 1
1, 1
2, 3
0, 4
3, 3
1, 4
2, 6
4, 4
1, 4
3, 1
6, 4
0, 3
3, 1
2, 1
5, 3
2, 2
3, 2
3, 5
2, 2
3, 4
4, 2
0, 4
1, 2
2, 3
1, 1
4, 2
2, 2
1, 0
1, 1
0, 1
1, 4
0, 3
2, 2
0, 1
3, 2
0, 2
1, 1
1, 5
2, 4
3, 0
4, 3
1, 3
2, 1
3, 2
2, 5
4, 4
1, 0
1, 5
6, 3
4, 2
3, 4
1, 2
5, 1
0, 5
2, 5
1, 2
0, 4
3, 1
2, 2
0, 7
1, 3
3, 0
0, 1
1, 1
2, 1
2, 4
1, 0
1, 1
1, 3
2, 2
2, 0
1, 1
1, 1
2, 3
1, 3
0, 2
5, 3
2, 4
1, 2
1, 1
1, 1
2, 2
0, 1
2, 0
3, 2
3, 0
0, 0
1, 2
1, 0
5, 6
2, 2
2, 2
1, 2
0, 1
2, 0
3, 3
0, 0
2, 2
0, 1
0, 1
2, 1
0, 2
1, 1
1, 2
0, 1
1, 0
0, 1
2, 2
0, 2
0, 0
3, 4
0, 3
3, 1
2, 1
1, 1
2, 1
1, 0
1, 1
2, 1
1, 1
0, 1
1, 1
1, 0
0, 0
0, 0
1, 0
0, 1
2, 1
1, 2
1, 1
0, 1
1, 0
1, 1
1, 0
0, 0
0, 1
0, 0
0, 1
0, 0
2, 1
0, 2
0, 0
0, 0
0, 1
1, 4
0, 1
1, 1
0, 2
1, 0
1, 0
0, 0
0, 0
2, 0
1, 0
1, 0
1, 1
0, 0
0, 1
2, 0
0, 0
0, 0
1, 1
1, 0
2, 0
0, 0
1, 1
0, 1
0, 1
0, 0
2, 1
0, 0
0, 1
0, 1
1, 0
0, 2
1, 0
0, 2
0, 1
0, 0
0, 0
0, 0
1, 0
0, 1
1, 0
0, 0
0, 0
0, 0
0, 1
1, 0
0, 0
1, 0
0, 1
0, 1
0, 1
0, 0
1, 0
0, 0
0, 0
2, 0
0, 0
2, 3
2, 0
0, 0
0, 0
1, 1
1, 0
0, 0
1, 0
1, 1
0, 0
1, 0
1, 0
1, 0
0, 1
1, 0
0, 0
0, 0
2, 0
0, 0
1, 0
0, 0
1, 0
1, 0
1, 0
0, 0
1, 0
0, 1
1, 1
0, 0
0, 0
1, 0
0, 1
1, 0
0, 0
0, 0
1, 0
0, 1
0, 0
1, 1
0, 1
0, 1
0, 1
1, 0
1, 0
0, 0
0, 0
1, 0
0, 1
0, 0
1, 0
0, 0
0, 0
1, 0
0, 0
0, 0
0, 0
0, 0
0, 0
0, 0
0, 0
0, 0
0, 0
0, 0
0, 0
0, 1
0, 0
0, 0
0, 0
0, 1
0, 0
0, 0
0, 1
1, 0
0, 0
0, 0
0, 0
0, 0
0, 0
1, 1
0, 0
0, 0
0, 0
0, 0
0, 1
0, 0
2, 0
1, 1
0, 2
0, 0
0, 0
0, 1
1, 0
1, 1
0, 0
1, 0
1, 1
0, 0
1, 0
0, 1
0, 0
0, 0
1, 0
0, 0
1, 0
1, 0
0, 2
1, 0
2, 0
0, 1
0, 0
1, 0
0, 1
1, 0
0, 0
0, 2
0, 0
1, 0
1, 0
1, 0
0, 0
0, 2
0, 0
0, 0
1, 0
0, 0
0, 0
0, 0
0, 0
0, 0
0, 0
0, 2
1, 0
1, 0
0, 0
0, 0
0, 0
1, 0
0, 0
1, 1
0, 0
0, 0
0, 0
1, 0
0, 0
0, 0
0, 0
0, 0
0, 0
0, 1
0, 0
0, 0
0, 0
1, 0
0, 0
0, 0
0, 0
0, 1
0, 0
0, 0
0, 0
0, 0
3, 0
0, 1
1, 0
1, 0
1, 0
0, 0
0, 0
0, 0
0, 0
0, 0
0, 0
0, 0
0, 1
0, 0
0, 0
0, 1
0, 0
0, 0
1, 0
0, 0
0, 0
0, 0
0, 0
0, 0
0, 0
0, 0
0, 0
0, 0
0, 1
0, 0
0, 0
0, 0
0, 0
0, 0
0, 1
1, 0
1, 0
0, 0
0, 0
0, 0
0, 0
0, 0
0, 0
0, 0
0, 0
0, 0
0, 1
0, 0
0, 0
0, 0
0, 0
0, 0
0, 0
0, 0
0, 0
0, 0
0, 0
1, 0
1, 0
0, 0
0, 0
0, 0
0, 0
0, 0
0, 0
0, 0
0, 0
0, 0
0, 0
0, 0
0, 0
0, 0
0, 0
0, 2
0, 0
0, 0
0, 0
0, 1
0, 0
0, 0
0, 0
0, 0
0, 0
0, 0
0, 0
0, 0
0, 0
0, 0
0, 0
0, 1
0, 0
0, 0
0, 0
0, 0
0, 0
0, 0
0, 0
0, 0
0, 0
0, 0
0, 0
0, 0
0, 0
0, 0
0, 0
0, 0
0, 0
0, 0
0, 0
0, 0
0, 0
0, 0
0, 0
0, 0
0, 0
0, 0
0, 1
0, 0
0, 0
0, 0
0, 0
0, 0
0, 0
0, 0
0, 0
0, 0
0, 0
0, 0
0, 0
0, 0
0, 0
0, 0
0, 0
0, 0
0, 0
0, 0
0, 0
0, 0
0, 0
0, 0
0, 0
0, 0
0, 0
0, 0
0, 0
0, 0
0, 0
0, 0
0, 0
0, 0
0, 0
0, 0
0, 0
0, 0
1, 0
0, 0
0, 0
0, 0
0, 0
0, 0
0, 0
0, 0
0, 1
0, 0
0, 0
0, 0
0, 0
0, 0
0, 0
0, 0
0, 0
0, 0
0, 0
0, 0
0, 0
0, 0
0, 0
0, 0
0, 0
0, 0
0, 0
0, 0
0, 0
0, 0
0, 0
0, 0
0, 0
0, 0
0, 0
0, 0
0, 0
0, 0
0, 0
0, 0
0, 0
0, 0
0, 0
0, 0
0, 0
0, 0
0, 0
0, 0
0, 0
0, 0
0, 0
0, 0
0, 0
0, 0
0, 0
0, 0
0, 0
0, 0
0, 0
0, 0
0, 0
0, 0
0, 0
0, 0
0, 0
0, 0
0, 0
0, 0
0, 0
0, 0
0, 0
0, 0
0, 0
0, 0
0, 0
0, 0
0, 0
0, 0
0, 0
0, 0
0, 0
0, 0
0, 0
0, 0
0, 0
0, 0
0, 0
0, 0
0, 0
0, 0
0, 0
0, 0
0, 0
0, 0
0, 0
0, 0
0, 0
0, 0
0, 0
0, 0
0, 0
0, 0
0, 0
0, 0
0, 0
0, 0
0, 0
0, 0
0, 0
0, 0
0, 0
0, 0
0, 0
0, 0
0, 0
0, 0
0, 0
0, 0
0, 0
0, 0
0, 0
0, 0
0, 0
0, 0
0, 0
0, 0
0, 0
0, 0
0, 0
0, 0
0, 0
0, 0
0, 0
0, 0
0, 0
0, 0
0, 0
0, 0
0, 0
0, 0
0, 0
0, 0
0, 0
0, 0
0, 0
0, 0
0, 0
0, 0
0, 0
0, 0
0, 0
0, 0
0, 0
0, 0
0, 0
0, 0
0, 0
0, 1
0, 0
0, 0
0, 0
0, 0
0, 0
0, 0
0, 0
0, 0
0, 0
0, 0
0, 0
0, 0
0, 0
0, 0
0, 0
0, 0
0, 0
0, 0
0, 0
0, 0
0, 0
0, 0
0, 0
0, 0
0, 0
0, 0
0, 0
0, 0
0, 0
0, 0
0, 0
0, 0
0, 0
0, 0
0, 0
0, 0
0, 0
0, 0
0, 0
0, 0
0, 0
0, 0
0, 0
0, 0
0, 0
0, 0
0, 0
0, 0
0, 0
0, 0
0, 0
0, 0
0, 0
0, 0
0, 0
0, 0
0, 0
0, 0
0, 0
0, 0
0, 0
0, 0
0, 0
0, 0
0, 0
0, 0
0, 0
0, 0
0, 0
0, 0
0, 0
0, 0
0, 0
0, 0
0, 0
0, 0
0, 0
0, 0
0, 0
0, 0
0, 0
0, 0
0, 0
0, 0
0, 0
0, 0
0, 0
0, 0
0, 0
0, 0
0, 0
0, 0
0, 0
0, 0
0, 0
0, 0
0, 0
0, 0
0, 0
0, 0
0, 0
0, 0
0, 0
0, 0
0, 0
0, 0
0, 0
0, 0
0, 0
0, 0
0, 0
0, 0
0, 0
0, 0
0, 0
0, 0
0, 0
0, 0
0, 0
0, 0
0, 0
0, 0
0, 0
0, 0
0, 0
0, 0
0, 0
0, 0
0, 0
0, 0
0, 0
0, 0
0, 0
0, 0
0, 0
0, 0
0, 0
0, 0
0, 0
0, 0
0, 0
0, 0
0, 0
0, 0
0, 0
0, 0
0, 0
0, 0
0, 0
0, 0
0, 0
0, 0
0, 0
0, 0
0, 0
0, 0
0, 0
0, 0
0, 0
0, 0
0, 0
0, 0
0, 0
0, 0
0, 0
0, 0
0, 0
0, 0
0, 0
0, 0
0, 0
0, 0
0, 0
0, 0
0, 0
0, 0
0, 0
0, 0
0, 0
0, 0
0, 0
0, 0
0, 0
0, 0
0, 0
0, 0
0, 0
0, 0
0, 0
0, 0
0, 0
0, 0
0, 0
0, 0
0, 0
0, 0
0, 0
0, 0
0, 0
#ENDOFDATA     end of spectrum data