File: host_upload/02-11-2024/rqc/uplink1/ps__0567_0717304816_000rfs_shot_468.msa
#FORMAT      : EMSA/MAS spectral data file
#VERSION     : TC202v2.0 PIXL
#TITLE       : Novarupta (sol567) subset1
#DATE        : 02-11-2024      Date in the format DD-MMM-YYYY, for example 07-JUL-2010
#TIME        :             The time of day at which the spectrum was recorded, in 24-hour format
#OWNER       : PIXL Flight Model       (PIXL will use this to indicate which instrument took the data.)
#NPOINTS     : 4096     Number of data points in the spectrum (This can be zero for configuration only files)
#NCOLUMNS    : 2     Number of data columns in the spectrum (This can be zero for configuration only files)
#XUNITS      : eV
#YUNITS      : COUNTS
#DATATYPE    : YY
#XPERCHAN    : 7.862, 7.881   eV per channel (separate by commas if more than one detector)
#OFFSET      : 18.5, -22.4         eV of first channel  (separate by commas if more than one detector
#SIGNALTYPE  : XRF
#YP_TEMP     : 2.267
#LIVETIME    : 8.83367, 8.82328   seconds (separate by commas if more than one detector)
#REALTIME    : 10, 10.0   seconds (separate by commas if more than one detector)
#SPECTRUM    : start of spectrum data
0, 0
0, 0
0, 0
0, 0
0, 0
0, 0
0, 0
0, 0
0, 0
0, 0
0, 0
0, 0
0, 0
0, 0
0, 0
0, 0
0, 0
0, 0
0, 0
0, 0
0, 0
0, 0
0, 0
0, 0
0, 0
0, 0
0, 0
0, 0
0, 0
0, 0
0, 0
0, 0
0, 1
1, 1
0, 1
1, 0
4, 2
3, 3
2, 6
4, 3
3, 4
0, 2
3, 2
0, 5
4, 2
0, 1
2, 3
5, 1
3, 1
3, 7
6, 6
8, 9
9, 5
13, 13
12, 14
8, 18
8, 20
7, 12
6, 7
14, 7
19, 18
27, 29
40, 36
41, 48
61, 46
40, 57
38, 40
32, 32
30, 35
54, 70
93, 117
155, 224
282, 351
385, 465
462, 503
437, 525
457, 445
340, 300
239, 264
129, 142
89, 79
50, 49
45, 29
28, 23
28, 39
33, 33
38, 40
42, 40
30, 26
28, 23
17, 23
14, 14
18, 29
41, 36
71, 72
130, 116
175, 194
222, 284
293, 315
315, 304
256, 270
219, 215
138, 156
102, 127
70, 74
53, 56
47, 57
65, 54
82, 90
138, 126
187, 155
222, 209
236, 244
215, 235
188, 201
171, 160
142, 135
105, 103
94, 97
84, 93
85, 80
74, 54
63, 69
66, 56
36, 39
35, 34
16, 34
26, 14
21, 19
15, 13
9, 18
10, 9
5, 6
9, 7
9, 6
5, 14
10, 12
16, 10
16, 22
25, 21
23, 33
18, 31
23, 24
17, 19
19, 21
10, 16
10, 8
8, 14
11, 12
18, 18
21, 21
33, 50
76, 84
121, 166
193, 225
266, 293
336, 401
351, 398
317, 341
300, 287
245, 220
167, 171
88, 101
63, 61
50, 29
22, 35
28, 31
29, 38
33, 37
44, 36
70, 57
60, 62
48, 67
43, 49
38, 44
20, 22
9, 13
10, 14
6, 10
7, 7
7, 7
8, 6
14, 8
4, 6
10, 15
9, 11
14, 17
24, 16
28, 29
46, 43
46, 57
66, 66
68, 75
56, 77
53, 53
46, 36
26, 28
31, 26
19, 21
14, 17
18, 17
9, 12
9, 8
11, 12
14, 24
16, 14
18, 9
16, 22
14, 18
18, 24
22, 20
21, 15
18, 19
10, 17
10, 14
14, 6
10, 11
13, 10
9, 6
12, 15
11, 8
10, 11
9, 10
12, 18
21, 20
8, 16
17, 20
16, 30
31, 31
29, 35
35, 34
31, 36
26, 35
29, 23
30, 26
12, 22
24, 6
21, 14
12, 13
11, 14
9, 13
9, 7
17, 12
17, 10
18, 17
17, 24
34, 35
30, 37
33, 57
43, 53
56, 49
46, 53
53, 39
49, 43
25, 46
37, 26
19, 22
22, 30
19, 17
19, 11
13, 11
22, 27
30, 36
55, 80
110, 163
213, 277
332, 479
564, 757
824, 1064
1212, 1378
1388, 1655
1584, 1763
1740, 1918
1718, 1738
1472, 1480
1216, 1222
874, 849
612, 552
376, 317
198, 214
115, 81
61, 56
33, 39
27, 28
19, 25
17, 17
19, 22
15, 18
20, 11
23, 20
24, 27
27, 28
22, 48
51, 64
82, 101
101, 135
151, 155
196, 214
225, 298
244, 288
262, 307
233, 280
221, 211
177, 158
138, 128
88, 85
49, 49
43, 31
13, 23
8, 19
8, 15
8, 8
10, 8
7, 10
12, 14
12, 8
12, 7
13, 9
14, 10
13, 17
5, 13
16, 16
6, 7
6, 8
10, 8
7, 4
6, 7
6, 6
7, 3
6, 6
7, 3
9, 9
5, 7
6, 10
2, 4
5, 5
5, 8
8, 7
4, 5
6, 10
10, 2
4, 4
6, 7
6, 7
6, 8
8, 7
8, 9
6, 8
3, 6
4, 6
5, 9
3, 6
3, 3
7, 5
6, 12
10, 4
9, 5
9, 5
3, 7
7, 13
8, 13
10, 6
10, 8
8, 5
12, 11
11, 18
9, 13
12, 12
12, 10
12, 9
7, 13
13, 5
6, 6
5, 7
6, 3
8, 4
8, 8
7, 5
9, 5
10, 7
9, 7
7, 6
10, 8
3, 9
3, 9
6, 5
4, 5
2, 9
7, 1
8, 5
4, 4
6, 3
5, 7
6, 5
2, 5
5, 7
8, 7
5, 4
2, 9
4, 4
2, 6
5, 11
8, 8
2, 8
6, 10
2, 4
1, 7
4, 1
8, 2
3, 3
10, 2
4, 7
2, 5
4, 4
6, 6
3, 3
8, 2
2, 1
4, 6
4, 1
5, 2
4, 9
4, 9
3, 5
1, 2
4, 4
6, 4
3, 3
5, 4
3, 3
5, 6
3, 4
3, 2
3, 4
4, 3
5, 2
3, 5
5, 1
5, 7
3, 2
5, 3
5, 4
1, 3
3, 4
1, 4
6, 3
5, 5
5, 3
1, 4
2, 3
4, 11
3, 3
2, 3
3, 6
1, 3
0, 2
1, 1
6, 1
6, 2
3, 2
3, 3
1, 7
1, 3
3, 4
2, 4
1, 0
3, 1
2, 2
7, 1
1, 1
4, 1
1, 7
2, 1
3, 6
4, 5
2, 2
1, 7
3, 4
3, 2
4, 1
2, 0
6, 4
0, 3
0, 2
1, 3
3, 3
5, 2
7, 2
2, 2
1, 1
5, 2
3, 3
7, 1
6, 0
3, 0
1, 5
1, 3
2, 3
2, 1
3, 3
4, 1
2, 5
4, 2
1, 2
3, 4
2, 2
4, 1
3, 2
1, 7
2, 1
2, 2
1, 2
1, 4
1, 2
5, 3
1, 2
1, 1
1, 4
2, 0
1, 3
3, 3
3, 3
2, 3
3, 2
2, 1
1, 2
3, 1
1, 3
2, 4
3, 3
1, 1
1, 2
2, 4
2, 0
4, 2
3, 2
1, 3
0, 4
5, 6
1, 1
3, 2
3, 3
4, 2
0, 3
3, 3
8, 2
1, 2
2, 0
3, 3
2, 2
1, 4
0, 2
1, 5
1, 0
4, 1
1, 2
1, 1
3, 0
3, 2
2, 1
2, 1
1, 1
1, 1
1, 3
1, 3
1, 2
0, 5
1, 1
1, 0
0, 1
3, 1
2, 3
3, 0
2, 2
2, 2
1, 2
0, 2
3, 0
1, 3
1, 0
1, 0
1, 1
1, 2
4, 0
1, 0
3, 4
3, 1
2, 2
0, 2
0, 0
1, 1
2, 0
1, 5
1, 2
0, 1
0, 0
0, 1
1, 2
1, 0
3, 0
1, 1
0, 0
3, 0
1, 2
1, 3
1, 0
2, 2
2, 0
1, 1
1, 0
0, 2
1, 2
3, 1
2, 0
1, 1
2, 0
0, 2
2, 1
2, 2
0, 1
0, 2
1, 1
1, 0
1, 1
1, 0
3, 0
0, 0
1, 1
2, 1
0, 2
1, 0
1, 3
0, 2
1, 0
0, 1
0, 2
0, 3
1, 2
0, 1
0, 0
1, 3
0, 1
0, 0
1, 0
1, 1
1, 1
0, 1
0, 2
1, 1
2, 1
1, 0
1, 1
0, 0
0, 0
1, 0
1, 2
0, 2
1, 1
0, 0
1, 3
1, 0
0, 2
0, 1
0, 0
2, 0
0, 0
3, 0
0, 0
0, 0
1, 2
1, 0
1, 1
0, 1
0, 0
0, 0
0, 0
1, 2
1, 0
0, 1
0, 2
0, 1
0, 1
1, 0
0, 0
0, 0
0, 0
1, 0
0, 0
0, 0
0, 2
0, 1
0, 0
1, 0
1, 1
0, 1
0, 1
0, 1
1, 0
0, 0
0, 0
1, 2
0, 1
0, 1
0, 0
0, 1
0, 0
1, 2
0, 0
0, 0
0, 1
0, 0
0, 0
1, 0
1, 0
0, 1
1, 1
0, 3
0, 0
0, 1
1, 0
0, 0
2, 0
1, 0
1, 0
0, 1
0, 0
1, 0
0, 0
0, 0
0, 0
1, 0
0, 0
0, 0
0, 0
0, 0
0, 0
0, 0
0, 0
0, 0
0, 0
0, 0
0, 1
1, 1
0, 0
0, 0
0, 0
1, 0
0, 0
0, 0
1, 0
0, 1
0, 0
0, 0
0, 0
0, 1
0, 0
0, 0
0, 1
0, 0
1, 0
0, 0
0, 0
1, 1
0, 1
0, 0
0, 0
0, 0
2, 0
0, 0
0, 0
0, 0
0, 0
0, 0
0, 0
0, 0
0, 0
0, 1
0, 1
0, 0
0, 0
0, 0
0, 0
1, 0
0, 0
0, 1
0, 0
0, 0
0, 0
0, 0
1, 1
0, 0
1, 0
0, 0
0, 1
1, 1
1, 0
0, 0
0, 0
1, 0
0, 1
1, 0
0, 0
0, 1
0, 0
0, 1
0, 0
0, 1
0, 0
0, 0
0, 0
0, 0
0, 1
0, 0
0, 1
0, 0
0, 0
0, 0
1, 0
0, 0
0, 0
0, 0
0, 0
0, 0
0, 1
0, 0
0, 0
0, 0
0, 0
0, 0
0, 0
0, 0
0, 0
1, 0
0, 0
0, 0
0, 0
0, 0
0, 0
0, 0
2, 0
0, 0
0, 0
0, 0
0, 0
0, 0
0, 0
0, 0
0, 0
0, 0
0, 0
0, 0
0, 0
0, 0
0, 0
0, 0
0, 1
0, 1
0, 2
0, 0
0, 0
0, 0
0, 1
0, 0
0, 1
0, 0
0, 0
0, 1
0, 0
0, 0
0, 0
0, 0
0, 0
0, 0
0, 0
0, 0
0, 0
0, 1
0, 0
0, 0
0, 0
0, 0
0, 0
0, 0
1, 0
0, 0
0, 0
0, 0
0, 0
0, 1
0, 0
0, 1
0, 0
0, 0
0, 0
0, 0
0, 0
0, 0
0, 0
0, 0
1, 0
0, 0
0, 0
0, 0
0, 0
0, 0
0, 1
0, 0
0, 0
0, 0
0, 0
0, 0
0, 1
0, 0
0, 0
0, 0
0, 0
0, 0
0, 0
0, 0
0, 0
0, 0
0, 0
0, 0
0, 0
0, 0
1, 0
0, 0
0, 0
0, 0
0, 0
0, 0
0, 0
0, 0
0, 0
0, 0
0, 0
0, 0
0, 0
0, 0
0, 0
0, 0
0, 0
0, 0
0, 0
0, 0
0, 0
0, 0
0, 0
0, 0
0, 0
0, 0
1, 0
0, 0
0, 0
0, 0
0, 0
0, 0
0, 0
0, 0
0, 1
0, 0
0, 0
0, 0
0, 0
0, 0
0, 0
0, 0
0, 0
0, 0
0, 0
0, 0
0, 0
0, 0
0, 0
0, 0
0, 0
0, 0
0, 0
0, 0
0, 0
0, 0
0, 0
0, 0
0, 0
0, 0
0, 0
0, 0
0, 0
0, 0
0, 0
0, 0
0, 0
0, 0
0, 0
0, 1
0, 0
0, 0
0, 0
0, 0
0, 0
0, 0
0, 0
0, 0
0, 0
0, 0
0, 0
0, 0
0, 0
0, 0
0, 0
0, 0
0, 0
0, 0
0, 0
0, 0
0, 0
0, 0
0, 0
0, 0
0, 0
0, 0
0, 0
0, 0
0, 0
0, 0
0, 0
0, 0
0, 0
0, 0
0, 0
0, 0
0, 0
0, 0
0, 0
0, 0
0, 0
0, 0
0, 0
0, 0
0, 0
0, 0
0, 0
0, 0
0, 0
0, 0
0, 0
0, 0
0, 0
0, 0
0, 0
0, 0
0, 0
0, 0
0, 0
0, 0
0, 0
0, 0
0, 0
0, 0
0, 0
0, 0
0, 0
0, 0
0, 0
0, 0
0, 0
0, 0
0, 0
0, 0
0, 0
0, 0
0, 0
0, 0
0, 0
0, 1
0, 0
0, 0
0, 0
0, 0
0, 0
0, 0
0, 0
0, 0
0, 0
0, 0
0, 0
0, 0
0, 0
0, 0
0, 0
0, 0
0, 0
0, 0
0, 0
0, 0
0, 0
0, 0
0, 0
0, 0
0, 0
0, 0
0, 0
0, 0
0, 0
0, 0
0, 0
0, 0
0, 0
0, 0
0, 0
0, 0
0, 0
0, 0
0, 0
0, 0
0, 0
0, 0
0, 0
0, 0
0, 0
0, 0
0, 0
0, 0
0, 0
0, 0
0, 0
0, 0
0, 0
0, 0
0, 0
0, 0
0, 0
0, 0
0, 0
0, 0
0, 0
0, 0
0, 0
0, 0
0, 0
0, 0
0, 0
0, 0
0, 0
0, 0
0, 0
0, 0
0, 0
0, 0
0, 0
0, 0
0, 0
0, 0
0, 0
0, 0
0, 0
0, 0
0, 0
0, 0
0, 0
0, 0
0, 0
0, 0
0, 0
0, 0
0, 0
0, 0
0, 0
0, 0
0, 0
0, 0
0, 0
0, 0
0, 0
0, 0
0, 0
0, 0
0, 0
0, 0
0, 0
0, 0
0, 0
0, 0
0, 0
0, 0
0, 0
0, 0
0, 0
0, 0
0, 0
0, 0
0, 0
0, 0
0, 0
0, 0
0, 0
0, 0
0, 0
0, 0
0, 0
0, 0
0, 0
0, 0
0, 0
0, 0
0, 0
0, 0
0, 0
0, 0
0, 0
0, 0
0, 0
0, 0
0, 0
0, 0
0, 0
0, 0
0, 0
0, 0
0, 0
0, 0
0, 0
0, 0
0, 0
0, 0
0, 0
0, 0
0, 0
0, 0
0, 0
0, 0
0, 0
0, 0
0, 0
0, 0
0, 0
0, 0
0, 0
0, 0
0, 0
0, 0
0, 0
0, 0
0, 0
0, 0
0, 0
0, 0
0, 0
0, 0
0, 0
0, 0
0, 0
0, 0
0, 0
0, 0
0, 0
0, 0
0, 0
0, 0
0, 0
0, 0
0, 0
0, 0
0, 0
0, 0
0, 0
0, 0
0, 0
0, 0
0, 0
0, 0
0, 0
0, 0
0, 0
0, 0
0, 0
0, 0
0, 0
0, 0
0, 0
0, 0
0, 0
0, 0
0, 0
0, 0
0, 0
0, 0
0, 0
0, 0
0, 0
0, 0
0, 0
0, 0
0, 0
0, 0
0, 0
0, 0
0, 0
0, 0
0, 0
0, 0
0, 0
0, 0
0, 0
0, 0
0, 0
0, 0
0, 0
0, 0
0, 0
0, 0
0, 0
0, 0
0, 0
0, 0
0, 0
0, 0
0, 0
0, 0
0, 0
0, 0
0, 0
0, 0
0, 0
0, 0
0, 0
0, 0
0, 0
0, 0
0, 0
0, 0
0, 0
0, 0
0, 0
0, 0
0, 0
0, 0
0, 0
0, 0
0, 0
0, 0
0, 0
0, 0
0, 0
0, 0
0, 0
0, 0
0, 0
0, 0
0, 0
0, 0
0, 0
0, 0
0, 0
0, 0
0, 0
0, 0
0, 0
0, 0
0, 0
0, 0
0, 0
0, 0
0, 0
0, 0
0, 0
#ENDOFDATA     end of spectrum data