File: host_upload/02-11-2024/rqc/uplink1/ps__0567_0717304816_000rfs_shot_263.msa
#FORMAT      : EMSA/MAS spectral data file
#VERSION     : TC202v2.0 PIXL
#TITLE       : Novarupta (sol567) subset1
#DATE        : 02-11-2024      Date in the format DD-MMM-YYYY, for example 07-JUL-2010
#TIME        :             The time of day at which the spectrum was recorded, in 24-hour format
#OWNER       : PIXL Flight Model       (PIXL will use this to indicate which instrument took the data.)
#NPOINTS     : 4096     Number of data points in the spectrum (This can be zero for configuration only files)
#NCOLUMNS    : 2     Number of data columns in the spectrum (This can be zero for configuration only files)
#XUNITS      : eV
#YUNITS      : COUNTS
#DATATYPE    : YY
#XPERCHAN    : 7.862, 7.881   eV per channel (separate by commas if more than one detector)
#OFFSET      : 18.5, -22.4         eV of first channel  (separate by commas if more than one detector
#SIGNALTYPE  : XRF
#YP_TEMP     : 1.209
#LIVETIME    : 8.85198, 8.80913   seconds (separate by commas if more than one detector)
#REALTIME    : 10, 10.0   seconds (separate by commas if more than one detector)
#SPECTRUM    : start of spectrum data
0, 0
0, 0
0, 0
0, 0
0, 0
0, 0
0, 0
0, 0
0, 0
0, 0
0, 0
0, 0
0, 0
0, 0
0, 0
0, 0
0, 0
0, 0
0, 0
0, 0
0, 0
0, 0
0, 0
0, 0
0, 0
0, 0
0, 0
0, 0
0, 0
0, 0
0, 1
0, 0
0, 1
0, 0
1, 1
3, 0
1, 3
1, 3
2, 3
6, 7
1, 4
4, 1
1, 4
2, 10
3, 5
4, 3
4, 8
1, 3
1, 2
4, 3
5, 5
10, 13
11, 15
14, 18
16, 21
14, 10
11, 21
10, 8
9, 9
8, 9
13, 16
31, 17
35, 44
43, 58
43, 44
45, 56
32, 55
30, 37
36, 38
54, 90
109, 138
195, 236
275, 355
364, 478
435, 549
430, 538
415, 495
315, 392
228, 265
147, 134
68, 78
38, 55
38, 32
23, 21
28, 34
25, 30
23, 27
30, 28
20, 29
17, 32
10, 21
21, 14
21, 23
37, 46
61, 90
117, 146
167, 217
278, 283
251, 322
275, 302
242, 274
188, 234
121, 172
98, 103
73, 77
42, 53
40, 62
64, 89
73, 118
92, 144
151, 211
186, 232
205, 239
213, 238
188, 208
170, 184
119, 140
109, 129
79, 113
72, 59
64, 67
57, 89
55, 79
64, 54
46, 40
45, 34
30, 35
26, 25
24, 20
18, 12
10, 13
12, 6
10, 9
9, 4
6, 11
9, 9
10, 9
14, 18
22, 18
24, 16
11, 25
31, 39
19, 28
20, 26
24, 20
15, 21
10, 11
6, 14
7, 14
10, 14
32, 24
43, 53
81, 105
129, 162
226, 255
247, 320
288, 367
355, 421
329, 393
278, 318
228, 251
135, 149
92, 100
60, 60
33, 43
21, 37
20, 23
30, 39
39, 49
48, 63
39, 64
53, 76
57, 69
46, 48
40, 32
25, 18
14, 22
20, 11
9, 10
12, 10
8, 8
11, 9
7, 7
12, 13
9, 11
16, 12
16, 26
13, 30
28, 45
49, 53
35, 65
43, 76
70, 75
51, 65
44, 69
44, 53
34, 22
28, 19
22, 28
14, 26
13, 13
14, 9
13, 9
19, 23
7, 13
11, 17
9, 15
10, 13
15, 21
25, 19
21, 20
17, 14
17, 24
16, 19
18, 28
10, 9
12, 13
12, 11
11, 8
9, 16
8, 12
12, 16
8, 11
8, 14
13, 20
12, 20
18, 15
24, 32
27, 24
18, 49
19, 25
31, 31
23, 37
25, 24
15, 25
18, 13
13, 17
11, 18
0, 15
13, 16
14, 15
10, 22
9, 14
14, 14
17, 13
12, 23
18, 31
22, 31
38, 50
48, 49
44, 57
45, 59
45, 48
43, 38
26, 41
34, 24
22, 30
13, 33
12, 19
13, 24
13, 34
16, 45
39, 50
69, 86
114, 158
186, 287
354, 492
541, 748
796, 1054
1048, 1478
1344, 1677
1571, 1880
1608, 1974
1563, 1893
1308, 1589
1120, 1150
796, 835
541, 556
312, 304
207, 200
114, 107
68, 68
35, 34
18, 24
17, 14
18, 10
19, 13
14, 25
19, 24
14, 20
26, 37
21, 26
50, 52
49, 73
73, 94
110, 176
146, 169
186, 243
220, 247
249, 304
226, 295
221, 251
190, 226
154, 166
136, 115
92, 99
56, 53
43, 36
22, 30
15, 14
5, 9
1, 12
10, 10
6, 13
10, 15
7, 19
10, 12
8, 16
8, 27
16, 19
5, 12
10, 13
9, 11
9, 8
9, 11
6, 4
6, 6
2, 8
6, 4
9, 6
7, 6
7, 4
4, 5
8, 6
5, 3
6, 9
5, 11
12, 9
5, 4
8, 6
5, 5
6, 4
6, 9
5, 8
7, 4
7, 6
8, 10
5, 8
8, 10
7, 5
9, 7
8, 6
9, 15
5, 7
4, 5
9, 10
8, 5
3, 8
6, 4
7, 7
11, 12
5, 9
10, 11
8, 10
9, 13
10, 13
8, 18
12, 8
11, 13
8, 12
5, 13
11, 10
4, 8
6, 10
7, 6
6, 7
8, 9
6, 4
6, 5
8, 6
6, 6
6, 6
4, 4
9, 9
8, 6
4, 5
3, 9
2, 5
2, 6
3, 7
3, 5
4, 3
11, 7
6, 7
4, 5
6, 5
6, 4
4, 8
0, 6
8, 8
7, 7
7, 3
3, 7
4, 2
5, 5
5, 4
6, 4
4, 6
6, 8
1, 5
9, 6
3, 11
2, 1
1, 3
10, 5
5, 1
2, 8
2, 4
2, 2
7, 2
6, 1
6, 5
4, 4
6, 3
6, 3
5, 6
3, 3
3, 4
4, 4
5, 5
1, 3
6, 10
3, 4
5, 7
1, 2
3, 3
1, 9
2, 1
1, 3
2, 3
1, 5
6, 5
1, 3
6, 4
6, 2
2, 2
3, 5
1, 5
7, 3
2, 3
0, 2
2, 4
5, 7
0, 0
1, 2
3, 5
7, 2
2, 1
7, 3
3, 2
4, 2
2, 0
2, 3
7, 4
4, 0
1, 2
0, 3
1, 3
6, 3
1, 5
0, 3
0, 4
1, 4
6, 3
3, 5
2, 1
2, 1
1, 9
3, 7
4, 0
1, 3
2, 6
2, 3
4, 3
2, 1
3, 7
2, 4
3, 3
0, 4
1, 5
2, 4
0, 2
4, 2
4, 3
1, 3
2, 1
0, 1
1, 7
2, 2
1, 1
1, 4
2, 1
2, 6
2, 3
2, 3
2, 1
2, 4
5, 2
0, 2
3, 0
3, 1
3, 3
4, 2
1, 2
1, 6
1, 2
4, 4
1, 1
1, 1
4, 2
3, 4
4, 4
2, 6
1, 2
1, 1
2, 4
3, 5
4, 2
0, 4
0, 2
2, 1
3, 2
0, 5
1, 0
2, 1
5, 5
3, 2
3, 6
4, 0
5, 3
2, 2
3, 2
3, 1
3, 6
3, 4
2, 3
3, 5
1, 3
2, 3
0, 1
2, 3
1, 1
0, 1
1, 2
2, 4
1, 1
1, 0
1, 4
0, 0
1, 1
3, 2
1, 0
1, 0
3, 1
2, 2
3, 1
2, 2
2, 3
2, 0
0, 1
1, 2
1, 2
4, 2
0, 1
1, 2
3, 1
1, 1
1, 2
3, 0
0, 0
0, 1
1, 0
1, 1
1, 1
1, 0
2, 0
2, 2
3, 0
0, 2
0, 2
4, 3
3, 0
1, 4
0, 0
1, 3
0, 1
0, 4
4, 2
0, 0
1, 2
2, 0
0, 3
2, 1
0, 0
2, 1
3, 2
0, 2
0, 2
1, 2
2, 0
1, 0
0, 1
3, 1
0, 1
0, 1
1, 0
1, 0
0, 0
2, 0
1, 0
0, 0
1, 0
0, 0
0, 1
1, 0
2, 2
0, 2
2, 1
0, 0
0, 2
2, 2
1, 1
2, 1
0, 0
0, 1
0, 1
0, 0
2, 2
2, 0
1, 0
1, 0
1, 0
1, 1
1, 0
1, 1
0, 0
0, 2
0, 1
0, 1
0, 1
0, 0
1, 1
0, 0
2, 1
1, 0
0, 3
0, 0
1, 1
2, 0
0, 1
1, 1
0, 0
1, 1
0, 1
1, 0
0, 0
0, 0
1, 1
0, 0
1, 1
0, 1
1, 1
2, 1
1, 0
1, 1
0, 0
0, 0
3, 0
1, 0
0, 1
0, 1
2, 1
0, 0
0, 0
0, 1
0, 0
1, 1
1, 0
0, 1
1, 2
0, 0
0, 0
0, 0
2, 1
0, 0
1, 0
0, 1
1, 0
0, 0
0, 1
0, 0
0, 0
0, 0
1, 1
1, 0
1, 1
0, 0
0, 1
0, 0
0, 0
0, 0
0, 0
0, 3
0, 2
0, 0
0, 0
0, 0
0, 1
0, 0
0, 0
0, 0
0, 1
0, 0
1, 1
0, 0
0, 1
0, 1
0, 0
0, 1
0, 0
1, 1
1, 0
0, 0
0, 0
0, 0
0, 0
0, 0
0, 0
0, 0
2, 1
0, 0
0, 0
0, 0
0, 0
1, 0
0, 2
0, 0
2, 0
0, 1
1, 0
0, 1
1, 0
0, 1
0, 0
0, 0
0, 0
0, 0
0, 0
0, 0
0, 0
0, 0
0, 0
0, 0
1, 0
0, 1
0, 0
0, 0
0, 0
0, 0
1, 0
0, 1
0, 0
0, 2
0, 0
0, 0
0, 0
0, 2
0, 0
0, 0
1, 0
0, 1
1, 0
0, 0
0, 1
0, 0
0, 1
0, 1
0, 0
0, 0
0, 0
0, 1
1, 0
0, 0
0, 0
1, 0
0, 0
0, 0
0, 0
1, 0
0, 0
0, 0
0, 0
0, 0
0, 0
0, 0
0, 0
0, 1
0, 0
0, 0
0, 0
0, 0
0, 0
0, 0
0, 0
0, 1
0, 0
0, 0
0, 0
0, 0
0, 0
0, 0
0, 0
0, 2
0, 0
0, 0
0, 0
0, 0
0, 0
0, 0
0, 0
0, 0
0, 0
0, 0
0, 0
0, 1
0, 0
0, 0
0, 0
0, 1
0, 0
0, 0
0, 0
0, 2
0, 0
0, 1
0, 0
0, 0
0, 0
1, 1
0, 0
1, 0
0, 1
0, 0
0, 0
0, 1
0, 0
0, 0
0, 1
0, 0
0, 0
0, 0
0, 0
0, 0
0, 0
0, 0
0, 0
0, 0
0, 0
0, 0
0, 0
0, 0
0, 0
0, 0
2, 1
0, 0
0, 0
0, 0
1, 0
0, 0
1, 0
0, 0
0, 0
0, 0
0, 1
0, 0
0, 0
0, 0
0, 0
0, 0
0, 0
0, 0
0, 1
1, 0
0, 0
0, 0
0, 0
1, 0
0, 0
0, 0
0, 0
0, 0
0, 0
0, 0
0, 0
0, 0
0, 0
0, 0
0, 0
0, 0
0, 0
0, 0
0, 0
0, 0
1, 1
0, 1
0, 0
0, 0
0, 0
0, 0
0, 0
0, 1
0, 0
0, 0
0, 0
0, 0
0, 0
0, 0
0, 0
0, 0
0, 0
0, 0
0, 0
0, 0
0, 0
0, 0
0, 0
0, 0
0, 0
0, 0
0, 0
0, 1
0, 0
0, 0
0, 0
0, 0
0, 0
0, 0
0, 0
0, 0
0, 0
0, 0
0, 0
0, 0
0, 0
0, 0
0, 0
0, 0
0, 0
0, 0
0, 0
0, 0
0, 0
0, 0
0, 0
0, 0
0, 0
0, 0
0, 0
0, 0
0, 0
0, 1
0, 0
0, 0
0, 0
0, 0
0, 0
0, 0
0, 0
0, 0
0, 0
0, 0
0, 0
0, 0
0, 0
0, 0
0, 0
0, 0
0, 0
0, 0
0, 0
0, 0
0, 0
0, 0
0, 0
0, 1
0, 0
0, 0
0, 0
0, 0
0, 0
0, 0
0, 0
0, 0
0, 0
0, 0
0, 0
0, 0
0, 0
0, 0
0, 0
0, 0
0, 0
0, 0
0, 0
0, 0
0, 0
0, 0
0, 0
0, 0
0, 0
0, 0
0, 0
0, 0
0, 1
0, 0
0, 0
0, 0
0, 0
0, 0
0, 0
0, 0
0, 0
0, 0
0, 0
0, 0
0, 0
0, 0
0, 0
0, 0
0, 0
0, 0
0, 0
0, 0
0, 0
0, 0
0, 1
0, 0
0, 0
0, 0
0, 0
0, 0
0, 0
0, 0
0, 0
0, 0
0, 0
0, 0
0, 0
0, 0
0, 0
0, 0
0, 0
0, 0
0, 0
0, 0
0, 0
0, 0
0, 0
0, 0
0, 0
0, 0
0, 0
0, 0
0, 0
0, 0
0, 0
0, 0
0, 0
0, 0
0, 0
0, 0
0, 0
0, 0
0, 0
0, 0
0, 0
0, 0
0, 0
0, 0
0, 0
0, 0
0, 0
0, 0
0, 0
0, 0
0, 0
0, 0
0, 0
0, 0
0, 0
0, 0
0, 0
0, 0
0, 0
0, 0
0, 0
0, 0
0, 0
0, 0
0, 0
0, 0
0, 0
0, 0
0, 0
0, 0
0, 0
0, 0
0, 0
0, 0
0, 0
0, 0
0, 0
0, 0
0, 0
0, 0
0, 0
0, 0
0, 0
0, 0
0, 0
0, 0
0, 0
0, 0
0, 0
0, 0
0, 0
0, 0
0, 0
0, 0
0, 0
0, 0
0, 0
0, 0
0, 0
0, 0
0, 0
0, 0
0, 0
0, 0
0, 0
0, 0
0, 0
0, 0
0, 0
0, 0
0, 0
0, 0
0, 0
0, 0
0, 0
0, 0
0, 0
0, 0
0, 0
0, 0
0, 0
0, 0
0, 0
0, 0
0, 0
0, 0
0, 0
0, 0
0, 0
0, 0
0, 0
0, 0
0, 0
0, 0
0, 0
0, 0
0, 0
0, 0
0, 0
0, 0
0, 0
0, 0
0, 0
0, 0
0, 0
0, 0
0, 0
0, 0
0, 0
0, 0
0, 0
0, 0
0, 0
0, 0
0, 0
0, 0
0, 0
0, 0
0, 0
0, 0
0, 0
0, 0
0, 0
0, 0
0, 0
0, 0
0, 0
0, 0
0, 0
0, 0
0, 0
0, 0
0, 0
0, 0
0, 0
0, 0
0, 0
0, 0
0, 0
0, 0
0, 0
0, 0
0, 0
0, 0
0, 0
0, 0
0, 0
0, 0
0, 0
0, 0
0, 0
0, 0
0, 0
0, 0
0, 0
0, 0
0, 0
0, 0
0, 0
0, 0
0, 0
0, 0
0, 0
0, 0
0, 0
0, 0
0, 0
0, 0
0, 0
0, 0
0, 0
0, 0
0, 0
0, 0
0, 0
0, 0
0, 0
0, 0
0, 0
0, 0
0, 0
0, 0
0, 0
0, 0
0, 0
0, 0
0, 0
0, 0
0, 0
0, 0
0, 0
0, 0
0, 0
0, 0
0, 0
0, 0
0, 0
0, 0
0, 0
0, 0
0, 0
0, 0
0, 0
0, 0
0, 0
0, 0
0, 0
0, 0
0, 0
0, 0
0, 0
0, 0
0, 0
0, 0
0, 0
0, 0
0, 0
0, 0
0, 0
0, 0
0, 0
0, 0
0, 0
0, 0
0, 0
0, 0
0, 0
0, 0
0, 0
0, 0
0, 0
0, 0
0, 0
0, 0
0, 0
0, 0
0, 0
0, 0
0, 0
0, 0
0, 0
0, 0
0, 0
0, 0
0, 0
0, 0
0, 0
0, 0
0, 0
0, 0
0, 0
0, 0
0, 0
0, 0
0, 0
0, 0
0, 0
0, 0
0, 0
0, 0
0, 0
0, 0
0, 0
0, 0
0, 0
0, 0
0, 0
0, 0
0, 0
0, 0
0, 0
0, 0
0, 0
0, 0
0, 0
0, 0
0, 0
0, 0
0, 0
0, 0
0, 0
#ENDOFDATA     end of spectrum data