File: host_upload/02-11-2024/rqc/uplink1/ps__0567_0717304816_000rfs_shot_129.msa
#FORMAT      : EMSA/MAS spectral data file
#VERSION     : TC202v2.0 PIXL
#TITLE       : Novarupta (sol567) subset1
#DATE        : 02-11-2024      Date in the format DD-MMM-YYYY, for example 07-JUL-2010
#TIME        :             The time of day at which the spectrum was recorded, in 24-hour format
#OWNER       : PIXL Flight Model       (PIXL will use this to indicate which instrument took the data.)
#NPOINTS     : 4096     Number of data points in the spectrum (This can be zero for configuration only files)
#NCOLUMNS    : 2     Number of data columns in the spectrum (This can be zero for configuration only files)
#XUNITS      : eV
#YUNITS      : COUNTS
#DATATYPE    : YY
#XPERCHAN    : 7.862, 7.881   eV per channel (separate by commas if more than one detector)
#OFFSET      : 18.5, -22.4         eV of first channel  (separate by commas if more than one detector
#SIGNALTYPE  : XRF
#YP_TEMP     : -0.459
#LIVETIME    : 8.83748, 8.82322   seconds (separate by commas if more than one detector)
#REALTIME    : 10, 10.0   seconds (separate by commas if more than one detector)
#SPECTRUM    : start of spectrum data
0, 0
0, 0
0, 0
0, 0
0, 0
0, 0
0, 0
0, 0
0, 0
0, 0
0, 0
0, 0
0, 0
0, 0
0, 0
0, 0
0, 0
0, 0
0, 0
0, 0
0, 0
0, 0
0, 0
0, 0
0, 0
0, 0
0, 0
0, 0
0, 0
0, 0
0, 0
0, 0
0, 1
0, 1
1, 0
0, 1
3, 1
2, 3
4, 3
5, 1
1, 5
1, 3
2, 3
2, 2
0, 4
2, 1
3, 0
2, 1
4, 1
4, 8
5, 6
4, 13
13, 14
25, 10
13, 15
14, 16
15, 15
9, 11
6, 7
10, 14
14, 21
17, 25
27, 33
44, 51
53, 41
42, 42
36, 37
27, 39
40, 39
65, 79
106, 105
179, 236
295, 364
376, 433
425, 510
477, 531
375, 470
310, 336
244, 235
149, 122
78, 80
37, 43
27, 29
32, 28
22, 32
36, 48
35, 37
39, 32
25, 25
18, 26
22, 18
25, 25
25, 30
32, 51
76, 99
163, 133
194, 244
239, 340
288, 316
268, 336
222, 276
208, 217
145, 158
100, 96
69, 81
53, 68
44, 61
57, 74
78, 84
115, 135
151, 144
165, 185
184, 214
196, 204
171, 192
126, 132
131, 136
86, 97
87, 111
81, 74
62, 81
59, 83
62, 67
53, 49
40, 51
34, 35
33, 38
23, 22
14, 27
12, 16
7, 12
5, 9
6, 9
3, 8
6, 9
5, 6
5, 11
10, 13
15, 22
25, 27
28, 23
37, 33
28, 27
33, 31
26, 18
18, 14
12, 14
3, 11
12, 16
18, 23
20, 30
58, 73
83, 103
130, 185
230, 247
295, 339
345, 398
341, 387
339, 367
289, 316
237, 221
152, 157
93, 98
50, 66
43, 40
28, 24
20, 29
38, 44
58, 52
49, 63
63, 71
62, 51
58, 58
30, 61
32, 21
22, 24
19, 24
11, 11
4, 13
12, 13
6, 9
5, 9
5, 9
6, 9
10, 19
12, 20
16, 16
31, 33
32, 42
39, 45
46, 86
47, 56
55, 78
52, 60
28, 52
36, 32
23, 46
20, 30
16, 25
22, 19
11, 20
17, 9
6, 6
6, 13
10, 15
9, 19
21, 15
15, 14
13, 15
21, 22
11, 17
17, 23
13, 20
20, 13
13, 17
12, 11
12, 15
10, 12
14, 11
4, 13
10, 12
7, 15
9, 16
14, 13
13, 23
12, 11
15, 24
24, 32
16, 21
21, 35
22, 36
25, 33
27, 27
22, 24
23, 28
18, 23
13, 11
11, 16
6, 18
9, 13
16, 10
10, 13
15, 16
18, 19
19, 8
25, 18
26, 31
29, 47
33, 40
39, 42
56, 48
48, 44
40, 44
43, 42
29, 41
31, 22
29, 34
24, 33
12, 28
15, 16
25, 22
19, 39
57, 61
79, 89
152, 193
265, 327
363, 548
656, 840
932, 1131
1210, 1569
1503, 1782
1664, 1882
1678, 1822
1581, 1647
1411, 1439
1085, 1143
815, 734
526, 495
288, 301
168, 194
122, 91
59, 51
37, 37
24, 14
17, 16
11, 17
9, 16
10, 33
25, 20
24, 33
18, 31
36, 44
39, 72
72, 74
99, 109
120, 159
180, 211
186, 263
246, 290
253, 286
258, 297
222, 252
197, 222
149, 141
118, 119
85, 82
45, 48
29, 30
18, 23
13, 16
8, 10
5, 7
11, 12
8, 7
8, 13
11, 13
14, 18
18, 8
10, 11
13, 12
9, 9
10, 9
7, 15
4, 7
5, 12
6, 6
5, 4
3, 7
1, 1
5, 5
8, 7
8, 6
5, 3
5, 4
7, 11
10, 5
5, 10
5, 6
7, 6
4, 8
5, 11
6, 9
4, 4
7, 11
6, 10
12, 10
6, 4
3, 12
11, 7
7, 10
3, 9
0, 7
7, 5
13, 6
1, 6
5, 5
2, 4
3, 9
5, 6
8, 7
7, 10
13, 10
7, 14
12, 8
13, 16
11, 13
13, 12
18, 13
13, 8
8, 8
12, 10
8, 9
4, 8
4, 4
6, 3
5, 8
6, 2
6, 3
4, 5
2, 5
8, 6
4, 3
4, 0
3, 5
7, 9
5, 8
6, 5
2, 5
3, 2
5, 5
8, 5
2, 5
3, 8
3, 3
2, 4
3, 6
5, 4
4, 7
6, 7
5, 4
7, 4
3, 6
6, 5
1, 1
5, 10
9, 5
8, 8
5, 6
6, 5
3, 11
6, 3
5, 5
8, 7
7, 4
4, 6
5, 6
1, 2
1, 3
3, 3
4, 4
1, 7
4, 7
6, 7
3, 4
6, 4
2, 3
11, 8
5, 4
8, 5
2, 5
8, 8
3, 5
5, 4
1, 7
4, 6
3, 1
3, 2
0, 6
8, 6
5, 2
5, 3
6, 7
3, 3
3, 3
4, 4
2, 4
4, 1
1, 1
4, 2
3, 4
2, 4
4, 5
1, 2
2, 4
1, 2
1, 3
2, 5
0, 6
3, 3
1, 6
4, 1
3, 3
6, 3
1, 5
7, 4
0, 0
2, 3
3, 5
5, 3
4, 5
4, 3
4, 0
1, 6
3, 1
2, 2
1, 4
2, 3
6, 2
3, 1
3, 3
3, 4
2, 2
1, 2
1, 5
3, 4
2, 3
3, 1
1, 3
5, 3
2, 1
2, 2
0, 1
2, 4
5, 4
1, 3
3, 3
3, 3
0, 2
2, 3
1, 3
0, 3
2, 6
4, 1
2, 1
2, 2
2, 3
2, 3
2, 0
3, 1
2, 0
2, 4
1, 1
2, 1
4, 1
3, 1
6, 4
0, 0
0, 5
1, 1
0, 1
1, 3
0, 2
1, 3
1, 1
1, 6
0, 3
4, 5
1, 1
1, 4
2, 0
0, 0
3, 3
2, 1
2, 5
3, 1
0, 2
2, 1
3, 5
1, 1
0, 3
4, 5
2, 2
2, 3
1, 5
1, 1
0, 2
5, 1
3, 2
2, 3
0, 1
3, 3
0, 0
3, 1
1, 3
2, 0
2, 2
2, 1
2, 2
4, 1
2, 2
1, 1
5, 1
3, 0
3, 3
1, 1
2, 0
5, 3
1, 0
1, 1
0, 5
0, 1
3, 3
2, 1
6, 1
1, 1
2, 2
0, 1
0, 1
1, 3
3, 2
1, 2
3, 2
0, 4
0, 1
3, 1
1, 3
2, 2
0, 1
0, 3
2, 0
0, 0
3, 2
0, 2
1, 1
0, 0
0, 1
0, 2
0, 1
1, 1
1, 1
2, 2
0, 1
0, 3
1, 0
1, 0
0, 1
1, 1
0, 2
0, 1
2, 2
0, 0
3, 0
1, 2
1, 1
0, 1
0, 0
3, 0
0, 1
1, 2
0, 0
1, 3
1, 0
1, 0
1, 1
1, 0
2, 2
2, 0
0, 2
0, 2
0, 0
1, 2
2, 0
0, 2
0, 0
2, 0
0, 1
0, 1
1, 1
0, 1
0, 1
0, 2
0, 2
1, 0
0, 0
0, 1
1, 1
0, 1
2, 0
0, 2
1, 1
0, 0
1, 1
3, 0
1, 1
0, 0
1, 1
1, 0
0, 0
0, 0
1, 2
0, 0
0, 2
0, 0
0, 1
3, 0
0, 2
1, 2
0, 1
2, 2
2, 0
1, 1
0, 0
0, 1
0, 0
0, 0
1, 0
0, 0
1, 1
0, 0
1, 2
0, 1
1, 1
0, 0
0, 0
0, 0
2, 0
0, 0
1, 2
0, 1
0, 0
0, 0
0, 0
2, 1
0, 0
1, 0
2, 0
1, 1
2, 1
1, 0
0, 0
0, 0
2, 0
0, 0
0, 0
0, 0
1, 0
0, 1
0, 2
2, 0
1, 1
0, 0
0, 0
1, 0
0, 1
1, 0
0, 0
0, 0
1, 0
0, 0
0, 0
0, 0
1, 0
0, 1
1, 0
0, 0
0, 0
1, 0
0, 0
0, 0
1, 0
0, 0
0, 1
1, 0
0, 1
0, 2
0, 0
2, 1
0, 0
0, 1
1, 1
0, 0
0, 1
1, 1
0, 3
0, 1
0, 0
0, 0
0, 0
1, 0
0, 0
0, 1
0, 0
0, 0
0, 0
1, 2
0, 0
0, 0
1, 0
0, 1
0, 0
1, 0
0, 0
1, 0
0, 0
1, 0
0, 0
0, 0
0, 0
0, 0
0, 0
0, 0
0, 0
0, 0
0, 0
1, 0
0, 0
0, 2
0, 0
1, 1
1, 0
0, 0
1, 0
1, 0
1, 0
0, 1
0, 1
0, 0
0, 0
0, 1
1, 0
0, 0
1, 1
1, 0
2, 0
0, 0
1, 1
0, 0
0, 0
0, 1
0, 0
0, 0
0, 0
0, 0
0, 0
0, 0
0, 0
0, 0
1, 1
1, 0
1, 0
0, 0
0, 0
0, 0
0, 0
1, 0
0, 0
0, 0
1, 0
0, 0
0, 0
0, 0
1, 1
0, 0
1, 0
0, 1
0, 0
0, 0
0, 0
0, 0
0, 0
0, 0
0, 0
0, 0
0, 0
0, 0
0, 0
0, 1
0, 0
1, 0
1, 0
0, 0
1, 0
0, 0
0, 0
0, 0
0, 1
2, 0
0, 0
0, 0
0, 0
1, 0
0, 0
0, 0
1, 0
0, 1
0, 0
0, 0
0, 0
1, 0
0, 0
1, 0
0, 1
0, 0
0, 2
0, 0
0, 0
0, 0
0, 0
0, 0
0, 0
0, 0
0, 0
0, 1
0, 0
0, 0
0, 0
0, 0
0, 0
0, 0
0, 0
0, 0
0, 0
0, 0
1, 0
0, 0
0, 0
0, 0
0, 0
0, 0
0, 0
0, 0
0, 0
0, 0
0, 0
0, 0
0, 0
0, 0
0, 0
0, 0
0, 1
0, 0
0, 0
0, 0
0, 0
0, 0
0, 0
0, 0
0, 0
0, 0
0, 0
0, 0
0, 0
0, 0
0, 0
0, 0
0, 0
0, 1
0, 0
0, 0
0, 0
0, 0
0, 0
0, 0
0, 0
0, 0
0, 0
0, 0
0, 0
0, 0
0, 0
0, 0
0, 0
0, 0
0, 0
0, 0
0, 0
0, 0
0, 0
0, 0
0, 0
0, 0
0, 0
0, 0
0, 1
0, 0
0, 0
0, 0
0, 0
0, 0
0, 0
0, 0
0, 0
0, 0
0, 0
0, 0
0, 0
0, 0
0, 0
0, 0
0, 0
0, 0
0, 0
0, 0
0, 0
0, 0
0, 0
0, 0
0, 0
0, 0
0, 0
0, 0
0, 0
0, 0
0, 0
0, 0
0, 0
0, 0
0, 0
0, 0
0, 0
0, 0
0, 0
0, 0
0, 0
0, 0
0, 0
0, 0
0, 0
0, 0
0, 0
0, 0
0, 0
0, 0
0, 0
0, 0
0, 0
0, 0
0, 0
0, 0
0, 0
0, 0
0, 0
0, 0
0, 0
0, 0
0, 0
0, 0
0, 0
0, 0
0, 0
0, 0
0, 0
0, 0
0, 0
0, 0
0, 0
0, 0
0, 0
0, 0
0, 0
0, 0
0, 0
0, 0
0, 0
0, 0
0, 0
0, 0
0, 0
0, 0
0, 0
0, 0
0, 0
0, 0
0, 0
1, 0
0, 0
0, 0
0, 0
0, 0
0, 0
0, 0
0, 0
0, 0
0, 0
0, 0
0, 0
0, 0
0, 0
0, 0
0, 0
0, 0
0, 0
0, 0
0, 0
0, 0
0, 0
0, 0
0, 0
0, 0
0, 0
0, 0
0, 0
0, 0
0, 0
0, 0
0, 0
0, 0
0, 0
0, 0
0, 0
0, 0
0, 0
0, 0
0, 0
0, 0
0, 0
0, 0
0, 0
0, 0
0, 0
0, 0
0, 0
0, 0
0, 0
0, 0
0, 0
0, 0
0, 0
0, 0
0, 0
0, 0
0, 0
0, 0
0, 0
0, 0
0, 0
0, 0
0, 0
0, 0
0, 0
0, 0
0, 0
0, 0
0, 0
0, 0
0, 0
0, 0
0, 0
0, 0
0, 0
0, 0
0, 0
0, 0
0, 0
0, 0
0, 0
0, 0
0, 0
0, 0
0, 0
0, 0
0, 0
0, 0
0, 0
0, 0
0, 0
0, 0
0, 0
0, 0
0, 0
0, 0
0, 0
0, 0
0, 0
0, 0
0, 0
0, 0
0, 0
0, 0
0, 0
0, 0
0, 0
0, 0
0, 0
0, 0
0, 0
0, 0
0, 0
0, 0
0, 0
0, 0
0, 0
0, 0
0, 0
0, 0
0, 0
0, 0
0, 0
0, 0
0, 0
0, 0
0, 0
0, 0
0, 0
0, 0
0, 0
0, 0
0, 0
0, 0
0, 0
0, 0
0, 0
0, 0
0, 0
0, 0
0, 0
0, 0
0, 0
0, 0
0, 0
0, 0
0, 0
0, 0
0, 0
0, 0
0, 0
0, 0
0, 0
0, 0
0, 0
0, 0
0, 0
0, 0
0, 0
0, 0
0, 0
0, 0
0, 0
0, 0
0, 0
0, 0
0, 0
0, 0
0, 0
0, 0
0, 0
0, 0
0, 0
0, 0
0, 0
0, 0
0, 0
0, 0
0, 0
0, 0
0, 0
0, 0
0, 0
0, 0
0, 0
0, 0
0, 0
0, 0
0, 0
0, 0
0, 0
0, 0
0, 0
0, 0
0, 0
0, 0
0, 0
0, 0
0, 0
0, 0
0, 0
0, 0
0, 0
0, 0
0, 0
0, 0
0, 0
0, 0
0, 0
0, 0
0, 0
0, 0
0, 0
0, 0
0, 0
0, 0
0, 0
0, 0
0, 0
0, 0
0, 0
0, 0
0, 0
0, 0
0, 0
0, 0
0, 0
0, 0
0, 0
0, 0
0, 0
0, 0
0, 0
0, 0
0, 0
0, 0
0, 0
0, 0
0, 0
0, 0
0, 0
0, 0
0, 0
0, 0
0, 0
0, 0
0, 0
0, 0
0, 0
0, 0
0, 0
0, 0
0, 0
0, 0
0, 0
0, 0
0, 0
0, 0
0, 0
0, 0
0, 0
0, 0
0, 0
0, 0
0, 0
0, 0
0, 0
0, 0
0, 0
0, 0
0, 0
0, 0
0, 0
0, 0
0, 0
0, 0
0, 0
0, 0
0, 0
0, 0
0, 0
0, 0
0, 0
0, 0
0, 0
0, 0
0, 0
0, 0
0, 0
0, 0
0, 0
0, 0
0, 0
0, 0
0, 0
0, 0
0, 0
0, 0
0, 0
0, 0
0, 0
0, 0
0, 0
0, 0
0, 0
0, 0
0, 0
0, 0
0, 0
0, 0
0, 0
0, 0
0, 0
0, 0
0, 0
0, 0
0, 0
0, 0
0, 0
0, 0
0, 0
0, 0
0, 0
0, 0
0, 0
0, 0
0, 0
0, 0
0, 0
0, 0
0, 0
#ENDOFDATA     end of spectrum data