File: host_upload/02-11-2024/rqc/uplink1/ps__0567_0717304816_000rfs_shot_491.msa
#FORMAT      : EMSA/MAS spectral data file
#VERSION     : TC202v2.0 PIXL
#TITLE       : Novarupta (sol567) subset1
#DATE        : 02-11-2024      Date in the format DD-MMM-YYYY, for example 07-JUL-2010
#TIME        :             The time of day at which the spectrum was recorded, in 24-hour format
#OWNER       : PIXL Flight Model       (PIXL will use this to indicate which instrument took the data.)
#NPOINTS     : 4096     Number of data points in the spectrum (This can be zero for configuration only files)
#NCOLUMNS    : 2     Number of data columns in the spectrum (This can be zero for configuration only files)
#XUNITS      : eV
#YUNITS      : COUNTS
#DATATYPE    : YY
#XPERCHAN    : 7.862, 7.881   eV per channel (separate by commas if more than one detector)
#OFFSET      : 18.5, -22.4         eV of first channel  (separate by commas if more than one detector
#SIGNALTYPE  : XRF
#YP_TEMP     : 2.011
#LIVETIME    : 8.82128, 8.80832   seconds (separate by commas if more than one detector)
#REALTIME    : 10, 10.0   seconds (separate by commas if more than one detector)
#SPECTRUM    : start of spectrum data
0, 0
0, 0
0, 0
0, 0
0, 0
0, 0
0, 0
0, 0
0, 0
0, 0
0, 0
0, 0
0, 0
0, 0
0, 0
0, 0
0, 0
0, 0
0, 0
0, 0
0, 0
0, 0
0, 0
0, 0
0, 0
0, 0
0, 0
0, 0
0, 0
0, 1
0, 0
0, 0
1, 1
1, 0
1, 0
2, 5
1, 1
2, 3
6, 2
1, 0
4, 1
0, 4
4, 3
2, 6
2, 5
5, 4
4, 3
2, 4
4, 1
4, 7
7, 4
9, 8
12, 12
14, 10
17, 13
21, 15
14, 24
11, 9
9, 12
14, 15
19, 11
18, 32
31, 45
52, 52
44, 53
52, 50
34, 33
36, 34
46, 46
61, 55
96, 116
182, 235
281, 362
381, 489
441, 522
522, 531
431, 495
332, 353
215, 230
145, 142
77, 78
56, 59
41, 34
26, 32
31, 35
32, 47
35, 41
29, 44
30, 27
25, 18
25, 15
15, 13
20, 35
42, 60
64, 87
137, 160
180, 209
272, 286
288, 320
304, 368
273, 325
201, 239
159, 164
130, 120
72, 75
65, 67
55, 50
51, 66
80, 104
93, 137
147, 177
171, 205
203, 198
191, 220
168, 196
187, 175
117, 122
92, 105
79, 97
70, 81
76, 97
66, 66
76, 79
61, 59
56, 65
40, 35
23, 26
32, 16
14, 19
13, 10
11, 12
11, 7
8, 11
11, 9
3, 4
8, 7
9, 15
14, 13
18, 24
17, 28
35, 37
32, 38
40, 36
28, 27
14, 12
17, 12
9, 11
6, 10
12, 17
16, 17
26, 34
51, 60
83, 107
133, 169
199, 238
294, 345
357, 387
328, 425
354, 396
312, 314
264, 270
174, 199
123, 119
66, 60
40, 29
25, 38
21, 31
31, 38
37, 38
50, 64
53, 57
62, 64
57, 64
40, 65
31, 37
32, 27
19, 30
17, 16
12, 8
13, 11
6, 12
6, 6
4, 15
4, 14
14, 15
14, 10
16, 19
15, 26
29, 27
38, 47
57, 53
43, 71
72, 68
58, 48
52, 62
53, 48
31, 38
34, 24
12, 24
23, 17
12, 22
14, 12
9, 12
15, 11
11, 16
15, 16
15, 9
23, 11
25, 18
25, 22
21, 12
17, 19
17, 19
18, 23
16, 11
13, 15
13, 13
21, 9
9, 12
13, 7
11, 14
3, 14
10, 14
9, 16
10, 13
12, 16
13, 26
25, 29
19, 27
33, 45
30, 43
36, 37
30, 36
21, 23
23, 22
18, 21
17, 12
12, 10
8, 6
10, 11
12, 18
10, 15
15, 16
14, 18
11, 15
18, 19
15, 23
26, 34
29, 51
44, 48
39, 61
50, 69
45, 57
32, 38
27, 31
35, 33
32, 18
8, 20
31, 24
16, 16
19, 20
20, 22
37, 46
63, 74
117, 154
226, 295
324, 494
576, 734
877, 1108
1190, 1446
1509, 1725
1712, 1918
1785, 1955
1784, 1858
1522, 1541
1304, 1218
882, 921
579, 532
411, 354
229, 195
133, 121
81, 64
48, 41
26, 20
22, 16
13, 16
16, 20
23, 17
20, 21
16, 12
25, 29
27, 30
34, 40
50, 75
77, 114
93, 163
143, 192
205, 242
222, 287
270, 338
256, 287
239, 259
217, 226
177, 157
130, 119
96, 83
51, 63
38, 47
30, 19
18, 18
7, 9
4, 9
12, 11
7, 12
11, 11
14, 9
15, 9
13, 14
15, 20
8, 14
12, 13
10, 13
16, 15
11, 7
3, 10
4, 2
6, 9
6, 15
6, 10
8, 7
4, 4
5, 5
9, 8
3, 4
7, 4
4, 5
6, 9
6, 6
5, 8
10, 8
8, 7
5, 3
7, 6
5, 5
8, 8
4, 8
11, 18
4, 16
6, 6
7, 5
8, 5
3, 6
6, 5
6, 1
9, 6
8, 4
3, 6
4, 5
1, 9
3, 7
6, 7
7, 7
6, 7
7, 13
6, 7
7, 12
8, 12
7, 14
12, 10
7, 7
10, 16
9, 11
9, 8
8, 4
5, 8
7, 4
4, 4
7, 9
7, 4
7, 7
6, 7
6, 5
6, 5
8, 5
4, 4
5, 2
5, 6
5, 6
6, 5
12, 9
6, 5
5, 6
8, 6
8, 9
9, 6
6, 10
6, 7
9, 9
5, 3
5, 6
5, 6
6, 7
3, 2
6, 4
6, 5
3, 9
12, 9
0, 4
4, 7
7, 6
4, 8
4, 5
10, 4
5, 3
5, 6
2, 5
3, 4
3, 7
4, 6
4, 3
4, 3
5, 1
2, 7
8, 8
3, 4
2, 5
6, 3
5, 8
6, 5
2, 4
5, 10
6, 3
2, 4
7, 4
3, 5
4, 8
6, 2
6, 5
1, 3
6, 5
1, 1
4, 8
2, 2
5, 4
1, 4
5, 3
1, 6
4, 8
6, 4
3, 3
9, 2
2, 4
6, 7
7, 0
1, 3
8, 4
8, 3
2, 6
3, 3
3, 1
0, 2
4, 5
5, 2
6, 5
2, 2
4, 8
3, 5
2, 2
6, 2
3, 3
2, 3
0, 3
5, 1
0, 6
1, 7
1, 3
1, 2
1, 4
3, 4
5, 3
1, 1
4, 2
4, 6
9, 4
3, 4
3, 1
2, 5
0, 2
3, 1
6, 1
1, 2
2, 1
3, 2
2, 3
1, 3
4, 4
3, 0
1, 3
3, 3
3, 4
2, 2
1, 3
3, 3
1, 1
2, 1
2, 1
3, 2
5, 2
1, 8
2, 5
7, 6
2, 0
0, 2
5, 1
1, 1
0, 5
2, 4
5, 1
1, 2
2, 5
2, 2
0, 0
1, 0
3, 1
1, 2
3, 2
1, 2
0, 3
1, 3
4, 4
2, 1
0, 5
1, 1
1, 3
1, 0
5, 2
0, 1
1, 6
0, 2
3, 6
4, 3
2, 7
5, 1
1, 2
3, 7
1, 6
1, 2
2, 6
1, 3
1, 3
1, 1
0, 3
1, 1
4, 4
2, 3
3, 0
0, 2
2, 1
3, 1
1, 1
1, 3
1, 1
1, 1
0, 1
2, 0
0, 3
1, 0
1, 5
1, 1
0, 0
2, 2
3, 2
1, 2
3, 1
4, 1
3, 1
1, 3
2, 3
2, 1
0, 2
3, 1
2, 1
4, 1
2, 1
0, 4
0, 1
0, 1
2, 2
2, 0
1, 2
1, 1
1, 0
0, 0
0, 0
0, 1
0, 3
2, 1
0, 0
3, 1
0, 2
3, 2
0, 2
1, 1
0, 3
1, 2
1, 0
3, 1
1, 0
1, 0
1, 1
1, 1
2, 1
0, 2
1, 0
0, 0
1, 3
1, 2
0, 3
0, 1
2, 0
1, 1
1, 2
1, 0
1, 0
0, 0
1, 0
0, 0
1, 0
1, 2
1, 0
0, 1
0, 1
1, 0
0, 3
1, 1
0, 1
1, 1
1, 2
0, 1
2, 0
1, 0
2, 0
2, 0
0, 1
0, 1
1, 1
0, 0
1, 0
0, 1
0, 0
0, 0
0, 0
0, 1
0, 0
0, 0
0, 1
1, 0
0, 1
2, 1
3, 0
2, 0
1, 1
2, 1
1, 1
1, 1
0, 0
2, 0
0, 0
0, 1
0, 0
0, 0
0, 0
1, 1
0, 0
0, 1
0, 0
1, 1
0, 2
0, 0
0, 1
0, 0
0, 2
0, 0
0, 0
2, 0
0, 1
0, 0
0, 0
0, 2
1, 1
2, 0
0, 1
0, 1
1, 0
0, 0
1, 0
1, 0
0, 1
0, 0
0, 1
0, 0
0, 0
0, 0
0, 1
2, 1
0, 2
0, 0
1, 1
0, 0
0, 1
0, 0
0, 0
0, 0
0, 0
0, 1
0, 0
0, 0
0, 1
0, 1
0, 2
0, 0
0, 1
0, 1
0, 0
0, 0
0, 1
0, 0
0, 0
0, 0
0, 0
0, 0
0, 0
0, 1
1, 0
1, 0
0, 0
0, 0
0, 1
0, 1
0, 1
0, 0
1, 0
0, 0
1, 1
2, 0
0, 0
0, 0
0, 1
0, 1
1, 1
0, 0
1, 0
0, 1
1, 0
1, 0
0, 1
0, 0
0, 0
0, 0
1, 0
0, 0
0, 0
0, 1
1, 0
1, 1
0, 0
0, 0
0, 1
1, 0
0, 0
0, 0
0, 0
0, 0
1, 1
0, 0
0, 0
0, 0
0, 0
0, 0
0, 0
0, 1
0, 0
1, 0
0, 1
0, 0
0, 1
0, 0
0, 1
0, 0
0, 1
0, 1
0, 0
1, 1
0, 1
1, 0
0, 2
0, 1
1, 1
0, 0
0, 0
0, 0
0, 0
0, 0
0, 0
0, 0
0, 1
0, 0
0, 0
1, 0
0, 1
0, 1
0, 1
0, 0
0, 0
1, 0
0, 0
0, 0
0, 0
0, 1
0, 0
0, 1
3, 0
1, 0
1, 0
0, 0
0, 2
0, 0
0, 0
0, 1
0, 0
1, 0
0, 1
0, 0
0, 0
0, 0
1, 0
0, 0
0, 0
0, 0
0, 0
0, 1
0, 0
0, 0
1, 0
0, 0
0, 0
0, 0
0, 0
0, 0
0, 0
0, 0
1, 0
0, 0
0, 0
0, 0
0, 0
1, 0
0, 1
0, 0
0, 0
1, 1
0, 0
0, 0
0, 1
0, 0
0, 1
0, 0
0, 1
0, 0
0, 0
0, 0
0, 0
0, 0
0, 0
0, 0
0, 0
0, 0
0, 1
0, 0
0, 0
0, 0
0, 0
1, 0
0, 0
0, 0
1, 0
0, 0
0, 1
0, 0
0, 0
0, 0
0, 0
0, 0
0, 0
0, 0
0, 0
1, 0
0, 0
0, 0
0, 0
0, 0
0, 0
0, 0
0, 0
0, 0
0, 0
0, 0
0, 0
0, 0
0, 0
0, 0
0, 2
0, 0
0, 0
0, 0
0, 0
0, 0
0, 0
0, 0
0, 0
0, 0
0, 0
0, 0
0, 0
0, 0
0, 0
0, 0
0, 0
0, 0
0, 0
0, 0
0, 0
0, 0
0, 0
0, 0
0, 0
0, 0
0, 0
0, 0
0, 0
0, 0
0, 0
0, 0
0, 0
0, 0
0, 0
0, 0
0, 0
0, 0
0, 0
0, 0
0, 0
0, 0
0, 0
0, 0
0, 0
0, 0
0, 0
0, 0
0, 0
0, 0
0, 0
0, 0
0, 0
1, 0
0, 0
0, 0
0, 0
0, 0
0, 0
0, 0
0, 0
0, 0
0, 0
0, 0
1, 0
0, 0
0, 0
0, 0
0, 0
0, 0
0, 0
0, 0
0, 0
0, 0
0, 0
0, 0
0, 0
0, 0
0, 0
0, 0
0, 0
0, 0
0, 0
0, 0
0, 0
0, 0
0, 0
0, 0
0, 0
0, 1
0, 0
0, 0
0, 0
0, 0
0, 0
0, 0
0, 0
0, 0
0, 0
0, 0
0, 0
0, 0
0, 0
0, 0
0, 0
0, 0
0, 0
0, 0
0, 0
0, 0
0, 0
0, 0
0, 0
0, 0
0, 0
0, 0
0, 0
0, 0
0, 0
0, 0
0, 0
0, 0
0, 0
0, 0
0, 0
0, 0
0, 0
0, 0
0, 0
0, 0
0, 0
0, 0
0, 0
0, 0
0, 0
0, 0
0, 0
0, 0
0, 0
0, 0
0, 0
0, 0
0, 0
0, 0
0, 0
0, 0
0, 0
0, 0
0, 0
0, 0
0, 0
0, 0
0, 0
0, 0
0, 0
0, 0
0, 0
0, 0
0, 0
0, 0
0, 0
0, 0
0, 0
0, 0
0, 0
0, 0
0, 0
0, 0
0, 0
0, 0
0, 0
0, 0
0, 0
0, 0
0, 0
0, 0
0, 0
0, 0
0, 0
0, 0
0, 0
0, 0
0, 0
0, 0
0, 0
0, 0
0, 0
0, 0
0, 0
0, 0
0, 0
0, 0
0, 0
0, 0
0, 0
0, 0
0, 0
0, 0
0, 0
0, 0
0, 0
0, 0
0, 0
0, 0
0, 0
0, 0
0, 0
0, 0
0, 0
0, 0
0, 0
0, 0
0, 0
0, 0
0, 0
0, 0
0, 0
0, 0
0, 0
0, 0
0, 0
0, 0
0, 0
0, 0
0, 0
0, 0
0, 0
0, 0
0, 0
0, 0
0, 0
0, 0
0, 0
0, 0
0, 0
0, 0
0, 0
0, 0
0, 0
0, 0
0, 0
0, 0
0, 0
0, 0
0, 0
0, 0
0, 0
0, 0
0, 0
0, 0
0, 0
0, 0
0, 0
0, 0
0, 0
0, 0
0, 0
0, 0
0, 0
0, 0
0, 0
0, 0
0, 0
0, 0
0, 0
0, 0
0, 0
0, 0
0, 0
0, 0
0, 0
0, 0
0, 0
0, 0
0, 0
0, 0
0, 0
0, 0
0, 0
0, 0
0, 0
0, 0
0, 0
0, 0
0, 0
0, 0
0, 0
0, 0
0, 0
0, 0
0, 0
0, 0
0, 0
0, 0
0, 0
0, 0
0, 0
0, 0
0, 0
0, 0
0, 0
0, 0
0, 0
0, 0
0, 0
0, 0
0, 0
0, 0
0, 0
0, 0
0, 0
0, 0
0, 0
0, 0
0, 0
0, 0
0, 0
0, 0
0, 0
0, 0
0, 0
0, 0
0, 0
0, 0
0, 0
0, 0
0, 0
0, 0
0, 0
0, 0
0, 0
0, 0
0, 0
0, 0
0, 0
0, 0
0, 0
0, 0
0, 0
0, 0
0, 0
0, 0
0, 0
0, 0
0, 0
0, 0
0, 0
0, 0
0, 0
0, 0
0, 0
0, 0
0, 0
0, 0
0, 0
0, 0
0, 0
0, 0
0, 0
0, 0
0, 0
0, 0
0, 0
0, 0
0, 0
0, 0
0, 0
0, 0
0, 0
0, 0
0, 0
0, 0
0, 0
0, 0
0, 0
0, 0
0, 0
0, 0
0, 0
0, 0
0, 0
0, 0
0, 0
0, 0
0, 0
0, 0
0, 0
0, 0
0, 0
0, 0
0, 0
0, 0
0, 0
0, 0
0, 0
0, 0
0, 0
0, 0
0, 0
0, 0
0, 0
0, 0
0, 0
0, 0
0, 0
0, 0
0, 0
0, 0
0, 0
0, 0
0, 0
0, 0
0, 0
0, 0
0, 0
0, 0
0, 0
0, 0
0, 0
0, 0
0, 0
0, 0
0, 0
0, 0
0, 0
0, 0
0, 0
0, 0
0, 0
0, 0
0, 0
0, 0
0, 0
0, 0
0, 0
0, 0
0, 0
0, 0
0, 0
0, 0
0, 0
0, 0
0, 0
0, 0
0, 0
0, 0
0, 0
0, 0
0, 0
0, 0
0, 0
0, 0
0, 0
0, 0
0, 0
#ENDOFDATA     end of spectrum data