File: host_upload/02-11-2024/rqc/uplink1/ps__0567_0717304816_000rfs_shot_327.msa
#FORMAT      : EMSA/MAS spectral data file
#VERSION     : TC202v2.0 PIXL
#TITLE       : Novarupta (sol567) subset1
#DATE        : 02-11-2024      Date in the format DD-MMM-YYYY, for example 07-JUL-2010
#TIME        :             The time of day at which the spectrum was recorded, in 24-hour format
#OWNER       : PIXL Flight Model       (PIXL will use this to indicate which instrument took the data.)
#NPOINTS     : 4096     Number of data points in the spectrum (This can be zero for configuration only files)
#NCOLUMNS    : 2     Number of data columns in the spectrum (This can be zero for configuration only files)
#XUNITS      : eV
#YUNITS      : COUNTS
#DATATYPE    : YY
#XPERCHAN    : 7.862, 7.881   eV per channel (separate by commas if more than one detector)
#OFFSET      : 18.5, -22.4         eV of first channel  (separate by commas if more than one detector
#SIGNALTYPE  : XRF
#YP_TEMP     : 1.562
#LIVETIME    : 8.84227, 8.81592   seconds (separate by commas if more than one detector)
#REALTIME    : 10, 10.0   seconds (separate by commas if more than one detector)
#SPECTRUM    : start of spectrum data
0, 0
0, 0
0, 0
0, 0
0, 0
0, 0
0, 0
0, 0
0, 0
0, 0
0, 0
0, 0
0, 0
0, 0
0, 0
0, 0
0, 0
0, 0
0, 0
0, 0
0, 0
0, 0
0, 0
0, 0
0, 0
0, 0
0, 0
0, 0
0, 0
0, 0
0, 0
0, 0
0, 1
0, 0
0, 2
2, 3
1, 2
2, 1
2, 2
6, 4
5, 5
3, 2
6, 1
3, 3
2, 5
2, 7
4, 3
5, 3
2, 3
5, 4
10, 8
7, 11
7, 11
17, 21
15, 22
17, 14
6, 9
13, 9
5, 12
10, 21
22, 9
20, 39
52, 38
39, 43
44, 53
48, 44
41, 43
26, 40
33, 38
50, 57
85, 129
181, 224
270, 316
341, 457
415, 529
420, 526
412, 455
321, 349
195, 231
127, 143
74, 72
46, 40
30, 38
36, 19
25, 32
26, 29
27, 34
29, 34
23, 42
18, 16
22, 19
14, 24
23, 24
45, 59
74, 98
127, 151
201, 246
221, 254
244, 303
292, 339
238, 293
214, 227
153, 150
86, 104
64, 78
42, 42
64, 57
59, 69
74, 93
136, 147
173, 186
189, 203
199, 232
201, 207
181, 176
158, 163
126, 144
96, 111
98, 100
88, 95
69, 81
60, 70
72, 70
50, 67
48, 54
38, 49
32, 36
27, 17
24, 25
12, 14
8, 13
11, 5
3, 9
3, 6
10, 4
7, 9
13, 17
17, 20
18, 19
23, 25
20, 32
24, 31
12, 33
29, 28
20, 13
26, 21
13, 20
7, 8
11, 12
11, 16
31, 28
52, 50
86, 107
124, 150
191, 251
266, 339
321, 425
323, 460
357, 436
297, 349
249, 263
164, 180
104, 117
58, 55
38, 34
24, 28
21, 29
30, 34
46, 32
51, 56
55, 61
57, 69
49, 47
37, 63
36, 45
30, 22
13, 21
9, 16
7, 10
8, 12
9, 11
6, 6
15, 7
5, 9
8, 15
10, 16
21, 18
20, 26
25, 33
32, 40
43, 57
45, 61
53, 86
70, 61
54, 52
45, 59
27, 33
33, 21
21, 17
19, 16
15, 15
15, 17
14, 19
9, 12
14, 15
11, 17
11, 19
15, 9
10, 15
17, 15
20, 25
15, 20
19, 20
16, 13
12, 14
15, 11
7, 13
11, 13
10, 12
7, 6
9, 10
8, 10
13, 14
14, 13
15, 13
11, 12
23, 20
21, 33
30, 33
29, 39
33, 37
22, 33
31, 38
26, 31
20, 22
20, 20
16, 12
12, 18
15, 12
14, 14
9, 13
9, 7
12, 15
13, 14
16, 14
19, 24
26, 28
26, 45
34, 35
30, 54
45, 55
53, 55
37, 60
39, 46
24, 40
25, 28
24, 12
25, 15
17, 25
14, 18
15, 22
22, 33
46, 53
57, 81
113, 181
178, 273
333, 448
561, 687
764, 1031
1147, 1399
1344, 1748
1553, 1892
1593, 1874
1608, 1784
1305, 1468
1057, 1082
824, 812
527, 541
389, 337
197, 173
112, 114
52, 64
44, 28
30, 14
14, 14
16, 18
19, 21
19, 17
14, 17
19, 22
21, 29
23, 39
42, 54
54, 74
70, 100
108, 135
160, 178
197, 211
203, 257
253, 278
244, 303
220, 282
215, 188
131, 155
107, 99
96, 81
61, 47
35, 25
32, 19
12, 17
9, 9
11, 12
10, 11
5, 16
6, 7
11, 14
12, 17
16, 13
9, 16
9, 14
15, 9
9, 10
5, 7
3, 10
10, 9
7, 12
6, 8
6, 5
5, 4
4, 8
7, 11
2, 5
4, 10
8, 6
3, 4
4, 5
3, 6
8, 7
5, 10
3, 6
7, 9
5, 11
9, 8
5, 6
4, 3
3, 7
14, 5
5, 7
9, 11
6, 7
13, 7
8, 8
7, 11
6, 6
7, 5
6, 5
8, 8
5, 8
4, 9
2, 8
4, 9
8, 7
7, 12
10, 12
7, 6
14, 17
12, 11
8, 11
7, 14
8, 9
12, 6
8, 2
8, 8
6, 9
4, 7
6, 3
7, 7
5, 6
3, 6
4, 6
6, 5
2, 5
4, 10
6, 6
6, 2
2, 8
2, 4
9, 4
4, 4
7, 7
8, 7
4, 7
8, 3
5, 7
3, 4
4, 8
4, 4
2, 10
5, 6
2, 4
5, 8
4, 2
4, 9
2, 6
5, 3
2, 11
8, 4
7, 3
3, 2
4, 10
6, 6
3, 3
5, 5
2, 3
2, 7
2, 6
7, 8
2, 5
5, 6
3, 6
4, 1
3, 2
3, 3
5, 7
6, 7
1, 9
2, 3
4, 5
2, 2
4, 1
6, 5
2, 11
3, 6
5, 5
5, 2
2, 4
3, 3
2, 4
5, 2
4, 4
6, 3
4, 3
4, 1
5, 6
5, 1
3, 1
4, 5
2, 6
2, 4
6, 6
5, 5
2, 7
2, 4
4, 6
1, 3
3, 4
4, 7
5, 5
4, 6
2, 2
3, 1
3, 3
6, 1
4, 1
1, 2
4, 5
3, 3
5, 7
7, 3
4, 1
2, 4
2, 5
5, 0
6, 1
2, 2
2, 5
3, 2
4, 2
2, 6
4, 3
5, 4
1, 3
0, 0
3, 2
1, 3
1, 2
3, 4
0, 2
2, 1
0, 2
1, 5
1, 4
3, 2
2, 3
0, 2
6, 2
0, 1
3, 5
3, 3
5, 3
2, 0
1, 5
2, 1
1, 3
0, 3
3, 2
2, 3
3, 2
0, 5
2, 2
1, 5
1, 1
4, 4
2, 1
4, 1
3, 0
2, 4
4, 2
2, 1
4, 2
3, 1
2, 1
1, 3
3, 4
2, 2
1, 3
1, 2
2, 2
3, 0
1, 4
0, 2
1, 2
0, 1
0, 1
4, 3
4, 2
1, 4
0, 6
3, 4
7, 4
3, 3
2, 4
2, 1
3, 5
1, 5
1, 5
2, 2
4, 1
3, 2
0, 3
2, 1
0, 3
0, 0
2, 1
0, 1
2, 0
0, 3
1, 1
1, 0
1, 1
3, 1
2, 2
2, 1
0, 2
1, 2
0, 2
0, 2
1, 3
1, 0
6, 1
3, 3
1, 2
1, 3
1, 3
2, 2
0, 2
2, 0
0, 2
2, 3
1, 3
2, 2
1, 1
0, 1
1, 2
1, 1
4, 4
0, 0
2, 1
3, 1
0, 0
0, 1
1, 2
3, 1
0, 1
1, 2
0, 2
3, 1
1, 2
2, 2
0, 3
2, 1
0, 0
0, 1
0, 1
1, 0
0, 0
3, 0
0, 1
1, 1
0, 1
0, 1
0, 0
0, 0
0, 2
0, 2
0, 0
2, 0
1, 0
1, 2
0, 1
1, 0
2, 0
0, 1
1, 1
0, 1
0, 1
1, 1
3, 1
2, 1
0, 1
1, 0
1, 2
0, 1
1, 2
2, 2
0, 2
0, 0
0, 1
1, 3
1, 2
1, 1
1, 0
1, 1
0, 2
0, 2
0, 3
1, 0
0, 0
2, 0
1, 0
1, 1
1, 1
0, 0
1, 1
0, 0
1, 1
0, 0
1, 1
1, 0
0, 0
0, 2
0, 0
0, 0
0, 0
2, 1
0, 0
0, 0
1, 0
1, 0
0, 0
2, 1
2, 2
0, 1
0, 1
0, 1
1, 0
0, 1
1, 0
1, 0
0, 0
2, 1
1, 0
2, 1
0, 0
0, 1
0, 1
0, 0
0, 0
1, 0
0, 0
0, 0
0, 0
0, 1
1, 0
0, 1
0, 0
0, 0
0, 0
1, 0
0, 0
2, 0
1, 0
0, 0
2, 1
0, 0
1, 1
0, 1
0, 0
0, 0
0, 0
1, 0
0, 0
0, 0
0, 0
0, 0
1, 0
1, 0
1, 0
0, 0
1, 0
2, 0
0, 0
1, 1
2, 0
0, 0
1, 0
0, 0
0, 0
0, 0
2, 0
0, 0
0, 0
0, 1
0, 0
0, 0
0, 0
0, 1
2, 1
1, 0
0, 0
0, 0
0, 0
1, 0
0, 1
1, 0
0, 2
0, 0
1, 1
0, 0
1, 2
0, 1
4, 0
1, 0
0, 0
1, 2
0, 1
1, 1
0, 0
0, 2
0, 0
0, 0
0, 0
1, 0
0, 0
0, 1
1, 0
1, 0
1, 1
0, 0
0, 0
1, 0
0, 0
0, 1
1, 0
0, 0
0, 0
0, 0
0, 0
0, 0
0, 0
0, 0
0, 0
0, 0
0, 0
1, 0
0, 0
0, 1
0, 0
0, 0
0, 1
0, 1
1, 0
0, 3
0, 1
1, 0
0, 0
0, 0
0, 0
0, 1
0, 0
0, 0
0, 0
0, 3
0, 0
0, 1
0, 0
0, 2
0, 0
0, 1
0, 0
0, 1
1, 0
0, 0
1, 0
0, 0
0, 0
0, 0
1, 0
0, 0
0, 0
0, 0
0, 0
0, 0
0, 1
0, 0
0, 0
1, 2
0, 0
0, 0
1, 1
0, 0
0, 0
0, 0
0, 1
0, 0
0, 0
0, 0
0, 0
1, 0
0, 0
0, 0
0, 0
0, 0
0, 0
0, 0
0, 1
0, 0
0, 0
0, 0
0, 0
0, 0
0, 0
0, 0
0, 0
0, 0
0, 0
0, 1
0, 0
0, 0
0, 0
0, 0
0, 0
0, 0
0, 0
0, 0
0, 0
0, 0
0, 0
0, 0
0, 0
0, 0
0, 0
0, 0
0, 0
0, 0
0, 0
0, 0
0, 1
0, 0
0, 0
0, 0
0, 1
0, 1
0, 0
0, 0
1, 0
0, 0
0, 0
0, 0
0, 0
0, 0
0, 0
0, 1
0, 0
0, 0
0, 0
0, 0
0, 0
0, 0
0, 0
0, 0
0, 0
1, 0
0, 0
0, 0
0, 0
0, 1
0, 0
0, 1
0, 0
1, 0
0, 0
0, 0
0, 0
0, 0
0, 0
0, 1
0, 0
0, 0
0, 0
1, 0
0, 0
0, 0
0, 0
0, 0
0, 1
0, 0
0, 0
0, 0
0, 0
0, 0
0, 0
0, 1
0, 0
0, 0
0, 0
0, 0
0, 0
0, 0
1, 0
0, 0
0, 0
0, 0
0, 0
0, 0
0, 1
0, 0
0, 0
0, 0
0, 0
0, 0
0, 0
0, 0
0, 0
0, 0
0, 0
0, 0
0, 0
0, 0
0, 0
0, 0
0, 0
0, 0
0, 0
0, 0
0, 0
0, 0
1, 0
0, 0
0, 0
0, 0
0, 0
0, 0
0, 0
0, 0
0, 0
0, 0
0, 0
1, 0
0, 0
0, 0
0, 0
0, 0
0, 0
0, 0
0, 0
0, 0
0, 1
1, 0
0, 0
0, 0
0, 0
0, 0
0, 0
0, 0
0, 0
0, 0
0, 0
0, 0
0, 0
0, 0
0, 0
0, 0
0, 0
0, 0
0, 0
0, 0
0, 0
0, 0
0, 0
0, 0
0, 0
0, 0
0, 0
0, 0
0, 0
0, 0
0, 0
0, 0
0, 0
0, 0
0, 0
0, 0
0, 0
0, 0
0, 0
1, 0
0, 0
0, 0
0, 0
0, 0
0, 0
0, 0
0, 0
0, 0
0, 0
0, 0
0, 0
0, 0
0, 0
0, 0
0, 0
0, 0
0, 0
0, 0
0, 0
0, 0
0, 0
0, 0
0, 0
0, 0
0, 0
0, 0
0, 0
0, 0
0, 0
0, 0
0, 0
0, 0
0, 0
0, 0
0, 0
0, 0
0, 0
0, 0
0, 0
0, 0
0, 0
0, 0
0, 0
0, 0
0, 0
0, 0
0, 0
0, 0
0, 0
0, 0
0, 0
0, 0
0, 0
0, 0
0, 0
0, 0
0, 0
0, 0
0, 0
0, 0
0, 0
0, 0
0, 0
0, 0
0, 0
0, 0
0, 0
0, 0
0, 0
0, 0
0, 0
0, 0
0, 0
0, 0
0, 0
0, 0
0, 0
0, 0
0, 0
0, 0
0, 0
0, 0
0, 0
0, 0
0, 0
0, 0
0, 0
0, 0
0, 0
0, 0
0, 0
0, 0
0, 0
0, 0
0, 0
0, 0
0, 0
0, 0
0, 0
0, 0
0, 0
0, 0
0, 0
0, 0
0, 0
0, 0
0, 0
0, 0
0, 0
0, 0
0, 0
0, 0
0, 0
0, 0
0, 0
0, 0
0, 0
0, 0
0, 0
0, 0
0, 0
0, 0
0, 0
0, 0
0, 0
0, 0
0, 0
0, 0
0, 0
0, 0
0, 0
0, 0
0, 0
0, 0
0, 0
0, 0
0, 0
0, 0
0, 0
0, 0
0, 0
0, 0
0, 0
0, 0
0, 0
0, 0
0, 0
0, 0
0, 0
0, 0
0, 0
0, 0
0, 0
0, 0
0, 0
0, 0
0, 0
0, 0
0, 0
0, 0
0, 0
0, 0
0, 0
0, 0
0, 0
0, 0
0, 0
0, 0
0, 0
0, 0
0, 0
0, 0
0, 0
0, 0
0, 0
0, 0
0, 0
0, 0
0, 0
0, 0
0, 0
0, 0
0, 0
0, 0
0, 0
0, 0
0, 0
0, 0
0, 0
0, 0
0, 0
0, 0
0, 0
0, 0
0, 0
0, 0
0, 0
0, 0
0, 0
0, 0
0, 0
0, 0
0, 0
0, 0
0, 0
0, 0
0, 0
0, 0
0, 0
0, 0
0, 0
0, 0
0, 0
0, 0
0, 0
0, 0
0, 0
0, 0
0, 0
0, 0
0, 0
0, 0
0, 0
0, 0
0, 0
0, 0
0, 0
0, 0
0, 0
0, 0
0, 0
0, 0
0, 0
0, 0
0, 0
0, 0
0, 0
0, 0
0, 0
0, 0
0, 0
0, 0
0, 0
0, 0
0, 0
0, 0
0, 0
0, 0
0, 0
0, 0
0, 0
0, 0
0, 0
0, 0
0, 0
0, 0
0, 0
0, 0
0, 0
0, 0
0, 0
0, 0
0, 0
0, 0
0, 0
0, 0
0, 0
0, 0
0, 0
0, 0
0, 0
0, 0
0, 0
0, 0
0, 0
0, 0
0, 0
0, 0
0, 0
0, 0
0, 0
0, 0
0, 0
0, 0
0, 0
0, 0
0, 0
0, 0
0, 0
0, 0
0, 0
0, 0
0, 0
0, 0
0, 0
0, 0
0, 0
0, 0
0, 0
0, 0
0, 0
0, 0
0, 0
0, 0
0, 0
0, 0
0, 0
0, 0
0, 0
0, 0
0, 0
0, 0
0, 0
0, 0
0, 0
0, 0
0, 0
0, 0
0, 0
0, 0
0, 0
0, 0
0, 0
0, 0
0, 0
0, 0
0, 0
0, 0
0, 0
0, 0
0, 0
0, 0
0, 0
0, 0
0, 0
0, 0
0, 0
0, 0
0, 0
#ENDOFDATA     end of spectrum data