File: host_upload/02-11-2024/rqc/uplink1/ps__0567_0717304816_000rfs_shot_103.msa
#FORMAT      : EMSA/MAS spectral data file
#VERSION     : TC202v2.0 PIXL
#TITLE       : Novarupta (sol567) subset1
#DATE        : 02-11-2024      Date in the format DD-MMM-YYYY, for example 07-JUL-2010
#TIME        :             The time of day at which the spectrum was recorded, in 24-hour format
#OWNER       : PIXL Flight Model       (PIXL will use this to indicate which instrument took the data.)
#NPOINTS     : 4096     Number of data points in the spectrum (This can be zero for configuration only files)
#NCOLUMNS    : 2     Number of data columns in the spectrum (This can be zero for configuration only files)
#XUNITS      : eV
#YUNITS      : COUNTS
#DATATYPE    : YY
#XPERCHAN    : 7.862, 7.881   eV per channel (separate by commas if more than one detector)
#OFFSET      : 18.5, -22.4         eV of first channel  (separate by commas if more than one detector
#SIGNALTYPE  : XRF
#YP_TEMP     : -1.004
#LIVETIME    : 8.83974, 8.63652   seconds (separate by commas if more than one detector)
#REALTIME    : 10, 10.0   seconds (separate by commas if more than one detector)
#SPECTRUM    : start of spectrum data
0, 0
0, 0
0, 0
0, 0
0, 0
0, 0
0, 0
0, 0
0, 0
0, 0
0, 0
0, 0
0, 0
0, 0
0, 0
0, 0
0, 0
0, 0
0, 0
0, 0
0, 0
0, 0
0, 0
0, 0
0, 0
0, 0
0, 0
0, 0
0, 0
0, 0
0, 0
0, 1
0, 1
2, 0
0, 1
0, 0
2, 2
3, 1
4, 2
5, 2
0, 6
1, 2
4, 4
1, 3
3, 7
6, 3
7, 2
1, 4
2, 7
4, 2
6, 4
5, 6
18, 21
11, 7
20, 19
7, 20
10, 12
15, 16
8, 14
5, 12
14, 19
16, 30
38, 41
42, 42
47, 43
52, 53
47, 39
36, 37
39, 44
59, 79
125, 127
179, 234
265, 331
387, 446
466, 499
466, 541
388, 452
301, 340
214, 207
124, 148
72, 81
45, 56
40, 19
24, 36
43, 36
37, 42
32, 36
21, 38
27, 37
19, 18
10, 23
17, 12
24, 25
37, 45
84, 86
120, 154
173, 199
240, 259
268, 326
299, 309
219, 263
188, 181
162, 137
75, 97
62, 60
65, 59
53, 55
69, 68
90, 98
116, 140
158, 178
190, 214
192, 245
209, 183
156, 180
144, 158
106, 122
105, 87
88, 104
70, 75
64, 85
74, 53
50, 68
53, 57
37, 38
36, 30
26, 34
14, 22
16, 18
13, 10
9, 10
9, 10
13, 7
6, 9
11, 10
12, 10
17, 5
14, 10
21, 19
21, 24
26, 22
23, 39
25, 32
17, 19
14, 23
18, 24
17, 14
9, 8
9, 22
17, 16
29, 35
52, 83
100, 117
127, 157
193, 241
253, 348
337, 367
366, 403
308, 327
297, 298
223, 231
129, 181
74, 85
57, 59
29, 42
19, 34
26, 29
31, 40
46, 40
52, 47
71, 58
62, 60
62, 60
44, 47
30, 33
19, 34
14, 18
13, 16
7, 14
10, 10
11, 7
9, 7
11, 5
10, 12
17, 10
12, 18
13, 22
17, 33
33, 32
41, 44
52, 58
40, 75
60, 53
54, 60
57, 54
35, 40
42, 42
28, 21
20, 17
12, 21
10, 12
14, 17
11, 8
7, 10
19, 13
10, 7
18, 19
16, 9
12, 19
28, 20
10, 18
22, 13
15, 12
25, 19
15, 6
10, 16
20, 14
5, 10
10, 13
10, 3
15, 12
12, 10
7, 16
9, 14
14, 12
18, 22
14, 20
26, 29
28, 30
19, 26
33, 27
35, 28
21, 24
24, 19
25, 19
19, 25
8, 16
9, 10
13, 16
16, 4
7, 15
12, 14
10, 14
6, 15
15, 24
19, 21
20, 35
31, 40
39, 44
40, 43
59, 57
42, 42
46, 47
38, 30
29, 34
27, 31
19, 20
24, 15
11, 14
19, 24
21, 29
36, 52
52, 58
74, 108
138, 188
252, 338
380, 625
619, 841
891, 1133
1162, 1402
1517, 1712
1621, 1911
1632, 1901
1482, 1619
1304, 1333
1006, 1019
791, 726
552, 446
334, 251
190, 163
105, 83
62, 51
29, 33
26, 24
16, 10
16, 16
14, 14
10, 21
18, 12
16, 22
23, 29
31, 43
33, 61
61, 71
71, 102
123, 161
146, 196
218, 255
208, 297
233, 285
255, 287
228, 240
207, 196
145, 153
129, 108
68, 70
41, 47
40, 22
14, 16
12, 5
7, 14
6, 7
9, 6
12, 6
9, 12
11, 14
13, 10
10, 13
9, 8
10, 5
10, 7
18, 9
8, 10
8, 5
6, 8
3, 12
4, 3
6, 6
6, 6
5, 4
6, 7
4, 2
5, 3
7, 8
6, 8
8, 6
5, 9
4, 5
8, 11
4, 3
4, 6
5, 6
10, 6
4, 9
4, 7
6, 10
8, 9
5, 9
4, 9
5, 11
10, 8
4, 6
9, 6
7, 6
7, 9
4, 7
4, 9
8, 9
7, 7
13, 11
4, 7
6, 4
9, 6
7, 10
6, 11
7, 9
15, 6
8, 9
8, 10
9, 19
5, 12
6, 8
4, 5
4, 7
5, 1
4, 5
5, 7
4, 8
6, 10
7, 6
3, 10
5, 4
4, 7
6, 6
4, 1
10, 8
4, 2
7, 5
3, 3
4, 7
4, 6
9, 5
7, 5
6, 4
1, 7
6, 3
7, 2
6, 3
9, 5
5, 4
8, 7
4, 2
6, 6
11, 9
5, 11
2, 4
4, 4
5, 9
4, 10
3, 8
9, 5
4, 4
6, 9
7, 11
6, 1
3, 9
5, 3
5, 2
4, 4
7, 9
2, 2
2, 6
2, 7
3, 5
9, 3
6, 5
1, 8
6, 6
4, 4
3, 3
5, 3
5, 4
6, 2
5, 3
4, 5
2, 3
6, 4
3, 1
2, 6
2, 2
5, 1
2, 4
3, 3
1, 2
5, 4
3, 5
2, 3
2, 4
4, 4
4, 2
3, 1
3, 4
1, 6
3, 5
6, 2
4, 1
6, 4
2, 1
1, 1
5, 7
4, 3
0, 3
2, 3
2, 4
2, 3
3, 5
5, 4
1, 4
0, 3
2, 4
6, 6
2, 1
2, 5
2, 7
4, 3
5, 2
5, 2
2, 2
6, 1
3, 1
1, 2
1, 5
2, 1
1, 3
1, 3
1, 2
5, 4
1, 3
1, 4
3, 0
2, 5
2, 2
3, 5
0, 2
2, 1
1, 4
1, 1
2, 3
4, 0
3, 2
2, 3
0, 3
4, 0
4, 1
2, 2
1, 2
1, 2
1, 0
3, 3
4, 1
1, 1
1, 0
5, 2
0, 3
2, 1
4, 0
2, 2
2, 0
3, 4
3, 3
1, 5
4, 6
2, 2
0, 3
3, 2
1, 4
1, 3
3, 2
1, 3
2, 3
2, 2
2, 3
0, 2
2, 3
2, 4
3, 4
2, 2
1, 1
2, 2
1, 2
2, 1
3, 2
2, 1
4, 3
2, 3
5, 3
3, 1
1, 3
3, 1
3, 1
2, 1
3, 3
3, 0
2, 4
1, 3
1, 0
3, 1
2, 3
2, 3
1, 0
2, 1
1, 1
3, 1
1, 0
5, 1
2, 2
2, 2
1, 4
2, 1
2, 3
1, 1
4, 3
1, 1
1, 0
1, 1
2, 3
1, 0
0, 1
1, 0
3, 0
0, 3
0, 1
1, 0
1, 3
0, 3
0, 0
1, 2
1, 3
0, 0
1, 1
3, 2
1, 0
1, 0
1, 1
0, 1
0, 0
0, 0
1, 1
0, 0
2, 1
2, 0
0, 1
0, 0
3, 2
2, 0
2, 1
1, 1
2, 2
0, 0
1, 0
0, 1
1, 1
1, 1
0, 4
0, 2
1, 1
2, 2
2, 1
0, 1
2, 0
1, 1
1, 1
0, 1
0, 0
2, 0
1, 1
1, 1
0, 2
0, 0
1, 0
3, 2
0, 4
2, 0
0, 2
1, 1
0, 1
0, 2
2, 1
0, 0
0, 0
0, 0
1, 1
0, 1
1, 2
0, 1
0, 0
2, 0
0, 0
0, 0
0, 1
1, 1
0, 0
1, 0
1, 1
2, 0
0, 0
1, 0
2, 1
2, 0
0, 1
0, 0
0, 0
0, 1
0, 0
0, 0
1, 0
1, 0
0, 0
2, 0
0, 0
1, 0
0, 0
1, 2
0, 0
1, 2
1, 1
1, 0
0, 0
0, 0
1, 1
1, 0
0, 0
1, 0
0, 0
1, 1
1, 2
0, 0
1, 0
0, 0
1, 0
0, 2
0, 2
0, 0
1, 0
0, 0
0, 0
0, 0
1, 0
0, 2
0, 0
2, 0
1, 1
0, 1
0, 0
0, 0
0, 0
0, 0
1, 0
0, 1
0, 0
0, 1
0, 1
0, 0
0, 0
0, 0
0, 0
0, 0
0, 0
0, 1
0, 2
1, 0
0, 0
0, 0
2, 1
1, 1
0, 0
0, 0
0, 1
1, 0
1, 0
0, 4
0, 0
0, 0
0, 0
0, 0
1, 0
0, 1
0, 0
0, 0
0, 1
0, 0
0, 1
0, 0
0, 0
0, 0
1, 1
0, 0
1, 0
0, 0
0, 0
0, 0
1, 0
0, 0
0, 0
0, 0
0, 0
0, 0
1, 1
0, 0
0, 0
0, 0
0, 1
0, 0
0, 0
0, 0
0, 0
0, 0
0, 0
0, 0
0, 0
0, 1
0, 0
0, 0
1, 1
0, 1
0, 0
0, 0
0, 1
0, 0
0, 1
0, 0
1, 0
0, 3
0, 1
1, 0
0, 0
0, 0
1, 0
1, 1
0, 1
0, 2
0, 0
0, 0
0, 0
0, 0
1, 0
1, 0
0, 0
0, 1
0, 0
0, 0
0, 0
0, 0
0, 1
2, 0
0, 0
0, 0
0, 1
0, 1
1, 0
1, 0
0, 0
0, 1
0, 1
0, 0
0, 0
0, 1
0, 0
0, 0
1, 0
1, 0
0, 0
0, 0
0, 1
0, 0
0, 0
0, 0
0, 0
0, 0
0, 0
0, 0
0, 1
0, 0
0, 1
0, 1
0, 0
0, 0
0, 0
0, 0
0, 0
0, 0
0, 0
1, 0
0, 0
0, 1
0, 1
0, 1
0, 0
0, 0
0, 0
0, 0
0, 0
1, 0
0, 0
0, 0
0, 0
0, 0
0, 0
0, 0
0, 0
0, 0
0, 0
0, 0
0, 0
0, 0
0, 0
0, 0
0, 0
0, 0
1, 1
0, 0
0, 0
0, 0
0, 0
0, 0
0, 0
0, 0
0, 0
0, 0
0, 0
0, 0
0, 0
0, 0
0, 0
0, 0
0, 1
0, 0
0, 0
0, 0
0, 0
0, 0
0, 0
0, 0
0, 0
0, 0
0, 0
0, 0
1, 0
0, 0
0, 1
0, 0
0, 0
0, 0
0, 0
0, 0
0, 0
0, 0
0, 0
0, 0
0, 0
0, 0
0, 0
0, 0
0, 0
0, 0
0, 0
0, 0
0, 0
0, 1
0, 0
0, 0
0, 0
0, 0
0, 0
0, 0
0, 0
0, 0
0, 0
0, 0
0, 0
0, 0
0, 0
0, 0
0, 0
0, 0
0, 0
0, 0
0, 0
0, 0
0, 0
0, 0
0, 0
0, 0
0, 0
0, 0
0, 0
0, 0
0, 0
0, 0
0, 0
0, 0
0, 0
0, 0
0, 0
0, 0
0, 0
0, 0
0, 0
0, 0
0, 0
0, 0
0, 0
0, 0
0, 0
0, 0
0, 0
0, 0
0, 0
0, 0
0, 0
0, 0
0, 0
0, 0
0, 0
0, 1
0, 0
0, 0
0, 0
0, 0
0, 0
0, 0
0, 0
0, 0
0, 0
0, 0
0, 0
0, 0
0, 0
0, 0
0, 0
0, 0
0, 0
0, 0
0, 0
0, 0
0, 0
0, 0
0, 0
0, 0
0, 0
0, 0
0, 0
0, 0
0, 0
0, 0
0, 0
0, 0
1, 0
0, 0
0, 0
0, 0
0, 0
0, 0
0, 0
0, 0
0, 0
0, 0
0, 0
0, 0
0, 0
0, 0
0, 0
0, 0
0, 0
0, 0
0, 0
0, 1
0, 0
0, 0
0, 0
0, 0
0, 0
0, 0
0, 0
0, 0
0, 0
0, 0
0, 0
0, 0
0, 0
0, 0
0, 0
0, 0
0, 0
0, 0
0, 0
0, 0
0, 0
0, 0
0, 0
0, 0
0, 0
0, 0
0, 0
0, 0
0, 0
0, 0
0, 0
0, 0
0, 0
0, 0
0, 0
0, 0
0, 0
0, 0
0, 0
0, 0
0, 0
0, 0
0, 0
0, 0
0, 0
0, 0
0, 0
0, 0
0, 0
0, 0
0, 0
0, 0
0, 0
0, 0
0, 0
0, 0
0, 0
0, 0
0, 0
0, 0
0, 0
0, 0
0, 0
0, 0
0, 0
0, 0
0, 0
0, 0
0, 0
0, 0
0, 0
0, 0
0, 0
0, 0
0, 0
0, 0
0, 0
0, 0
0, 0
0, 0
0, 0
0, 0
0, 0
0, 0
0, 0
0, 0
0, 0
0, 0
0, 0
0, 0
0, 0
0, 0
0, 0
0, 0
0, 0
0, 0
0, 0
0, 0
0, 0
0, 0
0, 0
0, 0
0, 0
0, 0
0, 0
0, 0
0, 0
0, 0
0, 0
0, 0
0, 0
0, 0
0, 0
0, 0
0, 0
0, 0
0, 0
0, 0
0, 0
0, 0
0, 0
0, 0
0, 0
0, 0
0, 0
0, 0
0, 0
0, 0
0, 0
0, 0
0, 0
0, 0
0, 0
0, 0
0, 0
0, 0
0, 0
0, 0
0, 0
0, 0
0, 0
0, 0
0, 0
0, 0
0, 0
0, 0
0, 0
0, 0
0, 0
0, 0
0, 0
0, 0
0, 0
0, 0
0, 0
0, 0
0, 0
0, 0
0, 0
0, 0
0, 0
0, 0
0, 0
0, 0
0, 0
0, 0
0, 0
0, 0
0, 0
0, 0
0, 0
0, 0
0, 0
0, 0
0, 0
0, 0
0, 0
0, 0
0, 0
0, 0
0, 0
0, 0
0, 0
0, 0
0, 0
0, 0
0, 0
0, 0
0, 0
0, 0
0, 0
0, 0
0, 0
0, 0
0, 0
0, 0
0, 0
0, 0
0, 0
0, 0
0, 0
0, 0
0, 0
0, 0
0, 0
0, 0
0, 0
0, 0
0, 0
0, 0
0, 0
0, 0
0, 0
0, 0
0, 0
0, 0
0, 0
0, 0
0, 0
0, 0
0, 0
0, 0
0, 0
0, 0
0, 0
0, 0
0, 0
0, 0
0, 0
0, 0
0, 0
0, 0
0, 0
0, 0
0, 0
0, 0
0, 0
0, 0
0, 0
0, 0
0, 0
0, 0
0, 0
0, 0
0, 0
0, 0
0, 0
0, 0
0, 0
0, 0
0, 0
0, 0
0, 0
0, 0
0, 0
0, 0
0, 0
0, 0
0, 0
0, 0
0, 0
0, 0
0, 0
0, 0
0, 0
0, 0
0, 0
0, 0
0, 0
0, 0
0, 0
0, 0
0, 0
0, 0
0, 0
0, 0
0, 0
0, 0
0, 0
0, 0
0, 0
0, 0
0, 0
0, 0
0, 0
0, 0
0, 0
0, 0
0, 0
0, 0
0, 0
0, 0
0, 0
0, 0
0, 0
0, 0
0, 0
0, 0
0, 0
0, 0
0, 0
0, 0
0, 0
0, 0
0, 0
0, 0
0, 0
0, 0
0, 0
0, 0
0, 0
0, 0
0, 0
0, 0
0, 0
0, 0
0, 0
0, 0
0, 0
0, 0
0, 0
0, 0
0, 0
0, 0
0, 0
0, 0
0, 0
0, 0
0, 0
0, 0
0, 0
0, 0
0, 0
0, 0
0, 0
0, 0
0, 0
0, 0
0, 0
#ENDOFDATA     end of spectrum data