File: host_upload/02-11-2024/rqc/uplink1/ps__0567_0717304816_000rfs_shot_399.msa
#FORMAT      : EMSA/MAS spectral data file
#VERSION     : TC202v2.0 PIXL
#TITLE       : Novarupta (sol567) subset1
#DATE        : 02-11-2024      Date in the format DD-MMM-YYYY, for example 07-JUL-2010
#TIME        :             The time of day at which the spectrum was recorded, in 24-hour format
#OWNER       : PIXL Flight Model       (PIXL will use this to indicate which instrument took the data.)
#NPOINTS     : 4096     Number of data points in the spectrum (This can be zero for configuration only files)
#NCOLUMNS    : 2     Number of data columns in the spectrum (This can be zero for configuration only files)
#XUNITS      : eV
#YUNITS      : COUNTS
#DATATYPE    : YY
#XPERCHAN    : 7.862, 7.881   eV per channel (separate by commas if more than one detector)
#OFFSET      : 18.5, -22.4         eV of first channel  (separate by commas if more than one detector
#SIGNALTYPE  : XRF
#YP_TEMP     : 1.883
#LIVETIME    : 8.82121, 8.80472   seconds (separate by commas if more than one detector)
#REALTIME    : 10, 10.0   seconds (separate by commas if more than one detector)
#SPECTRUM    : start of spectrum data
0, 0
0, 0
0, 0
0, 0
0, 0
0, 0
0, 0
0, 0
0, 0
0, 0
0, 0
0, 0
0, 0
0, 0
0, 0
0, 0
0, 0
0, 0
0, 0
0, 0
0, 0
0, 0
0, 0
0, 0
0, 0
0, 0
0, 0
0, 0
0, 0
0, 0
1, 0
0, 0
0, 1
1, 2
0, 0
2, 3
4, 5
1, 4
4, 3
7, 4
3, 4
2, 4
1, 6
5, 4
2, 4
2, 6
0, 2
2, 7
4, 5
3, 5
10, 6
7, 8
14, 13
16, 14
17, 14
4, 12
12, 11
13, 12
7, 10
14, 10
16, 15
31, 25
43, 39
53, 53
40, 36
42, 55
36, 46
37, 29
34, 55
38, 63
97, 115
187, 192
279, 335
392, 453
473, 574
523, 529
466, 468
312, 339
228, 234
145, 145
72, 82
49, 54
30, 42
42, 27
27, 47
35, 36
44, 42
32, 38
25, 33
16, 16
19, 18
20, 21
22, 30
48, 38
85, 89
132, 143
208, 214
285, 246
323, 303
300, 334
262, 289
197, 226
155, 156
95, 112
62, 73
65, 69
54, 53
56, 62
82, 111
133, 136
172, 186
227, 231
224, 282
228, 224
213, 208
150, 183
127, 138
131, 124
79, 94
69, 90
66, 71
65, 72
61, 60
69, 46
53, 45
39, 39
32, 32
22, 24
19, 15
17, 15
18, 9
7, 12
4, 8
3, 4
9, 6
14, 4
10, 9
13, 23
30, 14
28, 31
22, 38
26, 30
23, 26
40, 20
19, 17
10, 13
11, 15
11, 16
12, 14
19, 19
17, 26
55, 55
94, 101
137, 169
199, 254
278, 365
341, 395
403, 430
346, 387
348, 344
238, 285
183, 168
133, 95
68, 64
44, 41
25, 34
21, 34
28, 29
46, 51
46, 68
50, 68
65, 63
66, 51
51, 53
34, 43
27, 27
18, 14
17, 8
6, 11
9, 11
9, 4
3, 7
8, 8
11, 6
11, 12
16, 17
21, 14
21, 25
33, 32
30, 67
60, 63
45, 64
61, 78
56, 71
60, 65
33, 44
35, 29
25, 34
25, 23
16, 16
12, 20
7, 13
19, 13
9, 10
6, 14
13, 20
14, 8
24, 20
19, 14
13, 23
9, 17
20, 20
21, 19
17, 17
16, 10
16, 14
10, 17
11, 13
10, 7
16, 12
10, 10
8, 15
18, 12
8, 16
13, 22
18, 19
9, 23
23, 28
38, 21
31, 36
30, 29
35, 20
29, 24
28, 26
27, 26
16, 20
19, 13
13, 13
14, 13
9, 12
11, 7
15, 14
6, 14
12, 17
15, 22
23, 23
26, 28
32, 23
37, 30
61, 46
51, 47
31, 75
34, 36
48, 37
31, 46
31, 27
19, 18
30, 28
17, 27
19, 29
7, 23
20, 43
25, 46
82, 87
120, 163
217, 275
330, 464
567, 716
869, 1182
1158, 1435
1534, 1678
1714, 1920
1776, 2019
1821, 1797
1562, 1496
1248, 1130
926, 841
629, 520
382, 348
236, 177
130, 122
73, 48
44, 37
18, 19
16, 29
21, 28
12, 12
15, 21
20, 24
20, 23
31, 26
19, 35
36, 52
67, 73
92, 120
120, 124
152, 205
185, 258
246, 287
281, 306
280, 279
274, 259
226, 256
189, 184
153, 148
94, 77
62, 52
41, 31
17, 14
14, 10
12, 7
9, 4
7, 8
9, 7
10, 9
6, 12
14, 9
11, 17
12, 12
12, 14
10, 12
12, 10
11, 7
8, 11
12, 8
3, 5
8, 8
8, 10
4, 10
5, 8
3, 9
3, 4
5, 5
4, 5
8, 5
4, 3
9, 4
11, 10
4, 6
2, 5
10, 5
2, 2
6, 7
10, 6
4, 10
5, 7
5, 8
5, 4
9, 8
8, 3
5, 11
4, 13
8, 6
8, 4
8, 8
13, 5
4, 10
3, 11
6, 3
5, 5
8, 12
6, 8
7, 11
10, 12
19, 11
11, 10
17, 18
17, 16
9, 15
8, 4
5, 9
9, 13
12, 8
8, 6
4, 10
7, 5
11, 5
6, 5
5, 5
7, 4
6, 8
7, 3
2, 9
9, 3
6, 7
4, 6
5, 6
7, 8
6, 8
5, 3
9, 6
4, 3
4, 7
5, 8
7, 5
6, 6
4, 3
6, 10
4, 4
4, 2
11, 7
3, 6
7, 4
2, 9
6, 6
8, 8
3, 3
5, 4
7, 4
4, 4
5, 8
5, 8
4, 8
1, 5
6, 3
3, 5
3, 7
4, 2
3, 6
4, 3
7, 4
5, 8
2, 6
4, 6
6, 5
5, 5
3, 4
6, 9
3, 6
6, 4
8, 5
6, 5
3, 1
6, 7
3, 2
4, 8
4, 2
3, 6
1, 2
4, 3
1, 9
4, 5
5, 3
1, 5
2, 3
5, 5
4, 4
3, 4
3, 0
5, 6
5, 4
4, 3
3, 4
3, 5
3, 4
3, 6
2, 2
1, 5
3, 3
3, 1
0, 3
4, 3
3, 3
3, 2
5, 3
5, 2
1, 9
5, 3
2, 3
7, 4
2, 3
2, 1
5, 4
3, 5
1, 1
1, 1
3, 1
6, 6
4, 4
3, 4
3, 4
2, 5
2, 1
6, 5
0, 2
1, 1
2, 0
3, 2
1, 0
3, 5
4, 2
1, 3
4, 4
1, 4
3, 3
8, 2
6, 1
2, 3
3, 5
1, 1
1, 1
5, 4
3, 4
2, 3
1, 3
1, 3
5, 2
2, 0
2, 4
1, 4
0, 1
4, 2
5, 5
4, 2
3, 2
3, 2
3, 4
1, 0
2, 6
5, 3
0, 2
0, 1
1, 1
0, 4
3, 2
1, 2
4, 3
2, 3
4, 0
3, 1
1, 2
2, 1
2, 1
6, 1
3, 3
3, 2
2, 3
2, 3
0, 4
2, 3
6, 6
4, 3
2, 4
3, 2
1, 3
2, 4
5, 4
0, 6
2, 2
3, 2
1, 2
2, 3
1, 3
2, 3
0, 0
0, 1
1, 2
1, 0
2, 1
0, 3
0, 1
3, 0
0, 2
0, 0
1, 1
1, 1
4, 0
0, 0
0, 2
0, 0
1, 2
1, 4
3, 0
2, 0
2, 3
2, 3
4, 2
1, 1
1, 0
2, 2
2, 1
2, 2
3, 0
3, 3
3, 0
1, 1
1, 3
1, 1
0, 2
0, 1
0, 1
1, 0
0, 0
0, 0
3, 1
1, 2
2, 1
2, 3
0, 2
3, 1
0, 0
1, 3
3, 1
1, 2
0, 1
1, 0
0, 1
2, 0
2, 1
0, 3
1, 0
2, 0
2, 0
0, 0
0, 0
4, 3
1, 1
2, 1
1, 1
0, 1
1, 0
0, 0
0, 1
0, 0
1, 0
0, 2
0, 1
1, 0
3, 0
2, 0
1, 1
2, 0
1, 1
3, 0
0, 1
0, 0
0, 2
0, 1
0, 1
0, 1
0, 0
1, 0
0, 0
0, 0
1, 1
1, 0
0, 0
1, 0
0, 0
1, 0
1, 0
0, 2
2, 0
1, 0
1, 1
0, 2
2, 1
0, 2
0, 0
0, 1
1, 0
1, 0
0, 2
0, 2
0, 0
2, 2
3, 1
0, 1
0, 0
0, 0
1, 0
0, 0
0, 0
1, 0
0, 0
2, 0
0, 2
0, 1
0, 2
0, 0
0, 0
0, 0
0, 2
0, 1
0, 1
0, 0
0, 1
0, 0
0, 1
0, 1
0, 0
0, 0
0, 0
0, 0
0, 1
0, 0
0, 0
1, 1
0, 0
0, 0
0, 1
0, 1
0, 0
1, 0
0, 0
2, 0
1, 0
1, 1
1, 0
0, 0
1, 0
1, 0
0, 0
1, 0
0, 0
0, 1
1, 1
0, 0
1, 0
0, 0
0, 0
0, 1
0, 0
1, 1
0, 0
0, 0
0, 0
1, 0
0, 0
1, 0
0, 0
0, 0
0, 0
1, 0
0, 1
0, 0
2, 0
0, 0
0, 0
1, 0
0, 0
0, 0
0, 0
0, 0
0, 0
0, 0
0, 0
1, 0
0, 1
1, 0
0, 0
0, 0
0, 1
0, 0
0, 0
0, 0
1, 0
0, 0
0, 0
0, 0
0, 0
0, 1
0, 0
0, 0
1, 0
0, 0
0, 0
0, 0
1, 0
0, 0
0, 0
0, 0
0, 0
1, 0
1, 0
0, 0
0, 0
1, 0
0, 0
0, 0
0, 0
0, 0
1, 0
0, 0
2, 0
0, 0
0, 1
0, 0
0, 0
0, 0
0, 0
0, 1
0, 0
0, 0
0, 0
0, 1
0, 1
0, 0
1, 1
0, 0
0, 0
0, 0
0, 0
0, 0
0, 0
2, 0
0, 0
0, 1
0, 0
0, 0
0, 0
0, 1
0, 1
1, 0
0, 0
0, 0
1, 0
0, 0
0, 0
0, 0
2, 0
0, 0
0, 0
0, 0
0, 0
0, 0
1, 0
1, 1
0, 0
0, 0
0, 1
0, 0
0, 1
0, 1
0, 0
0, 1
0, 0
0, 0
0, 1
0, 0
0, 0
0, 0
0, 0
0, 1
0, 0
0, 0
0, 0
0, 1
1, 1
0, 0
0, 0
0, 0
0, 0
0, 0
1, 0
0, 0
1, 0
0, 0
0, 0
0, 0
0, 0
0, 0
0, 0
0, 0
1, 0
0, 0
0, 0
0, 0
0, 0
0, 0
0, 0
0, 0
0, 0
0, 0
1, 0
0, 0
0, 0
0, 0
0, 0
0, 0
0, 1
0, 0
0, 0
0, 0
0, 0
0, 0
0, 0
0, 0
0, 0
0, 0
0, 0
0, 0
0, 0
0, 0
0, 0
0, 0
0, 0
0, 0
0, 0
0, 0
0, 1
0, 0
1, 0
0, 0
0, 1
0, 0
0, 0
0, 0
0, 0
0, 1
0, 0
0, 0
0, 0
0, 0
0, 0
0, 0
0, 0
0, 0
0, 0
0, 0
0, 0
0, 0
0, 0
0, 0
0, 0
0, 0
0, 0
0, 0
0, 0
0, 0
0, 0
0, 0
0, 0
0, 0
0, 0
0, 0
0, 0
0, 0
0, 0
0, 0
0, 0
0, 0
0, 0
0, 0
0, 0
0, 0
0, 0
0, 0
0, 0
0, 0
0, 0
0, 0
0, 0
0, 0
0, 0
0, 0
0, 0
0, 0
0, 0
0, 0
0, 0
0, 0
0, 0
0, 0
0, 0
0, 0
0, 0
0, 0
0, 0
0, 0
0, 0
0, 0
0, 0
0, 0
0, 0
0, 0
0, 0
0, 0
0, 0
0, 0
0, 0
0, 0
0, 0
0, 0
0, 0
0, 0
0, 0
0, 0
0, 0
0, 0
0, 0
0, 0
0, 0
0, 0
0, 0
0, 0
0, 0
0, 0
0, 0
0, 0
0, 0
0, 0
0, 0
0, 0
0, 0
0, 0
1, 0
0, 0
0, 0
0, 0
0, 0
0, 0
0, 0
0, 0
0, 0
0, 0
0, 0
0, 0
0, 0
0, 0
0, 0
0, 0
0, 0
0, 0
0, 0
0, 0
0, 0
0, 0
0, 0
0, 0
0, 0
0, 0
0, 0
0, 0
0, 0
0, 0
0, 0
0, 0
0, 0
0, 0
0, 0
0, 0
0, 0
0, 0
0, 0
0, 0
0, 0
0, 0
0, 0
0, 0
0, 0
0, 0
0, 0
0, 0
0, 0
0, 0
0, 0
0, 0
0, 0
0, 0
0, 0
0, 0
0, 0
0, 0
0, 0
0, 0
0, 0
0, 0
0, 0
0, 0
0, 0
0, 0
0, 0
0, 0
0, 0
0, 0
0, 0
0, 0
0, 0
0, 0
0, 0
0, 0
0, 0
0, 0
0, 0
0, 0
0, 0
0, 0
0, 0
0, 0
0, 0
0, 0
0, 0
0, 0
0, 0
0, 0
0, 0
0, 0
0, 0
0, 0
0, 0
0, 0
0, 0
0, 0
0, 0
0, 0
0, 0
0, 0
0, 0
0, 0
0, 0
0, 0
0, 0
0, 0
0, 0
0, 0
0, 0
0, 0
0, 0
0, 0
0, 0
0, 0
0, 0
0, 0
0, 0
0, 0
0, 0
0, 0
0, 0
0, 0
0, 0
0, 0
0, 0
0, 0
0, 0
0, 0
0, 0
0, 0
0, 0
0, 0
0, 0
0, 0
0, 0
0, 0
0, 0
0, 0
0, 0
0, 0
0, 0
0, 0
0, 0
0, 0
0, 0
0, 0
0, 0
0, 0
0, 0
0, 0
0, 0
0, 0
0, 0
0, 0
0, 0
0, 0
0, 0
0, 0
0, 0
0, 0
0, 0
0, 0
0, 0
0, 0
0, 0
0, 0
0, 0
0, 0
0, 0
0, 0
0, 0
0, 0
0, 0
0, 0
0, 0
0, 0
0, 0
0, 0
0, 0
0, 0
0, 0
0, 0
0, 0
0, 0
0, 0
0, 0
0, 0
0, 0
0, 0
0, 0
0, 0
0, 0
0, 0
0, 0
0, 0
0, 0
0, 0
0, 0
0, 0
0, 0
0, 0
0, 0
0, 0
0, 0
0, 0
0, 0
0, 0
0, 0
0, 0
0, 0
0, 0
0, 0
0, 0
0, 0
0, 0
0, 0
0, 0
0, 0
0, 0
0, 0
0, 0
0, 0
0, 0
0, 0
0, 0
0, 0
0, 0
0, 0
0, 0
0, 0
0, 0
0, 0
0, 0
0, 0
0, 0
0, 0
0, 0
0, 0
0, 0
0, 0
0, 0
0, 0
0, 0
0, 0
0, 0
0, 0
0, 0
0, 0
0, 0
0, 0
0, 0
0, 0
0, 0
0, 0
0, 0
0, 0
0, 0
0, 0
0, 0
0, 0
0, 0
0, 0
0, 0
0, 0
0, 0
0, 0
0, 0
0, 0
0, 0
0, 0
0, 0
0, 0
0, 0
0, 0
0, 0
0, 0
0, 0
0, 0
0, 0
0, 0
0, 0
0, 0
0, 0
0, 0
0, 0
0, 0
0, 0
0, 0
0, 0
0, 0
0, 0
0, 0
0, 0
0, 0
0, 0
0, 0
0, 0
0, 0
0, 0
0, 0
0, 0
0, 0
0, 0
0, 0
0, 0
0, 0
0, 0
0, 0
0, 0
0, 0
0, 0
0, 0
0, 0
0, 0
0, 0
0, 0
0, 0
0, 0
0, 0
0, 0
0, 0
0, 0
0, 0
0, 0
0, 0
0, 0
0, 0
0, 0
0, 0
0, 0
0, 0
0, 0
0, 0
0, 0
0, 0
0, 0
0, 0
0, 0
0, 0
0, 0
0, 0
0, 0
0, 0
0, 0
0, 0
0, 0
0, 0
0, 0
0, 0
0, 0
0, 0
0, 0
0, 0
0, 0
0, 0
0, 0
0, 0
0, 0
#ENDOFDATA     end of spectrum data