File: host_upload/02-11-2024/rqc/uplink1/ps__0567_0717304816_000rfs_shot_13.msa
#FORMAT      : EMSA/MAS spectral data file
#VERSION     : TC202v2.0 PIXL
#TITLE       : Novarupta (sol567) subset1
#DATE        : 02-11-2024      Date in the format DD-MMM-YYYY, for example 07-JUL-2010
#TIME        :             The time of day at which the spectrum was recorded, in 24-hour format
#OWNER       : PIXL Flight Model       (PIXL will use this to indicate which instrument took the data.)
#NPOINTS     : 4096     Number of data points in the spectrum (This can be zero for configuration only files)
#NCOLUMNS    : 2     Number of data columns in the spectrum (This can be zero for configuration only files)
#XUNITS      : eV
#YUNITS      : COUNTS
#DATATYPE    : YY
#XPERCHAN    : 7.862, 7.881   eV per channel (separate by commas if more than one detector)
#OFFSET      : 18.5, -22.4         eV of first channel  (separate by commas if more than one detector
#SIGNALTYPE  : XRF
#YP_TEMP     : -4.404
#LIVETIME    : 8.84251, 8.83392   seconds (separate by commas if more than one detector)
#REALTIME    : 10, 10.0   seconds (separate by commas if more than one detector)
#SPECTRUM    : start of spectrum data
0, 0
0, 0
0, 0
0, 0
0, 0
0, 0
0, 0
0, 0
0, 0
0, 0
0, 0
0, 0
0, 0
0, 0
0, 0
0, 0
0, 0
0, 0
0, 0
0, 0
0, 0
0, 0
0, 0
0, 0
0, 0
0, 0
0, 0
0, 0
0, 0
0, 0
0, 0
0, 0
0, 0
0, 2
1, 1
2, 2
0, 1
1, 0
2, 2
2, 2
1, 5
4, 2
3, 4
4, 4
1, 8
4, 5
3, 5
1, 4
2, 4
5, 7
8, 3
10, 14
9, 11
15, 8
20, 16
14, 17
13, 12
10, 11
14, 12
9, 15
25, 26
23, 29
37, 39
33, 65
43, 45
31, 63
24, 38
45, 45
61, 67
81, 87
134, 153
235, 243
313, 400
373, 433
449, 533
436, 477
360, 420
291, 359
211, 198
112, 137
85, 93
51, 48
34, 36
27, 35
27, 35
33, 34
22, 31
25, 28
24, 27
11, 26
29, 17
24, 25
32, 37
59, 74
107, 106
142, 170
197, 245
263, 279
285, 286
261, 252
258, 254
181, 203
110, 111
74, 90
72, 73
62, 58
73, 63
66, 81
106, 103
134, 164
177, 186
169, 218
181, 203
184, 203
174, 177
145, 144
99, 117
97, 114
72, 85
71, 93
54, 68
51, 54
58, 50
45, 42
31, 44
26, 44
27, 23
19, 18
13, 28
10, 9
6, 14
9, 10
9, 7
9, 11
6, 6
7, 16
17, 11
18, 18
21, 25
24, 36
37, 37
27, 30
19, 29
15, 25
14, 18
19, 11
12, 14
13, 12
18, 18
31, 28
53, 57
67, 89
121, 149
176, 210
245, 275
269, 360
316, 401
324, 346
308, 329
222, 249
178, 172
127, 129
65, 68
46, 50
37, 34
29, 30
31, 34
26, 42
39, 53
59, 51
53, 77
55, 52
52, 45
41, 48
27, 23
22, 15
14, 21
10, 12
9, 8
11, 7
7, 15
16, 15
8, 8
5, 11
16, 13
16, 18
15, 38
22, 40
34, 42
48, 49
56, 63
61, 63
49, 73
57, 63
42, 41
39, 29
32, 21
30, 27
15, 18
17, 18
16, 14
8, 20
7, 11
15, 14
17, 20
12, 12
13, 28
21, 16
20, 26
23, 17
17, 22
16, 16
9, 15
16, 18
13, 14
12, 12
12, 10
12, 8
10, 8
12, 8
5, 2
15, 17
9, 12
8, 15
13, 24
15, 20
18, 17
28, 16
23, 30
28, 21
31, 26
30, 22
24, 24
16, 13
16, 23
22, 21
13, 11
10, 19
14, 11
8, 9
14, 12
14, 20
11, 22
19, 23
14, 22
30, 31
21, 32
35, 42
45, 51
43, 55
50, 48
47, 46
36, 52
30, 32
23, 29
24, 29
24, 28
13, 20
25, 28
23, 24
33, 37
61, 68
79, 116
153, 172
280, 344
484, 599
649, 799
954, 1128
1186, 1435
1407, 1659
1621, 1770
1561, 1771
1532, 1588
1275, 1299
1048, 1043
792, 769
502, 511
367, 289
213, 202
127, 93
57, 66
30, 32
26, 23
20, 21
16, 17
17, 17
16, 23
13, 22
20, 30
27, 24
20, 42
52, 66
79, 87
78, 121
138, 147
153, 208
219, 251
223, 303
261, 263
249, 272
217, 255
180, 196
161, 159
128, 109
77, 73
55, 43
35, 37
21, 19
17, 16
10, 13
5, 11
10, 14
9, 15
7, 17
6, 9
17, 18
13, 13
7, 18
6, 14
17, 11
7, 9
12, 11
11, 8
7, 4
7, 2
7, 4
3, 7
1, 4
5, 7
3, 6
4, 6
7, 4
9, 3
9, 7
6, 9
7, 4
10, 2
5, 3
10, 7
8, 8
4, 7
6, 2
3, 5
7, 4
9, 10
12, 14
9, 13
10, 5
9, 10
4, 9
2, 6
7, 10
4, 11
5, 6
3, 10
6, 7
10, 7
7, 10
7, 13
6, 5
7, 9
15, 9
8, 10
7, 8
18, 13
11, 8
6, 4
15, 7
5, 5
6, 11
7, 9
7, 8
6, 5
5, 8
5, 1
6, 6
4, 6
5, 5
4, 3
6, 7
2, 1
7, 10
5, 4
4, 7
4, 8
7, 6
8, 6
2, 5
7, 2
5, 3
6, 2
7, 8
2, 7
8, 9
3, 5
5, 2
4, 7
13, 2
5, 3
4, 9
5, 6
7, 5
6, 5
1, 9
13, 5
5, 8
6, 3
7, 4
6, 4
5, 5
2, 4
4, 6
3, 7
4, 4
4, 4
4, 5
6, 11
2, 5
4, 3
5, 5
5, 6
2, 4
6, 3
2, 8
7, 7
4, 5
2, 2
5, 5
5, 5
7, 4
3, 3
5, 3
6, 6
5, 4
4, 3
10, 2
1, 3
5, 6
3, 8
2, 7
3, 3
4, 4
5, 5
3, 6
1, 6
4, 3
5, 3
2, 7
4, 7
6, 7
1, 2
5, 6
2, 5
4, 6
2, 1
4, 2
5, 0
1, 6
2, 4
4, 6
3, 5
4, 1
0, 3
3, 7
3, 2
5, 1
4, 1
1, 3
1, 6
3, 1
1, 3
5, 0
2, 3
3, 3
1, 4
2, 8
2, 3
3, 3
4, 3
3, 1
4, 2
0, 4
4, 2
2, 4
3, 2
5, 1
5, 2
2, 2
5, 0
3, 3
3, 0
4, 4
2, 3
2, 3
6, 0
0, 2
0, 3
3, 4
5, 5
3, 3
4, 1
1, 3
4, 2
4, 3
4, 0
1, 3
3, 2
2, 3
1, 1
2, 2
1, 3
5, 0
1, 2
2, 2
0, 0
2, 1
1, 3
3, 2
4, 4
1, 1
2, 0
0, 4
1, 3
3, 1
3, 4
1, 2
5, 2
0, 4
0, 4
1, 3
1, 1
3, 1
0, 3
0, 1
1, 2
5, 1
1, 3
3, 2
3, 4
2, 5
4, 1
3, 2
2, 4
1, 3
0, 2
1, 1
0, 2
0, 3
1, 3
3, 0
0, 2
2, 1
0, 0
1, 2
4, 0
0, 1
2, 2
0, 0
0, 1
2, 1
3, 1
2, 1
3, 3
1, 3
2, 2
2, 0
0, 2
2, 2
3, 2
2, 2
3, 1
2, 1
1, 0
0, 1
1, 1
2, 0
1, 2
2, 4
0, 1
0, 0
0, 2
0, 0
1, 1
1, 1
1, 2
0, 1
2, 3
0, 2
1, 1
2, 5
2, 0
1, 1
2, 1
3, 0
2, 0
0, 1
0, 2
2, 0
1, 1
1, 0
2, 1
1, 2
1, 3
2, 0
1, 0
1, 1
2, 0
1, 0
3, 2
0, 0
1, 6
1, 1
2, 2
2, 0
0, 0
3, 3
0, 2
0, 0
0, 3
1, 3
0, 1
1, 0
1, 0
1, 0
0, 0
0, 0
0, 1
0, 2
2, 0
0, 0
0, 0
0, 2
0, 1
0, 1
1, 2
2, 1
2, 2
0, 0
1, 0
0, 0
1, 0
0, 0
1, 0
1, 1
0, 0
0, 0
1, 0
0, 1
0, 0
3, 1
0, 1
1, 0
0, 1
0, 0
0, 1
1, 0
1, 2
0, 0
1, 1
0, 1
0, 3
3, 0
2, 2
3, 2
1, 2
0, 0
0, 2
0, 1
2, 1
0, 0
2, 0
0, 0
0, 0
2, 0
0, 1
2, 0
1, 0
2, 1
1, 1
1, 0
0, 0
0, 0
0, 0
0, 0
0, 0
1, 0
0, 0
0, 0
0, 2
0, 0
0, 2
0, 1
0, 0
0, 0
0, 0
0, 0
0, 1
0, 0
1, 0
0, 1
0, 0
2, 0
0, 0
0, 0
2, 0
1, 0
1, 1
2, 0
1, 0
1, 0
0, 1
0, 0
0, 0
1, 0
0, 0
0, 1
0, 1
0, 1
0, 2
0, 0
0, 0
0, 1
0, 1
0, 1
0, 0
0, 0
1, 1
0, 0
2, 1
0, 1
0, 0
0, 0
1, 0
1, 0
0, 0
0, 0
0, 0
1, 0
1, 0
0, 0
1, 0
0, 1
0, 0
0, 0
0, 0
0, 0
0, 0
0, 0
0, 0
1, 0
0, 0
0, 0
1, 0
0, 1
1, 0
0, 0
0, 1
0, 0
0, 0
0, 0
1, 0
1, 0
0, 1
0, 1
0, 0
0, 1
0, 1
0, 0
0, 0
0, 0
0, 0
0, 1
0, 0
2, 1
1, 0
0, 0
0, 1
0, 2
0, 0
0, 0
0, 0
0, 0
1, 0
0, 0
1, 0
0, 0
2, 1
1, 0
0, 1
1, 3
0, 0
0, 0
0, 0
0, 0
1, 1
0, 0
0, 0
0, 1
0, 0
0, 0
0, 1
1, 0
0, 1
1, 0
0, 0
0, 0
0, 0
0, 0
0, 0
0, 0
0, 0
0, 0
0, 0
0, 0
0, 0
0, 0
0, 0
0, 1
0, 0
0, 0
1, 0
0, 1
0, 1
1, 0
0, 0
0, 0
0, 0
0, 0
0, 0
0, 0
0, 0
0, 0
0, 0
0, 0
0, 0
0, 0
0, 0
1, 0
0, 0
0, 0
0, 0
0, 0
0, 1
1, 0
0, 2
0, 0
0, 0
0, 0
0, 0
1, 0
0, 0
0, 1
0, 0
0, 0
0, 0
0, 0
0, 0
1, 0
0, 2
0, 0
0, 0
0, 0
0, 0
0, 0
0, 0
0, 0
0, 0
0, 0
0, 0
0, 0
0, 0
0, 1
0, 0
0, 0
0, 0
0, 0
1, 0
1, 0
0, 1
0, 0
0, 0
0, 0
0, 0
0, 0
0, 0
1, 0
0, 0
0, 0
0, 0
0, 0
0, 0
0, 0
0, 0
0, 0
0, 0
0, 0
0, 0
0, 0
0, 0
0, 0
0, 0
0, 0
0, 0
0, 0
0, 1
0, 0
1, 0
0, 0
0, 0
0, 0
0, 0
0, 0
0, 0
0, 0
0, 0
0, 0
0, 0
0, 0
0, 0
0, 0
0, 0
0, 0
0, 0
0, 0
0, 0
0, 0
0, 0
0, 0
0, 0
0, 0
0, 0
0, 0
0, 0
0, 0
0, 0
0, 0
0, 0
0, 0
0, 0
0, 0
0, 0
0, 0
0, 0
0, 0
0, 0
0, 0
0, 0
0, 0
0, 0
0, 0
0, 0
0, 0
0, 0
0, 0
0, 0
0, 0
0, 0
0, 0
0, 0
0, 0
0, 0
0, 0
0, 0
0, 0
0, 0
0, 1
0, 0
0, 0
0, 0
0, 0
0, 0
0, 0
0, 0
0, 0
0, 0
0, 0
0, 0
0, 0
0, 0
0, 0
0, 0
0, 0
0, 0
0, 0
0, 0
0, 0
0, 0
0, 0
0, 1
0, 0
0, 0
0, 0
0, 0
0, 0
0, 0
0, 0
0, 0
0, 0
0, 0
0, 0
0, 0
0, 0
0, 0
0, 0
0, 0
0, 0
0, 0
0, 0
0, 0
0, 0
0, 0
0, 0
0, 0
0, 0
0, 0
0, 0
0, 0
0, 0
0, 1
0, 0
0, 0
0, 0
0, 0
0, 0
0, 0
0, 0
0, 0
0, 0
0, 0
0, 0
0, 0
0, 0
0, 0
0, 0
0, 0
0, 0
0, 0
0, 0
0, 0
0, 0
0, 0
0, 0
0, 0
0, 0
0, 0
0, 0
0, 0
0, 0
0, 0
0, 0
0, 0
0, 0
0, 0
0, 0
0, 0
0, 0
0, 0
0, 0
0, 0
0, 0
0, 0
0, 0
0, 0
0, 0
0, 0
0, 0
0, 0
0, 0
0, 0
0, 0
0, 0
0, 0
0, 0
0, 0
0, 0
0, 0
0, 0
0, 0
0, 0
0, 0
0, 0
0, 0
0, 0
0, 0
0, 0
0, 0
0, 0
0, 0
0, 0
0, 0
0, 0
0, 0
0, 0
0, 0
0, 0
0, 0
0, 0
0, 0
0, 0
0, 0
0, 0
0, 0
0, 0
0, 0
0, 0
0, 0
0, 0
0, 0
0, 0
0, 0
0, 0
0, 0
0, 0
0, 0
0, 0
0, 0
0, 0
0, 0
0, 0
0, 0
0, 0
0, 0
0, 0
0, 0
0, 0
0, 0
0, 0
0, 0
0, 0
0, 0
0, 0
0, 0
0, 0
0, 0
0, 0
0, 0
0, 0
0, 0
0, 0
0, 0
0, 0
0, 0
0, 0
0, 0
0, 0
0, 0
0, 0
0, 0
0, 0
0, 0
0, 0
0, 0
0, 0
0, 0
0, 0
0, 0
0, 0
0, 0
0, 0
0, 0
0, 0
0, 0
0, 0
0, 0
0, 0
0, 0
0, 0
0, 0
0, 0
0, 0
0, 0
0, 0
0, 0
0, 0
0, 0
0, 0
0, 0
0, 0
0, 0
0, 0
0, 0
0, 0
0, 0
0, 0
0, 0
0, 0
0, 0
0, 0
0, 0
0, 0
0, 0
0, 0
0, 0
0, 0
0, 0
0, 0
0, 0
0, 0
0, 0
0, 0
0, 0
0, 0
0, 0
0, 0
0, 0
0, 0
0, 0
0, 0
0, 0
0, 0
0, 0
0, 0
0, 0
0, 0
0, 0
0, 0
0, 0
0, 0
0, 0
0, 0
0, 0
0, 0
0, 0
0, 0
0, 0
0, 0
0, 0
0, 0
0, 0
0, 0
0, 0
0, 0
0, 0
0, 0
0, 0
0, 0
0, 0
0, 0
0, 0
0, 0
0, 0
0, 0
0, 0
0, 0
0, 0
0, 0
0, 0
0, 0
0, 0
0, 0
0, 0
0, 0
0, 0
0, 0
0, 0
0, 0
0, 0
0, 0
0, 0
0, 0
0, 0
0, 0
0, 0
0, 0
0, 0
0, 0
0, 0
0, 0
0, 0
0, 0
0, 0
0, 0
0, 0
0, 0
0, 0
0, 0
0, 0
0, 0
0, 0
0, 0
0, 0
0, 0
0, 0
0, 0
0, 0
0, 0
0, 0
0, 0
0, 0
0, 0
0, 0
0, 0
0, 0
0, 0
0, 0
0, 0
0, 0
0, 0
0, 0
0, 0
0, 0
0, 0
0, 0
0, 0
0, 0
0, 0
0, 0
0, 0
0, 0
0, 0
0, 0
0, 0
0, 0
0, 0
0, 0
0, 0
0, 0
0, 0
0, 0
0, 0
0, 0
0, 0
0, 0
0, 0
0, 0
0, 0
0, 0
0, 0
0, 0
0, 0
0, 0
0, 0
0, 0
0, 0
0, 0
0, 0
0, 0
0, 0
0, 0
0, 0
0, 0
0, 0
0, 0
0, 0
0, 0
0, 0
0, 0
0, 0
0, 0
0, 0
0, 0
0, 0
0, 0
0, 0
0, 0
0, 0
0, 0
0, 0
0, 0
0, 0
0, 0
0, 0
0, 0
0, 0
0, 0
0, 0
#ENDOFDATA     end of spectrum data