File: host_upload/02-11-2024/rqc/uplink1/ps__0567_0717304816_000rfs_shot_408.msa
#FORMAT      : EMSA/MAS spectral data file
#VERSION     : TC202v2.0 PIXL
#TITLE       : Novarupta (sol567) subset1
#DATE        : 02-11-2024      Date in the format DD-MMM-YYYY, for example 07-JUL-2010
#TIME        :             The time of day at which the spectrum was recorded, in 24-hour format
#OWNER       : PIXL Flight Model       (PIXL will use this to indicate which instrument took the data.)
#NPOINTS     : 4096     Number of data points in the spectrum (This can be zero for configuration only files)
#NCOLUMNS    : 2     Number of data columns in the spectrum (This can be zero for configuration only files)
#XUNITS      : eV
#YUNITS      : COUNTS
#DATATYPE    : YY
#XPERCHAN    : 7.862, 7.881   eV per channel (separate by commas if more than one detector)
#OFFSET      : 18.5, -22.4         eV of first channel  (separate by commas if more than one detector
#SIGNALTYPE  : XRF
#YP_TEMP     : 1.69
#LIVETIME    : 8.83909, 8.80406   seconds (separate by commas if more than one detector)
#REALTIME    : 10, 10.0   seconds (separate by commas if more than one detector)
#SPECTRUM    : start of spectrum data
0, 0
0, 0
0, 0
0, 0
0, 0
0, 0
0, 0
0, 0
0, 0
0, 0
0, 0
0, 0
0, 0
0, 0
0, 0
0, 0
0, 0
0, 0
0, 0
0, 0
0, 0
0, 0
0, 0
0, 0
0, 0
0, 0
0, 0
0, 0
0, 0
0, 0
0, 0
1, 0
0, 0
0, 1
1, 1
1, 3
2, 1
4, 6
2, 7
4, 3
2, 7
3, 5
4, 1
1, 5
1, 5
3, 2
4, 5
3, 2
2, 4
6, 5
6, 7
11, 12
12, 10
12, 14
18, 29
12, 20
15, 13
8, 17
14, 10
6, 11
17, 18
28, 28
33, 38
32, 54
34, 47
51, 56
34, 58
28, 35
35, 43
61, 54
112, 126
179, 213
309, 338
399, 526
463, 554
493, 535
441, 456
342, 399
230, 269
132, 141
98, 71
61, 49
28, 34
28, 42
36, 39
29, 35
40, 38
31, 40
23, 27
18, 19
19, 23
15, 20
18, 28
45, 36
74, 106
144, 161
216, 239
271, 282
288, 359
312, 344
275, 335
195, 218
151, 145
113, 98
74, 81
43, 68
54, 64
48, 99
94, 91
138, 157
155, 194
188, 243
221, 237
229, 256
210, 211
153, 181
151, 151
111, 106
90, 107
64, 85
83, 78
71, 93
58, 73
50, 60
51, 44
32, 36
37, 28
28, 24
19, 20
15, 18
14, 14
9, 8
4, 4
7, 5
8, 8
8, 16
6, 9
10, 15
19, 17
17, 35
20, 24
28, 50
23, 28
17, 23
20, 32
20, 18
11, 14
11, 11
4, 16
18, 20
25, 35
50, 60
84, 105
145, 172
199, 255
262, 345
351, 441
345, 444
358, 436
306, 345
240, 269
165, 185
112, 110
79, 70
32, 43
21, 29
31, 20
29, 43
32, 55
35, 51
54, 56
47, 55
68, 59
55, 47
37, 37
32, 41
18, 19
13, 15
11, 12
15, 12
10, 9
5, 6
6, 10
8, 8
13, 15
15, 15
16, 29
21, 30
34, 41
38, 54
60, 65
47, 64
50, 77
58, 83
50, 57
37, 35
41, 37
16, 27
24, 27
19, 17
15, 15
17, 10
18, 15
7, 18
13, 21
17, 14
16, 19
14, 16
21, 17
27, 17
16, 21
21, 18
16, 18
22, 15
8, 14
16, 20
10, 9
6, 13
7, 8
16, 12
9, 5
11, 13
7, 14
6, 15
12, 26
17, 33
20, 27
31, 21
18, 30
35, 44
26, 45
30, 35
30, 19
24, 33
19, 14
19, 19
20, 12
13, 7
16, 11
5, 10
11, 12
7, 8
8, 9
9, 6
11, 24
17, 28
24, 26
22, 36
42, 55
40, 63
53, 50
47, 48
38, 42
42, 38
37, 40
33, 30
22, 32
19, 28
29, 23
26, 23
30, 22
35, 28
49, 46
62, 65
112, 180
219, 252
355, 466
513, 786
866, 1082
1052, 1419
1357, 1699
1593, 2037
1741, 1920
1605, 1856
1396, 1569
1100, 1240
837, 842
497, 592
367, 399
190, 197
116, 104
56, 52
34, 35
23, 26
23, 19
15, 20
19, 18
19, 12
24, 16
16, 24
15, 33
28, 35
39, 31
79, 84
69, 95
110, 135
157, 199
188, 253
214, 253
265, 259
242, 303
248, 256
200, 204
186, 199
133, 134
94, 101
46, 69
43, 38
24, 17
21, 21
13, 6
9, 14
5, 8
8, 16
10, 12
19, 12
7, 22
9, 13
12, 8
15, 12
9, 14
6, 13
7, 13
5, 9
8, 8
8, 4
3, 8
6, 5
7, 4
6, 4
3, 6
8, 7
4, 6
8, 10
2, 5
7, 5
5, 2
9, 9
4, 6
5, 6
6, 7
9, 10
5, 15
7, 9
15, 10
5, 5
11, 8
5, 6
6, 6
8, 9
13, 6
5, 6
8, 9
5, 4
7, 8
5, 8
11, 11
11, 7
6, 8
5, 9
5, 8
7, 8
7, 10
8, 5
10, 10
11, 12
7, 7
8, 16
12, 14
10, 9
13, 8
12, 11
8, 10
7, 12
7, 7
7, 10
6, 12
5, 6
7, 6
5, 7
3, 6
2, 9
7, 4
6, 7
6, 6
8, 9
7, 6
6, 3
2, 9
11, 3
7, 4
7, 9
3, 5
9, 4
1, 9
1, 11
5, 7
2, 4
5, 4
7, 4
9, 11
6, 9
3, 7
4, 5
2, 7
8, 5
4, 5
2, 5
5, 9
3, 5
5, 3
11, 8
4, 7
3, 4
4, 2
4, 6
0, 6
4, 4
5, 9
3, 6
2, 4
5, 10
6, 8
6, 3
1, 4
4, 2
4, 3
2, 7
4, 7
4, 5
5, 1
6, 6
4, 3
1, 6
5, 2
3, 4
5, 5
2, 4
3, 4
3, 2
1, 0
2, 6
3, 4
2, 6
4, 2
4, 4
2, 2
0, 6
5, 2
2, 6
4, 3
3, 4
3, 1
4, 2
3, 3
2, 3
5, 4
8, 3
1, 3
3, 2
1, 7
1, 2
2, 2
2, 3
4, 4
1, 6
4, 7
2, 4
7, 4
6, 4
2, 3
2, 6
5, 1
2, 5
2, 4
8, 7
4, 2
4, 1
1, 0
3, 3
4, 1
3, 5
1, 2
2, 4
4, 4
2, 1
3, 4
2, 7
2, 0
3, 6
0, 5
1, 4
1, 4
4, 6
2, 5
3, 6
4, 1
4, 4
2, 1
4, 3
3, 1
2, 2
3, 6
2, 4
1, 6
2, 2
0, 4
2, 3
3, 4
4, 1
1, 2
3, 2
2, 1
2, 1
3, 1
1, 1
0, 3
5, 1
2, 2
4, 1
1, 2
3, 4
2, 3
0, 4
3, 4
3, 4
2, 1
2, 1
1, 0
1, 3
0, 2
1, 2
3, 2
1, 2
2, 3
4, 3
1, 0
1, 3
4, 2
2, 2
6, 2
7, 5
2, 3
6, 5
5, 3
1, 8
0, 3
0, 7
4, 2
0, 4
3, 1
0, 2
3, 0
2, 2
0, 5
2, 2
4, 3
1, 0
3, 2
1, 2
1, 4
1, 2
4, 2
2, 0
1, 3
1, 0
2, 1
0, 2
3, 0
3, 4
1, 1
2, 2
2, 2
2, 3
1, 1
0, 2
0, 1
0, 2
0, 0
3, 1
2, 1
3, 2
1, 4
0, 1
2, 0
0, 1
2, 1
1, 2
1, 2
2, 0
0, 0
0, 1
2, 2
0, 1
0, 2
0, 1
2, 0
2, 3
2, 1
0, 1
0, 1
1, 1
2, 1
0, 3
1, 4
0, 1
0, 1
1, 0
0, 1
2, 2
0, 1
0, 1
1, 2
0, 3
0, 2
0, 1
0, 0
0, 0
0, 1
1, 0
0, 5
1, 1
1, 1
0, 1
2, 0
1, 2
0, 1
0, 0
1, 0
1, 0
1, 2
1, 2
0, 0
0, 1
0, 0
0, 0
3, 1
1, 1
1, 1
1, 3
0, 2
0, 0
1, 0
0, 1
0, 3
0, 3
0, 3
1, 0
0, 1
0, 0
0, 0
2, 3
0, 0
3, 0
0, 0
2, 0
0, 1
1, 4
0, 1
1, 1
1, 1
1, 1
2, 1
0, 0
0, 1
0, 1
0, 1
0, 1
0, 0
0, 0
0, 2
0, 1
1, 1
2, 1
0, 0
0, 1
0, 0
2, 1
0, 0
1, 1
1, 1
0, 0
0, 0
1, 1
0, 0
0, 1
1, 0
1, 0
0, 2
1, 1
0, 0
1, 1
0, 1
1, 0
0, 0
0, 1
1, 0
0, 1
0, 0
1, 0
1, 0
0, 0
0, 2
0, 0
1, 0
0, 1
0, 0
1, 2
0, 1
1, 1
0, 0
0, 0
0, 0
0, 1
0, 0
0, 2
0, 1
0, 1
0, 0
0, 1
0, 1
1, 1
1, 0
0, 0
0, 0
1, 0
1, 0
0, 0
0, 2
0, 1
0, 0
1, 0
0, 0
0, 0
0, 1
0, 2
0, 0
0, 0
1, 1
1, 0
0, 0
0, 1
0, 0
0, 0
0, 1
1, 0
0, 0
0, 0
1, 1
0, 0
0, 0
0, 1
1, 0
1, 0
0, 0
0, 1
0, 0
1, 0
0, 0
0, 1
0, 0
0, 1
0, 0
0, 0
1, 1
0, 0
0, 0
1, 1
0, 2
0, 1
1, 0
0, 0
0, 0
0, 0
0, 0
0, 0
0, 0
0, 0
0, 0
0, 0
0, 0
2, 0
0, 0
1, 0
0, 0
0, 2
0, 0
0, 0
0, 0
0, 0
0, 0
0, 0
0, 0
1, 0
0, 0
0, 0
0, 0
0, 0
0, 0
0, 1
1, 0
0, 1
0, 0
0, 0
0, 1
0, 0
0, 1
2, 0
0, 1
0, 0
0, 0
0, 0
0, 0
0, 0
0, 0
0, 0
1, 0
0, 0
1, 0
0, 0
1, 0
0, 0
0, 0
0, 0
0, 0
0, 0
0, 0
1, 1
0, 0
0, 1
0, 0
0, 1
0, 0
0, 1
1, 0
1, 0
0, 0
1, 0
2, 0
0, 0
0, 0
0, 0
1, 0
0, 0
0, 0
0, 0
0, 1
0, 1
0, 0
1, 0
0, 0
0, 0
0, 0
0, 1
0, 0
0, 0
1, 1
0, 0
0, 0
3, 0
0, 1
0, 0
0, 0
0, 0
0, 0
0, 0
0, 0
1, 0
0, 0
0, 0
0, 0
0, 0
0, 1
0, 0
0, 0
0, 0
0, 0
0, 0
0, 0
0, 0
0, 0
1, 0
1, 0
0, 0
0, 0
0, 0
1, 1
0, 0
0, 0
0, 0
0, 0
0, 1
0, 0
0, 0
0, 1
0, 0
0, 0
0, 0
0, 0
0, 0
0, 0
0, 0
0, 0
0, 0
0, 0
0, 0
0, 0
0, 0
0, 0
0, 0
0, 0
0, 0
0, 0
0, 0
0, 0
0, 0
0, 0
0, 0
0, 0
0, 0
0, 0
0, 0
0, 0
0, 0
0, 0
0, 0
0, 2
0, 0
0, 0
0, 0
0, 0
0, 0
0, 0
0, 1
0, 0
0, 0
0, 0
0, 0
0, 0
0, 0
0, 0
0, 0
0, 0
0, 0
0, 0
0, 0
0, 0
0, 0
0, 0
0, 0
0, 0
0, 0
0, 0
0, 0
0, 0
0, 0
0, 0
0, 0
0, 0
0, 0
0, 0
0, 0
0, 0
1, 0
0, 0
0, 0
0, 0
0, 0
0, 0
0, 0
0, 0
0, 0
0, 0
1, 0
0, 0
0, 0
0, 0
0, 0
0, 0
0, 0
0, 0
0, 0
0, 0
0, 0
0, 0
0, 0
0, 0
0, 1
0, 0
0, 0
0, 0
0, 0
1, 0
0, 0
0, 0
0, 0
0, 0
0, 0
0, 0
0, 0
0, 1
0, 0
0, 0
0, 0
0, 0
0, 0
0, 0
0, 0
0, 0
0, 0
0, 0
0, 0
0, 0
0, 0
0, 0
0, 0
0, 0
0, 1
0, 0
0, 0
0, 0
0, 0
0, 0
0, 0
0, 0
0, 0
0, 0
0, 0
0, 0
0, 0
0, 0
0, 0
0, 0
0, 0
0, 0
0, 0
0, 0
0, 0
0, 0
0, 0
0, 0
0, 0
0, 0
0, 0
0, 0
0, 0
0, 0
0, 0
0, 0
0, 0
0, 0
0, 0
0, 0
0, 0
0, 0
0, 0
0, 0
0, 0
0, 0
0, 0
0, 0
0, 0
0, 0
0, 0
0, 0
0, 0
0, 0
0, 0
0, 0
0, 0
0, 0
0, 0
0, 0
0, 0
0, 0
0, 0
0, 0
0, 0
0, 0
0, 0
0, 0
0, 0
0, 0
0, 0
0, 0
0, 0
0, 0
0, 0
0, 0
0, 0
0, 0
0, 0
0, 0
0, 0
0, 0
0, 0
0, 0
0, 0
0, 0
0, 0
0, 0
0, 1
0, 0
0, 0
0, 0
0, 0
0, 0
0, 0
0, 0
0, 0
0, 0
0, 0
0, 0
0, 0
0, 0
0, 0
0, 0
0, 0
0, 0
0, 0
0, 0
0, 0
0, 0
0, 0
0, 0
0, 0
0, 0
0, 0
0, 0
0, 0
0, 0
0, 0
0, 0
0, 0
0, 0
0, 0
0, 0
0, 0
0, 0
0, 0
0, 0
0, 0
0, 0
0, 0
0, 0
0, 0
0, 0
0, 0
0, 0
0, 0
0, 0
0, 0
0, 0
0, 0
0, 0
0, 0
0, 0
0, 0
0, 0
0, 0
0, 0
0, 0
0, 0
0, 0
0, 0
0, 0
0, 0
0, 0
0, 0
0, 0
0, 0
0, 0
0, 0
0, 0
0, 0
0, 0
0, 0
0, 0
0, 0
0, 0
0, 0
0, 0
0, 0
0, 0
0, 0
0, 0
0, 0
0, 0
0, 0
0, 0
0, 0
0, 0
0, 0
0, 0
0, 0
0, 0
0, 0
0, 0
0, 0
0, 0
0, 0
0, 0
0, 0
0, 0
0, 0
0, 0
0, 0
0, 0
0, 0
0, 0
0, 0
0, 0
0, 0
0, 0
0, 0
0, 0
0, 0
0, 0
0, 0
0, 0
0, 0
0, 0
0, 0
0, 0
0, 0
0, 0
0, 0
0, 0
0, 0
0, 0
0, 0
0, 0
0, 0
0, 0
0, 0
0, 0
0, 0
0, 0
0, 0
0, 0
0, 0
0, 0
0, 0
0, 0
0, 0
0, 0
0, 0
0, 0
0, 0
0, 0
0, 0
0, 0
0, 0
0, 0
0, 0
0, 0
0, 0
0, 0
0, 0
0, 0
0, 0
0, 0
0, 0
0, 0
0, 0
0, 0
0, 0
0, 0
0, 0
0, 0
0, 0
0, 0
0, 0
0, 0
0, 0
0, 0
0, 0
0, 0
0, 0
0, 0
0, 0
0, 0
0, 0
0, 0
0, 0
0, 0
0, 0
0, 0
0, 0
0, 0
0, 0
0, 0
0, 0
0, 0
0, 0
0, 0
0, 0
0, 0
0, 0
0, 0
0, 0
0, 0
0, 0
0, 0
0, 0
0, 0
0, 0
0, 0
0, 0
0, 0
0, 0
0, 0
0, 0
0, 0
0, 0
0, 0
0, 0
0, 0
0, 0
0, 0
0, 0
0, 0
0, 0
0, 0
0, 0
0, 0
0, 0
0, 0
0, 0
0, 0
0, 0
0, 0
0, 0
0, 0
0, 0
0, 0
0, 0
0, 0
0, 0
0, 0
0, 0
0, 0
0, 0
0, 0
0, 0
0, 0
0, 0
0, 0
0, 0
0, 0
0, 0
0, 0
0, 0
0, 0
0, 0
0, 0
0, 0
0, 0
0, 0
0, 0
0, 0
0, 0
0, 0
0, 0
0, 0
0, 0
#ENDOFDATA     end of spectrum data