File: host_upload/02-11-2024/rqc/uplink1/ps__0567_0717304816_000rfs_shot_394.msa
#FORMAT      : EMSA/MAS spectral data file
#VERSION     : TC202v2.0 PIXL
#TITLE       : Novarupta (sol567) subset1
#DATE        : 02-11-2024      Date in the format DD-MMM-YYYY, for example 07-JUL-2010
#TIME        :             The time of day at which the spectrum was recorded, in 24-hour format
#OWNER       : PIXL Flight Model       (PIXL will use this to indicate which instrument took the data.)
#NPOINTS     : 4096     Number of data points in the spectrum (This can be zero for configuration only files)
#NCOLUMNS    : 2     Number of data columns in the spectrum (This can be zero for configuration only files)
#XUNITS      : eV
#YUNITS      : COUNTS
#DATATYPE    : YY
#XPERCHAN    : 7.862, 7.881   eV per channel (separate by commas if more than one detector)
#OFFSET      : 18.5, -22.4         eV of first channel  (separate by commas if more than one detector
#SIGNALTYPE  : XRF
#YP_TEMP     : 1.69
#LIVETIME    : 8.8185, 8.82007   seconds (separate by commas if more than one detector)
#REALTIME    : 10, 10.0   seconds (separate by commas if more than one detector)
#SPECTRUM    : start of spectrum data
0, 0
0, 0
0, 0
0, 0
0, 0
0, 0
0, 0
0, 0
0, 0
0, 0
0, 0
0, 0
0, 0
0, 0
0, 0
0, 0
0, 0
0, 0
0, 0
0, 0
0, 0
0, 0
0, 0
0, 0
0, 0
0, 0
0, 0
0, 0
0, 0
0, 0
0, 0
2, 0
0, 0
0, 0
2, 1
0, 0
2, 5
2, 5
3, 4
6, 8
1, 2
7, 3
2, 6
5, 7
2, 4
4, 4
1, 4
1, 5
3, 6
4, 4
8, 7
9, 18
12, 12
15, 15
18, 23
19, 11
13, 8
12, 8
13, 12
12, 19
22, 13
27, 23
32, 46
54, 51
47, 63
48, 49
36, 44
35, 39
38, 52
59, 64
120, 121
207, 216
319, 339
414, 432
520, 499
532, 530
435, 453
375, 314
253, 199
145, 141
118, 100
46, 40
28, 33
30, 25
33, 29
32, 24
37, 28
35, 21
20, 30
15, 18
15, 10
16, 13
19, 23
49, 43
95, 78
117, 120
200, 240
275, 263
296, 279
358, 270
295, 306
260, 195
175, 158
113, 111
72, 68
64, 54
64, 55
62, 78
90, 94
131, 115
173, 182
227, 222
233, 239
230, 239
218, 205
191, 157
134, 138
104, 117
110, 93
98, 102
73, 82
69, 76
58, 76
55, 62
62, 51
38, 36
28, 31
26, 16
22, 21
15, 14
7, 6
8, 3
8, 12
4, 12
5, 4
5, 15
10, 11
10, 11
24, 19
27, 22
19, 21
25, 38
37, 27
17, 23
16, 19
16, 20
10, 8
7, 17
17, 11
17, 23
25, 31
52, 55
91, 109
143, 152
199, 239
286, 289
364, 377
375, 410
371, 351
351, 321
271, 219
178, 151
86, 119
74, 55
36, 35
35, 32
23, 32
39, 40
46, 48
54, 61
49, 72
43, 59
77, 47
53, 49
39, 37
34, 16
16, 17
13, 16
11, 13
12, 7
8, 13
13, 4
14, 10
8, 9
15, 10
16, 11
18, 11
16, 26
33, 35
41, 55
61, 66
63, 57
65, 66
53, 66
56, 61
48, 50
38, 32
33, 24
27, 21
16, 14
9, 13
8, 21
14, 8
14, 13
14, 9
10, 12
12, 17
20, 17
13, 18
18, 18
25, 18
21, 19
20, 14
18, 13
15, 9
15, 15
10, 11
8, 16
11, 5
7, 9
19, 10
16, 13
6, 17
16, 8
13, 13
21, 15
21, 21
36, 23
26, 28
34, 36
34, 38
35, 29
19, 29
22, 20
24, 33
16, 11
16, 12
15, 13
11, 8
16, 11
12, 6
13, 11
21, 18
11, 13
18, 21
17, 23
29, 32
31, 27
42, 41
46, 43
44, 52
59, 47
65, 49
34, 38
49, 36
37, 26
26, 32
22, 24
17, 21
13, 21
25, 25
27, 25
37, 45
70, 78
131, 154
196, 289
373, 456
590, 656
893, 1011
1171, 1351
1513, 1663
1711, 1825
1864, 1825
1792, 1641
1487, 1424
1226, 1123
928, 813
647, 512
415, 332
257, 162
142, 101
80, 53
49, 34
22, 17
25, 23
24, 19
14, 15
20, 25
13, 13
21, 21
33, 19
30, 31
44, 60
67, 76
80, 99
112, 151
163, 195
231, 211
264, 229
239, 282
302, 282
252, 241
205, 209
202, 151
155, 142
84, 72
72, 52
41, 37
24, 14
14, 12
12, 13
9, 10
12, 15
11, 12
8, 7
17, 11
15, 9
6, 19
13, 7
14, 18
20, 12
17, 8
8, 7
9, 8
10, 8
8, 8
5, 4
4, 11
3, 6
6, 5
8, 7
3, 3
7, 9
8, 5
5, 5
2, 6
7, 5
4, 2
5, 8
8, 4
4, 14
7, 5
10, 8
11, 4
5, 7
10, 6
7, 8
6, 10
3, 6
10, 8
9, 4
13, 8
6, 9
9, 6
3, 4
7, 11
9, 5
5, 10
8, 3
6, 9
9, 10
9, 3
10, 7
6, 12
15, 10
7, 8
16, 13
11, 12
14, 13
9, 12
7, 15
13, 5
6, 13
6, 7
8, 14
11, 5
5, 9
7, 4
8, 2
7, 6
11, 7
6, 4
14, 12
9, 4
5, 5
6, 10
6, 7
6, 5
6, 9
2, 10
7, 6
7, 6
8, 3
8, 5
6, 3
6, 5
2, 4
6, 10
9, 11
11, 6
4, 6
7, 6
6, 3
6, 4
6, 2
10, 5
5, 11
4, 7
11, 1
8, 1
6, 7
3, 4
2, 2
4, 2
3, 4
5, 3
1, 2
1, 7
11, 4
5, 6
6, 4
6, 2
4, 3
6, 6
4, 6
4, 3
7, 8
2, 4
6, 6
3, 5
5, 3
6, 4
3, 8
6, 3
3, 3
3, 7
8, 1
4, 3
5, 2
3, 4
5, 3
2, 8
5, 5
1, 2
2, 4
4, 2
3, 7
3, 5
5, 1
2, 7
4, 7
6, 6
7, 5
2, 4
0, 3
3, 4
2, 5
5, 7
2, 6
6, 1
2, 5
4, 5
1, 5
7, 3
3, 2
3, 2
2, 3
2, 2
2, 3
3, 1
7, 0
3, 3
4, 6
3, 5
2, 2
3, 4
1, 6
2, 4
1, 7
6, 1
3, 4
4, 4
1, 4
3, 1
3, 0
5, 1
1, 3
2, 4
5, 1
2, 4
5, 5
3, 1
2, 3
2, 2
2, 3
2, 2
1, 3
4, 1
0, 2
1, 4
4, 2
5, 4
5, 2
4, 2
2, 0
1, 4
1, 5
2, 1
0, 1
1, 1
4, 1
2, 3
2, 0
4, 3
2, 1
2, 2
5, 4
0, 4
3, 2
2, 3
2, 4
2, 1
3, 6
2, 2
2, 1
3, 0
2, 1
1, 2
4, 0
0, 3
1, 4
2, 3
3, 1
0, 2
2, 1
6, 4
0, 3
4, 1
5, 2
4, 2
1, 4
2, 2
10, 1
2, 1
4, 4
0, 1
2, 0
1, 4
4, 3
4, 3
2, 2
1, 5
2, 1
1, 2
1, 1
2, 2
2, 3
1, 2
4, 1
1, 2
2, 1
3, 0
1, 1
4, 0
6, 1
4, 0
2, 1
1, 2
4, 1
2, 0
0, 1
0, 1
3, 1
0, 1
1, 3
0, 2
2, 1
0, 5
2, 3
2, 0
2, 1
1, 1
1, 2
2, 2
1, 2
1, 4
1, 2
2, 0
0, 1
1, 1
1, 1
0, 0
1, 1
0, 2
0, 1
1, 0
0, 1
1, 1
1, 3
0, 1
0, 3
0, 1
2, 1
3, 0
0, 2
1, 4
0, 1
0, 1
1, 1
2, 5
1, 2
1, 1
3, 0
0, 1
1, 1
0, 0
1, 3
2, 0
0, 0
2, 1
1, 4
0, 0
1, 0
1, 1
2, 2
1, 2
0, 1
3, 0
1, 0
0, 0
2, 1
1, 1
2, 0
1, 1
0, 1
1, 1
1, 0
0, 1
0, 0
0, 2
2, 2
0, 3
0, 1
1, 0
0, 1
0, 0
1, 0
0, 0
0, 0
0, 0
0, 0
1, 3
0, 1
1, 1
0, 1
1, 0
1, 0
2, 2
0, 0
0, 1
1, 1
0, 0
0, 0
0, 1
0, 0
2, 0
1, 0
1, 0
0, 1
0, 0
0, 1
0, 0
1, 0
1, 1
2, 1
0, 0
0, 1
1, 0
1, 2
1, 2
1, 0
0, 0
2, 0
0, 0
0, 0
1, 0
1, 0
0, 0
1, 1
1, 0
0, 0
2, 0
0, 0
1, 0
1, 1
0, 1
0, 1
0, 2
0, 0
0, 0
0, 0
0, 1
0, 1
0, 2
0, 0
0, 1
1, 0
0, 0
0, 1
1, 0
0, 2
0, 0
1, 1
0, 0
0, 1
0, 0
2, 1
0, 0
0, 0
0, 0
0, 1
1, 0
0, 0
1, 0
2, 0
0, 0
0, 0
2, 1
0, 0
1, 0
1, 0
1, 1
0, 0
1, 1
0, 0
1, 0
0, 0
0, 2
0, 1
0, 0
0, 0
0, 0
0, 1
1, 0
0, 1
0, 0
0, 0
0, 0
0, 0
0, 0
1, 0
0, 0
0, 0
0, 0
0, 0
0, 1
0, 0
0, 1
2, 0
0, 0
1, 0
1, 1
0, 1
1, 0
0, 2
1, 0
0, 0
1, 1
0, 0
0, 0
1, 0
0, 2
1, 1
0, 0
0, 0
0, 0
1, 0
0, 0
0, 0
0, 1
0, 0
0, 0
0, 0
1, 0
0, 0
0, 0
0, 0
0, 1
0, 0
1, 0
0, 0
0, 0
1, 0
0, 1
0, 0
1, 0
1, 0
0, 1
1, 0
1, 0
0, 0
0, 0
0, 0
1, 0
0, 0
0, 0
0, 0
0, 0
0, 0
0, 0
0, 0
0, 0
0, 0
1, 0
0, 0
1, 0
1, 0
0, 0
0, 0
0, 0
0, 0
0, 0
1, 0
0, 0
0, 0
0, 0
1, 0
0, 0
0, 0
0, 0
0, 0
1, 0
0, 0
0, 0
1, 0
0, 0
0, 1
1, 0
0, 0
0, 0
0, 0
0, 0
0, 0
0, 0
0, 1
1, 0
0, 0
0, 0
0, 0
0, 0
1, 0
0, 0
0, 0
0, 0
0, 1
0, 0
0, 0
0, 0
0, 0
0, 0
0, 0
0, 0
0, 0
0, 1
0, 1
0, 0
2, 0
0, 0
1, 1
0, 0
0, 0
1, 0
0, 0
0, 0
0, 0
0, 0
0, 0
1, 0
0, 0
0, 0
0, 0
0, 0
0, 0
0, 0
0, 0
0, 0
0, 0
0, 0
0, 0
0, 0
0, 0
0, 0
0, 0
0, 0
0, 0
0, 0
0, 0
0, 0
0, 0
0, 0
0, 1
0, 0
0, 0
1, 0
0, 0
0, 0
0, 0
0, 0
0, 0
0, 0
0, 0
0, 0
0, 0
0, 0
0, 0
0, 0
0, 0
0, 1
0, 0
0, 0
0, 0
0, 0
0, 1
0, 0
0, 0
0, 0
0, 0
0, 0
0, 0
0, 0
0, 0
0, 1
0, 0
0, 0
0, 0
0, 0
1, 0
0, 0
0, 0
0, 0
0, 0
0, 0
0, 0
0, 0
0, 0
0, 0
0, 0
0, 0
0, 0
0, 0
0, 0
0, 0
1, 0
0, 0
0, 0
0, 0
0, 0
0, 0
0, 0
0, 0
0, 0
0, 0
0, 0
0, 0
0, 0
0, 0
0, 0
0, 0
0, 0
0, 0
0, 0
0, 0
0, 0
0, 0
0, 0
0, 0
0, 0
0, 0
0, 0
0, 0
0, 0
0, 0
0, 0
0, 0
0, 0
0, 0
0, 0
0, 0
0, 0
0, 0
0, 0
0, 0
0, 0
0, 0
0, 0
0, 0
0, 0
0, 0
0, 0
0, 0
0, 0
0, 0
0, 0
0, 1
0, 0
0, 0
0, 0
0, 0
0, 0
0, 0
0, 0
0, 0
0, 0
0, 0
0, 0
0, 0
0, 0
0, 0
0, 0
0, 0
0, 0
0, 0
0, 0
0, 0
0, 0
0, 0
0, 0
0, 0
0, 0
0, 0
0, 0
0, 0
0, 0
0, 0
0, 0
0, 0
0, 0
0, 0
0, 0
0, 0
0, 0
0, 0
0, 0
0, 0
0, 0
0, 0
0, 0
0, 0
0, 0
0, 0
0, 0
0, 0
0, 0
0, 0
0, 0
0, 0
0, 0
0, 0
0, 0
0, 0
0, 0
0, 0
0, 0
0, 0
0, 0
0, 0
0, 0
0, 0
0, 0
0, 0
0, 0
0, 0
0, 0
0, 0
0, 0
0, 0
0, 0
0, 0
0, 0
0, 0
0, 0
0, 0
0, 0
0, 0
0, 0
0, 0
0, 0
0, 0
0, 0
0, 0
0, 0
0, 0
0, 0
0, 0
0, 0
0, 0
0, 0
0, 0
0, 0
0, 0
0, 0
0, 0
0, 0
0, 0
0, 0
0, 0
0, 0
0, 0
0, 0
0, 0
0, 0
0, 0
0, 0
0, 0
0, 0
0, 0
0, 0
0, 0
0, 0
0, 0
0, 0
0, 0
0, 0
0, 0
0, 0
0, 0
0, 0
0, 0
0, 0
0, 0
0, 0
0, 0
0, 0
0, 0
0, 0
0, 0
0, 0
0, 0
0, 0
0, 0
0, 0
0, 0
0, 0
0, 0
0, 0
0, 0
0, 0
0, 0
0, 0
0, 0
0, 0
0, 0
0, 0
0, 0
0, 0
0, 0
0, 0
0, 0
0, 0
0, 0
0, 0
0, 0
0, 0
0, 0
0, 0
0, 0
0, 0
0, 0
0, 0
0, 0
0, 0
0, 0
0, 0
0, 0
0, 0
0, 0
0, 0
0, 0
0, 0
0, 0
0, 0
0, 0
0, 0
0, 0
0, 0
0, 0
0, 0
0, 0
0, 0
0, 0
0, 0
0, 0
0, 0
0, 0
0, 0
0, 0
0, 0
0, 0
0, 0
0, 0
0, 0
0, 0
0, 0
0, 0
0, 0
0, 0
0, 0
0, 0
0, 0
0, 0
0, 0
0, 0
0, 0
0, 0
0, 0
0, 0
0, 0
0, 0
0, 0
0, 0
0, 0
0, 0
0, 0
0, 0
0, 0
0, 0
0, 0
0, 0
0, 0
0, 0
0, 0
0, 0
0, 0
0, 0
0, 0
0, 0
0, 0
0, 0
0, 0
0, 0
0, 0
0, 0
0, 0
0, 0
0, 0
0, 0
0, 0
0, 0
0, 0
0, 0
0, 0
0, 0
0, 0
0, 0
0, 0
0, 0
0, 0
0, 0
0, 0
0, 0
0, 0
0, 0
0, 0
0, 0
0, 0
0, 0
0, 0
0, 0
0, 0
0, 0
0, 0
0, 0
0, 0
0, 0
0, 0
0, 0
0, 0
0, 0
0, 0
0, 0
0, 0
0, 0
0, 0
0, 0
0, 0
0, 0
0, 0
0, 0
0, 0
0, 0
0, 0
0, 0
0, 0
0, 0
0, 0
0, 0
0, 0
0, 0
0, 0
0, 0
0, 0
0, 0
0, 0
0, 0
0, 0
0, 0
0, 0
0, 0
0, 0
0, 0
0, 0
0, 0
0, 0
0, 0
0, 0
0, 0
0, 0
0, 0
0, 0
0, 0
0, 0
0, 0
0, 0
0, 0
0, 0
0, 0
0, 0
0, 0
0, 0
0, 0
0, 0
0, 0
0, 0
0, 0
0, 0
0, 0
0, 0
0, 0
0, 0
0, 0
0, 0
0, 0
0, 0
0, 0
0, 0
0, 0
0, 0
0, 0
0, 0
0, 0
0, 0
0, 0
0, 0
0, 0
0, 0
0, 0
0, 0
0, 0
0, 0
0, 0
0, 0
0, 0
0, 0
0, 0
0, 0
0, 0
#ENDOFDATA     end of spectrum data