File: host_upload/02-11-2024/rqc/uplink1/ps__0567_0717304816_000rfs_shot_93.msa
#FORMAT      : EMSA/MAS spectral data file
#VERSION     : TC202v2.0 PIXL
#TITLE       : Novarupta (sol567) subset1
#DATE        : 02-11-2024      Date in the format DD-MMM-YYYY, for example 07-JUL-2010
#TIME        :             The time of day at which the spectrum was recorded, in 24-hour format
#OWNER       : PIXL Flight Model       (PIXL will use this to indicate which instrument took the data.)
#NPOINTS     : 4096     Number of data points in the spectrum (This can be zero for configuration only files)
#NCOLUMNS    : 2     Number of data columns in the spectrum (This can be zero for configuration only files)
#XUNITS      : eV
#YUNITS      : COUNTS
#DATATYPE    : YY
#XPERCHAN    : 7.862, 7.881   eV per channel (separate by commas if more than one detector)
#OFFSET      : 18.5, -22.4         eV of first channel  (separate by commas if more than one detector
#SIGNALTYPE  : XRF
#YP_TEMP     : -1.004
#LIVETIME    : 8.847, 8.83528   seconds (separate by commas if more than one detector)
#REALTIME    : 10, 10.0   seconds (separate by commas if more than one detector)
#SPECTRUM    : start of spectrum data
0, 0
0, 0
0, 0
0, 0
0, 0
0, 0
0, 0
0, 0
0, 0
0, 0
0, 0
0, 0
0, 0
0, 0
0, 0
0, 0
0, 0
0, 0
0, 0
0, 0
0, 0
0, 0
0, 0
0, 0
0, 0
0, 0
0, 0
0, 0
0, 0
0, 0
0, 0
0, 0
0, 0
0, 1
0, 1
0, 0
3, 2
4, 4
8, 2
1, 4
3, 8
2, 2
2, 1
2, 2
2, 0
3, 4
2, 3
3, 0
0, 3
5, 3
11, 2
10, 4
11, 9
16, 23
14, 11
10, 21
14, 7
6, 12
8, 11
13, 9
21, 25
28, 19
37, 42
41, 50
51, 44
40, 48
46, 32
26, 29
42, 42
59, 69
123, 130
207, 198
314, 319
396, 430
477, 516
448, 451
422, 429
303, 309
226, 209
130, 117
76, 72
43, 40
38, 28
26, 28
40, 26
30, 37
27, 32
36, 31
21, 15
23, 14
18, 17
13, 15
28, 26
49, 45
88, 75
124, 132
178, 185
241, 265
259, 259
275, 304
257, 264
207, 164
132, 156
114, 86
68, 65
50, 39
67, 58
70, 76
106, 86
135, 133
156, 163
214, 222
201, 233
207, 214
183, 196
161, 159
146, 119
95, 95
86, 89
85, 87
84, 79
82, 73
73, 61
42, 46
46, 52
38, 36
38, 19
18, 16
16, 20
13, 15
13, 11
5, 10
7, 2
7, 4
8, 5
10, 10
8, 13
10, 23
16, 14
26, 28
32, 30
34, 26
23, 27
19, 29
17, 15
17, 12
9, 15
14, 7
14, 13
13, 14
30, 33
55, 57
98, 107
145, 150
201, 224
267, 295
304, 360
337, 364
332, 315
264, 304
218, 182
140, 123
82, 71
64, 62
37, 30
22, 25
35, 28
30, 38
41, 41
43, 58
56, 60
46, 57
53, 51
47, 38
35, 27
28, 26
17, 13
14, 7
11, 15
11, 14
9, 6
5, 5
7, 15
9, 12
10, 11
16, 25
20, 24
34, 25
42, 36
49, 53
66, 57
48, 70
54, 64
65, 59
60, 62
46, 54
24, 39
14, 27
18, 20
25, 15
18, 18
16, 10
17, 10
15, 12
13, 13
16, 11
18, 13
10, 17
12, 14
25, 22
31, 21
28, 22
20, 23
21, 16
16, 12
12, 6
15, 16
9, 10
5, 6
11, 6
12, 11
9, 16
11, 14
10, 21
14, 16
24, 23
12, 27
18, 22
33, 22
33, 32
40, 23
25, 27
32, 21
27, 14
20, 18
14, 14
11, 19
14, 15
12, 6
11, 13
9, 8
8, 10
10, 11
9, 15
13, 13
24, 27
37, 26
30, 38
30, 36
47, 44
38, 51
49, 52
36, 37
46, 44
44, 35
30, 31
32, 25
17, 21
23, 18
27, 21
20, 25
31, 44
46, 59
99, 94
151, 157
267, 308
386, 528
671, 836
958, 1098
1261, 1404
1477, 1674
1660, 1715
1658, 1681
1600, 1458
1336, 1326
1087, 943
735, 686
539, 400
300, 232
188, 139
98, 88
55, 39
32, 22
17, 27
16, 23
20, 15
11, 12
13, 14
16, 16
12, 16
26, 27
34, 35
37, 55
68, 79
100, 111
135, 151
169, 189
221, 223
248, 252
248, 246
256, 257
241, 238
201, 210
171, 142
123, 97
88, 83
40, 42
27, 22
21, 14
14, 11
11, 7
13, 4
6, 7
5, 11
12, 7
8, 14
13, 13
11, 11
8, 14
11, 14
12, 10
8, 7
15, 8
7, 12
9, 9
7, 6
13, 7
8, 6
1, 2
6, 7
7, 9
5, 4
8, 7
7, 8
5, 6
1, 6
7, 7
4, 6
9, 6
9, 1
6, 7
11, 1
5, 11
4, 6
12, 5
6, 9
6, 7
8, 10
7, 6
7, 8
5, 8
7, 10
10, 7
4, 8
7, 5
6, 5
10, 4
7, 6
8, 9
4, 4
2, 6
6, 9
6, 12
7, 9
10, 13
10, 6
13, 18
12, 8
16, 12
7, 8
8, 7
6, 6
5, 6
8, 9
5, 6
8, 6
6, 2
9, 6
4, 3
5, 5
2, 5
4, 4
7, 7
5, 3
8, 6
3, 7
6, 4
7, 5
4, 7
5, 5
5, 6
7, 3
5, 1
5, 8
12, 7
6, 5
2, 7
3, 5
5, 5
5, 10
4, 4
4, 7
4, 7
9, 2
1, 6
7, 6
5, 4
3, 0
7, 6
7, 1
3, 10
6, 5
1, 5
2, 5
5, 2
6, 5
5, 4
2, 6
8, 5
4, 3
3, 3
3, 2
6, 5
9, 4
3, 5
7, 12
6, 3
6, 2
3, 8
3, 3
3, 6
4, 1
6, 6
5, 3
4, 3
3, 4
1, 4
3, 3
2, 7
3, 8
10, 6
3, 3
5, 7
2, 1
3, 4
2, 3
2, 5
2, 3
4, 2
3, 3
4, 0
5, 4
3, 6
0, 0
0, 7
2, 2
1, 2
6, 1
2, 3
5, 1
4, 1
4, 6
3, 5
4, 2
3, 4
4, 2
3, 3
4, 0
1, 4
5, 3
0, 2
0, 4
0, 3
3, 3
2, 2
6, 3
4, 1
0, 3
3, 5
6, 2
2, 1
2, 0
6, 4
2, 5
3, 4
6, 1
7, 5
1, 3
1, 3
2, 2
3, 5
1, 6
3, 2
0, 5
3, 5
2, 0
1, 0
2, 2
2, 6
2, 1
1, 3
3, 2
5, 2
5, 1
2, 3
0, 4
0, 2
2, 3
4, 2
0, 2
0, 1
3, 4
3, 2
1, 3
0, 3
3, 4
2, 1
3, 3
0, 2
2, 1
1, 1
1, 0
3, 2
1, 0
3, 4
3, 1
2, 0
0, 1
0, 1
0, 2
2, 2
2, 0
0, 2
1, 3
3, 1
1, 2
2, 7
3, 4
0, 2
1, 2
6, 1
3, 3
1, 2
3, 3
4, 3
4, 4
1, 2
2, 1
4, 1
1, 1
1, 1
1, 1
1, 3
2, 3
0, 3
2, 1
2, 3
4, 1
2, 2
0, 1
3, 2
2, 1
1, 1
2, 1
2, 3
4, 2
2, 0
3, 3
3, 1
2, 3
2, 2
0, 2
1, 3
1, 2
1, 0
1, 1
2, 1
0, 1
1, 0
1, 0
1, 3
3, 0
1, 1
0, 1
2, 0
1, 2
0, 1
1, 1
1, 3
0, 4
1, 1
1, 0
3, 2
2, 0
1, 0
1, 3
0, 0
1, 0
1, 1
0, 1
2, 0
2, 1
2, 1
0, 2
1, 0
2, 1
1, 1
0, 0
1, 1
4, 0
1, 2
3, 1
0, 0
3, 2
0, 0
0, 0
0, 0
0, 2
1, 2
1, 1
0, 1
1, 2
1, 0
2, 0
0, 0
0, 2
0, 0
2, 1
0, 3
2, 0
0, 0
1, 1
1, 1
0, 3
0, 1
0, 1
0, 2
0, 0
0, 2
0, 0
1, 2
3, 1
2, 0
1, 0
0, 0
1, 0
0, 0
0, 0
3, 0
2, 0
1, 0
1, 0
0, 0
0, 0
0, 0
0, 1
1, 0
1, 1
1, 1
0, 1
0, 2
0, 0
0, 0
1, 1
0, 0
1, 0
2, 1
0, 0
0, 0
1, 0
0, 2
2, 0
1, 0
0, 0
1, 1
0, 1
0, 0
0, 2
2, 0
0, 0
1, 0
1, 0
0, 0
0, 0
0, 2
1, 0
0, 0
0, 0
3, 1
2, 0
2, 0
0, 0
0, 1
0, 1
0, 0
0, 1
0, 0
0, 1
0, 0
0, 0
1, 0
0, 0
0, 3
1, 1
2, 1
0, 1
1, 0
1, 1
1, 0
0, 1
0, 0
0, 0
0, 1
0, 0
0, 0
1, 0
1, 1
0, 0
0, 1
0, 1
0, 0
0, 0
0, 0
0, 0
0, 0
0, 0
0, 0
0, 0
0, 2
0, 2
0, 0
0, 0
0, 0
1, 0
0, 1
0, 0
0, 0
0, 1
0, 0
0, 0
0, 0
0, 1
0, 0
0, 0
0, 1
0, 0
0, 0
1, 0
0, 0
1, 0
0, 0
0, 0
0, 0
1, 0
0, 1
1, 0
0, 1
0, 0
0, 0
0, 1
0, 0
0, 0
0, 0
1, 0
0, 0
0, 0
0, 0
0, 1
0, 1
0, 0
0, 0
0, 0
1, 0
0, 0
0, 0
1, 0
0, 0
0, 1
0, 0
0, 0
0, 0
0, 1
1, 2
0, 0
1, 0
1, 0
0, 0
0, 0
0, 0
0, 0
0, 0
1, 0
0, 1
1, 0
0, 1
0, 0
0, 0
0, 0
1, 0
0, 0
0, 0
1, 0
1, 1
0, 2
0, 0
0, 0
0, 0
0, 0
0, 1
0, 0
0, 0
0, 0
0, 0
1, 0
0, 0
0, 0
0, 0
0, 0
0, 0
1, 0
0, 0
0, 0
0, 0
0, 0
0, 0
0, 0
0, 0
0, 0
0, 0
0, 0
0, 0
1, 0
0, 0
0, 0
0, 0
0, 0
0, 0
0, 0
0, 0
0, 0
0, 0
0, 0
1, 0
0, 1
0, 0
0, 0
0, 0
0, 0
0, 0
0, 0
0, 0
0, 1
0, 0
1, 1
0, 0
0, 0
0, 0
0, 1
0, 1
0, 0
0, 2
0, 0
0, 0
0, 0
0, 0
0, 0
0, 0
0, 0
0, 1
0, 0
0, 0
0, 0
0, 0
0, 0
0, 0
0, 0
1, 0
0, 0
0, 0
0, 0
0, 0
0, 0
0, 0
0, 0
0, 0
0, 0
0, 0
0, 0
0, 0
0, 0
0, 2
0, 0
0, 0
0, 0
0, 0
0, 0
0, 0
0, 0
0, 0
0, 0
0, 0
0, 0
0, 1
0, 0
0, 0
0, 0
0, 0
0, 0
1, 0
0, 0
0, 0
0, 0
0, 0
0, 0
0, 0
0, 0
0, 0
0, 0
0, 0
0, 0
0, 0
0, 0
0, 0
0, 0
0, 0
0, 2
0, 0
0, 0
0, 0
0, 0
0, 0
0, 0
0, 0
0, 0
0, 0
0, 0
0, 0
0, 0
0, 0
0, 0
0, 0
0, 0
0, 0
0, 0
0, 0
0, 0
1, 0
0, 0
0, 0
0, 0
0, 0
0, 0
0, 0
0, 0
0, 0
0, 0
0, 0
0, 0
0, 0
0, 0
0, 0
0, 0
0, 0
0, 0
0, 0
0, 0
0, 0
0, 0
0, 0
0, 0
0, 0
0, 0
0, 0
0, 0
0, 0
0, 0
0, 0
0, 0
0, 0
0, 0
0, 0
0, 0
0, 0
0, 0
0, 0
0, 0
0, 0
0, 0
0, 1
0, 0
0, 0
0, 0
0, 0
0, 0
0, 0
0, 0
0, 0
0, 0
0, 0
0, 0
0, 0
0, 0
0, 0
0, 0
0, 0
0, 0
0, 0
0, 0
0, 0
0, 0
0, 0
0, 0
0, 0
0, 0
0, 0
0, 0
0, 0
0, 0
0, 0
0, 0
0, 0
0, 0
0, 0
0, 0
0, 0
0, 0
0, 0
0, 0
0, 0
0, 0
0, 0
0, 0
0, 0
0, 0
0, 0
0, 0
0, 0
0, 0
0, 0
0, 0
0, 0
0, 0
0, 0
0, 0
0, 0
0, 0
0, 0
0, 0
0, 0
0, 0
0, 0
0, 0
0, 0
0, 0
0, 0
0, 0
0, 0
0, 0
0, 0
0, 0
0, 0
0, 0
0, 0
0, 0
0, 0
0, 0
0, 0
0, 0
0, 0
0, 0
0, 0
0, 0
0, 0
0, 0
0, 0
0, 0
0, 0
0, 0
0, 0
0, 0
0, 0
0, 0
0, 0
0, 0
0, 0
0, 0
0, 0
0, 0
0, 0
0, 0
0, 0
0, 0
0, 0
0, 0
0, 0
0, 0
0, 0
0, 0
0, 0
0, 0
0, 0
0, 0
0, 0
0, 0
0, 0
0, 0
0, 0
0, 0
0, 0
0, 0
0, 0
0, 0
0, 0
0, 0
0, 0
0, 0
0, 0
0, 0
0, 0
0, 0
0, 0
0, 0
0, 0
0, 0
0, 0
0, 0
0, 0
0, 0
0, 0
0, 0
0, 0
0, 0
0, 0
0, 0
0, 0
0, 0
0, 0
0, 0
0, 0
0, 0
0, 0
0, 0
0, 0
0, 0
0, 0
0, 0
0, 0
0, 0
0, 0
0, 0
0, 0
0, 0
0, 0
0, 0
0, 0
0, 0
0, 0
0, 0
0, 0
0, 0
0, 0
0, 0
0, 0
0, 0
0, 0
0, 0
0, 0
0, 0
0, 0
0, 0
0, 0
0, 0
0, 0
0, 0
0, 0
0, 0
0, 0
0, 0
0, 0
0, 0
0, 0
0, 0
0, 0
0, 0
0, 0
0, 0
0, 0
0, 0
0, 0
0, 0
0, 0
0, 0
0, 0
0, 0
0, 0
0, 0
0, 0
0, 0
0, 0
0, 0
0, 0
0, 0
0, 0
0, 0
0, 0
0, 0
0, 0
0, 0
0, 0
0, 0
0, 0
0, 0
0, 0
0, 0
0, 0
0, 0
0, 0
0, 0
0, 0
0, 0
0, 0
0, 0
0, 0
0, 0
0, 0
0, 0
0, 0
0, 0
0, 0
0, 0
0, 0
0, 0
0, 0
0, 0
0, 0
0, 0
0, 0
0, 0
0, 0
0, 0
0, 0
0, 0
0, 0
0, 0
0, 0
0, 0
0, 0
0, 0
0, 0
0, 0
0, 0
0, 0
0, 0
0, 0
0, 0
0, 0
0, 0
0, 0
0, 0
0, 0
0, 0
0, 0
0, 0
0, 0
0, 0
0, 0
0, 0
0, 0
0, 0
0, 0
0, 0
0, 0
0, 0
0, 0
0, 0
0, 0
0, 0
0, 0
0, 0
0, 0
0, 0
0, 0
0, 0
0, 0
0, 0
0, 0
0, 0
0, 0
0, 0
0, 0
0, 0
0, 0
0, 0
0, 0
0, 0
0, 0
0, 0
0, 0
0, 0
0, 0
0, 0
0, 0
0, 0
0, 0
0, 0
0, 0
0, 0
0, 0
0, 0
0, 0
0, 0
0, 0
0, 0
0, 0
0, 0
0, 0
0, 0
0, 0
0, 0
0, 0
0, 0
0, 0
0, 0
0, 0
0, 0
0, 0
0, 0
0, 0
0, 0
0, 0
0, 0
0, 0
0, 0
0, 0
0, 0
0, 0
0, 0
0, 0
0, 0
0, 0
0, 0
0, 0
0, 0
0, 0
0, 0
0, 0
0, 0
0, 0
0, 0
0, 0
0, 0
0, 0
0, 0
0, 0
0, 0
0, 0
0, 0
0, 0
0, 0
0, 0
0, 0
0, 0
0, 0
0, 0
0, 0
0, 0
#ENDOFDATA     end of spectrum data