File: host_upload/02-11-2024/rqc/uplink1/ps__0567_0717304816_000rfs_shot_24.msa
#FORMAT      : EMSA/MAS spectral data file
#VERSION     : TC202v2.0 PIXL
#TITLE       : Novarupta (sol567) subset1
#DATE        : 02-11-2024      Date in the format DD-MMM-YYYY, for example 07-JUL-2010
#TIME        :             The time of day at which the spectrum was recorded, in 24-hour format
#OWNER       : PIXL Flight Model       (PIXL will use this to indicate which instrument took the data.)
#NPOINTS     : 4096     Number of data points in the spectrum (This can be zero for configuration only files)
#NCOLUMNS    : 2     Number of data columns in the spectrum (This can be zero for configuration only files)
#XUNITS      : eV
#YUNITS      : COUNTS
#DATATYPE    : YY
#XPERCHAN    : 7.862, 7.881   eV per channel (separate by commas if more than one detector)
#OFFSET      : 18.5, -22.4         eV of first channel  (separate by commas if more than one detector
#SIGNALTYPE  : XRF
#YP_TEMP     : -4.179
#LIVETIME    : 8.83634, 8.83063   seconds (separate by commas if more than one detector)
#REALTIME    : 10, 10.0   seconds (separate by commas if more than one detector)
#SPECTRUM    : start of spectrum data
0, 0
0, 0
0, 0
0, 0
0, 0
0, 0
0, 0
0, 0
0, 0
0, 0
0, 0
0, 0
0, 0
0, 0
0, 0
0, 0
0, 0
0, 0
0, 0
0, 0
0, 0
0, 0
0, 0
0, 0
0, 0
0, 0
0, 0
0, 0
0, 1
0, 0
0, 0
0, 0
1, 0
1, 1
1, 1
0, 4
3, 6
2, 3
7, 1
5, 4
4, 2
6, 3
3, 6
4, 2
5, 4
3, 3
1, 6
5, 3
1, 6
3, 4
9, 7
4, 11
11, 13
10, 24
12, 17
9, 14
8, 11
10, 10
12, 14
11, 13
22, 22
26, 33
36, 39
35, 52
45, 48
41, 57
29, 38
41, 39
56, 49
72, 93
125, 137
221, 232
334, 351
407, 454
443, 518
466, 466
362, 442
322, 335
217, 207
129, 126
74, 65
44, 39
36, 28
25, 23
37, 35
29, 43
22, 46
27, 38
20, 27
22, 20
21, 20
26, 26
38, 35
63, 67
115, 106
156, 174
226, 254
252, 284
280, 337
283, 315
263, 222
203, 196
120, 134
89, 100
65, 74
65, 65
48, 70
79, 83
120, 138
174, 188
204, 216
221, 261
253, 249
237, 234
189, 209
173, 182
131, 136
92, 110
102, 95
82, 89
103, 75
74, 78
68, 57
54, 49
40, 42
36, 40
30, 30
20, 18
17, 16
15, 19
8, 12
11, 8
9, 9
5, 14
4, 11
12, 8
9, 8
18, 21
26, 27
27, 34
24, 32
27, 32
20, 25
23, 23
13, 23
11, 7
13, 16
12, 13
10, 15
24, 22
39, 54
95, 102
125, 154
180, 198
269, 263
303, 307
373, 390
313, 370
288, 342
250, 305
199, 188
114, 131
81, 82
55, 48
41, 49
20, 36
38, 27
36, 47
41, 48
63, 56
44, 57
46, 55
64, 43
52, 43
38, 33
30, 22
20, 15
16, 14
9, 9
10, 10
6, 5
7, 10
11, 7
8, 7
13, 12
17, 23
17, 26
34, 28
35, 47
39, 55
45, 68
70, 64
49, 71
44, 61
38, 55
33, 42
23, 31
15, 27
22, 15
13, 12
14, 24
13, 10
14, 18
15, 11
13, 9
9, 17
16, 28
13, 12
18, 18
19, 21
16, 13
15, 13
11, 17
17, 19
16, 12
12, 11
7, 17
12, 12
8, 10
8, 9
11, 7
11, 15
15, 10
13, 14
21, 16
23, 21
18, 24
23, 22
26, 34
28, 26
24, 31
22, 28
24, 23
18, 27
20, 21
19, 16
10, 11
9, 7
7, 9
9, 17
14, 17
17, 14
11, 14
18, 15
16, 13
19, 22
27, 33
30, 62
44, 45
46, 62
45, 51
39, 57
45, 40
35, 41
43, 32
33, 31
27, 19
19, 19
20, 26
21, 19
28, 32
37, 42
64, 97
122, 141
237, 305
363, 464
583, 719
840, 1040
1125, 1336
1371, 1656
1571, 1782
1527, 1827
1480, 1746
1369, 1463
1104, 1163
842, 877
611, 558
427, 334
236, 185
141, 105
98, 56
37, 27
16, 24
23, 19
19, 24
17, 24
13, 15
19, 22
10, 25
19, 26
28, 34
35, 51
64, 70
89, 105
135, 126
177, 198
204, 229
216, 261
243, 285
255, 244
268, 254
202, 228
169, 149
118, 131
84, 89
56, 53
35, 23
27, 15
22, 12
11, 16
15, 8
19, 9
12, 9
10, 14
13, 10
8, 13
10, 12
9, 9
13, 13
3, 8
9, 7
6, 6
1, 9
14, 4
10, 10
4, 8
7, 5
6, 5
4, 9
10, 6
5, 4
7, 9
5, 7
7, 9
2, 6
5, 2
7, 4
3, 9
6, 8
6, 4
5, 7
3, 11
8, 11
8, 7
10, 9
6, 6
8, 3
9, 11
6, 4
6, 7
9, 10
6, 8
4, 6
3, 10
7, 8
11, 6
3, 6
3, 12
8, 8
7, 7
8, 9
9, 9
8, 11
4, 10
4, 12
7, 10
11, 16
11, 13
4, 10
8, 9
5, 11
12, 9
8, 6
8, 5
5, 3
7, 10
2, 6
2, 5
5, 6
7, 7
4, 6
5, 7
6, 8
6, 5
6, 2
6, 11
6, 7
4, 3
3, 6
5, 8
6, 6
2, 7
5, 6
5, 7
6, 6
5, 5
4, 7
5, 6
5, 5
7, 4
7, 5
3, 9
3, 4
7, 4
6, 5
6, 8
8, 5
4, 6
1, 6
7, 4
3, 8
3, 9
4, 4
6, 4
8, 8
7, 3
7, 2
8, 4
3, 2
6, 6
3, 3
3, 5
7, 6
4, 8
5, 7
5, 4
3, 7
4, 4
3, 4
2, 1
0, 7
3, 2
3, 4
6, 6
5, 7
5, 5
4, 5
1, 4
4, 5
4, 4
4, 2
1, 5
5, 2
1, 3
5, 3
3, 6
2, 4
2, 5
5, 7
7, 2
1, 5
4, 3
6, 4
2, 6
1, 2
3, 1
1, 3
3, 3
5, 5
2, 3
3, 0
0, 5
3, 5
2, 1
3, 2
3, 4
0, 2
3, 1
0, 5
0, 5
2, 6
1, 5
3, 5
2, 6
2, 5
0, 8
0, 2
1, 5
1, 2
2, 3
2, 6
5, 3
3, 2
3, 0
3, 8
3, 7
3, 6
4, 3
2, 1
5, 1
4, 1
5, 3
1, 2
0, 3
1, 5
1, 4
2, 3
3, 2
3, 2
3, 3
4, 1
1, 1
1, 1
2, 4
1, 3
3, 3
1, 4
0, 2
3, 5
2, 4
3, 5
4, 3
2, 1
1, 2
3, 2
1, 1
0, 0
2, 3
0, 1
2, 3
1, 2
0, 4
3, 0
2, 0
8, 3
0, 1
0, 2
6, 2
2, 1
6, 3
1, 3
3, 1
4, 4
4, 3
2, 1
1, 3
0, 4
1, 6
1, 1
2, 1
6, 2
2, 2
2, 3
0, 3
3, 2
4, 5
3, 3
1, 1
2, 1
3, 5
3, 1
0, 0
3, 3
3, 2
0, 2
1, 2
1, 4
1, 2
1, 4
1, 1
1, 4
0, 3
1, 1
0, 1
3, 1
4, 0
0, 2
2, 0
4, 4
3, 3
1, 4
0, 2
1, 0
2, 1
1, 1
8, 1
0, 1
0, 4
0, 0
2, 0
0, 0
3, 4
0, 2
2, 1
2, 1
0, 1
1, 0
0, 1
3, 3
2, 0
1, 1
0, 1
0, 2
3, 1
0, 1
0, 0
1, 3
2, 1
3, 0
2, 1
1, 0
1, 1
0, 1
3, 1
0, 2
1, 2
0, 1
0, 0
2, 1
4, 3
0, 1
2, 2
0, 0
1, 0
0, 0
0, 0
1, 1
0, 0
1, 2
0, 0
2, 1
1, 0
0, 1
0, 0
2, 0
1, 0
1, 2
1, 1
0, 1
0, 1
0, 5
1, 0
0, 0
0, 0
2, 0
0, 2
0, 1
0, 0
2, 1
1, 1
0, 0
1, 1
0, 2
1, 0
2, 0
0, 1
0, 0
1, 0
0, 0
1, 1
0, 1
0, 0
1, 0
0, 2
0, 1
1, 0
2, 1
0, 1
0, 1
0, 2
0, 1
1, 0
1, 0
0, 2
1, 1
2, 1
1, 0
1, 0
0, 1
0, 2
1, 0
0, 1
2, 0
1, 0
0, 0
0, 0
0, 1
1, 0
0, 0
1, 0
0, 2
1, 0
0, 0
1, 0
0, 0
0, 0
1, 0
0, 1
0, 0
0, 0
0, 0
0, 0
1, 0
1, 0
1, 0
0, 2
0, 0
1, 0
0, 0
0, 0
0, 0
0, 0
2, 0
0, 0
0, 1
0, 0
0, 1
0, 0
0, 0
0, 0
0, 1
0, 0
0, 1
1, 1
0, 0
1, 0
1, 1
1, 0
2, 0
1, 0
0, 1
0, 1
0, 0
0, 0
1, 0
0, 2
0, 0
1, 1
0, 1
0, 0
0, 0
0, 0
0, 0
0, 0
0, 0
0, 0
0, 0
2, 0
0, 0
0, 0
1, 0
0, 0
0, 0
1, 1
1, 0
0, 0
0, 0
0, 0
1, 0
0, 0
1, 0
0, 0
0, 0
0, 0
0, 0
0, 0
1, 0
1, 0
0, 0
0, 0
0, 0
0, 0
0, 0
0, 0
0, 1
0, 0
0, 0
0, 0
0, 0
0, 1
0, 0
1, 0
0, 0
1, 0
1, 3
0, 1
1, 0
0, 1
0, 0
0, 2
0, 0
2, 1
1, 0
0, 1
0, 0
1, 0
0, 0
0, 1
0, 0
0, 0
0, 0
2, 0
0, 0
0, 1
0, 0
0, 0
0, 0
0, 0
1, 0
1, 0
0, 0
0, 0
1, 0
0, 0
0, 1
0, 0
0, 1
0, 0
0, 0
0, 0
0, 1
0, 0
0, 0
0, 0
1, 0
0, 0
0, 0
0, 0
0, 0
0, 0
0, 0
0, 0
0, 0
0, 0
0, 0
0, 0
1, 1
0, 1
0, 0
0, 0
0, 0
0, 0
0, 0
0, 0
0, 0
0, 0
0, 0
0, 0
0, 0
0, 0
0, 1
0, 0
0, 0
0, 0
0, 0
0, 0
0, 0
0, 0
0, 0
0, 0
0, 1
1, 2
0, 0
0, 0
0, 0
0, 0
0, 0
0, 0
0, 0
0, 0
1, 0
0, 0
1, 0
0, 0
0, 0
0, 0
0, 0
0, 0
0, 0
0, 0
0, 0
0, 0
0, 0
0, 0
0, 0
0, 0
0, 0
0, 0
0, 1
0, 0
0, 0
0, 0
0, 0
0, 1
0, 0
1, 0
0, 0
0, 0
0, 0
0, 0
0, 0
0, 0
0, 0
0, 0
0, 0
0, 0
0, 0
0, 0
0, 0
0, 0
0, 0
0, 0
0, 1
0, 0
0, 0
0, 0
0, 0
0, 0
0, 0
0, 0
0, 0
0, 0
0, 0
1, 0
0, 0
0, 0
0, 0
0, 0
1, 0
0, 0
0, 0
0, 0
0, 0
0, 0
0, 0
0, 0
0, 0
0, 0
0, 0
0, 1
0, 0
0, 0
0, 0
0, 0
0, 0
0, 0
0, 0
0, 0
0, 0
0, 0
0, 0
0, 0
0, 0
0, 1
0, 0
0, 0
0, 0
0, 0
0, 0
0, 0
0, 0
0, 0
0, 0
0, 0
0, 0
0, 0
0, 0
0, 0
0, 0
0, 0
0, 0
0, 0
0, 0
0, 0
0, 0
0, 0
0, 0
0, 0
0, 1
0, 0
0, 0
0, 0
0, 0
1, 0
0, 0
0, 0
0, 0
0, 0
0, 0
1, 0
1, 0
0, 0
0, 0
0, 0
0, 0
0, 0
0, 0
0, 0
0, 0
0, 0
0, 0
0, 0
0, 0
0, 0
0, 0
0, 0
0, 0
0, 0
0, 0
0, 0
0, 0
0, 0
0, 0
0, 0
0, 0
0, 0
0, 0
0, 0
0, 0
0, 0
0, 0
0, 0
0, 0
0, 0
0, 0
0, 0
0, 0
0, 0
0, 0
0, 0
0, 0
0, 0
0, 0
0, 0
0, 0
0, 0
0, 0
0, 0
0, 0
0, 0
0, 0
0, 0
0, 0
0, 0
0, 0
0, 0
0, 0
0, 0
0, 0
0, 0
0, 0
0, 0
0, 0
0, 0
0, 0
0, 0
0, 0
0, 0
0, 0
0, 0
0, 0
0, 0
0, 0
0, 0
0, 0
0, 0
0, 0
0, 0
0, 0
0, 0
0, 0
0, 0
0, 0
0, 0
0, 0
0, 0
0, 0
0, 0
0, 0
0, 0
0, 0
0, 0
0, 0
0, 0
0, 0
0, 0
0, 0
0, 0
0, 0
0, 0
0, 0
0, 0
0, 0
0, 0
0, 0
0, 0
0, 0
0, 0
0, 0
0, 0
0, 0
0, 0
0, 0
0, 0
0, 0
0, 0
0, 0
0, 0
0, 0
0, 0
0, 0
0, 0
0, 0
0, 0
0, 0
0, 0
0, 0
0, 0
0, 0
0, 0
0, 0
0, 0
0, 0
0, 0
0, 0
0, 0
0, 0
0, 0
0, 0
0, 0
0, 0
0, 0
0, 0
0, 0
0, 0
0, 0
0, 0
0, 0
0, 0
0, 0
0, 0
0, 0
0, 0
0, 0
0, 0
0, 0
0, 0
0, 0
0, 0
0, 0
0, 0
0, 0
0, 0
0, 0
0, 0
0, 0
0, 0
0, 0
0, 0
0, 0
0, 0
0, 0
0, 0
0, 0
0, 0
0, 0
0, 0
0, 0
0, 0
0, 0
0, 0
0, 0
0, 0
0, 0
0, 0
0, 0
0, 0
0, 0
0, 0
0, 0
0, 0
0, 0
0, 0
0, 0
0, 0
0, 0
0, 0
0, 0
0, 0
0, 0
0, 0
0, 0
0, 0
0, 0
0, 0
0, 0
0, 0
0, 0
0, 0
0, 0
0, 0
0, 0
0, 0
0, 0
0, 0
0, 0
0, 0
0, 0
0, 0
0, 0
0, 0
0, 0
0, 0
0, 0
0, 0
0, 0
0, 0
0, 0
0, 0
0, 0
0, 0
0, 0
0, 0
0, 0
0, 0
0, 0
0, 0
0, 0
0, 0
0, 0
0, 0
0, 0
0, 0
0, 0
0, 0
0, 0
0, 0
0, 0
0, 0
0, 0
0, 0
0, 0
0, 0
0, 0
0, 0
0, 0
0, 0
0, 0
0, 0
0, 0
0, 0
0, 0
0, 0
0, 0
0, 0
0, 0
0, 0
0, 0
0, 0
0, 0
0, 0
0, 0
0, 0
0, 0
0, 0
0, 0
0, 0
0, 0
0, 0
0, 0
0, 0
0, 0
0, 0
0, 0
0, 0
0, 0
0, 0
0, 0
0, 0
0, 0
0, 0
0, 0
0, 0
0, 0
0, 0
0, 0
0, 0
0, 0
0, 0
0, 0
0, 0
0, 0
0, 0
0, 0
0, 0
0, 0
0, 0
0, 0
0, 0
0, 0
0, 0
0, 0
0, 0
0, 0
0, 0
0, 0
0, 0
0, 0
0, 0
0, 0
0, 0
0, 0
0, 0
0, 0
0, 0
0, 0
0, 0
0, 0
0, 0
0, 0
0, 0
0, 0
0, 0
0, 0
0, 0
0, 0
0, 0
0, 0
0, 0
0, 0
0, 0
0, 0
0, 0
0, 0
0, 0
0, 0
0, 0
0, 0
0, 0
0, 0
0, 0
0, 0
0, 0
0, 0
0, 0
0, 0
0, 0
0, 0
0, 0
0, 0
0, 0
0, 0
0, 0
0, 0
0, 0
0, 0
0, 0
0, 0
0, 0
0, 0
0, 0
0, 0
0, 0
0, 0
0, 0
0, 0
0, 0
0, 0
0, 0
0, 0
0, 0
0, 0
0, 0
0, 0
0, 0
0, 0
#ENDOFDATA     end of spectrum data