File: host_upload/02-11-2024/rqc/uplink1/ps__0567_0717304816_000rfs_shot_298.msa
#FORMAT      : EMSA/MAS spectral data file
#VERSION     : TC202v2.0 PIXL
#TITLE       : Novarupta (sol567) subset1
#DATE        : 02-11-2024      Date in the format DD-MMM-YYYY, for example 07-JUL-2010
#TIME        :             The time of day at which the spectrum was recorded, in 24-hour format
#OWNER       : PIXL Flight Model       (PIXL will use this to indicate which instrument took the data.)
#NPOINTS     : 4096     Number of data points in the spectrum (This can be zero for configuration only files)
#NCOLUMNS    : 2     Number of data columns in the spectrum (This can be zero for configuration only files)
#XUNITS      : eV
#YUNITS      : COUNTS
#DATATYPE    : YY
#XPERCHAN    : 7.862, 7.881   eV per channel (separate by commas if more than one detector)
#OFFSET      : 18.5, -22.4         eV of first channel  (separate by commas if more than one detector
#SIGNALTYPE  : XRF
#YP_TEMP     : 1.369
#LIVETIME    : 8.83162, 8.81338   seconds (separate by commas if more than one detector)
#REALTIME    : 10, 10.0   seconds (separate by commas if more than one detector)
#SPECTRUM    : start of spectrum data
0, 0
0, 0
0, 0
0, 0
0, 0
0, 0
0, 0
0, 0
0, 0
0, 0
0, 0
0, 0
0, 0
0, 0
0, 0
0, 0
0, 0
0, 0
0, 0
0, 0
0, 0
0, 0
0, 0
0, 0
0, 0
0, 0
0, 0
0, 0
0, 0
0, 0
0, 0
0, 0
0, 0
1, 0
0, 0
3, 2
2, 1
5, 2
4, 3
1, 2
3, 8
3, 9
4, 5
6, 4
1, 6
4, 2
6, 2
1, 6
4, 3
5, 5
6, 7
8, 7
9, 21
11, 16
17, 13
16, 23
8, 7
6, 16
6, 8
11, 7
23, 12
27, 36
25, 38
40, 54
43, 42
45, 60
32, 46
29, 34
26, 41
49, 64
102, 122
170, 223
302, 361
400, 449
499, 552
472, 498
453, 477
325, 377
223, 246
148, 142
84, 81
45, 37
35, 29
34, 35
33, 42
38, 39
31, 35
27, 31
25, 27
19, 24
29, 13
19, 16
28, 28
51, 46
84, 104
150, 154
251, 234
250, 354
315, 368
334, 354
311, 327
260, 244
167, 180
132, 99
78, 73
61, 64
52, 43
73, 62
83, 89
113, 119
152, 182
187, 187
227, 215
224, 228
199, 182
144, 154
123, 146
107, 127
91, 80
67, 80
62, 78
62, 84
72, 62
55, 71
30, 58
34, 27
24, 30
22, 29
22, 22
17, 11
11, 12
8, 7
5, 9
4, 9
4, 6
9, 5
5, 13
6, 13
21, 21
26, 16
38, 42
34, 29
30, 24
26, 27
23, 17
13, 11
9, 16
10, 11
17, 7
19, 19
24, 33
42, 69
66, 122
138, 181
216, 278
281, 335
304, 415
361, 421
363, 401
328, 315
239, 250
155, 177
111, 94
73, 60
38, 31
23, 27
19, 32
40, 33
37, 40
43, 43
53, 65
77, 67
52, 52
44, 57
32, 45
41, 21
24, 22
13, 18
6, 12
6, 6
7, 4
6, 10
5, 9
8, 9
9, 12
11, 9
23, 15
18, 35
34, 38
38, 61
48, 56
58, 72
66, 67
68, 63
54, 48
36, 53
36, 34
24, 20
28, 20
22, 17
12, 19
20, 8
21, 11
14, 19
17, 14
16, 16
18, 13
18, 18
16, 20
19, 27
20, 17
16, 26
14, 15
13, 22
10, 23
12, 9
10, 10
12, 16
11, 11
9, 17
13, 9
11, 12
12, 12
12, 15
14, 17
13, 21
16, 28
18, 27
19, 27
39, 42
25, 35
33, 37
19, 22
26, 37
15, 26
19, 17
12, 21
17, 11
12, 9
15, 11
15, 15
12, 11
13, 21
12, 17
16, 18
17, 29
25, 36
34, 33
44, 49
49, 51
50, 51
49, 78
43, 46
26, 46
31, 38
31, 25
25, 31
23, 19
21, 27
17, 20
28, 18
26, 22
34, 60
67, 90
109, 194
211, 284
361, 497
554, 701
873, 1027
1181, 1506
1393, 1665
1636, 1904
1726, 1939
1610, 1778
1452, 1449
1158, 1099
900, 793
613, 519
397, 292
221, 179
121, 101
74, 64
32, 33
29, 27
18, 20
18, 18
17, 19
17, 19
19, 14
26, 26
23, 23
28, 32
37, 40
62, 62
81, 121
108, 135
143, 191
179, 231
235, 285
241, 269
245, 268
264, 252
212, 205
176, 182
130, 121
84, 93
66, 44
47, 37
33, 19
13, 12
10, 10
2, 7
8, 7
9, 9
6, 12
13, 7
11, 10
11, 11
10, 8
13, 10
11, 8
7, 8
9, 12
5, 10
6, 5
6, 5
8, 11
8, 9
6, 10
8, 5
6, 12
5, 5
8, 5
12, 7
4, 11
9, 7
7, 10
5, 12
4, 6
7, 10
7, 6
6, 6
3, 4
4, 4
4, 7
5, 11
9, 9
4, 6
9, 10
3, 9
6, 4
9, 6
4, 11
7, 14
7, 5
9, 7
6, 15
5, 5
7, 7
4, 5
8, 8
6, 6
7, 14
10, 9
6, 19
6, 7
10, 6
14, 9
10, 12
16, 7
9, 11
3, 12
2, 9
10, 7
9, 11
8, 3
9, 4
3, 1
5, 4
7, 3
6, 10
5, 6
3, 9
4, 6
4, 1
8, 14
12, 5
6, 4
7, 4
4, 8
6, 3
4, 4
8, 4
4, 4
3, 3
8, 6
2, 7
1, 7
4, 3
7, 4
5, 6
2, 11
4, 3
6, 7
3, 7
3, 2
3, 10
9, 5
3, 9
9, 6
5, 3
7, 4
7, 2
4, 2
1, 5
4, 4
6, 5
2, 2
7, 8
2, 6
0, 4
3, 3
4, 1
2, 5
9, 4
2, 4
6, 4
5, 4
2, 4
3, 3
5, 5
1, 5
5, 4
1, 5
3, 7
3, 2
2, 2
2, 4
5, 3
3, 2
4, 9
2, 4
4, 4
2, 5
0, 4
1, 4
3, 4
3, 7
2, 7
4, 2
2, 6
2, 1
2, 0
0, 1
1, 4
6, 1
3, 5
2, 2
4, 4
3, 6
4, 4
3, 6
3, 2
2, 4
3, 4
2, 2
2, 7
3, 5
2, 3
1, 2
3, 5
1, 4
4, 2
4, 2
1, 4
5, 4
1, 3
3, 2
2, 5
1, 2
1, 4
2, 2
2, 2
1, 3
4, 6
4, 0
2, 2
3, 0
2, 3
2, 2
3, 7
3, 4
3, 1
1, 3
4, 3
2, 5
0, 2
0, 5
2, 3
3, 1
3, 1
2, 2
5, 3
2, 3
1, 0
4, 4
2, 3
4, 2
1, 0
4, 3
2, 1
1, 1
2, 4
5, 3
2, 3
1, 2
3, 4
1, 2
1, 2
3, 2
4, 3
2, 2
2, 2
3, 1
0, 3
2, 0
2, 4
6, 0
0, 1
5, 2
2, 2
2, 0
2, 3
2, 2
4, 5
0, 1
4, 6
4, 2
1, 5
1, 5
1, 1
4, 7
3, 0
2, 4
4, 1
1, 2
0, 3
1, 2
1, 3
2, 2
4, 2
4, 0
1, 2
0, 2
2, 1
1, 3
2, 2
0, 3
1, 3
1, 2
3, 2
1, 3
3, 0
2, 0
0, 0
3, 2
1, 3
1, 3
4, 1
1, 2
4, 3
2, 3
0, 0
0, 0
2, 1
1, 0
1, 0
0, 0
2, 0
1, 1
1, 1
0, 1
1, 1
0, 0
2, 1
3, 2
1, 1
0, 1
0, 0
1, 0
0, 0
0, 0
0, 1
2, 4
0, 1
1, 1
1, 2
1, 0
1, 0
2, 2
2, 1
1, 3
1, 1
1, 2
4, 1
1, 0
0, 0
1, 1
1, 0
1, 1
0, 0
0, 1
2, 0
1, 0
1, 2
1, 1
0, 3
1, 2
0, 0
1, 0
0, 1
0, 0
0, 0
1, 2
0, 2
0, 0
1, 0
0, 2
2, 1
0, 3
1, 1
0, 0
1, 2
0, 1
2, 2
1, 1
1, 0
1, 0
0, 0
5, 2
1, 2
0, 0
0, 0
1, 2
0, 0
0, 0
1, 0
1, 0
1, 1
0, 2
0, 0
0, 0
1, 1
0, 0
0, 1
2, 0
0, 0
0, 0
0, 1
0, 1
0, 0
2, 1
1, 1
0, 0
1, 0
1, 0
0, 1
2, 0
0, 3
0, 0
1, 1
0, 0
0, 0
0, 0
1, 0
0, 0
1, 1
0, 2
0, 0
0, 2
1, 1
0, 0
0, 1
2, 0
1, 1
0, 1
0, 0
0, 0
0, 0
0, 1
1, 0
1, 0
0, 0
0, 1
0, 0
0, 2
0, 0
1, 0
0, 0
1, 1
0, 0
0, 2
2, 0
0, 0
0, 0
0, 0
0, 0
0, 0
0, 0
0, 0
0, 0
0, 1
0, 0
0, 1
0, 0
0, 0
0, 1
1, 0
0, 1
1, 2
1, 0
1, 0
1, 0
1, 0
0, 1
0, 2
1, 1
0, 0
1, 0
0, 1
0, 0
0, 0
0, 0
0, 0
0, 0
1, 0
1, 0
0, 0
0, 0
0, 0
1, 0
1, 0
1, 1
1, 0
0, 0
1, 1
0, 0
0, 0
0, 0
0, 0
0, 0
0, 0
0, 1
0, 0
0, 0
1, 0
0, 0
0, 0
1, 0
0, 0
0, 1
0, 0
0, 2
0, 0
0, 0
0, 0
1, 0
0, 1
0, 0
0, 1
2, 0
0, 0
0, 0
0, 0
0, 0
0, 1
0, 0
1, 0
1, 0
0, 1
0, 1
1, 0
1, 0
1, 0
0, 1
0, 0
0, 0
0, 0
0, 0
0, 0
0, 0
0, 0
0, 0
1, 0
0, 0
0, 0
0, 0
0, 0
0, 0
0, 0
0, 0
1, 1
0, 1
0, 0
0, 1
1, 0
0, 0
1, 0
0, 0
0, 0
0, 0
0, 0
0, 0
0, 0
0, 0
0, 0
0, 1
0, 0
0, 0
1, 0
0, 1
2, 0
0, 0
0, 0
0, 0
0, 1
0, 0
0, 0
0, 0
0, 0
0, 0
0, 0
0, 0
0, 1
0, 0
0, 0
0, 0
0, 0
0, 0
0, 0
0, 0
0, 0
0, 1
1, 0
0, 0
0, 0
0, 0
0, 0
0, 0
0, 0
0, 0
0, 0
0, 0
0, 0
0, 0
0, 0
0, 0
0, 0
0, 0
0, 1
0, 0
0, 0
0, 0
0, 0
0, 0
0, 0
1, 0
0, 0
0, 0
0, 0
0, 0
0, 0
0, 0
0, 0
0, 0
0, 0
0, 0
0, 0
0, 1
0, 0
0, 0
0, 0
0, 0
0, 0
0, 0
0, 0
0, 0
0, 0
0, 0
0, 0
0, 0
0, 0
0, 0
0, 0
0, 0
0, 0
0, 0
2, 0
0, 0
0, 0
0, 0
0, 0
0, 0
0, 0
0, 1
0, 0
0, 0
0, 0
0, 0
0, 0
0, 0
0, 0
0, 0
0, 0
0, 0
0, 0
0, 0
1, 0
0, 0
0, 0
0, 0
0, 0
0, 0
0, 0
0, 0
0, 0
0, 0
0, 0
0, 0
0, 0
0, 0
1, 0
0, 0
0, 0
0, 0
0, 0
0, 0
0, 0
0, 0
0, 0
0, 0
0, 0
0, 0
0, 0
0, 0
1, 0
0, 0
0, 0
0, 0
0, 0
0, 0
0, 0
0, 0
0, 0
0, 0
0, 0
0, 0
0, 0
0, 0
1, 0
0, 0
0, 0
0, 0
0, 0
0, 0
0, 0
0, 0
0, 0
0, 0
0, 0
0, 0
0, 0
1, 0
0, 0
0, 0
0, 0
0, 0
0, 0
0, 0
0, 0
0, 0
0, 0
0, 0
0, 0
0, 0
0, 0
0, 0
0, 0
0, 0
0, 0
0, 0
0, 0
1, 0
0, 0
0, 0
0, 0
0, 0
0, 0
0, 0
0, 0
0, 0
0, 0
0, 0
0, 0
0, 0
0, 0
0, 0
0, 0
0, 0
0, 0
0, 0
0, 0
0, 0
0, 0
0, 0
0, 0
0, 0
0, 0
0, 0
0, 0
0, 0
0, 0
0, 0
0, 0
0, 0
0, 0
0, 0
0, 0
0, 0
0, 0
0, 0
0, 0
0, 0
0, 0
0, 0
0, 0
0, 0
0, 0
0, 0
0, 0
0, 0
0, 0
0, 0
0, 0
0, 0
0, 0
0, 0
0, 0
0, 0
0, 0
0, 0
0, 0
0, 0
0, 0
0, 0
0, 0
0, 0
0, 0
0, 0
0, 0
0, 0
0, 0
0, 0
0, 0
0, 0
0, 0
0, 0
0, 0
0, 0
0, 0
0, 0
0, 0
0, 0
0, 1
0, 0
0, 0
0, 0
0, 0
0, 0
0, 0
0, 0
0, 0
0, 0
0, 0
0, 0
0, 0
0, 0
0, 0
0, 0
0, 0
0, 0
0, 0
0, 0
0, 0
0, 0
0, 0
0, 0
0, 0
0, 0
0, 0
0, 0
0, 0
0, 0
0, 0
0, 0
0, 0
0, 0
0, 0
0, 0
0, 0
0, 0
0, 0
0, 0
0, 0
0, 0
0, 0
0, 0
0, 0
0, 0
0, 0
0, 0
0, 0
0, 0
0, 0
0, 0
0, 0
0, 0
0, 0
0, 0
0, 0
0, 0
0, 0
0, 0
0, 0
0, 0
0, 0
0, 0
0, 0
0, 0
0, 0
0, 0
0, 0
0, 0
0, 0
0, 0
0, 0
0, 0
0, 0
0, 0
0, 0
0, 0
0, 0
0, 0
0, 0
0, 0
0, 0
0, 0
0, 0
0, 0
0, 0
0, 0
0, 0
0, 0
0, 0
0, 0
0, 0
0, 0
0, 0
0, 0
0, 0
0, 0
0, 0
0, 0
0, 0
0, 0
0, 0
0, 0
0, 0
0, 0
0, 0
0, 0
0, 0
0, 0
0, 0
0, 0
0, 0
0, 0
0, 0
0, 0
0, 0
0, 0
0, 0
0, 0
0, 0
0, 0
0, 0
0, 0
0, 0
0, 0
0, 0
0, 0
0, 0
0, 0
0, 0
0, 0
0, 0
0, 0
0, 0
0, 0
0, 0
0, 0
0, 0
0, 0
0, 0
0, 0
0, 0
0, 0
0, 0
0, 0
0, 0
0, 0
0, 0
0, 0
0, 0
0, 0
0, 0
0, 0
0, 0
0, 0
0, 0
0, 0
0, 0
0, 0
0, 0
0, 0
0, 0
0, 0
0, 0
0, 0
0, 0
0, 0
0, 0
0, 0
0, 0
0, 0
0, 0
0, 0
0, 0
0, 0
0, 0
0, 0
0, 0
0, 0
0, 0
0, 0
0, 0
0, 0
0, 0
0, 0
0, 0
0, 0
0, 0
0, 0
0, 0
0, 0
0, 0
0, 0
0, 0
0, 0
0, 0
0, 0
0, 0
0, 0
0, 0
0, 0
0, 0
0, 0
0, 0
0, 0
0, 0
0, 0
0, 0
0, 0
0, 0
0, 0
0, 0
0, 0
0, 0
0, 0
0, 0
0, 0
0, 0
0, 0
0, 0
0, 0
0, 0
0, 0
0, 0
0, 0
0, 0
0, 0
0, 0
0, 0
0, 0
0, 0
0, 0
0, 0
0, 0
0, 0
0, 0
0, 0
0, 0
0, 0
0, 0
0, 0
0, 0
0, 0
0, 0
0, 0
0, 0
0, 0
0, 0
0, 0
0, 0
0, 0
0, 0
0, 0
0, 0
0, 0
0, 0
0, 0
0, 0
0, 0
0, 0
0, 0
0, 0
0, 0
0, 0
0, 0
0, 0
0, 0
0, 0
0, 0
0, 0
0, 0
0, 0
0, 0
0, 0
0, 0
0, 0
0, 0
0, 0
0, 0
0, 0
0, 0
0, 0
0, 0
0, 0
0, 0
0, 0
0, 0
0, 0
0, 0
0, 0
0, 0
0, 0
#ENDOFDATA     end of spectrum data