File: host_upload/02-11-2024/rqc/uplink1/ps__0567_0717304816_000rfs_shot_285.msa
#FORMAT      : EMSA/MAS spectral data file
#VERSION     : TC202v2.0 PIXL
#TITLE       : Novarupta (sol567) subset1
#DATE        : 02-11-2024      Date in the format DD-MMM-YYYY, for example 07-JUL-2010
#TIME        :             The time of day at which the spectrum was recorded, in 24-hour format
#OWNER       : PIXL Flight Model       (PIXL will use this to indicate which instrument took the data.)
#NPOINTS     : 4096     Number of data points in the spectrum (This can be zero for configuration only files)
#NCOLUMNS    : 2     Number of data columns in the spectrum (This can be zero for configuration only files)
#XUNITS      : eV
#YUNITS      : COUNTS
#DATATYPE    : YY
#XPERCHAN    : 7.862, 7.881   eV per channel (separate by commas if more than one detector)
#OFFSET      : 18.5, -22.4         eV of first channel  (separate by commas if more than one detector
#SIGNALTYPE  : XRF
#YP_TEMP     : 1.305
#LIVETIME    : 8.81589, 8.8084   seconds (separate by commas if more than one detector)
#REALTIME    : 10, 10.0   seconds (separate by commas if more than one detector)
#SPECTRUM    : start of spectrum data
0, 0
0, 0
0, 0
0, 0
0, 0
0, 0
0, 0
0, 0
0, 0
0, 0
0, 0
0, 0
0, 0
0, 0
0, 0
0, 0
0, 0
0, 0
0, 0
0, 0
0, 0
0, 0
0, 0
0, 0
0, 0
0, 0
0, 0
0, 0
0, 0
0, 0
0, 0
0, 1
1, 0
0, 0
0, 0
1, 3
2, 2
4, 4
5, 5
3, 2
2, 2
6, 5
2, 2
4, 3
3, 5
3, 1
3, 3
1, 3
3, 4
4, 6
4, 5
11, 2
12, 11
22, 14
13, 20
17, 13
13, 15
7, 10
8, 10
8, 11
13, 26
30, 25
43, 46
52, 53
48, 61
46, 40
38, 56
25, 54
42, 44
56, 70
108, 128
182, 233
308, 350
406, 451
500, 534
499, 562
441, 443
356, 357
225, 255
154, 143
106, 70
46, 51
31, 33
34, 32
34, 30
31, 35
35, 36
29, 40
32, 33
19, 23
10, 19
20, 17
25, 39
45, 58
81, 64
154, 149
204, 217
244, 294
309, 359
324, 349
285, 272
224, 247
154, 156
111, 110
70, 84
57, 54
51, 55
75, 70
111, 114
130, 139
177, 216
209, 212
250, 260
204, 226
200, 227
187, 155
143, 137
134, 128
80, 108
90, 89
72, 67
78, 84
56, 74
54, 54
54, 42
36, 34
37, 24
20, 27
18, 12
15, 11
7, 13
10, 9
11, 12
5, 9
8, 4
10, 9
11, 14
17, 14
15, 20
19, 21
26, 32
22, 30
24, 25
27, 30
22, 20
10, 17
15, 11
9, 9
6, 10
19, 10
33, 32
50, 68
76, 101
135, 175
206, 267
333, 349
333, 369
351, 403
353, 383
321, 366
274, 230
178, 171
135, 107
73, 78
51, 38
29, 26
36, 25
44, 40
44, 58
42, 54
59, 60
61, 52
70, 75
57, 49
47, 42
18, 27
21, 16
10, 13
7, 16
8, 9
11, 16
11, 12
6, 12
10, 9
10, 8
12, 13
18, 27
20, 29
38, 47
42, 54
48, 60
57, 69
70, 63
58, 72
45, 58
41, 42
39, 32
29, 30
31, 17
16, 22
22, 18
19, 22
15, 12
12, 23
12, 17
15, 10
17, 17
19, 22
20, 19
18, 18
20, 24
21, 23
14, 19
18, 16
11, 18
9, 9
11, 14
5, 13
12, 17
10, 17
7, 10
15, 14
19, 16
10, 15
15, 14
12, 16
21, 19
25, 25
26, 33
31, 27
35, 39
33, 35
37, 31
39, 21
19, 29
20, 19
19, 15
16, 15
15, 16
15, 14
6, 24
11, 8
18, 14
14, 22
17, 13
13, 13
26, 30
32, 37
44, 41
50, 52
46, 63
37, 51
44, 57
53, 38
35, 38
29, 34
29, 21
30, 25
24, 14
24, 8
20, 17
15, 39
46, 56
64, 85
102, 175
211, 258
400, 490
582, 750
931, 1115
1200, 1434
1550, 1784
1730, 1838
1799, 2008
1735, 1733
1532, 1530
1212, 1234
911, 790
600, 545
369, 358
236, 189
115, 120
75, 42
34, 30
28, 23
26, 26
13, 15
9, 10
17, 16
17, 18
18, 22
14, 29
31, 38
35, 47
66, 70
101, 90
126, 158
156, 181
198, 234
241, 242
249, 289
285, 305
234, 274
218, 210
200, 163
143, 133
108, 80
64, 59
39, 33
33, 19
10, 9
11, 8
6, 13
5, 10
13, 8
11, 13
15, 13
13, 17
11, 18
10, 16
12, 15
17, 14
9, 15
10, 9
10, 12
9, 4
4, 9
5, 13
9, 4
11, 9
4, 8
7, 9
7, 8
6, 8
7, 5
6, 3
9, 2
8, 2
1, 5
8, 9
6, 8
8, 6
7, 8
6, 10
5, 7
6, 6
7, 10
9, 8
5, 12
6, 4
11, 5
10, 14
8, 8
7, 6
5, 11
12, 9
13, 9
4, 4
5, 10
4, 6
2, 9
11, 5
6, 10
7, 15
6, 11
4, 15
11, 13
13, 9
12, 12
13, 15
6, 10
12, 7
12, 12
6, 11
6, 7
7, 8
8, 12
3, 6
8, 4
4, 8
5, 10
7, 4
4, 5
10, 7
7, 5
7, 8
3, 5
8, 3
4, 6
5, 3
3, 6
5, 6
1, 4
9, 2
10, 5
7, 2
6, 5
2, 7
5, 8
3, 2
7, 5
4, 6
4, 7
2, 4
7, 4
3, 7
4, 3
8, 3
8, 5
7, 7
7, 7
8, 7
7, 5
4, 2
4, 6
9, 4
3, 7
4, 5
2, 4
5, 6
5, 7
8, 4
9, 7
2, 8
6, 6
1, 5
9, 7
5, 5
1, 3
5, 9
4, 7
4, 3
6, 3
7, 6
5, 2
4, 5
4, 4
1, 3
4, 4
5, 4
1, 8
4, 6
5, 3
2, 6
2, 1
2, 4
2, 7
3, 4
3, 4
0, 4
5, 3
5, 3
1, 1
4, 4
4, 6
2, 0
3, 3
4, 1
2, 6
5, 6
2, 3
0, 1
2, 1
6, 2
1, 1
1, 5
2, 3
1, 2
1, 2
2, 4
5, 6
4, 7
5, 0
0, 5
5, 4
1, 5
1, 7
2, 3
0, 3
0, 1
0, 2
4, 0
5, 3
3, 0
3, 6
4, 4
4, 3
4, 2
4, 2
2, 2
2, 1
4, 3
5, 5
2, 3
2, 2
0, 3
1, 2
2, 4
1, 5
4, 3
3, 3
2, 5
7, 4
2, 1
3, 3
1, 3
3, 0
1, 5
5, 4
1, 1
5, 2
2, 4
3, 1
4, 1
1, 2
0, 2
5, 3
3, 1
0, 2
2, 0
2, 1
3, 4
0, 1
0, 3
0, 2
2, 3
0, 1
2, 1
1, 4
4, 3
3, 1
1, 2
4, 2
3, 2
4, 3
3, 2
2, 4
3, 1
4, 1
3, 0
3, 2
0, 3
3, 4
6, 4
5, 8
5, 2
3, 3
1, 1
1, 5
0, 1
3, 1
2, 4
4, 0
2, 2
5, 2
3, 0
2, 2
2, 3
3, 1
2, 1
1, 1
2, 2
3, 1
0, 3
0, 1
1, 1
2, 2
3, 1
0, 1
6, 3
2, 4
2, 3
2, 3
3, 1
3, 1
2, 1
1, 0
1, 2
3, 1
0, 0
0, 3
3, 0
2, 0
0, 1
1, 1
4, 1
1, 0
0, 2
3, 1
1, 1
0, 3
2, 1
3, 1
1, 0
1, 1
2, 3
0, 2
0, 1
4, 0
2, 0
1, 0
1, 1
0, 0
0, 1
0, 0
1, 1
1, 0
2, 2
1, 2
0, 1
1, 3
1, 2
0, 1
1, 0
3, 2
0, 0
2, 2
1, 0
2, 0
1, 1
1, 3
0, 1
3, 0
2, 1
1, 2
0, 2
1, 1
2, 3
0, 0
2, 0
0, 2
0, 2
2, 1
1, 2
0, 0
0, 1
0, 2
0, 0
0, 1
1, 1
0, 0
2, 0
0, 0
1, 0
1, 1
0, 1
2, 3
0, 3
2, 2
0, 0
0, 1
1, 1
0, 0
0, 1
1, 1
1, 0
1, 1
2, 3
0, 0
1, 2
0, 1
0, 2
0, 0
0, 0
0, 0
0, 0
2, 1
1, 0
0, 0
2, 0
1, 0
0, 0
1, 0
0, 0
1, 2
0, 1
0, 1
0, 1
0, 0
0, 0
0, 0
0, 2
0, 1
1, 0
1, 1
1, 0
1, 0
0, 0
0, 1
1, 1
0, 0
1, 1
0, 0
0, 0
0, 0
2, 0
0, 1
0, 0
0, 0
0, 1
0, 2
0, 1
0, 0
0, 1
0, 0
0, 0
1, 0
0, 0
2, 1
0, 1
0, 0
1, 1
2, 0
1, 0
0, 0
0, 0
0, 0
0, 0
0, 0
1, 0
1, 2
0, 0
0, 0
0, 0
0, 0
0, 0
0, 0
0, 1
0, 0
0, 0
1, 1
0, 2
0, 0
0, 0
0, 0
0, 0
0, 2
0, 0
0, 0
1, 0
1, 1
0, 0
0, 0
0, 0
0, 0
1, 0
0, 0
2, 0
1, 0
0, 0
0, 1
0, 0
0, 1
0, 1
1, 0
0, 0
1, 0
0, 0
0, 0
0, 2
0, 0
0, 1
1, 0
0, 0
0, 1
0, 0
0, 0
1, 0
1, 0
0, 0
0, 1
0, 2
0, 0
1, 0
0, 0
0, 1
0, 1
0, 0
1, 0
0, 1
0, 0
0, 0
0, 0
0, 0
0, 0
0, 0
1, 1
0, 0
0, 0
0, 1
0, 0
2, 0
1, 0
0, 0
0, 0
0, 0
0, 1
0, 1
0, 0
0, 0
0, 0
0, 1
0, 0
1, 0
0, 0
0, 0
0, 0
1, 0
0, 0
0, 0
0, 0
1, 0
0, 0
0, 0
0, 0
0, 0
0, 1
0, 0
0, 0
0, 0
0, 0
0, 0
0, 0
0, 0
0, 0
0, 0
0, 0
0, 0
1, 0
0, 1
0, 0
0, 1
0, 0
1, 0
0, 0
0, 1
0, 0
0, 0
1, 0
0, 0
0, 1
0, 0
0, 0
0, 0
0, 1
1, 0
0, 0
0, 0
0, 0
1, 0
0, 0
0, 0
0, 0
0, 0
0, 0
0, 1
1, 0
0, 0
0, 2
0, 0
0, 0
0, 0
0, 2
0, 0
0, 1
0, 1
0, 0
0, 0
1, 0
0, 0
0, 0
1, 0
0, 0
0, 0
0, 0
0, 0
0, 0
0, 1
0, 0
0, 0
0, 0
0, 0
0, 0
0, 0
0, 0
0, 0
0, 0
1, 0
0, 0
0, 0
0, 0
0, 0
0, 0
0, 0
0, 0
0, 0
0, 0
0, 0
0, 0
0, 0
0, 0
0, 0
0, 0
0, 0
1, 0
0, 0
1, 0
0, 1
0, 1
0, 0
0, 0
0, 0
0, 0
0, 0
0, 0
0, 0
0, 0
0, 0
0, 0
0, 0
0, 0
0, 0
0, 0
0, 0
0, 0
0, 0
1, 0
1, 0
1, 0
0, 0
0, 0
0, 0
0, 0
0, 0
0, 0
0, 0
0, 0
0, 0
0, 0
0, 0
0, 0
0, 0
0, 0
0, 0
0, 0
0, 0
0, 0
0, 0
0, 0
0, 0
0, 0
0, 0
0, 0
0, 0
0, 0
0, 0
0, 0
0, 0
0, 1
0, 0
0, 0
0, 0
0, 0
0, 0
1, 0
0, 0
0, 0
0, 1
0, 0
0, 0
0, 0
0, 0
0, 0
0, 0
0, 0
0, 0
0, 0
0, 0
0, 0
0, 0
0, 0
0, 0
0, 0
0, 0
0, 0
0, 0
0, 0
0, 0
0, 0
0, 0
0, 0
0, 0
0, 0
0, 0
0, 0
0, 0
0, 0
0, 0
0, 0
0, 0
0, 0
0, 0
0, 0
0, 0
0, 0
0, 0
0, 0
0, 0
0, 0
0, 0
0, 0
0, 0
0, 0
0, 0
0, 0
0, 0
0, 0
0, 0
0, 0
0, 0
0, 0
0, 0
0, 0
0, 0
0, 0
0, 0
0, 0
0, 0
0, 0
0, 0
0, 0
1, 0
0, 0
0, 1
0, 0
0, 0
0, 0
0, 0
0, 0
0, 0
0, 0
0, 0
0, 0
0, 0
0, 0
0, 0
0, 0
0, 0
0, 0
0, 0
0, 0
0, 0
0, 0
0, 0
0, 0
0, 0
0, 0
0, 0
0, 0
0, 0
0, 0
0, 0
0, 0
0, 0
0, 0
0, 0
0, 0
0, 0
0, 0
0, 0
0, 0
0, 0
0, 0
0, 0
0, 0
0, 0
0, 0
0, 0
0, 0
0, 0
0, 0
0, 0
0, 0
0, 0
0, 0
0, 0
0, 0
0, 0
0, 0
0, 0
0, 0
0, 0
0, 0
0, 0
0, 0
0, 0
0, 0
0, 0
0, 0
0, 0
0, 0
0, 0
0, 0
0, 0
0, 0
0, 0
0, 0
0, 0
0, 0
0, 0
0, 0
0, 0
0, 0
0, 0
0, 0
0, 0
0, 0
0, 0
0, 0
0, 0
0, 0
0, 0
0, 0
0, 0
0, 0
0, 0
0, 0
0, 0
0, 0
0, 0
0, 0
0, 0
0, 0
0, 0
0, 0
0, 0
0, 0
0, 0
0, 0
0, 0
0, 0
0, 0
0, 0
0, 0
0, 0
0, 0
0, 0
0, 0
0, 0
0, 0
0, 0
0, 0
0, 0
0, 0
0, 0
0, 0
0, 0
0, 0
0, 0
0, 0
0, 0
0, 0
0, 0
0, 0
0, 0
0, 0
0, 0
0, 0
0, 0
0, 0
0, 0
0, 0
0, 0
0, 0
0, 0
0, 0
0, 0
0, 0
0, 0
0, 0
0, 0
0, 0
0, 0
0, 0
0, 0
0, 0
0, 0
0, 0
0, 0
0, 0
0, 0
0, 0
0, 0
0, 0
0, 0
0, 0
0, 0
0, 0
0, 0
0, 0
0, 0
0, 0
0, 0
0, 0
0, 0
0, 0
0, 0
0, 0
0, 0
0, 0
0, 0
0, 0
0, 0
0, 0
0, 0
0, 0
0, 0
0, 0
0, 0
0, 0
0, 0
0, 0
0, 0
0, 0
0, 0
0, 0
0, 0
0, 0
0, 0
0, 0
0, 0
0, 0
0, 0
0, 0
0, 0
0, 0
0, 0
0, 0
0, 0
0, 0
0, 0
0, 0
0, 0
0, 0
0, 0
0, 0
0, 0
0, 0
0, 0
0, 0
0, 0
0, 0
0, 0
0, 0
0, 0
0, 0
0, 0
0, 0
0, 0
0, 0
0, 0
0, 0
0, 0
0, 0
0, 0
0, 0
0, 0
0, 0
0, 0
0, 0
0, 0
0, 0
0, 0
0, 0
0, 0
0, 0
0, 0
0, 0
0, 0
0, 0
0, 0
0, 0
0, 0
0, 0
0, 0
0, 0
0, 0
0, 0
0, 0
0, 0
0, 0
0, 0
0, 0
0, 0
0, 0
0, 0
0, 0
0, 0
0, 0
0, 0
0, 0
0, 0
0, 0
0, 0
0, 0
0, 0
0, 0
0, 0
0, 0
0, 0
0, 0
0, 0
0, 0
0, 0
0, 0
0, 0
0, 0
0, 0
0, 0
0, 0
0, 0
0, 0
0, 0
0, 0
0, 0
0, 0
0, 0
0, 0
0, 0
0, 0
0, 0
0, 0
0, 0
0, 0
0, 0
0, 0
0, 0
0, 0
0, 0
0, 0
0, 0
0, 0
0, 0
0, 0
0, 0
0, 0
0, 0
0, 0
0, 0
0, 0
0, 0
0, 0
0, 0
0, 0
0, 0
0, 0
0, 0
0, 0
0, 0
0, 0
0, 0
0, 0
0, 0
0, 0
0, 0
0, 0
0, 0
#ENDOFDATA     end of spectrum data