File: host_upload/02-11-2024/rqc/uplink1/ps__0567_0717304816_000rfs_shot_27.msa
#FORMAT      : EMSA/MAS spectral data file
#VERSION     : TC202v2.0 PIXL
#TITLE       : Novarupta (sol567) subset1
#DATE        : 02-11-2024      Date in the format DD-MMM-YYYY, for example 07-JUL-2010
#TIME        :             The time of day at which the spectrum was recorded, in 24-hour format
#OWNER       : PIXL Flight Model       (PIXL will use this to indicate which instrument took the data.)
#NPOINTS     : 4096     Number of data points in the spectrum (This can be zero for configuration only files)
#NCOLUMNS    : 2     Number of data columns in the spectrum (This can be zero for configuration only files)
#XUNITS      : eV
#YUNITS      : COUNTS
#DATATYPE    : YY
#XPERCHAN    : 7.862, 7.881   eV per channel (separate by commas if more than one detector)
#OFFSET      : 18.5, -22.4         eV of first channel  (separate by commas if more than one detector
#SIGNALTYPE  : XRF
#YP_TEMP     : -4.211
#LIVETIME    : 8.83118, 8.81731   seconds (separate by commas if more than one detector)
#REALTIME    : 10, 10.0   seconds (separate by commas if more than one detector)
#SPECTRUM    : start of spectrum data
0, 0
0, 0
0, 0
0, 0
0, 0
0, 0
0, 0
0, 0
0, 0
0, 0
0, 0
0, 0
0, 0
0, 0
0, 0
0, 0
0, 0
0, 0
0, 0
0, 0
0, 0
0, 0
0, 0
0, 0
0, 0
0, 0
0, 0
0, 0
0, 0
0, 1
0, 0
0, 0
0, 1
0, 1
1, 1
1, 1
3, 3
5, 1
3, 3
1, 1
0, 4
2, 3
3, 2
3, 2
2, 5
3, 3
4, 6
4, 4
9, 4
3, 4
9, 3
7, 7
15, 8
21, 19
18, 12
15, 18
9, 14
18, 11
10, 13
18, 16
11, 24
28, 32
33, 45
50, 52
50, 51
45, 48
53, 55
37, 47
45, 54
68, 77
143, 142
203, 252
344, 358
447, 443
465, 543
469, 501
407, 449
320, 331
207, 214
147, 140
78, 71
50, 48
41, 27
34, 24
29, 25
22, 35
34, 28
29, 27
29, 26
21, 22
30, 16
28, 31
30, 21
68, 60
89, 115
141, 173
224, 262
286, 298
297, 331
301, 289
252, 272
204, 189
170, 146
96, 114
73, 65
60, 71
63, 51
83, 83
116, 117
140, 150
161, 190
193, 224
230, 229
211, 223
169, 178
139, 157
119, 133
97, 92
76, 97
77, 91
74, 84
79, 83
50, 68
53, 53
36, 47
28, 34
21, 25
20, 22
17, 24
16, 8
12, 11
9, 8
5, 8
6, 8
7, 7
13, 9
12, 13
15, 19
22, 23
21, 22
20, 33
27, 20
26, 29
19, 16
19, 21
13, 23
10, 8
7, 12
8, 18
23, 28
44, 47
68, 72
133, 135
196, 206
271, 297
327, 372
352, 384
380, 438
379, 370
271, 299
196, 208
150, 148
102, 85
48, 61
37, 39
27, 23
31, 37
43, 46
43, 48
63, 71
55, 60
58, 57
52, 57
45, 57
28, 31
20, 21
21, 21
10, 16
12, 12
5, 4
8, 10
6, 10
9, 10
12, 11
10, 22
23, 17
22, 18
28, 31
32, 50
54, 55
57, 64
60, 74
57, 71
59, 64
51, 50
45, 40
32, 42
16, 27
20, 18
18, 24
13, 11
17, 12
12, 9
14, 11
21, 18
16, 12
20, 23
17, 19
15, 22
16, 21
12, 21
16, 13
13, 18
19, 13
14, 14
9, 11
15, 13
14, 11
12, 15
11, 10
9, 13
9, 15
14, 18
12, 21
16, 13
16, 25
26, 22
20, 34
31, 22
33, 35
30, 28
26, 31
25, 31
12, 15
17, 30
20, 23
13, 8
14, 16
13, 5
14, 9
9, 12
14, 9
16, 8
12, 12
16, 27
28, 31
34, 34
31, 37
35, 42
38, 48
52, 45
51, 47
36, 30
44, 36
31, 39
18, 34
17, 27
14, 28
12, 20
20, 28
25, 25
49, 48
72, 83
118, 161
198, 274
387, 473
594, 702
882, 1002
1124, 1317
1387, 1633
1600, 1836
1627, 1810
1606, 1607
1452, 1391
1178, 1198
859, 852
602, 566
418, 353
242, 216
137, 118
76, 52
62, 47
34, 29
21, 21
19, 22
19, 15
19, 24
12, 14
29, 21
30, 28
29, 37
38, 47
57, 68
90, 104
121, 135
145, 184
226, 256
222, 253
227, 285
271, 287
235, 248
199, 202
181, 169
129, 121
98, 93
72, 54
38, 40
21, 17
18, 23
12, 12
7, 8
10, 8
10, 9
11, 9
15, 13
6, 7
10, 10
10, 12
13, 14
10, 9
8, 11
10, 8
8, 6
3, 7
5, 9
4, 9
2, 6
7, 5
6, 6
4, 8
3, 4
6, 6
7, 8
3, 3
5, 9
4, 6
5, 7
7, 3
3, 10
2, 4
8, 6
9, 5
12, 7
9, 8
6, 5
8, 9
7, 9
11, 11
6, 7
5, 7
12, 9
6, 10
5, 8
7, 7
8, 9
7, 7
5, 5
5, 6
6, 8
4, 8
4, 8
13, 10
18, 13
12, 15
6, 12
11, 14
9, 13
17, 8
9, 5
8, 7
6, 6
7, 5
9, 10
10, 0
9, 8
8, 8
6, 7
5, 8
7, 6
3, 3
5, 6
5, 5
2, 8
5, 2
4, 10
3, 2
5, 6
4, 2
6, 6
4, 8
4, 3
8, 4
7, 2
3, 10
4, 5
6, 6
4, 4
6, 3
3, 7
4, 8
5, 3
5, 4
5, 3
1, 4
6, 6
3, 9
3, 2
7, 4
3, 5
2, 2
3, 4
1, 5
2, 6
5, 1
4, 6
7, 4
3, 2
7, 4
2, 11
4, 3
3, 4
3, 4
4, 6
8, 5
2, 1
5, 7
4, 6
4, 5
4, 5
6, 2
7, 5
2, 2
3, 6
1, 4
3, 3
2, 3
1, 4
3, 5
7, 6
4, 4
6, 6
7, 6
3, 7
6, 4
4, 4
5, 2
9, 2
5, 4
2, 4
5, 2
2, 1
1, 5
3, 4
3, 1
3, 3
5, 3
1, 3
1, 4
0, 6
6, 6
3, 5
3, 2
2, 1
4, 2
5, 3
2, 5
4, 2
4, 4
3, 2
1, 4
2, 5
2, 6
5, 3
4, 3
1, 2
2, 0
0, 2
4, 3
5, 1
2, 1
4, 7
1, 4
2, 2
5, 2
0, 2
2, 2
3, 2
2, 3
0, 2
2, 3
2, 0
3, 6
3, 5
2, 4
6, 1
2, 5
2, 3
4, 3
1, 1
2, 3
4, 2
3, 2
2, 2
5, 2
5, 2
3, 1
2, 3
2, 4
0, 1
3, 2
0, 5
1, 2
0, 2
1, 2
2, 0
5, 3
3, 1
2, 2
1, 3
2, 3
2, 1
5, 1
4, 1
0, 3
0, 2
3, 1
3, 3
2, 2
2, 3
1, 0
1, 0
5, 3
3, 3
3, 3
3, 3
2, 3
1, 2
1, 3
5, 2
1, 4
2, 4
1, 5
4, 3
2, 2
0, 4
1, 5
2, 1
1, 0
1, 1
0, 1
2, 1
2, 1
3, 1
1, 1
1, 1
1, 2
1, 1
0, 0
1, 1
1, 3
3, 2
2, 2
2, 2
1, 3
3, 1
1, 1
0, 3
1, 2
1, 3
0, 2
1, 0
3, 5
2, 1
1, 1
2, 4
1, 0
1, 0
0, 1
3, 0
1, 0
0, 1
1, 1
1, 1
0, 1
2, 2
2, 1
0, 0
0, 0
2, 2
0, 1
0, 0
0, 3
1, 1
0, 1
0, 0
1, 0
1, 0
0, 1
1, 0
0, 1
0, 1
0, 1
0, 0
1, 0
0, 0
3, 0
1, 2
0, 1
1, 2
1, 0
2, 1
1, 1
2, 0
0, 1
0, 1
1, 1
1, 0
1, 1
2, 1
0, 1
1, 0
2, 0
0, 0
1, 2
0, 1
2, 2
2, 1
0, 4
0, 1
0, 0
1, 1
0, 2
0, 1
2, 2
1, 0
1, 0
3, 1
1, 2
1, 2
0, 0
1, 0
0, 0
1, 0
0, 1
2, 2
2, 3
1, 2
0, 0
2, 1
2, 0
0, 0
0, 0
0, 1
2, 0
0, 1
1, 1
1, 2
0, 2
1, 0
0, 1
1, 0
1, 1
1, 0
0, 0
0, 0
0, 1
1, 0
1, 1
1, 0
0, 0
1, 2
3, 0
1, 0
0, 1
1, 0
0, 0
2, 0
0, 0
2, 0
1, 0
0, 0
0, 0
0, 0
0, 0
1, 0
2, 1
0, 1
0, 0
0, 2
0, 0
0, 0
0, 1
0, 0
0, 0
0, 0
0, 0
1, 0
0, 1
0, 1
0, 0
1, 0
0, 0
0, 2
0, 0
0, 0
0, 0
0, 0
0, 0
0, 0
0, 0
0, 0
0, 1
0, 0
0, 0
0, 0
0, 1
0, 0
2, 2
0, 0
0, 0
1, 0
0, 1
0, 0
0, 1
0, 0
0, 0
0, 0
0, 0
0, 0
0, 0
0, 0
0, 1
0, 0
0, 0
0, 0
1, 1
0, 1
2, 1
0, 1
0, 2
0, 0
0, 0
0, 0
0, 0
0, 2
0, 0
0, 1
1, 0
0, 0
2, 0
1, 0
1, 0
1, 0
0, 0
0, 0
0, 1
1, 0
0, 0
0, 0
0, 0
0, 0
0, 0
0, 1
1, 0
0, 0
0, 0
0, 0
0, 0
1, 0
0, 1
0, 0
0, 0
1, 0
0, 0
0, 0
1, 0
1, 1
0, 0
0, 0
0, 0
0, 0
0, 0
0, 1
0, 1
0, 0
0, 0
1, 1
1, 0
1, 0
0, 0
0, 1
0, 1
0, 1
0, 0
0, 0
0, 0
0, 0
0, 1
0, 0
1, 1
0, 1
0, 0
0, 1
0, 0
0, 0
0, 0
0, 0
0, 0
0, 0
0, 0
1, 0
0, 0
0, 0
0, 0
0, 1
0, 0
0, 0
1, 0
0, 0
0, 0
0, 1
0, 0
0, 0
0, 0
0, 0
0, 3
1, 0
0, 0
0, 0
0, 0
0, 0
0, 0
0, 0
0, 0
1, 0
0, 0
0, 0
0, 0
0, 0
0, 0
0, 0
0, 0
0, 0
0, 1
0, 0
0, 0
0, 0
0, 0
0, 0
0, 0
0, 0
0, 0
1, 0
0, 0
0, 2
0, 0
1, 0
0, 0
0, 0
0, 0
0, 0
1, 0
0, 0
0, 0
0, 0
0, 0
0, 0
0, 0
0, 0
0, 1
0, 0
0, 0
0, 0
0, 0
0, 0
0, 0
0, 0
0, 0
0, 0
0, 0
0, 0
0, 0
0, 0
0, 0
0, 0
0, 0
0, 1
0, 0
1, 0
0, 0
0, 0
0, 1
0, 0
0, 0
0, 0
0, 0
0, 0
1, 0
0, 0
1, 0
0, 0
0, 0
0, 0
0, 0
0, 0
0, 0
0, 0
0, 0
0, 0
0, 0
0, 0
0, 0
0, 0
0, 0
0, 0
0, 0
0, 0
0, 0
0, 0
0, 0
0, 0
0, 0
0, 0
0, 0
0, 0
0, 0
0, 0
0, 0
0, 0
1, 0
0, 0
0, 0
0, 0
0, 0
0, 0
0, 0
0, 0
0, 0
0, 0
0, 0
0, 0
0, 0
0, 0
0, 0
0, 0
0, 1
0, 0
0, 0
0, 0
0, 0
0, 0
0, 0
0, 0
0, 0
0, 0
0, 0
0, 0
0, 0
0, 0
0, 0
0, 0
0, 0
0, 0
0, 0
0, 0
0, 0
0, 0
0, 0
1, 0
0, 0
0, 0
0, 0
0, 0
0, 0
0, 0
0, 0
0, 0
0, 1
0, 0
0, 0
0, 0
0, 0
0, 0
0, 0
0, 0
0, 0
0, 0
0, 0
0, 0
0, 0
0, 1
0, 0
0, 0
0, 0
0, 0
0, 0
0, 0
0, 0
0, 0
0, 0
0, 0
0, 0
0, 0
0, 0
0, 0
0, 0
0, 0
0, 0
0, 0
0, 0
0, 0
0, 0
0, 0
1, 0
0, 0
0, 0
0, 0
0, 0
0, 0
0, 0
0, 0
0, 0
0, 0
0, 0
0, 0
0, 0
0, 0
0, 0
0, 0
0, 0
0, 0
0, 0
0, 0
0, 0
0, 0
0, 0
0, 0
0, 0
0, 0
0, 0
0, 0
0, 0
0, 0
0, 0
0, 0
0, 0
0, 0
0, 0
0, 0
0, 0
0, 0
0, 0
0, 0
0, 0
0, 0
0, 0
0, 0
0, 0
0, 0
0, 0
0, 0
0, 0
0, 0
0, 0
0, 0
0, 0
0, 0
0, 0
0, 0
0, 0
0, 0
0, 0
0, 0
0, 0
0, 0
0, 0
0, 0
0, 0
0, 0
0, 0
0, 0
0, 0
0, 0
0, 0
0, 0
0, 0
0, 0
0, 0
0, 0
0, 0
0, 0
0, 0
0, 0
0, 0
0, 0
0, 0
0, 0
0, 0
0, 0
0, 0
0, 0
0, 0
0, 0
0, 0
0, 0
0, 0
0, 0
0, 0
0, 0
0, 0
0, 0
0, 0
0, 0
0, 0
0, 0
0, 0
0, 0
0, 0
0, 0
0, 0
0, 0
0, 0
0, 0
0, 0
0, 0
0, 0
0, 0
0, 0
0, 0
0, 0
0, 0
0, 0
0, 0
0, 0
0, 0
0, 0
0, 0
0, 0
0, 0
0, 0
0, 0
0, 0
0, 0
0, 0
0, 0
0, 0
0, 0
0, 0
0, 0
0, 0
0, 0
0, 0
0, 0
0, 0
0, 0
0, 0
0, 0
0, 0
0, 0
0, 0
0, 0
0, 0
0, 0
0, 0
0, 0
0, 0
0, 0
0, 0
0, 0
0, 0
0, 0
0, 0
0, 0
0, 0
0, 0
0, 0
0, 0
0, 0
0, 0
0, 0
0, 0
0, 0
0, 0
0, 0
0, 0
0, 0
0, 0
0, 0
0, 0
0, 0
0, 0
0, 0
0, 0
0, 0
0, 0
0, 0
0, 0
0, 0
0, 0
0, 0
0, 0
0, 0
0, 0
0, 0
0, 0
0, 0
0, 0
0, 0
0, 0
0, 0
0, 0
0, 0
0, 0
0, 0
0, 0
0, 0
0, 0
0, 0
0, 0
0, 0
0, 0
0, 0
0, 0
0, 0
0, 0
0, 0
0, 0
0, 0
0, 0
0, 0
0, 0
0, 0
0, 0
0, 0
0, 0
0, 0
0, 0
0, 0
0, 0
0, 0
0, 0
0, 0
0, 0
0, 0
0, 0
0, 0
0, 0
0, 0
0, 0
0, 0
0, 0
0, 0
0, 0
0, 0
0, 0
0, 0
0, 0
0, 0
0, 0
0, 0
0, 0
0, 0
0, 0
0, 0
0, 0
0, 0
0, 0
0, 0
0, 0
0, 0
0, 0
0, 0
0, 0
0, 0
0, 0
0, 0
0, 0
0, 0
0, 0
0, 0
0, 0
0, 0
0, 0
0, 0
0, 0
0, 0
0, 0
0, 0
0, 0
0, 0
0, 0
0, 0
0, 0
0, 0
0, 0
0, 0
0, 0
0, 0
0, 0
0, 0
0, 0
0, 0
0, 0
0, 0
0, 0
0, 0
0, 0
0, 0
0, 0
0, 0
0, 0
0, 0
0, 0
0, 0
0, 0
0, 0
0, 0
0, 0
0, 0
0, 0
0, 0
0, 0
0, 0
0, 0
0, 0
0, 0
0, 0
0, 0
0, 0
0, 0
0, 0
0, 0
0, 0
0, 0
0, 0
0, 0
0, 0
0, 0
0, 0
0, 0
0, 0
0, 0
0, 0
0, 0
0, 0
0, 0
0, 0
0, 0
0, 0
0, 0
0, 0
0, 0
0, 0
0, 0
0, 0
0, 0
0, 0
0, 0
0, 0
0, 0
0, 0
0, 0
0, 0
0, 0
0, 0
0, 0
#ENDOFDATA     end of spectrum data