File: host_upload/02-11-2024/rqc/uplink1/ps__0567_0717304816_000rfs_shot_194.msa
#FORMAT      : EMSA/MAS spectral data file
#VERSION     : TC202v2.0 PIXL
#TITLE       : Novarupta (sol567) subset1
#DATE        : 02-11-2024      Date in the format DD-MMM-YYYY, for example 07-JUL-2010
#TIME        :             The time of day at which the spectrum was recorded, in 24-hour format
#OWNER       : PIXL Flight Model       (PIXL will use this to indicate which instrument took the data.)
#NPOINTS     : 4096     Number of data points in the spectrum (This can be zero for configuration only files)
#NCOLUMNS    : 2     Number of data columns in the spectrum (This can be zero for configuration only files)
#XUNITS      : eV
#YUNITS      : COUNTS
#DATATYPE    : YY
#XPERCHAN    : 7.862, 7.881   eV per channel (separate by commas if more than one detector)
#OFFSET      : 18.5, -22.4         eV of first channel  (separate by commas if more than one detector
#SIGNALTYPE  : XRF
#YP_TEMP     : 0.343
#LIVETIME    : 8.84702, 8.82346   seconds (separate by commas if more than one detector)
#REALTIME    : 10, 10.0   seconds (separate by commas if more than one detector)
#SPECTRUM    : start of spectrum data
0, 0
0, 0
0, 0
0, 0
0, 0
0, 0
0, 0
0, 0
0, 0
0, 0
0, 0
0, 0
0, 0
0, 0
0, 0
0, 0
0, 0
0, 0
0, 0
0, 0
0, 0
0, 0
0, 0
0, 0
0, 0
0, 0
0, 0
0, 0
0, 0
0, 0
0, 0
0, 0
0, 0
1, 2
1, 0
1, 0
0, 2
1, 7
2, 2
3, 6
0, 1
1, 2
1, 3
3, 2
5, 2
3, 3
3, 4
3, 3
5, 9
3, 4
9, 7
5, 12
11, 8
8, 16
18, 18
13, 16
15, 7
11, 10
10, 7
8, 12
10, 13
20, 21
38, 25
24, 39
35, 60
45, 50
46, 35
42, 32
38, 43
63, 65
108, 120
188, 230
297, 340
368, 442
413, 526
463, 509
414, 448
325, 300
236, 200
133, 137
86, 72
51, 50
25, 40
32, 35
31, 33
30, 35
31, 48
23, 30
25, 29
27, 12
10, 12
19, 13
22, 19
29, 44
70, 92
131, 132
170, 246
227, 311
263, 342
251, 334
255, 305
220, 230
138, 185
118, 108
69, 65
68, 53
57, 56
55, 70
72, 100
113, 137
174, 172
199, 214
231, 225
221, 227
195, 208
141, 180
132, 125
96, 112
75, 100
88, 90
80, 82
51, 83
61, 69
54, 44
41, 47
33, 43
26, 28
27, 24
11, 25
19, 15
7, 11
9, 12
11, 7
3, 7
5, 9
6, 11
5, 7
10, 21
9, 24
23, 20
17, 25
25, 31
24, 35
24, 19
23, 22
16, 9
8, 10
5, 6
10, 16
16, 15
18, 36
56, 61
67, 121
131, 157
173, 250
237, 333
299, 389
312, 350
345, 361
328, 299
233, 246
146, 146
103, 99
61, 43
33, 32
30, 29
32, 32
32, 30
24, 34
42, 56
60, 72
52, 75
51, 50
37, 50
28, 38
19, 27
14, 11
8, 11
7, 18
8, 14
7, 14
8, 8
12, 5
14, 15
8, 5
10, 17
17, 19
17, 36
25, 50
40, 60
40, 57
38, 58
45, 62
51, 69
50, 56
52, 60
44, 44
36, 27
35, 17
15, 15
14, 18
11, 11
15, 14
16, 12
12, 18
13, 11
21, 15
11, 18
23, 13
17, 17
15, 26
17, 14
16, 16
15, 13
13, 15
9, 11
17, 10
8, 5
5, 8
13, 15
16, 17
14, 11
18, 7
23, 13
12, 16
18, 18
23, 18
20, 28
24, 35
25, 33
23, 38
22, 28
23, 37
31, 14
20, 17
14, 20
11, 9
21, 13
10, 12
8, 11
13, 10
7, 13
8, 11
16, 18
11, 14
19, 24
24, 41
33, 36
37, 50
45, 50
45, 55
35, 57
36, 49
36, 54
39, 40
30, 38
25, 33
26, 20
16, 22
22, 13
17, 14
20, 32
36, 63
64, 84
138, 175
218, 297
364, 469
613, 725
861, 1100
1065, 1421
1403, 1647
1562, 1904
1635, 1866
1550, 1666
1296, 1477
1109, 1078
803, 749
558, 513
342, 282
191, 177
112, 92
53, 44
36, 39
26, 22
15, 23
14, 21
15, 25
17, 25
12, 22
14, 26
17, 35
21, 41
35, 47
69, 59
85, 101
119, 150
127, 203
167, 235
203, 259
227, 296
257, 301
230, 254
182, 205
149, 177
111, 111
87, 73
61, 56
31, 40
21, 20
12, 13
12, 4
5, 6
6, 6
7, 12
14, 10
5, 14
20, 18
15, 16
15, 12
7, 18
12, 7
8, 10
10, 13
6, 4
6, 8
8, 10
6, 7
7, 7
7, 6
8, 6
8, 5
4, 7
3, 4
6, 2
5, 6
7, 9
6, 4
12, 11
8, 11
2, 4
5, 3
5, 7
11, 10
7, 7
6, 11
5, 10
7, 10
8, 8
7, 9
9, 6
5, 7
3, 5
3, 7
5, 5
5, 5
8, 11
6, 7
5, 8
8, 8
9, 10
11, 3
5, 12
4, 8
7, 9
14, 6
8, 7
14, 15
12, 10
10, 5
11, 12
3, 11
13, 8
3, 7
11, 6
3, 6
7, 6
9, 0
3, 7
6, 4
7, 8
2, 7
5, 5
6, 10
9, 5
1, 5
2, 4
7, 5
6, 5
2, 2
5, 5
2, 3
3, 7
6, 5
2, 5
3, 3
10, 5
6, 8
6, 3
5, 9
4, 4
6, 7
3, 5
5, 6
2, 8
8, 2
3, 4
7, 4
8, 6
5, 5
4, 6
4, 1
3, 4
6, 5
4, 8
6, 5
5, 4
3, 7
4, 4
4, 4
4, 7
2, 6
6, 4
5, 8
5, 6
3, 6
2, 7
2, 0
7, 3
7, 4
3, 7
4, 3
6, 6
2, 2
3, 3
7, 5
5, 1
3, 2
1, 5
5, 4
3, 3
3, 3
4, 2
1, 3
1, 5
2, 3
4, 5
1, 3
3, 5
0, 3
4, 3
4, 5
2, 3
5, 4
1, 8
3, 7
6, 7
4, 2
6, 4
3, 2
2, 1
3, 2
0, 2
8, 3
6, 3
0, 3
4, 2
4, 4
3, 1
1, 2
3, 3
2, 2
1, 2
5, 1
1, 2
1, 3
0, 2
0, 7
0, 2
0, 3
5, 4
4, 1
2, 5
6, 2
2, 2
2, 1
2, 3
1, 4
4, 2
2, 4
6, 5
1, 6
3, 3
1, 1
3, 1
1, 4
5, 3
1, 2
2, 2
3, 3
2, 5
4, 1
1, 1
1, 0
2, 3
0, 3
6, 1
1, 2
3, 2
0, 2
2, 2
0, 1
2, 1
3, 1
2, 3
4, 3
1, 0
0, 1
0, 2
0, 3
2, 2
5, 2
0, 1
1, 1
1, 2
2, 4
1, 2
1, 4
4, 3
1, 1
3, 1
2, 1
4, 4
1, 1
3, 0
2, 1
1, 2
3, 1
1, 3
3, 3
2, 4
3, 1
5, 5
2, 1
3, 2
2, 2
4, 7
2, 4
4, 1
3, 2
0, 1
1, 4
0, 1
1, 1
1, 0
0, 2
2, 1
4, 1
1, 1
1, 4
1, 1
2, 2
1, 3
0, 2
0, 3
1, 1
2, 1
1, 2
1, 0
2, 1
0, 2
2, 1
3, 2
2, 3
1, 0
3, 4
1, 1
1, 1
0, 1
1, 1
1, 0
0, 2
1, 0
1, 1
1, 2
0, 0
1, 1
1, 0
0, 1
2, 1
1, 1
1, 0
1, 0
1, 2
0, 1
3, 0
1, 1
5, 1
3, 0
0, 0
0, 5
0, 0
0, 1
0, 1
0, 0
0, 2
1, 1
0, 1
0, 1
1, 3
2, 0
0, 1
0, 0
1, 0
2, 1
1, 0
1, 0
1, 1
0, 2
2, 0
0, 1
0, 2
1, 1
0, 0
1, 0
1, 0
2, 0
1, 1
1, 1
0, 0
1, 0
2, 0
1, 0
0, 1
0, 1
1, 1
1, 1
0, 1
2, 2
1, 0
0, 1
1, 1
1, 0
1, 1
1, 2
0, 0
0, 0
1, 0
0, 0
0, 1
0, 1
1, 1
1, 2
2, 2
0, 0
1, 0
1, 0
1, 1
1, 0
1, 0
2, 0
0, 0
0, 1
0, 2
2, 0
1, 1
0, 0
0, 0
1, 1
0, 1
2, 0
0, 0
1, 0
0, 0
0, 0
0, 3
0, 1
1, 0
0, 1
0, 1
0, 0
0, 1
1, 0
1, 1
1, 0
0, 0
0, 0
1, 1
0, 0
0, 0
0, 0
1, 0
0, 0
1, 0
0, 0
1, 1
0, 0
0, 0
1, 0
0, 0
0, 0
0, 1
0, 0
0, 0
0, 0
0, 0
0, 0
0, 1
0, 0
0, 0
0, 0
0, 0
0, 0
2, 0
0, 0
0, 0
1, 0
0, 1
0, 1
0, 0
0, 0
0, 0
0, 1
0, 1
1, 0
1, 0
0, 0
0, 0
0, 0
0, 0
0, 0
2, 0
0, 0
0, 0
0, 0
0, 0
0, 1
0, 1
0, 0
0, 0
0, 0
0, 0
0, 0
0, 0
0, 0
0, 1
0, 1
0, 0
0, 1
0, 0
0, 0
0, 0
1, 0
0, 0
1, 0
1, 0
0, 0
1, 1
0, 0
0, 1
0, 0
0, 0
0, 0
0, 1
0, 0
0, 0
1, 0
0, 0
1, 0
0, 0
0, 0
0, 0
0, 0
0, 0
0, 0
0, 0
0, 0
0, 0
0, 0
0, 0
1, 0
0, 0
0, 1
1, 0
1, 0
1, 0
0, 0
1, 0
0, 1
0, 1
1, 0
0, 0
0, 0
1, 1
0, 0
0, 0
0, 0
0, 0
0, 0
0, 0
0, 0
0, 0
0, 1
0, 0
1, 0
1, 0
1, 1
0, 0
0, 0
1, 0
0, 0
0, 1
0, 0
0, 0
0, 0
1, 0
0, 0
0, 0
0, 0
0, 0
1, 1
0, 1
0, 0
1, 1
1, 0
0, 0
0, 0
0, 0
0, 0
0, 0
0, 0
0, 0
0, 0
0, 0
0, 1
0, 0
0, 0
0, 0
0, 0
0, 0
0, 0
0, 0
0, 0
0, 0
0, 0
0, 0
0, 0
0, 1
0, 0
0, 0
0, 1
1, 0
1, 0
0, 0
0, 0
0, 0
0, 0
1, 0
0, 0
1, 0
0, 0
0, 1
0, 0
1, 0
0, 1
0, 0
0, 0
1, 0
0, 0
0, 0
0, 0
0, 0
0, 0
0, 0
0, 0
0, 1
0, 0
0, 0
0, 0
0, 0
0, 0
0, 0
0, 0
0, 0
0, 0
0, 0
0, 0
0, 0
0, 0
0, 0
0, 0
0, 0
1, 0
0, 0
0, 0
0, 0
0, 0
0, 0
0, 0
0, 0
0, 0
0, 0
0, 0
0, 0
0, 0
0, 0
0, 0
0, 0
0, 0
1, 0
0, 0
0, 0
0, 0
0, 0
0, 0
0, 0
0, 0
0, 0
0, 0
0, 1
0, 0
0, 0
0, 1
0, 0
0, 0
0, 0
0, 0
0, 0
0, 0
0, 0
0, 0
0, 0
0, 0
0, 0
0, 0
1, 0
0, 0
0, 0
0, 0
0, 0
0, 0
0, 0
0, 0
0, 0
0, 0
0, 0
0, 0
0, 0
0, 0
0, 0
0, 0
0, 0
0, 0
0, 0
0, 0
0, 0
0, 0
0, 0
0, 0
0, 0
0, 0
0, 0
0, 0
0, 1
0, 0
0, 0
0, 0
0, 0
0, 0
0, 0
0, 0
0, 0
0, 0
0, 0
0, 0
0, 0
0, 0
0, 0
0, 0
0, 0
0, 0
0, 0
0, 0
0, 0
0, 0
0, 0
0, 0
0, 0
0, 0
0, 0
0, 0
0, 0
0, 0
0, 0
0, 0
0, 0
0, 0
0, 0
0, 0
0, 0
0, 0
0, 0
0, 0
0, 0
0, 0
0, 0
0, 0
0, 0
0, 0
0, 0
0, 0
0, 0
0, 0
0, 0
0, 0
0, 0
0, 0
0, 0
0, 0
0, 0
0, 0
0, 0
0, 0
0, 0
0, 0
0, 0
0, 0
0, 0
0, 0
0, 0
0, 0
0, 0
0, 0
0, 0
0, 0
0, 0
0, 0
0, 0
0, 0
0, 0
0, 0
0, 0
0, 0
0, 0
0, 0
0, 0
0, 0
1, 0
0, 0
0, 0
0, 0
0, 0
0, 0
0, 0
0, 0
0, 0
0, 0
0, 0
0, 0
0, 0
0, 0
0, 0
0, 0
0, 0
0, 0
0, 0
0, 0
0, 0
0, 0
0, 0
0, 0
0, 0
0, 0
0, 0
0, 0
0, 0
0, 0
0, 0
0, 0
0, 0
0, 0
0, 0
0, 0
0, 0
0, 0
0, 0
0, 0
0, 0
0, 0
0, 0
0, 0
0, 0
0, 0
0, 0
0, 0
0, 0
0, 0
0, 0
0, 0
0, 0
0, 0
0, 0
0, 0
0, 0
0, 0
0, 0
0, 0
0, 0
0, 0
0, 0
0, 0
0, 0
0, 0
0, 0
0, 0
0, 0
0, 0
0, 0
0, 0
0, 0
0, 0
0, 0
0, 0
0, 0
0, 0
0, 0
0, 0
0, 0
0, 0
0, 0
0, 0
0, 0
0, 0
0, 0
0, 0
0, 0
0, 0
0, 0
0, 0
0, 0
0, 0
0, 0
0, 0
0, 0
0, 0
0, 0
0, 0
0, 0
0, 0
0, 0
0, 0
0, 0
0, 0
0, 0
0, 0
0, 0
0, 0
0, 0
0, 0
0, 0
0, 0
0, 0
0, 0
0, 0
0, 0
0, 0
0, 0
0, 0
0, 0
0, 0
0, 0
0, 0
0, 0
0, 0
0, 0
0, 0
0, 0
0, 0
0, 0
0, 0
0, 0
0, 0
0, 0
0, 0
0, 0
0, 0
0, 0
0, 0
0, 0
0, 0
0, 0
0, 0
0, 0
0, 0
0, 0
0, 0
0, 0
0, 0
0, 0
0, 0
0, 0
0, 0
0, 0
0, 0
0, 0
0, 0
0, 0
0, 0
0, 0
0, 0
0, 0
0, 0
0, 0
0, 0
0, 0
0, 0
0, 0
0, 0
0, 0
0, 0
0, 0
0, 0
0, 0
0, 0
0, 0
0, 0
0, 0
0, 0
0, 0
0, 0
0, 0
0, 0
0, 0
0, 0
0, 0
0, 0
0, 0
0, 0
0, 0
0, 0
0, 0
0, 0
0, 0
0, 0
0, 0
0, 0
0, 0
0, 0
0, 0
0, 0
0, 0
0, 0
0, 0
0, 0
0, 0
0, 0
0, 0
0, 0
0, 0
0, 0
0, 0
0, 0
0, 0
0, 0
0, 0
0, 0
0, 0
0, 0
0, 0
0, 0
0, 0
0, 0
0, 0
0, 0
0, 0
0, 0
0, 0
0, 0
0, 0
0, 0
0, 0
0, 0
0, 0
0, 0
0, 0
0, 0
0, 0
0, 0
0, 0
0, 0
0, 0
0, 0
0, 0
0, 0
0, 0
0, 0
0, 0
0, 0
0, 0
0, 0
0, 0
0, 0
0, 0
0, 0
0, 0
0, 0
0, 0
0, 0
0, 0
0, 0
0, 0
0, 0
0, 0
0, 0
0, 0
0, 0
0, 0
0, 0
0, 0
0, 0
0, 0
0, 0
0, 0
0, 0
0, 0
0, 0
0, 0
0, 0
0, 0
0, 0
0, 0
0, 0
0, 0
0, 0
0, 0
0, 0
0, 0
0, 0
0, 0
0, 0
0, 0
0, 0
0, 0
0, 0
0, 0
0, 0
0, 0
0, 0
0, 0
0, 0
0, 0
0, 0
0, 0
0, 0
0, 0
0, 0
0, 0
0, 0
0, 0
0, 0
0, 0
0, 0
0, 0
0, 0
0, 0
0, 0
0, 0
#ENDOFDATA     end of spectrum data