File: host_upload/02-11-2024/rqc/uplink1/ps__0567_0717304816_000rfs_shot_245.msa
#FORMAT      : EMSA/MAS spectral data file
#VERSION     : TC202v2.0 PIXL
#TITLE       : Novarupta (sol567) subset1
#DATE        : 02-11-2024      Date in the format DD-MMM-YYYY, for example 07-JUL-2010
#TIME        :             The time of day at which the spectrum was recorded, in 24-hour format
#OWNER       : PIXL Flight Model       (PIXL will use this to indicate which instrument took the data.)
#NPOINTS     : 4096     Number of data points in the spectrum (This can be zero for configuration only files)
#NCOLUMNS    : 2     Number of data columns in the spectrum (This can be zero for configuration only files)
#XUNITS      : eV
#YUNITS      : COUNTS
#DATATYPE    : YY
#XPERCHAN    : 7.862, 7.881   eV per channel (separate by commas if more than one detector)
#OFFSET      : 18.5, -22.4         eV of first channel  (separate by commas if more than one detector
#SIGNALTYPE  : XRF
#YP_TEMP     : 0.92
#LIVETIME    : 8.81698, 8.81465   seconds (separate by commas if more than one detector)
#REALTIME    : 10, 10.0   seconds (separate by commas if more than one detector)
#SPECTRUM    : start of spectrum data
0, 0
0, 0
0, 0
0, 0
0, 0
0, 0
0, 0
0, 0
0, 0
0, 0
0, 0
0, 0
0, 0
0, 0
0, 0
0, 0
0, 0
0, 0
0, 0
0, 0
0, 0
0, 0
0, 0
0, 0
0, 0
0, 0
0, 0
0, 0
0, 0
0, 0
0, 0
0, 0
0, 0
0, 0
0, 1
2, 1
2, 0
4, 2
2, 2
2, 4
2, 2
1, 3
4, 4
6, 4
3, 3
3, 3
3, 4
3, 1
7, 4
7, 5
6, 2
10, 8
13, 16
15, 15
15, 11
23, 17
22, 12
14, 10
15, 14
10, 14
28, 14
26, 22
29, 49
35, 43
46, 54
43, 48
46, 33
28, 42
32, 45
63, 54
107, 131
203, 204
283, 312
404, 481
493, 517
493, 533
418, 402
336, 325
225, 225
128, 132
68, 76
63, 47
36, 34
33, 25
23, 32
29, 27
36, 30
37, 34
22, 25
18, 17
34, 11
17, 15
24, 35
45, 53
85, 76
154, 161
233, 225
311, 313
357, 330
346, 352
305, 275
246, 211
160, 179
114, 90
68, 61
67, 63
51, 53
66, 72
78, 84
102, 112
161, 135
162, 182
202, 200
197, 214
204, 155
133, 144
117, 131
110, 100
100, 88
82, 68
61, 75
90, 71
76, 57
54, 43
39, 47
31, 51
25, 30
19, 26
19, 20
12, 13
11, 18
14, 5
10, 9
4, 9
7, 6
9, 13
18, 14
14, 13
14, 26
23, 33
20, 37
22, 28
36, 42
29, 26
21, 20
11, 17
11, 16
8, 9
11, 16
18, 13
26, 35
37, 54
81, 93
135, 151
182, 222
257, 307
340, 361
389, 387
341, 330
319, 315
239, 210
139, 155
95, 93
67, 54
40, 38
36, 28
34, 23
44, 34
45, 48
51, 46
45, 64
52, 57
54, 55
54, 44
29, 34
29, 20
15, 23
13, 17
5, 13
10, 12
9, 6
10, 4
9, 4
11, 11
14, 11
14, 15
14, 13
18, 18
30, 32
37, 44
41, 56
46, 60
66, 76
68, 66
63, 54
48, 51
31, 35
30, 23
28, 25
22, 14
15, 15
15, 11
12, 15
7, 15
14, 9
16, 24
22, 22
19, 17
18, 26
18, 22
14, 15
22, 16
13, 23
13, 19
17, 7
16, 10
12, 10
10, 19
11, 11
14, 11
14, 13
12, 5
14, 9
11, 16
13, 17
16, 11
26, 17
21, 21
25, 35
38, 39
30, 32
29, 23
27, 20
32, 29
19, 29
17, 27
14, 15
14, 16
10, 8
11, 9
9, 8
12, 15
11, 13
17, 11
13, 13
20, 22
23, 29
29, 32
42, 34
49, 44
50, 40
53, 49
44, 47
51, 42
44, 37
29, 27
25, 26
24, 21
20, 15
22, 25
19, 25
31, 24
46, 39
70, 87
119, 142
253, 262
411, 482
639, 776
922, 1056
1189, 1403
1499, 1653
1704, 1850
1753, 1960
1794, 1760
1518, 1516
1231, 1095
921, 821
614, 535
379, 304
244, 188
130, 96
60, 39
46, 25
15, 30
16, 17
20, 20
17, 15
16, 17
13, 22
16, 20
34, 22
36, 30
34, 55
54, 71
73, 90
121, 140
169, 193
211, 224
258, 258
300, 267
270, 292
250, 241
237, 229
193, 147
139, 121
94, 71
65, 54
32, 29
28, 22
18, 6
12, 8
8, 7
8, 9
17, 3
9, 8
7, 12
9, 16
13, 15
11, 14
17, 11
11, 15
6, 12
6, 12
10, 5
11, 8
8, 3
5, 4
10, 6
6, 4
4, 5
10, 11
4, 5
6, 6
5, 6
7, 7
6, 3
4, 9
6, 8
6, 6
4, 3
6, 3
8, 5
6, 8
7, 8
1, 7
5, 9
6, 9
7, 5
1, 9
5, 12
6, 2
7, 8
6, 15
3, 8
4, 2
3, 7
1, 5
6, 7
3, 4
8, 10
15, 11
6, 8
12, 6
11, 5
8, 17
9, 14
12, 15
12, 14
10, 14
5, 14
9, 13
8, 5
7, 8
7, 8
2, 5
1, 3
4, 5
6, 6
8, 5
3, 4
3, 4
5, 1
4, 3
8, 6
7, 7
6, 5
5, 8
5, 6
3, 6
7, 5
4, 3
8, 3
6, 5
3, 7
4, 3
3, 1
5, 6
8, 9
3, 4
13, 7
7, 8
6, 6
5, 7
6, 4
1, 3
4, 9
9, 2
4, 4
3, 3
8, 11
5, 5
4, 0
5, 6
6, 6
1, 8
6, 6
4, 5
4, 4
7, 3
7, 2
5, 5
2, 4
2, 3
4, 3
4, 4
6, 9
4, 2
6, 3
13, 5
3, 9
0, 5
3, 3
2, 6
8, 6
1, 4
0, 2
2, 2
3, 5
2, 1
6, 1
3, 6
5, 5
4, 3
3, 3
5, 4
3, 5
3, 3
3, 0
7, 4
3, 7
1, 8
3, 1
3, 3
2, 2
4, 2
3, 3
2, 2
5, 4
4, 2
6, 5
5, 3
3, 5
2, 7
4, 4
2, 5
4, 2
0, 6
2, 5
2, 4
4, 6
5, 7
2, 2
2, 1
1, 2
3, 1
1, 1
2, 3
2, 3
3, 2
0, 1
1, 3
5, 5
4, 4
4, 1
3, 5
5, 5
5, 4
1, 3
2, 3
3, 3
4, 3
5, 1
1, 3
3, 4
2, 5
2, 3
3, 4
4, 2
2, 2
1, 4
2, 6
1, 2
3, 1
2, 3
4, 2
2, 5
2, 3
4, 1
1, 1
2, 3
1, 1
3, 7
5, 3
0, 2
1, 4
0, 1
3, 1
1, 0
2, 1
2, 2
4, 2
3, 4
3, 5
2, 1
3, 0
1, 1
3, 3
1, 3
4, 3
4, 5
0, 2
2, 1
1, 3
2, 0
0, 3
2, 1
0, 0
2, 3
2, 6
0, 3
5, 2
5, 2
3, 3
1, 6
3, 4
0, 4
3, 1
8, 3
2, 2
4, 3
4, 1
1, 2
0, 2
2, 0
2, 2
2, 2
2, 4
1, 1
1, 2
2, 0
2, 1
1, 0
1, 3
1, 0
1, 1
2, 0
2, 2
4, 1
4, 1
5, 0
3, 1
2, 0
1, 3
2, 2
3, 1
1, 2
0, 2
2, 0
0, 1
0, 1
3, 1
2, 0
3, 3
1, 2
5, 4
2, 1
1, 2
1, 2
2, 2
5, 0
2, 1
1, 2
2, 1
0, 2
3, 3
2, 3
1, 1
1, 1
2, 1
1, 0
1, 0
3, 2
1, 1
2, 2
2, 0
1, 1
0, 1
0, 0
1, 0
1, 3
2, 1
2, 1
0, 1
0, 0
0, 1
0, 0
1, 0
2, 0
1, 2
1, 0
0, 1
0, 2
2, 0
0, 4
1, 2
0, 2
0, 1
0, 0
1, 1
1, 1
1, 2
1, 1
1, 1
1, 0
1, 0
1, 1
2, 0
0, 2
1, 0
1, 0
0, 0
0, 0
1, 0
1, 0
2, 1
0, 0
0, 1
0, 0
2, 0
1, 0
0, 1
0, 0
1, 2
2, 1
1, 3
0, 0
0, 0
0, 0
0, 0
1, 1
0, 1
0, 2
0, 0
1, 1
1, 0
1, 1
0, 1
0, 0
0, 2
0, 0
0, 0
0, 0
0, 0
0, 1
1, 3
0, 0
2, 1
0, 0
0, 0
0, 1
0, 0
0, 1
1, 1
0, 0
2, 0
1, 0
0, 0
1, 0
0, 0
0, 1
1, 0
1, 0
2, 0
0, 1
0, 0
0, 1
1, 1
0, 0
1, 0
0, 0
0, 0
0, 0
0, 0
1, 0
0, 0
3, 0
0, 0
0, 1
0, 1
2, 0
0, 1
1, 2
1, 0
0, 0
0, 1
0, 0
1, 1
0, 0
0, 0
0, 1
2, 1
0, 0
0, 0
1, 1
0, 0
0, 0
0, 0
0, 0
0, 0
1, 0
0, 0
0, 0
1, 0
0, 1
0, 1
0, 0
0, 1
0, 0
0, 0
0, 1
2, 2
0, 0
1, 0
0, 0
1, 0
0, 0
0, 0
0, 0
0, 0
1, 0
0, 0
0, 0
0, 0
2, 0
0, 1
0, 1
0, 0
0, 0
0, 0
0, 0
0, 0
0, 1
0, 0
0, 0
0, 0
0, 1
0, 0
0, 0
0, 0
0, 0
0, 0
0, 0
0, 0
0, 1
0, 1
1, 0
1, 0
1, 1
1, 0
1, 0
0, 0
0, 0
0, 1
0, 0
0, 0
1, 1
0, 0
0, 0
0, 0
0, 0
1, 0
1, 0
0, 1
0, 1
0, 1
1, 1
0, 1
2, 0
0, 1
0, 0
1, 0
0, 0
0, 0
0, 0
1, 0
0, 0
1, 0
1, 0
0, 0
0, 1
2, 0
0, 0
1, 0
0, 0
1, 0
0, 0
0, 0
0, 0
0, 0
0, 0
0, 0
0, 1
0, 0
0, 0
0, 0
0, 0
0, 0
0, 0
0, 0
0, 0
0, 0
1, 0
0, 0
0, 0
0, 1
0, 0
0, 0
0, 0
1, 0
1, 0
0, 0
0, 0
0, 0
0, 0
1, 0
0, 0
0, 0
1, 0
0, 1
1, 0
1, 0
0, 0
0, 1
1, 0
0, 0
0, 0
0, 0
0, 1
0, 0
0, 0
0, 0
0, 0
0, 0
1, 0
0, 0
0, 0
0, 0
0, 0
0, 0
0, 0
0, 0
0, 0
0, 0
0, 0
0, 0
0, 0
0, 0
0, 0
1, 0
0, 0
0, 0
0, 0
0, 0
0, 0
0, 0
0, 0
0, 1
0, 0
0, 0
0, 0
0, 0
0, 0
0, 0
0, 0
1, 0
0, 0
0, 0
0, 0
0, 0
0, 0
0, 1
0, 0
0, 0
0, 0
0, 0
0, 0
0, 0
0, 0
0, 0
0, 0
0, 0
0, 0
0, 0
0, 0
0, 0
0, 0
0, 0
0, 0
0, 0
0, 0
0, 0
0, 0
0, 0
0, 0
0, 0
0, 0
0, 0
0, 0
0, 0
1, 0
0, 1
0, 0
0, 0
0, 0
0, 0
0, 0
0, 0
0, 0
0, 0
0, 0
0, 0
0, 0
0, 0
0, 0
0, 0
0, 0
0, 0
0, 0
0, 0
0, 0
0, 0
0, 0
0, 0
0, 0
0, 0
1, 0
0, 0
1, 0
0, 0
0, 0
0, 0
0, 0
0, 0
0, 0
0, 0
0, 0
0, 0
0, 0
0, 0
0, 0
0, 0
0, 0
0, 0
0, 0
0, 0
0, 0
0, 0
0, 0
0, 0
0, 0
0, 0
0, 0
0, 0
0, 0
0, 0
0, 0
0, 0
0, 0
0, 0
0, 0
0, 0
0, 0
0, 0
0, 0
0, 0
0, 0
0, 0
0, 0
0, 0
0, 0
0, 0
0, 0
0, 0
0, 0
0, 0
0, 0
0, 0
0, 0
0, 0
0, 0
0, 0
0, 0
0, 0
0, 0
0, 0
0, 0
0, 0
0, 0
0, 0
0, 0
0, 0
0, 0
0, 0
0, 0
0, 0
0, 0
0, 0
0, 0
0, 0
1, 0
0, 0
0, 0
0, 0
0, 0
0, 0
0, 0
0, 0
0, 0
0, 0
0, 0
0, 0
0, 0
0, 0
0, 0
0, 0
0, 0
0, 0
0, 0
0, 0
0, 0
0, 0
0, 0
0, 0
0, 0
0, 0
0, 0
0, 0
0, 0
0, 0
0, 0
0, 0
0, 0
0, 0
0, 0
0, 0
0, 0
0, 0
0, 0
0, 0
0, 0
0, 0
0, 0
0, 0
0, 0
0, 0
0, 0
0, 0
0, 0
0, 0
0, 0
0, 0
0, 0
0, 0
0, 0
0, 0
0, 0
0, 0
0, 0
0, 0
0, 0
0, 0
0, 0
0, 0
0, 0
0, 0
0, 0
0, 0
0, 0
0, 0
0, 0
0, 0
0, 0
0, 0
0, 0
0, 0
0, 0
0, 0
0, 0
0, 0
0, 0
0, 0
0, 0
0, 0
0, 0
0, 0
0, 0
0, 0
0, 0
0, 0
0, 0
0, 0
0, 0
0, 0
0, 0
0, 0
0, 0
0, 0
0, 0
0, 0
0, 0
0, 0
0, 0
0, 0
0, 0
0, 0
0, 0
0, 0
0, 0
0, 0
0, 0
0, 0
0, 0
0, 0
0, 0
0, 0
0, 0
0, 0
0, 0
0, 0
0, 0
0, 0
0, 0
0, 0
0, 0
0, 0
0, 0
0, 0
0, 0
0, 0
0, 0
0, 0
0, 0
0, 0
0, 0
0, 0
0, 0
0, 0
0, 0
0, 0
0, 0
0, 0
0, 0
0, 0
0, 0
0, 0
0, 0
0, 0
0, 0
0, 0
0, 0
0, 0
0, 0
0, 0
0, 0
0, 0
0, 0
0, 0
0, 0
0, 0
0, 0
0, 0
0, 0
0, 0
0, 0
0, 0
0, 0
0, 0
0, 0
0, 0
0, 0
0, 0
0, 0
0, 0
0, 0
0, 0
0, 0
0, 0
0, 0
0, 0
0, 0
0, 0
0, 0
0, 0
0, 0
0, 0
0, 0
0, 0
0, 0
0, 0
0, 0
0, 0
0, 0
0, 0
0, 0
0, 0
0, 0
0, 0
0, 0
0, 0
0, 0
0, 0
0, 0
0, 0
0, 0
0, 0
0, 0
0, 0
0, 0
0, 0
0, 0
0, 0
0, 0
0, 0
0, 0
0, 0
0, 0
0, 0
0, 0
0, 0
0, 0
0, 0
0, 0
0, 0
0, 0
0, 0
0, 0
0, 0
0, 0
0, 0
0, 0
0, 0
0, 0
0, 0
0, 0
0, 0
0, 0
0, 0
0, 0
0, 0
0, 0
0, 0
0, 0
0, 0
0, 0
0, 0
0, 0
0, 0
0, 0
0, 0
0, 0
0, 0
0, 0
0, 0
0, 0
0, 0
0, 0
0, 0
0, 0
0, 0
0, 0
0, 0
0, 0
0, 0
0, 0
0, 0
0, 0
0, 0
0, 0
0, 0
0, 0
0, 0
0, 0
0, 0
0, 0
0, 0
0, 0
0, 0
0, 0
0, 0
0, 0
0, 0
0, 0
0, 0
0, 0
0, 0
0, 0
0, 0
0, 0
0, 0
0, 0
0, 0
0, 0
0, 0
0, 0
0, 0
0, 0
0, 0
0, 0
0, 0
0, 0
0, 0
0, 0
0, 0
0, 0
0, 0
0, 0
0, 0
0, 0
0, 0
0, 0
0, 0
0, 0
0, 0
0, 0
0, 0
0, 0
0, 0
0, 0
0, 0
0, 0
0, 0
0, 0
0, 0
0, 0
0, 0
0, 0
0, 0
0, 0
0, 0
0, 0
0, 0
0, 0
0, 0
0, 0
0, 0
0, 0
#ENDOFDATA     end of spectrum data