File: host_upload/02-11-2024/rqc/uplink1/ps__0567_0717304816_000rfs_shot_53.msa
#FORMAT      : EMSA/MAS spectral data file
#VERSION     : TC202v2.0 PIXL
#TITLE       : Novarupta (sol567) subset1
#DATE        : 02-11-2024      Date in the format DD-MMM-YYYY, for example 07-JUL-2010
#TIME        :             The time of day at which the spectrum was recorded, in 24-hour format
#OWNER       : PIXL Flight Model       (PIXL will use this to indicate which instrument took the data.)
#NPOINTS     : 4096     Number of data points in the spectrum (This can be zero for configuration only files)
#NCOLUMNS    : 2     Number of data columns in the spectrum (This can be zero for configuration only files)
#XUNITS      : eV
#YUNITS      : COUNTS
#DATATYPE    : YY
#XPERCHAN    : 7.862, 7.881   eV per channel (separate by commas if more than one detector)
#OFFSET      : 18.5, -22.4         eV of first channel  (separate by commas if more than one detector
#SIGNALTYPE  : XRF
#YP_TEMP     : -2.543
#LIVETIME    : 8.82932, 8.82623   seconds (separate by commas if more than one detector)
#REALTIME    : 10, 10.0   seconds (separate by commas if more than one detector)
#SPECTRUM    : start of spectrum data
0, 0
0, 0
0, 0
0, 0
0, 0
0, 0
0, 0
0, 0
0, 0
0, 0
0, 0
0, 0
0, 0
0, 0
0, 0
0, 0
0, 0
0, 0
0, 0
0, 0
0, 0
0, 0
0, 0
0, 0
0, 0
0, 0
0, 0
0, 0
0, 0
0, 0
0, 0
0, 0
0, 0
1, 0
1, 1
1, 3
2, 4
0, 1
6, 4
3, 4
3, 2
5, 3
4, 8
3, 4
3, 4
2, 1
3, 2
7, 5
2, 7
2, 3
2, 11
11, 6
5, 16
18, 7
21, 24
23, 14
13, 16
14, 10
13, 8
12, 19
18, 18
26, 38
41, 53
48, 47
58, 48
47, 41
42, 37
41, 28
33, 53
70, 73
132, 131
201, 225
318, 377
425, 460
465, 498
503, 495
455, 456
323, 344
205, 238
145, 136
104, 83
45, 47
43, 44
33, 42
41, 35
31, 26
32, 37
26, 28
22, 25
23, 12
22, 20
17, 20
39, 38
62, 69
100, 114
158, 170
211, 246
302, 312
336, 326
325, 307
298, 270
235, 249
148, 153
104, 103
92, 75
66, 58
64, 61
75, 90
91, 101
158, 155
158, 200
227, 217
232, 214
231, 219
217, 182
158, 136
134, 150
116, 104
86, 90
70, 91
72, 75
63, 69
50, 72
71, 56
44, 48
35, 39
27, 31
20, 33
11, 17
13, 8
10, 12
7, 7
9, 10
9, 7
7, 8
13, 13
10, 15
14, 12
16, 13
24, 35
29, 28
18, 31
15, 24
26, 28
21, 14
19, 18
11, 19
16, 14
9, 19
22, 25
25, 39
57, 64
99, 123
167, 178
236, 275
321, 325
391, 372
376, 378
338, 356
293, 288
230, 213
157, 141
89, 102
71, 57
35, 43
28, 23
34, 27
42, 50
45, 62
63, 63
63, 50
48, 65
47, 65
37, 40
38, 35
26, 21
20, 18
10, 15
8, 4
14, 14
2, 7
5, 13
9, 10
10, 12
10, 14
16, 16
13, 25
21, 36
28, 33
47, 47
57, 72
64, 84
62, 69
63, 56
55, 41
41, 40
42, 29
23, 31
21, 20
11, 12
19, 21
13, 9
14, 10
12, 15
10, 15
15, 21
16, 14
16, 28
17, 12
18, 18
17, 17
23, 30
22, 15
15, 18
9, 7
9, 13
8, 10
13, 15
6, 20
12, 11
16, 9
16, 15
14, 15
5, 17
15, 17
22, 17
22, 31
24, 33
22, 33
24, 39
26, 31
26, 27
35, 24
20, 23
17, 9
18, 18
14, 18
18, 21
10, 12
14, 14
8, 11
9, 18
16, 13
12, 18
22, 20
15, 23
30, 31
27, 51
37, 46
42, 45
44, 44
47, 37
51, 52
33, 42
33, 29
31, 23
22, 23
19, 23
22, 29
23, 21
22, 24
34, 44
62, 70
95, 116
162, 228
285, 378
463, 621
741, 881
1024, 1209
1308, 1475
1563, 1761
1654, 1776
1739, 1696
1555, 1508
1349, 1219
1048, 963
710, 648
476, 390
305, 233
163, 155
90, 93
59, 45
24, 22
19, 27
18, 15
10, 12
15, 16
14, 11
18, 17
23, 21
27, 26
41, 50
61, 61
80, 77
108, 116
162, 174
159, 209
213, 236
275, 265
266, 266
221, 263
223, 222
184, 201
134, 139
97, 132
76, 55
63, 30
32, 29
21, 23
11, 10
6, 11
13, 11
8, 12
11, 11
9, 10
12, 17
14, 12
10, 19
11, 11
11, 12
10, 8
6, 11
7, 9
13, 11
5, 7
7, 8
6, 8
10, 3
8, 6
3, 6
8, 5
8, 3
9, 9
11, 7
6, 6
7, 11
8, 10
6, 6
8, 7
3, 7
9, 7
6, 8
10, 2
10, 8
8, 9
8, 4
6, 4
10, 5
11, 13
10, 9
8, 7
5, 9
4, 6
8, 13
7, 6
4, 8
6, 2
9, 4
4, 9
8, 8
7, 6
8, 10
15, 14
8, 15
10, 13
10, 10
10, 18
9, 11
19, 13
7, 10
6, 10
9, 8
9, 8
6, 5
6, 3
5, 9
8, 4
6, 8
5, 3
10, 9
7, 11
4, 7
8, 12
6, 5
6, 6
6, 7
4, 5
9, 4
9, 5
5, 4
2, 8
8, 7
10, 8
5, 6
3, 2
8, 8
6, 11
4, 6
5, 3
6, 5
6, 4
5, 7
6, 4
5, 5
3, 4
6, 5
3, 6
6, 5
4, 4
6, 7
6, 2
1, 10
6, 2
6, 6
4, 3
5, 0
4, 4
3, 9
9, 5
4, 3
6, 8
5, 9
5, 7
1, 5
7, 8
6, 5
5, 7
7, 4
2, 10
5, 4
3, 4
4, 5
1, 10
2, 5
5, 5
6, 9
6, 3
3, 0
6, 3
1, 3
5, 8
5, 6
1, 5
1, 3
1, 5
1, 3
3, 4
3, 2
7, 4
6, 2
5, 0
5, 3
2, 5
2, 9
3, 1
4, 4
2, 3
3, 3
4, 2
3, 2
3, 4
5, 0
3, 7
7, 3
2, 5
4, 3
5, 4
1, 2
4, 5
2, 2
2, 2
5, 4
3, 1
5, 3
3, 6
5, 2
6, 3
2, 1
2, 1
1, 2
5, 3
5, 6
4, 3
2, 1
2, 0
0, 2
4, 1
1, 1
1, 2
0, 3
3, 2
1, 5
0, 3
4, 3
4, 2
1, 3
5, 0
2, 4
2, 3
4, 3
1, 0
2, 1
2, 7
0, 3
4, 0
1, 0
2, 1
4, 3
1, 2
3, 3
3, 4
5, 1
1, 3
1, 1
3, 0
2, 2
1, 1
5, 0
0, 4
1, 1
1, 1
3, 2
1, 3
0, 4
2, 3
1, 2
0, 2
3, 3
2, 1
5, 1
3, 3
2, 2
3, 1
4, 0
1, 2
3, 1
3, 8
1, 3
2, 5
4, 2
4, 2
0, 5
4, 6
2, 1
4, 3
5, 3
0, 4
3, 1
1, 2
1, 3
3, 2
1, 0
2, 0
0, 5
0, 1
1, 1
1, 3
1, 2
3, 3
2, 3
2, 1
0, 1
2, 1
2, 2
2, 1
3, 0
1, 2
0, 4
1, 1
1, 4
4, 2
4, 2
2, 0
1, 2
0, 2
1, 1
2, 1
2, 0
2, 0
3, 1
3, 0
1, 3
2, 0
0, 1
2, 0
1, 1
2, 0
1, 2
2, 2
1, 1
1, 4
4, 1
1, 3
2, 3
0, 3
1, 1
1, 1
0, 0
1, 1
0, 1
1, 2
0, 1
1, 0
1, 1
0, 0
1, 3
0, 0
1, 1
0, 4
1, 0
0, 3
0, 0
0, 0
1, 2
0, 1
1, 0
1, 3
0, 0
0, 1
0, 2
1, 1
0, 1
0, 0
2, 1
2, 2
2, 1
1, 1
2, 0
0, 0
2, 1
1, 1
3, 0
2, 0
0, 0
0, 1
0, 0
1, 1
2, 0
1, 1
3, 1
1, 2
2, 0
0, 0
0, 1
0, 0
0, 0
0, 1
0, 0
3, 2
0, 1
1, 2
0, 1
0, 1
0, 0
1, 0
0, 0
0, 1
0, 0
0, 0
0, 0
0, 0
2, 0
1, 1
0, 0
2, 0
1, 0
1, 0
0, 0
0, 2
2, 0
2, 0
0, 2
0, 0
0, 0
2, 0
2, 1
1, 1
0, 0
0, 1
0, 1
0, 1
2, 0
1, 0
1, 0
0, 2
0, 2
0, 0
0, 0
1, 0
0, 1
0, 1
1, 0
1, 0
0, 1
0, 0
1, 0
1, 0
0, 0
2, 0
0, 0
1, 0
0, 0
1, 0
0, 0
1, 1
1, 0
1, 1
0, 1
0, 0
1, 0
1, 0
0, 0
0, 0
0, 1
1, 0
0, 0
0, 0
0, 1
0, 0
0, 0
0, 0
0, 0
0, 1
0, 0
2, 0
2, 0
1, 0
0, 1
1, 0
0, 1
0, 0
1, 0
0, 1
0, 0
1, 0
0, 2
0, 0
0, 1
0, 3
0, 1
1, 0
0, 0
0, 1
0, 0
0, 0
0, 0
0, 0
0, 0
0, 0
1, 0
0, 0
0, 0
1, 0
0, 0
2, 1
0, 0
0, 0
1, 0
2, 0
0, 1
0, 0
1, 0
0, 2
0, 0
0, 1
0, 0
0, 1
0, 0
1, 0
0, 0
1, 1
0, 0
0, 1
0, 0
0, 2
1, 0
1, 0
0, 0
0, 0
0, 0
0, 0
0, 0
1, 0
0, 0
1, 0
1, 0
1, 0
0, 0
1, 0
0, 0
0, 1
0, 0
0, 0
0, 0
0, 0
0, 0
0, 1
1, 2
0, 1
0, 0
0, 0
0, 0
0, 1
0, 0
0, 0
0, 1
0, 0
0, 0
0, 0
0, 0
0, 0
0, 1
0, 0
0, 0
0, 1
0, 0
0, 0
0, 0
0, 0
0, 0
1, 0
0, 1
1, 0
1, 0
0, 0
0, 0
0, 0
0, 0
0, 0
0, 0
0, 0
0, 0
0, 0
0, 0
0, 0
0, 0
0, 0
0, 0
1, 0
0, 0
0, 0
0, 0
0, 1
1, 0
0, 0
0, 0
0, 0
0, 0
1, 0
0, 0
0, 0
0, 0
0, 0
0, 0
0, 0
0, 0
0, 1
0, 0
0, 0
0, 1
0, 0
0, 0
0, 0
0, 0
0, 0
0, 1
0, 0
0, 0
0, 0
0, 0
0, 0
0, 0
0, 0
0, 0
0, 0
0, 0
0, 0
0, 0
0, 0
0, 0
0, 0
0, 0
0, 0
0, 0
0, 0
0, 0
0, 0
0, 0
0, 0
0, 0
0, 0
0, 0
0, 0
0, 1
0, 1
0, 0
1, 0
0, 0
0, 0
0, 0
0, 0
0, 0
0, 0
0, 0
0, 0
0, 0
1, 0
0, 0
0, 0
0, 0
0, 0
0, 0
0, 0
0, 0
0, 0
0, 0
0, 0
0, 0
0, 0
0, 0
0, 0
0, 0
0, 0
0, 0
0, 0
0, 0
0, 0
0, 0
0, 0
0, 0
0, 0
0, 0
0, 0
0, 0
0, 0
0, 0
0, 1
0, 0
0, 0
0, 0
0, 0
0, 0
0, 0
0, 0
0, 0
0, 0
0, 0
0, 0
0, 0
0, 0
0, 0
0, 1
0, 0
0, 0
0, 0
0, 0
0, 0
0, 0
0, 1
0, 0
0, 0
0, 0
0, 0
0, 0
0, 0
0, 0
0, 0
0, 0
0, 0
0, 0
0, 0
0, 0
0, 0
0, 0
0, 0
0, 0
0, 0
0, 0
0, 0
0, 1
0, 0
0, 0
0, 0
0, 0
0, 0
0, 0
0, 0
0, 0
0, 0
0, 0
0, 0
0, 0
0, 0
0, 0
0, 0
0, 0
0, 0
0, 0
0, 0
0, 0
0, 0
0, 0
0, 0
0, 0
0, 0
0, 0
0, 0
0, 0
0, 0
0, 0
0, 0
0, 0
0, 0
0, 0
0, 0
0, 0
0, 0
0, 0
0, 0
0, 0
0, 0
0, 0
0, 0
0, 0
0, 0
0, 0
0, 0
0, 0
0, 0
0, 0
0, 0
0, 0
0, 0
0, 0
0, 0
0, 0
0, 0
0, 0
0, 0
0, 0
0, 0
0, 0
0, 0
0, 0
0, 0
0, 0
0, 0
0, 0
0, 0
0, 0
0, 0
0, 0
0, 0
0, 0
0, 0
0, 0
0, 0
0, 0
0, 0
0, 0
0, 0
0, 0
0, 0
0, 0
0, 0
0, 0
0, 0
0, 0
0, 0
0, 0
0, 0
0, 0
0, 0
0, 0
0, 0
0, 0
0, 0
0, 0
0, 0
0, 0
0, 0
0, 0
0, 0
0, 0
0, 0
0, 0
0, 0
0, 0
0, 0
0, 0
0, 0
0, 0
0, 0
0, 0
0, 0
0, 0
0, 0
0, 0
0, 0
0, 0
0, 0
0, 0
0, 0
0, 0
0, 0
0, 0
0, 0
0, 0
0, 0
0, 0
0, 0
0, 0
0, 0
0, 0
0, 0
0, 0
0, 0
0, 0
0, 0
0, 0
0, 0
0, 0
0, 0
0, 0
0, 0
0, 0
0, 0
0, 0
0, 0
0, 0
0, 0
0, 0
0, 0
0, 0
0, 0
0, 0
0, 0
0, 0
0, 0
0, 0
0, 0
0, 0
0, 0
0, 0
0, 0
0, 0
0, 0
0, 0
0, 0
0, 0
1, 0
0, 0
0, 0
0, 0
0, 0
0, 0
0, 0
0, 0
0, 0
0, 0
0, 0
0, 0
0, 0
0, 0
0, 0
0, 0
0, 0
0, 0
0, 0
0, 0
0, 0
0, 0
0, 0
0, 0
0, 0
0, 0
0, 0
0, 0
0, 0
0, 0
0, 0
0, 0
0, 0
0, 0
0, 0
0, 0
0, 0
0, 0
0, 0
0, 0
0, 0
0, 0
0, 0
0, 0
0, 0
0, 0
0, 0
0, 0
0, 0
0, 0
0, 0
0, 0
0, 0
0, 0
0, 0
0, 0
0, 0
0, 0
0, 0
0, 0
0, 0
0, 0
0, 0
0, 0
0, 0
0, 0
0, 0
0, 0
0, 0
0, 0
0, 0
0, 0
0, 0
0, 0
0, 0
0, 0
0, 0
0, 0
0, 0
0, 0
0, 0
0, 0
0, 0
0, 0
0, 0
0, 0
0, 0
0, 0
0, 0
0, 0
0, 0
0, 0
0, 0
0, 0
0, 0
0, 0
0, 0
0, 0
0, 0
0, 0
0, 0
0, 0
0, 0
0, 0
0, 0
0, 0
0, 0
0, 0
0, 0
0, 0
0, 0
0, 0
0, 0
0, 0
0, 0
0, 0
0, 0
0, 0
0, 0
0, 0
0, 0
0, 0
0, 0
0, 0
0, 0
0, 0
0, 0
0, 0
0, 0
0, 0
0, 0
0, 0
0, 0
0, 0
0, 0
0, 0
0, 0
0, 0
0, 0
0, 0
0, 0
0, 0
0, 0
0, 0
0, 0
0, 0
0, 0
0, 0
0, 0
0, 0
0, 0
0, 0
0, 0
0, 0
0, 0
0, 0
0, 0
0, 0
0, 0
0, 0
0, 0
0, 0
0, 0
0, 0
0, 0
0, 0
0, 0
0, 0
0, 0
0, 0
0, 0
0, 0
0, 0
0, 0
0, 0
0, 0
0, 0
0, 0
0, 0
0, 0
0, 0
0, 0
0, 0
0, 0
0, 0
0, 0
0, 0
0, 0
0, 0
0, 0
0, 0
0, 0
0, 0
0, 0
0, 0
0, 0
0, 0
0, 0
0, 0
0, 0
0, 0
0, 0
0, 0
0, 0
0, 0
0, 0
0, 0
0, 0
0, 0
0, 0
0, 0
0, 0
0, 0
0, 0
0, 0
0, 0
#ENDOFDATA     end of spectrum data