File: host_upload/02-11-2024/rqc/uplink1/ps__0567_0717304816_000rfs_shot_83.msa
#FORMAT      : EMSA/MAS spectral data file
#VERSION     : TC202v2.0 PIXL
#TITLE       : Novarupta (sol567) subset1
#DATE        : 02-11-2024      Date in the format DD-MMM-YYYY, for example 07-JUL-2010
#TIME        :             The time of day at which the spectrum was recorded, in 24-hour format
#OWNER       : PIXL Flight Model       (PIXL will use this to indicate which instrument took the data.)
#NPOINTS     : 4096     Number of data points in the spectrum (This can be zero for configuration only files)
#NCOLUMNS    : 2     Number of data columns in the spectrum (This can be zero for configuration only files)
#XUNITS      : eV
#YUNITS      : COUNTS
#DATATYPE    : YY
#XPERCHAN    : 7.862, 7.881   eV per channel (separate by commas if more than one detector)
#OFFSET      : 18.5, -22.4         eV of first channel  (separate by commas if more than one detector
#SIGNALTYPE  : XRF
#YP_TEMP     : -1.164
#LIVETIME    : 8.84133, 8.8265   seconds (separate by commas if more than one detector)
#REALTIME    : 10, 10.0   seconds (separate by commas if more than one detector)
#SPECTRUM    : start of spectrum data
0, 0
0, 0
0, 0
0, 0
0, 0
0, 0
0, 0
0, 0
0, 0
0, 0
0, 0
0, 0
0, 0
0, 0
0, 0
0, 0
0, 0
0, 0
0, 0
0, 0
0, 0
0, 0
0, 0
0, 0
0, 0
0, 0
0, 0
0, 0
0, 0
0, 0
0, 0
0, 0
0, 1
0, 0
1, 0
2, 1
1, 1
2, 5
2, 2
3, 8
4, 6
2, 3
4, 4
2, 3
2, 2
2, 5
3, 3
1, 6
4, 1
3, 4
6, 5
14, 5
15, 8
21, 20
27, 8
19, 18
16, 9
11, 8
7, 14
4, 13
18, 18
29, 30
31, 44
45, 41
46, 57
41, 38
37, 48
29, 36
52, 46
72, 67
122, 121
233, 243
287, 329
382, 431
428, 532
453, 481
408, 396
316, 300
223, 214
150, 141
73, 81
53, 53
35, 45
35, 41
33, 34
30, 38
34, 30
34, 44
23, 29
19, 17
17, 18
20, 26
26, 22
47, 49
78, 85
140, 142
189, 228
255, 266
292, 297
259, 297
247, 261
188, 217
127, 152
93, 99
61, 58
45, 53
52, 54
54, 78
92, 107
128, 148
192, 187
195, 218
211, 255
207, 198
178, 195
159, 167
116, 149
108, 91
94, 87
84, 90
68, 78
59, 71
63, 63
48, 60
44, 52
35, 43
24, 31
29, 26
15, 16
11, 13
13, 9
8, 10
4, 8
4, 9
10, 2
13, 7
6, 10
15, 9
22, 25
29, 27
29, 31
21, 30
28, 35
20, 23
20, 20
22, 15
12, 13
12, 4
14, 15
15, 19
33, 34
64, 52
80, 100
158, 167
198, 260
268, 314
319, 381
348, 351
340, 347
270, 295
214, 210
149, 152
85, 65
68, 38
39, 35
27, 39
24, 30
29, 31
47, 50
48, 54
65, 71
48, 57
62, 55
51, 46
29, 35
21, 21
18, 10
11, 16
11, 10
10, 10
5, 11
11, 4
5, 9
13, 9
7, 12
13, 10
13, 33
19, 32
37, 39
52, 65
53, 56
61, 62
53, 58
53, 55
43, 60
41, 47
37, 31
31, 20
15, 18
19, 18
14, 13
23, 21
15, 16
12, 12
15, 11
17, 21
19, 14
14, 21
22, 10
16, 17
20, 24
21, 16
12, 19
14, 9
4, 16
15, 13
11, 8
9, 8
7, 9
11, 5
8, 13
11, 13
10, 10
12, 11
18, 28
16, 17
15, 13
13, 23
23, 31
29, 30
33, 31
42, 24
28, 33
15, 21
17, 27
23, 13
20, 9
8, 17
11, 14
10, 11
14, 5
14, 10
12, 10
12, 13
11, 15
18, 20
22, 31
28, 34
51, 46
33, 37
43, 59
48, 46
42, 50
40, 50
28, 24
33, 22
18, 28
29, 11
23, 18
20, 17
27, 29
31, 29
50, 59
86, 117
163, 235
260, 309
430, 564
747, 835
961, 1165
1258, 1491
1455, 1656
1666, 1802
1647, 1772
1552, 1505
1305, 1256
1013, 959
786, 662
467, 428
307, 274
167, 143
106, 83
62, 50
31, 37
16, 26
19, 14
14, 16
12, 15
13, 13
20, 30
28, 28
33, 28
28, 37
39, 68
56, 60
92, 121
124, 164
177, 176
209, 263
248, 244
256, 254
247, 277
219, 236
189, 189
168, 143
111, 81
75, 79
54, 43
26, 25
18, 19
13, 7
11, 6
8, 9
6, 4
8, 4
5, 9
11, 10
13, 18
7, 13
10, 12
12, 13
13, 10
11, 7
7, 6
5, 12
5, 1
6, 8
5, 5
4, 6
8, 7
6, 6
2, 12
5, 7
6, 9
8, 4
4, 5
9, 5
10, 2
4, 7
4, 5
11, 5
3, 10
5, 7
7, 11
4, 9
5, 6
4, 4
9, 7
2, 7
8, 7
9, 9
3, 5
4, 8
7, 5
9, 7
5, 3
6, 12
7, 4
4, 5
6, 12
12, 6
9, 7
7, 4
8, 8
10, 10
8, 15
9, 15
18, 9
12, 7
8, 4
5, 6
7, 7
9, 2
4, 5
4, 5
9, 4
6, 7
7, 9
4, 4
5, 6
7, 3
6, 5
3, 2
4, 4
5, 3
4, 2
5, 8
7, 6
7, 9
6, 10
5, 3
2, 7
3, 5
7, 6
4, 4
5, 8
4, 4
4, 6
6, 8
2, 3
5, 7
5, 8
3, 7
7, 3
6, 3
6, 5
1, 2
6, 10
8, 8
3, 5
5, 5
2, 8
5, 3
3, 4
6, 1
6, 3
2, 7
1, 4
2, 7
2, 7
3, 4
4, 4
7, 2
11, 7
4, 4
2, 5
2, 3
3, 8
6, 5
4, 1
3, 4
3, 4
3, 2
3, 5
5, 3
3, 2
0, 7
7, 2
2, 1
2, 4
1, 5
6, 5
1, 3
3, 2
1, 4
3, 1
7, 2
7, 3
4, 3
2, 3
3, 4
7, 4
4, 2
2, 5
6, 1
6, 2
4, 3
3, 2
4, 2
2, 3
3, 3
4, 4
4, 2
1, 3
2, 2
3, 4
3, 2
5, 1
5, 3
1, 5
3, 7
1, 6
4, 3
8, 4
0, 3
2, 3
3, 5
2, 2
2, 4
1, 1
3, 4
1, 3
4, 5
2, 2
4, 6
0, 3
1, 1
3, 5
1, 0
2, 4
5, 2
3, 3
2, 1
3, 2
1, 4
1, 3
3, 1
3, 4
3, 4
3, 1
2, 2
2, 2
4, 1
2, 2
1, 3
0, 3
2, 1
3, 1
1, 2
3, 5
2, 0
0, 0
1, 3
2, 0
2, 2
2, 1
2, 1
2, 1
4, 0
3, 2
2, 4
1, 5
1, 1
0, 1
2, 2
0, 1
1, 2
2, 1
3, 0
4, 2
1, 4
1, 4
1, 4
3, 3
3, 4
2, 4
1, 4
1, 0
2, 3
0, 4
4, 1
1, 2
5, 3
0, 5
5, 2
6, 4
1, 4
2, 2
3, 5
3, 1
4, 0
3, 1
2, 2
2, 2
0, 0
1, 1
2, 2
0, 2
3, 3
0, 1
0, 2
2, 0
1, 3
3, 2
0, 8
2, 4
0, 1
1, 1
3, 0
2, 1
4, 2
0, 3
0, 2
0, 0
2, 2
4, 1
2, 2
0, 3
0, 1
5, 0
2, 0
4, 1
2, 3
0, 0
0, 2
4, 1
0, 1
3, 1
4, 2
0, 1
0, 2
1, 1
0, 1
1, 1
0, 1
0, 2
2, 2
0, 0
1, 2
1, 1
1, 0
0, 4
1, 0
1, 0
0, 1
0, 0
0, 0
0, 0
3, 2
1, 0
1, 0
1, 1
1, 1
0, 0
2, 0
0, 2
0, 0
0, 2
2, 1
0, 1
0, 0
0, 0
3, 0
1, 1
5, 1
1, 1
0, 2
0, 0
1, 2
2, 0
2, 1
1, 0
0, 0
2, 0
0, 3
0, 0
1, 3
1, 1
0, 1
0, 0
0, 1
0, 1
1, 0
0, 1
0, 0
1, 1
0, 0
1, 1
1, 1
1, 1
1, 1
1, 0
0, 0
0, 0
1, 1
1, 1
0, 0
2, 0
1, 0
0, 0
0, 0
0, 0
1, 1
0, 1
0, 0
1, 0
0, 0
0, 0
0, 0
0, 0
1, 0
1, 1
1, 0
0, 0
0, 0
0, 1
1, 0
0, 1
0, 0
5, 0
1, 0
0, 0
0, 0
1, 1
0, 0
0, 0
0, 0
1, 0
0, 0
0, 0
0, 1
0, 1
0, 0
0, 1
0, 2
0, 0
2, 1
0, 0
1, 1
1, 1
0, 0
0, 0
1, 0
0, 1
1, 1
0, 2
0, 3
0, 0
1, 0
0, 1
0, 0
0, 1
0, 0
0, 0
0, 1
0, 0
0, 0
0, 0
0, 0
0, 0
0, 0
1, 1
0, 0
0, 0
0, 2
0, 1
0, 0
0, 0
0, 0
0, 0
0, 1
0, 0
1, 0
0, 0
0, 0
0, 0
0, 1
0, 0
0, 0
1, 0
1, 0
0, 0
1, 0
1, 0
2, 0
0, 1
0, 0
0, 0
0, 0
0, 0
0, 1
1, 0
1, 1
0, 0
0, 0
0, 0
0, 0
1, 0
0, 1
1, 0
1, 0
0, 0
0, 1
0, 1
0, 0
1, 0
0, 0
0, 0
0, 0
0, 0
2, 0
0, 1
0, 0
0, 0
0, 0
0, 0
1, 1
0, 1
0, 0
0, 0
0, 1
0, 0
0, 0
0, 0
1, 1
1, 0
0, 2
0, 0
1, 0
0, 0
0, 2
0, 1
0, 0
0, 1
0, 1
0, 1
2, 0
1, 1
0, 0
0, 0
0, 0
1, 0
1, 0
0, 0
0, 0
0, 0
2, 0
0, 1
0, 0
0, 0
1, 0
0, 2
0, 0
0, 1
0, 0
0, 0
0, 0
0, 0
1, 0
0, 0
0, 2
1, 1
0, 0
0, 0
0, 0
1, 0
1, 0
0, 0
1, 2
0, 0
0, 0
0, 0
0, 0
0, 0
0, 0
0, 0
0, 1
0, 1
0, 0
0, 0
0, 0
0, 0
0, 0
1, 0
0, 0
0, 0
0, 0
0, 0
1, 0
0, 0
0, 0
0, 1
0, 0
0, 0
0, 0
0, 0
0, 0
1, 0
0, 1
0, 0
0, 0
1, 0
1, 0
0, 0
0, 0
0, 0
0, 0
0, 0
0, 0
0, 0
0, 0
0, 0
0, 0
0, 0
0, 0
0, 0
0, 0
0, 0
0, 0
0, 0
0, 0
0, 0
0, 0
0, 0
1, 0
0, 0
0, 0
0, 0
0, 1
0, 1
0, 0
0, 0
0, 0
0, 0
0, 0
0, 0
0, 0
0, 0
0, 0
0, 1
0, 0
0, 0
0, 0
0, 0
0, 0
0, 0
0, 0
0, 0
0, 0
0, 0
0, 0
0, 0
0, 0
0, 1
0, 0
0, 0
0, 0
0, 0
0, 0
0, 0
0, 0
0, 1
0, 0
0, 0
0, 0
0, 0
0, 0
0, 0
0, 0
1, 0
0, 0
0, 0
0, 0
1, 0
0, 0
0, 0
1, 0
0, 0
0, 0
0, 0
0, 0
0, 0
0, 0
0, 0
0, 0
0, 0
0, 0
0, 0
0, 0
0, 0
0, 0
0, 0
0, 0
0, 0
0, 0
0, 0
1, 0
0, 0
0, 0
0, 0
0, 0
0, 0
0, 0
0, 0
0, 0
0, 0
0, 0
0, 0
0, 0
0, 0
0, 0
0, 0
0, 0
0, 0
0, 0
0, 0
0, 0
0, 0
0, 0
0, 0
0, 0
0, 0
1, 0
0, 0
0, 0
0, 0
0, 0
0, 0
1, 0
0, 0
0, 0
0, 0
0, 0
0, 0
0, 0
0, 0
0, 0
0, 0
0, 0
0, 0
0, 0
0, 0
0, 0
0, 0
0, 0
0, 0
0, 0
0, 0
0, 0
0, 0
0, 0
0, 0
0, 0
0, 0
0, 0
0, 0
0, 0
0, 0
0, 0
0, 0
0, 0
0, 0
0, 0
0, 0
0, 0
0, 0
0, 0
0, 0
0, 0
0, 0
0, 0
0, 0
0, 0
0, 0
0, 0
0, 0
0, 0
0, 0
0, 0
0, 0
0, 0
0, 0
0, 0
0, 0
0, 0
0, 0
0, 0
0, 0
0, 0
0, 0
0, 0
0, 0
0, 0
0, 0
0, 0
0, 0
0, 0
0, 0
0, 0
0, 0
0, 0
0, 0
0, 0
0, 0
0, 0
0, 0
0, 0
0, 0
0, 0
0, 0
0, 0
0, 0
0, 0
0, 0
0, 0
0, 0
0, 0
0, 0
0, 0
0, 0
0, 0
0, 0
0, 0
0, 0
0, 0
0, 0
0, 0
0, 0
0, 0
0, 0
0, 0
0, 0
0, 0
0, 0
0, 0
0, 0
0, 0
0, 0
0, 0
0, 0
0, 0
0, 0
0, 0
0, 0
0, 0
0, 0
0, 0
0, 0
0, 0
0, 0
0, 0
0, 0
0, 0
0, 0
0, 0
0, 0
0, 0
0, 0
0, 0
0, 0
0, 0
0, 0
0, 0
0, 0
0, 0
0, 0
0, 0
0, 0
0, 0
0, 0
0, 0
0, 0
0, 0
0, 0
0, 0
0, 0
0, 0
0, 0
0, 0
0, 0
0, 0
0, 0
0, 0
0, 0
0, 0
0, 0
0, 0
0, 0
0, 0
0, 0
0, 0
0, 0
0, 0
0, 0
0, 0
0, 0
0, 0
0, 0
0, 0
0, 0
0, 0
0, 0
0, 0
0, 0
0, 0
0, 0
0, 0
0, 0
0, 0
0, 0
0, 0
0, 0
0, 0
0, 0
0, 0
0, 0
0, 0
0, 0
0, 0
0, 0
0, 0
0, 0
0, 0
0, 0
0, 0
0, 0
0, 0
0, 0
0, 0
0, 0
0, 0
0, 0
0, 0
0, 0
0, 0
0, 0
0, 0
0, 0
0, 0
0, 0
0, 0
0, 0
0, 0
0, 0
0, 0
0, 0
0, 0
0, 0
0, 0
0, 0
0, 0
0, 0
0, 0
0, 0
0, 0
0, 0
0, 0
0, 0
0, 0
0, 0
0, 0
0, 0
0, 0
0, 0
0, 0
0, 0
0, 0
0, 0
0, 0
0, 0
0, 0
0, 0
0, 0
0, 0
0, 0
0, 0
0, 0
0, 0
0, 0
0, 0
0, 0
0, 0
0, 0
0, 0
0, 0
0, 0
0, 0
0, 0
0, 0
0, 0
0, 0
0, 0
0, 0
0, 0
0, 0
0, 0
0, 0
0, 0
0, 0
0, 0
0, 0
0, 0
0, 0
0, 0
0, 0
0, 0
0, 0
0, 0
0, 0
0, 0
0, 0
0, 0
0, 0
0, 0
0, 0
0, 0
0, 0
0, 0
0, 0
0, 0
0, 0
0, 0
0, 0
0, 0
0, 0
0, 0
0, 0
0, 0
0, 0
0, 0
0, 0
0, 0
0, 0
0, 0
0, 0
0, 0
0, 0
0, 0
0, 0
0, 0
0, 0
0, 0
0, 0
0, 0
0, 0
0, 0
0, 0
0, 0
0, 0
0, 0
0, 0
0, 0
0, 0
0, 0
0, 0
0, 0
0, 0
0, 0
0, 0
0, 0
0, 0
0, 0
0, 0
0, 0
0, 0
0, 0
0, 0
0, 0
0, 0
0, 0
0, 0
0, 0
0, 0
0, 0
0, 0
0, 0
0, 0
0, 0
0, 0
0, 0
0, 0
0, 0
0, 0
0, 0
0, 0
0, 0
0, 0
0, 0
0, 0
0, 0
0, 0
0, 0
0, 0
0, 0
0, 0
0, 0
0, 0
0, 0
0, 0
0, 0
0, 0
0, 0
0, 0
0, 0
0, 0
0, 0
0, 0
#ENDOFDATA     end of spectrum data