File: host_upload/02-11-2024/rqc/uplink1/ps__0567_0717304816_000rfs_shot_426.msa
#FORMAT      : EMSA/MAS spectral data file
#VERSION     : TC202v2.0 PIXL
#TITLE       : Novarupta (sol567) subset1
#DATE        : 02-11-2024      Date in the format DD-MMM-YYYY, for example 07-JUL-2010
#TIME        :             The time of day at which the spectrum was recorded, in 24-hour format
#OWNER       : PIXL Flight Model       (PIXL will use this to indicate which instrument took the data.)
#NPOINTS     : 4096     Number of data points in the spectrum (This can be zero for configuration only files)
#NCOLUMNS    : 2     Number of data columns in the spectrum (This can be zero for configuration only files)
#XUNITS      : eV
#YUNITS      : COUNTS
#DATATYPE    : YY
#XPERCHAN    : 7.862, 7.881   eV per channel (separate by commas if more than one detector)
#OFFSET      : 18.5, -22.4         eV of first channel  (separate by commas if more than one detector
#SIGNALTYPE  : XRF
#YP_TEMP     : 1.851
#LIVETIME    : 8.84827, 8.81199   seconds (separate by commas if more than one detector)
#REALTIME    : 10, 10.0   seconds (separate by commas if more than one detector)
#SPECTRUM    : start of spectrum data
0, 0
0, 0
0, 0
0, 0
0, 0
0, 0
0, 0
0, 0
0, 0
0, 0
0, 0
0, 0
0, 0
0, 0
0, 0
0, 0
0, 0
0, 0
0, 0
0, 0
0, 0
0, 0
0, 0
0, 0
0, 0
0, 0
0, 0
0, 0
0, 0
0, 0
0, 0
0, 1
1, 0
2, 0
1, 0
1, 1
1, 4
0, 4
3, 7
1, 6
3, 5
1, 6
2, 4
3, 4
2, 8
1, 5
3, 3
2, 5
8, 2
6, 5
4, 6
9, 13
10, 14
13, 17
24, 17
17, 14
10, 20
8, 7
9, 8
10, 13
13, 24
29, 26
38, 51
40, 47
37, 47
49, 50
43, 34
31, 50
40, 45
54, 76
108, 116
184, 210
275, 340
400, 451
463, 551
489, 562
404, 503
325, 350
203, 255
150, 150
78, 95
46, 38
31, 39
34, 24
15, 33
28, 34
35, 32
40, 30
20, 28
21, 25
16, 16
12, 14
21, 28
45, 47
73, 100
135, 129
193, 222
269, 286
291, 314
320, 294
271, 314
210, 242
170, 151
88, 127
80, 59
38, 68
40, 53
69, 70
87, 95
83, 139
172, 204
182, 214
199, 241
209, 228
174, 225
177, 199
116, 149
106, 120
76, 93
83, 101
71, 69
72, 69
65, 77
54, 62
49, 49
38, 40
31, 40
22, 22
17, 23
19, 14
12, 18
9, 4
8, 5
9, 4
13, 6
8, 5
14, 9
20, 19
22, 28
26, 19
21, 35
36, 36
27, 40
24, 28
13, 28
10, 21
9, 21
5, 7
8, 7
11, 16
17, 32
48, 52
82, 105
115, 159
183, 263
253, 345
291, 419
314, 406
334, 409
293, 314
235, 234
141, 169
88, 95
66, 47
47, 33
16, 23
34, 23
32, 41
37, 52
33, 48
48, 64
61, 76
43, 60
54, 62
39, 24
26, 30
19, 17
18, 18
12, 11
8, 8
12, 6
7, 11
4, 8
9, 8
8, 14
14, 7
15, 22
34, 23
28, 33
39, 52
56, 67
59, 57
49, 73
59, 62
36, 45
35, 42
26, 38
32, 23
16, 21
16, 23
13, 20
16, 12
11, 16
7, 8
13, 17
10, 15
13, 18
15, 25
16, 18
25, 24
23, 21
19, 22
17, 25
15, 21
10, 14
15, 11
5, 16
7, 7
9, 5
7, 11
8, 13
6, 8
11, 21
8, 14
10, 12
14, 17
13, 20
20, 24
24, 27
33, 37
32, 37
24, 34
28, 27
17, 20
18, 19
20, 22
13, 17
17, 15
12, 22
13, 14
8, 15
11, 12
14, 13
5, 16
13, 19
13, 28
25, 32
31, 33
38, 45
36, 45
50, 54
48, 57
51, 41
47, 52
31, 23
36, 35
20, 15
11, 17
17, 25
16, 19
19, 23
24, 28
33, 48
49, 75
91, 147
184, 308
305, 461
528, 717
774, 1080
1038, 1393
1310, 1734
1609, 1938
1636, 1895
1484, 1739
1383, 1518
1123, 1124
864, 843
546, 537
366, 323
187, 202
117, 100
74, 56
49, 35
29, 31
29, 9
11, 18
14, 19
18, 16
13, 20
22, 29
20, 22
30, 44
42, 56
43, 65
77, 94
88, 134
129, 188
170, 231
242, 259
227, 293
252, 298
239, 231
204, 215
160, 160
133, 120
84, 90
60, 53
40, 29
33, 26
12, 13
10, 5
8, 1
6, 10
12, 10
9, 7
10, 11
10, 15
10, 16
11, 12
14, 17
5, 11
10, 11
6, 15
6, 12
8, 7
1, 8
5, 9
10, 8
8, 5
7, 7
6, 4
5, 6
7, 3
4, 5
5, 9
4, 7
6, 5
5, 11
9, 6
2, 5
7, 3
7, 8
1, 7
2, 5
10, 4
1, 6
12, 8
5, 6
8, 6
10, 3
7, 6
3, 7
10, 6
3, 10
7, 7
6, 5
3, 6
3, 6
5, 9
2, 5
6, 5
10, 11
5, 14
11, 11
6, 10
6, 15
6, 13
11, 10
12, 11
7, 9
9, 7
7, 11
3, 4
8, 9
3, 3
3, 6
5, 6
6, 6
3, 5
1, 13
4, 7
11, 3
4, 9
3, 8
2, 3
4, 5
7, 3
9, 6
4, 8
7, 4
1, 10
7, 6
6, 3
4, 6
4, 4
5, 5
2, 6
3, 5
5, 7
3, 6
9, 8
4, 5
5, 4
2, 5
3, 7
6, 5
4, 5
2, 7
6, 6
6, 7
5, 7
4, 3
3, 6
2, 8
6, 11
5, 4
4, 3
7, 4
6, 2
5, 2
0, 5
10, 3
3, 4
8, 2
3, 5
5, 5
0, 8
1, 1
4, 8
6, 7
4, 7
2, 5
2, 5
3, 4
4, 5
2, 3
7, 1
1, 6
1, 1
1, 2
4, 7
4, 5
4, 2
4, 2
1, 3
6, 6
3, 4
5, 5
0, 5
2, 4
4, 4
3, 3
6, 6
6, 7
3, 8
2, 4
2, 4
2, 3
6, 4
8, 1
0, 4
4, 3
3, 2
4, 3
5, 5
2, 2
3, 0
4, 1
4, 6
1, 2
2, 4
3, 5
3, 4
1, 3
2, 2
2, 2
1, 2
3, 1
3, 2
1, 2
3, 3
2, 2
3, 0
3, 3
1, 2
1, 1
3, 4
2, 5
3, 5
3, 1
3, 4
6, 0
1, 4
2, 5
1, 1
8, 2
4, 5
0, 3
1, 1
1, 7
2, 0
4, 2
3, 9
2, 1
5, 2
4, 4
2, 3
1, 2
2, 5
2, 2
3, 1
3, 3
1, 1
2, 4
5, 3
1, 6
5, 3
3, 2
1, 2
3, 1
3, 4
1, 3
1, 3
5, 3
3, 4
3, 2
1, 2
4, 3
0, 2
0, 1
3, 2
0, 1
5, 0
5, 2
1, 3
0, 2
0, 3
0, 4
0, 4
6, 4
1, 3
2, 3
2, 5
5, 2
1, 2
2, 3
2, 1
5, 0
1, 2
1, 4
0, 4
1, 4
1, 2
0, 2
2, 0
1, 3
1, 2
1, 0
1, 2
0, 6
2, 3
0, 2
4, 3
1, 1
1, 4
1, 4
1, 4
2, 3
2, 1
1, 5
2, 0
0, 2
0, 2
2, 1
1, 2
1, 1
1, 7
0, 0
1, 2
0, 1
1, 1
0, 1
1, 0
1, 0
1, 3
1, 2
0, 0
0, 0
0, 1
0, 2
2, 0
5, 1
1, 3
0, 1
2, 1
1, 1
1, 3
3, 2
2, 0
2, 1
3, 2
0, 3
2, 0
3, 0
4, 1
1, 0
0, 1
1, 2
3, 1
2, 2
2, 2
1, 3
1, 0
2, 0
0, 0
0, 0
2, 2
1, 2
0, 0
0, 1
2, 1
0, 0
0, 2
0, 1
2, 0
0, 0
1, 0
2, 0
0, 2
1, 1
0, 2
1, 2
1, 1
1, 1
1, 0
0, 0
3, 0
0, 1
2, 1
1, 0
1, 1
0, 1
1, 1
0, 0
0, 1
0, 0
0, 0
1, 1
1, 0
1, 0
1, 1
0, 0
0, 4
0, 0
0, 0
1, 0
0, 0
0, 2
0, 2
1, 0
1, 1
0, 0
0, 0
3, 0
0, 0
0, 0
1, 1
0, 0
2, 0
0, 1
0, 1
0, 1
2, 0
1, 0
0, 0
1, 0
0, 1
1, 0
1, 1
1, 0
0, 0
1, 1
0, 0
0, 1
0, 0
1, 0
1, 0
0, 0
0, 0
0, 0
0, 0
0, 0
0, 0
0, 1
0, 0
0, 1
1, 0
0, 0
1, 0
0, 2
0, 3
1, 0
0, 1
0, 1
0, 0
0, 0
0, 0
1, 0
1, 0
0, 0
0, 3
0, 0
0, 1
0, 1
0, 1
0, 0
0, 0
1, 0
0, 0
1, 0
0, 0
0, 0
0, 1
0, 1
1, 0
0, 0
1, 0
0, 1
0, 0
1, 0
0, 0
0, 0
0, 0
0, 0
2, 1
0, 0
0, 0
1, 0
0, 2
0, 2
0, 0
0, 0
1, 0
1, 0
0, 0
1, 0
0, 0
0, 1
0, 0
0, 0
0, 0
0, 0
0, 0
0, 0
0, 2
0, 0
0, 0
0, 0
0, 1
0, 0
0, 1
0, 1
0, 0
0, 1
1, 2
0, 0
0, 0
0, 0
0, 0
0, 0
0, 0
0, 1
0, 0
1, 0
0, 0
1, 1
0, 0
0, 0
1, 0
0, 0
0, 0
1, 0
0, 0
0, 1
0, 2
0, 0
0, 0
0, 0
1, 0
0, 0
0, 0
1, 1
1, 0
0, 1
1, 0
0, 0
0, 1
0, 0
1, 1
0, 0
0, 1
0, 0
0, 0
0, 0
1, 0
0, 0
0, 0
0, 0
1, 0
0, 1
0, 0
0, 1
0, 0
0, 0
0, 0
0, 0
0, 0
0, 1
0, 0
0, 0
0, 0
0, 0
0, 0
0, 0
0, 1
0, 0
0, 0
0, 0
0, 0
0, 0
0, 0
0, 0
0, 0
0, 0
0, 0
0, 0
0, 0
0, 0
0, 0
0, 0
0, 0
0, 0
0, 0
0, 1
0, 0
0, 1
0, 0
0, 0
0, 0
0, 0
0, 0
0, 0
0, 0
0, 0
0, 0
1, 1
0, 0
0, 0
0, 0
1, 0
1, 0
0, 1
0, 0
0, 0
0, 0
0, 0
0, 0
0, 0
0, 0
0, 0
0, 0
0, 0
0, 0
0, 0
0, 0
0, 0
0, 0
0, 0
0, 0
0, 0
0, 0
0, 0
0, 0
0, 0
0, 0
0, 1
0, 0
0, 0
0, 0
0, 0
0, 0
0, 0
0, 0
0, 0
0, 1
0, 0
0, 0
0, 0
0, 0
0, 0
1, 0
0, 0
0, 0
0, 0
0, 0
0, 0
0, 0
0, 0
0, 0
0, 0
0, 0
0, 0
0, 0
0, 0
0, 0
0, 0
0, 0
0, 0
0, 0
0, 0
0, 0
0, 0
0, 0
0, 0
0, 0
0, 0
0, 0
0, 0
1, 0
0, 0
0, 0
0, 0
1, 1
0, 0
0, 0
0, 0
0, 0
0, 0
0, 0
0, 0
0, 0
0, 0
0, 0
0, 0
0, 0
0, 0
0, 0
0, 0
0, 0
0, 0
0, 0
0, 0
0, 0
0, 0
0, 0
0, 0
0, 0
0, 0
0, 0
0, 0
0, 0
0, 0
0, 0
0, 0
0, 0
0, 0
0, 0
0, 0
0, 0
0, 0
0, 0
0, 0
0, 0
0, 0
0, 0
0, 0
0, 0
0, 0
0, 0
0, 0
0, 0
0, 0
0, 0
0, 0
0, 0
0, 0
0, 0
0, 0
0, 0
0, 0
0, 0
0, 0
0, 0
0, 0
0, 0
0, 0
0, 1
0, 0
0, 0
0, 0
0, 0
0, 0
0, 0
0, 0
0, 0
0, 0
0, 0
0, 0
0, 0
0, 0
0, 0
0, 0
0, 0
0, 0
0, 0
0, 0
0, 0
0, 0
0, 0
0, 0
0, 0
0, 0
0, 0
0, 0
0, 0
0, 0
0, 0
0, 0
0, 0
0, 0
1, 0
0, 0
0, 0
0, 0
0, 0
0, 0
0, 0
0, 0
0, 0
0, 0
0, 0
0, 0
0, 0
0, 0
0, 0
0, 0
0, 0
0, 0
0, 0
0, 0
0, 0
0, 0
0, 0
0, 0
0, 0
0, 0
0, 0
0, 0
0, 0
0, 0
0, 0
0, 0
0, 0
0, 0
0, 0
0, 0
0, 0
0, 0
0, 0
0, 0
0, 0
0, 0
0, 0
0, 0
0, 0
0, 0
0, 0
0, 0
0, 0
0, 0
0, 0
0, 0
0, 0
0, 0
0, 0
0, 0
0, 0
0, 0
0, 0
0, 0
0, 0
0, 0
0, 0
0, 0
0, 0
0, 0
0, 0
0, 0
0, 0
0, 0
0, 0
0, 0
0, 0
0, 0
0, 0
0, 0
0, 0
0, 0
0, 0
0, 0
0, 0
0, 0
0, 0
0, 0
0, 0
0, 0
0, 0
0, 0
0, 0
0, 0
0, 0
0, 0
0, 0
0, 0
0, 0
0, 0
0, 0
0, 0
0, 0
0, 0
0, 0
0, 0
0, 0
0, 0
0, 0
0, 0
0, 0
0, 0
0, 0
0, 0
0, 0
0, 0
0, 0
0, 0
0, 0
0, 0
0, 0
0, 0
0, 0
0, 0
0, 0
0, 0
0, 0
0, 0
0, 0
0, 0
0, 0
0, 0
0, 0
0, 0
0, 0
0, 0
0, 0
0, 0
0, 0
0, 0
0, 0
0, 0
0, 0
0, 0
0, 0
0, 0
0, 0
0, 0
0, 0
0, 0
0, 0
0, 0
0, 0
0, 0
0, 0
0, 0
0, 0
0, 0
0, 0
0, 0
0, 0
0, 0
0, 0
0, 0
0, 0
0, 0
0, 0
0, 0
0, 0
0, 0
0, 0
0, 0
0, 0
0, 0
0, 0
0, 0
0, 0
0, 0
0, 0
0, 0
0, 0
0, 0
0, 0
0, 0
0, 0
0, 0
0, 0
0, 0
0, 0
0, 0
0, 0
0, 0
0, 0
0, 0
0, 0
0, 0
0, 0
0, 0
0, 0
0, 0
0, 0
0, 0
0, 0
0, 0
0, 0
0, 0
0, 0
0, 0
0, 0
0, 0
0, 0
0, 0
0, 0
0, 0
0, 0
0, 0
0, 0
0, 0
0, 0
0, 0
0, 0
0, 0
0, 0
0, 0
0, 0
0, 0
0, 0
0, 0
0, 0
0, 0
0, 0
0, 0
0, 0
0, 0
0, 0
0, 0
0, 0
0, 0
0, 0
0, 0
0, 0
0, 0
0, 0
0, 0
0, 0
0, 0
0, 0
0, 0
0, 0
0, 0
0, 0
0, 0
0, 0
0, 0
0, 0
0, 0
0, 0
0, 0
0, 0
0, 0
0, 0
0, 0
0, 0
0, 0
0, 0
0, 0
0, 0
0, 0
0, 0
0, 0
0, 0
0, 0
0, 0
0, 0
0, 0
0, 0
0, 0
0, 0
0, 0
0, 0
0, 0
0, 0
0, 0
0, 0
0, 0
0, 0
0, 0
0, 0
0, 0
0, 0
0, 0
0, 0
0, 0
0, 0
0, 0
0, 0
0, 0
0, 0
0, 0
0, 0
0, 0
0, 0
0, 0
0, 0
0, 0
0, 0
0, 0
0, 0
0, 0
0, 0
0, 0
0, 0
0, 0
0, 0
0, 0
0, 0
0, 0
0, 0
0, 0
0, 0
0, 0
0, 0
0, 0
0, 0
0, 0
0, 0
0, 0
0, 0
0, 0
0, 0
0, 0
0, 0
0, 0
0, 0
0, 0
0, 0
0, 0
0, 0
0, 0
0, 0
#ENDOFDATA     end of spectrum data