File: host_upload/02-11-2024/rqc/uplink1/ps__0567_0717304816_000rfs_shot_268.msa
#FORMAT      : EMSA/MAS spectral data file
#VERSION     : TC202v2.0 PIXL
#TITLE       : Novarupta (sol567) subset1
#DATE        : 02-11-2024      Date in the format DD-MMM-YYYY, for example 07-JUL-2010
#TIME        :             The time of day at which the spectrum was recorded, in 24-hour format
#OWNER       : PIXL Flight Model       (PIXL will use this to indicate which instrument took the data.)
#NPOINTS     : 4096     Number of data points in the spectrum (This can be zero for configuration only files)
#NCOLUMNS    : 2     Number of data columns in the spectrum (This can be zero for configuration only files)
#XUNITS      : eV
#YUNITS      : COUNTS
#DATATYPE    : YY
#XPERCHAN    : 7.862, 7.881   eV per channel (separate by commas if more than one detector)
#OFFSET      : 18.5, -22.4         eV of first channel  (separate by commas if more than one detector
#SIGNALTYPE  : XRF
#YP_TEMP     : 1.113
#LIVETIME    : 8.83878, 8.80836   seconds (separate by commas if more than one detector)
#REALTIME    : 10, 10.0   seconds (separate by commas if more than one detector)
#SPECTRUM    : start of spectrum data
0, 0
0, 0
0, 0
0, 0
0, 0
0, 0
0, 0
0, 0
0, 0
0, 0
0, 0
0, 0
0, 0
0, 0
0, 0
0, 0
0, 0
0, 0
0, 0
0, 0
0, 0
0, 0
0, 0
0, 0
0, 0
0, 0
0, 0
0, 0
0, 0
0, 0
0, 0
0, 0
0, 0
0, 1
0, 2
2, 5
2, 2
4, 5
2, 8
0, 4
3, 4
4, 4
2, 8
5, 7
1, 6
1, 4
1, 1
4, 4
2, 2
2, 2
5, 4
7, 7
14, 15
15, 10
14, 18
12, 14
12, 12
9, 10
6, 9
13, 23
16, 21
25, 35
36, 44
45, 36
53, 62
36, 45
44, 33
29, 37
34, 41
49, 80
89, 112
194, 210
283, 344
360, 491
481, 539
459, 574
430, 495
315, 330
254, 243
128, 153
85, 97
51, 45
27, 38
22, 28
40, 31
31, 40
25, 43
32, 36
35, 22
20, 18
16, 17
18, 15
24, 27
39, 46
87, 96
145, 166
186, 235
287, 322
313, 386
288, 367
287, 299
238, 227
185, 182
99, 108
85, 77
59, 62
40, 54
58, 84
86, 112
127, 127
173, 193
190, 231
230, 225
232, 274
210, 202
168, 162
131, 132
110, 101
117, 86
83, 75
72, 83
71, 74
68, 67
55, 60
54, 41
35, 34
28, 26
23, 27
17, 18
10, 12
5, 16
14, 9
10, 10
5, 3
3, 8
7, 5
9, 12
13, 20
23, 36
20, 31
29, 41
40, 44
28, 25
26, 19
10, 18
15, 20
6, 17
10, 8
10, 11
13, 24
30, 31
46, 54
71, 124
121, 173
205, 242
257, 362
325, 398
386, 407
388, 390
307, 328
242, 251
175, 146
115, 106
70, 51
55, 41
22, 33
25, 34
32, 48
49, 45
59, 57
45, 67
54, 70
53, 63
48, 42
43, 44
23, 26
13, 17
17, 17
10, 9
13, 19
7, 9
5, 8
9, 12
7, 8
7, 13
15, 17
7, 19
15, 34
25, 51
38, 52
56, 55
47, 68
59, 69
58, 62
58, 54
47, 52
30, 40
26, 45
18, 22
11, 16
15, 22
14, 13
12, 20
10, 12
6, 14
16, 19
15, 13
15, 16
19, 22
21, 18
24, 19
20, 23
20, 15
19, 19
15, 21
18, 12
8, 16
7, 12
8, 8
7, 9
10, 10
6, 9
11, 12
12, 9
6, 19
21, 18
26, 28
19, 25
29, 21
28, 37
35, 24
22, 36
24, 35
24, 30
24, 29
22, 15
11, 17
11, 13
9, 14
11, 12
12, 15
7, 6
10, 19
15, 15
14, 11
20, 27
25, 31
34, 41
41, 43
46, 45
46, 51
56, 56
53, 50
34, 32
31, 39
31, 27
19, 27
23, 24
14, 14
18, 27
25, 14
24, 32
29, 46
64, 113
98, 155
208, 281
322, 484
539, 754
841, 1070
1098, 1425
1411, 1633
1576, 1912
1681, 1960
1574, 1752
1481, 1497
1138, 1102
814, 768
594, 486
341, 302
204, 188
128, 87
61, 55
39, 27
16, 25
21, 15
11, 9
15, 16
12, 23
10, 18
21, 24
19, 26
31, 40
35, 54
61, 69
73, 114
122, 148
145, 192
204, 223
225, 252
256, 289
287, 283
248, 280
210, 220
163, 180
132, 119
85, 71
42, 52
36, 25
19, 12
9, 13
8, 20
7, 9
9, 4
6, 7
14, 11
7, 12
8, 15
9, 14
14, 16
8, 14
11, 7
8, 9
14, 10
15, 3
11, 8
6, 4
6, 10
5, 4
8, 8
7, 10
5, 10
6, 5
6, 4
3, 9
4, 5
7, 7
8, 1
7, 3
6, 8
2, 7
4, 4
5, 13
7, 6
5, 8
4, 9
5, 12
7, 8
5, 9
4, 10
5, 10
9, 11
3, 9
11, 3
9, 4
9, 8
5, 5
7, 11
5, 11
6, 8
3, 9
7, 6
5, 5
9, 8
9, 8
9, 12
11, 17
13, 5
12, 16
6, 8
9, 10
2, 12
11, 11
13, 5
5, 4
4, 7
7, 11
1, 8
3, 7
3, 6
3, 3
5, 0
10, 8
6, 3
6, 6
4, 6
7, 0
6, 2
9, 12
8, 4
3, 4
6, 3
5, 5
2, 9
3, 6
4, 2
8, 8
3, 5
3, 5
4, 4
3, 6
9, 7
8, 6
2, 8
9, 4
6, 11
4, 3
2, 7
4, 3
8, 7
11, 6
4, 2
7, 10
3, 4
5, 5
4, 2
3, 5
5, 6
4, 3
2, 2
1, 4
3, 1
6, 5
4, 4
4, 7
3, 7
4, 6
5, 3
2, 8
3, 4
5, 6
4, 6
3, 5
6, 8
5, 1
7, 3
4, 6
4, 2
3, 3
6, 2
2, 6
4, 3
6, 7
2, 1
1, 3
4, 2
4, 8
7, 6
2, 2
2, 1
3, 2
2, 6
3, 2
3, 4
1, 3
2, 4
2, 2
2, 5
3, 1
2, 3
0, 2
4, 3
5, 2
4, 2
6, 10
6, 3
1, 3
2, 2
2, 4
3, 3
3, 5
6, 1
1, 4
2, 2
0, 2
8, 6
0, 3
4, 3
4, 4
4, 1
2, 3
2, 3
4, 1
3, 1
2, 2
4, 3
5, 2
4, 3
4, 0
2, 3
4, 1
0, 3
3, 2
3, 6
3, 4
2, 0
2, 3
4, 3
2, 1
1, 1
4, 4
1, 4
2, 4
1, 1
3, 2
1, 1
2, 4
2, 2
1, 5
5, 3
3, 3
3, 2
0, 0
1, 4
1, 0
1, 1
3, 2
7, 1
0, 0
1, 0
3, 3
1, 1
2, 4
2, 1
1, 4
3, 5
2, 6
1, 5
3, 2
0, 3
3, 1
1, 0
1, 6
1, 1
2, 2
1, 2
2, 3
2, 3
2, 2
2, 1
4, 3
4, 1
6, 4
4, 3
3, 6
1, 4
1, 2
0, 6
0, 3
2, 2
1, 1
2, 2
1, 1
2, 1
1, 1
1, 1
1, 3
5, 2
4, 1
0, 1
0, 3
1, 5
0, 1
1, 0
0, 0
0, 2
2, 3
1, 3
2, 1
1, 2
1, 0
1, 1
1, 2
0, 0
1, 3
1, 2
0, 2
1, 1
0, 0
3, 1
1, 3
0, 1
1, 1
3, 1
2, 3
1, 1
1, 2
1, 0
0, 2
3, 1
2, 2
3, 3
2, 2
1, 0
0, 2
1, 1
3, 1
1, 2
1, 3
1, 0
1, 0
0, 0
0, 3
0, 1
0, 0
1, 0
2, 0
0, 1
2, 0
2, 0
0, 0
1, 1
1, 1
0, 3
3, 2
2, 1
0, 0
0, 1
0, 1
0, 1
1, 3
1, 1
1, 2
0, 1
1, 1
4, 2
0, 0
2, 1
1, 1
1, 1
1, 0
3, 2
1, 1
1, 0
2, 0
0, 1
2, 1
1, 0
0, 0
0, 1
0, 0
1, 3
1, 2
0, 0
0, 0
1, 1
2, 3
2, 0
0, 0
2, 0
2, 1
1, 1
0, 0
1, 0
0, 0
0, 0
0, 0
0, 2
1, 0
2, 1
0, 0
0, 0
0, 0
2, 0
2, 2
2, 1
1, 4
0, 0
1, 1
1, 0
0, 0
0, 1
0, 2
0, 1
1, 0
0, 1
0, 1
1, 0
0, 0
0, 1
0, 0
0, 1
0, 0
0, 0
0, 2
0, 0
0, 1
0, 2
1, 0
3, 2
2, 0
2, 0
0, 4
0, 1
3, 0
0, 0
1, 1
1, 1
0, 0
0, 0
0, 1
0, 3
1, 0
1, 0
1, 1
0, 0
0, 0
1, 0
1, 1
0, 0
0, 0
0, 1
0, 1
1, 0
0, 0
0, 1
1, 0
0, 0
2, 0
0, 0
1, 0
0, 0
0, 2
1, 0
1, 0
0, 1
0, 1
0, 0
0, 0
0, 0
0, 0
0, 0
0, 0
0, 0
1, 0
0, 1
1, 0
1, 1
1, 0
1, 0
0, 1
1, 1
0, 0
0, 0
0, 0
0, 0
1, 0
0, 0
0, 0
0, 1
0, 0
0, 2
0, 0
0, 0
1, 0
0, 0
0, 2
1, 0
0, 0
1, 0
0, 0
0, 1
0, 0
0, 2
0, 2
0, 0
0, 0
0, 1
0, 0
0, 0
0, 0
0, 0
0, 1
1, 0
1, 1
1, 0
1, 1
0, 0
0, 0
1, 0
0, 0
0, 0
0, 0
0, 1
1, 0
0, 1
0, 2
0, 0
0, 1
0, 0
0, 0
0, 0
0, 0
0, 0
0, 0
0, 0
0, 0
1, 0
1, 0
1, 0
0, 1
0, 0
0, 0
0, 0
0, 0
0, 0
1, 1
0, 1
0, 0
0, 0
0, 0
0, 0
0, 0
0, 0
0, 0
0, 0
0, 0
0, 1
0, 0
0, 1
0, 0
0, 0
0, 0
1, 0
0, 0
0, 0
0, 0
0, 0
0, 0
0, 0
0, 0
0, 0
0, 0
0, 0
0, 0
0, 0
0, 0
0, 0
0, 0
1, 0
0, 1
0, 0
0, 0
1, 1
0, 0
0, 0
0, 0
1, 0
0, 0
0, 0
0, 0
0, 0
0, 0
0, 0
0, 0
0, 0
0, 0
0, 0
1, 0
0, 0
0, 0
0, 2
0, 0
0, 0
0, 0
0, 0
0, 0
0, 0
0, 0
0, 0
0, 0
0, 0
0, 0
0, 0
0, 0
1, 0
0, 0
0, 0
0, 0
0, 0
0, 0
0, 0
0, 0
0, 0
0, 0
0, 0
0, 0
0, 0
0, 0
0, 0
0, 0
0, 0
0, 0
0, 0
0, 0
0, 0
0, 0
0, 0
0, 0
0, 0
0, 0
0, 0
0, 0
0, 0
0, 0
0, 0
0, 0
0, 0
0, 0
0, 0
0, 1
0, 0
0, 0
0, 0
0, 0
0, 0
0, 0
0, 0
0, 0
1, 0
0, 0
0, 0
0, 0
1, 0
0, 0
0, 0
0, 0
0, 0
0, 0
0, 0
0, 0
0, 0
0, 0
0, 0
0, 0
0, 0
0, 0
0, 0
0, 0
0, 0
0, 0
0, 0
0, 0
0, 0
0, 0
0, 0
1, 0
0, 0
0, 0
0, 0
0, 0
1, 0
0, 0
0, 1
0, 0
0, 0
0, 0
0, 0
0, 0
0, 0
0, 0
0, 0
0, 0
1, 0
0, 0
0, 0
0, 0
0, 0
0, 0
0, 0
1, 0
0, 0
0, 0
0, 0
1, 0
0, 0
0, 0
0, 0
0, 0
0, 0
0, 0
0, 0
0, 0
0, 0
0, 0
0, 0
0, 0
0, 0
0, 0
0, 0
0, 0
0, 0
0, 0
0, 0
0, 0
0, 0
0, 0
0, 0
0, 0
0, 0
0, 0
0, 0
0, 0
0, 0
0, 0
0, 0
0, 0
0, 0
0, 0
0, 0
0, 0
0, 0
0, 0
0, 0
0, 0
0, 0
0, 0
0, 0
0, 0
0, 0
0, 0
0, 0
0, 0
0, 0
0, 0
0, 0
0, 0
0, 0
0, 0
0, 0
0, 0
0, 0
0, 0
0, 0
0, 0
0, 0
0, 0
0, 0
0, 0
0, 0
0, 0
0, 0
0, 0
0, 0
0, 0
0, 0
0, 0
0, 0
0, 0
0, 0
0, 0
0, 0
0, 0
0, 0
0, 0
0, 0
0, 0
0, 0
0, 0
0, 0
0, 0
0, 0
0, 0
0, 0
0, 0
0, 0
0, 0
0, 0
0, 0
0, 0
0, 0
0, 0
0, 0
0, 0
0, 0
0, 0
0, 0
0, 0
0, 0
0, 0
0, 0
0, 0
0, 0
0, 0
0, 0
0, 0
0, 0
0, 0
0, 0
0, 0
0, 0
0, 0
0, 0
0, 0
0, 0
0, 0
0, 0
0, 0
0, 0
0, 0
0, 0
0, 0
0, 0
0, 0
0, 0
0, 0
0, 0
0, 0
0, 0
0, 0
0, 0
0, 0
0, 0
0, 0
0, 0
0, 0
0, 0
0, 0
0, 0
0, 0
0, 0
0, 0
0, 0
0, 0
0, 0
0, 0
0, 0
0, 0
0, 0
0, 0
0, 0
0, 0
0, 0
0, 0
0, 0
0, 0
0, 0
0, 0
0, 0
0, 0
0, 0
0, 0
0, 0
0, 0
0, 0
0, 0
0, 0
0, 0
0, 0
0, 0
0, 0
0, 0
0, 0
0, 0
0, 0
0, 0
0, 0
0, 0
0, 0
0, 0
0, 0
0, 0
0, 0
0, 0
0, 0
0, 0
0, 0
0, 0
0, 0
0, 0
0, 0
0, 0
0, 0
0, 0
0, 0
0, 0
0, 0
0, 0
0, 0
0, 0
0, 0
0, 0
0, 0
0, 0
0, 0
0, 0
0, 0
0, 0
0, 0
0, 0
0, 0
0, 0
0, 0
0, 0
0, 0
0, 0
0, 0
0, 0
0, 0
0, 0
0, 0
0, 0
0, 0
0, 0
0, 0
0, 0
0, 0
0, 0
0, 0
0, 0
0, 0
0, 0
0, 0
0, 0
0, 0
0, 0
0, 0
0, 0
0, 0
0, 0
0, 0
0, 0
0, 0
0, 0
0, 0
0, 0
0, 0
0, 0
0, 0
0, 0
0, 0
0, 0
0, 0
0, 0
0, 0
0, 0
0, 0
0, 0
0, 0
0, 0
0, 0
0, 0
0, 0
0, 0
0, 0
0, 0
0, 0
0, 0
0, 0
0, 0
0, 0
0, 0
0, 0
0, 0
0, 0
0, 0
0, 0
0, 0
0, 0
0, 0
0, 0
0, 0
0, 0
0, 0
0, 0
0, 0
0, 0
0, 0
0, 0
0, 0
0, 0
0, 0
0, 0
0, 0
0, 0
0, 0
0, 0
0, 0
0, 0
0, 0
0, 0
0, 0
0, 0
0, 0
0, 0
0, 0
0, 0
0, 0
0, 0
0, 0
0, 0
0, 0
0, 0
0, 0
0, 0
0, 0
0, 0
0, 0
0, 0
0, 0
0, 0
0, 0
0, 0
0, 0
0, 0
0, 0
0, 0
0, 0
0, 0
0, 0
0, 0
0, 0
0, 0
0, 0
0, 0
0, 0
0, 0
0, 0
0, 0
0, 0
0, 0
0, 0
0, 0
0, 0
0, 0
0, 0
0, 0
0, 0
0, 0
0, 0
0, 0
0, 0
0, 0
0, 0
0, 0
0, 0
0, 0
0, 0
0, 0
0, 0
0, 0
0, 0
0, 0
0, 0
0, 0
0, 0
0, 0
0, 0
0, 0
0, 0
0, 0
0, 0
0, 0
0, 0
0, 0
0, 0
0, 0
0, 0
0, 0
0, 0
0, 0
0, 0
0, 0
0, 0
0, 0
0, 0
0, 0
#ENDOFDATA     end of spectrum data