File: host_upload/02-11-2024/rqc/uplink1/ps__0567_0717304816_000rfs_shot_163.msa
#FORMAT      : EMSA/MAS spectral data file
#VERSION     : TC202v2.0 PIXL
#TITLE       : Novarupta (sol567) subset1
#DATE        : 02-11-2024      Date in the format DD-MMM-YYYY, for example 07-JUL-2010
#TIME        :             The time of day at which the spectrum was recorded, in 24-hour format
#OWNER       : PIXL Flight Model       (PIXL will use this to indicate which instrument took the data.)
#NPOINTS     : 4096     Number of data points in the spectrum (This can be zero for configuration only files)
#NCOLUMNS    : 2     Number of data columns in the spectrum (This can be zero for configuration only files)
#XUNITS      : eV
#YUNITS      : COUNTS
#DATATYPE    : YY
#XPERCHAN    : 7.862, 7.881   eV per channel (separate by commas if more than one detector)
#OFFSET      : 18.5, -22.4         eV of first channel  (separate by commas if more than one detector
#SIGNALTYPE  : XRF
#YP_TEMP     : 0.215
#LIVETIME    : 8.82748, 8.82896   seconds (separate by commas if more than one detector)
#REALTIME    : 10, 10.0   seconds (separate by commas if more than one detector)
#SPECTRUM    : start of spectrum data
0, 0
0, 0
0, 0
0, 0
0, 0
0, 0
0, 0
0, 0
0, 0
0, 0
0, 0
0, 0
0, 0
0, 0
0, 0
0, 0
0, 0
0, 0
0, 0
0, 0
0, 0
0, 0
0, 0
0, 0
0, 0
0, 0
0, 0
0, 0
0, 0
0, 0
1, 0
0, 0
0, 0
0, 0
0, 1
1, 1
1, 3
2, 5
5, 2
1, 5
4, 5
4, 11
1, 9
1, 3
6, 5
2, 0
2, 4
5, 2
2, 5
4, 6
5, 4
13, 6
11, 12
9, 11
11, 12
14, 18
20, 9
10, 6
14, 7
19, 18
19, 17
35, 31
36, 34
57, 61
50, 49
54, 52
44, 43
36, 34
33, 50
62, 66
115, 107
218, 212
298, 358
415, 452
494, 535
513, 502
439, 434
345, 373
233, 265
142, 146
104, 91
56, 47
34, 37
27, 25
43, 44
39, 37
30, 23
32, 24
27, 16
15, 18
22, 15
20, 15
24, 23
45, 51
77, 93
142, 129
186, 206
231, 262
307, 328
291, 296
231, 248
191, 209
127, 133
107, 94
58, 78
52, 43
65, 59
65, 66
82, 99
137, 137
196, 172
212, 226
242, 265
265, 240
193, 218
162, 186
134, 134
103, 128
91, 100
79, 70
68, 63
65, 75
54, 66
57, 56
53, 38
41, 46
30, 27
27, 19
19, 17
10, 16
10, 14
11, 4
7, 12
7, 9
8, 6
7, 13
12, 11
15, 18
17, 17
22, 27
31, 34
32, 33
23, 28
26, 20
17, 15
14, 9
11, 14
10, 11
14, 16
12, 19
32, 32
44, 58
88, 117
147, 178
195, 252
288, 327
354, 380
373, 386
360, 353
285, 317
231, 211
166, 154
102, 93
61, 80
38, 34
22, 27
26, 27
30, 27
41, 49
48, 68
55, 58
53, 75
49, 51
44, 51
32, 31
25, 33
16, 17
18, 15
12, 8
12, 4
13, 5
8, 9
7, 10
6, 11
7, 7
10, 10
18, 26
28, 24
27, 31
34, 40
56, 58
50, 64
72, 73
85, 53
40, 67
55, 38
28, 27
19, 33
20, 21
16, 18
18, 25
15, 16
14, 19
13, 14
18, 15
17, 13
21, 15
21, 12
13, 23
23, 20
13, 20
21, 20
25, 17
22, 25
10, 13
8, 12
13, 17
12, 8
6, 11
9, 9
15, 9
12, 12
8, 14
11, 8
8, 14
20, 27
21, 26
22, 28
34, 34
29, 38
46, 32
32, 33
21, 29
29, 23
23, 23
16, 12
12, 15
12, 13
19, 13
15, 12
14, 10
10, 7
6, 10
12, 11
21, 14
16, 25
18, 17
29, 42
47, 55
47, 38
40, 58
72, 52
42, 45
36, 54
44, 41
39, 28
28, 22
20, 28
17, 23
18, 14
17, 26
34, 30
39, 40
78, 92
134, 170
242, 290
366, 480
663, 771
949, 1027
1243, 1468
1476, 1670
1734, 1785
1782, 1927
1697, 1717
1494, 1447
1125, 1059
844, 768
599, 508
398, 258
225, 155
119, 104
74, 38
48, 30
21, 22
22, 15
18, 10
11, 10
20, 12
18, 14
17, 31
20, 34
34, 38
39, 43
58, 81
88, 118
128, 142
181, 194
223, 204
276, 245
264, 278
275, 322
292, 222
208, 202
159, 173
132, 108
78, 86
61, 46
42, 26
18, 16
9, 13
12, 9
10, 11
11, 13
12, 10
10, 6
17, 12
15, 10
9, 12
9, 16
11, 15
7, 8
9, 9
16, 12
7, 6
13, 10
1, 4
5, 9
7, 4
7, 5
7, 10
6, 2
4, 6
6, 4
7, 5
9, 8
2, 13
8, 3
8, 7
11, 6
9, 8
6, 6
6, 5
8, 4
11, 7
7, 9
6, 5
9, 14
10, 7
5, 12
11, 4
11, 8
5, 5
5, 4
8, 8
8, 11
4, 4
2, 7
5, 7
6, 6
6, 3
5, 13
6, 6
9, 10
7, 6
5, 3
11, 15
9, 12
10, 16
8, 8
15, 6
7, 10
6, 10
6, 8
7, 4
5, 6
5, 1
6, 8
10, 10
9, 5
5, 5
6, 4
5, 10
5, 5
14, 9
6, 12
4, 5
6, 4
3, 7
6, 5
9, 6
5, 3
6, 5
7, 6
9, 5
9, 3
4, 5
6, 5
2, 7
6, 7
1, 4
8, 6
4, 9
5, 4
4, 4
8, 4
7, 7
7, 5
3, 11
3, 4
3, 5
3, 5
5, 8
5, 3
4, 5
7, 4
10, 6
3, 2
6, 1
7, 3
5, 7
3, 5
7, 4
2, 3
8, 3
3, 5
8, 3
5, 5
7, 3
1, 6
5, 4
5, 1
4, 5
2, 3
2, 4
3, 3
5, 4
5, 1
1, 4
3, 0
3, 6
2, 1
1, 0
4, 3
6, 5
5, 5
5, 2
6, 6
2, 3
8, 9
1, 1
3, 5
4, 2
3, 2
2, 5
7, 3
0, 2
2, 7
4, 7
3, 3
1, 3
4, 2
4, 4
2, 4
4, 4
4, 4
4, 6
4, 4
7, 4
3, 4
3, 3
3, 4
6, 3
3, 4
4, 1
1, 6
4, 4
5, 5
2, 1
3, 1
2, 6
2, 3
1, 4
3, 3
3, 3
2, 3
3, 3
1, 1
5, 1
3, 1
0, 1
1, 0
6, 1
3, 5
2, 3
3, 1
2, 3
5, 2
4, 3
2, 1
0, 4
1, 2
2, 1
1, 2
2, 1
1, 3
3, 1
2, 3
3, 4
2, 4
1, 7
1, 2
3, 2
3, 3
2, 2
3, 2
1, 1
3, 3
1, 3
1, 2
1, 3
1, 3
3, 1
2, 2
1, 1
0, 1
2, 4
3, 2
3, 2
2, 0
2, 1
2, 3
1, 4
5, 4
2, 3
1, 4
2, 4
3, 4
1, 0
4, 3
1, 3
3, 4
4, 4
5, 0
4, 4
2, 1
3, 6
2, 4
1, 3
4, 1
2, 1
2, 3
0, 0
3, 1
1, 3
1, 1
0, 1
0, 2
2, 3
2, 0
2, 1
1, 1
2, 2
0, 2
3, 1
0, 0
1, 0
1, 1
3, 5
3, 1
2, 1
2, 3
0, 2
1, 1
1, 0
1, 2
3, 3
3, 3
0, 1
2, 2
0, 2
2, 0
1, 1
0, 0
2, 6
2, 0
1, 0
2, 2
1, 0
0, 0
2, 0
0, 1
1, 3
0, 3
0, 0
0, 0
2, 2
2, 1
0, 1
0, 0
0, 1
0, 0
3, 0
0, 1
0, 2
2, 0
1, 2
1, 1
0, 1
1, 0
2, 1
0, 1
1, 1
0, 3
1, 0
2, 0
0, 2
2, 1
0, 0
0, 1
0, 1
0, 1
1, 1
3, 0
0, 0
0, 0
0, 0
2, 1
3, 2
0, 0
1, 3
1, 1
0, 0
0, 1
2, 2
0, 2
2, 1
1, 3
1, 0
0, 1
0, 0
1, 1
0, 0
1, 0
0, 1
0, 2
3, 0
0, 1
1, 1
1, 0
2, 2
0, 1
1, 2
0, 0
0, 2
0, 0
1, 0
2, 1
0, 1
2, 0
0, 0
0, 1
1, 0
0, 1
1, 0
0, 0
0, 0
1, 0
1, 1
1, 0
0, 0
1, 1
1, 0
0, 0
1, 0
0, 0
0, 2
0, 0
1, 1
0, 0
1, 1
1, 1
0, 0
1, 0
2, 0
0, 0
1, 2
0, 1
0, 0
0, 1
0, 0
0, 0
1, 0
1, 0
0, 0
0, 0
0, 2
1, 0
0, 1
0, 0
0, 0
0, 1
1, 0
0, 0
0, 0
1, 2
0, 0
0, 0
0, 0
1, 1
1, 0
0, 0
0, 0
0, 0
1, 2
0, 1
0, 0
1, 2
0, 0
0, 1
0, 0
0, 0
0, 0
0, 0
1, 0
1, 0
0, 0
0, 1
0, 1
1, 1
0, 1
1, 0
1, 0
0, 0
0, 0
0, 0
0, 1
0, 0
0, 0
0, 0
0, 0
0, 0
0, 0
0, 0
0, 0
0, 1
1, 0
0, 0
1, 0
0, 0
1, 0
0, 0
0, 0
0, 0
0, 0
0, 0
0, 1
0, 0
0, 0
1, 0
0, 0
0, 0
0, 0
0, 0
0, 1
0, 0
0, 0
0, 0
1, 0
0, 0
0, 0
0, 0
0, 1
0, 0
0, 0
0, 0
0, 1
0, 1
0, 1
1, 0
0, 0
0, 0
0, 0
0, 0
0, 0
0, 0
0, 1
1, 0
0, 1
0, 0
0, 0
0, 1
0, 0
0, 0
0, 1
0, 0
0, 0
1, 1
0, 0
0, 0
0, 0
1, 0
0, 0
0, 0
0, 0
0, 0
0, 0
0, 0
1, 0
0, 0
0, 0
0, 1
0, 0
0, 0
0, 0
0, 0
0, 1
0, 0
0, 0
0, 0
0, 0
0, 2
0, 0
0, 0
1, 0
0, 1
0, 1
0, 0
0, 0
0, 0
0, 0
0, 1
0, 0
0, 0
0, 0
0, 0
0, 0
0, 0
0, 0
0, 0
0, 0
0, 0
0, 0
0, 1
0, 1
0, 0
0, 0
0, 1
0, 0
0, 0
0, 0
0, 0
0, 0
0, 0
0, 0
0, 1
0, 0
0, 0
0, 0
0, 0
0, 0
0, 0
0, 0
0, 0
0, 0
0, 0
2, 0
0, 0
0, 0
0, 0
0, 0
0, 0
0, 0
0, 0
0, 0
0, 0
0, 0
0, 0
0, 0
0, 1
1, 0
0, 0
0, 0
0, 0
1, 0
0, 0
0, 0
0, 0
0, 0
0, 1
0, 0
0, 0
0, 0
0, 0
0, 0
1, 0
0, 1
0, 0
0, 0
0, 0
0, 0
0, 0
0, 0
0, 0
0, 0
0, 0
1, 0
0, 0
0, 0
0, 0
0, 0
0, 0
1, 0
0, 0
0, 0
0, 1
0, 0
0, 0
0, 0
0, 1
0, 0
0, 0
0, 0
0, 0
0, 0
0, 0
0, 0
0, 0
0, 0
0, 0
0, 0
0, 0
0, 0
0, 0
0, 0
0, 0
0, 0
0, 0
0, 0
0, 0
0, 0
0, 0
0, 0
0, 0
0, 0
0, 0
0, 0
0, 0
0, 0
0, 0
0, 0
0, 0
0, 0
0, 0
0, 0
0, 0
0, 0
0, 0
0, 0
0, 0
0, 0
0, 0
0, 0
0, 0
0, 0
0, 0
0, 0
0, 0
0, 0
0, 0
0, 0
0, 0
0, 0
1, 0
0, 0
0, 0
0, 0
0, 0
0, 0
0, 0
1, 0
0, 0
0, 0
0, 0
0, 0
0, 0
0, 0
0, 0
0, 0
0, 0
0, 0
0, 0
0, 0
0, 0
0, 0
0, 0
0, 0
0, 0
0, 0
0, 0
0, 1
0, 0
0, 0
0, 0
0, 0
0, 0
0, 0
0, 0
0, 0
0, 0
0, 0
0, 0
0, 0
0, 0
0, 0
0, 0
0, 0
0, 0
0, 0
0, 0
0, 0
0, 0
0, 0
0, 0
0, 0
0, 0
0, 0
0, 0
0, 0
0, 0
0, 0
0, 0
0, 0
0, 0
0, 0
0, 0
0, 0
0, 0
0, 0
0, 0
0, 0
0, 0
0, 0
0, 0
0, 0
0, 0
0, 0
0, 0
0, 0
0, 0
0, 0
0, 0
0, 0
0, 0
0, 0
0, 0
0, 0
0, 0
0, 0
0, 0
0, 0
0, 0
0, 0
0, 0
0, 0
0, 0
0, 0
0, 0
0, 0
0, 0
0, 0
0, 0
0, 0
0, 0
0, 0
0, 0
0, 0
0, 0
0, 0
0, 0
0, 0
0, 0
0, 0
0, 0
0, 0
0, 0
0, 0
0, 0
0, 0
0, 0
0, 0
0, 0
0, 0
0, 0
0, 0
0, 0
0, 0
0, 0
0, 0
0, 0
0, 0
0, 0
0, 0
0, 0
0, 0
0, 0
0, 0
0, 0
0, 0
0, 0
0, 0
0, 0
0, 0
0, 0
0, 0
0, 0
0, 0
0, 0
0, 0
0, 0
0, 0
0, 0
0, 0
0, 0
0, 0
0, 0
0, 0
0, 0
0, 0
0, 0
0, 0
0, 0
0, 0
0, 0
0, 0
0, 0
0, 0
0, 0
0, 0
0, 0
0, 0
0, 0
0, 0
0, 0
0, 0
0, 0
0, 0
0, 0
0, 0
0, 0
0, 0
0, 0
0, 0
0, 0
0, 0
0, 0
0, 0
0, 0
0, 0
0, 0
0, 0
0, 0
0, 0
0, 0
0, 0
0, 0
0, 0
0, 0
0, 0
0, 0
0, 0
0, 0
0, 0
0, 0
0, 0
0, 0
0, 0
0, 0
0, 0
0, 0
0, 0
0, 0
0, 0
0, 0
0, 0
0, 0
0, 0
0, 0
0, 0
0, 0
0, 0
0, 0
0, 0
0, 0
0, 0
0, 0
0, 0
0, 0
0, 0
0, 0
0, 0
0, 0
0, 0
0, 0
0, 0
0, 0
0, 0
0, 0
0, 0
0, 0
0, 0
0, 0
0, 0
0, 0
0, 0
0, 0
0, 0
0, 0
0, 0
0, 0
0, 0
0, 0
0, 0
0, 0
0, 0
0, 0
0, 0
0, 0
0, 0
0, 0
0, 0
0, 0
0, 0
0, 0
0, 0
0, 0
0, 0
0, 0
0, 0
0, 0
0, 0
0, 0
0, 0
0, 0
0, 0
0, 0
0, 0
0, 0
0, 0
0, 0
0, 0
0, 0
0, 0
0, 0
0, 0
0, 0
0, 0
0, 0
0, 0
0, 0
0, 0
0, 0
0, 0
0, 0
0, 0
0, 0
0, 0
0, 0
0, 0
0, 0
0, 0
0, 0
0, 0
0, 0
0, 0
0, 0
0, 0
0, 0
0, 0
0, 0
0, 0
0, 0
0, 0
0, 0
0, 0
0, 0
0, 0
0, 0
0, 0
0, 0
0, 0
0, 0
0, 0
0, 0
0, 0
0, 0
0, 0
0, 0
0, 0
0, 0
0, 0
0, 0
0, 0
0, 0
0, 0
0, 0
0, 0
0, 0
0, 0
0, 0
0, 0
0, 0
0, 0
0, 0
0, 0
0, 0
0, 0
0, 0
0, 0
0, 0
0, 0
0, 0
0, 0
0, 0
0, 0
0, 0
0, 0
0, 0
0, 0
0, 0
0, 0
0, 0
0, 0
0, 0
0, 0
0, 0
0, 0
0, 0
0, 0
0, 0
0, 0
0, 0
0, 0
0, 0
0, 0
0, 0
0, 0
0, 0
0, 0
0, 0
0, 0
0, 0
0, 0
0, 0
0, 0
0, 0
0, 0
0, 0
0, 0
0, 0
0, 0
0, 0
0, 0
0, 0
0, 0
0, 0
0, 0
#ENDOFDATA     end of spectrum data