File: host_upload/02-11-2024/rqc/uplink1/ps__0567_0717304816_000rfs_shot_283.msa
#FORMAT      : EMSA/MAS spectral data file
#VERSION     : TC202v2.0 PIXL
#TITLE       : Novarupta (sol567) subset1
#DATE        : 02-11-2024      Date in the format DD-MMM-YYYY, for example 07-JUL-2010
#TIME        :             The time of day at which the spectrum was recorded, in 24-hour format
#OWNER       : PIXL Flight Model       (PIXL will use this to indicate which instrument took the data.)
#NPOINTS     : 4096     Number of data points in the spectrum (This can be zero for configuration only files)
#NCOLUMNS    : 2     Number of data columns in the spectrum (This can be zero for configuration only files)
#XUNITS      : eV
#YUNITS      : COUNTS
#DATATYPE    : YY
#XPERCHAN    : 7.862, 7.881   eV per channel (separate by commas if more than one detector)
#OFFSET      : 18.5, -22.4         eV of first channel  (separate by commas if more than one detector
#SIGNALTYPE  : XRF
#YP_TEMP     : 1.273
#LIVETIME    : 8.82332, 8.80567   seconds (separate by commas if more than one detector)
#REALTIME    : 10, 10.0   seconds (separate by commas if more than one detector)
#SPECTRUM    : start of spectrum data
0, 0
0, 0
0, 0
0, 0
0, 0
0, 0
0, 0
0, 0
0, 0
0, 0
0, 0
0, 0
0, 0
0, 0
0, 0
0, 0
0, 0
0, 0
0, 0
0, 0
0, 0
0, 0
0, 0
0, 0
0, 0
0, 0
0, 0
0, 0
0, 1
1, 0
0, 0
0, 0
0, 0
0, 1
0, 1
2, 3
5, 2
2, 3
3, 2
2, 2
3, 3
2, 2
4, 7
3, 4
5, 4
3, 2
4, 1
3, 0
2, 10
7, 3
4, 9
8, 10
15, 12
13, 20
15, 15
10, 18
16, 13
17, 13
7, 15
8, 13
16, 23
27, 31
40, 48
48, 61
68, 52
51, 57
38, 52
41, 41
37, 45
72, 77
106, 126
192, 223
282, 332
417, 539
531, 545
503, 589
428, 464
338, 348
255, 252
158, 145
77, 97
51, 43
45, 38
28, 28
24, 30
35, 26
34, 29
28, 42
20, 23
22, 22
15, 16
23, 17
20, 28
44, 40
82, 92
122, 148
209, 205
248, 287
246, 287
307, 308
261, 271
189, 220
152, 145
118, 95
65, 63
55, 48
57, 50
67, 66
89, 112
159, 166
179, 209
268, 271
264, 251
252, 285
197, 249
184, 187
140, 140
117, 122
98, 108
82, 84
69, 61
82, 83
60, 69
68, 55
52, 42
32, 31
33, 28
21, 30
22, 21
10, 16
14, 10
5, 11
4, 3
2, 7
10, 9
8, 10
9, 9
17, 20
17, 24
16, 26
25, 29
31, 32
31, 21
20, 22
12, 19
19, 10
15, 17
13, 12
10, 12
19, 21
17, 34
47, 59
82, 107
142, 196
200, 255
251, 346
335, 405
389, 423
362, 400
345, 350
248, 262
166, 185
114, 106
70, 69
34, 41
29, 25
35, 32
30, 33
45, 50
62, 49
55, 63
60, 66
57, 62
51, 62
46, 31
21, 22
18, 15
15, 11
13, 5
10, 15
8, 5
12, 9
13, 7
7, 10
13, 11
10, 11
28, 19
24, 29
31, 42
45, 56
51, 62
62, 64
54, 69
51, 52
47, 55
47, 41
20, 39
29, 30
31, 22
12, 17
20, 13
14, 15
19, 18
13, 18
15, 14
14, 12
17, 13
16, 17
17, 19
18, 22
20, 17
18, 18
16, 12
13, 23
11, 17
13, 16
6, 16
10, 12
8, 13
15, 9
13, 11
8, 12
12, 8
14, 12
17, 17
15, 15
17, 11
22, 27
17, 29
26, 29
19, 31
27, 38
30, 26
22, 20
17, 16
20, 15
14, 14
14, 9
19, 17
11, 10
5, 14
18, 17
10, 9
16, 17
17, 16
29, 22
23, 22
28, 32
42, 45
38, 54
49, 46
45, 44
42, 47
45, 41
49, 32
23, 36
23, 27
12, 27
12, 26
18, 20
21, 27
34, 30
33, 30
62, 97
117, 155
233, 276
342, 509
548, 713
826, 1091
1136, 1400
1458, 1723
1655, 1836
1599, 1899
1670, 1705
1426, 1439
1125, 1111
862, 833
581, 500
380, 294
225, 194
110, 117
68, 69
36, 26
18, 28
17, 15
21, 17
16, 18
25, 16
14, 17
28, 17
18, 26
26, 34
40, 53
68, 91
81, 89
106, 154
151, 198
196, 231
243, 255
259, 303
270, 306
258, 251
207, 215
193, 177
136, 144
97, 73
66, 58
30, 42
22, 19
20, 8
13, 7
8, 11
6, 11
10, 13
13, 10
14, 12
12, 12
16, 20
8, 16
21, 12
10, 9
7, 6
5, 9
6, 10
14, 8
6, 10
5, 7
9, 6
4, 6
6, 7
8, 10
8, 12
5, 5
7, 10
6, 7
3, 1
7, 4
4, 6
3, 7
6, 9
6, 11
1, 9
6, 7
8, 7
5, 5
4, 12
4, 3
9, 5
10, 6
6, 7
11, 11
3, 9
7, 14
10, 7
5, 6
12, 9
6, 6
5, 6
7, 9
5, 4
10, 5
5, 9
4, 8
9, 8
8, 9
6, 9
9, 14
16, 8
7, 11
5, 10
11, 11
9, 10
1, 6
7, 9
5, 8
4, 10
3, 10
8, 6
6, 6
0, 7
5, 8
5, 6
5, 5
5, 4
8, 4
4, 4
3, 4
4, 3
3, 4
6, 6
3, 5
2, 7
6, 4
7, 4
3, 4
6, 10
3, 9
6, 8
6, 6
9, 7
6, 4
7, 4
3, 9
4, 4
9, 10
7, 4
6, 6
7, 7
2, 9
10, 3
4, 5
8, 2
3, 10
3, 2
9, 6
6, 6
7, 10
5, 3
3, 2
5, 6
1, 4
3, 3
5, 9
6, 7
6, 3
5, 5
4, 3
3, 9
1, 4
3, 3
3, 6
6, 5
6, 8
2, 2
5, 6
4, 6
2, 1
7, 5
4, 5
2, 7
4, 5
5, 3
2, 2
2, 3
6, 1
2, 4
6, 6
0, 3
4, 5
6, 7
5, 4
2, 3
2, 1
9, 2
4, 4
3, 1
2, 5
3, 3
2, 1
1, 4
3, 3
3, 3
4, 5
0, 12
2, 4
3, 1
2, 4
4, 6
3, 5
3, 2
6, 2
4, 2
1, 4
3, 3
6, 3
2, 3
3, 4
4, 5
1, 2
1, 4
2, 2
2, 3
1, 3
1, 3
1, 3
4, 1
1, 5
2, 3
4, 4
2, 4
1, 4
0, 2
2, 2
1, 4
6, 2
2, 1
3, 1
2, 1
3, 4
0, 7
4, 2
3, 4
2, 2
3, 3
2, 4
3, 4
3, 4
2, 0
2, 5
1, 1
2, 1
3, 1
2, 4
2, 2
0, 2
2, 0
3, 2
3, 3
1, 1
1, 2
0, 2
3, 2
1, 2
2, 2
1, 0
1, 1
2, 3
3, 3
3, 1
3, 0
0, 0
2, 0
2, 2
2, 0
2, 6
4, 2
1, 5
0, 3
6, 1
2, 4
3, 3
3, 5
3, 1
6, 1
3, 4
4, 4
3, 3
1, 0
1, 3
3, 5
2, 2
0, 2
1, 1
2, 1
1, 1
3, 1
2, 1
1, 5
2, 0
0, 0
2, 1
1, 3
1, 2
3, 1
0, 2
2, 2
0, 1
3, 1
1, 2
2, 3
3, 3
1, 2
2, 2
3, 1
2, 1
0, 1
1, 2
0, 1
3, 2
1, 3
1, 3
1, 2
0, 3
1, 2
2, 1
3, 0
0, 1
1, 3
1, 1
0, 0
0, 1
3, 0
3, 2
2, 0
0, 2
1, 2
1, 2
2, 2
4, 1
1, 2
0, 2
2, 1
3, 4
1, 1
0, 0
0, 0
2, 0
0, 2
1, 0
0, 3
2, 1
1, 0
3, 1
0, 2
0, 1
0, 1
1, 1
1, 1
2, 0
0, 0
1, 2
0, 0
1, 2
0, 0
2, 2
0, 0
1, 2
1, 0
0, 1
1, 0
1, 1
0, 1
1, 1
0, 0
2, 0
1, 1
0, 0
2, 2
2, 0
0, 0
0, 1
1, 1
0, 0
2, 1
0, 0
0, 0
0, 0
1, 1
0, 0
0, 1
1, 1
0, 1
0, 0
0, 1
3, 1
0, 0
0, 1
1, 0
0, 1
0, 1
0, 1
0, 2
0, 1
0, 1
0, 1
0, 0
0, 1
1, 2
0, 0
1, 0
1, 1
0, 1
0, 0
0, 0
0, 1
1, 0
1, 0
0, 0
1, 1
1, 2
0, 0
0, 1
0, 3
0, 0
0, 0
1, 0
0, 0
2, 0
1, 1
0, 1
0, 2
0, 0
1, 1
1, 0
0, 0
0, 2
0, 1
1, 0
0, 0
0, 0
0, 0
1, 1
0, 0
0, 0
1, 0
0, 1
1, 0
0, 0
0, 1
1, 0
0, 0
0, 1
0, 0
0, 0
0, 0
0, 0
0, 0
0, 0
0, 1
0, 0
0, 1
0, 2
0, 0
0, 0
0, 0
0, 0
0, 0
2, 0
0, 0
0, 0
0, 1
0, 1
0, 0
0, 0
0, 0
0, 0
0, 0
0, 0
0, 1
0, 0
0, 0
0, 0
0, 1
0, 0
0, 1
0, 1
0, 1
0, 0
0, 0
2, 0
0, 0
1, 0
0, 0
0, 0
0, 0
0, 0
0, 0
0, 0
0, 0
0, 0
0, 0
0, 0
0, 1
1, 0
0, 0
1, 0
1, 0
0, 0
1, 0
0, 0
0, 1
0, 1
0, 1
0, 1
0, 0
0, 0
0, 0
0, 0
0, 0
0, 2
0, 0
1, 0
0, 1
1, 0
0, 1
0, 0
0, 0
0, 0
0, 0
0, 0
0, 1
0, 0
0, 0
0, 0
1, 0
0, 2
0, 0
0, 0
0, 0
0, 2
0, 0
0, 0
0, 0
0, 0
0, 0
0, 0
0, 0
0, 0
0, 0
0, 0
0, 0
0, 0
0, 0
1, 0
0, 0
0, 0
0, 0
0, 0
0, 0
0, 1
0, 0
0, 1
0, 0
0, 0
0, 0
1, 0
0, 0
0, 0
0, 1
0, 0
0, 0
0, 0
0, 1
0, 0
0, 0
0, 0
0, 0
0, 0
0, 0
0, 0
0, 0
0, 0
0, 0
0, 0
0, 0
0, 0
0, 0
1, 0
0, 0
0, 0
0, 0
1, 0
0, 0
0, 0
1, 0
0, 0
1, 0
0, 1
0, 0
0, 0
0, 0
0, 0
0, 0
0, 0
1, 0
0, 1
0, 0
0, 0
0, 0
0, 0
0, 0
0, 0
0, 0
0, 0
0, 0
0, 0
0, 0
0, 0
0, 0
0, 0
0, 0
0, 0
0, 1
0, 0
0, 0
0, 0
0, 0
0, 0
0, 0
0, 0
0, 0
0, 0
0, 0
0, 0
0, 0
0, 0
0, 0
0, 0
0, 0
0, 1
0, 0
0, 1
0, 0
0, 0
0, 0
0, 0
0, 0
0, 0
0, 0
0, 0
0, 0
0, 0
0, 0
0, 0
0, 0
0, 0
0, 0
0, 0
0, 0
0, 0
0, 0
0, 0
0, 0
0, 0
0, 0
0, 0
0, 0
0, 0
0, 0
0, 0
0, 0
0, 0
0, 0
0, 0
0, 0
0, 0
0, 0
0, 0
0, 0
0, 0
0, 0
0, 0
0, 0
0, 0
0, 0
0, 0
0, 0
0, 0
0, 0
0, 0
0, 0
0, 0
0, 0
0, 0
0, 0
0, 0
0, 0
0, 0
0, 0
0, 0
0, 0
0, 0
0, 0
0, 0
0, 0
0, 0
0, 0
0, 0
0, 0
0, 0
0, 1
0, 0
0, 0
0, 0
0, 0
0, 0
0, 0
0, 0
0, 0
0, 0
0, 0
0, 0
0, 0
0, 0
0, 0
0, 0
0, 0
0, 0
0, 0
0, 0
0, 0
0, 0
0, 0
0, 0
0, 0
0, 0
0, 0
0, 0
0, 0
0, 0
0, 0
0, 0
0, 0
0, 0
0, 0
0, 0
0, 0
0, 0
0, 0
0, 0
0, 0
0, 0
0, 0
0, 0
0, 0
0, 0
0, 0
0, 0
0, 0
0, 0
0, 0
0, 0
0, 0
0, 0
0, 0
0, 0
0, 0
0, 0
0, 0
0, 0
0, 0
0, 0
0, 0
0, 0
0, 0
0, 0
0, 0
0, 0
0, 0
0, 0
0, 0
0, 0
0, 0
0, 0
0, 0
0, 0
0, 0
0, 0
0, 0
0, 0
0, 0
0, 0
0, 0
0, 0
0, 0
0, 0
0, 0
0, 0
0, 0
0, 0
0, 0
0, 0
0, 0
0, 0
0, 0
0, 0
0, 0
0, 0
0, 0
0, 0
0, 0
0, 0
0, 0
0, 0
0, 0
0, 0
0, 0
0, 0
0, 0
0, 0
0, 0
0, 0
0, 0
0, 0
0, 0
0, 0
0, 0
0, 0
0, 0
0, 0
0, 0
0, 0
0, 0
0, 0
0, 0
0, 0
0, 0
0, 0
0, 0
0, 0
0, 0
0, 0
0, 0
0, 0
0, 0
0, 0
0, 0
0, 0
0, 0
0, 0
0, 0
0, 0
0, 0
0, 0
0, 0
0, 0
0, 0
0, 0
0, 0
0, 0
0, 0
0, 0
0, 0
0, 0
0, 0
0, 0
0, 0
0, 0
0, 0
0, 0
0, 0
0, 0
0, 0
0, 0
0, 0
0, 0
0, 0
0, 0
0, 0
0, 0
0, 0
0, 0
0, 0
0, 0
0, 0
0, 0
0, 0
0, 0
0, 0
0, 0
0, 0
0, 0
0, 0
0, 0
0, 0
0, 0
0, 0
0, 0
0, 0
0, 0
0, 0
0, 0
0, 0
0, 0
0, 0
0, 0
0, 0
0, 0
0, 0
0, 0
0, 0
0, 0
0, 0
0, 0
0, 0
0, 0
0, 0
0, 0
0, 0
0, 0
0, 0
0, 0
0, 0
0, 0
0, 0
0, 0
0, 0
0, 0
0, 0
0, 0
0, 0
0, 0
0, 0
0, 0
0, 0
0, 0
0, 0
0, 0
0, 0
0, 0
0, 0
0, 0
0, 0
0, 0
0, 0
0, 0
0, 0
0, 0
0, 0
0, 0
0, 0
0, 0
0, 0
0, 0
0, 0
0, 0
0, 0
0, 0
0, 0
0, 0
0, 0
0, 0
0, 0
0, 0
0, 0
0, 0
0, 0
0, 0
0, 0
0, 0
0, 0
0, 0
0, 0
0, 0
0, 0
0, 0
0, 0
0, 0
0, 0
0, 0
0, 0
0, 0
0, 0
0, 0
0, 0
0, 0
0, 0
0, 0
0, 0
0, 0
0, 0
0, 0
0, 0
0, 0
0, 0
0, 0
0, 0
0, 0
0, 0
0, 0
0, 0
0, 0
0, 0
0, 0
0, 0
0, 0
0, 0
0, 0
0, 0
0, 0
0, 0
0, 0
0, 0
0, 0
0, 0
0, 0
0, 0
0, 0
0, 0
0, 0
0, 0
0, 0
0, 0
0, 0
0, 0
0, 0
0, 0
0, 0
0, 0
0, 0
0, 0
0, 0
0, 0
0, 0
0, 0
0, 0
0, 0
0, 0
0, 0
0, 0
0, 0
0, 0
0, 0
0, 0
0, 0
0, 0
0, 0
0, 0
0, 0
0, 0
0, 0
0, 0
0, 0
0, 0
0, 0
0, 0
0, 0
0, 0
0, 0
0, 0
0, 0
0, 0
0, 0
0, 0
0, 0
0, 0
0, 0
0, 0
0, 0
0, 0
0, 0
0, 0
0, 0
0, 0
0, 0
0, 0
0, 0
0, 0
0, 0
0, 0
0, 0
0, 0
0, 0
0, 0
0, 0
0, 0
0, 0
0, 0
0, 0
0, 0
0, 0
0, 0
0, 0
0, 0
0, 0
0, 0
0, 0
0, 0
0, 0
0, 0
0, 0
0, 0
0, 0
0, 0
0, 0
0, 0
#ENDOFDATA     end of spectrum data