File: host_upload/02-11-2024/rqc/uplink1/ps__0567_0717304816_000rfs_shot_380.msa
#FORMAT      : EMSA/MAS spectral data file
#VERSION     : TC202v2.0 PIXL
#TITLE       : Novarupta (sol567) subset1
#DATE        : 02-11-2024      Date in the format DD-MMM-YYYY, for example 07-JUL-2010
#TIME        :             The time of day at which the spectrum was recorded, in 24-hour format
#OWNER       : PIXL Flight Model       (PIXL will use this to indicate which instrument took the data.)
#NPOINTS     : 4096     Number of data points in the spectrum (This can be zero for configuration only files)
#NCOLUMNS    : 2     Number of data columns in the spectrum (This can be zero for configuration only files)
#XUNITS      : eV
#YUNITS      : COUNTS
#DATATYPE    : YY
#XPERCHAN    : 7.862, 7.881   eV per channel (separate by commas if more than one detector)
#OFFSET      : 18.5, -22.4         eV of first channel  (separate by commas if more than one detector
#SIGNALTYPE  : XRF
#YP_TEMP     : 1.883
#LIVETIME    : 8.83628, 8.81632   seconds (separate by commas if more than one detector)
#REALTIME    : 10, 10.0   seconds (separate by commas if more than one detector)
#SPECTRUM    : start of spectrum data
0, 0
0, 0
0, 0
0, 0
0, 0
0, 0
0, 0
0, 0
0, 0
0, 0
0, 0
0, 0
0, 0
0, 0
0, 0
0, 0
0, 0
0, 0
0, 0
0, 0
0, 0
0, 0
0, 0
0, 0
0, 0
0, 0
0, 0
0, 0
1, 0
0, 0
0, 0
0, 0
0, 1
0, 0
1, 1
0, 1
2, 5
5, 2
4, 3
4, 0
3, 4
2, 4
5, 1
3, 6
9, 0
4, 8
4, 3
2, 4
2, 6
4, 2
2, 6
9, 10
16, 15
17, 12
12, 17
20, 20
14, 12
9, 13
9, 10
7, 13
15, 18
17, 23
34, 34
48, 47
49, 51
45, 50
33, 32
28, 33
36, 33
61, 62
94, 128
173, 216
276, 344
420, 514
423, 567
466, 579
418, 455
328, 347
219, 228
123, 140
72, 95
56, 56
28, 35
27, 44
25, 41
32, 48
34, 35
30, 36
31, 29
15, 16
17, 21
20, 25
24, 24
48, 51
76, 78
118, 171
212, 231
242, 295
283, 350
313, 360
261, 302
194, 261
145, 177
92, 117
75, 81
50, 69
52, 44
62, 75
82, 108
109, 145
150, 194
184, 188
195, 255
211, 238
159, 212
151, 172
107, 131
101, 115
90, 110
74, 92
43, 93
62, 75
53, 70
67, 47
36, 48
42, 28
32, 33
22, 32
15, 16
12, 13
12, 13
6, 13
13, 4
8, 7
11, 4
14, 9
12, 10
12, 16
11, 22
20, 29
33, 24
25, 33
29, 35
35, 28
18, 27
11, 16
16, 16
11, 10
13, 16
20, 18
24, 36
42, 57
70, 109
149, 169
195, 248
257, 352
332, 421
367, 449
377, 415
309, 360
249, 283
175, 218
130, 109
65, 66
35, 49
27, 24
22, 24
31, 28
35, 52
47, 65
52, 72
50, 66
49, 58
49, 48
35, 45
32, 27
16, 19
16, 13
11, 12
4, 7
4, 9
11, 8
13, 9
3, 12
7, 12
18, 15
21, 20
21, 27
27, 38
50, 44
46, 63
57, 73
52, 75
55, 63
41, 52
37, 46
28, 27
26, 27
24, 25
16, 21
14, 21
14, 10
8, 14
15, 16
14, 14
12, 14
19, 17
16, 18
22, 27
12, 14
19, 15
17, 26
15, 10
15, 19
13, 17
14, 12
15, 12
8, 11
11, 11
7, 16
9, 10
16, 10
17, 7
18, 11
11, 13
18, 15
14, 24
19, 29
23, 32
27, 53
35, 34
26, 34
26, 24
29, 29
19, 18
18, 18
12, 18
5, 19
17, 7
10, 16
10, 13
8, 17
8, 16
8, 12
15, 18
31, 25
22, 33
21, 45
38, 37
39, 43
47, 48
36, 54
59, 60
43, 48
32, 44
24, 45
25, 26
28, 21
13, 20
14, 14
14, 24
27, 30
39, 44
59, 93
111, 164
202, 276
335, 461
570, 714
834, 1032
1067, 1421
1322, 1678
1498, 1863
1593, 1889
1652, 1675
1409, 1497
1109, 1123
835, 775
562, 567
390, 333
207, 195
114, 114
63, 67
33, 34
25, 26
15, 17
10, 11
12, 13
15, 18
19, 11
17, 16
15, 36
31, 45
37, 44
54, 75
62, 88
105, 128
146, 186
201, 207
236, 272
230, 298
283, 282
221, 270
211, 208
149, 189
110, 106
105, 79
69, 59
35, 26
27, 21
11, 11
15, 9
4, 3
10, 10
12, 12
8, 9
10, 11
12, 12
7, 17
16, 16
9, 13
13, 12
10, 4
11, 9
10, 7
7, 7
5, 5
4, 11
6, 6
12, 7
1, 11
3, 7
6, 5
7, 3
4, 7
5, 3
5, 6
5, 5
9, 8
9, 6
4, 6
10, 6
5, 11
7, 2
4, 8
9, 7
10, 4
4, 8
8, 6
6, 6
5, 13
8, 12
2, 6
10, 5
7, 10
5, 4
8, 10
10, 8
11, 10
3, 12
4, 6
9, 9
6, 5
6, 16
2, 9
8, 10
13, 8
14, 14
9, 14
9, 12
10, 11
10, 13
8, 11
8, 9
5, 8
6, 8
5, 8
4, 7
8, 6
4, 7
8, 4
7, 3
3, 5
5, 5
4, 7
3, 7
6, 5
7, 10
5, 1
7, 5
2, 10
3, 2
7, 6
5, 9
5, 6
4, 3
9, 5
6, 7
3, 4
2, 5
3, 6
5, 1
2, 6
8, 5
5, 5
6, 7
5, 3
5, 6
5, 9
4, 6
10, 6
0, 3
4, 5
4, 2
3, 1
5, 5
8, 4
0, 6
3, 4
1, 5
5, 5
1, 2
6, 4
7, 15
6, 6
1, 1
5, 3
3, 8
5, 5
4, 5
3, 3
5, 2
4, 5
2, 2
3, 1
3, 2
6, 8
2, 5
5, 7
6, 4
3, 4
2, 5
5, 4
2, 4
4, 3
3, 8
7, 1
2, 1
1, 3
1, 2
1, 8
3, 2
4, 1
6, 3
1, 6
0, 5
4, 0
5, 3
5, 2
4, 3
2, 1
4, 4
0, 5
5, 1
1, 5
2, 3
3, 3
3, 1
1, 4
5, 3
5, 2
3, 3
3, 7
3, 3
2, 6
2, 7
1, 2
2, 5
2, 4
2, 1
5, 5
1, 4
4, 3
6, 2
1, 1
3, 1
4, 5
3, 2
2, 1
2, 2
3, 2
1, 5
2, 3
2, 3
2, 1
2, 1
2, 1
1, 0
3, 0
2, 1
1, 1
2, 4
2, 3
1, 3
5, 4
2, 4
4, 4
1, 3
2, 0
5, 1
2, 3
2, 1
4, 3
3, 3
3, 6
1, 2
1, 4
1, 1
1, 3
2, 4
2, 0
3, 4
3, 4
1, 3
2, 5
4, 1
0, 2
1, 2
2, 2
0, 3
2, 5
1, 3
0, 2
0, 3
2, 4
1, 2
5, 1
2, 2
5, 0
2, 7
3, 6
3, 6
4, 0
2, 3
0, 3
1, 5
2, 2
4, 3
0, 4
1, 3
2, 2
3, 0
0, 1
2, 2
1, 1
2, 5
0, 3
0, 2
1, 2
2, 0
0, 3
0, 2
2, 0
0, 1
2, 1
0, 4
2, 2
0, 2
1, 6
2, 0
1, 2
2, 3
2, 1
1, 1
2, 5
3, 3
1, 2
0, 6
1, 1
2, 3
1, 1
3, 0
1, 1
2, 4
1, 4
3, 2
2, 1
1, 0
0, 3
0, 1
2, 1
1, 0
0, 1
3, 1
1, 5
0, 3
3, 3
1, 1
3, 0
4, 1
1, 2
2, 3
0, 0
0, 1
1, 1
0, 1
1, 2
1, 1
0, 2
0, 0
1, 1
1, 1
0, 1
0, 2
1, 0
6, 0
1, 1
0, 1
2, 0
1, 0
0, 2
0, 2
0, 2
0, 1
0, 0
1, 1
2, 0
0, 1
2, 1
0, 2
0, 0
0, 1
1, 0
1, 0
2, 0
1, 1
2, 0
0, 0
0, 1
0, 0
0, 1
2, 2
1, 0
1, 1
0, 1
0, 2
3, 0
0, 1
2, 0
1, 0
0, 0
1, 1
1, 1
0, 0
1, 1
0, 2
2, 0
0, 0
0, 0
1, 0
0, 0
0, 0
1, 1
0, 0
0, 0
0, 1
0, 1
1, 0
1, 1
1, 1
1, 1
1, 2
1, 0
1, 0
0, 1
0, 0
0, 0
0, 0
0, 0
1, 0
0, 0
0, 0
1, 2
0, 0
0, 0
1, 0
0, 0
0, 0
1, 0
0, 0
0, 1
0, 0
0, 0
0, 0
1, 0
0, 0
1, 0
0, 1
1, 1
0, 1
0, 1
1, 1
1, 0
0, 0
1, 1
0, 0
0, 1
1, 0
0, 1
0, 0
0, 0
0, 1
0, 0
0, 0
0, 0
1, 0
1, 0
1, 0
0, 0
0, 0
0, 0
0, 0
0, 1
1, 2
1, 0
0, 0
0, 0
0, 0
1, 0
0, 0
0, 0
1, 0
0, 1
1, 0
0, 1
0, 0
0, 0
0, 0
0, 1
1, 0
0, 0
0, 0
0, 1
0, 0
0, 0
1, 1
0, 1
1, 0
0, 0
0, 0
0, 0
0, 1
1, 0
1, 0
0, 0
0, 0
0, 0
0, 0
0, 0
0, 0
0, 0
0, 1
0, 1
0, 0
0, 0
0, 1
0, 1
0, 0
0, 0
0, 0
0, 0
0, 0
0, 0
0, 0
0, 0
1, 0
0, 0
0, 0
0, 0
0, 0
0, 0
1, 0
0, 0
0, 1
0, 0
0, 1
0, 1
0, 0
0, 0
1, 1
0, 0
1, 0
1, 1
2, 1
0, 0
0, 0
0, 0
0, 0
0, 0
0, 0
0, 0
1, 0
0, 1
0, 0
0, 2
2, 0
0, 0
0, 0
0, 0
0, 0
1, 0
0, 0
0, 0
0, 0
0, 0
0, 1
0, 0
0, 0
0, 1
1, 0
0, 0
0, 0
0, 0
0, 0
0, 0
0, 1
0, 0
0, 0
0, 0
0, 1
0, 0
0, 0
0, 0
1, 0
0, 0
0, 0
0, 0
0, 0
1, 0
1, 0
0, 0
0, 0
0, 0
0, 0
0, 0
0, 0
0, 0
0, 0
0, 1
0, 1
0, 0
0, 1
0, 0
0, 0
0, 0
0, 0
1, 0
0, 0
1, 0
0, 0
1, 0
0, 0
0, 0
0, 1
0, 0
0, 0
0, 0
0, 0
0, 0
0, 1
0, 0
0, 0
0, 0
0, 0
0, 0
0, 1
0, 0
0, 0
0, 0
0, 0
0, 0
0, 0
0, 0
0, 1
1, 0
0, 0
0, 1
0, 0
0, 0
0, 0
0, 0
0, 0
0, 0
0, 0
0, 0
0, 0
0, 0
0, 0
0, 0
0, 0
0, 0
0, 0
0, 0
0, 0
0, 0
0, 0
0, 0
0, 0
1, 0
0, 0
0, 0
0, 0
0, 0
0, 0
0, 0
0, 0
0, 0
0, 0
0, 0
0, 0
0, 0
0, 0
0, 0
0, 0
0, 0
0, 1
0, 0
0, 0
0, 0
0, 1
0, 0
0, 0
0, 0
0, 0
0, 0
0, 0
0, 0
0, 0
0, 0
0, 0
0, 1
0, 0
0, 0
0, 0
0, 0
0, 0
0, 0
0, 0
0, 0
0, 0
0, 0
0, 0
0, 0
0, 0
0, 0
0, 0
0, 0
0, 0
0, 0
0, 1
0, 0
0, 0
0, 0
0, 0
0, 0
0, 0
0, 0
0, 0
0, 0
0, 0
0, 0
0, 0
0, 0
0, 0
0, 0
0, 0
0, 0
0, 0
0, 0
0, 0
0, 0
0, 0
0, 0
0, 0
0, 0
1, 0
0, 0
0, 0
0, 0
0, 0
0, 0
0, 0
0, 0
0, 0
0, 0
1, 0
0, 0
0, 0
0, 0
0, 0
0, 0
0, 0
0, 0
0, 0
0, 0
0, 0
0, 0
0, 0
0, 0
0, 0
0, 0
0, 0
0, 0
0, 0
0, 0
0, 0
0, 0
0, 0
0, 0
0, 0
0, 0
0, 0
0, 0
0, 0
0, 0
0, 0
0, 0
0, 0
0, 0
0, 0
0, 0
0, 0
0, 0
0, 0
0, 0
0, 0
0, 0
0, 0
0, 0
0, 0
0, 0
0, 0
0, 0
0, 0
0, 0
0, 0
0, 0
0, 0
0, 0
0, 0
0, 0
0, 0
0, 0
0, 0
0, 0
0, 0
0, 0
0, 0
0, 0
0, 0
0, 0
0, 0
0, 0
0, 0
0, 0
0, 0
0, 0
0, 0
0, 0
0, 0
0, 0
0, 0
0, 0
0, 0
0, 0
0, 0
0, 0
0, 0
0, 0
0, 0
0, 0
0, 0
0, 0
0, 0
0, 0
0, 0
0, 0
0, 0
0, 0
0, 0
0, 0
0, 0
0, 0
0, 0
0, 0
0, 0
0, 0
0, 0
0, 0
0, 0
0, 0
0, 0
0, 0
0, 0
0, 0
0, 0
0, 0
0, 0
0, 0
0, 0
0, 0
0, 0
0, 0
0, 0
0, 0
0, 0
0, 0
0, 0
0, 0
0, 0
0, 0
0, 0
0, 0
0, 0
0, 0
0, 0
0, 0
0, 0
0, 0
0, 0
0, 0
0, 0
0, 0
0, 0
0, 0
0, 0
0, 0
0, 0
0, 0
0, 0
0, 0
0, 0
0, 0
0, 0
0, 0
0, 0
0, 0
0, 0
0, 0
0, 0
0, 0
0, 0
0, 0
0, 0
0, 0
0, 0
0, 0
0, 0
0, 0
0, 0
0, 0
0, 0
0, 0
0, 0
0, 0
0, 0
0, 0
0, 0
0, 0
0, 0
0, 0
0, 0
0, 0
0, 0
0, 0
0, 0
0, 0
0, 0
0, 0
0, 0
0, 0
0, 0
0, 0
0, 0
0, 0
0, 0
0, 0
0, 0
0, 0
0, 0
0, 0
0, 0
0, 0
0, 0
0, 0
0, 0
0, 0
0, 0
0, 0
0, 0
0, 0
0, 0
0, 0
0, 0
0, 0
0, 0
0, 0
0, 0
0, 0
0, 0
0, 0
0, 0
0, 0
0, 0
0, 0
0, 0
0, 0
0, 0
0, 0
0, 0
0, 0
0, 0
0, 0
0, 0
0, 0
0, 0
0, 0
0, 0
0, 0
0, 0
0, 0
0, 0
0, 0
0, 0
0, 0
0, 0
0, 0
0, 0
0, 0
0, 0
0, 0
0, 0
0, 0
0, 0
0, 0
0, 0
0, 0
0, 0
0, 0
0, 0
0, 0
0, 0
0, 0
0, 0
0, 0
0, 0
0, 0
0, 0
0, 0
0, 0
0, 0
0, 0
0, 0
0, 0
0, 0
0, 0
0, 0
0, 0
0, 0
0, 0
0, 0
0, 0
0, 0
0, 0
0, 0
0, 0
0, 0
0, 0
0, 0
0, 0
0, 0
0, 0
0, 0
0, 0
0, 0
0, 0
0, 0
0, 0
0, 0
0, 0
0, 0
0, 0
0, 0
0, 0
0, 0
0, 0
0, 0
0, 0
0, 0
0, 0
0, 0
0, 0
0, 0
0, 0
0, 0
0, 0
0, 0
0, 0
0, 0
0, 0
0, 0
0, 0
0, 0
0, 0
0, 0
0, 0
0, 0
0, 0
0, 0
0, 0
0, 0
0, 0
0, 0
0, 0
0, 0
0, 0
0, 0
0, 0
0, 0
0, 0
0, 0
0, 0
0, 0
0, 0
0, 0
0, 0
0, 0
0, 0
0, 0
0, 0
0, 0
0, 0
0, 0
0, 0
0, 0
0, 0
0, 0
0, 0
0, 0
0, 0
0, 0
0, 0
0, 0
0, 0
0, 0
0, 0
0, 0
0, 0
0, 0
0, 0
0, 0
0, 0
0, 0
0, 0
0, 0
0, 0
0, 0
#ENDOFDATA     end of spectrum data