File: host_upload/02-11-2024/rqc/uplink1/ps__0567_0717304816_000rfs_shot_107.msa
#FORMAT      : EMSA/MAS spectral data file
#VERSION     : TC202v2.0 PIXL
#TITLE       : Novarupta (sol567) subset1
#DATE        : 02-11-2024      Date in the format DD-MMM-YYYY, for example 07-JUL-2010
#TIME        :             The time of day at which the spectrum was recorded, in 24-hour format
#OWNER       : PIXL Flight Model       (PIXL will use this to indicate which instrument took the data.)
#NPOINTS     : 4096     Number of data points in the spectrum (This can be zero for configuration only files)
#NCOLUMNS    : 2     Number of data columns in the spectrum (This can be zero for configuration only files)
#XUNITS      : eV
#YUNITS      : COUNTS
#DATATYPE    : YY
#XPERCHAN    : 7.862, 7.881   eV per channel (separate by commas if more than one detector)
#OFFSET      : 18.5, -22.4         eV of first channel  (separate by commas if more than one detector
#SIGNALTYPE  : XRF
#YP_TEMP     : -0.683
#LIVETIME    : 8.836, 8.83232   seconds (separate by commas if more than one detector)
#REALTIME    : 10, 10.0   seconds (separate by commas if more than one detector)
#SPECTRUM    : start of spectrum data
0, 0
0, 0
0, 0
0, 0
0, 0
0, 0
0, 0
0, 0
0, 0
0, 0
0, 0
0, 0
0, 0
0, 0
0, 0
0, 0
0, 0
0, 0
0, 0
0, 0
0, 0
0, 0
0, 0
0, 0
0, 0
0, 0
0, 0
0, 0
0, 0
0, 0
0, 1
1, 0
0, 0
1, 0
0, 1
0, 0
6, 2
2, 2
4, 4
4, 1
0, 5
2, 5
2, 2
2, 0
2, 5
3, 1
3, 2
6, 4
2, 3
6, 6
6, 2
6, 8
12, 11
16, 13
13, 10
13, 12
11, 12
9, 11
9, 12
13, 10
25, 23
40, 24
45, 38
47, 47
35, 50
31, 42
36, 34
33, 39
45, 51
57, 60
110, 150
187, 209
277, 352
386, 460
461, 483
474, 488
441, 424
313, 305
206, 230
136, 129
83, 86
45, 44
33, 28
42, 23
34, 37
28, 33
43, 43
31, 29
21, 24
15, 19
17, 10
12, 20
31, 32
33, 51
74, 89
142, 144
200, 218
267, 271
290, 351
273, 311
269, 256
213, 230
151, 169
89, 92
69, 72
57, 62
54, 59
65, 75
114, 98
123, 146
183, 177
195, 234
230, 230
197, 232
188, 203
142, 163
116, 152
86, 96
75, 81
95, 95
79, 85
74, 76
63, 62
54, 48
48, 53
36, 30
38, 23
30, 27
27, 19
26, 13
12, 14
7, 7
7, 4
5, 3
6, 6
5, 8
15, 6
13, 15
23, 13
22, 35
22, 36
33, 31
34, 25
23, 24
26, 18
17, 14
10, 8
6, 14
10, 14
16, 13
24, 48
32, 39
93, 101
141, 155
173, 213
295, 301
315, 367
315, 351
318, 292
263, 247
188, 181
131, 142
81, 93
67, 65
29, 24
26, 22
18, 26
25, 24
30, 43
55, 48
49, 58
59, 59
47, 44
51, 53
39, 28
25, 25
17, 22
14, 11
15, 7
5, 10
10, 10
4, 7
5, 7
7, 11
12, 7
11, 15
16, 15
16, 26
41, 43
41, 57
56, 55
58, 57
60, 85
61, 57
54, 50
37, 38
37, 35
21, 38
28, 19
21, 19
14, 16
14, 13
9, 8
3, 11
9, 18
9, 17
14, 18
6, 21
17, 24
16, 15
20, 23
14, 18
12, 16
13, 11
8, 9
9, 15
8, 8
11, 8
9, 9
7, 10
12, 13
6, 11
10, 15
12, 15
20, 15
20, 17
13, 16
28, 29
27, 18
19, 26
18, 29
27, 34
25, 24
23, 18
21, 14
16, 23
12, 11
13, 10
10, 7
11, 15
16, 7
12, 8
20, 7
15, 13
19, 24
17, 11
32, 30
32, 32
37, 44
40, 47
39, 49
36, 50
36, 41
28, 41
31, 34
27, 29
31, 29
25, 15
27, 17
10, 20
31, 31
28, 26
40, 56
70, 101
143, 194
238, 345
439, 509
639, 790
953, 1114
1231, 1423
1531, 1663
1670, 1779
1705, 1803
1634, 1564
1361, 1272
1093, 1015
803, 686
510, 471
361, 283
191, 163
103, 83
68, 69
39, 39
18, 18
18, 21
17, 20
12, 13
16, 20
14, 21
15, 25
23, 31
30, 39
47, 72
75, 73
98, 122
127, 155
159, 189
221, 236
249, 274
260, 292
258, 280
239, 247
198, 219
167, 144
108, 99
79, 76
56, 47
25, 32
22, 16
14, 11
9, 9
9, 10
4, 13
9, 5
13, 14
16, 13
10, 18
7, 18
12, 8
13, 10
13, 16
6, 6
8, 6
13, 9
4, 8
9, 5
9, 12
4, 5
10, 9
8, 5
5, 7
3, 4
4, 7
5, 4
5, 6
2, 8
3, 5
7, 6
6, 3
7, 5
3, 8
9, 7
10, 2
9, 9
6, 6
9, 8
10, 3
7, 7
6, 4
5, 5
7, 11
4, 6
10, 7
6, 9
7, 5
4, 0
4, 7
5, 5
8, 3
5, 4
13, 8
5, 7
12, 15
13, 11
6, 18
11, 9
14, 17
6, 7
8, 9
8, 10
5, 13
4, 6
4, 10
7, 6
6, 4
3, 8
8, 8
4, 8
8, 3
2, 6
8, 4
4, 4
3, 8
6, 4
8, 8
4, 9
3, 6
7, 6
4, 5
9, 3
5, 5
5, 6
3, 6
2, 4
2, 5
3, 6
3, 3
5, 4
6, 5
5, 5
5, 3
4, 3
4, 7
14, 1
4, 8
4, 6
2, 6
3, 1
6, 12
7, 3
5, 5
9, 4
11, 4
9, 4
3, 5
8, 3
5, 5
5, 8
12, 4
7, 3
7, 7
2, 2
5, 7
3, 3
5, 6
3, 3
4, 1
3, 4
3, 2
7, 5
7, 2
5, 4
6, 1
3, 5
6, 4
4, 5
0, 5
5, 4
6, 4
4, 1
2, 4
3, 0
3, 3
4, 7
6, 2
2, 7
3, 0
2, 4
3, 5
7, 5
3, 1
4, 6
7, 5
1, 4
2, 4
5, 2
6, 2
3, 2
7, 6
2, 2
5, 4
6, 3
0, 1
4, 3
6, 5
1, 5
2, 5
7, 4
2, 2
2, 1
1, 4
1, 1
2, 3
3, 3
1, 1
2, 2
3, 1
3, 1
3, 2
2, 5
2, 3
4, 5
3, 2
0, 5
0, 4
4, 4
3, 2
0, 2
4, 2
2, 4
2, 2
1, 0
2, 3
2, 3
0, 2
2, 4
6, 3
4, 3
0, 2
2, 3
2, 2
3, 0
0, 0
3, 3
1, 2
2, 2
0, 2
3, 0
1, 2
1, 1
6, 1
0, 2
1, 3
3, 0
0, 5
2, 2
2, 4
3, 1
2, 2
2, 2
1, 3
4, 2
1, 2
2, 4
0, 2
2, 3
0, 1
1, 2
0, 3
3, 2
2, 1
2, 2
0, 2
4, 1
2, 3
4, 0
0, 5
3, 2
2, 1
4, 1
4, 3
7, 2
4, 4
3, 1
2, 4
4, 6
1, 0
1, 1
1, 1
2, 0
1, 1
1, 0
2, 2
4, 2
1, 2
2, 1
0, 1
2, 3
1, 1
1, 3
0, 1
2, 1
3, 3
2, 4
3, 2
2, 0
1, 0
1, 2
2, 2
2, 4
0, 0
2, 3
1, 1
2, 2
4, 3
2, 4
1, 2
3, 1
3, 0
2, 0
2, 1
1, 1
1, 0
5, 1
0, 2
1, 1
3, 0
1, 1
1, 2
1, 2
4, 3
0, 0
0, 2
4, 3
0, 1
3, 0
0, 4
3, 1
0, 2
2, 0
1, 0
0, 3
1, 3
2, 0
2, 0
2, 0
0, 2
0, 1
2, 3
4, 0
2, 0
0, 0
0, 0
2, 2
2, 1
0, 0
1, 0
3, 4
2, 0
0, 1
1, 0
0, 0
0, 0
3, 0
1, 0
0, 1
2, 1
2, 0
0, 2
0, 0
1, 0
1, 0
0, 2
1, 0
0, 1
0, 1
0, 1
0, 0
2, 1
1, 1
1, 1
0, 1
0, 1
1, 2
1, 0
0, 0
3, 0
1, 0
1, 0
0, 2
1, 0
1, 0
0, 0
1, 0
1, 1
0, 1
0, 1
2, 1
0, 1
0, 1
0, 0
1, 1
1, 0
1, 0
0, 1
0, 1
1, 0
0, 0
0, 0
0, 1
1, 0
0, 1
2, 0
2, 1
0, 2
0, 1
1, 0
0, 1
0, 0
0, 0
0, 0
1, 0
0, 0
0, 0
2, 0
1, 0
1, 1
0, 2
1, 0
0, 0
1, 1
0, 0
0, 3
0, 1
1, 0
0, 0
0, 0
0, 0
0, 0
0, 1
1, 0
0, 0
1, 0
0, 2
0, 0
0, 0
0, 0
0, 0
0, 1
0, 2
0, 0
0, 0
0, 0
1, 1
0, 1
1, 0
0, 0
1, 1
1, 0
0, 0
0, 0
0, 0
0, 0
0, 0
0, 0
1, 1
1, 0
0, 0
0, 1
0, 0
0, 0
0, 0
1, 0
0, 0
0, 0
1, 0
0, 1
0, 1
0, 1
0, 0
0, 0
0, 0
1, 0
0, 0
1, 0
0, 0
0, 0
0, 0
0, 0
0, 1
2, 1
1, 0
0, 0
1, 0
0, 0
0, 1
0, 0
0, 0
1, 0
0, 0
0, 1
1, 0
1, 0
0, 0
0, 0
0, 0
0, 0
0, 0
0, 1
0, 0
2, 1
0, 0
1, 0
0, 0
0, 0
0, 0
0, 0
0, 0
0, 0
0, 0
0, 0
1, 0
0, 1
1, 1
1, 0
0, 0
0, 0
1, 1
1, 0
1, 0
0, 0
0, 0
0, 0
0, 0
0, 0
1, 1
0, 0
0, 2
0, 0
0, 0
1, 0
0, 0
0, 0
0, 0
0, 0
0, 0
2, 0
0, 1
0, 1
1, 0
0, 0
0, 0
0, 0
0, 0
0, 0
0, 0
0, 0
1, 0
0, 0
0, 0
0, 0
0, 0
0, 0
0, 0
0, 0
0, 0
0, 0
0, 0
0, 0
0, 0
0, 0
0, 0
0, 0
0, 0
0, 0
0, 0
0, 0
0, 0
1, 1
0, 0
0, 0
0, 1
0, 0
0, 0
0, 0
0, 1
0, 0
0, 0
0, 0
0, 0
0, 0
0, 0
0, 0
0, 0
0, 0
0, 0
1, 0
0, 0
0, 0
0, 0
1, 0
0, 0
1, 0
0, 0
0, 0
0, 0
0, 0
0, 0
0, 0
0, 0
1, 0
0, 0
0, 0
1, 0
0, 0
0, 0
1, 0
0, 0
0, 0
0, 0
0, 0
0, 0
0, 1
0, 0
0, 0
0, 0
0, 0
0, 1
0, 0
0, 0
0, 0
0, 0
0, 0
0, 1
0, 0
0, 0
0, 0
0, 0
0, 0
0, 0
0, 0
0, 0
0, 0
0, 0
0, 0
0, 0
0, 1
0, 0
0, 0
0, 1
0, 0
0, 0
0, 0
0, 0
0, 0
0, 0
0, 0
1, 0
0, 0
0, 0
0, 0
0, 0
0, 0
0, 0
0, 1
0, 0
0, 0
0, 0
0, 0
0, 0
0, 0
0, 0
0, 0
0, 0
0, 0
0, 0
0, 0
0, 0
0, 0
0, 0
0, 0
0, 0
0, 0
0, 0
0, 0
0, 0
0, 0
0, 0
0, 0
0, 1
0, 0
0, 0
0, 0
0, 0
0, 0
0, 0
0, 0
0, 0
0, 0
0, 0
0, 0
0, 0
0, 0
0, 0
0, 0
0, 0
0, 0
0, 0
0, 0
0, 0
0, 0
0, 0
0, 0
0, 0
0, 0
0, 0
0, 0
0, 0
0, 0
0, 0
0, 0
0, 0
0, 0
0, 0
0, 0
0, 0
0, 0
0, 0
0, 0
0, 0
0, 0
0, 0
0, 0
0, 0
0, 0
0, 0
0, 0
0, 0
0, 0
0, 0
0, 0
0, 0
0, 0
0, 0
0, 0
0, 0
0, 0
0, 0
0, 0
0, 0
0, 0
0, 0
0, 0
0, 0
0, 0
0, 0
0, 0
0, 0
0, 0
0, 0
0, 0
0, 0
0, 0
0, 0
0, 0
0, 0
0, 0
0, 0
0, 0
0, 0
0, 0
0, 0
0, 0
0, 0
0, 0
0, 0
0, 0
0, 0
0, 0
0, 0
0, 0
0, 0
0, 0
0, 0
0, 0
0, 0
0, 0
0, 0
0, 0
0, 0
0, 0
0, 0
0, 0
0, 0
0, 0
0, 0
0, 0
0, 0
0, 0
0, 0
0, 0
0, 0
0, 0
0, 0
0, 0
0, 0
0, 0
0, 0
0, 0
0, 0
0, 0
0, 0
0, 0
0, 0
0, 0
0, 0
0, 0
0, 0
0, 0
0, 0
0, 0
0, 0
0, 0
0, 0
0, 0
0, 0
0, 0
0, 0
0, 0
0, 0
0, 0
0, 0
0, 0
0, 0
0, 0
0, 0
0, 0
0, 0
0, 0
0, 0
0, 0
0, 0
0, 0
0, 0
0, 0
0, 0
0, 0
0, 0
0, 0
0, 0
0, 0
0, 0
0, 0
0, 0
0, 0
0, 0
0, 0
0, 0
0, 0
0, 0
0, 0
0, 0
0, 0
0, 0
0, 0
0, 0
0, 0
0, 0
0, 0
0, 0
0, 0
0, 0
0, 0
0, 0
0, 0
0, 0
0, 0
0, 0
0, 0
0, 0
0, 0
0, 0
0, 0
0, 0
0, 0
0, 0
0, 0
0, 0
0, 0
0, 0
0, 0
0, 0
0, 0
0, 0
0, 0
0, 0
0, 0
0, 0
0, 0
0, 0
0, 0
0, 0
0, 0
0, 0
0, 0
0, 0
0, 0
0, 0
0, 0
0, 0
0, 0
0, 0
0, 0
0, 0
0, 0
0, 0
0, 0
0, 0
0, 0
0, 0
0, 0
0, 0
0, 0
0, 0
0, 0
0, 0
0, 0
0, 0
0, 0
0, 0
0, 0
0, 0
0, 0
0, 0
0, 0
0, 0
0, 0
0, 0
0, 0
0, 0
0, 0
0, 0
0, 0
0, 0
0, 0
0, 0
0, 0
0, 0
0, 0
0, 0
0, 0
0, 0
0, 0
0, 0
0, 0
0, 0
0, 0
0, 0
0, 0
0, 0
0, 0
0, 0
0, 0
0, 0
0, 0
0, 0
0, 0
0, 0
0, 0
0, 0
0, 0
0, 0
0, 0
0, 0
0, 0
0, 0
0, 0
0, 0
0, 0
0, 0
0, 0
0, 0
0, 0
0, 0
0, 0
0, 0
0, 0
0, 0
0, 0
0, 0
0, 0
0, 0
0, 0
0, 0
0, 0
0, 0
0, 0
0, 0
0, 0
0, 0
0, 0
0, 0
0, 0
0, 0
0, 0
0, 0
0, 0
0, 0
0, 0
0, 0
0, 0
0, 0
0, 0
0, 0
0, 0
0, 0
0, 0
0, 0
0, 0
0, 0
0, 0
0, 0
0, 0
0, 0
0, 0
0, 0
0, 0
0, 0
0, 0
0, 0
0, 0
0, 0
0, 0
0, 0
0, 0
0, 0
0, 0
0, 0
0, 0
0, 0
0, 0
0, 0
0, 0
0, 0
0, 0
0, 0
0, 0
0, 0
0, 0
0, 0
0, 0
0, 0
0, 0
0, 0
0, 0
0, 0
0, 0
0, 0
0, 0
0, 0
0, 0
0, 0
0, 0
0, 0
0, 0
0, 0
0, 0
0, 0
0, 0
0, 0
0, 0
0, 0
0, 0
0, 0
0, 0
0, 0
0, 0
0, 0
0, 0
0, 0
0, 0
0, 0
0, 0
0, 0
0, 0
0, 0
0, 0
0, 0
0, 0
0, 0
0, 0
0, 0
0, 0
0, 0
0, 0
0, 0
0, 0
0, 0
0, 0
0, 0
0, 0
0, 0
0, 0
0, 0
0, 0
0, 0
#ENDOFDATA     end of spectrum data