File: host_upload/02-11-2024/rqc/uplink1/ps__0567_0717304816_000rfs_shot_110.msa
#FORMAT      : EMSA/MAS spectral data file
#VERSION     : TC202v2.0 PIXL
#TITLE       : Novarupta (sol567) subset1
#DATE        : 02-11-2024      Date in the format DD-MMM-YYYY, for example 07-JUL-2010
#TIME        :             The time of day at which the spectrum was recorded, in 24-hour format
#OWNER       : PIXL Flight Model       (PIXL will use this to indicate which instrument took the data.)
#NPOINTS     : 4096     Number of data points in the spectrum (This can be zero for configuration only files)
#NCOLUMNS    : 2     Number of data columns in the spectrum (This can be zero for configuration only files)
#XUNITS      : eV
#YUNITS      : COUNTS
#DATATYPE    : YY
#XPERCHAN    : 7.862, 7.881   eV per channel (separate by commas if more than one detector)
#OFFSET      : 18.5, -22.4         eV of first channel  (separate by commas if more than one detector
#SIGNALTYPE  : XRF
#YP_TEMP     : -0.651
#LIVETIME    : 8.84086, 8.82779   seconds (separate by commas if more than one detector)
#REALTIME    : 10, 10.0   seconds (separate by commas if more than one detector)
#SPECTRUM    : start of spectrum data
0, 0
0, 0
0, 0
0, 0
0, 0
0, 0
0, 0
0, 0
0, 0
0, 0
0, 0
0, 0
0, 0
0, 0
0, 0
0, 0
0, 0
0, 0
0, 0
0, 0
0, 0
0, 0
0, 0
0, 0
0, 0
0, 0
0, 0
0, 0
0, 0
0, 0
0, 0
0, 0
1, 0
2, 0
2, 0
1, 4
3, 2
5, 1
3, 4
6, 4
4, 3
4, 3
5, 3
2, 2
4, 2
4, 3
6, 1
1, 3
6, 3
8, 6
10, 9
9, 8
14, 10
14, 13
17, 17
17, 16
11, 15
8, 11
8, 18
12, 10
15, 12
22, 28
36, 42
48, 38
62, 52
42, 42
22, 34
30, 31
37, 36
70, 75
101, 129
190, 212
326, 362
435, 381
459, 498
478, 466
454, 391
353, 303
227, 235
163, 132
87, 77
60, 57
36, 34
25, 23
36, 25
40, 37
37, 34
38, 39
25, 24
14, 19
19, 18
20, 23
20, 23
52, 41
80, 72
159, 124
212, 212
267, 280
272, 312
310, 268
248, 263
191, 180
131, 135
114, 99
61, 69
52, 57
61, 55
64, 75
110, 103
128, 128
153, 190
227, 194
234, 219
211, 230
184, 227
176, 162
135, 129
106, 111
104, 88
81, 61
77, 59
84, 74
67, 80
57, 56
51, 48
30, 25
39, 38
20, 12
24, 22
14, 14
10, 9
8, 5
4, 8
6, 2
7, 5
6, 8
11, 10
10, 16
15, 17
33, 22
32, 26
33, 27
39, 27
27, 23
20, 20
21, 11
11, 9
9, 8
14, 13
22, 26
28, 26
49, 54
102, 114
123, 163
209, 233
299, 281
340, 369
412, 348
323, 391
300, 269
247, 198
177, 148
98, 73
61, 55
42, 33
28, 28
28, 24
27, 34
43, 41
57, 49
56, 67
79, 53
60, 51
45, 50
35, 36
16, 14
17, 19
11, 13
8, 11
4, 5
6, 9
9, 8
11, 13
5, 11
17, 9
14, 9
18, 20
28, 22
27, 41
40, 40
43, 51
49, 65
70, 53
60, 51
67, 52
55, 31
34, 25
31, 18
21, 23
24, 21
18, 19
14, 16
8, 17
18, 19
10, 17
19, 17
18, 12
15, 11
20, 14
11, 21
18, 28
16, 19
15, 18
20, 8
11, 18
15, 5
13, 15
11, 9
11, 10
12, 9
8, 8
12, 13
17, 11
12, 13
8, 17
16, 17
21, 28
22, 22
24, 28
26, 27
35, 42
33, 40
24, 32
26, 19
24, 22
12, 16
16, 16
15, 10
10, 12
14, 12
16, 9
15, 11
10, 15
12, 15
15, 22
18, 25
21, 21
30, 41
38, 39
55, 45
53, 42
57, 36
46, 36
39, 33
40, 23
28, 32
32, 28
16, 12
23, 26
21, 14
20, 28
31, 40
46, 52
87, 120
149, 165
256, 280
437, 459
630, 794
913, 1084
1244, 1306
1479, 1629
1703, 1734
1734, 1732
1614, 1534
1435, 1317
1044, 918
840, 688
531, 462
338, 274
210, 157
86, 91
64, 48
39, 27
32, 14
19, 12
14, 21
14, 14
16, 15
21, 21
20, 17
28, 25
33, 36
56, 55
63, 78
107, 101
122, 135
155, 199
210, 234
261, 226
260, 255
272, 249
224, 227
189, 217
153, 157
111, 110
67, 60
49, 35
40, 21
17, 15
13, 11
11, 12
6, 6
8, 4
11, 10
11, 8
7, 14
9, 9
12, 8
15, 9
13, 9
6, 12
13, 14
9, 4
5, 7
4, 7
4, 5
4, 3
5, 10
4, 10
2, 6
7, 2
5, 4
10, 4
10, 14
6, 3
8, 5
1, 4
7, 3
4, 6
10, 5
6, 6
11, 8
8, 6
6, 11
7, 5
4, 11
9, 6
5, 5
6, 11
7, 2
9, 4
10, 8
5, 6
5, 6
5, 1
4, 6
4, 9
8, 13
7, 5
7, 6
8, 4
7, 7
9, 6
9, 10
15, 4
6, 14
7, 17
14, 15
9, 8
12, 12
9, 9
3, 4
7, 11
2, 7
3, 8
3, 2
4, 7
6, 5
9, 7
4, 3
8, 7
4, 3
1, 3
6, 6
8, 8
5, 5
5, 9
6, 5
3, 5
8, 7
4, 5
0, 6
5, 6
9, 6
4, 1
4, 6
7, 4
2, 4
3, 3
4, 8
6, 2
3, 4
6, 3
7, 1
5, 6
3, 7
5, 5
6, 4
7, 4
6, 2
1, 6
5, 7
5, 8
7, 3
4, 4
5, 3
6, 3
6, 6
4, 7
7, 5
8, 5
2, 6
3, 3
6, 6
5, 6
4, 2
3, 6
3, 2
7, 3
7, 3
6, 6
7, 5
1, 9
3, 5
3, 3
3, 5
6, 1
4, 4
3, 2
5, 4
3, 4
2, 8
4, 4
7, 0
6, 2
4, 3
5, 5
1, 3
0, 1
1, 3
4, 1
3, 2
2, 5
5, 2
1, 2
3, 4
2, 3
5, 4
4, 5
6, 2
4, 4
6, 6
0, 2
4, 3
3, 1
2, 2
3, 2
3, 2
5, 3
1, 4
2, 3
2, 2
4, 2
3, 0
2, 1
8, 2
4, 1
4, 0
1, 2
5, 7
2, 2
6, 4
7, 1
0, 4
2, 5
2, 3
2, 0
3, 0
4, 2
2, 3
2, 1
3, 4
3, 3
5, 1
2, 5
1, 3
5, 1
1, 1
3, 3
3, 3
1, 4
1, 4
6, 3
4, 1
4, 2
1, 2
3, 5
3, 2
3, 1
2, 3
5, 1
2, 3
0, 3
2, 4
1, 3
7, 2
1, 2
2, 1
1, 1
2, 2
5, 1
2, 2
2, 2
3, 1
1, 5
0, 1
2, 1
1, 3
2, 4
0, 0
1, 1
2, 0
0, 1
2, 4
2, 2
2, 4
3, 4
1, 1
1, 4
1, 4
3, 1
3, 3
1, 1
4, 2
4, 1
2, 5
3, 4
3, 2
2, 1
3, 2
4, 3
1, 0
2, 0
1, 0
4, 1
0, 0
1, 0
3, 0
6, 2
1, 1
0, 0
2, 2
2, 2
0, 1
4, 2
2, 2
2, 2
2, 1
5, 2
2, 2
2, 1
0, 1
1, 1
1, 3
1, 0
4, 0
2, 4
1, 1
1, 0
0, 1
0, 2
1, 0
1, 3
1, 2
2, 0
1, 1
0, 1
0, 0
0, 0
1, 1
2, 1
2, 0
3, 1
1, 1
0, 1
1, 2
0, 1
2, 1
2, 1
3, 6
1, 2
2, 0
2, 0
1, 2
1, 1
1, 1
0, 2
2, 0
0, 1
1, 2
0, 1
0, 0
1, 1
1, 1
2, 2
1, 1
0, 0
0, 0
0, 1
2, 0
2, 0
1, 1
0, 2
1, 0
1, 2
1, 0
0, 0
1, 1
0, 1
1, 0
0, 1
0, 1
3, 0
2, 2
0, 0
1, 0
1, 0
0, 0
0, 0
0, 0
2, 0
0, 2
2, 0
0, 1
0, 1
1, 1
0, 2
2, 1
0, 0
0, 1
1, 1
1, 1
1, 1
0, 1
1, 1
0, 0
0, 0
1, 0
0, 0
1, 0
2, 4
0, 0
0, 0
0, 0
0, 2
0, 0
0, 0
0, 0
3, 0
1, 1
1, 1
0, 1
0, 1
2, 3
0, 0
0, 0
0, 1
0, 0
0, 1
0, 0
1, 0
1, 0
0, 0
0, 0
0, 1
1, 1
1, 1
1, 0
0, 1
0, 0
1, 1
1, 1
0, 0
1, 2
0, 0
0, 0
0, 1
0, 1
3, 0
0, 2
1, 0
0, 0
0, 0
0, 0
0, 0
0, 0
0, 0
2, 2
0, 1
0, 0
0, 0
0, 0
1, 1
0, 0
1, 1
0, 0
0, 0
0, 1
2, 0
1, 0
0, 0
0, 0
0, 1
0, 0
0, 0
0, 1
2, 0
1, 0
0, 1
0, 0
0, 0
0, 0
0, 0
2, 0
1, 1
0, 0
1, 0
1, 0
0, 0
0, 0
0, 0
0, 0
0, 0
0, 0
0, 2
0, 1
0, 0
0, 0
0, 1
0, 0
2, 0
0, 0
0, 0
2, 1
0, 0
0, 0
0, 0
0, 0
0, 0
0, 0
1, 0
1, 1
0, 0
0, 0
0, 0
1, 0
0, 0
0, 0
0, 0
2, 0
0, 0
1, 1
1, 0
0, 1
0, 1
0, 0
0, 0
0, 0
0, 1
0, 1
0, 0
0, 0
3, 1
0, 0
0, 0
0, 0
0, 0
0, 0
0, 0
0, 0
0, 1
0, 0
0, 0
0, 0
0, 0
0, 0
0, 0
0, 0
0, 0
0, 0
0, 1
0, 0
0, 0
0, 1
0, 1
0, 0
0, 1
0, 0
1, 0
0, 0
0, 1
0, 0
0, 0
0, 0
0, 0
0, 1
0, 0
0, 0
0, 0
0, 0
0, 0
0, 0
0, 0
0, 0
0, 0
0, 0
0, 0
0, 0
0, 0
0, 0
0, 0
0, 0
0, 0
0, 0
0, 0
0, 0
0, 0
0, 0
0, 0
0, 0
0, 0
0, 0
0, 0
0, 0
0, 0
0, 0
0, 0
0, 1
0, 0
0, 0
0, 0
0, 0
0, 0
0, 0
0, 1
0, 0
1, 0
1, 0
0, 1
0, 3
0, 0
0, 0
1, 0
0, 0
0, 0
0, 0
0, 0
0, 0
0, 0
0, 0
0, 0
0, 0
0, 0
0, 0
0, 1
0, 0
0, 0
0, 0
0, 0
0, 0
0, 0
0, 0
0, 0
0, 0
0, 0
0, 0
0, 0
0, 0
0, 0
0, 0
0, 0
0, 0
0, 0
0, 0
0, 0
0, 0
0, 0
0, 0
0, 0
0, 0
0, 0
0, 0
0, 0
0, 0
0, 0
0, 0
0, 0
0, 0
0, 0
0, 0
0, 0
0, 0
0, 0
0, 0
0, 0
1, 0
0, 0
0, 1
0, 0
0, 0
1, 0
0, 0
0, 0
0, 0
0, 0
0, 0
1, 0
0, 0
1, 0
0, 0
0, 0
0, 0
0, 0
0, 0
0, 0
1, 0
0, 0
0, 0
0, 0
0, 1
0, 0
0, 0
0, 0
0, 0
0, 0
0, 0
0, 0
0, 0
0, 0
0, 0
0, 0
0, 0
0, 0
0, 0
0, 0
0, 0
0, 1
0, 0
0, 0
0, 0
0, 0
0, 0
0, 0
0, 0
1, 0
0, 0
0, 0
0, 0
0, 1
0, 0
0, 0
0, 0
0, 0
0, 0
0, 0
0, 0
0, 0
0, 0
0, 0
1, 0
0, 0
0, 0
0, 0
0, 0
0, 0
0, 0
0, 0
0, 0
0, 0
0, 0
0, 0
0, 0
0, 0
0, 0
0, 0
0, 0
0, 0
0, 0
0, 0
0, 0
0, 0
0, 0
0, 0
0, 0
0, 0
0, 0
0, 0
0, 0
0, 0
0, 0
0, 0
0, 0
0, 0
0, 0
0, 0
0, 0
0, 0
0, 0
0, 0
0, 0
0, 0
0, 0
0, 0
0, 0
0, 0
0, 0
0, 0
0, 0
0, 0
0, 0
0, 0
0, 0
0, 0
0, 0
0, 0
0, 0
0, 0
0, 0
0, 0
0, 0
0, 0
0, 0
0, 0
0, 0
0, 0
0, 0
0, 0
0, 0
0, 0
0, 0
0, 0
0, 0
0, 0
0, 0
0, 0
0, 0
0, 0
0, 0
0, 0
0, 0
0, 0
0, 0
0, 0
0, 0
0, 0
0, 0
0, 0
0, 0
0, 0
0, 0
0, 0
0, 0
0, 0
0, 0
0, 0
0, 0
0, 0
0, 0
0, 0
0, 0
0, 0
0, 0
0, 0
0, 0
0, 0
0, 0
0, 0
0, 0
0, 0
0, 0
0, 0
0, 0
0, 0
0, 0
0, 0
0, 0
0, 0
0, 0
0, 0
0, 0
0, 0
0, 0
0, 0
0, 0
0, 0
0, 0
0, 0
0, 0
0, 0
0, 0
0, 0
0, 0
0, 0
0, 0
0, 0
0, 0
0, 0
0, 0
0, 0
0, 0
0, 0
0, 0
0, 0
0, 0
0, 0
0, 0
0, 0
0, 0
0, 0
0, 0
0, 0
0, 0
0, 0
0, 0
0, 0
0, 0
0, 0
0, 0
0, 0
0, 0
0, 0
0, 0
0, 0
0, 0
0, 0
0, 0
0, 0
0, 0
0, 0
0, 0
0, 0
0, 0
0, 0
0, 0
0, 0
0, 0
0, 0
0, 0
0, 0
0, 0
0, 0
0, 0
0, 0
0, 0
0, 0
0, 0
0, 0
0, 0
0, 0
0, 0
0, 0
0, 0
0, 0
0, 0
0, 0
0, 0
0, 0
0, 0
0, 0
0, 0
0, 0
0, 0
0, 0
0, 0
0, 0
0, 0
0, 0
0, 0
0, 0
0, 0
0, 0
0, 0
0, 0
0, 0
0, 0
0, 0
0, 0
0, 0
0, 0
0, 0
0, 0
0, 0
0, 0
0, 0
0, 0
0, 0
0, 0
0, 0
0, 0
0, 0
0, 0
0, 0
0, 0
0, 0
0, 0
0, 0
0, 0
0, 0
0, 0
0, 0
0, 0
0, 0
0, 0
0, 0
0, 0
0, 0
0, 0
0, 0
0, 0
0, 0
0, 0
0, 0
0, 0
0, 0
0, 0
0, 0
0, 0
0, 0
0, 0
0, 0
0, 0
0, 0
0, 0
0, 0
0, 0
0, 0
0, 0
0, 0
0, 0
0, 0
0, 0
0, 0
0, 0
0, 0
0, 0
0, 0
0, 0
0, 0
0, 0
0, 0
0, 0
0, 0
0, 0
0, 0
0, 0
0, 0
0, 0
0, 0
0, 0
0, 0
0, 0
0, 0
0, 0
0, 0
0, 0
0, 0
0, 0
0, 0
0, 0
0, 0
0, 0
0, 0
0, 0
0, 0
0, 0
0, 0
0, 0
0, 0
0, 0
0, 0
0, 0
0, 0
0, 0
0, 0
0, 0
0, 0
0, 0
0, 0
0, 0
0, 0
0, 0
0, 0
0, 0
0, 0
0, 0
0, 0
0, 0
0, 0
0, 0
0, 0
0, 0
0, 0
0, 0
0, 0
0, 0
0, 0
0, 0
0, 0
0, 0
0, 0
0, 0
0, 0
0, 0
0, 0
0, 0
0, 0
0, 0
0, 0
0, 0
0, 0
0, 0
0, 0
0, 0
0, 0
0, 0
0, 0
0, 0
0, 0
0, 0
0, 0
0, 0
0, 0
0, 0
0, 0
0, 0
0, 0
0, 0
0, 0
0, 0
0, 0
0, 0
0, 0
0, 0
0, 0
0, 0
0, 0
0, 0
0, 0
0, 0
0, 0
0, 0
0, 0
0, 0
0, 0
0, 0
0, 0
#ENDOFDATA     end of spectrum data