File: host_upload/02-11-2024/rqc/uplink1/ps__0567_0717304816_000rfs_shot_74.msa
#FORMAT      : EMSA/MAS spectral data file
#VERSION     : TC202v2.0 PIXL
#TITLE       : Novarupta (sol567) subset1
#DATE        : 02-11-2024      Date in the format DD-MMM-YYYY, for example 07-JUL-2010
#TIME        :             The time of day at which the spectrum was recorded, in 24-hour format
#OWNER       : PIXL Flight Model       (PIXL will use this to indicate which instrument took the data.)
#NPOINTS     : 4096     Number of data points in the spectrum (This can be zero for configuration only files)
#NCOLUMNS    : 2     Number of data columns in the spectrum (This can be zero for configuration only files)
#XUNITS      : eV
#YUNITS      : COUNTS
#DATATYPE    : YY
#XPERCHAN    : 7.862, 7.881   eV per channel (separate by commas if more than one detector)
#OFFSET      : 18.5, -22.4         eV of first channel  (separate by commas if more than one detector
#SIGNALTYPE  : XRF
#YP_TEMP     : -1.838
#LIVETIME    : 8.84099, 8.81746   seconds (separate by commas if more than one detector)
#REALTIME    : 10, 10.0   seconds (separate by commas if more than one detector)
#SPECTRUM    : start of spectrum data
0, 0
0, 0
0, 0
0, 0
0, 0
0, 0
0, 0
0, 0
0, 0
0, 0
0, 0
0, 0
0, 0
0, 0
0, 0
0, 0
0, 0
0, 0
0, 0
0, 0
0, 0
0, 0
0, 0
0, 0
0, 0
0, 0
0, 0
0, 0
0, 0
0, 0
0, 0
0, 1
0, 2
0, 3
2, 2
0, 0
1, 3
6, 5
4, 3
3, 3
3, 3
3, 5
3, 4
0, 4
2, 1
4, 3
6, 5
1, 0
6, 2
0, 7
6, 7
6, 7
11, 15
11, 11
9, 13
9, 12
8, 8
10, 8
13, 12
13, 9
12, 24
34, 33
36, 53
38, 50
45, 49
52, 56
32, 38
31, 29
29, 38
60, 80
120, 146
193, 243
325, 359
421, 471
434, 546
480, 517
394, 440
315, 331
227, 225
123, 152
78, 94
49, 46
31, 31
39, 33
33, 33
35, 33
32, 31
43, 37
20, 21
21, 20
8, 15
16, 36
31, 36
53, 58
92, 106
122, 153
213, 257
269, 327
292, 341
307, 308
288, 288
197, 241
146, 155
111, 122
81, 86
56, 53
57, 56
69, 88
81, 104
112, 139
152, 180
197, 220
223, 238
194, 234
169, 204
142, 180
117, 130
92, 105
87, 90
75, 97
63, 70
75, 82
54, 62
56, 61
45, 45
38, 33
34, 28
23, 27
25, 15
15, 13
5, 13
18, 7
11, 10
6, 6
11, 8
11, 11
12, 11
14, 24
23, 19
27, 36
35, 31
23, 30
27, 24
36, 32
18, 32
16, 17
22, 8
8, 16
20, 16
6, 17
28, 38
47, 58
97, 104
145, 200
222, 288
300, 361
341, 424
349, 423
345, 370
264, 326
229, 241
137, 160
90, 90
58, 64
31, 41
22, 28
25, 37
36, 51
58, 51
49, 51
49, 53
50, 68
46, 72
48, 48
34, 28
23, 27
16, 10
15, 14
13, 9
14, 11
12, 3
10, 11
10, 15
8, 6
15, 11
25, 18
22, 19
23, 16
32, 48
45, 56
42, 57
54, 63
65, 73
50, 70
53, 46
44, 34
37, 43
21, 21
25, 23
20, 24
13, 15
8, 19
13, 14
19, 19
7, 13
17, 11
20, 13
12, 17
9, 22
13, 21
19, 20
12, 25
16, 14
14, 13
12, 18
11, 12
14, 10
9, 13
10, 10
15, 9
5, 8
13, 15
10, 11
11, 15
20, 18
23, 21
12, 26
14, 20
29, 30
31, 36
31, 31
27, 23
22, 33
20, 33
19, 21
19, 24
14, 14
7, 13
15, 12
9, 13
11, 11
8, 14
12, 17
8, 14
21, 22
15, 29
27, 38
23, 45
27, 55
34, 49
51, 60
44, 49
47, 58
38, 39
34, 34
32, 29
26, 26
22, 19
18, 16
20, 13
21, 34
35, 43
47, 66
81, 126
165, 208
251, 347
428, 568
681, 840
953, 1225
1209, 1492
1424, 1740
1622, 1843
1593, 1768
1471, 1637
1187, 1291
964, 979
742, 681
448, 445
302, 263
156, 146
105, 76
52, 56
33, 37
21, 19
13, 15
16, 18
19, 11
21, 23
16, 19
23, 24
25, 30
35, 38
46, 57
61, 67
92, 127
143, 150
171, 214
204, 258
227, 275
261, 295
251, 281
268, 218
196, 215
135, 125
122, 99
68, 72
46, 42
30, 24
12, 18
12, 12
7, 6
7, 19
8, 14
8, 8
14, 10
11, 18
7, 13
19, 18
9, 6
14, 14
12, 9
11, 9
4, 12
6, 4
9, 7
7, 3
6, 9
3, 9
6, 5
4, 5
6, 6
5, 7
4, 7
8, 4
7, 5
4, 8
12, 3
10, 5
7, 6
6, 7
7, 7
6, 10
7, 6
7, 4
10, 5
3, 7
11, 10
4, 7
7, 10
2, 20
10, 11
5, 8
6, 7
6, 7
1, 10
6, 8
7, 10
8, 8
8, 7
4, 5
6, 6
8, 4
4, 9
8, 6
10, 15
14, 13
8, 5
6, 7
8, 11
9, 13
7, 6
5, 11
7, 6
4, 8
4, 3
3, 3
3, 6
5, 5
8, 7
7, 2
4, 7
5, 3
8, 8
9, 6
6, 9
3, 8
5, 5
7, 2
5, 8
2, 4
1, 6
6, 2
6, 2
4, 7
3, 5
5, 9
4, 5
7, 3
6, 2
4, 5
8, 3
5, 4
2, 8
1, 2
1, 4
5, 8
7, 5
4, 6
8, 8
3, 5
4, 6
3, 5
5, 3
4, 3
6, 7
2, 2
6, 5
1, 5
7, 3
6, 7
2, 4
3, 2
5, 5
4, 3
2, 2
3, 3
5, 1
3, 5
3, 4
5, 5
2, 8
3, 4
8, 4
3, 3
3, 4
7, 6
3, 3
3, 4
4, 2
4, 1
3, 6
4, 3
7, 4
2, 4
5, 3
1, 3
5, 4
2, 4
3, 4
2, 4
4, 4
2, 3
5, 1
4, 4
3, 4
1, 6
2, 5
2, 1
8, 0
1, 3
2, 1
3, 4
3, 4
4, 4
2, 3
3, 4
1, 2
3, 2
2, 5
0, 6
2, 3
1, 2
4, 4
2, 0
2, 3
2, 1
3, 0
2, 8
2, 3
4, 2
2, 1
2, 2
3, 2
2, 2
4, 0
3, 2
3, 2
4, 6
1, 2
2, 2
4, 4
4, 0
4, 2
2, 3
2, 1
4, 2
2, 3
0, 0
0, 1
2, 2
0, 3
3, 2
1, 3
2, 2
4, 4
2, 4
3, 4
4, 4
4, 2
2, 2
2, 5
7, 5
1, 4
2, 2
0, 1
3, 4
6, 2
4, 4
1, 1
1, 3
1, 3
1, 0
0, 2
3, 2
2, 2
0, 4
1, 2
1, 4
2, 2
2, 2
0, 0
2, 1
4, 3
0, 4
2, 2
2, 3
5, 3
0, 4
1, 2
2, 6
3, 3
3, 3
2, 2
2, 0
1, 6
4, 3
0, 0
2, 3
3, 3
2, 1
4, 1
2, 3
2, 1
0, 0
2, 3
2, 3
3, 1
4, 2
4, 2
2, 1
2, 1
3, 0
1, 2
0, 2
2, 4
0, 1
2, 2
2, 0
1, 4
1, 0
1, 2
0, 2
0, 0
1, 4
1, 3
2, 1
0, 2
2, 3
0, 3
1, 1
2, 0
2, 1
1, 1
4, 1
1, 2
0, 1
1, 0
1, 1
1, 0
1, 1
0, 2
3, 1
0, 0
2, 3
2, 2
0, 1
2, 1
0, 1
1, 0
3, 1
0, 1
1, 0
2, 0
0, 1
2, 0
1, 1
2, 0
0, 0
1, 0
0, 1
1, 3
0, 1
1, 1
2, 1
0, 2
2, 2
2, 2
1, 0
0, 1
4, 0
0, 1
1, 0
1, 0
2, 0
1, 0
3, 0
1, 1
0, 1
0, 0
1, 2
1, 4
0, 3
0, 0
1, 1
2, 1
3, 1
1, 2
3, 1
0, 2
0, 0
1, 0
1, 0
1, 0
1, 1
4, 0
0, 0
0, 3
1, 1
0, 1
0, 1
1, 0
1, 1
0, 0
1, 0
0, 0
2, 0
0, 0
1, 0
0, 0
1, 1
2, 0
0, 2
0, 0
2, 0
0, 1
2, 0
2, 0
1, 2
1, 1
0, 1
0, 0
1, 1
0, 0
1, 0
0, 2
0, 0
0, 1
2, 1
0, 2
0, 0
0, 2
0, 0
1, 0
3, 0
0, 0
0, 0
1, 1
1, 0
0, 0
0, 0
1, 0
0, 0
1, 2
1, 0
0, 1
0, 2
0, 1
0, 0
2, 1
2, 0
0, 3
0, 1
2, 1
1, 0
0, 1
1, 0
0, 0
0, 0
0, 0
0, 1
0, 0
1, 1
1, 0
0, 0
1, 0
0, 0
0, 1
0, 1
0, 0
0, 1
0, 0
1, 0
0, 0
0, 0
0, 0
0, 1
0, 0
0, 0
0, 0
0, 0
0, 0
0, 1
0, 0
1, 0
0, 0
0, 0
0, 2
0, 0
2, 1
0, 0
0, 0
0, 0
0, 0
0, 2
0, 0
0, 1
0, 1
0, 0
0, 0
0, 1
0, 0
0, 1
0, 0
0, 0
1, 0
0, 0
1, 1
0, 0
0, 0
0, 0
0, 0
0, 0
0, 0
1, 0
0, 0
1, 0
0, 0
1, 0
1, 0
0, 1
0, 0
1, 0
0, 0
0, 1
0, 0
0, 0
1, 0
0, 0
0, 0
0, 0
0, 0
0, 1
2, 0
0, 0
0, 0
1, 0
1, 1
0, 1
1, 0
0, 0
0, 0
0, 0
0, 0
1, 1
1, 0
0, 2
2, 0
0, 0
0, 0
0, 0
0, 0
0, 1
0, 0
0, 0
0, 0
0, 1
0, 1
0, 0
0, 0
0, 0
0, 1
0, 0
0, 0
0, 0
0, 0
0, 0
1, 0
0, 0
0, 0
0, 0
0, 1
0, 0
0, 0
0, 0
0, 0
1, 1
0, 0
2, 0
0, 0
0, 0
0, 0
0, 1
1, 1
0, 1
0, 0
0, 0
0, 1
0, 1
0, 0
0, 0
0, 1
0, 0
0, 0
0, 0
0, 0
0, 0
2, 0
0, 1
0, 0
0, 1
0, 0
0, 0
0, 1
0, 0
1, 0
0, 0
0, 0
1, 0
1, 0
0, 0
0, 0
0, 0
0, 0
0, 0
1, 0
0, 0
0, 0
0, 0
0, 0
0, 0
0, 0
0, 0
0, 0
0, 0
0, 0
0, 0
0, 0
0, 1
1, 0
0, 0
0, 0
0, 0
0, 0
0, 0
0, 0
0, 0
0, 0
0, 0
0, 0
0, 0
0, 0
0, 0
0, 0
0, 0
0, 1
0, 0
0, 0
1, 0
0, 0
0, 0
0, 0
0, 0
0, 0
0, 0
0, 0
1, 0
0, 0
0, 0
0, 0
0, 0
0, 0
0, 0
0, 0
0, 0
0, 0
0, 0
0, 0
0, 0
0, 0
0, 0
0, 0
1, 0
0, 0
0, 0
0, 0
0, 0
0, 0
0, 0
0, 0
0, 0
0, 0
0, 0
0, 0
0, 0
0, 0
0, 0
0, 0
0, 0
0, 0
0, 0
0, 0
0, 0
0, 0
0, 0
0, 0
0, 0
0, 0
0, 0
0, 0
0, 0
0, 0
0, 0
0, 0
0, 0
0, 0
0, 0
0, 0
0, 0
0, 0
0, 0
1, 0
0, 0
0, 0
0, 0
0, 0
0, 0
0, 0
0, 0
0, 0
0, 0
0, 0
0, 0
0, 0
0, 0
0, 0
1, 0
0, 0
0, 0
0, 0
0, 0
0, 0
0, 0
0, 0
0, 0
0, 0
0, 0
0, 0
0, 0
0, 0
0, 0
0, 1
0, 0
0, 0
0, 0
0, 0
0, 0
0, 0
0, 0
0, 0
0, 0
1, 0
0, 0
0, 0
0, 0
0, 0
0, 0
0, 0
0, 0
0, 0
0, 0
0, 0
0, 0
0, 0
0, 0
0, 0
0, 0
0, 0
0, 0
0, 0
0, 0
0, 0
0, 0
0, 0
0, 0
0, 0
0, 0
0, 0
0, 0
0, 0
0, 0
0, 0
0, 0
0, 0
0, 0
0, 0
0, 0
0, 0
0, 0
0, 0
0, 0
0, 0
0, 0
0, 0
0, 0
0, 0
0, 0
0, 0
0, 0
0, 0
0, 0
0, 0
0, 0
0, 0
0, 0
0, 0
0, 0
0, 0
0, 0
0, 0
0, 0
0, 0
0, 0
0, 0
0, 0
0, 0
0, 0
0, 0
0, 0
0, 0
0, 0
0, 0
0, 0
0, 0
0, 0
0, 0
0, 0
0, 0
0, 0
0, 0
0, 0
0, 0
0, 0
0, 0
0, 0
0, 0
0, 0
0, 0
0, 0
0, 0
0, 0
0, 0
0, 0
0, 0
0, 0
0, 0
0, 0
0, 0
0, 0
0, 0
0, 0
0, 0
0, 0
0, 0
0, 0
0, 0
0, 0
0, 0
0, 0
0, 0
0, 0
0, 0
0, 0
0, 0
0, 0
0, 0
0, 0
0, 0
0, 0
0, 0
0, 0
0, 0
0, 0
0, 0
0, 0
0, 0
0, 0
0, 0
0, 0
0, 0
0, 0
0, 0
0, 0
0, 0
0, 0
0, 0
0, 0
0, 0
0, 0
0, 0
0, 0
0, 0
0, 0
0, 0
0, 0
0, 0
0, 0
0, 0
0, 0
0, 0
0, 0
0, 0
0, 0
0, 0
0, 0
0, 0
0, 0
0, 0
0, 0
0, 0
0, 0
0, 0
0, 0
0, 0
0, 0
0, 0
0, 0
0, 0
0, 0
0, 0
0, 0
0, 0
0, 0
0, 0
0, 0
0, 0
0, 0
0, 0
0, 0
0, 0
0, 0
0, 0
0, 0
0, 0
0, 0
0, 0
0, 0
0, 0
0, 0
0, 0
0, 0
0, 0
0, 0
0, 0
0, 0
0, 0
0, 0
0, 0
0, 0
0, 0
0, 0
0, 0
0, 0
0, 0
0, 0
0, 0
0, 0
0, 0
0, 0
0, 0
0, 0
0, 0
0, 0
0, 0
0, 0
0, 0
0, 0
0, 0
0, 0
0, 0
0, 0
0, 0
0, 0
0, 0
0, 0
0, 0
0, 0
0, 0
0, 0
0, 0
0, 0
0, 0
0, 0
0, 0
0, 0
0, 0
0, 0
0, 0
0, 0
0, 0
0, 0
0, 0
0, 0
0, 0
0, 0
0, 0
0, 0
0, 0
0, 0
0, 0
0, 0
0, 0
0, 0
0, 0
0, 0
0, 0
0, 0
0, 0
0, 0
0, 0
0, 0
0, 0
0, 0
0, 0
0, 0
0, 0
0, 0
0, 0
0, 0
0, 0
0, 0
0, 0
0, 0
0, 0
0, 0
0, 0
0, 0
0, 0
0, 0
0, 0
0, 0
0, 0
0, 0
0, 0
0, 0
0, 0
0, 0
0, 0
0, 0
0, 0
0, 0
0, 0
0, 0
0, 0
0, 0
0, 0
0, 0
0, 0
0, 0
0, 0
0, 0
0, 0
0, 0
0, 0
0, 0
0, 0
0, 0
0, 0
0, 0
0, 0
0, 0
0, 0
0, 0
0, 0
0, 0
0, 0
0, 0
0, 0
0, 0
0, 0
0, 0
0, 0
0, 0
0, 0
0, 0
0, 0
0, 0
0, 0
0, 0
0, 0
0, 0
0, 0
0, 0
0, 0
0, 0
0, 0
0, 0
0, 0
0, 0
0, 0
0, 0
0, 0
0, 0
0, 0
0, 0
0, 0
0, 0
0, 0
0, 0
0, 0
0, 0
0, 0
0, 0
0, 0
0, 0
0, 0
0, 0
0, 0
0, 0
0, 0
0, 0
0, 0
0, 0
0, 0
0, 0
0, 0
0, 0
#ENDOFDATA     end of spectrum data