File: host_upload/02-11-2024/rqc/uplink1/ps__0567_0717304816_000rfs_shot_102.msa
#FORMAT      : EMSA/MAS spectral data file
#VERSION     : TC202v2.0 PIXL
#TITLE       : Novarupta (sol567) subset1
#DATE        : 02-11-2024      Date in the format DD-MMM-YYYY, for example 07-JUL-2010
#TIME        :             The time of day at which the spectrum was recorded, in 24-hour format
#OWNER       : PIXL Flight Model       (PIXL will use this to indicate which instrument took the data.)
#NPOINTS     : 4096     Number of data points in the spectrum (This can be zero for configuration only files)
#NCOLUMNS    : 2     Number of data columns in the spectrum (This can be zero for configuration only files)
#XUNITS      : eV
#YUNITS      : COUNTS
#DATATYPE    : YY
#XPERCHAN    : 7.862, 7.881   eV per channel (separate by commas if more than one detector)
#OFFSET      : 18.5, -22.4         eV of first channel  (separate by commas if more than one detector
#SIGNALTYPE  : XRF
#YP_TEMP     : -1.004
#LIVETIME    : 8.85267, 8.82118   seconds (separate by commas if more than one detector)
#REALTIME    : 10, 10.0   seconds (separate by commas if more than one detector)
#SPECTRUM    : start of spectrum data
0, 0
0, 0
0, 0
0, 0
0, 0
0, 0
0, 0
0, 0
0, 0
0, 0
0, 0
0, 0
0, 0
0, 0
0, 0
0, 0
0, 0
0, 0
0, 0
0, 0
0, 0
0, 0
0, 0
0, 0
0, 0
0, 0
0, 0
0, 0
0, 0
0, 0
0, 0
0, 0
0, 0
1, 2
2, 0
2, 0
3, 3
8, 3
3, 3
5, 1
2, 3
3, 6
0, 3
2, 3
3, 3
1, 6
3, 4
1, 5
3, 3
7, 5
7, 6
4, 9
23, 9
19, 11
23, 14
10, 14
13, 16
10, 17
8, 17
8, 10
18, 20
26, 18
37, 39
34, 54
37, 51
50, 47
44, 39
32, 37
47, 42
54, 69
110, 124
183, 237
304, 322
379, 436
444, 516
432, 560
398, 432
316, 340
238, 232
156, 140
69, 80
52, 38
36, 32
34, 28
28, 36
24, 32
33, 28
34, 22
20, 19
18, 26
15, 16
17, 17
19, 26
43, 43
67, 99
131, 131
190, 220
238, 281
252, 337
285, 290
193, 251
186, 206
130, 129
85, 99
65, 64
44, 58
52, 63
70, 71
92, 100
114, 139
155, 187
174, 245
181, 218
198, 223
185, 197
160, 142
127, 126
98, 120
84, 72
74, 86
73, 63
49, 66
63, 57
56, 44
42, 47
50, 42
26, 37
29, 23
14, 16
17, 21
7, 8
6, 12
8, 7
9, 5
7, 7
2, 6
16, 18
9, 11
18, 22
30, 25
25, 34
19, 33
20, 34
22, 22
21, 26
14, 10
3, 9
10, 11
7, 14
20, 27
32, 33
54, 68
84, 93
159, 163
223, 247
283, 315
316, 405
349, 408
329, 359
257, 315
210, 194
167, 151
88, 107
53, 62
35, 35
32, 27
25, 27
41, 39
52, 66
48, 60
52, 70
56, 79
42, 59
43, 47
32, 37
23, 19
26, 20
15, 12
11, 7
6, 8
9, 11
14, 9
12, 13
11, 11
12, 10
15, 11
13, 23
18, 36
45, 36
35, 41
52, 61
56, 57
51, 68
48, 47
43, 60
40, 49
28, 38
30, 28
10, 23
19, 15
13, 13
11, 11
6, 8
8, 14
10, 15
13, 15
20, 18
13, 26
13, 20
14, 18
16, 18
14, 16
17, 22
13, 8
12, 12
11, 9
2, 15
8, 12
9, 12
13, 5
9, 9
12, 9
8, 16
13, 17
11, 17
10, 23
20, 27
22, 27
26, 22
27, 43
30, 31
24, 25
22, 42
17, 23
24, 27
11, 15
18, 16
12, 8
10, 11
12, 13
12, 18
8, 13
11, 10
17, 11
18, 15
16, 22
29, 31
45, 36
42, 57
44, 47
50, 65
48, 61
44, 47
38, 33
33, 27
27, 35
22, 29
22, 17
18, 22
19, 22
12, 24
31, 42
50, 77
84, 115
116, 220
228, 335
384, 530
637, 829
876, 1164
1245, 1468
1520, 1793
1651, 1913
1646, 1834
1575, 1694
1304, 1369
1011, 1042
750, 756
509, 460
317, 285
183, 164
113, 74
57, 42
31, 33
26, 19
17, 16
15, 25
16, 16
13, 21
17, 17
25, 21
22, 33
28, 47
27, 43
78, 90
86, 116
121, 166
159, 186
205, 259
245, 291
283, 297
242, 253
231, 240
223, 189
163, 142
128, 95
78, 72
54, 48
36, 29
12, 17
14, 11
8, 12
11, 8
5, 11
4, 11
7, 12
10, 18
10, 13
18, 12
10, 14
11, 11
8, 19
6, 12
8, 6
3, 4
5, 13
8, 5
3, 7
5, 7
5, 7
8, 5
2, 5
6, 7
7, 4
9, 2
6, 4
6, 7
5, 4
13, 5
6, 4
2, 15
9, 6
6, 9
4, 8
3, 8
3, 6
2, 7
10, 5
7, 6
5, 10
6, 5
5, 5
6, 9
12, 11
10, 5
6, 11
8, 13
5, 6
5, 10
6, 6
2, 7
3, 5
7, 8
10, 9
8, 8
10, 11
10, 12
13, 17
9, 6
9, 11
5, 10
8, 10
11, 11
14, 5
7, 6
8, 6
5, 6
4, 5
5, 5
1, 8
4, 4
9, 4
10, 3
6, 7
6, 5
9, 1
2, 6
7, 6
3, 9
6, 7
4, 4
10, 7
3, 6
2, 6
7, 5
4, 4
5, 7
8, 3
3, 5
11, 8
4, 5
6, 4
9, 6
2, 3
4, 3
5, 7
6, 8
2, 4
2, 8
5, 3
7, 6
2, 6
4, 4
6, 3
2, 5
3, 2
1, 9
1, 5
6, 2
2, 3
6, 4
4, 4
6, 6
3, 2
5, 5
5, 4
6, 5
0, 4
3, 4
6, 2
3, 4
4, 4
7, 3
4, 3
1, 5
8, 2
2, 2
1, 4
3, 5
7, 4
4, 3
6, 3
4, 7
2, 2
1, 4
2, 3
3, 2
3, 0
5, 4
3, 6
2, 5
4, 2
1, 4
2, 10
3, 5
3, 3
7, 4
3, 5
3, 6
1, 1
4, 5
4, 3
2, 2
4, 3
3, 1
1, 3
3, 4
0, 6
3, 3
1, 6
9, 4
1, 2
2, 2
1, 3
1, 6
1, 4
3, 3
3, 4
4, 2
3, 3
4, 4
0, 7
3, 2
2, 2
1, 3
1, 1
3, 2
2, 2
1, 4
4, 2
6, 1
1, 3
0, 6
0, 2
1, 5
0, 1
1, 0
2, 1
3, 5
3, 1
5, 1
1, 3
3, 3
1, 2
4, 3
1, 2
3, 2
3, 2
5, 2
0, 3
2, 1
0, 1
3, 4
1, 5
1, 6
1, 1
1, 0
2, 1
1, 0
0, 0
4, 3
1, 2
1, 2
1, 3
2, 1
2, 2
0, 0
1, 1
5, 1
1, 0
2, 2
2, 4
0, 3
2, 1
4, 0
0, 1
3, 1
1, 2
5, 4
1, 5
3, 6
4, 6
2, 0
3, 8
3, 1
2, 3
1, 1
1, 4
3, 3
0, 4
4, 3
4, 1
1, 0
1, 1
1, 4
4, 0
2, 1
0, 2
1, 2
2, 0
3, 2
1, 2
0, 2
0, 3
2, 0
2, 2
6, 0
1, 0
1, 1
1, 3
2, 2
3, 2
0, 1
1, 2
1, 1
1, 1
2, 0
2, 3
2, 0
1, 0
0, 1
0, 1
3, 0
0, 1
1, 0
1, 0
2, 2
2, 5
2, 1
1, 1
2, 1
3, 8
0, 2
2, 1
0, 0
0, 0
3, 0
2, 3
0, 2
2, 2
1, 1
2, 1
1, 1
1, 0
1, 1
0, 1
1, 2
0, 0
1, 1
1, 0
0, 1
3, 0
0, 2
1, 1
0, 0
2, 1
1, 2
0, 0
0, 0
2, 1
0, 0
1, 0
2, 1
0, 0
2, 2
0, 1
1, 1
2, 2
0, 0
0, 2
2, 0
1, 0
1, 3
1, 0
0, 0
0, 2
0, 1
1, 0
0, 0
1, 1
0, 1
2, 0
1, 2
0, 0
0, 2
0, 0
1, 1
1, 0
2, 0
0, 0
0, 2
1, 0
0, 1
0, 0
0, 1
0, 1
0, 0
0, 0
1, 1
1, 1
0, 0
1, 0
0, 0
0, 1
0, 2
0, 0
0, 1
0, 1
1, 0
0, 1
0, 0
2, 2
2, 2
1, 3
1, 0
0, 1
0, 1
1, 0
2, 1
1, 1
0, 1
0, 1
0, 1
1, 0
0, 0
2, 0
1, 1
0, 0
1, 0
0, 0
1, 0
0, 0
2, 1
0, 0
1, 0
1, 2
1, 0
0, 0
0, 1
0, 0
0, 0
0, 1
0, 1
0, 0
1, 1
1, 0
1, 0
1, 0
0, 2
0, 0
0, 1
0, 0
0, 0
1, 1
0, 0
0, 0
0, 0
0, 1
1, 2
0, 0
1, 0
0, 0
0, 1
0, 1
0, 0
0, 0
0, 0
0, 0
1, 0
0, 1
0, 0
0, 0
0, 0
1, 0
0, 1
1, 1
0, 0
0, 0
0, 0
0, 0
0, 1
0, 0
1, 0
0, 1
2, 0
0, 0
0, 0
0, 0
0, 1
0, 1
0, 0
0, 0
0, 0
0, 1
0, 2
0, 0
0, 0
0, 0
0, 0
1, 1
1, 0
0, 1
0, 1
1, 1
0, 0
0, 0
0, 1
0, 0
0, 0
0, 0
0, 0
0, 0
0, 1
0, 0
0, 0
0, 0
1, 0
1, 0
0, 0
0, 0
1, 0
1, 0
0, 0
0, 0
0, 0
0, 0
0, 0
2, 0
1, 1
0, 0
0, 0
0, 1
0, 0
0, 1
1, 0
0, 0
1, 0
0, 0
0, 0
0, 1
0, 0
0, 0
0, 2
0, 0
0, 0
0, 0
0, 0
0, 0
0, 0
0, 0
0, 0
0, 0
0, 0
1, 1
0, 0
0, 0
0, 0
0, 0
0, 0
0, 1
0, 0
0, 0
0, 0
0, 1
0, 1
0, 0
0, 0
0, 0
0, 0
0, 0
0, 0
0, 1
0, 0
1, 0
0, 1
0, 0
1, 0
1, 0
0, 0
0, 0
0, 0
0, 0
0, 0
0, 0
0, 1
0, 0
1, 0
0, 0
1, 1
0, 0
0, 0
0, 0
0, 0
0, 0
0, 1
0, 0
1, 0
0, 0
1, 0
0, 0
0, 0
0, 0
0, 0
0, 0
0, 0
0, 0
0, 0
0, 0
0, 0
0, 0
0, 0
0, 0
0, 0
0, 0
0, 0
0, 0
0, 0
0, 0
0, 0
0, 0
0, 0
0, 0
0, 0
0, 0
0, 0
0, 0
0, 0
1, 1
0, 0
0, 1
0, 0
0, 0
0, 0
0, 0
0, 0
0, 0
0, 0
0, 0
0, 0
0, 0
0, 0
0, 0
0, 0
1, 1
0, 0
0, 0
0, 0
0, 0
0, 0
0, 0
0, 0
0, 0
0, 0
0, 1
0, 0
0, 0
0, 0
0, 0
0, 1
0, 0
0, 0
0, 0
1, 0
0, 0
0, 0
0, 0
0, 1
0, 0
0, 0
0, 0
0, 0
0, 0
0, 0
0, 1
0, 0
0, 0
1, 0
1, 0
0, 0
0, 0
0, 0
0, 0
0, 0
0, 0
0, 0
0, 1
0, 0
0, 0
0, 0
0, 1
0, 0
0, 0
0, 0
0, 0
0, 0
0, 0
0, 0
0, 0
0, 0
0, 0
0, 0
0, 0
0, 0
0, 0
0, 0
0, 0
0, 0
0, 0
0, 0
0, 0
0, 0
0, 0
0, 0
0, 0
0, 0
0, 0
0, 0
0, 0
0, 0
0, 0
0, 0
0, 0
0, 1
0, 0
0, 0
0, 0
0, 0
0, 0
0, 0
0, 0
0, 0
0, 0
0, 0
0, 0
0, 0
0, 0
0, 0
0, 0
0, 0
0, 0
0, 0
0, 1
0, 0
0, 0
0, 0
0, 0
0, 0
0, 0
0, 0
0, 0
0, 0
0, 0
0, 0
0, 0
0, 0
0, 0
0, 0
0, 0
0, 0
0, 0
0, 0
0, 0
0, 0
0, 0
0, 0
0, 0
0, 0
0, 0
0, 0
0, 0
0, 0
0, 0
0, 0
0, 0
0, 0
0, 0
0, 0
0, 0
0, 0
0, 0
0, 0
0, 0
0, 0
0, 0
0, 0
0, 0
0, 0
0, 0
0, 0
0, 0
0, 0
0, 0
0, 0
0, 0
0, 0
0, 0
0, 0
0, 0
0, 0
0, 0
0, 0
0, 0
0, 0
0, 0
0, 0
0, 0
0, 0
0, 0
0, 0
0, 0
0, 0
0, 0
0, 0
0, 0
0, 0
0, 0
0, 0
0, 0
0, 0
0, 0
0, 0
0, 0
0, 0
0, 0
0, 0
0, 0
0, 0
0, 0
0, 0
0, 0
0, 0
0, 0
0, 0
0, 0
0, 0
0, 0
0, 0
0, 0
0, 0
0, 0
0, 0
0, 0
0, 0
0, 0
0, 0
0, 0
0, 0
0, 0
0, 0
0, 0
0, 0
0, 0
0, 0
0, 0
0, 0
0, 0
0, 0
0, 0
0, 0
0, 0
0, 0
0, 0
0, 0
0, 0
0, 0
0, 0
0, 0
0, 0
0, 0
0, 0
0, 0
0, 0
0, 0
0, 0
0, 0
0, 0
0, 0
0, 0
0, 0
0, 0
0, 0
0, 0
0, 0
0, 0
0, 0
0, 0
0, 0
0, 0
0, 0
0, 0
0, 0
0, 0
0, 0
0, 0
0, 0
0, 0
0, 0
0, 0
0, 0
0, 0
0, 0
0, 0
0, 0
0, 0
0, 0
0, 0
0, 0
0, 0
0, 0
0, 0
0, 0
0, 0
0, 0
0, 0
0, 0
0, 0
0, 0
0, 0
0, 0
0, 0
0, 0
0, 0
0, 0
0, 0
0, 0
0, 0
0, 0
0, 0
0, 0
0, 0
0, 0
0, 0
0, 0
0, 0
0, 0
0, 0
0, 0
0, 0
0, 0
0, 0
0, 0
0, 0
0, 0
0, 0
0, 0
0, 0
0, 0
0, 0
0, 0
0, 0
0, 0
0, 0
0, 0
0, 0
0, 0
0, 0
0, 0
0, 0
0, 0
0, 0
0, 0
0, 0
0, 0
0, 0
0, 0
0, 0
0, 0
0, 0
0, 0
0, 0
0, 0
0, 0
0, 0
0, 0
0, 0
0, 0
0, 0
0, 0
0, 0
0, 0
0, 0
0, 0
0, 0
0, 0
0, 0
0, 0
0, 0
0, 0
0, 0
0, 0
0, 0
0, 0
0, 0
0, 0
0, 0
0, 0
0, 0
0, 0
0, 0
0, 0
0, 0
0, 0
0, 0
0, 0
0, 0
0, 0
0, 0
0, 0
0, 0
0, 0
0, 0
0, 0
0, 0
0, 0
0, 0
0, 0
0, 0
0, 0
0, 0
0, 0
0, 0
0, 0
0, 0
0, 0
0, 0
0, 0
0, 0
0, 0
0, 0
0, 0
0, 0
0, 0
0, 0
0, 0
0, 0
0, 0
0, 0
0, 0
0, 0
0, 0
0, 0
0, 0
0, 0
0, 0
0, 0
0, 0
0, 0
0, 0
0, 0
0, 0
0, 0
0, 0
0, 0
0, 0
0, 0
0, 0
0, 0
0, 0
0, 0
0, 0
0, 0
0, 0
0, 0
0, 0
0, 0
0, 0
0, 0
0, 0
0, 0
0, 0
0, 0
0, 0
0, 0
0, 0
0, 0
0, 0
0, 0
0, 0
0, 0
0, 0
0, 0
0, 0
0, 0
0, 0
0, 0
0, 0
0, 0
0, 0
0, 0
0, 0
0, 0
0, 0
0, 0
0, 0
0, 0
0, 0
0, 0
0, 0
0, 0
0, 0
0, 0
0, 0
0, 0
0, 0
0, 0
0, 0
0, 0
#ENDOFDATA     end of spectrum data