File: host_upload/02-11-2024/rqc/uplink1/ps__0567_0717304816_000rfs_shot_257.msa
#FORMAT      : EMSA/MAS spectral data file
#VERSION     : TC202v2.0 PIXL
#TITLE       : Novarupta (sol567) subset1
#DATE        : 02-11-2024      Date in the format DD-MMM-YYYY, for example 07-JUL-2010
#TIME        :             The time of day at which the spectrum was recorded, in 24-hour format
#OWNER       : PIXL Flight Model       (PIXL will use this to indicate which instrument took the data.)
#NPOINTS     : 4096     Number of data points in the spectrum (This can be zero for configuration only files)
#NCOLUMNS    : 2     Number of data columns in the spectrum (This can be zero for configuration only files)
#XUNITS      : eV
#YUNITS      : COUNTS
#DATATYPE    : YY
#XPERCHAN    : 7.862, 7.881   eV per channel (separate by commas if more than one detector)
#OFFSET      : 18.5, -22.4         eV of first channel  (separate by commas if more than one detector
#SIGNALTYPE  : XRF
#YP_TEMP     : 1.177
#LIVETIME    : 8.82972, 8.64149   seconds (separate by commas if more than one detector)
#REALTIME    : 10, 10.0   seconds (separate by commas if more than one detector)
#SPECTRUM    : start of spectrum data
0, 0
0, 0
0, 0
0, 0
0, 0
0, 0
0, 0
0, 0
0, 0
0, 0
0, 0
0, 0
0, 0
0, 0
0, 0
0, 0
0, 0
0, 0
0, 0
0, 0
0, 0
0, 0
0, 0
0, 0
0, 0
0, 0
0, 0
0, 0
0, 0
0, 0
0, 1
0, 0
0, 0
1, 1
1, 1
2, 1
1, 5
1, 2
3, 2
5, 6
1, 6
6, 6
6, 3
3, 8
5, 3
0, 4
2, 3
2, 8
5, 3
7, 5
4, 6
10, 14
9, 15
7, 17
13, 11
11, 17
16, 11
13, 17
15, 12
11, 11
21, 17
24, 33
46, 49
42, 52
55, 55
34, 51
46, 29
37, 32
25, 44
59, 74
92, 122
188, 217
295, 347
400, 438
468, 520
473, 487
450, 456
320, 368
210, 243
140, 142
84, 73
46, 59
32, 49
27, 22
30, 40
29, 45
34, 48
33, 33
25, 27
25, 32
14, 25
21, 14
25, 25
39, 49
70, 103
142, 151
196, 211
251, 278
269, 303
322, 306
231, 272
213, 241
133, 141
104, 106
70, 81
63, 62
53, 72
67, 66
96, 97
135, 158
168, 201
217, 203
215, 259
263, 247
180, 200
147, 167
126, 126
128, 115
100, 99
58, 88
87, 100
66, 74
60, 56
66, 55
38, 39
49, 26
21, 41
22, 20
25, 15
13, 17
7, 18
7, 7
8, 7
11, 6
5, 13
7, 8
12, 11
12, 21
11, 10
21, 24
29, 28
24, 39
29, 38
24, 36
19, 23
12, 20
15, 11
11, 12
10, 15
16, 24
32, 33
57, 49
80, 106
136, 150
186, 249
258, 300
322, 389
390, 450
337, 428
324, 318
254, 250
159, 164
105, 97
55, 65
37, 36
21, 30
28, 35
35, 41
42, 54
42, 47
58, 57
58, 66
57, 56
34, 60
23, 45
25, 22
21, 12
14, 22
8, 11
10, 16
6, 14
10, 13
5, 10
11, 12
2, 18
14, 15
11, 28
31, 27
30, 38
38, 59
53, 62
70, 67
64, 68
67, 76
52, 65
40, 37
31, 31
27, 40
25, 27
11, 15
24, 20
12, 18
15, 14
12, 9
13, 12
7, 15
21, 12
21, 7
17, 18
18, 19
20, 14
20, 23
17, 23
16, 15
15, 12
14, 13
8, 13
18, 6
11, 13
17, 13
13, 17
10, 9
12, 11
12, 13
12, 18
19, 19
15, 14
19, 33
32, 21
28, 28
30, 29
33, 39
29, 36
32, 39
18, 23
11, 20
10, 13
12, 13
9, 9
13, 15
5, 12
10, 14
13, 20
14, 25
14, 12
24, 21
21, 34
33, 41
36, 44
41, 48
48, 50
54, 37
49, 52
38, 45
34, 39
22, 41
28, 28
18, 16
24, 25
22, 17
15, 19
28, 30
50, 37
73, 100
131, 136
229, 322
395, 467
556, 782
866, 1069
1200, 1446
1407, 1705
1606, 1834
1760, 1884
1703, 1682
1423, 1425
1152, 1132
901, 789
591, 525
333, 301
238, 190
99, 105
63, 46
45, 38
31, 28
25, 16
16, 19
15, 16
20, 16
17, 16
15, 22
21, 35
36, 49
28, 41
69, 69
73, 109
131, 140
162, 194
188, 220
251, 268
241, 299
245, 296
243, 232
221, 198
179, 161
143, 123
91, 90
56, 49
25, 27
26, 17
12, 9
5, 7
8, 10
10, 8
6, 12
9, 9
12, 10
15, 16
20, 18
6, 12
16, 15
7, 10
5, 12
10, 12
11, 7
7, 7
4, 5
9, 7
7, 7
10, 2
3, 2
6, 8
2, 9
7, 9
8, 6
5, 4
8, 4
9, 8
7, 2
4, 8
7, 10
10, 11
5, 8
6, 8
4, 4
5, 6
6, 7
6, 10
12, 7
14, 5
13, 9
5, 2
5, 4
8, 7
7, 8
11, 9
7, 11
6, 9
13, 6
8, 4
7, 11
8, 11
10, 6
12, 13
6, 12
13, 9
11, 8
5, 12
9, 12
10, 15
5, 15
6, 8
7, 9
8, 12
8, 3
5, 7
7, 8
4, 10
5, 5
3, 8
6, 9
8, 5
8, 7
4, 6
7, 3
6, 3
3, 6
8, 8
3, 6
4, 6
3, 9
10, 5
3, 6
4, 5
6, 4
4, 5
8, 7
2, 7
4, 9
6, 4
8, 5
2, 3
5, 2
4, 4
6, 6
5, 8
6, 6
3, 10
9, 12
3, 7
3, 2
7, 5
3, 5
3, 2
2, 8
4, 5
7, 0
7, 2
2, 8
8, 4
3, 5
5, 1
4, 2
5, 8
3, 2
8, 1
5, 2
1, 5
6, 1
1, 4
6, 6
8, 6
5, 10
2, 4
3, 4
2, 3
7, 1
5, 4
4, 5
6, 2
6, 2
4, 4
8, 2
2, 5
4, 2
2, 3
4, 5
4, 2
4, 3
4, 2
2, 6
2, 0
2, 4
6, 4
5, 0
6, 5
4, 7
1, 2
5, 5
4, 4
0, 4
1, 5
3, 4
1, 3
3, 5
3, 3
4, 2
1, 4
2, 5
2, 3
3, 2
6, 1
6, 1
1, 5
3, 2
1, 1
0, 1
3, 5
2, 4
1, 3
3, 2
1, 3
3, 3
3, 4
1, 1
3, 4
1, 1
2, 1
2, 5
2, 1
3, 3
2, 0
0, 2
2, 2
2, 5
3, 2
4, 2
1, 3
2, 2
1, 3
2, 1
3, 4
4, 4
1, 2
1, 2
3, 2
4, 1
3, 2
3, 0
1, 4
2, 3
3, 1
1, 1
1, 0
0, 2
2, 1
2, 2
1, 1
4, 0
0, 1
3, 3
3, 1
1, 7
3, 2
2, 1
3, 1
1, 4
2, 3
1, 4
1, 3
4, 2
1, 3
2, 4
1, 2
6, 2
2, 4
3, 1
5, 4
4, 2
2, 4
3, 0
3, 1
8, 5
2, 2
0, 3
2, 2
2, 2
1, 0
6, 1
2, 2
1, 0
2, 4
5, 0
0, 0
2, 3
3, 1
2, 0
0, 2
1, 0
3, 1
4, 3
1, 4
4, 1
0, 1
2, 1
3, 2
1, 2
2, 1
2, 1
2, 2
3, 3
0, 0
2, 3
2, 2
1, 2
0, 1
1, 2
1, 0
1, 0
2, 0
3, 1
2, 2
1, 1
3, 0
1, 0
0, 0
0, 2
2, 1
1, 3
1, 1
2, 1
1, 1
1, 0
0, 1
1, 2
1, 1
2, 3
1, 0
2, 1
0, 0
0, 2
0, 2
1, 0
0, 3
1, 1
0, 2
1, 0
0, 0
2, 0
0, 3
1, 0
0, 0
1, 0
1, 1
1, 0
0, 1
3, 0
0, 1
0, 1
1, 2
1, 2
1, 0
1, 1
1, 0
0, 1
0, 1
1, 2
1, 0
1, 0
1, 2
0, 1
0, 1
2, 0
2, 1
1, 0
0, 2
1, 1
1, 0
0, 2
1, 0
0, 1
0, 2
0, 0
1, 3
1, 0
2, 0
2, 1
0, 2
0, 0
0, 2
0, 1
0, 0
0, 1
1, 0
0, 0
0, 0
0, 2
0, 1
0, 0
0, 0
0, 0
0, 2
0, 0
0, 1
0, 2
3, 0
0, 1
0, 1
0, 1
2, 2
1, 2
1, 0
2, 0
1, 0
0, 1
0, 1
2, 1
0, 0
2, 0
1, 0
0, 0
0, 0
1, 2
0, 1
0, 1
0, 0
0, 0
0, 1
0, 3
1, 1
1, 1
0, 1
0, 0
0, 1
0, 0
0, 0
0, 0
0, 0
0, 0
0, 0
0, 0
3, 0
0, 0
0, 1
0, 1
1, 0
0, 0
0, 1
0, 0
0, 0
2, 0
1, 1
0, 0
0, 0
0, 1
0, 1
1, 0
1, 2
1, 1
0, 0
0, 0
0, 1
0, 0
0, 0
1, 0
0, 0
0, 0
0, 0
0, 1
0, 0
1, 0
0, 0
0, 0
1, 1
0, 0
0, 1
0, 0
0, 0
0, 2
1, 0
1, 0
0, 1
0, 0
0, 0
0, 0
0, 0
1, 0
0, 1
1, 0
0, 0
0, 0
0, 1
0, 0
0, 0
0, 0
1, 0
0, 1
0, 0
0, 0
0, 2
0, 0
0, 0
0, 0
0, 1
0, 0
0, 0
1, 0
1, 0
0, 0
0, 0
0, 1
1, 0
0, 1
0, 0
0, 1
0, 1
1, 0
0, 0
0, 0
1, 0
1, 0
0, 0
0, 1
0, 0
0, 0
0, 0
0, 0
1, 0
0, 0
0, 1
1, 0
0, 0
0, 0
0, 0
0, 1
0, 1
0, 0
0, 1
0, 0
0, 1
0, 0
0, 3
2, 0
0, 0
0, 1
0, 0
0, 0
0, 0
0, 0
1, 0
0, 0
0, 0
0, 0
0, 0
1, 0
0, 0
0, 0
0, 1
0, 0
0, 0
0, 0
1, 0
0, 0
0, 0
0, 0
0, 0
0, 0
0, 0
0, 0
1, 0
0, 1
0, 0
0, 0
0, 0
0, 0
0, 0
0, 0
0, 0
0, 0
0, 0
0, 0
0, 0
0, 0
0, 0
0, 0
1, 0
0, 0
0, 0
1, 2
0, 0
0, 0
1, 0
0, 0
0, 0
0, 0
0, 0
0, 0
0, 0
0, 0
0, 0
0, 0
1, 1
0, 0
1, 0
0, 0
0, 0
0, 0
0, 1
0, 0
0, 0
0, 0
0, 0
0, 0
0, 0
0, 0
0, 0
0, 0
0, 0
0, 0
0, 0
0, 0
0, 0
0, 0
0, 0
0, 0
0, 0
0, 0
0, 0
0, 0
0, 0
1, 0
0, 0
0, 0
0, 0
0, 0
0, 0
0, 0
1, 0
0, 0
0, 0
0, 0
0, 1
0, 0
0, 0
0, 0
0, 0
0, 0
0, 0
0, 0
0, 1
0, 0
0, 0
0, 0
0, 0
0, 0
0, 0
0, 0
0, 0
0, 0
0, 0
0, 0
0, 0
0, 0
0, 0
0, 0
0, 0
0, 0
0, 0
0, 0
0, 0
0, 0
0, 0
0, 0
0, 0
0, 0
0, 0
0, 0
0, 0
0, 0
0, 1
0, 0
0, 0
0, 0
0, 0
0, 0
0, 0
0, 0
0, 0
0, 0
0, 0
0, 0
0, 0
0, 0
0, 0
0, 0
0, 0
0, 0
0, 0
0, 0
0, 0
0, 0
0, 0
1, 0
0, 0
1, 0
0, 0
0, 0
0, 0
0, 0
0, 0
0, 0
0, 0
0, 0
0, 0
0, 0
0, 0
0, 0
0, 0
0, 0
0, 1
0, 0
0, 0
0, 0
0, 0
0, 0
0, 0
0, 0
0, 0
0, 0
0, 0
0, 0
0, 0
0, 0
0, 0
0, 0
0, 0
0, 0
0, 0
0, 0
0, 0
0, 0
0, 0
0, 0
0, 0
0, 0
0, 0
0, 0
0, 0
0, 0
0, 0
0, 0
0, 0
0, 0
0, 0
0, 0
0, 0
0, 0
0, 0
0, 0
0, 0
0, 0
0, 0
0, 0
0, 0
0, 0
0, 0
0, 0
0, 0
0, 0
0, 0
0, 0
0, 0
0, 0
0, 0
0, 0
0, 0
0, 0
0, 0
0, 0
0, 0
0, 0
0, 0
0, 0
0, 0
0, 0
0, 0
0, 0
0, 0
0, 0
0, 0
0, 0
0, 0
0, 0
0, 0
0, 0
0, 0
0, 0
0, 0
0, 0
0, 0
0, 0
0, 0
0, 0
0, 0
0, 0
0, 0
0, 0
0, 0
0, 0
0, 0
0, 0
0, 0
0, 0
0, 0
0, 0
0, 0
0, 0
0, 0
0, 0
0, 0
0, 0
0, 0
0, 0
0, 0
0, 0
0, 0
0, 0
0, 0
0, 0
0, 0
0, 0
0, 0
0, 0
0, 0
0, 0
0, 0
0, 0
0, 0
0, 0
0, 0
0, 0
0, 0
0, 0
0, 0
0, 0
0, 0
0, 0
0, 0
0, 0
0, 0
0, 0
0, 0
0, 0
0, 0
0, 0
0, 0
0, 0
0, 0
0, 0
0, 0
0, 0
0, 0
0, 0
0, 0
0, 0
0, 0
0, 0
0, 0
0, 0
0, 0
0, 0
0, 0
0, 0
0, 0
0, 0
0, 0
0, 0
0, 0
0, 0
0, 0
0, 0
0, 0
0, 0
0, 0
0, 0
0, 0
0, 0
0, 0
0, 0
0, 0
0, 0
0, 0
0, 0
0, 0
0, 0
0, 0
0, 0
0, 0
0, 0
0, 0
0, 0
0, 0
0, 0
0, 0
0, 0
0, 0
0, 0
0, 0
0, 0
0, 0
0, 0
0, 0
0, 0
0, 0
0, 0
0, 0
0, 0
0, 0
0, 0
0, 0
0, 0
0, 0
0, 0
0, 0
0, 0
0, 0
0, 0
0, 0
0, 0
0, 0
0, 0
0, 0
0, 0
0, 0
0, 0
0, 0
0, 0
0, 0
0, 0
0, 0
0, 0
0, 0
0, 0
0, 0
0, 0
0, 0
0, 0
0, 0
0, 0
0, 0
0, 0
0, 0
0, 0
0, 0
0, 0
0, 0
0, 0
0, 0
0, 0
0, 0
0, 0
0, 0
0, 0
0, 0
0, 0
0, 0
0, 0
0, 0
0, 0
0, 0
0, 0
0, 0
0, 0
0, 0
0, 0
0, 0
0, 0
0, 0
0, 0
0, 0
0, 0
0, 0
0, 0
0, 0
0, 0
0, 0
0, 0
0, 0
0, 0
0, 0
0, 0
0, 0
0, 0
0, 0
0, 0
0, 0
0, 0
0, 0
0, 0
0, 0
0, 0
0, 0
0, 0
0, 0
0, 0
0, 0
0, 0
0, 0
0, 0
0, 0
0, 0
0, 0
0, 0
0, 0
0, 0
0, 0
0, 0
0, 0
0, 0
0, 0
0, 0
0, 0
0, 0
0, 0
0, 0
0, 0
0, 0
0, 0
0, 0
0, 0
0, 0
0, 0
0, 0
0, 0
0, 0
0, 0
0, 0
0, 0
0, 0
0, 0
0, 0
0, 0
0, 0
0, 0
0, 0
0, 0
0, 0
0, 0
0, 0
0, 0
0, 0
0, 0
0, 0
0, 0
0, 0
0, 0
0, 0
0, 0
0, 0
0, 0
0, 0
0, 0
0, 0
0, 0
0, 0
0, 0
0, 0
0, 0
0, 0
0, 0
0, 0
0, 0
0, 0
0, 0
0, 0
0, 0
0, 0
0, 0
0, 0
0, 0
0, 0
0, 0
0, 0
0, 0
0, 0
0, 0
0, 0
0, 0
0, 0
0, 0
0, 0
0, 0
0, 0
0, 0
0, 0
0, 0
0, 0
0, 0
0, 0
0, 0
0, 0
0, 0
0, 0
0, 0
0, 0
0, 0
0, 0
#ENDOFDATA     end of spectrum data