File: host_upload/02-11-2024/rqc/uplink1/ps__0567_0717304816_000rfs_shot_424.msa
#FORMAT      : EMSA/MAS spectral data file
#VERSION     : TC202v2.0 PIXL
#TITLE       : Novarupta (sol567) subset1
#DATE        : 02-11-2024      Date in the format DD-MMM-YYYY, for example 07-JUL-2010
#TIME        :             The time of day at which the spectrum was recorded, in 24-hour format
#OWNER       : PIXL Flight Model       (PIXL will use this to indicate which instrument took the data.)
#NPOINTS     : 4096     Number of data points in the spectrum (This can be zero for configuration only files)
#NCOLUMNS    : 2     Number of data columns in the spectrum (This can be zero for configuration only files)
#XUNITS      : eV
#YUNITS      : COUNTS
#DATATYPE    : YY
#XPERCHAN    : 7.862, 7.881   eV per channel (separate by commas if more than one detector)
#OFFSET      : 18.5, -22.4         eV of first channel  (separate by commas if more than one detector
#SIGNALTYPE  : XRF
#YP_TEMP     : 1.69
#LIVETIME    : 8.85309, 8.8225   seconds (separate by commas if more than one detector)
#REALTIME    : 10, 10.0   seconds (separate by commas if more than one detector)
#SPECTRUM    : start of spectrum data
0, 0
0, 0
0, 0
0, 0
0, 0
0, 0
0, 0
0, 0
0, 0
0, 0
0, 0
0, 0
0, 0
0, 0
0, 0
0, 0
0, 0
0, 0
0, 0
0, 0
0, 0
0, 0
0, 0
0, 0
0, 0
0, 0
0, 0
0, 0
1, 0
0, 0
0, 0
0, 0
0, 1
2, 0
1, 2
1, 0
0, 0
1, 4
2, 5
3, 2
1, 4
2, 3
5, 3
3, 12
1, 2
7, 3
3, 4
3, 3
5, 6
8, 8
9, 5
5, 4
14, 10
17, 26
16, 16
17, 19
11, 14
6, 15
11, 9
15, 9
28, 13
21, 28
30, 57
33, 51
40, 57
36, 53
37, 33
27, 42
24, 40
37, 81
110, 112
192, 204
275, 339
352, 477
429, 550
463, 520
409, 454
302, 335
207, 219
120, 149
80, 90
40, 39
20, 39
26, 38
28, 36
29, 40
38, 33
27, 33
23, 25
21, 16
17, 19
19, 15
25, 20
35, 41
62, 98
119, 154
167, 214
264, 262
293, 335
257, 349
261, 290
196, 212
138, 160
83, 109
77, 70
55, 42
45, 56
63, 81
77, 114
134, 135
161, 202
209, 251
209, 247
228, 232
193, 200
143, 194
129, 148
113, 126
106, 110
81, 91
72, 90
78, 79
62, 79
61, 52
38, 57
39, 38
27, 28
29, 18
19, 15
10, 19
9, 9
10, 12
3, 4
7, 10
6, 7
6, 6
6, 5
9, 16
14, 19
32, 27
18, 24
24, 37
23, 26
30, 26
20, 22
15, 20
13, 9
11, 13
11, 13
9, 22
23, 27
46, 58
68, 121
123, 183
192, 250
252, 342
316, 396
377, 419
331, 406
306, 319
213, 263
138, 193
98, 105
61, 50
36, 41
26, 32
32, 37
23, 42
42, 47
44, 65
65, 65
63, 56
58, 65
40, 40
31, 38
31, 25
24, 17
11, 8
9, 10
8, 13
7, 10
4, 9
5, 17
6, 12
12, 9
20, 17
15, 27
24, 30
30, 29
38, 54
42, 66
64, 67
52, 77
66, 62
49, 60
32, 46
32, 39
26, 36
18, 25
14, 17
9, 18
15, 15
9, 11
10, 11
17, 10
14, 14
18, 12
17, 19
18, 22
10, 16
19, 21
13, 21
8, 17
12, 26
10, 23
15, 13
10, 9
8, 12
10, 8
5, 15
6, 11
13, 11
13, 11
13, 16
13, 16
13, 13
13, 27
24, 29
22, 38
26, 29
24, 42
37, 30
27, 37
12, 26
22, 18
16, 22
10, 13
10, 8
15, 10
7, 14
10, 14
9, 9
10, 18
5, 15
11, 18
14, 19
17, 27
30, 32
23, 43
46, 40
36, 54
47, 47
60, 54
45, 40
30, 35
39, 36
24, 23
15, 19
13, 19
17, 17
16, 23
23, 26
30, 48
59, 71
103, 159
178, 279
298, 482
529, 709
767, 1040
1107, 1438
1267, 1718
1559, 1858
1587, 1911
1583, 1802
1376, 1541
1104, 1174
852, 859
602, 547
348, 324
220, 186
106, 119
59, 65
27, 37
37, 28
23, 17
16, 13
10, 16
13, 19
17, 19
18, 16
20, 30
29, 43
34, 65
62, 72
81, 112
106, 136
125, 185
173, 239
205, 288
218, 255
260, 294
249, 267
224, 244
157, 188
105, 121
87, 78
49, 55
35, 29
31, 18
9, 12
6, 13
14, 7
4, 13
12, 7
11, 16
13, 7
14, 15
14, 17
13, 11
16, 17
11, 7
7, 9
7, 8
9, 9
6, 6
5, 9
6, 9
5, 5
7, 3
6, 3
4, 6
6, 6
7, 4
4, 5
3, 6
6, 2
3, 9
5, 9
4, 13
9, 7
9, 12
5, 7
2, 5
4, 6
6, 5
5, 7
7, 7
12, 4
10, 7
2, 6
5, 15
8, 3
4, 7
5, 12
6, 8
4, 9
8, 7
11, 4
5, 9
5, 9
9, 10
3, 9
12, 9
9, 6
10, 13
9, 12
10, 11
6, 8
12, 16
13, 11
11, 7
5, 6
6, 9
6, 8
0, 6
9, 12
4, 8
4, 6
7, 7
4, 9
6, 4
6, 10
6, 9
2, 10
8, 5
6, 5
2, 4
4, 2
9, 4
5, 5
7, 5
8, 5
2, 8
3, 4
3, 5
3, 10
3, 6
5, 5
7, 6
5, 5
4, 8
5, 9
5, 4
7, 5
6, 7
3, 7
4, 4
6, 8
5, 2
2, 6
9, 8
6, 10
2, 10
6, 8
5, 4
4, 5
5, 5
5, 5
6, 3
8, 4
4, 7
2, 5
2, 3
5, 5
9, 5
3, 7
6, 3
2, 5
4, 6
3, 6
6, 7
2, 4
8, 4
3, 3
4, 3
1, 4
2, 3
1, 5
4, 3
5, 3
3, 1
1, 7
3, 4
3, 5
1, 4
3, 5
4, 6
2, 5
1, 2
0, 4
1, 2
2, 5
2, 1
8, 4
2, 7
5, 4
2, 3
0, 1
2, 3
5, 1
2, 3
3, 4
5, 3
4, 1
4, 3
5, 1
4, 4
3, 3
4, 5
1, 3
3, 4
2, 1
0, 3
2, 2
0, 3
2, 7
3, 1
3, 3
3, 5
2, 3
0, 5
5, 4
2, 4
3, 4
1, 0
2, 3
4, 3
0, 3
5, 3
2, 0
2, 3
1, 4
0, 1
4, 4
3, 4
1, 4
1, 2
1, 0
3, 5
0, 2
5, 4
0, 3
2, 5
1, 1
0, 3
2, 0
3, 2
2, 0
2, 2
1, 2
0, 1
0, 3
3, 1
1, 3
1, 4
3, 3
5, 1
2, 2
5, 2
1, 3
2, 3
1, 2
1, 1
2, 1
3, 4
2, 1
1, 1
3, 1
1, 3
4, 1
0, 0
4, 2
1, 2
0, 1
0, 1
2, 2
1, 0
1, 1
2, 2
2, 11
6, 3
3, 0
2, 4
1, 2
4, 3
4, 2
1, 1
5, 4
2, 2
2, 2
0, 2
0, 1
3, 1
2, 1
2, 1
1, 1
1, 0
1, 2
2, 0
1, 1
1, 0
0, 3
1, 3
2, 1
2, 2
1, 3
2, 1
0, 3
2, 1
3, 3
3, 3
2, 3
0, 2
1, 2
0, 1
2, 2
2, 2
2, 7
0, 0
1, 1
2, 0
1, 3
2, 0
1, 0
1, 2
1, 3
1, 2
1, 1
1, 0
1, 1
2, 1
0, 4
2, 2
0, 1
1, 0
1, 0
1, 0
1, 2
0, 1
3, 0
2, 1
2, 0
0, 0
0, 2
0, 1
1, 2
3, 1
1, 1
0, 1
1, 0
2, 2
1, 2
0, 0
0, 1
2, 1
2, 1
1, 2
1, 0
0, 1
1, 2
0, 1
2, 0
0, 0
0, 1
1, 0
1, 1
0, 0
0, 1
0, 1
0, 2
0, 0
0, 0
1, 1
0, 1
0, 0
1, 0
1, 1
1, 1
0, 1
0, 1
0, 0
0, 2
1, 0
1, 0
0, 2
1, 0
0, 0
0, 2
1, 2
4, 2
0, 1
1, 0
0, 1
1, 2
0, 0
1, 0
1, 2
0, 1
0, 0
1, 1
1, 0
0, 1
0, 1
1, 0
0, 0
1, 1
1, 1
1, 2
1, 0
1, 2
0, 0
2, 0
0, 0
1, 1
0, 0
0, 0
0, 0
2, 0
0, 0
0, 0
1, 0
0, 1
0, 2
0, 0
0, 3
0, 0
0, 1
2, 1
1, 0
0, 1
0, 1
1, 1
0, 0
0, 1
0, 1
0, 1
2, 2
0, 0
0, 1
1, 0
0, 0
1, 1
0, 0
0, 1
0, 0
1, 1
0, 1
0, 0
0, 0
0, 0
1, 1
0, 1
1, 1
1, 0
1, 1
0, 1
0, 0
0, 0
1, 2
0, 0
2, 0
0, 0
0, 1
0, 0
0, 0
0, 0
0, 1
0, 2
0, 1
0, 0
0, 1
0, 0
0, 0
0, 1
0, 0
0, 0
0, 0
0, 0
0, 1
0, 1
0, 1
0, 0
0, 0
0, 1
1, 0
0, 0
1, 0
0, 0
0, 0
1, 1
0, 1
1, 0
0, 0
0, 0
1, 0
0, 2
0, 0
0, 0
0, 0
1, 0
0, 0
0, 0
0, 1
0, 0
1, 0
0, 0
1, 0
0, 1
0, 0
0, 0
0, 0
0, 1
0, 0
1, 0
0, 1
1, 0
0, 0
0, 0
1, 0
0, 0
0, 1
1, 0
0, 0
1, 0
0, 0
1, 0
0, 1
0, 0
0, 2
0, 1
0, 1
1, 1
2, 1
0, 0
0, 0
0, 0
0, 1
0, 0
0, 0
0, 1
0, 0
0, 0
0, 0
0, 0
0, 0
0, 0
0, 0
0, 0
0, 0
0, 0
0, 0
0, 1
1, 0
0, 0
0, 0
0, 0
0, 0
0, 0
0, 0
0, 0
0, 0
0, 1
1, 1
0, 1
0, 0
1, 0
0, 0
0, 0
0, 0
0, 1
0, 0
0, 0
0, 0
0, 0
0, 1
0, 0
0, 0
0, 0
0, 0
0, 0
0, 0
0, 0
0, 0
0, 0
0, 0
0, 0
1, 1
0, 0
0, 0
0, 1
0, 0
0, 0
0, 0
0, 2
0, 0
0, 0
0, 0
0, 0
0, 1
0, 0
1, 0
0, 0
0, 0
0, 0
0, 0
1, 0
0, 0
0, 0
0, 0
0, 0
0, 0
0, 0
0, 0
0, 0
0, 0
0, 0
1, 0
0, 0
1, 0
0, 0
0, 0
0, 0
0, 1
0, 0
0, 0
0, 0
0, 0
0, 0
0, 0
0, 0
0, 0
0, 0
0, 0
0, 0
0, 0
0, 0
0, 0
0, 2
1, 1
0, 0
0, 0
0, 0
0, 0
0, 0
0, 0
0, 0
0, 0
0, 0
0, 0
0, 0
0, 0
0, 0
0, 0
0, 0
0, 0
0, 0
0, 0
0, 0
0, 0
0, 0
0, 0
0, 0
0, 0
0, 0
0, 0
0, 0
0, 0
0, 0
0, 0
0, 0
0, 0
0, 0
1, 0
0, 0
0, 0
0, 0
0, 0
0, 0
0, 0
0, 0
0, 0
0, 0
0, 0
0, 0
0, 1
0, 0
0, 0
0, 0
0, 0
0, 0
0, 0
0, 0
0, 0
0, 0
0, 0
0, 0
0, 0
0, 0
0, 0
0, 0
0, 0
0, 0
0, 0
0, 0
0, 0
0, 0
0, 0
0, 0
0, 0
0, 0
0, 0
0, 0
0, 0
0, 0
0, 0
0, 0
0, 0
0, 0
0, 1
0, 0
0, 0
0, 0
0, 0
0, 0
0, 0
0, 0
0, 0
0, 0
0, 0
0, 0
0, 0
0, 0
0, 0
0, 0
0, 0
0, 0
0, 0
0, 0
0, 0
0, 0
0, 0
0, 0
0, 0
0, 0
0, 0
0, 0
0, 0
0, 0
0, 0
0, 0
0, 0
0, 0
0, 0
0, 0
0, 0
0, 0
1, 0
0, 0
0, 0
0, 0
0, 0
0, 0
0, 0
0, 0
0, 0
0, 0
0, 0
0, 0
0, 0
0, 0
0, 0
0, 0
0, 0
0, 0
0, 0
0, 0
0, 0
0, 0
0, 0
0, 0
0, 0
0, 0
0, 0
0, 0
0, 0
0, 0
0, 0
0, 0
0, 0
0, 0
0, 0
0, 0
0, 0
0, 0
0, 0
0, 0
0, 0
0, 0
0, 0
0, 0
0, 0
0, 0
0, 0
0, 0
0, 0
0, 0
0, 0
0, 0
0, 0
0, 0
0, 0
0, 0
0, 0
0, 0
0, 0
0, 0
0, 0
0, 0
0, 0
0, 0
0, 0
0, 0
0, 0
0, 0
0, 0
0, 0
0, 0
0, 0
0, 0
0, 0
0, 0
0, 0
0, 0
0, 0
0, 0
0, 0
0, 0
0, 0
0, 0
0, 0
0, 0
0, 0
0, 0
0, 0
0, 0
0, 0
0, 0
0, 0
0, 0
0, 0
0, 0
0, 0
0, 0
0, 0
0, 0
0, 0
0, 0
0, 0
0, 0
0, 0
0, 0
0, 0
0, 0
0, 0
0, 0
0, 0
0, 0
0, 0
0, 0
0, 0
0, 0
0, 0
0, 0
0, 0
0, 0
0, 0
0, 0
0, 0
0, 0
0, 0
0, 0
0, 0
0, 0
0, 0
0, 0
0, 0
0, 0
0, 0
0, 0
0, 0
0, 0
0, 0
0, 0
0, 0
0, 0
0, 0
0, 0
0, 0
0, 0
0, 0
0, 0
0, 0
0, 0
0, 0
0, 0
0, 0
0, 0
0, 0
0, 0
0, 0
0, 0
0, 0
0, 0
0, 0
0, 0
0, 0
0, 0
0, 0
0, 0
0, 0
0, 0
0, 0
0, 0
0, 0
0, 0
0, 0
0, 0
0, 0
0, 0
0, 0
0, 0
0, 0
0, 0
0, 0
0, 0
0, 0
0, 0
0, 0
0, 0
0, 0
0, 0
0, 0
0, 0
0, 0
0, 0
0, 0
0, 0
0, 0
0, 0
0, 0
0, 0
0, 0
0, 0
0, 0
0, 0
0, 0
0, 0
0, 0
0, 0
0, 0
0, 0
0, 0
0, 0
0, 0
0, 0
0, 0
0, 0
0, 0
0, 0
0, 0
0, 0
0, 0
0, 0
0, 0
0, 0
0, 0
0, 0
0, 0
0, 0
0, 0
0, 0
0, 0
0, 0
0, 0
0, 0
0, 0
0, 0
0, 0
0, 0
0, 0
0, 0
0, 0
0, 0
0, 0
0, 0
0, 0
0, 0
0, 0
0, 0
0, 0
0, 0
0, 0
0, 0
0, 0
0, 0
0, 0
0, 0
0, 0
0, 0
0, 0
0, 0
0, 0
0, 0
0, 0
0, 0
0, 0
0, 0
0, 0
0, 0
0, 0
0, 0
0, 0
0, 0
0, 0
0, 0
0, 0
0, 0
0, 0
0, 0
0, 0
0, 0
0, 0
0, 0
0, 0
0, 0
0, 0
0, 0
0, 0
0, 0
0, 0
0, 0
0, 0
0, 0
0, 0
0, 0
0, 0
0, 0
0, 0
0, 0
0, 0
0, 0
0, 0
0, 0
0, 0
0, 0
0, 0
0, 0
0, 0
0, 0
0, 0
0, 0
0, 0
0, 0
0, 0
0, 0
0, 0
0, 0
0, 0
0, 0
0, 0
0, 0
0, 0
0, 0
0, 0
0, 0
0, 0
0, 0
0, 0
0, 0
0, 0
0, 0
0, 0
0, 0
0, 0
0, 0
0, 0
0, 0
0, 0
0, 0
0, 0
0, 0
0, 0
0, 0
0, 0
0, 0
0, 0
0, 0
0, 0
0, 0
0, 0
0, 0
0, 0
0, 0
0, 0
0, 0
0, 0
#ENDOFDATA     end of spectrum data