File: host_upload/02-11-2024/rqc/uplink1/ps__0567_0717304816_000rfs_shot_488.msa
#FORMAT      : EMSA/MAS spectral data file
#VERSION     : TC202v2.0 PIXL
#TITLE       : Novarupta (sol567) subset1
#DATE        : 02-11-2024      Date in the format DD-MMM-YYYY, for example 07-JUL-2010
#TIME        :             The time of day at which the spectrum was recorded, in 24-hour format
#OWNER       : PIXL Flight Model       (PIXL will use this to indicate which instrument took the data.)
#NPOINTS     : 4096     Number of data points in the spectrum (This can be zero for configuration only files)
#NCOLUMNS    : 2     Number of data columns in the spectrum (This can be zero for configuration only files)
#XUNITS      : eV
#YUNITS      : COUNTS
#DATATYPE    : YY
#XPERCHAN    : 7.862, 7.881   eV per channel (separate by commas if more than one detector)
#OFFSET      : 18.5, -22.4         eV of first channel  (separate by commas if more than one detector
#SIGNALTYPE  : XRF
#YP_TEMP     : 2.011
#LIVETIME    : 8.84311, 8.80668   seconds (separate by commas if more than one detector)
#REALTIME    : 10, 10.0   seconds (separate by commas if more than one detector)
#SPECTRUM    : start of spectrum data
0, 0
0, 0
0, 0
0, 0
0, 0
0, 0
0, 0
0, 0
0, 0
0, 0
0, 0
0, 0
0, 0
0, 0
0, 0
0, 0
0, 0
0, 0
0, 0
0, 0
0, 0
0, 0
0, 0
0, 0
0, 0
0, 0
0, 0
0, 0
0, 0
0, 0
0, 1
1, 0
0, 0
0, 0
1, 1
2, 2
3, 6
0, 1
4, 6
6, 1
2, 5
4, 3
2, 8
3, 9
7, 2
2, 3
3, 6
5, 5
4, 4
5, 4
9, 5
10, 5
13, 20
17, 24
19, 24
15, 10
9, 14
9, 10
7, 13
11, 12
15, 22
22, 29
42, 36
43, 58
37, 44
49, 51
39, 42
40, 36
26, 40
39, 56
100, 124
181, 235
289, 358
392, 477
442, 540
450, 568
434, 496
314, 379
235, 240
129, 137
83, 96
44, 60
32, 36
20, 33
38, 37
23, 38
43, 35
39, 33
21, 27
20, 26
17, 22
24, 14
18, 26
35, 47
81, 84
112, 172
212, 222
252, 318
267, 378
321, 377
258, 297
217, 272
149, 185
104, 111
76, 74
56, 66
52, 57
59, 77
86, 87
118, 145
159, 213
195, 221
203, 248
216, 260
190, 238
133, 203
114, 138
101, 110
77, 90
88, 95
71, 80
57, 73
73, 66
77, 57
45, 52
32, 54
26, 25
20, 21
21, 15
12, 16
10, 16
13, 13
10, 9
8, 11
5, 7
8, 8
8, 18
11, 10
17, 25
13, 31
31, 34
26, 51
24, 28
22, 28
23, 25
17, 30
9, 16
11, 11
13, 12
21, 19
26, 37
44, 56
83, 117
134, 195
195, 289
294, 354
352, 386
341, 437
347, 434
293, 366
243, 279
141, 176
107, 112
49, 71
32, 43
23, 38
30, 30
29, 35
34, 51
54, 52
55, 75
46, 79
50, 55
55, 38
47, 47
39, 26
28, 19
17, 20
5, 11
15, 8
8, 11
7, 4
8, 7
7, 8
15, 22
16, 17
17, 20
21, 22
28, 28
39, 38
44, 51
64, 78
59, 76
57, 66
41, 50
50, 46
37, 37
23, 30
26, 32
18, 24
14, 11
11, 16
13, 16
13, 22
8, 16
21, 7
6, 14
13, 18
21, 17
14, 15
14, 22
19, 28
19, 17
16, 20
14, 17
20, 11
12, 19
8, 11
16, 11
8, 11
17, 10
12, 18
8, 10
10, 12
14, 17
10, 25
24, 36
18, 29
20, 36
29, 40
41, 28
38, 54
35, 44
32, 48
23, 39
19, 12
10, 23
19, 12
13, 6
11, 12
14, 16
19, 12
10, 16
16, 14
10, 16
25, 19
19, 40
34, 37
34, 43
52, 67
40, 58
47, 70
51, 56
38, 45
35, 33
23, 35
28, 32
26, 25
21, 26
22, 16
21, 21
35, 32
28, 39
63, 88
94, 155
213, 280
327, 496
533, 739
809, 1108
1130, 1467
1405, 1816
1589, 1942
1588, 2028
1589, 1869
1395, 1602
1091, 1240
883, 838
564, 569
364, 318
226, 215
119, 120
63, 68
41, 35
24, 27
13, 17
11, 20
15, 12
19, 18
12, 18
15, 20
15, 23
22, 33
35, 50
57, 59
74, 115
104, 141
154, 214
214, 233
228, 272
261, 314
252, 288
211, 307
219, 247
149, 181
128, 141
78, 99
56, 67
41, 39
28, 27
16, 13
10, 15
12, 6
8, 8
6, 14
10, 19
10, 14
9, 8
11, 18
6, 15
14, 18
8, 13
6, 15
12, 8
12, 12
7, 11
8, 6
0, 8
7, 10
4, 9
6, 3
6, 3
4, 4
9, 3
4, 6
3, 4
2, 1
8, 11
5, 7
8, 6
2, 5
6, 9
4, 8
5, 4
10, 6
5, 8
6, 5
8, 9
7, 9
5, 11
2, 16
8, 3
9, 9
6, 14
9, 17
7, 8
5, 4
5, 11
4, 7
3, 6
7, 9
4, 8
9, 14
3, 8
10, 6
5, 11
6, 8
10, 14
9, 10
14, 10
10, 7
10, 8
8, 9
5, 6
5, 9
7, 8
7, 6
5, 7
8, 11
11, 8
1, 4
4, 8
5, 4
4, 8
10, 5
10, 11
1, 7
3, 8
7, 3
3, 9
2, 9
2, 4
2, 8
4, 7
6, 9
3, 4
6, 7
1, 5
1, 4
6, 6
6, 7
10, 6
4, 16
4, 4
7, 5
6, 3
4, 5
3, 3
7, 9
9, 3
4, 8
3, 4
2, 9
3, 6
1, 1
2, 4
4, 6
5, 4
5, 8
1, 2
3, 6
4, 3
6, 4
5, 7
4, 3
5, 7
3, 4
7, 10
2, 1
9, 11
6, 8
2, 6
4, 5
3, 8
5, 5
3, 2
2, 4
2, 6
2, 4
4, 2
3, 4
2, 3
3, 7
1, 1
4, 2
3, 0
2, 1
3, 2
0, 2
3, 1
2, 2
6, 5
1, 2
2, 2
3, 4
2, 3
5, 3
2, 5
2, 2
6, 4
2, 1
0, 6
6, 2
3, 3
4, 2
4, 4
1, 3
4, 1
1, 4
2, 3
1, 3
8, 5
4, 4
0, 7
4, 4
3, 5
3, 3
0, 7
1, 4
2, 6
6, 2
3, 3
5, 8
1, 4
0, 1
6, 1
3, 5
2, 2
3, 3
4, 1
2, 3
4, 0
0, 2
2, 1
2, 4
0, 2
3, 4
6, 4
1, 1
4, 5
1, 3
0, 1
2, 4
4, 1
2, 3
5, 3
1, 2
4, 3
2, 2
3, 5
2, 4
2, 2
1, 2
3, 3
4, 2
0, 3
1, 1
4, 1
3, 2
2, 1
3, 1
1, 2
1, 0
1, 4
3, 2
3, 3
2, 1
2, 3
0, 0
0, 2
0, 2
2, 1
2, 0
0, 0
2, 5
3, 4
0, 5
1, 3
2, 3
5, 1
0, 5
0, 2
2, 4
3, 5
3, 4
4, 5
2, 1
4, 0
5, 5
1, 2
2, 4
0, 2
2, 2
1, 1
0, 1
0, 2
1, 2
2, 3
0, 4
1, 2
1, 0
2, 2
2, 3
1, 1
0, 4
1, 4
1, 0
1, 0
1, 1
1, 1
1, 2
5, 0
2, 0
1, 0
3, 4
0, 2
3, 3
1, 1
0, 2
0, 1
2, 1
1, 2
3, 0
2, 3
0, 3
3, 1
2, 0
2, 2
2, 0
2, 0
0, 1
1, 0
1, 1
0, 1
0, 1
1, 1
0, 3
0, 1
1, 1
0, 0
0, 0
4, 2
2, 2
2, 0
2, 1
1, 2
2, 2
0, 0
0, 0
1, 1
0, 1
1, 0
0, 0
1, 3
0, 0
0, 2
0, 0
0, 0
0, 2
0, 2
2, 2
0, 0
0, 3
2, 0
0, 0
1, 0
1, 0
0, 0
0, 0
0, 0
0, 4
1, 2
1, 4
1, 0
0, 2
0, 1
1, 0
0, 0
1, 0
0, 0
1, 0
0, 0
0, 1
0, 1
2, 1
2, 1
0, 1
1, 1
0, 0
2, 1
1, 2
1, 1
1, 2
1, 0
1, 1
0, 1
0, 0
1, 0
1, 3
0, 3
0, 0
2, 0
1, 0
0, 1
0, 0
1, 1
0, 0
1, 0
2, 1
1, 0
1, 0
1, 0
0, 1
1, 1
0, 0
0, 0
2, 0
0, 2
0, 0
0, 2
0, 0
1, 1
0, 0
0, 0
1, 0
0, 0
1, 1
0, 1
0, 0
0, 1
1, 0
0, 0
0, 0
0, 0
0, 0
0, 2
0, 0
1, 1
0, 1
0, 0
0, 0
0, 1
1, 0
0, 1
0, 1
0, 0
0, 0
0, 0
1, 1
0, 0
0, 0
0, 0
0, 0
1, 0
1, 0
1, 0
0, 0
0, 0
1, 0
0, 0
0, 0
1, 0
0, 0
0, 1
1, 1
0, 0
0, 0
0, 0
1, 0
1, 0
0, 0
0, 0
0, 1
0, 0
0, 0
0, 1
1, 1
1, 1
0, 0
0, 0
1, 0
0, 0
0, 0
0, 0
0, 0
0, 0
0, 0
0, 0
1, 0
0, 2
1, 0
0, 0
1, 0
0, 0
1, 0
0, 0
0, 0
0, 0
0, 0
1, 0
0, 0
1, 0
0, 1
1, 0
0, 0
1, 0
0, 1
0, 0
0, 0
0, 0
0, 0
1, 1
0, 0
1, 0
0, 0
0, 1
1, 1
1, 0
0, 0
1, 0
0, 0
0, 1
0, 0
0, 0
1, 0
0, 0
0, 0
0, 1
0, 1
1, 0
0, 0
1, 0
0, 0
0, 0
0, 0
1, 1
0, 1
0, 0
0, 0
0, 0
0, 0
0, 0
0, 0
1, 0
0, 0
1, 0
0, 0
0, 0
1, 0
1, 0
0, 0
0, 0
0, 2
0, 0
0, 0
1, 0
0, 0
0, 0
1, 0
0, 0
0, 0
1, 0
1, 0
0, 0
0, 0
0, 0
0, 0
0, 0
1, 0
0, 0
1, 0
0, 0
0, 0
0, 0
0, 1
1, 1
0, 1
1, 0
0, 0
0, 0
0, 0
1, 0
0, 0
0, 1
0, 0
0, 0
0, 1
0, 0
0, 0
1, 0
0, 1
0, 0
0, 0
0, 0
0, 0
0, 0
0, 0
0, 0
0, 1
1, 0
0, 0
0, 0
0, 0
0, 0
0, 0
0, 0
0, 0
0, 0
0, 0
0, 0
0, 0
0, 0
0, 0
0, 0
0, 0
0, 0
0, 0
0, 0
0, 0
1, 1
0, 0
0, 0
0, 0
0, 0
0, 0
0, 2
0, 0
0, 0
0, 1
0, 0
0, 0
1, 0
0, 1
0, 0
0, 0
0, 0
0, 0
2, 0
0, 0
0, 0
0, 0
0, 0
0, 0
0, 0
0, 0
0, 0
0, 0
0, 0
0, 0
0, 1
0, 1
1, 0
0, 0
0, 0
0, 0
0, 0
0, 0
0, 0
0, 0
0, 0
0, 0
0, 0
0, 0
0, 0
0, 0
0, 0
0, 0
0, 0
0, 0
0, 0
0, 0
0, 0
0, 0
0, 0
0, 0
0, 0
0, 0
0, 0
0, 0
0, 0
0, 0
0, 0
0, 0
0, 0
0, 0
0, 0
0, 0
0, 0
0, 1
0, 0
0, 0
0, 0
0, 0
0, 0
0, 0
0, 0
0, 0
0, 0
0, 0
0, 0
0, 0
0, 0
0, 0
0, 0
0, 0
0, 0
0, 0
0, 0
1, 0
0, 0
0, 0
0, 0
0, 0
0, 0
0, 0
0, 0
0, 0
0, 0
0, 0
0, 0
0, 0
0, 0
0, 0
0, 0
0, 0
0, 0
0, 0
0, 0
0, 0
0, 0
0, 0
0, 0
0, 0
0, 0
0, 0
0, 0
0, 0
0, 0
0, 0
0, 0
0, 0
0, 0
0, 0
0, 0
0, 0
0, 0
0, 0
0, 0
0, 0
0, 0
0, 0
0, 0
0, 0
0, 0
0, 0
0, 0
0, 0
0, 0
0, 0
0, 0
0, 0
0, 0
0, 0
0, 0
0, 0
0, 0
0, 0
0, 0
0, 0
0, 0
0, 0
0, 0
0, 0
0, 0
0, 0
0, 0
0, 0
0, 0
0, 0
0, 0
0, 0
0, 0
0, 0
0, 0
0, 0
0, 0
0, 0
0, 0
0, 0
0, 0
0, 0
0, 0
0, 0
0, 0
0, 0
0, 0
0, 0
0, 0
0, 0
0, 0
0, 0
0, 0
0, 0
0, 0
0, 0
0, 0
0, 0
0, 0
0, 0
0, 0
0, 0
0, 0
0, 0
0, 0
0, 0
0, 0
0, 0
0, 0
0, 0
0, 0
0, 0
0, 0
0, 0
0, 0
0, 0
0, 0
0, 0
0, 0
0, 0
0, 0
0, 0
0, 0
0, 0
0, 0
0, 0
0, 0
0, 0
0, 0
0, 0
0, 0
0, 0
0, 0
0, 0
0, 0
0, 0
0, 0
0, 0
0, 0
0, 0
0, 0
0, 0
0, 0
0, 0
0, 0
0, 0
0, 0
0, 0
0, 0
0, 0
0, 0
0, 0
0, 0
0, 0
0, 0
0, 0
0, 0
0, 0
0, 0
0, 0
0, 0
0, 0
0, 0
0, 0
0, 0
0, 0
0, 0
0, 0
0, 0
0, 0
0, 0
0, 0
0, 0
0, 0
0, 0
0, 0
0, 0
0, 0
0, 0
0, 0
0, 0
0, 0
0, 0
0, 0
0, 0
0, 0
0, 0
0, 0
0, 0
0, 0
0, 0
0, 0
0, 0
0, 0
0, 0
0, 0
0, 0
0, 0
0, 0
0, 0
0, 0
0, 0
0, 0
0, 0
0, 0
0, 0
0, 0
0, 0
0, 0
0, 0
0, 0
0, 0
0, 0
0, 0
0, 0
0, 0
0, 0
0, 0
0, 0
0, 0
0, 0
0, 0
0, 0
0, 0
0, 0
0, 0
0, 0
0, 0
0, 0
0, 0
0, 0
0, 0
0, 0
0, 0
0, 0
0, 0
0, 0
0, 0
0, 0
0, 0
0, 0
0, 0
0, 0
0, 0
0, 0
0, 0
0, 0
0, 0
0, 0
0, 0
0, 0
0, 0
0, 0
0, 0
0, 0
0, 0
0, 0
0, 0
0, 0
0, 0
0, 0
0, 0
0, 0
0, 0
0, 0
0, 0
0, 0
0, 0
0, 0
0, 0
0, 0
0, 0
0, 0
0, 0
0, 0
0, 0
0, 0
0, 0
0, 0
0, 0
0, 0
0, 0
0, 0
0, 0
0, 0
0, 0
0, 0
0, 0
0, 0
0, 0
0, 0
0, 0
0, 0
0, 0
0, 0
0, 0
0, 0
0, 0
0, 0
0, 0
0, 0
0, 0
0, 0
0, 0
0, 0
0, 0
0, 0
0, 0
0, 0
0, 0
0, 0
0, 0
0, 0
0, 0
0, 0
0, 0
0, 0
0, 0
0, 0
0, 0
0, 0
0, 0
0, 0
0, 0
0, 0
0, 0
0, 0
0, 0
0, 0
0, 0
0, 0
0, 0
0, 0
0, 0
0, 0
0, 0
0, 0
0, 0
0, 0
0, 0
0, 0
0, 0
0, 0
0, 0
0, 0
0, 0
0, 0
0, 0
0, 0
0, 0
0, 0
0, 0
0, 0
0, 0
0, 0
0, 0
0, 0
0, 0
0, 0
0, 0
0, 0
0, 0
0, 0
0, 0
0, 0
0, 0
0, 0
0, 0
0, 0
0, 0
0, 0
0, 0
0, 0
0, 0
0, 0
0, 0
0, 0
0, 0
0, 0
0, 0
0, 0
0, 0
0, 0
0, 0
0, 0
0, 0
0, 0
0, 0
0, 0
0, 0
0, 0
0, 0
0, 0
0, 0
0, 0
0, 0
0, 0
0, 0
#ENDOFDATA     end of spectrum data