File: host_upload/02-11-2024/rqc/uplink1/ps__0567_0717304816_000rfs_shot_480.msa
#FORMAT      : EMSA/MAS spectral data file
#VERSION     : TC202v2.0 PIXL
#TITLE       : Novarupta (sol567) subset1
#DATE        : 02-11-2024      Date in the format DD-MMM-YYYY, for example 07-JUL-2010
#TIME        :             The time of day at which the spectrum was recorded, in 24-hour format
#OWNER       : PIXL Flight Model       (PIXL will use this to indicate which instrument took the data.)
#NPOINTS     : 4096     Number of data points in the spectrum (This can be zero for configuration only files)
#NCOLUMNS    : 2     Number of data columns in the spectrum (This can be zero for configuration only files)
#XUNITS      : eV
#YUNITS      : COUNTS
#DATATYPE    : YY
#XPERCHAN    : 7.862, 7.881   eV per channel (separate by commas if more than one detector)
#OFFSET      : 18.5, -22.4         eV of first channel  (separate by commas if more than one detector
#SIGNALTYPE  : XRF
#YP_TEMP     : 1.786
#LIVETIME    : 8.83656, 8.81046   seconds (separate by commas if more than one detector)
#REALTIME    : 10, 10.0   seconds (separate by commas if more than one detector)
#SPECTRUM    : start of spectrum data
0, 0
0, 0
0, 0
0, 0
0, 0
0, 0
0, 0
0, 0
0, 0
0, 0
0, 0
0, 0
0, 0
0, 0
0, 0
0, 0
0, 0
0, 0
0, 0
0, 0
0, 0
0, 0
0, 0
0, 0
0, 0
0, 0
0, 0
0, 0
0, 0
0, 0
0, 0
0, 0
0, 2
3, 0
0, 2
1, 0
1, 6
5, 1
1, 2
1, 3
2, 3
3, 2
2, 4
4, 0
1, 5
3, 3
2, 2
2, 5
1, 3
5, 1
7, 4
7, 12
16, 12
16, 20
16, 15
13, 16
22, 17
16, 11
11, 10
15, 11
14, 15
18, 39
34, 26
51, 43
41, 52
32, 31
38, 41
26, 28
30, 43
53, 55
103, 124
186, 227
277, 332
372, 471
493, 554
483, 518
476, 462
356, 317
237, 224
171, 161
92, 72
49, 55
36, 45
40, 29
20, 33
26, 32
38, 44
26, 49
36, 31
22, 25
19, 23
15, 11
23, 29
44, 46
73, 73
116, 140
195, 213
234, 265
275, 306
302, 298
255, 272
220, 221
143, 167
92, 91
50, 70
47, 46
43, 58
51, 71
88, 106
123, 138
169, 185
191, 215
220, 246
231, 223
193, 182
164, 171
142, 139
96, 108
103, 86
81, 87
79, 62
59, 87
60, 57
58, 53
40, 57
30, 39
20, 28
19, 20
19, 26
14, 12
10, 8
9, 10
9, 6
4, 12
11, 9
4, 10
10, 9
19, 13
15, 17
30, 28
20, 38
32, 30
30, 32
21, 29
32, 10
16, 9
11, 15
8, 14
13, 13
17, 14
27, 27
42, 52
79, 87
121, 173
198, 249
275, 325
327, 388
365, 410
378, 332
292, 349
239, 228
164, 168
95, 94
76, 58
28, 41
30, 31
27, 31
36, 31
39, 39
52, 57
42, 59
71, 50
42, 52
42, 51
51, 37
29, 30
16, 17
10, 13
16, 9
10, 11
7, 7
14, 7
8, 8
12, 7
15, 19
11, 14
10, 16
27, 28
33, 27
40, 37
54, 57
69, 74
53, 71
60, 53
54, 55
41, 45
45, 37
18, 32
22, 23
20, 23
16, 24
15, 23
19, 17
9, 15
11, 18
18, 18
14, 15
11, 24
18, 26
17, 19
15, 21
21, 16
20, 20
10, 19
10, 12
14, 10
17, 13
12, 9
15, 13
14, 15
10, 15
7, 14
14, 11
19, 12
15, 13
19, 23
16, 21
26, 27
21, 23
26, 35
34, 34
28, 32
30, 35
17, 24
19, 25
14, 14
12, 21
13, 18
17, 15
11, 8
5, 13
10, 14
19, 17
11, 16
9, 13
12, 22
23, 35
39, 32
37, 33
46, 59
49, 52
47, 40
48, 56
45, 39
44, 40
24, 35
28, 31
19, 20
19, 27
9, 14
21, 15
26, 17
39, 53
69, 95
111, 168
201, 253
338, 477
557, 787
799, 1016
1057, 1384
1458, 1655
1686, 1946
1813, 1942
1758, 1841
1512, 1514
1214, 1143
899, 869
616, 517
387, 351
244, 182
152, 108
49, 52
37, 33
30, 18
16, 18
13, 17
11, 16
16, 16
16, 12
15, 34
16, 33
28, 36
43, 44
57, 73
61, 112
122, 126
155, 198
176, 274
271, 260
231, 273
262, 288
250, 252
232, 263
164, 188
162, 153
90, 85
64, 49
38, 30
33, 17
8, 15
8, 12
13, 11
14, 11
6, 10
11, 7
14, 12
9, 11
14, 14
8, 11
11, 12
9, 14
7, 12
11, 4
12, 10
8, 12
5, 11
8, 7
6, 7
2, 7
3, 11
7, 5
4, 5
6, 3
8, 3
5, 6
2, 6
2, 5
3, 3
5, 6
9, 7
3, 13
6, 10
8, 9
9, 7
7, 7
7, 5
7, 10
10, 6
3, 6
9, 7
5, 7
9, 7
5, 11
8, 7
4, 11
6, 6
0, 7
5, 6
8, 11
10, 4
8, 10
4, 9
5, 10
7, 10
8, 14
12, 12
8, 11
11, 18
15, 14
5, 13
6, 9
9, 10
5, 9
7, 9
7, 6
5, 9
7, 7
5, 3
7, 3
10, 8
4, 13
6, 2
8, 8
2, 8
9, 9
3, 2
6, 5
6, 4
5, 8
7, 2
4, 7
7, 5
10, 7
2, 5
4, 7
1, 7
6, 5
12, 1
6, 7
6, 5
4, 6
6, 7
1, 1
2, 7
6, 6
13, 7
3, 7
5, 4
6, 1
5, 4
5, 4
3, 5
5, 8
5, 6
5, 8
3, 4
6, 6
3, 3
4, 9
8, 4
4, 5
3, 2
3, 5
6, 8
3, 3
5, 5
4, 2
7, 3
5, 4
5, 0
3, 1
4, 4
5, 5
4, 5
5, 7
1, 4
5, 1
6, 6
4, 3
3, 5
4, 6
1, 4
5, 6
3, 3
2, 5
8, 4
3, 5
4, 3
2, 4
2, 2
2, 3
3, 4
6, 6
2, 5
4, 0
1, 3
4, 2
2, 3
3, 3
2, 2
5, 7
6, 5
4, 2
4, 1
4, 5
6, 3
6, 6
5, 2
2, 6
3, 2
2, 0
0, 3
0, 4
5, 3
3, 5
4, 3
5, 4
1, 7
3, 7
3, 2
0, 9
4, 2
1, 3
3, 3
1, 1
4, 3
4, 4
3, 0
2, 4
2, 1
0, 0
1, 0
2, 3
2, 3
1, 2
5, 3
1, 7
2, 1
3, 1
2, 3
1, 1
0, 2
5, 3
1, 0
2, 3
2, 2
1, 5
3, 3
1, 1
3, 0
0, 2
3, 5
6, 1
0, 4
6, 5
3, 2
1, 2
1, 2
2, 1
5, 0
1, 2
3, 2
1, 2
2, 2
1, 3
1, 3
0, 3
1, 3
0, 3
4, 1
1, 1
1, 3
3, 2
2, 2
1, 2
4, 2
3, 7
1, 5
2, 6
1, 5
3, 3
3, 1
3, 3
3, 5
3, 4
0, 2
5, 2
2, 3
1, 0
0, 2
2, 1
1, 6
2, 2
1, 4
2, 0
1, 0
2, 1
0, 1
2, 2
1, 1
2, 1
0, 2
1, 1
1, 3
2, 1
1, 2
1, 0
2, 0
2, 3
1, 2
2, 1
0, 1
2, 0
1, 4
1, 2
1, 1
1, 1
2, 0
0, 1
1, 4
4, 3
2, 2
1, 0
1, 5
2, 0
2, 1
0, 1
1, 1
1, 0
2, 3
1, 0
2, 0
3, 1
1, 0
0, 0
0, 1
1, 2
0, 3
1, 1
3, 2
1, 1
0, 0
2, 1
3, 2
2, 1
2, 2
2, 2
1, 3
1, 0
1, 2
0, 0
1, 1
3, 0
1, 0
2, 0
1, 3
0, 1
0, 0
2, 0
2, 4
0, 0
1, 1
0, 1
0, 2
1, 1
1, 0
0, 0
1, 2
1, 0
2, 1
0, 1
0, 1
0, 2
0, 0
2, 0
1, 1
0, 0
0, 0
0, 2
1, 0
1, 0
1, 1
0, 1
0, 1
0, 0
1, 1
1, 0
0, 0
1, 0
1, 1
0, 0
1, 0
0, 0
1, 1
1, 1
2, 1
0, 0
0, 0
0, 1
1, 0
0, 2
1, 1
0, 1
0, 0
1, 1
1, 1
1, 0
0, 0
0, 1
0, 1
0, 0
1, 1
0, 1
1, 0
1, 1
0, 0
0, 1
0, 0
0, 0
2, 1
0, 0
0, 0
0, 2
1, 1
0, 1
1, 0
1, 1
1, 0
0, 0
1, 1
0, 0
0, 0
2, 1
1, 0
0, 0
1, 0
1, 0
0, 0
2, 0
0, 0
2, 0
0, 0
0, 0
0, 0
0, 2
0, 1
1, 0
2, 1
0, 0
2, 0
0, 0
0, 1
0, 0
0, 0
0, 0
0, 0
0, 0
1, 0
0, 0
0, 2
0, 1
0, 4
0, 1
0, 0
0, 1
1, 1
0, 0
2, 0
0, 0
1, 0
0, 0
0, 0
0, 0
0, 0
1, 0
1, 0
0, 0
1, 0
0, 0
0, 0
0, 0
1, 1
0, 0
0, 0
0, 0
0, 0
0, 0
0, 2
0, 1
0, 0
0, 0
0, 1
1, 0
0, 0
0, 0
0, 0
0, 0
0, 0
0, 0
0, 2
0, 0
1, 0
1, 0
1, 0
0, 0
0, 0
1, 0
0, 0
0, 0
0, 0
0, 1
1, 0
0, 0
0, 0
0, 0
0, 1
0, 0
0, 0
0, 0
1, 0
0, 0
0, 0
0, 0
1, 1
0, 0
1, 1
0, 2
1, 0
0, 0
1, 1
0, 0
0, 0
1, 0
0, 0
0, 0
1, 1
0, 0
0, 0
0, 0
1, 0
0, 1
0, 0
0, 1
0, 0
1, 0
0, 0
0, 0
1, 0
0, 2
0, 0
0, 0
0, 0
0, 0
0, 0
0, 1
0, 0
0, 0
0, 0
0, 0
1, 0
0, 0
1, 0
1, 0
0, 0
0, 0
0, 0
0, 0
0, 0
0, 0
0, 0
0, 0
0, 0
0, 0
0, 0
0, 0
0, 0
0, 1
2, 0
0, 0
0, 1
0, 0
0, 0
0, 0
0, 0
0, 0
0, 0
1, 0
0, 0
0, 0
0, 0
0, 0
0, 0
0, 0
0, 1
0, 0
0, 0
1, 0
0, 0
0, 0
0, 0
0, 0
0, 0
0, 0
0, 0
0, 0
0, 0
0, 0
0, 0
0, 0
0, 0
0, 0
0, 0
0, 0
0, 0
0, 0
0, 0
0, 0
0, 0
0, 0
0, 0
0, 1
0, 0
0, 0
0, 1
0, 0
0, 0
0, 0
0, 0
0, 0
0, 0
0, 0
0, 0
0, 0
0, 0
0, 0
0, 0
0, 0
0, 0
0, 0
0, 0
0, 0
0, 0
0, 0
0, 0
0, 0
0, 1
0, 0
0, 0
0, 0
1, 0
0, 0
0, 0
0, 0
0, 0
0, 0
1, 0
0, 0
0, 1
0, 0
0, 0
0, 0
0, 0
0, 0
0, 0
0, 0
0, 0
0, 0
0, 0
0, 0
0, 0
0, 0
0, 0
0, 0
0, 0
0, 0
0, 0
0, 0
0, 0
0, 0
0, 0
0, 0
0, 0
0, 0
0, 0
0, 0
1, 0
0, 0
1, 0
0, 0
0, 0
0, 0
0, 0
0, 0
0, 0
0, 0
0, 0
0, 0
0, 0
0, 0
0, 0
0, 0
0, 1
0, 0
0, 0
0, 0
0, 0
0, 0
0, 0
0, 0
0, 0
0, 1
0, 0
0, 0
0, 0
0, 0
0, 0
0, 0
0, 0
0, 0
0, 0
0, 0
0, 0
0, 0
0, 0
0, 0
0, 0
0, 0
0, 0
0, 0
0, 0
0, 0
0, 0
0, 0
0, 0
0, 0
0, 0
0, 0
0, 0
0, 0
0, 0
0, 0
0, 0
0, 0
0, 0
0, 0
0, 0
0, 0
0, 0
0, 0
0, 0
0, 0
0, 0
0, 0
0, 0
0, 0
0, 0
0, 0
0, 0
0, 0
0, 0
0, 0
0, 0
0, 0
0, 0
0, 0
0, 0
0, 0
0, 0
0, 0
0, 0
0, 1
1, 0
0, 0
0, 0
0, 0
0, 0
0, 0
0, 0
0, 0
0, 0
0, 0
0, 0
0, 0
0, 0
0, 0
0, 0
0, 0
0, 0
0, 0
0, 0
0, 0
0, 0
0, 1
0, 0
0, 0
0, 0
0, 0
0, 0
0, 0
0, 0
0, 0
0, 0
0, 0
0, 0
0, 0
0, 0
0, 0
0, 0
0, 0
0, 0
0, 0
0, 0
0, 0
0, 0
0, 0
0, 0
0, 0
0, 0
0, 0
0, 0
0, 0
0, 0
0, 0
0, 0
0, 0
0, 0
0, 0
0, 0
0, 0
0, 0
0, 0
0, 0
0, 0
0, 0
0, 0
0, 0
0, 0
0, 0
0, 0
0, 0
0, 0
0, 0
0, 0
0, 0
0, 0
0, 0
0, 0
0, 0
0, 0
0, 0
0, 0
0, 0
0, 0
0, 0
0, 0
0, 0
0, 0
0, 0
0, 0
0, 0
0, 0
0, 0
0, 0
0, 0
0, 0
0, 0
0, 0
0, 0
0, 0
0, 0
0, 0
0, 0
0, 0
0, 0
0, 0
0, 0
0, 0
0, 0
0, 0
0, 0
0, 0
0, 0
0, 0
0, 0
0, 0
0, 0
0, 0
0, 0
0, 0
0, 0
0, 0
0, 0
0, 0
0, 0
0, 0
0, 0
0, 0
0, 0
0, 0
0, 0
0, 0
0, 0
0, 0
0, 0
0, 0
0, 0
0, 0
0, 0
0, 0
0, 0
0, 0
0, 0
0, 0
0, 0
0, 0
0, 0
0, 0
0, 0
0, 0
0, 0
0, 0
0, 0
0, 0
0, 0
0, 0
0, 0
0, 0
0, 0
0, 0
0, 0
0, 0
0, 0
0, 0
0, 0
0, 0
0, 0
0, 0
0, 0
0, 0
0, 0
0, 0
0, 0
0, 0
0, 0
0, 0
0, 0
0, 0
0, 0
0, 0
0, 0
0, 0
0, 0
0, 0
0, 0
0, 0
0, 0
0, 0
0, 0
0, 0
0, 0
0, 0
0, 0
0, 0
0, 0
0, 0
0, 0
0, 0
0, 0
0, 0
0, 0
0, 0
0, 0
0, 0
0, 0
0, 0
0, 0
0, 0
0, 0
0, 0
0, 0
0, 0
0, 0
0, 0
0, 0
0, 0
0, 0
0, 0
0, 0
0, 0
0, 0
0, 0
0, 0
0, 0
0, 0
0, 0
0, 0
0, 0
0, 0
0, 0
0, 0
0, 0
0, 0
0, 0
0, 0
0, 0
0, 0
0, 0
0, 0
0, 0
0, 0
0, 0
0, 0
0, 0
0, 0
0, 0
0, 0
0, 0
0, 0
0, 0
0, 0
0, 0
0, 0
0, 0
0, 0
0, 0
0, 0
0, 0
0, 0
0, 0
0, 0
0, 0
0, 0
0, 0
0, 0
0, 0
0, 0
0, 0
0, 0
0, 0
0, 0
0, 0
0, 0
0, 0
0, 0
0, 0
0, 0
0, 0
0, 0
0, 0
0, 0
0, 0
0, 0
0, 0
0, 0
0, 0
0, 0
0, 0
0, 0
0, 0
0, 0
0, 0
0, 0
0, 0
0, 0
0, 0
0, 0
0, 0
0, 0
0, 0
0, 0
0, 0
0, 0
0, 0
0, 0
0, 0
0, 0
0, 0
0, 0
0, 0
0, 0
0, 0
0, 0
0, 0
0, 0
0, 0
0, 0
0, 0
0, 0
0, 0
0, 0
0, 0
0, 0
0, 0
0, 0
0, 0
0, 0
0, 0
0, 0
0, 0
0, 0
0, 0
0, 0
0, 0
0, 0
0, 0
0, 0
#ENDOFDATA     end of spectrum data