File: host_upload/02-11-2024/rqc/uplink1/ps__0567_0717304816_000rfs_shot_498.msa
#FORMAT      : EMSA/MAS spectral data file
#VERSION     : TC202v2.0 PIXL
#TITLE       : Novarupta (sol567) subset1
#DATE        : 02-11-2024      Date in the format DD-MMM-YYYY, for example 07-JUL-2010
#TIME        :             The time of day at which the spectrum was recorded, in 24-hour format
#OWNER       : PIXL Flight Model       (PIXL will use this to indicate which instrument took the data.)
#NPOINTS     : 4096     Number of data points in the spectrum (This can be zero for configuration only files)
#NCOLUMNS    : 2     Number of data columns in the spectrum (This can be zero for configuration only files)
#XUNITS      : eV
#YUNITS      : COUNTS
#DATATYPE    : YY
#XPERCHAN    : 7.862, 7.881   eV per channel (separate by commas if more than one detector)
#OFFSET      : 18.5, -22.4         eV of first channel  (separate by commas if more than one detector
#SIGNALTYPE  : XRF
#YP_TEMP     : 1.947
#LIVETIME    : 8.82069, 8.80729   seconds (separate by commas if more than one detector)
#REALTIME    : 10, 10.0   seconds (separate by commas if more than one detector)
#SPECTRUM    : start of spectrum data
0, 0
0, 0
0, 0
0, 0
0, 0
0, 0
0, 0
0, 0
0, 0
0, 0
0, 0
0, 0
0, 0
0, 0
0, 0
0, 0
0, 0
0, 0
0, 0
0, 0
0, 0
0, 0
0, 0
0, 0
0, 0
0, 0
0, 0
0, 1
0, 0
0, 0
1, 1
0, 0
1, 1
0, 2
0, 2
2, 0
1, 4
3, 3
5, 5
2, 3
2, 2
2, 2
1, 4
3, 2
2, 5
7, 3
1, 4
3, 3
6, 5
2, 5
9, 6
13, 12
11, 14
19, 10
15, 12
14, 23
21, 10
18, 17
9, 5
16, 11
24, 16
26, 28
39, 37
47, 48
50, 50
46, 47
39, 51
42, 39
43, 33
57, 67
116, 129
202, 253
306, 366
408, 454
488, 557
512, 524
466, 465
335, 369
246, 270
156, 159
79, 76
52, 48
29, 33
29, 42
39, 27
35, 44
41, 41
29, 32
37, 24
21, 25
18, 18
16, 19
18, 30
57, 39
90, 91
142, 151
216, 245
255, 281
310, 342
307, 340
262, 308
214, 213
157, 170
110, 98
87, 74
54, 65
70, 52
59, 73
85, 120
142, 145
163, 191
202, 233
224, 235
202, 201
182, 238
168, 176
133, 140
104, 84
94, 88
90, 71
66, 78
67, 65
72, 63
67, 55
41, 49
49, 41
29, 21
14, 24
19, 22
11, 12
12, 10
7, 9
10, 12
6, 7
6, 10
5, 10
10, 9
13, 17
9, 17
21, 22
26, 32
39, 29
29, 27
22, 33
18, 21
15, 19
11, 16
15, 13
9, 11
13, 27
35, 31
54, 55
78, 87
143, 157
236, 252
280, 352
358, 382
391, 455
347, 402
334, 353
264, 299
142, 175
121, 92
67, 46
38, 40
28, 26
32, 26
29, 31
34, 51
67, 59
59, 76
66, 67
48, 48
49, 56
42, 38
30, 35
21, 25
10, 21
5, 14
5, 14
7, 7
7, 9
12, 9
5, 10
11, 10
12, 18
10, 19
26, 20
40, 36
44, 38
40, 58
49, 69
66, 65
43, 72
66, 56
42, 49
35, 41
28, 36
23, 27
29, 26
15, 20
18, 21
14, 11
15, 16
12, 17
12, 11
14, 15
14, 25
14, 16
13, 11
20, 22
23, 28
22, 21
23, 20
20, 13
14, 17
13, 12
10, 7
11, 10
10, 12
12, 14
6, 9
8, 16
13, 3
15, 12
17, 23
22, 23
24, 26
19, 22
26, 36
29, 30
31, 41
29, 32
22, 26
16, 16
15, 16
19, 19
15, 13
18, 12
9, 12
11, 14
18, 10
13, 13
7, 22
20, 17
17, 21
28, 35
32, 32
28, 52
47, 54
43, 54
46, 47
46, 52
42, 45
35, 47
18, 30
22, 34
16, 24
19, 22
16, 19
20, 22
23, 24
34, 49
67, 77
134, 140
216, 296
340, 469
565, 740
864, 1059
1232, 1420
1535, 1788
1666, 1901
1744, 1933
1704, 1836
1517, 1613
1277, 1162
899, 881
655, 574
413, 338
250, 145
127, 117
70, 73
41, 39
20, 30
25, 22
15, 24
23, 19
13, 27
20, 29
23, 19
19, 28
30, 35
54, 51
47, 86
69, 102
119, 145
170, 192
224, 209
265, 303
280, 266
276, 304
243, 279
220, 198
170, 148
137, 119
112, 91
73, 50
38, 24
27, 17
18, 15
11, 9
7, 6
9, 6
10, 8
10, 9
14, 11
16, 16
11, 23
13, 13
14, 13
13, 12
9, 14
11, 12
11, 12
7, 11
5, 8
7, 5
9, 7
7, 8
5, 9
6, 4
12, 4
7, 10
8, 3
7, 3
6, 9
9, 6
6, 10
2, 7
7, 9
5, 17
6, 6
9, 10
3, 11
12, 8
7, 13
9, 8
9, 7
10, 7
8, 7
5, 9
5, 11
9, 10
7, 7
10, 5
7, 8
10, 7
8, 7
2, 4
5, 6
9, 6
6, 9
11, 14
8, 11
11, 6
8, 10
14, 14
6, 16
9, 5
11, 9
10, 10
14, 4
11, 6
6, 4
7, 8
4, 7
4, 8
7, 9
2, 8
7, 8
8, 8
8, 7
6, 10
3, 12
9, 4
6, 9
5, 3
12, 3
3, 4
3, 9
7, 6
3, 7
8, 5
6, 2
6, 9
10, 2
7, 5
4, 4
4, 3
5, 2
3, 7
2, 2
2, 13
5, 5
7, 8
2, 6
5, 6
5, 9
6, 10
5, 6
15, 7
4, 8
6, 6
9, 4
3, 5
7, 6
0, 6
3, 7
4, 5
4, 4
2, 4
3, 9
4, 4
4, 4
6, 4
4, 0
5, 6
7, 4
7, 5
4, 0
2, 5
9, 5
5, 6
2, 1
2, 3
5, 5
1, 6
4, 5
7, 3
3, 1
4, 8
5, 2
4, 4
5, 1
5, 7
4, 3
5, 5
4, 2
2, 2
4, 6
6, 9
5, 5
2, 5
2, 4
4, 4
2, 7
4, 2
4, 3
7, 3
3, 3
4, 3
4, 3
3, 5
5, 2
5, 1
2, 3
3, 5
3, 5
4, 2
5, 3
3, 6
3, 8
3, 4
0, 5
3, 0
0, 3
2, 1
1, 3
1, 2
5, 3
5, 3
2, 1
5, 2
2, 3
4, 1
5, 0
5, 7
5, 3
2, 3
0, 5
2, 2
2, 1
3, 2
3, 3
1, 2
1, 3
0, 5
4, 2
0, 2
2, 3
3, 1
3, 4
4, 2
0, 2
1, 4
2, 4
1, 7
3, 5
3, 4
3, 3
3, 4
1, 2
4, 0
4, 1
2, 2
0, 2
2, 2
4, 5
3, 3
0, 1
1, 0
1, 2
4, 1
2, 1
4, 0
1, 7
1, 2
3, 2
0, 2
1, 2
3, 1
4, 1
1, 3
2, 2
2, 0
5, 2
5, 3
2, 1
3, 4
5, 5
1, 1
1, 4
3, 5
4, 3
1, 1
3, 0
1, 1
3, 1
4, 2
3, 2
1, 2
1, 2
1, 3
1, 0
3, 1
2, 0
4, 2
1, 3
0, 1
3, 1
1, 3
1, 0
0, 4
0, 1
1, 4
1, 0
4, 5
2, 3
2, 2
1, 3
0, 4
2, 2
1, 0
0, 3
1, 4
3, 0
1, 2
4, 2
1, 0
3, 2
0, 1
1, 4
4, 1
1, 4
1, 1
0, 0
2, 1
0, 0
1, 2
2, 0
0, 0
0, 1
0, 1
2, 1
0, 0
0, 0
0, 0
1, 1
0, 0
1, 0
2, 0
1, 0
3, 0
2, 2
0, 1
3, 1
0, 1
1, 1
0, 1
2, 0
0, 1
1, 1
0, 0
0, 1
1, 1
3, 0
0, 1
2, 0
1, 0
0, 0
0, 1
1, 0
5, 0
1, 0
0, 2
2, 1
0, 2
1, 2
0, 0
1, 0
0, 0
2, 0
1, 1
0, 0
2, 1
0, 0
0, 0
1, 0
1, 2
1, 0
0, 0
1, 0
1, 2
2, 2
1, 0
1, 1
0, 0
0, 0
0, 0
1, 0
2, 1
1, 0
0, 0
1, 2
1, 1
1, 2
0, 0
4, 1
2, 1
1, 2
0, 0
0, 1
1, 1
1, 1
0, 0
0, 1
0, 0
1, 0
0, 1
2, 0
0, 0
2, 3
0, 0
0, 0
0, 1
0, 0
0, 1
0, 0
1, 0
1, 0
0, 0
0, 1
0, 0
0, 1
1, 1
1, 1
0, 0
0, 1
0, 1
1, 1
0, 0
0, 0
2, 1
0, 2
0, 0
2, 0
1, 0
0, 1
0, 1
0, 0
0, 0
0, 1
0, 2
1, 1
1, 0
0, 0
1, 0
0, 1
1, 1
0, 1
0, 1
0, 0
2, 0
0, 0
0, 0
2, 0
1, 0
1, 0
0, 0
0, 0
1, 0
0, 0
0, 0
0, 0
0, 1
0, 1
1, 0
0, 0
0, 1
1, 0
0, 0
0, 0
2, 0
0, 0
0, 1
0, 0
0, 1
0, 1
0, 0
0, 0
0, 0
0, 0
0, 1
0, 1
0, 1
0, 0
0, 0
1, 0
0, 0
1, 0
0, 0
0, 1
0, 0
0, 1
0, 1
0, 0
0, 0
0, 1
0, 0
0, 0
1, 0
0, 0
1, 0
0, 0
1, 1
0, 0
0, 0
0, 0
0, 1
0, 1
0, 0
0, 0
1, 0
0, 0
1, 0
1, 1
0, 0
1, 0
0, 1
0, 1
0, 0
0, 1
0, 0
0, 0
1, 1
0, 0
0, 0
0, 0
0, 0
0, 0
1, 0
0, 1
0, 1
0, 0
0, 0
0, 0
0, 0
0, 0
0, 2
0, 0
0, 1
0, 0
2, 0
0, 1
0, 0
1, 1
0, 0
0, 0
0, 0
0, 0
0, 1
0, 0
0, 1
0, 0
0, 0
1, 0
0, 0
0, 0
0, 0
0, 0
0, 0
0, 0
0, 0
0, 0
0, 0
0, 0
0, 0
0, 0
0, 0
0, 0
0, 0
0, 0
0, 0
0, 2
0, 0
0, 0
0, 0
0, 0
0, 0
0, 0
0, 0
0, 0
0, 0
0, 0
1, 0
0, 2
0, 0
0, 0
0, 0
0, 0
0, 1
0, 2
0, 0
0, 0
0, 0
0, 0
0, 0
0, 1
0, 0
0, 0
1, 0
0, 2
0, 0
1, 0
0, 0
0, 0
0, 0
0, 0
0, 0
0, 0
0, 0
0, 0
0, 0
0, 0
0, 0
1, 0
0, 0
0, 0
0, 0
0, 1
0, 0
0, 0
0, 0
0, 0
0, 0
0, 0
0, 0
1, 0
0, 0
1, 0
0, 0
0, 0
0, 0
0, 0
0, 0
1, 0
0, 0
0, 0
0, 0
0, 0
0, 0
0, 0
0, 0
0, 0
0, 0
0, 0
0, 0
0, 0
0, 0
0, 0
0, 0
0, 0
0, 0
1, 0
0, 0
0, 0
0, 0
0, 0
0, 0
0, 0
0, 0
0, 0
1, 0
0, 0
0, 0
0, 0
0, 0
0, 0
0, 0
0, 0
0, 0
0, 0
0, 0
0, 0
0, 0
0, 0
0, 0
0, 0
0, 0
0, 0
0, 0
0, 0
0, 0
0, 0
0, 0
0, 0
0, 0
0, 0
1, 0
0, 0
0, 0
0, 0
0, 0
0, 0
0, 0
0, 0
0, 0
0, 0
0, 0
0, 0
0, 1
0, 0
0, 0
0, 0
0, 0
0, 0
0, 0
0, 0
0, 0
0, 0
0, 0
0, 0
0, 0
0, 0
0, 0
0, 0
0, 0
0, 0
0, 0
0, 0
0, 0
0, 0
0, 0
0, 0
0, 0
0, 0
0, 0
0, 0
0, 0
0, 0
0, 0
0, 0
0, 0
0, 0
0, 0
0, 0
0, 0
0, 0
0, 0
0, 0
0, 0
0, 0
0, 0
0, 0
0, 0
0, 0
0, 0
0, 0
0, 0
0, 0
0, 0
0, 0
0, 0
0, 0
0, 0
0, 0
0, 0
0, 0
0, 0
0, 0
0, 0
0, 0
0, 0
0, 0
0, 0
0, 0
0, 0
0, 0
0, 0
0, 0
0, 0
0, 0
0, 0
0, 0
0, 0
0, 0
0, 0
0, 0
0, 0
0, 0
0, 0
0, 0
0, 0
0, 0
0, 0
0, 0
0, 0
0, 0
0, 0
0, 0
0, 0
0, 0
0, 0
0, 0
0, 0
0, 0
0, 0
0, 0
0, 0
0, 0
0, 0
0, 0
0, 0
0, 0
0, 0
0, 0
0, 0
0, 0
0, 0
0, 0
0, 0
0, 0
0, 0
0, 0
0, 0
0, 0
0, 0
0, 0
0, 0
0, 0
0, 0
0, 0
0, 0
0, 0
0, 0
0, 0
0, 0
0, 0
0, 0
0, 0
0, 0
0, 0
0, 0
0, 0
0, 0
0, 0
0, 0
0, 0
0, 0
0, 0
0, 0
0, 0
0, 0
0, 0
0, 0
0, 0
0, 0
0, 0
0, 0
0, 0
0, 0
0, 0
0, 0
0, 0
0, 0
0, 0
0, 0
0, 0
0, 0
0, 0
0, 0
0, 0
0, 0
0, 0
0, 0
0, 0
0, 0
0, 0
0, 0
0, 0
0, 0
0, 0
0, 0
0, 0
0, 0
0, 0
0, 0
0, 0
0, 0
0, 0
0, 0
0, 0
0, 0
0, 0
0, 0
0, 0
0, 0
0, 0
0, 0
0, 0
0, 0
0, 0
0, 0
0, 0
0, 0
0, 0
0, 0
0, 0
0, 0
0, 0
0, 0
0, 0
0, 0
0, 0
0, 0
0, 0
0, 0
0, 0
0, 0
0, 0
0, 0
0, 0
0, 0
0, 0
0, 0
0, 0
0, 0
0, 0
0, 0
0, 0
0, 0
0, 0
0, 0
0, 0
0, 0
0, 0
0, 0
0, 0
0, 0
0, 0
0, 0
0, 0
0, 0
0, 0
0, 0
0, 0
0, 0
0, 0
0, 0
0, 0
0, 0
0, 0
0, 0
0, 0
0, 0
0, 0
0, 0
0, 0
0, 0
0, 0
0, 0
0, 0
0, 0
0, 0
0, 0
0, 0
0, 0
0, 0
0, 0
0, 0
0, 0
0, 0
0, 0
0, 0
0, 0
0, 0
0, 0
0, 0
0, 0
0, 0
0, 0
0, 0
0, 0
0, 0
0, 0
0, 0
0, 0
0, 0
0, 0
0, 0
0, 0
0, 0
0, 0
0, 0
0, 0
0, 0
0, 0
0, 0
0, 0
0, 0
0, 0
0, 0
0, 0
0, 0
0, 0
0, 0
0, 0
0, 0
0, 0
0, 0
0, 0
0, 0
0, 0
0, 0
0, 0
0, 0
0, 0
0, 0
0, 0
0, 0
0, 0
0, 0
0, 0
0, 0
0, 0
0, 0
0, 0
0, 0
0, 0
0, 0
0, 0
0, 0
0, 0
0, 0
0, 0
0, 0
0, 0
0, 0
0, 0
0, 0
0, 0
0, 0
0, 0
0, 0
0, 0
0, 0
0, 0
0, 0
0, 0
0, 0
0, 0
0, 0
0, 0
0, 0
0, 0
0, 0
0, 0
0, 0
0, 0
0, 0
0, 0
0, 0
0, 0
0, 0
0, 0
0, 0
0, 0
0, 0
0, 0
0, 0
0, 0
0, 0
0, 0
0, 0
0, 0
0, 0
0, 0
0, 0
0, 0
0, 0
0, 0
0, 0
0, 0
0, 0
0, 0
0, 0
0, 0
0, 0
0, 0
0, 0
0, 0
0, 0
0, 0
0, 0
0, 0
0, 0
0, 0
0, 0
0, 0
0, 0
0, 0
0, 0
0, 0
0, 0
0, 0
0, 0
0, 0
0, 0
0, 0
0, 0
0, 0
0, 0
0, 0
0, 0
0, 0
0, 0
#ENDOFDATA     end of spectrum data