File: host_upload/02-11-2024/rqc/uplink1/ps__0567_0717304816_000rfs_shot_209.msa
#FORMAT      : EMSA/MAS spectral data file
#VERSION     : TC202v2.0 PIXL
#TITLE       : Novarupta (sol567) subset1
#DATE        : 02-11-2024      Date in the format DD-MMM-YYYY, for example 07-JUL-2010
#TIME        :             The time of day at which the spectrum was recorded, in 24-hour format
#OWNER       : PIXL Flight Model       (PIXL will use this to indicate which instrument took the data.)
#NPOINTS     : 4096     Number of data points in the spectrum (This can be zero for configuration only files)
#NCOLUMNS    : 2     Number of data columns in the spectrum (This can be zero for configuration only files)
#XUNITS      : eV
#YUNITS      : COUNTS
#DATATYPE    : YY
#XPERCHAN    : 7.862, 7.881   eV per channel (separate by commas if more than one detector)
#OFFSET      : 18.5, -22.4         eV of first channel  (separate by commas if more than one detector
#SIGNALTYPE  : XRF
#YP_TEMP     : 0.664
#LIVETIME    : 8.82482, 8.82261   seconds (separate by commas if more than one detector)
#REALTIME    : 10, 10.0   seconds (separate by commas if more than one detector)
#SPECTRUM    : start of spectrum data
0, 0
0, 0
0, 0
0, 0
0, 0
0, 0
0, 0
0, 0
0, 0
0, 0
0, 0
0, 0
0, 0
0, 0
0, 0
0, 0
0, 0
0, 0
0, 0
0, 0
0, 0
0, 0
0, 0
0, 0
0, 0
0, 0
0, 0
0, 0
0, 0
0, 0
0, 0
0, 1
1, 0
0, 3
0, 0
2, 1
2, 1
2, 3
8, 2
3, 6
3, 3
4, 4
6, 4
3, 2
3, 3
2, 3
2, 2
2, 0
1, 4
5, 6
6, 5
11, 11
15, 15
15, 10
21, 17
12, 17
18, 5
15, 13
9, 7
10, 16
21, 16
31, 36
28, 32
47, 55
45, 41
43, 37
34, 37
24, 26
42, 42
50, 70
95, 128
187, 179
290, 323
392, 397
472, 478
475, 491
422, 407
306, 295
224, 206
138, 124
83, 62
48, 46
33, 38
27, 34
27, 43
35, 34
32, 30
38, 35
26, 22
28, 20
15, 14
27, 19
28, 34
59, 61
99, 100
176, 186
273, 268
317, 341
330, 409
386, 377
328, 333
256, 260
203, 185
116, 94
99, 94
64, 64
45, 59
76, 55
80, 93
106, 143
146, 170
192, 219
197, 208
220, 202
210, 195
155, 147
151, 125
113, 111
86, 84
65, 85
65, 58
81, 61
63, 72
54, 69
54, 39
34, 34
33, 30
31, 20
28, 14
13, 17
7, 11
6, 8
5, 8
4, 5
6, 8
8, 7
9, 12
9, 13
13, 17
17, 17
24, 27
15, 33
31, 23
26, 20
21, 16
19, 20
8, 8
6, 7
12, 9
14, 15
36, 36
40, 58
83, 104
149, 153
214, 265
270, 308
352, 379
364, 417
361, 353
341, 288
267, 229
172, 146
99, 77
65, 58
39, 32
28, 30
31, 36
26, 32
48, 43
56, 56
41, 58
56, 70
57, 58
45, 56
43, 44
26, 32
20, 15
13, 17
5, 8
14, 8
12, 7
8, 9
8, 6
11, 6
11, 7
12, 15
19, 17
26, 24
30, 34
47, 60
57, 55
57, 51
60, 48
67, 61
49, 43
37, 41
34, 24
24, 27
22, 15
25, 11
16, 9
12, 17
11, 18
10, 6
9, 20
20, 15
8, 12
26, 19
15, 13
25, 20
16, 20
20, 16
17, 11
15, 24
17, 15
12, 14
20, 17
9, 11
15, 9
9, 10
7, 10
9, 9
11, 11
8, 16
13, 18
28, 14
18, 25
19, 22
18, 21
27, 22
31, 26
20, 34
39, 23
31, 22
29, 13
30, 16
12, 16
13, 11
7, 13
11, 7
7, 12
9, 7
12, 12
13, 18
11, 21
18, 25
27, 25
32, 28
44, 39
53, 43
53, 51
49, 53
40, 39
38, 46
36, 41
23, 37
17, 28
19, 13
25, 17
13, 21
18, 20
22, 29
34, 49
57, 98
129, 156
211, 311
382, 471
577, 682
862, 1047
1136, 1331
1399, 1606
1673, 1728
1783, 1712
1602, 1600
1401, 1311
1127, 1015
838, 737
546, 508
366, 279
231, 161
127, 105
72, 54
43, 26
27, 25
22, 14
12, 9
13, 19
21, 19
13, 14
19, 16
14, 23
25, 39
45, 50
58, 61
75, 100
115, 127
155, 185
202, 204
223, 258
255, 297
291, 263
259, 236
195, 182
170, 132
135, 105
110, 82
66, 35
42, 28
23, 16
8, 18
7, 12
5, 10
11, 9
8, 9
7, 9
7, 11
7, 6
9, 9
9, 12
11, 9
12, 11
9, 8
8, 10
7, 9
7, 11
7, 5
4, 9
5, 4
3, 4
5, 6
6, 8
9, 5
6, 4
6, 4
5, 5
3, 2
7, 6
8, 7
12, 8
3, 8
7, 7
11, 6
6, 9
6, 9
11, 9
11, 8
7, 4
7, 1
6, 6
7, 5
9, 12
5, 5
9, 8
13, 2
5, 8
9, 5
13, 6
6, 4
5, 5
8, 10
5, 10
7, 7
7, 6
10, 13
9, 8
8, 4
9, 14
11, 9
16, 10
8, 8
8, 6
8, 7
8, 11
4, 7
4, 3
5, 8
3, 9
4, 6
3, 8
3, 6
14, 8
3, 4
7, 5
3, 4
5, 6
5, 8
6, 6
1, 4
4, 5
3, 5
5, 7
11, 2
3, 11
8, 8
6, 5
6, 6
9, 4
8, 5
3, 2
9, 4
6, 6
5, 5
5, 10
5, 6
6, 6
3, 3
7, 7
10, 8
10, 3
3, 6
1, 7
7, 8
7, 4
9, 2
8, 3
6, 2
0, 4
4, 5
5, 6
1, 3
4, 3
3, 4
7, 6
2, 3
6, 4
7, 5
4, 3
3, 2
6, 2
6, 1
10, 3
4, 6
3, 3
3, 3
2, 4
1, 7
5, 1
4, 2
3, 6
4, 3
4, 3
5, 3
0, 3
4, 5
4, 1
3, 4
7, 3
6, 4
2, 2
1, 5
2, 3
5, 5
4, 4
2, 7
3, 3
3, 5
4, 2
2, 3
0, 2
7, 6
4, 2
2, 3
3, 6
3, 2
4, 5
6, 5
5, 3
1, 1
1, 4
4, 6
2, 1
4, 1
4, 0
4, 1
3, 1
5, 1
6, 3
0, 3
2, 2
3, 2
1, 5
4, 6
5, 1
2, 0
2, 2
4, 1
2, 5
0, 4
2, 3
3, 2
2, 5
4, 0
1, 2
1, 2
1, 3
1, 2
4, 3
2, 3
4, 2
3, 1
2, 5
2, 0
0, 2
1, 2
2, 2
1, 0
0, 1
3, 2
2, 1
2, 1
3, 1
0, 3
1, 0
0, 4
1, 2
2, 2
5, 3
5, 2
4, 2
5, 3
3, 5
2, 4
5, 5
0, 1
0, 0
1, 1
2, 1
1, 3
2, 2
4, 3
4, 1
1, 4
2, 6
1, 0
4, 5
4, 3
1, 2
1, 2
3, 2
2, 3
0, 5
2, 7
1, 3
2, 5
1, 4
3, 0
1, 2
3, 2
1, 2
3, 2
1, 2
2, 2
3, 2
0, 1
0, 0
1, 1
2, 2
2, 1
0, 2
1, 2
0, 2
1, 4
1, 1
1, 2
0, 0
1, 3
0, 3
1, 1
1, 2
0, 1
1, 2
3, 1
0, 1
1, 2
2, 1
1, 3
2, 2
0, 0
1, 3
1, 0
0, 1
5, 0
1, 2
1, 2
1, 2
0, 4
4, 1
1, 0
0, 0
2, 1
1, 0
0, 1
2, 0
2, 1
0, 2
1, 1
0, 0
1, 1
2, 1
3, 0
0, 1
0, 3
0, 1
1, 4
3, 1
2, 2
1, 1
2, 0
0, 1
1, 2
1, 1
2, 2
1, 1
1, 2
1, 0
0, 0
0, 1
0, 1
0, 0
2, 2
3, 0
2, 1
3, 0
0, 2
1, 1
1, 2
0, 0
1, 1
1, 1
0, 0
1, 1
0, 0
0, 1
1, 0
1, 0
2, 1
1, 1
1, 1
1, 0
0, 0
0, 0
1, 0
2, 0
0, 2
1, 1
1, 1
0, 0
1, 1
0, 0
1, 0
0, 1
2, 0
0, 0
0, 1
1, 0
0, 0
0, 1
0, 0
1, 0
1, 1
2, 1
0, 0
1, 0
0, 2
2, 3
0, 0
0, 1
0, 1
0, 0
0, 0
0, 1
1, 0
2, 1
2, 0
0, 0
0, 0
1, 0
0, 0
0, 1
1, 0
0, 1
1, 1
2, 0
0, 0
0, 2
0, 0
1, 1
0, 1
1, 0
0, 1
0, 0
0, 1
1, 1
0, 0
0, 0
1, 1
0, 0
1, 0
0, 1
2, 0
0, 1
3, 0
0, 1
0, 0
0, 0
2, 1
2, 0
0, 0
0, 0
0, 1
0, 0
0, 0
0, 0
0, 0
0, 0
2, 0
1, 1
0, 0
1, 1
0, 0
0, 0
2, 0
0, 0
1, 0
0, 0
1, 0
0, 0
2, 0
0, 0
1, 0
2, 0
0, 0
0, 0
0, 0
0, 1
0, 2
0, 0
0, 0
0, 0
0, 0
0, 0
0, 1
0, 0
0, 0
1, 1
0, 1
0, 0
1, 0
1, 0
0, 0
0, 0
0, 1
0, 0
0, 0
0, 0
0, 0
0, 0
0, 0
0, 1
0, 0
0, 0
0, 0
0, 1
0, 0
0, 0
0, 0
0, 0
0, 0
0, 0
0, 0
1, 0
1, 1
0, 1
2, 1
0, 0
1, 1
0, 0
0, 0
0, 0
0, 0
0, 0
0, 0
2, 1
0, 1
0, 0
0, 0
0, 0
0, 0
2, 1
0, 0
0, 0
0, 1
0, 1
0, 1
0, 0
2, 0
0, 1
0, 1
0, 0
0, 1
0, 1
0, 0
0, 0
0, 1
0, 0
0, 0
0, 0
0, 1
0, 0
0, 0
0, 0
0, 0
0, 0
0, 0
0, 0
0, 0
0, 0
0, 1
0, 0
0, 0
0, 0
0, 0
0, 1
0, 0
0, 0
0, 0
0, 0
0, 0
0, 0
1, 0
0, 1
1, 0
0, 0
0, 0
0, 1
0, 0
0, 1
0, 0
0, 0
0, 0
0, 0
0, 0
0, 0
0, 0
0, 1
0, 0
0, 0
0, 0
1, 0
0, 1
0, 0
0, 1
1, 0
0, 0
0, 0
0, 0
0, 0
0, 0
0, 0
0, 0
0, 0
0, 0
0, 0
0, 0
0, 0
0, 0
0, 0
0, 0
1, 0
0, 0
0, 0
0, 0
0, 0
0, 0
0, 0
1, 0
0, 0
0, 0
0, 0
0, 0
0, 0
0, 0
0, 0
0, 0
0, 0
0, 0
0, 0
0, 0
0, 0
1, 0
0, 0
1, 0
0, 0
0, 0
0, 0
0, 0
0, 0
0, 0
0, 0
0, 0
0, 0
0, 0
0, 0
0, 0
0, 0
0, 0
0, 0
0, 0
0, 0
0, 0
0, 0
0, 0
0, 0
0, 0
0, 0
0, 0
0, 0
0, 0
0, 0
0, 1
0, 0
0, 0
0, 1
0, 0
0, 0
0, 1
0, 0
0, 0
0, 0
1, 0
0, 0
0, 0
0, 0
0, 0
0, 0
0, 0
0, 0
1, 0
0, 0
0, 0
0, 0
0, 0
0, 0
0, 0
0, 0
0, 0
0, 0
0, 0
0, 0
0, 0
0, 0
0, 0
0, 0
0, 0
0, 0
0, 0
0, 0
0, 0
0, 0
0, 0
0, 0
0, 0
0, 0
0, 0
0, 0
0, 0
0, 0
0, 0
1, 0
0, 0
0, 0
0, 0
0, 0
0, 0
0, 0
0, 0
0, 0
0, 0
0, 0
0, 0
0, 0
0, 0
0, 0
0, 0
0, 0
0, 0
0, 0
0, 0
0, 0
0, 0
0, 0
0, 0
0, 0
0, 0
0, 0
0, 0
0, 0
0, 0
0, 0
0, 0
0, 0
0, 0
0, 0
0, 0
0, 0
0, 0
0, 0
0, 0
0, 0
0, 0
0, 0
0, 0
0, 0
0, 0
0, 0
0, 0
0, 0
0, 0
0, 0
0, 0
0, 0
0, 0
0, 0
0, 0
0, 0
0, 0
0, 0
0, 0
0, 0
0, 0
0, 0
0, 0
0, 0
0, 0
0, 0
0, 0
0, 0
0, 0
0, 0
0, 0
0, 0
0, 0
0, 0
0, 0
0, 0
0, 0
0, 0
0, 0
0, 0
0, 0
0, 0
0, 0
0, 0
0, 0
0, 0
0, 0
0, 0
0, 0
0, 0
0, 0
0, 0
0, 0
0, 0
0, 0
0, 0
0, 0
0, 0
0, 0
0, 0
0, 0
0, 0
0, 0
0, 0
0, 0
0, 0
0, 0
0, 0
0, 0
0, 0
0, 0
0, 0
0, 0
0, 0
0, 0
0, 0
0, 0
0, 0
0, 0
0, 0
0, 0
0, 0
0, 0
0, 0
0, 0
0, 0
0, 0
0, 0
0, 0
0, 0
0, 0
0, 0
0, 0
0, 0
0, 0
0, 0
0, 0
0, 0
0, 0
0, 0
0, 0
0, 0
0, 0
0, 0
0, 0
0, 0
0, 0
0, 0
0, 0
0, 0
0, 0
0, 0
0, 0
0, 0
0, 0
0, 0
0, 0
0, 0
0, 0
0, 0
0, 0
0, 0
0, 0
0, 0
0, 0
0, 0
0, 0
0, 0
0, 0
0, 0
0, 0
0, 0
0, 0
0, 0
0, 0
0, 0
0, 0
0, 0
0, 0
0, 0
0, 0
0, 0
0, 0
0, 0
0, 0
0, 0
0, 0
0, 0
0, 0
0, 0
0, 0
0, 0
0, 0
0, 0
0, 0
0, 0
0, 0
0, 0
0, 0
0, 0
0, 0
0, 0
0, 0
0, 0
0, 0
0, 0
0, 0
0, 0
0, 0
0, 0
0, 0
0, 0
0, 0
0, 0
0, 0
0, 0
0, 0
0, 0
0, 0
0, 0
0, 0
0, 0
0, 0
0, 0
0, 0
0, 0
0, 0
0, 0
0, 0
0, 0
0, 0
0, 0
0, 0
0, 0
0, 0
0, 0
0, 0
0, 0
0, 0
0, 0
0, 0
0, 0
0, 0
0, 0
0, 0
0, 0
0, 0
0, 0
0, 0
0, 0
0, 0
0, 0
0, 0
0, 0
0, 0
0, 0
0, 0
0, 0
0, 0
0, 0
0, 0
0, 0
0, 0
0, 0
0, 0
0, 0
0, 0
0, 0
0, 0
0, 0
0, 0
0, 0
0, 0
0, 0
0, 0
0, 0
0, 0
0, 0
0, 0
0, 0
0, 0
0, 0
0, 0
0, 0
0, 0
0, 0
0, 0
0, 0
0, 0
0, 0
0, 0
0, 0
0, 0
0, 0
0, 0
0, 0
0, 0
0, 0
0, 0
0, 0
0, 0
0, 0
0, 0
0, 0
0, 0
0, 0
0, 0
0, 0
0, 0
0, 0
0, 0
0, 0
0, 0
0, 0
0, 0
0, 0
0, 0
0, 0
0, 0
0, 0
0, 0
0, 0
0, 0
0, 0
0, 0
0, 0
0, 0
0, 0
0, 0
0, 0
0, 0
0, 0
0, 0
0, 0
0, 0
0, 0
0, 0
0, 0
0, 0
0, 0
0, 0
0, 0
0, 0
0, 0
0, 0
0, 0
0, 0
0, 0
0, 0
0, 0
0, 0
0, 0
0, 0
0, 0
0, 0
0, 0
0, 0
0, 0
0, 0
0, 0
0, 0
0, 0
0, 0
0, 0
0, 0
0, 0
0, 0
0, 0
0, 0
0, 0
0, 0
0, 0
0, 0
0, 0
0, 0
0, 0
0, 0
0, 0
0, 0
0, 0
0, 0
0, 0
0, 0
0, 0
0, 0
0, 0
0, 0
0, 0
0, 0
0, 0
0, 0
0, 0
0, 0
0, 0
0, 0
0, 0
0, 0
#ENDOFDATA     end of spectrum data