File: host_upload/02-11-2024/rqc/uplink1/ps__0567_0717304816_000rfs_shot_241.msa
#FORMAT      : EMSA/MAS spectral data file
#VERSION     : TC202v2.0 PIXL
#TITLE       : Novarupta (sol567) subset1
#DATE        : 02-11-2024      Date in the format DD-MMM-YYYY, for example 07-JUL-2010
#TIME        :             The time of day at which the spectrum was recorded, in 24-hour format
#OWNER       : PIXL Flight Model       (PIXL will use this to indicate which instrument took the data.)
#NPOINTS     : 4096     Number of data points in the spectrum (This can be zero for configuration only files)
#NCOLUMNS    : 2     Number of data columns in the spectrum (This can be zero for configuration only files)
#XUNITS      : eV
#YUNITS      : COUNTS
#DATATYPE    : YY
#XPERCHAN    : 7.862, 7.881   eV per channel (separate by commas if more than one detector)
#OFFSET      : 18.5, -22.4         eV of first channel  (separate by commas if more than one detector
#SIGNALTYPE  : XRF
#YP_TEMP     : 0.824
#LIVETIME    : 8.82932, 8.81186   seconds (separate by commas if more than one detector)
#REALTIME    : 10, 10.0   seconds (separate by commas if more than one detector)
#SPECTRUM    : start of spectrum data
0, 0
0, 0
0, 0
0, 0
0, 0
0, 0
0, 0
0, 0
0, 0
0, 0
0, 0
0, 0
0, 0
0, 0
0, 0
0, 0
0, 0
0, 0
0, 0
0, 0
0, 0
0, 0
0, 0
0, 0
0, 0
0, 0
0, 0
0, 0
0, 0
0, 0
0, 1
0, 0
0, 0
0, 1
1, 2
3, 0
4, 2
2, 3
0, 2
2, 3
2, 5
2, 5
6, 3
1, 5
0, 5
3, 2
5, 4
5, 2
3, 1
4, 3
6, 7
10, 6
12, 9
13, 11
16, 17
10, 18
16, 13
11, 6
11, 13
9, 19
18, 28
27, 32
36, 37
45, 56
58, 61
34, 61
30, 43
39, 38
40, 35
60, 66
112, 116
176, 231
255, 365
404, 482
426, 534
453, 555
416, 460
337, 359
205, 207
106, 147
78, 89
55, 53
30, 40
20, 35
26, 31
21, 41
26, 35
34, 30
25, 21
14, 20
12, 18
18, 26
21, 38
44, 58
74, 99
122, 139
180, 236
248, 283
265, 342
311, 340
240, 293
197, 232
134, 161
101, 110
54, 76
34, 39
61, 50
50, 80
70, 107
104, 129
156, 195
167, 194
195, 221
183, 254
166, 197
128, 164
133, 109
98, 88
70, 81
79, 91
71, 83
80, 79
59, 73
50, 66
44, 46
28, 36
31, 21
21, 28
10, 17
21, 13
8, 11
7, 9
7, 5
13, 8
5, 6
5, 10
12, 10
12, 10
19, 25
24, 31
22, 33
35, 42
28, 41
25, 23
16, 23
15, 17
17, 13
14, 9
5, 10
13, 22
24, 37
55, 56
65, 100
129, 182
195, 265
296, 357
333, 432
365, 415
359, 397
312, 335
225, 283
156, 187
103, 116
63, 68
33, 37
21, 30
29, 23
27, 39
45, 51
49, 87
57, 86
55, 68
50, 61
54, 69
39, 42
16, 28
21, 28
15, 16
10, 12
7, 13
12, 6
6, 7
12, 13
13, 8
7, 16
12, 22
14, 15
21, 33
31, 35
47, 45
55, 53
52, 74
49, 70
52, 71
44, 58
31, 47
31, 42
28, 47
14, 21
18, 20
16, 19
9, 9
10, 12
14, 13
12, 8
18, 22
12, 18
9, 16
21, 10
13, 21
22, 27
18, 21
20, 21
24, 13
15, 19
17, 20
16, 12
12, 17
10, 12
9, 8
14, 10
12, 14
11, 12
6, 17
13, 15
16, 21
14, 30
23, 24
26, 29
18, 32
30, 42
30, 29
12, 26
24, 28
26, 24
13, 21
10, 24
13, 13
10, 11
12, 16
6, 11
5, 9
12, 11
8, 24
16, 17
17, 17
29, 29
22, 40
34, 47
29, 54
48, 52
45, 63
49, 54
32, 48
30, 25
24, 24
24, 20
16, 20
18, 22
18, 15
22, 26
20, 26
33, 64
65, 77
111, 167
219, 262
358, 546
501, 762
854, 1079
1105, 1463
1411, 1728
1574, 1952
1679, 1946
1562, 1827
1393, 1577
1125, 1152
821, 853
571, 506
357, 330
220, 178
114, 99
69, 53
36, 35
16, 27
23, 15
17, 15
9, 22
8, 20
11, 21
17, 23
25, 25
26, 43
43, 47
46, 82
61, 111
119, 141
168, 192
189, 232
213, 283
250, 264
262, 299
238, 234
223, 204
170, 182
115, 106
62, 72
54, 47
25, 27
19, 23
12, 18
4, 6
5, 10
13, 11
10, 12
9, 14
9, 11
21, 18
12, 9
13, 15
6, 14
8, 14
12, 12
8, 11
8, 10
4, 7
8, 6
6, 3
5, 6
11, 6
4, 10
6, 3
7, 11
4, 5
7, 3
3, 10
8, 4
4, 4
3, 5
6, 4
5, 4
5, 8
2, 11
7, 9
5, 10
5, 11
3, 9
3, 7
2, 7
9, 7
5, 7
1, 5
6, 12
7, 11
10, 3
6, 5
8, 6
9, 3
6, 7
6, 4
8, 8
2, 7
9, 11
7, 13
6, 8
9, 12
11, 7
14, 12
10, 18
14, 10
6, 15
7, 7
8, 7
12, 9
7, 5
6, 7
7, 8
8, 7
3, 5
7, 8
7, 5
6, 6
7, 8
6, 13
7, 8
9, 2
9, 1
6, 4
2, 9
6, 7
2, 9
2, 4
2, 10
5, 7
3, 5
6, 5
3, 3
4, 3
4, 11
5, 7
3, 7
3, 4
3, 6
7, 7
9, 3
4, 8
6, 4
7, 4
6, 6
6, 4
5, 7
7, 5
7, 6
3, 7
3, 4
2, 7
4, 2
3, 3
5, 3
6, 7
4, 8
3, 4
7, 5
2, 9
4, 4
3, 4
2, 11
5, 7
3, 5
4, 6
5, 5
3, 2
3, 8
4, 4
1, 4
3, 1
3, 4
5, 3
2, 3
2, 9
4, 3
2, 5
6, 4
3, 1
1, 3
2, 4
1, 1
0, 2
5, 5
4, 5
0, 4
3, 6
3, 1
1, 7
6, 1
3, 3
2, 2
3, 2
1, 4
3, 7
2, 4
1, 5
2, 5
1, 2
3, 5
2, 4
3, 5
1, 4
4, 4
1, 7
1, 5
5, 1
1, 4
1, 3
2, 1
3, 6
2, 6
6, 2
4, 5
4, 1
0, 1
1, 6
4, 3
0, 3
4, 7
3, 1
4, 2
1, 1
2, 1
1, 4
5, 2
2, 7
3, 6
1, 5
4, 5
0, 2
4, 4
5, 1
5, 3
1, 1
1, 3
3, 2
1, 2
1, 6
1, 4
1, 3
1, 1
2, 2
2, 1
0, 3
1, 4
1, 7
2, 2
5, 4
4, 2
2, 5
3, 3
0, 0
2, 1
1, 6
1, 2
1, 5
1, 0
1, 2
1, 3
1, 4
1, 1
1, 0
1, 2
2, 2
0, 3
2, 3
3, 1
2, 4
0, 2
2, 2
2, 7
2, 3
3, 4
3, 3
0, 4
3, 3
3, 4
3, 4
0, 1
2, 4
1, 0
0, 5
0, 1
4, 2
1, 4
0, 1
1, 1
3, 2
2, 3
1, 3
0, 0
2, 3
2, 2
1, 3
2, 0
2, 1
2, 2
4, 4
2, 2
1, 2
2, 4
2, 2
1, 1
1, 2
3, 3
4, 1
5, 2
4, 2
1, 2
3, 3
1, 2
1, 1
1, 2
4, 2
0, 1
1, 1
1, 1
1, 2
1, 1
0, 2
0, 1
0, 3
1, 0
0, 0
2, 2
1, 2
1, 2
0, 1
1, 0
1, 0
1, 1
0, 1
0, 1
1, 0
0, 0
1, 0
1, 0
0, 1
1, 0
2, 1
0, 0
0, 1
0, 0
3, 1
0, 2
0, 0
0, 0
0, 1
0, 0
0, 1
0, 0
0, 1
0, 3
0, 1
0, 4
0, 2
0, 0
3, 1
1, 1
0, 0
2, 2
0, 1
0, 1
2, 1
1, 1
0, 2
1, 1
0, 1
0, 0
1, 1
2, 0
3, 0
0, 2
0, 4
0, 0
0, 2
1, 0
1, 2
0, 1
0, 1
0, 1
1, 2
2, 1
0, 1
0, 1
2, 0
0, 0
0, 0
2, 1
1, 0
1, 1
0, 2
1, 1
0, 0
1, 2
1, 0
0, 1
0, 1
0, 1
2, 1
0, 1
0, 0
0, 0
0, 1
0, 0
0, 0
0, 2
0, 1
2, 1
2, 1
0, 0
0, 0
0, 0
1, 0
2, 2
0, 0
0, 1
0, 0
0, 1
0, 2
0, 0
1, 2
1, 0
0, 1
0, 0
1, 0
0, 1
0, 0
0, 2
0, 1
0, 2
0, 2
2, 1
0, 1
1, 0
1, 1
0, 1
0, 0
2, 0
0, 0
0, 1
1, 0
1, 0
1, 1
0, 0
1, 1
0, 1
3, 1
0, 0
0, 0
0, 0
0, 0
0, 0
0, 0
0, 0
2, 0
0, 1
0, 0
0, 0
0, 2
0, 0
0, 0
0, 0
0, 0
0, 0
0, 1
2, 0
0, 0
0, 0
0, 0
0, 0
0, 0
0, 0
0, 0
1, 1
0, 0
0, 0
0, 1
1, 0
1, 0
0, 0
0, 0
1, 0
0, 0
1, 1
0, 0
1, 0
0, 0
0, 0
0, 0
0, 0
0, 0
1, 0
0, 1
0, 0
0, 2
0, 0
1, 0
1, 0
0, 0
0, 0
0, 0
0, 2
0, 0
0, 2
0, 0
0, 0
0, 0
0, 0
1, 1
1, 0
0, 1
1, 0
1, 0
0, 1
0, 0
0, 0
0, 1
0, 0
0, 0
0, 0
0, 0
0, 0
0, 1
0, 1
0, 0
0, 0
1, 0
1, 0
0, 2
0, 0
1, 1
0, 0
0, 0
1, 0
0, 0
2, 0
0, 1
0, 0
0, 0
0, 0
0, 0
0, 0
0, 0
0, 1
1, 0
0, 0
0, 0
1, 1
0, 1
1, 0
0, 1
0, 0
0, 0
0, 0
0, 0
0, 0
1, 0
0, 0
0, 0
0, 0
0, 0
0, 0
0, 0
0, 0
0, 0
0, 0
1, 0
0, 0
0, 0
0, 0
0, 1
0, 0
1, 0
0, 0
0, 0
0, 0
0, 0
0, 0
1, 0
0, 0
0, 0
0, 0
0, 0
0, 0
0, 0
1, 0
0, 1
1, 0
0, 0
0, 0
0, 0
0, 0
0, 0
0, 0
0, 0
0, 0
0, 0
0, 1
1, 0
0, 0
0, 0
0, 0
0, 0
0, 0
0, 0
0, 0
0, 0
1, 0
0, 0
0, 1
0, 0
0, 0
0, 1
1, 0
1, 0
0, 0
0, 0
0, 0
1, 0
0, 0
0, 0
0, 0
0, 0
0, 0
1, 0
0, 0
0, 0
0, 0
0, 1
0, 0
0, 0
0, 0
0, 0
0, 0
0, 0
0, 0
0, 0
0, 0
0, 0
0, 0
0, 0
0, 0
0, 0
0, 0
0, 0
0, 0
0, 0
0, 0
0, 0
0, 0
0, 0
0, 0
0, 0
0, 0
0, 0
0, 0
0, 0
0, 0
1, 0
0, 0
0, 0
0, 0
0, 0
0, 0
0, 0
0, 0
0, 0
0, 0
0, 0
0, 0
0, 0
0, 0
0, 0
0, 0
0, 0
0, 0
0, 0
0, 0
0, 0
0, 0
0, 0
0, 1
0, 0
0, 0
0, 0
0, 1
0, 0
0, 0
0, 0
0, 0
0, 0
0, 0
0, 0
0, 0
0, 0
0, 0
0, 0
0, 0
0, 0
0, 0
0, 0
0, 0
0, 0
0, 0
0, 0
0, 0
0, 0
0, 0
0, 0
0, 0
0, 0
0, 0
0, 0
0, 0
0, 0
0, 0
0, 0
0, 0
0, 0
0, 0
0, 0
0, 0
0, 0
0, 0
0, 0
0, 0
0, 0
0, 0
0, 0
0, 0
0, 0
0, 0
0, 0
0, 0
0, 0
0, 0
0, 0
0, 0
0, 0
0, 0
0, 0
0, 0
0, 0
0, 0
0, 0
0, 0
0, 0
0, 0
0, 0
0, 0
0, 0
0, 0
0, 0
0, 0
0, 0
0, 0
0, 0
0, 0
0, 0
0, 0
0, 0
0, 0
0, 0
0, 0
0, 0
0, 0
0, 0
0, 0
0, 0
0, 0
0, 0
0, 0
0, 0
0, 0
0, 0
0, 0
0, 0
0, 0
0, 0
0, 0
0, 0
0, 0
0, 0
0, 0
0, 0
0, 0
0, 0
0, 0
0, 0
0, 0
1, 0
0, 0
0, 0
0, 0
0, 0
0, 0
0, 0
0, 0
0, 0
0, 0
0, 0
0, 0
0, 0
0, 0
0, 0
0, 0
0, 0
0, 0
0, 0
0, 0
0, 0
0, 0
0, 0
0, 0
0, 0
0, 0
0, 0
0, 0
0, 0
0, 0
0, 0
0, 0
0, 0
0, 0
0, 0
0, 0
0, 0
0, 0
0, 0
0, 0
0, 0
0, 0
0, 0
0, 0
0, 0
0, 0
0, 0
0, 0
0, 0
0, 0
0, 0
0, 0
0, 0
0, 0
0, 0
0, 0
0, 0
0, 0
0, 0
0, 0
0, 0
0, 0
0, 0
0, 0
0, 0
0, 0
0, 0
0, 0
0, 0
0, 0
0, 0
0, 0
0, 0
0, 0
0, 0
0, 0
0, 0
0, 0
0, 0
0, 0
0, 0
0, 0
0, 0
0, 0
0, 0
0, 0
0, 0
0, 0
0, 0
0, 0
0, 0
0, 0
0, 0
0, 0
0, 0
0, 0
0, 0
0, 0
0, 0
0, 0
0, 0
0, 0
0, 0
0, 0
0, 0
0, 0
0, 0
0, 0
0, 0
0, 0
0, 0
0, 0
0, 0
0, 0
0, 0
0, 0
0, 0
0, 0
0, 0
0, 0
0, 0
0, 0
0, 0
0, 0
0, 0
0, 0
0, 0
0, 0
0, 0
0, 0
0, 0
0, 0
0, 0
0, 0
0, 0
0, 0
0, 0
0, 0
0, 0
0, 0
0, 0
0, 0
0, 0
0, 0
0, 0
0, 0
0, 0
0, 0
0, 0
0, 0
0, 0
0, 0
0, 0
0, 0
0, 0
0, 0
0, 0
0, 0
0, 0
0, 0
0, 0
0, 0
0, 0
0, 0
0, 0
0, 0
0, 0
0, 0
0, 0
0, 0
0, 0
0, 0
0, 0
0, 0
0, 0
0, 0
0, 0
0, 0
0, 0
0, 0
0, 0
0, 0
0, 0
0, 0
0, 0
0, 0
0, 0
0, 0
0, 0
0, 0
0, 0
0, 0
0, 0
0, 0
0, 0
0, 0
0, 0
0, 0
0, 0
0, 0
0, 0
0, 0
0, 0
0, 0
0, 0
0, 0
0, 0
0, 0
0, 0
0, 0
0, 0
0, 0
0, 0
0, 0
0, 0
0, 0
0, 0
0, 0
0, 0
0, 0
0, 0
0, 0
0, 0
0, 0
0, 0
0, 0
0, 0
0, 0
0, 0
0, 0
0, 0
0, 0
0, 0
0, 0
0, 0
0, 0
0, 0
0, 0
0, 0
0, 0
0, 0
0, 0
0, 0
0, 0
0, 0
0, 0
0, 0
0, 0
0, 0
0, 0
0, 0
0, 0
0, 0
0, 0
0, 0
0, 0
0, 0
0, 0
0, 0
0, 0
0, 0
0, 0
0, 0
0, 0
0, 0
0, 0
0, 0
0, 0
0, 0
0, 0
0, 0
0, 0
0, 0
0, 0
0, 0
0, 0
0, 0
0, 0
0, 0
0, 0
0, 0
0, 0
0, 0
0, 0
0, 0
0, 0
0, 0
0, 0
0, 0
0, 0
0, 0
0, 0
0, 0
0, 0
0, 0
0, 0
0, 0
0, 0
0, 0
0, 0
0, 0
0, 0
0, 0
0, 0
0, 0
0, 0
0, 0
0, 0
0, 0
0, 0
#ENDOFDATA     end of spectrum data