File: host_upload/02-11-2024/rqc/uplink1/ps__0567_0717304816_000rfs_shot_122.msa
#FORMAT      : EMSA/MAS spectral data file
#VERSION     : TC202v2.0 PIXL
#TITLE       : Novarupta (sol567) subset1
#DATE        : 02-11-2024      Date in the format DD-MMM-YYYY, for example 07-JUL-2010
#TIME        :             The time of day at which the spectrum was recorded, in 24-hour format
#OWNER       : PIXL Flight Model       (PIXL will use this to indicate which instrument took the data.)
#NPOINTS     : 4096     Number of data points in the spectrum (This can be zero for configuration only files)
#NCOLUMNS    : 2     Number of data columns in the spectrum (This can be zero for configuration only files)
#XUNITS      : eV
#YUNITS      : COUNTS
#DATATYPE    : YY
#XPERCHAN    : 7.862, 7.881   eV per channel (separate by commas if more than one detector)
#OFFSET      : 18.5, -22.4         eV of first channel  (separate by commas if more than one detector
#SIGNALTYPE  : XRF
#YP_TEMP     : -0.459
#LIVETIME    : 8.84368, 8.81603   seconds (separate by commas if more than one detector)
#REALTIME    : 10, 10.0   seconds (separate by commas if more than one detector)
#SPECTRUM    : start of spectrum data
0, 0
0, 0
0, 0
0, 0
0, 0
0, 0
0, 0
0, 0
0, 0
0, 0
0, 0
0, 0
0, 0
0, 0
0, 0
0, 0
0, 0
0, 0
0, 0
0, 0
0, 0
0, 0
0, 0
0, 0
0, 0
0, 0
0, 0
0, 0
0, 0
0, 0
0, 0
1, 0
0, 2
0, 1
1, 1
1, 0
0, 3
3, 3
4, 2
5, 3
3, 5
0, 3
2, 5
2, 3
5, 0
0, 4
6, 3
3, 4
4, 5
3, 6
5, 4
9, 5
16, 10
13, 8
20, 9
10, 10
10, 13
10, 9
6, 9
9, 12
11, 28
19, 31
30, 43
51, 48
58, 48
46, 46
33, 51
30, 30
40, 39
69, 82
105, 139
174, 233
290, 334
415, 485
458, 507
514, 487
418, 458
301, 338
241, 240
132, 145
86, 82
47, 40
35, 38
32, 27
30, 36
34, 40
43, 31
29, 19
17, 16
21, 20
18, 18
24, 11
32, 22
41, 47
79, 80
118, 134
195, 219
248, 255
257, 313
276, 298
229, 244
174, 200
133, 140
78, 96
67, 62
59, 46
53, 55
72, 72
84, 103
105, 144
153, 181
200, 232
226, 229
172, 207
199, 197
175, 162
112, 135
90, 107
97, 85
87, 87
72, 84
62, 71
72, 68
56, 47
49, 40
33, 38
31, 27
21, 22
19, 19
25, 11
12, 12
12, 10
4, 5
5, 6
5, 3
7, 6
6, 8
13, 8
9, 16
21, 32
27, 39
28, 30
25, 32
23, 23
10, 17
14, 14
16, 8
9, 9
12, 13
21, 28
21, 41
49, 70
90, 95
136, 189
228, 239
235, 305
315, 347
343, 419
329, 359
300, 304
227, 221
144, 146
111, 101
71, 63
41, 32
21, 23
26, 30
43, 32
55, 50
41, 71
61, 67
52, 51
57, 46
53, 48
41, 37
23, 29
17, 17
17, 15
9, 10
12, 16
8, 6
8, 14
10, 8
12, 16
8, 10
13, 16
11, 31
24, 31
32, 42
55, 50
57, 47
38, 63
50, 57
54, 64
64, 43
45, 55
41, 44
18, 25
27, 21
22, 12
16, 21
20, 11
11, 18
12, 13
11, 14
11, 11
17, 18
16, 16
13, 16
17, 17
16, 20
14, 16
17, 11
16, 10
7, 12
12, 14
5, 7
6, 11
10, 14
9, 8
5, 10
8, 14
8, 13
17, 12
8, 14
8, 21
19, 30
19, 25
9, 30
27, 26
29, 34
23, 33
32, 27
16, 21
23, 23
20, 16
15, 16
11, 14
11, 15
22, 13
17, 18
15, 18
12, 15
12, 23
13, 7
22, 27
18, 27
32, 29
36, 35
41, 45
42, 50
45, 55
43, 47
29, 30
33, 36
25, 28
23, 34
15, 24
27, 28
20, 21
14, 23
23, 28
53, 56
80, 103
115, 179
247, 327
425, 474
611, 805
901, 1128
1212, 1494
1485, 1709
1554, 1845
1726, 1891
1658, 1565
1356, 1362
1003, 1047
753, 704
525, 478
311, 265
222, 169
114, 81
61, 49
28, 27
21, 19
23, 21
17, 15
16, 19
19, 14
15, 13
18, 18
25, 26
27, 44
51, 56
68, 78
99, 100
99, 146
167, 203
238, 247
226, 266
258, 279
268, 250
201, 239
206, 207
157, 176
101, 108
80, 77
69, 43
34, 32
24, 19
17, 14
15, 14
8, 12
8, 10
9, 12
7, 14
17, 20
6, 8
12, 10
21, 14
14, 19
9, 12
8, 13
9, 10
4, 7
6, 4
4, 1
7, 7
3, 4
4, 2
3, 13
6, 6
3, 8
7, 2
10, 7
4, 2
6, 5
3, 5
9, 6
3, 8
10, 9
3, 6
5, 9
7, 5
8, 10
6, 6
4, 5
6, 10
9, 11
7, 2
5, 7
5, 9
9, 6
5, 3
6, 6
6, 7
9, 9
7, 6
2, 6
2, 4
7, 9
8, 12
5, 10
7, 10
9, 13
8, 11
9, 10
9, 7
10, 7
4, 12
10, 13
12, 14
9, 11
1, 9
7, 9
14, 6
9, 6
7, 5
4, 5
17, 5
6, 9
5, 7
4, 7
5, 5
6, 2
2, 3
5, 8
4, 6
3, 3
4, 4
4, 4
3, 8
4, 7
8, 7
3, 7
3, 9
5, 5
3, 3
5, 4
2, 8
4, 7
6, 4
11, 9
5, 7
3, 4
2, 6
1, 4
6, 3
5, 5
13, 5
9, 3
6, 7
5, 3
6, 6
4, 4
2, 5
3, 2
5, 6
4, 3
1, 7
6, 8
4, 4
5, 4
5, 0
4, 0
3, 2
5, 2
7, 1
6, 4
5, 7
6, 5
6, 6
3, 6
5, 3
6, 4
6, 2
3, 5
2, 5
1, 1
5, 5
3, 5
3, 6
3, 6
3, 1
5, 1
2, 2
1, 11
5, 3
1, 7
2, 4
1, 3
6, 4
5, 6
3, 2
1, 4
5, 5
6, 3
2, 1
4, 3
1, 7
5, 5
2, 3
5, 1
5, 3
2, 4
5, 3
4, 1
2, 4
3, 4
6, 1
4, 4
3, 5
2, 7
4, 3
2, 4
2, 1
1, 4
1, 3
4, 4
0, 1
1, 0
4, 1
2, 3
2, 2
2, 4
2, 3
3, 2
2, 0
2, 2
5, 5
3, 4
3, 4
2, 1
4, 5
2, 1
1, 2
1, 4
7, 3
3, 1
0, 3
3, 1
1, 1
3, 4
5, 2
6, 4
4, 2
1, 3
2, 3
1, 4
3, 2
4, 2
2, 2
4, 3
0, 1
0, 1
3, 2
0, 2
2, 2
2, 2
3, 2
1, 0
3, 1
1, 4
4, 3
2, 3
3, 4
2, 3
1, 3
4, 2
3, 3
0, 3
0, 3
1, 3
3, 5
3, 4
3, 2
5, 4
4, 2
2, 2
2, 2
1, 2
3, 3
3, 4
5, 8
4, 4
1, 6
1, 2
3, 2
5, 1
1, 1
2, 3
1, 1
2, 0
2, 1
1, 1
1, 0
2, 0
1, 1
1, 2
0, 2
1, 4
1, 0
1, 1
0, 3
2, 0
0, 1
2, 1
0, 0
0, 1
2, 2
0, 0
1, 3
2, 3
1, 2
3, 0
2, 1
2, 2
1, 1
2, 2
5, 1
0, 1
0, 1
1, 1
1, 2
1, 2
1, 2
1, 2
0, 1
1, 1
0, 1
1, 0
0, 0
5, 2
2, 0
0, 2
3, 1
1, 3
3, 1
0, 1
2, 1
0, 0
0, 2
0, 1
1, 0
2, 1
0, 2
2, 1
1, 2
2, 0
1, 0
2, 2
0, 1
1, 1
1, 1
0, 1
1, 0
0, 1
3, 2
0, 2
0, 0
1, 1
1, 4
0, 2
0, 0
1, 0
0, 0
0, 2
0, 0
1, 1
1, 0
0, 1
0, 0
0, 1
0, 2
0, 0
2, 3
0, 2
1, 3
1, 2
2, 1
1, 1
2, 0
0, 1
0, 2
0, 1
0, 0
0, 0
3, 1
0, 1
0, 0
0, 0
0, 0
1, 2
2, 1
0, 1
1, 0
0, 0
2, 0
0, 0
0, 0
1, 0
0, 0
1, 0
2, 1
1, 0
2, 0
0, 0
1, 0
1, 1
0, 0
0, 0
0, 1
1, 1
1, 0
0, 0
0, 0
0, 0
1, 1
0, 0
0, 0
0, 0
0, 0
0, 2
1, 0
1, 0
1, 1
0, 1
0, 2
0, 0
0, 0
0, 0
0, 0
2, 1
0, 1
0, 1
0, 0
2, 0
0, 1
2, 0
0, 0
0, 0
0, 0
1, 0
0, 2
0, 0
0, 0
0, 0
0, 2
0, 0
0, 0
0, 0
0, 1
0, 0
0, 0
0, 0
0, 0
0, 0
0, 0
0, 0
1, 0
1, 1
0, 0
0, 0
1, 0
0, 2
0, 0
0, 1
0, 0
0, 0
1, 0
1, 0
0, 0
0, 1
0, 0
0, 0
0, 0
1, 0
0, 0
0, 0
0, 0
0, 0
0, 0
0, 0
0, 1
0, 0
0, 2
0, 0
0, 1
0, 0
0, 0
0, 0
0, 1
0, 3
0, 1
0, 0
0, 0
0, 1
0, 0
0, 0
0, 0
0, 0
0, 0
0, 0
0, 3
0, 1
0, 1
1, 0
0, 0
0, 0
0, 0
0, 0
0, 0
0, 0
0, 1
0, 1
0, 0
1, 1
1, 0
0, 0
0, 0
1, 0
0, 0
0, 0
0, 0
0, 1
0, 0
0, 0
0, 0
0, 0
1, 0
0, 0
0, 1
0, 0
0, 0
0, 0
0, 0
0, 0
0, 1
1, 2
0, 0
1, 0
1, 0
1, 0
1, 1
0, 1
0, 0
0, 1
1, 0
0, 0
0, 0
0, 0
0, 1
1, 0
0, 0
0, 0
0, 0
0, 0
0, 0
0, 0
0, 0
1, 0
1, 0
0, 0
0, 0
0, 2
0, 0
0, 0
0, 0
0, 0
0, 0
0, 1
0, 0
0, 0
0, 0
1, 0
0, 1
0, 0
0, 0
0, 1
0, 0
0, 0
0, 0
0, 1
0, 0
0, 1
0, 0
0, 0
0, 0
0, 0
0, 0
0, 0
0, 0
0, 0
0, 0
0, 0
2, 2
1, 0
0, 0
0, 0
0, 0
0, 0
0, 0
0, 0
1, 0
0, 0
0, 0
0, 0
0, 0
0, 0
0, 0
0, 0
0, 0
1, 0
0, 1
0, 0
0, 1
0, 0
0, 0
0, 0
0, 0
0, 0
0, 0
0, 1
0, 0
1, 0
0, 0
0, 0
0, 0
0, 0
0, 0
0, 0
0, 0
1, 0
1, 0
1, 0
0, 0
0, 0
0, 0
0, 0
0, 0
1, 0
0, 0
0, 0
0, 0
0, 0
1, 0
0, 0
0, 0
0, 0
0, 0
0, 0
0, 1
0, 0
1, 0
0, 0
0, 0
0, 0
0, 0
0, 0
0, 0
0, 0
0, 0
0, 0
0, 0
0, 0
0, 0
0, 0
0, 0
0, 0
0, 0
0, 0
0, 0
0, 0
0, 0
0, 0
0, 0
0, 1
0, 0
0, 0
0, 0
0, 0
0, 0
0, 0
0, 0
0, 0
0, 0
0, 0
0, 0
0, 0
0, 0
0, 0
0, 0
0, 0
0, 0
0, 0
0, 0
0, 0
0, 0
0, 0
0, 0
0, 0
0, 0
0, 0
0, 0
0, 0
0, 0
0, 0
0, 0
0, 0
0, 0
0, 0
0, 0
0, 0
0, 0
0, 0
0, 0
0, 0
0, 0
0, 0
0, 0
0, 0
0, 0
0, 0
0, 0
0, 0
0, 0
0, 0
0, 0
0, 0
0, 0
0, 0
0, 0
0, 0
0, 0
0, 0
0, 0
0, 0
0, 0
0, 0
0, 0
0, 0
0, 0
0, 0
0, 0
0, 0
0, 0
0, 0
0, 0
0, 0
0, 0
0, 0
0, 0
0, 0
0, 0
0, 0
0, 0
0, 0
0, 0
0, 0
0, 0
0, 0
0, 0
0, 0
0, 0
0, 0
0, 0
0, 0
0, 0
0, 0
0, 0
0, 0
0, 0
0, 0
0, 0
0, 0
0, 0
0, 0
0, 0
0, 0
0, 0
0, 0
0, 0
0, 0
0, 0
0, 0
0, 0
0, 0
0, 0
0, 0
0, 0
0, 0
0, 0
0, 0
0, 0
0, 0
0, 0
0, 0
0, 0
0, 0
0, 0
0, 0
0, 0
0, 0
0, 0
0, 0
0, 0
0, 0
0, 0
0, 0
0, 0
0, 0
0, 0
0, 0
0, 0
0, 0
0, 0
0, 0
0, 0
0, 0
0, 0
0, 0
0, 0
0, 0
0, 0
0, 0
0, 0
0, 0
0, 0
0, 0
0, 0
0, 0
0, 0
0, 0
0, 0
0, 0
0, 0
0, 0
0, 0
0, 0
0, 0
0, 0
0, 0
0, 0
0, 0
0, 0
0, 0
0, 0
0, 0
0, 0
0, 0
0, 0
0, 0
0, 0
0, 0
0, 0
0, 0
0, 0
0, 0
0, 0
0, 0
0, 0
0, 0
0, 0
0, 0
0, 0
0, 0
0, 0
0, 0
0, 0
0, 0
0, 0
0, 0
0, 0
0, 0
0, 0
0, 0
0, 0
0, 0
0, 0
0, 0
0, 0
0, 0
0, 0
0, 0
0, 0
0, 0
0, 0
0, 0
0, 0
0, 0
0, 0
0, 0
0, 0
0, 0
0, 0
0, 0
0, 0
0, 0
0, 0
0, 0
0, 0
0, 0
0, 0
0, 0
0, 0
0, 0
0, 0
0, 0
0, 0
0, 0
0, 0
0, 0
0, 0
0, 0
0, 0
0, 0
0, 0
0, 0
0, 0
0, 0
0, 0
0, 0
0, 0
0, 0
0, 0
0, 0
0, 0
0, 0
0, 0
0, 0
0, 0
0, 0
0, 0
0, 0
0, 0
0, 0
0, 0
0, 0
0, 0
0, 0
0, 0
0, 0
0, 0
0, 0
0, 0
0, 0
0, 0
0, 0
0, 0
0, 0
0, 0
0, 0
0, 0
0, 0
0, 0
0, 0
0, 0
0, 0
0, 0
0, 0
0, 0
0, 0
0, 0
0, 0
0, 0
0, 0
0, 0
0, 0
0, 0
0, 0
0, 0
0, 0
0, 0
0, 0
0, 0
0, 0
0, 0
0, 0
0, 0
0, 0
0, 0
0, 0
0, 0
0, 0
0, 0
0, 0
0, 0
0, 0
0, 0
0, 0
0, 0
0, 0
0, 0
0, 0
0, 0
0, 0
0, 0
0, 0
0, 0
0, 0
0, 0
0, 0
0, 0
0, 0
0, 0
0, 0
0, 0
0, 0
0, 0
0, 0
0, 0
0, 0
0, 0
0, 0
0, 0
0, 0
0, 0
0, 0
0, 0
0, 0
0, 0
0, 0
0, 0
0, 0
0, 0
0, 0
0, 0
0, 0
0, 0
0, 0
0, 0
0, 0
0, 0
0, 0
0, 0
0, 0
0, 0
0, 0
0, 0
0, 0
0, 0
0, 0
0, 0
0, 0
0, 0
0, 0
0, 0
0, 0
0, 0
0, 0
0, 0
0, 0
0, 0
0, 0
0, 0
0, 0
0, 0
0, 0
0, 0
0, 0
0, 0
0, 0
0, 0
0, 0
0, 0
0, 0
0, 0
0, 0
0, 0
0, 0
0, 0
0, 0
0, 0
0, 0
0, 0
0, 0
0, 0
0, 0
0, 0
0, 0
0, 0
0, 0
0, 0
0, 0
0, 0
0, 0
0, 0
0, 0
0, 0
0, 0
0, 0
0, 0
0, 0
0, 0
0, 0
0, 0
0, 0
0, 0
0, 0
0, 0
0, 0
0, 0
0, 0
0, 0
0, 0
0, 0
0, 0
#ENDOFDATA     end of spectrum data