File: host_upload/02-11-2024/rqc/uplink1/ps__0567_0717304816_000rfs_shot_81.msa
#FORMAT      : EMSA/MAS spectral data file
#VERSION     : TC202v2.0 PIXL
#TITLE       : Novarupta (sol567) subset1
#DATE        : 02-11-2024      Date in the format DD-MMM-YYYY, for example 07-JUL-2010
#TIME        :             The time of day at which the spectrum was recorded, in 24-hour format
#OWNER       : PIXL Flight Model       (PIXL will use this to indicate which instrument took the data.)
#NPOINTS     : 4096     Number of data points in the spectrum (This can be zero for configuration only files)
#NCOLUMNS    : 2     Number of data columns in the spectrum (This can be zero for configuration only files)
#XUNITS      : eV
#YUNITS      : COUNTS
#DATATYPE    : YY
#XPERCHAN    : 7.862, 7.881   eV per channel (separate by commas if more than one detector)
#OFFSET      : 18.5, -22.4         eV of first channel  (separate by commas if more than one detector
#SIGNALTYPE  : XRF
#YP_TEMP     : -1.453
#LIVETIME    : 8.84399, 8.82318   seconds (separate by commas if more than one detector)
#REALTIME    : 10, 10.0   seconds (separate by commas if more than one detector)
#SPECTRUM    : start of spectrum data
0, 0
0, 0
0, 0
0, 0
0, 0
0, 0
0, 0
0, 0
0, 0
0, 0
0, 0
0, 0
0, 0
0, 0
0, 0
0, 0
0, 0
0, 0
0, 0
0, 0
0, 0
0, 0
0, 0
0, 0
0, 0
0, 0
0, 0
0, 0
0, 0
0, 0
0, 0
0, 0
1, 0
0, 2
0, 0
1, 1
4, 4
1, 1
3, 2
4, 2
1, 3
1, 4
5, 3
6, 4
6, 5
4, 4
2, 4
8, 1
4, 2
4, 8
7, 6
8, 7
8, 12
9, 15
22, 18
13, 17
17, 14
13, 8
11, 7
9, 10
20, 11
15, 26
44, 40
42, 45
49, 53
44, 36
30, 30
41, 31
43, 40
53, 52
101, 137
200, 222
308, 333
416, 434
452, 534
450, 470
415, 434
303, 334
208, 201
139, 119
74, 83
49, 47
30, 41
29, 37
27, 26
32, 27
27, 30
32, 37
22, 25
21, 18
16, 17
18, 12
30, 31
47, 34
71, 95
125, 141
209, 201
228, 229
285, 319
280, 282
277, 242
204, 213
142, 134
85, 98
71, 64
56, 57
46, 73
76, 69
89, 106
150, 154
160, 182
210, 234
248, 245
203, 239
173, 211
156, 165
128, 145
116, 106
83, 91
83, 76
72, 75
68, 77
65, 75
55, 44
34, 47
29, 39
29, 27
26, 27
19, 15
15, 7
7, 9
8, 8
8, 12
4, 6
9, 7
8, 8
8, 18
12, 20
17, 19
23, 14
29, 31
33, 27
33, 45
19, 26
29, 18
16, 10
16, 12
12, 10
13, 10
16, 18
38, 33
62, 60
93, 121
130, 187
224, 257
249, 324
334, 368
322, 398
326, 412
273, 290
195, 204
139, 146
82, 88
55, 53
34, 36
26, 35
35, 39
29, 42
47, 51
56, 46
59, 65
64, 59
38, 50
52, 53
33, 34
27, 22
18, 14
13, 8
14, 13
5, 7
9, 5
3, 10
10, 9
12, 11
14, 16
21, 14
19, 24
25, 30
30, 30
40, 52
56, 62
47, 70
73, 72
52, 55
56, 55
34, 34
37, 29
29, 33
21, 22
11, 15
16, 9
11, 19
11, 15
15, 12
9, 18
13, 11
17, 14
14, 20
20, 17
18, 16
20, 15
22, 21
19, 11
19, 14
11, 10
9, 10
6, 7
13, 9
9, 13
16, 8
12, 11
18, 13
9, 15
17, 13
15, 18
23, 18
26, 26
11, 22
23, 33
28, 26
27, 20
22, 26
36, 28
16, 24
19, 21
12, 18
10, 11
14, 15
13, 16
8, 10
5, 13
12, 15
11, 14
11, 14
17, 18
17, 26
23, 30
26, 47
34, 50
46, 63
50, 58
43, 42
48, 40
37, 37
27, 28
31, 20
22, 24
23, 28
28, 23
22, 12
34, 29
23, 24
54, 71
76, 129
144, 191
255, 349
447, 538
664, 780
883, 1136
1236, 1397
1451, 1700
1553, 1797
1630, 1703
1526, 1603
1258, 1343
1029, 977
732, 695
498, 424
325, 289
191, 148
76, 92
50, 41
32, 27
23, 23
16, 21
15, 19
17, 9
14, 15
12, 17
23, 14
30, 25
30, 46
53, 54
60, 79
90, 103
134, 161
158, 193
220, 234
243, 255
254, 256
252, 232
215, 220
195, 193
137, 121
101, 93
79, 72
54, 45
33, 18
24, 18
11, 12
12, 9
9, 7
10, 6
6, 15
11, 13
9, 9
13, 15
8, 14
7, 15
13, 9
8, 10
13, 10
9, 8
6, 11
10, 11
5, 9
2, 6
10, 5
6, 6
3, 6
5, 10
5, 6
9, 6
5, 5
6, 5
6, 6
6, 10
3, 5
8, 8
5, 12
6, 6
3, 14
8, 7
5, 10
2, 15
11, 5
9, 10
6, 13
6, 6
5, 6
9, 1
4, 8
9, 7
9, 4
5, 2
8, 7
1, 9
2, 10
10, 8
3, 4
6, 3
10, 7
11, 5
12, 12
6, 10
19, 4
11, 10
10, 14
9, 9
8, 17
9, 8
14, 11
8, 5
5, 9
3, 9
6, 5
9, 6
7, 8
6, 6
4, 2
2, 6
3, 1
8, 2
9, 5
7, 9
5, 3
2, 6
7, 7
9, 5
3, 0
5, 3
7, 6
3, 3
4, 7
6, 8
5, 4
4, 8
3, 6
11, 3
5, 4
9, 4
7, 6
7, 9
8, 8
4, 10
6, 9
3, 4
10, 4
8, 5
5, 2
7, 3
7, 2
1, 6
2, 2
1, 3
5, 2
3, 2
7, 1
4, 7
5, 5
9, 7
3, 2
5, 4
2, 2
2, 5
3, 0
4, 2
7, 2
5, 2
5, 4
2, 5
6, 3
3, 5
2, 3
4, 3
4, 6
5, 5
1, 3
1, 7
4, 2
3, 7
4, 0
4, 3
4, 3
4, 4
2, 3
1, 0
5, 1
4, 4
2, 3
2, 1
6, 2
6, 3
1, 3
2, 3
0, 4
3, 5
4, 5
3, 5
2, 2
0, 3
5, 3
1, 5
6, 1
3, 4
2, 5
5, 4
5, 2
5, 1
1, 3
2, 4
4, 2
3, 4
2, 2
5, 3
5, 2
3, 0
2, 2
2, 2
4, 5
3, 3
2, 4
2, 2
1, 1
1, 1
5, 0
0, 2
2, 1
3, 2
0, 4
6, 4
3, 1
1, 3
4, 3
4, 3
6, 2
2, 4
5, 2
0, 4
1, 2
3, 1
4, 1
1, 4
0, 4
2, 4
0, 1
0, 1
3, 4
4, 3
1, 1
0, 4
4, 1
3, 1
4, 6
2, 3
2, 3
4, 4
2, 1
2, 3
2, 2
0, 2
1, 0
1, 1
0, 2
1, 2
1, 3
2, 4
1, 3
1, 3
2, 2
1, 2
2, 0
2, 5
3, 5
4, 0
1, 5
2, 2
0, 4
2, 1
1, 3
9, 5
5, 2
2, 2
3, 2
2, 2
4, 2
2, 2
2, 2
1, 4
7, 1
2, 0
4, 0
2, 8
2, 1
1, 0
1, 1
2, 5
2, 1
1, 3
1, 0
2, 1
3, 3
0, 2
2, 1
1, 0
2, 3
3, 2
0, 2
0, 3
1, 2
5, 2
3, 2
4, 2
1, 1
2, 1
0, 3
1, 1
1, 0
1, 2
3, 0
1, 1
1, 1
0, 2
1, 2
1, 0
1, 3
0, 1
2, 4
0, 2
1, 1
2, 2
0, 0
0, 2
1, 3
5, 1
1, 0
1, 1
2, 0
2, 2
1, 0
1, 1
0, 2
0, 2
1, 0
2, 1
0, 1
1, 4
0, 0
0, 0
0, 3
0, 0
0, 0
1, 0
2, 1
0, 0
0, 1
0, 1
0, 0
3, 2
0, 1
0, 0
0, 1
2, 0
0, 1
0, 0
0, 1
1, 5
0, 0
0, 0
0, 1
2, 0
1, 0
0, 2
0, 3
0, 1
0, 0
0, 1
0, 3
2, 0
1, 1
0, 0
0, 0
3, 0
0, 1
2, 1
0, 2
0, 0
1, 2
0, 0
1, 0
1, 0
0, 1
0, 0
0, 1
0, 0
0, 1
1, 0
0, 0
0, 1
0, 1
1, 0
1, 0
0, 0
0, 0
0, 0
0, 0
0, 0
0, 0
0, 0
1, 1
0, 5
1, 0
2, 1
1, 0
1, 1
0, 1
0, 0
0, 0
0, 1
0, 0
1, 0
2, 0
0, 0
0, 0
0, 1
1, 0
0, 0
1, 0
0, 0
1, 0
1, 1
0, 0
0, 2
1, 3
0, 0
1, 1
1, 1
1, 1
0, 1
1, 1
1, 0
1, 1
0, 0
0, 0
0, 0
1, 1
0, 0
1, 2
0, 1
0, 0
0, 0
0, 0
0, 0
0, 1
1, 0
1, 1
3, 0
0, 0
1, 0
2, 1
0, 0
0, 0
0, 1
0, 0
0, 0
1, 0
0, 0
0, 1
0, 0
0, 0
0, 0
0, 0
0, 1
0, 0
0, 1
1, 0
0, 0
0, 0
1, 1
0, 1
1, 0
0, 0
0, 0
0, 0
0, 0
1, 0
0, 0
0, 1
0, 0
0, 1
1, 0
0, 0
0, 0
1, 0
1, 0
1, 0
1, 0
0, 0
0, 1
0, 0
0, 0
1, 0
0, 1
1, 0
0, 0
0, 0
1, 0
0, 0
0, 0
0, 0
1, 0
1, 0
0, 0
0, 0
0, 0
0, 0
0, 0
1, 2
0, 0
0, 1
0, 0
0, 0
0, 0
1, 1
1, 1
0, 0
0, 0
0, 1
0, 1
1, 0
0, 0
1, 0
1, 1
1, 0
0, 0
0, 0
1, 0
1, 1
0, 0
0, 0
1, 0
0, 0
1, 1
0, 0
1, 0
0, 0
0, 1
0, 1
0, 0
0, 0
0, 0
0, 0
0, 0
0, 0
0, 0
0, 0
0, 1
0, 0
0, 0
0, 0
0, 0
0, 0
0, 0
0, 0
0, 1
0, 0
0, 0
0, 0
0, 0
0, 0
0, 0
0, 1
0, 0
0, 0
0, 0
0, 0
0, 0
0, 0
0, 0
0, 0
0, 0
1, 0
1, 0
0, 0
0, 0
0, 0
0, 0
0, 0
0, 0
0, 1
0, 0
0, 0
0, 0
1, 0
0, 3
0, 0
0, 0
0, 1
0, 0
0, 0
0, 0
0, 0
1, 0
0, 0
0, 0
0, 0
0, 0
0, 0
0, 0
1, 0
0, 0
1, 0
0, 1
0, 0
0, 0
0, 0
0, 0
0, 0
0, 0
0, 0
0, 0
0, 0
0, 0
0, 0
0, 0
0, 0
0, 0
0, 0
0, 0
0, 0
0, 0
0, 0
0, 0
0, 0
0, 0
0, 0
0, 0
0, 0
0, 0
0, 0
0, 0
1, 0
0, 0
0, 0
0, 0
0, 0
0, 0
0, 0
0, 0
0, 0
0, 1
0, 0
0, 0
0, 0
0, 0
0, 0
0, 0
0, 0
0, 0
0, 0
0, 0
0, 0
0, 0
0, 0
0, 1
0, 0
0, 0
0, 0
0, 0
0, 0
0, 0
0, 0
0, 0
0, 0
0, 0
0, 0
0, 0
0, 0
0, 0
0, 0
0, 0
0, 0
0, 0
0, 0
0, 0
0, 0
0, 0
1, 0
0, 0
0, 0
0, 0
0, 0
0, 0
0, 0
0, 0
0, 0
0, 0
0, 0
0, 0
0, 0
0, 0
0, 0
0, 0
0, 0
0, 0
1, 0
0, 0
0, 0
0, 0
0, 0
0, 0
0, 0
0, 0
0, 0
0, 0
0, 0
0, 0
0, 0
0, 0
0, 0
0, 0
0, 0
0, 0
0, 0
0, 0
0, 0
0, 0
0, 0
0, 0
0, 0
0, 0
0, 0
0, 0
0, 0
0, 0
0, 0
0, 0
0, 0
0, 0
0, 0
0, 0
0, 0
0, 0
0, 0
0, 0
0, 0
0, 0
0, 0
0, 0
0, 0
0, 0
0, 0
0, 0
0, 0
0, 0
0, 0
0, 0
0, 0
0, 0
0, 0
0, 0
0, 0
0, 0
0, 0
0, 0
0, 0
0, 0
0, 0
0, 0
0, 0
0, 0
0, 0
0, 0
0, 0
0, 0
0, 0
0, 0
0, 0
0, 0
0, 0
0, 0
0, 0
0, 0
0, 0
0, 0
0, 0
0, 0
0, 0
0, 0
0, 0
0, 0
0, 0
0, 0
0, 0
0, 0
0, 0
0, 0
0, 0
0, 0
0, 0
0, 0
0, 0
0, 0
0, 0
0, 0
0, 0
0, 0
0, 0
0, 0
0, 0
0, 0
0, 0
0, 0
0, 0
0, 0
0, 0
0, 0
0, 0
0, 0
0, 0
0, 0
0, 0
0, 0
0, 0
0, 0
0, 0
0, 0
0, 0
0, 0
0, 0
0, 0
0, 0
0, 0
0, 0
0, 0
0, 0
0, 0
0, 0
0, 0
0, 0
0, 0
0, 0
0, 0
0, 0
0, 0
0, 0
0, 0
0, 0
0, 0
0, 0
0, 0
0, 0
0, 0
0, 0
0, 0
0, 0
0, 0
0, 0
0, 0
0, 0
0, 0
0, 0
0, 0
0, 0
0, 0
0, 0
0, 0
0, 0
0, 0
0, 0
0, 0
0, 0
0, 0
0, 0
0, 0
0, 0
0, 0
0, 0
0, 0
0, 0
0, 0
0, 0
0, 0
0, 0
0, 0
0, 0
0, 0
0, 0
0, 0
0, 0
0, 0
0, 0
0, 0
0, 0
0, 0
0, 0
0, 0
0, 0
0, 0
0, 0
0, 0
0, 0
0, 0
0, 0
0, 0
0, 0
0, 0
0, 0
0, 0
0, 0
0, 0
0, 0
0, 0
0, 0
0, 0
0, 0
0, 0
0, 0
0, 0
0, 0
0, 0
0, 0
0, 0
0, 0
0, 0
0, 0
0, 0
0, 0
0, 0
0, 0
0, 0
0, 0
0, 0
0, 0
0, 0
0, 0
0, 0
0, 0
0, 0
0, 0
0, 0
0, 0
0, 0
0, 0
0, 0
0, 0
0, 0
0, 0
0, 0
0, 0
0, 0
0, 0
0, 0
0, 0
0, 0
0, 0
0, 0
0, 0
0, 0
0, 0
0, 0
0, 0
0, 0
0, 0
0, 0
0, 0
0, 0
0, 0
0, 0
0, 0
0, 0
0, 0
0, 0
0, 0
0, 0
0, 0
0, 0
0, 0
0, 0
0, 0
0, 0
0, 0
0, 0
0, 0
0, 0
0, 0
0, 0
0, 0
0, 0
0, 0
0, 0
0, 0
0, 0
0, 0
0, 0
0, 0
0, 0
0, 0
0, 0
0, 0
0, 0
0, 0
0, 0
0, 0
0, 0
0, 0
0, 0
0, 0
0, 0
0, 0
0, 0
0, 0
0, 0
0, 0
0, 0
0, 0
0, 0
0, 0
0, 0
0, 0
0, 0
0, 0
0, 0
0, 0
0, 0
0, 0
0, 0
0, 0
0, 0
0, 0
0, 0
0, 0
0, 0
0, 0
0, 0
0, 0
0, 0
0, 0
0, 0
0, 0
0, 0
0, 0
0, 0
0, 0
0, 0
0, 0
0, 0
0, 0
0, 0
0, 0
0, 0
0, 0
0, 0
0, 0
0, 0
0, 0
0, 0
0, 0
0, 0
0, 0
0, 0
0, 0
0, 0
0, 0
0, 0
0, 0
0, 0
0, 0
0, 0
0, 0
0, 0
0, 0
0, 0
0, 0
0, 0
0, 0
0, 0
0, 0
0, 0
0, 0
0, 0
0, 0
0, 0
0, 0
0, 0
0, 0
0, 0
0, 0
0, 0
0, 0
0, 0
0, 0
0, 0
0, 0
0, 0
0, 0
0, 0
0, 0
0, 0
0, 0
0, 0
0, 0
0, 0
0, 0
0, 0
0, 0
#ENDOFDATA     end of spectrum data