File: host_upload/02-11-2024/rqc/uplink1/ps__0567_0717304816_000rfs_shot_29.msa
#FORMAT      : EMSA/MAS spectral data file
#VERSION     : TC202v2.0 PIXL
#TITLE       : Novarupta (sol567) subset1
#DATE        : 02-11-2024      Date in the format DD-MMM-YYYY, for example 07-JUL-2010
#TIME        :             The time of day at which the spectrum was recorded, in 24-hour format
#OWNER       : PIXL Flight Model       (PIXL will use this to indicate which instrument took the data.)
#NPOINTS     : 4096     Number of data points in the spectrum (This can be zero for configuration only files)
#NCOLUMNS    : 2     Number of data columns in the spectrum (This can be zero for configuration only files)
#XUNITS      : eV
#YUNITS      : COUNTS
#DATATYPE    : YY
#XPERCHAN    : 7.862, 7.881   eV per channel (separate by commas if more than one detector)
#OFFSET      : 18.5, -22.4         eV of first channel  (separate by commas if more than one detector
#SIGNALTYPE  : XRF
#YP_TEMP     : -4.371
#LIVETIME    : 8.84097, 8.8216   seconds (separate by commas if more than one detector)
#REALTIME    : 10, 10.0   seconds (separate by commas if more than one detector)
#SPECTRUM    : start of spectrum data
0, 0
0, 0
0, 0
0, 0
0, 0
0, 0
0, 0
0, 0
0, 0
0, 0
0, 0
0, 0
0, 0
0, 0
0, 0
0, 0
0, 0
0, 0
0, 0
0, 0
0, 0
0, 0
0, 0
0, 0
0, 0
0, 0
0, 0
0, 0
0, 0
1, 0
0, 0
1, 0
1, 0
0, 2
2, 2
1, 0
5, 1
2, 4
2, 6
4, 4
6, 3
1, 4
1, 4
3, 3
2, 1
3, 2
6, 6
4, 7
3, 0
2, 3
6, 11
8, 4
9, 14
11, 15
16, 13
24, 14
12, 13
9, 14
11, 4
14, 10
23, 26
33, 32
42, 44
39, 47
46, 32
35, 44
42, 51
47, 60
41, 30
76, 76
134, 120
241, 255
330, 343
425, 476
454, 536
460, 503
417, 441
322, 295
232, 206
145, 125
72, 82
47, 36
32, 47
30, 23
49, 27
34, 35
31, 40
24, 26
21, 24
23, 26
16, 14
13, 22
42, 44
56, 55
91, 102
156, 166
203, 204
251, 303
299, 294
304, 291
234, 261
217, 193
143, 163
96, 89
84, 58
61, 67
64, 80
78, 76
109, 126
138, 188
200, 192
207, 242
234, 251
218, 240
229, 226
167, 167
148, 127
100, 121
103, 90
83, 88
69, 80
68, 61
57, 62
53, 57
43, 48
38, 39
24, 22
23, 25
23, 17
13, 9
9, 5
8, 13
5, 9
7, 10
6, 11
7, 11
7, 12
13, 17
19, 27
24, 27
28, 28
24, 29
27, 25
23, 24
23, 28
15, 11
13, 10
15, 22
12, 15
23, 21
49, 59
82, 79
111, 143
155, 238
229, 271
298, 303
315, 393
353, 396
327, 336
243, 267
199, 206
117, 119
80, 82
61, 51
42, 42
43, 33
30, 38
40, 48
44, 43
63, 82
57, 60
58, 67
46, 53
39, 36
34, 32
26, 29
14, 13
19, 13
8, 8
10, 10
14, 7
8, 4
8, 7
14, 15
16, 10
14, 14
15, 28
26, 34
34, 46
46, 49
57, 69
54, 77
47, 60
62, 61
43, 38
30, 42
33, 34
34, 26
22, 21
21, 10
13, 18
16, 13
11, 11
14, 10
14, 9
15, 17
13, 21
18, 16
15, 18
21, 20
15, 18
16, 21
20, 25
15, 18
11, 16
14, 15
15, 15
14, 11
9, 12
10, 7
15, 10
12, 16
8, 12
16, 10
15, 23
19, 21
23, 19
21, 24
29, 43
23, 32
27, 34
24, 25
20, 29
25, 25
15, 13
12, 18
11, 17
17, 10
8, 10
13, 13
15, 19
11, 23
12, 9
13, 22
15, 22
33, 31
28, 30
31, 45
31, 44
40, 47
38, 54
40, 54
50, 45
31, 41
35, 32
31, 26
20, 28
19, 27
27, 22
18, 21
26, 30
28, 39
56, 103
105, 152
215, 304
389, 480
535, 653
883, 1001
1161, 1363
1398, 1624
1587, 1809
1641, 1765
1640, 1671
1473, 1447
1171, 1119
894, 864
602, 549
397, 382
272, 207
143, 134
81, 55
49, 32
33, 32
24, 22
18, 19
19, 19
12, 15
15, 17
17, 25
30, 21
32, 35
41, 41
58, 64
100, 110
127, 140
157, 191
164, 209
228, 213
242, 244
242, 273
291, 255
211, 178
149, 172
131, 109
95, 81
64, 50
42, 28
25, 21
17, 11
5, 5
7, 12
6, 7
8, 11
9, 15
9, 10
7, 8
12, 12
7, 4
10, 12
12, 7
7, 15
7, 4
10, 11
9, 11
4, 11
4, 9
7, 5
13, 8
10, 11
4, 4
3, 9
5, 7
7, 1
8, 2
1, 5
5, 8
9, 5
3, 7
8, 6
9, 8
8, 4
7, 4
5, 8
8, 9
7, 10
6, 7
10, 6
9, 6
5, 9
7, 8
7, 9
10, 11
7, 6
7, 4
7, 8
9, 4
5, 5
4, 7
6, 5
5, 10
7, 11
15, 10
7, 11
12, 15
9, 8
9, 12
13, 9
10, 11
11, 11
2, 8
6, 8
8, 5
8, 11
5, 9
4, 16
2, 8
4, 4
4, 6
6, 11
5, 8
3, 4
7, 5
5, 5
5, 3
6, 4
4, 10
2, 3
4, 4
6, 7
5, 9
7, 7
4, 3
4, 3
6, 8
7, 8
3, 7
5, 6
0, 9
5, 3
3, 7
8, 7
5, 3
4, 4
6, 3
6, 4
7, 9
3, 4
2, 4
5, 4
4, 8
6, 5
7, 5
8, 2
4, 4
4, 4
6, 4
8, 6
4, 5
6, 2
2, 7
4, 6
3, 2
2, 6
8, 7
4, 5
2, 5
2, 1
3, 8
2, 7
2, 4
6, 6
3, 6
3, 1
5, 3
1, 3
1, 2
1, 2
3, 5
4, 4
0, 0
4, 2
3, 7
0, 3
2, 4
2, 5
3, 6
2, 7
3, 3
3, 8
6, 8
2, 4
2, 4
2, 1
6, 5
3, 1
2, 3
7, 1
3, 6
4, 2
2, 3
0, 5
4, 3
3, 1
7, 1
4, 2
1, 2
2, 4
2, 6
1, 4
5, 3
2, 0
4, 4
1, 2
5, 2
2, 3
2, 2
2, 1
3, 4
3, 1
3, 4
1, 1
3, 5
1, 1
4, 2
6, 0
3, 3
0, 2
2, 4
3, 4
4, 4
4, 0
3, 1
0, 0
1, 3
2, 2
1, 2
3, 1
4, 6
0, 1
3, 1
2, 1
2, 2
2, 2
0, 0
2, 6
1, 2
4, 5
3, 0
2, 1
1, 2
3, 3
2, 1
3, 2
8, 2
4, 1
1, 2
3, 2
1, 1
0, 1
4, 3
0, 3
2, 4
0, 2
3, 1
2, 1
3, 0
1, 5
1, 1
1, 1
1, 0
2, 1
2, 1
0, 1
3, 0
1, 3
3, 7
2, 1
1, 2
3, 1
2, 4
2, 2
1, 2
2, 3
3, 2
0, 2
2, 1
4, 3
2, 3
0, 2
1, 3
3, 2
2, 4
2, 4
0, 1
3, 1
1, 0
2, 0
1, 0
0, 1
1, 2
2, 2
2, 2
1, 2
1, 1
2, 3
6, 2
1, 4
4, 0
1, 3
3, 5
1, 3
0, 1
3, 1
1, 4
0, 1
0, 1
3, 2
1, 0
1, 1
4, 4
1, 2
1, 0
1, 1
0, 2
2, 1
0, 1
0, 2
0, 1
0, 1
0, 2
1, 1
2, 0
0, 2
2, 0
0, 0
1, 0
2, 1
1, 0
3, 1
0, 2
1, 0
0, 1
1, 5
0, 0
1, 1
0, 1
0, 1
4, 1
0, 0
1, 0
1, 2
2, 2
2, 0
1, 1
2, 1
0, 0
0, 1
0, 2
2, 2
1, 1
1, 2
0, 2
1, 0
1, 3
1, 1
0, 1
3, 2
2, 1
2, 0
0, 0
0, 2
0, 0
0, 0
1, 0
0, 1
2, 0
1, 1
1, 1
3, 0
0, 0
1, 1
1, 0
1, 1
0, 1
0, 0
2, 0
0, 1
0, 1
0, 0
1, 2
0, 1
2, 0
1, 0
2, 0
0, 0
1, 0
0, 0
2, 1
1, 0
0, 1
0, 1
0, 2
0, 0
0, 1
1, 1
0, 1
2, 1
1, 1
0, 1
0, 0
1, 0
0, 0
1, 1
2, 1
1, 0
0, 0
0, 1
0, 0
2, 0
2, 0
1, 1
0, 0
1, 1
2, 2
0, 1
0, 0
1, 0
0, 1
1, 0
0, 0
0, 1
0, 0
0, 0
0, 0
0, 1
0, 0
0, 0
1, 0
1, 0
0, 0
1, 0
0, 0
0, 1
0, 0
0, 1
0, 1
1, 0
0, 0
1, 0
0, 0
0, 0
1, 0
1, 0
0, 0
0, 0
0, 0
0, 0
1, 0
0, 0
0, 1
0, 0
0, 0
0, 0
1, 0
0, 0
0, 0
0, 1
1, 0
0, 0
0, 1
0, 0
0, 0
0, 0
0, 0
0, 1
0, 0
0, 0
0, 0
0, 0
1, 0
0, 0
0, 0
0, 2
0, 1
0, 0
0, 1
0, 0
0, 1
1, 0
1, 0
0, 0
0, 0
0, 3
1, 1
0, 0
0, 0
0, 0
2, 1
0, 0
2, 0
1, 0
0, 0
0, 0
0, 1
0, 0
1, 0
0, 0
0, 0
0, 1
2, 0
0, 1
0, 0
0, 0
0, 0
0, 0
0, 1
1, 0
0, 0
0, 0
1, 0
0, 0
1, 0
0, 1
0, 0
0, 0
2, 0
0, 1
0, 0
0, 0
0, 0
0, 0
0, 0
0, 1
0, 1
0, 0
0, 0
1, 0
0, 0
1, 0
0, 0
0, 0
0, 1
0, 1
1, 0
1, 0
0, 0
2, 0
0, 0
0, 0
0, 0
0, 2
0, 0
0, 1
0, 1
0, 0
1, 0
0, 1
0, 0
0, 0
0, 0
0, 0
0, 0
0, 0
0, 0
0, 0
0, 0
1, 0
0, 0
0, 0
0, 0
1, 0
0, 0
0, 0
0, 0
0, 0
0, 1
0, 0
0, 0
0, 0
0, 0
1, 1
0, 0
0, 0
0, 0
0, 0
0, 0
0, 0
0, 0
0, 0
0, 0
0, 0
0, 0
0, 0
1, 0
0, 1
1, 0
0, 1
0, 1
0, 0
0, 0
0, 0
1, 0
0, 0
0, 0
0, 0
0, 0
0, 0
0, 1
0, 0
0, 0
0, 0
0, 0
0, 0
0, 0
0, 0
0, 0
0, 0
0, 1
0, 0
1, 0
0, 0
0, 0
1, 0
0, 0
0, 0
0, 0
0, 0
0, 0
0, 0
0, 0
0, 0
0, 0
0, 0
0, 0
0, 0
0, 0
0, 0
0, 0
0, 1
0, 0
0, 0
0, 0
0, 0
0, 0
0, 0
0, 0
0, 0
0, 0
0, 0
0, 0
0, 0
0, 0
0, 0
0, 0
0, 0
0, 0
0, 0
0, 0
0, 0
0, 0
0, 1
0, 0
0, 0
0, 0
0, 0
0, 0
0, 0
0, 0
0, 0
0, 0
1, 0
0, 0
0, 0
0, 0
0, 0
0, 0
0, 0
0, 0
0, 0
0, 0
0, 0
0, 0
0, 0
0, 0
0, 0
0, 0
0, 1
0, 0
0, 0
0, 0
0, 0
0, 0
0, 0
0, 0
0, 0
0, 0
0, 0
1, 0
0, 0
0, 0
0, 0
0, 0
0, 0
0, 0
0, 0
0, 0
0, 0
0, 0
0, 0
0, 0
0, 0
0, 0
0, 1
0, 0
0, 0
0, 1
0, 0
0, 0
0, 0
0, 1
0, 0
0, 0
0, 0
0, 1
0, 0
0, 0
0, 0
0, 0
0, 0
0, 0
0, 0
0, 0
0, 0
0, 0
0, 0
0, 0
0, 0
0, 0
0, 0
0, 0
0, 0
0, 0
0, 0
0, 0
0, 0
0, 0
0, 0
0, 0
0, 0
0, 0
0, 0
0, 0
0, 0
0, 0
0, 0
0, 0
0, 0
0, 0
0, 0
0, 0
0, 0
0, 0
0, 0
0, 0
0, 0
0, 0
0, 0
0, 1
0, 0
0, 0
0, 0
0, 0
0, 0
0, 0
0, 0
0, 0
0, 0
0, 0
0, 0
0, 0
0, 0
0, 0
0, 0
0, 0
0, 0
0, 0
0, 0
0, 0
0, 0
0, 0
0, 0
0, 0
0, 0
0, 0
0, 0
0, 0
0, 0
0, 0
0, 0
0, 0
0, 0
0, 0
0, 0
0, 0
0, 0
0, 0
0, 0
0, 0
0, 0
0, 0
0, 0
0, 0
0, 0
0, 0
0, 0
0, 0
0, 0
0, 0
0, 0
0, 0
0, 1
0, 0
0, 0
0, 0
0, 0
0, 0
0, 0
0, 0
0, 0
0, 0
0, 0
0, 0
0, 0
0, 0
0, 0
0, 0
0, 0
0, 0
0, 0
0, 0
0, 0
0, 0
0, 0
0, 0
0, 0
0, 0
0, 0
0, 0
0, 0
0, 0
0, 0
0, 0
0, 0
0, 0
0, 0
0, 0
0, 0
0, 0
0, 0
0, 0
0, 0
0, 0
0, 0
0, 0
0, 0
0, 0
0, 0
0, 0
0, 0
0, 0
0, 0
0, 0
0, 0
0, 0
0, 0
0, 0
0, 0
0, 0
0, 0
0, 0
0, 0
0, 0
0, 0
0, 0
0, 0
0, 0
0, 0
0, 0
0, 0
0, 0
0, 0
0, 0
1, 0
0, 0
0, 0
0, 0
0, 0
0, 0
0, 0
0, 0
0, 0
0, 0
0, 0
0, 0
0, 0
0, 0
0, 0
0, 0
0, 0
0, 0
0, 0
0, 0
0, 0
0, 0
0, 0
0, 0
0, 0
0, 0
0, 0
0, 0
0, 0
0, 0
0, 0
0, 0
0, 0
0, 0
0, 0
0, 0
0, 0
0, 0
0, 0
0, 0
0, 0
0, 0
0, 0
0, 0
0, 0
0, 0
0, 0
0, 0
0, 0
0, 0
0, 0
0, 0
0, 0
0, 0
0, 0
0, 0
0, 0
0, 0
0, 0
0, 0
0, 0
0, 0
0, 0
0, 0
0, 0
0, 0
0, 0
0, 0
0, 0
0, 0
0, 0
0, 0
0, 0
0, 0
0, 0
0, 0
0, 0
0, 0
0, 0
0, 0
0, 0
0, 0
0, 0
0, 0
0, 0
0, 0
0, 0
0, 0
0, 0
0, 0
0, 0
0, 0
0, 0
0, 0
0, 0
0, 0
0, 0
0, 0
0, 0
0, 0
0, 0
0, 0
0, 0
0, 0
0, 0
0, 0
0, 0
0, 0
0, 0
0, 0
0, 0
0, 0
0, 0
0, 0
0, 0
0, 0
0, 0
0, 0
0, 0
0, 0
0, 0
0, 0
0, 0
0, 0
0, 0
0, 0
0, 0
0, 0
0, 0
0, 0
0, 0
0, 0
0, 0
0, 0
0, 0
0, 0
0, 0
0, 0
0, 0
0, 0
0, 0
0, 0
0, 0
0, 0
0, 0
0, 0
0, 0
0, 0
0, 0
0, 0
0, 0
0, 0
0, 0
0, 0
0, 0
0, 0
0, 0
0, 0
0, 0
0, 0
0, 0
0, 0
0, 0
0, 0
0, 0
0, 0
0, 0
0, 0
0, 0
0, 0
0, 0
0, 0
0, 0
0, 0
0, 0
0, 0
0, 0
0, 0
0, 0
0, 0
0, 0
0, 0
0, 0
0, 0
0, 0
0, 0
0, 0
0, 0
0, 0
0, 0
0, 0
0, 0
0, 0
0, 0
0, 0
0, 0
0, 0
0, 0
0, 0
0, 0
0, 0
0, 0
0, 0
0, 0
0, 0
0, 0
0, 0
0, 0
0, 0
0, 0
0, 0
0, 0
0, 0
0, 0
#ENDOFDATA     end of spectrum data