File: host_upload/02-11-2024/rqc/uplink1/ps__0567_0717304816_000rfs_shot_358.msa
#FORMAT      : EMSA/MAS spectral data file
#VERSION     : TC202v2.0 PIXL
#TITLE       : Novarupta (sol567) subset1
#DATE        : 02-11-2024      Date in the format DD-MMM-YYYY, for example 07-JUL-2010
#TIME        :             The time of day at which the spectrum was recorded, in 24-hour format
#OWNER       : PIXL Flight Model       (PIXL will use this to indicate which instrument took the data.)
#NPOINTS     : 4096     Number of data points in the spectrum (This can be zero for configuration only files)
#NCOLUMNS    : 2     Number of data columns in the spectrum (This can be zero for configuration only files)
#XUNITS      : eV
#YUNITS      : COUNTS
#DATATYPE    : YY
#XPERCHAN    : 7.862, 7.881   eV per channel (separate by commas if more than one detector)
#OFFSET      : 18.5, -22.4         eV of first channel  (separate by commas if more than one detector
#SIGNALTYPE  : XRF
#YP_TEMP     : 1.626
#LIVETIME    : 8.83441, 8.81359   seconds (separate by commas if more than one detector)
#REALTIME    : 10, 10.0   seconds (separate by commas if more than one detector)
#SPECTRUM    : start of spectrum data
0, 0
0, 0
0, 0
0, 0
0, 0
0, 0
0, 0
0, 0
0, 0
0, 0
0, 0
0, 0
0, 0
0, 0
0, 0
0, 0
0, 0
0, 0
0, 0
0, 0
0, 0
0, 0
0, 0
0, 0
0, 0
0, 0
0, 0
0, 0
0, 0
0, 0
0, 0
0, 0
0, 0
1, 1
2, 2
0, 2
3, 4
8, 2
2, 3
2, 4
2, 0
4, 2
2, 4
4, 5
2, 3
3, 2
2, 1
3, 5
5, 4
6, 4
3, 8
12, 7
14, 9
10, 15
11, 20
22, 11
8, 17
7, 10
10, 8
6, 19
20, 13
29, 28
44, 35
33, 38
49, 59
50, 54
33, 48
23, 38
40, 35
51, 61
107, 129
179, 228
270, 366
382, 451
493, 545
481, 513
473, 459
373, 353
240, 228
150, 141
92, 83
46, 42
26, 38
38, 36
29, 41
36, 41
39, 34
43, 38
32, 42
24, 20
18, 12
23, 21
26, 22
47, 63
74, 93
123, 166
237, 204
268, 292
294, 339
296, 341
269, 265
214, 226
165, 193
109, 112
75, 68
55, 49
53, 46
67, 64
86, 101
126, 118
166, 176
178, 212
217, 234
182, 211
196, 176
141, 153
138, 122
104, 97
96, 80
63, 76
82, 97
59, 83
69, 68
48, 67
48, 45
36, 35
25, 37
20, 31
18, 16
20, 14
11, 10
11, 12
3, 6
9, 5
6, 5
8, 2
8, 18
15, 18
27, 27
14, 29
26, 33
37, 41
28, 32
36, 33
18, 28
11, 13
11, 13
7, 14
11, 12
12, 20
24, 38
55, 67
84, 95
161, 166
190, 244
278, 337
298, 432
342, 408
340, 382
358, 333
266, 262
192, 168
100, 107
73, 56
36, 41
28, 27
27, 26
28, 36
45, 59
42, 62
49, 69
58, 69
51, 61
55, 51
40, 42
22, 31
17, 15
27, 20
7, 13
6, 10
15, 8
9, 6
9, 11
3, 13
5, 10
12, 20
11, 15
22, 31
31, 44
45, 45
39, 64
55, 71
65, 71
64, 50
61, 62
44, 59
34, 35
28, 31
21, 22
22, 14
10, 19
19, 10
7, 10
15, 14
11, 14
9, 16
11, 15
19, 20
11, 15
19, 17
21, 17
20, 19
14, 15
19, 26
16, 14
23, 20
8, 16
12, 11
13, 12
9, 16
11, 11
18, 10
16, 16
8, 11
14, 13
17, 23
23, 16
20, 25
27, 20
29, 28
30, 26
34, 31
35, 28
37, 27
15, 21
17, 23
12, 14
9, 8
17, 16
9, 8
14, 23
14, 17
13, 9
18, 18
17, 15
15, 24
31, 39
26, 44
36, 51
38, 49
55, 53
50, 55
48, 44
31, 53
26, 45
27, 38
23, 30
16, 18
15, 11
17, 17
18, 21
28, 23
35, 41
47, 95
119, 137
214, 267
342, 475
584, 770
847, 1034
1144, 1382
1450, 1698
1627, 1944
1785, 1940
1638, 1789
1426, 1560
1149, 1154
892, 854
634, 529
378, 343
243, 186
121, 107
82, 45
39, 28
24, 16
23, 18
15, 18
16, 19
20, 23
19, 20
21, 28
26, 29
20, 47
50, 48
56, 64
79, 110
129, 160
165, 185
199, 241
219, 286
264, 287
268, 269
275, 289
195, 217
172, 162
127, 104
88, 86
57, 57
28, 28
20, 26
13, 16
15, 10
11, 10
6, 12
7, 11
5, 15
7, 20
18, 13
9, 19
13, 14
16, 11
7, 9
12, 13
10, 14
9, 9
8, 10
4, 6
4, 10
5, 8
6, 6
9, 2
7, 2
5, 4
4, 3
8, 4
7, 6
8, 5
7, 6
4, 9
8, 12
7, 7
5, 7
5, 3
5, 4
7, 6
3, 4
9, 6
2, 10
8, 7
5, 9
7, 6
8, 9
14, 9
5, 4
7, 13
6, 10
7, 7
4, 8
6, 7
6, 6
5, 6
2, 12
7, 7
15, 10
7, 14
12, 13
10, 12
12, 7
11, 15
6, 11
10, 9
9, 7
7, 8
8, 3
10, 1
5, 11
4, 7
5, 5
7, 4
3, 3
5, 5
5, 4
7, 8
3, 9
3, 4
5, 6
3, 5
4, 4
4, 6
7, 5
7, 2
6, 5
6, 6
7, 10
7, 5
1, 8
3, 4
4, 8
6, 8
7, 8
3, 3
5, 4
9, 6
7, 3
3, 4
5, 7
7, 7
8, 5
3, 2
7, 0
5, 3
9, 0
9, 8
3, 1
6, 4
2, 4
4, 5
5, 1
2, 2
4, 2
5, 9
9, 3
2, 2
3, 2
4, 6
3, 6
6, 5
8, 2
2, 4
1, 4
7, 7
4, 8
4, 2
3, 5
3, 3
4, 3
4, 1
2, 3
6, 5
5, 2
4, 2
7, 7
4, 4
1, 5
3, 7
0, 5
4, 2
4, 5
5, 3
7, 3
1, 5
2, 3
7, 4
1, 3
4, 5
5, 2
3, 1
3, 5
1, 2
6, 4
1, 4
5, 3
1, 2
6, 6
1, 2
3, 5
1, 3
7, 2
6, 1
0, 2
1, 0
5, 1
7, 1
4, 3
2, 5
4, 3
3, 2
2, 3
1, 1
1, 2
2, 5
0, 3
0, 6
6, 2
1, 1
3, 1
0, 0
2, 3
1, 3
2, 2
4, 3
2, 3
4, 2
3, 1
6, 5
2, 3
3, 3
1, 3
3, 2
3, 2
1, 5
5, 6
5, 4
1, 3
6, 1
2, 4
2, 1
4, 3
5, 3
3, 5
1, 2
0, 3
2, 2
4, 3
2, 3
1, 4
1, 1
0, 5
1, 1
1, 3
1, 2
1, 4
4, 2
1, 2
3, 4
2, 2
1, 1
2, 3
0, 4
1, 2
0, 3
5, 1
4, 3
1, 7
4, 3
4, 1
2, 2
3, 1
0, 1
1, 2
3, 4
5, 0
0, 4
2, 2
4, 5
2, 1
3, 2
2, 3
1, 3
5, 1
2, 1
0, 1
1, 2
0, 3
1, 3
1, 2
1, 3
2, 1
1, 2
0, 0
0, 2
1, 1
3, 1
0, 0
1, 0
1, 3
1, 1
2, 1
2, 1
0, 4
4, 3
1, 3
1, 3
4, 1
1, 1
1, 0
1, 0
1, 0
0, 2
3, 3
2, 0
1, 3
0, 0
1, 2
1, 4
3, 5
0, 2
1, 1
2, 2
1, 3
2, 4
1, 1
0, 2
0, 0
0, 1
0, 0
0, 2
0, 1
1, 3
0, 2
1, 2
0, 4
0, 1
2, 0
2, 3
1, 0
2, 0
0, 0
0, 2
0, 0
0, 2
3, 1
0, 2
1, 1
3, 1
1, 1
1, 1
2, 0
1, 2
1, 3
2, 1
3, 1
0, 0
0, 0
1, 2
1, 1
0, 2
0, 3
0, 0
0, 1
0, 3
0, 1
1, 1
1, 2
0, 1
0, 2
0, 1
2, 0
0, 0
2, 1
0, 0
0, 0
1, 1
2, 1
0, 0
2, 1
3, 1
0, 3
0, 0
0, 0
1, 0
0, 0
1, 0
0, 1
0, 2
1, 0
0, 0
1, 2
0, 1
0, 1
0, 0
2, 0
0, 1
0, 0
2, 1
1, 0
1, 1
0, 3
2, 1
1, 0
1, 2
0, 0
1, 2
3, 0
0, 0
0, 0
0, 0
0, 0
0, 1
0, 0
2, 0
1, 1
0, 3
0, 0
0, 1
1, 0
0, 0
0, 2
1, 2
2, 1
0, 1
1, 0
0, 0
0, 1
0, 1
1, 1
0, 0
0, 0
0, 1
0, 0
1, 1
0, 0
1, 2
0, 1
1, 1
0, 1
0, 0
0, 0
1, 2
2, 0
0, 0
0, 0
0, 0
1, 0
1, 0
0, 2
1, 0
0, 0
1, 0
0, 1
0, 0
1, 1
0, 0
0, 1
1, 0
1, 1
1, 0
0, 0
0, 1
1, 0
1, 0
0, 0
0, 1
0, 0
0, 0
0, 0
0, 0
1, 0
0, 1
0, 2
0, 0
0, 0
0, 0
0, 1
0, 1
0, 0
0, 0
0, 0
1, 0
1, 0
0, 1
0, 0
0, 0
1, 2
1, 2
0, 0
0, 0
0, 0
2, 1
0, 0
0, 1
1, 0
0, 0
1, 1
1, 0
0, 0
0, 0
0, 0
0, 0
1, 1
0, 0
0, 1
0, 0
0, 0
0, 0
1, 0
1, 0
0, 0
0, 0
0, 0
0, 0
0, 0
0, 0
0, 1
3, 2
0, 0
0, 1
0, 0
1, 0
1, 0
0, 1
1, 0
0, 1
0, 0
0, 0
1, 0
0, 0
0, 0
0, 0
0, 0
0, 0
0, 0
0, 0
0, 0
1, 0
1, 0
0, 0
0, 0
0, 0
0, 0
1, 0
0, 0
0, 0
0, 0
0, 0
0, 0
0, 0
0, 0
0, 0
0, 0
0, 0
0, 0
0, 0
0, 0
0, 0
0, 0
0, 2
1, 0
0, 0
0, 0
0, 0
0, 0
0, 0
0, 0
0, 0
0, 0
0, 0
0, 0
0, 0
0, 0
0, 0
0, 0
0, 0
0, 0
1, 0
0, 0
0, 0
0, 0
1, 0
0, 0
0, 0
0, 0
0, 0
1, 3
0, 0
0, 0
0, 0
0, 0
0, 0
0, 1
1, 0
0, 1
0, 0
0, 0
0, 0
0, 0
0, 0
0, 0
0, 0
0, 0
0, 0
0, 0
0, 1
0, 0
0, 0
0, 0
0, 0
0, 0
0, 0
0, 1
0, 1
0, 0
0, 0
0, 0
0, 0
0, 0
0, 0
0, 0
0, 0
0, 0
0, 0
0, 0
0, 0
0, 0
1, 0
0, 0
0, 0
0, 1
0, 0
0, 0
0, 0
0, 0
0, 0
0, 0
0, 0
0, 0
0, 0
0, 0
0, 0
0, 0
0, 0
0, 0
0, 0
0, 0
0, 0
0, 1
0, 0
0, 0
0, 0
0, 0
0, 0
1, 0
0, 0
0, 0
0, 0
0, 0
0, 0
0, 0
0, 0
0, 0
0, 0
0, 0
0, 0
0, 0
0, 0
0, 0
0, 0
0, 0
0, 0
0, 0
0, 0
0, 0
0, 0
0, 0
0, 0
0, 0
0, 0
0, 0
0, 0
0, 0
1, 0
0, 0
0, 0
0, 0
0, 0
0, 0
0, 0
0, 0
0, 0
0, 0
0, 0
0, 0
0, 0
0, 0
0, 0
0, 0
0, 0
0, 0
0, 0
0, 0
0, 0
0, 0
0, 0
0, 0
0, 0
0, 1
0, 0
0, 0
0, 0
0, 0
0, 0
0, 0
0, 0
0, 0
0, 0
0, 0
0, 0
0, 0
0, 0
0, 0
0, 0
0, 0
0, 1
0, 0
0, 0
0, 0
0, 0
0, 0
0, 0
0, 0
0, 0
0, 0
0, 0
0, 0
0, 0
0, 0
0, 0
0, 0
0, 0
0, 0
0, 0
0, 0
0, 0
0, 0
0, 0
0, 0
0, 1
0, 0
0, 0
0, 0
0, 0
0, 0
0, 0
0, 0
0, 0
0, 0
0, 0
0, 0
0, 0
0, 0
0, 0
0, 0
0, 0
0, 0
0, 0
0, 0
0, 0
0, 0
0, 0
0, 0
0, 0
0, 0
0, 0
0, 0
0, 0
0, 0
0, 0
0, 0
0, 0
0, 0
0, 0
0, 0
0, 0
0, 0
0, 0
0, 0
0, 0
0, 0
0, 0
0, 0
0, 0
0, 0
0, 0
0, 0
0, 0
0, 0
0, 0
0, 0
0, 1
0, 0
0, 0
0, 0
0, 0
0, 0
0, 0
0, 0
0, 0
0, 0
0, 0
0, 0
0, 0
0, 0
0, 0
0, 0
0, 0
0, 0
0, 0
0, 0
0, 0
0, 0
0, 0
0, 0
0, 0
0, 0
0, 0
0, 0
0, 0
0, 0
0, 0
0, 0
0, 0
0, 0
0, 0
0, 0
0, 0
0, 0
0, 0
0, 0
0, 0
0, 0
0, 0
0, 0
0, 0
0, 0
0, 0
0, 0
0, 0
0, 0
0, 0
0, 0
0, 0
0, 0
0, 0
0, 0
0, 0
0, 0
0, 0
0, 0
0, 0
0, 0
0, 0
0, 0
0, 0
0, 0
0, 0
0, 0
0, 0
0, 0
0, 0
0, 0
0, 0
0, 0
0, 0
0, 0
0, 0
0, 0
0, 0
0, 0
0, 0
0, 0
0, 0
0, 0
0, 0
0, 0
0, 0
0, 0
0, 0
0, 0
0, 0
0, 0
0, 0
0, 0
0, 0
0, 0
0, 0
0, 0
0, 0
0, 0
0, 0
0, 0
0, 0
0, 0
0, 0
0, 0
0, 0
0, 0
0, 0
0, 0
0, 0
0, 0
0, 0
0, 0
0, 0
0, 0
0, 0
0, 0
0, 0
0, 0
0, 0
0, 0
0, 0
0, 0
0, 0
0, 0
0, 0
0, 0
0, 0
0, 0
0, 0
0, 0
0, 0
0, 0
0, 0
0, 0
0, 0
0, 0
0, 0
0, 0
0, 0
0, 0
0, 0
0, 0
0, 0
0, 0
0, 0
0, 0
0, 0
0, 0
0, 0
0, 0
0, 0
0, 0
0, 0
0, 0
0, 0
0, 0
0, 0
0, 0
0, 0
0, 0
0, 0
0, 0
0, 0
0, 0
0, 0
0, 0
0, 0
0, 0
0, 0
0, 0
0, 0
0, 0
0, 0
0, 0
0, 0
0, 0
0, 0
0, 0
0, 0
0, 0
0, 0
0, 0
0, 0
0, 0
0, 0
0, 0
0, 0
0, 0
0, 0
0, 0
0, 0
0, 0
0, 0
0, 0
0, 0
0, 0
0, 0
0, 0
0, 0
0, 0
0, 0
0, 0
0, 0
0, 0
0, 0
0, 0
0, 0
0, 0
0, 0
0, 0
0, 0
0, 0
0, 0
0, 0
0, 0
0, 0
0, 0
0, 0
0, 0
0, 0
0, 0
0, 0
0, 0
0, 0
0, 0
0, 0
0, 0
0, 0
0, 0
0, 0
0, 0
0, 0
0, 0
0, 0
0, 0
0, 0
0, 0
0, 0
0, 0
0, 0
0, 0
0, 0
0, 0
0, 0
0, 0
0, 0
0, 0
0, 0
0, 0
0, 0
0, 0
0, 0
0, 0
0, 0
0, 0
0, 0
0, 0
0, 0
0, 0
0, 0
0, 0
0, 0
0, 0
0, 0
0, 0
0, 0
0, 0
0, 0
0, 0
0, 0
0, 0
0, 0
0, 0
0, 0
0, 0
0, 0
0, 0
0, 0
0, 0
0, 0
0, 0
0, 0
0, 0
0, 0
0, 0
0, 0
0, 0
0, 0
0, 0
0, 0
0, 0
0, 0
0, 0
0, 0
0, 0
0, 0
0, 0
#ENDOFDATA     end of spectrum data