File: host_upload/02-11-2024/rqc/uplink1/ps__0567_0717304816_000rfs_shot_77.msa
#FORMAT      : EMSA/MAS spectral data file
#VERSION     : TC202v2.0 PIXL
#TITLE       : Novarupta (sol567) subset1
#DATE        : 02-11-2024      Date in the format DD-MMM-YYYY, for example 07-JUL-2010
#TIME        :             The time of day at which the spectrum was recorded, in 24-hour format
#OWNER       : PIXL Flight Model       (PIXL will use this to indicate which instrument took the data.)
#NPOINTS     : 4096     Number of data points in the spectrum (This can be zero for configuration only files)
#NCOLUMNS    : 2     Number of data columns in the spectrum (This can be zero for configuration only files)
#XUNITS      : eV
#YUNITS      : COUNTS
#DATATYPE    : YY
#XPERCHAN    : 7.862, 7.881   eV per channel (separate by commas if more than one detector)
#OFFSET      : 18.5, -22.4         eV of first channel  (separate by commas if more than one detector
#SIGNALTYPE  : XRF
#YP_TEMP     : -1.517
#LIVETIME    : 8.86051, 8.82647   seconds (separate by commas if more than one detector)
#REALTIME    : 10, 10.0   seconds (separate by commas if more than one detector)
#SPECTRUM    : start of spectrum data
0, 0
0, 0
0, 0
0, 0
0, 0
0, 0
0, 0
0, 0
0, 0
0, 0
0, 0
0, 0
0, 0
0, 0
0, 0
0, 0
0, 0
0, 0
0, 0
0, 0
0, 0
0, 0
0, 0
0, 0
0, 0
0, 0
0, 0
0, 0
0, 0
0, 0
1, 1
0, 0
2, 1
0, 2
1, 0
2, 2
1, 3
1, 3
4, 4
4, 2
3, 6
2, 2
3, 5
6, 1
3, 4
4, 2
2, 4
5, 3
5, 5
6, 5
4, 8
3, 11
14, 21
17, 20
16, 18
15, 19
13, 10
13, 10
6, 13
11, 11
17, 24
23, 31
31, 53
41, 63
37, 64
52, 46
36, 45
38, 40
31, 59
57, 75
104, 145
174, 230
270, 365
372, 491
388, 534
400, 538
374, 461
290, 358
189, 227
111, 130
74, 92
49, 59
25, 43
33, 30
25, 33
25, 32
34, 34
26, 36
22, 24
20, 23
18, 19
11, 18
25, 38
51, 66
106, 90
155, 182
208, 248
288, 335
287, 378
324, 362
248, 289
178, 224
159, 190
107, 114
61, 100
56, 59
49, 58
74, 81
81, 118
117, 151
153, 175
180, 251
208, 229
202, 225
189, 200
136, 166
101, 139
99, 101
93, 89
64, 78
66, 103
51, 75
68, 77
39, 59
34, 38
38, 29
22, 31
30, 24
23, 19
11, 9
11, 13
6, 5
4, 11
4, 10
11, 10
10, 9
6, 12
12, 22
16, 26
20, 32
26, 38
29, 40
25, 30
22, 41
21, 34
12, 17
8, 12
9, 18
9, 11
13, 18
43, 41
52, 65
93, 125
140, 173
206, 298
261, 387
325, 392
313, 443
332, 383
261, 351
197, 265
142, 169
83, 100
45, 48
27, 29
23, 31
30, 31
36, 53
42, 59
40, 52
46, 68
64, 80
37, 62
23, 48
25, 34
27, 35
16, 22
14, 11
6, 14
9, 7
5, 8
5, 11
12, 9
10, 7
6, 14
11, 16
19, 19
19, 26
27, 50
44, 48
46, 67
39, 79
51, 65
49, 75
38, 48
38, 30
41, 38
20, 21
18, 17
13, 22
16, 16
10, 15
15, 17
8, 20
9, 14
12, 12
16, 14
15, 15
13, 15
9, 16
22, 27
21, 23
12, 23
9, 12
9, 13
13, 13
10, 14
9, 19
16, 15
8, 12
14, 15
11, 9
10, 10
16, 11
9, 19
13, 24
22, 27
27, 24
17, 34
18, 30
32, 35
28, 35
18, 20
26, 20
18, 17
21, 17
8, 15
16, 16
12, 17
4, 3
5, 8
11, 11
16, 14
16, 11
14, 35
20, 29
16, 40
30, 33
39, 51
29, 59
32, 58
47, 58
29, 61
35, 44
23, 30
18, 28
26, 19
14, 20
20, 21
24, 14
16, 32
28, 35
39, 75
74, 127
135, 206
218, 340
393, 561
618, 881
859, 1221
1119, 1463
1266, 1695
1464, 1874
1356, 1855
1378, 1612
1118, 1368
884, 950
599, 674
437, 485
265, 289
154, 153
91, 99
46, 52
30, 24
23, 15
21, 12
13, 22
11, 15
7, 14
15, 11
26, 23
29, 27
30, 36
51, 60
56, 76
93, 113
109, 145
172, 215
186, 254
207, 307
234, 278
217, 303
215, 253
171, 178
149, 150
96, 93
73, 73
50, 51
31, 27
20, 19
9, 9
7, 10
8, 10
12, 15
11, 7
10, 10
14, 7
10, 12
8, 6
12, 13
15, 9
10, 12
8, 6
7, 10
6, 9
6, 5
5, 5
5, 11
6, 8
6, 6
10, 3
6, 10
6, 5
6, 6
8, 7
5, 3
6, 2
4, 8
6, 4
8, 2
4, 6
3, 8
5, 4
3, 5
4, 10
7, 8
6, 4
8, 6
3, 4
5, 7
2, 8
5, 5
6, 8
6, 6
6, 6
6, 9
6, 5
9, 8
4, 12
5, 8
5, 7
8, 5
7, 11
9, 6
5, 8
8, 13
7, 12
7, 9
11, 17
9, 14
12, 5
8, 11
5, 14
8, 6
4, 9
5, 15
6, 10
5, 6
2, 9
2, 11
5, 6
5, 5
5, 5
10, 11
3, 8
5, 5
7, 5
6, 5
2, 8
5, 2
11, 7
8, 5
3, 9
3, 2
3, 3
7, 6
2, 6
7, 5
4, 5
1, 8
2, 4
2, 9
6, 6
4, 2
9, 6
5, 6
4, 6
3, 5
4, 8
3, 6
2, 9
4, 4
3, 3
4, 1
6, 5
7, 7
6, 6
5, 1
3, 5
4, 4
2, 4
6, 9
2, 4
6, 12
4, 7
1, 6
5, 3
2, 4
4, 0
2, 2
5, 0
3, 2
3, 2
2, 3
3, 5
0, 6
2, 2
1, 6
1, 3
4, 5
10, 2
6, 8
4, 3
1, 11
1, 3
3, 6
3, 0
2, 3
4, 1
6, 3
1, 1
2, 1
5, 2
2, 3
4, 3
4, 6
7, 2
5, 5
2, 2
2, 5
5, 5
5, 3
2, 3
4, 4
1, 5
3, 2
2, 5
4, 1
3, 2
3, 2
3, 2
2, 7
4, 6
2, 6
2, 1
3, 1
8, 4
5, 4
1, 2
1, 7
1, 4
1, 3
3, 3
2, 1
2, 0
1, 7
1, 3
1, 6
3, 3
3, 1
3, 1
2, 5
2, 1
1, 4
3, 3
4, 5
2, 1
4, 2
5, 4
3, 2
4, 0
1, 4
3, 2
1, 4
3, 1
3, 1
2, 1
5, 3
0, 3
3, 1
4, 2
2, 1
3, 1
5, 5
2, 3
3, 2
1, 0
3, 1
3, 2
5, 0
2, 2
6, 2
4, 0
2, 5
1, 2
3, 5
3, 2
2, 1
0, 4
4, 3
2, 2
4, 4
2, 1
2, 1
4, 3
4, 2
3, 2
1, 2
5, 2
3, 7
1, 1
3, 4
2, 3
3, 3
1, 2
1, 1
2, 2
4, 3
2, 3
2, 4
2, 1
1, 2
2, 3
3, 0
3, 3
1, 2
3, 1
2, 2
4, 2
0, 4
0, 0
0, 3
2, 4
2, 3
0, 4
0, 4
1, 4
3, 3
4, 2
1, 2
1, 0
0, 1
1, 2
2, 2
3, 3
3, 1
1, 0
0, 4
2, 0
2, 1
2, 4
0, 0
0, 0
3, 0
1, 2
2, 2
0, 1
1, 1
0, 0
0, 2
2, 1
2, 1
0, 1
0, 2
1, 1
0, 2
0, 3
1, 0
0, 1
2, 3
1, 2
0, 0
0, 1
1, 1
0, 1
2, 2
0, 2
0, 1
0, 1
1, 0
0, 2
0, 1
2, 1
1, 1
2, 1
0, 0
0, 1
1, 0
0, 0
0, 0
2, 1
0, 2
1, 1
1, 1
0, 0
0, 0
1, 1
0, 0
2, 0
1, 1
1, 2
0, 1
0, 0
0, 2
0, 1
1, 1
0, 1
1, 1
0, 0
0, 0
1, 0
1, 0
2, 0
0, 2
1, 1
0, 3
0, 1
0, 0
0, 1
0, 0
0, 1
0, 1
0, 0
2, 0
1, 2
1, 2
0, 2
0, 1
0, 2
1, 0
1, 1
0, 0
1, 0
1, 1
0, 0
0, 1
0, 0
2, 1
0, 2
0, 1
1, 0
1, 0
1, 0
1, 0
1, 0
0, 0
1, 1
0, 0
1, 1
0, 1
0, 2
0, 1
1, 1
0, 0
0, 0
0, 0
1, 1
0, 0
1, 0
0, 0
1, 1
1, 0
0, 0
1, 0
1, 0
0, 2
0, 0
0, 0
0, 0
0, 0
0, 2
0, 1
0, 0
1, 0
1, 0
0, 0
0, 1
0, 2
0, 0
0, 0
1, 0
0, 0
1, 1
0, 1
0, 1
0, 0
0, 0
1, 0
0, 0
0, 0
0, 0
2, 0
0, 1
0, 2
0, 0
0, 0
1, 0
0, 0
0, 1
0, 0
1, 0
0, 0
0, 0
0, 0
0, 0
0, 0
0, 0
0, 1
1, 1
1, 1
0, 0
0, 0
0, 0
0, 0
0, 0
0, 0
0, 0
0, 1
0, 1
1, 1
0, 0
0, 0
0, 0
0, 0
0, 0
0, 0
1, 0
0, 0
0, 0
1, 0
0, 0
0, 1
0, 0
0, 0
0, 0
0, 0
0, 1
0, 1
1, 0
0, 0
0, 0
0, 2
0, 0
0, 0
0, 0
0, 0
0, 1
1, 0
0, 0
0, 0
0, 2
0, 0
0, 0
0, 0
0, 0
1, 0
0, 0
0, 0
0, 0
0, 0
0, 0
0, 0
2, 0
0, 1
0, 0
1, 0
0, 0
1, 0
0, 0
1, 0
0, 1
1, 0
0, 1
0, 0
0, 0
0, 0
0, 0
0, 0
1, 0
0, 0
0, 0
0, 0
0, 0
0, 0
0, 0
0, 0
0, 0
0, 0
0, 1
0, 0
0, 0
0, 0
0, 0
0, 0
0, 0
0, 0
0, 1
0, 1
0, 0
1, 0
0, 0
0, 0
1, 0
0, 0
0, 0
0, 0
0, 0
0, 0
0, 1
0, 0
0, 0
0, 0
0, 0
0, 1
0, 0
0, 0
0, 0
0, 1
1, 0
0, 0
0, 0
1, 1
1, 1
0, 0
0, 0
0, 0
0, 0
0, 0
1, 0
0, 0
0, 0
0, 0
0, 0
1, 0
0, 0
0, 0
0, 0
0, 0
1, 0
0, 0
0, 0
0, 0
1, 0
0, 0
0, 0
0, 1
1, 0
0, 0
0, 0
0, 0
0, 0
0, 0
0, 0
0, 0
0, 0
0, 1
0, 0
0, 0
0, 0
0, 1
0, 0
1, 0
0, 1
0, 0
0, 1
0, 0
0, 0
0, 0
0, 0
0, 0
0, 0
0, 0
0, 0
0, 0
0, 0
0, 0
0, 0
0, 0
0, 0
0, 0
0, 0
0, 0
0, 0
0, 0
0, 0
0, 0
0, 0
0, 0
0, 0
0, 0
0, 0
0, 0
0, 0
0, 0
0, 0
0, 0
0, 1
0, 0
0, 1
0, 0
0, 2
0, 0
0, 0
0, 0
0, 0
0, 0
0, 0
0, 0
0, 0
0, 0
0, 0
1, 0
0, 0
0, 0
0, 0
0, 0
0, 1
0, 0
0, 0
0, 0
0, 0
0, 0
0, 0
0, 0
0, 0
0, 0
0, 0
0, 0
0, 0
0, 0
1, 0
0, 0
0, 0
0, 0
0, 0
0, 0
0, 0
0, 0
0, 0
0, 0
0, 0
0, 0
0, 0
0, 0
0, 0
0, 0
0, 0
0, 0
0, 0
0, 0
0, 0
0, 0
0, 0
0, 0
0, 0
0, 0
0, 0
0, 0
0, 0
1, 0
0, 0
0, 0
0, 0
0, 0
0, 0
0, 0
0, 0
0, 0
0, 0
0, 0
0, 0
0, 0
0, 0
0, 0
0, 0
0, 0
0, 0
0, 0
0, 0
0, 0
0, 0
0, 0
0, 0
0, 0
0, 0
0, 0
0, 0
0, 0
0, 0
0, 0
0, 0
0, 0
0, 0
0, 0
0, 0
0, 0
0, 0
0, 0
0, 0
0, 0
0, 0
0, 0
0, 0
0, 0
0, 0
0, 0
0, 0
0, 0
0, 0
0, 0
0, 0
0, 0
0, 0
0, 0
0, 0
0, 0
0, 0
0, 0
0, 0
0, 0
0, 0
0, 0
0, 0
0, 0
0, 0
0, 0
0, 0
0, 0
0, 0
0, 0
0, 0
0, 0
0, 0
0, 0
0, 0
0, 0
0, 0
0, 0
0, 0
0, 0
0, 0
0, 0
0, 0
0, 0
0, 0
0, 0
0, 0
0, 0
0, 0
0, 0
0, 0
0, 0
0, 0
0, 0
0, 0
0, 0
0, 0
0, 0
0, 0
0, 0
0, 0
0, 0
0, 0
0, 0
0, 0
1, 0
0, 0
0, 0
0, 0
0, 0
0, 0
0, 0
0, 0
0, 0
0, 0
0, 0
0, 0
0, 0
0, 0
0, 0
0, 0
0, 0
0, 0
0, 0
0, 0
0, 0
0, 0
0, 0
0, 0
0, 0
0, 0
0, 0
0, 0
0, 0
0, 0
0, 0
0, 0
0, 0
0, 0
0, 0
0, 0
0, 0
0, 0
0, 0
0, 0
0, 0
0, 0
0, 0
0, 0
0, 0
0, 0
0, 0
0, 0
0, 0
0, 0
0, 0
0, 0
0, 0
0, 0
0, 0
0, 0
0, 0
0, 0
0, 0
0, 0
0, 0
0, 0
0, 0
0, 0
0, 0
0, 0
0, 0
0, 0
0, 0
0, 0
0, 0
0, 0
0, 0
0, 0
0, 0
0, 0
0, 0
0, 0
0, 0
0, 0
0, 0
0, 0
0, 0
0, 0
0, 0
0, 0
0, 0
0, 0
0, 0
0, 0
0, 0
0, 0
0, 0
0, 0
0, 0
0, 0
0, 0
0, 0
0, 0
0, 0
0, 0
0, 0
0, 0
0, 0
0, 0
0, 0
0, 0
0, 0
0, 0
0, 0
0, 0
0, 0
0, 0
0, 0
0, 0
0, 0
0, 0
0, 0
0, 0
0, 0
0, 0
0, 0
0, 0
0, 0
0, 0
0, 0
0, 0
0, 0
0, 0
0, 0
0, 0
0, 0
0, 0
0, 0
0, 0
0, 0
0, 0
0, 0
0, 0
0, 0
0, 0
0, 0
0, 0
0, 0
0, 0
0, 0
0, 0
0, 0
0, 0
0, 0
0, 0
0, 0
0, 0
0, 0
0, 0
0, 0
0, 0
0, 0
0, 0
0, 0
0, 0
0, 0
0, 0
0, 0
0, 0
0, 0
0, 0
0, 0
0, 0
0, 0
0, 0
0, 0
0, 0
0, 0
0, 0
0, 0
0, 0
0, 0
0, 0
0, 0
0, 0
0, 0
0, 0
0, 0
0, 0
0, 0
0, 0
0, 0
0, 0
0, 0
0, 0
0, 0
0, 0
0, 0
0, 0
0, 0
0, 0
0, 0
0, 0
0, 0
0, 0
0, 0
0, 0
0, 0
0, 0
0, 0
0, 0
0, 0
0, 0
0, 0
0, 0
0, 0
0, 0
0, 0
0, 0
0, 0
0, 0
0, 0
0, 0
0, 0
0, 0
0, 0
0, 0
0, 0
0, 0
0, 0
0, 0
0, 0
0, 0
0, 0
0, 0
0, 0
0, 0
0, 0
0, 0
0, 0
0, 0
0, 0
0, 0
0, 0
0, 0
0, 0
0, 0
0, 0
0, 0
0, 0
0, 0
0, 0
0, 0
0, 0
0, 0
0, 0
0, 0
0, 0
0, 0
0, 0
0, 0
0, 0
0, 0
0, 0
0, 0
0, 0
0, 0
0, 0
0, 0
0, 0
0, 0
0, 0
0, 0
0, 0
0, 0
0, 0
#ENDOFDATA     end of spectrum data