File: host_upload/02-11-2024/rqc/uplink1/ps__0567_0717304816_000rfs_shot_287.msa
#FORMAT      : EMSA/MAS spectral data file
#VERSION     : TC202v2.0 PIXL
#TITLE       : Novarupta (sol567) subset1
#DATE        : 02-11-2024      Date in the format DD-MMM-YYYY, for example 07-JUL-2010
#TIME        :             The time of day at which the spectrum was recorded, in 24-hour format
#OWNER       : PIXL Flight Model       (PIXL will use this to indicate which instrument took the data.)
#NPOINTS     : 4096     Number of data points in the spectrum (This can be zero for configuration only files)
#NCOLUMNS    : 2     Number of data columns in the spectrum (This can be zero for configuration only files)
#XUNITS      : eV
#YUNITS      : COUNTS
#DATATYPE    : YY
#XPERCHAN    : 7.862, 7.881   eV per channel (separate by commas if more than one detector)
#OFFSET      : 18.5, -22.4         eV of first channel  (separate by commas if more than one detector
#SIGNALTYPE  : XRF
#YP_TEMP     : 1.466
#LIVETIME    : 8.8188, 8.814   seconds (separate by commas if more than one detector)
#REALTIME    : 10, 10.0   seconds (separate by commas if more than one detector)
#SPECTRUM    : start of spectrum data
0, 0
0, 0
0, 0
0, 0
0, 0
0, 0
0, 0
0, 0
0, 0
0, 0
0, 0
0, 0
0, 0
0, 0
0, 0
0, 0
0, 0
0, 0
0, 0
0, 0
0, 0
0, 0
0, 0
0, 0
0, 0
0, 0
0, 0
0, 0
0, 0
0, 0
1, 0
1, 0
0, 0
0, 0
3, 1
0, 1
1, 2
4, 2
5, 4
5, 3
4, 4
2, 4
1, 3
4, 4
1, 3
3, 7
2, 4
6, 4
4, 4
3, 1
3, 6
9, 11
14, 16
22, 14
19, 18
19, 17
11, 15
16, 14
10, 11
13, 14
20, 19
23, 27
37, 55
54, 44
58, 64
48, 56
36, 42
31, 25
32, 40
45, 81
115, 117
214, 201
310, 328
446, 463
468, 544
508, 557
411, 433
338, 331
228, 214
150, 163
88, 88
54, 51
32, 30
30, 46
38, 34
35, 29
31, 30
24, 34
28, 15
22, 19
12, 19
14, 11
23, 34
50, 45
82, 93
127, 158
223, 209
253, 294
315, 311
284, 297
244, 267
213, 201
150, 158
103, 103
75, 54
56, 50
50, 69
72, 76
104, 123
144, 146
174, 227
235, 230
257, 289
221, 263
212, 228
188, 180
144, 125
96, 129
93, 101
88, 76
101, 93
73, 70
67, 74
63, 62
46, 43
27, 45
22, 28
23, 19
23, 11
22, 19
10, 16
11, 13
4, 10
5, 12
9, 7
14, 4
5, 7
16, 10
12, 15
27, 25
31, 29
25, 35
19, 28
25, 23
19, 29
20, 16
7, 11
12, 14
9, 11
19, 18
23, 29
46, 63
79, 112
140, 184
212, 213
268, 297
332, 378
382, 429
356, 400
305, 334
236, 250
151, 157
112, 83
51, 69
31, 48
31, 24
30, 39
34, 32
60, 47
49, 57
59, 55
76, 58
72, 67
44, 47
39, 45
28, 29
13, 27
16, 19
15, 11
3, 8
5, 6
10, 8
11, 10
9, 8
7, 19
12, 13
22, 20
24, 29
33, 34
35, 57
50, 40
73, 67
60, 67
63, 65
51, 65
36, 46
49, 40
25, 30
23, 25
22, 11
10, 20
12, 12
12, 8
15, 14
15, 15
11, 12
15, 12
16, 21
19, 19
17, 17
18, 24
22, 18
24, 18
18, 17
16, 15
16, 10
15, 11
13, 13
6, 13
10, 13
11, 8
13, 15
19, 21
13, 15
19, 19
13, 22
11, 26
18, 19
31, 28
30, 28
41, 40
26, 37
22, 16
20, 15
23, 20
20, 20
17, 18
10, 11
15, 18
10, 12
10, 14
11, 16
16, 15
13, 14
15, 19
16, 24
31, 37
26, 38
34, 39
47, 35
45, 62
46, 44
45, 55
46, 49
41, 38
29, 30
17, 22
26, 20
25, 20
22, 25
23, 26
21, 36
38, 43
62, 85
136, 160
210, 266
381, 521
652, 801
867, 1139
1135, 1409
1459, 1763
1670, 1838
1729, 1969
1724, 1700
1460, 1458
1188, 1148
905, 810
643, 537
362, 296
237, 186
109, 105
78, 63
35, 29
21, 23
22, 16
18, 26
17, 13
25, 11
17, 19
17, 16
29, 25
26, 39
50, 39
57, 63
93, 105
118, 144
144, 208
213, 230
251, 279
265, 297
288, 292
248, 253
236, 215
189, 157
107, 123
107, 76
52, 59
38, 33
17, 16
14, 8
9, 15
3, 4
6, 9
7, 15
13, 16
16, 16
9, 9
12, 12
12, 13
8, 17
14, 12
10, 9
8, 8
8, 8
6, 6
6, 11
5, 4
9, 6
10, 6
6, 6
9, 7
6, 7
6, 2
12, 8
6, 6
9, 6
7, 7
3, 6
4, 8
9, 9
5, 9
10, 5
9, 9
2, 7
13, 8
3, 11
7, 9
11, 9
10, 10
7, 2
8, 13
8, 12
7, 7
10, 7
1, 10
5, 8
8, 5
9, 3
5, 5
7, 7
6, 4
8, 5
8, 9
9, 8
7, 7
10, 19
16, 9
15, 22
9, 18
11, 12
5, 8
10, 9
2, 8
6, 5
9, 4
10, 6
5, 8
6, 7
7, 5
4, 2
8, 5
9, 6
5, 9
5, 3
9, 8
3, 4
7, 9
7, 3
11, 3
9, 4
4, 4
4, 3
5, 9
3, 10
5, 2
3, 8
3, 9
4, 6
5, 5
4, 8
6, 7
2, 4
4, 7
5, 2
4, 2
5, 8
9, 6
5, 9
7, 5
7, 5
1, 4
4, 5
4, 8
6, 4
8, 6
4, 4
3, 3
5, 5
6, 7
6, 2
8, 3
3, 5
6, 3
9, 4
2, 4
3, 3
4, 6
2, 5
4, 4
5, 8
6, 7
4, 3
1, 3
5, 5
4, 3
6, 1
6, 7
7, 7
4, 1
1, 5
2, 0
1, 9
3, 2
4, 3
4, 3
6, 3
1, 2
6, 4
6, 5
4, 4
2, 3
2, 4
4, 3
3, 3
1, 5
4, 4
5, 5
2, 2
1, 3
1, 5
6, 5
3, 3
2, 5
1, 4
7, 2
0, 3
2, 2
3, 1
2, 5
2, 6
2, 4
1, 0
2, 5
5, 3
4, 1
2, 0
4, 4
3, 3
1, 3
1, 5
4, 7
2, 2
2, 4
3, 3
2, 3
2, 2
0, 2
3, 1
1, 4
4, 4
4, 3
3, 5
2, 1
1, 2
1, 4
0, 4
1, 3
2, 2
3, 1
2, 0
1, 2
4, 3
0, 0
1, 3
1, 1
3, 3
2, 3
2, 1
1, 2
2, 3
0, 4
5, 3
0, 3
1, 1
3, 2
2, 2
2, 1
2, 1
2, 2
4, 1
1, 2
1, 1
1, 3
2, 1
2, 4
1, 0
2, 5
1, 2
2, 1
1, 1
4, 3
3, 1
0, 0
4, 3
2, 3
1, 2
1, 5
2, 2
4, 0
4, 6
2, 5
4, 2
1, 4
2, 4
3, 2
4, 2
3, 1
1, 2
5, 5
4, 0
1, 4
3, 2
1, 0
1, 3
1, 2
0, 1
0, 1
2, 2
2, 4
1, 3
3, 2
2, 1
1, 4
3, 1
1, 3
0, 3
4, 1
3, 0
2, 0
3, 3
0, 1
4, 4
5, 1
1, 3
4, 2
1, 0
2, 0
0, 0
4, 3
0, 1
1, 1
2, 2
2, 0
1, 2
0, 1
1, 0
1, 0
0, 1
0, 0
0, 1
1, 0
2, 0
2, 1
1, 1
3, 2
0, 0
2, 1
2, 2
1, 3
3, 2
1, 1
0, 2
1, 1
0, 1
1, 0
2, 1
3, 1
1, 1
3, 2
2, 4
0, 0
0, 1
0, 3
0, 0
0, 1
1, 0
1, 1
0, 0
2, 0
0, 1
1, 1
1, 0
0, 2
1, 2
0, 2
2, 2
0, 1
0, 3
2, 3
0, 1
0, 0
1, 1
1, 0
0, 0
0, 2
0, 1
0, 2
0, 1
1, 0
0, 0
1, 1
2, 1
0, 2
2, 1
1, 1
1, 2
1, 0
1, 1
0, 1
1, 0
2, 1
0, 0
1, 0
0, 0
1, 1
0, 0
0, 2
0, 1
0, 0
0, 1
1, 1
0, 0
2, 0
1, 1
1, 1
0, 0
0, 0
0, 0
0, 0
1, 0
1, 2
0, 0
3, 1
2, 0
0, 0
0, 0
0, 0
0, 2
0, 0
0, 1
0, 1
1, 0
0, 1
1, 1
0, 0
0, 1
1, 0
0, 0
2, 2
0, 0
0, 0
1, 2
0, 0
0, 2
1, 1
1, 0
0, 2
0, 0
1, 0
0, 0
0, 1
0, 1
0, 0
0, 1
1, 0
0, 0
0, 0
0, 0
0, 1
1, 0
0, 0
0, 2
0, 0
1, 0
0, 0
1, 0
0, 0
2, 0
0, 0
0, 0
0, 0
2, 2
0, 0
2, 0
2, 0
1, 1
0, 0
2, 0
0, 0
1, 0
0, 0
0, 1
1, 0
1, 0
0, 1
0, 1
0, 0
0, 0
0, 1
0, 0
0, 0
0, 0
0, 0
0, 1
0, 0
0, 0
0, 0
0, 1
0, 1
0, 0
0, 0
0, 0
0, 0
1, 0
0, 0
1, 0
0, 0
0, 0
0, 0
0, 0
0, 1
0, 0
0, 0
0, 0
0, 0
0, 0
0, 0
0, 0
0, 0
0, 0
2, 0
1, 0
0, 0
2, 0
0, 1
0, 0
0, 0
1, 0
0, 1
0, 0
0, 0
0, 0
2, 0
0, 1
0, 0
1, 1
0, 0
0, 0
0, 0
0, 0
0, 1
0, 1
0, 0
0, 0
1, 0
1, 0
0, 0
1, 0
0, 0
0, 0
1, 0
0, 0
1, 1
0, 0
0, 0
0, 0
0, 0
1, 0
0, 0
0, 0
0, 1
0, 1
0, 0
0, 0
1, 0
0, 0
0, 0
0, 0
0, 0
0, 0
0, 0
0, 0
0, 0
0, 0
0, 0
0, 1
0, 0
0, 0
0, 0
1, 1
0, 0
1, 0
1, 0
0, 0
1, 0
0, 0
0, 0
0, 0
1, 0
1, 0
0, 0
0, 0
0, 0
0, 0
0, 0
0, 0
0, 0
0, 0
0, 0
0, 0
0, 2
0, 0
0, 0
0, 0
0, 0
0, 0
0, 0
0, 0
0, 1
0, 0
0, 0
0, 0
0, 0
0, 0
0, 0
0, 0
0, 0
0, 0
0, 0
0, 0
0, 0
0, 0
0, 0
0, 0
0, 0
0, 0
0, 0
0, 1
0, 0
0, 0
0, 0
0, 0
0, 0
0, 0
0, 0
0, 0
0, 1
0, 0
0, 0
0, 0
0, 0
0, 1
0, 0
0, 1
0, 0
0, 0
0, 0
0, 0
0, 0
0, 0
0, 0
0, 0
0, 0
0, 0
0, 0
0, 0
0, 0
0, 1
0, 0
0, 0
0, 0
0, 0
0, 0
0, 0
0, 0
0, 0
0, 0
1, 0
0, 0
0, 0
1, 0
1, 1
0, 0
0, 0
0, 0
0, 0
0, 0
0, 0
0, 0
0, 0
0, 0
0, 0
0, 0
0, 0
0, 0
0, 0
0, 0
0, 0
0, 0
0, 0
0, 0
0, 0
0, 0
0, 0
0, 0
0, 0
0, 0
0, 0
0, 0
0, 0
0, 0
0, 0
0, 0
0, 0
0, 0
0, 0
0, 0
0, 0
0, 0
0, 0
0, 0
0, 0
0, 0
0, 0
0, 0
0, 0
0, 0
0, 0
0, 0
0, 0
0, 0
0, 0
0, 1
0, 0
0, 0
0, 0
0, 0
0, 0
0, 0
0, 0
0, 0
0, 0
0, 0
0, 0
0, 0
0, 0
0, 0
0, 0
0, 0
0, 0
0, 0
0, 0
0, 0
0, 0
0, 0
0, 0
0, 0
0, 0
0, 0
0, 0
1, 0
0, 1
0, 0
0, 0
0, 0
0, 0
0, 0
0, 0
0, 0
0, 0
0, 0
0, 0
0, 0
0, 0
0, 0
0, 0
0, 0
0, 0
0, 0
0, 0
0, 0
0, 0
0, 0
0, 0
0, 0
0, 0
0, 0
0, 0
0, 0
0, 0
0, 0
0, 0
0, 0
0, 0
0, 0
0, 0
0, 0
0, 0
0, 0
0, 0
0, 0
0, 0
0, 0
0, 0
0, 0
0, 0
0, 0
0, 0
0, 0
0, 0
0, 0
0, 0
0, 0
0, 0
0, 0
0, 0
0, 0
0, 0
0, 0
0, 0
0, 0
0, 0
0, 0
0, 0
0, 0
0, 0
0, 0
0, 0
0, 0
0, 0
0, 0
0, 0
0, 0
0, 0
0, 0
0, 0
0, 0
0, 0
0, 0
0, 0
0, 0
0, 0
0, 0
0, 0
0, 0
0, 0
0, 0
0, 0
0, 0
0, 1
0, 0
0, 0
0, 0
0, 0
0, 0
0, 0
0, 0
0, 0
0, 0
0, 0
0, 0
0, 0
0, 0
0, 0
0, 0
0, 0
0, 0
0, 0
0, 0
0, 0
0, 0
0, 0
0, 0
0, 0
0, 0
0, 0
0, 0
0, 0
0, 0
0, 0
0, 0
0, 0
0, 0
0, 0
0, 0
0, 0
0, 0
0, 0
0, 0
0, 0
0, 0
0, 0
0, 0
0, 0
0, 0
0, 0
0, 0
0, 0
0, 0
0, 0
0, 0
0, 0
0, 0
0, 0
0, 0
0, 0
0, 0
0, 0
0, 0
0, 0
0, 0
0, 0
0, 0
0, 0
0, 0
0, 0
0, 0
0, 0
0, 0
0, 0
0, 0
0, 0
0, 0
0, 0
0, 0
0, 0
0, 0
0, 0
0, 0
0, 0
0, 0
0, 0
0, 0
0, 0
0, 0
0, 0
0, 0
0, 0
0, 0
0, 0
0, 0
0, 0
0, 0
0, 0
0, 0
0, 0
0, 0
0, 0
0, 0
0, 0
0, 0
0, 0
0, 0
0, 0
0, 0
0, 0
0, 0
0, 0
0, 0
0, 0
0, 0
0, 0
0, 0
0, 0
0, 0
0, 0
0, 0
0, 0
0, 0
0, 0
0, 0
0, 0
0, 0
0, 0
0, 0
0, 0
0, 0
0, 0
0, 0
0, 0
0, 0
0, 0
0, 0
0, 0
0, 0
0, 0
0, 0
0, 0
0, 0
0, 0
0, 0
0, 0
0, 0
0, 0
0, 0
0, 0
0, 0
0, 0
0, 0
0, 0
0, 0
0, 0
0, 0
0, 0
0, 0
0, 0
0, 0
0, 0
0, 0
0, 0
0, 0
0, 0
0, 0
0, 0
0, 0
0, 0
0, 0
0, 0
0, 0
0, 0
0, 0
0, 0
0, 0
0, 0
0, 0
0, 0
0, 0
0, 0
0, 0
0, 0
0, 0
0, 0
0, 0
0, 0
0, 0
0, 0
0, 0
0, 0
0, 0
0, 0
0, 0
0, 0
0, 0
0, 0
0, 0
0, 0
0, 0
0, 0
0, 0
0, 0
0, 0
0, 0
0, 0
0, 0
0, 0
0, 0
0, 0
0, 0
0, 0
0, 0
0, 0
0, 0
0, 0
0, 0
0, 0
0, 0
0, 0
0, 0
0, 0
0, 0
0, 0
0, 0
0, 0
0, 0
0, 0
0, 0
0, 0
0, 0
0, 0
0, 0
0, 0
0, 0
0, 0
0, 0
0, 0
0, 0
0, 0
0, 0
0, 0
0, 0
0, 0
0, 0
0, 0
0, 0
0, 0
0, 0
0, 0
0, 0
0, 0
0, 0
0, 0
0, 0
0, 0
0, 0
0, 0
0, 0
0, 0
0, 0
0, 0
0, 0
0, 0
0, 0
0, 0
0, 0
0, 0
0, 0
0, 0
0, 0
0, 0
0, 0
0, 0
0, 0
0, 0
0, 0
0, 0
0, 0
#ENDOFDATA     end of spectrum data