File: host_upload/02-11-2024/rqc/uplink1/ps__0567_0717304816_000rfs_shot_323.msa
#FORMAT      : EMSA/MAS spectral data file
#VERSION     : TC202v2.0 PIXL
#TITLE       : Novarupta (sol567) subset1
#DATE        : 02-11-2024      Date in the format DD-MMM-YYYY, for example 07-JUL-2010
#TIME        :             The time of day at which the spectrum was recorded, in 24-hour format
#OWNER       : PIXL Flight Model       (PIXL will use this to indicate which instrument took the data.)
#NPOINTS     : 4096     Number of data points in the spectrum (This can be zero for configuration only files)
#NCOLUMNS    : 2     Number of data columns in the spectrum (This can be zero for configuration only files)
#XUNITS      : eV
#YUNITS      : COUNTS
#DATATYPE    : YY
#XPERCHAN    : 7.862, 7.881   eV per channel (separate by commas if more than one detector)
#OFFSET      : 18.5, -22.4         eV of first channel  (separate by commas if more than one detector
#SIGNALTYPE  : XRF
#YP_TEMP     : 1.466
#LIVETIME    : 8.825, 8.83515   seconds (separate by commas if more than one detector)
#REALTIME    : 10, 10.0   seconds (separate by commas if more than one detector)
#SPECTRUM    : start of spectrum data
0, 0
0, 0
0, 0
0, 0
0, 0
0, 0
0, 0
0, 0
0, 0
0, 0
0, 0
0, 0
0, 0
0, 0
0, 0
0, 0
0, 0
0, 0
0, 0
0, 0
0, 0
0, 0
0, 0
0, 0
0, 0
0, 0
0, 0
0, 0
0, 0
0, 0
0, 0
0, 0
0, 0
2, 1
2, 0
1, 1
1, 1
2, 0
3, 5
5, 3
5, 2
2, 2
1, 1
3, 5
4, 6
7, 2
3, 3
9, 2
2, 3
2, 3
5, 8
10, 9
10, 16
13, 13
21, 11
24, 9
14, 10
13, 19
11, 4
14, 8
16, 18
25, 23
34, 34
57, 41
46, 43
45, 35
48, 34
32, 42
33, 29
64, 57
99, 119
156, 187
282, 303
415, 396
470, 464
464, 442
411, 394
343, 283
184, 226
140, 129
87, 70
52, 41
39, 26
36, 35
31, 31
37, 23
39, 43
45, 38
39, 25
18, 15
15, 16
14, 19
28, 28
49, 51
110, 97
161, 145
238, 246
302, 300
378, 370
346, 398
362, 279
258, 234
190, 163
108, 109
77, 60
69, 65
61, 47
63, 74
82, 77
128, 135
169, 174
203, 202
231, 237
231, 199
216, 193
168, 167
135, 120
117, 107
93, 85
79, 81
82, 64
75, 70
66, 59
64, 47
43, 42
39, 33
31, 19
20, 15
15, 18
12, 13
6, 12
12, 6
6, 7
9, 6
6, 7
7, 14
4, 4
9, 12
18, 12
24, 16
27, 32
36, 30
37, 30
29, 23
20, 18
23, 17
15, 17
8, 11
19, 10
21, 11
29, 22
56, 61
76, 91
138, 164
236, 202
296, 283
322, 326
363, 344
369, 360
289, 262
240, 230
174, 145
104, 104
58, 49
47, 35
27, 21
24, 24
29, 29
44, 40
46, 61
63, 64
64, 70
60, 53
38, 48
43, 45
31, 29
14, 23
5, 9
9, 10
8, 5
7, 8
10, 9
10, 7
9, 8
8, 8
13, 12
14, 22
30, 18
37, 38
37, 50
46, 58
56, 57
66, 59
55, 53
54, 61
44, 46
39, 34
36, 28
19, 18
23, 18
12, 20
9, 11
10, 20
15, 7
13, 5
18, 15
14, 13
21, 15
12, 18
27, 21
21, 12
22, 29
22, 13
18, 21
13, 11
15, 12
16, 16
10, 10
14, 9
15, 10
10, 10
14, 7
11, 13
8, 16
14, 17
18, 19
22, 19
20, 18
32, 30
23, 32
30, 33
39, 33
22, 32
30, 24
20, 18
17, 14
12, 8
15, 17
7, 16
12, 20
9, 18
14, 9
13, 8
4, 17
24, 21
24, 13
29, 27
26, 37
50, 43
40, 48
45, 47
46, 53
43, 48
36, 39
33, 44
35, 26
36, 26
14, 20
22, 19
18, 14
21, 18
27, 29
52, 42
66, 87
125, 140
198, 248
377, 453
588, 699
832, 946
1170, 1311
1484, 1527
1737, 1680
1841, 1717
1638, 1662
1607, 1444
1255, 1089
890, 762
637, 498
402, 285
235, 178
107, 101
85, 64
58, 31
22, 17
12, 26
16, 17
20, 14
16, 19
15, 16
28, 19
16, 17
31, 23
38, 49
55, 75
88, 91
127, 157
174, 186
211, 226
245, 267
267, 267
294, 274
264, 273
242, 201
186, 151
144, 125
101, 78
60, 45
43, 33
29, 29
21, 12
9, 11
18, 18
9, 10
8, 5
10, 10
12, 12
13, 8
18, 12
20, 15
17, 11
17, 9
7, 10
6, 10
12, 2
10, 12
7, 9
7, 10
5, 5
8, 6
6, 3
5, 3
3, 0
8, 9
9, 5
9, 8
5, 5
7, 5
6, 10
7, 7
10, 6
7, 6
4, 6
6, 1
6, 7
6, 5
6, 6
2, 8
7, 9
9, 4
7, 9
3, 8
4, 4
4, 6
10, 8
8, 3
6, 11
7, 10
5, 1
2, 5
3, 6
5, 6
7, 14
3, 10
6, 10
6, 8
13, 7
11, 16
11, 12
13, 19
7, 10
12, 10
9, 7
8, 7
9, 6
10, 4
3, 6
6, 4
8, 8
7, 4
6, 5
7, 3
11, 7
4, 3
2, 6
2, 2
5, 3
6, 2
5, 3
5, 3
6, 3
7, 4
3, 1
5, 3
8, 6
5, 5
3, 3
7, 2
3, 9
4, 3
7, 10
6, 7
6, 8
2, 2
6, 6
3, 7
3, 4
6, 7
3, 4
10, 6
6, 5
6, 8
3, 2
7, 7
0, 4
5, 5
4, 4
3, 7
4, 5
4, 7
3, 4
4, 1
0, 4
2, 2
1, 0
4, 5
6, 4
4, 6
7, 3
5, 6
5, 3
3, 5
2, 1
3, 1
1, 8
7, 3
4, 1
2, 3
8, 3
4, 5
1, 3
5, 4
4, 2
4, 1
5, 4
5, 4
1, 2
2, 3
6, 4
6, 5
5, 5
2, 3
4, 5
4, 4
5, 2
5, 5
1, 1
6, 4
2, 1
3, 1
2, 2
2, 2
0, 6
1, 0
1, 4
3, 3
7, 0
2, 3
4, 2
1, 3
4, 2
6, 2
4, 5
4, 2
1, 0
3, 1
0, 1
1, 2
3, 1
4, 2
0, 1
5, 2
4, 3
1, 1
1, 2
3, 1
2, 2
2, 4
0, 2
2, 2
2, 2
5, 1
1, 0
2, 4
4, 1
1, 3
1, 2
2, 1
1, 0
2, 1
2, 2
1, 1
2, 2
4, 4
3, 3
2, 2
7, 2
4, 1
5, 2
2, 8
4, 0
5, 4
3, 4
1, 2
2, 3
2, 2
3, 3
2, 3
1, 1
0, 3
2, 2
0, 2
2, 1
4, 1
3, 1
2, 1
1, 4
3, 2
1, 3
3, 5
0, 4
3, 2
2, 2
2, 3
1, 3
2, 1
1, 1
3, 0
2, 0
5, 2
1, 3
5, 2
3, 2
6, 2
3, 7
5, 8
2, 3
5, 4
1, 2
3, 2
3, 0
4, 3
2, 0
2, 3
1, 0
2, 1
3, 1
1, 3
1, 1
4, 2
1, 1
5, 1
1, 2
0, 3
2, 1
4, 1
1, 3
0, 1
1, 1
1, 4
3, 0
0, 0
0, 1
0, 1
3, 1
3, 1
1, 1
0, 1
0, 2
2, 4
2, 1
2, 3
1, 0
3, 1
0, 2
0, 2
0, 0
0, 1
0, 3
3, 2
1, 0
0, 1
1, 4
1, 0
1, 0
0, 4
0, 1
1, 1
1, 3
3, 0
5, 0
2, 1
0, 2
2, 2
0, 0
1, 0
0, 1
0, 0
0, 1
3, 0
0, 0
1, 0
1, 0
0, 0
2, 1
2, 2
0, 1
1, 0
2, 3
0, 0
0, 3
1, 1
0, 1
1, 2
1, 0
1, 2
0, 0
1, 1
1, 1
1, 1
0, 0
2, 2
1, 1
1, 1
1, 1
1, 1
0, 2
0, 1
1, 0
0, 2
2, 0
0, 1
1, 0
1, 4
0, 3
0, 1
0, 2
0, 1
2, 1
1, 1
0, 0
1, 0
1, 1
2, 0
0, 0
0, 1
0, 1
2, 0
0, 0
0, 0
2, 0
1, 1
0, 1
1, 1
0, 0
0, 0
1, 0
0, 0
0, 1
0, 0
3, 0
1, 0
1, 0
0, 0
0, 0
1, 0
0, 0
2, 0
1, 0
0, 1
1, 0
0, 2
0, 0
0, 0
0, 0
1, 0
1, 0
1, 0
0, 1
1, 0
0, 0
1, 1
0, 1
1, 0
0, 0
0, 1
0, 2
0, 0
1, 0
0, 0
0, 1
0, 0
0, 1
1, 0
0, 1
0, 1
0, 1
1, 0
0, 0
0, 2
0, 3
0, 0
0, 0
0, 0
0, 0
0, 0
1, 1
1, 0
1, 0
0, 0
2, 0
0, 0
0, 0
0, 1
0, 0
0, 0
0, 0
0, 1
2, 1
0, 0
0, 0
0, 0
1, 1
0, 1
0, 1
0, 0
0, 1
0, 2
0, 0
0, 0
0, 2
1, 0
0, 0
0, 0
0, 0
0, 0
0, 1
1, 0
0, 1
0, 1
0, 1
0, 0
0, 0
0, 0
0, 0
0, 1
0, 0
0, 0
0, 1
0, 0
0, 0
0, 0
1, 1
0, 0
1, 0
0, 1
0, 1
0, 0
0, 0
0, 0
0, 0
0, 0
1, 1
0, 0
0, 0
0, 0
0, 0
0, 1
0, 0
0, 0
0, 0
1, 0
0, 1
0, 0
0, 1
0, 0
1, 0
0, 0
0, 0
2, 1
1, 1
0, 1
0, 0
0, 0
0, 2
0, 0
0, 1
1, 0
0, 2
0, 0
0, 0
0, 0
3, 0
1, 0
0, 1
0, 1
0, 0
0, 0
0, 0
0, 0
0, 0
1, 0
0, 0
1, 0
0, 0
0, 0
0, 0
0, 0
1, 0
0, 0
0, 0
0, 0
0, 0
0, 0
1, 1
1, 0
0, 0
0, 0
0, 0
0, 0
0, 0
0, 0
0, 0
0, 0
0, 0
0, 0
0, 0
0, 0
0, 0
0, 0
0, 0
0, 0
0, 1
0, 0
0, 0
0, 0
0, 0
0, 0
0, 0
0, 0
0, 0
0, 0
0, 0
0, 1
0, 1
0, 1
0, 0
0, 0
0, 0
0, 0
0, 1
0, 0
0, 0
0, 0
0, 0
0, 0
1, 0
0, 0
0, 0
0, 0
0, 0
0, 0
0, 0
0, 0
1, 0
0, 1
0, 0
0, 0
0, 0
0, 0
0, 0
0, 0
0, 0
0, 0
1, 0
0, 0
0, 0
1, 0
0, 0
0, 0
0, 0
0, 0
0, 0
0, 0
0, 0
0, 0
0, 0
0, 0
0, 0
0, 0
0, 0
0, 0
0, 0
0, 0
0, 0
0, 0
0, 0
0, 0
0, 0
0, 0
0, 0
0, 0
0, 0
0, 0
0, 0
0, 0
0, 0
0, 0
0, 0
0, 0
0, 0
0, 0
0, 0
0, 0
0, 0
0, 1
0, 1
0, 0
0, 0
0, 0
0, 0
0, 1
0, 0
0, 0
0, 0
0, 0
0, 0
0, 0
0, 0
0, 0
0, 0
0, 0
0, 0
0, 0
0, 0
0, 0
0, 0
0, 0
0, 0
0, 0
0, 0
0, 0
0, 1
0, 0
0, 0
0, 0
0, 0
0, 0
0, 0
0, 0
0, 0
0, 0
0, 0
0, 0
0, 0
0, 0
0, 0
0, 0
0, 0
0, 0
0, 0
0, 0
0, 0
0, 0
0, 0
0, 0
0, 0
0, 1
0, 0
0, 0
0, 0
0, 0
0, 0
0, 0
0, 0
0, 0
0, 0
0, 0
0, 0
0, 0
1, 0
0, 0
0, 0
0, 0
0, 0
0, 0
0, 0
0, 0
0, 0
0, 0
0, 0
0, 0
0, 0
0, 0
0, 1
0, 0
0, 0
0, 0
0, 0
0, 0
0, 0
0, 0
0, 0
0, 0
0, 0
0, 0
0, 0
0, 0
0, 0
0, 0
0, 0
0, 0
0, 0
0, 0
0, 0
0, 0
0, 0
0, 0
0, 0
0, 0
0, 0
0, 0
0, 0
0, 0
0, 0
0, 0
0, 0
0, 0
0, 0
0, 0
0, 0
0, 0
0, 0
0, 0
0, 0
0, 0
0, 0
0, 0
0, 0
0, 0
0, 0
0, 0
0, 0
0, 0
0, 0
0, 0
0, 0
0, 0
0, 0
0, 0
0, 0
0, 0
0, 0
0, 0
0, 0
0, 0
0, 0
0, 0
0, 0
0, 0
0, 0
0, 0
0, 0
0, 0
0, 0
0, 0
0, 0
0, 0
0, 0
0, 0
0, 0
0, 0
0, 0
0, 0
0, 0
0, 0
0, 0
0, 0
0, 0
0, 0
0, 0
0, 0
0, 0
0, 0
0, 0
0, 0
0, 0
0, 0
0, 0
0, 0
0, 0
0, 0
0, 0
0, 0
0, 0
0, 0
0, 0
0, 0
0, 0
0, 0
0, 0
0, 0
0, 0
0, 0
0, 0
0, 0
0, 0
0, 0
0, 0
0, 0
0, 0
0, 0
0, 0
0, 0
0, 0
0, 0
0, 0
0, 0
0, 0
0, 0
0, 0
0, 0
0, 0
0, 0
0, 0
0, 0
0, 0
0, 0
0, 0
0, 0
0, 0
0, 0
0, 0
0, 0
0, 0
0, 0
0, 0
0, 0
0, 0
0, 0
0, 0
0, 0
0, 0
0, 0
0, 0
0, 0
0, 0
0, 0
0, 0
0, 0
0, 0
0, 0
0, 0
0, 0
0, 0
0, 0
0, 0
0, 0
0, 0
0, 0
0, 0
0, 0
0, 0
0, 0
0, 0
0, 0
0, 0
0, 0
0, 0
0, 0
0, 0
0, 0
0, 0
0, 0
0, 0
0, 0
0, 0
0, 0
0, 0
0, 0
0, 0
0, 0
0, 0
0, 0
0, 0
0, 0
0, 0
0, 0
0, 0
0, 0
0, 0
0, 0
0, 0
0, 0
0, 0
0, 0
0, 0
0, 0
0, 0
0, 0
0, 0
0, 0
0, 0
0, 0
0, 0
0, 0
0, 0
0, 0
0, 0
0, 0
0, 0
0, 0
0, 0
0, 0
0, 0
0, 0
0, 0
0, 0
0, 0
0, 0
0, 0
0, 0
0, 0
0, 0
0, 0
0, 0
0, 0
0, 0
0, 0
0, 0
0, 0
0, 0
0, 0
0, 0
0, 0
0, 0
0, 0
0, 0
0, 0
0, 0
0, 0
0, 0
0, 0
0, 0
0, 0
0, 0
0, 0
0, 0
0, 0
0, 0
0, 0
0, 0
0, 0
0, 0
0, 0
0, 0
0, 0
0, 0
0, 0
0, 0
0, 0
0, 0
0, 0
0, 0
0, 0
0, 0
0, 0
0, 0
0, 0
0, 0
0, 0
0, 0
0, 0
0, 0
0, 0
0, 0
0, 0
0, 0
0, 0
0, 0
0, 0
0, 0
0, 0
0, 0
0, 0
0, 0
0, 0
0, 0
0, 0
0, 0
0, 0
0, 0
0, 0
0, 0
0, 0
0, 0
0, 0
0, 0
0, 0
0, 0
0, 0
0, 0
0, 0
0, 0
0, 0
0, 0
0, 0
0, 0
0, 0
0, 0
0, 0
0, 0
0, 0
0, 0
0, 0
0, 0
0, 0
0, 0
0, 0
0, 0
0, 0
0, 0
0, 0
0, 0
0, 0
0, 0
0, 0
0, 0
0, 0
0, 0
0, 0
0, 0
0, 0
0, 0
0, 0
0, 0
0, 0
0, 0
0, 0
0, 0
0, 0
0, 0
0, 0
0, 0
0, 0
0, 0
0, 0
0, 0
0, 0
0, 0
0, 0
0, 0
0, 0
0, 0
0, 0
0, 0
0, 0
#ENDOFDATA     end of spectrum data