File: host_upload/02-11-2024/rqc/uplink1/ps__0567_0717304816_000rfs_shot_19.msa
#FORMAT      : EMSA/MAS spectral data file
#VERSION     : TC202v2.0 PIXL
#TITLE       : Novarupta (sol567) subset1
#DATE        : 02-11-2024      Date in the format DD-MMM-YYYY, for example 07-JUL-2010
#TIME        :             The time of day at which the spectrum was recorded, in 24-hour format
#OWNER       : PIXL Flight Model       (PIXL will use this to indicate which instrument took the data.)
#NPOINTS     : 4096     Number of data points in the spectrum (This can be zero for configuration only files)
#NCOLUMNS    : 2     Number of data columns in the spectrum (This can be zero for configuration only files)
#XUNITS      : eV
#YUNITS      : COUNTS
#DATATYPE    : YY
#XPERCHAN    : 7.862, 7.881   eV per channel (separate by commas if more than one detector)
#OFFSET      : 18.5, -22.4         eV of first channel  (separate by commas if more than one detector
#SIGNALTYPE  : XRF
#YP_TEMP     : -4.243
#LIVETIME    : 8.84589, 8.82829   seconds (separate by commas if more than one detector)
#REALTIME    : 10, 10.0   seconds (separate by commas if more than one detector)
#SPECTRUM    : start of spectrum data
0, 0
0, 0
0, 0
0, 0
0, 0
0, 0
0, 0
0, 0
0, 0
0, 0
0, 0
0, 0
0, 0
0, 0
0, 0
0, 0
0, 0
0, 0
0, 0
0, 0
0, 0
0, 0
0, 0
0, 0
0, 0
0, 0
0, 0
0, 0
0, 0
0, 0
0, 0
0, 0
0, 0
1, 0
2, 2
0, 3
3, 0
3, 2
1, 3
4, 4
2, 4
3, 7
6, 2
1, 10
2, 6
2, 5
2, 5
5, 2
4, 3
5, 9
9, 11
9, 10
14, 10
18, 16
16, 16
18, 17
14, 12
18, 11
10, 9
11, 19
15, 23
31, 29
32, 33
54, 33
50, 58
46, 59
48, 38
37, 37
54, 52
91, 79
145, 141
243, 232
315, 331
457, 395
501, 500
458, 442
398, 407
317, 310
212, 198
127, 99
96, 62
62, 47
38, 29
28, 35
28, 33
31, 27
32, 27
21, 34
22, 29
24, 17
20, 13
23, 21
38, 49
62, 54
111, 94
138, 169
227, 226
271, 269
270, 308
284, 313
234, 225
190, 172
146, 127
87, 81
85, 72
51, 70
60, 63
77, 84
102, 121
149, 157
187, 189
225, 209
210, 234
210, 207
193, 157
164, 144
128, 139
91, 103
84, 79
86, 92
88, 66
74, 69
58, 67
55, 41
35, 32
31, 36
27, 19
21, 9
17, 21
15, 20
8, 8
3, 3
8, 6
5, 10
7, 9
9, 4
12, 11
13, 16
24, 17
21, 29
20, 25
26, 32
22, 25
27, 26
10, 22
16, 10
12, 6
15, 10
29, 10
22, 29
49, 52
75, 86
143, 139
183, 211
247, 268
312, 326
394, 390
368, 347
331, 332
245, 222
199, 171
119, 119
93, 74
52, 57
39, 30
33, 25
39, 34
31, 39
44, 41
56, 56
57, 55
59, 47
59, 57
39, 37
37, 38
19, 18
13, 12
13, 14
11, 9
6, 7
9, 11
7, 11
9, 6
14, 16
15, 8
14, 21
22, 27
29, 36
38, 54
53, 50
53, 56
49, 53
66, 64
50, 53
32, 45
35, 42
31, 27
22, 27
22, 21
10, 13
15, 18
9, 13
13, 11
8, 18
13, 14
18, 15
20, 14
18, 14
20, 17
23, 13
19, 15
17, 19
13, 22
16, 21
16, 14
13, 14
14, 6
20, 13
9, 17
13, 14
11, 12
14, 24
8, 13
15, 14
21, 17
10, 22
29, 27
30, 25
22, 38
28, 30
24, 28
27, 29
16, 24
21, 23
14, 19
22, 13
14, 16
16, 13
11, 15
13, 19
10, 17
15, 14
12, 19
16, 15
24, 30
26, 23
26, 29
29, 38
47, 44
46, 57
56, 50
43, 49
38, 48
33, 29
28, 39
15, 28
16, 24
27, 19
17, 21
16, 24
35, 38
62, 62
71, 93
120, 181
245, 278
435, 512
638, 774
928, 1027
1114, 1351
1450, 1654
1574, 1740
1695, 1708
1570, 1664
1359, 1385
1073, 1091
803, 777
609, 513
336, 301
241, 196
118, 114
82, 65
36, 37
28, 17
22, 20
28, 17
10, 29
12, 21
15, 17
19, 16
13, 29
34, 24
52, 61
47, 66
91, 113
132, 166
177, 186
217, 229
225, 255
234, 267
250, 256
243, 271
181, 178
172, 163
147, 103
77, 80
70, 39
36, 25
16, 23
10, 9
7, 11
9, 7
4, 6
9, 12
14, 13
8, 16
13, 15
14, 13
11, 6
7, 11
12, 10
4, 8
6, 14
9, 6
15, 6
3, 8
9, 11
6, 2
5, 8
3, 11
9, 9
6, 8
2, 5
7, 10
2, 4
4, 5
2, 9
8, 7
7, 9
7, 7
8, 8
5, 8
6, 6
13, 12
7, 5
7, 9
6, 3
7, 7
10, 11
4, 10
7, 8
5, 3
3, 5
6, 7
9, 2
8, 3
6, 5
5, 5
9, 6
7, 10
4, 9
3, 4
4, 10
8, 15
11, 8
5, 10
10, 7
3, 13
9, 10
17, 11
4, 7
11, 8
4, 7
6, 3
7, 2
7, 6
9, 11
7, 2
4, 12
6, 7
7, 1
9, 5
4, 4
5, 6
1, 0
4, 10
8, 5
13, 5
5, 7
2, 7
5, 3
1, 7
5, 1
5, 8
3, 1
6, 7
10, 3
4, 3
5, 5
6, 5
4, 5
5, 2
11, 5
7, 5
3, 5
7, 4
5, 5
3, 6
3, 1
5, 3
4, 5
3, 4
3, 3
6, 5
5, 4
4, 8
3, 2
2, 4
2, 3
9, 5
4, 4
5, 6
6, 5
4, 1
4, 3
6, 5
4, 2
3, 5
6, 5
3, 4
6, 2
2, 4
6, 2
3, 4
2, 3
7, 6
0, 4
3, 2
2, 4
1, 3
6, 11
3, 5
3, 0
4, 3
2, 3
3, 7
5, 3
3, 3
4, 6
3, 4
3, 5
3, 6
8, 2
2, 2
3, 5
3, 4
3, 4
1, 2
9, 6
3, 4
5, 1
8, 2
3, 2
3, 4
2, 3
0, 4
3, 0
4, 5
6, 1
3, 3
4, 5
2, 1
0, 4
6, 5
1, 2
7, 1
1, 1
6, 2
2, 1
2, 2
5, 1
4, 0
1, 0
3, 3
4, 1
3, 4
2, 0
1, 2
3, 3
3, 3
3, 1
4, 4
3, 2
0, 2
2, 2
1, 5
3, 3
2, 3
0, 3
2, 1
4, 3
0, 0
1, 5
2, 4
2, 3
3, 2
0, 3
4, 4
3, 2
3, 0
2, 2
4, 4
5, 0
3, 2
1, 3
2, 3
5, 3
4, 1
1, 2
1, 6
2, 1
1, 1
2, 1
2, 3
3, 3
1, 2
4, 1
4, 2
3, 4
1, 3
2, 2
2, 0
2, 1
2, 2
1, 2
0, 3
2, 1
2, 2
4, 3
6, 2
4, 3
7, 2
1, 6
1, 2
1, 2
3, 1
2, 0
2, 0
3, 2
1, 4
1, 1
2, 1
1, 4
0, 1
1, 1
1, 2
1, 1
1, 1
2, 3
5, 4
0, 1
2, 2
1, 2
1, 0
1, 0
1, 1
3, 6
2, 4
1, 0
0, 1
2, 3
2, 2
5, 1
2, 3
1, 0
1, 2
0, 1
1, 2
0, 1
1, 0
1, 0
1, 2
0, 2
1, 1
1, 0
3, 1
2, 1
2, 1
1, 1
2, 0
0, 1
1, 0
1, 2
1, 2
0, 0
2, 0
1, 0
0, 1
1, 2
1, 0
2, 2
1, 0
3, 0
2, 1
1, 1
0, 0
2, 1
4, 0
0, 1
1, 0
1, 1
2, 2
0, 3
1, 1
0, 2
0, 1
2, 3
0, 0
0, 0
0, 0
0, 0
0, 0
0, 0
1, 0
1, 0
0, 1
2, 0
1, 0
1, 0
1, 0
1, 0
0, 1
1, 0
1, 1
2, 1
0, 0
0, 1
0, 0
1, 1
0, 0
1, 0
2, 1
0, 0
2, 0
0, 1
0, 0
2, 1
0, 0
0, 0
0, 0
0, 1
0, 0
0, 1
0, 3
1, 1
1, 0
2, 0
0, 1
0, 0
0, 0
0, 1
0, 0
0, 0
1, 0
0, 1
2, 1
0, 1
0, 1
1, 1
0, 0
0, 1
0, 0
0, 0
1, 0
0, 0
0, 1
0, 1
0, 1
0, 0
0, 0
0, 1
0, 0
0, 0
1, 0
0, 0
0, 0
1, 0
0, 2
1, 3
1, 0
1, 0
0, 0
0, 2
0, 1
1, 0
0, 0
1, 0
0, 2
0, 0
0, 2
0, 0
0, 2
0, 1
0, 1
1, 1
1, 0
0, 0
0, 1
1, 1
0, 1
0, 0
1, 0
1, 0
0, 2
0, 0
0, 0
0, 0
0, 1
1, 1
0, 0
0, 1
0, 0
2, 1
1, 1
0, 0
0, 0
0, 1
1, 0
1, 0
1, 1
1, 0
0, 0
1, 2
0, 0
0, 1
0, 0
0, 1
1, 0
0, 1
0, 0
0, 0
0, 0
0, 2
0, 0
0, 0
0, 1
1, 0
0, 3
1, 1
0, 0
0, 0
0, 2
0, 1
0, 0
0, 0
0, 0
0, 2
0, 0
1, 0
0, 0
0, 0
0, 0
0, 0
0, 0
0, 1
0, 1
0, 0
1, 0
0, 0
0, 0
0, 0
0, 0
0, 0
0, 0
0, 0
1, 0
0, 0
0, 0
0, 0
0, 0
0, 0
0, 1
0, 0
1, 0
1, 0
0, 0
0, 0
0, 1
0, 0
0, 3
1, 2
0, 1
0, 0
1, 0
0, 0
0, 0
0, 1
0, 1
0, 0
0, 0
0, 0
0, 0
1, 0
0, 0
0, 0
0, 0
0, 1
0, 0
0, 1
0, 0
0, 1
0, 0
0, 1
0, 0
0, 0
0, 0
0, 0
0, 0
0, 0
0, 0
0, 0
1, 0
0, 1
0, 0
0, 0
0, 0
0, 0
0, 0
0, 0
0, 0
0, 0
0, 1
0, 0
0, 0
0, 0
1, 0
0, 0
0, 0
0, 0
0, 1
0, 0
0, 0
0, 0
0, 0
0, 0
0, 0
0, 0
0, 0
0, 0
0, 0
0, 1
0, 0
1, 0
0, 1
0, 0
1, 0
0, 0
1, 0
1, 0
0, 0
0, 0
0, 0
0, 0
0, 0
0, 0
0, 0
0, 0
0, 0
1, 0
0, 0
0, 0
0, 1
0, 0
0, 0
0, 0
0, 0
0, 0
0, 1
0, 0
0, 0
0, 0
0, 0
0, 0
0, 0
1, 0
0, 0
0, 0
0, 0
0, 1
0, 0
0, 0
0, 0
0, 0
0, 0
0, 0
0, 0
0, 0
0, 0
0, 1
0, 0
0, 0
0, 0
0, 0
0, 0
0, 0
0, 0
0, 1
0, 0
0, 0
0, 0
0, 0
0, 0
0, 0
0, 0
0, 0
0, 0
0, 0
0, 0
0, 1
0, 0
0, 0
0, 0
0, 0
0, 0
0, 0
0, 0
0, 0
0, 0
0, 0
0, 0
0, 0
0, 0
0, 0
0, 0
0, 0
0, 0
0, 0
0, 0
0, 0
0, 0
0, 0
0, 0
0, 0
0, 0
0, 0
0, 0
0, 0
0, 0
0, 0
0, 0
0, 0
0, 0
0, 0
0, 0
0, 0
0, 0
0, 0
0, 0
0, 0
1, 1
0, 0
0, 0
0, 0
1, 0
0, 0
0, 0
0, 0
0, 0
0, 0
0, 0
0, 0
0, 0
0, 0
0, 0
0, 0
0, 0
0, 0
0, 0
0, 0
0, 0
0, 0
0, 0
0, 0
0, 0
0, 1
0, 0
0, 0
0, 0
1, 0
0, 0
0, 0
0, 0
0, 0
0, 0
0, 0
0, 0
0, 0
0, 0
0, 0
0, 0
0, 0
0, 0
0, 0
0, 0
0, 0
0, 0
0, 0
0, 0
0, 0
0, 0
0, 0
0, 0
0, 0
0, 0
0, 0
0, 0
0, 0
0, 0
0, 0
0, 0
0, 0
0, 0
0, 0
0, 0
0, 0
0, 0
0, 0
0, 0
0, 0
0, 0
0, 0
0, 0
0, 0
0, 0
0, 0
0, 0
0, 0
0, 0
0, 0
0, 0
0, 0
0, 0
0, 0
0, 0
0, 0
0, 0
0, 0
0, 0
0, 0
0, 0
0, 0
0, 0
0, 0
0, 0
0, 0
0, 0
0, 0
0, 0
0, 0
0, 0
0, 0
0, 0
0, 0
0, 0
0, 0
0, 0
0, 0
0, 0
0, 0
0, 0
0, 0
0, 0
0, 0
0, 0
0, 0
0, 0
0, 0
0, 0
0, 0
0, 0
0, 0
0, 0
0, 0
0, 0
0, 0
0, 0
0, 0
0, 0
0, 0
0, 0
0, 0
0, 0
0, 0
0, 0
0, 0
0, 0
0, 0
0, 0
0, 0
0, 0
0, 0
0, 0
0, 0
0, 0
0, 0
0, 0
0, 0
0, 0
0, 0
0, 0
0, 0
0, 0
0, 0
0, 0
0, 0
0, 0
0, 0
0, 0
0, 0
0, 0
0, 0
0, 0
0, 0
0, 0
0, 0
0, 0
0, 0
0, 0
0, 0
0, 0
0, 0
0, 0
0, 0
0, 0
0, 0
0, 0
0, 0
0, 0
0, 0
0, 0
0, 0
0, 0
0, 0
0, 0
0, 0
0, 0
0, 0
0, 0
0, 0
0, 0
0, 0
0, 0
0, 0
0, 0
0, 0
0, 0
0, 0
0, 0
0, 0
0, 0
0, 0
0, 0
0, 0
0, 0
0, 0
0, 0
0, 0
0, 0
0, 0
0, 0
0, 0
0, 0
0, 0
0, 0
0, 0
0, 0
0, 0
0, 0
0, 0
0, 0
0, 0
0, 0
0, 0
0, 0
0, 0
0, 0
0, 0
0, 0
0, 0
0, 0
0, 0
0, 0
0, 0
0, 0
0, 0
0, 0
0, 0
0, 0
0, 0
0, 0
0, 0
0, 0
0, 0
0, 0
0, 0
0, 0
0, 0
0, 0
0, 0
0, 0
0, 0
0, 0
0, 0
0, 0
0, 0
0, 0
0, 0
0, 0
0, 0
0, 0
0, 0
0, 0
0, 0
0, 0
0, 0
0, 0
0, 0
0, 0
0, 0
0, 0
0, 0
0, 0
0, 0
0, 0
0, 0
0, 0
0, 0
0, 0
0, 0
0, 0
0, 0
0, 0
0, 0
0, 0
0, 0
0, 0
0, 0
0, 0
0, 0
0, 0
0, 0
0, 0
0, 0
0, 0
0, 0
0, 0
0, 0
0, 0
0, 0
0, 0
0, 0
0, 0
0, 0
0, 0
0, 0
0, 0
0, 0
0, 0
0, 0
0, 0
0, 0
0, 0
0, 0
0, 0
0, 0
0, 0
0, 0
0, 0
0, 0
0, 0
0, 0
0, 0
0, 0
0, 0
0, 0
0, 0
0, 0
0, 0
0, 0
0, 0
0, 0
0, 0
0, 0
0, 0
0, 0
0, 0
0, 0
0, 0
0, 0
0, 0
0, 0
0, 0
0, 0
0, 0
0, 0
0, 0
0, 0
0, 0
0, 0
0, 0
0, 0
0, 0
0, 0
0, 0
0, 0
0, 0
0, 0
0, 0
0, 0
0, 0
0, 0
0, 0
0, 0
0, 0
0, 0
0, 0
0, 0
0, 0
0, 0
0, 0
0, 0
0, 0
0, 0
0, 0
0, 0
0, 0
0, 0
0, 0
0, 0
0, 0
0, 0
0, 0
0, 0
0, 0
0, 0
0, 0
0, 0
0, 0
0, 0
0, 0
0, 0
0, 0
0, 0
0, 0
0, 0
0, 0
0, 0
0, 0
0, 0
0, 0
0, 0
0, 0
0, 0
0, 0
0, 0
0, 0
0, 0
#ENDOFDATA     end of spectrum data