File: host_upload/02-11-2024/rqc/uplink1/ps__0567_0717304816_000rfs_shot_161.msa
#FORMAT      : EMSA/MAS spectral data file
#VERSION     : TC202v2.0 PIXL
#TITLE       : Novarupta (sol567) subset1
#DATE        : 02-11-2024      Date in the format DD-MMM-YYYY, for example 07-JUL-2010
#TIME        :             The time of day at which the spectrum was recorded, in 24-hour format
#OWNER       : PIXL Flight Model       (PIXL will use this to indicate which instrument took the data.)
#NPOINTS     : 4096     Number of data points in the spectrum (This can be zero for configuration only files)
#NCOLUMNS    : 2     Number of data columns in the spectrum (This can be zero for configuration only files)
#XUNITS      : eV
#YUNITS      : COUNTS
#DATATYPE    : YY
#XPERCHAN    : 7.862, 7.881   eV per channel (separate by commas if more than one detector)
#OFFSET      : 18.5, -22.4         eV of first channel  (separate by commas if more than one detector
#SIGNALTYPE  : XRF
#YP_TEMP     : -0.17
#LIVETIME    : 8.82464, 8.82009   seconds (separate by commas if more than one detector)
#REALTIME    : 10, 10.0   seconds (separate by commas if more than one detector)
#SPECTRUM    : start of spectrum data
0, 0
0, 0
0, 0
0, 0
0, 0
0, 0
0, 0
0, 0
0, 0
0, 0
0, 0
0, 0
0, 0
0, 0
0, 0
0, 0
0, 0
0, 0
0, 0
0, 0
0, 0
0, 0
0, 0
0, 0
0, 0
0, 0
0, 0
0, 0
0, 0
0, 0
0, 0
0, 1
0, 0
0, 0
1, 2
2, 2
4, 8
3, 5
2, 0
1, 11
2, 3
5, 6
0, 2
3, 3
4, 1
2, 4
5, 5
4, 3
3, 5
5, 2
3, 3
8, 4
11, 11
16, 16
18, 17
12, 21
14, 9
13, 10
6, 7
10, 11
20, 12
22, 26
30, 40
45, 54
42, 44
55, 53
33, 42
32, 40
38, 52
65, 68
124, 133
181, 237
321, 367
409, 453
483, 535
532, 486
395, 444
325, 362
238, 220
138, 127
96, 92
50, 46
31, 44
29, 26
28, 26
29, 41
35, 24
18, 35
28, 29
23, 30
17, 14
17, 24
24, 23
42, 43
66, 88
126, 144
206, 251
254, 289
289, 341
303, 286
236, 284
237, 207
149, 142
115, 96
72, 65
61, 45
47, 55
72, 66
87, 110
136, 128
157, 180
218, 201
197, 269
226, 237
198, 190
153, 161
109, 141
123, 92
82, 78
80, 100
91, 89
70, 69
73, 62
58, 63
41, 28
44, 36
29, 28
26, 29
18, 19
16, 13
17, 12
7, 14
13, 9
10, 5
10, 5
12, 9
13, 6
12, 12
28, 17
29, 23
28, 34
26, 26
24, 29
22, 23
22, 35
12, 16
9, 15
13, 12
17, 12
10, 19
34, 34
54, 53
81, 126
140, 153
240, 253
287, 328
325, 386
375, 395
358, 352
303, 281
238, 236
179, 166
113, 97
61, 49
43, 28
28, 35
35, 25
32, 31
32, 40
58, 58
56, 55
58, 73
59, 52
39, 48
35, 47
23, 24
15, 21
13, 13
10, 11
8, 8
4, 7
11, 13
7, 11
9, 15
12, 6
13, 12
20, 13
21, 34
39, 41
41, 46
47, 63
47, 66
52, 82
62, 55
50, 59
54, 46
39, 35
27, 36
9, 33
19, 16
22, 17
13, 16
12, 9
12, 11
15, 13
11, 6
14, 12
14, 23
12, 17
19, 20
19, 12
15, 20
17, 14
7, 16
10, 9
13, 9
6, 16
19, 9
11, 13
8, 7
6, 15
7, 15
9, 13
14, 19
13, 14
19, 15
15, 21
18, 31
22, 31
26, 36
39, 29
26, 28
33, 30
25, 28
18, 15
33, 21
18, 10
7, 10
15, 15
12, 14
17, 10
10, 11
15, 9
16, 19
23, 20
21, 20
28, 30
44, 25
48, 46
52, 35
57, 59
56, 49
57, 47
37, 32
37, 38
27, 32
14, 24
37, 28
22, 29
17, 19
16, 22
17, 27
45, 41
94, 84
144, 174
228, 312
426, 461
646, 801
912, 1130
1281, 1429
1552, 1686
1711, 1835
1826, 1919
1735, 1704
1454, 1494
1153, 1103
868, 759
558, 500
384, 286
212, 174
89, 97
67, 48
24, 34
36, 22
22, 17
22, 16
14, 9
28, 10
19, 16
19, 11
27, 18
27, 47
39, 49
67, 75
87, 106
115, 144
147, 194
232, 228
262, 286
273, 306
273, 281
238, 253
185, 225
184, 166
121, 126
93, 77
59, 44
38, 28
19, 21
17, 12
9, 17
7, 9
5, 7
13, 9
7, 17
15, 13
11, 12
15, 14
16, 9
7, 10
11, 11
6, 11
6, 13
7, 5
7, 8
7, 6
5, 7
6, 10
5, 9
10, 13
6, 7
7, 6
6, 5
5, 5
8, 4
12, 9
4, 6
5, 6
6, 10
9, 6
7, 3
7, 11
7, 6
11, 4
5, 8
4, 8
7, 6
9, 7
7, 4
10, 8
6, 8
4, 8
10, 7
8, 6
9, 8
7, 7
8, 9
5, 2
3, 3
5, 3
8, 7
8, 5
5, 8
8, 8
8, 10
11, 16
11, 8
9, 8
9, 7
11, 13
13, 10
4, 9
2, 7
17, 7
10, 9
13, 7
11, 4
9, 8
10, 7
6, 7
9, 6
7, 7
10, 3
7, 7
7, 6
3, 6
9, 1
6, 8
5, 5
5, 7
5, 5
5, 4
6, 4
5, 7
9, 4
5, 9
5, 6
5, 8
6, 4
3, 3
7, 3
7, 3
5, 5
2, 3
3, 9
5, 11
7, 8
5, 4
4, 1
7, 9
2, 8
4, 6
5, 8
7, 4
2, 1
3, 7
1, 4
4, 7
4, 4
5, 3
6, 7
3, 7
5, 3
5, 9
5, 4
2, 6
5, 3
1, 6
3, 3
1, 9
5, 3
3, 3
6, 2
1, 6
2, 4
2, 4
1, 4
5, 5
5, 2
2, 4
6, 2
3, 0
4, 2
5, 4
2, 1
6, 3
1, 10
2, 2
2, 2
4, 4
2, 2
7, 7
4, 0
5, 5
1, 2
8, 2
2, 3
8, 3
2, 4
2, 7
2, 3
1, 0
3, 5
0, 2
5, 3
2, 2
3, 2
1, 6
5, 5
6, 4
3, 4
0, 5
4, 4
1, 1
0, 6
2, 4
4, 4
3, 0
2, 4
4, 0
4, 2
0, 3
3, 2
4, 5
4, 7
3, 0
4, 2
3, 1
5, 0
2, 1
1, 3
3, 4
2, 2
2, 3
3, 6
1, 4
2, 1
0, 3
1, 4
1, 1
3, 4
0, 6
2, 3
0, 1
4, 6
3, 3
1, 3
2, 5
1, 6
3, 3
2, 3
4, 1
0, 4
3, 2
0, 2
2, 0
2, 2
2, 1
5, 3
4, 0
3, 2
2, 1
2, 1
1, 1
5, 3
1, 6
0, 0
0, 0
0, 2
3, 1
1, 6
0, 0
2, 3
2, 3
2, 2
3, 0
4, 0
5, 1
2, 3
2, 3
4, 5
5, 4
3, 4
2, 7
1, 3
1, 2
4, 2
0, 0
3, 0
2, 3
2, 0
3, 0
0, 2
1, 3
2, 4
2, 3
1, 2
0, 1
1, 1
0, 2
1, 2
0, 1
1, 0
1, 2
3, 1
0, 1
3, 1
3, 3
1, 0
0, 2
4, 2
0, 1
0, 2
1, 0
3, 2
1, 2
0, 1
3, 2
2, 2
0, 0
2, 0
0, 3
1, 0
2, 0
1, 3
1, 2
1, 0
4, 0
2, 0
3, 1
0, 1
0, 0
2, 2
2, 3
0, 1
1, 1
2, 1
1, 0
0, 1
1, 1
2, 1
1, 3
0, 2
1, 2
1, 2
0, 2
0, 1
1, 0
1, 1
1, 0
1, 1
1, 3
2, 1
1, 1
0, 2
0, 0
1, 1
1, 0
2, 1
1, 1
0, 1
2, 3
1, 1
1, 0
2, 4
0, 2
0, 0
1, 0
0, 1
0, 1
0, 3
0, 1
1, 0
1, 2
0, 0
1, 1
0, 0
1, 0
1, 0
0, 0
2, 1
2, 0
2, 2
1, 1
0, 1
1, 1
0, 0
0, 0
0, 2
0, 2
0, 0
2, 0
1, 1
0, 0
1, 0
0, 1
2, 0
0, 4
0, 0
1, 0
2, 0
1, 0
1, 0
0, 1
1, 0
1, 1
0, 0
0, 0
0, 1
0, 1
2, 1
1, 0
1, 1
0, 0
0, 0
1, 1
0, 2
0, 2
0, 0
2, 2
1, 0
0, 1
0, 1
1, 1
1, 1
0, 0
0, 1
0, 0
1, 0
0, 3
0, 0
1, 0
2, 1
1, 0
0, 0
0, 0
1, 0
0, 0
0, 1
0, 0
0, 0
2, 0
0, 1
1, 1
1, 1
0, 2
1, 0
0, 0
1, 0
0, 0
0, 0
0, 0
0, 0
1, 0
0, 0
0, 0
2, 0
0, 0
0, 0
0, 0
0, 0
1, 0
0, 0
1, 0
0, 2
0, 0
0, 0
2, 0
0, 0
0, 0
0, 0
2, 0
1, 0
0, 1
0, 0
0, 0
0, 0
1, 0
1, 0
0, 0
0, 2
0, 0
0, 0
0, 0
0, 1
1, 1
0, 0
2, 0
0, 0
1, 0
1, 0
1, 0
1, 0
0, 1
0, 1
0, 0
0, 0
0, 1
0, 0
0, 0
1, 0
1, 0
0, 0
0, 1
1, 0
0, 0
0, 0
0, 0
1, 0
0, 0
0, 0
0, 0
0, 0
0, 0
1, 1
0, 0
0, 0
0, 2
0, 0
0, 0
0, 0
0, 0
1, 0
0, 0
1, 0
0, 0
0, 0
0, 0
0, 1
0, 0
0, 1
0, 0
0, 0
0, 0
0, 0
0, 0
1, 0
0, 1
1, 1
0, 0
0, 0
0, 0
0, 0
0, 1
0, 0
0, 0
0, 1
1, 0
0, 0
1, 0
0, 0
0, 0
0, 0
0, 3
0, 0
0, 0
0, 0
0, 0
1, 0
1, 0
1, 0
0, 0
0, 0
0, 0
1, 0
0, 0
0, 0
0, 0
0, 1
0, 0
0, 0
0, 0
0, 0
0, 0
0, 0
0, 0
1, 1
0, 0
0, 0
0, 0
0, 1
0, 0
0, 0
0, 0
0, 0
0, 0
0, 1
0, 0
0, 0
1, 0
0, 0
0, 0
1, 1
0, 0
0, 0
0, 0
0, 0
0, 0
0, 0
1, 0
1, 0
0, 0
0, 0
0, 0
0, 0
0, 0
0, 1
0, 0
0, 0
0, 0
1, 1
0, 0
0, 0
0, 0
0, 0
0, 0
0, 0
0, 0
0, 0
0, 0
0, 0
0, 0
0, 0
0, 0
0, 0
0, 0
0, 0
0, 0
0, 0
0, 0
0, 0
0, 0
0, 0
0, 0
0, 0
0, 0
0, 0
0, 1
1, 0
0, 0
0, 0
0, 0
0, 0
1, 0
0, 0
0, 0
0, 0
0, 0
0, 0
0, 0
0, 0
0, 0
0, 0
0, 1
0, 0
0, 0
0, 1
0, 1
0, 0
0, 0
0, 0
0, 0
0, 1
0, 0
0, 0
0, 0
0, 0
0, 0
0, 0
0, 0
0, 0
1, 0
0, 0
0, 0
1, 0
0, 0
0, 0
0, 0
0, 0
0, 0
0, 0
0, 0
0, 0
0, 0
0, 0
0, 0
0, 0
0, 0
0, 0
0, 0
0, 0
0, 0
0, 0
0, 0
0, 0
0, 0
0, 0
0, 0
0, 0
0, 0
0, 0
0, 0
0, 0
0, 0
0, 0
0, 0
0, 0
0, 0
0, 0
0, 0
0, 0
0, 0
0, 0
0, 0
0, 0
0, 0
0, 0
0, 0
0, 0
0, 0
0, 0
0, 0
0, 0
0, 0
0, 0
0, 0
0, 0
0, 0
0, 0
0, 0
1, 0
0, 0
0, 0
0, 0
0, 0
0, 0
0, 0
0, 0
0, 0
0, 0
0, 0
0, 0
1, 0
0, 1
0, 0
0, 0
1, 0
0, 0
0, 0
0, 0
0, 0
0, 0
0, 0
0, 0
0, 0
0, 0
0, 0
0, 0
0, 0
0, 0
0, 0
0, 0
0, 0
0, 0
0, 0
0, 0
0, 0
0, 0
0, 0
0, 0
0, 0
0, 0
0, 0
0, 0
0, 0
0, 0
0, 0
0, 0
0, 0
0, 0
0, 0
0, 0
0, 0
0, 0
0, 0
0, 0
0, 0
0, 0
0, 0
0, 0
0, 0
0, 0
0, 0
0, 0
0, 0
0, 0
0, 0
0, 0
0, 0
0, 0
0, 0
0, 0
0, 0
0, 0
0, 0
0, 0
0, 0
0, 0
0, 0
0, 0
0, 0
0, 0
0, 0
0, 0
0, 0
0, 0
0, 0
0, 0
0, 0
0, 0
0, 0
0, 0
0, 0
0, 0
0, 0
0, 0
0, 0
0, 0
0, 0
0, 0
0, 0
0, 0
0, 0
0, 0
0, 0
0, 0
0, 0
0, 0
0, 0
0, 0
0, 0
0, 0
0, 0
0, 0
0, 0
0, 0
0, 0
0, 0
0, 0
0, 0
0, 0
0, 0
0, 0
0, 0
0, 0
0, 0
0, 0
0, 0
0, 0
0, 0
0, 0
0, 0
0, 0
0, 0
0, 0
0, 0
0, 0
0, 0
0, 0
0, 0
0, 0
0, 0
0, 0
0, 0
0, 0
0, 0
0, 0
0, 0
0, 0
0, 0
0, 0
0, 0
0, 0
0, 0
0, 0
0, 0
0, 0
0, 0
0, 0
0, 0
0, 0
0, 0
0, 0
0, 0
0, 0
0, 0
0, 0
0, 0
0, 0
0, 0
0, 0
0, 0
0, 0
0, 0
0, 0
0, 0
0, 0
0, 0
0, 0
0, 0
0, 0
0, 0
0, 0
0, 0
0, 0
0, 0
0, 0
0, 0
0, 0
0, 0
0, 0
0, 0
0, 0
0, 0
0, 0
0, 0
0, 0
0, 0
0, 0
0, 0
0, 0
0, 0
0, 0
0, 0
0, 0
0, 0
0, 0
0, 0
0, 0
0, 0
0, 0
0, 0
0, 0
0, 0
0, 0
0, 0
0, 0
0, 0
0, 0
0, 0
0, 0
0, 0
0, 0
0, 0
0, 0
0, 0
0, 0
0, 0
0, 0
0, 0
0, 0
0, 0
0, 0
0, 0
0, 0
0, 0
0, 0
0, 0
0, 0
0, 0
0, 0
0, 0
0, 0
0, 0
0, 0
0, 0
0, 0
0, 0
0, 0
0, 0
0, 0
0, 0
0, 0
0, 0
0, 0
0, 0
0, 0
0, 0
0, 0
0, 0
0, 0
0, 0
0, 0
0, 0
0, 0
0, 0
0, 0
0, 0
0, 0
0, 0
0, 0
0, 0
0, 0
0, 0
0, 0
0, 0
0, 0
0, 0
0, 0
0, 0
0, 0
0, 0
0, 0
0, 0
0, 0
0, 0
0, 0
0, 0
0, 0
0, 0
0, 0
0, 0
0, 0
0, 0
0, 0
0, 0
0, 0
0, 0
0, 0
0, 0
0, 0
0, 0
0, 0
0, 0
0, 0
0, 0
0, 0
0, 0
0, 0
0, 0
0, 0
0, 0
0, 0
0, 0
0, 0
0, 0
0, 0
0, 0
0, 0
0, 0
0, 0
0, 0
0, 0
0, 0
0, 0
0, 0
0, 0
0, 0
0, 0
0, 0
0, 0
0, 0
0, 0
0, 0
0, 0
0, 0
0, 0
0, 0
0, 0
0, 0
0, 0
0, 0
0, 0
0, 0
0, 0
0, 0
0, 0
0, 0
0, 0
0, 0
0, 0
0, 0
0, 0
0, 0
0, 0
0, 0
0, 0
0, 0
0, 0
0, 0
0, 0
0, 0
0, 0
0, 0
0, 0
0, 0
0, 0
0, 0
0, 0
0, 0
0, 0
0, 0
0, 0
0, 0
0, 0
0, 0
#ENDOFDATA     end of spectrum data