File: host_upload/02-11-2024/rqc/uplink1/ps__0567_0717304816_000rfs_shot_338.msa
#FORMAT      : EMSA/MAS spectral data file
#VERSION     : TC202v2.0 PIXL
#TITLE       : Novarupta (sol567) subset1
#DATE        : 02-11-2024      Date in the format DD-MMM-YYYY, for example 07-JUL-2010
#TIME        :             The time of day at which the spectrum was recorded, in 24-hour format
#OWNER       : PIXL Flight Model       (PIXL will use this to indicate which instrument took the data.)
#NPOINTS     : 4096     Number of data points in the spectrum (This can be zero for configuration only files)
#NCOLUMNS    : 2     Number of data columns in the spectrum (This can be zero for configuration only files)
#XUNITS      : eV
#YUNITS      : COUNTS
#DATATYPE    : YY
#XPERCHAN    : 7.862, 7.881   eV per channel (separate by commas if more than one detector)
#OFFSET      : 18.5, -22.4         eV of first channel  (separate by commas if more than one detector
#SIGNALTYPE  : XRF
#YP_TEMP     : 1.658
#LIVETIME    : 8.84776, 8.63567   seconds (separate by commas if more than one detector)
#REALTIME    : 10, 10.0   seconds (separate by commas if more than one detector)
#SPECTRUM    : start of spectrum data
0, 0
0, 0
0, 0
0, 0
0, 0
0, 0
0, 0
0, 0
0, 0
0, 0
0, 0
0, 0
0, 0
0, 0
0, 0
0, 0
0, 0
0, 0
0, 0
0, 0
0, 0
0, 0
0, 0
0, 0
0, 0
0, 0
0, 0
0, 0
0, 0
0, 0
0, 0
0, 0
1, 0
0, 1
1, 3
1, 1
1, 1
4, 2
5, 4
1, 1
6, 6
2, 2
2, 2
2, 4
7, 2
1, 0
2, 7
3, 3
3, 5
6, 7
4, 3
8, 6
11, 13
20, 10
12, 18
12, 13
16, 17
7, 10
5, 10
6, 12
19, 12
22, 23
26, 35
51, 44
35, 45
42, 49
41, 45
31, 37
29, 38
42, 68
127, 140
175, 193
307, 325
384, 404
441, 495
481, 448
391, 436
341, 335
215, 241
133, 108
81, 70
53, 46
27, 38
30, 31
24, 33
33, 34
32, 39
30, 32
23, 27
23, 31
20, 20
15, 19
24, 25
36, 42
79, 79
123, 147
201, 209
243, 278
270, 309
291, 294
240, 253
204, 212
154, 146
122, 108
67, 65
42, 47
70, 47
70, 80
80, 87
130, 122
182, 181
187, 212
213, 192
198, 230
187, 195
168, 163
128, 141
99, 116
107, 80
81, 80
71, 86
80, 75
70, 61
49, 62
47, 44
36, 29
25, 29
24, 18
13, 19
21, 17
12, 8
4, 11
6, 5
7, 9
7, 6
6, 7
8, 15
9, 6
15, 13
27, 30
35, 25
23, 31
29, 25
27, 18
16, 21
16, 12
12, 11
14, 11
11, 11
12, 17
20, 47
51, 42
76, 91
123, 168
201, 261
278, 311
334, 369
331, 367
358, 361
297, 283
234, 242
186, 159
102, 102
59, 55
45, 44
31, 30
25, 32
30, 34
47, 35
50, 61
64, 49
54, 56
55, 47
30, 45
34, 26
35, 29
19, 15
13, 16
7, 14
4, 12
8, 7
5, 7
7, 16
10, 6
12, 13
13, 12
13, 18
18, 22
23, 34
39, 52
64, 48
61, 60
63, 62
63, 72
44, 52
44, 42
50, 39
34, 23
24, 26
16, 20
15, 16
11, 10
12, 11
12, 9
15, 14
24, 16
10, 17
23, 19
21, 16
17, 14
24, 24
23, 16
16, 14
13, 21
7, 11
16, 11
13, 8
5, 11
19, 8
7, 9
10, 13
8, 6
11, 12
11, 16
17, 10
15, 18
14, 18
26, 21
21, 31
28, 22
28, 24
24, 34
24, 31
15, 27
23, 17
11, 12
11, 14
8, 15
8, 12
14, 9
20, 9
6, 8
12, 14
17, 15
12, 13
16, 21
20, 24
43, 46
34, 33
39, 41
30, 52
45, 44
60, 56
46, 33
38, 31
23, 29
19, 22
13, 12
24, 17
18, 18
14, 20
28, 26
37, 49
67, 81
96, 148
196, 266
317, 398
509, 682
819, 953
1105, 1282
1389, 1611
1588, 1703
1682, 1708
1560, 1654
1451, 1430
1142, 1047
866, 792
568, 515
346, 307
211, 182
122, 95
54, 49
38, 34
29, 27
23, 15
22, 17
18, 15
14, 18
19, 14
15, 18
21, 21
19, 37
40, 41
55, 64
68, 82
96, 168
135, 158
194, 222
234, 231
231, 275
242, 313
241, 248
207, 206
174, 186
130, 124
105, 85
64, 44
39, 41
13, 23
11, 9
8, 9
11, 11
12, 6
13, 8
4, 11
12, 11
8, 19
5, 14
12, 8
14, 17
16, 11
10, 12
6, 8
5, 7
5, 5
6, 3
8, 6
5, 5
7, 6
3, 5
3, 9
4, 4
9, 4
5, 4
6, 8
9, 6
3, 6
12, 5
5, 6
5, 9
6, 7
8, 9
3, 10
6, 11
5, 12
7, 7
7, 9
9, 8
6, 2
6, 11
6, 6
2, 5
8, 7
6, 8
7, 6
7, 9
11, 3
5, 4
4, 6
5, 6
8, 6
7, 5
9, 8
10, 6
8, 5
8, 14
13, 10
14, 17
8, 4
10, 12
17, 12
12, 2
6, 6
5, 6
4, 7
8, 5
8, 5
6, 6
8, 6
5, 6
7, 5
10, 1
3, 4
5, 8
7, 9
10, 5
4, 4
4, 3
4, 3
5, 10
5, 3
6, 2
6, 7
3, 7
5, 10
6, 3
7, 5
10, 3
4, 5
5, 7
3, 4
1, 7
3, 5
5, 1
7, 4
9, 3
5, 3
10, 4
3, 2
5, 6
4, 5
6, 8
5, 5
5, 1
3, 8
3, 6
8, 6
6, 3
6, 5
6, 11
4, 6
2, 3
1, 4
1, 7
3, 5
7, 8
3, 2
8, 3
4, 3
5, 3
1, 1
4, 3
1, 4
5, 3
3, 5
2, 3
6, 7
6, 4
6, 2
3, 6
3, 4
8, 4
4, 2
7, 3
5, 4
0, 2
8, 3
5, 1
1, 3
1, 0
3, 1
3, 2
2, 2
6, 0
4, 4
1, 3
2, 1
5, 3
3, 5
3, 3
5, 1
4, 5
4, 4
7, 1
0, 5
3, 6
0, 1
4, 3
4, 2
5, 2
5, 4
2, 5
1, 6
3, 5
5, 5
2, 1
3, 2
0, 4
4, 2
1, 1
1, 1
1, 1
1, 1
1, 8
3, 1
1, 2
0, 2
3, 3
0, 0
3, 3
4, 2
1, 1
6, 3
1, 0
1, 1
3, 4
1, 3
7, 1
0, 1
3, 5
1, 1
6, 3
2, 3
2, 0
2, 3
4, 3
1, 2
0, 1
3, 3
2, 4
1, 3
2, 5
1, 2
2, 0
0, 0
1, 2
4, 5
5, 4
0, 0
1, 2
2, 3
1, 3
3, 2
5, 0
1, 4
1, 3
3, 1
0, 2
2, 5
0, 0
0, 2
4, 4
1, 3
3, 2
0, 1
1, 2
0, 0
1, 2
4, 2
3, 4
2, 1
6, 3
0, 2
3, 7
1, 3
2, 6
2, 2
0, 3
5, 0
1, 1
2, 1
0, 0
3, 4
4, 3
0, 1
1, 0
1, 1
7, 1
3, 0
1, 4
2, 1
2, 3
2, 4
1, 2
3, 1
2, 3
2, 1
0, 0
1, 3
1, 1
3, 0
0, 0
1, 3
3, 1
1, 5
0, 3
0, 0
0, 1
0, 3
3, 0
0, 3
2, 1
0, 1
2, 2
2, 1
1, 0
2, 2
3, 0
3, 0
3, 1
0, 0
0, 0
0, 1
2, 0
2, 1
0, 0
0, 1
0, 1
1, 2
2, 0
0, 0
2, 1
1, 1
2, 0
0, 3
0, 2
3, 6
0, 1
1, 1
2, 0
2, 2
0, 1
1, 0
1, 1
0, 1
0, 2
0, 0
1, 0
0, 0
1, 0
1, 1
0, 0
2, 2
1, 0
0, 3
0, 2
1, 1
1, 1
2, 1
0, 3
1, 1
0, 1
0, 1
0, 1
2, 0
0, 1
1, 0
0, 2
0, 0
2, 1
2, 0
0, 0
0, 0
1, 0
0, 1
1, 2
0, 0
0, 0
2, 0
0, 0
0, 2
1, 2
0, 1
0, 2
1, 0
0, 0
0, 0
1, 0
0, 0
0, 1
1, 0
1, 0
1, 1
1, 0
0, 0
0, 0
1, 0
0, 0
0, 1
0, 1
0, 0
1, 0
0, 1
0, 0
0, 1
0, 0
1, 0
3, 1
0, 0
0, 0
0, 0
0, 0
1, 1
0, 1
0, 2
0, 0
0, 2
1, 0
0, 0
0, 0
0, 1
0, 0
1, 0
0, 0
1, 0
2, 1
0, 0
0, 1
0, 1
1, 0
0, 0
1, 0
1, 1
1, 0
0, 1
1, 0
0, 1
0, 0
0, 1
1, 0
1, 2
0, 0
2, 0
0, 0
1, 0
1, 0
0, 1
2, 2
0, 0
0, 1
0, 2
0, 0
0, 0
1, 1
0, 1
1, 1
0, 0
0, 0
1, 1
0, 0
0, 0
0, 0
0, 0
0, 0
0, 1
1, 0
0, 0
0, 0
0, 0
1, 0
0, 0
0, 1
0, 0
0, 1
1, 1
0, 0
0, 0
0, 0
0, 0
1, 0
1, 0
0, 2
0, 0
0, 0
0, 0
0, 0
0, 0
0, 0
0, 0
0, 1
0, 0
0, 0
0, 0
1, 0
0, 0
0, 0
1, 1
0, 0
1, 1
0, 0
0, 1
0, 0
0, 0
0, 0
0, 0
2, 0
0, 0
0, 0
0, 0
0, 0
0, 2
0, 0
1, 0
0, 0
1, 0
1, 0
0, 1
0, 1
0, 1
0, 0
1, 0
0, 0
0, 0
0, 0
0, 0
0, 0
0, 0
3, 0
0, 0
0, 0
0, 0
1, 0
2, 0
0, 1
1, 0
0, 0
1, 0
0, 0
0, 0
2, 0
1, 0
0, 0
0, 0
0, 1
0, 1
0, 0
0, 0
0, 0
0, 0
0, 0
0, 0
0, 0
0, 0
0, 0
0, 0
0, 0
0, 0
0, 1
0, 0
0, 0
0, 1
0, 0
0, 0
0, 0
0, 0
0, 0
0, 0
0, 0
0, 0
0, 1
0, 0
0, 0
0, 0
0, 1
0, 0
0, 1
0, 0
0, 0
0, 0
0, 0
2, 0
0, 0
1, 0
0, 0
1, 1
0, 1
0, 0
2, 0
0, 0
0, 0
0, 0
0, 0
0, 0
0, 0
0, 0
1, 0
0, 0
0, 1
0, 0
0, 0
1, 0
0, 2
0, 0
0, 0
0, 0
0, 0
0, 0
0, 0
0, 0
0, 0
0, 0
0, 0
0, 0
0, 0
1, 0
0, 0
0, 0
0, 0
0, 0
0, 0
0, 0
0, 0
0, 0
0, 0
0, 0
0, 0
0, 0
0, 0
0, 0
0, 0
0, 0
0, 0
1, 0
0, 0
0, 1
0, 0
0, 0
0, 0
0, 0
0, 0
0, 0
0, 0
0, 0
0, 0
0, 1
0, 0
0, 0
0, 0
0, 0
0, 0
0, 0
0, 1
0, 0
0, 0
0, 0
0, 0
0, 0
0, 1
0, 0
0, 0
0, 0
0, 0
0, 0
0, 0
0, 0
0, 0
0, 0
0, 0
0, 0
0, 0
0, 0
0, 0
0, 0
0, 0
0, 0
0, 0
0, 0
0, 0
0, 0
0, 0
0, 0
0, 0
0, 0
0, 0
0, 0
0, 0
0, 0
0, 0
0, 0
0, 0
0, 0
0, 0
0, 0
0, 0
0, 0
0, 0
0, 0
0, 0
0, 0
0, 0
0, 0
0, 0
0, 0
0, 0
0, 0
0, 0
0, 0
0, 0
0, 0
0, 0
0, 0
0, 0
0, 0
0, 0
0, 0
0, 0
0, 0
0, 0
0, 1
0, 0
0, 0
0, 0
0, 0
0, 0
0, 0
0, 0
0, 1
0, 0
0, 0
0, 0
0, 0
0, 0
0, 0
0, 0
0, 0
0, 0
0, 0
0, 0
0, 0
0, 0
0, 1
0, 0
0, 0
0, 0
0, 0
0, 0
0, 0
0, 0
0, 0
0, 0
0, 0
0, 0
0, 0
0, 0
0, 0
0, 0
0, 0
0, 0
0, 0
0, 0
0, 0
0, 0
0, 0
0, 0
0, 0
0, 0
0, 0
0, 0
0, 0
0, 0
0, 0
0, 0
0, 0
0, 0
0, 0
0, 0
0, 0
0, 0
0, 0
0, 0
0, 0
0, 0
0, 0
0, 1
0, 0
0, 1
0, 0
0, 0
0, 0
0, 0
0, 0
0, 0
0, 0
0, 0
0, 0
0, 0
0, 0
0, 0
0, 0
0, 0
0, 0
0, 0
0, 0
0, 0
0, 0
0, 0
0, 0
0, 0
0, 0
0, 0
0, 0
0, 0
0, 0
0, 0
0, 0
0, 0
0, 0
0, 0
0, 0
0, 0
0, 0
0, 0
0, 0
0, 0
0, 0
0, 0
0, 0
0, 0
0, 0
0, 0
0, 0
0, 0
0, 0
0, 0
0, 0
0, 0
0, 0
0, 0
0, 0
0, 0
0, 0
0, 0
0, 0
0, 0
0, 0
0, 0
0, 0
0, 0
0, 0
0, 0
0, 0
0, 0
0, 0
0, 0
0, 0
0, 0
0, 0
0, 0
0, 0
0, 0
0, 0
0, 0
0, 0
0, 0
0, 0
0, 0
0, 0
0, 0
0, 0
0, 0
0, 0
0, 0
0, 0
0, 0
0, 0
0, 0
0, 0
0, 0
0, 0
0, 0
0, 0
0, 0
0, 0
0, 0
0, 0
0, 0
0, 0
0, 0
0, 0
0, 0
0, 0
0, 0
0, 0
0, 0
0, 0
0, 0
0, 0
0, 0
0, 0
0, 0
0, 0
0, 0
0, 0
0, 0
0, 0
0, 0
0, 0
0, 0
0, 0
0, 0
0, 0
0, 0
0, 0
0, 0
0, 0
0, 0
0, 0
0, 0
0, 0
0, 0
0, 0
0, 0
0, 0
0, 0
0, 0
0, 0
0, 0
0, 0
0, 0
0, 0
0, 0
0, 0
0, 0
0, 0
0, 0
0, 0
0, 0
0, 0
0, 0
0, 0
0, 0
0, 0
0, 0
0, 0
0, 0
0, 0
0, 0
0, 0
0, 0
0, 0
0, 0
0, 0
0, 0
0, 0
0, 0
0, 0
0, 0
0, 0
0, 0
0, 0
0, 0
0, 0
0, 0
0, 0
0, 0
0, 0
0, 0
0, 0
0, 0
0, 0
0, 0
0, 0
0, 0
0, 0
0, 0
0, 0
0, 0
0, 0
0, 0
0, 0
0, 0
0, 0
0, 0
0, 0
0, 0
0, 0
0, 0
0, 0
0, 0
0, 0
0, 0
0, 0
0, 0
0, 0
0, 0
0, 0
0, 0
0, 0
0, 0
0, 0
0, 0
0, 0
0, 0
0, 0
0, 0
0, 0
0, 0
0, 0
0, 0
0, 0
0, 0
0, 0
0, 0
0, 0
0, 0
0, 0
0, 0
0, 0
0, 0
0, 0
0, 0
0, 0
0, 0
0, 0
0, 0
0, 0
0, 0
0, 0
0, 0
0, 0
0, 0
0, 0
0, 0
0, 0
0, 0
0, 0
0, 0
0, 0
0, 0
0, 0
0, 0
0, 0
0, 0
0, 0
0, 0
0, 0
0, 0
0, 0
0, 0
0, 0
0, 0
0, 0
0, 0
0, 0
0, 0
0, 0
0, 0
0, 0
0, 0
0, 0
0, 0
0, 0
0, 0
0, 0
0, 0
0, 0
0, 0
0, 0
0, 0
0, 0
0, 0
0, 0
0, 0
0, 0
0, 0
0, 0
0, 0
0, 0
0, 0
0, 0
0, 0
0, 0
0, 0
0, 0
0, 0
0, 0
0, 0
0, 0
0, 0
0, 0
0, 0
0, 0
0, 0
0, 0
0, 0
0, 0
#ENDOFDATA     end of spectrum data