File: host_upload/02-11-2024/rqc/uplink1/ps__0567_0717304816_000rfs_shot_98.msa
#FORMAT      : EMSA/MAS spectral data file
#VERSION     : TC202v2.0 PIXL
#TITLE       : Novarupta (sol567) subset1
#DATE        : 02-11-2024      Date in the format DD-MMM-YYYY, for example 07-JUL-2010
#TIME        :             The time of day at which the spectrum was recorded, in 24-hour format
#OWNER       : PIXL Flight Model       (PIXL will use this to indicate which instrument took the data.)
#NPOINTS     : 4096     Number of data points in the spectrum (This can be zero for configuration only files)
#NCOLUMNS    : 2     Number of data columns in the spectrum (This can be zero for configuration only files)
#XUNITS      : eV
#YUNITS      : COUNTS
#DATATYPE    : YY
#XPERCHAN    : 7.862, 7.881   eV per channel (separate by commas if more than one detector)
#OFFSET      : 18.5, -22.4         eV of first channel  (separate by commas if more than one detector
#SIGNALTYPE  : XRF
#YP_TEMP     : -1.164
#LIVETIME    : 8.85337, 8.8234   seconds (separate by commas if more than one detector)
#REALTIME    : 10, 10.0   seconds (separate by commas if more than one detector)
#SPECTRUM    : start of spectrum data
0, 0
0, 0
0, 0
0, 0
0, 0
0, 0
0, 0
0, 0
0, 0
0, 0
0, 0
0, 0
0, 0
0, 0
0, 0
0, 0
0, 0
0, 0
0, 0
0, 0
0, 0
0, 0
0, 0
0, 0
0, 0
0, 0
0, 0
0, 0
0, 0
0, 1
0, 0
0, 0
0, 0
0, 0
3, 0
3, 0
1, 1
0, 1
2, 4
3, 6
5, 4
5, 3
2, 4
2, 2
0, 3
2, 4
2, 8
2, 3
3, 3
4, 4
4, 6
9, 8
15, 16
9, 20
16, 22
17, 13
7, 11
7, 8
8, 6
9, 10
25, 13
29, 32
28, 35
44, 49
54, 49
40, 56
31, 39
18, 40
44, 42
44, 61
107, 107
173, 238
255, 319
363, 404
446, 493
406, 503
389, 409
310, 327
192, 215
116, 130
77, 72
47, 46
28, 26
24, 25
25, 23
34, 31
32, 32
31, 35
27, 25
16, 23
18, 9
19, 19
28, 32
39, 48
72, 107
132, 153
214, 211
214, 284
274, 322
260, 313
236, 241
166, 213
114, 158
123, 102
69, 74
58, 55
61, 69
59, 72
88, 97
122, 143
165, 173
210, 244
205, 214
211, 236
163, 211
155, 179
120, 128
92, 112
95, 97
90, 86
71, 70
52, 87
58, 64
58, 43
37, 42
36, 31
23, 25
25, 26
21, 15
13, 15
16, 11
14, 6
5, 8
9, 4
7, 6
6, 8
5, 9
12, 18
15, 18
22, 25
24, 25
32, 35
31, 28
19, 26
28, 14
11, 16
7, 15
5, 14
15, 5
18, 8
28, 34
60, 61
82, 114
131, 172
205, 226
235, 282
299, 389
315, 421
291, 345
254, 299
214, 248
155, 149
87, 77
51, 62
35, 39
28, 37
29, 23
42, 41
38, 47
55, 53
46, 53
54, 58
52, 56
43, 44
30, 38
30, 22
23, 15
12, 10
5, 9
4, 10
4, 8
8, 7
10, 5
11, 14
8, 13
17, 9
11, 20
24, 24
28, 35
49, 40
56, 58
55, 60
57, 69
47, 60
48, 53
40, 39
28, 42
23, 25
23, 23
13, 16
13, 24
10, 17
5, 17
18, 13
9, 11
6, 15
12, 16
15, 19
16, 15
16, 30
19, 25
16, 15
7, 20
12, 16
10, 17
7, 15
12, 10
10, 12
14, 4
8, 8
6, 7
10, 16
12, 13
12, 14
10, 10
18, 20
14, 19
23, 31
27, 19
27, 24
35, 33
14, 25
30, 29
19, 33
15, 18
16, 17
12, 16
12, 14
12, 14
17, 11
14, 10
13, 13
8, 13
16, 18
21, 14
21, 20
23, 23
30, 36
41, 38
40, 45
42, 50
37, 39
40, 37
38, 35
32, 40
20, 30
22, 31
15, 24
14, 23
20, 19
21, 23
27, 42
42, 63
76, 91
145, 186
265, 321
434, 546
652, 854
904, 1078
1188, 1410
1404, 1651
1538, 1840
1603, 1767
1441, 1564
1193, 1308
1051, 1099
726, 672
502, 423
318, 291
183, 159
91, 89
49, 39
35, 32
18, 26
13, 20
17, 13
14, 14
19, 19
12, 18
11, 21
28, 29
31, 43
47, 56
69, 98
87, 126
127, 157
162, 204
207, 251
212, 307
268, 290
258, 267
222, 219
202, 199
140, 165
115, 100
80, 78
50, 48
25, 24
15, 19
14, 2
7, 11
11, 12
3, 10
9, 8
7, 12
6, 22
9, 12
14, 8
10, 13
11, 13
11, 4
5, 5
3, 9
4, 6
5, 11
7, 7
5, 4
1, 4
5, 3
4, 7
3, 3
4, 5
3, 4
7, 8
9, 5
8, 8
5, 8
3, 9
3, 7
5, 4
6, 7
10, 4
1, 3
8, 9
8, 4
10, 10
3, 5
10, 11
5, 9
6, 7
5, 5
8, 5
4, 12
7, 5
7, 9
8, 7
8, 4
7, 13
5, 12
5, 3
6, 8
9, 7
5, 8
10, 9
13, 5
17, 12
15, 16
12, 13
19, 10
12, 7
7, 14
7, 10
4, 7
4, 9
8, 5
2, 7
4, 3
9, 4
3, 2
4, 8
2, 7
7, 5
4, 6
4, 8
3, 2
6, 3
7, 2
5, 5
6, 4
4, 2
7, 5
5, 5
11, 5
8, 4
8, 5
8, 4
5, 9
1, 6
7, 2
10, 3
6, 4
5, 9
6, 4
1, 10
11, 8
4, 3
8, 5
5, 6
6, 5
6, 4
6, 6
6, 7
6, 4
3, 7
2, 5
5, 3
6, 7
4, 2
2, 3
3, 2
3, 4
5, 4
4, 5
4, 7
6, 8
2, 4
2, 2
6, 3
9, 4
5, 4
2, 7
5, 5
5, 6
1, 2
6, 9
3, 7
4, 5
1, 5
4, 4
3, 7
3, 12
3, 6
3, 1
3, 5
1, 1
6, 5
1, 1
1, 1
3, 6
1, 3
4, 3
5, 6
5, 9
2, 2
3, 4
4, 1
2, 4
3, 3
2, 6
3, 5
1, 2
2, 3
2, 6
1, 4
2, 4
3, 2
2, 1
2, 3
4, 4
3, 2
2, 2
2, 4
4, 1
4, 2
0, 2
3, 3
6, 3
4, 5
2, 3
3, 4
2, 2
4, 2
3, 3
6, 1
3, 0
3, 2
5, 2
2, 1
3, 2
2, 2
4, 1
1, 2
7, 2
2, 5
1, 1
3, 0
3, 2
1, 2
1, 2
1, 2
2, 1
2, 1
4, 2
3, 1
5, 1
0, 3
5, 3
0, 1
1, 6
2, 2
1, 3
0, 2
4, 1
0, 0
4, 2
4, 2
1, 2
3, 7
4, 1
1, 2
2, 2
6, 2
4, 1
3, 1
0, 1
2, 2
2, 2
1, 1
1, 4
2, 6
2, 3
1, 4
0, 3
3, 3
6, 3
2, 4
1, 3
2, 1
4, 4
5, 3
4, 3
3, 3
0, 5
1, 8
1, 5
4, 3
2, 2
1, 0
4, 0
2, 1
4, 1
2, 0
3, 1
1, 2
2, 1
1, 0
0, 2
1, 3
0, 0
1, 0
1, 1
2, 1
2, 0
1, 1
1, 1
1, 2
3, 1
1, 4
1, 1
1, 5
0, 4
1, 0
1, 1
2, 2
0, 1
0, 1
1, 0
3, 2
1, 0
5, 1
1, 0
2, 0
2, 4
0, 1
1, 1
2, 0
1, 1
1, 2
1, 0
0, 0
1, 0
1, 2
0, 2
0, 2
0, 2
3, 1
2, 2
0, 0
1, 3
1, 1
3, 3
1, 1
0, 0
2, 0
3, 1
1, 1
1, 1
0, 1
0, 2
2, 1
1, 2
1, 2
1, 0
0, 1
1, 0
1, 0
0, 0
1, 0
1, 2
0, 1
0, 0
1, 0
1, 0
1, 1
1, 0
0, 0
0, 2
1, 2
0, 2
0, 0
0, 2
0, 2
0, 0
0, 0
1, 0
1, 0
0, 1
0, 0
1, 1
0, 1
1, 0
1, 0
0, 0
2, 2
1, 0
0, 0
0, 0
0, 0
0, 0
2, 1
1, 0
1, 0
0, 1
1, 1
1, 0
0, 0
0, 0
0, 0
0, 0
2, 1
0, 2
1, 0
1, 1
0, 1
0, 0
0, 1
0, 1
0, 0
3, 0
0, 0
0, 0
1, 0
0, 1
1, 1
0, 3
1, 1
0, 1
1, 1
0, 1
2, 1
0, 1
0, 1
0, 0
0, 0
1, 0
1, 0
0, 1
0, 1
0, 0
0, 1
0, 0
0, 0
0, 1
0, 0
1, 0
0, 0
1, 0
0, 0
0, 1
0, 0
1, 0
0, 0
1, 0
0, 0
0, 0
2, 1
0, 1
1, 0
1, 0
0, 1
0, 0
0, 0
0, 1
0, 0
1, 1
0, 0
1, 0
0, 1
0, 1
1, 0
0, 0
0, 0
0, 0
1, 0
0, 0
1, 0
0, 0
0, 0
0, 1
0, 0
0, 1
1, 0
0, 0
0, 0
0, 1
2, 0
0, 0
0, 1
1, 1
0, 1
0, 0
1, 1
3, 0
0, 0
0, 0
0, 0
0, 0
0, 0
0, 0
0, 0
0, 0
2, 0
0, 1
0, 0
0, 0
0, 0
1, 2
0, 0
0, 0
0, 0
0, 2
0, 0
0, 0
0, 0
0, 0
1, 0
0, 1
0, 0
1, 0
1, 1
0, 0
0, 0
0, 1
0, 0
1, 0
0, 2
0, 0
0, 0
0, 1
0, 1
0, 0
0, 0
2, 0
0, 1
0, 0
0, 0
0, 0
0, 0
0, 1
0, 1
0, 0
1, 0
0, 0
0, 0
1, 0
1, 1
0, 0
0, 1
1, 1
1, 1
0, 0
0, 0
0, 0
0, 0
0, 1
0, 0
0, 0
0, 0
0, 0
0, 0
0, 0
0, 0
0, 1
0, 0
0, 0
0, 0
0, 0
0, 0
0, 1
0, 0
0, 0
0, 0
0, 0
0, 0
1, 0
0, 0
0, 0
0, 0
0, 0
0, 0
0, 0
0, 0
0, 0
0, 0
0, 0
0, 0
0, 0
0, 0
0, 0
0, 2
0, 0
0, 0
0, 0
0, 0
0, 0
0, 0
0, 0
0, 0
0, 1
0, 0
1, 0
1, 0
0, 0
1, 0
0, 0
0, 0
0, 2
0, 0
0, 0
1, 0
0, 0
0, 0
0, 0
0, 0
0, 0
2, 0
0, 0
0, 0
0, 0
0, 0
0, 1
0, 0
0, 0
0, 0
0, 0
0, 0
0, 1
0, 0
0, 0
0, 0
0, 0
1, 1
0, 0
0, 0
0, 0
1, 0
1, 0
0, 0
0, 0
0, 0
1, 0
0, 0
0, 0
0, 0
0, 0
1, 0
0, 0
0, 0
0, 0
0, 0
0, 0
0, 0
0, 0
0, 0
0, 0
0, 0
0, 0
0, 0
0, 0
0, 0
1, 0
0, 0
0, 1
0, 0
0, 0
0, 0
0, 0
0, 0
0, 0
0, 0
0, 0
0, 0
0, 0
0, 0
0, 0
0, 0
0, 0
0, 0
0, 0
0, 0
0, 0
0, 0
0, 0
0, 0
0, 0
0, 0
0, 0
0, 0
0, 0
0, 0
0, 0
0, 0
0, 0
0, 0
0, 0
0, 0
0, 0
0, 0
0, 0
0, 0
0, 1
0, 0
0, 0
0, 0
0, 0
0, 0
0, 0
0, 0
0, 0
0, 0
0, 0
0, 0
0, 0
0, 0
0, 0
0, 0
0, 0
0, 0
0, 0
0, 0
0, 0
0, 0
0, 0
0, 0
0, 0
0, 0
0, 0
0, 0
0, 0
0, 0
0, 0
0, 0
0, 0
0, 0
0, 0
0, 1
0, 0
0, 0
0, 0
0, 0
0, 0
0, 0
0, 0
0, 0
0, 0
0, 0
0, 0
0, 0
0, 0
0, 0
0, 0
0, 1
0, 0
0, 0
0, 0
0, 0
0, 0
0, 0
0, 0
0, 0
0, 0
0, 0
0, 0
0, 0
0, 0
0, 0
0, 0
0, 0
0, 0
0, 0
0, 0
0, 0
0, 0
0, 0
0, 0
0, 0
0, 0
0, 0
0, 0
0, 0
0, 0
0, 1
0, 0
0, 0
0, 0
0, 0
0, 0
0, 0
0, 0
0, 0
0, 0
0, 0
0, 0
0, 0
0, 0
0, 0
0, 0
0, 0
0, 0
0, 0
0, 0
0, 0
0, 0
0, 0
0, 0
0, 0
0, 0
0, 0
0, 0
0, 0
0, 0
0, 0
0, 0
0, 0
0, 0
0, 0
0, 0
0, 0
0, 0
0, 0
0, 0
0, 0
0, 0
0, 0
0, 0
0, 0
0, 0
0, 0
0, 0
0, 0
0, 0
0, 0
0, 0
0, 0
0, 0
0, 0
0, 0
0, 0
0, 0
0, 0
0, 0
0, 0
0, 0
0, 0
0, 0
0, 0
0, 0
0, 0
0, 0
0, 0
0, 0
0, 0
0, 0
0, 0
0, 0
0, 0
0, 0
0, 0
0, 0
0, 0
0, 0
0, 0
0, 0
0, 0
0, 0
0, 0
0, 0
0, 0
0, 0
0, 0
0, 0
0, 0
0, 0
0, 0
0, 0
0, 0
0, 0
0, 0
0, 0
0, 0
0, 0
0, 0
0, 0
0, 0
0, 0
0, 0
0, 0
0, 0
0, 0
0, 0
0, 0
0, 0
0, 0
0, 0
0, 0
0, 0
0, 0
0, 0
0, 0
0, 0
0, 0
0, 0
0, 0
0, 0
0, 0
0, 0
0, 0
0, 0
0, 0
0, 0
0, 0
0, 0
0, 0
0, 0
0, 0
0, 0
0, 0
0, 0
0, 0
0, 0
0, 0
0, 0
0, 0
0, 0
0, 0
0, 0
0, 0
0, 0
0, 0
0, 0
0, 0
0, 0
0, 0
0, 0
0, 0
0, 0
0, 0
0, 0
0, 0
0, 0
0, 0
0, 0
0, 0
0, 0
0, 0
0, 0
0, 0
0, 0
0, 0
0, 0
0, 0
0, 0
0, 0
0, 0
0, 0
0, 0
0, 0
0, 0
0, 0
0, 0
0, 0
0, 0
0, 0
0, 0
0, 0
0, 0
0, 0
0, 0
0, 0
0, 0
0, 0
0, 0
0, 0
0, 0
0, 0
0, 0
0, 0
0, 0
0, 0
0, 0
0, 0
0, 0
0, 0
0, 0
0, 0
0, 0
0, 0
0, 0
0, 0
0, 0
0, 0
0, 0
0, 0
0, 0
0, 0
0, 0
0, 0
0, 0
0, 0
0, 0
0, 0
0, 0
0, 0
0, 0
0, 0
0, 0
0, 0
0, 0
0, 0
0, 0
0, 0
0, 0
0, 0
0, 0
0, 0
0, 0
0, 0
0, 0
0, 0
0, 0
0, 0
0, 0
0, 0
0, 0
0, 0
0, 0
0, 0
0, 0
0, 0
0, 0
0, 0
0, 0
0, 0
0, 0
0, 0
0, 0
0, 0
0, 0
0, 0
0, 0
0, 0
0, 0
0, 0
0, 0
0, 0
0, 0
0, 0
0, 0
0, 0
0, 0
0, 0
0, 0
0, 0
0, 0
0, 0
0, 0
0, 0
0, 0
0, 0
0, 0
0, 0
0, 0
0, 0
0, 0
0, 0
0, 0
0, 0
0, 0
0, 0
0, 0
0, 0
0, 0
0, 0
0, 0
0, 0
0, 0
0, 0
0, 0
0, 0
0, 0
0, 0
0, 0
0, 0
0, 0
0, 0
0, 0
0, 0
0, 0
0, 0
0, 0
0, 0
0, 0
0, 0
0, 0
0, 0
0, 0
0, 0
0, 0
0, 0
0, 0
0, 0
0, 0
0, 0
0, 0
0, 0
0, 0
0, 0
0, 0
0, 0
0, 0
0, 0
0, 0
0, 0
0, 0
0, 0
0, 0
#ENDOFDATA     end of spectrum data