File: host_upload/02-11-2024/rqc/uplink1/ps__0567_0717304816_000rfs_shot_236.msa
#FORMAT      : EMSA/MAS spectral data file
#VERSION     : TC202v2.0 PIXL
#TITLE       : Novarupta (sol567) subset1
#DATE        : 02-11-2024      Date in the format DD-MMM-YYYY, for example 07-JUL-2010
#TIME        :             The time of day at which the spectrum was recorded, in 24-hour format
#OWNER       : PIXL Flight Model       (PIXL will use this to indicate which instrument took the data.)
#NPOINTS     : 4096     Number of data points in the spectrum (This can be zero for configuration only files)
#NCOLUMNS    : 2     Number of data columns in the spectrum (This can be zero for configuration only files)
#XUNITS      : eV
#YUNITS      : COUNTS
#DATATYPE    : YY
#XPERCHAN    : 7.862, 7.881   eV per channel (separate by commas if more than one detector)
#OFFSET      : 18.5, -22.4         eV of first channel  (separate by commas if more than one detector
#SIGNALTYPE  : XRF
#YP_TEMP     : 1.017
#LIVETIME    : 8.83343, 8.81408   seconds (separate by commas if more than one detector)
#REALTIME    : 10, 10.0   seconds (separate by commas if more than one detector)
#SPECTRUM    : start of spectrum data
0, 0
0, 0
0, 0
0, 0
0, 0
0, 0
0, 0
0, 0
0, 0
0, 0
0, 0
0, 0
0, 0
0, 0
0, 0
0, 0
0, 0
0, 0
0, 0
0, 0
0, 0
0, 0
0, 0
0, 0
0, 0
0, 0
0, 0
0, 0
0, 0
0, 0
0, 0
0, 0
0, 0
1, 0
0, 2
2, 5
0, 2
4, 0
3, 1
1, 1
4, 4
4, 4
3, 3
0, 2
1, 4
0, 3
3, 2
3, 3
4, 5
1, 5
9, 4
5, 11
21, 14
15, 18
24, 19
11, 18
16, 11
7, 14
7, 8
6, 17
17, 17
32, 23
37, 38
49, 49
46, 44
48, 58
33, 50
24, 37
34, 33
59, 67
89, 123
160, 210
249, 359
379, 459
448, 515
455, 533
427, 431
345, 350
223, 236
129, 119
72, 83
34, 37
31, 34
28, 32
33, 46
25, 28
33, 33
34, 32
25, 29
24, 25
17, 17
15, 15
30, 24
42, 45
64, 81
111, 146
186, 233
248, 269
264, 299
277, 297
252, 295
206, 220
150, 145
89, 117
61, 83
49, 56
44, 62
63, 51
83, 76
119, 128
147, 169
177, 205
181, 233
207, 203
191, 198
164, 171
134, 130
96, 120
76, 94
61, 71
68, 77
73, 63
66, 74
57, 51
54, 50
34, 36
26, 23
35, 34
21, 14
8, 12
12, 12
6, 18
13, 11
6, 10
3, 6
7, 12
8, 6
13, 13
17, 20
23, 24
38, 22
24, 24
26, 34
24, 26
20, 18
10, 21
12, 17
7, 15
12, 11
12, 20
28, 28
43, 66
70, 104
137, 156
189, 251
267, 312
328, 372
331, 413
311, 358
270, 331
212, 245
142, 158
90, 102
66, 73
41, 36
26, 40
18, 31
30, 44
43, 47
50, 43
40, 59
60, 49
53, 58
31, 58
27, 39
28, 33
14, 21
16, 11
10, 9
7, 9
5, 11
11, 9
7, 10
14, 7
8, 10
13, 14
20, 20
24, 23
30, 35
40, 53
49, 58
62, 74
49, 75
67, 64
42, 53
44, 45
36, 35
32, 24
25, 28
17, 17
14, 21
12, 15
21, 9
17, 13
8, 11
15, 17
14, 15
20, 25
17, 20
12, 15
17, 25
8, 19
15, 17
17, 19
18, 14
9, 9
8, 16
9, 25
7, 12
11, 18
8, 12
8, 15
11, 11
9, 18
17, 20
23, 17
14, 15
18, 24
35, 26
29, 29
23, 33
28, 32
23, 25
21, 22
12, 26
18, 21
11, 10
13, 9
13, 12
10, 14
11, 11
14, 11
19, 21
11, 21
19, 13
20, 20
22, 27
20, 30
27, 55
50, 62
37, 54
46, 47
54, 47
37, 49
38, 50
45, 24
30, 23
17, 19
17, 21
17, 15
27, 17
17, 31
40, 55
58, 84
117, 160
235, 284
362, 469
593, 725
860, 1114
1133, 1403
1472, 1731
1685, 1929
1683, 1936
1644, 1781
1498, 1451
1145, 1143
849, 798
556, 541
382, 314
230, 183
141, 99
79, 50
42, 36
21, 22
9, 13
15, 21
23, 14
21, 23
18, 20
21, 17
21, 28
29, 45
46, 48
58, 76
83, 105
113, 155
139, 210
197, 233
265, 271
256, 302
284, 270
254, 283
219, 228
161, 155
143, 109
91, 71
60, 63
32, 33
9, 17
15, 13
10, 9
10, 15
8, 8
9, 4
8, 7
12, 11
13, 10
13, 9
13, 16
14, 6
9, 9
17, 13
9, 9
10, 8
7, 4
5, 12
6, 7
8, 5
6, 9
4, 9
7, 6
5, 10
4, 3
5, 8
10, 6
7, 2
8, 5
5, 8
4, 8
10, 5
6, 4
7, 9
2, 8
5, 7
8, 8
6, 6
4, 6
4, 8
8, 8
6, 9
6, 9
4, 8
2, 7
4, 7
2, 10
7, 11
6, 7
8, 5
4, 1
7, 7
7, 8
11, 5
8, 9
8, 13
8, 14
10, 13
8, 12
13, 5
12, 6
6, 6
14, 12
5, 12
7, 3
6, 6
5, 10
6, 7
4, 11
2, 7
5, 3
8, 7
10, 8
4, 7
3, 1
5, 6
5, 4
6, 7
6, 8
6, 8
3, 6
2, 4
7, 5
3, 6
7, 4
6, 6
2, 7
4, 2
6, 4
8, 8
4, 8
8, 7
9, 6
1, 5
6, 8
2, 5
6, 6
5, 9
5, 4
2, 5
7, 12
7, 4
5, 4
4, 7
6, 7
1, 3
3, 5
6, 2
1, 8
3, 3
4, 3
3, 7
2, 7
1, 5
3, 3
3, 7
4, 4
3, 7
5, 7
4, 2
7, 3
4, 5
4, 3
5, 3
4, 2
3, 8
4, 4
4, 7
2, 0
4, 2
5, 3
3, 5
3, 2
3, 2
0, 0
5, 0
7, 3
5, 2
3, 2
5, 6
4, 3
2, 2
3, 2
2, 6
0, 3
3, 1
5, 5
2, 2
10, 7
0, 6
2, 2
7, 7
1, 8
2, 5
4, 3
1, 3
1, 6
2, 0
4, 5
3, 2
6, 5
3, 1
1, 7
3, 3
3, 2
1, 3
3, 1
2, 2
1, 3
4, 2
2, 3
3, 2
1, 2
2, 1
2, 5
1, 2
4, 3
4, 1
3, 2
4, 0
2, 6
4, 1
3, 1
1, 4
3, 4
2, 3
3, 5
4, 3
3, 2
3, 2
2, 4
2, 5
2, 2
3, 2
1, 5
2, 2
2, 2
4, 3
3, 4
3, 1
2, 5
2, 4
2, 2
0, 2
6, 3
3, 1
3, 4
2, 1
2, 3
1, 4
0, 1
3, 3
2, 4
0, 2
0, 1
2, 1
3, 1
1, 2
0, 2
3, 2
2, 2
1, 4
0, 4
0, 4
2, 5
2, 2
3, 0
3, 1
1, 4
4, 0
2, 5
2, 6
2, 1
2, 3
7, 3
4, 2
4, 3
2, 6
1, 2
3, 3
2, 0
6, 3
4, 2
1, 4
1, 1
0, 1
0, 3
1, 0
1, 2
3, 2
1, 1
2, 0
1, 1
1, 1
2, 0
1, 2
1, 2
1, 1
1, 1
3, 2
3, 1
2, 1
1, 1
0, 1
2, 2
0, 1
0, 1
0, 1
0, 2
2, 1
0, 2
1, 1
2, 3
1, 1
2, 1
1, 0
2, 4
0, 0
2, 1
2, 0
0, 2
2, 1
2, 0
3, 1
1, 1
2, 4
2, 0
0, 1
1, 0
0, 0
1, 1
1, 2
0, 0
1, 1
3, 3
1, 3
0, 1
1, 4
0, 6
0, 0
1, 2
1, 0
1, 2
1, 2
2, 2
0, 0
1, 1
1, 0
0, 2
1, 1
0, 0
1, 2
0, 1
1, 1
0, 1
0, 3
2, 1
0, 1
0, 0
2, 1
2, 3
2, 0
1, 1
1, 2
1, 1
0, 1
0, 0
0, 2
0, 0
0, 0
0, 0
1, 2
1, 3
1, 1
0, 1
3, 0
1, 1
0, 0
0, 0
0, 1
0, 1
0, 0
0, 0
0, 0
1, 0
0, 0
1, 1
0, 0
0, 0
0, 0
0, 1
1, 1
0, 1
1, 0
0, 0
0, 1
2, 1
2, 1
1, 0
1, 0
1, 0
0, 0
1, 0
0, 0
1, 0
1, 0
1, 0
1, 0
0, 0
1, 0
1, 0
1, 0
0, 0
0, 1
1, 2
1, 0
0, 0
2, 0
1, 1
0, 1
0, 0
0, 0
0, 1
0, 0
1, 1
0, 0
0, 0
1, 1
0, 0
1, 2
1, 0
0, 0
0, 0
0, 1
0, 0
0, 0
0, 0
0, 0
0, 0
0, 0
0, 0
0, 0
0, 2
0, 0
0, 2
1, 1
1, 0
2, 0
0, 0
0, 0
0, 0
0, 0
0, 0
0, 0
1, 0
1, 0
0, 0
0, 1
1, 0
0, 1
0, 0
0, 0
0, 0
0, 0
0, 0
0, 1
1, 1
0, 0
0, 1
0, 0
0, 0
1, 0
0, 0
1, 0
0, 0
0, 0
0, 0
0, 0
0, 0
0, 0
1, 1
0, 1
0, 0
0, 0
0, 0
0, 0
1, 0
0, 0
1, 1
0, 0
1, 0
0, 0
1, 0
0, 0
0, 2
0, 0
0, 0
0, 1
1, 0
0, 0
2, 0
0, 1
0, 0
1, 0
0, 1
0, 0
1, 0
0, 0
0, 1
0, 0
0, 0
0, 0
0, 0
0, 0
1, 0
0, 0
1, 0
0, 0
1, 0
0, 0
1, 0
2, 0
0, 0
1, 0
0, 0
0, 0
0, 0
0, 0
2, 0
0, 0
0, 1
0, 0
0, 0
0, 0
0, 0
0, 0
0, 1
0, 0
0, 0
0, 0
0, 1
0, 0
0, 0
0, 0
0, 0
0, 1
0, 1
0, 0
0, 0
0, 0
0, 0
0, 0
0, 1
1, 0
0, 0
0, 0
0, 0
0, 0
1, 0
0, 0
0, 0
0, 1
0, 0
0, 3
0, 0
0, 0
0, 0
0, 0
0, 0
0, 0
0, 0
0, 0
0, 0
0, 0
0, 0
0, 0
0, 0
0, 0
0, 0
1, 0
1, 0
1, 1
0, 1
0, 1
0, 0
0, 1
1, 0
0, 0
0, 0
0, 0
0, 0
0, 0
0, 0
0, 0
1, 0
0, 0
0, 0
0, 0
0, 0
0, 0
0, 0
0, 0
0, 0
0, 0
0, 0
0, 2
0, 0
1, 0
0, 0
0, 0
0, 0
0, 0
0, 0
0, 0
0, 0
2, 0
0, 0
0, 0
1, 0
0, 0
0, 0
0, 0
0, 0
0, 0
0, 1
0, 0
0, 0
0, 0
0, 0
0, 0
0, 0
0, 0
0, 0
0, 0
0, 0
0, 0
0, 0
0, 0
0, 0
0, 0
0, 0
0, 0
0, 0
0, 0
0, 0
0, 0
1, 0
0, 0
0, 0
0, 0
0, 0
0, 0
0, 0
0, 0
0, 0
0, 0
0, 0
1, 0
0, 0
0, 0
0, 0
0, 0
0, 0
0, 0
0, 0
0, 0
0, 0
0, 0
0, 0
0, 0
0, 0
0, 0
0, 1
0, 0
0, 0
0, 0
0, 0
0, 0
0, 0
0, 0
0, 0
0, 0
0, 0
0, 0
0, 1
0, 1
0, 0
0, 0
0, 0
0, 0
0, 0
0, 0
0, 0
0, 0
0, 0
0, 0
0, 0
0, 0
0, 0
0, 0
0, 0
0, 0
0, 0
0, 0
0, 0
0, 0
0, 0
0, 0
0, 0
0, 0
0, 0
0, 0
0, 0
0, 0
0, 0
0, 0
0, 0
0, 0
0, 0
0, 0
0, 0
0, 0
0, 0
0, 0
0, 0
0, 0
0, 0
0, 0
0, 0
0, 0
0, 0
0, 0
0, 0
0, 0
0, 0
0, 0
0, 0
0, 0
0, 1
0, 0
0, 0
0, 0
0, 0
0, 0
0, 0
0, 0
0, 0
0, 0
0, 0
0, 0
0, 0
0, 0
0, 0
0, 0
0, 0
0, 0
0, 0
0, 0
0, 0
0, 0
0, 0
0, 0
0, 0
0, 0
0, 0
0, 0
0, 0
0, 0
0, 0
0, 0
0, 0
0, 0
0, 0
0, 0
0, 0
0, 0
0, 0
0, 0
0, 0
0, 0
0, 0
0, 0
0, 0
0, 0
0, 0
0, 0
0, 0
0, 0
0, 0
0, 0
0, 0
0, 0
0, 0
0, 0
0, 0
0, 0
0, 0
0, 0
0, 0
0, 0
0, 0
0, 0
0, 0
0, 0
0, 0
0, 0
0, 0
0, 0
0, 0
0, 0
0, 0
0, 0
0, 0
0, 0
0, 0
0, 0
0, 0
0, 0
0, 0
0, 0
0, 0
0, 0
0, 0
0, 0
0, 0
0, 0
0, 0
0, 0
0, 0
0, 0
0, 0
0, 0
0, 0
0, 0
0, 0
0, 0
0, 0
0, 0
0, 0
0, 0
0, 0
0, 0
0, 0
0, 0
0, 0
0, 0
0, 0
0, 0
0, 0
0, 0
0, 0
0, 0
0, 0
0, 0
0, 0
0, 0
0, 0
0, 0
0, 0
0, 0
0, 0
0, 0
0, 0
0, 0
0, 0
0, 0
0, 0
0, 0
0, 0
0, 0
0, 0
0, 0
0, 0
0, 0
0, 0
0, 0
0, 0
0, 0
0, 0
0, 0
0, 0
0, 0
0, 0
0, 0
0, 0
0, 0
0, 0
0, 0
0, 0
0, 0
0, 0
0, 0
0, 0
0, 0
0, 0
0, 0
0, 0
0, 0
0, 0
0, 0
0, 0
0, 0
0, 0
0, 0
0, 0
0, 0
0, 0
0, 0
0, 0
0, 0
0, 0
0, 0
0, 0
0, 0
0, 0
0, 0
0, 0
0, 0
0, 0
0, 0
0, 0
0, 0
0, 0
0, 0
0, 0
0, 0
0, 0
0, 0
0, 0
0, 0
0, 0
0, 0
0, 0
0, 0
0, 0
0, 0
0, 0
0, 0
0, 0
0, 0
0, 0
0, 0
0, 0
0, 0
0, 0
0, 0
0, 0
0, 0
0, 0
0, 0
0, 0
0, 0
0, 0
0, 0
0, 0
0, 0
0, 0
0, 0
0, 0
0, 0
0, 0
0, 0
0, 0
0, 0
0, 0
0, 0
0, 0
0, 0
0, 0
0, 0
0, 0
0, 0
0, 0
0, 0
0, 0
0, 0
0, 0
0, 0
0, 0
0, 0
0, 0
0, 0
0, 0
0, 0
0, 0
0, 0
0, 0
0, 0
0, 0
0, 0
0, 0
0, 0
0, 0
0, 0
0, 0
0, 0
0, 0
0, 0
0, 0
0, 0
0, 0
0, 0
0, 0
0, 0
0, 0
0, 0
0, 0
0, 0
0, 0
0, 0
0, 0
0, 0
0, 0
0, 0
0, 0
0, 0
0, 0
0, 0
0, 0
0, 0
0, 0
0, 0
0, 0
0, 0
0, 0
0, 0
0, 0
0, 0
0, 0
0, 0
0, 0
0, 0
0, 0
0, 0
0, 0
0, 0
0, 0
0, 0
0, 0
0, 0
0, 0
0, 0
0, 0
0, 0
0, 0
0, 0
0, 0
0, 0
0, 0
0, 0
0, 0
0, 0
0, 0
0, 0
0, 0
0, 0
0, 0
0, 0
0, 0
0, 0
0, 0
0, 0
0, 0
0, 0
0, 0
0, 0
0, 0
0, 0
0, 0
0, 0
0, 0
0, 0
0, 0
0, 0
0, 0
0, 0
0, 0
0, 0
0, 0
0, 0
0, 0
0, 0
0, 0
0, 0
0, 0
0, 0
0, 0
0, 0
0, 0
0, 0
0, 0
0, 0
0, 0
0, 0
0, 0
0, 0
0, 0
0, 0
#ENDOFDATA     end of spectrum data