File: host_upload/02-11-2024/rqc/uplink1/ps__0567_0717304816_000rfs_shot_346.msa
#FORMAT      : EMSA/MAS spectral data file
#VERSION     : TC202v2.0 PIXL
#TITLE       : Novarupta (sol567) subset1
#DATE        : 02-11-2024      Date in the format DD-MMM-YYYY, for example 07-JUL-2010
#TIME        :             The time of day at which the spectrum was recorded, in 24-hour format
#OWNER       : PIXL Flight Model       (PIXL will use this to indicate which instrument took the data.)
#NPOINTS     : 4096     Number of data points in the spectrum (This can be zero for configuration only files)
#NCOLUMNS    : 2     Number of data columns in the spectrum (This can be zero for configuration only files)
#XUNITS      : eV
#YUNITS      : COUNTS
#DATATYPE    : YY
#XPERCHAN    : 7.862, 7.881   eV per channel (separate by commas if more than one detector)
#OFFSET      : 18.5, -22.4         eV of first channel  (separate by commas if more than one detector
#SIGNALTYPE  : XRF
#YP_TEMP     : 1.369
#LIVETIME    : 8.83851, 8.81901   seconds (separate by commas if more than one detector)
#REALTIME    : 10, 10.0   seconds (separate by commas if more than one detector)
#SPECTRUM    : start of spectrum data
0, 0
0, 0
0, 0
0, 0
0, 0
0, 0
0, 0
0, 0
0, 0
0, 0
0, 0
0, 0
0, 0
0, 0
0, 0
0, 0
0, 0
0, 0
0, 0
0, 0
0, 0
0, 0
0, 0
0, 0
0, 0
0, 0
0, 0
0, 0
0, 0
0, 0
0, 1
0, 0
1, 0
0, 1
2, 2
1, 0
5, 0
1, 4
3, 5
6, 6
1, 4
3, 7
3, 2
1, 3
3, 6
1, 2
1, 4
2, 5
1, 6
5, 0
8, 8
11, 13
11, 16
12, 17
14, 14
18, 16
14, 12
11, 12
4, 9
7, 11
22, 22
26, 31
34, 45
39, 52
38, 49
44, 58
32, 36
41, 42
28, 38
49, 63
110, 110
182, 209
299, 312
375, 466
443, 519
483, 490
393, 419
329, 352
195, 240
131, 111
84, 66
53, 52
36, 35
28, 29
27, 34
27, 39
35, 42
25, 38
31, 32
17, 24
15, 9
14, 18
20, 25
31, 44
66, 80
124, 152
184, 209
239, 267
272, 322
296, 325
246, 287
229, 222
152, 161
103, 106
68, 68
44, 56
63, 48
49, 86
93, 106
127, 144
153, 173
171, 226
186, 207
232, 210
189, 202
175, 152
135, 141
115, 112
95, 100
82, 83
72, 82
50, 85
65, 76
54, 61
58, 55
37, 35
30, 31
27, 20
18, 15
8, 14
12, 15
8, 13
3, 5
4, 11
2, 6
3, 12
6, 9
12, 21
20, 18
18, 21
18, 35
37, 33
31, 22
18, 21
13, 20
14, 10
10, 10
9, 9
3, 7
11, 16
20, 25
50, 54
84, 97
146, 147
179, 238
247, 292
310, 341
340, 420
344, 368
289, 335
222, 238
152, 133
107, 107
75, 57
43, 36
29, 15
37, 30
37, 30
26, 40
40, 57
58, 56
55, 69
36, 63
51, 44
46, 25
22, 29
11, 24
13, 21
11, 10
9, 7
13, 15
11, 6
2, 6
17, 10
6, 13
8, 15
17, 13
15, 25
28, 34
41, 41
40, 65
70, 77
73, 52
49, 58
44, 46
40, 46
32, 33
28, 21
17, 23
10, 26
16, 13
11, 15
17, 18
13, 9
12, 13
14, 11
10, 15
13, 22
11, 22
16, 16
17, 31
15, 20
24, 19
12, 16
11, 10
12, 12
13, 8
14, 8
12, 11
7, 16
2, 9
16, 9
13, 15
12, 20
11, 21
16, 15
15, 23
22, 25
29, 26
25, 29
30, 39
29, 44
21, 21
25, 22
17, 20
17, 18
5, 14
12, 9
6, 7
5, 8
14, 19
14, 8
13, 14
13, 28
12, 18
17, 23
14, 25
32, 29
51, 56
29, 59
42, 49
45, 58
28, 50
40, 42
34, 32
33, 37
18, 24
22, 16
17, 16
25, 32
18, 14
20, 37
29, 55
68, 73
124, 152
194, 287
347, 453
575, 653
829, 1074
1102, 1419
1405, 1702
1576, 1859
1652, 1878
1604, 1760
1369, 1474
1179, 1152
864, 814
607, 547
336, 324
219, 191
96, 109
66, 46
38, 36
22, 22
22, 18
14, 11
14, 14
11, 24
17, 17
16, 15
23, 21
19, 28
46, 46
60, 70
97, 83
117, 143
146, 193
180, 227
215, 282
218, 292
248, 265
240, 283
186, 223
168, 173
123, 134
87, 81
50, 53
31, 24
17, 21
15, 13
8, 7
9, 7
10, 12
6, 17
4, 12
13, 10
18, 12
12, 10
10, 12
13, 13
12, 7
6, 8
8, 5
5, 7
3, 11
12, 11
5, 12
4, 4
3, 4
2, 8
0, 8
6, 9
7, 9
3, 6
9, 5
8, 10
7, 5
7, 9
5, 10
2, 6
5, 6
6, 2
6, 7
3, 10
3, 10
2, 10
5, 6
5, 7
7, 8
6, 4
7, 13
4, 3
3, 3
8, 7
9, 7
9, 4
9, 7
7, 7
6, 9
6, 6
8, 10
7, 6
12, 12
8, 8
11, 14
6, 20
7, 23
12, 14
11, 9
13, 10
10, 13
9, 14
9, 7
9, 8
5, 7
5, 7
5, 6
3, 4
5, 7
6, 9
6, 11
6, 5
4, 9
6, 4
6, 6
6, 5
8, 10
6, 10
5, 6
4, 4
4, 6
9, 4
4, 5
5, 7
3, 7
7, 6
5, 9
6, 9
2, 5
2, 4
4, 9
8, 6
5, 7
6, 8
4, 3
8, 4
5, 9
8, 4
8, 4
7, 6
5, 7
5, 7
6, 8
6, 4
5, 4
2, 3
4, 8
5, 2
3, 3
1, 4
2, 11
7, 7
4, 8
6, 3
5, 4
7, 7
4, 4
2, 2
4, 9
5, 5
7, 4
6, 4
4, 1
2, 5
5, 5
7, 9
3, 5
3, 6
2, 5
4, 3
4, 3
4, 3
5, 3
7, 3
6, 2
2, 5
3, 4
4, 6
5, 7
6, 5
4, 3
4, 2
1, 4
4, 1
7, 4
7, 1
3, 6
0, 2
2, 6
9, 4
2, 4
2, 4
8, 1
6, 5
2, 4
2, 6
7, 7
1, 0
5, 3
5, 3
2, 5
6, 5
2, 0
5, 4
1, 3
3, 6
8, 2
3, 3
4, 4
3, 3
2, 1
1, 2
4, 0
3, 4
1, 2
0, 2
3, 5
1, 4
2, 3
2, 2
1, 3
3, 5
6, 1
0, 2
3, 2
2, 1
6, 2
4, 4
2, 4
2, 2
1, 3
2, 0
1, 0
5, 5
3, 2
1, 2
2, 3
3, 3
1, 3
2, 1
2, 1
2, 5
1, 4
3, 1
2, 0
2, 0
1, 0
4, 3
1, 4
1, 4
1, 2
3, 4
2, 0
1, 0
4, 1
4, 4
4, 4
2, 3
2, 1
4, 4
1, 4
3, 2
6, 5
1, 2
3, 2
4, 1
5, 3
1, 2
1, 3
1, 5
4, 5
2, 7
4, 1
3, 3
1, 2
4, 2
2, 3
4, 7
3, 2
0, 4
0, 4
2, 1
1, 1
0, 2
2, 0
0, 1
0, 1
1, 3
3, 6
4, 2
4, 0
2, 1
2, 2
1, 1
0, 5
0, 1
0, 3
1, 3
0, 1
0, 2
0, 2
1, 2
2, 3
4, 0
1, 2
3, 1
1, 0
1, 2
2, 0
3, 1
1, 0
1, 2
1, 2
0, 1
1, 1
0, 2
3, 2
1, 0
3, 2
1, 0
1, 1
0, 0
2, 0
3, 1
2, 4
1, 0
2, 2
1, 0
3, 3
2, 0
0, 0
0, 0
1, 0
1, 2
0, 0
1, 4
1, 0
1, 2
2, 1
1, 0
1, 1
1, 1
0, 0
2, 0
1, 0
0, 0
1, 0
1, 1
1, 1
1, 0
0, 1
2, 3
1, 2
0, 1
1, 2
0, 2
1, 2
1, 0
2, 0
0, 0
0, 1
2, 1
1, 1
0, 0
0, 0
1, 1
1, 0
0, 0
1, 2
0, 0
0, 0
3, 0
0, 0
1, 0
1, 1
2, 1
0, 0
0, 1
0, 0
1, 1
1, 2
0, 1
1, 1
1, 2
0, 0
0, 2
0, 1
1, 0
1, 1
0, 1
2, 0
1, 0
0, 1
1, 0
0, 0
1, 2
0, 0
0, 0
1, 1
1, 0
1, 1
0, 0
1, 0
1, 0
0, 0
0, 0
1, 2
0, 0
1, 0
1, 2
0, 1
1, 0
2, 0
0, 1
0, 0
0, 0
0, 1
1, 0
0, 0
1, 0
0, 0
1, 2
1, 1
0, 2
0, 0
1, 1
0, 0
0, 0
0, 0
1, 0
0, 0
1, 1
1, 0
0, 0
1, 0
1, 0
1, 0
1, 0
1, 0
1, 0
0, 2
1, 0
0, 0
0, 0
0, 0
0, 0
0, 0
0, 1
0, 0
0, 0
0, 0
0, 1
0, 0
0, 1
1, 1
0, 0
0, 0
0, 1
0, 0
0, 0
0, 0
1, 0
2, 0
1, 0
0, 1
1, 1
2, 0
0, 2
0, 0
0, 1
0, 0
0, 1
0, 0
0, 0
1, 1
0, 0
0, 0
0, 0
0, 0
1, 0
0, 0
1, 1
1, 0
0, 0
0, 1
0, 1
0, 1
1, 0
0, 0
0, 0
1, 0
0, 0
0, 0
2, 0
1, 0
0, 1
0, 0
0, 1
1, 0
0, 0
0, 1
0, 0
0, 0
1, 0
0, 0
0, 0
0, 0
0, 0
0, 1
0, 0
0, 0
0, 0
0, 0
0, 0
2, 0
0, 1
1, 0
0, 0
1, 1
2, 0
0, 0
0, 0
0, 0
0, 0
0, 0
0, 1
0, 0
0, 0
0, 0
0, 0
0, 0
0, 1
0, 0
0, 0
1, 0
0, 0
1, 0
0, 0
0, 0
0, 0
0, 0
0, 0
0, 0
0, 0
0, 0
1, 0
0, 0
1, 1
0, 1
0, 2
0, 0
0, 0
1, 0
0, 0
0, 0
1, 1
0, 0
0, 0
0, 0
0, 0
1, 0
0, 0
0, 0
0, 0
0, 1
0, 2
0, 0
0, 1
0, 0
0, 0
0, 0
1, 0
0, 0
0, 1
1, 0
0, 0
0, 0
0, 0
0, 0
0, 1
0, 0
0, 0
0, 0
1, 0
0, 0
0, 0
0, 0
0, 0
0, 0
0, 0
0, 0
0, 0
0, 0
0, 0
0, 0
0, 0
0, 0
0, 0
0, 0
0, 0
0, 0
0, 0
0, 0
0, 0
1, 0
0, 1
0, 0
0, 0
0, 0
1, 0
0, 0
0, 0
0, 0
0, 1
0, 0
0, 1
0, 0
0, 0
0, 0
0, 0
0, 0
0, 0
0, 0
0, 0
0, 0
0, 0
0, 0
0, 0
1, 0
0, 0
0, 0
0, 0
0, 0
0, 0
0, 0
0, 0
0, 0
0, 1
0, 0
0, 0
0, 1
0, 0
0, 0
0, 0
0, 0
0, 0
0, 0
0, 0
0, 0
0, 0
0, 0
0, 0
0, 0
0, 0
0, 0
0, 0
0, 0
0, 0
0, 0
0, 0
0, 0
0, 0
0, 0
0, 0
0, 0
0, 0
0, 0
0, 0
0, 0
0, 0
0, 0
0, 0
0, 0
0, 0
0, 0
0, 0
0, 0
0, 0
0, 0
0, 0
0, 0
0, 0
0, 0
0, 0
0, 0
0, 0
0, 0
0, 0
0, 0
0, 0
0, 0
0, 0
0, 0
0, 0
0, 0
0, 0
0, 0
0, 0
0, 0
0, 0
0, 0
0, 0
0, 0
0, 0
0, 0
0, 1
0, 0
0, 0
0, 0
0, 0
0, 0
0, 0
0, 0
0, 0
0, 0
0, 0
0, 0
0, 0
0, 0
0, 0
0, 0
0, 0
0, 0
0, 0
0, 0
0, 0
0, 0
0, 0
0, 0
0, 0
0, 0
0, 0
0, 0
0, 0
1, 0
0, 0
0, 0
0, 0
0, 0
0, 0
0, 0
0, 0
0, 0
0, 0
0, 0
0, 0
0, 0
0, 0
0, 0
0, 0
0, 0
0, 0
0, 0
0, 0
0, 0
0, 0
0, 0
0, 0
0, 0
0, 0
0, 0
0, 0
0, 0
0, 0
0, 0
0, 0
0, 0
0, 0
0, 0
0, 0
0, 0
0, 0
0, 0
0, 0
0, 0
0, 0
0, 0
0, 0
0, 0
0, 0
0, 0
0, 0
0, 0
0, 0
0, 0
0, 0
0, 0
0, 0
0, 0
0, 0
0, 0
0, 0
0, 0
0, 0
0, 0
0, 0
0, 0
0, 0
0, 0
0, 0
0, 0
0, 0
0, 0
0, 0
0, 0
0, 0
0, 0
0, 0
0, 0
0, 0
0, 0
0, 0
0, 0
0, 0
0, 0
0, 0
0, 0
0, 0
0, 0
0, 0
0, 0
0, 0
0, 0
0, 0
0, 0
0, 0
0, 0
0, 0
0, 0
0, 0
0, 0
0, 0
0, 0
0, 0
0, 0
0, 0
0, 0
0, 0
0, 0
0, 0
0, 0
0, 0
0, 0
0, 0
0, 0
0, 0
0, 0
0, 0
0, 0
0, 0
0, 0
0, 0
0, 0
0, 0
0, 0
0, 0
0, 0
0, 0
0, 0
0, 0
0, 0
0, 0
0, 0
0, 0
0, 0
0, 0
0, 0
0, 0
0, 0
0, 0
0, 0
0, 0
0, 0
0, 0
0, 0
0, 0
0, 0
0, 0
0, 0
0, 0
0, 0
0, 0
0, 0
0, 0
0, 0
0, 0
0, 0
0, 0
0, 0
0, 0
0, 0
0, 0
0, 0
0, 0
0, 0
0, 0
0, 0
0, 0
0, 0
0, 0
0, 0
0, 0
0, 0
0, 0
0, 0
0, 0
0, 0
0, 0
0, 0
0, 0
0, 0
0, 0
0, 0
0, 0
0, 0
0, 0
0, 0
0, 0
0, 0
0, 0
0, 0
0, 0
0, 0
0, 0
0, 0
0, 0
0, 0
0, 0
0, 0
0, 0
0, 0
0, 0
0, 0
0, 0
0, 0
0, 0
0, 0
0, 0
0, 0
0, 0
0, 0
0, 0
0, 0
0, 0
0, 0
0, 0
0, 0
0, 0
0, 0
0, 0
0, 0
0, 0
0, 0
0, 0
0, 0
0, 0
0, 0
0, 0
0, 0
0, 0
0, 0
0, 0
0, 0
0, 0
0, 0
0, 0
0, 0
0, 0
0, 0
0, 0
0, 0
0, 0
0, 0
0, 0
0, 0
0, 0
0, 0
0, 0
0, 0
0, 0
0, 0
0, 0
0, 0
0, 0
0, 0
0, 0
0, 0
0, 0
0, 0
0, 0
0, 0
0, 0
0, 0
0, 0
0, 0
0, 0
0, 0
0, 0
0, 0
0, 0
0, 0
0, 0
0, 0
0, 0
0, 0
0, 0
0, 0
0, 0
0, 0
0, 0
0, 0
0, 0
0, 0
0, 0
0, 0
0, 0
0, 0
0, 0
0, 0
0, 0
0, 0
0, 0
0, 0
0, 0
0, 0
0, 0
0, 0
0, 0
0, 0
0, 0
0, 0
0, 0
0, 0
0, 0
0, 0
0, 0
0, 0
0, 0
0, 0
0, 0
0, 0
0, 0
0, 0
0, 0
0, 0
0, 0
0, 0
0, 0
0, 0
0, 0
0, 0
0, 0
0, 0
0, 0
0, 0
0, 0
0, 0
0, 0
0, 0
0, 0
0, 0
0, 0
0, 0
0, 0
0, 0
0, 0
0, 0
0, 0
0, 0
0, 0
0, 0
0, 0
0, 0
0, 0
0, 0
0, 0
0, 0
0, 0
0, 0
0, 0
0, 0
0, 0
0, 0
0, 0
0, 0
0, 0
0, 0
0, 0
0, 0
0, 0
0, 0
0, 0
0, 0
0, 0
0, 0
0, 0
#ENDOFDATA     end of spectrum data