File: host_upload/02-11-2024/rqc/uplink1/ps__0567_0717304816_000rfs_shot_213.msa
#FORMAT      : EMSA/MAS spectral data file
#VERSION     : TC202v2.0 PIXL
#TITLE       : Novarupta (sol567) subset1
#DATE        : 02-11-2024      Date in the format DD-MMM-YYYY, for example 07-JUL-2010
#TIME        :             The time of day at which the spectrum was recorded, in 24-hour format
#OWNER       : PIXL Flight Model       (PIXL will use this to indicate which instrument took the data.)
#NPOINTS     : 4096     Number of data points in the spectrum (This can be zero for configuration only files)
#NCOLUMNS    : 2     Number of data columns in the spectrum (This can be zero for configuration only files)
#XUNITS      : eV
#YUNITS      : COUNTS
#DATATYPE    : YY
#XPERCHAN    : 7.862, 7.881   eV per channel (separate by commas if more than one detector)
#OFFSET      : 18.5, -22.4         eV of first channel  (separate by commas if more than one detector
#SIGNALTYPE  : XRF
#YP_TEMP     : 0.728
#LIVETIME    : 8.84833, 8.81997   seconds (separate by commas if more than one detector)
#REALTIME    : 10, 10.0   seconds (separate by commas if more than one detector)
#SPECTRUM    : start of spectrum data
0, 0
0, 0
0, 0
0, 0
0, 0
0, 0
0, 0
0, 0
0, 0
0, 0
0, 0
0, 0
0, 0
0, 0
0, 0
0, 0
0, 0
0, 0
0, 0
0, 0
0, 0
0, 0
0, 0
0, 0
0, 0
0, 0
0, 0
0, 1
0, 0
0, 0
0, 0
1, 0
0, 0
1, 1
2, 1
1, 1
3, 3
5, 3
5, 3
4, 1
3, 7
3, 3
2, 6
3, 4
2, 4
5, 3
5, 1
3, 3
1, 1
3, 3
3, 4
8, 14
8, 12
20, 10
7, 15
13, 15
16, 21
6, 15
4, 10
8, 8
17, 11
27, 28
35, 30
37, 56
40, 46
41, 52
37, 36
27, 34
30, 49
47, 77
95, 126
185, 236
314, 338
376, 445
444, 542
451, 477
388, 407
268, 318
238, 214
125, 136
80, 83
50, 46
23, 37
32, 32
29, 32
28, 36
30, 30
25, 27
24, 33
19, 22
23, 19
15, 23
24, 16
28, 48
86, 89
127, 139
186, 231
212, 319
293, 357
287, 316
284, 297
219, 216
178, 181
86, 97
72, 85
61, 47
53, 55
50, 87
72, 109
133, 134
149, 178
176, 185
194, 230
195, 210
171, 188
150, 176
102, 121
101, 95
99, 100
76, 99
64, 79
63, 64
51, 65
59, 54
53, 42
31, 36
38, 41
15, 17
28, 20
11, 14
9, 11
6, 13
3, 9
10, 5
7, 7
8, 10
8, 7
13, 18
18, 33
21, 24
29, 31
30, 38
20, 26
21, 24
17, 19
14, 21
14, 10
8, 4
8, 12
13, 21
22, 42
62, 57
85, 103
136, 181
189, 268
257, 346
362, 407
317, 386
335, 370
238, 337
228, 266
141, 162
101, 104
49, 69
32, 43
33, 31
23, 22
29, 43
37, 46
51, 46
55, 65
42, 71
47, 58
48, 46
40, 37
35, 25
21, 17
14, 12
11, 15
11, 4
7, 6
2, 10
5, 5
7, 9
5, 15
10, 14
12, 27
17, 21
37, 37
32, 48
49, 53
56, 56
52, 73
63, 65
37, 65
35, 47
25, 43
23, 25
23, 24
19, 20
15, 20
16, 10
16, 14
7, 11
10, 11
14, 18
9, 22
11, 21
18, 20
16, 15
19, 20
13, 31
12, 16
20, 15
15, 15
15, 13
15, 9
7, 15
10, 10
11, 8
10, 12
12, 8
12, 20
15, 18
12, 25
19, 17
16, 19
27, 32
19, 37
18, 31
23, 31
27, 25
24, 27
27, 33
16, 20
11, 23
13, 19
9, 14
13, 11
8, 13
13, 15
12, 12
9, 13
13, 12
14, 22
22, 28
18, 35
29, 43
33, 47
36, 56
40, 48
48, 52
44, 47
31, 37
39, 46
33, 33
21, 16
16, 17
14, 23
17, 21
24, 17
17, 31
30, 51
74, 103
102, 185
200, 283
341, 464
577, 740
776, 1049
1030, 1359
1311, 1626
1537, 1756
1604, 1876
1457, 1632
1342, 1418
1045, 1140
758, 773
535, 459
320, 342
193, 185
110, 93
59, 46
31, 27
29, 27
13, 13
13, 23
16, 23
15, 16
12, 21
9, 24
21, 26
32, 44
40, 52
60, 86
77, 87
101, 139
152, 188
191, 240
218, 257
231, 266
215, 269
221, 262
171, 201
161, 153
123, 118
83, 72
50, 50
28, 25
24, 17
8, 10
4, 5
5, 12
9, 5
7, 10
13, 13
10, 11
11, 15
11, 14
20, 12
11, 23
12, 5
10, 7
6, 14
2, 8
8, 3
8, 9
6, 6
4, 8
10, 3
7, 9
1, 7
3, 6
7, 7
3, 8
4, 6
4, 7
4, 5
5, 4
8, 5
6, 7
8, 5
8, 7
9, 7
5, 10
2, 5
3, 11
8, 7
7, 3
7, 8
7, 7
5, 10
10, 7
5, 5
10, 9
8, 9
7, 10
5, 9
4, 7
10, 6
7, 8
6, 7
6, 13
6, 10
6, 12
3, 11
15, 12
10, 13
6, 10
7, 10
6, 10
6, 12
5, 13
3, 3
2, 8
5, 5
5, 5
3, 3
2, 7
4, 4
5, 8
5, 8
3, 6
7, 5
5, 5
4, 7
5, 4
4, 6
6, 4
7, 4
2, 6
3, 10
5, 2
2, 9
3, 5
6, 5
2, 5
8, 9
3, 5
4, 2
7, 10
5, 2
4, 2
4, 5
6, 4
3, 3
4, 4
11, 5
2, 6
2, 5
4, 6
6, 4
2, 3
7, 9
2, 0
1, 5
4, 9
5, 5
1, 9
3, 2
7, 4
2, 4
2, 3
10, 9
6, 2
2, 5
6, 4
1, 4
3, 5
5, 2
4, 4
1, 3
2, 3
3, 2
4, 0
3, 3
3, 3
2, 1
3, 6
2, 3
3, 4
7, 1
3, 6
2, 2
4, 4
4, 5
1, 5
3, 4
3, 3
3, 4
1, 3
5, 3
3, 5
3, 5
1, 0
5, 3
5, 5
2, 4
2, 5
4, 2
2, 3
7, 3
4, 3
2, 2
2, 2
4, 2
3, 6
1, 4
5, 2
3, 3
1, 1
2, 3
4, 4
1, 3
2, 7
4, 3
2, 5
2, 4
5, 5
4, 1
6, 2
4, 5
3, 2
1, 5
3, 3
2, 5
1, 3
0, 2
2, 3
3, 3
2, 2
5, 1
1, 3
3, 0
5, 4
2, 1
1, 1
2, 0
3, 2
4, 1
3, 4
1, 2
2, 3
1, 3
1, 4
4, 3
2, 2
3, 2
3, 1
1, 4
2, 6
3, 4
2, 3
1, 1
0, 1
2, 4
2, 2
0, 1
2, 2
2, 2
3, 1
2, 3
2, 1
6, 1
0, 3
0, 2
1, 1
2, 0
1, 3
3, 0
0, 2
6, 1
1, 2
1, 2
1, 3
1, 4
1, 4
0, 1
3, 5
2, 2
2, 2
1, 4
2, 1
1, 3
5, 4
1, 4
3, 3
1, 2
2, 0
0, 1
3, 1
3, 3
4, 1
2, 1
1, 2
1, 5
0, 3
2, 1
0, 0
0, 3
2, 2
1, 1
0, 3
2, 2
1, 1
4, 0
0, 3
2, 0
1, 1
2, 3
2, 4
0, 1
4, 2
0, 2
1, 2
2, 4
1, 2
2, 2
2, 1
2, 1
0, 3
0, 0
1, 0
1, 2
0, 1
2, 0
0, 1
1, 1
1, 2
0, 3
2, 0
0, 1
1, 0
1, 2
1, 0
2, 3
0, 4
1, 4
1, 1
1, 0
0, 0
2, 2
0, 2
0, 0
2, 2
3, 2
1, 0
1, 3
1, 0
0, 1
2, 0
0, 0
0, 0
1, 1
1, 1
2, 0
1, 2
0, 0
3, 0
0, 0
1, 0
0, 0
2, 1
0, 0
1, 1
1, 1
0, 1
1, 2
0, 2
2, 1
1, 1
2, 0
0, 0
1, 1
2, 0
1, 1
2, 0
1, 2
0, 2
1, 1
1, 0
2, 1
0, 0
0, 1
0, 2
0, 0
0, 0
1, 0
1, 1
1, 0
0, 1
0, 0
1, 1
0, 1
1, 0
1, 1
0, 0
1, 1
1, 1
0, 1
0, 0
0, 2
0, 1
0, 0
0, 0
2, 0
0, 0
0, 1
2, 0
0, 0
2, 0
0, 0
0, 0
1, 1
0, 0
0, 0
1, 0
1, 1
0, 1
0, 0
1, 0
1, 0
0, 0
1, 0
0, 0
1, 0
0, 0
0, 0
0, 0
0, 1
0, 0
0, 0
1, 1
0, 0
1, 0
0, 0
0, 0
0, 0
0, 0
1, 2
2, 1
1, 0
0, 0
1, 0
1, 0
0, 0
0, 1
1, 1
0, 1
0, 1
0, 2
0, 1
0, 0
0, 0
1, 0
1, 0
2, 0
0, 1
0, 1
2, 1
0, 0
1, 1
0, 0
0, 0
0, 0
0, 1
0, 0
0, 1
0, 1
0, 0
0, 1
0, 0
0, 0
0, 0
1, 0
0, 0
0, 0
0, 0
0, 0
0, 0
1, 1
1, 0
1, 1
0, 0
0, 0
0, 0
0, 0
0, 0
0, 0
0, 0
1, 0
0, 0
0, 0
0, 0
1, 0
0, 2
0, 0
0, 0
0, 0
1, 0
0, 0
0, 1
0, 0
1, 0
0, 0
0, 2
0, 0
1, 0
0, 0
1, 0
1, 0
1, 0
0, 0
0, 0
0, 0
0, 0
0, 1
0, 0
0, 0
0, 1
0, 0
0, 0
0, 0
0, 0
0, 1
0, 0
2, 0
2, 0
0, 0
0, 0
0, 0
0, 2
0, 1
0, 0
0, 1
1, 0
0, 0
0, 0
0, 0
0, 0
0, 0
0, 0
0, 0
2, 0
0, 0
1, 0
0, 0
1, 2
0, 0
0, 0
0, 0
0, 0
0, 0
0, 1
0, 0
0, 0
0, 0
0, 0
0, 1
0, 0
0, 0
0, 0
0, 0
0, 0
0, 0
0, 0
0, 0
1, 0
0, 0
0, 0
0, 0
0, 0
0, 0
0, 0
0, 0
0, 1
0, 1
0, 0
0, 0
1, 0
0, 0
1, 0
0, 0
0, 0
0, 0
0, 0
0, 1
0, 0
0, 0
0, 1
0, 0
0, 0
0, 0
0, 0
0, 1
0, 0
1, 0
0, 1
0, 0
0, 0
0, 0
0, 1
0, 0
0, 0
0, 0
0, 0
0, 0
0, 0
0, 0
0, 0
0, 0
0, 0
0, 0
0, 0
0, 0
0, 0
0, 0
1, 0
0, 0
0, 0
0, 0
1, 0
0, 0
0, 0
0, 1
0, 0
0, 0
0, 0
0, 0
0, 0
0, 0
0, 0
0, 0
0, 0
0, 0
0, 0
0, 0
0, 0
0, 0
0, 0
0, 0
1, 0
0, 0
0, 0
0, 0
0, 0
0, 0
0, 0
0, 0
0, 0
0, 0
0, 0
0, 0
0, 1
0, 0
0, 0
0, 0
0, 0
0, 0
0, 0
0, 0
0, 0
0, 0
0, 0
0, 0
0, 0
0, 0
0, 0
0, 0
0, 0
0, 0
0, 0
0, 0
0, 0
0, 0
0, 0
0, 0
1, 0
0, 0
0, 0
0, 0
0, 0
0, 0
0, 0
0, 0
0, 0
0, 0
0, 0
0, 0
0, 0
0, 0
0, 0
0, 0
0, 0
1, 0
0, 1
0, 0
0, 0
0, 0
0, 0
0, 0
0, 0
0, 0
0, 0
0, 0
0, 0
0, 0
0, 0
0, 0
0, 0
0, 0
0, 0
0, 0
0, 0
0, 0
0, 0
0, 0
0, 0
0, 0
0, 0
0, 0
0, 0
0, 0
0, 0
0, 0
0, 0
0, 0
0, 0
0, 0
0, 0
0, 0
0, 0
0, 0
0, 0
0, 0
0, 0
0, 0
0, 0
0, 0
0, 0
0, 0
0, 0
0, 0
0, 0
0, 0
0, 0
0, 0
0, 0
0, 0
0, 0
0, 0
0, 0
0, 0
0, 0
0, 0
0, 0
0, 0
0, 0
0, 0
0, 0
0, 0
0, 0
0, 0
0, 0
0, 0
0, 0
0, 0
0, 0
0, 0
0, 0
0, 0
0, 0
0, 0
0, 0
0, 0
0, 0
0, 0
0, 0
0, 0
0, 0
0, 0
0, 0
0, 0
0, 0
0, 0
0, 0
0, 0
0, 0
0, 0
0, 0
0, 0
0, 0
0, 0
0, 0
0, 0
0, 0
0, 0
0, 0
0, 0
0, 0
0, 0
0, 0
0, 0
0, 0
0, 0
0, 0
0, 0
0, 0
0, 0
0, 0
0, 0
0, 0
0, 0
0, 0
0, 0
0, 0
0, 0
0, 0
0, 0
0, 0
0, 0
0, 0
0, 0
0, 0
0, 0
0, 0
0, 0
0, 0
0, 0
0, 0
0, 0
0, 0
0, 0
0, 0
0, 0
0, 0
0, 0
0, 0
0, 0
0, 0
0, 0
0, 0
0, 0
0, 0
0, 0
0, 0
0, 0
0, 0
0, 0
0, 0
0, 0
0, 0
0, 0
0, 0
0, 0
0, 0
0, 0
0, 0
0, 0
0, 0
0, 0
0, 0
0, 0
0, 0
0, 0
0, 0
0, 0
0, 0
0, 0
0, 0
0, 0
0, 0
0, 0
0, 0
0, 0
0, 0
0, 0
0, 0
0, 0
0, 0
0, 0
0, 0
0, 0
0, 0
0, 0
0, 0
0, 0
0, 0
0, 0
0, 0
0, 0
0, 0
0, 0
0, 0
0, 0
0, 0
0, 0
1, 0
0, 0
0, 0
0, 0
0, 0
0, 0
0, 0
0, 0
0, 0
0, 0
0, 0
0, 0
0, 0
0, 0
0, 0
0, 0
0, 0
0, 0
0, 0
0, 0
0, 0
0, 0
0, 0
0, 0
0, 0
0, 0
0, 0
0, 0
0, 0
0, 0
0, 0
0, 0
0, 0
0, 0
0, 0
0, 0
0, 0
0, 0
0, 0
0, 0
0, 0
0, 0
0, 0
0, 0
0, 0
0, 0
0, 0
0, 0
0, 0
0, 0
0, 0
0, 0
0, 0
0, 0
0, 0
0, 0
0, 0
0, 0
0, 0
0, 0
0, 0
0, 0
0, 0
0, 0
0, 0
0, 0
0, 0
0, 0
0, 0
0, 0
0, 0
0, 0
0, 0
0, 0
0, 0
0, 0
0, 0
0, 0
0, 0
0, 0
0, 0
0, 0
0, 0
0, 0
0, 0
0, 0
0, 0
0, 0
0, 0
0, 0
0, 0
0, 0
0, 0
0, 0
0, 0
0, 0
0, 0
0, 0
0, 0
0, 0
0, 0
0, 0
0, 0
0, 0
0, 0
0, 0
0, 0
0, 0
0, 0
0, 0
0, 0
0, 0
0, 0
0, 0
0, 0
0, 0
0, 0
0, 0
0, 0
0, 0
0, 0
0, 0
0, 0
0, 0
0, 0
0, 0
0, 0
0, 0
0, 0
0, 0
0, 0
0, 0
0, 0
0, 0
0, 0
0, 0
0, 0
0, 0
0, 0
0, 0
0, 0
0, 0
0, 0
0, 0
0, 0
0, 0
0, 0
0, 0
0, 0
0, 0
0, 0
0, 0
0, 0
0, 0
0, 0
0, 0
0, 0
0, 0
0, 0
0, 0
0, 0
0, 0
0, 0
0, 0
0, 0
0, 0
0, 0
0, 0
0, 0
0, 0
0, 0
0, 0
0, 0
0, 0
0, 0
0, 0
0, 0
0, 0
0, 0
0, 0
0, 0
0, 0
0, 0
0, 0
0, 0
0, 0
0, 0
0, 0
0, 0
0, 0
0, 0
0, 0
0, 0
0, 0
0, 0
0, 0
0, 0
0, 0
0, 0
0, 0
0, 0
0, 0
0, 0
0, 0
0, 0
0, 0
0, 0
0, 0
0, 0
0, 0
#ENDOFDATA     end of spectrum data