File: host_upload/02-11-2024/rqc/uplink1/ps__0567_0717304816_000rfs_shot_100.msa
#FORMAT      : EMSA/MAS spectral data file
#VERSION     : TC202v2.0 PIXL
#TITLE       : Novarupta (sol567) subset1
#DATE        : 02-11-2024      Date in the format DD-MMM-YYYY, for example 07-JUL-2010
#TIME        :             The time of day at which the spectrum was recorded, in 24-hour format
#OWNER       : PIXL Flight Model       (PIXL will use this to indicate which instrument took the data.)
#NPOINTS     : 4096     Number of data points in the spectrum (This can be zero for configuration only files)
#NCOLUMNS    : 2     Number of data columns in the spectrum (This can be zero for configuration only files)
#XUNITS      : eV
#YUNITS      : COUNTS
#DATATYPE    : YY
#XPERCHAN    : 7.862, 7.881   eV per channel (separate by commas if more than one detector)
#OFFSET      : 18.5, -22.4         eV of first channel  (separate by commas if more than one detector
#SIGNALTYPE  : XRF
#YP_TEMP     : -0.908
#LIVETIME    : 8.84503, 8.82857   seconds (separate by commas if more than one detector)
#REALTIME    : 10, 10.0   seconds (separate by commas if more than one detector)
#SPECTRUM    : start of spectrum data
0, 0
0, 0
0, 0
0, 0
0, 0
0, 0
0, 0
0, 0
0, 0
0, 0
0, 0
0, 0
0, 0
0, 0
0, 0
0, 0
0, 0
0, 0
0, 0
0, 0
0, 0
0, 0
0, 0
0, 0
0, 0
0, 0
0, 0
0, 0
0, 0
0, 0
0, 0
0, 1
0, 0
1, 1
1, 2
1, 2
3, 1
2, 3
5, 6
5, 3
3, 5
1, 0
2, 5
4, 1
3, 2
3, 1
1, 2
1, 7
1, 6
4, 2
5, 6
4, 10
15, 14
15, 20
12, 25
14, 16
9, 13
8, 10
9, 9
5, 15
16, 23
32, 30
37, 31
53, 48
46, 61
50, 52
28, 40
38, 36
39, 36
69, 69
103, 142
173, 228
310, 311
381, 462
443, 529
437, 521
406, 456
297, 356
211, 241
135, 121
77, 81
19, 48
37, 35
38, 40
23, 21
30, 23
36, 31
32, 32
26, 24
18, 21
7, 23
19, 20
27, 33
35, 49
74, 79
117, 146
178, 226
261, 315
270, 319
280, 291
247, 275
174, 226
138, 150
84, 100
74, 68
54, 50
44, 62
58, 72
93, 97
132, 146
158, 205
190, 249
195, 232
182, 206
190, 209
159, 147
132, 119
103, 108
78, 97
75, 93
92, 71
62, 81
57, 64
61, 58
39, 40
37, 25
27, 23
19, 14
7, 21
12, 15
12, 9
11, 13
15, 9
8, 6
11, 6
3, 11
13, 14
25, 13
23, 19
24, 31
18, 34
17, 29
25, 39
25, 22
17, 17
16, 16
14, 12
12, 9
12, 18
19, 23
31, 36
53, 78
78, 96
136, 178
224, 238
278, 336
323, 397
328, 420
300, 369
262, 303
214, 213
131, 150
73, 107
60, 47
38, 34
23, 36
20, 31
31, 41
36, 39
57, 49
51, 69
57, 59
57, 55
44, 53
31, 32
15, 21
21, 22
8, 13
13, 12
12, 7
10, 6
5, 10
17, 9
14, 10
9, 18
17, 18
23, 20
27, 21
30, 41
46, 49
41, 63
63, 67
41, 84
54, 73
44, 43
28, 49
33, 30
25, 20
15, 18
16, 22
12, 19
10, 18
7, 15
10, 16
13, 9
15, 16
11, 21
17, 23
14, 16
10, 25
16, 19
18, 24
10, 27
12, 11
15, 14
10, 13
11, 10
15, 5
9, 15
6, 18
8, 8
18, 12
4, 3
12, 12
22, 15
15, 25
24, 14
18, 41
25, 21
26, 37
28, 35
16, 31
20, 23
26, 26
16, 21
19, 17
13, 16
13, 15
15, 13
20, 12
7, 10
11, 12
16, 17
11, 26
15, 24
22, 26
22, 29
33, 34
47, 49
48, 41
33, 46
47, 36
51, 50
26, 36
38, 30
26, 39
24, 27
18, 20
19, 17
15, 15
24, 28
28, 31
54, 70
82, 106
147, 189
264, 356
424, 518
658, 801
898, 1073
1144, 1437
1473, 1747
1664, 1918
1615, 1849
1511, 1617
1296, 1339
1000, 1056
715, 746
516, 500
318, 251
185, 179
95, 102
57, 49
35, 34
15, 21
20, 17
19, 19
21, 19
16, 17
22, 15
27, 19
14, 22
25, 34
53, 60
49, 66
88, 98
137, 159
161, 202
200, 236
247, 261
264, 274
239, 270
232, 238
174, 211
163, 136
93, 105
75, 88
51, 42
34, 29
12, 14
19, 11
13, 7
6, 11
9, 8
12, 10
4, 11
11, 16
10, 13
17, 15
13, 10
11, 12
13, 15
5, 5
8, 4
11, 5
4, 4
6, 4
9, 9
3, 3
3, 4
9, 6
10, 6
10, 7
2, 6
9, 5
3, 3
7, 6
4, 9
6, 5
6, 5
3, 4
9, 4
5, 7
8, 7
7, 9
10, 6
7, 10
9, 7
5, 12
9, 10
6, 4
9, 8
12, 11
8, 7
11, 4
12, 9
5, 2
6, 3
4, 6
8, 6
6, 4
12, 14
3, 13
11, 7
13, 9
9, 7
8, 17
13, 18
8, 13
17, 11
11, 9
16, 9
6, 12
9, 4
8, 2
6, 6
7, 4
4, 3
10, 5
3, 9
4, 3
3, 8
4, 7
5, 13
4, 4
10, 5
9, 4
11, 10
4, 4
8, 5
7, 9
5, 10
7, 3
4, 9
5, 7
4, 4
2, 1
5, 6
7, 5
6, 3
3, 8
6, 4
7, 6
2, 6
2, 6
6, 4
2, 6
9, 2
5, 6
7, 4
3, 5
7, 7
5, 7
4, 4
2, 3
4, 3
5, 2
10, 5
1, 4
5, 5
5, 6
4, 5
5, 4
4, 8
5, 11
8, 4
3, 5
4, 4
4, 3
4, 5
5, 4
5, 5
5, 3
6, 3
6, 2
4, 1
5, 7
9, 3
5, 3
3, 4
5, 3
3, 3
4, 3
1, 4
7, 4
5, 3
5, 4
5, 3
2, 4
5, 2
3, 5
4, 2
2, 4
7, 2
0, 2
2, 2
5, 9
4, 4
3, 5
1, 6
3, 3
1, 3
4, 5
4, 2
3, 1
8, 2
2, 6
4, 4
3, 3
2, 1
1, 4
5, 9
2, 5
6, 3
5, 2
2, 1
4, 4
2, 1
2, 0
0, 6
2, 2
3, 1
3, 2
2, 1
4, 5
3, 5
2, 1
3, 4
1, 2
4, 3
2, 5
5, 3
4, 2
2, 3
2, 1
1, 4
2, 7
2, 1
2, 1
2, 0
2, 2
2, 2
2, 1
2, 3
1, 2
0, 0
2, 6
4, 3
1, 4
2, 2
0, 1
2, 4
2, 3
5, 4
1, 1
0, 0
1, 2
2, 5
2, 2
0, 1
1, 2
2, 2
2, 1
1, 2
3, 1
0, 1
2, 0
2, 2
1, 1
1, 1
3, 1
1, 2
3, 0
0, 1
3, 2
1, 2
2, 5
2, 3
1, 3
1, 3
1, 5
2, 4
1, 4
1, 3
5, 3
1, 3
2, 4
5, 1
2, 2
4, 2
1, 0
0, 1
4, 2
0, 0
1, 1
2, 1
4, 2
0, 1
2, 2
1, 2
0, 2
2, 1
2, 2
1, 5
2, 0
0, 2
0, 4
4, 0
2, 1
4, 1
0, 2
0, 1
1, 4
3, 1
3, 1
3, 0
5, 0
2, 2
1, 0
0, 0
0, 1
1, 0
1, 1
2, 1
0, 0
1, 4
0, 1
2, 4
0, 1
0, 1
4, 1
0, 0
0, 1
1, 0
1, 2
1, 2
0, 2
1, 3
2, 2
1, 2
0, 1
5, 2
0, 0
1, 1
0, 1
2, 1
0, 3
2, 3
2, 1
1, 0
1, 1
1, 0
0, 1
1, 1
2, 1
1, 2
0, 1
0, 1
0, 2
0, 2
0, 1
0, 1
0, 0
1, 0
0, 0
0, 1
0, 1
2, 0
2, 1
1, 0
2, 0
0, 0
0, 2
1, 0
2, 3
0, 0
2, 0
3, 0
1, 1
1, 0
1, 1
1, 1
0, 1
1, 1
2, 1
0, 0
0, 3
3, 0
2, 1
0, 1
1, 1
0, 0
1, 1
0, 1
1, 0
0, 1
1, 1
0, 0
3, 0
2, 1
1, 0
2, 0
0, 0
1, 0
0, 0
0, 0
0, 0
0, 0
0, 0
0, 0
0, 0
1, 1
0, 0
0, 0
0, 2
0, 0
1, 0
1, 2
2, 0
2, 2
0, 0
1, 0
2, 1
0, 2
0, 0
0, 0
0, 0
0, 0
1, 0
0, 0
2, 0
0, 0
0, 0
1, 0
1, 0
0, 0
2, 0
0, 0
1, 0
0, 1
0, 0
0, 0
0, 0
0, 1
0, 0
0, 0
1, 0
0, 0
0, 0
0, 0
2, 0
0, 1
0, 0
0, 1
1, 0
0, 2
0, 0
1, 0
0, 0
0, 1
0, 0
1, 0
0, 1
0, 0
0, 0
1, 1
0, 0
0, 1
1, 0
0, 0
0, 0
0, 1
1, 0
0, 0
0, 2
0, 0
0, 1
0, 0
0, 0
0, 0
0, 1
1, 0
0, 0
0, 0
1, 0
0, 0
0, 0
0, 2
0, 0
1, 0
0, 0
0, 1
0, 0
0, 1
1, 2
1, 1
0, 3
0, 0
0, 0
0, 0
0, 1
2, 0
0, 0
0, 0
2, 0
0, 0
1, 0
1, 3
0, 0
0, 1
0, 0
0, 0
0, 0
0, 0
0, 0
1, 1
2, 0
0, 0
0, 0
1, 0
1, 1
1, 1
0, 0
0, 0
0, 1
1, 0
0, 0
0, 0
0, 0
0, 0
0, 0
0, 0
0, 1
0, 0
0, 0
0, 0
0, 0
0, 0
0, 0
0, 0
1, 0
0, 0
0, 2
0, 0
0, 0
0, 1
0, 0
0, 0
0, 0
1, 0
1, 0
0, 0
0, 0
0, 0
0, 0
0, 0
0, 0
0, 0
0, 0
0, 0
0, 0
0, 0
0, 1
0, 0
0, 0
0, 0
0, 1
0, 1
0, 0
0, 0
0, 0
0, 0
0, 0
0, 1
0, 1
0, 0
0, 0
1, 1
0, 0
0, 0
0, 0
0, 0
0, 1
0, 0
0, 0
0, 0
0, 0
0, 0
1, 0
0, 0
0, 0
0, 0
0, 1
0, 1
0, 1
0, 0
0, 0
0, 0
0, 1
0, 0
0, 0
0, 0
0, 0
1, 0
0, 0
0, 0
0, 0
0, 0
0, 0
0, 0
0, 0
0, 1
0, 1
0, 0
0, 0
0, 0
0, 0
0, 0
0, 0
0, 0
0, 0
0, 0
0, 0
0, 0
0, 0
0, 0
0, 0
0, 0
0, 1
0, 0
0, 0
0, 0
0, 0
1, 0
0, 0
0, 1
0, 0
0, 0
0, 0
0, 0
0, 0
0, 0
0, 0
0, 0
0, 0
0, 0
0, 0
0, 0
0, 0
0, 0
0, 0
0, 0
0, 0
0, 0
0, 0
0, 0
0, 0
0, 0
0, 0
0, 0
0, 0
0, 0
0, 0
0, 0
0, 0
0, 0
0, 0
0, 0
0, 0
0, 0
0, 0
0, 0
0, 0
0, 0
0, 0
0, 0
0, 0
0, 0
0, 0
0, 0
0, 0
0, 0
0, 0
0, 0
0, 0
0, 0
0, 0
0, 0
0, 0
0, 0
0, 0
0, 0
0, 0
0, 0
0, 0
0, 0
0, 0
0, 0
0, 0
0, 0
0, 0
0, 0
0, 0
0, 0
1, 0
0, 0
0, 0
0, 0
0, 0
0, 0
0, 0
0, 0
0, 1
0, 0
0, 0
0, 0
0, 0
0, 0
0, 0
0, 0
0, 0
0, 0
0, 0
0, 0
0, 0
0, 0
0, 0
0, 0
0, 0
0, 0
0, 1
0, 0
0, 0
0, 0
0, 0
0, 0
0, 0
0, 0
0, 0
0, 0
0, 0
0, 0
0, 0
0, 0
0, 0
0, 0
0, 0
0, 0
0, 0
0, 0
0, 0
0, 0
0, 0
0, 0
0, 0
0, 0
0, 0
0, 0
0, 0
0, 0
0, 0
0, 0
0, 0
0, 0
0, 0
0, 0
0, 0
0, 0
0, 0
0, 0
0, 0
0, 0
0, 0
0, 0
0, 0
0, 0
0, 0
0, 0
0, 0
0, 0
0, 0
0, 0
0, 0
0, 0
0, 0
0, 0
0, 0
0, 0
0, 0
0, 0
0, 0
0, 0
0, 0
0, 0
0, 0
0, 0
0, 0
0, 0
0, 0
0, 0
0, 0
0, 0
0, 0
0, 0
0, 0
0, 0
0, 0
0, 0
0, 0
0, 0
0, 0
0, 0
0, 0
0, 0
0, 0
0, 0
0, 0
0, 0
0, 0
0, 0
0, 0
0, 0
0, 0
0, 0
0, 0
0, 0
0, 0
0, 0
0, 0
0, 0
0, 0
0, 0
0, 0
0, 0
0, 0
0, 0
0, 0
0, 0
0, 0
0, 0
0, 0
0, 0
0, 0
0, 0
0, 0
0, 0
0, 0
0, 0
0, 0
0, 0
0, 0
0, 0
0, 0
0, 0
0, 0
0, 0
0, 0
0, 0
0, 0
0, 0
0, 0
0, 0
0, 0
0, 0
0, 0
0, 0
0, 0
0, 0
0, 0
0, 0
0, 0
0, 0
0, 0
0, 0
0, 0
0, 0
0, 0
0, 0
0, 0
0, 0
0, 0
0, 0
0, 0
0, 0
0, 0
0, 0
0, 0
0, 0
0, 0
0, 0
0, 0
0, 0
0, 0
0, 0
0, 0
0, 0
0, 0
0, 0
0, 0
0, 0
0, 0
0, 0
0, 0
0, 0
0, 0
0, 0
0, 0
0, 0
0, 0
0, 0
0, 0
0, 0
0, 0
0, 0
0, 0
0, 0
0, 0
0, 0
0, 0
0, 0
0, 0
0, 0
0, 0
0, 0
0, 0
0, 0
0, 0
0, 0
0, 0
0, 0
0, 0
0, 0
0, 0
0, 0
0, 0
0, 0
0, 0
0, 0
0, 0
0, 0
0, 0
0, 0
0, 0
0, 0
0, 0
0, 0
0, 0
0, 0
0, 0
0, 0
0, 0
0, 0
0, 0
0, 0
0, 0
0, 0
0, 0
0, 0
0, 0
0, 0
0, 0
0, 0
0, 0
0, 0
0, 0
0, 0
0, 0
0, 0
0, 0
0, 0
0, 0
0, 0
0, 0
0, 0
0, 0
0, 0
0, 0
0, 0
0, 0
0, 0
0, 0
0, 0
0, 0
0, 0
0, 0
0, 0
0, 0
0, 0
0, 0
0, 0
0, 0
0, 0
0, 0
0, 0
0, 0
0, 0
0, 0
0, 0
0, 0
0, 0
0, 0
0, 0
0, 0
0, 0
0, 0
0, 0
0, 0
0, 0
0, 0
0, 0
0, 0
0, 0
0, 0
0, 0
0, 0
0, 0
0, 0
0, 0
0, 0
0, 0
0, 0
0, 0
0, 0
0, 0
0, 0
0, 0
0, 0
0, 0
0, 0
0, 0
0, 0
0, 0
0, 0
0, 0
0, 0
0, 0
0, 0
0, 0
0, 0
0, 0
0, 0
0, 0
0, 0
0, 0
0, 0
0, 0
0, 0
0, 0
0, 0
0, 0
0, 0
0, 0
0, 0
0, 0
0, 0
0, 0
0, 0
0, 0
0, 0
0, 0
0, 0
0, 0
0, 0
0, 0
0, 0
0, 0
0, 0
0, 0
0, 0
0, 0
0, 0
0, 0
0, 0
0, 0
0, 0
0, 0
0, 0
0, 0
0, 0
0, 0
0, 0
0, 0
0, 0
0, 0
0, 0
0, 0
0, 0
0, 0
0, 0
0, 0
0, 0
0, 0
0, 0
0, 0
0, 0
0, 0
0, 0
0, 0
0, 0
0, 0
0, 0
0, 0
0, 0
0, 0
0, 0
0, 0
0, 0
#ENDOFDATA     end of spectrum data