File: host_upload/02-11-2024/rqc/uplink1/ps__0567_0717304816_000rfs_shot_441.msa
#FORMAT      : EMSA/MAS spectral data file
#VERSION     : TC202v2.0 PIXL
#TITLE       : Novarupta (sol567) subset1
#DATE        : 02-11-2024      Date in the format DD-MMM-YYYY, for example 07-JUL-2010
#TIME        :             The time of day at which the spectrum was recorded, in 24-hour format
#OWNER       : PIXL Flight Model       (PIXL will use this to indicate which instrument took the data.)
#NPOINTS     : 4096     Number of data points in the spectrum (This can be zero for configuration only files)
#NCOLUMNS    : 2     Number of data columns in the spectrum (This can be zero for configuration only files)
#XUNITS      : eV
#YUNITS      : COUNTS
#DATATYPE    : YY
#XPERCHAN    : 7.862, 7.881   eV per channel (separate by commas if more than one detector)
#OFFSET      : 18.5, -22.4         eV of first channel  (separate by commas if more than one detector
#SIGNALTYPE  : XRF
#YP_TEMP     : 2.011
#LIVETIME    : 8.83888, 8.81129   seconds (separate by commas if more than one detector)
#REALTIME    : 10, 10.0   seconds (separate by commas if more than one detector)
#SPECTRUM    : start of spectrum data
0, 0
0, 0
0, 0
0, 0
0, 0
0, 0
0, 0
0, 0
0, 0
0, 0
0, 0
0, 0
0, 0
0, 0
0, 0
0, 0
0, 0
0, 0
0, 0
0, 0
0, 0
0, 0
0, 0
0, 0
0, 0
0, 0
0, 0
0, 0
0, 0
0, 0
0, 0
0, 0
0, 0
0, 0
2, 2
0, 1
2, 2
4, 5
2, 3
7, 8
3, 7
4, 5
5, 5
2, 4
3, 2
2, 5
3, 4
2, 9
5, 2
2, 6
4, 9
4, 6
9, 10
15, 19
14, 17
15, 17
16, 13
16, 14
9, 14
7, 10
19, 18
20, 36
43, 40
40, 40
46, 43
34, 63
32, 37
33, 28
40, 41
54, 57
112, 123
151, 219
266, 291
350, 432
481, 537
443, 529
403, 435
304, 354
209, 246
148, 157
92, 86
52, 44
37, 28
25, 33
25, 27
34, 44
28, 39
29, 37
26, 25
19, 27
18, 23
21, 30
22, 23
37, 52
66, 72
105, 152
191, 223
241, 215
283, 318
259, 333
241, 274
187, 229
124, 176
91, 117
62, 73
45, 54
51, 69
51, 79
91, 112
151, 155
166, 196
215, 257
209, 225
208, 259
207, 206
184, 190
138, 133
115, 139
95, 89
84, 102
72, 92
69, 80
64, 62
52, 54
31, 50
37, 50
26, 27
23, 29
12, 15
16, 12
14, 13
9, 10
8, 4
7, 8
6, 10
6, 8
7, 10
10, 12
23, 21
28, 30
28, 26
26, 28
17, 37
17, 18
18, 21
12, 11
14, 16
6, 10
10, 16
14, 15
32, 21
43, 58
62, 99
113, 165
178, 238
231, 350
319, 389
313, 405
300, 388
281, 349
210, 269
168, 177
107, 103
56, 55
46, 40
23, 31
20, 23
25, 35
40, 44
52, 68
46, 71
51, 74
63, 53
39, 51
42, 41
20, 37
14, 22
14, 16
11, 8
5, 11
5, 4
7, 5
3, 9
6, 7
7, 9
15, 14
16, 30
28, 34
22, 34
38, 43
39, 67
45, 71
62, 69
62, 61
59, 46
38, 32
36, 31
25, 31
16, 20
15, 23
16, 20
8, 15
16, 14
11, 10
15, 14
13, 15
15, 14
13, 26
14, 17
17, 29
25, 17
20, 14
21, 29
9, 16
19, 12
10, 21
15, 16
5, 13
13, 9
6, 12
7, 10
4, 10
12, 11
10, 17
8, 18
16, 15
19, 21
17, 22
30, 34
31, 39
28, 29
25, 33
25, 27
27, 29
19, 32
18, 26
17, 16
9, 17
15, 12
12, 8
6, 11
12, 17
10, 10
11, 21
12, 24
19, 21
22, 27
30, 42
33, 38
35, 64
57, 54
53, 55
42, 45
53, 46
47, 41
26, 30
26, 10
21, 22
22, 20
29, 21
17, 21
35, 38
38, 41
56, 114
111, 149
197, 292
328, 475
536, 735
787, 1072
1022, 1391
1277, 1721
1527, 1949
1597, 1940
1651, 1810
1355, 1573
1144, 1205
860, 875
545, 510
396, 332
220, 197
124, 102
77, 52
33, 39
25, 26
14, 19
14, 26
14, 19
11, 19
15, 22
14, 17
22, 24
32, 33
44, 50
49, 57
88, 100
99, 157
178, 178
204, 282
249, 281
235, 281
284, 280
244, 260
228, 199
135, 177
123, 111
93, 104
61, 44
44, 26
22, 13
18, 14
15, 8
14, 11
4, 13
7, 9
10, 15
3, 13
14, 13
5, 19
11, 12
8, 11
7, 10
10, 10
8, 10
6, 9
6, 10
7, 4
13, 6
8, 7
10, 5
3, 9
7, 9
6, 4
6, 7
3, 6
8, 4
7, 5
3, 8
3, 8
3, 7
6, 7
7, 8
5, 4
4, 11
7, 6
6, 6
5, 7
6, 8
4, 7
5, 10
5, 7
9, 9
6, 4
9, 4
4, 4
7, 4
7, 8
4, 9
7, 8
7, 5
10, 4
8, 8
8, 8
5, 13
3, 15
10, 5
9, 16
16, 13
12, 7
10, 9
16, 10
8, 12
8, 12
6, 6
5, 5
6, 11
9, 6
4, 4
4, 7
5, 9
4, 13
7, 7
5, 5
10, 5
3, 5
10, 7
5, 3
2, 3
2, 6
2, 3
4, 5
5, 3
3, 14
5, 8
6, 1
5, 5
5, 5
5, 6
4, 9
5, 4
3, 7
3, 2
4, 5
3, 5
6, 5
2, 5
4, 5
4, 9
2, 6
3, 9
3, 5
4, 3
4, 1
10, 5
3, 4
1, 4
7, 1
7, 6
4, 4
5, 0
2, 2
2, 6
5, 8
6, 1
4, 3
4, 8
4, 8
3, 6
3, 3
3, 1
8, 3
3, 3
10, 3
3, 5
3, 7
4, 4
6, 4
3, 10
3, 4
7, 5
8, 2
2, 1
5, 3
4, 4
9, 2
5, 1
4, 5
3, 0
4, 2
2, 1
4, 3
3, 3
3, 5
3, 2
5, 0
3, 8
5, 4
5, 2
0, 4
2, 3
3, 6
1, 4
3, 3
2, 2
1, 8
5, 4
4, 3
3, 3
2, 1
5, 1
2, 6
5, 2
3, 2
0, 3
1, 0
1, 5
2, 5
4, 5
0, 2
3, 5
3, 2
2, 2
2, 4
2, 8
3, 2
3, 3
3, 1
2, 1
0, 0
4, 5
3, 0
1, 5
0, 1
2, 3
2, 3
4, 1
7, 0
1, 3
2, 5
4, 1
5, 0
4, 2
5, 2
1, 1
1, 3
1, 5
3, 3
3, 2
2, 2
2, 1
1, 3
2, 3
1, 5
3, 2
6, 2
1, 3
4, 0
4, 5
4, 1
2, 2
4, 2
3, 2
1, 2
3, 2
2, 1
3, 3
0, 2
4, 2
2, 0
0, 5
3, 0
2, 3
3, 4
2, 4
2, 4
1, 2
0, 1
0, 2
0, 1
3, 4
2, 2
2, 2
2, 4
1, 1
4, 2
2, 4
2, 4
2, 2
1, 0
1, 4
0, 3
3, 5
2, 2
0, 3
1, 1
3, 3
0, 1
1, 2
1, 2
3, 2
3, 2
2, 0
2, 1
3, 1
1, 2
4, 2
2, 2
1, 2
4, 2
1, 0
1, 3
2, 2
2, 2
1, 0
2, 3
1, 3
0, 2
1, 0
0, 0
0, 3
1, 0
0, 1
2, 1
2, 1
1, 3
1, 1
2, 2
2, 1
1, 0
2, 0
0, 1
1, 1
0, 0
2, 3
1, 1
1, 0
0, 1
0, 2
0, 2
0, 0
1, 1
1, 1
0, 1
1, 0
0, 2
3, 2
1, 1
0, 1
1, 1
2, 3
1, 2
1, 0
1, 1
1, 2
1, 1
0, 1
0, 2
1, 0
0, 0
1, 0
1, 1
1, 0
3, 4
1, 1
0, 1
0, 2
2, 1
0, 1
1, 0
3, 1
0, 1
2, 0
1, 1
0, 1
0, 0
0, 0
1, 1
0, 0
0, 1
2, 1
2, 0
0, 0
0, 1
1, 1
0, 0
1, 3
0, 0
1, 2
1, 0
3, 0
1, 3
0, 0
0, 0
0, 0
1, 0
0, 0
0, 0
0, 2
1, 0
0, 0
0, 2
0, 1
0, 3
1, 1
1, 1
1, 2
1, 0
2, 1
0, 0
2, 1
0, 0
0, 1
0, 1
1, 0
2, 2
0, 1
0, 1
0, 1
1, 1
0, 3
0, 1
0, 0
0, 0
0, 1
0, 0
0, 1
0, 0
0, 1
1, 0
2, 0
0, 0
1, 0
0, 0
0, 0
1, 0
1, 0
0, 1
0, 0
0, 0
1, 1
0, 0
0, 2
1, 0
0, 1
0, 2
1, 0
0, 0
0, 0
0, 0
0, 0
0, 1
0, 0
1, 1
0, 0
0, 0
1, 0
0, 0
0, 0
0, 2
0, 0
0, 0
0, 0
1, 1
0, 1
1, 0
0, 0
0, 1
2, 0
0, 1
1, 0
0, 0
0, 0
0, 1
0, 0
0, 0
0, 0
0, 0
1, 0
0, 0
1, 0
0, 1
0, 0
0, 0
0, 0
0, 0
0, 0
1, 0
1, 0
0, 0
0, 1
0, 0
1, 0
2, 0
0, 1
2, 1
0, 0
0, 0
0, 0
0, 1
0, 1
1, 1
0, 1
0, 1
1, 0
1, 0
0, 0
0, 1
0, 0
1, 0
0, 0
0, 0
0, 0
0, 1
0, 0
0, 0
0, 0
0, 0
0, 0
0, 1
0, 0
0, 0
0, 0
2, 0
0, 0
0, 0
0, 0
0, 1
0, 0
0, 0
0, 0
0, 1
0, 0
1, 0
0, 0
1, 0
1, 2
0, 0
2, 0
1, 0
0, 1
0, 1
0, 1
0, 1
0, 0
0, 0
1, 0
0, 1
0, 1
0, 0
1, 0
0, 0
0, 0
0, 0
0, 0
0, 0
2, 0
0, 0
0, 0
0, 0
1, 0
0, 0
0, 1
0, 0
1, 0
0, 0
0, 0
0, 0
0, 0
0, 0
0, 0
0, 0
0, 0
0, 0
0, 0
0, 1
1, 0
0, 0
0, 0
0, 2
0, 0
0, 0
1, 0
0, 0
0, 0
0, 0
0, 0
0, 0
1, 0
0, 0
0, 1
0, 0
0, 0
1, 0
1, 0
0, 0
0, 1
0, 1
0, 0
2, 0
0, 0
0, 0
0, 0
0, 0
0, 0
0, 0
0, 0
0, 0
0, 0
0, 0
0, 1
0, 0
0, 0
0, 0
0, 0
1, 0
0, 0
0, 0
0, 0
0, 0
0, 0
0, 1
0, 0
0, 0
0, 0
1, 0
0, 0
0, 1
1, 0
0, 0
0, 0
0, 0
0, 0
0, 0
0, 0
0, 0
0, 0
0, 0
0, 0
0, 0
0, 0
0, 0
0, 0
0, 0
0, 0
0, 0
0, 0
0, 0
0, 0
0, 0
0, 0
0, 0
0, 0
0, 1
0, 0
0, 0
0, 0
0, 0
0, 0
0, 0
0, 0
0, 0
0, 0
0, 0
0, 0
0, 0
0, 0
0, 0
0, 0
0, 0
0, 0
0, 0
0, 0
0, 0
0, 0
0, 0
0, 0
0, 0
0, 0
0, 0
0, 0
0, 0
0, 0
0, 0
0, 0
0, 0
0, 0
0, 0
0, 0
0, 0
0, 0
0, 0
0, 0
0, 0
0, 0
0, 0
0, 0
0, 0
0, 0
0, 0
0, 0
0, 0
0, 0
0, 0
0, 0
0, 0
0, 0
0, 1
0, 0
0, 0
0, 0
0, 0
0, 0
0, 0
0, 0
0, 0
0, 0
0, 0
0, 0
0, 0
0, 0
0, 0
0, 0
0, 0
0, 0
0, 0
0, 0
0, 0
0, 0
0, 0
0, 0
0, 0
0, 0
0, 0
0, 0
0, 0
0, 0
0, 0
0, 0
0, 0
0, 0
0, 0
0, 0
0, 0
0, 0
0, 0
0, 0
0, 0
0, 0
0, 0
0, 0
0, 0
0, 0
0, 0
0, 0
0, 0
0, 0
0, 0
0, 0
0, 0
0, 0
0, 0
0, 0
0, 0
0, 0
0, 0
0, 0
0, 0
0, 0
0, 0
0, 0
0, 0
0, 0
0, 0
0, 0
0, 0
0, 0
0, 0
0, 0
0, 0
0, 0
0, 0
0, 0
0, 0
0, 0
0, 0
0, 0
0, 0
0, 0
0, 0
0, 0
0, 0
0, 0
0, 0
0, 0
0, 0
0, 0
0, 0
0, 0
0, 0
0, 0
0, 0
0, 0
0, 0
0, 0
0, 0
0, 0
0, 0
0, 0
0, 0
0, 0
0, 0
0, 0
0, 0
0, 0
0, 0
0, 0
0, 0
0, 0
0, 0
0, 0
0, 0
0, 0
0, 0
0, 0
0, 0
0, 0
0, 0
0, 0
0, 0
0, 0
0, 0
0, 0
0, 0
0, 0
0, 0
0, 0
0, 0
0, 0
0, 0
0, 0
0, 0
0, 0
0, 0
0, 0
0, 0
0, 0
0, 0
0, 0
0, 0
0, 0
0, 0
0, 0
0, 0
0, 1
0, 0
0, 0
0, 0
0, 0
0, 0
0, 0
0, 0
0, 0
0, 0
0, 0
0, 0
0, 0
0, 0
0, 0
0, 0
0, 0
0, 0
0, 0
0, 0
0, 0
0, 0
0, 0
0, 0
0, 0
0, 0
0, 0
0, 0
0, 0
0, 0
0, 0
0, 0
0, 0
0, 0
0, 0
0, 0
0, 0
0, 0
0, 0
0, 0
0, 0
0, 0
0, 0
0, 0
0, 0
0, 0
0, 0
0, 0
0, 0
0, 0
0, 0
0, 0
0, 0
0, 0
0, 0
0, 0
0, 0
0, 0
0, 0
0, 0
0, 0
0, 0
0, 0
0, 0
0, 0
0, 0
0, 0
0, 0
0, 0
0, 0
0, 0
0, 0
0, 0
0, 0
0, 0
0, 0
0, 0
0, 0
0, 0
0, 0
0, 0
0, 0
0, 0
0, 0
0, 0
0, 0
0, 0
0, 0
0, 0
0, 0
0, 0
0, 0
0, 0
0, 0
0, 0
0, 0
0, 0
0, 0
0, 0
0, 0
0, 0
0, 0
0, 0
0, 0
0, 0
0, 0
0, 0
0, 0
0, 0
0, 0
0, 0
0, 0
0, 0
0, 0
0, 0
0, 0
0, 0
0, 0
0, 0
0, 0
0, 0
0, 0
0, 0
0, 0
0, 0
0, 0
0, 0
0, 0
0, 0
0, 0
0, 0
0, 0
0, 0
0, 0
0, 0
0, 0
0, 0
0, 0
0, 0
0, 0
0, 0
0, 0
0, 0
0, 0
0, 0
0, 0
0, 0
0, 0
0, 0
0, 0
0, 0
0, 0
0, 0
0, 0
0, 0
0, 0
0, 0
0, 0
0, 0
0, 0
0, 0
0, 0
0, 0
0, 0
0, 0
0, 0
0, 0
0, 0
0, 0
0, 0
0, 0
0, 0
0, 0
0, 0
0, 0
0, 0
0, 0
0, 0
0, 0
0, 0
0, 0
0, 0
0, 0
0, 0
0, 0
0, 0
0, 0
0, 0
0, 0
0, 0
0, 0
0, 0
0, 0
0, 0
0, 0
0, 0
0, 0
0, 0
0, 0
0, 0
0, 0
0, 0
0, 0
0, 0
0, 0
0, 0
0, 0
0, 0
0, 0
0, 0
0, 0
0, 0
0, 0
0, 0
0, 0
0, 0
0, 0
0, 0
0, 0
0, 0
0, 0
0, 0
0, 0
0, 0
0, 0
0, 0
0, 0
0, 0
0, 0
0, 0
0, 0
0, 0
0, 0
0, 0
0, 0
0, 0
0, 0
0, 0
0, 0
0, 0
0, 0
0, 0
0, 0
0, 0
0, 0
0, 0
0, 0
0, 0
0, 0
0, 0
0, 0
0, 0
0, 0
0, 0
#ENDOFDATA     end of spectrum data