File: host_upload/02-11-2024/rqc/uplink1/ps__0567_0717304816_000rfs_shot_149.msa
#FORMAT      : EMSA/MAS spectral data file
#VERSION     : TC202v2.0 PIXL
#TITLE       : Novarupta (sol567) subset1
#DATE        : 02-11-2024      Date in the format DD-MMM-YYYY, for example 07-JUL-2010
#TIME        :             The time of day at which the spectrum was recorded, in 24-hour format
#OWNER       : PIXL Flight Model       (PIXL will use this to indicate which instrument took the data.)
#NPOINTS     : 4096     Number of data points in the spectrum (This can be zero for configuration only files)
#NCOLUMNS    : 2     Number of data columns in the spectrum (This can be zero for configuration only files)
#XUNITS      : eV
#YUNITS      : COUNTS
#DATATYPE    : YY
#XPERCHAN    : 7.862, 7.881   eV per channel (separate by commas if more than one detector)
#OFFSET      : 18.5, -22.4         eV of first channel  (separate by commas if more than one detector
#SIGNALTYPE  : XRF
#YP_TEMP     : 0.022
#LIVETIME    : 8.83809, 8.80545   seconds (separate by commas if more than one detector)
#REALTIME    : 10, 10.0   seconds (separate by commas if more than one detector)
#SPECTRUM    : start of spectrum data
0, 0
0, 0
0, 0
0, 0
0, 0
0, 0
0, 0
0, 0
0, 0
0, 0
0, 0
0, 0
0, 0
0, 0
0, 0
0, 0
0, 0
0, 0
0, 0
0, 0
0, 0
0, 0
0, 0
0, 0
0, 0
0, 0
0, 0
0, 0
0, 0
0, 0
0, 0
1, 0
0, 1
1, 0
0, 0
2, 1
1, 2
2, 6
1, 7
2, 3
3, 12
2, 6
3, 5
3, 4
2, 4
5, 3
1, 4
1, 2
2, 4
3, 8
3, 7
5, 10
11, 12
9, 20
9, 25
6, 13
16, 18
4, 13
11, 15
7, 7
18, 25
28, 24
43, 42
41, 45
33, 62
29, 67
35, 52
31, 36
39, 41
56, 85
95, 124
175, 225
292, 366
348, 494
411, 547
441, 555
384, 455
331, 349
232, 240
138, 145
72, 77
53, 57
29, 44
29, 37
25, 46
32, 45
35, 34
31, 34
22, 38
19, 26
18, 24
18, 23
22, 30
35, 54
73, 109
146, 165
176, 266
267, 301
293, 371
295, 341
260, 324
202, 251
145, 161
93, 110
74, 82
50, 63
47, 60
61, 71
92, 109
119, 167
160, 203
177, 242
209, 279
184, 243
177, 199
170, 172
111, 123
96, 109
79, 98
72, 82
72, 76
67, 80
43, 62
50, 65
41, 39
34, 42
31, 27
27, 29
20, 30
10, 13
10, 10
14, 9
9, 9
2, 12
6, 8
9, 12
12, 14
10, 17
25, 22
18, 29
29, 35
32, 40
20, 36
35, 33
26, 20
15, 15
9, 16
14, 16
11, 17
16, 18
18, 28
48, 71
90, 120
124, 199
200, 291
294, 379
355, 468
342, 438
327, 438
281, 355
225, 247
154, 172
94, 126
66, 49
39, 46
28, 21
19, 45
33, 39
51, 46
43, 53
62, 67
58, 69
61, 61
35, 55
29, 36
25, 29
11, 14
15, 22
9, 12
3, 5
10, 7
4, 9
7, 7
7, 16
11, 9
17, 17
16, 19
18, 26
47, 47
37, 44
43, 53
43, 75
47, 70
57, 73
42, 49
42, 44
34, 43
21, 37
7, 24
19, 20
13, 18
9, 14
10, 17
9, 12
13, 16
10, 15
6, 25
9, 24
14, 25
14, 24
11, 25
20, 15
14, 20
8, 22
12, 13
8, 17
12, 15
7, 12
8, 15
12, 13
8, 11
11, 13
9, 15
17, 9
18, 15
17, 31
18, 22
13, 31
24, 25
27, 28
25, 43
25, 33
23, 35
19, 31
19, 24
18, 21
14, 16
17, 14
12, 13
11, 6
12, 18
13, 15
13, 21
7, 13
19, 21
18, 27
23, 23
26, 45
21, 37
39, 58
49, 56
58, 54
52, 42
37, 51
25, 40
19, 24
21, 27
22, 19
17, 30
21, 21
18, 27
24, 29
44, 63
62, 89
167, 178
234, 329
389, 569
598, 775
850, 1172
1055, 1564
1451, 1785
1605, 1907
1629, 1886
1434, 1818
1375, 1455
1054, 1144
721, 794
531, 502
311, 344
178, 187
99, 101
57, 73
30, 33
20, 15
22, 33
25, 18
6, 21
11, 21
17, 25
18, 23
15, 25
22, 32
39, 52
65, 95
69, 110
111, 138
139, 216
185, 245
210, 296
259, 285
250, 276
248, 279
184, 231
160, 183
122, 113
80, 81
59, 43
34, 35
17, 21
12, 11
4, 14
10, 7
11, 11
8, 8
6, 11
5, 8
11, 14
12, 17
8, 10
7, 11
11, 11
7, 12
9, 5
5, 7
5, 10
10, 7
4, 7
3, 12
4, 5
4, 8
7, 3
3, 5
8, 7
3, 11
7, 3
3, 5
4, 8
2, 10
7, 9
9, 8
8, 6
3, 5
9, 6
2, 8
9, 8
8, 8
4, 5
8, 9
7, 14
7, 8
5, 4
6, 8
5, 9
4, 11
9, 6
4, 6
4, 4
11, 6
6, 7
7, 7
2, 10
8, 12
7, 13
6, 18
9, 14
8, 16
8, 15
15, 20
6, 13
10, 12
7, 11
5, 9
2, 6
5, 7
11, 5
5, 6
3, 4
5, 7
3, 7
7, 8
5, 2
8, 5
6, 7
5, 8
9, 5
4, 11
2, 2
7, 11
3, 2
3, 5
1, 6
2, 1
5, 4
2, 9
8, 4
6, 6
5, 6
3, 7
8, 6
10, 6
2, 4
8, 4
3, 6
1, 4
3, 7
3, 7
3, 6
6, 6
5, 7
3, 4
6, 6
5, 3
6, 7
4, 5
3, 3
5, 5
2, 5
3, 3
4, 4
5, 6
3, 5
6, 2
5, 4
6, 4
2, 5
4, 7
5, 7
7, 6
10, 6
2, 1
6, 7
3, 2
6, 7
1, 2
7, 5
4, 1
4, 4
1, 5
1, 5
2, 4
4, 4
1, 5
6, 6
2, 4
2, 2
2, 2
4, 2
4, 5
1, 1
5, 2
1, 2
4, 3
7, 6
4, 5
1, 6
2, 3
0, 7
1, 3
3, 1
3, 3
3, 3
4, 4
5, 1
8, 5
2, 4
5, 6
3, 0
3, 2
6, 2
1, 3
1, 6
5, 1
2, 1
6, 4
5, 7
3, 1
5, 3
5, 6
2, 2
2, 6
4, 4
2, 3
2, 1
3, 4
2, 1
3, 6
1, 5
4, 1
5, 3
4, 1
0, 0
6, 6
0, 1
1, 0
3, 2
5, 1
1, 6
3, 1
2, 3
2, 1
1, 3
1, 0
2, 3
0, 2
4, 2
4, 4
1, 2
2, 1
1, 2
2, 3
1, 4
2, 3
1, 4
2, 1
1, 1
2, 0
4, 3
1, 2
0, 1
0, 0
1, 1
1, 3
2, 4
1, 1
3, 3
3, 3
1, 1
3, 3
1, 1
1, 1
2, 1
1, 4
0, 2
3, 4
1, 4
1, 1
3, 3
1, 4
1, 4
0, 4
1, 5
1, 5
0, 6
3, 0
0, 4
3, 3
2, 9
1, 1
3, 2
3, 4
2, 0
1, 1
0, 1
4, 3
3, 1
1, 3
1, 4
0, 0
1, 3
2, 1
2, 2
0, 1
0, 1
0, 4
1, 1
1, 3
2, 3
3, 0
1, 2
2, 1
1, 2
1, 2
3, 2
0, 2
2, 3
0, 0
1, 2
0, 0
1, 0
3, 2
1, 1
0, 3
1, 4
1, 6
0, 0
2, 2
3, 1
2, 2
1, 0
2, 0
1, 3
1, 5
2, 2
0, 3
3, 5
1, 1
2, 2
0, 0
2, 0
1, 0
1, 1
0, 1
3, 3
1, 0
0, 1
1, 2
2, 2
0, 0
0, 1
0, 1
0, 0
0, 2
2, 0
2, 1
1, 0
0, 2
0, 0
0, 2
1, 0
1, 2
0, 1
2, 0
0, 0
0, 1
0, 0
0, 0
1, 1
1, 1
0, 0
0, 1
0, 0
1, 2
0, 1
0, 0
0, 0
1, 0
2, 1
0, 1
0, 0
0, 0
0, 1
0, 0
2, 1
0, 0
0, 1
0, 0
0, 1
0, 0
0, 1
1, 0
0, 1
0, 1
1, 0
0, 2
0, 0
1, 1
1, 2
0, 2
0, 1
0, 0
1, 1
1, 1
0, 0
1, 0
0, 0
0, 0
2, 2
1, 0
0, 0
0, 0
1, 0
0, 1
1, 0
0, 1
0, 0
0, 0
0, 0
1, 1
0, 0
0, 0
0, 1
0, 0
1, 0
0, 0
0, 2
0, 0
0, 1
0, 0
1, 2
0, 0
0, 0
1, 0
0, 1
0, 0
0, 0
1, 0
1, 2
0, 1
0, 2
0, 2
0, 0
0, 0
1, 0
0, 0
1, 0
0, 1
1, 1
0, 1
0, 0
0, 0
1, 0
0, 0
0, 0
0, 0
0, 0
0, 0
0, 0
0, 0
1, 0
0, 0
0, 0
0, 0
0, 0
0, 0
0, 1
0, 1
0, 0
1, 0
0, 1
1, 0
0, 1
0, 0
0, 0
0, 0
1, 0
0, 0
1, 0
1, 2
1, 0
0, 1
0, 0
0, 0
0, 0
1, 0
0, 0
1, 0
1, 0
0, 0
0, 0
0, 0
0, 0
1, 0
0, 0
0, 0
0, 0
1, 1
0, 0
0, 0
0, 0
0, 0
0, 1
0, 0
0, 0
0, 0
0, 0
0, 0
0, 0
2, 0
0, 0
0, 0
0, 0
0, 1
0, 1
0, 0
0, 1
0, 1
0, 0
0, 0
0, 1
1, 0
1, 0
0, 0
0, 0
0, 0
0, 0
1, 1
0, 0
0, 0
0, 0
0, 1
0, 1
0, 0
0, 0
0, 0
0, 0
0, 0
1, 0
1, 0
0, 0
0, 0
0, 0
0, 1
0, 0
0, 1
0, 0
0, 1
0, 0
0, 1
0, 0
0, 0
0, 0
0, 0
1, 0
0, 0
1, 0
0, 0
0, 0
0, 0
0, 0
0, 0
0, 0
0, 0
1, 0
0, 0
0, 0
0, 0
1, 0
0, 0
0, 0
0, 0
1, 0
0, 0
0, 0
0, 0
0, 0
0, 0
0, 1
0, 0
0, 0
0, 1
0, 0
0, 0
0, 0
0, 0
0, 0
0, 0
0, 1
0, 0
0, 0
0, 0
0, 0
0, 0
1, 0
0, 0
0, 0
0, 0
0, 0
0, 0
0, 0
0, 0
0, 0
0, 0
0, 0
0, 0
0, 0
0, 0
0, 0
0, 0
0, 1
0, 0
0, 0
0, 0
0, 0
0, 0
0, 0
0, 0
0, 0
0, 0
0, 0
0, 0
0, 1
0, 0
0, 0
0, 0
1, 0
0, 0
0, 0
0, 0
0, 0
0, 0
0, 2
0, 0
0, 0
1, 0
0, 0
0, 0
0, 0
0, 0
0, 0
0, 0
0, 0
0, 0
0, 0
0, 0
0, 0
0, 0
0, 0
0, 0
0, 0
0, 0
0, 0
0, 0
0, 0
0, 0
0, 0
0, 0
0, 0
0, 0
0, 0
0, 0
0, 0
0, 0
0, 0
0, 0
0, 0
0, 0
0, 0
0, 1
0, 0
0, 0
0, 0
0, 0
0, 0
0, 0
0, 0
0, 0
0, 0
0, 1
0, 0
0, 0
0, 0
0, 0
0, 0
0, 0
0, 0
0, 0
1, 0
0, 0
0, 0
0, 0
0, 0
0, 0
0, 0
0, 0
0, 0
0, 0
0, 0
0, 0
0, 0
0, 0
0, 0
0, 0
0, 1
0, 0
0, 0
1, 0
0, 0
1, 0
0, 0
0, 0
0, 0
0, 0
0, 0
0, 0
0, 0
0, 0
0, 0
1, 0
0, 0
0, 0
0, 0
0, 0
0, 0
0, 0
0, 0
1, 0
1, 0
0, 0
0, 0
1, 0
0, 0
0, 0
0, 0
0, 0
0, 0
0, 0
0, 0
0, 0
0, 0
0, 0
0, 0
0, 0
0, 0
0, 0
0, 0
0, 0
0, 0
0, 0
0, 0
0, 0
0, 0
0, 0
0, 1
0, 0
0, 0
0, 0
0, 0
0, 0
0, 0
0, 0
0, 0
0, 0
0, 0
0, 0
0, 0
0, 0
0, 0
0, 0
0, 0
0, 0
0, 0
0, 0
0, 0
0, 0
0, 0
0, 0
0, 0
0, 0
0, 0
0, 0
0, 0
0, 0
0, 0
0, 0
0, 0
0, 0
0, 0
0, 0
0, 0
0, 0
0, 0
0, 0
0, 0
0, 0
0, 0
0, 0
0, 0
0, 0
0, 0
0, 0
0, 0
0, 0
0, 0
0, 0
0, 0
0, 0
0, 0
0, 0
0, 0
0, 0
0, 0
0, 0
0, 0
0, 0
0, 0
0, 0
0, 0
0, 0
0, 0
0, 0
0, 0
0, 0
0, 0
0, 0
0, 0
0, 0
0, 0
0, 0
0, 0
0, 0
0, 0
0, 0
0, 0
0, 0
0, 0
0, 0
0, 0
0, 0
0, 0
0, 0
0, 0
0, 0
0, 0
0, 0
0, 0
0, 0
0, 0
0, 0
0, 0
0, 0
0, 0
0, 0
0, 0
0, 0
0, 0
0, 0
0, 0
0, 0
0, 0
0, 0
0, 0
0, 0
0, 0
0, 0
0, 0
0, 0
0, 0
0, 0
0, 0
0, 0
0, 0
0, 0
0, 0
0, 0
0, 0
0, 0
0, 0
0, 0
0, 0
0, 0
0, 0
0, 0
0, 0
0, 0
0, 0
0, 0
0, 0
0, 0
0, 0
0, 0
0, 0
0, 0
0, 0
0, 0
0, 0
0, 0
0, 0
0, 0
0, 0
0, 0
0, 0
0, 0
0, 0
0, 0
0, 0
0, 0
0, 0
0, 0
0, 0
0, 0
0, 0
0, 0
0, 0
0, 0
0, 0
0, 0
0, 0
0, 0
0, 0
0, 0
0, 0
0, 0
0, 0
0, 0
0, 0
0, 0
0, 0
0, 0
0, 0
0, 0
0, 0
0, 0
0, 0
0, 0
0, 0
0, 0
0, 0
0, 0
0, 0
0, 0
0, 0
0, 0
0, 0
0, 0
0, 0
0, 0
0, 0
0, 0
0, 0
0, 0
0, 0
0, 0
0, 0
0, 0
0, 0
0, 0
0, 0
0, 0
0, 0
0, 0
0, 0
0, 0
0, 0
0, 0
0, 0
0, 0
0, 0
0, 0
0, 0
0, 0
0, 0
0, 0
0, 0
0, 0
0, 0
0, 0
0, 0
0, 0
0, 0
0, 0
0, 0
0, 0
0, 0
0, 0
0, 0
0, 0
0, 0
0, 0
0, 0
0, 0
0, 0
0, 0
0, 0
0, 0
0, 0
0, 0
0, 0
0, 0
0, 0
0, 0
0, 0
0, 0
0, 0
0, 0
0, 0
0, 0
0, 0
0, 0
0, 0
0, 0
0, 0
0, 0
0, 0
0, 0
0, 0
0, 0
0, 0
0, 0
0, 0
0, 0
0, 0
0, 0
0, 0
0, 0
0, 0
0, 0
0, 0
0, 0
0, 0
0, 0
0, 0
0, 0
0, 0
0, 0
0, 0
0, 0
0, 0
0, 0
0, 0
0, 0
0, 0
0, 0
0, 0
0, 0
0, 0
0, 0
0, 0
0, 0
0, 0
0, 0
0, 0
0, 0
0, 0
0, 0
0, 0
0, 0
0, 0
0, 0
0, 0
0, 0
0, 0
0, 0
0, 0
0, 0
0, 0
0, 0
0, 0
0, 0
0, 0
0, 0
0, 0
0, 0
0, 0
0, 0
0, 0
0, 0
0, 0
0, 0
0, 0
0, 0
0, 0
0, 0
0, 0
0, 0
0, 0
0, 0
0, 0
0, 0
0, 0
0, 0
0, 0
0, 0
0, 0
0, 0
0, 0
0, 0
0, 0
0, 0
0, 0
0, 0
0, 0
0, 0
0, 0
0, 0
0, 0
0, 0
#ENDOFDATA     end of spectrum data