File: host_upload/02-11-2024/rqc/uplink1/ps__0567_0717304816_000rfs_shot_157.msa
#FORMAT      : EMSA/MAS spectral data file
#VERSION     : TC202v2.0 PIXL
#TITLE       : Novarupta (sol567) subset1
#DATE        : 02-11-2024      Date in the format DD-MMM-YYYY, for example 07-JUL-2010
#TIME        :             The time of day at which the spectrum was recorded, in 24-hour format
#OWNER       : PIXL Flight Model       (PIXL will use this to indicate which instrument took the data.)
#NPOINTS     : 4096     Number of data points in the spectrum (This can be zero for configuration only files)
#NCOLUMNS    : 2     Number of data columns in the spectrum (This can be zero for configuration only files)
#XUNITS      : eV
#YUNITS      : COUNTS
#DATATYPE    : YY
#XPERCHAN    : 7.862, 7.881   eV per channel (separate by commas if more than one detector)
#OFFSET      : 18.5, -22.4         eV of first channel  (separate by commas if more than one detector
#SIGNALTYPE  : XRF
#YP_TEMP     : -0.074
#LIVETIME    : 8.82502, 8.81252   seconds (separate by commas if more than one detector)
#REALTIME    : 10, 10.0   seconds (separate by commas if more than one detector)
#SPECTRUM    : start of spectrum data
0, 0
0, 0
0, 0
0, 0
0, 0
0, 0
0, 0
0, 0
0, 0
0, 0
0, 0
0, 0
0, 0
0, 0
0, 0
0, 0
0, 0
0, 0
0, 0
0, 0
0, 0
0, 0
0, 0
0, 0
0, 0
0, 0
0, 0
0, 0
0, 0
0, 1
0, 0
0, 0
0, 0
0, 0
0, 1
3, 0
6, 3
1, 4
2, 3
3, 5
4, 1
5, 7
2, 8
3, 6
4, 2
2, 5
7, 0
3, 0
8, 4
4, 6
10, 8
4, 6
13, 12
19, 6
10, 14
16, 13
17, 14
11, 17
6, 11
11, 16
18, 22
28, 30
31, 28
49, 47
40, 49
54, 55
44, 36
36, 44
43, 36
73, 63
127, 126
196, 220
339, 313
388, 483
473, 581
476, 511
469, 492
352, 361
224, 233
140, 143
87, 90
44, 51
35, 44
35, 28
41, 31
39, 45
36, 37
29, 29
34, 30
15, 27
13, 23
19, 20
38, 26
52, 50
84, 93
133, 167
227, 261
305, 345
341, 389
351, 362
277, 309
240, 250
189, 164
117, 126
85, 99
53, 60
63, 58
72, 73
89, 121
124, 147
183, 219
210, 236
227, 261
209, 220
205, 202
148, 171
138, 131
110, 108
85, 80
75, 81
84, 66
64, 71
53, 65
53, 50
47, 47
39, 39
28, 23
21, 17
21, 16
11, 17
10, 11
7, 10
8, 13
5, 11
13, 5
9, 11
8, 5
11, 13
17, 23
27, 22
22, 42
31, 31
38, 41
31, 29
21, 15
14, 20
11, 10
9, 9
8, 13
14, 19
30, 39
48, 63
99, 112
148, 191
217, 285
319, 376
339, 381
368, 424
330, 432
297, 334
223, 260
182, 160
95, 105
55, 66
30, 45
26, 20
27, 33
36, 33
30, 60
51, 56
67, 60
71, 72
47, 61
47, 48
37, 45
25, 34
19, 19
4, 21
9, 10
10, 5
8, 8
8, 10
3, 12
17, 11
13, 18
13, 16
26, 18
20, 32
37, 29
44, 47
50, 56
64, 68
66, 58
54, 63
52, 65
46, 60
36, 33
22, 37
23, 26
18, 16
17, 18
12, 11
14, 15
5, 11
12, 18
13, 14
10, 16
14, 13
19, 16
25, 20
15, 17
17, 23
24, 15
17, 16
13, 20
14, 10
8, 12
15, 10
9, 15
12, 13
13, 14
9, 13
10, 10
12, 11
15, 16
18, 17
13, 23
24, 24
29, 29
24, 36
23, 34
23, 35
22, 33
23, 19
26, 16
11, 23
17, 13
15, 8
9, 12
10, 9
4, 7
14, 12
16, 14
15, 15
14, 24
24, 30
30, 39
28, 36
31, 37
40, 41
57, 51
45, 51
43, 56
36, 46
38, 33
26, 33
28, 30
20, 27
16, 16
13, 20
30, 18
23, 30
51, 72
73, 94
113, 178
233, 298
363, 502
629, 855
901, 1109
1226, 1488
1500, 1794
1682, 1851
1762, 1850
1658, 1733
1421, 1467
1057, 1054
881, 786
526, 536
361, 308
195, 173
113, 99
69, 55
35, 21
19, 23
19, 12
19, 22
14, 9
27, 20
14, 23
28, 18
18, 22
26, 39
52, 67
69, 70
106, 100
131, 146
176, 207
208, 249
282, 278
258, 281
263, 274
258, 269
200, 216
163, 155
123, 112
81, 89
43, 50
43, 30
23, 13
9, 12
12, 13
11, 11
8, 7
9, 12
8, 15
10, 13
11, 17
19, 22
15, 16
11, 9
8, 13
12, 7
5, 12
5, 3
4, 7
4, 7
9, 4
9, 4
6, 8
7, 5
7, 4
4, 3
5, 8
5, 10
7, 7
6, 4
5, 11
7, 10
6, 8
7, 18
3, 4
12, 4
6, 8
7, 9
10, 7
12, 3
6, 7
8, 11
7, 8
7, 2
7, 7
11, 5
9, 9
3, 8
7, 12
9, 7
12, 6
7, 4
4, 7
7, 8
4, 9
4, 7
9, 12
9, 7
15, 19
10, 15
12, 11
9, 15
20, 7
9, 10
8, 6
19, 6
13, 1
5, 10
8, 11
4, 3
6, 4
11, 7
10, 8
1, 3
6, 4
4, 4
4, 10
3, 9
8, 6
5, 5
4, 3
3, 5
7, 10
6, 9
5, 3
6, 5
5, 8
2, 6
4, 10
5, 3
10, 5
3, 4
4, 4
7, 5
8, 8
5, 6
3, 11
9, 8
3, 2
3, 6
4, 8
8, 4
2, 3
6, 4
3, 6
4, 5
6, 2
5, 3
4, 5
6, 2
6, 8
5, 5
7, 4
4, 4
4, 7
5, 6
5, 5
1, 4
3, 2
4, 5
8, 4
2, 8
3, 5
4, 1
3, 3
7, 3
7, 2
5, 3
2, 6
9, 6
4, 2
2, 3
4, 3
1, 7
8, 4
3, 3
3, 5
7, 3
3, 6
4, 4
5, 4
4, 0
4, 5
2, 3
8, 3
3, 3
2, 4
3, 3
3, 4
3, 5
3, 3
2, 6
3, 4
4, 4
3, 0
5, 5
8, 7
4, 1
3, 1
4, 2
2, 2
4, 4
1, 5
2, 2
9, 3
2, 4
1, 3
3, 1
4, 3
3, 3
5, 3
6, 3
2, 4
1, 2
3, 3
2, 6
0, 1
1, 2
1, 4
1, 2
5, 0
2, 2
2, 1
6, 2
1, 0
1, 2
2, 5
6, 1
2, 6
3, 2
2, 1
0, 5
4, 1
3, 1
2, 6
4, 1
3, 3
2, 2
7, 2
3, 1
6, 2
2, 2
1, 4
4, 4
1, 3
2, 4
4, 1
4, 6
4, 1
0, 3
3, 2
2, 1
0, 3
0, 2
3, 3
0, 3
2, 2
1, 2
2, 5
4, 2
3, 1
3, 2
2, 0
3, 3
3, 4
5, 3
0, 3
0, 2
3, 1
5, 2
2, 3
3, 4
3, 0
2, 2
0, 3
0, 2
2, 5
3, 4
2, 4
2, 0
2, 6
1, 1
1, 2
0, 4
1, 2
5, 2
1, 3
0, 1
0, 3
1, 3
1, 3
1, 1
2, 0
1, 2
0, 3
1, 1
2, 1
1, 6
1, 4
0, 1
0, 0
1, 1
1, 3
2, 2
3, 3
4, 2
2, 2
3, 4
2, 2
2, 1
0, 2
0, 1
1, 0
0, 2
0, 1
1, 0
0, 2
4, 2
0, 2
1, 2
1, 0
0, 1
4, 2
0, 1
0, 4
3, 3
1, 1
2, 1
2, 0
1, 2
0, 1
2, 3
1, 0
1, 1
1, 0
1, 3
0, 0
1, 2
1, 0
0, 2
1, 3
0, 2
3, 2
2, 2
0, 0
1, 1
0, 0
1, 2
0, 2
1, 0
0, 0
1, 1
0, 2
0, 3
1, 0
0, 1
1, 0
0, 1
0, 0
0, 0
1, 2
0, 3
0, 1
2, 1
1, 0
0, 1
2, 0
2, 0
1, 1
0, 2
1, 0
0, 1
0, 0
0, 0
0, 0
0, 0
0, 1
2, 0
0, 0
1, 2
0, 2
1, 0
1, 0
0, 0
0, 1
0, 1
0, 0
3, 2
0, 0
0, 1
1, 0
0, 0
0, 0
2, 0
1, 1
0, 0
1, 0
2, 3
0, 0
2, 1
2, 0
0, 0
1, 1
1, 2
0, 0
0, 0
0, 1
1, 0
0, 1
0, 0
1, 0
1, 1
0, 0
1, 0
0, 1
3, 0
0, 0
0, 0
0, 1
0, 1
0, 1
1, 0
1, 0
0, 0
1, 1
3, 1
1, 0
0, 0
1, 0
1, 0
0, 1
0, 2
0, 0
1, 1
0, 0
1, 2
0, 0
0, 0
0, 0
0, 0
0, 0
0, 0
0, 0
1, 0
1, 0
0, 0
2, 0
1, 0
1, 1
2, 1
0, 0
0, 1
0, 1
0, 1
0, 0
0, 0
0, 0
0, 2
0, 0
0, 0
1, 0
0, 2
0, 0
0, 1
0, 0
1, 1
0, 0
0, 0
0, 1
0, 1
0, 1
0, 1
1, 2
0, 0
0, 1
0, 0
1, 0
1, 0
0, 0
0, 0
1, 0
0, 1
0, 0
1, 1
0, 0
0, 0
1, 0
0, 1
0, 0
0, 0
0, 0
0, 0
1, 0
0, 0
0, 0
0, 0
1, 0
0, 0
0, 0
0, 1
0, 0
0, 0
0, 0
0, 0
1, 0
0, 0
0, 0
0, 1
0, 0
0, 0
0, 0
1, 1
0, 0
0, 0
0, 2
0, 0
0, 0
0, 0
0, 1
0, 0
1, 0
0, 0
1, 0
0, 1
1, 0
1, 2
0, 0
0, 0
1, 1
0, 0
1, 0
1, 0
0, 0
0, 0
1, 1
0, 1
0, 0
0, 1
0, 0
0, 0
0, 0
0, 0
1, 0
0, 0
4, 0
0, 0
0, 0
0, 0
0, 0
1, 0
0, 1
0, 0
0, 0
0, 0
0, 0
0, 0
0, 0
0, 0
0, 0
0, 0
0, 0
0, 0
0, 0
0, 1
0, 0
0, 0
0, 0
0, 0
0, 0
0, 0
0, 0
0, 0
0, 0
0, 0
0, 0
1, 0
0, 0
0, 0
0, 1
0, 0
0, 0
1, 0
0, 0
0, 0
0, 0
1, 1
1, 0
0, 0
0, 1
0, 0
0, 1
0, 0
0, 0
0, 0
0, 0
0, 0
0, 0
0, 0
1, 0
0, 0
0, 0
1, 0
0, 0
1, 0
0, 0
0, 0
0, 0
1, 1
0, 0
0, 0
0, 0
1, 1
0, 0
1, 0
0, 0
0, 0
0, 0
0, 0
0, 0
0, 0
0, 0
0, 0
0, 0
0, 0
0, 0
0, 0
0, 0
0, 0
0, 0
0, 0
0, 0
0, 0
0, 0
0, 0
0, 0
0, 0
0, 0
0, 0
0, 0
0, 0
0, 0
0, 0
0, 0
0, 0
0, 0
0, 0
0, 0
0, 0
0, 0
0, 0
0, 0
0, 0
0, 0
0, 0
0, 0
0, 0
0, 0
0, 0
0, 0
0, 0
0, 0
0, 0
0, 0
0, 0
0, 0
0, 0
0, 1
0, 0
0, 0
0, 0
0, 0
0, 0
0, 0
0, 0
0, 0
0, 0
0, 1
0, 0
0, 0
0, 0
0, 0
1, 0
0, 0
0, 0
0, 0
1, 0
0, 0
0, 1
0, 0
0, 0
0, 0
0, 0
0, 0
0, 0
0, 0
0, 0
0, 0
0, 0
0, 0
0, 0
0, 0
0, 0
0, 0
0, 0
0, 0
0, 0
0, 0
0, 0
0, 0
1, 0
0, 0
0, 0
0, 0
0, 0
0, 0
0, 0
0, 0
0, 0
0, 0
0, 0
0, 0
0, 0
0, 0
0, 0
0, 0
0, 0
0, 0
0, 0
0, 0
0, 0
0, 0
0, 0
0, 0
0, 0
0, 0
0, 0
0, 0
0, 0
0, 0
0, 0
0, 0
0, 0
0, 0
0, 0
0, 0
1, 0
0, 0
0, 0
0, 0
0, 0
0, 0
0, 0
0, 0
0, 0
0, 0
0, 0
0, 0
0, 0
0, 0
0, 0
0, 0
0, 0
0, 0
0, 0
0, 0
0, 0
0, 0
0, 0
0, 0
0, 0
0, 0
0, 0
0, 0
0, 0
0, 0
0, 0
0, 0
0, 0
0, 0
0, 0
0, 0
0, 0
0, 0
0, 0
0, 0
0, 0
0, 0
0, 0
0, 0
0, 0
0, 0
0, 0
0, 0
0, 0
0, 0
0, 0
0, 0
0, 0
0, 0
0, 0
0, 0
0, 0
0, 0
0, 0
0, 0
0, 0
0, 0
0, 0
0, 0
0, 0
0, 0
0, 0
0, 0
0, 0
0, 0
0, 0
0, 0
0, 0
0, 0
0, 0
0, 0
0, 0
0, 0
0, 0
0, 0
0, 0
0, 0
0, 0
0, 0
0, 0
0, 0
0, 0
0, 0
0, 0
0, 0
0, 0
0, 0
0, 0
0, 0
0, 0
0, 0
0, 0
0, 0
0, 0
0, 0
0, 0
0, 0
0, 0
0, 0
0, 0
0, 0
0, 0
0, 0
0, 0
0, 0
0, 0
0, 0
0, 0
0, 0
0, 0
0, 0
0, 0
0, 0
0, 0
0, 0
0, 0
0, 0
0, 0
0, 0
0, 0
0, 0
0, 0
0, 0
0, 0
0, 0
0, 0
0, 0
0, 0
0, 0
0, 0
0, 0
0, 0
0, 0
0, 0
0, 0
0, 0
0, 0
0, 0
0, 0
0, 0
0, 0
0, 0
0, 0
0, 0
0, 0
0, 0
0, 0
0, 0
0, 0
0, 0
0, 0
0, 0
0, 0
0, 0
0, 0
0, 0
0, 0
0, 0
0, 0
0, 0
0, 0
0, 0
0, 0
0, 0
0, 0
0, 0
0, 0
0, 0
0, 0
0, 0
0, 0
0, 0
0, 0
0, 0
0, 0
0, 0
0, 0
0, 0
0, 0
0, 0
0, 0
0, 0
0, 0
0, 0
0, 0
0, 0
0, 0
0, 0
0, 0
0, 0
0, 0
0, 0
0, 0
0, 0
0, 0
0, 0
0, 0
0, 0
0, 0
0, 0
0, 0
0, 0
0, 0
0, 0
0, 0
0, 0
0, 0
0, 0
0, 0
0, 0
0, 0
0, 0
0, 0
0, 0
0, 0
0, 0
0, 0
0, 0
0, 0
0, 0
0, 0
0, 0
0, 0
0, 0
0, 0
0, 0
0, 0
0, 0
0, 0
0, 0
0, 0
0, 0
0, 0
0, 0
0, 0
0, 0
0, 0
0, 0
0, 0
0, 0
0, 0
0, 0
0, 0
0, 0
0, 0
0, 0
0, 0
0, 0
0, 0
0, 0
0, 0
0, 0
0, 0
0, 0
0, 0
0, 0
0, 0
0, 0
0, 0
0, 0
0, 0
0, 0
0, 0
0, 0
0, 0
0, 0
0, 0
0, 0
0, 0
0, 0
0, 0
0, 0
0, 0
0, 0
0, 0
0, 0
0, 0
0, 0
0, 0
0, 0
0, 0
0, 0
0, 0
0, 0
0, 0
0, 0
0, 0
0, 0
0, 0
0, 0
0, 0
0, 0
0, 0
0, 0
0, 0
0, 0
0, 0
0, 0
0, 0
0, 0
0, 0
0, 0
0, 0
0, 0
0, 0
0, 0
0, 0
0, 0
0, 0
0, 0
0, 0
0, 0
0, 0
0, 0
0, 0
0, 0
0, 0
0, 0
0, 0
0, 0
0, 0
0, 0
0, 0
0, 0
0, 0
0, 0
0, 0
0, 0
0, 0
0, 0
0, 0
0, 0
0, 0
0, 0
0, 0
0, 0
0, 0
0, 0
0, 0
0, 0
0, 0
0, 0
0, 0
0, 0
0, 0
0, 0
0, 0
0, 0
0, 0
0, 0
#ENDOFDATA     end of spectrum data