File: host_upload/02-11-2024/rqc/uplink1/ps__0567_0717304816_000rfs_shot_165.msa
#FORMAT      : EMSA/MAS spectral data file
#VERSION     : TC202v2.0 PIXL
#TITLE       : Novarupta (sol567) subset1
#DATE        : 02-11-2024      Date in the format DD-MMM-YYYY, for example 07-JUL-2010
#TIME        :             The time of day at which the spectrum was recorded, in 24-hour format
#OWNER       : PIXL Flight Model       (PIXL will use this to indicate which instrument took the data.)
#NPOINTS     : 4096     Number of data points in the spectrum (This can be zero for configuration only files)
#NCOLUMNS    : 2     Number of data columns in the spectrum (This can be zero for configuration only files)
#XUNITS      : eV
#YUNITS      : COUNTS
#DATATYPE    : YY
#XPERCHAN    : 7.862, 7.881   eV per channel (separate by commas if more than one detector)
#OFFSET      : 18.5, -22.4         eV of first channel  (separate by commas if more than one detector
#SIGNALTYPE  : XRF
#YP_TEMP     : 0.215
#LIVETIME    : 8.82729, 8.80689   seconds (separate by commas if more than one detector)
#REALTIME    : 10, 10.0   seconds (separate by commas if more than one detector)
#SPECTRUM    : start of spectrum data
0, 0
0, 0
0, 0
0, 0
0, 0
0, 0
0, 0
0, 0
0, 0
0, 0
0, 0
0, 0
0, 0
0, 0
0, 0
0, 0
0, 0
0, 0
0, 0
0, 0
0, 0
0, 0
0, 0
0, 0
0, 0
0, 0
0, 0
0, 0
0, 0
0, 0
0, 0
0, 0
0, 0
1, 0
1, 0
0, 4
6, 1
4, 7
3, 4
5, 8
3, 3
3, 3
1, 6
2, 2
6, 6
8, 2
2, 4
4, 2
6, 3
5, 4
5, 6
14, 9
11, 16
21, 23
15, 18
18, 11
20, 11
16, 9
9, 8
14, 8
19, 12
25, 37
32, 38
46, 39
54, 53
46, 50
39, 51
32, 32
37, 43
54, 71
126, 126
210, 199
302, 299
416, 445
486, 497
507, 525
452, 454
354, 323
226, 228
137, 137
81, 75
40, 43
32, 31
45, 32
33, 34
32, 41
36, 33
33, 29
37, 29
16, 18
12, 13
18, 19
34, 27
57, 53
79, 80
122, 122
200, 214
257, 265
291, 337
281, 301
295, 249
208, 197
154, 167
98, 118
62, 74
67, 58
55, 59
56, 76
103, 114
142, 148
164, 178
228, 253
235, 234
247, 225
218, 200
152, 178
139, 139
129, 110
91, 95
93, 79
82, 88
61, 70
67, 53
59, 55
48, 52
35, 32
28, 37
29, 32
25, 30
19, 13
8, 14
13, 7
6, 6
9, 5
6, 7
10, 7
11, 11
24, 14
17, 22
25, 27
27, 28
31, 26
29, 22
35, 24
22, 20
13, 18
14, 12
9, 8
14, 11
10, 18
23, 42
41, 69
74, 110
150, 152
202, 237
268, 333
336, 377
367, 399
363, 378
341, 310
234, 237
169, 143
113, 100
66, 65
38, 31
30, 21
32, 25
35, 46
48, 57
58, 52
49, 60
52, 60
65, 60
52, 48
36, 46
22, 27
24, 10
19, 12
8, 12
10, 11
12, 10
7, 12
13, 9
8, 13
12, 11
14, 15
11, 16
23, 23
40, 33
58, 50
57, 73
68, 67
67, 55
53, 70
65, 60
43, 50
29, 39
24, 30
24, 18
18, 23
15, 9
19, 19
8, 21
19, 14
14, 14
15, 18
15, 19
17, 24
27, 22
21, 24
22, 16
21, 26
8, 15
24, 17
13, 15
10, 11
17, 12
11, 4
6, 15
8, 10
6, 5
10, 10
6, 18
15, 19
11, 15
18, 27
23, 24
22, 27
30, 35
28, 24
33, 35
41, 25
25, 36
25, 24
22, 32
16, 10
17, 18
16, 18
16, 9
13, 10
8, 9
13, 20
19, 15
14, 19
12, 20
29, 25
27, 26
37, 47
46, 43
44, 48
49, 60
46, 64
50, 54
42, 30
31, 40
44, 33
26, 18
27, 19
19, 15
21, 17
20, 33
20, 33
36, 54
63, 98
121, 166
206, 322
390, 503
654, 746
929, 1082
1256, 1425
1505, 1704
1686, 1791
1849, 1827
1709, 1669
1517, 1315
1184, 1060
828, 756
558, 501
326, 282
201, 166
116, 104
85, 69
29, 33
23, 25
23, 20
12, 22
20, 15
22, 15
15, 18
13, 24
21, 29
42, 37
59, 59
75, 66
90, 117
128, 136
167, 204
219, 217
230, 253
274, 298
260, 278
238, 221
210, 213
165, 164
134, 93
75, 80
54, 57
34, 30
23, 20
20, 10
10, 12
12, 11
12, 5
11, 14
6, 11
10, 11
14, 11
15, 16
16, 18
21, 18
9, 11
4, 5
11, 6
6, 6
4, 5
6, 4
7, 8
5, 3
10, 3
5, 7
5, 6
6, 4
5, 5
4, 7
3, 2
7, 13
6, 6
3, 5
2, 4
11, 7
7, 6
9, 8
9, 10
7, 7
12, 3
0, 10
6, 9
4, 3
8, 3
9, 8
6, 3
9, 11
13, 6
4, 5
10, 6
8, 7
6, 9
5, 3
3, 3
4, 5
10, 5
10, 8
10, 14
9, 6
6, 9
9, 4
8, 15
8, 10
13, 10
12, 9
10, 12
12, 8
4, 10
4, 5
8, 11
12, 7
7, 5
6, 8
5, 5
9, 5
5, 9
8, 7
3, 5
4, 7
4, 8
4, 7
3, 6
3, 3
5, 5
3, 6
4, 7
4, 5
5, 6
7, 5
6, 4
6, 3
4, 7
6, 4
7, 5
6, 4
1, 5
3, 7
5, 4
8, 3
3, 3
8, 9
6, 5
2, 4
4, 8
7, 6
11, 5
6, 8
2, 6
4, 2
5, 3
5, 7
2, 2
4, 5
5, 4
2, 4
0, 4
4, 9
5, 5
5, 1
4, 4
4, 3
5, 2
2, 1
1, 8
4, 4
4, 4
2, 2
5, 3
3, 5
5, 7
6, 4
4, 2
6, 3
4, 3
1, 8
1, 4
6, 2
2, 6
2, 4
2, 1
5, 5
2, 5
0, 3
0, 7
2, 7
1, 3
3, 4
4, 1
3, 2
3, 3
5, 2
1, 5
4, 2
1, 4
2, 2
6, 6
5, 3
4, 4
4, 6
3, 5
1, 4
3, 5
4, 3
4, 2
3, 4
3, 3
6, 6
5, 1
3, 5
3, 3
2, 2
2, 3
5, 5
4, 3
2, 0
3, 4
3, 4
1, 4
2, 1
2, 3
3, 4
1, 2
0, 3
0, 3
3, 0
3, 0
2, 2
1, 1
2, 0
1, 4
2, 3
2, 2
2, 1
4, 2
1, 2
3, 2
6, 1
3, 5
2, 5
3, 1
2, 4
1, 3
2, 1
3, 1
3, 4
1, 2
3, 1
4, 0
1, 1
1, 3
1, 1
3, 4
3, 3
2, 1
1, 1
2, 3
3, 1
2, 5
2, 2
0, 2
3, 4
3, 2
2, 2
0, 2
0, 3
3, 0
3, 3
1, 1
2, 1
2, 2
2, 4
6, 0
2, 2
1, 5
4, 3
4, 2
3, 4
1, 9
2, 5
4, 6
0, 2
3, 2
0, 1
2, 4
4, 2
2, 0
1, 1
3, 1
0, 1
1, 1
2, 1
1, 0
0, 1
1, 2
1, 2
1, 1
3, 3
2, 0
1, 2
3, 5
1, 0
0, 1
1, 2
2, 5
3, 1
2, 0
1, 0
0, 1
0, 2
1, 2
2, 0
2, 0
1, 0
4, 0
1, 3
2, 1
0, 2
0, 2
1, 1
3, 3
2, 1
0, 2
2, 2
0, 1
1, 0
1, 3
1, 2
3, 0
1, 2
0, 2
2, 1
2, 1
2, 0
2, 2
1, 0
2, 1
2, 0
0, 2
1, 1
3, 0
1, 0
0, 1
1, 0
1, 1
0, 1
1, 0
0, 0
1, 0
0, 2
1, 1
3, 2
0, 0
0, 0
0, 2
0, 3
0, 2
0, 0
0, 1
0, 1
1, 1
0, 3
1, 0
0, 0
2, 0
1, 1
2, 1
1, 0
0, 0
0, 1
0, 0
0, 0
1, 0
0, 2
0, 1
1, 1
0, 1
0, 0
1, 1
0, 1
3, 1
1, 0
0, 0
2, 1
0, 0
0, 0
0, 0
1, 0
0, 0
0, 2
0, 1
0, 0
2, 2
2, 1
1, 0
0, 1
0, 2
0, 1
0, 1
1, 0
1, 0
0, 1
0, 2
0, 0
2, 1
2, 0
1, 0
0, 0
0, 0
0, 0
0, 0
0, 0
0, 1
0, 1
1, 0
1, 0
0, 0
0, 0
1, 0
0, 1
0, 0
0, 0
0, 1
0, 0
0, 0
0, 0
0, 0
1, 0
1, 1
1, 0
0, 1
0, 0
0, 0
0, 0
0, 0
0, 0
1, 0
0, 1
0, 0
0, 0
0, 0
1, 0
0, 0
0, 0
0, 0
0, 0
0, 0
0, 1
0, 0
0, 2
0, 1
0, 0
0, 0
0, 0
0, 1
1, 0
0, 0
0, 1
1, 1
0, 0
0, 0
0, 0
0, 0
0, 0
1, 0
0, 1
0, 1
1, 0
0, 1
0, 0
0, 0
0, 0
1, 0
2, 0
0, 0
0, 0
0, 0
0, 0
1, 0
0, 0
0, 1
0, 0
0, 0
0, 0
0, 1
0, 0
0, 1
0, 0
0, 0
0, 0
0, 1
0, 0
0, 0
1, 1
0, 0
0, 0
0, 0
0, 0
0, 0
0, 0
0, 1
0, 0
1, 0
0, 0
1, 0
0, 0
0, 0
0, 0
0, 1
0, 0
0, 0
0, 0
0, 0
1, 0
1, 1
0, 0
0, 0
0, 0
0, 0
0, 0
1, 1
0, 0
0, 0
0, 1
0, 0
0, 0
0, 1
0, 0
1, 0
0, 1
0, 1
1, 0
0, 1
0, 0
1, 0
0, 0
0, 1
0, 0
0, 0
0, 0
0, 0
0, 0
1, 0
0, 0
0, 0
0, 0
0, 0
0, 0
0, 0
1, 0
0, 0
0, 0
0, 1
0, 0
0, 0
0, 0
1, 0
0, 0
0, 1
0, 0
0, 0
0, 0
0, 0
0, 0
0, 0
0, 0
0, 0
0, 0
1, 0
0, 0
0, 0
0, 0
0, 0
0, 0
0, 0
0, 1
0, 0
0, 0
1, 1
0, 0
0, 0
0, 0
0, 0
0, 0
0, 0
0, 0
0, 0
0, 0
0, 0
0, 1
0, 1
0, 0
0, 1
1, 0
0, 0
0, 0
0, 0
1, 0
0, 1
0, 0
1, 0
0, 1
0, 1
0, 0
0, 0
0, 0
0, 0
0, 1
0, 0
0, 0
0, 0
0, 0
0, 0
0, 0
0, 0
0, 0
0, 0
0, 0
0, 0
0, 0
0, 0
0, 0
0, 0
0, 0
0, 0
0, 0
0, 0
0, 0
0, 0
0, 0
0, 0
0, 0
0, 0
0, 0
0, 0
0, 0
0, 0
0, 0
0, 0
0, 0
0, 0
0, 0
0, 0
0, 0
0, 0
0, 0
0, 0
0, 0
0, 0
0, 0
0, 0
0, 0
0, 0
0, 0
0, 0
0, 0
0, 0
0, 0
0, 0
0, 0
0, 0
0, 0
0, 0
0, 0
0, 0
0, 0
0, 0
0, 0
0, 0
0, 0
0, 0
0, 0
0, 0
0, 0
0, 0
0, 0
0, 0
1, 0
0, 0
1, 0
0, 0
0, 0
0, 0
0, 0
0, 0
0, 0
0, 0
0, 0
0, 0
0, 0
0, 0
0, 0
0, 0
0, 0
0, 0
0, 0
0, 0
0, 0
0, 0
0, 0
0, 0
1, 0
0, 0
0, 0
0, 0
0, 0
0, 0
0, 0
0, 0
0, 0
0, 0
0, 0
0, 0
0, 0
0, 0
0, 0
0, 0
0, 0
0, 0
0, 0
0, 0
0, 0
0, 0
0, 0
0, 0
0, 0
0, 0
0, 0
0, 0
0, 0
0, 0
0, 0
0, 0
0, 0
0, 0
0, 0
0, 0
0, 0
0, 0
0, 0
0, 0
0, 0
0, 0
0, 0
0, 0
0, 0
0, 0
0, 0
0, 0
0, 0
0, 0
0, 0
0, 0
0, 0
0, 0
0, 0
0, 0
0, 0
0, 0
0, 0
0, 0
0, 0
0, 0
0, 0
0, 0
0, 0
0, 0
0, 0
0, 0
0, 0
0, 0
0, 0
0, 0
0, 0
0, 0
0, 0
0, 0
0, 0
0, 0
0, 0
0, 0
0, 0
0, 0
0, 0
0, 0
0, 0
0, 0
0, 0
0, 0
0, 0
0, 0
0, 0
0, 0
0, 0
0, 0
0, 0
0, 0
0, 0
0, 0
0, 0
0, 0
0, 0
0, 0
0, 0
0, 0
0, 0
0, 0
0, 0
0, 0
0, 0
0, 0
0, 0
0, 0
0, 0
0, 0
0, 0
0, 0
0, 0
0, 0
0, 0
0, 0
0, 0
0, 0
0, 0
0, 0
0, 0
0, 0
0, 0
0, 0
0, 0
0, 0
0, 0
0, 0
0, 0
0, 0
0, 0
0, 0
0, 0
0, 0
0, 0
0, 0
0, 0
0, 0
0, 0
0, 0
0, 0
0, 0
0, 0
0, 0
0, 0
0, 0
0, 0
0, 0
0, 0
0, 0
0, 0
0, 0
0, 0
0, 0
0, 0
0, 0
0, 0
0, 0
0, 0
0, 0
0, 0
0, 0
0, 0
0, 0
0, 0
0, 0
0, 0
0, 0
0, 0
0, 0
0, 0
0, 0
0, 0
0, 0
0, 0
0, 0
0, 0
0, 0
0, 0
0, 0
0, 0
0, 0
0, 0
0, 0
0, 0
0, 0
0, 0
0, 0
0, 0
0, 0
0, 0
0, 0
0, 0
0, 0
0, 0
0, 0
0, 0
0, 0
0, 0
0, 0
0, 0
0, 0
0, 0
0, 0
0, 0
0, 0
0, 0
0, 0
0, 0
0, 0
0, 0
0, 0
0, 0
0, 0
0, 0
0, 0
0, 0
0, 0
0, 0
0, 0
0, 0
0, 0
0, 0
0, 0
0, 0
0, 0
0, 0
0, 0
0, 0
0, 0
0, 0
0, 0
0, 0
0, 0
0, 0
0, 0
0, 0
0, 0
0, 0
0, 0
0, 0
0, 0
0, 0
0, 0
0, 0
0, 0
0, 0
0, 0
0, 0
0, 0
0, 0
0, 0
0, 0
0, 0
0, 0
0, 0
0, 0
0, 0
0, 0
0, 0
0, 0
0, 0
0, 0
0, 0
0, 0
0, 0
0, 0
0, 0
0, 0
0, 0
0, 0
0, 0
0, 0
0, 0
0, 0
0, 0
0, 0
0, 0
0, 0
0, 0
0, 0
0, 0
0, 0
0, 0
0, 0
0, 0
0, 0
0, 0
0, 0
0, 0
0, 0
0, 0
0, 0
0, 0
0, 0
0, 0
0, 0
0, 0
0, 0
0, 0
0, 0
0, 0
0, 0
0, 0
0, 0
0, 0
0, 0
0, 0
0, 0
0, 0
0, 0
0, 0
0, 0
0, 0
0, 0
0, 0
0, 0
0, 0
0, 0
0, 0
0, 0
0, 0
0, 0
0, 0
0, 0
0, 0
0, 0
0, 0
0, 0
0, 0
0, 0
0, 0
0, 0
0, 0
0, 0
0, 0
0, 0
0, 0
0, 0
0, 0
0, 0
0, 0
0, 0
0, 0
0, 0
0, 0
0, 0
0, 0
0, 0
0, 0
0, 0
0, 0
0, 0
0, 0
0, 0
0, 0
0, 0
0, 0
0, 0
0, 0
0, 0
0, 0
0, 0
0, 0
0, 0
0, 0
0, 0
0, 0
0, 0
0, 0
0, 0
0, 0
0, 0
0, 0
0, 0
0, 0
0, 0
0, 0
0, 0
0, 0
0, 0
0, 0
0, 0
0, 0
0, 0
0, 0
0, 0
0, 0
0, 0
0, 0
0, 0
0, 0
0, 0
0, 0
0, 0
0, 0
0, 0
#ENDOFDATA     end of spectrum data