File: host_upload/02-11-2024/rqc/uplink1/ps__0567_0717304816_000rfs_shot_180.msa
#FORMAT      : EMSA/MAS spectral data file
#VERSION     : TC202v2.0 PIXL
#TITLE       : Novarupta (sol567) subset1
#DATE        : 02-11-2024      Date in the format DD-MMM-YYYY, for example 07-JUL-2010
#TIME        :             The time of day at which the spectrum was recorded, in 24-hour format
#OWNER       : PIXL Flight Model       (PIXL will use this to indicate which instrument took the data.)
#NPOINTS     : 4096     Number of data points in the spectrum (This can be zero for configuration only files)
#NCOLUMNS    : 2     Number of data columns in the spectrum (This can be zero for configuration only files)
#XUNITS      : eV
#YUNITS      : COUNTS
#DATATYPE    : YY
#XPERCHAN    : 7.862, 7.881   eV per channel (separate by commas if more than one detector)
#OFFSET      : 18.5, -22.4         eV of first channel  (separate by commas if more than one detector
#SIGNALTYPE  : XRF
#YP_TEMP     : 0.407
#LIVETIME    : 8.83849, 8.82291   seconds (separate by commas if more than one detector)
#REALTIME    : 10, 10.0   seconds (separate by commas if more than one detector)
#SPECTRUM    : start of spectrum data
0, 0
0, 0
0, 0
0, 0
0, 0
0, 0
0, 0
0, 0
0, 0
0, 0
0, 0
0, 0
0, 0
0, 0
0, 0
0, 0
0, 0
0, 0
0, 0
0, 0
0, 0
0, 0
0, 0
0, 0
0, 0
0, 0
0, 0
0, 0
0, 0
0, 0
0, 1
1, 0
0, 0
0, 1
0, 2
1, 3
3, 4
6, 4
9, 2
2, 9
5, 4
3, 5
4, 4
7, 0
3, 4
0, 1
3, 3
5, 3
5, 5
3, 3
13, 10
13, 8
19, 7
17, 10
13, 15
14, 21
18, 15
11, 18
10, 10
11, 10
23, 21
33, 29
29, 49
32, 50
57, 46
48, 60
35, 42
29, 30
37, 46
59, 75
136, 139
193, 225
325, 317
363, 463
493, 537
508, 508
441, 440
316, 317
240, 216
155, 141
88, 81
53, 37
36, 32
27, 35
32, 26
33, 36
29, 31
30, 37
23, 29
23, 15
19, 24
30, 22
23, 26
48, 53
87, 93
135, 158
182, 244
252, 283
303, 338
294, 309
275, 282
230, 192
151, 155
99, 107
71, 82
44, 46
59, 63
74, 99
98, 122
147, 166
176, 187
212, 252
254, 243
243, 243
207, 205
201, 192
179, 141
102, 112
90, 96
104, 112
72, 75
71, 68
57, 79
58, 65
35, 57
25, 35
31, 39
17, 19
11, 24
14, 16
5, 15
7, 15
5, 3
10, 7
14, 10
6, 9
14, 17
17, 17
17, 21
22, 20
22, 37
26, 29
30, 19
31, 21
29, 20
14, 18
11, 14
15, 4
17, 6
22, 12
30, 26
54, 66
78, 123
130, 172
205, 250
305, 304
334, 369
359, 379
341, 357
306, 297
250, 219
147, 153
120, 106
62, 54
36, 40
26, 33
17, 26
35, 44
36, 41
53, 64
57, 62
63, 56
44, 52
47, 45
35, 23
28, 31
25, 19
10, 9
12, 12
16, 8
5, 10
13, 5
6, 5
8, 11
9, 17
8, 22
18, 13
22, 37
30, 29
48, 54
58, 58
52, 60
63, 62
65, 59
60, 49
40, 47
41, 39
33, 25
27, 17
14, 19
15, 16
16, 8
11, 13
14, 14
7, 18
12, 13
18, 20
12, 19
15, 26
13, 13
24, 12
13, 14
23, 14
14, 21
15, 15
14, 8
11, 20
7, 8
13, 6
9, 11
12, 8
12, 7
10, 13
10, 9
17, 18
17, 20
20, 24
23, 30
37, 25
32, 33
30, 38
34, 31
29, 22
25, 38
15, 22
16, 23
15, 15
10, 13
9, 6
8, 11
17, 10
17, 8
11, 9
19, 21
20, 20
14, 21
38, 25
26, 34
43, 44
55, 39
40, 58
47, 49
41, 48
54, 60
36, 42
31, 29
27, 25
20, 30
20, 16
10, 17
24, 10
31, 33
40, 48
79, 85
128, 163
243, 292
366, 500
649, 789
854, 1047
1173, 1376
1465, 1658
1735, 1838
1747, 1896
1703, 1670
1449, 1545
1124, 1123
829, 754
584, 510
365, 294
214, 173
107, 102
55, 66
46, 22
23, 26
16, 11
10, 21
13, 8
18, 26
14, 20
16, 23
20, 28
29, 26
47, 62
55, 74
64, 101
131, 139
154, 201
217, 234
246, 256
279, 296
251, 289
229, 260
213, 219
190, 154
123, 129
91, 89
58, 68
39, 17
14, 22
10, 12
8, 8
8, 11
5, 7
8, 11
15, 7
15, 18
15, 13
13, 12
10, 14
9, 12
11, 13
13, 11
11, 8
11, 11
9, 11
6, 3
3, 6
6, 3
8, 13
3, 11
3, 8
12, 7
5, 6
4, 6
8, 9
5, 3
5, 9
6, 5
6, 7
7, 10
6, 5
7, 6
6, 4
9, 7
7, 3
5, 9
10, 6
9, 6
9, 5
9, 6
9, 7
5, 10
7, 8
5, 10
10, 6
11, 6
6, 3
7, 6
5, 6
6, 7
10, 7
14, 9
10, 7
4, 9
6, 11
10, 13
7, 9
18, 10
13, 13
14, 13
6, 6
8, 14
4, 12
3, 5
9, 11
10, 8
3, 6
9, 9
2, 5
8, 4
13, 4
7, 5
4, 3
9, 8
1, 8
6, 7
3, 5
5, 4
5, 4
1, 5
6, 4
9, 7
5, 8
4, 8
8, 4
7, 10
6, 6
2, 4
5, 2
2, 6
7, 4
4, 4
7, 6
6, 5
7, 3
6, 3
7, 5
5, 4
7, 5
6, 7
4, 6
6, 8
4, 6
7, 6
4, 2
1, 5
4, 2
6, 6
3, 8
1, 5
4, 4
3, 5
3, 6
6, 1
6, 6
4, 5
3, 4
5, 5
1, 3
9, 4
5, 6
5, 6
9, 1
4, 7
2, 5
3, 6
4, 4
2, 6
3, 6
3, 2
5, 3
2, 4
2, 3
3, 6
4, 4
6, 5
3, 4
2, 3
2, 3
2, 2
3, 6
2, 0
0, 6
7, 5
2, 5
1, 2
3, 2
3, 4
7, 2
4, 1
2, 5
1, 3
2, 5
4, 4
2, 1
6, 4
4, 2
5, 3
4, 6
3, 1
3, 6
2, 6
5, 2
3, 3
1, 5
4, 2
6, 8
1, 3
3, 3
2, 1
5, 2
0, 3
2, 1
3, 0
1, 1
2, 3
4, 4
3, 4
4, 3
5, 2
2, 2
3, 5
1, 5
3, 3
1, 2
3, 2
5, 4
0, 3
0, 3
1, 2
0, 4
1, 3
5, 3
0, 0
2, 3
3, 4
3, 2
4, 6
3, 2
3, 4
2, 2
5, 1
1, 3
2, 2
3, 3
2, 2
2, 5
0, 1
4, 3
2, 0
1, 3
5, 1
1, 3
2, 3
1, 5
3, 1
1, 0
3, 1
4, 0
3, 3
3, 1
2, 3
0, 1
1, 2
5, 0
3, 2
3, 3
3, 1
1, 6
4, 4
2, 2
0, 2
0, 2
2, 1
0, 2
3, 3
2, 1
2, 2
2, 2
3, 2
1, 4
1, 2
0, 3
2, 2
1, 0
3, 1
3, 1
0, 1
0, 1
0, 2
0, 2
1, 0
3, 1
0, 1
1, 1
3, 3
1, 1
1, 2
1, 4
2, 3
3, 1
0, 2
2, 1
2, 1
3, 6
1, 2
1, 1
1, 2
0, 1
1, 0
2, 2
0, 2
2, 1
1, 1
1, 1
1, 1
0, 2
1, 0
2, 0
1, 1
1, 0
1, 2
2, 2
1, 0
1, 1
0, 1
0, 1
0, 1
1, 0
2, 0
2, 1
2, 0
1, 1
1, 0
1, 0
0, 0
1, 3
0, 0
1, 1
1, 1
2, 2
1, 1
1, 2
1, 0
1, 0
2, 3
1, 0
1, 0
2, 3
2, 1
0, 0
1, 0
1, 1
0, 2
1, 2
0, 0
0, 1
0, 1
1, 2
1, 1
1, 2
0, 0
0, 3
0, 1
1, 0
2, 2
0, 1
1, 2
0, 1
0, 0
0, 0
0, 2
0, 0
1, 0
1, 1
0, 2
0, 1
0, 0
0, 0
1, 3
1, 3
0, 0
0, 0
0, 0
0, 1
0, 0
1, 1
1, 1
2, 0
0, 1
1, 2
1, 0
0, 2
1, 1
0, 0
1, 0
2, 0
0, 1
1, 1
1, 2
0, 1
0, 0
0, 0
0, 0
0, 0
0, 1
0, 1
0, 1
1, 1
1, 0
1, 0
1, 1
1, 0
0, 2
1, 1
0, 0
1, 1
0, 0
1, 0
0, 0
0, 1
1, 0
0, 0
1, 0
2, 0
0, 1
1, 2
0, 1
1, 1
1, 0
0, 0
0, 0
0, 3
0, 1
0, 1
0, 1
0, 0
0, 0
1, 0
1, 0
0, 1
0, 0
0, 0
0, 0
0, 0
0, 0
1, 0
1, 1
0, 1
2, 0
0, 0
1, 1
0, 0
2, 0
0, 1
0, 1
0, 1
0, 0
1, 0
0, 1
0, 0
0, 1
0, 1
0, 0
0, 0
0, 0
2, 0
0, 0
0, 0
0, 1
1, 0
0, 1
0, 0
0, 1
1, 0
0, 0
0, 0
0, 0
0, 1
0, 0
0, 0
1, 0
0, 0
1, 0
0, 1
0, 0
0, 0
0, 0
0, 0
0, 0
0, 0
1, 1
0, 0
0, 0
0, 0
0, 0
0, 0
0, 0
0, 0
0, 0
0, 0
0, 0
1, 0
0, 0
0, 0
1, 0
0, 0
1, 0
0, 0
1, 0
0, 0
0, 0
0, 0
0, 0
0, 0
1, 1
0, 2
1, 0
0, 1
0, 0
0, 1
0, 1
0, 0
0, 0
0, 2
0, 0
0, 0
0, 0
0, 0
0, 1
0, 0
0, 0
0, 0
0, 0
0, 0
0, 0
0, 0
0, 0
1, 0
0, 1
1, 0
0, 0
0, 0
0, 0
0, 0
0, 0
0, 0
1, 1
1, 0
0, 0
0, 0
0, 0
1, 0
0, 0
0, 0
0, 0
1, 1
0, 0
0, 0
0, 0
1, 0
0, 0
0, 0
0, 0
0, 0
1, 0
2, 0
0, 0
0, 0
1, 1
2, 0
0, 0
0, 0
0, 0
0, 0
1, 0
0, 1
1, 0
1, 0
0, 0
0, 0
0, 0
0, 0
0, 1
0, 0
0, 0
0, 0
0, 0
0, 0
0, 0
1, 0
0, 0
0, 1
0, 0
0, 0
0, 1
0, 0
0, 0
0, 0
0, 0
0, 0
0, 0
0, 0
0, 0
0, 0
0, 0
0, 0
0, 0
0, 0
0, 0
0, 0
0, 0
0, 0
0, 1
0, 0
0, 0
0, 0
0, 1
0, 0
0, 0
0, 0
0, 0
0, 0
0, 0
0, 0
1, 0
0, 1
0, 0
0, 0
0, 0
0, 1
0, 0
0, 0
0, 0
0, 0
0, 1
0, 0
0, 0
0, 0
0, 0
0, 0
0, 0
0, 0
0, 0
0, 0
0, 1
0, 0
0, 0
0, 0
0, 0
0, 0
0, 0
0, 0
0, 0
0, 0
0, 0
0, 0
1, 0
0, 1
0, 0
0, 0
0, 0
0, 0
1, 0
1, 0
0, 0
0, 0
0, 0
0, 0
0, 0
0, 0
0, 0
0, 0
0, 0
0, 0
0, 0
0, 2
0, 0
0, 0
0, 0
0, 0
0, 0
0, 0
0, 0
0, 0
0, 0
0, 1
0, 0
0, 0
0, 0
0, 1
0, 0
0, 0
0, 0
0, 0
0, 0
0, 0
0, 1
0, 0
0, 0
0, 0
0, 0
0, 0
0, 0
0, 0
0, 0
0, 0
0, 0
0, 0
0, 0
0, 0
0, 0
0, 0
0, 0
0, 0
0, 0
0, 0
0, 0
0, 0
0, 0
0, 0
0, 0
0, 0
0, 0
0, 0
0, 0
0, 0
0, 0
0, 0
0, 0
0, 0
0, 0
0, 0
0, 0
0, 0
0, 0
0, 0
0, 0
0, 0
0, 1
0, 0
0, 0
0, 0
0, 0
0, 0
0, 0
0, 0
0, 0
0, 0
0, 0
0, 0
0, 0
0, 0
0, 0
0, 0
0, 0
1, 0
0, 0
0, 0
0, 0
0, 0
0, 0
0, 0
0, 0
0, 0
0, 0
0, 0
0, 0
0, 0
0, 0
0, 0
0, 0
0, 0
0, 0
0, 0
0, 0
0, 0
0, 0
0, 0
0, 0
0, 0
0, 0
0, 0
0, 0
0, 0
0, 0
0, 0
0, 0
0, 0
0, 0
0, 0
0, 0
0, 0
0, 0
0, 0
0, 0
0, 0
0, 0
0, 0
0, 0
0, 0
0, 0
0, 0
0, 0
0, 0
0, 0
0, 0
0, 0
0, 0
0, 0
0, 0
0, 0
0, 0
0, 0
0, 0
0, 0
0, 0
0, 0
0, 0
0, 0
0, 0
0, 0
0, 0
0, 0
0, 0
0, 0
0, 0
0, 0
0, 0
0, 0
0, 0
0, 0
0, 0
0, 0
0, 0
0, 0
0, 0
0, 0
0, 0
0, 0
0, 0
0, 0
0, 0
0, 0
0, 0
0, 0
0, 0
0, 0
0, 0
0, 0
0, 0
0, 0
0, 0
0, 0
0, 0
0, 0
0, 0
0, 0
0, 0
0, 0
0, 0
0, 0
0, 0
0, 0
0, 0
0, 0
0, 0
0, 0
0, 0
0, 0
0, 0
0, 0
0, 0
0, 0
0, 0
0, 0
0, 0
0, 0
0, 0
0, 0
0, 0
0, 0
0, 0
0, 0
0, 0
0, 0
0, 0
0, 0
0, 0
0, 0
0, 0
0, 0
0, 0
0, 0
0, 0
0, 0
0, 0
0, 0
0, 0
0, 0
0, 0
0, 0
0, 0
0, 0
0, 0
0, 0
0, 0
0, 0
0, 0
0, 0
0, 0
0, 0
0, 0
0, 0
0, 0
0, 0
0, 0
0, 0
0, 0
0, 0
0, 0
0, 0
0, 0
0, 0
0, 0
0, 0
0, 0
0, 0
0, 0
0, 0
0, 0
0, 0
0, 0
0, 0
0, 0
0, 0
0, 0
0, 0
0, 0
0, 0
0, 0
0, 0
0, 0
0, 0
0, 0
0, 0
0, 0
0, 0
0, 0
0, 0
0, 0
0, 0
0, 0
0, 0
0, 0
0, 0
0, 0
0, 0
0, 0
0, 0
0, 0
0, 0
0, 0
0, 0
0, 0
0, 0
0, 0
0, 0
0, 0
0, 0
0, 0
0, 0
0, 0
0, 0
0, 0
0, 0
0, 0
0, 0
0, 0
0, 0
0, 0
0, 0
0, 0
0, 0
0, 0
0, 0
0, 0
0, 0
0, 0
0, 0
0, 0
0, 0
0, 0
0, 0
0, 0
0, 0
0, 0
0, 0
0, 0
0, 0
0, 0
0, 0
0, 0
0, 0
0, 0
0, 0
0, 0
0, 0
0, 0
0, 0
0, 0
0, 0
0, 0
0, 0
0, 0
0, 0
0, 0
0, 0
0, 0
0, 0
0, 0
0, 0
0, 0
0, 0
0, 0
0, 0
0, 0
0, 0
0, 0
0, 0
0, 0
0, 0
0, 0
0, 0
0, 0
0, 0
0, 0
0, 0
0, 0
0, 0
0, 0
0, 0
0, 0
0, 0
0, 0
0, 0
0, 0
0, 0
0, 0
0, 0
0, 0
0, 0
0, 0
0, 0
0, 0
0, 0
0, 0
0, 0
0, 0
0, 0
0, 0
0, 0
0, 0
0, 0
0, 0
0, 0
0, 0
0, 0
0, 0
0, 0
0, 0
0, 0
0, 0
0, 0
0, 0
0, 0
0, 0
0, 0
0, 0
0, 0
0, 0
0, 0
0, 0
0, 0
0, 0
0, 0
0, 0
0, 0
0, 0
0, 0
0, 0
0, 0
0, 0
0, 0
0, 0
0, 0
#ENDOFDATA     end of spectrum data