File: host_upload/02-11-2024/rqc/uplink1/ps__0567_0717304816_000rfs_shot_20.msa
#FORMAT      : EMSA/MAS spectral data file
#VERSION     : TC202v2.0 PIXL
#TITLE       : Novarupta (sol567) subset1
#DATE        : 02-11-2024      Date in the format DD-MMM-YYYY, for example 07-JUL-2010
#TIME        :             The time of day at which the spectrum was recorded, in 24-hour format
#OWNER       : PIXL Flight Model       (PIXL will use this to indicate which instrument took the data.)
#NPOINTS     : 4096     Number of data points in the spectrum (This can be zero for configuration only files)
#NCOLUMNS    : 2     Number of data columns in the spectrum (This can be zero for configuration only files)
#XUNITS      : eV
#YUNITS      : COUNTS
#DATATYPE    : YY
#XPERCHAN    : 7.862, 7.881   eV per channel (separate by commas if more than one detector)
#OFFSET      : 18.5, -22.4         eV of first channel  (separate by commas if more than one detector
#SIGNALTYPE  : XRF
#YP_TEMP     : -4.211
#LIVETIME    : 8.83494, 8.83081   seconds (separate by commas if more than one detector)
#REALTIME    : 10, 10.0   seconds (separate by commas if more than one detector)
#SPECTRUM    : start of spectrum data
0, 0
0, 0
0, 0
0, 0
0, 0
0, 0
0, 0
0, 0
0, 0
0, 0
0, 0
0, 0
0, 0
0, 0
0, 0
0, 0
0, 0
0, 0
0, 0
0, 0
0, 0
0, 0
0, 0
0, 0
0, 0
0, 0
0, 0
0, 0
0, 0
0, 0
0, 0
0, 0
1, 1
1, 0
0, 1
0, 2
3, 3
2, 3
2, 4
2, 6
3, 3
4, 2
2, 1
5, 3
2, 2
6, 4
1, 3
6, 4
3, 5
3, 6
5, 5
13, 12
10, 11
20, 15
28, 21
13, 8
11, 12
17, 14
14, 11
13, 19
17, 15
31, 29
35, 33
39, 55
45, 37
40, 38
43, 44
51, 36
60, 43
86, 80
144, 151
245, 259
271, 321
405, 409
452, 463
491, 448
398, 386
320, 268
220, 207
129, 131
85, 77
43, 35
37, 48
31, 35
28, 22
27, 39
44, 33
34, 31
29, 26
27, 22
18, 26
22, 31
42, 31
70, 59
93, 97
135, 156
215, 264
263, 275
319, 305
297, 260
263, 261
177, 177
133, 130
91, 93
68, 63
67, 60
68, 71
83, 84
101, 109
161, 149
188, 203
252, 225
224, 256
191, 229
194, 199
168, 181
123, 124
106, 114
104, 106
81, 76
73, 71
69, 76
50, 50
61, 33
45, 39
25, 28
17, 26
30, 23
17, 25
14, 14
17, 10
8, 12
8, 7
7, 6
5, 10
15, 7
7, 10
10, 20
23, 27
27, 17
27, 22
27, 27
34, 30
23, 21
14, 19
23, 13
14, 15
9, 13
16, 10
29, 25
39, 41
85, 76
127, 129
211, 202
262, 236
357, 353
351, 390
340, 338
360, 352
257, 279
213, 207
120, 141
81, 83
64, 53
38, 37
22, 31
35, 36
44, 37
53, 46
56, 57
83, 64
56, 62
62, 55
50, 36
35, 34
27, 26
17, 27
13, 10
8, 11
5, 7
13, 11
10, 14
12, 12
13, 12
8, 20
15, 23
26, 28
25, 42
42, 49
59, 50
66, 63
50, 60
65, 59
66, 64
42, 53
38, 32
27, 35
19, 30
23, 22
20, 21
9, 19
19, 11
15, 9
20, 14
13, 19
11, 15
16, 15
23, 26
15, 18
15, 15
18, 21
15, 12
18, 17
22, 17
12, 11
14, 10
7, 15
6, 19
10, 7
8, 11
16, 15
7, 14
12, 17
16, 11
11, 15
23, 21
23, 20
26, 24
32, 36
37, 28
34, 33
32, 29
24, 24
24, 25
12, 19
23, 17
12, 18
16, 12
7, 13
6, 11
9, 18
11, 17
23, 18
16, 14
12, 22
16, 24
28, 33
31, 45
39, 46
42, 44
46, 63
44, 37
42, 30
46, 29
30, 31
25, 28
13, 20
19, 17
18, 20
18, 27
32, 39
45, 49
86, 95
124, 160
236, 321
434, 458
579, 716
879, 1014
1129, 1225
1381, 1491
1652, 1711
1679, 1705
1560, 1558
1402, 1412
1100, 1099
857, 805
592, 464
364, 358
215, 175
142, 108
79, 63
33, 37
34, 25
17, 20
17, 17
17, 13
23, 17
16, 15
26, 24
28, 37
28, 32
42, 52
69, 77
74, 108
121, 144
167, 193
213, 207
239, 240
261, 256
239, 257
229, 217
195, 182
169, 136
126, 115
91, 70
55, 45
34, 30
29, 23
14, 14
8, 10
3, 10
11, 12
7, 6
7, 4
16, 10
16, 13
7, 12
14, 12
14, 7
11, 10
13, 7
14, 10
4, 7
6, 11
2, 5
6, 8
9, 8
4, 12
8, 5
4, 4
7, 6
3, 7
7, 10
6, 5
11, 7
10, 10
6, 9
7, 7
5, 11
3, 13
6, 8
7, 6
3, 11
7, 7
8, 8
9, 5
8, 7
7, 7
6, 3
13, 4
2, 2
9, 10
7, 3
5, 5
5, 11
8, 6
7, 7
11, 3
2, 11
7, 7
6, 15
12, 6
11, 13
10, 13
8, 12
8, 14
11, 4
3, 11
13, 9
6, 10
9, 12
8, 6
9, 9
4, 5
5, 4
4, 6
7, 5
2, 4
6, 7
7, 3
4, 5
7, 4
10, 4
6, 1
12, 9
6, 5
3, 8
4, 5
6, 3
2, 2
7, 8
8, 2
5, 7
11, 11
5, 4
2, 5
4, 3
1, 7
8, 2
5, 4
5, 4
3, 5
7, 8
3, 5
5, 4
5, 7
7, 8
4, 6
4, 1
4, 4
3, 3
7, 7
0, 2
1, 5
5, 3
5, 6
3, 1
8, 2
2, 9
4, 4
2, 5
6, 6
6, 5
8, 6
6, 5
6, 2
6, 7
6, 7
6, 4
6, 5
2, 8
1, 4
5, 1
4, 6
2, 1
3, 1
5, 7
3, 3
2, 4
3, 7
1, 3
2, 1
3, 2
2, 3
5, 6
6, 4
4, 4
0, 4
6, 4
3, 1
4, 3
4, 0
3, 4
3, 6
7, 5
3, 2
5, 4
2, 4
1, 5
4, 5
0, 2
2, 2
5, 0
7, 2
2, 6
3, 3
4, 1
5, 4
3, 3
2, 2
3, 5
3, 4
4, 4
2, 6
1, 1
1, 2
3, 0
3, 1
3, 6
1, 1
4, 2
2, 2
9, 1
3, 0
2, 0
2, 2
1, 2
3, 1
1, 3
4, 6
2, 4
2, 4
1, 2
2, 5
3, 2
4, 3
4, 4
6, 0
2, 2
0, 1
2, 5
1, 4
4, 2
4, 4
3, 4
1, 6
2, 4
0, 2
3, 1
3, 1
2, 3
3, 3
2, 5
7, 2
2, 1
0, 1
3, 3
1, 2
0, 3
1, 0
0, 1
0, 4
4, 6
0, 5
2, 4
1, 2
3, 5
2, 4
2, 2
4, 1
5, 1
4, 0
5, 3
2, 1
1, 2
2, 2
2, 1
2, 2
3, 2
6, 3
3, 1
2, 2
3, 3
2, 3
4, 3
0, 0
2, 2
2, 3
2, 3
2, 2
2, 5
1, 4
4, 2
6, 1
3, 0
1, 0
3, 5
3, 2
0, 1
1, 1
2, 3
1, 3
2, 0
1, 2
3, 3
3, 3
1, 1
1, 2
1, 2
3, 1
1, 2
3, 0
0, 1
0, 2
2, 1
4, 1
3, 1
1, 1
2, 2
2, 0
0, 3
0, 1
0, 2
1, 3
2, 1
1, 1
3, 1
1, 0
1, 1
2, 1
0, 1
0, 1
0, 1
1, 0
1, 0
1, 1
2, 2
1, 1
1, 1
3, 0
0, 0
1, 1
0, 2
3, 1
1, 4
1, 2
0, 0
2, 0
0, 0
1, 2
2, 1
1, 0
0, 2
0, 0
1, 3
3, 1
2, 0
0, 1
1, 1
2, 2
1, 1
1, 1
2, 1
0, 1
0, 1
0, 0
0, 0
1, 0
2, 2
1, 2
0, 3
0, 0
1, 0
1, 0
0, 0
0, 0
0, 0
0, 0
0, 0
1, 1
3, 1
0, 0
0, 0
0, 0
0, 0
1, 1
1, 0
0, 2
0, 1
1, 0
1, 2
0, 0
0, 0
0, 0
0, 0
0, 2
0, 2
1, 0
0, 2
0, 1
1, 1
1, 0
2, 0
2, 0
0, 0
1, 3
0, 3
0, 0
2, 1
0, 2
0, 1
1, 0
1, 1
0, 0
0, 0
1, 0
0, 0
1, 1
0, 0
0, 0
2, 0
1, 0
0, 0
0, 0
1, 0
0, 0
1, 0
0, 2
0, 1
1, 0
0, 0
0, 1
0, 1
1, 0
0, 0
0, 0
1, 0
0, 0
1, 0
0, 0
0, 1
0, 0
0, 0
0, 1
0, 1
0, 0
1, 0
0, 0
0, 0
0, 1
0, 0
0, 0
0, 0
0, 2
1, 0
0, 0
0, 0
0, 0
1, 0
0, 0
0, 0
1, 0
2, 0
0, 0
0, 0
1, 0
0, 2
0, 0
0, 0
0, 1
1, 0
0, 1
0, 0
0, 0
0, 0
0, 0
0, 0
0, 1
0, 1
0, 0
0, 0
0, 0
0, 0
1, 1
0, 0
1, 0
0, 0
2, 1
0, 0
0, 1
0, 1
0, 0
0, 0
0, 1
1, 1
1, 0
2, 1
0, 1
0, 0
0, 0
0, 0
0, 0
0, 0
0, 0
0, 0
0, 0
0, 0
0, 0
0, 0
0, 0
0, 1
0, 1
0, 2
1, 0
0, 0
0, 0
0, 0
0, 2
0, 1
0, 0
1, 2
1, 0
0, 0
1, 1
1, 0
0, 0
0, 0
0, 0
0, 0
0, 1
0, 0
0, 0
0, 0
0, 0
0, 0
0, 0
0, 0
0, 0
0, 0
0, 0
0, 0
0, 1
0, 0
0, 0
0, 0
0, 0
0, 0
0, 0
1, 0
0, 0
0, 0
0, 0
0, 0
0, 1
1, 0
0, 1
0, 0
0, 0
0, 0
0, 1
1, 0
0, 0
0, 0
1, 0
0, 0
0, 0
0, 0
0, 0
0, 0
0, 0
0, 0
0, 0
0, 0
0, 0
0, 0
0, 0
0, 0
0, 0
0, 1
0, 0
0, 0
0, 0
0, 0
0, 0
0, 0
0, 0
0, 0
0, 0
1, 0
0, 0
1, 0
0, 0
0, 1
0, 0
0, 0
0, 0
1, 1
0, 0
0, 0
0, 0
0, 0
0, 0
0, 0
0, 0
0, 0
0, 0
0, 0
0, 0
0, 0
0, 0
0, 0
0, 0
0, 0
0, 0
0, 0
0, 0
0, 0
0, 2
0, 0
0, 0
0, 1
0, 0
0, 0
0, 0
0, 0
0, 0
0, 0
0, 0
1, 0
0, 0
0, 0
0, 0
0, 0
0, 0
0, 0
0, 0
0, 0
0, 0
0, 0
0, 0
0, 0
0, 0
1, 0
0, 0
0, 0
0, 0
0, 0
0, 0
0, 0
0, 0
0, 0
0, 0
0, 0
0, 0
0, 0
0, 0
0, 0
0, 0
0, 0
0, 0
0, 0
0, 0
0, 0
0, 0
0, 0
0, 0
0, 0
0, 0
0, 0
0, 0
1, 0
0, 0
0, 0
0, 0
0, 0
0, 0
0, 0
0, 0
0, 0
0, 0
0, 0
1, 0
0, 0
0, 0
0, 0
0, 0
0, 0
0, 0
0, 0
0, 0
0, 0
0, 0
0, 1
0, 0
0, 0
0, 0
0, 0
0, 0
0, 0
0, 0
0, 0
0, 0
0, 0
0, 0
0, 0
0, 0
0, 0
0, 0
0, 0
1, 0
0, 0
0, 0
0, 0
0, 0
0, 0
0, 0
0, 0
0, 0
0, 0
0, 0
0, 0
0, 0
0, 0
0, 0
0, 0
0, 0
0, 1
1, 0
0, 0
0, 0
0, 0
0, 0
0, 0
0, 0
0, 0
0, 0
0, 0
0, 0
0, 0
0, 0
0, 0
0, 0
0, 0
0, 0
0, 0
0, 0
0, 0
0, 0
0, 0
0, 0
0, 0
0, 0
0, 0
0, 0
0, 0
0, 0
0, 1
0, 0
0, 0
0, 0
0, 0
0, 0
0, 0
0, 0
0, 0
0, 0
0, 0
0, 0
0, 0
0, 0
0, 0
0, 0
1, 0
0, 0
0, 0
0, 0
0, 0
0, 0
0, 0
0, 0
0, 0
0, 0
0, 0
0, 0
0, 0
0, 0
0, 0
0, 0
0, 0
0, 0
0, 0
0, 0
0, 0
0, 0
0, 0
0, 0
0, 0
0, 0
0, 0
0, 0
0, 0
0, 0
0, 0
0, 0
0, 0
0, 0
0, 0
0, 0
0, 0
0, 0
0, 0
0, 0
0, 0
0, 0
0, 0
0, 0
0, 0
0, 0
0, 0
0, 0
0, 0
0, 0
0, 0
0, 0
0, 0
0, 0
0, 0
0, 0
0, 0
0, 0
0, 0
0, 0
0, 0
0, 0
0, 0
0, 0
0, 0
0, 0
0, 0
0, 0
0, 0
0, 0
0, 0
0, 0
0, 0
0, 0
0, 0
0, 0
0, 0
0, 0
0, 0
0, 0
0, 0
1, 0
0, 0
0, 0
0, 0
0, 0
0, 0
0, 0
0, 0
0, 0
0, 0
0, 0
0, 0
0, 0
0, 0
0, 0
0, 0
0, 0
0, 0
0, 0
0, 0
0, 0
0, 0
0, 0
0, 0
0, 0
0, 0
0, 0
0, 0
0, 0
0, 0
0, 0
0, 0
0, 0
0, 0
0, 0
0, 0
0, 0
0, 0
0, 0
0, 0
0, 0
0, 0
0, 0
0, 0
0, 0
0, 0
0, 0
0, 0
0, 0
0, 0
0, 0
0, 0
0, 0
0, 0
0, 0
0, 0
0, 0
0, 0
0, 0
0, 0
0, 0
0, 0
0, 0
0, 0
0, 0
0, 0
0, 0
0, 0
0, 0
0, 0
0, 0
0, 0
0, 0
0, 0
0, 0
0, 0
0, 0
0, 0
0, 0
0, 0
0, 0
0, 0
0, 0
0, 0
0, 0
0, 0
0, 0
0, 0
0, 0
0, 0
0, 0
0, 0
0, 0
0, 0
0, 0
0, 0
0, 0
0, 0
0, 0
0, 0
0, 0
0, 0
0, 0
0, 0
0, 0
0, 0
0, 0
0, 0
0, 0
0, 0
0, 0
0, 0
0, 0
0, 0
0, 0
0, 0
0, 0
0, 0
0, 0
0, 0
0, 0
0, 0
0, 0
0, 0
0, 0
0, 0
0, 0
0, 0
0, 0
0, 0
0, 0
0, 0
0, 0
0, 0
0, 0
0, 0
0, 0
0, 0
0, 0
0, 0
0, 0
0, 0
0, 0
0, 0
0, 0
0, 0
0, 0
0, 0
0, 0
0, 0
0, 0
0, 0
0, 0
0, 0
0, 0
0, 0
0, 0
0, 0
0, 0
0, 0
0, 0
0, 0
0, 0
0, 0
0, 0
0, 0
0, 0
0, 0
0, 0
0, 0
0, 0
0, 0
0, 0
0, 0
0, 0
0, 0
0, 0
0, 0
0, 0
0, 0
0, 0
0, 0
0, 0
0, 0
0, 0
0, 0
0, 0
0, 0
0, 0
0, 0
0, 0
0, 0
0, 0
0, 0
0, 0
0, 0
0, 0
0, 0
0, 0
0, 0
0, 0
0, 0
0, 0
0, 0
0, 0
0, 0
0, 0
0, 0
0, 0
0, 0
0, 0
0, 0
0, 0
0, 0
0, 0
0, 0
0, 0
0, 0
0, 0
0, 0
0, 0
0, 0
0, 0
0, 0
0, 0
0, 0
0, 0
0, 0
0, 0
0, 0
0, 0
0, 0
0, 0
0, 0
0, 0
0, 0
0, 0
0, 0
0, 0
0, 0
0, 0
0, 0
0, 0
0, 0
0, 0
0, 0
0, 0
0, 0
0, 0
0, 0
0, 0
0, 0
0, 0
#ENDOFDATA     end of spectrum data