File: host_upload/02-11-2024/rqc/uplink1/ps__0567_0717304816_000rfs_shot_393.msa
#FORMAT      : EMSA/MAS spectral data file
#VERSION     : TC202v2.0 PIXL
#TITLE       : Novarupta (sol567) subset1
#DATE        : 02-11-2024      Date in the format DD-MMM-YYYY, for example 07-JUL-2010
#TIME        :             The time of day at which the spectrum was recorded, in 24-hour format
#OWNER       : PIXL Flight Model       (PIXL will use this to indicate which instrument took the data.)
#NPOINTS     : 4096     Number of data points in the spectrum (This can be zero for configuration only files)
#NCOLUMNS    : 2     Number of data columns in the spectrum (This can be zero for configuration only files)
#XUNITS      : eV
#YUNITS      : COUNTS
#DATATYPE    : YY
#XPERCHAN    : 7.862, 7.881   eV per channel (separate by commas if more than one detector)
#OFFSET      : 18.5, -22.4         eV of first channel  (separate by commas if more than one detector
#SIGNALTYPE  : XRF
#YP_TEMP     : 1.69
#LIVETIME    : 8.81364, 8.80986   seconds (separate by commas if more than one detector)
#REALTIME    : 10, 10.0   seconds (separate by commas if more than one detector)
#SPECTRUM    : start of spectrum data
0, 0
0, 0
0, 0
0, 0
0, 0
0, 0
0, 0
0, 0
0, 0
0, 0
0, 0
0, 0
0, 0
0, 0
0, 0
0, 0
0, 0
0, 0
0, 0
0, 0
0, 0
0, 0
0, 0
0, 0
0, 0
0, 0
0, 0
0, 0
0, 0
0, 0
0, 0
0, 0
0, 0
2, 1
1, 1
1, 3
2, 2
4, 4
4, 6
1, 4
8, 4
3, 2
3, 3
2, 2
4, 1
0, 4
4, 3
6, 3
4, 5
5, 6
5, 3
3, 7
4, 14
6, 11
11, 17
20, 16
9, 10
16, 9
15, 7
8, 17
15, 14
28, 26
47, 41
52, 51
50, 50
51, 42
44, 49
31, 29
45, 35
51, 69
87, 116
202, 221
286, 356
436, 470
516, 513
502, 480
436, 443
330, 343
246, 234
123, 166
87, 103
57, 52
37, 30
24, 34
35, 22
34, 39
47, 38
38, 35
27, 26
21, 10
20, 15
21, 16
27, 30
49, 38
90, 77
131, 137
218, 216
273, 300
313, 314
323, 313
317, 281
205, 229
171, 178
111, 96
73, 70
62, 52
57, 51
62, 71
96, 84
130, 129
140, 202
196, 208
214, 218
209, 226
202, 175
168, 153
135, 137
98, 125
91, 94
73, 66
77, 62
75, 59
57, 67
43, 62
55, 49
31, 43
40, 32
21, 27
25, 14
15, 15
13, 4
9, 7
7, 7
9, 2
5, 12
7, 8
12, 12
10, 17
20, 22
17, 29
33, 22
34, 18
39, 30
19, 32
18, 21
20, 13
3, 11
14, 8
16, 15
20, 21
25, 41
41, 50
87, 102
136, 160
249, 259
311, 321
343, 397
431, 414
372, 394
341, 340
269, 258
168, 204
97, 100
82, 66
32, 40
31, 34
20, 25
31, 29
35, 55
58, 71
52, 68
50, 60
59, 58
57, 54
44, 38
29, 28
25, 21
11, 9
11, 8
10, 12
5, 8
6, 8
7, 10
10, 11
5, 7
12, 16
13, 17
31, 26
30, 33
47, 54
57, 58
73, 75
70, 66
61, 56
42, 53
48, 39
44, 24
36, 26
30, 20
23, 23
9, 22
12, 9
13, 8
8, 10
10, 10
16, 11
15, 15
12, 14
24, 16
15, 31
16, 15
22, 16
18, 22
14, 19
14, 10
4, 9
12, 9
12, 10
20, 8
11, 7
8, 5
21, 9
3, 19
11, 11
14, 14
12, 19
11, 23
22, 25
25, 24
32, 30
41, 36
32, 30
27, 27
28, 26
27, 28
15, 14
18, 15
20, 15
8, 10
6, 13
17, 16
13, 15
14, 12
8, 14
19, 9
28, 13
19, 29
32, 36
34, 44
39, 48
56, 60
57, 38
47, 50
52, 42
43, 38
31, 23
23, 29
32, 22
20, 20
20, 15
26, 19
21, 29
38, 43
78, 88
133, 129
192, 268
350, 488
584, 731
856, 1114
1190, 1357
1432, 1691
1786, 1872
1776, 1975
1741, 1695
1567, 1474
1308, 1127
995, 794
659, 556
384, 303
246, 164
121, 106
76, 51
41, 38
25, 18
20, 21
22, 18
17, 16
12, 16
16, 18
19, 22
18, 24
27, 45
46, 55
68, 65
81, 107
126, 121
159, 182
218, 216
251, 254
272, 264
278, 290
252, 256
247, 205
207, 174
140, 122
99, 86
71, 50
43, 31
18, 15
19, 8
4, 13
18, 10
4, 11
8, 8
7, 10
13, 7
11, 11
8, 10
14, 12
10, 12
5, 10
10, 13
14, 7
9, 10
7, 8
6, 4
11, 6
3, 5
10, 9
4, 6
4, 1
2, 9
4, 6
7, 9
8, 5
7, 5
8, 6
6, 1
5, 8
4, 11
6, 4
7, 9
6, 11
12, 12
9, 11
8, 7
9, 6
10, 8
11, 10
6, 4
8, 8
6, 8
5, 4
7, 5
4, 7
7, 5
7, 7
9, 7
6, 6
6, 3
6, 8
7, 7
7, 12
8, 8
14, 9
7, 16
10, 12
19, 15
13, 13
10, 10
9, 10
6, 9
10, 7
13, 9
4, 8
6, 7
4, 6
1, 2
7, 3
8, 12
10, 5
4, 7
8, 5
7, 7
5, 2
5, 3
4, 6
4, 10
5, 5
0, 1
5, 3
6, 4
5, 4
3, 5
4, 6
12, 5
7, 6
8, 5
7, 5
3, 3
3, 4
8, 1
6, 6
6, 7
9, 4
3, 5
8, 4
6, 5
5, 10
8, 5
4, 6
4, 6
6, 5
3, 4
6, 2
6, 6
2, 3
5, 2
5, 7
4, 2
4, 4
6, 4
4, 2
1, 2
3, 3
5, 8
4, 2
4, 3
2, 5
1, 4
1, 8
4, 8
6, 8
3, 1
9, 5
5, 6
5, 0
3, 4
3, 2
8, 4
6, 2
5, 3
4, 6
3, 4
3, 6
5, 5
3, 3
6, 4
2, 1
4, 3
3, 2
3, 6
4, 2
6, 3
3, 6
1, 4
3, 3
7, 3
3, 1
5, 1
2, 4
3, 2
5, 2
5, 2
8, 4
3, 5
3, 4
5, 1
2, 5
2, 2
0, 3
2, 2
0, 1
4, 4
2, 4
1, 3
4, 2
4, 4
2, 3
0, 2
2, 3
3, 3
3, 3
4, 1
1, 1
2, 4
3, 6
1, 4
1, 1
5, 0
1, 4
2, 4
0, 0
2, 0
5, 0
0, 2
2, 1
5, 4
2, 2
3, 3
1, 0
2, 3
5, 0
4, 1
0, 4
4, 3
4, 5
6, 2
5, 1
6, 2
1, 0
6, 4
2, 3
4, 2
4, 3
2, 3
4, 2
0, 5
1, 1
1, 1
3, 5
3, 0
3, 1
2, 5
1, 3
2, 4
0, 0
0, 1
3, 3
3, 0
5, 1
1, 0
0, 4
2, 3
5, 2
1, 2
4, 3
1, 2
1, 4
2, 5
5, 1
6, 3
2, 3
5, 4
2, 2
3, 5
1, 1
0, 4
0, 3
2, 1
1, 4
3, 1
1, 1
2, 1
3, 1
1, 4
1, 7
1, 2
0, 2
1, 1
2, 2
2, 0
2, 1
0, 3
1, 1
2, 1
3, 2
2, 5
0, 4
3, 1
3, 3
2, 1
2, 2
2, 2
3, 5
1, 1
4, 3
0, 2
0, 1
3, 1
0, 2
1, 3
3, 0
1, 1
1, 0
2, 2
2, 1
4, 1
0, 3
1, 1
3, 1
2, 1
2, 1
2, 1
2, 1
0, 0
0, 3
0, 2
0, 3
1, 2
1, 1
0, 0
1, 2
0, 1
0, 0
2, 0
0, 2
1, 0
3, 1
1, 1
0, 3
0, 1
2, 1
0, 0
0, 1
0, 1
0, 2
0, 1
1, 0
2, 2
1, 0
0, 0
1, 2
2, 1
1, 2
1, 0
0, 4
3, 2
2, 0
1, 1
0, 0
0, 0
2, 0
0, 3
0, 0
1, 0
0, 1
1, 0
1, 1
3, 1
1, 0
1, 0
2, 0
1, 3
1, 0
0, 0
1, 1
1, 1
0, 2
0, 0
1, 0
0, 0
1, 2
0, 0
2, 0
1, 1
1, 1
0, 2
1, 1
0, 0
0, 2
1, 0
0, 0
0, 0
3, 0
1, 0
1, 2
1, 0
0, 0
1, 0
1, 0
1, 1
0, 0
0, 0
0, 1
0, 0
1, 1
0, 0
1, 1
0, 0
0, 0
0, 0
1, 4
0, 1
0, 0
0, 0
0, 2
1, 1
1, 1
1, 2
0, 0
0, 1
0, 1
0, 0
1, 0
0, 2
0, 1
0, 1
0, 0
0, 0
0, 0
1, 1
0, 1
1, 1
0, 2
0, 1
0, 0
0, 0
0, 0
0, 1
0, 1
0, 2
0, 0
0, 0
1, 0
0, 1
0, 1
1, 0
0, 0
0, 0
0, 1
0, 0
0, 0
0, 0
0, 0
2, 0
1, 0
0, 0
0, 0
0, 0
0, 2
0, 0
0, 0
0, 1
0, 0
0, 0
1, 1
0, 0
0, 0
0, 1
0, 0
0, 0
1, 0
0, 1
1, 0
1, 0
1, 0
0, 2
0, 0
0, 0
2, 0
1, 0
0, 0
0, 0
0, 0
0, 0
0, 0
0, 0
0, 0
0, 0
0, 0
0, 0
0, 0
0, 0
1, 1
0, 1
0, 0
0, 0
0, 0
0, 0
1, 2
0, 0
1, 0
0, 0
0, 0
0, 0
2, 0
0, 1
0, 1
1, 0
0, 0
2, 0
1, 0
0, 0
0, 0
0, 1
0, 0
0, 0
0, 0
1, 1
0, 1
0, 0
0, 0
0, 0
0, 0
1, 0
0, 0
1, 0
1, 1
0, 0
0, 1
0, 0
0, 1
0, 1
1, 0
0, 0
0, 0
0, 1
0, 0
1, 0
0, 0
0, 0
0, 0
0, 0
0, 0
0, 1
0, 0
0, 0
0, 0
0, 1
0, 0
0, 0
0, 0
0, 0
0, 0
0, 0
0, 1
0, 0
0, 0
0, 0
1, 0
1, 0
0, 0
0, 0
0, 0
0, 0
0, 1
0, 0
0, 0
1, 0
0, 0
1, 0
0, 0
0, 0
0, 0
0, 0
0, 0
0, 2
0, 0
0, 0
0, 0
2, 0
0, 0
0, 0
0, 0
2, 0
0, 0
0, 0
1, 0
0, 1
0, 0
0, 0
0, 1
0, 0
0, 0
0, 1
0, 0
0, 0
0, 0
1, 0
0, 1
0, 0
0, 0
0, 0
0, 0
0, 0
0, 0
0, 0
0, 0
0, 0
0, 0
0, 0
0, 0
0, 0
0, 0
0, 0
0, 0
0, 0
1, 1
0, 0
1, 0
0, 0
0, 0
0, 0
0, 0
0, 0
0, 0
0, 0
0, 0
0, 0
1, 0
0, 0
0, 0
0, 0
0, 0
0, 0
0, 0
0, 0
0, 0
0, 0
1, 0
0, 0
0, 0
0, 0
0, 0
0, 1
0, 0
0, 0
0, 0
0, 0
0, 0
0, 0
0, 0
0, 0
0, 0
0, 0
0, 0
0, 0
0, 0
0, 0
0, 0
0, 0
0, 0
0, 0
0, 0
0, 0
0, 0
0, 0
0, 0
0, 0
0, 0
0, 0
0, 0
0, 0
0, 0
0, 0
0, 0
0, 0
0, 0
0, 0
0, 0
0, 0
0, 0
0, 0
0, 0
0, 1
0, 0
0, 0
0, 0
0, 0
0, 0
0, 0
0, 0
0, 0
0, 0
0, 0
0, 0
1, 0
0, 0
0, 0
0, 0
0, 0
0, 0
0, 0
0, 0
0, 0
0, 0
0, 0
0, 0
0, 0
0, 0
0, 0
0, 0
0, 0
0, 0
0, 0
0, 0
0, 0
0, 0
0, 0
0, 0
0, 0
0, 0
0, 0
0, 0
0, 0
0, 0
0, 0
0, 0
0, 0
0, 0
0, 0
0, 0
0, 0
0, 0
0, 0
0, 0
0, 0
0, 0
0, 0
0, 0
1, 0
0, 0
0, 0
0, 0
0, 0
0, 0
0, 0
0, 0
0, 0
0, 0
0, 0
0, 0
0, 0
0, 0
0, 0
0, 0
0, 0
0, 0
0, 0
0, 0
0, 0
0, 0
0, 0
0, 0
0, 0
0, 0
0, 0
0, 0
0, 0
0, 0
0, 0
0, 0
0, 0
0, 0
0, 0
0, 0
0, 0
0, 0
0, 0
0, 0
0, 0
0, 0
0, 0
0, 0
0, 0
0, 0
0, 0
0, 0
0, 0
0, 0
0, 0
0, 0
0, 0
0, 0
0, 0
0, 0
0, 0
0, 0
0, 0
0, 0
0, 0
0, 0
0, 0
0, 0
0, 0
0, 0
0, 0
0, 0
0, 0
0, 0
0, 0
0, 0
0, 0
0, 0
0, 0
0, 0
0, 0
0, 0
0, 0
0, 0
0, 0
0, 0
0, 0
0, 0
0, 0
0, 0
0, 0
0, 0
0, 0
0, 0
0, 0
0, 0
0, 0
0, 0
0, 0
0, 0
0, 0
0, 0
0, 0
0, 0
0, 0
0, 0
0, 0
0, 0
0, 0
0, 0
0, 0
0, 0
0, 0
0, 0
0, 0
0, 0
0, 0
0, 0
0, 0
0, 0
0, 0
0, 0
0, 0
0, 0
0, 0
0, 0
0, 0
0, 0
0, 0
0, 0
0, 0
0, 0
0, 0
0, 0
0, 0
0, 0
0, 0
0, 0
0, 0
0, 0
0, 0
0, 0
0, 0
0, 0
0, 0
0, 0
0, 0
0, 0
0, 0
0, 0
0, 0
0, 0
0, 0
0, 0
0, 0
0, 0
0, 0
0, 0
0, 0
0, 0
0, 0
0, 0
0, 0
0, 0
0, 0
0, 0
0, 0
0, 0
0, 0
0, 0
0, 0
0, 0
0, 0
0, 0
0, 0
0, 0
0, 0
0, 0
0, 0
0, 0
0, 0
0, 0
0, 0
0, 0
0, 0
0, 0
0, 0
0, 0
0, 0
0, 0
0, 0
0, 0
0, 0
0, 0
0, 0
0, 0
0, 0
0, 0
0, 0
0, 0
0, 0
0, 0
0, 0
0, 0
0, 0
0, 0
0, 0
0, 0
0, 0
0, 0
0, 0
0, 0
0, 0
0, 0
0, 0
0, 0
0, 0
0, 0
0, 0
0, 0
0, 0
0, 0
0, 0
0, 0
0, 0
0, 0
0, 0
0, 0
0, 0
0, 0
0, 0
0, 0
0, 0
0, 0
0, 0
0, 0
0, 0
0, 0
0, 0
0, 0
0, 0
0, 0
0, 0
0, 0
0, 0
0, 0
0, 0
0, 0
0, 0
0, 0
0, 0
0, 0
0, 0
0, 0
0, 0
0, 0
0, 0
0, 0
0, 0
0, 0
0, 0
0, 0
0, 0
0, 0
0, 0
0, 0
0, 0
0, 0
0, 0
0, 0
0, 0
0, 0
0, 0
0, 0
0, 0
0, 0
0, 0
0, 0
0, 0
0, 0
0, 0
0, 0
0, 0
0, 0
0, 0
0, 0
0, 0
0, 0
0, 0
0, 0
0, 0
0, 0
0, 0
0, 0
0, 0
0, 0
0, 0
0, 0
0, 0
0, 0
0, 0
0, 0
0, 0
0, 0
0, 0
0, 0
0, 0
0, 0
0, 0
0, 0
0, 0
0, 0
0, 0
0, 0
0, 0
0, 0
0, 0
0, 0
0, 0
0, 0
0, 0
0, 0
0, 0
0, 0
0, 0
0, 0
0, 0
0, 0
0, 0
0, 0
0, 0
0, 0
0, 0
0, 0
0, 0
0, 0
0, 0
0, 0
0, 0
0, 0
0, 0
0, 0
0, 0
0, 0
0, 0
0, 0
0, 0
0, 0
0, 0
0, 0
0, 0
0, 0
0, 0
0, 0
0, 0
0, 0
0, 0
0, 0
0, 0
#ENDOFDATA     end of spectrum data