File: host_upload/02-11-2024/rqc/uplink1/ps__0567_0717304816_000rfs_shot_289.msa
#FORMAT      : EMSA/MAS spectral data file
#VERSION     : TC202v2.0 PIXL
#TITLE       : Novarupta (sol567) subset1
#DATE        : 02-11-2024      Date in the format DD-MMM-YYYY, for example 07-JUL-2010
#TIME        :             The time of day at which the spectrum was recorded, in 24-hour format
#OWNER       : PIXL Flight Model       (PIXL will use this to indicate which instrument took the data.)
#NPOINTS     : 4096     Number of data points in the spectrum (This can be zero for configuration only files)
#NCOLUMNS    : 2     Number of data columns in the spectrum (This can be zero for configuration only files)
#XUNITS      : eV
#YUNITS      : COUNTS
#DATATYPE    : YY
#XPERCHAN    : 7.862, 7.881   eV per channel (separate by commas if more than one detector)
#OFFSET      : 18.5, -22.4         eV of first channel  (separate by commas if more than one detector
#SIGNALTYPE  : XRF
#YP_TEMP     : 1.273
#LIVETIME    : 8.82221, 8.8167   seconds (separate by commas if more than one detector)
#REALTIME    : 10, 10.0   seconds (separate by commas if more than one detector)
#SPECTRUM    : start of spectrum data
0, 0
0, 0
0, 0
0, 0
0, 0
0, 0
0, 0
0, 0
0, 0
0, 0
0, 0
0, 0
0, 0
0, 0
0, 0
0, 0
0, 0
0, 0
0, 0
0, 0
0, 0
0, 0
0, 0
0, 0
0, 0
0, 0
0, 0
0, 0
0, 0
0, 0
0, 1
0, 0
0, 1
1, 2
0, 2
2, 3
4, 2
0, 3
2, 4
3, 2
5, 4
1, 2
2, 5
4, 4
3, 4
8, 3
3, 6
2, 3
5, 1
7, 5
7, 7
15, 10
12, 13
8, 17
11, 22
17, 17
16, 8
4, 10
12, 13
17, 17
18, 18
22, 28
46, 36
39, 53
54, 63
55, 42
41, 36
30, 37
33, 31
70, 63
125, 87
200, 204
319, 330
456, 471
510, 508
527, 512
447, 423
344, 313
263, 232
160, 145
80, 92
47, 44
46, 29
30, 32
20, 29
42, 33
38, 47
24, 29
31, 30
31, 25
13, 22
16, 18
28, 20
44, 54
89, 71
137, 149
215, 219
248, 299
320, 313
345, 318
268, 248
208, 211
170, 177
119, 111
83, 66
59, 62
58, 53
65, 71
100, 100
130, 140
208, 219
226, 210
229, 225
253, 238
212, 193
167, 184
145, 128
119, 121
80, 87
81, 82
81, 75
89, 74
66, 60
63, 69
51, 56
43, 35
23, 32
33, 19
19, 16
10, 11
16, 14
14, 7
8, 6
5, 4
5, 6
4, 7
14, 11
11, 23
21, 13
23, 17
22, 28
31, 31
22, 36
29, 28
22, 16
19, 12
14, 13
15, 11
7, 13
19, 10
34, 34
56, 65
91, 107
132, 164
215, 242
319, 331
342, 384
374, 364
375, 401
300, 294
256, 246
189, 148
131, 98
84, 57
60, 36
37, 28
26, 29
35, 36
29, 60
54, 67
60, 59
63, 65
66, 52
43, 54
51, 42
37, 29
24, 17
13, 16
19, 11
13, 4
6, 9
6, 6
13, 16
13, 6
19, 14
14, 8
16, 29
28, 29
36, 45
53, 56
45, 61
65, 48
78, 66
62, 62
50, 60
41, 41
38, 43
32, 24
20, 28
12, 20
18, 19
13, 23
11, 19
20, 13
17, 10
19, 12
14, 10
16, 10
22, 17
22, 32
21, 17
20, 16
19, 15
21, 16
13, 13
10, 12
16, 14
6, 17
13, 9
10, 12
12, 11
12, 9
11, 10
16, 10
6, 13
10, 15
15, 20
26, 22
34, 29
33, 41
38, 33
28, 38
28, 26
27, 24
30, 20
19, 16
16, 15
7, 11
15, 15
9, 17
11, 9
16, 11
10, 13
11, 20
24, 15
24, 25
24, 25
40, 28
38, 45
51, 53
45, 57
52, 56
45, 43
43, 51
45, 34
27, 21
31, 24
17, 20
23, 22
26, 16
19, 28
29, 40
42, 47
55, 86
123, 173
226, 278
387, 452
597, 689
1009, 982
1232, 1364
1496, 1646
1692, 1786
1878, 1909
1806, 1716
1593, 1401
1244, 1188
947, 775
582, 510
405, 322
237, 162
137, 108
53, 52
36, 44
25, 29
17, 26
10, 18
17, 15
20, 22
21, 16
21, 24
26, 16
37, 37
35, 38
59, 68
99, 103
124, 117
176, 215
211, 231
260, 265
274, 271
288, 275
251, 265
240, 220
195, 168
147, 111
106, 76
57, 60
48, 30
34, 22
13, 13
15, 9
5, 12
14, 8
8, 9
9, 11
13, 15
10, 11
7, 10
10, 15
12, 19
14, 13
8, 4
9, 12
8, 7
9, 12
10, 9
8, 7
5, 8
7, 8
6, 8
9, 4
3, 4
3, 6
7, 7
6, 2
6, 11
5, 4
2, 7
4, 4
7, 11
10, 3
3, 7
10, 5
5, 8
10, 4
11, 9
12, 7
6, 6
11, 7
9, 7
8, 7
7, 7
10, 8
13, 7
2, 7
5, 6
6, 6
6, 6
9, 5
4, 5
5, 9
4, 6
9, 7
13, 9
6, 11
11, 6
13, 15
9, 8
11, 8
8, 6
11, 13
10, 9
10, 7
5, 9
6, 3
6, 6
5, 7
4, 3
2, 7
1, 6
5, 7
3, 4
10, 6
10, 6
7, 9
8, 3
5, 6
8, 6
5, 2
7, 4
11, 7
5, 8
1, 3
6, 6
7, 7
8, 5
4, 3
1, 3
3, 8
6, 6
5, 2
2, 4
3, 3
6, 5
2, 5
6, 3
6, 3
3, 7
5, 5
4, 7
4, 4
3, 1
10, 7
6, 6
6, 4
2, 5
8, 5
3, 5
6, 7
9, 6
3, 4
3, 3
5, 6
4, 3
7, 7
3, 8
5, 5
2, 5
6, 7
5, 8
9, 5
2, 7
2, 5
5, 6
4, 6
6, 4
5, 4
6, 4
6, 5
1, 4
7, 1
5, 0
5, 3
1, 4
2, 2
6, 6
4, 4
5, 2
5, 6
6, 5
2, 3
4, 3
6, 5
3, 5
2, 3
3, 6
1, 4
2, 3
0, 4
1, 4
3, 4
5, 2
5, 1
5, 5
2, 5
2, 2
2, 2
6, 2
2, 1
0, 7
2, 8
4, 3
3, 3
5, 6
6, 1
3, 2
1, 1
2, 1
3, 1
2, 2
1, 7
1, 4
2, 5
2, 5
5, 3
5, 4
3, 3
2, 3
3, 2
1, 4
2, 1
3, 3
3, 3
3, 3
3, 1
0, 3
5, 3
1, 5
2, 2
1, 3
3, 3
2, 3
5, 0
3, 1
2, 4
2, 3
3, 3
5, 3
2, 3
5, 0
1, 3
3, 3
5, 0
1, 1
3, 1
0, 2
4, 1
2, 3
1, 0
2, 3
2, 2
2, 4
2, 1
1, 1
5, 0
3, 3
1, 2
0, 5
1, 2
2, 2
3, 1
0, 2
1, 1
1, 1
2, 5
2, 2
1, 2
1, 2
5, 4
1, 3
4, 7
4, 0
1, 1
3, 3
0, 0
4, 4
2, 1
1, 2
2, 4
7, 5
2, 3
4, 2
1, 1
2, 1
2, 2
3, 4
1, 0
1, 4
2, 0
0, 0
3, 1
1, 2
2, 1
3, 2
2, 3
4, 1
3, 3
3, 1
2, 2
3, 0
2, 1
2, 0
1, 1
1, 2
1, 0
1, 2
1, 1
1, 2
2, 1
0, 1
0, 1
0, 1
1, 2
0, 0
0, 0
2, 0
0, 0
2, 0
3, 0
2, 1
2, 0
0, 1
0, 1
0, 2
3, 1
0, 1
1, 1
0, 0
1, 2
1, 1
2, 0
1, 3
1, 0
2, 3
2, 3
2, 0
1, 1
0, 2
4, 2
0, 1
0, 1
1, 1
1, 3
0, 1
2, 1
1, 1
2, 2
0, 0
1, 1
1, 0
1, 0
2, 0
3, 1
0, 1
0, 1
0, 2
1, 1
0, 1
0, 2
1, 1
2, 2
0, 2
1, 1
0, 1
1, 1
1, 1
0, 0
2, 0
0, 1
0, 2
0, 1
0, 2
0, 0
3, 1
1, 1
0, 1
0, 0
0, 0
1, 0
0, 1
1, 0
0, 1
1, 1
0, 1
0, 0
0, 0
1, 1
1, 0
2, 0
0, 1
2, 1
0, 0
0, 2
0, 1
1, 0
0, 0
1, 1
1, 1
1, 0
3, 0
2, 0
0, 1
1, 1
0, 1
1, 0
2, 0
0, 0
0, 0
0, 0
0, 0
0, 0
1, 0
1, 0
0, 0
0, 1
0, 1
1, 0
0, 0
0, 0
0, 1
2, 0
0, 0
1, 1
1, 1
1, 1
0, 2
0, 0
0, 0
1, 0
0, 0
0, 1
1, 0
1, 0
0, 1
0, 0
0, 2
0, 0
0, 3
1, 0
1, 0
0, 0
0, 0
0, 0
0, 0
0, 1
1, 1
0, 1
2, 0
1, 0
1, 0
0, 1
0, 1
0, 0
0, 0
0, 0
0, 1
1, 0
0, 1
0, 0
0, 0
0, 0
0, 0
0, 0
0, 0
0, 0
0, 0
0, 0
0, 0
1, 0
1, 0
2, 0
0, 0
1, 0
0, 0
2, 1
0, 0
1, 0
1, 0
0, 0
0, 0
0, 0
0, 0
0, 0
0, 0
0, 1
0, 0
0, 0
1, 0
0, 0
1, 0
0, 0
0, 0
0, 0
1, 0
0, 0
0, 0
0, 0
1, 1
2, 0
0, 0
0, 0
0, 0
1, 0
2, 0
0, 0
0, 0
0, 0
0, 2
0, 0
1, 0
0, 0
0, 0
0, 0
0, 0
0, 0
1, 0
2, 0
0, 1
0, 0
0, 0
1, 0
0, 0
0, 0
2, 1
1, 0
0, 3
0, 0
0, 0
0, 0
0, 0
1, 0
0, 0
0, 0
0, 0
0, 0
0, 0
0, 0
0, 0
0, 0
0, 0
0, 0
0, 0
0, 0
0, 0
2, 0
1, 0
0, 0
0, 0
1, 0
1, 0
0, 0
1, 0
0, 0
0, 0
1, 0
0, 0
0, 1
0, 0
0, 0
0, 0
0, 0
0, 0
0, 0
1, 0
0, 0
0, 0
0, 0
0, 0
0, 0
0, 0
0, 0
0, 0
0, 0
0, 1
0, 0
0, 0
0, 0
1, 0
0, 0
0, 0
0, 0
0, 0
0, 0
0, 0
0, 0
0, 0
0, 0
0, 0
0, 0
1, 1
0, 0
0, 0
0, 0
0, 0
1, 0
0, 0
0, 0
0, 0
0, 0
0, 0
0, 0
0, 0
0, 0
0, 0
0, 0
0, 0
0, 0
0, 0
0, 1
1, 1
0, 0
0, 0
0, 0
0, 0
0, 0
0, 0
0, 0
0, 0
0, 0
0, 1
0, 0
0, 0
0, 0
0, 0
0, 0
0, 0
1, 0
0, 0
0, 0
0, 0
0, 0
0, 0
0, 0
0, 0
0, 0
0, 0
0, 0
0, 1
1, 0
0, 0
0, 0
0, 0
0, 0
0, 0
0, 0
0, 0
1, 0
0, 0
0, 0
0, 0
0, 0
0, 0
0, 0
0, 0
0, 1
0, 0
0, 0
0, 1
0, 0
0, 0
0, 0
0, 0
0, 0
0, 0
0, 0
0, 0
0, 0
0, 0
0, 1
0, 0
0, 0
0, 0
0, 0
0, 0
0, 0
0, 0
0, 0
0, 0
0, 0
0, 0
0, 0
0, 0
0, 0
0, 0
0, 0
0, 0
0, 0
0, 0
0, 0
1, 0
1, 0
0, 0
0, 0
0, 0
1, 0
0, 0
0, 0
0, 0
1, 0
0, 0
0, 0
0, 0
0, 0
0, 0
0, 0
0, 0
0, 0
0, 0
0, 0
0, 0
0, 0
0, 0
0, 0
0, 0
0, 0
0, 0
0, 0
0, 0
0, 0
0, 0
0, 0
0, 0
0, 0
0, 0
0, 0
0, 0
0, 0
0, 0
0, 0
0, 0
0, 0
0, 0
0, 0
0, 0
0, 0
0, 0
0, 0
0, 0
0, 0
0, 0
0, 0
0, 1
0, 0
0, 0
0, 0
0, 0
0, 0
0, 0
0, 0
0, 0
0, 0
0, 0
0, 0
0, 0
0, 0
0, 0
0, 0
0, 0
0, 0
0, 0
0, 0
0, 0
0, 0
0, 0
0, 0
0, 0
0, 0
0, 0
0, 0
0, 0
0, 0
0, 0
0, 0
0, 0
0, 0
0, 0
0, 0
0, 0
0, 0
0, 0
0, 0
0, 0
0, 0
0, 0
0, 0
0, 0
0, 0
0, 0
0, 0
0, 0
0, 0
0, 0
0, 0
0, 0
0, 0
0, 0
0, 0
0, 0
0, 0
0, 0
0, 0
0, 0
0, 0
0, 0
0, 0
0, 0
0, 0
0, 0
0, 0
0, 0
0, 0
0, 0
0, 0
0, 0
0, 0
0, 0
0, 0
0, 0
0, 0
0, 0
0, 0
0, 0
0, 0
0, 0
0, 0
0, 0
0, 0
0, 0
0, 0
0, 0
0, 0
0, 0
0, 0
0, 0
0, 0
0, 0
0, 0
0, 0
0, 0
0, 0
0, 0
0, 0
0, 0
0, 0
0, 0
0, 0
0, 0
0, 0
0, 0
0, 0
0, 0
0, 0
0, 0
0, 0
0, 0
0, 0
0, 0
0, 0
0, 0
0, 0
0, 0
0, 0
0, 0
0, 0
0, 0
0, 0
0, 0
0, 0
0, 0
0, 0
0, 0
1, 0
0, 0
0, 0
0, 0
0, 0
0, 0
0, 0
0, 0
0, 0
0, 0
0, 0
0, 0
0, 0
0, 0
0, 0
0, 0
0, 0
0, 0
0, 0
0, 0
0, 0
0, 0
0, 0
0, 0
0, 0
0, 0
0, 0
0, 0
0, 0
0, 0
0, 0
0, 0
0, 0
0, 0
0, 0
0, 0
0, 0
0, 0
0, 0
0, 0
0, 0
0, 0
0, 0
0, 0
0, 0
0, 0
0, 0
0, 0
0, 0
0, 0
0, 0
0, 0
0, 0
0, 0
0, 0
0, 0
0, 0
0, 0
0, 0
0, 0
0, 0
0, 0
0, 0
0, 0
0, 0
0, 0
0, 0
0, 0
0, 0
0, 0
0, 0
0, 0
0, 0
0, 0
0, 0
0, 0
0, 0
0, 0
0, 0
0, 0
0, 0
0, 0
0, 0
0, 0
0, 0
0, 0
0, 0
0, 0
0, 0
0, 0
0, 0
0, 0
0, 0
0, 0
0, 0
0, 0
0, 0
0, 0
0, 0
0, 0
0, 0
0, 0
0, 0
0, 0
0, 0
0, 0
0, 0
0, 0
0, 0
0, 0
0, 0
0, 0
0, 0
0, 0
0, 0
0, 0
0, 0
0, 0
0, 0
0, 0
0, 0
0, 0
0, 0
0, 0
0, 0
0, 0
0, 0
0, 0
0, 0
0, 0
0, 0
0, 0
0, 0
0, 0
0, 0
0, 0
0, 0
0, 0
0, 0
0, 0
0, 0
0, 0
0, 0
0, 0
0, 0
0, 0
0, 0
0, 0
0, 0
0, 0
0, 0
0, 0
0, 0
0, 0
0, 0
0, 0
0, 0
0, 0
0, 0
0, 0
0, 0
0, 0
0, 0
0, 0
0, 0
0, 0
0, 0
0, 0
0, 0
0, 0
0, 0
0, 0
0, 0
0, 0
0, 0
0, 0
0, 0
0, 0
0, 0
0, 0
0, 0
0, 0
0, 0
0, 0
0, 0
0, 0
0, 0
0, 0
0, 0
0, 0
0, 0
0, 0
0, 0
0, 0
0, 0
0, 0
0, 0
0, 0
0, 0
0, 0
0, 0
0, 0
0, 0
0, 0
0, 0
0, 0
0, 0
0, 0
0, 0
0, 0
0, 0
0, 0
0, 0
0, 0
0, 0
0, 0
0, 0
0, 0
0, 0
0, 0
0, 0
0, 0
0, 0
0, 0
0, 0
#ENDOFDATA     end of spectrum data