File: host_upload/02-11-2024/rqc/uplink1/ps__0567_0717304816_000rfs_shot_336.msa
#FORMAT      : EMSA/MAS spectral data file
#VERSION     : TC202v2.0 PIXL
#TITLE       : Novarupta (sol567) subset1
#DATE        : 02-11-2024      Date in the format DD-MMM-YYYY, for example 07-JUL-2010
#TIME        :             The time of day at which the spectrum was recorded, in 24-hour format
#OWNER       : PIXL Flight Model       (PIXL will use this to indicate which instrument took the data.)
#NPOINTS     : 4096     Number of data points in the spectrum (This can be zero for configuration only files)
#NCOLUMNS    : 2     Number of data columns in the spectrum (This can be zero for configuration only files)
#XUNITS      : eV
#YUNITS      : COUNTS
#DATATYPE    : YY
#XPERCHAN    : 7.862, 7.881   eV per channel (separate by commas if more than one detector)
#OFFSET      : 18.5, -22.4         eV of first channel  (separate by commas if more than one detector
#SIGNALTYPE  : XRF
#YP_TEMP     : 1.369
#LIVETIME    : 8.84783, 8.82289   seconds (separate by commas if more than one detector)
#REALTIME    : 10, 10.0   seconds (separate by commas if more than one detector)
#SPECTRUM    : start of spectrum data
0, 0
0, 0
0, 0
0, 0
0, 0
0, 0
0, 0
0, 0
0, 0
0, 0
0, 0
0, 0
0, 0
0, 0
0, 0
0, 0
0, 0
0, 0
0, 0
0, 0
0, 0
0, 0
0, 0
0, 0
0, 0
0, 0
0, 0
0, 0
0, 1
1, 0
0, 0
0, 0
0, 1
0, 0
1, 0
1, 1
1, 1
2, 6
5, 0
2, 8
3, 4
4, 4
1, 6
3, 3
2, 3
3, 3
0, 2
2, 4
4, 5
4, 4
5, 6
8, 9
11, 11
17, 16
15, 12
12, 27
15, 12
13, 18
11, 9
6, 13
17, 24
23, 18
38, 38
47, 50
46, 54
35, 51
32, 30
28, 33
34, 36
47, 62
101, 129
174, 213
255, 315
357, 424
457, 558
471, 483
396, 420
291, 373
219, 213
123, 140
60, 74
52, 43
35, 29
28, 33
26, 33
24, 31
23, 32
24, 35
23, 27
21, 13
17, 14
22, 21
16, 24
46, 61
60, 70
99, 128
169, 209
226, 253
267, 337
274, 318
249, 286
199, 212
139, 146
100, 100
70, 60
58, 40
44, 54
65, 75
64, 108
129, 149
150, 177
188, 223
223, 230
220, 262
165, 192
162, 169
105, 122
93, 108
80, 86
70, 80
70, 75
63, 73
59, 77
54, 57
39, 53
35, 42
36, 27
21, 32
19, 17
9, 16
15, 8
15, 6
5, 10
8, 4
5, 10
5, 10
8, 10
8, 17
12, 18
17, 18
24, 26
26, 31
32, 22
15, 24
28, 20
13, 16
12, 9
10, 13
10, 16
14, 11
24, 21
44, 43
66, 85
90, 157
181, 225
238, 272
270, 361
324, 365
310, 387
267, 304
233, 208
137, 175
101, 89
45, 43
35, 35
34, 24
37, 29
32, 36
35, 39
37, 49
44, 78
40, 71
43, 49
52, 51
33, 39
28, 25
21, 19
16, 12
8, 12
10, 8
5, 8
6, 7
7, 8
13, 5
9, 10
13, 14
15, 21
26, 31
30, 29
43, 38
35, 45
53, 73
43, 84
48, 66
48, 53
38, 36
34, 41
24, 22
23, 20
16, 22
13, 17
16, 14
8, 19
16, 13
15, 16
15, 20
11, 12
14, 14
16, 22
18, 12
17, 21
18, 19
13, 18
13, 15
10, 16
13, 8
9, 17
11, 21
12, 11
9, 6
5, 12
8, 11
14, 7
7, 22
8, 14
13, 16
22, 19
24, 28
31, 37
30, 27
30, 31
37, 27
25, 25
22, 27
29, 22
11, 14
16, 14
6, 19
6, 15
11, 16
11, 12
13, 15
11, 11
9, 14
17, 18
21, 26
31, 21
23, 34
40, 49
35, 44
44, 50
46, 34
62, 39
35, 52
47, 42
42, 33
34, 24
16, 13
17, 14
10, 18
13, 13
32, 36
30, 44
46, 82
93, 151
196, 289
321, 472
516, 754
782, 992
1108, 1421
1322, 1607
1539, 1935
1676, 1864
1463, 1635
1410, 1519
1103, 1107
813, 818
545, 525
378, 304
223, 202
135, 79
67, 51
46, 28
20, 23
15, 20
16, 18
11, 14
14, 13
16, 22
20, 18
18, 22
17, 40
33, 38
48, 57
77, 99
125, 135
161, 174
200, 229
219, 275
249, 258
263, 272
245, 276
194, 239
205, 171
118, 109
77, 66
56, 41
29, 28
22, 20
15, 12
17, 6
7, 10
8, 6
6, 10
3, 14
9, 14
8, 15
9, 15
11, 15
16, 13
13, 11
16, 3
4, 8
9, 5
6, 6
2, 6
4, 7
3, 8
3, 4
6, 7
4, 11
8, 4
2, 9
9, 9
5, 6
4, 6
8, 8
8, 2
9, 6
6, 13
3, 4
3, 7
8, 7
8, 7
12, 5
6, 6
14, 7
5, 5
12, 8
8, 8
6, 8
7, 0
11, 13
5, 6
4, 7
3, 6
4, 8
3, 8
5, 7
7, 10
7, 9
7, 5
8, 7
7, 12
5, 10
14, 13
9, 13
10, 11
12, 17
14, 12
8, 6
8, 3
6, 9
7, 11
4, 8
4, 6
2, 6
7, 5
6, 10
7, 2
4, 6
8, 3
5, 6
4, 7
3, 6
2, 4
4, 6
7, 3
5, 6
4, 6
7, 4
5, 7
6, 3
4, 4
4, 4
2, 3
4, 4
4, 4
7, 5
5, 6
4, 1
9, 4
2, 1
1, 14
3, 5
3, 7
2, 8
5, 4
6, 5
2, 5
5, 6
2, 3
4, 4
4, 4
5, 6
3, 5
4, 5
3, 2
1, 4
3, 1
8, 3
6, 6
4, 5
3, 4
3, 5
3, 1
3, 3
2, 5
5, 4
7, 12
2, 5
1, 3
3, 6
3, 7
1, 6
5, 6
1, 2
1, 2
4, 0
3, 3
3, 0
4, 5
2, 3
5, 4
3, 6
2, 5
5, 10
2, 8
4, 3
3, 3
4, 2
6, 2
1, 4
1, 4
4, 1
3, 2
1, 3
4, 5
4, 2
2, 3
4, 3
6, 3
3, 4
5, 3
2, 3
3, 2
2, 2
1, 3
2, 5
4, 5
4, 3
1, 4
3, 0
5, 3
1, 2
1, 1
3, 5
3, 4
4, 1
2, 3
3, 6
2, 4
4, 2
6, 3
3, 9
3, 4
3, 3
0, 1
1, 0
3, 1
1, 3
2, 0
1, 2
3, 4
2, 5
0, 2
1, 5
2, 7
2, 2
2, 4
1, 5
2, 1
2, 4
2, 1
1, 2
3, 2
3, 4
0, 3
2, 3
3, 3
2, 4
1, 1
0, 3
4, 2
1, 1
0, 0
1, 2
3, 2
4, 0
2, 2
1, 1
4, 1
1, 2
3, 1
1, 5
2, 3
0, 3
2, 3
1, 3
2, 1
0, 1
4, 4
1, 3
0, 3
1, 1
2, 0
3, 3
4, 2
1, 2
3, 2
3, 5
3, 2
1, 1
2, 2
3, 1
4, 2
1, 1
0, 0
2, 0
3, 1
1, 4
2, 1
1, 1
2, 0
1, 3
4, 1
1, 0
0, 5
1, 1
1, 2
1, 0
0, 2
3, 3
1, 1
0, 2
1, 2
1, 0
0, 2
3, 3
0, 1
0, 3
2, 2
0, 0
2, 0
3, 0
2, 2
2, 0
0, 0
0, 2
1, 1
2, 3
1, 0
1, 1
3, 1
2, 3
0, 0
0, 2
0, 1
2, 0
1, 2
1, 1
2, 3
2, 0
0, 0
1, 1
2, 1
2, 0
1, 2
2, 2
1, 1
3, 3
1, 1
0, 1
0, 0
0, 0
0, 1
1, 0
2, 0
2, 0
0, 0
0, 1
1, 3
1, 1
0, 1
1, 1
0, 0
1, 1
0, 1
1, 3
1, 1
0, 1
0, 2
0, 1
0, 0
0, 0
0, 0
1, 0
0, 0
0, 1
0, 0
1, 1
0, 0
0, 1
0, 2
0, 0
1, 1
1, 1
1, 0
2, 0
1, 0
0, 0
1, 0
1, 0
0, 0
0, 1
0, 0
0, 0
1, 0
1, 0
1, 1
0, 1
1, 2
2, 0
2, 0
1, 0
0, 0
0, 0
1, 0
0, 2
0, 0
0, 0
1, 0
0, 1
2, 1
0, 2
2, 0
2, 0
1, 0
0, 0
0, 0
0, 1
0, 1
0, 0
1, 1
1, 0
0, 1
0, 0
0, 0
0, 0
0, 0
0, 0
0, 0
0, 2
0, 1
0, 1
0, 0
0, 0
0, 0
1, 2
0, 0
0, 0
0, 2
0, 0
0, 0
0, 0
0, 0
0, 0
0, 0
0, 1
1, 0
0, 1
0, 0
0, 1
0, 0
1, 0
0, 0
0, 0
0, 0
1, 1
0, 0
0, 1
0, 0
1, 0
0, 1
2, 0
0, 0
1, 0
0, 0
0, 0
0, 0
0, 0
0, 0
0, 0
0, 0
0, 1
0, 0
0, 0
0, 0
0, 0
0, 1
1, 0
0, 0
0, 0
0, 1
0, 1
0, 0
0, 0
0, 1
0, 0
0, 1
0, 0
0, 0
0, 1
0, 1
0, 0
0, 0
0, 0
0, 0
0, 1
1, 1
0, 0
0, 0
0, 1
0, 0
1, 0
0, 0
0, 0
0, 2
1, 0
0, 1
0, 1
0, 1
0, 0
0, 1
1, 0
0, 0
0, 0
0, 0
0, 1
0, 1
0, 0
1, 0
0, 0
0, 2
0, 2
0, 0
0, 1
1, 0
0, 0
0, 1
0, 0
1, 0
0, 0
0, 0
0, 0
0, 0
0, 0
0, 0
0, 0
0, 0
0, 0
1, 0
0, 1
0, 0
0, 4
0, 0
1, 0
0, 0
0, 0
0, 1
0, 0
0, 1
0, 1
0, 0
0, 0
1, 1
0, 0
0, 0
0, 0
0, 0
1, 0
0, 0
0, 2
1, 0
0, 0
0, 0
0, 0
2, 0
0, 0
0, 0
1, 0
0, 0
0, 0
0, 0
0, 0
0, 0
0, 0
1, 0
0, 0
0, 1
0, 0
0, 0
1, 0
0, 0
0, 0
0, 0
1, 0
0, 0
0, 0
0, 0
0, 0
0, 0
0, 0
0, 0
0, 2
0, 1
0, 0
0, 1
0, 1
0, 0
0, 0
0, 0
0, 0
0, 0
0, 0
0, 0
0, 0
0, 0
0, 0
0, 0
0, 0
0, 0
0, 0
0, 0
0, 0
0, 0
0, 0
0, 0
1, 0
0, 0
0, 1
0, 1
0, 0
0, 0
0, 0
0, 0
0, 0
1, 0
0, 0
0, 0
1, 1
0, 0
0, 1
0, 0
0, 0
0, 0
0, 0
0, 0
1, 0
0, 0
0, 0
0, 0
0, 0
0, 0
0, 0
0, 0
0, 0
0, 0
1, 0
0, 0
0, 0
0, 0
0, 0
0, 1
0, 0
0, 1
0, 0
0, 0
1, 1
0, 0
0, 1
0, 0
0, 0
0, 0
0, 0
0, 0
0, 0
0, 0
0, 0
0, 0
0, 0
1, 0
0, 1
0, 0
0, 0
0, 0
0, 0
0, 0
0, 0
0, 0
0, 0
0, 0
0, 0
0, 0
0, 0
1, 0
0, 0
0, 0
0, 0
0, 0
1, 0
0, 0
0, 0
0, 0
1, 0
0, 0
0, 0
0, 0
0, 0
0, 0
0, 0
0, 0
0, 0
0, 0
0, 0
0, 0
0, 0
0, 0
0, 0
1, 0
0, 0
0, 0
0, 1
0, 0
0, 0
0, 0
0, 0
0, 0
0, 0
0, 0
0, 0
0, 0
0, 0
0, 0
0, 0
0, 0
0, 0
0, 0
0, 0
0, 0
0, 0
0, 0
0, 0
0, 0
0, 0
0, 0
0, 0
0, 0
0, 0
1, 0
0, 0
0, 0
0, 0
0, 0
0, 0
0, 0
0, 0
0, 0
0, 0
0, 0
0, 0
0, 0
0, 0
0, 0
0, 0
0, 0
0, 0
0, 0
0, 0
0, 0
0, 0
0, 0
0, 0
0, 0
0, 0
0, 0
0, 0
0, 0
0, 0
0, 0
0, 0
0, 0
0, 0
0, 0
0, 0
0, 0
0, 0
0, 0
0, 0
0, 0
0, 0
0, 0
0, 0
0, 0
0, 0
0, 0
0, 0
0, 0
0, 0
0, 0
0, 0
0, 0
0, 0
0, 0
0, 0
0, 0
0, 0
0, 0
0, 0
0, 0
0, 0
0, 0
0, 0
0, 0
0, 0
0, 0
0, 0
0, 0
0, 0
0, 0
0, 0
0, 0
0, 0
0, 0
0, 0
0, 0
0, 0
0, 0
0, 0
0, 0
0, 0
0, 0
0, 0
0, 0
0, 0
0, 0
0, 0
0, 0
0, 0
0, 0
0, 0
0, 0
0, 0
0, 0
0, 0
0, 0
0, 0
0, 0
0, 0
0, 0
0, 0
0, 0
0, 0
0, 0
0, 0
0, 0
0, 0
0, 0
0, 0
0, 0
0, 0
0, 0
0, 0
0, 0
0, 0
0, 0
1, 0
0, 0
0, 0
0, 0
0, 0
0, 0
0, 0
0, 0
0, 0
0, 0
0, 0
0, 0
0, 0
0, 0
0, 0
0, 0
0, 0
0, 0
0, 0
0, 0
0, 0
0, 0
0, 0
0, 0
0, 0
0, 0
0, 0
0, 0
0, 0
0, 0
0, 0
0, 0
0, 0
0, 0
0, 0
0, 0
0, 0
0, 0
0, 0
0, 0
0, 0
0, 0
0, 0
0, 0
0, 0
0, 0
0, 0
0, 0
0, 0
0, 0
0, 0
0, 0
0, 0
0, 0
0, 0
0, 0
0, 0
0, 0
0, 0
0, 0
0, 0
0, 0
0, 0
0, 0
0, 0
0, 0
0, 0
0, 0
0, 0
0, 0
0, 0
0, 0
0, 0
0, 0
0, 0
0, 0
0, 0
0, 0
0, 0
0, 0
0, 0
0, 0
0, 0
0, 0
0, 0
0, 0
0, 0
0, 0
0, 0
0, 0
0, 0
0, 0
0, 0
0, 0
0, 0
0, 0
0, 0
0, 0
0, 0
0, 0
0, 0
0, 0
0, 0
0, 0
0, 0
0, 0
0, 0
0, 0
0, 0
0, 0
0, 0
0, 0
0, 0
0, 0
0, 0
0, 0
0, 0
0, 0
0, 0
0, 0
0, 0
0, 0
0, 0
0, 0
0, 0
0, 0
0, 0
0, 0
0, 0
0, 0
0, 0
0, 0
0, 0
0, 0
0, 0
0, 0
0, 0
0, 0
0, 0
0, 0
0, 0
0, 0
0, 0
0, 0
0, 0
0, 0
0, 0
0, 0
0, 0
0, 0
0, 0
0, 0
0, 0
0, 0
0, 0
0, 0
0, 0
0, 0
0, 0
0, 0
0, 0
0, 0
0, 0
0, 0
0, 0
0, 0
0, 0
0, 0
0, 0
0, 0
0, 0
0, 0
0, 0
0, 0
0, 0
0, 0
0, 0
0, 0
0, 0
0, 0
0, 0
0, 0
0, 0
0, 0
0, 0
0, 0
0, 0
0, 0
0, 0
0, 0
0, 0
0, 0
0, 0
0, 0
0, 0
0, 0
0, 0
0, 0
0, 0
0, 0
0, 0
0, 0
0, 0
0, 0
0, 0
0, 0
0, 0
0, 0
0, 0
0, 0
0, 0
0, 0
0, 0
0, 0
0, 0
0, 0
0, 0
0, 0
0, 0
0, 0
0, 0
0, 0
0, 0
0, 0
0, 0
0, 0
0, 0
0, 0
0, 0
0, 0
0, 0
0, 0
0, 0
0, 0
0, 0
0, 0
0, 0
0, 0
0, 0
0, 0
0, 0
0, 0
0, 0
0, 0
0, 0
0, 0
0, 0
0, 0
0, 0
0, 0
0, 0
0, 0
0, 0
0, 0
0, 0
0, 0
0, 0
0, 0
0, 0
0, 0
#ENDOFDATA     end of spectrum data