File: host_upload/02-11-2024/rqc/uplink1/ps__0567_0717304816_000rfs_shot_438.msa
#FORMAT      : EMSA/MAS spectral data file
#VERSION     : TC202v2.0 PIXL
#TITLE       : Novarupta (sol567) subset1
#DATE        : 02-11-2024      Date in the format DD-MMM-YYYY, for example 07-JUL-2010
#TIME        :             The time of day at which the spectrum was recorded, in 24-hour format
#OWNER       : PIXL Flight Model       (PIXL will use this to indicate which instrument took the data.)
#NPOINTS     : 4096     Number of data points in the spectrum (This can be zero for configuration only files)
#NCOLUMNS    : 2     Number of data columns in the spectrum (This can be zero for configuration only files)
#XUNITS      : eV
#YUNITS      : COUNTS
#DATATYPE    : YY
#XPERCHAN    : 7.862, 7.881   eV per channel (separate by commas if more than one detector)
#OFFSET      : 18.5, -22.4         eV of first channel  (separate by commas if more than one detector
#SIGNALTYPE  : XRF
#YP_TEMP     : 1.915
#LIVETIME    : 8.83813, 8.82491   seconds (separate by commas if more than one detector)
#REALTIME    : 10, 10.0   seconds (separate by commas if more than one detector)
#SPECTRUM    : start of spectrum data
0, 0
0, 0
0, 0
0, 0
0, 0
0, 0
0, 0
0, 0
0, 0
0, 0
0, 0
0, 0
0, 0
0, 0
0, 0
0, 0
0, 0
0, 0
0, 0
0, 0
0, 0
0, 0
0, 0
0, 0
0, 0
0, 0
0, 0
0, 0
0, 0
0, 0
0, 0
1, 0
1, 0
0, 3
2, 0
0, 5
3, 1
3, 6
4, 7
4, 4
4, 5
3, 2
3, 2
2, 4
3, 0
2, 3
3, 8
6, 3
3, 5
4, 4
4, 7
13, 11
6, 11
10, 19
13, 23
14, 15
11, 10
12, 9
9, 9
10, 11
23, 15
31, 42
40, 42
57, 71
47, 48
48, 53
40, 37
36, 33
35, 31
58, 64
96, 140
162, 186
261, 324
414, 460
470, 497
482, 491
437, 457
315, 353
212, 245
147, 127
60, 85
54, 67
39, 35
21, 32
33, 30
39, 47
29, 28
32, 31
19, 22
22, 20
15, 22
16, 19
28, 23
47, 42
61, 66
125, 124
182, 208
235, 254
257, 290
308, 315
244, 234
195, 182
159, 152
94, 84
69, 52
42, 54
46, 47
63, 62
97, 80
132, 153
168, 175
205, 227
211, 224
226, 215
176, 182
151, 169
137, 132
113, 84
81, 92
87, 81
83, 70
76, 73
62, 69
56, 52
54, 40
40, 32
41, 29
19, 29
18, 13
11, 11
9, 11
6, 1
7, 4
9, 8
11, 5
7, 7
11, 18
11, 16
23, 24
28, 24
22, 18
35, 20
28, 30
26, 28
20, 28
12, 13
16, 16
9, 12
11, 13
14, 10
23, 30
38, 50
91, 92
142, 148
193, 211
250, 298
315, 376
337, 353
351, 357
265, 314
190, 212
154, 126
97, 110
57, 51
30, 37
24, 24
22, 30
24, 32
32, 40
41, 48
52, 63
48, 57
48, 57
47, 38
37, 51
31, 26
12, 21
11, 11
6, 9
7, 8
4, 8
9, 13
7, 10
10, 8
11, 10
9, 14
9, 22
22, 19
33, 38
37, 44
42, 55
45, 58
68, 61
64, 50
48, 37
38, 39
38, 38
24, 33
14, 29
13, 24
12, 15
8, 10
7, 11
14, 21
9, 16
14, 14
13, 9
24, 14
16, 20
16, 19
19, 18
21, 22
16, 21
14, 22
10, 18
20, 19
13, 7
12, 8
11, 6
9, 8
10, 6
7, 12
11, 18
3, 8
11, 21
18, 18
18, 17
22, 30
28, 23
31, 31
24, 27
28, 21
24, 32
17, 20
20, 21
21, 13
11, 20
8, 15
9, 6
14, 9
12, 14
9, 9
13, 12
16, 9
15, 15
19, 19
21, 31
27, 30
37, 44
36, 39
31, 49
52, 52
47, 60
43, 44
37, 39
25, 27
28, 23
24, 18
10, 19
15, 18
31, 13
26, 22
34, 55
55, 80
107, 154
226, 214
342, 439
586, 702
805, 998
1107, 1302
1358, 1643
1589, 1749
1679, 1863
1609, 1714
1489, 1461
1139, 1120
844, 784
572, 506
363, 316
227, 189
116, 110
71, 51
32, 33
22, 15
22, 15
12, 13
17, 21
23, 17
12, 12
24, 20
19, 33
34, 33
34, 45
58, 74
94, 88
103, 122
153, 195
187, 179
241, 238
224, 264
240, 289
229, 261
180, 191
160, 157
129, 121
96, 76
68, 52
39, 33
20, 27
18, 20
9, 8
10, 7
13, 7
8, 12
6, 3
7, 15
14, 10
14, 12
13, 11
13, 5
15, 9
6, 6
10, 8
9, 12
6, 7
4, 4
6, 4
5, 7
7, 9
6, 6
13, 5
13, 7
5, 6
9, 9
9, 10
3, 2
4, 5
8, 5
6, 7
6, 5
7, 6
7, 5
8, 7
7, 12
7, 11
2, 4
6, 6
8, 6
5, 8
5, 6
3, 5
6, 6
4, 9
11, 6
11, 15
2, 9
5, 8
5, 11
7, 5
9, 5
7, 8
8, 9
7, 11
9, 10
11, 9
9, 7
8, 14
12, 9
11, 9
5, 10
13, 7
5, 12
8, 4
5, 7
7, 11
8, 5
7, 11
3, 6
7, 6
6, 8
6, 5
7, 5
6, 3
5, 5
2, 2
3, 6
6, 3
9, 4
6, 2
4, 8
2, 3
2, 6
6, 5
7, 2
4, 5
4, 7
2, 4
2, 2
4, 6
8, 4
5, 3
4, 5
6, 3
5, 7
9, 3
6, 5
9, 9
5, 2
4, 6
13, 5
5, 3
3, 8
6, 7
7, 4
6, 3
3, 5
3, 6
4, 9
5, 4
7, 6
1, 2
5, 6
7, 3
3, 2
3, 1
1, 2
7, 6
2, 7
3, 3
3, 4
2, 4
3, 5
3, 3
3, 5
3, 2
4, 2
2, 6
2, 4
3, 6
5, 2
5, 6
5, 4
3, 7
4, 4
2, 4
5, 3
5, 3
3, 5
3, 1
2, 5
5, 3
5, 3
3, 7
3, 2
7, 2
1, 2
3, 3
2, 5
5, 1
3, 6
4, 5
4, 1
4, 2
1, 6
3, 2
2, 1
5, 4
3, 3
4, 4
1, 6
0, 4
0, 0
0, 1
1, 3
4, 8
3, 3
3, 2
2, 1
5, 2
2, 0
4, 4
7, 1
7, 0
2, 2
2, 2
5, 6
4, 2
6, 1
6, 4
4, 3
1, 2
1, 5
2, 3
1, 2
3, 4
0, 2
2, 3
1, 2
4, 0
1, 3
3, 2
3, 5
3, 6
3, 1
1, 5
0, 2
2, 3
2, 2
1, 2
1, 4
4, 0
0, 10
1, 3
1, 3
4, 4
2, 3
3, 1
3, 1
2, 2
4, 2
2, 3
2, 3
1, 1
2, 4
3, 1
3, 1
4, 3
2, 1
3, 1
1, 0
5, 3
1, 1
0, 3
0, 2
0, 2
2, 4
1, 2
2, 1
2, 3
7, 5
2, 3
3, 3
2, 3
3, 2
2, 4
1, 5
2, 1
0, 4
4, 2
2, 2
2, 2
2, 2
2, 0
1, 0
1, 0
2, 3
1, 4
0, 0
1, 0
2, 0
1, 3
3, 1
2, 3
0, 4
2, 1
1, 2
0, 0
0, 1
2, 4
0, 2
3, 1
2, 0
0, 2
1, 2
6, 2
1, 0
0, 0
0, 0
0, 2
2, 1
0, 0
2, 3
0, 0
1, 0
1, 1
1, 2
0, 1
0, 2
1, 3
1, 0
0, 1
2, 2
2, 2
0, 0
1, 2
1, 1
2, 1
1, 2
2, 3
1, 3
1, 3
0, 0
1, 0
0, 3
2, 0
0, 0
1, 0
1, 1
1, 0
1, 2
3, 1
1, 2
0, 0
4, 1
3, 0
1, 0
0, 1
0, 0
1, 2
1, 1
0, 0
0, 3
1, 1
0, 0
1, 2
2, 3
1, 2
1, 0
3, 0
1, 2
2, 0
0, 0
1, 1
1, 2
0, 2
0, 0
2, 2
2, 1
0, 0
0, 2
0, 0
1, 2
0, 0
0, 0
0, 1
0, 0
0, 1
0, 1
0, 2
0, 0
1, 1
1, 0
0, 0
2, 2
1, 0
0, 0
1, 1
0, 0
1, 0
0, 2
0, 1
0, 0
1, 0
1, 0
1, 2
0, 0
0, 3
1, 3
2, 1
1, 0
0, 0
1, 0
0, 0
0, 0
0, 1
1, 0
0, 1
2, 1
0, 0
0, 1
0, 2
1, 0
1, 1
1, 0
0, 0
0, 0
0, 0
1, 0
1, 0
0, 1
0, 1
0, 1
1, 0
0, 0
0, 1
0, 0
1, 0
0, 0
0, 2
0, 0
0, 0
0, 0
0, 0
2, 0
0, 1
1, 0
0, 0
2, 0
1, 0
0, 1
1, 0
1, 2
0, 1
2, 0
1, 1
0, 1
0, 1
0, 1
0, 0
0, 0
0, 0
0, 0
1, 0
0, 2
0, 0
1, 1
0, 1
0, 1
0, 0
0, 0
0, 1
0, 2
0, 0
0, 0
0, 1
0, 0
0, 0
0, 1
0, 0
0, 3
0, 1
0, 0
0, 0
0, 0
0, 0
0, 0
0, 0
0, 1
0, 0
0, 0
1, 0
0, 0
0, 0
0, 0
0, 0
0, 1
0, 0
1, 1
0, 0
1, 0
0, 0
0, 0
1, 0
0, 0
1, 0
0, 0
0, 0
0, 0
0, 1
0, 2
0, 0
0, 0
0, 0
1, 1
0, 1
0, 0
1, 0
1, 0
0, 0
0, 0
1, 0
0, 0
0, 0
1, 1
0, 0
0, 0
0, 0
0, 0
0, 1
0, 0
0, 0
0, 0
0, 2
0, 1
0, 1
0, 0
1, 0
0, 0
0, 0
0, 0
0, 0
0, 1
0, 0
0, 1
0, 0
0, 0
0, 0
0, 1
0, 0
0, 0
0, 0
0, 0
1, 1
0, 0
0, 0
0, 0
0, 0
0, 0
0, 0
0, 0
0, 0
0, 0
1, 1
0, 0
1, 0
0, 0
0, 0
0, 0
0, 1
0, 0
0, 1
0, 0
1, 0
0, 0
0, 1
0, 1
0, 0
0, 0
0, 0
0, 0
0, 0
1, 0
0, 0
1, 1
1, 0
0, 0
0, 0
0, 0
1, 1
0, 0
0, 1
0, 0
0, 0
0, 0
1, 0
0, 0
1, 0
0, 0
0, 0
1, 1
0, 0
0, 0
0, 0
0, 0
0, 0
0, 0
0, 1
0, 0
0, 0
0, 0
2, 1
0, 0
0, 0
0, 0
0, 0
0, 0
0, 0
0, 0
0, 0
0, 1
0, 0
0, 0
0, 0
0, 1
0, 0
0, 0
0, 0
0, 0
0, 0
0, 0
0, 0
0, 0
0, 0
0, 0
0, 0
0, 0
0, 0
0, 0
0, 0
0, 0
0, 0
0, 0
0, 0
0, 0
0, 0
0, 0
0, 0
0, 0
0, 0
0, 0
0, 0
0, 0
0, 0
0, 0
0, 0
0, 0
0, 0
0, 0
0, 0
0, 0
0, 0
0, 0
0, 0
0, 0
0, 0
0, 0
0, 0
0, 0
0, 0
0, 0
0, 0
0, 0
0, 0
0, 0
0, 0
0, 0
0, 0
0, 0
0, 0
0, 0
0, 0
0, 0
0, 1
0, 0
0, 0
0, 0
0, 0
0, 0
0, 0
0, 0
0, 0
0, 0
0, 0
0, 0
0, 0
0, 0
0, 0
0, 0
0, 0
0, 0
0, 0
0, 1
0, 0
0, 0
0, 0
0, 0
0, 0
0, 0
0, 0
0, 0
0, 0
0, 0
0, 0
0, 0
0, 0
0, 0
0, 0
0, 0
0, 0
0, 0
0, 0
0, 0
0, 0
0, 0
0, 0
0, 0
0, 0
0, 0
0, 0
0, 0
0, 0
0, 0
0, 0
0, 0
0, 0
0, 0
0, 0
0, 0
0, 0
0, 0
0, 0
0, 0
0, 0
0, 0
0, 0
0, 0
0, 0
0, 0
0, 0
0, 0
0, 0
0, 0
0, 0
0, 0
0, 0
0, 0
0, 0
0, 0
0, 0
0, 0
0, 0
0, 0
0, 0
0, 0
0, 0
0, 0
0, 0
0, 0
0, 0
0, 0
0, 0
0, 0
0, 0
0, 0
0, 0
0, 0
0, 0
0, 1
0, 0
0, 0
0, 0
0, 0
1, 0
0, 0
0, 0
0, 0
0, 0
0, 0
0, 0
0, 0
0, 0
0, 0
0, 0
0, 0
0, 0
0, 0
0, 0
0, 0
0, 0
0, 0
0, 0
0, 0
0, 0
0, 0
0, 0
0, 0
0, 0
0, 0
0, 0
0, 0
0, 0
0, 0
0, 0
0, 0
0, 0
0, 0
0, 0
0, 0
0, 0
0, 0
0, 0
0, 0
0, 0
0, 0
0, 0
0, 0
0, 0
0, 0
0, 0
0, 0
0, 0
0, 0
0, 0
0, 0
0, 0
0, 0
0, 0
0, 0
0, 0
0, 0
0, 0
0, 0
0, 0
0, 0
0, 0
0, 0
0, 0
0, 0
0, 0
0, 0
0, 0
0, 0
0, 0
0, 0
0, 0
0, 0
0, 0
0, 0
0, 0
0, 0
0, 0
0, 0
0, 0
0, 0
0, 0
0, 0
0, 0
0, 0
0, 0
0, 0
0, 0
0, 0
0, 0
0, 0
0, 0
0, 0
0, 0
0, 0
0, 0
0, 0
0, 0
0, 0
0, 0
0, 0
0, 0
0, 0
0, 0
0, 0
0, 0
0, 0
0, 0
0, 0
0, 0
0, 0
0, 0
0, 0
0, 0
0, 0
0, 0
0, 0
0, 0
0, 0
0, 0
0, 0
0, 0
0, 0
0, 0
0, 0
0, 0
0, 0
0, 0
0, 0
0, 0
0, 0
0, 0
0, 0
0, 0
0, 0
0, 0
0, 0
0, 0
0, 0
0, 0
0, 0
0, 0
0, 0
0, 0
0, 0
0, 0
0, 0
0, 0
0, 0
0, 0
0, 0
0, 0
0, 0
0, 0
0, 0
0, 0
0, 0
0, 0
0, 0
0, 0
0, 0
0, 0
0, 0
0, 0
0, 0
0, 0
0, 0
0, 0
0, 0
0, 0
0, 0
0, 0
0, 0
0, 0
0, 0
0, 0
0, 0
0, 0
0, 0
0, 0
0, 0
0, 0
0, 0
0, 0
0, 0
0, 0
0, 0
0, 0
0, 0
0, 0
0, 0
0, 0
0, 0
0, 0
0, 0
0, 0
0, 0
0, 0
0, 0
0, 0
0, 0
0, 0
0, 0
0, 0
0, 0
0, 0
0, 0
0, 0
0, 0
0, 0
0, 0
0, 0
0, 0
0, 0
0, 0
0, 0
0, 0
0, 0
0, 0
0, 0
0, 0
0, 0
0, 0
0, 0
0, 0
0, 0
0, 0
0, 0
0, 0
0, 0
0, 0
0, 0
0, 0
0, 0
0, 0
0, 0
0, 0
0, 0
0, 0
0, 0
0, 0
0, 0
0, 0
0, 0
0, 0
0, 0
0, 0
0, 0
0, 0
0, 0
0, 0
0, 0
0, 0
0, 0
0, 0
0, 0
0, 0
0, 0
0, 0
0, 0
0, 0
0, 0
0, 0
0, 0
0, 0
0, 0
0, 0
0, 0
0, 0
0, 0
0, 0
0, 0
0, 0
0, 0
0, 0
0, 0
0, 0
0, 0
0, 0
0, 0
0, 0
0, 0
0, 0
0, 0
0, 0
0, 0
0, 0
0, 0
0, 0
0, 0
0, 0
0, 0
0, 0
0, 0
0, 0
0, 0
0, 0
0, 0
0, 0
0, 0
0, 0
0, 0
0, 0
0, 0
0, 0
0, 0
0, 0
0, 0
0, 0
0, 0
0, 0
0, 0
0, 0
0, 0
0, 0
0, 0
0, 0
0, 0
0, 0
0, 0
0, 0
0, 0
0, 0
#ENDOFDATA     end of spectrum data