File: host_upload/02-11-2024/rqc/uplink1/ps__0567_0717304816_000rfs_shot_25.msa
#FORMAT      : EMSA/MAS spectral data file
#VERSION     : TC202v2.0 PIXL
#TITLE       : Novarupta (sol567) subset1
#DATE        : 02-11-2024      Date in the format DD-MMM-YYYY, for example 07-JUL-2010
#TIME        :             The time of day at which the spectrum was recorded, in 24-hour format
#OWNER       : PIXL Flight Model       (PIXL will use this to indicate which instrument took the data.)
#NPOINTS     : 4096     Number of data points in the spectrum (This can be zero for configuration only files)
#NCOLUMNS    : 2     Number of data columns in the spectrum (This can be zero for configuration only files)
#XUNITS      : eV
#YUNITS      : COUNTS
#DATATYPE    : YY
#XPERCHAN    : 7.862, 7.881   eV per channel (separate by commas if more than one detector)
#OFFSET      : 18.5, -22.4         eV of first channel  (separate by commas if more than one detector
#SIGNALTYPE  : XRF
#YP_TEMP     : -4.275
#LIVETIME    : 8.83708, 8.82704   seconds (separate by commas if more than one detector)
#REALTIME    : 10, 10.0   seconds (separate by commas if more than one detector)
#SPECTRUM    : start of spectrum data
0, 0
0, 0
0, 0
0, 0
0, 0
0, 0
0, 0
0, 0
0, 0
0, 0
0, 0
0, 0
0, 0
0, 0
0, 0
0, 0
0, 0
0, 0
0, 0
0, 0
0, 0
0, 0
0, 0
0, 0
0, 0
0, 0
0, 0
0, 0
0, 0
0, 0
0, 0
0, 0
0, 1
1, 0
1, 1
1, 2
3, 2
2, 1
2, 7
2, 4
5, 6
4, 4
1, 2
1, 5
2, 0
6, 2
1, 4
7, 2
1, 2
3, 3
10, 5
13, 9
8, 17
11, 14
17, 17
14, 16
6, 22
9, 16
9, 12
12, 15
16, 22
33, 29
36, 28
46, 52
53, 50
32, 51
31, 30
39, 37
52, 56
75, 88
144, 148
218, 243
310, 369
382, 464
439, 511
456, 492
365, 431
309, 310
237, 254
126, 122
75, 69
46, 52
41, 48
30, 38
38, 35
37, 40
27, 39
26, 25
21, 21
15, 24
26, 25
27, 15
30, 50
72, 61
110, 102
135, 190
210, 241
243, 306
280, 285
296, 292
283, 239
186, 202
142, 160
93, 97
64, 80
50, 60
60, 62
74, 71
108, 119
138, 158
196, 199
216, 244
210, 221
243, 252
184, 202
156, 180
134, 137
105, 108
89, 93
78, 92
77, 88
65, 69
62, 54
52, 50
40, 47
35, 30
25, 27
21, 25
17, 22
16, 11
9, 12
9, 6
10, 10
10, 7
7, 4
14, 13
9, 12
17, 14
18, 20
25, 23
25, 30
22, 26
19, 27
17, 32
25, 13
14, 16
9, 16
10, 6
8, 16
23, 28
42, 42
74, 80
119, 147
178, 193
270, 284
278, 381
331, 390
380, 338
304, 326
270, 287
180, 199
123, 129
81, 77
47, 53
40, 32
34, 27
32, 36
34, 47
42, 58
59, 61
61, 64
58, 48
37, 66
48, 48
30, 41
21, 16
15, 11
14, 5
11, 13
8, 10
10, 9
8, 14
8, 9
8, 11
16, 16
16, 11
19, 22
31, 38
41, 56
48, 45
46, 69
68, 78
73, 65
52, 65
34, 57
42, 35
26, 31
27, 24
18, 20
20, 11
16, 18
14, 18
15, 12
12, 17
14, 18
11, 17
15, 19
15, 23
24, 20
11, 22
23, 17
15, 19
15, 18
13, 18
11, 22
13, 14
6, 15
13, 11
13, 9
7, 9
8, 12
12, 12
16, 8
13, 17
16, 21
22, 19
21, 27
30, 24
28, 27
37, 32
25, 37
35, 33
23, 25
19, 19
28, 19
14, 17
10, 22
13, 11
11, 3
17, 17
8, 12
14, 15
11, 13
24, 18
12, 26
25, 16
39, 29
25, 38
37, 45
45, 54
50, 59
53, 41
47, 37
37, 33
37, 38
35, 17
25, 24
19, 28
19, 18
22, 23
30, 31
48, 54
61, 80
123, 170
223, 290
373, 468
567, 703
890, 1025
1144, 1400
1368, 1645
1582, 1844
1668, 1715
1588, 1752
1400, 1439
1126, 1144
891, 883
625, 575
374, 331
249, 209
149, 121
70, 54
49, 28
32, 30
18, 19
14, 15
11, 17
18, 15
20, 18
16, 24
20, 28
32, 28
50, 44
71, 91
99, 105
140, 136
174, 197
217, 236
217, 241
274, 285
242, 282
225, 258
215, 224
200, 144
125, 136
93, 74
64, 49
47, 40
31, 20
22, 17
15, 13
6, 10
6, 8
12, 9
9, 12
12, 13
9, 17
16, 17
17, 9
8, 11
10, 20
6, 15
7, 8
8, 6
5, 5
5, 7
6, 6
6, 9
2, 6
5, 5
10, 4
7, 4
5, 5
4, 6
3, 2
12, 10
9, 6
5, 4
4, 7
6, 8
8, 9
5, 10
7, 7
3, 12
11, 8
6, 4
5, 7
9, 8
7, 9
5, 3
6, 14
5, 8
4, 9
9, 8
6, 12
3, 8
5, 4
3, 6
3, 11
6, 7
13, 2
11, 4
7, 10
9, 13
5, 19
11, 10
9, 16
9, 16
6, 17
15, 11
9, 16
10, 3
8, 6
7, 10
14, 5
3, 9
7, 10
4, 4
10, 4
7, 6
6, 5
8, 3
6, 7
5, 11
6, 3
10, 5
2, 8
4, 4
6, 5
2, 3
5, 5
7, 9
2, 2
1, 11
4, 9
3, 8
5, 4
1, 6
6, 5
7, 1
9, 4
4, 6
3, 3
6, 4
7, 9
7, 6
6, 5
4, 0
9, 4
5, 3
3, 6
4, 7
5, 6
3, 6
4, 4
3, 7
1, 7
5, 6
3, 7
3, 9
3, 2
4, 5
6, 3
5, 8
6, 3
1, 4
7, 5
7, 5
4, 5
9, 5
4, 9
6, 3
4, 3
4, 6
3, 8
8, 3
3, 4
3, 4
4, 5
4, 2
7, 3
4, 4
3, 1
7, 3
6, 0
1, 2
4, 4
4, 4
5, 4
4, 5
4, 7
3, 1
4, 10
6, 1
7, 2
2, 2
3, 3
3, 2
2, 3
0, 6
3, 4
6, 6
2, 2
4, 0
5, 5
2, 1
7, 2
5, 0
2, 0
1, 3
1, 1
4, 4
3, 6
2, 0
2, 3
1, 4
4, 3
3, 8
3, 0
3, 2
2, 5
2, 3
5, 0
3, 2
2, 1
1, 4
4, 2
4, 3
3, 4
4, 2
2, 3
0, 3
3, 4
4, 2
1, 3
2, 3
3, 3
4, 2
0, 3
5, 1
2, 3
3, 4
3, 1
2, 4
0, 2
3, 1
2, 1
2, 1
0, 0
3, 1
1, 2
2, 0
4, 1
2, 4
4, 2
3, 5
1, 4
3, 1
0, 0
2, 2
1, 3
1, 2
1, 3
3, 4
3, 4
2, 2
2, 3
4, 2
2, 2
6, 3
1, 1
0, 3
4, 0
1, 1
0, 4
4, 3
2, 2
3, 1
1, 0
4, 5
6, 2
6, 5
2, 3
1, 2
2, 2
4, 4
6, 2
2, 3
1, 0
0, 2
1, 1
0, 1
1, 1
0, 0
0, 1
1, 2
0, 0
1, 2
2, 2
1, 3
5, 1
3, 1
1, 1
0, 1
2, 1
2, 1
1, 2
1, 1
3, 2
1, 1
3, 6
2, 0
0, 1
3, 0
2, 0
2, 2
2, 0
0, 0
3, 3
1, 2
1, 0
0, 0
1, 2
2, 1
1, 2
1, 1
3, 2
1, 0
5, 1
0, 3
1, 1
0, 0
2, 0
1, 0
0, 1
2, 0
4, 1
1, 2
0, 2
2, 1
1, 1
3, 2
1, 1
1, 0
1, 1
2, 0
1, 0
0, 3
1, 0
2, 1
2, 0
1, 1
1, 0
0, 2
0, 0
1, 0
1, 1
2, 0
1, 1
0, 0
0, 0
1, 1
0, 1
0, 0
1, 1
0, 2
0, 1
0, 0
0, 1
1, 1
2, 0
1, 0
0, 0
1, 1
0, 0
0, 0
1, 0
2, 0
1, 0
2, 1
1, 3
0, 1
1, 2
1, 2
0, 1
1, 1
0, 0
0, 0
0, 0
0, 1
1, 1
1, 0
2, 2
1, 0
0, 0
0, 2
0, 0
1, 0
1, 0
0, 0
1, 0
2, 2
0, 0
1, 0
0, 0
0, 0
0, 1
0, 1
1, 0
1, 1
0, 0
2, 1
1, 0
0, 0
0, 0
1, 0
3, 0
0, 0
1, 0
0, 0
0, 1
0, 0
1, 0
2, 1
0, 0
1, 1
2, 0
0, 1
0, 0
0, 0
0, 1
1, 1
0, 0
1, 0
0, 0
0, 0
0, 1
1, 0
0, 2
0, 1
0, 0
0, 0
1, 2
0, 1
0, 0
0, 0
0, 2
0, 0
0, 1
0, 0
2, 4
0, 0
0, 0
0, 0
1, 1
0, 0
0, 0
0, 0
0, 2
0, 0
2, 2
0, 0
0, 0
1, 0
0, 0
0, 1
0, 0
1, 0
0, 0
1, 0
0, 0
0, 1
0, 0
0, 0
1, 0
0, 0
0, 0
0, 0
1, 0
0, 0
1, 0
0, 0
0, 0
0, 0
0, 0
0, 0
0, 1
0, 1
0, 0
0, 1
0, 0
0, 1
0, 0
0, 0
0, 0
0, 0
0, 0
0, 1
0, 0
0, 0
0, 0
0, 0
0, 0
0, 0
1, 0
0, 0
0, 0
0, 0
0, 0
0, 0
0, 0
1, 0
0, 0
0, 1
0, 0
0, 0
1, 0
0, 0
1, 1
0, 0
1, 0
0, 1
0, 0
0, 1
0, 1
0, 1
0, 0
0, 0
0, 0
0, 0
0, 0
1, 0
0, 0
0, 0
1, 0
0, 0
0, 1
0, 1
0, 0
1, 0
0, 0
0, 0
1, 0
0, 0
0, 0
0, 1
0, 0
0, 0
0, 0
0, 0
0, 0
0, 1
0, 0
0, 0
0, 0
0, 0
0, 0
0, 0
0, 0
0, 0
0, 0
0, 0
0, 0
0, 1
0, 0
0, 0
0, 0
0, 0
0, 0
0, 0
0, 0
1, 0
0, 0
0, 0
0, 0
0, 0
0, 0
0, 0
0, 1
0, 0
0, 0
0, 0
0, 1
0, 0
0, 0
1, 0
0, 0
0, 0
0, 0
0, 0
0, 0
0, 0
0, 0
0, 0
0, 0
0, 0
0, 0
1, 0
0, 0
0, 0
0, 0
0, 1
0, 0
1, 0
0, 0
0, 0
0, 0
0, 0
0, 0
0, 0
0, 0
0, 0
0, 0
0, 0
0, 0
0, 0
0, 0
0, 0
0, 0
0, 0
0, 0
0, 0
1, 0
0, 0
0, 0
0, 0
0, 0
0, 0
0, 0
0, 0
0, 0
0, 0
0, 0
0, 0
0, 0
0, 1
0, 0
0, 1
0, 0
0, 0
0, 0
0, 0
0, 0
0, 0
0, 0
0, 0
0, 0
0, 0
0, 0
0, 0
0, 1
0, 0
0, 0
0, 0
0, 0
0, 0
0, 0
0, 0
1, 0
0, 0
0, 0
0, 0
0, 0
0, 0
0, 0
1, 0
0, 0
0, 0
0, 0
0, 0
0, 0
1, 0
0, 0
0, 0
0, 0
0, 0
0, 0
0, 0
0, 0
0, 0
0, 0
0, 0
0, 0
0, 0
0, 0
0, 1
0, 0
0, 0
0, 0
0, 0
0, 0
0, 0
0, 0
0, 0
0, 0
0, 0
0, 1
0, 0
0, 0
0, 0
0, 0
0, 0
0, 0
0, 0
0, 0
0, 0
0, 0
0, 0
0, 1
0, 0
0, 0
0, 0
0, 0
0, 1
0, 0
0, 0
0, 0
0, 0
0, 0
0, 0
0, 0
0, 0
0, 0
0, 0
0, 0
0, 0
0, 0
0, 0
0, 0
0, 0
0, 0
0, 0
0, 0
0, 0
0, 0
0, 0
0, 0
0, 0
0, 0
0, 0
0, 0
0, 0
0, 0
0, 0
0, 0
0, 0
0, 0
0, 0
0, 0
0, 0
0, 0
0, 0
0, 0
0, 0
0, 0
0, 0
0, 0
0, 0
0, 0
0, 0
0, 0
0, 0
0, 0
0, 0
0, 0
0, 0
0, 0
0, 0
0, 0
0, 0
0, 0
0, 0
0, 0
0, 0
0, 0
0, 0
0, 0
0, 0
0, 0
0, 0
0, 0
0, 0
0, 0
0, 0
0, 0
0, 0
0, 0
0, 0
0, 0
0, 0
0, 0
0, 0
0, 0
0, 0
0, 0
0, 0
0, 0
0, 0
0, 0
0, 0
0, 0
0, 0
0, 0
0, 0
0, 0
0, 0
0, 0
0, 0
0, 0
0, 0
0, 0
0, 0
0, 0
0, 0
0, 0
0, 0
0, 0
0, 0
0, 0
0, 0
0, 0
0, 0
0, 0
0, 0
0, 0
0, 0
0, 0
0, 0
0, 0
0, 0
0, 0
0, 0
0, 0
0, 0
1, 0
0, 0
0, 0
0, 0
0, 0
0, 0
0, 0
0, 0
0, 0
0, 0
0, 0
0, 0
0, 0
0, 0
0, 0
0, 0
0, 0
0, 0
0, 0
0, 0
0, 0
0, 0
0, 0
0, 0
0, 0
0, 0
0, 0
0, 0
0, 0
0, 0
0, 0
0, 0
0, 0
0, 0
0, 0
0, 0
0, 0
0, 0
0, 0
0, 0
0, 0
0, 0
0, 0
0, 0
0, 0
0, 0
0, 0
0, 0
0, 0
0, 0
0, 0
0, 0
0, 0
0, 0
0, 0
0, 0
0, 0
0, 0
0, 0
0, 0
0, 0
0, 0
0, 0
0, 0
0, 0
0, 0
0, 0
0, 0
0, 0
0, 0
0, 0
0, 0
0, 0
0, 0
0, 0
0, 0
0, 0
0, 0
0, 0
0, 0
0, 0
0, 0
0, 0
0, 0
0, 0
0, 0
0, 0
0, 0
0, 0
0, 0
0, 0
0, 0
0, 0
0, 0
0, 0
0, 0
0, 0
0, 0
0, 0
0, 0
0, 0
0, 0
0, 0
0, 0
0, 0
0, 0
0, 0
0, 0
0, 0
0, 0
0, 0
0, 0
0, 0
0, 0
0, 0
0, 0
0, 0
0, 0
0, 0
0, 0
0, 0
0, 0
0, 0
0, 0
0, 0
0, 0
0, 0
0, 0
0, 0
0, 0
0, 0
0, 0
0, 0
0, 0
0, 0
0, 0
0, 0
0, 0
0, 0
0, 0
0, 0
0, 0
0, 0
0, 0
0, 0
0, 0
0, 0
0, 0
0, 0
0, 0
0, 0
0, 0
0, 0
0, 0
0, 0
0, 0
0, 0
0, 0
0, 0
0, 0
0, 0
0, 0
0, 0
0, 0
0, 0
0, 0
0, 0
0, 0
0, 0
0, 0
0, 0
0, 0
0, 0
0, 0
0, 0
0, 0
0, 0
0, 0
0, 0
0, 0
0, 0
0, 0
0, 0
0, 0
0, 0
0, 0
0, 0
0, 0
0, 0
0, 0
0, 0
0, 0
0, 0
0, 0
0, 0
0, 0
0, 0
0, 0
0, 0
0, 0
0, 0
0, 0
0, 0
0, 0
0, 0
0, 0
0, 0
0, 0
0, 0
0, 0
0, 0
0, 0
0, 0
0, 0
0, 0
0, 0
0, 0
0, 0
0, 0
0, 0
0, 0
0, 0
0, 0
0, 0
0, 0
0, 0
0, 0
0, 0
0, 0
0, 0
0, 0
0, 0
0, 0
0, 0
0, 0
0, 0
0, 0
0, 0
0, 0
0, 0
0, 0
0, 0
0, 0
0, 0
0, 0
0, 0
0, 0
0, 0
0, 0
0, 0
0, 0
0, 0
0, 0
0, 0
0, 0
0, 0
0, 0
0, 0
0, 0
0, 0
0, 0
0, 0
0, 0
0, 0
0, 0
0, 0
0, 0
0, 0
0, 0
0, 0
0, 0
0, 0
0, 0
#ENDOFDATA     end of spectrum data