File: host_upload/02-11-2024/rqc/uplink1/ps__0567_0717304816_000rfs_shot_312.msa
#FORMAT      : EMSA/MAS spectral data file
#VERSION     : TC202v2.0 PIXL
#TITLE       : Novarupta (sol567) subset1
#DATE        : 02-11-2024      Date in the format DD-MMM-YYYY, for example 07-JUL-2010
#TIME        :             The time of day at which the spectrum was recorded, in 24-hour format
#OWNER       : PIXL Flight Model       (PIXL will use this to indicate which instrument took the data.)
#NPOINTS     : 4096     Number of data points in the spectrum (This can be zero for configuration only files)
#NCOLUMNS    : 2     Number of data columns in the spectrum (This can be zero for configuration only files)
#XUNITS      : eV
#YUNITS      : COUNTS
#DATATYPE    : YY
#XPERCHAN    : 7.862, 7.881   eV per channel (separate by commas if more than one detector)
#OFFSET      : 18.5, -22.4         eV of first channel  (separate by commas if more than one detector
#SIGNALTYPE  : XRF
#YP_TEMP     : 1.53
#LIVETIME    : 8.84281, 8.81502   seconds (separate by commas if more than one detector)
#REALTIME    : 10, 10.0   seconds (separate by commas if more than one detector)
#SPECTRUM    : start of spectrum data
0, 0
0, 0
0, 0
0, 0
0, 0
0, 0
0, 0
0, 0
0, 0
0, 0
0, 0
0, 0
0, 0
0, 0
0, 0
0, 0
0, 0
0, 0
0, 0
0, 0
0, 0
0, 0
0, 0
0, 0
0, 0
0, 0
0, 0
0, 0
0, 0
0, 1
0, 2
0, 0
0, 1
1, 4
0, 1
0, 3
2, 5
6, 1
4, 7
2, 5
4, 2
1, 5
6, 2
2, 3
2, 5
3, 2
1, 7
1, 2
3, 4
6, 2
6, 3
12, 9
14, 7
23, 20
23, 12
18, 14
4, 14
5, 9
8, 8
6, 11
18, 19
18, 23
40, 43
40, 42
49, 63
26, 56
38, 51
28, 28
37, 47
57, 71
110, 135
200, 215
274, 357
375, 462
423, 531
464, 533
389, 486
316, 359
239, 231
126, 140
82, 91
56, 54
33, 32
27, 40
29, 35
33, 28
22, 37
30, 36
36, 26
24, 27
15, 23
15, 23
15, 11
46, 56
70, 80
128, 167
200, 218
240, 307
279, 326
282, 337
252, 302
203, 235
136, 167
105, 123
82, 72
48, 68
51, 56
65, 59
88, 116
122, 153
158, 194
200, 208
186, 225
218, 228
204, 190
146, 180
138, 127
90, 117
71, 93
63, 78
75, 90
76, 69
63, 66
53, 68
41, 41
33, 34
28, 25
16, 18
19, 20
15, 16
12, 14
12, 6
5, 5
7, 8
7, 5
5, 7
6, 11
11, 16
19, 19
23, 26
24, 28
40, 42
21, 28
28, 24
25, 23
11, 27
9, 8
7, 12
12, 24
16, 14
19, 26
48, 57
73, 135
133, 197
186, 273
273, 328
305, 389
356, 400
327, 382
296, 307
213, 248
163, 164
92, 116
69, 54
53, 30
27, 28
23, 31
29, 41
39, 37
57, 54
58, 56
60, 64
43, 55
49, 50
30, 44
26, 19
16, 17
16, 16
9, 11
17, 11
9, 15
11, 9
11, 10
6, 7
13, 18
10, 15
14, 24
17, 29
27, 36
44, 44
50, 57
57, 79
61, 63
66, 61
43, 50
31, 49
31, 35
24, 39
17, 29
27, 13
15, 14
15, 10
7, 19
6, 10
16, 10
15, 13
17, 12
13, 15
21, 14
15, 17
14, 16
19, 16
20, 16
22, 10
13, 17
16, 16
12, 14
11, 16
4, 13
9, 10
13, 9
11, 13
8, 18
10, 14
16, 14
7, 17
13, 22
18, 22
26, 25
31, 35
28, 30
35, 28
24, 31
24, 28
17, 24
16, 16
19, 13
14, 22
20, 13
6, 19
10, 9
12, 11
16, 11
14, 20
17, 17
19, 22
26, 27
33, 34
42, 50
38, 49
42, 58
51, 54
43, 55
37, 40
37, 31
31, 31
22, 16
31, 32
22, 15
14, 15
18, 23
26, 17
33, 37
67, 89
116, 146
182, 313
343, 476
549, 760
806, 1085
1077, 1474
1382, 1765
1604, 1929
1633, 1851
1575, 1789
1425, 1510
1147, 1203
807, 856
597, 587
350, 329
196, 190
109, 111
82, 66
49, 38
17, 21
17, 25
16, 16
20, 15
22, 17
12, 19
11, 24
21, 33
31, 28
32, 53
66, 63
66, 92
115, 149
140, 182
186, 214
218, 270
258, 310
265, 279
232, 267
215, 211
126, 178
112, 147
92, 71
63, 61
37, 33
19, 15
19, 14
11, 6
6, 6
12, 9
8, 12
12, 13
9, 17
11, 11
17, 10
16, 14
10, 13
11, 10
10, 10
8, 7
8, 6
6, 3
5, 6
7, 6
1, 8
6, 5
3, 8
4, 2
9, 4
12, 5
7, 7
8, 7
7, 5
3, 6
4, 8
7, 6
7, 10
7, 5
8, 4
7, 7
7, 13
9, 8
8, 4
8, 6
9, 6
10, 9
5, 10
8, 14
3, 10
7, 9
5, 6
5, 4
3, 8
6, 6
7, 8
9, 9
4, 7
13, 9
5, 10
9, 10
8, 15
10, 4
12, 10
8, 8
9, 11
11, 17
10, 9
7, 6
6, 10
10, 9
5, 9
5, 6
4, 7
5, 5
3, 2
5, 3
5, 2
5, 6
6, 7
9, 6
2, 1
4, 6
1, 5
6, 5
11, 5
4, 5
2, 4
3, 9
7, 7
12, 3
7, 7
5, 10
3, 6
3, 4
2, 1
4, 10
7, 4
10, 1
7, 4
9, 4
7, 6
6, 8
2, 6
7, 9
6, 5
7, 8
10, 6
3, 3
4, 5
4, 5
4, 4
6, 5
5, 4
7, 4
0, 4
6, 4
4, 0
2, 3
5, 7
3, 4
4, 2
2, 3
4, 5
5, 10
7, 7
7, 7
2, 3
3, 5
3, 3
4, 4
5, 4
4, 4
5, 4
1, 6
6, 1
8, 4
3, 6
4, 6
4, 4
4, 7
5, 3
3, 4
4, 5
5, 3
1, 0
3, 2
2, 1
2, 5
3, 2
5, 3
2, 4
2, 2
2, 3
5, 6
4, 4
4, 0
0, 1
2, 4
3, 0
4, 2
2, 4
2, 3
2, 4
1, 4
2, 3
0, 2
2, 2
2, 7
1, 5
5, 6
2, 3
1, 1
2, 2
5, 3
4, 2
3, 5
1, 3
5, 3
1, 5
4, 3
3, 3
1, 3
1, 3
4, 3
5, 6
5, 2
5, 9
1, 3
3, 1
3, 1
1, 2
3, 1
1, 4
4, 2
3, 1
3, 2
2, 3
6, 4
1, 0
1, 3
3, 4
3, 0
5, 3
0, 2
3, 2
1, 1
0, 4
1, 3
1, 3
1, 3
0, 1
1, 4
0, 1
2, 3
1, 1
3, 1
3, 4
1, 0
2, 2
0, 1
1, 1
5, 3
1, 0
3, 3
2, 1
5, 1
3, 4
1, 1
2, 1
1, 0
3, 2
4, 1
2, 2
0, 4
1, 2
7, 3
2, 2
1, 3
3, 5
3, 1
2, 2
2, 1
6, 2
2, 4
2, 2
4, 4
4, 1
3, 0
1, 1
1, 1
2, 2
0, 0
4, 1
2, 3
3, 1
0, 1
0, 4
1, 3
1, 0
0, 2
1, 1
2, 5
0, 4
1, 1
2, 2
1, 1
0, 1
2, 1
4, 0
0, 3
0, 1
1, 1
1, 2
0, 0
1, 0
2, 2
0, 0
2, 2
2, 0
2, 3
1, 1
0, 0
0, 2
1, 2
2, 0
1, 1
1, 0
1, 0
0, 2
0, 2
2, 1
1, 0
1, 1
1, 0
1, 1
1, 2
2, 1
0, 0
0, 3
0, 1
0, 0
1, 2
1, 1
0, 0
1, 0
2, 2
0, 1
2, 0
1, 0
0, 1
1, 0
1, 1
1, 0
2, 1
2, 0
2, 0
2, 0
0, 0
0, 1
2, 0
2, 3
1, 1
0, 2
1, 0
0, 1
2, 1
0, 0
1, 0
0, 3
0, 0
1, 0
2, 1
0, 1
0, 1
0, 1
0, 2
3, 0
0, 0
1, 0
0, 1
0, 0
0, 3
0, 1
2, 0
0, 0
0, 0
1, 0
0, 2
0, 0
0, 0
1, 2
0, 0
0, 0
0, 2
0, 1
0, 0
0, 1
0, 0
0, 1
1, 2
1, 1
0, 0
1, 0
0, 0
0, 1
0, 0
2, 0
0, 1
0, 1
1, 0
0, 1
1, 0
1, 0
1, 0
2, 0
0, 1
0, 0
0, 0
0, 0
2, 1
0, 2
1, 0
0, 0
1, 0
1, 0
0, 0
0, 0
0, 1
0, 0
1, 2
0, 0
3, 1
2, 0
2, 1
1, 0
0, 0
1, 0
0, 0
1, 0
1, 0
0, 1
0, 0
0, 0
0, 1
0, 0
0, 0
0, 3
0, 0
0, 1
0, 1
0, 1
0, 0
0, 0
1, 0
0, 0
0, 1
0, 0
0, 1
1, 0
0, 0
0, 0
0, 0
0, 0
0, 0
0, 0
1, 0
0, 0
0, 1
1, 0
0, 0
0, 0
0, 0
2, 0
0, 1
2, 0
0, 1
0, 0
2, 2
0, 0
0, 0
0, 2
0, 0
1, 0
0, 0
1, 1
0, 0
0, 0
1, 1
0, 0
0, 0
1, 0
0, 1
0, 0
0, 0
0, 0
0, 1
0, 0
0, 0
0, 0
0, 1
1, 0
0, 0
0, 0
1, 0
0, 0
0, 0
0, 0
1, 1
0, 0
0, 1
0, 0
0, 1
0, 0
0, 0
1, 1
1, 0
0, 1
1, 0
1, 0
2, 0
0, 0
1, 1
0, 0
0, 0
0, 0
0, 0
0, 0
1, 0
0, 2
0, 0
0, 0
1, 1
0, 1
0, 0
1, 0
0, 0
0, 0
1, 1
0, 0
0, 2
1, 2
0, 0
0, 0
0, 0
0, 0
0, 0
0, 0
0, 0
0, 0
0, 0
0, 0
0, 0
0, 0
0, 1
0, 0
1, 0
0, 1
0, 0
0, 0
0, 0
0, 0
0, 0
0, 0
0, 1
0, 0
0, 0
0, 0
0, 0
0, 0
0, 0
0, 0
0, 0
0, 0
0, 2
0, 0
0, 0
0, 0
1, 0
0, 0
0, 0
0, 0
0, 0
0, 0
0, 0
0, 0
0, 0
0, 1
0, 0
0, 0
0, 2
0, 0
0, 0
0, 0
0, 0
0, 0
0, 0
0, 1
0, 0
0, 0
0, 0
0, 0
0, 1
0, 0
0, 0
0, 0
0, 0
0, 0
0, 0
0, 0
0, 0
0, 0
0, 0
0, 0
0, 0
0, 0
0, 0
1, 0
1, 0
0, 0
0, 0
0, 0
0, 0
0, 0
0, 0
0, 0
0, 0
0, 0
0, 0
0, 0
0, 0
0, 0
0, 0
0, 0
0, 0
0, 0
0, 0
0, 0
0, 0
0, 0
0, 0
0, 0
0, 0
0, 0
0, 0
0, 0
0, 0
0, 0
0, 0
0, 0
0, 0
0, 1
0, 0
0, 0
0, 0
0, 0
0, 0
0, 0
0, 0
0, 0
0, 0
0, 0
0, 0
0, 0
0, 0
0, 0
0, 0
0, 0
0, 0
0, 1
1, 0
1, 0
0, 0
0, 0
0, 0
0, 0
0, 0
0, 0
0, 0
0, 0
0, 0
0, 0
0, 0
0, 0
0, 0
0, 0
0, 0
0, 0
0, 0
0, 0
0, 0
0, 0
0, 0
0, 0
0, 0
0, 0
0, 0
0, 0
0, 0
1, 0
0, 1
0, 0
1, 0
0, 0
0, 0
0, 0
0, 0
0, 0
0, 0
0, 0
0, 0
0, 0
0, 0
0, 0
0, 0
0, 0
0, 0
0, 0
0, 0
0, 0
0, 0
0, 0
0, 0
0, 0
1, 0
0, 0
0, 0
0, 0
0, 0
0, 0
0, 0
0, 0
0, 0
0, 0
0, 0
0, 0
0, 0
0, 0
0, 0
0, 0
0, 0
0, 0
0, 0
0, 0
0, 0
0, 0
0, 0
0, 0
0, 0
0, 0
0, 0
0, 0
0, 0
0, 0
0, 0
0, 0
0, 0
0, 0
0, 0
0, 0
0, 0
0, 0
0, 0
0, 0
0, 0
0, 0
0, 0
0, 0
0, 0
0, 0
0, 0
0, 0
0, 0
0, 0
0, 0
0, 0
0, 0
0, 0
0, 0
0, 0
0, 0
0, 0
0, 0
0, 0
0, 0
0, 0
0, 0
0, 0
0, 0
0, 0
0, 0
0, 0
0, 0
0, 0
0, 0
0, 0
0, 0
0, 0
0, 0
0, 0
0, 0
0, 0
0, 0
0, 0
0, 0
0, 0
0, 1
0, 0
0, 0
0, 0
0, 0
0, 0
0, 0
0, 0
0, 0
0, 0
0, 0
0, 0
0, 0
0, 0
0, 0
0, 0
0, 0
0, 0
0, 0
0, 0
0, 0
0, 0
0, 0
0, 0
0, 0
0, 0
0, 0
0, 0
0, 0
0, 0
0, 0
0, 0
0, 0
0, 0
0, 0
0, 0
0, 0
0, 0
0, 0
0, 0
0, 0
0, 0
0, 0
0, 0
0, 0
0, 0
0, 0
0, 0
0, 0
0, 0
0, 0
0, 0
0, 0
0, 0
0, 0
0, 0
0, 0
0, 0
0, 0
0, 0
0, 0
0, 0
0, 0
0, 0
0, 0
0, 0
0, 0
0, 0
0, 0
0, 0
0, 0
0, 0
0, 0
0, 0
0, 0
0, 0
0, 0
0, 0
0, 0
0, 0
0, 0
0, 0
0, 0
0, 0
0, 0
0, 0
0, 0
0, 0
0, 0
0, 0
0, 0
0, 0
0, 0
0, 0
0, 0
0, 0
0, 0
0, 0
0, 0
0, 0
0, 0
0, 0
0, 0
0, 0
0, 0
0, 0
0, 0
0, 0
0, 0
0, 0
0, 0
0, 0
0, 0
0, 0
0, 0
0, 0
0, 0
0, 0
0, 0
0, 0
0, 0
0, 0
0, 0
0, 0
0, 0
0, 0
0, 0
0, 0
0, 0
0, 0
0, 0
0, 0
0, 0
0, 0
0, 0
0, 0
0, 0
0, 0
0, 0
0, 0
0, 0
0, 0
0, 0
0, 0
0, 0
0, 0
0, 0
0, 0
0, 0
0, 0
0, 0
0, 0
0, 0
0, 0
0, 0
0, 0
0, 0
0, 0
0, 0
0, 0
0, 0
0, 0
0, 0
0, 0
0, 0
0, 0
0, 0
0, 0
0, 0
0, 0
0, 0
0, 0
0, 0
0, 0
0, 0
0, 0
0, 0
0, 0
0, 0
0, 0
0, 0
0, 0
0, 0
0, 0
0, 0
0, 0
0, 0
0, 0
0, 0
0, 0
0, 0
0, 0
0, 0
0, 0
0, 0
0, 0
0, 0
0, 0
0, 0
0, 0
0, 0
0, 0
0, 0
0, 0
0, 0
0, 0
0, 0
0, 0
0, 0
0, 0
0, 0
0, 0
0, 0
0, 0
0, 0
0, 0
0, 0
0, 0
0, 0
0, 0
0, 0
0, 0
0, 0
0, 0
0, 0
0, 0
0, 0
0, 0
0, 0
0, 0
0, 0
0, 0
0, 0
0, 0
0, 0
0, 0
0, 0
0, 0
0, 0
0, 0
0, 0
0, 0
0, 0
0, 0
0, 0
0, 0
0, 0
0, 0
0, 0
0, 0
0, 0
0, 0
0, 0
0, 0
0, 0
0, 0
0, 0
0, 0
0, 0
0, 0
0, 0
0, 0
0, 0
0, 0
0, 0
0, 0
0, 0
0, 0
0, 0
0, 0
0, 0
0, 0
0, 0
0, 0
0, 0
0, 0
0, 0
0, 0
0, 0
0, 0
0, 0
0, 0
0, 0
0, 0
0, 0
0, 0
0, 0
0, 0
0, 0
0, 0
0, 0
0, 0
0, 0
0, 0
0, 0
0, 0
0, 0
0, 0
#ENDOFDATA     end of spectrum data