File: host_upload/02-11-2024/rqc/uplink1/ps__0567_0717304816_000rfs_shot_311.msa
#FORMAT      : EMSA/MAS spectral data file
#VERSION     : TC202v2.0 PIXL
#TITLE       : Novarupta (sol567) subset1
#DATE        : 02-11-2024      Date in the format DD-MMM-YYYY, for example 07-JUL-2010
#TIME        :             The time of day at which the spectrum was recorded, in 24-hour format
#OWNER       : PIXL Flight Model       (PIXL will use this to indicate which instrument took the data.)
#NPOINTS     : 4096     Number of data points in the spectrum (This can be zero for configuration only files)
#NCOLUMNS    : 2     Number of data columns in the spectrum (This can be zero for configuration only files)
#XUNITS      : eV
#YUNITS      : COUNTS
#DATATYPE    : YY
#XPERCHAN    : 7.862, 7.881   eV per channel (separate by commas if more than one detector)
#OFFSET      : 18.5, -22.4         eV of first channel  (separate by commas if more than one detector
#SIGNALTYPE  : XRF
#YP_TEMP     : 1.209
#LIVETIME    : 8.83986, 8.81894   seconds (separate by commas if more than one detector)
#REALTIME    : 10, 10.0   seconds (separate by commas if more than one detector)
#SPECTRUM    : start of spectrum data
0, 0
0, 0
0, 0
0, 0
0, 0
0, 0
0, 0
0, 0
0, 0
0, 0
0, 0
0, 0
0, 0
0, 0
0, 0
0, 0
0, 0
0, 0
0, 0
0, 0
0, 0
0, 0
0, 0
0, 0
0, 0
0, 0
0, 0
0, 0
0, 0
0, 0
0, 0
0, 1
0, 0
0, 1
1, 1
0, 0
0, 3
2, 4
0, 3
3, 4
7, 3
2, 0
2, 6
1, 2
2, 2
3, 3
2, 2
6, 4
1, 5
2, 4
4, 4
12, 13
9, 10
14, 17
12, 18
14, 6
16, 20
9, 9
6, 9
8, 12
15, 11
32, 18
34, 43
28, 48
37, 56
45, 29
34, 34
35, 43
29, 40
47, 72
92, 130
177, 204
260, 304
396, 480
464, 540
451, 510
435, 440
293, 352
217, 271
125, 145
84, 114
52, 50
46, 31
44, 30
26, 35
29, 41
52, 37
27, 39
22, 30
18, 27
18, 19
14, 20
27, 22
39, 56
76, 87
132, 167
191, 242
249, 304
273, 348
286, 338
235, 313
233, 219
141, 150
95, 100
65, 61
62, 58
55, 52
74, 61
81, 97
99, 111
160, 167
187, 218
182, 217
163, 183
167, 173
156, 180
114, 132
93, 112
98, 86
84, 64
58, 78
78, 83
69, 66
50, 64
46, 52
37, 38
25, 31
15, 26
19, 21
15, 16
9, 10
9, 10
11, 6
6, 7
4, 13
6, 8
10, 4
9, 17
10, 23
25, 25
15, 30
35, 29
21, 33
21, 23
12, 31
23, 18
11, 16
8, 7
5, 17
16, 18
23, 24
51, 61
91, 93
130, 199
215, 238
241, 343
349, 372
336, 388
313, 381
288, 342
255, 242
156, 177
96, 108
51, 69
38, 44
15, 26
32, 37
36, 36
36, 53
41, 50
45, 45
67, 64
56, 62
48, 48
34, 41
30, 28
18, 19
13, 16
12, 7
6, 8
6, 5
10, 6
11, 10
5, 10
13, 10
15, 12
13, 19
23, 26
30, 41
43, 48
42, 55
56, 76
48, 63
61, 54
49, 51
35, 55
38, 38
24, 26
26, 28
19, 23
18, 19
9, 7
5, 12
10, 17
7, 9
12, 15
13, 12
18, 12
20, 25
16, 19
13, 27
22, 14
16, 18
18, 15
14, 16
7, 14
11, 4
15, 10
9, 11
7, 3
12, 14
15, 16
6, 9
14, 14
15, 13
11, 22
15, 19
19, 23
33, 33
23, 34
29, 31
33, 29
21, 21
29, 18
22, 20
19, 20
14, 15
13, 9
22, 20
13, 16
11, 7
4, 12
10, 19
10, 12
14, 15
20, 19
32, 32
31, 31
35, 47
37, 56
49, 53
44, 56
47, 38
36, 38
37, 45
28, 19
31, 24
22, 17
24, 14
12, 17
13, 25
20, 27
47, 50
70, 98
131, 187
232, 296
368, 506
538, 764
819, 1037
1093, 1489
1453, 1704
1580, 1860
1672, 1882
1704, 1752
1464, 1560
1183, 1159
830, 820
570, 570
353, 346
220, 179
125, 113
55, 62
35, 35
24, 26
15, 32
14, 12
13, 11
16, 16
14, 20
26, 18
22, 31
32, 25
35, 52
54, 77
87, 94
129, 158
171, 224
205, 219
224, 295
247, 299
276, 322
261, 251
212, 230
177, 177
121, 116
83, 82
54, 52
33, 38
26, 17
17, 13
11, 7
12, 8
8, 9
10, 11
8, 16
12, 4
9, 14
8, 14
14, 15
11, 12
19, 9
4, 2
16, 6
7, 7
7, 8
6, 11
9, 7
6, 4
6, 6
6, 6
5, 8
7, 4
5, 5
3, 8
5, 5
6, 6
7, 10
6, 8
8, 8
7, 5
3, 2
2, 4
4, 4
5, 10
2, 3
11, 11
6, 4
8, 4
5, 7
9, 4
10, 7
5, 12
7, 15
7, 9
5, 3
8, 7
2, 10
4, 3
5, 3
8, 14
7, 7
5, 6
7, 12
9, 8
10, 10
11, 12
8, 13
10, 12
10, 13
9, 9
7, 10
6, 6
8, 9
4, 5
10, 5
6, 11
4, 7
7, 12
4, 6
6, 3
8, 7
2, 9
4, 11
8, 6
5, 10
5, 9
4, 2
2, 5
2, 11
7, 2
4, 8
3, 3
5, 7
5, 7
3, 6
8, 7
4, 6
6, 5
6, 7
7, 4
2, 3
5, 3
5, 4
9, 8
7, 5
5, 7
7, 7
3, 5
5, 4
5, 6
2, 4
6, 6
5, 5
6, 1
3, 5
3, 2
6, 4
3, 5
4, 5
3, 2
7, 3
6, 3
4, 3
7, 7
2, 4
7, 2
5, 6
2, 3
5, 3
2, 6
3, 5
3, 8
2, 3
7, 5
5, 5
0, 4
3, 2
8, 7
6, 2
3, 5
3, 5
3, 2
2, 2
1, 6
6, 5
3, 5
1, 6
1, 6
3, 3
2, 5
3, 6
1, 5
3, 3
3, 6
3, 2
5, 0
3, 4
6, 3
2, 5
3, 4
3, 4
1, 4
1, 7
3, 2
3, 3
2, 4
1, 4
1, 6
3, 5
5, 3
2, 4
3, 3
2, 3
2, 4
3, 2
0, 4
2, 4
3, 6
2, 1
1, 3
2, 0
4, 4
5, 1
1, 2
1, 2
1, 4
6, 3
3, 5
3, 0
3, 2
5, 5
1, 3
3, 2
2, 0
2, 2
2, 0
0, 2
2, 2
1, 3
2, 2
1, 1
0, 1
4, 0
4, 1
2, 3
1, 4
4, 1
3, 5
3, 2
1, 4
6, 1
0, 2
3, 2
2, 4
1, 1
1, 3
1, 3
3, 0
1, 2
3, 3
3, 3
1, 2
0, 2
2, 3
5, 4
3, 2
0, 3
0, 1
4, 3
4, 1
0, 1
5, 0
2, 0
1, 1
4, 0
3, 0
3, 4
3, 2
7, 3
4, 1
5, 2
4, 1
4, 3
5, 2
2, 2
1, 3
1, 2
3, 3
2, 2
1, 0
0, 2
0, 3
3, 0
1, 3
1, 1
2, 1
2, 3
1, 3
2, 1
1, 1
2, 1
3, 1
0, 1
1, 2
5, 1
1, 4
1, 2
2, 2
0, 2
3, 3
2, 0
3, 1
1, 1
2, 1
2, 2
3, 2
0, 0
0, 2
0, 2
1, 2
0, 0
1, 1
1, 1
0, 3
2, 2
2, 1
2, 1
0, 1
3, 1
0, 0
3, 2
1, 0
0, 1
3, 3
1, 2
1, 0
1, 3
2, 1
1, 2
1, 2
2, 0
0, 0
2, 2
2, 2
0, 1
1, 0
0, 1
4, 1
0, 1
3, 3
2, 4
1, 0
0, 2
0, 0
0, 0
0, 2
0, 1
3, 1
0, 2
1, 1
1, 1
0, 3
1, 0
1, 1
0, 1
0, 1
0, 0
0, 2
2, 0
0, 1
0, 1
0, 1
1, 0
0, 0
1, 2
0, 3
1, 2
0, 2
1, 0
1, 2
1, 2
0, 0
0, 1
0, 2
2, 0
3, 0
1, 1
0, 0
0, 3
0, 0
1, 3
0, 0
0, 0
0, 1
2, 0
1, 0
0, 0
0, 0
1, 1
0, 2
1, 1
0, 1
2, 2
0, 1
1, 0
0, 1
0, 0
1, 1
1, 0
1, 1
0, 1
0, 0
0, 1
1, 0
0, 3
0, 0
1, 0
1, 1
1, 1
2, 0
2, 0
0, 0
0, 0
0, 1
2, 1
0, 0
1, 1
1, 0
0, 1
0, 0
0, 1
1, 0
1, 0
0, 0
0, 1
0, 2
2, 1
1, 1
0, 1
1, 0
1, 0
0, 1
0, 1
0, 0
1, 0
0, 1
0, 0
0, 0
1, 1
1, 0
1, 2
0, 0
0, 0
2, 0
0, 1
0, 0
0, 1
0, 1
0, 1
0, 1
0, 0
2, 0
0, 2
0, 0
1, 1
0, 0
1, 0
0, 0
0, 0
0, 0
0, 0
1, 1
0, 0
0, 0
0, 0
1, 0
1, 0
2, 1
0, 1
0, 0
0, 0
0, 0
0, 0
0, 1
0, 0
0, 1
0, 0
0, 0
0, 1
0, 2
0, 0
0, 0
0, 0
1, 1
0, 0
0, 0
0, 0
0, 0
0, 0
0, 0
0, 1
0, 1
0, 0
1, 2
0, 0
0, 0
3, 0
0, 0
0, 0
0, 0
0, 0
0, 0
0, 1
0, 0
0, 0
0, 0
0, 0
0, 0
0, 0
0, 0
1, 0
0, 0
1, 0
0, 0
2, 0
1, 0
0, 0
0, 0
1, 0
2, 0
0, 0
0, 0
0, 0
0, 0
0, 1
0, 1
1, 2
0, 0
0, 0
0, 0
2, 0
0, 0
0, 0
1, 0
0, 0
0, 1
0, 1
0, 0
0, 0
1, 0
0, 0
0, 0
0, 0
0, 0
0, 1
0, 0
0, 0
0, 0
0, 0
0, 0
1, 0
0, 0
0, 0
0, 0
0, 0
1, 0
1, 0
1, 0
1, 1
0, 0
0, 0
0, 0
0, 0
0, 0
0, 0
0, 0
0, 0
0, 0
0, 0
0, 0
0, 0
0, 0
0, 0
1, 0
0, 0
0, 0
0, 0
0, 1
0, 0
0, 0
1, 0
0, 0
0, 0
0, 0
0, 0
2, 0
0, 0
0, 0
0, 0
0, 0
0, 0
0, 0
0, 0
1, 1
0, 0
0, 0
0, 0
0, 1
0, 0
0, 0
0, 0
0, 0
0, 0
1, 1
0, 0
0, 0
0, 0
0, 0
0, 0
0, 0
1, 0
0, 0
1, 0
0, 0
0, 1
0, 0
0, 0
0, 0
0, 0
0, 0
0, 0
0, 0
0, 0
0, 0
0, 0
0, 0
0, 0
0, 0
0, 0
0, 0
0, 0
0, 0
1, 0
0, 0
0, 0
1, 0
0, 0
0, 0
0, 0
0, 0
0, 0
0, 0
0, 0
0, 0
0, 0
0, 0
0, 0
0, 0
0, 0
0, 0
0, 0
0, 0
0, 0
0, 0
0, 0
0, 0
0, 0
0, 0
0, 0
0, 0
0, 0
0, 0
0, 0
0, 0
0, 0
0, 0
0, 0
0, 1
0, 0
0, 0
0, 0
0, 0
0, 0
0, 0
0, 0
0, 0
0, 0
0, 0
0, 0
0, 0
0, 1
0, 0
0, 0
0, 0
0, 0
0, 0
0, 0
0, 0
0, 0
0, 0
0, 0
0, 0
0, 0
0, 0
0, 0
0, 0
0, 0
0, 0
0, 0
0, 0
0, 0
0, 0
0, 0
0, 0
0, 0
0, 0
0, 0
0, 0
0, 0
0, 0
0, 0
0, 0
0, 0
0, 0
0, 0
0, 0
0, 0
0, 0
0, 0
0, 0
0, 0
0, 0
0, 0
0, 0
0, 0
0, 1
0, 0
0, 0
0, 0
0, 0
0, 0
0, 0
0, 0
0, 0
0, 0
0, 0
0, 0
0, 0
0, 0
0, 0
0, 0
0, 0
0, 0
0, 0
0, 0
0, 0
0, 0
0, 0
0, 0
0, 0
0, 0
0, 0
0, 0
0, 0
0, 0
0, 0
0, 0
0, 0
0, 0
0, 0
0, 0
0, 0
0, 0
0, 0
0, 0
0, 0
0, 0
0, 0
0, 0
0, 0
0, 0
0, 0
0, 0
0, 0
0, 0
0, 0
0, 0
0, 0
0, 0
0, 0
0, 0
0, 0
0, 0
0, 0
0, 0
0, 0
0, 0
0, 0
0, 0
0, 0
0, 0
0, 0
0, 0
0, 0
0, 0
0, 0
0, 0
0, 0
0, 0
0, 0
0, 0
0, 0
0, 0
0, 0
0, 0
0, 0
0, 0
0, 0
0, 0
0, 0
0, 0
0, 0
0, 0
0, 0
0, 0
0, 0
0, 0
0, 0
0, 0
0, 0
0, 0
0, 0
0, 0
0, 0
0, 0
0, 0
0, 0
0, 0
0, 0
0, 0
0, 0
0, 0
0, 0
0, 0
0, 0
0, 0
0, 0
0, 0
0, 0
0, 0
0, 0
0, 0
0, 0
0, 1
0, 0
0, 0
0, 0
0, 0
0, 0
0, 0
0, 0
0, 0
0, 0
0, 0
0, 0
0, 0
0, 0
0, 0
0, 0
0, 0
0, 0
0, 0
0, 0
0, 0
0, 0
0, 0
0, 0
0, 0
0, 0
0, 0
0, 0
0, 0
0, 0
0, 0
0, 0
0, 0
0, 0
0, 0
0, 0
0, 0
0, 0
0, 0
0, 0
0, 0
0, 0
0, 0
0, 0
0, 0
0, 0
0, 0
0, 0
0, 0
0, 0
0, 0
0, 0
0, 0
0, 0
0, 0
0, 0
0, 0
0, 0
0, 0
0, 0
0, 0
0, 0
0, 0
0, 0
0, 0
0, 0
0, 0
0, 0
0, 0
0, 0
0, 0
0, 0
0, 0
0, 0
0, 0
0, 0
0, 0
0, 0
0, 0
0, 0
0, 0
0, 0
0, 0
0, 0
0, 0
0, 0
0, 0
0, 0
0, 0
0, 0
0, 0
0, 0
0, 0
0, 0
0, 0
0, 0
0, 0
0, 0
0, 0
0, 0
0, 0
0, 0
0, 0
0, 0
0, 0
0, 0
0, 0
0, 0
0, 0
0, 0
0, 0
0, 0
0, 0
0, 0
0, 0
0, 0
0, 0
0, 0
0, 0
0, 0
0, 0
0, 0
0, 0
0, 0
0, 0
0, 0
0, 0
0, 0
0, 0
0, 0
0, 0
0, 0
0, 0
0, 0
0, 0
0, 0
0, 0
0, 0
0, 0
0, 0
0, 0
0, 0
0, 0
0, 0
0, 0
0, 0
0, 0
0, 0
0, 0
0, 0
0, 0
0, 0
0, 0
0, 0
0, 0
0, 0
0, 0
0, 0
0, 0
0, 0
0, 0
0, 0
0, 0
0, 0
0, 0
0, 0
0, 0
0, 0
0, 0
0, 0
0, 0
0, 0
0, 0
0, 0
0, 0
0, 0
0, 0
0, 0
0, 0
0, 0
0, 0
0, 0
0, 0
0, 0
0, 0
0, 0
0, 0
0, 0
0, 0
0, 0
0, 0
0, 0
0, 0
0, 0
0, 0
0, 0
0, 0
0, 0
0, 0
0, 0
0, 0
0, 0
0, 0
0, 0
0, 0
0, 0
0, 0
0, 0
0, 0
0, 0
0, 0
0, 0
0, 0
0, 0
0, 0
0, 0
0, 0
0, 0
0, 0
0, 0
0, 0
0, 0
0, 0
0, 0
0, 0
0, 0
0, 0
0, 0
0, 0
0, 0
0, 0
0, 0
0, 0
0, 0
0, 0
0, 0
0, 0
0, 0
0, 0
0, 0
0, 0
0, 0
0, 0
0, 0
0, 0
0, 0
0, 0
0, 0
0, 0
0, 0
0, 0
0, 0
0, 0
#ENDOFDATA     end of spectrum data