File: host_upload/02-11-2024/rqc/uplink1/ps__0567_0717304816_000rfs_shot_131.msa
#FORMAT      : EMSA/MAS spectral data file
#VERSION     : TC202v2.0 PIXL
#TITLE       : Novarupta (sol567) subset1
#DATE        : 02-11-2024      Date in the format DD-MMM-YYYY, for example 07-JUL-2010
#TIME        :             The time of day at which the spectrum was recorded, in 24-hour format
#OWNER       : PIXL Flight Model       (PIXL will use this to indicate which instrument took the data.)
#NPOINTS     : 4096     Number of data points in the spectrum (This can be zero for configuration only files)
#NCOLUMNS    : 2     Number of data columns in the spectrum (This can be zero for configuration only files)
#XUNITS      : eV
#YUNITS      : COUNTS
#DATATYPE    : YY
#XPERCHAN    : 7.862, 7.881   eV per channel (separate by commas if more than one detector)
#OFFSET      : 18.5, -22.4         eV of first channel  (separate by commas if more than one detector
#SIGNALTYPE  : XRF
#YP_TEMP     : -0.266
#LIVETIME    : 8.82552, 8.82506   seconds (separate by commas if more than one detector)
#REALTIME    : 10, 10.0   seconds (separate by commas if more than one detector)
#SPECTRUM    : start of spectrum data
0, 0
0, 0
0, 0
0, 0
0, 0
0, 0
0, 0
0, 0
0, 0
0, 0
0, 0
0, 0
0, 0
0, 0
0, 0
0, 0
0, 0
0, 0
0, 0
0, 0
0, 0
0, 0
0, 0
0, 0
0, 0
0, 0
0, 0
0, 0
0, 0
0, 0
0, 0
0, 0
0, 2
0, 1
0, 2
1, 4
3, 0
2, 3
1, 7
2, 3
1, 3
4, 2
3, 4
3, 3
3, 1
3, 6
3, 6
4, 2
3, 1
4, 3
5, 7
10, 8
8, 11
13, 15
12, 20
23, 13
19, 11
13, 12
8, 8
15, 8
18, 14
23, 26
33, 31
43, 40
44, 48
57, 46
47, 33
23, 36
40, 41
52, 59
109, 131
195, 221
308, 293
401, 430
483, 508
535, 496
464, 429
319, 295
228, 214
159, 119
99, 71
55, 47
39, 33
30, 37
38, 40
29, 31
42, 35
33, 39
27, 31
24, 20
15, 18
25, 12
25, 30
48, 53
81, 91
155, 122
232, 230
276, 287
302, 329
282, 323
253, 285
202, 194
152, 145
118, 94
65, 61
78, 56
57, 49
77, 69
98, 117
117, 122
155, 168
196, 199
237, 233
236, 195
173, 182
148, 165
132, 130
105, 104
106, 87
95, 77
76, 96
59, 67
63, 68
48, 64
48, 48
35, 39
36, 31
25, 23
14, 18
18, 15
4, 14
12, 10
6, 9
7, 13
3, 7
5, 12
6, 11
17, 21
13, 16
24, 29
26, 31
28, 24
34, 22
19, 23
19, 23
14, 10
15, 10
10, 7
14, 5
6, 19
32, 30
47, 83
68, 117
159, 164
256, 245
295, 289
317, 389
412, 411
351, 363
292, 290
229, 211
158, 142
97, 108
69, 38
37, 40
23, 19
15, 30
41, 41
36, 43
45, 71
57, 54
62, 60
70, 44
41, 52
45, 33
22, 26
24, 17
8, 21
10, 10
7, 8
12, 8
12, 8
6, 7
7, 8
11, 16
20, 17
21, 18
26, 17
36, 44
39, 48
47, 44
62, 70
76, 79
60, 52
49, 56
41, 57
32, 29
25, 30
30, 20
12, 12
17, 23
10, 20
8, 14
10, 15
16, 9
14, 19
13, 15
15, 20
21, 16
14, 24
23, 23
13, 16
15, 22
17, 15
12, 13
12, 12
13, 18
11, 16
13, 11
14, 12
9, 8
10, 10
17, 13
7, 11
19, 16
12, 16
13, 18
34, 28
26, 31
20, 44
31, 39
24, 35
31, 26
20, 30
25, 27
22, 17
15, 10
17, 18
13, 19
21, 17
7, 5
18, 17
10, 11
17, 17
21, 15
14, 17
28, 28
35, 31
35, 44
52, 55
36, 47
49, 47
43, 52
29, 53
38, 26
25, 29
25, 20
21, 21
26, 27
15, 22
18, 20
23, 26
35, 47
81, 104
161, 150
272, 319
422, 479
676, 776
967, 1141
1285, 1436
1496, 1633
1678, 1853
1677, 1844
1673, 1604
1414, 1383
1113, 1044
781, 766
545, 449
382, 262
178, 165
123, 99
66, 43
34, 37
15, 26
20, 17
16, 20
17, 28
18, 16
12, 20
20, 25
20, 33
22, 25
40, 56
66, 83
104, 104
132, 152
169, 189
196, 232
239, 279
274, 275
280, 274
248, 241
226, 174
168, 162
130, 113
80, 71
55, 50
31, 28
21, 21
8, 16
11, 10
9, 8
6, 11
10, 7
8, 8
13, 9
7, 14
9, 14
17, 16
14, 4
8, 12
9, 12
5, 13
5, 4
5, 3
9, 9
3, 7
5, 9
9, 5
12, 6
10, 3
4, 5
10, 5
7, 11
10, 9
5, 9
6, 11
5, 9
3, 7
3, 8
10, 7
7, 3
7, 6
4, 7
8, 9
9, 7
3, 7
8, 9
7, 9
2, 8
6, 5
7, 7
14, 10
3, 4
4, 10
6, 6
5, 8
6, 5
8, 8
10, 8
8, 3
12, 8
7, 10
8, 11
9, 13
8, 8
13, 15
10, 12
10, 19
10, 13
9, 11
9, 13
9, 9
2, 10
7, 11
8, 7
4, 3
3, 5
5, 10
10, 4
3, 7
5, 10
7, 8
5, 2
4, 4
10, 2
4, 8
5, 8
8, 5
6, 6
7, 6
3, 7
5, 5
5, 2
7, 7
6, 3
6, 3
4, 3
6, 7
4, 9
4, 6
2, 7
6, 4
9, 4
3, 6
4, 6
7, 4
4, 5
3, 6
2, 5
5, 3
3, 7
6, 5
5, 4
2, 3
3, 6
3, 7
2, 6
2, 4
3, 2
9, 7
3, 4
6, 4
6, 4
5, 3
4, 3
3, 6
2, 5
4, 9
6, 4
4, 4
2, 3
3, 4
5, 6
4, 2
4, 2
6, 4
6, 4
2, 3
3, 5
3, 2
5, 2
2, 2
2, 2
7, 1
9, 6
3, 4
2, 3
3, 0
6, 4
3, 6
4, 4
3, 2
3, 3
1, 5
3, 2
6, 4
1, 1
2, 2
1, 8
3, 4
2, 5
2, 1
4, 5
3, 1
2, 3
1, 0
2, 4
1, 1
4, 5
3, 2
4, 2
2, 4
3, 0
3, 2
0, 0
4, 4
1, 0
4, 1
6, 1
1, 1
3, 1
4, 2
5, 4
3, 5
2, 2
3, 5
5, 6
3, 5
2, 4
1, 3
3, 1
2, 1
2, 4
1, 0
2, 3
4, 2
4, 6
3, 3
2, 1
4, 2
0, 2
4, 4
2, 6
6, 2
0, 1
1, 2
2, 4
1, 3
6, 1
5, 4
2, 3
1, 2
4, 0
2, 2
3, 2
1, 2
4, 3
3, 1
3, 1
3, 1
2, 1
3, 3
2, 1
3, 3
0, 1
2, 3
1, 1
2, 4
0, 1
2, 2
2, 1
0, 2
0, 2
4, 3
3, 2
1, 3
5, 4
2, 7
7, 2
3, 3
1, 3
1, 5
4, 2
2, 0
4, 2
3, 4
3, 1
0, 3
2, 3
0, 0
1, 0
3, 2
1, 4
0, 1
0, 1
2, 3
1, 0
1, 2
3, 0
1, 1
2, 2
2, 1
3, 3
3, 2
1, 2
0, 0
2, 1
3, 1
2, 2
0, 4
0, 2
3, 1
0, 1
0, 2
0, 1
0, 2
3, 3
3, 0
2, 1
1, 1
2, 0
1, 2
4, 4
0, 3
3, 2
0, 0
2, 1
1, 0
1, 2
1, 1
1, 2
0, 1
1, 0
0, 2
2, 2
0, 3
0, 1
0, 1
4, 1
1, 3
1, 0
4, 0
4, 0
1, 0
1, 2
1, 1
1, 0
1, 0
3, 2
3, 0
1, 1
1, 2
1, 0
2, 0
2, 1
1, 0
1, 0
1, 0
1, 1
2, 0
0, 0
2, 2
2, 1
1, 0
1, 2
0, 0
0, 0
1, 2
1, 2
3, 1
0, 2
2, 1
0, 2
0, 1
1, 0
0, 1
0, 1
0, 1
1, 1
0, 0
0, 0
0, 2
0, 1
2, 0
0, 0
0, 0
2, 2
0, 2
2, 0
1, 0
1, 0
0, 1
0, 0
0, 0
0, 0
1, 0
1, 1
1, 0
0, 0
0, 2
0, 1
1, 0
1, 1
1, 0
1, 2
2, 0
1, 1
1, 0
0, 0
0, 0
0, 0
0, 0
1, 1
2, 2
0, 0
1, 1
1, 0
0, 1
0, 2
0, 1
0, 0
2, 2
1, 2
0, 1
2, 1
1, 1
1, 0
0, 1
0, 1
0, 0
2, 0
0, 0
0, 0
0, 0
0, 0
1, 0
0, 0
0, 1
0, 1
1, 0
2, 0
0, 0
0, 0
0, 0
0, 0
1, 1
0, 1
0, 0
0, 0
0, 0
1, 0
0, 0
1, 1
1, 0
0, 1
0, 0
1, 0
0, 0
0, 0
1, 1
0, 0
0, 0
0, 0
0, 1
0, 0
0, 2
0, 0
1, 0
0, 0
0, 0
0, 0
0, 1
1, 1
0, 0
0, 2
1, 1
0, 1
1, 2
1, 0
0, 0
0, 0
1, 0
0, 1
0, 0
0, 0
1, 0
0, 0
0, 0
0, 0
0, 0
0, 0
0, 0
1, 0
0, 0
0, 0
0, 0
0, 0
0, 0
0, 0
0, 0
1, 0
0, 0
0, 0
0, 0
0, 0
1, 0
0, 0
0, 1
0, 0
1, 0
0, 0
0, 0
0, 0
0, 0
0, 0
0, 1
0, 1
0, 0
0, 1
0, 0
1, 0
0, 1
0, 0
0, 1
0, 1
0, 0
0, 0
0, 0
1, 1
2, 0
0, 0
0, 0
0, 0
0, 0
0, 0
0, 0
0, 0
0, 0
0, 1
1, 1
0, 0
2, 0
0, 0
0, 1
0, 0
0, 0
0, 0
0, 0
1, 0
0, 0
0, 0
0, 0
0, 0
0, 0
0, 0
1, 0
0, 1
1, 0
1, 0
0, 0
0, 0
0, 1
0, 1
0, 0
0, 1
0, 0
0, 0
0, 0
0, 0
0, 0
0, 0
1, 0
0, 0
1, 0
0, 0
0, 0
0, 0
0, 0
0, 1
1, 0
0, 0
0, 0
0, 0
0, 0
1, 0
0, 1
1, 0
0, 1
0, 0
0, 0
1, 1
0, 0
0, 0
0, 0
0, 1
0, 0
0, 0
0, 0
0, 0
0, 0
0, 0
0, 0
1, 0
1, 0
0, 0
0, 0
0, 0
0, 0
0, 0
0, 0
0, 0
0, 0
0, 0
1, 0
0, 0
0, 0
0, 0
0, 0
0, 0
1, 0
0, 0
0, 0
0, 0
0, 0
0, 0
0, 0
0, 1
0, 0
0, 0
0, 0
0, 0
0, 0
0, 0
0, 1
0, 0
0, 0
0, 0
0, 0
0, 0
0, 0
0, 0
1, 0
1, 0
0, 0
0, 0
0, 0
0, 0
0, 0
0, 0
0, 0
0, 0
0, 0
0, 0
0, 0
0, 0
0, 0
0, 0
0, 0
0, 0
0, 0
0, 0
0, 0
0, 0
0, 0
0, 0
0, 0
0, 0
0, 0
0, 0
0, 0
0, 0
0, 0
0, 0
0, 0
0, 0
0, 0
0, 0
0, 0
0, 0
0, 1
0, 0
0, 0
0, 0
0, 0
0, 0
0, 0
0, 0
0, 0
0, 0
0, 0
0, 0
0, 0
0, 0
0, 0
0, 0
0, 0
0, 0
0, 0
0, 0
1, 0
0, 0
0, 0
0, 0
0, 0
0, 0
0, 0
0, 1
0, 0
0, 1
0, 0
0, 0
0, 0
0, 0
0, 0
0, 0
0, 0
0, 0
0, 0
0, 0
0, 0
0, 0
0, 0
0, 0
0, 0
0, 0
0, 0
0, 0
0, 0
0, 0
0, 0
0, 0
0, 0
0, 0
0, 0
0, 0
0, 0
0, 0
0, 0
0, 0
0, 0
0, 0
0, 0
0, 0
0, 0
0, 0
0, 0
0, 0
0, 0
0, 0
0, 0
0, 0
0, 0
0, 0
0, 0
0, 0
0, 0
0, 0
0, 0
0, 0
0, 0
0, 0
0, 0
0, 0
0, 0
0, 0
0, 0
0, 0
0, 0
1, 0
0, 0
0, 0
0, 0
0, 0
0, 0
0, 0
0, 0
0, 0
0, 0
0, 0
0, 0
0, 0
0, 0
0, 0
0, 0
0, 0
0, 0
0, 0
0, 0
0, 0
0, 0
0, 0
1, 0
0, 0
0, 0
0, 0
0, 0
0, 0
0, 0
0, 0
0, 0
0, 0
0, 0
0, 0
0, 0
0, 0
0, 0
0, 0
0, 0
0, 0
0, 0
0, 0
0, 0
0, 0
0, 0
0, 0
0, 0
0, 0
0, 0
0, 0
0, 0
0, 0
0, 0
0, 0
0, 0
0, 0
0, 0
0, 0
0, 0
0, 0
0, 0
0, 0
0, 0
0, 0
0, 0
0, 0
0, 0
0, 0
0, 0
0, 0
0, 0
0, 0
0, 0
0, 0
0, 0
0, 0
0, 0
0, 0
0, 0
0, 0
0, 0
0, 0
0, 0
0, 0
0, 0
0, 0
0, 0
0, 0
0, 0
0, 0
0, 0
0, 0
0, 0
0, 0
0, 0
0, 0
0, 0
0, 0
0, 0
0, 0
0, 0
0, 0
0, 0
0, 0
0, 0
0, 0
0, 0
0, 0
0, 0
0, 0
0, 0
0, 0
0, 0
0, 0
0, 0
0, 0
0, 0
0, 0
0, 0
0, 0
0, 0
0, 0
0, 0
0, 0
0, 0
0, 0
0, 0
0, 0
0, 0
0, 0
0, 0
0, 0
0, 0
0, 0
0, 0
0, 0
0, 0
0, 0
0, 0
0, 0
0, 0
0, 0
0, 0
0, 0
0, 0
0, 0
0, 0
0, 0
0, 0
0, 0
0, 0
0, 0
0, 0
0, 0
0, 0
0, 0
0, 0
0, 0
0, 0
0, 0
0, 0
0, 0
0, 0
0, 0
0, 0
0, 0
0, 0
0, 0
0, 0
0, 0
0, 0
0, 0
0, 0
0, 0
0, 0
0, 0
0, 0
0, 0
0, 0
0, 0
0, 0
0, 0
0, 0
0, 0
0, 0
0, 0
0, 0
0, 0
0, 0
0, 0
0, 0
0, 0
0, 0
0, 0
0, 0
0, 0
0, 0
0, 0
0, 0
0, 0
0, 0
0, 0
0, 0
0, 0
0, 0
0, 0
0, 0
0, 0
0, 0
0, 0
0, 0
0, 0
0, 0
0, 0
0, 0
0, 0
0, 0
0, 0
0, 0
0, 0
0, 0
0, 0
0, 0
0, 0
0, 0
0, 0
0, 0
0, 0
0, 0
0, 0
0, 0
0, 0
0, 0
0, 0
0, 0
0, 0
0, 0
0, 0
0, 0
0, 0
0, 0
0, 0
0, 0
0, 0
0, 0
0, 0
0, 0
0, 0
0, 0
0, 0
0, 0
0, 0
0, 0
0, 0
0, 0
0, 0
0, 0
0, 0
0, 0
0, 0
0, 0
0, 0
0, 0
0, 0
0, 0
0, 0
0, 0
0, 0
0, 0
0, 0
0, 0
0, 0
0, 0
0, 0
0, 0
0, 0
0, 0
0, 0
0, 0
0, 0
0, 0
0, 0
0, 0
0, 0
0, 0
0, 0
0, 0
0, 0
0, 0
0, 0
0, 0
0, 0
0, 0
0, 0
0, 0
0, 0
0, 0
0, 0
0, 0
0, 0
0, 0
0, 0
0, 0
0, 0
0, 0
0, 0
0, 0
0, 0
0, 0
0, 0
0, 0
0, 0
0, 0
0, 0
0, 0
0, 0
0, 0
0, 0
0, 0
0, 0
0, 0
0, 0
0, 0
0, 0
0, 0
0, 0
0, 0
0, 0
0, 0
0, 0
0, 0
0, 0
0, 0
0, 0
0, 0
0, 0
#ENDOFDATA     end of spectrum data