File: host_upload/02-11-2024/rqc/uplink1/ps__0567_0717304816_000rfs_shot_127.msa
#FORMAT      : EMSA/MAS spectral data file
#VERSION     : TC202v2.0 PIXL
#TITLE       : Novarupta (sol567) subset1
#DATE        : 02-11-2024      Date in the format DD-MMM-YYYY, for example 07-JUL-2010
#TIME        :             The time of day at which the spectrum was recorded, in 24-hour format
#OWNER       : PIXL Flight Model       (PIXL will use this to indicate which instrument took the data.)
#NPOINTS     : 4096     Number of data points in the spectrum (This can be zero for configuration only files)
#NCOLUMNS    : 2     Number of data columns in the spectrum (This can be zero for configuration only files)
#XUNITS      : eV
#YUNITS      : COUNTS
#DATATYPE    : YY
#XPERCHAN    : 7.862, 7.881   eV per channel (separate by commas if more than one detector)
#OFFSET      : 18.5, -22.4         eV of first channel  (separate by commas if more than one detector
#SIGNALTYPE  : XRF
#YP_TEMP     : -0.234
#LIVETIME    : 8.8332, 8.81713   seconds (separate by commas if more than one detector)
#REALTIME    : 10, 10.0   seconds (separate by commas if more than one detector)
#SPECTRUM    : start of spectrum data
0, 0
0, 0
0, 0
0, 0
0, 0
0, 0
0, 0
0, 0
0, 0
0, 0
0, 0
0, 0
0, 0
0, 0
0, 0
0, 0
0, 0
0, 0
0, 0
0, 0
0, 0
0, 0
0, 0
0, 0
0, 0
0, 0
0, 0
0, 0
0, 1
0, 0
0, 0
0, 0
0, 0
2, 0
0, 0
2, 1
2, 5
2, 3
2, 3
0, 2
2, 1
3, 3
1, 5
3, 3
1, 5
2, 4
4, 2
1, 2
1, 3
3, 6
4, 5
7, 12
10, 9
10, 14
15, 15
16, 14
10, 11
8, 14
12, 9
11, 11
11, 16
25, 29
39, 49
36, 61
43, 48
52, 36
35, 39
37, 37
29, 35
54, 74
122, 142
181, 223
286, 350
378, 442
504, 511
478, 507
371, 422
305, 367
194, 217
131, 156
75, 69
47, 46
34, 44
31, 41
32, 38
33, 37
32, 33
33, 32
27, 28
23, 17
21, 20
11, 21
17, 24
48, 56
76, 77
132, 135
185, 217
217, 277
285, 347
261, 279
218, 295
184, 193
138, 150
88, 114
52, 85
48, 56
45, 39
58, 51
91, 108
120, 163
130, 192
195, 220
195, 229
184, 219
194, 204
156, 167
107, 138
109, 105
73, 103
72, 94
58, 89
54, 81
60, 66
50, 67
31, 61
36, 47
24, 27
29, 17
12, 13
16, 12
12, 14
10, 8
8, 7
7, 4
6, 11
10, 11
16, 13
12, 24
20, 30
26, 26
14, 32
17, 37
26, 23
25, 24
14, 21
9, 10
10, 13
5, 12
10, 11
17, 26
31, 30
46, 65
88, 90
139, 174
196, 257
243, 344
337, 400
309, 403
320, 364
289, 346
217, 244
143, 191
63, 105
50, 54
22, 36
30, 36
29, 27
25, 46
42, 37
39, 67
51, 55
49, 65
44, 83
45, 38
33, 23
25, 25
15, 25
11, 11
11, 7
6, 7
11, 5
10, 13
6, 7
12, 10
8, 8
12, 16
14, 18
24, 23
41, 35
35, 59
56, 49
60, 64
51, 62
48, 72
48, 52
28, 50
26, 40
24, 23
13, 20
24, 18
24, 18
22, 12
7, 9
8, 15
14, 20
12, 16
21, 21
16, 18
18, 22
16, 18
21, 19
11, 23
19, 14
17, 24
16, 11
7, 14
11, 11
12, 16
10, 12
11, 11
8, 7
10, 9
17, 15
10, 14
19, 8
19, 22
24, 17
16, 30
26, 32
20, 33
30, 33
34, 30
23, 36
15, 23
8, 19
16, 18
19, 16
11, 13
18, 10
9, 14
4, 12
10, 17
11, 13
8, 20
13, 26
19, 23
19, 39
28, 48
33, 50
43, 34
36, 61
50, 44
46, 51
35, 42
30, 29
27, 28
23, 23
16, 25
12, 20
24, 16
24, 23
23, 35
46, 58
73, 104
133, 161
242, 328
431, 525
649, 781
866, 1182
1065, 1499
1435, 1664
1601, 1889
1647, 1921
1562, 1686
1323, 1415
1058, 1027
773, 749
533, 462
296, 332
194, 165
101, 104
57, 60
24, 24
31, 28
11, 18
13, 14
17, 24
16, 20
13, 22
25, 19
27, 29
28, 40
49, 64
56, 87
83, 124
129, 163
146, 229
241, 242
242, 242
258, 285
229, 282
246, 245
194, 213
170, 180
113, 111
82, 66
51, 45
32, 40
14, 22
11, 13
8, 10
10, 15
7, 6
7, 9
12, 12
10, 12
13, 14
16, 14
11, 15
9, 16
7, 18
11, 7
10, 9
5, 10
3, 9
2, 5
6, 8
3, 8
7, 5
6, 7
2, 4
9, 8
3, 6
9, 5
4, 3
9, 7
4, 4
8, 3
5, 7
6, 7
6, 8
0, 5
6, 6
8, 9
8, 13
5, 5
9, 6
5, 4
7, 4
8, 5
3, 15
2, 4
5, 9
8, 8
5, 8
6, 12
5, 8
5, 5
1, 6
6, 6
6, 3
8, 6
15, 12
9, 8
11, 6
14, 12
7, 8
12, 10
10, 10
13, 11
10, 13
3, 6
3, 8
13, 6
8, 6
4, 7
5, 9
5, 5
7, 2
6, 6
5, 11
5, 7
2, 7
4, 5
6, 4
1, 9
3, 8
6, 7
4, 3
2, 5
4, 1
3, 9
5, 5
3, 4
4, 7
3, 7
4, 1
1, 6
0, 9
5, 4
4, 6
6, 6
4, 7
2, 10
7, 7
5, 4
1, 7
4, 6
4, 7
9, 2
1, 4
8, 4
3, 7
4, 5
7, 5
4, 5
4, 5
6, 7
4, 4
2, 8
3, 5
4, 4
3, 7
6, 10
4, 2
2, 5
6, 4
3, 4
2, 3
7, 2
0, 8
4, 6
7, 3
4, 5
3, 4
8, 2
6, 2
2, 5
2, 3
2, 2
6, 4
6, 3
0, 3
2, 4
2, 6
2, 2
2, 2
3, 4
2, 4
3, 5
3, 6
2, 3
7, 1
3, 8
2, 2
1, 4
3, 6
8, 5
6, 4
5, 4
4, 3
5, 2
6, 1
2, 3
1, 3
3, 4
0, 2
1, 5
2, 4
3, 4
2, 4
2, 6
0, 4
4, 4
4, 5
1, 5
1, 3
2, 3
3, 2
4, 3
6, 5
3, 2
0, 2
2, 2
3, 3
0, 3
2, 3
2, 4
3, 3
2, 2
1, 2
2, 4
3, 4
2, 2
3, 2
0, 4
5, 1
2, 1
3, 2
2, 0
1, 3
0, 4
3, 1
3, 4
5, 3
2, 2
4, 3
3, 2
3, 3
6, 1
1, 2
2, 0
1, 1
2, 2
4, 3
2, 2
0, 3
0, 0
2, 6
0, 1
1, 3
4, 4
2, 1
1, 1
5, 2
2, 1
1, 2
1, 2
0, 3
1, 3
5, 3
1, 3
3, 2
3, 2
3, 3
1, 2
2, 7
5, 5
2, 3
0, 2
2, 5
2, 4
1, 3
2, 5
4, 1
2, 3
3, 3
0, 1
1, 1
1, 1
3, 1
3, 3
3, 2
2, 2
3, 2
0, 0
0, 2
3, 3
1, 1
1, 2
1, 1
2, 2
0, 0
1, 0
1, 1
3, 1
2, 3
0, 2
0, 1
1, 5
3, 0
1, 1
4, 1
3, 1
3, 2
0, 2
2, 3
2, 0
2, 3
3, 2
0, 0
0, 0
1, 1
2, 1
0, 1
1, 1
2, 3
2, 1
0, 0
1, 0
0, 1
1, 5
2, 0
1, 3
1, 2
2, 1
3, 2
1, 1
1, 0
0, 2
1, 3
2, 1
2, 2
0, 1
0, 0
1, 0
2, 2
1, 0
1, 1
1, 3
2, 0
1, 0
0, 1
0, 0
0, 2
1, 0
0, 0
1, 1
0, 0
2, 1
0, 0
0, 2
2, 1
0, 2
1, 0
1, 1
0, 0
1, 0
1, 1
0, 0
2, 1
0, 1
1, 2
0, 1
0, 1
0, 0
1, 0
1, 3
0, 0
0, 1
1, 1
0, 0
0, 0
1, 1
0, 0
2, 3
0, 2
1, 0
0, 2
0, 1
0, 0
1, 1
1, 0
0, 0
2, 1
1, 1
1, 0
2, 1
0, 1
1, 0
0, 1
0, 0
0, 0
1, 1
0, 1
0, 0
1, 0
0, 0
0, 1
2, 1
1, 0
0, 1
0, 2
0, 1
0, 2
0, 1
1, 0
0, 0
1, 1
0, 0
0, 1
0, 0
0, 1
0, 2
1, 0
0, 0
0, 0
1, 0
0, 1
1, 1
1, 0
0, 1
0, 0
2, 0
3, 0
0, 0
0, 1
0, 1
1, 0
2, 0
0, 0
0, 1
1, 0
0, 2
0, 0
0, 0
1, 0
0, 1
0, 0
0, 0
0, 0
0, 1
0, 2
0, 0
0, 2
0, 0
1, 1
0, 0
1, 1
1, 0
0, 0
0, 0
2, 1
0, 1
1, 0
1, 1
0, 1
0, 0
0, 0
0, 0
1, 0
0, 1
0, 0
0, 1
0, 0
0, 0
1, 1
0, 0
0, 0
0, 1
0, 0
1, 1
0, 1
1, 0
0, 1
1, 0
0, 0
0, 0
1, 0
0, 0
0, 0
0, 0
0, 0
0, 0
0, 0
0, 1
0, 2
0, 0
0, 1
1, 0
0, 0
0, 0
0, 0
0, 0
0, 0
0, 0
0, 0
0, 0
1, 0
0, 0
0, 0
0, 1
1, 0
1, 0
0, 0
1, 0
0, 1
0, 0
0, 0
1, 0
1, 1
0, 1
0, 0
0, 0
0, 0
1, 1
0, 0
1, 0
1, 0
0, 0
1, 0
1, 0
0, 0
0, 0
0, 0
0, 0
0, 0
0, 1
0, 0
0, 0
0, 0
0, 0
0, 0
0, 1
1, 0
0, 0
0, 1
0, 0
0, 0
0, 1
0, 1
1, 1
0, 0
0, 0
0, 0
0, 0
0, 1
0, 0
0, 0
0, 1
0, 0
0, 0
0, 0
0, 0
1, 0
0, 0
0, 0
0, 1
0, 1
0, 0
1, 0
0, 0
0, 0
2, 0
1, 1
0, 0
0, 1
0, 0
0, 0
0, 0
0, 0
0, 0
0, 1
0, 1
0, 0
1, 0
0, 0
0, 0
1, 0
0, 0
0, 0
0, 0
0, 0
0, 0
0, 0
0, 0
0, 1
0, 0
0, 1
0, 0
0, 0
0, 0
0, 0
0, 0
0, 0
0, 0
0, 0
0, 0
0, 0
0, 0
0, 1
0, 0
0, 0
0, 0
1, 0
0, 0
0, 0
0, 0
0, 0
0, 0
0, 0
0, 0
0, 0
0, 0
0, 0
0, 0
0, 0
0, 0
0, 0
0, 0
0, 0
0, 0
0, 0
0, 0
0, 0
0, 0
0, 0
0, 0
0, 0
0, 0
0, 0
0, 0
0, 0
0, 0
0, 0
0, 0
0, 0
1, 0
0, 0
0, 0
0, 0
0, 0
0, 0
0, 0
0, 0
0, 0
0, 0
0, 0
0, 1
0, 0
0, 0
0, 0
0, 0
0, 0
0, 0
0, 0
0, 0
0, 0
0, 0
0, 0
0, 0
0, 0
0, 0
0, 0
0, 0
0, 0
0, 0
0, 0
0, 0
1, 0
0, 0
0, 0
0, 0
0, 0
0, 0
0, 0
0, 0
0, 0
0, 0
0, 1
0, 0
0, 0
0, 0
0, 0
0, 0
0, 0
0, 0
0, 0
0, 0
0, 0
0, 0
0, 0
0, 0
0, 0
0, 0
0, 0
0, 0
0, 0
0, 0
0, 0
0, 0
0, 0
0, 0
0, 0
0, 0
0, 0
0, 0
0, 0
0, 0
0, 0
0, 0
0, 0
0, 0
0, 0
0, 0
0, 0
0, 0
0, 0
0, 0
0, 0
0, 0
0, 0
0, 0
0, 0
0, 0
0, 0
0, 0
0, 0
0, 0
0, 0
0, 0
0, 0
0, 0
0, 0
0, 0
0, 0
0, 0
0, 0
0, 0
0, 0
0, 0
0, 0
0, 0
0, 0
0, 0
0, 0
0, 0
0, 0
0, 0
0, 0
0, 0
0, 0
0, 0
0, 0
0, 0
0, 0
0, 0
0, 0
0, 0
0, 0
0, 0
0, 0
0, 0
0, 0
0, 0
0, 0
0, 0
0, 0
0, 0
0, 0
0, 0
0, 0
0, 0
0, 0
0, 0
0, 0
0, 0
0, 0
0, 0
0, 0
0, 0
0, 0
0, 0
0, 0
0, 0
0, 0
0, 0
0, 0
0, 0
0, 0
0, 0
0, 0
0, 0
0, 0
0, 0
0, 0
0, 0
0, 0
1, 0
0, 0
0, 0
0, 0
0, 0
0, 0
0, 0
0, 0
0, 0
0, 0
0, 0
0, 0
0, 0
0, 0
0, 0
0, 0
0, 0
0, 0
0, 0
0, 0
0, 0
0, 0
0, 0
0, 0
0, 0
0, 0
0, 0
0, 0
0, 0
0, 0
0, 0
0, 0
0, 0
0, 0
0, 0
0, 0
0, 0
0, 0
0, 0
0, 0
0, 0
0, 0
0, 0
0, 0
0, 0
0, 0
0, 0
0, 0
0, 0
0, 0
0, 0
0, 0
0, 0
0, 0
0, 0
0, 0
0, 0
0, 0
0, 0
0, 0
0, 0
0, 0
0, 0
0, 0
0, 0
0, 0
0, 0
0, 0
0, 0
0, 0
0, 0
0, 0
0, 0
0, 0
0, 0
0, 0
0, 0
0, 0
0, 0
0, 0
0, 0
0, 0
0, 0
0, 0
0, 0
0, 0
0, 0
0, 0
0, 0
0, 0
0, 0
0, 0
0, 0
0, 0
0, 0
0, 0
0, 0
0, 0
0, 0
0, 0
0, 0
0, 0
0, 0
0, 0
0, 0
0, 0
0, 0
0, 0
0, 0
0, 0
0, 0
0, 0
0, 0
0, 0
0, 0
0, 0
0, 0
0, 0
0, 0
0, 0
0, 0
0, 0
0, 0
0, 0
0, 0
0, 0
0, 0
0, 0
0, 0
0, 0
0, 0
0, 0
0, 0
0, 0
0, 0
0, 0
0, 0
0, 0
0, 0
0, 0
0, 0
0, 0
0, 0
0, 0
0, 0
0, 0
0, 0
0, 0
0, 0
0, 0
0, 0
0, 0
0, 0
0, 0
0, 0
0, 0
0, 0
0, 0
0, 0
0, 0
0, 0
0, 0
0, 0
0, 0
0, 0
0, 0
0, 0
0, 0
0, 0
0, 0
0, 0
0, 0
0, 0
0, 0
0, 0
0, 0
0, 0
0, 0
0, 0
0, 0
0, 0
0, 0
0, 0
0, 0
0, 0
0, 0
0, 0
0, 0
0, 0
0, 0
0, 0
0, 0
0, 0
0, 0
0, 0
0, 0
0, 0
0, 0
0, 0
0, 0
0, 0
0, 0
0, 0
0, 0
0, 0
0, 0
0, 0
0, 0
0, 0
0, 0
0, 0
0, 0
0, 0
0, 0
0, 0
0, 0
0, 0
0, 0
0, 0
0, 0
0, 0
0, 0
0, 0
0, 0
0, 0
0, 0
0, 0
0, 0
0, 0
0, 0
0, 0
0, 0
0, 0
0, 0
0, 0
0, 0
0, 0
0, 0
0, 0
0, 0
0, 0
0, 0
0, 0
0, 0
0, 0
0, 0
0, 0
0, 0
0, 0
0, 0
0, 0
0, 0
0, 0
0, 0
0, 0
0, 0
0, 0
0, 0
0, 0
0, 0
0, 0
0, 0
0, 0
0, 0
0, 0
0, 0
0, 0
0, 0
0, 0
0, 0
0, 0
0, 0
0, 0
0, 0
0, 0
0, 0
0, 0
0, 0
0, 0
0, 0
0, 0
0, 0
0, 0
0, 0
0, 0
0, 0
0, 0
0, 0
0, 0
0, 0
0, 0
0, 0
0, 0
0, 0
0, 0
0, 0
0, 0
0, 0
#ENDOFDATA     end of spectrum data