File: host_upload/02-11-2024/rqc/uplink1/ps__0567_0717304816_000rfs_shot_459.msa
#FORMAT      : EMSA/MAS spectral data file
#VERSION     : TC202v2.0 PIXL
#TITLE       : Novarupta (sol567) subset1
#DATE        : 02-11-2024      Date in the format DD-MMM-YYYY, for example 07-JUL-2010
#TIME        :             The time of day at which the spectrum was recorded, in 24-hour format
#OWNER       : PIXL Flight Model       (PIXL will use this to indicate which instrument took the data.)
#NPOINTS     : 4096     Number of data points in the spectrum (This can be zero for configuration only files)
#NCOLUMNS    : 2     Number of data columns in the spectrum (This can be zero for configuration only files)
#XUNITS      : eV
#YUNITS      : COUNTS
#DATATYPE    : YY
#XPERCHAN    : 7.862, 7.881   eV per channel (separate by commas if more than one detector)
#OFFSET      : 18.5, -22.4         eV of first channel  (separate by commas if more than one detector
#SIGNALTYPE  : XRF
#YP_TEMP     : 2.171
#LIVETIME    : 8.82531, 8.81717   seconds (separate by commas if more than one detector)
#REALTIME    : 10, 10.0   seconds (separate by commas if more than one detector)
#SPECTRUM    : start of spectrum data
0, 0
0, 0
0, 0
0, 0
0, 0
0, 0
0, 0
0, 0
0, 0
0, 0
0, 0
0, 0
0, 0
0, 0
0, 0
0, 0
0, 0
0, 0
0, 0
0, 0
0, 0
0, 0
0, 0
0, 0
0, 0
0, 0
0, 0
0, 0
0, 0
0, 0
0, 0
1, 1
0, 0
1, 0
0, 2
0, 2
3, 2
0, 5
5, 3
3, 6
3, 1
7, 2
3, 1
5, 2
4, 7
2, 5
3, 1
5, 2
6, 5
5, 6
7, 9
5, 8
10, 11
13, 11
20, 14
15, 11
15, 22
12, 5
8, 9
14, 9
10, 24
31, 21
30, 33
35, 44
45, 43
38, 63
35, 41
29, 33
48, 53
46, 71
116, 109
160, 198
278, 289
382, 403
419, 447
436, 512
426, 430
296, 335
214, 204
124, 124
82, 75
56, 51
31, 46
32, 24
36, 35
25, 31
39, 39
33, 35
28, 24
20, 16
19, 21
26, 20
21, 24
54, 56
89, 112
151, 185
273, 261
348, 346
349, 419
375, 399
322, 390
293, 272
176, 199
107, 134
81, 91
60, 67
60, 68
70, 64
74, 90
110, 126
179, 189
155, 191
226, 228
196, 249
173, 174
160, 171
130, 134
100, 109
71, 96
78, 76
62, 80
75, 79
64, 82
52, 44
63, 44
41, 43
29, 24
16, 18
14, 23
15, 10
17, 14
10, 11
6, 4
9, 9
6, 7
8, 9
8, 10
13, 17
18, 18
23, 26
27, 28
37, 32
24, 29
28, 14
22, 21
14, 21
12, 15
11, 5
9, 14
12, 14
28, 33
42, 60
90, 74
124, 173
194, 243
291, 296
321, 355
350, 398
325, 422
308, 291
258, 260
172, 187
101, 122
57, 59
42, 43
27, 25
33, 29
33, 32
51, 51
64, 57
52, 54
61, 66
53, 59
47, 66
46, 39
31, 37
21, 16
10, 14
17, 11
5, 10
4, 8
10, 10
8, 6
8, 7
10, 11
9, 7
13, 16
27, 20
33, 26
40, 44
55, 41
62, 54
57, 73
57, 53
49, 50
37, 53
47, 35
21, 35
15, 20
18, 18
12, 21
20, 14
9, 10
11, 10
9, 15
15, 15
11, 18
16, 22
15, 18
26, 20
20, 17
22, 17
22, 16
21, 27
14, 21
7, 16
6, 15
13, 12
4, 7
6, 12
9, 11
10, 5
12, 12
12, 14
19, 18
16, 21
20, 15
22, 23
25, 33
26, 39
31, 30
30, 49
25, 25
22, 25
25, 21
15, 13
15, 19
10, 13
11, 13
6, 11
16, 14
10, 19
8, 12
13, 18
19, 13
15, 33
38, 30
28, 39
49, 42
42, 46
34, 56
46, 52
45, 60
43, 43
31, 35
28, 30
23, 17
28, 19
11, 20
13, 19
17, 24
23, 35
28, 47
83, 90
119, 129
210, 268
350, 462
583, 732
787, 1072
1173, 1406
1426, 1762
1716, 1864
1788, 1870
1685, 1754
1461, 1491
1258, 1131
873, 837
606, 544
391, 320
214, 190
138, 112
66, 56
31, 30
15, 17
28, 20
14, 17
13, 15
17, 22
21, 18
14, 20
22, 29
32, 31
44, 48
50, 66
63, 90
104, 134
155, 193
208, 218
235, 263
238, 281
268, 288
269, 270
209, 232
198, 174
137, 114
89, 76
61, 54
41, 34
25, 15
18, 16
10, 12
12, 11
8, 10
14, 6
9, 4
7, 12
18, 11
7, 9
12, 12
9, 11
11, 15
8, 8
6, 10
8, 11
10, 9
9, 4
6, 8
2, 4
5, 8
9, 4
6, 3
6, 2
1, 3
5, 7
1, 9
10, 10
6, 4
3, 3
4, 7
4, 5
5, 8
10, 3
3, 8
10, 9
9, 6
7, 7
5, 13
10, 3
8, 4
10, 11
8, 4
6, 5
5, 6
10, 12
6, 2
6, 6
4, 2
7, 3
2, 7
8, 7
5, 5
9, 9
9, 6
11, 6
5, 9
8, 7
13, 11
10, 6
12, 7
11, 14
2, 11
9, 6
8, 7
9, 4
6, 6
4, 3
7, 7
7, 7
2, 3
9, 3
4, 5
4, 4
4, 8
4, 6
6, 7
4, 8
4, 6
3, 8
4, 5
4, 4
4, 8
6, 10
4, 6
5, 4
4, 9
3, 6
5, 3
6, 9
3, 3
5, 1
6, 8
5, 3
3, 5
2, 3
4, 6
5, 9
6, 2
5, 4
3, 7
7, 1
2, 2
6, 4
6, 5
3, 2
1, 4
2, 1
2, 4
8, 7
2, 4
6, 3
5, 4
7, 5
3, 7
6, 4
5, 6
3, 4
6, 6
4, 5
8, 6
1, 5
4, 6
6, 4
5, 4
5, 2
2, 0
7, 0
5, 8
2, 2
1, 4
3, 4
2, 1
4, 4
5, 4
3, 3
4, 6
3, 3
5, 3
5, 2
3, 2
0, 5
1, 4
3, 10
3, 7
5, 2
2, 2
2, 4
4, 3
3, 5
5, 3
5, 2
4, 4
1, 2
2, 4
2, 1
4, 3
1, 1
4, 0
3, 2
5, 4
1, 1
3, 3
4, 2
1, 5
2, 2
2, 1
3, 2
4, 1
4, 5
2, 3
3, 3
1, 4
0, 4
0, 3
1, 2
4, 3
5, 3
0, 2
2, 2
2, 2
4, 1
4, 4
2, 1
4, 2
4, 3
5, 3
0, 2
5, 2
1, 5
1, 3
0, 2
6, 2
0, 2
2, 0
5, 2
1, 2
5, 1
4, 3
1, 1
1, 1
2, 3
2, 6
6, 1
0, 2
2, 3
5, 1
1, 2
0, 2
1, 5
3, 2
2, 1
3, 2
3, 2
1, 1
1, 5
2, 2
2, 2
3, 2
5, 3
1, 0
2, 0
1, 2
3, 3
0, 0
3, 4
3, 4
1, 2
1, 4
3, 4
4, 2
1, 3
5, 3
4, 3
3, 5
2, 4
1, 4
1, 3
5, 2
6, 2
3, 1
0, 3
0, 3
0, 3
1, 2
1, 2
1, 0
1, 2
0, 0
0, 2
0, 2
1, 1
3, 1
1, 3
0, 2
3, 0
1, 2
2, 5
0, 3
0, 2
0, 3
2, 0
0, 1
0, 1
0, 2
4, 2
1, 2
0, 1
2, 0
0, 2
1, 3
1, 2
1, 0
0, 2
1, 0
1, 1
0, 2
1, 0
2, 0
1, 0
0, 3
1, 0
2, 0
1, 2
0, 1
3, 3
2, 3
0, 2
0, 1
0, 0
1, 0
0, 2
0, 0
1, 0
2, 1
4, 2
0, 2
0, 2
2, 0
1, 0
2, 0
1, 0
1, 2
0, 2
0, 0
2, 0
0, 1
0, 2
0, 1
1, 2
1, 2
2, 0
2, 2
1, 0
1, 0
1, 1
1, 1
1, 1
1, 1
0, 2
0, 1
1, 0
0, 0
1, 1
0, 1
0, 1
1, 1
0, 2
0, 1
1, 0
0, 1
2, 1
1, 0
1, 0
2, 0
0, 0
0, 1
2, 1
0, 0
0, 0
3, 1
0, 0
2, 1
0, 1
1, 1
1, 1
0, 0
0, 2
1, 0
1, 1
0, 0
0, 1
1, 1
0, 1
0, 0
0, 1
0, 0
0, 0
0, 1
2, 1
1, 0
2, 1
0, 0
0, 1
0, 0
0, 0
0, 1
0, 0
0, 1
0, 0
1, 2
1, 1
0, 0
0, 0
0, 2
0, 0
0, 0
0, 0
0, 0
0, 2
1, 1
0, 0
2, 0
1, 0
0, 0
2, 1
0, 1
1, 1
1, 1
0, 0
1, 0
0, 0
1, 0
0, 0
1, 0
1, 0
0, 0
3, 0
0, 0
0, 0
0, 0
1, 1
0, 1
0, 0
0, 1
0, 0
0, 1
0, 2
0, 1
0, 0
0, 0
0, 0
0, 0
2, 0
0, 1
0, 0
0, 0
0, 1
0, 0
1, 0
1, 0
0, 0
0, 0
1, 0
0, 1
0, 0
0, 0
2, 0
0, 0
0, 0
0, 1
0, 0
0, 0
0, 1
1, 0
1, 0
0, 2
0, 0
0, 0
0, 0
1, 0
0, 0
0, 0
0, 0
0, 0
0, 1
1, 0
0, 0
0, 0
1, 0
0, 1
1, 0
0, 0
0, 0
0, 0
0, 0
2, 0
0, 0
0, 0
1, 1
0, 0
0, 2
0, 1
0, 0
1, 0
0, 1
0, 0
0, 1
1, 0
0, 0
2, 1
0, 0
0, 0
0, 0
0, 0
0, 1
0, 0
1, 0
0, 0
0, 0
0, 1
0, 0
0, 0
0, 0
0, 0
0, 0
0, 0
1, 1
0, 0
1, 1
0, 1
0, 0
1, 0
0, 0
1, 0
0, 0
0, 1
0, 0
0, 0
0, 0
1, 1
1, 1
0, 0
0, 0
0, 1
0, 0
0, 1
0, 1
0, 0
0, 0
0, 0
0, 0
0, 0
0, 0
0, 0
0, 0
0, 0
0, 0
0, 0
0, 0
0, 0
0, 1
0, 0
0, 0
0, 0
0, 0
0, 0
0, 0
0, 0
0, 0
0, 0
0, 1
1, 0
0, 0
0, 0
0, 2
0, 0
0, 0
0, 0
0, 0
0, 0
0, 0
0, 0
0, 0
0, 0
1, 0
0, 1
1, 1
0, 0
1, 0
0, 0
0, 0
0, 0
0, 0
0, 0
0, 0
0, 0
0, 0
0, 0
0, 0
0, 1
0, 0
0, 0
0, 0
0, 0
0, 1
0, 0
0, 0
0, 2
0, 0
0, 1
0, 0
0, 0
0, 1
0, 1
1, 0
0, 0
0, 0
0, 0
0, 0
0, 0
0, 0
0, 0
0, 0
0, 0
0, 0
0, 1
0, 0
0, 0
1, 0
0, 0
0, 0
0, 0
0, 0
0, 0
0, 0
0, 0
0, 1
0, 0
0, 0
0, 0
0, 0
0, 0
0, 0
0, 0
0, 0
0, 0
0, 0
0, 0
0, 0
0, 0
0, 0
0, 0
0, 0
0, 1
0, 0
0, 0
0, 0
0, 1
0, 0
0, 0
0, 0
0, 0
0, 0
0, 0
0, 0
0, 0
0, 0
0, 0
0, 0
0, 0
0, 0
0, 0
0, 0
0, 0
0, 0
0, 0
0, 0
0, 0
0, 0
0, 0
1, 0
0, 0
0, 0
0, 0
0, 0
0, 0
0, 0
0, 0
0, 0
0, 0
0, 0
0, 0
0, 0
0, 0
0, 0
0, 0
0, 0
0, 1
0, 0
0, 0
0, 0
0, 0
0, 0
0, 0
0, 0
0, 0
0, 0
0, 0
0, 0
0, 0
0, 0
0, 0
0, 0
0, 0
0, 0
0, 0
0, 0
0, 1
0, 0
0, 0
0, 0
0, 0
0, 0
0, 0
0, 0
0, 0
0, 0
0, 0
0, 0
0, 0
0, 0
0, 0
0, 0
0, 0
0, 0
0, 0
0, 0
0, 0
0, 0
0, 0
0, 0
0, 0
0, 0
0, 0
0, 0
0, 0
0, 0
0, 0
0, 0
0, 0
0, 0
0, 0
0, 0
0, 0
0, 0
0, 0
0, 0
0, 0
0, 0
0, 0
0, 0
0, 0
0, 0
0, 0
0, 0
0, 0
0, 0
0, 0
0, 0
0, 0
0, 0
0, 0
0, 0
0, 0
0, 0
0, 0
0, 0
0, 0
0, 0
0, 0
1, 0
0, 0
0, 0
0, 0
0, 0
0, 0
0, 0
0, 0
0, 0
0, 0
0, 0
0, 0
0, 0
0, 0
0, 0
0, 0
0, 0
0, 0
0, 0
0, 0
0, 0
0, 0
0, 0
0, 0
0, 0
0, 0
0, 0
0, 0
0, 0
0, 0
0, 0
0, 0
0, 0
0, 0
0, 0
0, 0
0, 0
0, 0
1, 0
0, 0
0, 0
0, 0
0, 0
0, 0
0, 0
0, 0
0, 0
0, 0
0, 0
0, 0
0, 0
0, 0
0, 0
0, 0
0, 0
0, 0
0, 0
0, 0
0, 0
0, 0
0, 0
0, 0
0, 0
0, 0
0, 0
1, 0
0, 0
0, 0
0, 0
0, 0
0, 0
0, 0
0, 0
0, 0
0, 0
0, 0
0, 0
0, 0
0, 0
0, 0
0, 0
0, 0
0, 0
0, 0
0, 0
0, 0
0, 0
0, 0
0, 0
0, 0
0, 0
0, 0
0, 0
0, 0
0, 0
0, 0
0, 0
0, 0
0, 0
0, 0
0, 0
0, 0
0, 0
0, 0
0, 0
0, 0
0, 0
0, 0
0, 0
0, 0
0, 0
0, 0
0, 0
0, 0
0, 0
0, 0
0, 0
0, 0
0, 0
0, 0
0, 0
0, 0
0, 0
0, 0
0, 0
0, 0
0, 0
0, 0
0, 0
0, 0
0, 0
0, 0
0, 0
0, 0
0, 0
0, 0
0, 0
0, 0
0, 0
0, 0
0, 0
0, 0
0, 0
0, 0
0, 0
0, 0
0, 0
0, 0
0, 0
0, 0
0, 0
0, 0
0, 0
0, 0
0, 0
0, 0
0, 0
0, 0
0, 0
0, 0
0, 0
0, 0
0, 0
0, 0
0, 0
0, 0
0, 0
0, 0
0, 0
0, 0
0, 0
0, 0
0, 0
0, 0
0, 0
0, 0
0, 0
0, 0
0, 0
0, 0
0, 0
0, 0
0, 0
0, 0
0, 0
0, 0
0, 0
0, 0
0, 0
0, 0
0, 0
0, 0
0, 0
0, 0
0, 0
0, 0
0, 0
0, 0
0, 0
0, 0
0, 0
0, 0
0, 0
0, 0
0, 0
0, 0
0, 0
0, 0
0, 0
0, 0
0, 0
0, 0
0, 0
0, 0
0, 0
0, 0
0, 0
0, 0
0, 0
0, 0
0, 0
0, 0
0, 0
0, 0
0, 0
0, 0
0, 0
0, 0
0, 0
0, 0
0, 0
0, 0
0, 0
0, 0
0, 0
0, 0
0, 0
0, 0
0, 0
0, 0
0, 0
0, 0
0, 0
0, 0
0, 0
0, 0
0, 0
0, 0
0, 0
0, 0
0, 0
0, 0
0, 0
0, 0
0, 0
0, 0
0, 0
0, 0
0, 0
0, 0
0, 0
0, 0
0, 0
0, 0
0, 0
0, 0
0, 0
0, 0
0, 0
0, 0
0, 0
0, 0
0, 0
0, 0
0, 0
0, 0
0, 0
0, 0
0, 0
0, 0
0, 0
0, 0
0, 0
0, 0
0, 0
0, 0
0, 0
0, 0
0, 0
0, 0
0, 0
0, 0
0, 0
0, 0
0, 0
0, 0
0, 0
0, 0
0, 0
0, 0
0, 0
0, 0
0, 0
0, 0
0, 0
0, 0
0, 0
0, 0
0, 0
0, 0
0, 0
0, 0
0, 0
0, 0
0, 0
0, 0
0, 0
#ENDOFDATA     end of spectrum data