File: host_upload/02-11-2024/rqc/uplink1/ps__0567_0717304816_000rfs_shot_137.msa
#FORMAT      : EMSA/MAS spectral data file
#VERSION     : TC202v2.0 PIXL
#TITLE       : Novarupta (sol567) subset1
#DATE        : 02-11-2024      Date in the format DD-MMM-YYYY, for example 07-JUL-2010
#TIME        :             The time of day at which the spectrum was recorded, in 24-hour format
#OWNER       : PIXL Flight Model       (PIXL will use this to indicate which instrument took the data.)
#NPOINTS     : 4096     Number of data points in the spectrum (This can be zero for configuration only files)
#NCOLUMNS    : 2     Number of data columns in the spectrum (This can be zero for configuration only files)
#XUNITS      : eV
#YUNITS      : COUNTS
#DATATYPE    : YY
#XPERCHAN    : 7.862, 7.881   eV per channel (separate by commas if more than one detector)
#OFFSET      : 18.5, -22.4         eV of first channel  (separate by commas if more than one detector
#SIGNALTYPE  : XRF
#YP_TEMP     : -0.266
#LIVETIME    : 8.83878, 8.82197   seconds (separate by commas if more than one detector)
#REALTIME    : 10, 10.0   seconds (separate by commas if more than one detector)
#SPECTRUM    : start of spectrum data
0, 0
0, 0
0, 0
0, 0
0, 0
0, 0
0, 0
0, 0
0, 0
0, 0
0, 0
0, 0
0, 0
0, 0
0, 0
0, 0
0, 0
0, 0
0, 0
0, 0
0, 0
0, 0
0, 0
0, 0
0, 0
0, 0
0, 0
0, 0
0, 0
0, 0
0, 0
1, 1
0, 0
0, 1
0, 0
0, 1
2, 3
5, 2
2, 3
3, 9
6, 7
2, 7
4, 5
4, 4
4, 2
4, 2
5, 2
5, 4
3, 2
3, 3
5, 7
7, 10
17, 8
22, 17
10, 16
14, 13
14, 16
11, 13
8, 9
11, 15
16, 17
31, 20
46, 36
38, 42
50, 66
43, 55
39, 34
29, 39
42, 50
61, 74
95, 127
178, 225
302, 371
388, 473
471, 538
451, 515
446, 471
297, 327
215, 224
135, 113
68, 70
46, 53
30, 27
26, 36
29, 37
36, 33
39, 34
30, 36
30, 28
22, 21
5, 13
14, 20
29, 24
40, 50
86, 84
129, 153
207, 211
225, 279
279, 324
278, 313
261, 249
194, 192
142, 142
101, 79
69, 59
60, 49
59, 56
73, 78
92, 90
138, 160
168, 178
211, 238
224, 234
201, 228
174, 209
175, 149
125, 138
105, 87
90, 118
91, 79
66, 80
86, 84
70, 76
55, 56
47, 54
36, 32
32, 24
17, 26
19, 20
9, 17
9, 7
13, 9
8, 4
6, 7
6, 8
8, 8
12, 12
6, 20
14, 25
20, 29
19, 34
34, 36
34, 25
30, 27
24, 19
13, 19
12, 9
12, 9
12, 12
14, 26
34, 35
62, 63
100, 108
156, 228
205, 245
266, 328
342, 375
339, 384
320, 367
300, 309
248, 207
154, 154
106, 96
55, 60
38, 39
31, 24
19, 31
36, 35
38, 44
50, 65
48, 58
48, 74
65, 54
45, 45
37, 43
34, 22
7, 21
11, 14
5, 11
12, 11
11, 7
10, 8
12, 12
10, 16
18, 15
17, 15
19, 18
35, 35
29, 34
43, 47
38, 55
57, 75
64, 56
56, 55
44, 36
48, 49
39, 33
29, 28
17, 22
13, 17
20, 14
21, 16
14, 16
9, 15
9, 11
9, 13
6, 16
16, 16
13, 28
17, 15
19, 23
16, 13
17, 19
15, 9
12, 11
9, 17
17, 8
7, 17
12, 17
11, 10
10, 14
11, 13
6, 15
13, 15
20, 16
22, 18
25, 18
27, 25
25, 23
23, 29
36, 34
28, 35
25, 26
14, 21
19, 18
15, 17
23, 12
13, 15
12, 8
14, 16
10, 13
11, 14
9, 18
10, 11
12, 23
31, 21
22, 25
32, 39
35, 41
44, 57
56, 49
44, 51
47, 55
35, 44
39, 34
28, 28
30, 29
18, 24
22, 23
13, 24
24, 32
30, 43
49, 64
80, 98
132, 163
244, 304
383, 566
630, 787
927, 1129
1215, 1450
1489, 1689
1661, 1876
1666, 1769
1597, 1683
1337, 1347
1068, 1102
834, 759
522, 451
334, 296
197, 167
105, 88
54, 52
41, 29
17, 29
13, 17
13, 21
13, 11
19, 21
13, 18
23, 17
18, 26
33, 39
40, 52
45, 80
82, 98
125, 161
163, 183
209, 270
233, 314
239, 282
258, 280
243, 262
199, 194
148, 143
154, 114
90, 72
51, 36
48, 27
22, 17
14, 13
8, 12
9, 3
8, 8
10, 11
8, 11
12, 6
17, 18
18, 17
10, 17
9, 13
7, 11
1, 8
8, 8
7, 6
9, 5
5, 4
2, 7
5, 9
6, 4
7, 6
5, 12
5, 7
6, 8
4, 5
5, 9
5, 6
4, 10
10, 6
9, 4
8, 6
10, 7
5, 6
9, 9
3, 9
7, 5
7, 7
7, 6
10, 7
6, 9
4, 7
6, 7
5, 5
3, 1
7, 7
5, 10
3, 3
8, 4
8, 4
7, 7
5, 6
9, 6
11, 4
7, 13
10, 12
13, 8
7, 6
13, 12
11, 11
12, 14
8, 8
11, 12
8, 8
9, 8
4, 3
6, 7
8, 7
7, 5
3, 3
9, 2
3, 2
8, 6
3, 4
2, 9
9, 3
10, 6
1, 2
4, 8
8, 8
5, 2
4, 3
6, 3
3, 6
6, 5
7, 7
7, 7
4, 5
6, 6
7, 5
7, 8
9, 4
5, 2
4, 4
4, 4
2, 9
5, 5
5, 4
7, 3
3, 4
4, 5
4, 4
5, 5
3, 4
4, 3
6, 6
5, 5
3, 2
4, 5
5, 4
6, 1
8, 2
3, 4
7, 5
3, 7
2, 0
2, 6
3, 5
3, 5
8, 6
4, 8
5, 3
5, 3
4, 5
2, 4
3, 2
3, 4
2, 9
0, 4
1, 5
2, 5
5, 8
6, 1
3, 2
2, 1
2, 2
5, 2
1, 3
6, 5
3, 6
4, 1
5, 5
3, 4
4, 4
3, 4
2, 7
4, 1
5, 4
7, 4
3, 4
2, 3
2, 3
1, 7
4, 2
1, 5
2, 0
3, 6
8, 5
4, 7
4, 5
4, 4
1, 2
1, 3
0, 7
1, 2
6, 3
3, 3
2, 1
4, 1
1, 2
2, 2
3, 5
4, 1
3, 3
5, 4
5, 1
2, 7
3, 2
2, 2
1, 2
2, 0
2, 5
4, 2
2, 4
3, 2
3, 3
5, 1
2, 3
0, 5
2, 3
5, 0
3, 3
0, 2
1, 1
8, 3
2, 3
2, 3
5, 3
3, 4
3, 3
5, 2
2, 1
3, 3
5, 2
0, 3
4, 3
0, 0
1, 2
0, 0
3, 0
2, 7
4, 2
2, 1
0, 0
2, 4
1, 1
5, 0
3, 3
3, 3
4, 1
4, 5
1, 2
0, 2
0, 2
2, 3
2, 3
2, 1
2, 4
2, 1
4, 3
3, 2
4, 1
4, 2
3, 5
4, 1
2, 4
2, 2
5, 3
3, 2
2, 0
3, 1
0, 3
1, 1
0, 1
0, 4
1, 1
1, 4
1, 0
1, 3
0, 0
1, 2
2, 0
1, 1
1, 1
2, 2
1, 5
2, 3
0, 1
2, 1
0, 2
3, 2
2, 3
0, 0
2, 4
0, 2
1, 5
3, 3
5, 2
1, 2
1, 4
0, 2
0, 1
2, 0
2, 2
2, 0
2, 0
0, 1
1, 2
1, 1
1, 4
0, 1
2, 1
1, 0
0, 1
3, 1
1, 2
2, 0
0, 1
0, 0
1, 2
0, 0
0, 2
0, 0
1, 1
0, 1
1, 0
2, 1
3, 0
0, 0
0, 0
0, 0
1, 1
0, 1
1, 4
1, 1
0, 2
1, 1
2, 0
1, 1
1, 2
0, 1
0, 1
1, 1
0, 0
1, 0
0, 2
1, 1
1, 3
0, 2
0, 1
0, 1
0, 3
0, 1
0, 3
1, 0
1, 2
1, 0
0, 0
0, 0
0, 0
1, 0
0, 1
0, 0
1, 1
0, 1
0, 0
1, 0
1, 1
0, 1
0, 0
1, 0
2, 1
0, 0
1, 1
0, 2
0, 2
0, 1
0, 0
1, 1
1, 0
1, 2
2, 1
0, 1
0, 1
0, 0
2, 0
1, 1
0, 1
1, 0
0, 1
0, 0
0, 2
1, 2
0, 0
0, 1
1, 1
3, 1
0, 0
1, 0
0, 1
1, 0
0, 0
2, 0
0, 0
0, 0
0, 0
0, 1
1, 2
0, 0
1, 1
0, 0
0, 0
0, 0
1, 2
0, 0
0, 0
1, 0
0, 3
0, 0
0, 0
0, 0
1, 1
1, 1
1, 1
0, 0
0, 1
0, 1
1, 0
0, 0
3, 1
0, 0
0, 0
0, 0
0, 0
0, 0
1, 0
0, 0
0, 1
0, 2
0, 0
0, 1
0, 0
0, 0
0, 0
0, 0
2, 0
0, 0
0, 0
1, 1
0, 0
0, 0
0, 0
0, 0
1, 0
0, 1
0, 0
1, 0
0, 1
0, 0
3, 1
0, 0
0, 0
0, 0
0, 0
0, 0
0, 0
0, 0
0, 0
0, 0
1, 0
0, 1
0, 0
1, 0
0, 0
1, 1
0, 0
0, 0
1, 0
0, 0
0, 0
0, 0
0, 1
0, 0
0, 1
0, 1
0, 0
0, 0
0, 1
0, 0
0, 0
0, 0
0, 0
0, 0
1, 0
0, 0
0, 0
1, 0
0, 2
0, 0
0, 1
0, 0
0, 1
0, 1
0, 0
2, 0
2, 0
0, 0
1, 1
2, 0
0, 0
0, 0
0, 0
0, 0
0, 0
0, 0
0, 0
1, 0
0, 0
0, 0
0, 0
0, 0
0, 0
0, 0
1, 0
0, 0
0, 0
2, 1
0, 0
0, 2
1, 0
0, 0
0, 0
0, 0
0, 0
1, 0
0, 0
0, 0
0, 0
0, 0
0, 0
0, 1
0, 0
0, 0
0, 0
0, 0
0, 0
0, 0
0, 0
0, 0
0, 0
0, 0
0, 0
0, 0
0, 0
0, 0
0, 0
0, 0
0, 0
0, 0
0, 0
0, 0
0, 1
0, 0
0, 0
0, 0
0, 1
0, 0
0, 0
0, 1
1, 0
0, 0
0, 0
0, 1
0, 0
0, 0
0, 0
0, 1
0, 1
0, 0
0, 0
0, 0
0, 0
0, 0
0, 0
1, 0
0, 0
0, 0
0, 0
0, 0
0, 0
0, 0
0, 0
0, 0
0, 0
0, 0
0, 0
0, 0
0, 0
0, 0
1, 0
0, 0
0, 0
0, 0
1, 0
0, 0
0, 0
0, 0
0, 0
0, 0
0, 0
0, 0
1, 0
0, 0
0, 0
0, 0
0, 0
0, 0
0, 0
1, 0
0, 0
0, 0
0, 0
0, 0
0, 0
0, 0
0, 0
0, 0
0, 0
0, 0
0, 0
0, 0
0, 0
0, 0
0, 0
0, 0
0, 0
0, 0
0, 0
1, 0
0, 0
0, 0
0, 0
0, 0
0, 0
0, 0
0, 0
0, 0
0, 0
0, 0
0, 0
0, 0
0, 0
0, 0
0, 0
0, 0
0, 0
0, 0
0, 0
0, 0
0, 0
0, 0
0, 0
0, 0
0, 0
0, 1
0, 0
0, 0
0, 0
0, 0
0, 0
0, 0
0, 0
0, 0
0, 0
0, 0
0, 0
0, 0
0, 0
0, 0
1, 0
0, 0
0, 0
0, 0
0, 0
0, 0
0, 0
0, 0
0, 0
0, 0
0, 0
0, 0
0, 0
0, 0
0, 0
1, 0
0, 0
0, 0
1, 0
0, 0
0, 0
0, 0
0, 0
0, 0
0, 0
0, 0
0, 0
0, 0
0, 0
0, 0
0, 0
0, 0
0, 0
0, 0
0, 0
0, 0
0, 0
0, 0
0, 0
0, 0
0, 0
0, 0
0, 0
0, 0
0, 0
0, 0
0, 0
0, 0
0, 0
0, 0
0, 0
0, 0
0, 0
0, 0
0, 0
0, 0
0, 0
0, 0
0, 0
0, 0
0, 0
0, 0
0, 0
0, 0
0, 0
0, 0
0, 0
0, 0
0, 0
0, 0
0, 0
0, 0
0, 0
0, 0
0, 0
0, 0
0, 0
0, 0
0, 0
0, 0
0, 0
0, 0
0, 0
0, 0
0, 0
0, 0
0, 0
0, 0
0, 0
0, 0
0, 0
0, 0
0, 0
0, 0
0, 0
0, 0
0, 0
0, 0
0, 0
0, 0
0, 0
0, 0
0, 0
0, 0
0, 0
0, 0
0, 0
0, 0
0, 0
0, 0
0, 0
0, 0
0, 0
0, 0
0, 0
0, 0
0, 0
0, 0
0, 0
0, 0
0, 0
0, 0
0, 0
0, 0
0, 0
0, 0
0, 0
0, 0
0, 0
0, 0
0, 0
0, 0
0, 0
0, 0
0, 0
0, 0
0, 0
0, 0
0, 0
0, 0
0, 0
0, 0
0, 0
0, 0
0, 0
0, 0
0, 0
0, 0
0, 0
0, 0
0, 0
0, 0
0, 0
0, 0
0, 0
0, 0
0, 0
0, 0
0, 0
0, 0
0, 0
0, 0
0, 0
0, 0
0, 0
0, 0
0, 0
0, 0
0, 1
0, 0
0, 0
0, 0
0, 0
0, 0
0, 0
0, 0
0, 0
0, 0
0, 0
0, 0
0, 0
0, 0
0, 0
0, 0
0, 0
0, 0
0, 0
0, 0
0, 0
0, 0
0, 0
0, 0
0, 0
0, 0
0, 0
0, 0
0, 0
0, 0
0, 0
0, 0
0, 0
0, 0
0, 0
0, 0
0, 0
0, 0
0, 0
0, 0
0, 0
0, 0
0, 0
0, 0
0, 0
0, 0
0, 0
0, 0
0, 0
0, 0
0, 0
0, 0
0, 0
0, 0
0, 0
0, 0
0, 0
0, 0
0, 0
0, 0
0, 0
0, 0
0, 0
0, 0
0, 0
0, 0
0, 0
0, 0
0, 0
0, 0
0, 0
0, 0
0, 0
0, 0
0, 0
0, 0
0, 0
0, 0
0, 0
0, 0
0, 0
0, 0
0, 0
0, 0
0, 0
0, 0
0, 0
0, 0
0, 0
0, 0
0, 0
0, 0
0, 0
0, 0
0, 0
0, 0
0, 0
0, 0
0, 0
0, 0
0, 0
0, 0
0, 0
0, 0
0, 0
0, 0
0, 0
0, 0
0, 0
0, 0
0, 0
0, 0
0, 0
0, 0
0, 0
0, 0
0, 0
0, 0
0, 0
0, 0
0, 0
0, 0
0, 0
0, 0
0, 0
0, 0
0, 0
0, 0
0, 0
0, 0
0, 0
0, 0
0, 0
0, 0
0, 0
0, 0
0, 0
0, 0
0, 0
0, 0
0, 0
0, 0
0, 0
0, 0
0, 0
0, 0
0, 0
0, 0
0, 0
0, 0
0, 0
0, 0
0, 0
0, 0
0, 0
0, 0
0, 0
0, 0
0, 0
0, 0
0, 0
0, 0
0, 0
0, 0
0, 0
0, 0
0, 0
0, 0
0, 0
0, 0
0, 0
0, 0
0, 0
0, 0
0, 0
0, 0
0, 0
0, 0
0, 0
0, 0
0, 0
0, 0
0, 0
0, 0
0, 0
0, 0
0, 0
0, 0
0, 0
0, 0
0, 0
0, 0
0, 0
0, 0
0, 0
0, 0
0, 0
0, 0
0, 0
0, 0
0, 0
0, 0
0, 0
0, 0
0, 0
0, 0
0, 0
0, 0
0, 0
0, 0
0, 0
0, 0
0, 0
0, 0
0, 0
0, 0
0, 0
0, 0
0, 0
0, 0
0, 0
0, 0
0, 0
0, 0
0, 0
0, 0
0, 0
0, 0
0, 0
0, 0
0, 0
0, 0
0, 0
0, 0
0, 0
0, 0
0, 0
0, 0
0, 0
0, 0
0, 0
#ENDOFDATA     end of spectrum data