File: host_upload/02-11-2024/rqc/uplink1/ps__0567_0717304816_000rfs_shot_1.msa
#FORMAT      : EMSA/MAS spectral data file
#VERSION     : TC202v2.0 PIXL
#TITLE       : Novarupta (sol567) subset1
#DATE        : 02-11-2024      Date in the format DD-MMM-YYYY, for example 07-JUL-2010
#TIME        :             The time of day at which the spectrum was recorded, in 24-hour format
#OWNER       : PIXL Flight Model       (PIXL will use this to indicate which instrument took the data.)
#NPOINTS     : 4096     Number of data points in the spectrum (This can be zero for configuration only files)
#NCOLUMNS    : 2     Number of data columns in the spectrum (This can be zero for configuration only files)
#XUNITS      : eV
#YUNITS      : COUNTS
#DATATYPE    : YY
#XPERCHAN    : 7.862, 7.881   eV per channel (separate by commas if more than one detector)
#OFFSET      : 18.5, -22.4         eV of first channel  (separate by commas if more than one detector
#SIGNALTYPE  : XRF
#YP_TEMP     : -4.371
#LIVETIME    : 8.84519, 8.82559   seconds (separate by commas if more than one detector)
#REALTIME    : 10, 10.0   seconds (separate by commas if more than one detector)
#SPECTRUM    : start of spectrum data
0, 0
0, 0
0, 0
0, 0
0, 0
0, 0
0, 0
0, 0
0, 0
0, 0
0, 0
0, 0
0, 0
0, 0
0, 0
0, 0
0, 0
0, 0
0, 0
0, 0
0, 0
0, 0
0, 0
0, 0
0, 0
0, 0
0, 0
0, 0
0, 0
1, 0
0, 0
0, 0
0, 1
1, 1
0, 1
0, 1
0, 3
2, 1
1, 0
3, 5
6, 4
4, 2
4, 1
1, 3
3, 4
2, 4
6, 8
2, 0
2, 8
2, 6
7, 6
6, 9
16, 15
11, 13
19, 21
13, 22
11, 9
6, 10
15, 17
16, 11
23, 10
28, 33
42, 49
43, 42
40, 43
40, 48
37, 31
51, 41
72, 50
95, 106
140, 159
227, 266
331, 358
430, 422
493, 470
438, 447
378, 358
272, 275
197, 218
134, 118
76, 78
56, 40
29, 38
32, 21
21, 34
27, 31
38, 36
32, 23
29, 27
18, 27
25, 15
29, 23
37, 52
66, 76
133, 130
151, 203
210, 230
236, 281
263, 292
265, 278
222, 228
188, 162
134, 138
104, 97
59, 79
67, 51
59, 61
81, 101
107, 132
147, 155
183, 226
214, 204
198, 217
201, 200
172, 174
150, 167
107, 120
101, 84
88, 84
72, 81
91, 68
74, 66
59, 63
57, 45
41, 42
33, 30
21, 25
21, 20
16, 17
19, 11
11, 11
3, 9
14, 4
9, 4
11, 7
6, 9
9, 14
19, 16
18, 31
22, 36
25, 30
23, 34
32, 23
18, 33
21, 16
10, 18
11, 9
12, 6
22, 22
20, 25
51, 47
90, 92
157, 178
178, 234
244, 299
316, 342
332, 371
321, 321
316, 301
215, 245
164, 158
107, 116
89, 71
35, 36
37, 29
24, 28
37, 31
41, 54
47, 60
59, 57
46, 61
60, 41
38, 41
39, 25
22, 40
24, 16
13, 16
11, 10
6, 8
6, 11
8, 12
6, 7
12, 13
12, 6
15, 16
19, 27
30, 24
30, 33
36, 50
55, 59
60, 64
54, 64
65, 49
54, 53
40, 42
33, 27
30, 30
29, 26
18, 14
19, 18
13, 17
19, 11
18, 12
12, 6
11, 20
20, 15
18, 11
16, 16
14, 21
11, 13
18, 8
21, 14
6, 15
18, 6
16, 9
12, 17
10, 9
17, 15
8, 7
9, 17
14, 7
6, 14
12, 9
15, 19
16, 11
17, 20
19, 20
25, 28
27, 30
24, 33
27, 23
22, 30
21, 23
21, 16
18, 15
6, 8
15, 9
19, 11
14, 18
9, 11
12, 13
11, 14
20, 10
18, 23
30, 25
24, 26
29, 31
48, 47
42, 41
58, 34
45, 52
41, 44
39, 39
39, 20
33, 19
21, 22
18, 15
21, 8
19, 21
21, 38
35, 48
69, 71
118, 146
228, 238
334, 394
559, 620
765, 831
1043, 1148
1314, 1473
1456, 1639
1571, 1689
1620, 1598
1420, 1406
1237, 1206
976, 917
664, 632
459, 400
271, 235
188, 153
109, 85
62, 52
32, 31
14, 26
21, 16
16, 17
24, 24
11, 10
16, 14
23, 30
30, 30
35, 43
64, 55
83, 87
105, 115
158, 175
181, 211
245, 264
247, 265
271, 274
206, 242
188, 189
144, 145
131, 134
86, 88
68, 55
36, 31
22, 26
18, 13
13, 16
16, 4
10, 7
5, 15
15, 13
9, 14
14, 13
12, 13
10, 9
14, 5
12, 7
11, 10
9, 9
6, 6
9, 4
9, 5
10, 7
4, 7
4, 9
5, 3
5, 6
6, 5
5, 6
5, 7
7, 6
5, 6
6, 6
8, 5
10, 9
2, 4
9, 3
2, 13
5, 4
8, 2
9, 3
4, 11
8, 7
10, 2
4, 6
7, 8
5, 9
6, 15
4, 8
11, 3
7, 9
6, 7
5, 6
5, 6
4, 10
7, 5
6, 4
6, 6
9, 10
9, 5
6, 9
7, 9
9, 15
6, 6
14, 9
11, 8
10, 4
15, 10
4, 5
7, 1
7, 7
4, 11
9, 4
8, 6
6, 5
4, 5
4, 6
4, 10
8, 3
7, 5
3, 5
6, 7
0, 4
6, 3
2, 5
6, 7
5, 5
4, 6
6, 13
4, 3
5, 6
5, 5
3, 4
5, 5
3, 5
3, 3
10, 0
5, 2
2, 5
3, 4
4, 5
3, 3
7, 2
1, 3
8, 8
2, 11
4, 6
3, 4
3, 6
4, 4
2, 4
8, 7
6, 2
3, 7
8, 2
7, 4
8, 6
6, 6
5, 3
7, 7
3, 5
6, 5
4, 8
6, 7
9, 6
7, 3
7, 3
5, 4
6, 4
3, 4
2, 3
3, 2
6, 2
4, 5
6, 3
1, 3
8, 3
4, 3
2, 2
5, 1
3, 4
4, 3
5, 4
2, 5
4, 4
2, 4
3, 5
3, 0
2, 0
2, 7
2, 5
3, 2
4, 1
0, 2
1, 1
2, 5
3, 4
2, 2
4, 3
2, 2
3, 1
3, 2
3, 2
4, 3
2, 2
1, 2
3, 1
3, 5
4, 2
2, 3
1, 2
3, 2
6, 1
5, 6
2, 3
3, 1
4, 2
2, 3
4, 2
3, 1
4, 4
5, 2
3, 2
1, 2
4, 4
2, 2
2, 3
0, 3
4, 1
2, 3
3, 2
0, 2
1, 5
2, 1
2, 3
0, 4
4, 2
3, 4
4, 3
2, 4
1, 3
2, 7
3, 1
2, 1
2, 1
4, 4
1, 3
3, 0
0, 6
1, 2
0, 2
1, 7
1, 1
1, 2
1, 4
0, 2
1, 0
2, 4
2, 0
2, 2
3, 3
2, 3
2, 1
1, 2
3, 5
2, 0
4, 5
2, 2
1, 1
1, 3
1, 1
5, 3
2, 3
2, 2
1, 1
1, 4
2, 2
2, 4
6, 2
5, 1
1, 2
2, 3
2, 1
2, 2
1, 0
2, 1
1, 3
1, 6
0, 2
2, 1
1, 1
2, 2
2, 2
3, 2
0, 2
0, 1
1, 1
1, 0
1, 2
0, 2
1, 2
2, 2
2, 0
6, 1
1, 2
2, 0
2, 1
1, 0
1, 3
1, 0
2, 1
1, 2
1, 0
0, 0
1, 1
1, 1
3, 0
2, 0
0, 0
0, 0
2, 1
0, 1
1, 3
0, 1
2, 0
1, 0
2, 2
1, 3
1, 0
0, 1
2, 4
1, 1
1, 1
1, 1
0, 3
1, 1
0, 1
0, 0
3, 2
1, 0
2, 1
1, 0
1, 1
5, 1
1, 1
0, 0
2, 0
1, 1
1, 0
1, 0
1, 0
3, 1
0, 2
2, 1
2, 1
0, 1
0, 0
0, 0
1, 0
0, 2
1, 0
2, 2
1, 0
1, 1
1, 1
2, 0
1, 3
0, 1
1, 0
0, 0
0, 0
1, 0
1, 1
0, 0
2, 2
1, 0
1, 2
0, 0
1, 0
1, 2
0, 0
0, 1
1, 0
0, 0
2, 0
0, 0
0, 1
0, 1
0, 0
0, 1
0, 1
0, 1
1, 1
0, 0
0, 1
0, 0
0, 1
2, 0
0, 0
0, 0
1, 0
2, 2
1, 1
0, 0
1, 1
0, 0
0, 1
0, 0
0, 1
0, 2
0, 0
0, 0
0, 0
0, 0
0, 0
0, 0
1, 1
0, 0
0, 0
0, 0
0, 3
0, 2
1, 0
1, 0
1, 2
0, 1
0, 3
0, 0
1, 0
0, 0
0, 0
1, 0
1, 0
0, 0
0, 2
0, 0
1, 1
1, 1
0, 2
1, 0
0, 1
0, 0
0, 0
1, 1
1, 0
0, 0
1, 2
2, 1
1, 0
0, 1
0, 1
0, 1
0, 0
0, 0
0, 0
0, 1
0, 1
2, 0
0, 0
1, 0
0, 0
2, 1
0, 0
0, 0
0, 0
2, 0
0, 0
0, 0
0, 0
0, 0
0, 1
0, 0
1, 0
0, 0
0, 0
2, 0
2, 0
0, 1
0, 0
0, 0
0, 1
0, 0
0, 0
0, 1
0, 0
0, 0
0, 0
1, 0
1, 0
0, 0
0, 0
0, 0
0, 0
0, 1
0, 0
0, 0
0, 1
0, 0
0, 0
0, 1
0, 0
0, 0
0, 0
0, 0
0, 0
1, 0
0, 0
0, 0
0, 0
0, 0
1, 0
0, 2
0, 0
1, 0
1, 0
0, 0
0, 0
0, 0
0, 0
0, 0
0, 1
0, 0
0, 1
0, 1
0, 0
0, 0
0, 0
0, 0
0, 0
0, 0
0, 0
0, 0
0, 0
0, 0
0, 0
2, 0
1, 0
0, 0
0, 2
0, 2
0, 2
1, 0
1, 0
0, 0
1, 0
0, 0
0, 0
0, 0
0, 0
0, 0
0, 0
0, 0
0, 0
0, 0
0, 1
0, 0
0, 0
0, 0
0, 0
0, 0
0, 0
0, 0
0, 0
0, 0
0, 0
0, 0
1, 1
0, 0
0, 0
0, 0
0, 0
0, 0
0, 0
0, 1
0, 0
0, 0
0, 0
0, 0
0, 0
0, 1
0, 0
0, 0
0, 1
0, 0
0, 0
0, 0
1, 0
0, 1
0, 0
0, 0
1, 0
0, 0
0, 0
0, 0
0, 0
0, 0
0, 0
0, 0
0, 0
0, 0
0, 1
1, 0
0, 2
0, 0
0, 0
0, 0
0, 0
0, 0
0, 0
0, 0
1, 0
0, 0
0, 0
0, 0
1, 0
0, 0
0, 0
0, 0
0, 0
0, 0
0, 1
0, 0
0, 0
0, 0
0, 0
0, 0
0, 0
0, 0
0, 0
0, 0
0, 0
0, 0
0, 0
0, 0
0, 0
0, 0
0, 0
0, 1
0, 0
0, 0
0, 0
0, 0
0, 1
0, 0
0, 0
0, 0
0, 0
0, 0
0, 0
0, 0
0, 1
0, 0
0, 0
0, 0
0, 0
0, 0
0, 0
0, 0
0, 0
0, 0
0, 0
0, 0
0, 0
0, 0
0, 0
0, 0
0, 0
0, 0
0, 0
0, 0
0, 0
0, 0
0, 0
0, 0
1, 0
0, 0
0, 0
0, 0
0, 0
0, 0
0, 0
0, 0
0, 0
0, 0
0, 0
0, 0
0, 1
0, 0
0, 0
0, 0
0, 0
1, 0
0, 0
0, 0
0, 0
0, 0
0, 0
0, 0
0, 0
0, 0
0, 0
0, 0
0, 0
0, 0
0, 0
0, 0
0, 1
0, 0
0, 0
0, 0
0, 0
0, 0
0, 0
0, 0
0, 0
0, 0
0, 0
0, 0
0, 0
0, 0
0, 0
0, 0
0, 0
0, 0
0, 0
0, 0
0, 0
0, 0
0, 0
0, 0
0, 0
0, 0
0, 0
0, 0
0, 0
0, 0
0, 0
0, 0
0, 0
0, 0
0, 0
0, 0
0, 0
0, 0
0, 1
0, 0
0, 0
0, 0
0, 0
0, 0
0, 0
0, 0
0, 0
0, 0
0, 0
0, 0
0, 0
0, 0
0, 0
0, 0
0, 0
0, 0
0, 0
0, 0
0, 0
0, 0
0, 0
0, 0
0, 0
0, 0
0, 0
0, 0
0, 0
0, 0
0, 0
0, 0
0, 0
0, 0
0, 0
0, 0
0, 0
0, 0
0, 0
0, 0
0, 1
0, 0
0, 0
0, 0
0, 0
0, 0
0, 0
0, 0
0, 0
0, 0
0, 0
0, 0
0, 0
0, 0
0, 0
0, 0
0, 0
0, 0
0, 0
0, 0
0, 0
0, 0
0, 0
0, 0
0, 0
0, 0
0, 0
0, 0
0, 0
0, 0
0, 0
0, 0
0, 0
0, 0
0, 0
0, 0
0, 0
0, 0
0, 0
0, 0
0, 0
0, 0
0, 0
0, 0
0, 0
0, 0
0, 0
0, 0
0, 0
0, 0
0, 0
0, 0
0, 0
0, 0
0, 0
0, 0
0, 0
0, 0
0, 0
0, 0
0, 0
0, 0
0, 0
0, 0
0, 0
0, 0
0, 0
0, 0
0, 0
0, 0
0, 0
0, 0
0, 0
0, 0
0, 0
0, 0
0, 0
0, 0
0, 0
0, 0
0, 0
0, 0
0, 0
0, 0
0, 0
0, 0
0, 0
0, 0
0, 0
0, 0
0, 0
0, 0
0, 0
0, 0
0, 0
0, 0
0, 0
0, 0
0, 0
0, 0
0, 0
0, 0
0, 0
0, 0
0, 0
0, 0
0, 0
0, 0
0, 0
0, 0
0, 0
0, 0
0, 0
0, 0
0, 0
0, 0
0, 0
0, 0
0, 0
0, 0
0, 0
0, 0
0, 0
0, 0
0, 0
0, 0
0, 0
0, 0
0, 0
0, 0
0, 0
0, 0
0, 0
0, 0
0, 0
0, 0
0, 0
0, 0
0, 0
0, 0
0, 0
0, 0
0, 0
0, 0
0, 0
0, 0
0, 0
0, 0
0, 0
0, 0
0, 0
0, 0
0, 0
0, 0
0, 0
0, 0
0, 0
0, 0
0, 0
0, 0
0, 0
0, 0
0, 0
0, 0
0, 0
0, 0
0, 0
0, 0
0, 0
0, 0
0, 0
0, 0
0, 0
0, 0
0, 0
0, 0
0, 0
0, 0
0, 0
0, 0
0, 0
0, 0
0, 0
0, 0
0, 0
0, 0
0, 0
0, 0
0, 0
0, 0
0, 0
0, 0
0, 0
0, 0
0, 0
0, 0
0, 0
0, 0
0, 0
0, 0
0, 0
0, 0
0, 0
0, 0
0, 0
0, 0
0, 0
0, 0
0, 0
0, 0
0, 0
0, 0
0, 0
0, 0
0, 0
0, 0
0, 0
0, 0
0, 0
0, 0
0, 0
0, 0
0, 0
0, 0
0, 0
0, 0
0, 0
0, 0
0, 0
0, 0
0, 0
0, 0
0, 0
0, 0
0, 0
0, 0
0, 0
0, 0
0, 0
0, 0
0, 0
0, 0
0, 0
0, 0
0, 0
0, 0
0, 0
0, 0
0, 0
0, 0
0, 0
0, 0
0, 0
0, 0
0, 0
0, 0
0, 0
0, 0
0, 0
0, 0
0, 0
0, 0
0, 0
0, 0
0, 0
0, 0
0, 0
0, 0
0, 0
0, 0
0, 0
0, 0
0, 0
0, 0
0, 0
0, 0
0, 0
0, 0
0, 0
0, 0
0, 0
0, 0
0, 0
0, 0
0, 0
0, 0
0, 0
0, 0
0, 0
0, 0
0, 0
0, 0
0, 0
0, 0
0, 0
0, 0
0, 0
0, 0
0, 0
0, 0
0, 0
0, 0
0, 0
0, 0
0, 0
0, 0
0, 0
0, 0
0, 0
0, 0
0, 0
0, 0
0, 0
0, 0
0, 0
0, 0
0, 0
0, 0
0, 0
0, 0
#ENDOFDATA     end of spectrum data