File: host_upload/02-11-2024/rqc/uplink1/ps__0567_0717304816_000rfs_shot_359.msa
#FORMAT      : EMSA/MAS spectral data file
#VERSION     : TC202v2.0 PIXL
#TITLE       : Novarupta (sol567) subset1
#DATE        : 02-11-2024      Date in the format DD-MMM-YYYY, for example 07-JUL-2010
#TIME        :             The time of day at which the spectrum was recorded, in 24-hour format
#OWNER       : PIXL Flight Model       (PIXL will use this to indicate which instrument took the data.)
#NPOINTS     : 4096     Number of data points in the spectrum (This can be zero for configuration only files)
#NCOLUMNS    : 2     Number of data columns in the spectrum (This can be zero for configuration only files)
#XUNITS      : eV
#YUNITS      : COUNTS
#DATATYPE    : YY
#XPERCHAN    : 7.862, 7.881   eV per channel (separate by commas if more than one detector)
#OFFSET      : 18.5, -22.4         eV of first channel  (separate by commas if more than one detector
#SIGNALTYPE  : XRF
#YP_TEMP     : 1.594
#LIVETIME    : 8.82092, 8.81523   seconds (separate by commas if more than one detector)
#REALTIME    : 10, 10.0   seconds (separate by commas if more than one detector)
#SPECTRUM    : start of spectrum data
0, 0
0, 0
0, 0
0, 0
0, 0
0, 0
0, 0
0, 0
0, 0
0, 0
0, 0
0, 0
0, 0
0, 0
0, 0
0, 0
0, 0
0, 0
0, 0
0, 0
0, 0
0, 0
0, 0
0, 0
0, 0
0, 0
0, 0
0, 0
0, 0
0, 0
0, 1
0, 1
0, 0
0, 2
1, 1
3, 0
2, 3
2, 6
6, 4
4, 2
5, 4
1, 2
1, 2
0, 2
0, 3
3, 3
2, 6
2, 3
3, 2
3, 4
5, 6
9, 8
15, 16
17, 11
15, 15
20, 14
13, 7
11, 6
8, 8
10, 19
20, 11
23, 29
39, 48
51, 44
50, 57
46, 42
41, 43
31, 30
32, 41
59, 85
98, 112
176, 227
293, 350
405, 440
481, 503
526, 485
413, 423
333, 329
240, 228
144, 148
70, 89
49, 49
41, 24
34, 33
36, 34
27, 30
31, 32
34, 27
30, 28
16, 16
16, 18
15, 15
31, 25
37, 53
76, 94
115, 155
203, 224
278, 300
306, 358
295, 326
253, 294
225, 236
142, 172
116, 113
73, 78
55, 57
58, 52
64, 66
83, 109
124, 134
162, 191
214, 187
202, 224
223, 212
187, 180
159, 187
127, 126
108, 116
82, 85
87, 76
72, 84
68, 77
58, 73
54, 51
46, 38
39, 33
22, 21
27, 25
21, 24
19, 17
12, 11
11, 10
5, 5
5, 8
12, 6
9, 9
11, 14
9, 18
17, 29
20, 29
26, 27
30, 30
27, 27
27, 27
22, 21
26, 19
15, 15
10, 14
12, 10
17, 22
23, 32
40, 56
79, 87
138, 152
209, 234
289, 321
358, 358
413, 412
390, 383
342, 296
244, 246
170, 155
114, 113
79, 61
39, 35
36, 27
30, 27
33, 50
40, 53
41, 53
57, 59
84, 56
58, 71
57, 43
57, 34
31, 24
9, 15
15, 11
13, 7
5, 6
8, 9
10, 10
10, 13
12, 10
5, 17
14, 10
16, 11
23, 25
39, 33
35, 45
53, 63
62, 66
69, 63
58, 67
37, 60
51, 39
43, 34
27, 31
26, 20
7, 23
21, 22
16, 9
16, 23
16, 14
10, 16
12, 13
13, 14
10, 12
16, 23
12, 18
27, 18
15, 19
18, 12
20, 18
16, 16
16, 13
11, 11
16, 13
11, 12
11, 17
12, 10
11, 9
8, 10
14, 17
13, 19
20, 18
21, 25
19, 26
23, 27
26, 25
20, 39
33, 24
35, 28
27, 22
32, 21
17, 18
15, 13
17, 19
9, 10
13, 11
14, 14
18, 19
7, 10
13, 16
18, 28
27, 20
18, 24
30, 31
39, 43
45, 48
40, 68
57, 46
58, 50
38, 46
33, 38
29, 29
26, 21
22, 13
26, 17
21, 18
21, 16
30, 29
36, 46
69, 82
93, 161
205, 275
390, 399
555, 702
876, 1035
1169, 1390
1482, 1729
1613, 1873
1747, 1901
1836, 1687
1513, 1436
1191, 1119
877, 779
658, 535
398, 331
251, 177
126, 107
66, 39
30, 41
25, 21
20, 21
14, 12
20, 13
16, 15
12, 18
20, 17
20, 25
28, 46
38, 49
59, 62
86, 105
129, 133
163, 173
213, 239
254, 257
262, 270
274, 298
261, 258
223, 188
179, 172
151, 131
78, 75
56, 37
44, 27
26, 27
10, 13
6, 8
9, 12
10, 13
10, 13
12, 7
9, 18
9, 18
14, 14
15, 13
5, 8
18, 7
13, 9
8, 9
7, 7
13, 10
7, 4
8, 7
5, 8
12, 7
9, 6
6, 7
10, 8
1, 4
6, 5
3, 6
7, 4
8, 7
5, 5
7, 9
6, 4
5, 7
6, 5
9, 8
8, 2
6, 7
6, 8
4, 7
2, 7
8, 9
10, 12
9, 8
9, 7
4, 5
4, 10
4, 7
10, 4
5, 9
6, 2
7, 9
2, 7
15, 10
2, 8
7, 7
9, 20
10, 13
7, 13
8, 14
13, 15
9, 13
12, 13
13, 5
8, 9
8, 7
7, 3
10, 6
5, 4
10, 9
4, 6
7, 4
5, 4
5, 7
5, 6
15, 10
4, 3
7, 5
4, 5
5, 7
8, 3
4, 5
5, 4
2, 8
5, 7
5, 2
4, 7
10, 4
5, 3
5, 5
11, 5
3, 4
5, 5
6, 9
3, 5
4, 3
4, 7
5, 5
7, 3
4, 3
6, 1
8, 7
8, 4
7, 3
9, 5
8, 3
1, 3
2, 8
4, 6
3, 6
3, 6
2, 8
2, 1
3, 3
3, 1
5, 4
10, 9
5, 6
7, 4
5, 6
5, 7
3, 2
5, 5
7, 5
2, 5
10, 2
0, 4
4, 5
6, 2
6, 5
11, 3
2, 2
6, 4
1, 2
3, 3
4, 5
1, 6
1, 6
6, 3
6, 5
0, 7
4, 2
4, 2
3, 2
7, 6
4, 4
6, 5
3, 5
6, 2
2, 3
4, 2
3, 3
2, 2
1, 2
1, 1
4, 4
5, 4
2, 3
7, 3
2, 2
4, 6
3, 1
5, 3
3, 0
1, 4
3, 1
3, 1
3, 5
2, 2
5, 1
4, 1
1, 6
5, 3
3, 3
4, 1
1, 0
3, 2
4, 1
6, 1
6, 3
5, 1
1, 3
2, 1
3, 0
0, 4
3, 3
5, 3
1, 5
2, 2
2, 3
1, 2
4, 3
1, 4
4, 3
6, 1
2, 2
4, 1
4, 2
3, 2
2, 1
1, 2
1, 2
4, 4
0, 1
0, 2
2, 3
5, 1
5, 0
2, 0
2, 2
4, 2
2, 1
0, 2
3, 4
1, 3
0, 1
2, 0
4, 1
4, 2
1, 2
2, 2
2, 1
1, 0
1, 1
0, 0
0, 1
2, 4
2, 2
0, 4
0, 2
2, 0
5, 1
3, 2
4, 5
1, 5
1, 5
3, 1
1, 1
7, 2
1, 4
1, 2
3, 1
3, 0
0, 0
4, 2
1, 1
0, 4
2, 2
2, 1
2, 2
0, 2
0, 0
3, 3
1, 4
2, 1
2, 2
3, 3
2, 1
0, 4
3, 1
2, 0
0, 4
2, 2
0, 1
0, 0
3, 3
1, 0
2, 3
2, 3
2, 1
3, 0
2, 2
1, 0
3, 2
1, 2
1, 3
0, 0
2, 0
1, 2
1, 0
1, 1
0, 0
1, 0
0, 0
4, 1
1, 0
1, 0
4, 0
3, 0
1, 1
1, 1
1, 2
3, 0
0, 1
3, 1
0, 3
1, 2
0, 1
1, 1
1, 1
1, 1
2, 2
1, 2
0, 3
0, 3
2, 2
1, 2
2, 1
0, 1
0, 2
2, 2
1, 2
1, 0
0, 1
0, 1
0, 0
1, 0
0, 2
1, 2
0, 0
0, 1
0, 1
0, 0
2, 0
0, 2
0, 0
1, 1
0, 0
0, 1
1, 2
0, 3
0, 0
0, 1
3, 1
0, 1
0, 2
0, 1
0, 1
1, 2
0, 0
0, 1
2, 0
0, 1
0, 1
0, 0
3, 0
2, 1
1, 0
0, 0
0, 0
3, 1
0, 0
0, 0
1, 0
0, 0
0, 1
1, 0
1, 2
1, 0
2, 0
0, 0
0, 1
0, 2
2, 2
0, 2
0, 1
0, 0
0, 0
0, 0
0, 0
1, 0
0, 1
0, 0
0, 0
0, 1
0, 0
0, 0
0, 0
1, 1
1, 1
0, 1
0, 0
0, 0
2, 0
0, 2
0, 0
0, 2
0, 0
1, 0
1, 1
1, 1
0, 1
0, 0
0, 0
2, 0
1, 0
0, 0
0, 1
0, 1
1, 2
1, 0
1, 1
0, 0
0, 0
0, 0
0, 0
0, 0
1, 0
0, 3
1, 0
0, 1
0, 0
1, 3
0, 0
2, 0
0, 0
0, 0
0, 0
0, 0
0, 0
0, 1
1, 0
1, 2
0, 0
0, 0
1, 0
0, 0
0, 0
1, 1
1, 1
0, 1
1, 0
1, 0
0, 0
0, 0
1, 0
3, 1
0, 0
0, 0
0, 0
1, 0
0, 1
0, 0
0, 0
0, 0
0, 0
0, 0
0, 0
0, 0
0, 2
0, 0
0, 0
0, 1
0, 1
0, 0
0, 0
1, 0
0, 0
0, 0
1, 0
0, 0
0, 0
1, 0
0, 0
0, 0
0, 0
0, 0
0, 0
0, 0
0, 0
0, 1
0, 0
0, 0
1, 0
0, 1
1, 1
2, 0
0, 1
0, 1
0, 0
0, 0
1, 2
0, 0
0, 0
0, 1
0, 1
0, 0
0, 1
0, 0
2, 1
1, 0
1, 3
1, 1
1, 1
0, 0
0, 0
2, 3
0, 0
3, 0
0, 0
0, 0
0, 0
1, 0
1, 0
0, 0
1, 0
0, 2
1, 0
0, 0
0, 0
0, 0
0, 0
0, 0
0, 0
0, 0
1, 1
0, 0
0, 1
0, 0
0, 0
0, 0
0, 1
1, 1
0, 2
0, 0
1, 0
0, 0
0, 0
0, 0
0, 0
0, 0
0, 1
0, 1
0, 0
0, 0
1, 1
0, 0
0, 1
0, 0
1, 1
0, 0
0, 0
0, 0
0, 0
0, 0
0, 0
0, 0
0, 0
1, 0
0, 1
0, 0
0, 0
0, 0
0, 0
0, 0
0, 0
0, 0
0, 0
0, 0
0, 0
0, 0
0, 0
0, 0
0, 0
0, 2
0, 0
0, 0
0, 0
0, 0
0, 0
0, 0
0, 0
0, 0
0, 0
0, 0
0, 0
0, 1
0, 0
0, 0
0, 0
0, 0
0, 0
0, 0
0, 0
0, 0
0, 0
0, 0
0, 0
0, 0
1, 0
0, 0
1, 0
0, 0
0, 0
0, 0
0, 0
0, 0
0, 0
0, 0
0, 0
0, 0
0, 0
0, 0
0, 0
0, 0
0, 0
0, 0
0, 0
0, 0
0, 0
0, 0
0, 2
0, 0
0, 0
1, 0
0, 0
0, 0
0, 0
0, 0
0, 0
0, 0
0, 0
0, 0
0, 0
0, 0
0, 0
0, 0
0, 0
0, 1
0, 0
0, 0
0, 0
0, 0
0, 0
0, 1
0, 0
0, 0
0, 0
0, 1
0, 0
0, 0
0, 0
0, 0
0, 0
0, 0
0, 0
0, 0
0, 0
0, 0
0, 0
0, 0
0, 0
0, 0
0, 0
0, 1
0, 0
0, 0
0, 0
0, 0
0, 0
0, 0
0, 0
1, 0
0, 0
0, 0
0, 0
0, 0
0, 0
0, 0
0, 0
0, 0
0, 0
0, 0
0, 0
0, 0
0, 0
0, 0
0, 0
0, 0
0, 0
0, 0
0, 0
0, 0
0, 0
0, 0
0, 0
0, 0
0, 0
0, 0
0, 0
0, 1
0, 0
0, 0
0, 0
0, 0
0, 0
0, 0
0, 0
0, 0
0, 0
0, 0
0, 0
0, 0
0, 0
0, 0
0, 0
0, 0
0, 0
0, 0
0, 0
0, 0
0, 0
0, 0
0, 0
0, 0
0, 0
0, 0
0, 0
0, 0
0, 0
0, 0
0, 0
0, 0
0, 0
0, 0
0, 0
0, 0
0, 0
0, 0
0, 0
0, 0
0, 0
0, 0
0, 0
0, 0
0, 0
0, 0
0, 0
0, 0
0, 0
0, 0
0, 0
0, 0
0, 0
0, 0
0, 0
0, 0
0, 0
0, 0
0, 0
0, 0
0, 0
0, 0
0, 0
0, 0
0, 0
0, 0
0, 0
0, 0
0, 0
0, 0
0, 0
0, 0
0, 0
0, 0
0, 0
0, 0
0, 0
0, 0
0, 0
0, 0
0, 0
0, 0
0, 0
0, 0
0, 0
0, 0
0, 0
0, 0
0, 0
0, 0
0, 0
0, 0
0, 0
0, 0
0, 0
0, 0
0, 0
0, 0
0, 0
0, 0
0, 0
0, 0
0, 0
0, 0
0, 0
0, 0
0, 0
0, 0
0, 0
0, 0
0, 0
0, 0
0, 0
0, 0
0, 0
0, 0
0, 0
0, 0
0, 0
0, 0
0, 0
0, 0
0, 0
0, 0
0, 0
0, 0
0, 0
0, 0
0, 0
0, 0
0, 0
0, 0
0, 0
0, 0
0, 0
0, 0
0, 0
0, 0
0, 0
0, 0
0, 0
0, 0
0, 0
0, 0
0, 0
0, 0
0, 0
0, 0
0, 0
0, 0
0, 0
0, 0
0, 0
0, 0
0, 0
0, 0
0, 0
0, 0
0, 0
0, 0
0, 0
0, 0
0, 0
0, 0
0, 0
0, 0
0, 0
0, 0
0, 0
0, 0
0, 0
0, 0
0, 0
0, 0
0, 0
0, 0
0, 0
0, 0
0, 0
0, 0
0, 0
0, 0
0, 0
0, 0
0, 0
0, 0
0, 0
0, 0
0, 0
0, 0
0, 0
0, 0
0, 0
0, 0
0, 0
0, 0
0, 0
0, 0
0, 0
0, 0
0, 0
0, 0
0, 0
0, 0
0, 0
0, 0
0, 0
0, 0
0, 0
0, 0
0, 0
0, 0
0, 0
0, 0
0, 0
0, 0
0, 0
0, 0
0, 0
0, 0
0, 0
0, 0
0, 0
0, 0
0, 0
0, 0
0, 0
0, 0
0, 0
0, 0
0, 0
0, 0
0, 0
0, 0
0, 0
0, 0
0, 0
0, 0
0, 0
0, 0
0, 0
0, 0
0, 0
0, 0
0, 0
0, 0
0, 0
0, 0
0, 0
0, 0
0, 0
0, 0
0, 0
0, 0
0, 0
0, 0
0, 0
0, 0
0, 0
0, 0
0, 0
0, 0
0, 0
0, 0
0, 0
0, 0
0, 0
0, 0
0, 0
0, 0
0, 0
0, 0
0, 0
0, 0
0, 0
0, 0
0, 0
0, 0
0, 0
0, 0
0, 0
0, 0
0, 0
0, 0
0, 0
0, 0
0, 0
0, 0
0, 0
0, 0
0, 0
0, 0
0, 0
0, 0
0, 0
0, 0
0, 0
0, 0
0, 0
0, 0
0, 0
0, 0
0, 0
0, 0
0, 0
0, 0
0, 0
0, 0
0, 0
0, 0
0, 0
0, 0
0, 0
0, 0
0, 0
0, 0
0, 0
0, 0
0, 0
0, 0
0, 0
0, 0
0, 0
0, 0
0, 0
0, 0
0, 0
0, 0
0, 0
0, 0
0, 0
0, 0
0, 0
0, 0
0, 0
0, 0
0, 0
0, 0
0, 0
0, 0
0, 0
0, 0
0, 0
0, 0
0, 0
0, 0
0, 0
0, 0
0, 0
0, 0
0, 0
0, 0
0, 0
0, 0
0, 0
0, 0
0, 0
0, 0
0, 0
0, 0
0, 0
0, 0
0, 0
0, 0
0, 0
0, 0
0, 0
0, 0
#ENDOFDATA     end of spectrum data