File: host_upload/02-11-2024/rqc/uplink1/ps__0567_0717304816_000rfs_shot_292.msa
#FORMAT      : EMSA/MAS spectral data file
#VERSION     : TC202v2.0 PIXL
#TITLE       : Novarupta (sol567) subset1
#DATE        : 02-11-2024      Date in the format DD-MMM-YYYY, for example 07-JUL-2010
#TIME        :             The time of day at which the spectrum was recorded, in 24-hour format
#OWNER       : PIXL Flight Model       (PIXL will use this to indicate which instrument took the data.)
#NPOINTS     : 4096     Number of data points in the spectrum (This can be zero for configuration only files)
#NCOLUMNS    : 2     Number of data columns in the spectrum (This can be zero for configuration only files)
#XUNITS      : eV
#YUNITS      : COUNTS
#DATATYPE    : YY
#XPERCHAN    : 7.862, 7.881   eV per channel (separate by commas if more than one detector)
#OFFSET      : 18.5, -22.4         eV of first channel  (separate by commas if more than one detector
#SIGNALTYPE  : XRF
#YP_TEMP     : 1.241
#LIVETIME    : 8.81256, 8.80767   seconds (separate by commas if more than one detector)
#REALTIME    : 10, 10.0   seconds (separate by commas if more than one detector)
#SPECTRUM    : start of spectrum data
0, 0
0, 0
0, 0
0, 0
0, 0
0, 0
0, 0
0, 0
0, 0
0, 0
0, 0
0, 0
0, 0
0, 0
0, 0
0, 0
0, 0
0, 0
0, 0
0, 0
0, 0
0, 0
0, 0
0, 0
0, 0
0, 0
0, 0
0, 0
0, 0
0, 1
0, 2
1, 0
1, 1
0, 3
2, 2
0, 1
1, 3
2, 2
3, 5
5, 4
2, 5
3, 4
1, 2
3, 4
2, 3
1, 2
2, 2
5, 4
6, 6
4, 3
4, 4
9, 10
10, 14
14, 14
19, 13
15, 22
15, 11
10, 8
8, 6
14, 13
16, 21
24, 26
23, 41
49, 59
47, 66
56, 43
42, 39
34, 32
39, 42
66, 65
98, 130
188, 235
288, 337
401, 453
480, 535
505, 541
424, 452
344, 347
222, 226
158, 160
91, 79
46, 49
46, 43
37, 34
36, 25
22, 40
38, 44
37, 28
31, 27
19, 25
16, 9
15, 15
21, 33
50, 42
71, 80
120, 132
223, 233
248, 302
292, 323
321, 317
262, 269
215, 198
183, 176
108, 121
64, 74
36, 50
56, 54
70, 64
80, 86
118, 146
139, 183
213, 241
217, 230
234, 219
195, 222
186, 150
135, 139
100, 106
97, 95
99, 104
66, 81
80, 69
58, 68
49, 67
41, 68
33, 36
34, 29
24, 26
14, 16
12, 12
15, 7
5, 7
9, 5
10, 6
6, 10
9, 14
8, 11
20, 19
17, 26
21, 33
28, 35
43, 28
28, 33
33, 26
24, 19
18, 19
14, 12
17, 12
11, 9
25, 22
16, 31
51, 80
86, 116
144, 169
218, 255
334, 352
339, 426
376, 422
375, 425
320, 361
235, 248
176, 172
107, 96
52, 70
46, 30
26, 27
17, 30
29, 43
39, 44
52, 60
41, 77
60, 71
51, 64
44, 51
48, 51
29, 28
15, 18
11, 10
10, 6
10, 6
8, 11
4, 11
8, 4
12, 14
11, 7
13, 14
11, 20
28, 30
32, 30
40, 55
53, 43
59, 63
77, 62
77, 66
52, 56
47, 40
38, 38
35, 31
20, 24
16, 9
10, 22
17, 14
15, 13
17, 22
24, 10
15, 9
15, 15
12, 19
18, 20
16, 18
21, 15
24, 19
20, 19
13, 19
15, 13
18, 14
13, 12
12, 11
10, 16
10, 11
13, 17
8, 10
16, 20
9, 11
11, 11
20, 17
22, 22
24, 22
30, 29
31, 25
29, 31
35, 26
13, 33
27, 21
27, 22
18, 17
13, 13
20, 14
15, 16
17, 15
13, 15
13, 9
14, 18
15, 11
13, 17
11, 26
23, 30
35, 33
35, 35
43, 44
38, 49
43, 62
49, 62
42, 46
40, 42
39, 25
23, 14
24, 24
23, 23
18, 22
26, 27
26, 27
29, 53
77, 98
130, 171
234, 268
376, 476
611, 787
857, 1085
1219, 1481
1490, 1692
1640, 1854
1784, 1968
1766, 1788
1461, 1531
1188, 1149
905, 852
594, 579
388, 325
230, 188
115, 101
59, 53
29, 41
34, 27
23, 21
25, 18
12, 20
16, 21
23, 15
21, 19
21, 21
24, 40
42, 54
70, 79
84, 103
123, 160
181, 192
221, 240
250, 276
279, 267
263, 302
256, 276
213, 200
192, 183
123, 109
88, 81
57, 58
36, 38
22, 11
16, 15
11, 11
11, 5
11, 12
10, 17
8, 14
13, 11
10, 8
6, 9
16, 15
17, 12
9, 13
11, 6
9, 5
6, 10
8, 7
7, 6
5, 8
4, 8
4, 6
3, 2
6, 5
3, 7
7, 3
8, 8
5, 9
4, 5
6, 14
6, 7
5, 10
5, 9
7, 7
7, 6
6, 7
7, 9
7, 3
7, 9
3, 6
7, 7
4, 11
5, 16
1, 8
6, 8
9, 6
11, 10
3, 7
5, 5
12, 3
5, 7
5, 4
8, 8
4, 7
6, 9
4, 7
11, 13
13, 10
16, 14
10, 11
9, 9
7, 17
12, 9
7, 9
9, 10
5, 8
12, 6
4, 6
5, 6
4, 10
4, 11
5, 2
8, 4
7, 3
10, 7
1, 5
11, 5
6, 4
7, 3
7, 4
7, 5
6, 6
8, 5
4, 6
5, 6
4, 6
3, 3
7, 7
8, 2
7, 4
0, 2
5, 6
6, 4
6, 4
5, 4
2, 6
5, 7
7, 4
3, 2
5, 6
4, 4
2, 5
7, 10
6, 5
8, 5
3, 3
4, 6
7, 2
4, 5
7, 5
3, 2
7, 5
7, 9
6, 4
5, 4
6, 2
2, 6
3, 6
2, 6
7, 4
6, 3
5, 5
5, 7
2, 6
2, 0
2, 4
2, 3
2, 5
1, 7
7, 5
3, 9
4, 8
1, 3
6, 5
3, 1
3, 4
2, 5
7, 4
2, 2
1, 4
5, 4
7, 5
4, 0
2, 4
8, 6
1, 3
4, 6
1, 3
6, 5
3, 8
5, 4
2, 3
4, 1
1, 4
4, 1
3, 4
4, 6
4, 1
3, 2
4, 5
4, 1
3, 3
3, 0
4, 4
2, 2
0, 4
1, 4
3, 4
1, 3
5, 6
2, 1
2, 2
1, 4
2, 3
2, 2
3, 3
4, 4
2, 0
1, 2
4, 4
3, 2
1, 1
5, 2
1, 3
1, 1
2, 4
3, 2
6, 3
1, 3
4, 4
5, 1
3, 2
2, 3
1, 7
2, 6
1, 5
3, 2
1, 1
1, 0
4, 2
0, 2
4, 1
2, 2
0, 2
3, 2
3, 3
3, 3
2, 4
4, 3
2, 3
4, 5
4, 1
1, 3
2, 2
0, 1
2, 1
1, 1
0, 1
2, 4
0, 1
1, 2
1, 3
0, 5
0, 1
2, 1
2, 1
0, 3
0, 3
1, 4
2, 1
4, 2
3, 2
1, 2
2, 2
5, 2
3, 4
3, 4
1, 4
2, 2
4, 4
2, 3
2, 3
2, 0
4, 2
0, 2
0, 2
1, 2
2, 1
5, 1
0, 0
1, 2
2, 1
1, 1
2, 2
0, 3
2, 1
0, 3
5, 1
2, 2
0, 1
0, 2
4, 0
1, 4
1, 1
2, 3
2, 2
2, 2
2, 4
0, 3
2, 1
2, 3
3, 1
1, 5
1, 0
2, 1
1, 2
0, 1
2, 1
1, 2
0, 1
2, 2
1, 1
2, 1
1, 1
2, 2
1, 0
2, 1
0, 1
2, 1
1, 0
2, 1
1, 1
0, 0
0, 2
0, 1
1, 3
1, 1
2, 2
0, 1
1, 2
1, 0
0, 0
2, 2
2, 0
1, 2
1, 1
2, 1
1, 1
0, 1
2, 1
0, 0
2, 2
0, 0
0, 0
0, 0
1, 2
1, 1
1, 1
0, 0
1, 0
1, 0
1, 0
0, 1
1, 0
0, 0
0, 0
0, 0
1, 1
1, 2
1, 1
1, 0
0, 0
0, 0
0, 4
0, 2
1, 0
1, 2
0, 1
1, 0
0, 1
1, 2
2, 0
1, 3
2, 0
0, 0
0, 2
0, 2
0, 1
0, 0
0, 0
1, 1
0, 0
1, 1
0, 0
0, 1
0, 0
2, 0
0, 0
0, 0
3, 0
0, 3
0, 1
1, 0
1, 0
1, 0
0, 0
1, 0
1, 1
1, 0
0, 0
0, 1
0, 1
1, 0
1, 0
1, 0
1, 0
0, 1
0, 1
0, 1
0, 0
0, 0
0, 0
0, 2
1, 1
0, 0
0, 1
0, 0
0, 0
0, 1
0, 0
0, 1
0, 1
1, 0
0, 0
0, 0
1, 1
0, 2
0, 0
0, 0
1, 0
1, 0
0, 0
0, 0
0, 0
0, 1
0, 1
0, 0
1, 3
0, 0
0, 0
0, 0
0, 0
0, 0
0, 1
0, 2
0, 0
0, 1
0, 1
0, 0
0, 1
1, 0
0, 0
0, 0
0, 0
0, 1
1, 0
0, 0
1, 0
0, 0
0, 0
0, 0
0, 0
0, 1
0, 1
0, 0
0, 0
0, 0
0, 0
0, 0
0, 0
0, 0
1, 0
0, 0
0, 1
1, 0
0, 0
0, 0
0, 0
0, 0
0, 0
0, 0
1, 0
0, 0
0, 0
0, 1
0, 0
0, 0
0, 0
1, 0
0, 1
2, 1
0, 1
1, 0
0, 0
0, 1
0, 0
0, 0
0, 0
0, 0
0, 1
0, 2
1, 0
0, 0
0, 1
0, 0
0, 0
0, 0
1, 0
0, 0
0, 0
1, 0
0, 1
0, 0
1, 1
1, 0
0, 0
0, 0
0, 0
1, 0
1, 3
1, 0
0, 0
0, 0
0, 0
0, 0
0, 0
0, 0
0, 0
1, 0
0, 0
1, 0
0, 0
0, 1
0, 1
1, 0
0, 0
0, 0
0, 0
0, 1
0, 0
0, 0
0, 0
0, 2
1, 0
0, 0
0, 0
0, 1
0, 0
0, 0
0, 0
0, 0
0, 0
0, 0
0, 0
0, 0
1, 0
0, 0
0, 0
0, 0
0, 0
0, 0
0, 0
0, 0
0, 0
0, 0
1, 0
1, 0
1, 1
0, 0
0, 0
0, 0
0, 0
0, 0
0, 0
0, 0
0, 0
0, 0
0, 0
0, 0
0, 0
0, 0
0, 0
1, 0
0, 0
0, 0
0, 0
0, 0
0, 1
1, 0
0, 0
0, 0
0, 0
0, 0
0, 0
0, 0
0, 0
0, 0
0, 0
0, 0
0, 0
0, 0
0, 0
0, 0
0, 1
0, 0
1, 0
0, 0
0, 0
1, 0
0, 0
0, 0
0, 0
0, 0
0, 0
0, 0
0, 0
0, 1
0, 0
0, 0
0, 0
0, 0
0, 0
0, 0
0, 0
0, 0
0, 0
0, 0
0, 0
2, 0
0, 0
0, 0
0, 0
0, 0
0, 0
0, 0
0, 0
0, 0
0, 0
0, 1
0, 0
0, 0
0, 0
0, 0
0, 0
0, 0
0, 0
0, 0
0, 0
0, 0
0, 0
0, 0
0, 0
0, 0
0, 0
0, 0
0, 0
0, 0
0, 0
0, 0
0, 0
0, 0
0, 0
0, 0
0, 0
0, 0
0, 0
0, 0
0, 0
0, 0
0, 0
0, 0
0, 0
0, 0
0, 0
0, 0
0, 0
0, 0
0, 0
0, 0
0, 0
0, 0
0, 0
0, 0
0, 0
0, 0
0, 0
0, 0
0, 0
0, 0
0, 0
0, 0
0, 0
0, 0
0, 0
0, 0
0, 0
0, 0
0, 0
0, 0
0, 0
0, 0
0, 0
0, 0
0, 0
0, 0
0, 0
0, 0
0, 0
0, 0
0, 0
0, 0
0, 0
0, 0
0, 0
0, 0
0, 0
0, 0
0, 0
0, 0
0, 0
0, 0
0, 0
0, 0
0, 0
0, 0
0, 0
0, 0
0, 0
0, 0
0, 0
0, 0
0, 0
0, 0
0, 0
0, 0
0, 0
0, 0
0, 0
0, 0
0, 0
0, 0
0, 0
0, 0
0, 0
0, 0
0, 0
0, 0
1, 0
0, 0
0, 0
0, 0
0, 0
0, 0
0, 0
0, 0
0, 0
0, 0
0, 0
0, 0
0, 0
0, 0
0, 0
0, 0
0, 0
0, 0
0, 0
0, 0
0, 0
0, 0
0, 0
0, 0
0, 0
0, 0
0, 0
0, 0
0, 0
0, 0
0, 0
0, 0
0, 0
0, 0
0, 0
0, 0
0, 0
0, 0
0, 0
0, 0
0, 0
0, 0
0, 0
0, 0
0, 0
0, 0
0, 0
0, 0
0, 0
0, 0
0, 0
0, 0
0, 0
0, 0
0, 0
0, 0
0, 0
0, 0
0, 0
0, 0
0, 0
0, 0
0, 0
0, 0
0, 0
0, 0
0, 0
0, 0
0, 0
0, 0
0, 0
0, 0
0, 0
0, 0
0, 0
0, 0
0, 0
0, 0
0, 0
0, 0
0, 0
0, 0
0, 0
0, 0
0, 0
0, 0
0, 0
0, 0
0, 0
0, 0
0, 0
0, 0
0, 0
0, 0
0, 0
0, 0
0, 0
0, 0
0, 0
0, 0
0, 0
0, 0
0, 0
0, 0
0, 0
0, 0
0, 0
0, 0
0, 0
0, 0
0, 0
0, 0
0, 0
0, 0
0, 0
0, 0
0, 0
0, 0
0, 0
0, 0
0, 0
0, 0
0, 0
0, 0
0, 0
0, 0
0, 0
0, 0
0, 0
0, 0
0, 0
0, 0
0, 0
0, 0
0, 0
0, 0
0, 0
0, 0
0, 0
0, 0
0, 0
0, 0
0, 0
0, 0
0, 0
0, 0
0, 0
0, 0
0, 0
0, 0
0, 0
0, 0
0, 0
0, 0
0, 0
0, 0
0, 0
0, 0
0, 0
0, 0
0, 0
0, 0
0, 0
0, 0
0, 0
0, 0
0, 0
0, 0
0, 0
0, 0
0, 0
0, 0
0, 0
0, 0
0, 0
0, 0
0, 0
0, 0
0, 0
0, 0
0, 0
0, 0
0, 0
0, 0
0, 0
0, 0
0, 0
0, 0
0, 0
0, 0
0, 0
0, 0
0, 0
0, 0
0, 0
0, 0
0, 0
0, 0
0, 0
0, 0
0, 0
0, 0
0, 0
0, 0
0, 0
0, 0
0, 0
0, 0
0, 0
0, 0
0, 0
0, 0
0, 0
0, 0
0, 0
0, 0
0, 0
0, 0
0, 0
0, 0
0, 0
0, 0
0, 0
0, 0
0, 0
0, 0
0, 0
0, 0
0, 0
0, 0
0, 0
0, 0
0, 0
0, 0
0, 0
0, 0
0, 0
0, 0
0, 0
0, 0
0, 0
0, 0
0, 0
0, 0
0, 0
0, 0
0, 0
0, 0
0, 0
0, 0
0, 0
0, 0
0, 0
0, 0
0, 0
0, 0
0, 0
0, 0
0, 0
0, 0
0, 0
0, 0
0, 0
0, 0
0, 0
0, 0
0, 0
0, 0
0, 0
0, 0
0, 0
0, 0
0, 0
0, 0
0, 0
0, 0
0, 0
0, 0
0, 0
0, 0
0, 0
0, 0
0, 0
0, 0
0, 0
0, 0
0, 0
0, 0
0, 0
0, 0
0, 0
0, 0
0, 0
0, 0
0, 0
0, 0
0, 0
0, 0
0, 0
0, 0
0, 0
0, 0
0, 0
0, 0
0, 0
0, 0
0, 0
0, 0
0, 0
0, 0
0, 0
0, 0
0, 0
0, 0
0, 0
0, 0
0, 0
0, 0
0, 0
0, 0
0, 0
0, 0
0, 0
0, 0
0, 0
0, 0
0, 0
0, 0
0, 0
0, 0
0, 0
0, 0
0, 0
0, 0
0, 0
0, 0
0, 0
0, 0
0, 0
0, 0
0, 0
0, 0
#ENDOFDATA     end of spectrum data