File: host_upload/02-11-2024/rqc/uplink1/ps__0567_0717304816_000rfs_shot_72.msa
#FORMAT      : EMSA/MAS spectral data file
#VERSION     : TC202v2.0 PIXL
#TITLE       : Novarupta (sol567) subset1
#DATE        : 02-11-2024      Date in the format DD-MMM-YYYY, for example 07-JUL-2010
#TIME        :             The time of day at which the spectrum was recorded, in 24-hour format
#OWNER       : PIXL Flight Model       (PIXL will use this to indicate which instrument took the data.)
#NPOINTS     : 4096     Number of data points in the spectrum (This can be zero for configuration only files)
#NCOLUMNS    : 2     Number of data columns in the spectrum (This can be zero for configuration only files)
#XUNITS      : eV
#YUNITS      : COUNTS
#DATATYPE    : YY
#XPERCHAN    : 7.862, 7.881   eV per channel (separate by commas if more than one detector)
#OFFSET      : 18.5, -22.4         eV of first channel  (separate by commas if more than one detector
#SIGNALTYPE  : XRF
#YP_TEMP     : -1.742
#LIVETIME    : 8.83946, 8.64636   seconds (separate by commas if more than one detector)
#REALTIME    : 10, 10.0   seconds (separate by commas if more than one detector)
#SPECTRUM    : start of spectrum data
0, 0
0, 0
0, 0
0, 0
0, 0
0, 0
0, 0
0, 0
0, 0
0, 0
0, 0
0, 0
0, 0
0, 0
0, 0
0, 0
0, 0
0, 0
0, 0
0, 0
0, 0
0, 0
0, 0
0, 0
0, 0
0, 0
0, 0
0, 0
0, 0
0, 0
0, 0
0, 0
1, 0
0, 1
1, 1
0, 1
3, 1
0, 4
3, 4
6, 0
0, 5
3, 7
4, 2
5, 3
2, 1
4, 4
5, 4
1, 2
6, 4
6, 2
4, 5
10, 11
13, 10
13, 13
12, 18
8, 19
18, 6
11, 13
8, 9
14, 13
20, 20
21, 35
32, 40
52, 53
47, 51
33, 41
49, 46
42, 49
41, 37
64, 79
111, 124
187, 213
289, 369
416, 461
446, 510
434, 514
410, 456
315, 285
242, 235
119, 144
81, 72
45, 60
29, 33
32, 36
24, 35
27, 39
38, 26
28, 24
23, 28
13, 23
20, 24
22, 15
34, 25
60, 51
94, 111
139, 179
206, 252
235, 314
311, 336
317, 326
295, 270
226, 217
149, 167
99, 113
65, 62
58, 59
58, 56
75, 82
94, 108
143, 156
160, 189
180, 239
206, 219
192, 227
202, 210
156, 154
132, 141
96, 96
90, 104
76, 78
76, 84
68, 69
76, 69
43, 70
52, 48
30, 43
26, 27
22, 20
21, 16
13, 11
6, 14
2, 8
15, 9
8, 7
7, 8
4, 9
14, 8
18, 16
19, 30
17, 26
24, 34
25, 29
30, 31
18, 40
28, 20
17, 11
21, 7
12, 12
10, 6
16, 21
38, 36
51, 85
111, 128
168, 200
242, 273
326, 363
336, 424
390, 415
343, 369
300, 328
210, 243
159, 149
102, 87
57, 71
40, 43
31, 29
24, 28
44, 31
49, 55
63, 56
58, 63
57, 67
43, 56
45, 60
35, 39
31, 32
14, 20
10, 17
15, 4
9, 9
10, 9
13, 8
12, 10
10, 9
18, 15
12, 17
27, 18
24, 21
33, 45
38, 37
40, 49
54, 79
59, 66
52, 50
46, 51
37, 45
32, 21
27, 24
21, 26
25, 18
13, 21
11, 17
9, 16
14, 12
18, 11
9, 10
19, 17
13, 15
12, 20
23, 24
15, 24
12, 21
19, 19
20, 22
16, 17
15, 17
10, 7
11, 11
15, 17
10, 8
7, 8
9, 8
10, 9
8, 21
10, 15
18, 20
20, 24
20, 28
24, 18
28, 33
26, 23
31, 21
37, 33
16, 18
20, 21
17, 11
14, 12
12, 20
14, 15
8, 10
7, 11
21, 11
11, 10
20, 22
15, 22
20, 28
28, 27
29, 29
39, 48
32, 52
46, 47
47, 38
44, 51
40, 38
25, 44
28, 31
16, 20
12, 20
15, 23
19, 22
22, 22
33, 47
45, 63
90, 97
170, 192
266, 328
422, 556
707, 820
982, 1221
1245, 1509
1459, 1702
1621, 1713
1644, 1745
1451, 1550
1224, 1231
1025, 964
726, 695
465, 449
314, 267
166, 138
94, 99
58, 36
28, 35
20, 22
15, 21
16, 18
22, 13
14, 22
20, 13
19, 17
18, 22
36, 44
42, 55
74, 84
82, 131
149, 148
167, 174
223, 248
249, 272
256, 277
255, 253
201, 261
179, 182
149, 144
105, 103
76, 77
46, 40
33, 22
19, 19
16, 13
8, 13
4, 6
7, 10
8, 12
15, 9
6, 14
13, 11
11, 13
9, 16
10, 8
8, 6
4, 11
7, 13
9, 10
7, 6
6, 3
2, 8
9, 11
4, 2
3, 2
6, 5
9, 7
7, 7
6, 10
7, 8
3, 4
7, 6
12, 4
7, 3
6, 9
6, 5
6, 9
6, 7
4, 9
5, 6
7, 10
7, 8
6, 3
8, 6
8, 6
9, 8
6, 4
8, 9
7, 8
7, 8
4, 6
8, 9
2, 12
5, 14
8, 6
4, 10
2, 9
8, 10
9, 6
9, 13
8, 7
12, 8
11, 12
10, 14
12, 16
5, 8
6, 7
7, 5
9, 8
5, 4
5, 15
7, 8
7, 8
6, 5
3, 7
5, 9
3, 4
2, 7
6, 4
12, 4
9, 6
4, 6
2, 4
6, 4
6, 13
3, 11
7, 1
5, 8
4, 5
8, 8
8, 6
7, 1
4, 2
6, 7
4, 8
6, 8
6, 7
3, 7
4, 6
9, 3
6, 6
3, 10
3, 5
2, 4
4, 4
4, 7
5, 4
5, 4
3, 3
2, 6
5, 1
5, 5
3, 4
4, 3
4, 3
3, 5
6, 4
6, 7
8, 5
4, 11
5, 3
6, 6
2, 6
3, 4
5, 3
4, 5
5, 3
2, 2
5, 4
2, 3
4, 3
3, 1
5, 3
5, 5
5, 4
8, 3
3, 7
2, 4
7, 1
4, 5
2, 3
4, 7
4, 6
2, 4
2, 1
5, 5
3, 5
2, 2
4, 4
2, 1
4, 7
1, 3
4, 6
2, 4
3, 5
4, 4
3, 5
0, 7
3, 4
2, 6
2, 5
2, 2
3, 2
0, 5
2, 5
4, 4
1, 1
4, 5
2, 4
2, 2
4, 2
1, 3
4, 2
4, 1
1, 2
0, 2
2, 6
6, 2
6, 4
5, 6
4, 3
5, 3
1, 5
3, 1
5, 1
1, 0
3, 1
3, 6
1, 3
1, 2
2, 2
1, 4
2, 3
0, 7
1, 4
0, 1
2, 5
2, 1
0, 1
2, 1
2, 4
1, 2
1, 0
2, 2
2, 5
2, 4
2, 8
1, 0
1, 4
1, 1
2, 4
1, 2
3, 3
2, 4
2, 1
3, 5
3, 0
1, 2
2, 2
3, 2
2, 4
2, 2
2, 3
2, 0
3, 1
1, 2
0, 2
1, 1
2, 0
2, 2
2, 1
2, 1
6, 2
1, 1
4, 5
2, 5
1, 1
1, 1
4, 1
1, 2
3, 4
0, 2
0, 0
0, 0
2, 2
1, 2
1, 1
1, 1
3, 3
2, 3
2, 3
1, 0
6, 1
1, 1
1, 4
2, 0
1, 1
2, 3
2, 2
1, 3
3, 2
3, 2
1, 2
2, 2
3, 1
1, 2
3, 2
3, 1
0, 0
1, 1
1, 1
0, 1
3, 1
3, 1
4, 0
1, 1
1, 1
3, 1
0, 0
0, 1
0, 3
1, 3
0, 0
3, 2
1, 1
1, 1
2, 0
0, 1
1, 0
0, 3
1, 2
1, 2
1, 1
1, 2
1, 1
0, 0
1, 1
1, 0
2, 1
0, 2
3, 1
4, 1
0, 0
4, 2
2, 2
0, 1
0, 0
0, 0
1, 1
0, 0
0, 1
2, 1
2, 0
2, 2
1, 2
0, 1
2, 0
1, 1
1, 1
0, 0
1, 1
0, 1
0, 1
1, 1
1, 2
0, 0
1, 2
1, 0
1, 1
3, 1
1, 0
0, 0
0, 0
2, 1
1, 0
3, 0
0, 1
0, 0
1, 0
0, 0
1, 0
1, 2
3, 0
0, 1
1, 1
1, 2
0, 4
0, 1
2, 1
0, 1
0, 0
0, 2
2, 0
0, 1
3, 0
1, 0
1, 1
1, 1
0, 1
3, 0
1, 0
0, 0
0, 0
0, 0
0, 0
1, 1
0, 0
1, 0
1, 1
1, 0
1, 0
2, 1
2, 1
0, 0
0, 0
1, 1
0, 0
0, 0
0, 0
0, 0
1, 0
0, 0
0, 0
0, 1
0, 0
0, 0
0, 1
1, 0
0, 0
0, 2
0, 0
0, 0
0, 1
0, 0
0, 0
0, 1
0, 0
0, 1
0, 1
1, 3
0, 0
0, 1
0, 0
0, 0
1, 1
0, 0
1, 1
0, 0
1, 1
0, 0
2, 1
0, 1
0, 0
0, 0
0, 1
0, 0
0, 0
0, 0
1, 0
1, 1
0, 0
0, 1
0, 0
0, 0
0, 1
0, 0
0, 0
0, 0
0, 0
0, 0
0, 0
1, 1
1, 1
1, 0
0, 0
0, 0
0, 0
0, 0
0, 0
0, 0
0, 0
0, 0
1, 0
0, 0
0, 0
0, 1
0, 0
0, 0
0, 0
1, 1
0, 0
0, 1
0, 1
1, 0
0, 0
0, 0
0, 0
1, 1
0, 1
0, 0
0, 0
2, 0
1, 0
0, 0
2, 0
0, 0
0, 0
0, 0
0, 0
0, 1
0, 0
1, 0
0, 0
0, 0
0, 0
1, 1
1, 2
0, 1
0, 2
0, 0
0, 0
0, 0
0, 0
0, 0
2, 0
0, 0
0, 1
0, 1
1, 1
0, 2
0, 0
0, 0
0, 1
0, 1
0, 0
0, 0
0, 0
1, 0
2, 0
2, 0
0, 0
0, 0
0, 0
0, 2
0, 0
0, 0
0, 0
0, 0
0, 0
0, 0
0, 0
0, 0
0, 0
0, 0
0, 0
0, 0
0, 0
0, 0
0, 1
0, 0
0, 0
0, 0
0, 0
1, 0
1, 0
0, 0
0, 0
0, 0
0, 0
0, 0
1, 0
0, 0
0, 1
0, 0
0, 0
0, 0
0, 0
0, 0
1, 0
0, 0
0, 0
0, 0
0, 0
0, 0
1, 0
0, 1
1, 0
0, 1
0, 0
1, 0
0, 0
0, 1
0, 0
1, 0
0, 0
0, 0
0, 0
0, 0
0, 0
0, 0
0, 0
0, 0
0, 1
0, 0
0, 0
0, 0
0, 0
0, 0
0, 0
0, 0
0, 0
0, 0
0, 0
0, 0
0, 0
0, 0
0, 0
0, 0
0, 0
0, 0
0, 0
0, 1
0, 0
0, 0
0, 0
0, 0
0, 0
0, 0
0, 0
0, 0
0, 0
0, 0
0, 0
0, 0
0, 0
0, 0
0, 0
0, 0
0, 0
0, 0
0, 0
0, 0
0, 0
0, 0
0, 0
0, 0
0, 0
0, 0
0, 0
0, 0
0, 0
0, 0
0, 0
0, 0
1, 0
1, 0
0, 0
0, 0
0, 0
0, 0
0, 0
0, 0
0, 0
0, 0
0, 0
0, 0
0, 0
0, 0
0, 0
0, 0
0, 0
0, 0
0, 0
0, 0
0, 0
0, 0
0, 0
0, 0
0, 0
0, 0
0, 0
0, 0
0, 0
0, 0
0, 0
0, 0
0, 0
0, 0
0, 0
0, 0
0, 0
0, 0
0, 0
0, 0
0, 0
0, 0
0, 0
0, 0
1, 0
0, 0
0, 0
0, 0
0, 0
0, 0
0, 0
0, 0
0, 0
0, 0
0, 0
0, 0
0, 0
0, 0
0, 0
0, 0
0, 0
0, 0
0, 0
0, 0
0, 0
0, 0
0, 0
0, 0
0, 0
0, 0
0, 0
0, 0
0, 0
0, 0
0, 0
0, 0
0, 0
0, 0
0, 0
0, 0
0, 0
0, 0
0, 0
0, 0
0, 0
0, 0
0, 0
0, 0
0, 0
0, 0
0, 0
0, 0
0, 0
0, 0
0, 0
0, 0
0, 0
0, 0
0, 0
0, 0
0, 0
0, 0
0, 0
0, 0
0, 0
0, 0
0, 0
0, 0
0, 0
0, 0
0, 0
0, 0
0, 0
0, 0
0, 0
0, 0
0, 0
0, 0
0, 0
0, 0
0, 0
0, 0
0, 0
0, 0
0, 0
0, 0
0, 0
0, 0
0, 0
0, 0
0, 0
0, 0
0, 0
0, 0
0, 0
0, 0
0, 0
0, 0
0, 0
0, 0
0, 0
0, 0
0, 0
0, 0
0, 0
0, 0
0, 0
0, 0
0, 0
0, 0
0, 0
0, 0
0, 0
0, 0
0, 0
0, 0
0, 0
0, 0
0, 0
0, 0
0, 0
0, 0
0, 0
0, 0
0, 0
0, 0
0, 0
0, 0
0, 0
0, 0
0, 0
0, 0
0, 0
0, 0
0, 0
0, 0
0, 0
0, 0
0, 0
0, 0
0, 0
0, 0
0, 0
0, 0
0, 0
0, 0
0, 0
0, 0
0, 0
0, 0
0, 0
0, 0
0, 0
0, 0
0, 0
0, 0
0, 0
0, 0
0, 0
0, 0
0, 0
0, 0
0, 0
0, 0
0, 0
0, 0
0, 0
0, 0
0, 0
0, 0
0, 0
0, 0
0, 0
0, 0
0, 0
0, 0
0, 0
0, 0
0, 0
0, 0
0, 0
0, 0
0, 0
0, 0
0, 0
0, 0
0, 0
0, 0
0, 0
0, 0
0, 0
0, 0
0, 0
0, 0
0, 0
0, 0
0, 0
0, 0
0, 0
0, 0
0, 0
0, 0
0, 0
0, 0
0, 0
0, 0
0, 0
0, 0
0, 0
0, 0
0, 0
0, 0
0, 0
0, 0
0, 0
0, 0
0, 0
0, 0
0, 0
0, 0
0, 0
0, 0
0, 0
0, 0
0, 0
0, 0
0, 0
0, 0
0, 0
0, 0
0, 0
0, 0
0, 0
0, 0
0, 0
0, 0
0, 0
0, 0
0, 0
0, 0
0, 0
0, 0
0, 0
0, 0
0, 0
0, 0
0, 0
0, 0
0, 0
0, 0
0, 0
0, 0
0, 0
0, 0
0, 0
0, 0
0, 0
0, 0
0, 0
0, 0
0, 0
0, 0
0, 0
0, 0
0, 0
0, 0
0, 0
0, 0
0, 0
0, 0
0, 0
0, 0
0, 0
0, 0
0, 0
0, 0
0, 0
0, 0
0, 0
0, 0
0, 0
0, 0
0, 0
0, 0
0, 0
0, 0
0, 0
0, 0
0, 0
0, 0
0, 0
0, 0
0, 0
0, 0
0, 0
0, 0
0, 0
0, 0
0, 0
0, 0
0, 0
0, 0
0, 0
0, 0
0, 0
0, 0
0, 0
0, 0
0, 0
0, 0
0, 0
0, 0
0, 0
0, 0
0, 0
0, 0
0, 0
0, 0
0, 0
0, 0
0, 0
0, 0
0, 0
0, 0
0, 0
0, 0
0, 0
0, 0
0, 0
0, 0
0, 0
0, 0
0, 0
0, 0
0, 0
0, 0
0, 0
0, 0
0, 0
0, 0
0, 0
0, 0
0, 0
0, 0
0, 0
0, 0
0, 0
0, 0
0, 0
0, 0
0, 0
0, 0
0, 0
0, 0
0, 0
0, 0
0, 0
0, 0
0, 0
0, 0
0, 0
0, 0
0, 0
0, 0
0, 0
0, 0
0, 0
0, 0
0, 0
0, 0
0, 0
0, 0
0, 0
0, 0
0, 0
0, 0
0, 0
0, 0
0, 0
0, 0
0, 0
0, 0
0, 0
0, 0
0, 0
0, 0
0, 0
0, 0
0, 0
0, 0
0, 0
0, 0
0, 0
0, 0
0, 0
0, 0
0, 0
0, 0
0, 0
0, 0
0, 0
0, 0
0, 0
0, 0
0, 0
0, 0
0, 0
#ENDOFDATA     end of spectrum data