File: host_upload/02-11-2024/rqc/uplink1/ps__0567_0717304816_000rfs_shot_108.msa
#FORMAT      : EMSA/MAS spectral data file
#VERSION     : TC202v2.0 PIXL
#TITLE       : Novarupta (sol567) subset1
#DATE        : 02-11-2024      Date in the format DD-MMM-YYYY, for example 07-JUL-2010
#TIME        :             The time of day at which the spectrum was recorded, in 24-hour format
#OWNER       : PIXL Flight Model       (PIXL will use this to indicate which instrument took the data.)
#NPOINTS     : 4096     Number of data points in the spectrum (This can be zero for configuration only files)
#NCOLUMNS    : 2     Number of data columns in the spectrum (This can be zero for configuration only files)
#XUNITS      : eV
#YUNITS      : COUNTS
#DATATYPE    : YY
#XPERCHAN    : 7.862, 7.881   eV per channel (separate by commas if more than one detector)
#OFFSET      : 18.5, -22.4         eV of first channel  (separate by commas if more than one detector
#SIGNALTYPE  : XRF
#YP_TEMP     : -0.555
#LIVETIME    : 8.82644, 8.83153   seconds (separate by commas if more than one detector)
#REALTIME    : 10, 10.0   seconds (separate by commas if more than one detector)
#SPECTRUM    : start of spectrum data
0, 0
0, 0
0, 0
0, 0
0, 0
0, 0
0, 0
0, 0
0, 0
0, 0
0, 0
0, 0
0, 0
0, 0
0, 0
0, 0
0, 0
0, 0
0, 0
0, 0
0, 0
0, 0
0, 0
0, 0
0, 0
0, 0
0, 0
0, 0
0, 0
0, 0
0, 1
0, 0
0, 1
1, 0
3, 1
1, 2
0, 5
4, 3
4, 1
4, 4
1, 6
0, 2
1, 1
1, 0
3, 4
1, 2
5, 1
6, 3
5, 1
6, 2
5, 8
8, 6
15, 10
11, 16
14, 16
13, 14
13, 11
14, 12
10, 13
10, 5
26, 11
30, 23
35, 58
47, 28
36, 41
50, 37
37, 29
39, 26
44, 37
64, 81
114, 119
206, 240
323, 308
403, 444
491, 503
501, 525
387, 446
329, 334
211, 205
151, 126
97, 68
41, 45
41, 27
28, 32
30, 30
33, 25
32, 32
29, 27
29, 21
19, 21
27, 15
22, 20
22, 34
57, 45
91, 100
131, 156
201, 213
269, 282
285, 307
315, 360
262, 269
213, 195
171, 158
106, 107
65, 64
72, 67
64, 59
74, 80
90, 96
134, 139
167, 182
202, 229
224, 220
224, 215
205, 206
169, 162
141, 112
105, 88
88, 89
80, 83
70, 84
75, 69
58, 64
61, 59
56, 35
37, 37
24, 23
22, 28
18, 17
17, 17
16, 13
8, 8
5, 9
6, 11
5, 8
9, 9
4, 6
24, 9
18, 20
21, 25
24, 27
31, 29
31, 29
27, 28
17, 21
10, 11
7, 8
10, 9
13, 6
18, 14
33, 41
44, 59
88, 115
138, 157
200, 232
253, 292
331, 364
319, 378
356, 345
257, 244
205, 208
138, 122
95, 74
59, 45
34, 28
27, 29
23, 28
29, 41
47, 37
53, 65
64, 45
55, 65
55, 38
33, 50
28, 44
22, 21
16, 21
12, 14
7, 10
8, 7
4, 8
10, 7
2, 11
11, 10
20, 16
9, 12
17, 18
30, 29
30, 33
39, 49
56, 58
65, 48
56, 60
52, 66
43, 44
32, 37
34, 35
20, 26
23, 17
13, 13
17, 21
13, 10
18, 9
20, 12
11, 21
15, 15
8, 20
15, 19
20, 19
18, 23
18, 21
17, 16
13, 18
19, 12
17, 16
17, 17
11, 20
10, 16
18, 12
10, 4
8, 17
12, 15
12, 7
13, 13
13, 18
14, 19
13, 18
17, 33
21, 30
25, 33
22, 36
32, 42
27, 28
26, 27
24, 17
21, 17
13, 17
9, 18
10, 12
12, 12
12, 13
13, 9
15, 8
11, 12
16, 26
31, 14
21, 24
33, 34
33, 51
37, 40
49, 47
62, 47
50, 41
36, 45
52, 31
26, 21
30, 17
27, 17
27, 17
17, 19
19, 21
26, 49
48, 66
80, 84
158, 189
227, 289
436, 544
654, 779
960, 1073
1183, 1420
1540, 1669
1687, 1774
1691, 1751
1652, 1645
1371, 1287
1117, 1024
829, 673
516, 454
310, 258
199, 155
107, 84
53, 43
30, 27
17, 18
10, 21
20, 10
17, 22
10, 18
15, 14
23, 18
27, 24
36, 29
56, 55
62, 93
104, 127
126, 162
165, 189
210, 220
220, 288
272, 271
253, 255
228, 245
192, 199
184, 122
120, 97
68, 83
51, 43
25, 29
17, 18
9, 8
19, 8
7, 10
7, 7
8, 13
15, 10
7, 11
11, 16
11, 12
14, 12
14, 11
14, 14
12, 14
9, 13
11, 8
8, 5
5, 5
6, 6
6, 4
4, 4
7, 12
6, 5
6, 8
6, 7
3, 1
4, 2
8, 4
3, 3
6, 5
5, 12
4, 6
11, 5
4, 6
5, 4
5, 7
5, 6
7, 5
9, 7
7, 6
11, 11
8, 4
6, 9
5, 8
8, 7
7, 6
6, 4
2, 8
5, 7
3, 12
8, 1
5, 8
11, 5
9, 6
9, 9
15, 8
15, 15
13, 12
15, 16
16, 6
16, 7
9, 12
10, 8
6, 5
4, 10
8, 4
9, 7
5, 5
9, 6
2, 8
3, 5
4, 3
6, 4
2, 5
3, 10
6, 6
3, 9
3, 10
2, 5
4, 5
2, 4
5, 5
8, 6
4, 7
4, 6
3, 4
2, 4
6, 5
4, 7
6, 12
6, 5
4, 3
3, 2
2, 6
9, 2
7, 10
1, 4
5, 6
12, 7
10, 11
4, 8
5, 5
6, 6
2, 4
3, 3
5, 3
2, 9
5, 5
2, 7
2, 3
3, 8
4, 5
5, 6
7, 4
4, 3
6, 5
6, 5
8, 8
3, 8
10, 3
3, 4
6, 5
4, 2
6, 2
5, 4
4, 8
3, 5
6, 3
2, 4
4, 4
2, 10
1, 4
1, 4
2, 1
4, 5
1, 3
4, 3
2, 6
3, 5
0, 8
2, 6
1, 5
5, 2
1, 6
3, 4
6, 4
1, 4
4, 3
5, 3
7, 4
1, 2
5, 4
1, 7
1, 5
3, 3
2, 4
3, 3
1, 6
1, 2
2, 2
1, 8
1, 3
3, 2
1, 5
3, 2
4, 5
4, 1
5, 2
0, 2
0, 0
2, 3
4, 2
3, 2
2, 1
3, 2
2, 5
3, 2
3, 4
0, 1
0, 2
2, 4
2, 1
2, 3
1, 1
4, 0
4, 1
3, 2
4, 0
1, 1
1, 5
0, 4
2, 3
2, 3
0, 3
5, 1
0, 2
1, 1
2, 1
0, 3
1, 2
4, 2
2, 4
3, 3
0, 1
3, 4
1, 1
3, 1
4, 3
2, 0
0, 2
1, 4
5, 3
0, 3
2, 1
1, 4
1, 4
5, 2
0, 7
4, 0
0, 2
4, 4
3, 2
1, 1
1, 2
3, 1
2, 2
0, 3
1, 0
6, 4
4, 3
1, 3
5, 4
0, 5
1, 0
4, 2
1, 6
2, 2
4, 4
1, 0
1, 2
1, 1
2, 1
0, 1
2, 7
3, 1
2, 3
5, 2
0, 2
1, 0
3, 1
3, 0
1, 1
1, 1
0, 2
1, 1
0, 1
2, 3
3, 0
2, 0
2, 2
2, 1
3, 2
3, 3
2, 1
0, 3
1, 2
2, 1
3, 2
4, 0
1, 2
1, 1
1, 2
0, 1
0, 1
1, 1
2, 0
0, 1
1, 1
0, 0
1, 0
2, 1
0, 0
0, 3
1, 1
1, 2
1, 1
0, 2
0, 2
1, 1
2, 1
3, 0
0, 1
1, 2
1, 0
2, 0
0, 0
1, 0
1, 1
1, 1
2, 1
0, 2
0, 0
0, 0
0, 2
2, 0
1, 1
0, 0
1, 1
0, 2
2, 2
1, 1
2, 1
2, 1
0, 0
1, 3
2, 3
0, 3
1, 2
1, 1
2, 1
0, 0
1, 0
1, 2
1, 1
1, 0
1, 0
3, 0
2, 1
0, 0
1, 0
1, 2
1, 2
0, 0
2, 0
2, 0
0, 0
1, 0
2, 0
2, 2
0, 0
0, 0
0, 0
0, 1
2, 0
1, 1
0, 1
1, 0
0, 2
0, 0
1, 0
0, 3
0, 0
1, 1
0, 0
0, 1
1, 0
1, 0
0, 1
1, 0
0, 1
1, 0
1, 2
0, 2
0, 0
1, 1
2, 1
1, 0
1, 0
2, 0
1, 0
0, 0
2, 0
0, 0
1, 1
0, 0
0, 3
0, 0
0, 0
1, 0
0, 0
0, 4
0, 0
0, 0
0, 0
2, 1
0, 0
1, 1
2, 0
0, 2
0, 1
0, 0
2, 1
0, 1
0, 1
0, 0
1, 0
2, 0
1, 0
0, 1
0, 1
1, 1
0, 0
0, 2
0, 0
0, 0
1, 1
0, 0
1, 1
0, 0
0, 1
0, 0
0, 1
0, 0
1, 0
0, 0
0, 0
0, 2
0, 1
0, 0
0, 0
0, 1
1, 0
1, 0
0, 0
0, 0
0, 0
0, 0
1, 1
0, 0
0, 0
1, 1
0, 0
0, 0
0, 0
0, 1
0, 0
0, 1
0, 1
0, 0
0, 0
0, 0
0, 0
1, 0
0, 0
0, 0
0, 0
0, 0
1, 0
0, 0
0, 0
0, 0
1, 0
0, 0
0, 0
1, 1
0, 1
0, 1
0, 1
0, 0
1, 1
0, 0
0, 2
1, 0
0, 0
0, 1
0, 1
0, 1
0, 0
0, 0
0, 0
0, 0
0, 0
0, 1
0, 0
0, 0
0, 0
0, 0
0, 0
0, 1
0, 0
0, 0
0, 0
0, 0
0, 1
0, 1
0, 0
0, 0
1, 1
0, 1
0, 1
0, 0
0, 0
0, 0
0, 0
0, 0
0, 0
1, 0
1, 0
1, 1
0, 0
0, 0
0, 0
0, 0
0, 0
0, 0
0, 1
0, 0
0, 0
0, 1
0, 0
1, 0
0, 0
0, 0
1, 0
0, 0
1, 0
0, 0
0, 0
0, 0
0, 0
0, 0
0, 0
0, 0
0, 0
0, 0
0, 1
0, 0
0, 1
0, 0
0, 0
0, 0
0, 0
1, 0
0, 0
0, 0
0, 0
0, 0
0, 0
0, 1
0, 0
0, 0
0, 0
0, 0
1, 0
1, 0
0, 0
0, 0
1, 0
0, 0
0, 0
0, 0
0, 0
0, 0
0, 0
0, 0
0, 0
0, 0
0, 0
1, 1
0, 0
0, 0
0, 0
2, 0
0, 1
0, 0
0, 0
0, 0
0, 0
0, 0
0, 0
0, 0
0, 0
0, 0
0, 0
0, 0
0, 0
0, 0
0, 0
0, 0
0, 0
0, 0
0, 0
1, 1
0, 0
0, 0
0, 0
0, 0
0, 0
0, 0
0, 0
0, 0
0, 0
0, 0
0, 0
0, 0
0, 0
0, 0
0, 0
0, 0
0, 0
0, 0
0, 0
0, 0
0, 0
0, 0
0, 0
0, 0
0, 0
0, 0
0, 0
0, 0
0, 0
0, 0
0, 0
0, 0
0, 0
0, 0
0, 0
1, 0
0, 0
0, 0
0, 0
0, 0
0, 0
0, 0
0, 0
0, 0
0, 0
0, 0
1, 0
0, 0
0, 0
0, 0
0, 0
0, 0
0, 0
0, 0
0, 0
0, 0
0, 0
0, 0
0, 0
0, 0
0, 0
0, 0
0, 0
0, 0
0, 0
0, 0
0, 0
1, 0
0, 0
0, 0
0, 0
0, 0
0, 0
0, 0
0, 0
0, 0
0, 0
0, 0
0, 0
0, 0
0, 0
0, 0
0, 0
0, 0
0, 0
0, 0
0, 0
0, 0
0, 0
0, 1
0, 0
0, 0
0, 0
0, 0
0, 0
0, 0
0, 0
0, 0
0, 0
0, 0
0, 0
0, 0
0, 0
0, 0
0, 0
0, 0
0, 0
0, 0
0, 0
0, 0
0, 0
0, 0
0, 0
0, 0
0, 0
0, 1
0, 0
0, 0
0, 0
0, 0
0, 0
0, 0
0, 0
0, 0
0, 0
0, 0
0, 0
0, 0
0, 0
0, 0
0, 0
0, 0
0, 0
0, 0
0, 0
0, 0
0, 0
0, 0
0, 0
0, 0
0, 0
0, 0
0, 0
0, 0
0, 0
0, 0
0, 0
0, 0
0, 0
0, 0
0, 0
0, 0
0, 0
0, 0
0, 0
0, 0
0, 0
0, 0
0, 0
0, 0
0, 0
0, 0
0, 0
0, 0
0, 0
0, 0
0, 0
0, 0
0, 0
0, 0
0, 0
0, 0
0, 0
0, 0
0, 0
0, 0
0, 0
0, 0
0, 0
0, 0
0, 0
0, 0
0, 0
0, 0
0, 0
0, 0
0, 0
0, 0
0, 0
0, 0
0, 0
0, 0
0, 0
0, 0
0, 0
0, 0
0, 0
0, 0
0, 0
0, 0
0, 0
0, 0
0, 0
0, 0
0, 0
0, 0
0, 0
0, 0
0, 0
0, 0
0, 0
0, 0
0, 0
0, 0
0, 0
0, 0
0, 0
0, 0
0, 0
0, 0
0, 0
0, 0
0, 0
0, 0
0, 0
0, 0
0, 0
0, 0
0, 0
0, 0
0, 0
0, 0
0, 0
0, 0
0, 0
0, 0
0, 0
0, 0
0, 0
0, 0
0, 0
0, 0
0, 0
0, 0
0, 0
0, 0
0, 0
0, 0
0, 0
0, 0
0, 0
0, 0
0, 0
0, 0
0, 0
0, 0
0, 0
0, 0
0, 0
0, 0
0, 0
0, 0
0, 0
0, 0
0, 0
0, 0
0, 0
0, 0
0, 0
0, 0
0, 0
0, 0
0, 0
0, 0
0, 0
0, 0
0, 0
0, 0
0, 0
0, 0
0, 0
0, 0
0, 0
0, 0
0, 0
0, 0
0, 0
0, 0
0, 0
0, 0
0, 0
0, 0
0, 0
0, 0
0, 0
0, 0
0, 0
0, 0
0, 0
0, 0
0, 0
0, 0
0, 0
0, 0
0, 0
0, 0
0, 0
0, 0
0, 0
0, 0
0, 0
0, 0
0, 0
0, 0
0, 0
0, 0
0, 0
0, 0
0, 0
0, 0
0, 0
0, 0
0, 0
0, 0
0, 0
0, 0
0, 0
0, 0
0, 0
0, 0
0, 0
0, 0
0, 0
0, 0
0, 0
0, 0
0, 0
0, 0
0, 0
0, 0
0, 0
0, 0
0, 0
0, 0
0, 0
0, 0
0, 0
0, 0
0, 0
0, 0
0, 0
0, 0
0, 0
0, 0
0, 0
0, 0
0, 0
0, 0
0, 0
0, 0
0, 0
0, 0
0, 0
0, 0
0, 0
0, 0
0, 0
0, 0
0, 0
0, 0
0, 0
0, 0
0, 0
0, 0
0, 0
0, 0
0, 0
0, 0
0, 0
0, 0
0, 0
0, 0
0, 0
0, 0
0, 0
0, 0
0, 0
0, 0
0, 0
0, 0
0, 0
0, 0
0, 0
0, 0
0, 0
0, 0
0, 0
0, 0
0, 0
0, 0
0, 0
0, 0
0, 0
0, 0
0, 0
0, 0
0, 0
0, 0
0, 0
0, 0
0, 0
0, 0
0, 0
0, 0
0, 0
0, 0
0, 0
0, 0
0, 0
0, 0
0, 0
0, 0
0, 0
0, 0
0, 0
0, 0
0, 0
0, 0
0, 0
0, 0
0, 0
0, 0
0, 0
0, 0
0, 0
0, 0
0, 0
0, 0
0, 0
0, 0
0, 0
0, 0
0, 0
0, 0
0, 0
0, 0
0, 0
0, 0
0, 0
0, 0
0, 0
0, 0
0, 0
0, 0
0, 0
0, 0
0, 0
0, 0
0, 0
0, 0
0, 0
0, 0
0, 0
0, 0
0, 0
0, 0
0, 0
0, 0
0, 0
0, 0
0, 0
0, 0
0, 0
0, 0
0, 0
#ENDOFDATA     end of spectrum data