File: host_upload/02-11-2024/rqc/uplink1/ps__0567_0717304816_000rfs_shot_193.msa
#FORMAT      : EMSA/MAS spectral data file
#VERSION     : TC202v2.0 PIXL
#TITLE       : Novarupta (sol567) subset1
#DATE        : 02-11-2024      Date in the format DD-MMM-YYYY, for example 07-JUL-2010
#TIME        :             The time of day at which the spectrum was recorded, in 24-hour format
#OWNER       : PIXL Flight Model       (PIXL will use this to indicate which instrument took the data.)
#NPOINTS     : 4096     Number of data points in the spectrum (This can be zero for configuration only files)
#NCOLUMNS    : 2     Number of data columns in the spectrum (This can be zero for configuration only files)
#XUNITS      : eV
#YUNITS      : COUNTS
#DATATYPE    : YY
#XPERCHAN    : 7.862, 7.881   eV per channel (separate by commas if more than one detector)
#OFFSET      : 18.5, -22.4         eV of first channel  (separate by commas if more than one detector
#SIGNALTYPE  : XRF
#YP_TEMP     : 0.536
#LIVETIME    : 8.84509, 8.8193   seconds (separate by commas if more than one detector)
#REALTIME    : 10, 10.0   seconds (separate by commas if more than one detector)
#SPECTRUM    : start of spectrum data
0, 0
0, 0
0, 0
0, 0
0, 0
0, 0
0, 0
0, 0
0, 0
0, 0
0, 0
0, 0
0, 0
0, 0
0, 0
0, 0
0, 0
0, 0
0, 0
0, 0
0, 0
0, 0
0, 0
0, 0
0, 0
0, 0
0, 0
0, 0
0, 0
0, 0
0, 0
0, 0
0, 1
0, 1
0, 1
3, 2
4, 2
3, 4
5, 1
3, 3
4, 3
3, 7
3, 5
2, 5
1, 4
4, 1
4, 3
6, 1
5, 3
2, 5
5, 10
10, 10
13, 12
12, 16
21, 20
17, 13
13, 12
6, 10
12, 14
10, 18
19, 23
20, 35
30, 32
30, 53
55, 49
36, 51
36, 42
29, 24
36, 54
49, 74
85, 114
173, 200
291, 383
354, 501
426, 537
420, 536
389, 479
298, 312
221, 271
115, 135
73, 93
46, 42
29, 30
29, 43
20, 39
35, 37
26, 35
24, 30
21, 37
15, 22
8, 7
12, 17
24, 30
33, 67
75, 92
127, 145
181, 238
211, 296
246, 333
305, 337
258, 290
202, 191
142, 173
82, 109
84, 74
59, 68
43, 55
58, 66
83, 97
125, 125
169, 202
178, 227
186, 221
184, 245
168, 203
140, 166
131, 148
117, 106
95, 83
70, 74
72, 74
70, 77
61, 60
56, 60
39, 51
32, 29
20, 30
28, 18
12, 17
11, 16
9, 11
12, 9
6, 9
8, 8
11, 10
9, 7
10, 8
14, 18
21, 30
21, 33
19, 21
26, 35
24, 33
17, 36
20, 23
13, 17
14, 10
8, 5
10, 14
11, 19
27, 34
43, 77
85, 114
144, 182
179, 288
275, 358
309, 413
357, 439
308, 380
297, 306
235, 232
144, 154
108, 92
54, 54
41, 40
37, 22
21, 24
23, 43
35, 47
58, 59
49, 50
52, 85
50, 53
35, 54
23, 39
16, 32
19, 16
9, 16
10, 12
7, 3
12, 8
10, 7
13, 5
9, 10
10, 10
10, 13
17, 20
22, 22
31, 38
44, 30
49, 54
50, 65
51, 64
50, 56
59, 54
41, 48
31, 35
28, 30
19, 22
15, 16
14, 14
11, 21
11, 14
11, 12
8, 12
4, 17
12, 20
15, 15
14, 13
15, 24
20, 17
18, 24
12, 14
11, 16
15, 14
10, 13
12, 11
12, 11
9, 20
8, 23
7, 16
12, 17
16, 11
10, 15
8, 9
9, 17
19, 21
29, 23
21, 31
23, 35
27, 36
24, 39
26, 28
29, 19
11, 21
15, 14
16, 12
13, 9
16, 8
11, 8
10, 18
10, 10
8, 18
13, 12
13, 16
18, 13
28, 35
32, 30
31, 64
37, 53
47, 51
42, 63
44, 59
35, 44
30, 42
27, 30
16, 30
23, 20
20, 17
17, 21
18, 26
25, 35
43, 55
59, 90
118, 157
221, 293
333, 487
596, 753
842, 1074
1134, 1357
1334, 1674
1604, 1868
1636, 2014
1506, 1713
1373, 1513
1104, 1105
757, 819
466, 519
294, 301
199, 160
131, 98
55, 50
36, 27
28, 30
16, 23
12, 12
15, 20
15, 23
22, 18
17, 31
18, 25
25, 40
41, 56
57, 69
78, 102
113, 140
154, 222
183, 252
232, 314
220, 277
281, 259
229, 235
203, 189
130, 167
127, 115
75, 80
53, 46
28, 17
22, 14
14, 13
21, 8
5, 6
5, 13
9, 12
10, 13
11, 12
17, 18
12, 14
13, 19
13, 8
16, 19
7, 7
6, 7
13, 8
7, 4
4, 7
2, 5
6, 8
7, 5
6, 5
5, 4
5, 7
7, 6
6, 5
6, 9
9, 11
9, 7
7, 7
4, 4
2, 2
7, 7
7, 10
6, 5
13, 7
7, 17
9, 4
5, 8
6, 6
6, 7
11, 7
3, 5
11, 2
8, 13
10, 6
9, 6
9, 3
9, 6
5, 6
9, 10
6, 4
10, 4
6, 8
5, 7
9, 15
12, 15
4, 12
14, 14
11, 14
12, 10
4, 8
6, 13
12, 2
4, 2
4, 8
9, 7
4, 4
9, 4
8, 4
9, 3
6, 10
5, 5
6, 4
5, 7
6, 8
3, 6
5, 9
4, 4
4, 8
4, 6
4, 7
3, 8
3, 5
3, 9
4, 6
4, 4
2, 8
4, 6
8, 7
3, 6
6, 2
4, 4
6, 5
9, 7
3, 1
5, 7
8, 4
4, 10
3, 5
3, 3
5, 9
3, 7
5, 7
5, 2
6, 7
2, 8
4, 5
6, 5
6, 3
3, 7
10, 4
1, 5
5, 4
3, 1
10, 8
4, 6
2, 8
6, 7
2, 6
3, 1
7, 4
3, 10
9, 5
3, 4
2, 3
6, 2
5, 5
4, 3
4, 2
4, 0
2, 4
4, 9
7, 3
5, 5
5, 3
1, 3
4, 5
2, 5
4, 1
4, 4
3, 3
3, 5
7, 5
2, 2
4, 3
3, 3
4, 3
7, 3
1, 5
1, 8
3, 3
0, 5
2, 6
2, 8
0, 2
0, 1
2, 6
2, 2
1, 2
8, 3
1, 4
2, 4
2, 1
6, 4
1, 3
1, 1
1, 2
3, 3
2, 4
0, 2
3, 4
2, 1
1, 0
2, 3
4, 1
4, 3
3, 1
2, 1
2, 3
3, 0
5, 2
0, 2
1, 2
0, 3
1, 0
1, 2
3, 4
1, 5
4, 2
2, 3
1, 2
1, 2
0, 4
0, 3
1, 2
3, 4
2, 3
4, 4
3, 1
3, 2
1, 2
2, 1
1, 3
1, 9
2, 1
3, 1
3, 2
2, 2
1, 1
2, 1
5, 2
0, 1
1, 1
0, 5
3, 2
0, 1
2, 3
3, 3
1, 1
2, 2
3, 4
1, 0
4, 3
3, 3
1, 3
1, 2
3, 3
2, 5
3, 2
0, 1
3, 3
2, 3
3, 4
5, 6
0, 2
1, 0
2, 2
0, 1
1, 1
3, 2
3, 6
1, 1
4, 1
2, 2
3, 0
2, 2
2, 0
1, 2
0, 1
0, 3
3, 2
5, 1
2, 2
1, 1
1, 1
2, 1
0, 1
0, 2
1, 3
2, 1
2, 4
1, 1
1, 3
1, 0
2, 3
1, 1
1, 0
1, 2
1, 2
1, 1
2, 0
0, 0
1, 2
1, 1
0, 1
1, 4
1, 5
4, 2
0, 4
0, 1
3, 1
0, 0
0, 2
2, 2
0, 2
1, 1
1, 6
1, 1
0, 0
4, 0
2, 2
1, 2
3, 0
4, 2
1, 2
2, 0
1, 2
1, 1
0, 4
0, 0
2, 3
1, 1
2, 0
0, 0
0, 0
1, 1
0, 1
1, 0
0, 2
0, 1
1, 1
0, 0
0, 1
2, 0
1, 0
0, 0
1, 0
0, 0
1, 0
1, 3
0, 0
1, 2
4, 2
0, 0
0, 0
0, 2
0, 3
0, 0
0, 1
0, 1
0, 0
0, 2
0, 1
0, 3
2, 1
0, 3
1, 2
1, 0
1, 0
0, 0
0, 0
0, 1
0, 0
0, 0
1, 2
2, 2
4, 1
0, 0
3, 0
0, 0
0, 1
0, 1
3, 2
0, 1
0, 2
0, 0
0, 1
0, 1
0, 2
0, 0
0, 1
0, 0
0, 2
1, 1
1, 1
0, 2
0, 2
0, 0
1, 0
0, 1
1, 0
0, 0
1, 1
0, 1
1, 2
0, 0
0, 1
0, 0
1, 0
1, 1
0, 0
0, 0
3, 1
1, 0
1, 0
0, 4
1, 1
0, 2
0, 1
0, 0
0, 0
0, 0
0, 0
0, 1
1, 0
0, 0
0, 1
0, 0
1, 1
0, 0
0, 1
0, 0
0, 0
0, 1
1, 1
0, 0
0, 0
0, 1
0, 0
0, 0
0, 0
1, 0
1, 0
1, 1
0, 2
0, 0
0, 0
0, 1
1, 0
0, 0
1, 0
0, 0
0, 1
0, 0
0, 0
0, 0
0, 0
0, 0
0, 0
0, 0
0, 0
0, 0
0, 0
0, 1
0, 0
0, 0
0, 1
0, 0
0, 1
1, 0
1, 0
0, 1
1, 0
0, 0
0, 0
0, 0
0, 0
0, 0
0, 0
0, 0
1, 0
0, 0
0, 0
0, 0
1, 0
0, 0
0, 0
0, 0
0, 0
0, 0
0, 0
0, 0
0, 0
2, 0
0, 0
0, 0
0, 0
0, 0
0, 0
0, 0
0, 3
0, 1
1, 0
0, 1
1, 0
0, 0
0, 0
0, 1
0, 0
0, 1
0, 0
1, 0
0, 0
1, 2
0, 0
0, 0
0, 0
0, 0
2, 1
0, 0
0, 0
0, 0
0, 0
1, 1
0, 0
0, 0
1, 0
0, 0
0, 0
0, 0
0, 1
0, 0
0, 0
1, 1
0, 0
0, 0
0, 0
0, 0
0, 0
0, 1
0, 0
0, 0
0, 0
1, 0
0, 1
0, 0
0, 0
0, 0
0, 0
0, 0
0, 0
0, 1
0, 0
0, 0
0, 1
0, 0
0, 0
0, 0
0, 0
0, 0
0, 0
0, 0
0, 0
0, 0
0, 1
1, 1
0, 0
0, 1
0, 2
0, 1
0, 1
0, 1
0, 1
1, 0
0, 1
0, 2
1, 1
0, 0
1, 1
0, 0
0, 1
0, 0
0, 0
0, 0
0, 0
0, 0
0, 0
0, 0
0, 0
0, 0
0, 0
0, 0
0, 0
0, 0
0, 0
0, 1
0, 0
0, 0
1, 0
0, 0
0, 0
1, 0
0, 0
0, 0
0, 0
0, 1
1, 0
0, 0
1, 0
0, 0
0, 0
0, 0
0, 0
0, 0
0, 0
0, 0
0, 0
0, 0
0, 0
0, 1
0, 0
0, 0
1, 0
0, 0
0, 1
1, 0
0, 1
0, 0
0, 0
0, 0
0, 0
0, 0
0, 0
0, 0
0, 0
0, 0
0, 0
0, 0
0, 0
0, 0
0, 0
0, 0
0, 0
0, 0
0, 0
0, 0
0, 0
0, 0
0, 0
0, 0
0, 0
1, 0
0, 0
0, 0
1, 0
0, 0
0, 0
0, 0
0, 0
0, 0
0, 0
0, 0
0, 0
0, 0
0, 0
0, 0
0, 0
0, 0
0, 0
0, 0
0, 0
0, 0
0, 0
0, 0
0, 0
0, 0
0, 0
0, 0
0, 0
0, 0
0, 0
0, 0
0, 0
0, 0
0, 0
0, 0
0, 0
0, 0
0, 0
0, 0
0, 0
0, 0
0, 0
0, 0
0, 0
0, 0
0, 0
0, 0
0, 0
0, 0
0, 0
0, 0
0, 0
0, 0
0, 0
0, 0
0, 0
0, 0
0, 0
0, 0
1, 0
0, 0
0, 0
0, 0
0, 0
0, 0
0, 0
0, 0
0, 0
0, 0
0, 0
0, 0
0, 0
0, 0
0, 0
0, 0
0, 0
0, 0
0, 0
0, 0
0, 0
0, 0
0, 0
0, 0
0, 0
0, 0
0, 0
0, 0
0, 0
0, 0
0, 0
0, 0
0, 0
0, 0
0, 0
0, 0
0, 0
0, 0
0, 0
0, 0
0, 0
0, 0
0, 0
0, 0
0, 0
0, 0
0, 0
0, 0
0, 0
0, 0
0, 0
0, 0
0, 0
0, 0
0, 0
0, 0
0, 0
0, 0
0, 0
0, 0
0, 0
0, 0
0, 0
0, 0
0, 0
0, 0
0, 0
0, 0
0, 0
0, 0
1, 0
0, 0
0, 0
0, 0
0, 0
0, 0
0, 0
0, 0
0, 0
0, 0
0, 0
0, 0
0, 0
0, 0
0, 0
0, 0
0, 0
0, 0
0, 0
0, 0
0, 0
0, 0
0, 0
0, 0
0, 0
0, 0
0, 0
0, 0
0, 0
0, 0
0, 0
0, 0
0, 0
0, 0
0, 0
0, 0
0, 0
0, 0
0, 0
0, 0
0, 0
0, 0
0, 0
0, 0
0, 0
0, 0
0, 0
0, 0
0, 0
0, 0
0, 0
0, 0
0, 0
0, 0
0, 0
0, 0
0, 0
0, 0
0, 0
0, 0
0, 0
0, 0
0, 0
0, 0
0, 0
0, 0
0, 0
0, 0
0, 0
0, 0
0, 0
0, 0
0, 0
0, 0
0, 0
0, 0
0, 0
0, 0
0, 0
0, 0
0, 0
0, 0
0, 0
1, 0
0, 0
0, 0
0, 0
0, 0
0, 0
0, 0
0, 0
0, 0
0, 0
0, 0
0, 0
0, 0
0, 0
0, 0
0, 0
0, 0
0, 0
0, 0
0, 0
0, 0
0, 0
0, 0
0, 0
0, 0
0, 0
0, 0
0, 0
0, 0
0, 0
0, 0
0, 0
0, 0
0, 0
0, 0
0, 0
0, 0
0, 0
0, 0
0, 0
0, 0
0, 0
0, 0
0, 0
0, 0
0, 0
0, 0
0, 0
0, 0
0, 0
0, 0
0, 0
0, 0
0, 0
0, 0
0, 0
0, 0
0, 0
0, 0
0, 0
0, 0
0, 0
0, 0
0, 0
0, 0
0, 0
0, 0
0, 0
0, 0
0, 0
0, 0
0, 0
0, 0
0, 0
0, 0
0, 0
0, 0
0, 0
0, 0
0, 0
0, 0
0, 0
0, 0
0, 0
0, 0
0, 0
0, 0
0, 0
0, 0
0, 0
0, 0
0, 0
0, 0
0, 0
0, 0
0, 0
0, 0
0, 0
0, 0
0, 0
0, 0
0, 0
0, 0
0, 0
0, 0
0, 0
0, 0
0, 0
0, 0
0, 0
0, 0
0, 0
0, 0
0, 0
0, 0
0, 0
0, 0
0, 0
0, 0
0, 0
0, 0
0, 0
0, 0
0, 0
0, 0
0, 0
0, 0
0, 0
0, 0
0, 0
0, 0
0, 0
0, 0
0, 0
0, 0
0, 0
0, 0
0, 0
0, 0
0, 0
0, 0
0, 0
0, 0
0, 0
0, 0
0, 0
0, 0
0, 0
0, 0
0, 0
0, 0
0, 0
0, 0
0, 0
0, 0
0, 0
0, 0
0, 0
0, 0
0, 0
0, 0
0, 0
0, 0
0, 0
0, 0
0, 0
0, 0
0, 0
0, 0
0, 0
0, 0
0, 0
0, 0
0, 0
0, 0
0, 0
0, 0
0, 0
0, 0
0, 0
0, 0
0, 0
0, 0
0, 0
0, 0
0, 0
0, 0
0, 0
0, 0
0, 0
0, 0
0, 0
0, 0
0, 0
0, 0
0, 0
0, 0
0, 0
0, 0
0, 0
0, 0
0, 0
0, 0
0, 0
0, 0
0, 0
0, 0
0, 0
0, 0
0, 0
0, 0
0, 0
0, 0
0, 0
0, 0
0, 0
0, 0
0, 0
0, 0
0, 0
0, 0
0, 0
0, 0
0, 0
#ENDOFDATA     end of spectrum data