File: host_upload/02-11-2024/rqc/uplink1/ps__0567_0717304816_000rfs_shot_428.msa
#FORMAT      : EMSA/MAS spectral data file
#VERSION     : TC202v2.0 PIXL
#TITLE       : Novarupta (sol567) subset1
#DATE        : 02-11-2024      Date in the format DD-MMM-YYYY, for example 07-JUL-2010
#TIME        :             The time of day at which the spectrum was recorded, in 24-hour format
#OWNER       : PIXL Flight Model       (PIXL will use this to indicate which instrument took the data.)
#NPOINTS     : 4096     Number of data points in the spectrum (This can be zero for configuration only files)
#NCOLUMNS    : 2     Number of data columns in the spectrum (This can be zero for configuration only files)
#XUNITS      : eV
#YUNITS      : COUNTS
#DATATYPE    : YY
#XPERCHAN    : 7.862, 7.881   eV per channel (separate by commas if more than one detector)
#OFFSET      : 18.5, -22.4         eV of first channel  (separate by commas if more than one detector
#SIGNALTYPE  : XRF
#YP_TEMP     : 1.69
#LIVETIME    : 8.8353, 8.8154   seconds (separate by commas if more than one detector)
#REALTIME    : 10, 10.0   seconds (separate by commas if more than one detector)
#SPECTRUM    : start of spectrum data
0, 0
0, 0
0, 0
0, 0
0, 0
0, 0
0, 0
0, 0
0, 0
0, 0
0, 0
0, 0
0, 0
0, 0
0, 0
0, 0
0, 0
0, 0
0, 0
0, 0
0, 0
0, 0
0, 0
0, 0
0, 0
0, 0
0, 0
0, 0
0, 0
0, 0
0, 0
0, 0
1, 0
0, 2
1, 1
0, 0
3, 0
3, 2
0, 4
6, 3
3, 5
3, 6
2, 5
2, 4
3, 5
3, 4
4, 2
3, 5
4, 5
5, 7
2, 3
8, 10
17, 13
9, 12
14, 22
18, 18
11, 14
3, 14
9, 8
12, 13
15, 17
21, 27
33, 44
44, 45
56, 60
42, 50
42, 49
35, 34
40, 42
62, 70
100, 114
191, 198
282, 300
356, 433
439, 504
466, 500
369, 444
325, 339
247, 211
152, 116
72, 80
55, 54
35, 24
33, 35
25, 34
32, 37
28, 42
31, 43
28, 17
22, 17
20, 10
15, 18
16, 28
38, 38
68, 89
127, 114
189, 193
231, 307
278, 284
285, 286
240, 278
195, 241
140, 163
96, 100
61, 73
45, 55
50, 50
46, 78
80, 94
110, 132
159, 164
190, 238
198, 215
218, 223
211, 215
166, 171
126, 124
115, 104
83, 83
79, 89
80, 80
71, 78
60, 67
61, 50
62, 48
32, 32
33, 24
20, 26
19, 19
17, 15
10, 14
14, 5
10, 8
7, 10
7, 4
8, 8
8, 15
11, 18
15, 17
27, 20
29, 25
30, 40
26, 30
30, 22
16, 20
13, 17
12, 16
5, 5
7, 9
16, 18
24, 23
35, 56
72, 84
138, 146
172, 241
272, 325
288, 381
344, 384
318, 411
302, 318
213, 242
160, 163
96, 85
51, 68
26, 39
20, 23
19, 28
34, 27
34, 37
55, 61
36, 56
46, 68
43, 49
47, 47
33, 38
25, 28
26, 19
23, 11
11, 8
5, 11
6, 11
7, 5
6, 10
12, 20
13, 8
17, 14
15, 22
25, 29
35, 40
35, 36
44, 65
62, 69
66, 71
57, 63
53, 64
51, 37
33, 41
25, 32
23, 30
16, 22
12, 21
18, 16
18, 13
8, 14
7, 14
13, 14
10, 13
11, 28
19, 21
12, 22
11, 21
19, 13
18, 18
9, 23
18, 15
10, 10
8, 13
9, 10
7, 7
7, 9
10, 8
15, 14
8, 13
13, 12
16, 13
16, 28
18, 24
18, 33
22, 28
30, 35
36, 35
16, 33
21, 25
18, 24
18, 20
19, 17
12, 22
11, 14
11, 14
12, 10
11, 6
11, 20
12, 14
17, 10
14, 22
16, 27
17, 23
33, 40
28, 34
43, 53
45, 55
45, 63
39, 52
46, 42
41, 33
30, 22
24, 28
24, 20
21, 20
12, 20
16, 21
32, 30
30, 61
56, 83
117, 158
214, 266
312, 426
510, 722
760, 1034
1076, 1337
1370, 1655
1565, 1843
1607, 1953
1579, 1728
1458, 1518
1152, 1154
868, 758
570, 527
333, 324
197, 200
108, 120
67, 44
47, 41
27, 18
17, 18
19, 7
14, 15
23, 20
16, 13
19, 18
17, 22
37, 24
36, 49
57, 78
87, 81
104, 147
133, 154
149, 217
251, 237
222, 281
260, 289
242, 249
199, 235
176, 158
136, 124
79, 85
57, 51
39, 25
19, 20
16, 12
8, 12
5, 14
8, 7
7, 13
5, 14
15, 9
12, 20
7, 20
17, 8
14, 17
11, 13
11, 10
12, 9
5, 10
4, 7
9, 14
9, 6
2, 3
6, 10
4, 7
5, 7
4, 8
8, 5
5, 11
3, 7
2, 7
5, 6
6, 11
8, 6
4, 6
8, 3
5, 10
9, 6
9, 7
6, 10
6, 6
11, 9
9, 10
14, 8
5, 3
7, 9
6, 7
6, 9
7, 4
14, 7
8, 4
4, 13
5, 12
5, 4
5, 7
10, 8
5, 9
8, 8
7, 6
8, 18
14, 9
11, 13
8, 17
9, 9
10, 11
13, 11
5, 7
6, 7
9, 6
8, 10
3, 5
3, 10
4, 9
7, 5
5, 3
13, 9
4, 7
4, 3
5, 4
4, 5
8, 5
1, 2
5, 6
6, 7
2, 4
5, 7
1, 3
6, 3
3, 1
5, 5
2, 2
5, 4
3, 3
2, 9
8, 4
2, 4
5, 5
8, 3
6, 4
7, 4
8, 7
2, 9
2, 6
9, 0
6, 6
4, 8
3, 1
6, 4
3, 1
5, 6
2, 9
1, 3
3, 2
4, 7
3, 3
4, 1
3, 5
2, 7
1, 5
3, 3
3, 3
0, 5
3, 2
3, 3
3, 5
6, 5
6, 7
11, 3
5, 7
2, 6
7, 4
1, 2
3, 5
2, 1
1, 5
1, 4
4, 4
1, 8
2, 5
4, 2
3, 2
2, 3
4, 4
0, 3
4, 5
3, 4
1, 2
4, 4
3, 3
2, 1
1, 3
2, 8
4, 7
4, 7
1, 2
4, 1
4, 2
5, 2
3, 7
4, 4
3, 3
4, 6
5, 1
0, 2
3, 2
1, 2
2, 3
3, 5
5, 4
2, 2
3, 2
3, 4
2, 3
1, 3
2, 5
2, 3
2, 4
8, 3
1, 1
1, 1
2, 3
1, 2
1, 1
3, 1
3, 3
2, 3
2, 2
3, 3
4, 3
1, 4
4, 6
4, 2
3, 2
3, 2
1, 2
3, 3
2, 1
2, 4
2, 5
2, 4
1, 4
1, 2
4, 3
3, 4
1, 2
0, 1
0, 3
3, 5
1, 3
3, 2
2, 0
1, 2
2, 2
5, 4
3, 2
2, 2
7, 0
1, 4
5, 1
0, 3
1, 2
2, 1
4, 0
2, 1
4, 2
3, 4
1, 0
3, 4
3, 1
1, 2
1, 2
1, 1
2, 0
0, 4
4, 4
2, 4
1, 3
1, 3
4, 3
2, 2
4, 2
3, 2
4, 3
1, 3
4, 0
1, 4
1, 1
4, 3
1, 2
2, 2
2, 2
2, 3
0, 2
1, 2
4, 4
5, 1
1, 1
1, 3
3, 0
1, 4
3, 1
0, 0
1, 5
1, 3
1, 1
2, 2
1, 1
1, 1
1, 2
0, 2
1, 1
1, 2
1, 4
2, 1
0, 2
0, 1
2, 1
3, 1
1, 0
0, 0
0, 2
0, 1
2, 1
2, 2
0, 1
1, 1
0, 0
1, 0
1, 1
0, 5
0, 2
1, 1
2, 0
1, 2
0, 1
0, 1
0, 2
0, 3
1, 2
1, 0
1, 1
1, 1
2, 1
0, 1
0, 1
1, 0
2, 2
0, 0
0, 2
0, 0
2, 1
1, 1
0, 0
1, 1
1, 0
2, 0
1, 0
2, 0
1, 0
3, 0
0, 1
2, 1
0, 1
1, 0
1, 1
1, 0
0, 0
3, 1
1, 1
0, 0
1, 0
0, 1
0, 0
1, 0
0, 0
2, 0
2, 1
0, 1
1, 0
1, 1
0, 0
0, 0
0, 1
1, 1
1, 2
1, 0
0, 1
1, 1
0, 0
1, 0
3, 2
2, 0
0, 0
1, 0
0, 1
1, 0
0, 1
0, 0
0, 1
1, 1
1, 0
1, 1
1, 1
0, 0
1, 2
0, 2
2, 0
1, 0
0, 0
1, 0
1, 1
1, 2
1, 0
0, 1
0, 0
0, 0
0, 1
0, 0
0, 0
1, 0
1, 1
1, 0
1, 0
0, 0
0, 0
0, 0
0, 0
1, 0
0, 0
2, 0
0, 0
1, 0
0, 1
1, 0
0, 1
0, 0
1, 0
0, 0
0, 0
0, 2
0, 1
1, 0
0, 0
0, 1
1, 1
1, 1
0, 1
1, 0
0, 1
0, 0
0, 0
2, 2
0, 0
0, 1
0, 1
1, 0
1, 1
0, 0
1, 0
0, 0
0, 0
0, 0
2, 0
1, 0
0, 1
0, 0
0, 0
0, 0
0, 0
1, 0
0, 0
0, 0
1, 1
0, 0
0, 0
0, 0
0, 0
0, 0
0, 0
0, 0
0, 0
0, 1
0, 1
1, 0
0, 0
0, 0
0, 0
1, 1
0, 0
0, 0
1, 0
0, 0
0, 0
0, 0
1, 0
1, 0
0, 1
1, 0
0, 0
0, 0
0, 0
0, 0
0, 0
1, 0
0, 0
0, 0
0, 0
0, 0
1, 0
0, 2
0, 0
0, 0
1, 0
0, 0
0, 0
1, 0
0, 0
0, 0
1, 0
0, 0
1, 0
0, 0
1, 1
0, 0
1, 0
0, 0
0, 1
0, 0
0, 0
0, 0
0, 0
0, 0
0, 0
1, 0
0, 1
0, 1
0, 0
1, 0
1, 0
0, 0
1, 0
0, 0
1, 0
0, 0
0, 0
0, 0
0, 0
0, 0
0, 0
0, 0
0, 0
0, 0
0, 0
0, 0
1, 0
1, 0
0, 1
0, 0
0, 1
0, 0
1, 0
0, 0
0, 0
0, 0
0, 2
0, 0
0, 1
0, 0
0, 0
0, 0
0, 0
0, 0
0, 0
0, 0
0, 0
0, 0
0, 0
1, 0
0, 0
0, 0
0, 0
0, 0
0, 0
0, 0
0, 0
0, 0
0, 0
0, 0
0, 0
0, 1
1, 0
1, 0
0, 0
0, 0
0, 0
1, 1
0, 0
0, 1
0, 0
0, 0
0, 1
0, 1
0, 0
0, 0
0, 0
0, 0
0, 0
0, 0
0, 0
0, 0
0, 0
0, 0
0, 0
0, 0
0, 0
1, 0
0, 0
0, 0
0, 0
0, 1
0, 0
0, 0
0, 0
0, 0
0, 0
0, 0
0, 0
0, 0
0, 0
0, 0
0, 0
0, 0
0, 0
0, 0
0, 0
0, 1
0, 0
0, 0
0, 0
0, 0
0, 0
0, 1
0, 1
0, 0
0, 0
0, 0
0, 1
0, 0
0, 0
0, 0
0, 0
0, 0
0, 1
0, 0
0, 0
0, 0
0, 0
0, 0
0, 0
0, 0
0, 0
0, 0
0, 0
0, 0
0, 0
0, 0
0, 0
0, 0
0, 0
0, 0
0, 0
1, 0
0, 0
0, 0
0, 0
0, 0
0, 1
1, 0
0, 0
0, 0
0, 0
0, 0
0, 0
0, 0
0, 0
0, 0
0, 0
0, 0
0, 0
0, 1
0, 0
0, 0
0, 0
0, 0
0, 0
0, 0
0, 0
0, 0
0, 0
0, 0
0, 0
0, 0
0, 0
0, 0
0, 0
0, 0
0, 0
0, 0
0, 0
0, 0
0, 0
0, 0
0, 0
0, 0
0, 0
0, 0
0, 0
0, 0
0, 0
0, 0
0, 0
0, 0
0, 0
0, 0
0, 0
0, 0
0, 0
0, 0
0, 0
0, 0
0, 0
0, 0
0, 0
0, 0
0, 0
0, 0
0, 0
0, 0
0, 0
0, 0
0, 0
0, 0
0, 0
0, 0
0, 0
0, 0
0, 0
0, 0
0, 0
0, 0
0, 0
0, 0
0, 0
0, 0
0, 0
0, 0
0, 0
0, 0
0, 0
0, 0
0, 0
0, 0
0, 0
0, 0
0, 0
0, 0
0, 0
0, 0
0, 0
0, 0
0, 0
0, 0
0, 0
0, 0
0, 0
0, 0
0, 0
0, 0
0, 0
0, 0
0, 0
0, 0
0, 0
0, 0
0, 0
0, 0
1, 0
0, 0
0, 0
0, 0
0, 0
0, 0
0, 0
0, 0
0, 0
0, 0
0, 0
0, 0
0, 0
0, 0
0, 0
0, 0
0, 0
0, 0
0, 0
0, 0
0, 0
0, 0
0, 0
0, 0
0, 0
0, 0
0, 0
0, 0
0, 0
0, 0
0, 0
0, 0
0, 0
0, 0
0, 0
0, 0
0, 0
0, 0
0, 0
0, 0
0, 0
0, 0
0, 0
0, 0
0, 0
0, 0
0, 0
0, 0
0, 0
0, 0
0, 0
0, 0
0, 0
0, 0
0, 0
0, 0
0, 0
0, 0
0, 0
0, 0
0, 0
0, 0
0, 0
0, 0
0, 0
0, 0
0, 0
0, 0
0, 0
0, 0
0, 0
0, 0
0, 0
0, 0
0, 0
0, 0
0, 0
0, 0
0, 0
0, 0
0, 0
0, 0
0, 0
0, 0
0, 0
0, 0
0, 0
0, 0
0, 0
0, 0
0, 0
0, 0
0, 0
0, 0
0, 0
0, 0
0, 0
0, 0
0, 0
0, 0
0, 0
0, 0
0, 0
0, 0
0, 0
0, 0
0, 0
0, 0
0, 0
0, 0
0, 0
0, 0
0, 0
0, 0
0, 0
0, 0
0, 0
0, 0
0, 0
0, 0
0, 0
0, 0
0, 0
0, 0
0, 0
0, 0
0, 0
0, 0
0, 0
0, 0
0, 0
0, 0
0, 0
0, 0
0, 0
0, 0
0, 0
0, 0
0, 0
0, 0
0, 0
0, 0
0, 0
0, 0
0, 0
0, 0
0, 0
0, 0
0, 0
0, 0
0, 0
0, 0
0, 0
0, 0
0, 0
0, 0
0, 0
0, 0
0, 0
0, 0
0, 0
0, 0
0, 0
0, 0
0, 0
0, 0
0, 0
0, 0
0, 0
0, 0
0, 0
0, 0
0, 0
0, 0
0, 0
0, 0
0, 0
0, 0
0, 0
0, 0
0, 0
0, 0
0, 0
0, 0
0, 0
0, 0
0, 0
0, 0
0, 0
0, 0
0, 0
0, 0
0, 0
0, 0
0, 0
0, 0
0, 0
0, 0
0, 0
0, 0
0, 0
0, 0
0, 0
0, 0
0, 0
0, 0
0, 0
0, 0
0, 0
0, 0
0, 0
0, 0
0, 0
0, 0
0, 0
0, 0
0, 0
0, 0
0, 0
0, 0
0, 0
0, 0
0, 0
0, 0
0, 0
0, 0
0, 0
0, 0
0, 0
0, 0
0, 0
0, 0
0, 0
0, 0
0, 0
0, 0
0, 0
0, 0
0, 0
0, 0
0, 0
0, 0
0, 0
0, 0
0, 0
0, 0
0, 0
0, 0
0, 0
0, 0
0, 0
0, 0
0, 0
0, 0
0, 0
0, 0
0, 0
0, 0
0, 0
0, 0
0, 0
0, 0
0, 0
0, 0
0, 0
0, 0
0, 0
0, 0
0, 0
0, 0
0, 0
0, 0
0, 0
0, 0
0, 0
0, 0
0, 0
0, 0
0, 0
0, 0
0, 0
0, 0
0, 0
0, 0
0, 0
0, 0
0, 0
0, 0
0, 0
0, 0
0, 0
0, 0
0, 0
0, 0
0, 0
0, 0
0, 0
0, 0
0, 0
0, 0
0, 0
0, 0
0, 0
0, 0
0, 0
0, 0
0, 0
0, 0
0, 0
0, 0
0, 0
0, 0
0, 0
0, 0
0, 0
#ENDOFDATA     end of spectrum data