File: host_upload/02-11-2024/rqc/uplink1/ps__0567_0717304816_000rfs_shot_278.msa
#FORMAT      : EMSA/MAS spectral data file
#VERSION     : TC202v2.0 PIXL
#TITLE       : Novarupta (sol567) subset1
#DATE        : 02-11-2024      Date in the format DD-MMM-YYYY, for example 07-JUL-2010
#TIME        :             The time of day at which the spectrum was recorded, in 24-hour format
#OWNER       : PIXL Flight Model       (PIXL will use this to indicate which instrument took the data.)
#NPOINTS     : 4096     Number of data points in the spectrum (This can be zero for configuration only files)
#NCOLUMNS    : 2     Number of data columns in the spectrum (This can be zero for configuration only files)
#XUNITS      : eV
#YUNITS      : COUNTS
#DATATYPE    : YY
#XPERCHAN    : 7.862, 7.881   eV per channel (separate by commas if more than one detector)
#OFFSET      : 18.5, -22.4         eV of first channel  (separate by commas if more than one detector
#SIGNALTYPE  : XRF
#YP_TEMP     : 1.177
#LIVETIME    : 8.82679, 8.81291   seconds (separate by commas if more than one detector)
#REALTIME    : 10, 10.0   seconds (separate by commas if more than one detector)
#SPECTRUM    : start of spectrum data
0, 0
0, 0
0, 0
0, 0
0, 0
0, 0
0, 0
0, 0
0, 0
0, 0
0, 0
0, 0
0, 0
0, 0
0, 0
0, 0
0, 0
0, 0
0, 0
0, 0
0, 0
0, 0
0, 0
0, 0
0, 0
0, 0
0, 0
0, 0
0, 0
0, 0
0, 0
0, 0
0, 1
2, 0
2, 1
1, 1
3, 3
2, 2
4, 5
2, 4
6, 4
2, 3
3, 1
1, 5
5, 5
3, 3
1, 6
1, 7
4, 4
5, 3
3, 7
11, 11
9, 11
15, 7
16, 11
14, 21
16, 18
6, 16
9, 10
11, 13
14, 13
30, 39
41, 32
45, 42
42, 56
46, 41
52, 48
28, 37
41, 47
59, 66
105, 112
197, 223
311, 337
424, 411
484, 550
499, 483
442, 464
322, 355
233, 217
174, 123
74, 87
52, 47
29, 29
36, 32
30, 48
38, 39
28, 42
40, 31
26, 26
32, 24
18, 16
17, 15
22, 31
39, 52
78, 78
147, 134
171, 204
248, 280
245, 332
324, 294
278, 251
230, 216
131, 164
107, 114
84, 65
53, 57
62, 56
77, 73
77, 110
146, 163
178, 174
250, 229
262, 239
212, 260
227, 219
170, 182
160, 146
125, 117
97, 94
75, 78
82, 77
75, 64
64, 88
52, 46
50, 52
42, 46
26, 26
35, 22
16, 16
15, 13
8, 11
8, 16
6, 6
11, 6
7, 6
12, 2
9, 14
5, 12
14, 13
21, 30
19, 32
29, 31
34, 37
24, 22
17, 21
24, 15
12, 17
9, 10
13, 10
12, 13
28, 38
52, 61
75, 115
132, 164
213, 273
272, 311
331, 395
365, 409
324, 395
308, 333
249, 253
167, 171
101, 106
59, 65
41, 45
19, 28
28, 27
33, 43
43, 55
61, 62
54, 73
61, 58
56, 63
43, 42
38, 37
31, 37
15, 18
13, 14
7, 14
6, 12
9, 7
5, 1
6, 16
13, 8
11, 6
22, 16
15, 14
18, 30
28, 43
49, 77
53, 69
55, 75
54, 72
57, 57
49, 53
53, 38
45, 36
31, 30
20, 26
25, 14
20, 15
21, 15
14, 15
19, 17
11, 13
24, 12
20, 13
15, 14
20, 18
22, 18
24, 21
20, 14
14, 20
19, 16
17, 13
13, 16
11, 11
10, 9
5, 9
10, 16
3, 17
11, 15
22, 16
15, 15
16, 17
23, 15
22, 19
23, 20
28, 33
26, 38
27, 30
35, 39
31, 33
29, 30
23, 19
18, 24
20, 14
7, 16
12, 14
13, 9
7, 14
11, 12
9, 14
9, 21
22, 26
16, 25
29, 28
49, 39
39, 37
44, 47
53, 46
56, 59
64, 56
57, 41
34, 42
44, 43
28, 17
20, 17
22, 17
20, 29
19, 19
23, 34
42, 57
81, 80
132, 165
217, 272
407, 474
593, 780
879, 1119
1219, 1458
1543, 1813
1713, 1987
1774, 1875
1717, 1728
1453, 1498
1243, 1179
914, 827
633, 517
371, 317
197, 187
107, 109
73, 56
32, 31
28, 26
18, 17
20, 9
21, 18
11, 24
16, 20
20, 23
18, 19
30, 29
37, 61
60, 84
91, 99
114, 151
160, 178
169, 224
266, 275
266, 259
285, 314
244, 262
250, 196
165, 189
134, 124
96, 78
62, 39
42, 27
20, 20
17, 15
9, 9
10, 6
10, 12
9, 12
8, 12
11, 20
14, 11
13, 15
12, 18
3, 8
4, 8
12, 13
9, 8
6, 11
11, 5
7, 5
6, 4
10, 4
5, 11
4, 10
6, 10
3, 6
6, 3
8, 10
5, 4
12, 7
5, 5
9, 7
3, 8
9, 11
4, 4
8, 2
5, 7
4, 9
6, 6
11, 9
6, 7
6, 5
5, 12
13, 8
7, 8
8, 3
8, 5
8, 11
14, 7
6, 4
4, 5
4, 7
3, 4
6, 9
10, 5
4, 11
8, 7
7, 11
7, 7
13, 10
12, 13
15, 16
14, 6
11, 13
11, 11
4, 7
6, 9
8, 12
11, 7
6, 6
12, 7
6, 3
8, 4
6, 0
4, 9
5, 5
9, 7
5, 7
8, 1
6, 9
14, 1
3, 4
7, 10
4, 7
4, 8
7, 8
8, 7
9, 7
10, 10
6, 2
7, 7
6, 4
5, 4
8, 8
9, 5
3, 6
7, 9
2, 7
5, 7
5, 7
8, 6
10, 6
6, 5
2, 3
13, 10
3, 4
5, 4
4, 4
2, 3
10, 4
1, 6
1, 4
1, 6
5, 2
10, 4
4, 9
5, 4
2, 5
2, 5
1, 8
4, 3
6, 6
7, 5
7, 5
3, 5
2, 6
2, 6
3, 3
2, 5
3, 4
7, 3
6, 7
5, 5
3, 0
2, 3
5, 0
2, 5
5, 8
2, 4
3, 4
4, 4
3, 7
3, 2
3, 4
3, 6
1, 5
1, 2
3, 4
3, 4
3, 4
2, 2
4, 3
3, 5
3, 1
4, 1
3, 3
1, 4
1, 3
2, 3
3, 1
6, 3
5, 5
2, 2
3, 3
2, 4
3, 3
3, 8
4, 6
4, 1
3, 8
5, 0
1, 1
2, 5
4, 3
2, 2
4, 7
3, 1
1, 4
2, 6
0, 4
2, 3
1, 1
2, 6
2, 2
2, 5
1, 1
2, 2
1, 3
4, 2
1, 4
5, 3
2, 0
0, 0
1, 0
3, 2
1, 2
1, 1
3, 2
2, 1
4, 1
0, 6
3, 0
1, 1
5, 1
1, 5
2, 1
1, 1
2, 2
2, 4
2, 0
2, 2
1, 2
1, 3
1, 1
2, 5
4, 4
2, 5
2, 1
2, 1
2, 4
2, 3
4, 2
0, 4
7, 4
2, 1
3, 1
0, 2
1, 0
2, 5
1, 3
1, 3
3, 4
4, 3
0, 0
6, 4
0, 4
4, 1
0, 3
6, 2
3, 6
3, 2
3, 0
0, 2
2, 1
2, 1
2, 1
0, 0
0, 3
3, 1
1, 2
0, 1
0, 1
0, 1
3, 1
3, 1
3, 0
0, 1
1, 2
2, 1
0, 3
2, 1
0, 3
1, 2
2, 3
2, 0
2, 0
2, 1
3, 2
0, 3
2, 2
2, 1
0, 1
2, 2
0, 3
0, 1
2, 1
1, 0
0, 1
0, 2
0, 0
2, 2
1, 0
1, 2
1, 1
4, 1
0, 1
1, 0
0, 0
0, 1
1, 1
2, 1
0, 0
1, 1
0, 1
1, 1
2, 2
0, 0
0, 2
1, 1
0, 3
2, 1
1, 0
1, 1
1, 0
1, 0
1, 1
0, 1
2, 0
0, 0
1, 1
3, 2
0, 0
1, 1
1, 0
1, 2
0, 1
0, 0
0, 1
0, 0
0, 1
1, 1
0, 2
1, 2
2, 0
0, 0
1, 2
2, 0
0, 0
0, 1
0, 2
1, 1
0, 0
0, 1
0, 0
0, 0
1, 1
0, 1
1, 1
0, 2
0, 0
1, 1
0, 0
1, 0
0, 0
1, 0
0, 0
2, 0
0, 0
1, 1
0, 1
0, 0
0, 2
0, 0
1, 1
1, 1
1, 0
0, 1
1, 2
0, 0
0, 1
0, 0
2, 0
1, 0
2, 0
0, 0
2, 0
1, 0
1, 0
0, 0
1, 0
1, 0
0, 1
0, 0
0, 0
0, 0
1, 1
1, 0
0, 0
1, 0
0, 1
0, 1
0, 0
0, 0
0, 1
1, 0
1, 0
0, 1
0, 1
1, 0
0, 0
0, 0
1, 0
1, 1
0, 1
1, 1
0, 0
0, 0
1, 3
0, 0
1, 0
0, 0
0, 1
0, 1
1, 0
0, 1
0, 1
1, 0
0, 0
0, 1
1, 0
1, 0
1, 0
0, 2
0, 0
0, 0
0, 1
0, 0
0, 0
0, 0
2, 1
0, 0
0, 0
1, 0
0, 1
1, 0
0, 0
1, 0
0, 1
0, 0
1, 0
1, 0
1, 1
1, 0
0, 0
0, 1
0, 0
1, 1
1, 0
0, 0
1, 0
1, 0
0, 0
0, 1
1, 0
0, 0
0, 1
0, 0
0, 1
0, 0
0, 0
0, 0
0, 0
0, 0
1, 1
0, 0
0, 0
0, 1
0, 0
2, 0
0, 0
1, 1
0, 0
0, 0
1, 1
1, 0
1, 0
0, 0
1, 0
1, 0
0, 0
0, 1
0, 0
0, 0
2, 1
1, 0
0, 0
0, 0
0, 0
0, 0
1, 0
0, 0
0, 0
1, 1
1, 0
1, 0
2, 0
0, 0
0, 1
0, 1
0, 0
1, 0
0, 1
0, 0
1, 0
0, 0
1, 0
1, 0
0, 0
0, 1
0, 0
0, 0
0, 0
2, 0
0, 0
0, 0
1, 0
0, 0
0, 0
0, 0
1, 0
1, 0
0, 1
0, 0
0, 0
0, 0
1, 1
0, 0
0, 0
0, 0
0, 1
1, 0
0, 0
0, 0
0, 0
0, 0
0, 0
0, 0
0, 0
0, 0
0, 0
0, 0
0, 0
0, 0
0, 0
0, 0
0, 0
0, 0
0, 0
0, 0
0, 0
0, 0
0, 0
0, 0
0, 0
0, 0
0, 0
0, 0
0, 0
0, 0
0, 0
0, 0
0, 0
0, 0
0, 0
0, 0
1, 0
0, 0
0, 0
0, 0
0, 0
0, 0
0, 0
0, 0
0, 0
0, 0
0, 0
0, 0
0, 0
0, 0
0, 1
0, 0
0, 0
0, 0
0, 0
0, 0
0, 0
0, 0
0, 0
0, 0
0, 0
0, 0
0, 0
0, 0
0, 0
0, 0
0, 0
0, 0
0, 0
0, 0
0, 0
0, 0
0, 0
0, 0
0, 0
0, 0
0, 0
0, 0
0, 0
0, 0
0, 0
0, 0
0, 0
0, 0
0, 0
0, 0
0, 0
0, 0
0, 0
1, 0
0, 0
0, 0
0, 0
0, 0
0, 0
0, 0
0, 0
0, 0
0, 0
0, 0
0, 0
0, 0
0, 0
0, 0
0, 0
0, 0
0, 0
0, 0
0, 0
0, 0
0, 0
0, 0
0, 0
0, 0
0, 0
0, 0
0, 0
0, 0
0, 0
0, 0
0, 0
0, 0
0, 0
0, 0
0, 0
0, 0
0, 0
0, 0
0, 0
0, 0
0, 0
0, 0
0, 0
0, 0
0, 0
0, 0
0, 1
0, 0
0, 0
0, 0
0, 0
0, 0
0, 0
0, 0
0, 0
0, 0
0, 0
0, 0
0, 0
0, 0
0, 0
0, 0
0, 0
0, 0
0, 0
0, 0
0, 0
0, 0
0, 0
0, 0
0, 0
0, 0
0, 0
0, 0
0, 0
0, 0
0, 0
0, 0
0, 0
0, 0
0, 0
0, 0
0, 0
0, 0
0, 0
0, 0
0, 0
0, 0
0, 0
0, 0
0, 0
0, 0
0, 0
0, 0
0, 0
0, 0
0, 0
0, 0
0, 0
0, 0
0, 0
0, 0
0, 0
0, 0
0, 0
0, 0
0, 0
0, 0
0, 0
0, 0
0, 0
0, 0
0, 0
0, 0
0, 0
0, 0
0, 0
0, 0
0, 0
0, 0
0, 0
0, 0
0, 0
0, 0
0, 0
0, 0
0, 0
0, 0
0, 0
0, 0
0, 0
0, 0
0, 0
0, 0
0, 0
0, 0
0, 0
1, 0
0, 0
0, 0
0, 0
0, 0
0, 0
0, 0
0, 0
0, 0
0, 0
0, 0
0, 0
0, 0
0, 0
0, 0
0, 0
0, 0
0, 0
0, 0
0, 0
0, 0
0, 0
0, 0
0, 0
0, 0
0, 0
0, 0
0, 0
0, 0
0, 0
0, 0
0, 0
0, 0
0, 0
0, 0
0, 0
0, 0
0, 0
0, 0
0, 0
0, 0
0, 0
0, 0
0, 0
0, 0
0, 0
0, 0
0, 0
0, 0
0, 0
0, 0
0, 0
0, 0
0, 0
0, 0
0, 0
0, 0
0, 0
0, 0
0, 0
0, 0
0, 0
0, 0
0, 0
0, 0
0, 0
0, 0
0, 0
0, 0
0, 0
0, 0
0, 0
0, 0
0, 0
0, 0
0, 0
0, 0
0, 0
0, 0
0, 0
0, 0
0, 0
0, 0
0, 0
0, 0
0, 0
0, 0
0, 0
0, 0
0, 0
0, 0
0, 0
0, 0
0, 0
0, 0
0, 0
0, 0
0, 0
0, 0
0, 0
0, 0
0, 0
0, 0
0, 0
0, 0
0, 0
0, 0
0, 0
0, 0
0, 0
0, 0
0, 0
0, 0
0, 0
0, 0
0, 0
0, 0
0, 0
0, 0
0, 0
0, 0
0, 0
0, 0
0, 0
0, 0
0, 0
0, 0
0, 0
0, 0
0, 0
0, 0
0, 0
0, 0
0, 0
0, 0
0, 0
0, 0
0, 0
0, 0
0, 0
0, 0
0, 0
0, 0
0, 0
0, 0
0, 0
0, 0
0, 0
0, 0
0, 0
0, 0
0, 0
0, 0
0, 0
0, 0
0, 0
0, 0
0, 0
0, 0
0, 0
0, 0
0, 0
0, 0
0, 0
0, 0
0, 0
0, 0
0, 0
0, 0
0, 0
0, 0
0, 0
0, 0
0, 0
0, 0
0, 0
0, 0
0, 0
0, 0
0, 0
0, 0
0, 0
0, 0
0, 0
0, 0
0, 0
0, 0
0, 0
0, 0
0, 0
0, 0
0, 0
0, 0
0, 0
0, 0
0, 0
0, 0
0, 0
0, 0
0, 0
0, 0
0, 0
0, 0
0, 0
0, 0
0, 0
0, 0
0, 0
0, 0
0, 0
0, 0
0, 0
0, 0
0, 0
0, 0
0, 0
0, 0
0, 0
0, 0
0, 0
0, 0
0, 0
0, 0
0, 0
0, 0
0, 0
0, 0
0, 0
0, 0
0, 0
0, 0
0, 0
0, 0
0, 0
0, 0
0, 0
0, 0
0, 0
0, 0
0, 0
0, 0
0, 0
0, 0
0, 0
0, 0
0, 0
0, 0
0, 0
0, 0
0, 0
0, 0
0, 0
0, 0
0, 0
0, 0
0, 0
0, 0
0, 0
0, 0
0, 0
0, 0
0, 0
0, 0
0, 0
0, 0
0, 0
0, 0
0, 0
0, 0
0, 0
0, 0
0, 0
0, 0
0, 0
0, 0
0, 0
0, 0
0, 0
0, 0
0, 0
0, 0
0, 0
0, 0
0, 0
0, 0
0, 0
0, 0
0, 0
0, 0
0, 0
0, 0
0, 0
0, 0
0, 0
0, 0
0, 0
0, 0
0, 0
0, 0
0, 0
0, 0
0, 0
0, 0
0, 0
0, 0
0, 0
0, 0
0, 0
0, 0
0, 0
0, 0
0, 0
0, 0
0, 0
#ENDOFDATA     end of spectrum data