File: host_upload/02-11-2024/rqc/uplink1/ps__0567_0717304816_000rfs_shot_196.msa
#FORMAT      : EMSA/MAS spectral data file
#VERSION     : TC202v2.0 PIXL
#TITLE       : Novarupta (sol567) subset1
#DATE        : 02-11-2024      Date in the format DD-MMM-YYYY, for example 07-JUL-2010
#TIME        :             The time of day at which the spectrum was recorded, in 24-hour format
#OWNER       : PIXL Flight Model       (PIXL will use this to indicate which instrument took the data.)
#NPOINTS     : 4096     Number of data points in the spectrum (This can be zero for configuration only files)
#NCOLUMNS    : 2     Number of data columns in the spectrum (This can be zero for configuration only files)
#XUNITS      : eV
#YUNITS      : COUNTS
#DATATYPE    : YY
#XPERCHAN    : 7.862, 7.881   eV per channel (separate by commas if more than one detector)
#OFFSET      : 18.5, -22.4         eV of first channel  (separate by commas if more than one detector
#SIGNALTYPE  : XRF
#YP_TEMP     : 0.536
#LIVETIME    : 8.83068, 8.82247   seconds (separate by commas if more than one detector)
#REALTIME    : 10, 10.0   seconds (separate by commas if more than one detector)
#SPECTRUM    : start of spectrum data
0, 0
0, 0
0, 0
0, 0
0, 0
0, 0
0, 0
0, 0
0, 0
0, 0
0, 0
0, 0
0, 0
0, 0
0, 0
0, 0
0, 0
0, 0
0, 0
0, 0
0, 0
0, 0
0, 0
0, 0
0, 0
0, 0
0, 0
0, 0
0, 0
0, 0
0, 0
0, 1
0, 0
1, 0
1, 1
1, 1
5, 1
2, 4
3, 3
2, 5
7, 6
5, 4
3, 2
1, 7
5, 2
1, 2
6, 1
1, 0
3, 3
6, 8
6, 4
14, 5
16, 11
12, 12
15, 17
11, 16
9, 11
12, 10
14, 9
7, 6
14, 21
28, 26
30, 44
36, 39
43, 59
43, 37
37, 42
28, 41
40, 53
49, 64
103, 125
186, 228
276, 340
385, 441
402, 531
486, 533
457, 448
352, 323
225, 222
156, 128
77, 79
50, 45
20, 27
32, 28
37, 35
30, 40
35, 34
24, 43
19, 24
21, 20
16, 17
18, 15
26, 28
43, 46
66, 73
134, 134
209, 196
238, 265
294, 302
283, 306
269, 248
209, 195
148, 137
107, 95
68, 77
46, 53
61, 45
62, 85
87, 107
144, 119
204, 174
204, 203
202, 204
208, 217
192, 189
166, 187
107, 113
106, 118
74, 89
89, 85
75, 79
65, 56
64, 55
61, 58
45, 49
35, 43
25, 31
17, 20
18, 23
17, 17
6, 10
9, 10
7, 7
5, 4
7, 5
11, 6
7, 7
16, 16
20, 20
26, 32
24, 23
22, 22
30, 25
17, 31
18, 15
12, 18
12, 16
11, 11
4, 12
20, 19
23, 19
51, 63
89, 92
139, 147
226, 237
261, 329
320, 354
389, 389
361, 340
295, 269
209, 214
165, 167
107, 121
53, 54
33, 37
29, 27
21, 31
43, 30
36, 49
54, 72
41, 46
52, 68
45, 70
32, 54
39, 31
33, 28
14, 27
6, 21
7, 22
11, 15
5, 12
10, 12
7, 13
8, 6
11, 19
17, 23
15, 22
26, 23
34, 42
40, 33
50, 53
52, 61
67, 71
58, 59
60, 41
36, 38
30, 29
24, 31
23, 23
22, 21
23, 13
16, 13
12, 16
12, 17
17, 11
15, 16
18, 10
17, 24
21, 21
19, 23
21, 20
24, 16
24, 26
19, 17
15, 11
10, 19
14, 17
10, 7
11, 13
10, 11
15, 17
13, 18
5, 13
8, 13
16, 9
16, 21
13, 18
25, 30
27, 25
26, 25
29, 40
27, 34
27, 21
36, 19
25, 23
16, 24
9, 8
15, 13
11, 6
15, 11
16, 9
13, 7
9, 10
19, 19
20, 12
13, 17
21, 26
29, 37
28, 45
42, 41
47, 48
46, 50
47, 49
45, 42
34, 43
26, 31
17, 27
23, 15
12, 24
13, 21
23, 20
28, 28
40, 46
64, 94
130, 132
213, 263
376, 444
583, 742
874, 1006
1190, 1432
1416, 1595
1684, 1771
1748, 1876
1654, 1637
1391, 1346
1210, 1080
870, 764
554, 508
373, 273
245, 172
117, 107
65, 58
31, 25
20, 18
16, 19
13, 13
14, 15
18, 21
13, 18
19, 24
20, 28
38, 34
42, 36
56, 71
95, 106
127, 147
150, 187
206, 219
240, 257
263, 293
263, 279
252, 248
205, 185
161, 164
119, 90
88, 72
56, 46
30, 32
27, 19
4, 15
7, 9
5, 6
10, 9
8, 13
15, 12
18, 14
8, 12
17, 17
18, 8
10, 15
13, 14
11, 9
6, 9
6, 6
5, 4
11, 4
7, 6
6, 5
5, 9
7, 5
10, 2
7, 2
4, 2
10, 6
2, 6
7, 4
4, 3
11, 11
9, 7
8, 6
6, 7
11, 6
7, 5
11, 11
7, 7
10, 12
6, 13
5, 5
6, 11
9, 7
7, 10
8, 10
5, 4
8, 7
3, 4
5, 8
2, 4
6, 7
7, 5
6, 5
6, 8
4, 3
2, 9
12, 9
11, 7
8, 7
12, 13
15, 12
10, 11
7, 9
3, 4
11, 4
3, 6
9, 3
9, 5
6, 7
7, 6
3, 6
2, 9
6, 2
6, 7
4, 3
3, 3
5, 6
7, 5
8, 7
5, 3
5, 5
11, 5
5, 6
3, 5
6, 3
9, 6
6, 5
6, 2
6, 4
5, 2
2, 4
7, 7
6, 5
2, 6
5, 5
6, 3
2, 3
5, 5
5, 5
3, 8
2, 8
4, 8
7, 5
6, 6
6, 3
10, 4
6, 6
5, 3
6, 5
5, 7
7, 4
5, 6
3, 3
6, 5
2, 1
4, 3
2, 7
6, 3
5, 2
3, 3
1, 7
4, 5
3, 4
5, 5
4, 2
3, 0
4, 4
3, 2
4, 3
4, 2
2, 0
4, 7
1, 5
3, 9
1, 3
2, 5
3, 5
2, 3
3, 1
4, 8
0, 4
2, 2
3, 3
0, 2
5, 1
1, 2
4, 3
2, 1
2, 4
4, 1
4, 4
1, 2
1, 1
6, 0
5, 2
5, 3
2, 2
3, 2
1, 2
6, 2
3, 2
3, 1
6, 2
2, 3
2, 6
2, 4
1, 2
2, 4
2, 0
6, 4
2, 2
2, 2
3, 3
0, 3
1, 3
0, 5
0, 4
4, 3
2, 2
0, 5
3, 3
2, 3
2, 2
3, 2
5, 2
6, 2
3, 4
1, 3
6, 1
2, 3
3, 4
4, 1
7, 2
4, 4
2, 2
5, 1
6, 3
0, 2
0, 1
2, 2
1, 7
4, 0
5, 3
4, 3
2, 1
1, 2
1, 3
1, 0
1, 2
1, 3
4, 3
4, 4
2, 3
1, 0
1, 3
5, 1
2, 3
2, 4
1, 0
0, 2
1, 4
1, 1
0, 1
3, 1
1, 5
2, 2
1, 1
2, 1
0, 2
3, 2
2, 1
4, 3
2, 4
1, 4
1, 3
5, 5
2, 4
4, 5
3, 4
1, 0
0, 1
1, 5
0, 1
3, 1
1, 2
0, 1
1, 0
1, 0
1, 0
0, 1
1, 0
0, 5
3, 1
2, 1
2, 4
1, 0
0, 0
2, 2
1, 2
4, 4
3, 0
3, 0
2, 3
3, 0
0, 1
1, 2
0, 2
2, 0
1, 2
1, 1
2, 0
0, 0
3, 1
1, 0
0, 3
1, 2
1, 1
2, 0
2, 2
3, 1
1, 1
2, 0
0, 0
2, 0
0, 0
2, 0
1, 1
0, 1
4, 0
0, 0
0, 1
0, 1
0, 0
0, 1
0, 2
1, 1
2, 1
1, 2
0, 1
0, 1
0, 1
0, 1
1, 1
0, 2
1, 0
4, 0
1, 1
1, 2
1, 0
1, 1
0, 2
3, 0
2, 1
1, 1
1, 2
0, 0
1, 0
1, 1
2, 1
0, 0
0, 1
0, 0
1, 1
0, 0
0, 0
0, 0
3, 3
0, 0
2, 0
0, 0
1, 0
4, 0
1, 2
1, 1
0, 3
1, 1
1, 0
1, 1
1, 1
1, 1
0, 1
0, 0
1, 1
0, 1
1, 0
1, 0
2, 0
1, 0
1, 0
1, 2
0, 0
0, 1
0, 0
0, 0
0, 0
0, 0
0, 1
0, 0
0, 0
0, 2
1, 0
1, 0
0, 1
0, 1
2, 1
0, 0
0, 0
0, 1
1, 0
1, 0
0, 1
0, 2
1, 0
2, 0
2, 0
2, 0
0, 0
0, 0
0, 0
0, 0
1, 1
0, 0
2, 0
0, 2
0, 1
0, 0
0, 0
0, 0
2, 0
0, 1
0, 0
0, 1
0, 0
0, 0
1, 0
0, 1
0, 1
1, 0
0, 0
0, 0
0, 1
1, 0
3, 0
1, 0
0, 2
1, 1
1, 0
1, 0
0, 0
0, 1
0, 0
1, 1
0, 0
0, 1
1, 0
0, 0
0, 1
0, 0
2, 1
0, 0
1, 0
0, 0
1, 0
0, 1
0, 0
0, 0
0, 1
1, 0
1, 0
0, 1
0, 0
0, 0
1, 0
1, 1
0, 0
0, 0
0, 0
0, 0
1, 1
0, 1
0, 0
0, 1
1, 0
0, 0
0, 0
1, 0
0, 0
0, 0
0, 2
0, 0
1, 0
1, 1
0, 0
1, 0
0, 0
0, 1
0, 0
0, 1
1, 0
0, 0
0, 1
0, 0
0, 0
1, 0
0, 0
0, 0
0, 1
0, 0
0, 0
0, 0
0, 1
0, 0
0, 1
0, 2
0, 0
0, 0
0, 0
0, 1
0, 0
0, 1
0, 1
0, 0
0, 0
0, 0
0, 0
0, 0
0, 0
0, 0
0, 0
0, 0
0, 0
0, 0
2, 0
0, 0
1, 0
0, 0
0, 0
0, 0
0, 0
0, 0
1, 0
0, 0
0, 0
0, 0
0, 0
1, 0
0, 0
0, 0
1, 0
0, 0
0, 0
0, 0
1, 0
0, 0
0, 0
2, 0
0, 0
0, 0
0, 0
0, 0
0, 0
0, 0
0, 0
0, 0
0, 0
0, 0
1, 0
0, 0
0, 0
0, 0
0, 0
0, 0
0, 0
0, 0
0, 0
0, 0
0, 0
0, 0
0, 0
0, 0
0, 0
0, 0
0, 0
0, 0
0, 0
0, 0
0, 0
0, 0
0, 2
0, 0
0, 0
0, 0
0, 0
0, 0
0, 0
0, 0
0, 0
0, 0
0, 0
0, 0
0, 0
0, 0
0, 0
0, 0
0, 0
0, 0
0, 0
0, 0
0, 0
2, 0
0, 1
1, 1
0, 0
0, 0
0, 0
0, 0
0, 0
0, 0
0, 0
0, 0
0, 0
0, 0
0, 0
0, 0
0, 0
0, 0
0, 0
0, 0
0, 0
0, 0
0, 0
0, 0
0, 0
0, 0
0, 0
0, 0
0, 0
0, 0
0, 0
0, 0
0, 0
0, 1
0, 0
0, 0
0, 0
0, 0
0, 0
0, 0
0, 0
0, 0
0, 0
0, 0
0, 0
0, 0
0, 0
0, 0
0, 0
0, 0
0, 0
0, 0
0, 0
0, 0
0, 0
0, 0
0, 0
0, 0
0, 0
0, 0
0, 0
0, 0
0, 0
1, 0
0, 0
0, 0
0, 0
0, 0
0, 0
0, 0
0, 0
0, 0
0, 0
0, 0
0, 0
0, 0
0, 0
0, 0
0, 0
0, 0
0, 0
0, 0
0, 0
0, 0
0, 0
0, 0
0, 0
0, 0
0, 0
0, 0
0, 0
0, 0
0, 0
0, 0
0, 0
0, 0
0, 0
0, 0
0, 0
0, 0
0, 0
0, 0
0, 0
0, 0
0, 0
0, 0
0, 0
0, 0
0, 0
0, 0
1, 0
0, 0
0, 0
0, 0
0, 0
0, 0
0, 0
0, 0
0, 0
0, 0
0, 0
0, 0
0, 0
0, 0
0, 0
0, 0
0, 0
0, 0
1, 0
0, 0
0, 0
0, 0
0, 0
0, 0
0, 0
0, 0
0, 0
0, 0
0, 0
0, 0
0, 0
0, 0
0, 0
0, 0
0, 0
0, 0
0, 0
0, 0
0, 0
0, 0
0, 0
0, 0
0, 0
0, 0
0, 0
0, 0
0, 0
0, 0
0, 0
0, 0
0, 0
0, 0
0, 0
0, 0
0, 0
0, 0
0, 0
0, 0
0, 0
0, 0
0, 0
0, 0
0, 0
0, 0
0, 0
0, 0
0, 0
0, 0
0, 0
0, 0
0, 0
0, 0
0, 0
0, 0
0, 0
1, 0
0, 0
0, 0
0, 0
0, 0
0, 0
0, 0
0, 0
0, 0
0, 0
0, 0
0, 0
0, 0
0, 0
0, 0
0, 0
0, 0
0, 0
0, 0
0, 0
0, 0
0, 0
0, 0
0, 0
0, 0
0, 0
0, 0
0, 0
0, 0
0, 0
0, 0
0, 0
0, 0
0, 0
0, 0
0, 0
0, 0
0, 0
0, 0
0, 0
0, 0
0, 0
0, 0
0, 0
0, 0
0, 0
0, 0
0, 0
0, 0
0, 0
0, 0
0, 0
0, 0
0, 0
0, 0
0, 0
0, 0
0, 0
0, 0
0, 0
0, 0
0, 0
0, 0
0, 0
0, 0
0, 0
0, 0
0, 0
0, 0
0, 0
0, 0
0, 0
0, 0
0, 0
0, 0
0, 0
0, 0
0, 0
0, 0
0, 0
0, 0
0, 0
0, 0
0, 0
0, 0
0, 0
0, 0
0, 0
0, 0
0, 0
0, 0
0, 0
0, 0
0, 0
0, 0
0, 0
0, 0
0, 0
0, 0
0, 0
0, 0
0, 0
0, 0
0, 0
0, 0
0, 0
0, 0
0, 0
0, 0
0, 0
0, 0
0, 0
0, 0
0, 0
0, 0
0, 0
0, 0
0, 0
0, 0
0, 0
0, 0
0, 0
0, 0
0, 0
0, 0
0, 0
0, 0
0, 0
0, 0
0, 0
0, 0
0, 0
0, 0
0, 0
0, 0
0, 0
0, 0
0, 0
0, 0
0, 0
0, 0
0, 0
0, 0
0, 0
0, 0
0, 0
0, 0
0, 0
0, 0
0, 0
0, 0
0, 0
0, 0
0, 0
0, 0
0, 0
0, 0
0, 0
0, 0
0, 0
0, 0
0, 0
0, 0
0, 0
0, 0
0, 0
0, 0
0, 0
0, 0
0, 0
0, 0
0, 0
0, 0
0, 0
0, 0
0, 0
0, 0
0, 0
0, 0
0, 0
0, 0
0, 0
0, 0
0, 0
0, 0
0, 0
0, 0
0, 0
0, 0
0, 0
0, 0
0, 0
0, 0
0, 0
0, 0
0, 0
0, 0
0, 0
0, 0
0, 0
0, 0
0, 0
0, 0
0, 0
0, 0
0, 0
0, 0
0, 0
0, 0
0, 0
0, 0
0, 0
0, 0
0, 0
0, 0
0, 0
0, 0
0, 0
0, 0
0, 0
0, 0
0, 0
0, 0
0, 0
0, 0
0, 0
0, 0
0, 0
0, 0
0, 0
0, 0
0, 0
0, 0
0, 0
0, 0
0, 0
0, 0
0, 0
0, 0
0, 0
0, 0
0, 0
0, 0
0, 0
0, 0
0, 0
0, 0
0, 0
0, 0
0, 0
0, 0
0, 0
0, 0
0, 0
0, 0
0, 0
0, 0
0, 0
0, 0
0, 0
0, 0
0, 0
0, 0
0, 0
0, 0
0, 0
0, 0
0, 0
0, 0
0, 0
0, 0
0, 0
0, 0
0, 0
0, 0
0, 0
0, 0
0, 0
0, 0
0, 0
0, 0
0, 0
0, 0
0, 0
0, 0
0, 0
0, 0
0, 0
0, 0
0, 0
0, 0
0, 0
0, 0
0, 0
0, 0
0, 0
0, 0
0, 0
0, 0
0, 0
0, 0
0, 0
0, 0
0, 0
0, 0
0, 0
#ENDOFDATA     end of spectrum data