File: host_upload/02-11-2024/rqc/uplink1/ps__0567_0717304816_000rfs_shot_492.msa
#FORMAT      : EMSA/MAS spectral data file
#VERSION     : TC202v2.0 PIXL
#TITLE       : Novarupta (sol567) subset1
#DATE        : 02-11-2024      Date in the format DD-MMM-YYYY, for example 07-JUL-2010
#TIME        :             The time of day at which the spectrum was recorded, in 24-hour format
#OWNER       : PIXL Flight Model       (PIXL will use this to indicate which instrument took the data.)
#NPOINTS     : 4096     Number of data points in the spectrum (This can be zero for configuration only files)
#NCOLUMNS    : 2     Number of data columns in the spectrum (This can be zero for configuration only files)
#XUNITS      : eV
#YUNITS      : COUNTS
#DATATYPE    : YY
#XPERCHAN    : 7.862, 7.881   eV per channel (separate by commas if more than one detector)
#OFFSET      : 18.5, -22.4         eV of first channel  (separate by commas if more than one detector
#SIGNALTYPE  : XRF
#YP_TEMP     : 2.171
#LIVETIME    : 8.81287, 8.80406   seconds (separate by commas if more than one detector)
#REALTIME    : 10, 10.0   seconds (separate by commas if more than one detector)
#SPECTRUM    : start of spectrum data
0, 0
0, 0
0, 0
0, 0
0, 0
0, 0
0, 0
0, 0
0, 0
0, 0
0, 0
0, 0
0, 0
0, 0
0, 0
0, 0
0, 0
0, 0
0, 0
0, 0
0, 0
0, 0
0, 0
0, 0
0, 0
0, 0
0, 0
0, 0
0, 0
1, 0
0, 0
0, 0
0, 0
1, 0
3, 1
2, 3
1, 1
3, 2
7, 2
1, 5
4, 3
3, 1
6, 4
8, 5
3, 3
5, 5
3, 2
3, 8
1, 5
3, 2
3, 4
11, 11
17, 16
14, 16
9, 10
14, 15
8, 13
9, 16
10, 18
12, 17
13, 8
27, 22
40, 41
46, 45
45, 58
54, 48
42, 54
22, 32
30, 37
59, 73
97, 126
180, 211
291, 370
387, 449
466, 527
533, 571
430, 458
334, 353
259, 259
134, 134
96, 61
65, 45
41, 35
28, 32
48, 37
31, 50
34, 35
30, 33
30, 34
24, 16
16, 27
18, 21
14, 38
44, 38
84, 102
130, 151
186, 234
234, 318
312, 349
318, 333
287, 312
213, 231
150, 172
103, 94
64, 81
50, 55
45, 51
66, 55
107, 96
126, 146
163, 172
186, 196
209, 227
201, 214
221, 197
168, 200
110, 141
108, 137
81, 112
82, 93
66, 79
74, 58
79, 55
59, 52
39, 50
43, 31
34, 23
22, 26
16, 20
9, 15
15, 8
11, 12
5, 10
5, 8
9, 7
10, 6
9, 12
9, 17
5, 24
22, 18
25, 28
30, 35
36, 34
23, 38
25, 14
15, 12
16, 20
8, 11
12, 8
20, 18
21, 37
39, 55
82, 100
131, 177
246, 237
294, 327
392, 405
390, 406
391, 405
290, 325
239, 273
174, 170
107, 120
73, 72
49, 30
31, 28
20, 30
33, 42
35, 50
56, 72
71, 61
65, 54
51, 47
45, 54
29, 48
32, 26
14, 29
9, 16
10, 14
4, 9
9, 7
4, 9
7, 10
12, 9
11, 15
17, 20
16, 20
20, 43
32, 33
37, 40
49, 53
56, 70
49, 71
73, 67
58, 54
47, 46
42, 45
27, 36
29, 28
17, 20
13, 18
19, 21
15, 14
13, 12
14, 15
18, 13
13, 18
17, 18
19, 28
16, 20
19, 23
20, 22
18, 18
20, 14
14, 20
13, 10
12, 16
7, 12
10, 12
16, 14
11, 10
14, 11
5, 14
12, 13
11, 17
23, 21
23, 29
30, 21
30, 34
28, 44
38, 36
33, 38
27, 31
23, 28
18, 26
25, 18
12, 14
13, 16
19, 11
7, 14
9, 13
12, 18
17, 15
13, 14
16, 18
20, 23
20, 25
29, 47
30, 52
38, 64
45, 49
50, 57
43, 51
49, 49
40, 35
31, 29
39, 29
23, 22
23, 18
19, 18
18, 28
26, 28
35, 61
62, 77
130, 181
201, 281
379, 467
588, 762
856, 1099
1177, 1479
1525, 1747
1679, 1986
1818, 2021
1723, 1822
1635, 1590
1256, 1184
963, 887
664, 573
384, 341
218, 199
123, 107
70, 68
47, 42
15, 19
11, 14
18, 15
22, 23
14, 15
16, 14
8, 25
19, 23
35, 28
53, 42
58, 70
91, 115
106, 160
167, 212
195, 220
240, 303
285, 292
282, 310
242, 294
229, 235
182, 197
121, 147
104, 95
52, 56
36, 46
27, 19
13, 16
11, 7
9, 5
14, 7
16, 14
7, 9
13, 12
11, 10
15, 12
8, 11
17, 13
6, 15
8, 14
13, 10
10, 5
7, 8
6, 5
7, 5
9, 12
9, 2
9, 2
5, 6
2, 3
7, 5
8, 11
3, 4
6, 6
7, 7
7, 12
11, 7
9, 5
8, 5
6, 9
9, 8
15, 3
12, 7
3, 7
10, 10
7, 10
11, 5
9, 8
7, 5
6, 10
6, 11
7, 5
10, 8
15, 6
6, 3
7, 15
5, 8
8, 5
6, 6
4, 7
8, 6
10, 10
9, 13
17, 10
16, 16
20, 18
10, 11
14, 11
10, 11
4, 10
9, 8
6, 11
3, 7
9, 6
9, 5
6, 3
5, 3
9, 2
4, 9
6, 6
5, 7
3, 4
3, 3
2, 11
8, 7
7, 2
5, 8
7, 3
3, 10
5, 1
5, 6
5, 6
3, 4
3, 6
7, 7
3, 5
5, 2
4, 6
3, 6
4, 4
8, 5
7, 3
4, 9
10, 5
7, 5
11, 4
2, 5
5, 9
8, 8
5, 7
5, 6
3, 6
4, 2
5, 10
4, 7
3, 3
4, 1
5, 3
4, 4
5, 5
4, 4
2, 8
0, 7
5, 4
10, 2
1, 5
3, 6
3, 3
1, 3
4, 4
2, 8
1, 6
7, 7
3, 4
4, 3
5, 2
5, 6
5, 5
1, 2
1, 5
1, 8
4, 4
4, 4
5, 1
4, 4
3, 3
2, 3
2, 7
2, 3
6, 5
2, 3
5, 3
3, 4
0, 6
5, 1
4, 7
6, 3
5, 4
3, 3
3, 6
2, 4
3, 4
4, 3
4, 3
2, 1
4, 3
2, 1
2, 2
4, 2
3, 4
2, 7
2, 5
2, 3
6, 1
8, 5
1, 3
6, 3
2, 1
4, 2
0, 2
2, 3
3, 4
5, 1
4, 3
1, 5
1, 4
1, 2
3, 2
0, 6
4, 3
2, 4
1, 6
4, 0
4, 1
5, 4
0, 2
0, 2
5, 0
0, 0
2, 0
2, 4
3, 2
2, 3
3, 0
1, 1
1, 1
2, 1
3, 2
5, 2
3, 2
1, 0
2, 1
0, 4
4, 3
2, 2
3, 2
2, 2
5, 0
2, 2
2, 1
2, 2
1, 2
2, 2
2, 0
4, 2
1, 2
0, 0
4, 2
4, 5
1, 2
3, 2
2, 1
2, 5
2, 1
5, 6
1, 2
1, 5
2, 5
5, 5
7, 2
0, 0
3, 6
2, 1
4, 7
4, 2
0, 5
1, 1
4, 2
4, 5
2, 1
2, 3
1, 3
0, 4
1, 4
3, 1
0, 1
2, 1
4, 0
2, 1
1, 0
2, 0
1, 6
0, 2
2, 0
2, 1
3, 2
3, 1
0, 1
0, 1
3, 1
4, 2
1, 3
1, 0
5, 2
1, 1
2, 1
1, 2
0, 1
2, 2
0, 2
2, 2
0, 1
2, 2
4, 4
0, 0
1, 1
1, 3
1, 2
0, 1
0, 3
1, 0
0, 1
3, 3
2, 3
2, 0
2, 2
1, 1
0, 0
0, 1
1, 0
0, 1
2, 1
0, 2
1, 0
0, 0
0, 0
0, 1
3, 0
2, 2
3, 2
2, 0
0, 0
1, 0
0, 1
0, 0
0, 1
1, 0
2, 1
1, 1
2, 0
0, 0
2, 1
1, 1
2, 0
0, 1
0, 0
1, 1
0, 0
0, 0
1, 2
3, 1
0, 1
0, 0
1, 0
0, 2
0, 2
2, 1
0, 2
1, 0
0, 1
0, 0
1, 0
0, 1
1, 1
1, 1
1, 0
2, 2
2, 0
0, 1
0, 0
0, 1
0, 3
0, 0
2, 2
2, 1
2, 0
1, 1
0, 0
1, 0
1, 0
1, 1
0, 1
0, 1
1, 0
0, 0
0, 0
2, 0
1, 0
0, 0
0, 0
1, 1
3, 1
0, 0
0, 0
1, 3
0, 0
0, 0
2, 0
0, 0
0, 0
0, 0
1, 0
0, 0
0, 0
0, 2
1, 1
0, 0
1, 2
1, 1
0, 0
0, 1
0, 1
1, 0
0, 0
0, 1
1, 0
0, 0
1, 0
0, 0
1, 1
0, 1
0, 1
0, 0
1, 1
0, 0
1, 0
0, 0
1, 0
0, 0
0, 1
1, 0
0, 0
0, 0
0, 0
0, 0
1, 0
0, 0
0, 0
1, 1
1, 0
0, 0
1, 1
2, 0
0, 1
0, 0
0, 1
0, 0
0, 0
0, 0
0, 0
1, 0
1, 0
0, 0
0, 0
0, 0
0, 0
0, 1
0, 0
0, 0
2, 0
0, 1
0, 1
1, 0
0, 0
0, 0
0, 0
0, 1
0, 0
0, 0
2, 0
0, 0
0, 0
0, 0
0, 1
1, 0
0, 0
0, 2
1, 2
0, 0
0, 0
0, 0
0, 0
0, 0
0, 1
0, 0
0, 1
0, 0
0, 0
0, 0
1, 0
0, 1
1, 0
0, 0
1, 1
0, 0
0, 0
0, 0
0, 0
0, 0
0, 1
0, 0
1, 0
0, 1
0, 0
1, 0
0, 0
0, 1
0, 0
0, 0
0, 1
0, 0
0, 0
0, 0
0, 1
0, 0
0, 0
0, 0
0, 0
2, 0
1, 0
0, 0
0, 2
0, 0
0, 0
0, 1
0, 0
0, 0
0, 1
1, 0
1, 1
1, 0
0, 0
0, 0
0, 0
0, 0
0, 1
1, 0
0, 0
1, 0
0, 0
0, 0
1, 0
0, 0
0, 1
0, 0
0, 0
0, 1
0, 1
0, 0
0, 0
0, 0
0, 0
0, 0
0, 0
0, 0
1, 0
0, 0
0, 0
0, 0
0, 0
0, 0
1, 0
0, 0
0, 0
0, 0
0, 0
0, 0
0, 0
0, 0
0, 0
0, 0
0, 0
0, 0
0, 0
0, 0
0, 0
0, 0
0, 0
0, 0
0, 0
0, 0
0, 0
0, 0
0, 0
0, 0
0, 0
0, 0
0, 1
0, 0
1, 0
0, 0
1, 0
0, 0
0, 0
0, 0
0, 0
0, 0
0, 0
0, 0
1, 0
0, 0
0, 0
0, 0
0, 0
0, 0
0, 1
0, 0
0, 0
0, 0
0, 0
0, 0
1, 0
0, 1
0, 0
0, 0
0, 1
0, 0
0, 0
0, 0
0, 0
0, 0
1, 0
0, 0
0, 0
0, 0
0, 0
0, 0
0, 0
0, 0
0, 0
0, 0
0, 0
0, 0
0, 0
0, 1
0, 0
0, 0
0, 0
0, 0
0, 0
0, 0
0, 0
0, 0
0, 0
0, 0
0, 0
0, 0
0, 0
0, 0
0, 0
0, 0
0, 0
0, 1
0, 0
0, 0
0, 0
0, 0
0, 0
0, 0
0, 0
0, 0
0, 0
0, 0
0, 0
0, 0
0, 0
0, 0
0, 0
0, 0
0, 0
0, 0
0, 0
0, 0
0, 0
0, 0
1, 0
0, 0
0, 0
0, 0
0, 0
0, 0
0, 0
0, 0
0, 2
0, 0
0, 0
0, 0
0, 0
0, 0
0, 0
0, 0
0, 0
0, 0
0, 0
0, 0
0, 0
0, 0
1, 0
0, 0
0, 0
0, 0
0, 0
0, 0
0, 0
0, 0
0, 0
0, 0
0, 0
0, 0
0, 0
0, 0
0, 0
0, 0
0, 0
0, 0
0, 0
0, 0
0, 0
0, 0
0, 0
0, 0
0, 1
0, 0
0, 0
0, 0
0, 0
0, 0
0, 0
0, 0
0, 0
0, 0
0, 0
0, 0
0, 0
0, 0
0, 0
0, 0
0, 0
0, 0
0, 0
0, 0
0, 0
0, 0
0, 0
0, 0
0, 0
0, 0
0, 0
0, 0
0, 0
0, 0
0, 0
0, 0
0, 0
0, 0
0, 0
0, 0
0, 0
0, 0
0, 0
0, 0
0, 0
0, 0
0, 0
0, 0
0, 0
0, 0
0, 0
0, 0
0, 0
0, 0
0, 0
0, 0
0, 0
0, 0
0, 0
0, 0
0, 0
0, 0
0, 0
0, 0
0, 0
0, 0
0, 0
0, 0
0, 0
0, 0
0, 0
0, 0
0, 0
0, 0
0, 0
0, 0
0, 0
0, 0
0, 0
0, 0
0, 0
0, 0
0, 0
0, 0
0, 0
0, 0
0, 0
0, 0
0, 0
0, 0
0, 0
0, 0
0, 0
0, 0
0, 0
0, 0
0, 0
0, 0
0, 0
0, 0
0, 0
0, 0
0, 0
0, 0
0, 0
0, 0
0, 0
0, 0
0, 0
0, 0
0, 0
0, 0
0, 0
0, 0
0, 0
0, 0
0, 0
0, 0
0, 0
0, 0
0, 0
0, 0
0, 0
0, 0
0, 0
1, 0
0, 0
0, 0
0, 0
0, 0
0, 0
0, 0
0, 0
0, 0
0, 0
0, 0
0, 0
0, 0
0, 0
0, 0
0, 0
0, 0
0, 0
0, 0
0, 0
0, 0
0, 0
0, 0
0, 0
0, 0
0, 0
0, 0
0, 0
0, 0
0, 0
0, 0
0, 0
0, 0
0, 0
0, 0
0, 0
0, 0
0, 0
0, 0
0, 0
0, 0
0, 0
0, 0
0, 0
0, 0
0, 0
0, 0
0, 0
0, 0
0, 0
0, 0
0, 0
0, 0
0, 0
0, 0
0, 0
0, 0
0, 0
0, 0
0, 0
0, 0
0, 0
0, 0
0, 0
0, 0
0, 0
0, 0
0, 0
0, 0
0, 0
0, 0
0, 0
0, 0
0, 0
0, 0
0, 0
0, 0
0, 0
0, 0
0, 0
0, 0
0, 0
0, 0
0, 0
0, 0
0, 0
0, 0
0, 0
0, 0
0, 0
0, 0
0, 0
0, 0
0, 0
0, 0
0, 0
0, 0
0, 0
0, 0
0, 0
0, 0
0, 0
0, 0
0, 0
0, 0
0, 0
0, 0
0, 0
0, 0
0, 0
0, 0
0, 0
0, 0
0, 0
0, 0
0, 0
0, 0
0, 0
0, 0
0, 0
0, 0
0, 0
0, 0
0, 0
0, 0
0, 0
0, 0
0, 0
0, 0
0, 0
0, 0
0, 0
0, 0
0, 0
0, 0
0, 0
0, 0
0, 0
0, 0
0, 0
0, 0
0, 0
0, 0
0, 0
0, 0
0, 0
0, 0
0, 0
0, 0
0, 0
0, 0
0, 0
0, 0
0, 0
0, 0
0, 0
0, 0
0, 0
0, 0
0, 0
0, 0
0, 0
0, 0
0, 0
0, 0
0, 0
0, 0
0, 0
0, 0
0, 0
0, 0
0, 0
0, 0
0, 0
0, 0
0, 0
0, 0
0, 0
0, 0
0, 0
0, 0
0, 0
0, 0
0, 0
0, 0
0, 0
0, 0
0, 0
0, 0
0, 0
0, 0
0, 0
0, 0
0, 0
0, 0
0, 0
0, 0
0, 0
0, 0
0, 0
0, 0
0, 0
0, 0
0, 0
0, 0
0, 0
0, 0
0, 0
0, 0
0, 0
0, 0
0, 0
0, 0
0, 0
0, 0
0, 0
0, 0
0, 0
0, 0
0, 0
0, 0
0, 0
0, 0
0, 0
0, 0
0, 0
0, 0
0, 0
0, 0
0, 0
0, 0
0, 0
0, 0
0, 0
0, 0
0, 0
0, 0
0, 0
0, 0
0, 0
0, 0
0, 0
#ENDOFDATA     end of spectrum data