File: host_upload/02-11-2024/rqc/uplink1/ps__0567_0717304816_000rfs_shot_199.msa
#FORMAT      : EMSA/MAS spectral data file
#VERSION     : TC202v2.0 PIXL
#TITLE       : Novarupta (sol567) subset1
#DATE        : 02-11-2024      Date in the format DD-MMM-YYYY, for example 07-JUL-2010
#TIME        :             The time of day at which the spectrum was recorded, in 24-hour format
#OWNER       : PIXL Flight Model       (PIXL will use this to indicate which instrument took the data.)
#NPOINTS     : 4096     Number of data points in the spectrum (This can be zero for configuration only files)
#NCOLUMNS    : 2     Number of data columns in the spectrum (This can be zero for configuration only files)
#XUNITS      : eV
#YUNITS      : COUNTS
#DATATYPE    : YY
#XPERCHAN    : 7.862, 7.881   eV per channel (separate by commas if more than one detector)
#OFFSET      : 18.5, -22.4         eV of first channel  (separate by commas if more than one detector
#SIGNALTYPE  : XRF
#YP_TEMP     : 0.664
#LIVETIME    : 8.83935, 8.83   seconds (separate by commas if more than one detector)
#REALTIME    : 10, 10.0   seconds (separate by commas if more than one detector)
#SPECTRUM    : start of spectrum data
0, 0
0, 0
0, 0
0, 0
0, 0
0, 0
0, 0
0, 0
0, 0
0, 0
0, 0
0, 0
0, 0
0, 0
0, 0
0, 0
0, 0
0, 0
0, 0
0, 0
0, 0
0, 0
0, 0
0, 0
0, 0
0, 0
0, 0
0, 0
0, 0
1, 0
0, 0
0, 0
0, 1
1, 0
0, 2
2, 0
3, 5
5, 3
0, 2
4, 2
4, 1
1, 2
3, 6
5, 2
4, 5
1, 2
5, 4
1, 3
5, 3
2, 3
9, 6
9, 8
10, 8
16, 17
14, 14
7, 18
10, 7
11, 11
10, 10
15, 8
18, 15
38, 26
36, 35
45, 49
47, 48
44, 65
32, 49
39, 31
36, 38
57, 61
100, 110
180, 202
315, 279
383, 440
444, 523
434, 496
432, 410
364, 302
206, 243
154, 129
81, 69
56, 38
28, 38
27, 32
31, 41
23, 33
26, 35
28, 28
25, 24
22, 26
16, 19
22, 14
18, 21
42, 54
87, 83
143, 144
205, 200
252, 316
293, 324
296, 321
276, 274
238, 187
161, 150
84, 109
66, 74
56, 57
45, 47
58, 57
86, 104
129, 146
158, 203
187, 218
233, 223
225, 231
199, 185
156, 162
130, 130
102, 101
77, 104
76, 71
80, 100
78, 76
56, 66
52, 58
52, 32
30, 45
28, 28
21, 26
19, 21
13, 14
16, 8
11, 11
10, 10
5, 11
7, 8
11, 4
11, 8
14, 14
21, 11
16, 28
27, 27
36, 27
35, 27
16, 28
25, 22
14, 24
9, 9
9, 9
13, 13
18, 16
27, 38
48, 55
84, 114
156, 161
210, 251
265, 271
331, 415
347, 366
350, 358
299, 330
217, 242
151, 153
99, 86
64, 66
38, 43
26, 22
35, 21
32, 34
53, 36
44, 57
74, 57
77, 49
39, 46
51, 39
33, 36
32, 24
25, 14
11, 13
10, 8
13, 11
5, 6
7, 5
9, 11
6, 9
13, 9
7, 19
17, 21
26, 25
32, 36
35, 45
44, 54
51, 61
65, 59
41, 65
47, 59
36, 37
37, 36
21, 22
24, 18
15, 23
19, 9
7, 13
17, 12
13, 18
11, 10
11, 14
11, 15
19, 30
21, 22
17, 16
17, 23
20, 17
12, 14
9, 21
18, 9
17, 13
9, 10
9, 9
8, 12
13, 12
9, 9
2, 8
6, 14
16, 10
16, 21
14, 13
11, 25
25, 21
14, 27
23, 30
35, 26
37, 33
30, 28
26, 22
23, 25
12, 15
12, 17
18, 11
15, 14
8, 18
8, 12
14, 13
9, 23
13, 16
15, 22
28, 23
23, 27
35, 38
34, 44
37, 61
51, 49
39, 39
46, 43
46, 42
41, 31
33, 29
24, 23
16, 17
13, 23
16, 18
28, 19
28, 41
42, 55
75, 106
131, 160
247, 283
395, 469
582, 754
854, 1029
1158, 1307
1410, 1646
1615, 1752
1661, 1785
1606, 1677
1298, 1381
1038, 1058
850, 759
538, 472
343, 313
201, 149
95, 92
61, 50
36, 24
20, 39
21, 21
13, 15
18, 14
7, 25
15, 10
22, 22
19, 28
37, 44
39, 58
58, 74
58, 109
103, 138
159, 197
216, 205
225, 280
232, 287
256, 267
247, 260
219, 209
165, 175
110, 111
83, 68
56, 43
38, 32
25, 17
12, 11
11, 9
9, 8
5, 8
7, 10
11, 10
12, 10
15, 9
17, 15
12, 15
13, 15
9, 13
7, 16
14, 8
6, 9
7, 12
3, 13
2, 4
7, 7
5, 5
6, 6
4, 10
7, 5
4, 3
3, 2
7, 4
1, 12
6, 4
7, 3
5, 6
6, 10
7, 4
5, 6
8, 10
7, 4
9, 7
11, 5
5, 4
6, 7
6, 2
7, 3
7, 8
4, 9
7, 7
7, 5
7, 5
9, 4
6, 3
6, 6
10, 3
5, 7
8, 9
4, 8
4, 9
7, 11
7, 9
8, 9
9, 20
8, 14
14, 12
7, 9
11, 5
5, 3
5, 9
8, 7
7, 8
4, 5
3, 7
6, 11
7, 8
4, 7
3, 4
3, 5
9, 5
12, 10
4, 8
3, 4
5, 9
7, 4
4, 9
7, 5
3, 5
6, 5
2, 6
2, 6
4, 4
9, 5
7, 4
5, 8
4, 4
5, 3
3, 5
7, 3
4, 1
2, 9
3, 3
5, 3
9, 9
3, 3
6, 5
7, 5
2, 6
7, 3
5, 9
3, 1
3, 7
6, 7
4, 4
5, 5
1, 4
10, 3
8, 5
6, 6
6, 4
4, 6
4, 3
4, 6
4, 6
6, 3
3, 7
5, 3
2, 2
6, 3
3, 5
1, 8
3, 9
3, 2
1, 3
4, 2
4, 6
3, 3
5, 2
3, 4
5, 5
3, 4
4, 3
2, 4
2, 4
1, 9
0, 2
1, 3
0, 8
1, 4
3, 4
1, 3
4, 2
4, 3
4, 4
5, 4
6, 1
5, 4
2, 4
8, 5
3, 3
1, 4
2, 3
5, 6
6, 2
5, 3
2, 4
1, 7
2, 5
3, 3
3, 4
4, 1
3, 1
5, 1
5, 3
2, 3
3, 2
3, 4
8, 3
1, 5
4, 0
1, 4
2, 6
3, 4
3, 3
0, 4
2, 4
2, 1
0, 3
5, 2
1, 6
3, 2
3, 3
3, 2
0, 2
2, 5
2, 1
2, 0
1, 1
5, 2
2, 6
6, 2
2, 5
2, 3
3, 4
3, 3
4, 1
0, 2
4, 4
1, 2
2, 5
2, 0
3, 0
3, 2
0, 1
3, 2
2, 2
1, 4
0, 0
0, 3
0, 3
1, 3
0, 1
1, 3
1, 1
3, 2
0, 3
2, 1
3, 1
0, 0
1, 1
0, 3
1, 3
4, 1
5, 2
2, 2
1, 2
4, 5
0, 1
2, 2
1, 6
3, 6
1, 2
2, 3
2, 1
3, 2
2, 2
2, 1
2, 2
2, 1
3, 0
0, 2
0, 1
1, 2
0, 0
0, 0
2, 1
0, 3
1, 2
0, 4
2, 2
1, 4
1, 2
2, 2
1, 0
3, 4
1, 1
2, 3
0, 2
2, 0
2, 2
3, 0
2, 0
3, 2
2, 1
1, 0
1, 1
3, 3
1, 1
1, 0
3, 0
1, 1
2, 3
1, 1
0, 0
4, 2
1, 3
1, 0
1, 1
1, 0
1, 1
1, 1
2, 0
1, 2
1, 1
2, 0
1, 1
1, 1
0, 1
1, 1
1, 2
1, 0
0, 1
1, 2
2, 0
1, 1
0, 0
2, 2
1, 0
0, 2
2, 1
0, 2
1, 3
0, 2
0, 2
1, 1
3, 1
0, 0
1, 0
0, 1
1, 0
1, 1
0, 0
3, 0
1, 3
0, 3
2, 2
0, 0
1, 0
1, 1
2, 0
2, 2
1, 2
3, 1
1, 1
0, 3
1, 0
2, 2
0, 1
0, 0
0, 1
0, 0
0, 1
0, 1
0, 0
0, 1
1, 1
2, 0
0, 1
0, 0
1, 0
0, 2
0, 0
1, 1
1, 1
1, 0
1, 0
1, 2
1, 1
0, 0
0, 1
0, 1
0, 0
0, 2
2, 1
1, 0
0, 1
0, 0
0, 0
1, 2
0, 0
0, 1
1, 0
0, 0
0, 1
0, 0
0, 1
3, 0
0, 2
0, 0
0, 0
0, 0
0, 0
1, 1
0, 0
1, 0
0, 2
1, 2
0, 3
1, 0
0, 0
0, 0
2, 0
0, 0
0, 1
0, 1
0, 0
0, 0
0, 1
0, 0
0, 0
1, 0
0, 1
0, 1
0, 1
0, 1
0, 0
0, 1
0, 0
1, 1
0, 0
1, 0
1, 0
1, 0
0, 0
1, 0
0, 0
1, 0
0, 0
0, 0
0, 1
0, 0
0, 1
0, 0
2, 1
0, 0
0, 0
1, 1
0, 0
0, 0
0, 0
0, 0
0, 1
0, 0
0, 0
0, 0
2, 0
0, 0
0, 0
0, 0
1, 0
0, 0
0, 0
0, 0
1, 0
0, 0
0, 0
0, 0
0, 1
0, 0
0, 0
0, 2
0, 0
0, 0
0, 1
0, 1
0, 0
0, 0
0, 0
0, 0
0, 1
0, 0
0, 0
0, 0
0, 0
0, 0
0, 0
0, 0
0, 0
0, 0
0, 0
0, 0
0, 0
1, 0
0, 1
0, 0
1, 0
0, 1
0, 0
1, 0
0, 0
0, 0
0, 1
0, 0
0, 0
1, 0
0, 0
0, 1
0, 0
0, 0
1, 0
0, 2
0, 0
0, 0
0, 0
1, 0
1, 0
0, 0
0, 0
0, 1
1, 0
0, 0
1, 0
0, 0
0, 0
1, 0
0, 0
0, 1
1, 1
0, 0
1, 1
1, 0
0, 0
0, 0
0, 0
0, 0
0, 2
0, 0
1, 0
0, 0
0, 0
0, 0
0, 0
1, 0
0, 1
0, 0
0, 0
1, 0
0, 0
0, 0
0, 0
0, 0
0, 0
0, 0
0, 0
0, 0
0, 0
0, 0
0, 0
0, 0
0, 0
0, 0
0, 0
2, 0
0, 0
1, 0
0, 0
0, 0
0, 0
0, 0
0, 0
0, 0
0, 0
1, 0
0, 0
0, 0
0, 0
0, 0
0, 0
0, 0
0, 0
0, 0
0, 0
0, 0
0, 1
0, 0
0, 0
0, 0
0, 0
0, 0
0, 1
0, 0
0, 0
0, 0
0, 0
0, 1
0, 0
0, 0
0, 0
0, 0
0, 0
0, 0
0, 0
0, 0
0, 0
0, 0
0, 0
0, 0
0, 0
0, 0
0, 0
0, 0
0, 0
0, 0
0, 1
0, 0
0, 0
0, 1
2, 0
0, 0
0, 0
0, 0
0, 0
0, 0
0, 0
1, 0
0, 0
0, 0
0, 0
0, 0
0, 0
0, 0
0, 0
0, 0
0, 0
0, 0
0, 0
0, 0
0, 0
0, 0
0, 0
0, 0
0, 0
0, 0
0, 0
0, 0
0, 0
0, 0
0, 0
0, 0
0, 0
0, 0
0, 0
0, 0
0, 0
0, 1
0, 0
0, 0
0, 0
0, 0
0, 0
0, 0
0, 0
0, 0
0, 0
0, 0
0, 0
0, 0
0, 0
1, 0
0, 0
0, 0
0, 0
0, 0
0, 0
0, 0
0, 0
0, 0
0, 0
0, 0
0, 0
0, 0
0, 0
0, 0
0, 0
0, 0
0, 0
0, 0
0, 0
0, 0
0, 0
0, 0
0, 0
0, 0
0, 0
0, 0
0, 1
0, 0
0, 0
0, 0
0, 0
0, 0
0, 0
0, 0
0, 0
0, 0
0, 0
0, 0
0, 0
0, 0
0, 0
0, 0
0, 0
0, 0
0, 0
0, 0
0, 0
0, 0
0, 0
0, 0
0, 0
0, 0
0, 0
0, 0
0, 0
0, 0
0, 0
0, 0
0, 0
0, 0
0, 0
0, 0
0, 0
0, 0
0, 0
0, 0
0, 0
0, 0
0, 0
0, 0
0, 0
0, 0
0, 0
0, 0
0, 0
0, 0
0, 0
0, 0
0, 0
0, 0
0, 0
0, 0
0, 0
0, 0
0, 0
0, 0
0, 0
0, 0
0, 0
0, 0
0, 0
0, 0
0, 0
0, 0
0, 0
0, 0
0, 0
0, 0
0, 0
0, 0
0, 0
0, 0
0, 0
0, 0
0, 0
0, 0
0, 0
0, 0
0, 0
0, 0
0, 0
0, 0
0, 0
0, 0
0, 0
0, 0
0, 0
0, 0
0, 0
0, 0
0, 0
0, 0
0, 0
0, 0
0, 0
0, 0
0, 0
0, 0
0, 0
0, 0
0, 0
0, 0
0, 0
0, 0
0, 0
0, 0
0, 0
0, 0
0, 0
0, 0
0, 0
0, 0
0, 0
0, 0
0, 0
0, 0
0, 0
0, 0
0, 0
0, 0
0, 0
0, 0
0, 0
0, 0
0, 0
0, 0
0, 0
0, 0
0, 0
0, 0
0, 0
0, 0
0, 0
0, 0
0, 0
0, 0
0, 0
0, 0
0, 0
0, 0
0, 0
0, 0
0, 0
0, 0
0, 0
0, 0
0, 0
0, 0
0, 0
0, 0
0, 0
0, 0
0, 0
0, 0
0, 0
0, 0
0, 0
0, 0
0, 0
0, 0
0, 0
0, 0
0, 0
0, 0
0, 0
0, 0
0, 0
0, 0
0, 0
0, 0
0, 0
0, 0
0, 0
0, 0
0, 0
0, 0
0, 0
0, 0
0, 0
0, 0
0, 0
0, 0
0, 0
0, 0
0, 0
0, 0
0, 0
0, 0
0, 0
0, 0
0, 0
0, 0
0, 0
0, 0
0, 0
0, 0
0, 0
0, 0
0, 0
0, 0
0, 0
0, 0
0, 0
0, 0
0, 0
0, 0
0, 0
0, 0
0, 0
0, 0
0, 0
0, 0
0, 0
0, 0
0, 0
0, 0
0, 0
0, 0
0, 0
0, 0
0, 0
0, 0
0, 0
0, 0
0, 0
0, 0
0, 0
0, 0
0, 0
0, 0
0, 0
0, 0
0, 0
0, 0
0, 0
0, 0
0, 0
0, 0
0, 0
0, 0
0, 0
0, 0
0, 0
0, 0
0, 0
0, 0
0, 0
0, 0
0, 0
0, 0
0, 0
0, 0
0, 0
0, 0
0, 0
0, 0
0, 0
0, 0
0, 0
0, 0
0, 0
0, 0
0, 0
0, 0
0, 0
0, 0
0, 0
0, 0
0, 0
0, 0
0, 0
0, 0
0, 0
0, 0
0, 0
0, 0
0, 0
0, 0
0, 0
0, 0
0, 0
0, 0
0, 0
0, 0
0, 0
0, 0
0, 0
0, 0
0, 0
0, 0
0, 0
0, 0
0, 0
0, 0
0, 0
0, 0
0, 0
0, 0
0, 0
0, 0
0, 0
0, 0
0, 0
0, 0
0, 0
0, 0
0, 0
0, 0
0, 0
0, 0
0, 0
0, 0
0, 0
0, 0
0, 0
0, 0
0, 0
0, 0
0, 0
0, 0
0, 0
0, 0
0, 0
0, 0
0, 0
0, 0
0, 0
0, 0
0, 0
0, 0
0, 0
0, 0
0, 0
0, 0
0, 0
0, 0
0, 0
0, 0
0, 0
0, 0
0, 0
0, 0
0, 0
0, 0
0, 0
0, 0
0, 0
0, 0
0, 0
0, 0
0, 0
0, 0
0, 0
0, 0
0, 0
0, 0
0, 0
0, 0
0, 0
0, 0
0, 0
0, 0
0, 0
0, 0
0, 0
0, 0
0, 0
0, 0
0, 0
0, 0
0, 0
0, 0
0, 0
0, 0
0, 0
0, 0
0, 0
0, 0
0, 0
0, 0
0, 0
0, 0
0, 0
0, 0
#ENDOFDATA     end of spectrum data