File: host_upload/02-11-2024/rqc/uplink1/ps__0567_0717304816_000rfs_shot_46.msa
#FORMAT      : EMSA/MAS spectral data file
#VERSION     : TC202v2.0 PIXL
#TITLE       : Novarupta (sol567) subset1
#DATE        : 02-11-2024      Date in the format DD-MMM-YYYY, for example 07-JUL-2010
#TIME        :             The time of day at which the spectrum was recorded, in 24-hour format
#OWNER       : PIXL Flight Model       (PIXL will use this to indicate which instrument took the data.)
#NPOINTS     : 4096     Number of data points in the spectrum (This can be zero for configuration only files)
#NCOLUMNS    : 2     Number of data columns in the spectrum (This can be zero for configuration only files)
#XUNITS      : eV
#YUNITS      : COUNTS
#DATATYPE    : YY
#XPERCHAN    : 7.862, 7.881   eV per channel (separate by commas if more than one detector)
#OFFSET      : 18.5, -22.4         eV of first channel  (separate by commas if more than one detector
#SIGNALTYPE  : XRF
#YP_TEMP     : -2.832
#LIVETIME    : 8.82978, 8.82651   seconds (separate by commas if more than one detector)
#REALTIME    : 10, 10.0   seconds (separate by commas if more than one detector)
#SPECTRUM    : start of spectrum data
0, 0
0, 0
0, 0
0, 0
0, 0
0, 0
0, 0
0, 0
0, 0
0, 0
0, 0
0, 0
0, 0
0, 0
0, 0
0, 0
0, 0
0, 0
0, 0
0, 0
0, 0
0, 0
0, 0
0, 0
0, 0
0, 0
1, 0
0, 0
0, 0
0, 0
0, 0
1, 1
0, 0
0, 0
1, 1
2, 3
3, 7
4, 3
2, 3
2, 3
3, 5
4, 2
3, 1
1, 7
2, 2
6, 3
4, 7
6, 2
5, 4
4, 4
6, 6
12, 4
14, 11
9, 12
20, 16
9, 15
14, 12
10, 11
15, 12
15, 15
17, 14
30, 17
52, 35
30, 46
49, 48
40, 48
49, 32
41, 44
49, 41
77, 77
107, 145
264, 245
302, 345
423, 452
472, 480
505, 534
451, 410
339, 329
230, 209
144, 144
89, 84
50, 54
43, 28
28, 34
32, 35
49, 38
29, 34
31, 25
29, 21
23, 22
20, 18
15, 21
32, 29
43, 53
99, 88
165, 159
213, 223
260, 267
286, 325
319, 292
259, 287
201, 201
148, 116
100, 103
81, 66
60, 66
66, 67
70, 100
103, 119
144, 141
141, 210
223, 208
230, 231
198, 212
171, 185
155, 151
131, 117
87, 101
105, 80
86, 71
70, 72
91, 73
55, 52
54, 48
52, 37
39, 44
24, 31
35, 24
24, 21
11, 17
23, 13
6, 10
7, 7
7, 5
7, 7
2, 14
11, 14
13, 13
26, 23
19, 29
28, 26
44, 39
25, 29
30, 19
21, 22
10, 19
14, 7
17, 16
11, 13
30, 18
35, 49
78, 71
124, 127
152, 180
223, 277
306, 361
411, 377
385, 397
336, 362
312, 264
223, 207
158, 140
105, 86
75, 60
38, 17
31, 36
41, 25
37, 45
41, 55
48, 53
72, 60
60, 65
68, 47
39, 50
33, 27
26, 20
11, 20
12, 14
5, 11
9, 9
4, 8
5, 6
10, 5
11, 11
11, 19
19, 21
13, 27
30, 25
37, 47
47, 53
62, 68
67, 42
76, 61
64, 60
52, 48
44, 36
30, 34
39, 31
21, 24
16, 21
19, 16
16, 15
10, 14
12, 16
15, 13
9, 17
9, 17
13, 14
19, 20
26, 20
16, 19
19, 13
15, 15
18, 15
11, 11
12, 10
10, 14
9, 11
12, 6
10, 15
13, 10
10, 12
13, 12
13, 18
14, 14
12, 35
28, 25
23, 25
32, 30
26, 33
30, 33
32, 36
23, 26
26, 28
18, 28
17, 18
12, 13
10, 15
11, 7
11, 11
13, 8
10, 7
9, 10
14, 11
13, 20
24, 24
31, 36
28, 26
31, 36
45, 51
48, 61
52, 56
47, 43
47, 30
34, 41
27, 19
17, 27
20, 19
26, 22
20, 23
22, 26
40, 42
58, 80
104, 120
204, 228
293, 426
510, 653
778, 889
1118, 1219
1388, 1531
1665, 1698
1728, 1758
1614, 1698
1527, 1476
1294, 1221
978, 926
698, 664
453, 408
301, 229
174, 119
88, 75
52, 43
32, 27
17, 21
11, 15
13, 20
22, 16
16, 11
28, 22
22, 27
32, 32
34, 36
40, 65
98, 74
119, 135
151, 148
190, 242
235, 248
243, 250
249, 274
239, 252
218, 227
185, 184
142, 122
116, 98
83, 51
47, 43
26, 30
17, 16
11, 15
15, 8
14, 8
4, 12
14, 8
16, 11
7, 17
15, 8
13, 8
10, 12
11, 7
7, 11
7, 9
7, 8
4, 6
3, 4
7, 11
8, 4
7, 4
5, 6
8, 8
9, 6
9, 5
7, 10
11, 7
6, 7
8, 3
6, 7
10, 5
7, 7
10, 8
1, 9
12, 13
7, 5
3, 11
6, 4
7, 9
9, 11
5, 6
5, 6
8, 10
6, 8
6, 9
6, 3
3, 5
2, 6
7, 4
9, 11
6, 9
3, 5
8, 8
5, 6
10, 6
10, 5
5, 19
13, 5
10, 9
8, 8
9, 8
10, 12
12, 10
5, 11
6, 12
8, 12
5, 11
2, 4
13, 4
4, 11
7, 4
7, 4
4, 10
10, 7
3, 8
10, 6
4, 6
3, 10
7, 4
6, 6
5, 2
3, 4
4, 5
5, 6
4, 3
9, 7
7, 6
3, 3
3, 3
7, 3
5, 3
6, 3
3, 8
0, 5
6, 4
6, 8
4, 5
6, 8
5, 7
7, 7
6, 8
4, 10
4, 5
2, 3
7, 4
9, 5
2, 5
9, 3
9, 4
2, 5
4, 4
5, 5
3, 4
1, 1
3, 7
1, 4
7, 4
3, 7
3, 2
9, 4
4, 4
2, 5
6, 5
4, 1
1, 3
6, 4
4, 2
3, 3
8, 3
4, 3
7, 4
1, 1
6, 4
5, 3
2, 5
1, 2
2, 4
3, 3
2, 1
4, 4
8, 2
6, 3
2, 2
5, 4
3, 1
1, 1
6, 0
3, 2
2, 4
1, 2
1, 7
3, 2
4, 2
6, 1
1, 2
6, 2
3, 2
5, 3
3, 2
2, 3
1, 2
4, 3
5, 5
2, 4
6, 4
4, 3
5, 4
3, 2
3, 0
2, 3
4, 3
4, 3
0, 1
4, 3
0, 3
2, 4
2, 2
2, 0
1, 0
1, 3
3, 3
4, 1
1, 2
4, 0
1, 3
4, 4
6, 3
2, 3
2, 0
0, 2
5, 4
1, 0
2, 4
3, 4
3, 3
4, 2
3, 2
1, 1
0, 0
2, 4
2, 3
1, 1
2, 0
5, 2
0, 2
1, 1
3, 2
2, 0
2, 3
1, 0
5, 2
1, 1
1, 2
3, 1
6, 0
3, 4
1, 3
0, 1
0, 1
4, 1
2, 3
3, 4
0, 1
0, 4
0, 3
5, 3
1, 1
3, 2
2, 1
2, 2
4, 4
3, 4
6, 3
7, 4
1, 1
1, 1
2, 2
1, 4
4, 2
2, 5
2, 1
2, 1
1, 0
2, 1
1, 4
3, 0
2, 2
2, 2
2, 0
3, 1
3, 3
0, 0
3, 2
0, 2
4, 2
1, 2
1, 3
4, 1
0, 1
2, 0
3, 1
3, 1
1, 1
3, 1
0, 3
3, 3
1, 1
2, 0
4, 0
2, 0
1, 1
1, 2
1, 2
0, 0
0, 0
2, 1
2, 1
0, 0
1, 1
0, 1
0, 1
1, 0
1, 1
3, 0
0, 2
2, 1
0, 2
1, 0
2, 1
4, 1
1, 3
1, 1
4, 0
1, 1
4, 1
0, 0
2, 1
0, 1
0, 1
0, 0
1, 1
3, 0
1, 2
1, 0
0, 0
1, 0
0, 0
0, 1
3, 1
3, 1
0, 1
0, 1
1, 0
1, 0
1, 1
0, 2
2, 2
1, 2
1, 2
3, 0
1, 0
2, 0
2, 0
0, 0
1, 0
1, 1
0, 2
0, 0
2, 0
1, 1
1, 1
0, 1
0, 1
1, 1
1, 1
2, 2
1, 0
2, 1
2, 1
1, 0
3, 2
1, 0
2, 0
0, 3
0, 1
0, 0
0, 1
0, 0
0, 1
0, 0
0, 2
0, 1
0, 1
0, 1
0, 0
0, 0
0, 0
0, 0
1, 0
0, 1
0, 1
0, 2
0, 0
1, 1
0, 0
0, 1
1, 1
0, 0
0, 0
0, 0
0, 1
0, 0
0, 1
1, 0
2, 0
0, 1
0, 0
1, 1
0, 2
0, 0
0, 0
0, 0
0, 0
0, 1
1, 0
0, 1
0, 0
1, 1
0, 0
1, 0
0, 0
0, 0
0, 0
0, 0
0, 0
2, 1
0, 0
0, 1
0, 0
1, 0
0, 1
0, 0
0, 0
0, 1
1, 1
0, 0
1, 0
0, 1
0, 1
0, 0
2, 1
0, 0
0, 1
0, 0
0, 0
1, 0
1, 0
1, 0
0, 0
0, 0
1, 0
0, 2
0, 1
0, 0
0, 0
1, 0
0, 0
0, 0
0, 0
0, 0
0, 1
0, 0
0, 0
0, 0
0, 0
1, 2
1, 0
0, 0
0, 0
0, 0
1, 0
0, 0
0, 0
0, 0
1, 0
0, 0
0, 0
0, 0
0, 0
0, 0
0, 0
0, 0
0, 0
0, 0
0, 1
0, 0
1, 0
1, 0
0, 0
0, 0
0, 0
1, 0
0, 0
1, 0
1, 0
0, 0
0, 0
0, 0
0, 0
0, 0
0, 0
0, 0
0, 0
0, 0
0, 0
0, 1
0, 0
1, 0
0, 0
1, 0
2, 0
0, 0
2, 0
1, 0
0, 0
0, 1
0, 0
0, 0
0, 2
0, 1
0, 0
0, 0
0, 1
0, 0
1, 1
0, 0
0, 1
0, 0
0, 0
0, 0
0, 1
0, 0
0, 0
0, 0
0, 0
0, 0
0, 0
1, 1
0, 0
0, 0
1, 1
0, 0
1, 0
1, 0
0, 0
0, 0
0, 0
0, 0
0, 0
1, 0
1, 0
1, 0
0, 0
0, 0
0, 0
0, 0
0, 0
0, 0
0, 0
0, 0
1, 0
0, 0
0, 0
0, 0
0, 0
0, 0
0, 0
0, 0
0, 0
0, 0
0, 0
0, 0
1, 0
1, 0
0, 0
0, 0
0, 1
0, 0
0, 1
0, 1
0, 0
0, 0
0, 1
0, 0
0, 0
0, 0
0, 0
0, 0
0, 0
0, 0
0, 0
0, 0
0, 0
1, 1
0, 0
0, 0
0, 0
0, 0
0, 0
1, 0
0, 1
0, 0
0, 0
0, 0
0, 0
0, 0
1, 0
1, 0
0, 0
0, 0
0, 0
0, 0
0, 0
0, 0
0, 0
0, 0
0, 1
0, 0
0, 0
0, 0
0, 0
0, 0
0, 0
0, 0
1, 0
0, 0
0, 0
0, 0
0, 0
1, 0
0, 0
0, 0
0, 0
0, 0
0, 0
0, 1
0, 1
0, 0
0, 0
0, 0
0, 0
0, 0
0, 0
0, 0
0, 1
0, 0
0, 0
0, 0
0, 0
0, 0
0, 0
0, 0
0, 0
0, 0
0, 0
0, 0
0, 0
0, 0
0, 0
0, 0
0, 0
0, 0
0, 0
0, 0
0, 0
0, 0
0, 0
0, 0
0, 0
0, 0
0, 0
0, 0
0, 0
0, 0
0, 0
0, 0
0, 0
0, 0
0, 0
0, 0
0, 0
0, 0
0, 0
0, 0
0, 0
0, 0
0, 0
0, 0
0, 0
0, 0
0, 0
0, 0
0, 0
0, 0
0, 0
0, 0
0, 0
0, 0
0, 0
0, 0
0, 0
0, 0
0, 0
0, 0
0, 0
0, 0
0, 0
0, 0
1, 0
0, 0
0, 0
0, 1
0, 0
0, 0
0, 0
0, 0
0, 0
0, 0
0, 0
0, 0
0, 0
0, 0
0, 0
0, 0
0, 0
0, 0
0, 0
0, 0
0, 0
0, 0
0, 0
0, 0
0, 0
0, 0
0, 0
0, 0
0, 0
0, 0
0, 0
0, 0
0, 0
0, 0
0, 0
0, 0
0, 0
0, 0
0, 0
0, 0
0, 0
0, 0
0, 0
0, 0
0, 0
0, 0
0, 0
0, 0
0, 0
0, 0
0, 0
0, 0
0, 0
0, 0
0, 0
0, 0
0, 0
0, 0
0, 0
0, 0
0, 0
0, 0
0, 0
0, 0
0, 0
0, 0
0, 0
0, 0
0, 0
0, 0
0, 0
0, 0
0, 0
0, 0
0, 0
0, 0
0, 0
0, 0
0, 0
0, 0
0, 0
0, 0
0, 0
0, 0
0, 0
0, 0
0, 0
0, 0
0, 0
0, 0
0, 0
0, 0
0, 0
0, 0
0, 0
0, 0
0, 0
0, 0
0, 0
0, 0
0, 0
0, 0
0, 0
0, 0
0, 0
0, 0
0, 0
0, 0
0, 0
0, 0
0, 0
0, 0
0, 0
0, 0
0, 0
0, 0
0, 0
0, 0
0, 0
0, 0
0, 0
0, 0
0, 0
0, 0
0, 0
0, 0
0, 0
0, 0
0, 0
0, 0
0, 0
0, 0
0, 0
0, 0
0, 0
0, 0
0, 0
0, 0
0, 0
0, 0
0, 0
0, 0
0, 0
0, 0
0, 0
0, 0
0, 0
0, 0
0, 0
0, 0
0, 0
0, 0
0, 0
0, 0
0, 0
0, 0
0, 0
0, 0
0, 0
0, 0
0, 0
0, 0
0, 0
0, 0
0, 0
0, 0
0, 0
0, 0
0, 0
0, 0
0, 0
0, 0
0, 0
0, 0
0, 0
0, 0
0, 0
0, 0
0, 0
0, 0
0, 0
0, 0
0, 0
0, 0
0, 0
0, 0
0, 0
0, 0
0, 0
0, 0
0, 0
0, 0
0, 0
0, 0
0, 0
0, 0
0, 0
0, 0
0, 0
0, 0
0, 0
0, 0
0, 0
0, 0
0, 0
0, 0
0, 0
0, 0
0, 0
0, 0
0, 0
0, 0
0, 0
0, 0
0, 0
0, 0
0, 0
0, 0
0, 0
0, 0
0, 0
0, 0
0, 0
0, 0
0, 0
0, 0
0, 0
0, 0
0, 0
0, 0
0, 0
0, 0
0, 0
0, 0
0, 0
0, 0
0, 0
0, 0
0, 0
0, 0
0, 0
0, 0
0, 0
0, 0
0, 0
0, 0
0, 0
0, 0
0, 0
0, 0
0, 0
0, 0
0, 0
0, 0
0, 0
0, 0
0, 0
0, 0
0, 0
0, 0
0, 0
0, 0
0, 0
0, 0
0, 0
0, 0
0, 0
0, 0
0, 0
0, 0
0, 0
0, 0
0, 0
0, 0
0, 0
0, 0
0, 0
0, 0
0, 0
0, 0
0, 0
0, 0
0, 0
0, 0
0, 0
0, 0
0, 0
0, 0
0, 0
0, 0
0, 0
0, 0
0, 0
0, 0
0, 0
0, 0
0, 0
0, 0
0, 0
0, 0
0, 0
0, 0
0, 0
0, 0
0, 0
0, 0
0, 0
0, 0
0, 0
0, 0
0, 0
0, 0
0, 0
0, 0
0, 0
0, 0
0, 0
0, 0
0, 0
0, 0
0, 0
0, 0
0, 0
0, 0
0, 0
0, 0
0, 0
0, 0
0, 0
0, 0
0, 0
0, 0
0, 0
0, 0
0, 0
0, 0
0, 0
0, 0
0, 0
0, 0
0, 0
0, 0
0, 0
0, 0
0, 0
0, 0
0, 0
0, 0
0, 0
0, 0
0, 0
0, 0
0, 0
0, 0
0, 0
0, 0
0, 0
0, 0
0, 0
0, 0
0, 0
0, 0
0, 0
0, 0
0, 0
0, 0
0, 0
0, 0
0, 0
0, 0
0, 0
0, 0
0, 0
0, 0
0, 0
0, 0
0, 0
0, 0
0, 0
0, 0
0, 0
#ENDOFDATA     end of spectrum data