File: host_upload/02-11-2024/rqc/uplink1/ps__0567_0717304816_000rfs_shot_39.msa
#FORMAT      : EMSA/MAS spectral data file
#VERSION     : TC202v2.0 PIXL
#TITLE       : Novarupta (sol567) subset1
#DATE        : 02-11-2024      Date in the format DD-MMM-YYYY, for example 07-JUL-2010
#TIME        :             The time of day at which the spectrum was recorded, in 24-hour format
#OWNER       : PIXL Flight Model       (PIXL will use this to indicate which instrument took the data.)
#NPOINTS     : 4096     Number of data points in the spectrum (This can be zero for configuration only files)
#NCOLUMNS    : 2     Number of data columns in the spectrum (This can be zero for configuration only files)
#XUNITS      : eV
#YUNITS      : COUNTS
#DATATYPE    : YY
#XPERCHAN    : 7.862, 7.881   eV per channel (separate by commas if more than one detector)
#OFFSET      : 18.5, -22.4         eV of first channel  (separate by commas if more than one detector
#SIGNALTYPE  : XRF
#YP_TEMP     : -3.056
#LIVETIME    : 8.84626, 8.81014   seconds (separate by commas if more than one detector)
#REALTIME    : 10, 10.0   seconds (separate by commas if more than one detector)
#SPECTRUM    : start of spectrum data
0, 0
0, 0
0, 0
0, 0
0, 0
0, 0
0, 0
0, 0
0, 0
0, 0
0, 0
0, 0
0, 0
0, 0
0, 0
0, 0
0, 0
0, 0
0, 0
0, 0
0, 0
0, 0
0, 0
0, 0
0, 0
0, 0
0, 1
0, 0
0, 0
0, 0
0, 0
0, 0
0, 1
0, 3
4, 0
0, 2
2, 2
3, 4
3, 1
2, 6
1, 4
4, 3
4, 4
2, 1
4, 5
5, 3
2, 2
5, 1
2, 2
5, 5
6, 7
8, 5
10, 18
10, 10
18, 23
20, 14
11, 9
12, 15
10, 15
15, 19
13, 18
25, 40
39, 32
37, 50
43, 61
36, 52
31, 47
48, 50
51, 50
57, 83
114, 156
216, 237
300, 389
421, 536
436, 512
460, 554
372, 459
308, 365
220, 277
146, 123
84, 86
42, 51
31, 37
35, 38
32, 33
35, 36
34, 42
34, 37
27, 27
19, 16
20, 19
19, 31
36, 43
65, 68
99, 116
172, 197
240, 235
280, 325
333, 366
287, 364
312, 297
189, 229
132, 166
108, 104
73, 91
65, 53
59, 72
76, 86
108, 113
119, 174
161, 217
226, 214
245, 263
184, 227
188, 199
139, 182
125, 144
99, 103
83, 92
55, 89
81, 84
57, 62
71, 66
42, 64
50, 60
39, 43
37, 38
31, 18
15, 17
11, 18
11, 10
6, 9
6, 10
12, 10
4, 9
9, 20
12, 9
19, 21
27, 17
33, 32
33, 36
27, 29
25, 31
26, 35
22, 21
12, 20
16, 10
11, 15
14, 12
20, 34
49, 49
67, 86
110, 149
172, 198
219, 319
358, 389
311, 430
311, 405
349, 374
252, 328
219, 271
118, 162
88, 96
76, 55
36, 41
28, 23
28, 40
32, 48
48, 44
44, 54
63, 79
48, 83
52, 61
26, 55
28, 38
25, 22
18, 22
14, 19
9, 12
7, 12
11, 9
8, 8
13, 7
10, 19
10, 14
19, 20
17, 26
26, 34
38, 42
51, 48
45, 57
53, 85
60, 67
59, 48
54, 47
33, 48
29, 36
24, 30
10, 28
16, 24
13, 16
17, 12
13, 13
9, 17
14, 11
14, 21
11, 17
17, 16
16, 29
13, 22
23, 18
17, 26
20, 16
13, 18
14, 14
18, 15
11, 8
15, 10
14, 12
6, 8
13, 10
14, 11
9, 15
9, 17
15, 24
18, 26
23, 35
23, 38
30, 23
29, 28
27, 35
22, 31
29, 21
26, 26
24, 24
20, 19
10, 12
11, 8
14, 9
15, 17
10, 18
13, 16
15, 15
9, 14
12, 20
25, 31
22, 33
29, 42
41, 53
50, 48
47, 45
42, 59
45, 54
41, 41
40, 39
24, 31
16, 22
17, 17
26, 27
21, 23
26, 44
34, 43
74, 59
108, 172
203, 268
309, 495
521, 686
799, 988
1095, 1297
1292, 1702
1449, 1815
1617, 1949
1593, 1771
1404, 1603
1203, 1216
857, 899
638, 625
423, 380
263, 251
149, 139
72, 65
44, 45
24, 30
18, 23
15, 12
16, 11
14, 15
19, 21
16, 32
20, 35
26, 36
33, 44
47, 63
74, 111
121, 142
162, 196
194, 256
210, 261
243, 279
264, 302
253, 258
211, 214
172, 175
137, 152
97, 92
65, 48
50, 32
17, 11
22, 13
6, 12
9, 16
6, 14
9, 12
8, 5
18, 11
11, 13
9, 15
14, 24
15, 13
9, 11
11, 11
5, 17
11, 3
8, 6
6, 8
4, 8
3, 7
5, 7
9, 7
6, 4
6, 6
6, 7
7, 8
5, 6
6, 6
10, 5
3, 4
5, 7
4, 9
5, 5
5, 6
12, 7
6, 8
6, 8
3, 5
10, 3
7, 10
5, 8
6, 9
8, 4
6, 9
9, 5
5, 5
4, 8
8, 9
5, 9
8, 9
3, 11
7, 3
6, 14
8, 10
7, 10
7, 6
5, 12
11, 11
9, 16
8, 8
12, 7
13, 7
7, 9
10, 8
12, 10
10, 5
9, 6
4, 0
6, 4
10, 6
4, 6
5, 6
8, 3
5, 5
3, 3
6, 5
5, 7
8, 4
2, 7
4, 8
4, 4
4, 11
6, 4
5, 6
4, 7
9, 5
4, 4
6, 7
3, 6
4, 2
6, 3
3, 6
5, 3
4, 4
2, 8
5, 3
4, 5
6, 7
2, 8
5, 8
2, 8
4, 4
5, 5
6, 5
5, 7
7, 2
4, 4
4, 3
11, 4
8, 5
2, 6
4, 1
1, 5
6, 6
5, 4
2, 9
3, 3
8, 5
3, 6
3, 6
2, 3
5, 10
1, 6
2, 3
2, 4
8, 6
3, 4
3, 7
1, 5
1, 2
5, 5
3, 4
5, 5
5, 4
3, 3
3, 3
2, 3
5, 3
5, 5
6, 5
2, 4
5, 2
3, 3
5, 2
1, 2
3, 7
4, 7
2, 3
1, 3
3, 6
0, 3
4, 0
2, 2
5, 1
2, 7
0, 5
2, 4
5, 3
1, 7
1, 2
7, 2
5, 3
2, 3
6, 3
2, 1
5, 3
2, 2
4, 4
2, 3
2, 4
2, 6
5, 2
0, 2
0, 1
4, 3
7, 3
4, 4
3, 5
1, 5
3, 1
3, 2
2, 3
2, 1
3, 1
3, 1
2, 5
2, 5
2, 4
5, 2
3, 1
2, 1
4, 2
2, 2
3, 2
5, 7
3, 1
3, 4
1, 1
3, 2
6, 5
3, 6
2, 3
1, 4
1, 2
1, 1
1, 2
0, 1
2, 1
1, 1
1, 3
4, 1
1, 2
6, 4
1, 0
2, 2
0, 2
4, 2
0, 0
2, 0
2, 4
4, 1
4, 2
0, 2
3, 2
1, 4
5, 4
2, 4
0, 4
2, 4
2, 2
0, 3
2, 4
2, 6
1, 1
1, 3
1, 4
6, 1
4, 0
4, 0
3, 2
2, 2
2, 1
2, 5
0, 3
1, 2
1, 1
1, 1
3, 1
4, 0
2, 1
1, 0
0, 0
2, 1
0, 1
1, 4
1, 1
1, 1
1, 0
1, 0
1, 1
5, 3
0, 2
3, 4
2, 1
1, 1
1, 3
1, 3
1, 3
3, 1
1, 0
2, 1
1, 2
2, 1
1, 5
2, 1
2, 2
1, 3
0, 0
0, 2
3, 1
0, 0
0, 1
2, 1
1, 1
0, 0
2, 0
1, 0
0, 2
1, 1
1, 0
0, 0
0, 3
0, 0
5, 0
0, 1
0, 1
1, 1
0, 2
2, 3
2, 0
1, 1
1, 1
1, 0
0, 0
1, 1
2, 2
0, 2
1, 1
1, 1
0, 0
0, 0
1, 1
3, 2
1, 0
0, 0
1, 1
1, 1
1, 0
2, 2
1, 2
1, 1
2, 1
1, 0
2, 1
2, 1
1, 3
0, 1
1, 0
0, 0
0, 1
0, 0
2, 1
0, 0
0, 1
1, 0
1, 0
0, 0
0, 0
0, 1
3, 1
0, 1
0, 0
1, 0
0, 1
0, 1
0, 1
0, 1
1, 0
0, 0
2, 0
0, 2
2, 0
1, 0
1, 0
0, 1
0, 1
0, 2
1, 1
3, 2
0, 1
1, 0
0, 1
0, 1
2, 0
1, 0
1, 0
1, 0
1, 0
0, 0
0, 1
1, 1
1, 0
0, 1
1, 0
1, 0
0, 1
0, 0
0, 0
2, 2
0, 1
0, 0
0, 1
0, 0
0, 1
0, 0
1, 0
0, 0
0, 0
0, 2
0, 0
0, 1
0, 0
0, 1
0, 2
1, 0
0, 0
1, 2
0, 0
0, 0
0, 0
0, 0
0, 0
0, 1
0, 0
1, 1
1, 0
0, 0
0, 0
0, 1
0, 0
0, 1
0, 0
1, 0
0, 1
1, 0
0, 0
0, 0
0, 0
2, 1
0, 1
0, 0
2, 0
1, 0
1, 0
2, 0
0, 0
0, 0
1, 0
0, 0
0, 0
1, 1
0, 1
1, 1
1, 0
2, 0
0, 0
0, 0
2, 0
1, 0
0, 0
0, 0
0, 0
0, 2
0, 0
0, 0
1, 0
0, 0
0, 1
0, 0
0, 1
0, 0
0, 0
0, 0
0, 0
0, 0
0, 0
0, 1
1, 0
0, 0
0, 1
1, 0
0, 0
0, 0
0, 1
0, 0
0, 0
1, 0
0, 0
0, 1
1, 0
0, 0
0, 0
0, 1
0, 0
0, 1
0, 0
0, 0
0, 0
0, 1
0, 1
0, 0
0, 0
0, 0
0, 0
1, 0
1, 0
0, 0
0, 0
0, 0
0, 0
2, 0
0, 0
0, 0
0, 0
0, 0
1, 0
0, 0
0, 1
0, 0
0, 0
1, 0
0, 0
0, 0
0, 0
2, 1
0, 0
0, 0
0, 0
0, 0
0, 0
0, 0
0, 0
0, 1
0, 0
0, 0
0, 0
0, 0
0, 0
0, 0
0, 0
0, 0
1, 0
0, 0
0, 0
0, 1
0, 0
0, 0
0, 0
0, 0
0, 0
0, 0
0, 0
0, 0
0, 0
0, 0
0, 0
0, 0
0, 0
0, 1
0, 0
0, 0
0, 0
0, 0
0, 0
0, 0
0, 0
0, 0
0, 0
0, 1
0, 0
0, 0
0, 1
0, 0
0, 0
0, 0
0, 0
0, 0
0, 0
0, 0
0, 0
0, 0
0, 0
0, 0
0, 3
0, 0
0, 0
0, 0
0, 0
0, 0
0, 0
0, 0
0, 0
0, 0
0, 0
0, 0
0, 0
0, 0
0, 0
1, 0
0, 0
0, 0
0, 0
0, 0
0, 0
0, 0
0, 0
0, 0
0, 1
0, 0
0, 0
0, 0
0, 0
0, 0
0, 0
0, 0
0, 0
0, 0
0, 0
0, 0
0, 0
0, 0
0, 1
0, 0
0, 0
0, 0
0, 0
0, 0
0, 0
1, 0
0, 0
0, 0
0, 0
0, 1
0, 0
0, 0
0, 0
0, 0
0, 0
0, 0
0, 0
0, 0
0, 0
1, 0
0, 1
0, 0
0, 0
0, 0
0, 0
1, 0
0, 0
0, 0
0, 0
0, 0
0, 0
0, 0
0, 0
0, 0
0, 0
0, 0
0, 0
0, 0
0, 0
0, 0
0, 0
0, 0
0, 0
0, 0
0, 0
0, 0
1, 0
0, 0
0, 0
1, 0
0, 1
0, 0
0, 0
0, 0
0, 0
0, 1
0, 0
0, 0
0, 0
0, 0
0, 0
0, 0
0, 0
0, 0
0, 1
0, 0
0, 0
0, 0
0, 0
0, 0
0, 0
0, 0
0, 0
0, 0
0, 0
0, 0
0, 0
0, 0
0, 0
0, 0
0, 0
0, 0
0, 0
0, 0
0, 0
0, 0
0, 0
0, 0
0, 1
0, 0
0, 0
0, 0
0, 0
0, 0
0, 0
0, 0
0, 0
0, 0
0, 0
0, 0
0, 0
0, 0
0, 0
0, 0
0, 0
0, 0
0, 0
0, 0
0, 0
0, 0
0, 0
1, 0
0, 0
0, 0
0, 0
0, 0
0, 0
0, 0
0, 0
0, 0
0, 0
0, 0
0, 0
0, 0
0, 0
0, 0
0, 0
0, 0
0, 0
0, 0
0, 0
0, 0
0, 0
0, 0
0, 0
0, 0
0, 0
0, 0
0, 0
0, 0
0, 0
0, 0
0, 0
0, 0
0, 0
0, 0
0, 0
0, 0
0, 0
0, 0
0, 0
0, 0
0, 0
0, 0
0, 0
0, 0
0, 0
0, 0
0, 0
0, 0
0, 0
0, 0
0, 0
0, 0
0, 0
0, 0
0, 0
0, 0
0, 0
0, 0
0, 0
0, 0
0, 0
0, 0
0, 0
0, 0
0, 0
0, 0
0, 0
0, 0
0, 0
0, 0
0, 0
0, 0
0, 0
0, 0
0, 0
0, 0
0, 0
0, 0
0, 0
0, 0
0, 0
0, 0
0, 0
0, 0
0, 0
0, 0
0, 0
0, 0
0, 0
0, 0
0, 0
0, 0
0, 0
0, 0
0, 0
0, 0
0, 0
0, 0
0, 0
0, 0
0, 0
0, 0
0, 0
0, 0
0, 0
0, 0
0, 0
0, 0
0, 0
0, 0
0, 0
0, 0
0, 0
0, 0
0, 0
0, 0
0, 0
0, 0
0, 0
0, 0
0, 0
0, 0
0, 0
0, 0
0, 0
0, 0
0, 0
0, 0
0, 0
0, 0
0, 0
0, 0
0, 0
0, 0
0, 0
0, 0
0, 0
0, 0
0, 0
0, 0
0, 0
0, 0
0, 0
0, 0
0, 0
0, 0
0, 0
0, 0
0, 0
0, 0
0, 0
0, 0
0, 0
0, 0
0, 0
0, 0
0, 0
0, 0
0, 0
0, 0
0, 0
0, 0
0, 0
0, 0
0, 0
0, 0
0, 0
0, 0
0, 0
0, 0
0, 0
0, 0
0, 0
0, 0
0, 0
0, 0
0, 0
0, 0
0, 0
0, 0
0, 0
0, 0
0, 0
0, 0
0, 0
0, 0
0, 0
0, 0
0, 0
0, 0
0, 0
0, 0
0, 0
0, 0
0, 0
0, 0
0, 0
0, 0
0, 0
0, 0
0, 0
0, 0
0, 0
0, 0
0, 0
0, 0
0, 0
0, 0
0, 0
0, 0
0, 0
0, 0
0, 0
0, 0
0, 0
0, 0
0, 0
0, 0
0, 0
0, 0
0, 0
0, 0
0, 0
0, 0
0, 0
0, 0
0, 0
0, 0
0, 0
0, 0
0, 0
0, 0
0, 0
0, 0
0, 0
0, 0
0, 0
0, 0
0, 0
0, 0
0, 0
0, 0
0, 0
0, 0
0, 0
0, 0
0, 0
0, 0
0, 0
0, 0
0, 0
0, 0
0, 0
0, 0
0, 0
0, 0
0, 0
0, 0
0, 0
0, 0
0, 0
0, 0
0, 0
0, 0
0, 0
0, 0
0, 0
0, 0
0, 0
0, 0
0, 0
0, 0
0, 0
0, 0
0, 0
0, 0
0, 0
0, 0
0, 0
0, 0
0, 0
0, 0
0, 0
0, 0
0, 0
0, 0
0, 0
0, 0
0, 0
0, 0
0, 0
0, 0
0, 0
0, 0
0, 0
0, 0
0, 0
0, 0
0, 0
0, 0
0, 0
0, 0
0, 0
0, 0
0, 0
0, 0
0, 0
0, 0
0, 0
0, 0
0, 0
0, 0
0, 0
0, 0
0, 0
0, 0
0, 0
0, 0
0, 0
0, 0
0, 0
0, 0
0, 0
0, 0
0, 0
0, 0
0, 0
0, 0
0, 0
0, 0
0, 0
0, 0
0, 0
0, 0
0, 0
0, 0
0, 0
0, 0
0, 0
0, 0
0, 0
0, 0
0, 0
0, 0
#ENDOFDATA     end of spectrum data