File: host_upload/02-11-2024/rqc/uplink1/ps__0567_0717304816_000rfs_shot_447.msa
#FORMAT      : EMSA/MAS spectral data file
#VERSION     : TC202v2.0 PIXL
#TITLE       : Novarupta (sol567) subset1
#DATE        : 02-11-2024      Date in the format DD-MMM-YYYY, for example 07-JUL-2010
#TIME        :             The time of day at which the spectrum was recorded, in 24-hour format
#OWNER       : PIXL Flight Model       (PIXL will use this to indicate which instrument took the data.)
#NPOINTS     : 4096     Number of data points in the spectrum (This can be zero for configuration only files)
#NCOLUMNS    : 2     Number of data columns in the spectrum (This can be zero for configuration only files)
#XUNITS      : eV
#YUNITS      : COUNTS
#DATATYPE    : YY
#XPERCHAN    : 7.862, 7.881   eV per channel (separate by commas if more than one detector)
#OFFSET      : 18.5, -22.4         eV of first channel  (separate by commas if more than one detector
#SIGNALTYPE  : XRF
#YP_TEMP     : 1.883
#LIVETIME    : 8.8291, 8.64642   seconds (separate by commas if more than one detector)
#REALTIME    : 10, 10.0   seconds (separate by commas if more than one detector)
#SPECTRUM    : start of spectrum data
0, 0
0, 0
0, 0
0, 0
0, 0
0, 0
0, 0
0, 0
0, 0
0, 0
0, 0
0, 0
0, 0
0, 0
0, 0
0, 0
0, 0
0, 0
0, 0
0, 0
0, 0
0, 0
0, 0
0, 0
0, 0
0, 0
0, 0
0, 1
0, 0
0, 0
0, 0
0, 0
0, 2
0, 0
1, 1
1, 1
1, 2
3, 5
3, 1
4, 7
5, 3
4, 3
1, 4
2, 4
3, 3
4, 1
3, 2
7, 5
6, 4
8, 2
8, 4
9, 10
10, 21
20, 21
14, 18
12, 15
10, 21
6, 12
12, 9
6, 12
15, 24
34, 38
37, 38
51, 58
47, 44
41, 37
45, 34
34, 41
45, 45
52, 66
102, 111
196, 196
281, 351
410, 419
430, 486
518, 521
414, 476
346, 382
227, 254
147, 162
87, 81
62, 43
22, 31
33, 46
21, 29
20, 32
30, 35
29, 32
33, 27
22, 26
15, 16
13, 25
32, 28
37, 44
81, 72
134, 150
192, 225
228, 265
298, 341
293, 284
242, 258
189, 220
136, 156
98, 100
64, 63
55, 47
64, 56
54, 74
81, 94
122, 140
157, 162
193, 235
205, 228
203, 214
214, 219
182, 147
147, 136
115, 92
83, 93
66, 84
65, 87
76, 62
65, 55
52, 71
56, 51
31, 22
30, 30
17, 24
19, 23
17, 17
12, 5
6, 4
6, 8
9, 4
11, 10
5, 6
12, 11
7, 13
18, 18
27, 30
28, 24
28, 40
33, 27
37, 36
14, 30
16, 17
18, 14
11, 14
13, 9
10, 15
26, 37
55, 59
82, 113
146, 157
199, 209
260, 314
352, 387
381, 414
350, 349
311, 340
230, 231
178, 149
101, 102
59, 68
31, 36
24, 38
23, 27
33, 42
36, 30
40, 51
62, 45
72, 73
39, 74
46, 57
47, 41
28, 30
13, 21
15, 12
10, 12
10, 13
11, 14
9, 8
11, 9
11, 7
8, 9
14, 13
10, 24
19, 27
28, 30
39, 50
39, 55
59, 59
64, 52
52, 63
48, 58
44, 42
43, 28
28, 23
27, 18
21, 10
22, 15
8, 17
14, 18
15, 13
12, 20
12, 17
23, 14
14, 15
23, 20
24, 23
10, 25
27, 22
11, 21
15, 16
12, 11
16, 12
11, 12
9, 15
10, 8
7, 10
7, 6
9, 8
9, 3
10, 16
15, 17
22, 13
9, 27
26, 24
22, 28
32, 31
26, 31
26, 29
22, 27
22, 34
20, 26
17, 23
10, 20
6, 18
18, 12
8, 15
9, 9
9, 13
12, 10
11, 13
10, 24
17, 24
29, 27
27, 24
28, 49
43, 55
44, 60
51, 43
48, 53
51, 41
47, 32
26, 35
24, 23
24, 20
14, 19
16, 19
20, 20
22, 27
33, 58
64, 70
107, 154
207, 272
328, 453
539, 739
812, 979
1150, 1415
1398, 1647
1579, 1834
1647, 1845
1621, 1735
1441, 1393
1149, 1135
891, 795
609, 569
418, 298
222, 184
141, 99
81, 56
41, 36
31, 34
15, 12
13, 16
20, 21
19, 14
15, 21
25, 14
25, 23
25, 33
37, 51
61, 68
55, 94
111, 129
165, 171
208, 234
212, 256
275, 269
274, 282
260, 237
226, 209
186, 166
149, 121
81, 77
62, 54
38, 32
13, 19
17, 15
7, 10
8, 13
11, 11
6, 13
15, 13
13, 16
10, 15
21, 17
16, 16
14, 7
15, 14
9, 16
10, 6
8, 7
5, 10
11, 7
3, 4
7, 9
4, 5
3, 9
10, 2
5, 4
7, 4
8, 5
6, 5
9, 6
8, 6
7, 2
2, 6
4, 10
7, 10
4, 2
4, 9
8, 4
11, 5
4, 2
3, 5
5, 7
10, 7
9, 5
8, 9
7, 11
8, 5
7, 3
7, 6
11, 7
7, 10
2, 7
8, 7
9, 10
11, 7
6, 8
11, 10
3, 10
6, 10
14, 6
9, 11
10, 10
9, 11
5, 12
12, 3
7, 9
5, 2
3, 4
8, 15
6, 3
4, 8
7, 2
2, 6
3, 3
2, 7
9, 5
11, 5
4, 2
1, 3
3, 6
7, 1
6, 9
3, 6
8, 1
10, 5
6, 4
9, 5
6, 8
4, 8
7, 9
4, 4
6, 4
1, 6
7, 5
6, 4
3, 6
7, 6
6, 4
3, 2
4, 6
7, 9
5, 1
6, 7
5, 3
1, 7
5, 3
3, 5
4, 3
4, 8
3, 7
3, 6
4, 6
2, 5
8, 5
6, 4
11, 2
4, 7
3, 2
5, 5
1, 1
7, 7
2, 5
4, 5
5, 3
7, 6
5, 3
5, 5
7, 6
2, 5
0, 2
5, 2
4, 4
7, 5
5, 6
2, 2
2, 6
3, 8
2, 5
2, 6
9, 2
2, 4
3, 3
1, 5
7, 6
1, 5
2, 2
4, 5
4, 2
2, 4
4, 3
4, 3
2, 3
2, 3
1, 5
5, 2
0, 2
2, 3
4, 2
6, 4
3, 1
4, 5
4, 3
2, 5
3, 4
3, 3
3, 2
5, 3
3, 1
2, 4
3, 0
7, 1
2, 4
2, 3
1, 5
1, 3
0, 3
4, 1
2, 5
4, 6
2, 1
1, 4
2, 5
2, 2
2, 6
3, 3
1, 3
1, 3
1, 0
4, 0
3, 2
3, 2
2, 3
5, 3
2, 2
1, 1
2, 0
1, 2
6, 3
3, 3
2, 0
3, 2
1, 1
1, 2
1, 1
2, 2
0, 1
2, 2
5, 0
0, 3
1, 1
3, 3
7, 2
3, 0
5, 2
4, 4
2, 4
1, 3
2, 0
6, 3
0, 0
2, 1
1, 3
0, 2
0, 4
3, 2
4, 3
2, 2
0, 1
2, 1
2, 1
3, 2
5, 2
3, 3
4, 2
1, 6
0, 3
4, 2
2, 5
6, 5
3, 2
3, 2
1, 2
1, 3
1, 5
1, 2
2, 0
0, 2
1, 2
3, 1
4, 1
2, 2
2, 1
0, 2
3, 0
0, 1
0, 3
4, 4
1, 1
4, 0
0, 2
1, 1
2, 2
2, 2
1, 2
4, 0
2, 3
1, 4
0, 1
1, 2
3, 1
3, 2
2, 2
2, 3
1, 1
2, 3
0, 1
1, 3
0, 3
1, 2
0, 0
1, 1
0, 2
0, 3
0, 0
1, 0
1, 1
2, 1
1, 1
1, 1
0, 1
0, 1
0, 3
0, 1
0, 1
2, 4
0, 0
2, 3
1, 3
2, 1
0, 1
1, 0
1, 3
0, 0
0, 1
1, 3
2, 2
1, 2
0, 0
1, 0
1, 0
1, 2
1, 0
0, 1
0, 1
0, 0
0, 0
1, 1
0, 0
1, 1
0, 3
2, 0
1, 1
1, 1
0, 1
1, 0
0, 1
0, 0
0, 0
0, 1
2, 1
1, 0
0, 0
1, 2
0, 1
0, 2
2, 2
2, 2
2, 0
0, 1
0, 0
0, 1
0, 1
0, 2
1, 0
0, 0
2, 2
1, 2
0, 0
2, 1
1, 2
1, 3
1, 0
0, 0
2, 1
0, 4
3, 0
0, 1
1, 0
0, 1
3, 0
1, 1
0, 0
0, 1
1, 0
1, 0
0, 0
1, 0
2, 1
0, 1
0, 0
0, 2
0, 0
1, 0
1, 3
0, 0
0, 0
0, 1
0, 1
1, 0
0, 0
1, 1
0, 0
2, 0
0, 0
0, 2
1, 0
2, 1
0, 1
0, 0
0, 2
1, 0
1, 0
0, 0
1, 0
0, 0
0, 0
0, 1
0, 0
0, 2
0, 0
0, 1
0, 0
1, 1
0, 0
0, 0
1, 0
0, 0
1, 0
0, 2
1, 0
0, 1
0, 0
0, 0
1, 0
1, 0
0, 1
1, 0
2, 0
0, 0
1, 0
1, 1
0, 0
0, 0
0, 0
0, 0
0, 1
0, 0
0, 0
0, 1
0, 0
0, 1
0, 0
0, 2
1, 0
0, 0
0, 0
0, 0
0, 0
0, 0
1, 0
0, 0
0, 0
1, 0
0, 0
0, 1
0, 1
0, 0
0, 0
0, 0
0, 1
0, 0
0, 0
0, 0
1, 1
0, 0
0, 1
0, 0
0, 1
0, 0
0, 0
0, 1
0, 0
0, 1
0, 0
0, 0
0, 0
0, 0
0, 0
0, 0
0, 0
0, 0
0, 1
0, 1
0, 0
0, 0
0, 0
0, 0
0, 0
0, 0
0, 0
0, 0
2, 1
0, 0
0, 0
1, 1
1, 0
0, 0
0, 0
0, 0
0, 0
0, 0
0, 1
0, 1
0, 1
1, 1
0, 0
0, 0
0, 0
0, 1
0, 0
0, 0
0, 1
0, 0
0, 0
0, 0
0, 0
0, 0
0, 0
1, 1
0, 0
0, 0
0, 0
0, 0
1, 0
0, 0
0, 0
0, 0
0, 0
0, 0
0, 1
0, 0
0, 1
1, 0
0, 0
0, 0
0, 0
0, 0
0, 0
0, 0
1, 0
0, 0
0, 0
0, 0
0, 0
0, 0
0, 0
0, 0
0, 0
0, 0
1, 1
0, 0
0, 1
0, 0
0, 0
0, 0
0, 0
0, 0
1, 1
0, 2
0, 0
0, 0
0, 0
0, 0
1, 0
0, 0
0, 0
0, 0
0, 0
0, 0
0, 0
0, 0
0, 0
0, 0
0, 0
0, 0
0, 0
0, 0
0, 0
0, 0
0, 0
1, 1
0, 0
0, 0
0, 0
0, 0
0, 0
0, 0
1, 0
0, 0
0, 0
0, 1
0, 0
0, 0
0, 0
0, 0
0, 0
1, 0
0, 0
0, 0
0, 0
1, 0
0, 0
0, 0
0, 0
0, 1
0, 0
0, 0
0, 0
0, 0
0, 0
0, 0
0, 0
0, 0
0, 0
0, 0
0, 0
0, 0
0, 1
0, 0
0, 0
0, 0
0, 1
0, 0
0, 0
0, 0
0, 0
0, 0
0, 0
0, 0
0, 0
1, 0
0, 0
0, 0
0, 0
0, 0
0, 0
0, 0
0, 1
0, 0
0, 0
0, 0
1, 0
0, 1
0, 0
0, 0
0, 0
0, 0
0, 1
0, 0
0, 0
0, 0
0, 0
0, 0
0, 0
0, 0
0, 0
0, 0
0, 0
1, 0
0, 0
0, 0
0, 0
0, 0
0, 0
0, 0
0, 0
0, 0
0, 0
0, 0
0, 1
0, 0
0, 0
0, 0
0, 0
0, 0
0, 0
0, 0
0, 0
0, 0
0, 0
0, 0
0, 0
0, 0
0, 0
0, 0
0, 0
0, 0
0, 0
0, 0
0, 0
0, 0
0, 0
0, 0
0, 0
0, 0
0, 0
0, 0
0, 0
0, 0
0, 0
0, 0
0, 0
0, 0
0, 0
0, 0
0, 0
0, 0
0, 0
0, 0
0, 0
0, 0
0, 0
0, 0
0, 0
0, 0
0, 0
0, 0
0, 0
0, 0
0, 0
0, 0
0, 0
0, 0
0, 0
0, 0
1, 0
0, 0
0, 0
0, 0
0, 0
0, 0
0, 0
0, 0
0, 0
0, 0
0, 0
0, 0
0, 0
0, 0
0, 0
0, 0
0, 0
0, 0
0, 0
0, 0
0, 0
0, 0
0, 0
0, 0
0, 0
0, 0
0, 0
0, 0
0, 0
0, 0
0, 0
0, 0
0, 0
0, 0
0, 0
0, 0
0, 0
0, 0
0, 0
0, 0
0, 0
0, 0
0, 0
0, 0
0, 0
0, 0
0, 0
0, 0
0, 0
0, 0
0, 0
0, 0
0, 0
0, 0
0, 0
0, 0
0, 0
0, 0
0, 0
0, 1
0, 0
0, 0
0, 0
0, 0
0, 0
0, 0
0, 0
0, 0
0, 0
0, 0
0, 0
0, 0
0, 0
0, 0
0, 0
0, 0
0, 0
0, 0
0, 0
0, 0
0, 0
0, 0
0, 0
0, 0
0, 0
0, 0
0, 0
0, 0
0, 0
0, 0
0, 0
0, 0
0, 0
0, 0
0, 0
0, 0
0, 0
0, 0
0, 0
0, 0
0, 0
0, 0
0, 0
0, 0
0, 0
0, 0
0, 0
0, 0
0, 0
0, 0
0, 0
0, 0
0, 0
0, 0
0, 0
0, 0
0, 0
0, 0
0, 0
0, 0
0, 0
0, 0
0, 0
0, 0
0, 0
0, 0
0, 0
0, 0
0, 0
0, 0
0, 0
0, 0
0, 0
0, 0
0, 0
0, 0
0, 0
0, 0
0, 0
0, 0
0, 0
0, 0
0, 0
0, 0
0, 0
0, 0
0, 0
0, 0
0, 0
0, 0
0, 0
0, 0
0, 0
0, 0
0, 0
0, 0
0, 0
0, 0
0, 0
0, 0
0, 0
0, 0
0, 0
0, 0
0, 0
0, 0
0, 0
0, 0
0, 0
0, 0
0, 0
0, 0
0, 0
0, 0
0, 0
0, 0
0, 0
0, 0
0, 0
0, 0
0, 0
0, 0
0, 0
0, 0
0, 0
0, 0
0, 0
0, 0
0, 0
0, 0
0, 0
0, 0
0, 0
0, 0
0, 0
0, 0
0, 0
0, 0
0, 0
0, 0
0, 0
0, 0
0, 0
0, 0
0, 0
0, 0
0, 0
0, 0
0, 0
0, 0
0, 0
0, 0
0, 0
0, 0
0, 0
0, 0
0, 0
0, 0
0, 0
0, 0
0, 0
0, 0
0, 0
0, 0
0, 0
0, 0
0, 0
0, 0
0, 0
0, 0
0, 0
0, 0
0, 0
0, 0
0, 0
0, 0
0, 0
0, 0
0, 0
0, 0
0, 0
0, 0
0, 0
0, 0
0, 0
0, 0
0, 0
0, 0
0, 0
0, 0
0, 0
0, 0
0, 0
0, 0
0, 0
0, 0
0, 0
0, 0
0, 0
0, 0
0, 0
0, 0
0, 0
0, 0
0, 0
0, 0
0, 0
0, 0
0, 0
0, 0
0, 0
0, 0
0, 0
0, 0
0, 0
0, 0
0, 0
0, 0
0, 0
0, 0
0, 0
0, 0
0, 0
0, 0
0, 0
0, 0
0, 0
0, 0
0, 0
0, 0
0, 0
0, 0
0, 0
0, 0
0, 0
0, 0
0, 0
0, 0
0, 0
0, 0
0, 0
0, 0
0, 0
0, 0
0, 0
0, 0
0, 0
0, 0
0, 0
0, 0
0, 0
0, 0
0, 0
0, 0
0, 0
0, 0
0, 0
0, 0
0, 0
0, 0
0, 0
0, 0
0, 0
0, 0
0, 0
0, 0
0, 0
0, 0
0, 0
0, 0
0, 0
0, 0
0, 0
0, 0
0, 0
0, 0
0, 0
0, 0
0, 0
0, 0
0, 0
0, 0
0, 0
0, 0
0, 0
#ENDOFDATA     end of spectrum data