File: host_upload/02-11-2024/rqc/uplink1/ps__0567_0717304816_000rfs_shot_461.msa
#FORMAT      : EMSA/MAS spectral data file
#VERSION     : TC202v2.0 PIXL
#TITLE       : Novarupta (sol567) subset1
#DATE        : 02-11-2024      Date in the format DD-MMM-YYYY, for example 07-JUL-2010
#TIME        :             The time of day at which the spectrum was recorded, in 24-hour format
#OWNER       : PIXL Flight Model       (PIXL will use this to indicate which instrument took the data.)
#NPOINTS     : 4096     Number of data points in the spectrum (This can be zero for configuration only files)
#NCOLUMNS    : 2     Number of data columns in the spectrum (This can be zero for configuration only files)
#XUNITS      : eV
#YUNITS      : COUNTS
#DATATYPE    : YY
#XPERCHAN    : 7.862, 7.881   eV per channel (separate by commas if more than one detector)
#OFFSET      : 18.5, -22.4         eV of first channel  (separate by commas if more than one detector
#SIGNALTYPE  : XRF
#YP_TEMP     : 1.883
#LIVETIME    : 8.83128, 8.8212   seconds (separate by commas if more than one detector)
#REALTIME    : 10, 10.0   seconds (separate by commas if more than one detector)
#SPECTRUM    : start of spectrum data
0, 0
0, 0
0, 0
0, 0
0, 0
0, 0
0, 0
0, 0
0, 0
0, 0
0, 0
0, 0
0, 0
0, 0
0, 0
0, 0
0, 0
0, 0
0, 0
0, 0
0, 0
0, 0
0, 0
0, 0
0, 0
0, 0
0, 0
0, 0
0, 0
0, 0
0, 0
0, 0
0, 1
0, 0
1, 0
0, 0
5, 4
2, 2
2, 7
4, 1
5, 3
2, 4
3, 3
4, 3
3, 3
5, 3
3, 1
6, 4
3, 1
4, 5
11, 4
12, 4
13, 14
12, 13
11, 13
10, 13
11, 9
12, 8
10, 10
10, 9
17, 15
22, 29
32, 42
34, 50
39, 44
40, 47
37, 46
31, 34
31, 34
56, 62
110, 112
185, 206
286, 354
380, 438
510, 488
473, 543
395, 420
304, 322
216, 244
155, 146
74, 84
41, 46
29, 36
26, 20
17, 27
30, 39
41, 35
28, 34
26, 28
26, 30
13, 14
16, 21
18, 32
44, 47
67, 79
121, 139
180, 201
261, 311
299, 317
281, 342
235, 263
213, 218
135, 173
101, 101
60, 55
47, 40
50, 62
57, 64
86, 93
112, 117
171, 141
186, 220
187, 214
174, 217
198, 213
176, 158
126, 137
94, 101
89, 101
80, 78
76, 88
61, 81
83, 79
47, 56
47, 44
31, 34
31, 31
17, 23
17, 16
15, 11
10, 16
12, 12
9, 8
8, 6
5, 11
7, 9
11, 15
19, 17
15, 29
27, 23
34, 26
28, 43
31, 35
31, 37
22, 20
9, 15
12, 11
14, 12
10, 14
12, 20
33, 24
35, 53
93, 93
135, 158
194, 216
299, 356
359, 418
347, 378
345, 419
299, 338
243, 243
155, 171
100, 101
66, 56
40, 41
18, 22
26, 40
32, 40
35, 40
50, 54
62, 72
56, 67
54, 57
47, 55
37, 41
26, 22
29, 19
21, 19
5, 8
4, 6
11, 6
9, 10
9, 6
11, 14
10, 7
16, 12
23, 28
19, 19
23, 40
44, 38
59, 63
54, 67
62, 49
62, 64
59, 56
36, 49
40, 48
28, 32
33, 20
21, 20
16, 10
13, 17
11, 11
15, 10
7, 6
12, 12
17, 12
21, 17
16, 12
14, 26
10, 17
20, 18
17, 12
19, 15
14, 12
16, 14
9, 15
8, 9
9, 10
8, 15
4, 15
10, 20
13, 13
9, 13
15, 19
14, 18
14, 22
25, 29
33, 33
33, 27
26, 33
28, 29
32, 37
30, 19
21, 16
17, 20
9, 17
16, 5
6, 11
11, 7
13, 14
10, 16
14, 13
12, 11
8, 7
14, 16
35, 32
35, 27
38, 45
42, 47
33, 45
50, 50
46, 60
38, 45
39, 45
29, 39
25, 18
20, 21
21, 18
12, 23
32, 25
22, 36
43, 47
57, 74
121, 148
206, 273
352, 412
546, 726
861, 1038
1073, 1337
1408, 1623
1621, 1865
1688, 1907
1641, 1678
1511, 1439
1253, 1158
857, 825
589, 559
372, 345
236, 198
127, 100
66, 43
35, 36
22, 26
13, 18
12, 11
21, 15
17, 13
21, 20
16, 19
20, 25
23, 40
43, 54
47, 88
74, 109
126, 110
138, 236
202, 215
226, 261
246, 268
253, 263
250, 275
233, 218
151, 178
140, 122
90, 88
56, 62
39, 37
27, 22
6, 11
7, 13
13, 3
10, 9
6, 13
5, 12
7, 14
9, 20
13, 8
12, 9
12, 15
13, 6
9, 10
11, 9
3, 8
9, 6
0, 9
6, 7
7, 4
1, 4
5, 2
3, 6
7, 4
5, 7
2, 5
7, 4
8, 5
10, 9
4, 7
4, 10
4, 9
9, 6
6, 5
3, 8
14, 6
8, 4
10, 8
6, 5
8, 10
7, 11
9, 7
5, 4
5, 8
12, 9
8, 8
6, 7
8, 11
5, 5
10, 10
7, 6
8, 7
6, 7
3, 8
3, 8
5, 12
12, 10
9, 12
18, 11
5, 13
14, 13
7, 12
9, 8
4, 8
10, 8
9, 3
7, 2
5, 4
7, 4
3, 5
4, 4
5, 9
6, 6
9, 8
8, 6
5, 3
5, 3
4, 6
6, 13
5, 1
2, 3
8, 2
6, 3
4, 6
2, 8
6, 6
4, 4
4, 3
6, 3
5, 2
2, 7
4, 7
7, 4
4, 6
3, 3
2, 5
1, 3
5, 4
9, 7
2, 4
5, 10
4, 2
7, 5
5, 3
5, 6
1, 3
4, 2
5, 4
1, 1
4, 5
4, 4
3, 4
3, 7
4, 6
5, 4
7, 9
4, 7
5, 6
7, 4
6, 1
4, 6
4, 4
3, 5
4, 4
3, 6
5, 8
2, 6
9, 2
3, 4
2, 3
2, 0
7, 4
3, 2
2, 3
2, 3
2, 2
3, 2
7, 3
4, 3
6, 3
2, 5
1, 6
1, 6
2, 6
1, 3
2, 4
2, 3
5, 3
3, 4
4, 2
4, 9
0, 4
2, 1
2, 1
3, 4
7, 2
5, 6
3, 6
2, 1
2, 3
2, 1
4, 5
3, 3
4, 6
3, 5
1, 5
1, 3
7, 3
3, 2
4, 4
5, 1
4, 2
4, 2
4, 5
4, 1
1, 7
4, 0
2, 2
3, 5
2, 2
2, 4
1, 2
3, 1
3, 1
4, 4
3, 0
0, 5
4, 4
0, 2
1, 4
1, 5
3, 3
4, 0
1, 1
0, 1
2, 5
4, 4
8, 5
1, 2
2, 1
3, 4
1, 2
2, 4
2, 5
1, 1
3, 0
5, 4
1, 3
2, 1
5, 3
1, 3
2, 3
0, 2
3, 2
1, 4
0, 1
1, 4
4, 1
3, 2
1, 0
4, 1
2, 2
3, 1
1, 3
3, 1
2, 1
1, 0
3, 2
3, 1
2, 3
2, 5
2, 2
2, 2
3, 2
5, 5
1, 4
2, 2
0, 3
3, 3
2, 4
1, 1
1, 2
1, 0
1, 1
0, 1
1, 1
0, 1
2, 1
0, 0
0, 4
0, 3
2, 0
0, 4
2, 0
3, 1
3, 5
2, 4
1, 2
0, 4
1, 3
0, 3
3, 0
2, 3
1, 1
1, 1
1, 0
0, 2
0, 3
0, 2
1, 0
0, 2
1, 0
1, 1
1, 1
0, 1
1, 1
0, 1
2, 2
4, 3
1, 0
2, 3
0, 1
3, 0
0, 0
0, 0
1, 2
1, 0
3, 2
2, 1
3, 3
1, 1
1, 0
2, 2
1, 0
1, 3
1, 1
2, 1
0, 0
0, 1
2, 0
3, 1
0, 0
1, 3
1, 0
0, 2
3, 0
1, 2
2, 0
0, 0
0, 2
0, 0
0, 1
0, 1
0, 1
2, 0
1, 0
0, 1
0, 2
1, 1
0, 1
0, 0
0, 1
1, 0
0, 0
0, 1
2, 2
0, 2
2, 0
0, 1
0, 1
0, 2
2, 0
1, 1
1, 0
2, 2
0, 1
0, 2
1, 1
1, 1
0, 1
0, 1
1, 0
1, 1
0, 0
0, 1
0, 0
1, 0
0, 0
1, 0
1, 0
3, 1
2, 1
0, 0
0, 0
1, 1
0, 1
0, 0
0, 2
0, 0
0, 0
0, 0
0, 0
0, 1
0, 1
0, 0
0, 1
0, 0
0, 0
0, 1
0, 0
0, 1
2, 1
0, 1
0, 0
0, 0
0, 0
0, 1
0, 0
1, 0
0, 1
1, 0
0, 0
3, 1
0, 1
1, 0
0, 1
0, 0
0, 0
0, 1
0, 1
1, 0
0, 0
1, 0
1, 1
0, 0
1, 1
0, 1
0, 0
2, 0
0, 0
1, 0
0, 0
0, 0
0, 0
1, 0
0, 2
0, 2
0, 0
0, 0
0, 1
0, 0
1, 0
1, 0
0, 0
1, 0
0, 1
0, 0
0, 1
0, 1
0, 0
0, 0
0, 0
0, 0
1, 0
0, 1
0, 1
0, 0
1, 0
0, 0
1, 1
0, 0
0, 0
0, 0
0, 0
0, 1
0, 0
1, 1
0, 0
0, 0
1, 0
0, 0
1, 0
0, 0
0, 0
0, 0
0, 0
1, 0
0, 2
0, 0
1, 0
0, 0
0, 2
0, 0
0, 0
0, 1
1, 1
0, 1
1, 0
0, 0
0, 0
0, 0
0, 0
0, 0
0, 2
2, 0
1, 0
0, 1
1, 0
1, 0
0, 0
0, 0
0, 0
1, 0
0, 0
0, 0
1, 0
1, 0
1, 0
1, 0
0, 0
0, 0
0, 0
0, 1
0, 0
0, 0
0, 0
1, 0
0, 0
0, 0
0, 0
0, 1
0, 0
2, 0
0, 1
0, 0
4, 2
0, 2
1, 1
0, 0
0, 1
0, 0
0, 2
1, 0
0, 0
0, 1
0, 0
0, 1
1, 0
0, 1
1, 0
0, 0
0, 0
0, 1
0, 0
0, 0
0, 1
0, 0
0, 0
0, 1
0, 0
1, 0
0, 0
0, 0
0, 0
0, 0
0, 0
0, 0
0, 1
0, 0
0, 0
0, 0
0, 0
0, 0
0, 0
0, 0
0, 0
0, 0
0, 0
0, 0
0, 1
0, 0
0, 0
0, 0
0, 0
0, 0
0, 0
0, 0
0, 1
0, 0
0, 0
0, 0
0, 0
0, 0
0, 0
0, 0
0, 2
0, 0
0, 0
0, 0
0, 0
0, 0
0, 0
0, 1
0, 0
0, 0
0, 0
0, 0
0, 0
0, 0
0, 0
0, 0
1, 1
0, 0
0, 0
0, 0
1, 0
0, 0
0, 0
0, 0
0, 0
0, 0
0, 0
0, 0
0, 0
0, 0
0, 0
1, 0
0, 0
0, 0
0, 0
0, 0
1, 0
0, 0
0, 0
0, 0
0, 0
0, 0
0, 0
0, 0
0, 0
0, 0
0, 0
0, 0
0, 0
0, 0
0, 0
0, 0
0, 0
0, 0
0, 0
1, 0
0, 0
0, 0
0, 0
0, 0
0, 0
0, 0
0, 0
0, 0
0, 0
0, 0
0, 0
0, 0
0, 0
0, 0
0, 0
0, 0
0, 0
0, 0
0, 0
0, 0
0, 0
0, 0
0, 0
0, 0
0, 0
0, 0
0, 1
0, 0
0, 0
0, 0
0, 0
0, 0
0, 0
0, 0
0, 0
0, 0
0, 0
0, 0
0, 0
0, 0
0, 0
0, 0
0, 0
0, 0
0, 0
0, 0
0, 0
0, 0
0, 0
0, 0
0, 0
0, 0
0, 0
0, 0
0, 0
0, 0
0, 0
0, 0
0, 0
0, 0
0, 0
0, 0
0, 0
0, 0
0, 0
0, 0
0, 0
0, 0
0, 0
0, 0
0, 0
0, 0
0, 0
0, 0
0, 0
0, 0
0, 0
0, 0
0, 0
0, 0
1, 0
0, 0
0, 0
0, 0
0, 0
0, 1
0, 0
0, 0
0, 0
0, 0
0, 0
0, 0
0, 0
0, 0
0, 0
0, 0
0, 0
0, 0
0, 0
0, 0
0, 0
0, 0
0, 0
0, 0
0, 0
0, 0
0, 0
0, 0
0, 0
0, 0
0, 0
0, 0
0, 1
0, 0
0, 0
0, 0
0, 0
0, 0
0, 0
0, 0
0, 0
0, 0
0, 0
0, 0
0, 0
0, 0
0, 0
0, 0
0, 0
0, 0
0, 0
0, 0
0, 0
0, 0
0, 0
0, 0
0, 0
0, 0
0, 0
0, 0
0, 0
0, 0
0, 0
0, 0
0, 0
0, 0
0, 0
0, 0
0, 0
0, 0
0, 0
0, 0
0, 0
0, 0
0, 0
0, 0
0, 0
0, 0
0, 0
0, 0
0, 0
0, 0
0, 0
0, 0
0, 0
0, 0
0, 0
0, 0
0, 0
0, 0
0, 0
0, 0
0, 0
0, 0
0, 0
0, 0
0, 0
0, 0
0, 0
0, 0
0, 0
0, 0
0, 0
0, 0
0, 0
0, 0
0, 0
0, 0
0, 0
0, 0
0, 0
0, 0
0, 0
0, 0
0, 0
0, 0
0, 0
0, 0
0, 0
0, 0
0, 0
0, 0
0, 0
0, 0
0, 0
0, 0
0, 0
0, 0
0, 0
0, 0
0, 0
0, 0
0, 0
0, 0
0, 0
0, 0
0, 0
0, 0
0, 0
0, 0
0, 0
0, 0
0, 0
0, 0
0, 0
0, 0
0, 0
0, 0
0, 0
0, 0
0, 0
0, 0
0, 0
0, 0
0, 0
0, 0
0, 0
0, 0
0, 0
0, 0
0, 0
0, 0
0, 0
0, 0
0, 0
0, 0
0, 0
0, 0
0, 0
0, 0
0, 0
0, 0
0, 0
0, 0
0, 0
0, 0
0, 0
0, 0
0, 0
0, 0
0, 0
0, 0
0, 0
0, 0
0, 0
0, 0
0, 0
0, 0
0, 0
0, 0
0, 0
0, 0
0, 0
0, 0
0, 0
0, 0
0, 0
0, 0
0, 0
0, 0
0, 0
0, 0
0, 0
0, 0
0, 0
0, 0
0, 0
0, 0
0, 0
0, 0
0, 0
0, 0
0, 0
0, 0
0, 0
0, 0
0, 0
0, 0
0, 0
0, 0
0, 0
0, 0
0, 0
0, 0
0, 0
0, 0
0, 0
0, 0
0, 0
0, 0
0, 0
0, 0
0, 0
0, 0
0, 0
0, 0
0, 0
0, 0
0, 0
0, 0
0, 0
0, 0
0, 0
0, 0
0, 0
0, 0
0, 0
0, 0
0, 0
0, 0
0, 0
0, 0
0, 0
0, 0
0, 0
0, 0
0, 0
0, 0
0, 0
0, 0
0, 0
0, 0
0, 0
0, 0
0, 0
0, 0
0, 0
0, 0
0, 0
0, 0
0, 0
0, 0
0, 0
0, 0
0, 0
0, 0
0, 0
0, 0
0, 0
0, 0
0, 0
0, 0
0, 0
0, 0
0, 0
0, 0
0, 0
0, 0
0, 0
0, 0
0, 0
0, 0
0, 0
0, 0
0, 0
0, 0
0, 0
0, 0
0, 0
0, 0
0, 0
0, 0
0, 0
0, 0
0, 0
0, 0
0, 0
0, 0
0, 0
0, 0
0, 0
0, 0
0, 0
0, 0
0, 0
0, 0
0, 0
0, 0
0, 0
0, 0
0, 0
0, 0
0, 0
0, 0
0, 0
0, 0
0, 0
0, 0
0, 0
0, 0
0, 0
0, 0
0, 0
0, 0
0, 0
0, 0
0, 0
0, 0
0, 0
0, 0
0, 0
0, 0
0, 0
0, 0
0, 0
0, 0
0, 0
0, 0
0, 0
0, 0
0, 0
0, 0
0, 0
0, 0
0, 0
0, 0
0, 0
0, 0
0, 0
0, 0
0, 0
0, 0
0, 0
0, 0
0, 0
0, 0
0, 0
#ENDOFDATA     end of spectrum data