File: host_upload/02-11-2024/rqc/uplink1/ps__0567_0717304816_000rfs_shot_185.msa
#FORMAT      : EMSA/MAS spectral data file
#VERSION     : TC202v2.0 PIXL
#TITLE       : Novarupta (sol567) subset1
#DATE        : 02-11-2024      Date in the format DD-MMM-YYYY, for example 07-JUL-2010
#TIME        :             The time of day at which the spectrum was recorded, in 24-hour format
#OWNER       : PIXL Flight Model       (PIXL will use this to indicate which instrument took the data.)
#NPOINTS     : 4096     Number of data points in the spectrum (This can be zero for configuration only files)
#NCOLUMNS    : 2     Number of data columns in the spectrum (This can be zero for configuration only files)
#XUNITS      : eV
#YUNITS      : COUNTS
#DATATYPE    : YY
#XPERCHAN    : 7.862, 7.881   eV per channel (separate by commas if more than one detector)
#OFFSET      : 18.5, -22.4         eV of first channel  (separate by commas if more than one detector
#SIGNALTYPE  : XRF
#YP_TEMP     : 0.439
#LIVETIME    : 8.83094, 8.64512   seconds (separate by commas if more than one detector)
#REALTIME    : 10, 10.0   seconds (separate by commas if more than one detector)
#SPECTRUM    : start of spectrum data
0, 0
0, 0
0, 0
0, 0
0, 0
0, 0
0, 0
0, 0
0, 0
0, 0
0, 0
0, 0
0, 0
0, 0
0, 0
0, 0
0, 0
0, 0
0, 0
0, 0
0, 0
0, 0
0, 0
0, 0
0, 0
0, 0
0, 0
0, 0
0, 0
0, 0
0, 0
0, 0
1, 0
1, 1
1, 0
0, 3
0, 2
3, 2
3, 6
3, 4
5, 4
3, 5
4, 4
3, 5
1, 3
8, 2
2, 7
0, 4
2, 4
8, 1
4, 7
4, 11
14, 11
11, 11
23, 12
13, 16
11, 5
8, 13
12, 8
8, 12
11, 16
30, 32
31, 35
46, 49
42, 51
37, 52
42, 34
29, 25
31, 38
52, 71
90, 131
176, 255
303, 347
337, 472
457, 523
446, 484
382, 470
335, 352
210, 204
129, 144
77, 94
43, 59
36, 42
29, 21
35, 34
33, 37
39, 36
32, 41
22, 20
14, 17
15, 9
20, 24
27, 50
52, 52
98, 85
140, 156
227, 228
270, 310
277, 370
325, 313
287, 321
230, 235
164, 179
100, 114
64, 75
50, 54
62, 63
69, 61
85, 102
139, 140
158, 166
205, 232
220, 254
207, 233
186, 203
153, 152
125, 112
99, 94
93, 82
77, 98
77, 77
70, 79
65, 64
49, 48
43, 46
36, 34
23, 34
34, 18
11, 20
14, 10
8, 8
13, 8
11, 4
7, 3
8, 6
8, 8
12, 12
13, 22
26, 25
23, 32
30, 28
22, 29
30, 31
29, 28
20, 26
9, 16
9, 7
13, 17
12, 11
15, 21
26, 26
46, 58
83, 103
132, 172
245, 265
292, 343
374, 391
387, 473
357, 353
299, 316
231, 245
153, 174
110, 99
53, 61
39, 33
27, 41
30, 20
26, 43
40, 53
50, 46
59, 65
54, 81
62, 67
41, 47
39, 31
25, 32
30, 24
10, 13
12, 7
12, 8
7, 7
5, 13
7, 7
11, 13
12, 14
8, 15
25, 12
23, 19
41, 39
40, 43
51, 61
59, 69
61, 64
45, 59
46, 57
33, 43
29, 33
25, 34
25, 29
14, 21
13, 28
12, 10
11, 8
13, 16
12, 14
13, 14
13, 14
15, 23
14, 27
16, 20
18, 21
20, 21
17, 25
14, 19
14, 20
16, 10
13, 8
15, 12
12, 18
9, 11
10, 7
10, 15
9, 16
17, 19
9, 13
22, 18
26, 23
22, 27
30, 28
31, 35
37, 40
25, 44
29, 33
24, 29
12, 24
18, 18
12, 15
11, 15
17, 12
6, 4
13, 13
11, 10
14, 14
14, 18
17, 24
17, 24
26, 27
26, 34
43, 40
38, 58
49, 58
39, 68
37, 39
43, 49
32, 36
28, 22
25, 27
13, 19
18, 20
12, 12
18, 17
32, 28
44, 55
68, 86
141, 161
224, 283
364, 487
545, 751
884, 1109
1150, 1422
1427, 1693
1564, 1873
1731, 1887
1583, 1745
1400, 1378
1149, 1065
814, 741
567, 494
365, 290
200, 167
99, 101
59, 55
37, 39
20, 22
13, 19
12, 8
18, 23
13, 19
13, 18
14, 29
18, 24
29, 32
44, 48
64, 81
77, 103
116, 163
156, 213
194, 232
257, 263
245, 286
244, 276
257, 271
192, 201
156, 141
130, 125
71, 77
57, 40
31, 40
24, 26
14, 12
7, 13
7, 7
5, 11
7, 8
8, 10
11, 8
9, 15
18, 16
7, 16
8, 13
7, 18
5, 8
11, 9
6, 6
9, 9
5, 8
4, 6
4, 6
5, 3
7, 6
3, 10
6, 8
9, 9
10, 4
9, 8
3, 3
3, 5
9, 7
0, 9
8, 8
5, 7
5, 5
2, 9
5, 6
11, 6
9, 11
4, 9
9, 9
5, 8
5, 15
11, 11
13, 6
10, 6
12, 9
2, 7
10, 12
3, 11
7, 6
7, 6
4, 4
3, 8
6, 5
13, 8
11, 8
8, 12
7, 18
18, 12
13, 12
3, 15
12, 12
11, 6
9, 8
13, 9
7, 4
6, 5
7, 8
10, 8
6, 7
8, 8
14, 5
4, 6
4, 5
5, 6
6, 3
5, 5
5, 2
5, 7
6, 3
9, 10
5, 10
7, 5
5, 12
3, 6
8, 5
7, 7
5, 6
4, 2
7, 7
6, 6
7, 5
4, 7
4, 3
6, 6
4, 6
5, 1
6, 4
11, 6
5, 5
3, 5
3, 6
3, 8
2, 8
5, 4
6, 2
3, 10
2, 4
17, 2
0, 6
4, 5
9, 6
4, 2
3, 3
3, 2
5, 6
4, 7
6, 1
3, 4
5, 6
3, 3
1, 4
3, 6
3, 7
4, 4
5, 1
3, 4
3, 4
4, 10
3, 8
3, 3
2, 3
7, 3
2, 4
4, 7
3, 6
5, 8
1, 2
2, 2
3, 6
0, 4
6, 3
4, 4
4, 5
2, 2
5, 2
1, 4
4, 2
5, 5
2, 1
4, 3
4, 7
3, 4
3, 1
4, 3
3, 4
5, 2
3, 1
3, 4
6, 7
2, 8
4, 6
3, 3
8, 1
4, 2
1, 5
2, 2
7, 1
2, 1
2, 0
3, 1
1, 4
3, 6
2, 0
5, 5
2, 4
2, 3
1, 3
0, 7
4, 8
4, 3
2, 0
2, 0
4, 3
2, 2
4, 0
4, 2
2, 2
1, 3
3, 3
2, 5
3, 2
4, 4
2, 3
0, 2
1, 2
4, 3
1, 4
4, 0
1, 2
2, 5
1, 1
1, 2
6, 2
1, 2
2, 3
1, 5
3, 3
1, 1
1, 3
2, 2
3, 3
3, 1
2, 4
1, 2
4, 3
2, 1
1, 1
2, 6
3, 1
2, 3
2, 3
0, 3
1, 2
3, 1
1, 1
1, 2
1, 3
1, 3
5, 3
4, 3
2, 3
5, 2
2, 2
0, 5
0, 2
2, 0
4, 4
3, 4
3, 1
3, 1
5, 1
2, 2
2, 2
1, 2
6, 2
3, 1
4, 2
2, 3
4, 2
0, 1
0, 1
3, 1
2, 1
2, 3
2, 1
1, 1
4, 1
1, 3
2, 3
1, 2
2, 3
1, 3
1, 0
3, 0
1, 0
0, 1
1, 1
1, 2
1, 0
0, 1
1, 1
0, 1
1, 2
1, 1
2, 1
1, 1
2, 0
2, 1
1, 2
0, 1
1, 7
1, 1
2, 3
1, 1
2, 2
3, 4
0, 4
1, 2
0, 1
1, 2
1, 2
1, 2
0, 0
2, 0
1, 0
1, 2
2, 2
1, 1
1, 0
2, 1
1, 2
1, 0
0, 1
1, 2
3, 3
1, 2
0, 0
1, 0
0, 2
0, 1
1, 0
0, 1
1, 0
0, 1
0, 0
0, 1
2, 0
1, 1
0, 0
1, 0
2, 0
1, 0
0, 1
1, 1
0, 0
0, 0
1, 2
0, 1
1, 0
0, 0
1, 0
1, 1
0, 2
1, 1
0, 1
2, 1
2, 2
0, 0
1, 0
1, 0
1, 2
0, 2
0, 1
0, 0
0, 1
0, 0
0, 1
1, 0
0, 0
1, 1
1, 0
1, 0
2, 2
0, 1
1, 0
0, 1
0, 3
1, 0
0, 0
0, 0
1, 1
0, 2
0, 0
1, 0
0, 0
1, 2
0, 1
0, 0
0, 0
0, 0
0, 0
0, 2
0, 0
0, 1
0, 0
0, 0
0, 0
1, 0
0, 0
0, 0
0, 0
0, 1
1, 0
1, 0
1, 1
0, 1
0, 0
0, 1
0, 0
0, 1
1, 0
0, 0
0, 0
0, 0
0, 0
0, 0
0, 0
0, 0
0, 1
0, 3
0, 0
0, 0
2, 0
0, 0
0, 0
0, 0
0, 1
0, 0
0, 0
1, 0
0, 0
0, 0
0, 0
1, 1
1, 0
1, 0
0, 0
0, 0
0, 0
0, 0
0, 1
0, 0
0, 1
0, 0
0, 4
0, 0
0, 2
1, 1
1, 0
0, 0
0, 0
0, 0
1, 0
1, 1
0, 0
0, 0
0, 0
1, 0
1, 1
0, 0
0, 0
1, 0
0, 0
0, 0
0, 0
0, 0
0, 0
0, 0
1, 0
0, 0
0, 0
1, 0
0, 0
0, 1
0, 1
0, 0
2, 0
0, 0
0, 1
0, 0
0, 0
0, 1
0, 0
0, 0
0, 0
1, 0
0, 1
0, 0
2, 2
0, 1
0, 0
0, 0
0, 0
1, 0
1, 1
0, 1
0, 1
0, 0
0, 0
1, 0
0, 0
1, 1
0, 0
0, 0
1, 2
0, 0
0, 1
0, 0
1, 0
0, 0
0, 0
0, 0
0, 0
0, 0
0, 1
0, 0
0, 0
0, 0
1, 1
0, 1
0, 0
1, 0
0, 1
0, 0
0, 0
0, 0
0, 0
0, 0
0, 0
0, 0
0, 0
0, 0
0, 0
0, 0
0, 1
0, 0
0, 0
1, 0
0, 0
0, 1
0, 0
0, 1
1, 0
0, 0
0, 2
0, 0
0, 1
0, 0
0, 0
0, 0
0, 0
0, 0
0, 0
0, 1
0, 0
1, 0
0, 0
0, 0
0, 0
0, 0
0, 1
0, 1
0, 1
0, 0
1, 0
0, 0
0, 0
0, 0
0, 0
0, 0
0, 0
0, 0
0, 1
0, 0
0, 0
0, 0
1, 1
0, 0
0, 0
0, 0
0, 0
0, 0
0, 0
0, 1
0, 0
1, 0
0, 0
0, 0
0, 0
0, 0
0, 0
0, 0
0, 0
0, 0
0, 0
0, 0
0, 0
0, 0
0, 0
0, 0
0, 0
0, 0
0, 0
0, 0
0, 1
0, 0
0, 0
0, 0
1, 0
0, 1
0, 0
0, 0
0, 0
0, 0
0, 0
1, 0
0, 0
0, 0
0, 0
0, 0
0, 0
0, 0
1, 0
0, 0
0, 0
0, 0
0, 0
0, 0
0, 0
0, 0
0, 0
0, 0
0, 0
1, 0
0, 0
0, 0
0, 0
0, 0
0, 0
0, 0
0, 0
0, 0
0, 0
0, 0
0, 0
0, 0
0, 0
0, 0
0, 0
0, 0
0, 0
0, 0
0, 0
0, 0
1, 0
0, 0
0, 0
0, 1
0, 0
0, 0
0, 0
0, 0
0, 0
0, 0
0, 0
1, 0
0, 0
0, 0
0, 0
0, 0
0, 0
0, 0
0, 0
0, 0
0, 0
0, 0
0, 0
0, 0
0, 0
0, 0
0, 0
0, 0
1, 0
0, 0
0, 0
0, 0
0, 0
0, 0
0, 0
0, 0
0, 0
0, 0
0, 0
0, 0
0, 0
0, 0
0, 0
0, 0
0, 0
0, 0
0, 0
0, 0
0, 0
0, 0
0, 0
0, 0
0, 0
0, 0
0, 0
0, 0
0, 0
0, 0
0, 0
0, 0
0, 0
0, 0
0, 0
0, 0
0, 0
0, 0
0, 0
0, 0
0, 0
0, 0
0, 0
0, 0
0, 0
0, 0
0, 0
0, 0
0, 0
0, 0
0, 0
0, 0
0, 0
0, 0
0, 0
0, 0
0, 0
0, 1
0, 0
0, 0
1, 0
0, 0
0, 0
0, 0
0, 0
0, 0
1, 0
0, 0
0, 0
0, 0
0, 0
0, 0
0, 0
0, 0
0, 0
0, 0
0, 0
0, 0
0, 0
0, 0
0, 0
0, 0
0, 0
0, 0
0, 0
0, 0
0, 0
0, 0
0, 0
0, 0
0, 0
0, 0
0, 0
0, 0
0, 0
0, 0
0, 0
0, 0
0, 0
0, 0
0, 0
0, 0
0, 0
0, 0
0, 0
0, 0
0, 0
0, 0
0, 0
0, 0
0, 0
0, 0
0, 0
0, 0
0, 0
0, 0
0, 0
0, 0
0, 0
0, 0
0, 0
0, 0
0, 0
0, 0
0, 0
0, 0
0, 0
0, 0
0, 0
0, 0
0, 0
0, 0
0, 0
0, 0
0, 0
0, 0
0, 0
0, 0
0, 0
0, 0
0, 0
0, 0
0, 0
0, 0
0, 0
0, 0
0, 0
0, 0
0, 0
0, 0
0, 0
0, 0
0, 0
0, 0
0, 0
0, 0
0, 0
1, 0
0, 0
0, 0
0, 0
0, 0
0, 0
0, 0
0, 0
0, 0
0, 0
0, 0
0, 0
0, 0
0, 0
0, 0
0, 0
0, 0
0, 0
0, 0
0, 0
0, 0
0, 0
0, 0
0, 0
0, 0
0, 0
0, 0
0, 0
0, 0
0, 0
0, 0
0, 0
0, 0
0, 0
0, 0
0, 0
0, 0
0, 0
0, 0
0, 0
0, 0
0, 0
0, 0
0, 0
0, 0
0, 0
0, 0
0, 0
0, 0
0, 0
0, 0
0, 0
0, 0
0, 0
0, 0
0, 0
0, 0
0, 0
0, 0
0, 0
0, 0
0, 0
0, 0
0, 0
0, 0
0, 0
0, 0
0, 0
0, 0
0, 0
0, 0
0, 0
0, 0
0, 0
0, 0
0, 0
0, 0
0, 0
0, 0
0, 0
0, 0
0, 0
0, 0
0, 0
0, 0
0, 0
0, 0
0, 0
0, 0
0, 0
0, 0
0, 0
0, 0
0, 0
0, 0
0, 0
0, 0
0, 0
0, 0
0, 0
0, 0
0, 0
0, 0
0, 0
0, 0
0, 0
0, 0
0, 0
0, 0
0, 0
0, 0
0, 0
0, 0
0, 0
0, 0
0, 0
0, 0
0, 0
0, 0
0, 0
0, 0
0, 0
0, 0
0, 0
0, 0
0, 0
0, 0
0, 0
0, 0
0, 0
0, 0
0, 0
0, 0
0, 0
0, 0
0, 0
0, 0
0, 0
0, 0
0, 0
0, 0
0, 0
0, 0
0, 0
0, 0
0, 0
0, 0
0, 0
0, 0
0, 0
0, 0
0, 0
0, 0
0, 0
0, 0
0, 0
0, 0
0, 0
0, 0
0, 0
0, 0
0, 0
0, 0
0, 0
0, 0
0, 0
0, 0
0, 0
0, 0
0, 0
0, 0
0, 0
0, 0
0, 0
0, 0
0, 0
0, 0
0, 0
0, 0
0, 0
0, 0
0, 0
0, 0
0, 0
0, 0
0, 0
0, 0
0, 0
0, 0
0, 0
0, 0
0, 0
0, 0
0, 0
0, 0
0, 0
0, 0
0, 0
0, 0
0, 0
0, 0
0, 0
0, 0
0, 0
0, 0
0, 0
0, 0
0, 0
0, 0
0, 0
0, 0
0, 0
0, 0
0, 0
0, 0
0, 0
0, 0
0, 0
0, 0
0, 0
0, 0
0, 0
0, 0
0, 0
0, 0
0, 0
0, 0
0, 0
0, 0
0, 0
0, 0
0, 0
0, 0
0, 0
0, 0
0, 0
0, 0
0, 0
#ENDOFDATA     end of spectrum data