File: host_upload/02-11-2024/rqc/uplink1/ps__0567_0717304816_000rfs_shot_301.msa
#FORMAT      : EMSA/MAS spectral data file
#VERSION     : TC202v2.0 PIXL
#TITLE       : Novarupta (sol567) subset1
#DATE        : 02-11-2024      Date in the format DD-MMM-YYYY, for example 07-JUL-2010
#TIME        :             The time of day at which the spectrum was recorded, in 24-hour format
#OWNER       : PIXL Flight Model       (PIXL will use this to indicate which instrument took the data.)
#NPOINTS     : 4096     Number of data points in the spectrum (This can be zero for configuration only files)
#NCOLUMNS    : 2     Number of data columns in the spectrum (This can be zero for configuration only files)
#XUNITS      : eV
#YUNITS      : COUNTS
#DATATYPE    : YY
#XPERCHAN    : 7.862, 7.881   eV per channel (separate by commas if more than one detector)
#OFFSET      : 18.5, -22.4         eV of first channel  (separate by commas if more than one detector
#SIGNALTYPE  : XRF
#YP_TEMP     : 1.498
#LIVETIME    : 8.82453, 8.80915   seconds (separate by commas if more than one detector)
#REALTIME    : 10, 10.0   seconds (separate by commas if more than one detector)
#SPECTRUM    : start of spectrum data
0, 0
0, 0
0, 0
0, 0
0, 0
0, 0
0, 0
0, 0
0, 0
0, 0
0, 0
0, 0
0, 0
0, 0
0, 0
0, 0
0, 0
0, 0
0, 0
0, 0
0, 0
0, 0
0, 0
0, 0
0, 0
0, 0
0, 0
0, 0
0, 0
0, 0
0, 0
0, 0
0, 3
0, 1
0, 2
2, 0
0, 3
3, 3
1, 2
3, 1
5, 3
2, 5
2, 5
4, 4
1, 5
5, 2
3, 3
3, 2
5, 4
6, 5
3, 8
8, 5
11, 13
19, 21
13, 17
19, 17
9, 18
7, 10
6, 5
11, 9
16, 16
29, 20
38, 46
48, 55
52, 47
43, 67
33, 44
33, 38
29, 46
60, 66
106, 121
182, 228
286, 326
393, 457
480, 522
453, 562
395, 478
319, 361
245, 241
144, 150
86, 98
40, 47
37, 31
40, 25
24, 27
31, 27
35, 29
30, 37
33, 31
25, 27
18, 25
18, 17
20, 27
41, 51
87, 86
128, 150
203, 235
263, 326
335, 354
332, 299
248, 296
222, 216
147, 180
130, 115
78, 79
52, 68
54, 52
62, 89
77, 107
123, 136
157, 171
196, 229
230, 237
226, 208
206, 173
166, 185
115, 138
88, 89
96, 101
82, 84
76, 75
71, 72
47, 79
68, 52
46, 51
39, 48
33, 36
27, 21
22, 13
15, 14
10, 10
7, 15
11, 6
6, 5
3, 10
11, 3
9, 13
18, 10
16, 27
17, 19
27, 31
31, 32
34, 28
21, 23
19, 30
12, 24
13, 6
9, 16
12, 16
18, 24
31, 43
50, 73
88, 109
137, 173
195, 241
278, 348
337, 391
369, 449
369, 385
282, 338
270, 234
145, 179
108, 95
69, 71
38, 40
29, 24
23, 27
25, 33
40, 45
54, 50
51, 67
55, 83
45, 58
40, 78
30, 35
30, 32
19, 18
12, 15
10, 5
14, 4
5, 8
14, 9
16, 8
6, 14
8, 9
13, 14
14, 20
27, 27
34, 50
39, 38
51, 68
48, 65
48, 63
67, 53
48, 58
38, 39
33, 36
27, 19
27, 14
16, 17
12, 13
22, 15
15, 18
13, 15
13, 26
15, 14
18, 14
19, 19
20, 15
26, 23
22, 19
26, 26
25, 17
14, 19
18, 18
8, 10
10, 14
16, 11
12, 20
6, 15
12, 10
9, 17
12, 12
12, 21
10, 15
16, 13
15, 29
24, 32
28, 38
22, 29
31, 32
19, 35
37, 31
22, 18
15, 24
21, 23
18, 20
21, 7
12, 16
9, 16
7, 15
22, 11
7, 21
18, 12
12, 12
22, 16
20, 27
36, 41
27, 41
42, 45
43, 49
49, 61
41, 43
38, 52
38, 32
35, 39
29, 19
21, 22
17, 17
21, 23
17, 16
33, 36
35, 49
73, 70
115, 146
226, 295
347, 480
596, 671
842, 1009
1169, 1394
1390, 1674
1660, 1802
1627, 1821
1640, 1705
1462, 1468
1190, 1043
855, 783
616, 550
387, 316
193, 187
128, 94
54, 55
40, 38
35, 25
20, 22
9, 15
10, 14
14, 18
23, 14
19, 21
27, 21
36, 37
43, 46
49, 71
90, 106
99, 125
137, 197
174, 213
205, 249
256, 278
256, 259
256, 273
236, 227
173, 147
146, 113
80, 81
62, 53
39, 43
34, 18
12, 8
11, 11
3, 12
3, 6
8, 6
10, 11
14, 13
9, 14
12, 6
10, 14
9, 14
10, 12
14, 12
10, 16
9, 4
6, 10
5, 7
4, 7
5, 4
8, 12
3, 7
7, 4
5, 7
9, 6
9, 7
3, 8
6, 7
3, 2
5, 7
7, 0
4, 9
5, 9
6, 8
6, 14
5, 9
7, 11
4, 11
15, 7
8, 8
6, 9
13, 10
4, 9
8, 4
6, 6
6, 6
8, 10
3, 8
5, 5
7, 2
6, 5
2, 13
6, 9
2, 14
9, 10
13, 5
13, 8
10, 15
12, 18
8, 12
17, 14
9, 12
9, 9
10, 10
10, 11
8, 7
12, 5
6, 3
4, 10
10, 12
4, 6
1, 4
8, 7
4, 6
5, 4
6, 6
2, 8
8, 4
6, 6
3, 5
4, 5
6, 6
5, 5
7, 5
5, 6
3, 3
6, 5
6, 4
4, 4
5, 5
5, 7
8, 6
7, 7
6, 5
9, 6
11, 5
7, 5
8, 7
4, 9
4, 6
5, 12
6, 9
5, 8
8, 4
3, 5
3, 6
5, 6
7, 3
1, 8
7, 3
2, 2
3, 8
3, 5
4, 3
2, 7
2, 3
4, 7
5, 3
7, 5
7, 8
5, 6
5, 4
6, 3
6, 6
2, 5
7, 6
4, 2
1, 4
1, 3
5, 2
4, 2
4, 2
2, 5
1, 3
4, 4
4, 6
5, 3
6, 4
2, 5
2, 7
5, 3
4, 4
4, 0
1, 5
9, 3
6, 3
1, 3
4, 3
3, 8
2, 4
3, 3
2, 3
6, 2
3, 5
2, 5
4, 2
3, 3
1, 3
4, 3
6, 4
2, 3
3, 1
1, 3
5, 3
5, 3
3, 4
4, 5
3, 6
4, 3
4, 3
1, 7
5, 2
1, 0
6, 3
4, 3
1, 6
3, 1
1, 6
3, 1
1, 5
2, 3
2, 1
1, 3
2, 2
4, 3
3, 2
3, 5
2, 1
5, 5
2, 5
1, 5
4, 5
4, 3
1, 1
4, 2
3, 1
2, 2
2, 1
3, 1
0, 1
0, 1
2, 4
2, 1
4, 0
1, 2
4, 4
2, 1
2, 0
1, 4
2, 1
0, 3
0, 1
2, 2
1, 2
2, 0
3, 3
1, 5
1, 0
1, 1
3, 0
2, 1
2, 1
1, 1
2, 1
6, 5
2, 4
2, 2
0, 2
1, 3
0, 6
2, 4
2, 5
4, 3
1, 6
2, 4
2, 2
6, 2
4, 6
5, 3
1, 2
3, 4
3, 2
2, 0
5, 1
4, 3
0, 1
1, 0
2, 1
1, 1
2, 1
1, 1
2, 0
2, 2
2, 1
5, 1
1, 2
0, 2
1, 0
1, 0
1, 3
0, 3
1, 4
0, 2
3, 1
0, 2
1, 3
0, 2
1, 2
2, 0
0, 4
1, 1
1, 1
0, 1
1, 3
3, 1
0, 2
1, 2
2, 2
2, 0
2, 0
1, 1
0, 2
0, 2
1, 0
3, 2
0, 1
2, 1
2, 1
0, 0
1, 0
1, 2
0, 1
1, 2
2, 0
1, 0
1, 3
0, 0
0, 0
1, 1
0, 3
1, 1
1, 1
1, 2
1, 2
3, 2
1, 1
1, 1
0, 2
1, 1
3, 3
1, 1
1, 0
0, 2
0, 3
0, 0
0, 2
0, 1
0, 0
1, 0
1, 1
2, 0
1, 0
0, 1
1, 1
0, 0
0, 1
0, 2
1, 1
0, 4
2, 1
0, 1
1, 0
4, 3
0, 0
0, 0
1, 2
0, 1
2, 0
0, 0
0, 0
0, 0
1, 0
1, 0
1, 1
1, 1
0, 3
1, 0
1, 1
0, 0
0, 1
2, 2
0, 0
1, 0
0, 0
1, 1
0, 0
0, 1
2, 2
0, 0
0, 2
1, 0
0, 2
1, 1
1, 1
1, 0
0, 0
0, 1
1, 0
0, 1
0, 0
2, 1
0, 0
0, 0
0, 4
1, 0
1, 0
0, 0
0, 0
0, 0
0, 0
0, 0
0, 0
1, 0
2, 0
0, 2
1, 1
1, 1
0, 0
0, 0
0, 0
0, 1
0, 1
1, 0
0, 2
0, 0
1, 0
0, 0
1, 0
0, 0
0, 0
0, 0
0, 1
0, 0
0, 0
0, 1
1, 1
1, 0
0, 0
0, 0
2, 0
1, 1
0, 0
0, 1
1, 0
0, 0
0, 1
0, 1
0, 0
0, 0
0, 0
0, 0
0, 0
0, 0
0, 0
0, 0
0, 0
0, 0
0, 0
0, 0
3, 0
0, 0
0, 0
0, 0
0, 1
0, 1
0, 0
0, 1
1, 0
0, 1
0, 0
0, 0
0, 0
0, 0
0, 2
0, 0
0, 1
0, 0
1, 0
1, 2
0, 1
1, 0
0, 0
0, 0
1, 0
0, 0
0, 0
0, 0
0, 3
0, 2
0, 0
0, 0
0, 0
1, 0
0, 0
1, 0
1, 0
0, 0
0, 0
0, 0
0, 1
0, 1
0, 1
0, 0
0, 0
0, 0
0, 0
0, 0
0, 0
0, 0
0, 0
0, 0
1, 0
1, 0
0, 0
0, 0
1, 1
0, 0
0, 1
0, 1
0, 0
0, 1
0, 1
0, 0
0, 1
0, 0
0, 0
0, 0
0, 0
1, 1
0, 0
0, 0
0, 0
0, 1
0, 0
1, 0
0, 1
0, 0
0, 0
1, 0
0, 1
0, 0
1, 1
0, 0
1, 0
0, 0
0, 0
0, 1
0, 0
0, 0
0, 1
1, 0
0, 0
0, 0
0, 0
0, 0
0, 0
0, 0
0, 0
0, 0
0, 0
0, 0
0, 0
0, 0
0, 0
0, 0
0, 1
1, 0
0, 1
0, 0
1, 0
0, 0
0, 0
0, 1
0, 0
0, 0
0, 0
0, 1
0, 0
0, 1
0, 0
0, 0
0, 0
0, 0
0, 0
1, 0
0, 1
0, 0
0, 0
0, 1
0, 0
0, 0
0, 0
0, 0
0, 0
0, 0
0, 1
0, 0
0, 0
0, 0
0, 0
0, 0
0, 0
0, 0
0, 0
0, 0
0, 0
0, 0
0, 0
0, 0
0, 0
0, 0
1, 0
0, 0
0, 0
0, 0
0, 1
0, 0
0, 0
1, 0
0, 0
0, 0
0, 0
0, 0
0, 0
0, 0
0, 0
0, 0
0, 0
0, 1
0, 0
0, 0
0, 0
0, 0
0, 0
0, 0
0, 0
0, 0
0, 0
0, 0
0, 0
0, 0
0, 0
0, 0
0, 0
0, 0
0, 0
0, 0
0, 0
0, 0
0, 0
0, 0
0, 0
0, 0
0, 0
0, 0
0, 0
0, 0
0, 0
0, 0
0, 0
0, 0
0, 1
0, 0
0, 0
0, 0
0, 0
0, 0
0, 0
0, 0
0, 1
0, 0
0, 1
0, 0
0, 1
0, 0
0, 0
0, 0
0, 0
0, 0
0, 0
0, 0
0, 0
0, 0
0, 0
0, 0
0, 0
0, 0
0, 1
0, 0
0, 0
0, 0
0, 0
0, 0
0, 0
0, 0
0, 0
0, 0
0, 0
0, 0
0, 0
0, 0
0, 0
0, 0
0, 0
0, 0
0, 0
0, 0
0, 0
0, 0
0, 0
0, 0
0, 0
0, 0
0, 0
0, 1
0, 0
0, 0
0, 0
0, 0
0, 0
0, 0
0, 0
0, 0
0, 0
0, 0
0, 0
0, 0
0, 0
0, 0
0, 0
0, 0
0, 0
0, 0
0, 0
0, 0
0, 0
0, 0
0, 0
0, 0
0, 0
0, 0
0, 0
0, 0
0, 0
0, 0
0, 0
0, 0
0, 0
0, 0
0, 0
0, 0
0, 0
0, 0
0, 0
0, 0
0, 0
0, 0
0, 0
0, 0
0, 0
0, 0
0, 0
0, 0
0, 0
0, 0
0, 0
0, 0
0, 0
0, 0
0, 0
0, 0
0, 0
0, 0
0, 0
0, 0
0, 0
0, 0
0, 0
0, 0
0, 0
0, 0
0, 0
0, 0
0, 0
0, 0
0, 0
0, 0
0, 0
0, 0
0, 0
0, 0
0, 0
0, 0
0, 0
0, 0
0, 0
0, 0
0, 0
0, 0
0, 0
0, 0
0, 0
0, 0
0, 0
0, 0
0, 0
0, 0
0, 0
0, 0
0, 0
0, 0
0, 0
0, 0
0, 0
0, 0
0, 0
0, 0
0, 0
0, 0
0, 0
0, 0
0, 0
0, 0
0, 0
0, 0
0, 0
0, 0
0, 0
0, 0
0, 0
0, 0
0, 0
0, 0
0, 0
0, 0
0, 0
0, 0
0, 0
0, 0
0, 0
0, 0
0, 0
0, 0
0, 0
0, 0
0, 0
0, 0
0, 0
0, 0
0, 0
0, 0
0, 0
0, 0
0, 0
0, 0
0, 0
0, 0
0, 0
0, 0
0, 0
0, 0
0, 0
0, 0
0, 0
0, 0
0, 0
0, 0
0, 0
0, 0
0, 0
0, 0
0, 0
0, 0
0, 0
0, 0
0, 0
0, 0
0, 0
0, 0
0, 0
0, 0
0, 0
0, 0
0, 0
0, 0
0, 0
0, 0
0, 0
0, 0
0, 0
0, 0
0, 0
0, 0
0, 0
0, 0
0, 0
0, 0
0, 0
0, 0
0, 0
0, 0
0, 0
0, 0
0, 0
0, 0
0, 0
0, 0
0, 0
0, 0
0, 0
0, 0
0, 0
0, 0
0, 0
0, 0
0, 0
0, 0
0, 0
0, 0
0, 0
0, 0
0, 0
0, 0
0, 0
0, 0
0, 0
0, 0
0, 0
0, 0
0, 0
0, 0
0, 0
0, 0
0, 0
0, 0
0, 0
0, 0
0, 0
0, 0
0, 0
0, 0
0, 0
0, 0
0, 0
0, 0
0, 0
0, 0
0, 0
0, 0
0, 0
0, 0
0, 0
0, 0
0, 0
0, 0
0, 0
0, 0
0, 0
0, 0
0, 0
0, 0
0, 0
0, 0
0, 0
0, 0
0, 0
0, 0
0, 0
0, 0
0, 0
0, 0
0, 0
0, 0
0, 0
0, 0
0, 0
0, 0
0, 0
0, 0
0, 0
0, 0
0, 0
0, 0
0, 0
0, 0
0, 0
0, 0
0, 0
0, 0
0, 0
0, 0
0, 0
0, 0
0, 0
0, 0
0, 0
0, 0
0, 0
0, 0
0, 0
0, 0
0, 0
0, 0
0, 0
0, 0
0, 0
0, 0
0, 0
0, 0
0, 0
0, 0
0, 0
0, 0
0, 0
0, 0
0, 0
0, 0
0, 0
0, 0
0, 0
0, 0
0, 0
0, 0
0, 0
0, 0
0, 0
0, 0
0, 0
0, 0
0, 0
0, 0
0, 0
0, 0
0, 0
0, 0
0, 0
0, 0
0, 0
0, 0
0, 0
0, 0
0, 0
0, 0
0, 0
0, 0
0, 0
0, 0
0, 0
0, 0
0, 0
0, 0
0, 0
0, 0
0, 0
0, 0
0, 0
0, 0
0, 0
0, 0
0, 0
0, 0
0, 0
0, 0
0, 0
0, 0
0, 0
0, 0
0, 0
0, 0
0, 0
0, 0
0, 0
0, 0
0, 0
0, 0
0, 0
0, 0
0, 0
0, 0
0, 0
0, 0
0, 0
0, 0
0, 0
0, 0
0, 0
0, 0
0, 0
#ENDOFDATA     end of spectrum data