File: host_upload/02-11-2024/rqc/uplink1/ps__0567_0717304816_000rfs_shot_186.msa
#FORMAT      : EMSA/MAS spectral data file
#VERSION     : TC202v2.0 PIXL
#TITLE       : Novarupta (sol567) subset1
#DATE        : 02-11-2024      Date in the format DD-MMM-YYYY, for example 07-JUL-2010
#TIME        :             The time of day at which the spectrum was recorded, in 24-hour format
#OWNER       : PIXL Flight Model       (PIXL will use this to indicate which instrument took the data.)
#NPOINTS     : 4096     Number of data points in the spectrum (This can be zero for configuration only files)
#NCOLUMNS    : 2     Number of data columns in the spectrum (This can be zero for configuration only files)
#XUNITS      : eV
#YUNITS      : COUNTS
#DATATYPE    : YY
#XPERCHAN    : 7.862, 7.881   eV per channel (separate by commas if more than one detector)
#OFFSET      : 18.5, -22.4         eV of first channel  (separate by commas if more than one detector
#SIGNALTYPE  : XRF
#YP_TEMP     : 0.6
#LIVETIME    : 8.85298, 8.81936   seconds (separate by commas if more than one detector)
#REALTIME    : 10, 10.0   seconds (separate by commas if more than one detector)
#SPECTRUM    : start of spectrum data
0, 0
0, 0
0, 0
0, 0
0, 0
0, 0
0, 0
0, 0
0, 0
0, 0
0, 0
0, 0
0, 0
0, 0
0, 0
0, 0
0, 0
0, 0
0, 0
0, 0
0, 0
0, 0
0, 0
0, 0
0, 0
0, 0
0, 0
0, 0
0, 0
0, 0
0, 0
0, 0
0, 0
0, 3
1, 0
2, 3
1, 2
3, 2
3, 2
5, 3
1, 4
6, 4
2, 0
4, 5
3, 6
6, 6
1, 3
2, 5
5, 4
4, 4
10, 7
4, 10
13, 8
9, 14
12, 16
20, 13
16, 8
11, 8
8, 12
8, 10
16, 29
32, 34
39, 42
42, 43
47, 55
48, 49
38, 47
31, 25
41, 30
58, 75
92, 127
164, 188
295, 352
392, 474
469, 503
485, 523
437, 407
306, 347
218, 245
147, 171
88, 76
42, 45
30, 48
28, 33
25, 35
38, 27
27, 35
31, 34
17, 28
16, 21
13, 16
16, 20
42, 22
51, 39
76, 95
135, 165
203, 219
306, 294
316, 359
300, 326
285, 294
223, 222
167, 185
117, 111
70, 83
61, 50
52, 63
60, 89
86, 113
117, 111
165, 185
195, 225
183, 233
180, 226
180, 207
142, 156
125, 151
84, 100
99, 110
88, 74
85, 94
71, 61
59, 50
49, 62
47, 41
34, 30
28, 23
24, 23
21, 21
9, 16
6, 20
6, 11
6, 5
7, 13
8, 8
11, 7
11, 6
12, 11
26, 23
28, 34
32, 33
27, 32
26, 36
26, 28
22, 19
20, 22
13, 8
13, 13
6, 9
15, 19
32, 40
38, 50
95, 119
126, 174
205, 243
281, 347
345, 386
349, 441
352, 381
314, 334
215, 254
153, 191
111, 108
69, 66
45, 36
25, 41
26, 29
31, 37
41, 50
66, 59
57, 73
63, 66
58, 62
47, 60
30, 45
39, 22
31, 20
17, 13
13, 11
6, 7
12, 12
11, 10
10, 11
2, 9
11, 8
9, 16
26, 15
28, 28
40, 40
42, 54
55, 59
61, 67
53, 74
51, 49
57, 56
46, 41
32, 28
26, 23
18, 23
15, 18
13, 18
7, 12
15, 10
11, 12
9, 12
18, 17
16, 13
19, 16
14, 21
25, 19
15, 21
14, 23
11, 21
13, 16
11, 12
11, 16
8, 10
11, 9
14, 12
4, 10
7, 12
3, 9
15, 12
7, 10
14, 8
15, 27
19, 23
26, 34
27, 31
34, 30
20, 34
36, 33
20, 29
28, 28
19, 16
12, 15
8, 16
19, 11
13, 15
11, 11
13, 12
11, 11
10, 10
17, 11
9, 16
16, 18
27, 36
27, 34
32, 41
37, 48
38, 67
47, 59
44, 50
46, 43
28, 30
26, 27
20, 18
21, 18
21, 28
19, 24
26, 31
30, 31
47, 46
78, 95
119, 168
212, 282
355, 488
546, 761
800, 1097
1137, 1348
1427, 1708
1609, 1734
1562, 1849
1593, 1672
1360, 1494
1072, 1106
820, 755
510, 496
325, 299
229, 153
110, 86
62, 52
27, 25
20, 23
21, 25
18, 15
11, 22
17, 22
11, 23
18, 26
17, 28
33, 37
39, 45
59, 48
104, 95
114, 142
148, 197
200, 258
219, 263
256, 245
265, 250
250, 256
213, 211
172, 151
134, 114
79, 81
63, 53
34, 35
23, 16
13, 9
9, 9
14, 11
4, 11
12, 8
13, 7
8, 9
10, 12
9, 10
10, 10
12, 11
8, 8
8, 9
8, 7
8, 8
9, 6
4, 2
5, 6
6, 3
8, 4
7, 6
6, 5
9, 2
3, 5
5, 4
4, 7
2, 6
3, 9
5, 5
5, 5
4, 4
8, 7
6, 11
10, 10
8, 11
6, 7
7, 8
5, 8
10, 9
7, 11
8, 4
5, 6
6, 6
5, 5
6, 5
5, 6
10, 7
4, 4
7, 7
3, 2
6, 5
7, 6
4, 5
9, 12
10, 9
8, 14
8, 14
17, 11
9, 7
8, 11
8, 9
7, 14
11, 2
11, 6
7, 10
8, 7
6, 6
6, 6
7, 8
7, 7
5, 7
4, 5
5, 10
5, 10
5, 7
5, 5
8, 8
5, 4
9, 8
6, 8
5, 10
6, 4
5, 6
5, 4
7, 2
7, 5
3, 9
6, 1
4, 7
4, 4
6, 3
5, 7
3, 7
10, 11
6, 9
6, 3
4, 8
7, 9
3, 6
1, 4
5, 6
10, 6
6, 3
1, 7
6, 7
3, 7
5, 5
5, 4
4, 5
3, 2
5, 4
10, 12
5, 7
5, 8
3, 6
5, 5
8, 6
5, 6
7, 2
5, 8
4, 3
5, 3
3, 6
2, 7
2, 6
3, 4
5, 5
3, 4
2, 3
5, 2
1, 1
3, 4
4, 4
2, 3
2, 1
5, 2
4, 5
5, 1
2, 2
3, 1
4, 2
4, 4
5, 5
0, 4
1, 4
1, 3
2, 4
1, 3
3, 4
1, 5
5, 5
6, 0
0, 1
5, 1
2, 4
1, 2
2, 2
0, 3
0, 3
4, 4
4, 0
3, 3
6, 3
3, 2
1, 4
4, 1
2, 2
3, 1
5, 3
1, 6
4, 8
3, 2
2, 5
0, 2
1, 2
1, 6
3, 3
1, 2
2, 0
2, 5
1, 4
4, 1
2, 3
1, 5
2, 3
0, 2
4, 1
3, 4
1, 2
2, 0
2, 1
1, 3
3, 1
3, 4
3, 2
2, 7
0, 1
1, 0
3, 5
0, 1
3, 2
0, 1
2, 2
5, 3
1, 5
4, 2
0, 3
2, 0
3, 0
0, 2
0, 2
2, 1
4, 2
5, 1
2, 7
1, 3
1, 1
1, 2
3, 4
1, 4
1, 1
2, 4
2, 1
1, 0
3, 3
1, 2
0, 1
2, 2
5, 4
5, 2
6, 2
3, 3
3, 3
5, 1
4, 1
4, 6
3, 5
2, 1
2, 0
1, 6
0, 1
2, 0
3, 3
1, 1
2, 2
1, 2
3, 2
2, 0
0, 2
4, 1
5, 1
2, 1
2, 4
0, 3
2, 1
2, 1
2, 1
3, 1
0, 1
2, 3
0, 2
2, 2
0, 3
2, 2
1, 1
2, 1
1, 1
3, 1
1, 0
0, 2
2, 1
3, 0
0, 1
2, 1
2, 0
1, 2
0, 1
0, 0
1, 1
0, 5
0, 0
1, 1
2, 0
1, 0
1, 2
0, 4
0, 1
1, 1
2, 1
2, 0
2, 1
0, 1
1, 0
2, 0
3, 2
3, 1
0, 0
0, 2
3, 1
1, 0
1, 0
3, 0
0, 0
1, 1
1, 1
1, 0
0, 1
1, 0
0, 0
0, 2
2, 0
2, 0
0, 0
0, 1
0, 2
2, 0
2, 0
0, 0
1, 1
1, 0
1, 1
0, 0
2, 0
0, 2
1, 0
1, 0
0, 0
1, 0
1, 0
1, 1
0, 1
0, 1
0, 2
0, 0
0, 1
1, 1
1, 1
1, 0
1, 0
0, 0
1, 2
0, 0
1, 1
0, 1
1, 1
2, 1
1, 1
0, 1
1, 0
1, 1
1, 1
0, 2
0, 0
0, 1
0, 0
1, 0
0, 2
0, 1
1, 1
0, 0
1, 1
0, 0
1, 0
0, 0
1, 1
0, 0
0, 0
0, 1
0, 0
1, 0
0, 1
0, 2
1, 0
0, 3
0, 0
1, 0
0, 0
0, 2
1, 0
2, 0
1, 0
0, 0
0, 0
0, 0
0, 2
1, 0
0, 1
0, 1
0, 0
0, 0
0, 0
0, 0
1, 3
0, 0
0, 0
0, 1
1, 0
0, 0
0, 0
0, 1
0, 0
0, 1
0, 0
0, 0
0, 1
1, 0
0, 0
0, 1
0, 0
0, 0
0, 1
0, 0
0, 0
0, 0
0, 0
1, 1
0, 0
0, 0
0, 0
0, 0
0, 0
0, 0
0, 0
0, 0
1, 0
0, 1
0, 1
0, 0
0, 0
0, 0
1, 1
0, 0
0, 0
0, 1
0, 0
0, 0
0, 0
0, 0
0, 0
0, 0
0, 0
0, 0
0, 0
0, 0
0, 0
1, 0
1, 0
1, 0
0, 0
0, 0
0, 0
0, 0
1, 0
0, 0
0, 0
1, 0
0, 0
0, 1
0, 0
1, 0
0, 0
0, 0
0, 0
0, 0
0, 0
0, 0
0, 0
1, 0
0, 0
1, 0
0, 0
1, 0
0, 0
0, 0
0, 1
0, 0
1, 0
0, 0
0, 0
0, 0
1, 0
1, 1
0, 0
3, 0
0, 0
0, 0
0, 0
0, 1
0, 0
0, 0
0, 0
0, 0
0, 1
0, 0
0, 0
0, 1
0, 0
0, 0
1, 0
0, 0
0, 1
0, 0
0, 0
0, 1
0, 0
0, 0
0, 0
0, 0
1, 0
0, 0
0, 0
0, 0
0, 0
0, 0
0, 0
1, 1
0, 0
0, 0
0, 0
0, 0
0, 0
0, 0
0, 0
0, 1
0, 0
0, 0
1, 0
0, 1
0, 0
0, 0
0, 0
1, 0
0, 0
0, 0
0, 0
0, 0
0, 0
0, 0
0, 0
0, 0
0, 1
1, 1
0, 0
1, 0
0, 0
0, 0
0, 0
0, 0
0, 0
0, 0
0, 0
1, 0
0, 0
0, 0
0, 0
0, 0
0, 0
0, 0
0, 0
0, 0
0, 0
0, 0
0, 0
0, 0
1, 0
0, 1
0, 0
1, 0
0, 0
0, 0
0, 0
0, 0
0, 0
0, 0
0, 0
0, 0
0, 0
0, 0
1, 0
0, 0
0, 0
0, 1
0, 0
0, 0
0, 0
0, 0
0, 0
0, 0
1, 0
0, 0
0, 0
0, 0
0, 0
0, 0
0, 0
0, 0
0, 1
0, 0
0, 0
0, 0
0, 0
0, 0
0, 0
0, 0
0, 0
0, 0
0, 0
0, 0
0, 0
0, 0
0, 0
0, 0
1, 0
0, 0
0, 0
0, 0
0, 0
1, 0
0, 0
0, 0
0, 0
0, 0
0, 0
0, 0
0, 0
0, 0
0, 0
0, 0
0, 0
0, 0
0, 0
0, 0
0, 0
0, 0
0, 0
0, 0
0, 1
0, 0
0, 0
0, 1
0, 0
0, 0
0, 0
0, 0
0, 0
0, 0
0, 0
0, 0
0, 0
0, 0
0, 0
0, 0
0, 0
0, 0
0, 0
0, 0
0, 0
0, 0
0, 0
0, 0
0, 0
0, 0
0, 0
0, 0
0, 0
0, 0
0, 0
0, 0
0, 0
0, 0
0, 0
0, 0
0, 0
0, 0
0, 0
0, 0
0, 0
0, 0
0, 0
0, 0
0, 0
0, 0
0, 0
0, 0
0, 1
0, 0
0, 0
0, 0
0, 0
0, 0
0, 0
0, 0
0, 0
0, 0
0, 0
0, 0
0, 0
0, 0
0, 0
0, 0
0, 0
0, 0
0, 0
0, 0
0, 0
0, 0
0, 0
0, 0
0, 0
0, 0
0, 0
0, 0
0, 0
0, 0
0, 0
0, 0
0, 0
0, 0
0, 0
0, 0
0, 0
0, 0
0, 0
0, 0
0, 0
0, 0
0, 0
0, 0
0, 0
0, 0
0, 0
0, 0
0, 0
0, 0
0, 0
0, 0
0, 0
0, 0
0, 0
0, 0
0, 0
0, 0
0, 0
0, 0
0, 0
0, 0
0, 0
0, 0
0, 0
0, 0
0, 0
0, 0
0, 0
0, 0
0, 0
0, 0
0, 0
0, 0
0, 0
0, 0
0, 0
0, 0
0, 0
0, 0
0, 0
0, 0
0, 0
0, 0
0, 0
0, 0
0, 0
0, 0
0, 0
0, 0
0, 0
0, 0
0, 0
0, 0
0, 0
0, 0
0, 0
0, 0
0, 0
0, 0
0, 0
0, 0
0, 0
0, 0
0, 0
0, 0
0, 0
0, 0
0, 0
0, 0
0, 0
0, 0
0, 0
0, 0
0, 0
0, 0
0, 0
0, 0
0, 0
0, 0
0, 0
0, 0
0, 0
0, 0
0, 0
0, 0
0, 0
0, 0
0, 0
0, 0
0, 0
0, 0
0, 0
0, 0
0, 0
0, 0
0, 0
0, 0
0, 0
0, 0
0, 0
0, 0
0, 0
0, 0
0, 0
0, 0
0, 0
0, 0
0, 0
0, 0
0, 0
0, 0
0, 0
0, 0
0, 0
0, 0
0, 0
0, 0
0, 0
0, 0
0, 0
0, 0
0, 0
0, 0
0, 0
0, 0
0, 0
0, 0
0, 0
0, 0
0, 0
0, 0
0, 0
0, 0
0, 0
0, 0
0, 0
0, 0
0, 0
0, 0
0, 0
0, 0
0, 0
0, 0
0, 0
0, 0
0, 0
0, 0
0, 0
0, 0
0, 0
0, 0
0, 0
0, 0
0, 0
0, 0
0, 0
0, 0
0, 0
0, 0
0, 0
0, 0
0, 0
0, 0
0, 0
0, 0
0, 0
0, 0
0, 0
0, 0
0, 0
0, 0
0, 0
0, 0
0, 0
0, 0
0, 0
0, 0
0, 0
0, 0
0, 0
0, 0
0, 0
0, 0
0, 0
0, 0
0, 0
0, 0
0, 0
0, 0
0, 0
0, 0
0, 0
0, 0
0, 0
0, 0
0, 0
0, 0
0, 0
0, 0
0, 0
0, 0
0, 0
0, 0
0, 0
0, 0
0, 0
0, 0
0, 0
0, 0
0, 0
0, 0
0, 0
0, 0
0, 0
0, 0
0, 0
0, 0
0, 0
0, 0
0, 0
0, 0
0, 0
0, 0
0, 0
0, 0
0, 0
0, 0
0, 0
0, 0
0, 0
0, 0
0, 0
0, 0
0, 0
0, 0
0, 0
0, 0
0, 0
0, 0
0, 0
0, 0
0, 0
0, 0
0, 0
0, 0
0, 0
0, 0
0, 0
0, 0
0, 0
0, 0
0, 0
0, 0
0, 0
0, 0
0, 0
0, 0
0, 0
0, 0
0, 0
0, 0
0, 0
0, 0
0, 0
0, 0
0, 0
0, 0
0, 0
0, 0
0, 0
0, 0
0, 0
0, 0
0, 0
0, 0
0, 0
0, 0
0, 0
0, 0
0, 0
0, 0
0, 0
0, 0
0, 0
0, 0
0, 0
0, 0
0, 0
0, 0
0, 0
0, 0
0, 0
0, 0
0, 0
0, 0
0, 0
0, 0
0, 0
0, 0
0, 0
0, 0
0, 0
0, 0
0, 0
0, 0
0, 0
0, 0
0, 0
0, 0
0, 0
0, 0
0, 0
0, 0
0, 0
0, 0
0, 0
0, 0
0, 0
0, 0
0, 0
0, 0
0, 0
0, 0
0, 0
0, 0
0, 0
0, 0
0, 0
0, 0
0, 0
0, 0
0, 0
#ENDOFDATA     end of spectrum data