File: host_upload/02-11-2024/rqc/uplink1/ps__0567_0717304816_000rfs_shot_28.msa
#FORMAT      : EMSA/MAS spectral data file
#VERSION     : TC202v2.0 PIXL
#TITLE       : Novarupta (sol567) subset1
#DATE        : 02-11-2024      Date in the format DD-MMM-YYYY, for example 07-JUL-2010
#TIME        :             The time of day at which the spectrum was recorded, in 24-hour format
#OWNER       : PIXL Flight Model       (PIXL will use this to indicate which instrument took the data.)
#NPOINTS     : 4096     Number of data points in the spectrum (This can be zero for configuration only files)
#NCOLUMNS    : 2     Number of data columns in the spectrum (This can be zero for configuration only files)
#XUNITS      : eV
#YUNITS      : COUNTS
#DATATYPE    : YY
#XPERCHAN    : 7.862, 7.881   eV per channel (separate by commas if more than one detector)
#OFFSET      : 18.5, -22.4         eV of first channel  (separate by commas if more than one detector
#SIGNALTYPE  : XRF
#YP_TEMP     : -4.147
#LIVETIME    : 8.84026, 8.831   seconds (separate by commas if more than one detector)
#REALTIME    : 10, 10.0   seconds (separate by commas if more than one detector)
#SPECTRUM    : start of spectrum data
0, 0
0, 0
0, 0
0, 0
0, 0
0, 0
0, 0
0, 0
0, 0
0, 0
0, 0
0, 0
0, 0
0, 0
0, 0
0, 0
0, 0
0, 0
0, 0
0, 0
0, 0
0, 0
0, 0
0, 0
0, 0
0, 0
0, 0
0, 0
0, 0
0, 0
0, 0
0, 0
0, 1
0, 0
1, 3
2, 2
0, 4
5, 2
5, 5
1, 1
1, 4
3, 4
2, 4
5, 5
1, 5
2, 4
5, 1
3, 6
1, 5
1, 4
8, 14
13, 8
13, 20
13, 24
10, 25
16, 21
13, 17
12, 10
11, 12
10, 12
16, 19
26, 21
37, 45
33, 45
45, 54
47, 56
43, 49
30, 38
45, 55
65, 76
135, 135
240, 244
348, 358
439, 462
483, 504
491, 492
438, 464
303, 321
209, 202
156, 141
82, 75
45, 50
30, 33
34, 32
30, 36
24, 40
45, 31
35, 22
27, 22
22, 27
13, 14
28, 27
32, 41
49, 57
100, 119
164, 154
230, 218
264, 274
289, 325
258, 328
261, 258
191, 197
120, 124
87, 82
76, 89
58, 62
62, 81
77, 84
109, 107
151, 156
174, 187
199, 221
234, 220
224, 228
180, 188
148, 139
122, 137
118, 105
90, 99
92, 94
75, 70
77, 75
62, 66
55, 42
40, 39
38, 30
26, 18
21, 22
13, 15
16, 11
12, 9
8, 7
6, 12
7, 7
10, 7
13, 12
9, 16
15, 11
23, 21
22, 30
24, 34
20, 27
30, 28
12, 33
21, 9
12, 13
5, 9
12, 6
16, 17
22, 19
48, 47
79, 64
129, 126
206, 211
241, 312
282, 338
326, 392
353, 358
301, 340
264, 257
197, 194
142, 128
96, 84
53, 43
41, 41
37, 39
28, 32
51, 51
56, 42
59, 75
47, 66
56, 50
46, 42
43, 40
27, 27
29, 30
22, 20
19, 8
6, 11
7, 5
9, 8
6, 12
4, 11
8, 11
16, 9
14, 14
13, 20
33, 33
34, 45
53, 57
49, 59
57, 65
56, 81
50, 59
44, 45
42, 40
23, 34
23, 27
21, 23
15, 17
12, 17
15, 11
14, 16
17, 8
18, 16
20, 18
12, 13
11, 16
22, 25
23, 21
14, 20
19, 17
15, 20
13, 15
14, 18
7, 10
16, 18
6, 11
10, 15
11, 10
12, 11
15, 12
6, 11
15, 11
7, 22
17, 20
21, 29
24, 23
29, 37
26, 29
23, 26
41, 28
21, 25
18, 19
16, 22
18, 17
12, 6
10, 13
16, 9
18, 11
16, 12
14, 8
13, 26
14, 17
16, 29
32, 28
26, 37
38, 32
45, 44
50, 44
41, 38
48, 51
43, 48
33, 52
39, 40
30, 30
24, 24
21, 26
25, 27
20, 26
26, 28
48, 53
70, 82
139, 149
259, 263
388, 441
577, 671
869, 991
1153, 1331
1404, 1606
1635, 1706
1651, 1735
1600, 1697
1448, 1405
1182, 1173
933, 867
660, 545
392, 372
247, 215
159, 112
84, 61
43, 36
39, 21
18, 16
18, 21
14, 15
14, 14
18, 17
23, 22
26, 24
30, 27
39, 55
70, 81
90, 108
134, 135
159, 162
202, 230
231, 253
268, 276
248, 268
261, 233
221, 192
178, 182
128, 109
89, 87
76, 52
48, 29
28, 24
13, 16
8, 13
10, 8
5, 5
11, 9
7, 9
11, 18
7, 11
13, 14
13, 15
14, 11
7, 12
5, 11
11, 9
5, 7
6, 8
8, 11
12, 7
7, 14
4, 6
9, 7
7, 7
5, 8
8, 9
8, 5
8, 7
8, 6
3, 3
4, 6
7, 10
7, 7
5, 0
3, 7
9, 2
7, 8
4, 8
7, 7
4, 8
7, 8
5, 11
11, 8
7, 10
4, 5
5, 7
5, 2
4, 7
7, 10
4, 8
1, 6
6, 5
6, 6
5, 11
5, 8
11, 10
11, 11
6, 7
13, 17
8, 13
9, 11
9, 9
14, 5
9, 8
10, 7
4, 16
10, 5
9, 3
3, 5
3, 6
10, 2
6, 2
4, 9
7, 4
5, 1
3, 2
5, 12
8, 8
5, 4
5, 3
4, 3
2, 3
7, 6
6, 5
5, 11
7, 4
1, 4
3, 4
2, 8
7, 4
7, 5
6, 6
4, 7
6, 7
8, 3
6, 6
4, 8
7, 5
5, 8
6, 8
2, 7
7, 5
9, 4
4, 4
4, 5
1, 7
3, 3
4, 3
5, 3
3, 7
6, 3
6, 8
5, 5
5, 5
8, 5
4, 6
3, 2
5, 6
4, 9
6, 5
7, 3
5, 7
3, 2
4, 6
5, 3
4, 6
6, 4
5, 6
0, 7
6, 2
4, 5
3, 5
2, 2
2, 4
5, 9
2, 3
5, 3
2, 4
0, 3
1, 3
1, 8
2, 1
3, 2
5, 2
3, 3
0, 2
1, 2
2, 2
2, 3
1, 3
3, 4
5, 3
8, 4
2, 2
6, 2
3, 2
3, 6
2, 0
7, 2
5, 4
3, 2
0, 6
7, 1
6, 3
3, 4
3, 1
4, 5
2, 5
2, 6
1, 1
1, 0
3, 2
2, 3
4, 3
3, 0
1, 2
2, 1
0, 3
1, 0
5, 2
6, 4
3, 1
2, 6
2, 2
5, 2
4, 1
2, 3
1, 6
1, 1
0, 1
2, 1
4, 2
2, 1
2, 3
3, 2
2, 0
0, 3
2, 0
5, 1
0, 2
4, 1
0, 3
2, 2
3, 2
3, 1
0, 3
2, 3
0, 3
0, 1
3, 3
1, 6
2, 2
1, 3
1, 0
5, 3
1, 1
0, 2
2, 3
2, 3
2, 1
2, 2
0, 1
2, 1
3, 3
2, 1
1, 2
3, 1
2, 5
1, 2
1, 3
1, 0
3, 3
5, 6
1, 1
1, 3
4, 2
2, 4
6, 2
2, 5
3, 2
2, 1
1, 4
1, 1
0, 2
2, 0
0, 1
2, 1
1, 1
1, 3
0, 1
2, 1
1, 0
2, 1
0, 3
2, 3
2, 6
1, 5
1, 1
2, 2
1, 0
3, 1
1, 2
3, 3
2, 1
3, 1
3, 0
0, 3
0, 1
2, 0
1, 0
3, 1
1, 2
0, 3
1, 0
0, 3
3, 0
2, 0
1, 3
0, 0
1, 0
0, 2
2, 0
1, 2
0, 0
0, 0
1, 2
1, 0
1, 1
0, 0
0, 2
2, 1
1, 0
1, 1
0, 0
1, 1
1, 3
0, 1
2, 1
3, 1
0, 0
1, 3
1, 4
1, 1
1, 2
1, 0
1, 0
0, 1
1, 0
0, 4
1, 0
0, 1
2, 0
0, 3
2, 0
1, 1
0, 2
2, 2
2, 0
1, 2
2, 1
1, 0
1, 1
2, 0
0, 0
2, 1
0, 2
1, 1
1, 2
1, 1
1, 2
1, 1
2, 2
0, 1
0, 1
0, 1
1, 0
1, 0
0, 1
1, 1
0, 1
0, 1
0, 2
2, 0
1, 0
2, 2
1, 2
0, 0
1, 2
1, 0
0, 1
0, 0
0, 1
1, 0
0, 0
0, 1
0, 0
0, 0
0, 0
3, 0
0, 2
1, 1
0, 1
0, 0
0, 0
1, 1
0, 0
1, 0
0, 2
0, 0
0, 0
0, 2
1, 1
0, 0
0, 1
1, 0
0, 0
0, 1
0, 0
1, 0
1, 1
0, 1
0, 1
0, 1
2, 0
0, 0
0, 0
0, 1
0, 0
1, 0
0, 1
0, 1
0, 0
1, 0
0, 0
2, 0
1, 1
0, 0
2, 2
0, 0
0, 0
0, 0
0, 0
0, 1
0, 1
1, 1
0, 1
0, 0
0, 1
0, 0
1, 0
1, 0
0, 1
1, 1
0, 0
0, 0
0, 1
0, 0
1, 0
0, 0
0, 0
2, 0
1, 1
0, 1
0, 0
0, 0
0, 0
1, 0
3, 1
0, 0
0, 0
0, 1
0, 1
0, 0
1, 0
1, 0
0, 0
0, 0
0, 0
1, 0
0, 0
0, 0
0, 0
0, 0
0, 0
0, 0
2, 0
0, 0
0, 1
0, 0
0, 0
1, 0
0, 1
0, 1
1, 0
0, 0
0, 0
0, 0
1, 1
0, 0
0, 0
0, 0
1, 0
0, 1
0, 1
0, 0
0, 0
0, 0
0, 1
0, 0
1, 0
1, 0
0, 1
0, 0
1, 0
0, 1
1, 0
0, 0
0, 0
0, 1
1, 0
0, 1
0, 0
0, 1
0, 1
0, 1
0, 0
0, 1
0, 0
0, 0
1, 0
0, 0
0, 0
0, 1
0, 0
0, 0
1, 0
0, 0
0, 0
0, 0
0, 1
0, 0
0, 0
1, 0
0, 0
0, 0
0, 0
0, 0
0, 0
0, 0
0, 0
0, 1
0, 0
0, 0
0, 0
0, 0
0, 0
0, 0
0, 0
0, 0
0, 0
0, 0
0, 0
0, 0
0, 0
0, 0
1, 0
0, 0
0, 0
0, 0
0, 0
0, 0
0, 0
0, 0
0, 0
0, 0
0, 0
0, 0
0, 0
0, 0
0, 0
0, 0
0, 0
0, 0
0, 1
1, 0
0, 1
0, 1
0, 0
0, 0
1, 0
0, 0
0, 2
1, 0
0, 0
0, 0
0, 0
0, 1
0, 0
0, 0
0, 0
0, 0
0, 0
0, 0
0, 0
0, 0
0, 0
0, 0
0, 0
0, 0
0, 0
0, 0
0, 0
0, 0
0, 1
0, 0
0, 0
0, 0
0, 0
1, 0
0, 0
0, 0
0, 0
0, 0
0, 0
0, 0
0, 0
0, 0
0, 0
0, 0
0, 0
0, 0
0, 0
0, 0
0, 0
0, 0
0, 0
0, 0
0, 0
1, 0
0, 0
0, 0
0, 0
0, 0
0, 0
1, 0
0, 0
0, 0
0, 0
0, 0
0, 0
0, 0
0, 0
0, 0
0, 0
0, 0
0, 0
0, 0
0, 0
0, 0
0, 0
0, 0
0, 0
0, 0
0, 0
0, 0
0, 0
0, 0
0, 0
0, 0
0, 0
0, 0
0, 0
0, 0
0, 1
0, 0
0, 0
1, 0
0, 0
0, 0
0, 0
0, 0
0, 0
0, 0
0, 1
0, 0
0, 0
0, 0
0, 0
0, 0
0, 0
0, 0
0, 0
0, 0
0, 0
0, 0
0, 0
0, 0
0, 0
0, 0
0, 0
0, 0
0, 0
0, 0
0, 0
0, 0
0, 0
0, 1
0, 0
0, 0
0, 0
0, 0
0, 0
0, 0
0, 0
0, 0
0, 0
0, 0
0, 0
0, 0
0, 0
0, 0
0, 0
0, 0
0, 0
0, 0
1, 0
0, 0
0, 0
0, 0
0, 0
0, 0
0, 0
0, 0
0, 0
0, 0
0, 0
0, 0
0, 0
0, 0
1, 0
0, 0
0, 0
0, 0
0, 0
0, 0
0, 0
0, 0
0, 0
0, 0
0, 0
0, 0
0, 0
0, 0
0, 0
0, 0
0, 0
0, 0
0, 0
0, 0
0, 0
0, 0
0, 0
1, 0
0, 0
0, 0
0, 0
0, 0
0, 0
0, 0
0, 0
0, 0
0, 0
0, 0
0, 0
0, 0
0, 0
0, 0
0, 0
0, 0
0, 0
0, 0
0, 0
0, 0
0, 0
0, 0
0, 0
0, 0
0, 0
0, 0
0, 0
0, 0
0, 0
0, 0
0, 0
0, 0
0, 0
0, 0
0, 0
0, 0
0, 0
0, 0
0, 0
0, 0
0, 0
0, 0
0, 0
0, 0
0, 0
0, 0
0, 0
0, 0
0, 0
0, 0
0, 0
0, 0
0, 0
0, 0
0, 0
0, 0
0, 0
0, 0
0, 0
0, 0
0, 0
0, 0
0, 0
0, 0
0, 0
0, 0
0, 0
0, 0
0, 0
0, 0
0, 0
0, 0
0, 0
0, 0
0, 0
0, 0
0, 0
0, 0
0, 0
0, 0
0, 0
0, 0
0, 0
0, 0
0, 0
0, 0
0, 0
0, 0
0, 0
0, 0
0, 0
0, 0
0, 0
0, 0
0, 0
0, 0
0, 0
0, 0
0, 0
0, 0
0, 0
0, 0
0, 0
0, 0
0, 0
0, 0
0, 0
0, 0
0, 0
0, 0
0, 0
0, 0
0, 0
0, 0
0, 0
0, 0
0, 0
0, 0
0, 0
0, 0
0, 0
0, 0
0, 0
0, 0
0, 0
0, 0
0, 0
0, 0
0, 0
0, 0
0, 0
0, 0
0, 0
0, 0
0, 0
0, 0
0, 0
0, 0
0, 0
0, 0
0, 0
0, 0
0, 0
0, 0
0, 0
0, 0
0, 0
0, 0
0, 0
0, 0
0, 0
0, 0
0, 0
0, 0
0, 0
0, 0
0, 0
0, 0
0, 0
0, 0
0, 0
0, 0
0, 0
0, 0
0, 0
0, 0
0, 0
0, 0
0, 0
0, 0
0, 0
0, 0
0, 0
0, 0
0, 0
0, 0
0, 0
0, 0
0, 0
0, 0
0, 0
0, 0
0, 0
0, 0
0, 0
0, 0
0, 0
0, 0
0, 0
0, 0
0, 0
0, 0
0, 0
0, 0
0, 0
0, 0
0, 0
0, 0
0, 0
0, 0
0, 0
0, 0
0, 0
0, 0
0, 0
0, 0
0, 0
0, 0
0, 0
0, 0
0, 0
0, 0
0, 0
0, 0
0, 0
0, 0
0, 0
0, 0
0, 0
0, 0
0, 0
0, 0
0, 0
0, 0
0, 0
0, 0
0, 0
0, 0
0, 0
0, 0
0, 0
0, 0
0, 0
0, 0
0, 0
0, 0
0, 0
0, 0
0, 0
0, 0
0, 0
0, 0
0, 0
0, 0
0, 0
0, 0
0, 0
0, 0
0, 0
0, 0
0, 0
0, 0
0, 0
0, 0
0, 0
0, 0
0, 0
0, 0
0, 0
0, 0
0, 0
0, 0
0, 0
0, 0
0, 0
0, 0
0, 0
0, 0
0, 0
0, 0
0, 0
0, 0
0, 0
0, 0
0, 0
0, 0
0, 0
0, 0
0, 0
0, 0
0, 0
0, 0
0, 0
0, 0
0, 0
0, 0
0, 0
0, 0
0, 0
0, 0
0, 0
0, 0
0, 0
0, 0
0, 0
0, 0
0, 0
0, 0
0, 0
0, 0
0, 0
0, 0
0, 0
0, 0
0, 0
0, 0
0, 0
0, 0
0, 0
0, 0
0, 0
0, 0
0, 0
0, 0
0, 0
0, 0
0, 0
0, 0
0, 0
0, 0
0, 0
0, 0
0, 0
0, 0
0, 0
0, 0
0, 0
0, 0
0, 0
0, 0
0, 0
0, 0
0, 0
0, 0
0, 0
0, 0
0, 0
#ENDOFDATA     end of spectrum data