File: host_upload/02-11-2024/rqc/uplink1/ps__0567_0717304816_000rfs_shot_499.msa
#FORMAT      : EMSA/MAS spectral data file
#VERSION     : TC202v2.0 PIXL
#TITLE       : Novarupta (sol567) subset1
#DATE        : 02-11-2024      Date in the format DD-MMM-YYYY, for example 07-JUL-2010
#TIME        :             The time of day at which the spectrum was recorded, in 24-hour format
#OWNER       : PIXL Flight Model       (PIXL will use this to indicate which instrument took the data.)
#NPOINTS     : 4096     Number of data points in the spectrum (This can be zero for configuration only files)
#NCOLUMNS    : 2     Number of data columns in the spectrum (This can be zero for configuration only files)
#XUNITS      : eV
#YUNITS      : COUNTS
#DATATYPE    : YY
#XPERCHAN    : 7.862, 7.881   eV per channel (separate by commas if more than one detector)
#OFFSET      : 18.5, -22.4         eV of first channel  (separate by commas if more than one detector
#SIGNALTYPE  : XRF
#YP_TEMP     : 1.979
#LIVETIME    : 8.82132, 8.81225   seconds (separate by commas if more than one detector)
#REALTIME    : 10, 10.0   seconds (separate by commas if more than one detector)
#SPECTRUM    : start of spectrum data
0, 0
0, 0
0, 0
0, 0
0, 0
0, 0
0, 0
0, 0
0, 0
0, 0
0, 0
0, 0
0, 0
0, 0
0, 0
0, 0
0, 0
0, 0
0, 0
0, 0
0, 0
0, 0
0, 0
0, 0
0, 0
0, 0
0, 0
0, 0
0, 0
0, 0
0, 0
0, 0
0, 2
2, 1
2, 1
1, 1
1, 3
4, 4
6, 4
4, 4
3, 3
2, 2
1, 3
5, 1
4, 5
1, 3
3, 2
0, 1
4, 3
4, 10
2, 7
8, 10
7, 12
14, 22
19, 22
15, 10
13, 17
7, 19
12, 9
6, 15
18, 17
39, 37
31, 39
31, 48
45, 47
53, 54
41, 40
33, 38
38, 44
52, 69
111, 129
185, 225
306, 364
429, 459
454, 586
480, 580
430, 456
322, 393
229, 229
163, 160
84, 87
52, 57
30, 28
35, 24
27, 36
32, 43
38, 37
36, 13
29, 32
23, 29
13, 20
16, 16
19, 27
42, 53
73, 104
131, 139
195, 209
224, 293
313, 297
295, 342
276, 321
231, 209
146, 154
98, 124
64, 76
54, 54
46, 50
58, 63
92, 84
115, 155
165, 169
184, 233
221, 267
207, 239
193, 217
144, 158
133, 139
129, 110
104, 121
78, 84
80, 83
70, 80
55, 85
41, 61
52, 42
38, 43
30, 30
30, 19
19, 18
13, 12
13, 11
15, 6
5, 16
8, 9
8, 7
6, 12
14, 9
17, 13
17, 20
19, 32
22, 29
29, 36
29, 29
26, 28
25, 20
23, 12
9, 17
9, 15
9, 17
15, 22
26, 26
41, 53
75, 100
130, 187
194, 268
299, 351
368, 441
376, 408
363, 406
297, 341
268, 278
166, 185
89, 112
57, 68
40, 41
29, 30
29, 33
32, 33
46, 51
58, 63
53, 73
56, 66
53, 59
44, 48
27, 46
26, 39
22, 18
14, 12
12, 11
8, 12
12, 13
12, 7
7, 15
11, 12
10, 13
12, 15
16, 20
22, 28
39, 33
55, 47
47, 76
61, 77
60, 74
58, 60
52, 71
43, 57
26, 23
26, 34
18, 15
18, 13
11, 18
10, 18
15, 16
9, 17
11, 12
14, 16
18, 16
21, 16
21, 19
28, 17
27, 22
15, 17
22, 26
13, 17
12, 12
13, 15
14, 15
10, 12
12, 13
10, 7
14, 12
13, 16
11, 18
4, 15
13, 24
19, 25
18, 31
22, 34
37, 30
33, 35
32, 32
31, 41
25, 39
28, 29
23, 26
23, 22
24, 9
10, 12
12, 17
12, 16
9, 15
17, 12
13, 12
14, 15
22, 14
27, 17
19, 20
33, 39
38, 48
48, 51
55, 41
55, 57
53, 47
49, 50
39, 39
28, 24
28, 18
22, 22
11, 18
16, 26
16, 25
27, 29
24, 56
52, 89
113, 155
209, 290
377, 444
573, 813
857, 1089
1185, 1419
1541, 1796
1734, 1889
1774, 2028
1761, 1888
1460, 1538
1281, 1252
931, 847
654, 586
443, 368
229, 190
133, 101
75, 79
40, 33
25, 26
18, 12
8, 16
16, 11
16, 14
23, 16
17, 20
20, 23
27, 30
30, 65
68, 71
87, 103
114, 150
162, 197
212, 239
221, 284
275, 291
267, 299
271, 280
240, 235
197, 149
146, 125
94, 86
69, 66
53, 33
24, 22
13, 12
10, 11
6, 6
8, 14
6, 11
13, 11
14, 19
9, 13
7, 17
17, 15
13, 19
10, 7
10, 9
12, 5
4, 14
8, 5
3, 3
4, 7
4, 10
6, 9
9, 4
7, 6
7, 6
11, 6
6, 12
6, 6
5, 4
7, 7
8, 6
5, 4
10, 7
3, 7
10, 10
10, 1
5, 7
10, 8
6, 7
6, 13
2, 6
7, 8
12, 11
5, 3
11, 9
8, 8
5, 8
6, 10
8, 7
4, 4
5, 4
5, 6
5, 6
5, 11
6, 8
10, 8
8, 12
11, 8
11, 11
10, 10
11, 10
8, 13
11, 14
7, 6
11, 2
13, 13
5, 5
9, 6
4, 6
5, 8
9, 4
1, 6
5, 8
4, 8
5, 7
3, 7
9, 3
5, 4
5, 4
8, 4
5, 5
7, 3
5, 9
4, 4
5, 9
5, 8
10, 8
5, 5
4, 4
3, 7
1, 3
8, 2
3, 5
4, 0
12, 5
7, 8
4, 5
5, 2
3, 4
6, 9
2, 9
5, 6
3, 3
1, 6
8, 0
4, 6
2, 6
6, 3
6, 5
6, 5
2, 6
7, 3
8, 9
6, 6
2, 5
6, 3
3, 8
3, 2
6, 4
2, 6
4, 9
4, 3
7, 5
4, 2
4, 2
6, 3
5, 4
4, 3
5, 4
7, 5
4, 7
1, 3
5, 7
3, 4
5, 2
6, 1
1, 4
5, 5
5, 3
3, 3
2, 6
4, 7
3, 9
5, 2
2, 2
3, 4
2, 3
4, 2
4, 6
1, 4
3, 2
5, 3
7, 2
2, 3
4, 4
5, 1
5, 6
2, 3
0, 3
4, 6
4, 2
3, 6
3, 4
2, 6
2, 4
3, 3
6, 5
0, 5
5, 4
2, 2
5, 5
4, 3
0, 1
2, 2
3, 3
7, 2
2, 2
4, 3
3, 1
1, 2
3, 1
6, 2
1, 2
2, 5
3, 0
2, 5
5, 3
2, 3
5, 5
3, 2
1, 1
1, 4
3, 1
1, 6
1, 1
3, 3
2, 2
3, 3
0, 2
1, 4
1, 2
1, 1
3, 0
1, 2
5, 2
3, 3
2, 4
3, 2
0, 1
2, 2
4, 3
4, 2
1, 2
1, 1
1, 1
5, 2
2, 4
2, 4
4, 3
3, 4
1, 5
1, 2
3, 5
3, 3
1, 2
2, 3
2, 5
3, 1
0, 3
5, 2
4, 1
3, 5
4, 5
5, 1
4, 2
3, 3
3, 3
2, 5
1, 3
3, 3
2, 1
3, 1
2, 1
1, 1
2, 3
1, 0
2, 2
4, 2
3, 2
1, 3
0, 4
1, 3
0, 0
2, 2
2, 2
1, 0
0, 0
0, 2
2, 1
0, 1
1, 5
1, 2
1, 4
3, 2
3, 1
1, 1
3, 1
2, 3
0, 0
0, 0
1, 0
0, 3
4, 0
1, 2
0, 1
2, 0
0, 1
0, 1
0, 0
1, 0
4, 1
1, 1
0, 1
0, 1
2, 1
0, 0
1, 2
4, 1
0, 2
1, 2
0, 0
1, 2
2, 1
1, 1
1, 3
1, 0
2, 1
0, 1
2, 2
1, 2
1, 2
0, 2
0, 0
0, 1
0, 1
0, 0
1, 2
1, 1
0, 1
0, 2
1, 0
1, 0
0, 0
0, 1
1, 0
2, 0
1, 1
2, 0
0, 1
1, 4
2, 2
2, 1
4, 1
0, 0
0, 1
1, 1
1, 0
0, 1
1, 0
1, 1
2, 0
0, 2
1, 2
1, 0
0, 2
2, 2
0, 0
0, 2
0, 0
1, 1
0, 1
0, 1
0, 0
2, 0
1, 2
0, 2
1, 2
0, 1
1, 0
0, 1
1, 0
0, 1
0, 0
1, 0
0, 1
0, 0
1, 0
0, 0
3, 0
0, 0
0, 2
0, 0
0, 1
0, 1
2, 1
3, 2
2, 1
0, 2
1, 0
1, 3
0, 1
0, 1
1, 1
1, 0
0, 0
0, 0
0, 1
0, 1
0, 0
0, 0
0, 2
1, 1
0, 0
1, 1
1, 0
2, 0
0, 0
0, 0
0, 0
2, 0
0, 0
1, 1
2, 0
2, 0
0, 1
0, 0
0, 0
1, 1
0, 0
0, 0
0, 0
1, 0
1, 1
2, 1
0, 1
1, 0
0, 0
0, 0
0, 0
1, 0
0, 0
2, 0
1, 0
0, 2
0, 0
0, 0
1, 0
0, 0
0, 0
1, 2
0, 0
0, 0
0, 0
0, 0
0, 1
0, 0
0, 0
0, 0
0, 0
0, 1
0, 0
1, 0
0, 1
0, 1
1, 0
1, 0
0, 1
1, 1
0, 0
0, 0
0, 0
2, 0
0, 0
1, 0
0, 1
0, 0
0, 0
0, 0
0, 0
0, 1
0, 0
0, 0
1, 0
0, 0
1, 1
0, 0
0, 0
0, 0
0, 0
0, 0
0, 1
0, 0
0, 0
1, 0
0, 0
1, 0
1, 0
0, 0
0, 1
1, 0
0, 1
0, 0
0, 0
1, 0
0, 0
0, 0
1, 0
0, 1
0, 0
0, 0
0, 1
1, 0
0, 0
1, 1
0, 0
0, 0
0, 0
0, 0
0, 0
0, 0
0, 0
0, 0
0, 1
0, 0
1, 0
0, 0
0, 0
1, 0
1, 0
0, 0
0, 0
0, 0
1, 0
0, 0
1, 0
1, 1
0, 0
0, 0
0, 0
0, 0
0, 0
0, 0
1, 0
0, 0
0, 0
0, 0
0, 1
0, 0
0, 0
0, 0
0, 0
0, 1
0, 0
0, 0
0, 0
0, 1
0, 0
0, 0
0, 0
1, 0
0, 0
1, 0
0, 0
0, 0
0, 0
1, 0
0, 1
0, 0
0, 0
0, 0
0, 0
0, 0
0, 0
0, 0
0, 0
0, 0
0, 0
0, 1
0, 1
0, 1
0, 0
0, 1
0, 0
1, 1
1, 0
0, 0
0, 0
1, 0
1, 0
0, 0
0, 0
0, 0
0, 0
0, 0
0, 0
0, 0
1, 0
0, 0
0, 0
0, 0
0, 0
0, 0
0, 0
0, 0
0, 0
1, 0
0, 0
0, 0
1, 0
0, 0
0, 0
0, 0
1, 0
0, 1
0, 0
0, 0
0, 2
0, 0
0, 0
1, 1
0, 0
0, 0
0, 0
0, 0
0, 0
0, 0
0, 0
0, 0
0, 0
0, 0
0, 0
0, 0
0, 1
0, 1
0, 0
0, 0
0, 1
0, 0
0, 0
0, 0
0, 0
0, 0
0, 0
0, 0
0, 0
0, 0
1, 0
0, 0
0, 0
0, 0
0, 0
0, 0
0, 0
0, 0
0, 0
1, 0
0, 0
1, 1
0, 0
0, 0
0, 0
0, 0
0, 0
0, 0
0, 0
0, 0
0, 0
0, 1
0, 0
0, 0
0, 0
0, 0
0, 0
0, 0
0, 0
0, 0
0, 0
0, 0
0, 0
0, 0
0, 0
0, 0
0, 0
0, 0
0, 0
0, 0
0, 0
0, 0
0, 0
0, 0
0, 0
0, 0
0, 0
0, 0
0, 0
0, 0
0, 0
0, 0
0, 0
0, 0
0, 0
0, 0
0, 0
0, 0
0, 0
0, 0
0, 0
0, 0
0, 0
0, 0
0, 0
0, 0
0, 0
0, 0
0, 0
0, 0
0, 0
0, 0
0, 0
0, 0
0, 0
0, 0
0, 0
0, 0
0, 0
0, 0
0, 0
0, 0
0, 0
0, 0
1, 0
0, 0
0, 0
0, 0
0, 0
0, 0
0, 1
0, 0
0, 0
0, 0
0, 0
0, 0
0, 0
0, 0
0, 0
0, 0
0, 0
0, 0
0, 0
0, 0
0, 0
0, 0
0, 0
0, 0
0, 0
0, 0
0, 0
0, 0
0, 0
0, 0
0, 0
0, 2
0, 0
0, 0
0, 0
0, 0
0, 0
0, 0
0, 0
0, 0
0, 0
0, 0
0, 0
0, 0
0, 0
0, 0
0, 0
0, 0
0, 0
0, 0
0, 0
0, 0
0, 0
0, 0
0, 0
0, 0
0, 0
0, 0
0, 0
0, 0
0, 0
0, 0
0, 0
0, 0
0, 0
0, 0
0, 0
0, 0
0, 0
0, 0
0, 0
0, 0
0, 0
0, 0
0, 0
0, 0
0, 0
0, 0
0, 0
0, 0
0, 0
0, 0
0, 0
0, 0
0, 0
0, 0
0, 0
0, 0
0, 0
0, 0
0, 0
0, 0
0, 0
0, 0
0, 0
0, 0
0, 0
0, 0
0, 0
0, 0
0, 0
0, 0
0, 0
0, 0
0, 0
0, 0
0, 0
0, 0
0, 0
0, 0
0, 0
0, 0
0, 0
0, 0
0, 0
0, 0
0, 0
0, 0
0, 0
0, 0
0, 0
0, 0
0, 0
0, 0
0, 0
0, 0
0, 0
0, 0
0, 0
0, 0
0, 0
0, 0
0, 0
0, 0
0, 0
0, 0
0, 0
0, 0
0, 0
0, 0
0, 0
0, 0
0, 0
0, 0
0, 0
0, 0
0, 0
0, 0
0, 0
0, 0
0, 0
0, 0
0, 0
0, 0
0, 0
0, 0
0, 0
0, 0
0, 0
0, 0
0, 0
0, 0
0, 0
0, 0
0, 0
0, 0
0, 0
0, 0
0, 0
0, 0
0, 0
0, 0
0, 0
0, 0
0, 0
0, 0
0, 0
0, 0
0, 0
0, 0
0, 0
0, 0
0, 0
0, 0
0, 0
0, 0
0, 0
0, 0
0, 0
0, 0
0, 0
0, 0
0, 0
0, 0
0, 0
0, 0
0, 0
0, 0
0, 0
0, 0
0, 0
0, 0
0, 0
0, 0
0, 0
0, 0
0, 0
0, 0
0, 0
0, 0
0, 0
0, 0
0, 0
0, 0
0, 0
0, 0
0, 0
0, 0
0, 0
0, 0
0, 0
0, 0
0, 0
0, 0
0, 0
0, 0
0, 0
0, 0
0, 0
0, 0
0, 0
0, 0
0, 0
0, 0
0, 0
0, 0
0, 0
0, 0
0, 0
0, 0
0, 0
0, 0
0, 0
0, 0
0, 0
0, 0
0, 0
0, 0
0, 0
0, 0
0, 0
0, 0
0, 0
0, 0
0, 0
0, 0
0, 0
0, 0
0, 0
0, 0
0, 0
0, 0
0, 0
0, 0
0, 0
0, 0
0, 0
0, 0
0, 0
0, 0
0, 0
0, 0
0, 0
0, 0
0, 0
0, 0
0, 0
0, 0
0, 0
0, 0
0, 0
0, 0
0, 0
0, 0
0, 0
0, 0
0, 0
0, 0
0, 0
0, 0
0, 0
0, 0
0, 0
0, 0
0, 0
0, 0
0, 0
0, 0
0, 0
0, 0
0, 0
0, 0
0, 0
0, 0
0, 0
0, 0
0, 0
0, 0
0, 0
0, 0
0, 0
0, 0
0, 0
0, 0
0, 0
0, 0
0, 0
0, 0
0, 0
0, 0
0, 0
0, 0
0, 0
0, 0
0, 0
0, 0
0, 0
0, 0
0, 0
0, 0
0, 0
0, 0
0, 0
0, 0
0, 0
0, 0
0, 0
0, 0
0, 0
0, 0
0, 0
0, 0
0, 0
0, 0
0, 0
0, 0
0, 0
0, 0
0, 0
0, 0
0, 0
0, 0
0, 0
0, 0
0, 0
0, 0
0, 0
0, 0
0, 0
#ENDOFDATA     end of spectrum data