File: host_upload/02-11-2024/rqc/uplink1/ps__0567_0717304816_000rfs_shot_210.msa
#FORMAT      : EMSA/MAS spectral data file
#VERSION     : TC202v2.0 PIXL
#TITLE       : Novarupta (sol567) subset1
#DATE        : 02-11-2024      Date in the format DD-MMM-YYYY, for example 07-JUL-2010
#TIME        :             The time of day at which the spectrum was recorded, in 24-hour format
#OWNER       : PIXL Flight Model       (PIXL will use this to indicate which instrument took the data.)
#NPOINTS     : 4096     Number of data points in the spectrum (This can be zero for configuration only files)
#NCOLUMNS    : 2     Number of data columns in the spectrum (This can be zero for configuration only files)
#XUNITS      : eV
#YUNITS      : COUNTS
#DATATYPE    : YY
#XPERCHAN    : 7.862, 7.881   eV per channel (separate by commas if more than one detector)
#OFFSET      : 18.5, -22.4         eV of first channel  (separate by commas if more than one detector
#SIGNALTYPE  : XRF
#YP_TEMP     : 0.792
#LIVETIME    : 8.82919, 8.82479   seconds (separate by commas if more than one detector)
#REALTIME    : 10, 10.0   seconds (separate by commas if more than one detector)
#SPECTRUM    : start of spectrum data
0, 0
0, 0
0, 0
0, 0
0, 0
0, 0
0, 0
0, 0
0, 0
0, 0
0, 0
0, 0
0, 0
0, 0
0, 0
0, 0
0, 0
0, 0
0, 0
0, 0
0, 0
0, 0
0, 0
0, 0
0, 0
0, 0
0, 0
0, 0
0, 0
0, 0
0, 0
0, 0
1, 1
0, 0
1, 0
0, 1
1, 0
2, 3
3, 5
4, 3
7, 1
1, 4
2, 6
0, 4
2, 3
4, 3
3, 3
3, 1
3, 2
4, 4
4, 7
9, 5
9, 12
15, 14
20, 20
15, 17
10, 10
7, 13
4, 6
6, 11
20, 24
28, 27
28, 32
40, 59
40, 50
32, 44
27, 38
29, 21
37, 29
64, 67
97, 125
181, 203
294, 296
406, 378
464, 478
421, 454
449, 411
328, 287
232, 198
150, 125
77, 77
46, 54
36, 24
30, 30
36, 34
46, 36
38, 36
28, 33
23, 24
16, 24
25, 18
14, 23
30, 15
54, 51
96, 96
162, 165
244, 212
300, 349
373, 363
358, 358
335, 304
252, 239
161, 189
126, 103
78, 79
62, 58
58, 60
64, 68
76, 95
118, 115
152, 164
166, 212
212, 185
212, 187
185, 177
162, 158
134, 124
91, 95
86, 92
79, 79
82, 71
62, 69
68, 61
61, 60
43, 34
34, 36
25, 28
21, 22
19, 12
6, 9
12, 12
6, 10
10, 6
6, 5
3, 9
4, 10
9, 11
11, 12
13, 16
26, 19
25, 28
21, 34
21, 27
35, 20
14, 20
19, 12
11, 10
1, 5
14, 13
21, 17
21, 22
49, 53
91, 93
147, 172
179, 234
252, 271
313, 337
368, 335
324, 322
278, 304
217, 205
168, 132
138, 95
50, 44
31, 21
19, 19
33, 28
30, 37
42, 39
42, 48
49, 62
54, 47
43, 42
41, 30
26, 34
26, 35
22, 20
15, 15
11, 14
2, 9
6, 6
7, 8
8, 11
4, 7
5, 6
14, 15
20, 20
27, 21
41, 35
36, 52
64, 58
69, 76
56, 63
50, 51
67, 52
50, 47
29, 26
29, 22
31, 26
24, 22
9, 14
16, 10
14, 13
15, 11
10, 12
12, 21
13, 12
21, 11
17, 13
19, 22
18, 16
21, 18
18, 17
24, 19
12, 16
13, 11
9, 15
7, 16
8, 8
13, 5
5, 13
8, 9
13, 13
12, 8
14, 22
18, 18
18, 23
21, 24
25, 28
26, 29
32, 35
30, 28
42, 29
25, 22
22, 17
12, 19
8, 14
11, 16
15, 15
11, 12
10, 13
10, 5
11, 11
16, 14
11, 20
21, 18
32, 26
29, 40
35, 44
52, 62
59, 47
44, 53
48, 51
40, 34
28, 29
28, 34
25, 20
18, 28
23, 24
14, 26
13, 26
23, 21
47, 59
67, 87
129, 169
239, 284
427, 440
615, 728
889, 1027
1221, 1383
1497, 1641
1780, 1834
1746, 1823
1655, 1592
1429, 1400
1197, 1068
849, 769
567, 505
354, 279
212, 188
112, 106
54, 48
40, 23
33, 21
13, 18
15, 20
9, 10
14, 14
21, 15
24, 31
28, 26
26, 28
39, 53
78, 66
90, 89
106, 132
169, 191
197, 245
210, 250
254, 272
274, 301
259, 257
207, 220
177, 143
136, 101
87, 77
52, 48
35, 27
25, 16
10, 9
8, 16
15, 12
3, 8
9, 10
14, 14
10, 10
15, 16
7, 8
11, 11
7, 19
14, 9
12, 7
11, 9
7, 5
3, 6
6, 10
1, 6
8, 6
9, 7
6, 5
5, 4
2, 5
6, 10
7, 3
2, 8
10, 7
5, 6
3, 6
3, 8
8, 5
6, 5
3, 8
11, 6
9, 5
5, 2
9, 5
9, 7
6, 11
7, 3
7, 8
12, 8
7, 4
7, 8
6, 7
10, 6
2, 5
4, 8
3, 3
9, 7
7, 4
9, 7
15, 11
2, 4
12, 12
17, 6
17, 8
9, 13
14, 11
10, 9
11, 14
8, 13
11, 5
16, 7
6, 5
6, 8
4, 5
4, 9
4, 6
6, 9
5, 5
9, 8
9, 6
5, 2
6, 14
8, 8
3, 4
7, 7
6, 7
4, 6
4, 7
3, 3
6, 5
5, 4
3, 4
4, 8
4, 7
4, 5
4, 9
7, 5
3, 5
7, 7
9, 7
7, 6
10, 4
6, 6
4, 7
4, 5
4, 4
3, 2
5, 6
7, 3
6, 2
5, 3
5, 5
2, 4
3, 6
2, 4
2, 4
3, 4
3, 7
3, 4
1, 6
2, 6
5, 7
3, 3
10, 8
5, 6
7, 3
3, 3
4, 5
6, 4
3, 6
6, 1
2, 4
3, 5
4, 4
5, 3
3, 3
2, 1
3, 1
4, 3
5, 3
3, 1
1, 3
4, 5
2, 5
3, 5
2, 4
6, 2
2, 4
5, 1
2, 7
6, 5
4, 2
4, 4
1, 3
1, 5
4, 3
5, 4
5, 6
2, 2
1, 4
2, 4
3, 2
5, 1
1, 6
2, 0
4, 3
1, 2
2, 1
2, 3
2, 3
1, 0
7, 3
3, 3
2, 3
2, 2
3, 2
8, 5
1, 3
2, 5
6, 4
3, 4
2, 4
3, 1
1, 0
2, 2
3, 3
4, 1
1, 2
3, 1
5, 2
3, 6
4, 2
0, 4
3, 2
2, 3
2, 5
2, 4
2, 3
3, 5
0, 2
2, 3
2, 2
2, 2
0, 5
4, 5
1, 2
2, 0
0, 1
5, 8
1, 3
2, 1
6, 1
1, 2
0, 2
2, 2
5, 2
2, 1
2, 1
2, 3
5, 1
1, 3
1, 1
3, 1
0, 4
2, 3
1, 3
3, 2
1, 3
3, 5
3, 0
5, 3
2, 1
2, 2
2, 2
1, 5
4, 1
2, 3
0, 0
4, 6
2, 4
4, 6
7, 2
1, 1
0, 2
2, 1
3, 1
2, 1
3, 3
2, 2
2, 1
3, 1
0, 1
1, 1
2, 3
2, 3
0, 1
1, 2
1, 0
1, 0
0, 1
4, 4
1, 2
2, 3
3, 2
1, 2
0, 2
1, 3
3, 1
0, 1
1, 3
1, 1
2, 1
0, 2
0, 2
3, 1
1, 1
0, 1
0, 1
1, 2
3, 2
0, 1
0, 3
1, 2
3, 1
0, 0
1, 0
3, 1
0, 1
0, 3
2, 2
1, 3
0, 1
0, 0
1, 0
1, 0
2, 0
0, 1
1, 1
2, 3
3, 0
1, 0
1, 0
0, 3
0, 1
0, 0
2, 1
0, 1
0, 0
0, 1
1, 1
0, 1
1, 0
0, 0
1, 3
1, 0
1, 2
1, 0
0, 0
1, 0
0, 0
0, 1
0, 1
1, 1
2, 1
1, 0
0, 0
2, 1
1, 1
0, 1
1, 1
1, 0
1, 0
0, 0
0, 0
1, 2
1, 1
1, 0
0, 3
1, 1
2, 0
1, 0
2, 3
0, 0
0, 1
0, 1
1, 1
1, 0
1, 0
1, 1
0, 0
0, 0
0, 0
1, 1
1, 2
0, 0
0, 0
0, 1
0, 0
0, 0
0, 0
0, 1
0, 1
0, 2
0, 1
1, 0
1, 1
3, 0
0, 0
0, 0
0, 0
0, 0
0, 1
1, 1
1, 0
1, 1
0, 0
0, 0
0, 0
0, 1
0, 0
0, 0
0, 0
0, 0
0, 0
0, 0
1, 0
0, 0
2, 0
0, 1
0, 0
0, 1
0, 0
0, 0
0, 0
0, 1
0, 3
1, 0
2, 0
0, 0
2, 0
0, 0
1, 0
0, 0
0, 0
0, 0
1, 0
1, 0
0, 2
0, 0
1, 1
0, 1
0, 0
0, 0
1, 3
0, 0
0, 0
0, 0
1, 0
0, 0
0, 0
0, 0
0, 0
0, 0
0, 0
1, 0
0, 0
0, 1
0, 0
0, 0
1, 1
0, 0
0, 0
0, 0
1, 0
0, 0
1, 1
0, 0
2, 0
1, 1
0, 1
0, 0
0, 0
0, 1
1, 0
0, 0
0, 1
0, 0
0, 0
1, 0
0, 0
0, 0
0, 0
0, 0
0, 0
1, 0
0, 0
0, 1
0, 0
0, 0
0, 0
0, 0
0, 0
1, 0
0, 0
0, 0
0, 0
0, 0
1, 0
0, 0
1, 0
0, 0
0, 1
0, 1
1, 0
0, 0
0, 0
0, 0
0, 0
0, 0
1, 0
0, 0
0, 0
0, 0
1, 0
0, 0
0, 0
1, 0
0, 2
0, 0
0, 2
0, 0
0, 0
1, 0
1, 0
0, 0
1, 0
0, 0
0, 0
0, 0
0, 0
0, 0
0, 0
0, 0
0, 0
1, 1
0, 0
0, 0
0, 0
0, 0
2, 0
1, 0
0, 0
0, 0
0, 0
0, 0
1, 0
0, 1
0, 0
0, 0
0, 0
0, 1
0, 0
0, 0
1, 0
1, 0
0, 0
0, 0
1, 0
0, 0
0, 0
0, 0
0, 0
0, 1
0, 0
0, 0
1, 0
0, 0
0, 0
0, 0
1, 0
0, 0
0, 1
0, 1
0, 0
0, 0
0, 0
0, 0
0, 0
1, 0
0, 0
0, 0
0, 0
1, 2
0, 0
0, 0
0, 0
0, 0
0, 0
0, 0
0, 0
0, 1
0, 0
0, 0
0, 0
0, 0
0, 0
0, 0
0, 0
0, 0
0, 0
0, 0
0, 0
0, 0
0, 0
0, 0
0, 0
0, 0
0, 0
0, 0
0, 0
0, 0
0, 0
1, 1
0, 0
0, 0
0, 0
0, 0
0, 0
0, 0
0, 0
0, 0
0, 0
0, 0
0, 0
0, 0
0, 0
0, 0
0, 0
0, 0
0, 0
0, 0
0, 1
0, 0
0, 0
0, 0
0, 0
0, 0
0, 0
0, 0
1, 1
0, 1
0, 0
0, 0
0, 0
0, 0
0, 0
0, 0
0, 0
0, 0
0, 1
0, 0
0, 0
0, 0
0, 0
0, 0
0, 0
0, 0
0, 0
0, 0
0, 1
0, 0
0, 0
0, 0
0, 0
0, 0
0, 0
0, 0
0, 0
0, 0
0, 0
0, 0
0, 0
0, 0
0, 0
0, 0
0, 0
0, 0
0, 0
0, 0
0, 0
0, 0
0, 0
0, 0
0, 0
0, 0
0, 0
0, 0
0, 0
0, 0
0, 0
0, 0
0, 0
0, 0
1, 0
0, 0
0, 0
0, 0
0, 0
0, 0
0, 0
0, 0
0, 0
0, 0
0, 0
0, 0
0, 0
0, 0
0, 0
0, 0
0, 0
0, 0
0, 0
0, 0
0, 0
0, 0
0, 0
0, 0
0, 0
0, 0
0, 0
0, 0
0, 0
0, 0
0, 0
0, 0
0, 0
0, 0
0, 0
0, 0
0, 0
0, 0
0, 0
0, 0
0, 0
0, 0
0, 0
0, 0
0, 0
0, 0
0, 0
0, 0
0, 0
0, 0
0, 0
0, 0
0, 0
0, 0
0, 0
0, 0
0, 0
0, 0
0, 0
0, 0
0, 0
0, 0
0, 0
0, 0
0, 0
0, 0
0, 0
0, 0
0, 0
0, 0
0, 0
0, 0
0, 0
0, 0
0, 0
0, 0
0, 0
0, 0
0, 0
0, 0
0, 0
0, 0
0, 0
0, 0
0, 0
0, 0
0, 0
0, 0
0, 0
0, 0
0, 0
0, 0
0, 0
0, 0
0, 0
0, 0
0, 0
0, 0
0, 0
0, 0
0, 0
0, 0
0, 0
0, 0
0, 0
0, 0
0, 0
0, 0
0, 0
0, 0
0, 0
0, 0
0, 0
0, 0
0, 0
0, 0
0, 0
0, 0
0, 0
0, 0
0, 0
0, 0
0, 0
0, 0
0, 0
0, 0
0, 0
0, 0
0, 0
0, 0
0, 0
0, 0
0, 0
0, 0
0, 0
0, 0
0, 0
0, 0
0, 0
0, 0
0, 0
0, 0
0, 0
0, 0
0, 0
0, 0
0, 0
0, 0
0, 0
0, 0
0, 0
0, 0
0, 0
0, 0
0, 0
0, 0
0, 0
0, 0
0, 0
0, 0
0, 0
0, 0
0, 0
0, 0
0, 0
0, 0
0, 0
0, 0
0, 0
0, 0
0, 0
0, 0
0, 0
0, 0
0, 0
0, 0
0, 0
0, 0
0, 0
0, 0
0, 0
0, 0
0, 0
0, 0
0, 0
0, 0
0, 0
0, 0
0, 0
0, 0
0, 0
0, 0
0, 0
0, 0
0, 0
0, 0
0, 0
0, 0
0, 0
0, 0
0, 0
0, 0
0, 0
0, 0
0, 0
0, 0
0, 0
0, 0
0, 0
0, 0
0, 0
0, 0
0, 0
0, 0
0, 0
0, 0
0, 0
0, 0
0, 0
0, 0
0, 0
0, 0
0, 0
0, 0
0, 0
0, 0
0, 0
0, 0
0, 0
0, 0
0, 0
0, 0
0, 0
0, 0
0, 0
0, 0
0, 0
0, 0
0, 0
0, 0
0, 0
0, 0
0, 0
0, 0
0, 0
0, 0
0, 0
0, 0
0, 0
0, 0
0, 0
0, 0
0, 0
0, 0
0, 0
0, 0
0, 0
0, 0
0, 0
0, 0
0, 0
0, 0
0, 0
0, 0
0, 0
0, 0
0, 0
0, 0
0, 0
0, 0
0, 0
0, 0
0, 0
0, 0
0, 0
0, 0
0, 0
0, 0
0, 0
0, 0
0, 0
0, 0
0, 0
0, 0
0, 0
0, 0
0, 0
0, 0
0, 0
0, 0
0, 0
0, 0
0, 0
0, 0
0, 0
0, 0
0, 0
0, 0
0, 0
0, 0
0, 0
0, 0
0, 0
0, 0
0, 0
0, 0
0, 0
0, 0
0, 0
0, 0
0, 0
0, 0
0, 0
0, 0
0, 0
0, 0
0, 0
0, 0
0, 0
0, 0
0, 0
0, 0
0, 0
0, 0
0, 0
0, 0
0, 0
0, 0
0, 0
0, 0
0, 0
0, 0
0, 0
0, 0
0, 0
0, 0
0, 0
0, 0
0, 0
0, 0
0, 0
0, 0
0, 0
0, 0
0, 0
0, 0
0, 0
0, 0
0, 0
0, 0
0, 0
0, 0
0, 0
0, 0
0, 0
0, 0
0, 0
0, 0
0, 0
0, 0
0, 0
0, 0
0, 0
0, 0
0, 0
0, 0
0, 0
0, 0
0, 0
0, 0
0, 0
0, 0
0, 0
0, 0
0, 0
0, 0
0, 0
0, 0
0, 0
0, 0
0, 0
0, 0
0, 0
0, 0
0, 0
0, 0
0, 0
0, 0
0, 0
0, 0
0, 0
0, 0
0, 0
0, 0
0, 0
0, 0
0, 0
0, 0
0, 0
0, 0
0, 0
#ENDOFDATA     end of spectrum data