File: host_upload/02-11-2024/rqc/uplink1/ps__0567_0717304816_000rfs_shot_433.msa
#FORMAT      : EMSA/MAS spectral data file
#VERSION     : TC202v2.0 PIXL
#TITLE       : Novarupta (sol567) subset1
#DATE        : 02-11-2024      Date in the format DD-MMM-YYYY, for example 07-JUL-2010
#TIME        :             The time of day at which the spectrum was recorded, in 24-hour format
#OWNER       : PIXL Flight Model       (PIXL will use this to indicate which instrument took the data.)
#NPOINTS     : 4096     Number of data points in the spectrum (This can be zero for configuration only files)
#NCOLUMNS    : 2     Number of data columns in the spectrum (This can be zero for configuration only files)
#XUNITS      : eV
#YUNITS      : COUNTS
#DATATYPE    : YY
#XPERCHAN    : 7.862, 7.881   eV per channel (separate by commas if more than one detector)
#OFFSET      : 18.5, -22.4         eV of first channel  (separate by commas if more than one detector
#SIGNALTYPE  : XRF
#YP_TEMP     : 1.979
#LIVETIME    : 8.8287, 8.82479   seconds (separate by commas if more than one detector)
#REALTIME    : 10, 10.0   seconds (separate by commas if more than one detector)
#SPECTRUM    : start of spectrum data
0, 0
0, 0
0, 0
0, 0
0, 0
0, 0
0, 0
0, 0
0, 0
0, 0
0, 0
0, 0
0, 0
0, 0
0, 0
0, 0
0, 0
0, 0
0, 0
0, 0
0, 0
0, 0
0, 0
0, 0
0, 0
0, 0
0, 0
0, 0
0, 0
0, 0
0, 0
0, 0
1, 0
2, 0
2, 4
0, 1
2, 1
5, 2
6, 1
3, 2
2, 3
1, 5
4, 5
0, 0
2, 2
5, 2
5, 2
4, 3
7, 6
7, 4
6, 1
7, 10
19, 17
16, 21
14, 18
10, 13
12, 17
8, 7
7, 11
5, 13
15, 17
31, 30
35, 41
38, 45
48, 54
52, 41
27, 32
42, 41
27, 45
44, 59
103, 101
188, 221
264, 316
399, 425
444, 492
524, 481
416, 400
306, 339
206, 209
135, 132
87, 67
55, 42
38, 41
33, 38
31, 35
35, 27
44, 42
35, 29
19, 30
17, 26
16, 15
23, 14
27, 24
52, 43
96, 81
115, 121
178, 215
262, 249
270, 287
287, 293
251, 265
207, 223
138, 141
98, 86
65, 56
53, 54
61, 50
57, 64
73, 87
105, 130
141, 169
171, 199
190, 207
193, 219
187, 175
154, 161
138, 128
92, 100
82, 86
80, 77
82, 74
65, 62
64, 65
52, 46
41, 44
37, 31
33, 32
25, 18
11, 16
12, 13
9, 12
7, 8
3, 9
5, 7
4, 8
9, 7
8, 13
12, 17
15, 19
22, 28
37, 37
30, 31
38, 26
22, 31
18, 18
18, 19
12, 14
11, 16
9, 8
10, 19
23, 26
45, 44
67, 106
125, 155
202, 198
266, 300
312, 377
325, 367
323, 338
281, 264
224, 211
173, 144
111, 99
60, 44
55, 33
25, 23
17, 26
29, 27
45, 41
59, 63
51, 54
64, 62
52, 39
44, 43
45, 37
25, 20
19, 19
14, 12
10, 13
8, 13
13, 10
8, 3
8, 8
9, 8
9, 14
11, 13
14, 15
30, 23
22, 26
43, 43
63, 46
57, 55
49, 59
53, 72
60, 56
39, 43
25, 33
25, 22
26, 25
29, 15
15, 13
13, 11
11, 16
8, 7
21, 10
14, 14
15, 12
16, 20
12, 17
21, 17
18, 12
13, 17
26, 16
12, 18
12, 20
11, 14
14, 10
14, 4
10, 10
15, 19
8, 15
6, 6
10, 10
10, 12
12, 20
19, 20
26, 19
23, 28
22, 33
38, 30
27, 33
29, 22
33, 26
15, 23
22, 18
28, 11
15, 16
20, 6
10, 18
15, 17
14, 14
13, 14
13, 14
11, 10
13, 17
14, 22
23, 19
36, 34
40, 37
34, 50
42, 51
37, 50
43, 55
59, 42
30, 41
35, 24
19, 22
16, 20
15, 12
20, 27
20, 20
20, 35
37, 49
55, 73
111, 144
181, 240
336, 423
557, 718
811, 1012
1094, 1387
1422, 1704
1574, 1781
1728, 1852
1689, 1708
1459, 1456
1182, 1158
928, 798
648, 563
382, 321
233, 162
130, 88
78, 63
35, 33
26, 27
19, 13
18, 17
14, 14
10, 19
21, 11
16, 25
30, 17
40, 28
45, 54
64, 66
77, 112
107, 150
137, 182
228, 210
221, 306
244, 290
270, 261
263, 232
229, 219
168, 181
140, 112
97, 74
55, 58
30, 28
17, 13
19, 14
9, 17
9, 7
10, 2
7, 7
14, 14
9, 15
7, 14
13, 9
12, 16
8, 12
11, 11
15, 4
10, 14
9, 6
6, 6
6, 13
5, 5
5, 9
5, 9
8, 4
7, 10
3, 6
5, 6
7, 7
6, 4
5, 5
10, 7
7, 10
4, 8
6, 8
6, 7
5, 8
6, 3
3, 5
5, 6
6, 11
3, 7
12, 10
3, 9
6, 5
5, 12
7, 8
3, 12
6, 6
4, 8
3, 8
6, 7
7, 5
6, 8
4, 8
8, 6
4, 2
5, 8
13, 12
12, 7
7, 14
9, 13
9, 12
10, 14
11, 12
8, 12
8, 8
8, 6
11, 12
7, 3
2, 4
3, 4
4, 5
5, 5
8, 6
9, 2
4, 4
10, 2
7, 5
7, 6
1, 4
4, 3
4, 3
5, 4
6, 4
5, 6
2, 4
6, 6
3, 4
4, 4
8, 7
4, 7
4, 3
6, 2
4, 7
3, 5
2, 12
9, 1
3, 5
7, 8
9, 4
5, 7
2, 4
2, 5
10, 6
5, 3
4, 4
6, 5
3, 10
5, 5
4, 12
6, 3
6, 2
0, 1
2, 5
7, 8
2, 6
6, 4
5, 3
5, 4
10, 6
2, 5
2, 5
0, 2
2, 6
2, 2
1, 3
6, 5
1, 5
5, 3
4, 2
5, 3
4, 6
7, 3
2, 7
4, 7
5, 2
4, 5
3, 2
6, 1
3, 3
3, 1
4, 1
3, 6
3, 1
1, 6
4, 4
4, 2
3, 6
5, 3
2, 1
3, 2
4, 2
1, 2
6, 2
0, 5
7, 4
6, 5
1, 3
3, 1
2, 3
1, 6
1, 3
0, 2
2, 6
2, 5
5, 2
3, 5
1, 5
2, 4
3, 3
2, 1
1, 2
1, 2
1, 4
4, 1
1, 4
0, 2
5, 3
1, 1
3, 1
2, 5
1, 1
1, 3
2, 2
2, 3
2, 3
1, 4
3, 7
2, 5
1, 3
0, 4
3, 1
3, 1
6, 2
1, 3
3, 3
2, 2
0, 1
3, 1
1, 7
2, 4
1, 3
5, 2
1, 3
0, 2
4, 1
2, 5
2, 3
0, 2
0, 4
1, 1
2, 3
1, 4
4, 3
1, 3
2, 1
1, 2
4, 4
4, 2
6, 3
1, 5
2, 2
1, 1
4, 1
0, 5
2, 2
1, 3
2, 0
1, 2
2, 1
1, 1
2, 0
5, 4
3, 3
7, 0
2, 1
2, 6
1, 4
5, 3
5, 2
1, 4
3, 3
4, 0
3, 2
4, 2
1, 3
3, 1
1, 6
1, 2
2, 1
1, 3
2, 0
0, 0
0, 2
0, 2
1, 3
1, 4
2, 3
0, 2
1, 0
1, 1
2, 1
2, 1
1, 1
1, 1
1, 3
3, 2
3, 4
3, 3
1, 2
0, 3
1, 1
1, 0
1, 1
1, 0
2, 3
1, 2
2, 1
0, 1
0, 3
0, 0
2, 1
2, 1
0, 3
1, 1
3, 0
3, 2
2, 1
1, 0
2, 0
3, 0
1, 0
1, 3
3, 2
2, 1
1, 0
0, 3
1, 3
0, 1
1, 1
0, 3
0, 0
0, 0
1, 0
1, 0
0, 2
0, 1
0, 1
1, 2
0, 1
0, 2
1, 0
2, 0
1, 0
1, 2
1, 0
1, 0
0, 0
2, 1
0, 0
1, 1
0, 1
1, 0
1, 0
1, 0
1, 1
0, 0
1, 2
1, 1
3, 1
2, 1
0, 1
1, 0
1, 1
1, 2
0, 0
2, 2
0, 1
0, 1
0, 1
0, 0
2, 0
2, 1
0, 1
1, 1
2, 1
0, 0
0, 0
1, 0
0, 1
0, 1
0, 1
1, 1
1, 2
0, 2
1, 0
1, 0
0, 0
1, 0
0, 0
1, 0
0, 0
2, 0
2, 0
0, 0
1, 5
0, 0
0, 0
3, 1
0, 0
0, 0
1, 2
0, 2
1, 0
0, 0
1, 0
2, 1
0, 0
0, 0
1, 0
1, 0
0, 0
0, 0
2, 1
0, 0
1, 2
0, 0
0, 0
1, 0
0, 1
0, 1
0, 0
0, 2
0, 0
0, 1
0, 1
0, 0
1, 1
0, 0
0, 1
0, 0
0, 0
0, 0
0, 1
0, 1
0, 2
0, 2
0, 1
0, 1
0, 0
1, 0
1, 0
1, 0
1, 0
0, 0
0, 1
0, 0
0, 1
1, 0
1, 0
0, 0
0, 1
1, 0
0, 0
0, 0
0, 1
0, 1
0, 0
1, 0
0, 1
1, 0
0, 1
1, 1
0, 0
1, 0
0, 0
0, 0
0, 0
1, 0
0, 0
0, 0
0, 0
0, 0
0, 0
0, 0
1, 0
1, 0
0, 0
1, 1
0, 0
0, 1
0, 0
0, 0
0, 0
1, 0
0, 0
0, 0
1, 0
0, 1
1, 0
0, 1
0, 0
0, 0
0, 0
0, 1
0, 0
1, 0
0, 0
0, 0
0, 0
0, 0
0, 0
0, 0
0, 1
0, 0
0, 1
0, 1
0, 3
0, 0
0, 0
0, 0
0, 0
0, 0
0, 0
0, 1
0, 0
0, 0
0, 2
0, 0
0, 1
0, 0
1, 0
0, 0
0, 1
0, 0
0, 1
0, 0
1, 0
0, 0
0, 1
0, 0
1, 0
0, 0
0, 0
0, 0
0, 0
1, 0
0, 1
0, 0
0, 1
0, 0
0, 0
0, 0
0, 0
0, 0
0, 0
1, 0
0, 0
0, 0
1, 1
0, 0
0, 0
0, 1
0, 0
0, 0
0, 0
0, 0
0, 0
0, 1
0, 0
0, 0
0, 0
0, 0
1, 0
0, 0
0, 0
0, 0
0, 0
1, 0
0, 0
0, 0
0, 0
1, 0
0, 0
0, 0
0, 0
0, 0
0, 0
0, 1
0, 0
0, 0
0, 0
0, 0
0, 0
0, 0
0, 0
0, 1
0, 0
0, 1
0, 1
0, 0
0, 0
0, 0
0, 2
0, 0
0, 0
0, 0
0, 1
0, 0
0, 0
0, 0
0, 0
0, 0
0, 0
0, 0
0, 0
0, 0
0, 0
0, 0
0, 0
0, 0
1, 1
0, 0
0, 0
0, 0
0, 0
0, 0
0, 0
0, 1
0, 2
0, 0
0, 0
1, 0
0, 0
0, 0
0, 0
0, 0
0, 0
0, 0
0, 0
0, 0
0, 0
0, 0
0, 0
0, 0
0, 1
0, 0
0, 0
0, 0
0, 0
0, 0
0, 0
0, 0
0, 0
0, 0
0, 0
0, 0
0, 0
0, 0
0, 0
0, 0
0, 0
1, 0
0, 0
0, 0
0, 0
0, 0
0, 0
0, 0
0, 0
0, 1
0, 0
0, 0
0, 1
0, 0
0, 0
0, 0
0, 0
0, 0
0, 0
0, 0
0, 1
0, 0
0, 0
0, 0
0, 0
0, 0
0, 0
0, 0
0, 0
0, 0
0, 0
0, 0
0, 0
0, 0
0, 0
0, 0
0, 0
0, 0
0, 0
0, 0
0, 0
0, 0
0, 0
0, 0
0, 0
0, 0
0, 0
0, 0
0, 0
0, 0
0, 0
0, 0
0, 0
0, 0
0, 0
0, 0
0, 0
0, 0
0, 0
0, 0
0, 0
0, 0
0, 0
0, 0
0, 0
0, 0
0, 0
0, 0
0, 0
0, 0
0, 0
1, 0
0, 0
0, 0
0, 0
0, 0
0, 0
0, 0
0, 0
0, 0
0, 0
0, 0
0, 0
0, 0
0, 0
0, 0
0, 0
0, 0
0, 0
0, 0
0, 0
0, 0
0, 0
0, 0
0, 0
0, 0
0, 0
0, 0
0, 0
0, 0
0, 0
0, 0
0, 0
0, 0
0, 0
0, 0
0, 0
0, 0
0, 0
0, 0
0, 0
0, 0
0, 0
0, 0
0, 0
0, 0
0, 0
0, 0
0, 0
0, 0
0, 0
0, 0
0, 0
0, 0
0, 0
0, 0
0, 0
0, 0
0, 0
0, 0
0, 0
0, 0
0, 0
0, 0
0, 0
0, 0
0, 0
0, 0
0, 0
0, 0
0, 0
0, 0
0, 0
0, 0
0, 0
0, 0
0, 0
0, 0
0, 0
0, 0
0, 0
0, 0
0, 0
0, 0
0, 0
0, 0
0, 0
0, 0
0, 0
0, 0
0, 0
0, 0
0, 0
0, 0
0, 0
0, 0
0, 0
0, 0
0, 0
0, 0
0, 0
0, 0
0, 0
0, 0
0, 0
0, 0
0, 0
0, 0
0, 0
0, 0
0, 0
0, 0
0, 0
0, 0
0, 0
0, 0
0, 0
0, 0
0, 0
0, 0
0, 0
0, 0
0, 0
0, 0
0, 0
0, 0
0, 0
0, 0
0, 0
0, 0
0, 0
0, 0
0, 0
0, 0
0, 0
0, 0
0, 0
0, 0
0, 0
0, 0
0, 0
0, 0
0, 0
0, 0
0, 0
0, 0
0, 0
0, 0
0, 0
0, 0
0, 0
0, 0
0, 0
0, 0
0, 0
0, 0
0, 0
0, 0
0, 0
0, 0
0, 0
0, 0
0, 0
0, 0
0, 0
0, 0
0, 0
0, 0
0, 0
0, 0
0, 0
0, 0
0, 0
0, 0
0, 0
0, 0
0, 0
0, 0
0, 0
0, 0
0, 0
0, 0
0, 0
0, 0
0, 0
0, 0
0, 0
0, 0
0, 0
0, 0
0, 0
0, 0
0, 0
0, 0
0, 0
0, 0
0, 0
0, 0
0, 0
0, 0
0, 0
0, 0
0, 0
0, 0
0, 0
0, 0
0, 0
0, 0
0, 0
0, 0
0, 0
0, 0
0, 0
0, 0
0, 0
0, 0
0, 0
0, 0
0, 0
0, 0
0, 0
0, 0
0, 0
0, 0
0, 0
0, 0
0, 0
0, 0
0, 0
0, 0
0, 0
0, 0
0, 0
0, 0
0, 0
0, 0
0, 0
0, 0
0, 0
0, 0
0, 0
0, 0
0, 0
0, 0
0, 0
0, 0
0, 0
0, 0
0, 0
0, 0
0, 0
0, 0
0, 0
0, 0
0, 0
0, 0
0, 0
0, 0
0, 0
0, 0
0, 0
0, 0
0, 0
0, 0
0, 0
0, 0
0, 0
0, 0
0, 0
0, 0
0, 0
0, 0
0, 0
0, 0
0, 0
0, 0
0, 0
0, 0
0, 0
0, 0
0, 0
0, 0
0, 0
0, 0
0, 0
0, 0
0, 0
0, 0
0, 0
0, 0
0, 0
0, 0
0, 0
0, 0
0, 0
0, 0
0, 0
0, 0
0, 0
0, 0
0, 0
0, 0
0, 0
0, 0
0, 0
0, 0
0, 0
0, 0
0, 0
0, 0
0, 0
0, 0
0, 0
0, 0
0, 0
0, 0
0, 0
0, 0
0, 0
0, 0
0, 0
0, 0
0, 0
0, 0
0, 0
0, 0
0, 0
0, 0
0, 0
0, 0
0, 0
0, 0
0, 0
0, 0
0, 0
0, 0
0, 0
0, 0
0, 0
0, 0
0, 0
0, 0
0, 0
0, 0
0, 0
0, 0
0, 0
0, 0
0, 0
0, 0
0, 0
0, 0
0, 0
0, 0
0, 0
0, 0
0, 0
0, 0
0, 0
0, 0
0, 0
0, 0
0, 0
0, 0
0, 0
0, 0
0, 0
0, 0
0, 0
#ENDOFDATA     end of spectrum data