File: host_upload/02-11-2024/rqc/uplink1/ps__0567_0717304816_000rfs_shot_388.msa
#FORMAT      : EMSA/MAS spectral data file
#VERSION     : TC202v2.0 PIXL
#TITLE       : Novarupta (sol567) subset1
#DATE        : 02-11-2024      Date in the format DD-MMM-YYYY, for example 07-JUL-2010
#TIME        :             The time of day at which the spectrum was recorded, in 24-hour format
#OWNER       : PIXL Flight Model       (PIXL will use this to indicate which instrument took the data.)
#NPOINTS     : 4096     Number of data points in the spectrum (This can be zero for configuration only files)
#NCOLUMNS    : 2     Number of data columns in the spectrum (This can be zero for configuration only files)
#XUNITS      : eV
#YUNITS      : COUNTS
#DATATYPE    : YY
#XPERCHAN    : 7.862, 7.881   eV per channel (separate by commas if more than one detector)
#OFFSET      : 18.5, -22.4         eV of first channel  (separate by commas if more than one detector
#SIGNALTYPE  : XRF
#YP_TEMP     : 1.658
#LIVETIME    : 8.8287, 8.81691   seconds (separate by commas if more than one detector)
#REALTIME    : 10, 10.0   seconds (separate by commas if more than one detector)
#SPECTRUM    : start of spectrum data
0, 0
0, 0
0, 0
0, 0
0, 0
0, 0
0, 0
0, 0
0, 0
0, 0
0, 0
0, 0
0, 0
0, 0
0, 0
0, 0
0, 0
0, 0
0, 0
0, 0
0, 0
0, 0
0, 0
0, 0
0, 0
0, 0
0, 0
0, 0
0, 0
0, 1
0, 0
0, 1
0, 1
0, 0
0, 1
2, 2
5, 4
2, 1
4, 4
2, 5
1, 4
3, 2
3, 5
4, 7
2, 3
2, 4
2, 6
3, 2
4, 6
2, 3
5, 4
9, 5
17, 10
14, 14
18, 22
18, 20
20, 17
10, 13
13, 13
11, 15
22, 23
21, 27
19, 42
41, 54
47, 50
45, 58
40, 28
32, 34
48, 43
59, 78
110, 120
201, 224
281, 329
387, 485
482, 500
513, 533
427, 463
338, 382
214, 235
130, 122
82, 104
43, 47
28, 38
21, 30
31, 26
28, 20
30, 40
31, 23
28, 20
13, 27
17, 18
18, 15
30, 24
52, 58
78, 84
123, 147
202, 227
250, 308
317, 342
335, 304
259, 313
209, 228
163, 167
118, 103
71, 73
54, 56
54, 58
56, 62
92, 85
103, 128
149, 183
184, 220
210, 256
201, 230
193, 198
175, 178
128, 131
89, 96
93, 95
70, 77
69, 77
72, 78
55, 92
50, 54
40, 41
42, 35
30, 30
15, 29
22, 24
16, 16
7, 7
13, 11
8, 5
7, 8
3, 11
7, 6
9, 14
13, 17
17, 33
20, 28
28, 23
19, 37
26, 36
25, 29
18, 20
20, 14
10, 13
14, 16
11, 8
22, 20
28, 36
54, 46
72, 100
150, 174
222, 261
266, 342
341, 440
420, 419
354, 400
330, 339
259, 273
177, 184
128, 111
81, 56
34, 41
29, 35
30, 29
34, 34
41, 50
46, 60
72, 63
59, 70
62, 70
49, 40
29, 35
22, 22
17, 15
12, 13
15, 9
11, 5
12, 6
6, 7
16, 9
12, 10
9, 10
13, 23
20, 13
31, 26
32, 30
39, 52
53, 55
53, 63
63, 75
51, 67
57, 65
53, 48
31, 35
29, 29
24, 24
28, 14
19, 16
19, 14
13, 14
16, 16
11, 17
13, 22
12, 13
16, 22
21, 17
19, 20
16, 26
14, 18
20, 22
15, 19
11, 16
14, 15
10, 12
10, 7
11, 4
13, 16
14, 13
9, 12
15, 8
17, 20
10, 22
13, 18
20, 22
20, 25
24, 33
31, 36
42, 33
23, 27
29, 38
12, 25
15, 22
21, 13
17, 15
11, 12
21, 12
24, 11
15, 13
9, 18
11, 12
12, 16
12, 19
9, 19
10, 24
30, 36
36, 50
40, 56
51, 55
53, 46
57, 55
43, 38
36, 33
27, 24
26, 31
22, 21
29, 20
23, 15
16, 21
26, 34
30, 44
66, 83
118, 130
212, 253
313, 427
529, 731
815, 1028
1138, 1412
1374, 1620
1643, 1865
1710, 1870
1619, 1809
1461, 1517
1189, 1188
927, 823
592, 543
363, 336
236, 181
116, 118
66, 53
42, 29
25, 16
21, 22
16, 16
19, 17
23, 19
16, 14
19, 19
25, 32
29, 44
32, 52
49, 67
81, 94
99, 146
163, 188
175, 222
232, 272
252, 310
235, 306
218, 263
218, 206
184, 168
130, 113
101, 86
74, 56
42, 46
27, 22
21, 15
14, 10
3, 9
5, 18
10, 12
10, 10
10, 14
14, 12
9, 12
15, 11
13, 10
9, 13
10, 13
5, 14
10, 8
9, 9
5, 9
2, 10
4, 9
8, 5
5, 9
8, 3
5, 4
2, 6
7, 8
7, 7
4, 6
6, 6
11, 8
3, 12
7, 9
6, 6
12, 8
12, 6
6, 8
1, 8
6, 9
7, 5
7, 9
4, 7
7, 11
14, 13
8, 10
5, 13
6, 4
5, 7
2, 4
1, 9
6, 1
8, 6
5, 11
7, 8
10, 8
10, 7
7, 10
7, 5
10, 11
9, 20
6, 20
13, 5
7, 12
8, 7
15, 7
12, 5
7, 8
5, 5
7, 6
3, 5
4, 6
6, 2
8, 6
8, 6
4, 3
6, 3
6, 6
5, 4
4, 6
4, 5
5, 6
4, 8
3, 2
6, 5
5, 4
7, 6
2, 2
0, 6
4, 6
5, 2
4, 5
5, 7
4, 3
3, 8
6, 9
4, 8
2, 3
3, 4
8, 4
5, 2
4, 4
2, 9
5, 7
7, 6
6, 4
4, 1
5, 6
4, 4
4, 6
2, 7
4, 5
6, 5
4, 7
4, 6
10, 1
1, 3
4, 5
1, 8
7, 1
2, 4
6, 1
3, 3
5, 4
3, 3
7, 1
3, 5
8, 3
9, 1
5, 3
2, 4
2, 2
3, 6
3, 4
4, 3
6, 6
3, 4
3, 3
2, 3
2, 8
7, 5
6, 5
3, 3
5, 5
4, 0
2, 5
3, 2
7, 2
3, 6
4, 1
2, 4
3, 4
6, 3
2, 2
1, 6
7, 5
3, 2
3, 0
5, 4
2, 1
2, 3
2, 5
4, 3
6, 2
3, 5
3, 2
3, 2
4, 6
4, 1
2, 4
1, 8
2, 4
4, 2
1, 0
0, 6
0, 5
0, 3
8, 4
2, 5
2, 2
3, 3
4, 2
3, 3
0, 0
2, 3
1, 3
0, 0
0, 1
3, 4
1, 5
3, 7
1, 4
1, 4
1, 1
0, 4
2, 5
0, 3
4, 1
1, 1
1, 3
3, 1
4, 3
3, 2
3, 5
4, 5
1, 1
0, 0
3, 6
0, 5
2, 2
1, 3
1, 0
1, 1
1, 1
5, 2
1, 4
2, 4
4, 4
1, 1
3, 2
0, 2
1, 4
1, 2
3, 1
3, 3
3, 1
0, 2
3, 2
4, 6
3, 1
2, 6
1, 3
4, 4
1, 6
3, 2
1, 3
5, 2
3, 4
5, 3
2, 3
3, 4
5, 0
5, 2
1, 2
4, 2
2, 2
2, 3
2, 3
2, 2
1, 4
1, 2
0, 7
2, 3
4, 3
1, 1
0, 2
0, 0
2, 4
2, 1
0, 2
1, 2
2, 0
1, 3
0, 0
4, 2
0, 0
0, 2
1, 3
0, 0
0, 0
1, 1
0, 0
0, 1
1, 3
1, 1
2, 0
1, 3
2, 0
2, 0
2, 0
0, 0
2, 1
1, 4
0, 2
2, 0
0, 2
0, 1
1, 2
1, 0
1, 2
2, 0
0, 1
0, 2
2, 2
1, 0
0, 1
1, 1
0, 2
1, 0
1, 3
2, 0
1, 2
0, 0
0, 0
0, 4
2, 0
0, 1
1, 0
0, 1
0, 2
0, 2
0, 0
2, 1
0, 0
0, 2
2, 0
2, 0
0, 0
1, 2
1, 1
0, 1
0, 1
1, 3
1, 0
0, 1
2, 0
0, 0
1, 3
0, 1
0, 0
1, 0
0, 1
3, 0
0, 0
1, 0
0, 0
0, 1
1, 0
1, 1
1, 0
0, 1
1, 0
1, 0
1, 0
0, 0
1, 1
1, 0
0, 0
1, 1
0, 2
0, 0
0, 0
2, 2
3, 0
0, 0
0, 0
0, 0
2, 0
0, 2
0, 0
0, 2
0, 0
0, 1
1, 2
2, 0
0, 1
0, 0
0, 0
0, 0
0, 0
0, 0
1, 1
1, 2
1, 0
0, 1
0, 1
1, 0
0, 1
1, 0
1, 0
0, 0
0, 3
1, 0
0, 0
2, 0
0, 0
1, 1
1, 1
1, 1
0, 0
1, 1
0, 0
0, 1
1, 0
0, 0
0, 0
0, 0
2, 0
1, 0
0, 0
0, 1
0, 0
1, 1
0, 0
0, 2
1, 0
0, 0
0, 0
1, 3
0, 1
1, 0
0, 0
1, 0
0, 0
0, 0
1, 0
0, 0
0, 1
1, 0
1, 0
0, 2
0, 1
1, 0
0, 0
2, 0
0, 0
0, 0
0, 0
3, 0
0, 0
0, 0
0, 0
0, 0
0, 0
0, 0
1, 0
0, 0
0, 0
0, 1
0, 2
0, 2
0, 1
0, 0
0, 1
0, 1
2, 1
1, 0
1, 0
1, 0
1, 0
0, 1
0, 0
0, 0
1, 1
0, 0
0, 0
1, 0
0, 0
0, 0
0, 0
1, 0
0, 0
0, 0
0, 0
0, 0
0, 0
0, 0
0, 0
0, 1
0, 0
0, 1
1, 0
0, 0
0, 0
1, 0
0, 0
0, 0
0, 0
0, 0
0, 1
1, 0
0, 0
0, 1
0, 1
0, 1
1, 0
0, 0
0, 1
0, 0
1, 1
1, 0
1, 0
0, 0
0, 0
0, 0
0, 0
0, 1
0, 0
0, 0
0, 0
0, 1
0, 0
0, 0
0, 0
0, 0
0, 0
0, 0
1, 0
1, 1
1, 0
0, 1
0, 1
0, 0
0, 1
0, 0
0, 0
0, 1
0, 0
0, 0
0, 0
0, 0
0, 0
0, 0
1, 0
0, 0
0, 0
0, 0
0, 0
0, 1
0, 0
0, 0
0, 0
0, 0
0, 0
0, 0
0, 0
0, 0
0, 0
0, 0
0, 0
0, 0
0, 0
0, 0
0, 1
0, 0
0, 0
0, 1
0, 0
0, 0
0, 0
0, 0
0, 0
0, 0
0, 0
0, 0
0, 0
0, 0
0, 0
0, 0
0, 0
0, 0
0, 0
0, 0
0, 0
0, 0
0, 0
0, 0
0, 0
0, 0
0, 0
1, 0
0, 0
0, 0
0, 0
0, 0
0, 0
0, 0
0, 0
0, 0
0, 1
0, 0
0, 0
0, 0
0, 0
0, 0
0, 0
0, 1
0, 1
0, 0
0, 0
0, 0
0, 0
0, 0
0, 0
0, 0
0, 0
0, 0
0, 0
0, 0
0, 1
0, 0
0, 0
0, 0
0, 0
0, 0
0, 0
0, 0
0, 0
0, 1
0, 0
0, 0
0, 0
0, 0
0, 0
0, 0
1, 0
0, 0
0, 0
0, 0
0, 0
0, 0
0, 0
0, 0
0, 1
0, 0
0, 0
0, 0
0, 0
0, 0
0, 0
0, 0
0, 0
0, 0
0, 0
0, 0
0, 0
1, 0
0, 0
0, 1
0, 0
0, 0
1, 0
0, 0
0, 0
0, 0
0, 0
0, 0
0, 0
0, 0
0, 0
0, 0
0, 0
0, 0
0, 0
0, 0
0, 0
0, 0
0, 0
0, 0
0, 0
0, 0
0, 0
0, 0
0, 0
0, 0
0, 0
0, 0
0, 0
0, 0
0, 0
0, 0
0, 0
0, 0
0, 0
0, 0
0, 0
0, 0
0, 0
0, 0
1, 0
0, 0
0, 0
0, 0
0, 0
0, 0
0, 0
0, 0
0, 0
0, 1
0, 0
0, 0
0, 0
0, 0
0, 0
0, 0
0, 0
0, 0
0, 0
0, 0
0, 0
0, 0
0, 0
0, 0
0, 0
0, 0
0, 0
0, 0
0, 0
0, 0
0, 0
0, 0
0, 0
0, 0
0, 0
0, 0
0, 0
0, 0
0, 0
0, 0
0, 0
0, 1
0, 0
0, 0
0, 0
0, 0
0, 0
0, 0
0, 0
0, 0
0, 0
0, 0
0, 0
0, 0
0, 0
0, 0
0, 0
0, 0
0, 0
0, 0
0, 0
0, 0
0, 0
0, 0
0, 0
0, 0
0, 0
0, 0
0, 0
0, 0
0, 0
0, 0
0, 0
0, 0
0, 0
0, 0
0, 0
0, 0
0, 0
0, 0
0, 0
0, 0
0, 0
0, 0
0, 0
0, 0
0, 0
0, 0
0, 0
0, 0
0, 0
0, 0
0, 0
0, 0
0, 0
0, 0
0, 0
0, 0
0, 0
0, 0
0, 0
0, 0
0, 0
0, 0
0, 0
0, 0
0, 0
0, 0
0, 0
0, 0
0, 0
0, 0
0, 0
0, 0
0, 0
0, 0
0, 0
0, 0
0, 0
0, 0
0, 0
0, 0
0, 0
0, 0
0, 0
0, 0
0, 0
0, 0
0, 0
0, 0
0, 0
1, 0
0, 0
0, 1
0, 0
0, 0
0, 0
0, 0
0, 0
0, 0
0, 0
0, 0
0, 0
0, 0
0, 0
0, 0
0, 0
0, 0
0, 0
0, 0
0, 0
0, 0
0, 0
0, 0
0, 0
0, 0
0, 0
0, 0
0, 0
0, 0
0, 0
0, 0
0, 0
0, 0
0, 0
0, 0
0, 0
0, 0
0, 0
0, 0
0, 0
0, 0
0, 0
0, 0
0, 0
0, 0
0, 0
0, 0
0, 0
0, 0
0, 0
0, 0
0, 0
0, 0
0, 0
0, 0
0, 0
0, 0
0, 0
0, 0
0, 0
0, 0
0, 0
0, 0
0, 0
0, 0
0, 0
0, 0
0, 0
0, 0
0, 0
0, 0
0, 0
0, 0
0, 0
0, 0
0, 0
0, 0
0, 0
0, 0
0, 0
0, 0
0, 0
0, 0
0, 0
0, 0
0, 0
0, 0
0, 0
0, 0
0, 0
0, 0
0, 0
0, 0
0, 0
0, 0
0, 0
0, 0
0, 0
0, 0
0, 0
0, 0
0, 0
0, 0
0, 0
0, 0
0, 0
0, 0
0, 0
0, 0
0, 0
0, 0
0, 0
0, 0
0, 0
0, 0
0, 0
0, 0
0, 0
0, 0
0, 0
0, 0
0, 0
0, 0
0, 0
0, 0
0, 0
0, 0
0, 0
0, 0
0, 0
0, 0
0, 0
0, 0
0, 0
0, 0
0, 0
0, 0
0, 0
0, 0
0, 0
0, 0
0, 0
0, 0
0, 0
0, 0
0, 0
0, 0
0, 0
0, 0
0, 0
0, 0
0, 0
0, 0
0, 0
0, 0
0, 0
0, 0
0, 0
0, 0
0, 0
0, 0
0, 0
0, 0
0, 0
0, 0
0, 0
0, 0
0, 0
0, 0
0, 0
0, 0
0, 0
0, 0
0, 0
0, 0
0, 0
0, 0
0, 0
0, 0
0, 0
0, 0
0, 0
0, 0
0, 0
0, 0
0, 0
0, 0
0, 0
0, 0
0, 0
0, 0
0, 0
0, 0
0, 0
0, 0
0, 0
0, 0
0, 0
0, 0
0, 0
0, 0
0, 0
0, 0
0, 0
0, 0
0, 0
0, 0
0, 0
0, 0
0, 0
0, 0
0, 0
0, 0
0, 0
0, 0
0, 0
0, 0
0, 0
0, 0
0, 0
0, 0
0, 0
0, 0
0, 0
0, 0
0, 0
0, 0
0, 0
0, 0
0, 0
0, 0
0, 0
0, 0
0, 0
0, 0
0, 0
0, 0
0, 0
0, 0
0, 0
0, 0
0, 0
0, 0
0, 0
0, 0
0, 0
0, 0
0, 0
0, 0
0, 0
#ENDOFDATA     end of spectrum data