File: host_upload/02-11-2024/rqc/uplink1/ps__0567_0717304816_000rfs_shot_288.msa
#FORMAT      : EMSA/MAS spectral data file
#VERSION     : TC202v2.0 PIXL
#TITLE       : Novarupta (sol567) subset1
#DATE        : 02-11-2024      Date in the format DD-MMM-YYYY, for example 07-JUL-2010
#TIME        :             The time of day at which the spectrum was recorded, in 24-hour format
#OWNER       : PIXL Flight Model       (PIXL will use this to indicate which instrument took the data.)
#NPOINTS     : 4096     Number of data points in the spectrum (This can be zero for configuration only files)
#NCOLUMNS    : 2     Number of data columns in the spectrum (This can be zero for configuration only files)
#XUNITS      : eV
#YUNITS      : COUNTS
#DATATYPE    : YY
#XPERCHAN    : 7.862, 7.881   eV per channel (separate by commas if more than one detector)
#OFFSET      : 18.5, -22.4         eV of first channel  (separate by commas if more than one detector
#SIGNALTYPE  : XRF
#YP_TEMP     : 1.466
#LIVETIME    : 8.8254, 8.82349   seconds (separate by commas if more than one detector)
#REALTIME    : 10, 10.0   seconds (separate by commas if more than one detector)
#SPECTRUM    : start of spectrum data
0, 0
0, 0
0, 0
0, 0
0, 0
0, 0
0, 0
0, 0
0, 0
0, 0
0, 0
0, 0
0, 0
0, 0
0, 0
0, 0
0, 0
0, 0
0, 0
0, 0
0, 0
0, 0
0, 0
0, 0
0, 0
0, 0
0, 0
0, 0
0, 0
0, 1
0, 0
0, 0
0, 0
1, 0
3, 0
1, 0
2, 4
4, 3
5, 4
3, 1
4, 4
3, 1
3, 4
8, 1
4, 1
4, 3
2, 5
8, 10
4, 2
4, 4
1, 3
9, 3
15, 13
18, 10
17, 8
15, 14
13, 9
11, 11
7, 7
11, 15
19, 24
23, 37
46, 40
49, 54
43, 53
43, 50
36, 31
36, 34
50, 46
60, 62
115, 143
189, 204
318, 343
433, 429
545, 504
486, 519
433, 458
330, 359
274, 241
174, 136
90, 58
51, 49
38, 26
35, 30
30, 30
33, 37
48, 33
40, 34
24, 33
16, 23
18, 19
15, 14
28, 27
46, 41
87, 93
128, 154
208, 235
264, 272
283, 337
295, 291
279, 290
248, 210
140, 148
118, 95
88, 66
55, 53
66, 53
64, 78
101, 110
121, 139
169, 199
210, 220
222, 229
229, 227
216, 206
175, 170
152, 152
113, 99
91, 97
85, 66
70, 76
79, 79
66, 63
53, 63
38, 41
47, 33
32, 27
27, 22
24, 20
25, 12
8, 9
17, 6
9, 7
4, 3
7, 9
7, 9
13, 15
19, 16
16, 32
28, 23
28, 37
34, 28
25, 41
29, 27
23, 22
20, 20
15, 6
12, 12
12, 8
19, 24
31, 18
51, 47
111, 94
144, 150
220, 242
310, 338
351, 366
380, 394
345, 404
302, 309
265, 266
180, 155
109, 112
66, 70
29, 34
26, 31
33, 34
34, 32
45, 47
61, 48
70, 63
66, 66
62, 58
56, 40
38, 33
32, 27
20, 18
16, 15
11, 5
7, 10
5, 5
10, 8
8, 11
9, 4
13, 13
5, 17
13, 18
30, 18
35, 18
49, 35
45, 47
71, 45
62, 66
64, 66
54, 61
51, 50
35, 33
26, 29
18, 26
19, 22
21, 20
16, 11
9, 13
13, 16
12, 16
12, 17
11, 17
14, 17
14, 28
30, 20
25, 18
23, 18
18, 16
16, 13
11, 15
19, 20
11, 10
12, 9
2, 12
9, 12
17, 13
20, 11
12, 7
14, 11
16, 20
20, 20
31, 21
20, 20
29, 42
35, 29
22, 31
34, 43
24, 36
19, 27
14, 22
22, 19
9, 13
12, 13
10, 14
9, 14
11, 13
8, 14
19, 12
6, 6
15, 14
26, 21
26, 26
36, 34
38, 37
50, 56
47, 42
53, 60
59, 44
44, 47
28, 36
25, 23
29, 17
23, 21
14, 13
21, 19
26, 27
25, 22
36, 51
67, 81
130, 153
224, 266
397, 467
609, 685
910, 1004
1260, 1384
1498, 1600
1720, 1728
1799, 1888
1737, 1654
1567, 1467
1208, 1076
870, 797
647, 494
421, 293
203, 206
158, 98
73, 50
39, 34
35, 24
24, 22
15, 21
13, 14
14, 22
15, 21
21, 19
22, 23
20, 24
44, 39
60, 87
79, 113
106, 141
164, 165
231, 213
267, 272
294, 293
298, 291
241, 256
230, 195
179, 170
153, 121
88, 79
61, 50
41, 32
19, 24
18, 16
11, 7
8, 7
11, 10
16, 17
9, 16
13, 15
12, 6
18, 12
13, 18
10, 6
12, 6
11, 9
7, 7
7, 9
4, 2
8, 9
10, 6
5, 7
3, 8
5, 3
5, 11
6, 3
8, 4
7, 6
5, 6
5, 4
8, 10
6, 4
9, 9
6, 9
6, 5
7, 8
4, 4
5, 6
8, 7
8, 10
8, 7
8, 9
12, 7
9, 7
6, 4
9, 6
3, 4
7, 5
7, 9
4, 6
10, 8
5, 8
6, 7
5, 7
9, 4
4, 10
9, 8
5, 6
12, 13
11, 18
15, 11
15, 13
7, 14
10, 11
9, 8
6, 9
9, 10
15, 7
6, 5
9, 9
4, 5
3, 6
2, 9
6, 3
7, 8
6, 4
5, 2
9, 10
6, 5
4, 5
4, 3
4, 3
3, 6
3, 4
8, 5
3, 5
3, 2
8, 7
7, 7
7, 5
3, 9
5, 3
4, 6
5, 4
2, 2
9, 5
5, 4
9, 6
6, 8
5, 5
7, 4
7, 7
5, 8
1, 1
1, 4
7, 4
4, 6
4, 6
7, 2
1, 3
5, 1
1, 5
4, 4
4, 4
2, 3
3, 6
4, 6
1, 1
4, 5
3, 6
5, 7
5, 6
2, 6
3, 4
4, 4
4, 5
4, 4
4, 5
7, 3
3, 3
3, 1
4, 5
5, 7
4, 1
6, 2
4, 3
2, 4
4, 4
6, 3
3, 3
1, 10
3, 8
6, 5
4, 3
2, 4
5, 3
4, 2
4, 2
4, 2
3, 4
4, 3
5, 4
2, 6
2, 3
1, 4
4, 5
1, 0
3, 2
4, 0
2, 4
2, 2
5, 3
2, 3
7, 4
4, 3
3, 2
2, 4
0, 1
5, 1
1, 2
0, 2
2, 3
1, 3
4, 4
1, 0
3, 5
3, 1
3, 2
2, 1
1, 4
1, 3
6, 4
3, 4
3, 3
1, 2
4, 2
4, 0
3, 3
1, 5
2, 1
3, 2
1, 2
2, 2
5, 3
3, 4
4, 3
3, 3
2, 5
3, 3
5, 4
3, 4
2, 1
3, 0
3, 2
4, 6
0, 4
2, 4
0, 2
2, 2
3, 1
3, 4
2, 5
3, 1
1, 3
3, 0
1, 2
3, 0
6, 3
2, 2
3, 2
5, 1
2, 1
5, 1
2, 3
1, 2
2, 1
0, 4
2, 2
3, 1
2, 1
2, 3
0, 1
4, 4
3, 3
5, 3
4, 4
0, 9
4, 5
2, 4
3, 3
1, 6
5, 2
3, 1
1, 3
6, 1
2, 2
4, 2
2, 2
3, 4
1, 3
1, 1
1, 0
2, 1
4, 0
0, 0
0, 1
4, 1
2, 2
1, 0
1, 2
1, 2
1, 2
1, 0
1, 0
4, 2
5, 0
4, 4
2, 0
2, 3
1, 2
0, 1
0, 2
2, 1
0, 0
2, 2
1, 2
2, 2
0, 1
1, 0
1, 4
0, 1
1, 2
1, 1
1, 1
2, 0
1, 1
1, 0
1, 2
1, 1
2, 3
1, 1
0, 1
0, 1
0, 2
1, 0
0, 0
0, 0
1, 3
0, 0
2, 0
2, 0
2, 0
1, 1
1, 0
0, 4
1, 2
0, 0
0, 2
0, 3
0, 0
1, 1
0, 2
3, 0
0, 0
0, 1
1, 1
0, 0
0, 2
0, 0
0, 0
1, 1
1, 0
1, 0
1, 0
0, 1
1, 0
1, 1
1, 1
2, 0
0, 1
3, 0
0, 1
0, 0
0, 0
0, 1
1, 0
0, 0
1, 1
1, 1
1, 0
0, 2
2, 1
1, 0
0, 1
1, 0
0, 0
1, 0
0, 1
1, 0
1, 1
0, 1
1, 1
0, 1
0, 2
0, 1
0, 1
1, 2
0, 1
1, 1
1, 0
1, 0
1, 0
1, 1
1, 0
1, 1
1, 1
0, 0
1, 1
0, 1
0, 0
0, 0
0, 1
1, 1
1, 0
1, 0
1, 0
0, 1
1, 0
1, 1
0, 1
1, 0
1, 0
0, 1
0, 0
1, 1
0, 0
1, 0
0, 2
0, 0
0, 0
0, 0
0, 0
1, 0
1, 0
1, 0
0, 1
0, 1
1, 0
0, 1
0, 0
0, 0
1, 0
0, 0
0, 0
0, 0
0, 0
1, 0
0, 0
0, 1
0, 1
1, 0
0, 0
0, 1
1, 0
2, 0
0, 0
0, 1
0, 0
0, 1
0, 1
1, 0
0, 0
1, 1
1, 0
0, 1
0, 0
0, 0
0, 0
0, 0
0, 1
0, 0
0, 0
0, 0
1, 2
0, 0
0, 0
0, 0
1, 0
1, 2
0, 0
0, 0
0, 1
0, 0
0, 0
0, 0
0, 1
0, 0
1, 0
1, 0
0, 0
0, 0
0, 0
0, 1
0, 0
2, 0
1, 0
0, 0
0, 0
0, 0
0, 0
0, 0
0, 1
0, 0
0, 0
0, 0
0, 0
0, 0
1, 0
1, 0
0, 0
0, 0
0, 1
0, 0
0, 0
0, 0
2, 0
0, 0
0, 0
0, 0
1, 0
1, 0
0, 0
0, 1
0, 0
0, 0
0, 0
0, 1
1, 0
0, 0
1, 1
0, 0
0, 0
1, 0
1, 0
0, 0
0, 0
0, 0
1, 0
0, 0
0, 0
0, 0
0, 0
0, 0
0, 0
0, 1
0, 1
0, 0
0, 1
1, 0
0, 0
0, 0
0, 0
0, 1
0, 0
0, 0
0, 0
0, 0
0, 0
1, 0
0, 0
0, 0
0, 0
0, 0
0, 0
0, 0
0, 0
0, 0
0, 0
0, 1
0, 0
0, 1
0, 0
0, 0
1, 0
0, 0
0, 0
0, 0
0, 0
0, 0
0, 0
0, 0
0, 0
0, 0
0, 0
0, 0
0, 1
1, 0
0, 0
0, 0
0, 0
0, 1
0, 0
0, 0
0, 0
1, 0
0, 0
0, 0
0, 0
0, 0
0, 0
0, 0
0, 0
0, 0
0, 0
0, 0
0, 0
0, 0
0, 0
0, 1
0, 0
0, 0
0, 0
0, 0
0, 0
0, 0
0, 0
0, 0
0, 0
0, 0
0, 0
0, 0
0, 0
0, 0
1, 0
0, 1
0, 0
0, 0
0, 1
0, 0
0, 0
0, 0
0, 0
0, 0
0, 0
0, 0
0, 0
0, 0
0, 0
0, 0
0, 0
1, 0
0, 0
0, 0
0, 0
0, 0
0, 0
0, 0
0, 0
0, 0
0, 0
0, 0
0, 0
0, 0
0, 0
0, 1
0, 0
0, 0
0, 0
0, 0
0, 0
0, 0
0, 0
0, 0
0, 0
0, 0
0, 0
0, 0
0, 0
0, 0
0, 0
0, 0
0, 0
0, 0
0, 0
0, 0
0, 0
0, 0
0, 0
0, 0
0, 0
0, 0
0, 0
0, 0
0, 0
0, 0
0, 0
0, 0
0, 0
0, 0
0, 0
0, 0
0, 0
0, 0
0, 0
0, 0
0, 0
0, 0
0, 0
0, 0
0, 0
0, 0
0, 0
0, 0
0, 0
0, 0
0, 0
0, 0
0, 0
0, 0
0, 0
0, 0
0, 0
0, 0
0, 0
0, 0
0, 0
0, 0
0, 0
0, 1
0, 0
0, 0
0, 0
0, 0
0, 0
0, 0
0, 0
0, 0
0, 0
0, 0
0, 0
0, 0
0, 0
0, 0
0, 0
0, 0
0, 0
0, 0
0, 0
0, 0
0, 0
0, 0
0, 0
0, 0
0, 0
0, 0
0, 0
0, 0
0, 0
0, 0
0, 0
0, 0
0, 0
0, 0
0, 0
0, 0
0, 0
0, 0
0, 0
0, 0
0, 0
0, 0
0, 0
0, 0
0, 0
0, 0
0, 0
0, 0
0, 0
0, 0
0, 0
0, 0
0, 0
0, 0
0, 0
0, 0
0, 0
0, 0
0, 0
0, 0
0, 0
0, 0
0, 0
0, 0
0, 0
0, 0
0, 0
0, 0
0, 0
0, 0
0, 0
0, 1
0, 0
0, 0
0, 0
0, 0
0, 0
0, 0
0, 0
0, 0
0, 0
0, 0
0, 0
0, 0
0, 0
0, 0
0, 0
0, 0
0, 0
0, 0
0, 0
0, 0
0, 0
0, 0
0, 0
0, 0
0, 0
0, 0
0, 0
0, 0
0, 0
0, 0
0, 0
0, 0
0, 0
0, 0
0, 0
0, 0
0, 0
0, 0
0, 0
0, 0
0, 0
0, 0
0, 0
0, 0
0, 0
0, 0
0, 0
0, 0
0, 0
0, 0
0, 0
0, 0
0, 0
0, 0
0, 0
0, 0
0, 0
0, 0
0, 0
0, 0
0, 0
0, 0
0, 0
0, 0
0, 0
0, 0
0, 0
0, 0
0, 0
0, 0
0, 0
0, 0
0, 0
0, 0
0, 0
0, 0
0, 0
0, 0
0, 0
0, 0
0, 0
0, 0
0, 0
0, 0
0, 0
0, 0
0, 0
0, 0
0, 0
0, 0
0, 0
0, 0
0, 0
0, 0
0, 0
0, 0
0, 0
0, 0
0, 0
0, 0
0, 0
0, 0
0, 0
0, 0
0, 0
0, 0
0, 0
0, 0
0, 0
0, 0
0, 0
0, 0
0, 0
0, 0
0, 0
0, 0
0, 0
0, 0
0, 0
0, 0
0, 0
0, 0
0, 0
0, 0
0, 0
0, 0
0, 0
0, 0
0, 0
0, 0
0, 0
0, 0
0, 0
0, 0
0, 0
0, 0
0, 0
0, 0
0, 0
0, 0
0, 0
0, 0
0, 0
0, 0
0, 0
0, 0
0, 0
0, 0
0, 0
0, 0
0, 0
0, 0
0, 0
0, 0
0, 0
0, 0
0, 0
0, 0
0, 0
0, 0
0, 0
0, 0
0, 0
0, 0
0, 0
0, 0
0, 0
0, 0
0, 0
0, 0
0, 0
0, 0
0, 0
0, 0
0, 0
0, 0
0, 0
0, 0
0, 0
0, 0
0, 0
0, 0
0, 0
0, 0
0, 0
0, 0
0, 0
0, 0
0, 0
0, 0
0, 0
0, 0
0, 0
0, 0
0, 0
0, 0
0, 0
0, 0
0, 0
0, 0
0, 0
0, 0
0, 0
0, 0
0, 0
0, 0
0, 0
0, 0
0, 0
0, 0
0, 0
0, 0
0, 0
0, 0
0, 0
0, 0
0, 0
0, 0
0, 0
0, 0
0, 0
0, 0
0, 0
0, 0
0, 0
0, 0
0, 0
0, 0
0, 0
0, 0
0, 0
0, 0
0, 0
0, 0
0, 0
0, 0
0, 0
0, 0
0, 0
0, 0
0, 0
0, 0
0, 0
0, 0
0, 0
0, 0
0, 0
0, 0
0, 0
0, 0
0, 0
0, 0
0, 0
0, 0
0, 0
0, 0
0, 0
0, 0
0, 0
0, 0
0, 0
0, 0
0, 0
0, 0
0, 0
0, 0
0, 0
0, 0
0, 0
0, 0
0, 0
0, 0
0, 0
0, 0
0, 0
0, 0
0, 0
0, 0
0, 0
0, 0
0, 0
0, 0
0, 0
0, 0
0, 0
0, 0
0, 0
0, 0
0, 0
0, 0
0, 0
0, 0
0, 0
0, 0
0, 0
0, 0
0, 0
0, 0
0, 0
0, 0
0, 0
0, 0
0, 0
0, 0
0, 0
0, 0
0, 0
0, 0
0, 0
#ENDOFDATA     end of spectrum data