File: host_upload/02-11-2024/rqc/uplink1/ps__0567_0717304816_000rfs_shot_264.msa
#FORMAT      : EMSA/MAS spectral data file
#VERSION     : TC202v2.0 PIXL
#TITLE       : Novarupta (sol567) subset1
#DATE        : 02-11-2024      Date in the format DD-MMM-YYYY, for example 07-JUL-2010
#TIME        :             The time of day at which the spectrum was recorded, in 24-hour format
#OWNER       : PIXL Flight Model       (PIXL will use this to indicate which instrument took the data.)
#NPOINTS     : 4096     Number of data points in the spectrum (This can be zero for configuration only files)
#NCOLUMNS    : 2     Number of data columns in the spectrum (This can be zero for configuration only files)
#XUNITS      : eV
#YUNITS      : COUNTS
#DATATYPE    : YY
#XPERCHAN    : 7.862, 7.881   eV per channel (separate by commas if more than one detector)
#OFFSET      : 18.5, -22.4         eV of first channel  (separate by commas if more than one detector
#SIGNALTYPE  : XRF
#YP_TEMP     : 1.337
#LIVETIME    : 8.8477, 8.64094   seconds (separate by commas if more than one detector)
#REALTIME    : 10, 10.0   seconds (separate by commas if more than one detector)
#SPECTRUM    : start of spectrum data
0, 0
0, 0
0, 0
0, 0
0, 0
0, 0
0, 0
0, 0
0, 0
0, 0
0, 0
0, 0
0, 0
0, 0
0, 0
0, 0
0, 0
0, 0
0, 0
0, 0
0, 0
0, 0
0, 0
0, 0
0, 0
0, 0
0, 0
0, 0
0, 0
0, 0
0, 1
0, 0
0, 2
2, 0
0, 2
1, 0
1, 2
4, 5
1, 3
4, 5
3, 4
4, 7
2, 4
3, 3
4, 2
3, 2
4, 5
4, 1
6, 5
4, 5
2, 4
9, 11
7, 14
13, 16
12, 19
8, 20
11, 11
5, 16
3, 10
13, 16
17, 20
26, 37
28, 38
43, 41
41, 59
45, 43
31, 36
40, 36
39, 49
71, 64
105, 136
165, 255
275, 348
327, 463
416, 564
433, 558
387, 424
313, 374
206, 266
129, 139
92, 91
48, 51
29, 30
26, 32
27, 34
30, 40
30, 34
36, 32
19, 29
13, 17
15, 27
19, 16
27, 27
40, 60
77, 94
139, 160
201, 238
218, 296
264, 345
250, 370
240, 287
207, 224
141, 168
83, 108
69, 77
46, 64
50, 62
72, 75
82, 102
119, 156
149, 211
201, 218
198, 268
206, 238
174, 231
159, 159
122, 138
102, 129
81, 84
84, 75
71, 97
58, 82
49, 62
46, 64
40, 49
23, 36
27, 35
23, 22
15, 21
18, 14
7, 12
11, 10
6, 6
9, 7
8, 9
7, 4
4, 8
14, 17
18, 19
22, 22
19, 29
22, 31
35, 41
20, 35
16, 27
15, 19
13, 20
14, 12
9, 15
15, 15
23, 29
54, 73
73, 102
108, 173
168, 263
261, 338
342, 418
349, 470
358, 410
273, 348
218, 277
156, 188
95, 112
63, 76
37, 43
17, 28
17, 30
27, 36
43, 48
52, 71
49, 68
59, 72
48, 66
41, 56
30, 41
29, 37
16, 20
13, 20
6, 11
9, 10
5, 9
6, 6
12, 5
7, 10
12, 14
10, 13
17, 15
13, 25
23, 33
41, 35
42, 55
50, 69
46, 76
53, 76
49, 54
36, 58
27, 43
31, 36
29, 24
17, 17
15, 23
7, 17
10, 13
17, 13
9, 19
9, 12
9, 15
15, 14
15, 30
17, 20
23, 30
14, 22
24, 22
4, 15
14, 17
8, 16
8, 16
11, 12
9, 13
8, 13
13, 15
6, 8
11, 9
10, 13
13, 14
11, 24
16, 27
21, 19
29, 37
26, 30
25, 38
21, 30
19, 29
23, 26
18, 23
14, 15
16, 17
14, 18
10, 14
7, 10
11, 12
6, 15
19, 9
13, 16
17, 23
8, 34
17, 30
29, 40
37, 38
36, 54
38, 73
43, 61
39, 46
41, 43
32, 40
32, 31
30, 42
21, 24
17, 28
16, 18
23, 32
12, 29
38, 50
59, 98
115, 157
198, 289
339, 484
501, 797
784, 1090
1092, 1375
1317, 1738
1530, 2035
1573, 1917
1550, 1724
1350, 1490
1058, 1203
789, 837
551, 556
311, 336
167, 191
122, 96
75, 54
37, 38
17, 16
11, 25
20, 20
13, 18
18, 20
17, 22
24, 23
23, 31
25, 29
28, 66
51, 71
74, 117
138, 150
141, 204
179, 247
209, 295
215, 307
260, 289
202, 253
191, 197
139, 180
126, 128
82, 75
60, 51
29, 28
23, 20
18, 18
13, 11
10, 9
5, 14
4, 14
7, 11
6, 22
8, 10
12, 12
10, 14
20, 11
8, 12
8, 12
9, 5
11, 12
2, 10
3, 6
4, 8
3, 8
2, 5
4, 13
5, 5
6, 5
3, 5
8, 6
9, 7
5, 6
3, 8
12, 10
5, 8
13, 10
4, 3
16, 7
8, 12
7, 7
6, 7
8, 11
5, 8
6, 17
7, 3
5, 15
3, 9
7, 9
12, 4
8, 7
10, 4
4, 8
3, 5
6, 6
9, 9
5, 11
5, 10
7, 5
8, 10
7, 12
8, 16
7, 11
12, 19
8, 14
7, 6
12, 6
2, 15
6, 7
6, 7
5, 11
8, 8
10, 6
6, 6
2, 4
5, 10
5, 6
4, 10
9, 8
6, 3
6, 2
6, 7
8, 6
7, 6
7, 5
5, 9
5, 2
6, 5
6, 6
7, 5
7, 9
6, 3
0, 6
5, 3
8, 4
2, 7
8, 5
6, 6
3, 5
3, 2
10, 11
8, 5
2, 5
5, 9
5, 7
4, 11
5, 4
3, 8
2, 7
4, 13
2, 5
6, 1
3, 7
6, 7
3, 4
3, 6
0, 7
1, 5
4, 4
7, 9
5, 6
5, 5
10, 5
3, 4
4, 7
7, 6
4, 4
5, 6
4, 6
5, 4
4, 1
3, 2
5, 5
2, 8
3, 3
3, 7
0, 8
5, 6
6, 2
1, 1
6, 3
3, 7
1, 8
3, 2
3, 6
5, 7
4, 9
4, 3
1, 2
2, 3
4, 2
1, 3
5, 1
3, 3
4, 8
5, 6
2, 3
2, 5
3, 5
5, 3
1, 7
2, 4
1, 6
4, 2
1, 4
2, 2
5, 2
3, 5
3, 2
5, 3
2, 3
1, 3
6, 5
4, 2
2, 5
2, 4
1, 4
2, 2
2, 3
1, 2
1, 2
2, 3
3, 3
4, 2
2, 1
1, 3
2, 6
2, 4
4, 0
1, 1
6, 3
1, 2
2, 3
4, 1
5, 3
3, 3
2, 5
1, 2
1, 3
2, 3
1, 4
3, 5
2, 4
3, 2
1, 1
2, 2
3, 2
3, 4
0, 5
0, 3
2, 2
1, 3
2, 1
0, 5
1, 2
3, 2
4, 1
1, 1
2, 4
1, 3
0, 1
2, 2
0, 2
3, 1
0, 0
0, 1
3, 4
3, 5
4, 3
1, 2
2, 1
2, 2
3, 1
4, 1
4, 2
0, 2
3, 2
2, 3
1, 2
1, 1
2, 4
5, 2
2, 4
3, 1
3, 3
1, 1
0, 0
1, 4
0, 0
3, 1
2, 2
2, 3
0, 1
4, 4
1, 2
1, 2
1, 3
3, 1
1, 1
1, 1
0, 1
2, 1
1, 0
3, 2
0, 2
1, 2
1, 0
0, 1
3, 6
1, 2
2, 3
0, 0
4, 5
0, 2
1, 0
2, 1
0, 0
1, 0
1, 0
0, 1
0, 3
0, 0
0, 1
1, 2
1, 0
1, 0
1, 3
2, 3
0, 1
0, 1
0, 1
1, 0
1, 3
2, 0
2, 3
1, 1
0, 2
1, 0
4, 2
0, 1
1, 0
0, 1
2, 1
3, 0
1, 2
0, 3
0, 0
1, 1
3, 0
0, 2
3, 0
1, 1
2, 0
0, 2
0, 1
2, 1
1, 0
3, 0
0, 0
0, 1
0, 0
0, 1
0, 2
0, 1
1, 0
0, 1
1, 0
0, 1
0, 1
2, 1
2, 3
2, 1
0, 1
1, 3
0, 0
0, 0
0, 1
1, 2
2, 0
2, 0
0, 4
0, 1
0, 0
0, 0
3, 0
0, 2
0, 1
0, 1
0, 1
0, 0
0, 0
0, 1
0, 0
1, 1
1, 0
0, 0
0, 0
0, 0
0, 1
1, 1
2, 0
0, 0
0, 0
0, 1
1, 0
0, 0
0, 3
1, 1
0, 0
0, 0
0, 2
0, 0
0, 1
0, 0
1, 1
0, 3
0, 1
1, 1
1, 1
0, 0
1, 2
1, 0
0, 0
0, 0
1, 0
0, 1
0, 0
0, 0
0, 1
0, 2
2, 1
0, 1
0, 0
2, 0
0, 0
0, 1
0, 0
1, 0
1, 1
0, 1
0, 1
1, 1
0, 0
0, 0
1, 0
0, 1
2, 0
0, 0
0, 1
0, 0
0, 1
0, 0
0, 0
0, 0
2, 0
0, 0
1, 1
0, 0
0, 0
1, 0
0, 1
2, 0
1, 0
0, 2
0, 0
0, 0
0, 0
0, 0
0, 1
1, 0
0, 1
0, 0
0, 0
0, 0
0, 0
0, 1
0, 0
0, 1
0, 0
0, 2
0, 1
1, 0
0, 0
1, 0
1, 0
0, 1
0, 0
0, 0
0, 1
0, 0
0, 0
0, 0
0, 0
0, 0
0, 0
0, 0
0, 0
0, 1
0, 0
0, 0
0, 0
0, 0
1, 0
0, 0
0, 0
0, 0
0, 0
0, 0
0, 0
0, 0
0, 1
0, 0
0, 0
0, 0
0, 0
0, 0
2, 1
0, 0
0, 2
2, 0
0, 1
0, 0
0, 1
2, 0
1, 0
0, 1
0, 0
0, 0
1, 0
0, 1
0, 0
1, 1
0, 0
0, 0
0, 0
1, 0
0, 0
0, 0
1, 0
0, 0
0, 0
2, 0
0, 0
1, 0
0, 0
1, 0
0, 0
0, 0
0, 1
0, 0
0, 0
0, 0
0, 0
0, 0
0, 0
0, 0
0, 0
0, 0
0, 0
0, 0
0, 0
0, 0
1, 1
0, 0
0, 1
0, 0
0, 0
0, 0
0, 0
1, 1
0, 0
0, 0
0, 0
0, 0
0, 0
0, 0
0, 0
0, 0
0, 0
0, 0
0, 0
0, 1
0, 0
0, 0
0, 0
0, 0
0, 0
0, 0
1, 1
0, 1
1, 1
0, 0
1, 0
0, 0
0, 0
0, 0
0, 0
0, 0
0, 0
1, 0
0, 1
0, 0
0, 0
0, 0
0, 0
0, 0
0, 0
0, 0
0, 0
0, 0
0, 0
0, 0
0, 0
0, 1
0, 0
0, 0
0, 1
0, 0
0, 0
0, 0
0, 0
0, 0
0, 0
0, 0
0, 0
0, 0
0, 0
0, 0
0, 0
0, 0
0, 0
0, 0
0, 0
0, 0
0, 0
0, 0
0, 0
0, 0
0, 0
0, 0
0, 0
0, 0
0, 0
0, 0
0, 0
0, 0
0, 0
0, 0
1, 0
0, 0
0, 0
0, 0
0, 0
0, 0
0, 0
0, 0
0, 1
0, 0
0, 1
0, 0
0, 0
0, 0
0, 0
0, 0
0, 0
0, 0
0, 0
0, 0
0, 0
0, 0
0, 0
0, 0
0, 0
0, 0
0, 0
0, 0
0, 0
0, 0
0, 0
0, 0
0, 0
0, 0
0, 0
0, 0
0, 0
0, 0
1, 1
0, 0
0, 0
0, 0
0, 0
0, 0
0, 0
0, 0
0, 0
0, 0
0, 0
0, 0
0, 0
0, 0
0, 0
0, 0
0, 0
0, 0
0, 0
0, 0
0, 0
0, 1
0, 0
0, 0
0, 0
0, 0
0, 0
0, 0
0, 0
0, 0
0, 0
0, 0
0, 0
0, 0
0, 0
0, 0
0, 0
0, 0
0, 0
0, 0
0, 1
0, 0
0, 0
0, 0
0, 0
0, 0
0, 0
0, 0
0, 0
0, 0
0, 0
0, 0
0, 0
0, 0
0, 0
0, 0
0, 0
0, 0
0, 0
0, 0
0, 0
0, 0
0, 0
0, 0
0, 0
0, 0
0, 0
0, 0
0, 0
0, 0
0, 0
0, 0
0, 0
0, 0
0, 0
0, 0
0, 0
0, 0
0, 0
0, 0
0, 0
0, 0
0, 0
0, 0
0, 0
0, 0
0, 0
0, 0
0, 0
0, 0
0, 0
0, 0
0, 0
0, 0
0, 0
0, 0
0, 0
0, 0
0, 0
0, 0
0, 0
0, 0
0, 0
0, 0
0, 0
0, 0
0, 0
0, 0
0, 0
0, 0
0, 0
0, 0
0, 0
0, 0
0, 0
0, 0
0, 0
0, 0
0, 0
0, 0
0, 0
0, 0
0, 0
0, 0
0, 0
0, 0
0, 0
0, 0
0, 0
0, 0
0, 0
0, 0
0, 0
0, 0
0, 0
0, 0
0, 0
0, 0
0, 0
0, 0
0, 0
0, 0
0, 0
0, 0
0, 0
0, 0
0, 0
0, 0
0, 0
0, 0
0, 0
0, 0
0, 0
0, 0
0, 0
0, 0
0, 0
0, 0
0, 0
0, 0
0, 0
0, 0
0, 0
0, 0
0, 0
0, 0
0, 0
0, 0
0, 0
0, 0
0, 0
0, 0
0, 0
0, 0
0, 0
0, 0
0, 0
0, 0
0, 0
0, 0
0, 0
0, 0
0, 0
0, 0
0, 0
0, 0
0, 0
0, 0
0, 0
0, 0
0, 0
0, 0
0, 0
0, 0
0, 0
0, 0
0, 0
0, 0
0, 0
0, 0
0, 0
0, 0
0, 0
0, 0
0, 0
0, 0
0, 0
0, 0
0, 0
0, 0
0, 0
0, 0
0, 0
0, 0
0, 0
0, 0
0, 0
0, 0
0, 0
0, 0
0, 0
0, 0
0, 0
0, 0
0, 0
0, 0
0, 0
0, 0
0, 0
0, 0
0, 0
0, 0
0, 0
0, 0
0, 0
0, 0
0, 0
0, 0
0, 0
0, 0
0, 0
0, 0
0, 0
0, 0
0, 0
0, 0
0, 0
0, 0
0, 0
0, 0
0, 0
0, 0
0, 0
0, 0
0, 0
0, 0
0, 0
0, 0
0, 0
0, 0
0, 0
0, 0
0, 0
0, 0
0, 0
0, 0
0, 0
0, 0
0, 0
0, 0
0, 0
0, 0
0, 0
0, 0
0, 0
0, 0
0, 0
0, 0
0, 0
0, 0
0, 0
0, 0
0, 0
0, 0
0, 0
0, 0
0, 0
0, 0
0, 0
0, 0
0, 0
0, 0
0, 0
0, 0
0, 0
0, 0
0, 0
0, 0
0, 0
0, 0
0, 0
0, 0
0, 0
0, 0
0, 0
0, 0
0, 0
0, 0
0, 0
0, 0
0, 0
0, 0
0, 0
0, 0
0, 0
0, 0
0, 0
0, 0
0, 0
0, 0
0, 0
0, 0
0, 0
0, 0
0, 0
0, 0
0, 0
0, 0
0, 0
0, 0
0, 0
0, 0
0, 0
0, 0
0, 0
0, 0
0, 0
0, 0
0, 0
0, 0
0, 0
0, 0
0, 0
0, 0
0, 0
0, 0
0, 0
0, 0
0, 0
0, 0
0, 0
0, 0
0, 0
0, 0
0, 0
0, 0
0, 0
0, 0
0, 0
0, 0
0, 0
0, 0
0, 0
0, 0
0, 0
0, 0
0, 0
0, 0
0, 0
0, 0
0, 0
0, 0
0, 0
0, 0
0, 0
0, 0
0, 0
0, 0
0, 0
0, 0
0, 0
0, 0
0, 0
0, 0
0, 0
0, 0
0, 0
0, 0
0, 0
0, 0
0, 0
0, 0
0, 0
0, 0
0, 0
0, 0
0, 0
0, 0
0, 0
0, 0
0, 0
0, 0
0, 0
0, 0
0, 0
0, 0
0, 0
0, 0
0, 0
0, 0
0, 0
0, 0
0, 0
0, 0
0, 0
0, 0
0, 0
#ENDOFDATA     end of spectrum data