File: host_upload/06-09-2024/ps_0852/dump3/ps__0852shot_2164.msa
#FORMAT      : EMSA/MAS spectral data file
#VERSION     : TC202v2.0 PIXL
#TITLE       : N/A
#DATE        :       Date in the format DD-MMM-YYYY, for example 07-JUL-2010
#TIME        :             The time of day at which the spectrum was recorded, in 24-hour format
#OWNER       : PIXL Flight Model       (PIXL will use this to indicate which instrument took the data.)
#NPOINTS     : 4096     Number of data points in the spectrum (This can be zero for configuration only files)
#NCOLUMNS    : 2     Number of data columns in the spectrum (This can be zero for configuration only files)
#XUNITS      : eV
#YUNITS      : COUNTS
#DATATYPE    : YY
#XPERCHAN    : 7.862, 7.881   eV per channel (separate by commas if more than one detector)
#OFFSET      : 18.5, -22.4         eV of first channel  (separate by commas if more than one detector
#SIGNALTYPE  : XRF
#YP_TEMP     : 2.3
#LIVETIME    : 8.54972, 8.55267   seconds (separate by commas if more than one detector)
#REALTIME    : 10, 10.0   seconds (separate by commas if more than one detector)
#SPECTRUM    : start of spectrum data
0, 0
0, 0
0, 0
0, 0
0, 0
0, 0
0, 0
0, 0
0, 0
0, 0
0, 0
0, 0
0, 0
0, 0
0, 0
0, 0
0, 0
0, 0
0, 0
0, 0
0, 0
0, 0
0, 0
0, 0
0, 0
0, 0
0, 0
0, 0
0, 0
1, 0
0, 0
1, 0
0, 0
0, 1
1, 0
0, 1
3, 2
0, 1
1, 3
2, 0
3, 2
3, 1
0, 1
4, 1
2, 4
2, 2
1, 1
1, 1
5, 7
13, 12
29, 25
28, 35
55, 47
53, 77
69, 84
73, 72
53, 60
34, 49
29, 35
18, 16
6, 7
6, 8
4, 5
4, 3
6, 5
5, 9
4, 5
6, 11
13, 18
34, 61
65, 84
133, 151
178, 266
263, 313
293, 385
290, 357
278, 314
218, 240
161, 183
94, 89
72, 65
27, 25
13, 18
7, 7
7, 5
1, 1
9, 1
2, 2
2, 2
5, 8
6, 6
13, 10
19, 22
34, 56
75, 88
121, 155
220, 198
276, 263
289, 296
308, 340
270, 334
259, 230
174, 172
117, 104
95, 71
50, 46
37, 37
36, 39
34, 40
44, 58
69, 66
69, 74
82, 82
66, 83
70, 92
80, 64
55, 66
48, 40
38, 43
44, 35
41, 36
29, 31
24, 25
22, 15
23, 17
13, 29
10, 18
10, 9
13, 11
3, 5
7, 5
3, 4
6, 6
3, 7
4, 4
4, 4
1, 10
11, 7
10, 18
11, 19
13, 17
25, 14
15, 15
18, 13
11, 7
7, 6
8, 7
3, 7
1, 4
2, 5
4, 7
6, 15
11, 27
23, 30
24, 25
32, 36
35, 57
39, 50
43, 40
28, 37
32, 19
24, 21
14, 14
14, 7
4, 5
4, 4
1, 6
6, 1
6, 12
3, 7
4, 11
5, 10
11, 9
8, 5
3, 3
8, 5
5, 2
11, 3
5, 7
8, 3
5, 2
3, 5
2, 3
3, 4
1, 5
3, 3
6, 8
2, 10
4, 9
7, 9
5, 7
9, 10
9, 11
11, 13
9, 22
14, 13
12, 13
11, 16
15, 14
8, 8
9, 12
8, 14
5, 11
4, 11
5, 7
5, 4
6, 15
3, 14
9, 12
9, 14
9, 17
9, 18
8, 19
8, 17
12, 15
7, 15
7, 13
4, 17
5, 10
4, 12
7, 7
5, 6
5, 9
6, 8
7, 16
9, 20
14, 16
17, 22
20, 12
25, 21
27, 24
31, 29
38, 17
35, 26
37, 18
50, 17
47, 23
38, 22
22, 6
29, 8
16, 11
25, 17
21, 8
30, 13
39, 16
43, 29
74, 22
84, 36
78, 47
101, 67
112, 62
98, 75
88, 49
53, 51
59, 42
35, 45
28, 30
24, 19
24, 17
19, 12
24, 26
23, 38
38, 37
65, 95
136, 196
250, 364
376, 603
639, 967
980, 1398
1422, 1870
1700, 2169
1986, 2492
2076, 2473
1996, 2378
1862, 2018
1527, 1581
1170, 1129
838, 729
525, 512
319, 246
190, 162
94, 83
53, 36
23, 30
13, 21
19, 15
14, 17
7, 15
9, 28
19, 19
20, 31
26, 36
35, 41
61, 88
92, 131
111, 156
164, 227
254, 280
270, 355
292, 366
316, 375
304, 321
296, 262
255, 240
176, 142
110, 120
82, 66
51, 37
27, 29
17, 14
9, 13
5, 15
4, 13
5, 9
11, 14
16, 17
12, 14
24, 11
12, 10
25, 19
13, 14
38, 9
31, 4
41, 12
28, 8
33, 9
25, 8
18, 10
16, 3
14, 2
11, 4
11, 4
7, 6
8, 2
6, 4
4, 1
5, 4
8, 3
5, 4
4, 4
7, 0
5, 5
6, 5
5, 5
6, 6
8, 7
7, 7
4, 6
6, 4
4, 2
2, 7
3, 5
5, 3
7, 4
6, 3
3, 4
3, 4
2, 2
12, 2
4, 3
6, 4
2, 0
5, 6
3, 3
4, 7
7, 7
7, 8
6, 4
3, 5
3, 2
6, 4
2, 4
6, 4
1, 4
5, 3
8, 4
8, 4
3, 4
3, 5
2, 5
3, 7
8, 6
1, 3
3, 1
3, 4
2, 3
8, 7
4, 5
5, 8
6, 3
1, 9
3, 3
5, 7
7, 4
3, 7
6, 6
3, 8
6, 9
8, 8
9, 8
6, 8
5, 8
11, 9
7, 4
5, 6
2, 5
5, 4
7, 3
5, 4
2, 2
5, 4
8, 9
8, 9
3, 4
4, 7
5, 7
3, 9
5, 10
4, 11
3, 8
2, 8
2, 18
2, 12
4, 9
6, 15
3, 9
3, 4
4, 5
6, 11
7, 5
5, 6
4, 3
4, 3
4, 5
5, 3
2, 9
0, 5
3, 4
3, 4
2, 5
2, 2
2, 2
2, 8
4, 5
4, 3
2, 4
0, 1
3, 7
4, 7
1, 8
0, 2
4, 5
3, 5
5, 4
0, 3
3, 4
0, 1
4, 3
3, 6
0, 8
1, 3
7, 2
5, 3
0, 4
4, 5
7, 4
4, 0
7, 5
4, 2
3, 3
8, 4
3, 1
6, 3
5, 3
6, 4
3, 0
5, 1
3, 0
0, 4
2, 5
2, 3
0, 1
2, 4
2, 1
2, 0
2, 1
4, 3
2, 2
4, 2
2, 2
4, 3
1, 3
1, 2
6, 2
1, 1
0, 1
2, 1
1, 3
3, 4
5, 6
4, 2
2, 6
1, 2
5, 3
4, 4
1, 1
1, 2
1, 3
2, 3
4, 2
2, 3
6, 3
6, 2
1, 3
1, 2
1, 4
1, 0
3, 6
2, 2
3, 5
2, 4
0, 1
0, 2
2, 1
1, 4
1, 2
4, 4
2, 2
0, 0
0, 2
1, 5
2, 0
3, 0
1, 0
2, 1
2, 4
1, 4
2, 3
1, 5
3, 1
0, 1
2, 3
3, 1
4, 3
0, 4
5, 3
1, 3
4, 1
1, 2
1, 1
2, 3
1, 1
2, 4
2, 2
4, 1
1, 0
0, 0
1, 0
1, 2
0, 2
0, 1
0, 2
0, 2
2, 1
1, 3
2, 3
3, 8
2, 6
1, 3
0, 3
2, 2
3, 0
1, 0
3, 1
1, 5
2, 3
1, 1
1, 0
0, 2
0, 1
0, 2
2, 2
0, 0
0, 2
0, 0
2, 1
1, 1
0, 0
0, 7
2, 0
0, 1
0, 0
1, 1
1, 0
1, 1
0, 1
0, 1
1, 2
0, 0
2, 1
2, 2
1, 2
2, 4
0, 2
2, 1
0, 1
2, 1
0, 1
0, 0
0, 1
0, 2
0, 1
2, 1
0, 0
0, 1
0, 2
0, 1
0, 3
0, 3
0, 2
0, 1
1, 2
0, 0
0, 0
1, 3
1, 1
0, 0
0, 1
0, 1
0, 1
1, 1
0, 1
0, 1
0, 1
0, 0
0, 1
0, 0
1, 0
2, 0
0, 0
1, 0
1, 0
0, 0
0, 0
0, 0
0, 0
0, 1
2, 1
1, 0
2, 1
1, 0
0, 1
0, 1
0, 2
0, 0
0, 0
0, 1
0, 0
0, 1
0, 0
2, 1
0, 0
0, 0
0, 1
1, 1
1, 1
1, 0
0, 1
0, 2
0, 1
0, 0
0, 2
2, 1
1, 0
0, 0
0, 1
0, 1
2, 0
0, 0
0, 1
0, 1
0, 0
1, 2
1, 1
0, 0
0, 1
1, 1
1, 1
0, 0
0, 2
0, 1
1, 0
1, 0
0, 0
1, 0
0, 0
0, 0
0, 0
0, 1
0, 0
0, 0
0, 0
1, 0
1, 0
0, 0
0, 0
0, 1
1, 0
0, 2
0, 0
0, 0
0, 0
0, 1
1, 1
0, 0
0, 0
0, 0
0, 2
0, 1
0, 0
1, 1
0, 0
0, 0
0, 0
0, 0
0, 1
0, 0
0, 0
0, 0
0, 1
1, 0
1, 0
0, 0
0, 0
0, 1
0, 0
0, 0
0, 0
0, 0
1, 0
1, 0
1, 0
1, 0
0, 0
0, 0
0, 0
0, 0
0, 0
1, 0
0, 0
0, 1
0, 2
2, 1
0, 0
0, 1
2, 0
0, 0
0, 0
0, 0
0, 0
0, 1
1, 1
1, 1
0, 1
1, 0
0, 1
0, 1
1, 0
0, 1
0, 0
0, 1
0, 1
0, 0
0, 0
0, 0
0, 0
0, 0
1, 0
1, 0
0, 0
0, 0
1, 1
0, 2
0, 0
0, 0
0, 0
0, 0
1, 1
0, 1
0, 0
0, 0
0, 1
0, 0
0, 0
1, 0
1, 0
0, 0
0, 1
1, 0
0, 0
0, 0
0, 1
0, 0
0, 0
0, 0
0, 0
0, 1
1, 0
0, 0
0, 0
0, 0
0, 0
0, 0
0, 0
0, 0
0, 0
0, 0
0, 0
0, 0
1, 0
0, 0
0, 0
0, 1
0, 0
0, 0
1, 0
0, 1
0, 0
0, 0
0, 2
0, 0
0, 0
0, 0
1, 1
0, 0
0, 0
0, 0
0, 0
0, 0
0, 0
0, 0
0, 0
0, 0
0, 0
0, 1
0, 0
0, 0
0, 0
0, 0
0, 0
0, 0
0, 0
1, 0
0, 0
0, 0
0, 0
1, 0
0, 0
0, 0
0, 0
2, 1
0, 0
1, 1
0, 0
0, 0
0, 2
0, 0
0, 0
0, 0
0, 0
0, 0
0, 0
0, 0
1, 0
0, 0
0, 0
0, 0
0, 0
0, 0
0, 0
0, 1
0, 0
0, 1
1, 0
0, 0
0, 0
0, 0
1, 0
0, 0
0, 0
0, 0
0, 0
0, 0
0, 0
0, 0
0, 0
0, 0
0, 0
0, 0
1, 0
0, 0
0, 0
0, 0
0, 0
0, 0
0, 0
0, 0
0, 0
0, 0
0, 0
0, 0
0, 0
0, 0
0, 0
0, 0
0, 0
0, 0
0, 0
0, 0
0, 0
0, 0
1, 0
0, 0
1, 0
1, 0
0, 0
0, 0
0, 0
0, 0
0, 0
0, 0
0, 0
0, 0
1, 0
0, 0
0, 0
0, 0
0, 0
0, 0
0, 0
0, 0
0, 0
0, 0
0, 0
0, 0
0, 0
0, 0
0, 0
0, 0
0, 0
0, 0
0, 0
0, 0
0, 0
0, 0
0, 0
0, 0
0, 0
0, 0
0, 0
0, 0
0, 0
0, 0
0, 0
0, 0
0, 0
0, 0
0, 0
0, 0
0, 0
0, 0
0, 0
0, 0
0, 0
0, 0
0, 0
0, 0
0, 0
0, 0
0, 0
0, 0
0, 0
0, 0
0, 0
0, 0
0, 0
0, 0
0, 0
0, 0
0, 0
0, 0
0, 0
0, 0
0, 0
0, 0
0, 0
0, 0
0, 0
0, 0
0, 0
0, 0
0, 0
0, 0
0, 0
0, 0
0, 0
0, 0
0, 0
0, 0
0, 0
0, 0
0, 0
0, 0
0, 0
0, 0
0, 0
1, 0
0, 0
0, 0
0, 0
0, 0
0, 0
0, 0
0, 0
0, 0
0, 0
0, 0
0, 0
0, 0
0, 0
0, 0
0, 0
0, 0
0, 0
0, 0
0, 0
0, 0
0, 0
0, 0
0, 0
0, 0
0, 0
0, 0
0, 0
0, 0
0, 0
0, 0
0, 0
0, 0
0, 0
0, 0
0, 0
0, 0
0, 0
0, 0
0, 0
0, 0
0, 0
0, 0
0, 0
0, 0
0, 0
0, 0
0, 0
0, 0
0, 0
0, 0
0, 0
0, 0
0, 0
0, 0
0, 0
0, 0
0, 0
0, 0
0, 0
0, 0
0, 0
0, 0
0, 0
0, 0
0, 0
0, 0
0, 0
0, 0
0, 0
0, 0
0, 0
0, 0
0, 0
0, 0
0, 0
0, 0
0, 0
0, 0
0, 0
0, 0
0, 0
0, 0
0, 0
0, 0
0, 0
0, 0
0, 0
0, 0
0, 0
0, 0
0, 0
0, 0
0, 0
0, 0
0, 0
0, 0
0, 0
0, 0
0, 0
0, 0
0, 0
0, 0
0, 0
0, 0
0, 0
0, 0
0, 0
0, 0
0, 0
0, 0
0, 0
0, 0
0, 0
0, 0
0, 0
0, 0
0, 0
0, 0
0, 0
0, 0
0, 0
0, 0
0, 0
0, 0
0, 0
0, 0
0, 0
0, 0
0, 0
0, 0
0, 0
0, 0
0, 0
0, 0
0, 0
0, 0
0, 0
0, 0
0, 0
0, 0
0, 0
0, 0
0, 0
0, 0
0, 0
0, 0
0, 0
0, 0
0, 0
0, 0
0, 0
0, 0
0, 0
0, 0
0, 0
0, 0
0, 0
0, 0
0, 0
0, 0
0, 0
0, 0
0, 0
0, 0
0, 0
0, 0
0, 0
0, 0
0, 0
0, 0
0, 0
0, 0
0, 0
0, 0
0, 0
0, 0
0, 0
0, 0
0, 0
0, 0
0, 0
0, 0
0, 0
0, 0
0, 0
0, 0
0, 0
0, 0
0, 0
0, 0
0, 0
0, 0
0, 0
0, 0
0, 0
0, 0
0, 0
0, 0
0, 0
0, 0
0, 0
0, 0
0, 0
0, 0
0, 0
0, 0
0, 0
0, 0
0, 0
0, 0
0, 0
0, 0
0, 0
0, 0
0, 0
0, 0
0, 0
0, 0
0, 0
0, 0
0, 0
0, 0
0, 0
0, 0
0, 0
0, 0
0, 0
0, 0
0, 0
0, 0
0, 0
0, 0
0, 0
0, 0
0, 0
0, 0
0, 0
0, 0
0, 0
0, 0
0, 0
0, 0
0, 0
0, 0
0, 0
0, 0
0, 0
0, 0
0, 0
0, 0
0, 0
0, 0
0, 0
0, 0
0, 0
0, 0
0, 0
0, 0
0, 0
0, 0
0, 0
0, 0
0, 0
0, 0
0, 0
0, 0
0, 0
0, 0
0, 0
0, 0
0, 0
0, 0
0, 0
0, 0
0, 0
0, 0
0, 0
0, 0
0, 0
0, 0
0, 0
0, 0
0, 0
0, 0
0, 0
0, 0
0, 0
0, 0
0, 0
0, 0
0, 0
0, 0
0, 0
0, 0
0, 0
0, 0
0, 0
0, 0
0, 0
0, 0
0, 0
0, 0
0, 0
0, 0
0, 0
0, 0
0, 0
0, 0
0, 0
0, 0
0, 0
0, 0
0, 0
0, 0
0, 0
0, 0
0, 0
0, 0
0, 0
0, 0
0, 0
0, 0
0, 0
0, 0
0, 0
0, 0
0, 0
0, 0
0, 0
0, 0
0, 0
0, 0
0, 0
0, 0
0, 0
0, 0
0, 0
0, 0
0, 0
0, 0
0, 0
0, 0
0, 0
0, 0
0, 0
0, 0
0, 0
0, 0
0, 0
#ENDOFDATA     end of spectrum data