File: host_upload/06-09-2024/ps_0852/dump3/ps__0852shot_2157.msa
#FORMAT      : EMSA/MAS spectral data file
#VERSION     : TC202v2.0 PIXL
#TITLE       : N/A
#DATE        :       Date in the format DD-MMM-YYYY, for example 07-JUL-2010
#TIME        :             The time of day at which the spectrum was recorded, in 24-hour format
#OWNER       : PIXL Flight Model       (PIXL will use this to indicate which instrument took the data.)
#NPOINTS     : 4096     Number of data points in the spectrum (This can be zero for configuration only files)
#NCOLUMNS    : 2     Number of data columns in the spectrum (This can be zero for configuration only files)
#XUNITS      : eV
#YUNITS      : COUNTS
#DATATYPE    : YY
#XPERCHAN    : 7.862, 7.881   eV per channel (separate by commas if more than one detector)
#OFFSET      : 18.5, -22.4         eV of first channel  (separate by commas if more than one detector
#SIGNALTYPE  : XRF
#YP_TEMP     : 2.396
#LIVETIME    : 8.5629, 8.35974   seconds (separate by commas if more than one detector)
#REALTIME    : 10, 10.0   seconds (separate by commas if more than one detector)
#SPECTRUM    : start of spectrum data
0, 0
0, 0
0, 0
0, 0
0, 0
0, 0
0, 0
0, 0
0, 0
0, 0
0, 0
0, 0
0, 0
0, 0
0, 0
0, 0
0, 0
0, 0
0, 0
0, 0
0, 0
0, 0
0, 0
0, 0
0, 0
0, 0
0, 0
0, 0
0, 0
0, 0
1, 0
0, 1
0, 0
1, 0
0, 0
0, 1
0, 1
0, 0
0, 1
1, 3
1, 2
1, 1
3, 2
1, 2
2, 1
1, 0
3, 4
2, 1
3, 8
7, 7
17, 23
12, 24
49, 40
52, 63
47, 57
61, 58
29, 58
32, 31
20, 20
15, 10
5, 9
6, 5
4, 3
4, 6
3, 2
3, 2
3, 6
5, 13
14, 12
23, 38
61, 112
137, 156
203, 240
214, 309
300, 391
316, 354
281, 334
208, 242
140, 183
105, 111
52, 68
35, 37
18, 15
8, 8
3, 12
0, 4
5, 6
3, 1
1, 5
1, 5
4, 7
5, 9
24, 18
26, 24
57, 67
83, 101
125, 163
184, 201
220, 246
195, 237
217, 203
153, 155
99, 124
58, 85
50, 74
27, 34
29, 31
20, 28
23, 32
33, 32
36, 46
45, 65
48, 62
60, 77
69, 80
56, 71
51, 66
36, 58
34, 42
26, 42
36, 27
25, 31
24, 37
18, 33
14, 20
15, 11
11, 17
10, 8
7, 10
6, 5
7, 9
5, 6
6, 1
1, 2
4, 2
4, 2
2, 5
3, 6
3, 2
2, 2
4, 6
2, 6
3, 3
3, 2
2, 3
1, 3
3, 1
2, 1
4, 4
2, 4
12, 5
12, 8
10, 17
24, 32
35, 42
53, 70
74, 75
67, 81
66, 79
69, 57
42, 37
36, 42
21, 16
10, 16
5, 8
3, 3
6, 7
6, 10
9, 10
15, 10
10, 15
9, 11
17, 9
9, 15
11, 13
4, 6
5, 13
4, 12
4, 6
4, 7
3, 4
2, 4
4, 3
4, 3
6, 5
4, 7
5, 6
7, 6
2, 7
7, 13
15, 11
10, 12
13, 26
15, 23
13, 20
10, 29
10, 32
11, 24
13, 33
12, 24
17, 23
9, 16
9, 15
5, 14
8, 12
6, 13
8, 19
7, 19
4, 27
8, 34
11, 29
4, 31
7, 29
12, 32
9, 20
5, 16
8, 18
9, 16
4, 9
5, 12
11, 8
8, 7
7, 8
8, 7
10, 12
7, 7
13, 18
15, 15
15, 22
29, 16
22, 22
30, 17
20, 18
26, 13
18, 15
14, 12
13, 11
10, 9
9, 5
5, 11
5, 11
9, 6
6, 6
10, 24
18, 18
20, 31
13, 29
33, 44
48, 44
42, 63
41, 51
51, 65
55, 57
54, 49
36, 39
30, 31
29, 26
22, 21
16, 15
23, 19
16, 25
32, 35
44, 46
79, 113
126, 200
225, 321
410, 566
687, 987
982, 1445
1333, 1807
1766, 2214
2035, 2377
2185, 2546
2132, 2445
1849, 2052
1570, 1620
1226, 1139
839, 732
564, 417
376, 287
223, 163
110, 79
46, 49
34, 32
23, 27
17, 16
16, 25
27, 21
14, 16
10, 22
21, 22
34, 32
47, 56
67, 79
94, 121
128, 186
180, 239
240, 274
316, 331
284, 393
288, 342
303, 331
271, 283
221, 229
160, 183
117, 92
85, 56
51, 39
32, 31
8, 25
8, 11
7, 9
16, 18
3, 16
13, 20
12, 20
16, 17
22, 19
20, 24
20, 26
39, 29
27, 14
29, 8
35, 10
36, 8
30, 7
34, 6
20, 7
19, 5
19, 7
12, 0
5, 6
7, 3
6, 6
6, 1
5, 6
4, 7
3, 3
0, 4
4, 4
5, 6
5, 4
3, 5
2, 5
7, 9
4, 10
1, 6
3, 3
4, 10
5, 4
4, 2
8, 10
4, 4
4, 8
4, 6
5, 4
3, 4
1, 4
3, 1
2, 4
2, 4
4, 2
3, 10
4, 3
4, 11
8, 2
4, 7
5, 6
2, 7
5, 5
5, 6
3, 2
0, 5
2, 5
1, 5
5, 6
3, 5
4, 7
3, 3
3, 4
2, 5
1, 7
2, 9
0, 7
0, 8
1, 9
2, 9
1, 7
5, 13
3, 7
5, 6
4, 7
2, 6
2, 10
6, 9
4, 4
0, 6
4, 2
2, 3
4, 1
1, 2
2, 3
8, 2
1, 5
4, 5
2, 1
1, 2
3, 6
3, 3
2, 5
3, 4
3, 2
2, 6
2, 1
1, 4
1, 5
5, 4
3, 3
4, 2
4, 1
4, 10
6, 6
3, 4
2, 12
4, 7
4, 3
1, 1
3, 4
3, 5
1, 5
3, 1
3, 12
2, 14
0, 8
3, 22
4, 21
0, 14
4, 26
2, 20
4, 18
3, 36
3, 19
4, 16
2, 18
2, 5
3, 5
1, 8
2, 7
3, 1
8, 3
1, 3
3, 4
4, 3
7, 1
6, 4
10, 2
4, 5
7, 6
5, 0
5, 1
3, 3
2, 2
5, 4
6, 5
5, 1
5, 3
3, 5
4, 2
1, 0
1, 3
6, 2
1, 3
2, 1
2, 2
2, 4
0, 4
4, 3
0, 1
0, 2
3, 2
4, 1
3, 2
2, 1
1, 2
0, 0
2, 1
1, 4
0, 2
1, 2
0, 5
1, 2
2, 1
1, 2
1, 1
4, 2
3, 0
1, 1
5, 1
1, 2
1, 2
1, 4
0, 2
2, 2
1, 0
0, 1
1, 1
2, 1
2, 2
4, 3
1, 0
0, 2
3, 3
2, 2
2, 1
3, 1
1, 3
2, 3
2, 0
1, 1
2, 0
2, 3
3, 0
1, 2
3, 4
3, 2
1, 1
2, 2
3, 0
1, 0
3, 5
4, 3
0, 3
1, 3
1, 4
3, 5
0, 3
2, 1
0, 2
0, 3
3, 2
9, 3
5, 6
2, 3
2, 8
4, 6
1, 7
2, 1
4, 6
1, 7
3, 4
2, 2
0, 1
1, 2
1, 1
2, 0
2, 0
2, 1
0, 1
0, 2
1, 2
0, 1
2, 3
1, 1
1, 2
2, 2
0, 4
2, 1
1, 0
1, 2
3, 1
2, 3
3, 3
3, 1
0, 1
3, 0
1, 3
1, 2
0, 0
0, 2
1, 3
1, 1
0, 1
4, 0
1, 2
1, 2
2, 1
0, 1
2, 0
1, 1
2, 1
0, 1
3, 2
2, 2
0, 0
1, 0
1, 0
1, 1
0, 1
2, 0
1, 0
4, 1
0, 1
0, 2
3, 1
1, 0
0, 1
2, 1
2, 3
1, 0
1, 0
2, 1
1, 2
0, 0
1, 3
1, 1
4, 0
0, 1
2, 0
1, 0
2, 1
0, 0
1, 1
0, 0
0, 1
3, 0
2, 0
1, 0
0, 0
1, 0
0, 3
1, 1
0, 0
0, 0
0, 0
1, 2
2, 0
2, 1
1, 0
1, 2
0, 1
1, 0
0, 0
1, 1
0, 3
1, 0
0, 0
1, 0
0, 2
1, 0
1, 0
0, 0
1, 1
0, 1
0, 0
0, 1
1, 0
1, 1
1, 0
1, 0
0, 1
0, 0
0, 0
0, 0
1, 1
1, 1
0, 1
1, 0
1, 0
1, 0
1, 0
0, 0
1, 0
1, 0
0, 0
0, 1
0, 0
1, 1
0, 0
1, 2
0, 1
0, 0
0, 1
0, 0
0, 1
1, 1
0, 0
0, 0
0, 0
2, 2
0, 0
1, 0
1, 1
0, 0
0, 0
0, 0
0, 0
0, 0
1, 0
1, 1
0, 0
0, 0
0, 0
1, 0
0, 1
0, 1
0, 0
1, 1
0, 0
1, 1
0, 1
0, 1
0, 1
1, 0
0, 2
0, 0
0, 0
0, 1
0, 0
0, 0
1, 0
0, 0
0, 0
0, 0
0, 1
0, 0
0, 1
0, 0
0, 0
3, 0
0, 1
0, 0
0, 2
0, 0
0, 0
1, 0
0, 0
2, 2
0, 0
0, 0
0, 0
0, 1
1, 0
1, 0
0, 0
0, 1
0, 0
0, 0
0, 1
0, 0
1, 0
0, 0
1, 0
0, 0
0, 1
0, 0
0, 1
0, 0
0, 0
0, 0
0, 0
1, 1
0, 0
1, 0
0, 1
0, 1
0, 0
1, 1
0, 0
0, 0
2, 0
0, 0
0, 0
0, 1
1, 0
1, 2
0, 0
1, 0
0, 0
0, 0
0, 1
0, 0
0, 0
0, 0
1, 0
0, 1
0, 0
0, 1
0, 0
1, 0
0, 0
0, 0
0, 0
0, 0
0, 0
0, 0
0, 0
0, 0
1, 0
1, 1
0, 0
0, 0
0, 0
0, 0
0, 0
1, 0
0, 0
1, 0
0, 0
0, 0
1, 0
0, 1
0, 0
0, 0
0, 0
1, 0
0, 0
0, 0
1, 0
0, 1
0, 0
0, 0
0, 0
0, 0
0, 0
0, 0
0, 0
0, 0
0, 0
0, 0
0, 1
0, 0
0, 0
0, 0
0, 0
0, 0
0, 0
0, 0
0, 0
0, 0
1, 1
0, 0
0, 0
0, 0
0, 1
0, 0
0, 0
0, 0
0, 0
0, 0
0, 0
0, 0
0, 2
0, 0
0, 0
0, 0
0, 0
0, 0
0, 0
0, 1
1, 0
0, 0
0, 0
0, 0
0, 0
0, 0
0, 0
0, 0
0, 0
0, 0
0, 0
0, 0
0, 1
0, 0
0, 0
0, 0
1, 0
0, 0
0, 0
0, 0
0, 0
0, 0
0, 0
0, 0
0, 0
0, 0
0, 0
0, 0
0, 0
0, 0
0, 0
0, 0
0, 0
0, 0
0, 0
0, 0
0, 0
0, 0
0, 0
0, 0
0, 0
0, 0
0, 0
0, 0
0, 0
0, 0
0, 0
0, 0
0, 0
0, 0
1, 0
0, 0
0, 0
0, 0
0, 0
0, 0
0, 0
0, 0
0, 0
0, 0
0, 0
0, 0
0, 0
0, 0
1, 0
0, 0
0, 0
0, 0
0, 0
0, 0
0, 0
0, 0
0, 0
0, 0
0, 0
0, 0
0, 0
0, 0
0, 0
0, 0
0, 0
0, 0
1, 0
0, 0
0, 0
0, 0
0, 0
1, 0
0, 0
0, 0
0, 0
0, 0
0, 0
0, 0
0, 0
0, 1
0, 0
0, 0
0, 0
0, 0
0, 0
0, 0
0, 0
0, 0
0, 0
0, 0
0, 0
0, 0
0, 0
0, 0
0, 0
0, 0
0, 0
0, 0
0, 0
0, 0
0, 0
0, 0
0, 0
0, 0
0, 0
0, 0
0, 0
0, 0
0, 0
0, 0
0, 0
0, 0
0, 0
0, 0
0, 0
0, 0
0, 0
0, 0
0, 0
0, 0
0, 0
0, 0
0, 0
0, 0
0, 0
0, 0
0, 0
0, 0
0, 0
0, 0
0, 0
0, 0
0, 0
0, 0
0, 0
0, 0
0, 0
0, 0
0, 0
0, 0
0, 0
0, 0
0, 0
0, 0
0, 0
0, 0
0, 0
0, 0
0, 0
0, 0
0, 0
0, 0
0, 0
0, 0
0, 0
0, 0
0, 0
0, 0
0, 0
0, 0
0, 0
0, 0
0, 0
0, 0
0, 0
0, 0
0, 0
0, 0
0, 0
0, 0
0, 0
0, 0
0, 0
0, 0
0, 0
0, 0
0, 0
0, 0
0, 0
0, 0
0, 0
0, 0
0, 0
0, 0
0, 0
0, 0
0, 0
0, 0
0, 0
0, 0
0, 0
0, 0
0, 0
0, 0
0, 0
0, 0
0, 0
0, 0
0, 0
0, 0
0, 0
0, 0
0, 0
0, 0
0, 0
0, 0
0, 0
0, 0
0, 0
0, 0
0, 0
0, 0
0, 0
0, 0
0, 0
0, 0
0, 0
0, 0
0, 0
0, 0
0, 0
0, 0
0, 0
0, 0
0, 0
0, 0
0, 0
0, 0
0, 0
0, 0
0, 0
0, 0
0, 0
0, 0
0, 0
0, 0
0, 0
0, 0
0, 0
0, 0
0, 0
0, 0
0, 0
0, 0
0, 0
0, 0
0, 0
0, 0
0, 0
0, 0
0, 0
0, 0
0, 0
0, 0
0, 0
0, 0
0, 0
0, 0
0, 0
0, 0
0, 0
0, 0
0, 0
0, 0
0, 0
0, 0
0, 0
0, 0
0, 0
0, 0
0, 0
0, 0
0, 0
0, 0
0, 0
0, 0
0, 0
0, 0
0, 0
0, 0
0, 0
0, 0
0, 0
0, 0
0, 0
0, 0
0, 0
0, 0
0, 0
0, 0
0, 0
0, 0
0, 0
0, 0
0, 0
0, 0
0, 0
0, 0
0, 0
0, 0
0, 0
0, 0
0, 0
0, 0
0, 0
0, 0
0, 0
0, 0
0, 0
0, 0
0, 0
0, 0
0, 0
0, 0
0, 0
0, 0
0, 0
0, 0
0, 0
0, 0
0, 0
0, 0
0, 0
0, 0
0, 0
0, 0
0, 0
0, 0
0, 0
0, 0
0, 0
0, 0
0, 0
0, 0
0, 0
0, 0
0, 0
0, 0
0, 0
0, 0
0, 0
0, 0
0, 0
0, 0
0, 0
0, 0
0, 0
0, 0
0, 0
0, 0
0, 0
0, 0
0, 0
0, 0
0, 0
0, 0
0, 0
0, 0
0, 0
0, 0
0, 0
0, 0
0, 0
0, 0
0, 0
0, 0
0, 0
0, 0
0, 0
0, 0
0, 0
0, 0
0, 0
0, 0
0, 0
0, 0
0, 0
0, 0
0, 0
0, 0
0, 0
0, 0
0, 0
0, 0
0, 0
0, 0
0, 0
0, 0
0, 0
0, 0
0, 0
0, 0
0, 0
0, 0
0, 0
0, 0
0, 0
0, 0
0, 0
0, 0
0, 0
0, 0
0, 0
0, 0
0, 0
0, 0
0, 0
0, 0
0, 0
0, 0
0, 0
0, 0
0, 0
0, 0
0, 0
0, 0
0, 0
0, 0
0, 0
0, 0
0, 0
0, 0
0, 0
0, 0
0, 0
0, 0
0, 0
0, 0
0, 0
0, 0
0, 0
0, 0
0, 0
0, 0
0, 0
0, 0
0, 0
0, 0
0, 0
0, 0
0, 0
0, 0
0, 0
0, 0
0, 0
0, 0
0, 0
0, 0
0, 0
0, 0
0, 0
0, 0
0, 0
0, 0
0, 0
0, 0
0, 0
0, 0
0, 0
0, 0
0, 0
0, 0
0, 0
0, 0
0, 0
0, 0
0, 0
0, 0
0, 0
0, 0
0, 0
0, 0
0, 0
0, 0
0, 0
0, 0
0, 0
0, 0
0, 0
0, 0
0, 0
0, 0
0, 0
0, 0
0, 0
0, 0
0, 0
0, 0
0, 0
0, 0
0, 0
#ENDOFDATA     end of spectrum data