File: host_upload/06-09-2024/ps_0852/dump3/ps__0852shot_2394.msa
#FORMAT      : EMSA/MAS spectral data file
#VERSION     : TC202v2.0 PIXL
#TITLE       : N/A
#DATE        :       Date in the format DD-MMM-YYYY, for example 07-JUL-2010
#TIME        :             The time of day at which the spectrum was recorded, in 24-hour format
#OWNER       : PIXL Flight Model       (PIXL will use this to indicate which instrument took the data.)
#NPOINTS     : 4096     Number of data points in the spectrum (This can be zero for configuration only files)
#NCOLUMNS    : 2     Number of data columns in the spectrum (This can be zero for configuration only files)
#XUNITS      : eV
#YUNITS      : COUNTS
#DATATYPE    : YY
#XPERCHAN    : 7.862, 7.881   eV per channel (separate by commas if more than one detector)
#OFFSET      : 18.5, -22.4         eV of first channel  (separate by commas if more than one detector
#SIGNALTYPE  : XRF
#YP_TEMP     : 2.267
#LIVETIME    : 8.56706, 8.5803   seconds (separate by commas if more than one detector)
#REALTIME    : 10, 10.0   seconds (separate by commas if more than one detector)
#SPECTRUM    : start of spectrum data
0, 0
0, 0
0, 0
0, 0
0, 0
0, 0
0, 0
0, 0
0, 0
0, 0
0, 0
0, 0
0, 0
0, 0
0, 0
0, 0
0, 0
0, 0
0, 0
0, 0
0, 0
0, 0
0, 0
0, 0
0, 0
0, 0
0, 0
0, 0
0, 0
0, 0
0, 0
0, 0
0, 0
0, 0
1, 0
0, 0
0, 0
0, 0
1, 0
1, 1
1, 2
1, 0
0, 1
0, 1
0, 3
3, 3
1, 1
1, 4
2, 10
10, 15
15, 25
42, 43
54, 66
81, 86
63, 94
71, 70
73, 66
48, 51
23, 23
13, 6
15, 10
6, 3
0, 2
4, 4
9, 4
2, 6
6, 5
12, 15
28, 34
42, 55
91, 109
176, 202
263, 287
365, 401
421, 432
447, 443
400, 408
322, 305
199, 210
131, 132
85, 70
40, 33
27, 29
12, 15
8, 5
4, 3
0, 3
0, 2
3, 1
2, 0
0, 0
1, 1
3, 1
3, 3
1, 3
5, 1
2, 2
6, 5
5, 8
8, 4
4, 6
6, 4
5, 3
8, 5
4, 7
5, 5
2, 3
9, 14
14, 13
28, 13
16, 24
29, 24
36, 34
43, 48
50, 44
44, 54
52, 57
46, 32
41, 33
39, 26
28, 24
26, 24
24, 28
20, 18
17, 16
12, 15
16, 13
6, 15
7, 11
6, 8
5, 5
2, 9
3, 0
2, 1
1, 3
4, 2
1, 5
2, 1
1, 1
3, 4
2, 4
2, 3
1, 2
2, 1
1, 3
4, 2
3, 1
2, 3
0, 4
2, 2
4, 2
1, 4
5, 1
12, 8
9, 14
11, 16
14, 16
8, 18
14, 18
13, 26
11, 17
10, 13
4, 9
6, 7
5, 3
7, 4
3, 2
9, 7
4, 8
5, 1
4, 7
4, 4
5, 5
7, 9
3, 5
7, 6
6, 7
4, 7
4, 11
3, 6
4, 7
2, 7
5, 6
2, 8
1, 4
5, 9
7, 8
4, 3
5, 6
8, 6
11, 10
12, 6
12, 5
7, 15
7, 13
14, 10
16, 11
15, 12
14, 17
16, 18
14, 11
14, 10
8, 7
4, 15
4, 10
5, 9
6, 9
4, 13
2, 22
5, 15
5, 29
2, 34
10, 30
5, 47
9, 28
12, 32
7, 24
11, 27
9, 13
8, 15
17, 16
10, 11
9, 9
13, 12
10, 8
13, 12
14, 16
18, 15
17, 30
18, 28
21, 35
24, 26
18, 26
15, 29
18, 24
14, 9
21, 13
22, 12
11, 8
15, 6
11, 12
22, 11
16, 11
21, 7
23, 16
30, 14
31, 40
34, 52
50, 49
40, 59
47, 65
80, 62
58, 71
56, 46
49, 38
40, 36
29, 24
19, 14
13, 18
11, 19
19, 27
26, 39
41, 56
85, 97
167, 208
291, 375
486, 608
761, 1018
1166, 1452
1515, 1903
2037, 2332
2273, 2502
2520, 2560
2409, 2382
2158, 1994
1718, 1579
1310, 1097
914, 764
591, 495
356, 285
193, 143
110, 88
55, 36
30, 27
15, 12
20, 11
15, 17
15, 13
14, 22
25, 24
24, 26
47, 38
56, 49
59, 82
104, 141
139, 186
192, 280
254, 350
292, 324
362, 381
336, 389
349, 339
314, 286
252, 226
182, 168
138, 95
77, 86
58, 50
41, 28
17, 12
14, 19
12, 11
10, 17
12, 15
19, 30
14, 21
25, 31
21, 41
16, 43
10, 36
10, 35
9, 38
11, 36
10, 23
6, 20
5, 26
4, 18
4, 13
8, 8
8, 3
12, 7
11, 2
4, 10
8, 8
7, 2
11, 8
9, 6
10, 4
11, 6
6, 5
7, 3
6, 6
7, 3
12, 5
4, 3
7, 9
6, 4
4, 6
7, 3
4, 9
5, 6
7, 3
3, 5
8, 4
6, 4
6, 2
1, 5
2, 5
6, 7
3, 4
5, 4
3, 4
3, 8
5, 3
9, 4
9, 5
2, 4
4, 3
3, 2
6, 4
4, 3
2, 6
6, 2
9, 2
5, 2
3, 6
5, 5
1, 3
4, 0
2, 8
4, 5
5, 9
6, 4
4, 3
3, 3
5, 4
6, 2
4, 1
7, 3
11, 9
8, 6
6, 6
7, 3
7, 3
7, 3
8, 3
5, 5
7, 0
4, 3
7, 5
0, 3
5, 5
3, 5
3, 4
3, 3
3, 3
4, 5
6, 6
3, 5
5, 9
5, 5
5, 6
5, 4
5, 5
6, 3
3, 3
5, 1
5, 3
7, 4
3, 3
2, 2
5, 7
4, 5
2, 5
2, 2
3, 2
3, 7
0, 6
3, 5
0, 4
3, 7
2, 7
3, 10
2, 9
1, 10
2, 8
7, 10
4, 5
4, 9
2, 9
2, 7
1, 9
1, 2
2, 2
2, 4
6, 6
2, 3
3, 3
4, 2
3, 2
4, 3
2, 2
2, 6
5, 2
6, 3
3, 5
1, 4
3, 4
1, 3
1, 3
6, 3
2, 1
3, 1
1, 3
5, 3
2, 1
5, 2
2, 5
1, 0
1, 4
2, 4
4, 0
0, 1
4, 2
4, 3
5, 1
2, 2
1, 0
3, 1
2, 2
4, 1
6, 1
2, 2
5, 2
1, 0
5, 1
6, 1
1, 1
2, 2
2, 2
1, 1
3, 2
3, 2
0, 1
1, 5
2, 2
3, 3
1, 4
2, 4
2, 1
3, 1
2, 3
3, 2
2, 1
2, 5
1, 0
3, 1
1, 4
4, 0
1, 2
5, 1
2, 1
1, 2
2, 0
3, 1
5, 2
5, 3
0, 3
2, 6
4, 2
1, 3
3, 2
1, 6
2, 1
2, 2
4, 2
3, 3
2, 1
1, 5
2, 2
1, 1
5, 0
6, 1
3, 0
3, 5
5, 3
4, 6
8, 4
7, 5
6, 4
2, 3
7, 4
4, 3
9, 3
6, 7
3, 3
5, 3
2, 2
2, 1
1, 1
0, 5
2, 2
3, 2
1, 1
1, 2
2, 1
0, 3
0, 1
0, 1
2, 3
0, 1
2, 2
5, 2
1, 1
6, 0
4, 3
0, 4
1, 1
3, 2
3, 2
1, 2
2, 3
1, 3
4, 0
3, 3
2, 1
1, 0
2, 1
1, 0
4, 1
0, 2
0, 0
0, 1
0, 3
3, 2
1, 3
0, 1
1, 4
1, 5
1, 3
1, 0
1, 1
1, 3
0, 2
1, 2
0, 1
3, 0
1, 0
1, 1
1, 1
0, 0
1, 2
3, 1
0, 0
2, 3
2, 1
1, 1
2, 1
1, 3
1, 1
0, 0
1, 2
2, 1
1, 1
2, 1
1, 1
1, 1
0, 3
0, 1
0, 1
1, 0
2, 0
0, 0
1, 1
0, 2
1, 0
1, 0
2, 1
2, 1
0, 0
0, 1
2, 2
0, 1
0, 1
0, 0
1, 1
1, 1
2, 1
0, 0
1, 1
0, 1
1, 3
2, 1
0, 0
0, 0
0, 0
1, 0
1, 2
0, 0
1, 0
3, 1
1, 1
1, 0
0, 0
1, 1
0, 1
0, 0
2, 0
0, 0
1, 1
0, 0
1, 1
0, 0
0, 0
1, 0
0, 2
2, 0
0, 1
2, 0
0, 1
1, 0
0, 0
1, 0
0, 0
0, 0
1, 1
1, 1
0, 2
0, 0
1, 3
0, 1
0, 1
0, 2
1, 2
1, 0
0, 1
1, 1
0, 0
0, 0
1, 0
0, 0
2, 1
0, 0
1, 0
0, 0
0, 1
0, 1
0, 0
0, 1
2, 2
0, 0
1, 0
0, 1
1, 1
1, 0
0, 2
1, 0
1, 0
0, 0
0, 0
2, 0
1, 0
0, 2
0, 0
1, 1
0, 0
0, 0
0, 0
0, 0
0, 0
0, 2
0, 0
1, 2
0, 2
1, 1
1, 0
0, 0
1, 0
0, 0
1, 0
0, 0
0, 0
0, 0
0, 0
0, 0
1, 0
0, 0
1, 0
0, 1
0, 1
1, 0
0, 0
1, 0
0, 0
1, 0
0, 0
0, 0
0, 0
1, 0
0, 0
0, 0
0, 0
0, 0
0, 1
0, 0
0, 0
0, 1
0, 0
0, 1
0, 1
1, 0
0, 0
0, 0
0, 1
0, 0
1, 0
0, 1
1, 0
0, 0
0, 1
0, 1
0, 0
0, 0
0, 0
0, 0
0, 0
0, 1
0, 0
0, 0
0, 1
0, 0
1, 0
0, 0
0, 0
0, 1
0, 1
0, 1
0, 0
1, 0
1, 0
1, 0
1, 0
0, 0
0, 0
0, 0
0, 1
1, 0
1, 0
2, 0
0, 1
2, 0
1, 0
0, 0
0, 0
0, 0
1, 0
0, 0
0, 0
0, 0
0, 1
0, 0
0, 0
1, 0
1, 0
0, 0
0, 0
1, 2
0, 1
0, 1
0, 0
0, 0
0, 0
1, 1
0, 0
0, 0
0, 0
0, 0
0, 0
1, 0
0, 0
0, 0
0, 0
0, 0
0, 0
0, 0
0, 0
0, 0
0, 0
0, 0
0, 0
1, 0
1, 0
1, 0
0, 1
1, 0
0, 0
0, 0
1, 0
0, 0
0, 0
0, 0
0, 0
1, 0
0, 1
0, 0
0, 0
1, 0
1, 0
0, 0
0, 0
0, 0
1, 0
0, 0
0, 0
0, 0
0, 0
1, 0
0, 0
0, 0
0, 0
1, 0
1, 0
0, 0
0, 1
0, 0
0, 0
0, 1
0, 0
0, 0
0, 0
0, 0
0, 0
0, 0
0, 0
0, 0
0, 0
0, 0
0, 0
0, 0
0, 0
0, 0
0, 0
0, 0
0, 0
0, 1
0, 0
0, 1
0, 0
0, 0
0, 0
0, 0
0, 0
0, 1
0, 0
0, 0
0, 0
0, 0
0, 0
0, 0
1, 0
0, 0
0, 0
0, 0
0, 0
0, 0
0, 0
0, 0
0, 0
0, 0
0, 0
1, 0
0, 0
0, 0
0, 0
0, 0
0, 0
0, 0
0, 0
0, 0
0, 0
0, 0
0, 0
0, 0
0, 0
0, 0
0, 0
0, 0
0, 0
0, 0
0, 0
0, 0
0, 0
0, 0
0, 0
0, 0
0, 0
0, 0
0, 0
0, 0
0, 0
0, 0
0, 0
0, 0
0, 0
0, 0
0, 0
0, 0
0, 0
0, 0
0, 0
0, 0
0, 0
0, 0
0, 0
0, 0
0, 0
0, 0
0, 0
0, 0
0, 0
0, 0
0, 0
0, 0
0, 0
0, 0
0, 0
0, 0
0, 0
0, 0
0, 0
0, 0
0, 0
0, 0
0, 0
0, 0
0, 0
1, 0
0, 0
0, 0
0, 0
0, 0
0, 0
0, 0
0, 0
0, 0
0, 0
0, 0
0, 0
0, 0
0, 0
0, 0
0, 0
0, 0
0, 0
0, 0
0, 0
0, 0
0, 0
0, 0
0, 0
0, 0
0, 0
0, 0
0, 0
0, 0
0, 0
0, 0
0, 0
0, 0
0, 0
0, 0
0, 0
1, 0
0, 0
0, 0
0, 0
0, 0
0, 0
0, 0
0, 0
0, 0
0, 0
0, 0
0, 0
0, 0
0, 0
0, 0
0, 0
0, 0
0, 0
0, 0
0, 0
0, 0
0, 0
0, 0
0, 0
0, 0
0, 0
0, 0
0, 0
0, 0
0, 0
0, 0
0, 0
0, 0
0, 0
0, 0
0, 0
0, 0
0, 0
0, 0
0, 0
0, 0
0, 0
0, 0
0, 0
0, 0
0, 0
0, 0
0, 0
0, 0
0, 0
0, 0
0, 0
0, 0
0, 0
0, 0
0, 0
0, 0
0, 0
0, 0
0, 0
0, 0
0, 0
0, 0
0, 0
0, 0
0, 0
0, 0
0, 0
0, 0
0, 0
0, 0
0, 0
0, 0
0, 0
0, 0
0, 0
0, 0
0, 0
0, 0
0, 0
0, 0
0, 0
0, 0
0, 0
0, 0
0, 0
0, 0
0, 0
0, 0
0, 0
0, 0
0, 0
0, 0
0, 0
0, 0
0, 0
0, 0
0, 0
0, 0
0, 0
0, 0
0, 0
0, 0
0, 0
0, 0
0, 0
0, 0
0, 0
0, 0
0, 0
0, 0
0, 0
0, 0
0, 0
0, 0
0, 0
0, 0
0, 0
0, 0
0, 0
0, 0
0, 0
0, 0
0, 0
0, 0
0, 0
0, 0
0, 0
0, 0
0, 0
0, 0
0, 0
0, 0
0, 0
0, 0
0, 0
0, 0
0, 0
0, 0
0, 0
0, 0
0, 0
0, 0
0, 0
0, 0
0, 0
0, 0
0, 0
0, 0
0, 0
0, 0
0, 0
0, 0
0, 0
0, 0
0, 0
0, 0
0, 0
0, 0
0, 0
0, 0
0, 0
0, 0
0, 0
0, 0
0, 0
0, 0
0, 0
0, 0
0, 0
0, 0
0, 0
0, 0
0, 0
0, 0
0, 0
0, 0
0, 0
0, 0
0, 0
0, 0
0, 0
0, 0
0, 0
0, 0
0, 0
0, 0
0, 0
0, 0
0, 0
0, 0
0, 0
0, 0
0, 0
0, 0
0, 0
0, 0
0, 0
0, 0
0, 0
0, 0
0, 0
0, 0
0, 0
0, 0
0, 0
0, 0
0, 0
0, 0
0, 0
0, 0
0, 0
0, 0
0, 0
0, 0
0, 0
0, 0
0, 0
0, 0
0, 0
0, 0
0, 0
0, 0
0, 0
0, 0
0, 0
0, 0
0, 0
0, 0
0, 0
0, 0
0, 0
0, 0
0, 0
0, 0
0, 0
0, 0
0, 0
0, 0
0, 0
0, 0
0, 0
0, 0
0, 0
0, 0
0, 0
0, 0
0, 0
0, 0
0, 0
0, 0
0, 0
0, 0
0, 0
0, 0
0, 0
0, 0
0, 0
0, 0
0, 0
0, 0
0, 0
0, 0
0, 0
0, 0
0, 0
0, 0
0, 0
0, 0
0, 0
0, 0
0, 0
0, 0
0, 0
0, 0
0, 0
0, 0
0, 0
0, 0
0, 0
0, 0
0, 0
0, 0
0, 0
0, 0
0, 0
0, 0
0, 0
0, 0
0, 0
0, 0
0, 0
0, 0
0, 0
0, 0
0, 0
0, 0
0, 0
0, 0
0, 0
0, 0
0, 0
0, 0
0, 0
0, 0
0, 0
0, 0
0, 0
0, 0
0, 0
0, 0
0, 0
0, 0
0, 0
0, 0
0, 0
0, 0
0, 0
0, 0
0, 0
0, 0
0, 0
0, 0
0, 0
0, 0
0, 0
0, 0
0, 0
0, 0
0, 0
0, 0
0, 0
0, 0
0, 0
0, 0
0, 0
0, 0
0, 0
0, 0
0, 0
0, 0
0, 0
0, 0
0, 0
#ENDOFDATA     end of spectrum data