File: host_upload/06-09-2024/ps_0852/dump3/ps__0852shot_2208.msa
#FORMAT      : EMSA/MAS spectral data file
#VERSION     : TC202v2.0 PIXL
#TITLE       : N/A
#DATE        :       Date in the format DD-MMM-YYYY, for example 07-JUL-2010
#TIME        :             The time of day at which the spectrum was recorded, in 24-hour format
#OWNER       : PIXL Flight Model       (PIXL will use this to indicate which instrument took the data.)
#NPOINTS     : 4096     Number of data points in the spectrum (This can be zero for configuration only files)
#NCOLUMNS    : 2     Number of data columns in the spectrum (This can be zero for configuration only files)
#XUNITS      : eV
#YUNITS      : COUNTS
#DATATYPE    : YY
#XPERCHAN    : 7.862, 7.881   eV per channel (separate by commas if more than one detector)
#OFFSET      : 18.5, -22.4         eV of first channel  (separate by commas if more than one detector
#SIGNALTYPE  : XRF
#YP_TEMP     : 2.139
#LIVETIME    : 8.55188, 8.58082   seconds (separate by commas if more than one detector)
#REALTIME    : 10, 10.0   seconds (separate by commas if more than one detector)
#SPECTRUM    : start of spectrum data
0, 0
0, 0
0, 0
0, 0
0, 0
0, 0
0, 0
0, 0
0, 0
0, 0
0, 0
0, 0
0, 0
0, 0
0, 0
0, 0
0, 0
0, 0
0, 0
0, 0
0, 0
0, 0
0, 0
0, 0
0, 0
0, 0
0, 0
0, 0
0, 0
0, 0
0, 0
0, 0
0, 0
1, 0
0, 0
0, 0
2, 0
0, 1
0, 1
0, 2
0, 1
0, 1
0, 3
1, 0
2, 0
5, 2
3, 1
3, 4
7, 11
13, 15
25, 21
35, 34
57, 63
83, 68
90, 73
88, 55
84, 41
50, 36
29, 18
17, 10
9, 4
10, 4
4, 2
4, 4
9, 3
3, 3
10, 7
16, 7
21, 30
50, 56
105, 83
191, 168
264, 248
378, 382
424, 413
411, 464
334, 321
286, 281
220, 214
125, 106
72, 65
39, 36
16, 18
11, 8
9, 9
7, 4
5, 4
8, 3
4, 5
7, 2
4, 1
3, 1
4, 2
4, 0
8, 4
15, 2
26, 2
19, 3
20, 2
14, 10
5, 7
10, 6
8, 3
3, 5
5, 1
4, 5
7, 3
17, 14
18, 12
32, 20
31, 18
36, 27
39, 43
46, 45
42, 48
42, 36
42, 25
33, 26
25, 25
29, 24
14, 20
16, 17
24, 17
13, 19
18, 9
26, 12
19, 3
4, 7
8, 8
10, 6
8, 6
2, 4
4, 4
1, 0
4, 2
3, 2
4, 1
2, 2
6, 2
3, 6
3, 4
1, 4
4, 3
2, 4
2, 1
8, 3
2, 1
1, 3
5, 4
2, 2
3, 4
2, 7
9, 8
14, 17
16, 28
24, 25
34, 32
31, 29
34, 27
24, 26
28, 15
16, 15
17, 5
10, 7
8, 5
3, 3
3, 2
5, 6
5, 7
7, 5
6, 8
6, 11
9, 4
9, 1
8, 5
5, 2
6, 4
7, 3
8, 4
7, 4
1, 5
7, 1
10, 0
13, 3
8, 2
10, 3
10, 5
11, 4
9, 8
14, 6
7, 6
15, 7
18, 8
17, 18
14, 19
16, 9
17, 9
12, 12
25, 19
13, 13
10, 7
15, 7
5, 5
11, 4
11, 7
10, 5
6, 3
18, 7
16, 6
35, 6
46, 14
43, 2
39, 6
39, 7
44, 2
47, 4
38, 6
15, 4
17, 5
8, 4
7, 7
9, 7
7, 6
6, 8
7, 11
0, 22
13, 27
7, 24
12, 37
19, 56
8, 54
20, 41
15, 35
18, 36
10, 34
23, 26
11, 23
11, 13
8, 10
8, 6
13, 10
7, 10
15, 15
16, 15
34, 15
31, 21
33, 25
46, 32
65, 54
58, 52
63, 53
69, 62
68, 49
54, 55
52, 34
45, 25
24, 22
18, 20
15, 12
7, 19
20, 28
25, 34
35, 50
98, 108
155, 179
258, 321
486, 649
772, 915
1127, 1342
1551, 1741
2041, 2141
2300, 2330
2499, 2413
2405, 2205
2121, 1957
1675, 1577
1334, 1110
941, 832
590, 489
387, 308
217, 152
126, 99
61, 42
37, 35
24, 17
18, 18
20, 12
23, 16
20, 19
14, 19
22, 30
38, 35
57, 38
64, 92
91, 103
158, 180
201, 220
264, 327
323, 287
357, 334
346, 344
362, 299
329, 251
247, 198
175, 151
117, 97
90, 52
60, 35
38, 20
18, 11
17, 9
11, 8
15, 5
8, 12
22, 12
33, 19
39, 15
37, 11
39, 13
34, 19
39, 9
43, 5
41, 8
26, 6
29, 7
17, 6
15, 4
15, 2
7, 1
2, 4
6, 2
5, 6
3, 8
1, 5
2, 5
7, 6
7, 5
1, 6
4, 4
4, 1
4, 6
0, 3
4, 4
4, 10
4, 12
4, 3
4, 6
3, 4
2, 9
7, 5
6, 4
10, 7
5, 3
6, 5
4, 7
7, 6
6, 2
5, 4
3, 3
6, 3
4, 3
2, 1
1, 4
13, 7
3, 7
0, 10
6, 7
3, 5
5, 2
9, 6
9, 5
4, 5
6, 14
6, 9
2, 5
2, 6
2, 4
6, 3
4, 9
5, 3
6, 6
5, 4
7, 7
5, 11
5, 7
7, 5
9, 5
4, 5
13, 2
6, 4
9, 0
5, 1
9, 3
5, 4
8, 3
9, 1
5, 4
5, 2
5, 5
7, 2
1, 4
4, 6
3, 3
0, 5
2, 3
4, 2
0, 5
3, 4
5, 5
2, 7
2, 2
1, 4
3, 5
3, 8
2, 5
6, 7
3, 2
3, 1
3, 6
2, 4
5, 4
4, 2
7, 3
1, 2
8, 4
2, 5
4, 5
1, 1
6, 3
3, 4
1, 0
1, 6
4, 3
1, 6
3, 5
5, 4
3, 4
3, 3
5, 2
5, 2
3, 5
1, 2
0, 1
1, 4
4, 3
2, 2
1, 5
3, 0
2, 3
2, 3
4, 5
1, 3
0, 1
2, 7
0, 5
1, 6
2, 6
1, 4
3, 8
1, 7
2, 7
4, 8
2, 4
2, 6
1, 5
2, 4
2, 3
0, 3
1, 4
1, 2
0, 0
5, 5
3, 4
4, 1
0, 2
0, 3
4, 2
2, 4
2, 4
2, 3
1, 1
2, 3
1, 0
2, 2
0, 5
3, 0
2, 1
4, 2
1, 3
2, 4
1, 1
4, 1
1, 3
2, 3
3, 2
2, 3
5, 0
2, 1
2, 4
5, 4
2, 1
4, 3
2, 3
2, 4
0, 2
1, 3
3, 1
2, 6
2, 4
3, 1
4, 1
0, 2
2, 3
1, 0
1, 1
0, 0
1, 1
3, 1
2, 0
2, 0
2, 3
1, 3
3, 0
1, 4
0, 1
2, 1
2, 0
1, 2
3, 4
1, 0
0, 0
1, 2
0, 1
4, 2
2, 3
2, 2
7, 7
4, 1
2, 1
2, 3
3, 5
1, 0
6, 7
5, 3
0, 5
3, 4
7, 2
5, 11
8, 5
1, 5
0, 5
2, 6
2, 6
2, 7
4, 3
2, 1
0, 1
2, 1
1, 2
1, 0
3, 0
3, 1
1, 1
4, 1
0, 0
1, 3
1, 3
4, 3
4, 1
2, 0
1, 0
3, 0
3, 7
3, 4
1, 2
4, 1
3, 1
2, 5
1, 1
0, 0
0, 3
0, 0
1, 0
0, 1
3, 0
1, 0
2, 0
0, 2
1, 2
0, 1
0, 2
0, 2
1, 2
1, 0
1, 0
1, 1
0, 1
1, 2
1, 0
0, 2
1, 1
3, 2
0, 0
2, 0
0, 1
3, 1
2, 0
1, 3
2, 2
1, 1
1, 1
0, 3
0, 3
1, 1
1, 1
1, 0
1, 1
0, 1
1, 0
1, 1
2, 0
1, 1
1, 1
1, 0
0, 2
2, 2
1, 0
0, 0
1, 0
1, 0
1, 0
2, 1
0, 0
1, 0
2, 0
1, 1
2, 0
1, 0
2, 1
0, 2
1, 1
1, 0
2, 3
1, 1
0, 0
0, 0
0, 1
2, 2
0, 0
1, 0
0, 1
0, 0
2, 1
0, 0
2, 0
1, 0
2, 1
0, 0
0, 1
1, 0
0, 0
0, 0
3, 0
0, 0
0, 1
0, 0
1, 1
2, 0
0, 1
0, 1
1, 0
1, 0
0, 0
1, 0
0, 2
1, 1
1, 1
3, 1
0, 1
0, 0
1, 1
0, 0
2, 2
0, 0
1, 0
0, 1
0, 0
1, 2
0, 0
1, 0
0, 0
1, 0
2, 0
0, 1
1, 2
0, 0
0, 0
0, 0
1, 0
1, 1
0, 1
0, 0
0, 0
1, 0
0, 0
1, 1
0, 0
0, 1
2, 0
2, 1
1, 1
0, 0
0, 0
0, 0
0, 2
0, 1
1, 2
0, 1
0, 0
0, 0
0, 0
0, 0
0, 2
0, 0
0, 0
1, 1
0, 0
0, 0
1, 0
0, 0
0, 0
1, 0
0, 0
0, 0
0, 0
0, 1
1, 0
0, 0
0, 0
1, 0
2, 0
0, 0
1, 0
0, 1
0, 0
1, 0
0, 0
0, 0
0, 0
1, 0
0, 0
0, 0
0, 0
0, 0
0, 0
0, 1
0, 0
0, 0
0, 0
0, 0
0, 1
0, 0
0, 0
0, 0
0, 0
0, 0
0, 1
0, 0
0, 0
1, 1
1, 0
0, 0
0, 0
0, 0
0, 0
0, 0
0, 0
0, 0
0, 0
0, 0
0, 0
1, 0
0, 0
0, 0
0, 1
0, 0
1, 0
0, 0
1, 1
0, 1
0, 0
0, 1
0, 0
0, 0
0, 0
0, 0
0, 0
0, 1
0, 0
0, 0
0, 0
0, 0
0, 0
0, 0
1, 0
0, 0
2, 0
0, 0
0, 0
0, 0
1, 0
0, 0
0, 0
2, 0
0, 0
0, 0
0, 0
0, 0
0, 0
0, 0
0, 0
1, 0
0, 1
0, 0
0, 0
0, 0
0, 0
0, 0
0, 0
0, 0
0, 0
0, 0
0, 0
0, 0
0, 0
1, 0
0, 1
0, 0
0, 0
0, 1
0, 0
0, 0
0, 0
0, 0
2, 0
0, 2
0, 1
0, 0
0, 0
0, 1
0, 0
0, 0
0, 0
1, 0
0, 0
0, 0
0, 1
0, 0
0, 0
0, 0
0, 0
0, 0
0, 0
0, 0
0, 0
0, 0
0, 0
0, 0
1, 0
0, 0
0, 0
0, 0
1, 0
0, 0
0, 0
0, 0
0, 1
0, 0
0, 0
0, 0
0, 0
0, 0
1, 0
1, 0
1, 0
0, 0
0, 0
0, 0
0, 0
0, 0
0, 0
0, 0
0, 0
0, 0
0, 0
0, 0
0, 0
0, 0
0, 0
0, 0
0, 0
0, 0
0, 0
0, 0
1, 0
0, 0
0, 0
0, 1
0, 0
0, 0
0, 0
0, 0
0, 0
0, 0
0, 0
0, 0
0, 0
0, 0
0, 0
0, 0
0, 0
0, 0
0, 0
0, 0
0, 0
1, 0
0, 0
0, 1
1, 0
0, 0
0, 0
0, 0
0, 0
0, 0
0, 0
0, 0
0, 0
0, 0
0, 0
0, 0
0, 0
0, 0
0, 0
0, 0
0, 0
0, 0
0, 0
0, 0
0, 0
0, 0
0, 0
0, 0
0, 0
0, 0
0, 0
0, 0
0, 0
0, 0
0, 0
0, 0
0, 0
0, 0
0, 0
0, 1
0, 0
1, 0
0, 0
0, 0
0, 0
0, 0
0, 0
0, 0
0, 0
0, 0
0, 0
0, 0
0, 0
0, 0
0, 0
0, 0
0, 0
0, 0
0, 0
0, 0
0, 1
0, 0
0, 0
0, 0
0, 0
0, 0
0, 0
0, 0
0, 0
0, 0
0, 0
0, 0
0, 0
0, 0
0, 0
0, 0
0, 0
0, 0
0, 0
0, 0
0, 0
0, 0
0, 0
0, 0
0, 0
0, 0
0, 0
0, 0
0, 0
0, 0
0, 0
0, 0
0, 0
0, 0
0, 0
0, 0
0, 0
0, 0
0, 0
0, 0
0, 0
0, 0
0, 0
0, 0
0, 0
0, 0
0, 0
0, 0
0, 0
0, 0
0, 0
0, 0
0, 0
0, 0
0, 0
0, 0
0, 0
0, 0
0, 0
0, 0
0, 0
0, 0
0, 0
0, 0
0, 0
0, 0
0, 0
0, 1
0, 0
0, 0
0, 0
0, 0
0, 0
0, 0
0, 0
0, 0
0, 0
0, 0
0, 0
0, 0
0, 0
0, 0
0, 0
0, 0
0, 0
0, 0
0, 0
0, 0
0, 0
0, 0
0, 0
0, 0
0, 0
0, 0
0, 0
0, 0
0, 0
0, 0
0, 0
0, 0
0, 0
0, 0
0, 0
0, 0
0, 0
0, 0
0, 0
0, 0
0, 0
0, 0
0, 0
0, 0
0, 0
0, 0
0, 0
0, 0
0, 0
0, 0
0, 0
0, 0
0, 0
0, 0
0, 0
0, 0
0, 0
0, 0
0, 0
0, 0
0, 0
0, 0
0, 0
0, 0
0, 0
0, 0
0, 0
0, 0
0, 0
0, 0
0, 0
0, 0
0, 0
0, 0
0, 0
0, 0
0, 0
0, 0
0, 0
0, 0
0, 0
0, 0
0, 0
0, 0
0, 0
0, 0
0, 0
0, 0
0, 0
0, 0
0, 0
0, 0
0, 0
0, 0
0, 0
0, 0
0, 0
0, 0
0, 0
0, 0
0, 0
0, 0
0, 0
0, 0
0, 0
0, 0
0, 0
0, 0
0, 0
0, 0
0, 0
0, 0
0, 0
0, 0
0, 0
0, 0
0, 0
0, 0
0, 0
0, 0
0, 0
0, 0
0, 0
0, 0
0, 0
0, 0
0, 0
0, 0
0, 0
0, 0
0, 0
0, 0
0, 0
0, 0
0, 0
0, 0
0, 0
0, 0
0, 0
0, 0
0, 0
0, 0
0, 0
0, 0
0, 0
0, 0
0, 0
0, 0
0, 0
0, 0
0, 0
0, 0
0, 0
0, 0
0, 0
0, 0
0, 0
0, 0
0, 0
0, 0
0, 0
0, 0
0, 0
0, 0
0, 0
0, 0
0, 0
0, 0
0, 0
0, 0
0, 0
0, 0
0, 0
0, 0
0, 0
0, 0
0, 0
0, 0
0, 0
0, 0
0, 0
0, 0
0, 0
0, 0
0, 0
0, 0
0, 0
0, 0
0, 0
0, 0
0, 0
0, 0
0, 0
0, 0
0, 0
0, 0
0, 0
0, 0
0, 0
0, 0
0, 0
0, 0
0, 0
0, 0
0, 0
0, 0
0, 0
0, 0
0, 0
0, 0
0, 0
0, 0
0, 0
0, 0
0, 0
0, 0
0, 0
0, 0
0, 0
0, 0
0, 0
0, 0
0, 0
0, 0
0, 0
0, 0
0, 0
0, 0
0, 0
0, 0
0, 0
0, 0
0, 0
0, 0
0, 0
0, 0
0, 0
0, 0
0, 0
0, 0
0, 0
0, 0
0, 0
0, 0
0, 0
0, 0
0, 0
0, 0
0, 0
0, 0
0, 0
0, 0
0, 0
0, 0
0, 0
0, 0
0, 0
0, 0
0, 0
0, 0
0, 0
0, 0
0, 0
0, 0
0, 0
0, 0
0, 0
0, 0
0, 0
0, 0
0, 0
0, 0
0, 0
0, 0
0, 0
0, 0
0, 0
0, 0
0, 0
0, 0
0, 0
0, 0
0, 0
0, 0
0, 0
0, 0
0, 0
0, 0
0, 0
0, 0
0, 0
0, 0
0, 0
0, 0
0, 0
0, 0
0, 0
0, 0
0, 0
0, 0
0, 0
0, 0
0, 0
0, 0
0, 0
0, 0
0, 0
0, 0
0, 0
0, 0
0, 0
0, 0
0, 0
0, 0
#ENDOFDATA     end of spectrum data