File: host_upload/06-09-2024/ps_0852/dump3/ps__0852shot_2539.msa
#FORMAT      : EMSA/MAS spectral data file
#VERSION     : TC202v2.0 PIXL
#TITLE       : N/A
#DATE        :       Date in the format DD-MMM-YYYY, for example 07-JUL-2010
#TIME        :             The time of day at which the spectrum was recorded, in 24-hour format
#OWNER       : PIXL Flight Model       (PIXL will use this to indicate which instrument took the data.)
#NPOINTS     : 4096     Number of data points in the spectrum (This can be zero for configuration only files)
#NCOLUMNS    : 2     Number of data columns in the spectrum (This can be zero for configuration only files)
#XUNITS      : eV
#YUNITS      : COUNTS
#DATATYPE    : YY
#XPERCHAN    : 7.862, 7.881   eV per channel (separate by commas if more than one detector)
#OFFSET      : 18.5, -22.4         eV of first channel  (separate by commas if more than one detector
#SIGNALTYPE  : XRF
#YP_TEMP     : 1.947
#LIVETIME    : 8.5673, 8.55777   seconds (separate by commas if more than one detector)
#REALTIME    : 10, 10.0   seconds (separate by commas if more than one detector)
#SPECTRUM    : start of spectrum data
0, 0
0, 0
0, 0
0, 0
0, 0
0, 0
0, 0
0, 0
0, 0
0, 0
0, 0
0, 0
0, 0
0, 0
0, 0
0, 0
0, 0
0, 0
0, 0
0, 0
0, 0
0, 0
0, 0
0, 0
0, 0
0, 0
0, 0
0, 0
0, 0
0, 0
0, 0
0, 1
0, 1
0, 0
0, 3
2, 2
0, 9
0, 7
1, 24
1, 22
2, 32
1, 35
0, 40
1, 34
3, 26
1, 8
3, 11
4, 7
4, 5
10, 19
24, 36
42, 49
61, 65
75, 79
88, 85
65, 80
64, 64
47, 54
26, 25
18, 18
7, 13
6, 5
4, 3
2, 5
5, 7
3, 5
4, 4
7, 13
23, 28
43, 58
88, 111
145, 167
242, 263
376, 400
413, 430
437, 431
352, 361
305, 284
178, 187
98, 117
63, 60
34, 49
17, 22
7, 7
5, 4
5, 3
1, 2
0, 3
3, 4
0, 2
1, 2
3, 1
1, 4
3, 2
1, 6
1, 3
1, 6
5, 4
6, 6
3, 7
3, 5
6, 5
4, 5
1, 7
2, 8
3, 6
7, 27
5, 41
5, 103
9, 255
15, 529
18, 895
36, 1394
57, 2044
44, 2450
55, 2662
56, 2412
42, 1976
46, 1472
28, 940
28, 536
16, 291
29, 143
16, 75
14, 27
14, 24
9, 8
12, 14
5, 10
3, 3
5, 5
5, 5
4, 9
2, 2
2, 2
2, 3
0, 3
0, 0
2, 0
1, 4
3, 1
0, 2
1, 2
3, 2
0, 3
1, 1
3, 2
1, 3
0, 3
3, 2
1, 4
2, 6
4, 7
4, 11
9, 17
13, 15
18, 29
29, 26
20, 12
16, 15
14, 14
8, 7
6, 11
5, 6
4, 5
9, 6
8, 14
7, 19
7, 34
2, 28
8, 28
11, 34
9, 20
4, 25
6, 19
6, 8
2, 16
5, 2
5, 8
2, 5
6, 4
3, 6
2, 1
4, 6
6, 5
2, 5
4, 4
2, 11
4, 13
7, 10
6, 6
5, 19
11, 9
10, 13
8, 14
10, 11
7, 20
18, 16
14, 14
10, 15
12, 15
9, 9
8, 7
10, 8
10, 5
9, 8
4, 1
5, 3
6, 13
5, 3
10, 12
6, 4
7, 10
10, 4
5, 9
7, 1
4, 3
3, 5
4, 2
6, 4
10, 5
9, 6
12, 7
14, 6
15, 12
25, 19
18, 22
19, 23
23, 24
20, 21
31, 21
22, 22
13, 20
14, 18
16, 15
11, 13
12, 12
7, 12
10, 8
6, 5
9, 6
7, 7
5, 4
12, 16
7, 17
11, 20
32, 40
31, 35
37, 58
61, 68
49, 71
49, 67
59, 54
51, 40
43, 40
39, 23
34, 20
15, 20
14, 17
11, 19
10, 17
20, 27
29, 61
65, 96
141, 211
248, 371
456, 596
689, 948
1076, 1386
1533, 1856
1921, 2234
2241, 2575
2285, 2447
2323, 2382
1982, 1973
1731, 1494
1263, 1074
824, 742
575, 427
323, 255
176, 158
95, 92
73, 61
55, 35
36, 30
20, 34
22, 59
28, 36
29, 34
23, 59
23, 43
22, 58
47, 57
66, 96
78, 117
130, 184
196, 221
255, 297
310, 349
345, 367
378, 364
319, 319
300, 288
217, 237
182, 164
134, 99
75, 65
51, 38
33, 20
17, 9
11, 9
6, 9
7, 5
2, 9
6, 9
4, 12
8, 16
15, 11
13, 16
14, 11
11, 11
6, 8
10, 7
8, 8
7, 7
2, 8
3, 4
3, 3
3, 4
4, 3
5, 3
4, 3
3, 5
3, 4
7, 4
5, 3
5, 2
6, 6
9, 7
9, 8
9, 6
13, 7
18, 3
19, 8
10, 4
16, 11
13, 9
22, 9
16, 12
13, 5
11, 9
6, 7
5, 7
1, 4
7, 8
3, 10
3, 8
4, 1
3, 2
3, 4
4, 1
3, 4
3, 1
2, 6
1, 1
5, 6
2, 4
3, 4
5, 2
2, 5
2, 3
6, 5
3, 6
4, 1
0, 3
2, 5
2, 3
3, 3
3, 3
2, 3
5, 10
4, 10
4, 4
5, 12
7, 16
3, 7
2, 6
2, 5
3, 10
5, 5
5, 8
7, 9
5, 6
11, 1
8, 4
6, 4
5, 2
7, 7
5, 6
3, 7
11, 3
4, 4
3, 3
7, 3
3, 2
4, 4
2, 8
4, 2
6, 3
7, 4
5, 6
5, 7
3, 3
5, 3
1, 1
4, 4
5, 5
4, 3
3, 2
1, 5
2, 3
5, 4
1, 4
7, 5
4, 2
3, 1
3, 0
5, 4
2, 4
3, 3
2, 5
4, 3
2, 2
3, 1
3, 5
1, 5
0, 4
2, 2
4, 3
1, 1
3, 3
4, 1
2, 3
2, 2
0, 6
3, 4
5, 5
5, 1
3, 5
7, 1
3, 2
6, 2
5, 7
5, 8
6, 4
3, 4
4, 11
7, 6
5, 5
6, 5
6, 5
3, 11
2, 4
5, 8
4, 2
2, 6
1, 6
2, 5
1, 0
0, 4
1, 4
2, 2
1, 5
2, 4
0, 3
4, 1
1, 4
2, 0
0, 3
5, 6
0, 0
2, 2
3, 0
1, 0
2, 2
1, 5
2, 1
0, 1
4, 3
1, 4
1, 2
1, 2
1, 1
3, 0
1, 0
0, 2
1, 0
2, 6
1, 1
4, 4
3, 1
2, 2
1, 1
2, 1
1, 3
5, 3
1, 5
0, 1
1, 2
1, 2
1, 8
1, 5
0, 3
1, 5
2, 2
1, 5
2, 0
0, 6
3, 4
3, 3
1, 2
2, 3
2, 2
1, 6
2, 5
2, 4
1, 4
2, 1
2, 2
0, 1
1, 1
1, 2
0, 4
2, 6
3, 4
2, 3
1, 3
2, 3
2, 2
1, 7
3, 4
5, 3
7, 3
1, 6
2, 4
5, 5
2, 5
2, 6
2, 8
3, 4
2, 0
2, 2
1, 0
1, 1
4, 0
4, 1
2, 1
1, 2
1, 1
1, 4
0, 0
0, 1
2, 5
0, 4
4, 1
0, 2
0, 2
1, 5
0, 7
1, 2
2, 4
0, 1
5, 1
3, 4
1, 2
0, 1
2, 1
3, 1
1, 0
2, 0
0, 0
0, 0
1, 2
0, 1
1, 1
1, 3
0, 1
0, 1
2, 2
1, 0
0, 0
1, 1
1, 0
1, 1
1, 1
0, 1
1, 1
1, 4
1, 0
1, 0
3, 2
1, 0
0, 0
1, 1
0, 0
2, 0
0, 1
1, 1
0, 0
1, 1
1, 2
0, 0
0, 1
0, 3
1, 1
0, 0
1, 0
0, 1
1, 0
2, 1
1, 2
2, 0
0, 1
1, 0
0, 0
2, 1
1, 2
0, 0
2, 0
4, 0
0, 1
1, 1
0, 1
1, 2
1, 0
1, 0
2, 1
0, 1
2, 0
1, 2
0, 0
0, 1
0, 0
1, 1
1, 0
2, 0
0, 0
1, 0
0, 0
0, 0
3, 0
2, 1
0, 1
0, 1
1, 0
0, 0
3, 0
0, 0
0, 1
1, 0
0, 0
1, 0
0, 2
1, 0
0, 1
0, 1
0, 0
0, 0
1, 0
1, 0
1, 0
0, 0
0, 2
0, 1
0, 0
1, 1
2, 0
0, 0
1, 0
0, 2
0, 1
0, 0
0, 0
1, 0
0, 1
0, 1
1, 0
0, 0
1, 0
1, 0
1, 0
0, 1
1, 0
0, 0
1, 2
0, 1
0, 0
1, 0
1, 1
0, 0
1, 1
0, 0
0, 1
0, 0
0, 0
1, 1
0, 0
0, 0
1, 0
1, 0
0, 0
1, 1
0, 0
0, 0
1, 1
0, 0
0, 0
0, 0
0, 0
0, 0
0, 0
0, 0
0, 0
0, 0
0, 0
0, 0
0, 0
0, 0
0, 0
0, 1
0, 0
0, 0
0, 0
0, 1
0, 0
0, 0
0, 2
1, 0
0, 1
0, 0
0, 0
0, 1
0, 0
0, 0
0, 2
0, 0
0, 1
1, 0
0, 0
0, 0
1, 0
0, 0
0, 2
0, 1
0, 0
0, 0
0, 2
1, 0
0, 0
0, 0
0, 0
0, 0
0, 0
1, 0
0, 0
0, 0
0, 1
0, 0
0, 0
1, 0
0, 1
0, 2
0, 0
0, 0
0, 0
1, 0
0, 0
0, 1
0, 1
0, 0
0, 0
0, 1
1, 0
0, 1
0, 0
1, 0
0, 0
0, 2
0, 0
0, 0
0, 0
0, 0
0, 1
0, 1
0, 0
0, 0
0, 0
0, 0
0, 0
0, 1
0, 0
0, 0
0, 0
0, 1
0, 0
0, 0
0, 1
0, 0
0, 0
0, 0
0, 1
2, 1
0, 0
0, 0
0, 0
0, 0
0, 0
1, 0
0, 0
0, 0
0, 0
0, 0
0, 0
0, 0
0, 1
1, 0
0, 0
0, 0
0, 0
1, 0
0, 0
0, 0
0, 0
0, 1
0, 1
0, 0
0, 0
0, 0
0, 1
0, 0
1, 0
0, 0
0, 0
0, 0
0, 0
0, 0
0, 0
0, 0
0, 0
0, 0
0, 0
0, 0
0, 0
0, 0
0, 0
0, 0
0, 0
0, 0
0, 0
0, 0
0, 0
0, 0
0, 0
0, 0
0, 0
0, 0
0, 0
2, 0
0, 0
0, 0
0, 0
0, 0
0, 1
0, 0
0, 0
0, 0
0, 0
0, 0
0, 0
0, 0
0, 0
0, 0
0, 0
0, 1
0, 0
0, 0
0, 0
0, 0
0, 0
0, 0
0, 0
0, 0
0, 0
0, 0
0, 1
0, 0
0, 0
0, 0
0, 0
0, 0
0, 0
0, 0
0, 0
0, 0
0, 0
0, 0
0, 0
0, 0
0, 0
0, 0
0, 0
1, 0
0, 0
0, 0
0, 0
1, 1
0, 0
0, 0
0, 0
0, 0
0, 0
1, 0
0, 0
0, 0
0, 0
0, 0
0, 0
0, 1
0, 0
0, 0
0, 0
0, 0
0, 0
0, 0
0, 0
0, 0
0, 0
0, 0
0, 0
0, 0
0, 0
0, 0
0, 0
0, 0
0, 0
0, 0
0, 0
0, 0
0, 0
0, 0
0, 0
0, 0
0, 0
0, 0
0, 0
0, 0
0, 0
1, 0
1, 0
0, 0
0, 0
0, 0
0, 0
0, 0
0, 0
0, 0
0, 0
0, 0
0, 0
0, 0
0, 0
0, 0
0, 0
0, 0
0, 0
0, 0
0, 0
0, 0
0, 0
0, 0
0, 0
0, 0
0, 0
0, 0
0, 0
0, 0
0, 0
0, 0
0, 0
0, 0
0, 0
0, 0
0, 0
0, 0
0, 0
0, 0
0, 0
0, 0
0, 0
0, 0
0, 0
0, 0
0, 0
0, 0
0, 0
0, 0
0, 0
0, 0
0, 0
0, 0
0, 0
0, 0
0, 0
0, 0
0, 0
0, 0
0, 0
0, 0
0, 0
0, 0
0, 0
0, 0
0, 0
0, 0
0, 0
0, 0
0, 0
0, 0
0, 0
0, 0
0, 0
0, 0
0, 0
0, 0
0, 0
0, 0
0, 0
0, 0
0, 0
0, 0
0, 0
0, 0
0, 0
0, 0
0, 0
0, 0
0, 0
0, 0
0, 0
0, 0
0, 0
0, 0
0, 0
0, 0
0, 0
0, 0
0, 0
0, 0
0, 0
0, 0
0, 0
0, 0
0, 0
0, 0
0, 0
0, 0
0, 0
0, 0
0, 0
0, 0
0, 0
0, 0
0, 0
0, 0
0, 0
0, 0
0, 0
0, 0
0, 0
0, 0
0, 0
0, 0
0, 0
0, 0
0, 0
0, 0
0, 0
0, 0
0, 0
0, 0
0, 0
0, 0
0, 0
0, 0
0, 0
0, 0
0, 0
0, 0
0, 0
0, 0
0, 0
0, 0
0, 0
0, 0
0, 0
0, 0
0, 0
0, 0
0, 0
0, 0
0, 0
0, 0
0, 0
0, 0
0, 0
0, 0
0, 0
0, 0
0, 0
0, 0
0, 0
0, 0
0, 0
0, 0
0, 0
0, 0
0, 0
0, 0
0, 0
0, 0
0, 0
0, 0
0, 0
0, 0
0, 0
0, 0
0, 0
0, 0
0, 0
0, 0
0, 0
0, 0
0, 0
0, 0
0, 0
0, 0
0, 0
0, 0
0, 0
0, 0
0, 0
0, 0
0, 0
0, 0
0, 0
0, 0
0, 0
0, 0
0, 0
0, 0
0, 0
0, 0
0, 0
0, 0
0, 0
0, 0
0, 0
0, 0
0, 0
0, 0
0, 0
0, 0
0, 0
0, 0
0, 0
0, 0
0, 0
0, 0
0, 0
0, 0
0, 0
0, 0
0, 0
0, 0
0, 0
0, 0
0, 0
0, 0
0, 0
0, 0
0, 0
0, 0
0, 0
0, 0
0, 0
0, 0
0, 0
0, 0
0, 0
0, 0
0, 0
0, 0
0, 0
0, 0
0, 0
0, 0
0, 0
0, 0
0, 0
0, 0
0, 0
0, 0
0, 0
0, 0
0, 0
0, 0
0, 0
0, 0
0, 0
0, 0
0, 0
0, 0
0, 0
0, 0
0, 0
0, 0
0, 0
0, 0
0, 0
0, 0
0, 0
0, 0
0, 0
0, 0
0, 0
0, 0
0, 0
0, 0
0, 0
0, 0
0, 0
0, 0
0, 0
0, 0
0, 0
0, 0
0, 0
0, 0
0, 0
0, 0
0, 0
0, 0
0, 0
0, 0
0, 0
0, 0
0, 0
0, 0
0, 0
0, 0
0, 0
0, 0
0, 0
0, 0
0, 0
0, 0
0, 0
0, 0
0, 0
0, 0
0, 0
0, 0
0, 0
0, 0
0, 0
0, 0
0, 0
0, 0
0, 0
0, 0
0, 0
0, 0
0, 0
0, 0
0, 0
0, 0
0, 0
0, 0
0, 0
0, 0
0, 0
0, 0
0, 0
0, 0
0, 0
0, 0
0, 0
0, 0
0, 0
0, 0
0, 0
0, 0
0, 0
0, 0
0, 0
0, 0
0, 0
0, 0
0, 0
0, 0
0, 0
0, 0
0, 0
0, 0
0, 0
0, 0
0, 0
0, 0
0, 0
0, 0
0, 0
0, 0
0, 0
0, 0
0, 0
0, 0
0, 0
0, 0
0, 0
0, 0
0, 0
0, 0
0, 0
0, 0
0, 0
0, 0
0, 0
0, 0
0, 0
0, 0
0, 0
0, 0
0, 0
0, 0
0, 0
0, 0
0, 0
0, 0
0, 0
0, 0
0, 0
0, 0
0, 0
0, 0
0, 0
0, 0
0, 0
0, 0
0, 0
0, 0
0, 0
0, 0
0, 0
0, 0
0, 0
0, 0
#ENDOFDATA     end of spectrum data