File: host_upload/06-09-2024/ps_0852/dump3/ps__0852shot_2231.msa
#FORMAT      : EMSA/MAS spectral data file
#VERSION     : TC202v2.0 PIXL
#TITLE       : N/A
#DATE        :       Date in the format DD-MMM-YYYY, for example 07-JUL-2010
#TIME        :             The time of day at which the spectrum was recorded, in 24-hour format
#OWNER       : PIXL Flight Model       (PIXL will use this to indicate which instrument took the data.)
#NPOINTS     : 4096     Number of data points in the spectrum (This can be zero for configuration only files)
#NCOLUMNS    : 2     Number of data columns in the spectrum (This can be zero for configuration only files)
#XUNITS      : eV
#YUNITS      : COUNTS
#DATATYPE    : YY
#XPERCHAN    : 7.862, 7.881   eV per channel (separate by commas if more than one detector)
#OFFSET      : 18.5, -22.4         eV of first channel  (separate by commas if more than one detector
#SIGNALTYPE  : XRF
#YP_TEMP     : 2.588
#LIVETIME    : 8.55613, 8.56251   seconds (separate by commas if more than one detector)
#REALTIME    : 10, 10.0   seconds (separate by commas if more than one detector)
#SPECTRUM    : start of spectrum data
0, 0
0, 0
0, 0
0, 0
0, 0
0, 0
0, 0
0, 0
0, 0
0, 0
0, 0
0, 0
0, 0
0, 0
0, 0
0, 0
0, 0
0, 0
0, 0
0, 0
0, 0
0, 0
0, 0
0, 0
0, 0
0, 0
0, 0
0, 0
0, 0
0, 0
0, 0
0, 0
0, 0
0, 0
1, 1
1, 0
0, 0
1, 1
0, 1
1, 1
2, 2
5, 2
2, 1
1, 0
0, 1
3, 0
1, 3
3, 5
2, 8
17, 18
15, 26
41, 36
47, 57
44, 58
78, 63
68, 56
57, 38
39, 37
20, 19
11, 16
3, 2
2, 1
6, 5
5, 6
2, 7
5, 5
6, 6
9, 15
20, 25
47, 59
85, 111
138, 193
213, 287
341, 400
411, 485
429, 463
374, 383
282, 315
200, 201
123, 125
59, 73
34, 38
13, 21
6, 9
9, 9
4, 2
3, 2
4, 2
2, 1
1, 0
1, 0
0, 0
3, 1
0, 2
2, 1
3, 1
5, 6
6, 2
4, 6
7, 10
7, 4
2, 6
1, 3
2, 0
2, 2
11, 4
6, 3
8, 12
11, 19
19, 27
32, 46
34, 63
48, 89
44, 91
64, 103
67, 92
31, 84
48, 81
32, 50
28, 45
17, 28
14, 20
29, 21
19, 17
6, 11
10, 13
17, 10
20, 14
5, 10
7, 12
4, 5
6, 3
4, 3
3, 7
7, 3
2, 5
3, 2
5, 1
2, 2
3, 2
2, 1
1, 3
4, 2
4, 2
2, 0
1, 3
2, 3
3, 4
4, 4
1, 4
4, 5
3, 2
6, 1
3, 10
8, 6
16, 11
14, 21
8, 15
6, 16
14, 9
7, 10
8, 7
7, 2
0, 4
3, 2
3, 3
5, 6
2, 1
2, 3
7, 9
5, 5
4, 7
3, 5
5, 1
4, 5
6, 5
4, 5
4, 6
10, 4
7, 3
17, 5
17, 6
15, 3
16, 6
20, 2
14, 3
11, 7
14, 5
6, 4
6, 6
7, 12
18, 7
13, 8
7, 11
11, 21
12, 15
22, 19
9, 24
8, 20
16, 10
11, 6
17, 12
17, 11
11, 9
6, 3
10, 3
12, 4
16, 6
10, 14
16, 6
7, 8
10, 8
4, 2
2, 6
3, 9
8, 7
7, 8
7, 14
3, 11
3, 19
4, 26
6, 43
6, 44
8, 45
3, 56
2, 59
15, 44
11, 46
12, 29
13, 20
11, 19
14, 16
17, 19
23, 13
13, 8
16, 12
10, 4
8, 9
7, 7
11, 7
8, 6
10, 9
15, 14
12, 11
10, 20
10, 21
22, 40
28, 47
43, 48
46, 72
62, 88
54, 69
42, 68
42, 53
40, 41
39, 28
23, 13
19, 21
13, 13
13, 23
12, 24
27, 41
37, 57
66, 103
144, 214
252, 414
425, 673
666, 1011
1064, 1510
1410, 1925
1876, 2295
2136, 2595
2303, 2605
2225, 2438
1935, 2115
1606, 1676
1196, 1216
833, 797
569, 462
339, 298
163, 159
93, 98
55, 44
30, 32
21, 24
18, 23
13, 22
12, 19
17, 20
17, 31
17, 37
34, 44
40, 63
72, 93
95, 126
148, 195
190, 246
233, 304
272, 356
296, 360
274, 400
315, 329
307, 327
249, 236
177, 186
103, 100
91, 78
48, 35
47, 16
15, 12
17, 4
3, 7
3, 7
11, 10
4, 13
12, 14
15, 19
15, 20
13, 11
7, 9
12, 5
11, 8
3, 9
6, 8
9, 2
3, 7
3, 8
5, 2
2, 2
2, 3
2, 5
2, 5
3, 5
3, 4
2, 6
3, 8
5, 11
8, 13
6, 9
4, 17
3, 13
4, 9
2, 12
2, 11
1, 9
11, 7
2, 6
8, 11
3, 5
5, 10
4, 9
4, 5
3, 3
6, 4
4, 4
0, 7
4, 6
4, 7
7, 6
3, 4
3, 3
0, 3
2, 3
0, 4
5, 5
6, 4
2, 6
4, 4
3, 6
3, 1
7, 3
4, 6
0, 3
3, 2
6, 4
3, 4
0, 6
7, 1
4, 6
4, 5
2, 5
10, 7
5, 2
4, 3
4, 4
2, 9
7, 4
2, 7
6, 13
4, 13
4, 17
6, 15
2, 23
5, 32
2, 32
4, 20
5, 25
2, 16
1, 19
5, 12
1, 6
1, 9
5, 6
1, 0
3, 5
1, 3
2, 8
1, 8
2, 6
4, 3
7, 4
1, 4
0, 1
5, 5
2, 3
4, 3
2, 1
8, 1
8, 4
6, 4
9, 6
14, 0
14, 2
12, 7
17, 4
11, 2
21, 4
9, 2
9, 0
12, 3
8, 4
3, 5
6, 2
4, 3
2, 4
1, 2
2, 4
1, 1
3, 0
2, 3
3, 1
2, 2
3, 1
0, 4
1, 7
2, 5
1, 4
1, 10
0, 11
1, 7
4, 7
1, 7
4, 8
0, 8
1, 6
3, 2
2, 6
4, 1
1, 3
1, 2
3, 2
2, 2
4, 6
0, 2
3, 2
1, 2
2, 0
2, 2
1, 5
1, 1
5, 3
3, 3
0, 2
1, 4
0, 0
3, 2
2, 5
4, 2
2, 3
2, 1
0, 1
2, 3
2, 0
4, 2
2, 1
1, 3
2, 4
1, 3
2, 4
1, 3
4, 2
2, 2
2, 2
1, 3
1, 2
0, 2
1, 3
2, 3
2, 7
0, 5
3, 4
2, 0
1, 6
3, 10
1, 8
2, 6
1, 8
1, 3
2, 2
0, 4
2, 5
3, 2
2, 3
2, 4
0, 4
3, 2
2, 0
2, 3
1, 3
0, 0
4, 3
4, 2
5, 2
4, 1
3, 3
4, 2
4, 1
4, 0
2, 1
1, 1
1, 1
3, 0
4, 0
0, 2
4, 1
2, 1
1, 3
2, 2
7, 3
3, 4
3, 5
2, 4
5, 4
3, 3
0, 7
5, 5
4, 1
0, 3
2, 4
3, 3
4, 1
4, 5
0, 2
1, 1
4, 1
2, 1
0, 1
3, 1
1, 1
0, 1
3, 2
2, 2
1, 3
3, 1
0, 3
2, 2
1, 4
2, 2
0, 3
0, 0
1, 1
1, 2
1, 0
3, 0
0, 1
1, 1
3, 2
4, 2
0, 1
2, 1
1, 0
0, 1
0, 3
2, 0
2, 0
0, 2
0, 1
1, 2
0, 0
0, 1
1, 2
0, 0
1, 0
1, 1
1, 0
2, 1
1, 1
1, 0
0, 1
0, 0
0, 1
0, 2
2, 0
0, 2
0, 0
1, 0
0, 2
0, 0
0, 3
2, 3
1, 0
0, 1
2, 0
0, 1
1, 1
1, 0
2, 3
1, 0
0, 0
1, 1
0, 1
0, 3
0, 1
0, 0
0, 0
0, 0
1, 1
0, 1
3, 0
3, 0
0, 1
1, 0
0, 2
0, 1
0, 0
0, 1
0, 1
0, 0
0, 1
1, 1
1, 2
2, 2
1, 1
2, 1
0, 0
0, 1
0, 1
0, 0
0, 1
1, 0
1, 0
0, 0
1, 0
0, 1
1, 1
1, 0
0, 1
0, 1
1, 1
0, 0
0, 0
0, 0
2, 3
0, 0
1, 0
0, 1
0, 0
1, 0
0, 0
1, 2
0, 1
0, 2
1, 0
1, 0
1, 0
1, 1
0, 0
0, 2
0, 0
1, 1
0, 1
1, 1
0, 0
1, 0
0, 1
1, 1
0, 0
2, 0
1, 0
0, 0
0, 0
0, 0
0, 1
0, 0
0, 1
0, 0
0, 0
1, 1
0, 1
1, 0
0, 1
0, 0
0, 0
0, 0
0, 0
0, 0
0, 0
0, 0
0, 0
0, 3
0, 0
0, 0
2, 0
0, 1
1, 1
2, 0
0, 0
1, 0
0, 0
0, 0
1, 0
0, 0
0, 0
0, 1
1, 0
1, 0
0, 0
0, 0
0, 0
0, 0
0, 0
0, 1
2, 0
1, 0
1, 0
0, 0
1, 2
0, 0
1, 0
0, 0
0, 1
0, 1
0, 0
0, 2
0, 0
0, 0
0, 0
0, 1
0, 0
0, 0
1, 0
0, 2
0, 0
1, 1
0, 1
0, 0
0, 1
0, 0
1, 1
0, 0
0, 0
0, 1
0, 0
0, 0
0, 0
0, 1
0, 0
0, 0
0, 0
0, 0
1, 1
0, 1
0, 0
0, 0
0, 0
1, 0
0, 0
0, 0
0, 0
0, 1
0, 0
0, 1
0, 0
0, 0
0, 0
0, 0
1, 2
2, 0
0, 1
0, 1
1, 1
0, 0
1, 1
0, 2
1, 0
0, 0
0, 0
0, 1
0, 2
0, 0
0, 1
0, 0
0, 0
0, 1
0, 1
0, 0
1, 1
0, 0
0, 0
1, 0
0, 0
0, 0
0, 1
0, 0
0, 0
0, 0
0, 0
0, 0
0, 0
0, 0
0, 0
0, 0
0, 0
0, 0
0, 0
0, 1
0, 1
1, 0
0, 0
0, 0
0, 0
0, 0
0, 0
0, 0
0, 0
1, 0
0, 0
0, 0
0, 0
0, 0
0, 0
0, 0
0, 0
0, 0
0, 0
0, 0
0, 0
0, 0
0, 2
0, 2
0, 0
3, 1
0, 0
0, 0
0, 0
0, 0
1, 0
1, 0
0, 1
0, 1
0, 0
1, 0
0, 0
0, 0
0, 0
1, 1
0, 0
0, 2
0, 0
0, 1
0, 0
0, 0
0, 0
0, 0
1, 0
0, 0
0, 1
0, 1
1, 0
1, 0
0, 0
0, 0
0, 0
0, 0
0, 0
0, 0
0, 1
0, 0
0, 0
0, 0
0, 0
0, 0
0, 0
0, 0
0, 0
0, 0
1, 0
0, 0
0, 0
0, 0
0, 0
0, 0
0, 0
0, 0
0, 0
0, 0
0, 0
0, 0
0, 0
0, 0
0, 0
0, 0
0, 0
0, 0
0, 0
0, 0
0, 0
0, 0
1, 0
0, 0
0, 0
0, 0
0, 0
0, 0
0, 0
0, 0
0, 0
0, 0
0, 0
0, 0
0, 0
0, 0
0, 0
0, 0
0, 0
0, 0
1, 0
0, 0
0, 0
0, 1
0, 0
0, 0
0, 0
0, 0
0, 0
0, 0
0, 0
0, 0
0, 0
0, 0
1, 1
0, 0
0, 0
0, 0
0, 1
0, 0
0, 0
0, 0
0, 0
0, 0
0, 0
0, 0
0, 0
0, 0
1, 0
0, 0
0, 0
0, 0
0, 0
0, 0
0, 0
0, 0
0, 0
0, 0
0, 0
0, 0
0, 0
0, 0
0, 0
0, 0
0, 0
1, 0
0, 0
0, 0
0, 0
1, 0
0, 0
0, 0
0, 0
0, 0
0, 0
0, 0
0, 0
1, 0
0, 0
0, 0
0, 0
0, 0
0, 0
0, 0
0, 0
0, 0
0, 0
0, 1
0, 0
0, 0
0, 0
0, 0
0, 0
0, 0
0, 0
0, 0
0, 0
0, 0
0, 0
0, 0
0, 0
0, 0
0, 0
0, 0
0, 0
0, 0
0, 0
0, 0
0, 0
0, 0
0, 0
0, 0
0, 0
0, 0
0, 0
0, 0
0, 0
0, 0
0, 0
0, 0
0, 0
0, 0
0, 0
0, 0
0, 0
0, 0
0, 0
0, 0
0, 0
0, 0
0, 0
0, 0
0, 0
0, 0
0, 0
0, 0
0, 0
0, 0
0, 0
0, 0
0, 0
0, 0
0, 0
0, 0
0, 0
0, 0
0, 0
0, 0
0, 0
0, 0
0, 0
0, 0
0, 0
0, 0
0, 0
0, 0
0, 0
0, 0
0, 0
0, 0
0, 0
0, 0
0, 0
0, 0
0, 0
0, 0
0, 0
0, 0
0, 0
0, 0
0, 0
0, 0
0, 0
0, 0
0, 0
0, 0
0, 0
0, 0
0, 0
0, 0
0, 0
0, 0
0, 0
0, 0
0, 0
0, 0
0, 0
0, 0
0, 0
0, 0
0, 0
0, 0
0, 0
0, 0
0, 0
0, 0
0, 0
0, 0
0, 0
0, 0
0, 0
0, 0
0, 0
0, 0
0, 0
0, 0
0, 0
0, 0
0, 0
0, 0
0, 0
0, 0
0, 0
0, 0
0, 0
0, 0
0, 0
0, 0
0, 0
0, 0
0, 0
0, 0
0, 0
0, 0
0, 0
0, 0
0, 0
0, 0
0, 0
0, 0
0, 0
0, 0
0, 0
0, 0
0, 0
0, 0
0, 0
0, 0
0, 0
0, 0
0, 0
0, 0
0, 0
0, 0
0, 0
0, 0
0, 0
0, 0
0, 0
0, 0
0, 0
0, 0
0, 0
0, 0
0, 0
0, 0
0, 0
0, 0
0, 0
0, 0
0, 0
0, 0
0, 0
0, 0
0, 0
0, 0
0, 0
0, 0
0, 0
0, 0
0, 0
0, 0
0, 0
0, 0
0, 0
0, 0
0, 0
0, 0
0, 0
0, 0
0, 0
0, 0
0, 0
0, 0
0, 0
0, 0
0, 0
0, 0
0, 0
0, 0
0, 0
0, 0
0, 0
0, 0
0, 0
0, 0
0, 0
0, 0
0, 0
0, 0
0, 0
0, 0
0, 0
0, 0
0, 0
0, 0
0, 0
0, 0
0, 0
0, 0
0, 0
0, 0
0, 0
0, 0
0, 0
0, 0
0, 0
0, 0
0, 0
0, 0
0, 0
0, 0
0, 0
0, 0
0, 0
0, 0
0, 0
0, 0
0, 0
0, 0
0, 0
0, 0
0, 0
0, 0
0, 0
0, 0
0, 0
0, 0
0, 0
0, 0
0, 0
0, 0
0, 0
0, 0
0, 0
0, 0
0, 0
0, 0
0, 0
0, 0
0, 0
0, 0
0, 0
0, 0
0, 0
0, 0
0, 0
0, 0
0, 0
0, 0
0, 0
0, 0
0, 0
0, 0
0, 0
0, 0
0, 0
0, 0
0, 0
0, 0
0, 0
0, 0
0, 0
0, 0
0, 0
0, 0
0, 0
0, 0
0, 0
0, 0
0, 0
0, 0
0, 0
0, 0
0, 0
0, 0
0, 0
0, 0
0, 0
0, 0
0, 0
0, 0
0, 0
0, 0
0, 0
0, 0
0, 0
0, 0
0, 0
0, 0
0, 0
0, 0
0, 0
0, 0
0, 0
0, 0
0, 0
0, 0
0, 0
0, 0
0, 0
0, 0
0, 0
0, 0
0, 0
0, 0
0, 0
0, 0
0, 0
0, 0
0, 0
0, 0
0, 0
0, 0
0, 0
0, 0
0, 0
0, 0
0, 0
0, 0
0, 0
0, 0
0, 0
0, 0
0, 0
0, 0
0, 0
0, 0
0, 0
0, 0
0, 0
0, 0
0, 0
0, 0
0, 0
0, 0
0, 0
0, 0
0, 0
0, 0
#ENDOFDATA     end of spectrum data