File: host_upload/06-09-2024/ps_0852/dump3/ps__0852shot_2223.msa
#FORMAT      : EMSA/MAS spectral data file
#VERSION     : TC202v2.0 PIXL
#TITLE       : N/A
#DATE        :       Date in the format DD-MMM-YYYY, for example 07-JUL-2010
#TIME        :             The time of day at which the spectrum was recorded, in 24-hour format
#OWNER       : PIXL Flight Model       (PIXL will use this to indicate which instrument took the data.)
#NPOINTS     : 4096     Number of data points in the spectrum (This can be zero for configuration only files)
#NCOLUMNS    : 2     Number of data columns in the spectrum (This can be zero for configuration only files)
#XUNITS      : eV
#YUNITS      : COUNTS
#DATATYPE    : YY
#XPERCHAN    : 7.862, 7.881   eV per channel (separate by commas if more than one detector)
#OFFSET      : 18.5, -22.4         eV of first channel  (separate by commas if more than one detector
#SIGNALTYPE  : XRF
#YP_TEMP     : 2.46
#LIVETIME    : 8.54637, 8.54819   seconds (separate by commas if more than one detector)
#REALTIME    : 10, 10.0   seconds (separate by commas if more than one detector)
#SPECTRUM    : start of spectrum data
0, 0
0, 0
0, 0
0, 0
0, 0
0, 0
0, 0
0, 0
0, 0
0, 0
0, 0
0, 0
0, 0
0, 0
0, 0
0, 0
0, 0
0, 0
0, 0
0, 0
0, 0
0, 0
0, 0
0, 0
0, 0
0, 0
0, 0
0, 0
0, 0
0, 0
0, 0
0, 0
0, 0
0, 0
0, 0
1, 0
2, 1
0, 0
0, 0
0, 4
0, 4
0, 1
0, 2
3, 6
0, 2
2, 2
4, 1
2, 4
6, 7
14, 13
27, 31
51, 43
60, 55
83, 73
82, 85
87, 70
56, 53
55, 54
31, 32
15, 13
6, 9
4, 3
1, 3
3, 5
4, 2
6, 3
3, 7
9, 17
18, 20
52, 49
117, 96
178, 188
260, 230
392, 371
474, 419
492, 446
407, 374
306, 282
208, 210
159, 117
68, 65
44, 31
19, 13
13, 10
8, 6
5, 6
0, 2
0, 2
1, 4
2, 0
0, 0
3, 0
1, 3
3, 1
7, 2
0, 4
3, 1
1, 5
3, 5
1, 9
1, 9
2, 6
2, 9
1, 10
2, 12
3, 11
5, 12
3, 15
4, 15
6, 21
6, 45
10, 74
14, 122
21, 180
26, 205
18, 211
19, 195
21, 160
21, 126
20, 88
19, 54
9, 31
14, 19
16, 20
8, 14
12, 7
15, 7
5, 7
9, 5
6, 4
7, 6
3, 4
2, 3
3, 1
2, 1
3, 0
5, 2
2, 7
0, 1
0, 3
2, 3
0, 4
1, 3
4, 0
0, 2
4, 0
1, 3
0, 1
0, 0
4, 3
2, 4
6, 5
2, 7
11, 6
8, 6
13, 15
12, 16
14, 13
15, 22
15, 13
10, 4
11, 7
11, 2
9, 4
6, 1
8, 5
1, 3
1, 7
9, 3
4, 2
8, 1
8, 6
10, 5
18, 2
25, 0
39, 5
58, 4
90, 4
104, 8
115, 5
95, 3
103, 1
98, 4
42, 0
40, 2
15, 3
14, 9
16, 4
6, 1
3, 6
11, 5
8, 6
9, 10
11, 5
8, 13
15, 6
7, 12
8, 11
11, 10
14, 12
12, 10
11, 10
5, 13
2, 9
7, 8
4, 26
3, 20
1, 14
2, 20
1, 22
5, 13
0, 17
4, 15
6, 9
6, 7
7, 8
1, 7
0, 5
4, 4
6, 2
2, 7
3, 5
7, 5
7, 6
8, 5
11, 4
12, 15
12, 6
10, 12
14, 12
15, 19
13, 11
12, 13
5, 8
6, 13
9, 6
7, 7
11, 14
3, 15
4, 14
9, 21
4, 28
10, 31
10, 46
12, 62
16, 60
32, 72
35, 79
46, 74
67, 84
71, 86
54, 81
56, 56
48, 47
34, 41
25, 25
25, 24
14, 30
14, 18
13, 18
19, 24
32, 28
50, 41
88, 90
174, 194
298, 345
515, 578
785, 894
1179, 1352
1620, 1737
2075, 2121
2307, 2296
2416, 2377
2380, 2255
2136, 1929
1820, 1470
1354, 1148
930, 751
636, 476
352, 283
223, 150
93, 78
48, 52
31, 39
21, 26
15, 21
12, 12
15, 18
17, 20
16, 25
22, 29
33, 38
54, 59
63, 91
79, 118
139, 178
204, 219
263, 275
303, 310
337, 335
378, 332
327, 355
299, 266
294, 235
219, 159
165, 129
96, 99
62, 70
31, 65
16, 59
11, 65
5, 68
10, 59
14, 65
10, 49
10, 43
13, 41
14, 22
7, 31
15, 13
13, 17
13, 15
10, 8
6, 3
4, 5
5, 4
3, 6
3, 4
6, 4
3, 6
5, 4
5, 4
3, 1
6, 2
3, 6
1, 3
1, 4
6, 3
1, 2
4, 5
3, 9
2, 6
2, 9
5, 19
4, 24
3, 24
7, 28
3, 34
4, 29
8, 38
6, 37
12, 29
9, 26
12, 23
11, 22
19, 11
17, 8
15, 10
21, 10
20, 6
28, 2
19, 1
14, 2
16, 4
17, 3
16, 0
3, 5
9, 5
5, 1
7, 3
6, 3
2, 3
3, 2
4, 2
0, 1
1, 2
6, 3
3, 0
2, 3
5, 5
2, 0
4, 5
1, 7
2, 8
4, 5
1, 6
4, 10
2, 5
6, 4
4, 4
6, 2
1, 8
7, 3
5, 2
9, 5
0, 2
5, 5
5, 5
7, 4
6, 5
7, 4
8, 2
18, 0
13, 0
18, 3
21, 2
14, 3
12, 3
9, 3
8, 7
4, 4
7, 2
6, 6
4, 4
3, 3
3, 4
3, 2
3, 2
3, 3
3, 4
0, 1
2, 5
6, 3
1, 4
0, 5
3, 4
2, 7
3, 3
1, 2
2, 2
1, 2
2, 1
4, 5
4, 2
4, 4
3, 2
1, 4
0, 5
3, 4
0, 1
2, 3
4, 1
4, 1
2, 3
5, 3
3, 2
9, 0
7, 4
6, 3
13, 0
9, 0
7, 2
4, 4
5, 3
6, 2
6, 3
2, 3
3, 2
5, 0
1, 3
3, 0
3, 1
2, 1
5, 3
3, 1
1, 1
2, 2
3, 2
2, 2
0, 2
4, 3
2, 0
1, 2
2, 0
3, 0
1, 0
3, 0
3, 4
0, 3
2, 3
0, 5
3, 3
4, 3
2, 5
0, 3
1, 7
4, 3
0, 5
1, 4
8, 6
1, 3
3, 5
2, 5
3, 4
1, 2
2, 3
0, 4
4, 4
4, 4
2, 1
1, 2
2, 1
2, 0
0, 2
2, 0
1, 5
1, 2
2, 3
0, 5
1, 0
2, 1
1, 2
0, 1
2, 0
1, 3
1, 1
1, 1
2, 1
4, 2
1, 2
2, 0
0, 3
1, 0
4, 3
1, 5
3, 2
0, 0
4, 4
2, 1
0, 3
1, 0
0, 0
3, 4
1, 2
4, 0
2, 1
3, 1
8, 1
3, 3
8, 4
4, 6
1, 3
4, 2
3, 1
3, 3
3, 5
7, 1
5, 1
4, 2
3, 2
1, 3
1, 1
2, 5
2, 2
3, 5
4, 1
1, 1
0, 1
1, 1
0, 1
2, 1
1, 2
0, 3
1, 3
3, 1
2, 3
1, 1
1, 1
1, 2
1, 2
2, 3
0, 1
2, 2
1, 0
0, 2
0, 1
0, 5
2, 0
0, 0
1, 3
2, 1
2, 0
2, 1
0, 4
1, 1
1, 2
3, 2
1, 4
1, 0
0, 3
0, 2
2, 4
1, 5
3, 4
0, 1
2, 4
0, 1
1, 1
5, 3
0, 3
2, 0
0, 2
1, 0
1, 1
0, 1
1, 0
1, 1
0, 1
0, 2
2, 1
1, 3
0, 1
0, 0
1, 1
1, 1
1, 1
0, 0
1, 2
1, 0
0, 0
1, 2
0, 0
1, 0
0, 0
0, 1
2, 1
0, 0
1, 1
1, 1
1, 2
0, 0
2, 0
2, 1
0, 0
1, 1
1, 0
0, 2
0, 2
2, 0
0, 1
0, 1
0, 0
1, 0
1, 2
0, 0
0, 1
0, 1
0, 2
0, 0
0, 0
0, 1
0, 1
0, 0
1, 3
1, 0
1, 1
0, 0
1, 1
0, 1
1, 1
0, 0
1, 0
0, 0
0, 1
1, 2
1, 0
0, 1
0, 0
0, 0
1, 0
1, 1
0, 0
1, 0
0, 0
1, 0
0, 0
2, 0
1, 0
0, 0
0, 0
0, 0
1, 0
1, 0
0, 0
0, 0
0, 0
2, 0
1, 0
1, 0
0, 1
0, 0
0, 1
0, 1
0, 0
0, 3
0, 1
1, 0
1, 0
0, 0
0, 0
2, 0
1, 1
1, 0
0, 0
0, 0
1, 0
0, 0
0, 0
0, 0
1, 0
0, 0
0, 0
1, 0
1, 0
2, 0
0, 1
0, 1
0, 0
2, 0
0, 0
1, 0
0, 1
0, 0
0, 0
0, 1
1, 0
1, 2
0, 0
0, 0
0, 1
1, 0
0, 0
1, 0
1, 0
0, 0
0, 0
1, 0
0, 0
0, 0
0, 0
0, 0
0, 0
0, 0
0, 0
1, 1
0, 0
0, 0
1, 0
0, 0
0, 0
1, 0
1, 0
0, 0
0, 0
0, 0
0, 1
0, 0
1, 0
0, 0
0, 0
2, 1
0, 0
0, 0
0, 0
0, 0
0, 0
0, 0
0, 0
1, 1
0, 1
1, 0
0, 1
1, 0
1, 0
2, 0
0, 0
0, 0
0, 1
0, 0
0, 0
0, 0
0, 0
1, 0
0, 0
0, 0
0, 1
1, 0
0, 0
0, 0
0, 0
0, 0
0, 0
0, 0
0, 0
0, 0
0, 2
0, 1
0, 0
1, 0
0, 0
0, 1
0, 0
0, 0
0, 0
1, 1
0, 0
0, 0
0, 0
0, 0
0, 0
0, 0
0, 0
0, 0
0, 0
1, 0
0, 0
0, 0
0, 0
0, 0
0, 0
0, 0
0, 1
0, 0
0, 0
0, 0
0, 0
0, 1
0, 0
0, 0
0, 0
0, 0
0, 0
0, 0
0, 0
0, 0
1, 0
0, 1
0, 0
0, 0
0, 0
0, 1
0, 1
0, 0
0, 1
0, 0
0, 0
2, 0
0, 0
0, 0
1, 1
2, 0
0, 0
0, 0
1, 0
0, 0
0, 0
0, 0
1, 0
0, 0
0, 0
0, 0
0, 0
0, 0
0, 0
0, 0
0, 0
0, 0
0, 0
0, 0
0, 0
1, 0
0, 1
0, 0
0, 0
0, 0
0, 0
0, 0
0, 0
0, 0
0, 0
0, 1
0, 0
0, 0
1, 0
0, 0
0, 1
0, 1
0, 0
0, 0
0, 0
0, 0
0, 0
0, 0
0, 0
0, 1
1, 0
0, 0
0, 0
0, 0
0, 0
0, 0
0, 0
0, 0
0, 0
1, 0
0, 0
1, 0
0, 0
0, 1
0, 0
0, 0
0, 0
0, 0
0, 0
0, 0
0, 0
0, 0
0, 2
0, 0
0, 0
0, 0
0, 0
0, 0
0, 0
0, 0
0, 0
0, 0
0, 0
0, 0
0, 0
0, 0
0, 0
0, 0
0, 0
0, 0
0, 0
0, 0
0, 0
0, 0
0, 0
0, 1
0, 0
0, 0
0, 0
0, 0
0, 0
0, 0
0, 0
0, 0
0, 0
0, 0
0, 1
0, 0
0, 0
0, 0
0, 0
0, 0
0, 0
0, 0
0, 0
0, 0
0, 0
0, 0
0, 0
0, 0
0, 0
0, 0
0, 0
0, 0
0, 0
0, 0
0, 0
0, 0
0, 0
0, 0
0, 0
0, 0
0, 0
1, 0
0, 0
0, 0
0, 0
0, 0
0, 0
0, 0
0, 0
0, 0
0, 0
0, 0
0, 0
0, 0
0, 0
0, 0
0, 0
0, 0
0, 0
0, 0
0, 0
0, 0
0, 0
0, 0
0, 0
0, 0
0, 0
0, 0
0, 0
0, 0
0, 0
0, 0
0, 0
0, 0
0, 0
0, 0
0, 0
0, 0
0, 0
0, 0
0, 0
0, 0
0, 0
0, 0
0, 0
0, 0
0, 0
0, 0
0, 0
0, 0
0, 0
0, 0
0, 0
0, 0
0, 0
0, 0
0, 0
0, 0
0, 0
0, 0
0, 0
0, 0
0, 0
0, 0
0, 0
0, 0
0, 0
0, 0
0, 0
0, 0
0, 0
0, 0
0, 0
0, 0
0, 0
0, 0
0, 0
0, 0
0, 0
0, 0
0, 0
0, 0
0, 0
0, 0
0, 0
0, 0
0, 0
0, 0
0, 0
0, 0
0, 0
0, 0
0, 0
0, 0
0, 0
0, 0
0, 0
0, 0
0, 0
0, 0
0, 0
0, 0
0, 0
0, 0
0, 0
0, 0
0, 0
0, 0
0, 0
0, 0
0, 0
0, 0
0, 0
0, 0
0, 0
0, 0
0, 0
0, 0
0, 0
0, 0
0, 0
0, 0
0, 0
0, 0
0, 0
0, 0
0, 0
0, 0
0, 0
0, 0
0, 0
0, 0
0, 0
0, 0
0, 0
0, 0
0, 0
0, 0
0, 0
0, 0
0, 0
0, 0
0, 0
0, 0
0, 0
0, 0
0, 0
0, 0
0, 0
0, 0
0, 0
0, 0
0, 0
0, 0
0, 0
0, 0
0, 0
0, 0
0, 0
0, 0
0, 0
0, 0
0, 0
0, 0
0, 0
0, 0
0, 0
0, 0
0, 0
0, 0
0, 0
0, 0
0, 0
0, 0
0, 0
0, 0
0, 0
0, 0
0, 0
0, 0
0, 0
0, 0
0, 0
0, 0
0, 0
0, 0
0, 0
0, 0
0, 0
0, 0
0, 0
0, 0
0, 0
0, 0
0, 0
0, 0
0, 0
0, 0
0, 0
0, 0
0, 0
0, 0
0, 0
0, 0
0, 0
0, 0
0, 0
0, 0
0, 0
0, 0
0, 0
0, 0
0, 0
0, 0
0, 0
0, 0
0, 0
0, 0
0, 0
0, 0
0, 0
0, 0
0, 0
0, 0
0, 0
0, 0
0, 0
0, 0
0, 0
0, 0
0, 0
0, 0
0, 0
0, 0
0, 0
0, 0
0, 0
0, 0
0, 0
0, 0
0, 0
0, 0
0, 0
0, 0
0, 0
0, 0
0, 0
0, 0
0, 0
0, 0
0, 0
0, 0
0, 0
0, 0
0, 0
0, 0
0, 0
0, 0
0, 0
0, 0
0, 0
0, 0
0, 0
0, 0
0, 0
0, 0
0, 0
0, 0
0, 0
0, 0
0, 0
0, 0
0, 0
0, 0
0, 0
0, 0
0, 0
0, 0
0, 0
0, 0
0, 0
0, 0
0, 0
0, 0
0, 0
0, 0
0, 0
0, 0
0, 0
0, 0
0, 0
0, 0
0, 0
0, 0
0, 0
0, 0
0, 0
0, 0
0, 0
0, 0
0, 0
0, 0
0, 0
0, 0
0, 0
0, 0
0, 0
0, 0
0, 0
0, 0
0, 0
0, 0
0, 0
0, 0
0, 0
0, 0
0, 0
0, 0
0, 0
0, 0
0, 0
0, 0
0, 0
0, 0
0, 0
0, 0
0, 0
0, 0
0, 0
0, 0
0, 0
0, 0
0, 0
0, 0
0, 0
0, 0
0, 0
0, 0
0, 0
0, 0
0, 0
0, 0
0, 0
0, 0
0, 0
0, 0
0, 0
0, 0
0, 0
0, 0
0, 0
0, 0
0, 0
0, 0
0, 0
0, 0
0, 0
0, 0
0, 0
0, 0
0, 0
0, 0
0, 0
0, 0
0, 0
0, 0
0, 0
0, 0
0, 0
0, 0
0, 0
0, 0
0, 0
0, 0
0, 0
0, 0
0, 0
0, 0
0, 0
0, 0
0, 0
0, 0
0, 0
0, 0
0, 0
0, 0
0, 0
0, 0
0, 0
#ENDOFDATA     end of spectrum data