File: host_upload/06-09-2024/ps_0852/dump3/ps__0852shot_2426.msa
#FORMAT      : EMSA/MAS spectral data file
#VERSION     : TC202v2.0 PIXL
#TITLE       : N/A
#DATE        :       Date in the format DD-MMM-YYYY, for example 07-JUL-2010
#TIME        :             The time of day at which the spectrum was recorded, in 24-hour format
#OWNER       : PIXL Flight Model       (PIXL will use this to indicate which instrument took the data.)
#NPOINTS     : 4096     Number of data points in the spectrum (This can be zero for configuration only files)
#NCOLUMNS    : 2     Number of data columns in the spectrum (This can be zero for configuration only files)
#XUNITS      : eV
#YUNITS      : COUNTS
#DATATYPE    : YY
#XPERCHAN    : 7.862, 7.881   eV per channel (separate by commas if more than one detector)
#OFFSET      : 18.5, -22.4         eV of first channel  (separate by commas if more than one detector
#SIGNALTYPE  : XRF
#YP_TEMP     : 2.332
#LIVETIME    : 8.55229, 8.56278   seconds (separate by commas if more than one detector)
#REALTIME    : 10, 10.0   seconds (separate by commas if more than one detector)
#SPECTRUM    : start of spectrum data
0, 0
0, 0
0, 0
0, 0
0, 0
0, 0
0, 0
0, 0
0, 0
0, 0
0, 0
0, 0
0, 0
0, 0
0, 0
0, 0
0, 0
0, 0
0, 0
0, 0
0, 0
0, 0
0, 0
0, 0
0, 0
0, 0
0, 0
0, 0
0, 0
0, 0
0, 0
0, 0
0, 0
0, 0
1, 1
0, 1
0, 0
1, 0
0, 4
3, 2
3, 1
4, 1
0, 4
1, 2
1, 0
3, 1
3, 4
5, 3
8, 4
9, 14
34, 27
39, 28
64, 67
94, 66
78, 59
88, 77
72, 55
44, 38
25, 22
16, 17
13, 9
6, 4
4, 4
2, 6
3, 2
3, 5
5, 6
7, 9
22, 23
42, 43
96, 96
154, 161
306, 265
376, 350
456, 437
422, 402
366, 348
300, 290
195, 200
101, 119
73, 66
30, 41
20, 18
7, 14
3, 3
1, 1
1, 2
1, 3
1, 0
1, 0
4, 1
1, 1
1, 1
1, 2
3, 2
1, 2
0, 2
3, 1
3, 5
2, 3
6, 2
6, 1
7, 3
10, 3
5, 0
11, 1
16, 6
15, 2
32, 15
30, 26
28, 32
43, 58
55, 91
79, 111
73, 146
70, 145
69, 140
53, 116
59, 97
33, 51
27, 63
36, 36
26, 35
19, 34
15, 26
19, 20
13, 19
10, 13
7, 15
9, 13
2, 3
4, 3
0, 2
3, 2
0, 3
3, 2
1, 0
2, 2
1, 3
1, 1
1, 3
1, 3
2, 1
3, 1
0, 0
4, 1
2, 1
4, 2
1, 4
2, 4
1, 2
1, 7
3, 1
5, 12
15, 12
13, 10
11, 13
18, 13
15, 15
10, 9
10, 19
9, 5
6, 5
7, 5
5, 2
2, 2
3, 3
3, 11
5, 7
4, 4
6, 4
5, 4
8, 8
4, 3
9, 7
4, 7
6, 7
4, 3
5, 3
5, 4
4, 5
8, 5
3, 2
4, 2
2, 3
3, 6
5, 7
10, 8
6, 7
9, 15
22, 14
20, 20
15, 34
27, 26
21, 28
11, 19
16, 15
11, 19
21, 16
17, 7
10, 8
16, 11
4, 9
7, 10
7, 11
6, 1
4, 4
5, 4
6, 9
8, 4
8, 3
5, 7
5, 8
10, 5
6, 3
6, 4
9, 6
6, 6
5, 10
6, 10
17, 13
17, 19
15, 42
15, 43
24, 43
30, 42
31, 43
31, 43
29, 42
17, 42
23, 26
13, 21
13, 18
16, 11
11, 8
20, 16
13, 17
17, 26
25, 22
28, 47
34, 39
40, 46
41, 41
51, 50
44, 54
42, 43
45, 62
53, 44
59, 54
49, 50
54, 63
68, 55
62, 64
46, 47
51, 35
38, 36
27, 32
15, 26
22, 15
12, 16
18, 20
21, 29
41, 69
87, 103
127, 183
259, 335
511, 637
773, 876
1154, 1322
1519, 1791
1959, 2178
2278, 2383
2414, 2456
2369, 2271
2168, 1975
1779, 1596
1256, 1073
902, 768
569, 424
318, 271
209, 147
97, 56
57, 45
27, 27
35, 13
21, 10
15, 18
25, 22
22, 14
13, 17
24, 29
32, 33
48, 59
72, 84
107, 118
159, 159
236, 244
251, 268
305, 360
316, 348
314, 358
353, 338
296, 285
219, 211
189, 152
119, 119
98, 68
58, 37
45, 36
30, 36
27, 25
21, 23
22, 38
23, 34
31, 53
28, 29
25, 36
31, 20
16, 23
19, 9
14, 13
14, 12
10, 4
10, 8
9, 9
4, 8
6, 3
3, 1
6, 6
5, 5
5, 3
4, 11
4, 2
4, 2
8, 8
1, 9
7, 5
3, 8
7, 5
8, 5
5, 2
5, 9
10, 1
8, 15
4, 6
5, 2
5, 3
3, 7
4, 9
5, 5
8, 10
5, 9
5, 6
4, 6
8, 5
4, 1
3, 4
5, 5
4, 3
4, 3
7, 4
3, 4
7, 5
4, 2
3, 5
1, 8
4, 9
11, 7
7, 6
2, 3
8, 9
6, 6
5, 2
4, 2
6, 3
6, 1
4, 2
2, 0
3, 3
4, 7
5, 6
3, 5
3, 2
5, 4
1, 1
3, 5
5, 5
3, 5
2, 6
3, 4
10, 5
5, 7
6, 6
8, 3
4, 5
6, 7
11, 4
3, 8
7, 6
5, 2
7, 2
2, 3
4, 2
8, 5
2, 2
2, 2
4, 2
1, 4
4, 1
7, 2
1, 3
7, 5
3, 1
1, 2
3, 2
6, 2
5, 3
3, 3
1, 4
1, 4
1, 4
2, 6
3, 1
4, 6
4, 3
3, 5
2, 5
3, 3
2, 16
11, 10
8, 13
14, 9
10, 9
4, 10
11, 8
8, 7
8, 5
7, 5
8, 5
4, 1
5, 5
6, 2
2, 5
4, 3
2, 2
1, 2
4, 2
9, 2
6, 2
2, 3
4, 5
5, 1
4, 6
5, 9
4, 1
3, 4
3, 1
1, 0
3, 2
2, 3
1, 1
1, 3
2, 6
2, 1
4, 1
0, 3
0, 2
1, 3
5, 4
0, 3
1, 0
3, 0
4, 1
0, 2
0, 6
2, 1
0, 4
2, 2
2, 1
2, 1
0, 1
2, 3
0, 2
2, 1
0, 1
4, 4
5, 0
1, 4
2, 4
1, 3
2, 1
3, 2
4, 1
3, 7
5, 2
1, 4
5, 2
2, 4
3, 4
4, 2
2, 2
5, 0
3, 2
6, 7
3, 8
8, 6
2, 5
2, 2
6, 4
4, 5
2, 4
6, 4
2, 4
2, 2
3, 4
0, 4
5, 2
3, 4
0, 1
1, 0
4, 1
3, 0
1, 3
2, 0
3, 1
2, 2
1, 0
1, 1
1, 1
0, 1
2, 1
1, 1
4, 2
1, 3
1, 2
3, 0
2, 6
3, 4
2, 2
4, 2
6, 4
1, 1
5, 9
5, 4
6, 2
5, 2
3, 3
2, 1
5, 1
1, 4
0, 2
1, 4
0, 4
4, 1
0, 1
3, 1
3, 0
4, 1
0, 1
1, 0
2, 5
3, 1
1, 1
2, 3
3, 0
2, 2
3, 4
1, 1
0, 2
0, 0
1, 3
3, 7
1, 3
2, 3
3, 3
3, 2
3, 2
3, 0
0, 0
1, 0
2, 2
1, 0
0, 0
1, 2
1, 0
0, 1
3, 0
1, 1
1, 2
3, 1
2, 0
1, 0
3, 0
0, 0
1, 3
1, 1
2, 0
0, 2
0, 0
4, 2
0, 0
1, 0
1, 2
0, 2
1, 2
0, 1
0, 1
0, 2
0, 0
2, 2
1, 0
0, 0
3, 1
1, 2
1, 3
0, 1
2, 0
0, 1
2, 1
0, 1
1, 2
0, 2
1, 1
1, 2
1, 0
0, 2
2, 0
0, 2
1, 0
1, 3
0, 0
0, 2
1, 1
2, 0
1, 0
1, 1
0, 0
0, 0
1, 2
1, 3
0, 0
0, 2
1, 0
0, 0
0, 0
1, 0
1, 0
1, 1
1, 0
1, 1
0, 1
0, 1
1, 1
0, 1
0, 0
1, 0
1, 1
1, 0
1, 1
0, 1
0, 1
2, 2
1, 1
3, 2
0, 1
0, 0
1, 0
0, 1
1, 0
3, 0
1, 0
1, 0
0, 1
2, 0
0, 1
2, 0
0, 0
0, 1
0, 1
2, 0
0, 0
1, 1
1, 0
0, 2
0, 0
0, 0
0, 0
1, 0
0, 1
1, 0
1, 0
0, 0
0, 0
0, 0
0, 0
2, 1
0, 0
0, 0
0, 0
1, 0
0, 0
1, 0
1, 0
2, 0
0, 1
0, 1
1, 0
0, 0
0, 1
3, 0
1, 0
0, 1
0, 0
1, 0
2, 0
0, 0
0, 1
0, 0
1, 0
0, 0
1, 0
0, 0
0, 0
0, 1
0, 1
1, 0
0, 1
0, 0
0, 0
0, 0
2, 0
0, 0
1, 0
1, 1
0, 0
0, 3
1, 0
1, 0
0, 1
0, 0
0, 0
1, 0
0, 0
1, 0
0, 0
0, 0
0, 0
1, 0
1, 0
0, 0
0, 0
0, 0
0, 1
0, 1
0, 1
0, 0
0, 2
0, 0
0, 0
0, 0
0, 0
0, 1
0, 0
0, 0
0, 1
0, 1
1, 1
1, 0
0, 0
2, 0
0, 0
0, 0
0, 0
1, 1
0, 0
1, 0
0, 0
0, 0
0, 0
1, 1
0, 0
0, 0
0, 0
0, 1
0, 1
2, 0
0, 2
0, 0
0, 3
0, 0
0, 0
0, 0
0, 0
1, 0
0, 0
0, 1
2, 1
0, 1
0, 0
0, 0
1, 1
0, 0
0, 0
2, 0
1, 0
0, 0
1, 0
0, 0
0, 0
0, 0
0, 1
0, 0
0, 0
0, 0
0, 0
0, 1
0, 0
0, 0
0, 0
0, 0
0, 0
0, 0
0, 0
0, 0
0, 1
0, 0
0, 0
0, 0
0, 0
0, 0
1, 0
0, 0
0, 0
0, 0
0, 0
0, 0
0, 0
1, 0
0, 0
0, 0
0, 0
0, 0
0, 1
0, 0
0, 0
0, 0
0, 0
1, 0
1, 0
0, 0
0, 0
1, 0
1, 0
0, 0
0, 0
0, 0
0, 0
0, 0
1, 1
0, 0
0, 0
0, 0
0, 0
0, 0
0, 0
0, 0
0, 0
0, 0
0, 0
0, 0
0, 0
0, 0
0, 0
0, 0
0, 1
0, 0
0, 0
0, 0
0, 0
0, 1
0, 0
0, 0
0, 0
0, 0
0, 0
0, 0
0, 0
0, 0
1, 0
0, 1
0, 0
1, 0
0, 0
0, 0
0, 0
0, 0
0, 0
0, 1
0, 0
0, 0
0, 0
0, 0
0, 0
0, 0
0, 0
0, 0
0, 0
0, 0
0, 0
1, 0
0, 0
0, 0
0, 0
1, 0
0, 0
0, 0
0, 0
0, 0
0, 0
0, 0
0, 0
0, 0
0, 1
0, 0
0, 0
0, 0
0, 0
0, 0
0, 0
1, 0
0, 0
0, 0
0, 0
0, 0
0, 0
0, 0
0, 0
0, 0
0, 0
1, 0
0, 0
0, 0
0, 0
0, 0
0, 0
0, 0
0, 0
0, 0
0, 0
0, 0
0, 0
0, 0
0, 0
0, 0
0, 0
0, 1
0, 1
0, 0
0, 0
0, 0
0, 0
0, 0
0, 0
0, 0
0, 0
0, 0
0, 0
0, 0
0, 0
0, 0
0, 0
0, 0
0, 0
0, 0
0, 0
0, 0
0, 0
0, 0
0, 0
0, 0
0, 0
0, 0
0, 0
0, 0
0, 0
0, 0
0, 0
0, 0
0, 0
0, 2
0, 0
0, 0
1, 0
0, 0
0, 0
0, 0
0, 0
0, 0
0, 0
0, 0
0, 0
0, 0
0, 0
0, 0
0, 0
0, 0
0, 0
0, 0
0, 0
0, 0
0, 0
0, 0
0, 0
0, 0
0, 0
0, 0
0, 0
0, 0
0, 0
0, 0
0, 0
0, 0
0, 0
0, 0
0, 0
0, 0
0, 0
0, 0
0, 0
0, 1
0, 0
0, 0
0, 0
0, 0
0, 0
0, 0
0, 0
0, 0
0, 0
0, 0
0, 0
0, 0
0, 0
0, 0
0, 0
0, 0
0, 0
0, 0
0, 0
0, 0
0, 0
0, 0
0, 0
0, 0
0, 0
0, 0
0, 0
0, 0
0, 0
0, 0
0, 0
0, 0
0, 0
0, 0
0, 0
0, 0
0, 0
0, 0
0, 0
0, 0
0, 0
0, 0
0, 0
0, 0
0, 0
0, 0
0, 0
0, 0
0, 0
0, 0
0, 0
0, 0
0, 0
0, 0
0, 0
0, 0
0, 0
0, 0
0, 0
0, 0
0, 0
0, 0
0, 0
0, 0
0, 0
0, 0
0, 0
0, 0
0, 0
0, 0
0, 0
0, 0
0, 0
0, 0
0, 0
0, 0
0, 0
0, 0
0, 0
0, 0
0, 0
0, 0
0, 0
0, 0
0, 0
0, 0
0, 0
0, 0
0, 0
0, 0
0, 0
0, 0
0, 0
0, 0
0, 0
0, 0
0, 0
0, 0
0, 0
0, 0
0, 0
0, 0
0, 0
0, 0
0, 0
0, 0
0, 0
0, 0
0, 0
0, 0
0, 0
0, 0
0, 0
0, 0
0, 0
0, 0
0, 0
0, 0
0, 0
0, 0
0, 0
0, 0
0, 0
0, 0
0, 0
0, 0
0, 0
0, 0
0, 0
0, 0
0, 0
0, 0
0, 0
0, 0
0, 0
0, 0
0, 0
0, 0
0, 0
0, 0
0, 0
0, 0
0, 0
0, 0
0, 0
0, 0
0, 0
0, 0
0, 0
0, 0
0, 0
0, 0
0, 0
0, 0
0, 0
0, 0
0, 0
0, 0
0, 0
0, 0
0, 0
0, 0
0, 0
0, 0
0, 0
0, 0
0, 0
0, 0
0, 0
0, 0
0, 0
0, 0
0, 0
0, 0
0, 0
0, 0
0, 0
0, 0
0, 0
0, 0
0, 0
0, 0
0, 0
0, 0
0, 0
0, 0
0, 0
0, 0
0, 0
0, 0
0, 0
0, 0
0, 0
0, 0
0, 0
0, 0
0, 0
0, 0
0, 0
0, 0
0, 0
0, 0
0, 0
0, 0
0, 0
0, 0
0, 0
0, 0
0, 0
0, 0
0, 0
0, 0
0, 0
0, 0
0, 0
0, 0
0, 0
0, 0
0, 0
0, 0
0, 0
0, 0
0, 0
0, 0
0, 0
0, 0
0, 0
0, 0
0, 0
0, 0
0, 0
0, 0
0, 0
0, 0
0, 0
0, 0
0, 0
0, 0
0, 0
0, 0
0, 0
0, 0
0, 0
0, 0
0, 0
0, 0
0, 0
0, 0
0, 0
0, 0
0, 0
0, 0
0, 0
0, 0
0, 0
0, 0
0, 0
0, 0
0, 0
0, 0
0, 0
0, 0
0, 0
0, 0
0, 0
0, 0
0, 0
0, 0
0, 0
0, 0
0, 0
0, 0
0, 0
0, 0
0, 0
0, 0
0, 0
0, 0
0, 0
0, 0
0, 0
0, 0
0, 0
0, 0
0, 0
0, 0
0, 0
0, 0
0, 0
0, 0
0, 0
0, 0
0, 0
0, 0
0, 0
0, 0
0, 0
0, 0
0, 0
0, 0
0, 0
0, 0
0, 0
0, 0
0, 0
0, 0
0, 0
0, 0
0, 0
0, 0
0, 0
0, 0
0, 0
0, 0
0, 0
0, 0
0, 0
0, 0
0, 0
0, 0
0, 0
0, 0
0, 0
0, 0
0, 0
0, 0
0, 0
0, 0
0, 0
0, 0
0, 0
0, 0
0, 0
0, 0
0, 0
0, 0
#ENDOFDATA     end of spectrum data