File: host_upload/06-09-2024/ps_0852/dump3/ps__0852shot_2389.msa
#FORMAT      : EMSA/MAS spectral data file
#VERSION     : TC202v2.0 PIXL
#TITLE       : N/A
#DATE        :       Date in the format DD-MMM-YYYY, for example 07-JUL-2010
#TIME        :             The time of day at which the spectrum was recorded, in 24-hour format
#OWNER       : PIXL Flight Model       (PIXL will use this to indicate which instrument took the data.)
#NPOINTS     : 4096     Number of data points in the spectrum (This can be zero for configuration only files)
#NCOLUMNS    : 2     Number of data columns in the spectrum (This can be zero for configuration only files)
#XUNITS      : eV
#YUNITS      : COUNTS
#DATATYPE    : YY
#XPERCHAN    : 7.862, 7.881   eV per channel (separate by commas if more than one detector)
#OFFSET      : 18.5, -22.4         eV of first channel  (separate by commas if more than one detector
#SIGNALTYPE  : XRF
#YP_TEMP     : 2.267
#LIVETIME    : 8.55167, 8.55142   seconds (separate by commas if more than one detector)
#REALTIME    : 10, 10.0   seconds (separate by commas if more than one detector)
#SPECTRUM    : start of spectrum data
0, 0
0, 0
0, 0
0, 0
0, 0
0, 0
0, 0
0, 0
0, 0
0, 0
0, 0
0, 0
0, 0
0, 0
0, 0
0, 0
0, 0
0, 0
0, 0
0, 0
0, 0
0, 0
0, 0
0, 0
0, 0
0, 0
0, 0
0, 0
0, 0
0, 0
0, 0
0, 0
0, 0
1, 0
0, 0
1, 0
1, 0
1, 2
3, 0
1, 0
3, 1
1, 0
4, 1
2, 1
1, 4
1, 1
4, 1
2, 4
8, 4
14, 15
36, 24
44, 34
61, 59
83, 75
76, 82
88, 76
59, 56
53, 39
40, 26
12, 17
6, 7
8, 3
3, 3
9, 4
8, 13
11, 6
10, 11
9, 8
27, 11
64, 52
109, 108
166, 169
286, 264
373, 362
467, 409
484, 441
420, 377
303, 255
221, 194
137, 109
71, 67
54, 27
17, 18
12, 7
8, 0
3, 2
1, 1
4, 1
4, 4
2, 2
2, 1
0, 1
1, 0
0, 1
0, 0
1, 2
1, 1
5, 8
3, 6
8, 3
1, 3
4, 3
3, 4
2, 1
2, 3
1, 0
2, 4
5, 3
12, 3
15, 4
39, 12
42, 11
67, 16
110, 19
112, 17
108, 31
109, 15
102, 29
93, 9
73, 25
39, 14
34, 16
30, 15
22, 17
21, 14
13, 16
11, 10
14, 6
10, 5
5, 7
8, 4
4, 3
1, 4
4, 0
1, 2
1, 3
1, 4
3, 2
0, 4
4, 3
1, 3
5, 8
4, 7
2, 2
2, 2
0, 5
1, 3
2, 4
0, 1
1, 8
2, 7
4, 12
7, 14
11, 23
6, 22
18, 15
24, 33
15, 17
28, 22
19, 19
13, 12
8, 12
8, 7
5, 8
5, 4
4, 3
4, 2
4, 2
5, 4
5, 3
5, 7
7, 8
6, 5
10, 5
3, 3
6, 4
6, 2
8, 1
3, 4
10, 1
12, 1
12, 2
16, 3
17, 2
11, 1
26, 3
18, 1
19, 3
18, 7
14, 4
26, 4
27, 14
16, 12
14, 14
14, 9
13, 12
21, 11
18, 17
17, 21
19, 13
14, 14
12, 6
13, 21
11, 11
7, 11
6, 10
9, 10
9, 5
7, 6
5, 4
5, 13
2, 11
0, 20
2, 20
3, 14
4, 26
9, 34
2, 18
4, 21
1, 12
6, 17
5, 14
5, 11
3, 8
6, 14
9, 14
10, 18
11, 23
14, 30
14, 32
14, 59
12, 49
22, 58
17, 54
10, 27
15, 30
13, 28
13, 12
12, 16
17, 7
22, 13
20, 9
27, 8
25, 11
38, 18
39, 19
46, 26
70, 39
85, 50
65, 54
67, 61
86, 65
87, 52
66, 37
47, 28
41, 26
29, 20
24, 15
22, 19
19, 15
14, 17
27, 41
54, 67
96, 114
162, 191
267, 344
527, 549
795, 887
1191, 1299
1649, 1739
2055, 2120
2347, 2373
2564, 2396
2485, 2339
2244, 1925
1801, 1483
1354, 1040
962, 778
608, 456
370, 237
198, 118
105, 78
48, 42
19, 26
19, 24
19, 15
15, 18
18, 22
15, 21
27, 32
29, 31
34, 38
43, 61
75, 78
103, 116
174, 162
213, 221
253, 284
321, 328
341, 341
383, 357
373, 316
320, 303
236, 179
218, 146
130, 112
93, 65
67, 37
40, 15
24, 20
22, 20
9, 7
6, 13
10, 8
11, 8
14, 11
14, 15
14, 13
12, 5
11, 5
16, 11
13, 10
11, 6
11, 5
13, 5
7, 3
6, 3
2, 8
6, 2
4, 2
2, 4
3, 3
3, 1
6, 1
4, 3
4, 3
0, 1
7, 4
5, 3
7, 4
4, 2
6, 5
4, 6
2, 4
6, 4
4, 8
5, 3
6, 3
4, 9
12, 4
16, 5
8, 6
9, 5
4, 9
4, 5
10, 6
3, 9
7, 7
6, 9
1, 12
8, 5
4, 5
14, 12
8, 8
4, 11
9, 16
8, 5
10, 6
8, 7
12, 7
8, 4
10, 5
3, 6
10, 6
3, 6
3, 3
1, 8
5, 9
5, 9
4, 10
3, 7
4, 8
2, 4
1, 6
4, 3
4, 6
5, 4
1, 6
0, 3
4, 2
0, 7
2, 5
2, 4
5, 2
3, 4
6, 2
1, 3
3, 4
3, 3
5, 4
3, 3
2, 3
6, 3
2, 4
3, 5
5, 3
3, 4
3, 5
3, 5
5, 6
1, 2
3, 1
5, 2
5, 5
3, 2
6, 3
11, 7
5, 4
8, 2
10, 3
13, 4
5, 3
11, 6
14, 3
13, 6
6, 4
14, 1
11, 6
5, 6
8, 4
5, 11
7, 11
6, 14
3, 7
4, 14
3, 17
9, 9
5, 11
3, 11
6, 9
1, 6
4, 6
1, 4
3, 2
5, 3
6, 4
3, 1
2, 2
7, 4
2, 0
1, 4
2, 4
3, 5
2, 2
1, 3
4, 4
2, 4
1, 4
1, 6
1, 1
6, 4
4, 3
2, 3
1, 5
1, 2
6, 3
3, 1
2, 5
3, 3
5, 1
2, 3
3, 2
5, 1
2, 3
2, 2
2, 2
2, 1
5, 0
2, 0
5, 4
2, 0
4, 0
3, 0
1, 2
3, 2
0, 2
5, 6
5, 3
3, 0
4, 2
0, 2
4, 2
1, 1
4, 3
0, 1
2, 4
4, 6
6, 3
1, 4
1, 3
0, 1
1, 1
2, 2
1, 5
2, 3
2, 2
1, 3
1, 3
1, 0
2, 2
2, 1
2, 1
4, 0
1, 0
1, 0
0, 3
3, 3
1, 1
2, 1
1, 2
3, 2
1, 2
2, 2
3, 2
2, 3
2, 2
0, 1
2, 2
6, 1
2, 0
0, 1
1, 2
0, 3
5, 0
2, 1
2, 2
3, 0
2, 2
2, 4
2, 3
6, 3
2, 2
3, 3
4, 9
4, 1
3, 1
11, 3
5, 0
1, 4
0, 5
2, 3
4, 1
5, 1
2, 0
2, 1
4, 1
3, 2
2, 0
0, 3
1, 3
2, 2
1, 2
2, 0
0, 1
2, 1
2, 2
5, 0
2, 2
1, 0
2, 2
2, 2
2, 2
2, 1
0, 3
2, 2
2, 2
2, 0
0, 3
2, 0
1, 2
1, 0
4, 0
2, 2
1, 0
0, 0
2, 2
1, 1
2, 0
0, 2
1, 0
1, 0
1, 1
0, 5
0, 1
2, 0
2, 3
1, 2
3, 0
1, 0
0, 1
2, 3
1, 1
2, 0
2, 0
2, 1
0, 2
1, 2
2, 0
0, 0
0, 1
0, 1
2, 1
0, 0
0, 1
0, 3
0, 2
1, 1
5, 0
0, 4
0, 1
1, 0
1, 2
2, 0
2, 1
1, 1
1, 0
1, 3
1, 0
0, 0
2, 0
1, 0
0, 0
1, 0
0, 1
1, 0
0, 0
0, 1
1, 0
1, 1
1, 4
0, 2
1, 2
0, 4
1, 1
0, 0
0, 0
2, 0
0, 0
0, 1
0, 0
0, 1
0, 2
0, 1
0, 0
1, 0
0, 1
0, 0
2, 0
0, 2
1, 0
0, 0
0, 1
0, 1
0, 0
0, 0
0, 2
0, 1
0, 1
0, 0
1, 0
1, 0
0, 0
0, 1
0, 0
0, 0
0, 1
0, 1
0, 0
1, 1
0, 0
1, 1
3, 1
0, 1
0, 0
0, 1
0, 0
0, 0
0, 0
0, 0
1, 0
1, 0
0, 1
0, 0
0, 0
0, 1
1, 0
0, 0
2, 1
1, 0
0, 0
0, 0
0, 0
0, 1
1, 0
1, 0
0, 0
0, 1
0, 0
1, 0
0, 0
0, 0
1, 0
0, 0
0, 1
1, 0
2, 0
0, 0
2, 0
1, 0
0, 1
0, 0
1, 1
1, 0
1, 0
1, 0
0, 0
0, 0
1, 0
1, 0
0, 0
0, 0
1, 0
0, 0
0, 0
0, 0
0, 0
0, 0
0, 2
0, 0
0, 0
0, 0
0, 1
1, 0
0, 0
0, 0
1, 1
0, 0
0, 1
0, 0
1, 0
0, 0
1, 0
0, 0
0, 0
0, 1
0, 0
1, 1
0, 0
1, 0
0, 0
1, 0
1, 1
0, 0
0, 1
0, 0
0, 0
0, 0
1, 2
0, 1
0, 0
0, 0
0, 0
1, 0
1, 0
0, 0
0, 1
0, 0
0, 0
0, 0
0, 0
0, 0
1, 0
0, 0
0, 0
2, 0
0, 0
0, 1
1, 0
2, 0
1, 0
0, 0
0, 0
0, 0
0, 0
3, 3
0, 1
0, 0
0, 0
0, 0
0, 0
0, 0
0, 0
0, 2
0, 0
0, 1
0, 0
1, 1
1, 1
2, 0
0, 0
0, 0
0, 0
0, 0
1, 0
0, 0
0, 0
0, 0
0, 0
0, 0
0, 0
0, 0
1, 1
0, 0
0, 1
0, 0
0, 0
0, 0
0, 1
0, 0
0, 0
1, 0
1, 1
0, 1
0, 1
1, 0
0, 0
0, 0
0, 0
0, 0
0, 0
0, 0
1, 0
1, 0
1, 0
0, 0
0, 0
0, 0
0, 1
0, 0
1, 1
0, 0
0, 0
0, 0
0, 0
1, 0
1, 0
1, 0
0, 0
0, 0
0, 0
0, 0
0, 0
1, 0
1, 0
0, 0
0, 0
0, 0
0, 0
0, 0
0, 0
0, 0
0, 0
0, 0
1, 0
0, 0
0, 0
0, 0
0, 0
0, 0
0, 0
0, 0
0, 0
0, 0
0, 0
0, 0
0, 0
0, 0
0, 0
0, 0
0, 0
0, 0
0, 0
0, 0
0, 0
1, 0
1, 0
0, 0
0, 0
0, 0
1, 0
0, 0
0, 0
0, 0
0, 0
0, 0
0, 0
0, 0
0, 0
0, 0
0, 0
0, 0
0, 0
0, 0
0, 0
0, 0
0, 0
1, 0
0, 0
0, 0
0, 0
0, 0
0, 0
0, 0
0, 0
0, 0
0, 0
0, 0
0, 0
1, 0
0, 0
1, 0
0, 0
0, 0
0, 0
0, 0
0, 0
0, 0
0, 0
0, 0
0, 0
0, 0
0, 0
0, 0
0, 0
0, 0
0, 0
0, 0
0, 0
0, 0
0, 0
0, 0
0, 1
0, 0
0, 0
0, 0
0, 0
0, 0
0, 0
0, 0
0, 0
0, 0
0, 0
0, 0
0, 0
0, 0
0, 1
0, 0
0, 0
0, 0
0, 0
0, 0
0, 0
0, 0
0, 0
0, 0
0, 0
0, 0
0, 0
0, 0
0, 0
0, 0
0, 0
0, 0
0, 0
0, 0
0, 0
0, 0
0, 0
0, 0
0, 0
0, 0
0, 0
0, 0
0, 0
0, 0
0, 0
0, 0
0, 0
0, 0
0, 0
0, 0
0, 0
0, 0
0, 0
0, 0
0, 0
0, 0
0, 0
0, 0
0, 0
0, 0
0, 0
0, 0
0, 0
0, 0
0, 0
0, 0
0, 0
0, 0
0, 0
0, 0
0, 0
0, 0
0, 0
0, 0
0, 0
0, 0
0, 0
0, 0
0, 0
0, 0
0, 0
0, 0
0, 0
0, 0
0, 0
0, 0
0, 0
0, 0
0, 0
0, 0
0, 0
0, 0
0, 0
0, 0
0, 0
0, 0
0, 0
0, 0
0, 0
0, 0
0, 0
0, 0
0, 0
0, 0
0, 0
0, 0
0, 0
0, 0
0, 0
0, 0
0, 0
0, 0
0, 0
0, 0
0, 0
0, 0
0, 0
0, 0
0, 0
0, 0
0, 0
0, 0
0, 0
0, 0
0, 0
0, 0
0, 0
0, 0
0, 0
0, 0
0, 0
0, 0
0, 0
0, 0
0, 0
0, 0
0, 0
0, 0
0, 0
0, 0
0, 0
0, 0
0, 0
0, 0
0, 0
0, 0
0, 0
0, 0
0, 0
0, 0
0, 0
0, 0
0, 0
0, 0
0, 0
0, 0
0, 0
0, 0
0, 0
0, 0
0, 0
0, 0
0, 0
0, 0
0, 0
0, 0
0, 0
0, 0
0, 0
0, 0
0, 0
0, 0
0, 0
0, 0
0, 0
0, 0
0, 0
0, 0
0, 0
0, 0
0, 0
0, 0
0, 0
0, 0
0, 0
0, 0
0, 0
0, 0
0, 0
0, 0
0, 0
0, 0
0, 0
0, 0
0, 0
0, 0
0, 0
0, 0
0, 0
0, 0
0, 0
0, 0
0, 0
0, 0
0, 0
0, 0
0, 0
0, 0
0, 0
0, 0
0, 0
0, 0
0, 0
0, 0
0, 0
0, 0
0, 0
0, 0
0, 0
0, 0
0, 0
0, 0
0, 0
0, 0
0, 0
0, 0
0, 0
0, 0
0, 0
0, 0
0, 0
0, 0
0, 0
0, 0
0, 0
0, 0
0, 0
0, 0
0, 0
0, 0
0, 0
0, 0
0, 0
0, 0
0, 0
0, 0
0, 0
0, 0
0, 0
0, 0
0, 0
0, 0
0, 0
0, 0
0, 0
0, 0
0, 0
0, 0
0, 0
0, 0
0, 0
0, 0
0, 0
0, 0
0, 0
0, 0
0, 0
0, 0
0, 0
0, 0
0, 0
0, 0
0, 0
0, 0
0, 0
0, 0
0, 0
0, 0
0, 0
0, 0
0, 0
0, 0
0, 0
0, 0
0, 0
0, 0
0, 0
0, 0
0, 0
0, 0
0, 0
0, 0
0, 0
0, 0
0, 0
0, 0
0, 0
0, 0
0, 0
0, 0
0, 0
0, 0
0, 0
0, 0
0, 0
0, 0
0, 0
0, 0
0, 0
0, 0
0, 0
0, 0
0, 0
0, 0
0, 0
0, 0
0, 0
0, 0
0, 0
0, 0
0, 0
0, 0
0, 0
0, 0
0, 0
0, 0
0, 0
0, 0
0, 0
0, 0
0, 0
0, 0
0, 0
0, 0
0, 0
0, 0
0, 0
0, 0
0, 0
0, 0
0, 0
0, 0
0, 0
0, 0
0, 0
0, 0
0, 0
0, 0
0, 0
0, 0
0, 0
0, 0
0, 0
0, 0
0, 0
0, 0
0, 0
0, 0
0, 0
0, 0
0, 0
0, 0
0, 0
0, 0
0, 0
0, 0
0, 0
0, 0
0, 0
0, 0
0, 0
0, 0
0, 0
0, 0
0, 0
0, 0
0, 0
0, 0
0, 0
0, 0
0, 0
0, 0
0, 0
0, 0
0, 0
0, 0
0, 0
0, 0
0, 0
0, 0
0, 0
0, 0
0, 0
0, 0
0, 0
0, 0
0, 0
0, 0
0, 0
0, 0
0, 0
0, 0
0, 0
0, 0
0, 0
0, 0
0, 0
0, 0
0, 0
0, 0
0, 0
0, 0
0, 0
0, 0
0, 0
#ENDOFDATA     end of spectrum data