File: host_upload/06-09-2024/ps_0852/dump3/ps__0852shot_2578.msa
#FORMAT      : EMSA/MAS spectral data file
#VERSION     : TC202v2.0 PIXL
#TITLE       : N/A
#DATE        :       Date in the format DD-MMM-YYYY, for example 07-JUL-2010
#TIME        :             The time of day at which the spectrum was recorded, in 24-hour format
#OWNER       : PIXL Flight Model       (PIXL will use this to indicate which instrument took the data.)
#NPOINTS     : 4096     Number of data points in the spectrum (This can be zero for configuration only files)
#NCOLUMNS    : 2     Number of data columns in the spectrum (This can be zero for configuration only files)
#XUNITS      : eV
#YUNITS      : COUNTS
#DATATYPE    : YY
#XPERCHAN    : 7.862, 7.881   eV per channel (separate by commas if more than one detector)
#OFFSET      : 18.5, -22.4         eV of first channel  (separate by commas if more than one detector
#SIGNALTYPE  : XRF
#YP_TEMP     : 2.332
#LIVETIME    : 8.56346, 8.56462   seconds (separate by commas if more than one detector)
#REALTIME    : 10, 10.0   seconds (separate by commas if more than one detector)
#SPECTRUM    : start of spectrum data
0, 0
0, 0
0, 0
0, 0
0, 0
0, 0
0, 0
0, 0
0, 0
0, 0
0, 0
0, 0
0, 0
0, 0
0, 0
0, 0
0, 0
0, 0
0, 0
0, 0
0, 0
0, 0
0, 0
0, 0
0, 0
0, 0
0, 0
0, 0
0, 0
0, 0
0, 0
0, 0
0, 0
0, 0
0, 0
1, 0
0, 0
3, 2
1, 0
3, 6
1, 5
1, 2
0, 5
0, 5
0, 1
0, 3
2, 2
0, 3
9, 3
18, 7
25, 25
36, 43
61, 60
81, 76
90, 78
81, 91
69, 61
42, 42
26, 26
13, 11
4, 7
9, 3
6, 3
1, 3
0, 2
4, 4
3, 5
16, 12
22, 18
48, 48
99, 98
192, 154
273, 238
372, 356
477, 428
474, 411
370, 365
331, 239
225, 186
119, 120
80, 55
50, 38
22, 15
8, 7
6, 3
2, 1
3, 3
0, 0
2, 3
2, 1
1, 2
2, 2
0, 4
4, 2
0, 0
2, 0
5, 1
5, 1
3, 7
3, 2
2, 4
4, 6
3, 4
2, 7
4, 7
2, 3
1, 11
6, 8
8, 17
13, 43
6, 85
17, 138
27, 214
25, 278
34, 324
25, 367
32, 337
30, 317
21, 227
20, 129
22, 82
20, 66
18, 39
19, 17
11, 7
15, 13
14, 8
9, 9
5, 7
5, 8
3, 2
5, 6
1, 2
4, 2
4, 1
1, 3
2, 1
1, 3
2, 1
1, 2
0, 3
3, 3
1, 1
1, 2
2, 4
2, 1
5, 4
4, 3
6, 4
4, 0
8, 2
10, 1
12, 1
16, 5
19, 3
16, 12
18, 9
18, 19
16, 12
11, 17
14, 9
15, 7
10, 7
13, 3
15, 5
19, 6
44, 3
40, 4
40, 1
57, 10
72, 8
68, 4
57, 7
59, 9
39, 14
14, 15
15, 29
13, 64
17, 52
11, 68
17, 91
15, 105
11, 84
4, 82
6, 74
3, 49
5, 29
3, 23
7, 17
4, 13
8, 11
10, 9
7, 9
13, 9
7, 14
14, 9
23, 12
6, 13
20, 12
6, 13
11, 14
10, 16
6, 14
8, 15
10, 13
8, 8
4, 8
4, 6
6, 10
2, 11
7, 13
8, 9
7, 7
6, 14
5, 20
6, 20
4, 20
4, 23
5, 11
4, 15
10, 5
2, 16
9, 5
7, 11
14, 7
6, 10
8, 22
9, 13
17, 9
12, 15
16, 17
16, 14
20, 8
21, 10
39, 9
23, 8
46, 3
68, 6
70, 13
77, 11
90, 8
83, 14
82, 18
77, 26
51, 29
49, 43
53, 69
46, 68
55, 79
48, 77
64, 98
62, 85
73, 72
54, 46
35, 39
37, 31
25, 27
27, 26
17, 14
8, 20
14, 22
25, 29
36, 48
102, 106
157, 190
281, 332
517, 591
816, 903
1252, 1307
1703, 1830
2066, 2121
2507, 2419
2644, 2514
2444, 2257
2242, 1965
1831, 1460
1370, 1065
961, 730
623, 455
373, 249
179, 154
102, 54
51, 39
21, 39
19, 27
19, 22
12, 32
19, 34
21, 25
20, 37
19, 34
30, 37
47, 58
58, 90
101, 132
166, 150
210, 246
337, 288
353, 307
361, 369
359, 363
370, 317
323, 290
240, 193
216, 182
127, 118
92, 78
51, 41
35, 28
17, 32
9, 27
7, 23
11, 34
14, 14
10, 25
29, 29
22, 22
13, 18
16, 18
15, 10
17, 15
16, 13
14, 10
14, 12
3, 2
4, 4
9, 4
9, 2
5, 2
7, 5
4, 6
3, 4
5, 4
6, 2
6, 3
6, 2
7, 4
6, 6
5, 6
8, 8
8, 12
5, 6
8, 4
7, 7
7, 8
7, 12
4, 20
8, 15
8, 22
5, 19
10, 23
6, 18
5, 13
7, 18
4, 11
8, 16
10, 11
5, 8
4, 10
6, 14
4, 10
7, 16
12, 9
5, 11
7, 12
4, 6
6, 7
4, 3
2, 5
0, 3
3, 2
3, 2
0, 10
3, 6
5, 4
1, 3
3, 8
5, 5
4, 6
2, 4
3, 9
7, 6
3, 2
4, 9
2, 17
4, 9
4, 9
2, 9
0, 3
4, 4
6, 6
1, 4
5, 3
1, 3
3, 2
6, 3
2, 5
4, 0
7, 2
6, 0
13, 6
4, 2
10, 2
11, 4
13, 2
14, 3
10, 4
7, 2
5, 3
5, 1
8, 1
5, 3
2, 3
2, 5
2, 3
4, 3
8, 4
1, 1
2, 4
2, 5
3, 2
4, 4
2, 5
6, 5
3, 6
1, 10
4, 12
5, 9
4, 12
1, 14
1, 11
2, 7
1, 3
5, 11
3, 8
3, 5
6, 10
5, 4
4, 5
5, 5
1, 2
7, 3
3, 3
3, 2
11, 2
9, 2
4, 4
3, 1
4, 4
4, 3
6, 4
6, 0
2, 2
4, 1
5, 4
4, 2
7, 0
2, 0
4, 2
3, 2
4, 3
4, 1
4, 1
2, 4
2, 5
6, 2
0, 2
2, 2
3, 5
1, 2
2, 1
1, 1
1, 2
2, 2
4, 1
2, 3
1, 4
4, 1
7, 0
2, 2
2, 0
3, 2
2, 4
3, 1
1, 3
4, 1
2, 1
3, 2
0, 2
1, 5
2, 1
3, 3
2, 0
2, 4
2, 2
2, 3
1, 3
1, 6
0, 2
3, 3
4, 2
2, 0
4, 2
3, 2
5, 1
6, 4
8, 1
2, 1
5, 0
3, 2
3, 2
2, 2
6, 1
2, 4
0, 2
2, 4
1, 2
3, 4
2, 1
5, 0
5, 1
1, 0
3, 5
1, 0
2, 2
0, 1
3, 2
4, 2
3, 4
0, 3
1, 1
3, 0
2, 3
2, 0
2, 4
4, 3
2, 2
3, 6
4, 4
5, 3
8, 3
3, 4
5, 3
4, 6
5, 0
6, 2
4, 4
2, 1
1, 4
1, 1
1, 0
1, 1
1, 2
1, 2
0, 5
2, 1
2, 3
2, 2
1, 2
3, 1
0, 0
2, 2
4, 0
1, 4
1, 2
4, 2
3, 1
1, 1
2, 2
3, 1
1, 4
2, 2
1, 0
0, 2
0, 3
1, 1
1, 1
1, 1
1, 1
0, 2
1, 2
1, 0
4, 1
2, 3
1, 3
0, 1
3, 1
2, 3
1, 1
0, 0
1, 1
1, 3
3, 4
1, 1
1, 1
1, 1
0, 3
0, 3
2, 0
1, 2
0, 2
2, 1
0, 2
1, 1
0, 0
2, 0
0, 1
2, 0
1, 1
1, 1
2, 1
1, 1
0, 1
1, 0
3, 1
0, 1
2, 1
0, 1
0, 0
0, 2
1, 1
2, 1
2, 0
0, 0
0, 0
0, 0
0, 1
1, 1
1, 2
1, 2
3, 0
1, 0
1, 0
0, 2
0, 3
2, 1
1, 3
2, 0
0, 2
0, 0
0, 1
1, 3
1, 1
1, 1
1, 0
2, 1
0, 0
0, 0
0, 0
0, 0
0, 0
0, 1
0, 3
1, 0
0, 1
0, 0
0, 0
2, 1
0, 1
0, 4
0, 1
1, 0
1, 1
1, 0
1, 1
2, 0
1, 0
0, 0
2, 0
1, 0
3, 1
1, 1
0, 1
0, 0
1, 1
1, 0
1, 2
1, 1
0, 1
3, 2
1, 0
1, 1
0, 0
0, 1
1, 0
2, 2
3, 1
0, 0
0, 0
0, 0
1, 0
0, 0
0, 1
0, 0
0, 0
0, 0
0, 1
0, 1
0, 0
0, 1
1, 0
0, 0
0, 1
1, 0
0, 1
0, 0
1, 1
0, 0
0, 0
2, 0
2, 1
1, 0
1, 0
1, 0
1, 0
0, 0
0, 1
2, 0
0, 0
0, 0
0, 2
0, 1
0, 0
0, 0
0, 0
0, 0
0, 1
0, 0
0, 0
1, 0
3, 1
0, 0
1, 0
0, 0
0, 0
1, 0
0, 0
0, 0
0, 0
0, 1
0, 2
0, 1
1, 0
0, 0
0, 0
0, 0
0, 0
0, 0
0, 0
0, 0
1, 1
2, 0
0, 0
0, 0
0, 0
0, 0
1, 0
1, 1
0, 0
1, 0
0, 0
0, 0
0, 0
0, 0
1, 0
1, 0
1, 0
0, 0
0, 0
0, 1
0, 0
0, 1
0, 0
0, 1
0, 0
0, 1
1, 0
0, 1
0, 0
0, 0
1, 0
2, 0
0, 0
0, 0
0, 0
0, 0
0, 0
0, 1
1, 2
0, 1
0, 2
0, 0
0, 0
0, 1
0, 1
0, 0
1, 0
0, 1
0, 0
0, 0
0, 0
0, 0
0, 2
1, 0
2, 0
0, 0
0, 0
0, 0
0, 0
0, 0
0, 0
0, 1
1, 0
0, 0
0, 1
0, 0
1, 0
1, 0
0, 1
0, 0
0, 0
1, 0
0, 0
0, 0
0, 0
1, 0
0, 0
0, 0
0, 0
0, 0
0, 0
0, 0
0, 0
0, 0
0, 0
0, 0
0, 0
0, 0
1, 0
0, 0
0, 0
0, 0
0, 0
0, 0
1, 0
0, 0
0, 0
0, 0
0, 0
0, 1
1, 0
1, 0
0, 0
0, 0
0, 0
0, 1
0, 0
0, 0
0, 0
0, 0
0, 0
0, 0
1, 1
0, 0
0, 1
0, 0
0, 0
0, 0
0, 0
0, 1
0, 0
0, 0
0, 0
0, 0
0, 0
0, 0
0, 0
0, 0
0, 0
0, 0
0, 0
0, 0
0, 0
0, 0
0, 0
1, 0
0, 1
0, 0
0, 0
0, 0
0, 0
0, 0
0, 0
0, 0
0, 0
0, 0
0, 0
0, 0
1, 0
1, 0
0, 0
0, 0
0, 0
0, 0
0, 0
1, 0
0, 0
0, 0
0, 0
0, 0
0, 0
0, 0
1, 0
0, 0
0, 0
0, 0
0, 0
0, 0
0, 1
0, 0
0, 1
0, 0
0, 0
0, 0
1, 0
0, 0
0, 0
0, 0
0, 0
0, 0
0, 0
0, 0
0, 0
0, 0
0, 0
0, 0
0, 0
0, 0
0, 0
0, 0
0, 0
0, 0
0, 0
0, 0
0, 0
0, 0
0, 0
0, 0
0, 0
0, 0
0, 0
0, 0
0, 0
0, 0
0, 0
0, 0
0, 0
0, 0
0, 0
0, 0
0, 0
0, 0
0, 0
0, 0
0, 0
0, 0
0, 0
0, 0
0, 0
0, 0
0, 0
0, 0
0, 0
0, 0
0, 0
0, 0
0, 0
0, 0
0, 0
0, 0
0, 0
0, 0
0, 0
0, 0
0, 0
0, 0
0, 0
0, 0
0, 0
0, 0
0, 0
0, 0
0, 0
0, 0
0, 0
0, 0
0, 0
0, 0
0, 0
0, 0
0, 0
0, 0
0, 0
0, 0
0, 0
0, 0
0, 0
0, 0
0, 0
0, 0
0, 0
0, 0
0, 0
0, 0
0, 0
0, 0
0, 0
0, 0
0, 0
0, 0
0, 0
0, 0
0, 0
0, 0
0, 0
0, 0
0, 0
0, 0
0, 0
0, 0
0, 0
0, 0
0, 0
0, 0
0, 0
0, 0
0, 0
0, 0
0, 0
0, 0
0, 0
0, 0
0, 0
0, 0
0, 0
0, 0
0, 0
0, 0
0, 0
0, 0
0, 0
0, 0
0, 0
0, 0
0, 0
0, 0
0, 0
0, 0
0, 0
0, 0
0, 0
0, 0
0, 0
0, 0
0, 0
0, 0
0, 0
0, 0
0, 0
0, 0
0, 0
0, 0
0, 0
0, 0
0, 0
0, 0
0, 0
0, 0
0, 0
0, 0
0, 0
0, 0
0, 0
0, 0
0, 0
0, 0
0, 0
0, 0
0, 0
0, 0
0, 0
0, 0
0, 0
0, 0
0, 1
0, 0
0, 0
0, 0
0, 0
0, 0
0, 0
0, 0
0, 0
0, 0
0, 0
0, 0
0, 0
0, 0
0, 0
0, 0
0, 0
0, 0
0, 0
0, 0
0, 0
0, 0
0, 0
0, 0
0, 0
0, 0
0, 0
0, 0
0, 0
0, 0
0, 0
0, 0
0, 0
0, 0
0, 0
0, 0
0, 0
0, 0
0, 0
0, 0
0, 0
0, 0
0, 0
0, 0
0, 0
0, 0
0, 0
0, 0
0, 0
0, 0
0, 0
0, 0
0, 0
0, 0
0, 0
0, 0
0, 0
0, 0
0, 0
0, 0
0, 0
0, 0
0, 0
0, 0
0, 0
0, 0
0, 0
0, 0
0, 0
0, 0
0, 0
0, 0
0, 0
0, 0
0, 0
0, 0
0, 0
0, 0
0, 0
0, 0
0, 0
0, 0
0, 0
0, 0
0, 0
0, 0
0, 0
0, 0
0, 0
0, 0
0, 0
0, 0
0, 0
0, 0
0, 0
0, 0
0, 0
0, 0
0, 0
0, 0
0, 0
0, 0
0, 0
0, 0
0, 0
0, 0
0, 0
0, 0
0, 0
0, 0
0, 0
0, 0
0, 0
0, 0
0, 0
0, 0
0, 0
0, 0
0, 0
0, 0
0, 0
0, 0
0, 0
0, 0
0, 0
0, 0
0, 0
0, 0
0, 0
0, 0
0, 0
0, 0
0, 0
0, 0
0, 0
0, 0
0, 0
0, 0
0, 0
0, 0
0, 0
0, 0
0, 0
0, 0
0, 0
0, 0
0, 0
0, 0
0, 0
0, 0
0, 0
0, 0
0, 0
0, 0
0, 0
0, 0
0, 0
0, 0
0, 0
0, 0
0, 0
0, 0
0, 0
0, 0
0, 0
0, 0
0, 0
0, 0
0, 0
0, 0
0, 0
0, 0
0, 0
0, 0
0, 0
0, 0
0, 0
0, 0
0, 0
0, 0
0, 0
0, 0
0, 0
0, 0
0, 0
0, 0
0, 0
0, 0
0, 0
0, 0
0, 0
0, 0
0, 0
0, 0
0, 0
0, 0
0, 0
0, 0
0, 0
0, 0
0, 0
0, 0
0, 0
0, 0
0, 0
0, 0
0, 0
0, 0
0, 0
0, 0
0, 0
0, 0
0, 0
0, 0
0, 0
0, 0
0, 0
0, 0
0, 0
0, 0
0, 0
0, 0
0, 0
0, 0
0, 0
0, 0
0, 0
0, 0
0, 0
0, 0
0, 0
0, 0
0, 0
0, 0
0, 0
0, 0
0, 0
0, 0
0, 0
0, 0
0, 0
0, 0
0, 0
0, 0
0, 0
0, 0
0, 0
0, 0
0, 0
0, 0
0, 0
0, 0
0, 0
0, 0
0, 0
0, 0
0, 0
0, 0
0, 0
0, 0
0, 0
0, 0
0, 0
0, 0
0, 0
0, 0
0, 0
0, 0
0, 0
0, 0
0, 0
0, 0
#ENDOFDATA     end of spectrum data