File: host_upload/06-09-2024/ps_0852/dump3/ps__0852shot_2158.msa
#FORMAT      : EMSA/MAS spectral data file
#VERSION     : TC202v2.0 PIXL
#TITLE       : N/A
#DATE        :       Date in the format DD-MMM-YYYY, for example 07-JUL-2010
#TIME        :             The time of day at which the spectrum was recorded, in 24-hour format
#OWNER       : PIXL Flight Model       (PIXL will use this to indicate which instrument took the data.)
#NPOINTS     : 4096     Number of data points in the spectrum (This can be zero for configuration only files)
#NCOLUMNS    : 2     Number of data columns in the spectrum (This can be zero for configuration only files)
#XUNITS      : eV
#YUNITS      : COUNTS
#DATATYPE    : YY
#XPERCHAN    : 7.862, 7.881   eV per channel (separate by commas if more than one detector)
#OFFSET      : 18.5, -22.4         eV of first channel  (separate by commas if more than one detector
#SIGNALTYPE  : XRF
#YP_TEMP     : 2.428
#LIVETIME    : 8.57589, 8.55216   seconds (separate by commas if more than one detector)
#REALTIME    : 10, 10.0   seconds (separate by commas if more than one detector)
#SPECTRUM    : start of spectrum data
0, 0
0, 0
0, 0
0, 0
0, 0
0, 0
0, 0
0, 0
0, 0
0, 0
0, 0
0, 0
0, 0
0, 0
0, 0
0, 0
0, 0
0, 0
0, 0
0, 0
0, 0
0, 0
0, 0
0, 0
0, 0
0, 0
0, 0
0, 0
0, 0
0, 0
1, 1
0, 0
0, 0
0, 0
2, 1
0, 0
2, 1
0, 2
2, 2
1, 2
3, 2
1, 1
3, 2
2, 3
0, 2
2, 4
3, 4
4, 5
10, 6
5, 16
16, 17
33, 40
42, 49
69, 70
53, 65
36, 58
46, 59
29, 27
17, 13
9, 20
4, 8
3, 3
6, 6
6, 2
8, 7
7, 6
4, 12
3, 11
16, 24
49, 53
70, 87
131, 157
208, 218
302, 344
319, 356
311, 330
287, 297
206, 230
157, 172
97, 114
59, 72
36, 34
17, 33
9, 8
4, 4
6, 5
7, 4
2, 4
1, 0
6, 3
2, 4
8, 11
22, 23
42, 42
64, 80
124, 148
171, 214
230, 256
209, 305
252, 295
228, 286
190, 222
128, 182
75, 104
71, 85
35, 76
30, 63
28, 68
27, 72
15, 56
23, 54
48, 75
44, 57
59, 66
53, 85
64, 60
48, 52
45, 50
43, 45
26, 39
24, 19
21, 29
27, 23
19, 22
21, 14
19, 18
22, 13
13, 10
14, 17
7, 11
10, 9
5, 6
4, 7
8, 6
2, 6
4, 3
2, 3
2, 3
1, 3
2, 6
4, 2
4, 3
6, 1
3, 1
5, 3
3, 2
1, 3
2, 1
0, 1
2, 8
6, 9
26, 19
22, 33
36, 59
69, 71
86, 98
106, 115
104, 133
99, 115
98, 106
63, 74
54, 55
33, 33
19, 18
15, 10
9, 8
5, 11
9, 11
12, 14
15, 12
21, 11
14, 20
19, 23
21, 10
10, 12
8, 9
11, 8
7, 5
6, 8
1, 3
2, 5
5, 4
2, 3
3, 5
4, 5
6, 3
2, 9
8, 7
3, 13
8, 8
11, 18
13, 19
14, 11
17, 19
11, 15
19, 23
13, 26
14, 30
21, 24
18, 21
9, 16
7, 10
7, 18
9, 12
7, 16
6, 15
10, 21
6, 29
8, 43
6, 55
5, 53
5, 73
13, 69
12, 80
5, 63
4, 38
4, 23
5, 26
7, 20
9, 14
5, 9
6, 13
8, 3
14, 7
11, 10
8, 13
16, 22
19, 21
20, 29
31, 28
27, 32
31, 27
32, 17
39, 21
21, 20
18, 20
12, 14
11, 12
10, 9
5, 14
7, 10
6, 15
7, 13
11, 12
14, 15
14, 19
24, 34
46, 35
38, 50
52, 63
40, 66
55, 63
61, 59
41, 57
40, 41
31, 31
21, 26
18, 16
8, 18
13, 18
16, 18
21, 28
29, 53
53, 99
125, 208
253, 377
412, 600
644, 973
968, 1308
1203, 1735
1612, 2101
1945, 2297
1955, 2419
2016, 2231
1866, 1956
1505, 1526
1201, 1052
825, 701
623, 420
390, 243
225, 152
122, 92
65, 50
45, 21
27, 22
19, 22
15, 12
11, 12
7, 19
10, 22
14, 21
31, 51
31, 47
60, 78
100, 115
108, 176
158, 229
203, 311
266, 322
281, 344
298, 368
320, 342
233, 288
186, 216
140, 147
126, 100
61, 73
51, 40
27, 28
15, 17
9, 14
8, 21
5, 13
8, 20
11, 22
12, 40
12, 45
10, 39
13, 36
13, 24
5, 29
15, 16
7, 15
6, 7
4, 7
11, 8
1, 6
6, 6
4, 5
8, 4
2, 8
2, 2
4, 7
1, 9
4, 4
4, 6
3, 6
6, 10
12, 7
2, 11
4, 9
2, 7
4, 2
2, 10
4, 9
4, 7
3, 3
6, 6
3, 7
4, 5
0, 6
7, 3
1, 3
8, 4
4, 4
1, 2
3, 4
4, 10
4, 7
1, 6
3, 2
4, 3
5, 6
6, 2
5, 2
4, 5
4, 5
4, 4
3, 8
6, 4
3, 1
5, 2
2, 0
6, 3
4, 10
4, 0
0, 4
2, 1
2, 5
5, 1
3, 2
5, 11
0, 5
4, 6
2, 15
1, 9
4, 9
3, 12
3, 6
4, 9
2, 10
2, 13
4, 7
5, 6
6, 7
2, 5
4, 5
2, 0
4, 6
3, 4
6, 5
3, 2
2, 1
2, 4
2, 3
4, 6
2, 4
0, 5
5, 4
2, 3
3, 5
3, 7
7, 6
4, 8
5, 3
0, 5
5, 8
3, 14
5, 8
3, 15
3, 9
3, 16
2, 11
4, 10
3, 9
0, 5
0, 8
2, 5
6, 4
5, 2
1, 5
1, 3
3, 1
1, 6
3, 3
2, 1
3, 3
3, 1
1, 2
2, 3
0, 2
4, 2
4, 3
2, 1
2, 0
5, 3
7, 1
6, 2
3, 4
4, 2
0, 1
8, 4
3, 2
4, 1
3, 0
5, 3
2, 3
5, 1
4, 1
6, 3
6, 2
9, 0
10, 1
10, 3
8, 5
4, 1
7, 1
10, 2
5, 2
4, 1
2, 2
4, 6
3, 1
2, 1
2, 2
2, 2
1, 3
1, 5
3, 3
1, 3
1, 1
4, 2
2, 3
1, 5
2, 2
1, 2
5, 2
4, 3
1, 2
4, 3
1, 4
0, 3
2, 3
0, 4
2, 3
0, 3
1, 1
3, 4
3, 2
2, 3
4, 0
0, 2
2, 2
5, 1
3, 3
2, 1
2, 2
2, 2
3, 0
3, 1
2, 2
2, 2
1, 2
0, 5
1, 1
1, 0
0, 3
2, 3
0, 4
1, 3
1, 2
3, 0
3, 3
0, 1
1, 2
2, 2
0, 5
1, 3
1, 0
3, 0
1, 0
0, 2
3, 5
0, 4
1, 3
2, 3
1, 1
1, 1
2, 2
3, 2
0, 8
3, 2
2, 2
3, 7
2, 10
5, 7
2, 3
2, 2
2, 0
1, 1
2, 3
0, 1
0, 3
0, 0
3, 2
2, 0
0, 2
1, 2
3, 0
0, 3
3, 0
1, 3
4, 3
2, 4
1, 3
1, 1
3, 0
0, 0
1, 2
1, 2
3, 2
1, 2
2, 0
2, 2
1, 2
1, 2
1, 1
1, 0
1, 1
1, 0
5, 3
2, 3
2, 0
0, 0
0, 5
1, 2
3, 2
1, 1
2, 2
0, 2
0, 2
3, 2
2, 1
0, 1
1, 1
0, 0
0, 2
1, 2
0, 0
1, 0
0, 0
0, 1
2, 1
4, 0
2, 0
1, 0
0, 0
0, 0
1, 2
1, 1
0, 1
1, 4
1, 1
0, 1
1, 3
0, 1
0, 0
1, 1
0, 2
1, 1
0, 0
1, 0
0, 0
0, 3
0, 0
0, 0
0, 0
1, 1
0, 0
0, 0
0, 2
0, 1
0, 0
0, 0
0, 0
1, 1
0, 1
0, 1
1, 0
1, 1
3, 0
0, 0
0, 0
0, 1
1, 1
0, 0
1, 0
0, 0
0, 0
1, 1
0, 0
1, 0
0, 3
0, 0
1, 0
1, 1
3, 2
0, 0
0, 0
1, 0
0, 0
0, 1
1, 2
0, 0
1, 1
1, 1
0, 1
0, 0
1, 0
1, 1
0, 1
0, 0
1, 0
0, 0
1, 0
0, 0
0, 1
1, 2
0, 1
0, 0
1, 0
0, 0
0, 0
0, 0
2, 1
1, 0
1, 1
0, 0
1, 0
0, 2
0, 0
3, 1
0, 0
0, 0
0, 0
1, 0
0, 1
0, 1
1, 1
1, 0
0, 1
2, 1
0, 0
2, 0
1, 0
0, 1
0, 1
0, 1
0, 0
0, 0
0, 0
2, 1
0, 1
0, 0
0, 0
0, 1
0, 1
0, 1
0, 0
0, 0
0, 2
0, 1
0, 1
2, 0
0, 0
0, 1
1, 1
0, 0
0, 0
0, 0
2, 1
0, 0
1, 0
1, 0
0, 1
0, 0
1, 0
0, 0
0, 0
0, 1
0, 1
0, 0
0, 2
1, 0
0, 0
0, 0
1, 1
0, 0
0, 1
0, 0
0, 0
0, 0
0, 0
0, 0
0, 1
0, 0
0, 0
0, 0
1, 0
1, 0
0, 0
0, 0
0, 1
0, 0
2, 2
0, 0
0, 0
0, 0
0, 3
0, 1
0, 0
0, 0
0, 0
1, 1
1, 1
0, 0
0, 0
0, 0
0, 0
0, 0
1, 0
0, 0
0, 0
0, 0
0, 1
1, 0
0, 0
0, 0
0, 0
0, 0
0, 0
1, 1
0, 0
0, 1
1, 0
1, 0
0, 1
1, 0
0, 0
0, 0
1, 2
0, 0
0, 0
2, 0
1, 0
0, 0
1, 0
0, 0
0, 0
0, 0
0, 0
0, 1
0, 0
1, 0
1, 0
0, 0
0, 0
1, 0
0, 0
0, 0
0, 0
0, 0
0, 0
0, 0
1, 0
0, 0
0, 0
0, 0
0, 0
0, 0
1, 0
0, 0
0, 0
0, 0
0, 1
1, 0
0, 1
0, 0
0, 0
0, 0
0, 0
0, 0
0, 0
0, 1
0, 0
0, 0
0, 0
0, 0
0, 0
0, 0
0, 0
0, 0
0, 0
0, 0
0, 0
1, 1
0, 0
0, 0
0, 0
1, 0
0, 0
0, 0
0, 0
0, 0
0, 0
0, 0
0, 0
0, 0
0, 0
0, 0
0, 0
0, 0
0, 0
0, 1
0, 0
0, 1
0, 0
0, 0
0, 0
0, 0
0, 0
0, 0
0, 0
0, 1
0, 0
0, 0
0, 0
0, 0
0, 0
0, 0
0, 0
0, 0
0, 0
0, 0
0, 0
0, 0
0, 0
0, 0
0, 0
0, 0
0, 0
0, 0
0, 0
0, 0
0, 0
0, 0
0, 0
0, 0
0, 0
0, 0
0, 0
0, 0
0, 0
0, 0
0, 0
0, 1
0, 0
0, 0
0, 0
0, 0
0, 0
0, 0
0, 0
0, 0
0, 0
0, 0
0, 0
0, 0
0, 0
0, 0
0, 0
0, 0
0, 0
0, 0
0, 0
0, 0
0, 0
0, 0
0, 0
0, 0
0, 0
0, 0
0, 0
0, 0
0, 0
0, 0
0, 1
0, 0
0, 0
0, 0
0, 0
0, 0
0, 0
0, 0
0, 0
0, 0
0, 0
0, 0
0, 0
0, 0
0, 0
0, 0
0, 0
0, 0
0, 0
0, 0
0, 0
0, 0
0, 0
0, 0
0, 0
0, 0
0, 0
0, 0
0, 0
0, 0
0, 0
0, 0
0, 0
0, 0
0, 0
0, 0
0, 0
0, 0
0, 0
0, 0
0, 1
0, 0
0, 0
0, 0
0, 0
0, 0
0, 0
0, 0
0, 0
0, 0
0, 0
0, 0
0, 0
0, 0
0, 0
0, 0
0, 0
0, 0
0, 0
0, 0
0, 0
0, 0
0, 0
0, 0
0, 0
0, 0
0, 0
0, 0
0, 0
0, 0
0, 0
0, 0
0, 0
0, 0
0, 0
0, 0
0, 0
0, 0
0, 0
0, 0
0, 0
0, 0
0, 0
0, 0
0, 0
0, 0
0, 0
0, 0
0, 0
0, 0
0, 0
0, 0
0, 0
0, 0
0, 0
0, 0
0, 0
0, 0
0, 0
0, 0
0, 0
0, 0
0, 0
0, 0
0, 0
0, 0
0, 0
0, 0
0, 0
0, 0
0, 0
0, 0
0, 0
0, 0
0, 0
0, 0
0, 0
0, 0
0, 0
0, 0
0, 0
0, 0
0, 0
0, 0
0, 0
0, 0
0, 0
0, 0
0, 0
0, 0
0, 0
0, 0
0, 0
0, 0
0, 0
0, 0
0, 0
0, 0
0, 0
0, 0
0, 0
0, 0
0, 0
0, 0
0, 0
0, 0
0, 0
0, 0
0, 0
0, 0
0, 0
0, 0
0, 0
0, 0
0, 0
0, 0
0, 0
0, 0
0, 0
0, 0
0, 0
0, 0
0, 0
0, 0
0, 0
0, 0
0, 0
0, 0
0, 0
0, 0
0, 0
0, 0
0, 0
0, 0
0, 0
0, 0
0, 0
0, 0
0, 0
0, 0
0, 0
0, 0
0, 0
0, 0
0, 0
0, 0
0, 0
0, 0
0, 0
0, 0
0, 0
0, 0
0, 0
0, 0
0, 0
0, 0
0, 0
0, 0
0, 0
0, 0
0, 0
0, 0
0, 0
0, 0
0, 0
0, 0
0, 0
0, 0
0, 0
0, 0
0, 0
0, 0
0, 0
0, 0
0, 0
0, 0
0, 0
0, 0
0, 0
0, 0
0, 0
0, 0
0, 0
0, 0
0, 0
0, 0
0, 0
0, 0
0, 0
0, 0
0, 0
0, 0
0, 0
0, 0
0, 0
0, 0
0, 0
0, 0
0, 0
0, 0
0, 0
0, 0
0, 0
0, 0
0, 0
0, 0
0, 0
0, 0
0, 0
0, 0
0, 0
0, 0
0, 0
0, 0
0, 0
0, 0
0, 0
0, 0
0, 0
0, 0
0, 0
0, 0
0, 0
0, 0
0, 0
0, 0
0, 0
0, 0
0, 0
0, 0
0, 0
0, 0
0, 0
0, 0
0, 0
0, 0
0, 0
0, 0
0, 0
0, 0
0, 0
0, 0
0, 0
0, 0
0, 0
0, 0
0, 0
0, 0
0, 0
0, 0
0, 0
0, 0
0, 0
0, 0
0, 0
0, 0
0, 0
0, 0
0, 0
0, 0
0, 0
0, 0
0, 0
0, 0
0, 0
0, 0
0, 0
0, 0
0, 0
0, 0
0, 0
0, 0
0, 0
0, 0
0, 0
0, 0
0, 0
0, 0
0, 0
0, 0
0, 0
0, 0
0, 0
0, 0
0, 0
0, 0
0, 0
0, 0
0, 0
0, 0
0, 0
0, 0
0, 0
0, 0
0, 0
0, 0
0, 0
0, 0
0, 0
0, 0
0, 0
0, 0
0, 0
0, 0
0, 0
0, 0
0, 0
0, 0
0, 0
0, 0
0, 0
0, 0
0, 0
0, 0
0, 0
0, 0
0, 0
0, 0
0, 0
0, 0
0, 0
0, 0
0, 0
0, 0
0, 0
0, 0
0, 0
0, 0
0, 0
0, 0
0, 0
0, 0
0, 0
0, 0
0, 0
0, 0
0, 0
0, 0
0, 0
0, 0
0, 0
0, 0
0, 0
0, 0
0, 0
0, 0
0, 0
0, 0
0, 0
0, 0
0, 0
0, 0
0, 0
0, 0
0, 0
0, 0
0, 0
0, 0
0, 0
0, 0
0, 0
0, 0
0, 0
0, 0
0, 0
0, 0
0, 0
0, 0
0, 0
0, 0
0, 0
0, 0
0, 0
0, 0
0, 0
0, 0
0, 0
0, 0
0, 0
0, 0
#ENDOFDATA     end of spectrum data