File: host_upload/06-09-2024/ps_0852/dump3/ps__0852shot_2295.msa
#FORMAT      : EMSA/MAS spectral data file
#VERSION     : TC202v2.0 PIXL
#TITLE       : N/A
#DATE        :       Date in the format DD-MMM-YYYY, for example 07-JUL-2010
#TIME        :             The time of day at which the spectrum was recorded, in 24-hour format
#OWNER       : PIXL Flight Model       (PIXL will use this to indicate which instrument took the data.)
#NPOINTS     : 4096     Number of data points in the spectrum (This can be zero for configuration only files)
#NCOLUMNS    : 2     Number of data columns in the spectrum (This can be zero for configuration only files)
#XUNITS      : eV
#YUNITS      : COUNTS
#DATATYPE    : YY
#XPERCHAN    : 7.862, 7.881   eV per channel (separate by commas if more than one detector)
#OFFSET      : 18.5, -22.4         eV of first channel  (separate by commas if more than one detector
#SIGNALTYPE  : XRF
#YP_TEMP     : 2.075
#LIVETIME    : 8.57119, 8.37207   seconds (separate by commas if more than one detector)
#REALTIME    : 10, 10.0   seconds (separate by commas if more than one detector)
#SPECTRUM    : start of spectrum data
0, 0
0, 0
0, 0
0, 0
0, 0
0, 0
0, 0
0, 0
0, 0
0, 0
0, 0
0, 0
0, 0
0, 0
0, 0
0, 0
0, 0
0, 0
0, 0
0, 0
0, 0
0, 0
0, 0
0, 0
0, 0
0, 0
0, 0
0, 0
0, 0
0, 0
0, 0
0, 0
0, 0
0, 0
0, 0
0, 1
0, 1
0, 0
0, 0
0, 2
0, 1
0, 1
2, 2
0, 1
2, 0
0, 2
1, 2
2, 0
11, 6
9, 10
27, 21
48, 37
70, 65
90, 60
83, 78
78, 74
64, 53
46, 30
31, 23
17, 8
7, 14
5, 3
1, 3
3, 2
4, 0
7, 3
9, 4
14, 16
22, 20
54, 34
110, 81
212, 165
310, 304
376, 378
408, 379
419, 391
375, 367
292, 270
240, 182
132, 115
78, 59
34, 40
34, 15
9, 4
3, 4
1, 1
1, 2
4, 2
2, 4
1, 1
1, 5
5, 3
4, 0
4, 2
7, 13
11, 22
22, 20
34, 32
29, 29
31, 32
34, 30
37, 17
9, 11
19, 12
10, 5
6, 5
2, 9
6, 10
8, 12
10, 10
27, 12
23, 16
24, 17
29, 28
30, 25
32, 29
43, 22
36, 24
25, 21
37, 23
17, 27
18, 16
15, 15
16, 15
16, 14
8, 10
12, 13
7, 14
7, 9
5, 4
3, 5
5, 5
1, 5
2, 1
1, 4
1, 1
3, 4
1, 0
1, 4
2, 0
2, 1
1, 1
1, 2
3, 3
5, 0
4, 1
6, 0
7, 1
13, 3
20, 3
25, 3
36, 3
48, 3
49, 5
63, 9
44, 11
44, 10
29, 8
24, 18
17, 8
22, 11
7, 14
9, 5
8, 1
3, 9
6, 6
3, 4
5, 2
5, 7
8, 4
5, 7
5, 5
3, 6
7, 6
4, 5
10, 6
1, 10
7, 15
5, 9
5, 8
2, 6
3, 6
4, 11
5, 6
4, 6
5, 2
4, 5
1, 3
8, 6
4, 7
7, 11
8, 9
8, 10
10, 9
12, 26
12, 23
11, 26
15, 24
13, 32
8, 26
17, 18
10, 24
14, 24
8, 17
7, 8
4, 13
5, 8
11, 10
5, 4
10, 7
7, 6
10, 8
4, 8
10, 8
10, 5
6, 10
8, 9
12, 5
15, 8
18, 10
12, 7
10, 12
23, 12
13, 9
32, 13
33, 11
53, 3
62, 6
90, 10
80, 16
75, 14
87, 14
71, 12
56, 11
54, 4
42, 10
26, 2
18, 5
14, 11
16, 10
7, 10
14, 6
12, 9
10, 13
11, 13
16, 24
31, 35
38, 30
50, 49
51, 62
51, 67
69, 48
49, 55
55, 45
49, 42
33, 27
28, 28
32, 20
28, 11
26, 21
38, 16
33, 38
53, 39
85, 98
171, 204
297, 297
481, 574
781, 874
1203, 1266
1626, 1727
2076, 2062
2320, 2265
2475, 2392
2437, 2195
2164, 1834
1788, 1451
1323, 1063
927, 739
564, 460
338, 280
213, 127
105, 87
64, 50
42, 26
44, 27
40, 13
41, 16
43, 15
25, 9
38, 17
49, 33
51, 42
66, 66
91, 88
120, 131
161, 176
196, 237
276, 304
299, 362
345, 392
369, 413
337, 356
291, 302
255, 251
188, 193
145, 147
92, 94
81, 51
38, 43
24, 25
15, 13
8, 11
6, 7
10, 11
8, 13
12, 17
16, 15
2, 17
11, 16
16, 14
11, 16
9, 13
8, 10
7, 7
4, 10
4, 12
3, 7
2, 7
5, 9
5, 2
5, 5
5, 3
5, 3
3, 4
6, 2
5, 4
3, 5
1, 2
6, 7
1, 6
3, 2
3, 6
6, 1
7, 7
4, 3
5, 3
5, 5
5, 11
8, 6
7, 5
3, 6
6, 3
11, 3
10, 5
8, 4
5, 2
8, 6
4, 1
10, 7
5, 1
3, 6
5, 2
5, 3
5, 0
3, 2
5, 2
7, 4
1, 7
2, 6
3, 7
3, 5
6, 3
1, 4
2, 4
6, 3
2, 3
5, 5
3, 3
6, 4
2, 2
5, 4
3, 4
6, 3
5, 2
5, 5
1, 6
4, 7
4, 10
4, 5
7, 2
4, 5
3, 19
3, 9
5, 9
2, 20
4, 19
8, 21
7, 17
3, 12
3, 16
3, 14
4, 12
2, 4
1, 7
3, 3
3, 6
0, 9
2, 3
3, 4
2, 3
3, 5
4, 5
6, 3
2, 4
8, 3
11, 1
3, 1
14, 5
10, 2
5, 1
6, 7
7, 1
7, 5
5, 2
4, 2
2, 1
5, 4
6, 2
6, 2
5, 5
3, 3
6, 1
3, 5
1, 2
2, 6
3, 5
4, 3
5, 1
4, 6
5, 1
3, 1
6, 2
2, 3
1, 1
5, 3
4, 5
3, 3
2, 3
7, 1
4, 5
4, 3
1, 6
3, 5
5, 6
1, 2
1, 3
3, 1
1, 3
2, 3
1, 3
3, 4
4, 2
5, 2
2, 3
1, 3
4, 2
2, 2
2, 3
1, 6
3, 5
0, 2
0, 1
0, 4
3, 0
3, 0
0, 1
0, 2
3, 1
3, 3
2, 5
5, 4
1, 3
3, 0
0, 3
3, 1
1, 3
0, 3
3, 5
1, 0
2, 2
1, 0
3, 3
2, 2
3, 1
0, 3
3, 1
1, 2
3, 7
1, 5
2, 2
1, 0
0, 5
0, 1
2, 1
1, 1
2, 1
2, 4
4, 4
2, 4
4, 2
4, 2
4, 1
2, 2
1, 3
2, 3
2, 3
3, 0
3, 1
4, 2
2, 1
5, 1
4, 0
2, 3
5, 3
2, 4
2, 3
4, 3
1, 1
3, 3
2, 0
0, 0
2, 1
1, 1
3, 0
0, 4
0, 2
4, 2
2, 3
1, 4
5, 4
5, 4
2, 1
4, 6
1, 6
4, 6
7, 6
4, 4
6, 3
1, 1
2, 3
1, 1
3, 3
3, 1
2, 3
3, 0
1, 1
0, 1
0, 2
1, 0
0, 2
0, 2
0, 2
1, 0
4, 1
1, 3
2, 0
2, 0
2, 3
0, 0
5, 0
2, 5
1, 1
1, 1
0, 2
0, 1
3, 2
1, 1
1, 1
1, 1
0, 0
1, 0
1, 2
2, 0
1, 0
0, 1
0, 2
0, 0
1, 1
3, 1
0, 1
1, 1
0, 0
2, 1
0, 4
0, 1
1, 2
0, 1
3, 1
0, 1
0, 1
2, 3
1, 1
1, 1
0, 0
2, 0
3, 2
1, 0
1, 0
1, 1
1, 0
1, 2
1, 2
5, 1
1, 2
1, 2
0, 1
2, 0
1, 0
2, 1
2, 1
0, 0
0, 0
2, 0
0, 2
1, 0
0, 0
1, 2
0, 2
1, 0
0, 0
2, 0
0, 0
0, 0
0, 0
0, 3
0, 1
0, 0
1, 1
1, 1
0, 0
1, 2
1, 1
0, 0
2, 1
0, 0
0, 0
0, 1
3, 0
0, 1
0, 1
1, 2
0, 0
2, 3
1, 0
0, 0
0, 0
0, 0
0, 1
0, 3
0, 1
2, 0
1, 0
0, 1
0, 1
0, 1
1, 1
1, 2
0, 0
1, 1
1, 0
0, 0
0, 1
0, 0
0, 0
1, 0
0, 0
1, 1
1, 0
0, 0
1, 0
0, 1
1, 1
2, 0
0, 0
0, 0
0, 0
0, 0
0, 0
0, 1
1, 0
0, 0
2, 0
0, 2
2, 1
0, 0
1, 0
0, 0
0, 1
0, 0
2, 0
1, 1
0, 0
3, 0
0, 1
0, 0
0, 1
0, 0
1, 2
0, 0
0, 0
1, 0
0, 1
0, 0
0, 1
0, 1
0, 0
2, 2
0, 1
0, 0
0, 0
1, 0
1, 0
2, 0
1, 0
0, 1
1, 0
1, 0
0, 0
0, 0
0, 0
0, 0
0, 1
0, 1
0, 1
0, 0
0, 0
1, 0
0, 0
0, 1
0, 0
0, 2
0, 0
0, 0
0, 0
0, 0
0, 1
1, 2
1, 0
0, 1
0, 0
0, 0
0, 0
0, 0
0, 0
1, 0
0, 0
0, 0
0, 0
0, 0
0, 0
0, 0
0, 0
1, 0
1, 0
0, 1
1, 0
2, 0
0, 0
0, 0
0, 0
0, 0
0, 1
0, 1
1, 1
2, 1
1, 1
0, 0
0, 1
1, 0
0, 0
1, 0
0, 0
0, 0
0, 1
0, 0
1, 0
0, 0
0, 0
0, 0
1, 1
0, 0
0, 0
1, 0
0, 0
0, 0
0, 0
0, 0
0, 0
0, 0
0, 0
0, 0
1, 0
1, 0
1, 0
1, 1
0, 0
1, 0
1, 0
1, 0
0, 0
1, 0
1, 0
0, 0
0, 1
2, 0
0, 0
0, 0
0, 0
0, 0
0, 0
0, 0
0, 0
0, 0
0, 0
0, 0
0, 0
0, 0
0, 0
0, 0
0, 0
0, 0
0, 0
0, 0
0, 0
1, 0
0, 0
0, 0
0, 0
0, 0
0, 1
0, 0
0, 0
0, 0
0, 1
0, 0
1, 0
0, 0
0, 0
0, 0
0, 0
0, 0
1, 0
1, 0
1, 0
0, 0
1, 0
0, 0
0, 0
0, 0
0, 0
0, 0
0, 0
0, 0
1, 0
0, 0
0, 0
0, 0
1, 0
0, 0
0, 0
0, 0
0, 0
1, 0
0, 1
0, 0
0, 0
1, 0
0, 0
0, 0
0, 0
0, 0
0, 0
0, 0
0, 0
0, 0
0, 0
1, 0
0, 1
0, 1
1, 0
0, 0
0, 0
0, 0
0, 0
0, 0
0, 0
0, 0
0, 0
1, 0
0, 0
0, 0
0, 0
0, 0
0, 0
0, 0
0, 0
0, 0
0, 0
0, 0
0, 0
0, 0
0, 0
0, 0
0, 0
0, 0
0, 0
0, 0
0, 0
0, 0
0, 0
0, 0
2, 0
0, 0
0, 0
0, 0
0, 0
0, 0
0, 0
0, 0
0, 0
0, 0
0, 0
0, 0
0, 0
0, 0
0, 0
0, 0
0, 0
0, 0
0, 1
0, 0
0, 0
0, 0
0, 0
0, 0
0, 0
0, 0
0, 0
0, 0
0, 0
0, 0
0, 0
0, 0
0, 0
0, 1
0, 0
1, 0
0, 0
0, 0
0, 0
0, 0
0, 1
0, 0
0, 0
0, 0
0, 0
0, 0
0, 0
0, 0
0, 0
0, 0
0, 0
1, 0
0, 0
0, 0
0, 0
0, 0
0, 0
0, 0
0, 0
0, 0
0, 0
0, 0
0, 0
0, 0
0, 0
0, 0
0, 0
0, 0
0, 0
0, 0
0, 0
0, 0
0, 0
0, 0
0, 0
0, 0
0, 0
0, 0
0, 0
0, 0
0, 0
0, 0
0, 0
0, 0
0, 0
0, 0
0, 0
0, 0
0, 0
0, 0
0, 0
0, 0
0, 0
0, 0
0, 0
0, 0
0, 0
0, 0
0, 0
0, 0
0, 0
0, 0
0, 0
0, 0
0, 0
0, 0
1, 0
0, 0
0, 0
0, 0
0, 0
0, 0
0, 0
0, 0
0, 0
0, 0
0, 0
0, 0
0, 0
0, 0
0, 0
0, 0
0, 0
0, 0
0, 0
0, 0
0, 0
0, 0
0, 0
0, 0
0, 0
0, 0
0, 0
0, 0
0, 0
0, 0
0, 0
0, 0
0, 0
0, 0
0, 0
0, 0
0, 0
0, 0
0, 0
0, 0
0, 0
0, 0
0, 0
0, 0
0, 0
0, 0
0, 0
0, 0
0, 0
0, 0
0, 0
0, 0
0, 0
0, 0
0, 0
0, 0
0, 0
0, 0
0, 0
0, 0
0, 0
0, 0
0, 0
0, 0
0, 0
0, 0
0, 0
0, 0
0, 0
0, 0
0, 0
0, 0
0, 0
0, 0
0, 0
0, 0
0, 0
0, 0
0, 0
0, 0
0, 0
0, 0
0, 0
0, 0
0, 0
0, 0
0, 0
0, 0
0, 0
0, 0
0, 0
0, 0
0, 0
0, 0
0, 0
0, 0
0, 0
0, 0
0, 0
0, 0
0, 0
0, 0
0, 0
0, 0
0, 0
0, 0
0, 0
0, 0
0, 0
0, 0
0, 0
0, 0
0, 0
0, 0
0, 0
0, 0
0, 0
0, 0
0, 0
0, 0
0, 0
0, 0
0, 0
0, 0
0, 0
0, 0
0, 0
0, 0
0, 0
0, 0
0, 0
0, 0
0, 0
0, 0
0, 0
0, 0
0, 0
0, 0
0, 0
0, 0
0, 0
0, 0
0, 0
0, 0
0, 0
0, 0
0, 0
0, 0
0, 0
0, 0
0, 0
0, 0
0, 0
0, 0
0, 0
0, 0
0, 0
0, 0
0, 0
0, 0
0, 0
0, 0
0, 0
0, 0
0, 0
0, 0
0, 0
0, 0
0, 0
0, 0
0, 0
0, 0
0, 0
0, 0
0, 0
0, 0
0, 0
0, 0
0, 0
0, 0
0, 0
0, 0
0, 0
0, 0
0, 0
0, 0
0, 0
0, 0
0, 0
0, 0
0, 0
0, 0
0, 0
0, 0
0, 0
0, 0
0, 0
0, 0
0, 0
0, 0
0, 0
0, 0
0, 0
0, 0
0, 0
0, 0
0, 0
0, 0
0, 0
0, 0
0, 0
0, 0
0, 0
0, 0
0, 0
0, 0
0, 0
0, 0
0, 0
0, 0
0, 0
0, 0
0, 0
0, 0
0, 0
0, 0
0, 0
0, 0
0, 0
0, 0
0, 0
0, 0
0, 0
0, 0
0, 0
0, 0
0, 0
0, 0
0, 0
0, 0
0, 0
0, 0
0, 0
0, 0
0, 0
0, 0
0, 0
0, 0
0, 0
0, 0
0, 0
0, 0
0, 0
0, 0
0, 0
0, 0
0, 0
0, 0
0, 0
0, 0
0, 0
0, 0
0, 0
0, 0
0, 0
0, 0
0, 0
0, 0
0, 0
0, 0
0, 0
0, 0
0, 0
0, 0
0, 0
0, 0
0, 0
0, 0
0, 0
0, 0
0, 0
0, 0
0, 0
0, 0
0, 0
0, 0
0, 0
0, 0
0, 0
0, 0
0, 0
0, 0
0, 0
0, 0
0, 0
0, 0
0, 0
0, 0
0, 0
0, 0
0, 0
0, 0
0, 0
0, 0
0, 0
0, 0
0, 0
0, 0
0, 0
0, 0
0, 0
0, 0
0, 0
0, 0
0, 0
0, 0
0, 0
0, 0
0, 0
0, 0
0, 0
0, 0
0, 0
0, 0
0, 0
0, 0
0, 0
0, 0
0, 0
0, 0
0, 0
0, 0
0, 0
0, 0
0, 0
0, 0
0, 0
0, 0
0, 0
#ENDOFDATA     end of spectrum data