File: host_upload/06-09-2024/ps_0852/dump3/ps__0852shot_2188.msa
#FORMAT      : EMSA/MAS spectral data file
#VERSION     : TC202v2.0 PIXL
#TITLE       : N/A
#DATE        :       Date in the format DD-MMM-YYYY, for example 07-JUL-2010
#TIME        :             The time of day at which the spectrum was recorded, in 24-hour format
#OWNER       : PIXL Flight Model       (PIXL will use this to indicate which instrument took the data.)
#NPOINTS     : 4096     Number of data points in the spectrum (This can be zero for configuration only files)
#NCOLUMNS    : 2     Number of data columns in the spectrum (This can be zero for configuration only files)
#XUNITS      : eV
#YUNITS      : COUNTS
#DATATYPE    : YY
#XPERCHAN    : 7.862, 7.881   eV per channel (separate by commas if more than one detector)
#OFFSET      : 18.5, -22.4         eV of first channel  (separate by commas if more than one detector
#SIGNALTYPE  : XRF
#YP_TEMP     : 2.203
#LIVETIME    : 8.5373, 8.57309   seconds (separate by commas if more than one detector)
#REALTIME    : 10, 10.0   seconds (separate by commas if more than one detector)
#SPECTRUM    : start of spectrum data
0, 0
0, 0
0, 0
0, 0
0, 0
0, 0
0, 0
0, 0
0, 0
0, 0
0, 0
0, 0
0, 0
0, 0
0, 0
0, 0
0, 0
0, 0
0, 0
0, 0
0, 0
0, 0
0, 0
0, 0
0, 0
0, 0
0, 0
0, 0
0, 0
0, 0
0, 0
0, 0
0, 0
1, 0
0, 0
0, 0
1, 1
0, 0
1, 1
2, 0
5, 1
5, 0
6, 0
12, 1
3, 1
3, 1
3, 2
6, 5
12, 5
22, 15
24, 24
37, 52
66, 62
76, 78
74, 92
83, 87
71, 54
40, 50
20, 21
13, 18
7, 10
1, 4
4, 3
4, 3
2, 2
8, 3
5, 5
9, 15
26, 25
53, 61
88, 106
157, 190
254, 301
334, 358
379, 444
407, 420
405, 427
286, 269
214, 206
103, 146
61, 73
45, 38
19, 17
14, 4
5, 4
1, 0
2, 3
3, 2
1, 1
0, 1
4, 1
1, 2
2, 0
0, 0
1, 0
1, 2
2, 2
0, 0
4, 3
2, 3
4, 3
2, 1
2, 6
3, 3
4, 1
1, 2
9, 3
11, 6
23, 7
54, 10
90, 11
206, 18
290, 21
424, 34
541, 25
555, 34
563, 25
466, 22
363, 20
244, 19
168, 24
87, 22
50, 16
28, 8
30, 10
14, 9
9, 11
7, 15
10, 8
2, 8
8, 7
2, 5
2, 1
1, 4
2, 2
1, 1
1, 4
4, 1
0, 1
1, 1
0, 4
1, 2
1, 1
1, 4
0, 3
0, 1
1, 1
2, 0
2, 1
0, 4
2, 1
1, 5
3, 5
13, 8
9, 10
11, 12
7, 14
14, 20
15, 19
11, 19
13, 8
8, 4
8, 5
3, 7
3, 1
2, 2
1, 3
4, 2
3, 2
5, 4
11, 4
9, 6
26, 5
21, 3
47, 2
44, 2
69, 2
48, 4
64, 2
38, 3
37, 2
26, 2
14, 6
9, 5
9, 2
5, 3
1, 7
5, 5
7, 4
3, 8
4, 7
10, 11
10, 12
5, 11
14, 15
16, 13
9, 18
8, 33
10, 47
14, 52
6, 93
7, 83
4, 116
9, 115
6, 142
5, 101
4, 115
6, 80
4, 60
5, 34
7, 23
4, 11
5, 7
5, 10
5, 7
7, 7
0, 5
5, 8
1, 11
3, 9
7, 6
6, 2
4, 12
4, 3
12, 9
4, 8
6, 11
11, 8
11, 8
11, 13
16, 13
20, 11
27, 7
31, 16
37, 6
37, 10
45, 6
34, 8
41, 8
36, 8
20, 9
29, 8
21, 9
19, 13
18, 13
16, 20
23, 28
37, 31
40, 46
50, 61
65, 77
63, 62
53, 65
52, 41
37, 43
36, 26
33, 37
17, 44
13, 34
18, 51
15, 68
21, 67
39, 110
66, 143
131, 245
263, 376
446, 672
799, 997
1082, 1321
1493, 1796
1836, 2254
2127, 2393
2294, 2459
2227, 2350
2059, 1997
1638, 1543
1286, 1179
866, 825
570, 544
313, 301
175, 150
117, 83
59, 65
27, 50
26, 35
28, 14
34, 19
33, 13
63, 20
57, 23
67, 30
79, 26
103, 53
122, 91
138, 130
190, 148
212, 206
252, 298
326, 340
335, 359
369, 348
342, 312
278, 290
248, 208
178, 176
142, 89
76, 78
54, 45
24, 19
16, 7
12, 14
11, 9
8, 6
8, 4
7, 8
11, 12
10, 14
10, 12
15, 17
13, 14
14, 12
9, 7
5, 7
5, 4
3, 4
11, 6
7, 3
1, 4
0, 3
4, 1
5, 6
4, 9
5, 9
3, 9
7, 4
2, 8
2, 8
4, 3
1, 7
1, 16
2, 4
8, 5
6, 8
6, 8
12, 3
23, 4
27, 3
29, 6
37, 5
57, 3
59, 7
54, 4
71, 5
58, 3
57, 3
53, 3
44, 5
31, 5
15, 3
11, 5
6, 9
7, 6
4, 3
6, 4
10, 4
5, 2
7, 9
6, 4
5, 6
3, 1
6, 3
5, 3
4, 1
3, 2
2, 2
2, 2
4, 2
5, 2
3, 7
2, 1
5, 5
3, 4
5, 1
5, 1
5, 4
6, 6
5, 4
0, 4
3, 3
8, 5
4, 3
3, 3
2, 5
4, 7
2, 8
1, 2
2, 6
4, 3
2, 2
0, 6
4, 4
8, 7
3, 3
4, 6
1, 5
1, 8
1, 6
4, 6
1, 4
1, 4
3, 6
5, 3
0, 3
1, 3
3, 8
4, 5
4, 4
2, 1
5, 3
2, 1
0, 5
0, 7
3, 7
1, 5
1, 5
3, 2
3, 1
2, 4
2, 3
3, 2
4, 5
2, 3
2, 4
3, 3
4, 2
4, 4
2, 2
4, 3
3, 2
2, 9
0, 5
1, 5
4, 2
3, 2
3, 3
2, 2
1, 2
3, 5
1, 1
1, 0
3, 5
2, 5
1, 1
3, 4
0, 3
2, 2
3, 2
2, 3
2, 3
2, 4
3, 4
6, 8
4, 7
5, 3
1, 9
4, 1
4, 5
5, 1
9, 4
5, 2
9, 3
2, 3
5, 2
4, 5
4, 2
2, 4
2, 0
4, 2
5, 1
3, 5
4, 2
1, 1
3, 2
3, 4
0, 2
3, 2
3, 6
1, 2
2, 6
3, 2
2, 0
2, 0
2, 2
0, 2
1, 3
1, 3
3, 0
1, 2
0, 0
2, 1
2, 1
2, 2
6, 2
0, 2
1, 2
2, 1
4, 2
1, 1
0, 2
0, 3
1, 1
1, 1
3, 3
1, 3
2, 2
2, 3
3, 0
2, 3
2, 2
0, 2
2, 1
2, 3
4, 4
1, 3
4, 0
3, 3
4, 1
2, 4
3, 3
5, 2
2, 5
2, 1
4, 4
4, 2
3, 0
5, 2
4, 3
6, 6
3, 1
5, 8
4, 2
5, 2
5, 0
1, 4
5, 2
2, 4
5, 2
0, 4
0, 0
5, 6
4, 2
3, 3
2, 1
4, 3
3, 4
0, 3
3, 4
0, 2
0, 2
2, 2
1, 1
5, 4
2, 2
3, 3
2, 2
4, 2
2, 2
2, 1
1, 2
2, 4
1, 2
3, 0
0, 3
1, 3
3, 1
4, 2
3, 0
0, 2
0, 2
2, 0
0, 0
0, 0
1, 2
1, 2
0, 0
0, 1
1, 4
0, 3
2, 1
0, 1
0, 2
1, 0
1, 1
1, 2
1, 4
0, 2
1, 0
1, 0
3, 1
1, 1
1, 2
2, 4
2, 0
1, 3
2, 0
0, 0
1, 1
0, 0
0, 0
1, 0
1, 2
1, 0
0, 0
1, 0
1, 0
0, 1
1, 2
1, 1
1, 1
2, 1
0, 1
1, 3
0, 0
0, 2
5, 1
0, 0
1, 0
1, 1
1, 0
0, 0
3, 1
0, 2
0, 0
0, 0
0, 1
0, 1
1, 1
0, 0
0, 0
1, 1
0, 1
1, 0
2, 0
0, 0
1, 0
1, 0
0, 1
0, 2
0, 1
0, 1
1, 0
1, 2
0, 1
0, 1
2, 1
0, 1
0, 2
1, 0
0, 0
0, 1
0, 1
1, 0
0, 0
0, 1
2, 1
1, 0
0, 0
1, 0
0, 1
0, 1
1, 1
0, 2
0, 0
1, 0
1, 0
1, 3
0, 0
0, 1
0, 0
3, 0
0, 0
0, 1
0, 1
0, 1
2, 1
0, 0
1, 1
0, 0
1, 3
0, 1
0, 0
0, 0
1, 0
0, 0
2, 0
0, 0
2, 1
0, 0
0, 0
0, 1
1, 0
0, 1
0, 0
0, 1
1, 1
0, 0
0, 0
0, 1
0, 0
0, 0
1, 0
0, 1
0, 0
0, 0
0, 0
1, 0
0, 0
0, 0
0, 0
1, 2
0, 0
0, 0
0, 1
0, 0
0, 0
0, 0
1, 0
1, 3
1, 0
0, 0
0, 0
0, 0
0, 2
0, 1
0, 0
0, 0
0, 0
0, 0
0, 2
0, 0
0, 1
0, 1
1, 0
0, 0
1, 1
0, 0
0, 1
0, 1
0, 0
0, 0
1, 0
0, 1
0, 0
0, 0
0, 0
1, 0
1, 0
0, 0
0, 1
0, 0
1, 0
0, 0
0, 0
0, 1
0, 2
0, 0
0, 1
0, 1
0, 1
0, 1
1, 0
0, 0
0, 1
2, 0
0, 1
0, 0
0, 0
1, 0
0, 0
0, 1
0, 1
0, 0
1, 0
0, 1
0, 1
0, 0
0, 0
2, 0
1, 0
1, 0
0, 2
0, 0
0, 0
0, 0
0, 0
0, 0
0, 0
0, 0
0, 0
0, 0
0, 0
0, 1
0, 0
1, 1
0, 0
1, 0
0, 0
0, 0
0, 1
0, 0
0, 0
0, 0
0, 1
1, 1
0, 1
0, 1
0, 0
0, 0
0, 0
0, 0
0, 0
0, 0
0, 0
0, 0
2, 0
0, 1
1, 0
0, 0
0, 0
1, 1
0, 0
0, 0
0, 0
0, 0
0, 0
0, 0
0, 0
0, 0
0, 0
0, 0
0, 0
0, 1
0, 0
0, 0
0, 0
0, 1
0, 0
0, 0
0, 0
0, 0
0, 0
0, 0
0, 0
0, 0
0, 0
0, 0
0, 0
0, 1
0, 0
0, 0
1, 0
0, 0
1, 0
0, 0
0, 0
0, 0
0, 0
0, 0
0, 0
0, 0
0, 0
0, 1
0, 0
0, 0
0, 0
0, 0
0, 0
0, 0
0, 0
0, 1
0, 0
0, 0
0, 0
0, 0
0, 0
0, 0
0, 0
0, 0
0, 0
0, 0
0, 0
0, 0
0, 0
0, 1
0, 0
0, 0
0, 0
0, 1
1, 1
0, 0
0, 0
0, 0
0, 0
0, 0
0, 0
0, 0
0, 0
0, 0
0, 0
0, 0
0, 0
0, 0
0, 0
0, 0
0, 0
0, 0
0, 0
0, 0
0, 1
0, 0
1, 0
0, 0
0, 0
0, 0
0, 0
0, 0
0, 0
0, 0
0, 0
0, 0
0, 0
0, 0
0, 0
0, 0
0, 0
0, 0
0, 0
1, 0
0, 0
0, 0
1, 0
0, 0
0, 0
0, 0
0, 0
0, 0
0, 0
0, 0
0, 0
0, 0
0, 0
0, 0
1, 0
0, 0
0, 0
0, 0
0, 0
0, 0
0, 0
0, 0
1, 0
0, 0
0, 0
0, 0
0, 0
0, 0
0, 0
0, 0
0, 0
0, 0
0, 0
0, 0
0, 0
0, 0
0, 0
0, 0
0, 0
0, 0
0, 1
0, 0
0, 0
0, 0
0, 0
0, 0
0, 0
0, 0
0, 0
0, 0
0, 0
0, 0
0, 0
0, 0
0, 0
0, 0
0, 0
0, 0
0, 0
0, 0
0, 0
0, 0
0, 0
0, 0
0, 0
0, 0
0, 0
0, 0
0, 0
0, 0
0, 0
0, 0
0, 0
0, 0
0, 0
0, 0
0, 0
0, 0
0, 0
0, 0
0, 0
0, 0
0, 0
0, 0
0, 0
0, 0
0, 0
0, 0
0, 0
0, 0
0, 0
0, 0
0, 0
0, 0
0, 0
0, 0
0, 0
0, 0
0, 0
0, 0
0, 0
0, 0
0, 0
0, 0
0, 0
0, 0
0, 0
0, 0
0, 0
0, 0
0, 0
0, 0
0, 0
0, 0
0, 0
0, 0
0, 0
0, 0
0, 0
0, 0
0, 0
0, 0
0, 0
0, 0
0, 0
0, 0
0, 0
0, 0
0, 0
0, 0
0, 0
0, 0
0, 0
0, 0
0, 0
0, 0
0, 0
0, 0
0, 0
0, 0
0, 0
0, 0
0, 0
0, 0
0, 0
0, 0
0, 0
0, 0
0, 0
0, 0
0, 0
0, 0
0, 0
0, 0
0, 0
0, 0
0, 0
0, 0
0, 0
0, 0
0, 1
0, 0
0, 0
0, 0
0, 0
0, 0
0, 0
0, 0
0, 0
0, 0
0, 0
0, 0
1, 0
0, 0
0, 0
0, 0
0, 0
0, 0
0, 0
0, 0
0, 0
0, 0
0, 0
0, 0
0, 0
0, 0
0, 0
0, 0
0, 0
0, 0
0, 0
0, 0
0, 0
0, 0
0, 0
0, 0
0, 0
0, 0
0, 0
0, 0
0, 0
0, 0
0, 0
0, 0
0, 0
0, 0
0, 0
0, 0
0, 0
0, 0
0, 0
0, 0
0, 0
0, 0
0, 0
0, 0
0, 0
0, 0
0, 0
0, 0
0, 0
0, 0
0, 0
0, 0
0, 0
0, 0
0, 0
0, 0
0, 0
0, 0
0, 0
0, 0
0, 0
0, 0
0, 0
0, 0
0, 0
0, 0
0, 0
0, 0
0, 0
0, 0
0, 0
0, 0
0, 0
0, 0
0, 0
0, 0
0, 0
0, 0
0, 0
0, 0
0, 0
0, 0
0, 0
0, 0
0, 0
0, 0
0, 0
0, 0
0, 0
0, 0
0, 0
0, 0
0, 0
0, 0
0, 0
0, 0
0, 0
0, 0
0, 0
0, 0
0, 0
0, 0
0, 0
0, 0
0, 0
0, 0
0, 0
0, 0
0, 0
0, 0
0, 0
0, 0
0, 0
0, 0
0, 0
0, 0
0, 0
0, 0
0, 0
0, 0
0, 0
0, 0
0, 0
0, 0
0, 0
0, 0
0, 0
0, 0
0, 0
0, 0
0, 0
0, 0
0, 0
0, 0
0, 0
0, 0
0, 0
0, 0
0, 0
0, 0
0, 0
0, 0
0, 0
0, 0
0, 0
0, 0
0, 0
0, 0
0, 0
0, 0
0, 0
0, 0
0, 0
0, 0
0, 0
0, 0
0, 0
0, 0
0, 0
0, 0
0, 0
0, 0
0, 0
0, 0
0, 0
0, 0
0, 0
0, 0
0, 0
0, 0
0, 0
0, 0
0, 0
0, 0
0, 0
0, 0
0, 0
0, 0
0, 0
0, 0
0, 0
0, 0
0, 0
0, 0
0, 0
0, 0
0, 0
0, 0
0, 0
0, 0
0, 0
0, 0
0, 0
0, 0
0, 0
0, 0
0, 0
0, 0
0, 0
0, 0
0, 0
0, 0
0, 0
0, 0
0, 0
0, 0
0, 0
0, 0
0, 0
0, 0
0, 0
0, 0
0, 0
0, 0
0, 0
0, 0
0, 0
0, 0
0, 0
0, 0
0, 0
0, 0
0, 0
0, 0
0, 0
0, 0
0, 0
0, 0
0, 0
0, 0
0, 0
0, 0
0, 0
0, 0
0, 0
0, 0
0, 0
0, 0
0, 0
0, 0
0, 0
0, 0
0, 0
0, 0
0, 0
0, 0
0, 0
0, 0
0, 0
0, 0
0, 0
0, 0
0, 0
0, 0
0, 0
0, 0
#ENDOFDATA     end of spectrum data