File: host_upload/06-09-2024/ps_0852/dump3/ps__0852shot_2522.msa
#FORMAT      : EMSA/MAS spectral data file
#VERSION     : TC202v2.0 PIXL
#TITLE       : N/A
#DATE        :       Date in the format DD-MMM-YYYY, for example 07-JUL-2010
#TIME        :             The time of day at which the spectrum was recorded, in 24-hour format
#OWNER       : PIXL Flight Model       (PIXL will use this to indicate which instrument took the data.)
#NPOINTS     : 4096     Number of data points in the spectrum (This can be zero for configuration only files)
#NCOLUMNS    : 2     Number of data columns in the spectrum (This can be zero for configuration only files)
#XUNITS      : eV
#YUNITS      : COUNTS
#DATATYPE    : YY
#XPERCHAN    : 7.862, 7.881   eV per channel (separate by commas if more than one detector)
#OFFSET      : 18.5, -22.4         eV of first channel  (separate by commas if more than one detector
#SIGNALTYPE  : XRF
#YP_TEMP     : 2.524
#LIVETIME    : 8.56005, 8.56301   seconds (separate by commas if more than one detector)
#REALTIME    : 10, 10.0   seconds (separate by commas if more than one detector)
#SPECTRUM    : start of spectrum data
0, 0
0, 0
0, 0
0, 0
0, 0
0, 0
0, 0
0, 0
0, 0
0, 0
0, 0
0, 0
0, 0
0, 0
0, 0
0, 0
0, 0
0, 0
0, 0
0, 0
0, 0
0, 0
0, 0
0, 0
0, 0
0, 0
0, 0
0, 0
0, 0
0, 0
0, 0
1, 0
0, 0
1, 0
1, 1
0, 0
0, 0
0, 0
1, 1
0, 0
0, 1
0, 0
3, 0
0, 1
4, 2
2, 1
1, 2
4, 3
10, 11
11, 13
23, 31
39, 30
65, 62
79, 55
101, 95
71, 72
59, 44
43, 42
26, 25
19, 9
11, 6
4, 4
0, 2
3, 5
10, 7
4, 3
4, 5
6, 15
23, 17
45, 48
100, 86
173, 184
284, 286
364, 356
444, 408
449, 415
408, 374
317, 270
184, 186
129, 129
71, 62
39, 38
21, 21
9, 3
6, 5
2, 2
4, 3
1, 2
3, 4
3, 3
2, 1
2, 0
2, 6
9, 5
26, 16
16, 31
35, 27
47, 45
52, 70
58, 49
43, 50
36, 34
30, 18
18, 19
12, 2
11, 7
14, 7
9, 12
8, 8
15, 10
19, 22
24, 32
36, 29
17, 20
29, 32
45, 25
33, 33
29, 23
33, 28
28, 22
18, 19
23, 17
15, 7
17, 14
15, 14
14, 17
13, 9
7, 7
3, 6
5, 6
4, 6
5, 3
2, 2
0, 1
0, 3
0, 1
1, 1
1, 1
3, 2
2, 0
3, 2
3, 6
5, 1
1, 6
2, 5
0, 1
2, 1
0, 1
1, 2
0, 1
5, 3
4, 6
3, 10
9, 7
14, 13
23, 17
22, 26
23, 18
24, 24
18, 20
24, 15
9, 8
11, 10
0, 6
5, 4
2, 3
2, 4
3, 4
5, 9
5, 3
5, 6
7, 8
4, 6
3, 3
5, 3
7, 1
2, 5
6, 2
3, 1
3, 5
8, 3
2, 1
4, 0
1, 3
6, 5
5, 3
3, 5
3, 8
5, 5
12, 5
6, 16
4, 10
9, 8
11, 13
8, 10
11, 8
10, 18
10, 18
15, 15
8, 14
11, 12
14, 7
9, 13
11, 5
5, 3
5, 6
3, 4
2, 8
4, 10
4, 2
6, 2
6, 5
4, 7
5, 5
1, 3
7, 4
3, 6
4, 2
5, 2
7, 4
3, 8
6, 6
6, 10
7, 6
10, 7
9, 5
25, 9
24, 12
43, 6
50, 13
57, 11
89, 9
113, 9
124, 13
111, 12
97, 13
73, 8
54, 5
44, 3
32, 5
20, 6
14, 9
10, 5
12, 10
12, 9
21, 14
23, 25
54, 22
64, 27
84, 50
90, 64
87, 66
114, 43
91, 42
78, 31
73, 33
46, 20
32, 15
26, 24
21, 20
23, 22
20, 31
48, 57
70, 105
175, 199
299, 373
505, 580
798, 965
1165, 1349
1597, 1760
2016, 2027
2343, 2331
2542, 2419
2428, 2164
2154, 1866
1747, 1571
1347, 1124
910, 706
587, 455
333, 233
187, 135
75, 66
50, 40
38, 21
18, 20
14, 13
15, 10
15, 11
18, 14
12, 15
17, 28
38, 36
49, 46
69, 73
117, 126
151, 174
218, 228
280, 298
301, 351
357, 350
372, 356
355, 338
315, 249
226, 172
179, 148
120, 105
85, 76
64, 30
25, 26
11, 15
9, 8
17, 10
8, 10
8, 10
15, 10
9, 16
7, 19
13, 12
18, 19
13, 14
8, 8
8, 13
10, 9
8, 9
2, 4
6, 5
6, 4
7, 5
1, 5
0, 8
1, 12
7, 7
1, 7
5, 10
3, 11
7, 8
7, 8
7, 15
16, 4
10, 4
15, 6
14, 8
11, 6
7, 5
9, 3
4, 4
5, 2
4, 6
6, 5
4, 7
6, 4
7, 3
8, 5
5, 6
8, 3
5, 6
3, 6
5, 1
7, 4
4, 4
10, 2
2, 3
5, 2
2, 3
6, 3
7, 5
4, 4
6, 3
8, 3
6, 7
8, 4
12, 4
16, 3
10, 4
10, 5
18, 3
25, 4
24, 8
27, 10
23, 4
17, 6
25, 7
16, 11
13, 6
9, 8
5, 9
6, 7
6, 9
3, 8
2, 4
2, 2
8, 7
5, 2
4, 1
2, 7
4, 1
2, 4
5, 4
2, 4
5, 2
5, 5
8, 2
0, 1
6, 3
0, 2
4, 5
0, 5
3, 8
1, 3
5, 8
2, 4
9, 6
4, 6
2, 3
3, 4
5, 3
5, 4
9, 1
4, 4
8, 3
9, 3
4, 1
5, 5
2, 1
2, 4
8, 2
2, 1
2, 0
0, 3
3, 3
0, 5
2, 3
3, 2
2, 4
2, 3
2, 3
5, 3
4, 0
3, 5
3, 5
3, 2
4, 2
2, 4
3, 2
4, 1
2, 3
3, 2
2, 2
3, 3
2, 3
2, 2
2, 0
3, 2
4, 3
3, 1
5, 4
1, 1
2, 0
2, 2
3, 1
4, 5
8, 0
7, 1
5, 0
7, 3
5, 4
6, 1
5, 4
5, 4
4, 5
8, 3
4, 3
6, 2
6, 0
0, 3
4, 1
0, 2
1, 4
1, 6
3, 2
1, 3
1, 2
6, 4
2, 2
1, 2
4, 2
0, 5
1, 1
1, 4
1, 3
0, 8
2, 8
5, 3
1, 5
1, 4
0, 3
3, 4
1, 4
0, 0
1, 3
2, 2
2, 2
4, 3
0, 1
1, 3
2, 3
0, 2
1, 0
0, 0
2, 1
0, 1
2, 5
2, 4
1, 1
3, 1
7, 2
3, 4
2, 2
2, 3
3, 1
1, 4
3, 5
1, 0
2, 2
5, 6
0, 1
3, 3
3, 2
3, 2
0, 1
1, 4
1, 1
5, 0
1, 3
2, 4
3, 2
5, 2
3, 3
2, 5
1, 2
6, 3
3, 5
3, 2
5, 1
3, 5
5, 3
5, 2
6, 2
6, 3
1, 1
1, 4
1, 1
2, 1
0, 1
2, 2
4, 1
2, 0
3, 0
1, 3
1, 2
1, 0
3, 0
2, 0
1, 1
1, 1
0, 2
3, 1
2, 4
1, 2
0, 1
1, 1
1, 1
3, 2
1, 2
0, 2
2, 3
2, 1
0, 1
2, 2
0, 1
2, 2
2, 1
0, 1
0, 1
0, 2
0, 0
0, 0
0, 3
2, 0
1, 0
2, 1
1, 1
1, 1
1, 1
1, 0
1, 2
0, 0
0, 1
0, 0
0, 1
0, 1
0, 0
2, 2
2, 0
2, 2
2, 2
0, 0
2, 1
0, 0
0, 1
2, 2
1, 5
0, 0
0, 0
0, 0
0, 5
2, 0
1, 1
0, 2
0, 2
0, 1
2, 1
2, 0
2, 4
2, 1
1, 1
0, 1
0, 3
0, 0
0, 1
0, 1
1, 3
0, 2
2, 0
0, 2
0, 0
1, 0
1, 1
1, 0
1, 1
0, 0
2, 1
1, 1
1, 1
0, 1
3, 0
0, 0
1, 0
1, 0
1, 1
1, 0
0, 1
1, 2
0, 1
0, 0
1, 2
1, 1
0, 2
0, 1
0, 0
2, 1
0, 1
1, 0
0, 0
2, 1
2, 0
0, 0
1, 0
1, 2
0, 1
0, 0
2, 1
1, 0
1, 1
0, 0
2, 1
2, 0
0, 2
0, 2
0, 1
2, 0
1, 0
2, 1
0, 1
0, 1
1, 0
0, 0
0, 0
1, 1
0, 0
1, 0
0, 0
0, 0
0, 2
0, 0
0, 0
0, 0
0, 2
0, 2
0, 0
0, 1
0, 0
1, 0
0, 0
0, 0
0, 1
0, 0
0, 1
0, 0
0, 0
0, 1
0, 0
0, 0
1, 0
0, 0
0, 1
1, 0
1, 0
0, 1
0, 0
0, 1
1, 1
2, 1
1, 1
0, 0
0, 0
0, 0
0, 1
1, 0
1, 0
0, 0
0, 1
0, 0
0, 0
0, 0
2, 2
0, 0
0, 0
0, 1
0, 0
1, 0
0, 0
1, 0
0, 0
0, 0
0, 1
0, 0
0, 0
0, 0
0, 1
0, 0
1, 2
0, 1
1, 0
0, 0
0, 0
1, 2
1, 0
0, 1
0, 0
0, 0
0, 0
1, 0
0, 0
0, 1
0, 1
0, 1
0, 0
0, 0
0, 0
0, 0
1, 0
0, 1
0, 0
0, 0
0, 0
0, 0
0, 0
0, 1
0, 0
0, 0
0, 0
0, 0
0, 0
0, 0
0, 0
0, 0
0, 0
0, 0
0, 2
0, 1
0, 0
0, 0
1, 0
0, 0
0, 0
0, 1
1, 1
0, 0
0, 0
2, 0
0, 1
0, 0
0, 0
0, 0
0, 1
0, 0
0, 1
0, 0
2, 0
0, 0
1, 0
0, 0
0, 0
0, 1
1, 1
0, 2
0, 1
0, 0
0, 0
0, 1
0, 0
0, 0
0, 0
1, 0
1, 1
1, 0
0, 0
0, 1
0, 0
0, 0
0, 0
0, 0
0, 0
0, 0
0, 0
0, 0
0, 0
0, 1
0, 0
0, 0
1, 0
1, 0
0, 0
0, 0
1, 0
0, 0
0, 0
0, 1
0, 0
0, 0
0, 0
0, 1
1, 0
1, 0
0, 0
0, 0
0, 0
1, 0
0, 0
1, 0
0, 0
0, 1
0, 0
0, 0
0, 0
0, 0
0, 1
0, 0
0, 0
0, 0
0, 0
0, 0
0, 0
0, 0
0, 0
1, 0
1, 0
0, 0
0, 0
0, 0
0, 1
0, 1
0, 0
0, 0
0, 0
0, 0
0, 0
0, 0
0, 0
0, 0
0, 0
0, 0
0, 0
0, 0
0, 0
1, 0
0, 0
0, 0
0, 0
0, 0
0, 0
0, 0
0, 0
0, 0
1, 0
0, 0
0, 0
0, 0
0, 0
0, 0
0, 0
0, 0
1, 0
0, 0
0, 0
0, 0
0, 0
1, 0
0, 0
0, 0
0, 0
0, 0
0, 0
0, 0
1, 0
0, 0
0, 0
0, 0
0, 0
0, 0
1, 0
0, 0
0, 0
0, 0
0, 0
1, 0
0, 0
0, 0
0, 0
0, 0
0, 0
0, 0
0, 0
0, 0
0, 0
1, 0
0, 0
0, 0
0, 0
0, 0
0, 0
0, 0
0, 0
0, 0
0, 0
0, 0
0, 1
1, 0
0, 0
0, 0
0, 0
0, 0
0, 0
0, 0
0, 0
0, 1
0, 0
0, 0
0, 0
0, 0
0, 0
1, 0
0, 1
0, 0
0, 0
0, 0
0, 0
1, 0
0, 0
0, 0
0, 0
0, 0
0, 0
0, 0
0, 0
0, 0
0, 0
0, 0
0, 0
0, 0
0, 0
0, 0
0, 0
0, 0
0, 0
0, 0
0, 0
0, 0
0, 0
0, 0
0, 0
0, 0
0, 0
0, 0
0, 0
0, 0
0, 0
0, 0
0, 0
0, 0
0, 0
0, 0
0, 0
0, 0
0, 0
0, 0
0, 0
0, 0
0, 0
0, 0
0, 0
0, 0
0, 0
0, 0
0, 0
0, 0
0, 0
0, 0
0, 0
0, 0
0, 0
0, 0
0, 0
0, 0
0, 0
0, 0
0, 0
0, 0
0, 0
0, 0
0, 0
0, 0
0, 0
0, 0
0, 0
0, 0
0, 0
0, 0
0, 0
0, 0
0, 0
0, 0
0, 0
0, 0
0, 0
0, 0
0, 0
0, 0
0, 0
0, 0
0, 0
0, 0
0, 0
0, 0
0, 0
0, 0
0, 0
0, 0
0, 0
0, 0
0, 0
0, 0
0, 0
0, 0
0, 0
0, 0
0, 0
0, 0
0, 0
0, 0
0, 0
0, 0
0, 0
0, 0
0, 0
0, 0
0, 0
0, 0
0, 0
0, 0
0, 0
0, 0
0, 0
0, 0
0, 0
0, 0
0, 0
0, 0
0, 0
0, 0
0, 0
0, 0
0, 0
0, 0
0, 0
0, 0
0, 0
0, 0
0, 0
0, 0
0, 0
0, 0
0, 0
0, 0
0, 0
0, 0
0, 0
0, 0
0, 0
0, 0
0, 0
0, 0
0, 0
0, 0
0, 0
0, 0
0, 0
0, 0
0, 0
0, 0
0, 0
0, 0
0, 0
0, 0
0, 0
0, 0
0, 0
0, 0
0, 0
0, 0
0, 0
0, 0
0, 0
0, 0
0, 0
0, 0
0, 0
0, 0
0, 0
0, 0
0, 0
0, 0
0, 0
0, 0
0, 0
0, 0
0, 0
0, 0
0, 0
0, 0
0, 0
0, 0
0, 0
0, 0
0, 0
0, 0
0, 0
0, 0
0, 0
0, 0
0, 0
0, 0
0, 0
0, 0
0, 0
0, 0
0, 0
0, 0
0, 0
0, 0
0, 0
0, 0
0, 0
0, 0
0, 0
0, 0
0, 0
0, 0
0, 0
0, 0
0, 0
0, 0
0, 0
0, 0
0, 0
0, 0
0, 0
0, 0
0, 0
0, 0
0, 0
0, 0
0, 0
0, 0
0, 0
0, 0
0, 0
0, 0
0, 0
0, 0
0, 0
0, 0
0, 0
0, 0
0, 0
0, 0
0, 0
0, 0
0, 0
0, 0
0, 0
0, 0
0, 0
0, 0
0, 0
0, 0
0, 0
0, 0
0, 0
0, 0
0, 0
0, 0
0, 0
0, 0
0, 0
0, 0
0, 0
0, 0
0, 0
0, 0
0, 0
0, 0
0, 0
0, 0
0, 0
0, 0
0, 0
0, 0
0, 0
0, 0
0, 0
0, 0
0, 0
0, 0
0, 0
0, 0
0, 0
0, 0
0, 0
0, 0
0, 0
0, 0
0, 0
0, 0
0, 0
0, 0
0, 0
0, 0
0, 0
0, 0
0, 0
0, 0
0, 0
0, 0
0, 0
0, 0
0, 0
0, 0
0, 0
0, 0
0, 0
0, 0
0, 0
0, 0
0, 0
0, 0
0, 0
0, 0
0, 0
0, 0
0, 0
0, 0
0, 0
0, 0
0, 0
0, 0
0, 0
0, 0
0, 0
0, 0
0, 0
0, 0
0, 0
0, 0
0, 0
0, 0
0, 0
0, 0
0, 0
0, 0
0, 0
0, 0
0, 0
0, 0
0, 0
0, 0
0, 0
0, 0
0, 0
0, 0
0, 0
0, 0
0, 0
0, 0
0, 0
0, 0
0, 0
0, 0
0, 0
0, 0
0, 0
0, 0
0, 0
0, 0
0, 0
0, 0
0, 0
0, 0
0, 0
0, 0
0, 0
0, 0
0, 0
0, 0
0, 0
0, 0
0, 0
0, 0
0, 0
0, 0
0, 0
0, 0
0, 0
0, 0
0, 0
0, 0
0, 0
0, 0
0, 0
0, 0
0, 0
0, 0
0, 0
0, 0
0, 0
#ENDOFDATA     end of spectrum data