File: host_upload/06-09-2024/ps_0852/dump3/ps__0852shot_2520.msa
#FORMAT      : EMSA/MAS spectral data file
#VERSION     : TC202v2.0 PIXL
#TITLE       : N/A
#DATE        :       Date in the format DD-MMM-YYYY, for example 07-JUL-2010
#TIME        :             The time of day at which the spectrum was recorded, in 24-hour format
#OWNER       : PIXL Flight Model       (PIXL will use this to indicate which instrument took the data.)
#NPOINTS     : 4096     Number of data points in the spectrum (This can be zero for configuration only files)
#NCOLUMNS    : 2     Number of data columns in the spectrum (This can be zero for configuration only files)
#XUNITS      : eV
#YUNITS      : COUNTS
#DATATYPE    : YY
#XPERCHAN    : 7.862, 7.881   eV per channel (separate by commas if more than one detector)
#OFFSET      : 18.5, -22.4         eV of first channel  (separate by commas if more than one detector
#SIGNALTYPE  : XRF
#YP_TEMP     : 2.043
#LIVETIME    : 8.55388, 8.55976   seconds (separate by commas if more than one detector)
#REALTIME    : 10, 10.0   seconds (separate by commas if more than one detector)
#SPECTRUM    : start of spectrum data
0, 0
0, 0
0, 0
0, 0
0, 0
0, 0
0, 0
0, 0
0, 0
0, 0
0, 0
0, 0
0, 0
0, 0
0, 0
0, 0
0, 0
0, 0
0, 0
0, 0
0, 0
0, 0
0, 0
0, 0
0, 0
0, 0
0, 0
0, 0
0, 0
0, 0
0, 0
0, 0
0, 1
0, 0
0, 0
0, 2
0, 0
3, 0
3, 3
6, 0
2, 0
3, 1
2, 2
3, 3
5, 1
4, 2
3, 0
2, 6
13, 11
15, 14
22, 31
31, 41
53, 49
66, 69
71, 75
69, 60
40, 41
47, 35
28, 27
11, 8
6, 6
1, 5
4, 3
4, 4
5, 3
1, 4
5, 6
14, 7
14, 24
44, 43
75, 95
152, 164
242, 251
292, 347
356, 403
375, 385
365, 333
257, 286
200, 169
97, 121
70, 60
37, 27
17, 15
7, 7
7, 10
3, 4
3, 2
7, 1
2, 0
3, 2
0, 0
5, 1
10, 13
17, 15
39, 49
61, 66
77, 76
131, 113
134, 138
132, 130
105, 138
98, 88
57, 60
40, 41
31, 29
15, 20
22, 19
28, 10
42, 18
66, 29
117, 27
173, 40
278, 39
346, 56
391, 46
384, 49
342, 53
268, 34
202, 27
116, 23
75, 20
47, 22
27, 11
17, 19
18, 19
15, 12
18, 8
11, 15
8, 12
8, 7
3, 5
6, 3
3, 4
4, 0
4, 3
1, 1
1, 2
3, 3
4, 1
4, 3
4, 6
2, 4
1, 4
3, 4
2, 2
2, 4
1, 1
0, 5
2, 1
2, 4
6, 8
11, 11
12, 23
19, 25
33, 40
47, 57
40, 78
62, 61
60, 70
47, 56
37, 44
23, 33
11, 22
8, 5
13, 14
4, 8
2, 4
6, 6
13, 11
11, 14
19, 12
17, 19
13, 7
14, 14
25, 12
20, 7
27, 15
17, 9
18, 6
31, 4
15, 6
17, 6
13, 8
14, 6
7, 5
4, 10
2, 8
4, 6
5, 9
10, 6
8, 10
18, 11
11, 12
16, 15
13, 12
11, 13
5, 11
9, 17
23, 16
9, 14
11, 10
8, 6
11, 8
5, 7
6, 6
6, 7
4, 5
2, 11
6, 6
11, 2
7, 4
6, 6
7, 7
5, 10
4, 4
2, 3
4, 13
3, 5
6, 5
6, 5
7, 3
11, 3
4, 6
2, 10
7, 14
11, 15
9, 12
13, 18
16, 16
20, 21
15, 18
20, 14
18, 27
19, 15
15, 12
7, 6
12, 14
15, 8
12, 13
21, 18
17, 10
26, 16
25, 22
44, 11
51, 25
63, 35
75, 33
108, 42
122, 59
116, 49
128, 55
120, 71
104, 70
92, 40
48, 30
46, 21
19, 22
22, 26
22, 25
14, 12
16, 22
27, 31
39, 45
88, 71
145, 189
255, 338
419, 554
737, 891
1062, 1242
1433, 1681
1886, 2007
2199, 2342
2276, 2316
2156, 2175
1990, 1829
1636, 1477
1285, 1043
808, 644
500, 411
303, 250
179, 134
94, 73
55, 29
32, 33
17, 11
22, 22
18, 14
28, 16
24, 18
29, 19
33, 35
38, 27
46, 57
72, 76
93, 85
171, 163
197, 200
274, 262
322, 343
316, 367
386, 332
313, 357
285, 254
227, 189
174, 171
116, 102
79, 60
43, 39
33, 24
19, 16
13, 14
9, 7
9, 12
6, 10
7, 10
6, 9
10, 15
20, 18
14, 17
14, 17
13, 10
8, 10
6, 8
6, 4
8, 11
6, 3
4, 3
3, 4
4, 7
7, 5
2, 3
3, 5
4, 3
1, 5
5, 4
2, 5
3, 5
2, 3
4, 3
5, 4
5, 8
6, 6
2, 3
9, 4
8, 5
7, 5
7, 5
8, 16
7, 8
11, 8
12, 16
10, 16
18, 10
11, 10
16, 11
10, 7
9, 11
8, 8
7, 4
8, 3
2, 6
4, 8
7, 6
4, 11
0, 1
4, 6
3, 9
3, 9
2, 11
6, 4
4, 13
4, 2
8, 6
2, 4
4, 7
7, 4
2, 3
1, 3
3, 3
4, 2
3, 3
5, 3
5, 3
4, 7
3, 4
0, 5
9, 1
5, 5
4, 3
2, 6
4, 2
3, 7
5, 2
5, 2
0, 3
3, 3
4, 3
8, 2
8, 2
2, 1
11, 6
9, 5
3, 2
5, 3
10, 4
1, 5
5, 7
6, 4
3, 0
6, 3
3, 2
3, 4
4, 4
2, 2
0, 6
2, 7
2, 2
1, 5
3, 4
5, 5
0, 4
5, 2
4, 3
3, 6
4, 3
2, 4
4, 3
3, 10
8, 6
0, 6
4, 5
5, 2
3, 3
1, 3
1, 2
4, 9
1, 5
3, 5
1, 2
1, 2
2, 3
1, 6
1, 4
3, 3
4, 1
3, 2
3, 6
3, 1
2, 3
3, 4
0, 2
5, 1
6, 3
0, 6
3, 4
1, 2
1, 4
3, 2
4, 1
3, 4
0, 4
4, 1
6, 1
2, 3
2, 1
4, 0
1, 5
4, 3
5, 2
4, 2
1, 2
2, 2
1, 3
2, 1
1, 1
3, 1
2, 1
3, 2
5, 3
3, 0
4, 5
1, 4
4, 0
4, 3
0, 2
1, 4
3, 0
1, 0
2, 2
2, 1
4, 0
1, 1
7, 4
7, 3
2, 1
5, 1
6, 2
5, 4
8, 6
3, 4
7, 3
7, 1
6, 2
3, 2
4, 5
3, 1
6, 0
1, 1
1, 1
2, 1
3, 0
4, 5
2, 2
2, 1
1, 2
3, 1
3, 2
5, 2
5, 4
0, 6
3, 0
3, 2
5, 1
5, 1
1, 2
3, 2
4, 2
0, 0
2, 1
1, 1
2, 1
1, 1
0, 1
0, 0
0, 1
2, 3
4, 4
3, 2
1, 6
3, 3
5, 3
1, 4
3, 4
2, 4
4, 3
4, 1
2, 3
3, 0
0, 4
3, 1
4, 1
4, 0
1, 1
2, 2
4, 2
1, 2
1, 2
0, 2
2, 3
0, 1
0, 2
1, 0
2, 3
1, 0
5, 1
1, 1
4, 7
0, 0
3, 3
0, 5
2, 1
0, 6
1, 2
1, 2
1, 2
1, 0
2, 1
0, 2
1, 1
0, 2
3, 1
0, 4
1, 1
1, 0
0, 2
2, 0
0, 2
2, 1
0, 2
1, 0
1, 0
0, 1
2, 2
2, 0
3, 1
1, 2
1, 1
0, 0
2, 1
1, 3
0, 1
1, 0
0, 1
2, 0
2, 2
0, 1
1, 0
2, 0
0, 2
1, 2
1, 1
1, 1
0, 2
1, 1
2, 1
1, 1
0, 2
1, 1
1, 0
0, 0
1, 0
2, 0
1, 0
0, 1
1, 0
0, 1
1, 0
2, 2
0, 1
0, 1
0, 1
0, 0
1, 1
0, 1
1, 2
2, 1
0, 2
0, 1
1, 0
0, 1
0, 3
0, 0
0, 2
1, 2
1, 0
0, 0
2, 0
2, 0
1, 0
2, 0
1, 0
2, 0
0, 0
1, 0
0, 0
0, 1
0, 0
0, 1
0, 1
1, 0
2, 1
0, 0
1, 0
2, 0
0, 0
0, 0
0, 0
1, 0
1, 1
1, 0
0, 0
0, 0
1, 1
1, 0
0, 0
1, 1
0, 0
1, 1
0, 2
0, 0
1, 1
0, 1
0, 0
0, 0
0, 1
0, 3
0, 0
0, 0
1, 1
0, 2
0, 0
3, 0
0, 0
0, 1
0, 0
0, 0
2, 0
1, 0
1, 0
0, 0
0, 0
1, 0
0, 0
0, 0
1, 0
0, 1
0, 0
1, 2
0, 0
0, 1
0, 0
0, 1
0, 0
1, 0
0, 0
0, 1
1, 0
0, 0
0, 0
0, 0
0, 0
2, 0
0, 0
0, 1
0, 0
0, 0
0, 1
1, 0
0, 1
0, 0
0, 0
0, 0
0, 0
2, 2
0, 0
0, 2
0, 0
0, 0
0, 0
1, 0
0, 1
0, 0
1, 0
0, 0
0, 1
0, 1
0, 0
0, 0
0, 0
0, 0
0, 1
0, 1
0, 0
1, 0
0, 1
0, 0
0, 0
0, 0
0, 0
0, 1
0, 0
1, 0
0, 0
1, 0
0, 0
0, 0
0, 0
0, 3
0, 1
0, 0
0, 0
0, 0
0, 0
0, 0
0, 0
0, 0
0, 0
0, 0
1, 0
0, 0
0, 0
1, 0
0, 0
0, 0
1, 0
0, 0
0, 0
0, 0
0, 0
0, 0
0, 1
0, 0
1, 0
1, 1
1, 0
1, 2
0, 0
0, 0
1, 1
1, 0
0, 0
0, 1
1, 0
0, 0
0, 1
0, 0
0, 1
0, 0
0, 1
0, 0
0, 0
0, 0
0, 1
0, 0
0, 0
0, 1
0, 0
0, 0
0, 0
0, 0
0, 0
1, 0
0, 0
0, 0
0, 0
0, 0
0, 0
0, 1
0, 0
0, 0
0, 0
0, 1
0, 0
0, 0
0, 0
0, 0
0, 0
0, 0
1, 1
0, 1
0, 0
0, 0
1, 0
0, 0
0, 0
0, 0
0, 0
0, 0
0, 0
0, 1
0, 0
2, 1
0, 1
1, 0
0, 0
0, 0
0, 0
0, 1
0, 0
0, 0
0, 0
0, 0
0, 0
1, 0
0, 0
0, 0
0, 0
0, 0
1, 0
0, 0
0, 0
0, 0
0, 0
0, 0
0, 0
1, 0
1, 0
0, 0
0, 1
0, 0
0, 0
0, 0
0, 0
0, 0
0, 0
0, 0
0, 0
0, 0
0, 0
0, 0
1, 0
0, 0
0, 0
0, 0
0, 0
1, 1
0, 0
0, 1
0, 0
0, 1
0, 0
0, 0
0, 0
0, 0
0, 0
0, 0
0, 0
0, 0
0, 0
0, 0
0, 0
0, 0
0, 0
0, 0
0, 0
0, 0
0, 0
0, 0
0, 0
0, 0
0, 0
0, 0
0, 0
0, 0
0, 0
0, 0
1, 0
0, 0
0, 0
0, 0
0, 0
0, 0
0, 0
0, 0
0, 0
0, 0
0, 0
0, 0
0, 0
0, 0
0, 0
0, 0
0, 0
0, 0
0, 0
0, 0
0, 0
0, 0
0, 0
0, 0
0, 0
0, 0
0, 0
0, 0
0, 0
0, 0
0, 0
0, 0
0, 0
0, 0
0, 0
1, 0
0, 0
0, 0
0, 0
1, 0
0, 0
0, 0
0, 0
0, 0
0, 0
0, 0
0, 0
0, 0
0, 0
0, 0
0, 0
0, 0
0, 0
0, 0
0, 0
0, 0
0, 0
0, 0
0, 0
0, 0
0, 0
0, 0
0, 0
0, 0
0, 0
0, 0
0, 0
0, 0
0, 0
0, 0
0, 0
0, 0
0, 1
0, 0
0, 0
0, 0
0, 0
0, 1
0, 0
0, 0
0, 0
0, 0
0, 0
0, 0
0, 0
0, 0
0, 0
0, 0
0, 0
0, 0
0, 0
0, 0
0, 0
0, 0
0, 0
0, 0
0, 0
0, 1
0, 0
0, 0
0, 0
0, 0
0, 0
0, 0
0, 0
0, 0
0, 0
0, 0
0, 0
0, 0
0, 0
0, 0
0, 0
0, 0
0, 0
0, 0
0, 0
0, 0
0, 0
0, 0
0, 0
0, 0
0, 0
0, 0
0, 0
0, 0
0, 0
0, 0
0, 0
0, 0
0, 0
0, 0
0, 0
0, 0
0, 0
0, 0
0, 0
0, 0
0, 0
0, 0
0, 0
0, 0
0, 0
0, 0
0, 0
0, 0
0, 0
0, 0
0, 0
0, 0
0, 0
0, 0
0, 0
0, 0
0, 0
0, 0
0, 0
0, 0
0, 0
0, 0
0, 0
0, 0
0, 0
0, 0
0, 0
0, 0
0, 0
0, 0
0, 0
0, 0
0, 0
0, 0
0, 0
0, 0
0, 0
0, 0
0, 0
0, 0
0, 0
0, 0
0, 0
0, 0
0, 0
0, 0
0, 0
0, 0
1, 0
0, 0
0, 0
0, 0
0, 0
0, 0
0, 0
0, 0
0, 0
0, 0
0, 0
0, 0
0, 0
0, 0
0, 0
0, 0
0, 0
0, 0
0, 0
0, 0
0, 0
0, 0
0, 0
0, 0
0, 0
0, 0
0, 0
0, 0
0, 0
0, 0
0, 0
0, 0
0, 0
0, 0
0, 0
0, 0
0, 0
0, 0
0, 0
0, 0
0, 0
0, 0
0, 0
0, 0
0, 0
0, 0
0, 0
0, 0
0, 0
0, 0
0, 0
0, 0
0, 0
0, 0
0, 0
0, 0
0, 0
0, 0
0, 0
0, 0
0, 0
0, 0
0, 0
0, 0
0, 0
0, 0
0, 0
0, 0
0, 0
0, 0
0, 0
0, 0
0, 0
0, 0
0, 0
0, 0
0, 0
0, 0
0, 0
0, 0
0, 0
0, 0
0, 0
0, 0
0, 0
0, 0
0, 0
0, 0
0, 0
0, 0
0, 0
0, 0
0, 0
0, 0
0, 0
0, 0
0, 0
0, 0
0, 0
0, 0
0, 0
0, 0
0, 0
0, 0
0, 0
0, 0
0, 0
0, 0
0, 0
0, 0
0, 0
0, 0
0, 0
0, 0
0, 0
0, 0
0, 0
0, 0
0, 0
0, 0
0, 0
0, 0
0, 0
0, 0
0, 0
0, 0
0, 0
0, 0
0, 0
0, 0
0, 0
0, 0
0, 0
0, 0
0, 0
0, 0
0, 0
0, 0
0, 0
0, 0
0, 0
0, 0
0, 0
0, 0
0, 0
0, 0
0, 0
0, 0
0, 0
0, 0
0, 0
0, 0
0, 0
0, 0
0, 0
0, 0
0, 0
0, 0
0, 0
0, 0
0, 0
0, 0
0, 0
0, 0
0, 0
0, 0
0, 0
0, 0
0, 0
0, 0
0, 0
0, 0
0, 0
0, 0
0, 0
0, 0
0, 0
0, 0
0, 0
0, 0
0, 0
0, 0
0, 0
0, 0
0, 0
0, 0
0, 0
0, 0
0, 0
0, 0
0, 0
0, 0
0, 0
0, 0
0, 0
0, 0
0, 0
0, 0
0, 0
0, 0
0, 0
0, 0
0, 0
0, 0
0, 0
0, 0
0, 0
0, 0
0, 0
0, 0
0, 0
0, 0
0, 0
0, 0
0, 0
0, 0
0, 0
0, 0
0, 0
0, 0
0, 0
0, 0
0, 0
0, 0
0, 0
0, 0
0, 0
0, 0
0, 0
0, 0
0, 0
0, 0
0, 0
0, 0
0, 0
0, 0
0, 0
0, 0
0, 0
0, 0
0, 0
0, 0
0, 0
0, 0
0, 0
0, 0
0, 0
0, 0
0, 0
0, 0
0, 0
0, 0
0, 0
0, 0
#ENDOFDATA     end of spectrum data