File: host_upload/06-09-2024/ps_0852/dump3/ps__0852shot_2430.msa
#FORMAT      : EMSA/MAS spectral data file
#VERSION     : TC202v2.0 PIXL
#TITLE       : N/A
#DATE        :       Date in the format DD-MMM-YYYY, for example 07-JUL-2010
#TIME        :             The time of day at which the spectrum was recorded, in 24-hour format
#OWNER       : PIXL Flight Model       (PIXL will use this to indicate which instrument took the data.)
#NPOINTS     : 4096     Number of data points in the spectrum (This can be zero for configuration only files)
#NCOLUMNS    : 2     Number of data columns in the spectrum (This can be zero for configuration only files)
#XUNITS      : eV
#YUNITS      : COUNTS
#DATATYPE    : YY
#XPERCHAN    : 7.862, 7.881   eV per channel (separate by commas if more than one detector)
#OFFSET      : 18.5, -22.4         eV of first channel  (separate by commas if more than one detector
#SIGNALTYPE  : XRF
#YP_TEMP     : 2.556
#LIVETIME    : 8.55339, 8.56113   seconds (separate by commas if more than one detector)
#REALTIME    : 10, 10.0   seconds (separate by commas if more than one detector)
#SPECTRUM    : start of spectrum data
0, 0
0, 0
0, 0
0, 0
0, 0
0, 0
0, 0
0, 0
0, 0
0, 0
0, 0
0, 0
0, 0
0, 0
0, 0
0, 0
0, 0
0, 0
0, 0
0, 0
0, 0
0, 0
0, 0
0, 0
0, 0
0, 0
0, 0
0, 0
0, 0
0, 0
0, 0
0, 0
0, 1
0, 0
0, 0
0, 0
1, 1
0, 0
0, 2
3, 1
5, 2
2, 1
3, 1
2, 2
1, 1
2, 3
3, 0
2, 0
7, 7
16, 10
17, 21
30, 30
66, 45
63, 50
68, 65
70, 65
60, 41
35, 36
25, 13
17, 9
7, 4
4, 4
2, 2
6, 8
2, 7
6, 3
11, 6
14, 11
29, 16
44, 49
104, 112
199, 162
239, 241
383, 367
477, 382
477, 419
402, 369
319, 280
237, 168
125, 98
73, 77
28, 34
20, 27
15, 14
9, 4
12, 8
7, 4
7, 4
3, 3
5, 1
4, 1
0, 4
0, 0
2, 2
2, 3
3, 6
4, 4
7, 10
9, 11
4, 10
6, 9
7, 10
8, 5
3, 3
4, 1
4, 4
10, 7
11, 21
21, 20
34, 32
48, 37
50, 56
53, 72
86, 78
79, 81
71, 74
61, 64
51, 53
44, 36
30, 30
21, 33
21, 36
22, 20
29, 15
17, 14
20, 19
15, 12
16, 18
13, 6
8, 16
4, 9
6, 2
6, 8
3, 4
2, 3
4, 3
1, 3
3, 2
3, 2
4, 1
2, 3
2, 5
8, 1
2, 3
2, 2
1, 1
2, 1
3, 2
5, 1
8, 12
4, 20
17, 19
18, 23
37, 48
56, 55
80, 75
96, 79
111, 92
107, 95
90, 71
63, 63
48, 44
27, 23
16, 12
12, 17
10, 10
9, 6
17, 7
16, 15
14, 8
16, 14
20, 15
9, 9
16, 15
11, 11
14, 8
4, 4
10, 2
4, 3
3, 4
3, 3
5, 1
5, 7
2, 2
3, 8
7, 5
8, 10
3, 19
8, 28
14, 29
10, 48
10, 59
10, 43
20, 67
9, 55
16, 43
14, 34
17, 29
8, 12
12, 11
13, 14
17, 8
7, 5
11, 5
8, 4
5, 1
8, 3
1, 5
9, 7
3, 10
6, 4
4, 9
6, 3
10, 2
6, 5
3, 4
7, 4
8, 8
4, 4
1, 6
6, 15
5, 5
5, 5
7, 6
5, 10
9, 16
13, 17
15, 29
26, 38
27, 34
32, 32
28, 38
22, 32
25, 35
30, 28
16, 13
21, 10
13, 15
10, 6
10, 5
6, 8
8, 4
4, 14
11, 11
12, 11
28, 25
25, 29
40, 45
62, 49
54, 60
44, 53
70, 76
60, 68
45, 57
59, 44
38, 25
37, 21
32, 16
23, 23
19, 17
24, 18
30, 29
52, 43
68, 104
128, 164
283, 351
465, 592
742, 932
1129, 1360
1471, 1753
1912, 2046
2261, 2401
2322, 2493
2318, 2356
1976, 2077
1732, 1721
1283, 1187
902, 782
571, 480
325, 299
205, 164
83, 94
58, 43
42, 24
30, 15
21, 16
21, 14
22, 13
17, 23
18, 24
20, 27
35, 33
39, 59
69, 81
96, 113
140, 165
191, 232
245, 281
302, 328
362, 343
335, 346
340, 332
281, 262
235, 218
187, 140
130, 85
97, 69
66, 38
20, 26
14, 9
18, 10
13, 10
6, 11
12, 12
9, 11
14, 16
17, 12
18, 19
10, 31
17, 29
10, 29
9, 29
6, 17
5, 27
5, 27
3, 23
3, 22
2, 18
3, 6
5, 9
1, 10
2, 6
2, 1
3, 7
2, 7
3, 4
5, 0
4, 4
2, 7
1, 3
3, 6
3, 8
4, 0
4, 5
5, 3
7, 4
6, 6
3, 8
8, 7
7, 6
7, 6
9, 1
2, 7
5, 1
0, 7
4, 5
1, 3
4, 6
5, 3
6, 2
2, 0
5, 5
5, 5
2, 1
2, 1
4, 4
5, 5
8, 3
2, 1
3, 7
5, 5
3, 5
3, 5
2, 3
6, 4
3, 4
7, 4
2, 8
4, 2
6, 4
6, 4
9, 5
7, 3
3, 1
8, 3
4, 2
1, 1
4, 6
3, 2
6, 4
2, 3
0, 6
2, 5
2, 4
4, 5
3, 3
2, 4
3, 2
1, 3
2, 2
5, 1
6, 2
3, 5
4, 5
12, 4
8, 7
7, 4
6, 2
13, 1
13, 5
11, 7
5, 5
5, 5
7, 1
6, 1
4, 3
5, 6
2, 4
3, 9
2, 5
0, 3
3, 1
6, 3
3, 4
1, 6
3, 3
5, 3
2, 2
5, 2
4, 1
4, 4
5, 4
4, 3
4, 2
4, 1
4, 3
1, 5
2, 2
3, 3
3, 4
7, 1
4, 0
8, 3
4, 4
7, 4
5, 5
11, 2
15, 2
15, 1
5, 3
16, 4
19, 4
23, 2
10, 2
9, 3
11, 3
1, 5
7, 1
2, 2
6, 8
2, 4
1, 8
1, 3
3, 5
1, 6
1, 2
1, 7
2, 2
2, 1
2, 1
3, 4
2, 5
4, 2
4, 1
1, 4
2, 3
1, 3
1, 3
0, 3
2, 6
3, 3
0, 0
4, 2
4, 1
5, 2
3, 2
5, 1
3, 2
0, 2
2, 2
1, 1
1, 3
2, 1
2, 3
2, 2
3, 4
2, 4
1, 4
0, 2
1, 3
2, 4
2, 2
2, 1
3, 6
3, 4
7, 3
4, 2
0, 4
0, 4
2, 0
4, 3
0, 0
1, 3
1, 1
2, 1
1, 4
0, 1
6, 3
0, 1
4, 2
1, 1
0, 1
4, 2
2, 2
3, 2
2, 1
0, 2
1, 1
1, 1
2, 1
1, 1
0, 2
2, 2
1, 0
2, 1
1, 2
3, 3
3, 1
3, 3
1, 1
2, 9
9, 10
5, 4
4, 3
3, 3
3, 3
7, 5
1, 2
0, 2
4, 1
2, 2
2, 1
3, 3
1, 2
3, 2
2, 1
0, 2
0, 3
1, 2
3, 2
1, 1
2, 2
4, 0
4, 0
1, 1
0, 1
0, 2
3, 1
0, 2
1, 2
4, 1
1, 2
0, 2
2, 2
1, 0
1, 3
1, 2
3, 0
0, 1
0, 1
1, 1
2, 0
2, 0
0, 2
0, 1
2, 4
1, 1
1, 1
2, 1
1, 0
1, 0
2, 1
0, 0
0, 1
0, 0
0, 3
2, 1
0, 2
2, 1
2, 0
2, 0
2, 1
2, 0
0, 2
2, 1
0, 1
0, 2
2, 1
0, 1
1, 0
2, 0
1, 1
3, 1
0, 0
1, 0
2, 1
1, 1
0, 2
1, 1
1, 0
2, 1
1, 0
2, 2
1, 0
1, 0
1, 3
2, 0
1, 0
0, 0
2, 2
1, 1
1, 1
0, 1
1, 0
0, 0
1, 0
0, 0
0, 0
0, 0
0, 2
0, 0
0, 0
0, 0
0, 0
0, 0
1, 1
0, 0
0, 0
1, 2
0, 2
1, 1
0, 0
1, 1
0, 1
0, 0
1, 1
1, 1
2, 0
1, 1
0, 0
0, 1
0, 1
0, 0
0, 2
0, 2
0, 1
1, 0
0, 0
1, 0
0, 1
0, 1
0, 1
2, 1
0, 0
0, 0
0, 1
0, 1
1, 1
2, 1
0, 0
0, 2
1, 0
1, 0
0, 1
1, 1
1, 1
0, 0
1, 1
0, 0
2, 1
0, 2
0, 0
1, 1
0, 1
0, 2
1, 0
0, 0
0, 0
1, 0
2, 1
0, 0
0, 1
0, 0
1, 0
1, 0
0, 0
0, 0
0, 0
1, 0
0, 0
0, 0
1, 1
0, 0
0, 0
0, 0
0, 1
1, 0
0, 1
0, 0
1, 0
0, 0
1, 0
0, 1
1, 1
0, 0
0, 0
0, 0
1, 0
0, 1
0, 0
0, 0
0, 0
1, 1
0, 0
1, 0
0, 0
0, 1
0, 1
0, 1
0, 0
0, 1
1, 0
0, 0
0, 0
0, 1
0, 0
0, 0
0, 0
0, 0
0, 0
0, 0
0, 0
0, 0
1, 0
0, 0
0, 0
0, 0
0, 0
0, 0
0, 1
0, 0
0, 0
0, 1
0, 0
0, 0
0, 0
1, 0
0, 0
0, 0
1, 1
0, 0
0, 0
0, 1
0, 0
1, 0
0, 1
0, 0
0, 2
1, 0
0, 0
0, 0
0, 1
0, 1
0, 0
0, 0
0, 0
0, 0
1, 0
0, 0
0, 0
0, 0
0, 0
1, 0
0, 1
1, 0
0, 1
0, 0
1, 0
0, 0
1, 0
0, 1
2, 0
0, 1
0, 0
0, 0
1, 0
0, 0
2, 1
0, 0
1, 1
0, 1
0, 0
0, 1
1, 0
0, 0
0, 0
0, 0
1, 0
0, 1
0, 0
0, 0
0, 1
0, 1
0, 0
0, 0
0, 0
0, 0
0, 0
0, 1
1, 0
0, 0
0, 0
0, 0
0, 1
1, 0
0, 0
0, 0
0, 0
0, 2
0, 0
0, 0
0, 0
0, 0
1, 0
0, 0
1, 0
0, 0
0, 0
0, 0
1, 0
0, 0
0, 1
0, 0
0, 1
1, 0
0, 0
0, 1
0, 0
0, 0
0, 0
0, 0
0, 0
0, 0
0, 1
0, 0
0, 0
1, 0
0, 0
0, 0
0, 0
0, 0
0, 0
0, 0
0, 0
0, 0
0, 0
0, 0
0, 0
0, 0
0, 0
1, 0
0, 0
0, 0
0, 0
0, 0
0, 0
0, 0
0, 0
1, 0
0, 0
0, 0
0, 0
0, 0
0, 0
0, 0
0, 1
0, 0
1, 0
0, 0
0, 0
0, 0
0, 0
0, 0
0, 0
0, 0
0, 0
0, 0
0, 0
1, 0
0, 0
0, 0
0, 0
0, 0
0, 0
0, 0
0, 0
0, 0
0, 0
0, 0
0, 0
0, 0
0, 0
0, 0
0, 1
0, 0
0, 0
0, 0
0, 0
0, 0
0, 0
0, 0
0, 0
0, 0
0, 0
0, 0
0, 0
0, 0
0, 0
0, 0
0, 0
0, 0
0, 0
0, 0
0, 0
0, 0
0, 0
0, 1
0, 0
0, 0
0, 0
0, 0
0, 0
0, 0
0, 0
0, 0
0, 1
0, 0
0, 0
0, 0
0, 0
0, 0
0, 0
0, 0
0, 0
0, 0
0, 0
0, 0
0, 0
0, 0
1, 0
0, 0
0, 0
0, 0
0, 0
0, 0
0, 0
0, 0
0, 0
0, 0
0, 0
0, 0
0, 0
0, 0
0, 0
0, 0
0, 0
0, 0
0, 0
0, 0
0, 0
0, 0
0, 0
0, 0
0, 0
0, 0
0, 1
0, 0
0, 0
0, 0
0, 0
0, 0
1, 0
0, 0
0, 0
0, 0
0, 0
0, 0
0, 0
0, 0
0, 0
0, 0
0, 0
0, 0
0, 0
0, 0
0, 0
0, 0
0, 0
0, 0
0, 0
0, 0
0, 0
0, 0
0, 0
0, 0
0, 0
0, 0
0, 0
0, 0
0, 0
0, 0
0, 0
0, 0
0, 0
0, 0
0, 0
0, 0
0, 0
0, 0
0, 0
0, 0
0, 0
0, 0
0, 0
0, 0
0, 0
0, 0
0, 0
0, 0
0, 0
0, 0
0, 0
0, 0
0, 0
0, 0
0, 0
0, 0
0, 0
0, 0
0, 0
0, 0
0, 0
0, 0
0, 0
0, 0
0, 0
0, 0
0, 0
0, 0
0, 0
0, 0
0, 0
0, 0
0, 0
0, 0
0, 0
1, 0
0, 0
0, 0
0, 0
0, 0
0, 0
0, 0
0, 0
0, 0
0, 0
0, 0
0, 0
0, 0
0, 0
0, 0
0, 0
0, 0
0, 0
0, 0
0, 0
0, 0
0, 0
0, 0
0, 0
0, 0
0, 0
0, 0
0, 0
0, 0
0, 0
0, 0
0, 0
0, 0
0, 0
0, 0
0, 0
0, 0
0, 0
0, 0
0, 0
0, 0
0, 0
0, 0
0, 0
0, 0
0, 0
0, 0
0, 0
0, 0
0, 0
0, 0
0, 0
0, 0
0, 0
0, 0
0, 0
0, 0
0, 0
0, 0
0, 0
0, 0
0, 0
0, 0
0, 0
0, 0
0, 0
0, 0
0, 0
0, 0
0, 0
0, 0
0, 0
0, 0
0, 0
0, 0
0, 0
0, 0
0, 0
0, 0
0, 0
0, 0
0, 0
0, 0
0, 0
0, 0
0, 0
0, 0
0, 0
0, 0
0, 0
0, 0
0, 0
0, 0
0, 0
0, 0
0, 0
0, 0
0, 0
0, 0
0, 0
0, 0
0, 0
0, 0
0, 0
0, 0
0, 0
0, 0
0, 0
0, 0
0, 0
0, 0
0, 0
0, 0
0, 0
0, 0
0, 0
0, 0
0, 0
0, 0
0, 0
0, 0
0, 0
0, 0
0, 0
0, 0
0, 0
0, 0
0, 0
0, 0
0, 0
0, 0
0, 0
0, 0
0, 0
0, 0
0, 0
0, 0
0, 0
0, 0
0, 0
0, 0
0, 0
0, 0
0, 0
0, 0
0, 0
0, 0
0, 0
0, 0
0, 0
0, 0
0, 0
0, 0
0, 0
0, 0
0, 0
0, 0
0, 0
0, 0
0, 0
0, 0
0, 0
0, 0
0, 0
0, 0
0, 0
0, 0
0, 0
0, 0
0, 0
0, 0
0, 0
0, 0
0, 0
0, 0
0, 0
0, 0
0, 0
0, 0
0, 0
0, 0
0, 0
0, 0
0, 0
0, 0
0, 0
0, 0
0, 0
0, 0
0, 0
0, 0
0, 0
0, 0
0, 0
0, 0
0, 0
0, 0
0, 0
0, 0
0, 0
0, 0
0, 0
0, 0
0, 0
0, 0
0, 0
0, 0
0, 0
0, 0
0, 0
0, 0
0, 0
0, 0
0, 0
0, 0
0, 0
0, 0
0, 0
0, 0
0, 0
0, 0
0, 0
0, 0
0, 0
0, 0
0, 0
0, 0
0, 0
0, 0
0, 0
0, 0
0, 0
0, 0
0, 0
0, 0
0, 0
0, 0
0, 0
0, 0
0, 0
0, 0
0, 0
0, 0
0, 0
0, 0
0, 0
0, 0
0, 0
0, 0
0, 0
0, 0
0, 0
0, 0
0, 0
0, 0
0, 0
0, 0
0, 0
0, 0
0, 0
0, 0
0, 0
0, 0
0, 0
0, 0
0, 0
0, 0
0, 0
0, 0
0, 0
0, 0
0, 0
0, 0
0, 0
0, 0
0, 0
0, 0
0, 0
0, 0
0, 0
0, 0
0, 0
0, 0
0, 0
0, 0
0, 0
0, 0
0, 0
0, 0
0, 0
#ENDOFDATA     end of spectrum data