File: host_upload/06-09-2024/ps_0852/dump3/ps__0852shot_2177.msa
#FORMAT      : EMSA/MAS spectral data file
#VERSION     : TC202v2.0 PIXL
#TITLE       : N/A
#DATE        :       Date in the format DD-MMM-YYYY, for example 07-JUL-2010
#TIME        :             The time of day at which the spectrum was recorded, in 24-hour format
#OWNER       : PIXL Flight Model       (PIXL will use this to indicate which instrument took the data.)
#NPOINTS     : 4096     Number of data points in the spectrum (This can be zero for configuration only files)
#NCOLUMNS    : 2     Number of data columns in the spectrum (This can be zero for configuration only files)
#XUNITS      : eV
#YUNITS      : COUNTS
#DATATYPE    : YY
#XPERCHAN    : 7.862, 7.881   eV per channel (separate by commas if more than one detector)
#OFFSET      : 18.5, -22.4         eV of first channel  (separate by commas if more than one detector
#SIGNALTYPE  : XRF
#YP_TEMP     : 2.235
#LIVETIME    : 8.56004, 8.58436   seconds (separate by commas if more than one detector)
#REALTIME    : 10, 10.0   seconds (separate by commas if more than one detector)
#SPECTRUM    : start of spectrum data
0, 0
0, 0
0, 0
0, 0
0, 0
0, 0
0, 0
0, 0
0, 0
0, 0
0, 0
0, 0
0, 0
0, 0
0, 0
0, 0
0, 0
0, 0
0, 0
0, 0
0, 0
0, 0
0, 0
0, 0
0, 0
0, 0
0, 0
0, 0
0, 0
0, 0
0, 0
0, 0
0, 0
0, 0
1, 0
0, 0
0, 0
0, 2
0, 1
0, 0
2, 1
0, 0
1, 0
0, 1
1, 0
0, 5
1, 4
3, 1
10, 4
18, 11
28, 22
47, 25
61, 36
74, 53
81, 67
82, 59
50, 44
50, 23
27, 18
7, 9
9, 5
6, 6
2, 3
6, 3
5, 2
2, 5
5, 4
9, 8
22, 12
52, 37
90, 77
185, 128
261, 220
343, 240
443, 309
452, 289
421, 253
320, 207
229, 165
167, 87
80, 50
43, 22
24, 10
12, 7
5, 4
4, 1
6, 2
1, 0
4, 2
1, 1
1, 1
1, 1
3, 1
7, 7
14, 12
16, 25
21, 36
42, 39
57, 46
54, 46
38, 42
34, 28
27, 31
15, 19
17, 13
12, 9
9, 12
6, 8
15, 5
13, 10
18, 9
24, 18
39, 26
41, 22
35, 31
47, 31
53, 35
39, 34
39, 17
23, 23
25, 8
20, 18
26, 14
21, 14
9, 11
12, 14
10, 12
10, 6
10, 12
6, 7
5, 3
1, 3
4, 1
0, 1
2, 3
1, 3
3, 3
4, 2
5, 2
3, 5
2, 3
0, 2
3, 0
2, 0
2, 2
3, 3
2, 2
3, 0
3, 1
2, 1
2, 3
8, 2
6, 5
10, 2
13, 7
24, 12
18, 12
23, 15
19, 16
18, 24
13, 14
15, 18
20, 21
16, 28
22, 37
24, 39
35, 39
32, 36
28, 24
17, 28
12, 26
14, 15
7, 4
11, 6
6, 6
6, 7
7, 2
13, 2
5, 6
6, 5
8, 7
2, 4
7, 2
5, 8
5, 3
3, 0
3, 5
5, 2
5, 4
1, 6
3, 4
5, 6
10, 11
10, 9
11, 5
17, 6
14, 10
12, 15
19, 19
11, 11
12, 12
16, 12
13, 11
9, 17
7, 21
10, 26
4, 24
5, 22
9, 19
6, 18
13, 7
5, 5
11, 6
8, 6
16, 6
7, 5
6, 1
15, 2
13, 1
8, 6
7, 12
8, 8
7, 6
7, 5
8, 7
17, 3
19, 11
21, 17
17, 6
17, 11
26, 16
31, 16
10, 14
9, 9
14, 8
12, 9
10, 6
13, 9
5, 3
9, 7
10, 6
11, 6
17, 5
11, 8
9, 15
31, 15
20, 25
36, 25
46, 41
64, 43
70, 51
65, 45
83, 36
64, 34
60, 30
67, 31
49, 19
43, 22
39, 21
59, 19
56, 24
66, 35
64, 41
109, 92
161, 167
309, 273
525, 457
841, 741
1150, 1034
1691, 1438
2117, 1756
2401, 1908
2492, 2022
2497, 1922
2265, 1639
1836, 1268
1385, 896
996, 615
655, 374
386, 199
223, 105
117, 69
65, 38
37, 18
26, 20
16, 10
11, 14
20, 7
21, 8
17, 18
22, 18
27, 30
38, 44
71, 94
110, 106
154, 159
212, 218
273, 241
334, 284
351, 317
385, 293
373, 305
337, 230
290, 193
195, 127
127, 84
79, 52
70, 25
33, 28
15, 14
16, 6
8, 6
13, 6
13, 9
7, 6
14, 6
14, 13
12, 9
14, 11
9, 4
17, 7
21, 10
9, 6
10, 7
9, 5
4, 6
4, 4
6, 8
2, 10
8, 3
7, 11
6, 12
4, 4
7, 4
10, 9
3, 16
4, 4
12, 7
5, 4
3, 6
6, 11
5, 5
9, 4
10, 5
6, 9
17, 2
5, 6
13, 5
6, 2
7, 5
4, 7
7, 7
6, 5
7, 8
3, 5
5, 5
6, 3
8, 6
14, 7
18, 4
9, 3
7, 3
5, 3
8, 5
8, 2
7, 4
10, 5
7, 6
6, 0
0, 4
3, 1
3, 4
3, 3
3, 2
3, 1
3, 4
2, 2
4, 6
4, 1
7, 4
3, 2
4, 4
3, 1
3, 4
4, 3
4, 0
6, 5
5, 0
0, 1
5, 1
4, 2
6, 4
2, 1
8, 6
1, 3
4, 2
3, 3
2, 1
2, 4
5, 1
6, 0
6, 4
8, 3
4, 4
7, 1
6, 3
10, 0
12, 1
6, 5
6, 1
9, 1
11, 3
6, 2
5, 4
9, 2
10, 2
5, 4
4, 3
5, 1
6, 3
3, 2
2, 1
5, 3
2, 2
2, 3
7, 2
3, 3
4, 6
4, 4
2, 3
8, 2
5, 9
5, 9
3, 10
2, 4
4, 8
5, 6
4, 7
5, 7
1, 5
2, 5
3, 7
6, 3
2, 6
3, 7
1, 6
5, 4
1, 2
5, 0
3, 0
0, 2
5, 1
6, 3
5, 1
4, 2
5, 2
5, 0
1, 2
7, 5
6, 1
5, 3
0, 3
1, 4
5, 4
1, 1
0, 5
2, 3
0, 3
2, 2
3, 4
2, 3
3, 2
2, 5
2, 5
2, 0
2, 0
2, 3
7, 5
8, 3
0, 0
4, 6
1, 2
1, 4
0, 4
0, 2
0, 1
1, 2
2, 1
2, 0
2, 1
1, 1
5, 3
1, 2
6, 1
0, 1
5, 1
1, 3
0, 2
2, 1
5, 1
3, 3
3, 2
5, 1
3, 1
1, 3
4, 1
6, 0
3, 1
5, 1
5, 1
3, 0
3, 0
3, 0
4, 1
7, 4
2, 2
2, 0
2, 2
2, 4
5, 0
4, 3
0, 1
2, 1
1, 1
2, 2
0, 1
4, 2
2, 1
2, 1
1, 2
1, 2
3, 1
3, 3
5, 2
3, 5
3, 5
2, 4
3, 4
8, 3
5, 2
4, 2
4, 2
3, 2
4, 2
4, 3
3, 2
3, 2
1, 0
2, 1
2, 3
4, 2
1, 0
2, 0
0, 2
2, 2
1, 0
5, 1
0, 1
1, 1
2, 2
0, 0
0, 1
1, 2
2, 2
3, 1
3, 0
1, 2
3, 3
2, 1
3, 0
4, 0
2, 0
8, 1
0, 1
0, 2
2, 0
0, 1
1, 3
2, 0
1, 0
1, 1
0, 0
1, 2
0, 0
2, 0
0, 1
1, 0
1, 0
2, 1
2, 2
2, 2
0, 2
1, 0
1, 0
2, 0
1, 1
0, 1
1, 2
2, 0
1, 2
1, 1
1, 1
4, 1
0, 0
1, 0
3, 1
2, 0
1, 1
2, 1
0, 0
1, 1
3, 2
3, 1
1, 1
1, 1
0, 3
1, 0
1, 0
0, 2
2, 0
1, 2
1, 0
1, 0
0, 3
2, 0
0, 1
0, 0
0, 0
0, 0
0, 1
0, 1
0, 0
0, 1
1, 0
0, 0
1, 0
1, 0
1, 0
2, 0
0, 0
0, 0
1, 0
2, 2
1, 1
1, 2
0, 0
1, 0
1, 0
3, 1
0, 2
2, 1
0, 0
0, 1
1, 0
0, 1
0, 1
1, 0
1, 0
0, 1
0, 0
0, 1
2, 2
0, 3
0, 1
1, 0
1, 1
1, 1
0, 1
0, 0
0, 0
0, 0
0, 1
0, 2
0, 0
0, 0
1, 0
3, 1
1, 0
0, 0
1, 0
0, 0
1, 0
0, 0
1, 0
1, 1
0, 0
2, 0
1, 0
1, 1
0, 0
0, 1
0, 0
0, 0
0, 1
1, 0
0, 1
0, 0
0, 0
1, 2
0, 0
0, 0
0, 0
1, 0
0, 0
0, 1
0, 1
1, 0
0, 1
1, 0
0, 1
0, 1
0, 1
0, 0
0, 0
0, 0
0, 0
0, 1
0, 0
0, 0
1, 0
0, 0
0, 0
1, 0
1, 0
0, 0
0, 0
0, 0
0, 0
0, 0
0, 0
1, 0
0, 0
0, 0
0, 0
0, 0
0, 0
0, 0
0, 1
0, 0
0, 0
1, 0
0, 0
1, 0
0, 0
1, 1
1, 0
0, 0
0, 0
0, 1
1, 0
0, 2
1, 1
1, 0
1, 0
0, 0
0, 0
0, 0
0, 1
1, 0
0, 0
0, 1
0, 0
0, 0
0, 1
0, 0
0, 1
0, 1
1, 0
0, 0
0, 0
1, 0
0, 1
0, 0
0, 0
1, 0
0, 0
0, 0
1, 0
0, 0
1, 2
0, 0
0, 0
0, 0
1, 0
0, 1
0, 0
0, 0
1, 0
0, 0
1, 0
0, 0
0, 0
0, 0
0, 0
1, 0
0, 0
0, 1
0, 0
0, 0
1, 1
1, 0
0, 1
0, 0
0, 1
0, 0
0, 0
0, 0
0, 0
0, 0
0, 0
0, 0
0, 0
0, 0
0, 0
1, 0
0, 0
0, 1
0, 0
0, 0
1, 0
1, 0
0, 0
0, 1
0, 0
1, 0
0, 0
0, 0
0, 0
0, 0
1, 0
0, 0
0, 1
0, 0
0, 1
0, 0
0, 0
0, 0
0, 0
1, 1
0, 0
0, 0
0, 0
0, 0
0, 0
1, 0
0, 0
0, 0
0, 0
0, 0
0, 0
0, 0
1, 0
0, 1
0, 0
0, 0
0, 0
1, 0
1, 0
0, 1
0, 0
0, 0
0, 0
0, 0
0, 0
0, 0
0, 1
0, 0
0, 0
0, 0
0, 0
0, 0
1, 0
0, 0
0, 0
0, 0
0, 0
0, 1
0, 0
0, 0
1, 0
0, 0
0, 0
0, 0
0, 0
0, 0
1, 0
0, 0
0, 0
0, 0
0, 0
1, 0
0, 0
0, 0
0, 1
0, 0
0, 0
0, 0
0, 0
0, 1
0, 0
0, 0
0, 0
0, 0
0, 0
0, 0
0, 0
0, 0
0, 0
0, 0
0, 0
0, 0
0, 0
0, 0
0, 0
0, 0
0, 0
0, 0
0, 0
0, 0
0, 0
0, 0
0, 0
0, 0
0, 1
0, 0
0, 0
0, 0
0, 0
0, 0
0, 0
0, 0
0, 0
0, 0
0, 0
0, 0
0, 0
0, 0
0, 0
0, 0
0, 0
0, 0
0, 0
0, 0
0, 0
0, 0
0, 0
0, 0
0, 0
0, 0
0, 0
0, 0
0, 0
0, 0
0, 0
0, 0
0, 0
0, 0
0, 0
0, 0
0, 0
0, 0
0, 0
0, 0
0, 0
0, 0
0, 0
0, 0
0, 0
0, 0
0, 0
0, 0
0, 0
0, 0
0, 0
1, 0
0, 0
0, 0
0, 0
0, 0
0, 0
0, 0
0, 0
0, 0
0, 0
0, 0
1, 0
0, 0
0, 0
0, 0
0, 0
0, 1
0, 0
0, 0
0, 0
0, 0
0, 0
0, 0
0, 0
0, 0
0, 0
0, 0
0, 0
0, 0
0, 0
0, 0
0, 0
0, 0
0, 0
0, 0
0, 0
0, 0
0, 0
0, 0
0, 0
0, 0
0, 1
0, 0
0, 0
0, 0
0, 0
0, 0
0, 0
0, 0
0, 0
0, 0
0, 0
0, 0
1, 0
0, 0
0, 0
0, 0
0, 0
0, 0
0, 0
0, 0
0, 0
0, 0
0, 0
0, 0
0, 0
0, 0
0, 0
0, 0
0, 0
0, 0
0, 0
0, 0
0, 0
0, 0
0, 0
0, 0
0, 0
0, 0
0, 0
0, 0
0, 0
0, 0
0, 0
0, 0
0, 0
0, 0
0, 0
1, 0
0, 0
0, 0
0, 0
0, 0
0, 0
0, 0
0, 0
0, 0
0, 0
0, 0
0, 0
0, 0
0, 0
0, 0
0, 0
0, 0
0, 0
0, 0
0, 0
0, 0
0, 0
0, 0
0, 0
0, 0
0, 0
0, 0
0, 0
0, 0
0, 0
0, 0
0, 0
0, 0
0, 0
0, 0
0, 0
0, 0
0, 0
0, 0
0, 0
0, 0
0, 0
0, 0
0, 0
0, 0
0, 0
0, 0
0, 0
0, 0
0, 0
0, 0
0, 0
0, 0
0, 0
0, 0
0, 0
0, 0
0, 0
0, 0
0, 0
0, 0
0, 0
0, 0
0, 0
0, 0
0, 0
0, 0
0, 0
0, 0
0, 0
0, 0
0, 0
0, 0
0, 0
0, 0
0, 0
0, 0
0, 0
0, 0
0, 0
0, 0
0, 0
0, 0
0, 0
0, 0
0, 0
0, 0
0, 0
0, 0
0, 0
0, 0
0, 0
0, 0
0, 0
0, 0
0, 0
0, 0
0, 0
0, 0
0, 0
0, 0
0, 0
0, 0
0, 0
0, 0
0, 0
0, 0
0, 0
0, 0
0, 0
0, 0
0, 0
0, 0
0, 0
0, 0
0, 0
0, 0
0, 0
0, 0
0, 0
0, 0
0, 0
0, 0
0, 0
0, 0
0, 0
0, 0
0, 0
0, 0
0, 0
0, 0
0, 0
0, 0
0, 0
0, 0
0, 0
0, 0
0, 0
0, 0
0, 0
0, 0
0, 0
0, 0
0, 0
0, 0
0, 0
0, 0
0, 0
0, 0
0, 0
0, 0
0, 0
0, 0
0, 0
0, 0
0, 0
0, 0
0, 0
0, 0
0, 0
0, 0
0, 0
0, 0
0, 0
0, 0
0, 0
0, 0
0, 0
0, 0
0, 0
0, 0
0, 0
0, 0
0, 0
0, 0
0, 0
0, 0
0, 0
0, 0
0, 0
0, 0
0, 0
0, 0
0, 0
0, 0
0, 0
0, 0
0, 0
0, 0
0, 0
0, 0
0, 0
0, 0
0, 0
0, 0
0, 0
0, 0
0, 0
0, 0
0, 0
0, 0
0, 0
0, 0
0, 0
0, 0
0, 0
0, 0
0, 0
0, 0
0, 0
0, 0
0, 0
0, 0
0, 0
0, 0
0, 0
0, 0
0, 0
0, 0
0, 0
0, 0
0, 0
0, 0
0, 0
0, 0
0, 0
0, 0
0, 0
0, 0
0, 0
0, 0
0, 0
0, 0
0, 0
0, 0
0, 0
0, 0
0, 0
0, 0
0, 0
0, 0
0, 0
0, 0
0, 0
0, 0
0, 0
0, 0
0, 0
0, 0
0, 0
0, 0
0, 0
0, 0
0, 0
0, 0
0, 0
0, 0
0, 0
0, 0
0, 0
0, 0
0, 0
0, 0
0, 0
0, 0
0, 0
0, 0
0, 0
0, 0
0, 0
0, 0
0, 0
0, 0
0, 0
0, 0
0, 0
0, 0
0, 0
0, 0
0, 0
0, 0
0, 0
0, 0
0, 0
0, 0
0, 0
0, 0
0, 0
0, 0
0, 0
0, 0
0, 0
0, 0
0, 0
0, 0
0, 0
0, 0
0, 0
0, 0
0, 0
0, 0
0, 0
0, 0
0, 0
#ENDOFDATA     end of spectrum data