File: host_upload/06-09-2024/ps_0852/dump3/ps__0852shot_2256.msa
#FORMAT      : EMSA/MAS spectral data file
#VERSION     : TC202v2.0 PIXL
#TITLE       : N/A
#DATE        :       Date in the format DD-MMM-YYYY, for example 07-JUL-2010
#TIME        :             The time of day at which the spectrum was recorded, in 24-hour format
#OWNER       : PIXL Flight Model       (PIXL will use this to indicate which instrument took the data.)
#NPOINTS     : 4096     Number of data points in the spectrum (This can be zero for configuration only files)
#NCOLUMNS    : 2     Number of data columns in the spectrum (This can be zero for configuration only files)
#XUNITS      : eV
#YUNITS      : COUNTS
#DATATYPE    : YY
#XPERCHAN    : 7.862, 7.881   eV per channel (separate by commas if more than one detector)
#OFFSET      : 18.5, -22.4         eV of first channel  (separate by commas if more than one detector
#SIGNALTYPE  : XRF
#YP_TEMP     : 2.556
#LIVETIME    : 8.56717, 8.35754   seconds (separate by commas if more than one detector)
#REALTIME    : 10, 10.0   seconds (separate by commas if more than one detector)
#SPECTRUM    : start of spectrum data
0, 0
0, 0
0, 0
0, 0
0, 0
0, 0
0, 0
0, 0
0, 0
0, 0
0, 0
0, 0
0, 0
0, 0
0, 0
0, 0
0, 0
0, 0
0, 0
0, 0
0, 0
0, 0
0, 0
0, 0
0, 0
0, 0
0, 0
0, 0
0, 0
0, 0
0, 0
0, 1
0, 0
0, 0
0, 0
0, 0
1, 0
1, 2
0, 1
1, 1
1, 1
0, 1
1, 4
1, 0
1, 1
1, 3
1, 2
3, 1
4, 4
16, 11
27, 23
55, 27
53, 47
84, 66
98, 70
64, 69
64, 58
43, 34
26, 24
16, 13
10, 3
9, 1
6, 4
3, 2
5, 1
3, 2
5, 6
16, 8
26, 11
56, 47
110, 101
178, 150
252, 249
376, 346
433, 360
429, 400
386, 336
296, 260
211, 176
134, 131
87, 62
49, 30
20, 17
10, 9
10, 3
2, 3
3, 1
1, 2
1, 2
0, 1
3, 1
3, 1
0, 2
1, 1
2, 4
3, 4
2, 11
3, 3
5, 6
2, 5
6, 9
3, 6
0, 4
3, 5
6, 5
2, 4
7, 5
4, 2
8, 13
6, 7
14, 8
12, 20
24, 32
34, 41
29, 42
31, 57
26, 51
29, 54
20, 83
24, 62
17, 73
24, 49
14, 33
17, 42
17, 35
14, 24
11, 17
10, 9
12, 8
8, 3
7, 6
1, 3
5, 3
2, 8
1, 2
4, 0
4, 1
3, 0
1, 4
3, 2
2, 2
1, 2
2, 1
2, 2
0, 2
1, 3
0, 2
5, 1
3, 1
5, 6
10, 1
11, 4
13, 3
14, 6
12, 10
24, 17
23, 16
30, 19
31, 18
21, 16
11, 18
18, 11
8, 10
8, 6
2, 9
5, 6
2, 7
0, 0
4, 6
9, 9
4, 8
10, 7
6, 4
7, 6
3, 4
3, 3
7, 5
3, 3
4, 6
3, 4
7, 1
8, 7
2, 4
4, 3
7, 7
5, 2
1, 8
4, 4
5, 7
9, 8
5, 5
11, 12
13, 19
8, 24
14, 26
15, 24
16, 47
18, 38
20, 49
33, 54
37, 39
52, 26
53, 20
50, 15
55, 11
43, 11
24, 7
34, 6
16, 8
14, 12
12, 8
18, 9
8, 15
7, 9
10, 9
11, 8
9, 7
9, 13
7, 6
8, 7
7, 10
2, 7
4, 5
5, 5
10, 10
8, 11
11, 11
18, 12
9, 9
14, 10
17, 15
20, 15
16, 16
29, 25
14, 21
22, 21
11, 16
10, 17
13, 26
7, 19
9, 21
12, 16
10, 11
7, 17
24, 26
19, 29
19, 45
33, 41
59, 77
64, 64
63, 85
52, 81
57, 66
52, 54
45, 39
31, 31
32, 22
16, 15
22, 17
19, 18
23, 23
28, 37
49, 47
78, 96
161, 213
290, 342
495, 573
757, 911
1155, 1358
1652, 1681
1982, 2106
2373, 2265
2474, 2284
2391, 2169
2154, 1822
1779, 1447
1344, 1057
893, 692
584, 460
359, 237
219, 139
127, 63
103, 35
88, 11
70, 23
109, 19
119, 15
113, 16
111, 12
109, 20
104, 36
108, 36
104, 59
110, 88
103, 121
168, 164
220, 252
247, 291
319, 322
370, 346
384, 353
357, 352
304, 248
239, 209
194, 144
159, 98
85, 66
64, 45
31, 18
15, 22
13, 11
7, 3
6, 14
10, 10
12, 17
11, 15
11, 22
16, 18
11, 10
11, 16
11, 12
7, 18
8, 12
10, 4
7, 6
4, 4
4, 1
3, 1
3, 4
4, 4
0, 4
5, 6
0, 4
4, 6
2, 6
5, 6
5, 2
5, 7
3, 8
2, 4
4, 3
4, 4
3, 2
3, 2
6, 7
5, 6
5, 4
3, 7
6, 6
2, 3
5, 3
6, 2
7, 1
7, 6
5, 11
9, 4
7, 2
15, 3
9, 7
17, 6
16, 3
8, 3
10, 9
7, 4
10, 3
3, 3
4, 3
6, 7
9, 3
6, 4
8, 3
5, 6
2, 5
6, 3
6, 1
5, 5
3, 2
8, 0
2, 3
4, 7
5, 3
10, 3
3, 6
3, 5
1, 5
2, 9
5, 3
3, 6
4, 10
5, 12
1, 16
3, 15
3, 22
7, 19
4, 24
4, 26
3, 23
2, 24
2, 31
7, 26
8, 10
5, 8
5, 14
7, 7
3, 11
4, 6
7, 2
7, 3
4, 4
9, 2
2, 3
5, 2
7, 4
9, 3
14, 2
8, 1
9, 2
5, 5
8, 2
9, 6
6, 5
8, 2
8, 1
6, 3
10, 2
7, 6
2, 2
2, 5
1, 3
5, 3
3, 2
3, 4
2, 2
5, 3
2, 1
2, 2
0, 2
6, 6
4, 2
6, 0
6, 2
1, 3
2, 4
3, 5
2, 2
0, 5
5, 3
4, 3
1, 1
4, 5
3, 3
3, 3
5, 4
3, 4
3, 2
2, 2
4, 3
2, 1
2, 2
3, 2
4, 3
3, 1
4, 3
1, 5
0, 1
2, 2
0, 1
3, 2
3, 1
4, 2
1, 4
0, 4
1, 4
3, 1
5, 3
2, 2
3, 5
2, 1
3, 1
5, 2
2, 4
2, 7
3, 3
4, 6
1, 4
3, 7
2, 4
1, 5
1, 8
2, 7
4, 10
1, 8
2, 3
0, 5
1, 7
2, 3
8, 3
1, 3
3, 4
3, 6
1, 0
3, 0
5, 1
2, 4
4, 1
2, 5
1, 0
4, 5
1, 1
0, 2
1, 1
4, 1
0, 2
4, 1
0, 1
0, 2
2, 1
3, 1
2, 4
2, 2
1, 1
0, 3
2, 3
1, 1
2, 1
2, 2
0, 1
1, 2
3, 2
2, 2
1, 3
1, 1
2, 2
4, 4
3, 4
1, 3
1, 2
3, 1
0, 2
2, 1
3, 2
3, 5
2, 3
3, 6
4, 2
5, 5
2, 3
3, 2
4, 1
2, 0
3, 3
1, 1
4, 0
1, 1
2, 2
1, 1
2, 2
1, 1
2, 1
2, 0
2, 2
4, 4
0, 2
1, 1
0, 0
1, 1
1, 3
3, 5
3, 1
3, 2
1, 0
3, 2
4, 2
0, 2
1, 1
0, 0
2, 0
0, 0
2, 1
4, 0
3, 3
2, 1
0, 2
1, 0
0, 1
0, 1
2, 2
1, 0
1, 1
1, 3
2, 3
1, 2
3, 1
2, 0
2, 0
0, 2
1, 1
2, 0
1, 0
1, 2
1, 0
3, 2
1, 0
2, 1
1, 1
0, 1
1, 1
2, 2
2, 2
0, 2
2, 3
1, 1
1, 1
1, 1
2, 3
0, 3
0, 1
1, 1
0, 3
1, 0
0, 1
1, 0
2, 1
0, 1
2, 1
2, 0
0, 0
0, 0
1, 2
2, 0
0, 1
0, 0
0, 2
0, 0
0, 0
0, 0
0, 1
0, 2
0, 0
0, 0
1, 0
0, 1
1, 0
0, 0
0, 1
0, 1
4, 0
0, 0
1, 0
0, 3
1, 3
2, 0
2, 0
0, 1
0, 0
1, 0
0, 1
2, 0
0, 1
0, 0
0, 1
0, 1
2, 0
0, 0
1, 0
0, 1
2, 0
0, 0
0, 2
1, 1
1, 1
1, 0
0, 0
1, 1
0, 0
0, 0
0, 0
2, 1
1, 1
0, 0
1, 0
0, 0
1, 0
0, 1
1, 1
1, 0
0, 0
0, 0
0, 0
1, 1
1, 0
1, 0
0, 1
0, 0
0, 0
0, 0
0, 1
0, 1
2, 0
1, 1
1, 0
0, 0
0, 0
0, 0
0, 1
0, 1
1, 0
4, 0
0, 1
1, 0
0, 0
0, 0
0, 1
0, 0
0, 0
0, 0
0, 0
0, 0
2, 0
0, 0
2, 1
0, 0
0, 0
0, 1
1, 0
0, 0
0, 0
0, 0
0, 0
0, 0
0, 1
1, 0
0, 0
0, 0
0, 1
0, 1
0, 0
0, 0
1, 0
1, 1
1, 0
0, 0
0, 0
0, 0
1, 0
0, 0
0, 0
0, 1
0, 0
0, 0
0, 0
1, 0
1, 0
0, 1
0, 0
1, 0
0, 0
1, 0
0, 0
0, 0
0, 0
0, 0
0, 0
0, 1
0, 0
0, 0
0, 0
0, 0
0, 0
1, 0
0, 0
0, 0
0, 0
1, 0
2, 0
0, 0
0, 0
0, 0
0, 0
0, 0
0, 0
0, 0
0, 0
0, 0
0, 2
0, 0
1, 0
0, 0
0, 0
0, 0
1, 1
0, 0
0, 0
0, 0
0, 0
0, 1
0, 0
0, 1
0, 0
0, 0
0, 2
0, 0
0, 0
0, 0
0, 0
0, 0
0, 0
1, 0
0, 1
1, 0
0, 1
0, 1
0, 0
0, 0
0, 0
0, 0
0, 1
0, 0
0, 0
0, 0
0, 0
1, 0
0, 0
0, 0
0, 1
0, 0
0, 0
0, 0
0, 0
0, 0
2, 1
0, 0
0, 0
0, 0
0, 0
1, 0
0, 1
0, 0
1, 1
0, 0
0, 0
0, 0
0, 0
0, 0
0, 0
1, 0
0, 0
0, 1
0, 0
1, 1
0, 1
0, 0
2, 0
0, 1
0, 0
0, 0
0, 1
0, 1
0, 0
0, 0
1, 0
0, 0
1, 0
0, 0
0, 0
0, 0
1, 0
0, 0
0, 0
0, 0
0, 0
0, 0
0, 0
0, 0
0, 0
0, 0
0, 0
0, 0
0, 0
0, 0
0, 0
0, 0
0, 0
0, 0
0, 0
0, 0
0, 0
0, 0
0, 0
0, 1
0, 0
0, 0
0, 0
0, 0
0, 0
0, 0
0, 0
0, 0
1, 1
1, 0
0, 0
1, 0
0, 0
0, 0
1, 0
0, 0
0, 0
0, 0
0, 0
0, 1
0, 0
0, 0
0, 1
0, 0
0, 0
0, 0
0, 0
0, 0
0, 0
0, 0
0, 0
0, 0
0, 0
0, 0
0, 0
0, 0
0, 0
0, 0
0, 0
0, 0
0, 0
0, 0
0, 0
0, 0
0, 0
0, 0
0, 0
0, 0
0, 0
0, 0
0, 0
0, 0
0, 0
0, 0
0, 0
0, 0
0, 0
0, 0
0, 0
0, 0
0, 0
1, 0
0, 0
0, 0
0, 0
0, 0
0, 0
0, 0
0, 0
0, 0
0, 0
0, 0
0, 0
0, 1
0, 0
0, 0
0, 0
0, 0
0, 0
0, 0
0, 0
0, 0
0, 0
0, 0
0, 0
0, 0
0, 0
0, 0
0, 0
0, 0
0, 0
0, 0
0, 0
0, 0
0, 0
0, 0
0, 0
0, 0
0, 0
0, 0
0, 0
0, 0
0, 0
0, 0
0, 0
0, 0
0, 0
0, 0
0, 0
0, 0
0, 0
0, 0
0, 0
0, 0
0, 0
0, 0
0, 0
0, 0
0, 0
0, 0
0, 0
0, 0
0, 0
0, 0
0, 0
0, 0
0, 0
0, 0
0, 0
0, 0
0, 0
0, 0
0, 0
0, 0
0, 0
0, 0
0, 0
0, 0
0, 0
0, 0
0, 0
0, 0
0, 0
0, 0
0, 0
0, 0
0, 0
0, 0
0, 0
0, 0
0, 0
0, 0
0, 0
0, 0
0, 0
0, 0
0, 0
0, 0
0, 0
0, 0
0, 0
0, 0
0, 0
0, 0
0, 0
0, 0
0, 0
0, 0
0, 0
0, 0
0, 0
0, 0
0, 0
0, 0
0, 0
0, 0
0, 0
0, 0
0, 0
0, 0
0, 0
0, 0
0, 0
0, 0
0, 0
0, 0
0, 0
0, 0
0, 0
0, 0
0, 0
0, 0
0, 0
0, 0
0, 0
0, 0
0, 0
0, 0
0, 0
0, 0
0, 0
0, 0
0, 0
0, 0
0, 0
0, 0
0, 0
0, 0
0, 0
0, 0
0, 0
0, 0
0, 0
0, 0
0, 0
0, 0
0, 0
0, 0
0, 0
0, 0
0, 0
0, 0
0, 0
0, 0
0, 0
0, 0
0, 0
0, 0
0, 0
0, 0
0, 0
0, 0
0, 0
0, 0
0, 0
0, 0
0, 0
0, 0
0, 0
0, 0
0, 0
0, 0
0, 0
0, 0
0, 0
0, 0
0, 0
0, 0
0, 0
0, 0
0, 0
0, 0
0, 0
0, 0
0, 0
0, 0
0, 0
0, 0
0, 0
0, 0
0, 0
0, 0
0, 0
0, 0
0, 0
0, 0
0, 0
0, 0
0, 0
0, 0
0, 0
0, 0
0, 0
0, 0
0, 0
0, 0
0, 0
0, 0
0, 0
0, 0
0, 0
0, 0
0, 0
0, 0
0, 0
0, 0
0, 0
0, 0
0, 0
0, 0
0, 0
0, 0
0, 0
0, 0
0, 0
0, 0
0, 0
0, 0
0, 0
0, 0
0, 0
0, 0
0, 0
0, 0
0, 0
0, 0
0, 0
0, 0
0, 0
0, 0
0, 0
0, 0
0, 0
0, 0
0, 0
0, 0
0, 0
0, 0
0, 0
0, 0
0, 0
0, 0
0, 0
0, 0
0, 0
0, 0
0, 0
0, 0
0, 0
0, 0
0, 0
0, 0
0, 0
0, 0
0, 0
0, 0
0, 0
0, 0
0, 0
0, 0
0, 0
0, 0
0, 0
0, 0
0, 0
0, 0
0, 0
0, 0
0, 0
0, 0
0, 0
0, 0
0, 0
0, 0
0, 0
0, 0
0, 0
0, 0
0, 0
0, 0
0, 0
0, 0
0, 0
0, 0
0, 0
0, 0
0, 0
0, 0
0, 0
0, 0
0, 0
0, 0
0, 0
0, 0
0, 0
0, 0
0, 0
0, 0
0, 0
0, 0
0, 0
0, 0
0, 0
0, 0
0, 0
0, 0
0, 0
0, 0
0, 0
0, 0
0, 0
0, 0
0, 0
0, 0
0, 0
0, 0
0, 0
0, 0
0, 0
0, 0
0, 0
0, 0
0, 0
0, 0
0, 0
0, 0
0, 0
0, 0
0, 0
0, 0
0, 0
0, 0
0, 0
0, 0
0, 0
0, 0
0, 0
0, 0
0, 0
0, 0
0, 0
0, 0
0, 0
0, 0
0, 0
0, 0
0, 0
0, 0
0, 0
0, 0
0, 0
0, 0
0, 0
0, 0
0, 0
0, 0
0, 0
0, 0
0, 0
0, 0
0, 0
0, 0
0, 0
0, 0
0, 0
0, 0
0, 0
0, 0
0, 0
0, 0
0, 0
0, 0
0, 0
0, 0
0, 0
0, 0
0, 0
0, 0
0, 0
0, 0
0, 0
0, 0
0, 0
0, 0
0, 0
0, 0
0, 0
0, 0
0, 0
0, 0
0, 0
0, 0
0, 0
0, 0
0, 0
0, 0
#ENDOFDATA     end of spectrum data