File: host_upload/06-09-2024/ps_0852/dump3/ps__0852shot_2485.msa
#FORMAT      : EMSA/MAS spectral data file
#VERSION     : TC202v2.0 PIXL
#TITLE       : N/A
#DATE        :       Date in the format DD-MMM-YYYY, for example 07-JUL-2010
#TIME        :             The time of day at which the spectrum was recorded, in 24-hour format
#OWNER       : PIXL Flight Model       (PIXL will use this to indicate which instrument took the data.)
#NPOINTS     : 4096     Number of data points in the spectrum (This can be zero for configuration only files)
#NCOLUMNS    : 2     Number of data columns in the spectrum (This can be zero for configuration only files)
#XUNITS      : eV
#YUNITS      : COUNTS
#DATATYPE    : YY
#XPERCHAN    : 7.862, 7.881   eV per channel (separate by commas if more than one detector)
#OFFSET      : 18.5, -22.4         eV of first channel  (separate by commas if more than one detector
#SIGNALTYPE  : XRF
#YP_TEMP     : 2.107
#LIVETIME    : 8.56907, 8.56539   seconds (separate by commas if more than one detector)
#REALTIME    : 10, 10.0   seconds (separate by commas if more than one detector)
#SPECTRUM    : start of spectrum data
0, 0
0, 0
0, 0
0, 0
0, 0
0, 0
0, 0
0, 0
0, 0
0, 0
0, 0
0, 0
0, 0
0, 0
0, 0
0, 0
0, 0
0, 0
0, 0
0, 0
0, 0
0, 0
0, 0
0, 0
0, 0
0, 0
0, 0
0, 0
0, 0
0, 0
0, 0
0, 0
0, 0
0, 0
0, 1
0, 2
0, 0
0, 0
3, 3
4, 1
2, 1
0, 0
0, 1
2, 1
1, 1
0, 1
3, 1
1, 0
1, 6
11, 9
16, 27
39, 33
46, 55
64, 57
66, 61
69, 66
53, 55
36, 30
18, 12
10, 10
4, 6
11, 1
1, 2
1, 2
4, 2
3, 6
1, 6
7, 7
21, 19
48, 48
89, 88
150, 163
248, 279
408, 359
431, 423
387, 395
415, 378
290, 273
191, 179
129, 112
65, 69
35, 43
22, 15
9, 8
3, 4
2, 4
2, 3
4, 3
1, 2
2, 3
0, 4
5, 1
0, 2
1, 1
5, 1
1, 5
4, 2
3, 5
4, 8
4, 5
9, 7
7, 8
3, 6
3, 2
1, 5
5, 4
6, 13
10, 8
12, 21
29, 40
36, 46
45, 38
49, 57
68, 65
52, 69
53, 64
48, 60
42, 34
40, 40
35, 36
26, 26
30, 21
24, 27
27, 29
20, 29
13, 22
9, 14
7, 23
9, 15
9, 17
7, 6
6, 6
4, 8
3, 1
5, 3
8, 1
3, 1
3, 2
2, 3
4, 1
5, 4
1, 2
0, 2
2, 4
2, 3
2, 4
2, 0
2, 3
3, 2
5, 4
3, 3
5, 6
9, 6
15, 17
32, 24
23, 35
37, 43
50, 30
40, 30
38, 20
21, 18
20, 16
20, 15
19, 5
31, 4
48, 6
70, 3
75, 2
94, 3
87, 5
98, 9
97, 13
69, 4
46, 6
23, 1
19, 6
19, 8
13, 6
8, 6
5, 5
4, 7
4, 3
5, 2
2, 3
2, 4
4, 2
5, 6
4, 2
6, 8
11, 7
13, 11
9, 8
10, 11
8, 10
14, 11
21, 13
10, 21
16, 12
13, 16
11, 18
10, 17
25, 12
19, 10
18, 10
24, 9
26, 5
34, 9
27, 7
25, 9
19, 6
18, 7
15, 3
7, 5
8, 7
6, 4
4, 8
4, 9
5, 11
5, 10
7, 10
3, 16
4, 17
2, 7
7, 11
5, 16
10, 15
12, 11
15, 13
20, 14
13, 23
13, 20
20, 18
19, 11
19, 10
19, 10
15, 9
20, 9
24, 8
9, 6
14, 3
8, 4
16, 9
11, 11
13, 10
8, 20
18, 27
23, 30
38, 38
37, 48
63, 55
71, 60
68, 70
50, 55
48, 42
47, 49
28, 35
27, 14
22, 19
22, 18
14, 27
16, 28
22, 34
33, 65
99, 107
145, 205
260, 345
449, 540
706, 872
1125, 1331
1553, 1754
1878, 2159
2186, 2393
2407, 2389
2314, 2216
2004, 1864
1611, 1481
1352, 1105
946, 703
518, 429
326, 256
195, 119
114, 73
54, 31
33, 19
14, 15
16, 14
12, 16
9, 17
17, 12
20, 13
23, 17
36, 36
43, 51
71, 58
87, 105
129, 145
201, 248
250, 271
330, 351
359, 368
377, 348
301, 341
299, 256
231, 226
203, 165
138, 116
76, 65
50, 41
31, 20
15, 15
12, 6
7, 11
11, 5
12, 6
9, 8
9, 14
9, 10
8, 15
16, 17
16, 20
9, 22
15, 18
7, 11
7, 7
12, 13
3, 6
8, 4
14, 6
13, 3
19, 5
23, 7
29, 1
27, 3
34, 2
18, 6
42, 4
51, 2
45, 5
46, 6
29, 5
19, 6
21, 11
15, 7
10, 11
10, 12
7, 9
9, 11
5, 9
7, 13
8, 9
9, 10
3, 5
4, 4
6, 11
3, 6
8, 10
4, 8
2, 7
4, 5
3, 2
6, 5
3, 5
6, 5
3, 8
3, 4
3, 6
5, 2
5, 8
6, 1
2, 4
1, 7
4, 6
2, 5
7, 1
6, 4
8, 4
1, 9
1, 3
4, 5
4, 2
4, 4
8, 2
3, 2
5, 2
2, 5
6, 3
3, 5
5, 4
4, 4
3, 1
4, 6
5, 2
3, 2
5, 2
6, 2
4, 4
3, 2
6, 4
7, 10
3, 1
4, 3
7, 4
6, 2
8, 3
10, 5
15, 2
9, 3
9, 3
7, 2
7, 5
4, 2
7, 5
6, 3
4, 7
2, 5
5, 2
4, 5
1, 4
4, 4
4, 1
5, 5
3, 7
4, 3
1, 4
3, 1
3, 1
1, 2
4, 1
2, 4
1, 4
4, 2
3, 2
0, 3
6, 0
2, 5
2, 2
5, 3
6, 6
5, 2
7, 5
5, 4
5, 5
4, 4
3, 4
4, 5
2, 5
2, 2
2, 1
1, 3
3, 3
1, 4
1, 4
2, 7
1, 1
2, 3
2, 3
2, 3
6, 0
3, 6
2, 3
3, 4
3, 5
2, 1
0, 2
1, 4
2, 0
4, 1
0, 4
2, 4
3, 1
1, 0
3, 3
4, 2
9, 1
1, 4
6, 3
4, 2
5, 3
3, 2
2, 0
2, 4
4, 5
3, 5
6, 4
0, 0
4, 2
1, 5
2, 4
2, 2
2, 4
1, 7
3, 2
0, 1
0, 2
1, 3
2, 2
3, 3
1, 2
2, 1
1, 4
1, 2
4, 3
3, 2
3, 2
8, 1
1, 4
3, 3
0, 1
2, 3
1, 0
3, 1
1, 0
2, 1
1, 3
6, 1
1, 4
1, 2
1, 1
2, 1
1, 0
1, 0
1, 2
2, 4
1, 1
2, 3
1, 2
4, 3
1, 2
0, 1
3, 1
4, 3
3, 7
2, 0
1, 3
3, 3
3, 1
5, 4
3, 5
3, 3
4, 6
5, 7
5, 5
2, 5
5, 7
9, 5
3, 3
3, 1
4, 3
5, 2
5, 4
6, 2
2, 4
5, 3
2, 2
4, 3
3, 3
1, 2
1, 2
0, 0
1, 2
0, 3
2, 1
2, 2
0, 1
4, 0
1, 2
0, 2
1, 0
3, 4
0, 5
3, 0
2, 4
0, 1
3, 0
1, 1
2, 3
2, 3
0, 1
2, 2
1, 0
3, 1
0, 1
0, 1
0, 2
3, 1
0, 0
0, 0
1, 2
1, 1
0, 1
1, 1
2, 2
0, 0
0, 1
1, 0
4, 0
0, 3
2, 2
1, 3
3, 1
2, 1
1, 0
2, 1
3, 2
2, 0
2, 0
1, 0
0, 1
0, 0
0, 1
0, 0
5, 0
4, 1
1, 2
0, 0
0, 4
2, 2
4, 1
0, 1
0, 1
0, 0
0, 1
0, 0
1, 1
0, 0
0, 1
1, 0
0, 0
0, 1
3, 0
1, 0
1, 0
1, 0
1, 1
0, 0
0, 3
0, 0
0, 3
1, 1
0, 0
2, 2
1, 1
0, 0
3, 0
2, 1
0, 0
2, 0
0, 1
0, 0
1, 0
2, 0
2, 2
1, 0
0, 0
0, 0
1, 0
0, 2
1, 1
0, 0
1, 1
2, 1
1, 1
1, 5
0, 0
1, 0
0, 1
0, 0
2, 0
0, 1
1, 0
0, 0
0, 2
0, 0
0, 0
0, 3
0, 1
1, 0
1, 0
1, 3
1, 0
0, 2
2, 0
0, 0
1, 0
0, 0
0, 0
0, 1
0, 1
0, 0
2, 2
1, 0
1, 0
0, 0
0, 0
0, 0
0, 0
2, 0
1, 0
1, 0
0, 0
0, 0
0, 0
0, 1
0, 0
1, 0
3, 0
0, 0
0, 1
2, 0
0, 0
1, 0
0, 0
0, 2
0, 1
0, 0
0, 0
1, 1
0, 1
1, 0
0, 0
0, 1
0, 0
0, 0
0, 0
0, 0
0, 0
0, 0
0, 0
0, 0
1, 0
0, 0
0, 0
0, 0
0, 0
0, 0
0, 1
0, 1
0, 0
0, 0
0, 1
0, 0
0, 0
0, 0
0, 0
1, 0
0, 0
0, 0
0, 0
0, 0
0, 0
0, 0
0, 0
1, 0
0, 0
0, 0
1, 0
0, 0
0, 0
0, 0
0, 0
0, 0
0, 0
1, 1
0, 1
0, 0
0, 0
2, 0
0, 0
1, 0
0, 1
0, 1
0, 0
0, 0
0, 0
0, 0
0, 0
0, 3
0, 1
0, 1
0, 0
0, 1
0, 1
0, 1
1, 0
0, 0
0, 0
0, 0
0, 0
0, 0
0, 0
0, 0
0, 1
0, 0
1, 1
1, 1
1, 0
1, 1
0, 0
1, 0
0, 0
0, 0
0, 0
0, 0
0, 1
0, 0
0, 0
0, 0
0, 0
0, 0
0, 1
0, 0
0, 0
0, 0
0, 0
0, 0
0, 1
0, 1
0, 0
0, 1
0, 0
0, 0
0, 0
0, 0
0, 0
0, 0
0, 2
0, 0
0, 0
0, 1
1, 0
0, 0
0, 0
0, 0
0, 0
1, 0
0, 0
1, 0
1, 0
0, 0
1, 0
0, 0
0, 0
0, 0
0, 0
0, 0
0, 0
0, 0
0, 0
1, 0
0, 0
1, 0
0, 0
0, 0
0, 0
1, 0
0, 0
0, 0
0, 0
0, 0
1, 1
0, 0
2, 0
0, 0
0, 0
0, 1
1, 0
0, 0
0, 0
0, 0
0, 0
0, 0
0, 0
0, 0
0, 0
0, 0
0, 0
1, 0
0, 0
0, 0
0, 0
0, 0
0, 0
0, 0
0, 0
0, 0
0, 0
0, 0
0, 0
0, 0
0, 0
0, 0
0, 0
0, 0
0, 0
0, 0
0, 0
0, 0
0, 0
0, 0
0, 0
0, 0
0, 0
0, 0
0, 0
1, 0
0, 0
0, 0
0, 0
0, 0
0, 0
0, 0
0, 0
0, 0
1, 0
0, 0
0, 0
0, 0
0, 0
0, 0
0, 0
0, 1
0, 0
0, 0
0, 1
0, 0
0, 0
0, 0
0, 0
0, 0
0, 1
1, 0
0, 0
0, 0
0, 0
0, 0
0, 0
0, 0
0, 0
0, 0
0, 0
0, 0
0, 1
0, 0
0, 0
0, 0
0, 0
0, 0
0, 0
0, 0
0, 0
0, 0
0, 0
0, 0
0, 0
0, 0
0, 0
0, 0
0, 0
0, 0
0, 0
0, 0
0, 0
0, 0
0, 0
0, 0
0, 0
0, 0
0, 0
0, 0
0, 0
0, 0
0, 0
0, 0
0, 0
0, 0
0, 0
0, 0
0, 0
0, 0
0, 0
0, 0
0, 0
0, 0
0, 0
0, 1
0, 0
0, 0
0, 0
0, 0
0, 0
0, 0
0, 0
0, 0
0, 0
0, 0
0, 0
0, 0
0, 0
0, 0
0, 0
0, 0
0, 0
0, 0
0, 0
0, 0
0, 0
0, 0
0, 0
0, 0
0, 0
0, 0
0, 0
0, 0
0, 0
0, 0
0, 0
0, 0
0, 0
0, 0
0, 0
0, 0
0, 0
0, 0
0, 0
0, 0
0, 0
0, 0
0, 0
0, 0
0, 0
0, 0
0, 0
0, 0
0, 0
0, 0
0, 0
0, 0
0, 0
0, 0
0, 0
0, 0
0, 0
0, 0
0, 0
0, 0
0, 0
0, 0
0, 0
0, 0
0, 0
0, 0
0, 0
0, 0
0, 0
0, 0
0, 0
0, 0
0, 0
0, 0
0, 0
0, 0
0, 0
0, 0
0, 0
0, 0
0, 0
0, 0
0, 0
0, 0
0, 0
0, 0
0, 0
0, 0
0, 0
0, 0
0, 0
0, 0
0, 0
0, 0
0, 0
0, 0
0, 0
0, 0
0, 0
0, 0
0, 0
0, 0
0, 0
0, 0
0, 0
0, 0
0, 0
0, 0
0, 0
0, 0
0, 0
0, 0
0, 0
0, 0
0, 0
0, 0
0, 0
0, 0
0, 0
0, 0
0, 0
0, 0
0, 0
0, 0
0, 0
0, 0
0, 0
0, 0
0, 0
0, 0
0, 0
0, 0
0, 0
0, 0
0, 0
0, 0
0, 0
0, 0
0, 0
0, 0
0, 0
0, 0
0, 0
0, 0
0, 0
0, 0
0, 0
0, 0
0, 0
0, 0
0, 0
0, 0
0, 0
0, 0
0, 0
0, 0
0, 0
0, 0
0, 0
0, 0
0, 0
0, 0
0, 0
0, 0
0, 0
0, 0
0, 0
0, 0
0, 0
0, 0
0, 0
0, 0
0, 0
0, 0
0, 0
0, 0
0, 0
0, 0
0, 0
0, 0
0, 0
0, 0
0, 0
0, 0
0, 0
0, 0
0, 0
0, 0
0, 0
0, 0
0, 0
0, 0
0, 0
0, 0
0, 0
0, 0
0, 0
0, 0
0, 0
0, 0
0, 0
0, 0
0, 0
0, 0
0, 0
0, 0
0, 0
0, 0
0, 0
0, 0
0, 0
0, 0
0, 0
0, 0
0, 0
0, 0
0, 0
0, 0
0, 0
0, 0
0, 0
0, 0
0, 0
0, 0
0, 0
0, 0
0, 0
0, 0
0, 0
0, 0
0, 0
0, 0
0, 0
0, 0
0, 0
0, 0
0, 0
0, 0
0, 0
0, 0
0, 0
0, 0
0, 0
0, 0
0, 0
0, 0
0, 0
0, 0
0, 0
0, 0
0, 0
0, 0
0, 0
0, 0
0, 0
0, 0
0, 0
0, 0
0, 0
0, 0
0, 0
0, 0
0, 0
0, 0
0, 0
0, 0
0, 0
0, 0
0, 0
0, 0
0, 0
0, 0
0, 0
0, 0
0, 0
0, 0
0, 0
0, 0
0, 0
0, 0
0, 0
0, 0
0, 0
0, 0
0, 0
0, 0
0, 0
0, 0
0, 0
0, 0
0, 0
0, 0
0, 0
0, 0
0, 0
0, 0
0, 0
0, 0
0, 0
0, 0
0, 0
0, 0
0, 0
0, 0
0, 0
0, 0
0, 0
0, 0
0, 0
0, 0
0, 0
0, 0
0, 0
0, 0
0, 0
0, 0
0, 0
0, 0
0, 0
0, 0
0, 0
0, 0
0, 0
0, 0
0, 0
0, 0
0, 0
0, 0
0, 0
0, 0
0, 0
0, 0
0, 0
0, 0
0, 0
0, 0
0, 0
0, 0
0, 0
0, 0
0, 0
0, 0
0, 0
0, 0
0, 0
0, 0
0, 0
0, 0
0, 0
0, 0
0, 0
0, 0
0, 0
0, 0
0, 0
0, 0
0, 0
0, 0
0, 0
0, 0
0, 0
0, 0
0, 0
0, 0
0, 0
0, 0
0, 0
0, 0
0, 0
0, 0
0, 0
0, 0
0, 0
0, 0
0, 0
0, 0
0, 0
0, 0
0, 0
0, 0
0, 0
#ENDOFDATA     end of spectrum data