File: host_upload/06-09-2024/ps_0852/dump3/ps__0852shot_2008.msa
#FORMAT      : EMSA/MAS spectral data file
#VERSION     : TC202v2.0 PIXL
#TITLE       : N/A
#DATE        :       Date in the format DD-MMM-YYYY, for example 07-JUL-2010
#TIME        :             The time of day at which the spectrum was recorded, in 24-hour format
#OWNER       : PIXL Flight Model       (PIXL will use this to indicate which instrument took the data.)
#NPOINTS     : 4096     Number of data points in the spectrum (This can be zero for configuration only files)
#NCOLUMNS    : 2     Number of data columns in the spectrum (This can be zero for configuration only files)
#XUNITS      : eV
#YUNITS      : COUNTS
#DATATYPE    : YY
#XPERCHAN    : 7.862, 7.881   eV per channel (separate by commas if more than one detector)
#OFFSET      : 18.5, -22.4         eV of first channel  (separate by commas if more than one detector
#SIGNALTYPE  : XRF
#YP_TEMP     : 2.235
#LIVETIME    : 8.61065, 8.53428   seconds (separate by commas if more than one detector)
#REALTIME    : 10, 10.0   seconds (separate by commas if more than one detector)
#SPECTRUM    : start of spectrum data
0, 0
0, 0
0, 0
0, 0
0, 0
0, 0
0, 0
0, 0
0, 0
0, 0
0, 0
0, 0
0, 0
0, 0
0, 0
0, 0
0, 0
0, 0
0, 0
0, 0
0, 0
0, 0
0, 0
0, 0
0, 0
0, 0
0, 0
0, 0
0, 0
0, 0
0, 0
0, 0
0, 0
0, 0
0, 0
2, 0
0, 0
0, 0
0, 1
0, 3
1, 1
1, 0
1, 0
3, 1
0, 0
3, 1
0, 1
2, 2
9, 11
7, 7
24, 21
44, 50
44, 58
63, 81
73, 78
82, 63
50, 60
39, 39
30, 23
10, 16
10, 6
3, 8
5, 4
5, 13
6, 7
8, 5
4, 10
12, 12
20, 23
38, 42
117, 87
152, 191
256, 301
377, 357
403, 424
406, 361
359, 352
290, 264
216, 168
128, 106
74, 81
46, 37
18, 23
15, 10
5, 5
6, 2
3, 5
4, 1
2, 1
3, 4
1, 1
1, 4
1, 0
1, 3
0, 4
2, 2
4, 1
0, 4
2, 6
7, 7
4, 8
2, 1
4, 2
5, 4
3, 2
0, 4
5, 6
7, 7
7, 10
15, 12
20, 18
29, 25
28, 45
38, 42
32, 51
61, 40
37, 29
51, 32
38, 33
30, 27
34, 21
32, 20
34, 20
44, 14
39, 11
37, 18
29, 10
36, 11
13, 8
14, 7
13, 9
7, 3
5, 1
4, 3
2, 4
1, 4
4, 2
2, 5
5, 3
7, 6
6, 2
10, 3
4, 5
0, 4
4, 4
1, 3
2, 1
0, 1
3, 2
4, 2
3, 1
4, 8
6, 2
6, 8
12, 12
13, 14
15, 19
15, 16
19, 13
12, 11
11, 10
5, 12
2, 6
3, 6
2, 0
3, 4
1, 3
1, 4
2, 4
4, 2
7, 4
9, 9
12, 6
18, 3
13, 6
22, 4
22, 2
33, 2
24, 7
26, 3
25, 1
15, 4
14, 3
10, 4
15, 1
20, 2
15, 6
13, 3
9, 6
12, 7
9, 13
9, 10
10, 7
12, 10
10, 10
14, 13
6, 6
13, 22
24, 32
17, 31
14, 34
8, 40
5, 38
9, 37
10, 34
4, 47
7, 23
4, 24
3, 11
3, 13
9, 15
4, 6
5, 7
1, 14
5, 11
2, 9
3, 9
2, 6
5, 7
8, 12
8, 13
5, 15
6, 18
5, 17
4, 7
6, 10
13, 6
13, 15
14, 22
15, 20
12, 21
12, 8
21, 17
16, 13
21, 12
33, 11
38, 3
51, 7
47, 3
53, 8
62, 5
47, 7
53, 12
41, 6
61, 15
49, 23
50, 23
55, 33
66, 55
62, 63
75, 57
62, 70
69, 57
45, 51
44, 48
37, 29
25, 30
17, 15
16, 16
20, 25
24, 25
24, 32
36, 53
92, 105
144, 205
250, 309
497, 630
763, 873
1147, 1287
1519, 1744
1948, 2069
2190, 2320
2296, 2428
2390, 2374
2045, 1870
1698, 1530
1305, 1108
913, 713
587, 496
372, 270
227, 133
114, 74
65, 39
32, 26
33, 20
28, 22
19, 16
17, 18
20, 21
22, 17
25, 17
36, 42
62, 53
77, 104
105, 130
143, 166
185, 231
251, 280
318, 339
321, 356
372, 366
331, 304
300, 253
281, 220
197, 118
146, 107
92, 63
68, 31
36, 22
27, 9
7, 7
14, 8
11, 5
12, 7
6, 7
15, 12
16, 14
7, 13
13, 10
21, 11
10, 11
6, 7
6, 4
10, 4
11, 7
4, 3
3, 4
5, 4
3, 5
4, 3
7, 2
3, 2
9, 2
5, 4
0, 4
1, 2
1, 5
7, 1
4, 2
5, 4
2, 3
4, 5
4, 4
2, 6
6, 2
7, 7
5, 4
13, 12
15, 6
22, 2
17, 8
34, 3
22, 5
24, 9
28, 3
33, 8
18, 12
26, 7
14, 6
8, 14
9, 18
12, 13
5, 17
5, 21
7, 17
4, 13
7, 6
9, 4
11, 9
4, 3
10, 9
5, 6
4, 4
2, 7
2, 2
4, 8
5, 5
4, 3
7, 4
1, 4
3, 3
4, 2
2, 3
4, 3
2, 2
4, 1
4, 3
4, 2
11, 5
1, 0
6, 3
4, 4
3, 2
1, 2
4, 5
9, 4
2, 7
2, 6
0, 7
3, 2
4, 6
5, 7
1, 5
5, 1
2, 4
2, 2
6, 5
5, 3
3, 5
5, 6
4, 10
2, 3
1, 5
1, 3
2, 7
2, 2
6, 3
6, 9
2, 2
3, 5
2, 5
5, 4
7, 0
3, 3
3, 5
0, 5
1, 5
4, 5
0, 5
2, 8
5, 12
3, 9
2, 6
5, 7
2, 11
4, 9
1, 16
6, 15
1, 8
2, 13
4, 7
2, 6
3, 5
7, 2
4, 3
3, 5
1, 4
1, 1
1, 2
0, 2
4, 3
1, 3
1, 2
4, 1
3, 2
5, 3
3, 1
1, 4
3, 1
2, 1
4, 5
0, 6
2, 0
4, 1
2, 0
3, 0
2, 2
2, 1
3, 1
3, 5
4, 2
5, 2
5, 0
3, 2
0, 1
7, 3
5, 1
4, 3
4, 2
5, 3
2, 0
1, 1
0, 4
3, 1
1, 2
4, 4
1, 2
1, 0
0, 1
1, 1
4, 1
0, 2
1, 2
2, 1
1, 1
1, 3
2, 2
5, 3
4, 3
0, 3
2, 1
3, 5
1, 1
1, 1
1, 4
0, 3
2, 6
4, 2
2, 6
3, 0
2, 3
1, 4
0, 2
0, 3
0, 2
1, 2
1, 3
2, 0
1, 1
3, 1
1, 3
5, 2
3, 1
1, 3
2, 1
2, 1
1, 2
1, 2
3, 4
1, 0
0, 0
2, 2
0, 2
3, 3
1, 4
2, 3
3, 2
2, 4
1, 1
3, 3
3, 5
3, 4
6, 7
1, 0
2, 1
1, 3
5, 6
2, 6
3, 4
0, 0
3, 1
2, 0
1, 1
3, 2
0, 0
3, 3
1, 2
0, 3
3, 1
1, 3
2, 0
1, 1
2, 1
5, 1
2, 2
3, 1
1, 1
2, 3
3, 2
2, 2
1, 3
1, 3
1, 2
0, 2
2, 0
1, 1
1, 0
2, 0
2, 2
0, 2
1, 0
0, 2
1, 2
1, 2
1, 0
0, 3
3, 1
0, 0
0, 0
0, 0
1, 2
1, 3
0, 1
0, 2
1, 1
0, 2
2, 1
2, 0
2, 0
1, 2
2, 3
1, 1
0, 1
1, 2
1, 1
0, 0
1, 1
2, 0
2, 0
0, 0
0, 0
0, 2
0, 0
0, 0
0, 1
0, 1
0, 1
0, 0
2, 0
0, 0
0, 1
1, 0
1, 0
1, 1
0, 0
0, 2
1, 1
1, 0
2, 0
1, 1
2, 2
1, 0
0, 0
0, 0
1, 1
1, 0
0, 0
1, 2
0, 0
2, 0
1, 0
1, 1
2, 1
0, 0
1, 1
0, 2
0, 2
1, 0
2, 2
0, 1
1, 0
0, 0
1, 0
2, 0
0, 1
0, 1
0, 1
0, 0
1, 2
0, 1
0, 1
0, 1
0, 1
1, 0
0, 1
0, 0
1, 0
2, 0
1, 1
0, 1
2, 1
2, 1
2, 1
0, 0
0, 3
0, 0
0, 3
0, 0
0, 1
0, 0
2, 1
0, 0
1, 0
0, 1
1, 1
0, 1
4, 1
1, 1
0, 1
2, 0
1, 0
0, 0
0, 1
0, 2
0, 0
0, 0
0, 1
1, 0
0, 1
2, 0
1, 1
1, 0
0, 1
0, 0
1, 0
0, 1
0, 0
2, 1
1, 0
1, 0
0, 0
0, 1
1, 1
0, 0
0, 0
0, 0
0, 0
1, 0
0, 0
0, 0
0, 0
0, 1
1, 0
1, 0
0, 0
0, 1
0, 0
0, 0
0, 0
0, 1
1, 1
0, 0
0, 0
0, 1
0, 1
0, 1
0, 1
1, 0
0, 3
0, 1
0, 0
0, 0
1, 0
0, 0
0, 1
2, 0
0, 0
0, 0
0, 0
2, 0
0, 1
1, 1
0, 0
0, 0
0, 0
0, 0
0, 0
1, 1
0, 0
0, 0
0, 0
1, 0
0, 0
0, 1
0, 1
0, 0
0, 0
0, 0
0, 0
0, 0
0, 0
0, 2
1, 0
0, 0
0, 1
0, 0
0, 0
1, 0
0, 0
0, 1
0, 0
0, 1
0, 0
0, 0
0, 0
1, 0
1, 2
0, 0
1, 0
0, 0
1, 1
1, 0
1, 0
0, 0
1, 1
0, 0
1, 0
1, 0
1, 0
0, 2
1, 0
0, 0
0, 0
0, 1
0, 0
0, 0
0, 0
0, 0
0, 0
0, 1
0, 0
0, 0
0, 0
1, 1
0, 0
1, 1
1, 1
0, 0
0, 0
0, 0
0, 0
0, 0
1, 0
0, 0
0, 0
0, 0
0, 0
0, 0
0, 0
0, 1
0, 0
0, 0
1, 0
0, 0
0, 0
0, 0
1, 0
0, 0
0, 0
0, 0
0, 0
0, 1
0, 0
0, 0
0, 0
0, 0
0, 0
0, 0
0, 0
0, 0
0, 0
1, 1
1, 0
0, 0
0, 0
1, 0
0, 0
0, 1
1, 0
0, 0
0, 0
0, 0
0, 0
0, 0
0, 0
0, 0
0, 1
0, 0
0, 0
0, 0
1, 0
0, 0
0, 1
0, 0
0, 0
0, 0
1, 0
0, 0
0, 0
0, 0
1, 0
0, 0
0, 0
0, 0
0, 0
0, 0
0, 0
0, 0
0, 1
0, 0
0, 0
0, 0
0, 0
1, 0
1, 0
0, 0
0, 0
0, 0
0, 0
0, 0
0, 0
0, 0
0, 0
0, 1
0, 0
0, 0
0, 0
0, 0
0, 0
0, 0
0, 0
0, 0
0, 0
0, 0
0, 0
0, 0
0, 0
0, 0
1, 0
0, 0
0, 0
0, 0
1, 1
0, 0
0, 0
0, 0
0, 0
0, 0
0, 0
0, 0
0, 0
0, 0
0, 0
0, 0
0, 0
0, 0
0, 0
0, 0
0, 0
0, 0
0, 0
0, 0
0, 0
0, 0
0, 1
0, 0
0, 0
0, 0
0, 0
0, 0
0, 0
0, 0
0, 0
0, 0
0, 0
0, 0
0, 0
0, 0
0, 0
0, 0
0, 0
0, 0
0, 0
0, 0
0, 0
0, 0
0, 0
0, 0
0, 0
0, 0
1, 1
0, 0
0, 0
0, 0
0, 0
0, 0
0, 0
0, 0
0, 0
0, 0
0, 0
0, 0
0, 0
0, 0
0, 0
0, 0
0, 0
0, 0
0, 0
0, 0
0, 0
0, 0
0, 0
0, 0
0, 0
0, 0
0, 0
0, 0
0, 0
0, 0
0, 0
0, 0
0, 0
0, 0
0, 0
0, 0
0, 0
0, 0
0, 0
0, 0
0, 0
0, 0
0, 0
0, 0
0, 0
0, 0
0, 0
0, 0
0, 0
0, 1
0, 0
0, 0
0, 0
0, 0
0, 0
0, 0
0, 0
0, 0
0, 0
0, 0
0, 0
0, 0
0, 0
1, 0
0, 0
0, 0
0, 0
0, 0
0, 0
0, 0
0, 0
0, 0
0, 0
0, 0
0, 0
1, 0
0, 0
0, 0
0, 0
0, 0
0, 0
0, 0
0, 0
0, 0
0, 0
0, 0
0, 0
0, 0
0, 0
0, 0
0, 0
0, 0
0, 0
0, 0
0, 0
0, 0
0, 0
0, 0
0, 0
0, 0
0, 0
0, 0
0, 0
0, 0
0, 0
0, 0
0, 0
0, 0
0, 0
0, 0
0, 0
0, 0
0, 0
0, 0
0, 0
0, 0
0, 0
0, 0
0, 0
0, 0
0, 0
0, 0
0, 0
0, 0
0, 0
0, 0
0, 0
0, 0
0, 0
0, 0
0, 0
0, 0
0, 0
0, 0
0, 0
0, 0
0, 0
0, 0
0, 0
0, 0
0, 0
0, 0
0, 0
0, 0
0, 0
0, 0
0, 0
0, 0
0, 0
0, 0
0, 0
0, 0
0, 0
0, 0
0, 0
0, 0
0, 0
0, 0
0, 0
0, 0
0, 0
0, 0
0, 0
0, 0
0, 0
0, 0
0, 0
0, 0
0, 0
0, 0
0, 0
0, 0
0, 0
0, 0
0, 0
0, 0
0, 0
0, 0
0, 0
0, 0
0, 0
0, 0
0, 0
0, 0
0, 0
0, 0
0, 0
0, 0
0, 0
0, 0
0, 0
0, 0
0, 0
0, 0
0, 0
0, 0
0, 0
0, 0
0, 0
0, 0
0, 0
0, 0
0, 0
0, 0
0, 0
0, 0
0, 0
0, 0
0, 0
0, 0
0, 0
0, 0
0, 0
0, 0
0, 0
0, 0
0, 0
0, 0
0, 0
0, 0
0, 0
0, 0
0, 0
0, 0
0, 0
0, 0
0, 0
0, 0
0, 0
0, 0
0, 0
0, 0
0, 0
0, 0
0, 0
0, 0
0, 0
0, 0
0, 0
0, 0
0, 0
0, 0
0, 0
0, 0
0, 0
0, 0
0, 0
0, 0
0, 0
0, 0
0, 0
0, 0
0, 0
0, 0
0, 0
0, 0
0, 0
0, 0
0, 0
0, 0
0, 0
0, 0
0, 0
0, 0
0, 0
0, 0
0, 0
0, 0
0, 0
0, 0
0, 0
0, 0
0, 0
0, 0
0, 0
0, 0
0, 0
0, 0
0, 0
0, 0
0, 0
0, 0
0, 0
0, 0
0, 0
0, 0
0, 0
0, 0
0, 0
0, 0
0, 0
0, 0
0, 0
0, 0
0, 0
0, 0
0, 0
0, 0
0, 0
0, 0
0, 0
0, 0
0, 0
0, 0
0, 0
0, 0
0, 0
0, 0
0, 0
0, 0
0, 0
0, 0
0, 0
0, 0
0, 0
0, 0
0, 0
0, 0
0, 0
0, 0
0, 0
0, 0
0, 0
0, 0
0, 0
0, 0
0, 0
0, 0
0, 0
0, 0
0, 0
0, 0
0, 0
0, 0
0, 0
0, 0
0, 0
0, 0
0, 0
0, 0
0, 0
0, 0
0, 0
0, 0
0, 0
0, 0
0, 0
0, 0
0, 0
0, 0
0, 0
0, 0
0, 0
0, 0
0, 0
0, 0
0, 0
0, 0
0, 0
0, 0
0, 0
0, 0
0, 0
0, 0
0, 0
0, 0
0, 0
0, 0
0, 0
0, 0
0, 0
0, 0
0, 0
0, 0
0, 0
0, 0
0, 0
0, 0
0, 0
0, 0
0, 0
0, 0
0, 0
0, 0
0, 0
0, 0
0, 0
0, 0
0, 0
0, 0
0, 0
0, 0
0, 0
0, 0
0, 0
0, 0
#ENDOFDATA     end of spectrum data