File: host_upload/06-09-2024/ps_0852/dump3/ps__0852shot_2086.msa
#FORMAT      : EMSA/MAS spectral data file
#VERSION     : TC202v2.0 PIXL
#TITLE       : N/A
#DATE        :       Date in the format DD-MMM-YYYY, for example 07-JUL-2010
#TIME        :             The time of day at which the spectrum was recorded, in 24-hour format
#OWNER       : PIXL Flight Model       (PIXL will use this to indicate which instrument took the data.)
#NPOINTS     : 4096     Number of data points in the spectrum (This can be zero for configuration only files)
#NCOLUMNS    : 2     Number of data columns in the spectrum (This can be zero for configuration only files)
#XUNITS      : eV
#YUNITS      : COUNTS
#DATATYPE    : YY
#XPERCHAN    : 7.862, 7.881   eV per channel (separate by commas if more than one detector)
#OFFSET      : 18.5, -22.4         eV of first channel  (separate by commas if more than one detector
#SIGNALTYPE  : XRF
#YP_TEMP     : 2.556
#LIVETIME    : 8.55991, 8.55916   seconds (separate by commas if more than one detector)
#REALTIME    : 10, 10.0   seconds (separate by commas if more than one detector)
#SPECTRUM    : start of spectrum data
0, 0
0, 0
0, 0
0, 0
0, 0
0, 0
0, 0
0, 0
0, 0
0, 0
0, 0
0, 0
0, 0
0, 0
0, 0
0, 0
0, 0
0, 0
0, 0
0, 0
0, 0
0, 0
0, 0
0, 0
0, 0
0, 0
0, 0
0, 0
0, 0
0, 0
0, 0
1, 0
0, 1
0, 0
0, 0
0, 0
0, 0
1, 1
0, 0
1, 1
1, 2
2, 1
2, 1
7, 1
2, 2
1, 2
2, 4
5, 0
6, 11
7, 15
30, 24
45, 56
59, 67
70, 75
73, 103
80, 90
67, 80
33, 31
37, 27
20, 12
9, 9
3, 8
4, 3
1, 4
3, 5
2, 1
8, 5
5, 14
10, 27
47, 67
95, 101
173, 207
246, 301
318, 376
391, 441
437, 457
379, 382
293, 262
191, 199
119, 139
76, 71
28, 42
27, 15
9, 7
6, 2
2, 1
1, 3
1, 4
2, 2
1, 2
0, 0
1, 2
1, 3
1, 0
1, 1
0, 4
1, 1
2, 1
2, 1
1, 3
3, 2
1, 2
1, 1
2, 3
1, 2
2, 5
4, 4
5, 7
12, 6
18, 15
39, 18
54, 34
89, 52
114, 60
139, 63
159, 77
158, 62
121, 56
114, 38
71, 36
43, 28
38, 21
36, 18
15, 17
13, 13
11, 12
13, 8
5, 8
13, 7
7, 5
9, 5
2, 2
1, 4
0, 1
1, 1
4, 1
4, 0
2, 3
0, 1
3, 2
2, 1
2, 4
1, 1
0, 1
2, 2
2, 1
2, 3
1, 2
5, 3
3, 3
1, 2
3, 4
2, 4
4, 7
11, 19
11, 11
20, 10
12, 18
15, 12
10, 16
7, 12
10, 8
3, 8
4, 3
6, 3
4, 4
6, 4
2, 5
8, 10
4, 10
7, 8
18, 10
19, 11
35, 7
35, 8
34, 6
50, 6
38, 3
37, 4
46, 4
28, 3
24, 3
15, 2
23, 3
8, 1
11, 4
10, 4
9, 7
4, 6
11, 8
7, 10
10, 6
8, 8
7, 11
9, 7
11, 20
11, 20
15, 27
10, 33
20, 43
12, 49
9, 71
5, 78
8, 76
4, 75
3, 88
6, 60
4, 45
3, 28
6, 19
3, 19
4, 9
2, 3
5, 3
1, 8
2, 11
3, 3
3, 13
4, 14
4, 15
8, 9
3, 13
5, 17
7, 13
5, 24
11, 14
7, 8
11, 14
17, 23
13, 13
21, 25
22, 17
28, 9
24, 15
37, 10
44, 9
57, 10
57, 7
65, 4
51, 7
54, 7
42, 7
39, 9
32, 11
32, 16
25, 12
28, 31
37, 28
47, 53
62, 61
64, 66
64, 64
47, 41
49, 58
41, 35
32, 35
25, 27
11, 24
22, 19
14, 26
20, 25
19, 53
51, 70
79, 125
123, 218
279, 332
454, 601
756, 988
993, 1392
1416, 1814
1832, 2238
2184, 2424
2228, 2572
2201, 2400
1907, 2007
1581, 1651
1255, 1149
908, 844
559, 515
370, 304
214, 205
97, 89
61, 53
39, 34
23, 24
23, 26
23, 10
28, 15
32, 22
37, 20
39, 27
61, 41
71, 64
80, 94
98, 112
139, 173
211, 225
287, 287
312, 323
324, 346
365, 336
327, 334
295, 290
235, 221
186, 174
131, 114
89, 66
43, 28
27, 23
21, 10
15, 12
6, 2
7, 8
9, 7
8, 7
9, 12
10, 6
7, 12
13, 8
13, 12
13, 8
10, 6
6, 13
5, 6
9, 3
4, 1
3, 4
1, 4
5, 5
2, 2
5, 6
3, 4
5, 6
4, 7
5, 3
2, 8
3, 4
3, 3
2, 9
4, 8
4, 3
3, 6
3, 2
11, 4
7, 7
18, 6
22, 6
22, 2
38, 3
47, 6
33, 3
59, 8
63, 6
60, 5
49, 4
43, 5
49, 8
46, 7
27, 5
26, 11
16, 16
6, 17
14, 17
9, 21
3, 7
6, 10
8, 7
7, 7
3, 11
3, 4
0, 4
5, 5
4, 2
3, 4
3, 7
5, 5
5, 5
4, 5
5, 5
2, 6
2, 10
1, 2
4, 3
2, 2
5, 8
2, 2
3, 5
1, 4
1, 3
3, 1
1, 5
3, 5
1, 5
5, 5
1, 1
3, 3
3, 3
1, 6
3, 4
3, 7
2, 8
3, 5
1, 5
0, 3
0, 5
3, 6
0, 4
1, 3
4, 8
3, 4
5, 6
4, 4
2, 4
5, 3
5, 4
5, 3
1, 3
2, 3
1, 7
5, 6
4, 7
5, 7
5, 6
5, 4
1, 1
5, 5
8, 5
6, 4
1, 3
3, 4
2, 3
3, 7
2, 9
2, 5
4, 6
1, 10
5, 10
1, 10
2, 8
3, 7
0, 9
3, 7
1, 5
4, 8
1, 4
2, 1
1, 1
2, 3
2, 1
1, 2
2, 1
3, 0
0, 3
3, 2
2, 3
3, 3
6, 5
2, 1
5, 4
3, 3
3, 6
2, 2
5, 2
2, 2
3, 3
0, 2
4, 1
7, 3
1, 3
2, 4
7, 0
9, 2
7, 5
4, 2
6, 0
8, 3
4, 3
6, 1
6, 1
6, 0
3, 2
3, 1
1, 1
4, 3
1, 1
3, 4
0, 4
2, 1
2, 4
2, 1
2, 2
1, 6
2, 0
2, 1
0, 0
2, 2
3, 1
2, 0
3, 1
3, 1
0, 2
0, 1
0, 3
0, 3
1, 0
1, 3
1, 3
0, 1
6, 1
1, 0
3, 0
1, 1
0, 1
3, 2
4, 1
5, 4
3, 2
2, 0
0, 2
2, 1
1, 2
1, 0
1, 0
1, 0
6, 2
0, 2
2, 4
3, 1
1, 3
3, 1
4, 2
4, 1
5, 0
4, 4
4, 1
2, 3
4, 4
1, 0
2, 2
5, 4
1, 7
4, 4
0, 3
4, 3
4, 4
1, 3
1, 8
4, 3
4, 6
0, 2
2, 0
2, 2
1, 2
1, 4
0, 3
1, 4
1, 3
1, 4
2, 1
1, 2
1, 2
1, 2
0, 2
1, 3
1, 3
2, 2
0, 1
0, 1
2, 0
2, 2
4, 1
1, 4
1, 2
1, 2
1, 3
3, 1
1, 1
1, 0
0, 0
1, 1
1, 1
0, 3
1, 1
2, 0
1, 2
2, 2
2, 1
2, 1
3, 2
1, 0
2, 3
0, 0
2, 0
1, 3
1, 2
2, 0
2, 0
2, 2
0, 1
0, 2
1, 1
1, 1
1, 0
0, 1
0, 0
1, 0
0, 1
1, 0
0, 1
1, 0
1, 1
0, 0
1, 1
1, 1
0, 0
4, 2
0, 1
1, 2
2, 1
2, 0
0, 1
0, 0
0, 1
0, 2
1, 0
0, 0
0, 2
1, 1
1, 0
1, 0
2, 0
2, 1
0, 4
1, 1
1, 1
0, 0
0, 2
1, 1
0, 0
0, 1
2, 1
0, 1
0, 0
1, 0
3, 4
0, 0
0, 0
0, 1
0, 2
1, 0
2, 1
0, 0
1, 0
1, 0
0, 2
0, 2
1, 0
0, 1
1, 0
0, 0
0, 0
2, 1
0, 1
2, 0
1, 2
1, 2
0, 0
0, 0
0, 0
1, 0
0, 3
0, 1
1, 1
0, 2
0, 1
1, 1
0, 2
1, 0
1, 0
0, 2
0, 0
1, 0
0, 1
0, 1
0, 1
2, 0
1, 0
0, 1
0, 0
0, 2
1, 1
0, 0
0, 1
1, 0
0, 0
0, 0
0, 2
0, 0
0, 1
0, 1
0, 0
1, 1
0, 1
0, 0
1, 0
1, 1
0, 0
2, 0
0, 0
0, 0
0, 1
0, 1
0, 0
0, 0
0, 0
0, 0
1, 0
0, 0
0, 0
0, 0
0, 1
0, 0
1, 0
0, 0
0, 1
0, 0
0, 1
1, 0
0, 0
1, 1
0, 0
0, 1
0, 0
0, 0
0, 0
0, 0
1, 0
1, 0
0, 1
0, 0
1, 0
0, 1
0, 0
1, 0
0, 0
0, 0
0, 0
0, 0
0, 2
1, 1
0, 0
0, 1
0, 0
1, 0
0, 0
0, 1
0, 0
0, 0
0, 0
0, 2
0, 0
0, 0
1, 0
0, 1
1, 0
0, 0
0, 0
0, 2
0, 0
0, 0
0, 0
0, 0
0, 0
0, 0
0, 0
1, 0
0, 0
0, 0
0, 0
0, 1
0, 0
0, 0
0, 1
0, 0
1, 1
0, 0
0, 0
0, 0
1, 0
0, 0
0, 0
0, 1
0, 0
0, 0
0, 0
0, 0
0, 1
0, 0
0, 0
0, 0
0, 0
0, 0
0, 0
0, 0
0, 0
0, 0
0, 0
0, 0
0, 0
0, 1
0, 0
0, 0
0, 0
0, 0
0, 1
0, 2
0, 1
0, 0
0, 0
0, 0
1, 0
0, 0
0, 0
0, 0
0, 0
0, 0
0, 0
0, 0
0, 1
0, 1
0, 0
0, 0
1, 0
1, 0
0, 0
1, 0
0, 0
0, 0
0, 1
0, 1
0, 0
0, 0
0, 0
0, 0
0, 0
0, 0
0, 0
1, 0
0, 1
0, 0
0, 0
0, 1
0, 0
0, 0
0, 0
1, 0
0, 2
2, 1
0, 0
0, 0
0, 0
0, 0
0, 0
0, 0
0, 0
1, 0
0, 0
1, 0
0, 0
0, 0
0, 0
0, 0
0, 0
0, 0
0, 0
1, 0
0, 0
0, 0
0, 0
0, 0
0, 0
0, 0
0, 0
0, 0
0, 0
0, 0
1, 0
0, 0
0, 0
0, 0
0, 0
0, 1
0, 0
1, 0
0, 0
0, 0
0, 0
0, 0
0, 0
1, 0
0, 0
1, 0
0, 0
0, 0
0, 0
0, 0
0, 0
0, 0
0, 0
0, 0
0, 0
0, 1
0, 0
1, 0
0, 0
0, 0
0, 0
0, 0
0, 0
0, 0
0, 0
0, 0
0, 0
0, 0
0, 0
0, 0
0, 0
0, 0
0, 0
0, 0
0, 0
0, 0
0, 0
0, 0
0, 0
0, 0
0, 0
0, 0
0, 0
0, 0
0, 0
0, 0
0, 1
0, 0
0, 0
0, 0
1, 0
0, 0
0, 0
0, 0
0, 0
0, 0
0, 0
0, 0
0, 0
0, 0
0, 0
0, 0
0, 0
0, 0
0, 0
0, 0
0, 0
0, 0
0, 0
0, 0
0, 0
0, 0
0, 0
0, 0
0, 0
0, 0
0, 0
0, 0
0, 0
0, 0
0, 0
0, 0
0, 0
0, 0
0, 0
0, 0
0, 0
0, 0
0, 0
0, 0
0, 0
0, 0
0, 0
0, 0
0, 0
0, 0
0, 0
0, 0
0, 0
0, 0
0, 0
0, 0
0, 0
0, 0
0, 0
0, 0
0, 0
0, 0
0, 0
0, 0
0, 0
0, 0
0, 0
0, 0
0, 0
0, 0
0, 0
0, 0
0, 0
0, 0
0, 0
0, 0
0, 0
0, 0
0, 0
0, 0
0, 0
0, 0
0, 0
0, 0
0, 0
0, 0
0, 0
0, 0
0, 0
0, 0
0, 0
0, 0
0, 0
0, 0
0, 0
0, 0
0, 0
0, 0
0, 0
0, 0
0, 0
0, 0
0, 0
0, 0
0, 0
0, 0
0, 0
0, 0
0, 0
0, 0
0, 0
0, 0
0, 0
0, 0
0, 0
0, 0
0, 0
0, 0
0, 0
0, 0
0, 0
0, 0
0, 0
0, 0
0, 0
0, 0
0, 0
0, 0
0, 0
0, 0
0, 0
0, 0
0, 0
0, 0
0, 0
0, 0
0, 0
0, 0
0, 0
0, 0
0, 0
0, 0
0, 0
0, 0
0, 0
0, 0
0, 0
0, 0
0, 0
0, 0
0, 0
0, 0
0, 0
0, 0
0, 0
0, 0
0, 0
0, 0
0, 0
0, 0
0, 0
0, 0
0, 0
0, 0
0, 0
0, 0
0, 0
0, 0
0, 0
0, 0
0, 0
0, 0
0, 0
0, 0
0, 0
0, 0
0, 0
0, 0
0, 0
0, 0
0, 0
0, 0
0, 0
0, 0
0, 0
0, 0
0, 0
0, 0
0, 0
0, 0
0, 0
0, 0
0, 0
0, 0
0, 0
0, 0
0, 0
0, 0
0, 0
0, 0
0, 0
0, 0
0, 0
0, 0
0, 0
0, 0
0, 0
0, 0
0, 0
0, 0
0, 0
0, 0
0, 0
0, 0
0, 0
0, 0
0, 0
0, 0
0, 0
0, 0
0, 0
0, 0
0, 0
0, 0
0, 0
0, 0
0, 0
0, 0
0, 0
0, 0
0, 0
0, 0
0, 0
0, 0
0, 0
0, 0
0, 0
0, 0
0, 0
0, 0
0, 0
0, 0
0, 0
0, 0
0, 0
0, 0
0, 0
0, 0
0, 0
0, 0
0, 0
0, 0
0, 0
0, 0
0, 0
0, 0
0, 0
0, 0
0, 0
0, 0
0, 0
0, 0
0, 0
0, 0
0, 0
0, 0
0, 0
0, 0
0, 0
0, 0
0, 0
0, 0
0, 0
0, 0
0, 0
0, 0
0, 0
0, 0
0, 0
0, 0
0, 0
0, 0
0, 0
0, 0
0, 0
0, 0
0, 0
0, 0
0, 0
0, 0
0, 0
0, 0
0, 0
0, 0
0, 0
0, 0
0, 0
0, 0
0, 0
0, 0
0, 0
0, 0
0, 0
0, 0
0, 0
0, 0
0, 0
0, 0
0, 0
0, 0
0, 0
0, 0
0, 0
0, 0
0, 0
0, 0
0, 0
0, 0
0, 0
0, 0
0, 0
0, 0
0, 0
0, 0
0, 0
0, 0
0, 0
0, 0
0, 0
0, 0
0, 0
0, 0
0, 0
0, 0
0, 0
0, 0
0, 0
0, 0
0, 0
0, 0
0, 0
0, 0
0, 0
0, 0
0, 0
0, 0
0, 0
0, 0
0, 0
0, 0
0, 0
0, 0
0, 0
0, 0
0, 0
0, 0
0, 0
0, 0
0, 0
0, 0
0, 0
0, 0
0, 0
0, 0
0, 0
0, 0
0, 0
0, 0
0, 0
0, 0
0, 0
0, 0
0, 0
0, 0
0, 0
0, 0
0, 0
0, 0
0, 0
0, 0
0, 0
0, 0
0, 0
0, 0
0, 0
0, 0
0, 0
0, 0
0, 0
0, 0
0, 0
0, 0
0, 0
0, 0
0, 0
0, 0
0, 0
0, 0
0, 0
0, 0
0, 0
0, 0
0, 0
0, 0
0, 0
0, 0
0, 0
0, 0
0, 0
0, 0
0, 0
0, 0
0, 0
0, 0
0, 0
0, 0
0, 0
0, 0
0, 0
0, 0
0, 0
0, 0
0, 0
0, 0
#ENDOFDATA     end of spectrum data