File: host_upload/06-09-2024/ps_0852/dump3/ps__0852shot_2016.msa
#FORMAT      : EMSA/MAS spectral data file
#VERSION     : TC202v2.0 PIXL
#TITLE       : N/A
#DATE        :       Date in the format DD-MMM-YYYY, for example 07-JUL-2010
#TIME        :             The time of day at which the spectrum was recorded, in 24-hour format
#OWNER       : PIXL Flight Model       (PIXL will use this to indicate which instrument took the data.)
#NPOINTS     : 4096     Number of data points in the spectrum (This can be zero for configuration only files)
#NCOLUMNS    : 2     Number of data columns in the spectrum (This can be zero for configuration only files)
#XUNITS      : eV
#YUNITS      : COUNTS
#DATATYPE    : YY
#XPERCHAN    : 7.862, 7.881   eV per channel (separate by commas if more than one detector)
#OFFSET      : 18.5, -22.4         eV of first channel  (separate by commas if more than one detector
#SIGNALTYPE  : XRF
#YP_TEMP     : 2.588
#LIVETIME    : 8.55081, 8.56877   seconds (separate by commas if more than one detector)
#REALTIME    : 10, 10.0   seconds (separate by commas if more than one detector)
#SPECTRUM    : start of spectrum data
0, 0
0, 0
0, 0
0, 0
0, 0
0, 0
0, 0
0, 0
0, 0
0, 0
0, 0
0, 0
0, 0
0, 0
0, 0
0, 0
0, 0
0, 0
0, 0
0, 0
0, 0
0, 0
0, 0
0, 0
0, 0
0, 0
0, 0
0, 0
0, 0
0, 0
0, 0
0, 0
0, 1
1, 0
0, 0
0, 0
0, 0
1, 0
0, 1
0, 2
3, 0
0, 1
0, 0
1, 2
2, 2
5, 1
1, 1
4, 4
5, 6
14, 10
16, 21
41, 43
52, 65
78, 76
64, 74
66, 83
49, 53
40, 39
25, 29
17, 13
8, 10
4, 2
3, 2
1, 1
2, 5
5, 4
5, 5
8, 13
19, 24
40, 59
89, 113
134, 174
235, 267
314, 346
413, 406
385, 383
374, 356
264, 302
175, 191
91, 116
68, 46
34, 36
19, 12
15, 4
6, 2
6, 7
1, 0
0, 3
1, 1
2, 1
0, 2
1, 0
3, 0
1, 8
4, 9
9, 10
12, 19
16, 31
12, 22
20, 19
16, 23
13, 12
10, 9
5, 9
4, 3
4, 8
3, 8
11, 12
6, 16
14, 21
12, 17
17, 30
25, 31
41, 32
40, 43
43, 44
32, 53
26, 35
24, 24
36, 28
24, 22
22, 28
16, 21
21, 21
21, 18
13, 23
18, 10
11, 14
8, 17
8, 14
4, 7
2, 3
4, 3
4, 5
0, 6
2, 4
3, 5
4, 2
3, 2
6, 2
2, 2
2, 5
4, 7
3, 3
2, 0
3, 0
4, 4
5, 3
9, 6
7, 1
7, 4
12, 6
10, 8
23, 8
19, 13
24, 26
19, 12
13, 10
18, 15
12, 16
12, 10
9, 15
7, 8
4, 2
4, 1
5, 7
6, 3
5, 0
2, 10
3, 9
4, 6
3, 6
5, 9
3, 7
6, 6
4, 10
2, 16
6, 10
4, 13
1, 14
2, 10
4, 9
2, 9
6, 3
3, 8
3, 7
6, 2
4, 7
9, 10
12, 6
13, 9
15, 10
22, 11
26, 9
27, 13
32, 15
36, 14
55, 11
41, 22
48, 18
29, 22
28, 14
20, 14
16, 12
9, 8
8, 10
20, 6
5, 10
5, 6
8, 6
6, 9
5, 4
9, 5
4, 8
10, 10
10, 7
5, 13
5, 9
6, 6
7, 8
12, 9
4, 6
9, 12
9, 8
11, 15
17, 13
16, 20
15, 24
17, 28
12, 39
24, 42
8, 25
11, 29
19, 31
8, 18
12, 24
12, 23
14, 17
12, 11
7, 19
7, 11
10, 6
6, 11
6, 14
16, 16
18, 27
37, 38
22, 44
46, 47
53, 72
57, 66
55, 62
68, 65
65, 50
42, 45
38, 29
38, 22
34, 22
29, 15
33, 20
39, 25
35, 41
45, 50
91, 114
156, 219
274, 400
457, 593
709, 957
1058, 1344
1438, 1819
1894, 2164
2134, 2392
2281, 2494
2240, 2431
2051, 2015
1674, 1636
1243, 1130
924, 812
539, 488
362, 282
209, 177
129, 100
71, 57
47, 39
22, 36
24, 24
21, 20
30, 25
29, 33
24, 26
32, 36
35, 47
57, 70
74, 78
91, 133
127, 168
189, 237
224, 312
245, 382
355, 391
348, 319
339, 339
300, 281
217, 235
176, 194
121, 104
86, 61
48, 48
37, 21
16, 10
16, 11
6, 13
5, 5
6, 10
8, 8
8, 17
13, 14
9, 23
13, 15
12, 23
12, 14
10, 23
8, 16
8, 14
4, 11
8, 5
4, 4
4, 5
7, 7
4, 8
7, 3
2, 7
7, 4
4, 1
2, 3
1, 6
5, 2
7, 1
3, 8
4, 2
4, 1
3, 5
6, 9
7, 5
7, 3
6, 7
6, 4
7, 7
11, 6
7, 9
7, 6
9, 5
6, 4
1, 7
3, 7
6, 3
8, 4
5, 6
6, 5
5, 3
3, 4
4, 5
3, 3
4, 8
6, 6
3, 7
1, 3
4, 1
0, 4
5, 2
7, 9
5, 2
5, 4
6, 4
3, 5
4, 6
3, 5
2, 3
0, 7
1, 7
8, 7
4, 8
2, 6
2, 2
3, 5
3, 9
2, 9
8, 2
1, 5
5, 8
6, 6
12, 7
8, 5
9, 3
8, 2
9, 7
4, 7
12, 7
4, 6
7, 8
10, 2
4, 6
7, 3
1, 1
2, 5
11, 4
6, 5
6, 7
9, 6
7, 5
7, 2
5, 7
11, 7
12, 7
8, 2
7, 3
12, 3
9, 2
11, 4
10, 3
5, 3
8, 1
4, 1
7, 4
3, 2
3, 6
4, 1
1, 3
2, 5
4, 0
6, 3
4, 3
1, 5
1, 3
5, 6
2, 4
1, 3
2, 1
0, 3
5, 5
2, 2
1, 5
0, 5
3, 2
2, 1
1, 7
2, 3
3, 3
1, 5
4, 2
2, 4
1, 2
1, 1
2, 4
1, 2
3, 4
3, 5
1, 1
3, 2
2, 4
3, 0
4, 0
3, 2
3, 1
3, 4
2, 1
2, 2
4, 4
2, 3
0, 1
5, 0
3, 2
1, 6
4, 1
1, 1
1, 2
2, 3
3, 2
2, 1
1, 3
3, 3
5, 2
4, 1
1, 0
4, 2
5, 5
1, 4
2, 2
4, 0
0, 2
4, 1
2, 1
4, 3
1, 3
2, 2
2, 3
5, 3
2, 4
3, 2
2, 3
1, 2
1, 1
4, 4
2, 4
0, 4
2, 1
0, 3
1, 5
0, 1
4, 0
1, 0
4, 3
3, 1
2, 3
1, 4
0, 1
1, 5
0, 2
0, 1
2, 3
3, 0
1, 2
0, 3
1, 5
3, 5
2, 4
4, 3
4, 3
0, 3
0, 1
2, 3
1, 4
2, 1
1, 2
2, 2
1, 5
0, 4
3, 3
1, 4
6, 6
1, 5
5, 6
3, 5
4, 4
2, 2
4, 3
4, 5
2, 0
1, 2
2, 2
3, 1
2, 1
5, 1
2, 0
1, 1
0, 1
3, 2
3, 2
1, 1
1, 0
1, 0
0, 2
1, 1
0, 3
3, 3
4, 0
3, 3
0, 4
1, 2
3, 3
2, 2
0, 1
1, 2
0, 1
2, 2
1, 2
0, 1
3, 2
2, 0
0, 0
2, 2
1, 0
1, 0
1, 2
1, 0
0, 2
2, 2
0, 2
1, 1
4, 2
0, 1
1, 3
2, 0
1, 3
2, 0
3, 4
0, 0
2, 1
0, 3
1, 1
0, 3
1, 0
3, 2
2, 1
1, 1
0, 0
3, 1
3, 0
3, 1
1, 1
0, 0
1, 0
2, 0
0, 0
2, 1
2, 0
0, 2
1, 1
1, 0
1, 1
0, 0
0, 2
2, 1
1, 1
1, 0
1, 1
1, 0
0, 0
0, 0
1, 0
0, 1
0, 1
1, 1
1, 0
2, 0
2, 2
0, 0
0, 0
0, 0
1, 1
1, 1
0, 0
0, 1
0, 2
1, 0
0, 0
2, 1
0, 0
0, 0
0, 2
1, 1
3, 1
0, 1
1, 1
1, 2
1, 1
0, 0
0, 1
0, 2
1, 1
2, 2
1, 2
1, 0
0, 0
0, 1
1, 1
0, 0
0, 3
1, 1
0, 0
0, 0
0, 1
0, 0
0, 1
1, 0
0, 1
1, 0
0, 0
0, 1
0, 0
0, 0
0, 0
0, 0
0, 1
1, 1
1, 0
0, 0
0, 0
2, 3
1, 0
0, 0
1, 0
0, 1
0, 0
2, 0
0, 0
0, 0
0, 1
1, 0
0, 1
0, 1
1, 2
0, 1
0, 1
0, 0
2, 0
0, 0
0, 0
1, 1
0, 1
0, 0
0, 1
1, 0
0, 1
0, 1
0, 0
0, 0
0, 1
0, 0
0, 0
0, 0
1, 0
0, 0
0, 0
0, 0
2, 0
0, 0
1, 0
1, 1
0, 0
0, 0
0, 1
0, 0
1, 0
0, 0
0, 0
0, 1
0, 0
1, 0
0, 0
0, 0
0, 0
0, 0
0, 0
0, 0
1, 1
0, 0
1, 0
0, 0
1, 0
0, 1
0, 1
0, 0
0, 0
1, 0
0, 1
0, 0
0, 0
1, 0
0, 0
0, 1
0, 0
0, 0
0, 0
1, 0
0, 0
0, 0
0, 1
0, 0
0, 0
0, 0
0, 0
0, 0
0, 0
0, 0
0, 0
0, 1
0, 0
1, 0
0, 0
1, 0
0, 1
0, 0
0, 1
0, 0
1, 2
0, 0
0, 0
0, 0
0, 0
0, 0
0, 1
0, 0
1, 0
0, 0
0, 0
0, 0
0, 0
0, 0
1, 0
0, 1
0, 0
0, 0
0, 1
0, 1
1, 0
0, 0
0, 0
0, 2
0, 0
0, 0
0, 0
0, 0
0, 0
0, 0
0, 0
0, 0
1, 1
1, 1
0, 0
1, 0
0, 0
0, 0
0, 0
0, 0
0, 0
0, 0
0, 0
0, 0
0, 0
0, 0
0, 0
0, 0
0, 0
1, 0
0, 0
0, 0
0, 0
0, 0
0, 0
0, 0
0, 0
0, 1
0, 1
0, 1
0, 0
0, 0
0, 0
0, 0
0, 0
0, 0
0, 1
0, 0
0, 0
0, 0
0, 0
0, 0
0, 0
0, 0
0, 0
0, 0
0, 1
0, 0
0, 0
0, 1
0, 0
0, 0
0, 0
0, 0
0, 0
0, 0
0, 0
0, 0
0, 0
0, 0
0, 0
0, 1
0, 0
0, 0
0, 0
0, 0
0, 0
0, 0
0, 0
0, 0
0, 0
0, 0
0, 0
1, 0
2, 0
0, 0
0, 0
0, 0
0, 0
0, 0
0, 0
0, 0
0, 1
0, 0
0, 0
0, 0
0, 0
0, 0
0, 0
0, 0
0, 0
0, 0
0, 0
0, 0
0, 0
0, 0
0, 0
0, 0
0, 0
0, 0
0, 0
0, 0
0, 0
0, 0
0, 0
0, 0
0, 0
0, 0
0, 1
0, 0
0, 0
0, 0
0, 0
0, 0
0, 0
0, 0
0, 0
0, 1
0, 0
0, 0
0, 0
0, 0
0, 0
1, 0
0, 0
0, 0
0, 0
0, 0
0, 0
0, 0
0, 0
0, 0
0, 0
0, 0
0, 0
0, 0
0, 0
0, 0
0, 0
0, 0
0, 0
0, 0
0, 0
0, 0
0, 0
0, 0
0, 0
0, 0
0, 0
0, 0
0, 0
0, 0
0, 0
0, 0
0, 0
0, 0
0, 0
0, 0
0, 0
0, 0
0, 0
0, 0
0, 0
0, 0
0, 0
0, 0
0, 0
0, 0
0, 0
0, 0
0, 0
0, 0
1, 0
0, 0
0, 0
0, 0
0, 0
0, 0
1, 0
0, 0
0, 0
0, 0
0, 0
0, 0
0, 0
0, 0
0, 0
0, 0
0, 0
0, 0
0, 0
0, 0
0, 0
0, 0
0, 0
0, 0
0, 0
0, 0
0, 0
0, 0
0, 0
0, 0
0, 0
0, 0
0, 1
0, 0
0, 0
0, 0
0, 1
0, 0
0, 0
0, 0
0, 0
0, 0
0, 0
0, 0
0, 0
0, 0
0, 0
0, 0
0, 0
0, 0
0, 0
0, 0
0, 0
0, 0
0, 0
0, 0
0, 0
0, 0
0, 0
0, 0
0, 0
0, 0
0, 0
0, 0
0, 0
0, 0
0, 0
0, 0
0, 0
0, 0
0, 0
0, 0
0, 0
0, 0
0, 0
0, 0
0, 0
0, 0
0, 0
0, 0
0, 0
0, 0
0, 0
0, 0
0, 0
0, 0
0, 0
0, 0
0, 0
0, 0
0, 0
0, 0
0, 0
0, 0
0, 0
0, 0
0, 0
0, 0
0, 0
0, 0
0, 1
0, 0
0, 0
0, 0
0, 0
0, 0
0, 0
0, 0
0, 0
0, 0
0, 0
0, 0
0, 0
0, 0
0, 0
0, 0
0, 0
0, 0
0, 0
0, 0
0, 0
0, 0
0, 0
0, 0
0, 0
0, 0
0, 0
0, 0
0, 0
0, 0
0, 0
0, 0
0, 0
0, 0
0, 0
0, 0
0, 0
0, 0
0, 0
0, 0
0, 0
0, 0
0, 0
0, 0
0, 0
0, 0
0, 0
0, 0
0, 0
0, 0
0, 0
0, 0
0, 0
0, 0
0, 0
0, 0
0, 0
0, 0
0, 0
0, 0
0, 0
0, 0
0, 0
0, 0
0, 0
0, 0
0, 0
0, 0
0, 0
0, 0
0, 0
0, 0
0, 0
0, 0
0, 0
0, 0
0, 0
0, 0
0, 0
0, 0
0, 0
0, 0
0, 0
0, 0
0, 0
0, 0
0, 0
0, 0
0, 0
0, 0
0, 0
0, 0
0, 0
0, 0
0, 0
0, 0
0, 0
0, 0
0, 0
0, 0
0, 0
0, 0
0, 0
0, 0
0, 0
0, 0
0, 0
0, 0
0, 0
0, 0
0, 0
0, 0
0, 0
0, 0
0, 0
0, 0
0, 0
0, 0
0, 0
0, 0
0, 0
0, 0
0, 0
0, 0
0, 0
0, 0
0, 0
0, 0
0, 0
0, 0
0, 0
0, 0
0, 0
0, 0
0, 0
0, 0
0, 0
0, 0
0, 0
0, 0
0, 0
0, 0
0, 0
0, 0
0, 0
0, 0
0, 0
0, 0
0, 0
0, 0
0, 0
0, 0
0, 0
0, 0
0, 0
0, 0
0, 0
0, 0
0, 0
0, 0
0, 0
0, 0
0, 0
0, 0
0, 0
0, 0
0, 0
0, 0
0, 0
0, 0
0, 0
0, 0
0, 0
0, 0
0, 0
0, 0
0, 0
0, 0
0, 0
0, 0
0, 0
0, 0
0, 0
0, 0
0, 0
0, 0
0, 0
0, 0
0, 0
0, 0
0, 0
0, 0
0, 0
0, 0
0, 0
0, 0
0, 0
0, 0
0, 0
0, 0
0, 0
0, 0
0, 0
0, 0
0, 0
0, 0
0, 0
0, 0
0, 0
0, 0
0, 0
0, 0
0, 0
0, 0
0, 0
0, 0
0, 0
0, 0
0, 0
0, 0
0, 0
0, 0
0, 0
0, 0
0, 0
0, 0
0, 0
0, 0
0, 0
0, 0
0, 0
0, 0
0, 0
0, 0
0, 0
0, 0
0, 0
0, 0
0, 0
0, 0
0, 0
0, 0
0, 0
0, 0
0, 0
0, 0
0, 0
0, 0
0, 0
0, 0
0, 0
0, 0
0, 0
0, 0
0, 0
0, 0
0, 0
0, 0
0, 0
0, 0
0, 0
0, 0
0, 0
0, 0
0, 0
0, 0
0, 0
0, 0
0, 0
0, 0
0, 0
0, 0
0, 0
0, 0
0, 0
0, 0
0, 0
0, 0
0, 0
#ENDOFDATA     end of spectrum data