File: host_upload/06-09-2024/ps_0852/dump3/ps__0852shot_2014.msa
#FORMAT      : EMSA/MAS spectral data file
#VERSION     : TC202v2.0 PIXL
#TITLE       : N/A
#DATE        :       Date in the format DD-MMM-YYYY, for example 07-JUL-2010
#TIME        :             The time of day at which the spectrum was recorded, in 24-hour format
#OWNER       : PIXL Flight Model       (PIXL will use this to indicate which instrument took the data.)
#NPOINTS     : 4096     Number of data points in the spectrum (This can be zero for configuration only files)
#NCOLUMNS    : 2     Number of data columns in the spectrum (This can be zero for configuration only files)
#XUNITS      : eV
#YUNITS      : COUNTS
#DATATYPE    : YY
#XPERCHAN    : 7.862, 7.881   eV per channel (separate by commas if more than one detector)
#OFFSET      : 18.5, -22.4         eV of first channel  (separate by commas if more than one detector
#SIGNALTYPE  : XRF
#YP_TEMP     : 2.492
#LIVETIME    : 8.55545, 8.55283   seconds (separate by commas if more than one detector)
#REALTIME    : 10, 10.0   seconds (separate by commas if more than one detector)
#SPECTRUM    : start of spectrum data
0, 0
0, 0
0, 0
0, 0
0, 0
0, 0
0, 0
0, 0
0, 0
0, 0
0, 0
0, 0
0, 0
0, 0
0, 0
0, 0
0, 0
0, 0
0, 0
0, 0
0, 0
0, 0
0, 0
0, 0
0, 0
0, 0
0, 0
0, 0
0, 0
0, 0
0, 0
0, 0
0, 0
1, 0
0, 0
0, 1
1, 0
0, 1
0, 0
2, 0
1, 2
4, 2
2, 3
3, 2
1, 0
0, 3
0, 0
1, 2
9, 7
7, 11
26, 22
32, 35
61, 44
70, 62
71, 68
66, 62
70, 64
50, 36
34, 27
17, 10
6, 3
7, 8
3, 4
3, 5
3, 3
7, 2
4, 8
12, 11
28, 28
46, 39
86, 103
150, 175
233, 256
321, 330
394, 347
370, 369
363, 372
302, 253
178, 201
113, 98
73, 63
41, 30
23, 16
14, 13
8, 7
5, 3
3, 3
2, 2
0, 1
5, 1
8, 1
4, 2
11, 8
11, 14
32, 28
40, 41
71, 67
83, 91
77, 113
98, 75
100, 98
75, 72
57, 59
50, 34
28, 25
9, 17
14, 22
13, 20
18, 20
12, 26
23, 27
40, 32
44, 33
49, 53
52, 48
57, 43
54, 33
50, 35
30, 30
35, 30
19, 26
13, 28
22, 27
27, 19
19, 23
19, 13
9, 11
15, 10
4, 12
5, 6
4, 5
6, 5
2, 4
1, 3
0, 4
4, 2
3, 1
4, 2
1, 1
7, 2
2, 1
2, 2
7, 2
1, 5
2, 4
3, 2
4, 3
2, 5
2, 2
3, 5
6, 4
8, 2
11, 9
15, 8
20, 11
16, 19
20, 26
17, 10
23, 19
18, 12
19, 13
9, 8
8, 5
9, 2
5, 1
4, 2
5, 3
2, 5
3, 2
6, 3
5, 6
6, 4
4, 10
7, 14
3, 27
4, 20
4, 21
6, 38
1, 43
7, 29
2, 14
3, 11
2, 12
6, 13
5, 5
4, 4
8, 7
6, 4
1, 10
6, 7
6, 5
9, 12
6, 8
13, 14
12, 16
17, 22
20, 29
13, 30
22, 25
15, 28
11, 25
19, 28
11, 10
10, 13
8, 14
8, 9
8, 6
7, 8
5, 8
4, 11
5, 9
6, 6
6, 10
5, 7
15, 4
8, 5
7, 4
9, 3
12, 2
9, 4
9, 6
10, 3
4, 7
4, 5
8, 10
8, 6
16, 14
15, 8
10, 15
11, 8
14, 20
9, 12
13, 13
10, 9
7, 7
11, 12
12, 7
7, 7
10, 7
5, 3
10, 11
11, 2
6, 6
11, 11
12, 16
21, 12
24, 24
32, 43
44, 36
54, 47
50, 67
48, 64
56, 63
60, 32
37, 34
37, 34
21, 19
24, 19
24, 15
14, 14
24, 25
19, 24
51, 58
76, 92
123, 214
278, 344
450, 567
751, 937
1135, 1410
1494, 1779
1958, 2065
2211, 2360
2272, 2386
2263, 2253
2110, 1954
1747, 1482
1226, 1110
895, 792
631, 452
404, 310
229, 145
125, 106
110, 88
119, 47
83, 34
110, 35
127, 30
112, 35
114, 28
95, 21
89, 22
76, 35
80, 56
91, 90
107, 132
150, 172
216, 249
261, 298
303, 357
329, 389
352, 442
325, 425
273, 343
257, 307
176, 209
135, 163
92, 117
56, 88
25, 52
18, 22
6, 30
7, 13
12, 10
11, 9
8, 6
12, 16
6, 7
13, 5
23, 11
13, 10
7, 11
17, 15
11, 11
8, 9
7, 3
4, 8
3, 4
1, 9
3, 2
4, 2
1, 4
3, 5
2, 1
3, 1
2, 3
5, 4
1, 6
6, 1
1, 3
5, 3
7, 6
4, 8
4, 2
5, 4
3, 5
7, 8
6, 2
9, 5
6, 3
3, 6
5, 6
5, 7
6, 8
4, 4
7, 6
6, 5
7, 7
5, 3
5, 6
9, 5
2, 4
7, 2
5, 4
6, 3
7, 6
6, 5
7, 2
2, 3
4, 5
3, 3
3, 5
3, 3
0, 5
8, 3
3, 4
2, 5
3, 3
4, 4
6, 4
3, 2
6, 5
2, 1
3, 4
3, 4
2, 3
1, 1
0, 6
1, 4
4, 8
6, 5
0, 9
4, 9
5, 12
2, 11
4, 16
5, 10
3, 20
5, 15
1, 9
5, 5
5, 8
3, 8
1, 11
6, 7
3, 8
4, 1
7, 5
7, 4
8, 2
3, 3
5, 4
12, 2
12, 1
12, 9
22, 4
33, 2
30, 10
28, 8
28, 2
31, 2
28, 3
37, 1
18, 1
17, 1
14, 2
14, 0
11, 2
7, 5
7, 7
6, 5
1, 3
3, 0
2, 7
1, 2
5, 0
1, 3
1, 1
3, 4
4, 1
5, 4
1, 2
2, 0
3, 3
2, 2
1, 3
4, 2
1, 2
2, 1
2, 3
2, 4
0, 2
2, 1
2, 5
2, 0
3, 3
6, 3
0, 4
1, 3
1, 0
2, 2
1, 2
1, 2
3, 7
1, 5
7, 1
2, 3
6, 1
2, 4
1, 3
1, 2
3, 2
1, 4
4, 5
4, 2
1, 3
3, 4
1, 2
7, 4
4, 0
3, 3
2, 1
2, 1
5, 1
0, 2
1, 7
1, 2
0, 1
4, 1
1, 0
1, 0
1, 2
2, 3
0, 2
0, 2
2, 3
2, 6
2, 2
2, 6
2, 2
2, 4
1, 2
2, 2
1, 1
3, 12
4, 2
5, 3
1, 1
2, 2
2, 1
4, 1
3, 1
1, 2
5, 2
4, 2
0, 1
1, 0
2, 1
4, 1
2, 1
2, 1
2, 1
2, 3
2, 1
3, 5
1, 1
0, 3
1, 2
0, 6
2, 2
1, 1
2, 3
1, 2
1, 2
2, 2
5, 2
2, 1
4, 2
1, 3
2, 5
1, 4
2, 2
2, 6
1, 3
9, 4
2, 6
5, 2
2, 5
2, 3
6, 3
4, 1
1, 0
2, 1
2, 2
1, 0
3, 6
2, 2
3, 3
2, 1
1, 4
2, 2
0, 1
3, 1
1, 0
1, 1
0, 1
1, 1
2, 2
0, 4
1, 3
1, 4
0, 3
0, 1
1, 3
1, 2
3, 2
1, 2
1, 1
1, 1
1, 1
0, 1
1, 1
0, 2
0, 0
1, 4
0, 2
1, 0
2, 3
0, 2
1, 0
3, 1
0, 2
3, 0
0, 0
0, 0
1, 1
1, 2
0, 2
2, 2
3, 0
3, 1
3, 0
3, 2
1, 1
1, 2
2, 0
3, 2
2, 2
5, 1
1, 2
1, 2
2, 2
5, 1
1, 0
2, 0
1, 1
0, 1
0, 0
1, 0
2, 1
0, 2
2, 0
2, 1
0, 0
1, 0
1, 0
2, 1
0, 0
0, 0
1, 0
2, 0
3, 1
2, 1
1, 0
2, 1
0, 0
0, 1
1, 1
0, 2
0, 1
0, 0
2, 0
0, 0
0, 0
1, 0
1, 0
1, 1
1, 0
1, 0
0, 1
1, 1
0, 0
1, 1
0, 3
0, 1
1, 2
0, 0
1, 1
0, 1
2, 0
0, 0
1, 0
1, 0
0, 1
0, 2
0, 0
1, 1
1, 3
0, 2
1, 1
1, 0
1, 2
0, 1
1, 0
0, 0
0, 0
2, 1
0, 0
0, 0
1, 0
0, 0
2, 0
2, 0
0, 0
0, 1
0, 1
1, 0
0, 0
0, 0
1, 1
0, 2
1, 1
1, 0
0, 1
1, 0
0, 0
0, 0
0, 1
0, 0
0, 0
0, 0
1, 0
2, 3
0, 2
0, 2
1, 0
0, 0
0, 0
0, 1
0, 1
0, 0
0, 0
0, 2
0, 0
0, 0
0, 1
0, 0
0, 1
0, 0
1, 0
0, 1
0, 1
0, 0
0, 2
0, 0
0, 0
0, 0
1, 0
0, 0
0, 0
0, 0
0, 0
0, 0
0, 0
0, 1
0, 1
0, 0
0, 1
1, 0
0, 0
0, 1
1, 0
1, 0
0, 0
0, 0
0, 1
1, 2
0, 0
0, 0
0, 0
0, 1
0, 0
0, 0
0, 1
1, 0
1, 1
0, 0
0, 0
0, 0
0, 0
0, 0
0, 0
0, 0
0, 2
0, 0
0, 1
0, 0
0, 0
0, 1
0, 0
0, 0
1, 0
2, 0
0, 1
0, 0
1, 0
0, 0
0, 0
0, 0
0, 0
0, 1
0, 0
1, 0
0, 0
0, 0
0, 0
0, 1
0, 0
1, 0
0, 0
0, 0
1, 0
0, 0
0, 0
2, 0
0, 1
0, 0
0, 0
0, 0
0, 1
1, 0
0, 0
1, 0
0, 0
0, 0
1, 0
2, 1
0, 0
0, 0
0, 1
0, 0
1, 0
0, 0
0, 0
0, 0
0, 0
1, 0
0, 0
0, 1
1, 0
0, 0
0, 0
0, 0
0, 0
0, 1
0, 0
0, 0
0, 0
0, 0
0, 0
0, 0
1, 0
0, 0
0, 0
0, 0
0, 0
0, 1
0, 0
0, 0
1, 1
0, 0
0, 0
0, 0
0, 0
0, 0
0, 0
1, 0
0, 1
0, 0
0, 0
0, 0
0, 0
1, 0
0, 1
1, 0
0, 0
0, 1
0, 0
2, 0
0, 0
1, 0
0, 0
0, 0
1, 0
0, 0
1, 0
0, 0
0, 0
0, 0
0, 0
0, 0
0, 0
0, 0
0, 0
0, 0
0, 0
1, 0
0, 0
0, 0
0, 0
0, 0
0, 0
0, 0
0, 0
0, 1
0, 0
0, 0
0, 0
0, 0
0, 0
0, 0
0, 0
0, 0
0, 0
0, 0
0, 0
0, 0
0, 0
0, 0
0, 0
0, 0
0, 0
0, 0
0, 1
0, 0
0, 0
0, 0
0, 0
0, 0
0, 0
0, 0
0, 0
0, 0
0, 0
0, 0
0, 0
0, 0
0, 1
0, 0
0, 0
0, 0
0, 0
0, 0
0, 0
0, 0
0, 0
0, 0
0, 0
0, 0
0, 0
1, 0
0, 0
0, 0
0, 1
0, 0
0, 0
0, 0
0, 0
0, 0
0, 0
0, 0
0, 0
0, 0
0, 0
0, 0
0, 0
1, 0
0, 0
0, 0
0, 0
0, 0
0, 0
0, 0
0, 0
0, 0
0, 0
0, 0
0, 0
0, 0
0, 0
0, 0
0, 0
0, 0
0, 0
1, 0
0, 0
0, 0
0, 0
0, 0
0, 0
0, 0
0, 0
0, 0
0, 0
0, 0
0, 0
0, 0
0, 0
0, 0
0, 0
0, 0
0, 0
0, 0
0, 0
0, 1
0, 0
0, 0
0, 0
0, 0
1, 0
0, 0
0, 0
0, 0
0, 0
0, 0
0, 0
0, 0
0, 1
0, 0
0, 0
0, 0
0, 0
0, 0
0, 0
0, 0
0, 0
0, 0
0, 0
0, 0
0, 0
0, 0
0, 0
0, 0
0, 0
0, 0
0, 0
0, 0
0, 0
0, 0
0, 0
0, 0
0, 0
0, 0
0, 0
0, 0
0, 0
0, 0
0, 0
0, 0
0, 0
0, 0
0, 0
0, 0
0, 0
0, 0
0, 0
0, 0
0, 0
0, 0
0, 0
0, 0
0, 0
0, 0
0, 0
0, 0
0, 0
0, 0
0, 0
0, 0
0, 0
0, 0
0, 0
0, 0
0, 0
0, 0
0, 0
0, 0
0, 0
0, 0
0, 0
0, 0
0, 0
0, 0
0, 0
0, 0
0, 0
0, 0
0, 0
0, 0
0, 0
0, 0
0, 0
0, 0
0, 0
0, 0
0, 0
0, 0
0, 0
0, 0
0, 0
0, 0
0, 0
0, 0
0, 0
0, 0
0, 0
0, 0
0, 0
0, 0
0, 0
0, 0
0, 0
0, 0
0, 0
0, 0
0, 0
0, 0
0, 0
0, 0
0, 0
0, 0
0, 0
0, 0
0, 0
0, 0
0, 0
0, 0
0, 0
0, 0
0, 0
0, 0
0, 0
0, 0
0, 0
0, 0
0, 0
0, 0
0, 0
0, 0
0, 0
0, 0
0, 0
0, 0
0, 0
0, 0
0, 0
0, 0
0, 0
0, 0
0, 0
0, 0
0, 0
0, 0
0, 0
0, 0
0, 0
0, 0
0, 0
0, 0
0, 0
0, 0
0, 0
0, 0
0, 0
0, 0
0, 0
0, 0
0, 0
0, 0
0, 0
0, 0
0, 0
0, 0
0, 0
0, 0
0, 0
0, 0
0, 0
0, 0
0, 0
0, 0
0, 0
0, 0
0, 0
0, 0
0, 0
0, 0
0, 0
0, 0
0, 0
0, 0
0, 0
0, 0
0, 0
0, 0
0, 0
0, 0
0, 0
0, 0
0, 0
0, 0
0, 0
0, 0
0, 0
0, 0
0, 0
0, 0
0, 0
0, 0
0, 0
0, 0
0, 0
0, 0
0, 0
0, 0
0, 0
0, 0
0, 0
0, 0
0, 0
0, 0
0, 0
0, 0
0, 0
0, 0
0, 0
0, 0
0, 0
0, 0
0, 0
0, 0
0, 0
0, 0
0, 0
0, 0
0, 0
0, 0
0, 0
0, 0
0, 0
0, 0
0, 0
0, 0
0, 0
0, 0
0, 0
0, 0
0, 0
0, 0
0, 0
0, 0
0, 0
0, 0
0, 0
0, 0
0, 0
0, 0
0, 0
0, 0
0, 0
0, 0
0, 0
0, 0
0, 0
0, 0
0, 0
0, 0
0, 0
0, 0
0, 0
0, 0
0, 0
0, 0
0, 0
0, 0
0, 0
0, 0
0, 0
0, 0
0, 0
0, 0
0, 0
0, 0
0, 0
0, 0
0, 0
0, 0
0, 0
0, 0
0, 0
0, 0
0, 0
0, 0
0, 0
0, 0
0, 0
0, 0
0, 0
0, 0
0, 0
0, 0
0, 0
0, 0
0, 0
0, 0
0, 0
0, 0
0, 0
0, 0
0, 0
0, 0
0, 0
0, 0
0, 0
0, 0
0, 0
0, 0
0, 0
0, 0
0, 0
0, 0
0, 0
0, 0
0, 0
0, 0
0, 0
0, 0
0, 0
0, 0
0, 0
0, 0
0, 0
0, 0
0, 0
0, 0
0, 0
0, 0
0, 0
0, 0
0, 0
0, 0
0, 0
0, 0
0, 0
0, 0
0, 0
0, 0
0, 0
0, 0
0, 0
0, 0
0, 0
0, 0
0, 0
0, 0
0, 0
0, 0
0, 0
0, 0
0, 0
0, 0
0, 0
0, 0
0, 0
0, 0
0, 0
0, 0
0, 0
0, 0
0, 0
0, 0
0, 0
0, 0
0, 0
0, 0
0, 0
0, 0
0, 0
0, 0
0, 0
0, 0
0, 0
0, 0
0, 0
0, 0
0, 0
0, 0
#ENDOFDATA     end of spectrum data