File: host_upload/06-09-2024/ps_0852/dump3/ps__0852shot_2205.msa
#FORMAT      : EMSA/MAS spectral data file
#VERSION     : TC202v2.0 PIXL
#TITLE       : N/A
#DATE        :       Date in the format DD-MMM-YYYY, for example 07-JUL-2010
#TIME        :             The time of day at which the spectrum was recorded, in 24-hour format
#OWNER       : PIXL Flight Model       (PIXL will use this to indicate which instrument took the data.)
#NPOINTS     : 4096     Number of data points in the spectrum (This can be zero for configuration only files)
#NCOLUMNS    : 2     Number of data columns in the spectrum (This can be zero for configuration only files)
#XUNITS      : eV
#YUNITS      : COUNTS
#DATATYPE    : YY
#XPERCHAN    : 7.862, 7.881   eV per channel (separate by commas if more than one detector)
#OFFSET      : 18.5, -22.4         eV of first channel  (separate by commas if more than one detector
#SIGNALTYPE  : XRF
#YP_TEMP     : 2.171
#LIVETIME    : 8.5714, 8.55513   seconds (separate by commas if more than one detector)
#REALTIME    : 10, 10.0   seconds (separate by commas if more than one detector)
#SPECTRUM    : start of spectrum data
0, 0
0, 0
0, 0
0, 0
0, 0
0, 0
0, 0
0, 0
0, 0
0, 0
0, 0
0, 0
0, 0
0, 0
0, 0
0, 0
0, 0
0, 0
0, 0
0, 0
0, 0
0, 0
0, 0
0, 0
0, 0
0, 0
0, 0
0, 0
0, 0
0, 0
0, 0
0, 2
0, 0
0, 0
0, 0
1, 0
1, 0
0, 2
0, 0
1, 1
1, 0
2, 1
4, 3
3, 2
2, 1
1, 0
4, 3
3, 2
10, 3
10, 12
21, 21
34, 36
44, 54
71, 67
76, 68
67, 62
50, 61
36, 38
25, 34
17, 12
7, 5
7, 2
5, 7
4, 5
3, 5
2, 4
8, 7
9, 14
24, 26
42, 52
96, 94
157, 180
227, 324
348, 379
438, 470
393, 478
344, 388
273, 276
183, 182
118, 130
61, 73
46, 48
16, 18
14, 10
7, 7
3, 6
2, 2
3, 2
2, 3
3, 4
5, 3
2, 1
2, 0
5, 1
1, 4
2, 2
0, 4
4, 4
5, 8
5, 4
4, 7
8, 6
3, 19
3, 24
3, 42
3, 52
4, 56
10, 40
10, 44
20, 38
21, 40
23, 33
33, 36
51, 40
51, 54
42, 48
57, 38
41, 33
44, 32
33, 19
27, 31
19, 26
27, 27
17, 20
22, 19
19, 19
8, 19
11, 12
8, 9
5, 9
7, 7
2, 2
4, 4
6, 2
4, 2
1, 1
4, 2
2, 0
4, 2
2, 3
1, 3
0, 1
4, 0
1, 3
4, 4
2, 4
2, 2
5, 3
3, 1
3, 4
9, 4
14, 6
10, 14
22, 29
30, 29
42, 48
55, 50
50, 71
49, 56
33, 45
44, 40
24, 23
21, 15
8, 12
6, 11
8, 6
9, 7
4, 9
4, 13
5, 13
7, 12
11, 13
14, 17
6, 8
7, 14
4, 11
4, 5
8, 6
6, 5
4, 4
6, 5
2, 4
5, 2
7, 2
6, 0
9, 3
5, 3
9, 2
10, 4
12, 9
8, 8
14, 11
8, 14
11, 12
16, 19
16, 17
17, 20
24, 24
19, 21
15, 17
19, 18
9, 12
10, 6
10, 9
8, 5
11, 7
7, 9
6, 14
7, 23
6, 28
6, 23
4, 27
5, 26
9, 18
4, 28
6, 20
3, 22
5, 17
7, 15
2, 20
6, 13
8, 9
4, 11
6, 9
10, 14
14, 13
11, 12
21, 16
16, 13
25, 19
18, 20
18, 9
15, 21
15, 16
13, 10
11, 12
14, 13
8, 12
7, 11
11, 7
8, 12
14, 8
14, 7
14, 14
13, 21
19, 19
35, 29
29, 47
44, 59
53, 75
53, 64
64, 68
45, 62
42, 48
61, 46
28, 40
29, 29
30, 14
22, 12
21, 15
36, 15
32, 27
54, 62
109, 107
173, 207
272, 397
441, 592
757, 951
1051, 1345
1499, 1834
1808, 2186
2012, 2373
2263, 2451
2200, 2291
1974, 1949
1711, 1562
1284, 1124
893, 780
570, 483
328, 254
184, 137
105, 75
55, 49
38, 15
28, 11
21, 16
19, 18
33, 22
38, 20
45, 23
47, 20
39, 32
54, 51
69, 93
97, 116
139, 171
164, 249
252, 317
292, 332
361, 365
311, 355
325, 312
306, 271
210, 207
183, 156
162, 112
86, 69
49, 39
32, 29
24, 18
16, 16
9, 7
13, 5
18, 15
10, 8
12, 13
20, 11
14, 15
8, 14
10, 11
9, 19
16, 15
8, 5
12, 10
9, 5
4, 15
6, 9
2, 2
6, 3
7, 3
3, 3
3, 4
1, 9
4, 3
3, 4
3, 4
2, 5
4, 5
5, 5
9, 5
7, 8
8, 4
6, 6
2, 12
4, 11
3, 6
4, 5
4, 5
4, 4
6, 10
10, 6
6, 9
4, 5
6, 6
1, 7
4, 0
3, 7
6, 7
6, 1
2, 3
3, 3
3, 4
4, 4
2, 5
4, 1
5, 4
4, 7
3, 2
1, 6
3, 6
3, 5
1, 6
0, 5
2, 5
1, 8
7, 7
8, 2
7, 3
7, 4
9, 3
5, 3
10, 4
6, 6
9, 3
10, 3
8, 4
7, 3
15, 2
12, 4
5, 2
3, 3
10, 2
8, 2
4, 3
4, 3
2, 5
3, 5
3, 4
6, 2
3, 3
3, 2
7, 6
5, 5
5, 3
5, 4
12, 4
5, 5
9, 3
13, 1
11, 1
18, 6
16, 0
5, 4
15, 3
9, 2
8, 4
5, 4
7, 6
5, 4
4, 3
6, 3
3, 5
3, 4
3, 3
2, 5
4, 2
1, 5
5, 3
1, 6
3, 2
4, 3
3, 3
8, 8
3, 7
2, 10
2, 5
2, 6
2, 4
2, 6
3, 5
2, 7
4, 7
4, 7
0, 8
1, 1
3, 6
1, 6
0, 4
2, 6
2, 3
4, 1
2, 5
0, 5
2, 2
3, 2
4, 2
3, 3
1, 1
1, 0
5, 2
3, 2
2, 4
4, 1
2, 2
2, 2
3, 1
5, 6
3, 6
5, 3
3, 3
3, 1
2, 3
1, 4
3, 1
0, 3
4, 5
3, 1
6, 0
1, 1
2, 1
2, 3
1, 5
2, 4
1, 4
1, 3
3, 0
3, 5
3, 2
1, 2
5, 3
2, 2
1, 1
1, 1
0, 2
3, 2
2, 2
1, 3
2, 5
3, 4
1, 2
4, 2
2, 3
1, 0
2, 3
2, 0
3, 2
2, 0
4, 2
2, 2
3, 2
1, 0
5, 2
2, 3
1, 2
4, 2
1, 2
4, 2
0, 2
3, 1
1, 3
1, 2
3, 2
2, 0
1, 0
3, 3
0, 4
1, 2
2, 0
1, 0
1, 3
0, 4
2, 2
1, 3
2, 2
1, 6
2, 2
5, 3
3, 4
2, 5
1, 2
4, 3
6, 9
1, 3
2, 2
1, 4
2, 5
0, 4
2, 4
2, 4
2, 8
0, 4
2, 2
0, 0
6, 1
3, 3
1, 3
1, 2
1, 0
0, 4
3, 1
3, 2
3, 1
2, 4
1, 3
3, 1
1, 1
1, 1
1, 2
2, 3
0, 3
1, 1
4, 3
0, 2
5, 2
1, 4
3, 1
3, 0
0, 0
1, 0
2, 2
1, 3
1, 2
2, 2
2, 3
0, 1
1, 2
2, 1
1, 0
2, 1
1, 1
1, 2
0, 1
1, 1
0, 1
0, 1
0, 1
0, 3
1, 1
2, 5
1, 0
0, 1
2, 0
1, 2
1, 1
1, 1
0, 0
0, 1
2, 0
0, 0
0, 2
2, 2
0, 0
0, 0
0, 3
0, 0
0, 1
1, 0
0, 0
1, 1
0, 4
0, 2
0, 0
1, 1
0, 0
0, 0
0, 0
1, 1
1, 0
2, 0
3, 0
1, 1
1, 1
0, 2
1, 1
2, 0
0, 1
0, 1
0, 0
1, 0
1, 0
1, 0
1, 2
0, 1
1, 0
0, 0
1, 2
0, 0
2, 0
0, 0
0, 3
0, 0
0, 1
0, 0
0, 0
0, 1
1, 1
0, 1
0, 1
0, 1
0, 0
0, 0
0, 2
0, 0
0, 1
0, 0
1, 0
1, 0
0, 0
0, 0
0, 0
0, 0
0, 0
0, 0
2, 1
0, 0
0, 0
0, 0
1, 0
0, 0
0, 0
0, 0
0, 0
2, 1
0, 0
0, 0
1, 0
1, 0
3, 0
0, 1
1, 0
1, 0
1, 0
1, 1
2, 1
1, 0
0, 1
1, 0
0, 0
0, 1
1, 1
0, 2
1, 0
0, 0
1, 0
1, 0
0, 0
0, 0
0, 0
2, 0
0, 2
0, 0
1, 1
0, 2
1, 0
0, 1
0, 0
0, 0
0, 1
0, 0
0, 0
3, 0
1, 0
1, 1
2, 0
1, 1
0, 0
0, 0
0, 1
0, 2
0, 0
1, 1
0, 0
0, 1
1, 1
0, 0
1, 1
0, 1
1, 0
1, 1
0, 0
0, 0
0, 0
1, 0
1, 0
2, 0
0, 0
0, 0
0, 0
0, 0
0, 1
0, 1
0, 1
0, 0
0, 0
0, 1
0, 2
0, 0
0, 0
0, 1
2, 0
0, 1
0, 0
1, 1
1, 0
0, 0
0, 0
0, 0
0, 1
0, 0
0, 0
0, 0
0, 0
0, 0
1, 0
0, 0
0, 0
0, 0
1, 1
1, 2
1, 1
0, 0
0, 0
0, 0
0, 1
0, 0
0, 0
0, 0
0, 0
0, 0
0, 0
1, 1
0, 0
0, 0
1, 0
0, 1
1, 0
0, 2
0, 1
1, 0
0, 0
1, 0
1, 0
0, 0
0, 1
0, 0
0, 0
0, 0
0, 0
0, 0
1, 0
0, 0
0, 0
0, 0
0, 1
0, 0
0, 0
1, 0
0, 0
1, 0
0, 0
0, 0
0, 0
0, 0
0, 0
0, 0
0, 0
1, 0
0, 0
0, 0
0, 0
0, 0
0, 0
0, 0
0, 1
0, 0
0, 0
1, 0
1, 0
0, 0
1, 0
0, 0
0, 0
0, 0
0, 0
0, 0
1, 0
0, 0
0, 0
0, 1
0, 0
0, 0
0, 0
1, 0
1, 0
0, 1
1, 0
0, 1
0, 0
0, 0
0, 1
0, 1
0, 0
0, 0
0, 0
0, 0
1, 0
0, 0
0, 0
0, 1
0, 0
0, 0
0, 0
0, 0
0, 1
0, 0
0, 0
0, 0
0, 0
0, 0
0, 0
0, 0
0, 0
0, 0
0, 0
0, 0
0, 0
0, 0
0, 0
0, 0
0, 0
0, 0
0, 0
0, 0
0, 0
0, 0
0, 0
0, 0
0, 0
0, 0
0, 0
0, 0
0, 0
0, 0
0, 0
0, 0
0, 0
0, 0
0, 0
0, 0
0, 0
0, 0
0, 0
0, 0
0, 0
0, 0
0, 0
0, 0
0, 0
0, 0
0, 0
0, 0
0, 0
0, 0
0, 0
0, 0
0, 0
0, 0
0, 0
0, 0
0, 0
0, 0
0, 0
1, 0
0, 0
0, 0
0, 0
0, 0
0, 0
0, 0
0, 0
0, 0
0, 0
0, 0
0, 0
0, 0
0, 0
0, 0
0, 0
0, 0
0, 1
0, 0
0, 0
0, 0
0, 0
0, 0
0, 0
0, 0
0, 0
0, 0
0, 0
0, 0
0, 0
0, 0
1, 0
0, 0
0, 0
0, 0
0, 0
0, 0
0, 0
0, 0
0, 1
0, 0
0, 0
0, 0
0, 0
0, 0
0, 0
0, 0
0, 0
0, 0
0, 0
0, 0
0, 0
0, 0
0, 0
0, 0
0, 0
0, 0
0, 0
0, 0
0, 0
0, 0
0, 0
1, 0
0, 0
0, 0
0, 0
0, 0
0, 0
0, 0
0, 0
0, 0
0, 0
0, 0
0, 0
0, 0
0, 0
0, 0
1, 0
0, 0
0, 0
0, 0
0, 0
0, 0
0, 0
0, 0
0, 0
0, 0
0, 0
0, 0
0, 0
0, 0
0, 0
0, 0
0, 0
0, 0
0, 0
0, 0
0, 0
0, 0
0, 0
0, 0
0, 0
0, 0
0, 0
0, 0
0, 0
0, 0
0, 0
0, 0
0, 0
0, 0
0, 0
0, 0
0, 0
0, 0
0, 0
0, 0
0, 0
0, 0
0, 0
0, 0
0, 0
0, 0
0, 0
0, 0
0, 0
0, 0
0, 0
0, 0
0, 0
0, 0
0, 0
0, 0
0, 0
0, 0
0, 0
0, 0
0, 0
0, 0
0, 0
0, 0
0, 0
0, 0
0, 0
0, 0
0, 0
0, 0
0, 0
0, 0
0, 0
0, 0
0, 0
0, 0
0, 0
0, 0
0, 0
0, 0
0, 0
0, 0
0, 0
0, 0
0, 0
0, 0
0, 0
0, 0
0, 0
0, 0
0, 0
0, 0
0, 0
0, 0
0, 0
0, 0
0, 0
0, 0
0, 0
0, 0
0, 0
0, 0
0, 0
0, 0
0, 0
0, 0
0, 0
0, 0
0, 0
0, 0
0, 0
0, 0
0, 0
0, 0
0, 0
0, 0
0, 0
0, 0
0, 0
0, 0
0, 0
0, 0
0, 0
0, 0
0, 0
0, 0
0, 0
0, 0
0, 0
0, 0
0, 0
0, 0
0, 0
0, 0
0, 0
0, 0
0, 0
0, 0
0, 0
0, 0
0, 0
0, 0
0, 0
0, 0
0, 0
0, 0
0, 0
0, 0
0, 0
0, 0
0, 0
0, 0
0, 0
0, 0
0, 0
0, 0
0, 0
0, 0
0, 0
0, 0
0, 0
0, 0
0, 0
0, 0
0, 0
0, 0
0, 0
0, 0
0, 0
0, 0
0, 0
0, 0
0, 0
0, 0
0, 0
0, 0
0, 0
0, 0
0, 0
0, 0
0, 0
0, 0
0, 0
0, 0
0, 0
0, 0
0, 0
0, 0
0, 0
0, 0
0, 0
0, 0
0, 0
0, 0
0, 0
0, 0
0, 0
0, 0
0, 0
0, 0
0, 0
0, 0
0, 0
0, 0
0, 0
0, 0
0, 0
0, 0
0, 0
0, 0
0, 0
0, 0
0, 0
0, 0
0, 0
0, 0
0, 0
0, 0
0, 0
0, 0
0, 0
0, 0
0, 0
0, 0
0, 0
0, 0
0, 0
0, 0
0, 0
0, 0
0, 0
0, 0
0, 0
0, 0
0, 0
0, 0
0, 0
0, 0
0, 0
0, 0
0, 0
0, 0
0, 0
0, 0
0, 0
0, 0
0, 0
0, 0
0, 0
0, 0
0, 0
0, 0
0, 0
0, 0
0, 0
0, 0
0, 0
0, 0
0, 0
0, 0
0, 0
0, 0
0, 0
0, 0
0, 0
0, 0
0, 0
0, 0
0, 0
0, 0
0, 0
0, 0
0, 0
0, 0
0, 0
0, 0
0, 0
0, 0
0, 0
0, 0
0, 0
0, 0
0, 0
0, 0
0, 0
0, 0
0, 0
0, 0
0, 0
0, 0
0, 0
0, 0
0, 0
0, 0
0, 0
0, 0
0, 0
0, 0
0, 0
0, 0
0, 0
0, 0
0, 0
0, 0
0, 0
0, 0
0, 0
0, 0
0, 0
0, 0
0, 0
0, 0
0, 0
0, 0
0, 0
0, 0
0, 0
0, 0
0, 0
0, 0
0, 0
0, 0
0, 0
0, 0
0, 0
0, 0
0, 0
0, 0
0, 0
0, 0
0, 0
0, 0
0, 0
0, 0
0, 0
0, 0
0, 0
0, 0
0, 0
0, 0
0, 0
0, 0
0, 0
0, 0
0, 0
0, 0
0, 0
0, 0
0, 0
0, 0
0, 0
0, 0
0, 0
0, 0
0, 0
0, 0
0, 0
#ENDOFDATA     end of spectrum data