File: host_upload/06-09-2024/ps_0852/dump3/ps__0852shot_2440.msa
#FORMAT      : EMSA/MAS spectral data file
#VERSION     : TC202v2.0 PIXL
#TITLE       : N/A
#DATE        :       Date in the format DD-MMM-YYYY, for example 07-JUL-2010
#TIME        :             The time of day at which the spectrum was recorded, in 24-hour format
#OWNER       : PIXL Flight Model       (PIXL will use this to indicate which instrument took the data.)
#NPOINTS     : 4096     Number of data points in the spectrum (This can be zero for configuration only files)
#NCOLUMNS    : 2     Number of data columns in the spectrum (This can be zero for configuration only files)
#XUNITS      : eV
#YUNITS      : COUNTS
#DATATYPE    : YY
#XPERCHAN    : 7.862, 7.881   eV per channel (separate by commas if more than one detector)
#OFFSET      : 18.5, -22.4         eV of first channel  (separate by commas if more than one detector
#SIGNALTYPE  : XRF
#YP_TEMP     : 2.364
#LIVETIME    : 8.56285, 8.55983   seconds (separate by commas if more than one detector)
#REALTIME    : 10, 10.0   seconds (separate by commas if more than one detector)
#SPECTRUM    : start of spectrum data
0, 0
0, 0
0, 0
0, 0
0, 0
0, 0
0, 0
0, 0
0, 0
0, 0
0, 0
0, 0
0, 0
0, 0
0, 0
0, 0
0, 0
0, 0
0, 0
0, 0
0, 0
0, 0
0, 0
0, 0
0, 0
0, 0
0, 0
0, 0
0, 0
0, 0
0, 0
0, 1
0, 0
0, 0
0, 0
0, 1
1, 0
0, 0
1, 1
1, 0
1, 2
0, 0
2, 1
2, 1
1, 2
5, 1
1, 0
2, 0
6, 6
13, 8
21, 20
39, 42
52, 63
74, 71
66, 77
86, 67
59, 67
46, 39
36, 29
21, 13
8, 8
7, 5
2, 5
5, 5
7, 2
4, 4
7, 7
9, 5
37, 17
50, 53
111, 89
156, 170
257, 270
338, 352
370, 472
420, 425
337, 358
320, 292
206, 204
136, 124
79, 57
40, 30
20, 17
9, 10
6, 10
3, 3
0, 1
0, 0
2, 0
3, 2
1, 1
1, 2
3, 1
1, 1
2, 3
3, 1
3, 4
5, 4
2, 3
5, 5
4, 2
3, 4
2, 4
5, 1
6, 7
4, 1
12, 11
8, 4
14, 14
16, 20
28, 12
41, 33
56, 37
68, 32
74, 39
89, 50
69, 39
77, 36
54, 39
44, 34
41, 39
27, 24
26, 25
28, 25
25, 16
20, 13
18, 10
14, 9
8, 11
10, 6
6, 5
5, 4
7, 3
1, 2
1, 1
5, 1
2, 4
2, 1
2, 2
5, 2
4, 5
0, 4
0, 1
1, 5
4, 4
0, 3
0, 4
4, 6
3, 1
0, 2
5, 6
9, 9
11, 16
22, 18
28, 21
36, 28
46, 51
57, 38
72, 38
49, 32
52, 20
36, 25
23, 9
10, 13
6, 3
6, 1
1, 3
7, 7
10, 5
11, 8
13, 8
8, 10
12, 13
16, 10
29, 10
21, 2
12, 3
20, 3
11, 8
26, 4
11, 5
8, 3
6, 3
6, 4
8, 5
8, 8
5, 2
5, 7
3, 6
14, 4
14, 15
11, 15
12, 25
10, 33
5, 34
14, 29
17, 47
18, 39
26, 50
17, 42
14, 30
16, 34
10, 29
14, 24
15, 26
8, 16
15, 11
14, 16
23, 13
21, 11
28, 9
41, 14
30, 15
26, 16
26, 14
13, 11
25, 19
7, 14
8, 22
5, 15
3, 12
6, 16
13, 9
4, 10
10, 6
7, 18
16, 10
13, 12
13, 18
16, 17
16, 13
25, 8
15, 15
17, 15
20, 9
15, 16
13, 15
13, 6
9, 14
13, 12
11, 8
17, 7
9, 7
15, 4
8, 16
17, 23
38, 20
41, 42
57, 59
41, 59
58, 53
66, 53
63, 68
55, 43
36, 32
44, 27
33, 20
21, 16
25, 23
21, 15
18, 33
26, 31
40, 60
82, 100
140, 188
250, 324
462, 598
706, 891
1106, 1267
1509, 1740
1930, 2113
2248, 2353
2317, 2396
2207, 2296
2042, 1897
1699, 1556
1308, 1107
887, 694
566, 447
361, 253
153, 130
118, 77
48, 48
43, 50
26, 37
17, 45
20, 48
20, 57
29, 45
31, 63
36, 53
47, 54
37, 81
62, 77
95, 116
150, 175
197, 225
240, 277
299, 327
326, 347
323, 357
334, 314
297, 298
232, 225
189, 147
135, 108
112, 78
62, 44
30, 32
22, 11
18, 6
6, 3
10, 12
8, 12
14, 8
18, 17
17, 16
28, 11
15, 8
9, 10
22, 8
22, 11
12, 4
13, 9
12, 7
8, 6
4, 4
5, 4
1, 7
3, 10
4, 12
3, 11
0, 6
3, 11
2, 12
7, 13
1, 3
2, 6
5, 11
7, 5
4, 3
2, 6
6, 2
8, 3
5, 3
9, 4
5, 3
8, 8
18, 10
12, 6
20, 6
16, 11
19, 3
27, 11
18, 10
11, 4
13, 5
7, 4
8, 8
10, 8
10, 7
4, 6
7, 9
8, 7
7, 2
8, 5
4, 7
3, 3
3, 6
10, 4
2, 4
1, 2
4, 3
0, 4
3, 2
4, 4
2, 6
4, 4
5, 0
3, 4
3, 8
5, 1
4, 1
4, 4
5, 2
2, 1
1, 4
0, 7
6, 3
2, 5
2, 2
3, 7
2, 8
5, 9
3, 3
2, 5
5, 10
7, 4
7, 5
2, 9
4, 9
3, 10
2, 7
3, 14
3, 11
2, 8
1, 8
4, 9
4, 17
1, 6
1, 8
6, 5
2, 9
3, 5
0, 7
4, 1
7, 7
8, 3
9, 3
5, 2
5, 3
5, 3
7, 5
7, 5
4, 2
4, 4
2, 4
2, 5
3, 5
4, 3
5, 8
2, 11
1, 7
1, 5
5, 9
2, 8
1, 7
3, 4
3, 4
4, 4
1, 2
3, 4
5, 1
2, 3
1, 2
3, 1
1, 0
4, 1
0, 7
2, 3
2, 2
0, 1
1, 0
0, 0
4, 0
2, 0
3, 3
2, 1
1, 3
2, 5
3, 2
1, 3
2, 1
2, 2
4, 1
1, 2
2, 1
4, 1
4, 1
2, 0
2, 1
3, 4
2, 1
3, 2
4, 3
2, 2
5, 2
3, 3
3, 2
4, 3
2, 0
1, 0
4, 1
1, 3
1, 4
4, 0
0, 2
4, 2
3, 2
0, 2
1, 2
2, 1
2, 6
2, 2
0, 3
2, 2
1, 2
1, 2
0, 2
0, 3
3, 1
4, 2
3, 1
0, 1
4, 1
0, 2
2, 1
1, 1
0, 2
1, 4
1, 2
0, 0
2, 2
2, 1
1, 4
0, 4
2, 2
1, 1
1, 1
1, 3
5, 3
2, 3
3, 3
0, 2
2, 3
0, 3
2, 4
2, 0
4, 1
1, 2
0, 1
2, 0
1, 2
5, 2
1, 2
1, 2
7, 1
0, 1
1, 2
2, 2
2, 5
3, 1
2, 4
11, 2
5, 3
4, 6
6, 1
4, 2
1, 4
8, 1
5, 3
1, 2
1, 1
2, 1
0, 1
0, 1
2, 0
3, 1
0, 0
1, 1
0, 2
0, 1
1, 3
2, 1
1, 1
0, 2
2, 1
2, 4
1, 2
1, 1
2, 1
1, 0
2, 0
1, 0
1, 0
1, 1
1, 0
2, 1
2, 1
0, 3
2, 1
2, 0
2, 0
1, 1
1, 2
1, 0
2, 1
0, 0
2, 0
1, 1
1, 1
3, 1
0, 0
1, 0
4, 2
1, 0
1, 2
0, 2
2, 2
3, 0
5, 0
1, 3
2, 0
3, 1
3, 0
2, 2
1, 0
0, 2
1, 0
2, 1
0, 1
0, 1
3, 1
6, 1
2, 1
0, 0
1, 2
2, 2
0, 1
1, 2
0, 0
2, 2
1, 1
0, 1
0, 1
3, 1
1, 0
1, 1
0, 0
1, 0
1, 1
1, 1
1, 2
0, 0
1, 1
0, 1
0, 1
1, 1
0, 1
1, 0
0, 1
0, 0
0, 1
0, 2
0, 1
0, 1
1, 0
0, 1
0, 1
1, 1
0, 1
0, 2
1, 2
0, 0
0, 0
2, 2
2, 0
0, 2
1, 0
0, 0
0, 1
1, 0
0, 1
0, 1
0, 0
1, 1
0, 0
0, 0
1, 1
0, 1
0, 1
0, 0
0, 0
1, 0
0, 1
0, 1
1, 0
0, 1
0, 2
0, 1
1, 1
0, 0
1, 0
2, 2
0, 0
0, 0
2, 2
1, 0
0, 2
0, 0
0, 3
0, 1
0, 1
1, 0
0, 1
0, 0
0, 0
1, 2
2, 0
0, 0
0, 1
2, 0
1, 1
2, 0
0, 2
0, 2
0, 0
1, 1
0, 2
0, 1
1, 0
1, 0
1, 0
0, 1
1, 1
1, 0
0, 1
0, 0
0, 0
1, 0
0, 0
0, 0
0, 0
0, 0
0, 0
0, 0
0, 0
0, 0
0, 0
0, 0
0, 1
0, 1
0, 0
0, 0
0, 0
1, 0
1, 0
0, 1
0, 0
0, 1
0, 0
0, 4
1, 0
0, 0
1, 0
0, 0
1, 0
0, 0
0, 0
0, 0
0, 0
2, 1
0, 1
0, 0
0, 1
0, 1
0, 0
1, 1
1, 0
0, 2
0, 0
0, 0
2, 0
0, 1
0, 0
0, 2
1, 0
1, 0
0, 0
0, 0
0, 0
0, 0
1, 0
0, 0
0, 0
0, 0
0, 0
0, 1
0, 0
0, 0
0, 0
1, 0
0, 0
0, 0
0, 0
0, 0
0, 0
0, 1
0, 0
0, 2
1, 0
0, 0
0, 0
0, 0
0, 0
0, 0
0, 1
0, 0
0, 0
0, 0
0, 0
0, 2
0, 1
1, 1
1, 0
0, 0
1, 0
1, 0
0, 0
0, 0
0, 1
0, 0
0, 0
0, 0
0, 0
0, 0
0, 0
0, 0
1, 0
0, 1
0, 0
0, 0
0, 0
1, 1
0, 0
0, 0
0, 0
1, 0
0, 0
0, 0
0, 0
0, 0
0, 0
0, 0
0, 0
0, 0
0, 0
1, 0
0, 1
1, 0
0, 0
0, 0
0, 0
0, 1
0, 1
0, 1
0, 0
0, 0
0, 0
0, 1
0, 0
1, 0
0, 1
0, 0
0, 0
1, 0
1, 0
0, 0
0, 1
0, 0
0, 0
0, 0
0, 1
0, 0
1, 0
0, 0
0, 0
0, 0
0, 0
0, 0
0, 0
0, 0
0, 0
0, 0
0, 0
0, 0
0, 0
0, 0
0, 0
0, 0
0, 0
0, 0
0, 0
0, 0
0, 0
0, 0
0, 0
0, 0
0, 0
0, 0
1, 0
0, 0
0, 0
0, 0
0, 0
0, 0
0, 0
0, 0
0, 0
0, 0
0, 0
0, 0
0, 0
0, 0
0, 0
0, 0
0, 0
0, 0
0, 1
0, 0
0, 0
0, 0
0, 0
0, 0
0, 0
0, 0
0, 0
0, 0
0, 0
0, 0
0, 0
0, 1
0, 0
0, 0
1, 0
0, 0
0, 0
0, 0
0, 0
0, 0
0, 0
0, 0
0, 0
0, 0
0, 0
0, 0
0, 0
0, 0
0, 0
0, 0
0, 0
0, 0
0, 0
0, 0
0, 0
0, 0
0, 0
0, 0
0, 0
0, 0
0, 0
1, 0
0, 0
0, 0
0, 0
0, 0
0, 0
0, 0
0, 0
0, 0
0, 0
0, 1
0, 0
0, 0
0, 0
0, 0
0, 0
0, 0
0, 0
0, 0
0, 0
0, 0
0, 0
0, 0
0, 0
0, 0
0, 0
0, 0
0, 0
0, 0
0, 0
0, 0
0, 0
0, 0
0, 0
0, 0
0, 0
0, 0
0, 0
0, 0
0, 0
0, 0
1, 0
0, 0
1, 0
0, 0
0, 0
0, 0
0, 0
0, 0
0, 0
0, 0
0, 0
0, 0
0, 0
0, 0
0, 0
0, 0
0, 0
0, 0
0, 0
0, 0
0, 0
0, 0
0, 0
0, 0
0, 0
0, 0
0, 0
0, 0
0, 0
0, 0
0, 0
0, 0
0, 0
0, 0
0, 0
0, 0
0, 0
0, 0
0, 0
0, 0
0, 0
0, 0
0, 0
0, 0
0, 0
0, 0
0, 0
0, 0
0, 0
0, 0
0, 0
0, 0
0, 0
0, 0
0, 0
0, 0
0, 0
0, 0
0, 0
0, 0
0, 0
0, 0
0, 0
0, 0
0, 0
0, 0
0, 0
0, 0
0, 0
0, 0
0, 0
0, 0
0, 0
0, 0
0, 0
0, 0
0, 0
0, 0
0, 0
0, 0
0, 0
0, 0
0, 0
0, 0
0, 0
0, 0
0, 0
0, 0
0, 0
0, 0
0, 1
0, 0
0, 0
0, 0
0, 0
0, 0
0, 0
0, 0
0, 0
0, 0
0, 0
0, 0
0, 0
0, 0
0, 0
0, 0
0, 0
0, 0
0, 0
0, 0
0, 0
0, 0
0, 0
0, 0
0, 0
0, 0
0, 0
0, 0
0, 0
0, 0
0, 0
0, 0
0, 0
0, 0
0, 0
0, 0
0, 0
0, 0
0, 0
0, 0
0, 0
0, 0
0, 0
0, 0
0, 0
0, 0
0, 0
0, 0
0, 0
0, 0
0, 0
0, 0
0, 0
0, 0
0, 0
0, 0
0, 0
0, 0
0, 0
0, 0
0, 0
0, 0
0, 0
0, 0
0, 0
0, 0
0, 0
0, 0
0, 0
0, 0
0, 0
0, 0
0, 0
0, 0
0, 0
0, 0
0, 0
0, 0
0, 0
0, 0
0, 0
0, 0
0, 0
0, 0
0, 0
0, 0
0, 0
0, 0
0, 0
0, 0
0, 0
0, 0
0, 0
0, 0
0, 0
0, 0
0, 0
0, 0
0, 0
0, 0
0, 0
0, 0
0, 0
0, 0
0, 0
0, 0
0, 0
0, 0
0, 0
0, 0
0, 0
0, 0
0, 0
0, 0
0, 0
0, 0
0, 0
0, 0
0, 0
0, 0
0, 0
0, 0
0, 0
0, 0
0, 0
0, 0
0, 0
0, 0
0, 0
0, 0
0, 0
0, 0
0, 0
0, 0
0, 0
0, 0
0, 0
0, 0
0, 0
0, 0
0, 0
0, 0
0, 0
0, 0
0, 0
0, 0
0, 0
0, 0
0, 0
0, 0
0, 0
0, 0
0, 0
0, 0
0, 0
0, 0
0, 0
0, 0
0, 0
0, 0
0, 0
0, 0
0, 0
0, 0
0, 0
0, 0
0, 0
0, 0
0, 0
0, 0
0, 0
0, 0
0, 0
0, 0
0, 0
0, 0
0, 0
0, 0
0, 0
0, 0
0, 0
0, 0
0, 0
0, 0
0, 0
0, 0
0, 0
0, 0
0, 0
0, 0
0, 0
0, 0
0, 0
0, 0
0, 0
0, 0
0, 0
0, 0
0, 0
0, 0
0, 0
0, 0
0, 0
0, 0
0, 0
0, 0
0, 0
0, 0
0, 0
0, 0
0, 0
0, 0
0, 0
0, 0
0, 0
0, 0
0, 0
0, 0
0, 0
0, 0
0, 0
0, 0
0, 0
0, 0
0, 0
0, 0
0, 0
0, 0
0, 0
0, 0
0, 0
0, 0
0, 0
0, 0
0, 0
0, 0
0, 0
0, 0
0, 0
0, 0
0, 0
0, 0
0, 0
0, 0
0, 0
0, 0
0, 0
0, 0
0, 0
0, 0
0, 0
0, 0
0, 0
0, 0
0, 0
0, 0
0, 0
0, 0
0, 0
0, 0
0, 0
0, 0
0, 0
0, 0
0, 0
0, 0
0, 0
0, 0
0, 0
0, 0
0, 0
0, 0
0, 0
0, 0
0, 0
0, 0
0, 0
0, 0
0, 0
0, 0
0, 0
0, 0
0, 0
0, 0
#ENDOFDATA     end of spectrum data