File: host_upload/06-09-2024/ps_0852/dump3/ps__0852shot_2176.msa
#FORMAT      : EMSA/MAS spectral data file
#VERSION     : TC202v2.0 PIXL
#TITLE       : N/A
#DATE        :       Date in the format DD-MMM-YYYY, for example 07-JUL-2010
#TIME        :             The time of day at which the spectrum was recorded, in 24-hour format
#OWNER       : PIXL Flight Model       (PIXL will use this to indicate which instrument took the data.)
#NPOINTS     : 4096     Number of data points in the spectrum (This can be zero for configuration only files)
#NCOLUMNS    : 2     Number of data columns in the spectrum (This can be zero for configuration only files)
#XUNITS      : eV
#YUNITS      : COUNTS
#DATATYPE    : YY
#XPERCHAN    : 7.862, 7.881   eV per channel (separate by commas if more than one detector)
#OFFSET      : 18.5, -22.4         eV of first channel  (separate by commas if more than one detector
#SIGNALTYPE  : XRF
#YP_TEMP     : 2.235
#LIVETIME    : 8.55726, 8.57399   seconds (separate by commas if more than one detector)
#REALTIME    : 10, 10.0   seconds (separate by commas if more than one detector)
#SPECTRUM    : start of spectrum data
0, 0
0, 0
0, 0
0, 0
0, 0
0, 0
0, 0
0, 0
0, 0
0, 0
0, 0
0, 0
0, 0
0, 0
0, 0
0, 0
0, 0
0, 0
0, 0
0, 0
0, 0
0, 0
0, 0
0, 0
0, 0
0, 0
0, 0
0, 0
0, 0
0, 0
0, 0
0, 0
0, 0
0, 0
0, 1
1, 0
0, 0
0, 1
0, 2
1, 1
1, 0
1, 0
1, 4
0, 1
0, 1
1, 2
9, 1
2, 1
6, 5
11, 13
17, 19
19, 41
56, 53
60, 78
65, 56
69, 51
45, 57
48, 48
19, 19
17, 21
9, 7
2, 8
4, 4
4, 1
1, 6
2, 3
4, 1
6, 6
20, 22
39, 49
89, 100
136, 157
231, 245
295, 335
306, 395
381, 405
278, 346
248, 257
162, 157
91, 99
67, 77
38, 42
15, 17
5, 6
1, 2
4, 1
1, 5
2, 5
3, 1
3, 0
4, 5
4, 3
9, 10
16, 18
30, 37
63, 52
90, 103
110, 121
117, 151
140, 150
144, 120
85, 104
75, 64
49, 56
35, 23
29, 17
25, 22
17, 19
15, 18
18, 23
33, 32
41, 48
65, 43
68, 71
65, 63
83, 50
70, 58
61, 39
54, 34
35, 41
19, 26
27, 27
25, 19
25, 23
19, 23
19, 14
13, 17
16, 5
9, 10
10, 5
6, 5
7, 6
0, 4
7, 3
4, 6
3, 4
3, 3
6, 2
6, 1
4, 1
3, 5
4, 4
2, 3
2, 4
4, 2
2, 0
5, 2
1, 1
4, 0
0, 2
4, 2
7, 4
7, 6
5, 9
11, 9
16, 20
7, 16
20, 9
15, 25
18, 22
18, 30
8, 50
7, 60
7, 89
8, 84
18, 124
12, 125
12, 117
8, 102
7, 73
8, 61
5, 39
2, 29
2, 8
10, 11
12, 7
4, 8
7, 3
4, 8
1, 5
7, 8
5, 8
6, 6
3, 7
3, 6
8, 1
5, 6
5, 4
6, 9
2, 7
3, 5
11, 12
4, 10
9, 10
10, 13
10, 24
19, 14
11, 21
15, 10
12, 22
4, 13
6, 11
9, 11
5, 11
1, 5
9, 12
5, 6
3, 6
10, 9
9, 4
8, 7
4, 4
14, 7
14, 11
6, 3
5, 4
10, 3
7, 4
10, 4
5, 7
6, 6
5, 6
5, 7
6, 4
9, 7
14, 5
11, 13
10, 5
14, 12
12, 8
17, 16
14, 9
7, 8
11, 11
10, 8
9, 8
7, 5
7, 7
9, 9
8, 4
7, 8
8, 3
9, 9
10, 7
15, 24
18, 20
27, 31
31, 33
35, 36
50, 54
54, 63
71, 77
61, 54
76, 39
62, 37
72, 30
86, 24
84, 19
70, 16
103, 16
95, 18
87, 34
97, 53
113, 106
176, 193
237, 405
437, 576
639, 849
982, 1326
1344, 1655
1653, 1996
1846, 2363
1974, 2335
1973, 2186
1750, 1900
1380, 1486
1183, 1100
755, 669
517, 453
292, 279
179, 157
87, 82
42, 48
32, 30
21, 26
23, 16
17, 25
25, 24
20, 18
14, 18
23, 19
29, 31
39, 48
52, 55
93, 131
124, 185
165, 218
192, 264
236, 317
306, 357
280, 337
259, 287
272, 275
211, 205
167, 169
113, 103
65, 60
36, 34
22, 32
15, 12
10, 9
9, 10
10, 8
9, 6
10, 2
11, 13
12, 14
14, 16
10, 12
6, 13
11, 16
10, 13
6, 8
7, 12
4, 8
4, 13
0, 14
5, 14
0, 24
3, 31
6, 22
4, 27
6, 19
8, 19
0, 24
2, 9
11, 9
7, 8
8, 3
4, 4
6, 3
11, 4
7, 4
4, 6
10, 4
5, 7
7, 7
9, 8
1, 3
6, 7
7, 5
4, 4
5, 7
4, 2
3, 5
1, 4
4, 5
5, 3
3, 5
3, 2
5, 5
2, 1
5, 2
3, 2
3, 2
5, 2
2, 6
4, 7
5, 5
6, 8
2, 6
3, 2
4, 2
5, 5
5, 2
2, 3
4, 5
7, 5
4, 2
4, 4
4, 6
5, 4
4, 2
2, 4
0, 4
4, 1
3, 4
4, 1
0, 6
2, 4
4, 2
3, 6
6, 7
1, 1
3, 1
3, 5
4, 11
2, 5
1, 1
3, 2
3, 4
4, 4
4, 7
5, 2
5, 0
6, 4
8, 6
8, 3
9, 0
9, 4
10, 2
11, 2
7, 4
14, 3
11, 2
11, 4
7, 0
6, 3
6, 6
3, 4
5, 2
4, 2
2, 5
3, 3
2, 4
2, 5
4, 8
1, 9
2, 12
2, 6
3, 9
2, 8
3, 9
4, 10
4, 9
1, 6
2, 11
1, 5
3, 11
1, 9
2, 10
1, 7
3, 5
3, 5
6, 10
2, 6
1, 8
3, 3
3, 8
2, 1
4, 5
4, 5
1, 2
0, 4
5, 1
1, 2
4, 4
3, 6
4, 2
6, 2
1, 1
1, 2
3, 2
0, 3
1, 4
2, 1
2, 4
2, 1
1, 3
2, 2
1, 3
1, 1
1, 4
3, 1
3, 1
1, 2
1, 3
2, 3
0, 1
1, 1
2, 3
2, 0
1, 0
1, 0
0, 4
1, 6
2, 3
1, 6
0, 1
0, 5
2, 2
3, 4
2, 0
1, 3
0, 2
2, 0
1, 2
0, 3
1, 5
1, 3
2, 4
1, 1
2, 2
2, 1
1, 1
3, 2
0, 2
1, 3
2, 0
0, 3
5, 0
5, 4
7, 3
3, 1
1, 1
6, 1
2, 2
4, 2
6, 2
9, 1
6, 3
2, 4
6, 2
2, 2
6, 2
4, 1
1, 2
6, 0
1, 2
1, 7
1, 6
3, 6
2, 9
1, 6
1, 1
1, 6
2, 6
1, 4
1, 5
2, 6
5, 2
6, 3
3, 5
1, 1
3, 3
5, 2
3, 3
0, 2
3, 0
3, 1
2, 3
1, 1
1, 1
0, 0
0, 1
0, 0
1, 2
2, 1
3, 1
0, 1
3, 3
2, 3
3, 3
2, 3
0, 0
1, 1
2, 4
0, 1
1, 2
0, 0
4, 2
3, 4
0, 0
3, 0
3, 4
2, 0
0, 1
1, 0
0, 1
1, 2
1, 0
3, 2
0, 1
0, 2
0, 0
3, 0
0, 0
0, 1
1, 1
1, 0
1, 0
0, 1
1, 0
1, 1
0, 0
0, 1
1, 0
0, 1
3, 1
0, 0
1, 2
0, 1
2, 0
0, 1
2, 0
1, 0
0, 1
0, 1
0, 1
1, 3
1, 0
1, 1
2, 2
3, 3
0, 0
0, 1
1, 3
0, 0
1, 1
0, 1
0, 1
1, 0
2, 1
0, 0
1, 1
0, 0
0, 0
0, 0
2, 0
0, 1
0, 1
3, 0
1, 1
1, 1
0, 0
0, 0
0, 1
0, 0
1, 0
1, 1
0, 1
0, 1
1, 0
1, 0
0, 2
0, 0
1, 0
0, 0
0, 2
1, 0
0, 0
0, 1
0, 1
0, 0
1, 0
0, 0
0, 0
0, 0
0, 0
0, 1
0, 0
0, 1
0, 1
2, 1
0, 2
1, 1
0, 0
1, 1
0, 2
0, 0
1, 1
1, 0
0, 0
2, 0
0, 0
2, 0
2, 0
1, 0
0, 2
0, 0
0, 1
1, 0
0, 1
2, 0
0, 2
2, 0
0, 0
1, 0
0, 1
0, 2
0, 0
1, 0
0, 0
0, 2
0, 0
0, 1
0, 0
1, 0
1, 2
1, 1
0, 0
0, 0
1, 0
1, 3
0, 2
0, 2
1, 0
0, 0
0, 0
0, 0
0, 1
0, 0
0, 0
0, 1
0, 1
1, 0
0, 0
0, 0
0, 0
0, 0
0, 0
2, 0
0, 0
0, 1
1, 0
0, 0
0, 0
0, 0
0, 0
0, 0
0, 0
0, 1
0, 0
0, 0
0, 0
0, 0
1, 0
1, 0
0, 0
0, 1
0, 1
1, 1
0, 0
0, 0
2, 0
2, 1
0, 0
0, 0
1, 0
0, 0
0, 0
0, 1
0, 0
0, 0
0, 0
0, 0
2, 0
0, 0
0, 0
0, 0
0, 0
0, 0
0, 0
1, 0
0, 1
1, 0
0, 0
0, 0
1, 0
1, 0
0, 0
0, 0
0, 0
0, 1
0, 0
0, 0
0, 0
0, 1
0, 0
0, 0
0, 0
0, 1
0, 0
1, 0
0, 0
0, 1
0, 1
0, 0
1, 0
1, 0
0, 0
0, 0
0, 0
0, 0
0, 0
1, 0
0, 0
2, 0
1, 0
0, 0
0, 0
0, 0
0, 0
1, 0
0, 1
0, 0
0, 1
0, 0
0, 0
0, 0
0, 1
0, 0
0, 0
0, 0
0, 0
0, 0
0, 0
0, 0
1, 0
0, 0
0, 0
1, 0
0, 0
0, 0
1, 0
0, 1
1, 0
0, 0
0, 0
0, 0
0, 0
1, 0
0, 0
0, 0
0, 0
0, 0
0, 0
0, 0
0, 0
0, 0
0, 0
0, 1
0, 0
0, 0
1, 1
0, 0
0, 0
0, 1
0, 0
0, 0
0, 0
1, 0
0, 0
0, 0
0, 0
0, 0
0, 0
0, 0
0, 0
0, 0
0, 0
0, 0
0, 1
0, 0
0, 0
0, 1
0, 0
0, 0
0, 0
0, 0
0, 0
0, 0
0, 0
0, 0
0, 0
0, 1
0, 1
0, 0
0, 0
0, 0
0, 0
0, 0
0, 0
0, 1
0, 0
0, 0
0, 0
0, 0
0, 0
0, 0
0, 0
0, 0
0, 0
0, 1
0, 0
0, 0
0, 0
0, 0
0, 0
0, 0
0, 1
0, 1
0, 0
0, 0
0, 0
0, 0
0, 0
0, 1
0, 0
0, 0
0, 1
0, 0
0, 0
0, 0
0, 0
0, 0
0, 0
0, 0
0, 0
0, 1
0, 0
0, 0
0, 0
0, 0
0, 0
0, 0
0, 0
0, 0
0, 0
0, 0
0, 0
0, 0
0, 0
0, 0
0, 0
0, 0
0, 0
0, 0
0, 0
0, 0
0, 0
0, 0
0, 0
0, 0
0, 0
0, 0
0, 0
0, 0
0, 0
0, 0
0, 0
0, 0
0, 0
0, 0
0, 0
0, 0
0, 0
0, 0
0, 1
0, 0
0, 0
0, 0
0, 0
0, 0
0, 0
0, 0
0, 0
0, 0
0, 0
0, 0
0, 0
0, 0
0, 0
0, 0
0, 0
0, 0
0, 0
0, 0
0, 0
0, 0
0, 0
0, 0
0, 0
0, 0
0, 0
0, 0
0, 0
0, 0
0, 0
0, 0
0, 0
0, 0
0, 0
0, 0
0, 0
0, 0
0, 0
0, 0
0, 1
0, 0
1, 0
0, 0
0, 0
0, 0
0, 0
0, 0
0, 0
0, 0
0, 0
0, 0
0, 0
0, 0
0, 0
0, 0
0, 0
0, 0
0, 0
0, 0
0, 0
0, 0
0, 0
0, 0
0, 0
0, 0
0, 0
0, 0
0, 0
0, 0
0, 0
0, 0
0, 0
0, 0
0, 0
0, 0
0, 0
0, 0
0, 0
0, 0
0, 0
0, 0
0, 0
0, 0
0, 0
0, 0
1, 0
0, 0
0, 0
0, 0
0, 0
0, 0
0, 0
0, 0
0, 0
0, 0
0, 0
0, 0
0, 0
0, 0
0, 0
0, 0
0, 0
0, 0
0, 0
0, 0
0, 0
0, 0
0, 0
0, 0
0, 0
0, 0
0, 0
0, 1
0, 0
0, 0
0, 0
0, 0
0, 0
0, 0
0, 0
0, 0
0, 0
0, 0
0, 0
0, 0
0, 0
0, 0
0, 0
0, 0
0, 0
0, 0
0, 0
0, 0
0, 0
0, 0
0, 0
0, 0
0, 0
0, 0
0, 0
0, 0
0, 0
0, 0
0, 0
0, 0
0, 0
0, 0
0, 0
0, 0
0, 0
0, 0
0, 0
0, 0
0, 0
0, 0
0, 0
0, 0
0, 0
0, 0
0, 0
0, 0
0, 0
0, 0
0, 0
0, 0
0, 0
0, 0
0, 0
0, 0
0, 0
0, 0
0, 0
0, 0
0, 0
0, 0
0, 0
0, 0
0, 0
0, 0
0, 0
0, 0
0, 0
0, 0
0, 0
0, 0
0, 0
0, 0
0, 0
0, 0
0, 0
0, 0
0, 0
0, 0
0, 0
0, 0
0, 0
0, 0
0, 0
0, 0
0, 0
0, 0
0, 0
0, 0
0, 0
0, 0
0, 0
0, 0
0, 0
0, 0
0, 0
0, 0
0, 0
0, 0
0, 0
0, 0
0, 0
0, 0
0, 0
0, 0
0, 0
0, 0
0, 0
0, 0
0, 0
0, 0
0, 0
0, 0
0, 0
0, 0
0, 0
0, 0
0, 0
0, 0
0, 0
0, 0
0, 0
0, 0
0, 0
0, 0
0, 0
0, 0
0, 0
0, 0
0, 0
0, 0
0, 0
0, 0
0, 0
0, 0
0, 0
0, 0
0, 0
0, 0
0, 0
0, 0
0, 0
0, 0
0, 0
0, 0
0, 0
0, 0
0, 0
0, 0
0, 0
0, 0
0, 0
0, 0
0, 0
0, 0
0, 0
0, 0
0, 0
0, 0
0, 0
0, 0
0, 0
0, 0
0, 0
0, 0
0, 0
0, 0
0, 0
0, 0
0, 0
0, 0
0, 0
0, 0
0, 0
0, 0
0, 0
0, 0
0, 0
0, 0
0, 0
0, 0
0, 0
0, 0
0, 0
0, 0
0, 0
0, 0
0, 0
0, 0
0, 0
0, 0
0, 0
0, 0
0, 0
0, 0
0, 0
0, 0
0, 0
0, 0
0, 0
0, 0
0, 0
0, 0
0, 0
0, 0
0, 0
0, 0
0, 0
0, 0
0, 0
0, 0
0, 0
0, 0
0, 0
0, 0
0, 0
0, 0
0, 0
0, 0
0, 0
0, 0
0, 0
0, 0
0, 0
0, 0
0, 0
0, 0
0, 0
0, 0
0, 0
0, 0
0, 0
0, 0
0, 0
0, 0
0, 0
0, 0
0, 0
0, 0
0, 0
0, 0
0, 0
0, 0
0, 0
0, 0
0, 0
0, 0
0, 0
0, 0
0, 0
0, 0
0, 0
0, 0
0, 0
0, 0
0, 0
0, 0
0, 0
0, 0
0, 0
0, 0
0, 0
0, 0
0, 0
0, 0
0, 0
0, 0
0, 0
0, 0
0, 0
0, 0
0, 0
0, 0
0, 0
0, 0
0, 0
0, 0
0, 0
0, 0
0, 0
0, 0
0, 0
0, 0
0, 0
0, 0
0, 0
0, 0
0, 0
0, 0
0, 0
0, 0
0, 0
0, 0
#ENDOFDATA     end of spectrum data