File: host_upload/06-09-2024/ps_0852/dump3/ps__0852shot_2236.msa
#FORMAT      : EMSA/MAS spectral data file
#VERSION     : TC202v2.0 PIXL
#TITLE       : N/A
#DATE        :       Date in the format DD-MMM-YYYY, for example 07-JUL-2010
#TIME        :             The time of day at which the spectrum was recorded, in 24-hour format
#OWNER       : PIXL Flight Model       (PIXL will use this to indicate which instrument took the data.)
#NPOINTS     : 4096     Number of data points in the spectrum (This can be zero for configuration only files)
#NCOLUMNS    : 2     Number of data columns in the spectrum (This can be zero for configuration only files)
#XUNITS      : eV
#YUNITS      : COUNTS
#DATATYPE    : YY
#XPERCHAN    : 7.862, 7.881   eV per channel (separate by commas if more than one detector)
#OFFSET      : 18.5, -22.4         eV of first channel  (separate by commas if more than one detector
#SIGNALTYPE  : XRF
#YP_TEMP     : 2.332
#LIVETIME    : 8.55082, 8.54141   seconds (separate by commas if more than one detector)
#REALTIME    : 10, 10.0   seconds (separate by commas if more than one detector)
#SPECTRUM    : start of spectrum data
0, 0
0, 0
0, 0
0, 0
0, 0
0, 0
0, 0
0, 0
0, 0
0, 0
0, 0
0, 0
0, 0
0, 0
0, 0
0, 0
0, 0
0, 0
0, 0
0, 0
0, 0
0, 0
0, 0
0, 0
0, 0
0, 0
0, 0
0, 0
0, 0
0, 0
0, 0
0, 0
1, 1
0, 0
0, 1
0, 0
0, 0
1, 0
1, 0
1, 2
0, 0
2, 1
4, 1
1, 0
0, 0
0, 2
3, 1
2, 2
3, 14
10, 11
35, 20
51, 33
66, 56
70, 50
97, 66
67, 60
62, 59
43, 31
20, 23
19, 14
12, 5
4, 7
3, 7
4, 4
6, 3
6, 3
5, 4
14, 20
20, 21
57, 68
113, 76
192, 173
291, 257
423, 337
455, 372
419, 372
407, 332
315, 239
235, 147
124, 118
73, 64
40, 34
21, 10
11, 7
7, 4
1, 5
4, 2
2, 2
3, 4
1, 3
1, 0
2, 2
0, 2
4, 1
3, 4
2, 8
7, 6
9, 14
13, 11
18, 6
9, 8
10, 9
3, 7
5, 3
6, 2
3, 3
6, 5
10, 7
16, 9
22, 13
15, 18
21, 29
36, 35
57, 27
52, 30
60, 25
48, 31
53, 29
22, 19
42, 20
25, 21
35, 12
20, 15
28, 16
34, 18
23, 10
24, 13
23, 10
10, 5
8, 4
6, 5
7, 2
2, 7
6, 3
3, 2
3, 4
4, 2
4, 1
4, 2
5, 3
4, 8
2, 3
3, 5
4, 3
3, 3
3, 5
1, 2
2, 2
3, 4
6, 4
3, 1
3, 1
12, 8
18, 10
21, 19
23, 17
28, 19
24, 23
37, 28
21, 13
20, 15
11, 8
9, 8
8, 6
10, 6
6, 3
4, 2
1, 4
4, 2
11, 5
6, 7
9, 9
12, 7
17, 1
12, 8
10, 3
14, 4
11, 1
12, 2
18, 1
27, 2
37, 1
48, 4
54, 2
81, 4
86, 8
81, 1
74, 7
58, 7
62, 8
41, 11
30, 5
29, 9
11, 19
18, 9
11, 14
14, 13
22, 10
15, 11
17, 20
13, 13
6, 20
10, 20
7, 23
5, 21
7, 12
7, 20
8, 15
5, 10
8, 12
3, 9
4, 12
5, 10
6, 10
7, 14
4, 12
8, 8
5, 9
8, 12
8, 14
5, 14
2, 4
4, 5
9, 2
6, 11
10, 8
11, 11
10, 11
16, 18
17, 11
16, 12
16, 15
9, 11
14, 9
22, 11
26, 5
44, 4
33, 8
46, 7
53, 5
56, 10
63, 11
69, 5
81, 7
87, 11
130, 18
128, 23
142, 43
165, 52
145, 58
142, 47
110, 68
99, 57
73, 42
49, 41
37, 25
38, 20
21, 19
19, 14
23, 13
20, 18
31, 38
44, 53
73, 99
173, 196
274, 330
510, 575
797, 812
1196, 1286
1620, 1688
1992, 1891
2418, 2096
2580, 2232
2480, 2027
2266, 1725
1817, 1409
1391, 1021
953, 705
625, 412
392, 258
196, 132
121, 73
50, 40
36, 28
21, 22
15, 15
6, 15
10, 20
23, 19
25, 17
30, 24
30, 34
54, 60
70, 63
118, 127
138, 145
218, 203
279, 264
366, 308
377, 359
386, 333
364, 300
346, 260
276, 184
177, 157
145, 97
86, 60
66, 34
35, 20
30, 19
28, 9
17, 6
11, 5
18, 12
11, 6
16, 16
13, 12
14, 18
10, 17
19, 17
12, 16
7, 10
16, 8
9, 11
10, 5
5, 6
4, 5
3, 10
6, 3
4, 3
2, 3
5, 2
5, 4
4, 4
5, 1
2, 3
0, 4
1, 2
3, 7
4, 2
2, 3
4, 4
6, 6
3, 3
3, 3
7, 2
5, 3
3, 2
11, 5
3, 2
12, 7
11, 9
15, 3
15, 7
15, 10
11, 4
10, 8
9, 10
6, 18
9, 13
11, 15
12, 25
8, 19
11, 17
12, 14
12, 10
8, 10
20, 10
20, 6
15, 9
16, 8
8, 4
17, 14
20, 12
14, 16
12, 11
7, 21
8, 17
8, 12
2, 14
7, 17
4, 22
1, 5
2, 9
2, 13
4, 5
3, 4
3, 5
1, 5
6, 6
1, 3
6, 3
3, 4
4, 7
3, 2
3, 3
4, 4
4, 4
3, 3
3, 1
4, 1
6, 1
2, 4
1, 2
6, 5
5, 3
2, 2
4, 5
5, 4
3, 6
4, 6
5, 1
2, 4
7, 5
6, 6
6, 4
2, 6
4, 8
4, 3
1, 6
6, 7
6, 1
3, 4
9, 4
2, 7
8, 3
4, 5
7, 4
11, 10
10, 4
12, 7
11, 8
7, 11
11, 20
12, 22
3, 13
11, 22
4, 15
8, 15
2, 9
5, 8
2, 8
1, 7
0, 4
2, 2
2, 7
4, 4
2, 1
2, 3
2, 3
3, 5
3, 2
2, 0
1, 5
2, 2
4, 2
3, 5
4, 4
3, 1
3, 2
5, 2
0, 5
1, 4
2, 4
2, 3
2, 3
2, 4
1, 4
4, 2
5, 1
2, 2
3, 2
2, 3
2, 4
3, 1
2, 3
1, 0
5, 2
4, 4
2, 4
2, 4
3, 2
3, 0
0, 5
4, 1
4, 1
4, 0
2, 2
3, 5
1, 1
2, 2
2, 3
2, 3
2, 2
6, 3
5, 2
4, 2
4, 0
3, 3
2, 2
3, 4
1, 2
2, 2
2, 1
1, 3
2, 3
3, 3
2, 3
5, 3
4, 4
1, 4
3, 0
2, 3
2, 2
4, 2
3, 2
2, 3
1, 2
2, 1
0, 2
1, 4
0, 1
0, 2
1, 2
3, 3
0, 3
2, 1
1, 1
1, 0
0, 2
3, 1
4, 2
5, 0
2, 2
2, 0
3, 5
4, 0
4, 0
3, 2
7, 4
8, 2
8, 6
7, 3
11, 1
3, 1
4, 3
5, 0
4, 0
2, 2
4, 5
8, 2
3, 1
4, 1
0, 2
3, 0
3, 2
1, 1
4, 2
1, 0
1, 1
0, 3
0, 2
3, 1
2, 0
3, 1
2, 0
0, 2
1, 1
1, 1
1, 2
4, 1
2, 1
3, 2
1, 1
0, 1
0, 1
3, 0
0, 2
1, 1
0, 0
1, 0
0, 2
0, 1
1, 1
2, 1
1, 1
1, 1
1, 1
1, 4
2, 2
0, 1
0, 1
2, 0
0, 1
3, 3
1, 1
0, 2
0, 1
0, 1
0, 1
3, 4
1, 0
0, 0
1, 0
3, 0
0, 1
0, 2
0, 1
0, 0
3, 1
1, 0
2, 0
1, 1
0, 1
1, 0
0, 0
1, 0
0, 0
0, 1
2, 2
1, 1
1, 0
1, 1
0, 1
0, 1
0, 0
0, 1
0, 0
0, 0
0, 0
0, 0
0, 0
0, 0
1, 0
0, 0
0, 1
2, 1
1, 0
1, 1
0, 1
0, 0
0, 1
1, 1
1, 2
3, 1
1, 0
0, 0
1, 1
2, 2
2, 1
1, 1
0, 0
1, 0
0, 1
0, 1
0, 0
1, 0
0, 0
1, 0
0, 1
2, 2
2, 0
0, 0
0, 0
2, 3
0, 1
1, 0
0, 2
1, 0
0, 0
0, 0
0, 2
0, 0
1, 0
0, 1
0, 0
2, 1
0, 1
0, 1
0, 0
0, 0
0, 0
1, 0
0, 1
2, 1
0, 1
0, 0
0, 1
0, 0
0, 0
1, 0
0, 0
0, 0
0, 0
1, 1
0, 0
1, 0
2, 0
1, 0
0, 0
0, 1
0, 0
1, 1
1, 0
0, 0
0, 0
1, 1
0, 0
0, 1
0, 1
1, 0
1, 0
0, 0
2, 0
1, 1
0, 1
0, 0
0, 1
0, 1
0, 0
1, 0
0, 0
0, 1
0, 0
1, 1
0, 1
0, 1
0, 0
0, 0
0, 0
1, 0
2, 0
0, 0
0, 0
0, 0
0, 0
0, 0
1, 1
0, 0
0, 0
0, 0
0, 0
1, 0
0, 1
0, 1
0, 0
0, 0
0, 0
0, 0
0, 0
1, 0
1, 0
0, 0
0, 0
0, 2
0, 0
0, 0
0, 0
0, 1
0, 1
1, 0
1, 0
0, 0
0, 0
1, 0
0, 0
0, 1
0, 0
1, 1
0, 0
1, 0
0, 0
0, 0
0, 0
0, 0
0, 1
0, 0
1, 0
0, 0
0, 0
0, 0
0, 2
0, 0
0, 0
0, 0
0, 0
0, 0
0, 0
0, 0
1, 1
2, 0
0, 1
0, 0
0, 0
1, 0
0, 0
0, 0
0, 0
0, 0
1, 2
2, 1
0, 0
0, 0
0, 0
0, 0
0, 0
0, 0
0, 1
0, 0
0, 0
0, 0
0, 0
0, 0
0, 0
1, 0
0, 1
0, 0
0, 0
0, 0
0, 0
1, 1
0, 0
0, 0
0, 0
0, 0
0, 0
1, 0
0, 0
1, 0
0, 0
0, 0
1, 0
1, 0
0, 0
0, 0
0, 0
1, 0
0, 1
0, 0
0, 0
0, 0
0, 0
0, 0
1, 0
0, 0
0, 0
0, 0
1, 1
0, 0
0, 0
0, 1
1, 0
0, 0
0, 0
0, 0
0, 0
1, 0
0, 0
0, 0
0, 0
1, 0
0, 0
0, 0
0, 0
0, 0
1, 0
0, 1
0, 0
0, 0
0, 0
0, 0
0, 0
0, 0
0, 0
0, 1
0, 0
0, 0
0, 0
0, 0
0, 0
0, 0
0, 0
0, 0
0, 0
0, 0
0, 0
0, 0
0, 0
0, 0
0, 0
0, 0
0, 0
0, 0
0, 0
0, 0
0, 0
0, 0
0, 0
0, 0
0, 0
0, 0
0, 0
0, 0
0, 0
0, 0
0, 0
0, 0
1, 0
0, 0
0, 0
0, 0
0, 0
0, 0
0, 0
0, 0
0, 0
0, 0
0, 0
0, 0
0, 0
0, 0
0, 0
0, 0
0, 0
0, 0
0, 0
0, 0
0, 1
0, 0
0, 0
0, 0
1, 0
0, 0
1, 0
0, 1
0, 0
0, 0
0, 0
0, 0
0, 0
0, 0
0, 0
0, 0
0, 0
0, 0
0, 0
0, 0
0, 0
0, 0
0, 0
0, 0
0, 0
0, 0
0, 0
0, 0
0, 0
0, 0
0, 0
0, 0
0, 0
0, 0
0, 0
0, 0
0, 0
0, 0
0, 0
0, 0
0, 0
1, 0
0, 0
0, 0
0, 0
0, 0
0, 0
0, 0
0, 0
0, 0
0, 0
0, 0
0, 0
0, 0
0, 0
0, 0
0, 0
0, 0
0, 0
0, 0
0, 0
0, 0
0, 0
0, 0
0, 0
0, 0
0, 0
0, 0
0, 0
0, 0
0, 0
0, 0
0, 0
0, 0
0, 0
0, 0
0, 0
0, 0
0, 0
0, 0
0, 0
0, 0
0, 0
0, 0
0, 0
0, 0
0, 0
0, 0
0, 0
0, 0
0, 0
0, 0
0, 0
0, 0
0, 0
0, 0
0, 0
0, 0
0, 0
0, 0
0, 0
0, 0
0, 0
0, 0
0, 0
0, 0
0, 0
0, 0
0, 0
0, 0
0, 0
0, 0
0, 0
0, 0
0, 0
0, 0
0, 0
0, 0
0, 0
0, 0
0, 0
0, 0
0, 0
0, 0
0, 0
0, 0
0, 0
0, 0
0, 0
0, 0
0, 0
0, 0
0, 0
0, 0
0, 0
0, 0
0, 0
0, 0
0, 0
0, 0
0, 0
0, 0
0, 0
0, 0
0, 0
0, 0
0, 0
0, 0
0, 0
0, 0
0, 0
0, 0
0, 0
0, 0
0, 0
0, 0
0, 0
0, 0
0, 0
0, 0
0, 0
0, 0
0, 0
0, 0
0, 0
0, 0
0, 0
0, 0
0, 0
0, 0
0, 0
0, 0
0, 0
0, 0
0, 0
0, 0
0, 0
0, 0
0, 0
0, 0
0, 0
0, 0
0, 0
0, 0
0, 0
0, 0
0, 0
0, 0
0, 0
0, 0
0, 0
0, 0
0, 0
0, 0
0, 0
0, 0
0, 0
0, 0
0, 0
0, 0
0, 0
0, 0
0, 0
0, 0
0, 0
0, 0
0, 0
0, 0
0, 0
0, 0
0, 0
0, 0
0, 0
0, 0
0, 0
0, 0
0, 0
0, 0
0, 0
0, 0
0, 0
0, 0
0, 0
0, 0
0, 0
0, 0
0, 0
0, 0
0, 0
0, 0
0, 0
0, 0
0, 0
0, 0
0, 0
0, 0
0, 0
0, 0
0, 0
0, 0
0, 0
0, 0
0, 0
0, 0
0, 0
0, 0
0, 0
0, 0
0, 0
0, 0
0, 0
0, 0
0, 0
0, 0
0, 0
0, 0
0, 0
0, 0
0, 0
0, 0
0, 0
0, 0
0, 0
0, 0
0, 0
0, 0
0, 0
0, 0
0, 0
0, 0
0, 0
0, 0
0, 0
0, 0
0, 0
0, 0
0, 0
0, 0
0, 0
0, 0
0, 0
0, 0
0, 0
0, 0
0, 0
0, 0
0, 0
0, 0
0, 0
0, 0
0, 0
0, 0
0, 0
0, 0
0, 0
0, 0
0, 0
0, 0
0, 0
0, 0
0, 0
0, 0
0, 0
0, 0
0, 0
0, 0
0, 0
0, 0
0, 0
0, 0
0, 0
0, 0
0, 0
0, 0
0, 0
0, 0
0, 0
0, 0
0, 0
0, 0
0, 0
0, 0
0, 0
0, 0
0, 0
0, 0
0, 0
0, 0
0, 0
0, 0
0, 0
0, 0
0, 0
0, 0
0, 0
0, 0
0, 0
0, 0
0, 0
0, 0
0, 0
0, 0
0, 0
0, 0
0, 0
0, 0
0, 0
0, 0
0, 0
0, 0
0, 0
0, 0
0, 0
0, 0
0, 0
0, 0
0, 0
0, 0
0, 0
0, 0
0, 0
0, 0
0, 0
0, 0
0, 0
0, 0
0, 0
0, 0
0, 0
0, 0
0, 0
0, 0
0, 0
0, 0
0, 0
0, 0
0, 0
0, 0
0, 0
0, 0
0, 0
0, 0
0, 0
0, 0
0, 0
0, 0
0, 0
0, 0
0, 0
0, 0
0, 0
0, 0
0, 0
0, 0
0, 0
0, 0
0, 0
0, 0
0, 0
0, 0
0, 0
0, 0
0, 0
0, 0
0, 0
0, 0
0, 0
0, 0
0, 0
0, 0
0, 0
0, 0
0, 0
0, 0
0, 0
0, 0
0, 0
0, 0
0, 0
0, 0
0, 0
0, 0
0, 0
0, 0
0, 0
0, 0
0, 0
0, 0
0, 0
0, 0
0, 0
0, 0
0, 0
0, 0
0, 0
0, 0
0, 0
0, 0
0, 0
#ENDOFDATA     end of spectrum data