File: host_upload/06-09-2024/ps_0852/dump3/ps__0852shot_2076.msa
#FORMAT      : EMSA/MAS spectral data file
#VERSION     : TC202v2.0 PIXL
#TITLE       : N/A
#DATE        :       Date in the format DD-MMM-YYYY, for example 07-JUL-2010
#TIME        :             The time of day at which the spectrum was recorded, in 24-hour format
#OWNER       : PIXL Flight Model       (PIXL will use this to indicate which instrument took the data.)
#NPOINTS     : 4096     Number of data points in the spectrum (This can be zero for configuration only files)
#NCOLUMNS    : 2     Number of data columns in the spectrum (This can be zero for configuration only files)
#XUNITS      : eV
#YUNITS      : COUNTS
#DATATYPE    : YY
#XPERCHAN    : 7.862, 7.881   eV per channel (separate by commas if more than one detector)
#OFFSET      : 18.5, -22.4         eV of first channel  (separate by commas if more than one detector
#SIGNALTYPE  : XRF
#YP_TEMP     : 2.267
#LIVETIME    : 8.57334, 8.56587   seconds (separate by commas if more than one detector)
#REALTIME    : 10, 10.0   seconds (separate by commas if more than one detector)
#SPECTRUM    : start of spectrum data
0, 0
0, 0
0, 0
0, 0
0, 0
0, 0
0, 0
0, 0
0, 0
0, 0
0, 0
0, 0
0, 0
0, 0
0, 0
0, 0
0, 0
0, 0
0, 0
0, 0
0, 0
0, 0
0, 0
0, 0
0, 0
0, 0
0, 0
0, 0
0, 0
0, 0
0, 0
0, 0
0, 0
1, 1
0, 0
0, 0
1, 1
0, 2
1, 2
4, 2
1, 2
1, 4
1, 1
0, 3
0, 1
3, 1
1, 2
2, 5
12, 10
14, 6
22, 23
37, 55
62, 63
88, 79
77, 71
70, 69
74, 50
54, 42
24, 30
13, 12
13, 8
7, 5
2, 3
3, 1
3, 3
2, 7
13, 11
11, 15
29, 26
52, 45
89, 102
174, 155
252, 245
394, 334
441, 449
475, 421
367, 376
322, 276
242, 187
131, 121
79, 75
40, 33
26, 13
12, 9
10, 7
4, 2
3, 2
4, 0
5, 2
1, 0
1, 2
1, 1
1, 1
2, 2
5, 4
6, 9
4, 8
9, 5
8, 5
7, 4
8, 14
7, 6
8, 15
1, 7
9, 6
11, 6
13, 9
10, 6
13, 13
22, 17
34, 24
48, 36
52, 57
54, 63
68, 80
85, 84
66, 77
67, 69
68, 61
54, 48
48, 37
38, 27
27, 37
27, 27
25, 20
21, 18
13, 14
18, 14
9, 8
5, 5
6, 4
4, 3
5, 3
5, 2
3, 4
5, 5
1, 1
2, 5
4, 7
2, 1
1, 1
2, 6
2, 2
2, 2
5, 3
5, 7
3, 1
3, 0
4, 4
3, 3
8, 7
8, 3
8, 13
8, 24
23, 18
28, 22
32, 23
35, 33
29, 27
31, 27
25, 21
17, 16
11, 11
11, 12
9, 12
6, 6
10, 10
7, 9
6, 9
6, 10
2, 6
6, 7
7, 8
8, 13
8, 14
12, 9
15, 12
9, 8
12, 12
7, 18
13, 10
13, 15
10, 14
13, 9
5, 6
5, 13
5, 3
7, 11
7, 8
10, 12
13, 19
14, 15
13, 18
21, 13
17, 19
13, 15
22, 25
18, 21
22, 22
17, 18
18, 18
18, 22
21, 25
17, 17
20, 18
3, 14
12, 18
7, 10
12, 15
12, 13
10, 7
8, 10
6, 9
12, 16
19, 16
8, 6
8, 11
9, 4
5, 8
15, 7
6, 6
10, 9
6, 6
10, 8
8, 11
13, 19
16, 15
26, 24
26, 22
19, 23
28, 22
19, 23
32, 27
27, 27
24, 21
18, 22
21, 15
16, 12
15, 20
17, 20
17, 16
15, 9
16, 14
18, 24
21, 20
31, 30
34, 27
41, 43
46, 57
63, 65
80, 58
63, 65
62, 63
47, 51
57, 49
57, 44
37, 29
28, 24
27, 25
33, 23
28, 21
35, 38
66, 72
99, 132
173, 198
285, 395
491, 578
764, 902
1194, 1291
1527, 1798
1882, 2067
2195, 2289
2416, 2399
2381, 2174
2127, 1910
1655, 1562
1315, 1053
897, 688
622, 433
391, 293
213, 173
127, 93
67, 41
48, 41
43, 26
28, 29
46, 15
37, 22
52, 22
36, 34
40, 20
32, 36
73, 48
71, 100
103, 124
136, 177
204, 260
229, 282
310, 340
299, 335
360, 348
329, 316
277, 269
246, 214
181, 164
117, 91
86, 72
58, 36
36, 38
22, 12
15, 11
16, 13
7, 11
9, 16
12, 11
5, 8
11, 25
20, 12
15, 18
17, 14
18, 10
11, 8
10, 3
8, 9
8, 5
5, 5
11, 6
4, 8
2, 7
8, 6
2, 4
5, 7
7, 5
4, 4
4, 4
4, 5
7, 3
5, 5
8, 4
7, 7
8, 10
4, 10
8, 8
3, 9
9, 6
5, 10
2, 2
6, 5
10, 3
8, 4
6, 4
12, 7
7, 8
14, 5
8, 7
7, 2
11, 7
6, 5
6, 8
7, 7
11, 7
5, 9
7, 7
4, 6
8, 2
7, 6
6, 8
6, 4
6, 5
6, 3
7, 5
12, 4
6, 3
5, 5
5, 6
6, 5
6, 5
4, 4
7, 9
6, 7
4, 6
8, 3
3, 5
7, 2
7, 4
10, 6
3, 6
4, 2
5, 2
2, 10
7, 5
3, 3
7, 8
4, 11
4, 4
4, 6
5, 8
2, 4
2, 8
8, 7
3, 5
2, 6
6, 3
4, 3
5, 4
10, 5
1, 6
2, 2
9, 1
6, 6
1, 3
2, 4
2, 2
2, 3
11, 9
4, 4
5, 10
5, 4
4, 6
4, 5
5, 2
9, 0
7, 5
5, 2
8, 1
7, 8
3, 4
4, 2
3, 3
6, 2
3, 7
5, 4
4, 2
4, 4
4, 5
4, 4
3, 4
7, 5
7, 4
5, 2
3, 4
2, 2
4, 8
3, 4
5, 2
3, 2
2, 2
4, 3
1, 3
1, 4
4, 3
3, 2
3, 3
1, 1
3, 3
2, 1
2, 4
1, 1
2, 2
1, 3
1, 2
1, 1
3, 2
3, 5
2, 2
3, 1
2, 3
4, 2
1, 1
4, 0
3, 2
2, 8
1, 2
4, 4
2, 1
1, 0
2, 3
7, 3
1, 2
3, 2
0, 3
1, 4
5, 1
2, 0
3, 2
1, 3
2, 3
1, 2
4, 6
1, 2
0, 4
0, 5
0, 1
2, 5
5, 3
2, 2
3, 4
2, 3
0, 4
3, 3
3, 1
3, 2
2, 1
1, 4
4, 1
5, 3
2, 4
1, 1
2, 2
1, 2
6, 5
0, 1
4, 5
2, 0
1, 2
2, 2
3, 2
4, 2
2, 4
3, 4
4, 2
2, 2
2, 2
1, 1
1, 3
1, 1
5, 6
2, 1
1, 3
0, 2
3, 4
0, 1
3, 2
0, 3
0, 4
2, 5
6, 2
3, 2
3, 8
0, 5
4, 5
0, 7
4, 2
3, 3
6, 4
4, 2
2, 1
2, 4
6, 1
2, 2
2, 1
1, 2
1, 2
0, 4
2, 1
2, 1
1, 1
2, 0
0, 3
3, 0
4, 1
2, 3
1, 2
1, 2
1, 1
3, 7
2, 3
2, 3
1, 2
2, 3
0, 3
4, 1
5, 1
0, 2
0, 4
3, 1
2, 0
1, 0
0, 1
1, 2
1, 1
0, 0
1, 3
0, 0
1, 0
1, 0
1, 2
0, 0
1, 1
3, 1
1, 0
1, 1
0, 2
0, 1
0, 1
0, 2
2, 2
2, 1
1, 1
0, 0
0, 3
1, 0
0, 2
1, 0
1, 1
1, 0
1, 1
3, 1
1, 1
1, 0
1, 1
1, 1
2, 1
1, 1
1, 1
0, 0
2, 1
0, 0
2, 0
0, 2
1, 1
1, 0
0, 0
1, 1
0, 0
1, 0
0, 0
0, 2
0, 1
3, 1
1, 0
1, 1
0, 0
2, 0
0, 3
0, 0
0, 0
0, 0
0, 1
0, 1
0, 1
0, 3
1, 3
2, 0
0, 1
1, 1
1, 1
1, 0
1, 0
2, 1
0, 1
1, 0
0, 2
0, 1
2, 0
0, 1
0, 1
0, 0
0, 0
0, 1
1, 0
1, 0
1, 0
1, 1
1, 1
1, 2
0, 0
0, 0
0, 0
1, 0
0, 1
1, 0
0, 0
0, 0
0, 0
0, 1
0, 1
1, 1
0, 0
0, 1
0, 0
1, 0
0, 0
1, 0
0, 1
0, 1
2, 1
0, 1
1, 0
0, 0
0, 0
1, 2
2, 0
1, 0
0, 1
2, 0
0, 0
0, 1
0, 0
1, 1
0, 0
0, 0
0, 0
2, 2
0, 0
0, 1
0, 0
0, 1
3, 0
0, 0
0, 0
1, 1
1, 0
1, 1
0, 0
0, 1
0, 0
0, 1
0, 0
0, 0
0, 1
0, 1
1, 0
1, 0
0, 0
1, 0
0, 1
2, 0
0, 2
1, 0
2, 0
0, 1
0, 1
0, 0
0, 0
0, 1
1, 0
0, 0
0, 0
0, 0
0, 0
0, 1
0, 0
0, 0
1, 1
1, 0
0, 0
0, 0
0, 1
1, 0
0, 0
1, 1
0, 0
0, 0
0, 0
0, 0
0, 0
0, 0
0, 0
0, 0
0, 1
0, 0
0, 0
0, 0
0, 0
0, 0
0, 1
0, 0
0, 0
1, 0
1, 0
0, 0
0, 0
1, 0
0, 1
0, 1
0, 0
0, 1
0, 1
0, 0
0, 0
0, 0
1, 0
0, 0
0, 0
0, 1
0, 0
0, 0
0, 0
0, 1
0, 1
2, 0
1, 0
1, 0
0, 0
0, 0
0, 0
0, 1
0, 0
0, 0
0, 0
0, 1
0, 1
0, 1
0, 0
0, 0
0, 0
0, 0
0, 0
0, 0
0, 1
0, 0
0, 0
0, 0
0, 0
0, 0
0, 0
0, 0
0, 1
0, 0
0, 0
0, 0
0, 0
0, 0
0, 1
0, 1
0, 0
0, 0
0, 0
0, 0
0, 0
0, 0
0, 0
0, 0
0, 0
2, 0
0, 0
0, 0
0, 0
0, 1
0, 0
0, 0
0, 0
0, 0
0, 1
0, 0
0, 0
0, 0
0, 0
1, 0
1, 0
0, 0
0, 1
0, 0
0, 0
0, 0
0, 0
0, 0
0, 0
0, 0
0, 0
0, 1
0, 0
0, 0
0, 0
0, 0
0, 0
1, 0
0, 0
0, 0
0, 1
0, 0
0, 0
0, 0
0, 1
0, 0
0, 0
0, 0
2, 0
0, 0
0, 0
0, 1
0, 0
0, 0
0, 0
0, 0
0, 0
1, 0
0, 0
0, 0
0, 0
0, 1
1, 0
0, 0
0, 0
0, 0
0, 0
0, 0
0, 0
0, 0
1, 1
1, 0
0, 0
1, 0
0, 0
0, 0
0, 0
0, 0
0, 0
0, 0
0, 0
1, 0
0, 0
0, 0
0, 0
0, 0
0, 0
0, 0
0, 0
0, 0
1, 0
0, 0
0, 0
0, 0
0, 0
0, 0
0, 0
0, 0
0, 0
0, 0
0, 0
0, 0
0, 0
0, 0
0, 0
0, 0
0, 0
0, 0
0, 0
0, 0
0, 0
1, 0
0, 0
0, 0
0, 0
0, 0
0, 0
0, 0
0, 0
0, 0
0, 0
0, 0
0, 0
0, 0
0, 0
0, 0
0, 0
0, 0
0, 0
0, 0
0, 0
0, 0
0, 0
0, 0
0, 0
0, 0
0, 0
0, 0
0, 0
0, 0
0, 0
0, 0
0, 0
0, 0
0, 0
0, 0
0, 0
0, 0
0, 0
0, 0
0, 0
0, 0
0, 0
0, 0
0, 0
0, 0
0, 0
0, 0
0, 0
0, 0
0, 0
0, 0
0, 0
0, 0
0, 0
0, 0
0, 0
0, 0
0, 0
0, 0
0, 0
0, 0
0, 0
0, 0
0, 0
0, 0
0, 0
0, 0
0, 0
0, 0
0, 0
0, 0
0, 0
0, 0
0, 0
0, 0
0, 0
0, 0
0, 0
0, 0
0, 0
0, 0
0, 0
0, 0
0, 0
0, 0
0, 0
0, 0
0, 0
0, 0
0, 1
0, 0
0, 0
0, 0
0, 0
0, 0
0, 0
0, 0
0, 0
0, 0
0, 0
0, 0
0, 0
0, 0
0, 0
0, 0
0, 0
0, 0
0, 0
0, 0
0, 0
0, 0
0, 0
0, 0
0, 0
0, 0
0, 0
0, 0
0, 0
0, 0
0, 0
0, 0
0, 0
0, 0
0, 0
0, 0
0, 0
0, 0
0, 0
0, 0
0, 0
0, 0
0, 0
0, 0
0, 0
0, 0
0, 0
0, 0
0, 0
0, 0
0, 0
0, 0
0, 0
0, 0
0, 0
0, 0
0, 0
0, 0
0, 0
0, 0
0, 0
0, 0
0, 0
0, 0
0, 0
0, 0
0, 0
0, 0
0, 0
0, 0
0, 0
0, 0
0, 0
0, 0
0, 0
0, 0
0, 0
0, 0
0, 0
0, 0
0, 0
0, 0
0, 0
0, 0
0, 0
0, 0
0, 0
0, 0
0, 0
0, 0
0, 0
0, 0
0, 0
0, 0
0, 0
0, 0
0, 0
0, 0
0, 0
0, 0
0, 0
0, 0
0, 0
0, 0
0, 0
0, 0
0, 0
0, 0
0, 0
0, 0
0, 0
0, 0
0, 0
0, 0
0, 0
0, 0
0, 0
0, 0
0, 0
0, 0
0, 0
0, 0
0, 0
0, 0
0, 0
0, 0
0, 0
0, 0
0, 0
0, 0
0, 0
0, 0
0, 0
0, 0
0, 0
0, 0
0, 0
0, 0
0, 0
0, 0
0, 0
0, 0
0, 0
0, 0
0, 0
0, 0
0, 0
0, 0
0, 0
0, 0
0, 0
0, 0
0, 0
0, 0
0, 0
0, 0
0, 0
0, 0
0, 0
0, 0
0, 0
0, 0
0, 0
0, 0
0, 0
0, 0
0, 0
0, 0
0, 0
0, 0
0, 0
0, 0
0, 0
0, 0
0, 0
0, 0
0, 0
0, 0
0, 0
0, 0
0, 0
0, 0
0, 0
0, 0
0, 0
0, 0
0, 0
0, 0
0, 0
0, 0
0, 0
0, 0
0, 0
0, 0
0, 0
0, 0
0, 0
0, 0
0, 0
0, 0
0, 0
0, 0
0, 0
0, 0
0, 0
0, 0
0, 0
0, 0
0, 0
0, 0
0, 0
0, 0
0, 0
0, 0
0, 0
0, 0
0, 0
0, 0
0, 0
0, 0
0, 0
0, 0
0, 0
0, 0
0, 0
0, 0
0, 0
0, 0
0, 0
0, 0
0, 0
0, 0
0, 0
0, 0
0, 0
0, 0
0, 0
0, 0
0, 0
0, 0
0, 0
0, 0
0, 0
0, 0
0, 0
0, 0
0, 0
0, 0
0, 0
0, 0
0, 0
0, 0
0, 0
0, 0
0, 0
0, 0
0, 0
0, 0
0, 0
0, 0
0, 0
0, 0
0, 0
0, 0
0, 0
0, 0
0, 0
0, 0
0, 0
0, 0
0, 0
0, 0
0, 0
0, 0
0, 0
0, 0
0, 0
0, 0
0, 0
0, 0
0, 0
0, 0
0, 0
0, 0
0, 0
0, 0
0, 0
0, 0
0, 0
0, 0
0, 0
0, 0
0, 0
0, 0
0, 0
0, 0
0, 0
0, 0
0, 0
0, 0
0, 0
0, 0
0, 0
0, 0
0, 0
0, 0
0, 0
0, 0
0, 0
0, 0
0, 0
0, 0
0, 0
0, 0
0, 0
0, 0
0, 0
0, 0
0, 0
0, 0
0, 0
0, 0
0, 0
0, 0
0, 0
0, 0
0, 0
0, 0
0, 0
0, 0
0, 0
0, 0
0, 0
0, 0
0, 0
0, 0
#ENDOFDATA     end of spectrum data