File: host_upload/06-09-2024/ps_0852/dump3/ps__0852shot_2184.msa
#FORMAT      : EMSA/MAS spectral data file
#VERSION     : TC202v2.0 PIXL
#TITLE       : N/A
#DATE        :       Date in the format DD-MMM-YYYY, for example 07-JUL-2010
#TIME        :             The time of day at which the spectrum was recorded, in 24-hour format
#OWNER       : PIXL Flight Model       (PIXL will use this to indicate which instrument took the data.)
#NPOINTS     : 4096     Number of data points in the spectrum (This can be zero for configuration only files)
#NCOLUMNS    : 2     Number of data columns in the spectrum (This can be zero for configuration only files)
#XUNITS      : eV
#YUNITS      : COUNTS
#DATATYPE    : YY
#XPERCHAN    : 7.862, 7.881   eV per channel (separate by commas if more than one detector)
#OFFSET      : 18.5, -22.4         eV of first channel  (separate by commas if more than one detector
#SIGNALTYPE  : XRF
#YP_TEMP     : 2.267
#LIVETIME    : 8.56536, 8.55195   seconds (separate by commas if more than one detector)
#REALTIME    : 10, 10.0   seconds (separate by commas if more than one detector)
#SPECTRUM    : start of spectrum data
0, 0
0, 0
0, 0
0, 0
0, 0
0, 0
0, 0
0, 0
0, 0
0, 0
0, 0
0, 0
0, 0
0, 0
0, 0
0, 0
0, 0
0, 0
0, 0
0, 0
0, 0
0, 0
0, 0
0, 0
0, 0
0, 0
0, 0
0, 0
0, 0
0, 0
0, 0
0, 0
0, 0
1, 0
0, 1
0, 0
0, 3
2, 0
3, 2
3, 7
5, 6
7, 8
5, 10
1, 11
1, 6
4, 6
2, 4
4, 7
4, 6
11, 18
20, 30
36, 41
39, 72
64, 89
93, 94
65, 74
59, 73
59, 35
25, 30
20, 20
6, 8
5, 3
4, 6
4, 2
1, 6
4, 4
6, 6
6, 8
13, 27
47, 45
93, 93
175, 175
259, 273
312, 395
400, 423
405, 463
340, 358
273, 299
218, 193
130, 119
56, 66
42, 41
12, 18
9, 12
4, 4
3, 3
1, 1
2, 3
0, 2
0, 3
3, 1
1, 0
0, 0
0, 2
1, 1
3, 5
2, 3
5, 5
3, 0
3, 2
4, 2
5, 2
2, 2
2, 5
4, 4
5, 8
3, 12
10, 18
21, 59
25, 76
68, 199
99, 300
137, 512
213, 647
267, 739
289, 847
250, 811
205, 628
151, 486
115, 327
91, 184
53, 111
31, 57
23, 33
29, 20
8, 16
15, 19
9, 6
8, 10
6, 5
7, 7
3, 1
2, 4
3, 1
2, 2
3, 3
3, 2
2, 4
3, 1
4, 4
0, 5
2, 2
0, 1
2, 2
4, 0
2, 2
4, 0
1, 2
2, 0
0, 1
1, 1
3, 2
7, 2
6, 4
7, 3
5, 9
11, 10
14, 12
11, 17
13, 13
10, 14
9, 9
4, 6
4, 15
6, 9
8, 9
12, 14
22, 27
26, 28
38, 34
38, 37
45, 38
43, 50
47, 28
35, 30
32, 11
20, 14
12, 5
9, 6
9, 1
3, 2
8, 7
2, 2
8, 1
0, 3
3, 2
4, 4
2, 2
6, 9
5, 9
7, 7
13, 4
14, 13
13, 4
11, 11
16, 12
5, 13
15, 12
11, 17
13, 16
11, 15
9, 16
5, 14
8, 12
7, 15
3, 11
8, 16
6, 8
3, 6
8, 4
4, 6
7, 7
4, 5
3, 9
4, 2
9, 5
5, 3
5, 8
6, 4
6, 11
5, 5
5, 9
13, 5
16, 9
8, 12
15, 13
10, 6
19, 15
20, 15
15, 15
15, 12
12, 19
14, 15
11, 11
10, 10
11, 10
16, 9
14, 6
6, 7
11, 5
8, 11
15, 10
7, 7
15, 12
11, 21
11, 20
22, 34
35, 40
39, 41
54, 50
64, 59
58, 63
47, 44
48, 57
41, 37
34, 39
33, 38
21, 20
14, 8
22, 18
13, 24
25, 30
34, 69
75, 123
135, 188
267, 334
496, 595
708, 958
1050, 1376
1550, 1814
1870, 2210
2124, 2451
2258, 2480
2183, 2308
1990, 1986
1642, 1619
1253, 1025
953, 741
550, 488
350, 285
224, 179
120, 89
74, 57
56, 51
39, 35
44, 36
35, 41
39, 39
28, 45
31, 31
47, 46
54, 53
60, 75
70, 85
104, 118
151, 205
185, 225
229, 300
288, 317
353, 380
346, 349
303, 348
291, 279
245, 210
186, 151
122, 112
77, 73
54, 44
35, 26
21, 14
4, 7
4, 6
5, 6
4, 13
3, 10
6, 15
14, 17
11, 15
19, 21
16, 10
10, 7
13, 9
9, 10
10, 6
9, 5
7, 4
4, 5
3, 3
3, 7
9, 6
8, 4
5, 3
4, 4
6, 3
6, 4
9, 8
7, 6
6, 6
7, 8
9, 4
8, 8
12, 13
18, 15
17, 11
10, 14
15, 11
19, 11
16, 12
18, 4
8, 9
7, 4
10, 15
17, 9
5, 4
4, 7
5, 5
5, 7
4, 3
8, 4
6, 1
4, 3
3, 1
3, 3
3, 4
4, 5
3, 1
6, 1
4, 1
3, 5
2, 5
2, 4
3, 3
0, 4
2, 1
6, 5
1, 3
7, 4
4, 2
3, 0
3, 3
2, 3
4, 6
3, 4
4, 9
2, 2
5, 5
5, 2
3, 3
4, 3
6, 5
2, 11
5, 2
6, 11
7, 3
5, 5
5, 4
5, 5
6, 4
3, 6
3, 8
8, 6
7, 3
6, 5
6, 3
8, 3
1, 4
4, 3
3, 4
2, 5
2, 0
3, 3
2, 3
1, 2
2, 6
5, 2
3, 2
4, 5
4, 4
0, 1
1, 1
1, 4
1, 3
2, 4
2, 2
3, 1
4, 2
3, 3
3, 1
0, 3
0, 3
2, 1
3, 0
4, 2
4, 1
3, 1
0, 4
4, 4
0, 1
2, 2
0, 0
2, 5
5, 3
3, 0
2, 4
2, 2
4, 7
2, 2
4, 3
5, 0
6, 3
3, 3
1, 1
3, 4
4, 3
5, 6
0, 1
2, 3
2, 7
4, 6
7, 4
7, 7
3, 4
3, 13
8, 4
10, 3
2, 2
2, 4
3, 6
2, 5
5, 2
2, 3
5, 6
2, 1
2, 2
3, 5
1, 5
2, 4
2, 0
1, 1
1, 3
3, 3
0, 3
0, 2
3, 0
2, 2
3, 2
1, 1
0, 4
1, 2
3, 1
1, 5
1, 0
3, 2
2, 0
0, 2
2, 3
5, 4
2, 4
4, 1
3, 3
0, 0
3, 4
2, 0
2, 4
4, 4
0, 1
1, 2
4, 6
1, 1
2, 4
4, 0
2, 4
3, 6
3, 4
1, 1
2, 3
0, 2
3, 2
2, 4
1, 1
3, 2
1, 4
1, 4
1, 2
3, 1
1, 3
1, 4
0, 3
2, 3
2, 3
2, 3
0, 2
0, 1
0, 2
1, 2
3, 2
2, 4
1, 4
1, 4
3, 6
6, 6
0, 3
3, 5
5, 5
2, 3
2, 6
2, 1
2, 3
3, 2
2, 2
1, 2
2, 1
3, 1
1, 3
0, 5
0, 0
1, 2
3, 1
1, 1
4, 0
3, 0
1, 3
1, 4
3, 0
2, 2
1, 1
2, 0
3, 2
5, 2
3, 3
2, 7
3, 1
1, 3
3, 2
2, 1
1, 2
0, 4
2, 3
4, 3
0, 0
2, 1
1, 2
1, 1
0, 0
2, 0
0, 3
1, 0
0, 1
1, 2
0, 0
1, 3
1, 2
0, 2
2, 1
3, 0
1, 1
1, 0
0, 2
1, 0
2, 1
0, 2
1, 1
1, 0
1, 0
0, 1
0, 0
2, 0
0, 1
0, 0
2, 1
0, 1
1, 0
1, 3
0, 1
2, 1
1, 0
1, 0
1, 0
3, 1
1, 1
0, 1
1, 1
0, 2
1, 4
2, 1
0, 0
1, 4
0, 1
2, 1
2, 0
1, 1
4, 0
0, 0
2, 1
0, 0
3, 0
1, 1
0, 1
0, 3
2, 0
1, 1
1, 0
1, 1
1, 2
2, 0
1, 0
1, 3
0, 0
1, 1
0, 2
2, 0
0, 1
0, 0
0, 1
0, 0
0, 0
0, 0
1, 1
0, 0
2, 0
0, 0
0, 0
0, 0
0, 0
1, 1
1, 0
0, 0
1, 1
0, 0
0, 1
0, 0
0, 0
0, 1
0, 0
0, 1
0, 2
1, 1
0, 0
0, 1
0, 1
1, 1
1, 0
2, 0
0, 1
0, 1
0, 1
1, 1
0, 2
0, 0
0, 0
0, 0
2, 0
0, 0
1, 0
1, 1
2, 1
0, 0
0, 0
0, 0
0, 1
0, 3
0, 0
2, 0
0, 0
0, 0
1, 0
0, 1
0, 0
0, 1
0, 0
0, 0
1, 1
0, 0
0, 0
0, 1
0, 0
0, 0
1, 1
1, 0
1, 2
1, 1
0, 1
0, 0
0, 1
0, 0
2, 0
1, 0
0, 1
1, 0
2, 0
0, 0
0, 1
0, 0
0, 0
0, 1
1, 0
1, 1
0, 0
0, 0
0, 0
0, 0
0, 0
0, 2
1, 0
0, 0
0, 0
0, 0
1, 1
0, 0
0, 1
1, 1
0, 1
0, 0
1, 0
0, 0
0, 0
0, 0
0, 0
1, 0
1, 0
0, 0
0, 0
0, 0
0, 1
0, 0
0, 1
1, 0
0, 0
0, 0
0, 2
0, 0
0, 0
0, 0
0, 0
0, 0
0, 0
0, 0
0, 0
1, 0
1, 1
0, 0
0, 0
0, 0
1, 0
1, 1
0, 0
0, 1
0, 2
0, 0
0, 0
0, 0
0, 0
2, 1
0, 1
0, 1
0, 1
0, 0
0, 0
0, 0
0, 1
0, 2
0, 1
0, 0
1, 0
0, 1
0, 0
0, 0
0, 0
1, 0
0, 0
0, 1
0, 0
0, 1
1, 0
0, 1
1, 0
1, 0
0, 1
0, 0
1, 1
0, 0
0, 0
0, 1
0, 1
0, 0
0, 0
0, 0
0, 0
0, 0
0, 0
0, 1
0, 0
1, 0
0, 0
0, 0
0, 0
0, 0
0, 0
0, 0
0, 1
2, 0
0, 0
0, 0
0, 0
0, 0
0, 0
0, 0
0, 0
0, 1
0, 0
0, 0
0, 0
1, 2
1, 1
0, 1
0, 0
0, 1
0, 0
0, 0
0, 0
0, 0
1, 0
0, 0
0, 0
1, 0
0, 0
0, 0
1, 0
1, 1
0, 0
1, 0
0, 0
1, 0
0, 0
0, 0
1, 0
0, 0
0, 0
0, 0
0, 1
0, 0
0, 0
0, 0
1, 0
1, 0
0, 0
0, 0
0, 0
0, 0
0, 0
0, 0
1, 0
0, 0
0, 0
0, 0
0, 0
0, 0
0, 0
0, 0
1, 0
0, 0
0, 0
0, 0
0, 0
0, 0
0, 0
0, 0
0, 0
0, 0
0, 0
0, 0
0, 0
0, 0
0, 0
0, 0
0, 0
0, 0
0, 1
0, 0
0, 0
0, 0
0, 0
0, 0
0, 0
0, 0
0, 0
0, 0
0, 0
0, 0
0, 0
0, 0
0, 0
0, 0
0, 0
0, 0
0, 0
0, 0
0, 0
0, 0
0, 0
0, 0
0, 0
0, 0
0, 0
0, 0
0, 0
0, 0
0, 0
0, 0
0, 0
0, 0
0, 0
0, 0
0, 0
0, 0
0, 0
0, 0
0, 0
0, 0
0, 0
0, 0
0, 0
0, 0
0, 0
0, 0
0, 0
0, 0
0, 1
0, 0
0, 0
0, 0
0, 0
0, 0
0, 0
0, 0
0, 1
0, 0
0, 0
0, 0
0, 0
0, 0
0, 0
0, 0
0, 0
0, 0
0, 0
0, 0
0, 0
0, 0
0, 1
0, 0
0, 0
0, 0
0, 0
0, 0
0, 0
0, 0
0, 0
0, 0
0, 0
0, 0
0, 0
0, 0
0, 0
0, 0
0, 0
0, 0
0, 0
0, 0
0, 0
0, 0
0, 0
0, 0
0, 0
0, 0
0, 0
0, 0
0, 0
0, 0
0, 0
0, 0
0, 0
0, 0
0, 0
0, 0
0, 0
0, 0
0, 0
0, 0
0, 0
0, 0
0, 0
0, 0
0, 0
0, 0
0, 0
0, 0
0, 0
0, 0
0, 0
0, 0
0, 0
0, 0
0, 0
0, 0
0, 0
0, 0
0, 0
0, 0
0, 0
0, 0
0, 0
0, 0
0, 0
0, 0
0, 0
0, 0
0, 0
0, 0
0, 0
0, 0
0, 0
0, 0
0, 0
0, 0
0, 0
0, 0
0, 0
0, 0
0, 0
0, 0
0, 0
0, 0
0, 0
0, 0
0, 0
0, 0
0, 0
0, 0
0, 0
0, 0
0, 0
0, 0
0, 0
0, 0
0, 0
0, 0
0, 0
0, 0
0, 0
0, 0
0, 0
0, 0
0, 0
0, 0
0, 0
0, 0
0, 0
0, 0
0, 0
0, 0
0, 0
0, 0
0, 0
0, 0
0, 0
0, 0
0, 0
0, 0
0, 0
0, 0
0, 0
0, 0
0, 0
0, 0
0, 0
0, 0
0, 0
0, 0
0, 0
0, 0
0, 0
0, 0
0, 0
0, 0
0, 0
0, 0
0, 0
0, 0
0, 0
0, 0
0, 0
0, 0
0, 0
0, 0
0, 0
0, 0
0, 0
0, 0
0, 0
0, 0
0, 0
0, 0
0, 0
0, 0
0, 0
0, 0
0, 0
0, 0
0, 0
0, 0
0, 0
0, 0
0, 0
0, 0
0, 0
0, 0
0, 0
0, 0
0, 0
0, 0
0, 0
0, 0
0, 0
0, 0
0, 0
0, 0
0, 0
0, 0
0, 0
0, 0
0, 0
0, 0
0, 0
0, 0
0, 0
0, 0
0, 0
0, 0
0, 0
0, 0
0, 0
0, 0
0, 0
0, 0
0, 0
0, 0
0, 0
0, 0
0, 0
0, 0
0, 0
0, 0
0, 0
0, 0
0, 0
0, 0
0, 0
0, 0
0, 0
0, 0
0, 0
0, 0
0, 0
0, 0
0, 0
0, 0
0, 0
0, 0
0, 0
0, 0
0, 0
0, 0
0, 0
0, 0
0, 0
0, 0
0, 0
0, 0
0, 0
0, 0
0, 0
0, 0
0, 0
0, 0
0, 0
0, 0
0, 0
0, 0
0, 0
0, 0
0, 0
0, 0
0, 0
0, 0
0, 0
0, 0
0, 0
0, 0
0, 0
0, 0
0, 0
0, 0
0, 0
0, 0
0, 0
0, 0
0, 0
0, 0
0, 0
0, 0
0, 0
0, 0
0, 0
0, 0
0, 0
0, 0
0, 0
0, 0
0, 0
0, 0
0, 0
0, 0
0, 0
0, 0
0, 0
0, 0
0, 0
0, 0
0, 0
0, 0
0, 0
0, 0
0, 0
0, 0
0, 0
0, 0
0, 0
0, 0
0, 0
0, 0
0, 0
0, 0
0, 0
0, 0
0, 0
0, 0
0, 0
0, 0
0, 0
0, 0
0, 0
0, 0
0, 0
0, 0
0, 0
0, 0
0, 0
0, 0
0, 0
0, 0
0, 0
0, 0
0, 0
0, 0
0, 0
0, 0
0, 0
0, 0
0, 0
0, 0
0, 0
0, 0
0, 0
0, 0
0, 0
0, 0
0, 0
0, 0
0, 0
0, 0
0, 0
0, 0
0, 0
0, 0
0, 0
0, 0
0, 0
0, 0
0, 0
0, 0
0, 0
0, 0
0, 0
0, 0
0, 0
0, 0
0, 0
0, 0
0, 0
0, 0
0, 0
0, 0
0, 0
0, 0
0, 0
0, 0
0, 0
0, 0
0, 0
0, 0
0, 0
0, 0
0, 0
0, 0
0, 0
0, 0
0, 0
0, 0
0, 0
0, 0
0, 0
0, 0
0, 0
0, 0
0, 0
#ENDOFDATA     end of spectrum data