File: host_upload/06-09-2024/ps_0852/dump3/ps__0852shot_2051.msa
#FORMAT      : EMSA/MAS spectral data file
#VERSION     : TC202v2.0 PIXL
#TITLE       : N/A
#DATE        :       Date in the format DD-MMM-YYYY, for example 07-JUL-2010
#TIME        :             The time of day at which the spectrum was recorded, in 24-hour format
#OWNER       : PIXL Flight Model       (PIXL will use this to indicate which instrument took the data.)
#NPOINTS     : 4096     Number of data points in the spectrum (This can be zero for configuration only files)
#NCOLUMNS    : 2     Number of data columns in the spectrum (This can be zero for configuration only files)
#XUNITS      : eV
#YUNITS      : COUNTS
#DATATYPE    : YY
#XPERCHAN    : 7.862, 7.881   eV per channel (separate by commas if more than one detector)
#OFFSET      : 18.5, -22.4         eV of first channel  (separate by commas if more than one detector
#SIGNALTYPE  : XRF
#YP_TEMP     : 2.332
#LIVETIME    : 8.53309, 8.55494   seconds (separate by commas if more than one detector)
#REALTIME    : 10, 10.0   seconds (separate by commas if more than one detector)
#SPECTRUM    : start of spectrum data
0, 0
0, 0
0, 0
0, 0
0, 0
0, 0
0, 0
0, 0
0, 0
0, 0
0, 0
0, 0
0, 0
0, 0
0, 0
0, 0
0, 0
0, 0
0, 0
0, 0
0, 0
0, 0
0, 0
0, 0
0, 0
0, 0
0, 0
0, 0
0, 0
0, 0
0, 1
0, 0
0, 0
0, 1
0, 3
0, 2
0, 4
0, 7
1, 14
0, 17
1, 22
0, 17
3, 19
1, 9
0, 12
2, 4
3, 3
8, 6
6, 5
10, 16
18, 21
49, 50
72, 69
82, 56
105, 81
68, 94
65, 48
52, 33
37, 31
24, 17
7, 12
5, 5
2, 4
3, 6
3, 5
4, 2
3, 6
10, 14
25, 26
50, 33
110, 103
171, 160
267, 261
346, 332
408, 411
439, 378
423, 370
311, 249
222, 186
125, 131
77, 74
55, 37
20, 18
9, 11
10, 7
6, 4
4, 3
2, 1
1, 2
0, 2
1, 2
0, 0
2, 2
2, 3
0, 3
4, 2
1, 2
1, 7
2, 3
6, 5
2, 2
4, 5
4, 4
3, 6
4, 6
2, 11
3, 13
5, 39
3, 88
10, 174
10, 342
21, 599
13, 862
23, 1156
27, 1377
31, 1388
28, 1329
23, 1135
20, 835
24, 548
21, 302
12, 171
17, 83
14, 43
17, 21
9, 11
12, 11
12, 6
10, 7
8, 7
3, 4
4, 2
6, 4
5, 3
6, 2
11, 1
7, 0
8, 2
7, 2
7, 5
5, 2
4, 3
6, 2
3, 2
2, 2
3, 1
1, 1
2, 1
3, 2
1, 1
1, 4
5, 8
7, 7
8, 11
11, 12
15, 7
11, 18
15, 16
18, 13
13, 22
15, 8
6, 8
9, 5
11, 9
5, 2
9, 7
6, 9
10, 3
7, 4
6, 5
5, 3
7, 8
4, 5
6, 9
5, 2
2, 7
3, 8
4, 8
5, 9
7, 12
1, 12
6, 9
3, 9
7, 7
4, 6
3, 1
5, 7
6, 12
4, 8
4, 6
6, 12
5, 15
9, 6
11, 13
13, 8
12, 9
22, 13
31, 16
42, 13
46, 11
57, 8
60, 10
48, 8
55, 5
72, 4
70, 7
74, 8
51, 6
45, 6
40, 3
32, 6
22, 5
17, 4
15, 1
8, 6
11, 9
5, 6
10, 4
3, 6
6, 8
6, 11
4, 15
5, 15
6, 16
5, 23
6, 27
9, 40
15, 47
11, 38
9, 52
19, 48
11, 36
13, 15
14, 18
20, 10
8, 14
7, 10
6, 5
10, 5
8, 5
9, 5
11, 7
12, 9
13, 10
12, 13
29, 14
27, 29
41, 35
40, 46
64, 58
57, 52
59, 62
62, 52
56, 43
46, 42
40, 29
28, 19
20, 14
22, 17
19, 12
20, 25
42, 24
48, 45
90, 97
148, 182
273, 343
495, 556
790, 950
1155, 1351
1630, 1650
2069, 2022
2229, 2240
2412, 2242
2468, 2186
2108, 1757
1832, 1459
1352, 1062
958, 694
650, 468
372, 232
213, 153
99, 72
76, 42
27, 30
23, 18
15, 18
13, 11
14, 17
17, 34
17, 21
17, 38
41, 34
41, 76
54, 81
97, 133
153, 163
218, 219
258, 288
328, 331
337, 318
358, 327
340, 290
293, 267
276, 185
195, 176
151, 104
91, 60
66, 49
34, 23
21, 11
11, 9
11, 4
5, 9
8, 9
11, 6
8, 15
13, 11
13, 12
10, 15
13, 11
10, 2
9, 7
12, 4
6, 7
8, 6
3, 4
3, 5
3, 3
6, 6
4, 7
5, 6
4, 5
5, 3
8, 7
6, 4
7, 11
8, 15
11, 13
14, 27
12, 23
7, 30
10, 33
13, 22
12, 27
9, 24
8, 26
3, 16
7, 17
10, 10
6, 10
4, 10
8, 8
3, 6
4, 5
7, 3
4, 3
3, 1
7, 7
6, 6
6, 6
7, 3
1, 2
4, 6
3, 2
3, 3
6, 5
7, 5
8, 3
6, 3
1, 2
3, 3
3, 4
3, 5
1, 2
2, 4
5, 5
2, 5
5, 2
2, 3
4, 6
4, 7
2, 5
3, 3
3, 8
5, 5
4, 3
4, 6
4, 4
1, 6
3, 6
1, 3
6, 4
2, 3
4, 6
4, 1
5, 3
2, 1
6, 1
6, 3
2, 6
2, 2
1, 6
2, 9
3, 5
6, 4
2, 4
4, 6
1, 5
5, 6
3, 3
6, 4
4, 2
2, 1
6, 4
3, 3
0, 4
3, 1
7, 2
6, 6
3, 1
2, 4
2, 3
4, 3
2, 6
3, 2
4, 6
1, 2
3, 7
1, 4
4, 5
1, 9
4, 4
6, 1
3, 5
0, 7
8, 5
7, 4
6, 1
10, 7
8, 2
8, 2
6, 5
9, 3
4, 6
16, 0
7, 1
9, 4
5, 2
9, 1
7, 4
3, 5
5, 5
1, 7
2, 2
4, 4
1, 4
5, 5
1, 7
3, 5
0, 2
3, 3
4, 3
3, 3
3, 4
6, 3
2, 4
0, 2
1, 11
1, 1
1, 1
3, 6
1, 2
2, 0
2, 1
2, 2
0, 5
3, 3
0, 3
1, 4
5, 5
3, 5
0, 6
1, 2
5, 1
1, 3
0, 2
0, 5
0, 2
3, 2
1, 1
0, 1
2, 4
0, 3
2, 4
1, 3
0, 3
3, 4
0, 1
2, 1
3, 2
4, 2
2, 2
2, 4
6, 6
2, 3
2, 1
6, 7
3, 4
2, 3
1, 0
3, 2
6, 3
1, 3
2, 3
6, 3
0, 4
4, 0
1, 4
2, 0
3, 3
3, 1
1, 1
1, 1
1, 4
0, 1
3, 1
4, 1
3, 1
1, 1
1, 1
3, 1
1, 2
1, 1
0, 2
3, 3
3, 0
1, 0
4, 4
5, 1
2, 2
3, 1
7, 8
2, 8
2, 3
7, 2
2, 9
4, 5
4, 2
0, 1
2, 2
1, 3
1, 2
1, 2
1, 0
1, 1
0, 3
1, 3
2, 1
3, 1
1, 2
1, 1
2, 1
2, 3
4, 1
2, 3
1, 1
2, 2
2, 4
2, 4
1, 6
3, 2
1, 1
1, 0
5, 4
2, 3
4, 1
0, 1
0, 0
2, 2
0, 1
3, 1
1, 0
0, 2
0, 0
1, 0
0, 2
1, 0
1, 0
2, 0
2, 5
1, 2
0, 1
0, 2
1, 3
2, 2
1, 3
1, 1
1, 4
0, 1
0, 2
3, 1
0, 3
1, 1
0, 0
2, 1
3, 4
1, 1
1, 2
1, 2
2, 2
0, 1
1, 0
0, 0
0, 1
0, 0
0, 0
0, 0
0, 0
0, 0
0, 0
4, 0
0, 2
1, 1
1, 0
2, 2
3, 0
0, 0
1, 0
0, 1
1, 0
0, 0
1, 1
1, 1
1, 0
0, 2
4, 0
2, 1
0, 1
0, 2
0, 3
0, 0
0, 1
0, 1
0, 1
1, 1
0, 2
2, 3
1, 0
0, 0
0, 0
2, 0
1, 2
0, 1
0, 2
1, 1
1, 0
1, 2
0, 0
1, 1
0, 0
0, 1
1, 1
0, 0
2, 0
0, 0
1, 0
2, 1
0, 1
0, 1
1, 0
0, 1
1, 1
0, 0
1, 0
0, 0
1, 0
0, 0
0, 1
0, 0
0, 1
0, 1
2, 0
0, 1
2, 0
2, 0
1, 0
0, 0
0, 0
0, 0
0, 0
1, 0
0, 0
0, 0
0, 0
1, 0
0, 0
1, 1
0, 0
1, 0
0, 3
0, 0
1, 0
0, 0
1, 1
0, 0
2, 1
2, 0
1, 3
0, 0
0, 0
0, 0
2, 0
0, 1
0, 0
0, 1
0, 1
0, 0
0, 1
0, 0
1, 2
1, 0
0, 0
1, 0
0, 0
0, 0
0, 0
0, 0
0, 1
0, 0
0, 0
0, 1
1, 0
0, 0
0, 0
1, 0
0, 1
1, 0
0, 2
0, 1
0, 1
1, 1
0, 0
1, 0
0, 0
0, 0
0, 0
0, 0
0, 2
0, 0
0, 1
1, 0
0, 1
0, 0
0, 0
0, 0
0, 0
0, 0
0, 1
1, 0
0, 1
0, 0
0, 0
1, 1
0, 0
0, 0
0, 0
0, 0
0, 0
0, 0
0, 0
0, 1
1, 1
0, 0
1, 0
1, 0
1, 0
0, 0
1, 0
0, 0
0, 0
1, 1
0, 1
0, 1
1, 0
0, 0
0, 0
0, 0
0, 0
1, 1
0, 0
0, 0
1, 0
0, 0
0, 1
0, 0
0, 1
0, 0
0, 1
1, 0
0, 0
0, 0
1, 1
0, 1
0, 0
0, 0
1, 1
0, 0
1, 0
1, 0
1, 0
0, 0
0, 0
0, 0
0, 1
0, 1
0, 0
0, 1
0, 0
0, 0
0, 0
0, 0
0, 0
1, 0
0, 0
0, 0
0, 0
0, 0
1, 0
0, 0
0, 0
0, 0
0, 0
0, 1
0, 1
0, 0
0, 0
0, 1
0, 0
0, 0
0, 0
1, 1
0, 0
0, 0
0, 1
0, 0
0, 0
1, 0
0, 0
0, 0
0, 0
0, 0
0, 0
0, 0
0, 0
0, 0
0, 1
0, 0
0, 0
1, 0
1, 0
0, 1
0, 0
0, 0
0, 0
0, 0
0, 2
0, 0
0, 0
0, 0
0, 0
0, 0
0, 0
0, 0
0, 0
1, 0
0, 0
0, 0
0, 0
0, 0
0, 0
0, 0
0, 0
0, 0
1, 0
0, 0
0, 0
0, 0
1, 0
0, 0
0, 0
0, 0
0, 0
0, 0
1, 0
0, 0
0, 0
0, 0
0, 0
0, 0
0, 0
0, 0
0, 0
0, 0
0, 0
1, 0
0, 0
0, 0
0, 0
0, 0
0, 0
0, 0
0, 0
0, 0
0, 0
0, 0
0, 0
0, 0
0, 0
0, 0
0, 0
0, 0
0, 0
0, 0
0, 0
0, 0
0, 0
0, 0
0, 0
0, 0
0, 0
0, 0
0, 0
1, 0
0, 0
0, 0
0, 0
0, 0
0, 0
0, 0
0, 0
0, 0
0, 0
0, 0
0, 0
0, 0
0, 0
0, 0
0, 0
0, 0
0, 0
0, 0
0, 0
0, 0
0, 0
0, 0
0, 0
0, 0
0, 0
0, 0
0, 0
0, 0
0, 0
0, 0
0, 0
0, 0
0, 0
0, 0
0, 0
0, 0
0, 0
0, 0
0, 0
0, 0
0, 0
0, 0
0, 0
0, 0
0, 0
0, 0
0, 0
0, 0
0, 0
0, 0
0, 0
0, 0
0, 0
0, 0
0, 0
0, 0
0, 0
0, 0
0, 0
0, 0
0, 0
0, 0
0, 0
1, 0
0, 0
1, 0
0, 0
0, 0
0, 0
0, 0
0, 0
0, 0
0, 0
0, 0
0, 0
0, 0
0, 0
0, 0
0, 0
0, 0
0, 0
0, 0
0, 1
0, 0
0, 0
0, 0
0, 0
0, 0
0, 0
0, 0
0, 0
0, 0
0, 0
0, 0
0, 0
0, 0
0, 0
0, 0
0, 0
0, 0
0, 0
0, 0
0, 0
0, 0
0, 0
0, 0
0, 0
0, 0
0, 0
0, 0
0, 0
0, 0
0, 0
0, 0
0, 0
0, 0
0, 0
0, 0
0, 0
0, 0
0, 0
0, 0
0, 0
0, 0
0, 0
0, 0
0, 0
0, 0
0, 0
0, 0
0, 0
0, 0
0, 0
0, 0
0, 0
0, 0
0, 0
0, 0
0, 0
0, 0
0, 0
0, 0
0, 0
0, 0
0, 0
0, 0
0, 0
0, 0
0, 0
0, 0
0, 0
0, 0
0, 0
0, 0
0, 0
0, 0
0, 0
0, 0
0, 0
0, 0
0, 0
0, 0
0, 0
0, 0
0, 0
0, 0
0, 0
0, 0
0, 0
0, 0
0, 0
0, 0
0, 0
0, 0
0, 0
0, 0
0, 0
0, 0
0, 0
0, 0
0, 0
0, 0
0, 0
0, 0
0, 0
0, 0
0, 0
0, 0
0, 0
0, 0
0, 0
0, 0
0, 0
0, 0
0, 0
0, 0
0, 0
0, 0
0, 0
0, 0
0, 0
0, 0
0, 0
0, 0
0, 0
0, 0
0, 0
0, 0
0, 0
0, 0
0, 0
0, 0
0, 0
0, 0
0, 0
0, 0
0, 0
0, 0
0, 0
0, 0
0, 0
0, 0
0, 0
0, 0
0, 0
0, 0
0, 0
0, 0
0, 0
0, 0
0, 0
0, 0
0, 0
0, 0
0, 0
0, 0
0, 0
0, 0
0, 0
0, 0
0, 0
0, 0
0, 0
0, 0
0, 0
0, 0
0, 0
0, 0
0, 0
0, 0
0, 0
0, 0
0, 0
0, 0
0, 0
0, 0
0, 0
0, 0
0, 0
0, 0
0, 0
0, 0
0, 0
0, 0
0, 0
0, 0
0, 0
0, 0
0, 0
0, 0
0, 0
0, 0
0, 0
0, 0
0, 0
0, 0
0, 0
0, 0
0, 0
0, 0
0, 0
0, 0
0, 0
0, 0
0, 0
0, 0
0, 0
0, 0
0, 0
0, 0
0, 0
0, 0
0, 0
0, 0
0, 0
0, 0
0, 0
0, 0
0, 0
0, 0
0, 0
0, 0
0, 0
0, 0
0, 0
0, 0
0, 0
0, 0
0, 0
0, 0
0, 0
0, 0
0, 0
0, 0
0, 0
0, 0
0, 0
0, 0
0, 0
0, 0
0, 0
0, 0
0, 0
0, 0
0, 0
0, 0
0, 0
0, 0
0, 0
0, 0
0, 0
0, 0
0, 0
0, 0
0, 0
0, 0
0, 0
0, 0
0, 0
0, 0
0, 0
0, 0
0, 0
0, 0
0, 0
0, 0
0, 0
0, 0
0, 0
0, 0
0, 0
0, 0
0, 0
0, 0
0, 0
0, 0
0, 0
0, 0
0, 0
0, 0
0, 0
0, 0
0, 0
0, 0
0, 0
0, 0
0, 0
0, 0
0, 0
0, 0
0, 0
0, 0
0, 0
0, 0
0, 0
0, 0
0, 0
0, 0
0, 0
0, 0
0, 0
0, 0
0, 0
0, 0
0, 0
0, 0
0, 0
0, 0
0, 0
0, 0
0, 0
0, 0
0, 0
0, 0
0, 0
0, 0
0, 0
0, 0
0, 0
0, 0
0, 0
0, 0
0, 0
0, 0
0, 0
0, 0
0, 0
0, 0
0, 0
0, 0
0, 0
0, 0
0, 0
0, 0
0, 0
0, 0
0, 0
0, 0
0, 0
0, 0
0, 0
0, 0
0, 0
0, 0
0, 0
0, 0
0, 0
0, 0
0, 0
0, 0
0, 0
0, 0
0, 0
#ENDOFDATA     end of spectrum data