File: host_upload/06-09-2024/ps_0852/dump3/ps__0852shot_2491.msa
#FORMAT      : EMSA/MAS spectral data file
#VERSION     : TC202v2.0 PIXL
#TITLE       : N/A
#DATE        :       Date in the format DD-MMM-YYYY, for example 07-JUL-2010
#TIME        :             The time of day at which the spectrum was recorded, in 24-hour format
#OWNER       : PIXL Flight Model       (PIXL will use this to indicate which instrument took the data.)
#NPOINTS     : 4096     Number of data points in the spectrum (This can be zero for configuration only files)
#NCOLUMNS    : 2     Number of data columns in the spectrum (This can be zero for configuration only files)
#XUNITS      : eV
#YUNITS      : COUNTS
#DATATYPE    : YY
#XPERCHAN    : 7.862, 7.881   eV per channel (separate by commas if more than one detector)
#OFFSET      : 18.5, -22.4         eV of first channel  (separate by commas if more than one detector
#SIGNALTYPE  : XRF
#YP_TEMP     : 2.62
#LIVETIME    : 8.53437, 8.57725   seconds (separate by commas if more than one detector)
#REALTIME    : 10, 10.0   seconds (separate by commas if more than one detector)
#SPECTRUM    : start of spectrum data
0, 0
0, 0
0, 0
0, 0
0, 0
0, 0
0, 0
0, 0
0, 0
0, 0
0, 0
0, 0
0, 0
0, 0
0, 0
0, 0
0, 0
0, 0
0, 0
0, 0
0, 0
0, 0
0, 0
0, 0
0, 0
0, 0
0, 0
0, 0
0, 0
0, 0
0, 0
0, 0
0, 0
1, 0
1, 0
1, 0
0, 0
0, 0
0, 0
0, 0
1, 1
3, 0
1, 2
1, 0
2, 2
2, 2
3, 1
5, 3
8, 7
6, 15
27, 19
44, 46
49, 73
84, 74
96, 106
85, 79
61, 57
38, 36
28, 23
22, 11
9, 3
3, 3
3, 4
3, 2
6, 2
2, 5
3, 9
11, 16
20, 24
39, 46
98, 110
154, 176
251, 269
356, 354
423, 402
389, 472
369, 393
281, 276
184, 176
118, 107
76, 79
38, 36
16, 22
9, 5
6, 5
2, 4
1, 2
2, 0
3, 2
5, 1
2, 2
1, 0
4, 2
1, 1
1, 5
5, 3
6, 4
2, 6
8, 5
6, 3
5, 8
3, 2
7, 4
2, 6
2, 2
2, 1
7, 2
5, 4
9, 10
10, 15
8, 18
22, 24
28, 25
38, 41
50, 37
38, 45
53, 46
50, 37
47, 33
73, 35
106, 18
120, 26
205, 26
228, 23
279, 15
271, 11
203, 17
168, 9
117, 9
66, 3
40, 7
24, 5
10, 3
7, 3
3, 1
1, 2
0, 2
3, 5
5, 0
2, 4
2, 2
4, 1
3, 1
3, 4
2, 3
0, 4
1, 1
0, 11
3, 12
1, 18
2, 18
3, 22
7, 37
11, 21
6, 28
12, 38
14, 29
20, 29
25, 23
10, 13
13, 12
11, 11
7, 7
7, 8
3, 3
8, 5
4, 5
6, 3
3, 4
5, 4
2, 8
3, 6
6, 5
5, 4
3, 2
4, 7
7, 7
4, 6
8, 5
10, 4
1, 7
3, 5
2, 14
3, 9
6, 8
8, 9
10, 5
12, 7
11, 7
19, 6
20, 8
37, 11
40, 11
46, 13
65, 16
76, 12
98, 14
81, 16
81, 17
69, 11
71, 19
41, 10
33, 14
24, 5
17, 16
5, 11
3, 3
8, 10
4, 3
2, 11
9, 14
4, 5
6, 8
9, 5
6, 8
7, 6
8, 6
6, 7
5, 5
5, 8
6, 4
9, 5
6, 7
6, 6
8, 9
8, 6
14, 15
14, 18
16, 16
12, 21
13, 26
21, 22
17, 16
23, 8
12, 11
14, 7
11, 8
10, 2
7, 9
7, 10
11, 6
13, 7
20, 18
31, 18
36, 24
55, 35
71, 49
105, 66
94, 91
104, 81
100, 97
102, 90
107, 117
76, 107
71, 104
38, 116
32, 128
24, 123
15, 109
20, 87
21, 82
34, 92
41, 85
76, 114
180, 239
299, 364
483, 608
738, 969
1184, 1300
1513, 1767
2006, 2221
2236, 2465
2439, 2473
2287, 2249
2047, 2008
1725, 1569
1257, 1045
975, 729
589, 408
320, 251
194, 115
120, 91
52, 41
37, 15
23, 15
17, 6
12, 15
15, 11
18, 16
19, 25
21, 26
34, 36
44, 58
61, 80
105, 109
162, 181
215, 223
213, 287
294, 340
319, 377
347, 373
349, 358
262, 273
230, 221
162, 163
120, 108
91, 73
57, 44
24, 23
18, 14
12, 12
11, 4
11, 10
10, 8
10, 6
18, 14
9, 24
22, 6
17, 26
16, 6
9, 7
15, 13
5, 6
10, 12
8, 3
5, 6
7, 4
8, 8
2, 3
3, 5
5, 5
2, 5
6, 3
3, 8
7, 5
5, 4
4, 1
7, 2
4, 1
7, 5
4, 5
7, 5
8, 2
5, 2
5, 3
3, 3
6, 8
8, 8
6, 8
7, 2
5, 6
3, 8
1, 4
3, 2
2, 3
2, 12
1, 2
3, 4
1, 5
3, 1
5, 3
7, 4
2, 6
1, 3
6, 7
4, 2
3, 2
7, 5
5, 7
3, 1
5, 1
2, 6
7, 4
2, 3
6, 3
6, 3
6, 5
4, 5
5, 4
6, 2
3, 2
7, 2
4, 2
7, 7
7, 2
9, 4
10, 3
9, 7
7, 6
11, 5
11, 5
14, 3
16, 0
16, 4
23, 2
16, 4
14, 8
10, 7
9, 4
6, 9
7, 2
6, 5
5, 7
3, 8
1, 8
3, 13
5, 6
2, 12
3, 11
3, 6
4, 9
3, 12
1, 10
2, 10
3, 3
1, 5
3, 6
3, 5
4, 3
1, 1
4, 6
4, 4
1, 2
4, 9
2, 2
3, 4
4, 5
3, 2
2, 3
2, 3
3, 2
2, 2
2, 2
2, 4
3, 3
4, 3
1, 0
7, 5
4, 2
2, 4
2, 4
3, 4
3, 5
2, 5
3, 2
3, 3
1, 4
3, 1
0, 2
4, 1
1, 5
8, 1
1, 3
3, 3
2, 4
4, 1
3, 3
3, 5
3, 2
0, 1
0, 0
1, 0
1, 2
6, 0
3, 0
5, 3
4, 4
2, 2
3, 0
2, 5
3, 6
2, 2
2, 4
2, 5
1, 2
2, 1
1, 4
6, 3
2, 3
1, 7
0, 2
1, 3
1, 2
0, 2
3, 2
3, 0
1, 0
0, 1
3, 7
3, 2
2, 1
2, 2
3, 2
1, 3
6, 1
3, 1
5, 3
3, 3
5, 2
3, 3
1, 5
3, 2
3, 1
1, 6
3, 6
4, 5
0, 2
2, 7
4, 4
1, 1
1, 4
3, 4
3, 3
2, 6
1, 4
4, 6
1, 5
1, 4
1, 5
4, 3
1, 3
0, 3
2, 2
6, 1
4, 4
0, 2
0, 3
0, 1
1, 2
4, 6
0, 1
1, 2
1, 1
0, 1
2, 0
2, 1
2, 4
3, 2
3, 3
2, 4
2, 7
2, 4
5, 4
4, 4
4, 2
2, 4
1, 3
1, 4
4, 3
1, 2
1, 2
0, 0
2, 3
7, 0
0, 0
2, 1
1, 0
1, 1
0, 0
0, 2
3, 1
3, 1
1, 2
1, 1
2, 1
3, 2
2, 4
2, 1
7, 5
4, 4
2, 0
3, 1
2, 2
5, 0
3, 1
1, 4
0, 3
2, 1
2, 2
3, 0
3, 2
1, 0
4, 3
0, 2
2, 2
3, 1
1, 1
1, 4
2, 1
0, 1
3, 3
2, 1
1, 0
1, 0
2, 3
1, 1
0, 1
1, 0
0, 0
4, 3
1, 2
2, 2
2, 1
1, 0
1, 2
4, 3
0, 2
0, 0
2, 2
0, 0
1, 1
1, 0
0, 0
2, 0
0, 0
0, 0
1, 2
0, 0
0, 0
0, 0
0, 1
2, 2
2, 2
2, 0
1, 0
0, 2
0, 0
0, 0
0, 0
0, 0
0, 2
0, 2
0, 1
0, 1
1, 0
3, 0
0, 2
1, 1
1, 0
2, 0
1, 2
0, 1
1, 0
0, 1
1, 0
0, 1
1, 1
0, 0
1, 0
2, 0
0, 1
0, 0
1, 0
1, 1
1, 2
0, 0
0, 1
0, 0
0, 3
0, 0
0, 0
1, 0
0, 1
0, 1
4, 1
0, 0
1, 1
1, 1
0, 0
0, 0
0, 1
1, 1
0, 0
1, 0
0, 0
0, 0
0, 0
1, 0
0, 0
1, 1
2, 0
0, 0
0, 1
1, 2
0, 0
0, 0
1, 1
0, 0
2, 0
1, 0
1, 0
0, 0
1, 0
0, 2
0, 0
0, 1
0, 1
0, 1
0, 0
0, 2
0, 1
0, 3
1, 0
1, 0
0, 0
0, 0
3, 1
1, 2
1, 1
0, 1
0, 0
0, 0
0, 0
1, 0
0, 0
0, 1
1, 0
1, 0
0, 0
0, 0
1, 0
2, 0
0, 1
0, 1
1, 0
0, 0
0, 0
0, 0
1, 1
0, 0
0, 1
0, 0
0, 1
0, 1
1, 0
0, 2
0, 0
0, 1
0, 0
1, 1
0, 0
0, 1
0, 0
0, 0
0, 0
2, 0
0, 0
0, 0
1, 0
1, 0
1, 0
1, 0
1, 0
1, 0
0, 0
0, 1
2, 0
0, 0
0, 0
0, 0
0, 0
0, 2
0, 0
0, 0
0, 0
0, 0
1, 0
0, 0
0, 0
1, 0
0, 1
0, 0
0, 3
0, 0
0, 0
0, 0
1, 0
0, 0
1, 1
1, 0
1, 0
1, 1
0, 0
0, 0
0, 1
0, 0
0, 0
0, 0
0, 1
0, 0
0, 0
1, 0
0, 0
1, 0
0, 0
1, 1
1, 1
0, 0
0, 0
0, 1
0, 0
0, 0
0, 0
0, 0
1, 1
0, 0
0, 0
0, 0
1, 0
0, 0
0, 0
0, 0
1, 0
0, 1
1, 0
0, 0
0, 0
0, 0
0, 0
1, 0
0, 0
0, 1
0, 0
0, 0
0, 0
0, 0
1, 0
1, 0
0, 0
1, 0
0, 0
0, 0
0, 0
0, 0
1, 0
1, 1
0, 0
1, 0
0, 0
0, 1
0, 0
0, 0
0, 0
0, 0
0, 0
1, 0
0, 0
0, 0
1, 0
0, 0
0, 1
0, 0
1, 0
0, 1
0, 0
0, 1
1, 0
0, 0
0, 1
0, 1
0, 0
0, 0
0, 0
0, 0
0, 0
0, 0
0, 0
0, 0
0, 0
0, 0
1, 0
0, 0
0, 0
0, 0
0, 0
0, 0
0, 0
0, 0
0, 0
0, 0
0, 0
0, 0
0, 0
1, 1
0, 0
0, 0
0, 0
0, 0
0, 0
0, 0
0, 0
1, 0
0, 0
0, 1
0, 0
0, 0
0, 0
0, 0
0, 0
0, 1
0, 0
0, 0
0, 0
0, 0
2, 0
0, 1
0, 0
0, 0
0, 0
1, 0
0, 0
0, 0
0, 0
0, 0
0, 0
0, 0
0, 0
0, 0
0, 0
0, 1
0, 0
1, 0
0, 0
0, 0
0, 0
0, 1
0, 0
0, 0
0, 0
0, 0
0, 0
0, 0
0, 1
0, 0
0, 0
0, 0
0, 0
0, 0
0, 0
0, 0
0, 0
0, 0
0, 0
0, 0
0, 0
0, 0
0, 0
0, 0
0, 0
0, 0
0, 0
0, 0
0, 0
0, 0
0, 0
0, 0
0, 0
0, 0
0, 0
0, 0
0, 1
0, 0
0, 0
0, 0
0, 0
0, 0
0, 0
0, 0
0, 0
0, 0
0, 0
0, 0
0, 0
0, 0
0, 0
0, 0
0, 0
0, 0
0, 0
0, 0
0, 0
0, 0
0, 0
0, 0
0, 0
0, 0
0, 0
0, 0
0, 0
0, 0
0, 0
0, 0
0, 0
0, 1
0, 0
0, 0
0, 0
0, 0
0, 0
0, 0
0, 0
0, 1
0, 0
0, 0
0, 0
0, 0
0, 0
0, 0
0, 0
0, 0
0, 0
0, 0
0, 0
0, 0
0, 0
0, 0
0, 0
0, 0
0, 0
0, 1
0, 0
0, 0
0, 0
0, 0
0, 0
0, 0
0, 0
0, 0
0, 0
0, 0
0, 0
0, 0
0, 0
0, 0
0, 0
0, 0
0, 0
0, 0
0, 0
0, 0
0, 0
0, 0
0, 0
0, 0
0, 0
0, 0
0, 0
0, 0
0, 0
0, 0
0, 0
0, 0
0, 0
0, 0
0, 0
0, 0
0, 0
0, 0
0, 0
0, 0
0, 0
0, 0
0, 0
0, 0
0, 0
0, 0
0, 0
0, 0
0, 0
0, 0
0, 0
0, 0
0, 0
0, 0
0, 0
0, 0
0, 0
0, 0
0, 0
0, 0
0, 0
0, 0
0, 0
0, 0
0, 0
0, 0
0, 0
0, 0
0, 0
0, 0
0, 0
0, 0
0, 0
0, 0
0, 0
0, 0
0, 0
0, 0
0, 0
0, 0
0, 0
0, 0
0, 0
0, 0
0, 0
0, 0
0, 0
0, 0
0, 0
0, 0
0, 0
0, 0
0, 0
0, 0
0, 0
0, 0
0, 0
0, 0
0, 0
0, 0
0, 0
0, 0
0, 0
0, 0
0, 0
0, 0
0, 0
0, 0
0, 0
0, 0
0, 0
0, 0
0, 0
0, 0
0, 0
0, 0
0, 0
0, 0
0, 0
0, 0
0, 0
0, 0
0, 0
0, 0
0, 0
0, 0
0, 0
0, 0
0, 0
0, 0
0, 0
0, 0
0, 0
0, 0
0, 0
0, 0
0, 0
0, 0
0, 0
0, 0
0, 0
0, 0
0, 0
0, 0
0, 0
0, 0
0, 0
0, 0
0, 0
0, 0
0, 0
0, 0
0, 0
0, 0
0, 0
0, 0
0, 0
0, 0
0, 0
0, 0
0, 0
0, 0
0, 0
0, 0
0, 0
0, 0
0, 0
0, 0
0, 0
0, 0
0, 0
0, 0
0, 0
0, 0
0, 0
0, 0
0, 0
0, 0
0, 0
0, 0
0, 0
0, 0
0, 0
0, 0
0, 0
0, 0
0, 0
0, 0
0, 0
0, 0
0, 0
0, 0
0, 0
0, 0
0, 0
0, 0
0, 0
0, 0
0, 0
0, 0
0, 0
0, 0
0, 0
0, 0
0, 0
0, 0
0, 0
0, 0
0, 0
0, 0
0, 0
0, 0
0, 0
0, 0
0, 0
0, 0
0, 0
0, 0
0, 0
0, 0
0, 0
0, 0
0, 0
0, 0
0, 0
0, 0
0, 0
0, 0
0, 0
0, 0
0, 0
0, 0
0, 0
0, 0
0, 0
0, 0
0, 0
0, 0
0, 0
0, 0
0, 0
0, 0
0, 0
0, 0
0, 0
0, 0
0, 0
0, 0
0, 0
0, 0
0, 0
0, 0
0, 0
0, 0
0, 0
0, 0
0, 0
0, 0
0, 0
0, 0
0, 0
0, 0
0, 0
0, 0
0, 0
0, 0
0, 0
0, 0
0, 0
0, 0
0, 0
0, 0
0, 0
0, 0
0, 0
0, 0
0, 0
0, 0
0, 0
0, 0
0, 0
0, 0
0, 0
0, 0
0, 0
0, 0
0, 0
0, 0
0, 0
0, 0
0, 0
0, 0
0, 0
0, 0
0, 0
0, 0
0, 0
0, 0
0, 0
0, 0
0, 0
0, 0
0, 0
0, 0
0, 0
0, 0
0, 0
0, 0
0, 0
0, 0
0, 0
0, 0
0, 0
0, 0
0, 0
0, 0
0, 0
0, 0
0, 0
0, 0
0, 0
0, 0
0, 0
0, 0
0, 0
0, 0
0, 0
0, 0
0, 0
0, 0
0, 0
0, 0
0, 0
0, 0
0, 0
0, 0
0, 0
0, 0
0, 0
0, 0
0, 0
0, 0
0, 0
0, 0
0, 0
0, 0
#ENDOFDATA     end of spectrum data