File: host_upload/06-09-2024/ps_0852/dump3/ps__0852shot_2340.msa
#FORMAT      : EMSA/MAS spectral data file
#VERSION     : TC202v2.0 PIXL
#TITLE       : N/A
#DATE        :       Date in the format DD-MMM-YYYY, for example 07-JUL-2010
#TIME        :             The time of day at which the spectrum was recorded, in 24-hour format
#OWNER       : PIXL Flight Model       (PIXL will use this to indicate which instrument took the data.)
#NPOINTS     : 4096     Number of data points in the spectrum (This can be zero for configuration only files)
#NCOLUMNS    : 2     Number of data columns in the spectrum (This can be zero for configuration only files)
#XUNITS      : eV
#YUNITS      : COUNTS
#DATATYPE    : YY
#XPERCHAN    : 7.862, 7.881   eV per channel (separate by commas if more than one detector)
#OFFSET      : 18.5, -22.4         eV of first channel  (separate by commas if more than one detector
#SIGNALTYPE  : XRF
#YP_TEMP     : 2.171
#LIVETIME    : 8.60598, 8.53759   seconds (separate by commas if more than one detector)
#REALTIME    : 10, 10.0   seconds (separate by commas if more than one detector)
#SPECTRUM    : start of spectrum data
0, 0
0, 0
0, 0
0, 0
0, 0
0, 0
0, 0
0, 0
0, 0
0, 0
0, 0
0, 0
0, 0
0, 0
0, 0
0, 0
0, 0
0, 0
0, 0
0, 0
0, 0
0, 0
0, 0
0, 0
0, 0
0, 0
0, 0
0, 0
0, 0
0, 2
0, 0
0, 0
1, 0
1, 0
1, 0
2, 1
1, 2
0, 1
2, 2
1, 5
0, 3
2, 2
3, 4
5, 3
2, 5
4, 3
2, 5
4, 5
3, 2
11, 11
17, 16
32, 24
38, 50
54, 50
54, 47
59, 54
53, 33
23, 24
21, 16
17, 10
4, 1
6, 6
5, 1
3, 4
7, 3
8, 4
3, 8
4, 7
14, 12
29, 25
38, 56
75, 106
122, 134
168, 182
200, 241
214, 211
183, 161
149, 134
103, 87
70, 55
26, 38
16, 21
12, 14
5, 5
8, 3
4, 3
2, 4
5, 8
9, 7
11, 5
11, 11
23, 24
43, 53
113, 113
181, 191
329, 332
430, 506
570, 657
749, 769
720, 740
619, 649
543, 514
371, 365
255, 257
131, 129
118, 122
71, 95
72, 84
70, 83
77, 109
96, 98
117, 109
117, 147
142, 130
114, 157
116, 118
93, 95
90, 94
78, 82
51, 56
46, 59
38, 48
36, 26
29, 36
30, 32
25, 29
24, 21
23, 15
17, 20
15, 10
8, 8
7, 7
6, 8
7, 8
11, 1
1, 4
9, 10
6, 8
13, 15
21, 19
21, 31
17, 21
17, 16
19, 21
16, 7
9, 13
8, 14
2, 4
3, 8
3, 6
4, 7
8, 7
18, 16
28, 26
29, 43
39, 39
28, 52
48, 57
48, 59
29, 48
28, 48
32, 34
12, 24
2, 16
6, 7
7, 9
8, 7
5, 6
5, 18
11, 8
13, 11
5, 17
10, 12
8, 11
8, 7
16, 8
9, 5
12, 5
14, 9
18, 4
5, 6
5, 7
6, 4
7, 11
6, 11
8, 13
2, 11
5, 12
8, 11
8, 7
7, 9
11, 11
9, 15
11, 12
13, 14
8, 16
11, 18
10, 13
17, 18
21, 9
5, 14
16, 10
9, 12
12, 7
7, 9
8, 21
9, 12
4, 20
2, 20
11, 20
14, 16
7, 25
6, 22
4, 15
5, 15
4, 15
5, 6
10, 10
12, 7
7, 10
8, 8
10, 4
7, 10
11, 8
16, 4
12, 11
14, 14
13, 18
13, 30
23, 24
33, 21
34, 44
41, 37
46, 40
48, 32
38, 41
30, 32
38, 38
20, 19
22, 28
16, 19
14, 16
5, 21
13, 17
11, 22
15, 23
21, 39
35, 37
39, 44
46, 52
51, 67
59, 79
47, 54
53, 62
45, 44
44, 30
24, 24
13, 22
9, 12
13, 21
30, 18
25, 39
43, 54
79, 97
146, 178
245, 317
421, 564
722, 904
1047, 1264
1463, 1729
1842, 2094
2170, 2239
2193, 2380
2159, 2243
1949, 1753
1586, 1479
1187, 1071
858, 672
567, 464
296, 270
174, 117
99, 62
54, 34
29, 26
21, 21
18, 17
20, 14
9, 19
14, 23
18, 13
26, 29
26, 46
58, 48
65, 80
95, 126
138, 168
205, 231
230, 280
290, 356
295, 336
321, 340
315, 322
280, 270
233, 217
177, 155
128, 108
94, 72
51, 32
22, 20
20, 16
10, 11
10, 9
7, 10
5, 16
8, 8
11, 11
14, 11
11, 9
15, 13
25, 21
24, 9
32, 6
40, 13
46, 7
58, 5
46, 8
42, 12
30, 10
25, 15
18, 15
16, 18
8, 10
11, 12
4, 16
4, 11
4, 9
6, 6
4, 6
7, 8
13, 5
8, 3
10, 9
5, 7
8, 5
9, 3
8, 6
12, 5
4, 5
5, 8
2, 1
5, 8
9, 9
10, 5
10, 2
3, 4
5, 4
3, 3
2, 5
2, 2
1, 4
4, 2
6, 3
4, 5
8, 9
8, 5
7, 6
2, 9
5, 7
9, 10
6, 6
4, 5
8, 4
5, 5
4, 3
10, 6
5, 2
6, 7
9, 7
12, 2
8, 4
10, 6
5, 5
6, 4
7, 5
2, 7
7, 3
3, 4
5, 2
1, 7
2, 7
3, 7
6, 6
0, 6
5, 13
4, 7
5, 10
6, 8
5, 6
2, 8
1, 4
7, 10
3, 8
7, 6
7, 5
3, 3
9, 4
2, 2
9, 4
11, 7
3, 9
6, 6
8, 5
5, 8
7, 13
9, 6
6, 7
5, 6
5, 13
3, 12
3, 18
6, 11
4, 8
1, 10
6, 10
5, 8
7, 7
7, 8
8, 8
10, 8
10, 7
2, 7
5, 3
8, 4
6, 3
6, 2
8, 2
5, 7
5, 5
0, 4
5, 6
3, 1
5, 5
2, 5
3, 7
5, 3
0, 2
5, 4
5, 2
2, 1
4, 4
3, 3
2, 4
2, 3
4, 2
2, 5
0, 4
4, 2
3, 0
6, 1
2, 2
2, 4
2, 7
6, 6
2, 1
7, 2
8, 6
8, 3
9, 1
8, 4
11, 0
6, 0
4, 4
6, 4
7, 5
6, 1
7, 0
2, 2
4, 5
3, 2
4, 1
8, 1
2, 2
2, 1
4, 3
2, 3
4, 4
4, 4
3, 1
2, 0
2, 4
1, 0
0, 2
2, 3
1, 1
4, 1
0, 2
1, 2
2, 2
0, 2
3, 1
1, 2
2, 0
1, 5
3, 3
2, 2
0, 2
3, 1
0, 2
1, 2
0, 3
2, 2
1, 5
1, 2
3, 3
7, 1
3, 4
5, 2
4, 2
5, 3
0, 2
2, 0
3, 3
2, 2
1, 3
1, 2
1, 2
3, 1
2, 4
0, 3
2, 1
3, 2
3, 1
2, 2
3, 2
3, 2
0, 2
1, 0
2, 4
3, 3
1, 7
4, 3
7, 2
2, 1
2, 1
5, 3
1, 4
7, 2
3, 2
4, 1
1, 0
5, 1
2, 3
2, 1
1, 0
1, 1
0, 0
1, 1
0, 5
0, 1
2, 3
1, 2
3, 1
1, 1
3, 3
0, 3
1, 1
1, 3
0, 1
4, 4
5, 2
1, 1
0, 4
1, 1
3, 3
2, 2
1, 3
4, 2
3, 2
1, 2
0, 3
2, 1
1, 1
1, 2
0, 0
0, 0
1, 2
2, 4
3, 1
2, 2
1, 1
0, 3
0, 2
1, 0
2, 0
0, 0
1, 4
2, 2
2, 3
0, 1
1, 0
2, 3
1, 2
1, 5
0, 2
2, 2
1, 2
1, 1
0, 1
3, 0
2, 2
0, 1
1, 0
2, 0
1, 0
0, 0
1, 3
0, 1
0, 2
0, 0
2, 1
0, 1
0, 0
0, 2
0, 2
0, 0
0, 1
1, 0
1, 0
1, 0
1, 0
1, 0
0, 1
1, 0
0, 1
0, 0
0, 0
1, 1
0, 0
1, 1
0, 1
0, 0
1, 1
1, 0
1, 0
1, 0
0, 0
0, 0
1, 1
1, 1
0, 2
0, 1
0, 0
1, 0
1, 2
1, 0
0, 0
1, 1
1, 1
3, 1
0, 1
0, 2
2, 0
0, 0
1, 1
0, 4
0, 2
0, 0
0, 0
0, 0
0, 0
0, 0
0, 1
2, 0
4, 1
0, 1
1, 0
2, 1
2, 1
1, 0
1, 1
0, 2
0, 0
1, 1
0, 0
1, 0
1, 0
1, 0
0, 1
0, 0
1, 0
1, 0
0, 0
1, 0
1, 1
0, 1
0, 1
1, 0
1, 1
0, 2
0, 1
0, 3
0, 0
0, 1
0, 2
0, 1
0, 0
0, 0
1, 0
1, 0
0, 0
1, 0
0, 0
0, 0
0, 0
1, 0
0, 2
0, 0
0, 1
0, 0
0, 0
0, 1
0, 1
1, 0
3, 0
0, 0
0, 1
0, 0
0, 0
1, 0
0, 0
0, 0
2, 0
0, 0
0, 0
1, 0
0, 0
0, 0
0, 0
2, 1
1, 1
0, 0
0, 1
0, 0
0, 0
1, 1
0, 0
0, 1
0, 1
0, 2
0, 2
0, 0
0, 0
0, 1
0, 0
0, 0
0, 0
0, 2
0, 0
0, 0
0, 0
0, 1
0, 1
0, 0
0, 0
0, 0
0, 0
0, 0
0, 0
0, 0
1, 0
1, 0
0, 0
0, 0
0, 0
0, 0
1, 0
2, 1
0, 0
0, 0
0, 0
0, 0
0, 0
0, 0
1, 0
0, 0
0, 0
0, 0
0, 1
0, 1
1, 0
1, 1
0, 0
0, 0
0, 1
0, 0
1, 0
0, 1
0, 0
0, 0
0, 1
0, 1
0, 0
0, 0
0, 0
0, 1
0, 0
0, 0
0, 0
2, 0
0, 0
0, 0
1, 0
0, 0
0, 0
0, 0
0, 0
1, 0
0, 0
0, 0
0, 0
0, 1
0, 0
0, 1
0, 0
0, 0
0, 0
0, 1
0, 0
0, 1
0, 1
0, 1
0, 0
0, 0
0, 0
0, 0
0, 0
1, 0
1, 0
0, 0
0, 0
0, 0
1, 0
0, 1
0, 0
0, 0
0, 0
0, 0
1, 0
1, 0
0, 0
1, 0
0, 0
0, 1
1, 0
0, 0
0, 1
0, 0
0, 0
0, 1
0, 0
0, 0
0, 0
0, 1
0, 0
0, 0
0, 0
0, 0
0, 0
0, 1
0, 0
0, 0
0, 0
0, 0
0, 0
0, 0
0, 0
0, 0
0, 0
0, 0
0, 0
0, 0
0, 1
0, 0
0, 0
0, 0
0, 0
0, 0
0, 0
0, 0
0, 0
0, 0
0, 0
0, 1
0, 0
0, 0
0, 0
1, 0
0, 0
0, 0
0, 0
0, 0
0, 0
0, 0
0, 0
0, 0
0, 0
0, 0
0, 0
0, 0
0, 0
0, 0
0, 0
0, 0
0, 0
0, 0
0, 0
0, 0
0, 0
0, 0
0, 0
0, 0
0, 0
0, 0
0, 0
0, 0
0, 0
0, 0
0, 0
0, 0
0, 0
0, 0
1, 0
0, 1
0, 0
0, 0
0, 0
0, 0
1, 0
1, 0
1, 0
0, 1
0, 0
0, 0
0, 0
0, 0
0, 0
0, 0
0, 0
0, 0
0, 0
0, 0
0, 1
0, 0
0, 0
0, 0
0, 1
0, 0
0, 0
0, 0
0, 0
0, 0
0, 0
0, 0
0, 0
0, 0
0, 0
0, 0
0, 0
0, 0
0, 0
0, 0
0, 0
0, 0
0, 0
0, 0
0, 0
0, 0
0, 0
0, 0
0, 0
0, 0
0, 0
0, 0
0, 0
0, 0
0, 0
0, 0
0, 0
0, 0
0, 0
0, 0
0, 0
0, 0
0, 0
0, 0
0, 0
0, 0
0, 0
0, 0
0, 0
0, 0
0, 0
0, 0
0, 0
0, 0
0, 0
0, 0
0, 0
0, 0
0, 0
0, 0
0, 0
0, 0
0, 0
0, 0
0, 0
1, 0
0, 0
0, 0
0, 0
0, 0
0, 0
0, 0
0, 0
0, 0
0, 0
0, 0
0, 0
0, 0
0, 0
0, 0
0, 0
0, 0
0, 0
0, 0
0, 0
0, 0
0, 0
0, 0
0, 0
0, 0
0, 0
0, 0
0, 0
0, 0
0, 0
0, 0
0, 0
0, 0
0, 0
0, 0
0, 0
0, 0
0, 0
0, 0
0, 0
0, 0
0, 0
0, 0
0, 0
0, 0
0, 0
0, 0
0, 0
0, 0
0, 0
0, 0
0, 0
0, 0
0, 0
0, 0
0, 0
0, 0
0, 0
0, 0
0, 0
0, 0
0, 0
0, 0
0, 0
0, 0
0, 0
0, 0
0, 0
0, 0
0, 0
0, 0
0, 0
0, 0
0, 0
0, 0
0, 0
0, 0
0, 0
0, 0
0, 0
0, 0
0, 0
0, 0
0, 0
0, 0
0, 0
0, 0
0, 0
0, 0
0, 0
0, 0
0, 0
0, 0
0, 0
0, 0
0, 0
0, 0
0, 0
0, 0
0, 0
0, 0
0, 0
0, 0
0, 0
0, 0
0, 0
0, 0
0, 0
0, 0
0, 0
0, 0
0, 0
0, 0
0, 0
0, 0
0, 0
0, 0
0, 0
0, 0
0, 0
0, 0
0, 0
0, 0
0, 0
0, 0
0, 0
0, 0
0, 0
0, 0
0, 0
0, 0
0, 0
0, 0
0, 0
0, 0
0, 0
0, 0
0, 0
0, 0
0, 0
0, 0
0, 0
0, 0
0, 0
0, 0
0, 0
0, 0
0, 0
0, 0
0, 0
0, 0
0, 0
0, 0
0, 0
0, 0
0, 0
0, 0
0, 0
0, 0
0, 0
0, 0
0, 0
0, 0
0, 0
0, 0
0, 0
0, 0
0, 0
0, 0
0, 0
0, 0
0, 0
0, 0
0, 0
0, 0
0, 0
0, 0
0, 0
0, 0
0, 0
0, 0
0, 0
0, 0
0, 0
0, 0
0, 0
0, 0
0, 0
0, 0
0, 0
0, 0
0, 0
0, 0
0, 0
0, 0
0, 0
0, 0
0, 0
0, 0
0, 0
0, 0
0, 0
0, 0
0, 0
0, 0
0, 0
0, 0
0, 0
0, 0
0, 0
0, 0
0, 0
0, 0
0, 0
0, 0
0, 0
0, 0
0, 0
0, 0
0, 0
0, 0
0, 0
0, 0
0, 0
0, 0
0, 0
0, 0
0, 0
0, 0
0, 0
0, 0
0, 0
0, 0
0, 0
0, 0
0, 0
0, 0
0, 0
0, 0
0, 0
0, 0
0, 0
0, 0
0, 0
0, 0
0, 0
0, 0
0, 0
0, 0
0, 0
0, 0
0, 0
0, 0
0, 0
0, 0
0, 0
0, 0
0, 0
0, 0
0, 0
0, 0
0, 0
0, 0
0, 0
0, 0
0, 0
0, 0
0, 0
0, 0
0, 0
0, 0
0, 0
0, 0
0, 0
0, 0
0, 0
0, 0
0, 0
0, 0
0, 0
0, 0
0, 0
0, 0
0, 0
0, 0
0, 0
0, 0
0, 0
0, 0
0, 0
0, 0
0, 0
0, 0
0, 0
0, 0
0, 0
0, 0
0, 0
0, 0
0, 0
0, 0
0, 0
0, 0
0, 0
0, 0
0, 0
0, 0
0, 0
0, 0
0, 0
0, 0
0, 0
0, 0
0, 0
0, 0
0, 0
0, 0
0, 0
0, 0
0, 0
0, 0
0, 0
0, 0
0, 0
0, 0
0, 0
0, 0
0, 0
0, 0
0, 0
0, 0
0, 0
0, 0
0, 0
0, 0
0, 0
0, 0
0, 0
0, 0
0, 0
0, 0
0, 0
0, 0
0, 0
0, 0
0, 0
0, 0
0, 0
0, 0
0, 0
#ENDOFDATA     end of spectrum data