File: host_upload/06-09-2024/ps_0852/dump3/ps__0852shot_2425.msa
#FORMAT      : EMSA/MAS spectral data file
#VERSION     : TC202v2.0 PIXL
#TITLE       : N/A
#DATE        :       Date in the format DD-MMM-YYYY, for example 07-JUL-2010
#TIME        :             The time of day at which the spectrum was recorded, in 24-hour format
#OWNER       : PIXL Flight Model       (PIXL will use this to indicate which instrument took the data.)
#NPOINTS     : 4096     Number of data points in the spectrum (This can be zero for configuration only files)
#NCOLUMNS    : 2     Number of data columns in the spectrum (This can be zero for configuration only files)
#XUNITS      : eV
#YUNITS      : COUNTS
#DATATYPE    : YY
#XPERCHAN    : 7.862, 7.881   eV per channel (separate by commas if more than one detector)
#OFFSET      : 18.5, -22.4         eV of first channel  (separate by commas if more than one detector
#SIGNALTYPE  : XRF
#YP_TEMP     : 2.3
#LIVETIME    : 8.54485, 8.5582   seconds (separate by commas if more than one detector)
#REALTIME    : 10, 10.0   seconds (separate by commas if more than one detector)
#SPECTRUM    : start of spectrum data
0, 0
0, 0
0, 0
0, 0
0, 0
0, 0
0, 0
0, 0
0, 0
0, 0
0, 0
0, 0
0, 0
0, 0
0, 0
0, 0
0, 0
0, 0
0, 0
0, 0
0, 0
0, 0
0, 0
0, 0
0, 0
0, 0
0, 0
0, 0
0, 0
0, 0
0, 0
0, 0
0, 0
0, 0
0, 1
1, 1
0, 0
3, 1
1, 0
0, 1
2, 1
1, 0
2, 0
2, 1
2, 0
1, 1
5, 0
4, 2
4, 1
12, 8
28, 19
32, 48
71, 59
83, 88
102, 102
84, 71
61, 80
42, 43
22, 24
18, 18
6, 6
9, 1
4, 1
0, 4
3, 4
4, 5
6, 6
17, 8
30, 25
55, 56
86, 100
166, 202
218, 274
359, 356
416, 391
393, 399
399, 357
272, 270
231, 210
120, 127
69, 80
24, 31
19, 13
12, 10
4, 1
5, 6
1, 4
2, 1
1, 1
2, 0
1, 1
1, 1
2, 0
0, 0
1, 1
1, 1
3, 2
1, 2
2, 5
2, 2
4, 2
3, 2
1, 1
1, 2
2, 1
3, 2
3, 3
5, 2
7, 9
12, 9
27, 19
31, 21
57, 36
59, 43
78, 43
88, 62
68, 44
75, 42
57, 36
35, 33
29, 30
22, 25
16, 25
12, 34
8, 32
8, 31
13, 18
15, 17
6, 13
4, 6
7, 3
0, 4
1, 3
3, 2
4, 3
3, 3
0, 0
1, 1
2, 2
0, 2
0, 2
0, 3
1, 2
0, 1
5, 1
3, 3
2, 0
3, 0
4, 1
3, 1
4, 3
4, 3
4, 3
6, 4
2, 14
12, 18
13, 11
16, 16
15, 14
15, 12
18, 12
14, 7
13, 4
11, 3
8, 5
9, 6
10, 1
3, 2
7, 1
5, 3
6, 4
5, 5
2, 8
3, 4
3, 5
4, 5
4, 6
3, 2
5, 1
2, 3
4, 2
1, 6
5, 2
3, 3
4, 2
2, 4
5, 4
2, 7
6, 13
7, 19
15, 20
17, 29
14, 32
12, 40
10, 20
19, 32
12, 21
13, 33
25, 18
15, 15
8, 9
8, 10
6, 7
4, 13
5, 4
5, 6
5, 7
2, 7
7, 2
9, 7
2, 5
5, 6
8, 5
6, 4
4, 3
4, 7
6, 8
12, 7
10, 8
9, 5
15, 6
18, 5
19, 4
34, 10
29, 4
39, 8
46, 13
49, 14
34, 15
27, 13
25, 10
22, 12
22, 16
12, 16
11, 20
8, 25
5, 28
3, 41
5, 66
3, 79
7, 95
6, 122
8, 124
8, 124
16, 106
21, 110
28, 88
33, 78
39, 81
53, 81
68, 68
49, 64
50, 54
48, 61
29, 49
39, 17
28, 18
28, 18
21, 19
18, 12
17, 20
21, 28
40, 55
58, 91
151, 193
259, 381
443, 571
775, 936
1057, 1355
1539, 1818
1939, 2191
2268, 2482
2297, 2561
2270, 2260
1965, 1987
1651, 1627
1268, 1162
917, 725
574, 451
308, 279
211, 148
102, 97
72, 36
33, 34
30, 13
22, 14
20, 4
17, 13
20, 14
20, 18
27, 29
21, 35
30, 81
60, 75
110, 127
121, 152
198, 224
201, 297
293, 349
360, 373
330, 365
347, 351
302, 296
228, 216
181, 160
114, 100
80, 92
54, 71
27, 42
15, 71
9, 46
7, 59
1, 62
9, 74
5, 54
4, 52
15, 48
13, 32
14, 28
10, 25
10, 17
8, 12
9, 11
7, 8
5, 4
4, 9
5, 6
4, 4
4, 3
5, 2
0, 1
6, 3
4, 2
6, 5
3, 3
8, 5
3, 4
9, 9
11, 4
8, 6
13, 2
8, 2
7, 5
5, 3
8, 7
7, 4
6, 9
8, 9
2, 9
6, 3
5, 7
5, 6
4, 3
5, 8
4, 5
1, 10
3, 5
0, 5
2, 6
1, 8
5, 10
2, 14
4, 11
1, 15
8, 15
4, 14
2, 9
5, 15
4, 10
1, 6
4, 8
3, 5
4, 11
4, 8
2, 5
4, 0
1, 2
4, 3
4, 6
1, 4
4, 7
3, 5
3, 6
4, 5
1, 8
3, 3
6, 4
8, 5
9, 3
7, 5
13, 3
20, 1
16, 3
16, 2
18, 1
15, 2
20, 7
20, 2
11, 1
11, 4
9, 1
8, 2
6, 0
6, 4
3, 4
7, 3
2, 0
3, 4
2, 4
3, 2
2, 4
2, 3
4, 2
2, 3
4, 5
1, 4
5, 7
0, 6
1, 0
3, 4
2, 5
2, 3
3, 4
3, 7
2, 12
2, 3
3, 12
6, 7
5, 9
6, 17
3, 13
2, 28
1, 13
4, 21
0, 13
0, 7
3, 13
4, 7
3, 6
4, 4
2, 2
3, 2
7, 2
6, 1
2, 1
6, 4
7, 0
6, 3
11, 0
5, 4
8, 2
8, 3
8, 2
3, 3
5, 1
3, 4
6, 3
6, 2
1, 3
0, 1
2, 1
0, 0
1, 2
3, 2
1, 3
1, 1
3, 3
2, 1
0, 4
0, 1
3, 1
2, 3
3, 3
0, 3
1, 0
0, 1
0, 2
3, 0
8, 3
0, 4
2, 5
2, 2
2, 2
2, 3
1, 2
1, 2
1, 3
4, 5
1, 3
1, 4
2, 3
3, 1
1, 1
3, 3
1, 2
8, 0
5, 2
2, 2
3, 4
3, 1
1, 1
2, 1
5, 0
4, 1
2, 2
1, 6
7, 2
7, 2
2, 5
4, 4
2, 4
0, 5
2, 0
3, 1
2, 1
3, 1
3, 1
2, 5
1, 3
2, 1
1, 1
1, 2
2, 3
1, 0
1, 4
0, 1
0, 0
1, 1
1, 4
3, 2
1, 2
1, 0
3, 2
4, 1
3, 3
0, 1
3, 3
0, 5
2, 7
3, 4
2, 6
1, 5
1, 6
5, 4
0, 6
1, 3
2, 3
2, 1
3, 5
2, 1
1, 3
1, 1
0, 2
4, 0
1, 3
1, 3
0, 1
1, 2
4, 2
3, 1
2, 2
0, 1
2, 0
1, 0
3, 0
2, 1
2, 1
2, 1
3, 3
1, 2
0, 1
1, 0
3, 3
3, 0
2, 1
1, 2
1, 1
4, 3
2, 1
1, 0
1, 0
1, 0
0, 4
2, 1
3, 2
0, 1
1, 2
0, 2
3, 2
0, 1
2, 1
2, 1
1, 0
1, 1
0, 1
3, 2
0, 0
1, 1
1, 0
0, 3
1, 2
0, 1
0, 0
1, 1
3, 0
1, 0
1, 0
1, 1
0, 0
1, 1
0, 0
0, 1
2, 2
1, 2
0, 0
0, 3
0, 1
0, 0
0, 1
0, 3
1, 2
1, 2
0, 1
1, 4
0, 1
0, 0
1, 2
1, 1
0, 1
2, 3
1, 4
2, 2
0, 2
0, 2
1, 0
1, 0
0, 0
1, 1
0, 0
1, 1
1, 2
1, 0
0, 0
1, 2
0, 1
1, 0
2, 0
0, 1
0, 1
1, 0
0, 0
0, 2
4, 0
0, 0
0, 1
0, 1
1, 0
0, 1
0, 0
2, 3
3, 1
2, 0
0, 0
0, 1
0, 0
1, 0
2, 0
0, 1
0, 1
0, 0
0, 2
1, 0
0, 2
0, 3
2, 1
1, 0
1, 1
1, 0
1, 0
0, 0
0, 1
1, 0
1, 1
1, 1
0, 4
0, 0
0, 0
0, 0
0, 0
0, 0
0, 1
0, 0
0, 1
0, 0
0, 0
0, 0
0, 0
0, 0
1, 0
0, 1
0, 0
1, 0
0, 0
0, 0
1, 0
0, 1
0, 1
1, 0
0, 1
1, 0
1, 0
0, 0
0, 0
0, 0
0, 0
0, 0
0, 0
1, 1
0, 0
0, 0
1, 0
0, 3
0, 1
0, 0
4, 0
0, 0
0, 0
2, 0
0, 0
1, 0
0, 2
1, 0
0, 0
1, 1
0, 0
0, 0
0, 1
0, 0
1, 0
0, 0
3, 0
0, 0
0, 0
0, 0
1, 0
1, 0
0, 1
0, 2
0, 0
0, 0
1, 1
0, 0
0, 0
0, 2
0, 0
0, 0
0, 0
0, 0
0, 1
0, 0
0, 0
0, 0
0, 0
0, 0
0, 0
1, 0
1, 0
0, 0
0, 0
0, 0
0, 0
0, 0
0, 1
2, 0
2, 1
0, 0
0, 0
1, 0
0, 0
0, 0
0, 0
0, 0
0, 0
0, 0
0, 0
0, 0
1, 0
0, 1
1, 0
0, 0
1, 0
1, 0
1, 0
1, 0
1, 1
0, 0
0, 1
0, 0
0, 0
1, 0
0, 0
0, 1
0, 0
0, 0
0, 0
0, 0
0, 0
0, 0
1, 0
0, 1
0, 1
1, 0
0, 0
0, 0
0, 0
0, 0
0, 1
0, 0
0, 0
0, 0
0, 0
0, 0
1, 1
0, 1
1, 0
0, 0
0, 0
0, 0
0, 0
0, 1
0, 0
0, 0
0, 0
1, 1
0, 0
0, 0
0, 0
0, 0
0, 0
0, 0
0, 1
0, 0
0, 0
1, 0
0, 0
0, 0
1, 0
0, 0
0, 0
0, 0
0, 0
0, 0
0, 0
1, 0
0, 0
0, 1
0, 1
0, 0
0, 1
0, 0
1, 0
0, 1
0, 0
0, 0
0, 0
0, 1
0, 0
1, 0
0, 0
0, 0
1, 0
0, 0
0, 1
0, 0
0, 0
0, 0
0, 0
0, 0
0, 0
0, 0
0, 0
0, 0
0, 0
0, 0
0, 0
0, 0
0, 0
0, 0
0, 0
0, 0
0, 0
0, 0
0, 0
0, 0
0, 0
0, 1
0, 0
0, 0
0, 0
0, 0
0, 0
0, 0
0, 0
0, 0
0, 0
1, 0
0, 0
0, 0
0, 0
0, 0
0, 0
0, 0
0, 0
0, 0
0, 0
0, 0
0, 0
0, 0
0, 0
0, 0
0, 0
0, 1
0, 0
0, 0
0, 0
0, 0
1, 0
0, 0
0, 0
0, 0
0, 0
0, 0
0, 0
0, 0
0, 0
0, 0
0, 0
0, 0
0, 0
0, 0
0, 0
0, 0
0, 0
0, 0
0, 0
0, 1
0, 0
0, 0
0, 0
0, 1
0, 0
0, 0
0, 0
0, 1
0, 0
0, 1
0, 0
0, 0
0, 0
0, 0
0, 0
0, 0
0, 0
0, 0
0, 0
0, 1
0, 0
0, 0
0, 0
0, 0
0, 0
0, 0
0, 0
0, 0
0, 0
0, 0
0, 0
0, 1
0, 0
0, 0
0, 0
0, 0
0, 0
0, 0
0, 0
0, 0
0, 0
0, 0
0, 0
0, 1
0, 0
0, 0
0, 0
0, 0
0, 0
0, 0
0, 0
0, 0
0, 0
0, 0
0, 0
0, 0
0, 0
0, 0
0, 0
0, 0
0, 0
0, 0
0, 0
0, 0
0, 0
0, 0
0, 0
0, 0
0, 0
0, 0
0, 0
0, 0
0, 0
0, 0
0, 0
0, 0
0, 0
0, 0
0, 0
0, 0
0, 0
0, 0
0, 0
0, 0
0, 0
0, 0
0, 0
0, 0
0, 0
0, 0
0, 0
0, 0
0, 0
0, 0
0, 0
0, 0
0, 0
0, 0
0, 0
0, 0
0, 0
0, 0
0, 0
0, 0
0, 0
0, 0
0, 0
0, 0
0, 0
0, 0
0, 0
0, 0
0, 0
0, 0
0, 0
0, 0
0, 0
0, 0
0, 0
0, 0
0, 0
0, 0
0, 0
0, 0
0, 0
0, 0
0, 0
0, 0
0, 0
0, 0
0, 0
0, 0
0, 0
0, 0
0, 0
0, 0
0, 0
0, 0
0, 0
0, 0
0, 0
0, 0
0, 0
0, 0
0, 0
0, 0
0, 0
0, 0
0, 0
0, 0
0, 0
0, 0
0, 0
0, 0
0, 0
0, 0
0, 0
0, 0
0, 0
0, 0
0, 0
0, 0
0, 0
0, 0
0, 0
0, 0
0, 0
0, 0
0, 0
0, 0
0, 0
0, 0
0, 0
0, 0
0, 0
0, 0
0, 0
0, 0
0, 0
0, 0
0, 0
0, 0
0, 0
0, 0
0, 0
0, 0
0, 0
0, 0
0, 0
0, 0
0, 0
0, 0
0, 0
0, 0
0, 0
0, 0
0, 0
0, 0
0, 0
0, 0
0, 0
0, 0
0, 0
0, 0
0, 0
0, 0
0, 0
0, 0
0, 0
0, 0
0, 0
0, 0
0, 0
0, 0
0, 0
0, 0
0, 0
0, 0
0, 0
0, 0
0, 0
0, 0
0, 0
0, 0
0, 0
0, 0
0, 0
0, 0
0, 0
0, 0
0, 0
0, 0
0, 0
0, 0
0, 0
0, 0
0, 0
0, 0
0, 0
0, 0
0, 0
0, 0
0, 0
0, 0
0, 0
0, 0
0, 0
0, 0
0, 0
0, 0
0, 0
0, 0
0, 0
0, 0
0, 0
0, 0
0, 0
0, 0
0, 0
0, 0
0, 0
0, 0
0, 0
0, 0
0, 0
0, 0
0, 0
0, 0
0, 0
0, 0
0, 0
0, 0
0, 0
0, 0
0, 0
0, 0
0, 0
0, 0
0, 0
0, 0
0, 0
0, 0
0, 0
0, 0
0, 0
0, 0
0, 0
0, 0
0, 0
0, 0
0, 0
0, 0
0, 0
0, 0
0, 0
0, 0
0, 0
0, 0
0, 0
0, 0
0, 0
0, 0
0, 0
0, 0
0, 0
0, 0
0, 0
0, 0
0, 0
0, 0
0, 0
0, 0
0, 0
0, 0
0, 0
0, 0
0, 0
0, 0
0, 0
0, 0
0, 0
0, 0
0, 0
0, 0
0, 0
0, 0
0, 0
0, 0
0, 0
0, 0
0, 0
0, 0
0, 0
0, 0
0, 0
0, 0
0, 0
0, 0
0, 0
0, 0
0, 0
0, 0
0, 0
0, 0
0, 0
0, 0
0, 0
0, 0
0, 0
0, 0
0, 0
0, 0
0, 0
0, 0
0, 0
0, 0
0, 0
0, 0
0, 0
0, 0
0, 0
0, 0
0, 0
0, 0
0, 0
0, 0
0, 0
0, 0
0, 0
0, 0
0, 0
0, 0
0, 0
0, 0
0, 0
0, 0
0, 0
0, 0
0, 0
0, 0
0, 0
0, 0
0, 0
0, 0
0, 0
0, 0
0, 0
0, 0
0, 0
0, 0
0, 0
0, 0
0, 0
0, 0
0, 0
0, 0
0, 0
0, 0
0, 0
0, 0
0, 0
0, 0
0, 0
0, 0
0, 0
0, 0
0, 0
0, 0
0, 0
0, 0
0, 0
0, 0
0, 0
0, 0
0, 0
0, 0
0, 0
0, 0
0, 0
0, 0
#ENDOFDATA     end of spectrum data