File: host_upload/06-09-2024/ps_0852/dump3/ps__0852shot_2191.msa
#FORMAT      : EMSA/MAS spectral data file
#VERSION     : TC202v2.0 PIXL
#TITLE       : N/A
#DATE        :       Date in the format DD-MMM-YYYY, for example 07-JUL-2010
#TIME        :             The time of day at which the spectrum was recorded, in 24-hour format
#OWNER       : PIXL Flight Model       (PIXL will use this to indicate which instrument took the data.)
#NPOINTS     : 4096     Number of data points in the spectrum (This can be zero for configuration only files)
#NCOLUMNS    : 2     Number of data columns in the spectrum (This can be zero for configuration only files)
#XUNITS      : eV
#YUNITS      : COUNTS
#DATATYPE    : YY
#XPERCHAN    : 7.862, 7.881   eV per channel (separate by commas if more than one detector)
#OFFSET      : 18.5, -22.4         eV of first channel  (separate by commas if more than one detector
#SIGNALTYPE  : XRF
#YP_TEMP     : 2.588
#LIVETIME    : 8.53945, 8.52156   seconds (separate by commas if more than one detector)
#REALTIME    : 10, 10.0   seconds (separate by commas if more than one detector)
#SPECTRUM    : start of spectrum data
0, 0
0, 0
0, 0
0, 0
0, 0
0, 0
0, 0
0, 0
0, 0
0, 0
0, 0
0, 0
0, 0
0, 0
0, 0
0, 0
0, 0
0, 0
0, 0
0, 0
0, 0
0, 0
0, 0
0, 0
0, 0
0, 0
0, 0
0, 0
0, 0
0, 1
0, 0
0, 0
1, 0
0, 0
1, 0
2, 0
1, 0
2, 2
7, 0
10, 0
11, 0
21, 0
13, 1
18, 1
10, 1
10, 0
5, 2
9, 2
7, 9
14, 14
25, 23
31, 55
64, 73
66, 96
75, 83
72, 104
52, 67
39, 46
30, 27
23, 14
8, 12
1, 1
4, 6
4, 3
2, 7
2, 4
8, 7
14, 16
16, 21
39, 53
73, 114
154, 199
229, 288
299, 415
368, 459
368, 426
329, 387
259, 305
191, 218
104, 132
50, 76
34, 38
20, 18
6, 11
2, 2
4, 2
1, 0
1, 2
2, 2
1, 2
1, 0
3, 1
5, 0
3, 1
9, 2
4, 6
4, 4
9, 5
3, 6
6, 4
9, 7
4, 2
11, 4
7, 3
6, 7
6, 3
11, 1
38, 4
54, 10
130, 7
261, 10
434, 14
656, 27
949, 28
1161, 31
1318, 28
1275, 38
1087, 29
765, 43
497, 20
317, 27
170, 19
92, 16
40, 15
28, 10
14, 16
12, 10
7, 10
7, 4
5, 6
2, 8
2, 2
2, 6
0, 5
3, 2
2, 5
3, 3
5, 1
1, 2
3, 6
0, 1
3, 4
5, 3
0, 2
1, 1
1, 1
0, 1
2, 2
1, 1
3, 3
3, 3
4, 2
6, 9
11, 13
9, 13
17, 16
7, 29
14, 19
16, 19
17, 11
8, 10
4, 7
4, 12
4, 4
4, 3
5, 3
1, 0
4, 1
7, 4
5, 1
13, 2
20, 5
22, 7
37, 5
47, 5
67, 2
51, 2
62, 7
66, 0
39, 2
39, 6
19, 3
18, 4
8, 3
10, 3
7, 3
7, 7
3, 8
8, 7
7, 5
11, 9
4, 10
10, 16
11, 9
11, 17
10, 16
15, 23
6, 27
9, 53
6, 44
16, 91
12, 98
6, 126
6, 130
8, 153
2, 144
7, 123
7, 87
7, 75
2, 38
8, 29
6, 14
1, 9
1, 11
6, 5
6, 7
4, 4
6, 9
7, 12
7, 9
4, 5
2, 7
4, 6
4, 8
8, 8
3, 8
8, 10
13, 12
17, 13
18, 17
16, 17
24, 20
26, 17
33, 14
27, 16
34, 12
33, 7
36, 12
33, 12
33, 9
31, 6
19, 7
20, 6
16, 13
14, 16
10, 26
21, 27
29, 37
35, 46
52, 54
55, 62
72, 54
55, 75
49, 40
35, 43
22, 42
26, 42
24, 46
13, 49
14, 51
9, 66
24, 104
29, 120
90, 180
163, 257
230, 425
435, 654
661, 998
1031, 1373
1371, 1974
1794, 2244
1996, 2585
2135, 2591
2078, 2448
1908, 2104
1573, 1702
1171, 1188
778, 793
544, 477
307, 319
199, 180
85, 95
64, 60
28, 34
28, 31
47, 25
43, 20
69, 24
74, 17
103, 25
122, 28
128, 41
128, 43
171, 85
154, 125
194, 170
239, 209
228, 289
312, 348
347, 362
332, 369
323, 363
292, 314
219, 249
169, 205
131, 115
80, 75
49, 48
31, 21
19, 11
9, 12
5, 12
9, 5
8, 2
10, 6
8, 14
11, 10
11, 12
21, 17
8, 15
9, 11
5, 6
13, 10
4, 6
3, 6
4, 7
5, 1
1, 4
2, 1
0, 1
1, 6
6, 2
3, 6
3, 7
1, 8
2, 4
5, 10
1, 6
5, 4
3, 4
8, 3
6, 7
6, 3
8, 4
15, 5
25, 1
29, 9
41, 7
58, 4
59, 1
64, 5
81, 8
70, 6
71, 4
59, 5
47, 3
44, 4
29, 4
30, 3
13, 5
13, 3
9, 5
4, 7
4, 6
1, 4
6, 11
3, 5
4, 3
4, 7
2, 5
5, 3
0, 5
0, 5
3, 3
1, 0
11, 6
3, 3
5, 5
2, 4
1, 3
6, 4
3, 4
3, 3
6, 2
4, 3
7, 2
2, 5
4, 3
4, 6
4, 2
4, 8
1, 4
3, 7
4, 7
2, 4
1, 6
5, 3
3, 3
5, 11
6, 7
3, 8
3, 2
4, 5
2, 7
1, 8
4, 9
0, 9
1, 7
2, 10
2, 8
2, 5
5, 7
3, 3
3, 7
3, 6
4, 3
1, 7
1, 5
2, 6
3, 4
5, 3
1, 7
1, 6
3, 4
5, 4
2, 5
1, 6
2, 5
2, 7
1, 3
0, 2
0, 2
2, 3
3, 3
2, 1
1, 2
3, 8
4, 2
1, 6
3, 7
4, 7
1, 5
1, 2
2, 3
0, 4
3, 5
3, 2
4, 3
2, 6
4, 3
2, 3
4, 2
2, 1
3, 3
3, 2
6, 1
6, 3
5, 4
4, 1
3, 5
3, 1
8, 4
2, 7
2, 1
4, 1
8, 5
6, 7
4, 6
7, 4
5, 6
6, 2
5, 2
4, 6
2, 2
2, 4
6, 3
5, 2
3, 1
3, 3
0, 2
2, 3
4, 3
0, 0
2, 1
1, 3
1, 0
1, 2
3, 1
2, 2
4, 0
4, 2
2, 3
2, 1
0, 1
2, 0
0, 0
1, 0
0, 2
2, 0
1, 3
1, 4
1, 0
2, 5
1, 1
1, 2
2, 0
0, 4
1, 3
3, 2
1, 1
2, 1
1, 1
3, 1
1, 3
2, 2
3, 2
2, 1
2, 2
3, 3
3, 2
2, 2
3, 4
0, 4
4, 1
3, 4
3, 0
5, 3
2, 4
4, 2
1, 1
6, 3
3, 3
1, 3
0, 0
1, 3
3, 2
3, 6
0, 6
4, 2
3, 2
4, 10
4, 5
7, 3
1, 7
5, 5
3, 3
5, 2
1, 2
4, 0
2, 3
2, 1
1, 2
2, 2
1, 0
0, 2
3, 1
2, 0
1, 0
3, 1
2, 2
1, 0
2, 2
1, 0
0, 2
2, 6
0, 0
2, 0
0, 1
2, 1
0, 0
2, 0
4, 4
3, 2
6, 0
2, 0
1, 2
2, 1
2, 3
2, 1
3, 2
3, 1
0, 0
1, 1
0, 1
1, 3
3, 0
3, 2
1, 0
1, 3
1, 1
2, 2
0, 2
1, 1
1, 2
0, 0
3, 1
0, 0
1, 0
2, 0
0, 0
1, 1
0, 0
3, 0
1, 2
0, 1
0, 2
1, 0
1, 2
0, 0
0, 2
0, 1
1, 2
2, 3
1, 0
1, 1
0, 1
0, 1
0, 1
1, 0
0, 0
1, 2
2, 1
0, 0
1, 2
1, 1
0, 0
1, 0
0, 0
1, 1
1, 1
0, 0
0, 0
0, 1
0, 1
1, 1
1, 0
0, 1
0, 2
3, 1
3, 1
0, 0
1, 0
0, 0
2, 0
1, 0
0, 0
2, 1
3, 0
1, 1
0, 0
1, 0
1, 0
1, 0
0, 1
0, 0
1, 0
0, 1
1, 0
2, 1
0, 1
1, 1
0, 0
0, 0
0, 0
0, 2
0, 0
0, 0
0, 0
1, 0
1, 1
0, 0
1, 1
0, 1
0, 1
0, 0
0, 0
0, 1
0, 0
0, 1
1, 2
0, 0
1, 1
0, 1
0, 1
0, 0
2, 0
1, 0
1, 0
0, 1
0, 0
0, 0
1, 2
0, 0
0, 0
0, 1
0, 0
0, 1
1, 1
0, 0
1, 1
1, 1
1, 1
1, 0
1, 0
0, 0
2, 0
0, 1
0, 0
0, 1
0, 1
0, 0
0, 0
2, 0
1, 1
0, 0
0, 2
0, 1
0, 0
1, 1
0, 0
0, 1
1, 0
0, 0
0, 2
1, 0
0, 1
0, 1
0, 0
0, 0
1, 0
0, 0
0, 0
0, 0
0, 1
0, 2
0, 0
1, 0
0, 0
0, 0
0, 0
0, 0
0, 0
0, 0
0, 0
0, 0
0, 0
0, 0
0, 1
0, 0
0, 0
0, 0
0, 2
1, 0
0, 1
1, 0
0, 0
0, 1
2, 1
0, 0
2, 0
0, 0
0, 0
0, 0
0, 0
0, 0
0, 0
0, 0
0, 1
0, 0
0, 0
0, 0
0, 0
2, 1
0, 0
2, 0
0, 0
0, 1
0, 1
0, 0
0, 0
0, 1
0, 0
0, 0
1, 0
0, 0
0, 0
1, 0
1, 0
0, 1
0, 0
1, 1
0, 1
1, 1
1, 0
1, 0
0, 0
0, 1
1, 1
0, 0
0, 1
0, 0
0, 0
0, 0
0, 1
1, 0
0, 0
0, 0
0, 0
0, 0
0, 0
0, 0
1, 0
0, 0
0, 0
0, 0
0, 0
0, 0
0, 0
1, 0
0, 0
0, 0
1, 0
0, 0
0, 0
0, 0
0, 0
0, 0
0, 0
0, 0
1, 1
0, 0
0, 0
0, 0
0, 0
0, 0
1, 0
0, 0
0, 0
0, 2
0, 0
0, 0
0, 0
0, 0
0, 1
0, 0
0, 0
0, 1
0, 0
0, 1
0, 0
0, 0
0, 0
2, 0
0, 3
0, 0
0, 1
0, 0
0, 0
0, 0
0, 0
0, 0
0, 0
0, 0
0, 0
0, 0
0, 0
0, 1
0, 0
0, 0
0, 0
0, 0
1, 0
0, 0
0, 0
0, 1
0, 0
0, 0
0, 0
0, 0
1, 0
0, 0
0, 0
0, 0
0, 0
0, 0
0, 0
0, 0
0, 0
0, 0
0, 0
0, 0
0, 0
2, 0
0, 0
0, 0
0, 0
0, 0
0, 0
0, 0
0, 0
0, 0
0, 0
0, 0
0, 0
0, 0
0, 0
0, 0
0, 0
0, 1
0, 0
0, 0
0, 0
0, 0
0, 0
0, 0
0, 0
0, 0
0, 0
0, 0
0, 1
0, 0
0, 0
0, 0
0, 0
0, 0
0, 0
0, 0
0, 0
0, 0
0, 0
0, 0
0, 0
0, 0
0, 0
0, 0
0, 0
0, 0
0, 0
0, 0
0, 0
0, 0
0, 0
1, 0
0, 0
0, 0
0, 0
0, 0
0, 0
1, 0
0, 0
0, 1
0, 0
0, 0
0, 0
0, 0
0, 0
0, 0
0, 0
0, 0
0, 0
0, 0
0, 0
0, 0
0, 0
0, 0
0, 0
0, 0
0, 0
0, 0
0, 0
0, 0
0, 0
0, 0
0, 0
0, 0
0, 0
0, 0
0, 0
0, 0
0, 0
0, 0
0, 0
0, 0
0, 0
0, 0
0, 0
0, 0
1, 0
0, 0
0, 0
0, 0
0, 0
0, 0
0, 0
0, 0
1, 0
0, 0
0, 0
0, 0
0, 0
0, 0
0, 0
0, 0
0, 0
0, 0
0, 0
0, 0
0, 0
0, 0
0, 0
0, 0
0, 0
0, 0
0, 0
0, 0
0, 0
0, 0
0, 0
0, 0
0, 0
0, 0
0, 0
0, 0
0, 0
0, 0
0, 0
0, 0
0, 0
0, 0
0, 0
0, 0
0, 0
0, 0
0, 0
0, 0
0, 0
0, 0
0, 0
0, 0
0, 0
0, 0
0, 0
0, 0
0, 0
0, 0
0, 0
0, 0
0, 0
0, 0
0, 0
0, 0
0, 0
0, 0
0, 0
0, 0
0, 0
0, 0
0, 0
0, 0
0, 0
0, 0
0, 0
0, 0
0, 0
0, 0
0, 0
0, 0
0, 0
0, 0
0, 0
0, 0
0, 0
0, 0
0, 0
0, 0
0, 0
0, 0
0, 0
0, 0
0, 0
0, 0
0, 0
0, 0
0, 0
0, 0
0, 0
0, 0
0, 0
0, 0
0, 0
0, 0
0, 0
0, 0
0, 0
0, 0
0, 0
0, 0
0, 0
0, 0
0, 0
0, 0
0, 0
0, 0
0, 0
0, 0
0, 0
0, 0
0, 0
0, 0
0, 0
0, 0
0, 0
0, 0
0, 0
0, 0
0, 0
0, 0
0, 0
0, 0
0, 0
0, 0
0, 0
0, 0
0, 0
0, 0
0, 0
0, 0
0, 0
0, 0
0, 0
0, 0
0, 0
0, 0
0, 0
0, 0
0, 0
0, 0
0, 0
0, 0
0, 0
0, 0
0, 0
0, 0
0, 0
0, 0
0, 0
0, 0
0, 0
0, 0
0, 0
0, 0
0, 0
0, 0
0, 0
0, 0
0, 0
0, 0
0, 0
0, 0
0, 0
0, 0
0, 0
0, 0
0, 0
0, 0
0, 0
0, 0
0, 0
0, 0
0, 0
0, 0
0, 1
0, 0
0, 0
0, 0
0, 0
0, 0
0, 0
0, 0
0, 0
0, 0
0, 0
0, 0
0, 0
0, 0
0, 0
0, 0
0, 0
0, 0
0, 0
0, 0
0, 0
0, 0
0, 0
0, 0
0, 0
0, 0
0, 0
0, 0
0, 0
0, 0
0, 0
0, 0
0, 0
0, 0
0, 0
0, 0
0, 0
0, 0
0, 0
0, 0
0, 0
0, 0
0, 0
0, 0
0, 0
0, 0
0, 0
0, 0
0, 0
0, 0
0, 0
0, 0
0, 0
0, 0
0, 0
0, 0
0, 0
0, 0
0, 0
0, 0
0, 0
0, 0
0, 0
0, 0
0, 0
0, 0
0, 0
0, 0
0, 0
0, 0
0, 0
0, 0
0, 0
0, 0
0, 0
0, 0
0, 0
0, 0
0, 0
0, 0
0, 0
0, 0
0, 0
0, 0
0, 0
0, 0
0, 0
0, 0
0, 0
0, 0
0, 0
0, 0
0, 0
0, 0
0, 0
0, 0
0, 0
0, 0
0, 0
0, 0
0, 0
0, 0
0, 0
0, 0
0, 0
0, 0
0, 0
0, 0
0, 0
0, 0
0, 0
0, 0
0, 0
0, 0
0, 0
0, 0
0, 0
0, 0
0, 0
0, 0
0, 0
0, 0
0, 0
0, 0
0, 0
0, 0
0, 0
0, 0
0, 0
0, 0
0, 0
0, 0
0, 0
0, 0
0, 0
0, 0
0, 0
0, 0
0, 0
0, 0
0, 0
0, 0
0, 0
0, 0
0, 0
0, 0
0, 0
0, 0
0, 0
0, 0
0, 0
0, 0
0, 0
0, 0
0, 0
0, 0
0, 0
0, 0
0, 0
0, 0
0, 0
0, 0
0, 0
0, 0
0, 0
0, 0
0, 0
0, 0
0, 0
0, 0
0, 0
0, 0
0, 0
0, 0
0, 0
0, 0
0, 0
0, 0
0, 0
0, 0
0, 0
0, 0
0, 0
0, 0
0, 0
0, 0
0, 0
0, 0
0, 0
0, 0
0, 0
0, 0
0, 0
0, 0
0, 0
#ENDOFDATA     end of spectrum data