File: host_upload/06-09-2024/ps_0852/dump3/ps__0852shot_2077.msa
#FORMAT      : EMSA/MAS spectral data file
#VERSION     : TC202v2.0 PIXL
#TITLE       : N/A
#DATE        :       Date in the format DD-MMM-YYYY, for example 07-JUL-2010
#TIME        :             The time of day at which the spectrum was recorded, in 24-hour format
#OWNER       : PIXL Flight Model       (PIXL will use this to indicate which instrument took the data.)
#NPOINTS     : 4096     Number of data points in the spectrum (This can be zero for configuration only files)
#NCOLUMNS    : 2     Number of data columns in the spectrum (This can be zero for configuration only files)
#XUNITS      : eV
#YUNITS      : COUNTS
#DATATYPE    : YY
#XPERCHAN    : 7.862, 7.881   eV per channel (separate by commas if more than one detector)
#OFFSET      : 18.5, -22.4         eV of first channel  (separate by commas if more than one detector
#SIGNALTYPE  : XRF
#YP_TEMP     : 2.203
#LIVETIME    : 8.59786, 8.56312   seconds (separate by commas if more than one detector)
#REALTIME    : 10, 10.0   seconds (separate by commas if more than one detector)
#SPECTRUM    : start of spectrum data
0, 0
0, 0
0, 0
0, 0
0, 0
0, 0
0, 0
0, 0
0, 0
0, 0
0, 0
0, 0
0, 0
0, 0
0, 0
0, 0
0, 0
0, 0
0, 0
0, 0
0, 0
0, 0
0, 0
0, 0
0, 0
0, 0
0, 0
0, 0
0, 0
0, 0
0, 0
0, 0
0, 0
0, 1
0, 0
1, 0
0, 0
0, 1
0, 1
1, 1
0, 4
0, 2
2, 1
2, 1
4, 1
1, 5
4, 4
1, 3
7, 5
8, 3
19, 33
45, 39
58, 51
81, 73
89, 92
73, 73
59, 57
45, 49
24, 27
17, 13
10, 5
7, 7
4, 2
4, 4
3, 7
5, 3
4, 5
8, 11
22, 22
60, 41
84, 107
181, 195
239, 263
348, 366
395, 454
415, 422
380, 364
322, 302
182, 204
147, 119
79, 71
33, 46
19, 14
9, 15
8, 7
5, 2
2, 1
3, 2
0, 1
1, 1
0, 0
0, 0
2, 2
0, 4
1, 6
1, 6
5, 4
8, 8
10, 7
11, 12
4, 11
7, 8
9, 5
5, 5
8, 4
9, 6
15, 5
5, 15
19, 14
18, 17
32, 28
28, 46
50, 52
60, 68
67, 70
68, 80
60, 68
61, 72
53, 78
32, 56
44, 58
47, 51
33, 48
22, 21
17, 30
24, 26
18, 29
12, 14
9, 11
12, 5
5, 2
5, 8
7, 1
5, 4
7, 4
2, 3
5, 2
4, 4
3, 2
4, 2
3, 4
3, 7
2, 4
3, 2
6, 5
4, 1
6, 3
2, 3
5, 4
8, 7
10, 6
10, 8
16, 17
20, 11
12, 25
27, 31
32, 22
37, 39
30, 25
18, 21
16, 26
16, 9
17, 15
7, 8
10, 9
6, 7
9, 13
9, 8
3, 6
13, 6
3, 9
8, 10
18, 14
7, 5
3, 6
9, 6
7, 5
10, 12
12, 8
6, 10
11, 12
7, 15
1, 6
11, 8
10, 4
4, 6
5, 9
9, 6
10, 7
15, 17
10, 17
18, 15
18, 11
12, 19
11, 15
22, 28
28, 16
24, 4
23, 22
21, 15
22, 17
17, 21
14, 16
12, 22
15, 15
18, 11
6, 6
9, 11
8, 7
10, 11
11, 13
11, 7
7, 7
17, 12
11, 8
3, 15
8, 15
4, 12
12, 6
12, 14
6, 9
10, 12
12, 14
9, 8
15, 13
26, 16
23, 25
23, 21
26, 30
31, 27
38, 45
47, 38
49, 35
28, 23
39, 31
25, 36
35, 13
22, 33
17, 25
11, 25
9, 31
15, 17
14, 14
16, 23
23, 22
27, 30
42, 37
41, 44
48, 55
54, 84
64, 87
72, 70
64, 73
58, 53
44, 44
48, 35
36, 45
32, 29
21, 36
19, 34
28, 26
27, 38
42, 61
104, 102
162, 196
287, 344
458, 593
784, 908
1084, 1361
1466, 1742
1866, 2082
2156, 2439
2377, 2421
2316, 2270
2124, 1945
1757, 1561
1294, 1094
864, 746
591, 456
338, 282
189, 149
117, 95
75, 61
53, 29
32, 26
35, 30
28, 24
35, 14
36, 29
35, 35
49, 29
38, 54
58, 58
74, 97
99, 110
145, 162
188, 256
256, 310
313, 330
308, 365
365, 357
370, 332
273, 312
253, 256
186, 136
117, 128
114, 83
54, 42
35, 23
17, 15
15, 11
10, 7
9, 17
15, 20
13, 14
10, 8
8, 20
14, 15
12, 13
13, 12
14, 5
8, 9
8, 3
6, 5
8, 4
12, 6
7, 5
5, 6
6, 5
5, 3
3, 8
4, 9
5, 8
5, 11
0, 3
3, 6
4, 12
4, 11
3, 3
7, 6
6, 10
6, 10
9, 11
7, 5
8, 5
9, 5
2, 7
6, 8
12, 6
8, 8
6, 4
4, 3
8, 6
13, 10
5, 6
7, 7
4, 8
2, 6
4, 10
7, 6
6, 9
8, 7
8, 2
8, 5
1, 8
1, 4
5, 6
9, 11
5, 7
8, 4
7, 4
7, 5
6, 5
3, 5
7, 3
4, 4
7, 5
5, 5
3, 8
6, 0
6, 7
7, 7
7, 5
3, 6
2, 9
5, 5
10, 4
2, 7
5, 6
2, 5
6, 7
4, 3
5, 5
4, 4
12, 8
6, 1
4, 5
2, 5
5, 2
9, 3
6, 3
5, 6
7, 4
4, 4
4, 5
5, 5
5, 2
3, 6
8, 3
3, 3
7, 3
4, 6
3, 2
3, 2
5, 5
3, 4
9, 7
5, 3
5, 3
5, 10
7, 6
4, 2
6, 4
6, 4
5, 1
3, 4
2, 2
1, 3
2, 4
7, 4
4, 5
6, 7
6, 3
3, 5
1, 2
7, 4
2, 3
2, 3
5, 3
6, 7
6, 2
3, 1
1, 2
2, 6
1, 3
1, 2
6, 3
1, 2
4, 4
0, 1
2, 2
5, 2
2, 5
3, 3
5, 3
5, 2
3, 4
4, 2
2, 1
5, 2
2, 2
3, 4
7, 0
1, 3
3, 4
2, 3
4, 1
4, 4
1, 0
4, 4
0, 3
0, 4
4, 1
4, 2
1, 2
2, 3
2, 1
6, 3
3, 2
0, 0
3, 1
4, 3
3, 1
1, 2
0, 3
3, 2
0, 2
2, 2
2, 3
1, 4
0, 2
3, 3
5, 3
2, 1
1, 2
2, 3
4, 2
3, 5
2, 0
5, 4
4, 3
2, 2
0, 5
1, 3
5, 2
4, 4
5, 0
1, 3
3, 0
3, 0
4, 2
2, 2
3, 0
1, 4
0, 2
1, 3
4, 1
1, 0
4, 3
3, 2
2, 5
1, 0
2, 2
3, 2
1, 1
1, 4
4, 1
3, 1
1, 1
0, 1
2, 1
3, 2
2, 0
1, 3
4, 5
4, 3
2, 4
2, 1
4, 5
3, 5
4, 6
5, 4
5, 5
0, 6
4, 0
3, 0
4, 4
6, 0
3, 2
0, 4
1, 0
1, 0
2, 0
0, 2
2, 2
1, 1
4, 1
0, 0
0, 2
4, 3
0, 0
0, 1
3, 3
1, 1
1, 2
2, 2
1, 4
1, 4
2, 2
1, 2
2, 2
4, 0
0, 1
1, 3
4, 1
2, 3
2, 3
4, 2
0, 1
0, 1
1, 1
3, 1
0, 1
1, 0
2, 0
0, 0
2, 0
0, 1
2, 3
0, 3
0, 2
1, 0
1, 3
0, 2
1, 1
1, 1
2, 0
2, 0
0, 1
0, 1
1, 1
0, 2
4, 1
0, 1
2, 0
0, 2
2, 1
1, 0
0, 0
1, 1
1, 1
0, 1
1, 0
0, 1
1, 0
4, 0
0, 0
1, 1
1, 1
0, 0
0, 0
3, 0
2, 1
1, 0
2, 0
0, 1
3, 1
0, 0
1, 1
0, 2
0, 0
0, 3
1, 0
1, 0
1, 2
1, 0
0, 0
2, 0
0, 1
0, 0
0, 1
0, 2
0, 1
1, 0
0, 0
0, 1
0, 1
0, 1
0, 3
0, 1
0, 0
3, 1
0, 0
1, 1
0, 0
1, 2
1, 1
1, 1
0, 2
1, 0
0, 2
0, 1
1, 2
2, 4
1, 0
0, 1
2, 0
2, 0
1, 1
1, 0
0, 1
0, 0
0, 0
0, 0
1, 0
0, 0
0, 1
2, 0
0, 1
0, 0
0, 1
0, 1
1, 0
0, 1
0, 1
1, 0
0, 1
0, 1
0, 1
0, 1
1, 2
1, 0
1, 0
1, 0
0, 0
0, 0
0, 0
1, 0
0, 0
2, 2
1, 0
1, 1
0, 0
0, 0
0, 0
1, 0
0, 1
0, 1
0, 0
0, 2
0, 0
0, 0
1, 0
0, 1
1, 0
0, 0
0, 0
0, 1
1, 1
0, 1
0, 0
2, 0
1, 0
0, 0
0, 0
0, 2
0, 0
1, 0
0, 0
0, 0
0, 0
1, 0
1, 0
1, 2
0, 1
1, 0
0, 0
0, 0
0, 0
0, 0
2, 1
0, 1
0, 1
1, 0
0, 1
1, 0
0, 0
0, 0
1, 0
1, 0
0, 0
0, 1
0, 0
0, 0
0, 0
0, 1
0, 0
0, 1
0, 0
0, 1
0, 1
1, 0
0, 0
1, 0
0, 0
1, 0
0, 1
0, 0
0, 2
0, 0
0, 0
0, 0
0, 0
0, 1
0, 0
1, 0
0, 0
1, 0
0, 0
0, 0
0, 1
0, 0
0, 1
3, 0
0, 0
0, 0
0, 0
0, 0
0, 1
0, 0
0, 1
0, 0
0, 1
0, 0
0, 1
0, 0
1, 0
0, 0
1, 0
1, 0
1, 1
0, 0
0, 1
0, 0
0, 0
0, 0
1, 0
0, 1
0, 0
0, 1
0, 0
0, 0
0, 0
0, 0
0, 0
0, 0
0, 1
0, 0
1, 0
0, 0
1, 0
0, 0
0, 0
0, 0
0, 0
0, 0
0, 0
0, 0
0, 0
0, 0
0, 0
0, 0
0, 0
0, 0
2, 0
1, 0
0, 0
0, 0
0, 1
0, 0
1, 0
0, 0
0, 0
0, 0
0, 0
0, 0
0, 0
0, 0
0, 0
0, 0
1, 0
0, 0
0, 0
1, 1
1, 0
0, 0
0, 0
1, 0
0, 0
0, 0
1, 0
1, 1
0, 0
0, 0
0, 0
0, 0
0, 0
0, 0
0, 0
0, 0
0, 0
0, 0
1, 0
0, 0
0, 0
0, 0
0, 0
0, 0
0, 0
0, 0
0, 0
0, 0
0, 0
0, 0
0, 0
0, 0
0, 0
0, 1
0, 0
0, 0
0, 0
0, 0
0, 0
0, 0
0, 0
0, 0
0, 0
1, 0
0, 0
1, 0
0, 0
0, 0
0, 1
0, 0
0, 0
0, 0
0, 0
0, 0
0, 0
0, 0
0, 0
0, 1
0, 0
0, 0
0, 0
0, 0
0, 2
0, 0
0, 0
0, 0
0, 0
0, 0
0, 0
0, 0
0, 0
0, 0
0, 0
0, 0
0, 0
0, 0
0, 0
0, 0
0, 0
0, 0
0, 0
0, 0
0, 0
0, 0
0, 1
0, 0
0, 0
0, 0
0, 0
0, 0
0, 0
0, 0
0, 0
0, 0
0, 0
0, 0
0, 0
0, 0
0, 0
0, 0
0, 0
0, 0
0, 0
0, 0
0, 0
0, 0
0, 0
0, 0
0, 0
0, 0
0, 0
0, 0
0, 0
0, 0
0, 0
0, 0
0, 0
0, 0
0, 0
0, 0
0, 0
0, 0
0, 0
0, 0
0, 0
0, 0
0, 0
0, 0
0, 0
0, 0
0, 0
0, 0
0, 0
0, 0
0, 0
0, 0
0, 0
0, 0
0, 0
0, 0
0, 0
0, 0
0, 0
0, 0
0, 0
0, 0
0, 0
0, 0
0, 0
0, 0
0, 0
0, 0
0, 0
0, 0
0, 0
0, 0
0, 0
0, 0
0, 0
0, 0
0, 0
0, 0
0, 0
0, 0
0, 0
0, 0
0, 0
0, 0
0, 0
0, 0
0, 0
0, 0
0, 0
0, 0
0, 0
0, 0
0, 0
0, 0
0, 0
0, 0
0, 0
0, 0
0, 0
0, 0
0, 0
0, 0
0, 0
0, 0
0, 0
0, 0
0, 0
0, 0
0, 0
0, 0
0, 0
0, 0
0, 0
0, 0
0, 0
0, 0
0, 0
0, 0
0, 0
0, 0
0, 0
0, 0
0, 0
0, 0
0, 0
0, 0
0, 0
0, 0
0, 0
0, 0
0, 0
0, 0
0, 0
0, 0
0, 0
0, 0
0, 0
0, 0
0, 0
0, 0
0, 0
0, 0
0, 0
0, 0
0, 0
0, 0
0, 0
0, 0
0, 0
0, 0
0, 0
0, 0
0, 0
0, 0
0, 0
0, 0
0, 0
0, 0
0, 0
0, 0
0, 0
0, 0
0, 0
0, 0
0, 0
0, 0
0, 0
0, 0
0, 0
0, 0
0, 0
0, 0
0, 0
0, 0
0, 0
0, 0
0, 0
0, 0
0, 0
0, 0
0, 0
0, 0
0, 0
0, 0
0, 0
0, 0
0, 0
0, 0
0, 0
0, 0
0, 0
0, 0
0, 0
0, 0
0, 0
0, 0
0, 0
0, 0
0, 0
0, 0
0, 0
0, 0
0, 0
0, 0
0, 0
0, 0
0, 0
0, 0
0, 0
0, 0
0, 0
0, 0
0, 0
0, 0
0, 0
0, 0
0, 0
0, 0
0, 0
0, 0
0, 0
0, 0
0, 0
0, 0
0, 0
0, 0
0, 0
0, 0
0, 0
0, 0
0, 0
0, 0
0, 0
0, 0
0, 0
0, 0
0, 0
0, 0
0, 0
0, 0
0, 0
0, 0
0, 0
0, 0
0, 0
0, 0
0, 0
0, 0
0, 0
0, 0
0, 0
0, 0
0, 0
0, 0
0, 0
0, 0
0, 0
0, 0
0, 0
0, 0
0, 0
0, 0
0, 0
0, 0
0, 0
0, 0
0, 0
0, 0
0, 0
0, 0
0, 0
0, 0
0, 0
0, 0
0, 0
0, 0
0, 0
0, 0
0, 0
0, 0
0, 0
0, 0
0, 0
0, 0
0, 0
0, 0
0, 0
0, 0
0, 0
0, 0
0, 0
0, 0
0, 0
0, 0
0, 0
0, 0
0, 0
0, 0
0, 0
0, 0
0, 0
0, 0
0, 0
0, 0
0, 0
0, 0
0, 0
0, 0
0, 0
0, 0
0, 0
0, 0
0, 0
0, 0
0, 0
0, 0
0, 0
0, 0
0, 0
0, 0
0, 0
0, 0
0, 0
0, 0
0, 0
0, 0
0, 0
0, 0
0, 0
0, 0
0, 0
0, 0
0, 0
0, 0
0, 0
0, 0
0, 0
0, 0
0, 0
0, 0
0, 0
0, 0
0, 0
0, 0
0, 0
0, 0
0, 0
0, 0
0, 0
0, 0
0, 0
0, 0
0, 0
0, 0
0, 0
0, 0
0, 0
0, 0
0, 0
0, 0
0, 0
0, 0
0, 0
0, 0
0, 0
0, 0
0, 0
0, 0
0, 0
0, 0
0, 0
0, 0
0, 0
0, 0
0, 0
0, 0
0, 0
0, 0
0, 0
0, 0
0, 0
0, 0
0, 0
0, 0
0, 0
0, 0
0, 0
0, 0
0, 0
0, 0
0, 0
0, 0
0, 0
0, 0
0, 0
0, 0
0, 0
0, 0
0, 0
0, 0
0, 0
0, 0
0, 0
0, 0
0, 0
0, 0
0, 0
0, 0
0, 0
0, 0
0, 0
0, 0
0, 0
0, 0
0, 0
0, 0
0, 0
0, 0
0, 0
0, 0
0, 0
0, 0
0, 0
0, 0
0, 0
0, 0
0, 0
0, 0
#ENDOFDATA     end of spectrum data