File: host_upload/06-09-2024/ps_0852/dump3/ps__0852shot_2316.msa
#FORMAT      : EMSA/MAS spectral data file
#VERSION     : TC202v2.0 PIXL
#TITLE       : N/A
#DATE        :       Date in the format DD-MMM-YYYY, for example 07-JUL-2010
#TIME        :             The time of day at which the spectrum was recorded, in 24-hour format
#OWNER       : PIXL Flight Model       (PIXL will use this to indicate which instrument took the data.)
#NPOINTS     : 4096     Number of data points in the spectrum (This can be zero for configuration only files)
#NCOLUMNS    : 2     Number of data columns in the spectrum (This can be zero for configuration only files)
#XUNITS      : eV
#YUNITS      : COUNTS
#DATATYPE    : YY
#XPERCHAN    : 7.862, 7.881   eV per channel (separate by commas if more than one detector)
#OFFSET      : 18.5, -22.4         eV of first channel  (separate by commas if more than one detector
#SIGNALTYPE  : XRF
#YP_TEMP     : 2.203
#LIVETIME    : 8.57638, 8.56464   seconds (separate by commas if more than one detector)
#REALTIME    : 10, 10.0   seconds (separate by commas if more than one detector)
#SPECTRUM    : start of spectrum data
0, 0
0, 0
0, 0
0, 0
0, 0
0, 0
0, 0
0, 0
0, 0
0, 0
0, 0
0, 0
0, 0
0, 0
0, 0
0, 0
0, 0
0, 0
0, 0
0, 0
0, 0
0, 0
0, 0
0, 0
0, 0
0, 0
0, 0
0, 0
0, 0
0, 0
0, 0
0, 0
0, 1
1, 0
0, 0
0, 0
0, 0
2, 1
3, 0
3, 1
3, 0
2, 2
1, 1
2, 1
4, 0
1, 2
2, 1
5, 3
6, 4
14, 11
17, 21
34, 36
58, 71
72, 86
78, 91
85, 76
60, 46
51, 31
30, 27
12, 14
5, 5
3, 6
2, 3
5, 1
3, 1
2, 4
9, 4
10, 10
25, 17
47, 44
101, 115
149, 172
223, 247
358, 394
435, 434
429, 416
375, 379
275, 270
189, 192
109, 112
67, 65
42, 42
20, 20
6, 6
6, 10
4, 8
1, 2
3, 2
2, 3
3, 3
3, 4
2, 4
1, 3
8, 6
5, 5
8, 6
9, 14
26, 15
16, 28
22, 27
14, 10
21, 18
9, 10
7, 7
5, 5
8, 6
7, 10
10, 4
13, 1
27, 22
19, 20
41, 22
101, 45
101, 36
110, 49
105, 41
118, 37
110, 36
78, 32
94, 24
79, 23
54, 19
63, 18
63, 22
79, 13
52, 13
53, 10
46, 15
31, 12
20, 8
11, 5
7, 5
3, 2
4, 3
3, 1
1, 2
0, 2
4, 3
6, 3
2, 1
1, 5
2, 1
1, 3
0, 4
1, 0
2, 4
0, 1
4, 1
1, 2
1, 1
4, 3
5, 6
5, 11
11, 10
16, 15
12, 22
22, 27
27, 31
32, 23
24, 24
29, 21
9, 9
13, 7
6, 7
5, 7
5, 5
2, 5
6, 6
8, 6
5, 5
11, 6
15, 4
4, 8
4, 4
2, 6
5, 5
2, 3
8, 0
5, 4
1, 4
6, 0
6, 2
5, 4
3, 0
5, 6
4, 3
5, 3
1, 7
6, 9
11, 9
9, 11
13, 14
12, 4
20, 14
15, 12
30, 8
31, 13
22, 13
24, 12
33, 12
32, 13
11, 9
9, 6
7, 7
7, 10
6, 7
5, 4
1, 3
3, 7
8, 5
4, 5
3, 5
1, 6
8, 5
3, 5
4, 7
7, 5
5, 4
7, 7
3, 1
4, 9
3, 5
4, 3
11, 7
16, 7
7, 13
13, 12
9, 12
9, 14
18, 10
13, 10
20, 11
10, 12
14, 13
7, 8
11, 5
11, 7
9, 11
3, 7
10, 9
10, 4
8, 10
11, 8
13, 11
12, 19
27, 24
34, 37
37, 43
54, 55
69, 62
55, 73
63, 68
70, 65
60, 59
44, 51
28, 33
25, 37
28, 37
14, 31
17, 25
15, 31
39, 34
47, 54
69, 121
152, 203
254, 375
456, 607
794, 940
1104, 1440
1612, 1884
1954, 2268
2330, 2433
2413, 2503
2286, 2445
2175, 2097
1715, 1592
1254, 1137
878, 781
580, 480
379, 297
220, 154
111, 71
61, 43
23, 28
24, 18
14, 20
9, 15
17, 13
17, 20
13, 20
20, 25
35, 33
37, 63
74, 86
108, 135
133, 166
185, 236
241, 286
326, 350
324, 387
374, 363
364, 313
311, 286
276, 204
190, 149
133, 105
88, 77
77, 51
33, 17
14, 20
7, 14
6, 8
9, 15
3, 13
9, 13
8, 11
17, 12
11, 14
14, 11
11, 9
18, 9
12, 6
8, 13
7, 9
6, 6
6, 5
4, 2
6, 2
3, 2
6, 4
3, 1
1, 3
6, 2
4, 2
2, 4
4, 2
2, 5
3, 4
4, 7
5, 5
9, 2
5, 4
4, 7
4, 8
2, 1
4, 7
4, 4
7, 9
6, 7
3, 12
7, 0
6, 2
1, 2
6, 5
4, 5
6, 5
4, 2
3, 6
3, 3
6, 2
5, 6
7, 5
3, 8
6, 7
7, 7
1, 5
4, 6
9, 6
3, 10
5, 12
5, 13
7, 9
4, 6
4, 12
11, 1
2, 6
1, 7
4, 3
0, 3
6, 1
2, 6
1, 8
4, 6
3, 3
5, 6
4, 4
1, 3
1, 4
3, 2
5, 8
1, 5
3, 3
0, 1
5, 6
3, 5
2, 4
7, 8
2, 3
4, 4
7, 7
4, 1
1, 1
3, 4
3, 3
4, 2
3, 3
4, 6
1, 3
3, 6
8, 2
3, 7
3, 1
3, 4
4, 0
3, 4
4, 6
3, 2
5, 2
10, 1
13, 3
14, 0
11, 2
23, 1
32, 2
23, 3
39, 4
32, 3
32, 0
26, 1
31, 4
22, 1
16, 3
12, 2
9, 1
5, 3
5, 4
5, 1
2, 1
4, 1
3, 1
3, 2
4, 2
3, 2
2, 8
0, 2
6, 1
1, 5
2, 3
3, 4
3, 3
2, 3
5, 1
2, 5
2, 0
2, 5
2, 8
3, 4
2, 2
2, 2
1, 2
1, 0
1, 0
1, 2
1, 2
3, 0
2, 2
2, 1
1, 1
2, 4
5, 1
1, 3
1, 3
2, 3
1, 2
0, 1
3, 4
1, 0
3, 0
3, 3
2, 1
0, 4
2, 3
2, 3
3, 3
5, 1
2, 0
8, 2
4, 2
9, 3
5, 0
5, 0
1, 1
5, 6
9, 5
3, 3
3, 4
0, 1
4, 0
3, 5
4, 2
5, 4
4, 3
3, 1
1, 0
2, 2
3, 4
1, 2
1, 3
1, 1
3, 1
1, 0
3, 2
0, 1
4, 0
3, 1
5, 1
1, 0
0, 3
2, 1
2, 5
1, 3
3, 3
1, 5
2, 0
2, 1
1, 1
2, 2
1, 1
2, 0
2, 3
1, 1
1, 3
4, 2
2, 1
0, 4
3, 2
1, 5
3, 2
4, 2
2, 7
3, 5
3, 6
7, 4
4, 5
8, 5
1, 5
2, 5
4, 2
1, 2
4, 2
1, 1
0, 1
2, 5
3, 0
2, 2
0, 0
1, 1
1, 1
0, 1
0, 1
1, 2
0, 0
1, 1
0, 4
2, 2
1, 1
2, 4
2, 1
3, 0
0, 3
2, 1
1, 0
3, 1
1, 1
2, 0
1, 0
2, 0
0, 1
0, 0
0, 0
0, 1
1, 2
1, 3
2, 0
1, 1
1, 0
0, 1
1, 0
0, 0
1, 1
0, 0
3, 3
2, 4
1, 2
0, 2
2, 1
0, 2
2, 2
2, 2
2, 0
2, 1
2, 1
0, 1
1, 3
1, 1
0, 0
1, 0
2, 1
1, 3
1, 1
1, 0
0, 1
0, 1
1, 1
1, 0
1, 0
0, 1
1, 1
1, 1
1, 0
0, 2
0, 2
2, 0
1, 2
1, 1
0, 0
1, 0
0, 0
0, 1
1, 1
1, 0
1, 2
1, 2
1, 1
1, 2
0, 1
1, 0
2, 2
0, 0
0, 1
3, 1
0, 2
2, 0
0, 2
1, 1
0, 0
1, 1
0, 1
2, 2
0, 1
0, 1
0, 4
2, 1
3, 0
0, 0
0, 2
0, 1
0, 2
2, 0
0, 0
0, 0
0, 2
0, 1
0, 1
1, 0
2, 0
1, 1
0, 1
1, 1
3, 0
0, 1
1, 1
0, 2
1, 0
1, 2
1, 1
0, 0
0, 1
0, 0
0, 1
1, 0
1, 0
0, 0
0, 1
0, 0
2, 0
0, 0
2, 0
0, 1
0, 0
0, 1
0, 0
0, 0
1, 1
0, 1
0, 0
0, 1
1, 0
1, 4
0, 0
0, 2
0, 0
0, 0
0, 0
2, 0
1, 0
1, 0
1, 0
1, 0
2, 1
0, 1
0, 0
0, 0
0, 1
1, 0
1, 0
0, 0
1, 0
1, 0
0, 0
1, 1
1, 0
0, 1
0, 0
1, 2
0, 0
0, 0
0, 0
0, 0
1, 0
0, 1
0, 0
0, 0
1, 0
1, 0
2, 0
0, 0
0, 2
0, 0
0, 0
0, 2
1, 0
0, 0
1, 0
0, 2
1, 0
0, 0
0, 0
0, 0
0, 2
1, 0
0, 0
1, 0
2, 1
1, 2
0, 2
0, 0
1, 0
1, 0
1, 0
0, 1
0, 0
0, 1
0, 0
0, 0
0, 0
0, 0
0, 0
0, 0
0, 0
0, 0
0, 1
0, 0
0, 0
0, 0
0, 0
1, 0
0, 0
0, 1
0, 0
1, 0
0, 1
0, 0
1, 0
0, 0
0, 0
1, 0
0, 1
0, 0
0, 0
0, 0
1, 0
0, 2
1, 0
0, 0
0, 0
0, 1
0, 0
0, 1
0, 0
0, 1
1, 0
0, 0
0, 0
0, 0
0, 0
0, 1
1, 1
0, 0
0, 1
0, 0
2, 0
0, 0
0, 0
1, 0
0, 0
1, 1
0, 0
0, 1
1, 0
0, 0
0, 0
1, 0
1, 0
0, 0
1, 0
0, 0
1, 0
0, 0
0, 1
0, 1
0, 0
0, 0
1, 0
0, 0
1, 0
0, 1
0, 0
0, 0
0, 0
0, 0
0, 0
0, 0
0, 0
0, 0
0, 0
1, 0
0, 0
0, 0
0, 1
0, 0
0, 0
2, 0
0, 1
0, 0
0, 0
0, 0
1, 0
0, 0
1, 0
0, 0
1, 0
0, 0
0, 0
0, 0
0, 0
0, 1
0, 0
0, 0
0, 0
1, 0
0, 0
1, 0
0, 0
0, 0
0, 0
0, 0
0, 0
0, 1
0, 0
0, 0
0, 0
1, 1
0, 0
0, 0
0, 0
0, 2
0, 0
1, 0
0, 1
0, 0
0, 0
0, 1
0, 0
0, 0
0, 0
0, 0
0, 0
0, 0
0, 0
1, 0
0, 0
0, 0
0, 0
0, 0
0, 0
0, 2
0, 0
0, 0
0, 0
0, 0
0, 0
0, 0
0, 0
0, 0
0, 0
0, 0
0, 0
0, 0
0, 0
0, 0
0, 0
0, 0
0, 0
0, 1
0, 0
0, 0
0, 0
0, 0
0, 0
0, 0
0, 0
0, 0
0, 0
0, 0
0, 0
0, 0
0, 0
0, 0
0, 0
0, 0
0, 0
0, 0
0, 0
0, 0
0, 1
0, 0
0, 0
0, 0
0, 0
0, 0
0, 0
0, 0
0, 0
0, 0
0, 0
0, 0
0, 0
0, 0
0, 0
0, 0
0, 0
1, 0
0, 0
0, 0
0, 0
0, 0
0, 0
0, 0
0, 0
0, 0
0, 0
0, 0
0, 0
0, 0
0, 0
0, 0
0, 0
0, 0
0, 0
0, 0
0, 0
0, 0
0, 0
0, 0
0, 0
0, 0
0, 0
0, 0
0, 0
0, 0
0, 0
0, 0
0, 0
0, 0
0, 0
0, 0
0, 0
0, 0
0, 0
0, 0
0, 0
0, 0
0, 0
0, 0
0, 0
0, 0
0, 0
0, 0
0, 0
0, 0
0, 0
0, 0
0, 0
0, 0
0, 0
0, 0
0, 0
0, 0
0, 0
0, 0
0, 0
0, 0
0, 0
0, 0
0, 0
0, 0
0, 0
0, 0
0, 0
0, 0
0, 0
0, 0
0, 0
0, 0
0, 0
0, 0
0, 0
0, 0
0, 0
0, 0
0, 0
0, 0
0, 0
0, 0
0, 0
0, 0
0, 0
0, 0
0, 0
0, 0
0, 0
0, 0
0, 0
0, 0
0, 0
0, 0
0, 0
0, 0
0, 0
0, 0
0, 0
0, 0
0, 0
0, 0
0, 0
0, 0
0, 0
0, 0
0, 0
0, 0
0, 0
0, 0
0, 0
0, 0
0, 0
0, 0
0, 0
0, 0
0, 0
0, 0
0, 0
0, 0
0, 0
0, 0
0, 0
0, 0
0, 0
0, 0
0, 0
0, 0
0, 0
0, 0
0, 0
0, 0
0, 0
0, 0
0, 0
0, 0
0, 0
0, 0
0, 0
0, 0
0, 0
0, 0
0, 0
0, 0
0, 0
0, 0
0, 0
0, 0
0, 0
0, 0
0, 0
0, 0
0, 0
0, 0
0, 0
0, 0
0, 0
0, 0
0, 0
0, 0
0, 0
0, 0
0, 0
0, 0
0, 0
0, 0
0, 0
0, 0
0, 0
0, 0
0, 0
0, 0
0, 0
0, 0
0, 0
0, 0
0, 0
0, 0
0, 0
0, 0
0, 0
0, 0
0, 0
0, 0
0, 0
0, 0
0, 0
0, 0
0, 0
0, 0
0, 0
0, 0
0, 0
0, 0
0, 0
0, 0
0, 0
0, 0
0, 0
0, 0
0, 0
0, 0
0, 0
0, 0
0, 0
0, 0
0, 0
0, 0
0, 0
0, 0
0, 0
0, 0
0, 0
0, 0
0, 0
0, 0
0, 0
0, 0
0, 0
0, 0
0, 0
0, 0
0, 0
0, 0
0, 0
0, 0
0, 0
0, 0
0, 0
0, 0
0, 0
0, 0
0, 0
0, 0
0, 0
0, 0
0, 0
0, 0
0, 0
0, 0
0, 0
0, 0
0, 0
0, 0
0, 0
0, 0
0, 0
0, 0
0, 0
0, 0
0, 0
0, 0
0, 0
0, 0
0, 0
0, 0
0, 0
0, 0
0, 0
0, 0
0, 0
0, 0
0, 0
0, 0
0, 0
0, 0
0, 0
0, 0
0, 0
0, 0
0, 0
0, 0
0, 0
0, 0
0, 0
0, 0
0, 0
0, 0
0, 0
0, 0
0, 0
0, 0
0, 0
0, 0
0, 0
0, 0
0, 0
0, 0
0, 0
0, 0
0, 0
0, 0
0, 0
0, 0
0, 0
0, 0
0, 0
0, 0
0, 0
0, 0
0, 0
0, 0
0, 0
0, 0
0, 0
0, 0
0, 0
0, 0
0, 0
0, 0
0, 0
0, 0
0, 0
0, 0
0, 0
0, 0
0, 0
0, 0
0, 0
0, 0
0, 0
0, 0
0, 0
0, 0
0, 0
0, 0
0, 0
0, 0
0, 0
0, 0
0, 0
0, 0
0, 0
0, 0
0, 0
0, 0
0, 0
0, 0
0, 0
0, 0
0, 0
0, 0
0, 0
0, 0
0, 0
0, 0
0, 0
0, 0
0, 0
0, 0
0, 0
0, 0
0, 0
0, 0
0, 0
0, 0
0, 0
0, 0
0, 0
0, 0
0, 0
0, 0
0, 0
0, 0
0, 0
0, 0
0, 0
0, 0
0, 0
0, 0
0, 0
0, 0
0, 0
0, 0
0, 0
0, 0
0, 0
0, 0
0, 0
0, 0
0, 0
0, 0
0, 0
0, 0
0, 0
0, 0
0, 0
0, 0
0, 0
0, 0
0, 0
0, 0
0, 0
0, 0
0, 0
0, 0
0, 0
0, 0
0, 0
0, 0
0, 0
0, 0
0, 0
#ENDOFDATA     end of spectrum data