File: host_upload/06-09-2024/ps_0852/dump3/ps__0852shot_2516.msa
#FORMAT      : EMSA/MAS spectral data file
#VERSION     : TC202v2.0 PIXL
#TITLE       : N/A
#DATE        :       Date in the format DD-MMM-YYYY, for example 07-JUL-2010
#TIME        :             The time of day at which the spectrum was recorded, in 24-hour format
#OWNER       : PIXL Flight Model       (PIXL will use this to indicate which instrument took the data.)
#NPOINTS     : 4096     Number of data points in the spectrum (This can be zero for configuration only files)
#NCOLUMNS    : 2     Number of data columns in the spectrum (This can be zero for configuration only files)
#XUNITS      : eV
#YUNITS      : COUNTS
#DATATYPE    : YY
#XPERCHAN    : 7.862, 7.881   eV per channel (separate by commas if more than one detector)
#OFFSET      : 18.5, -22.4         eV of first channel  (separate by commas if more than one detector
#SIGNALTYPE  : XRF
#YP_TEMP     : 2.428
#LIVETIME    : 8.54836, 8.56594   seconds (separate by commas if more than one detector)
#REALTIME    : 10, 10.0   seconds (separate by commas if more than one detector)
#SPECTRUM    : start of spectrum data
0, 0
0, 0
0, 0
0, 0
0, 0
0, 0
0, 0
0, 0
0, 0
0, 0
0, 0
0, 0
0, 0
0, 0
0, 0
0, 0
0, 0
0, 0
0, 0
0, 0
0, 0
0, 0
0, 0
0, 0
0, 0
0, 0
0, 0
0, 0
0, 0
0, 0
1, 0
0, 0
0, 1
0, 1
1, 1
2, 3
1, 2
2, 2
0, 4
2, 1
2, 2
4, 3
2, 5
1, 3
3, 0
1, 3
1, 6
5, 6
3, 5
12, 5
22, 20
28, 32
45, 52
61, 68
50, 80
77, 68
53, 42
29, 32
29, 21
15, 17
8, 7
14, 2
3, 0
2, 2
10, 1
4, 5
3, 4
7, 12
13, 23
24, 26
65, 84
98, 135
185, 228
243, 265
247, 295
319, 326
248, 262
170, 208
130, 146
85, 62
47, 47
28, 20
12, 17
5, 7
4, 5
3, 5
9, 9
7, 7
5, 7
5, 3
14, 9
14, 17
35, 32
78, 77
114, 162
275, 262
372, 376
473, 544
548, 555
554, 621
509, 503
388, 436
308, 272
203, 172
108, 108
71, 70
55, 63
48, 49
45, 50
57, 49
64, 73
65, 91
75, 100
92, 90
77, 84
66, 84
56, 77
61, 54
37, 46
36, 35
22, 37
41, 32
26, 27
31, 19
20, 26
19, 17
11, 21
5, 14
9, 15
12, 9
3, 11
3, 5
4, 7
1, 3
4, 1
2, 1
6, 6
6, 2
10, 7
3, 8
9, 5
10, 10
9, 7
4, 9
5, 7
5, 1
6, 7
12, 4
11, 3
10, 5
14, 10
10, 16
21, 17
26, 34
40, 45
61, 66
57, 69
77, 79
67, 82
64, 51
56, 46
26, 31
28, 21
24, 19
11, 18
12, 8
12, 8
17, 6
14, 17
19, 13
12, 21
13, 13
15, 13
13, 16
7, 12
7, 8
9, 5
3, 8
7, 4
3, 5
8, 5
5, 8
0, 5
2, 12
2, 19
4, 34
5, 30
5, 59
6, 66
7, 120
11, 143
13, 154
13, 113
15, 138
9, 78
11, 81
20, 53
20, 28
17, 23
14, 23
10, 13
11, 13
10, 9
8, 4
2, 10
6, 4
3, 10
4, 5
4, 7
3, 8
8, 14
12, 17
7, 11
11, 11
6, 17
3, 5
9, 6
6, 6
6, 8
6, 6
3, 4
6, 14
5, 3
6, 11
1, 8
16, 10
7, 14
19, 16
16, 21
23, 16
16, 16
13, 15
11, 13
14, 15
16, 25
7, 12
13, 5
10, 11
6, 7
8, 5
6, 11
14, 12
11, 8
10, 11
10, 16
18, 28
21, 31
30, 36
51, 52
50, 63
47, 73
59, 73
49, 60
41, 43
40, 39
29, 32
27, 20
25, 22
20, 19
12, 12
12, 16
19, 28
48, 53
84, 113
125, 193
261, 343
420, 606
683, 883
979, 1352
1358, 1747
1763, 2173
2022, 2362
2184, 2429
2141, 2271
1881, 1905
1590, 1503
1175, 1084
851, 697
487, 434
311, 234
172, 117
70, 90
60, 37
33, 22
21, 16
23, 15
13, 14
12, 14
22, 27
20, 27
20, 29
36, 38
51, 64
80, 80
96, 99
143, 173
175, 223
237, 315
297, 292
329, 382
317, 402
302, 317
283, 296
223, 196
187, 170
112, 118
80, 59
67, 42
25, 23
24, 12
8, 12
6, 5
9, 6
8, 12
9, 6
9, 12
15, 16
10, 8
10, 15
10, 18
10, 14
9, 6
7, 3
8, 5
7, 10
5, 2
7, 2
3, 5
4, 7
6, 2
6, 10
6, 1
4, 2
3, 4
4, 5
2, 7
4, 2
6, 5
1, 1
10, 8
3, 1
6, 2
8, 9
4, 7
4, 3
6, 9
4, 10
6, 9
6, 11
2, 5
5, 12
4, 9
7, 14
4, 11
3, 10
1, 14
4, 11
2, 9
4, 7
3, 9
5, 10
4, 5
5, 7
8, 8
6, 6
7, 3
4, 3
3, 8
5, 8
4, 7
6, 4
6, 7
6, 4
4, 8
5, 8
2, 11
8, 10
4, 7
1, 10
1, 7
5, 9
4, 8
7, 17
1, 10
7, 9
4, 6
7, 18
8, 10
1, 10
5, 18
2, 11
2, 13
5, 8
5, 6
6, 7
1, 8
4, 3
2, 4
2, 1
3, 5
3, 4
6, 2
4, 4
4, 4
3, 3
5, 3
6, 3
5, 2
4, 2
6, 3
2, 9
2, 3
4, 5
3, 1
3, 5
6, 1
7, 0
3, 1
5, 8
1, 2
7, 1
5, 2
2, 2
1, 3
4, 4
4, 2
4, 3
10, 6
5, 8
9, 7
6, 3
3, 4
1, 5
3, 3
2, 6
4, 5
4, 4
2, 2
5, 4
2, 2
3, 3
5, 6
2, 5
3, 4
4, 2
2, 1
4, 4
1, 2
2, 2
5, 1
2, 2
2, 4
4, 4
2, 2
2, 3
2, 1
2, 6
2, 3
6, 2
4, 3
2, 0
2, 1
3, 4
1, 2
1, 1
3, 7
3, 1
5, 3
4, 4
3, 5
5, 5
1, 2
2, 6
2, 8
3, 1
1, 4
4, 3
2, 2
3, 1
5, 3
5, 4
3, 1
3, 1
1, 0
4, 3
1, 1
1, 6
2, 1
2, 0
0, 3
0, 3
2, 2
1, 2
2, 2
2, 4
3, 2
2, 3
2, 2
3, 5
1, 2
4, 2
3, 1
2, 2
0, 2
1, 1
4, 1
1, 1
0, 1
0, 4
5, 0
2, 2
1, 3
4, 1
2, 0
0, 0
1, 3
2, 1
4, 2
3, 2
1, 1
3, 1
1, 0
1, 4
1, 2
1, 1
2, 1
0, 0
3, 2
1, 2
3, 3
0, 2
4, 2
1, 1
0, 3
2, 0
2, 6
5, 3
0, 3
2, 3
1, 4
3, 4
4, 6
6, 3
5, 2
4, 3
5, 6
2, 1
3, 6
2, 2
5, 1
3, 3
3, 3
0, 1
3, 1
4, 0
4, 1
0, 2
1, 0
4, 1
2, 1
3, 2
2, 2
4, 0
2, 4
2, 1
1, 2
1, 2
1, 3
2, 4
1, 0
2, 2
1, 0
1, 3
1, 1
0, 3
1, 2
0, 3
2, 2
1, 3
0, 6
2, 1
3, 4
1, 2
1, 2
0, 1
2, 1
1, 2
3, 5
3, 1
1, 1
1, 2
1, 4
1, 1
0, 4
1, 0
1, 0
2, 1
1, 3
0, 1
1, 0
2, 0
1, 1
2, 1
2, 0
1, 1
1, 0
0, 2
1, 1
1, 2
0, 0
1, 0
0, 2
3, 0
1, 1
0, 0
0, 0
0, 1
1, 1
1, 1
0, 2
0, 0
0, 0
1, 1
0, 2
0, 1
0, 0
0, 2
1, 1
0, 2
2, 2
1, 0
0, 0
0, 0
1, 3
2, 0
0, 0
1, 0
0, 0
0, 0
0, 0
1, 1
0, 1
2, 1
1, 3
1, 0
0, 1
0, 0
0, 1
0, 0
0, 1
1, 1
1, 0
1, 2
0, 0
0, 1
0, 0
0, 0
2, 0
0, 2
2, 1
0, 1
0, 1
0, 0
0, 0
1, 1
1, 1
2, 1
2, 0
1, 0
0, 2
0, 1
0, 0
0, 0
0, 1
0, 0
1, 1
0, 1
1, 1
0, 1
0, 0
1, 0
0, 1
1, 1
0, 1
0, 3
1, 0
0, 0
1, 1
0, 1
0, 1
1, 1
0, 0
0, 1
0, 1
0, 1
0, 1
0, 0
0, 0
1, 2
0, 0
0, 0
0, 2
0, 0
1, 0
0, 0
0, 0
0, 0
0, 0
0, 2
1, 1
1, 1
0, 0
2, 0
0, 0
0, 0
0, 0
0, 0
0, 0
0, 1
0, 0
1, 0
1, 0
0, 1
1, 0
1, 0
0, 1
1, 0
1, 0
0, 0
0, 0
1, 1
0, 0
0, 0
0, 0
0, 0
0, 0
0, 0
0, 0
1, 0
0, 0
0, 0
0, 0
0, 0
0, 3
0, 0
0, 0
0, 0
0, 0
0, 1
0, 1
0, 1
0, 1
1, 0
0, 0
0, 0
1, 0
0, 1
0, 0
0, 1
0, 0
0, 0
0, 0
0, 0
1, 0
0, 0
0, 1
0, 0
1, 0
0, 0
0, 0
0, 0
1, 1
0, 0
1, 0
1, 0
0, 0
0, 1
0, 1
0, 1
1, 0
1, 0
0, 1
0, 0
0, 1
1, 0
1, 0
0, 0
0, 2
0, 0
0, 0
0, 0
0, 1
0, 0
0, 1
0, 1
1, 0
0, 0
0, 1
0, 0
0, 0
0, 0
0, 0
2, 0
1, 0
0, 0
0, 0
0, 0
0, 0
1, 0
0, 0
0, 0
0, 1
2, 0
0, 0
0, 0
0, 2
0, 0
0, 0
0, 0
0, 0
0, 0
1, 0
0, 0
0, 0
1, 1
0, 0
0, 1
0, 0
0, 0
0, 0
0, 0
0, 0
0, 0
0, 0
0, 0
0, 1
0, 0
0, 0
1, 0
0, 0
0, 0
0, 0
0, 0
0, 1
0, 0
0, 0
0, 0
0, 1
0, 0
1, 0
1, 0
0, 0
0, 0
0, 0
0, 1
0, 0
0, 0
0, 0
0, 0
1, 0
0, 0
0, 0
1, 0
0, 1
0, 0
0, 0
0, 0
1, 0
0, 0
0, 0
0, 0
0, 0
0, 0
0, 0
0, 0
0, 0
0, 0
0, 0
0, 0
0, 0
0, 0
0, 0
0, 0
0, 0
0, 0
0, 0
0, 0
0, 0
0, 0
0, 0
0, 0
0, 0
0, 0
0, 0
0, 0
0, 0
0, 0
0, 1
0, 0
0, 1
0, 0
1, 0
1, 0
0, 0
0, 0
0, 0
1, 0
0, 0
0, 0
0, 0
0, 0
0, 0
0, 0
0, 0
0, 0
1, 0
0, 0
1, 0
0, 0
0, 0
0, 0
0, 0
0, 0
0, 0
0, 0
0, 0
0, 0
0, 0
0, 0
0, 0
0, 0
1, 0
0, 0
1, 0
0, 0
0, 1
0, 0
0, 0
0, 0
0, 0
0, 0
0, 1
0, 0
0, 0
0, 0
0, 0
0, 0
0, 0
0, 0
0, 0
0, 0
0, 0
0, 0
0, 0
0, 0
0, 0
0, 0
0, 0
0, 0
0, 0
0, 0
0, 0
0, 0
0, 0
0, 0
0, 0
0, 0
0, 0
0, 0
0, 0
0, 0
0, 0
0, 0
0, 0
0, 0
0, 0
0, 0
0, 0
0, 0
0, 0
0, 0
0, 0
0, 0
0, 0
0, 0
0, 0
0, 0
0, 0
0, 0
0, 0
0, 0
0, 0
0, 0
0, 0
0, 0
0, 0
0, 0
0, 0
0, 0
0, 0
0, 0
0, 0
0, 0
0, 0
0, 0
0, 0
0, 0
0, 0
0, 0
0, 0
0, 0
0, 0
0, 0
0, 0
0, 0
0, 0
0, 0
0, 0
0, 0
0, 0
0, 0
0, 0
0, 0
0, 0
0, 0
0, 0
0, 0
0, 0
0, 0
0, 0
0, 0
0, 0
0, 0
0, 0
0, 0
0, 0
0, 0
0, 0
0, 0
0, 0
0, 0
0, 0
0, 0
0, 0
0, 0
0, 0
0, 0
0, 0
0, 0
0, 0
0, 0
0, 0
0, 0
0, 0
0, 0
0, 0
0, 0
0, 0
0, 0
0, 0
0, 0
0, 0
0, 0
0, 0
0, 0
0, 0
0, 0
0, 0
0, 0
0, 0
0, 0
0, 0
0, 0
0, 0
0, 0
0, 0
0, 0
0, 0
0, 0
0, 0
0, 0
0, 0
0, 0
0, 0
0, 0
0, 0
0, 0
0, 0
0, 0
0, 0
0, 0
0, 0
0, 0
0, 0
0, 0
0, 0
0, 0
0, 0
0, 0
0, 0
0, 0
0, 0
0, 0
0, 0
0, 0
0, 0
0, 0
0, 0
0, 0
0, 0
0, 0
0, 0
0, 0
0, 0
0, 0
0, 0
0, 0
0, 0
0, 0
0, 0
0, 0
0, 0
0, 0
0, 0
0, 0
0, 0
0, 0
0, 0
0, 0
0, 0
0, 0
0, 0
0, 0
0, 0
0, 0
0, 0
0, 0
0, 0
0, 0
0, 0
0, 0
0, 0
0, 0
0, 0
0, 0
0, 0
0, 0
0, 0
0, 0
0, 0
0, 0
0, 0
0, 0
0, 0
0, 0
0, 0
0, 0
0, 0
0, 0
0, 0
0, 0
0, 0
0, 0
0, 0
0, 0
0, 0
0, 0
0, 0
0, 0
0, 0
0, 0
0, 0
0, 0
0, 0
0, 0
0, 0
0, 0
0, 0
0, 0
0, 0
0, 0
0, 0
0, 0
0, 0
0, 0
0, 0
0, 0
0, 0
0, 0
0, 0
0, 0
0, 0
0, 0
0, 0
0, 0
0, 0
0, 0
0, 0
0, 0
0, 0
0, 0
0, 0
0, 0
0, 0
0, 0
0, 0
0, 0
0, 0
0, 0
0, 0
0, 0
0, 0
0, 0
0, 0
0, 0
0, 0
0, 0
0, 0
0, 0
0, 0
0, 0
0, 0
0, 0
0, 0
0, 0
0, 0
0, 0
0, 0
0, 0
0, 0
0, 0
0, 0
0, 0
0, 0
0, 0
0, 0
0, 0
0, 0
0, 0
0, 0
0, 0
0, 0
0, 0
0, 0
0, 0
0, 0
0, 0
0, 0
0, 0
0, 0
0, 0
0, 0
0, 0
0, 0
0, 0
0, 0
0, 0
0, 0
0, 0
0, 0
0, 0
0, 0
0, 0
0, 0
0, 0
0, 0
0, 0
0, 0
0, 0
0, 0
0, 0
0, 0
0, 0
0, 0
0, 0
0, 0
0, 0
0, 0
0, 0
0, 0
0, 0
0, 0
0, 0
0, 0
0, 0
0, 0
0, 0
0, 0
0, 0
0, 0
0, 0
0, 0
0, 0
0, 0
0, 0
0, 0
0, 0
0, 0
0, 0
0, 0
0, 0
0, 0
0, 0
0, 0
0, 0
0, 0
0, 0
0, 0
0, 0
0, 0
0, 0
0, 0
0, 0
0, 0
0, 0
0, 0
0, 0
0, 0
0, 0
0, 0
0, 0
0, 0
0, 0
0, 0
0, 0
0, 0
0, 0
0, 0
0, 0
0, 0
0, 0
0, 0
0, 0
0, 0
0, 0
0, 0
0, 0
0, 0
0, 0
0, 0
0, 0
0, 0
0, 0
0, 0
0, 0
0, 0
0, 0
0, 0
0, 0
0, 0
0, 0
0, 0
0, 0
0, 0
0, 0
0, 0
0, 0
0, 0
0, 0
0, 0
0, 0
0, 0
0, 0
0, 0
0, 0
0, 0
#ENDOFDATA     end of spectrum data