File: host_upload/06-09-2024/ps_0852/dump3/ps__0852shot_2320.msa
#FORMAT      : EMSA/MAS spectral data file
#VERSION     : TC202v2.0 PIXL
#TITLE       : N/A
#DATE        :       Date in the format DD-MMM-YYYY, for example 07-JUL-2010
#TIME        :             The time of day at which the spectrum was recorded, in 24-hour format
#OWNER       : PIXL Flight Model       (PIXL will use this to indicate which instrument took the data.)
#NPOINTS     : 4096     Number of data points in the spectrum (This can be zero for configuration only files)
#NCOLUMNS    : 2     Number of data columns in the spectrum (This can be zero for configuration only files)
#XUNITS      : eV
#YUNITS      : COUNTS
#DATATYPE    : YY
#XPERCHAN    : 7.862, 7.881   eV per channel (separate by commas if more than one detector)
#OFFSET      : 18.5, -22.4         eV of first channel  (separate by commas if more than one detector
#SIGNALTYPE  : XRF
#YP_TEMP     : 2.46
#LIVETIME    : 8.55963, 8.54408   seconds (separate by commas if more than one detector)
#REALTIME    : 10, 10.0   seconds (separate by commas if more than one detector)
#SPECTRUM    : start of spectrum data
0, 0
0, 0
0, 0
0, 0
0, 0
0, 0
0, 0
0, 0
0, 0
0, 0
0, 0
0, 0
0, 0
0, 0
0, 0
0, 0
0, 0
0, 0
0, 0
0, 0
0, 0
0, 0
0, 0
0, 0
0, 0
0, 0
0, 0
0, 0
0, 0
0, 0
0, 1
0, 0
1, 0
0, 0
0, 0
0, 1
1, 0
0, 0
1, 1
2, 2
1, 3
1, 1
1, 0
1, 1
3, 0
1, 0
3, 1
4, 2
5, 6
12, 7
25, 17
35, 26
49, 62
62, 67
81, 48
62, 61
54, 39
31, 29
17, 22
9, 11
4, 7
3, 2
3, 3
3, 6
6, 2
5, 1
4, 4
6, 8
20, 19
54, 37
93, 103
155, 153
288, 240
330, 330
437, 404
405, 378
348, 355
297, 235
206, 206
133, 108
68, 56
34, 41
24, 24
11, 4
2, 8
4, 1
5, 3
2, 1
2, 3
4, 2
0, 0
2, 1
3, 1
3, 3
2, 5
9, 5
4, 5
6, 7
9, 4
8, 3
3, 4
3, 9
4, 4
3, 2
3, 6
4, 6
3, 7
12, 9
20, 8
36, 23
46, 46
55, 66
64, 64
78, 70
69, 77
78, 74
69, 70
58, 37
51, 41
41, 31
35, 23
34, 28
21, 31
15, 30
22, 23
22, 27
19, 22
12, 24
11, 25
11, 12
13, 11
3, 6
6, 1
3, 5
4, 3
7, 3
2, 2
5, 2
4, 3
4, 4
6, 2
2, 5
4, 2
4, 1
0, 3
4, 1
4, 1
2, 4
9, 0
4, 2
8, 6
9, 8
15, 10
24, 19
35, 26
48, 29
58, 31
49, 31
42, 27
45, 32
40, 23
41, 18
22, 18
17, 9
22, 4
36, 6
47, 10
59, 8
60, 5
79, 9
88, 9
70, 8
57, 7
49, 11
36, 5
25, 7
19, 3
13, 8
5, 14
8, 7
6, 6
15, 8
6, 12
4, 4
3, 4
8, 0
8, 8
7, 7
8, 8
9, 5
11, 8
16, 11
19, 7
6, 10
16, 13
11, 12
11, 13
18, 11
17, 18
18, 15
26, 10
32, 17
40, 9
46, 5
47, 12
45, 5
55, 7
59, 6
55, 6
34, 4
27, 8
24, 4
25, 6
11, 6
2, 4
7, 10
7, 10
6, 11
5, 18
8, 12
6, 5
7, 14
5, 9
9, 6
8, 7
9, 15
6, 15
12, 15
20, 20
19, 24
28, 22
14, 17
10, 8
25, 9
15, 16
25, 12
17, 10
13, 11
21, 7
10, 4
9, 8
14, 14
6, 7
19, 6
26, 17
16, 23
31, 22
41, 39
52, 30
62, 60
79, 58
82, 62
82, 68
55, 43
49, 39
34, 39
21, 26
13, 14
18, 16
12, 15
19, 21
34, 26
40, 54
78, 89
149, 188
275, 373
513, 585
807, 949
1183, 1321
1587, 1733
1959, 2059
2235, 2294
2427, 2363
2362, 2232
2124, 1843
1726, 1423
1377, 1055
956, 711
612, 444
350, 268
207, 150
108, 72
48, 44
38, 22
17, 16
8, 14
17, 17
17, 12
19, 22
17, 29
27, 32
33, 33
45, 51
66, 83
108, 144
155, 165
158, 221
283, 288
313, 327
338, 315
371, 335
348, 326
310, 260
266, 205
180, 149
171, 102
78, 58
65, 36
36, 26
20, 8
12, 3
10, 6
12, 4
9, 12
17, 11
15, 7
10, 14
13, 7
13, 14
17, 10
13, 14
16, 13
13, 12
14, 10
5, 11
7, 9
3, 8
8, 6
3, 6
8, 6
12, 6
15, 3
30, 6
38, 4
26, 4
23, 2
29, 6
26, 5
21, 10
17, 7
33, 5
21, 0
29, 7
31, 7
23, 5
17, 7
11, 9
6, 6
9, 7
5, 6
7, 9
7, 8
5, 7
9, 6
6, 3
3, 4
8, 3
3, 4
4, 3
2, 5
5, 5
3, 7
4, 5
4, 3
1, 4
6, 4
1, 4
5, 5
4, 2
2, 11
1, 1
6, 4
8, 5
4, 4
3, 3
7, 3
8, 2
3, 3
4, 4
2, 4
4, 3
4, 4
9, 4
3, 4
4, 1
8, 3
4, 1
4, 1
3, 4
3, 6
3, 4
5, 2
10, 2
3, 1
3, 2
3, 4
5, 0
3, 2
5, 3
4, 4
1, 5
4, 4
6, 0
7, 0
7, 2
6, 8
3, 3
4, 5
11, 3
6, 2
3, 1
7, 3
4, 2
4, 1
1, 4
5, 4
4, 4
3, 6
5, 3
2, 4
2, 5
5, 2
4, 1
6, 2
0, 3
4, 6
5, 4
5, 1
1, 2
5, 0
3, 2
3, 3
3, 3
3, 4
3, 4
4, 1
3, 2
2, 2
1, 1
3, 2
6, 6
5, 7
1, 4
2, 5
9, 2
3, 2
3, 0
2, 5
4, 5
2, 1
6, 3
4, 3
3, 1
2, 2
3, 3
6, 4
3, 1
4, 1
2, 2
3, 4
1, 3
0, 0
2, 3
3, 2
4, 2
4, 2
4, 4
8, 1
2, 1
0, 1
3, 2
1, 1
3, 2
1, 5
1, 6
2, 6
2, 6
7, 2
0, 1
0, 3
2, 2
5, 6
4, 4
2, 4
2, 4
3, 3
1, 0
1, 2
2, 2
6, 5
2, 1
3, 4
2, 5
3, 2
4, 3
4, 2
2, 1
1, 4
2, 2
2, 3
3, 3
1, 0
1, 1
6, 1
2, 6
4, 5
5, 2
6, 2
4, 1
3, 0
4, 1
2, 3
5, 2
3, 0
4, 2
0, 1
1, 0
1, 3
2, 2
0, 2
0, 2
0, 1
1, 1
1, 2
2, 4
2, 1
2, 2
1, 4
4, 1
2, 5
1, 4
1, 4
2, 3
2, 1
3, 1
3, 5
5, 3
1, 1
1, 0
4, 1
4, 2
6, 5
7, 5
3, 7
5, 7
7, 2
7, 5
5, 8
3, 1
1, 1
4, 1
3, 2
4, 2
0, 1
1, 1
1, 3
6, 1
1, 1
3, 1
3, 0
2, 4
0, 2
2, 3
2, 2
0, 0
0, 2
1, 5
0, 1
2, 2
1, 1
1, 2
0, 3
0, 1
2, 1
1, 0
4, 2
1, 2
0, 0
1, 1
2, 0
1, 1
2, 1
0, 2
2, 1
1, 1
3, 1
0, 1
1, 1
1, 1
0, 2
0, 2
2, 0
0, 0
3, 0
2, 1
1, 1
1, 1
0, 0
2, 2
0, 0
1, 0
3, 1
0, 1
0, 0
0, 2
0, 2
2, 0
1, 0
3, 0
0, 1
1, 2
3, 0
1, 0
0, 0
1, 0
3, 1
1, 0
1, 1
0, 0
0, 1
0, 1
1, 1
0, 1
0, 0
2, 1
1, 1
2, 0
0, 0
1, 0
4, 0
1, 2
1, 0
1, 2
1, 0
4, 0
1, 1
0, 2
2, 1
0, 1
4, 0
1, 0
2, 0
0, 1
0, 2
0, 1
1, 0
0, 0
2, 1
0, 4
0, 3
0, 0
0, 1
0, 1
2, 0
0, 0
0, 0
1, 1
1, 1
1, 0
0, 1
0, 1
0, 1
0, 0
1, 0
1, 1
2, 0
1, 3
3, 0
1, 0
1, 0
0, 0
2, 0
1, 1
1, 0
0, 0
3, 1
0, 1
0, 1
0, 0
1, 0
1, 0
0, 0
0, 0
0, 0
1, 0
0, 2
1, 0
1, 0
0, 0
1, 0
0, 0
1, 0
0, 1
1, 1
1, 0
2, 1
0, 0
0, 1
0, 0
0, 0
0, 0
0, 1
1, 0
0, 0
2, 0
0, 0
0, 0
0, 1
0, 0
1, 0
0, 0
0, 4
0, 0
0, 0
0, 1
0, 0
0, 1
1, 0
0, 0
1, 0
0, 0
0, 0
1, 0
0, 0
1, 0
0, 0
0, 0
2, 0
0, 1
0, 0
1, 0
0, 0
0, 0
1, 0
0, 0
0, 1
3, 0
0, 0
2, 0
0, 0
0, 0
0, 3
0, 0
1, 0
0, 1
0, 0
0, 0
1, 0
1, 0
0, 0
0, 0
1, 0
0, 1
1, 1
0, 1
0, 0
0, 0
0, 1
0, 1
0, 0
2, 0
0, 0
1, 0
0, 0
0, 0
0, 0
0, 0
0, 0
0, 1
0, 0
2, 0
1, 0
0, 0
0, 1
0, 0
0, 0
1, 0
0, 0
0, 1
1, 0
0, 0
0, 0
0, 0
0, 0
1, 0
1, 1
1, 0
0, 0
0, 0
0, 2
0, 0
0, 0
1, 0
0, 0
0, 0
1, 0
0, 0
1, 0
0, 0
0, 1
2, 0
2, 1
0, 0
0, 0
0, 0
0, 0
0, 0
0, 1
0, 0
0, 1
0, 1
0, 2
0, 0
0, 0
1, 0
0, 0
0, 0
0, 0
0, 0
0, 0
0, 0
0, 0
0, 0
0, 0
0, 0
0, 0
0, 1
0, 0
0, 0
0, 0
0, 0
0, 0
0, 0
0, 0
0, 0
0, 1
1, 1
0, 0
1, 0
0, 0
0, 0
0, 1
0, 0
0, 2
0, 0
0, 0
0, 0
0, 0
0, 0
0, 0
0, 1
0, 0
1, 0
0, 2
0, 0
0, 1
0, 0
1, 0
0, 1
0, 0
0, 0
0, 0
0, 0
1, 0
0, 0
0, 0
0, 0
0, 0
1, 0
0, 0
0, 0
0, 0
0, 0
0, 0
0, 0
1, 0
0, 0
1, 0
1, 0
0, 0
0, 0
0, 0
0, 0
0, 0
0, 0
0, 0
0, 0
0, 0
0, 0
0, 0
0, 0
0, 0
0, 0
0, 0
0, 0
0, 0
0, 0
0, 0
0, 0
0, 0
0, 0
0, 0
0, 0
0, 0
0, 0
0, 1
0, 0
1, 0
0, 0
0, 0
0, 0
0, 0
0, 0
0, 0
0, 0
0, 0
0, 0
0, 0
0, 0
1, 1
0, 0
0, 0
0, 0
1, 0
1, 0
0, 0
0, 0
0, 0
0, 0
0, 0
0, 0
0, 0
0, 0
0, 0
0, 0
0, 0
0, 0
0, 0
0, 0
0, 0
0, 0
0, 0
0, 0
0, 0
0, 0
0, 0
0, 0
0, 0
0, 0
0, 0
0, 0
0, 0
0, 0
0, 0
0, 0
0, 0
0, 0
0, 0
0, 0
0, 0
0, 0
0, 0
0, 0
0, 0
0, 0
0, 0
0, 0
0, 0
0, 0
0, 0
0, 0
0, 0
0, 0
0, 0
0, 0
0, 0
0, 0
0, 0
0, 0
0, 0
0, 0
0, 0
0, 0
0, 0
0, 0
0, 0
0, 0
0, 0
0, 0
0, 0
0, 0
0, 0
0, 0
0, 0
0, 0
0, 0
0, 1
0, 0
0, 0
0, 0
0, 0
0, 0
0, 0
0, 0
0, 0
0, 0
0, 0
0, 0
0, 0
0, 0
0, 0
0, 0
0, 0
0, 0
0, 0
0, 0
0, 0
0, 0
0, 0
0, 0
0, 0
0, 0
0, 0
0, 0
0, 0
0, 0
0, 0
0, 0
0, 0
0, 0
0, 0
0, 0
0, 0
0, 0
0, 0
0, 0
0, 0
0, 0
0, 0
0, 0
0, 0
0, 0
0, 0
0, 0
0, 0
0, 0
0, 0
0, 0
0, 0
0, 0
0, 0
0, 0
0, 0
0, 0
0, 0
0, 0
0, 0
0, 0
0, 0
0, 0
0, 0
0, 0
0, 0
0, 0
0, 0
0, 0
0, 0
0, 0
0, 0
0, 0
0, 0
0, 0
0, 0
0, 0
0, 0
0, 0
0, 0
0, 0
0, 0
0, 0
0, 0
0, 0
0, 0
0, 0
0, 0
0, 0
0, 0
0, 0
0, 0
0, 0
0, 0
0, 0
0, 0
0, 0
0, 0
0, 0
0, 0
0, 0
0, 0
0, 0
0, 0
0, 0
0, 0
0, 0
0, 0
0, 0
0, 0
0, 0
0, 0
0, 0
0, 0
0, 0
0, 0
0, 0
0, 0
0, 0
0, 0
0, 0
0, 0
0, 0
0, 0
0, 0
0, 0
0, 0
0, 0
0, 0
0, 0
0, 0
0, 0
0, 0
0, 0
0, 0
0, 0
0, 0
0, 0
0, 0
0, 0
0, 0
0, 0
0, 0
0, 0
0, 0
0, 0
0, 0
0, 0
0, 0
0, 0
0, 0
0, 0
0, 0
0, 0
0, 0
0, 0
0, 0
0, 0
0, 0
0, 0
0, 0
0, 0
0, 0
0, 0
0, 0
0, 0
0, 0
0, 0
0, 0
0, 0
0, 0
0, 0
0, 0
0, 0
0, 0
0, 0
0, 0
0, 0
0, 0
0, 0
0, 0
0, 0
0, 0
0, 0
0, 0
0, 0
0, 0
0, 0
0, 0
0, 0
0, 0
0, 0
0, 0
0, 0
0, 0
0, 0
0, 0
0, 0
0, 0
0, 0
0, 0
0, 0
0, 0
0, 0
0, 0
0, 0
0, 0
0, 0
0, 0
0, 0
0, 0
0, 0
0, 0
0, 0
0, 0
0, 0
0, 0
0, 0
0, 0
0, 0
0, 0
0, 0
0, 0
0, 0
0, 0
0, 0
0, 0
0, 0
0, 0
0, 0
0, 0
0, 0
0, 0
0, 0
0, 0
0, 0
0, 0
0, 0
0, 0
0, 0
0, 0
0, 0
0, 0
0, 0
0, 0
0, 0
0, 0
0, 0
0, 0
0, 0
0, 0
0, 0
0, 0
0, 0
0, 0
0, 0
0, 0
0, 0
0, 0
0, 0
0, 0
0, 0
0, 0
0, 0
0, 0
0, 0
0, 0
0, 0
0, 0
0, 0
0, 0
0, 0
0, 0
0, 0
0, 0
0, 0
0, 0
0, 0
0, 0
0, 0
0, 0
0, 0
0, 0
0, 0
0, 0
0, 0
0, 0
0, 0
0, 0
0, 0
0, 0
0, 0
0, 0
0, 0
0, 0
0, 0
0, 0
0, 0
0, 0
0, 0
0, 0
0, 0
0, 0
0, 0
0, 0
0, 0
0, 0
0, 0
0, 0
0, 0
0, 0
0, 0
0, 0
0, 0
0, 0
0, 0
0, 0
0, 0
0, 0
0, 0
0, 0
0, 0
0, 0
0, 0
0, 0
0, 0
0, 0
0, 0
0, 0
0, 0
0, 0
0, 0
0, 0
0, 0
0, 0
0, 0
0, 0
0, 0
0, 0
0, 0
0, 0
0, 0
0, 0
0, 0
0, 0
0, 0
0, 0
0, 0
0, 0
0, 0
0, 0
0, 0
0, 0
0, 0
0, 0
0, 0
0, 0
0, 0
0, 0
0, 0
0, 0
0, 0
0, 0
0, 0
0, 0
0, 0
0, 0
0, 0
0, 0
#ENDOFDATA     end of spectrum data