File: host_upload/06-09-2024/ps_0852/dump3/ps__0852shot_2116.msa
#FORMAT      : EMSA/MAS spectral data file
#VERSION     : TC202v2.0 PIXL
#TITLE       : N/A
#DATE        :       Date in the format DD-MMM-YYYY, for example 07-JUL-2010
#TIME        :             The time of day at which the spectrum was recorded, in 24-hour format
#OWNER       : PIXL Flight Model       (PIXL will use this to indicate which instrument took the data.)
#NPOINTS     : 4096     Number of data points in the spectrum (This can be zero for configuration only files)
#NCOLUMNS    : 2     Number of data columns in the spectrum (This can be zero for configuration only files)
#XUNITS      : eV
#YUNITS      : COUNTS
#DATATYPE    : YY
#XPERCHAN    : 7.862, 7.881   eV per channel (separate by commas if more than one detector)
#OFFSET      : 18.5, -22.4         eV of first channel  (separate by commas if more than one detector
#SIGNALTYPE  : XRF
#YP_TEMP     : 2.332
#LIVETIME    : 8.5414, 8.56115   seconds (separate by commas if more than one detector)
#REALTIME    : 10, 10.0   seconds (separate by commas if more than one detector)
#SPECTRUM    : start of spectrum data
0, 0
0, 0
0, 0
0, 0
0, 0
0, 0
0, 0
0, 0
0, 0
0, 0
0, 0
0, 0
0, 0
0, 0
0, 0
0, 0
0, 0
0, 0
0, 0
0, 0
0, 0
0, 0
0, 0
0, 0
0, 0
0, 0
0, 0
0, 0
0, 0
0, 0
0, 0
0, 0
0, 0
1, 0
0, 1
1, 0
0, 0
1, 2
0, 1
3, 1
2, 2
0, 1
0, 0
1, 1
0, 1
1, 1
2, 1
1, 0
6, 8
15, 10
18, 25
23, 40
65, 44
70, 69
77, 82
67, 48
53, 51
39, 51
31, 33
12, 14
5, 6
4, 6
9, 2
8, 5
9, 2
6, 8
3, 4
3, 15
25, 25
40, 42
82, 98
146, 175
235, 257
325, 340
378, 381
360, 403
341, 348
255, 283
180, 176
117, 106
59, 65
38, 44
19, 26
10, 10
3, 7
6, 6
3, 4
0, 2
3, 3
1, 6
6, 4
4, 5
12, 15
17, 31
34, 42
56, 90
91, 115
126, 152
136, 172
141, 158
122, 164
107, 123
58, 85
51, 59
38, 32
30, 29
17, 23
19, 14
19, 19
20, 23
35, 32
48, 39
52, 40
50, 42
61, 52
56, 48
56, 53
47, 39
40, 36
37, 31
27, 25
28, 17
17, 27
14, 19
15, 13
20, 19
15, 11
21, 13
3, 7
11, 6
1, 5
6, 1
3, 4
3, 5
3, 1
3, 4
0, 4
3, 3
1, 7
4, 8
5, 3
1, 3
5, 3
4, 2
2, 6
3, 2
7, 2
30, 1
27, 5
43, 1
50, 6
64, 5
72, 5
81, 7
82, 13
55, 15
49, 21
41, 17
24, 16
14, 13
16, 11
11, 11
8, 5
2, 8
1, 2
4, 7
4, 6
2, 7
4, 6
3, 7
2, 3
6, 7
2, 7
7, 8
5, 8
4, 3
7, 9
8, 9
11, 5
6, 17
2, 10
5, 7
4, 5
3, 4
4, 7
4, 10
4, 4
9, 8
4, 7
10, 4
5, 13
6, 10
12, 15
10, 15
12, 8
10, 16
8, 22
11, 14
19, 11
17, 20
10, 17
17, 20
6, 14
6, 9
7, 6
3, 7
4, 9
8, 10
11, 7
2, 8
9, 7
3, 4
7, 6
8, 10
8, 5
8, 6
15, 8
9, 12
32, 5
41, 5
58, 6
93, 3
106, 5
146, 18
143, 5
163, 6
164, 13
159, 10
147, 9
112, 10
104, 12
70, 11
51, 19
38, 11
41, 15
17, 21
12, 40
6, 51
7, 72
4, 90
9, 132
9, 105
14, 115
10, 114
8, 107
15, 102
31, 74
37, 86
49, 83
65, 77
46, 72
50, 90
56, 65
55, 56
30, 37
31, 29
27, 28
26, 17
24, 24
22, 13
29, 21
29, 38
61, 45
80, 111
163, 195
271, 349
444, 579
742, 934
1101, 1363
1554, 1831
1790, 2065
2168, 2442
2308, 2461
2197, 2238
2041, 1976
1702, 1512
1249, 1149
886, 750
571, 484
335, 284
195, 162
108, 74
61, 51
33, 30
21, 27
14, 17
18, 21
13, 11
16, 24
22, 29
22, 30
32, 37
45, 73
68, 92
99, 117
137, 188
218, 232
254, 297
308, 347
332, 367
330, 324
327, 336
272, 296
248, 237
188, 179
129, 128
113, 68
50, 47
36, 24
15, 31
9, 15
12, 14
9, 11
5, 11
11, 9
10, 19
15, 10
11, 17
18, 15
14, 11
14, 11
7, 7
8, 12
8, 5
7, 12
4, 5
2, 7
5, 10
10, 5
2, 1
1, 1
4, 3
3, 5
6, 3
3, 7
7, 3
4, 2
1, 7
3, 4
3, 1
7, 3
5, 5
3, 3
6, 4
5, 8
3, 7
2, 6
4, 7
7, 12
4, 4
5, 2
4, 6
6, 11
2, 7
5, 4
4, 6
4, 2
7, 3
7, 7
6, 8
2, 0
4, 3
8, 2
6, 7
3, 8
5, 3
5, 3
7, 4
5, 0
8, 2
2, 4
8, 1
10, 9
3, 2
9, 5
10, 5
8, 3
11, 3
14, 4
14, 12
6, 3
10, 2
6, 8
10, 5
6, 4
5, 2
10, 6
9, 5
4, 3
5, 6
4, 5
5, 9
7, 3
1, 3
5, 9
6, 9
4, 9
3, 1
4, 1
2, 3
3, 6
5, 4
3, 3
3, 4
4, 3
2, 5
4, 4
3, 3
8, 6
4, 8
4, 7
6, 2
2, 4
5, 6
1, 2
2, 7
9, 1
4, 3
6, 4
4, 8
6, 4
5, 2
5, 3
13, 5
6, 6
8, 3
10, 5
9, 4
5, 6
13, 5
5, 8
5, 3
6, 2
1, 2
4, 2
3, 7
0, 5
5, 7
2, 4
3, 5
5, 5
2, 2
2, 2
0, 3
4, 1
4, 5
6, 3
7, 1
3, 4
4, 2
10, 3
8, 3
14, 4
11, 4
10, 3
10, 3
2, 5
8, 2
7, 4
5, 4
1, 3
3, 4
4, 1
1, 3
2, 2
8, 2
3, 0
2, 3
3, 3
0, 3
2, 3
4, 3
1, 3
3, 3
2, 4
1, 3
0, 5
0, 3
1, 3
0, 6
1, 5
1, 9
1, 9
2, 4
5, 5
1, 5
1, 9
2, 6
3, 5
1, 4
1, 4
2, 2
4, 6
5, 4
0, 2
3, 3
3, 1
1, 2
3, 6
3, 1
7, 1
2, 1
2, 2
1, 1
2, 5
1, 1
5, 4
0, 2
4, 1
5, 2
2, 2
2, 2
3, 3
6, 3
1, 1
4, 1
0, 2
4, 5
1, 0
1, 5
3, 2
3, 3
3, 0
2, 3
1, 3
1, 5
1, 0
4, 3
2, 4
1, 1
2, 2
2, 5
0, 1
0, 2
5, 3
0, 2
3, 2
2, 0
0, 1
4, 5
1, 6
7, 2
3, 4
2, 5
4, 4
5, 3
0, 2
1, 5
5, 3
4, 2
0, 1
0, 2
0, 1
2, 1
1, 1
1, 1
3, 3
4, 3
2, 2
2, 1
1, 0
1, 0
0, 1
1, 1
0, 0
1, 2
0, 2
3, 0
2, 0
1, 1
3, 3
0, 0
3, 4
0, 4
2, 3
2, 1
5, 1
1, 1
2, 2
1, 2
1, 1
1, 1
1, 0
4, 1
2, 2
4, 2
0, 1
0, 1
2, 3
1, 0
2, 0
2, 0
1, 2
1, 0
3, 1
3, 1
0, 1
2, 1
0, 1
2, 1
2, 1
1, 1
1, 0
3, 2
0, 1
2, 1
1, 1
0, 3
0, 1
0, 2
1, 1
1, 0
1, 0
2, 1
0, 1
0, 0
0, 1
0, 0
1, 0
1, 0
1, 0
2, 1
1, 1
1, 2
3, 2
0, 2
1, 0
1, 2
0, 0
1, 1
1, 1
0, 0
0, 2
0, 3
1, 1
1, 1
0, 0
1, 1
0, 0
1, 2
1, 1
0, 1
0, 0
0, 0
0, 1
0, 1
0, 0
1, 0
1, 1
1, 0
0, 0
0, 1
0, 0
2, 2
1, 0
0, 0
2, 1
0, 0
3, 0
0, 2
0, 0
0, 1
1, 1
0, 2
1, 0
0, 1
0, 1
2, 1
1, 1
1, 2
1, 0
0, 0
1, 0
0, 1
2, 0
0, 0
0, 2
0, 1
0, 0
0, 0
0, 1
1, 0
0, 2
0, 1
0, 0
0, 2
0, 0
0, 0
0, 0
0, 0
2, 1
0, 1
2, 0
1, 0
0, 0
0, 0
0, 0
1, 0
1, 1
0, 1
1, 0
1, 1
0, 0
0, 1
1, 0
1, 0
1, 0
3, 1
0, 0
0, 1
0, 1
1, 0
1, 0
0, 0
1, 0
0, 1
0, 1
0, 0
0, 0
1, 1
1, 0
0, 0
0, 0
1, 0
1, 0
0, 0
2, 1
0, 1
0, 0
0, 0
0, 0
0, 0
1, 0
0, 0
0, 0
0, 1
0, 2
0, 1
0, 1
1, 0
0, 1
0, 0
2, 0
0, 0
0, 0
0, 0
0, 0
0, 0
0, 0
0, 1
0, 1
0, 0
1, 1
0, 0
0, 0
0, 0
0, 1
0, 0
0, 0
1, 0
0, 0
0, 0
0, 2
0, 0
0, 0
1, 1
1, 0
0, 0
0, 0
0, 1
0, 1
0, 1
0, 1
0, 0
0, 1
0, 0
0, 0
0, 0
0, 0
0, 0
1, 0
0, 0
1, 0
0, 0
0, 0
1, 0
0, 0
0, 0
0, 1
1, 1
2, 0
0, 0
0, 0
2, 1
0, 0
0, 0
1, 0
0, 1
0, 1
0, 0
0, 1
0, 0
0, 0
0, 0
0, 0
0, 0
0, 0
0, 0
0, 1
0, 0
0, 0
0, 1
1, 0
0, 0
0, 0
0, 0
0, 0
0, 0
0, 0
0, 2
0, 0
0, 0
0, 0
0, 0
0, 0
0, 1
1, 0
1, 0
1, 0
1, 1
0, 1
0, 0
0, 1
0, 0
0, 0
1, 0
0, 0
0, 0
0, 0
0, 0
0, 0
1, 0
0, 0
0, 1
0, 0
0, 0
1, 0
0, 0
0, 0
1, 0
0, 0
0, 1
0, 0
1, 2
0, 0
0, 0
0, 0
0, 0
0, 0
1, 0
0, 0
0, 0
0, 0
0, 1
0, 0
0, 0
0, 0
0, 0
0, 0
0, 0
0, 0
0, 0
0, 1
0, 0
0, 0
0, 0
0, 0
0, 0
0, 0
0, 0
0, 0
0, 0
0, 0
0, 0
0, 0
0, 0
0, 0
0, 0
0, 0
0, 0
0, 0
1, 0
1, 1
0, 0
0, 0
0, 0
0, 0
0, 0
0, 0
0, 0
0, 0
0, 1
0, 0
0, 0
0, 0
0, 0
0, 0
0, 0
1, 0
0, 1
0, 0
0, 0
0, 0
0, 0
0, 0
0, 0
0, 0
0, 0
0, 0
0, 0
0, 0
0, 0
0, 0
0, 0
0, 0
0, 0
0, 0
0, 0
0, 0
0, 0
1, 0
0, 0
0, 0
0, 0
0, 0
0, 0
1, 0
0, 0
0, 0
0, 0
0, 0
0, 0
0, 0
0, 0
0, 0
0, 0
0, 0
0, 0
0, 0
0, 0
0, 1
0, 0
0, 0
1, 0
0, 0
0, 0
0, 0
0, 0
0, 0
0, 0
0, 0
0, 0
0, 0
0, 0
0, 0
0, 0
0, 0
0, 0
0, 0
0, 0
0, 0
0, 0
0, 0
0, 0
0, 0
0, 0
0, 0
0, 0
0, 0
0, 0
0, 0
0, 0
0, 0
0, 0
0, 0
0, 0
0, 0
0, 0
0, 0
0, 0
0, 0
0, 0
0, 0
0, 0
0, 0
0, 0
0, 0
1, 0
0, 0
0, 0
0, 0
0, 0
0, 0
0, 0
0, 0
0, 0
0, 0
0, 0
0, 0
0, 0
0, 0
0, 0
0, 0
0, 0
0, 0
0, 0
0, 0
0, 0
0, 0
0, 0
0, 0
0, 0
0, 0
0, 0
0, 0
0, 0
0, 0
0, 0
0, 0
0, 0
0, 0
0, 0
0, 0
1, 0
0, 0
0, 0
0, 0
0, 0
0, 0
0, 0
0, 0
0, 0
0, 0
0, 0
0, 0
0, 0
0, 0
0, 0
0, 0
0, 0
0, 0
0, 0
0, 0
0, 0
0, 0
0, 0
0, 0
0, 0
0, 0
0, 0
0, 0
0, 0
0, 0
0, 0
0, 0
0, 0
0, 0
0, 0
0, 0
0, 0
0, 0
0, 0
0, 0
0, 0
0, 0
0, 0
0, 0
0, 0
0, 0
0, 0
0, 0
0, 0
0, 0
0, 0
0, 0
0, 0
0, 0
0, 0
0, 0
0, 0
0, 0
0, 0
0, 0
0, 0
0, 0
0, 0
0, 0
0, 0
0, 0
0, 0
0, 0
0, 0
0, 0
0, 0
0, 0
0, 0
0, 0
0, 0
0, 0
0, 0
0, 0
0, 0
0, 0
0, 0
0, 0
0, 0
0, 0
0, 0
0, 0
0, 0
0, 0
0, 0
0, 0
0, 0
0, 0
0, 0
0, 0
0, 0
0, 0
0, 0
0, 0
0, 0
0, 0
0, 0
0, 0
0, 0
0, 0
0, 0
0, 0
0, 0
0, 0
0, 0
0, 0
0, 0
0, 0
0, 0
0, 0
0, 0
0, 0
0, 0
0, 0
0, 0
0, 0
0, 0
0, 0
0, 0
0, 0
0, 0
0, 0
0, 0
0, 0
0, 0
0, 0
0, 0
0, 0
0, 0
0, 0
0, 0
0, 0
0, 0
0, 0
0, 0
0, 0
0, 0
0, 0
0, 0
0, 0
0, 0
0, 0
0, 0
0, 0
0, 0
0, 0
0, 0
0, 0
0, 0
0, 0
0, 0
0, 0
0, 0
0, 0
0, 0
0, 0
0, 0
0, 0
0, 0
0, 0
0, 0
0, 0
0, 0
0, 0
0, 0
0, 0
0, 0
0, 0
0, 0
0, 0
0, 0
0, 0
0, 0
0, 0
0, 0
0, 0
0, 0
0, 0
0, 0
0, 0
0, 0
0, 0
0, 0
0, 0
0, 0
0, 0
0, 0
0, 0
0, 0
0, 0
0, 0
0, 0
0, 0
0, 0
0, 0
0, 0
0, 0
0, 0
0, 0
0, 0
0, 0
0, 0
0, 0
0, 0
0, 0
0, 0
0, 0
0, 0
0, 0
0, 0
0, 0
0, 0
0, 0
0, 0
0, 0
0, 0
0, 0
0, 0
0, 0
0, 0
0, 0
0, 0
0, 0
0, 0
0, 0
0, 0
0, 0
0, 0
0, 0
0, 0
0, 0
0, 0
0, 0
0, 0
0, 0
0, 0
0, 0
0, 0
0, 0
0, 0
0, 0
0, 0
0, 0
0, 0
0, 0
0, 0
0, 0
0, 0
0, 0
0, 0
0, 0
0, 0
0, 0
0, 0
0, 0
0, 0
0, 0
0, 0
0, 0
0, 0
0, 0
0, 0
0, 0
0, 0
0, 0
0, 0
0, 0
0, 0
0, 0
0, 0
0, 0
0, 0
0, 0
0, 0
0, 0
0, 0
0, 0
0, 0
0, 0
0, 0
0, 0
0, 0
0, 0
0, 0
0, 0
0, 0
0, 0
0, 0
0, 0
0, 0
0, 0
0, 0
0, 0
0, 0
0, 0
0, 0
0, 0
0, 0
0, 0
0, 0
0, 0
0, 0
0, 0
0, 0
0, 0
0, 0
0, 0
0, 0
0, 0
0, 0
0, 0
0, 0
0, 0
0, 0
0, 0
0, 0
0, 0
0, 0
0, 0
0, 0
0, 0
0, 0
0, 0
0, 0
0, 0
0, 0
0, 0
0, 0
0, 0
#ENDOFDATA     end of spectrum data