File: host_upload/06-09-2024/ps_0852/dump3/ps__0852shot_2390.msa
#FORMAT      : EMSA/MAS spectral data file
#VERSION     : TC202v2.0 PIXL
#TITLE       : N/A
#DATE        :       Date in the format DD-MMM-YYYY, for example 07-JUL-2010
#TIME        :             The time of day at which the spectrum was recorded, in 24-hour format
#OWNER       : PIXL Flight Model       (PIXL will use this to indicate which instrument took the data.)
#NPOINTS     : 4096     Number of data points in the spectrum (This can be zero for configuration only files)
#NCOLUMNS    : 2     Number of data columns in the spectrum (This can be zero for configuration only files)
#XUNITS      : eV
#YUNITS      : COUNTS
#DATATYPE    : YY
#XPERCHAN    : 7.862, 7.881   eV per channel (separate by commas if more than one detector)
#OFFSET      : 18.5, -22.4         eV of first channel  (separate by commas if more than one detector
#SIGNALTYPE  : XRF
#YP_TEMP     : 2.46
#LIVETIME    : 8.5818, 8.55082   seconds (separate by commas if more than one detector)
#REALTIME    : 10, 10.0   seconds (separate by commas if more than one detector)
#SPECTRUM    : start of spectrum data
0, 0
0, 0
0, 0
0, 0
0, 0
0, 0
0, 0
0, 0
0, 0
0, 0
0, 0
0, 0
0, 0
0, 0
0, 0
0, 0
0, 0
0, 0
0, 0
0, 0
0, 0
0, 0
0, 0
0, 0
0, 0
0, 0
0, 0
0, 0
0, 0
0, 0
0, 0
0, 0
0, 0
0, 0
0, 0
0, 1
0, 0
1, 0
1, 0
1, 0
1, 0
2, 0
2, 0
1, 0
3, 5
1, 1
2, 1
3, 5
8, 3
9, 14
28, 17
48, 37
40, 53
81, 78
101, 63
88, 75
61, 41
44, 33
25, 24
18, 12
15, 9
7, 11
8, 7
11, 17
12, 4
21, 12
9, 10
12, 14
25, 26
45, 60
101, 114
190, 190
267, 272
378, 371
436, 414
475, 459
423, 388
316, 289
199, 188
129, 112
60, 63
50, 40
22, 14
8, 6
7, 2
1, 4
4, 3
4, 2
3, 3
2, 1
3, 1
1, 0
1, 0
2, 5
1, 1
2, 2
5, 3
1, 2
7, 5
10, 9
8, 3
4, 10
5, 4
5, 3
4, 6
3, 2
3, 3
4, 3
6, 3
12, 5
18, 8
23, 12
45, 13
71, 32
73, 18
91, 12
79, 25
55, 24
49, 18
45, 22
37, 10
28, 21
29, 15
26, 18
26, 8
26, 9
20, 11
17, 12
12, 6
7, 4
6, 4
8, 4
2, 4
2, 5
1, 6
1, 3
2, 5
4, 7
7, 5
7, 3
9, 7
5, 6
11, 5
7, 7
7, 1
4, 6
4, 2
4, 3
2, 4
0, 7
4, 3
5, 5
11, 11
10, 13
12, 18
27, 26
15, 28
21, 16
29, 27
22, 21
14, 10
14, 12
10, 9
7, 5
8, 4
4, 7
6, 5
4, 4
6, 5
9, 4
7, 9
1, 2
13, 6
7, 2
10, 4
12, 4
9, 8
10, 8
13, 3
21, 1
23, 2
30, 2
29, 3
48, 2
49, 1
53, 1
53, 3
44, 3
40, 6
30, 5
33, 8
23, 14
16, 14
16, 11
19, 12
21, 17
13, 17
17, 10
22, 22
10, 21
13, 19
14, 13
3, 11
11, 15
10, 14
11, 6
6, 6
6, 6
4, 4
4, 9
5, 6
1, 11
4, 5
5, 10
3, 19
8, 13
6, 25
4, 22
8, 21
8, 23
8, 11
2, 11
3, 6
5, 11
7, 8
5, 11
14, 18
11, 26
13, 19
12, 20
16, 40
15, 30
15, 22
14, 17
14, 26
18, 15
22, 20
22, 14
28, 2
41, 8
23, 10
39, 8
41, 8
54, 15
70, 24
92, 16
94, 31
101, 39
92, 40
112, 48
114, 77
105, 74
90, 53
71, 38
47, 36
38, 25
28, 19
21, 14
13, 24
12, 15
19, 20
23, 39
44, 60
80, 95
142, 185
257, 314
462, 624
709, 862
1166, 1361
1524, 1731
1941, 2116
2232, 2338
2439, 2398
2311, 2145
2074, 1841
1648, 1497
1241, 1077
879, 724
561, 424
338, 264
190, 122
100, 72
52, 28
21, 27
16, 22
12, 25
22, 22
18, 20
14, 18
33, 26
25, 22
32, 46
38, 64
76, 83
110, 94
169, 196
202, 239
252, 268
331, 327
377, 373
374, 344
362, 298
292, 273
255, 225
172, 158
145, 97
95, 76
68, 29
45, 22
19, 20
14, 5
13, 6
8, 3
7, 9
10, 8
13, 9
8, 18
14, 20
14, 21
10, 12
17, 5
10, 13
7, 8
4, 8
7, 3
9, 4
3, 5
3, 4
6, 2
2, 5
2, 9
4, 3
2, 3
1, 7
2, 8
2, 8
0, 4
9, 6
5, 4
5, 4
2, 4
0, 3
6, 7
7, 3
3, 5
9, 6
6, 5
10, 3
4, 5
9, 6
10, 4
12, 11
10, 3
11, 6
10, 4
16, 13
15, 9
7, 8
9, 13
8, 16
12, 7
4, 14
9, 14
10, 13
7, 11
14, 15
21, 3
12, 7
16, 9
11, 7
12, 7
9, 5
14, 6
6, 5
10, 8
8, 13
8, 21
5, 17
5, 14
5, 16
4, 11
6, 3
4, 9
4, 9
5, 7
0, 4
4, 2
2, 3
0, 1
3, 5
5, 1
5, 5
1, 0
4, 4
1, 4
4, 2
1, 4
5, 4
2, 0
2, 5
3, 3
5, 3
0, 3
1, 2
0, 6
1, 4
3, 5
1, 5
1, 11
4, 8
3, 2
3, 4
4, 7
5, 4
4, 6
7, 4
3, 5
7, 3
3, 6
8, 3
6, 2
8, 4
5, 4
4, 2
8, 4
9, 8
10, 10
10, 6
7, 4
7, 7
12, 9
6, 12
6, 10
7, 16
6, 7
6, 8
8, 18
6, 16
3, 8
4, 10
2, 4
0, 5
4, 4
3, 5
4, 1
2, 1
4, 3
1, 3
3, 4
4, 3
1, 1
2, 2
1, 2
3, 4
1, 0
1, 1
2, 5
1, 4
4, 2
2, 2
3, 5
1, 2
3, 3
5, 0
3, 4
3, 1
3, 2
3, 2
6, 2
3, 3
6, 2
6, 3
3, 1
2, 1
3, 4
1, 3
5, 1
2, 4
3, 3
1, 2
3, 2
4, 2
3, 3
6, 2
4, 1
5, 0
0, 2
2, 0
1, 1
3, 3
5, 6
4, 6
1, 0
4, 1
1, 0
5, 3
4, 1
4, 2
0, 4
3, 2
3, 3
0, 2
1, 3
6, 4
1, 4
0, 1
0, 4
2, 1
2, 2
2, 0
1, 3
1, 2
2, 3
3, 0
2, 2
2, 3
2, 2
2, 2
3, 0
6, 1
3, 0
1, 2
0, 1
2, 3
2, 0
0, 0
1, 1
0, 1
1, 1
5, 2
1, 0
2, 1
5, 4
2, 2
2, 2
3, 1
1, 2
4, 4
4, 1
2, 3
4, 6
4, 2
1, 5
4, 6
2, 6
2, 6
3, 2
6, 3
4, 3
7, 0
4, 1
5, 0
2, 6
4, 1
2, 1
1, 1
4, 2
2, 0
3, 2
1, 2
0, 0
2, 1
2, 0
1, 1
1, 0
1, 2
2, 1
2, 0
2, 2
1, 0
2, 2
4, 1
2, 1
1, 2
1, 1
1, 0
0, 1
0, 1
0, 2
2, 0
1, 1
0, 2
0, 1
0, 2
1, 1
2, 1
0, 1
1, 0
5, 0
1, 0
1, 0
1, 0
0, 2
2, 1
0, 0
0, 1
1, 1
0, 5
2, 1
3, 2
0, 1
1, 0
0, 1
2, 1
2, 1
2, 2
0, 1
1, 1
1, 3
1, 1
0, 0
1, 0
1, 1
0, 0
1, 1
1, 0
2, 1
0, 1
3, 1
2, 4
2, 0
0, 1
0, 0
0, 1
0, 1
0, 0
0, 0
0, 0
1, 1
1, 0
1, 2
0, 0
1, 3
1, 1
0, 1
1, 0
0, 0
1, 0
2, 2
1, 0
3, 1
0, 2
0, 2
1, 0
2, 1
1, 0
0, 0
0, 0
0, 1
0, 3
1, 0
1, 0
0, 0
0, 1
1, 0
2, 0
1, 0
1, 0
0, 0
0, 0
0, 0
1, 0
2, 1
0, 1
1, 0
0, 1
1, 2
0, 0
1, 1
3, 0
0, 1
0, 0
0, 0
0, 0
0, 0
0, 0
0, 0
0, 1
0, 0
1, 0
1, 1
0, 0
0, 1
0, 2
0, 0
0, 0
0, 0
0, 0
0, 0
0, 1
0, 1
1, 0
1, 0
0, 0
1, 0
0, 1
2, 0
1, 0
2, 0
0, 1
0, 0
1, 0
0, 0
0, 0
0, 0
0, 1
1, 0
0, 1
0, 1
0, 0
0, 0
1, 0
0, 1
0, 0
1, 1
0, 0
0, 0
0, 0
1, 1
1, 0
2, 0
0, 0
0, 0
1, 1
3, 0
1, 0
1, 0
0, 0
1, 0
1, 0
0, 0
0, 0
0, 0
0, 0
0, 0
1, 1
0, 0
1, 0
1, 3
0, 0
0, 0
0, 0
1, 1
0, 0
0, 0
0, 0
0, 0
0, 0
0, 1
0, 0
0, 0
1, 0
0, 0
0, 0
0, 0
0, 0
1, 0
0, 1
0, 1
0, 1
0, 0
0, 0
1, 0
0, 0
0, 0
0, 0
1, 1
2, 1
0, 1
0, 0
1, 0
0, 0
0, 0
0, 0
0, 0
0, 0
1, 0
0, 0
0, 0
0, 0
0, 0
0, 0
1, 1
2, 0
0, 0
0, 0
0, 0
0, 1
0, 0
1, 0
0, 1
0, 0
0, 0
0, 0
1, 0
1, 0
0, 1
0, 0
0, 0
1, 1
0, 1
0, 1
0, 0
0, 0
0, 0
1, 0
0, 1
0, 0
0, 1
1, 0
0, 0
0, 0
0, 0
1, 0
1, 1
0, 0
1, 1
0, 0
0, 0
1, 0
0, 0
0, 0
1, 0
0, 0
0, 0
0, 0
0, 1
0, 0
0, 0
1, 1
0, 0
1, 0
0, 1
0, 0
0, 0
0, 0
0, 0
0, 0
0, 0
0, 0
0, 0
1, 0
0, 0
0, 0
0, 0
0, 1
0, 0
0, 0
0, 0
0, 0
1, 0
0, 0
0, 0
1, 0
1, 0
0, 0
0, 0
0, 0
0, 0
1, 0
0, 1
0, 0
0, 0
0, 0
0, 0
0, 0
1, 0
0, 0
0, 0
0, 0
0, 1
0, 0
0, 0
0, 0
0, 0
0, 0
0, 0
0, 0
0, 0
0, 0
0, 0
0, 0
0, 0
0, 0
0, 0
0, 0
0, 0
0, 0
0, 0
0, 0
0, 0
0, 0
0, 0
0, 0
0, 0
0, 0
0, 0
0, 0
0, 0
0, 0
0, 1
0, 0
0, 0
0, 0
0, 0
0, 0
2, 1
0, 0
0, 0
0, 0
0, 0
0, 0
0, 0
0, 0
0, 0
0, 0
0, 0
0, 0
0, 0
0, 0
0, 0
0, 0
0, 1
0, 0
0, 0
0, 0
0, 0
0, 0
0, 0
0, 0
0, 0
0, 0
0, 0
0, 0
0, 0
0, 0
0, 0
0, 0
0, 0
0, 0
0, 0
0, 1
0, 0
0, 0
0, 0
0, 0
0, 0
0, 0
0, 0
0, 0
0, 0
0, 1
0, 0
0, 1
0, 0
0, 0
0, 0
0, 0
0, 0
0, 0
0, 0
0, 0
0, 0
0, 0
0, 0
0, 0
0, 0
0, 0
0, 0
0, 0
0, 0
0, 0
0, 0
0, 0
0, 0
0, 0
0, 0
0, 0
0, 0
0, 0
0, 0
0, 0
0, 0
0, 0
0, 0
0, 0
0, 0
0, 0
0, 0
0, 0
0, 0
0, 0
0, 0
0, 0
0, 0
0, 0
0, 0
0, 0
0, 0
0, 0
0, 0
0, 0
0, 0
0, 0
0, 0
0, 0
0, 0
0, 0
0, 0
0, 0
0, 0
0, 0
0, 0
0, 0
0, 0
0, 0
0, 0
0, 0
0, 0
0, 0
0, 0
0, 0
0, 0
0, 0
0, 0
0, 0
0, 0
0, 0
0, 0
0, 0
0, 0
0, 0
0, 0
0, 0
0, 0
0, 0
0, 0
0, 0
0, 0
0, 0
0, 0
0, 0
0, 0
0, 0
0, 0
0, 0
0, 0
0, 0
0, 0
0, 0
0, 0
0, 0
0, 0
0, 0
0, 0
0, 0
0, 0
0, 0
0, 0
0, 0
0, 0
0, 0
0, 0
0, 0
0, 0
0, 0
0, 0
0, 0
0, 0
0, 0
0, 0
0, 0
0, 0
0, 0
0, 0
0, 0
0, 1
0, 0
0, 0
0, 0
0, 0
0, 0
0, 0
0, 0
0, 0
0, 0
0, 0
0, 0
0, 0
0, 0
0, 0
0, 0
0, 0
0, 0
0, 0
0, 0
0, 0
0, 0
0, 0
0, 0
0, 0
0, 0
0, 0
0, 0
0, 0
0, 0
0, 0
0, 0
0, 0
0, 0
0, 0
0, 0
0, 0
0, 0
0, 0
0, 0
0, 0
0, 0
0, 0
0, 0
0, 0
0, 0
0, 0
0, 0
0, 0
0, 0
0, 0
0, 0
0, 0
0, 0
0, 0
0, 0
0, 0
0, 0
0, 0
0, 0
0, 0
0, 0
0, 0
0, 0
0, 0
0, 0
0, 0
0, 0
0, 0
0, 0
0, 0
0, 0
0, 0
0, 0
0, 0
0, 0
0, 0
0, 0
0, 0
0, 0
0, 0
0, 1
0, 0
0, 0
0, 0
0, 0
0, 0
0, 0
0, 0
0, 0
0, 0
0, 0
0, 0
0, 0
0, 0
0, 0
0, 0
0, 0
0, 0
0, 0
0, 0
0, 0
0, 0
0, 0
0, 0
0, 0
0, 0
0, 0
0, 0
0, 0
0, 0
0, 0
0, 0
0, 0
0, 0
0, 0
0, 0
0, 0
0, 0
0, 0
0, 0
0, 0
0, 0
0, 0
0, 0
0, 0
0, 0
0, 0
0, 0
0, 0
0, 0
0, 0
0, 0
0, 0
0, 0
0, 0
0, 0
0, 0
0, 0
0, 0
0, 0
0, 0
0, 0
0, 0
0, 0
0, 0
0, 0
0, 0
0, 0
0, 0
0, 0
0, 0
0, 0
0, 0
0, 0
0, 0
0, 0
0, 0
0, 0
0, 0
0, 0
0, 0
0, 0
0, 0
0, 0
0, 0
0, 0
0, 0
0, 0
0, 0
0, 0
0, 0
0, 0
0, 0
0, 0
0, 0
0, 0
0, 0
0, 0
0, 0
0, 0
0, 0
0, 0
0, 0
0, 0
0, 0
0, 0
0, 0
0, 0
0, 0
0, 0
0, 0
0, 0
0, 0
0, 0
0, 0
0, 0
0, 0
0, 0
0, 0
0, 0
0, 0
0, 0
0, 0
0, 0
0, 0
0, 0
0, 0
0, 0
0, 0
0, 0
0, 0
0, 0
0, 0
0, 0
0, 0
0, 0
0, 0
0, 0
0, 0
0, 0
0, 0
0, 0
0, 0
0, 0
0, 0
0, 0
0, 0
0, 0
0, 0
0, 0
0, 0
0, 0
0, 0
0, 0
0, 0
0, 0
0, 0
0, 0
0, 0
0, 0
0, 0
0, 0
0, 0
0, 0
0, 0
0, 0
0, 0
0, 0
0, 0
0, 0
0, 0
0, 0
0, 0
0, 0
0, 0
0, 0
0, 0
0, 0
0, 0
0, 0
0, 0
0, 0
0, 0
0, 0
0, 0
0, 0
0, 0
0, 0
0, 0
0, 0
0, 0
0, 0
0, 0
0, 0
0, 0
0, 0
0, 0
0, 0
0, 0
0, 0
0, 0
0, 0
0, 0
0, 0
0, 0
0, 0
0, 0
0, 0
0, 0
#ENDOFDATA     end of spectrum data