File: host_upload/06-09-2024/ps_0852/dump3/ps__0852shot_2530.msa
#FORMAT      : EMSA/MAS spectral data file
#VERSION     : TC202v2.0 PIXL
#TITLE       : N/A
#DATE        :       Date in the format DD-MMM-YYYY, for example 07-JUL-2010
#TIME        :             The time of day at which the spectrum was recorded, in 24-hour format
#OWNER       : PIXL Flight Model       (PIXL will use this to indicate which instrument took the data.)
#NPOINTS     : 4096     Number of data points in the spectrum (This can be zero for configuration only files)
#NCOLUMNS    : 2     Number of data columns in the spectrum (This can be zero for configuration only files)
#XUNITS      : eV
#YUNITS      : COUNTS
#DATATYPE    : YY
#XPERCHAN    : 7.862, 7.881   eV per channel (separate by commas if more than one detector)
#OFFSET      : 18.5, -22.4         eV of first channel  (separate by commas if more than one detector
#SIGNALTYPE  : XRF
#YP_TEMP     : 2.524
#LIVETIME    : 8.548, 8.51804   seconds (separate by commas if more than one detector)
#REALTIME    : 10, 10.0   seconds (separate by commas if more than one detector)
#SPECTRUM    : start of spectrum data
0, 0
0, 0
0, 0
0, 0
0, 0
0, 0
0, 0
0, 0
0, 0
0, 0
0, 0
0, 0
0, 0
0, 0
0, 0
0, 0
0, 0
0, 0
0, 0
0, 0
0, 0
0, 0
0, 0
0, 0
0, 0
0, 0
0, 0
0, 0
0, 0
0, 0
1, 0
0, 0
1, 0
0, 0
0, 0
1, 2
0, 0
1, 2
2, 2
2, 1
2, 0
4, 0
1, 3
0, 1
1, 0
4, 2
3, 0
1, 2
3, 6
9, 7
23, 20
30, 38
47, 41
63, 67
82, 60
81, 57
73, 67
49, 32
31, 12
23, 11
4, 9
2, 5
3, 6
4, 4
8, 1
9, 6
7, 3
14, 6
27, 17
64, 41
108, 85
184, 176
315, 265
399, 360
464, 384
474, 375
427, 351
325, 275
213, 201
135, 107
77, 63
52, 29
20, 21
11, 8
8, 5
5, 3
4, 5
1, 1
2, 0
1, 0
1, 0
4, 1
3, 3
6, 1
6, 6
2, 8
13, 12
15, 15
25, 15
13, 18
15, 20
14, 19
13, 4
9, 8
7, 1
4, 6
7, 12
11, 7
21, 21
34, 22
61, 28
73, 34
105, 54
103, 53
121, 61
134, 49
107, 47
92, 38
72, 34
56, 32
42, 20
29, 35
26, 18
22, 20
15, 12
14, 9
11, 9
9, 3
8, 6
7, 7
2, 5
6, 3
7, 1
3, 1
2, 2
2, 3
3, 1
4, 2
1, 0
2, 2
2, 2
5, 1
2, 1
5, 6
1, 1
2, 4
2, 3
3, 3
5, 1
3, 3
1, 0
3, 4
4, 6
7, 10
10, 6
11, 10
9, 9
13, 8
12, 14
11, 6
3, 15
7, 7
9, 9
6, 8
3, 14
9, 16
3, 11
4, 10
6, 5
6, 5
8, 9
12, 6
2, 3
7, 4
3, 10
4, 10
5, 16
0, 7
4, 14
5, 12
3, 3
1, 9
5, 3
6, 10
4, 5
4, 7
9, 4
4, 3
10, 8
2, 4
9, 11
10, 17
17, 9
16, 15
12, 17
10, 18
16, 26
14, 33
20, 31
14, 30
16, 20
12, 25
10, 22
11, 16
11, 15
11, 12
10, 9
11, 7
4, 8
5, 8
7, 16
5, 9
10, 12
5, 16
7, 7
5, 21
5, 14
4, 14
4, 18
8, 9
5, 13
3, 7
5, 6
9, 5
10, 6
3, 9
10, 14
12, 6
14, 13
21, 11
15, 9
14, 14
15, 20
12, 6
8, 12
13, 9
13, 9
14, 8
16, 4
19, 3
25, 8
17, 4
21, 6
25, 19
27, 11
28, 20
34, 30
46, 36
59, 37
64, 40
58, 43
86, 57
66, 53
53, 34
36, 33
46, 27
14, 20
19, 19
21, 14
18, 11
21, 23
24, 27
41, 46
76, 81
155, 178
288, 302
481, 502
850, 823
1281, 1202
1697, 1544
2116, 1872
2444, 2191
2670, 2143
2673, 2038
2354, 1735
1903, 1318
1422, 928
944, 618
622, 364
364, 252
200, 99
111, 72
49, 38
31, 25
19, 26
16, 20
17, 16
18, 17
14, 20
11, 21
29, 21
42, 38
67, 55
89, 76
132, 121
172, 179
233, 215
297, 269
333, 319
404, 321
412, 299
397, 297
327, 240
276, 188
215, 152
146, 93
73, 49
61, 37
40, 12
24, 9
16, 6
20, 3
21, 1
27, 9
26, 4
46, 17
49, 5
23, 17
31, 11
21, 11
25, 11
21, 5
20, 7
15, 4
7, 1
3, 3
6, 5
8, 1
7, 3
10, 5
7, 4
5, 9
6, 5
9, 1
11, 7
8, 3
14, 4
9, 3
10, 5
9, 1
7, 3
9, 2
10, 6
15, 4
6, 4
5, 7
7, 7
3, 4
7, 11
8, 4
10, 4
6, 8
5, 5
3, 3
6, 7
4, 4
1, 2
2, 2
3, 3
2, 3
4, 7
1, 2
4, 2
5, 5
4, 5
3, 3
4, 3
3, 2
6, 4
8, 6
3, 1
6, 5
4, 2
3, 5
6, 5
7, 5
1, 2
2, 5
3, 1
1, 3
4, 5
0, 1
4, 3
6, 1
6, 4
8, 3
5, 3
6, 2
3, 8
4, 16
4, 5
1, 9
2, 8
2, 11
2, 9
7, 7
7, 6
2, 2
8, 8
1, 6
3, 0
7, 5
6, 2
4, 2
3, 2
4, 0
6, 1
3, 4
1, 1
3, 2
2, 1
3, 1
1, 3
5, 3
3, 0
4, 6
5, 3
1, 3
1, 5
3, 2
5, 1
3, 5
5, 5
1, 4
9, 3
7, 2
1, 1
4, 1
1, 7
0, 3
3, 5
7, 4
2, 4
0, 1
4, 4
8, 4
1, 2
1, 1
1, 1
5, 2
4, 3
4, 3
6, 5
3, 5
4, 3
2, 1
5, 4
4, 4
0, 5
4, 3
2, 7
5, 5
4, 3
2, 3
3, 2
1, 3
4, 2
4, 2
3, 3
7, 1
3, 4
8, 2
10, 2
2, 4
9, 2
2, 1
2, 1
5, 0
3, 0
3, 3
1, 3
2, 2
5, 3
2, 2
2, 3
2, 1
3, 2
5, 2
4, 3
1, 1
3, 2
4, 2
4, 3
9, 3
4, 6
5, 8
3, 4
3, 3
2, 5
4, 4
2, 4
4, 5
3, 1
0, 2
2, 5
5, 5
3, 3
2, 1
3, 2
4, 2
4, 1
3, 2
3, 0
2, 1
2, 2
3, 4
3, 1
3, 0
0, 1
3, 1
4, 2
5, 1
2, 2
3, 1
3, 1
1, 1
2, 1
4, 2
1, 3
1, 2
6, 2
1, 1
1, 1
2, 4
1, 3
5, 2
4, 0
1, 4
2, 2
0, 2
1, 3
2, 1
3, 2
1, 1
3, 1
4, 2
4, 1
2, 4
5, 4
3, 3
4, 6
3, 1
6, 4
4, 2
7, 7
6, 7
6, 5
4, 4
0, 2
3, 1
1, 3
1, 1
2, 3
0, 1
0, 2
2, 0
1, 1
1, 0
1, 1
1, 0
1, 3
2, 1
3, 0
0, 3
0, 3
0, 4
3, 1
1, 2
2, 1
3, 1
3, 2
2, 1
0, 1
1, 2
5, 1
0, 0
1, 0
2, 0
3, 0
0, 0
1, 1
0, 1
2, 1
1, 0
0, 0
1, 1
2, 3
2, 0
0, 0
0, 1
0, 0
1, 0
1, 0
2, 1
2, 0
2, 3
1, 0
1, 1
0, 3
0, 3
0, 1
1, 0
2, 1
0, 1
1, 2
2, 1
0, 1
1, 1
1, 2
0, 1
1, 2
3, 0
0, 0
2, 0
0, 1
1, 1
0, 0
1, 1
1, 0
2, 1
3, 0
1, 1
4, 1
2, 0
3, 1
0, 0
0, 0
1, 1
1, 0
2, 0
0, 1
1, 0
2, 1
0, 0
0, 2
0, 1
1, 0
2, 0
0, 0
1, 1
0, 1
0, 2
0, 0
0, 0
0, 0
2, 0
0, 2
1, 0
0, 2
1, 1
1, 0
0, 0
0, 2
0, 2
0, 0
0, 1
1, 0
0, 2
1, 0
0, 0
0, 1
0, 1
0, 1
0, 0
0, 0
0, 1
1, 0
0, 0
1, 1
2, 0
0, 1
0, 1
0, 1
0, 0
0, 1
0, 2
0, 3
0, 0
0, 1
0, 0
1, 0
0, 0
0, 0
0, 0
0, 0
0, 0
1, 1
1, 0
0, 1
0, 4
0, 1
0, 2
0, 1
1, 0
0, 0
0, 1
2, 0
1, 3
0, 1
0, 0
0, 1
0, 0
1, 1
0, 0
1, 0
2, 0
0, 1
0, 0
0, 1
1, 0
2, 1
0, 0
0, 0
0, 0
0, 0
1, 0
0, 0
0, 1
0, 0
1, 2
0, 0
1, 0
0, 0
0, 0
1, 0
0, 1
0, 0
0, 0
0, 0
0, 0
0, 0
0, 0
0, 1
0, 1
0, 0
0, 0
0, 0
0, 1
0, 1
0, 0
0, 0
0, 0
0, 0
2, 1
0, 1
1, 1
0, 0
0, 1
0, 0
0, 0
0, 0
0, 0
0, 1
1, 0
0, 0
0, 1
1, 0
0, 0
0, 0
0, 0
0, 0
1, 0
2, 0
0, 1
0, 0
0, 0
0, 0
0, 0
1, 0
1, 0
0, 0
0, 0
0, 1
0, 0
0, 0
0, 0
0, 0
0, 0
0, 0
0, 0
1, 0
1, 1
0, 0
3, 0
0, 1
0, 0
2, 0
2, 0
0, 0
0, 0
0, 0
0, 1
0, 0
0, 1
0, 0
1, 0
3, 2
0, 1
0, 0
0, 0
0, 0
1, 0
0, 1
1, 0
0, 1
0, 1
0, 0
1, 1
0, 0
0, 0
0, 0
0, 0
0, 0
0, 0
0, 0
1, 0
0, 0
0, 0
0, 0
0, 0
0, 1
0, 0
0, 0
0, 1
0, 0
0, 0
0, 0
0, 0
0, 0
0, 0
0, 0
0, 0
0, 0
0, 0
0, 0
1, 0
0, 0
0, 0
0, 0
1, 0
0, 0
0, 0
0, 0
1, 0
0, 0
1, 1
1, 1
0, 0
0, 1
0, 0
0, 0
0, 0
0, 0
1, 0
0, 0
1, 1
0, 1
0, 0
0, 0
2, 1
1, 0
0, 0
0, 0
0, 0
0, 0
0, 0
1, 0
0, 1
2, 0
0, 0
0, 0
0, 0
0, 0
0, 0
1, 0
0, 0
0, 0
0, 0
0, 0
0, 0
0, 0
0, 0
0, 0
0, 0
0, 0
0, 0
0, 0
0, 0
0, 0
0, 0
0, 1
0, 0
0, 0
0, 0
0, 0
0, 0
0, 0
1, 0
0, 0
0, 0
0, 0
0, 0
0, 0
0, 0
0, 0
0, 1
0, 0
0, 0
0, 0
0, 0
0, 0
0, 0
0, 0
1, 0
0, 0
0, 0
0, 0
0, 0
0, 0
0, 0
0, 0
0, 0
0, 0
0, 0
0, 0
0, 0
0, 0
0, 0
0, 0
1, 0
0, 0
0, 0
0, 0
0, 0
0, 0
0, 0
0, 0
0, 0
0, 0
0, 0
0, 0
0, 0
0, 0
0, 0
0, 0
0, 0
0, 0
0, 0
0, 0
0, 0
0, 0
0, 0
0, 0
0, 0
0, 0
0, 0
0, 0
0, 0
0, 0
0, 0
0, 0
0, 0
0, 0
1, 0
0, 0
0, 0
0, 0
0, 0
0, 0
0, 0
0, 0
0, 0
0, 0
0, 0
0, 0
0, 0
0, 0
0, 0
0, 0
0, 0
0, 0
0, 0
0, 1
0, 0
0, 0
1, 0
0, 0
0, 0
0, 0
0, 0
0, 0
0, 0
0, 0
0, 0
0, 0
0, 0
0, 0
0, 0
0, 0
0, 0
0, 0
0, 0
0, 0
0, 0
0, 0
0, 0
0, 0
0, 0
0, 0
0, 0
0, 0
0, 0
0, 0
0, 0
0, 0
0, 0
0, 0
0, 0
0, 0
0, 0
0, 0
0, 0
0, 0
0, 0
0, 0
0, 0
0, 0
0, 0
0, 0
0, 0
0, 0
0, 0
0, 0
0, 0
0, 0
0, 0
0, 0
0, 0
0, 0
0, 0
0, 0
0, 0
0, 0
0, 0
0, 0
0, 0
0, 0
0, 0
0, 0
0, 0
0, 0
0, 0
0, 0
0, 0
0, 0
0, 0
0, 0
0, 0
0, 0
0, 0
0, 0
0, 0
0, 0
0, 0
0, 0
0, 0
0, 0
0, 0
0, 0
0, 0
0, 0
0, 0
0, 0
0, 0
0, 0
0, 0
0, 0
0, 0
0, 0
0, 0
0, 0
0, 0
0, 0
0, 0
0, 0
0, 0
0, 0
0, 0
0, 0
0, 0
0, 0
0, 0
0, 0
0, 0
0, 0
0, 0
0, 0
0, 0
0, 0
0, 0
0, 0
0, 0
0, 0
0, 0
0, 0
0, 0
0, 0
0, 0
0, 0
0, 0
0, 0
0, 0
0, 0
0, 0
0, 0
0, 0
0, 0
0, 0
0, 0
0, 0
0, 0
0, 0
0, 0
0, 0
0, 0
0, 0
0, 0
0, 0
0, 0
0, 0
0, 0
0, 0
0, 0
0, 0
0, 0
0, 0
0, 0
0, 0
0, 0
0, 0
0, 0
0, 0
0, 0
0, 0
0, 0
0, 0
0, 0
0, 0
0, 0
0, 0
0, 0
0, 0
0, 0
0, 0
0, 0
0, 0
0, 0
0, 0
0, 0
0, 0
0, 0
0, 0
0, 0
0, 0
0, 0
0, 0
0, 0
0, 0
0, 0
0, 0
0, 0
0, 0
0, 0
0, 0
0, 0
0, 0
0, 0
0, 0
0, 0
0, 0
0, 0
0, 0
0, 0
0, 0
0, 0
0, 0
0, 0
0, 0
0, 0
0, 0
0, 0
0, 0
0, 0
0, 0
0, 0
0, 0
0, 0
0, 0
0, 0
0, 0
0, 0
0, 0
0, 0
0, 0
0, 0
0, 0
0, 0
0, 0
0, 0
0, 0
0, 0
0, 0
0, 0
0, 0
0, 0
0, 0
0, 0
0, 0
0, 0
0, 0
0, 0
0, 0
0, 0
0, 0
0, 0
0, 0
0, 0
0, 0
0, 0
0, 0
0, 0
0, 0
0, 0
0, 0
0, 0
0, 0
0, 0
0, 0
0, 0
0, 0
0, 0
0, 0
0, 0
0, 0
0, 0
0, 0
0, 0
0, 0
0, 0
0, 0
0, 0
0, 0
0, 0
0, 0
0, 0
0, 0
0, 0
0, 0
0, 0
0, 0
0, 0
0, 0
0, 0
0, 0
0, 0
0, 0
0, 0
0, 0
0, 0
0, 0
0, 0
0, 0
0, 0
0, 0
0, 0
0, 0
0, 0
0, 0
0, 0
0, 0
0, 0
0, 0
0, 0
0, 0
0, 0
0, 0
0, 0
0, 0
0, 0
0, 0
0, 0
0, 0
0, 0
0, 0
0, 0
0, 0
0, 0
0, 0
0, 0
0, 0
0, 0
0, 0
0, 0
0, 0
0, 0
0, 0
0, 0
0, 0
0, 0
0, 0
0, 0
0, 0
0, 0
0, 0
0, 0
0, 0
0, 0
0, 0
0, 0
0, 0
0, 0
0, 0
0, 0
0, 0
0, 0
0, 0
0, 0
0, 0
0, 0
0, 0
0, 0
0, 0
0, 0
0, 0
0, 0
0, 0
0, 0
0, 0
0, 0
0, 0
0, 0
0, 0
0, 0
0, 0
0, 0
0, 0
0, 0
0, 0
0, 0
0, 0
0, 0
0, 0
0, 0
0, 0
0, 0
0, 0
0, 0
0, 0
0, 0
0, 0
0, 0
0, 0
0, 0
0, 0
0, 0
0, 0
#ENDOFDATA     end of spectrum data