File: host_upload/06-09-2024/ps_0852/dump3/ps__0852shot_2543.msa
#FORMAT      : EMSA/MAS spectral data file
#VERSION     : TC202v2.0 PIXL
#TITLE       : N/A
#DATE        :       Date in the format DD-MMM-YYYY, for example 07-JUL-2010
#TIME        :             The time of day at which the spectrum was recorded, in 24-hour format
#OWNER       : PIXL Flight Model       (PIXL will use this to indicate which instrument took the data.)
#NPOINTS     : 4096     Number of data points in the spectrum (This can be zero for configuration only files)
#NCOLUMNS    : 2     Number of data columns in the spectrum (This can be zero for configuration only files)
#XUNITS      : eV
#YUNITS      : COUNTS
#DATATYPE    : YY
#XPERCHAN    : 7.862, 7.881   eV per channel (separate by commas if more than one detector)
#OFFSET      : 18.5, -22.4         eV of first channel  (separate by commas if more than one detector
#SIGNALTYPE  : XRF
#YP_TEMP     : 2.267
#LIVETIME    : 8.56451, 8.55363   seconds (separate by commas if more than one detector)
#REALTIME    : 10, 10.0   seconds (separate by commas if more than one detector)
#SPECTRUM    : start of spectrum data
0, 0
0, 0
0, 0
0, 0
0, 0
0, 0
0, 0
0, 0
0, 0
0, 0
0, 0
0, 0
0, 0
0, 0
0, 0
0, 0
0, 0
0, 0
0, 0
0, 0
0, 0
0, 0
0, 0
0, 0
0, 0
0, 0
0, 0
0, 0
0, 0
0, 0
0, 0
0, 0
0, 0
0, 0
0, 0
1, 0
1, 0
1, 0
1, 1
0, 1
2, 1
2, 0
0, 0
5, 1
1, 1
0, 2
1, 1
4, 0
4, 5
8, 15
24, 22
34, 39
68, 48
70, 79
61, 66
81, 62
59, 49
44, 34
22, 24
12, 8
10, 5
5, 2
3, 4
3, 6
6, 3
4, 2
9, 7
11, 10
25, 20
47, 52
106, 97
169, 177
274, 299
336, 368
424, 386
401, 434
373, 361
285, 283
199, 179
118, 113
76, 60
36, 41
16, 8
14, 7
1, 3
3, 4
2, 3
2, 2
2, 3
3, 1
1, 1
4, 0
0, 2
2, 0
0, 2
2, 1
2, 6
2, 2
2, 2
4, 4
3, 4
3, 1
3, 3
1, 3
6, 2
1, 5
3, 2
7, 6
11, 15
19, 16
31, 23
47, 26
65, 28
99, 41
107, 34
99, 47
98, 33
89, 44
88, 22
59, 20
25, 35
31, 23
28, 27
27, 25
25, 15
20, 24
21, 9
9, 11
10, 6
7, 5
8, 8
6, 4
6, 0
1, 4
2, 5
2, 4
2, 7
3, 2
4, 4
2, 3
2, 7
3, 3
4, 3
1, 8
3, 2
1, 3
3, 2
3, 2
1, 4
1, 2
7, 3
6, 13
12, 11
28, 21
31, 30
53, 37
51, 46
59, 56
77, 49
57, 42
44, 27
29, 35
23, 15
12, 11
11, 5
9, 5
5, 9
5, 9
9, 10
11, 10
13, 6
9, 11
28, 10
22, 5
11, 13
38, 8
31, 6
18, 5
17, 2
22, 3
14, 5
17, 7
13, 2
11, 3
10, 6
10, 6
6, 6
8, 8
13, 8
10, 14
12, 18
10, 19
15, 25
18, 22
11, 19
20, 39
14, 40
14, 39
9, 49
11, 42
15, 48
14, 37
7, 25
6, 31
12, 28
8, 17
4, 12
20, 22
25, 19
23, 7
25, 14
25, 11
26, 7
28, 13
22, 12
11, 11
16, 14
7, 18
17, 16
9, 7
6, 15
3, 14
12, 9
8, 9
15, 6
9, 12
18, 18
11, 14
17, 13
28, 14
19, 25
16, 21
23, 16
17, 12
17, 15
19, 15
16, 3
18, 10
20, 13
11, 11
20, 5
9, 6
9, 14
14, 13
15, 21
20, 16
26, 36
34, 36
60, 58
55, 57
65, 62
65, 53
68, 54
52, 61
47, 47
35, 41
21, 23
25, 25
29, 25
21, 26
17, 25
26, 39
42, 89
66, 116
119, 171
230, 369
472, 558
733, 937
1085, 1346
1485, 1808
1891, 2146
2086, 2358
2274, 2439
2214, 2227
2003, 1962
1755, 1500
1238, 1022
893, 703
537, 430
339, 271
176, 151
73, 78
55, 64
39, 25
21, 27
25, 39
14, 43
18, 41
27, 39
36, 38
28, 37
41, 55
59, 58
76, 81
104, 129
159, 186
186, 233
271, 303
298, 364
354, 396
370, 368
347, 302
304, 292
232, 192
171, 157
114, 100
79, 50
60, 34
33, 21
21, 13
10, 10
18, 9
12, 9
14, 7
16, 9
12, 12
21, 7
18, 13
19, 18
17, 10
17, 8
7, 10
15, 7
4, 7
5, 7
3, 3
4, 7
8, 2
5, 4
6, 6
2, 9
2, 11
5, 12
2, 12
1, 11
3, 9
4, 12
6, 8
5, 8
5, 8
4, 8
5, 6
6, 6
9, 3
4, 6
11, 7
17, 6
17, 11
21, 4
16, 2
21, 6
24, 2
27, 3
30, 3
22, 5
19, 6
21, 4
18, 4
12, 6
8, 9
8, 7
7, 8
5, 7
4, 6
6, 4
6, 8
1, 2
1, 10
4, 5
4, 3
1, 7
4, 2
7, 3
7, 2
1, 6
3, 3
5, 4
2, 2
4, 4
3, 3
6, 2
3, 1
6, 3
1, 4
2, 3
4, 5
5, 2
6, 6
4, 3
4, 3
0, 8
4, 5
3, 4
4, 9
2, 5
1, 9
1, 8
2, 10
3, 9
4, 10
3, 11
3, 5
2, 12
4, 17
6, 5
7, 14
1, 15
4, 9
4, 10
4, 9
2, 10
4, 7
3, 11
1, 3
4, 8
5, 2
1, 4
6, 3
7, 3
7, 5
3, 4
6, 2
7, 5
5, 5
4, 3
10, 6
5, 4
3, 8
6, 3
3, 1
2, 10
0, 5
4, 8
4, 10
3, 7
4, 4
2, 6
3, 7
2, 7
4, 5
3, 2
1, 3
2, 2
2, 0
2, 2
3, 3
1, 7
2, 2
6, 5
5, 1
2, 3
1, 2
4, 2
3, 2
0, 4
3, 1
3, 3
2, 4
1, 3
4, 3
2, 6
4, 5
2, 3
0, 3
5, 4
4, 6
2, 4
3, 3
2, 3
2, 1
4, 3
1, 3
1, 1
3, 1
4, 2
3, 2
0, 2
2, 7
2, 4
4, 0
3, 2
0, 3
2, 2
3, 2
0, 4
1, 0
1, 4
4, 4
3, 3
3, 3
1, 2
1, 5
2, 2
5, 1
1, 1
2, 0
0, 1
2, 0
5, 2
0, 1
1, 0
3, 2
2, 2
3, 0
0, 3
2, 2
2, 1
2, 3
2, 2
2, 3
1, 1
1, 2
4, 4
1, 2
2, 4
2, 3
1, 4
1, 2
1, 2
0, 1
0, 0
1, 1
1, 2
0, 2
2, 4
0, 3
2, 5
1, 1
1, 7
4, 4
0, 1
1, 1
1, 1
2, 2
1, 3
3, 3
5, 2
7, 5
4, 5
7, 2
6, 3
3, 4
5, 2
9, 1
2, 1
5, 3
2, 5
1, 2
1, 4
0, 9
1, 4
2, 0
3, 0
4, 3
1, 2
1, 2
5, 1
1, 2
1, 0
1, 2
1, 0
2, 2
0, 0
1, 0
4, 3
1, 0
1, 4
1, 2
1, 1
3, 2
3, 4
3, 1
1, 2
1, 1
3, 1
1, 2
4, 1
2, 0
1, 0
0, 0
0, 0
1, 3
0, 2
0, 1
0, 2
1, 0
1, 2
1, 0
5, 0
3, 1
0, 1
0, 0
0, 0
1, 0
0, 5
3, 0
1, 0
1, 1
3, 4
2, 2
0, 0
0, 1
0, 0
1, 1
2, 0
1, 3
1, 0
2, 0
3, 0
0, 1
2, 0
1, 1
1, 1
1, 2
0, 0
0, 3
0, 0
1, 1
0, 0
1, 1
1, 1
0, 2
0, 0
0, 1
0, 1
0, 1
2, 0
1, 0
1, 1
2, 0
1, 1
1, 1
0, 0
1, 0
1, 1
0, 3
0, 0
2, 2
1, 1
0, 0
2, 1
0, 2
0, 0
1, 0
1, 0
1, 1
0, 0
0, 1
1, 1
1, 2
2, 2
0, 0
0, 1
0, 0
1, 0
0, 0
1, 0
1, 0
0, 0
0, 0
0, 1
0, 0
3, 1
1, 3
0, 3
1, 0
1, 0
0, 0
0, 1
1, 0
1, 0
1, 2
0, 0
2, 3
0, 0
0, 0
0, 0
0, 1
0, 0
2, 0
0, 0
1, 0
0, 0
2, 0
0, 3
0, 0
0, 0
0, 1
0, 0
1, 0
0, 0
1, 0
0, 0
2, 0
0, 0
1, 0
0, 0
0, 0
0, 1
1, 0
0, 1
1, 0
2, 1
0, 1
0, 0
1, 0
1, 0
0, 0
1, 1
0, 1
0, 0
0, 0
0, 0
0, 0
0, 1
0, 0
0, 0
2, 0
0, 0
0, 0
0, 0
3, 1
0, 0
1, 0
0, 0
1, 1
0, 0
0, 0
0, 0
0, 1
0, 0
1, 1
0, 0
0, 0
0, 0
0, 0
0, 2
1, 0
0, 1
0, 0
0, 2
0, 2
0, 1
0, 0
2, 0
0, 0
0, 0
0, 0
0, 0
0, 0
0, 0
1, 0
0, 0
0, 0
0, 0
0, 0
1, 0
0, 1
1, 0
0, 1
0, 1
1, 0
0, 0
0, 0
0, 0
0, 1
0, 0
0, 0
0, 1
0, 1
0, 0
3, 0
0, 0
0, 0
1, 0
0, 0
0, 0
0, 1
0, 0
0, 0
0, 0
0, 1
2, 0
0, 1
1, 0
0, 0
1, 0
0, 1
1, 0
0, 0
0, 0
0, 0
1, 0
0, 1
1, 0
1, 1
1, 0
0, 0
0, 0
0, 0
0, 0
1, 0
1, 0
0, 0
0, 1
0, 1
1, 0
0, 1
0, 0
0, 0
0, 0
0, 0
0, 0
1, 1
0, 0
0, 0
1, 0
0, 0
0, 1
0, 0
0, 0
0, 0
0, 0
0, 0
0, 0
0, 1
1, 0
0, 1
1, 0
0, 0
0, 0
0, 0
0, 0
0, 0
0, 0
0, 0
0, 0
0, 0
0, 0
0, 0
1, 0
0, 1
0, 0
0, 0
0, 0
0, 0
0, 0
0, 1
0, 0
0, 1
0, 0
0, 1
0, 0
0, 0
0, 0
0, 0
0, 0
0, 0
0, 0
0, 0
0, 0
1, 0
2, 0
0, 0
0, 1
0, 0
0, 0
1, 0
0, 0
0, 0
0, 0
0, 0
0, 0
0, 0
0, 0
0, 0
0, 0
0, 0
0, 0
0, 0
0, 0
0, 0
0, 0
0, 0
0, 0
0, 0
0, 0
0, 0
0, 0
0, 0
0, 0
1, 0
0, 0
0, 0
1, 0
0, 0
0, 0
0, 0
0, 0
0, 0
1, 0
0, 0
0, 0
0, 0
0, 0
0, 0
0, 0
0, 0
0, 0
0, 0
0, 0
0, 0
0, 0
0, 0
0, 0
0, 0
0, 0
0, 0
0, 0
0, 0
0, 0
0, 1
0, 0
0, 0
0, 0
0, 0
0, 0
0, 0
0, 0
0, 0
0, 0
0, 0
0, 0
1, 1
0, 0
0, 0
0, 0
0, 0
0, 0
0, 0
0, 0
0, 0
0, 0
0, 0
0, 0
0, 0
0, 0
0, 0
0, 0
0, 0
0, 0
0, 0
0, 0
0, 0
0, 0
0, 0
0, 0
0, 0
0, 0
0, 0
0, 0
1, 0
0, 0
1, 0
0, 0
0, 0
0, 0
0, 0
0, 1
0, 0
0, 0
0, 0
0, 0
0, 0
0, 0
0, 0
0, 0
0, 0
0, 1
0, 0
0, 0
0, 0
0, 0
0, 0
0, 0
0, 0
0, 0
0, 0
0, 0
0, 0
0, 0
0, 0
0, 0
0, 0
0, 0
0, 0
0, 0
0, 0
0, 0
0, 0
0, 0
0, 0
0, 0
0, 0
0, 0
0, 0
0, 0
0, 0
0, 0
0, 0
0, 0
0, 0
0, 0
0, 0
0, 0
0, 0
0, 0
0, 0
0, 0
0, 0
0, 0
0, 0
0, 0
0, 0
0, 0
0, 0
0, 0
0, 0
0, 0
0, 0
0, 0
0, 0
0, 0
0, 0
0, 0
0, 0
0, 0
0, 0
0, 0
0, 0
0, 0
0, 0
0, 0
0, 0
0, 0
0, 0
0, 0
0, 0
0, 0
0, 0
0, 0
0, 0
0, 0
0, 0
0, 0
0, 0
0, 0
0, 0
0, 0
0, 0
0, 0
0, 0
0, 0
1, 0
0, 0
0, 0
0, 0
0, 0
0, 0
0, 0
0, 0
0, 0
0, 0
0, 0
0, 0
0, 0
0, 0
0, 0
0, 0
0, 0
0, 0
0, 0
0, 0
0, 0
0, 0
0, 0
0, 0
0, 0
0, 0
0, 0
0, 0
0, 0
0, 0
0, 0
0, 0
0, 0
0, 0
0, 0
0, 0
0, 0
0, 0
0, 0
0, 0
0, 0
0, 0
0, 0
0, 0
0, 0
0, 0
0, 0
0, 0
0, 0
0, 0
0, 0
0, 0
0, 0
0, 0
0, 0
0, 0
0, 0
0, 0
0, 0
0, 0
0, 0
0, 0
0, 0
0, 0
0, 0
0, 0
0, 0
0, 0
0, 0
0, 0
0, 0
0, 0
0, 0
0, 0
0, 0
0, 0
0, 0
0, 0
0, 0
0, 0
0, 0
0, 0
0, 0
0, 0
0, 0
0, 0
0, 0
0, 0
0, 0
0, 0
0, 0
0, 0
0, 0
0, 0
0, 0
0, 0
0, 0
0, 0
0, 0
0, 0
0, 0
0, 0
0, 0
0, 0
0, 0
0, 0
0, 0
0, 0
0, 0
0, 0
0, 0
0, 0
0, 0
0, 0
0, 0
0, 0
0, 0
0, 0
0, 0
0, 0
0, 0
0, 0
0, 0
0, 0
0, 0
0, 0
0, 0
0, 0
0, 0
0, 0
0, 0
0, 0
0, 0
0, 0
0, 0
0, 0
0, 0
0, 0
0, 0
0, 0
0, 0
0, 0
0, 0
0, 0
0, 0
0, 0
0, 0
0, 0
0, 0
0, 0
0, 0
0, 0
0, 0
0, 0
0, 0
0, 0
0, 0
0, 0
0, 0
0, 0
0, 0
0, 0
0, 0
0, 0
0, 0
0, 0
0, 0
0, 0
0, 0
0, 0
0, 0
0, 0
0, 0
0, 0
0, 0
0, 0
0, 0
0, 0
0, 0
0, 0
0, 0
0, 0
0, 0
0, 0
0, 0
0, 0
0, 0
0, 0
0, 0
0, 0
0, 0
0, 0
0, 0
0, 0
0, 0
0, 0
0, 0
0, 0
0, 0
0, 0
0, 0
0, 0
0, 0
0, 0
0, 0
0, 0
0, 0
0, 0
0, 0
0, 0
0, 0
0, 0
0, 0
0, 0
0, 0
0, 0
0, 0
0, 0
0, 0
0, 0
0, 0
0, 0
0, 0
0, 0
0, 0
0, 0
0, 0
0, 0
0, 0
0, 0
0, 0
0, 0
0, 0
0, 0
0, 0
0, 0
0, 0
0, 0
0, 0
0, 0
0, 0
0, 0
0, 0
0, 0
0, 0
0, 0
0, 0
0, 0
0, 0
0, 0
0, 0
0, 0
0, 0
0, 0
0, 0
0, 0
0, 0
0, 0
0, 0
0, 0
0, 0
0, 0
0, 0
0, 0
0, 0
0, 0
0, 0
0, 0
0, 0
0, 0
0, 0
0, 0
0, 0
0, 0
0, 0
0, 0
0, 0
0, 0
0, 0
0, 0
0, 0
0, 0
0, 0
0, 0
0, 0
0, 0
0, 0
0, 0
0, 0
0, 0
0, 0
0, 0
0, 0
0, 0
0, 0
0, 0
0, 0
0, 0
0, 0
0, 0
0, 0
0, 0
0, 0
#ENDOFDATA     end of spectrum data