File: host_upload/06-09-2024/ps_0852/dump3/ps__0852shot_2379.msa
#FORMAT      : EMSA/MAS spectral data file
#VERSION     : TC202v2.0 PIXL
#TITLE       : N/A
#DATE        :       Date in the format DD-MMM-YYYY, for example 07-JUL-2010
#TIME        :             The time of day at which the spectrum was recorded, in 24-hour format
#OWNER       : PIXL Flight Model       (PIXL will use this to indicate which instrument took the data.)
#NPOINTS     : 4096     Number of data points in the spectrum (This can be zero for configuration only files)
#NCOLUMNS    : 2     Number of data columns in the spectrum (This can be zero for configuration only files)
#XUNITS      : eV
#YUNITS      : COUNTS
#DATATYPE    : YY
#XPERCHAN    : 7.862, 7.881   eV per channel (separate by commas if more than one detector)
#OFFSET      : 18.5, -22.4         eV of first channel  (separate by commas if more than one detector
#SIGNALTYPE  : XRF
#YP_TEMP     : 2.332
#LIVETIME    : 8.5621, 8.57186   seconds (separate by commas if more than one detector)
#REALTIME    : 10, 10.0   seconds (separate by commas if more than one detector)
#SPECTRUM    : start of spectrum data
0, 0
0, 0
0, 0
0, 0
0, 0
0, 0
0, 0
0, 0
0, 0
0, 0
0, 0
0, 0
0, 0
0, 0
0, 0
0, 0
0, 0
0, 0
0, 0
0, 0
0, 0
0, 0
0, 0
0, 0
0, 0
0, 0
0, 0
0, 0
0, 0
0, 0
0, 0
0, 0
0, 0
0, 0
0, 0
1, 0
0, 0
2, 0
1, 1
1, 2
1, 3
2, 0
2, 1
0, 4
1, 1
1, 2
0, 1
1, 4
11, 6
18, 12
34, 25
33, 49
60, 58
75, 74
77, 71
71, 72
75, 60
52, 56
32, 29
16, 5
16, 9
8, 4
6, 1
6, 9
8, 2
8, 7
9, 8
10, 13
22, 24
55, 44
88, 99
175, 159
221, 270
361, 378
453, 432
459, 371
416, 396
322, 277
203, 175
115, 106
59, 69
47, 46
16, 21
8, 8
6, 1
3, 3
6, 3
2, 1
0, 0
1, 0
1, 3
0, 1
1, 0
1, 1
2, 0
2, 1
1, 5
6, 1
8, 4
6, 1
4, 7
3, 4
2, 6
2, 1
1, 2
2, 1
3, 5
6, 6
10, 15
4, 27
22, 32
38, 51
50, 52
36, 92
49, 93
46, 89
45, 86
30, 95
32, 70
34, 40
33, 28
25, 28
25, 20
14, 19
18, 16
6, 15
8, 17
13, 11
8, 14
10, 6
6, 3
13, 4
3, 3
1, 2
1, 2
0, 1
0, 2
1, 0
1, 5
1, 1
3, 3
4, 3
4, 2
2, 2
3, 5
2, 2
1, 1
1, 1
2, 2
3, 2
1, 1
1, 5
4, 5
7, 9
9, 9
14, 10
16, 15
16, 12
10, 7
7, 6
15, 6
5, 10
5, 7
10, 6
5, 1
3, 4
3, 5
1, 4
3, 5
1, 5
6, 4
6, 6
2, 3
7, 4
2, 7
0, 8
3, 1
1, 5
6, 8
4, 7
2, 2
6, 4
3, 3
3, 1
4, 3
4, 6
7, 7
4, 8
6, 7
14, 5
25, 6
35, 14
32, 6
60, 12
42, 12
39, 8
50, 16
31, 16
22, 11
23, 18
24, 13
12, 7
9, 6
10, 7
8, 7
5, 4
3, 4
2, 5
7, 7
6, 1
2, 4
8, 6
4, 5
4, 5
3, 4
5, 10
5, 8
5, 12
4, 13
5, 30
3, 33
8, 46
6, 76
12, 103
6, 102
7, 102
19, 87
14, 110
14, 90
13, 58
8, 43
22, 29
13, 25
15, 14
6, 9
15, 18
20, 13
27, 8
40, 9
46, 12
56, 7
65, 17
68, 7
64, 17
81, 13
69, 24
66, 29
71, 30
84, 55
57, 45
78, 71
70, 65
75, 61
59, 45
54, 36
42, 25
27, 32
24, 20
19, 19
18, 25
21, 20
26, 33
47, 62
75, 98
167, 206
266, 381
473, 631
778, 945
1201, 1331
1615, 1876
2042, 2204
2295, 2435
2515, 2543
2412, 2359
2122, 1909
1730, 1640
1312, 1105
886, 765
565, 479
345, 245
197, 148
109, 101
51, 60
28, 41
17, 18
16, 18
20, 13
16, 16
17, 19
19, 16
23, 28
27, 41
26, 71
67, 86
84, 113
156, 168
226, 216
295, 287
326, 323
325, 355
385, 382
363, 333
320, 270
235, 219
195, 147
144, 100
95, 69
69, 50
49, 21
36, 22
50, 8
36, 11
63, 9
48, 15
51, 12
60, 8
46, 16
40, 9
41, 19
23, 15
29, 13
12, 10
10, 7
11, 3
11, 3
8, 5
4, 5
1, 3
3, 3
4, 3
4, 3
3, 7
3, 2
3, 3
2, 4
3, 4
2, 6
3, 5
3, 9
6, 5
5, 7
3, 6
7, 1
3, 4
6, 5
7, 7
4, 12
2, 11
5, 4
6, 6
5, 4
5, 6
5, 6
6, 3
7, 3
6, 5
3, 3
3, 5
2, 2
7, 4
7, 3
6, 4
4, 5
10, 3
9, 2
8, 1
13, 1
4, 5
7, 3
6, 4
5, 5
9, 8
2, 7
4, 6
5, 5
4, 8
5, 4
5, 9
7, 6
3, 3
3, 6
0, 0
3, 6
2, 6
3, 3
6, 3
2, 8
3, 5
1, 1
2, 3
1, 2
4, 1
4, 13
6, 4
4, 2
2, 6
3, 5
2, 5
1, 6
6, 5
2, 7
4, 0
2, 2
3, 6
3, 2
6, 2
4, 1
5, 2
4, 0
3, 2
2, 4
5, 8
2, 3
3, 2
2, 1
4, 4
7, 3
5, 3
2, 6
4, 5
4, 3
2, 4
5, 4
3, 2
4, 3
8, 3
6, 1
3, 3
11, 3
13, 2
10, 3
14, 2
18, 3
15, 0
17, 2
19, 2
18, 2
7, 2
8, 3
9, 3
4, 3
7, 2
2, 4
1, 5
2, 3
3, 5
0, 2
4, 2
1, 7
0, 2
4, 6
3, 5
3, 2
1, 4
1, 1
2, 5
2, 4
4, 0
2, 1
2, 3
4, 4
3, 1
2, 1
1, 2
2, 4
4, 1
0, 1
3, 1
2, 3
3, 7
4, 4
4, 2
2, 3
1, 0
4, 1
3, 1
1, 3
0, 3
1, 2
1, 5
1, 3
0, 2
1, 0
1, 0
2, 2
6, 1
1, 1
2, 1
1, 1
1, 0
2, 2
2, 3
2, 5
1, 1
4, 4
1, 1
3, 10
4, 3
3, 3
5, 1
2, 2
4, 5
2, 11
4, 3
2, 7
2, 5
3, 8
1, 11
3, 8
5, 6
4, 5
6, 3
3, 4
4, 1
2, 1
3, 3
3, 3
1, 1
2, 4
5, 2
1, 2
1, 1
0, 3
3, 1
2, 0
4, 3
2, 0
2, 0
1, 2
3, 3
4, 1
1, 1
1, 4
1, 3
1, 2
3, 3
3, 3
1, 1
2, 4
3, 0
3, 7
5, 4
2, 8
3, 4
3, 5
8, 2
4, 2
3, 1
2, 1
6, 1
1, 2
2, 2
2, 2
2, 2
1, 2
4, 2
3, 2
1, 0
1, 2
1, 1
3, 0
2, 2
1, 1
3, 0
3, 4
1, 0
1, 1
0, 1
4, 2
3, 5
2, 2
2, 1
3, 2
1, 0
2, 1
0, 1
2, 0
1, 1
0, 1
5, 1
1, 0
3, 0
2, 0
0, 4
0, 0
1, 3
1, 0
3, 0
1, 1
0, 0
0, 1
0, 1
1, 0
0, 1
2, 0
0, 1
0, 0
0, 2
1, 1
2, 1
0, 2
1, 0
3, 3
3, 0
0, 1
1, 0
0, 1
1, 0
1, 0
1, 1
1, 1
1, 1
0, 2
3, 0
1, 2
3, 1
1, 0
1, 0
1, 0
0, 0
0, 0
0, 0
1, 1
0, 0
1, 1
2, 0
2, 1
0, 2
2, 0
1, 0
4, 1
2, 1
3, 1
0, 2
1, 0
1, 1
0, 0
2, 0
0, 0
0, 0
0, 1
1, 0
2, 0
0, 0
1, 0
1, 1
0, 0
3, 2
1, 2
1, 1
0, 0
1, 0
1, 2
0, 1
0, 0
0, 0
1, 1
1, 0
1, 0
1, 0
0, 0
0, 1
0, 1
0, 0
1, 0
1, 0
0, 1
1, 0
0, 1
0, 0
2, 2
1, 0
3, 0
1, 1
0, 0
0, 0
1, 2
0, 2
1, 0
0, 0
0, 1
0, 0
0, 0
0, 2
0, 0
1, 0
0, 0
0, 1
1, 0
2, 0
2, 1
2, 0
1, 0
1, 1
1, 0
0, 0
0, 0
0, 1
0, 0
1, 0
0, 0
0, 0
0, 0
0, 0
1, 0
0, 0
0, 0
0, 0
1, 1
1, 1
0, 0
0, 0
0, 0
0, 0
0, 0
1, 1
0, 1
0, 0
1, 0
1, 0
1, 2
0, 0
2, 0
1, 0
1, 0
1, 0
0, 0
2, 0
0, 1
0, 0
0, 0
1, 0
0, 0
0, 0
1, 0
0, 1
0, 0
0, 0
0, 1
0, 0
0, 0
0, 0
0, 0
0, 0
0, 1
0, 1
0, 0
0, 0
1, 1
0, 0
0, 2
0, 0
1, 1
0, 0
1, 0
0, 0
0, 0
0, 1
0, 1
0, 2
1, 0
1, 0
0, 0
0, 0
0, 1
0, 0
0, 2
0, 0
0, 0
0, 1
1, 1
0, 0
0, 1
0, 0
0, 0
1, 0
0, 0
0, 1
0, 1
0, 0
0, 0
0, 0
0, 0
1, 1
2, 0
2, 0
1, 0
0, 0
2, 0
0, 1
1, 0
0, 1
0, 0
0, 0
0, 0
0, 0
0, 1
1, 0
0, 0
0, 1
1, 0
0, 0
2, 0
1, 0
0, 0
0, 0
0, 0
1, 0
0, 0
0, 0
1, 2
2, 0
0, 0
0, 1
0, 0
0, 0
0, 0
0, 0
0, 0
0, 0
0, 0
0, 0
0, 0
1, 0
0, 0
0, 1
0, 0
0, 0
0, 0
0, 0
0, 0
1, 0
0, 1
0, 0
0, 0
0, 0
0, 1
0, 0
0, 0
0, 0
1, 0
0, 0
1, 0
0, 1
0, 0
1, 0
0, 0
0, 0
0, 0
0, 0
0, 0
0, 0
0, 0
0, 0
0, 0
0, 0
0, 0
0, 0
0, 0
0, 0
0, 0
0, 0
0, 0
0, 0
0, 0
0, 0
0, 0
1, 0
0, 0
1, 0
1, 0
0, 0
0, 0
0, 1
0, 0
1, 0
0, 1
0, 0
0, 0
1, 0
0, 0
0, 0
0, 0
0, 0
0, 0
0, 0
0, 0
0, 0
0, 0
0, 0
0, 0
0, 0
0, 0
0, 0
0, 0
0, 0
0, 0
0, 1
0, 0
0, 0
0, 0
0, 0
0, 0
0, 0
0, 0
0, 0
1, 0
0, 0
0, 0
0, 0
0, 1
0, 0
0, 0
0, 0
0, 0
0, 0
0, 0
0, 0
0, 0
0, 0
0, 0
0, 0
0, 0
0, 0
0, 0
0, 0
0, 0
0, 0
0, 0
0, 0
0, 0
0, 0
0, 0
0, 0
0, 0
0, 0
0, 0
0, 0
0, 1
0, 0
0, 0
0, 0
0, 0
0, 0
0, 0
0, 0
0, 0
0, 0
0, 0
0, 0
0, 0
0, 0
0, 0
0, 0
0, 0
0, 1
0, 0
0, 0
0, 0
0, 0
0, 0
0, 0
0, 0
0, 0
0, 0
0, 0
0, 0
0, 0
0, 0
0, 1
0, 0
0, 0
0, 0
0, 0
0, 0
0, 0
0, 0
0, 0
0, 0
0, 0
0, 0
0, 0
0, 0
0, 0
0, 0
0, 0
0, 0
0, 0
0, 0
0, 0
0, 0
0, 0
0, 0
0, 0
0, 0
1, 0
0, 0
0, 0
0, 0
0, 0
0, 0
0, 0
0, 0
0, 0
0, 0
0, 0
0, 0
0, 0
0, 0
0, 0
0, 1
0, 0
0, 0
0, 0
0, 0
0, 0
0, 0
0, 0
0, 0
0, 0
0, 0
0, 0
0, 0
0, 0
0, 0
0, 0
0, 0
0, 0
0, 0
0, 0
0, 0
0, 0
0, 0
0, 0
0, 0
0, 0
0, 0
0, 0
0, 0
0, 0
0, 0
0, 0
0, 0
0, 0
0, 0
0, 0
0, 0
0, 0
0, 0
1, 0
0, 0
0, 0
0, 0
0, 0
0, 0
0, 0
0, 0
0, 0
0, 0
0, 0
0, 0
0, 0
0, 0
0, 0
0, 0
0, 0
0, 0
0, 0
0, 0
0, 0
0, 0
0, 0
0, 0
0, 0
0, 0
0, 0
0, 0
0, 0
0, 0
0, 0
0, 0
0, 0
0, 0
0, 0
0, 0
0, 0
0, 0
0, 0
0, 0
0, 0
0, 0
0, 0
0, 0
0, 0
0, 0
0, 0
0, 0
0, 0
0, 0
0, 0
0, 0
0, 0
0, 0
0, 0
0, 0
0, 0
0, 0
0, 0
0, 0
0, 0
0, 0
0, 0
0, 0
0, 0
0, 0
0, 0
0, 0
0, 0
0, 0
0, 0
0, 0
0, 0
0, 0
0, 0
0, 0
0, 0
0, 0
0, 0
0, 0
0, 0
0, 0
0, 0
0, 0
0, 0
0, 0
0, 0
0, 0
0, 0
0, 0
0, 0
0, 0
0, 0
0, 0
0, 0
0, 0
0, 0
0, 0
0, 0
0, 0
0, 0
0, 0
0, 0
0, 0
0, 0
0, 0
0, 0
0, 0
0, 0
0, 0
0, 0
0, 0
0, 0
0, 0
0, 0
0, 0
0, 0
0, 0
0, 0
0, 0
0, 0
0, 0
0, 0
0, 0
0, 0
0, 0
0, 0
0, 0
0, 0
0, 0
0, 0
0, 0
0, 0
0, 0
0, 0
0, 0
0, 0
0, 0
0, 0
0, 0
0, 0
0, 0
0, 0
0, 0
0, 0
0, 0
0, 0
0, 0
0, 0
0, 0
0, 0
0, 0
0, 0
1, 0
0, 0
0, 0
0, 0
0, 0
0, 0
0, 0
0, 0
0, 0
0, 0
0, 0
0, 0
0, 0
0, 0
0, 0
0, 0
0, 0
0, 0
0, 0
0, 0
0, 0
0, 0
0, 0
0, 0
0, 0
0, 0
0, 0
0, 0
0, 0
0, 0
0, 0
0, 0
0, 0
0, 0
0, 0
0, 0
0, 0
0, 0
0, 0
0, 0
0, 0
0, 0
0, 0
0, 0
0, 0
0, 0
0, 0
0, 0
0, 0
0, 0
0, 0
0, 0
0, 0
0, 0
0, 0
0, 0
0, 0
0, 0
0, 0
0, 0
0, 0
0, 0
0, 0
0, 0
0, 0
0, 0
0, 0
0, 0
0, 0
0, 0
0, 0
0, 0
0, 0
0, 0
0, 0
0, 0
0, 0
0, 0
0, 0
0, 0
0, 0
0, 0
0, 0
0, 0
0, 0
0, 0
0, 0
0, 0
0, 0
0, 0
0, 0
0, 0
0, 0
0, 0
0, 0
0, 0
0, 0
0, 0
0, 0
0, 0
0, 0
0, 0
0, 0
0, 0
0, 0
0, 0
0, 0
0, 0
0, 0
0, 0
0, 0
0, 0
0, 0
0, 0
0, 0
0, 0
0, 0
0, 0
0, 0
0, 0
0, 0
0, 0
0, 0
0, 0
0, 0
0, 0
0, 0
0, 0
0, 0
0, 0
0, 0
0, 0
0, 0
0, 0
0, 0
0, 0
0, 0
0, 0
0, 0
0, 0
0, 0
0, 0
0, 0
0, 0
0, 0
0, 0
0, 0
0, 0
0, 0
0, 0
0, 0
0, 0
0, 0
0, 0
0, 0
0, 0
0, 0
0, 0
0, 0
0, 0
0, 0
0, 0
0, 0
0, 0
#ENDOFDATA     end of spectrum data