File: host_upload/06-09-2024/ps_0852/dump3/ps__0852shot_2027.msa
#FORMAT      : EMSA/MAS spectral data file
#VERSION     : TC202v2.0 PIXL
#TITLE       : N/A
#DATE        :       Date in the format DD-MMM-YYYY, for example 07-JUL-2010
#TIME        :             The time of day at which the spectrum was recorded, in 24-hour format
#OWNER       : PIXL Flight Model       (PIXL will use this to indicate which instrument took the data.)
#NPOINTS     : 4096     Number of data points in the spectrum (This can be zero for configuration only files)
#NCOLUMNS    : 2     Number of data columns in the spectrum (This can be zero for configuration only files)
#XUNITS      : eV
#YUNITS      : COUNTS
#DATATYPE    : YY
#XPERCHAN    : 7.862, 7.881   eV per channel (separate by commas if more than one detector)
#OFFSET      : 18.5, -22.4         eV of first channel  (separate by commas if more than one detector
#SIGNALTYPE  : XRF
#YP_TEMP     : 2.3
#LIVETIME    : 8.55362, 8.56715   seconds (separate by commas if more than one detector)
#REALTIME    : 10, 10.0   seconds (separate by commas if more than one detector)
#SPECTRUM    : start of spectrum data
0, 0
0, 0
0, 0
0, 0
0, 0
0, 0
0, 0
0, 0
0, 0
0, 0
0, 0
0, 0
0, 0
0, 0
0, 0
0, 0
0, 0
0, 0
0, 0
0, 0
0, 0
0, 0
0, 0
0, 0
0, 0
0, 0
0, 0
0, 0
0, 0
0, 0
0, 0
0, 0
0, 0
0, 0
0, 0
0, 1
0, 0
2, 1
0, 0
0, 2
0, 0
3, 1
2, 1
1, 1
2, 1
0, 3
3, 2
1, 1
9, 3
7, 14
18, 22
34, 42
34, 49
56, 57
61, 58
58, 64
57, 67
43, 28
22, 27
20, 15
4, 15
8, 1
5, 5
2, 1
6, 3
4, 8
9, 14
9, 15
19, 22
47, 65
87, 95
168, 194
242, 316
317, 442
387, 500
410, 420
378, 403
276, 355
198, 216
127, 138
74, 81
38, 40
14, 23
10, 17
11, 10
4, 7
3, 6
2, 3
3, 6
2, 4
3, 1
2, 2
5, 3
13, 6
6, 11
13, 20
23, 24
25, 24
32, 28
29, 39
20, 35
22, 20
13, 15
18, 15
14, 8
6, 7
6, 5
5, 13
19, 18
19, 27
18, 36
37, 44
35, 31
35, 51
45, 40
41, 53
36, 34
34, 23
34, 38
35, 27
30, 21
23, 18
27, 21
25, 13
21, 19
18, 17
14, 6
12, 7
7, 11
7, 8
7, 5
5, 1
3, 4
2, 2
2, 3
0, 1
1, 2
3, 1
0, 1
3, 2
1, 3
2, 1
2, 1
1, 2
0, 3
3, 2
3, 5
2, 3
6, 3
3, 11
10, 7
24, 24
36, 45
58, 72
53, 105
97, 152
121, 153
134, 160
127, 164
121, 155
97, 108
67, 81
50, 55
25, 32
13, 21
7, 10
6, 7
12, 15
12, 20
19, 21
19, 26
17, 26
17, 36
23, 27
19, 16
8, 13
12, 7
4, 5
4, 8
4, 6
4, 4
7, 5
9, 3
10, 2
8, 7
15, 6
13, 8
11, 7
9, 10
14, 10
14, 22
12, 19
13, 15
9, 26
16, 24
14, 25
18, 23
11, 15
6, 16
15, 18
11, 14
8, 11
4, 4
9, 5
3, 5
4, 9
4, 6
6, 4
4, 7
3, 8
6, 4
4, 4
2, 4
4, 5
3, 6
5, 5
9, 5
3, 9
6, 6
7, 3
8, 7
7, 8
7, 1
12, 10
10, 9
9, 12
12, 10
10, 20
16, 22
14, 21
21, 21
16, 28
22, 24
14, 22
21, 16
11, 8
13, 9
16, 7
15, 5
31, 8
32, 9
43, 11
29, 12
40, 13
32, 15
32, 17
40, 35
32, 38
41, 52
47, 65
58, 46
52, 77
55, 64
52, 50
35, 38
34, 30
26, 33
25, 23
22, 26
30, 12
13, 19
25, 49
39, 66
80, 90
153, 202
227, 395
416, 616
659, 971
938, 1376
1250, 1780
1608, 2163
1902, 2332
1971, 2457
1872, 2275
1818, 2022
1485, 1532
1154, 1167
851, 760
508, 470
308, 258
205, 154
114, 80
73, 32
35, 23
27, 17
11, 16
14, 11
12, 18
18, 15
17, 27
19, 34
34, 49
23, 55
61, 96
78, 93
130, 172
155, 228
215, 258
270, 335
288, 348
266, 368
311, 341
254, 320
218, 226
154, 164
112, 128
74, 78
40, 38
29, 26
20, 17
6, 11
6, 10
8, 4
6, 7
9, 10
10, 10
10, 11
7, 15
5, 9
5, 18
8, 13
5, 10
6, 8
6, 9
4, 5
9, 4
2, 6
5, 4
2, 6
2, 6
6, 6
4, 4
2, 5
1, 7
5, 8
5, 9
3, 10
2, 6
6, 14
4, 19
4, 11
4, 29
5, 39
5, 26
5, 34
2, 45
6, 45
4, 42
3, 40
2, 26
6, 35
4, 22
1, 14
5, 9
8, 8
3, 8
3, 4
3, 6
7, 8
3, 2
3, 7
7, 2
10, 2
3, 7
3, 4
6, 5
7, 1
2, 4
5, 1
6, 7
3, 6
1, 4
5, 3
5, 4
4, 3
2, 3
4, 0
3, 7
7, 5
7, 1
5, 4
10, 3
9, 3
10, 3
14, 3
17, 2
22, 4
30, 3
33, 4
32, 3
22, 3
37, 7
18, 4
27, 3
12, 4
16, 5
15, 3
15, 1
5, 5
4, 8
5, 5
4, 7
7, 4
3, 3
7, 0
11, 4
10, 5
12, 5
12, 4
17, 1
9, 4
10, 4
9, 4
10, 2
6, 4
4, 3
7, 4
6, 1
6, 0
3, 4
2, 5
4, 3
1, 4
3, 3
4, 6
2, 1
1, 3
1, 4
4, 1
2, 7
3, 3
2, 7
1, 2
4, 3
1, 1
4, 4
1, 4
4, 3
1, 3
3, 4
2, 4
3, 0
3, 3
5, 5
1, 5
2, 4
2, 2
2, 4
2, 3
3, 3
4, 2
1, 1
4, 4
1, 2
2, 1
5, 0
2, 3
2, 6
1, 3
2, 7
1, 4
3, 1
3, 1
0, 2
2, 1
3, 3
0, 0
2, 1
2, 1
0, 1
3, 5
5, 4
2, 1
3, 3
3, 3
0, 2
5, 3
6, 4
3, 0
3, 5
3, 3
9, 4
6, 1
4, 3
3, 2
4, 2
7, 1
3, 4
4, 0
4, 4
7, 4
2, 3
5, 0
2, 0
2, 0
6, 6
0, 2
3, 3
3, 4
1, 6
4, 10
6, 4
1, 5
1, 3
3, 9
2, 9
4, 5
2, 7
2, 10
3, 6
2, 3
4, 3
2, 0
0, 2
1, 3
3, 2
2, 3
2, 2
5, 3
1, 1
0, 1
2, 0
2, 4
0, 3
0, 6
0, 8
2, 3
0, 2
1, 1
5, 1
1, 0
2, 4
0, 2
2, 2
4, 1
3, 0
2, 1
1, 7
0, 6
4, 4
2, 7
2, 4
1, 7
5, 6
3, 3
1, 3
3, 2
1, 6
1, 5
1, 2
1, 2
0, 3
0, 2
1, 2
1, 1
0, 0
1, 3
1, 0
0, 2
1, 1
0, 4
0, 1
1, 4
2, 1
3, 1
8, 2
1, 4
0, 2
1, 5
1, 2
1, 2
2, 1
0, 3
2, 2
1, 3
1, 2
0, 1
4, 1
2, 1
1, 1
2, 2
2, 5
3, 1
0, 2
4, 4
0, 1
1, 0
0, 0
2, 0
0, 1
1, 3
3, 2
0, 1
1, 0
0, 0
0, 1
2, 0
1, 1
1, 2
3, 1
1, 0
2, 2
0, 1
0, 0
0, 1
3, 0
1, 0
0, 1
2, 1
1, 3
1, 0
1, 4
1, 1
0, 0
0, 1
0, 2
1, 1
1, 0
4, 0
1, 1
0, 0
0, 2
2, 1
0, 2
1, 0
1, 0
0, 1
0, 2
1, 0
2, 2
2, 0
1, 0
3, 0
1, 0
1, 0
0, 0
1, 1
0, 1
4, 0
0, 1
1, 0
0, 0
1, 1
1, 3
0, 1
0, 1
3, 1
0, 0
0, 1
0, 1
2, 0
0, 0
0, 0
2, 0
1, 0
0, 0
0, 1
2, 1
2, 1
0, 2
0, 1
0, 0
1, 0
2, 0
0, 1
0, 0
1, 0
0, 2
2, 1
0, 0
0, 0
0, 0
0, 0
0, 0
0, 0
0, 1
1, 1
1, 1
0, 0
0, 1
0, 1
2, 0
1, 0
0, 3
0, 0
1, 0
1, 1
1, 2
2, 2
0, 1
0, 2
1, 0
0, 2
1, 0
1, 0
0, 1
0, 1
0, 0
1, 0
0, 0
0, 0
0, 0
0, 1
0, 0
0, 0
1, 0
0, 1
1, 1
0, 1
1, 0
0, 1
0, 0
2, 1
0, 2
2, 0
0, 0
1, 1
0, 0
1, 0
0, 1
0, 0
0, 0
1, 1
0, 0
1, 1
0, 2
1, 0
0, 0
0, 1
0, 0
0, 0
0, 1
1, 0
0, 0
0, 0
0, 0
0, 2
1, 1
1, 0
0, 0
0, 0
0, 0
0, 0
0, 1
0, 0
0, 0
0, 1
1, 0
0, 0
1, 0
0, 1
0, 0
0, 0
0, 0
0, 1
0, 2
0, 0
0, 0
0, 1
0, 0
0, 0
0, 0
1, 0
1, 0
0, 0
0, 0
0, 0
0, 0
0, 0
0, 0
0, 0
0, 0
0, 0
0, 0
1, 1
0, 0
0, 1
0, 0
1, 1
0, 0
0, 0
0, 1
1, 0
0, 0
0, 0
0, 0
0, 0
0, 0
0, 0
0, 1
0, 0
0, 0
1, 0
0, 0
0, 0
0, 0
0, 0
0, 0
1, 0
1, 0
0, 0
1, 0
1, 1
0, 0
0, 1
1, 0
1, 0
1, 2
0, 0
0, 0
0, 0
1, 0
0, 0
0, 0
0, 0
0, 0
0, 1
0, 0
1, 0
0, 0
0, 1
0, 0
0, 0
0, 0
0, 0
0, 0
1, 0
0, 0
0, 0
0, 0
0, 0
1, 0
0, 1
0, 0
0, 0
0, 0
0, 0
0, 0
0, 0
0, 0
1, 1
0, 0
0, 0
0, 0
0, 0
0, 0
0, 1
0, 0
0, 1
0, 0
0, 0
0, 0
0, 1
0, 0
0, 0
0, 2
0, 0
0, 0
0, 0
0, 0
0, 0
0, 0
0, 0
0, 0
0, 1
0, 0
0, 0
0, 0
1, 0
0, 0
0, 0
0, 1
0, 0
0, 0
0, 0
0, 0
0, 0
0, 0
0, 0
0, 0
0, 0
0, 0
0, 0
0, 0
0, 0
0, 0
0, 0
0, 0
0, 0
0, 0
0, 0
1, 0
0, 0
0, 1
0, 0
0, 0
0, 0
0, 0
0, 0
0, 0
0, 0
0, 0
0, 0
0, 0
0, 0
0, 0
0, 0
0, 0
0, 0
0, 0
0, 0
0, 0
0, 0
0, 0
0, 0
0, 0
0, 0
0, 0
0, 0
0, 0
0, 0
0, 0
0, 0
0, 0
0, 0
0, 0
0, 0
0, 0
0, 0
0, 0
0, 0
0, 0
0, 0
0, 0
0, 0
0, 0
0, 0
1, 0
0, 0
0, 0
0, 0
0, 0
0, 0
0, 0
0, 0
0, 0
0, 0
0, 0
0, 0
0, 0
0, 0
0, 0
0, 0
0, 0
1, 0
0, 0
0, 0
0, 0
0, 0
0, 0
0, 0
0, 0
0, 0
0, 0
0, 0
0, 0
0, 0
0, 0
0, 0
0, 0
0, 0
0, 0
0, 0
0, 0
0, 0
0, 0
0, 0
0, 0
0, 0
0, 0
0, 0
0, 0
0, 0
0, 0
0, 0
0, 0
0, 0
0, 0
0, 0
0, 0
0, 0
0, 0
0, 0
0, 0
0, 0
0, 0
1, 0
0, 0
0, 0
0, 0
0, 0
0, 0
0, 0
0, 0
0, 0
0, 0
0, 0
0, 0
0, 0
0, 0
0, 0
0, 0
0, 0
0, 0
0, 0
0, 0
0, 0
0, 0
0, 0
0, 0
0, 0
0, 0
0, 0
0, 0
0, 0
0, 0
0, 0
0, 1
0, 0
0, 0
0, 0
0, 0
0, 0
0, 0
0, 0
0, 0
0, 0
0, 0
0, 0
0, 0
0, 0
0, 0
0, 0
0, 0
0, 0
0, 0
0, 0
0, 0
0, 0
0, 0
0, 0
0, 0
0, 0
0, 0
0, 0
0, 0
0, 0
0, 0
0, 0
0, 0
0, 0
0, 0
0, 0
0, 0
0, 0
0, 0
0, 0
0, 0
0, 0
0, 0
0, 0
0, 1
0, 0
0, 0
0, 0
0, 0
1, 0
0, 0
0, 0
0, 0
0, 0
0, 0
0, 0
0, 0
0, 0
0, 0
0, 0
0, 0
0, 0
0, 0
0, 0
0, 0
0, 0
0, 0
0, 0
0, 0
0, 0
0, 0
0, 0
0, 0
0, 0
0, 0
0, 0
0, 0
0, 0
0, 0
0, 0
0, 0
0, 0
0, 0
0, 0
0, 0
0, 0
0, 0
0, 0
0, 0
0, 0
0, 0
0, 0
0, 0
0, 0
0, 0
0, 0
0, 0
0, 0
0, 0
0, 0
0, 0
0, 0
0, 0
0, 0
0, 0
0, 0
0, 0
0, 0
0, 0
0, 0
0, 0
0, 0
0, 0
0, 0
0, 0
0, 0
0, 0
0, 0
0, 0
0, 0
0, 0
0, 0
0, 0
0, 0
0, 0
0, 0
0, 0
0, 0
0, 0
0, 0
0, 0
0, 0
0, 0
0, 0
0, 0
0, 0
0, 0
0, 0
0, 0
0, 0
0, 0
0, 0
0, 0
0, 0
0, 0
0, 0
0, 0
0, 0
0, 0
0, 0
0, 0
0, 0
0, 0
0, 0
0, 0
0, 0
0, 0
0, 0
0, 0
0, 0
0, 0
0, 0
0, 0
0, 0
0, 0
0, 0
0, 0
0, 0
0, 0
0, 0
0, 0
0, 0
0, 0
0, 0
0, 0
0, 0
0, 0
0, 0
0, 0
0, 0
0, 0
0, 0
0, 0
0, 0
0, 0
0, 0
0, 0
0, 0
0, 0
0, 0
0, 0
0, 0
0, 0
0, 0
0, 0
0, 0
0, 0
0, 0
0, 0
0, 0
0, 0
0, 0
0, 0
0, 0
0, 0
0, 0
0, 0
0, 0
0, 0
0, 0
0, 0
0, 0
0, 0
0, 0
0, 0
0, 0
0, 0
0, 0
0, 0
0, 0
0, 0
0, 0
0, 0
0, 0
0, 0
0, 0
0, 0
0, 0
0, 0
0, 0
0, 0
0, 0
0, 0
0, 0
0, 0
0, 0
0, 0
0, 0
0, 0
0, 0
0, 0
0, 0
0, 0
0, 0
0, 0
0, 0
0, 0
0, 0
0, 0
0, 0
0, 0
0, 0
0, 0
0, 0
0, 0
0, 0
0, 0
0, 0
0, 0
0, 0
0, 0
0, 0
0, 0
0, 0
0, 0
0, 0
0, 0
0, 0
0, 0
0, 0
0, 0
0, 0
0, 0
0, 0
0, 0
0, 0
0, 0
0, 0
0, 0
0, 0
0, 0
0, 0
0, 0
0, 0
0, 0
0, 0
0, 0
0, 0
0, 0
0, 0
0, 0
0, 0
0, 0
0, 0
0, 0
0, 0
0, 0
0, 0
0, 0
0, 0
0, 0
0, 0
0, 0
0, 0
0, 0
0, 0
0, 0
0, 0
0, 0
0, 0
0, 0
0, 0
0, 0
0, 0
0, 0
0, 0
0, 0
0, 0
0, 0
0, 0
0, 0
0, 0
0, 0
0, 0
0, 0
0, 0
0, 0
0, 0
0, 0
0, 0
0, 0
0, 0
0, 0
0, 0
0, 0
0, 0
0, 0
0, 0
0, 0
#ENDOFDATA     end of spectrum data