File: host_upload/06-09-2024/ps_0852/dump3/ps__0852shot_2221.msa
#FORMAT      : EMSA/MAS spectral data file
#VERSION     : TC202v2.0 PIXL
#TITLE       : N/A
#DATE        :       Date in the format DD-MMM-YYYY, for example 07-JUL-2010
#TIME        :             The time of day at which the spectrum was recorded, in 24-hour format
#OWNER       : PIXL Flight Model       (PIXL will use this to indicate which instrument took the data.)
#NPOINTS     : 4096     Number of data points in the spectrum (This can be zero for configuration only files)
#NCOLUMNS    : 2     Number of data columns in the spectrum (This can be zero for configuration only files)
#XUNITS      : eV
#YUNITS      : COUNTS
#DATATYPE    : YY
#XPERCHAN    : 7.862, 7.881   eV per channel (separate by commas if more than one detector)
#OFFSET      : 18.5, -22.4         eV of first channel  (separate by commas if more than one detector
#SIGNALTYPE  : XRF
#YP_TEMP     : 2.043
#LIVETIME    : 8.56364, 8.5786   seconds (separate by commas if more than one detector)
#REALTIME    : 10, 10.0   seconds (separate by commas if more than one detector)
#SPECTRUM    : start of spectrum data
0, 0
0, 0
0, 0
0, 0
0, 0
0, 0
0, 0
0, 0
0, 0
0, 0
0, 0
0, 0
0, 0
0, 0
0, 0
0, 0
0, 0
0, 0
0, 0
0, 0
0, 0
0, 0
0, 0
0, 0
0, 0
0, 0
0, 0
0, 0
0, 0
0, 0
0, 0
0, 2
0, 1
0, 3
1, 3
0, 5
0, 10
1, 24
0, 42
0, 44
0, 64
1, 89
1, 77
2, 64
1, 37
1, 32
0, 27
7, 11
4, 15
8, 14
28, 25
44, 43
74, 68
85, 63
98, 72
78, 73
69, 66
38, 69
35, 26
20, 14
11, 10
3, 8
2, 8
2, 8
5, 5
6, 12
3, 12
15, 20
24, 22
55, 58
92, 89
194, 177
256, 271
382, 350
401, 415
429, 377
424, 366
336, 303
230, 197
131, 114
87, 52
39, 40
16, 26
10, 20
0, 5
3, 9
1, 7
2, 5
0, 1
0, 6
1, 5
4, 5
1, 5
1, 3
1, 3
1, 4
1, 9
3, 1
6, 7
3, 9
2, 7
4, 8
3, 4
5, 12
2, 10
2, 22
1, 44
1, 108
4, 274
6, 524
7, 1071
18, 1912
25, 2817
26, 3878
29, 4748
30, 5102
28, 4544
20, 3853
16, 2837
23, 1899
22, 1082
17, 506
13, 286
17, 116
14, 54
8, 21
9, 13
6, 14
7, 12
8, 5
10, 7
3, 3
9, 3
5, 2
10, 3
5, 0
13, 2
6, 0
10, 0
8, 3
10, 2
7, 3
7, 0
6, 2
1, 1
3, 0
3, 2
2, 0
3, 3
1, 5
4, 2
6, 4
3, 8
7, 8
7, 9
11, 18
10, 12
16, 14
18, 19
25, 6
9, 14
8, 8
6, 6
3, 6
1, 3
1, 4
1, 4
3, 7
2, 11
7, 8
6, 4
3, 6
5, 6
4, 6
0, 8
4, 11
3, 9
3, 7
2, 13
0, 16
1, 12
1, 16
2, 14
7, 12
1, 8
5, 6
2, 7
3, 5
3, 13
7, 7
11, 7
6, 7
5, 9
12, 14
9, 15
14, 13
20, 13
22, 18
30, 18
27, 9
45, 13
51, 10
78, 9
100, 10
114, 9
117, 6
133, 7
118, 9
87, 4
73, 4
58, 10
33, 3
19, 7
15, 3
8, 6
9, 8
5, 1
5, 4
6, 12
8, 11
7, 14
5, 22
7, 41
8, 40
10, 65
13, 83
9, 103
8, 118
8, 117
11, 123
15, 91
13, 87
14, 50
16, 56
8, 27
14, 20
10, 9
9, 13
7, 9
12, 4
13, 12
10, 5
19, 5
16, 14
12, 17
18, 17
30, 28
40, 34
54, 47
59, 44
59, 63
52, 47
52, 53
59, 51
49, 41
32, 30
14, 26
27, 14
24, 19
19, 14
18, 27
23, 26
45, 50
80, 104
155, 201
289, 350
443, 571
743, 861
1159, 1258
1562, 1809
1911, 2116
2288, 2347
2392, 2319
2397, 2217
2038, 1921
1785, 1511
1312, 1123
884, 704
648, 430
383, 256
216, 167
108, 99
53, 31
22, 30
16, 23
11, 19
16, 31
16, 36
12, 37
18, 54
24, 56
21, 70
46, 110
65, 113
112, 146
134, 173
174, 257
250, 293
295, 351
338, 309
345, 375
370, 323
302, 272
255, 214
191, 149
131, 96
90, 69
62, 41
38, 24
26, 9
8, 7
10, 8
8, 7
14, 10
9, 9
10, 11
14, 11
14, 16
17, 15
15, 9
13, 4
8, 7
12, 2
5, 8
4, 12
9, 3
3, 3
0, 5
2, 2
1, 4
1, 7
4, 9
5, 10
2, 9
12, 12
7, 24
8, 29
14, 33
17, 49
28, 56
16, 66
24, 75
23, 71
19, 66
18, 61
16, 61
21, 36
14, 27
12, 19
9, 12
9, 9
6, 11
7, 3
6, 6
2, 7
7, 7
1, 7
6, 7
3, 3
3, 3
4, 3
4, 2
6, 0
2, 7
4, 2
4, 9
1, 2
3, 6
4, 1
5, 2
2, 4
2, 6
3, 3
3, 1
4, 5
5, 8
0, 3
7, 5
5, 8
1, 4
5, 6
2, 10
8, 12
6, 9
1, 11
5, 25
6, 13
1, 11
4, 15
6, 6
3, 8
3, 2
5, 7
3, 10
4, 6
0, 3
1, 4
4, 2
5, 4
1, 2
2, 5
3, 8
2, 4
6, 10
4, 6
3, 6
3, 12
2, 12
5, 10
3, 10
9, 6
3, 10
8, 8
6, 5
4, 6
2, 5
5, 7
2, 3
2, 4
3, 2
2, 3
2, 1
3, 4
4, 4
1, 2
2, 2
7, 0
3, 4
4, 2
3, 6
1, 4
0, 2
4, 2
1, 4
8, 3
1, 1
3, 2
7, 2
10, 0
18, 1
23, 4
11, 3
20, 2
20, 2
23, 11
26, 3
25, 10
19, 3
8, 4
13, 3
10, 5
9, 6
9, 4
6, 9
2, 8
6, 9
1, 9
1, 10
4, 7
2, 9
3, 5
3, 5
2, 5
2, 6
2, 5
1, 6
2, 2
1, 3
0, 3
2, 1
1, 7
1, 1
3, 2
2, 0
2, 2
2, 2
2, 1
5, 1
1, 1
2, 2
3, 2
2, 2
3, 3
2, 0
0, 4
1, 1
0, 4
0, 2
1, 4
1, 4
0, 0
2, 3
1, 1
3, 2
1, 4
1, 3
3, 4
4, 3
4, 4
3, 5
1, 5
0, 4
2, 5
2, 7
2, 4
7, 7
4, 2
5, 9
0, 2
6, 2
3, 4
3, 3
1, 1
1, 6
6, 4
1, 4
1, 1
3, 4
4, 3
1, 2
1, 2
3, 2
2, 2
0, 4
2, 3
1, 2
2, 3
0, 1
0, 1
1, 1
1, 1
2, 3
0, 3
2, 2
2, 2
1, 0
3, 2
0, 1
0, 4
5, 5
0, 4
4, 6
7, 3
7, 4
3, 5
7, 5
3, 3
3, 2
1, 4
2, 2
1, 1
4, 2
2, 3
0, 2
0, 2
3, 6
2, 2
4, 2
1, 2
2, 2
0, 4
0, 2
3, 2
0, 4
3, 0
2, 3
2, 4
1, 3
1, 2
3, 2
0, 3
2, 1
1, 2
4, 2
2, 1
4, 3
0, 0
1, 1
1, 1
1, 2
2, 2
0, 1
0, 2
1, 0
1, 4
1, 1
1, 1
0, 1
2, 0
3, 0
1, 0
2, 1
2, 0
2, 2
0, 1
0, 1
1, 1
0, 1
1, 0
0, 2
0, 0
1, 2
1, 1
0, 2
1, 1
0, 2
0, 1
1, 1
1, 1
0, 2
1, 0
5, 1
2, 1
1, 1
2, 0
4, 1
2, 1
2, 0
0, 2
0, 0
0, 2
1, 1
1, 1
1, 1
0, 0
1, 0
1, 1
1, 0
0, 1
0, 0
2, 0
1, 2
0, 0
0, 2
0, 1
2, 1
1, 0
0, 0
1, 1
1, 0
0, 1
0, 0
1, 1
0, 0
0, 0
0, 1
1, 2
0, 0
1, 1
2, 1
1, 1
0, 0
1, 1
0, 0
0, 0
1, 0
0, 1
1, 0
0, 1
1, 0
0, 0
0, 0
0, 0
0, 1
0, 0
3, 0
0, 0
1, 0
0, 0
1, 0
0, 0
0, 0
0, 0
0, 0
0, 0
0, 1
1, 0
1, 0
0, 0
1, 2
0, 1
1, 1
0, 0
0, 0
1, 0
0, 2
2, 0
0, 0
0, 0
0, 0
1, 0
0, 0
0, 0
1, 0
0, 1
1, 0
0, 0
0, 0
0, 1
1, 1
0, 0
0, 0
0, 0
1, 0
1, 1
1, 0
0, 0
0, 2
0, 1
0, 0
1, 0
0, 0
0, 0
0, 0
0, 0
0, 0
1, 0
0, 0
0, 0
0, 0
2, 0
2, 0
0, 0
0, 1
0, 0
0, 0
0, 0
0, 0
0, 1
0, 0
0, 0
0, 0
1, 0
0, 1
0, 0
1, 0
0, 0
0, 0
0, 1
0, 0
1, 0
0, 1
1, 1
0, 1
0, 0
0, 1
1, 0
0, 0
1, 0
0, 0
0, 0
0, 0
1, 0
0, 1
0, 2
1, 0
0, 1
0, 1
1, 1
0, 0
2, 1
1, 0
0, 0
0, 0
0, 0
0, 1
1, 0
0, 0
0, 0
1, 0
1, 0
0, 0
0, 0
1, 1
0, 0
0, 0
2, 1
0, 0
0, 1
0, 0
0, 0
1, 0
0, 1
0, 1
0, 0
0, 0
0, 0
0, 0
0, 0
0, 0
0, 0
0, 0
0, 0
0, 0
0, 0
0, 0
0, 0
0, 0
0, 1
0, 0
0, 0
0, 0
0, 0
0, 1
1, 0
0, 2
0, 0
0, 0
0, 0
0, 1
0, 0
0, 0
0, 0
0, 0
0, 0
0, 0
0, 0
0, 0
0, 1
1, 1
0, 1
0, 0
0, 1
0, 1
0, 0
1, 0
0, 0
0, 0
0, 1
0, 0
0, 0
2, 0
0, 1
0, 0
0, 0
0, 0
0, 0
0, 0
1, 0
1, 0
0, 0
0, 1
0, 0
0, 0
0, 0
0, 0
0, 0
0, 0
1, 1
0, 0
0, 1
0, 1
1, 0
0, 0
0, 0
1, 0
0, 0
1, 1
0, 0
1, 0
1, 0
1, 0
0, 0
0, 0
0, 0
0, 1
0, 0
0, 0
0, 0
0, 0
0, 0
0, 0
0, 0
0, 0
0, 0
0, 0
0, 1
0, 1
0, 0
0, 0
0, 0
0, 0
0, 0
0, 0
0, 0
0, 0
0, 0
0, 0
0, 0
0, 0
1, 0
0, 0
0, 0
0, 0
0, 1
0, 0
0, 0
0, 0
0, 0
0, 1
0, 0
0, 0
0, 0
0, 0
0, 0
0, 0
0, 0
0, 0
0, 1
0, 0
0, 0
0, 0
0, 0
0, 0
0, 1
0, 0
0, 0
0, 1
0, 0
0, 0
0, 1
0, 0
0, 0
0, 0
0, 0
0, 0
0, 0
0, 0
0, 0
0, 0
0, 0
0, 0
0, 0
0, 0
0, 0
0, 0
0, 0
0, 0
0, 0
0, 0
0, 0
0, 0
1, 0
0, 0
0, 0
0, 0
0, 0
0, 0
0, 0
0, 0
0, 0
0, 0
0, 1
0, 0
0, 0
0, 0
0, 0
0, 1
0, 0
0, 0
0, 0
0, 0
0, 0
0, 0
0, 0
0, 0
0, 0
0, 0
0, 0
0, 0
0, 0
0, 0
0, 0
0, 0
1, 0
0, 1
0, 0
0, 0
0, 0
0, 0
0, 0
0, 0
0, 0
0, 0
0, 0
0, 0
0, 0
0, 0
0, 0
0, 1
0, 0
0, 0
0, 0
0, 0
0, 0
0, 0
0, 0
0, 0
0, 0
0, 0
0, 0
0, 0
0, 0
0, 0
0, 0
0, 0
0, 0
0, 0
0, 0
0, 0
0, 0
0, 0
0, 1
0, 0
0, 0
0, 0
0, 0
0, 0
0, 0
1, 0
0, 0
0, 0
0, 0
0, 0
0, 0
0, 0
0, 0
0, 0
0, 0
0, 0
0, 0
0, 0
0, 0
0, 0
0, 0
0, 0
0, 0
0, 0
0, 0
0, 0
0, 0
0, 0
0, 0
0, 0
0, 0
0, 0
0, 0
0, 0
0, 0
0, 0
0, 0
0, 0
0, 0
0, 0
0, 0
0, 0
0, 0
0, 0
0, 0
0, 0
0, 0
0, 0
0, 0
0, 0
0, 0
0, 0
0, 0
0, 0
0, 0
0, 0
0, 0
0, 0
0, 0
0, 0
0, 0
0, 0
0, 0
0, 0
0, 0
0, 0
0, 0
0, 0
0, 0
0, 0
0, 0
1, 0
0, 0
0, 0
0, 0
0, 0
0, 0
0, 0
0, 0
0, 0
0, 0
0, 0
0, 0
0, 0
0, 0
0, 0
0, 0
0, 0
0, 0
0, 0
0, 0
0, 0
0, 0
0, 0
0, 0
0, 0
0, 0
0, 0
1, 0
0, 0
0, 0
0, 0
0, 0
0, 0
0, 0
0, 0
0, 0
0, 0
0, 0
0, 0
0, 0
0, 0
0, 0
0, 0
0, 0
0, 0
0, 0
0, 0
0, 0
0, 0
0, 0
0, 0
0, 0
0, 0
0, 0
0, 0
0, 0
0, 0
0, 0
0, 0
0, 0
0, 0
0, 0
0, 0
0, 0
0, 0
0, 0
0, 0
0, 0
0, 0
0, 0
0, 0
0, 0
0, 0
0, 0
0, 0
0, 0
0, 0
0, 0
0, 0
0, 0
0, 0
0, 0
0, 0
0, 0
0, 0
0, 0
0, 0
0, 0
0, 0
0, 0
0, 0
0, 0
0, 0
0, 0
0, 0
0, 0
0, 0
0, 0
0, 0
0, 0
0, 0
0, 0
0, 0
0, 0
0, 0
0, 0
0, 0
0, 0
0, 0
0, 0
0, 0
0, 0
0, 0
0, 0
0, 0
0, 0
0, 0
0, 0
0, 0
0, 0
0, 0
0, 0
0, 0
0, 0
0, 0
0, 0
0, 0
0, 0
0, 0
0, 0
0, 0
0, 0
0, 0
0, 0
0, 0
0, 0
0, 0
0, 0
0, 0
0, 0
0, 0
0, 0
0, 0
0, 0
0, 0
0, 0
0, 0
0, 0
0, 0
0, 0
0, 0
0, 0
0, 0
0, 0
0, 0
0, 0
0, 0
0, 0
0, 0
0, 0
0, 0
0, 0
0, 0
0, 0
0, 0
0, 0
0, 0
0, 0
0, 0
0, 0
0, 0
0, 0
0, 0
0, 0
0, 0
0, 0
0, 0
0, 0
0, 0
0, 0
0, 0
0, 0
0, 0
0, 0
0, 0
0, 0
0, 0
0, 0
0, 0
0, 0
0, 0
0, 0
0, 0
0, 0
0, 0
0, 0
0, 0
0, 0
0, 0
0, 0
0, 0
0, 0
0, 0
0, 0
0, 0
0, 0
0, 0
0, 0
0, 0
0, 0
0, 0
0, 0
0, 0
0, 0
0, 0
0, 0
0, 0
0, 0
0, 0
0, 0
0, 0
0, 0
0, 0
0, 0
0, 0
0, 0
0, 0
0, 0
0, 0
0, 0
0, 0
0, 0
0, 0
0, 0
0, 0
0, 0
0, 0
0, 0
0, 0
0, 0
0, 0
0, 0
0, 0
0, 0
0, 0
0, 0
0, 0
0, 0
0, 0
0, 0
0, 0
0, 0
0, 0
0, 0
0, 0
0, 0
0, 0
0, 0
0, 0
0, 0
0, 0
0, 0
0, 0
0, 0
0, 0
0, 0
0, 0
0, 0
0, 0
0, 0
0, 0
0, 0
0, 0
0, 0
0, 0
0, 0
0, 0
0, 0
0, 0
0, 0
0, 0
#ENDOFDATA     end of spectrum data