File: host_upload/06-09-2024/ps_0852/dump3/ps__0852shot_2277.msa
#FORMAT      : EMSA/MAS spectral data file
#VERSION     : TC202v2.0 PIXL
#TITLE       : N/A
#DATE        :       Date in the format DD-MMM-YYYY, for example 07-JUL-2010
#TIME        :             The time of day at which the spectrum was recorded, in 24-hour format
#OWNER       : PIXL Flight Model       (PIXL will use this to indicate which instrument took the data.)
#NPOINTS     : 4096     Number of data points in the spectrum (This can be zero for configuration only files)
#NCOLUMNS    : 2     Number of data columns in the spectrum (This can be zero for configuration only files)
#XUNITS      : eV
#YUNITS      : COUNTS
#DATATYPE    : YY
#XPERCHAN    : 7.862, 7.881   eV per channel (separate by commas if more than one detector)
#OFFSET      : 18.5, -22.4         eV of first channel  (separate by commas if more than one detector
#SIGNALTYPE  : XRF
#YP_TEMP     : 2.332
#LIVETIME    : 8.56875, 8.56211   seconds (separate by commas if more than one detector)
#REALTIME    : 10, 10.0   seconds (separate by commas if more than one detector)
#SPECTRUM    : start of spectrum data
0, 0
0, 0
0, 0
0, 0
0, 0
0, 0
0, 0
0, 0
0, 0
0, 0
0, 0
0, 0
0, 0
0, 0
0, 0
0, 0
0, 0
0, 0
0, 0
0, 0
0, 0
0, 0
0, 0
0, 0
0, 0
0, 0
0, 0
0, 0
0, 0
0, 0
0, 0
0, 0
0, 0
0, 1
0, 0
1, 0
0, 1
1, 0
0, 1
0, 1
0, 1
2, 3
1, 1
0, 0
1, 2
0, 0
3, 3
2, 0
9, 14
6, 13
15, 22
29, 45
44, 60
65, 62
68, 92
54, 72
53, 58
33, 45
21, 34
14, 16
2, 10
2, 5
4, 4
4, 3
2, 3
3, 10
3, 1
14, 11
18, 27
37, 53
74, 106
151, 185
205, 294
304, 385
330, 445
363, 455
322, 381
242, 310
178, 232
95, 134
65, 77
24, 44
19, 16
9, 16
7, 5
4, 2
0, 3
0, 0
0, 1
1, 1
0, 2
1, 7
7, 9
3, 17
12, 20
35, 41
52, 60
62, 94
62, 84
67, 91
69, 80
56, 46
33, 49
20, 32
10, 20
5, 11
11, 9
8, 16
14, 11
12, 20
14, 23
38, 34
29, 37
34, 47
38, 44
37, 55
31, 40
24, 35
37, 30
29, 21
24, 19
17, 21
19, 13
21, 21
22, 15
14, 10
10, 13
8, 11
9, 4
7, 5
1, 7
2, 1
1, 2
1, 4
0, 5
1, 2
0, 4
2, 3
4, 0
2, 5
0, 2
2, 5
1, 2
3, 3
1, 1
2, 3
1, 1
3, 5
2, 4
2, 2
5, 6
1, 6
2, 6
6, 12
11, 21
7, 23
15, 25
10, 29
17, 39
19, 33
10, 24
12, 29
10, 21
8, 28
4, 23
1, 22
2, 22
2, 13
4, 17
7, 10
6, 11
5, 8
8, 6
4, 3
7, 6
2, 8
2, 3
4, 6
5, 4
1, 6
1, 3
2, 7
3, 6
5, 5
8, 3
7, 4
15, 0
24, 2
25, 7
39, 4
40, 11
53, 9
56, 13
43, 6
25, 11
21, 9
25, 15
22, 14
22, 19
20, 17
17, 11
13, 9
10, 5
12, 3
17, 6
10, 5
8, 7
14, 8
13, 6
10, 5
6, 8
5, 5
7, 10
5, 8
4, 7
5, 10
7, 3
2, 10
3, 11
7, 6
6, 5
7, 9
7, 12
4, 16
3, 28
12, 26
7, 38
12, 51
9, 53
12, 60
6, 67
12, 63
6, 49
5, 39
12, 47
6, 43
7, 50
8, 68
2, 83
6, 89
6, 88
5, 98
10, 75
11, 64
10, 64
15, 59
24, 61
28, 62
32, 77
49, 77
37, 72
48, 79
57, 77
48, 62
36, 58
18, 44
23, 21
15, 21
15, 17
16, 15
14, 29
26, 27
41, 57
68, 107
137, 219
246, 375
371, 607
617, 967
861, 1403
1192, 1939
1609, 2388
1807, 2568
1939, 2655
1869, 2463
1709, 2135
1396, 1656
1093, 1198
739, 803
477, 478
291, 291
181, 166
85, 79
49, 42
24, 31
19, 21
6, 16
14, 11
14, 12
13, 17
10, 18
17, 33
22, 34
33, 54
48, 98
79, 134
110, 192
178, 257
195, 281
261, 345
287, 407
300, 421
280, 360
238, 295
226, 223
173, 165
126, 119
74, 81
46, 41
22, 22
18, 15
11, 11
5, 12
2, 12
4, 7
12, 15
7, 15
12, 23
12, 21
12, 15
17, 19
12, 13
9, 16
9, 12
8, 8
6, 16
2, 10
4, 10
6, 6
2, 10
3, 7
3, 4
5, 8
5, 8
3, 10
6, 5
3, 5
5, 7
2, 5
5, 6
9, 7
3, 5
4, 5
2, 2
4, 6
5, 5
3, 7
3, 3
6, 8
3, 3
2, 8
4, 8
2, 8
1, 4
2, 6
4, 8
2, 5
1, 6
0, 1
4, 7
3, 4
7, 3
0, 9
4, 5
5, 2
0, 4
1, 6
3, 3
0, 5
9, 4
3, 3
2, 2
2, 2
2, 0
2, 3
2, 4
4, 8
6, 6
4, 7
1, 3
6, 2
0, 4
7, 2
4, 4
3, 3
2, 1
2, 7
6, 7
1, 4
5, 7
7, 2
7, 6
7, 4
9, 4
12, 4
10, 2
6, 5
6, 5
8, 4
8, 9
7, 2
10, 5
9, 6
6, 13
4, 11
5, 7
6, 10
3, 6
5, 7
4, 12
5, 3
5, 4
2, 6
1, 4
4, 9
0, 6
3, 5
3, 4
3, 8
1, 5
3, 11
6, 6
1, 7
4, 10
2, 9
1, 7
0, 4
4, 5
1, 3
2, 6
2, 3
1, 1
0, 6
4, 1
4, 3
7, 1
2, 2
4, 5
3, 5
4, 4
4, 5
7, 0
7, 5
7, 1
3, 4
4, 1
2, 5
6, 10
5, 6
2, 3
6, 5
5, 9
1, 2
2, 3
1, 5
3, 7
2, 9
2, 9
1, 4
3, 7
0, 6
0, 10
4, 9
3, 2
5, 3
5, 3
7, 2
2, 6
4, 5
2, 2
2, 5
1, 1
3, 3
3, 3
1, 2
2, 0
0, 6
4, 5
2, 5
2, 2
2, 0
3, 4
2, 3
1, 3
3, 3
0, 1
3, 4
1, 5
2, 5
4, 0
0, 2
2, 2
0, 2
2, 4
1, 2
3, 3
4, 8
2, 5
4, 7
1, 5
6, 4
4, 5
2, 3
2, 1
1, 4
4, 3
2, 6
2, 3
5, 3
1, 1
3, 2
1, 1
4, 1
1, 2
4, 1
2, 4
4, 2
3, 2
2, 0
2, 0
5, 3
2, 2
2, 1
2, 4
2, 0
3, 2
1, 3
0, 3
1, 4
1, 5
1, 1
3, 3
2, 2
1, 0
3, 2
1, 5
1, 5
1, 3
3, 1
4, 4
5, 3
5, 3
5, 3
3, 1
3, 3
3, 7
2, 9
1, 3
2, 4
3, 1
2, 6
5, 2
2, 4
2, 3
0, 1
0, 2
0, 3
0, 3
0, 2
1, 1
2, 3
0, 1
0, 2
2, 1
1, 5
1, 0
3, 0
2, 0
2, 1
0, 5
2, 3
2, 3
1, 0
3, 2
1, 0
3, 0
2, 4
1, 3
1, 3
2, 0
1, 1
0, 2
3, 2
1, 3
0, 1
0, 2
2, 3
1, 4
2, 2
1, 3
3, 1
2, 0
0, 0
3, 1
1, 1
0, 1
0, 3
0, 0
0, 1
0, 3
0, 0
0, 0
0, 1
0, 2
2, 4
1, 1
1, 5
1, 1
2, 1
0, 1
1, 1
1, 0
1, 0
1, 2
2, 1
3, 2
1, 1
0, 1
3, 0
1, 3
1, 1
0, 4
1, 0
0, 1
1, 1
0, 2
1, 1
1, 1
2, 2
0, 1
2, 2
1, 1
1, 1
1, 2
0, 0
2, 0
0, 0
0, 1
0, 3
2, 1
0, 1
1, 0
0, 1
3, 2
1, 0
1, 4
0, 0
0, 1
0, 1
0, 1
0, 0
0, 0
0, 1
1, 1
2, 0
1, 0
0, 0
3, 2
0, 0
0, 0
0, 0
3, 0
0, 1
0, 3
1, 2
0, 0
0, 0
0, 2
0, 0
1, 1
0, 0
0, 0
0, 2
0, 0
1, 0
0, 1
0, 1
0, 0
0, 1
1, 0
0, 0
0, 3
0, 0
0, 2
1, 1
0, 0
0, 0
0, 2
0, 0
1, 0
0, 0
0, 1
0, 0
1, 0
1, 0
2, 2
0, 0
0, 2
1, 0
1, 0
0, 0
1, 0
0, 0
1, 0
0, 1
0, 0
0, 1
2, 1
0, 0
0, 0
2, 1
0, 1
1, 0
0, 1
1, 0
0, 1
0, 1
1, 0
3, 0
1, 0
0, 0
0, 0
1, 1
1, 0
0, 1
1, 0
0, 0
0, 0
0, 0
0, 1
0, 0
0, 0
0, 1
0, 1
0, 0
0, 0
1, 0
1, 1
1, 2
0, 0
0, 0
1, 0
0, 0
0, 0
0, 0
2, 0
0, 1
0, 0
0, 0
0, 0
0, 1
0, 0
1, 0
0, 0
0, 0
0, 0
0, 0
2, 0
0, 0
1, 0
0, 0
1, 0
0, 0
0, 0
0, 0
0, 0
1, 0
0, 0
0, 0
0, 1
0, 0
0, 1
0, 0
0, 3
0, 0
0, 0
0, 1
0, 1
0, 0
1, 0
0, 1
0, 0
1, 0
0, 0
0, 0
1, 0
0, 0
0, 0
0, 0
0, 0
0, 0
2, 0
0, 0
0, 0
0, 0
1, 1
0, 0
1, 0
0, 0
1, 0
0, 0
0, 0
0, 0
0, 1
0, 0
0, 0
0, 0
0, 0
0, 0
0, 0
0, 0
0, 0
0, 0
0, 0
1, 0
0, 0
0, 0
0, 0
0, 0
0, 0
0, 0
0, 0
0, 0
0, 0
0, 0
0, 0
0, 0
0, 1
0, 0
0, 0
0, 0
0, 0
0, 0
0, 0
0, 1
0, 0
0, 0
0, 0
0, 0
0, 0
0, 0
0, 1
0, 1
0, 0
0, 0
0, 0
0, 2
0, 1
0, 0
0, 0
1, 0
0, 0
0, 1
1, 1
0, 0
0, 0
0, 0
0, 0
0, 1
0, 0
0, 0
0, 0
2, 0
0, 1
0, 1
0, 0
0, 0
0, 0
0, 0
0, 0
0, 0
0, 0
0, 0
0, 0
0, 0
0, 0
0, 0
0, 0
0, 0
0, 0
1, 0
0, 0
0, 0
0, 0
0, 0
0, 0
0, 0
0, 0
0, 0
0, 0
0, 0
0, 1
0, 0
0, 0
0, 0
0, 0
0, 0
0, 0
0, 0
0, 0
0, 0
0, 0
0, 0
0, 0
0, 0
0, 0
0, 0
1, 0
0, 0
0, 0
0, 1
0, 0
0, 0
0, 0
0, 0
0, 0
0, 0
0, 0
0, 0
0, 0
0, 0
0, 0
0, 0
0, 0
0, 0
0, 0
0, 0
0, 0
0, 0
0, 0
0, 0
0, 0
0, 0
0, 0
0, 0
0, 0
0, 0
0, 0
0, 0
0, 0
0, 0
0, 0
0, 1
0, 0
0, 0
0, 0
0, 0
0, 0
0, 0
0, 0
0, 0
0, 0
0, 0
0, 0
1, 0
0, 0
0, 0
0, 0
0, 0
0, 0
0, 0
0, 0
0, 0
0, 0
1, 0
0, 0
0, 0
0, 0
0, 0
0, 0
0, 0
0, 0
0, 0
0, 0
0, 0
0, 0
0, 0
0, 0
0, 0
0, 0
0, 0
0, 0
0, 0
0, 0
0, 0
0, 0
0, 0
0, 0
0, 0
0, 0
0, 0
0, 0
0, 0
0, 0
0, 0
0, 0
0, 0
0, 0
0, 0
0, 0
0, 0
0, 0
0, 0
0, 0
0, 0
0, 0
0, 0
0, 0
0, 0
0, 0
0, 0
0, 0
0, 0
0, 0
0, 0
1, 0
0, 0
0, 0
0, 0
0, 0
0, 0
0, 0
0, 0
0, 0
0, 0
0, 0
0, 0
0, 0
0, 0
0, 0
0, 0
0, 0
0, 0
0, 0
0, 0
0, 0
0, 0
0, 0
0, 0
0, 0
0, 0
0, 0
0, 0
0, 0
0, 0
0, 0
0, 0
0, 0
0, 0
0, 0
0, 0
0, 0
0, 0
0, 0
0, 0
0, 0
0, 0
0, 0
0, 0
0, 0
0, 0
0, 0
0, 0
0, 0
0, 0
0, 0
0, 0
0, 0
0, 0
0, 0
0, 0
0, 0
0, 0
0, 0
0, 0
0, 0
0, 0
0, 0
0, 0
0, 0
0, 0
0, 0
0, 0
0, 0
0, 0
0, 0
0, 0
0, 0
0, 0
0, 0
0, 0
0, 0
0, 0
0, 0
0, 0
0, 0
0, 0
0, 0
0, 0
0, 0
0, 0
0, 0
0, 0
0, 0
0, 0
0, 0
0, 0
0, 0
0, 0
0, 0
0, 0
0, 0
0, 0
0, 0
0, 0
0, 0
0, 0
0, 0
0, 0
0, 0
0, 0
0, 0
0, 0
0, 0
0, 0
0, 0
0, 0
0, 0
0, 0
0, 0
0, 0
0, 0
0, 0
0, 0
0, 0
0, 0
0, 0
0, 0
0, 0
0, 0
0, 0
0, 0
0, 0
0, 0
0, 0
0, 0
0, 0
0, 0
0, 0
0, 0
0, 0
0, 0
0, 0
0, 0
0, 0
0, 0
0, 0
0, 0
0, 0
0, 0
0, 0
0, 0
0, 0
0, 0
0, 0
0, 0
0, 0
0, 0
0, 0
0, 0
0, 0
0, 0
0, 0
0, 0
0, 0
0, 0
0, 0
0, 0
0, 0
0, 0
0, 0
0, 0
0, 0
0, 0
0, 0
0, 0
0, 0
0, 0
0, 0
0, 0
0, 0
0, 0
0, 0
0, 0
0, 0
0, 0
0, 0
0, 0
0, 0
0, 0
0, 0
0, 0
0, 0
0, 0
0, 0
0, 0
0, 0
0, 0
0, 0
0, 0
0, 0
0, 0
0, 0
0, 0
0, 0
0, 0
0, 0
0, 0
0, 0
0, 0
0, 0
0, 0
0, 0
0, 0
0, 0
0, 0
0, 0
0, 0
0, 0
0, 0
0, 0
0, 0
0, 0
0, 0
0, 0
0, 0
0, 0
0, 0
0, 0
0, 0
0, 0
0, 0
0, 0
0, 0
0, 0
0, 0
0, 0
0, 0
0, 0
0, 0
0, 0
0, 0
0, 0
0, 0
0, 0
0, 0
0, 0
0, 0
0, 0
0, 0
0, 0
0, 0
0, 0
0, 0
0, 0
0, 0
0, 0
0, 0
0, 0
0, 0
0, 0
0, 0
0, 0
0, 0
0, 0
0, 0
0, 0
0, 0
0, 0
0, 0
0, 0
0, 0
0, 0
0, 0
0, 0
0, 0
0, 0
0, 0
0, 0
0, 0
0, 0
0, 0
0, 0
0, 0
0, 0
0, 0
0, 0
0, 0
0, 0
0, 0
0, 0
0, 0
0, 0
0, 0
0, 0
0, 0
0, 0
0, 0
0, 0
0, 0
0, 0
0, 0
0, 0
0, 0
0, 0
0, 0
0, 0
0, 0
0, 0
0, 0
0, 0
0, 0
0, 0
0, 0
0, 0
0, 0
0, 0
0, 0
0, 0
0, 0
0, 0
0, 0
0, 0
0, 0
0, 0
0, 0
0, 0
0, 0
0, 0
0, 0
0, 0
0, 0
0, 0
0, 0
0, 0
0, 0
0, 0
0, 0
0, 0
0, 0
0, 0
0, 0
0, 0
0, 0
0, 0
0, 0
0, 0
0, 0
0, 0
0, 0
0, 0
0, 0
0, 0
0, 0
0, 0
0, 0
0, 0
#ENDOFDATA     end of spectrum data