File: host_upload/06-09-2024/ps_0852/dump3/ps__0852shot_2132.msa
#FORMAT      : EMSA/MAS spectral data file
#VERSION     : TC202v2.0 PIXL
#TITLE       : N/A
#DATE        :       Date in the format DD-MMM-YYYY, for example 07-JUL-2010
#TIME        :             The time of day at which the spectrum was recorded, in 24-hour format
#OWNER       : PIXL Flight Model       (PIXL will use this to indicate which instrument took the data.)
#NPOINTS     : 4096     Number of data points in the spectrum (This can be zero for configuration only files)
#NCOLUMNS    : 2     Number of data columns in the spectrum (This can be zero for configuration only files)
#XUNITS      : eV
#YUNITS      : COUNTS
#DATATYPE    : YY
#XPERCHAN    : 7.862, 7.881   eV per channel (separate by commas if more than one detector)
#OFFSET      : 18.5, -22.4         eV of first channel  (separate by commas if more than one detector
#SIGNALTYPE  : XRF
#YP_TEMP     : 2.3
#LIVETIME    : 8.5695, 8.58503   seconds (separate by commas if more than one detector)
#REALTIME    : 10, 10.0   seconds (separate by commas if more than one detector)
#SPECTRUM    : start of spectrum data
0, 0
0, 0
0, 0
0, 0
0, 0
0, 0
0, 0
0, 0
0, 0
0, 0
0, 0
0, 0
0, 0
0, 0
0, 0
0, 0
0, 0
0, 0
0, 0
0, 0
0, 0
0, 0
0, 0
0, 0
0, 0
0, 0
0, 0
0, 0
0, 0
0, 0
0, 0
0, 0
1, 0
2, 1
0, 0
0, 1
1, 2
2, 1
0, 0
10, 2
5, 2
5, 1
9, 2
4, 3
6, 2
5, 3
1, 1
4, 2
5, 8
15, 8
16, 27
36, 39
64, 59
62, 61
69, 70
67, 71
55, 43
42, 44
30, 27
19, 15
5, 6
11, 6
5, 2
0, 6
13, 4
5, 5
11, 8
12, 9
22, 22
59, 59
92, 96
169, 166
259, 264
326, 333
424, 411
429, 407
359, 367
323, 268
214, 210
123, 117
80, 73
40, 36
18, 19
8, 8
5, 7
2, 4
4, 4
1, 6
4, 4
0, 2
7, 4
6, 1
2, 1
4, 5
5, 8
12, 12
19, 11
20, 20
17, 26
21, 13
28, 21
12, 13
10, 12
14, 6
7, 5
10, 9
9, 4
19, 7
37, 16
80, 24
135, 43
237, 54
343, 53
446, 86
575, 91
567, 85
508, 85
498, 87
366, 70
225, 41
160, 56
107, 43
46, 46
38, 34
21, 21
15, 22
16, 11
12, 15
7, 8
11, 8
7, 9
3, 2
6, 1
3, 3
7, 2
2, 2
3, 2
4, 1
1, 2
1, 1
3, 3
3, 2
7, 3
5, 1
6, 3
12, 3
10, 0
10, 1
19, 1
13, 6
18, 3
18, 4
16, 10
13, 6
17, 6
18, 18
20, 27
19, 19
18, 20
22, 19
19, 15
6, 8
4, 9
5, 3
5, 4
4, 7
4, 20
4, 24
11, 39
10, 34
15, 63
6, 57
14, 63
4, 45
9, 36
8, 30
7, 25
0, 20
4, 15
2, 9
6, 4
4, 15
5, 10
1, 7
8, 4
2, 7
5, 6
4, 8
4, 4
6, 8
8, 13
8, 11
9, 8
13, 11
10, 20
10, 13
9, 10
9, 17
16, 11
13, 18
18, 12
13, 13
23, 6
9, 4
21, 6
19, 9
17, 4
17, 6
21, 6
13, 4
6, 7
11, 6
8, 11
3, 7
4, 11
2, 4
6, 10
9, 8
4, 8
7, 9
4, 8
6, 14
8, 8
8, 24
6, 23
10, 20
12, 26
6, 22
10, 8
16, 18
12, 20
14, 11
15, 12
10, 9
11, 8
8, 11
8, 13
7, 7
8, 6
4, 6
5, 7
8, 10
12, 8
13, 18
12, 24
10, 16
27, 31
28, 38
44, 46
53, 68
74, 74
60, 71
47, 70
65, 55
43, 65
31, 59
31, 58
20, 60
14, 80
21, 55
23, 69
25, 79
49, 81
72, 123
147, 222
297, 414
457, 614
756, 1027
1117, 1308
1608, 1760
2009, 2194
2298, 2375
2389, 2425
2352, 2193
2019, 1918
1714, 1590
1277, 1109
934, 747
595, 445
353, 279
173, 171
110, 70
66, 67
41, 59
25, 39
25, 38
22, 40
28, 41
28, 50
40, 47
57, 49
82, 61
95, 80
152, 84
178, 124
201, 201
296, 210
331, 294
370, 333
424, 340
384, 372
359, 329
304, 275
264, 191
183, 159
154, 108
81, 63
44, 37
25, 24
19, 11
14, 9
6, 3
7, 3
7, 9
4, 11
15, 7
12, 14
11, 13
10, 11
10, 12
11, 7
13, 9
11, 7
7, 6
6, 6
3, 3
5, 6
4, 4
2, 3
4, 4
1, 8
2, 4
7, 3
4, 4
6, 3
6, 8
8, 8
10, 8
6, 7
10, 2
6, 6
3, 8
6, 7
5, 6
8, 8
6, 2
3, 12
6, 12
10, 11
5, 6
4, 6
2, 4
7, 9
7, 4
6, 6
3, 7
4, 4
5, 11
3, 5
2, 5
3, 3
2, 10
4, 3
4, 4
2, 2
3, 3
3, 5
4, 4
7, 4
6, 2
7, 3
4, 6
4, 6
5, 6
6, 7
5, 2
5, 3
6, 5
8, 4
4, 1
4, 6
7, 1
5, 2
4, 6
8, 0
7, 2
4, 2
6, 5
1, 5
7, 2
6, 5
6, 5
2, 4
1, 3
3, 3
5, 6
12, 6
3, 3
2, 3
5, 2
7, 6
6, 2
4, 4
4, 2
4, 5
4, 7
2, 2
4, 2
6, 2
8, 4
6, 2
6, 6
2, 2
4, 5
4, 5
4, 7
2, 5
2, 5
4, 8
3, 10
1, 8
6, 6
2, 3
1, 4
1, 2
3, 4
1, 5
4, 1
3, 7
2, 2
3, 1
3, 2
4, 0
5, 5
2, 0
2, 3
3, 5
2, 2
4, 4
4, 6
3, 1
5, 2
4, 3
7, 3
2, 3
2, 2
4, 1
3, 2
2, 3
4, 5
2, 2
4, 1
5, 10
2, 2
3, 3
1, 4
6, 5
2, 1
2, 5
3, 0
4, 6
1, 0
3, 3
3, 2
4, 3
5, 3
1, 3
8, 5
3, 1
2, 0
2, 1
2, 1
3, 2
1, 2
1, 2
2, 1
1, 0
1, 0
1, 2
5, 2
2, 2
1, 2
1, 1
1, 4
3, 1
5, 1
1, 2
4, 4
2, 2
3, 2
2, 0
1, 2
2, 3
4, 3
1, 1
4, 5
1, 3
2, 3
4, 1
1, 6
1, 1
2, 3
1, 5
1, 5
2, 1
2, 4
1, 3
0, 5
2, 2
3, 6
2, 4
4, 5
1, 4
1, 2
4, 3
0, 6
0, 7
2, 4
1, 1
1, 6
0, 6
2, 4
2, 3
3, 2
5, 2
3, 3
4, 1
2, 3
1, 2
2, 1
2, 2
1, 1
0, 3
2, 1
2, 2
1, 1
2, 2
2, 2
4, 2
2, 2
3, 3
3, 5
8, 2
6, 0
2, 3
5, 3
3, 3
3, 3
0, 3
3, 2
0, 2
1, 5
2, 0
3, 0
2, 0
2, 0
4, 3
4, 2
4, 3
2, 2
1, 1
0, 1
2, 1
2, 1
1, 3
2, 1
0, 1
1, 2
2, 4
5, 4
2, 1
2, 4
1, 0
2, 5
0, 1
1, 1
0, 2
0, 2
2, 0
0, 3
0, 1
4, 0
0, 2
2, 2
2, 0
2, 1
0, 0
1, 2
0, 1
2, 2
0, 0
0, 1
1, 0
1, 1
1, 2
2, 1
0, 1
1, 0
2, 3
3, 7
2, 0
3, 0
0, 0
0, 3
2, 1
1, 1
0, 1
1, 2
1, 1
0, 2
0, 3
0, 1
0, 0
2, 0
2, 0
0, 0
0, 2
2, 0
1, 1
3, 0
1, 2
2, 0
0, 0
0, 4
1, 0
1, 0
0, 1
0, 0
0, 1
0, 0
1, 1
3, 0
1, 0
0, 1
1, 1
1, 0
1, 3
0, 0
0, 0
0, 1
3, 0
0, 3
2, 0
0, 1
1, 1
0, 0
0, 2
0, 2
1, 2
0, 2
0, 2
1, 1
0, 2
0, 1
1, 2
0, 0
1, 0
1, 0
0, 0
1, 1
0, 1
1, 1
0, 0
1, 0
0, 0
0, 0
1, 0
0, 0
2, 0
2, 3
0, 1
1, 1
0, 0
1, 3
0, 1
0, 1
0, 0
2, 2
1, 0
0, 0
3, 4
0, 0
0, 0
1, 0
0, 1
0, 1
0, 1
0, 1
0, 3
0, 1
0, 0
0, 0
1, 0
0, 0
0, 0
0, 0
0, 0
0, 1
0, 0
1, 0
0, 0
1, 0
0, 0
0, 0
1, 0
0, 0
0, 1
1, 0
0, 1
0, 0
0, 0
1, 0
1, 0
0, 1
0, 0
0, 0
0, 3
0, 0
0, 0
0, 0
0, 1
1, 0
0, 1
0, 2
0, 0
0, 0
0, 0
0, 1
0, 0
0, 0
1, 0
0, 0
0, 0
0, 0
0, 0
2, 0
1, 0
1, 0
0, 0
0, 1
0, 0
0, 0
0, 0
0, 0
1, 0
0, 0
0, 0
0, 0
0, 0
0, 0
1, 1
0, 2
0, 0
0, 1
0, 1
1, 1
1, 0
0, 0
0, 0
0, 0
1, 0
0, 0
0, 1
0, 1
0, 0
0, 0
0, 0
1, 0
0, 0
0, 0
1, 0
0, 0
0, 1
1, 0
1, 0
2, 0
0, 0
1, 1
0, 0
1, 0
0, 0
2, 0
0, 0
0, 0
0, 0
0, 1
0, 0
0, 0
0, 1
0, 2
0, 1
0, 0
1, 1
1, 0
0, 0
1, 2
0, 0
0, 0
0, 0
0, 0
0, 0
0, 0
1, 1
0, 0
0, 0
0, 0
1, 0
0, 0
0, 0
1, 0
0, 0
0, 0
0, 0
0, 0
0, 0
0, 0
0, 1
0, 0
0, 0
1, 0
0, 1
0, 0
0, 0
0, 0
0, 0
0, 0
0, 1
0, 0
0, 0
0, 0
0, 0
0, 0
0, 1
0, 0
0, 0
0, 0
0, 1
0, 0
1, 0
0, 0
0, 0
1, 0
1, 0
0, 0
1, 0
0, 1
0, 1
0, 0
0, 0
0, 0
0, 0
0, 0
1, 0
0, 1
0, 0
0, 0
0, 0
0, 1
0, 0
0, 0
2, 0
0, 0
0, 0
0, 0
0, 0
1, 1
0, 0
0, 0
0, 1
0, 0
0, 0
0, 0
0, 0
0, 0
1, 0
0, 0
0, 0
0, 0
0, 0
0, 0
0, 1
0, 0
0, 0
0, 0
0, 0
0, 0
1, 0
0, 1
0, 0
0, 0
0, 0
1, 0
0, 1
0, 0
0, 0
1, 0
0, 0
0, 0
0, 0
0, 0
0, 0
0, 0
0, 0
0, 0
0, 0
0, 1
0, 0
0, 0
0, 0
0, 0
0, 0
0, 0
0, 0
0, 0
1, 0
0, 0
0, 0
0, 0
0, 0
0, 0
0, 0
0, 0
0, 0
0, 0
0, 0
1, 0
0, 0
0, 0
0, 0
0, 0
0, 0
0, 0
0, 0
0, 0
0, 0
0, 0
0, 0
0, 0
0, 0
0, 0
0, 0
0, 0
0, 0
0, 0
0, 0
0, 0
0, 0
0, 0
0, 0
0, 0
0, 0
0, 0
0, 0
0, 0
0, 1
0, 0
0, 0
0, 0
0, 0
0, 0
0, 0
0, 0
0, 0
0, 0
0, 0
0, 0
0, 0
0, 0
0, 0
0, 0
0, 0
0, 0
0, 0
0, 0
0, 0
0, 0
0, 0
0, 0
0, 0
0, 0
0, 0
0, 0
0, 0
0, 0
0, 0
0, 0
0, 0
0, 0
0, 0
0, 0
0, 0
0, 0
0, 0
0, 0
0, 0
0, 0
0, 0
0, 0
0, 0
0, 0
0, 0
0, 0
0, 0
0, 0
0, 0
0, 0
0, 0
0, 0
0, 0
0, 0
0, 0
0, 0
0, 0
0, 0
0, 0
0, 0
0, 0
0, 0
0, 0
0, 0
0, 0
0, 0
0, 0
0, 0
0, 0
0, 0
0, 0
0, 0
0, 0
0, 0
0, 0
0, 0
0, 0
0, 0
0, 0
0, 0
0, 0
0, 0
0, 0
0, 0
0, 0
0, 0
0, 0
0, 0
0, 0
0, 0
0, 0
1, 0
0, 0
0, 0
0, 0
0, 0
0, 0
0, 0
0, 0
0, 0
0, 0
0, 0
0, 0
0, 0
0, 0
0, 0
0, 0
0, 0
0, 0
0, 0
0, 0
0, 0
0, 0
0, 0
0, 0
0, 0
0, 0
1, 0
0, 0
0, 0
0, 0
0, 0
0, 0
0, 0
0, 0
0, 0
0, 0
0, 0
0, 0
0, 0
0, 0
0, 0
0, 0
0, 0
0, 0
0, 0
0, 0
0, 0
0, 0
0, 0
0, 0
0, 0
0, 0
0, 0
0, 0
0, 0
0, 0
0, 0
0, 0
0, 0
0, 0
0, 0
0, 0
0, 0
0, 0
0, 0
0, 0
0, 0
0, 0
0, 0
0, 0
0, 0
0, 0
0, 0
0, 0
0, 0
0, 0
0, 0
0, 0
0, 0
0, 0
0, 0
0, 0
0, 0
0, 0
0, 0
0, 0
0, 0
0, 0
0, 0
0, 0
0, 0
0, 0
0, 0
0, 0
0, 0
0, 0
0, 0
0, 0
0, 0
0, 0
0, 0
0, 0
0, 0
0, 0
0, 0
0, 0
0, 0
0, 0
0, 0
0, 0
0, 0
0, 0
0, 0
0, 0
0, 0
0, 0
0, 0
0, 0
0, 0
0, 0
0, 0
0, 0
0, 0
0, 0
0, 0
0, 0
0, 0
0, 0
0, 0
0, 0
0, 0
0, 0
0, 0
0, 0
0, 0
0, 0
0, 0
0, 0
0, 0
0, 0
0, 0
0, 0
0, 0
0, 0
0, 0
0, 0
0, 0
0, 0
0, 0
0, 0
0, 0
0, 0
0, 0
0, 0
0, 0
0, 0
0, 0
0, 0
0, 0
0, 0
0, 0
0, 0
0, 0
0, 0
0, 0
0, 0
0, 0
0, 0
0, 0
0, 0
0, 0
0, 0
0, 0
0, 0
0, 0
0, 0
0, 0
0, 0
0, 0
0, 0
0, 0
0, 0
0, 0
0, 0
0, 0
0, 0
0, 0
0, 0
0, 0
0, 0
0, 0
0, 0
0, 0
0, 0
0, 0
0, 0
0, 0
0, 0
0, 0
0, 0
0, 0
0, 0
0, 0
0, 0
0, 0
0, 0
0, 0
0, 0
0, 0
0, 0
0, 0
0, 0
0, 0
0, 0
0, 0
0, 0
0, 0
0, 0
0, 0
0, 0
0, 0
0, 0
0, 0
0, 0
0, 0
0, 0
0, 0
0, 0
0, 0
0, 0
0, 0
0, 0
0, 0
0, 0
0, 0
0, 0
0, 0
0, 0
0, 0
0, 0
0, 0
0, 0
0, 0
0, 0
0, 0
0, 0
0, 0
0, 0
0, 0
0, 0
0, 0
0, 0
0, 0
0, 0
0, 0
0, 0
0, 0
0, 0
0, 0
0, 0
0, 0
0, 0
0, 0
0, 0
0, 0
0, 0
0, 0
0, 0
0, 0
0, 0
0, 0
0, 0
0, 0
0, 0
0, 0
0, 0
0, 0
0, 0
0, 0
0, 0
0, 0
0, 0
0, 0
0, 0
0, 0
0, 0
0, 0
0, 0
0, 0
0, 0
0, 0
0, 0
0, 0
0, 0
0, 0
0, 0
0, 0
0, 0
0, 0
0, 0
0, 0
0, 0
0, 0
0, 0
0, 0
0, 0
0, 0
0, 0
0, 0
0, 0
0, 0
0, 0
0, 0
0, 0
0, 0
0, 0
0, 0
0, 0
0, 0
#ENDOFDATA     end of spectrum data