File: host_upload/06-09-2024/ps_0852/dump3/ps__0852shot_2331.msa
#FORMAT      : EMSA/MAS spectral data file
#VERSION     : TC202v2.0 PIXL
#TITLE       : N/A
#DATE        :       Date in the format DD-MMM-YYYY, for example 07-JUL-2010
#TIME        :             The time of day at which the spectrum was recorded, in 24-hour format
#OWNER       : PIXL Flight Model       (PIXL will use this to indicate which instrument took the data.)
#NPOINTS     : 4096     Number of data points in the spectrum (This can be zero for configuration only files)
#NCOLUMNS    : 2     Number of data columns in the spectrum (This can be zero for configuration only files)
#XUNITS      : eV
#YUNITS      : COUNTS
#DATATYPE    : YY
#XPERCHAN    : 7.862, 7.881   eV per channel (separate by commas if more than one detector)
#OFFSET      : 18.5, -22.4         eV of first channel  (separate by commas if more than one detector
#SIGNALTYPE  : XRF
#YP_TEMP     : 2.428
#LIVETIME    : 8.54389, 8.35262   seconds (separate by commas if more than one detector)
#REALTIME    : 10, 10.0   seconds (separate by commas if more than one detector)
#SPECTRUM    : start of spectrum data
0, 0
0, 0
0, 0
0, 0
0, 0
0, 0
0, 0
0, 0
0, 0
0, 0
0, 0
0, 0
0, 0
0, 0
0, 0
0, 0
0, 0
0, 0
0, 0
0, 0
0, 0
0, 0
0, 0
0, 0
0, 0
0, 0
0, 0
0, 0
0, 0
0, 1
0, 0
0, 0
0, 0
0, 0
0, 0
1, 0
0, 2
1, 1
1, 0
0, 2
1, 1
1, 2
2, 2
3, 1
2, 3
3, 4
2, 2
1, 1
3, 4
10, 15
22, 24
29, 39
54, 46
68, 49
77, 61
60, 60
54, 44
43, 38
26, 25
20, 16
4, 6
9, 3
2, 2
7, 5
4, 6
2, 4
2, 5
13, 1
12, 29
37, 53
82, 95
204, 140
282, 269
370, 353
428, 403
394, 404
388, 324
311, 232
236, 162
118, 112
74, 51
46, 42
29, 25
8, 9
8, 6
5, 5
1, 2
5, 4
4, 4
2, 4
3, 1
8, 2
10, 12
18, 25
27, 40
58, 62
83, 83
99, 101
98, 101
114, 110
94, 98
85, 85
49, 60
43, 36
26, 19
22, 27
20, 10
19, 12
16, 21
23, 20
28, 28
29, 35
55, 43
50, 45
56, 52
62, 55
63, 42
60, 37
52, 36
49, 28
39, 28
29, 22
33, 24
37, 19
22, 23
30, 22
16, 17
16, 6
12, 14
7, 10
5, 5
3, 3
9, 0
4, 4
1, 5
3, 2
4, 1
1, 3
2, 1
2, 2
2, 3
4, 3
5, 4
3, 4
2, 3
3, 3
4, 4
3, 5
3, 4
5, 9
5, 5
12, 11
22, 24
36, 41
64, 49
65, 75
92, 83
102, 108
108, 85
77, 74
62, 45
46, 51
32, 25
13, 20
10, 10
8, 4
8, 12
11, 9
16, 11
18, 12
18, 15
17, 27
12, 10
15, 12
7, 12
11, 13
8, 9
3, 4
6, 15
11, 9
5, 8
5, 15
4, 4
3, 4
11, 4
6, 4
5, 5
8, 4
13, 7
10, 10
8, 8
12, 12
15, 10
18, 14
16, 19
11, 20
10, 24
15, 21
15, 27
16, 11
12, 22
11, 20
13, 13
6, 8
5, 12
6, 5
7, 8
13, 6
9, 3
10, 5
7, 5
8, 8
6, 5
8, 7
12, 6
15, 3
4, 5
17, 5
20, 9
17, 6
14, 7
10, 4
8, 9
12, 6
16, 8
24, 12
35, 19
40, 19
63, 20
62, 19
72, 19
82, 21
69, 16
59, 11
43, 14
46, 12
28, 10
25, 3
22, 6
25, 9
14, 5
13, 7
18, 7
18, 12
14, 18
23, 20
17, 31
34, 46
42, 57
63, 60
63, 50
64, 55
63, 60
51, 57
47, 51
34, 38
23, 32
18, 24
14, 23
19, 32
20, 23
20, 18
43, 68
85, 90
150, 215
284, 334
462, 571
737, 859
1075, 1287
1508, 1630
1861, 1968
2141, 2216
2362, 2277
2288, 2056
2078, 1749
1759, 1439
1232, 1029
882, 631
561, 446
360, 220
218, 118
119, 66
57, 49
41, 26
38, 15
32, 29
34, 28
27, 12
41, 18
26, 23
33, 30
49, 49
50, 51
75, 74
87, 105
145, 164
190, 229
259, 248
281, 318
323, 369
339, 368
316, 329
288, 295
258, 212
184, 146
114, 114
101, 63
58, 42
35, 31
25, 15
17, 7
10, 8
11, 6
11, 7
14, 14
13, 12
21, 14
5, 16
12, 15
12, 19
15, 10
22, 4
7, 8
10, 11
4, 6
2, 4
2, 3
7, 3
8, 2
4, 6
6, 4
2, 7
0, 5
2, 3
7, 7
5, 4
3, 5
5, 3
2, 0
2, 5
2, 4
6, 4
4, 2
3, 4
4, 7
3, 2
1, 8
2, 6
4, 6
6, 5
7, 7
5, 7
9, 11
8, 14
9, 9
8, 7
4, 6
5, 6
8, 7
5, 4
5, 6
5, 3
5, 5
7, 5
9, 9
9, 6
4, 0
6, 5
4, 6
4, 2
5, 6
5, 4
4, 5
3, 3
3, 2
4, 6
7, 6
1, 3
5, 1
2, 3
2, 3
2, 4
3, 7
3, 7
4, 8
3, 4
3, 7
2, 2
3, 5
3, 6
2, 6
3, 6
4, 8
3, 19
0, 13
4, 27
4, 10
1, 10
4, 17
3, 7
3, 9
2, 5
1, 7
2, 3
4, 5
3, 1
2, 7
2, 4
8, 4
1, 1
1, 1
8, 3
3, 3
7, 2
3, 1
5, 4
3, 1
8, 2
10, 4
5, 4
7, 4
1, 5
5, 2
15, 0
7, 3
0, 5
3, 5
6, 2
3, 2
2, 3
2, 2
4, 3
5, 3
2, 7
9, 1
1, 3
1, 2
7, 1
2, 2
3, 5
5, 3
2, 4
3, 2
6, 0
1, 1
4, 2
2, 1
2, 3
1, 3
3, 3
3, 5
2, 0
4, 2
4, 1
2, 3
4, 2
3, 1
1, 4
3, 2
5, 2
5, 4
2, 1
3, 3
4, 2
5, 2
6, 2
2, 0
0, 2
3, 2
6, 1
2, 2
4, 1
5, 3
1, 2
4, 0
2, 3
2, 3
2, 3
4, 3
2, 3
5, 2
2, 3
3, 2
1, 4
0, 0
2, 1
0, 3
2, 6
3, 0
0, 1
2, 4
3, 0
2, 1
1, 4
2, 0
3, 2
3, 4
2, 4
6, 0
0, 4
2, 5
5, 1
4, 4
0, 5
1, 3
1, 1
2, 1
2, 3
1, 5
4, 4
1, 1
2, 0
2, 1
3, 2
3, 4
2, 4
2, 0
4, 2
5, 4
5, 5
3, 1
5, 1
2, 1
3, 0
2, 1
0, 6
3, 0
2, 2
4, 3
2, 2
3, 2
3, 2
1, 1
1, 2
1, 3
1, 1
2, 3
4, 2
0, 2
2, 6
1, 6
3, 6
3, 5
3, 7
1, 2
8, 3
1, 2
2, 2
3, 2
3, 3
3, 3
1, 0
2, 1
2, 1
0, 3
2, 2
0, 1
0, 2
4, 1
0, 2
2, 2
1, 4
2, 1
0, 1
1, 0
2, 3
2, 1
2, 2
5, 0
0, 1
3, 0
2, 2
4, 1
2, 0
2, 1
3, 0
2, 1
1, 0
1, 2
0, 0
0, 0
3, 0
0, 2
1, 0
2, 0
0, 0
1, 0
0, 1
2, 2
1, 1
0, 1
0, 0
1, 2
2, 5
1, 0
1, 1
2, 1
0, 1
1, 2
2, 1
0, 1
1, 1
1, 0
0, 0
1, 0
3, 2
2, 0
1, 2
0, 0
1, 2
4, 0
1, 0
1, 0
2, 0
1, 1
0, 2
2, 0
2, 0
0, 0
0, 0
0, 1
1, 0
1, 1
0, 2
2, 0
0, 1
0, 1
0, 0
0, 1
0, 2
1, 1
0, 1
2, 0
0, 2
0, 0
0, 1
1, 0
3, 1
2, 0
1, 0
0, 1
0, 0
0, 0
2, 0
0, 0
0, 0
1, 1
1, 0
0, 1
0, 0
1, 0
1, 0
0, 0
0, 0
0, 2
0, 0
0, 0
0, 0
0, 1
0, 1
0, 0
0, 1
1, 0
1, 1
1, 0
2, 0
1, 0
1, 3
0, 1
0, 0
0, 0
1, 0
1, 0
0, 0
0, 0
0, 0
0, 0
2, 0
1, 0
0, 0
0, 1
0, 0
0, 0
3, 1
1, 0
1, 0
0, 0
1, 1
1, 0
1, 0
1, 0
1, 0
0, 0
0, 1
1, 0
0, 2
1, 0
0, 1
0, 2
1, 1
0, 1
0, 1
2, 0
0, 2
1, 1
1, 0
0, 0
0, 0
2, 0
0, 1
1, 1
0, 1
1, 0
0, 1
0, 0
0, 0
0, 0
0, 1
0, 0
1, 0
0, 0
0, 1
0, 0
0, 0
0, 0
0, 0
2, 0
0, 0
0, 0
0, 0
0, 0
0, 1
1, 0
1, 1
1, 0
0, 0
1, 0
0, 1
0, 0
0, 0
0, 0
0, 0
0, 0
0, 1
1, 1
0, 1
0, 0
0, 1
0, 0
0, 0
0, 1
0, 0
0, 0
0, 0
0, 0
1, 0
0, 0
0, 1
0, 1
2, 1
0, 0
0, 0
1, 0
2, 0
1, 0
1, 0
0, 0
1, 0
0, 0
0, 0
0, 1
0, 0
0, 1
0, 0
0, 0
0, 0
2, 0
1, 0
0, 0
0, 0
0, 0
0, 0
1, 0
0, 1
0, 1
1, 1
0, 0
0, 1
0, 0
0, 0
1, 0
0, 0
0, 0
0, 0
1, 0
0, 0
1, 0
0, 1
0, 1
0, 0
1, 1
0, 1
1, 0
1, 0
0, 1
0, 0
0, 1
0, 0
0, 0
0, 0
0, 0
0, 0
0, 0
0, 0
0, 0
0, 0
0, 1
1, 1
0, 0
0, 0
0, 0
0, 0
0, 0
0, 0
0, 0
0, 0
1, 1
0, 0
1, 1
0, 0
0, 0
0, 1
0, 0
0, 0
0, 0
1, 0
0, 0
0, 0
0, 0
0, 0
0, 0
0, 0
0, 0
0, 0
0, 0
0, 0
0, 0
0, 0
0, 0
0, 0
0, 0
0, 1
0, 0
0, 0
0, 0
0, 0
1, 0
0, 0
0, 0
1, 1
1, 0
0, 0
0, 1
0, 0
0, 0
0, 0
0, 0
0, 0
0, 1
0, 0
0, 0
0, 0
0, 0
0, 0
1, 0
0, 0
0, 0
0, 1
0, 0
0, 0
0, 0
0, 0
0, 0
0, 0
0, 0
0, 0
0, 0
0, 0
0, 0
0, 0
1, 0
0, 0
0, 0
0, 0
0, 0
0, 0
0, 0
0, 0
0, 0
0, 0
0, 0
0, 0
2, 0
0, 0
0, 0
0, 0
0, 0
1, 1
1, 0
0, 0
0, 0
0, 0
0, 0
0, 0
0, 0
0, 0
0, 0
0, 1
0, 0
0, 0
0, 0
0, 0
0, 0
0, 0
0, 0
0, 0
0, 0
2, 0
0, 0
0, 0
0, 0
0, 0
0, 0
0, 0
0, 0
0, 0
0, 1
0, 0
0, 0
0, 0
0, 0
0, 0
0, 0
0, 0
0, 0
0, 0
0, 0
0, 0
0, 0
0, 0
0, 0
0, 0
1, 0
0, 0
0, 0
0, 0
0, 0
0, 1
0, 0
0, 0
0, 0
0, 0
0, 0
0, 0
0, 0
0, 1
0, 0
0, 0
0, 0
0, 0
0, 0
0, 0
0, 0
0, 0
0, 0
0, 0
0, 0
1, 0
0, 0
0, 0
0, 0
0, 0
0, 0
0, 0
0, 0
0, 0
0, 0
0, 0
0, 0
0, 0
0, 0
0, 0
0, 0
0, 0
0, 0
0, 0
0, 0
0, 0
0, 0
0, 0
0, 0
0, 0
0, 0
0, 0
0, 0
0, 0
0, 0
0, 0
0, 0
0, 0
0, 0
0, 0
0, 0
0, 0
0, 0
0, 0
0, 0
0, 0
0, 0
0, 0
0, 0
0, 0
0, 0
0, 0
0, 0
0, 0
0, 0
0, 1
0, 0
0, 0
0, 0
0, 0
0, 0
0, 0
0, 0
0, 0
0, 0
0, 0
0, 0
0, 0
0, 0
0, 0
0, 0
0, 0
0, 0
0, 0
0, 0
0, 0
0, 0
0, 0
0, 0
0, 0
0, 0
0, 0
0, 0
0, 0
0, 0
0, 0
0, 0
0, 0
0, 0
0, 0
0, 0
0, 0
0, 0
0, 0
0, 0
0, 0
0, 0
0, 0
0, 0
0, 0
0, 0
0, 0
0, 0
0, 0
0, 0
0, 0
0, 0
0, 0
0, 0
0, 0
0, 0
0, 0
0, 0
0, 0
0, 0
0, 0
0, 0
0, 0
0, 0
0, 0
0, 0
0, 0
0, 0
0, 0
0, 0
0, 0
0, 0
0, 0
0, 0
0, 0
0, 0
0, 0
0, 0
0, 0
0, 0
0, 0
0, 0
0, 0
0, 0
0, 0
0, 0
0, 0
0, 0
0, 0
0, 0
0, 0
0, 0
0, 0
0, 0
0, 0
0, 0
0, 0
0, 0
0, 0
0, 0
0, 0
0, 0
0, 0
0, 0
0, 0
0, 0
0, 0
0, 0
0, 0
0, 0
0, 0
0, 0
0, 0
0, 0
0, 0
0, 0
0, 0
0, 0
0, 0
0, 0
0, 0
0, 0
0, 0
0, 0
0, 0
0, 0
0, 0
0, 0
0, 0
0, 0
0, 0
0, 0
0, 0
0, 0
0, 0
0, 0
0, 0
0, 0
0, 0
0, 0
0, 0
0, 0
0, 0
0, 0
0, 0
0, 0
0, 0
0, 0
0, 0
0, 0
0, 0
0, 0
0, 0
0, 0
0, 0
0, 0
0, 0
0, 0
0, 0
0, 0
0, 0
0, 0
0, 0
0, 0
0, 0
0, 0
0, 0
0, 0
0, 0
0, 0
0, 0
0, 0
0, 0
0, 0
0, 0
0, 0
0, 0
0, 0
0, 0
0, 0
0, 0
0, 0
0, 0
0, 0
0, 0
0, 0
0, 0
0, 0
0, 0
0, 0
0, 0
0, 0
0, 0
0, 0
0, 0
0, 0
0, 0
0, 0
0, 0
0, 0
0, 0
0, 0
0, 0
0, 0
0, 0
0, 0
0, 0
0, 0
0, 0
0, 0
0, 0
0, 0
0, 0
0, 0
0, 0
0, 0
0, 0
0, 0
0, 0
0, 0
0, 0
0, 0
0, 0
0, 0
0, 0
0, 0
0, 0
0, 0
0, 0
0, 0
0, 0
0, 0
0, 0
0, 0
0, 0
0, 0
0, 0
0, 0
0, 0
0, 0
0, 0
0, 0
0, 0
0, 0
0, 0
0, 0
0, 0
0, 0
0, 0
0, 0
0, 0
0, 0
0, 0
0, 0
0, 0
0, 0
0, 0
0, 0
0, 0
0, 0
0, 0
0, 0
0, 0
0, 0
0, 0
0, 0
0, 0
0, 0
0, 0
0, 0
0, 0
0, 0
0, 0
0, 0
0, 0
0, 0
0, 0
0, 0
0, 0
0, 0
0, 0
0, 0
0, 0
0, 0
0, 0
0, 0
0, 0
0, 0
0, 0
0, 0
0, 0
0, 0
0, 0
0, 0
0, 0
0, 0
0, 0
0, 0
0, 0
0, 0
0, 0
0, 0
0, 0
0, 0
0, 0
0, 0
0, 0
0, 0
0, 0
0, 0
0, 0
0, 0
0, 0
0, 0
0, 0
0, 0
0, 0
0, 0
0, 0
0, 0
0, 0
0, 0
0, 0
0, 0
0, 0
0, 0
0, 0
0, 0
0, 0
0, 0
0, 0
0, 0
0, 0
0, 0
0, 0
0, 0
0, 0
0, 0
0, 0
#ENDOFDATA     end of spectrum data