File: host_upload/06-09-2024/ps_0852/dump3/ps__0852shot_2570.msa
#FORMAT      : EMSA/MAS spectral data file
#VERSION     : TC202v2.0 PIXL
#TITLE       : N/A
#DATE        :       Date in the format DD-MMM-YYYY, for example 07-JUL-2010
#TIME        :             The time of day at which the spectrum was recorded, in 24-hour format
#OWNER       : PIXL Flight Model       (PIXL will use this to indicate which instrument took the data.)
#NPOINTS     : 4096     Number of data points in the spectrum (This can be zero for configuration only files)
#NCOLUMNS    : 2     Number of data columns in the spectrum (This can be zero for configuration only files)
#XUNITS      : eV
#YUNITS      : COUNTS
#DATATYPE    : YY
#XPERCHAN    : 7.862, 7.881   eV per channel (separate by commas if more than one detector)
#OFFSET      : 18.5, -22.4         eV of first channel  (separate by commas if more than one detector
#SIGNALTYPE  : XRF
#YP_TEMP     : 2.235
#LIVETIME    : 8.57169, 8.36284   seconds (separate by commas if more than one detector)
#REALTIME    : 10, 10.0   seconds (separate by commas if more than one detector)
#SPECTRUM    : start of spectrum data
0, 0
0, 0
0, 0
0, 0
0, 0
0, 0
0, 0
0, 0
0, 0
0, 0
0, 0
0, 0
0, 0
0, 0
0, 0
0, 0
0, 0
0, 0
0, 0
0, 0
0, 0
0, 0
0, 0
0, 0
0, 0
0, 0
0, 0
0, 0
0, 0
0, 0
0, 0
0, 0
0, 0
0, 0
0, 0
3, 0
1, 0
0, 0
1, 1
1, 0
1, 2
3, 2
1, 1
1, 2
2, 1
1, 1
2, 1
4, 4
6, 6
13, 15
29, 22
50, 29
62, 50
79, 52
84, 77
90, 56
72, 48
50, 51
31, 24
13, 18
7, 6
6, 2
6, 3
5, 5
4, 4
4, 3
9, 6
7, 13
25, 20
50, 39
100, 78
177, 153
276, 254
368, 339
474, 369
479, 382
425, 379
308, 261
241, 166
126, 110
83, 52
51, 45
24, 13
14, 8
7, 9
3, 3
3, 6
5, 3
5, 2
0, 2
1, 2
2, 1
1, 0
5, 1
1, 1
2, 4
1, 2
3, 4
2, 4
6, 5
6, 4
6, 7
4, 1
4, 2
3, 3
4, 5
6, 5
10, 6
15, 10
23, 15
26, 31
32, 19
53, 40
49, 39
62, 35
51, 34
40, 35
35, 25
44, 28
20, 23
30, 17
13, 15
26, 17
16, 17
20, 19
16, 14
12, 14
9, 9
11, 7
10, 9
9, 3
3, 3
3, 1
1, 1
1, 3
1, 5
1, 1
0, 6
0, 0
4, 2
1, 0
1, 2
0, 3
0, 2
3, 0
1, 0
2, 1
2, 1
1, 0
3, 4
4, 3
2, 4
2, 8
9, 12
10, 13
12, 6
16, 16
18, 21
19, 16
14, 13
13, 9
8, 12
5, 2
7, 3
3, 2
4, 7
1, 1
2, 2
3, 3
3, 7
1, 3
10, 5
6, 4
6, 3
3, 7
3, 5
3, 3
2, 4
1, 2
2, 5
4, 2
3, 2
4, 4
5, 2
4, 3
6, 1
2, 5
3, 5
6, 4
6, 6
13, 8
15, 6
11, 7
10, 8
16, 9
8, 10
10, 9
11, 13
15, 11
17, 11
16, 11
8, 13
15, 12
10, 8
5, 12
1, 7
8, 12
6, 19
3, 18
10, 25
2, 19
4, 24
4, 34
6, 34
8, 22
10, 27
4, 19
3, 29
4, 22
3, 14
8, 14
6, 15
12, 17
8, 11
10, 5
11, 13
9, 11
15, 6
21, 11
22, 16
18, 13
29, 12
29, 11
26, 10
34, 10
17, 9
20, 5
17, 10
7, 6
9, 3
18, 9
5, 2
12, 11
13, 7
21, 11
22, 18
39, 22
38, 33
45, 46
54, 60
58, 56
63, 63
72, 53
52, 41
35, 31
48, 29
30, 16
12, 24
13, 12
20, 14
27, 23
19, 27
51, 47
78, 86
162, 195
291, 352
531, 533
812, 872
1292, 1339
1697, 1695
2127, 1979
2466, 2217
2680, 2367
2484, 2228
2277, 1831
1852, 1404
1380, 1025
900, 703
593, 430
363, 219
211, 120
120, 56
59, 43
33, 25
20, 12
16, 14
14, 13
15, 11
13, 12
33, 19
32, 27
30, 39
48, 46
56, 89
101, 119
165, 170
212, 212
277, 276
353, 306
361, 372
411, 358
341, 310
329, 262
290, 229
217, 163
145, 88
95, 68
59, 45
26, 18
20, 17
13, 8
4, 8
5, 19
9, 18
11, 18
12, 26
14, 19
11, 29
21, 26
16, 28
17, 19
19, 28
16, 18
10, 16
10, 12
15, 21
11, 7
13, 3
13, 7
11, 2
11, 6
11, 6
10, 3
13, 6
10, 2
8, 3
10, 6
8, 4
9, 5
11, 6
10, 2
5, 4
6, 4
4, 5
5, 4
5, 2
12, 7
9, 5
7, 10
3, 5
5, 12
5, 11
6, 8
5, 8
1, 8
5, 17
6, 6
4, 8
5, 3
5, 11
5, 8
2, 6
8, 5
6, 2
8, 3
8, 5
7, 2
19, 6
16, 7
21, 5
21, 1
19, 1
23, 2
25, 0
17, 1
14, 2
6, 4
10, 4
7, 4
6, 1
5, 4
6, 0
3, 7
2, 7
5, 5
5, 0
2, 10
3, 3
5, 2
0, 5
2, 1
3, 5
1, 6
3, 2
6, 2
4, 5
4, 7
2, 3
3, 3
4, 9
4, 10
5, 24
5, 24
5, 28
3, 33
4, 23
3, 25
2, 22
5, 24
11, 15
6, 16
10, 11
12, 14
11, 5
13, 4
17, 6
11, 9
12, 2
13, 6
6, 0
1, 6
4, 0
3, 2
4, 3
1, 2
1, 5
2, 1
4, 3
2, 1
2, 0
0, 1
5, 3
2, 1
1, 3
3, 1
3, 2
3, 3
3, 1
3, 5
5, 6
5, 2
7, 5
3, 2
7, 1
2, 5
2, 4
4, 3
3, 1
1, 5
3, 4
0, 3
4, 1
3, 2
3, 1
1, 2
6, 5
4, 0
3, 2
2, 0
5, 2
4, 1
0, 1
2, 1
5, 3
5, 2
3, 0
3, 3
1, 1
8, 2
3, 1
2, 0
1, 1
2, 2
2, 7
2, 3
3, 4
0, 2
3, 3
6, 2
2, 6
2, 0
2, 2
1, 5
3, 3
1, 2
4, 2
4, 2
2, 0
2, 5
0, 2
1, 0
2, 2
5, 4
2, 0
3, 4
1, 1
1, 2
6, 2
3, 1
3, 3
2, 2
4, 6
7, 4
1, 8
5, 5
3, 8
1, 5
2, 6
1, 9
2, 11
2, 5
3, 2
0, 1
0, 2
2, 2
1, 2
2, 1
1, 2
2, 1
0, 1
1, 2
1, 3
2, 2
4, 2
0, 0
4, 3
2, 2
0, 4
2, 2
3, 0
3, 5
1, 0
0, 4
1, 2
3, 0
6, 0
4, 5
1, 3
4, 2
3, 7
5, 3
4, 6
4, 0
4, 7
3, 4
1, 6
0, 2
3, 2
6, 1
3, 2
6, 0
2, 0
1, 2
2, 0
1, 1
2, 2
3, 2
0, 1
1, 1
2, 0
1, 0
2, 2
3, 1
1, 4
1, 0
1, 0
3, 1
3, 1
3, 3
1, 3
1, 1
3, 2
0, 1
4, 2
3, 2
4, 1
0, 1
2, 1
4, 1
3, 1
1, 4
3, 0
0, 0
0, 2
1, 1
0, 0
0, 0
3, 0
1, 2
3, 2
1, 0
1, 2
3, 3
2, 4
0, 1
1, 1
1, 2
1, 1
2, 1
3, 0
0, 2
0, 2
0, 1
1, 1
0, 1
1, 0
3, 2
1, 0
0, 0
1, 1
0, 3
1, 0
0, 0
1, 2
0, 0
1, 0
1, 1
2, 0
0, 0
1, 0
1, 1
1, 0
0, 2
2, 0
1, 0
0, 0
0, 0
0, 0
2, 0
1, 1
2, 4
1, 1
1, 2
1, 1
1, 0
1, 1
0, 1
1, 0
1, 0
0, 0
1, 1
0, 3
0, 0
0, 4
1, 0
3, 2
0, 0
1, 0
0, 1
0, 1
0, 0
1, 0
1, 0
1, 1
2, 0
0, 1
0, 1
1, 0
0, 1
2, 0
1, 0
0, 2
0, 0
1, 1
0, 0
0, 0
2, 0
1, 0
0, 0
0, 0
1, 1
0, 0
1, 1
1, 1
1, 0
2, 0
0, 0
0, 0
1, 0
0, 0
1, 2
0, 0
1, 1
0, 0
3, 1
1, 1
1, 0
1, 0
1, 0
1, 2
1, 1
1, 0
0, 0
0, 0
0, 1
1, 0
0, 0
1, 0
0, 0
1, 1
1, 0
0, 0
0, 0
0, 1
0, 1
0, 0
0, 0
0, 0
2, 1
0, 0
1, 0
1, 0
0, 0
0, 0
0, 0
0, 0
0, 0
1, 0
0, 0
0, 0
0, 0
0, 2
1, 1
0, 0
0, 0
0, 0
1, 0
1, 0
0, 0
0, 0
1, 1
0, 1
0, 1
0, 0
1, 0
0, 1
0, 2
1, 1
0, 0
0, 1
1, 0
0, 0
0, 0
0, 0
0, 0
0, 1
0, 0
0, 0
1, 0
0, 0
0, 0
0, 0
0, 1
1, 0
0, 0
0, 0
0, 0
0, 0
0, 0
0, 1
0, 1
0, 0
0, 0
1, 0
0, 0
0, 0
0, 0
0, 0
0, 0
0, 0
0, 0
0, 0
0, 0
0, 1
1, 1
0, 0
1, 0
0, 0
0, 0
1, 1
0, 0
1, 1
1, 1
1, 0
0, 0
2, 0
0, 0
2, 0
0, 0
0, 0
0, 0
0, 1
0, 1
0, 0
0, 0
0, 0
0, 0
0, 2
0, 0
0, 1
0, 0
0, 0
0, 0
0, 0
2, 0
0, 2
0, 0
0, 0
0, 0
0, 0
0, 0
0, 0
0, 0
0, 0
0, 0
0, 0
1, 1
1, 0
0, 0
0, 1
0, 0
0, 0
0, 0
0, 0
0, 0
0, 0
0, 0
0, 1
1, 0
0, 1
0, 0
0, 0
1, 0
0, 0
0, 0
0, 0
0, 0
0, 0
0, 0
0, 0
0, 0
0, 0
0, 0
0, 0
0, 0
0, 0
0, 0
0, 0
0, 0
0, 0
0, 0
0, 0
1, 0
0, 0
1, 1
0, 0
1, 1
0, 1
0, 0
1, 1
0, 0
0, 0
1, 0
0, 0
0, 0
1, 0
0, 0
0, 0
0, 0
0, 0
0, 0
0, 0
0, 0
0, 0
1, 0
0, 0
0, 0
0, 0
0, 0
0, 0
0, 0
1, 1
0, 0
0, 1
0, 0
0, 0
0, 0
0, 0
0, 0
0, 0
0, 0
0, 0
0, 0
1, 0
0, 0
0, 0
0, 0
0, 0
0, 0
0, 1
0, 0
0, 0
0, 0
0, 0
0, 0
0, 0
0, 0
0, 0
0, 0
0, 0
0, 0
0, 1
0, 0
0, 0
0, 0
0, 0
0, 0
0, 0
0, 0
0, 0
0, 0
0, 0
0, 0
0, 0
0, 0
0, 0
0, 0
0, 0
0, 0
0, 0
0, 0
0, 0
0, 0
0, 0
0, 0
0, 0
0, 0
0, 0
0, 0
0, 0
0, 0
0, 0
0, 0
0, 0
0, 0
0, 0
0, 1
0, 0
0, 0
0, 0
0, 0
0, 0
0, 0
0, 0
0, 0
0, 0
1, 0
0, 0
0, 0
0, 0
0, 0
0, 0
0, 0
0, 0
0, 0
0, 0
0, 0
0, 0
0, 0
0, 0
0, 0
0, 0
0, 0
0, 0
0, 0
0, 0
0, 0
0, 0
0, 0
0, 0
0, 0
0, 0
0, 0
0, 0
0, 0
0, 0
0, 0
0, 0
0, 0
0, 0
0, 0
0, 0
0, 0
0, 0
0, 0
0, 0
0, 0
0, 0
0, 0
0, 0
0, 0
0, 0
0, 0
0, 0
0, 0
0, 0
1, 0
0, 0
0, 0
0, 0
0, 0
0, 0
0, 0
0, 0
0, 0
0, 0
0, 0
0, 0
0, 0
0, 0
0, 0
0, 0
0, 0
0, 0
0, 0
0, 0
0, 0
0, 0
0, 0
0, 0
0, 0
0, 0
0, 0
0, 0
0, 0
0, 0
0, 0
0, 0
0, 0
0, 0
0, 0
0, 0
0, 0
0, 0
0, 0
0, 0
0, 0
0, 0
0, 0
0, 0
0, 1
0, 0
0, 0
0, 0
0, 0
0, 0
0, 0
0, 0
0, 0
0, 0
0, 0
0, 0
0, 0
0, 0
0, 0
0, 0
0, 0
0, 0
0, 0
0, 0
0, 0
0, 0
0, 0
0, 0
0, 0
0, 0
0, 0
0, 0
0, 0
0, 0
0, 0
0, 0
0, 0
0, 0
0, 0
0, 0
0, 0
0, 0
0, 0
0, 0
0, 0
0, 0
0, 0
0, 0
0, 0
0, 0
0, 0
0, 0
0, 0
0, 0
0, 0
0, 0
0, 0
0, 0
0, 0
0, 0
0, 0
0, 0
0, 0
0, 0
0, 0
0, 0
0, 0
0, 0
0, 0
0, 0
0, 0
0, 0
0, 0
0, 0
0, 0
0, 0
0, 0
0, 0
0, 0
0, 0
0, 0
0, 0
0, 0
0, 0
0, 0
0, 0
0, 0
0, 0
0, 0
0, 0
0, 0
0, 0
0, 0
0, 0
0, 0
0, 0
0, 0
0, 0
0, 0
0, 0
0, 0
0, 0
0, 0
0, 0
0, 0
0, 0
0, 0
0, 0
0, 0
0, 0
0, 0
0, 0
0, 0
0, 0
0, 0
0, 0
0, 0
0, 0
0, 0
0, 0
0, 0
0, 0
0, 0
0, 0
0, 0
0, 0
0, 0
0, 0
0, 0
0, 0
0, 0
0, 0
0, 0
0, 0
0, 0
0, 0
0, 0
0, 0
0, 0
0, 0
0, 0
0, 0
0, 0
0, 0
0, 0
0, 0
0, 0
0, 0
0, 0
0, 0
0, 0
0, 0
0, 0
0, 0
0, 0
0, 0
0, 0
0, 0
0, 0
0, 0
0, 0
0, 0
0, 0
0, 0
0, 0
0, 0
0, 0
0, 0
0, 0
0, 0
0, 0
0, 0
0, 0
0, 0
0, 0
0, 0
0, 0
0, 0
0, 0
0, 0
0, 0
0, 0
0, 0
0, 0
0, 0
0, 0
0, 0
0, 0
0, 0
0, 0
0, 0
0, 0
0, 0
0, 0
0, 0
0, 0
0, 0
0, 0
0, 0
0, 0
0, 0
0, 0
0, 0
0, 0
0, 0
0, 0
0, 0
0, 0
0, 0
0, 0
0, 0
0, 0
0, 0
0, 0
0, 0
0, 0
0, 0
0, 0
0, 0
0, 0
0, 0
0, 0
0, 0
0, 0
0, 0
0, 0
0, 0
0, 0
0, 0
0, 0
0, 0
0, 0
0, 0
0, 0
0, 0
0, 0
0, 0
0, 0
0, 0
0, 0
0, 0
0, 0
0, 0
0, 0
0, 0
0, 0
0, 0
0, 0
0, 0
0, 0
0, 0
0, 0
0, 0
0, 0
0, 0
0, 0
0, 0
0, 0
0, 0
0, 0
0, 0
0, 0
0, 0
0, 0
0, 0
0, 0
0, 0
0, 0
0, 0
0, 0
0, 0
0, 0
0, 0
0, 0
0, 0
0, 0
0, 0
0, 0
0, 0
0, 0
0, 0
0, 0
0, 0
0, 0
0, 0
0, 0
0, 0
0, 0
0, 0
0, 0
0, 0
0, 0
0, 0
0, 0
0, 0
0, 0
0, 0
0, 0
0, 0
0, 0
0, 0
0, 0
0, 0
0, 0
0, 0
0, 0
0, 0
0, 0
0, 0
0, 0
0, 0
0, 0
0, 0
0, 0
0, 0
0, 0
0, 0
0, 0
0, 0
0, 0
#ENDOFDATA     end of spectrum data