File: host_upload/06-09-2024/ps_0852/dump3/ps__0852shot_2293.msa
#FORMAT      : EMSA/MAS spectral data file
#VERSION     : TC202v2.0 PIXL
#TITLE       : N/A
#DATE        :       Date in the format DD-MMM-YYYY, for example 07-JUL-2010
#TIME        :             The time of day at which the spectrum was recorded, in 24-hour format
#OWNER       : PIXL Flight Model       (PIXL will use this to indicate which instrument took the data.)
#NPOINTS     : 4096     Number of data points in the spectrum (This can be zero for configuration only files)
#NCOLUMNS    : 2     Number of data columns in the spectrum (This can be zero for configuration only files)
#XUNITS      : eV
#YUNITS      : COUNTS
#DATATYPE    : YY
#XPERCHAN    : 7.862, 7.881   eV per channel (separate by commas if more than one detector)
#OFFSET      : 18.5, -22.4         eV of first channel  (separate by commas if more than one detector
#SIGNALTYPE  : XRF
#YP_TEMP     : 2.396
#LIVETIME    : 8.56979, 8.55024   seconds (separate by commas if more than one detector)
#REALTIME    : 10, 10.0   seconds (separate by commas if more than one detector)
#SPECTRUM    : start of spectrum data
0, 0
0, 0
0, 0
0, 0
0, 0
0, 0
0, 0
0, 0
0, 0
0, 0
0, 0
0, 0
0, 0
0, 0
0, 0
0, 0
0, 0
0, 0
0, 0
0, 0
0, 0
0, 0
0, 0
0, 0
0, 0
0, 0
0, 0
0, 0
0, 0
0, 0
0, 0
0, 0
0, 0
0, 0
0, 2
0, 0
0, 1
2, 1
1, 1
0, 2
2, 2
1, 1
0, 4
1, 0
0, 0
2, 2
2, 2
1, 6
13, 6
9, 16
17, 26
27, 36
61, 56
63, 75
70, 72
52, 72
53, 45
47, 40
12, 21
10, 14
13, 8
6, 4
1, 6
1, 3
1, 4
1, 7
5, 4
11, 11
20, 27
36, 47
87, 100
138, 170
223, 241
321, 352
317, 411
347, 370
311, 359
231, 253
185, 172
103, 87
52, 66
36, 33
17, 14
7, 8
4, 4
0, 8
2, 2
4, 3
0, 2
4, 2
3, 4
2, 5
9, 10
14, 15
30, 32
47, 60
82, 78
109, 127
112, 141
132, 132
108, 107
85, 96
68, 85
34, 36
30, 27
17, 18
17, 17
18, 18
10, 15
32, 39
22, 33
33, 47
42, 45
46, 46
40, 56
39, 50
44, 56
32, 47
17, 38
25, 27
31, 27
24, 29
26, 24
20, 18
14, 8
18, 18
12, 23
9, 12
14, 7
9, 10
5, 5
9, 4
5, 3
9, 4
3, 1
8, 1
0, 3
5, 4
4, 5
7, 5
4, 9
5, 9
7, 4
3, 6
4, 5
4, 2
1, 3
2, 2
1, 2
4, 0
2, 7
11, 9
7, 7
9, 7
11, 14
13, 8
9, 17
17, 14
16, 23
15, 17
14, 10
10, 6
5, 7
4, 6
3, 4
3, 7
4, 4
4, 4
3, 2
1, 7
9, 3
1, 6
3, 8
4, 3
7, 7
6, 5
5, 2
6, 3
8, 0
2, 2
4, 2
5, 5
1, 4
2, 4
3, 1
5, 3
4, 1
5, 7
7, 5
7, 11
10, 10
14, 16
12, 14
7, 16
13, 19
13, 19
11, 20
12, 22
9, 32
10, 24
13, 30
11, 36
8, 36
2, 32
5, 27
5, 30
5, 25
4, 21
6, 14
6, 14
5, 13
7, 15
6, 17
6, 7
6, 11
2, 3
3, 14
5, 9
2, 6
3, 8
11, 3
3, 4
2, 3
17, 7
7, 11
12, 12
11, 8
11, 11
8, 8
15, 14
20, 18
10, 10
15, 11
18, 27
11, 10
10, 5
5, 8
10, 6
9, 21
9, 14
6, 19
6, 22
10, 26
12, 25
12, 30
13, 36
29, 42
37, 54
53, 61
48, 63
53, 74
61, 72
47, 66
52, 59
51, 60
57, 25
51, 31
68, 15
84, 16
98, 19
112, 19
156, 26
143, 57
176, 109
225, 189
330, 363
481, 614
690, 986
1048, 1446
1503, 1950
1895, 2259
2163, 2618
2256, 2673
2202, 2378
1995, 2117
1632, 1694
1238, 1251
840, 762
609, 450
329, 290
197, 151
101, 79
47, 46
31, 26
16, 27
11, 19
11, 10
7, 14
25, 21
20, 21
19, 26
34, 44
46, 49
66, 90
89, 125
131, 229
207, 252
226, 345
282, 364
323, 372
335, 409
344, 349
268, 277
247, 240
189, 157
119, 102
83, 66
50, 43
34, 24
15, 11
12, 12
10, 8
7, 9
12, 14
14, 11
13, 19
8, 19
10, 12
18, 14
22, 15
26, 10
39, 11
34, 5
43, 11
40, 4
41, 7
34, 0
24, 2
17, 6
18, 0
16, 1
16, 4
12, 3
4, 3
2, 7
5, 2
8, 3
3, 4
4, 3
4, 3
5, 4
3, 12
3, 4
6, 4
4, 10
3, 7
5, 5
5, 8
4, 10
8, 5
7, 8
15, 3
5, 6
10, 3
16, 9
14, 9
14, 4
24, 4
19, 6
14, 4
14, 8
11, 1
10, 3
15, 7
5, 6
7, 6
2, 4
8, 4
3, 3
3, 5
3, 3
2, 6
2, 5
0, 4
1, 2
5, 2
4, 0
4, 3
3, 5
4, 1
4, 8
4, 3
4, 1
5, 5
6, 1
4, 6
2, 2
5, 4
6, 5
3, 3
2, 4
1, 7
7, 4
4, 4
5, 7
7, 2
3, 4
4, 4
5, 5
6, 3
2, 1
2, 2
2, 4
3, 2
2, 2
2, 3
1, 3
4, 1
2, 2
1, 1
2, 3
7, 5
2, 4
1, 4
4, 3
1, 6
3, 4
1, 2
2, 2
3, 3
1, 2
2, 4
2, 0
3, 5
1, 1
4, 2
1, 4
2, 4
3, 6
3, 4
3, 4
1, 11
1, 18
6, 21
4, 20
3, 21
4, 23
1, 23
2, 16
1, 13
0, 20
1, 17
4, 16
2, 13
1, 9
1, 4
4, 7
1, 2
3, 2
0, 4
7, 4
4, 5
7, 5
8, 3
10, 5
3, 4
6, 4
5, 2
8, 1
9, 5
2, 3
5, 4
3, 0
1, 2
2, 2
4, 2
1, 3
1, 2
2, 7
2, 1
4, 2
6, 5
5, 4
1, 2
0, 5
1, 6
1, 3
1, 2
0, 1
1, 2
2, 2
1, 3
0, 2
1, 1
0, 2
4, 2
3, 6
0, 2
3, 1
1, 3
1, 0
3, 3
0, 3
1, 3
1, 1
1, 1
2, 2
1, 4
1, 2
0, 4
3, 3
3, 0
3, 2
0, 0
2, 3
4, 2
1, 0
1, 0
3, 4
1, 3
1, 1
1, 3
1, 2
0, 3
2, 1
3, 2
3, 2
1, 1
4, 4
1, 0
4, 2
0, 2
4, 1
3, 5
2, 2
1, 2
3, 3
4, 1
6, 4
4, 0
2, 2
2, 3
5, 5
4, 2
2, 2
3, 4
2, 7
2, 2
4, 1
1, 6
4, 7
6, 10
3, 7
5, 6
4, 4
3, 1
10, 3
1, 6
2, 4
3, 4
0, 3
1, 1
1, 3
0, 1
2, 3
3, 0
2, 4
2, 2
1, 0
1, 1
0, 1
0, 1
1, 0
1, 2
0, 3
0, 2
3, 4
2, 4
2, 4
2, 1
3, 0
1, 2
2, 3
0, 2
0, 3
1, 0
1, 0
1, 2
1, 1
0, 2
2, 0
0, 2
1, 1
0, 2
0, 1
0, 0
2, 1
0, 0
0, 4
2, 0
3, 1
2, 1
1, 1
1, 1
2, 2
4, 1
2, 0
0, 1
0, 2
2, 1
0, 0
2, 1
0, 2
1, 2
3, 2
1, 0
3, 2
1, 0
2, 2
1, 0
0, 0
1, 1
3, 2
2, 1
2, 1
0, 0
1, 1
0, 2
2, 1
0, 0
1, 1
1, 1
1, 0
1, 0
1, 2
0, 3
0, 1
1, 1
3, 2
0, 1
1, 0
2, 0
1, 0
0, 0
0, 1
0, 0
2, 1
0, 0
1, 0
1, 1
1, 0
0, 1
2, 1
0, 0
0, 1
3, 1
0, 2
1, 0
0, 1
1, 0
1, 3
0, 1
0, 1
0, 0
0, 1
0, 3
1, 1
1, 1
0, 2
1, 2
0, 1
0, 1
0, 1
0, 0
1, 2
0, 1
2, 2
0, 1
0, 2
0, 1
2, 0
0, 0
2, 0
0, 1
0, 0
4, 1
0, 1
0, 0
0, 0
0, 1
0, 1
0, 0
1, 0
1, 1
0, 2
0, 0
0, 1
0, 0
0, 1
1, 0
0, 2
0, 0
0, 0
0, 0
0, 0
1, 0
0, 0
0, 0
0, 0
0, 1
1, 2
1, 0
1, 0
0, 0
0, 1
2, 1
0, 2
0, 0
0, 1
1, 0
0, 0
0, 0
0, 0
1, 0
0, 0
0, 0
3, 0
0, 0
0, 0
0, 0
1, 0
0, 0
0, 2
0, 0
0, 1
0, 0
1, 0
0, 1
0, 0
1, 0
0, 2
0, 1
1, 1
0, 1
0, 0
0, 0
1, 1
0, 1
0, 0
0, 0
1, 0
0, 0
1, 0
2, 0
1, 0
0, 0
0, 0
0, 1
0, 0
0, 0
0, 1
0, 0
0, 0
0, 0
0, 0
1, 1
0, 0
0, 0
0, 0
0, 0
0, 0
0, 0
0, 0
0, 0
1, 0
0, 1
0, 0
0, 0
0, 1
0, 1
0, 0
0, 0
0, 1
1, 1
0, 0
0, 2
0, 1
0, 0
1, 0
0, 0
0, 1
0, 0
0, 0
1, 0
0, 1
0, 1
0, 0
0, 0
0, 0
2, 0
0, 1
0, 0
0, 0
2, 0
0, 1
0, 0
0, 0
0, 1
0, 0
0, 0
0, 0
0, 0
0, 1
2, 0
1, 1
0, 0
0, 0
1, 0
0, 1
0, 0
0, 1
1, 0
1, 1
0, 0
0, 0
1, 0
0, 0
0, 1
0, 0
0, 0
0, 1
0, 0
0, 0
0, 0
0, 0
0, 0
0, 0
0, 1
0, 0
0, 0
0, 0
0, 0
1, 0
0, 0
0, 0
0, 0
1, 0
0, 0
0, 0
0, 0
0, 0
1, 0
0, 0
0, 0
0, 0
0, 0
1, 0
0, 0
0, 1
0, 1
0, 0
0, 1
1, 0
0, 0
0, 0
0, 0
0, 0
0, 0
0, 1
0, 0
0, 0
0, 0
1, 1
0, 0
0, 0
0, 0
0, 1
0, 0
0, 0
0, 0
1, 0
0, 0
0, 0
0, 0
0, 0
0, 0
0, 1
0, 0
0, 0
0, 0
1, 0
0, 0
0, 0
0, 0
0, 0
0, 1
0, 0
0, 0
0, 0
0, 0
0, 0
0, 0
0, 0
1, 0
0, 0
0, 1
1, 0
1, 0
0, 0
2, 0
0, 0
1, 0
0, 0
0, 0
0, 0
1, 0
0, 0
0, 0
0, 0
0, 0
0, 0
0, 0
0, 0
0, 0
0, 0
0, 0
0, 0
0, 0
0, 0
0, 0
0, 0
0, 0
0, 0
0, 0
0, 0
0, 0
0, 0
0, 0
0, 0
0, 0
0, 0
0, 0
0, 0
0, 0
0, 0
0, 0
0, 0
0, 0
0, 0
0, 1
0, 0
0, 0
0, 0
0, 0
0, 0
1, 0
0, 0
0, 0
0, 0
0, 0
0, 0
0, 0
0, 0
0, 0
0, 0
0, 0
0, 0
0, 0
0, 0
0, 0
0, 0
0, 1
0, 0
0, 0
0, 0
0, 0
0, 0
0, 0
0, 0
0, 0
0, 0
0, 0
0, 0
0, 0
0, 0
0, 0
0, 0
0, 0
0, 0
0, 0
0, 0
0, 0
0, 0
0, 0
0, 0
0, 0
0, 0
0, 0
0, 0
0, 0
0, 0
0, 0
0, 0
0, 0
0, 0
0, 0
0, 0
0, 0
0, 0
0, 0
0, 0
0, 0
0, 0
0, 0
0, 0
0, 0
0, 0
0, 0
0, 0
0, 0
0, 0
0, 0
0, 0
0, 0
0, 0
0, 0
0, 0
0, 0
0, 0
0, 0
0, 0
0, 0
0, 0
0, 0
0, 0
0, 0
0, 0
0, 0
0, 0
1, 0
0, 0
0, 0
0, 0
0, 0
0, 0
0, 0
0, 0
1, 0
0, 0
0, 0
0, 0
0, 0
0, 0
0, 0
0, 0
0, 0
0, 0
0, 0
0, 0
0, 0
0, 0
0, 0
0, 0
0, 0
0, 0
0, 0
0, 0
0, 0
0, 0
0, 0
0, 0
0, 0
0, 0
0, 0
0, 0
0, 0
0, 0
0, 0
0, 0
0, 0
0, 0
0, 0
0, 0
0, 0
0, 0
0, 0
0, 0
0, 0
0, 0
0, 0
0, 0
0, 0
0, 0
0, 0
0, 0
0, 0
0, 0
0, 0
0, 0
0, 0
0, 0
0, 0
0, 0
0, 0
0, 0
0, 0
0, 0
0, 0
0, 0
0, 0
0, 0
0, 0
0, 0
0, 0
0, 0
0, 0
0, 0
0, 0
0, 0
0, 0
0, 0
0, 0
0, 0
0, 0
0, 0
0, 0
0, 0
0, 0
0, 0
0, 0
0, 0
0, 0
0, 0
0, 0
0, 0
0, 0
0, 0
0, 0
0, 0
0, 0
0, 0
0, 0
0, 0
0, 0
0, 0
0, 0
0, 0
0, 0
0, 0
0, 0
0, 0
0, 0
0, 0
0, 0
0, 0
0, 0
0, 0
0, 0
0, 0
0, 0
0, 0
0, 0
0, 0
0, 0
0, 0
0, 0
0, 0
0, 0
0, 0
0, 0
0, 0
0, 0
0, 0
0, 0
0, 0
0, 0
0, 0
0, 0
0, 0
0, 0
0, 0
0, 0
0, 0
0, 0
0, 0
0, 0
0, 0
0, 0
0, 0
0, 0
0, 0
0, 0
0, 0
0, 0
0, 0
0, 0
0, 0
0, 0
0, 0
0, 0
0, 0
0, 0
0, 0
0, 0
0, 0
0, 0
0, 0
0, 0
0, 0
0, 0
0, 0
0, 0
0, 0
0, 0
0, 0
0, 0
0, 0
0, 0
0, 0
0, 0
0, 0
0, 0
0, 0
0, 0
0, 0
0, 0
0, 0
0, 0
0, 0
0, 0
0, 0
0, 0
0, 0
0, 0
0, 0
0, 0
0, 0
0, 0
0, 0
0, 0
0, 0
0, 0
0, 0
0, 0
0, 0
0, 0
0, 0
0, 0
0, 0
0, 0
0, 0
0, 0
0, 0
0, 0
0, 0
0, 0
0, 0
0, 0
0, 0
0, 0
0, 0
0, 0
0, 0
0, 0
0, 0
0, 0
0, 0
0, 0
0, 0
0, 0
0, 0
0, 0
0, 0
0, 0
0, 0
0, 0
0, 0
0, 0
0, 0
0, 0
0, 0
0, 0
0, 0
0, 0
0, 0
0, 0
0, 0
0, 0
0, 0
0, 0
0, 0
0, 0
0, 0
0, 0
0, 0
0, 0
0, 0
0, 0
0, 0
0, 0
0, 0
0, 0
0, 0
0, 0
0, 0
0, 0
0, 0
0, 0
0, 0
0, 0
0, 0
0, 0
0, 0
0, 0
0, 0
0, 0
0, 0
0, 0
0, 0
0, 0
0, 0
0, 0
0, 0
0, 0
0, 0
0, 0
0, 0
0, 0
0, 0
0, 0
0, 0
0, 0
0, 0
0, 0
0, 0
0, 0
0, 0
0, 0
0, 0
0, 0
0, 0
0, 0
0, 0
0, 0
0, 0
0, 0
0, 0
0, 0
0, 0
0, 0
0, 0
0, 0
0, 0
0, 0
0, 0
0, 0
0, 0
0, 0
0, 0
0, 0
0, 0
0, 0
0, 0
0, 0
0, 0
0, 0
0, 0
0, 0
0, 0
0, 0
0, 0
0, 0
0, 0
0, 0
0, 0
0, 0
#ENDOFDATA     end of spectrum data