File: host_upload/06-09-2024/ps_0852/dump3/ps__0852shot_2541.msa
#FORMAT      : EMSA/MAS spectral data file
#VERSION     : TC202v2.0 PIXL
#TITLE       : N/A
#DATE        :       Date in the format DD-MMM-YYYY, for example 07-JUL-2010
#TIME        :             The time of day at which the spectrum was recorded, in 24-hour format
#OWNER       : PIXL Flight Model       (PIXL will use this to indicate which instrument took the data.)
#NPOINTS     : 4096     Number of data points in the spectrum (This can be zero for configuration only files)
#NCOLUMNS    : 2     Number of data columns in the spectrum (This can be zero for configuration only files)
#XUNITS      : eV
#YUNITS      : COUNTS
#DATATYPE    : YY
#XPERCHAN    : 7.862, 7.881   eV per channel (separate by commas if more than one detector)
#OFFSET      : 18.5, -22.4         eV of first channel  (separate by commas if more than one detector
#SIGNALTYPE  : XRF
#YP_TEMP     : 2.3
#LIVETIME    : 8.55992, 8.55531   seconds (separate by commas if more than one detector)
#REALTIME    : 10, 10.0   seconds (separate by commas if more than one detector)
#SPECTRUM    : start of spectrum data
0, 0
0, 0
0, 0
0, 0
0, 0
0, 0
0, 0
0, 0
0, 0
0, 0
0, 0
0, 0
0, 0
0, 0
0, 0
0, 0
0, 0
0, 0
0, 0
0, 0
0, 0
0, 0
0, 0
0, 0
0, 0
0, 0
0, 0
0, 0
0, 0
0, 0
0, 0
0, 0
0, 0
0, 0
0, 1
1, 2
0, 2
1, 3
0, 10
1, 14
2, 17
1, 15
1, 30
3, 18
3, 13
1, 10
4, 12
0, 2
8, 8
13, 13
26, 19
39, 49
49, 68
58, 76
76, 67
53, 62
70, 60
33, 47
27, 33
14, 14
9, 8
7, 7
2, 5
3, 4
4, 8
3, 5
8, 7
10, 9
22, 28
51, 56
95, 117
176, 187
297, 298
403, 406
453, 468
446, 417
406, 395
296, 302
189, 203
129, 134
76, 54
31, 26
20, 13
9, 6
6, 8
2, 7
2, 5
3, 4
0, 4
1, 3
2, 3
3, 1
2, 2
2, 3
2, 0
0, 2
2, 5
4, 3
5, 11
6, 8
2, 6
5, 6
1, 5
1, 4
6, 4
2, 8
5, 14
11, 28
18, 74
18, 186
32, 308
41, 576
49, 819
53, 1168
63, 1445
60, 1468
65, 1308
56, 1142
40, 839
38, 530
28, 319
26, 143
16, 73
36, 46
24, 20
23, 18
11, 17
9, 11
10, 5
13, 10
5, 4
3, 2
4, 4
3, 2
3, 2
4, 3
2, 1
0, 4
3, 1
3, 0
0, 2
0, 0
2, 1
3, 1
0, 3
5, 2
2, 0
1, 0
1, 3
1, 1
1, 4
5, 4
5, 5
3, 9
10, 11
11, 15
7, 18
19, 18
18, 15
15, 13
11, 9
10, 10
8, 12
5, 9
2, 9
4, 8
3, 7
3, 18
4, 21
6, 20
6, 24
7, 22
7, 14
10, 16
6, 8
9, 6
7, 7
4, 4
4, 3
13, 5
5, 3
9, 7
2, 2
7, 2
4, 3
3, 3
0, 4
5, 5
2, 9
8, 10
8, 9
5, 8
3, 5
10, 10
16, 8
9, 11
12, 12
13, 16
12, 11
16, 17
9, 13
13, 15
12, 21
13, 23
7, 20
11, 14
7, 15
7, 7
10, 9
4, 4
5, 7
9, 5
4, 7
8, 9
7, 6
5, 2
9, 9
4, 7
6, 6
5, 2
6, 6
3, 2
5, 11
12, 6
5, 5
13, 14
9, 11
6, 6
10, 16
10, 9
14, 9
17, 24
9, 23
12, 6
12, 13
16, 7
15, 5
11, 8
21, 12
8, 15
12, 7
8, 9
15, 9
8, 9
14, 18
15, 16
25, 33
35, 46
46, 53
68, 54
57, 73
63, 55
58, 77
70, 62
43, 45
32, 37
18, 28
20, 15
16, 16
19, 17
17, 20
26, 30
38, 87
82, 103
167, 222
280, 375
494, 628
686, 975
1177, 1372
1562, 1751
2018, 2101
2345, 2515
2459, 2525
2449, 2356
2126, 2039
1672, 1574
1253, 1120
907, 779
589, 459
371, 302
198, 161
88, 95
51, 55
30, 24
29, 33
19, 27
17, 29
18, 15
21, 21
21, 34
16, 36
36, 35
41, 70
59, 84
87, 115
159, 176
206, 267
260, 314
269, 397
319, 328
347, 351
345, 359
285, 291
234, 220
169, 145
147, 105
73, 63
54, 31
31, 22
19, 14
11, 15
3, 12
6, 7
3, 8
13, 11
12, 13
15, 18
16, 9
11, 9
17, 14
11, 18
9, 6
9, 10
4, 9
6, 8
2, 5
3, 4
3, 3
5, 6
5, 7
2, 7
3, 7
2, 8
2, 4
3, 11
6, 6
2, 7
1, 8
7, 6
6, 4
12, 4
7, 9
9, 4
10, 5
12, 3
13, 6
18, 2
14, 5
13, 1
13, 6
9, 5
9, 3
6, 5
5, 6
6, 4
3, 4
5, 3
4, 7
2, 7
2, 4
7, 4
4, 3
3, 6
3, 2
4, 3
3, 2
2, 1
2, 7
4, 6
5, 4
3, 5
5, 1
4, 5
4, 4
5, 2
4, 5
6, 6
8, 6
8, 4
2, 4
5, 10
1, 3
2, 5
6, 10
2, 6
6, 8
5, 5
6, 5
7, 6
6, 6
3, 6
6, 7
8, 8
6, 7
8, 5
3, 4
7, 2
7, 10
4, 8
0, 5
2, 6
4, 9
2, 6
4, 3
0, 2
2, 3
0, 1
5, 3
4, 4
3, 4
6, 1
6, 5
7, 3
3, 4
1, 4
2, 1
2, 3
5, 3
2, 5
4, 2
2, 4
1, 3
3, 5
2, 1
3, 3
2, 1
1, 1
2, 3
2, 4
4, 1
2, 4
2, 3
2, 5
3, 0
4, 3
2, 1
2, 4
1, 4
2, 1
3, 5
3, 1
3, 8
5, 6
1, 3
2, 0
3, 3
1, 3
1, 2
3, 4
3, 1
4, 1
4, 3
2, 5
4, 3
5, 6
3, 6
8, 4
5, 10
6, 3
6, 7
4, 3
0, 8
5, 8
1, 9
0, 2
3, 6
4, 4
4, 3
4, 4
3, 10
0, 3
2, 5
3, 1
1, 1
4, 2
3, 4
5, 4
0, 3
3, 1
2, 4
1, 3
0, 3
1, 4
2, 0
1, 2
2, 0
4, 3
2, 3
2, 2
2, 1
1, 3
2, 2
1, 4
0, 0
1, 2
1, 1
2, 2
1, 0
0, 1
3, 1
3, 6
0, 3
1, 3
1, 4
1, 2
1, 1
2, 5
2, 1
3, 1
2, 4
1, 1
5, 2
0, 2
1, 1
1, 0
2, 3
1, 1
1, 3
3, 4
2, 2
2, 2
2, 2
0, 2
2, 1
0, 1
2, 3
0, 2
2, 3
2, 3
2, 0
0, 2
3, 2
4, 1
1, 2
3, 0
5, 3
3, 1
6, 2
3, 1
0, 2
6, 5
4, 3
4, 9
4, 2
3, 3
2, 1
2, 2
4, 4
1, 2
4, 2
1, 1
0, 0
4, 2
1, 7
0, 2
3, 1
0, 2
2, 0
5, 1
2, 2
2, 3
1, 2
0, 1
0, 1
2, 1
2, 1
1, 1
2, 0
1, 3
0, 2
1, 3
1, 5
3, 2
2, 1
3, 1
1, 0
2, 2
1, 1
1, 1
1, 2
1, 1
0, 3
0, 1
1, 0
1, 0
0, 0
0, 2
2, 1
4, 2
1, 0
0, 2
1, 1
0, 1
0, 0
0, 0
1, 0
2, 1
2, 2
3, 1
3, 0
1, 0
0, 2
0, 0
1, 2
1, 3
1, 2
2, 0
0, 3
0, 0
1, 0
0, 1
1, 1
0, 1
0, 2
0, 0
2, 1
0, 3
1, 0
2, 1
0, 0
2, 2
0, 0
2, 0
0, 1
2, 0
0, 0
2, 1
4, 1
0, 1
1, 0
0, 0
1, 1
0, 0
1, 1
0, 1
2, 1
0, 2
2, 0
0, 1
1, 1
1, 3
0, 0
2, 0
2, 0
0, 1
1, 0
0, 0
1, 1
2, 0
0, 0
0, 0
0, 0
1, 0
0, 1
0, 0
0, 0
0, 1
0, 0
1, 1
0, 0
0, 0
1, 0
1, 1
0, 0
0, 1
0, 1
1, 0
0, 0
1, 1
0, 0
0, 0
1, 1
1, 1
0, 2
1, 1
0, 0
0, 1
0, 2
0, 1
0, 0
2, 1
0, 0
2, 0
0, 1
2, 0
1, 0
1, 2
2, 1
0, 0
2, 2
0, 0
0, 1
0, 0
0, 1
1, 2
0, 0
1, 1
0, 2
1, 0
0, 0
0, 1
0, 0
1, 0
4, 0
0, 1
1, 1
1, 0
0, 0
0, 0
0, 0
0, 0
0, 0
1, 0
1, 1
3, 0
1, 0
0, 1
0, 0
0, 0
0, 0
0, 0
0, 1
0, 0
1, 0
0, 1
1, 0
1, 1
0, 1
0, 0
0, 0
0, 0
0, 1
1, 0
0, 0
0, 0
0, 1
0, 1
0, 0
0, 0
1, 0
1, 1
0, 0
0, 0
0, 0
0, 0
1, 0
0, 0
2, 0
0, 0
0, 1
1, 0
0, 0
0, 0
0, 0
0, 0
0, 1
0, 0
0, 0
1, 0
2, 0
0, 0
0, 1
0, 0
0, 0
0, 0
1, 0
0, 1
0, 0
0, 0
0, 0
0, 0
0, 0
0, 1
1, 0
0, 1
0, 1
0, 2
0, 0
0, 1
0, 1
0, 0
0, 0
1, 0
0, 1
0, 0
0, 0
0, 2
0, 1
0, 0
1, 2
0, 0
0, 0
0, 1
0, 0
1, 0
0, 1
0, 0
0, 1
0, 1
0, 0
0, 1
0, 1
0, 1
0, 1
0, 0
0, 0
0, 0
0, 0
0, 0
0, 0
1, 0
0, 0
0, 0
0, 0
0, 0
0, 0
0, 0
0, 0
0, 0
0, 0
0, 0
0, 0
1, 0
0, 0
1, 0
0, 0
1, 1
1, 0
0, 0
0, 0
0, 0
0, 0
0, 0
0, 0
0, 0
0, 1
0, 0
0, 0
0, 0
0, 0
0, 0
0, 0
0, 0
0, 1
0, 0
0, 0
0, 0
0, 0
0, 0
0, 0
0, 0
0, 0
1, 0
0, 0
0, 0
0, 1
0, 0
0, 0
0, 0
0, 0
0, 0
0, 0
0, 0
0, 0
0, 1
0, 0
0, 0
0, 0
0, 0
0, 0
0, 0
0, 0
1, 0
0, 0
0, 0
0, 0
0, 0
0, 0
0, 0
0, 0
0, 0
0, 0
0, 0
0, 0
0, 0
0, 0
0, 0
0, 0
0, 0
0, 0
0, 0
0, 0
0, 0
0, 0
0, 0
0, 0
0, 0
0, 0
1, 0
0, 0
0, 0
0, 0
0, 0
0, 0
1, 0
0, 0
0, 0
0, 0
0, 1
0, 0
0, 0
0, 0
0, 0
0, 0
0, 0
0, 0
0, 0
0, 0
0, 0
0, 0
0, 0
0, 0
0, 0
0, 0
0, 0
0, 0
0, 0
0, 0
0, 0
0, 0
0, 0
0, 0
0, 0
0, 0
0, 0
0, 0
0, 0
0, 0
0, 0
0, 0
0, 0
0, 0
0, 0
0, 0
0, 0
0, 0
0, 0
0, 0
0, 0
0, 0
0, 0
0, 0
0, 0
0, 0
0, 0
0, 0
0, 0
0, 0
0, 0
0, 0
0, 0
0, 0
0, 0
0, 0
0, 0
0, 0
0, 0
0, 0
0, 0
0, 0
0, 0
0, 0
0, 0
0, 0
0, 0
0, 0
0, 0
0, 1
0, 0
0, 0
0, 0
0, 0
0, 0
0, 0
0, 0
0, 0
0, 0
0, 0
0, 0
0, 0
0, 0
0, 0
0, 0
0, 0
0, 0
0, 0
0, 0
0, 0
0, 0
0, 0
0, 0
0, 0
0, 0
0, 0
0, 0
0, 0
0, 0
0, 0
1, 0
0, 0
0, 0
0, 0
0, 0
0, 0
0, 0
0, 0
0, 0
0, 0
0, 0
0, 0
0, 0
0, 0
0, 0
0, 0
0, 0
0, 0
0, 0
0, 0
0, 0
0, 0
0, 0
0, 0
0, 0
0, 0
0, 0
0, 0
0, 0
0, 0
0, 0
0, 0
0, 0
0, 0
0, 0
0, 0
0, 0
0, 0
0, 0
0, 0
0, 0
0, 0
0, 0
0, 0
0, 0
0, 0
0, 0
0, 0
0, 0
0, 0
0, 0
0, 0
0, 0
0, 0
0, 0
0, 0
0, 0
0, 0
0, 0
0, 0
0, 0
0, 0
0, 0
0, 0
0, 0
0, 0
0, 0
0, 0
0, 0
0, 0
0, 0
0, 0
0, 0
0, 0
0, 0
0, 0
0, 0
0, 0
0, 0
0, 0
0, 0
0, 0
0, 0
0, 0
0, 0
0, 0
0, 0
0, 0
0, 0
0, 0
0, 0
0, 0
0, 0
0, 0
0, 0
0, 0
0, 0
0, 0
0, 0
0, 0
0, 0
0, 0
0, 0
0, 0
0, 0
0, 0
0, 0
0, 0
0, 0
0, 0
0, 0
0, 0
0, 0
0, 1
0, 0
0, 0
0, 0
0, 0
0, 0
0, 0
0, 0
0, 0
0, 0
0, 0
0, 0
0, 0
0, 0
0, 0
0, 0
0, 0
0, 0
0, 0
0, 0
0, 0
0, 0
0, 0
0, 0
0, 0
0, 0
0, 0
0, 0
0, 0
0, 0
0, 0
0, 0
0, 0
0, 0
0, 0
0, 0
0, 0
0, 0
0, 0
0, 0
0, 0
0, 0
0, 0
0, 0
0, 0
0, 0
0, 0
0, 0
0, 0
0, 0
0, 0
0, 0
0, 0
0, 0
0, 0
0, 0
0, 0
0, 0
0, 0
0, 0
0, 0
0, 0
0, 0
0, 0
0, 0
0, 0
0, 0
0, 0
0, 0
0, 0
0, 0
0, 0
0, 0
0, 0
0, 0
0, 0
0, 0
0, 0
0, 0
0, 0
0, 0
0, 0
0, 0
0, 0
0, 0
0, 0
0, 0
0, 0
0, 0
0, 0
0, 0
0, 0
0, 0
0, 0
0, 0
0, 0
0, 0
0, 0
0, 0
0, 0
0, 0
0, 0
0, 0
0, 0
0, 0
0, 0
0, 0
0, 0
0, 0
0, 0
0, 0
0, 0
0, 0
0, 0
0, 0
0, 0
0, 0
0, 0
0, 0
0, 0
0, 0
0, 0
0, 0
0, 0
0, 0
0, 0
0, 0
0, 0
0, 0
0, 0
0, 0
0, 0
0, 0
0, 0
0, 0
0, 0
0, 0
0, 0
0, 0
0, 0
0, 0
0, 0
0, 0
0, 0
0, 0
0, 0
0, 0
0, 0
0, 0
0, 0
0, 0
0, 0
0, 0
0, 0
0, 0
0, 0
0, 0
0, 0
0, 0
0, 0
0, 0
0, 0
0, 0
0, 0
0, 0
0, 0
0, 0
0, 0
0, 0
0, 0
0, 0
0, 0
0, 0
0, 0
0, 0
0, 0
0, 0
0, 0
0, 0
0, 0
0, 0
0, 0
0, 0
0, 0
0, 0
0, 0
0, 0
0, 0
0, 0
0, 0
0, 0
0, 0
0, 0
0, 0
0, 0
0, 0
0, 0
0, 0
0, 0
0, 0
0, 0
0, 0
0, 0
0, 0
0, 0
0, 0
0, 0
0, 0
0, 0
0, 0
0, 0
0, 0
0, 0
0, 0
0, 0
0, 0
0, 0
0, 0
0, 0
0, 0
0, 0
0, 0
0, 0
0, 0
0, 0
0, 0
0, 0
0, 0
0, 0
0, 0
0, 0
0, 0
0, 0
0, 0
0, 0
0, 0
0, 0
0, 0
0, 0
0, 0
0, 0
0, 0
0, 0
0, 0
0, 0
#ENDOFDATA     end of spectrum data