File: host_upload/06-09-2024/ps_0852/dump3/ps__0852shot_2070.msa
#FORMAT      : EMSA/MAS spectral data file
#VERSION     : TC202v2.0 PIXL
#TITLE       : N/A
#DATE        :       Date in the format DD-MMM-YYYY, for example 07-JUL-2010
#TIME        :             The time of day at which the spectrum was recorded, in 24-hour format
#OWNER       : PIXL Flight Model       (PIXL will use this to indicate which instrument took the data.)
#NPOINTS     : 4096     Number of data points in the spectrum (This can be zero for configuration only files)
#NCOLUMNS    : 2     Number of data columns in the spectrum (This can be zero for configuration only files)
#XUNITS      : eV
#YUNITS      : COUNTS
#DATATYPE    : YY
#XPERCHAN    : 7.862, 7.881   eV per channel (separate by commas if more than one detector)
#OFFSET      : 18.5, -22.4         eV of first channel  (separate by commas if more than one detector
#SIGNALTYPE  : XRF
#YP_TEMP     : 2.716
#LIVETIME    : 8.56011, 8.5654   seconds (separate by commas if more than one detector)
#REALTIME    : 10, 10.0   seconds (separate by commas if more than one detector)
#SPECTRUM    : start of spectrum data
0, 0
0, 0
0, 0
0, 0
0, 0
0, 0
0, 0
0, 0
0, 0
0, 0
0, 0
0, 0
0, 0
0, 0
0, 0
0, 0
0, 0
0, 0
0, 0
0, 0
0, 0
0, 0
0, 0
0, 0
0, 0
0, 0
0, 0
0, 0
0, 0
0, 0
0, 0
0, 0
0, 0
0, 0
1, 1
0, 0
1, 1
0, 0
0, 0
0, 0
0, 1
2, 2
0, 2
3, 2
1, 1
1, 3
3, 3
4, 5
9, 5
14, 7
30, 13
35, 46
57, 59
63, 65
69, 75
62, 71
53, 62
41, 29
29, 19
20, 19
8, 7
6, 6
2, 3
3, 5
1, 4
2, 8
1, 6
4, 15
14, 17
60, 36
96, 91
157, 183
256, 262
332, 340
418, 372
413, 404
373, 368
262, 312
182, 234
124, 110
76, 75
38, 47
18, 20
7, 10
5, 5
3, 1
4, 0
5, 1
0, 1
1, 1
3, 1
0, 0
2, 0
0, 2
7, 1
1, 5
1, 5
1, 6
3, 8
7, 5
6, 1
4, 4
4, 5
2, 2
8, 3
5, 5
4, 3
7, 7
11, 6
17, 19
22, 22
27, 14
33, 37
28, 43
41, 51
29, 50
50, 43
55, 55
29, 42
25, 34
27, 27
22, 25
17, 33
20, 26
16, 22
21, 19
15, 8
17, 9
8, 9
11, 5
7, 8
1, 4
2, 1
3, 2
1, 3
0, 6
4, 2
1, 3
2, 4
3, 3
5, 4
5, 2
1, 6
6, 1
2, 5
3, 5
4, 4
2, 2
4, 3
2, 3
4, 2
4, 9
10, 12
8, 12
17, 16
14, 15
18, 18
21, 17
14, 24
16, 15
13, 14
10, 16
5, 7
3, 3
10, 6
4, 0
16, 4
23, 7
28, 12
37, 13
19, 17
38, 8
27, 9
21, 6
16, 12
10, 5
9, 3
8, 7
6, 7
2, 8
5, 7
10, 7
7, 6
7, 3
4, 7
4, 6
2, 6
10, 2
8, 7
13, 7
10, 12
12, 17
25, 12
20, 12
22, 24
13, 13
17, 18
17, 16
23, 17
13, 9
15, 15
19, 6
7, 14
7, 7
8, 9
8, 7
8, 8
5, 11
6, 15
7, 11
8, 14
13, 21
6, 11
6, 16
5, 17
7, 18
7, 16
4, 8
10, 9
10, 9
11, 13
4, 4
5, 9
7, 6
9, 12
9, 9
13, 13
14, 13
17, 23
15, 15
28, 21
14, 13
24, 22
12, 17
28, 13
22, 15
10, 4
7, 16
9, 10
16, 11
5, 9
9, 10
14, 12
14, 8
17, 25
9, 14
22, 28
45, 32
40, 41
47, 53
57, 76
59, 72
59, 66
52, 44
38, 49
34, 31
26, 35
21, 23
25, 33
17, 29
31, 35
22, 50
49, 81
86, 138
159, 176
279, 360
479, 604
737, 960
1041, 1313
1517, 1785
1908, 2077
2264, 2332
2445, 2436
2400, 2242
2130, 2002
1755, 1555
1343, 1117
947, 756
611, 512
411, 263
218, 152
134, 86
63, 42
49, 28
15, 13
23, 19
15, 22
14, 19
13, 25
18, 15
23, 34
28, 40
45, 54
52, 88
96, 117
156, 178
205, 218
254, 281
335, 362
325, 379
361, 385
342, 349
316, 264
247, 212
203, 144
138, 106
82, 73
63, 32
48, 31
21, 10
20, 14
15, 9
24, 16
22, 5
19, 9
17, 13
25, 14
25, 18
24, 23
7, 13
14, 15
13, 12
15, 13
9, 4
13, 7
9, 4
7, 3
5, 5
4, 4
4, 1
7, 4
5, 2
4, 7
7, 7
10, 5
1, 4
1, 4
5, 9
5, 9
7, 7
4, 5
9, 6
9, 4
6, 4
6, 7
6, 4
4, 7
9, 12
4, 7
8, 5
3, 6
5, 8
7, 8
7, 5
5, 7
6, 2
6, 9
6, 6
5, 4
2, 3
4, 2
6, 6
3, 2
12, 7
6, 3
5, 6
4, 6
7, 5
10, 7
7, 4
9, 4
9, 5
8, 8
4, 6
10, 7
6, 5
4, 4
3, 5
4, 6
4, 1
5, 5
6, 6
4, 7
7, 5
7, 6
3, 4
4, 6
5, 2
4, 4
6, 3
5, 1
6, 6
1, 3
1, 3
7, 4
4, 4
3, 2
2, 3
1, 5
4, 4
5, 3
2, 7
4, 5
4, 2
5, 4
5, 6
3, 2
3, 0
0, 2
4, 1
7, 2
2, 4
7, 2
7, 3
8, 6
5, 6
2, 3
1, 6
3, 4
4, 2
4, 5
2, 5
4, 0
3, 3
3, 3
3, 4
3, 2
6, 4
6, 1
5, 5
2, 2
4, 0
4, 2
1, 1
3, 3
1, 5
3, 2
4, 2
6, 7
1, 4
4, 3
5, 1
4, 5
3, 6
3, 2
4, 2
6, 1
7, 2
3, 4
1, 3
2, 1
5, 2
2, 2
0, 1
2, 5
4, 2
4, 1
4, 2
2, 0
2, 2
8, 3
4, 3
2, 1
4, 1
2, 2
7, 2
4, 2
4, 3
5, 2
3, 5
5, 3
2, 1
2, 4
4, 4
1, 5
5, 4
2, 2
3, 3
0, 2
1, 2
1, 5
3, 2
4, 4
1, 1
3, 4
3, 3
5, 1
4, 3
1, 3
3, 1
2, 3
3, 5
0, 0
5, 3
3, 3
4, 1
1, 1
1, 1
0, 2
3, 0
3, 2
2, 5
1, 1
1, 2
4, 1
4, 1
4, 1
2, 2
9, 0
1, 1
3, 3
3, 2
4, 1
2, 1
1, 1
1, 4
2, 0
3, 5
2, 2
3, 3
0, 2
2, 2
1, 3
1, 0
0, 3
0, 2
3, 3
1, 2
2, 2
5, 1
4, 5
0, 2
2, 2
1, 3
1, 1
2, 4
0, 7
0, 2
0, 6
4, 2
2, 8
3, 3
4, 6
7, 3
1, 5
3, 0
3, 1
1, 1
0, 2
2, 1
2, 4
0, 3
5, 1
3, 0
0, 0
2, 1
1, 0
3, 0
1, 6
0, 1
5, 2
2, 1
4, 1
4, 0
0, 1
4, 2
1, 2
1, 3
2, 1
2, 2
3, 3
0, 0
3, 3
1, 1
0, 0
0, 2
0, 1
2, 2
1, 1
1, 1
0, 0
2, 1
2, 2
3, 2
0, 1
1, 0
0, 3
1, 1
0, 0
2, 0
0, 1
0, 1
2, 1
1, 3
2, 2
0, 2
0, 1
0, 3
0, 2
2, 0
2, 4
0, 0
0, 0
2, 0
1, 0
0, 2
1, 0
2, 3
1, 2
0, 1
1, 0
0, 0
2, 0
0, 1
0, 1
0, 1
2, 1
1, 1
1, 0
2, 3
1, 1
0, 1
1, 0
0, 1
0, 1
0, 0
2, 1
2, 2
0, 0
0, 0
0, 1
0, 1
2, 0
0, 1
1, 0
1, 1
0, 1
2, 0
2, 0
0, 0
1, 1
1, 0
1, 0
1, 1
0, 2
2, 0
0, 3
1, 0
0, 0
0, 3
2, 2
0, 0
3, 2
3, 1
0, 0
1, 0
1, 0
0, 1
1, 1
0, 3
1, 2
1, 1
1, 0
0, 0
0, 0
0, 0
1, 1
0, 1
0, 1
0, 0
0, 0
1, 1
1, 0
2, 1
0, 0
2, 1
1, 0
1, 0
0, 0
0, 1
0, 0
0, 1
2, 1
1, 0
1, 0
0, 0
0, 0
1, 1
1, 0
0, 0
0, 1
0, 1
0, 1
2, 0
1, 1
1, 0
0, 1
1, 2
1, 2
1, 0
2, 1
2, 0
0, 0
1, 0
2, 1
0, 1
0, 1
1, 2
1, 0
0, 0
1, 0
0, 0
0, 0
0, 1
1, 0
0, 0
2, 1
0, 0
0, 0
0, 1
0, 0
0, 0
0, 1
0, 0
1, 1
0, 0
0, 0
0, 0
0, 0
0, 0
0, 0
0, 0
0, 0
1, 0
0, 0
3, 0
1, 0
0, 0
0, 0
0, 0
0, 0
0, 2
0, 1
1, 0
1, 1
2, 0
0, 0
0, 0
0, 1
0, 0
0, 1
0, 0
1, 0
0, 0
0, 0
1, 0
0, 0
0, 0
0, 0
1, 0
0, 2
0, 0
0, 0
0, 1
0, 0
0, 0
0, 0
0, 0
2, 0
0, 0
0, 0
1, 1
0, 0
0, 1
0, 0
0, 0
0, 1
0, 0
0, 0
1, 0
0, 0
0, 0
0, 0
0, 1
1, 0
1, 0
1, 2
0, 0
0, 0
1, 0
0, 0
2, 1
2, 0
0, 0
1, 0
0, 0
0, 0
1, 0
0, 0
0, 0
1, 1
0, 0
0, 0
0, 0
0, 1
0, 0
1, 0
0, 0
0, 0
0, 0
0, 1
1, 0
0, 0
0, 0
0, 1
0, 0
0, 0
0, 0
0, 0
1, 0
0, 0
1, 0
0, 0
0, 0
0, 0
0, 0
0, 0
0, 0
0, 0
0, 0
0, 0
0, 0
0, 0
0, 0
1, 1
0, 0
0, 0
0, 0
1, 0
0, 0
0, 0
0, 2
0, 0
0, 1
0, 0
0, 0
0, 0
0, 0
0, 0
1, 0
0, 1
0, 0
0, 0
0, 0
0, 0
1, 0
0, 0
0, 0
0, 0
0, 0
0, 0
0, 0
0, 0
0, 0
0, 0
0, 0
0, 0
0, 0
0, 0
1, 0
0, 0
0, 1
0, 0
0, 0
0, 0
0, 0
0, 0
0, 0
1, 0
0, 0
0, 0
0, 0
0, 0
0, 0
0, 0
0, 0
0, 0
0, 0
0, 0
0, 0
0, 0
0, 0
0, 0
0, 0
0, 0
0, 0
0, 0
0, 0
0, 0
0, 0
0, 0
0, 0
0, 0
0, 0
0, 0
0, 0
0, 0
0, 0
0, 0
0, 0
0, 0
0, 0
0, 0
0, 0
0, 0
0, 1
0, 0
0, 0
0, 0
0, 0
0, 0
0, 0
0, 0
0, 0
0, 0
0, 0
0, 1
0, 0
0, 0
0, 0
0, 0
0, 0
1, 0
0, 0
0, 0
0, 0
0, 0
0, 0
0, 0
0, 0
0, 0
0, 0
0, 0
0, 0
0, 0
0, 0
0, 0
0, 0
0, 0
0, 0
0, 0
0, 0
0, 0
0, 0
0, 0
0, 0
0, 0
0, 0
0, 0
0, 0
0, 0
0, 0
0, 0
0, 0
0, 0
0, 0
0, 0
0, 0
0, 0
0, 0
0, 0
0, 0
0, 0
0, 0
0, 0
0, 0
0, 0
0, 0
0, 0
0, 0
0, 0
0, 0
0, 0
0, 0
0, 0
0, 0
0, 0
0, 0
0, 0
0, 0
0, 0
0, 0
0, 0
0, 0
0, 0
0, 0
0, 0
0, 0
0, 0
0, 0
0, 0
0, 0
0, 0
0, 0
1, 0
0, 0
0, 0
0, 0
0, 0
0, 0
0, 0
0, 0
0, 0
0, 0
0, 0
0, 0
0, 0
0, 0
0, 0
0, 0
0, 0
0, 0
0, 0
0, 0
0, 0
0, 0
0, 0
0, 0
0, 0
0, 0
0, 0
0, 0
0, 0
0, 0
0, 0
0, 0
0, 0
0, 0
0, 0
0, 0
0, 0
0, 0
0, 0
0, 0
0, 0
0, 0
0, 0
0, 0
0, 0
0, 0
0, 0
0, 0
0, 0
0, 0
0, 0
0, 0
0, 0
0, 0
0, 0
0, 0
0, 0
0, 0
0, 0
0, 0
0, 0
0, 0
0, 0
0, 0
0, 0
0, 0
0, 0
0, 0
0, 0
0, 0
0, 0
0, 0
0, 0
0, 0
0, 0
0, 0
0, 0
0, 0
0, 0
0, 0
0, 0
0, 0
0, 0
0, 0
0, 0
0, 0
0, 0
0, 0
0, 0
0, 0
0, 0
0, 0
0, 0
0, 0
0, 0
0, 0
0, 0
0, 0
0, 0
0, 0
0, 0
0, 0
0, 0
0, 0
0, 0
0, 0
0, 0
0, 0
0, 0
0, 0
0, 0
0, 0
0, 0
0, 0
0, 0
0, 0
0, 0
0, 0
0, 0
0, 0
0, 0
0, 0
0, 0
0, 0
0, 0
0, 0
0, 0
0, 0
0, 0
0, 0
0, 0
0, 0
0, 0
0, 0
0, 0
0, 0
0, 0
0, 0
0, 0
0, 0
0, 0
0, 0
0, 0
0, 0
0, 0
0, 0
0, 0
0, 0
0, 0
0, 0
0, 0
0, 0
0, 0
0, 0
0, 0
0, 0
0, 0
0, 0
0, 0
0, 0
0, 0
0, 0
0, 0
0, 0
0, 0
0, 0
0, 0
0, 0
0, 0
0, 0
0, 0
0, 0
0, 0
0, 0
0, 0
0, 0
0, 0
0, 0
0, 0
0, 0
0, 0
0, 0
0, 0
0, 0
0, 0
0, 0
0, 0
0, 0
0, 0
0, 0
0, 0
0, 0
0, 0
0, 0
0, 0
0, 0
0, 0
0, 0
0, 0
0, 0
0, 0
0, 0
0, 0
0, 0
0, 0
0, 0
0, 0
0, 0
0, 0
0, 0
0, 0
0, 0
0, 0
0, 0
0, 0
0, 0
0, 0
0, 0
0, 0
0, 0
0, 0
0, 0
0, 0
0, 0
0, 0
0, 0
0, 0
0, 0
0, 0
0, 0
0, 0
0, 0
0, 0
0, 0
0, 0
0, 0
0, 0
0, 0
0, 0
0, 0
0, 0
0, 0
0, 0
0, 0
0, 0
0, 0
0, 0
0, 0
0, 0
0, 0
0, 0
0, 0
0, 0
0, 0
0, 0
0, 0
0, 0
0, 0
0, 0
0, 0
0, 0
0, 0
0, 0
0, 0
0, 0
0, 0
0, 0
0, 0
0, 0
0, 0
0, 0
0, 0
0, 0
0, 0
0, 0
0, 0
0, 0
0, 0
0, 0
0, 0
0, 0
0, 0
0, 0
0, 0
0, 0
0, 0
0, 0
0, 0
0, 0
0, 0
0, 0
0, 0
0, 0
0, 0
0, 0
0, 0
0, 0
0, 0
0, 0
0, 0
0, 0
0, 0
0, 0
0, 0
0, 0
0, 0
0, 0
0, 0
0, 0
0, 0
0, 0
0, 0
0, 0
0, 0
0, 0
0, 0
0, 0
0, 0
0, 0
0, 0
0, 0
0, 0
0, 0
0, 0
0, 0
0, 0
0, 0
0, 0
0, 0
0, 0
0, 0
0, 0
0, 0
0, 0
0, 0
0, 0
0, 0
0, 0
0, 0
0, 0
0, 0
0, 0
0, 0
0, 0
0, 0
0, 0
0, 0
0, 0
0, 0
0, 0
0, 0
0, 0
0, 0
0, 0
0, 0
0, 0
0, 0
0, 0
0, 0
0, 0
0, 0
0, 0
#ENDOFDATA     end of spectrum data