File: host_upload/06-09-2024/ps_0852/dump3/ps__0852shot_2564.msa
#FORMAT      : EMSA/MAS spectral data file
#VERSION     : TC202v2.0 PIXL
#TITLE       : N/A
#DATE        :       Date in the format DD-MMM-YYYY, for example 07-JUL-2010
#TIME        :             The time of day at which the spectrum was recorded, in 24-hour format
#OWNER       : PIXL Flight Model       (PIXL will use this to indicate which instrument took the data.)
#NPOINTS     : 4096     Number of data points in the spectrum (This can be zero for configuration only files)
#NCOLUMNS    : 2     Number of data columns in the spectrum (This can be zero for configuration only files)
#XUNITS      : eV
#YUNITS      : COUNTS
#DATATYPE    : YY
#XPERCHAN    : 7.862, 7.881   eV per channel (separate by commas if more than one detector)
#OFFSET      : 18.5, -22.4         eV of first channel  (separate by commas if more than one detector
#SIGNALTYPE  : XRF
#YP_TEMP     : 2.203
#LIVETIME    : 8.54644, 8.54687   seconds (separate by commas if more than one detector)
#REALTIME    : 10, 10.0   seconds (separate by commas if more than one detector)
#SPECTRUM    : start of spectrum data
0, 0
0, 0
0, 0
0, 0
0, 0
0, 0
0, 0
0, 0
0, 0
0, 0
0, 0
0, 0
0, 0
0, 0
0, 0
0, 0
0, 0
0, 0
0, 0
0, 0
0, 0
0, 0
0, 0
0, 0
0, 0
0, 0
0, 0
0, 0
0, 0
0, 0
0, 0
0, 0
0, 0
0, 0
0, 0
0, 0
0, 0
0, 0
1, 0
0, 0
1, 0
2, 0
1, 0
1, 0
0, 3
2, 1
0, 0
3, 1
7, 6
11, 10
27, 23
39, 35
55, 45
74, 98
89, 85
78, 77
63, 66
52, 32
27, 27
14, 11
9, 14
3, 4
3, 6
3, 2
3, 5
7, 3
7, 3
12, 6
22, 25
44, 41
92, 98
194, 184
271, 290
385, 363
446, 448
421, 435
388, 359
302, 281
193, 182
112, 125
68, 82
34, 35
20, 21
9, 9
8, 3
5, 1
0, 4
3, 2
1, 1
2, 1
1, 1
0, 1
0, 1
3, 2
2, 0
1, 0
0, 1
3, 2
4, 2
1, 1
4, 3
4, 7
3, 4
6, 2
2, 6
2, 3
1, 2
4, 5
6, 7
13, 7
18, 16
21, 22
16, 29
25, 31
28, 20
33, 24
32, 23
31, 32
18, 22
16, 24
28, 24
28, 14
32, 20
48, 14
29, 17
25, 16
26, 8
25, 3
15, 8
10, 6
8, 1
8, 6
3, 3
3, 3
0, 2
3, 0
1, 5
2, 2
4, 4
1, 4
0, 1
2, 0
3, 3
2, 1
5, 3
0, 4
3, 3
1, 1
0, 2
2, 2
3, 4
0, 10
7, 8
8, 15
9, 9
20, 17
22, 21
21, 19
13, 21
13, 18
12, 14
12, 10
6, 10
2, 8
7, 4
5, 4
6, 4
7, 3
8, 3
2, 2
9, 1
3, 5
2, 4
6, 2
4, 3
6, 4
4, 2
8, 3
7, 3
18, 2
29, 6
53, 3
79, 4
87, 1
102, 4
123, 3
138, 0
95, 2
83, 3
68, 7
51, 4
24, 7
18, 6
10, 9
14, 12
7, 14
11, 10
20, 20
15, 10
9, 9
12, 12
8, 15
11, 12
11, 9
2, 6
11, 6
6, 6
6, 3
2, 5
4, 4
4, 6
8, 3
10, 8
7, 13
6, 9
3, 11
2, 15
8, 9
8, 7
6, 13
4, 7
1, 8
7, 16
7, 9
5, 3
15, 10
10, 15
7, 11
14, 15
11, 18
11, 17
15, 18
14, 21
15, 19
14, 14
13, 21
41, 19
22, 13
31, 9
38, 12
46, 8
68, 4
77, 8
93, 10
134, 14
140, 20
157, 26
166, 39
169, 46
182, 58
168, 55
124, 58
124, 52
72, 59
63, 38
43, 21
27, 21
16, 18
23, 17
17, 18
21, 13
29, 25
46, 47
78, 96
146, 207
249, 340
481, 551
733, 966
1137, 1346
1560, 1855
1983, 2290
2336, 2517
2377, 2454
2333, 2394
2120, 2009
1674, 1551
1274, 1115
900, 736
551, 448
336, 271
179, 123
96, 75
41, 34
27, 18
18, 8
12, 13
14, 17
11, 12
18, 25
15, 15
27, 23
26, 45
47, 48
66, 87
101, 111
141, 190
202, 246
238, 292
311, 326
370, 380
303, 364
330, 340
285, 273
257, 210
183, 167
145, 95
93, 68
57, 36
42, 22
22, 17
20, 8
9, 8
10, 7
10, 5
16, 13
16, 10
8, 22
13, 13
20, 12
10, 12
10, 14
9, 9
12, 12
8, 7
2, 7
4, 3
5, 6
7, 5
2, 5
2, 6
2, 2
3, 0
2, 2
3, 3
5, 5
0, 1
2, 2
7, 3
5, 1
4, 4
5, 6
6, 5
5, 4
4, 3
1, 6
3, 3
5, 6
6, 6
5, 5
7, 7
2, 6
6, 8
5, 6
5, 6
6, 4
10, 9
4, 4
3, 6
2, 16
11, 14
8, 25
7, 15
13, 16
12, 14
14, 13
15, 5
21, 8
21, 7
22, 5
23, 8
20, 13
12, 9
21, 9
18, 12
14, 26
8, 26
8, 21
7, 25
5, 33
1, 14
3, 26
5, 18
2, 11
3, 9
2, 11
5, 7
3, 4
3, 4
1, 2
3, 4
2, 5
4, 3
4, 1
6, 4
4, 1
1, 2
0, 4
3, 4
3, 1
3, 1
8, 3
1, 0
3, 2
3, 5
2, 2
1, 1
1, 2
4, 0
4, 4
1, 3
2, 1
4, 2
2, 6
2, 9
0, 5
3, 2
6, 2
1, 1
4, 7
5, 3
6, 6
2, 1
2, 0
3, 2
5, 5
4, 4
10, 1
11, 7
16, 8
9, 18
9, 18
10, 14
9, 16
12, 19
11, 25
8, 18
6, 17
6, 24
6, 13
5, 18
4, 12
7, 11
2, 7
2, 8
4, 2
2, 7
2, 6
1, 2
1, 5
0, 4
3, 7
3, 6
5, 3
5, 7
5, 6
2, 3
2, 1
2, 3
5, 4
2, 2
2, 4
2, 1
1, 2
2, 1
9, 1
1, 3
4, 0
3, 7
2, 2
1, 2
3, 4
2, 3
1, 2
4, 1
2, 2
2, 4
2, 0
3, 2
2, 1
4, 3
3, 2
1, 2
5, 1
1, 2
4, 1
0, 2
1, 0
4, 1
3, 1
4, 5
0, 0
2, 2
6, 3
5, 2
4, 1
5, 1
1, 0
3, 1
2, 3
2, 7
4, 2
2, 1
3, 4
1, 1
4, 3
3, 2
1, 2
1, 3
1, 2
0, 4
1, 1
1, 2
0, 0
3, 1
3, 0
6, 2
3, 0
1, 3
2, 2
1, 2
3, 2
0, 6
2, 4
2, 3
1, 1
1, 2
2, 4
1, 1
2, 4
1, 1
3, 1
3, 3
2, 1
1, 4
3, 2
3, 2
4, 5
5, 3
1, 3
5, 2
7, 4
5, 5
8, 1
8, 3
6, 5
3, 1
5, 1
4, 2
3, 2
4, 2
7, 0
1, 2
2, 0
3, 3
5, 1
3, 1
3, 2
3, 2
1, 1
2, 2
1, 2
1, 1
2, 2
1, 2
2, 0
3, 2
0, 1
2, 5
1, 1
1, 3
3, 0
5, 4
2, 2
1, 3
3, 0
1, 0
3, 5
3, 0
1, 1
0, 2
4, 1
0, 3
0, 0
0, 0
1, 0
0, 1
1, 0
0, 0
2, 1
0, 0
2, 3
2, 1
1, 0
2, 1
0, 0
1, 1
2, 3
0, 1
0, 1
0, 1
0, 0
3, 1
2, 0
0, 1
2, 0
1, 1
0, 1
1, 1
2, 2
1, 2
1, 1
2, 0
1, 1
2, 1
1, 0
1, 0
1, 1
0, 0
0, 2
0, 2
4, 0
0, 1
1, 0
2, 2
0, 0
4, 2
2, 0
0, 3
1, 1
0, 1
0, 0
0, 0
1, 0
1, 1
2, 1
1, 2
0, 0
1, 0
2, 1
1, 0
0, 0
0, 1
0, 1
1, 0
1, 1
0, 0
0, 0
1, 1
0, 3
0, 0
0, 0
0, 0
0, 0
1, 1
1, 0
0, 1
0, 0
1, 1
0, 1
0, 1
0, 1
1, 0
1, 0
0, 0
0, 2
0, 2
0, 0
1, 0
0, 1
0, 3
1, 1
0, 0
0, 3
0, 1
0, 0
0, 0
0, 1
0, 0
0, 1
0, 0
0, 3
1, 0
2, 1
0, 0
1, 1
1, 1
0, 1
1, 1
0, 1
0, 0
1, 0
0, 3
0, 2
1, 1
0, 0
2, 0
0, 0
0, 1
1, 0
1, 0
0, 0
0, 1
0, 0
1, 1
0, 1
0, 0
0, 1
1, 0
1, 0
2, 0
1, 0
2, 0
0, 0
0, 0
1, 0
0, 0
1, 0
0, 0
0, 0
0, 0
0, 0
1, 1
0, 1
0, 1
1, 0
2, 0
0, 0
0, 0
1, 0
1, 0
0, 0
1, 0
0, 1
0, 1
0, 0
0, 0
0, 0
0, 0
1, 1
0, 0
0, 0
0, 1
0, 1
0, 0
0, 0
1, 0
0, 0
1, 0
0, 0
0, 0
0, 0
0, 0
0, 0
0, 0
1, 0
0, 1
0, 2
0, 0
0, 1
0, 0
0, 1
0, 0
0, 0
0, 0
1, 1
0, 0
0, 0
0, 0
0, 0
0, 0
0, 0
0, 1
0, 0
0, 0
1, 0
0, 1
0, 0
0, 0
0, 0
0, 0
0, 0
0, 2
0, 0
1, 0
1, 0
0, 0
1, 0
0, 0
0, 1
0, 0
1, 0
0, 0
1, 1
0, 1
1, 0
1, 0
0, 0
1, 0
0, 0
0, 1
0, 0
0, 0
0, 1
0, 0
0, 0
0, 0
0, 0
0, 0
0, 0
0, 0
0, 1
0, 0
0, 0
0, 0
0, 0
0, 0
0, 0
0, 0
0, 0
0, 0
0, 0
0, 0
0, 0
1, 0
0, 1
0, 0
0, 0
0, 0
0, 0
0, 1
0, 0
0, 0
0, 0
0, 0
0, 0
0, 1
0, 0
0, 0
0, 0
0, 0
0, 0
0, 1
0, 1
0, 0
0, 0
0, 1
0, 0
0, 0
0, 0
0, 0
0, 0
0, 0
0, 0
0, 1
0, 0
0, 0
1, 0
1, 0
0, 0
0, 0
0, 0
0, 0
0, 0
0, 0
1, 0
0, 0
0, 0
0, 0
2, 0
0, 1
0, 0
0, 0
0, 0
0, 0
1, 0
0, 0
0, 0
0, 0
0, 0
0, 0
0, 0
0, 0
0, 1
0, 0
0, 0
0, 0
0, 0
1, 0
0, 0
0, 0
1, 0
0, 0
0, 0
0, 0
0, 0
0, 1
0, 0
0, 0
0, 0
0, 0
0, 0
0, 0
0, 0
0, 0
0, 0
0, 0
0, 0
0, 0
0, 0
0, 0
0, 0
0, 0
0, 0
0, 0
0, 0
0, 0
0, 0
0, 0
0, 0
0, 0
0, 0
0, 0
0, 0
0, 0
0, 0
0, 0
0, 0
0, 0
0, 0
0, 0
0, 0
0, 0
0, 0
1, 0
1, 0
0, 0
0, 0
0, 0
0, 0
0, 0
0, 0
0, 0
0, 0
0, 0
0, 0
0, 0
0, 0
0, 0
0, 0
0, 0
0, 0
1, 0
0, 0
0, 0
0, 0
0, 0
0, 0
0, 0
0, 0
0, 0
1, 0
0, 0
0, 0
1, 0
0, 0
0, 0
0, 0
0, 0
0, 0
0, 0
0, 0
0, 0
0, 0
0, 0
0, 0
0, 0
0, 1
0, 0
0, 0
0, 0
0, 0
0, 0
0, 0
0, 0
0, 0
0, 0
0, 0
0, 0
0, 0
0, 0
0, 0
0, 0
0, 0
0, 0
0, 0
0, 0
0, 0
0, 0
0, 0
0, 0
0, 0
0, 0
0, 0
0, 0
0, 0
0, 0
0, 0
0, 0
0, 0
0, 0
0, 0
0, 0
0, 0
0, 0
0, 0
0, 0
0, 0
0, 0
0, 0
0, 0
0, 0
0, 0
0, 0
0, 0
0, 0
0, 0
0, 0
0, 0
0, 1
0, 0
0, 0
0, 0
0, 0
0, 0
0, 0
0, 0
0, 0
0, 0
0, 0
0, 0
0, 0
0, 0
0, 0
0, 0
0, 0
0, 0
0, 0
0, 0
0, 0
0, 0
0, 0
0, 0
0, 0
0, 0
0, 0
0, 0
0, 0
0, 0
0, 0
0, 0
0, 0
0, 0
0, 0
0, 0
0, 0
0, 0
0, 0
0, 0
0, 0
0, 0
0, 0
0, 0
0, 0
0, 0
0, 0
0, 0
0, 0
0, 0
0, 0
0, 0
0, 0
0, 0
0, 0
0, 0
0, 0
0, 0
0, 0
0, 0
0, 0
0, 0
0, 0
0, 0
0, 0
0, 0
0, 0
0, 0
0, 0
0, 0
0, 0
0, 0
0, 0
0, 0
0, 0
0, 0
0, 0
0, 0
0, 0
0, 0
0, 0
0, 0
0, 0
0, 0
0, 0
0, 0
0, 0
0, 0
0, 0
0, 0
0, 0
0, 0
0, 0
0, 0
0, 0
0, 0
0, 0
0, 0
0, 0
0, 0
0, 0
0, 0
0, 0
0, 0
0, 0
0, 0
0, 0
0, 0
0, 0
0, 0
0, 0
0, 0
0, 0
0, 0
0, 0
0, 0
0, 0
0, 0
0, 0
0, 0
0, 0
0, 0
0, 0
0, 0
0, 0
0, 0
0, 0
0, 0
0, 0
0, 0
0, 0
0, 0
0, 0
0, 0
0, 0
0, 0
0, 0
0, 0
0, 0
0, 0
0, 0
0, 0
0, 0
0, 0
0, 0
0, 0
0, 0
0, 0
0, 0
0, 0
0, 0
0, 0
0, 0
0, 0
0, 0
0, 0
0, 0
0, 0
0, 0
0, 0
0, 0
0, 0
0, 0
0, 0
0, 0
0, 0
0, 0
0, 0
0, 0
0, 0
0, 0
0, 0
0, 0
0, 0
0, 0
0, 0
0, 0
0, 0
0, 0
0, 0
0, 0
0, 0
0, 0
0, 0
0, 0
0, 0
0, 0
0, 0
0, 0
0, 0
0, 0
0, 0
0, 0
0, 0
0, 0
0, 0
0, 0
0, 0
0, 0
0, 0
0, 0
0, 0
0, 0
0, 0
0, 0
0, 0
0, 0
0, 0
0, 0
0, 0
0, 0
0, 0
0, 0
0, 0
0, 0
0, 0
0, 0
0, 0
0, 0
0, 0
0, 0
0, 0
0, 0
0, 0
0, 0
0, 0
0, 0
0, 0
0, 0
0, 0
0, 0
0, 0
0, 0
0, 0
0, 0
0, 0
0, 0
0, 0
0, 0
0, 0
0, 0
0, 0
0, 0
0, 0
0, 0
0, 0
0, 0
0, 0
0, 0
0, 0
0, 0
0, 0
0, 0
0, 0
0, 0
0, 0
0, 0
0, 0
0, 0
0, 0
0, 0
0, 0
0, 0
0, 0
0, 0
0, 0
0, 0
0, 0
0, 0
0, 0
0, 0
0, 0
0, 0
0, 0
0, 0
0, 0
0, 0
0, 0
0, 0
0, 0
0, 0
0, 0
0, 0
0, 0
0, 0
0, 0
0, 0
0, 0
0, 0
0, 0
0, 0
0, 0
0, 0
0, 0
0, 0
0, 0
0, 0
0, 0
0, 0
0, 0
0, 0
0, 0
0, 0
0, 0
0, 0
0, 0
0, 0
0, 0
0, 0
0, 0
0, 0
0, 0
0, 0
0, 0
0, 0
0, 0
0, 0
0, 0
0, 0
0, 0
0, 0
0, 0
0, 0
0, 0
0, 0
0, 0
0, 0
0, 0
0, 0
0, 0
0, 0
0, 0
0, 0
0, 0
0, 0
0, 0
0, 0
0, 0
#ENDOFDATA     end of spectrum data