File: host_upload/06-09-2024/ps_0852/dump3/ps__0852shot_2489.msa
#FORMAT      : EMSA/MAS spectral data file
#VERSION     : TC202v2.0 PIXL
#TITLE       : N/A
#DATE        :       Date in the format DD-MMM-YYYY, for example 07-JUL-2010
#TIME        :             The time of day at which the spectrum was recorded, in 24-hour format
#OWNER       : PIXL Flight Model       (PIXL will use this to indicate which instrument took the data.)
#NPOINTS     : 4096     Number of data points in the spectrum (This can be zero for configuration only files)
#NCOLUMNS    : 2     Number of data columns in the spectrum (This can be zero for configuration only files)
#XUNITS      : eV
#YUNITS      : COUNTS
#DATATYPE    : YY
#XPERCHAN    : 7.862, 7.881   eV per channel (separate by commas if more than one detector)
#OFFSET      : 18.5, -22.4         eV of first channel  (separate by commas if more than one detector
#SIGNALTYPE  : XRF
#YP_TEMP     : 2.492
#LIVETIME    : 8.55775, 8.55895   seconds (separate by commas if more than one detector)
#REALTIME    : 10, 10.0   seconds (separate by commas if more than one detector)
#SPECTRUM    : start of spectrum data
0, 0
0, 0
0, 0
0, 0
0, 0
0, 0
0, 0
0, 0
0, 0
0, 0
0, 0
0, 0
0, 0
0, 0
0, 0
0, 0
0, 0
0, 0
0, 0
0, 0
0, 0
0, 0
0, 0
0, 0
0, 0
0, 0
0, 0
0, 0
0, 0
0, 0
0, 0
0, 0
0, 0
0, 0
0, 0
0, 0
0, 0
1, 2
2, 0
2, 0
1, 1
2, 2
6, 3
2, 2
2, 2
0, 1
0, 3
3, 4
6, 7
11, 12
22, 26
38, 41
63, 58
58, 63
78, 65
71, 63
53, 65
37, 36
34, 25
9, 18
5, 5
5, 3
2, 2
6, 6
3, 6
6, 5
5, 11
10, 5
16, 22
45, 55
76, 119
149, 136
266, 282
329, 364
410, 423
389, 435
324, 380
270, 292
169, 199
113, 117
65, 56
38, 31
13, 10
12, 17
3, 7
0, 5
3, 2
5, 7
4, 1
5, 3
3, 1
3, 3
5, 1
6, 8
10, 8
18, 12
22, 28
38, 29
35, 38
49, 38
36, 46
27, 22
13, 9
20, 14
6, 11
12, 14
5, 6
8, 10
10, 7
31, 19
48, 29
81, 32
116, 41
131, 48
152, 51
160, 66
142, 42
116, 25
120, 34
66, 27
53, 23
43, 19
33, 18
26, 21
31, 13
32, 18
26, 12
23, 11
6, 14
9, 5
10, 6
2, 4
4, 8
1, 4
3, 2
3, 1
0, 0
3, 3
4, 1
3, 4
1, 2
2, 1
5, 2
1, 3
3, 1
3, 1
1, 3
1, 2
2, 2
4, 1
3, 6
6, 2
12, 13
18, 17
16, 15
20, 30
31, 29
36, 27
30, 29
30, 31
22, 23
20, 13
16, 12
8, 7
6, 3
4, 3
5, 4
4, 5
9, 5
3, 7
10, 7
6, 6
10, 10
6, 4
7, 4
4, 3
4, 2
7, 3
3, 3
9, 2
5, 4
3, 5
5, 1
5, 6
3, 4
5, 5
2, 2
7, 8
5, 5
6, 7
13, 6
10, 11
12, 15
12, 7
22, 10
22, 15
16, 8
22, 23
21, 14
15, 14
20, 8
15, 13
9, 7
13, 8
5, 5
7, 2
3, 11
6, 6
4, 7
7, 4
6, 3
3, 7
4, 3
2, 7
5, 5
4, 6
2, 3
2, 11
4, 3
3, 6
5, 9
9, 8
9, 5
6, 7
3, 7
4, 11
7, 8
12, 11
10, 9
18, 20
14, 18
16, 18
10, 12
5, 13
13, 10
14, 16
7, 5
6, 7
6, 7
7, 4
10, 9
11, 6
9, 9
9, 14
14, 10
17, 25
21, 29
33, 49
37, 65
54, 62
62, 79
57, 71
56, 61
51, 47
43, 35
32, 35
31, 23
16, 24
19, 16
20, 23
13, 28
27, 38
38, 50
65, 112
139, 216
253, 353
422, 594
710, 931
1141, 1449
1514, 1807
1890, 2291
2175, 2555
2380, 2480
2334, 2426
2043, 2025
1654, 1633
1188, 1183
841, 768
591, 430
336, 278
184, 143
95, 74
45, 43
23, 26
23, 20
14, 8
13, 14
14, 16
15, 21
21, 25
11, 38
24, 33
44, 53
73, 74
101, 139
128, 179
194, 242
244, 300
314, 377
342, 412
340, 415
358, 310
311, 317
240, 230
186, 145
141, 109
91, 50
56, 48
25, 27
22, 17
13, 4
9, 11
11, 13
2, 12
13, 17
10, 13
9, 17
9, 10
18, 22
12, 21
11, 10
12, 7
4, 6
6, 9
9, 4
1, 4
1, 3
3, 2
2, 4
5, 6
4, 4
6, 5
3, 4
2, 3
3, 2
6, 3
4, 1
3, 7
2, 4
4, 6
5, 5
5, 1
2, 2
6, 3
3, 8
6, 9
4, 5
5, 7
6, 4
9, 4
6, 5
0, 5
10, 4
8, 8
3, 2
2, 7
2, 5
6, 6
1, 5
2, 4
8, 2
2, 6
3, 3
5, 6
5, 7
4, 4
3, 4
5, 9
4, 9
8, 11
8, 6
6, 8
4, 8
8, 11
4, 8
7, 2
4, 4
7, 8
2, 4
3, 5
4, 1
1, 3
2, 2
1, 3
6, 3
6, 4
1, 2
5, 6
2, 2
2, 6
1, 3
2, 6
4, 4
2, 1
2, 2
1, 2
3, 7
5, 1
0, 3
7, 3
2, 2
2, 7
2, 1
1, 4
4, 4
2, 7
3, 3
3, 3
1, 0
0, 1
1, 5
2, 4
4, 1
2, 1
5, 2
3, 2
2, 6
5, 3
12, 6
7, 9
11, 2
21, 0
24, 1
21, 4
30, 3
35, 7
51, 3
23, 2
25, 2
23, 4
23, 5
15, 8
21, 4
6, 5
1, 0
2, 3
1, 5
3, 5
3, 1
0, 1
2, 1
3, 3
3, 2
3, 2
3, 5
4, 4
6, 11
4, 1
1, 3
2, 11
2, 3
4, 4
3, 3
2, 2
0, 4
1, 1
4, 4
3, 2
2, 5
2, 2
2, 1
3, 1
0, 1
3, 1
2, 6
2, 2
3, 2
2, 1
2, 1
2, 1
2, 5
3, 1
3, 5
1, 2
2, 0
3, 3
1, 4
5, 2
2, 5
1, 3
4, 4
4, 3
5, 2
7, 2
7, 5
4, 1
5, 3
10, 2
7, 4
6, 3
8, 4
6, 2
9, 1
4, 1
2, 1
3, 4
2, 0
4, 1
5, 2
2, 2
0, 2
3, 4
1, 3
4, 1
1, 0
2, 1
2, 3
3, 3
1, 2
0, 2
2, 4
1, 2
2, 2
2, 1
1, 8
0, 1
3, 4
2, 0
1, 1
1, 4
3, 2
2, 4
1, 3
1, 1
1, 2
2, 4
2, 7
0, 2
1, 3
1, 2
0, 0
0, 2
1, 1
2, 3
0, 0
3, 2
5, 3
3, 4
3, 5
2, 3
3, 4
3, 3
3, 3
1, 2
0, 3
4, 4
1, 2
3, 3
0, 1
3, 0
3, 3
1, 1
2, 0
0, 2
1, 0
2, 1
0, 1
0, 3
2, 0
1, 3
1, 2
2, 0
2, 0
3, 3
2, 3
3, 1
2, 0
1, 2
3, 2
1, 3
4, 0
3, 2
1, 1
6, 2
0, 0
1, 1
2, 1
2, 1
3, 1
1, 2
1, 2
2, 2
2, 1
1, 2
2, 1
0, 1
2, 0
2, 1
1, 2
0, 1
1, 0
6, 0
0, 2
2, 3
0, 1
0, 1
1, 0
0, 1
1, 2
0, 2
2, 0
1, 3
0, 0
2, 0
2, 1
0, 0
3, 1
0, 0
1, 3
1, 1
0, 1
1, 0
1, 1
0, 3
0, 0
1, 1
0, 0
1, 1
2, 1
0, 1
2, 1
3, 0
0, 0
0, 2
3, 1
1, 1
0, 2
2, 0
1, 0
0, 0
0, 1
0, 0
0, 3
1, 1
1, 1
0, 0
0, 1
0, 1
2, 1
1, 3
0, 1
0, 4
0, 0
0, 0
0, 0
1, 0
1, 3
0, 1
0, 2
0, 0
0, 0
1, 1
1, 0
0, 2
0, 1
1, 2
0, 0
0, 0
0, 0
2, 0
1, 2
1, 0
0, 3
0, 0
2, 0
0, 1
0, 0
1, 1
0, 0
1, 0
0, 0
0, 0
0, 0
0, 2
0, 1
0, 2
0, 2
0, 0
0, 0
0, 0
0, 2
1, 2
0, 1
0, 0
1, 0
0, 0
1, 1
1, 0
1, 0
1, 0
0, 0
1, 0
0, 1
0, 0
0, 2
1, 0
0, 1
1, 0
0, 2
0, 0
0, 0
1, 0
0, 0
2, 0
1, 0
1, 1
0, 0
0, 2
0, 0
0, 0
0, 0
0, 1
0, 0
0, 1
0, 1
0, 0
0, 2
1, 0
0, 2
0, 0
1, 0
0, 1
0, 0
1, 0
0, 0
1, 1
0, 1
0, 1
0, 0
1, 2
0, 1
1, 0
0, 0
0, 0
0, 0
0, 2
0, 0
0, 0
0, 0
1, 1
0, 0
1, 0
0, 0
1, 0
0, 0
0, 0
1, 0
0, 1
3, 0
0, 0
0, 0
1, 0
0, 0
0, 0
1, 0
0, 0
0, 0
0, 0
0, 0
1, 0
0, 0
0, 0
0, 0
1, 0
0, 0
0, 0
0, 0
1, 0
0, 1
0, 0
0, 0
0, 0
0, 1
0, 1
0, 0
0, 0
0, 0
0, 1
0, 1
0, 0
0, 0
0, 0
1, 1
0, 2
0, 0
0, 0
0, 1
0, 2
1, 1
0, 0
0, 0
0, 1
0, 0
0, 2
0, 0
0, 0
1, 0
0, 0
1, 1
1, 0
0, 0
0, 1
0, 0
0, 2
0, 0
0, 0
1, 1
0, 0
0, 0
0, 0
0, 0
0, 0
0, 0
1, 0
0, 0
0, 0
0, 0
0, 0
0, 0
0, 0
0, 1
0, 0
0, 0
0, 0
0, 0
0, 0
0, 0
0, 0
0, 0
0, 0
1, 1
0, 0
0, 0
0, 0
0, 0
0, 0
0, 0
0, 0
1, 0
0, 0
0, 0
0, 0
0, 0
0, 0
0, 0
0, 0
1, 0
0, 0
0, 0
0, 1
0, 0
0, 0
0, 0
0, 0
2, 0
0, 1
1, 0
1, 0
0, 0
0, 0
0, 0
1, 0
0, 0
0, 0
0, 0
0, 0
0, 0
0, 0
0, 1
0, 0
0, 0
0, 0
0, 0
0, 0
0, 0
0, 0
0, 0
0, 0
0, 0
0, 0
0, 0
0, 0
0, 0
0, 0
0, 0
0, 0
0, 0
1, 0
0, 0
0, 0
0, 1
0, 0
0, 0
0, 1
0, 0
0, 0
1, 0
0, 0
0, 0
0, 0
0, 0
0, 0
0, 0
0, 0
0, 0
0, 0
0, 0
0, 0
0, 0
1, 0
0, 0
0, 0
0, 0
0, 0
0, 0
0, 0
0, 0
0, 0
0, 0
0, 0
0, 0
0, 0
0, 0
0, 0
0, 0
0, 0
0, 0
0, 0
0, 0
0, 0
0, 0
0, 0
0, 0
0, 0
0, 0
0, 0
0, 0
0, 0
1, 1
0, 0
0, 0
0, 0
0, 0
0, 0
0, 0
0, 0
0, 0
0, 0
0, 0
0, 0
0, 0
0, 0
0, 0
0, 0
0, 0
0, 0
0, 0
0, 0
0, 0
0, 0
0, 0
0, 0
0, 0
0, 0
0, 0
0, 0
0, 0
0, 0
0, 0
0, 0
0, 0
0, 0
0, 0
0, 0
0, 0
0, 0
0, 0
0, 0
0, 0
0, 0
0, 0
0, 0
0, 0
0, 0
0, 0
0, 0
0, 0
0, 0
0, 0
0, 0
0, 0
0, 0
0, 0
0, 0
0, 0
0, 0
0, 0
0, 0
0, 0
0, 0
0, 0
0, 0
0, 0
0, 0
0, 0
0, 0
0, 0
0, 0
0, 0
0, 0
0, 0
0, 0
0, 0
0, 0
0, 0
0, 0
0, 0
0, 0
0, 0
0, 0
0, 0
0, 0
0, 0
0, 0
0, 0
0, 0
0, 0
0, 0
0, 0
0, 0
0, 0
0, 0
0, 0
0, 0
0, 0
0, 0
0, 0
0, 0
0, 0
0, 0
0, 0
0, 0
0, 0
0, 0
0, 0
0, 0
0, 0
0, 0
0, 0
0, 0
0, 0
0, 0
0, 0
0, 0
0, 0
0, 0
0, 0
0, 0
0, 0
0, 0
0, 0
0, 0
0, 0
0, 0
0, 0
0, 0
0, 0
0, 0
0, 0
0, 0
0, 0
0, 0
0, 0
0, 0
0, 0
0, 0
0, 0
0, 0
0, 0
0, 0
0, 0
0, 0
0, 0
0, 0
0, 0
0, 0
0, 0
0, 0
0, 0
0, 0
0, 0
0, 0
0, 0
0, 0
0, 0
0, 0
0, 0
0, 0
0, 0
0, 0
0, 0
0, 0
0, 0
0, 0
0, 0
0, 0
0, 0
0, 0
0, 0
0, 0
0, 0
0, 0
0, 0
0, 0
0, 0
0, 0
0, 0
0, 0
0, 0
0, 0
0, 0
0, 0
0, 0
0, 0
0, 0
0, 0
0, 0
0, 0
0, 0
0, 0
0, 0
0, 0
0, 0
0, 0
0, 0
0, 0
0, 0
0, 0
0, 0
0, 0
0, 0
0, 0
0, 0
0, 0
0, 0
0, 0
0, 0
0, 0
0, 0
0, 0
0, 0
0, 0
0, 0
0, 0
0, 0
0, 0
0, 0
0, 0
0, 0
0, 0
0, 0
0, 0
0, 0
0, 0
0, 0
0, 0
0, 0
0, 0
0, 0
0, 0
0, 0
0, 0
0, 0
0, 0
0, 0
0, 0
0, 0
0, 0
0, 0
0, 0
0, 0
0, 0
0, 0
0, 0
0, 0
0, 0
0, 0
0, 0
0, 0
0, 0
0, 0
0, 0
0, 0
0, 0
0, 0
0, 0
0, 0
0, 0
0, 0
0, 0
0, 0
0, 0
0, 0
0, 0
0, 0
0, 0
0, 0
0, 0
0, 0
0, 0
0, 0
0, 0
0, 0
0, 0
0, 0
0, 0
0, 0
0, 0
0, 0
0, 0
0, 0
0, 0
0, 0
0, 0
0, 0
0, 0
0, 0
0, 0
0, 0
0, 0
0, 0
0, 0
0, 0
0, 0
0, 0
0, 0
0, 0
0, 0
0, 0
0, 0
0, 0
0, 0
0, 0
0, 0
0, 0
0, 0
0, 0
0, 0
0, 0
0, 0
0, 0
0, 0
0, 0
0, 0
0, 0
0, 0
0, 0
0, 0
0, 0
0, 0
0, 0
0, 0
0, 0
0, 0
0, 0
0, 0
0, 0
0, 0
0, 0
0, 0
0, 0
0, 0
0, 0
0, 0
0, 0
0, 0
0, 0
0, 0
0, 0
0, 0
0, 0
0, 0
0, 0
0, 0
0, 0
0, 0
0, 0
0, 0
0, 0
0, 0
0, 0
0, 0
0, 0
0, 0
0, 0
0, 0
0, 0
0, 0
0, 0
0, 0
0, 0
0, 0
0, 0
0, 0
0, 0
0, 0
0, 0
0, 0
0, 0
0, 0
0, 0
0, 0
0, 0
0, 0
0, 0
0, 0
0, 0
0, 0
0, 0
0, 0
0, 0
0, 0
0, 0
0, 0
0, 0
0, 0
0, 0
0, 0
0, 0
0, 0
0, 0
0, 0
0, 0
0, 0
0, 0
0, 0
0, 0
0, 0
0, 0
0, 0
0, 0
0, 0
0, 0
0, 0
0, 0
0, 0
0, 0
0, 0
0, 0
0, 0
0, 0
0, 0
0, 0
0, 0
0, 0
0, 0
0, 0
0, 0
0, 0
0, 0
0, 0
0, 0
0, 0
0, 0
0, 0
0, 0
#ENDOFDATA     end of spectrum data