File: host_upload/06-09-2024/ps_0852/dump3/ps__0852shot_2415.msa
#FORMAT      : EMSA/MAS spectral data file
#VERSION     : TC202v2.0 PIXL
#TITLE       : N/A
#DATE        :       Date in the format DD-MMM-YYYY, for example 07-JUL-2010
#TIME        :             The time of day at which the spectrum was recorded, in 24-hour format
#OWNER       : PIXL Flight Model       (PIXL will use this to indicate which instrument took the data.)
#NPOINTS     : 4096     Number of data points in the spectrum (This can be zero for configuration only files)
#NCOLUMNS    : 2     Number of data columns in the spectrum (This can be zero for configuration only files)
#XUNITS      : eV
#YUNITS      : COUNTS
#DATATYPE    : YY
#XPERCHAN    : 7.862, 7.881   eV per channel (separate by commas if more than one detector)
#OFFSET      : 18.5, -22.4         eV of first channel  (separate by commas if more than one detector
#SIGNALTYPE  : XRF
#YP_TEMP     : 2.556
#LIVETIME    : 8.56563, 8.53347   seconds (separate by commas if more than one detector)
#REALTIME    : 10, 10.0   seconds (separate by commas if more than one detector)
#SPECTRUM    : start of spectrum data
0, 0
0, 0
0, 0
0, 0
0, 0
0, 0
0, 0
0, 0
0, 0
0, 0
0, 0
0, 0
0, 0
0, 0
0, 0
0, 0
0, 0
0, 0
0, 0
0, 0
0, 0
0, 0
0, 0
0, 0
0, 0
0, 0
0, 0
0, 0
0, 0
0, 0
0, 0
0, 0
0, 0
1, 0
0, 0
1, 1
0, 0
1, 0
1, 0
0, 0
1, 1
1, 0
0, 2
1, 0
0, 1
3, 1
2, 1
4, 1
9, 5
12, 5
12, 21
47, 34
66, 54
85, 60
99, 81
89, 78
73, 44
39, 42
23, 32
15, 11
4, 7
6, 3
5, 3
3, 1
4, 2
6, 3
2, 7
6, 6
16, 20
47, 38
98, 92
183, 169
310, 267
374, 362
446, 425
415, 453
379, 359
301, 268
220, 206
118, 117
68, 64
37, 24
16, 20
9, 6
2, 4
5, 1
1, 3
0, 0
2, 2
0, 0
1, 0
3, 1
1, 1
1, 2
2, 3
1, 3
3, 2
2, 0
3, 2
1, 2
5, 5
4, 3
6, 4
3, 0
2, 2
2, 4
4, 5
6, 0
8, 5
10, 6
13, 16
19, 18
24, 24
33, 24
34, 32
32, 44
32, 36
32, 38
36, 24
21, 22
19, 24
25, 14
29, 12
24, 25
14, 19
21, 10
25, 5
20, 14
9, 10
7, 7
8, 6
3, 5
2, 1
2, 2
6, 5
1, 0
4, 3
1, 1
2, 0
4, 1
2, 4
2, 2
0, 2
1, 0
4, 3
3, 1
2, 0
0, 3
0, 1
1, 2
3, 3
8, 1
7, 4
9, 11
11, 11
15, 10
13, 21
14, 19
15, 10
11, 12
10, 16
9, 12
6, 7
1, 5
5, 1
2, 4
3, 1
5, 1
4, 4
8, 5
4, 6
6, 8
6, 5
6, 2
6, 5
7, 1
7, 1
5, 0
13, 1
16, 1
27, 1
28, 3
29, 5
52, 0
53, 4
67, 3
61, 1
62, 3
50, 11
36, 3
23, 5
23, 3
10, 9
13, 5
17, 9
10, 19
11, 20
19, 12
11, 15
14, 16
12, 8
6, 9
5, 14
6, 5
5, 6
4, 8
7, 7
6, 8
6, 6
3, 2
10, 8
3, 11
2, 12
1, 9
1, 11
2, 17
4, 19
1, 23
5, 16
6, 10
1, 16
4, 8
4, 8
7, 11
3, 12
5, 7
6, 13
13, 12
13, 16
13, 20
12, 21
14, 33
19, 18
19, 20
27, 8
31, 10
35, 12
38, 6
40, 10
53, 6
58, 6
57, 18
66, 13
87, 9
93, 13
107, 20
103, 34
103, 43
137, 45
125, 69
122, 67
117, 51
97, 55
80, 43
58, 36
53, 22
34, 17
26, 20
22, 12
17, 14
20, 21
23, 32
36, 54
71, 78
136, 188
293, 342
486, 573
803, 870
1155, 1298
1609, 1755
1986, 2013
2240, 2313
2433, 2248
2375, 2167
2143, 1871
1778, 1385
1320, 1046
929, 786
658, 403
362, 229
202, 134
84, 83
50, 42
36, 41
20, 33
13, 35
15, 42
11, 51
15, 41
17, 41
13, 60
22, 53
41, 71
65, 78
113, 144
157, 170
209, 235
293, 289
322, 328
372, 323
332, 305
357, 324
354, 279
288, 205
177, 154
140, 109
96, 62
52, 38
34, 33
19, 16
25, 9
17, 5
16, 9
10, 13
10, 13
9, 13
17, 8
12, 11
11, 11
14, 7
6, 14
9, 10
7, 7
7, 6
5, 6
4, 1
5, 8
5, 2
4, 2
3, 1
4, 3
5, 4
5, 4
1, 0
2, 2
4, 1
2, 1
2, 3
9, 1
7, 1
4, 1
8, 2
3, 1
1, 4
6, 3
12, 6
6, 9
2, 4
8, 4
10, 4
11, 4
4, 10
3, 9
4, 5
6, 5
7, 14
7, 15
4, 18
3, 18
6, 20
11, 23
11, 27
8, 21
13, 20
13, 17
13, 12
15, 10
17, 11
14, 4
15, 3
15, 8
18, 6
20, 11
7, 9
10, 13
12, 17
6, 16
4, 18
3, 11
5, 6
2, 19
2, 7
2, 6
3, 8
6, 7
3, 3
4, 2
3, 6
2, 3
2, 1
4, 1
7, 2
2, 4
2, 0
4, 5
4, 3
3, 1
7, 2
1, 4
3, 4
6, 0
0, 3
1, 1
2, 1
2, 3
4, 3
5, 5
0, 5
1, 7
3, 4
2, 2
2, 3
3, 3
0, 5
3, 3
3, 3
2, 6
5, 4
4, 8
3, 4
4, 9
4, 5
8, 5
11, 3
10, 3
8, 6
5, 4
8, 5
4, 5
11, 12
9, 14
9, 13
10, 18
14, 18
9, 14
8, 12
3, 13
9, 13
5, 13
2, 5
1, 11
4, 5
2, 6
2, 2
5, 3
2, 2
2, 2
0, 4
3, 2
1, 4
3, 1
4, 4
4, 2
5, 0
4, 3
2, 3
4, 3
2, 0
1, 1
2, 6
1, 1
3, 0
2, 5
1, 3
5, 3
6, 4
3, 4
4, 4
3, 2
1, 2
2, 2
5, 1
2, 0
3, 3
3, 4
1, 3
7, 1
3, 0
4, 1
7, 4
9, 1
4, 2
2, 2
5, 2
1, 2
5, 2
5, 1
10, 2
4, 3
1, 1
2, 0
5, 2
3, 2
2, 1
1, 2
4, 3
0, 4
1, 2
4, 1
1, 3
3, 3
3, 3
1, 2
2, 1
0, 4
0, 3
1, 4
1, 3
0, 4
3, 2
2, 2
0, 1
1, 1
4, 1
2, 1
1, 1
3, 1
0, 2
1, 1
0, 1
3, 2
1, 2
3, 3
2, 0
1, 0
3, 2
2, 4
5, 1
0, 1
4, 1
2, 3
2, 2
2, 2
1, 1
3, 1
4, 1
1, 1
4, 3
3, 3
1, 1
7, 2
3, 2
11, 7
5, 2
4, 6
2, 1
3, 3
1, 0
2, 4
3, 1
2, 2
2, 0
6, 1
3, 1
1, 1
3, 0
4, 1
3, 2
1, 1
1, 3
5, 1
2, 0
1, 1
1, 0
1, 1
4, 0
1, 1
1, 2
3, 2
1, 2
4, 4
2, 5
4, 0
6, 2
2, 2
1, 1
1, 0
0, 0
1, 0
2, 0
1, 0
1, 1
2, 1
0, 4
2, 0
0, 1
2, 1
0, 1
0, 2
1, 2
1, 4
1, 1
0, 1
1, 3
0, 5
0, 0
3, 1
1, 2
1, 1
1, 0
4, 2
2, 2
1, 0
2, 3
2, 1
1, 1
0, 1
0, 1
5, 0
1, 1
2, 2
1, 0
1, 0
1, 0
0, 1
0, 1
0, 1
2, 1
0, 1
0, 0
1, 2
1, 1
1, 1
0, 0
0, 1
1, 0
1, 1
1, 0
0, 1
2, 1
0, 1
1, 2
2, 0
0, 0
1, 1
2, 0
0, 0
1, 1
0, 0
1, 0
0, 1
1, 1
0, 2
0, 1
1, 0
1, 0
0, 0
0, 0
0, 2
0, 0
1, 0
0, 2
0, 1
1, 0
0, 0
0, 0
1, 1
1, 0
2, 0
0, 0
1, 0
0, 1
1, 0
0, 0
1, 1
1, 0
0, 1
0, 0
1, 0
0, 0
1, 1
0, 1
0, 2
0, 1
0, 0
0, 1
2, 1
1, 0
1, 2
1, 2
0, 0
0, 0
2, 0
2, 0
1, 1
1, 0
0, 0
0, 1
1, 0
0, 0
1, 0
0, 0
0, 0
0, 0
1, 0
0, 0
0, 0
1, 0
0, 0
0, 0
0, 1
0, 0
0, 0
0, 0
2, 0
0, 2
0, 0
1, 0
1, 0
0, 2
0, 0
2, 0
0, 2
1, 1
1, 1
0, 0
0, 0
0, 1
3, 0
0, 1
0, 0
0, 0
0, 0
0, 1
0, 0
1, 0
0, 0
1, 0
1, 0
0, 0
0, 0
0, 0
0, 0
0, 0
0, 0
0, 1
0, 0
0, 0
0, 0
0, 1
0, 0
1, 1
0, 1
0, 1
0, 0
0, 0
0, 0
0, 0
0, 0
0, 1
0, 1
1, 1
0, 0
0, 0
0, 0
0, 0
0, 0
0, 1
0, 0
0, 0
1, 0
0, 0
0, 0
0, 0
0, 0
0, 0
0, 0
0, 0
0, 0
0, 0
1, 1
0, 0
0, 0
0, 0
0, 0
0, 0
0, 0
0, 1
0, 0
0, 1
0, 0
0, 0
0, 0
1, 0
0, 0
1, 0
0, 0
1, 0
0, 0
0, 1
0, 1
0, 0
0, 0
0, 0
0, 0
0, 0
0, 0
0, 1
0, 0
1, 1
2, 1
1, 0
0, 0
0, 0
0, 0
0, 0
2, 1
0, 0
0, 0
0, 0
0, 0
0, 0
0, 0
1, 0
0, 0
0, 0
0, 0
0, 0
0, 0
0, 0
0, 0
1, 1
0, 1
1, 0
0, 0
0, 1
0, 0
0, 0
0, 0
0, 1
0, 1
0, 0
0, 1
0, 0
0, 0
0, 0
0, 0
0, 0
0, 0
0, 0
0, 0
1, 1
0, 0
0, 0
1, 0
0, 0
0, 0
0, 0
0, 0
1, 0
0, 0
0, 0
1, 0
0, 1
0, 0
0, 0
0, 0
0, 1
1, 0
0, 0
0, 0
0, 0
0, 0
0, 1
0, 0
0, 0
0, 0
0, 0
0, 0
0, 0
0, 0
0, 0
0, 0
0, 0
0, 0
0, 0
0, 0
1, 0
0, 0
0, 1
0, 0
0, 0
0, 0
0, 0
0, 0
0, 0
0, 0
0, 0
0, 0
0, 0
0, 0
0, 0
0, 0
0, 0
0, 0
0, 0
0, 0
0, 1
0, 0
1, 0
0, 0
0, 0
0, 0
0, 0
0, 0
0, 0
0, 0
0, 0
0, 0
0, 0
0, 0
0, 0
0, 0
0, 0
0, 0
0, 0
0, 0
0, 0
0, 0
0, 0
0, 0
0, 0
0, 0
0, 0
0, 0
0, 0
1, 0
0, 0
0, 0
0, 0
0, 0
0, 0
0, 0
0, 0
0, 0
0, 0
0, 0
0, 0
0, 0
0, 0
0, 0
0, 0
0, 0
0, 0
0, 0
0, 0
0, 0
0, 0
0, 0
0, 0
0, 0
0, 0
0, 0
0, 0
0, 0
0, 0
0, 0
0, 0
0, 0
0, 0
0, 0
0, 0
0, 0
0, 0
0, 0
0, 0
0, 0
0, 1
0, 0
0, 0
0, 0
0, 0
0, 0
0, 0
0, 0
0, 0
0, 0
0, 0
0, 0
0, 0
0, 0
0, 0
0, 0
0, 1
0, 0
0, 0
0, 0
0, 0
0, 0
0, 0
0, 0
0, 0
0, 0
0, 0
0, 0
0, 0
0, 0
0, 0
0, 0
0, 0
0, 0
0, 0
0, 0
0, 0
0, 0
0, 0
0, 0
0, 0
0, 0
0, 0
0, 0
0, 0
0, 0
0, 0
0, 0
0, 0
0, 0
0, 0
0, 0
0, 0
0, 0
0, 1
0, 0
0, 0
1, 0
0, 0
0, 0
0, 0
0, 0
0, 0
0, 0
0, 0
0, 0
0, 0
0, 0
0, 0
0, 0
0, 0
0, 0
0, 0
0, 0
0, 0
0, 0
0, 0
0, 0
0, 0
0, 0
0, 0
0, 0
0, 0
0, 0
0, 0
0, 0
0, 0
0, 0
0, 0
0, 0
0, 0
0, 0
0, 0
0, 0
0, 0
0, 0
0, 0
0, 0
0, 0
0, 0
0, 0
0, 0
0, 0
0, 0
0, 0
0, 0
0, 0
0, 0
0, 0
0, 0
0, 0
0, 0
0, 0
0, 0
0, 0
0, 0
0, 0
0, 0
0, 0
0, 0
0, 0
0, 0
0, 0
0, 0
0, 0
0, 0
0, 0
0, 0
0, 0
0, 0
0, 0
0, 0
0, 0
0, 0
0, 0
0, 0
0, 0
0, 0
0, 0
0, 0
0, 0
0, 0
0, 0
0, 0
0, 0
0, 0
0, 0
0, 0
0, 0
0, 0
0, 0
0, 0
0, 0
0, 0
0, 0
0, 0
0, 0
0, 0
0, 0
0, 0
0, 0
0, 0
0, 0
0, 0
0, 0
0, 0
0, 0
0, 0
0, 0
0, 0
0, 0
0, 0
0, 0
0, 0
0, 0
0, 0
0, 0
0, 0
0, 0
0, 0
0, 0
0, 0
0, 0
0, 0
0, 0
0, 0
0, 0
0, 0
0, 0
0, 0
0, 0
0, 0
0, 0
0, 0
0, 0
0, 0
0, 0
0, 0
0, 0
0, 0
0, 0
0, 0
0, 0
0, 0
0, 0
0, 0
0, 0
0, 0
0, 0
0, 0
0, 0
0, 0
0, 0
0, 0
0, 0
0, 0
0, 0
0, 0
0, 0
0, 0
0, 0
0, 0
0, 0
0, 0
0, 0
0, 0
0, 0
0, 0
0, 0
0, 0
0, 0
0, 0
0, 0
0, 0
0, 0
0, 0
0, 0
0, 0
0, 0
0, 0
0, 0
0, 0
0, 0
0, 0
0, 0
0, 0
0, 0
0, 0
0, 0
0, 0
0, 0
0, 0
0, 0
0, 0
0, 0
0, 0
0, 0
0, 0
0, 0
0, 0
0, 0
0, 0
0, 0
0, 0
0, 0
0, 0
0, 0
0, 0
0, 0
0, 0
0, 0
0, 0
0, 0
0, 0
0, 0
0, 0
0, 0
0, 0
0, 0
0, 0
0, 0
0, 0
0, 0
0, 0
0, 0
0, 0
0, 0
0, 0
0, 0
0, 0
0, 0
0, 0
0, 0
0, 0
0, 0
0, 0
0, 0
0, 0
0, 0
0, 0
0, 0
0, 0
0, 0
0, 0
0, 0
0, 0
0, 0
0, 0
0, 0
0, 0
0, 0
0, 0
0, 0
0, 0
0, 0
0, 0
0, 0
0, 0
0, 0
0, 0
0, 0
0, 0
0, 0
0, 0
0, 0
0, 0
0, 0
0, 0
0, 0
0, 0
0, 0
0, 0
0, 0
0, 0
0, 0
0, 0
0, 0
0, 0
0, 0
0, 0
0, 0
0, 0
0, 0
0, 0
0, 0
0, 0
0, 0
0, 0
0, 0
0, 0
0, 0
0, 0
0, 0
0, 0
0, 0
0, 0
0, 0
0, 0
0, 0
0, 0
0, 0
0, 0
0, 0
0, 0
0, 0
0, 0
0, 0
0, 0
0, 0
0, 0
0, 0
0, 0
0, 0
0, 0
0, 0
0, 0
0, 0
0, 0
0, 0
0, 0
0, 0
0, 0
0, 0
0, 0
0, 0
0, 0
0, 0
0, 0
0, 0
0, 0
0, 0
0, 0
0, 0
0, 0
0, 0
0, 0
0, 0
0, 0
0, 0
#ENDOFDATA     end of spectrum data