File: host_upload/06-09-2024/ps_0852/dump3/ps__0852shot_2269.msa
#FORMAT      : EMSA/MAS spectral data file
#VERSION     : TC202v2.0 PIXL
#TITLE       : N/A
#DATE        :       Date in the format DD-MMM-YYYY, for example 07-JUL-2010
#TIME        :             The time of day at which the spectrum was recorded, in 24-hour format
#OWNER       : PIXL Flight Model       (PIXL will use this to indicate which instrument took the data.)
#NPOINTS     : 4096     Number of data points in the spectrum (This can be zero for configuration only files)
#NCOLUMNS    : 2     Number of data columns in the spectrum (This can be zero for configuration only files)
#XUNITS      : eV
#YUNITS      : COUNTS
#DATATYPE    : YY
#XPERCHAN    : 7.862, 7.881   eV per channel (separate by commas if more than one detector)
#OFFSET      : 18.5, -22.4         eV of first channel  (separate by commas if more than one detector
#SIGNALTYPE  : XRF
#YP_TEMP     : 2.3
#LIVETIME    : 8.59031, 8.57379   seconds (separate by commas if more than one detector)
#REALTIME    : 10, 10.0   seconds (separate by commas if more than one detector)
#SPECTRUM    : start of spectrum data
0, 0
0, 0
0, 0
0, 0
0, 0
0, 0
0, 0
0, 0
0, 0
0, 0
0, 0
0, 0
0, 0
0, 0
0, 0
0, 0
0, 0
0, 0
0, 0
0, 0
0, 0
0, 0
0, 0
0, 0
0, 0
0, 0
0, 0
0, 0
0, 0
0, 0
0, 0
0, 0
0, 0
0, 0
0, 0
0, 2
0, 0
1, 1
0, 0
0, 3
2, 1
2, 0
1, 3
0, 2
1, 0
0, 1
1, 1
2, 1
5, 5
8, 14
21, 31
46, 38
48, 52
76, 54
88, 73
80, 79
68, 55
37, 41
26, 19
15, 12
7, 3
8, 5
3, 3
2, 2
4, 5
5, 2
4, 3
16, 13
22, 19
42, 43
105, 86
175, 154
267, 196
384, 343
421, 398
471, 397
407, 279
282, 257
209, 202
135, 97
61, 72
30, 32
31, 19
5, 2
8, 8
3, 2
1, 2
1, 1
1, 1
0, 1
1, 3
2, 2
1, 0
3, 2
2, 3
2, 2
2, 7
8, 4
6, 6
8, 3
6, 4
9, 2
4, 3
6, 2
2, 8
3, 4
5, 8
10, 5
4, 5
12, 9
18, 11
17, 27
29, 38
40, 41
41, 55
49, 44
45, 54
38, 37
38, 37
29, 28
21, 17
23, 18
20, 17
10, 13
18, 12
13, 9
12, 11
10, 15
12, 6
6, 7
4, 8
3, 6
1, 2
4, 5
1, 3
1, 10
3, 7
3, 13
3, 8
4, 11
1, 5
2, 5
0, 1
1, 4
1, 2
1, 1
1, 1
2, 3
2, 1
6, 3
4, 4
5, 4
8, 7
11, 13
8, 14
16, 14
14, 14
18, 19
15, 21
24, 14
13, 16
10, 8
12, 4
6, 5
9, 8
9, 7
3, 5
5, 3
5, 7
14, 5
3, 11
3, 3
2, 4
8, 4
4, 9
4, 10
4, 17
4, 10
4, 10
2, 28
4, 40
7, 44
4, 41
4, 17
6, 26
6, 15
4, 10
4, 8
4, 7
7, 5
3, 9
6, 9
10, 13
5, 15
12, 10
14, 8
28, 13
11, 20
15, 18
12, 22
19, 39
12, 44
10, 64
16, 69
13, 90
16, 121
18, 109
13, 98
14, 79
12, 63
10, 41
10, 30
10, 29
15, 16
12, 10
12, 4
5, 10
7, 4
8, 9
11, 1
10, 5
10, 5
19, 6
19, 8
11, 10
26, 5
27, 10
50, 9
32, 11
47, 6
33, 20
48, 9
31, 11
19, 8
17, 17
14, 9
12, 9
8, 3
10, 6
11, 10
13, 9
9, 5
13, 9
12, 7
16, 13
14, 28
32, 34
41, 45
52, 46
54, 59
57, 47
71, 66
58, 67
41, 58
52, 50
43, 19
28, 25
17, 16
22, 17
26, 14
17, 19
35, 33
59, 49
92, 105
198, 209
289, 338
466, 585
819, 959
1196, 1314
1606, 1732
1964, 2094
2364, 2318
2448, 2332
2336, 2142
2211, 1840
1755, 1408
1334, 1078
933, 720
604, 450
371, 247
214, 125
130, 79
57, 39
34, 23
24, 19
19, 16
21, 14
24, 17
15, 19
16, 16
39, 23
36, 34
61, 51
90, 80
107, 94
169, 161
204, 229
253, 289
334, 357
338, 371
390, 355
313, 332
283, 261
249, 191
194, 164
147, 84
98, 57
59, 30
39, 14
22, 12
7, 5
9, 3
17, 9
11, 9
12, 15
8, 11
8, 20
15, 7
13, 10
21, 17
17, 18
6, 14
4, 7
10, 10
6, 4
3, 4
9, 4
2, 1
4, 3
8, 0
3, 4
2, 3
4, 7
2, 5
5, 8
7, 6
4, 8
4, 9
5, 17
5, 21
2, 19
5, 26
6, 20
5, 16
3, 23
9, 21
8, 19
7, 16
12, 11
8, 11
8, 9
6, 10
6, 4
4, 6
3, 10
4, 1
3, 8
2, 3
5, 6
3, 6
7, 3
8, 3
4, 3
5, 3
3, 1
3, 3
8, 3
7, 0
2, 4
5, 1
4, 3
2, 5
2, 3
4, 3
2, 6
4, 2
3, 3
4, 3
8, 5
5, 3
2, 6
2, 8
4, 4
4, 5
4, 3
5, 7
1, 3
5, 4
3, 7
2, 2
1, 8
7, 5
3, 2
4, 2
8, 2
4, 5
6, 3
2, 4
5, 0
4, 2
5, 4
8, 2
5, 6
3, 4
1, 6
5, 4
4, 6
4, 6
4, 7
4, 3
7, 3
3, 2
2, 3
6, 6
0, 8
6, 3
5, 4
6, 4
3, 5
3, 4
5, 4
6, 1
5, 5
4, 0
6, 0
5, 3
3, 3
2, 4
2, 3
1, 3
3, 6
3, 9
3, 2
2, 3
1, 1
3, 5
0, 8
1, 11
5, 11
5, 8
2, 6
1, 7
7, 5
2, 7
2, 8
4, 4
1, 5
7, 6
3, 1
2, 4
4, 6
3, 1
3, 3
5, 2
6, 2
4, 3
5, 2
9, 1
4, 3
5, 3
5, 2
2, 2
5, 2
1, 1
4, 4
1, 3
2, 3
4, 4
4, 6
1, 2
0, 5
6, 3
3, 0
2, 4
2, 2
4, 3
2, 5
2, 2
2, 0
4, 1
2, 3
1, 1
3, 2
0, 3
2, 3
1, 1
3, 3
3, 2
1, 1
2, 5
1, 2
2, 1
6, 2
3, 1
2, 1
2, 2
0, 2
1, 3
3, 4
1, 3
2, 6
0, 3
2, 2
3, 1
2, 1
0, 4
4, 4
2, 5
1, 3
2, 5
3, 1
1, 2
7, 0
4, 1
3, 0
4, 0
0, 2
1, 0
1, 3
0, 3
4, 3
2, 1
3, 4
2, 1
3, 1
3, 2
2, 0
2, 1
2, 2
2, 1
3, 3
1, 4
0, 3
3, 2
3, 4
2, 2
2, 3
0, 1
1, 6
5, 6
6, 2
2, 4
3, 2
2, 1
2, 8
4, 2
1, 3
4, 1
0, 4
3, 2
4, 3
1, 3
2, 0
4, 2
3, 1
1, 3
2, 0
3, 1
2, 0
2, 1
1, 1
4, 1
4, 4
2, 2
5, 2
2, 3
1, 2
5, 0
4, 1
1, 1
3, 0
2, 1
3, 1
1, 3
3, 1
2, 1
2, 1
2, 0
3, 3
2, 1
1, 0
0, 0
1, 2
1, 1
2, 1
1, 2
2, 1
3, 2
2, 1
2, 2
0, 0
1, 0
0, 4
1, 2
1, 0
1, 1
2, 0
2, 2
3, 1
2, 0
0, 1
0, 3
0, 4
0, 3
0, 0
1, 0
1, 0
1, 1
0, 1
2, 1
1, 0
0, 2
0, 0
3, 1
2, 1
4, 1
1, 1
3, 2
2, 0
0, 0
0, 1
0, 1
1, 1
1, 0
1, 2
2, 0
1, 0
0, 0
1, 0
1, 0
2, 0
1, 1
1, 1
1, 2
1, 0
1, 0
1, 1
1, 0
1, 0
0, 0
0, 1
0, 0
1, 0
0, 0
0, 2
3, 0
0, 1
0, 0
0, 0
2, 2
0, 1
1, 1
0, 2
3, 1
0, 3
0, 2
0, 3
1, 0
0, 0
0, 0
0, 1
1, 3
1, 1
0, 1
1, 1
4, 2
0, 0
0, 1
1, 2
0, 1
0, 0
0, 0
1, 1
0, 1
1, 1
1, 0
0, 2
1, 0
0, 0
0, 1
0, 0
1, 0
1, 0
0, 1
1, 0
1, 1
0, 1
2, 0
0, 0
1, 1
4, 1
0, 2
0, 0
0, 0
1, 2
1, 1
1, 1
0, 0
1, 1
0, 0
1, 1
1, 0
0, 0
0, 0
0, 0
0, 0
0, 0
0, 0
1, 0
0, 0
0, 0
1, 0
1, 0
0, 0
1, 0
0, 0
0, 0
0, 1
1, 0
0, 3
0, 1
0, 0
0, 0
0, 1
0, 1
0, 0
0, 0
0, 0
1, 1
0, 0
1, 0
0, 1
0, 0
1, 0
2, 0
0, 1
1, 1
0, 0
0, 0
0, 0
2, 2
0, 1
1, 1
0, 1
0, 0
1, 0
0, 0
0, 0
0, 0
1, 2
1, 1
0, 0
1, 0
0, 1
0, 0
0, 1
0, 0
1, 0
1, 0
0, 0
1, 0
1, 0
0, 0
0, 0
0, 0
0, 0
0, 0
0, 0
0, 1
0, 1
0, 0
0, 0
0, 0
0, 0
0, 0
0, 0
1, 0
1, 0
0, 0
0, 1
0, 0
0, 0
0, 1
1, 0
0, 0
0, 0
0, 0
1, 0
0, 1
0, 0
2, 0
0, 0
0, 0
1, 0
0, 0
0, 0
0, 1
0, 0
0, 0
2, 0
0, 1
1, 0
0, 0
0, 2
0, 0
0, 0
0, 1
0, 0
0, 0
0, 1
0, 0
0, 0
0, 1
0, 0
0, 0
1, 0
0, 0
0, 0
0, 0
0, 1
0, 1
0, 1
0, 0
0, 0
0, 0
0, 0
0, 0
0, 0
0, 1
0, 0
0, 0
0, 0
2, 0
0, 0
0, 0
1, 0
0, 0
0, 0
0, 0
0, 0
0, 0
0, 0
0, 0
0, 0
0, 0
0, 1
1, 0
0, 0
0, 0
0, 0
1, 0
0, 0
1, 0
0, 1
1, 0
0, 0
0, 0
0, 1
1, 0
0, 0
0, 0
0, 0
0, 0
3, 0
0, 0
0, 0
0, 0
0, 0
0, 0
0, 0
0, 0
0, 0
0, 0
0, 0
0, 1
0, 0
0, 0
0, 0
0, 0
0, 0
0, 1
0, 0
1, 0
0, 0
0, 0
0, 0
0, 1
0, 0
0, 0
0, 0
0, 0
0, 0
0, 0
0, 0
0, 0
0, 1
0, 0
1, 0
0, 0
0, 0
0, 0
0, 0
0, 0
0, 0
0, 0
0, 1
0, 0
0, 0
0, 1
1, 0
0, 0
0, 0
0, 0
0, 0
0, 0
0, 0
0, 0
0, 0
0, 0
0, 0
0, 0
0, 0
0, 0
0, 0
0, 0
0, 0
0, 0
0, 1
0, 0
0, 0
0, 0
0, 0
0, 0
0, 0
0, 0
0, 0
0, 0
0, 0
0, 0
0, 0
1, 0
0, 0
0, 0
0, 0
0, 0
0, 0
0, 0
0, 0
0, 0
0, 0
0, 0
0, 0
0, 0
0, 0
0, 0
0, 0
0, 0
0, 0
0, 0
0, 0
0, 0
0, 0
0, 0
0, 0
0, 0
0, 0
0, 0
0, 0
0, 0
0, 1
0, 0
0, 0
0, 0
0, 0
0, 0
0, 0
0, 0
0, 0
0, 0
0, 0
0, 0
0, 0
0, 0
0, 0
0, 0
0, 0
0, 0
0, 0
0, 0
0, 0
0, 0
0, 0
0, 0
0, 0
0, 0
0, 0
0, 0
0, 0
0, 0
0, 0
0, 0
0, 0
0, 0
0, 0
0, 0
0, 0
0, 0
0, 0
0, 0
0, 0
0, 0
0, 0
0, 0
0, 0
0, 0
0, 0
0, 0
0, 0
0, 0
0, 0
0, 0
0, 0
0, 0
0, 0
0, 0
0, 0
0, 0
0, 0
0, 0
0, 0
0, 0
0, 0
0, 0
0, 0
0, 0
0, 0
0, 0
0, 0
0, 0
0, 0
0, 0
0, 0
0, 0
0, 0
0, 0
0, 0
0, 0
0, 0
0, 0
0, 0
0, 0
0, 0
0, 0
0, 0
0, 0
0, 0
0, 0
0, 0
0, 0
0, 0
0, 0
0, 0
0, 0
0, 0
0, 0
0, 0
0, 0
0, 0
0, 0
0, 0
0, 0
0, 0
0, 0
0, 0
0, 0
0, 0
0, 0
0, 0
0, 0
0, 0
0, 0
0, 0
0, 0
0, 0
0, 0
0, 0
0, 0
0, 0
0, 0
0, 0
0, 0
0, 0
0, 0
0, 0
0, 0
0, 0
0, 0
0, 0
0, 0
0, 0
0, 0
0, 0
0, 0
0, 0
0, 0
0, 0
0, 0
0, 0
0, 0
0, 0
0, 0
0, 0
0, 0
0, 0
0, 0
0, 0
0, 0
0, 0
0, 0
0, 0
0, 0
0, 0
0, 0
0, 0
0, 0
0, 0
0, 0
0, 0
0, 0
0, 0
0, 0
0, 0
0, 0
0, 0
0, 0
0, 0
0, 0
0, 0
0, 0
0, 0
0, 0
0, 0
0, 0
0, 0
0, 0
0, 0
0, 0
0, 0
0, 0
0, 0
0, 0
0, 0
0, 0
0, 0
0, 0
0, 0
0, 0
0, 0
0, 0
0, 0
0, 0
0, 0
0, 0
0, 0
0, 0
0, 0
0, 0
0, 0
0, 0
0, 0
0, 0
0, 0
0, 0
0, 0
0, 0
0, 0
0, 0
0, 0
0, 0
0, 0
0, 0
0, 0
0, 0
0, 0
0, 0
0, 0
0, 0
0, 0
0, 0
0, 0
0, 0
0, 0
0, 0
0, 0
0, 0
0, 0
0, 0
0, 0
0, 0
0, 0
0, 0
0, 0
0, 0
0, 0
0, 0
0, 0
0, 0
0, 0
0, 0
0, 0
0, 0
0, 0
0, 0
0, 0
0, 0
0, 0
0, 0
0, 0
0, 0
0, 0
0, 0
0, 0
0, 0
0, 0
0, 0
0, 0
0, 0
0, 0
0, 0
0, 0
0, 0
0, 0
0, 0
0, 0
0, 0
0, 0
0, 0
0, 0
0, 0
0, 0
0, 0
0, 0
0, 0
0, 0
0, 0
0, 0
0, 0
0, 0
0, 0
0, 0
0, 0
0, 0
0, 0
0, 0
0, 0
0, 0
0, 0
0, 0
0, 0
0, 0
0, 0
0, 0
0, 0
0, 0
0, 0
0, 0
0, 0
0, 0
0, 0
0, 0
0, 0
0, 0
0, 0
0, 0
0, 0
0, 0
0, 0
0, 0
0, 0
0, 0
0, 0
0, 0
0, 0
0, 0
0, 0
0, 0
0, 0
0, 0
0, 0
0, 0
0, 0
0, 0
0, 0
0, 0
0, 0
0, 0
0, 0
0, 0
0, 0
0, 0
0, 0
0, 0
0, 0
0, 0
0, 0
0, 0
0, 0
0, 0
0, 0
0, 0
0, 0
0, 0
0, 0
0, 0
0, 0
0, 0
0, 0
0, 0
0, 0
0, 0
0, 0
0, 0
0, 0
0, 0
0, 0
0, 0
0, 0
0, 0
0, 0
0, 0
0, 0
0, 0
0, 0
0, 0
0, 0
0, 0
0, 0
0, 0
0, 0
0, 0
0, 0
0, 0
0, 0
0, 0
0, 0
0, 0
0, 0
0, 0
0, 0
0, 0
0, 0
0, 0
0, 0
0, 0
0, 0
0, 0
0, 0
0, 0
0, 0
0, 0
0, 0
0, 0
0, 0
0, 0
0, 0
0, 0
#ENDOFDATA     end of spectrum data