File: host_upload/06-09-2024/ps_0852/dump3/ps__0852shot_2029.msa
#FORMAT      : EMSA/MAS spectral data file
#VERSION     : TC202v2.0 PIXL
#TITLE       : N/A
#DATE        :       Date in the format DD-MMM-YYYY, for example 07-JUL-2010
#TIME        :             The time of day at which the spectrum was recorded, in 24-hour format
#OWNER       : PIXL Flight Model       (PIXL will use this to indicate which instrument took the data.)
#NPOINTS     : 4096     Number of data points in the spectrum (This can be zero for configuration only files)
#NCOLUMNS    : 2     Number of data columns in the spectrum (This can be zero for configuration only files)
#XUNITS      : eV
#YUNITS      : COUNTS
#DATATYPE    : YY
#XPERCHAN    : 7.862, 7.881   eV per channel (separate by commas if more than one detector)
#OFFSET      : 18.5, -22.4         eV of first channel  (separate by commas if more than one detector
#SIGNALTYPE  : XRF
#YP_TEMP     : 2.556
#LIVETIME    : 8.57873, 8.55155   seconds (separate by commas if more than one detector)
#REALTIME    : 10, 10.0   seconds (separate by commas if more than one detector)
#SPECTRUM    : start of spectrum data
0, 0
0, 0
0, 0
0, 0
0, 0
0, 0
0, 0
0, 0
0, 0
0, 0
0, 0
0, 0
0, 0
0, 0
0, 0
0, 0
0, 0
0, 0
0, 0
0, 0
0, 0
0, 0
0, 0
0, 0
0, 0
0, 0
0, 0
0, 0
0, 0
0, 0
0, 0
0, 0
0, 0
0, 1
0, 0
1, 0
1, 1
2, 0
1, 2
2, 3
2, 3
2, 0
2, 0
2, 2
3, 0
1, 2
0, 2
3, 0
5, 7
12, 14
18, 16
31, 25
51, 50
63, 76
72, 71
64, 52
50, 48
32, 32
20, 21
11, 17
11, 9
6, 10
4, 11
7, 7
7, 8
7, 8
7, 7
13, 11
30, 18
46, 52
105, 95
137, 165
256, 278
322, 297
337, 366
381, 343
348, 342
267, 272
184, 165
104, 105
66, 68
42, 35
13, 23
12, 10
6, 9
3, 7
3, 9
4, 8
3, 3
7, 4
10, 6
12, 13
24, 28
43, 39
51, 71
115, 120
182, 148
228, 229
277, 231
250, 237
275, 239
188, 173
140, 117
98, 83
75, 64
41, 43
36, 40
37, 21
43, 25
33, 32
47, 28
34, 42
51, 54
64, 63
60, 52
58, 50
54, 58
56, 38
41, 42
41, 20
35, 27
32, 26
31, 20
18, 25
14, 21
20, 9
11, 10
13, 19
14, 10
9, 5
6, 6
2, 2
8, 7
5, 3
0, 4
8, 3
0, 8
4, 5
5, 8
5, 4
6, 10
5, 8
5, 7
1, 12
3, 6
0, 1
5, 2
6, 2
2, 2
5, 4
3, 6
15, 10
22, 27
30, 50
55, 50
61, 84
90, 99
96, 105
78, 94
82, 76
79, 59
53, 61
39, 24
30, 25
24, 15
19, 4
35, 2
47, 6
53, 9
63, 14
65, 13
45, 22
58, 22
66, 10
37, 12
48, 11
39, 9
67, 8
63, 15
62, 14
59, 15
39, 14
43, 12
19, 10
16, 13
11, 13
10, 19
16, 15
10, 26
7, 30
6, 36
9, 34
10, 48
13, 40
19, 41
14, 30
20, 29
15, 26
12, 21
9, 19
12, 16
17, 6
13, 12
6, 12
8, 7
9, 8
4, 9
8, 6
4, 4
10, 6
10, 10
6, 10
8, 4
8, 7
9, 6
16, 5
13, 7
3, 5
5, 7
4, 6
8, 7
7, 4
8, 6
4, 11
6, 8
5, 10
11, 11
12, 14
18, 14
24, 23
29, 13
13, 16
18, 26
22, 14
8, 12
17, 11
11, 9
12, 8
8, 14
8, 13
7, 27
10, 27
11, 27
13, 46
14, 52
15, 54
28, 71
31, 56
50, 71
58, 67
50, 83
62, 66
57, 72
45, 47
51, 35
29, 43
27, 27
22, 18
20, 22
15, 25
19, 26
27, 41
48, 54
78, 93
150, 194
238, 302
412, 556
726, 838
1022, 1164
1399, 1595
1696, 1965
1929, 2160
2064, 2241
2035, 2078
1861, 1763
1595, 1386
1223, 934
857, 645
528, 425
305, 259
182, 143
108, 81
47, 26
27, 36
28, 22
21, 13
21, 16
15, 16
20, 17
30, 17
30, 25
31, 28
39, 52
51, 65
95, 114
121, 159
182, 213
217, 247
239, 316
306, 357
315, 304
265, 294
261, 265
201, 208
159, 157
119, 113
72, 63
66, 38
45, 21
18, 21
12, 26
10, 20
7, 17
10, 20
4, 19
15, 26
14, 28
12, 28
15, 28
10, 27
9, 22
12, 17
7, 18
7, 14
3, 6
3, 10
5, 8
3, 8
5, 7
5, 9
7, 7
4, 12
4, 13
2, 10
6, 13
4, 13
5, 4
5, 13
5, 7
6, 8
3, 4
7, 6
5, 9
10, 0
3, 4
11, 1
9, 5
11, 5
4, 6
10, 6
10, 8
8, 7
7, 7
8, 11
9, 3
9, 9
5, 12
6, 6
12, 9
7, 3
2, 11
5, 12
2, 4
4, 8
6, 8
6, 5
1, 7
5, 6
2, 8
4, 5
5, 5
5, 5
4, 4
6, 4
6, 4
7, 3
4, 7
8, 11
5, 13
7, 10
6, 11
4, 14
2, 13
9, 10
0, 11
0, 9
7, 6
3, 3
3, 6
4, 6
2, 7
3, 3
4, 6
4, 5
3, 2
2, 2
5, 2
0, 4
4, 2
1, 3
2, 6
2, 3
1, 8
6, 6
5, 4
8, 5
4, 4
1, 5
5, 6
5, 3
4, 6
3, 10
3, 5
4, 2
4, 3
6, 6
1, 5
0, 0
0, 3
3, 4
2, 4
3, 5
1, 5
9, 6
2, 5
1, 2
1, 3
2, 7
5, 4
3, 4
4, 4
5, 5
1, 9
6, 4
1, 3
9, 1
1, 8
3, 1
3, 2
5, 2
8, 1
6, 4
3, 5
8, 6
3, 7
8, 3
5, 5
6, 6
3, 5
4, 6
4, 7
4, 8
3, 3
3, 5
5, 3
2, 2
3, 1
5, 2
5, 3
2, 2
3, 2
6, 1
9, 3
1, 3
4, 1
2, 1
1, 2
2, 2
1, 0
2, 2
2, 2
3, 1
2, 1
1, 2
2, 3
1, 4
1, 2
5, 1
6, 2
4, 3
4, 3
5, 4
0, 1
4, 6
0, 1
2, 3
2, 1
1, 3
5, 4
4, 4
0, 0
2, 5
3, 4
3, 2
1, 3
1, 6
2, 5
1, 3
0, 3
1, 3
1, 4
0, 1
2, 3
1, 2
3, 4
0, 1
2, 1
1, 1
2, 4
2, 2
3, 3
1, 1
5, 1
2, 4
5, 1
1, 4
4, 1
4, 2
2, 4
1, 2
1, 5
1, 1
7, 3
5, 2
1, 6
1, 5
4, 3
2, 5
3, 2
1, 6
1, 3
1, 1
0, 5
1, 1
3, 3
1, 3
2, 5
0, 3
3, 7
6, 2
2, 4
2, 3
3, 1
4, 1
1, 3
6, 4
2, 2
0, 2
4, 5
2, 3
1, 4
0, 2
0, 2
3, 2
0, 2
0, 1
0, 1
1, 4
1, 1
2, 2
2, 1
1, 2
1, 1
2, 1
2, 1
2, 0
0, 1
3, 2
1, 2
2, 1
0, 2
2, 1
0, 1
2, 1
1, 1
2, 0
0, 2
1, 0
2, 0
4, 0
0, 1
1, 0
0, 0
2, 0
0, 0
1, 0
0, 0
1, 0
0, 1
2, 1
1, 1
2, 1
0, 3
0, 0
4, 1
1, 1
1, 1
2, 3
0, 1
0, 2
1, 1
2, 0
0, 1
0, 2
0, 1
0, 1
1, 1
2, 0
0, 0
4, 2
0, 0
0, 1
1, 1
1, 1
0, 2
0, 2
1, 1
1, 0
0, 3
0, 1
0, 1
0, 0
0, 1
0, 0
1, 2
0, 1
1, 1
0, 0
1, 0
1, 1
0, 0
2, 0
0, 0
0, 1
1, 2
0, 0
1, 2
0, 1
0, 1
1, 0
0, 1
0, 0
0, 1
1, 1
0, 0
0, 1
0, 0
1, 0
1, 1
0, 1
0, 1
1, 1
1, 0
2, 2
0, 0
1, 0
0, 0
0, 0
0, 1
0, 0
2, 2
0, 0
2, 0
0, 0
0, 0
1, 0
0, 0
0, 1
1, 0
0, 1
1, 0
1, 0
0, 1
0, 0
0, 0
3, 0
0, 1
0, 1
0, 1
1, 0
0, 0
0, 1
1, 1
0, 0
1, 0
0, 0
0, 1
1, 0
0, 1
1, 1
2, 0
0, 0
0, 1
1, 1
0, 0
1, 1
0, 1
1, 0
0, 1
0, 0
1, 0
1, 1
0, 0
2, 0
0, 0
1, 0
0, 0
0, 0
2, 0
0, 2
0, 1
1, 1
0, 0
0, 0
2, 0
1, 0
0, 0
0, 0
1, 1
0, 0
0, 1
0, 0
0, 0
0, 0
0, 0
1, 1
0, 0
0, 0
0, 0
1, 0
1, 1
0, 0
1, 0
1, 0
0, 0
0, 0
0, 0
2, 0
0, 0
0, 0
1, 0
0, 0
1, 0
0, 0
0, 0
0, 0
0, 1
0, 1
1, 0
0, 0
0, 0
0, 0
0, 1
0, 0
0, 0
0, 0
1, 0
1, 0
0, 2
0, 0
0, 0
0, 0
0, 0
0, 0
1, 0
0, 0
0, 0
1, 1
0, 0
2, 0
0, 0
1, 0
0, 0
0, 0
0, 0
0, 0
0, 0
0, 2
0, 0
0, 0
0, 0
0, 1
1, 0
0, 0
0, 0
0, 0
0, 0
0, 2
0, 0
0, 0
1, 0
0, 0
1, 0
1, 0
0, 0
0, 0
0, 0
1, 0
0, 0
0, 0
1, 0
1, 1
0, 0
0, 0
0, 0
0, 0
0, 0
0, 0
0, 0
0, 0
2, 0
1, 0
0, 0
0, 0
0, 0
0, 0
0, 0
0, 0
0, 0
0, 1
0, 1
0, 0
0, 0
1, 0
0, 1
0, 0
0, 0
0, 0
2, 0
1, 0
0, 0
0, 0
0, 0
0, 0
0, 0
0, 0
0, 0
2, 0
0, 0
0, 0
0, 0
0, 0
1, 0
0, 0
0, 0
0, 0
0, 0
1, 0
0, 0
0, 0
0, 0
0, 0
0, 0
0, 0
0, 0
0, 0
1, 0
0, 0
0, 0
0, 0
0, 0
0, 0
0, 0
0, 0
0, 0
0, 1
0, 0
1, 0
0, 0
0, 0
0, 0
0, 0
1, 0
0, 0
0, 0
0, 0
0, 0
0, 0
0, 1
0, 0
0, 0
0, 0
0, 0
0, 0
0, 0
0, 0
0, 0
0, 0
0, 0
0, 0
0, 1
0, 0
0, 0
0, 0
0, 0
0, 0
0, 0
0, 1
0, 1
0, 0
0, 0
0, 0
0, 0
0, 0
0, 0
0, 0
0, 0
0, 0
0, 0
0, 0
0, 0
0, 0
0, 0
0, 0
0, 0
0, 0
0, 0
1, 0
0, 0
0, 0
0, 0
0, 0
0, 0
0, 0
0, 0
0, 0
0, 0
0, 0
0, 0
0, 0
0, 0
1, 0
1, 0
0, 0
0, 0
0, 0
0, 0
0, 0
0, 0
0, 0
0, 0
0, 1
0, 0
0, 0
0, 1
0, 0
0, 0
0, 0
0, 0
0, 0
0, 0
0, 0
0, 0
0, 0
0, 0
0, 0
0, 0
0, 0
0, 0
0, 0
0, 0
0, 0
0, 0
0, 0
0, 0
0, 0
0, 0
0, 0
1, 0
0, 0
0, 0
0, 0
0, 0
0, 0
0, 0
0, 0
0, 0
0, 0
0, 0
0, 0
0, 0
0, 0
0, 0
0, 0
0, 0
0, 0
0, 0
0, 0
0, 0
0, 0
0, 0
0, 0
0, 0
0, 0
0, 0
0, 0
0, 0
0, 0
0, 0
0, 0
0, 0
0, 0
0, 0
0, 0
0, 0
0, 0
0, 0
0, 0
0, 0
0, 0
0, 0
0, 0
0, 0
0, 0
0, 0
0, 0
0, 0
0, 0
0, 0
0, 0
0, 0
0, 0
0, 0
0, 0
0, 0
0, 0
0, 0
0, 0
0, 1
1, 0
0, 0
0, 0
0, 0
0, 0
0, 0
0, 0
0, 0
0, 1
0, 0
0, 0
0, 0
0, 0
0, 0
0, 0
0, 0
0, 0
0, 0
0, 0
0, 0
0, 0
0, 0
0, 0
0, 0
0, 0
0, 0
0, 0
0, 0
0, 0
0, 0
0, 0
0, 0
0, 0
0, 0
0, 0
0, 0
0, 0
0, 0
0, 0
0, 0
0, 0
0, 0
0, 0
0, 0
0, 0
0, 0
0, 0
0, 0
0, 0
0, 0
0, 0
0, 0
0, 0
0, 0
0, 0
0, 0
0, 0
0, 0
0, 0
0, 0
0, 0
0, 0
0, 0
0, 0
0, 0
0, 0
0, 0
0, 0
0, 0
0, 0
0, 0
0, 0
0, 0
0, 0
0, 0
0, 0
0, 0
0, 0
0, 0
0, 0
0, 0
0, 0
0, 0
0, 0
0, 0
0, 0
0, 0
0, 0
0, 0
0, 0
0, 0
0, 0
0, 0
0, 0
0, 0
0, 0
0, 0
0, 0
0, 0
0, 0
0, 0
0, 0
0, 0
0, 0
0, 0
0, 0
0, 0
0, 0
0, 0
0, 0
0, 0
0, 0
0, 0
0, 0
0, 0
0, 0
0, 0
0, 0
0, 0
0, 0
0, 0
0, 0
0, 0
0, 0
0, 0
0, 0
0, 0
0, 0
0, 0
0, 0
0, 0
0, 0
0, 0
0, 0
0, 0
0, 0
0, 0
0, 0
0, 0
0, 0
0, 0
0, 0
0, 0
0, 0
0, 0
0, 0
0, 0
0, 0
0, 0
0, 0
0, 0
0, 0
0, 0
0, 0
0, 0
0, 0
0, 0
0, 0
0, 0
0, 0
0, 0
0, 0
0, 0
0, 0
0, 0
0, 0
0, 0
0, 0
0, 0
0, 0
0, 0
0, 0
0, 0
0, 0
0, 0
0, 0
0, 0
0, 0
0, 0
0, 0
0, 0
0, 0
0, 0
0, 0
0, 0
0, 0
0, 0
0, 0
0, 0
0, 0
0, 0
0, 0
0, 0
0, 0
0, 0
0, 0
0, 0
0, 0
0, 0
0, 0
0, 0
0, 0
0, 0
0, 0
0, 0
0, 0
0, 0
0, 0
0, 0
0, 0
0, 0
0, 0
0, 0
0, 0
0, 0
0, 0
0, 0
0, 0
0, 0
0, 0
0, 0
0, 0
0, 0
0, 0
0, 0
0, 0
0, 0
0, 0
0, 0
0, 0
0, 0
0, 0
0, 0
0, 0
0, 0
0, 0
0, 0
0, 0
0, 0
0, 0
0, 0
0, 0
0, 0
0, 0
0, 0
0, 0
0, 0
0, 0
0, 0
0, 0
0, 0
0, 0
0, 0
0, 0
0, 0
0, 0
0, 0
0, 0
0, 0
0, 0
0, 0
0, 0
0, 0
0, 0
0, 0
0, 0
0, 0
0, 0
0, 0
0, 0
0, 0
0, 0
0, 0
0, 0
0, 0
0, 0
0, 0
0, 0
0, 0
0, 0
0, 0
0, 0
0, 0
0, 0
0, 0
0, 0
0, 0
0, 0
0, 0
0, 0
0, 0
0, 0
0, 0
0, 0
0, 0
0, 0
0, 0
0, 0
0, 0
0, 0
0, 0
0, 0
0, 0
0, 0
0, 0
0, 0
0, 0
0, 0
0, 0
0, 0
0, 0
0, 0
0, 0
0, 0
0, 0
0, 0
0, 0
0, 0
0, 0
0, 0
0, 0
0, 0
0, 0
0, 0
0, 0
0, 0
0, 0
0, 0
0, 0
0, 0
0, 0
0, 0
0, 0
0, 0
0, 0
0, 0
0, 0
#ENDOFDATA     end of spectrum data