File: host_upload/06-09-2024/ps_0852/dump3/ps__0852shot_2226.msa
#FORMAT      : EMSA/MAS spectral data file
#VERSION     : TC202v2.0 PIXL
#TITLE       : N/A
#DATE        :       Date in the format DD-MMM-YYYY, for example 07-JUL-2010
#TIME        :             The time of day at which the spectrum was recorded, in 24-hour format
#OWNER       : PIXL Flight Model       (PIXL will use this to indicate which instrument took the data.)
#NPOINTS     : 4096     Number of data points in the spectrum (This can be zero for configuration only files)
#NCOLUMNS    : 2     Number of data columns in the spectrum (This can be zero for configuration only files)
#XUNITS      : eV
#YUNITS      : COUNTS
#DATATYPE    : YY
#XPERCHAN    : 7.862, 7.881   eV per channel (separate by commas if more than one detector)
#OFFSET      : 18.5, -22.4         eV of first channel  (separate by commas if more than one detector
#SIGNALTYPE  : XRF
#YP_TEMP     : 2.235
#LIVETIME    : 8.54626, 8.5617   seconds (separate by commas if more than one detector)
#REALTIME    : 10, 10.0   seconds (separate by commas if more than one detector)
#SPECTRUM    : start of spectrum data
0, 0
0, 0
0, 0
0, 0
0, 0
0, 0
0, 0
0, 0
0, 0
0, 0
0, 0
0, 0
0, 0
0, 0
0, 0
0, 0
0, 0
0, 0
0, 0
0, 0
0, 0
0, 0
0, 0
0, 0
0, 0
0, 0
0, 0
0, 0
0, 0
0, 0
0, 0
0, 0
1, 0
1, 0
0, 0
0, 0
0, 1
0, 0
0, 2
2, 1
1, 0
2, 4
0, 6
0, 3
2, 0
0, 3
2, 0
3, 2
6, 7
14, 12
25, 34
52, 43
71, 58
77, 92
94, 88
78, 78
66, 52
40, 44
34, 28
9, 14
7, 9
8, 4
5, 2
5, 2
2, 2
3, 1
5, 7
9, 13
25, 33
52, 41
103, 107
160, 166
285, 291
409, 341
407, 415
434, 428
384, 354
308, 287
203, 181
137, 115
88, 73
39, 38
13, 17
10, 14
4, 3
2, 2
2, 1
1, 1
2, 2
3, 1
1, 0
2, 2
1, 3
2, 1
0, 1
0, 1
1, 1
3, 2
2, 1
0, 2
5, 7
2, 5
3, 13
2, 11
5, 5
0, 10
5, 9
1, 7
6, 15
11, 21
14, 41
21, 59
17, 80
29, 126
21, 139
26, 136
28, 136
19, 116
18, 67
25, 64
21, 31
18, 35
14, 21
6, 15
8, 15
6, 6
13, 7
10, 7
9, 7
6, 7
11, 8
1, 2
2, 1
2, 1
3, 2
2, 0
1, 7
1, 3
3, 3
0, 1
0, 2
2, 1
1, 1
0, 3
2, 4
1, 1
1, 3
6, 2
3, 1
1, 2
5, 1
10, 4
4, 0
9, 10
10, 8
16, 12
19, 18
16, 16
21, 19
13, 15
22, 15
8, 6
9, 2
5, 3
2, 8
2, 3
8, 3
9, 4
8, 3
12, 6
8, 5
9, 4
7, 3
14, 6
20, 4
16, 5
36, 6
31, 5
37, 7
44, 10
62, 9
42, 11
35, 4
28, 2
21, 6
11, 6
11, 5
5, 3
9, 7
10, 5
5, 2
10, 5
7, 6
6, 9
13, 9
8, 11
15, 10
6, 14
9, 9
13, 12
13, 10
7, 14
6, 7
7, 14
4, 12
2, 13
1, 9
3, 17
2, 15
2, 8
6, 8
8, 12
7, 7
6, 12
5, 6
5, 8
2, 10
3, 6
3, 7
5, 8
4, 3
7, 8
6, 9
9, 7
4, 6
7, 13
18, 11
17, 14
9, 15
10, 20
9, 17
10, 16
11, 17
15, 7
11, 9
15, 7
12, 5
20, 10
14, 10
21, 13
18, 19
26, 34
21, 34
13, 38
16, 58
16, 79
30, 69
31, 74
36, 97
56, 91
58, 93
65, 67
60, 75
57, 52
54, 49
33, 45
35, 17
14, 9
19, 12
20, 14
19, 17
42, 32
39, 55
79, 102
166, 187
300, 351
504, 633
755, 905
1138, 1381
1549, 1819
2107, 2129
2243, 2452
2408, 2527
2448, 2230
2057, 1933
1692, 1598
1324, 1072
914, 722
600, 463
364, 257
200, 145
108, 74
54, 41
31, 27
17, 20
7, 19
16, 14
16, 27
19, 21
18, 26
19, 35
29, 42
40, 57
60, 70
116, 121
148, 194
185, 210
270, 269
299, 370
341, 343
361, 414
349, 316
312, 278
216, 230
213, 167
147, 121
87, 90
50, 44
32, 53
16, 38
7, 42
7, 49
9, 39
5, 31
11, 25
8, 21
17, 25
14, 31
13, 21
14, 20
14, 10
8, 16
8, 6
10, 6
5, 7
5, 4
6, 4
5, 6
1, 8
4, 3
3, 2
2, 1
0, 6
4, 1
2, 2
4, 5
2, 2
0, 4
2, 5
4, 5
5, 2
3, 6
2, 9
6, 15
5, 23
5, 17
4, 32
8, 37
5, 51
6, 44
8, 43
2, 45
7, 31
9, 23
14, 30
13, 23
5, 15
6, 13
13, 6
11, 6
10, 2
11, 5
6, 4
9, 1
8, 7
6, 1
6, 4
2, 4
7, 4
7, 4
3, 2
4, 3
4, 5
6, 1
4, 2
2, 3
4, 2
3, 3
2, 1
1, 2
5, 3
5, 6
5, 8
1, 4
1, 8
1, 11
4, 14
3, 7
1, 14
8, 7
2, 3
2, 8
2, 6
4, 3
8, 3
6, 8
2, 0
8, 3
7, 3
8, 2
13, 3
12, 3
13, 2
20, 2
16, 2
14, 6
6, 0
10, 5
15, 6
10, 1
5, 10
2, 4
2, 4
5, 5
4, 0
4, 4
2, 4
2, 5
3, 5
3, 1
2, 2
3, 7
2, 1
0, 1
4, 2
3, 5
2, 4
5, 3
2, 0
1, 3
2, 2
3, 0
2, 3
5, 1
3, 3
8, 4
2, 1
3, 2
2, 5
1, 5
3, 1
5, 1
3, 4
3, 2
6, 5
8, 2
6, 3
10, 2
4, 2
13, 6
8, 1
2, 2
8, 2
4, 0
6, 2
5, 7
2, 2
7, 2
1, 2
4, 2
1, 2
3, 0
2, 2
3, 2
3, 3
2, 2
2, 4
1, 0
3, 2
1, 3
1, 3
2, 5
2, 2
3, 3
1, 3
1, 2
1, 4
2, 3
2, 1
6, 3
3, 3
3, 2
1, 1
1, 3
4, 2
2, 1
0, 6
0, 2
3, 5
2, 6
2, 7
2, 4
3, 5
3, 6
2, 7
2, 3
2, 2
2, 3
0, 1
3, 8
1, 2
1, 0
2, 4
5, 2
1, 2
3, 2
1, 1
1, 2
2, 1
3, 1
1, 1
2, 2
2, 2
1, 0
1, 1
0, 3
1, 1
2, 4
2, 1
2, 1
1, 3
0, 2
2, 4
1, 2
1, 5
1, 1
3, 0
2, 4
1, 3
2, 1
2, 2
3, 0
1, 4
3, 3
3, 2
4, 0
4, 2
5, 1
1, 6
6, 7
4, 3
4, 4
9, 1
7, 5
4, 4
3, 4
4, 3
2, 2
2, 5
3, 3
2, 0
4, 3
0, 2
1, 3
5, 0
3, 5
2, 4
2, 1
0, 3
0, 1
2, 2
2, 2
1, 3
2, 1
0, 1
0, 2
2, 4
2, 3
1, 3
2, 1
1, 2
0, 3
0, 2
4, 0
0, 1
2, 0
2, 0
2, 2
2, 0
1, 3
2, 0
1, 1
0, 2
1, 1
2, 1
2, 2
0, 1
1, 3
0, 1
2, 2
2, 3
2, 2
0, 2
1, 3
2, 6
0, 5
1, 4
1, 2
0, 2
2, 3
1, 1
2, 0
1, 1
4, 1
0, 1
1, 1
0, 1
0, 3
2, 0
2, 2
0, 1
0, 0
2, 1
1, 2
1, 1
0, 1
2, 1
1, 0
1, 1
0, 1
1, 0
1, 0
1, 0
0, 4
0, 1
3, 0
2, 0
2, 1
3, 0
2, 3
1, 1
0, 0
0, 1
2, 3
1, 2
1, 0
2, 0
1, 1
2, 1
0, 2
1, 0
1, 0
0, 0
1, 1
0, 2
0, 0
1, 2
0, 0
0, 0
0, 0
3, 0
1, 0
1, 1
0, 1
0, 0
1, 1
0, 0
2, 0
0, 1
0, 0
0, 0
1, 0
0, 0
1, 1
0, 0
1, 0
0, 1
1, 2
0, 2
0, 0
0, 3
1, 2
1, 0
3, 0
0, 0
3, 1
0, 0
0, 0
0, 0
2, 1
0, 1
1, 0
1, 2
0, 0
1, 0
0, 1
0, 1
0, 1
0, 1
0, 0
0, 0
0, 0
0, 1
0, 0
0, 0
0, 1
0, 2
0, 0
0, 0
0, 1
0, 0
1, 0
0, 1
0, 0
0, 0
0, 1
0, 1
0, 0
0, 0
0, 1
0, 0
1, 0
0, 0
1, 0
0, 0
0, 0
3, 0
0, 0
0, 0
0, 0
0, 2
0, 0
0, 2
0, 1
0, 0
0, 1
0, 0
0, 0
0, 1
0, 0
0, 1
1, 0
0, 1
0, 1
0, 0
0, 2
0, 0
1, 0
0, 1
0, 2
0, 1
0, 0
0, 0
0, 0
0, 1
0, 0
0, 0
0, 0
0, 0
0, 0
0, 1
0, 0
0, 2
0, 0
0, 0
0, 0
0, 0
0, 0
0, 0
0, 0
0, 0
0, 0
0, 0
0, 0
0, 0
0, 1
0, 0
0, 0
0, 0
1, 2
0, 0
1, 0
0, 0
1, 1
0, 0
0, 2
0, 0
0, 0
0, 1
1, 0
0, 0
1, 0
0, 0
0, 1
0, 0
1, 0
0, 0
0, 0
1, 1
0, 0
0, 0
0, 0
1, 0
0, 0
0, 0
0, 0
0, 0
0, 0
0, 1
0, 0
1, 0
0, 0
0, 0
0, 0
0, 1
1, 0
0, 0
2, 0
0, 0
0, 1
0, 0
0, 0
0, 0
0, 0
0, 0
1, 0
0, 0
0, 0
0, 0
0, 1
1, 0
0, 0
2, 0
0, 0
0, 0
0, 0
0, 0
0, 0
0, 0
0, 0
1, 0
0, 0
0, 0
0, 0
1, 0
0, 0
0, 0
0, 0
0, 0
0, 0
0, 0
0, 0
1, 0
2, 0
1, 0
0, 0
0, 0
0, 0
1, 0
0, 0
0, 0
0, 0
0, 0
0, 0
0, 0
1, 0
0, 0
1, 0
0, 1
0, 0
1, 1
0, 0
1, 0
1, 0
0, 0
1, 0
0, 0
0, 0
0, 0
0, 0
1, 0
0, 0
0, 0
0, 1
0, 0
0, 0
0, 0
0, 0
0, 0
0, 0
0, 0
0, 0
0, 1
0, 0
0, 0
1, 0
0, 0
0, 0
0, 0
0, 0
0, 0
0, 0
1, 0
0, 1
0, 0
0, 0
0, 0
0, 0
0, 0
0, 0
0, 0
0, 0
0, 0
0, 0
0, 0
0, 0
0, 0
0, 0
0, 0
0, 0
0, 0
1, 0
0, 0
0, 0
0, 1
0, 0
0, 0
0, 0
0, 0
0, 0
0, 0
0, 0
0, 0
0, 0
0, 0
0, 0
0, 0
0, 0
0, 0
0, 0
0, 0
0, 0
0, 0
0, 0
0, 0
0, 0
0, 0
1, 0
0, 0
0, 0
1, 0
0, 0
0, 0
0, 0
0, 0
0, 0
0, 0
0, 0
0, 0
0, 0
0, 0
0, 0
0, 0
0, 0
0, 0
0, 0
0, 0
0, 0
0, 0
0, 0
0, 0
0, 0
0, 0
0, 0
0, 0
0, 1
0, 0
0, 0
0, 0
0, 0
0, 0
0, 0
0, 0
0, 0
0, 0
0, 0
0, 0
0, 0
0, 0
0, 0
0, 0
0, 0
0, 0
0, 0
0, 0
0, 0
0, 0
0, 0
0, 0
0, 0
0, 0
0, 0
0, 0
0, 0
0, 0
0, 0
0, 0
0, 0
0, 0
0, 0
0, 0
0, 0
0, 0
0, 0
0, 0
0, 0
0, 0
0, 0
0, 0
0, 0
0, 0
0, 0
0, 0
0, 0
0, 0
0, 0
0, 0
0, 0
0, 0
0, 0
0, 0
0, 0
0, 0
0, 0
0, 0
0, 0
0, 0
0, 0
0, 0
0, 0
0, 0
0, 0
0, 0
0, 0
0, 0
0, 0
0, 0
0, 0
0, 0
0, 0
0, 0
0, 0
0, 0
0, 0
0, 0
0, 0
0, 0
0, 0
0, 0
0, 0
0, 0
0, 0
0, 0
0, 0
0, 0
0, 0
0, 0
0, 0
0, 0
0, 0
0, 0
0, 0
0, 0
0, 0
0, 0
0, 0
0, 0
0, 0
0, 0
0, 0
0, 0
0, 0
0, 0
0, 0
0, 0
0, 0
0, 0
0, 0
0, 0
0, 0
0, 0
0, 0
0, 0
0, 0
0, 0
0, 0
0, 0
0, 0
0, 0
0, 0
0, 0
0, 0
0, 0
0, 0
0, 0
0, 0
0, 0
0, 0
0, 0
0, 0
0, 0
0, 0
0, 0
0, 0
0, 0
0, 0
0, 0
0, 0
0, 0
0, 0
0, 0
0, 0
0, 0
0, 0
0, 0
0, 0
0, 0
0, 0
0, 0
0, 0
0, 0
0, 0
0, 0
0, 0
0, 0
0, 0
0, 0
0, 0
0, 0
0, 0
0, 0
0, 0
0, 0
0, 0
0, 0
0, 0
0, 0
0, 0
0, 0
0, 0
0, 0
0, 0
0, 0
0, 0
0, 0
0, 0
0, 0
0, 0
0, 0
0, 0
0, 0
0, 0
0, 0
0, 0
0, 0
0, 0
0, 0
0, 0
0, 0
0, 0
0, 0
0, 0
0, 0
0, 0
0, 0
0, 0
0, 0
0, 0
0, 0
0, 0
0, 0
0, 0
0, 0
0, 0
0, 0
0, 0
0, 0
0, 0
0, 0
0, 0
0, 0
0, 0
0, 0
0, 0
0, 0
0, 0
0, 0
0, 0
0, 0
0, 0
0, 0
0, 0
0, 0
0, 0
0, 0
0, 0
0, 0
0, 0
0, 0
0, 0
0, 0
0, 0
0, 0
0, 0
0, 0
0, 0
0, 0
0, 0
0, 0
0, 0
0, 0
0, 0
0, 0
0, 0
0, 0
0, 0
0, 0
0, 0
0, 0
0, 0
0, 0
0, 0
0, 0
0, 0
0, 0
0, 0
0, 0
0, 0
0, 0
0, 0
0, 0
0, 0
0, 0
0, 0
0, 0
0, 0
0, 0
0, 0
0, 0
0, 0
0, 0
0, 0
0, 0
0, 0
0, 0
0, 0
0, 0
0, 0
0, 0
0, 0
0, 0
0, 0
0, 0
0, 0
0, 0
0, 0
0, 0
0, 0
0, 0
0, 0
0, 0
0, 0
0, 0
0, 0
0, 0
0, 0
0, 0
0, 0
0, 0
0, 0
0, 0
0, 0
0, 0
0, 0
0, 0
0, 0
0, 0
0, 0
0, 0
0, 0
0, 0
0, 0
0, 0
0, 0
0, 0
0, 0
0, 0
0, 0
0, 0
0, 0
0, 0
0, 0
0, 0
0, 0
0, 0
0, 0
0, 0
0, 0
0, 0
0, 0
0, 0
0, 0
0, 0
0, 0
0, 0
0, 0
0, 0
0, 0
0, 0
0, 0
0, 0
0, 0
0, 0
0, 0
0, 0
0, 0
0, 0
0, 0
0, 0
0, 0
0, 0
0, 0
0, 0
0, 0
0, 0
0, 0
0, 0
0, 0
0, 0
0, 0
0, 0
0, 0
0, 0
0, 0
0, 0
0, 0
0, 0
0, 0
0, 0
0, 0
0, 0
0, 0
0, 0
0, 0
0, 0
0, 0
0, 0
0, 0
0, 0
0, 0
0, 0
0, 0
0, 0
0, 0
0, 0
0, 0
0, 0
0, 0
0, 0
0, 0
0, 0
0, 0
0, 0
0, 0
0, 0
0, 0
#ENDOFDATA     end of spectrum data