File: host_upload/06-09-2024/ps_0852/dump3/ps__0852shot_2511.msa
#FORMAT      : EMSA/MAS spectral data file
#VERSION     : TC202v2.0 PIXL
#TITLE       : N/A
#DATE        :       Date in the format DD-MMM-YYYY, for example 07-JUL-2010
#TIME        :             The time of day at which the spectrum was recorded, in 24-hour format
#OWNER       : PIXL Flight Model       (PIXL will use this to indicate which instrument took the data.)
#NPOINTS     : 4096     Number of data points in the spectrum (This can be zero for configuration only files)
#NCOLUMNS    : 2     Number of data columns in the spectrum (This can be zero for configuration only files)
#XUNITS      : eV
#YUNITS      : COUNTS
#DATATYPE    : YY
#XPERCHAN    : 7.862, 7.881   eV per channel (separate by commas if more than one detector)
#OFFSET      : 18.5, -22.4         eV of first channel  (separate by commas if more than one detector
#SIGNALTYPE  : XRF
#YP_TEMP     : 2.492
#LIVETIME    : 8.54797, 8.57539   seconds (separate by commas if more than one detector)
#REALTIME    : 10, 10.0   seconds (separate by commas if more than one detector)
#SPECTRUM    : start of spectrum data
0, 0
0, 0
0, 0
0, 0
0, 0
0, 0
0, 0
0, 0
0, 0
0, 0
0, 0
0, 0
0, 0
0, 0
0, 0
0, 0
0, 0
0, 0
0, 0
0, 0
0, 0
0, 0
0, 0
0, 0
0, 0
0, 0
0, 0
0, 0
0, 0
0, 0
0, 0
0, 0
1, 0
0, 0
0, 0
0, 0
1, 0
1, 1
2, 1
0, 0
1, 2
0, 1
1, 2
3, 1
2, 2
3, 2
2, 2
7, 3
5, 7
12, 8
25, 22
48, 37
62, 63
58, 73
80, 80
95, 72
64, 56
39, 47
23, 22
17, 12
6, 9
2, 6
5, 1
3, 4
6, 4
5, 1
10, 5
6, 9
20, 17
39, 43
103, 85
182, 153
250, 229
371, 329
424, 425
459, 363
362, 323
302, 273
196, 185
141, 108
54, 64
29, 27
21, 20
7, 3
6, 6
5, 6
4, 1
1, 1
0, 6
2, 2
3, 6
7, 5
6, 4
10, 14
17, 27
34, 38
49, 56
57, 84
94, 96
96, 89
96, 70
68, 80
52, 42
36, 36
20, 28
17, 20
16, 15
16, 16
10, 22
17, 19
29, 28
30, 26
34, 32
37, 38
46, 57
47, 46
38, 46
30, 30
40, 28
28, 26
35, 32
23, 33
16, 30
17, 21
18, 24
13, 15
12, 9
11, 9
9, 6
9, 9
2, 3
5, 2
6, 1
3, 1
3, 5
3, 4
0, 3
1, 3
2, 2
2, 3
1, 3
1, 3
3, 1
3, 1
3, 2
0, 2
2, 4
3, 1
2, 2
2, 3
2, 3
4, 6
2, 3
7, 10
7, 11
10, 17
19, 17
16, 23
7, 14
17, 18
15, 12
11, 7
3, 9
7, 7
6, 12
7, 5
5, 5
4, 7
9, 8
12, 1
8, 3
7, 5
13, 6
10, 10
8, 13
6, 16
9, 18
1, 26
9, 29
9, 20
8, 21
6, 18
3, 15
5, 10
5, 11
5, 8
4, 1
2, 1
6, 11
4, 3
8, 8
10, 12
9, 9
7, 13
18, 9
23, 12
14, 21
18, 26
14, 33
8, 37
8, 40
14, 34
16, 43
10, 46
11, 44
13, 37
6, 32
11, 20
15, 14
11, 7
6, 3
6, 12
12, 7
4, 13
7, 9
5, 5
5, 8
11, 4
6, 6
7, 3
7, 6
8, 5
10, 6
2, 2
14, 10
6, 12
10, 6
12, 23
11, 19
11, 13
17, 23
15, 16
20, 12
20, 13
15, 17
16, 18
8, 12
3, 21
10, 18
9, 25
10, 28
11, 43
14, 69
20, 54
21, 60
18, 60
39, 59
42, 64
49, 65
54, 72
64, 68
56, 71
55, 59
65, 66
47, 50
51, 35
54, 22
80, 15
81, 16
129, 26
153, 23
136, 31
190, 52
192, 98
264, 194
356, 347
567, 552
818, 899
1244, 1318
1630, 1793
1967, 2140
2324, 2300
2447, 2491
2348, 2270
2153, 1891
1682, 1536
1294, 1122
896, 699
554, 406
324, 235
196, 142
100, 63
60, 29
31, 25
24, 15
11, 17
12, 14
15, 13
14, 18
18, 15
16, 23
29, 43
53, 54
69, 70
101, 131
155, 177
191, 215
248, 318
311, 323
370, 388
359, 343
352, 328
298, 282
242, 226
184, 158
143, 111
78, 61
55, 30
30, 23
23, 11
12, 7
14, 8
7, 12
5, 8
19, 14
13, 15
9, 16
11, 10
10, 16
17, 11
11, 4
15, 10
8, 10
9, 7
6, 3
3, 10
7, 13
12, 5
9, 9
7, 3
7, 4
4, 3
8, 7
10, 4
5, 2
7, 7
5, 7
1, 3
0, 5
4, 7
8, 4
9, 10
4, 4
5, 5
6, 4
3, 6
3, 5
9, 6
7, 5
7, 6
11, 12
16, 7
25, 6
18, 8
21, 8
36, 6
42, 9
32, 1
40, 6
45, 7
42, 5
29, 5
30, 3
18, 4
26, 4
24, 6
10, 5
11, 4
14, 8
9, 2
5, 4
5, 4
4, 7
4, 6
7, 3
5, 4
8, 5
4, 2
4, 9
2, 3
7, 3
5, 4
7, 3
6, 6
8, 5
2, 3
1, 4
4, 4
7, 3
4, 4
5, 4
3, 4
5, 4
6, 5
2, 3
9, 6
3, 5
2, 1
3, 1
3, 3
3, 7
3, 1
1, 1
6, 5
5, 1
4, 2
6, 6
7, 6
5, 6
3, 2
0, 4
2, 2
2, 1
1, 2
4, 8
1, 3
2, 1
3, 2
12, 3
1, 3
3, 1
2, 8
5, 1
3, 2
3, 3
2, 4
4, 5
3, 4
2, 3
2, 4
2, 3
3, 2
2, 6
2, 3
4, 3
3, 2
4, 1
3, 3
1, 4
1, 2
5, 1
2, 2
4, 3
3, 8
5, 1
4, 6
4, 4
4, 2
1, 0
1, 2
3, 0
3, 5
2, 5
4, 1
1, 3
4, 4
1, 2
4, 6
3, 6
2, 2
2, 5
1, 2
2, 2
2, 6
3, 2
6, 2
1, 2
3, 2
1, 1
0, 3
5, 2
4, 0
2, 2
2, 2
1, 4
2, 3
3, 2
3, 2
0, 1
2, 4
1, 1
1, 3
1, 1
0, 3
0, 1
3, 1
3, 5
2, 4
0, 1
2, 2
1, 2
0, 2
5, 0
2, 4
2, 2
1, 2
2, 1
2, 6
3, 3
2, 0
4, 3
1, 4
1, 1
1, 3
2, 0
3, 3
4, 3
3, 2
0, 4
0, 2
2, 2
6, 2
5, 0
2, 5
2, 2
3, 0
2, 0
2, 2
1, 0
2, 4
3, 0
2, 3
2, 0
2, 2
2, 1
1, 1
2, 0
3, 0
3, 3
2, 3
1, 1
2, 4
3, 3
2, 2
0, 1
2, 3
3, 0
4, 1
5, 3
4, 4
3, 9
3, 5
4, 7
8, 5
1, 2
3, 6
2, 7
3, 4
4, 3
3, 3
2, 4
6, 5
1, 2
2, 6
1, 1
2, 3
5, 0
3, 1
3, 2
4, 0
2, 0
1, 1
0, 1
3, 1
1, 0
4, 2
0, 0
3, 1
2, 1
1, 0
2, 2
2, 3
1, 1
3, 2
2, 1
1, 1
0, 1
1, 1
0, 0
1, 0
1, 3
2, 3
2, 2
0, 4
1, 0
1, 0
0, 2
3, 2
0, 0
0, 2
2, 0
0, 1
1, 1
1, 1
3, 2
2, 0
3, 0
2, 2
2, 3
0, 0
2, 1
0, 2
0, 2
0, 0
1, 1
0, 0
1, 1
0, 0
1, 2
0, 0
2, 1
1, 0
1, 0
0, 1
0, 0
1, 2
0, 2
1, 1
1, 0
5, 0
1, 1
1, 1
0, 0
1, 2
4, 1
0, 0
1, 1
2, 1
0, 3
0, 0
0, 1
1, 0
0, 2
0, 0
2, 0
1, 0
0, 0
1, 1
0, 2
0, 1
1, 0
0, 0
0, 1
1, 0
0, 0
0, 0
2, 1
2, 3
1, 1
2, 1
1, 0
1, 0
3, 0
2, 0
0, 1
0, 0
0, 0
1, 0
2, 2
0, 0
0, 2
1, 0
2, 0
1, 0
0, 0
0, 1
0, 0
1, 0
0, 1
0, 0
0, 0
1, 1
0, 0
0, 0
0, 0
0, 0
0, 2
1, 0
0, 0
0, 2
0, 0
1, 1
0, 0
0, 1
0, 0
0, 1
0, 0
0, 0
0, 1
0, 1
0, 0
1, 0
0, 0
1, 1
1, 0
2, 0
1, 1
1, 0
1, 1
0, 0
0, 0
0, 1
0, 1
1, 1
1, 1
0, 0
1, 1
0, 0
1, 0
0, 1
0, 0
1, 0
0, 0
0, 1
0, 0
0, 1
1, 0
0, 0
1, 1
0, 0
0, 0
0, 0
0, 0
0, 1
1, 1
0, 1
0, 1
0, 0
1, 0
0, 2
0, 0
1, 0
0, 0
0, 0
1, 0
0, 0
0, 0
0, 0
1, 0
0, 0
0, 0
0, 2
0, 0
0, 1
1, 0
1, 0
0, 0
0, 0
0, 0
1, 1
0, 1
0, 2
1, 0
0, 0
0, 1
0, 0
0, 2
1, 0
0, 0
0, 1
1, 0
0, 0
2, 0
1, 0
0, 0
0, 1
0, 0
1, 0
0, 0
0, 0
0, 0
0, 0
0, 0
1, 0
0, 0
0, 0
1, 0
2, 0
0, 2
1, 0
0, 0
0, 0
0, 1
0, 1
0, 0
0, 1
1, 0
0, 0
0, 2
0, 0
0, 0
0, 1
0, 1
0, 1
0, 0
0, 0
1, 0
1, 1
1, 0
0, 1
1, 0
1, 0
0, 0
0, 1
1, 0
1, 1
0, 1
0, 0
0, 0
0, 0
0, 0
0, 0
0, 0
0, 1
0, 1
0, 0
1, 0
2, 0
0, 0
0, 0
0, 0
0, 0
0, 0
0, 0
0, 1
1, 0
0, 0
0, 0
0, 0
0, 0
0, 0
0, 0
0, 0
0, 0
0, 0
0, 0
0, 0
0, 0
0, 0
0, 0
0, 0
0, 0
0, 0
0, 0
0, 1
0, 1
0, 0
0, 0
0, 0
0, 0
0, 1
0, 0
0, 0
0, 0
0, 0
0, 0
0, 0
0, 1
0, 1
0, 1
1, 0
1, 0
0, 0
0, 1
0, 1
1, 0
0, 0
0, 0
1, 0
0, 0
0, 0
0, 0
0, 0
0, 1
0, 0
1, 1
0, 0
0, 0
0, 1
0, 0
0, 0
1, 1
0, 0
0, 0
0, 0
0, 0
0, 0
0, 0
0, 0
1, 0
1, 0
0, 0
0, 1
0, 0
0, 0
0, 0
0, 0
0, 0
0, 0
0, 0
0, 0
0, 0
1, 0
0, 0
0, 0
0, 0
0, 0
0, 1
0, 0
0, 0
0, 0
0, 0
0, 0
0, 0
0, 0
0, 0
0, 0
0, 0
0, 0
0, 0
0, 0
0, 0
0, 0
1, 0
0, 0
0, 0
0, 0
0, 0
0, 0
0, 0
0, 0
0, 0
0, 0
0, 0
0, 0
0, 0
0, 0
0, 0
0, 0
0, 0
0, 0
0, 0
1, 0
0, 0
0, 0
0, 0
0, 0
0, 0
0, 0
0, 0
0, 0
0, 0
0, 0
0, 1
0, 0
0, 0
0, 0
0, 0
0, 0
0, 0
0, 0
0, 0
0, 0
0, 0
0, 0
0, 0
0, 0
0, 0
0, 0
0, 0
0, 0
0, 0
0, 0
0, 0
0, 0
0, 0
0, 0
0, 0
0, 0
0, 0
0, 0
0, 0
0, 0
0, 0
0, 0
0, 0
0, 0
0, 0
0, 0
0, 0
0, 0
0, 0
0, 0
0, 0
0, 0
0, 0
0, 0
0, 0
0, 0
0, 0
0, 0
0, 0
0, 0
0, 0
0, 0
0, 0
0, 0
0, 0
0, 0
0, 0
0, 0
0, 0
0, 0
0, 0
0, 0
0, 0
0, 0
0, 0
0, 0
0, 0
0, 0
0, 0
0, 0
0, 0
0, 0
0, 0
0, 0
0, 0
0, 0
0, 0
0, 0
0, 0
0, 0
1, 0
0, 0
0, 0
0, 0
0, 0
0, 0
0, 0
0, 0
0, 0
0, 0
0, 0
0, 0
0, 0
0, 0
0, 0
0, 0
0, 0
0, 0
0, 0
0, 0
0, 0
0, 0
0, 0
0, 0
0, 0
0, 0
0, 0
0, 0
0, 0
0, 0
0, 0
0, 0
0, 0
0, 0
0, 0
0, 0
0, 0
0, 0
0, 0
0, 0
0, 0
0, 0
0, 0
0, 0
0, 0
0, 0
0, 0
0, 0
0, 0
0, 0
0, 0
0, 0
0, 0
0, 0
0, 0
0, 0
0, 0
0, 0
0, 0
0, 0
0, 0
0, 0
0, 0
0, 0
0, 0
0, 0
0, 0
0, 0
0, 0
0, 0
0, 0
0, 0
0, 0
0, 0
0, 0
0, 0
0, 0
0, 0
0, 0
0, 0
0, 0
0, 0
0, 0
0, 0
0, 0
0, 0
0, 0
0, 0
0, 0
0, 0
0, 0
0, 0
0, 0
0, 0
0, 0
0, 0
0, 0
0, 0
0, 0
0, 0
0, 0
0, 0
0, 0
0, 0
0, 0
0, 0
0, 0
0, 0
0, 0
0, 0
0, 0
0, 0
0, 0
0, 0
0, 0
0, 0
0, 0
0, 0
0, 0
0, 0
0, 0
0, 0
0, 0
0, 0
0, 0
0, 0
0, 0
0, 0
0, 0
0, 0
0, 0
0, 0
0, 0
0, 0
0, 0
0, 0
0, 0
0, 0
0, 0
0, 0
0, 0
0, 0
0, 0
0, 0
0, 0
0, 0
0, 0
0, 0
0, 0
0, 0
0, 0
0, 0
0, 0
0, 0
0, 0
0, 0
0, 0
0, 0
0, 0
0, 0
0, 0
0, 0
0, 0
0, 0
0, 0
0, 0
0, 0
0, 0
0, 0
0, 0
0, 0
0, 0
0, 0
0, 0
0, 0
0, 0
0, 0
0, 0
0, 0
0, 0
0, 0
0, 0
0, 0
0, 0
0, 0
0, 0
0, 0
0, 0
0, 0
0, 0
0, 0
0, 0
0, 0
0, 0
0, 0
0, 0
0, 0
0, 0
0, 0
0, 0
0, 0
0, 0
0, 0
0, 0
0, 0
0, 0
0, 0
0, 0
0, 0
0, 0
0, 0
0, 0
0, 0
0, 0
0, 0
0, 0
0, 0
0, 0
0, 0
0, 0
0, 0
0, 0
0, 0
0, 0
0, 0
0, 0
0, 0
0, 0
0, 0
0, 0
0, 0
0, 0
0, 0
0, 0
0, 0
0, 0
0, 0
0, 0
0, 0
0, 0
0, 0
0, 0
0, 0
0, 0
0, 0
0, 0
0, 0
0, 0
0, 0
0, 0
0, 0
0, 0
0, 0
0, 0
0, 0
0, 0
0, 0
0, 0
0, 0
0, 0
0, 0
0, 0
0, 0
0, 0
0, 0
0, 0
0, 0
0, 0
0, 0
0, 0
0, 0
0, 0
0, 0
0, 0
0, 0
0, 0
0, 0
0, 0
0, 0
0, 0
0, 0
0, 0
0, 0
0, 0
0, 0
0, 0
0, 0
0, 0
0, 0
0, 0
0, 0
0, 0
0, 0
0, 0
0, 0
0, 0
0, 0
0, 0
0, 0
0, 0
0, 0
0, 0
0, 0
0, 0
0, 0
0, 0
0, 0
0, 0
0, 0
0, 0
0, 0
0, 0
0, 0
0, 0
0, 0
0, 0
0, 0
0, 0
0, 0
0, 0
0, 0
0, 0
0, 0
0, 0
0, 0
0, 0
0, 0
0, 0
0, 0
0, 0
0, 0
0, 0
0, 0
#ENDOFDATA     end of spectrum data