File: host_upload/06-09-2024/ps_0852/dump3/ps__0852shot_2291.msa
#FORMAT      : EMSA/MAS spectral data file
#VERSION     : TC202v2.0 PIXL
#TITLE       : N/A
#DATE        :       Date in the format DD-MMM-YYYY, for example 07-JUL-2010
#TIME        :             The time of day at which the spectrum was recorded, in 24-hour format
#OWNER       : PIXL Flight Model       (PIXL will use this to indicate which instrument took the data.)
#NPOINTS     : 4096     Number of data points in the spectrum (This can be zero for configuration only files)
#NCOLUMNS    : 2     Number of data columns in the spectrum (This can be zero for configuration only files)
#XUNITS      : eV
#YUNITS      : COUNTS
#DATATYPE    : YY
#XPERCHAN    : 7.862, 7.881   eV per channel (separate by commas if more than one detector)
#OFFSET      : 18.5, -22.4         eV of first channel  (separate by commas if more than one detector
#SIGNALTYPE  : XRF
#YP_TEMP     : 2.428
#LIVETIME    : 8.55702, 8.56614   seconds (separate by commas if more than one detector)
#REALTIME    : 10, 10.0   seconds (separate by commas if more than one detector)
#SPECTRUM    : start of spectrum data
0, 0
0, 0
0, 0
0, 0
0, 0
0, 0
0, 0
0, 0
0, 0
0, 0
0, 0
0, 0
0, 0
0, 0
0, 0
0, 0
0, 0
0, 0
0, 0
0, 0
0, 0
0, 0
0, 0
0, 0
0, 0
0, 0
0, 0
0, 0
0, 0
0, 0
0, 1
0, 2
0, 1
0, 0
0, 0
2, 0
2, 3
0, 0
2, 0
0, 1
2, 2
4, 3
1, 2
1, 2
0, 1
2, 0
1, 1
3, 2
4, 6
8, 4
19, 24
25, 50
47, 51
58, 73
63, 60
51, 64
46, 44
39, 38
20, 30
16, 16
10, 7
8, 4
2, 6
3, 8
7, 6
2, 5
5, 6
8, 14
19, 12
43, 48
91, 109
124, 141
219, 238
264, 332
339, 400
313, 409
269, 342
222, 281
158, 166
101, 120
46, 57
29, 22
22, 19
6, 13
4, 3
5, 4
5, 4
2, 5
4, 4
2, 1
4, 6
4, 11
13, 21
30, 33
66, 77
97, 113
130, 172
188, 223
223, 281
229, 252
212, 232
160, 203
113, 138
79, 111
55, 78
34, 70
27, 53
16, 48
21, 47
18, 63
29, 54
37, 48
51, 56
49, 66
60, 84
57, 63
53, 57
31, 43
34, 43
27, 38
29, 19
26, 15
24, 34
20, 15
16, 21
22, 21
10, 17
13, 12
10, 15
7, 11
20, 14
2, 5
6, 3
3, 2
6, 2
4, 5
2, 4
7, 5
1, 7
3, 4
1, 4
3, 1
4, 1
7, 5
1, 4
3, 1
2, 2
0, 8
2, 1
4, 7
8, 3
8, 11
16, 23
28, 29
31, 34
50, 53
50, 50
61, 77
57, 70
49, 53
39, 46
28, 32
17, 18
12, 16
5, 9
8, 7
1, 4
8, 5
7, 10
9, 10
9, 9
12, 11
11, 12
12, 10
12, 8
4, 10
6, 10
3, 6
6, 6
6, 2
4, 2
4, 1
1, 4
5, 4
6, 4
7, 2
6, 6
5, 7
3, 9
8, 6
12, 11
4, 11
8, 9
11, 14
17, 12
9, 18
20, 24
19, 23
15, 11
20, 11
19, 19
12, 7
13, 6
13, 15
5, 19
5, 19
6, 25
5, 33
7, 47
8, 46
6, 64
8, 74
9, 67
6, 66
7, 52
6, 43
7, 33
3, 23
4, 23
4, 11
3, 11
6, 8
10, 5
7, 5
12, 12
8, 10
11, 17
15, 17
29, 20
20, 24
26, 17
32, 31
30, 19
22, 12
21, 16
15, 12
15, 5
9, 4
12, 6
11, 6
12, 12
11, 6
12, 6
7, 15
10, 15
9, 19
19, 26
38, 41
33, 52
51, 69
60, 76
60, 75
65, 70
40, 48
40, 37
35, 31
28, 22
12, 20
19, 15
15, 13
15, 23
32, 24
42, 43
58, 119
153, 204
265, 348
403, 618
616, 918
1122, 1385
1379, 1846
1762, 2141
1954, 2508
2201, 2515
2193, 2373
1988, 2077
1611, 1546
1290, 1218
941, 773
633, 442
397, 285
248, 156
140, 83
72, 48
48, 27
36, 27
16, 18
18, 21
11, 14
15, 22
20, 20
19, 20
22, 39
35, 52
81, 102
74, 126
111, 191
195, 224
220, 261
269, 335
308, 353
301, 353
273, 338
249, 297
246, 236
180, 163
87, 107
81, 72
49, 47
26, 29
21, 15
11, 12
7, 12
4, 19
8, 19
13, 31
10, 32
13, 34
15, 44
17, 38
12, 27
17, 21
13, 22
12, 19
10, 8
7, 12
7, 6
2, 5
4, 5
2, 6
2, 8
2, 3
4, 3
6, 8
4, 6
4, 6
5, 7
0, 5
3, 10
3, 3
1, 3
5, 8
4, 4
5, 6
5, 4
3, 5
3, 8
7, 5
7, 5
7, 14
5, 11
5, 4
5, 7
4, 6
5, 7
1, 5
2, 8
5, 4
4, 8
2, 5
3, 6
1, 2
5, 5
2, 2
8, 3
6, 9
1, 1
7, 5
2, 7
3, 3
5, 5
7, 7
6, 5
1, 3
2, 5
7, 3
8, 4
4, 2
2, 7
4, 4
3, 4
4, 0
3, 4
1, 3
2, 3
3, 7
2, 5
3, 9
1, 5
4, 7
4, 8
4, 5
2, 8
3, 4
3, 7
4, 4
2, 4
5, 5
2, 2
2, 4
4, 3
3, 6
2, 3
1, 4
1, 2
1, 1
4, 2
3, 4
3, 4
1, 6
3, 7
4, 5
5, 6
3, 5
7, 8
7, 6
4, 9
6, 14
3, 7
7, 11
2, 13
3, 14
6, 13
5, 14
4, 5
3, 8
2, 10
3, 4
1, 9
5, 2
3, 4
5, 6
2, 0
3, 6
3, 1
4, 2
5, 2
0, 3
2, 4
3, 1
4, 2
5, 1
2, 3
5, 3
4, 3
6, 3
3, 1
1, 3
1, 2
4, 2
4, 1
6, 3
5, 3
4, 3
2, 4
8, 4
3, 3
6, 0
5, 1
6, 4
5, 2
10, 2
14, 6
15, 2
13, 2
7, 0
6, 3
6, 1
7, 2
5, 2
3, 1
3, 0
3, 3
2, 2
3, 1
1, 1
3, 0
0, 6
4, 2
0, 7
0, 3
1, 2
3, 0
0, 5
4, 0
2, 2
4, 6
2, 4
2, 4
2, 3
2, 5
1, 3
1, 5
1, 7
0, 4
2, 5
2, 5
1, 2
2, 3
3, 1
2, 6
4, 2
2, 0
1, 4
0, 0
1, 1
3, 1
0, 3
4, 2
3, 2
1, 3
1, 1
0, 0
4, 0
0, 3
2, 3
5, 1
1, 3
1, 0
4, 1
1, 3
2, 5
1, 3
2, 2
1, 2
0, 1
1, 1
1, 1
1, 3
0, 2
3, 1
3, 4
4, 1
2, 0
2, 0
2, 2
4, 2
3, 3
2, 2
3, 1
2, 5
2, 2
7, 5
1, 5
7, 1
4, 6
4, 3
2, 4
4, 3
0, 2
7, 4
0, 1
3, 3
2, 6
0, 1
2, 2
0, 5
2, 3
1, 1
1, 3
0, 1
2, 3
0, 2
2, 3
0, 6
3, 4
0, 1
5, 2
4, 1
2, 3
2, 0
2, 0
1, 3
2, 2
4, 0
4, 2
2, 1
4, 2
0, 1
1, 0
1, 3
4, 0
0, 1
1, 0
0, 1
2, 0
0, 1
1, 2
0, 1
1, 1
1, 2
4, 0
2, 0
2, 0
1, 0
1, 1
0, 1
1, 3
1, 0
2, 0
2, 0
1, 1
0, 0
0, 0
1, 0
0, 1
3, 0
1, 2
2, 1
0, 3
1, 2
1, 2
2, 0
0, 1
1, 1
1, 2
1, 0
0, 0
1, 0
0, 0
2, 1
1, 0
0, 0
1, 0
0, 2
0, 1
2, 0
0, 0
0, 2
1, 4
0, 0
0, 0
0, 2
2, 0
0, 3
1, 0
0, 0
0, 1
1, 1
0, 1
0, 0
1, 0
1, 0
0, 0
1, 0
0, 0
0, 1
1, 0
1, 0
2, 0
0, 1
1, 0
1, 0
0, 0
0, 0
2, 0
1, 1
1, 1
0, 1
1, 2
0, 1
0, 1
1, 1
1, 1
1, 0
1, 2
0, 0
1, 1
0, 0
0, 0
0, 0
1, 1
1, 0
0, 0
0, 1
2, 1
0, 0
0, 1
0, 1
0, 1
0, 0
0, 0
0, 1
2, 1
0, 1
0, 1
0, 0
0, 1
1, 1
0, 0
1, 0
0, 0
0, 0
0, 1
0, 0
0, 0
2, 0
2, 0
0, 0
1, 1
0, 0
0, 0
0, 0
0, 0
1, 1
0, 0
1, 0
0, 0
0, 0
1, 0
0, 1
0, 0
2, 1
0, 0
0, 1
0, 0
3, 0
0, 1
0, 0
0, 0
0, 0
1, 1
0, 0
0, 1
1, 0
0, 0
1, 0
0, 0
0, 0
0, 0
0, 1
0, 0
0, 0
0, 0
0, 0
0, 0
0, 0
1, 1
0, 0
0, 0
0, 1
0, 0
1, 0
0, 0
0, 1
0, 1
1, 0
1, 0
1, 0
0, 0
0, 0
0, 0
0, 0
1, 1
1, 0
0, 0
1, 0
0, 0
2, 0
0, 0
0, 1
0, 0
0, 0
0, 0
0, 0
0, 0
0, 0
0, 0
0, 0
0, 0
0, 0
0, 0
0, 0
0, 0
0, 0
0, 0
0, 0
0, 0
0, 0
0, 0
0, 0
0, 0
0, 0
0, 0
1, 0
0, 1
0, 0
0, 0
0, 0
0, 1
1, 0
0, 2
0, 0
0, 0
0, 0
0, 0
0, 1
0, 0
0, 0
0, 0
0, 0
0, 0
0, 0
0, 1
1, 0
0, 0
0, 0
0, 0
0, 0
0, 1
0, 1
0, 0
0, 0
0, 0
0, 0
0, 0
0, 1
0, 0
0, 0
0, 0
0, 0
0, 0
0, 0
0, 1
0, 0
0, 1
0, 0
0, 0
0, 1
0, 0
1, 0
0, 0
0, 0
0, 1
0, 0
1, 0
1, 0
0, 0
0, 0
0, 0
0, 0
0, 0
0, 0
0, 0
1, 0
0, 1
1, 0
0, 0
0, 0
0, 0
0, 0
0, 0
0, 0
0, 0
0, 0
0, 0
0, 1
0, 1
0, 0
0, 0
0, 0
0, 0
0, 0
0, 0
0, 0
0, 0
0, 0
0, 0
0, 0
0, 0
1, 0
0, 0
0, 0
0, 0
0, 0
0, 1
0, 2
0, 0
0, 1
0, 0
0, 0
0, 0
0, 0
0, 0
0, 0
0, 0
0, 1
0, 0
0, 0
1, 0
0, 0
0, 0
0, 1
0, 1
0, 0
0, 0
0, 0
0, 0
0, 0
0, 0
0, 0
0, 0
0, 0
0, 0
0, 0
0, 0
0, 0
0, 0
0, 0
0, 1
0, 0
0, 0
0, 0
0, 0
0, 0
0, 0
0, 0
0, 0
0, 0
0, 0
0, 0
0, 0
0, 1
0, 0
0, 0
0, 0
0, 0
0, 0
0, 0
0, 0
0, 0
0, 0
0, 0
0, 0
0, 0
0, 0
0, 0
0, 0
0, 0
0, 0
0, 1
0, 0
1, 0
0, 0
0, 0
0, 0
0, 0
0, 0
0, 0
0, 0
0, 0
0, 0
0, 0
0, 0
0, 0
0, 0
0, 0
0, 0
0, 0
0, 0
0, 0
0, 0
0, 0
0, 0
0, 0
0, 0
0, 0
0, 0
0, 0
0, 0
0, 0
0, 0
0, 0
0, 0
0, 0
0, 0
0, 0
0, 0
0, 0
0, 0
0, 0
0, 0
0, 0
0, 0
0, 0
0, 0
0, 0
0, 0
0, 0
0, 0
0, 0
0, 0
0, 0
0, 0
0, 0
0, 0
0, 0
0, 0
0, 0
0, 0
0, 0
0, 0
0, 0
0, 0
0, 0
0, 0
0, 0
0, 0
0, 0
0, 0
0, 0
0, 0
0, 0
0, 0
0, 0
0, 0
0, 0
0, 0
0, 0
0, 0
0, 0
0, 0
0, 0
0, 0
0, 0
0, 0
0, 0
0, 0
0, 0
0, 0
0, 0
0, 0
0, 0
0, 0
0, 0
0, 0
0, 0
0, 0
0, 0
0, 0
0, 0
0, 0
0, 0
0, 0
0, 0
0, 0
0, 0
0, 0
0, 0
0, 0
0, 0
0, 0
0, 0
0, 0
0, 0
0, 0
0, 0
0, 0
0, 0
0, 0
0, 0
0, 0
0, 0
0, 0
0, 0
0, 0
0, 0
0, 0
0, 0
0, 0
0, 0
0, 0
0, 0
0, 0
0, 0
0, 0
0, 0
0, 0
0, 0
0, 0
0, 0
0, 0
0, 0
0, 0
0, 0
0, 0
0, 0
0, 0
0, 0
0, 0
0, 0
0, 0
0, 0
0, 0
0, 0
0, 0
0, 0
0, 0
0, 0
0, 0
0, 0
0, 0
0, 0
0, 0
0, 0
0, 0
0, 0
0, 0
0, 0
0, 0
0, 0
0, 0
0, 0
0, 0
0, 0
0, 0
0, 0
0, 0
0, 0
0, 0
0, 0
0, 0
0, 0
0, 0
0, 0
0, 0
0, 0
0, 0
0, 0
0, 0
0, 0
0, 0
0, 0
0, 0
0, 0
0, 0
0, 0
0, 0
0, 0
0, 0
0, 0
0, 0
0, 0
0, 0
0, 0
0, 0
0, 0
0, 0
0, 0
0, 0
0, 0
0, 0
0, 0
0, 0
0, 0
0, 0
0, 0
0, 0
0, 0
0, 0
0, 0
0, 0
0, 0
0, 0
0, 0
0, 0
0, 0
0, 0
0, 0
0, 0
0, 0
0, 0
0, 0
0, 0
0, 0
0, 0
0, 0
0, 0
0, 0
0, 0
0, 0
0, 0
0, 0
0, 0
0, 0
0, 0
0, 0
0, 0
0, 0
0, 0
0, 0
0, 0
0, 0
0, 0
0, 0
0, 0
0, 0
0, 0
0, 0
0, 0
0, 0
0, 0
0, 0
0, 0
0, 0
0, 0
0, 0
0, 0
0, 0
0, 0
0, 0
0, 0
0, 0
0, 0
0, 0
0, 0
0, 0
0, 0
0, 0
0, 0
0, 0
0, 0
0, 0
0, 0
0, 0
0, 0
0, 0
0, 0
0, 0
0, 0
0, 0
0, 0
0, 0
0, 0
0, 0
0, 0
0, 0
0, 0
0, 0
0, 0
0, 0
0, 0
0, 0
0, 0
0, 0
0, 0
0, 0
0, 0
0, 0
0, 0
0, 0
0, 0
0, 0
0, 0
0, 0
0, 0
0, 0
0, 0
0, 0
0, 0
0, 0
0, 0
0, 0
0, 0
0, 0
0, 0
0, 0
0, 0
0, 0
0, 0
0, 0
0, 0
0, 0
0, 0
0, 0
0, 0
0, 0
0, 0
0, 0
0, 0
0, 0
0, 0
0, 0
0, 0
0, 0
0, 0
0, 0
0, 0
0, 0
0, 0
0, 0
0, 0
0, 0
0, 0
0, 0
0, 0
0, 0
0, 0
0, 0
0, 0
0, 0
0, 0
0, 0
0, 0
0, 0
0, 0
0, 0
0, 0
0, 0
0, 0
0, 0
0, 0
0, 0
0, 0
0, 0
0, 0
0, 0
0, 0
0, 0
0, 0
0, 0
0, 0
0, 0
0, 0
0, 0
0, 0
0, 0
0, 0
0, 0
0, 0
0, 0
0, 0
0, 0
0, 0
0, 0
0, 0
0, 0
0, 0
0, 0
0, 0
0, 0
0, 0
0, 0
0, 0
0, 0
0, 0
0, 0
0, 0
0, 0
0, 0
0, 0
0, 0
0, 0
0, 0
0, 0
0, 0
0, 0
0, 0
0, 0
0, 0
0, 0
0, 0
0, 0
0, 0
0, 0
0, 0
0, 0
#ENDOFDATA     end of spectrum data