File: host_upload/06-09-2024/ps_0852/dump3/ps__0852shot_2101.msa
#FORMAT      : EMSA/MAS spectral data file
#VERSION     : TC202v2.0 PIXL
#TITLE       : N/A
#DATE        :       Date in the format DD-MMM-YYYY, for example 07-JUL-2010
#TIME        :             The time of day at which the spectrum was recorded, in 24-hour format
#OWNER       : PIXL Flight Model       (PIXL will use this to indicate which instrument took the data.)
#NPOINTS     : 4096     Number of data points in the spectrum (This can be zero for configuration only files)
#NCOLUMNS    : 2     Number of data columns in the spectrum (This can be zero for configuration only files)
#XUNITS      : eV
#YUNITS      : COUNTS
#DATATYPE    : YY
#XPERCHAN    : 7.862, 7.881   eV per channel (separate by commas if more than one detector)
#OFFSET      : 18.5, -22.4         eV of first channel  (separate by commas if more than one detector
#SIGNALTYPE  : XRF
#YP_TEMP     : 2.139
#LIVETIME    : 8.54104, 8.53402   seconds (separate by commas if more than one detector)
#REALTIME    : 10, 10.0   seconds (separate by commas if more than one detector)
#SPECTRUM    : start of spectrum data
0, 0
0, 0
0, 0
0, 0
0, 0
0, 0
0, 0
0, 0
0, 0
0, 0
0, 0
0, 0
0, 0
0, 0
0, 0
0, 0
0, 0
0, 0
0, 0
0, 0
0, 0
0, 0
0, 0
0, 0
0, 0
0, 0
0, 0
0, 0
0, 0
0, 0
0, 1
0, 0
0, 1
1, 0
0, 2
0, 1
2, 0
0, 1
1, 3
2, 3
2, 3
2, 2
2, 5
1, 0
2, 1
1, 1
3, 2
3, 4
3, 5
7, 12
20, 33
19, 37
41, 43
68, 69
57, 72
59, 64
38, 46
28, 47
30, 26
11, 13
11, 9
1, 6
4, 4
1, 1
1, 1
3, 2
4, 4
4, 9
14, 22
25, 43
51, 71
91, 143
154, 197
223, 271
253, 319
265, 330
239, 291
180, 197
114, 151
94, 77
52, 55
27, 27
14, 22
6, 8
10, 5
5, 4
5, 2
7, 5
3, 1
6, 7
8, 4
11, 19
19, 32
47, 62
79, 116
144, 200
201, 300
283, 394
348, 416
356, 438
317, 413
272, 306
183, 216
117, 137
83, 108
52, 71
35, 33
34, 38
34, 39
28, 35
47, 49
45, 55
68, 58
54, 81
70, 57
72, 75
60, 66
53, 54
48, 41
41, 35
28, 29
17, 26
31, 37
22, 27
23, 27
15, 24
9, 12
17, 15
13, 14
13, 9
7, 2
8, 4
4, 6
1, 6
6, 4
7, 2
5, 3
2, 4
5, 3
5, 2
3, 2
1, 5
2, 4
2, 7
3, 4
1, 4
2, 3
0, 4
4, 5
3, 2
5, 6
4, 14
10, 12
20, 27
17, 32
45, 54
38, 66
46, 64
53, 68
41, 50
35, 53
29, 42
34, 42
26, 21
11, 35
14, 32
10, 26
10, 28
13, 23
12, 23
12, 12
17, 12
13, 14
7, 12
3, 4
9, 4
8, 5
4, 4
8, 7
3, 8
4, 7
4, 5
3, 8
4, 5
5, 8
3, 5
4, 4
7, 7
4, 11
8, 10
11, 15
9, 12
8, 6
11, 20
12, 15
11, 16
13, 13
17, 18
14, 15
11, 19
10, 22
14, 14
10, 17
7, 15
10, 15
7, 11
6, 17
8, 7
8, 10
14, 5
10, 7
9, 6
5, 10
8, 5
5, 8
6, 14
6, 6
5, 5
4, 4
5, 2
5, 5
2, 3
8, 6
7, 6
11, 7
5, 8
11, 19
25, 14
34, 13
26, 23
46, 15
57, 11
57, 14
62, 17
66, 10
56, 9
42, 8
32, 5
27, 3
15, 8
11, 7
12, 11
19, 16
16, 15
18, 22
30, 20
31, 36
48, 43
61, 67
68, 60
88, 75
84, 64
97, 61
74, 52
65, 43
46, 27
49, 20
27, 23
26, 20
24, 14
32, 26
32, 31
42, 67
61, 121
136, 200
237, 399
414, 652
604, 1015
971, 1393
1208, 1923
1586, 2262
1855, 2560
1907, 2710
1982, 2560
1798, 2124
1397, 1654
1069, 1173
777, 825
467, 474
314, 271
160, 154
88, 95
57, 49
26, 33
21, 24
13, 14
6, 12
14, 14
19, 21
16, 21
21, 32
28, 44
38, 53
56, 89
96, 136
160, 181
174, 259
209, 296
251, 380
279, 352
306, 370
313, 362
273, 301
202, 238
161, 160
120, 118
79, 65
35, 28
37, 29
21, 14
20, 7
9, 11
15, 10
11, 17
18, 12
6, 15
20, 19
13, 5
10, 16
15, 19
9, 22
11, 6
5, 8
11, 5
13, 4
6, 8
1, 7
6, 4
5, 7
2, 12
1, 7
3, 3
4, 11
5, 12
5, 8
1, 10
4, 15
6, 11
2, 11
3, 4
8, 3
10, 6
8, 5
4, 7
8, 5
4, 5
6, 5
7, 2
7, 5
1, 5
6, 6
0, 8
8, 5
10, 6
4, 2
11, 6
7, 9
5, 2
6, 3
9, 2
6, 4
9, 7
10, 3
7, 2
4, 6
10, 6
6, 8
3, 4
9, 3
5, 2
3, 11
10, 6
15, 7
10, 8
12, 8
13, 2
14, 6
22, 7
16, 5
15, 7
20, 9
23, 11
15, 10
13, 9
8, 8
8, 6
4, 11
5, 8
4, 6
5, 6
5, 5
1, 2
2, 4
3, 6
1, 3
2, 5
5, 2
6, 1
3, 1
3, 2
6, 2
7, 3
1, 3
1, 1
2, 8
6, 4
4, 3
2, 5
3, 6
2, 7
3, 4
1, 11
0, 6
1, 6
2, 3
1, 3
5, 5
2, 7
0, 3
1, 3
4, 7
4, 2
5, 2
0, 1
3, 2
4, 2
2, 5
0, 1
2, 2
2, 3
3, 1
1, 1
0, 3
5, 6
3, 2
3, 4
2, 7
4, 6
1, 3
1, 3
0, 4
3, 0
2, 0
4, 4
1, 4
5, 2
3, 6
3, 1
2, 1
2, 3
0, 1
2, 3
5, 4
3, 0
2, 3
0, 4
2, 0
2, 3
1, 1
0, 0
4, 3
0, 2
3, 6
2, 4
7, 1
6, 5
6, 1
5, 6
6, 4
3, 6
2, 1
2, 3
3, 4
2, 0
1, 3
1, 3
0, 3
2, 5
3, 2
3, 3
0, 2
1, 3
2, 3
0, 2
1, 0
1, 1
4, 0
2, 4
2, 3
2, 3
0, 2
1, 2
3, 3
1, 0
2, 4
2, 4
1, 6
1, 7
1, 5
2, 1
1, 2
1, 6
0, 4
3, 4
5, 4
1, 4
3, 2
3, 2
0, 0
2, 1
2, 4
1, 2
1, 0
2, 1
2, 4
2, 1
0, 2
0, 2
3, 2
1, 0
1, 5
4, 7
2, 4
2, 4
0, 2
1, 4
1, 2
0, 2
2, 3
2, 2
2, 0
1, 5
1, 1
4, 4
1, 1
3, 4
1, 2
5, 4
4, 3
2, 4
2, 6
3, 4
4, 6
5, 3
1, 1
3, 6
3, 1
0, 3
0, 4
1, 5
3, 4
1, 2
2, 2
0, 2
3, 0
2, 1
2, 1
0, 1
0, 3
2, 1
0, 1
2, 2
1, 0
3, 0
0, 1
0, 2
2, 2
0, 0
2, 4
6, 0
1, 4
0, 2
4, 1
2, 0
2, 4
0, 2
0, 1
0, 3
1, 1
0, 1
1, 1
1, 1
2, 3
0, 0
0, 0
0, 0
2, 0
0, 1
1, 0
0, 0
1, 1
1, 1
0, 0
1, 2
2, 2
1, 1
1, 1
1, 0
1, 0
0, 0
2, 1
0, 4
2, 0
2, 1
0, 1
1, 0
0, 0
0, 0
0, 3
1, 1
2, 2
1, 1
1, 1
1, 1
1, 0
0, 1
1, 0
3, 0
0, 1
2, 0
1, 1
0, 1
1, 1
0, 2
1, 1
1, 1
1, 0
1, 1
0, 0
3, 1
0, 3
0, 1
1, 1
0, 1
1, 1
1, 1
0, 1
0, 0
1, 1
0, 2
2, 0
0, 0
1, 0
0, 1
1, 3
0, 1
1, 0
0, 0
0, 4
1, 0
0, 1
2, 0
1, 0
0, 0
0, 0
1, 1
1, 1
1, 1
0, 0
1, 0
0, 1
1, 0
0, 0
0, 0
0, 0
1, 0
2, 1
0, 4
0, 0
0, 1
1, 2
1, 1
1, 0
2, 1
0, 0
1, 0
1, 2
0, 1
0, 1
0, 2
1, 0
0, 1
1, 2
0, 0
1, 0
0, 0
0, 0
0, 0
0, 0
2, 2
1, 0
1, 0
0, 1
1, 1
1, 0
0, 0
0, 0
1, 0
1, 1
0, 0
0, 0
0, 0
0, 0
0, 0
0, 0
0, 1
0, 0
1, 0
0, 0
3, 0
1, 0
0, 1
0, 2
0, 1
1, 0
0, 0
0, 1
1, 0
0, 0
0, 0
1, 0
0, 0
0, 0
0, 0
0, 0
0, 1
0, 0
0, 0
1, 1
2, 1
0, 1
2, 0
0, 1
0, 2
0, 0
0, 0
0, 1
0, 1
1, 0
1, 0
0, 0
0, 0
0, 0
0, 0
0, 0
1, 0
0, 0
0, 0
1, 0
0, 0
0, 0
0, 0
0, 0
0, 0
0, 0
0, 0
0, 0
0, 0
0, 0
0, 0
0, 0
1, 0
0, 0
0, 1
1, 0
1, 0
0, 2
0, 1
0, 0
0, 0
0, 0
0, 0
0, 0
2, 0
0, 0
0, 0
0, 0
0, 0
1, 0
0, 0
1, 1
0, 0
0, 0
0, 1
0, 1
1, 0
0, 0
0, 0
0, 1
0, 2
1, 1
0, 0
1, 1
1, 1
0, 0
0, 1
0, 1
1, 0
1, 0
1, 0
0, 0
0, 0
0, 0
0, 0
0, 0
1, 0
0, 0
1, 2
0, 1
1, 0
0, 1
0, 0
0, 0
0, 1
0, 1
1, 0
1, 0
0, 0
0, 0
0, 0
0, 0
0, 0
0, 0
0, 0
0, 1
0, 0
0, 1
0, 0
0, 0
0, 0
0, 0
0, 0
0, 0
0, 0
0, 0
1, 0
0, 0
0, 0
0, 0
1, 0
0, 0
0, 0
0, 0
0, 0
1, 2
0, 1
0, 0
0, 0
0, 0
1, 0
0, 0
0, 0
0, 0
0, 0
0, 0
0, 0
1, 0
0, 0
0, 0
0, 0
0, 0
0, 0
0, 0
1, 0
0, 0
0, 0
0, 0
0, 0
0, 0
0, 0
0, 0
0, 0
0, 0
0, 0
0, 0
0, 0
0, 0
0, 0
0, 0
0, 0
0, 0
0, 0
0, 0
0, 0
0, 0
0, 0
0, 0
0, 1
0, 0
1, 0
0, 0
0, 0
0, 0
0, 0
0, 0
0, 1
0, 0
0, 0
0, 0
0, 0
0, 0
0, 0
0, 0
0, 0
0, 0
0, 0
0, 0
0, 0
0, 0
0, 0
0, 0
1, 0
0, 0
0, 0
0, 0
0, 0
0, 0
0, 0
0, 0
0, 0
0, 0
0, 0
0, 0
0, 0
0, 0
0, 0
0, 0
0, 0
0, 0
0, 0
0, 0
0, 0
0, 0
0, 0
0, 0
0, 0
0, 0
0, 0
0, 0
0, 0
0, 0
0, 0
0, 0
0, 0
0, 0
0, 0
0, 0
0, 0
0, 0
0, 0
0, 0
0, 0
0, 0
0, 1
0, 0
0, 0
0, 0
0, 0
0, 0
0, 0
0, 0
0, 1
0, 0
0, 0
0, 0
0, 0
0, 0
0, 0
0, 0
0, 0
0, 0
0, 0
0, 0
0, 0
0, 0
0, 0
0, 0
0, 0
0, 0
0, 0
0, 0
0, 1
0, 0
0, 0
0, 0
0, 0
0, 0
0, 0
0, 0
0, 0
0, 0
0, 0
0, 0
0, 0
0, 0
0, 0
0, 0
0, 0
0, 0
0, 0
0, 0
0, 0
0, 0
0, 0
0, 0
0, 0
0, 0
0, 0
0, 0
0, 0
0, 0
0, 0
0, 0
0, 0
0, 0
0, 0
0, 0
0, 0
0, 0
0, 0
0, 0
0, 0
0, 0
0, 0
0, 0
1, 0
0, 0
0, 0
0, 0
0, 0
0, 0
0, 0
0, 0
0, 0
0, 0
0, 0
0, 0
0, 0
0, 0
0, 0
0, 0
0, 0
0, 0
0, 0
0, 0
0, 0
0, 0
0, 0
0, 0
0, 0
0, 0
0, 0
0, 0
0, 0
0, 0
0, 0
0, 0
0, 0
0, 0
0, 0
0, 0
0, 0
0, 0
0, 0
0, 0
0, 0
0, 0
0, 0
0, 0
0, 0
0, 0
0, 0
0, 0
0, 0
0, 0
0, 0
0, 0
0, 0
0, 0
0, 0
0, 0
0, 0
0, 0
0, 0
0, 0
0, 0
0, 0
0, 0
0, 0
0, 0
0, 0
0, 0
0, 0
0, 0
0, 0
0, 0
0, 0
0, 0
0, 0
0, 0
0, 0
0, 0
0, 0
0, 0
0, 0
0, 0
0, 0
0, 0
0, 0
0, 0
0, 0
0, 0
0, 0
0, 0
0, 0
0, 0
0, 0
0, 0
0, 0
0, 0
0, 0
0, 0
0, 0
0, 0
0, 0
0, 0
0, 0
0, 0
0, 0
0, 0
0, 0
0, 0
0, 0
0, 0
0, 0
0, 0
0, 0
0, 0
0, 0
0, 0
0, 0
0, 0
0, 0
0, 0
0, 0
0, 0
0, 0
0, 0
0, 0
0, 0
0, 0
0, 0
0, 0
0, 0
0, 0
0, 0
0, 0
0, 0
0, 0
0, 0
0, 0
0, 0
0, 0
0, 0
0, 0
0, 0
0, 0
0, 0
0, 0
0, 0
0, 0
0, 0
0, 0
0, 0
0, 0
0, 0
0, 0
0, 0
0, 0
0, 0
0, 0
0, 0
0, 0
0, 0
0, 0
0, 0
0, 0
0, 0
0, 0
0, 0
0, 0
0, 0
0, 0
0, 0
0, 0
0, 0
0, 0
0, 0
0, 0
0, 0
0, 0
0, 0
0, 0
0, 0
0, 0
0, 0
0, 0
0, 0
0, 0
0, 0
0, 0
0, 0
0, 0
0, 0
0, 0
0, 0
0, 0
0, 0
0, 0
0, 0
0, 0
0, 0
0, 0
0, 0
0, 0
0, 0
0, 0
0, 0
0, 0
0, 0
0, 0
0, 0
0, 0
0, 0
0, 0
0, 0
0, 0
0, 0
0, 0
0, 0
0, 0
0, 0
0, 0
0, 0
0, 0
0, 0
0, 0
0, 0
0, 0
0, 0
0, 0
0, 0
0, 0
0, 0
0, 0
0, 0
0, 0
0, 0
0, 0
0, 0
0, 0
0, 0
0, 0
0, 0
0, 0
0, 0
0, 0
0, 0
0, 0
0, 0
0, 0
0, 0
0, 0
0, 0
0, 0
0, 0
0, 0
0, 0
0, 0
0, 0
0, 0
0, 0
0, 0
0, 0
0, 0
0, 0
0, 0
0, 0
0, 0
0, 0
0, 0
0, 0
0, 0
0, 0
0, 0
0, 0
0, 0
0, 0
0, 0
0, 0
0, 0
0, 0
0, 0
0, 0
0, 0
0, 0
0, 0
0, 0
0, 0
0, 0
0, 0
0, 0
0, 0
0, 0
0, 0
0, 0
0, 0
0, 0
0, 0
0, 0
0, 0
0, 0
0, 0
0, 0
0, 0
0, 0
0, 0
0, 0
0, 0
0, 0
0, 0
0, 0
0, 0
0, 0
0, 0
0, 0
0, 0
0, 0
0, 0
0, 0
0, 0
0, 0
0, 0
0, 0
0, 0
0, 0
0, 0
0, 0
0, 0
0, 0
0, 0
0, 0
0, 0
0, 0
0, 0
0, 0
0, 0
0, 0
0, 0
0, 0
0, 0
0, 0
0, 0
0, 0
0, 0
0, 0
#ENDOFDATA     end of spectrum data