File: host_upload/06-09-2024/ps_0852/dump3/ps__0852shot_2319.msa
#FORMAT      : EMSA/MAS spectral data file
#VERSION     : TC202v2.0 PIXL
#TITLE       : N/A
#DATE        :       Date in the format DD-MMM-YYYY, for example 07-JUL-2010
#TIME        :             The time of day at which the spectrum was recorded, in 24-hour format
#OWNER       : PIXL Flight Model       (PIXL will use this to indicate which instrument took the data.)
#NPOINTS     : 4096     Number of data points in the spectrum (This can be zero for configuration only files)
#NCOLUMNS    : 2     Number of data columns in the spectrum (This can be zero for configuration only files)
#XUNITS      : eV
#YUNITS      : COUNTS
#DATATYPE    : YY
#XPERCHAN    : 7.862, 7.881   eV per channel (separate by commas if more than one detector)
#OFFSET      : 18.5, -22.4         eV of first channel  (separate by commas if more than one detector
#SIGNALTYPE  : XRF
#YP_TEMP     : 2.428
#LIVETIME    : 8.54354, 8.53609   seconds (separate by commas if more than one detector)
#REALTIME    : 10, 10.0   seconds (separate by commas if more than one detector)
#SPECTRUM    : start of spectrum data
0, 0
0, 0
0, 0
0, 0
0, 0
0, 0
0, 0
0, 0
0, 0
0, 0
0, 0
0, 0
0, 0
0, 0
0, 0
0, 0
0, 0
0, 0
0, 0
0, 0
0, 0
0, 0
0, 0
0, 0
0, 0
0, 0
0, 0
0, 0
0, 0
0, 0
0, 0
0, 1
0, 0
0, 0
1, 1
1, 0
0, 0
2, 0
1, 2
2, 1
3, 3
1, 1
2, 1
1, 1
3, 1
1, 2
3, 2
2, 2
8, 2
11, 5
16, 10
25, 33
40, 25
52, 38
58, 38
51, 40
48, 26
38, 21
19, 11
13, 13
10, 3
2, 2
2, 5
0, 2
7, 4
9, 9
12, 2
15, 6
27, 18
51, 31
96, 63
152, 146
269, 225
365, 282
405, 320
442, 337
363, 290
307, 229
211, 143
141, 99
66, 50
38, 24
33, 13
11, 5
11, 5
4, 3
2, 1
5, 0
3, 1
8, 2
1, 2
2, 2
2, 1
4, 2
10, 8
15, 7
21, 20
33, 20
38, 30
32, 19
20, 19
23, 17
14, 11
9, 9
6, 19
5, 11
8, 17
21, 16
25, 27
47, 35
66, 50
89, 69
106, 80
136, 83
100, 81
96, 95
87, 93
89, 91
60, 57
45, 32
61, 24
49, 25
32, 31
22, 32
25, 37
18, 23
20, 22
20, 16
25, 16
15, 8
14, 9
7, 3
5, 7
10, 4
7, 6
9, 1
2, 5
7, 2
11, 4
6, 3
7, 2
6, 4
4, 5
1, 1
1, 1
5, 5
8, 5
1, 1
7, 7
12, 8
13, 6
27, 28
48, 47
87, 71
126, 112
163, 162
199, 189
194, 185
219, 180
191, 145
139, 120
102, 86
72, 51
31, 26
27, 19
14, 19
20, 12
26, 16
36, 21
33, 24
50, 27
40, 28
42, 28
24, 17
30, 15
23, 17
24, 11
16, 16
12, 9
8, 5
10, 4
16, 3
11, 7
8, 5
8, 5
6, 7
7, 3
6, 6
7, 13
13, 15
15, 17
20, 14
16, 21
21, 12
29, 16
17, 13
28, 13
27, 12
24, 13
41, 13
33, 17
59, 10
63, 13
80, 9
97, 3
93, 8
109, 4
89, 12
94, 10
70, 8
55, 5
34, 12
21, 11
18, 9
10, 11
8, 6
11, 16
9, 5
7, 7
6, 15
15, 12
9, 11
16, 9
14, 11
21, 24
46, 42
56, 61
67, 59
79, 90
106, 102
111, 111
99, 90
91, 90
94, 78
51, 53
40, 25
34, 25
17, 21
13, 15
11, 5
16, 6
9, 5
10, 5
20, 13
14, 19
28, 18
37, 31
42, 41
60, 57
81, 60
75, 63
77, 62
82, 82
73, 62
66, 39
68, 29
37, 28
30, 16
23, 14
21, 15
19, 26
29, 28
39, 40
88, 71
167, 152
302, 303
510, 494
821, 737
1157, 1109
1640, 1463
2029, 1798
2309, 1976
2491, 2024
2405, 1801
2124, 1547
1787, 1205
1357, 887
941, 553
624, 386
372, 208
187, 113
112, 65
53, 26
35, 17
22, 19
23, 18
18, 17
16, 12
20, 12
35, 16
28, 23
36, 35
49, 38
64, 63
103, 94
147, 154
196, 165
273, 240
308, 298
330, 332
373, 345
353, 261
300, 228
263, 194
179, 119
142, 82
97, 54
65, 28
41, 18
21, 8
19, 10
14, 6
4, 7
10, 6
17, 5
8, 16
16, 6
7, 19
16, 15
16, 7
11, 8
7, 7
10, 6
6, 6
7, 10
8, 0
7, 4
2, 2
7, 5
6, 4
6, 4
6, 5
4, 4
2, 4
5, 5
6, 2
9, 6
11, 5
10, 11
14, 4
15, 6
23, 9
21, 3
19, 4
25, 2
19, 6
19, 6
16, 4
13, 3
12, 6
17, 2
3, 4
8, 6
3, 5
5, 7
11, 5
5, 4
5, 5
5, 3
3, 1
3, 1
4, 5
5, 3
1, 5
5, 5
3, 4
4, 5
5, 6
8, 2
5, 2
5, 4
4, 5
2, 4
3, 4
3, 4
4, 3
7, 4
5, 4
4, 5
8, 5
1, 4
5, 3
8, 3
5, 5
6, 4
10, 4
8, 3
9, 4
12, 3
8, 5
5, 4
5, 3
5, 4
5, 1
5, 2
4, 10
3, 4
6, 5
4, 4
5, 2
3, 2
8, 6
1, 2
4, 0
4, 2
5, 3
6, 1
7, 3
4, 2
3, 3
7, 6
7, 4
8, 5
1, 5
8, 3
3, 4
7, 3
3, 6
2, 1
3, 2
6, 3
4, 4
4, 4
5, 1
2, 6
4, 3
4, 4
5, 3
1, 3
2, 5
3, 4
3, 2
2, 5
3, 3
1, 2
3, 3
4, 4
5, 3
2, 2
4, 2
3, 0
2, 3
2, 2
4, 2
5, 1
4, 2
7, 3
4, 1
2, 2
6, 2
2, 5
5, 1
0, 5
2, 4
7, 1
4, 5
4, 0
3, 2
3, 1
7, 2
3, 4
3, 1
4, 2
5, 2
4, 4
3, 5
6, 3
1, 3
7, 2
4, 5
2, 1
2, 3
2, 2
2, 6
5, 2
2, 3
7, 3
2, 6
0, 3
1, 5
2, 2
4, 3
2, 3
1, 4
2, 0
2, 2
0, 2
2, 7
2, 2
4, 1
3, 0
1, 1
1, 1
2, 1
2, 4
2, 1
1, 1
4, 4
2, 3
4, 4
0, 1
2, 2
0, 2
3, 3
4, 1
6, 1
1, 4
2, 1
1, 2
2, 1
2, 0
3, 2
2, 0
2, 3
3, 2
3, 1
3, 0
0, 0
0, 0
2, 4
2, 5
1, 3
2, 0
3, 1
1, 1
2, 2
1, 5
3, 2
0, 3
1, 2
3, 3
1, 0
3, 3
6, 1
4, 1
0, 2
6, 3
4, 4
3, 7
1, 4
5, 5
4, 5
4, 5
6, 5
7, 3
4, 2
0, 1
1, 4
3, 2
7, 0
3, 0
2, 3
4, 0
0, 0
2, 4
1, 1
2, 1
0, 1
3, 0
1, 2
3, 1
0, 0
1, 3
3, 1
2, 1
1, 2
2, 1
3, 0
3, 0
1, 1
0, 2
2, 1
1, 0
4, 0
1, 0
4, 0
2, 1
1, 0
0, 1
0, 0
2, 0
0, 2
0, 2
2, 0
0, 2
2, 1
3, 0
0, 0
1, 0
1, 2
0, 0
0, 1
0, 1
1, 1
1, 0
0, 0
1, 2
0, 0
0, 1
2, 0
0, 0
2, 0
2, 0
0, 0
1, 1
0, 0
2, 1
0, 0
1, 0
0, 1
1, 1
1, 1
1, 0
1, 1
0, 1
2, 0
1, 0
2, 2
0, 1
2, 1
0, 1
0, 1
2, 0
1, 1
2, 1
2, 0
0, 1
2, 0
1, 0
0, 0
1, 1
1, 0
0, 0
2, 1
0, 0
1, 1
0, 1
1, 1
0, 0
0, 2
1, 1
1, 0
0, 0
0, 1
0, 2
1, 0
1, 0
1, 1
0, 0
1, 0
0, 3
0, 0
0, 2
0, 3
0, 0
0, 0
0, 0
1, 0
0, 1
1, 1
0, 0
2, 0
2, 0
0, 0
0, 0
0, 0
2, 0
2, 0
0, 0
0, 2
1, 0
0, 1
0, 0
2, 0
3, 0
0, 0
2, 0
0, 1
1, 0
2, 1
0, 0
0, 1
0, 0
2, 1
0, 0
0, 0
2, 0
0, 1
0, 0
0, 1
0, 0
0, 0
0, 0
2, 1
0, 0
2, 1
0, 0
0, 1
0, 2
0, 0
0, 0
0, 0
0, 0
0, 0
1, 0
0, 0
0, 1
1, 1
1, 1
0, 0
1, 0
0, 0
1, 1
1, 0
0, 0
0, 0
1, 1
0, 0
0, 0
0, 0
0, 0
1, 0
0, 0
0, 0
0, 1
1, 1
0, 1
0, 0
2, 0
0, 0
0, 0
0, 0
0, 2
0, 0
0, 1
1, 0
0, 1
0, 0
0, 1
0, 0
0, 0
0, 0
0, 0
0, 0
0, 0
0, 1
0, 0
0, 0
2, 1
0, 1
1, 1
0, 0
1, 0
0, 1
0, 0
0, 0
0, 0
0, 0
0, 0
0, 0
0, 0
0, 0
0, 0
0, 0
0, 0
1, 0
0, 0
0, 0
1, 0
1, 1
0, 1
0, 0
0, 0
0, 0
0, 0
0, 1
1, 0
1, 0
1, 1
0, 0
1, 2
1, 0
0, 0
0, 0
0, 1
0, 0
0, 0
0, 0
0, 0
0, 0
0, 0
0, 0
0, 1
0, 0
1, 0
0, 1
0, 0
0, 0
0, 0
0, 1
0, 0
1, 0
1, 0
0, 0
0, 0
0, 1
0, 0
0, 0
0, 1
0, 0
0, 0
0, 1
0, 0
0, 0
1, 0
1, 0
0, 0
0, 0
0, 0
0, 0
0, 0
0, 0
0, 0
1, 0
0, 0
1, 0
0, 0
0, 0
0, 0
0, 0
0, 0
0, 1
0, 0
0, 0
0, 0
0, 0
0, 0
0, 0
0, 0
0, 0
1, 0
0, 0
0, 0
0, 0
0, 0
0, 0
0, 0
0, 1
0, 0
0, 0
0, 0
0, 0
0, 0
0, 0
0, 0
0, 0
0, 1
0, 0
0, 0
0, 0
0, 0
0, 0
0, 0
0, 0
0, 0
0, 0
0, 0
0, 0
0, 0
0, 0
0, 0
0, 0
0, 0
0, 0
0, 0
0, 1
1, 0
0, 0
0, 0
0, 0
0, 0
0, 0
0, 0
0, 0
0, 0
0, 0
0, 1
0, 0
0, 0
0, 0
0, 0
1, 0
0, 0
0, 0
0, 0
0, 0
0, 0
0, 0
1, 0
0, 0
0, 0
0, 0
0, 0
0, 0
0, 0
1, 0
0, 0
0, 0
0, 0
0, 0
0, 0
0, 0
0, 0
0, 0
0, 0
0, 0
0, 0
0, 0
0, 0
0, 0
0, 0
0, 0
0, 0
0, 0
0, 0
0, 0
0, 0
0, 0
0, 0
0, 0
0, 1
0, 0
0, 0
0, 0
0, 0
0, 0
0, 0
1, 0
0, 0
0, 0
0, 1
0, 0
0, 0
0, 0
0, 0
0, 0
0, 0
0, 0
0, 0
0, 0
0, 0
0, 0
0, 0
0, 0
0, 0
0, 0
0, 0
0, 0
0, 0
0, 0
0, 0
0, 0
0, 0
0, 0
0, 0
0, 0
0, 0
0, 0
0, 1
0, 0
0, 0
0, 0
0, 0
0, 0
1, 0
0, 0
0, 0
0, 0
1, 0
0, 0
0, 0
0, 0
0, 0
0, 0
0, 0
0, 0
0, 0
0, 0
0, 0
0, 0
0, 0
0, 0
0, 0
0, 0
0, 0
0, 0
0, 0
0, 0
0, 0
0, 0
0, 0
0, 0
0, 0
0, 0
0, 0
0, 0
0, 0
0, 0
0, 0
0, 0
0, 1
0, 0
0, 0
0, 0
0, 0
0, 0
0, 0
0, 0
0, 0
0, 0
0, 0
0, 0
0, 0
0, 0
0, 0
0, 0
0, 0
0, 0
0, 0
0, 0
0, 0
0, 0
0, 0
0, 0
0, 0
0, 0
0, 0
0, 0
0, 0
0, 0
0, 0
0, 0
0, 0
0, 0
0, 0
0, 0
0, 0
0, 0
0, 0
0, 0
0, 0
0, 0
0, 0
0, 0
0, 0
0, 0
0, 0
0, 0
0, 0
0, 0
1, 0
0, 0
0, 0
0, 0
0, 0
0, 0
0, 0
0, 0
0, 0
0, 0
0, 0
0, 0
0, 0
0, 0
0, 0
0, 0
0, 0
0, 0
0, 0
0, 0
0, 0
0, 0
0, 0
0, 0
0, 0
0, 0
0, 0
0, 0
0, 0
0, 0
0, 0
0, 0
0, 0
0, 0
0, 0
0, 0
0, 0
0, 0
0, 0
0, 0
0, 0
0, 0
0, 0
0, 0
0, 0
0, 0
0, 0
0, 0
0, 0
0, 0
0, 0
0, 0
0, 0
0, 0
0, 0
0, 0
0, 0
0, 0
0, 0
0, 0
0, 0
0, 0
0, 0
0, 0
0, 0
0, 0
0, 0
0, 0
0, 0
0, 0
0, 0
0, 0
0, 0
0, 0
0, 0
0, 0
0, 0
0, 0
0, 0
0, 0
0, 0
0, 0
0, 0
0, 0
0, 0
0, 0
0, 0
0, 0
0, 0
0, 0
0, 0
0, 0
0, 0
0, 0
0, 0
0, 0
0, 0
0, 0
0, 0
0, 0
0, 0
0, 0
0, 0
0, 0
0, 0
0, 0
0, 0
0, 0
0, 0
0, 0
0, 0
0, 0
0, 0
0, 0
0, 0
0, 0
0, 0
0, 0
0, 0
0, 0
0, 0
0, 0
0, 0
0, 0
0, 0
0, 0
0, 0
0, 0
0, 0
0, 0
0, 0
0, 0
0, 0
0, 0
0, 0
0, 0
0, 0
0, 0
0, 0
0, 0
0, 0
0, 0
0, 0
0, 0
0, 0
0, 0
0, 0
0, 0
0, 0
0, 0
0, 0
0, 0
0, 0
0, 0
0, 0
0, 0
0, 0
0, 0
0, 0
0, 0
0, 0
0, 0
0, 0
0, 0
0, 0
0, 0
0, 0
0, 0
0, 0
0, 0
0, 0
0, 0
0, 0
0, 0
0, 0
0, 0
0, 0
0, 0
0, 0
0, 0
0, 0
0, 0
0, 0
0, 0
0, 0
0, 0
0, 0
0, 0
0, 0
0, 0
0, 0
0, 0
0, 0
0, 0
0, 0
0, 0
0, 0
0, 0
0, 0
0, 0
0, 0
0, 0
0, 0
0, 0
0, 0
0, 0
0, 0
0, 0
0, 0
0, 0
0, 0
0, 0
0, 0
0, 0
0, 0
0, 0
0, 0
0, 0
0, 0
0, 0
0, 0
0, 0
0, 0
0, 0
0, 0
0, 0
0, 0
0, 0
0, 0
0, 0
0, 0
0, 0
0, 0
0, 0
0, 0
0, 0
0, 0
0, 0
0, 0
0, 0
0, 0
0, 0
0, 0
0, 0
0, 0
0, 0
0, 0
0, 0
0, 0
0, 0
0, 0
0, 0
0, 0
0, 0
0, 0
0, 0
0, 0
0, 0
0, 0
0, 0
0, 0
0, 0
0, 0
0, 0
0, 0
0, 0
0, 0
0, 0
0, 0
0, 0
0, 0
0, 0
0, 0
0, 0
0, 0
0, 0
0, 0
0, 0
0, 0
0, 0
0, 0
0, 0
0, 0
0, 0
0, 0
0, 0
0, 0
0, 0
0, 0
0, 0
0, 0
0, 0
0, 0
0, 0
0, 0
0, 0
0, 0
0, 0
0, 0
0, 0
0, 0
0, 0
0, 0
0, 0
0, 0
0, 0
#ENDOFDATA     end of spectrum data