File: host_upload/06-09-2024/ps_0852/dump3/ps__0852shot_2021.msa
#FORMAT      : EMSA/MAS spectral data file
#VERSION     : TC202v2.0 PIXL
#TITLE       : N/A
#DATE        :       Date in the format DD-MMM-YYYY, for example 07-JUL-2010
#TIME        :             The time of day at which the spectrum was recorded, in 24-hour format
#OWNER       : PIXL Flight Model       (PIXL will use this to indicate which instrument took the data.)
#NPOINTS     : 4096     Number of data points in the spectrum (This can be zero for configuration only files)
#NCOLUMNS    : 2     Number of data columns in the spectrum (This can be zero for configuration only files)
#XUNITS      : eV
#YUNITS      : COUNTS
#DATATYPE    : YY
#XPERCHAN    : 7.862, 7.881   eV per channel (separate by commas if more than one detector)
#OFFSET      : 18.5, -22.4         eV of first channel  (separate by commas if more than one detector
#SIGNALTYPE  : XRF
#YP_TEMP     : 2.428
#LIVETIME    : 8.56274, 8.5591   seconds (separate by commas if more than one detector)
#REALTIME    : 10, 10.0   seconds (separate by commas if more than one detector)
#SPECTRUM    : start of spectrum data
0, 0
0, 0
0, 0
0, 0
0, 0
0, 0
0, 0
0, 0
0, 0
0, 0
0, 0
0, 0
0, 0
0, 0
0, 0
0, 0
0, 0
0, 0
0, 0
0, 0
0, 0
0, 0
0, 0
0, 0
0, 0
0, 0
0, 0
0, 0
0, 0
0, 0
0, 0
1, 1
0, 0
1, 2
0, 0
1, 0
0, 0
1, 0
0, 0
3, 2
0, 3
2, 1
3, 1
1, 1
0, 1
0, 0
1, 3
7, 1
1, 2
14, 17
35, 26
33, 40
46, 49
82, 65
87, 83
66, 88
54, 66
38, 35
25, 30
17, 12
9, 9
7, 6
3, 4
4, 4
3, 5
6, 4
9, 9
9, 13
27, 18
55, 49
78, 103
157, 181
232, 256
326, 342
421, 369
422, 398
364, 373
260, 285
160, 216
141, 112
85, 81
41, 33
25, 18
5, 9
4, 7
3, 4
1, 2
2, 1
2, 2
2, 1
1, 1
2, 1
1, 0
2, 6
10, 14
10, 12
12, 10
19, 20
21, 18
22, 27
20, 23
14, 16
10, 9
4, 18
5, 8
9, 9
7, 11
15, 15
21, 17
26, 27
52, 29
75, 44
109, 53
140, 43
157, 69
187, 56
179, 70
164, 50
114, 38
81, 39
70, 34
45, 27
52, 29
34, 22
23, 21
26, 20
15, 10
14, 13
10, 12
6, 7
7, 6
4, 6
3, 5
3, 5
2, 4
0, 2
2, 1
6, 3
1, 4
4, 3
4, 3
3, 3
3, 0
5, 3
1, 2
4, 4
1, 3
3, 4
4, 6
3, 16
8, 26
8, 27
9, 34
12, 34
12, 50
20, 56
26, 57
28, 75
22, 27
25, 26
16, 20
13, 17
10, 14
11, 17
11, 10
2, 8
7, 15
8, 6
7, 10
8, 6
5, 7
6, 5
5, 12
9, 4
10, 9
17, 5
12, 9
18, 5
10, 6
22, 16
19, 15
12, 11
16, 15
19, 3
18, 15
8, 7
15, 8
13, 8
14, 8
10, 8
13, 22
17, 17
13, 14
12, 17
18, 10
12, 26
14, 17
10, 11
19, 23
17, 13
10, 15
13, 12
10, 15
13, 13
9, 8
8, 9
9, 9
9, 11
10, 9
5, 5
8, 12
11, 14
10, 21
9, 22
12, 16
8, 16
8, 11
6, 11
7, 12
6, 7
9, 13
9, 12
10, 14
6, 11
12, 16
13, 16
18, 14
25, 19
25, 29
30, 29
29, 34
28, 37
42, 37
31, 35
22, 18
30, 23
33, 16
33, 11
18, 7
28, 14
32, 11
31, 8
26, 9
27, 14
26, 20
43, 31
28, 32
48, 46
63, 63
57, 55
66, 72
74, 81
53, 62
59, 71
60, 36
43, 48
28, 47
27, 26
16, 38
21, 48
20, 51
38, 49
45, 79
92, 122
178, 229
283, 334
452, 593
706, 932
1036, 1335
1475, 1812
1803, 2101
2184, 2347
2335, 2444
2251, 2244
2037, 1937
1639, 1502
1342, 1105
919, 754
642, 486
342, 271
186, 154
99, 75
67, 58
45, 40
14, 25
15, 26
21, 28
23, 28
27, 33
28, 29
25, 44
43, 54
49, 75
92, 91
125, 114
140, 179
204, 224
252, 304
298, 362
322, 335
366, 361
297, 318
285, 258
257, 228
198, 157
131, 118
97, 69
49, 46
48, 34
17, 20
16, 13
9, 12
10, 6
14, 11
18, 10
19, 11
15, 13
15, 13
17, 13
22, 21
13, 9
8, 7
9, 9
9, 4
10, 4
4, 1
5, 5
5, 8
5, 2
2, 5
5, 1
4, 4
5, 8
6, 6
3, 5
7, 2
5, 7
6, 7
5, 5
5, 7
9, 8
3, 3
6, 5
3, 5
8, 12
6, 11
6, 7
9, 4
10, 13
9, 10
11, 4
13, 11
17, 11
15, 4
11, 9
8, 4
14, 9
11, 9
10, 9
9, 5
6, 8
2, 11
3, 11
6, 8
5, 4
7, 10
7, 12
8, 6
10, 13
9, 6
5, 7
9, 10
4, 4
6, 5
9, 5
3, 4
0, 3
6, 3
4, 5
4, 5
4, 10
5, 4
7, 4
4, 3
6, 2
7, 6
7, 5
5, 6
8, 3
7, 3
8, 2
7, 5
6, 7
5, 1
7, 3
2, 3
6, 4
2, 4
6, 6
1, 6
3, 6
6, 6
3, 13
3, 5
4, 10
1, 7
3, 8
2, 5
8, 6
4, 12
8, 5
3, 5
2, 1
6, 2
5, 6
6, 1
2, 2
6, 3
3, 4
3, 5
0, 2
2, 5
2, 4
1, 3
6, 3
2, 3
5, 3
2, 2
4, 2
5, 0
0, 4
6, 4
6, 5
4, 3
3, 1
4, 4
5, 3
4, 2
7, 4
5, 4
3, 6
2, 3
4, 2
5, 8
2, 2
3, 1
2, 1
2, 2
2, 0
5, 3
3, 0
0, 6
0, 4
0, 7
2, 2
1, 2
3, 2
3, 3
2, 1
2, 5
1, 4
1, 3
1, 4
7, 2
2, 3
1, 5
2, 1
6, 3
2, 1
4, 0
6, 4
4, 3
1, 1
2, 4
2, 3
1, 1
2, 0
4, 5
1, 4
0, 1
3, 1
3, 6
3, 5
4, 2
1, 4
4, 2
0, 2
1, 2
4, 7
4, 3
1, 1
6, 1
3, 2
1, 1
0, 2
3, 1
2, 1
3, 1
3, 0
2, 1
2, 2
4, 2
3, 3
3, 4
3, 4
3, 1
1, 4
2, 2
0, 0
3, 2
0, 3
5, 3
2, 3
3, 2
3, 2
2, 4
2, 3
2, 1
0, 1
2, 3
0, 3
2, 3
1, 3
0, 1
4, 2
4, 4
1, 4
2, 3
3, 0
4, 2
2, 4
2, 1
1, 2
2, 1
2, 4
1, 2
2, 2
2, 1
4, 4
4, 4
3, 2
6, 4
4, 2
4, 6
8, 2
7, 8
3, 1
4, 3
0, 2
2, 1
5, 1
3, 1
2, 2
1, 0
0, 2
1, 1
0, 2
3, 3
2, 1
0, 2
1, 2
1, 3
0, 3
3, 3
2, 0
3, 1
2, 5
1, 1
1, 2
0, 1
2, 2
3, 2
0, 3
2, 1
0, 4
1, 2
4, 3
3, 3
0, 4
2, 2
2, 1
2, 1
2, 1
0, 2
1, 1
1, 2
2, 3
1, 0
3, 1
0, 1
0, 1
0, 0
1, 1
1, 0
0, 2
2, 5
1, 1
0, 0
0, 1
1, 1
2, 0
2, 1
0, 0
3, 0
2, 0
1, 1
1, 2
2, 0
4, 1
2, 1
3, 0
3, 1
1, 0
1, 1
1, 1
1, 1
0, 0
0, 1
2, 1
3, 0
1, 0
0, 0
2, 0
0, 1
1, 0
1, 0
1, 0
1, 2
1, 1
0, 1
1, 0
2, 2
0, 1
0, 0
0, 3
2, 0
0, 0
0, 0
0, 0
0, 0
1, 1
0, 0
0, 0
0, 0
0, 1
0, 0
0, 1
1, 1
0, 0
0, 0
2, 1
0, 1
1, 1
0, 1
1, 1
0, 0
0, 0
0, 0
1, 1
2, 1
0, 0
0, 0
1, 0
1, 0
0, 1
1, 1
1, 0
1, 0
0, 2
0, 0
1, 0
1, 0
0, 0
0, 0
0, 0
0, 0
0, 0
0, 0
0, 0
0, 1
1, 0
0, 1
0, 1
0, 2
0, 0
0, 0
1, 0
0, 1
0, 0
0, 0
2, 1
0, 0
0, 0
0, 1
0, 0
1, 0
0, 0
0, 0
0, 1
0, 0
0, 0
1, 0
0, 0
0, 0
0, 0
1, 0
0, 2
1, 0
0, 1
0, 1
0, 1
0, 0
2, 0
1, 0
0, 0
1, 0
0, 0
1, 0
0, 0
1, 0
2, 0
0, 0
1, 0
1, 0
1, 0
1, 0
2, 0
0, 0
0, 1
0, 1
3, 2
0, 0
2, 1
0, 0
0, 0
0, 1
0, 1
1, 0
0, 0
0, 0
0, 0
1, 0
0, 0
1, 0
0, 0
0, 0
0, 0
1, 1
0, 0
0, 0
1, 0
1, 0
1, 1
0, 0
0, 0
1, 0
1, 1
0, 0
0, 0
0, 0
0, 1
1, 0
0, 0
0, 1
0, 0
0, 0
0, 1
0, 1
0, 0
1, 0
0, 1
0, 0
1, 1
0, 0
0, 0
0, 0
1, 0
0, 1
0, 0
0, 0
0, 0
0, 0
0, 0
0, 0
0, 1
0, 1
0, 2
0, 0
0, 1
0, 0
0, 1
0, 0
0, 1
0, 1
0, 0
1, 0
0, 0
0, 0
1, 0
1, 0
0, 1
0, 0
0, 1
0, 1
0, 0
0, 0
0, 0
0, 0
0, 0
0, 0
0, 0
0, 0
0, 0
0, 0
0, 0
0, 0
0, 1
0, 0
0, 0
0, 1
0, 0
0, 0
1, 1
0, 1
0, 0
0, 0
0, 1
0, 0
0, 1
0, 0
0, 0
0, 0
0, 0
0, 0
1, 0
0, 0
1, 0
0, 0
0, 0
0, 0
0, 0
0, 0
0, 0
1, 0
0, 0
0, 0
0, 0
1, 0
0, 0
0, 0
1, 0
1, 2
0, 0
0, 0
0, 0
1, 0
1, 0
0, 0
0, 0
0, 0
0, 0
1, 0
0, 0
0, 0
0, 0
0, 0
0, 0
0, 0
0, 0
0, 0
0, 0
0, 0
0, 0
0, 0
0, 0
0, 0
0, 0
0, 1
0, 0
0, 0
0, 0
0, 0
0, 0
0, 0
0, 0
0, 0
0, 0
0, 0
0, 0
0, 0
0, 1
1, 0
0, 0
0, 0
0, 0
2, 0
0, 0
0, 0
0, 1
0, 0
0, 0
0, 0
0, 0
0, 0
0, 0
0, 0
0, 0
0, 0
0, 0
0, 0
0, 0
0, 0
1, 0
0, 0
0, 0
0, 1
0, 0
0, 0
0, 0
0, 0
0, 0
0, 0
0, 0
1, 0
0, 0
0, 0
0, 0
0, 0
0, 0
0, 0
0, 0
1, 0
0, 0
0, 0
0, 0
0, 0
0, 0
0, 0
0, 0
0, 1
0, 0
0, 0
0, 0
0, 0
0, 0
0, 0
0, 0
0, 0
0, 0
0, 0
0, 0
0, 0
0, 0
0, 0
0, 0
0, 0
0, 0
0, 0
0, 0
0, 0
0, 1
0, 0
0, 0
0, 0
0, 0
0, 0
0, 0
0, 0
0, 0
0, 0
0, 0
0, 0
0, 0
0, 0
0, 0
0, 0
0, 0
0, 0
0, 0
0, 0
0, 0
0, 0
0, 0
0, 0
0, 0
0, 0
0, 0
0, 0
0, 0
0, 0
0, 0
0, 1
0, 0
0, 0
0, 0
0, 0
0, 0
0, 0
0, 0
0, 0
0, 0
0, 0
0, 0
0, 0
0, 0
0, 0
0, 0
0, 0
0, 0
0, 0
0, 0
0, 0
0, 0
0, 0
0, 0
0, 0
0, 0
0, 0
0, 0
0, 0
0, 0
0, 0
0, 0
0, 0
0, 0
0, 0
0, 0
0, 0
0, 0
0, 0
0, 0
0, 0
0, 0
0, 0
0, 0
0, 0
0, 0
0, 0
0, 0
0, 0
0, 0
0, 0
0, 0
0, 0
0, 0
0, 0
0, 0
0, 0
0, 0
0, 0
0, 0
0, 0
0, 0
0, 0
0, 0
0, 0
0, 0
0, 0
0, 0
0, 0
0, 0
0, 0
0, 0
0, 0
0, 0
0, 0
0, 0
0, 0
0, 0
0, 0
0, 0
0, 0
0, 0
0, 0
0, 0
0, 0
0, 0
0, 0
0, 0
0, 0
0, 0
0, 0
0, 0
0, 0
0, 0
0, 0
0, 0
0, 0
0, 0
0, 0
0, 0
0, 1
0, 0
0, 0
0, 0
0, 0
0, 0
0, 0
0, 0
0, 0
0, 0
0, 0
0, 0
0, 0
0, 0
0, 0
0, 0
0, 0
0, 0
0, 0
0, 0
0, 0
0, 0
0, 0
0, 0
0, 0
0, 0
0, 0
0, 0
0, 0
0, 0
0, 0
0, 0
0, 0
0, 0
0, 0
0, 0
0, 0
0, 0
0, 0
0, 0
0, 0
0, 0
0, 0
0, 0
0, 0
0, 0
0, 0
0, 0
0, 0
0, 0
0, 0
0, 0
0, 0
0, 0
0, 0
0, 0
0, 0
0, 0
0, 0
0, 0
0, 0
0, 0
0, 0
0, 0
0, 0
0, 0
0, 0
0, 0
0, 0
0, 0
0, 0
0, 0
0, 0
0, 0
0, 0
0, 0
0, 0
0, 0
0, 0
0, 0
0, 0
0, 0
0, 0
0, 0
0, 0
0, 0
0, 0
0, 0
0, 0
0, 0
0, 0
0, 0
0, 0
0, 0
0, 0
0, 0
0, 0
0, 0
0, 0
0, 0
0, 0
0, 0
0, 0
0, 0
0, 0
0, 0
0, 0
0, 0
0, 0
0, 0
0, 0
0, 0
0, 0
0, 0
0, 0
0, 0
0, 0
0, 0
0, 0
0, 0
0, 0
0, 0
0, 0
0, 0
0, 0
0, 0
0, 0
0, 0
0, 0
0, 0
0, 0
0, 0
0, 0
0, 0
0, 0
0, 0
0, 0
0, 0
0, 0
0, 0
0, 0
0, 0
0, 0
0, 0
0, 0
0, 0
0, 0
0, 0
0, 0
0, 0
0, 0
0, 0
0, 0
0, 0
0, 0
0, 0
0, 0
0, 0
0, 0
0, 0
0, 0
0, 0
0, 0
0, 0
0, 0
0, 0
0, 0
0, 0
0, 0
0, 0
0, 0
0, 0
0, 0
0, 0
0, 0
0, 0
0, 0
0, 0
0, 0
0, 0
0, 0
0, 0
0, 0
0, 0
0, 0
0, 0
0, 0
0, 0
0, 0
0, 0
0, 0
0, 0
0, 0
0, 0
0, 0
0, 0
0, 0
0, 0
0, 0
0, 0
0, 0
0, 0
0, 0
0, 0
0, 0
0, 0
0, 0
0, 0
0, 0
0, 0
0, 0
0, 0
0, 0
0, 0
0, 0
0, 0
0, 0
0, 0
0, 0
0, 0
0, 0
0, 0
0, 0
0, 0
0, 0
0, 0
0, 0
0, 0
0, 0
0, 0
0, 0
0, 0
0, 0
0, 0
0, 0
0, 0
0, 0
0, 0
0, 0
0, 0
0, 0
0, 0
0, 0
0, 0
0, 0
0, 0
0, 0
0, 0
0, 0
0, 0
0, 0
0, 0
0, 0
0, 0
0, 0
0, 0
0, 0
0, 0
0, 0
0, 0
0, 0
0, 0
0, 0
0, 0
0, 0
0, 0
0, 0
0, 0
0, 0
0, 0
0, 0
0, 0
0, 0
0, 0
0, 0
#ENDOFDATA     end of spectrum data