File: host_upload/06-09-2024/ps_0852/dump3/ps__0852shot_2179.msa
#FORMAT      : EMSA/MAS spectral data file
#VERSION     : TC202v2.0 PIXL
#TITLE       : N/A
#DATE        :       Date in the format DD-MMM-YYYY, for example 07-JUL-2010
#TIME        :             The time of day at which the spectrum was recorded, in 24-hour format
#OWNER       : PIXL Flight Model       (PIXL will use this to indicate which instrument took the data.)
#NPOINTS     : 4096     Number of data points in the spectrum (This can be zero for configuration only files)
#NCOLUMNS    : 2     Number of data columns in the spectrum (This can be zero for configuration only files)
#XUNITS      : eV
#YUNITS      : COUNTS
#DATATYPE    : YY
#XPERCHAN    : 7.862, 7.881   eV per channel (separate by commas if more than one detector)
#OFFSET      : 18.5, -22.4         eV of first channel  (separate by commas if more than one detector
#SIGNALTYPE  : XRF
#YP_TEMP     : 2.492
#LIVETIME    : 8.54828, 8.55132   seconds (separate by commas if more than one detector)
#REALTIME    : 10, 10.0   seconds (separate by commas if more than one detector)
#SPECTRUM    : start of spectrum data
0, 0
0, 0
0, 0
0, 0
0, 0
0, 0
0, 0
0, 0
0, 0
0, 0
0, 0
0, 0
0, 0
0, 0
0, 0
0, 0
0, 0
0, 0
0, 0
0, 0
0, 0
0, 0
0, 0
0, 0
0, 0
0, 0
0, 0
0, 0
0, 0
0, 0
0, 0
0, 0
0, 0
0, 0
0, 0
2, 2
0, 0
1, 1
0, 0
0, 1
0, 1
1, 1
2, 0
2, 1
0, 1
0, 1
2, 2
2, 4
8, 7
14, 9
21, 18
45, 31
69, 54
91, 63
86, 55
80, 57
78, 67
58, 48
23, 17
13, 10
6, 4
3, 6
2, 4
1, 3
2, 2
2, 0
5, 1
12, 6
32, 23
43, 56
118, 82
158, 142
256, 219
363, 314
419, 379
428, 330
377, 306
294, 249
203, 141
141, 109
87, 72
37, 25
14, 14
10, 8
6, 5
2, 4
2, 2
0, 2
1, 3
0, 1
0, 2
1, 1
1, 0
1, 2
3, 3
3, 1
6, 1
3, 4
2, 4
7, 2
2, 2
6, 5
4, 1
7, 2
3, 2
2, 2
4, 6
2, 10
7, 8
9, 14
15, 21
22, 28
35, 58
32, 74
49, 90
49, 75
41, 88
40, 57
25, 53
29, 41
19, 28
15, 21
12, 18
7, 19
17, 19
18, 11
13, 2
10, 11
7, 8
6, 4
5, 4
6, 5
3, 3
4, 4
3, 4
3, 8
3, 3
2, 1
1, 1
1, 6
2, 6
1, 4
5, 3
1, 0
4, 1
1, 4
1, 3
3, 1
4, 2
4, 4
4, 1
3, 5
9, 7
12, 7
13, 8
17, 18
17, 19
20, 25
25, 10
19, 15
20, 11
14, 10
9, 7
11, 8
10, 5
6, 6
1, 4
1, 7
4, 3
8, 8
11, 9
9, 6
8, 9
9, 9
8, 11
7, 4
5, 18
11, 13
6, 16
9, 19
7, 14
8, 19
9, 24
9, 14
4, 12
5, 5
5, 5
2, 7
1, 10
8, 10
3, 7
7, 10
8, 8
9, 13
12, 11
13, 10
18, 11
17, 15
14, 17
15, 14
9, 16
13, 26
8, 32
14, 25
11, 35
6, 36
13, 32
9, 29
5, 22
8, 24
7, 16
11, 13
6, 10
5, 10
4, 8
8, 7
11, 6
7, 4
1, 7
5, 8
4, 5
14, 5
7, 3
13, 3
9, 3
17, 6
19, 15
23, 15
17, 15
31, 19
21, 16
36, 12
15, 11
20, 15
21, 16
19, 11
10, 12
8, 11
12, 10
16, 9
13, 11
13, 1
10, 2
18, 11
17, 16
22, 25
29, 28
41, 35
42, 42
79, 60
45, 53
57, 58
78, 59
51, 41
50, 41
43, 24
31, 26
19, 20
21, 23
22, 14
24, 27
44, 43
69, 46
100, 102
173, 204
302, 320
509, 561
840, 839
1204, 1223
1651, 1647
2128, 1956
2382, 2132
2547, 2186
2566, 2105
2216, 1741
1819, 1424
1353, 1044
1003, 700
641, 464
391, 244
225, 120
111, 75
50, 35
34, 35
20, 9
22, 15
21, 19
14, 16
15, 17
19, 23
25, 16
33, 37
37, 52
89, 72
96, 118
145, 160
201, 227
298, 276
327, 297
382, 338
361, 343
349, 294
311, 248
232, 217
193, 147
154, 96
104, 69
61, 43
34, 27
18, 13
15, 6
7, 9
6, 5
11, 8
12, 10
9, 13
12, 13
12, 15
10, 13
15, 12
13, 9
11, 8
12, 6
10, 6
3, 11
4, 6
6, 4
7, 3
6, 3
14, 7
4, 1
4, 0
8, 5
5, 5
5, 5
5, 5
4, 9
4, 4
3, 3
6, 4
3, 7
6, 5
10, 10
12, 10
10, 7
11, 9
4, 5
6, 6
9, 6
3, 7
6, 5
2, 9
7, 12
8, 5
16, 6
11, 4
11, 2
16, 1
10, 3
23, 4
17, 3
24, 7
19, 5
17, 4
15, 8
12, 4
9, 6
10, 8
11, 3
5, 7
2, 6
6, 0
7, 1
4, 6
2, 6
2, 0
6, 7
6, 2
1, 2
2, 7
6, 4
3, 3
0, 5
2, 6
6, 2
6, 5
2, 1
2, 4
6, 4
2, 3
5, 4
8, 5
1, 6
7, 2
4, 9
8, 4
3, 2
7, 1
4, 3
4, 3
2, 1
6, 3
4, 2
4, 6
3, 8
8, 5
6, 5
3, 6
5, 7
3, 0
3, 6
2, 6
4, 4
5, 3
4, 7
1, 6
6, 7
2, 3
3, 4
4, 1
1, 0
3, 9
5, 4
3, 2
4, 1
6, 5
5, 4
3, 0
2, 9
2, 6
3, 3
3, 4
4, 4
3, 4
3, 7
6, 7
1, 10
2, 6
6, 6
5, 10
3, 6
3, 2
5, 7
1, 3
4, 5
2, 5
3, 5
3, 8
3, 3
1, 1
4, 4
3, 2
5, 2
0, 0
7, 0
3, 3
2, 2
4, 1
5, 2
7, 3
5, 3
6, 2
2, 4
6, 2
1, 5
7, 4
5, 1
2, 1
5, 5
1, 3
1, 1
1, 3
3, 3
1, 1
3, 6
1, 2
1, 1
4, 2
4, 1
4, 1
1, 3
2, 0
1, 2
1, 2
3, 0
3, 3
3, 0
3, 3
2, 0
2, 3
1, 0
3, 2
2, 1
4, 1
1, 2
0, 4
2, 3
1, 1
7, 1
2, 1
0, 2
4, 4
1, 2
4, 2
3, 3
2, 1
0, 1
3, 2
2, 5
2, 0
2, 1
3, 3
4, 1
1, 3
3, 5
1, 1
3, 2
1, 2
2, 1
0, 2
3, 2
3, 1
2, 2
3, 5
2, 1
2, 1
1, 2
4, 1
2, 3
4, 4
1, 5
0, 3
1, 1
2, 4
2, 3
7, 5
2, 3
2, 3
2, 2
1, 2
2, 5
5, 3
5, 5
4, 6
4, 3
3, 4
4, 3
4, 2
2, 0
5, 3
3, 1
3, 1
1, 2
1, 2
0, 5
0, 0
0, 1
1, 0
3, 1
1, 0
3, 1
0, 1
3, 5
3, 1
0, 1
5, 1
2, 0
1, 3
4, 3
2, 1
2, 3
2, 3
1, 1
0, 4
3, 2
2, 1
1, 0
1, 2
0, 1
0, 0
5, 0
0, 1
2, 1
0, 1
2, 2
1, 1
1, 1
0, 2
0, 1
3, 2
0, 0
3, 1
0, 0
1, 1
0, 0
0, 2
3, 0
0, 2
1, 4
0, 1
1, 0
3, 2
0, 0
2, 2
1, 0
1, 0
2, 0
1, 1
1, 0
0, 1
1, 0
1, 0
1, 2
1, 0
1, 1
2, 3
1, 0
1, 0
1, 1
1, 0
2, 1
0, 1
0, 0
0, 1
0, 0
1, 1
0, 1
0, 2
2, 1
1, 1
0, 1
0, 0
2, 0
1, 0
1, 2
0, 2
0, 2
1, 1
0, 2
0, 2
1, 0
0, 1
0, 0
0, 0
0, 0
0, 0
1, 1
0, 0
1, 2
0, 0
1, 0
2, 0
1, 0
1, 1
0, 1
0, 0
0, 0
0, 0
0, 0
0, 1
0, 0
1, 0
0, 1
0, 0
1, 0
2, 1
1, 1
1, 0
0, 0
1, 0
2, 0
0, 2
1, 0
0, 0
0, 0
1, 1
0, 0
1, 0
0, 0
1, 0
1, 0
1, 0
0, 0
0, 0
1, 0
1, 1
0, 1
0, 1
1, 1
0, 0
1, 0
1, 1
0, 0
0, 0
1, 0
0, 1
1, 1
0, 1
0, 0
1, 0
0, 1
0, 0
2, 0
0, 1
1, 0
1, 1
1, 0
0, 0
0, 1
1, 1
0, 1
0, 0
1, 0
1, 2
0, 1
0, 0
0, 0
0, 0
0, 0
1, 0
0, 0
2, 0
0, 0
1, 0
0, 1
1, 0
0, 0
1, 1
1, 0
0, 0
2, 0
0, 1
2, 0
0, 1
0, 0
0, 0
0, 0
0, 0
1, 0
0, 1
0, 0
0, 0
0, 0
0, 0
0, 0
1, 0
0, 0
0, 0
0, 1
1, 0
0, 0
0, 0
0, 1
0, 0
2, 0
1, 1
0, 0
1, 0
0, 0
1, 0
0, 0
1, 1
0, 1
1, 0
0, 0
0, 0
1, 0
1, 0
0, 0
0, 1
0, 0
0, 1
0, 0
0, 0
0, 0
1, 0
0, 0
0, 0
1, 0
0, 0
0, 0
0, 1
0, 1
1, 1
0, 1
0, 0
0, 1
0, 0
0, 1
0, 0
1, 1
1, 0
1, 2
0, 0
0, 0
0, 0
1, 0
0, 1
0, 0
0, 0
0, 1
2, 0
1, 0
0, 0
0, 0
1, 1
0, 0
0, 0
0, 0
1, 0
0, 0
0, 0
0, 0
0, 0
0, 0
0, 0
0, 0
0, 0
0, 0
0, 0
0, 0
0, 0
1, 0
2, 0
1, 0
0, 0
0, 0
0, 0
0, 0
1, 0
0, 1
1, 0
0, 1
0, 0
0, 0
0, 0
1, 1
0, 0
0, 0
0, 0
0, 1
0, 0
0, 0
0, 0
0, 0
0, 0
0, 0
0, 0
0, 0
1, 0
0, 0
1, 0
0, 0
0, 0
0, 0
0, 1
0, 0
0, 0
0, 0
0, 0
0, 0
0, 0
0, 0
0, 0
0, 0
0, 0
0, 0
0, 0
0, 0
0, 0
0, 0
0, 0
0, 0
0, 0
1, 0
0, 0
0, 0
0, 0
0, 0
1, 0
0, 0
0, 0
0, 0
0, 0
0, 0
0, 0
0, 0
0, 0
0, 1
0, 0
0, 0
0, 0
0, 0
0, 0
0, 0
0, 0
0, 0
0, 0
0, 0
0, 0
0, 0
0, 0
0, 0
0, 0
0, 1
0, 0
0, 1
0, 0
0, 0
0, 0
0, 0
0, 0
0, 0
0, 1
0, 0
0, 0
0, 0
0, 0
0, 0
0, 0
0, 0
0, 0
0, 0
0, 0
0, 0
0, 0
0, 0
0, 0
0, 0
0, 0
0, 0
0, 0
0, 0
0, 0
0, 0
0, 0
0, 0
0, 0
0, 0
0, 0
0, 0
0, 0
0, 0
0, 0
0, 0
0, 0
0, 0
0, 0
0, 0
0, 0
0, 0
0, 0
0, 0
0, 0
0, 0
0, 0
0, 0
0, 0
0, 0
0, 0
0, 0
0, 0
0, 0
0, 0
0, 0
0, 0
0, 0
0, 0
0, 0
0, 0
0, 0
0, 0
0, 0
0, 0
0, 0
0, 0
0, 0
0, 0
0, 0
0, 0
0, 0
0, 0
0, 0
0, 0
0, 0
0, 1
0, 0
0, 0
0, 0
0, 0
0, 0
0, 0
0, 0
0, 0
0, 0
0, 0
0, 0
0, 0
0, 0
0, 0
0, 0
0, 0
0, 0
0, 0
0, 0
0, 0
0, 0
0, 0
0, 0
0, 0
0, 0
0, 0
0, 0
0, 0
0, 0
0, 0
0, 0
0, 0
0, 0
0, 0
0, 0
0, 0
0, 0
0, 0
0, 0
0, 0
0, 0
0, 0
0, 0
0, 0
0, 0
0, 0
0, 0
0, 0
0, 0
0, 0
0, 0
0, 0
0, 0
0, 0
0, 0
0, 0
0, 0
0, 0
0, 0
0, 0
0, 0
0, 0
0, 0
0, 0
0, 0
0, 0
0, 0
0, 0
0, 0
0, 0
0, 0
0, 1
0, 0
0, 0
0, 0
0, 0
0, 0
0, 0
0, 0
0, 0
0, 0
0, 0
0, 0
0, 0
0, 0
0, 0
0, 0
0, 0
0, 0
0, 0
0, 0
0, 0
0, 0
0, 0
0, 0
0, 0
0, 0
0, 0
0, 0
0, 0
0, 0
0, 0
0, 0
0, 0
0, 0
0, 0
0, 0
0, 0
0, 0
0, 0
0, 0
0, 0
0, 0
0, 0
0, 0
0, 0
0, 0
0, 0
0, 0
0, 0
0, 0
0, 0
0, 0
0, 0
0, 0
0, 0
0, 0
0, 0
0, 0
0, 0
0, 0
0, 0
0, 0
0, 0
0, 0
0, 0
0, 0
0, 0
0, 0
0, 0
0, 0
0, 0
0, 0
0, 0
0, 0
0, 0
0, 0
0, 0
0, 0
0, 0
0, 0
0, 0
0, 0
0, 0
0, 0
0, 0
0, 0
0, 0
0, 0
0, 0
0, 0
0, 0
0, 0
0, 0
0, 0
0, 0
0, 0
0, 0
0, 0
0, 0
0, 0
0, 0
0, 0
0, 0
0, 0
0, 0
0, 0
0, 0
0, 0
0, 0
0, 0
0, 0
0, 0
0, 0
0, 0
0, 0
0, 0
0, 0
0, 0
0, 0
0, 0
0, 0
0, 0
0, 0
0, 0
0, 0
0, 0
0, 0
0, 0
0, 0
0, 0
0, 0
0, 0
0, 0
0, 0
0, 0
0, 0
0, 0
0, 0
0, 0
0, 0
0, 0
0, 0
0, 0
0, 0
0, 0
0, 0
0, 0
0, 0
0, 0
0, 0
0, 0
0, 0
0, 0
0, 0
0, 0
0, 0
0, 0
0, 0
0, 0
0, 0
0, 0
0, 0
0, 0
0, 0
0, 0
0, 0
0, 0
0, 0
0, 0
0, 0
0, 0
0, 0
0, 0
0, 0
0, 0
0, 0
0, 0
0, 0
0, 0
0, 0
0, 0
0, 0
0, 0
0, 0
0, 0
0, 0
0, 0
0, 0
0, 0
0, 0
0, 0
0, 0
0, 0
0, 0
0, 0
0, 0
0, 0
0, 0
0, 0
0, 0
0, 0
0, 0
0, 0
0, 0
0, 0
0, 0
0, 0
0, 0
0, 0
0, 0
0, 0
0, 0
0, 0
0, 0
0, 0
0, 0
0, 0
0, 0
0, 0
0, 0
0, 0
0, 0
0, 0
0, 0
0, 0
0, 0
0, 0
0, 0
0, 0
0, 0
0, 0
0, 0
0, 0
0, 0
0, 0
0, 0
0, 0
0, 0
0, 0
0, 0
0, 0
0, 0
0, 0
0, 0
0, 0
0, 0
0, 0
0, 0
0, 0
0, 0
0, 0
0, 0
0, 0
0, 0
0, 0
0, 0
0, 0
0, 0
0, 0
0, 0
0, 0
0, 0
0, 0
0, 0
0, 0
0, 0
0, 0
0, 0
0, 0
0, 0
0, 0
0, 0
0, 0
0, 0
0, 0
0, 0
0, 0
0, 0
0, 0
0, 0
0, 0
0, 0
0, 0
0, 0
0, 0
0, 0
0, 0
0, 0
0, 0
0, 0
0, 0
0, 0
0, 0
0, 0
0, 0
0, 0
0, 0
0, 0
0, 0
0, 0
0, 0
0, 0
0, 0
0, 0
0, 0
0, 0
0, 0
0, 0
0, 0
#ENDOFDATA     end of spectrum data