File: host_upload/06-09-2024/ps_0852/dump3/ps__0852shot_2554.msa
#FORMAT      : EMSA/MAS spectral data file
#VERSION     : TC202v2.0 PIXL
#TITLE       : N/A
#DATE        :       Date in the format DD-MMM-YYYY, for example 07-JUL-2010
#TIME        :             The time of day at which the spectrum was recorded, in 24-hour format
#OWNER       : PIXL Flight Model       (PIXL will use this to indicate which instrument took the data.)
#NPOINTS     : 4096     Number of data points in the spectrum (This can be zero for configuration only files)
#NCOLUMNS    : 2     Number of data columns in the spectrum (This can be zero for configuration only files)
#XUNITS      : eV
#YUNITS      : COUNTS
#DATATYPE    : YY
#XPERCHAN    : 7.862, 7.881   eV per channel (separate by commas if more than one detector)
#OFFSET      : 18.5, -22.4         eV of first channel  (separate by commas if more than one detector
#SIGNALTYPE  : XRF
#YP_TEMP     : 2.46
#LIVETIME    : 8.54601, 8.54698   seconds (separate by commas if more than one detector)
#REALTIME    : 10, 10.0   seconds (separate by commas if more than one detector)
#SPECTRUM    : start of spectrum data
0, 0
0, 0
0, 0
0, 0
0, 0
0, 0
0, 0
0, 0
0, 0
0, 0
0, 0
0, 0
0, 0
0, 0
0, 0
0, 0
0, 0
0, 0
0, 0
0, 0
0, 0
0, 0
0, 0
0, 0
0, 0
0, 0
0, 0
0, 0
0, 0
0, 0
0, 0
0, 0
0, 0
0, 0
1, 0
0, 0
0, 1
0, 0
0, 0
3, 1
2, 1
1, 1
1, 0
2, 0
0, 0
1, 0
2, 1
4, 0
5, 3
10, 21
30, 22
46, 36
71, 59
73, 84
92, 64
88, 76
61, 40
45, 41
25, 22
25, 18
15, 9
7, 2
4, 2
1, 6
3, 6
2, 4
3, 7
10, 13
17, 20
46, 48
102, 95
170, 165
284, 263
362, 372
447, 432
441, 407
372, 348
285, 296
225, 200
138, 130
73, 78
35, 40
20, 14
11, 6
6, 6
4, 2
4, 1
1, 2
2, 0
1, 2
1, 1
0, 1
1, 0
0, 0
0, 5
2, 3
0, 1
4, 2
2, 1
0, 0
3, 2
3, 0
2, 1
2, 3
1, 2
4, 1
5, 4
5, 7
7, 4
9, 10
18, 9
22, 22
18, 23
23, 26
23, 27
32, 23
31, 29
14, 28
29, 22
19, 19
22, 21
18, 11
21, 16
14, 11
9, 11
15, 15
13, 7
9, 5
3, 5
10, 9
8, 2
8, 3
2, 1
4, 2
3, 7
3, 2
2, 3
1, 0
3, 4
3, 2
0, 2
1, 0
1, 2
1, 4
2, 1
3, 2
2, 4
4, 2
3, 1
6, 3
7, 8
8, 7
6, 7
9, 7
22, 15
20, 14
16, 19
28, 21
14, 16
14, 22
18, 14
7, 13
12, 11
4, 5
2, 2
2, 3
0, 2
1, 3
5, 1
7, 3
2, 5
7, 5
2, 2
6, 6
5, 3
2, 6
5, 4
4, 3
5, 2
3, 0
2, 0
2, 6
3, 4
2, 4
1, 2
2, 3
1, 1
6, 5
4, 7
7, 5
6, 5
6, 12
6, 6
2, 12
8, 15
10, 9
13, 11
16, 15
12, 9
11, 7
5, 11
9, 10
10, 10
10, 7
2, 6
7, 5
6, 4
7, 2
5, 4
7, 4
7, 5
4, 5
1, 5
8, 7
8, 3
7, 1
9, 7
10, 5
5, 4
7, 7
5, 3
5, 6
2, 9
8, 7
3, 4
8, 10
10, 11
16, 11
20, 11
18, 12
16, 18
20, 13
14, 12
16, 18
10, 10
11, 10
11, 5
6, 11
7, 9
10, 8
3, 9
7, 9
5, 10
8, 14
17, 21
26, 26
20, 32
46, 43
46, 66
65, 72
86, 69
79, 68
87, 75
71, 59
65, 39
67, 35
58, 20
46, 21
35, 9
30, 18
21, 20
32, 29
52, 64
85, 98
156, 173
255, 337
449, 607
784, 897
1163, 1301
1587, 1772
1991, 2243
2332, 2457
2519, 2507
2413, 2310
2166, 2037
1725, 1498
1379, 1138
908, 775
533, 431
381, 239
189, 154
90, 62
41, 26
32, 15
22, 22
13, 8
13, 14
16, 7
14, 19
23, 18
26, 36
35, 38
44, 44
55, 73
113, 130
145, 204
189, 223
265, 303
335, 343
358, 371
387, 374
340, 336
298, 250
240, 206
197, 157
136, 113
79, 79
51, 34
33, 23
26, 15
17, 13
19, 7
16, 12
14, 14
20, 13
12, 20
12, 21
19, 12
14, 9
15, 10
18, 10
6, 12
9, 8
6, 5
7, 7
5, 4
2, 2
4, 4
2, 4
3, 1
4, 4
2, 1
4, 2
8, 3
6, 2
3, 9
3, 4
2, 7
2, 5
3, 9
4, 12
2, 8
5, 12
5, 6
2, 18
2, 14
4, 14
5, 11
6, 14
2, 10
2, 11
8, 9
5, 7
7, 16
5, 10
3, 3
4, 11
4, 5
9, 12
0, 3
2, 3
7, 6
2, 6
6, 6
6, 3
4, 7
7, 0
3, 3
2, 8
6, 4
7, 2
2, 3
5, 6
10, 3
5, 4
9, 5
13, 1
15, 5
17, 3
16, 3
22, 4
25, 3
20, 2
17, 3
17, 2
19, 1
10, 2
11, 0
9, 1
4, 5
7, 6
6, 1
5, 1
3, 2
6, 2
8, 5
8, 2
5, 4
9, 6
0, 2
5, 2
6, 3
7, 4
7, 4
7, 4
5, 4
6, 1
5, 4
2, 4
7, 1
3, 9
2, 5
1, 2
5, 2
1, 4
2, 2
8, 2
5, 3
3, 3
2, 3
3, 2
2, 3
7, 5
5, 5
2, 2
4, 2
8, 2
3, 3
7, 4
4, 3
2, 2
4, 3
2, 2
2, 2
2, 3
4, 5
3, 2
5, 3
2, 0
4, 3
2, 3
5, 5
0, 4
7, 5
1, 6
7, 2
3, 1
5, 1
4, 0
2, 1
3, 2
2, 2
2, 2
5, 2
5, 2
7, 3
4, 7
3, 1
9, 3
7, 7
6, 3
4, 2
5, 5
3, 6
3, 1
6, 3
2, 5
3, 1
4, 1
1, 1
2, 5
4, 3
0, 3
2, 1
3, 7
1, 2
2, 1
3, 4
0, 3
1, 2
4, 1
0, 2
1, 2
4, 0
0, 3
3, 6
3, 2
2, 1
1, 2
1, 3
1, 0
4, 3
0, 2
2, 2
2, 1
0, 1
5, 3
4, 0
2, 4
6, 1
3, 3
1, 3
5, 5
3, 3
1, 3
3, 2
4, 2
3, 3
0, 2
0, 1
1, 1
4, 1
1, 2
1, 2
2, 3
0, 2
0, 1
0, 1
4, 1
3, 2
0, 1
2, 2
1, 3
2, 1
1, 4
1, 2
0, 3
0, 1
1, 3
1, 1
1, 2
4, 4
3, 5
3, 4
3, 3
2, 4
2, 3
2, 3
4, 2
6, 5
6, 2
3, 3
5, 2
8, 2
9, 3
3, 2
6, 6
5, 5
2, 1
5, 2
2, 3
4, 2
1, 0
5, 2
3, 0
2, 0
2, 2
1, 1
1, 0
0, 0
1, 0
3, 3
0, 2
1, 2
1, 0
0, 1
1, 3
3, 1
0, 1
2, 6
2, 3
1, 3
2, 4
0, 2
1, 0
3, 2
2, 1
3, 2
4, 4
2, 1
2, 1
1, 2
2, 0
1, 0
0, 0
2, 2
1, 2
0, 2
2, 0
0, 1
1, 1
3, 1
0, 1
1, 3
1, 1
0, 1
2, 1
0, 3
0, 2
1, 1
0, 0
0, 1
2, 0
1, 1
1, 1
0, 0
2, 1
2, 0
2, 2
2, 0
3, 1
2, 0
1, 1
3, 2
0, 0
0, 2
0, 1
2, 2
2, 1
1, 2
1, 3
1, 0
0, 0
2, 1
1, 1
1, 1
0, 1
1, 1
2, 1
0, 0
1, 1
1, 2
2, 1
1, 1
0, 3
1, 0
1, 0
2, 0
1, 0
0, 3
0, 0
0, 0
2, 0
0, 0
0, 0
0, 1
0, 0
2, 1
1, 0
1, 1
0, 0
0, 2
0, 1
1, 1
0, 0
1, 0
1, 0
0, 1
1, 1
0, 0
2, 0
2, 0
0, 0
2, 1
1, 0
1, 0
0, 2
1, 0
0, 0
0, 0
1, 1
1, 0
0, 0
0, 0
0, 0
0, 1
1, 0
2, 1
1, 1
0, 1
0, 1
0, 1
0, 0
1, 0
1, 1
0, 1
1, 0
0, 0
0, 1
0, 1
0, 0
0, 0
0, 0
0, 0
0, 0
1, 0
0, 0
0, 0
1, 0
0, 0
1, 0
0, 1
0, 0
0, 0
1, 0
0, 1
1, 0
0, 1
2, 0
1, 1
1, 1
3, 1
3, 0
1, 0
1, 0
1, 1
0, 0
0, 1
0, 1
0, 0
0, 0
1, 1
0, 1
0, 0
1, 1
1, 0
1, 1
0, 0
1, 0
1, 0
1, 1
1, 0
0, 0
1, 0
1, 0
1, 0
1, 0
0, 0
1, 0
0, 0
0, 0
0, 0
0, 0
0, 0
0, 1
2, 0
0, 0
0, 2
0, 3
0, 0
0, 0
0, 0
0, 0
0, 0
0, 0
1, 0
0, 0
0, 0
0, 0
0, 0
0, 0
0, 1
0, 1
0, 0
2, 0
1, 0
2, 0
1, 1
0, 2
1, 0
1, 0
0, 0
0, 2
0, 1
0, 0
0, 0
0, 0
0, 0
0, 0
0, 0
0, 1
1, 0
1, 0
0, 0
0, 0
0, 1
0, 1
0, 1
0, 2
0, 0
0, 0
1, 0
0, 1
0, 0
1, 1
1, 1
1, 1
0, 1
1, 0
0, 0
0, 0
0, 0
0, 1
1, 0
0, 1
0, 1
0, 0
0, 0
1, 0
1, 0
0, 0
0, 0
1, 1
0, 1
0, 0
0, 0
0, 0
0, 0
0, 0
0, 0
0, 0
0, 0
0, 0
0, 0
1, 0
0, 0
0, 1
0, 1
0, 1
0, 0
0, 1
0, 0
0, 0
0, 0
0, 1
0, 0
0, 0
0, 0
0, 0
0, 0
0, 0
0, 1
0, 0
0, 0
0, 0
0, 0
0, 1
0, 0
0, 0
0, 0
1, 0
1, 0
0, 0
0, 0
0, 0
0, 0
0, 0
0, 0
0, 0
1, 1
0, 1
0, 0
0, 0
0, 0
0, 0
0, 0
1, 0
0, 0
0, 1
0, 1
0, 0
0, 1
0, 1
0, 0
0, 0
0, 0
0, 0
0, 0
1, 0
0, 0
0, 0
0, 0
0, 0
0, 0
0, 0
0, 0
0, 0
0, 0
0, 1
0, 0
0, 0
0, 0
1, 0
0, 0
0, 0
0, 0
0, 0
0, 0
0, 0
0, 0
0, 0
0, 0
0, 0
0, 0
0, 0
0, 0
0, 0
0, 0
0, 0
1, 0
0, 0
0, 0
0, 0
0, 0
0, 0
0, 0
0, 0
0, 0
0, 0
0, 0
0, 0
0, 0
0, 0
0, 0
0, 0
0, 0
0, 0
0, 0
0, 0
0, 0
0, 0
0, 0
0, 0
0, 0
0, 0
0, 0
0, 0
0, 0
0, 0
0, 0
0, 0
0, 0
0, 0
0, 0
0, 0
0, 0
0, 0
1, 0
0, 0
0, 0
0, 0
0, 0
0, 0
0, 0
0, 0
0, 1
0, 0
0, 0
0, 0
0, 0
0, 0
0, 0
0, 0
1, 0
0, 0
0, 0
0, 0
0, 0
0, 0
0, 0
0, 0
0, 0
0, 0
0, 0
0, 0
0, 0
0, 0
0, 0
0, 0
0, 0
0, 0
0, 0
0, 0
0, 0
0, 0
0, 0
0, 0
0, 0
0, 0
0, 0
0, 0
0, 0
0, 0
0, 0
0, 0
0, 0
0, 0
0, 0
0, 0
0, 0
0, 0
0, 0
0, 0
0, 0
0, 0
0, 0
0, 0
0, 0
0, 0
0, 0
0, 1
0, 0
0, 0
0, 0
0, 0
0, 0
0, 0
0, 0
0, 0
0, 0
1, 0
0, 0
0, 0
0, 0
0, 0
0, 0
0, 0
0, 0
0, 0
0, 0
0, 0
0, 0
0, 0
0, 0
0, 0
0, 0
0, 0
0, 0
0, 0
0, 0
0, 0
0, 0
0, 0
0, 0
0, 0
0, 0
0, 0
0, 0
0, 0
0, 0
0, 0
0, 0
0, 0
0, 0
0, 0
0, 0
0, 0
0, 0
0, 0
0, 0
0, 0
0, 0
0, 0
0, 0
0, 0
0, 0
0, 0
0, 0
0, 0
0, 0
0, 0
0, 0
0, 0
0, 0
0, 0
0, 0
0, 0
0, 0
0, 0
0, 0
0, 0
0, 0
0, 0
0, 0
0, 0
0, 0
0, 0
0, 0
0, 0
0, 0
0, 0
0, 0
0, 0
0, 0
0, 0
0, 0
0, 0
0, 0
0, 0
0, 0
0, 0
0, 0
0, 0
0, 0
0, 0
0, 0
0, 0
0, 0
0, 0
0, 0
0, 0
0, 0
0, 0
0, 0
0, 0
0, 0
0, 0
0, 0
1, 0
0, 0
0, 0
0, 0
0, 0
0, 0
0, 0
0, 0
0, 0
0, 0
0, 0
0, 0
0, 0
0, 0
0, 0
0, 0
0, 0
0, 0
0, 0
0, 0
0, 0
0, 0
0, 0
0, 0
0, 0
0, 0
0, 0
0, 0
0, 0
0, 0
0, 0
0, 0
0, 0
0, 0
0, 0
0, 0
0, 0
0, 0
0, 0
0, 0
0, 0
0, 0
0, 0
0, 0
0, 0
0, 0
0, 0
0, 0
0, 0
0, 0
0, 0
0, 0
0, 0
0, 0
0, 0
0, 0
0, 0
0, 0
0, 0
0, 0
0, 0
0, 0
0, 0
0, 0
0, 0
0, 0
0, 0
0, 0
0, 0
0, 0
0, 0
0, 0
0, 0
0, 0
0, 0
0, 0
0, 0
0, 0
0, 0
0, 0
0, 0
0, 0
0, 0
0, 0
0, 0
0, 0
0, 0
0, 0
0, 0
0, 0
0, 0
0, 0
0, 0
0, 0
0, 0
0, 0
0, 0
0, 0
0, 0
0, 0
0, 0
0, 0
0, 0
0, 0
0, 0
0, 0
0, 0
0, 0
0, 0
0, 0
0, 0
0, 0
0, 0
0, 0
0, 0
0, 0
0, 0
0, 0
0, 0
0, 0
0, 0
0, 0
0, 0
0, 0
0, 0
0, 0
0, 0
0, 0
0, 0
0, 0
0, 0
0, 0
0, 0
0, 0
0, 0
0, 0
0, 0
0, 0
0, 0
0, 0
0, 0
0, 0
0, 0
0, 0
0, 0
0, 0
0, 0
0, 0
0, 0
0, 0
0, 0
0, 0
0, 0
0, 0
0, 0
0, 0
0, 0
0, 0
0, 0
0, 0
0, 0
0, 0
0, 0
0, 0
0, 0
0, 0
0, 0
0, 0
0, 0
0, 0
0, 0
0, 0
0, 0
0, 0
0, 0
0, 0
0, 0
0, 0
0, 0
0, 0
0, 0
0, 0
0, 0
0, 0
0, 0
0, 0
0, 0
0, 0
0, 0
0, 0
0, 0
0, 0
0, 0
0, 0
0, 0
0, 0
0, 0
0, 0
0, 0
0, 0
0, 0
0, 0
0, 0
0, 0
0, 0
0, 0
0, 0
0, 0
0, 0
0, 0
0, 0
0, 0
0, 0
0, 0
0, 0
0, 0
0, 0
0, 0
0, 0
0, 0
0, 0
0, 0
0, 0
0, 0
0, 0
0, 0
0, 0
0, 0
0, 0
0, 0
0, 0
0, 0
0, 0
0, 0
0, 0
0, 0
0, 0
0, 0
0, 0
0, 0
0, 0
0, 0
0, 0
0, 0
0, 0
0, 0
0, 0
0, 0
#ENDOFDATA     end of spectrum data