File: host_upload/06-09-2024/ps_0852/dump3/ps__0852shot_2248.msa
#FORMAT      : EMSA/MAS spectral data file
#VERSION     : TC202v2.0 PIXL
#TITLE       : N/A
#DATE        :       Date in the format DD-MMM-YYYY, for example 07-JUL-2010
#TIME        :             The time of day at which the spectrum was recorded, in 24-hour format
#OWNER       : PIXL Flight Model       (PIXL will use this to indicate which instrument took the data.)
#NPOINTS     : 4096     Number of data points in the spectrum (This can be zero for configuration only files)
#NCOLUMNS    : 2     Number of data columns in the spectrum (This can be zero for configuration only files)
#XUNITS      : eV
#YUNITS      : COUNTS
#DATATYPE    : YY
#XPERCHAN    : 7.862, 7.881   eV per channel (separate by commas if more than one detector)
#OFFSET      : 18.5, -22.4         eV of first channel  (separate by commas if more than one detector
#SIGNALTYPE  : XRF
#YP_TEMP     : 2.332
#LIVETIME    : 8.57233, 8.56837   seconds (separate by commas if more than one detector)
#REALTIME    : 10, 10.0   seconds (separate by commas if more than one detector)
#SPECTRUM    : start of spectrum data
0, 0
0, 0
0, 0
0, 0
0, 0
0, 0
0, 0
0, 0
0, 0
0, 0
0, 0
0, 0
0, 0
0, 0
0, 0
0, 0
0, 0
0, 0
0, 0
0, 0
0, 0
0, 0
0, 0
0, 0
0, 0
0, 0
0, 0
0, 0
0, 0
0, 0
0, 0
0, 0
1, 0
0, 0
0, 0
0, 0
0, 0
0, 0
2, 4
2, 0
0, 3
1, 1
0, 2
1, 3
0, 0
3, 5
4, 2
3, 4
4, 6
13, 10
30, 19
43, 44
56, 50
74, 65
86, 86
74, 67
57, 49
47, 53
30, 25
20, 14
10, 10
9, 0
9, 4
4, 4
4, 3
5, 3
4, 6
16, 9
17, 17
51, 44
78, 94
157, 181
245, 260
343, 365
388, 405
399, 405
373, 341
290, 290
234, 172
115, 118
67, 61
29, 35
13, 19
15, 10
12, 7
1, 2
2, 1
4, 1
3, 0
3, 1
2, 1
0, 1
0, 1
2, 0
1, 0
3, 2
1, 1
0, 1
3, 4
2, 5
1, 3
0, 1
3, 4
4, 4
5, 3
3, 6
5, 5
2, 3
8, 12
13, 18
20, 22
22, 50
29, 52
31, 64
42, 57
52, 78
42, 48
42, 55
31, 33
26, 38
25, 31
26, 20
28, 24
20, 20
14, 14
9, 20
11, 7
6, 9
8, 8
11, 6
5, 6
2, 1
1, 2
3, 1
1, 2
2, 1
0, 1
2, 1
1, 2
1, 1
3, 4
3, 3
1, 2
3, 2
3, 2
1, 2
2, 2
5, 2
2, 0
4, 4
3, 4
1, 5
1, 6
7, 6
2, 7
14, 10
13, 14
6, 5
15, 14
15, 10
12, 8
8, 4
7, 4
2, 4
3, 8
3, 2
2, 10
3, 7
5, 8
6, 6
1, 3
4, 6
4, 4
4, 5
3, 7
5, 1
3, 9
1, 5
6, 5
2, 4
1, 4
6, 1
2, 3
2, 3
4, 3
6, 2
7, 4
13, 4
25, 3
32, 10
58, 11
66, 14
83, 7
88, 9
92, 7
73, 17
80, 13
57, 14
46, 10
30, 10
26, 8
20, 11
11, 11
9, 4
6, 4
6, 6
10, 6
5, 8
6, 9
7, 9
5, 6
5, 7
9, 7
5, 2
8, 4
7, 3
2, 3
4, 8
4, 11
5, 13
7, 20
7, 22
7, 52
7, 58
3, 49
14, 46
9, 54
8, 44
9, 41
12, 37
17, 19
4, 16
11, 14
21, 17
13, 10
13, 12
10, 8
15, 6
19, 8
28, 9
29, 8
34, 11
37, 9
45, 12
43, 32
46, 24
38, 33
41, 43
68, 48
62, 56
59, 55
60, 56
65, 56
54, 53
45, 55
49, 39
23, 24
18, 21
12, 16
19, 15
24, 21
39, 26
51, 75
74, 96
138, 194
242, 356
489, 665
795, 988
1134, 1421
1538, 1761
1952, 2068
2291, 2376
2446, 2448
2278, 2250
2188, 2039
1682, 1559
1314, 1107
985, 753
611, 462
362, 297
191, 164
108, 109
67, 69
30, 55
19, 33
9, 20
12, 32
12, 26
12, 36
18, 31
26, 32
24, 41
45, 48
61, 78
101, 134
130, 170
210, 214
254, 272
325, 343
355, 383
351, 367
310, 319
304, 314
287, 223
197, 162
127, 114
89, 79
61, 40
46, 19
35, 15
28, 12
32, 8
33, 6
42, 9
39, 4
30, 17
38, 17
27, 8
17, 16
13, 10
21, 9
11, 9
11, 8
9, 9
10, 0
4, 5
7, 4
6, 2
5, 3
8, 4
8, 2
6, 4
3, 1
3, 2
1, 5
2, 5
5, 6
6, 4
2, 10
4, 3
4, 10
2, 11
7, 5
2, 4
12, 11
4, 2
5, 3
4, 3
5, 6
4, 5
4, 6
6, 2
7, 3
2, 6
7, 0
3, 3
8, 6
6, 3
6, 3
7, 3
5, 10
3, 2
6, 3
6, 3
2, 0
6, 8
8, 2
8, 1
4, 4
5, 4
8, 4
12, 9
2, 5
4, 13
4, 4
9, 4
5, 5
12, 8
3, 7
2, 0
7, 4
9, 6
3, 4
4, 3
5, 3
7, 4
5, 2
3, 2
3, 4
3, 0
4, 4
7, 5
1, 9
0, 11
3, 7
0, 9
2, 9
1, 6
6, 8
3, 7
4, 7
3, 5
4, 0
2, 3
1, 3
4, 2
1, 2
1, 4
3, 5
4, 2
1, 1
2, 6
5, 2
0, 2
3, 1
5, 2
7, 3
3, 3
5, 6
3, 0
3, 1
2, 1
3, 3
3, 1
3, 5
3, 1
4, 4
4, 3
4, 4
4, 4
8, 2
8, 3
5, 2
9, 0
9, 2
5, 3
10, 2
4, 5
9, 2
4, 1
5, 3
5, 1
2, 3
4, 5
3, 2
3, 2
5, 5
0, 5
2, 5
3, 5
5, 3
2, 5
3, 4
4, 7
2, 4
2, 4
2, 3
2, 4
2, 2
2, 2
1, 6
0, 5
4, 1
2, 1
4, 3
2, 1
1, 2
1, 0
4, 4
6, 1
5, 3
2, 3
2, 2
1, 4
3, 3
2, 8
0, 7
1, 3
1, 1
2, 4
3, 1
2, 3
2, 2
3, 1
1, 1
2, 3
2, 1
1, 5
2, 1
1, 2
2, 2
2, 1
2, 3
1, 2
2, 1
3, 2
3, 1
1, 2
2, 2
3, 1
4, 2
1, 4
0, 5
2, 3
0, 2
4, 6
8, 4
4, 4
4, 5
2, 4
3, 2
3, 2
1, 2
1, 5
2, 5
5, 5
3, 0
3, 2
0, 2
5, 1
5, 0
2, 1
2, 2
1, 2
2, 3
0, 0
1, 1
2, 1
0, 2
0, 0
0, 1
0, 2
1, 1
0, 6
4, 1
2, 2
0, 3
4, 6
2, 4
2, 1
4, 3
3, 1
9, 4
3, 1
0, 4
5, 0
1, 3
3, 1
2, 1
5, 3
4, 5
0, 1
1, 0
1, 3
3, 0
0, 0
0, 1
2, 0
1, 2
2, 1
3, 1
0, 3
2, 3
0, 1
0, 2
6, 3
4, 2
0, 1
2, 2
0, 0
3, 2
0, 0
0, 2
1, 1
1, 1
0, 4
1, 0
0, 2
0, 2
0, 2
3, 2
0, 1
1, 2
3, 0
1, 1
1, 1
2, 2
1, 2
1, 2
1, 2
1, 1
0, 1
0, 0
2, 0
0, 1
3, 0
1, 3
0, 0
0, 1
2, 2
0, 0
2, 1
1, 1
1, 1
3, 0
2, 0
0, 0
1, 0
1, 1
0, 2
0, 2
1, 0
1, 1
0, 0
1, 0
4, 2
1, 1
0, 3
0, 0
1, 1
0, 3
1, 3
0, 2
0, 1
1, 1
0, 1
0, 1
0, 0
0, 0
1, 0
1, 1
0, 2
0, 0
1, 1
1, 0
0, 1
1, 0
0, 0
0, 0
0, 0
1, 0
0, 0
1, 0
1, 2
0, 2
0, 1
0, 2
2, 0
0, 1
1, 0
1, 0
2, 1
1, 0
0, 1
0, 1
0, 0
0, 3
1, 0
1, 1
0, 0
1, 1
1, 0
0, 0
0, 0
1, 0
2, 1
1, 0
1, 1
0, 0
0, 2
0, 0
1, 0
0, 0
1, 0
1, 0
2, 0
0, 1
0, 0
1, 0
0, 0
1, 0
0, 0
0, 0
0, 1
0, 0
0, 2
0, 0
0, 0
0, 1
0, 0
1, 0
0, 1
0, 0
0, 0
0, 1
0, 0
0, 0
0, 0
0, 0
0, 1
0, 0
0, 0
1, 0
1, 1
0, 0
0, 0
1, 1
2, 1
0, 0
1, 0
0, 0
0, 0
1, 1
0, 3
0, 1
2, 1
2, 0
0, 0
0, 1
0, 2
0, 0
1, 0
0, 0
0, 0
0, 0
0, 1
0, 0
0, 0
1, 0
0, 0
0, 0
0, 0
1, 1
2, 0
0, 0
0, 0
0, 1
1, 0
1, 0
0, 0
0, 0
0, 0
0, 0
0, 0
0, 1
0, 0
0, 0
0, 0
0, 0
0, 0
0, 0
0, 0
0, 0
0, 0
0, 1
1, 0
0, 0
1, 0
0, 0
0, 0
2, 0
3, 0
0, 1
0, 0
0, 1
1, 0
0, 0
0, 0
0, 0
0, 0
0, 0
0, 1
0, 0
0, 0
0, 0
0, 1
0, 0
0, 0
0, 0
0, 0
0, 0
1, 0
0, 1
0, 1
0, 1
1, 0
0, 1
0, 0
0, 0
0, 0
0, 0
0, 0
1, 1
0, 0
0, 0
0, 0
0, 0
0, 0
1, 0
1, 0
0, 0
1, 0
0, 1
0, 0
0, 0
0, 0
1, 0
1, 0
0, 0
0, 0
0, 0
0, 0
0, 0
0, 0
0, 0
0, 0
0, 0
0, 0
0, 0
0, 0
0, 0
0, 0
0, 0
0, 0
0, 0
0, 0
0, 0
0, 0
0, 0
0, 0
0, 0
0, 1
0, 0
0, 0
0, 0
0, 0
0, 0
0, 0
0, 0
0, 0
0, 0
0, 0
0, 0
0, 0
0, 0
0, 0
0, 0
0, 0
0, 0
0, 0
0, 0
0, 0
0, 0
0, 0
0, 2
0, 0
0, 0
0, 0
0, 0
0, 0
0, 0
0, 0
1, 0
0, 0
0, 0
0, 0
0, 0
0, 0
1, 0
0, 0
1, 0
1, 0
0, 0
0, 0
0, 0
0, 0
0, 0
0, 0
0, 1
0, 0
0, 0
0, 0
0, 0
0, 0
0, 1
1, 0
0, 0
0, 1
0, 0
0, 1
0, 0
1, 0
0, 0
1, 0
0, 0
0, 0
0, 0
0, 0
1, 0
0, 0
0, 0
0, 0
0, 0
0, 1
0, 0
0, 0
0, 0
0, 0
1, 0
0, 0
0, 0
0, 0
0, 0
0, 0
0, 0
0, 1
0, 0
0, 0
0, 0
0, 0
0, 0
0, 0
0, 0
0, 0
0, 0
0, 0
1, 0
0, 0
0, 0
0, 0
1, 0
0, 0
0, 0
0, 0
0, 0
0, 0
0, 0
0, 0
0, 0
0, 0
0, 0
0, 0
1, 0
0, 0
0, 0
0, 0
0, 0
0, 0
0, 0
0, 0
0, 0
0, 0
0, 0
0, 0
0, 1
0, 0
0, 0
0, 0
0, 0
0, 0
0, 0
0, 0
0, 0
0, 0
0, 0
0, 0
0, 0
0, 0
0, 0
1, 0
0, 0
0, 0
0, 0
0, 0
0, 0
0, 0
0, 0
0, 0
0, 0
0, 0
0, 0
0, 0
0, 0
0, 0
0, 0
0, 0
0, 0
0, 0
0, 1
0, 0
0, 0
0, 0
0, 0
0, 0
0, 0
0, 0
0, 0
0, 0
0, 0
0, 0
0, 0
0, 0
0, 0
0, 0
0, 0
0, 0
0, 0
0, 0
0, 0
0, 0
0, 0
0, 0
0, 0
0, 0
0, 0
0, 0
0, 0
0, 0
0, 0
0, 0
0, 0
0, 0
0, 0
0, 0
0, 0
0, 0
0, 0
0, 0
0, 0
0, 0
0, 0
0, 0
0, 0
0, 0
0, 0
0, 0
0, 0
0, 0
0, 0
0, 0
0, 0
0, 0
0, 0
0, 0
0, 0
0, 0
0, 0
0, 0
0, 0
0, 0
0, 0
0, 0
0, 0
0, 0
0, 0
0, 0
0, 0
0, 0
0, 0
0, 0
0, 0
0, 0
0, 0
0, 0
0, 0
0, 0
0, 0
0, 0
0, 0
0, 0
0, 0
0, 0
0, 0
0, 0
0, 0
0, 0
0, 0
0, 0
0, 0
0, 0
0, 0
0, 0
0, 0
0, 0
0, 0
0, 0
0, 0
0, 0
0, 0
0, 0
0, 0
0, 0
0, 0
0, 0
0, 0
0, 0
0, 0
0, 0
0, 0
0, 0
0, 0
0, 0
0, 0
0, 0
0, 0
0, 0
0, 0
0, 0
0, 0
0, 0
0, 0
0, 0
0, 0
0, 0
0, 0
0, 0
0, 0
0, 0
0, 0
0, 0
0, 0
0, 0
0, 0
0, 0
0, 0
0, 0
0, 0
0, 0
0, 0
0, 0
0, 0
0, 0
0, 0
0, 0
0, 0
0, 0
0, 0
0, 0
0, 0
0, 0
0, 0
0, 0
0, 0
0, 0
0, 0
0, 0
0, 0
0, 0
0, 0
0, 0
0, 0
0, 0
0, 0
0, 0
0, 0
0, 0
0, 0
0, 0
0, 0
0, 0
0, 0
0, 0
0, 0
0, 0
0, 0
0, 0
0, 0
0, 0
0, 0
0, 0
0, 0
0, 0
0, 0
0, 0
0, 0
0, 0
0, 0
0, 0
0, 0
0, 0
0, 0
0, 0
0, 0
0, 0
0, 0
0, 0
0, 0
0, 0
0, 0
0, 0
0, 0
0, 0
0, 0
0, 0
0, 0
0, 0
0, 0
0, 0
0, 0
0, 0
0, 0
0, 0
0, 0
0, 0
0, 0
0, 0
0, 0
0, 0
0, 0
0, 0
0, 0
0, 0
0, 0
0, 0
0, 0
0, 0
0, 0
0, 0
0, 0
0, 0
0, 0
0, 0
0, 0
0, 0
0, 0
0, 0
0, 0
0, 0
0, 0
0, 0
0, 0
0, 0
0, 0
0, 0
0, 0
0, 0
0, 0
0, 0
0, 0
0, 0
0, 0
0, 0
0, 0
0, 0
0, 0
0, 0
0, 0
0, 0
0, 0
0, 0
0, 0
0, 0
0, 0
0, 0
0, 0
0, 0
0, 0
0, 0
0, 0
0, 0
0, 0
0, 0
0, 0
0, 0
0, 0
0, 0
0, 0
0, 0
0, 0
0, 0
0, 0
0, 0
0, 0
0, 0
0, 0
0, 0
0, 0
0, 0
0, 0
0, 0
0, 0
0, 0
0, 0
0, 0
0, 0
0, 0
0, 0
0, 0
0, 0
0, 0
0, 0
0, 0
0, 0
0, 0
0, 0
0, 0
0, 0
0, 0
0, 0
0, 0
0, 0
0, 0
0, 0
0, 0
0, 0
0, 0
0, 0
0, 0
0, 0
0, 0
0, 0
0, 0
0, 0
0, 0
0, 0
0, 0
0, 0
0, 0
0, 0
0, 0
0, 0
0, 0
0, 0
0, 0
0, 0
0, 0
0, 0
0, 0
0, 0
0, 0
0, 0
0, 0
0, 0
0, 0
0, 0
0, 0
0, 0
0, 0
0, 0
0, 0
0, 0
0, 0
0, 0
0, 0
0, 0
0, 0
0, 0
0, 0
0, 0
0, 0
0, 0
0, 0
0, 0
0, 0
0, 0
0, 0
0, 0
0, 0
0, 0
0, 0
0, 0
0, 0
0, 0
0, 0
0, 0
0, 0
#ENDOFDATA     end of spectrum data