File: host_upload/06-09-2024/ps_0852/dump3/ps__0852shot_2303.msa
#FORMAT      : EMSA/MAS spectral data file
#VERSION     : TC202v2.0 PIXL
#TITLE       : N/A
#DATE        :       Date in the format DD-MMM-YYYY, for example 07-JUL-2010
#TIME        :             The time of day at which the spectrum was recorded, in 24-hour format
#OWNER       : PIXL Flight Model       (PIXL will use this to indicate which instrument took the data.)
#NPOINTS     : 4096     Number of data points in the spectrum (This can be zero for configuration only files)
#NCOLUMNS    : 2     Number of data columns in the spectrum (This can be zero for configuration only files)
#XUNITS      : eV
#YUNITS      : COUNTS
#DATATYPE    : YY
#XPERCHAN    : 7.862, 7.881   eV per channel (separate by commas if more than one detector)
#OFFSET      : 18.5, -22.4         eV of first channel  (separate by commas if more than one detector
#SIGNALTYPE  : XRF
#YP_TEMP     : 2.332
#LIVETIME    : 8.5652, 8.56997   seconds (separate by commas if more than one detector)
#REALTIME    : 10, 10.0   seconds (separate by commas if more than one detector)
#SPECTRUM    : start of spectrum data
0, 0
0, 0
0, 0
0, 0
0, 0
0, 0
0, 0
0, 0
0, 0
0, 0
0, 0
0, 0
0, 0
0, 0
0, 0
0, 0
0, 0
0, 0
0, 0
0, 0
0, 0
0, 0
0, 0
0, 0
0, 0
0, 0
0, 0
0, 0
0, 0
0, 0
0, 0
0, 0
0, 0
0, 0
0, 0
0, 0
0, 1
0, 0
0, 1
4, 0
1, 0
1, 2
0, 3
0, 2
0, 1
1, 2
3, 3
1, 5
8, 6
15, 17
21, 19
46, 30
65, 50
72, 73
95, 58
86, 59
64, 41
41, 47
30, 20
19, 17
5, 9
10, 5
2, 2
2, 1
2, 7
3, 8
6, 4
7, 16
29, 19
47, 44
84, 78
181, 149
300, 245
388, 305
442, 386
436, 370
390, 311
290, 241
222, 177
151, 103
62, 55
36, 31
21, 21
13, 12
5, 8
5, 3
1, 1
4, 3
2, 1
1, 2
0, 3
0, 0
2, 1
1, 2
0, 3
1, 1
1, 2
1, 1
5, 2
6, 2
3, 4
0, 2
2, 1
1, 1
0, 2
6, 5
5, 6
2, 8
8, 4
14, 8
28, 13
30, 13
46, 16
77, 25
87, 41
84, 42
87, 44
71, 38
51, 23
64, 24
45, 30
27, 16
19, 23
25, 9
18, 10
14, 8
7, 8
16, 9
6, 4
7, 7
5, 3
6, 4
1, 4
6, 2
3, 5
1, 2
3, 1
3, 1
0, 3
3, 1
1, 2
1, 5
0, 1
3, 6
1, 6
1, 1
1, 5
3, 3
4, 4
5, 4
9, 7
17, 6
29, 15
24, 18
38, 24
26, 34
46, 37
47, 33
43, 34
35, 19
34, 26
16, 11
13, 7
21, 10
9, 3
5, 0
6, 3
4, 8
4, 6
7, 2
7, 6
10, 8
6, 8
5, 5
12, 6
2, 4
7, 7
4, 8
4, 3
4, 12
3, 4
3, 5
5, 3
1, 4
4, 3
7, 3
2, 8
2, 6
7, 3
9, 7
7, 4
14, 11
4, 12
14, 21
9, 13
7, 22
10, 13
14, 12
10, 12
10, 9
12, 10
15, 6
13, 6
12, 9
7, 3
10, 4
6, 5
6, 8
5, 3
13, 7
8, 5
9, 5
4, 3
5, 12
8, 5
6, 8
5, 9
1, 5
4, 3
6, 5
4, 11
8, 4
7, 5
6, 12
14, 8
13, 9
13, 9
17, 11
19, 16
24, 20
25, 18
20, 17
24, 17
24, 15
25, 16
28, 23
17, 16
15, 18
23, 15
16, 13
11, 24
16, 7
11, 22
23, 16
21, 10
31, 20
42, 42
73, 33
78, 56
73, 57
91, 59
99, 54
92, 58
82, 54
53, 42
37, 20
34, 23
24, 18
19, 19
19, 18
15, 32
37, 22
54, 49
88, 98
141, 168
324, 331
541, 550
814, 818
1176, 1204
1651, 1568
2089, 1978
2326, 2142
2544, 2199
2500, 2093
2229, 1775
1799, 1403
1451, 1021
946, 679
630, 406
374, 235
205, 116
113, 68
48, 41
35, 24
21, 27
14, 24
22, 29
19, 29
25, 15
25, 35
17, 35
29, 49
49, 52
58, 93
91, 111
147, 162
206, 231
272, 255
299, 309
376, 315
388, 331
322, 288
309, 243
281, 202
201, 147
123, 113
91, 57
74, 35
39, 19
27, 14
20, 14
19, 9
17, 9
10, 11
15, 15
10, 13
18, 6
9, 7
23, 12
19, 10
12, 6
16, 5
12, 6
8, 3
10, 4
5, 4
6, 3
6, 5
8, 4
11, 6
4, 2
4, 5
5, 6
5, 3
2, 2
5, 2
6, 1
3, 6
10, 5
8, 9
7, 3
8, 6
5, 3
6, 7
10, 3
9, 4
11, 5
12, 9
7, 5
7, 5
5, 10
8, 5
11, 4
7, 5
7, 7
4, 3
5, 4
4, 9
6, 4
8, 2
4, 1
1, 3
6, 7
8, 8
4, 7
1, 4
7, 3
3, 5
6, 10
4, 10
2, 6
8, 5
5, 3
5, 2
4, 3
1, 3
2, 3
2, 5
4, 5
3, 3
4, 9
3, 6
4, 12
3, 10
5, 13
2, 18
6, 21
4, 19
3, 19
2, 14
6, 17
6, 14
5, 15
6, 8
5, 14
2, 10
6, 9
6, 5
1, 2
0, 3
4, 5
7, 3
8, 4
4, 3
4, 4
9, 3
7, 8
2, 8
7, 8
6, 4
10, 8
5, 15
1, 5
2, 5
1, 7
5, 8
2, 4
8, 7
3, 2
3, 2
3, 2
3, 0
3, 2
2, 1
5, 4
1, 6
4, 0
2, 3
1, 0
5, 2
2, 4
3, 4
1, 1
1, 2
2, 4
1, 2
5, 2
2, 3
9, 2
5, 3
2, 4
2, 5
5, 2
5, 6
2, 2
3, 3
4, 1
2, 4
3, 4
3, 4
7, 2
1, 5
2, 4
4, 2
6, 4
1, 3
4, 1
4, 0
2, 5
0, 0
3, 5
3, 4
5, 3
1, 0
2, 1
0, 1
3, 2
5, 2
2, 2
2, 3
3, 1
4, 0
4, 0
5, 3
2, 2
0, 3
1, 6
3, 4
3, 2
1, 3
2, 1
3, 3
7, 3
1, 4
1, 3
4, 2
4, 2
1, 4
4, 2
7, 1
0, 3
3, 7
7, 2
4, 3
4, 2
5, 1
3, 1
2, 0
9, 2
1, 2
8, 3
3, 4
3, 2
3, 3
5, 2
3, 5
2, 2
2, 4
0, 1
0, 2
2, 1
3, 5
2, 3
2, 3
0, 3
1, 2
4, 2
1, 0
1, 3
0, 3
3, 1
1, 0
2, 0
2, 3
2, 2
1, 1
2, 1
3, 1
2, 2
2, 2
3, 0
2, 1
3, 1
3, 3
3, 2
1, 5
1, 4
3, 2
4, 3
3, 3
1, 3
4, 1
2, 3
2, 2
3, 5
4, 1
5, 5
2, 2
7, 6
3, 1
1, 1
2, 1
5, 0
2, 2
1, 1
2, 1
0, 1
2, 1
0, 1
3, 2
0, 4
0, 1
2, 3
1, 3
1, 1
1, 1
1, 0
2, 1
1, 0
5, 1
2, 3
3, 3
3, 3
3, 2
7, 2
2, 2
0, 4
1, 1
1, 0
0, 2
0, 2
1, 0
2, 0
1, 2
1, 0
2, 0
1, 0
0, 2
3, 1
2, 1
1, 0
1, 1
2, 1
3, 1
0, 0
2, 2
5, 0
1, 1
1, 1
0, 0
2, 2
0, 0
2, 2
0, 3
1, 2
2, 1
2, 1
2, 3
1, 0
2, 1
1, 1
3, 0
1, 1
0, 2
0, 2
0, 1
2, 1
3, 3
0, 1
0, 3
1, 0
0, 1
0, 0
1, 0
1, 0
1, 1
0, 1
2, 0
0, 1
1, 1
0, 1
0, 1
1, 2
1, 0
0, 1
0, 0
1, 2
2, 2
0, 0
1, 1
0, 2
1, 0
1, 0
2, 2
2, 2
0, 0
0, 0
0, 0
2, 1
1, 1
4, 0
0, 0
2, 0
1, 0
0, 1
1, 0
2, 0
0, 0
0, 0
0, 0
0, 0
0, 0
1, 0
1, 2
1, 0
0, 0
0, 0
1, 2
0, 1
0, 0
1, 1
2, 1
0, 1
0, 0
1, 0
0, 1
1, 0
0, 3
1, 0
0, 1
0, 0
0, 0
0, 0
2, 1
0, 0
2, 0
2, 0
1, 1
0, 2
0, 1
0, 0
0, 0
0, 0
0, 0
1, 0
0, 0
1, 0
1, 1
1, 0
0, 1
2, 1
0, 2
0, 0
0, 0
1, 0
0, 0
0, 0
1, 0
0, 0
0, 0
0, 0
0, 0
0, 2
0, 1
0, 0
0, 1
0, 0
0, 1
1, 0
0, 0
1, 0
1, 0
0, 0
0, 0
0, 0
0, 0
0, 0
0, 0
1, 0
0, 0
0, 0
2, 0
0, 0
0, 0
1, 0
0, 1
0, 0
0, 0
1, 0
0, 0
0, 0
0, 0
0, 2
0, 0
1, 0
0, 0
0, 0
0, 0
0, 0
0, 0
1, 0
0, 0
0, 0
0, 0
0, 0
0, 0
1, 0
1, 0
0, 1
2, 0
0, 0
1, 0
1, 0
0, 1
0, 0
0, 0
0, 1
0, 1
1, 0
1, 0
0, 0
1, 0
1, 0
1, 0
0, 1
1, 0
0, 0
0, 0
0, 0
0, 1
0, 0
0, 0
0, 0
1, 1
0, 0
0, 0
0, 1
1, 0
2, 0
0, 1
0, 1
0, 0
0, 0
0, 0
1, 0
1, 0
0, 0
0, 0
0, 0
0, 0
0, 0
0, 0
0, 1
0, 0
0, 3
0, 0
0, 0
1, 0
0, 0
1, 0
0, 0
0, 0
0, 1
0, 0
0, 1
0, 0
0, 0
0, 0
1, 0
0, 0
0, 1
0, 0
0, 0
0, 0
1, 0
0, 0
0, 0
0, 0
0, 1
0, 0
0, 0
0, 0
0, 0
0, 1
1, 0
0, 0
0, 0
0, 0
0, 0
0, 0
0, 0
0, 0
0, 0
0, 0
1, 0
0, 0
1, 0
0, 1
0, 0
0, 0
1, 0
0, 0
0, 0
0, 1
0, 0
0, 0
0, 0
1, 0
0, 0
0, 0
0, 0
0, 0
0, 0
0, 0
0, 0
0, 0
0, 0
0, 0
0, 0
0, 0
0, 1
0, 0
0, 0
0, 1
1, 0
0, 0
0, 0
1, 0
0, 0
0, 0
1, 1
0, 0
0, 0
0, 0
0, 0
0, 0
0, 0
0, 0
0, 0
0, 0
0, 0
0, 0
0, 1
0, 0
0, 0
0, 0
0, 0
0, 0
0, 0
0, 0
0, 0
0, 0
0, 0
0, 0
0, 0
0, 0
0, 0
0, 0
0, 0
0, 0
0, 0
0, 0
0, 0
0, 0
0, 0
0, 0
0, 0
0, 0
0, 0
0, 1
0, 0
0, 0
0, 0
0, 0
0, 0
0, 0
0, 0
0, 0
0, 0
0, 0
0, 0
0, 0
0, 0
0, 0
0, 0
0, 0
0, 0
0, 0
0, 0
0, 1
0, 0
0, 0
0, 0
0, 0
0, 0
0, 0
0, 0
0, 0
0, 0
0, 0
0, 0
0, 0
0, 0
0, 0
0, 0
0, 0
0, 0
0, 0
0, 0
0, 0
0, 0
0, 0
0, 0
0, 0
0, 0
0, 0
0, 0
0, 0
0, 0
0, 0
0, 0
0, 0
0, 0
0, 0
0, 0
0, 0
0, 0
0, 0
0, 0
0, 0
0, 0
0, 0
0, 0
0, 0
0, 0
0, 0
0, 0
0, 1
0, 0
0, 0
0, 0
0, 1
0, 0
1, 0
0, 0
0, 0
0, 0
0, 0
0, 0
0, 0
0, 0
1, 0
0, 0
0, 0
0, 0
0, 0
0, 0
0, 0
0, 0
0, 0
0, 0
0, 0
0, 0
0, 0
0, 0
0, 0
0, 0
0, 0
0, 0
1, 0
0, 0
0, 0
0, 0
0, 0
0, 0
0, 0
0, 0
0, 0
0, 0
0, 0
0, 0
0, 0
0, 0
0, 0
0, 0
0, 0
0, 0
0, 0
0, 0
0, 0
0, 0
0, 0
0, 0
0, 0
0, 0
0, 0
0, 0
0, 0
0, 0
0, 1
0, 0
0, 0
0, 0
0, 0
0, 0
0, 0
0, 0
0, 0
0, 0
0, 0
0, 0
0, 0
0, 0
0, 0
0, 0
0, 0
0, 0
0, 0
0, 0
0, 0
0, 0
0, 0
0, 0
0, 0
0, 0
0, 0
0, 0
0, 0
0, 0
0, 0
0, 0
0, 0
0, 0
0, 0
0, 0
0, 0
0, 0
0, 0
0, 0
0, 0
0, 0
0, 0
0, 0
0, 0
0, 0
0, 0
0, 0
0, 0
0, 0
0, 0
0, 0
0, 0
0, 0
0, 0
0, 0
0, 0
0, 0
0, 0
0, 0
0, 0
0, 0
0, 0
0, 0
0, 0
0, 0
0, 0
0, 0
0, 0
0, 0
0, 0
0, 0
0, 0
0, 0
0, 0
0, 0
0, 0
0, 0
0, 0
0, 0
0, 0
0, 0
0, 0
0, 0
0, 0
0, 0
0, 0
0, 0
0, 0
0, 0
0, 0
0, 0
0, 0
0, 0
0, 0
0, 0
0, 0
0, 0
0, 0
0, 0
0, 0
0, 0
0, 0
0, 0
0, 0
0, 0
0, 0
0, 0
0, 0
0, 0
0, 0
0, 0
0, 0
0, 0
0, 0
0, 0
0, 0
0, 0
0, 0
0, 0
0, 0
0, 0
0, 0
0, 0
0, 0
0, 0
0, 0
0, 0
0, 0
0, 0
0, 0
0, 0
0, 0
0, 0
0, 0
0, 0
0, 0
0, 0
0, 0
0, 0
0, 0
0, 0
0, 0
0, 0
0, 0
0, 0
0, 0
0, 0
0, 0
0, 0
0, 0
0, 0
0, 0
0, 0
0, 0
0, 0
0, 0
0, 0
0, 0
0, 0
0, 0
0, 0
0, 0
0, 0
0, 0
0, 0
0, 0
0, 0
0, 0
0, 0
0, 0
0, 0
0, 0
0, 0
0, 0
0, 0
0, 0
0, 0
0, 0
0, 0
0, 0
0, 0
0, 0
0, 0
0, 0
0, 0
0, 0
0, 0
0, 0
0, 0
0, 0
0, 0
0, 0
0, 0
0, 0
0, 0
0, 0
0, 0
0, 0
0, 0
0, 0
0, 0
0, 0
0, 0
0, 0
0, 0
0, 0
0, 0
0, 0
0, 0
0, 0
0, 0
0, 0
0, 0
0, 0
0, 0
0, 0
0, 0
0, 0
0, 0
0, 0
0, 0
0, 0
0, 0
0, 0
0, 0
0, 0
0, 0
0, 0
0, 0
0, 0
0, 0
0, 0
0, 0
0, 0
0, 0
0, 0
0, 0
0, 0
0, 0
0, 0
0, 0
0, 0
0, 0
0, 0
0, 0
0, 0
0, 0
0, 0
0, 0
0, 0
0, 0
0, 0
0, 0
0, 0
0, 0
0, 0
0, 0
0, 0
0, 0
0, 0
0, 0
0, 0
0, 0
0, 0
0, 0
0, 0
0, 0
0, 0
0, 0
0, 0
0, 0
0, 0
0, 0
0, 0
0, 0
0, 0
0, 0
0, 0
0, 0
0, 0
0, 0
0, 0
0, 0
0, 0
0, 0
0, 0
0, 0
0, 0
0, 0
0, 0
0, 0
0, 0
0, 0
0, 0
0, 0
0, 0
0, 0
0, 0
0, 0
0, 0
0, 0
0, 0
0, 0
0, 0
0, 0
0, 0
0, 0
0, 0
0, 0
0, 0
0, 0
0, 0
0, 0
0, 0
0, 0
0, 0
#ENDOFDATA     end of spectrum data