File: host_upload/06-09-2024/ps_0852/dump3/ps__0852shot_2197.msa
#FORMAT      : EMSA/MAS spectral data file
#VERSION     : TC202v2.0 PIXL
#TITLE       : N/A
#DATE        :       Date in the format DD-MMM-YYYY, for example 07-JUL-2010
#TIME        :             The time of day at which the spectrum was recorded, in 24-hour format
#OWNER       : PIXL Flight Model       (PIXL will use this to indicate which instrument took the data.)
#NPOINTS     : 4096     Number of data points in the spectrum (This can be zero for configuration only files)
#NCOLUMNS    : 2     Number of data columns in the spectrum (This can be zero for configuration only files)
#XUNITS      : eV
#YUNITS      : COUNTS
#DATATYPE    : YY
#XPERCHAN    : 7.862, 7.881   eV per channel (separate by commas if more than one detector)
#OFFSET      : 18.5, -22.4         eV of first channel  (separate by commas if more than one detector
#SIGNALTYPE  : XRF
#YP_TEMP     : 2.3
#LIVETIME    : 8.57631, 8.56617   seconds (separate by commas if more than one detector)
#REALTIME    : 10, 10.0   seconds (separate by commas if more than one detector)
#SPECTRUM    : start of spectrum data
0, 0
0, 0
0, 0
0, 0
0, 0
0, 0
0, 0
0, 0
0, 0
0, 0
0, 0
0, 0
0, 0
0, 0
0, 0
0, 0
0, 0
0, 0
0, 0
0, 0
0, 0
0, 0
0, 0
0, 0
0, 0
0, 0
0, 0
0, 0
0, 0
0, 0
0, 0
0, 0
0, 0
0, 0
0, 0
0, 0
1, 0
0, 1
0, 1
0, 0
1, 3
1, 1
1, 2
2, 2
2, 2
3, 1
3, 3
3, 3
5, 4
14, 9
27, 26
51, 25
55, 47
85, 37
79, 56
83, 63
60, 47
44, 32
30, 16
16, 8
8, 5
7, 3
2, 0
6, 4
4, 3
6, 1
9, 4
10, 9
23, 19
57, 42
85, 92
205, 151
268, 224
378, 288
442, 361
463, 366
404, 301
309, 219
224, 162
135, 99
75, 65
44, 28
26, 12
10, 5
6, 3
0, 3
0, 1
2, 4
2, 0
6, 2
2, 1
3, 2
1, 0
3, 0
4, 2
4, 3
2, 7
10, 4
7, 9
4, 9
6, 1
11, 5
5, 3
4, 3
3, 2
5, 5
7, 11
18, 13
12, 14
19, 25
35, 33
38, 39
51, 57
63, 69
58, 77
60, 67
39, 81
47, 69
45, 65
26, 74
37, 44
28, 34
33, 23
33, 29
17, 23
27, 20
13, 19
14, 10
17, 13
10, 5
9, 6
5, 4
0, 4
4, 5
5, 4
2, 2
1, 6
3, 2
2, 4
1, 1
1, 1
5, 3
6, 4
13, 1
21, 2
15, 0
28, 2
32, 2
34, 4
26, 1
35, 2
32, 5
31, 10
37, 5
30, 4
29, 12
34, 17
29, 20
35, 24
21, 18
17, 14
12, 11
11, 6
2, 9
4, 5
5, 7
2, 3
2, 9
3, 8
8, 4
5, 8
6, 9
6, 3
3, 2
8, 8
5, 7
8, 3
3, 4
6, 5
7, 8
4, 8
6, 6
4, 4
1, 4
7, 5
3, 5
5, 7
6, 2
6, 2
7, 3
8, 8
5, 12
7, 8
13, 11
14, 16
16, 11
14, 13
13, 14
27, 7
14, 16
10, 9
10, 10
10, 7
6, 9
11, 5
9, 4
10, 4
11, 5
10, 5
8, 6
8, 2
3, 6
13, 2
5, 6
4, 9
4, 4
4, 7
5, 5
4, 5
8, 5
10, 4
5, 5
12, 7
13, 9
6, 14
15, 11
25, 8
14, 17
30, 29
22, 23
19, 29
15, 39
27, 44
18, 38
21, 46
20, 53
21, 42
12, 34
23, 21
16, 22
27, 22
16, 16
35, 6
23, 9
29, 9
31, 19
40, 31
43, 44
60, 45
65, 49
68, 66
69, 48
63, 44
38, 53
54, 40
37, 24
31, 22
13, 20
20, 19
26, 14
30, 17
28, 29
42, 48
99, 98
153, 195
283, 273
467, 583
861, 809
1206, 1232
1714, 1595
2022, 1973
2369, 2178
2492, 2229
2506, 2056
2235, 1722
1792, 1322
1405, 976
931, 695
623, 475
382, 277
196, 185
102, 95
76, 66
29, 40
33, 49
25, 34
34, 23
50, 28
80, 26
89, 19
112, 30
158, 37
214, 45
260, 70
279, 120
342, 163
407, 197
413, 288
418, 272
441, 352
458, 311
415, 311
328, 245
299, 201
215, 148
132, 107
93, 46
65, 30
36, 19
20, 13
9, 12
11, 4
8, 2
7, 3
9, 12
10, 9
14, 5
14, 11
13, 9
11, 13
8, 10
8, 9
6, 4
7, 8
7, 4
3, 2
4, 4
4, 6
8, 2
4, 4
11, 3
8, 2
9, 3
9, 6
4, 5
2, 3
13, 5
8, 9
8, 3
16, 1
11, 2
12, 4
10, 7
9, 7
9, 6
8, 1
8, 3
6, 7
6, 6
6, 7
8, 3
4, 2
10, 7
6, 3
5, 2
5, 4
3, 4
1, 5
6, 2
4, 6
2, 4
2, 3
2, 8
3, 3
4, 10
3, 4
2, 4
4, 4
4, 4
6, 2
8, 2
5, 4
5, 1
1, 0
1, 3
5, 1
8, 3
4, 1
3, 4
7, 2
5, 5
2, 3
3, 6
7, 0
4, 1
5, 4
9, 4
8, 5
3, 2
2, 4
4, 4
7, 4
4, 4
3, 3
8, 7
9, 5
8, 6
5, 5
7, 8
5, 1
7, 6
10, 4
5, 2
6, 3
4, 0
1, 3
3, 1
7, 3
6, 5
2, 3
2, 5
5, 2
3, 3
6, 2
6, 1
1, 1
2, 1
2, 5
4, 1
5, 3
8, 3
1, 1
2, 2
3, 3
6, 6
1, 4
5, 4
5, 1
3, 5
6, 4
3, 2
6, 1
4, 4
4, 5
8, 3
8, 4
6, 4
9, 2
1, 10
6, 2
12, 1
6, 10
9, 4
8, 4
6, 8
7, 3
3, 9
3, 3
6, 2
0, 0
6, 2
3, 3
1, 1
2, 2
1, 6
3, 1
1, 1
4, 2
3, 0
4, 1
1, 4
0, 2
4, 4
1, 1
4, 3
0, 1
1, 0
5, 1
2, 3
1, 2
5, 3
0, 2
2, 4
0, 3
4, 1
8, 3
5, 2
5, 1
4, 2
1, 1
6, 0
3, 1
3, 4
3, 3
3, 0
6, 2
6, 4
5, 1
5, 0
6, 1
2, 0
2, 2
2, 3
4, 4
3, 0
3, 3
2, 2
1, 3
3, 1
2, 1
3, 4
2, 1
3, 2
5, 2
2, 2
3, 4
3, 2
3, 2
1, 1
1, 3
1, 2
2, 2
4, 4
1, 1
3, 2
1, 1
5, 2
2, 1
3, 2
2, 1
1, 0
7, 1
4, 0
5, 2
1, 3
3, 4
5, 2
1, 2
9, 3
0, 6
2, 1
3, 6
8, 1
2, 2
1, 2
1, 4
3, 2
1, 2
3, 2
3, 7
4, 2
0, 2
2, 5
4, 2
4, 4
4, 4
4, 2
4, 3
2, 2
3, 1
4, 0
0, 1
1, 2
1, 0
0, 5
0, 2
0, 2
1, 2
1, 2
1, 4
1, 3
1, 2
3, 1
1, 3
3, 1
1, 5
0, 5
4, 1
2, 3
1, 2
0, 3
2, 1
1, 3
2, 1
3, 2
1, 0
5, 0
0, 4
1, 2
1, 4
4, 1
0, 2
0, 1
0, 1
2, 0
1, 1
1, 1
2, 1
2, 0
2, 1
1, 1
2, 0
1, 1
2, 1
5, 2
1, 0
2, 1
1, 1
0, 2
2, 0
1, 0
2, 0
0, 0
1, 1
0, 1
0, 0
3, 0
0, 0
1, 0
0, 0
0, 1
1, 2
2, 0
1, 3
1, 0
1, 0
0, 0
0, 1
1, 2
0, 0
1, 0
0, 0
1, 0
0, 2
0, 2
0, 0
3, 0
1, 0
0, 2
0, 1
2, 2
2, 0
0, 1
0, 1
1, 0
0, 1
2, 2
0, 1
1, 0
0, 0
1, 0
0, 1
1, 0
1, 0
0, 0
1, 1
2, 0
1, 1
2, 0
0, 0
0, 0
0, 0
0, 2
0, 1
0, 1
0, 0
1, 0
0, 3
0, 1
1, 1
2, 0
0, 0
1, 0
1, 1
0, 0
3, 1
1, 0
0, 2
0, 0
0, 0
0, 0
1, 0
1, 0
0, 2
0, 0
0, 2
0, 0
2, 1
0, 2
0, 1
1, 0
0, 0
0, 1
1, 0
1, 0
1, 0
1, 0
0, 0
1, 1
1, 0
1, 1
0, 0
0, 1
3, 2
1, 0
0, 0
0, 0
0, 0
2, 1
1, 0
0, 0
0, 0
0, 0
1, 1
0, 0
1, 0
0, 0
0, 0
1, 0
0, 1
0, 0
0, 1
1, 0
0, 0
0, 1
1, 0
1, 0
1, 0
1, 0
0, 0
0, 1
0, 2
0, 0
1, 0
0, 0
0, 0
1, 0
0, 0
1, 1
0, 1
1, 0
0, 0
0, 0
0, 0
0, 0
0, 1
1, 0
1, 0
0, 0
0, 0
0, 0
0, 1
1, 0
0, 0
0, 0
0, 0
0, 1
0, 1
1, 0
2, 0
0, 0
0, 0
1, 0
0, 1
0, 0
1, 0
0, 0
0, 0
0, 0
0, 1
0, 0
0, 0
0, 0
0, 1
0, 0
0, 0
0, 0
1, 0
0, 0
0, 0
0, 0
1, 1
0, 0
1, 0
0, 0
1, 0
0, 1
0, 1
1, 1
1, 0
0, 0
1, 0
0, 0
0, 0
0, 0
0, 0
0, 0
0, 0
0, 1
0, 0
0, 0
2, 0
1, 0
0, 2
0, 0
1, 0
0, 0
0, 0
0, 0
1, 0
0, 0
0, 0
0, 0
0, 0
0, 0
0, 0
0, 0
0, 0
0, 0
0, 0
0, 0
0, 0
0, 0
0, 0
0, 0
0, 0
0, 0
1, 0
0, 0
0, 0
0, 0
0, 0
0, 0
0, 1
0, 1
0, 0
0, 0
0, 0
0, 0
1, 0
0, 1
0, 0
1, 0
0, 0
0, 1
1, 0
0, 0
0, 0
1, 0
0, 0
0, 0
0, 0
0, 0
0, 0
1, 0
0, 0
1, 0
0, 0
0, 0
0, 0
0, 0
1, 1
0, 0
0, 0
0, 0
0, 0
0, 0
2, 0
0, 0
0, 0
0, 0
0, 0
0, 0
0, 0
0, 0
0, 0
0, 0
0, 0
0, 0
0, 0
1, 0
0, 0
0, 0
0, 0
0, 0
0, 0
1, 0
0, 0
0, 0
0, 0
0, 0
0, 0
0, 0
0, 0
0, 0
0, 0
0, 0
0, 0
0, 0
0, 0
0, 0
1, 0
0, 0
0, 0
0, 0
0, 0
0, 0
0, 0
0, 0
0, 0
0, 0
0, 0
0, 0
0, 0
0, 0
0, 0
0, 1
0, 0
0, 0
0, 0
0, 0
0, 0
0, 0
0, 0
0, 0
0, 0
0, 0
0, 0
0, 0
0, 0
0, 0
0, 0
0, 0
0, 0
0, 1
0, 1
0, 0
0, 0
0, 0
0, 0
0, 0
0, 0
0, 0
0, 0
0, 0
0, 0
0, 0
0, 0
0, 0
1, 0
0, 0
0, 0
0, 0
0, 0
0, 0
0, 0
0, 0
0, 0
0, 0
0, 0
0, 0
0, 0
0, 0
0, 0
0, 0
0, 0
0, 0
0, 0
0, 0
0, 0
0, 0
0, 0
0, 0
0, 0
0, 0
0, 1
0, 0
0, 0
0, 0
1, 0
0, 0
1, 0
0, 0
0, 0
0, 0
0, 0
0, 0
0, 0
0, 0
0, 0
0, 0
1, 0
0, 0
0, 0
0, 0
0, 0
0, 0
0, 0
0, 0
0, 0
0, 0
0, 0
0, 0
0, 0
0, 0
0, 0
0, 0
0, 0
0, 0
0, 0
0, 0
0, 0
0, 0
0, 0
0, 0
0, 0
0, 0
0, 0
0, 0
0, 0
0, 0
0, 0
0, 0
0, 0
0, 0
0, 0
0, 0
0, 0
0, 0
0, 0
0, 0
0, 0
0, 0
0, 0
0, 0
0, 0
0, 0
0, 0
0, 0
0, 0
0, 0
0, 0
1, 0
0, 0
0, 0
0, 0
0, 0
0, 0
0, 0
0, 0
0, 0
0, 0
0, 0
0, 0
0, 0
0, 0
0, 0
0, 0
0, 0
0, 0
0, 0
0, 0
0, 0
0, 0
0, 0
0, 0
0, 0
0, 0
0, 0
0, 0
0, 0
0, 0
0, 0
0, 0
0, 0
0, 0
0, 0
0, 0
0, 0
0, 0
0, 0
0, 0
0, 0
0, 0
0, 0
0, 0
0, 0
0, 0
0, 0
0, 0
0, 0
0, 0
0, 0
0, 0
0, 0
0, 0
0, 0
0, 0
0, 0
0, 0
0, 0
0, 0
0, 0
0, 0
0, 0
0, 0
0, 0
0, 0
0, 0
0, 0
0, 0
0, 0
0, 0
0, 0
0, 0
0, 0
0, 0
0, 0
0, 0
0, 0
0, 0
0, 0
0, 0
0, 0
0, 0
0, 0
0, 0
0, 0
0, 0
0, 0
0, 0
0, 0
0, 0
0, 0
0, 0
0, 0
0, 0
0, 0
0, 0
0, 0
0, 0
0, 0
0, 0
0, 0
0, 0
0, 0
0, 0
0, 0
0, 0
0, 0
0, 0
0, 0
0, 0
0, 0
0, 0
0, 0
0, 0
0, 0
0, 0
0, 0
0, 0
0, 0
0, 0
0, 0
0, 0
0, 0
0, 0
0, 0
0, 0
0, 0
0, 0
0, 0
0, 0
0, 0
0, 0
0, 0
0, 0
0, 0
0, 0
0, 0
0, 0
0, 0
0, 0
0, 0
0, 0
0, 0
0, 0
0, 0
0, 0
0, 0
0, 0
0, 0
0, 0
0, 0
0, 0
0, 0
0, 0
0, 0
0, 0
0, 0
0, 0
0, 0
0, 0
0, 0
0, 0
0, 0
0, 0
0, 0
0, 0
0, 0
0, 0
0, 0
0, 0
0, 0
0, 0
0, 0
0, 0
0, 0
0, 0
0, 0
0, 0
0, 0
0, 0
0, 0
0, 0
0, 0
0, 0
0, 0
0, 0
0, 0
0, 0
0, 0
0, 0
0, 0
0, 0
0, 0
0, 0
0, 0
0, 0
0, 0
0, 0
0, 0
0, 0
0, 0
0, 0
0, 0
0, 0
0, 0
0, 0
0, 0
0, 0
0, 0
0, 0
0, 0
0, 0
0, 0
0, 0
0, 0
0, 0
0, 0
0, 0
0, 0
0, 0
0, 0
0, 0
0, 0
0, 0
0, 0
0, 0
0, 0
0, 0
0, 0
0, 0
0, 0
0, 0
0, 0
0, 0
0, 0
0, 0
0, 0
0, 0
0, 0
0, 0
0, 0
0, 0
0, 0
0, 0
0, 0
0, 0
0, 0
0, 0
0, 0
0, 0
0, 0
0, 0
0, 0
0, 0
0, 0
0, 0
0, 0
0, 0
0, 0
0, 0
0, 0
0, 0
0, 0
0, 0
0, 0
0, 0
0, 0
0, 0
0, 0
0, 0
0, 0
0, 0
0, 0
0, 0
0, 0
0, 0
0, 0
0, 0
0, 0
0, 0
0, 0
0, 0
0, 0
0, 0
0, 0
0, 0
0, 0
0, 0
0, 0
0, 0
0, 0
0, 0
0, 0
0, 0
0, 0
0, 0
0, 0
0, 0
0, 0
0, 0
0, 0
0, 0
0, 0
0, 0
0, 0
0, 0
0, 0
0, 0
0, 0
0, 0
0, 0
0, 0
0, 0
0, 0
0, 0
0, 0
0, 0
0, 0
0, 0
0, 0
0, 0
0, 0
0, 0
0, 0
0, 0
0, 0
0, 0
0, 0
0, 0
0, 0
0, 0
0, 0
0, 0
#ENDOFDATA     end of spectrum data