File: host_upload/06-09-2024/ps_0852/dump3/ps__0852shot_2073.msa
#FORMAT      : EMSA/MAS spectral data file
#VERSION     : TC202v2.0 PIXL
#TITLE       : N/A
#DATE        :       Date in the format DD-MMM-YYYY, for example 07-JUL-2010
#TIME        :             The time of day at which the spectrum was recorded, in 24-hour format
#OWNER       : PIXL Flight Model       (PIXL will use this to indicate which instrument took the data.)
#NPOINTS     : 4096     Number of data points in the spectrum (This can be zero for configuration only files)
#NCOLUMNS    : 2     Number of data columns in the spectrum (This can be zero for configuration only files)
#XUNITS      : eV
#YUNITS      : COUNTS
#DATATYPE    : YY
#XPERCHAN    : 7.862, 7.881   eV per channel (separate by commas if more than one detector)
#OFFSET      : 18.5, -22.4         eV of first channel  (separate by commas if more than one detector
#SIGNALTYPE  : XRF
#YP_TEMP     : 2.556
#LIVETIME    : 8.55153, 8.55841   seconds (separate by commas if more than one detector)
#REALTIME    : 10, 10.0   seconds (separate by commas if more than one detector)
#SPECTRUM    : start of spectrum data
0, 0
0, 0
0, 0
0, 0
0, 0
0, 0
0, 0
0, 0
0, 0
0, 0
0, 0
0, 0
0, 0
0, 0
0, 0
0, 0
0, 0
0, 0
0, 0
0, 0
0, 0
0, 0
0, 0
0, 0
0, 0
0, 0
0, 0
0, 0
0, 0
0, 0
0, 0
1, 0
0, 0
1, 1
0, 0
0, 0
1, 0
0, 1
1, 2
3, 1
0, 0
1, 1
0, 3
0, 2
1, 1
4, 2
3, 5
2, 3
7, 4
14, 15
33, 27
44, 40
73, 69
86, 71
81, 81
88, 70
62, 60
39, 36
32, 30
21, 12
7, 9
10, 6
2, 6
4, 7
5, 2
3, 2
2, 8
7, 12
19, 16
56, 50
97, 111
176, 178
265, 279
379, 363
394, 414
439, 441
402, 392
328, 272
246, 208
125, 123
75, 79
39, 35
18, 18
9, 10
5, 3
1, 2
4, 2
0, 4
4, 1
3, 1
2, 2
0, 1
4, 4
7, 6
5, 6
2, 8
11, 9
11, 9
14, 15
17, 19
13, 22
9, 10
9, 7
7, 10
5, 13
7, 5
9, 4
8, 7
12, 13
20, 19
27, 36
40, 31
59, 54
71, 57
81, 76
86, 53
86, 58
60, 57
59, 64
53, 49
45, 48
41, 43
33, 25
34, 32
34, 20
31, 16
15, 18
16, 17
14, 15
10, 11
2, 5
3, 7
4, 3
5, 4
2, 3
4, 5
1, 2
6, 3
6, 2
1, 5
2, 2
4, 4
4, 1
4, 1
3, 4
4, 3
1, 2
7, 3
9, 2
7, 5
17, 5
11, 12
13, 10
17, 14
24, 31
29, 28
22, 26
34, 41
38, 33
24, 22
21, 26
19, 21
8, 10
11, 5
6, 5
4, 10
9, 7
6, 7
7, 10
8, 9
14, 10
9, 10
8, 13
13, 13
9, 10
12, 10
12, 9
10, 11
12, 7
8, 15
19, 10
11, 11
6, 8
5, 11
4, 14
8, 15
6, 10
8, 6
14, 11
16, 17
16, 17
10, 14
19, 15
19, 25
11, 18
22, 23
9, 26
19, 32
20, 26
19, 16
17, 19
18, 12
17, 12
15, 15
16, 9
16, 5
7, 14
8, 3
10, 14
10, 5
9, 9
5, 11
11, 7
7, 13
6, 11
6, 13
15, 10
4, 9
9, 7
11, 12
2, 12
7, 13
7, 12
10, 10
11, 14
10, 13
11, 23
14, 17
21, 25
26, 24
23, 22
25, 25
23, 22
16, 10
20, 14
13, 18
25, 18
26, 13
23, 14
21, 11
18, 13
14, 13
32, 19
24, 15
29, 19
29, 25
44, 42
58, 45
57, 46
71, 63
57, 64
77, 63
60, 56
51, 44
70, 43
37, 33
31, 27
22, 21
28, 21
23, 23
22, 23
36, 37
60, 77
82, 109
173, 217
280, 373
484, 590
763, 988
1161, 1412
1523, 1810
1968, 2156
2247, 2393
2379, 2398
2375, 2182
2145, 1922
1812, 1545
1381, 1041
996, 759
679, 458
366, 278
240, 158
132, 83
53, 48
39, 22
33, 28
22, 15
28, 24
12, 23
20, 24
27, 30
28, 34
42, 46
67, 71
93, 97
111, 145
158, 173
197, 236
279, 288
355, 341
363, 326
365, 384
352, 302
343, 299
256, 207
178, 157
143, 117
100, 70
58, 35
30, 22
17, 13
16, 17
10, 7
9, 14
10, 9
16, 12
27, 9
15, 16
13, 16
20, 11
14, 9
12, 14
13, 11
8, 11
12, 7
10, 6
7, 8
10, 6
7, 4
6, 1
6, 4
7, 8
8, 5
6, 4
6, 2
5, 7
3, 0
6, 10
6, 2
5, 4
4, 2
6, 5
6, 9
10, 8
8, 13
10, 11
6, 4
9, 8
6, 5
6, 10
4, 6
7, 9
2, 12
4, 7
8, 12
4, 10
10, 11
3, 8
11, 8
5, 7
3, 8
7, 3
8, 8
1, 6
4, 10
4, 6
8, 7
2, 9
5, 2
10, 4
5, 1
7, 5
7, 5
6, 4
4, 4
2, 5
4, 3
4, 8
2, 6
5, 5
6, 4
1, 5
4, 4
3, 1
6, 9
5, 4
8, 5
6, 3
5, 6
7, 6
6, 9
4, 3
5, 6
5, 6
4, 6
5, 8
2, 8
5, 5
8, 7
6, 5
3, 4
3, 4
5, 2
3, 9
1, 6
8, 3
1, 3
4, 1
3, 2
6, 4
4, 4
3, 2
3, 2
1, 5
4, 6
0, 3
5, 5
3, 5
4, 4
2, 3
1, 4
3, 3
3, 3
5, 5
5, 8
4, 1
3, 4
4, 5
7, 2
3, 3
8, 4
6, 4
5, 1
5, 3
5, 3
9, 4
8, 1
4, 1
1, 7
1, 1
3, 3
5, 2
1, 3
4, 8
4, 5
2, 3
2, 5
2, 1
5, 7
4, 5
1, 5
1, 1
5, 4
5, 7
1, 2
0, 1
1, 5
3, 2
2, 3
2, 3
1, 2
7, 1
2, 3
6, 1
3, 1
3, 5
5, 2
1, 2
2, 4
1, 3
2, 0
1, 5
8, 3
2, 2
5, 1
2, 0
2, 3
2, 0
2, 1
1, 3
4, 5
1, 2
4, 4
0, 3
3, 3
3, 3
1, 3
4, 2
3, 2
1, 1
6, 4
1, 0
1, 2
4, 0
3, 3
2, 1
5, 4
4, 2
2, 2
1, 1
0, 3
2, 9
2, 2
1, 1
2, 2
2, 3
0, 1
3, 4
3, 3
4, 2
0, 2
1, 1
2, 2
0, 2
1, 4
2, 2
1, 1
1, 5
1, 2
1, 2
2, 2
0, 4
3, 2
1, 2
7, 5
1, 1
3, 2
3, 2
2, 3
1, 1
0, 1
1, 1
2, 3
5, 3
3, 1
6, 2
5, 3
0, 2
4, 3
2, 4
0, 2
6, 5
1, 7
7, 6
3, 3
3, 2
1, 4
2, 1
8, 0
2, 3
3, 2
2, 3
4, 4
1, 2
3, 2
0, 1
1, 3
2, 2
0, 0
1, 3
1, 4
2, 3
2, 1
0, 2
5, 3
1, 2
2, 0
2, 3
3, 0
1, 1
1, 0
1, 4
1, 2
0, 1
2, 1
1, 3
2, 1
1, 2
0, 1
2, 1
0, 1
0, 1
3, 1
3, 2
2, 2
0, 1
2, 0
0, 0
2, 2
0, 3
1, 1
2, 1
2, 1
2, 0
1, 3
1, 1
1, 0
0, 0
1, 1
2, 1
1, 0
1, 3
0, 1
1, 1
1, 0
1, 2
1, 1
1, 2
1, 2
2, 1
0, 3
1, 0
1, 1
0, 1
0, 1
1, 1
2, 1
0, 2
0, 1
0, 1
2, 0
1, 2
1, 0
1, 0
0, 2
0, 2
1, 0
0, 1
0, 1
2, 0
0, 0
0, 0
1, 1
3, 1
0, 0
0, 0
1, 0
1, 0
1, 0
3, 1
2, 0
0, 1
1, 0
0, 2
0, 0
1, 2
0, 1
0, 1
0, 1
0, 1
0, 1
0, 1
0, 0
1, 0
1, 0
0, 0
0, 0
0, 0
2, 1
0, 1
0, 1
0, 0
2, 0
1, 0
0, 1
1, 1
0, 1
0, 0
0, 0
0, 1
2, 0
1, 1
0, 1
0, 2
1, 0
0, 1
2, 0
1, 1
0, 0
1, 0
0, 0
1, 1
0, 1
0, 1
0, 2
1, 0
0, 0
0, 0
0, 0
0, 0
1, 2
1, 0
2, 1
0, 1
0, 1
0, 1
0, 0
0, 1
2, 0
0, 0
1, 0
0, 2
1, 1
0, 0
0, 1
1, 0
1, 0
0, 1
0, 0
1, 0
0, 0
1, 0
2, 0
0, 0
1, 1
1, 0
0, 0
0, 0
0, 0
0, 0
0, 0
0, 0
0, 0
0, 0
1, 0
1, 0
0, 0
0, 0
0, 1
1, 0
0, 1
0, 0
0, 0
0, 0
1, 0
0, 1
0, 0
2, 0
0, 0
0, 0
1, 1
0, 1
1, 1
0, 0
0, 1
1, 0
0, 1
0, 1
1, 0
0, 1
0, 0
0, 0
0, 0
0, 1
0, 0
0, 0
0, 0
0, 0
0, 0
0, 1
0, 0
0, 0
0, 0
0, 0
0, 0
0, 0
0, 0
0, 0
0, 1
0, 0
1, 1
0, 0
0, 1
0, 1
0, 0
0, 0
0, 0
0, 0
0, 0
0, 1
0, 0
0, 0
1, 1
1, 0
0, 1
0, 1
1, 1
0, 1
0, 0
2, 0
0, 0
0, 0
0, 0
0, 0
0, 0
0, 0
0, 0
2, 0
1, 0
0, 0
0, 0
0, 0
0, 0
0, 0
0, 0
1, 1
1, 0
0, 2
0, 0
0, 0
0, 0
0, 0
0, 0
0, 0
0, 0
0, 0
0, 0
0, 1
0, 0
0, 0
0, 0
0, 0
0, 0
0, 0
0, 0
1, 0
1, 0
0, 0
0, 0
0, 0
1, 0
0, 0
1, 0
0, 0
0, 0
0, 0
0, 0
0, 0
0, 0
1, 1
0, 0
1, 0
0, 0
0, 0
0, 0
0, 0
0, 0
0, 0
0, 0
0, 0
0, 0
0, 1
0, 0
0, 0
1, 0
0, 0
0, 0
1, 0
0, 0
1, 0
0, 0
0, 0
1, 1
0, 0
0, 0
1, 0
0, 0
0, 0
0, 0
0, 0
0, 0
0, 0
0, 0
0, 0
0, 0
1, 0
0, 0
0, 0
0, 0
0, 0
0, 0
0, 1
0, 0
0, 0
0, 0
0, 0
0, 0
0, 0
0, 0
0, 0
0, 0
0, 0
0, 0
0, 0
0, 0
0, 0
0, 0
0, 0
0, 0
0, 0
0, 1
0, 0
0, 0
0, 0
1, 0
0, 0
0, 0
0, 0
0, 0
0, 0
0, 0
0, 0
0, 0
0, 0
0, 0
0, 0
0, 0
0, 0
0, 0
0, 0
0, 0
0, 0
0, 0
0, 0
0, 1
0, 0
0, 0
1, 0
0, 0
0, 0
0, 0
1, 0
0, 0
0, 0
0, 0
0, 0
0, 0
0, 0
0, 0
0, 0
0, 0
0, 0
0, 0
0, 0
0, 0
0, 0
0, 0
0, 0
0, 1
0, 0
0, 0
0, 0
0, 0
0, 0
0, 0
0, 0
0, 1
0, 0
0, 0
0, 0
0, 0
0, 0
0, 0
0, 0
0, 1
0, 0
0, 0
0, 0
0, 0
0, 0
0, 0
0, 0
0, 0
0, 0
0, 0
0, 0
0, 0
0, 0
0, 0
0, 0
0, 0
0, 0
0, 0
0, 0
0, 0
1, 0
0, 0
0, 0
0, 0
0, 0
0, 0
0, 0
0, 0
0, 0
0, 0
0, 0
0, 0
0, 0
0, 0
0, 0
0, 0
0, 0
0, 0
0, 0
0, 0
0, 0
0, 0
0, 0
0, 0
0, 0
0, 0
0, 0
0, 0
0, 0
1, 0
0, 0
0, 0
0, 0
0, 0
0, 0
0, 0
0, 0
0, 0
0, 0
0, 0
0, 0
0, 0
0, 0
0, 0
0, 0
0, 0
0, 0
0, 0
0, 0
0, 0
0, 0
0, 0
0, 0
0, 0
0, 0
0, 0
0, 0
0, 0
0, 0
0, 0
0, 0
0, 0
0, 0
0, 0
0, 0
0, 0
0, 0
0, 0
0, 0
0, 0
0, 0
0, 0
0, 0
0, 0
0, 0
0, 0
0, 0
0, 0
0, 0
0, 0
0, 0
0, 0
0, 0
0, 0
0, 0
0, 0
0, 0
0, 0
0, 0
0, 0
0, 0
0, 0
0, 0
0, 0
0, 0
0, 0
0, 0
0, 0
0, 0
0, 0
0, 0
0, 0
0, 0
0, 0
0, 0
0, 0
0, 0
0, 0
0, 0
0, 0
0, 0
0, 0
0, 0
0, 0
0, 0
0, 0
0, 0
0, 0
0, 0
0, 0
0, 0
0, 0
0, 0
0, 0
0, 0
0, 0
0, 0
0, 0
0, 0
0, 0
0, 0
0, 0
0, 0
0, 0
0, 0
0, 0
0, 0
0, 0
0, 0
0, 0
0, 0
0, 0
0, 0
0, 0
0, 0
0, 0
0, 0
0, 0
0, 0
0, 0
0, 0
0, 0
0, 0
0, 0
0, 0
0, 0
0, 0
0, 0
0, 0
0, 0
0, 0
0, 0
0, 0
0, 1
0, 0
0, 0
0, 0
0, 0
0, 0
0, 0
0, 0
0, 0
0, 0
0, 0
0, 0
0, 0
0, 0
0, 0
0, 0
0, 0
0, 0
0, 0
0, 0
0, 0
0, 0
0, 0
0, 0
0, 0
0, 0
0, 0
0, 0
0, 0
0, 0
0, 0
0, 0
0, 0
0, 0
0, 0
0, 0
0, 0
0, 0
0, 0
0, 0
0, 0
0, 0
0, 0
0, 0
0, 0
0, 0
0, 0
0, 0
0, 0
0, 0
0, 0
0, 0
0, 0
0, 0
0, 0
0, 0
0, 0
0, 0
0, 0
0, 0
0, 0
0, 0
0, 0
0, 0
0, 0
0, 0
0, 0
0, 0
0, 0
0, 0
0, 0
0, 0
0, 0
0, 0
0, 0
0, 0
0, 0
0, 0
0, 0
0, 0
0, 0
0, 0
0, 0
0, 0
0, 0
0, 0
0, 0
0, 0
0, 0
0, 0
0, 0
0, 0
0, 0
0, 0
0, 0
0, 0
0, 0
0, 0
0, 0
0, 0
0, 0
0, 0
0, 0
0, 0
0, 0
0, 0
0, 0
0, 0
0, 0
0, 0
0, 0
0, 0
0, 0
0, 0
0, 0
0, 0
0, 0
0, 0
0, 0
0, 0
0, 0
0, 0
0, 0
0, 0
0, 0
0, 0
0, 0
0, 0
0, 0
0, 0
0, 0
0, 0
0, 0
0, 0
0, 0
0, 0
0, 0
0, 0
0, 0
0, 0
0, 0
0, 0
0, 0
0, 0
0, 0
0, 0
0, 0
0, 0
0, 0
0, 0
0, 0
0, 0
0, 0
0, 0
0, 0
0, 0
0, 0
0, 0
0, 0
0, 0
0, 0
0, 0
0, 0
0, 0
0, 0
0, 0
0, 0
0, 0
0, 0
0, 0
0, 0
0, 0
0, 0
0, 0
0, 0
0, 0
0, 0
0, 0
0, 0
0, 0
0, 0
0, 0
0, 0
0, 0
0, 0
0, 0
0, 0
0, 0
0, 0
0, 0
0, 0
0, 0
0, 0
0, 0
0, 0
0, 0
0, 0
0, 0
0, 0
0, 0
0, 0
0, 0
0, 0
0, 0
0, 0
0, 0
0, 0
0, 0
0, 0
0, 0
0, 0
0, 0
0, 0
0, 0
0, 0
0, 0
0, 0
0, 0
0, 0
#ENDOFDATA     end of spectrum data