File: host_upload/06-09-2024/ps_0852/dump3/ps__0852shot_2446.msa
#FORMAT      : EMSA/MAS spectral data file
#VERSION     : TC202v2.0 PIXL
#TITLE       : N/A
#DATE        :       Date in the format DD-MMM-YYYY, for example 07-JUL-2010
#TIME        :             The time of day at which the spectrum was recorded, in 24-hour format
#OWNER       : PIXL Flight Model       (PIXL will use this to indicate which instrument took the data.)
#NPOINTS     : 4096     Number of data points in the spectrum (This can be zero for configuration only files)
#NCOLUMNS    : 2     Number of data columns in the spectrum (This can be zero for configuration only files)
#XUNITS      : eV
#YUNITS      : COUNTS
#DATATYPE    : YY
#XPERCHAN    : 7.862, 7.881   eV per channel (separate by commas if more than one detector)
#OFFSET      : 18.5, -22.4         eV of first channel  (separate by commas if more than one detector
#SIGNALTYPE  : XRF
#YP_TEMP     : 2.203
#LIVETIME    : 8.56464, 8.55517   seconds (separate by commas if more than one detector)
#REALTIME    : 10, 10.0   seconds (separate by commas if more than one detector)
#SPECTRUM    : start of spectrum data
0, 0
0, 0
0, 0
0, 0
0, 0
0, 0
0, 0
0, 0
0, 0
0, 0
0, 0
0, 0
0, 0
0, 0
0, 0
0, 0
0, 0
0, 0
0, 0
0, 0
0, 0
0, 0
0, 0
0, 0
0, 0
0, 0
0, 0
0, 0
0, 0
0, 0
0, 0
0, 0
0, 0
0, 1
0, 0
2, 0
0, 0
0, 1
0, 3
1, 2
0, 1
2, 2
0, 2
1, 2
0, 3
0, 2
0, 4
2, 7
7, 1
11, 10
18, 21
40, 41
52, 59
72, 81
88, 90
70, 68
58, 58
48, 43
29, 28
20, 24
7, 8
1, 5
2, 1
2, 5
2, 3
3, 3
6, 6
12, 9
20, 21
50, 42
86, 102
174, 195
268, 280
359, 356
435, 447
406, 448
361, 381
283, 303
191, 170
109, 112
73, 66
26, 20
19, 20
6, 5
9, 6
2, 1
5, 6
4, 1
3, 2
2, 3
1, 1
1, 0
3, 2
1, 1
3, 2
9, 5
8, 11
12, 7
14, 5
8, 7
7, 6
10, 7
12, 5
5, 3
6, 4
8, 6
6, 6
6, 14
13, 18
22, 33
22, 29
32, 53
34, 80
51, 105
59, 113
55, 114
56, 120
59, 97
44, 71
35, 61
39, 46
27, 32
28, 32
31, 34
28, 31
33, 19
25, 24
15, 8
6, 11
8, 6
5, 5
3, 3
5, 3
3, 2
9, 2
7, 1
5, 3
4, 3
5, 5
10, 3
1, 3
6, 2
2, 4
2, 1
2, 1
4, 3
1, 1
7, 3
3, 5
2, 3
4, 8
6, 8
9, 8
8, 11
13, 15
12, 14
17, 19
19, 20
17, 28
12, 19
21, 13
14, 11
6, 9
10, 8
5, 11
4, 4
4, 5
13, 12
6, 8
7, 11
2, 6
5, 9
7, 16
8, 1
14, 8
12, 11
23, 8
25, 7
31, 5
36, 9
47, 11
49, 7
39, 9
30, 2
29, 9
26, 9
23, 10
17, 10
7, 10
19, 9
11, 15
11, 12
18, 14
7, 10
19, 21
16, 15
17, 15
17, 29
29, 10
19, 16
29, 18
28, 12
29, 13
44, 8
68, 12
41, 11
57, 8
61, 12
42, 12
42, 12
27, 3
24, 11
20, 10
16, 13
13, 12
5, 5
14, 6
12, 5
5, 8
5, 10
5, 11
4, 6
9, 12
12, 5
12, 12
15, 15
24, 16
22, 19
16, 22
23, 27
29, 28
28, 18
27, 24
27, 20
23, 16
24, 13
15, 15
19, 13
10, 17
14, 19
12, 7
17, 13
18, 15
19, 13
32, 24
31, 38
45, 34
36, 43
58, 69
61, 52
62, 68
76, 57
59, 58
64, 50
60, 58
40, 38
36, 25
29, 39
29, 33
26, 22
28, 34
28, 57
42, 69
87, 104
174, 202
278, 351
483, 597
804, 920
1146, 1288
1689, 1768
1987, 2092
2305, 2454
2453, 2405
2304, 2208
2157, 1932
1755, 1520
1347, 1100
892, 762
606, 444
337, 257
215, 133
111, 71
51, 36
29, 31
24, 14
15, 23
17, 26
22, 15
15, 25
26, 33
32, 35
43, 40
51, 50
74, 93
96, 112
153, 175
225, 248
247, 296
359, 337
359, 381
381, 354
384, 341
292, 285
247, 232
190, 157
122, 81
89, 67
50, 45
36, 26
31, 16
16, 11
11, 7
14, 11
10, 11
18, 14
16, 15
14, 14
18, 12
17, 12
25, 18
16, 13
11, 12
15, 11
17, 6
8, 11
2, 8
3, 10
1, 2
5, 7
3, 7
5, 8
6, 6
8, 5
4, 6
1, 7
6, 8
4, 5
8, 5
5, 7
7, 5
11, 3
14, 7
10, 5
18, 5
13, 8
20, 5
11, 5
11, 4
15, 9
11, 4
7, 5
9, 7
9, 7
14, 6
8, 3
4, 4
8, 6
12, 5
4, 4
1, 6
8, 4
8, 3
7, 6
5, 5
8, 2
7, 6
3, 3
5, 6
5, 6
10, 2
2, 3
7, 4
6, 6
10, 4
6, 6
5, 5
2, 8
3, 5
7, 6
5, 7
2, 8
4, 4
4, 5
8, 11
5, 5
8, 6
2, 5
9, 2
8, 5
4, 2
7, 1
1, 2
6, 6
7, 5
3, 1
8, 10
1, 2
5, 8
3, 8
4, 5
3, 3
4, 5
4, 3
6, 3
4, 3
7, 6
3, 3
3, 7
3, 3
4, 6
6, 6
7, 3
8, 7
3, 3
3, 2
3, 6
2, 1
5, 4
4, 4
2, 3
3, 7
0, 6
2, 5
2, 6
6, 3
4, 4
3, 3
2, 5
5, 3
7, 12
5, 4
7, 6
5, 1
3, 1
2, 7
2, 1
2, 4
4, 2
4, 4
3, 9
5, 4
3, 7
2, 2
7, 2
4, 3
2, 8
3, 2
6, 1
6, 7
4, 2
10, 4
2, 4
4, 2
5, 1
2, 3
2, 4
2, 4
4, 5
2, 3
3, 1
0, 3
2, 3
3, 2
2, 2
1, 8
1, 2
0, 1
3, 4
2, 2
2, 0
4, 3
6, 2
1, 1
2, 4
2, 3
3, 4
4, 4
2, 3
0, 4
2, 5
1, 1
2, 1
4, 3
0, 1
2, 2
4, 3
4, 2
2, 0
3, 3
3, 3
1, 0
4, 3
5, 1
4, 2
5, 5
4, 0
3, 4
1, 2
3, 5
1, 6
1, 1
2, 3
5, 2
1, 2
3, 1
3, 1
4, 2
1, 3
2, 2
4, 4
1, 3
2, 0
0, 0
2, 1
1, 7
2, 1
1, 1
5, 1
4, 2
1, 1
4, 2
1, 4
0, 1
3, 3
4, 1
1, 1
0, 1
2, 2
0, 1
1, 1
3, 0
2, 0
3, 1
3, 3
3, 4
3, 3
2, 4
3, 1
4, 3
5, 5
4, 3
5, 3
0, 4
7, 9
5, 3
4, 3
3, 2
1, 2
1, 4
4, 6
3, 2
3, 1
1, 2
1, 3
0, 2
1, 1
0, 1
3, 2
2, 1
0, 2
0, 4
1, 1
3, 2
1, 5
0, 5
4, 3
2, 0
4, 1
3, 2
2, 3
0, 2
1, 2
5, 2
1, 1
3, 3
3, 2
3, 2
2, 0
1, 0
2, 0
0, 0
0, 1
2, 2
2, 1
1, 1
1, 3
1, 0
2, 2
0, 1
2, 2
0, 0
1, 4
2, 1
2, 1
2, 0
1, 0
1, 0
3, 1
1, 0
1, 2
0, 2
2, 1
1, 0
3, 0
1, 0
3, 0
4, 1
3, 1
0, 3
3, 1
1, 1
0, 0
2, 0
0, 1
1, 2
0, 0
1, 1
1, 0
0, 1
0, 1
1, 1
1, 0
0, 0
1, 0
1, 4
0, 2
2, 0
1, 0
0, 1
1, 1
0, 0
1, 1
0, 0
2, 1
1, 0
0, 1
1, 2
1, 0
0, 1
0, 1
0, 3
2, 0
0, 2
0, 1
0, 1
1, 1
1, 0
2, 0
1, 1
0, 1
2, 0
0, 1
1, 0
1, 1
0, 1
0, 0
0, 1
1, 0
0, 0
1, 3
0, 0
1, 0
1, 1
0, 0
0, 1
0, 0
0, 0
3, 1
1, 0
2, 0
0, 0
1, 1
0, 3
0, 1
1, 0
0, 0
0, 0
1, 1
0, 0
0, 1
0, 0
0, 0
0, 1
0, 3
0, 2
0, 0
2, 0
1, 0
0, 0
0, 0
0, 1
3, 0
0, 0
2, 0
0, 0
0, 0
0, 0
2, 1
1, 0
0, 0
0, 0
0, 0
3, 0
1, 0
1, 0
1, 1
3, 0
0, 0
0, 0
1, 0
0, 0
0, 0
0, 1
1, 0
1, 0
0, 0
1, 1
0, 0
0, 0
1, 1
1, 0
0, 1
0, 2
0, 0
0, 0
0, 0
0, 1
0, 0
0, 0
0, 1
1, 0
0, 0
0, 0
0, 1
1, 0
0, 0
0, 1
0, 0
1, 0
0, 0
1, 1
2, 1
0, 0
1, 0
0, 0
0, 2
0, 0
0, 0
0, 0
0, 0
0, 1
0, 0
0, 0
0, 0
0, 0
0, 0
0, 0
1, 0
0, 0
0, 0
0, 0
0, 0
0, 0
0, 0
0, 0
1, 1
0, 0
0, 0
0, 0
0, 0
0, 0
0, 0
1, 0
1, 0
0, 1
0, 1
0, 0
0, 0
0, 0
0, 0
0, 3
1, 0
0, 0
0, 0
0, 1
0, 0
0, 0
0, 0
0, 0
0, 0
1, 1
0, 0
0, 1
0, 0
2, 1
0, 1
0, 0
0, 0
0, 0
0, 0
0, 0
0, 0
0, 0
0, 0
0, 0
0, 0
0, 0
0, 0
0, 0
0, 0
0, 0
0, 0
0, 0
2, 0
1, 1
0, 0
0, 0
0, 0
0, 0
0, 0
0, 0
0, 0
1, 1
1, 0
0, 0
0, 0
0, 0
0, 0
0, 0
0, 0
0, 0
0, 0
1, 0
0, 0
1, 0
0, 1
2, 0
0, 0
0, 0
0, 0
0, 0
0, 1
0, 0
0, 0
0, 0
1, 0
0, 0
0, 0
0, 1
0, 0
0, 0
1, 1
0, 1
0, 0
0, 0
0, 0
1, 0
0, 1
0, 0
0, 0
0, 0
0, 1
0, 0
0, 1
0, 0
0, 0
0, 1
0, 0
0, 0
0, 0
0, 0
1, 0
0, 0
0, 0
0, 0
0, 1
0, 0
0, 0
0, 0
0, 0
1, 0
0, 0
0, 0
0, 0
0, 0
0, 0
0, 0
0, 0
0, 0
0, 0
0, 0
0, 1
0, 1
0, 0
0, 0
0, 1
0, 0
0, 0
0, 0
0, 0
0, 0
0, 0
0, 0
0, 0
0, 0
0, 0
0, 0
0, 0
0, 0
0, 0
0, 0
0, 0
0, 1
0, 0
0, 0
0, 0
0, 0
0, 0
0, 0
0, 0
0, 0
0, 0
0, 0
0, 0
0, 0
0, 0
0, 0
0, 1
0, 0
0, 0
0, 0
0, 0
0, 0
0, 0
0, 0
0, 0
0, 0
0, 0
0, 0
0, 0
0, 0
0, 0
0, 0
0, 0
0, 0
0, 0
0, 0
0, 0
0, 0
0, 0
0, 0
0, 0
0, 0
0, 0
0, 0
0, 0
0, 0
0, 0
0, 0
0, 0
0, 0
0, 0
0, 0
0, 0
0, 0
0, 0
0, 1
0, 0
0, 0
0, 0
0, 0
0, 0
0, 0
0, 0
0, 0
0, 0
0, 0
0, 0
1, 0
0, 0
0, 0
0, 0
0, 0
0, 0
0, 0
0, 0
0, 0
0, 0
0, 0
0, 0
0, 0
0, 0
0, 0
0, 0
0, 0
0, 0
0, 0
0, 0
0, 0
0, 0
0, 0
0, 0
0, 0
0, 0
0, 0
0, 0
0, 0
0, 0
0, 0
0, 0
0, 0
0, 0
0, 0
0, 0
0, 0
0, 0
0, 0
0, 0
0, 0
0, 0
0, 0
0, 0
0, 0
0, 0
0, 0
0, 0
0, 0
0, 0
0, 0
0, 0
0, 0
0, 0
0, 0
0, 0
0, 0
0, 0
0, 0
0, 0
0, 0
0, 0
0, 0
0, 0
0, 0
0, 0
0, 0
0, 0
0, 0
0, 0
0, 0
0, 0
0, 0
0, 0
0, 0
0, 0
0, 0
0, 0
0, 0
0, 0
0, 0
0, 0
0, 0
0, 0
0, 0
0, 0
0, 0
0, 0
0, 0
0, 0
0, 0
0, 0
0, 0
0, 0
0, 0
0, 0
0, 0
0, 0
0, 0
0, 0
0, 0
0, 0
0, 0
0, 0
0, 0
0, 0
0, 0
0, 0
0, 0
0, 0
0, 0
0, 0
0, 0
0, 0
0, 0
0, 0
0, 0
0, 0
0, 0
0, 0
0, 0
0, 0
0, 0
0, 0
0, 0
0, 0
0, 0
0, 0
0, 0
0, 0
0, 0
0, 0
0, 0
0, 0
0, 0
0, 0
0, 0
0, 0
0, 0
0, 0
0, 0
0, 0
0, 0
0, 0
0, 0
0, 0
0, 0
0, 0
0, 0
0, 0
0, 0
0, 0
0, 0
0, 0
0, 0
0, 0
0, 0
0, 0
0, 0
0, 0
0, 0
0, 0
0, 0
0, 0
0, 0
0, 0
0, 0
0, 0
0, 0
0, 0
0, 0
0, 0
0, 0
0, 0
0, 0
0, 0
0, 0
0, 0
0, 0
0, 0
0, 0
0, 0
0, 0
0, 0
0, 0
0, 0
0, 0
0, 0
0, 0
0, 0
0, 0
0, 0
0, 0
0, 0
0, 0
0, 0
0, 0
0, 0
0, 0
0, 0
0, 0
0, 0
0, 0
0, 0
0, 0
0, 0
0, 0
0, 0
0, 0
0, 0
0, 0
0, 0
0, 0
0, 0
0, 0
0, 0
0, 0
0, 0
0, 0
0, 0
0, 0
0, 0
0, 0
0, 0
0, 0
0, 0
0, 0
0, 0
0, 0
0, 0
0, 0
0, 0
0, 0
0, 0
0, 0
0, 0
0, 0
0, 0
0, 0
0, 0
0, 0
0, 0
0, 0
0, 0
0, 0
0, 0
0, 0
0, 0
0, 0
0, 0
0, 0
0, 0
0, 0
0, 0
0, 0
0, 0
0, 0
0, 0
0, 0
0, 0
0, 0
0, 0
0, 0
0, 0
0, 0
0, 0
0, 0
0, 0
0, 0
0, 0
0, 0
0, 0
0, 0
0, 0
0, 0
0, 0
0, 0
0, 0
0, 0
0, 0
0, 0
0, 0
0, 0
0, 0
0, 0
0, 0
0, 0
0, 0
0, 0
0, 0
0, 0
0, 0
0, 0
0, 0
0, 0
0, 0
0, 0
0, 0
0, 0
0, 0
0, 0
0, 0
0, 0
0, 0
0, 0
0, 0
0, 0
0, 0
0, 0
0, 0
0, 0
0, 0
0, 0
0, 0
0, 0
0, 0
0, 0
0, 0
0, 0
0, 0
0, 0
0, 0
0, 0
0, 0
0, 0
0, 0
0, 0
0, 0
0, 0
0, 0
0, 0
0, 0
0, 0
0, 0
0, 0
0, 0
0, 0
0, 0
0, 0
0, 0
0, 0
0, 0
0, 0
0, 0
0, 0
0, 0
0, 0
0, 0
0, 0
0, 0
0, 0
0, 0
0, 0
0, 0
0, 0
0, 0
0, 0
0, 0
0, 0
0, 0
0, 0
0, 0
0, 0
0, 0
0, 0
0, 0
0, 0
0, 0
0, 0
0, 0
0, 0
0, 0
0, 0
0, 0
0, 0
0, 0
0, 0
0, 0
0, 0
0, 0
0, 0
0, 0
0, 0
0, 0
0, 0
0, 0
0, 0
0, 0
#ENDOFDATA     end of spectrum data