File: host_upload/06-09-2024/ps_0852/dump3/ps__0852shot_2120.msa
#FORMAT      : EMSA/MAS spectral data file
#VERSION     : TC202v2.0 PIXL
#TITLE       : N/A
#DATE        :       Date in the format DD-MMM-YYYY, for example 07-JUL-2010
#TIME        :             The time of day at which the spectrum was recorded, in 24-hour format
#OWNER       : PIXL Flight Model       (PIXL will use this to indicate which instrument took the data.)
#NPOINTS     : 4096     Number of data points in the spectrum (This can be zero for configuration only files)
#NCOLUMNS    : 2     Number of data columns in the spectrum (This can be zero for configuration only files)
#XUNITS      : eV
#YUNITS      : COUNTS
#DATATYPE    : YY
#XPERCHAN    : 7.862, 7.881   eV per channel (separate by commas if more than one detector)
#OFFSET      : 18.5, -22.4         eV of first channel  (separate by commas if more than one detector
#SIGNALTYPE  : XRF
#YP_TEMP     : 2.46
#LIVETIME    : 8.57087, 8.55321   seconds (separate by commas if more than one detector)
#REALTIME    : 10, 10.0   seconds (separate by commas if more than one detector)
#SPECTRUM    : start of spectrum data
0, 0
0, 0
0, 0
0, 0
0, 0
0, 0
0, 0
0, 0
0, 0
0, 0
0, 0
0, 0
0, 0
0, 0
0, 0
0, 0
0, 0
0, 0
0, 0
0, 0
0, 0
0, 0
0, 0
0, 0
0, 0
0, 0
0, 0
0, 0
0, 0
0, 1
0, 0
0, 0
0, 0
0, 0
0, 0
2, 0
2, 0
0, 0
0, 0
3, 1
0, 0
2, 0
3, 1
0, 0
2, 0
1, 4
4, 2
6, 2
7, 6
16, 14
27, 28
37, 38
64, 60
85, 77
89, 71
81, 69
55, 58
43, 34
22, 23
15, 13
6, 5
12, 3
3, 3
5, 0
3, 2
6, 5
11, 5
14, 15
20, 17
56, 49
90, 110
165, 198
292, 282
393, 333
473, 428
450, 432
435, 371
269, 305
192, 187
129, 144
76, 72
54, 29
16, 14
13, 12
9, 3
0, 5
3, 1
2, 1
2, 1
1, 2
1, 0
0, 5
2, 3
3, 3
3, 4
5, 7
5, 7
7, 8
8, 9
8, 5
9, 7
5, 8
9, 2
7, 5
4, 7
3, 9
11, 11
7, 8
12, 7
11, 17
10, 28
31, 31
40, 39
33, 43
55, 49
49, 53
72, 57
66, 49
49, 59
52, 40
39, 38
32, 41
35, 26
31, 19
29, 21
24, 16
21, 16
13, 12
8, 11
12, 3
5, 2
6, 4
5, 1
3, 1
3, 7
3, 5
2, 4
2, 4
5, 5
1, 2
4, 3
1, 0
2, 7
1, 4
5, 3
4, 1
2, 3
4, 0
5, 7
8, 10
12, 12
28, 14
35, 42
62, 58
76, 74
96, 69
100, 119
134, 119
115, 102
95, 108
98, 84
68, 65
46, 36
24, 33
23, 15
14, 13
8, 13
16, 20
14, 15
18, 13
24, 22
25, 17
30, 21
22, 22
23, 22
16, 10
11, 18
16, 12
13, 18
11, 14
13, 8
13, 4
8, 11
9, 8
9, 10
10, 7
5, 10
6, 9
7, 6
8, 18
16, 12
16, 16
16, 17
12, 15
20, 20
19, 19
26, 30
27, 25
26, 22
16, 10
12, 13
21, 12
16, 13
15, 14
14, 3
8, 9
4, 9
6, 9
13, 10
6, 10
8, 8
17, 8
5, 1
8, 9
10, 7
13, 5
6, 9
11, 8
7, 3
10, 7
9, 5
13, 9
5, 12
16, 8
22, 11
25, 18
32, 29
32, 23
54, 31
43, 32
68, 38
60, 36
63, 36
68, 28
52, 31
44, 20
29, 22
23, 10
19, 13
13, 17
13, 17
8, 16
12, 15
9, 22
11, 17
24, 34
27, 24
29, 46
46, 55
58, 59
45, 86
39, 69
56, 42
55, 68
47, 50
29, 33
23, 25
16, 19
21, 20
14, 19
24, 23
32, 32
35, 45
68, 94
140, 151
242, 319
456, 523
701, 780
1087, 1129
1436, 1515
1816, 1813
2036, 1973
2246, 2158
2184, 2034
1874, 1665
1560, 1340
1217, 924
814, 673
589, 404
347, 219
190, 127
111, 74
58, 25
49, 20
35, 21
46, 21
31, 19
34, 21
40, 23
36, 17
43, 31
35, 36
51, 48
71, 76
90, 106
142, 149
172, 171
235, 221
285, 300
319, 319
321, 317
315, 289
307, 260
237, 189
188, 133
142, 101
97, 51
59, 48
31, 24
21, 14
12, 10
9, 6
5, 5
10, 12
13, 12
13, 15
22, 11
16, 10
13, 18
16, 17
20, 12
14, 7
6, 10
8, 8
8, 5
9, 4
2, 7
4, 4
9, 9
6, 7
4, 6
2, 4
4, 5
5, 5
3, 4
2, 7
7, 4
5, 5
4, 6
7, 10
5, 12
3, 6
1, 7
4, 7
3, 8
4, 8
7, 8
4, 9
3, 8
12, 5
7, 8
9, 11
3, 15
8, 10
4, 7
6, 7
2, 6
2, 6
3, 10
5, 6
5, 6
4, 8
4, 8
4, 9
6, 9
9, 7
5, 7
3, 9
5, 13
2, 9
7, 7
10, 2
7, 7
6, 4
3, 8
5, 4
8, 3
2, 3
9, 5
4, 3
7, 7
7, 8
2, 5
6, 3
4, 3
5, 2
4, 7
7, 4
6, 4
9, 12
2, 5
7, 9
7, 11
3, 5
5, 8
4, 10
6, 14
6, 8
3, 12
5, 9
2, 7
8, 11
4, 7
3, 3
3, 8
3, 4
2, 2
7, 1
4, 2
8, 6
5, 5
3, 2
5, 3
6, 3
5, 3
5, 3
9, 4
7, 1
7, 1
8, 1
8, 4
11, 8
5, 1
4, 0
8, 2
6, 4
5, 3
3, 7
8, 0
4, 6
4, 4
5, 1
4, 6
2, 5
6, 4
5, 3
3, 1
4, 1
6, 3
5, 9
3, 1
3, 6
4, 6
2, 3
1, 4
3, 1
0, 3
7, 8
4, 1
2, 3
5, 2
9, 5
2, 3
0, 3
4, 2
4, 1
0, 2
6, 1
4, 4
5, 1
9, 2
4, 0
9, 1
4, 4
2, 4
2, 4
4, 1
2, 5
1, 1
3, 3
2, 1
5, 4
3, 3
4, 3
2, 3
1, 2
0, 4
2, 1
4, 2
1, 0
0, 4
2, 3
6, 3
4, 1
2, 3
1, 3
1, 0
4, 2
1, 4
2, 4
6, 3
2, 7
5, 2
1, 2
2, 2
5, 5
2, 2
2, 2
4, 0
4, 2
0, 1
3, 4
1, 1
3, 4
0, 3
2, 3
4, 0
1, 0
3, 3
1, 2
3, 2
4, 1
2, 0
0, 5
1, 3
2, 0
3, 1
3, 1
0, 1
4, 2
1, 0
2, 1
3, 2
3, 4
1, 4
2, 1
3, 3
2, 2
4, 0
2, 3
1, 2
0, 3
3, 0
2, 1
1, 2
4, 3
1, 1
3, 4
1, 1
2, 3
5, 0
3, 2
7, 6
5, 5
3, 2
3, 3
5, 0
5, 0
2, 0
1, 3
1, 1
3, 1
3, 3
3, 1
0, 0
3, 2
3, 1
3, 4
0, 1
3, 3
1, 1
2, 1
2, 2
1, 0
1, 2
0, 0
0, 0
4, 4
2, 0
1, 3
3, 1
0, 1
0, 0
1, 0
1, 1
3, 2
1, 1
1, 3
0, 2
1, 0
2, 3
2, 1
3, 2
0, 1
0, 0
1, 0
3, 3
1, 3
0, 1
1, 2
3, 4
1, 1
1, 0
2, 1
2, 0
0, 1
2, 0
2, 2
3, 0
3, 1
0, 2
1, 1
0, 3
1, 1
0, 1
3, 2
0, 0
1, 1
0, 1
0, 1
0, 1
1, 2
1, 3
0, 2
2, 0
0, 0
0, 2
1, 1
1, 0
2, 0
3, 1
1, 1
2, 0
1, 0
1, 1
1, 0
0, 0
1, 2
0, 2
2, 1
0, 0
1, 0
0, 0
1, 0
0, 1
0, 0
0, 0
0, 1
2, 0
0, 0
1, 0
1, 0
1, 0
1, 0
0, 1
2, 0
2, 0
0, 1
0, 1
0, 0
0, 0
1, 3
0, 1
1, 1
0, 0
0, 3
1, 0
1, 0
1, 0
0, 1
1, 0
1, 1
0, 0
1, 1
1, 0
0, 0
0, 0
1, 0
0, 1
0, 2
1, 0
0, 2
1, 2
0, 0
0, 0
2, 0
0, 0
0, 1
0, 0
1, 0
2, 0
0, 0
0, 0
0, 2
0, 0
0, 1
1, 2
1, 1
0, 2
0, 0
1, 1
1, 0
1, 1
1, 1
0, 0
0, 0
0, 1
0, 1
0, 0
1, 0
1, 0
1, 0
0, 0
0, 1
0, 1
0, 0
1, 0
2, 0
0, 1
1, 0
1, 0
0, 1
0, 1
0, 0
2, 0
0, 0
0, 1
0, 0
0, 0
0, 0
0, 0
0, 0
1, 0
0, 1
0, 1
0, 0
0, 1
0, 0
0, 0
0, 1
0, 0
0, 0
1, 0
0, 0
0, 0
0, 0
0, 0
0, 0
0, 1
1, 0
1, 0
0, 0
0, 0
0, 1
2, 0
0, 0
1, 0
1, 0
2, 1
0, 0
1, 1
0, 0
0, 0
1, 0
0, 0
0, 0
1, 0
0, 0
0, 1
0, 0
0, 1
0, 0
1, 0
0, 0
0, 2
0, 2
1, 0
0, 0
0, 0
0, 1
0, 0
1, 0
1, 0
0, 0
0, 0
0, 0
0, 0
1, 0
0, 0
0, 0
1, 0
1, 0
0, 0
0, 0
0, 1
0, 1
0, 1
0, 1
1, 0
0, 0
0, 0
1, 0
0, 0
0, 0
1, 0
1, 0
0, 1
0, 1
0, 1
0, 0
0, 0
0, 2
0, 0
1, 1
1, 1
0, 0
0, 1
1, 0
0, 0
0, 0
1, 1
0, 0
0, 0
0, 0
0, 0
0, 1
0, 0
0, 0
0, 0
0, 0
0, 0
0, 0
0, 0
0, 0
0, 1
0, 0
0, 0
0, 0
0, 0
1, 0
0, 0
0, 0
0, 1
0, 0
0, 0
0, 0
1, 0
0, 0
0, 0
0, 0
0, 0
0, 0
0, 0
0, 0
0, 0
0, 0
0, 0
0, 0
0, 0
0, 0
0, 0
0, 0
0, 0
0, 0
1, 0
0, 0
0, 0
0, 0
0, 0
0, 0
0, 1
0, 0
0, 0
0, 0
0, 0
0, 0
1, 0
0, 0
1, 0
1, 0
0, 0
0, 0
0, 0
0, 0
0, 0
1, 1
0, 0
0, 0
0, 0
0, 0
0, 0
0, 0
0, 0
0, 0
0, 0
0, 0
0, 0
0, 0
0, 0
0, 0
0, 0
0, 0
0, 0
0, 0
0, 0
0, 0
0, 0
0, 0
1, 0
0, 0
0, 0
0, 0
0, 0
0, 0
0, 0
0, 0
0, 0
0, 1
0, 0
0, 0
0, 0
0, 0
1, 1
0, 0
0, 0
1, 0
0, 0
1, 0
0, 0
0, 0
0, 0
0, 0
0, 0
0, 0
0, 0
0, 0
0, 0
0, 0
0, 0
0, 0
0, 0
0, 0
0, 0
0, 0
0, 0
0, 0
0, 0
0, 0
0, 0
0, 0
0, 0
1, 0
0, 0
0, 0
0, 0
0, 0
0, 0
0, 0
0, 0
0, 0
0, 0
0, 0
0, 0
0, 0
0, 0
0, 0
0, 0
0, 0
0, 1
0, 0
0, 0
0, 0
0, 0
0, 0
0, 0
0, 1
0, 0
0, 0
0, 0
0, 0
0, 0
0, 0
0, 0
0, 0
0, 0
0, 0
0, 0
0, 0
0, 0
0, 0
0, 0
0, 0
0, 0
0, 0
0, 0
0, 0
0, 0
0, 0
0, 0
0, 0
0, 0
0, 0
0, 0
0, 0
0, 0
0, 0
0, 0
0, 0
0, 0
0, 0
0, 0
0, 0
1, 0
0, 0
0, 0
1, 0
0, 0
0, 0
0, 0
0, 0
0, 0
0, 0
0, 0
0, 0
0, 0
0, 0
0, 0
0, 0
0, 0
0, 0
0, 0
0, 0
0, 0
0, 1
0, 0
0, 0
0, 0
0, 0
0, 0
0, 0
0, 0
0, 0
0, 0
0, 0
0, 0
0, 0
0, 0
0, 0
0, 0
0, 0
0, 0
0, 0
0, 0
0, 0
0, 0
0, 0
0, 0
0, 0
0, 0
0, 0
0, 0
0, 0
0, 0
0, 0
0, 0
0, 0
0, 0
0, 0
0, 0
0, 0
0, 0
0, 0
0, 0
0, 0
0, 0
0, 0
0, 0
0, 0
0, 0
0, 0
0, 0
0, 0
0, 0
0, 0
0, 0
0, 0
0, 0
0, 0
0, 0
0, 0
0, 0
0, 0
0, 0
0, 0
0, 0
0, 0
0, 0
0, 0
0, 0
0, 0
0, 0
0, 0
0, 0
0, 0
0, 0
0, 0
0, 0
0, 0
0, 0
0, 0
0, 1
0, 0
0, 0
0, 0
0, 0
0, 0
0, 0
0, 0
0, 0
0, 0
0, 0
0, 0
0, 0
0, 0
0, 0
0, 0
0, 0
0, 0
0, 0
0, 0
0, 0
0, 0
0, 0
0, 0
0, 0
0, 0
0, 0
0, 0
0, 0
0, 0
0, 0
0, 0
0, 0
0, 0
0, 0
0, 0
0, 0
0, 0
0, 0
0, 0
0, 0
0, 0
0, 0
0, 0
0, 0
0, 0
0, 0
0, 0
0, 0
0, 0
0, 0
0, 0
0, 0
0, 0
0, 0
0, 0
0, 0
0, 0
0, 0
0, 0
0, 0
0, 0
0, 0
0, 0
0, 0
0, 0
0, 0
0, 0
0, 0
0, 0
0, 0
0, 0
0, 0
0, 0
0, 0
0, 0
0, 0
0, 0
0, 0
0, 0
0, 0
0, 0
0, 0
0, 0
0, 0
0, 0
0, 0
0, 0
0, 0
0, 0
0, 0
0, 0
0, 0
0, 0
0, 0
0, 0
0, 0
0, 0
0, 0
0, 0
0, 0
0, 0
0, 0
0, 0
0, 0
0, 0
0, 0
0, 0
0, 0
0, 0
0, 0
0, 0
0, 0
0, 0
0, 0
0, 0
0, 0
0, 0
0, 0
0, 0
0, 0
0, 0
0, 0
0, 0
0, 0
0, 0
0, 0
0, 0
0, 0
0, 0
0, 0
0, 0
0, 0
0, 0
0, 0
0, 0
0, 0
0, 0
0, 0
0, 0
0, 0
0, 0
0, 0
0, 0
0, 0
0, 0
0, 0
0, 0
0, 0
0, 0
0, 0
0, 0
0, 0
0, 0
0, 0
0, 0
0, 0
0, 0
0, 0
0, 0
0, 0
0, 0
0, 0
0, 0
0, 0
0, 0
0, 0
0, 0
0, 0
0, 0
0, 0
0, 0
0, 0
0, 0
0, 0
0, 0
0, 0
0, 0
0, 0
0, 0
0, 0
0, 0
0, 0
0, 0
0, 0
0, 0
0, 0
0, 0
0, 0
0, 0
0, 0
0, 0
0, 0
0, 0
0, 0
0, 0
0, 0
0, 0
0, 0
0, 0
0, 0
0, 0
0, 0
0, 0
0, 0
0, 0
0, 0
0, 0
0, 0
0, 0
0, 0
0, 0
0, 0
0, 0
0, 0
0, 0
0, 0
0, 0
0, 0
0, 0
0, 0
0, 0
0, 0
0, 0
0, 0
0, 0
0, 0
0, 0
0, 0
0, 0
0, 0
0, 0
0, 0
0, 0
0, 0
0, 0
0, 0
0, 0
0, 0
0, 0
0, 0
0, 0
0, 0
0, 0
0, 0
0, 0
0, 0
0, 0
0, 0
0, 0
0, 0
0, 0
0, 0
0, 0
0, 0
0, 0
0, 0
0, 0
0, 0
0, 0
0, 0
0, 0
0, 0
0, 0
0, 0
0, 0
#ENDOFDATA     end of spectrum data