File: host_upload/06-09-2024/ps_0852/dump3/ps__0852shot_2419.msa
#FORMAT      : EMSA/MAS spectral data file
#VERSION     : TC202v2.0 PIXL
#TITLE       : N/A
#DATE        :       Date in the format DD-MMM-YYYY, for example 07-JUL-2010
#TIME        :             The time of day at which the spectrum was recorded, in 24-hour format
#OWNER       : PIXL Flight Model       (PIXL will use this to indicate which instrument took the data.)
#NPOINTS     : 4096     Number of data points in the spectrum (This can be zero for configuration only files)
#NCOLUMNS    : 2     Number of data columns in the spectrum (This can be zero for configuration only files)
#XUNITS      : eV
#YUNITS      : COUNTS
#DATATYPE    : YY
#XPERCHAN    : 7.862, 7.881   eV per channel (separate by commas if more than one detector)
#OFFSET      : 18.5, -22.4         eV of first channel  (separate by commas if more than one detector
#SIGNALTYPE  : XRF
#YP_TEMP     : 2.428
#LIVETIME    : 8.57878, 8.58105   seconds (separate by commas if more than one detector)
#REALTIME    : 10, 10.0   seconds (separate by commas if more than one detector)
#SPECTRUM    : start of spectrum data
0, 0
0, 0
0, 0
0, 0
0, 0
0, 0
0, 0
0, 0
0, 0
0, 0
0, 0
0, 0
0, 0
0, 0
0, 0
0, 0
0, 0
0, 0
0, 0
0, 0
0, 0
0, 0
0, 0
0, 0
0, 0
0, 0
0, 0
0, 0
0, 0
0, 0
0, 0
0, 0
0, 0
0, 1
0, 1
0, 2
0, 1
0, 0
0, 1
1, 2
1, 1
0, 0
2, 3
1, 0
1, 0
1, 1
3, 1
9, 2
3, 9
7, 11
15, 15
43, 42
74, 47
80, 83
86, 75
84, 88
71, 55
46, 45
27, 18
19, 14
12, 4
7, 6
4, 4
5, 4
6, 6
3, 5
6, 6
12, 12
24, 18
40, 43
86, 109
163, 171
276, 293
366, 364
429, 408
468, 395
370, 378
310, 283
202, 186
109, 116
75, 61
36, 29
16, 25
9, 9
5, 4
3, 2
6, 3
1, 1
0, 1
1, 3
1, 2
2, 0
2, 1
3, 1
6, 2
5, 2
6, 2
4, 4
6, 6
7, 6
2, 5
5, 5
0, 3
0, 5
0, 2
3, 5
4, 6
11, 8
9, 12
9, 13
12, 24
22, 21
23, 27
41, 39
36, 30
42, 42
33, 32
35, 26
29, 27
31, 24
27, 17
27, 12
52, 13
26, 17
23, 18
31, 11
24, 9
16, 6
17, 9
12, 8
11, 7
6, 4
3, 3
0, 2
5, 2
3, 3
3, 1
3, 5
3, 2
5, 1
6, 2
3, 3
4, 8
5, 0
4, 2
2, 3
4, 1
3, 0
2, 1
8, 4
1, 3
2, 4
2, 7
6, 11
20, 12
7, 15
15, 12
10, 10
13, 15
15, 9
12, 15
6, 7
5, 4
4, 9
10, 6
4, 3
1, 2
3, 2
6, 1
6, 4
3, 7
2, 4
4, 9
4, 5
7, 1
5, 6
4, 5
8, 2
9, 3
18, 4
20, 4
52, 2
50, 4
78, 2
102, 0
107, 4
103, 6
89, 1
76, 4
57, 6
44, 11
40, 12
31, 12
20, 15
19, 16
12, 10
15, 9
17, 14
18, 9
17, 12
19, 14
16, 7
9, 6
8, 8
12, 3
6, 6
7, 13
7, 3
9, 6
5, 6
6, 4
9, 7
4, 9
2, 11
5, 11
1, 14
5, 13
3, 15
1, 5
6, 12
5, 12
6, 16
4, 7
0, 11
2, 9
6, 9
4, 12
5, 10
7, 13
10, 12
6, 15
14, 11
14, 12
18, 13
22, 17
18, 11
38, 10
38, 16
35, 8
45, 6
60, 5
61, 3
57, 3
91, 13
109, 14
139, 20
148, 24
168, 44
175, 55
158, 63
138, 71
115, 71
117, 56
72, 57
52, 38
46, 25
30, 21
23, 22
13, 17
15, 12
13, 20
29, 33
46, 60
80, 95
123, 196
265, 338
471, 567
769, 914
1065, 1341
1532, 1731
2018, 2189
2329, 2432
2513, 2422
2296, 2391
2211, 1927
1716, 1533
1274, 1057
955, 734
603, 457
341, 253
188, 155
112, 68
59, 51
30, 25
13, 20
15, 8
16, 17
14, 19
15, 21
17, 24
11, 32
24, 30
43, 52
64, 69
104, 116
144, 188
210, 239
279, 272
301, 327
389, 356
375, 372
372, 350
338, 321
287, 241
206, 170
147, 114
115, 60
66, 41
29, 24
21, 15
10, 6
12, 4
12, 7
9, 13
18, 10
10, 18
12, 12
8, 8
17, 23
14, 15
12, 12
11, 12
5, 8
4, 3
12, 2
4, 3
3, 4
4, 1
5, 3
6, 7
5, 3
3, 1
5, 1
1, 3
6, 5
5, 5
3, 2
6, 3
2, 2
2, 2
4, 5
4, 1
5, 3
6, 3
6, 5
9, 7
5, 6
5, 4
7, 3
6, 7
7, 6
14, 6
8, 7
5, 9
8, 7
10, 10
4, 14
4, 19
9, 20
7, 10
8, 14
8, 21
12, 19
14, 19
10, 15
17, 20
23, 13
21, 11
13, 9
12, 11
16, 6
22, 9
15, 5
17, 16
13, 17
9, 25
5, 23
2, 22
6, 20
3, 25
8, 24
2, 19
1, 10
2, 6
2, 5
1, 5
2, 5
2, 6
2, 5
4, 1
4, 2
2, 5
3, 4
1, 2
1, 3
2, 2
3, 3
10, 5
3, 4
0, 6
4, 2
6, 3
1, 3
1, 3
6, 4
2, 0
2, 1
2, 3
2, 3
3, 4
3, 1
0, 3
4, 2
3, 2
6, 7
1, 2
4, 6
6, 5
3, 8
2, 2
3, 2
3, 1
4, 4
6, 3
5, 6
9, 2
4, 5
9, 6
5, 10
4, 15
14, 9
7, 18
6, 6
6, 17
13, 27
5, 24
6, 16
4, 15
1, 14
4, 10
3, 9
4, 2
3, 11
3, 4
1, 6
3, 1
4, 2
1, 6
4, 4
1, 2
2, 4
2, 5
4, 3
3, 3
1, 4
7, 2
2, 4
1, 4
1, 3
2, 3
1, 2
1, 6
4, 2
2, 3
6, 1
3, 1
0, 0
4, 2
1, 5
1, 2
2, 2
2, 2
0, 2
2, 0
5, 2
9, 1
6, 3
3, 0
2, 1
1, 0
6, 2
5, 2
2, 4
2, 2
1, 2
2, 1
5, 1
3, 4
3, 2
1, 2
3, 5
1, 1
4, 3
4, 1
2, 3
2, 1
4, 1
1, 1
0, 3
4, 3
1, 0
3, 2
3, 3
3, 2
3, 4
0, 2
1, 3
2, 1
1, 2
0, 2
2, 3
2, 1
0, 2
0, 0
2, 2
3, 2
0, 0
1, 0
5, 2
6, 1
2, 2
1, 2
2, 2
2, 4
0, 2
2, 1
1, 2
1, 0
3, 1
0, 0
0, 1
0, 2
3, 1
1, 3
5, 1
1, 3
3, 1
1, 1
5, 0
3, 3
4, 2
2, 5
6, 3
3, 6
3, 4
3, 4
3, 1
1, 6
3, 2
3, 1
3, 0
5, 1
4, 1
1, 0
2, 3
5, 4
6, 1
3, 1
1, 2
4, 1
1, 5
2, 1
3, 1
1, 1
2, 0
1, 1
4, 2
3, 1
0, 1
1, 1
3, 1
2, 1
0, 1
2, 2
2, 3
1, 2
0, 1
0, 1
2, 0
1, 0
0, 0
1, 0
2, 2
1, 1
2, 2
0, 1
0, 0
2, 0
0, 1
3, 1
1, 3
0, 2
0, 3
1, 0
0, 1
2, 0
2, 0
1, 1
2, 1
0, 0
1, 0
0, 0
1, 1
1, 0
1, 0
0, 0
0, 1
1, 2
1, 1
0, 1
1, 0
1, 1
1, 1
0, 0
0, 0
0, 1
0, 1
0, 0
1, 1
1, 0
0, 0
1, 1
1, 0
0, 0
1, 1
2, 2
0, 2
1, 0
0, 2
1, 1
2, 0
1, 1
1, 1
0, 0
2, 1
1, 1
0, 2
0, 1
0, 2
0, 1
1, 1
2, 1
1, 0
0, 0
0, 0
0, 0
1, 0
0, 0
0, 0
1, 0
2, 0
2, 0
0, 0
1, 0
1, 0
1, 0
0, 1
0, 1
2, 0
1, 2
1, 1
0, 0
1, 1
0, 0
2, 0
0, 1
0, 1
2, 0
2, 0
0, 0
1, 0
1, 1
0, 3
1, 1
0, 0
0, 3
1, 1
0, 2
1, 0
0, 0
0, 0
2, 0
1, 1
0, 0
1, 0
0, 2
0, 0
0, 1
0, 0
1, 2
0, 1
0, 0
0, 0
0, 0
0, 0
1, 0
0, 0
0, 1
0, 0
0, 1
0, 0
0, 0
0, 0
0, 1
0, 1
1, 1
0, 1
1, 0
0, 0
0, 0
0, 0
0, 1
0, 0
1, 0
0, 0
1, 0
0, 0
1, 0
2, 0
1, 0
0, 0
1, 0
1, 0
1, 0
1, 0
1, 0
0, 1
0, 1
0, 1
0, 0
1, 0
0, 0
0, 1
0, 0
0, 0
0, 0
0, 1
1, 0
0, 0
0, 0
0, 0
0, 2
0, 0
0, 0
1, 1
0, 0
0, 2
0, 1
1, 1
0, 0
0, 3
0, 1
0, 2
0, 0
0, 0
0, 0
0, 0
0, 0
1, 0
1, 0
0, 1
0, 0
1, 1
0, 0
0, 0
0, 0
0, 0
1, 0
0, 0
0, 0
0, 0
1, 0
0, 0
0, 0
0, 0
0, 0
1, 0
0, 0
0, 0
0, 1
0, 0
0, 0
0, 0
0, 0
0, 1
1, 0
1, 1
0, 2
0, 0
0, 0
0, 0
1, 0
0, 1
0, 0
1, 1
0, 0
0, 0
0, 0
0, 0
1, 1
1, 0
0, 1
0, 1
0, 0
0, 0
0, 0
0, 0
0, 1
0, 0
0, 0
0, 0
2, 0
0, 0
0, 0
1, 0
0, 0
0, 0
0, 0
1, 0
0, 0
0, 0
0, 0
0, 0
0, 0
0, 0
0, 1
0, 0
0, 0
0, 0
0, 0
0, 0
0, 0
0, 0
0, 1
0, 0
0, 0
0, 0
0, 0
0, 0
0, 0
0, 1
0, 0
0, 0
0, 0
0, 1
1, 0
1, 0
0, 0
0, 0
0, 0
0, 0
0, 0
1, 0
0, 0
0, 0
0, 0
0, 0
0, 0
0, 2
0, 1
2, 0
0, 0
0, 0
1, 0
0, 0
0, 0
0, 0
0, 0
0, 0
0, 0
0, 0
0, 0
0, 0
0, 0
0, 0
0, 0
0, 0
0, 0
0, 0
0, 1
0, 0
0, 0
0, 0
0, 0
0, 0
1, 0
0, 0
0, 1
0, 0
0, 0
0, 0
0, 0
0, 0
0, 0
0, 0
0, 0
0, 0
0, 0
0, 0
1, 0
0, 0
0, 0
0, 0
0, 0
0, 0
0, 0
0, 0
0, 0
0, 0
0, 0
0, 0
1, 0
0, 0
0, 1
0, 0
0, 0
0, 0
0, 0
0, 0
0, 0
0, 0
0, 0
0, 0
0, 0
0, 0
0, 0
0, 0
0, 0
0, 0
0, 0
0, 0
0, 0
0, 0
0, 0
0, 0
0, 0
0, 0
0, 0
0, 0
0, 0
0, 0
0, 0
0, 0
0, 0
0, 0
0, 0
0, 0
1, 0
0, 0
0, 0
0, 0
0, 0
1, 0
0, 0
0, 0
0, 0
0, 0
0, 0
0, 0
0, 0
0, 0
0, 0
0, 0
0, 0
0, 0
0, 0
0, 0
0, 0
0, 0
0, 0
0, 0
0, 0
1, 0
0, 0
0, 0
0, 0
0, 0
0, 0
0, 0
0, 0
0, 0
0, 0
0, 0
0, 0
1, 0
0, 0
0, 0
1, 0
0, 0
0, 0
0, 0
0, 0
0, 0
0, 0
0, 0
0, 0
0, 0
0, 0
0, 0
0, 0
0, 0
0, 0
0, 0
0, 0
1, 0
0, 0
0, 0
0, 0
0, 0
0, 0
0, 0
0, 0
0, 0
0, 0
0, 0
0, 0
0, 0
0, 0
0, 0
0, 0
0, 0
0, 0
0, 0
0, 0
0, 0
0, 0
0, 0
0, 0
0, 0
0, 0
0, 0
0, 0
0, 0
0, 0
0, 0
0, 0
0, 0
0, 0
0, 0
0, 0
0, 0
0, 0
0, 0
0, 0
0, 0
0, 0
0, 0
0, 0
0, 0
0, 0
0, 0
0, 0
0, 0
0, 0
0, 0
0, 0
0, 0
0, 0
0, 0
0, 0
0, 0
0, 0
0, 0
0, 0
0, 0
0, 0
0, 0
0, 0
0, 0
0, 0
0, 1
0, 0
0, 0
0, 0
0, 0
0, 0
0, 0
0, 0
0, 0
0, 0
0, 0
0, 0
0, 0
0, 0
0, 0
0, 0
0, 0
0, 0
0, 0
0, 0
0, 0
0, 0
0, 0
0, 0
0, 0
0, 0
0, 0
0, 0
0, 0
0, 0
0, 0
0, 0
0, 0
0, 0
0, 0
0, 0
0, 0
0, 0
0, 0
0, 0
0, 0
0, 0
0, 0
0, 0
0, 0
0, 0
0, 0
0, 0
0, 0
0, 0
0, 0
0, 0
0, 0
0, 0
0, 0
0, 0
0, 0
0, 0
0, 0
0, 0
0, 0
0, 0
0, 0
0, 0
0, 0
0, 0
0, 0
0, 0
0, 0
0, 0
0, 0
0, 0
0, 0
0, 0
0, 0
0, 0
0, 0
0, 0
0, 0
0, 0
0, 0
0, 0
0, 0
0, 0
0, 0
0, 0
0, 0
0, 0
0, 0
0, 0
0, 0
0, 0
0, 0
0, 0
0, 0
0, 0
0, 0
0, 0
0, 0
0, 0
0, 0
0, 0
0, 0
0, 0
0, 0
0, 0
0, 0
0, 0
0, 0
0, 0
0, 0
0, 0
0, 0
0, 0
0, 0
0, 0
0, 0
0, 0
0, 0
0, 0
0, 0
0, 0
0, 0
0, 0
0, 0
0, 0
0, 0
0, 0
0, 0
0, 0
0, 0
0, 0
0, 0
0, 0
0, 0
0, 0
0, 0
0, 0
0, 0
0, 0
0, 0
0, 0
0, 0
0, 0
0, 0
0, 0
0, 0
0, 0
0, 0
0, 0
0, 0
0, 0
0, 0
0, 0
0, 0
0, 0
0, 0
0, 0
0, 0
0, 0
0, 0
0, 0
0, 0
0, 0
0, 0
0, 0
0, 0
0, 0
0, 0
0, 0
0, 0
0, 0
0, 0
0, 0
0, 0
0, 0
0, 0
0, 0
0, 0
0, 0
0, 0
0, 0
0, 0
0, 0
0, 0
0, 0
0, 0
0, 0
0, 0
0, 0
0, 0
0, 0
0, 0
0, 0
0, 0
0, 0
0, 0
0, 0
0, 0
0, 0
0, 0
0, 0
0, 0
0, 0
0, 0
0, 0
0, 0
0, 0
0, 0
0, 0
0, 0
0, 0
0, 0
0, 0
0, 0
0, 0
0, 0
0, 0
0, 0
0, 0
0, 0
0, 0
0, 0
0, 0
0, 0
0, 0
0, 0
0, 0
0, 0
0, 0
0, 0
0, 0
0, 0
0, 0
0, 0
0, 0
0, 0
0, 0
0, 0
0, 0
0, 0
0, 0
0, 0
0, 0
0, 0
0, 0
0, 0
0, 0
0, 0
0, 0
0, 0
0, 0
0, 0
0, 0
0, 0
0, 0
0, 0
0, 0
0, 0
0, 0
0, 0
0, 0
0, 0
0, 0
0, 0
0, 0
0, 0
0, 0
0, 0
0, 0
0, 0
0, 0
0, 0
0, 0
0, 0
0, 0
0, 0
0, 0
0, 0
0, 0
0, 0
0, 0
0, 0
0, 0
0, 0
0, 0
0, 0
0, 0
0, 0
0, 0
0, 0
0, 0
0, 0
0, 0
0, 0
0, 0
#ENDOFDATA     end of spectrum data