File: host_upload/06-09-2024/ps_0852/dump3/ps__0852shot_2237.msa
#FORMAT      : EMSA/MAS spectral data file
#VERSION     : TC202v2.0 PIXL
#TITLE       : N/A
#DATE        :       Date in the format DD-MMM-YYYY, for example 07-JUL-2010
#TIME        :             The time of day at which the spectrum was recorded, in 24-hour format
#OWNER       : PIXL Flight Model       (PIXL will use this to indicate which instrument took the data.)
#NPOINTS     : 4096     Number of data points in the spectrum (This can be zero for configuration only files)
#NCOLUMNS    : 2     Number of data columns in the spectrum (This can be zero for configuration only files)
#XUNITS      : eV
#YUNITS      : COUNTS
#DATATYPE    : YY
#XPERCHAN    : 7.862, 7.881   eV per channel (separate by commas if more than one detector)
#OFFSET      : 18.5, -22.4         eV of first channel  (separate by commas if more than one detector
#SIGNALTYPE  : XRF
#YP_TEMP     : 2.332
#LIVETIME    : 8.54415, 8.5199   seconds (separate by commas if more than one detector)
#REALTIME    : 10, 10.0   seconds (separate by commas if more than one detector)
#SPECTRUM    : start of spectrum data
0, 0
0, 0
0, 0
0, 0
0, 0
0, 0
0, 0
0, 0
0, 0
0, 0
0, 0
0, 0
0, 0
0, 0
0, 0
0, 0
0, 0
0, 0
0, 0
0, 0
0, 0
0, 0
0, 0
0, 0
0, 0
0, 0
0, 0
0, 0
0, 0
0, 0
0, 0
0, 0
0, 0
0, 0
1, 1
1, 0
2, 0
0, 0
1, 1
1, 0
0, 1
2, 0
0, 0
2, 1
2, 0
1, 0
1, 1
4, 0
6, 5
7, 5
22, 22
51, 36
70, 52
55, 59
71, 78
79, 60
62, 59
38, 46
37, 30
25, 15
7, 5
6, 8
8, 8
9, 6
4, 6
8, 9
7, 7
23, 17
25, 17
44, 46
84, 97
200, 167
283, 304
382, 293
461, 407
464, 394
380, 363
308, 281
208, 201
128, 96
60, 73
51, 22
13, 13
12, 9
2, 2
2, 2
0, 1
1, 2
5, 1
1, 3
3, 0
2, 0
0, 1
3, 0
3, 3
3, 3
8, 6
3, 3
7, 5
5, 8
7, 5
6, 6
1, 6
3, 1
4, 5
5, 1
2, 3
4, 5
11, 3
7, 10
16, 11
22, 11
25, 17
32, 18
44, 25
48, 22
67, 22
49, 21
37, 16
33, 13
22, 20
28, 14
29, 8
35, 18
23, 13
21, 12
16, 12
17, 12
12, 8
7, 7
8, 5
5, 3
3, 4
2, 2
1, 2
2, 11
0, 4
3, 1
2, 3
3, 7
4, 5
2, 7
2, 10
3, 2
5, 3
4, 1
3, 2
1, 1
4, 4
1, 3
5, 4
1, 2
7, 11
9, 7
10, 11
20, 23
22, 18
20, 27
20, 15
20, 12
23, 18
10, 7
4, 4
5, 5
2, 2
4, 5
2, 2
4, 1
5, 5
4, 5
9, 3
9, 2
16, 5
9, 5
16, 4
14, 3
19, 1
14, 7
20, 4
15, 4
23, 5
30, 3
37, 4
56, 1
64, 3
62, 5
66, 2
57, 5
50, 8
36, 13
29, 7
23, 10
16, 11
9, 15
12, 17
13, 17
16, 13
12, 28
16, 33
16, 27
15, 23
11, 23
5, 21
10, 17
5, 8
2, 13
3, 22
4, 11
10, 11
9, 8
5, 8
6, 6
7, 9
5, 12
5, 8
6, 10
5, 7
4, 13
7, 13
10, 7
10, 7
9, 11
8, 12
6, 9
8, 8
8, 17
7, 15
9, 19
4, 11
21, 25
11, 19
11, 18
14, 14
21, 8
21, 12
17, 10
38, 12
24, 13
32, 8
34, 6
39, 8
46, 6
56, 15
60, 8
75, 12
78, 19
91, 22
137, 31
117, 41
115, 52
125, 65
101, 51
89, 61
78, 36
43, 34
44, 32
27, 21
36, 18
25, 11
16, 10
20, 17
26, 38
37, 61
85, 92
151, 185
252, 327
465, 562
792, 878
1117, 1257
1514, 1656
1921, 1967
2315, 2276
2500, 2289
2371, 2091
2085, 1904
1701, 1465
1309, 1019
957, 665
589, 434
339, 254
184, 142
110, 59
51, 34
32, 27
22, 25
17, 14
14, 16
18, 18
23, 14
16, 29
25, 28
42, 36
38, 59
72, 92
99, 141
176, 168
220, 246
282, 275
359, 334
351, 312
382, 355
343, 304
308, 264
261, 212
197, 137
133, 98
100, 51
71, 48
43, 23
16, 20
12, 3
13, 6
8, 3
14, 9
14, 10
18, 12
12, 11
15, 13
13, 11
12, 19
13, 3
10, 7
15, 7
2, 4
4, 7
5, 8
5, 6
8, 2
5, 1
3, 6
0, 3
3, 5
3, 4
3, 3
1, 8
1, 3
6, 8
3, 6
2, 7
0, 4
3, 0
6, 7
7, 8
8, 6
2, 6
9, 7
10, 4
11, 9
12, 4
6, 6
14, 7
9, 6
11, 9
13, 10
14, 9
17, 5
15, 8
7, 9
8, 11
8, 13
6, 11
5, 12
7, 15
15, 14
17, 7
16, 13
9, 11
15, 6
14, 7
17, 5
12, 5
16, 10
16, 10
7, 10
16, 14
5, 18
8, 18
4, 18
2, 16
2, 16
3, 10
3, 14
6, 10
5, 5
2, 7
3, 5
5, 2
3, 3
8, 7
1, 1
3, 4
3, 1
2, 4
2, 4
3, 7
4, 3
3, 3
1, 3
1, 6
1, 2
4, 5
5, 4
3, 3
3, 4
3, 3
1, 4
5, 10
4, 4
4, 5
1, 6
2, 4
2, 7
1, 1
3, 5
6, 3
3, 7
4, 5
4, 2
2, 4
5, 3
3, 6
6, 3
1, 2
3, 4
7, 4
5, 6
8, 5
6, 7
8, 5
7, 8
4, 11
5, 6
7, 19
6, 13
10, 17
7, 19
4, 14
7, 9
6, 7
3, 7
5, 7
3, 5
1, 5
2, 3
3, 5
4, 3
2, 5
2, 5
2, 5
1, 1
2, 2
0, 1
5, 3
1, 2
4, 3
3, 4
2, 1
2, 1
3, 4
4, 2
3, 2
2, 4
5, 3
2, 1
5, 2
5, 2
1, 1
4, 3
4, 3
1, 4
6, 8
1, 1
3, 4
5, 1
2, 2
3, 1
3, 0
1, 3
4, 0
6, 3
5, 3
2, 3
1, 2
2, 3
4, 2
0, 3
3, 5
1, 3
2, 0
5, 1
2, 1
4, 0
1, 5
1, 2
3, 3
2, 2
3, 4
2, 1
4, 3
2, 5
0, 10
0, 2
1, 1
1, 1
1, 2
0, 5
4, 2
2, 2
1, 1
3, 0
0, 4
1, 2
2, 1
2, 0
0, 1
2, 0
0, 3
1, 0
1, 2
3, 3
2, 2
2, 4
4, 1
3, 3
4, 1
3, 1
6, 2
4, 2
3, 0
4, 0
1, 3
5, 4
3, 1
2, 0
2, 2
0, 4
3, 3
2, 3
6, 1
6, 3
6, 0
10, 10
3, 3
3, 2
3, 4
2, 6
3, 4
6, 0
2, 0
1, 0
1, 3
3, 6
3, 1
1, 1
1, 1
1, 4
2, 0
1, 1
2, 0
1, 0
2, 2
2, 3
2, 3
2, 1
1, 2
1, 0
1, 0
5, 2
5, 1
1, 0
0, 1
1, 2
2, 1
2, 2
1, 0
2, 2
1, 0
3, 0
0, 0
2, 1
1, 2
0, 0
1, 1
0, 0
0, 0
2, 0
1, 0
2, 2
1, 0
2, 0
0, 0
0, 0
2, 0
0, 1
3, 1
0, 1
3, 1
1, 1
2, 1
0, 1
1, 1
1, 1
0, 1
0, 1
0, 0
2, 1
1, 0
0, 0
1, 0
1, 1
2, 1
1, 1
5, 2
0, 0
1, 1
1, 1
0, 0
0, 1
0, 1
0, 2
0, 1
0, 1
0, 2
0, 1
0, 2
0, 2
2, 0
1, 1
0, 0
1, 1
0, 1
1, 2
0, 1
0, 2
3, 0
0, 1
1, 1
0, 0
1, 1
0, 0
0, 0
0, 2
0, 0
1, 0
0, 1
1, 1
0, 1
0, 1
1, 1
1, 0
1, 2
0, 0
0, 3
1, 1
0, 2
1, 2
1, 2
1, 1
2, 0
2, 0
0, 0
0, 0
0, 0
1, 1
1, 1
0, 3
0, 0
2, 1
0, 1
0, 0
1, 0
0, 2
2, 0
2, 0
1, 0
0, 1
0, 0
1, 0
0, 1
1, 1
0, 0
1, 0
0, 0
0, 1
0, 0
1, 0
0, 2
2, 0
2, 0
0, 1
0, 0
1, 1
2, 1
1, 1
1, 0
1, 0
0, 0
0, 0
0, 0
1, 1
0, 1
0, 1
0, 2
0, 1
1, 0
0, 0
0, 0
0, 0
0, 0
0, 1
0, 0
0, 0
1, 0
0, 0
0, 0
0, 0
0, 0
0, 0
0, 1
0, 1
1, 1
1, 0
1, 1
1, 1
0, 0
0, 0
0, 1
0, 0
0, 0
0, 0
0, 0
0, 2
0, 0
0, 0
1, 0
0, 1
0, 0
0, 0
0, 0
0, 0
2, 1
0, 0
1, 0
0, 0
0, 0
0, 0
0, 1
0, 0
0, 0
0, 0
2, 0
0, 0
1, 1
1, 0
0, 0
0, 0
0, 0
0, 0
0, 1
0, 0
0, 1
0, 0
0, 0
1, 0
0, 1
0, 0
1, 0
0, 0
0, 0
1, 1
0, 0
0, 0
0, 0
0, 1
0, 0
1, 1
0, 0
1, 1
0, 0
0, 0
0, 1
0, 0
0, 1
0, 0
1, 0
0, 0
0, 1
0, 0
1, 1
0, 0
0, 0
0, 0
0, 0
0, 1
1, 0
2, 0
0, 1
0, 0
0, 0
1, 0
0, 0
1, 0
0, 0
1, 0
1, 0
0, 1
0, 0
0, 0
0, 0
0, 0
1, 0
0, 0
0, 0
0, 0
0, 0
0, 0
0, 0
0, 1
0, 0
0, 0
0, 1
0, 0
0, 0
1, 0
0, 0
0, 0
0, 0
0, 0
0, 0
0, 0
0, 0
0, 1
0, 0
0, 0
0, 0
0, 0
0, 0
0, 0
0, 0
1, 0
1, 0
1, 0
1, 0
0, 1
0, 1
0, 0
0, 0
2, 0
0, 0
0, 0
0, 0
0, 0
0, 0
0, 1
0, 0
0, 0
0, 1
0, 0
0, 0
0, 1
0, 0
0, 0
0, 0
0, 0
0, 0
0, 0
0, 0
0, 0
0, 0
0, 0
0, 0
1, 0
0, 0
0, 0
0, 0
0, 0
0, 0
0, 0
0, 0
0, 0
0, 0
0, 0
0, 0
0, 0
1, 0
0, 0
0, 0
0, 0
0, 0
0, 0
0, 0
0, 0
0, 0
0, 0
0, 0
0, 0
0, 0
0, 0
0, 0
0, 0
0, 0
0, 0
0, 0
0, 0
0, 0
0, 1
0, 0
0, 0
0, 0
0, 0
0, 0
0, 0
0, 0
0, 0
0, 0
0, 0
0, 0
0, 0
0, 0
0, 0
0, 0
0, 0
0, 0
0, 0
0, 0
0, 0
0, 0
0, 0
0, 0
0, 0
0, 0
0, 0
0, 0
0, 0
0, 0
0, 0
0, 0
0, 0
0, 0
1, 0
0, 0
0, 0
0, 0
0, 0
0, 0
0, 0
0, 0
0, 0
0, 0
0, 0
0, 0
0, 0
0, 0
0, 0
0, 0
0, 0
0, 0
0, 0
0, 0
0, 0
0, 0
0, 0
0, 0
0, 0
0, 0
0, 0
0, 0
0, 0
0, 0
0, 0
0, 0
0, 0
0, 0
0, 0
0, 0
0, 0
0, 0
0, 0
0, 0
0, 0
0, 0
0, 0
0, 0
0, 0
0, 0
0, 0
0, 0
0, 0
0, 0
0, 0
0, 0
0, 0
0, 0
1, 0
0, 0
0, 0
0, 0
0, 0
0, 0
0, 0
0, 0
0, 0
0, 0
0, 0
0, 0
0, 0
1, 0
0, 0
0, 0
0, 0
0, 0
0, 0
0, 0
0, 0
0, 0
0, 0
0, 0
0, 0
0, 0
0, 0
0, 0
0, 0
0, 0
0, 0
0, 0
0, 0
0, 0
0, 0
0, 0
0, 0
0, 0
0, 0
0, 0
0, 0
0, 0
0, 0
0, 0
0, 0
0, 0
0, 0
0, 0
0, 0
0, 0
0, 0
0, 0
0, 0
0, 0
0, 0
0, 0
0, 0
0, 0
0, 0
0, 0
0, 0
1, 0
0, 0
0, 0
0, 0
0, 0
0, 0
0, 0
0, 0
0, 0
0, 0
0, 0
0, 0
0, 0
1, 0
0, 0
0, 0
0, 0
0, 0
0, 0
0, 0
0, 0
0, 0
0, 0
0, 0
0, 0
0, 0
0, 0
0, 0
0, 0
0, 0
0, 0
0, 0
0, 0
0, 0
0, 0
0, 0
0, 0
0, 0
0, 0
0, 0
0, 0
0, 0
0, 0
0, 0
0, 0
0, 0
0, 0
0, 0
0, 0
0, 0
0, 0
0, 0
0, 0
0, 0
0, 0
0, 0
0, 0
0, 0
0, 0
0, 0
0, 0
0, 0
0, 0
0, 0
0, 0
0, 0
0, 0
0, 0
0, 0
0, 0
0, 0
0, 0
0, 0
0, 0
0, 0
0, 0
0, 0
0, 0
0, 0
0, 0
0, 0
0, 0
0, 0
0, 0
0, 0
0, 0
0, 0
0, 0
0, 0
0, 0
0, 0
0, 0
0, 0
0, 0
0, 0
0, 0
0, 0
0, 0
0, 0
0, 0
0, 0
0, 0
0, 0
0, 0
0, 0
0, 0
0, 0
0, 0
0, 0
0, 0
0, 0
0, 0
0, 0
0, 0
0, 0
0, 0
0, 0
0, 0
0, 0
0, 0
0, 0
0, 0
0, 0
0, 0
0, 0
0, 0
0, 0
0, 0
0, 0
0, 0
0, 0
0, 0
0, 0
0, 0
0, 0
0, 0
0, 0
0, 0
0, 0
0, 0
0, 0
0, 0
0, 0
0, 0
0, 0
0, 0
0, 0
0, 0
0, 0
0, 0
0, 0
0, 0
0, 0
0, 0
0, 0
0, 0
0, 0
0, 0
0, 0
0, 0
0, 0
0, 0
0, 0
0, 0
0, 0
0, 0
0, 0
0, 0
0, 0
0, 0
0, 0
0, 0
0, 0
0, 0
0, 0
0, 0
0, 0
0, 0
0, 0
0, 0
0, 0
0, 0
0, 0
0, 0
0, 0
0, 0
0, 0
0, 0
0, 0
0, 0
0, 0
0, 0
0, 0
0, 0
0, 0
0, 0
0, 0
0, 0
0, 0
0, 0
0, 0
0, 0
0, 0
0, 0
0, 0
0, 0
0, 0
0, 0
0, 0
0, 0
0, 0
0, 0
0, 0
0, 0
0, 0
0, 0
0, 0
0, 0
0, 0
0, 0
0, 0
0, 0
0, 0
0, 0
0, 0
0, 0
0, 0
0, 0
0, 0
0, 0
0, 0
0, 0
0, 0
0, 0
0, 0
0, 0
0, 0
0, 0
0, 0
0, 0
0, 0
0, 0
0, 0
0, 0
0, 0
0, 0
0, 0
0, 0
0, 0
0, 0
0, 0
0, 0
0, 0
0, 0
0, 0
0, 0
0, 0
0, 0
0, 0
0, 0
0, 0
0, 0
0, 0
0, 0
0, 0
0, 0
0, 0
0, 0
0, 0
0, 0
0, 0
0, 0
0, 0
0, 0
0, 0
0, 0
0, 0
0, 0
0, 0
0, 0
0, 0
0, 0
0, 0
0, 0
0, 0
0, 0
0, 0
0, 0
0, 0
0, 0
0, 0
0, 0
0, 0
0, 0
0, 0
0, 0
0, 0
0, 0
0, 0
0, 0
0, 0
0, 0
0, 0
0, 0
0, 0
0, 0
0, 0
0, 0
0, 0
0, 0
0, 0
0, 0
#ENDOFDATA     end of spectrum data