File: host_upload/06-09-2024/ps_0852/dump3/ps__0852shot_2083.msa
#FORMAT      : EMSA/MAS spectral data file
#VERSION     : TC202v2.0 PIXL
#TITLE       : N/A
#DATE        :       Date in the format DD-MMM-YYYY, for example 07-JUL-2010
#TIME        :             The time of day at which the spectrum was recorded, in 24-hour format
#OWNER       : PIXL Flight Model       (PIXL will use this to indicate which instrument took the data.)
#NPOINTS     : 4096     Number of data points in the spectrum (This can be zero for configuration only files)
#NCOLUMNS    : 2     Number of data columns in the spectrum (This can be zero for configuration only files)
#XUNITS      : eV
#YUNITS      : COUNTS
#DATATYPE    : YY
#XPERCHAN    : 7.862, 7.881   eV per channel (separate by commas if more than one detector)
#OFFSET      : 18.5, -22.4         eV of first channel  (separate by commas if more than one detector
#SIGNALTYPE  : XRF
#YP_TEMP     : 2.364
#LIVETIME    : 8.54434, 8.5631   seconds (separate by commas if more than one detector)
#REALTIME    : 10, 10.0   seconds (separate by commas if more than one detector)
#SPECTRUM    : start of spectrum data
0, 0
0, 0
0, 0
0, 0
0, 0
0, 0
0, 0
0, 0
0, 0
0, 0
0, 0
0, 0
0, 0
0, 0
0, 0
0, 0
0, 0
0, 0
0, 0
0, 0
0, 0
0, 0
0, 0
0, 0
0, 0
0, 0
0, 0
0, 0
0, 0
0, 0
0, 0
0, 0
0, 0
0, 0
0, 0
2, 1
0, 0
2, 1
2, 0
3, 0
1, 0
2, 4
2, 3
4, 2
2, 1
5, 2
3, 5
1, 1
5, 5
16, 10
23, 34
41, 38
64, 61
65, 74
76, 90
83, 78
68, 67
41, 34
29, 23
14, 15
10, 9
5, 9
3, 5
2, 5
3, 3
2, 3
3, 10
8, 8
23, 35
49, 44
91, 89
172, 189
249, 269
340, 374
391, 425
438, 427
384, 342
282, 264
191, 197
117, 120
72, 64
30, 36
23, 25
8, 11
5, 5
3, 4
3, 2
2, 1
1, 2
2, 1
3, 2
4, 2
4, 2
5, 4
15, 7
21, 24
25, 23
32, 35
31, 26
48, 34
40, 27
39, 21
23, 13
21, 9
11, 10
6, 8
5, 5
6, 7
20, 9
19, 10
38, 16
74, 22
79, 24
162, 22
165, 28
189, 27
194, 21
147, 20
119, 17
89, 20
80, 16
36, 13
21, 21
31, 13
18, 18
15, 10
12, 13
8, 10
10, 16
7, 7
3, 12
4, 10
1, 4
4, 2
3, 5
1, 1
0, 4
2, 0
2, 1
0, 1
1, 1
3, 2
1, 1
2, 3
0, 1
0, 1
2, 0
1, 3
1, 2
3, 0
3, 4
3, 9
3, 8
4, 8
8, 12
11, 13
9, 17
14, 11
16, 21
11, 23
12, 10
10, 10
6, 5
5, 9
7, 2
4, 2
1, 2
1, 5
6, 2
4, 4
10, 4
19, 4
21, 4
32, 4
42, 2
57, 4
52, 2
55, 3
51, 1
44, 1
37, 2
26, 5
13, 2
12, 5
6, 4
11, 2
3, 5
7, 3
7, 5
4, 5
9, 8
5, 10
5, 9
8, 13
14, 23
9, 14
14, 25
14, 31
13, 47
11, 69
14, 81
8, 108
7, 118
4, 130
3, 135
7, 115
3, 90
7, 66
6, 37
5, 21
5, 18
1, 8
6, 9
3, 6
5, 3
9, 12
4, 3
4, 5
6, 8
8, 7
3, 7
5, 6
6, 5
5, 12
7, 9
6, 9
9, 9
7, 9
12, 12
14, 15
17, 12
12, 15
20, 15
34, 11
36, 16
41, 11
54, 3
49, 7
49, 8
45, 5
43, 2
37, 9
33, 12
31, 14
23, 11
23, 19
25, 26
33, 40
32, 64
52, 53
63, 71
54, 59
68, 58
39, 46
40, 45
35, 47
19, 34
20, 25
21, 33
14, 39
17, 54
26, 53
51, 78
80, 118
131, 217
264, 372
454, 576
741, 947
1032, 1310
1496, 1761
1957, 2177
2129, 2418
2357, 2341
2291, 2248
2015, 1989
1691, 1568
1287, 1185
912, 831
587, 487
350, 292
211, 175
114, 110
64, 61
26, 34
33, 29
25, 24
21, 15
39, 11
45, 12
59, 21
48, 28
79, 38
87, 46
94, 77
149, 119
164, 179
211, 239
264, 270
323, 319
327, 365
332, 322
322, 317
270, 267
266, 228
192, 146
119, 105
99, 60
60, 44
32, 25
20, 14
9, 8
5, 7
4, 5
7, 7
6, 8
9, 11
13, 11
11, 10
16, 18
5, 10
8, 5
8, 13
6, 6
4, 5
3, 3
4, 4
4, 5
4, 4
4, 4
4, 3
6, 2
5, 4
6, 6
7, 8
2, 3
1, 6
0, 11
1, 6
2, 1
5, 4
7, 3
10, 1
7, 7
9, 7
11, 2
15, 2
21, 3
31, 3
52, 4
49, 3
54, 5
57, 5
60, 6
79, 6
62, 4
46, 2
59, 1
48, 12
26, 4
25, 0
18, 6
11, 5
7, 1
7, 3
8, 5
6, 5
6, 3
8, 2
2, 5
3, 2
3, 3
5, 6
2, 1
0, 6
2, 2
1, 5
6, 1
1, 4
2, 1
3, 7
1, 7
3, 2
4, 2
2, 3
3, 3
0, 1
4, 5
4, 3
3, 1
3, 5
2, 2
1, 6
5, 5
6, 7
3, 3
3, 5
3, 6
2, 2
1, 4
2, 9
0, 5
4, 4
1, 6
2, 11
3, 9
4, 9
2, 7
3, 9
1, 5
3, 10
4, 0
4, 5
2, 4
6, 6
3, 1
1, 1
3, 3
8, 4
0, 7
1, 10
5, 4
1, 4
6, 6
6, 3
3, 4
1, 1
1, 3
2, 3
5, 2
7, 3
2, 4
3, 5
3, 4
1, 4
1, 5
0, 2
1, 6
8, 5
0, 2
1, 4
3, 3
7, 1
3, 2
4, 6
3, 3
2, 0
3, 3
1, 1
2, 2
1, 3
1, 3
3, 3
0, 2
2, 1
4, 2
1, 0
1, 2
2, 1
3, 4
1, 1
0, 5
1, 4
5, 5
4, 4
1, 2
6, 1
4, 2
3, 2
9, 2
1, 1
5, 3
7, 4
2, 1
2, 5
7, 0
3, 1
0, 2
2, 1
2, 6
2, 3
2, 4
3, 4
5, 0
3, 0
1, 3
1, 2
4, 1
5, 1
1, 3
2, 2
2, 0
6, 2
3, 3
0, 5
1, 0
1, 1
0, 5
2, 5
2, 2
2, 2
1, 3
0, 3
2, 4
4, 0
3, 0
1, 2
1, 2
1, 2
3, 4
2, 2
0, 2
2, 0
0, 3
3, 2
3, 1
3, 1
2, 4
4, 4
2, 2
2, 2
2, 4
2, 2
0, 1
4, 3
6, 2
2, 5
2, 3
2, 4
6, 1
4, 4
4, 0
6, 2
5, 2
1, 3
4, 4
3, 2
4, 2
6, 5
4, 2
5, 3
2, 3
4, 3
5, 1
9, 6
3, 3
3, 4
5, 2
3, 1
1, 3
2, 1
1, 3
2, 1
1, 1
0, 5
3, 3
3, 7
1, 2
2, 1
2, 1
0, 0
0, 0
0, 2
1, 3
1, 1
3, 2
0, 4
2, 1
0, 1
1, 1
2, 2
6, 3
2, 1
1, 2
0, 3
1, 4
1, 2
1, 1
1, 1
0, 3
2, 4
1, 1
0, 3
0, 0
1, 1
1, 1
1, 1
2, 0
1, 1
1, 1
0, 1
0, 0
1, 0
4, 1
0, 0
0, 1
0, 0
1, 0
1, 0
1, 0
2, 1
2, 1
0, 0
1, 0
1, 2
1, 2
0, 1
4, 1
1, 0
2, 1
0, 0
0, 1
0, 0
1, 0
0, 1
0, 0
1, 2
2, 1
1, 2
1, 0
1, 0
0, 1
2, 3
2, 0
1, 1
0, 1
1, 0
1, 1
1, 0
0, 0
0, 2
1, 1
0, 1
1, 0
4, 1
0, 0
1, 0
1, 0
1, 1
0, 1
1, 1
1, 2
2, 1
0, 2
2, 2
1, 1
1, 0
0, 1
0, 0
2, 0
1, 2
0, 0
0, 0
2, 1
1, 0
0, 3
4, 0
0, 0
1, 0
1, 2
0, 1
0, 0
1, 1
0, 0
0, 0
0, 1
1, 0
1, 0
0, 0
0, 1
1, 1
0, 0
0, 0
0, 0
1, 0
1, 0
0, 0
3, 0
0, 0
1, 0
1, 0
0, 2
0, 0
0, 2
0, 0
1, 1
0, 1
0, 0
1, 0
1, 0
0, 1
1, 1
0, 2
0, 2
0, 0
1, 0
1, 1
0, 0
0, 0
1, 0
0, 0
0, 0
0, 0
1, 1
0, 0
0, 1
0, 0
1, 0
0, 0
0, 0
1, 0
1, 0
0, 0
0, 0
1, 0
0, 1
0, 0
0, 0
0, 1
0, 2
0, 1
1, 2
1, 1
0, 0
0, 1
0, 0
2, 0
0, 0
0, 0
1, 0
0, 1
0, 0
0, 1
0, 0
0, 1
1, 2
0, 0
2, 0
0, 2
1, 0
0, 0
0, 0
0, 0
0, 1
0, 0
0, 1
0, 1
0, 0
0, 0
0, 0
0, 0
0, 0
0, 1
0, 0
1, 1
0, 0
0, 0
0, 0
0, 0
1, 0
0, 0
0, 2
2, 1
0, 1
0, 0
2, 0
0, 0
1, 1
0, 0
1, 1
0, 0
0, 1
1, 0
2, 0
0, 0
1, 0
0, 0
0, 0
0, 1
0, 0
0, 0
0, 0
0, 0
0, 0
0, 0
0, 0
0, 0
0, 1
0, 0
0, 0
1, 0
1, 0
1, 0
0, 0
0, 0
0, 0
0, 0
0, 1
1, 0
0, 0
1, 1
0, 0
0, 1
0, 0
0, 0
0, 0
0, 2
0, 0
1, 0
0, 0
0, 0
0, 0
1, 0
0, 0
0, 0
0, 0
0, 0
1, 0
0, 0
0, 0
0, 0
0, 0
0, 0
0, 0
0, 0
0, 0
0, 0
0, 0
0, 0
0, 0
0, 0
0, 0
0, 0
0, 0
0, 0
0, 0
0, 1
0, 1
1, 0
0, 0
0, 0
1, 0
0, 0
0, 0
0, 0
0, 0
0, 0
0, 1
1, 0
0, 0
0, 0
0, 1
0, 0
0, 1
0, 0
0, 0
0, 1
0, 0
0, 1
0, 0
0, 0
1, 0
0, 1
0, 2
0, 0
0, 0
0, 0
0, 0
0, 0
0, 0
1, 0
0, 0
0, 0
0, 0
0, 0
0, 0
0, 0
0, 0
0, 0
0, 1
0, 0
0, 0
0, 0
0, 0
1, 1
0, 0
0, 0
0, 0
0, 0
0, 0
0, 0
0, 0
2, 0
0, 0
0, 0
0, 0
0, 0
0, 0
0, 0
0, 0
0, 0
0, 0
0, 0
0, 0
0, 0
0, 0
0, 0
0, 0
0, 0
0, 0
1, 0
0, 0
0, 0
0, 0
0, 0
0, 0
0, 0
0, 0
0, 0
0, 0
0, 0
0, 0
0, 0
0, 0
0, 0
0, 0
0, 0
0, 0
0, 0
0, 1
0, 0
0, 0
0, 0
0, 0
0, 0
0, 0
0, 0
0, 0
0, 0
0, 0
0, 0
0, 0
0, 0
0, 0
0, 0
0, 0
0, 0
0, 0
0, 0
0, 0
0, 0
0, 0
1, 0
0, 0
0, 0
0, 0
0, 1
0, 0
0, 0
0, 0
0, 0
0, 0
0, 0
0, 0
0, 0
0, 0
0, 0
0, 0
0, 1
0, 0
0, 0
0, 0
0, 0
0, 0
0, 0
0, 0
0, 0
0, 0
0, 0
0, 0
0, 1
0, 0
0, 0
0, 0
0, 0
0, 0
0, 0
0, 0
0, 0
0, 0
0, 0
0, 0
0, 0
0, 0
0, 0
0, 0
0, 0
0, 0
0, 0
0, 0
0, 0
1, 0
0, 0
0, 0
1, 0
0, 0
0, 0
0, 0
0, 0
0, 0
0, 0
0, 0
0, 0
0, 0
0, 0
0, 0
0, 0
0, 0
0, 0
0, 0
1, 0
0, 0
0, 0
0, 0
0, 0
0, 0
0, 0
0, 0
0, 0
0, 0
0, 0
0, 0
0, 0
0, 0
0, 0
0, 0
0, 0
0, 0
0, 0
0, 0
0, 0
0, 0
0, 0
0, 0
0, 0
0, 0
0, 0
0, 0
0, 0
0, 0
0, 0
0, 1
0, 0
0, 0
0, 0
0, 1
0, 0
0, 0
0, 0
0, 0
0, 0
0, 0
0, 0
0, 0
0, 0
0, 0
0, 0
0, 0
0, 0
0, 0
0, 0
0, 0
0, 0
0, 0
0, 0
0, 0
0, 0
0, 0
0, 0
0, 0
0, 0
0, 0
0, 0
0, 0
0, 0
0, 0
0, 0
0, 0
0, 0
0, 0
0, 0
0, 0
0, 0
0, 0
0, 0
0, 0
0, 0
0, 0
0, 0
0, 0
0, 0
0, 0
0, 0
0, 0
0, 0
0, 0
0, 0
0, 0
0, 0
0, 0
0, 0
0, 0
0, 0
0, 0
0, 0
0, 0
0, 0
0, 0
0, 0
0, 0
0, 0
0, 0
0, 0
0, 0
0, 0
0, 0
0, 0
0, 0
0, 0
0, 0
0, 0
0, 0
0, 0
0, 0
0, 0
0, 0
0, 0
0, 0
0, 0
0, 0
0, 0
0, 0
0, 0
0, 0
0, 0
0, 0
0, 0
0, 0
0, 0
0, 0
0, 0
0, 0
0, 0
0, 0
0, 0
0, 0
0, 0
0, 0
0, 0
0, 0
0, 0
0, 0
0, 0
0, 0
0, 0
0, 0
0, 0
0, 0
0, 0
0, 0
0, 0
0, 0
0, 0
0, 0
0, 0
0, 0
0, 0
0, 0
0, 0
0, 0
0, 0
0, 0
0, 0
0, 0
0, 0
0, 0
0, 0
0, 0
0, 0
0, 0
0, 0
0, 0
0, 0
0, 0
0, 0
0, 0
0, 0
0, 0
0, 0
0, 0
0, 0
0, 0
0, 0
0, 0
0, 0
0, 0
0, 0
0, 0
0, 0
0, 0
0, 0
0, 0
0, 0
0, 0
0, 0
0, 0
0, 0
0, 0
0, 0
0, 0
0, 0
0, 0
0, 0
0, 0
0, 0
0, 0
0, 0
0, 0
0, 0
0, 0
0, 0
0, 0
0, 0
0, 0
0, 0
0, 0
0, 0
0, 0
0, 0
0, 0
0, 0
0, 0
0, 0
0, 0
0, 0
0, 0
0, 0
0, 0
0, 0
0, 0
0, 0
0, 0
0, 0
0, 0
0, 0
0, 0
0, 0
0, 0
0, 0
0, 0
0, 0
0, 0
0, 0
0, 0
0, 0
0, 0
0, 0
0, 0
0, 0
0, 0
0, 0
0, 0
0, 0
0, 0
0, 0
0, 0
0, 0
0, 0
0, 0
0, 0
0, 0
0, 0
0, 0
0, 0
0, 0
0, 0
0, 0
0, 0
0, 0
0, 0
0, 0
0, 0
0, 0
0, 0
0, 0
0, 0
0, 0
0, 0
0, 0
0, 0
0, 0
0, 0
0, 0
0, 0
0, 0
0, 0
0, 0
0, 0
0, 0
0, 0
0, 0
0, 0
0, 0
0, 0
0, 0
0, 0
0, 0
0, 0
0, 0
0, 0
0, 0
0, 0
0, 0
0, 0
0, 0
0, 0
0, 0
0, 0
0, 0
0, 0
0, 0
0, 0
0, 0
0, 0
0, 0
0, 0
0, 0
0, 0
0, 0
0, 0
0, 0
0, 0
0, 0
0, 0
0, 0
0, 0
0, 0
0, 0
0, 0
0, 0
0, 0
0, 0
0, 0
0, 0
0, 0
0, 0
0, 0
0, 0
0, 0
0, 0
0, 0
0, 0
0, 0
0, 0
0, 0
0, 0
0, 0
#ENDOFDATA     end of spectrum data