File: host_upload/06-09-2024/ps_0852/dump3/ps__0852shot_2181.msa
#FORMAT      : EMSA/MAS spectral data file
#VERSION     : TC202v2.0 PIXL
#TITLE       : N/A
#DATE        :       Date in the format DD-MMM-YYYY, for example 07-JUL-2010
#TIME        :             The time of day at which the spectrum was recorded, in 24-hour format
#OWNER       : PIXL Flight Model       (PIXL will use this to indicate which instrument took the data.)
#NPOINTS     : 4096     Number of data points in the spectrum (This can be zero for configuration only files)
#NCOLUMNS    : 2     Number of data columns in the spectrum (This can be zero for configuration only files)
#XUNITS      : eV
#YUNITS      : COUNTS
#DATATYPE    : YY
#XPERCHAN    : 7.862, 7.881   eV per channel (separate by commas if more than one detector)
#OFFSET      : 18.5, -22.4         eV of first channel  (separate by commas if more than one detector
#SIGNALTYPE  : XRF
#YP_TEMP     : 2.492
#LIVETIME    : 8.5368, 8.56375   seconds (separate by commas if more than one detector)
#REALTIME    : 10, 10.0   seconds (separate by commas if more than one detector)
#SPECTRUM    : start of spectrum data
0, 0
0, 0
0, 0
0, 0
0, 0
0, 0
0, 0
0, 0
0, 0
0, 0
0, 0
0, 0
0, 0
0, 0
0, 0
0, 0
0, 0
0, 0
0, 0
0, 0
0, 0
0, 0
0, 0
0, 0
0, 0
0, 0
0, 0
0, 0
0, 0
0, 0
0, 0
0, 0
1, 0
0, 0
0, 0
0, 0
0, 0
2, 1
0, 0
1, 0
2, 2
0, 1
3, 0
2, 0
0, 0
0, 0
5, 1
0, 3
6, 6
15, 15
25, 21
32, 35
67, 53
79, 67
72, 74
105, 63
72, 56
53, 44
22, 22
17, 13
3, 6
4, 4
5, 2
5, 5
2, 5
5, 3
6, 2
9, 9
27, 21
48, 48
113, 78
181, 193
284, 288
392, 360
448, 430
451, 425
410, 396
337, 302
236, 227
140, 132
94, 58
37, 33
21, 12
12, 7
7, 3
5, 2
1, 3
2, 3
2, 0
0, 1
2, 0
1, 2
1, 1
1, 2
2, 1
4, 4
2, 0
0, 3
4, 1
3, 4
0, 2
4, 3
2, 2
3, 3
4, 5
3, 3
4, 4
6, 9
9, 6
8, 13
18, 18
31, 30
34, 39
43, 39
43, 51
41, 60
39, 60
35, 45
28, 36
24, 31
25, 16
19, 24
27, 13
12, 19
8, 11
17, 19
8, 13
3, 10
12, 6
5, 2
8, 7
3, 7
2, 4
4, 6
3, 9
11, 8
7, 1
9, 5
7, 7
7, 2
10, 7
5, 7
3, 1
4, 3
1, 3
3, 2
3, 1
2, 1
2, 3
3, 4
3, 2
7, 6
9, 9
11, 8
21, 25
22, 36
29, 29
29, 34
29, 34
21, 20
24, 25
18, 20
15, 16
7, 20
7, 14
4, 10
3, 29
2, 24
5, 27
6, 20
7, 17
4, 11
7, 18
7, 10
3, 11
3, 10
5, 6
5, 7
7, 3
4, 7
2, 8
2, 7
4, 5
4, 8
6, 6
1, 5
0, 6
3, 9
7, 9
8, 9
12, 11
10, 9
7, 9
18, 18
19, 14
15, 9
13, 16
19, 12
26, 15
34, 21
32, 23
37, 23
56, 29
64, 56
78, 61
86, 48
102, 51
96, 65
80, 58
55, 40
59, 29
45, 16
27, 10
24, 7
13, 11
14, 4
12, 2
8, 3
9, 7
4, 4
10, 10
9, 9
9, 5
13, 8
13, 7
7, 8
17, 10
27, 13
22, 21
24, 19
22, 6
31, 14
21, 11
20, 15
15, 11
15, 10
12, 7
9, 7
5, 11
11, 5
8, 6
6, 11
9, 14
13, 8
13, 23
19, 34
26, 31
32, 58
38, 67
41, 62
57, 77
64, 61
59, 52
72, 46
57, 40
31, 29
31, 23
18, 16
19, 13
32, 16
27, 23
34, 31
52, 51
90, 101
156, 204
309, 345
507, 573
813, 892
1159, 1236
1584, 1648
2010, 2016
2310, 2220
2410, 2228
2433, 2099
2154, 1872
1750, 1442
1378, 988
1008, 720
659, 393
370, 258
214, 149
102, 85
64, 40
41, 13
23, 17
15, 15
20, 14
19, 12
29, 8
42, 20
27, 25
38, 45
47, 51
72, 70
123, 114
142, 159
224, 212
265, 262
314, 310
336, 295
373, 301
359, 288
309, 284
254, 198
163, 138
139, 90
96, 81
65, 43
36, 9
9, 18
7, 8
12, 6
10, 8
10, 5
9, 1
15, 14
12, 13
15, 10
12, 14
16, 13
13, 12
14, 7
3, 4
6, 4
5, 6
8, 7
5, 1
5, 4
4, 4
8, 5
8, 7
2, 15
8, 10
5, 14
3, 23
11, 22
9, 16
8, 13
11, 18
14, 8
11, 13
17, 12
23, 15
23, 7
24, 10
17, 10
14, 7
14, 10
14, 4
10, 7
7, 4
14, 4
9, 8
4, 2
6, 6
9, 5
3, 5
1, 1
5, 3
3, 3
4, 3
7, 1
4, 7
3, 5
4, 7
3, 5
5, 5
2, 6
4, 5
4, 5
8, 6
5, 2
4, 1
6, 2
3, 2
2, 0
6, 7
3, 3
4, 1
5, 1
4, 4
5, 6
7, 1
2, 5
7, 1
3, 6
1, 1
8, 2
4, 3
3, 4
5, 2
2, 6
3, 3
1, 3
1, 1
3, 5
3, 5
2, 3
2, 5
0, 3
4, 5
7, 2
2, 5
2, 4
4, 4
5, 3
3, 3
6, 3
5, 0
7, 2
7, 3
5, 6
6, 3
3, 4
6, 3
7, 1
4, 0
4, 2
1, 2
1, 1
7, 1
1, 2
2, 3
3, 1
4, 2
1, 6
4, 3
2, 3
1, 0
1, 1
1, 5
2, 5
2, 5
4, 4
3, 4
3, 7
8, 7
10, 8
6, 4
9, 6
9, 4
8, 8
10, 9
14, 3
11, 7
8, 4
3, 2
9, 3
11, 3
9, 5
0, 9
3, 5
2, 1
3, 1
4, 1
3, 1
1, 3
3, 2
5, 1
1, 2
3, 2
3, 1
3, 1
2, 4
1, 2
1, 3
3, 4
6, 6
0, 3
1, 4
3, 1
1, 3
1, 2
0, 3
4, 1
2, 1
2, 0
3, 6
3, 2
3, 3
4, 1
3, 6
3, 2
5, 2
2, 1
5, 2
4, 1
2, 3
4, 2
3, 0
1, 2
2, 1
3, 2
0, 0
2, 6
4, 1
2, 4
1, 0
1, 2
3, 2
0, 5
1, 2
1, 2
2, 0
2, 3
2, 3
0, 1
2, 3
4, 0
2, 3
3, 0
3, 3
3, 1
1, 0
4, 0
4, 2
2, 0
2, 2
3, 0
0, 2
2, 3
3, 2
5, 3
1, 2
1, 0
3, 0
1, 0
3, 4
3, 1
3, 0
4, 0
2, 3
1, 4
1, 1
2, 2
3, 4
3, 8
2, 1
2, 3
5, 2
3, 4
2, 3
1, 4
4, 5
2, 5
4, 0
6, 1
4, 3
4, 1
4, 0
3, 1
2, 0
2, 0
7, 4
4, 2
3, 1
1, 1
3, 0
4, 1
1, 2
1, 1
1, 2
2, 0
1, 4
0, 2
1, 5
2, 2
0, 4
4, 0
3, 2
1, 1
1, 3
2, 0
3, 2
1, 1
1, 1
2, 2
1, 0
2, 2
2, 0
2, 2
0, 3
0, 0
0, 2
0, 0
0, 1
1, 1
0, 1
2, 0
1, 1
1, 0
1, 2
2, 0
2, 0
2, 2
1, 0
4, 0
1, 0
1, 3
2, 2
1, 1
0, 0
1, 0
2, 0
4, 2
0, 0
0, 1
0, 0
2, 2
3, 1
0, 1
1, 2
0, 1
2, 1
1, 3
2, 2
0, 2
2, 1
0, 1
1, 0
1, 0
1, 0
2, 1
1, 0
2, 1
1, 0
0, 0
1, 0
0, 1
0, 0
1, 0
1, 2
1, 0
0, 0
1, 1
1, 1
1, 0
1, 1
0, 1
1, 1
2, 1
1, 0
0, 1
3, 0
0, 0
0, 1
0, 1
2, 0
0, 0
2, 0
0, 0
1, 0
0, 0
1, 3
0, 1
0, 0
1, 1
1, 1
0, 1
0, 2
1, 1
0, 0
2, 0
0, 1
0, 0
2, 1
0, 0
1, 1
0, 0
0, 1
1, 1
0, 2
0, 2
2, 0
2, 2
0, 0
1, 0
0, 1
1, 0
0, 0
0, 0
0, 1
1, 0
1, 0
0, 0
0, 0
0, 0
0, 1
0, 0
0, 1
0, 2
0, 0
0, 0
0, 0
1, 0
1, 0
0, 0
1, 1
0, 0
0, 0
0, 1
1, 0
0, 0
0, 0
0, 0
1, 0
0, 0
1, 1
0, 2
0, 1
0, 0
0, 0
0, 0
0, 0
0, 1
0, 0
0, 0
0, 1
0, 1
0, 1
0, 0
0, 0
0, 1
0, 0
1, 0
0, 0
0, 0
1, 0
1, 2
0, 0
2, 1
2, 0
1, 0
0, 1
0, 1
0, 1
0, 0
0, 0
0, 0
0, 0
0, 0
0, 0
0, 1
2, 0
1, 0
0, 0
0, 0
0, 0
1, 1
0, 0
0, 0
0, 0
0, 1
1, 0
0, 1
0, 0
0, 1
0, 0
0, 0
0, 0
0, 1
0, 0
1, 0
0, 1
0, 0
0, 0
1, 0
0, 0
1, 0
0, 0
0, 0
1, 1
0, 0
2, 1
0, 0
0, 0
1, 0
0, 1
1, 0
0, 1
0, 1
0, 1
1, 0
0, 0
1, 2
1, 0
0, 2
0, 0
0, 0
0, 0
0, 0
0, 0
0, 0
0, 0
0, 1
1, 0
0, 0
0, 0
0, 0
1, 1
1, 0
0, 0
0, 0
0, 0
0, 0
0, 0
0, 0
1, 0
1, 0
0, 0
0, 0
0, 0
0, 0
0, 0
0, 0
0, 0
0, 1
1, 0
0, 0
0, 0
0, 0
0, 0
1, 0
1, 0
0, 0
0, 0
0, 1
0, 0
0, 0
0, 0
0, 0
1, 0
0, 0
0, 0
0, 1
0, 1
0, 0
0, 0
0, 0
0, 1
1, 0
0, 0
0, 0
0, 0
0, 0
0, 0
1, 0
0, 0
0, 0
0, 1
0, 0
0, 0
0, 0
0, 0
0, 0
0, 0
1, 0
0, 0
0, 0
0, 0
0, 0
0, 0
0, 0
1, 1
1, 0
0, 0
1, 1
0, 0
0, 0
0, 0
0, 0
1, 0
0, 0
0, 0
0, 0
0, 0
0, 0
0, 1
0, 0
0, 0
0, 0
0, 0
0, 2
0, 0
0, 0
0, 0
0, 0
2, 1
0, 0
0, 0
0, 0
0, 0
0, 0
0, 0
0, 0
0, 0
0, 0
0, 0
0, 0
0, 0
0, 0
0, 0
0, 0
0, 0
0, 0
0, 0
0, 0
1, 0
0, 0
0, 0
0, 0
0, 0
0, 0
0, 0
0, 1
0, 0
0, 0
0, 0
0, 0
1, 0
0, 0
0, 0
0, 0
0, 0
0, 0
0, 0
0, 0
0, 0
0, 0
0, 0
0, 0
0, 0
0, 0
0, 0
0, 0
0, 0
0, 0
0, 0
0, 0
0, 0
0, 0
0, 0
0, 0
1, 0
0, 0
0, 0
0, 0
0, 0
0, 0
0, 0
0, 0
0, 0
0, 0
0, 0
0, 0
0, 0
0, 0
0, 0
0, 0
0, 0
0, 0
0, 0
0, 0
0, 0
0, 0
0, 0
0, 0
0, 0
0, 0
0, 1
0, 0
0, 0
0, 0
0, 0
0, 0
0, 0
0, 0
0, 0
0, 0
0, 0
0, 0
0, 0
0, 0
0, 0
0, 0
0, 0
0, 0
0, 0
0, 0
0, 0
0, 0
0, 0
0, 0
0, 0
0, 0
0, 0
0, 0
0, 0
0, 0
0, 0
0, 0
0, 0
0, 0
0, 0
0, 0
0, 0
0, 0
0, 0
0, 0
0, 0
0, 0
1, 0
0, 0
0, 0
0, 0
0, 0
0, 0
0, 0
0, 0
0, 0
0, 0
0, 0
0, 0
0, 0
0, 0
0, 0
0, 0
0, 0
0, 0
0, 0
0, 0
1, 0
0, 0
0, 0
0, 0
0, 0
0, 0
0, 0
0, 0
0, 0
0, 0
0, 0
0, 0
0, 0
0, 0
0, 0
0, 0
0, 0
0, 0
0, 0
0, 0
0, 0
0, 0
0, 0
0, 0
0, 0
0, 0
0, 0
0, 0
0, 0
0, 0
0, 0
0, 0
0, 0
0, 0
0, 0
0, 0
0, 0
0, 0
0, 0
0, 0
0, 0
0, 0
0, 0
0, 0
0, 0
0, 0
0, 0
0, 0
0, 0
0, 0
0, 0
0, 0
0, 0
0, 0
0, 0
0, 0
0, 0
0, 0
0, 0
0, 0
0, 0
0, 0
0, 0
0, 0
0, 0
0, 0
0, 0
0, 0
0, 0
0, 0
0, 0
0, 0
0, 0
0, 0
0, 0
0, 0
1, 0
0, 0
0, 0
0, 0
0, 0
0, 0
0, 0
0, 0
0, 0
0, 0
0, 0
0, 0
0, 0
0, 0
0, 0
0, 0
0, 0
0, 0
0, 0
0, 0
0, 0
0, 0
0, 0
0, 0
0, 0
0, 0
0, 0
0, 0
0, 0
0, 0
0, 0
0, 0
0, 0
0, 0
0, 0
0, 0
0, 0
0, 0
0, 0
0, 0
0, 0
0, 0
0, 0
0, 0
0, 0
0, 0
0, 0
0, 0
0, 0
0, 0
0, 0
0, 0
0, 0
0, 0
0, 0
0, 0
0, 0
0, 0
0, 0
0, 0
0, 0
0, 0
0, 0
0, 0
0, 0
0, 0
0, 0
0, 0
0, 0
0, 0
0, 0
0, 0
0, 0
0, 0
0, 0
0, 0
0, 0
0, 0
0, 0
0, 0
0, 0
0, 0
0, 0
0, 0
0, 0
0, 0
0, 0
0, 0
0, 0
0, 0
0, 0
0, 0
0, 0
0, 0
0, 0
0, 0
0, 0
0, 0
0, 0
0, 0
0, 0
0, 0
0, 0
0, 0
0, 0
0, 0
0, 0
0, 0
0, 0
0, 0
0, 0
0, 0
0, 0
0, 0
0, 0
0, 0
0, 0
0, 0
0, 0
0, 0
0, 0
0, 0
0, 0
0, 0
0, 0
0, 0
0, 0
0, 0
0, 0
0, 0
0, 0
0, 0
0, 0
0, 0
0, 0
0, 0
0, 0
0, 0
0, 0
0, 0
0, 0
0, 0
0, 0
0, 0
0, 0
0, 0
0, 0
0, 0
0, 0
0, 0
0, 0
0, 0
0, 0
0, 0
0, 0
0, 0
0, 0
0, 0
0, 0
0, 0
0, 0
0, 0
0, 0
0, 0
0, 0
0, 0
0, 0
0, 0
0, 0
0, 0
0, 0
0, 0
0, 0
0, 0
0, 0
0, 0
0, 0
0, 0
0, 0
0, 0
0, 0
0, 0
0, 0
0, 0
0, 0
0, 0
0, 0
0, 0
0, 0
0, 0
0, 0
0, 0
0, 0
0, 0
0, 0
0, 0
0, 0
0, 0
0, 0
0, 0
0, 0
0, 0
0, 0
0, 0
0, 0
0, 0
0, 0
0, 0
0, 0
0, 0
0, 0
0, 0
0, 0
0, 0
0, 0
0, 0
0, 0
0, 0
0, 0
0, 0
0, 0
0, 0
0, 0
0, 0
0, 0
0, 0
0, 0
0, 0
0, 0
0, 0
0, 0
0, 0
0, 0
0, 0
0, 0
0, 0
0, 0
0, 0
0, 0
0, 0
0, 0
0, 0
0, 0
0, 0
0, 0
0, 0
0, 0
0, 0
0, 0
0, 0
0, 0
0, 0
0, 0
0, 0
0, 0
0, 0
0, 0
0, 0
0, 0
#ENDOFDATA     end of spectrum data