File: host_upload/06-09-2024/ps_0852/dump3/ps__0852shot_2262.msa
#FORMAT      : EMSA/MAS spectral data file
#VERSION     : TC202v2.0 PIXL
#TITLE       : N/A
#DATE        :       Date in the format DD-MMM-YYYY, for example 07-JUL-2010
#TIME        :             The time of day at which the spectrum was recorded, in 24-hour format
#OWNER       : PIXL Flight Model       (PIXL will use this to indicate which instrument took the data.)
#NPOINTS     : 4096     Number of data points in the spectrum (This can be zero for configuration only files)
#NCOLUMNS    : 2     Number of data columns in the spectrum (This can be zero for configuration only files)
#XUNITS      : eV
#YUNITS      : COUNTS
#DATATYPE    : YY
#XPERCHAN    : 7.862, 7.881   eV per channel (separate by commas if more than one detector)
#OFFSET      : 18.5, -22.4         eV of first channel  (separate by commas if more than one detector
#SIGNALTYPE  : XRF
#YP_TEMP     : 2.428
#LIVETIME    : 8.56487, 8.56864   seconds (separate by commas if more than one detector)
#REALTIME    : 10, 10.0   seconds (separate by commas if more than one detector)
#SPECTRUM    : start of spectrum data
0, 0
0, 0
0, 0
0, 0
0, 0
0, 0
0, 0
0, 0
0, 0
0, 0
0, 0
0, 0
0, 0
0, 0
0, 0
0, 0
0, 0
0, 0
0, 0
0, 0
0, 0
0, 0
0, 0
0, 0
0, 0
0, 0
0, 0
0, 0
0, 0
0, 0
0, 0
0, 0
0, 1
0, 0
1, 0
0, 1
1, 0
1, 0
1, 0
1, 2
2, 1
4, 1
0, 1
4, 1
5, 0
4, 3
3, 4
1, 6
4, 7
13, 12
21, 24
29, 46
50, 57
62, 88
63, 94
68, 83
50, 63
48, 40
23, 31
27, 18
6, 11
7, 2
2, 4
4, 5
5, 5
4, 5
7, 5
16, 7
12, 25
31, 57
64, 116
183, 200
240, 328
311, 407
374, 486
295, 445
315, 456
254, 323
184, 224
121, 150
68, 75
33, 39
25, 19
4, 10
4, 0
3, 3
1, 2
1, 0
3, 0
0, 1
5, 1
1, 1
2, 0
1, 2
1, 0
0, 1
2, 4
5, 5
1, 1
1, 2
3, 3
1, 1
2, 3
5, 2
0, 4
5, 6
8, 2
5, 8
17, 5
29, 12
63, 16
124, 25
195, 35
257, 51
314, 49
313, 54
298, 52
277, 35
234, 31
159, 35
106, 29
61, 20
43, 17
34, 25
23, 16
29, 9
19, 13
9, 9
14, 6
8, 14
4, 5
4, 3
0, 8
2, 3
2, 2
1, 1
0, 1
3, 0
4, 4
1, 0
2, 2
0, 2
2, 2
0, 5
1, 2
1, 0
1, 5
1, 3
1, 1
3, 1
2, 1
2, 3
4, 5
10, 9
3, 8
6, 19
10, 17
11, 15
16, 19
8, 15
8, 14
7, 6
7, 4
4, 4
0, 3
2, 6
3, 5
6, 2
3, 4
6, 5
4, 3
8, 7
16, 6
25, 8
24, 5
26, 1
33, 0
34, 6
40, 1
21, 4
28, 7
19, 4
6, 4
2, 3
8, 2
7, 5
4, 5
11, 8
7, 6
5, 13
4, 12
11, 14
13, 8
13, 29
12, 17
13, 18
17, 19
14, 37
13, 46
11, 52
11, 65
8, 86
11, 88
3, 87
7, 88
2, 63
7, 73
4, 54
10, 34
9, 25
3, 22
14, 9
9, 13
14, 12
8, 5
9, 17
11, 14
5, 10
9, 8
8, 10
6, 9
5, 11
4, 10
6, 4
6, 13
3, 7
10, 11
7, 10
8, 9
9, 12
8, 13
16, 15
19, 12
34, 10
28, 10
27, 6
31, 11
49, 9
39, 7
57, 7
24, 3
33, 12
17, 9
14, 11
26, 14
19, 17
23, 35
29, 45
60, 60
47, 60
63, 71
56, 78
53, 63
46, 46
52, 44
34, 32
16, 34
24, 25
12, 27
18, 30
17, 44
23, 50
49, 94
68, 132
124, 217
239, 396
394, 693
692, 1007
1006, 1414
1397, 1913
1718, 2372
1983, 2677
2237, 2645
2028, 2543
1889, 2156
1626, 1782
1140, 1294
753, 864
536, 535
284, 353
176, 222
77, 113
44, 65
25, 36
30, 36
26, 21
19, 19
19, 22
36, 31
38, 23
32, 33
33, 49
61, 64
73, 101
102, 118
154, 199
226, 244
237, 304
293, 347
305, 393
352, 411
310, 347
295, 271
231, 219
168, 185
113, 113
83, 82
51, 51
21, 34
17, 18
10, 14
6, 7
4, 10
12, 11
6, 9
10, 8
11, 15
14, 11
7, 22
13, 10
10, 14
9, 16
9, 9
3, 6
9, 8
5, 3
3, 5
7, 4
4, 3
4, 4
1, 5
7, 4
4, 8
4, 9
3, 3
2, 11
3, 2
7, 8
6, 5
7, 11
1, 6
3, 8
6, 7
12, 5
7, 3
12, 5
23, 5
27, 9
30, 7
38, 9
47, 4
44, 4
30, 4
41, 7
34, 4
23, 7
19, 5
19, 8
12, 7
13, 6
9, 5
11, 9
4, 6
5, 7
12, 6
3, 4
1, 6
7, 10
7, 8
5, 6
3, 2
3, 5
2, 5
4, 5
1, 6
3, 5
3, 2
4, 3
5, 4
2, 4
1, 6
3, 1
1, 6
4, 0
1, 3
3, 3
1, 3
2, 5
3, 4
1, 1
4, 4
1, 6
3, 5
4, 5
5, 3
0, 0
3, 6
1, 3
1, 5
0, 2
1, 6
3, 9
4, 7
2, 5
3, 9
2, 4
4, 5
2, 10
5, 7
4, 8
4, 4
3, 5
2, 7
3, 2
3, 8
5, 2
6, 3
3, 5
3, 5
3, 5
5, 2
5, 6
1, 4
1, 6
6, 7
3, 4
2, 2
3, 5
1, 3
1, 1
3, 8
2, 4
2, 5
5, 6
2, 3
1, 9
2, 6
2, 7
3, 3
1, 4
1, 11
3, 4
6, 4
3, 3
4, 4
1, 1
2, 11
3, 5
3, 2
1, 3
2, 3
2, 3
2, 4
5, 1
4, 4
3, 1
2, 2
2, 2
2, 3
3, 3
1, 1
2, 6
6, 7
2, 2
3, 4
6, 6
2, 2
4, 3
3, 2
4, 1
5, 3
10, 2
4, 1
5, 5
4, 4
2, 1
9, 5
1, 2
5, 6
3, 3
2, 1
1, 1
3, 0
1, 4
3, 1
4, 1
3, 0
1, 1
3, 4
2, 2
3, 1
1, 1
2, 5
2, 2
1, 0
2, 1
1, 4
2, 2
3, 2
3, 2
1, 1
3, 1
2, 1
2, 2
4, 4
1, 0
0, 6
0, 2
0, 1
3, 2
1, 3
0, 3
4, 2
1, 1
2, 2
2, 1
1, 1
2, 4
1, 1
1, 2
3, 3
2, 1
1, 1
1, 1
1, 2
0, 2
2, 5
2, 2
1, 0
3, 5
3, 0
2, 2
1, 1
0, 4
2, 1
0, 3
7, 1
4, 3
4, 3
4, 3
5, 7
6, 1
3, 7
5, 3
3, 2
6, 6
4, 3
5, 5
2, 7
2, 1
0, 4
3, 3
2, 5
2, 3
1, 3
0, 1
0, 3
0, 2
3, 1
1, 3
0, 4
0, 2
0, 2
2, 1
2, 4
2, 1
1, 2
4, 2
1, 1
1, 4
1, 1
2, 2
3, 2
0, 3
1, 4
2, 2
2, 1
0, 1
1, 2
2, 2
0, 0
2, 1
1, 1
1, 0
0, 0
0, 1
1, 3
1, 2
0, 1
0, 0
2, 1
0, 1
1, 2
0, 1
0, 0
0, 1
2, 1
1, 2
2, 1
0, 1
2, 2
1, 1
1, 0
0, 0
1, 0
1, 1
1, 0
1, 2
0, 1
0, 1
0, 4
2, 1
0, 2
0, 1
3, 0
0, 1
1, 1
2, 0
1, 1
0, 0
2, 1
1, 2
0, 1
1, 0
1, 0
0, 2
2, 1
0, 0
1, 0
1, 0
0, 0
0, 0
1, 1
0, 0
1, 0
0, 2
1, 1
1, 0
1, 0
1, 1
0, 3
1, 1
2, 1
1, 0
0, 0
4, 0
0, 1
0, 0
1, 0
0, 0
0, 0
0, 1
1, 0
1, 0
0, 0
0, 1
1, 0
0, 1
0, 0
0, 2
0, 0
0, 0
1, 1
1, 2
2, 1
0, 1
0, 0
0, 0
1, 1
1, 0
0, 1
0, 1
2, 3
1, 0
0, 1
0, 0
0, 1
0, 0
1, 1
2, 0
1, 0
0, 1
0, 0
0, 0
1, 0
0, 0
0, 0
0, 0
1, 0
0, 0
0, 1
2, 1
2, 0
2, 1
0, 0
0, 0
0, 0
1, 0
1, 0
0, 0
1, 1
0, 1
0, 0
0, 0
0, 1
0, 0
0, 0
0, 0
1, 0
1, 0
1, 0
1, 0
0, 2
0, 0
0, 0
0, 0
0, 0
0, 0
0, 0
0, 0
0, 1
1, 0
1, 0
0, 1
0, 1
0, 0
1, 0
0, 0
0, 2
1, 0
0, 0
0, 0
1, 0
0, 0
1, 0
0, 0
0, 0
0, 0
0, 1
0, 0
0, 0
1, 0
0, 1
0, 0
0, 0
3, 0
1, 0
0, 0
1, 1
0, 2
0, 0
0, 0
1, 0
0, 0
0, 0
1, 0
0, 0
0, 0
0, 0
0, 0
1, 1
1, 0
0, 0
1, 0
0, 0
0, 0
0, 0
0, 0
0, 0
0, 0
0, 0
1, 0
0, 0
0, 0
0, 0
0, 0
0, 0
0, 0
0, 0
0, 0
0, 0
1, 0
0, 0
0, 0
1, 1
0, 0
0, 0
0, 0
0, 1
0, 0
0, 0
0, 0
0, 0
0, 1
1, 0
0, 0
1, 0
0, 0
1, 0
0, 0
0, 0
0, 0
0, 0
0, 0
0, 1
0, 0
1, 0
0, 0
0, 0
0, 0
0, 0
0, 0
0, 1
0, 1
0, 0
1, 0
0, 0
0, 0
0, 0
0, 1
0, 0
0, 0
0, 0
1, 0
0, 0
0, 1
1, 0
0, 0
0, 0
0, 2
1, 0
0, 0
0, 0
0, 0
0, 0
0, 0
0, 0
0, 0
0, 0
1, 0
0, 0
0, 0
0, 0
0, 0
0, 0
0, 0
0, 0
0, 0
0, 0
2, 1
2, 0
0, 0
1, 0
0, 0
0, 0
0, 1
0, 0
1, 0
0, 1
0, 0
0, 0
0, 1
0, 0
1, 0
0, 0
0, 1
0, 0
0, 0
0, 0
0, 1
0, 0
0, 0
0, 0
0, 0
0, 0
0, 0
0, 0
0, 0
0, 0
0, 0
0, 0
0, 0
0, 0
1, 0
0, 0
2, 0
0, 0
0, 0
0, 0
0, 0
0, 0
0, 0
0, 0
0, 0
0, 0
0, 0
0, 0
0, 0
0, 0
0, 1
1, 0
0, 1
0, 0
0, 0
0, 1
1, 0
0, 0
0, 0
0, 0
0, 0
0, 0
0, 0
0, 0
0, 0
0, 0
0, 0
0, 0
0, 0
0, 0
0, 0
0, 0
0, 1
0, 0
0, 0
0, 0
0, 0
0, 0
0, 0
0, 0
0, 0
0, 0
0, 0
1, 0
0, 0
0, 0
0, 0
0, 0
0, 0
0, 0
0, 0
0, 0
0, 0
0, 0
0, 0
0, 1
0, 0
0, 0
0, 0
0, 0
0, 0
0, 0
0, 0
0, 0
0, 0
0, 0
0, 0
0, 0
0, 0
0, 0
0, 1
0, 0
0, 0
0, 0
0, 0
0, 0
0, 0
0, 0
0, 0
0, 0
0, 0
1, 0
0, 0
0, 0
0, 0
0, 0
0, 0
0, 0
0, 0
0, 0
0, 0
0, 0
0, 0
0, 0
0, 0
0, 0
0, 0
0, 0
0, 0
0, 0
0, 0
0, 0
0, 0
0, 0
0, 0
0, 0
0, 0
0, 0
0, 0
0, 0
0, 0
0, 0
0, 0
0, 0
0, 0
0, 0
0, 0
0, 0
0, 0
0, 0
0, 0
0, 0
0, 0
0, 0
0, 0
0, 0
0, 0
0, 0
0, 0
0, 0
0, 0
0, 0
0, 0
0, 0
0, 0
0, 0
0, 0
0, 0
0, 0
0, 0
0, 0
0, 0
0, 0
0, 0
0, 0
0, 0
0, 0
0, 0
0, 0
0, 0
0, 0
0, 0
0, 0
0, 0
0, 0
0, 0
0, 0
0, 0
0, 0
0, 0
0, 0
0, 0
0, 0
0, 0
0, 0
0, 0
0, 0
0, 0
0, 0
0, 0
0, 0
0, 0
0, 0
0, 0
0, 0
0, 0
0, 0
0, 0
0, 0
0, 0
0, 0
0, 0
0, 0
0, 0
0, 0
0, 0
0, 0
0, 0
0, 0
0, 0
0, 0
0, 0
0, 0
0, 0
0, 0
0, 0
0, 0
0, 0
0, 0
0, 0
0, 0
0, 0
0, 0
0, 0
0, 0
0, 0
0, 0
0, 0
0, 0
0, 0
0, 0
0, 0
0, 0
0, 0
0, 0
0, 0
0, 0
0, 0
0, 0
0, 0
0, 0
0, 0
0, 0
0, 0
0, 0
0, 0
0, 0
0, 0
0, 0
0, 0
0, 0
0, 0
0, 0
0, 0
0, 0
0, 0
0, 0
0, 0
0, 0
0, 0
0, 0
0, 0
0, 0
0, 0
0, 0
0, 0
0, 0
0, 0
0, 0
0, 0
0, 0
0, 0
0, 0
0, 0
0, 0
0, 0
0, 0
0, 0
0, 0
0, 0
0, 0
0, 0
0, 0
0, 0
0, 0
0, 0
0, 0
0, 0
0, 0
0, 0
0, 0
0, 0
0, 0
0, 0
0, 0
0, 0
0, 0
0, 0
0, 0
0, 0
0, 0
0, 0
0, 0
0, 0
0, 0
0, 0
0, 0
0, 0
0, 0
0, 0
0, 0
0, 0
0, 0
0, 0
0, 0
0, 0
0, 0
0, 0
0, 0
0, 0
0, 0
0, 0
0, 0
0, 0
0, 0
0, 0
0, 0
0, 0
0, 0
0, 0
0, 0
0, 0
0, 0
0, 0
0, 0
0, 0
0, 0
0, 0
0, 0
0, 0
0, 0
0, 0
0, 0
0, 0
0, 0
0, 0
0, 0
0, 0
0, 0
0, 0
0, 0
0, 0
0, 0
0, 0
0, 0
0, 0
0, 0
0, 0
0, 0
0, 0
0, 0
0, 0
0, 0
0, 0
0, 0
0, 0
0, 0
0, 0
0, 0
0, 0
0, 0
0, 0
0, 0
0, 0
0, 0
0, 0
0, 0
0, 0
0, 0
0, 0
0, 0
0, 0
0, 0
0, 0
0, 0
0, 0
0, 0
0, 0
0, 0
0, 0
0, 0
0, 0
0, 0
0, 0
0, 0
0, 0
0, 0
0, 0
0, 0
0, 0
0, 0
0, 0
0, 0
0, 0
0, 0
0, 0
0, 0
0, 0
0, 0
0, 0
0, 0
0, 0
0, 0
0, 0
0, 0
0, 0
0, 0
0, 0
0, 0
0, 0
0, 0
0, 0
0, 0
0, 0
0, 0
0, 0
0, 0
0, 0
0, 0
0, 0
0, 0
0, 0
0, 0
0, 0
0, 0
0, 0
0, 0
0, 0
0, 0
0, 0
0, 0
0, 0
0, 0
0, 0
0, 0
0, 0
0, 0
0, 0
0, 0
0, 0
0, 0
0, 0
0, 0
0, 0
0, 0
0, 0
0, 0
0, 0
0, 0
0, 0
0, 0
0, 0
0, 0
0, 0
0, 0
0, 0
0, 0
0, 0
0, 0
0, 0
0, 0
0, 0
0, 0
0, 0
0, 0
0, 0
0, 0
0, 0
0, 0
0, 0
0, 0
0, 0
0, 0
0, 0
0, 0
0, 0
0, 0
0, 0
0, 0
0, 0
0, 0
0, 0
0, 0
0, 0
0, 0
0, 0
0, 0
#ENDOFDATA     end of spectrum data