File: host_upload/06-09-2024/ps_0852/dump3/ps__0852shot_2313.msa
#FORMAT      : EMSA/MAS spectral data file
#VERSION     : TC202v2.0 PIXL
#TITLE       : N/A
#DATE        :       Date in the format DD-MMM-YYYY, for example 07-JUL-2010
#TIME        :             The time of day at which the spectrum was recorded, in 24-hour format
#OWNER       : PIXL Flight Model       (PIXL will use this to indicate which instrument took the data.)
#NPOINTS     : 4096     Number of data points in the spectrum (This can be zero for configuration only files)
#NCOLUMNS    : 2     Number of data columns in the spectrum (This can be zero for configuration only files)
#XUNITS      : eV
#YUNITS      : COUNTS
#DATATYPE    : YY
#XPERCHAN    : 7.862, 7.881   eV per channel (separate by commas if more than one detector)
#OFFSET      : 18.5, -22.4         eV of first channel  (separate by commas if more than one detector
#SIGNALTYPE  : XRF
#YP_TEMP     : 2.139
#LIVETIME    : 8.54109, 8.35914   seconds (separate by commas if more than one detector)
#REALTIME    : 10, 10.0   seconds (separate by commas if more than one detector)
#SPECTRUM    : start of spectrum data
0, 0
0, 0
0, 0
0, 0
0, 0
0, 0
0, 0
0, 0
0, 0
0, 0
0, 0
0, 0
0, 0
0, 0
0, 0
0, 0
0, 0
0, 0
0, 0
0, 0
0, 0
0, 0
0, 0
0, 0
0, 0
0, 0
0, 0
0, 0
0, 0
0, 0
1, 0
0, 1
0, 0
0, 0
1, 0
0, 0
0, 1
0, 0
0, 0
3, 2
1, 2
1, 3
2, 0
0, 3
1, 0
2, 1
4, 3
6, 2
10, 5
20, 7
33, 19
54, 34
70, 52
87, 92
75, 75
85, 79
72, 55
56, 40
37, 16
14, 12
6, 15
5, 5
1, 2
0, 1
2, 2
6, 4
7, 5
12, 16
24, 31
55, 45
95, 96
161, 152
264, 220
342, 364
430, 396
474, 375
411, 348
302, 266
212, 187
129, 99
65, 55
34, 28
19, 14
13, 4
6, 5
1, 5
2, 1
4, 3
0, 2
3, 0
2, 2
3, 2
0, 2
2, 1
2, 3
1, 0
3, 3
2, 5
7, 4
4, 1
3, 6
5, 6
5, 4
5, 1
6, 4
5, 9
4, 8
14, 4
12, 15
22, 20
27, 17
41, 30
60, 24
87, 45
85, 56
83, 43
92, 69
76, 53
60, 34
73, 25
73, 24
89, 24
88, 33
124, 15
131, 21
119, 20
109, 12
76, 10
52, 14
28, 6
23, 6
8, 2
5, 0
4, 1
4, 2
1, 3
3, 2
2, 1
4, 6
4, 1
1, 3
4, 0
0, 0
2, 3
3, 0
0, 4
2, 5
5, 2
3, 5
4, 12
5, 19
8, 19
5, 23
4, 22
12, 23
14, 28
16, 24
19, 20
21, 23
18, 23
16, 15
11, 12
9, 8
5, 8
2, 7
8, 7
3, 6
9, 6
4, 4
8, 9
6, 5
6, 3
9, 6
8, 8
7, 2
4, 6
6, 13
8, 8
11, 10
5, 8
5, 10
8, 11
11, 6
4, 6
2, 10
6, 6
3, 7
7, 4
14, 8
14, 11
17, 12
24, 12
33, 17
36, 9
48, 11
43, 18
50, 11
56, 11
46, 22
54, 21
40, 17
27, 20
27, 9
25, 16
11, 18
9, 16
10, 14
8, 8
7, 10
7, 11
7, 13
5, 4
3, 8
5, 4
5, 4
8, 7
8, 7
8, 8
5, 7
8, 5
5, 10
7, 3
6, 5
4, 8
12, 10
11, 12
13, 9
12, 21
12, 19
5, 17
16, 19
14, 19
11, 10
14, 14
15, 5
9, 14
8, 14
4, 16
7, 8
10, 8
6, 11
26, 17
24, 12
22, 18
30, 14
49, 34
66, 54
75, 46
94, 74
99, 75
95, 82
109, 99
91, 89
65, 74
49, 69
49, 91
44, 71
34, 50
25, 46
24, 61
35, 57
24, 73
46, 88
75, 125
159, 197
305, 354
511, 578
780, 920
1208, 1367
1617, 1738
2050, 2093
2289, 2280
2469, 2404
2460, 2207
2123, 1865
1834, 1554
1400, 1079
911, 703
620, 432
402, 259
183, 160
106, 76
57, 46
33, 25
22, 22
22, 15
17, 20
17, 19
17, 23
21, 21
20, 30
28, 40
53, 54
67, 82
103, 130
154, 174
215, 258
261, 301
294, 325
378, 353
356, 325
348, 321
322, 271
238, 225
166, 159
140, 97
101, 63
61, 46
43, 26
20, 13
15, 12
13, 10
6, 5
11, 6
12, 15
13, 6
10, 10
14, 13
22, 9
17, 15
16, 14
14, 13
13, 6
6, 2
8, 5
5, 5
11, 4
7, 7
7, 4
5, 9
4, 6
3, 6
9, 6
5, 4
3, 7
7, 6
3, 4
4, 1
8, 6
4, 7
8, 5
7, 5
7, 4
5, 7
9, 5
7, 4
4, 7
6, 8
10, 3
8, 5
7, 6
2, 7
5, 7
5, 11
6, 8
4, 7
7, 7
8, 3
4, 3
3, 7
4, 7
4, 5
2, 5
2, 6
6, 6
2, 3
5, 4
6, 7
3, 3
4, 6
7, 4
3, 2
5, 5
3, 3
6, 5
5, 4
3, 3
3, 3
2, 2
4, 3
5, 3
4, 5
6, 5
3, 6
3, 6
7, 6
6, 2
8, 4
6, 5
13, 4
6, 2
11, 5
14, 5
15, 8
11, 9
8, 4
14, 4
7, 3
6, 3
7, 6
5, 7
8, 5
1, 7
5, 7
3, 9
2, 12
4, 7
6, 5
1, 7
4, 11
7, 4
4, 3
5, 5
4, 6
1, 3
2, 4
3, 2
3, 6
1, 7
7, 5
5, 4
2, 2
2, 2
7, 2
4, 3
5, 2
2, 1
3, 3
1, 0
8, 0
2, 2
6, 1
3, 1
4, 4
4, 2
4, 1
7, 1
4, 4
2, 3
2, 3
2, 3
3, 3
2, 3
4, 2
4, 5
3, 0
6, 1
4, 3
3, 4
3, 0
1, 4
5, 7
2, 3
4, 3
5, 10
4, 3
9, 4
3, 2
4, 2
5, 3
1, 4
2, 1
3, 4
5, 3
5, 4
1, 2
4, 7
2, 1
4, 5
5, 3
0, 3
1, 2
4, 6
2, 2
0, 4
2, 4
2, 1
1, 1
2, 2
0, 2
4, 1
0, 2
1, 7
0, 0
2, 0
2, 0
1, 2
3, 3
3, 5
5, 1
0, 1
4, 1
6, 4
6, 2
2, 3
2, 4
2, 3
4, 5
2, 3
4, 3
4, 1
3, 4
1, 2
3, 8
3, 4
1, 4
2, 1
3, 3
2, 2
4, 3
5, 6
3, 2
1, 4
2, 3
0, 2
1, 0
1, 1
0, 4
2, 2
2, 4
3, 2
1, 3
1, 6
3, 5
0, 2
2, 3
1, 3
2, 2
2, 0
2, 2
1, 0
0, 3
2, 6
0, 2
3, 2
4, 2
1, 3
2, 2
1, 6
2, 8
2, 6
1, 7
4, 3
2, 4
2, 4
7, 4
2, 3
1, 4
4, 1
4, 0
2, 4
3, 2
5, 4
1, 1
5, 0
2, 1
2, 2
1, 1
2, 2
1, 0
3, 1
3, 1
5, 1
0, 5
1, 1
3, 0
1, 2
1, 4
2, 1
1, 1
5, 2
2, 1
4, 1
3, 2
3, 0
0, 0
2, 0
3, 1
0, 2
0, 1
1, 2
1, 0
4, 2
1, 3
4, 2
1, 1
2, 1
1, 0
1, 2
0, 2
0, 2
1, 5
1, 0
1, 3
2, 2
0, 1
1, 2
0, 3
0, 1
1, 3
0, 1
1, 0
1, 1
2, 1
1, 2
3, 1
0, 1
2, 2
2, 1
2, 0
1, 0
0, 0
2, 0
1, 5
0, 1
0, 0
0, 0
1, 0
0, 1
0, 0
2, 0
2, 0
0, 2
0, 2
0, 0
1, 0
0, 1
2, 1
0, 0
0, 0
1, 0
0, 0
0, 1
0, 1
1, 0
0, 0
2, 4
1, 0
0, 3
1, 0
1, 2
1, 0
1, 0
0, 0
0, 1
1, 3
2, 2
1, 0
1, 1
0, 0
2, 0
1, 0
1, 0
0, 0
0, 2
0, 1
1, 0
2, 0
0, 0
0, 0
4, 1
0, 0
0, 0
1, 0
0, 1
0, 0
0, 1
1, 0
0, 0
0, 0
1, 1
0, 0
1, 1
0, 0
1, 1
2, 1
0, 0
1, 0
2, 1
2, 0
0, 1
0, 0
0, 0
1, 0
0, 0
1, 0
0, 0
1, 2
0, 0
1, 1
0, 1
1, 0
0, 0
1, 1
0, 2
0, 0
0, 0
1, 0
1, 1
0, 0
1, 0
1, 0
0, 1
0, 1
0, 0
0, 1
0, 1
0, 2
0, 0
0, 0
0, 0
0, 0
0, 0
1, 0
0, 0
0, 0
1, 0
0, 1
0, 0
0, 0
1, 0
1, 0
0, 1
0, 0
0, 0
0, 0
0, 0
0, 0
0, 0
0, 0
0, 0
0, 0
0, 0
0, 1
1, 1
0, 0
0, 0
0, 0
0, 1
0, 0
1, 1
0, 0
0, 0
1, 1
0, 1
0, 0
1, 0
0, 0
0, 0
0, 0
0, 1
0, 0
0, 0
1, 0
0, 1
1, 0
0, 0
1, 0
0, 0
0, 1
0, 2
1, 0
0, 0
1, 0
0, 0
0, 0
0, 0
0, 1
0, 0
1, 0
2, 0
0, 1
0, 1
1, 0
1, 0
0, 0
0, 0
1, 0
0, 0
0, 0
1, 0
0, 1
1, 0
1, 1
0, 1
0, 0
0, 0
0, 0
0, 2
0, 0
0, 0
1, 1
0, 0
0, 0
0, 1
0, 1
0, 0
0, 0
0, 0
0, 0
0, 0
1, 0
1, 0
0, 1
1, 0
0, 0
0, 1
0, 1
0, 0
0, 0
0, 0
0, 0
0, 0
0, 0
0, 0
0, 0
0, 1
0, 0
0, 0
1, 0
0, 0
0, 0
0, 0
0, 0
0, 0
0, 1
0, 0
0, 0
0, 0
1, 0
2, 0
0, 0
0, 0
0, 0
0, 0
1, 0
0, 0
0, 0
0, 0
0, 0
0, 0
1, 1
0, 0
0, 0
0, 1
0, 1
0, 1
0, 0
0, 0
0, 0
2, 0
0, 0
0, 0
0, 0
1, 0
0, 1
0, 0
0, 0
0, 0
0, 0
0, 1
0, 0
0, 0
0, 0
1, 0
0, 0
0, 1
0, 0
0, 0
0, 0
0, 1
0, 0
1, 0
0, 0
0, 0
0, 0
0, 0
0, 0
0, 0
0, 0
0, 0
0, 0
0, 0
0, 1
0, 1
0, 0
0, 1
0, 0
0, 0
0, 0
0, 0
0, 0
0, 0
1, 0
0, 0
0, 0
0, 0
0, 0
0, 0
0, 0
0, 0
0, 0
0, 0
0, 0
0, 0
0, 1
0, 0
0, 0
0, 0
0, 1
0, 0
0, 0
0, 0
0, 0
0, 0
0, 0
0, 0
0, 0
0, 0
0, 0
0, 0
0, 0
0, 0
0, 0
0, 0
0, 0
0, 0
0, 0
0, 0
0, 0
0, 0
0, 0
0, 1
0, 0
0, 0
0, 0
0, 0
0, 0
1, 0
0, 0
0, 0
0, 0
0, 0
0, 0
0, 0
0, 0
0, 0
0, 0
0, 0
0, 0
0, 0
0, 0
0, 0
0, 0
0, 0
0, 0
0, 0
0, 0
0, 0
0, 0
0, 0
0, 0
0, 0
0, 1
0, 0
0, 0
0, 0
0, 0
0, 0
0, 0
0, 0
0, 0
0, 0
0, 0
0, 0
0, 0
0, 0
0, 0
0, 0
0, 0
0, 0
0, 0
0, 0
0, 0
0, 0
0, 0
0, 0
0, 0
0, 0
0, 0
0, 0
0, 0
0, 0
0, 0
0, 0
0, 0
0, 0
0, 0
0, 0
0, 0
0, 0
0, 0
0, 0
0, 0
0, 0
0, 0
0, 0
0, 0
0, 0
0, 0
0, 0
0, 0
0, 0
0, 0
0, 0
0, 0
0, 0
0, 0
0, 0
0, 0
0, 0
0, 0
0, 0
0, 0
0, 0
0, 0
0, 0
0, 0
0, 0
0, 0
0, 0
0, 0
0, 0
0, 0
0, 0
0, 0
0, 0
0, 0
0, 0
0, 0
0, 0
0, 0
0, 0
0, 0
0, 0
0, 0
0, 0
0, 0
0, 0
0, 0
0, 0
0, 0
0, 0
0, 0
0, 0
0, 0
0, 0
0, 0
0, 0
0, 0
0, 0
0, 0
0, 0
0, 0
0, 0
0, 0
0, 0
0, 0
0, 0
0, 0
0, 0
0, 0
0, 0
0, 0
0, 0
0, 0
0, 0
0, 0
0, 0
0, 0
0, 0
0, 0
0, 0
0, 0
0, 0
0, 0
0, 0
0, 0
0, 0
0, 0
0, 0
0, 0
0, 0
0, 0
0, 0
0, 0
0, 0
0, 0
0, 0
0, 0
0, 0
0, 0
0, 0
0, 0
0, 0
0, 0
0, 0
0, 0
0, 0
0, 0
0, 0
0, 0
0, 1
0, 0
0, 0
0, 0
0, 0
0, 0
0, 0
0, 0
0, 0
0, 0
0, 0
0, 0
0, 0
0, 0
0, 0
0, 0
0, 0
0, 0
0, 0
0, 0
0, 0
0, 0
0, 0
0, 0
0, 0
0, 0
0, 0
0, 0
0, 0
0, 0
0, 0
0, 0
0, 0
0, 0
0, 0
0, 0
0, 0
0, 0
0, 0
0, 0
0, 0
0, 0
0, 0
0, 0
0, 0
0, 0
0, 0
0, 0
0, 0
0, 0
0, 0
0, 0
0, 0
0, 0
0, 0
0, 0
0, 0
0, 0
0, 0
0, 0
0, 0
0, 0
0, 0
0, 0
0, 0
0, 0
0, 0
0, 0
0, 0
0, 0
0, 0
0, 0
0, 0
0, 0
0, 0
0, 0
0, 0
0, 0
0, 0
0, 0
0, 0
0, 0
0, 0
0, 0
0, 0
0, 0
0, 0
0, 0
0, 0
0, 0
0, 0
0, 0
0, 0
0, 0
0, 0
0, 0
0, 0
0, 0
0, 0
0, 0
0, 0
0, 0
0, 0
0, 0
0, 0
0, 0
0, 0
0, 0
0, 0
0, 0
0, 0
0, 0
0, 0
0, 0
0, 0
0, 0
0, 0
0, 0
0, 0
0, 0
0, 0
0, 0
0, 0
0, 0
0, 0
0, 0
0, 0
0, 0
0, 0
0, 0
0, 0
0, 0
0, 0
0, 0
0, 0
0, 0
0, 0
0, 0
0, 0
0, 0
0, 0
0, 0
0, 0
0, 0
0, 0
0, 0
0, 0
0, 0
0, 0
0, 0
0, 0
0, 0
0, 0
0, 0
0, 0
0, 0
0, 0
0, 0
0, 0
0, 0
0, 0
0, 0
0, 0
0, 0
0, 0
0, 0
0, 0
0, 0
0, 0
0, 0
0, 0
0, 0
0, 0
0, 0
0, 0
0, 0
0, 0
0, 0
0, 0
0, 0
0, 0
0, 0
0, 0
0, 0
0, 0
0, 0
0, 0
0, 0
0, 0
0, 0
0, 0
0, 0
0, 0
0, 0
0, 0
0, 0
0, 0
0, 0
0, 0
0, 0
0, 0
0, 0
0, 0
0, 0
0, 0
0, 0
0, 0
0, 0
0, 0
0, 0
0, 0
0, 0
0, 0
0, 0
0, 0
0, 0
0, 0
0, 0
0, 0
0, 0
0, 0
0, 0
0, 0
0, 0
0, 0
0, 0
0, 0
0, 0
0, 0
0, 0
0, 0
0, 0
0, 0
0, 0
0, 0
0, 0
0, 0
0, 0
0, 0
0, 0
0, 0
0, 0
0, 0
0, 0
0, 0
0, 0
0, 0
0, 0
0, 0
0, 0
0, 0
0, 0
0, 0
0, 0
#ENDOFDATA     end of spectrum data