File: host_upload/06-09-2024/ps_0852/dump3/ps__0852shot_2381.msa
#FORMAT      : EMSA/MAS spectral data file
#VERSION     : TC202v2.0 PIXL
#TITLE       : N/A
#DATE        :       Date in the format DD-MMM-YYYY, for example 07-JUL-2010
#TIME        :             The time of day at which the spectrum was recorded, in 24-hour format
#OWNER       : PIXL Flight Model       (PIXL will use this to indicate which instrument took the data.)
#NPOINTS     : 4096     Number of data points in the spectrum (This can be zero for configuration only files)
#NCOLUMNS    : 2     Number of data columns in the spectrum (This can be zero for configuration only files)
#XUNITS      : eV
#YUNITS      : COUNTS
#DATATYPE    : YY
#XPERCHAN    : 7.862, 7.881   eV per channel (separate by commas if more than one detector)
#OFFSET      : 18.5, -22.4         eV of first channel  (separate by commas if more than one detector
#SIGNALTYPE  : XRF
#YP_TEMP     : 2.556
#LIVETIME    : 8.55461, 8.58035   seconds (separate by commas if more than one detector)
#REALTIME    : 10, 10.0   seconds (separate by commas if more than one detector)
#SPECTRUM    : start of spectrum data
0, 0
0, 0
0, 0
0, 0
0, 0
0, 0
0, 0
0, 0
0, 0
0, 0
0, 0
0, 0
0, 0
0, 0
0, 0
0, 0
0, 0
0, 0
0, 0
0, 0
0, 0
0, 0
0, 0
0, 0
0, 0
0, 0
0, 0
0, 0
0, 0
0, 0
0, 0
0, 0
0, 0
1, 2
0, 0
0, 0
0, 0
1, 0
0, 0
1, 2
1, 0
1, 2
4, 2
0, 2
2, 1
0, 0
1, 1
5, 3
7, 9
14, 10
22, 28
43, 47
49, 57
86, 70
84, 87
109, 82
69, 56
61, 46
34, 27
16, 16
6, 6
4, 3
4, 5
2, 2
4, 3
4, 5
8, 5
17, 9
17, 19
36, 52
95, 123
198, 196
244, 271
369, 378
402, 407
483, 455
382, 364
326, 297
227, 187
126, 138
65, 63
44, 33
18, 26
11, 6
4, 4
0, 3
0, 6
0, 2
0, 1
2, 0
1, 0
1, 0
0, 0
1, 1
1, 1
1, 1
3, 2
4, 2
3, 3
3, 3
1, 0
0, 4
2, 3
0, 1
0, 2
2, 0
4, 2
3, 4
7, 1
13, 4
13, 5
26, 9
34, 9
43, 35
51, 24
61, 37
50, 32
46, 19
37, 25
34, 22
17, 20
17, 25
20, 31
9, 29
15, 26
15, 26
10, 32
11, 11
6, 6
11, 12
4, 4
3, 5
1, 2
4, 1
2, 4
2, 3
3, 2
2, 2
2, 2
2, 1
0, 4
1, 0
2, 3
1, 2
3, 1
0, 5
5, 1
3, 3
1, 2
2, 2
5, 2
3, 2
3, 9
7, 4
10, 9
10, 12
15, 24
19, 14
17, 12
14, 8
12, 6
9, 10
2, 4
2, 3
5, 0
4, 2
2, 3
7, 4
3, 2
5, 5
3, 8
8, 8
6, 7
2, 3
1, 3
5, 7
2, 4
4, 4
3, 4
5, 4
2, 1
3, 3
1, 2
3, 2
3, 3
7, 4
5, 1
8, 5
15, 8
26, 5
27, 17
52, 23
42, 23
46, 21
48, 23
38, 21
39, 33
25, 19
21, 18
24, 22
9, 13
10, 9
8, 5
8, 8
5, 4
7, 7
7, 8
3, 6
6, 4
4, 4
5, 0
2, 3
6, 5
4, 5
11, 3
7, 7
0, 6
10, 8
7, 3
7, 9
11, 7
16, 4
18, 7
23, 7
24, 6
24, 8
32, 6
28, 8
21, 14
26, 9
22, 14
16, 17
20, 14
14, 9
11, 17
10, 20
7, 42
8, 62
7, 60
4, 101
7, 134
4, 118
3, 158
15, 159
12, 141
23, 108
24, 110
33, 95
42, 88
40, 90
55, 84
71, 71
54, 61
41, 43
42, 46
18, 33
30, 27
17, 15
19, 17
18, 17
30, 27
33, 27
52, 51
89, 84
150, 195
280, 338
465, 600
779, 935
1251, 1334
1597, 1854
2036, 2172
2375, 2429
2426, 2448
2412, 2284
2160, 1914
1819, 1496
1336, 1108
928, 738
633, 432
362, 263
210, 132
113, 72
127, 45
61, 26
44, 32
38, 26
30, 15
39, 16
27, 18
16, 25
16, 34
44, 33
39, 51
70, 87
119, 120
171, 176
223, 254
256, 292
324, 384
341, 352
367, 378
374, 333
298, 279
265, 232
183, 159
140, 103
75, 78
63, 49
26, 30
24, 43
10, 39
4, 49
4, 36
12, 52
8, 50
11, 45
11, 38
17, 28
20, 27
12, 27
18, 16
5, 10
5, 3
1, 4
3, 7
3, 5
5, 3
5, 3
3, 6
2, 3
2, 4
3, 3
7, 3
8, 2
9, 4
11, 4
10, 5
9, 4
6, 6
15, 6
14, 3
17, 6
18, 4
16, 4
2, 2
9, 4
6, 4
6, 6
6, 6
6, 8
6, 2
7, 3
6, 5
9, 8
2, 7
3, 4
4, 7
4, 9
4, 10
5, 13
5, 15
5, 18
3, 13
1, 24
4, 21
4, 19
8, 21
3, 16
4, 14
5, 16
4, 13
3, 10
1, 6
5, 3
6, 5
3, 2
5, 1
6, 1
6, 7
3, 0
4, 3
4, 1
6, 2
3, 2
3, 1
4, 3
5, 5
2, 4
4, 0
11, 2
15, 3
14, 3
18, 3
29, 6
18, 7
29, 4
29, 7
28, 3
26, 2
14, 4
17, 1
10, 1
12, 1
7, 8
5, 2
5, 3
6, 3
3, 4
2, 2
5, 8
5, 5
2, 4
2, 1
3, 3
1, 0
3, 2
3, 3
4, 1
2, 0
1, 3
0, 3
3, 2
0, 2
0, 2
2, 6
3, 6
2, 8
3, 8
2, 10
4, 5
4, 4
3, 8
3, 10
1, 13
7, 6
3, 1
1, 4
2, 7
3, 2
6, 4
0, 1
3, 4
2, 2
3, 2
4, 1
4, 2
6, 2
6, 3
7, 0
4, 6
2, 0
3, 1
5, 2
5, 1
12, 4
7, 2
4, 1
3, 1
5, 4
5, 2
3, 1
2, 3
3, 2
4, 2
1, 2
2, 4
1, 1
3, 1
2, 5
1, 2
2, 1
0, 3
1, 0
4, 1
0, 1
2, 5
0, 0
2, 1
1, 3
1, 1
1, 4
3, 5
1, 1
0, 0
1, 2
1, 2
3, 1
1, 4
2, 1
0, 1
2, 3
1, 6
2, 0
5, 5
2, 2
2, 2
8, 2
2, 0
5, 1
5, 2
3, 1
3, 3
2, 5
3, 6
3, 3
5, 2
3, 2
4, 4
3, 1
5, 3
1, 1
0, 4
1, 4
1, 2
1, 1
3, 0
2, 1
1, 2
2, 2
1, 1
2, 0
3, 3
0, 2
1, 1
2, 0
6, 1
1, 2
0, 0
1, 2
1, 1
3, 2
2, 3
2, 0
4, 2
0, 3
2, 0
1, 1
2, 2
4, 3
2, 0
4, 3
6, 6
2, 2
2, 0
3, 4
1, 4
3, 2
1, 3
0, 2
2, 5
1, 3
1, 2
2, 0
0, 2
5, 1
2, 1
1, 0
3, 2
0, 1
3, 2
2, 1
1, 1
0, 0
2, 1
3, 2
3, 2
3, 2
3, 1
2, 2
2, 1
2, 1
5, 2
2, 3
2, 1
4, 1
0, 0
3, 1
2, 2
0, 1
0, 0
1, 3
1, 0
1, 3
1, 0
2, 4
0, 0
1, 2
0, 3
0, 1
0, 0
0, 1
3, 0
4, 0
2, 0
1, 2
2, 1
1, 2
1, 0
3, 1
0, 0
2, 0
0, 2
0, 1
0, 1
0, 1
2, 2
1, 0
0, 1
2, 4
2, 1
2, 0
0, 0
0, 1
0, 0
0, 0
2, 0
0, 0
1, 0
3, 0
0, 2
2, 0
3, 1
0, 0
1, 0
0, 1
2, 1
2, 0
1, 0
1, 1
0, 1
1, 2
1, 0
0, 2
1, 1
2, 4
2, 1
1, 0
2, 1
0, 3
1, 0
2, 0
1, 1
0, 1
2, 0
0, 0
1, 0
2, 0
0, 1
1, 2
0, 1
1, 0
0, 0
1, 1
0, 0
0, 1
0, 2
1, 0
0, 1
1, 0
0, 0
1, 0
1, 1
0, 0
3, 1
0, 0
0, 1
1, 0
0, 1
0, 0
0, 1
0, 0
1, 1
0, 1
2, 0
0, 1
0, 1
2, 0
1, 0
0, 0
1, 0
2, 0
0, 1
1, 1
1, 2
0, 1
1, 0
0, 2
0, 0
0, 0
0, 0
0, 1
0, 0
1, 0
1, 0
0, 2
0, 0
0, 0
0, 0
0, 0
1, 0
0, 1
0, 0
0, 1
0, 0
0, 0
1, 0
0, 2
0, 0
0, 0
2, 1
0, 1
1, 0
1, 1
2, 0
1, 0
0, 1
0, 0
0, 0
1, 1
1, 0
0, 0
1, 1
1, 1
0, 1
1, 1
1, 0
1, 1
1, 1
0, 1
0, 1
0, 0
0, 0
0, 0
0, 0
0, 0
0, 1
0, 0
0, 0
0, 1
0, 0
0, 1
1, 0
0, 1
0, 0
1, 0
0, 1
0, 0
0, 1
1, 0
1, 0
0, 0
0, 1
0, 0
1, 0
1, 1
1, 0
1, 0
0, 0
0, 0
1, 1
1, 0
0, 1
0, 2
0, 0
0, 0
0, 0
0, 0
1, 0
0, 0
0, 0
0, 0
0, 0
0, 0
0, 0
0, 1
1, 1
0, 1
0, 0
0, 0
1, 2
0, 0
1, 0
0, 1
0, 0
1, 0
0, 0
2, 0
1, 0
0, 1
0, 1
0, 0
0, 0
0, 0
0, 0
0, 0
0, 1
0, 0
0, 0
0, 0
0, 1
1, 0
1, 0
1, 0
0, 0
0, 0
0, 0
1, 0
0, 1
1, 0
0, 0
0, 0
0, 0
0, 1
0, 0
0, 0
0, 0
0, 2
0, 0
0, 0
1, 1
0, 0
0, 0
0, 0
0, 0
0, 0
0, 0
0, 0
0, 0
0, 0
0, 0
1, 0
0, 0
0, 0
0, 0
1, 0
1, 0
0, 0
0, 0
0, 0
0, 0
0, 0
0, 0
0, 1
0, 0
0, 0
0, 0
0, 0
0, 1
0, 1
0, 1
0, 0
0, 0
0, 0
0, 1
0, 0
0, 2
0, 0
0, 1
0, 0
0, 0
1, 0
0, 0
0, 0
0, 0
1, 0
0, 0
0, 0
0, 0
0, 0
1, 0
0, 2
0, 0
0, 0
0, 0
0, 0
0, 0
0, 0
1, 0
0, 1
0, 0
0, 0
0, 0
0, 0
0, 0
0, 0
0, 1
0, 0
0, 0
0, 0
0, 0
0, 0
1, 0
0, 0
0, 0
0, 0
0, 0
0, 0
0, 0
0, 0
0, 0
0, 0
0, 0
0, 0
0, 0
0, 0
0, 0
0, 0
1, 0
0, 0
1, 0
0, 0
0, 0
0, 0
0, 0
0, 0
0, 0
0, 0
0, 0
0, 0
0, 0
0, 0
0, 0
0, 0
0, 0
0, 0
0, 0
0, 0
0, 0
0, 1
0, 0
0, 0
0, 0
0, 0
0, 0
0, 0
0, 0
0, 0
0, 0
1, 0
0, 0
0, 0
0, 0
0, 0
0, 0
0, 0
0, 0
0, 0
0, 0
0, 0
0, 0
0, 0
0, 1
0, 0
0, 0
0, 0
0, 0
0, 0
0, 0
0, 0
0, 0
0, 0
0, 0
0, 0
0, 0
0, 0
0, 0
0, 0
0, 0
0, 0
0, 0
0, 0
0, 0
0, 0
0, 0
0, 0
0, 0
0, 0
0, 0
0, 0
0, 0
0, 0
0, 0
0, 0
0, 0
0, 0
0, 0
0, 0
0, 0
0, 0
0, 0
0, 0
0, 0
0, 0
0, 0
0, 0
0, 0
0, 0
0, 0
0, 0
0, 0
0, 0
0, 0
0, 0
0, 0
0, 0
0, 0
0, 0
0, 0
0, 0
0, 0
0, 0
0, 0
0, 0
0, 0
0, 0
0, 0
0, 0
0, 0
0, 0
0, 0
0, 0
0, 0
0, 0
0, 0
0, 0
0, 0
0, 0
0, 0
0, 0
0, 0
0, 0
0, 0
0, 0
0, 0
0, 0
0, 0
0, 0
0, 0
0, 0
0, 0
0, 0
0, 0
0, 0
0, 0
0, 0
0, 0
0, 0
0, 0
0, 0
0, 0
0, 0
0, 0
0, 0
0, 0
0, 0
0, 0
0, 1
0, 0
0, 0
0, 0
0, 0
0, 0
0, 0
0, 0
0, 0
0, 0
0, 0
0, 0
0, 0
0, 1
0, 0
0, 0
0, 0
0, 0
0, 0
0, 0
0, 0
0, 0
0, 0
0, 0
0, 0
0, 0
0, 0
0, 0
0, 0
0, 0
0, 0
0, 0
0, 0
0, 0
0, 0
0, 0
0, 0
0, 0
0, 0
0, 0
0, 0
0, 0
0, 0
0, 0
0, 0
0, 0
0, 0
0, 0
0, 0
0, 0
0, 0
0, 0
0, 0
0, 0
0, 0
0, 0
0, 0
0, 0
0, 0
0, 0
0, 0
0, 0
0, 0
0, 0
0, 0
0, 0
0, 0
0, 0
0, 0
0, 0
0, 0
0, 0
0, 0
0, 0
0, 0
0, 0
0, 0
0, 0
0, 0
0, 0
0, 0
0, 0
0, 0
0, 0
0, 0
0, 0
0, 0
0, 0
0, 0
0, 0
0, 0
0, 0
0, 0
0, 0
0, 0
0, 0
0, 0
0, 0
0, 0
0, 0
0, 0
0, 0
0, 0
0, 0
0, 0
0, 0
0, 0
0, 0
0, 0
0, 0
0, 0
0, 0
0, 0
0, 0
0, 0
0, 0
0, 0
0, 0
0, 0
0, 0
0, 0
0, 0
0, 0
0, 0
0, 0
0, 0
0, 0
0, 0
0, 0
0, 0
0, 0
0, 0
0, 0
0, 0
0, 0
0, 0
0, 0
0, 0
0, 0
0, 0
0, 0
0, 0
0, 0
0, 0
0, 0
0, 0
0, 0
0, 0
0, 0
0, 0
0, 0
0, 0
0, 0
0, 0
0, 0
0, 0
0, 0
0, 0
0, 0
0, 0
0, 0
0, 0
0, 0
0, 0
0, 0
0, 0
0, 0
0, 0
0, 0
0, 0
0, 0
0, 0
0, 0
0, 0
0, 0
0, 0
0, 0
0, 0
0, 0
0, 0
0, 0
0, 0
0, 0
0, 0
0, 0
0, 0
0, 0
0, 0
0, 0
0, 0
0, 0
0, 0
0, 0
0, 0
0, 0
0, 0
0, 0
0, 0
0, 0
0, 0
0, 0
0, 0
0, 0
0, 0
0, 0
0, 0
0, 0
0, 0
0, 0
0, 0
0, 0
0, 0
0, 0
0, 0
0, 0
0, 0
0, 0
0, 0
0, 0
0, 0
0, 0
0, 0
0, 0
0, 0
0, 0
0, 0
0, 0
0, 0
0, 0
0, 0
0, 0
0, 0
0, 0
0, 0
0, 0
0, 0
0, 0
0, 0
0, 0
0, 0
0, 0
0, 0
0, 0
0, 0
0, 0
0, 0
0, 0
0, 0
0, 0
0, 0
0, 0
0, 0
0, 0
0, 0
0, 0
0, 0
0, 0
0, 0
0, 0
0, 0
0, 0
0, 0
0, 0
0, 0
0, 0
0, 0
0, 0
0, 0
0, 0
0, 0
0, 0
0, 0
0, 0
0, 0
0, 0
0, 0
0, 0
0, 0
0, 0
0, 0
0, 0
0, 0
0, 0
0, 0
0, 0
0, 0
0, 0
0, 0
0, 0
0, 0
0, 0
0, 0
0, 0
0, 0
0, 0
0, 0
0, 0
0, 0
0, 0
0, 0
0, 0
0, 0
0, 0
0, 0
0, 0
0, 0
0, 0
0, 0
0, 0
0, 0
#ENDOFDATA     end of spectrum data