File: host_upload/06-09-2024/ps_0852/dump3/ps__0852shot_2180.msa
#FORMAT      : EMSA/MAS spectral data file
#VERSION     : TC202v2.0 PIXL
#TITLE       : N/A
#DATE        :       Date in the format DD-MMM-YYYY, for example 07-JUL-2010
#TIME        :             The time of day at which the spectrum was recorded, in 24-hour format
#OWNER       : PIXL Flight Model       (PIXL will use this to indicate which instrument took the data.)
#NPOINTS     : 4096     Number of data points in the spectrum (This can be zero for configuration only files)
#NCOLUMNS    : 2     Number of data columns in the spectrum (This can be zero for configuration only files)
#XUNITS      : eV
#YUNITS      : COUNTS
#DATATYPE    : YY
#XPERCHAN    : 7.862, 7.881   eV per channel (separate by commas if more than one detector)
#OFFSET      : 18.5, -22.4         eV of first channel  (separate by commas if more than one detector
#SIGNALTYPE  : XRF
#YP_TEMP     : 2.107
#LIVETIME    : 8.54938, 8.5515   seconds (separate by commas if more than one detector)
#REALTIME    : 10, 10.0   seconds (separate by commas if more than one detector)
#SPECTRUM    : start of spectrum data
0, 0
0, 0
0, 0
0, 0
0, 0
0, 0
0, 0
0, 0
0, 0
0, 0
0, 0
0, 0
0, 0
0, 0
0, 0
0, 0
0, 0
0, 0
0, 0
0, 0
0, 0
0, 0
0, 0
0, 0
0, 0
0, 0
0, 0
0, 0
0, 0
0, 0
0, 0
0, 0
0, 0
0, 0
0, 1
0, 0
0, 0
0, 1
0, 1
0, 1
0, 3
1, 4
0, 0
1, 1
1, 2
1, 2
1, 3
3, 2
8, 6
14, 15
27, 28
37, 49
71, 54
78, 66
69, 65
85, 75
73, 51
54, 43
22, 31
20, 15
8, 11
5, 2
3, 1
0, 6
4, 5
3, 0
8, 3
13, 17
21, 29
47, 54
101, 85
166, 157
277, 267
366, 357
435, 409
424, 399
380, 357
321, 276
201, 170
121, 119
84, 78
44, 30
16, 13
10, 6
9, 5
4, 6
1, 2
1, 3
1, 1
0, 3
0, 1
0, 0
1, 1
0, 0
2, 0
1, 1
2, 2
3, 1
4, 2
3, 3
1, 5
3, 3
1, 3
2, 2
2, 1
4, 2
8, 3
6, 8
10, 9
9, 14
13, 20
27, 37
41, 44
44, 58
50, 61
45, 71
71, 75
55, 43
51, 45
42, 32
24, 32
16, 16
18, 17
17, 14
10, 12
11, 10
9, 11
5, 11
12, 4
14, 6
11, 4
2, 8
1, 6
3, 3
5, 12
1, 3
1, 5
1, 5
3, 7
1, 10
3, 5
4, 6
2, 3
3, 8
1, 4
1, 1
3, 0
0, 3
4, 5
3, 4
2, 3
3, 3
1, 5
13, 14
12, 13
18, 10
13, 17
15, 21
19, 14
16, 14
16, 12
13, 8
5, 6
6, 2
1, 6
5, 4
5, 4
11, 6
9, 2
4, 6
9, 9
6, 4
7, 10
3, 4
4, 11
3, 14
8, 7
6, 14
1, 24
3, 27
5, 29
6, 37
9, 27
7, 21
1, 18
8, 8
2, 10
4, 2
4, 7
5, 6
13, 7
6, 9
4, 10
14, 13
11, 13
14, 19
8, 13
17, 22
11, 30
14, 20
16, 23
15, 38
16, 52
25, 84
17, 81
6, 100
17, 81
14, 85
15, 65
13, 45
9, 42
12, 30
10, 26
8, 22
7, 8
8, 5
10, 12
5, 8
7, 7
9, 8
3, 2
8, 3
9, 5
15, 2
11, 8
30, 6
33, 9
37, 15
38, 20
43, 9
28, 5
33, 10
18, 19
11, 7
13, 13
14, 8
11, 12
10, 8
8, 6
11, 9
6, 7
10, 3
11, 4
7, 13
20, 23
23, 14
31, 33
36, 46
40, 45
55, 65
66, 61
57, 61
52, 67
52, 50
53, 39
38, 18
30, 19
21, 19
24, 19
19, 16
27, 22
26, 33
57, 52
76, 97
159, 202
283, 341
500, 628
735, 863
1164, 1298
1567, 1724
1994, 1998
2276, 2317
2396, 2323
2458, 2255
2150, 1957
1818, 1514
1336, 1107
941, 743
623, 443
424, 254
219, 114
92, 61
74, 37
24, 27
26, 10
16, 13
17, 25
14, 15
15, 12
19, 24
23, 27
33, 38
35, 63
70, 87
116, 128
149, 177
191, 257
231, 268
292, 343
378, 365
375, 330
352, 287
333, 244
229, 211
180, 149
129, 106
90, 65
53, 39
36, 28
11, 20
10, 8
14, 13
10, 10
7, 9
11, 15
12, 13
10, 17
11, 13
11, 16
16, 12
11, 6
15, 5
10, 10
12, 8
7, 5
6, 1
7, 4
6, 8
6, 1
7, 0
7, 6
9, 3
3, 5
3, 4
2, 5
9, 6
6, 10
9, 14
4, 14
2, 14
3, 21
4, 19
3, 21
5, 9
11, 15
5, 21
7, 16
10, 11
7, 10
6, 6
6, 8
5, 7
10, 7
10, 7
9, 5
6, 7
8, 0
7, 5
4, 2
5, 5
6, 2
6, 3
6, 4
10, 2
7, 4
2, 3
5, 3
5, 6
1, 3
6, 4
5, 4
7, 8
4, 2
5, 1
6, 3
3, 2
3, 1
3, 3
2, 6
4, 3
5, 1
2, 2
5, 0
3, 3
4, 6
6, 4
4, 0
10, 3
2, 4
7, 4
2, 2
5, 4
7, 5
4, 1
8, 6
4, 3
9, 3
5, 2
4, 1
5, 2
2, 1
3, 3
4, 3
2, 3
5, 3
3, 1
2, 4
0, 2
2, 5
3, 4
6, 9
6, 8
1, 5
1, 10
4, 5
3, 3
4, 1
7, 6
1, 7
5, 2
5, 3
3, 2
2, 3
1, 1
2, 1
0, 1
0, 2
4, 3
3, 2
3, 0
4, 4
1, 1
3, 5
5, 4
5, 3
2, 6
4, 6
6, 9
4, 9
4, 12
5, 8
4, 8
4, 2
3, 4
0, 4
6, 1
1, 4
5, 2
1, 3
2, 2
3, 2
5, 7
7, 0
8, 1
8, 2
4, 2
3, 0
3, 5
5, 4
3, 6
4, 2
2, 2
2, 7
1, 3
2, 5
5, 3
1, 5
3, 7
1, 4
3, 0
4, 4
2, 4
4, 4
1, 2
1, 4
1, 0
4, 3
2, 2
4, 0
5, 1
2, 0
3, 5
1, 1
2, 4
1, 2
2, 1
3, 3
1, 3
3, 1
1, 0
2, 6
1, 5
1, 2
2, 2
1, 7
0, 1
3, 3
2, 1
1, 2
0, 4
5, 2
2, 2
4, 2
5, 5
3, 1
0, 4
3, 0
1, 1
3, 0
2, 2
3, 1
0, 3
1, 3
4, 2
3, 1
3, 1
0, 1
3, 2
2, 2
1, 1
4, 0
1, 2
2, 4
0, 4
4, 2
1, 3
2, 3
3, 5
0, 1
1, 1
1, 4
0, 6
5, 5
2, 4
1, 0
1, 5
0, 7
2, 2
1, 6
4, 1
4, 5
5, 2
6, 5
2, 3
2, 0
4, 3
4, 3
3, 4
4, 1
1, 5
2, 2
2, 0
3, 1
1, 3
1, 2
0, 0
3, 1
4, 1
2, 0
0, 0
1, 1
0, 2
3, 2
1, 1
3, 3
2, 1
1, 1
0, 3
2, 0
2, 3
1, 4
0, 3
1, 2
0, 3
2, 0
2, 2
3, 1
0, 3
3, 3
1, 0
3, 2
0, 3
1, 2
0, 2
1, 0
3, 1
0, 1
1, 2
2, 0
1, 2
0, 1
0, 1
0, 0
0, 1
2, 0
0, 1
2, 0
1, 2
0, 0
0, 1
1, 0
1, 0
0, 2
1, 0
0, 3
1, 0
0, 1
2, 1
1, 0
0, 2
0, 1
0, 2
6, 0
0, 0
1, 0
0, 0
0, 1
1, 1
0, 2
0, 1
1, 0
0, 1
2, 1
0, 2
0, 0
3, 0
1, 2
0, 0
0, 1
1, 0
0, 0
2, 0
2, 0
1, 0
0, 0
1, 0
1, 1
1, 2
0, 0
2, 1
1, 1
1, 0
1, 1
0, 1
1, 0
0, 0
2, 0
2, 0
0, 1
0, 2
0, 0
1, 1
1, 0
1, 1
1, 0
2, 1
0, 0
0, 1
1, 0
2, 0
1, 1
1, 0
1, 0
0, 0
1, 1
1, 1
0, 0
0, 1
1, 1
0, 0
1, 1
1, 0
0, 0
0, 0
0, 0
0, 0
0, 0
1, 1
1, 0
1, 0
1, 0
1, 0
0, 1
2, 0
0, 0
1, 0
0, 0
0, 0
0, 1
0, 0
2, 0
1, 1
0, 2
1, 1
0, 0
0, 1
1, 0
1, 0
0, 1
0, 0
0, 0
0, 1
1, 1
1, 0
0, 1
0, 1
1, 0
0, 0
0, 0
0, 0
0, 0
2, 0
0, 0
0, 0
0, 0
1, 0
1, 0
0, 0
0, 0
1, 0
0, 1
0, 0
0, 1
0, 0
0, 0
1, 0
0, 1
2, 0
0, 0
0, 1
0, 0
1, 0
0, 0
0, 0
0, 0
0, 0
0, 1
1, 0
0, 0
0, 0
0, 0
0, 0
0, 2
0, 0
0, 0
0, 2
0, 2
1, 0
0, 1
1, 0
0, 1
2, 1
1, 0
0, 0
0, 0
0, 2
0, 0
0, 0
0, 0
0, 0
0, 0
2, 2
1, 0
0, 0
0, 0
1, 0
0, 0
0, 1
0, 0
0, 0
0, 0
0, 0
0, 0
0, 0
0, 0
0, 1
0, 0
0, 0
0, 0
0, 0
1, 1
1, 0
0, 0
0, 0
1, 1
0, 0
0, 2
0, 1
1, 0
0, 0
0, 0
1, 1
0, 0
0, 0
0, 1
0, 0
0, 0
0, 1
1, 0
0, 0
0, 0
0, 0
0, 0
0, 0
0, 0
1, 0
0, 1
0, 0
0, 0
0, 0
0, 0
1, 0
1, 0
0, 0
1, 0
0, 0
1, 0
0, 0
0, 0
0, 0
0, 1
0, 0
1, 0
0, 0
0, 0
0, 0
0, 0
0, 0
0, 0
0, 0
0, 0
0, 0
0, 0
0, 2
0, 0
0, 0
0, 0
0, 1
0, 0
0, 0
0, 0
1, 0
0, 0
0, 1
1, 0
0, 0
0, 0
0, 0
0, 0
0, 0
0, 0
0, 1
1, 2
0, 0
1, 0
0, 0
0, 0
0, 0
0, 0
1, 0
0, 0
0, 1
0, 0
0, 0
0, 1
0, 0
0, 0
0, 0
0, 0
0, 1
0, 0
0, 0
0, 0
0, 0
0, 0
0, 0
0, 0
0, 0
1, 0
0, 0
0, 0
0, 0
0, 0
0, 0
0, 0
0, 1
0, 0
0, 0
0, 0
0, 0
0, 0
0, 0
0, 0
0, 0
0, 0
0, 0
0, 0
0, 0
0, 0
1, 0
0, 0
0, 0
0, 0
0, 0
0, 0
0, 0
0, 0
0, 0
0, 0
0, 1
0, 0
0, 0
0, 0
0, 0
1, 0
0, 0
0, 0
1, 0
0, 0
0, 0
0, 0
0, 0
0, 0
0, 0
0, 0
0, 0
0, 0
0, 0
0, 0
0, 0
0, 0
0, 0
0, 0
0, 0
0, 0
0, 1
1, 0
0, 0
0, 0
0, 0
1, 0
0, 0
0, 0
0, 0
0, 0
0, 0
0, 0
0, 0
0, 0
0, 0
0, 1
0, 0
0, 0
0, 0
0, 0
0, 0
0, 0
0, 0
0, 0
0, 0
0, 1
0, 0
0, 0
0, 0
0, 0
0, 0
0, 0
0, 0
0, 0
0, 0
0, 0
0, 0
0, 0
0, 0
0, 0
0, 0
0, 0
0, 0
0, 0
0, 0
0, 0
0, 0
0, 0
0, 0
0, 0
0, 0
0, 0
0, 0
0, 0
0, 0
0, 0
0, 0
0, 0
0, 0
0, 0
0, 0
0, 0
0, 0
0, 0
0, 0
0, 0
0, 0
0, 0
0, 0
0, 0
0, 0
0, 0
0, 0
0, 0
0, 0
0, 0
0, 0
0, 0
0, 0
0, 0
0, 0
0, 0
0, 0
0, 0
0, 0
0, 0
0, 0
0, 0
0, 0
0, 0
0, 0
0, 0
0, 0
0, 0
0, 0
0, 0
0, 0
0, 0
0, 0
0, 0
0, 0
0, 0
0, 0
0, 0
0, 0
0, 0
0, 0
0, 0
0, 0
0, 0
0, 0
0, 0
0, 0
0, 0
0, 0
0, 0
0, 0
0, 0
0, 0
0, 0
0, 0
0, 0
0, 0
0, 0
0, 0
0, 0
0, 0
0, 0
0, 0
0, 0
0, 0
0, 0
0, 0
0, 0
0, 0
0, 0
0, 0
0, 0
0, 0
0, 0
0, 0
0, 0
0, 0
0, 0
0, 0
0, 0
0, 0
0, 0
0, 0
0, 0
0, 0
0, 0
0, 0
0, 0
0, 0
0, 0
0, 0
0, 0
0, 0
0, 0
0, 0
0, 0
0, 0
0, 0
0, 0
0, 0
0, 0
0, 0
0, 0
0, 0
0, 0
0, 0
0, 0
0, 0
0, 0
0, 0
0, 0
0, 0
0, 0
0, 0
0, 0
0, 0
0, 0
0, 0
0, 0
0, 0
0, 0
0, 0
0, 0
0, 0
0, 0
0, 0
0, 0
0, 0
0, 0
0, 0
0, 0
0, 0
0, 0
0, 0
0, 0
0, 0
0, 0
0, 0
0, 0
0, 0
0, 0
0, 0
0, 0
0, 0
0, 0
0, 0
0, 0
0, 0
0, 0
0, 0
0, 0
0, 0
0, 0
0, 0
0, 0
0, 0
0, 0
0, 0
0, 0
0, 0
0, 0
0, 0
0, 0
0, 0
0, 0
0, 0
0, 0
0, 0
0, 0
0, 0
0, 0
0, 0
0, 0
0, 0
0, 0
0, 0
0, 0
0, 0
0, 0
0, 0
0, 0
0, 0
0, 0
0, 0
0, 0
0, 0
0, 0
0, 0
0, 0
0, 0
0, 0
0, 0
0, 0
0, 0
0, 0
0, 0
0, 0
0, 0
0, 0
0, 0
0, 0
0, 0
0, 0
0, 0
0, 0
0, 0
0, 0
0, 0
0, 0
0, 0
0, 0
0, 0
0, 0
0, 0
0, 0
0, 0
0, 0
0, 0
0, 0
0, 0
0, 0
0, 0
0, 0
0, 0
0, 0
0, 0
0, 0
0, 0
0, 0
0, 0
0, 0
0, 0
0, 0
0, 0
0, 0
0, 0
0, 0
0, 0
0, 0
0, 0
0, 0
0, 0
0, 0
0, 0
0, 0
0, 0
0, 0
0, 0
0, 0
0, 0
0, 0
0, 0
0, 0
0, 0
0, 0
0, 0
0, 0
0, 0
0, 0
0, 0
0, 0
0, 0
0, 0
0, 0
0, 0
0, 0
0, 0
0, 0
0, 0
0, 0
0, 0
0, 0
0, 0
0, 0
0, 0
0, 0
0, 0
0, 0
0, 0
0, 0
0, 0
0, 0
0, 0
0, 0
0, 0
0, 0
0, 0
0, 0
0, 0
0, 0
0, 0
0, 0
0, 0
0, 0
0, 0
0, 0
0, 0
0, 0
0, 0
0, 0
0, 0
0, 0
0, 0
0, 0
0, 0
0, 0
0, 0
0, 0
0, 0
0, 0
0, 0
0, 0
0, 0
0, 0
0, 0
0, 0
0, 0
0, 0
0, 0
0, 0
0, 0
0, 0
0, 0
0, 0
0, 0
0, 0
0, 0
0, 0
0, 0
0, 0
0, 0
0, 0
0, 0
0, 0
0, 0
0, 0
0, 0
0, 0
0, 0
0, 0
0, 0
0, 0
0, 0
0, 0
0, 0
0, 0
0, 0
0, 0
0, 0
0, 0
0, 0
0, 0
0, 0
0, 0
0, 0
0, 0
0, 0
0, 0
0, 0
0, 0
0, 0
0, 0
0, 0
0, 0
0, 0
#ENDOFDATA     end of spectrum data