File: host_upload/06-09-2024/ps_0852/dump3/ps__0852shot_2215.msa
#FORMAT      : EMSA/MAS spectral data file
#VERSION     : TC202v2.0 PIXL
#TITLE       : N/A
#DATE        :       Date in the format DD-MMM-YYYY, for example 07-JUL-2010
#TIME        :             The time of day at which the spectrum was recorded, in 24-hour format
#OWNER       : PIXL Flight Model       (PIXL will use this to indicate which instrument took the data.)
#NPOINTS     : 4096     Number of data points in the spectrum (This can be zero for configuration only files)
#NCOLUMNS    : 2     Number of data columns in the spectrum (This can be zero for configuration only files)
#XUNITS      : eV
#YUNITS      : COUNTS
#DATATYPE    : YY
#XPERCHAN    : 7.862, 7.881   eV per channel (separate by commas if more than one detector)
#OFFSET      : 18.5, -22.4         eV of first channel  (separate by commas if more than one detector
#SIGNALTYPE  : XRF
#YP_TEMP     : 2.203
#LIVETIME    : 8.56318, 8.5658   seconds (separate by commas if more than one detector)
#REALTIME    : 10, 10.0   seconds (separate by commas if more than one detector)
#SPECTRUM    : start of spectrum data
0, 0
0, 0
0, 0
0, 0
0, 0
0, 0
0, 0
0, 0
0, 0
0, 0
0, 0
0, 0
0, 0
0, 0
0, 0
0, 0
0, 0
0, 0
0, 0
0, 0
0, 0
0, 0
0, 0
0, 0
0, 0
0, 0
0, 0
0, 0
0, 0
0, 0
0, 0
0, 0
0, 0
1, 0
0, 0
0, 0
1, 0
0, 1
0, 2
0, 1
1, 0
0, 0
1, 0
0, 3
0, 0
1, 2
3, 1
3, 1
7, 9
4, 18
16, 28
49, 45
61, 59
76, 60
69, 77
71, 76
64, 68
42, 48
29, 18
14, 11
7, 11
6, 6
4, 0
3, 1
5, 2
2, 5
2, 10
8, 12
19, 26
47, 40
104, 124
188, 187
271, 294
334, 393
417, 502
458, 464
397, 382
325, 299
243, 189
136, 112
84, 70
49, 38
24, 19
8, 7
9, 5
2, 5
0, 3
3, 4
0, 1
0, 2
0, 0
4, 1
0, 0
0, 2
2, 1
1, 1
3, 2
3, 6
4, 4
3, 4
2, 5
2, 3
1, 3
0, 3
1, 2
4, 4
8, 5
7, 5
16, 13
17, 13
14, 12
30, 25
30, 29
39, 38
31, 39
33, 30
38, 34
34, 30
27, 28
21, 25
22, 16
20, 16
21, 19
14, 18
19, 14
14, 11
14, 10
8, 9
6, 15
2, 3
8, 6
2, 4
3, 5
4, 2
3, 6
2, 1
1, 0
2, 2
2, 3
1, 2
0, 3
2, 1
1, 3
1, 2
2, 3
1, 1
3, 1
2, 1
2, 0
3, 1
6, 4
1, 4
6, 7
5, 5
5, 17
17, 10
13, 13
17, 9
13, 12
13, 8
13, 11
9, 6
8, 4
4, 6
1, 8
3, 6
5, 4
3, 5
4, 5
4, 6
6, 5
3, 5
5, 3
4, 3
4, 1
1, 3
3, 3
7, 3
5, 2
3, 6
4, 3
1, 2
4, 6
2, 7
4, 2
4, 4
3, 4
5, 3
6, 6
4, 9
11, 8
9, 12
9, 6
16, 10
18, 4
10, 13
20, 9
7, 11
10, 12
11, 11
11, 10
10, 9
9, 10
6, 5
3, 8
7, 10
4, 21
2, 28
3, 35
6, 49
5, 52
11, 70
3, 73
9, 89
4, 78
6, 59
1, 50
6, 37
2, 19
4, 15
3, 8
8, 11
2, 7
4, 3
8, 4
4, 6
5, 15
11, 11
12, 8
12, 12
6, 16
12, 14
18, 14
14, 4
10, 11
10, 11
9, 6
6, 13
5, 7
9, 9
10, 8
4, 12
3, 5
9, 16
11, 9
20, 18
31, 30
31, 45
36, 63
50, 47
70, 67
54, 66
64, 61
50, 47
35, 34
32, 32
22, 14
17, 18
20, 14
12, 20
26, 22
19, 33
48, 53
74, 110
152, 206
300, 361
454, 645
758, 976
1096, 1328
1534, 1825
1927, 2130
2334, 2474
2317, 2501
2329, 2346
2200, 1942
1764, 1552
1303, 1074
956, 755
595, 455
370, 270
199, 149
111, 79
60, 39
29, 31
22, 17
19, 16
11, 16
16, 15
17, 21
26, 18
20, 37
28, 39
39, 52
62, 75
106, 121
129, 182
181, 246
260, 305
316, 334
314, 385
369, 347
314, 328
329, 292
265, 213
168, 158
127, 115
95, 70
46, 49
35, 29
13, 19
7, 16
13, 20
10, 23
7, 24
9, 44
7, 41
12, 63
12, 67
12, 67
15, 74
14, 61
10, 81
7, 53
6, 60
10, 55
7, 48
7, 31
6, 25
7, 13
9, 11
7, 14
15, 9
10, 6
12, 6
12, 2
15, 2
10, 7
11, 0
8, 2
11, 1
6, 7
4, 6
5, 5
6, 6
5, 8
5, 5
5, 3
2, 3
3, 3
10, 4
0, 3
9, 5
7, 9
5, 3
6, 3
5, 6
2, 5
5, 4
2, 1
1, 5
0, 3
2, 6
5, 4
3, 6
4, 3
3, 2
3, 3
3, 3
5, 2
7, 4
7, 0
2, 4
7, 4
5, 0
3, 3
6, 0
4, 4
7, 1
8, 1
4, 4
3, 5
6, 2
4, 0
3, 4
3, 5
4, 7
6, 8
1, 8
2, 2
3, 9
1, 3
3, 2
5, 7
1, 7
2, 8
1, 4
4, 3
4, 5
4, 4
3, 3
0, 2
6, 1
2, 2
4, 5
4, 2
4, 3
3, 4
4, 3
1, 3
3, 1
1, 2
0, 5
1, 2
5, 3
7, 3
5, 6
5, 5
4, 4
7, 3
4, 2
5, 4
6, 2
1, 8
2, 4
2, 5
3, 5
6, 7
2, 2
9, 6
3, 5
4, 2
5, 3
3, 3
2, 3
3, 3
5, 3
3, 5
4, 7
4, 11
3, 3
2, 2
2, 2
3, 1
3, 2
0, 0
4, 1
4, 4
2, 3
3, 3
3, 2
5, 2
3, 2
0, 2
3, 3
2, 0
2, 2
2, 4
1, 3
0, 2
2, 5
5, 3
4, 3
3, 1
1, 0
2, 0
2, 0
3, 2
4, 2
3, 3
7, 0
7, 1
5, 0
4, 0
5, 2
6, 1
6, 3
4, 3
2, 1
4, 1
4, 2
1, 2
4, 1
1, 1
4, 1
2, 2
2, 0
2, 1
1, 4
1, 8
8, 2
2, 4
1, 5
3, 4
2, 2
3, 1
1, 0
2, 2
1, 3
1, 0
1, 2
3, 2
2, 1
1, 2
3, 2
0, 2
5, 1
2, 0
1, 2
3, 1
1, 3
3, 1
1, 0
1, 1
2, 3
1, 2
2, 2
0, 4
0, 2
2, 1
2, 1
0, 2
3, 2
2, 1
4, 5
2, 1
7, 1
2, 1
0, 5
2, 0
3, 1
0, 1
2, 2
5, 3
1, 2
1, 1
2, 5
2, 5
2, 1
2, 2
2, 7
3, 3
0, 6
0, 3
3, 4
4, 2
2, 2
3, 1
4, 0
3, 4
2, 4
2, 1
2, 4
0, 0
1, 0
1, 0
1, 1
3, 2
0, 0
9, 2
0, 3
5, 1
4, 0
4, 0
7, 2
3, 4
2, 0
2, 0
0, 1
4, 2
1, 3
2, 1
9, 3
6, 1
1, 5
2, 2
0, 2
4, 1
0, 4
1, 0
0, 3
1, 0
0, 0
0, 1
1, 1
0, 2
1, 0
2, 4
2, 1
2, 1
2, 0
0, 1
1, 1
0, 2
1, 0
0, 3
1, 0
0, 0
1, 4
0, 5
0, 1
1, 2
1, 2
1, 1
0, 0
1, 1
0, 0
0, 0
0, 0
2, 0
0, 0
2, 0
2, 0
1, 1
1, 0
2, 0
0, 0
1, 1
0, 0
2, 1
0, 1
0, 0
0, 0
1, 0
0, 1
0, 1
0, 3
0, 0
0, 1
1, 1
0, 0
0, 2
0, 2
1, 1
1, 1
1, 1
2, 0
0, 1
1, 1
0, 1
0, 1
1, 0
0, 2
0, 1
1, 0
2, 1
1, 0
1, 4
0, 6
1, 1
0, 0
1, 2
2, 0
1, 1
1, 1
1, 1
2, 0
0, 1
1, 0
1, 3
3, 0
0, 0
0, 3
0, 1
0, 1
0, 0
1, 0
0, 0
0, 2
0, 0
1, 3
0, 0
1, 0
0, 1
0, 0
1, 0
0, 1
0, 0
0, 0
0, 1
0, 0
0, 0
0, 0
1, 1
2, 2
0, 1
1, 0
0, 1
0, 0
1, 1
0, 0
0, 1
0, 0
0, 1
1, 0
0, 1
0, 0
1, 0
0, 0
0, 1
0, 0
0, 0
1, 0
0, 0
0, 0
0, 0
0, 0
0, 0
1, 0
1, 0
0, 0
0, 2
0, 0
0, 0
0, 1
0, 0
0, 1
1, 0
0, 0
0, 0
0, 0
0, 1
0, 0
0, 1
0, 0
0, 0
1, 0
0, 0
0, 1
2, 0
0, 0
1, 0
0, 0
1, 0
0, 0
1, 1
0, 0
0, 1
0, 0
1, 0
0, 0
0, 1
0, 0
0, 0
0, 0
0, 0
0, 0
0, 0
0, 1
0, 1
1, 0
1, 0
1, 0
2, 0
0, 0
0, 1
0, 1
0, 0
0, 0
1, 0
0, 0
0, 0
0, 0
0, 0
0, 0
0, 0
0, 0
0, 0
0, 0
0, 0
0, 0
0, 1
0, 0
0, 0
0, 1
0, 0
0, 0
0, 0
0, 0
1, 1
0, 1
0, 0
0, 0
0, 0
0, 0
0, 0
0, 0
1, 1
0, 1
0, 1
0, 0
0, 0
1, 0
1, 1
1, 2
0, 0
0, 1
2, 0
0, 1
0, 1
0, 0
0, 0
0, 0
1, 1
0, 0
0, 0
0, 0
1, 0
0, 0
0, 0
1, 0
0, 0
0, 0
0, 0
0, 0
1, 0
1, 0
1, 0
0, 0
0, 0
0, 0
0, 0
0, 0
0, 0
0, 1
0, 0
0, 0
0, 0
1, 0
0, 0
0, 0
0, 0
0, 0
0, 0
0, 0
0, 1
0, 0
0, 0
0, 0
0, 0
0, 0
1, 1
0, 0
0, 0
2, 0
0, 0
0, 1
0, 0
0, 0
1, 0
0, 0
0, 0
0, 0
1, 0
0, 0
0, 0
0, 0
0, 0
0, 1
0, 0
0, 0
0, 0
0, 0
0, 0
1, 0
0, 0
0, 0
0, 0
0, 0
0, 0
0, 0
0, 0
0, 0
0, 0
0, 0
0, 0
0, 1
0, 0
1, 0
0, 0
0, 0
0, 0
0, 0
0, 0
0, 0
0, 0
0, 0
0, 0
0, 0
0, 0
0, 0
0, 0
0, 0
0, 0
0, 0
0, 0
0, 0
1, 0
0, 0
0, 0
0, 0
0, 0
0, 0
0, 0
0, 0
0, 0
0, 0
0, 0
0, 0
0, 0
0, 0
0, 0
0, 0
0, 0
0, 0
0, 0
0, 0
0, 0
0, 0
0, 0
0, 0
0, 0
0, 0
0, 0
0, 0
0, 0
0, 0
0, 0
0, 0
0, 0
0, 0
0, 0
0, 0
0, 0
0, 0
1, 0
0, 0
0, 0
0, 0
0, 0
0, 0
0, 0
1, 0
0, 0
0, 0
0, 0
0, 0
0, 1
0, 0
0, 0
0, 0
0, 0
0, 0
0, 0
0, 0
0, 0
0, 0
0, 0
0, 0
0, 0
0, 0
0, 0
0, 0
0, 0
0, 0
0, 0
0, 0
0, 0
0, 0
0, 0
0, 0
0, 0
0, 1
0, 0
0, 0
0, 0
0, 0
0, 0
0, 0
0, 0
1, 0
0, 0
0, 0
0, 0
0, 0
0, 0
0, 0
0, 0
0, 0
0, 0
0, 0
0, 0
0, 0
0, 0
0, 0
0, 0
0, 0
0, 0
0, 0
0, 0
0, 0
0, 0
0, 0
0, 0
0, 0
0, 0
0, 1
0, 0
0, 0
0, 0
0, 0
0, 0
0, 0
0, 0
0, 0
0, 0
0, 0
0, 0
0, 0
0, 0
0, 0
0, 0
0, 0
0, 0
0, 0
0, 0
0, 0
0, 0
0, 0
0, 0
0, 0
0, 0
0, 0
0, 0
0, 0
0, 0
0, 0
0, 0
0, 0
0, 0
0, 0
0, 0
0, 0
0, 0
0, 0
0, 0
0, 0
0, 0
0, 0
0, 0
0, 0
0, 0
0, 0
0, 0
0, 0
0, 0
0, 0
0, 0
0, 0
0, 0
0, 0
0, 0
0, 0
0, 0
0, 0
0, 0
0, 0
0, 0
0, 0
0, 0
0, 0
0, 0
0, 0
0, 0
0, 0
0, 0
0, 0
0, 0
0, 0
0, 0
0, 0
0, 0
0, 0
0, 0
0, 0
0, 0
0, 0
0, 0
0, 0
0, 0
0, 0
0, 0
0, 0
0, 0
0, 0
0, 0
0, 0
0, 0
0, 0
0, 0
0, 0
0, 0
0, 0
0, 0
0, 0
0, 0
0, 0
0, 0
0, 0
0, 0
0, 0
0, 0
0, 0
0, 0
0, 0
0, 0
0, 0
0, 0
0, 0
0, 0
0, 0
0, 0
0, 0
0, 0
0, 0
0, 0
0, 0
0, 0
0, 0
0, 0
0, 0
0, 0
0, 0
0, 0
0, 0
0, 0
0, 0
0, 0
0, 0
0, 0
0, 0
0, 0
0, 0
0, 0
0, 0
0, 0
0, 0
0, 0
0, 0
0, 0
0, 0
0, 0
0, 0
0, 0
0, 0
0, 0
0, 0
0, 0
0, 0
0, 0
0, 0
0, 0
0, 0
0, 0
0, 0
0, 0
0, 0
0, 0
0, 0
0, 0
0, 0
0, 0
0, 0
0, 0
0, 0
0, 0
0, 0
0, 0
0, 0
0, 0
0, 0
0, 0
0, 0
0, 0
0, 0
0, 0
0, 0
0, 0
0, 0
0, 0
0, 0
0, 0
0, 0
0, 0
0, 0
0, 0
0, 0
0, 0
0, 0
0, 0
0, 0
0, 0
0, 0
0, 0
0, 0
0, 0
0, 0
0, 0
0, 0
0, 0
0, 0
0, 0
0, 0
0, 0
0, 0
0, 0
0, 0
0, 0
0, 0
0, 0
0, 0
0, 0
0, 0
0, 0
0, 0
0, 0
0, 0
0, 0
0, 0
0, 0
0, 0
0, 0
0, 0
0, 0
0, 0
0, 0
0, 0
0, 0
0, 0
0, 0
0, 0
0, 0
0, 0
0, 0
0, 0
0, 0
0, 0
0, 0
0, 0
0, 0
0, 0
0, 0
0, 0
0, 0
0, 0
0, 0
0, 0
0, 0
0, 0
0, 0
0, 0
0, 0
0, 0
0, 0
0, 0
0, 0
0, 0
0, 0
0, 0
0, 0
0, 0
0, 0
0, 0
0, 0
0, 0
0, 0
0, 0
0, 0
0, 0
0, 0
0, 0
0, 0
0, 0
0, 0
0, 0
0, 0
0, 0
0, 0
0, 0
0, 0
0, 0
0, 0
0, 0
0, 0
0, 0
0, 0
0, 0
0, 0
0, 0
0, 0
0, 0
0, 0
0, 0
0, 0
0, 0
0, 0
0, 0
0, 0
0, 0
0, 0
0, 0
0, 0
0, 0
0, 0
0, 0
0, 0
0, 0
0, 0
0, 0
0, 0
0, 0
0, 0
0, 0
0, 0
0, 0
0, 0
0, 0
0, 0
0, 0
0, 0
0, 0
0, 0
0, 0
0, 0
0, 0
0, 0
0, 0
0, 0
0, 0
0, 0
0, 0
0, 0
0, 0
0, 0
0, 0
0, 0
0, 0
0, 0
0, 0
0, 0
0, 0
0, 0
0, 0
0, 0
0, 0
0, 0
0, 0
0, 0
0, 0
0, 0
0, 0
0, 0
0, 0
0, 0
0, 0
0, 0
0, 0
#ENDOFDATA     end of spectrum data