File: host_upload/06-09-2024/ps_0852/dump3/ps__0852shot_2365.msa
#FORMAT      : EMSA/MAS spectral data file
#VERSION     : TC202v2.0 PIXL
#TITLE       : N/A
#DATE        :       Date in the format DD-MMM-YYYY, for example 07-JUL-2010
#TIME        :             The time of day at which the spectrum was recorded, in 24-hour format
#OWNER       : PIXL Flight Model       (PIXL will use this to indicate which instrument took the data.)
#NPOINTS     : 4096     Number of data points in the spectrum (This can be zero for configuration only files)
#NCOLUMNS    : 2     Number of data columns in the spectrum (This can be zero for configuration only files)
#XUNITS      : eV
#YUNITS      : COUNTS
#DATATYPE    : YY
#XPERCHAN    : 7.862, 7.881   eV per channel (separate by commas if more than one detector)
#OFFSET      : 18.5, -22.4         eV of first channel  (separate by commas if more than one detector
#SIGNALTYPE  : XRF
#YP_TEMP     : 2.3
#LIVETIME    : 8.53128, 8.56347   seconds (separate by commas if more than one detector)
#REALTIME    : 10, 10.0   seconds (separate by commas if more than one detector)
#SPECTRUM    : start of spectrum data
0, 0
0, 0
0, 0
0, 0
0, 0
0, 0
0, 0
0, 0
0, 0
0, 0
0, 0
0, 0
0, 0
0, 0
0, 0
0, 0
0, 0
0, 0
0, 0
0, 0
0, 0
0, 0
0, 0
0, 0
0, 0
0, 0
0, 0
0, 0
0, 0
0, 0
0, 0
0, 0
1, 0
0, 0
0, 0
2, 0
1, 0
0, 0
1, 1
2, 1
4, 2
7, 0
3, 3
4, 0
1, 1
3, 1
5, 1
3, 6
8, 1
14, 11
16, 16
33, 39
41, 66
57, 66
88, 87
64, 73
57, 64
30, 56
24, 30
14, 14
6, 5
1, 0
6, 6
3, 2
5, 2
2, 5
3, 4
10, 8
14, 18
42, 55
76, 119
158, 174
242, 293
309, 378
386, 464
441, 442
319, 442
251, 309
175, 214
111, 139
69, 66
26, 32
21, 19
8, 10
2, 9
4, 3
1, 2
1, 2
2, 2
2, 2
0, 2
2, 1
0, 0
0, 2
1, 4
3, 2
1, 2
3, 1
2, 3
0, 5
1, 2
2, 2
1, 1
0, 4
3, 3
3, 7
4, 5
7, 9
20, 11
38, 13
43, 16
93, 25
143, 52
184, 42
213, 70
214, 85
216, 71
163, 52
161, 45
123, 53
62, 23
44, 43
29, 22
35, 20
22, 18
19, 13
14, 13
22, 14
12, 9
14, 6
3, 7
2, 2
1, 2
7, 6
4, 1
1, 1
2, 1
1, 2
1, 6
2, 1
1, 3
1, 3
0, 3
1, 2
2, 1
1, 0
2, 4
1, 1
1, 1
2, 0
5, 1
3, 6
8, 5
6, 5
10, 11
14, 15
15, 15
20, 17
11, 18
10, 24
20, 6
13, 9
11, 3
3, 3
1, 3
1, 0
4, 1
2, 5
4, 1
6, 1
4, 3
10, 3
20, 6
20, 5
30, 2
16, 4
25, 0
24, 5
22, 4
17, 6
14, 3
9, 4
12, 1
3, 5
9, 3
5, 5
4, 7
6, 13
9, 4
7, 11
7, 11
8, 13
7, 16
21, 20
10, 18
12, 28
10, 22
14, 26
12, 31
10, 35
10, 42
11, 54
15, 51
9, 51
15, 42
12, 52
18, 48
14, 31
8, 18
16, 13
18, 12
17, 11
17, 14
14, 17
13, 6
11, 14
9, 13
6, 9
8, 8
5, 12
10, 11
8, 16
4, 13
14, 13
7, 4
11, 10
9, 12
10, 18
13, 6
12, 11
15, 16
6, 17
17, 8
21, 8
29, 10
25, 7
24, 7
34, 9
23, 12
21, 9
20, 11
22, 11
25, 11
16, 9
18, 16
21, 42
36, 45
42, 48
41, 67
62, 69
58, 66
61, 61
58, 53
50, 52
40, 49
31, 46
16, 24
21, 22
16, 28
17, 27
18, 35
23, 48
39, 84
79, 132
157, 236
263, 397
459, 631
757, 1042
1115, 1375
1411, 1978
1843, 2328
2188, 2590
2316, 2661
2203, 2566
2003, 2110
1559, 1690
1264, 1202
847, 802
544, 523
331, 303
184, 178
100, 104
49, 67
34, 46
27, 39
22, 37
24, 43
25, 30
29, 22
29, 37
24, 37
45, 44
52, 64
55, 99
112, 133
152, 210
190, 263
255, 302
278, 334
347, 410
351, 383
313, 345
297, 318
242, 245
160, 167
137, 107
69, 70
53, 46
35, 25
28, 16
8, 10
11, 7
7, 5
9, 10
10, 12
8, 18
17, 24
12, 9
29, 16
17, 14
11, 18
12, 20
6, 12
7, 8
5, 8
7, 4
2, 7
6, 8
3, 5
12, 7
4, 3
4, 12
3, 5
3, 7
3, 9
7, 1
1, 12
2, 7
6, 8
2, 5
6, 7
2, 8
2, 7
4, 7
9, 5
9, 5
8, 3
12, 6
21, 9
18, 8
20, 7
32, 6
19, 7
23, 6
16, 2
12, 7
27, 5
15, 6
22, 11
7, 10
6, 9
8, 8
7, 8
1, 5
8, 13
2, 6
5, 7
5, 7
1, 6
6, 4
3, 2
5, 1
6, 6
3, 1
3, 7
2, 0
3, 3
4, 2
3, 1
6, 5
6, 6
4, 11
5, 4
3, 9
4, 1
3, 5
4, 5
1, 4
3, 2
4, 3
2, 3
3, 3
4, 4
1, 3
6, 5
4, 4
7, 6
2, 5
3, 7
1, 5
1, 5
1, 4
3, 11
4, 2
0, 8
1, 5
3, 6
0, 5
3, 7
4, 8
3, 6
2, 6
2, 1
8, 6
3, 6
4, 5
6, 4
2, 3
3, 4
3, 6
5, 4
2, 5
5, 6
7, 4
2, 5
3, 2
2, 2
6, 7
5, 7
3, 5
2, 7
2, 5
1, 1
4, 4
5, 5
5, 12
3, 6
3, 6
0, 13
2, 10
3, 7
1, 7
3, 5
0, 4
1, 4
3, 3
4, 3
1, 3
3, 3
3, 4
1, 3
3, 0
3, 1
5, 2
3, 4
4, 4
4, 5
1, 2
5, 1
2, 5
3, 2
4, 1
2, 3
4, 5
5, 5
10, 3
3, 4
1, 2
0, 3
2, 5
2, 4
0, 1
2, 2
4, 2
7, 1
4, 5
1, 3
2, 5
2, 5
0, 3
3, 1
1, 1
1, 4
3, 3
1, 5
2, 2
3, 4
1, 1
5, 1
3, 3
1, 3
1, 3
4, 2
0, 2
2, 1
1, 0
1, 0
2, 0
2, 1
1, 7
4, 0
1, 1
4, 1
3, 1
1, 1
1, 2
0, 3
2, 2
2, 3
3, 3
2, 1
3, 2
1, 3
0, 1
4, 0
1, 1
1, 3
2, 4
1, 6
2, 3
3, 1
1, 0
4, 1
1, 3
3, 1
4, 2
3, 1
3, 5
1, 2
4, 0
1, 2
0, 2
7, 0
5, 1
7, 4
1, 5
1, 2
4, 5
3, 5
2, 3
3, 8
4, 7
7, 3
6, 4
0, 4
6, 7
3, 7
3, 5
2, 3
6, 4
1, 3
2, 2
1, 1
1, 2
2, 3
2, 2
2, 2
4, 3
1, 1
4, 1
0, 2
2, 1
1, 2
5, 3
2, 0
2, 0
0, 1
0, 2
1, 2
2, 2
1, 1
3, 4
0, 1
1, 2
1, 1
0, 1
1, 1
1, 1
3, 1
2, 3
0, 0
0, 1
1, 0
1, 1
1, 0
2, 0
0, 0
2, 0
0, 2
0, 2
1, 2
1, 0
2, 2
3, 2
2, 2
0, 2
2, 1
3, 2
0, 2
1, 1
0, 1
0, 4
0, 0
0, 0
0, 0
1, 1
0, 1
1, 1
1, 2
0, 1
3, 1
1, 1
0, 0
0, 0
1, 4
0, 0
0, 1
0, 0
2, 3
0, 1
0, 0
1, 1
0, 0
1, 1
0, 0
1, 0
0, 1
1, 1
0, 3
2, 0
1, 0
1, 2
1, 0
1, 0
0, 2
2, 1
2, 2
0, 0
0, 1
1, 0
0, 1
1, 0
1, 0
1, 1
0, 2
2, 1
0, 1
2, 0
2, 1
0, 0
0, 0
0, 2
0, 0
0, 0
0, 3
0, 2
1, 0
0, 2
0, 1
1, 0
1, 0
1, 1
0, 0
1, 1
0, 1
0, 1
0, 1
0, 0
0, 0
0, 0
0, 2
0, 1
0, 1
0, 3
1, 1
0, 1
1, 0
1, 0
1, 0
1, 0
0, 1
2, 0
0, 1
0, 0
0, 0
0, 1
1, 0
1, 0
1, 2
0, 0
0, 1
0, 1
1, 0
0, 0
0, 0
1, 0
0, 5
1, 1
1, 0
0, 1
0, 1
0, 0
0, 1
1, 0
0, 0
2, 1
0, 0
2, 0
0, 1
0, 1
0, 0
0, 0
1, 0
0, 0
0, 0
0, 0
0, 0
1, 0
0, 0
0, 0
1, 2
0, 0
0, 0
0, 0
1, 0
0, 1
0, 0
0, 1
1, 0
0, 1
1, 0
0, 0
0, 1
0, 1
1, 0
0, 0
0, 0
1, 0
1, 0
0, 0
0, 1
0, 0
1, 0
1, 0
0, 0
0, 1
0, 0
0, 1
0, 0
1, 0
0, 0
0, 0
0, 0
0, 0
1, 0
0, 0
0, 0
1, 0
0, 0
0, 0
0, 0
1, 0
0, 0
0, 1
0, 0
0, 1
1, 0
0, 0
0, 0
1, 0
0, 0
0, 1
0, 0
0, 0
0, 0
0, 1
0, 0
1, 1
0, 0
0, 0
1, 0
1, 0
0, 0
0, 0
1, 0
0, 0
0, 1
0, 0
0, 1
0, 0
0, 1
1, 0
0, 1
0, 0
0, 0
0, 1
0, 1
0, 0
1, 0
0, 0
0, 2
0, 0
0, 0
0, 0
1, 0
0, 0
0, 0
0, 0
0, 0
0, 0
0, 0
0, 0
0, 1
0, 0
1, 0
0, 0
0, 0
0, 0
0, 0
2, 0
0, 0
0, 0
0, 0
0, 0
0, 1
0, 1
0, 0
0, 0
0, 0
0, 0
0, 0
1, 0
0, 1
0, 0
0, 1
0, 0
0, 0
0, 0
0, 0
0, 0
0, 0
0, 1
0, 0
0, 0
0, 1
0, 0
1, 0
0, 1
0, 0
0, 1
0, 0
1, 0
0, 0
0, 0
0, 0
0, 0
1, 0
0, 0
0, 0
0, 0
1, 0
0, 0
0, 0
0, 0
0, 0
0, 0
0, 0
0, 0
0, 0
2, 0
0, 0
0, 0
1, 0
0, 0
0, 0
0, 0
0, 0
0, 0
0, 0
0, 0
0, 0
0, 0
1, 0
0, 0
0, 0
0, 0
0, 0
0, 0
0, 1
0, 0
0, 1
0, 0
0, 0
0, 0
0, 0
0, 0
0, 0
0, 0
0, 0
0, 0
0, 0
0, 0
0, 0
1, 0
0, 0
1, 0
1, 0
1, 0
0, 0
0, 0
0, 0
0, 0
1, 0
0, 0
0, 0
0, 0
0, 0
0, 0
0, 0
0, 0
0, 0
0, 0
0, 0
0, 0
0, 0
0, 0
0, 0
0, 0
0, 0
0, 0
0, 0
0, 0
0, 0
0, 0
0, 0
0, 0
0, 0
0, 0
0, 0
0, 0
0, 0
0, 1
0, 0
0, 0
0, 0
0, 0
0, 0
0, 0
0, 0
0, 0
0, 0
0, 0
1, 0
0, 0
0, 0
0, 0
0, 0
0, 0
0, 0
0, 0
0, 0
0, 0
1, 0
0, 0
0, 1
0, 0
0, 0
0, 0
0, 0
0, 0
0, 0
0, 0
0, 0
0, 0
0, 0
0, 0
0, 0
0, 0
0, 0
0, 0
0, 0
0, 0
0, 0
0, 0
0, 0
0, 0
0, 0
0, 0
0, 0
0, 1
0, 0
0, 0
0, 0
0, 0
0, 0
0, 0
0, 0
0, 0
0, 0
0, 0
0, 0
0, 0
0, 0
0, 0
0, 0
0, 0
0, 0
0, 0
0, 0
0, 0
0, 0
0, 0
0, 0
0, 0
0, 0
0, 0
0, 0
0, 0
0, 0
0, 0
0, 0
0, 0
0, 0
0, 0
0, 0
0, 0
0, 0
0, 0
0, 0
0, 0
0, 0
0, 0
0, 0
0, 0
0, 0
0, 0
0, 0
0, 0
0, 0
0, 0
0, 0
0, 0
0, 0
0, 0
0, 0
0, 0
0, 0
0, 0
0, 0
0, 0
0, 0
0, 0
0, 0
0, 0
0, 0
0, 0
0, 0
0, 0
0, 0
0, 0
0, 0
0, 0
0, 0
0, 0
0, 0
0, 0
0, 0
0, 0
0, 0
0, 0
0, 0
0, 0
0, 0
0, 0
0, 0
0, 0
0, 0
0, 0
0, 0
0, 0
0, 0
0, 0
0, 0
0, 0
0, 0
0, 0
0, 0
0, 0
0, 0
0, 0
0, 0
0, 0
0, 0
0, 0
0, 0
0, 0
0, 0
0, 0
0, 0
0, 0
0, 0
0, 0
0, 0
0, 0
0, 0
0, 0
0, 0
0, 0
0, 0
0, 0
0, 0
0, 0
0, 0
0, 0
0, 0
0, 0
0, 0
0, 0
0, 0
0, 0
0, 0
0, 0
0, 0
0, 0
0, 0
0, 0
0, 0
0, 0
0, 0
0, 0
0, 0
0, 0
0, 0
0, 0
0, 0
0, 0
0, 0
0, 0
0, 0
0, 0
0, 0
0, 0
0, 0
0, 0
0, 0
0, 0
0, 0
0, 0
0, 0
0, 0
0, 0
0, 0
0, 0
0, 0
0, 0
0, 0
0, 0
0, 0
0, 0
0, 0
0, 0
0, 0
0, 0
0, 0
0, 0
0, 0
0, 0
0, 0
0, 0
0, 0
0, 0
0, 0
0, 0
0, 0
0, 0
0, 0
0, 0
0, 0
0, 0
0, 0
0, 0
0, 0
0, 0
0, 0
0, 0
0, 0
0, 0
0, 0
0, 0
0, 0
0, 0
0, 0
0, 0
0, 0
0, 0
0, 0
0, 0
0, 0
0, 0
0, 0
0, 0
0, 0
0, 0
0, 0
0, 0
0, 0
0, 0
0, 0
0, 0
0, 0
0, 0
0, 0
0, 0
0, 0
0, 0
0, 0
0, 0
0, 0
0, 0
0, 0
0, 0
0, 0
0, 0
0, 0
0, 0
0, 0
0, 0
0, 0
0, 0
0, 0
0, 0
0, 0
0, 0
0, 0
0, 0
0, 0
0, 0
0, 0
0, 0
0, 0
0, 0
0, 0
0, 0
0, 0
0, 0
0, 0
0, 0
0, 0
0, 0
0, 0
0, 0
0, 0
0, 0
0, 0
0, 0
0, 0
0, 0
0, 0
0, 0
0, 0
0, 0
0, 0
0, 0
0, 0
0, 0
0, 0
0, 0
0, 0
0, 0
0, 0
0, 0
0, 0
0, 0
0, 0
0, 0
0, 0
0, 0
0, 0
0, 0
0, 0
0, 0
0, 0
0, 0
0, 0
0, 0
0, 0
0, 0
0, 0
0, 0
0, 0
0, 0
0, 0
0, 0
0, 0
0, 0
0, 0
0, 0
0, 0
0, 0
0, 0
0, 0
0, 0
0, 0
0, 0
0, 0
0, 0
0, 0
0, 0
0, 0
0, 0
0, 0
0, 0
0, 0
0, 0
0, 0
0, 0
0, 0
0, 0
0, 0
0, 0
0, 0
0, 0
0, 0
0, 0
0, 0
0, 0
0, 0
0, 0
0, 0
0, 0
0, 0
0, 0
0, 0
0, 0
0, 0
0, 0
0, 0
0, 0
0, 0
0, 0
0, 0
0, 0
0, 0
0, 0
0, 0
0, 0
0, 0
0, 0
0, 0
0, 0
0, 0
0, 0
0, 0
0, 0
0, 0
0, 0
0, 0
0, 0
0, 0
0, 0
0, 0
0, 0
0, 0
0, 0
0, 0
0, 0
#ENDOFDATA     end of spectrum data