File: host_upload/06-09-2024/ps_0852/dump3/ps__0852shot_2302.msa
#FORMAT      : EMSA/MAS spectral data file
#VERSION     : TC202v2.0 PIXL
#TITLE       : N/A
#DATE        :       Date in the format DD-MMM-YYYY, for example 07-JUL-2010
#TIME        :             The time of day at which the spectrum was recorded, in 24-hour format
#OWNER       : PIXL Flight Model       (PIXL will use this to indicate which instrument took the data.)
#NPOINTS     : 4096     Number of data points in the spectrum (This can be zero for configuration only files)
#NCOLUMNS    : 2     Number of data columns in the spectrum (This can be zero for configuration only files)
#XUNITS      : eV
#YUNITS      : COUNTS
#DATATYPE    : YY
#XPERCHAN    : 7.862, 7.881   eV per channel (separate by commas if more than one detector)
#OFFSET      : 18.5, -22.4         eV of first channel  (separate by commas if more than one detector
#SIGNALTYPE  : XRF
#YP_TEMP     : 2.043
#LIVETIME    : 8.56855, 8.57274   seconds (separate by commas if more than one detector)
#REALTIME    : 10, 10.0   seconds (separate by commas if more than one detector)
#SPECTRUM    : start of spectrum data
0, 0
0, 0
0, 0
0, 0
0, 0
0, 0
0, 0
0, 0
0, 0
0, 0
0, 0
0, 0
0, 0
0, 0
0, 0
0, 0
0, 0
0, 0
0, 0
0, 0
0, 0
0, 0
0, 0
0, 0
0, 0
0, 0
0, 0
0, 0
0, 0
0, 0
0, 0
0, 0
0, 0
0, 0
0, 0
0, 1
0, 0
0, 0
0, 0
0, 0
2, 0
1, 1
0, 0
2, 0
2, 0
0, 0
0, 2
2, 6
6, 5
17, 13
25, 29
48, 45
72, 50
85, 82
97, 84
96, 57
63, 50
55, 36
32, 30
15, 18
9, 1
2, 3
4, 6
4, 1
5, 1
6, 3
4, 5
10, 11
28, 16
57, 49
106, 96
187, 154
278, 251
396, 325
419, 417
455, 338
420, 331
308, 243
205, 181
167, 106
68, 62
33, 33
22, 12
13, 9
2, 4
3, 4
1, 3
1, 0
1, 0
0, 3
2, 1
4, 1
3, 2
3, 0
3, 3
4, 3
3, 2
3, 2
4, 3
7, 4
3, 5
3, 2
5, 2
1, 3
1, 3
1, 1
5, 4
7, 3
5, 5
11, 10
5, 7
20, 14
24, 21
26, 16
37, 29
34, 18
30, 23
37, 18
21, 28
27, 26
25, 21
21, 17
16, 17
18, 9
14, 14
17, 13
17, 9
8, 5
4, 4
10, 4
1, 3
3, 3
2, 3
3, 0
1, 2
3, 2
3, 0
1, 5
0, 2
2, 1
1, 3
3, 0
2, 0
2, 0
0, 1
4, 1
2, 1
1, 3
6, 3
7, 2
10, 0
9, 3
17, 8
17, 6
19, 13
24, 8
27, 16
14, 15
20, 13
22, 10
19, 6
10, 8
12, 9
9, 8
4, 5
3, 4
6, 4
0, 1
5, 6
4, 5
5, 1
6, 4
6, 6
3, 2
3, 2
2, 5
3, 4
6, 7
5, 8
3, 3
8, 8
2, 5
1, 3
7, 3
8, 8
2, 3
6, 2
2, 5
6, 8
6, 5
5, 7
8, 6
17, 9
13, 15
14, 11
22, 10
15, 11
15, 9
20, 19
19, 18
19, 14
11, 12
12, 5
11, 6
4, 3
5, 3
2, 5
10, 5
8, 7
5, 1
12, 5
5, 6
6, 6
5, 8
8, 7
4, 8
10, 7
4, 1
5, 7
9, 5
8, 4
4, 7
9, 7
5, 4
8, 5
3, 9
11, 11
17, 11
22, 17
29, 8
34, 16
35, 13
31, 19
24, 16
30, 18
25, 21
30, 18
20, 20
16, 25
24, 34
14, 23
12, 27
8, 40
13, 27
15, 34
20, 24
32, 38
46, 37
55, 52
67, 47
67, 44
61, 48
63, 49
49, 34
55, 34
43, 28
27, 16
28, 19
20, 19
19, 14
16, 14
28, 25
52, 62
84, 97
156, 190
295, 340
534, 558
778, 900
1193, 1225
1609, 1717
2173, 2030
2423, 2300
2457, 2296
2539, 2178
2254, 1812
1780, 1400
1397, 1019
957, 648
606, 464
405, 215
186, 135
108, 83
52, 50
31, 26
21, 19
15, 15
18, 9
11, 18
21, 18
18, 10
33, 26
40, 47
47, 58
74, 87
116, 132
131, 172
200, 205
307, 296
336, 321
366, 332
408, 347
346, 273
298, 269
247, 174
228, 145
140, 102
96, 57
76, 43
45, 26
23, 13
15, 12
16, 5
17, 4
9, 8
23, 14
12, 7
15, 11
16, 13
18, 20
13, 8
14, 12
10, 12
12, 10
6, 9
5, 1
6, 6
3, 2
7, 4
5, 3
8, 2
2, 3
5, 3
5, 3
4, 5
5, 3
4, 6
7, 1
4, 5
4, 6
2, 5
2, 6
3, 8
1, 6
8, 6
3, 8
4, 9
6, 7
5, 3
7, 10
5, 8
7, 1
2, 8
3, 4
3, 2
7, 7
3, 7
2, 5
7, 3
6, 3
3, 5
4, 6
3, 3
2, 2
2, 2
4, 9
5, 9
10, 5
7, 6
7, 9
10, 5
4, 6
7, 1
6, 4
8, 4
7, 5
4, 7
4, 3
6, 4
3, 3
5, 7
5, 4
4, 8
3, 8
3, 12
1, 15
4, 15
4, 17
3, 24
2, 30
3, 27
3, 30
3, 30
7, 23
6, 21
1, 23
3, 17
5, 5
6, 7
4, 5
4, 3
6, 4
2, 4
3, 2
6, 3
4, 1
1, 2
2, 7
4, 3
2, 6
4, 5
1, 6
3, 5
2, 10
5, 7
0, 2
4, 5
4, 6
3, 12
4, 2
3, 0
3, 2
4, 3
1, 1
5, 2
1, 3
3, 1
2, 3
2, 3
4, 2
2, 5
2, 1
1, 1
3, 2
3, 4
2, 0
4, 1
2, 3
4, 5
2, 0
6, 4
1, 2
3, 4
1, 2
5, 0
4, 2
2, 3
10, 3
1, 1
1, 4
4, 1
1, 4
5, 0
2, 5
5, 3
3, 0
1, 2
3, 3
0, 3
1, 0
3, 3
3, 4
1, 7
2, 4
7, 1
4, 7
4, 3
9, 5
8, 3
2, 5
5, 3
5, 2
0, 1
2, 2
2, 9
3, 3
4, 4
1, 3
5, 5
0, 3
2, 2
5, 4
2, 5
2, 4
4, 5
0, 2
3, 5
3, 3
4, 3
0, 3
5, 3
3, 4
0, 0
5, 3
1, 5
4, 2
4, 4
3, 2
2, 1
1, 1
4, 2
4, 6
2, 0
0, 3
1, 2
0, 2
2, 2
0, 2
2, 1
2, 1
1, 3
1, 2
3, 5
3, 2
4, 2
2, 2
1, 2
1, 1
4, 4
4, 3
1, 6
1, 1
6, 2
3, 1
6, 0
3, 3
0, 2
5, 0
8, 1
5, 2
7, 3
4, 3
5, 2
2, 3
3, 3
1, 2
2, 3
5, 4
2, 4
8, 6
4, 2
5, 4
4, 3
5, 4
2, 5
4, 7
3, 0
3, 5
1, 5
4, 3
2, 3
2, 1
3, 0
2, 2
3, 1
2, 0
0, 0
0, 2
3, 0
1, 3
1, 2
0, 0
2, 0
1, 3
0, 0
2, 1
1, 0
0, 0
2, 2
0, 0
3, 3
0, 3
2, 2
4, 2
0, 3
1, 0
4, 1
2, 2
3, 1
1, 1
4, 1
0, 3
4, 1
1, 3
2, 0
2, 0
3, 0
2, 1
0, 0
0, 2
0, 2
1, 0
2, 0
0, 4
1, 0
0, 2
2, 0
1, 1
2, 0
3, 2
1, 0
2, 2
1, 1
2, 0
0, 2
2, 2
0, 0
0, 5
1, 0
3, 1
1, 1
1, 1
0, 1
1, 0
0, 0
2, 0
0, 1
0, 0
2, 1
1, 0
2, 1
2, 1
1, 0
0, 1
0, 0
2, 0
0, 1
0, 2
1, 0
2, 0
1, 1
1, 1
0, 0
0, 1
1, 1
0, 0
1, 0
2, 0
1, 1
0, 3
2, 0
0, 1
2, 2
0, 0
2, 0
0, 0
1, 2
2, 1
0, 1
1, 0
3, 0
0, 0
0, 0
2, 0
0, 1
0, 0
1, 1
0, 0
1, 1
1, 0
0, 0
1, 1
0, 0
1, 1
0, 0
0, 0
1, 0
1, 1
2, 1
1, 0
0, 2
0, 1
1, 1
0, 1
0, 0
0, 1
2, 0
1, 0
2, 0
2, 0
1, 0
0, 1
1, 0
1, 0
0, 0
0, 0
0, 0
1, 0
0, 1
1, 2
0, 0
0, 0
1, 1
1, 0
1, 1
0, 0
1, 0
0, 0
1, 0
1, 1
1, 0
0, 0
0, 2
0, 0
0, 0
0, 0
0, 1
0, 0
0, 0
0, 0
0, 0
0, 1
0, 0
0, 0
0, 0
0, 0
0, 0
0, 0
0, 1
0, 0
0, 1
0, 0
0, 0
0, 0
1, 0
0, 0
0, 0
1, 0
1, 0
0, 0
0, 1
0, 1
0, 0
0, 0
1, 0
0, 0
0, 0
0, 0
1, 0
1, 0
1, 1
0, 1
1, 0
0, 1
0, 0
0, 0
0, 0
0, 1
0, 0
0, 1
1, 0
1, 1
0, 0
0, 0
0, 1
0, 0
0, 0
1, 0
0, 0
0, 0
0, 1
0, 1
0, 0
0, 0
0, 0
0, 1
1, 0
2, 1
0, 0
0, 0
0, 0
1, 1
0, 0
0, 0
0, 0
0, 0
0, 0
0, 0
0, 0
0, 0
0, 1
2, 0
0, 0
0, 0
0, 0
0, 2
1, 0
1, 0
0, 1
0, 1
0, 0
0, 1
0, 0
1, 1
0, 0
1, 0
0, 1
0, 0
0, 0
0, 1
0, 0
0, 0
0, 0
0, 0
0, 0
0, 0
0, 0
0, 0
0, 0
0, 0
0, 0
0, 0
0, 0
0, 0
0, 0
0, 1
0, 0
0, 0
0, 1
0, 0
0, 0
0, 0
0, 1
1, 0
0, 1
0, 1
0, 1
0, 0
0, 0
0, 0
0, 0
1, 0
0, 0
0, 0
0, 1
0, 1
0, 0
0, 0
0, 0
0, 0
0, 0
0, 0
0, 0
0, 0
0, 1
0, 0
0, 0
0, 0
0, 0
0, 0
0, 0
0, 1
0, 0
1, 0
0, 2
1, 0
0, 0
0, 0
0, 0
0, 0
0, 0
0, 0
1, 0
0, 0
0, 1
0, 0
0, 0
0, 1
0, 0
0, 0
0, 0
0, 0
0, 0
0, 0
0, 0
0, 0
0, 0
0, 0
1, 0
0, 0
0, 0
0, 0
0, 0
0, 0
0, 0
0, 0
0, 0
0, 0
0, 0
0, 0
0, 0
0, 0
0, 0
0, 0
0, 0
1, 0
0, 0
0, 0
0, 0
0, 0
0, 0
0, 0
1, 0
0, 0
0, 0
0, 0
1, 0
0, 0
0, 0
0, 0
0, 0
0, 0
0, 0
0, 0
0, 0
0, 0
0, 0
0, 0
0, 0
0, 0
0, 0
1, 0
0, 0
0, 0
0, 0
0, 0
0, 0
0, 0
0, 0
0, 0
1, 0
0, 0
0, 0
0, 0
0, 0
0, 0
0, 0
0, 0
0, 0
0, 0
0, 0
0, 0
0, 0
0, 0
0, 0
0, 0
0, 0
0, 0
0, 0
0, 0
0, 0
0, 0
0, 0
0, 0
0, 0
0, 0
0, 0
0, 0
0, 0
0, 0
0, 0
0, 0
1, 0
0, 0
0, 0
0, 0
0, 0
0, 0
0, 0
0, 1
0, 0
0, 0
0, 0
0, 0
0, 0
1, 0
0, 0
0, 0
0, 0
0, 0
0, 0
0, 0
0, 0
0, 0
0, 0
0, 0
0, 0
0, 0
0, 0
0, 0
0, 0
0, 0
1, 0
0, 0
0, 0
0, 0
0, 0
0, 0
0, 0
0, 0
0, 0
0, 0
0, 0
0, 0
0, 0
0, 0
0, 0
0, 0
0, 0
0, 0
0, 0
0, 0
0, 0
0, 0
0, 0
0, 0
1, 0
0, 0
1, 0
0, 0
0, 0
0, 0
0, 0
0, 0
0, 0
0, 0
0, 0
0, 0
0, 0
0, 0
0, 0
0, 0
0, 0
0, 0
0, 0
0, 0
0, 0
0, 0
0, 0
0, 0
0, 0
0, 0
0, 0
0, 0
0, 0
0, 0
0, 0
0, 0
0, 0
0, 0
0, 0
0, 0
0, 0
0, 0
0, 0
0, 0
0, 0
0, 0
0, 0
0, 0
0, 0
0, 0
0, 0
0, 0
0, 0
0, 0
0, 0
0, 0
0, 0
0, 0
0, 0
0, 0
0, 0
0, 0
0, 0
0, 0
0, 0
0, 0
0, 0
0, 0
0, 0
0, 0
0, 0
0, 0
0, 0
0, 0
0, 0
0, 0
0, 0
0, 0
0, 0
0, 0
0, 0
0, 0
0, 0
0, 0
0, 0
0, 0
0, 0
0, 0
0, 0
0, 0
0, 0
0, 0
0, 0
0, 0
0, 0
0, 0
0, 0
0, 0
0, 0
0, 0
0, 0
0, 0
0, 0
0, 0
0, 0
0, 0
0, 0
0, 0
0, 0
0, 0
0, 0
0, 0
0, 0
0, 0
0, 0
0, 0
0, 0
0, 0
0, 0
0, 0
0, 0
0, 0
0, 0
0, 0
0, 0
0, 0
0, 0
0, 0
0, 0
0, 0
0, 0
0, 0
0, 0
0, 0
0, 0
0, 0
0, 0
0, 0
0, 0
0, 0
0, 0
0, 0
0, 0
0, 0
0, 0
0, 0
0, 0
0, 0
0, 0
0, 0
0, 0
0, 0
0, 0
0, 0
0, 0
0, 0
0, 0
0, 0
0, 0
0, 0
0, 0
0, 0
0, 0
0, 0
0, 0
0, 0
0, 0
0, 0
0, 0
0, 0
0, 0
0, 0
0, 0
0, 0
0, 0
0, 0
0, 0
0, 0
0, 0
0, 0
0, 0
0, 0
0, 0
0, 0
0, 0
0, 0
0, 0
0, 0
0, 0
0, 0
0, 0
0, 0
0, 0
0, 0
0, 0
0, 0
0, 0
0, 0
0, 0
0, 0
0, 0
0, 0
0, 0
0, 0
0, 0
0, 0
0, 0
0, 0
0, 0
0, 0
0, 0
0, 0
0, 0
0, 0
0, 0
0, 0
0, 0
0, 0
0, 0
0, 0
0, 0
0, 0
0, 0
0, 0
0, 0
0, 0
0, 0
0, 0
0, 0
0, 0
0, 0
0, 0
0, 0
0, 0
0, 0
0, 0
0, 0
0, 0
0, 0
0, 0
0, 0
0, 0
0, 0
0, 0
0, 0
0, 0
0, 0
0, 0
0, 0
0, 0
0, 0
0, 0
0, 0
0, 0
0, 0
0, 0
0, 0
0, 0
0, 0
0, 0
0, 0
0, 0
0, 0
0, 0
0, 0
0, 0
0, 0
0, 0
0, 0
0, 0
0, 0
0, 0
0, 0
0, 0
0, 0
0, 0
0, 0
0, 0
0, 0
0, 0
0, 0
0, 0
0, 0
0, 0
0, 0
0, 0
0, 0
0, 0
0, 0
0, 0
0, 0
0, 0
0, 0
0, 0
0, 0
0, 0
0, 0
0, 0
0, 0
0, 0
0, 0
0, 0
0, 0
0, 0
0, 0
0, 0
0, 0
0, 0
0, 0
0, 0
0, 0
0, 0
0, 0
0, 0
0, 0
0, 0
0, 0
0, 0
0, 0
0, 0
0, 0
0, 0
0, 0
0, 0
0, 0
0, 0
0, 0
0, 0
0, 0
0, 0
0, 0
0, 0
0, 0
0, 0
0, 0
0, 0
0, 0
0, 0
0, 0
0, 0
0, 0
0, 0
0, 0
0, 0
0, 0
0, 0
0, 0
0, 0
0, 0
0, 0
0, 0
0, 0
0, 0
0, 0
0, 0
#ENDOFDATA     end of spectrum data