File: host_upload/06-09-2024/ps_0852/dump3/ps__0852shot_2104.msa
#FORMAT      : EMSA/MAS spectral data file
#VERSION     : TC202v2.0 PIXL
#TITLE       : N/A
#DATE        :       Date in the format DD-MMM-YYYY, for example 07-JUL-2010
#TIME        :             The time of day at which the spectrum was recorded, in 24-hour format
#OWNER       : PIXL Flight Model       (PIXL will use this to indicate which instrument took the data.)
#NPOINTS     : 4096     Number of data points in the spectrum (This can be zero for configuration only files)
#NCOLUMNS    : 2     Number of data columns in the spectrum (This can be zero for configuration only files)
#XUNITS      : eV
#YUNITS      : COUNTS
#DATATYPE    : YY
#XPERCHAN    : 7.862, 7.881   eV per channel (separate by commas if more than one detector)
#OFFSET      : 18.5, -22.4         eV of first channel  (separate by commas if more than one detector
#SIGNALTYPE  : XRF
#YP_TEMP     : 2.396
#LIVETIME    : 8.56407, 8.53196   seconds (separate by commas if more than one detector)
#REALTIME    : 10, 10.0   seconds (separate by commas if more than one detector)
#SPECTRUM    : start of spectrum data
0, 0
0, 0
0, 0
0, 0
0, 0
0, 0
0, 0
0, 0
0, 0
0, 0
0, 0
0, 0
0, 0
0, 0
0, 0
0, 0
0, 0
0, 0
0, 0
0, 0
0, 0
0, 0
0, 0
0, 0
0, 0
0, 0
0, 0
0, 0
0, 0
0, 0
0, 0
0, 0
0, 0
1, 1
0, 0
0, 2
0, 0
0, 0
2, 2
0, 0
2, 1
0, 0
0, 0
2, 0
0, 2
2, 3
2, 0
2, 0
6, 9
13, 10
22, 21
42, 35
59, 54
68, 63
81, 75
87, 92
60, 70
46, 52
23, 27
14, 16
18, 8
4, 5
6, 4
3, 7
3, 2
6, 1
8, 3
13, 11
28, 18
42, 56
102, 96
147, 174
255, 253
388, 343
415, 444
472, 421
409, 381
303, 338
228, 196
131, 136
86, 76
37, 36
17, 30
9, 12
11, 3
4, 5
1, 4
0, 4
1, 2
0, 1
1, 0
3, 1
1, 0
0, 1
0, 2
6, 5
5, 7
8, 7
7, 10
8, 7
10, 8
12, 10
3, 5
11, 5
13, 4
13, 4
19, 5
30, 4
29, 7
29, 10
34, 15
43, 34
39, 16
36, 28
39, 46
40, 43
41, 31
37, 30
32, 19
22, 22
23, 28
15, 17
17, 19
18, 12
26, 13
17, 12
20, 9
10, 7
4, 5
8, 7
2, 1
3, 1
6, 4
2, 3
4, 3
2, 1
1, 2
2, 0
4, 3
3, 1
3, 1
1, 1
1, 2
3, 2
1, 2
1, 1
2, 3
2, 2
2, 2
4, 4
9, 7
10, 14
15, 17
33, 23
37, 46
62, 73
71, 74
87, 90
61, 89
75, 63
49, 59
35, 48
22, 32
19, 14
5, 17
7, 8
6, 8
9, 9
11, 9
13, 12
16, 9
8, 11
16, 14
11, 11
6, 10
8, 12
9, 12
7, 4
1, 3
3, 2
3, 1
2, 3
0, 4
2, 4
2, 4
3, 4
2, 4
2, 7
3, 3
11, 7
8, 6
9, 6
9, 10
4, 16
7, 15
18, 7
16, 13
16, 10
12, 10
14, 18
12, 15
12, 5
3, 6
4, 5
6, 3
10, 10
6, 2
13, 5
5, 8
15, 11
18, 9
19, 8
20, 6
19, 7
23, 12
16, 9
15, 12
16, 9
5, 8
17, 5
5, 4
2, 1
6, 10
9, 7
11, 8
16, 9
18, 14
34, 11
40, 22
38, 17
48, 17
59, 23
64, 17
67, 12
65, 16
70, 10
59, 9
42, 7
35, 8
17, 4
16, 6
12, 7
17, 10
6, 11
17, 17
28, 11
42, 29
44, 48
63, 51
90, 49
85, 46
86, 59
92, 44
83, 34
85, 43
61, 28
55, 22
34, 15
32, 16
27, 22
11, 19
25, 24
46, 50
70, 95
150, 186
241, 319
464, 590
710, 839
1011, 1223
1411, 1605
1733, 2014
2015, 2219
2013, 2211
2135, 2047
1960, 1744
1585, 1397
1225, 1098
805, 680
512, 429
295, 238
182, 136
101, 75
53, 41
23, 26
20, 14
17, 9
15, 6
14, 12
11, 16
17, 14
23, 27
26, 43
45, 61
62, 92
85, 136
125, 160
173, 236
244, 236
286, 323
279, 346
327, 337
308, 318
258, 227
223, 227
190, 140
141, 80
76, 62
54, 26
31, 28
25, 15
5, 9
12, 9
9, 9
4, 6
10, 4
8, 8
15, 10
18, 14
15, 15
20, 8
23, 14
26, 8
16, 10
16, 3
14, 2
8, 2
5, 5
4, 7
4, 6
5, 8
4, 12
6, 11
6, 10
4, 8
2, 6
9, 5
6, 6
6, 13
5, 0
7, 4
5, 1
7, 9
8, 6
7, 8
2, 7
3, 3
2, 4
7, 4
4, 8
3, 6
5, 9
5, 8
4, 1
5, 5
4, 11
4, 1
3, 3
5, 2
7, 5
9, 8
11, 1
4, 5
9, 2
8, 2
9, 3
7, 4
7, 3
3, 5
6, 6
7, 5
3, 5
5, 4
8, 4
8, 4
9, 4
13, 5
13, 4
28, 5
18, 7
26, 8
20, 6
19, 10
12, 4
7, 12
6, 10
6, 6
5, 6
5, 14
5, 7
5, 7
3, 6
4, 4
4, 4
6, 5
4, 3
3, 1
5, 1
3, 2
6, 4
1, 6
2, 2
2, 3
3, 0
2, 7
2, 3
5, 9
1, 8
7, 3
4, 8
3, 4
2, 9
5, 2
3, 1
3, 4
2, 1
4, 2
0, 2
0, 3
4, 1
6, 3
4, 4
2, 2
3, 5
4, 1
4, 1
3, 9
5, 3
4, 9
4, 6
2, 1
1, 2
5, 4
5, 3
5, 5
2, 6
2, 4
0, 3
1, 5
1, 3
4, 3
4, 1
1, 5
2, 3
3, 3
4, 5
3, 3
2, 3
5, 5
5, 5
3, 2
5, 2
2, 2
2, 1
2, 1
0, 1
2, 0
1, 4
5, 2
4, 1
5, 1
1, 2
4, 2
6, 1
2, 5
2, 3
8, 1
8, 1
6, 3
7, 2
6, 1
3, 5
3, 2
1, 1
2, 1
5, 3
0, 0
1, 2
2, 1
0, 5
3, 2
3, 5
0, 0
2, 1
2, 2
4, 3
1, 1
4, 6
4, 2
1, 5
2, 2
4, 3
1, 6
1, 1
1, 0
0, 0
2, 4
1, 1
2, 0
0, 2
1, 2
1, 0
1, 5
0, 4
0, 4
1, 1
5, 0
1, 1
1, 2
3, 2
1, 1
2, 3
2, 0
4, 2
2, 2
3, 1
1, 2
0, 1
4, 2
6, 0
5, 2
1, 2
1, 4
2, 2
4, 5
1, 0
3, 3
3, 1
4, 0
3, 8
1, 2
0, 3
2, 2
1, 2
2, 2
3, 1
3, 1
1, 2
4, 6
1, 5
4, 3
1, 3
4, 0
3, 1
3, 4
3, 0
4, 3
4, 2
4, 0
3, 6
2, 0
0, 1
0, 2
0, 0
0, 1
0, 1
0, 2
3, 2
1, 2
2, 1
2, 1
1, 0
3, 2
3, 0
1, 0
0, 1
1, 1
1, 0
1, 1
1, 2
3, 2
3, 2
5, 1
0, 1
2, 0
1, 1
4, 1
1, 4
0, 2
1, 0
1, 1
0, 1
0, 0
1, 0
3, 0
1, 4
1, 1
1, 0
2, 1
0, 0
0, 0
0, 0
1, 0
1, 1
0, 1
2, 0
0, 1
0, 1
0, 1
0, 1
0, 0
0, 0
0, 0
0, 0
1, 0
0, 1
1, 0
0, 0
0, 0
0, 0
1, 0
0, 0
1, 0
2, 3
1, 0
0, 1
0, 0
2, 0
0, 1
1, 1
2, 1
1, 1
3, 0
0, 2
1, 1
0, 0
1, 1
1, 0
1, 0
2, 0
2, 0
1, 0
0, 0
0, 1
3, 1
1, 2
0, 0
0, 0
1, 0
0, 0
2, 1
0, 0
1, 2
0, 0
0, 0
0, 1
1, 1
1, 1
1, 2
0, 0
0, 1
0, 1
0, 0
1, 1
0, 0
2, 0
0, 1
2, 1
2, 0
0, 1
0, 1
0, 1
0, 1
1, 1
0, 0
1, 0
0, 0
1, 2
1, 1
1, 0
0, 0
1, 0
0, 1
0, 0
1, 0
0, 1
0, 1
3, 0
0, 0
1, 1
1, 1
0, 0
2, 0
0, 0
2, 0
0, 0
0, 0
1, 0
1, 1
1, 0
1, 0
0, 1
1, 0
0, 2
0, 0
0, 0
0, 0
0, 0
0, 0
0, 1
0, 0
0, 0
0, 1
0, 0
0, 0
0, 0
1, 0
1, 0
0, 0
2, 0
1, 0
0, 1
0, 0
0, 0
1, 0
0, 1
0, 2
0, 0
0, 1
1, 0
1, 0
0, 0
0, 1
0, 1
0, 0
0, 0
0, 0
1, 0
0, 0
0, 0
0, 0
0, 1
0, 1
0, 0
0, 0
1, 0
0, 0
0, 0
1, 1
1, 0
0, 1
0, 0
0, 0
0, 0
0, 0
1, 1
0, 1
0, 0
2, 0
0, 0
0, 0
0, 0
0, 0
0, 0
1, 0
0, 0
1, 0
0, 0
0, 1
0, 0
0, 0
0, 0
1, 0
0, 0
0, 0
1, 0
0, 0
0, 1
0, 0
0, 0
0, 0
0, 0
2, 0
0, 0
0, 1
0, 0
0, 0
0, 0
1, 0
0, 0
0, 0
0, 0
0, 0
0, 0
0, 0
0, 0
0, 1
0, 1
1, 0
0, 0
0, 2
1, 1
0, 0
0, 1
1, 1
1, 0
1, 0
0, 0
0, 0
0, 0
1, 0
0, 0
0, 0
0, 1
0, 0
0, 0
0, 0
0, 0
0, 1
0, 1
1, 1
1, 0
0, 0
0, 0
0, 0
0, 0
0, 0
1, 0
0, 0
0, 0
0, 1
0, 0
0, 0
0, 0
0, 0
0, 1
1, 0
0, 0
0, 0
0, 0
0, 0
1, 0
0, 0
1, 0
0, 1
0, 0
0, 1
0, 0
0, 0
0, 0
0, 0
0, 0
0, 0
0, 0
0, 0
0, 1
0, 1
0, 0
1, 0
0, 0
0, 0
0, 0
1, 0
0, 0
0, 0
0, 0
0, 0
0, 0
0, 0
0, 0
0, 0
0, 0
0, 0
0, 0
0, 0
0, 1
0, 0
0, 0
0, 0
0, 0
0, 0
0, 0
0, 0
0, 0
0, 0
0, 0
0, 0
0, 0
0, 0
0, 0
0, 0
0, 0
1, 0
0, 0
0, 0
0, 0
0, 0
1, 0
1, 0
0, 0
0, 0
0, 0
0, 0
0, 0
0, 0
0, 0
0, 0
0, 0
0, 0
0, 0
0, 0
0, 1
0, 0
0, 0
0, 0
0, 1
0, 0
0, 0
0, 0
0, 0
0, 0
0, 0
0, 0
0, 0
0, 0
0, 0
0, 0
0, 0
0, 0
0, 0
0, 0
0, 0
0, 0
0, 0
0, 0
0, 0
0, 0
0, 1
0, 0
0, 0
0, 0
0, 0
0, 1
0, 0
0, 0
0, 0
0, 0
0, 0
0, 0
0, 0
0, 0
0, 0
0, 0
0, 0
0, 0
0, 0
0, 0
0, 0
0, 0
0, 0
0, 0
0, 1
0, 0
0, 0
0, 0
0, 0
0, 0
0, 0
0, 0
0, 0
0, 0
0, 0
0, 0
0, 0
0, 0
0, 0
0, 0
0, 0
0, 0
0, 0
0, 0
0, 0
0, 0
0, 0
0, 0
0, 0
0, 0
0, 0
0, 0
0, 0
0, 0
0, 0
0, 0
0, 0
0, 0
0, 0
0, 0
0, 0
0, 0
0, 0
0, 0
0, 0
0, 0
0, 0
0, 0
0, 0
0, 0
0, 0
0, 0
0, 0
0, 0
0, 0
0, 0
0, 0
0, 0
0, 0
0, 0
0, 0
0, 0
0, 0
0, 0
0, 0
0, 0
0, 0
0, 0
0, 0
0, 0
0, 0
0, 0
0, 0
0, 0
0, 0
0, 0
0, 0
0, 0
0, 0
0, 0
0, 0
0, 0
0, 0
0, 0
0, 0
0, 0
0, 0
0, 0
0, 0
0, 0
0, 0
0, 0
0, 0
0, 0
0, 0
0, 0
0, 0
0, 0
0, 0
0, 0
0, 0
0, 0
0, 0
0, 0
0, 0
0, 0
0, 0
0, 0
0, 0
0, 0
0, 0
0, 0
0, 0
0, 0
0, 0
0, 0
0, 0
0, 0
0, 0
0, 0
0, 0
0, 0
0, 0
0, 0
0, 0
0, 0
0, 0
0, 0
0, 0
0, 0
0, 0
0, 0
0, 0
0, 0
0, 0
0, 0
0, 0
0, 0
0, 0
0, 0
0, 0
0, 0
0, 0
0, 0
0, 0
0, 0
0, 0
0, 0
0, 0
0, 0
0, 0
0, 0
0, 0
0, 0
0, 0
0, 0
0, 0
0, 0
0, 0
0, 0
0, 0
0, 0
0, 0
0, 0
0, 0
0, 0
0, 0
0, 0
0, 0
0, 0
0, 0
0, 0
0, 0
0, 0
0, 0
0, 0
0, 0
0, 0
0, 0
0, 0
0, 0
0, 0
0, 0
0, 0
0, 0
0, 0
0, 0
0, 0
0, 0
0, 0
0, 0
0, 0
0, 0
0, 0
0, 0
0, 0
0, 0
0, 0
0, 0
0, 0
0, 0
0, 0
0, 0
0, 0
0, 0
0, 0
0, 0
0, 0
0, 0
0, 0
0, 0
0, 0
0, 0
0, 0
0, 0
0, 0
0, 0
0, 0
0, 0
0, 0
0, 0
0, 0
0, 0
0, 0
0, 0
0, 0
0, 0
0, 0
0, 0
0, 0
0, 0
0, 0
0, 0
0, 0
0, 0
0, 0
0, 0
0, 0
0, 0
0, 0
0, 0
0, 0
0, 0
0, 0
0, 0
0, 0
0, 0
0, 0
0, 0
0, 0
0, 0
0, 0
0, 0
0, 0
0, 0
0, 0
0, 0
0, 0
0, 0
0, 0
0, 0
0, 0
0, 0
0, 0
0, 0
0, 0
0, 0
0, 0
0, 0
0, 0
0, 0
0, 0
0, 0
0, 0
0, 0
0, 0
0, 0
0, 0
0, 0
0, 0
0, 0
0, 0
0, 0
0, 0
0, 0
0, 0
0, 0
0, 0
0, 0
0, 0
0, 0
0, 0
0, 0
0, 0
0, 0
0, 0
0, 0
0, 0
0, 0
0, 0
0, 0
0, 0
0, 0
0, 0
0, 0
0, 0
0, 0
0, 0
0, 0
0, 0
0, 0
0, 0
0, 0
0, 0
0, 0
0, 0
0, 0
0, 0
0, 0
0, 0
0, 0
0, 0
0, 0
0, 0
0, 0
0, 0
0, 0
0, 0
0, 0
0, 0
0, 0
0, 0
0, 0
0, 0
0, 0
0, 0
0, 0
0, 0
0, 0
0, 0
0, 0
0, 0
0, 0
0, 0
0, 0
0, 0
0, 0
0, 0
0, 0
0, 0
0, 0
0, 0
0, 0
0, 0
0, 0
0, 0
0, 0
0, 0
0, 0
0, 0
0, 0
0, 0
0, 0
0, 0
0, 0
0, 0
0, 0
0, 0
0, 0
0, 0
0, 0
0, 0
0, 0
0, 0
0, 0
0, 0
0, 0
0, 0
0, 0
0, 0
0, 0
0, 0
0, 0
0, 0
0, 0
0, 0
0, 0
0, 0
0, 0
0, 0
0, 0
0, 0
0, 0
0, 0
0, 0
0, 0
0, 0
0, 0
0, 0
0, 0
0, 0
0, 0
0, 0
0, 0
0, 0
0, 0
0, 0
0, 0
0, 0
0, 0
0, 0
0, 0
0, 0
0, 0
0, 0
0, 0
0, 0
0, 0
0, 0
0, 0
#ENDOFDATA     end of spectrum data