File: host_upload/06-09-2024/ps_0852/dump3/ps__0852shot_2345.msa
#FORMAT      : EMSA/MAS spectral data file
#VERSION     : TC202v2.0 PIXL
#TITLE       : N/A
#DATE        :       Date in the format DD-MMM-YYYY, for example 07-JUL-2010
#TIME        :             The time of day at which the spectrum was recorded, in 24-hour format
#OWNER       : PIXL Flight Model       (PIXL will use this to indicate which instrument took the data.)
#NPOINTS     : 4096     Number of data points in the spectrum (This can be zero for configuration only files)
#NCOLUMNS    : 2     Number of data columns in the spectrum (This can be zero for configuration only files)
#XUNITS      : eV
#YUNITS      : COUNTS
#DATATYPE    : YY
#XPERCHAN    : 7.862, 7.881   eV per channel (separate by commas if more than one detector)
#OFFSET      : 18.5, -22.4         eV of first channel  (separate by commas if more than one detector
#SIGNALTYPE  : XRF
#YP_TEMP     : 2.171
#LIVETIME    : 8.57628, 8.56562   seconds (separate by commas if more than one detector)
#REALTIME    : 10, 10.0   seconds (separate by commas if more than one detector)
#SPECTRUM    : start of spectrum data
0, 0
0, 0
0, 0
0, 0
0, 0
0, 0
0, 0
0, 0
0, 0
0, 0
0, 0
0, 0
0, 0
0, 0
0, 0
0, 0
0, 0
0, 0
0, 0
0, 0
0, 0
0, 0
0, 0
0, 0
0, 0
0, 0
0, 0
0, 0
0, 0
0, 0
0, 0
0, 0
0, 0
0, 1
0, 0
0, 0
0, 1
0, 1
1, 1
0, 1
0, 0
0, 3
1, 1
0, 0
1, 1
2, 0
2, 5
1, 6
6, 6
14, 14
29, 24
40, 53
51, 52
82, 81
71, 78
55, 79
58, 54
49, 48
25, 31
20, 15
7, 9
7, 3
3, 6
4, 6
1, 2
5, 10
9, 8
8, 10
26, 17
45, 51
106, 107
189, 177
258, 261
382, 359
438, 454
469, 404
440, 382
323, 284
216, 185
149, 109
80, 65
30, 43
23, 13
7, 9
5, 4
0, 4
3, 3
1, 2
3, 1
0, 2
1, 0
3, 1
1, 0
1, 1
2, 6
4, 7
5, 8
8, 15
11, 7
10, 13
8, 7
8, 6
8, 3
9, 2
11, 7
6, 1
5, 8
10, 3
12, 4
5, 5
12, 16
13, 24
26, 28
22, 21
23, 23
22, 30
20, 26
33, 24
25, 27
12, 21
20, 16
16, 15
21, 14
16, 8
9, 9
13, 9
9, 7
7, 9
11, 5
6, 6
12, 5
6, 1
4, 3
1, 0
5, 3
2, 3
2, 4
1, 0
1, 4
2, 0
1, 2
0, 3
0, 3
1, 3
4, 2
1, 2
3, 3
1, 2
3, 2
1, 0
1, 2
3, 4
9, 9
16, 36
27, 24
23, 41
35, 47
33, 46
36, 56
32, 34
28, 32
29, 19
10, 7
9, 10
4, 6
9, 2
3, 7
8, 3
7, 7
6, 10
9, 3
9, 14
9, 6
7, 2
9, 5
2, 5
4, 10
2, 2
0, 5
2, 7
4, 7
6, 3
1, 0
2, 1
1, 5
1, 3
5, 4
2, 5
3, 7
3, 4
6, 6
9, 3
6, 7
12, 9
8, 12
12, 4
10, 11
4, 14
12, 17
14, 9
12, 11
6, 10
11, 7
5, 2
9, 6
4, 5
7, 5
6, 8
4, 9
6, 3
4, 8
12, 4
4, 1
6, 9
8, 5
4, 7
1, 6
4, 7
4, 5
5, 5
6, 10
6, 6
6, 9
9, 9
8, 10
8, 9
24, 11
27, 17
39, 10
44, 16
88, 9
96, 15
93, 13
107, 15
102, 13
85, 9
69, 7
63, 7
47, 5
22, 5
22, 4
10, 8
15, 7
12, 6
14, 16
19, 24
36, 37
50, 35
68, 56
79, 54
103, 53
100, 57
88, 53
81, 39
82, 38
58, 31
47, 29
47, 19
35, 12
27, 9
14, 19
22, 39
49, 61
82, 104
149, 199
278, 357
496, 577
765, 875
1119, 1385
1488, 1786
1905, 2097
2283, 2376
2378, 2380
2371, 2164
2101, 1894
1787, 1499
1306, 1088
888, 709
567, 403
364, 235
218, 107
113, 68
49, 50
34, 21
22, 16
21, 14
12, 12
18, 16
13, 15
14, 22
29, 30
33, 27
35, 66
65, 77
107, 124
111, 188
185, 225
223, 272
318, 346
327, 318
338, 336
342, 309
284, 277
265, 201
189, 146
117, 107
91, 58
57, 41
36, 15
21, 24
9, 10
12, 11
8, 9
13, 5
11, 11
5, 11
13, 8
14, 16
16, 12
10, 13
4, 9
7, 17
7, 4
7, 10
8, 5
3, 4
8, 11
6, 11
4, 10
7, 7
5, 12
5, 4
4, 11
8, 10
2, 11
7, 8
7, 10
10, 5
13, 14
6, 6
12, 8
9, 5
10, 3
7, 4
5, 4
2, 5
6, 7
2, 8
4, 1
9, 4
3, 6
5, 9
6, 6
4, 6
4, 2
7, 5
11, 6
9, 1
7, 5
10, 4
7, 2
8, 1
9, 4
8, 5
4, 3
6, 3
3, 1
2, 5
3, 3
9, 2
2, 5
8, 2
5, 4
12, 6
18, 3
20, 3
15, 4
28, 3
36, 11
27, 7
23, 9
28, 12
21, 5
16, 12
13, 7
9, 8
3, 6
11, 9
5, 6
4, 4
0, 8
6, 4
5, 3
3, 2
0, 3
5, 3
7, 3
2, 2
4, 1
3, 5
3, 5
2, 6
2, 3
2, 3
3, 6
4, 3
2, 4
2, 4
3, 4
0, 6
3, 1
4, 8
2, 6
3, 2
2, 3
4, 2
4, 1
2, 3
3, 2
6, 4
2, 2
7, 1
1, 2
2, 6
3, 2
4, 3
4, 0
2, 2
6, 3
3, 4
2, 0
5, 4
1, 5
1, 3
3, 4
4, 0
2, 1
1, 2
0, 2
2, 3
3, 3
3, 3
1, 3
6, 3
1, 0
2, 2
0, 3
3, 1
1, 2
1, 2
4, 1
3, 3
2, 0
1, 1
2, 1
0, 3
2, 2
2, 3
4, 1
5, 3
5, 4
9, 5
7, 3
2, 6
7, 3
10, 3
11, 1
5, 3
5, 3
4, 1
4, 5
5, 3
3, 8
3, 3
3, 3
4, 3
0, 0
0, 4
0, 2
4, 0
1, 0
0, 1
1, 2
2, 2
3, 4
1, 3
0, 1
0, 3
1, 6
3, 6
2, 4
0, 3
2, 6
1, 6
3, 5
2, 1
5, 6
4, 3
4, 1
1, 3
0, 5
2, 3
1, 7
1, 1
1, 2
5, 0
0, 1
3, 2
0, 2
1, 5
1, 2
3, 3
1, 2
2, 1
4, 6
2, 1
1, 0
2, 0
2, 2
1, 4
1, 4
3, 3
1, 2
2, 3
0, 5
7, 4
2, 3
0, 4
2, 0
2, 1
1, 3
2, 2
6, 4
2, 4
2, 1
1, 0
4, 6
0, 3
0, 3
3, 5
2, 3
1, 6
7, 4
1, 1
5, 3
4, 1
1, 1
1, 4
5, 0
2, 3
2, 2
5, 0
1, 0
1, 0
1, 1
1, 2
3, 2
3, 1
3, 2
1, 2
3, 1
1, 2
0, 1
1, 1
4, 3
3, 2
0, 2
3, 1
5, 2
0, 1
2, 4
4, 3
2, 2
3, 4
3, 1
1, 2
3, 1
2, 3
1, 1
1, 0
0, 2
1, 0
2, 1
0, 2
0, 4
2, 1
0, 0
1, 0
2, 3
0, 1
0, 1
2, 1
0, 0
1, 1
2, 0
2, 0
1, 1
2, 0
2, 1
1, 1
0, 1
1, 1
0, 1
0, 1
0, 3
0, 1
2, 0
0, 1
0, 1
3, 2
1, 1
2, 0
1, 0
1, 1
0, 2
1, 2
2, 0
1, 0
0, 0
0, 2
0, 2
1, 1
2, 1
0, 3
0, 2
0, 1
3, 0
0, 1
0, 0
1, 1
0, 1
0, 0
1, 0
1, 0
1, 0
0, 0
2, 1
0, 1
0, 0
2, 0
1, 0
1, 1
0, 1
0, 1
0, 0
0, 1
1, 0
1, 1
1, 1
0, 1
1, 0
0, 0
0, 0
0, 1
0, 0
1, 0
0, 1
3, 0
1, 0
1, 1
0, 2
0, 0
0, 0
0, 1
0, 1
1, 1
0, 1
0, 0
0, 0
0, 1
0, 2
1, 2
0, 0
1, 0
0, 0
0, 1
2, 1
0, 0
1, 1
1, 0
1, 0
1, 1
0, 0
0, 1
0, 0
1, 0
1, 0
1, 2
0, 1
2, 2
0, 0
0, 0
0, 0
0, 0
0, 0
0, 0
0, 0
0, 0
1, 0
0, 0
1, 0
0, 2
0, 1
0, 0
2, 0
0, 1
0, 1
1, 0
0, 0
0, 0
0, 1
0, 1
0, 2
0, 0
0, 0
1, 1
1, 0
0, 1
0, 0
0, 1
1, 0
0, 0
1, 1
0, 1
0, 2
0, 0
0, 1
0, 0
2, 1
0, 1
0, 0
0, 0
0, 0
0, 0
0, 0
1, 0
0, 0
1, 0
1, 0
2, 0
0, 0
0, 0
0, 0
0, 1
1, 0
0, 0
1, 0
0, 0
1, 2
0, 0
1, 0
0, 1
0, 2
1, 0
0, 0
0, 0
1, 1
0, 1
1, 0
0, 0
1, 0
0, 0
0, 1
0, 0
0, 1
0, 0
0, 0
0, 0
0, 0
0, 0
1, 0
0, 0
0, 1
0, 1
0, 0
1, 0
0, 0
1, 1
0, 0
0, 1
0, 0
0, 0
0, 0
0, 0
0, 0
1, 0
0, 1
0, 1
0, 0
0, 0
0, 0
0, 0
0, 0
0, 0
0, 0
0, 0
1, 0
0, 0
0, 0
0, 1
1, 0
0, 0
0, 0
0, 0
1, 0
0, 1
0, 0
1, 0
0, 0
0, 0
1, 0
0, 0
0, 0
0, 0
0, 0
0, 0
1, 1
0, 0
0, 0
0, 0
0, 0
0, 0
0, 0
0, 0
0, 0
0, 0
1, 0
0, 0
0, 0
0, 0
0, 1
0, 0
0, 0
0, 0
0, 0
0, 0
0, 0
0, 0
0, 1
0, 0
0, 1
0, 0
0, 0
0, 0
0, 0
0, 0
0, 0
0, 2
0, 1
0, 0
0, 0
0, 0
0, 0
1, 0
0, 1
0, 1
0, 0
0, 0
0, 0
0, 0
0, 0
0, 0
1, 0
0, 0
0, 0
0, 0
0, 0
0, 0
0, 0
0, 0
0, 0
0, 0
0, 0
0, 0
0, 0
0, 0
0, 0
0, 0
0, 0
0, 1
0, 0
0, 0
0, 0
0, 0
0, 0
0, 0
0, 0
0, 0
0, 1
0, 1
0, 0
0, 0
0, 0
0, 0
0, 2
0, 0
0, 0
0, 0
0, 0
0, 0
0, 0
0, 0
0, 0
0, 0
0, 0
0, 1
0, 0
0, 0
0, 0
0, 1
0, 1
0, 0
0, 0
0, 0
0, 0
0, 0
0, 0
0, 0
0, 0
0, 0
0, 0
0, 0
0, 0
0, 0
0, 0
1, 0
0, 0
0, 0
0, 0
0, 0
0, 0
0, 0
0, 0
0, 0
0, 0
0, 0
0, 0
0, 0
0, 0
1, 0
0, 0
0, 0
0, 0
0, 0
0, 0
0, 0
0, 0
0, 0
0, 0
0, 0
0, 0
0, 0
0, 0
0, 0
0, 0
0, 0
0, 0
0, 0
0, 0
0, 0
0, 0
0, 0
0, 0
0, 0
1, 0
0, 0
0, 0
0, 0
1, 0
0, 0
0, 0
0, 0
0, 0
1, 0
0, 0
0, 0
0, 0
0, 0
0, 0
0, 0
0, 0
0, 0
0, 0
0, 0
0, 1
0, 0
0, 0
0, 0
0, 0
0, 0
0, 0
0, 0
0, 0
0, 0
0, 0
0, 1
0, 0
0, 0
0, 0
0, 0
0, 0
0, 0
0, 0
0, 0
0, 0
0, 0
0, 0
0, 0
0, 0
0, 0
0, 0
0, 0
0, 0
0, 0
0, 0
0, 0
0, 0
0, 0
0, 0
0, 0
0, 0
0, 0
0, 0
0, 0
0, 0
0, 0
0, 0
0, 0
0, 0
0, 0
0, 0
0, 0
0, 0
0, 0
0, 0
0, 0
0, 0
0, 0
0, 0
0, 0
0, 0
0, 0
0, 0
0, 0
0, 0
0, 0
0, 0
0, 0
0, 0
0, 0
0, 0
0, 0
0, 0
0, 0
0, 0
0, 0
0, 0
0, 0
0, 0
0, 0
0, 0
0, 0
0, 0
0, 0
0, 0
0, 0
0, 0
0, 0
0, 0
0, 0
0, 0
0, 0
0, 0
0, 0
0, 0
0, 0
0, 0
0, 0
0, 0
1, 0
0, 0
0, 0
0, 0
0, 0
0, 0
0, 0
0, 0
0, 0
0, 0
0, 0
0, 0
0, 0
0, 0
0, 0
0, 0
0, 0
0, 0
0, 0
0, 0
0, 0
0, 0
0, 0
0, 0
0, 0
0, 0
0, 0
0, 0
0, 0
0, 0
0, 0
0, 0
0, 0
0, 0
0, 0
0, 0
0, 0
0, 0
0, 0
0, 0
0, 0
0, 0
0, 0
0, 0
0, 0
0, 0
0, 0
0, 0
0, 0
0, 0
0, 0
0, 0
0, 0
0, 0
0, 0
0, 0
0, 0
0, 0
0, 0
0, 0
0, 0
0, 0
0, 0
0, 0
0, 0
0, 0
0, 0
0, 0
0, 0
0, 0
0, 0
0, 0
0, 0
0, 0
0, 0
0, 0
0, 0
0, 0
0, 0
0, 0
0, 0
0, 0
0, 0
0, 0
0, 0
0, 0
0, 0
0, 0
0, 0
0, 0
0, 0
0, 0
0, 0
0, 0
0, 0
0, 0
0, 0
0, 0
0, 0
0, 0
0, 0
0, 0
0, 0
0, 0
0, 0
0, 0
0, 0
0, 0
0, 0
0, 0
0, 0
0, 0
0, 0
0, 0
0, 0
0, 0
0, 0
0, 0
0, 0
0, 0
0, 0
0, 0
0, 0
0, 0
0, 0
0, 0
0, 0
0, 0
0, 0
0, 0
0, 0
0, 0
0, 0
0, 0
0, 0
0, 0
0, 0
0, 0
0, 0
0, 0
0, 0
0, 0
0, 0
0, 0
0, 0
0, 0
0, 0
0, 0
0, 0
0, 0
0, 0
0, 0
0, 0
0, 0
0, 0
0, 0
0, 0
0, 0
0, 0
0, 0
0, 0
0, 0
0, 0
0, 0
0, 0
0, 0
0, 0
0, 0
0, 0
0, 0
0, 0
0, 0
0, 0
0, 0
0, 0
0, 0
0, 0
0, 0
0, 0
0, 0
0, 0
0, 0
0, 0
0, 0
0, 0
0, 0
0, 0
0, 0
0, 0
0, 0
0, 0
0, 0
0, 0
0, 0
0, 0
0, 0
0, 0
0, 0
0, 0
0, 0
0, 0
0, 0
0, 0
0, 0
0, 0
0, 0
0, 0
0, 0
0, 0
0, 0
0, 0
0, 0
0, 0
0, 0
0, 0
0, 0
0, 0
0, 0
0, 0
0, 0
0, 0
0, 0
0, 0
0, 0
0, 0
0, 0
0, 0
0, 0
0, 0
0, 0
0, 0
0, 0
0, 0
0, 0
0, 0
0, 0
0, 0
0, 0
0, 0
0, 0
0, 0
0, 0
0, 0
0, 0
0, 0
0, 0
0, 0
0, 0
0, 0
0, 0
0, 0
0, 0
0, 0
0, 0
0, 0
0, 0
0, 0
0, 0
0, 0
0, 0
0, 0
0, 0
0, 0
0, 0
0, 0
0, 0
0, 0
0, 0
0, 0
0, 0
0, 0
0, 0
0, 0
0, 0
0, 0
0, 0
0, 0
0, 0
0, 0
0, 0
0, 0
0, 0
0, 0
0, 0
0, 0
0, 0
0, 0
#ENDOFDATA     end of spectrum data