File: host_upload/06-09-2024/ps_0852/dump3/ps__0852shot_2490.msa
#FORMAT      : EMSA/MAS spectral data file
#VERSION     : TC202v2.0 PIXL
#TITLE       : N/A
#DATE        :       Date in the format DD-MMM-YYYY, for example 07-JUL-2010
#TIME        :             The time of day at which the spectrum was recorded, in 24-hour format
#OWNER       : PIXL Flight Model       (PIXL will use this to indicate which instrument took the data.)
#NPOINTS     : 4096     Number of data points in the spectrum (This can be zero for configuration only files)
#NCOLUMNS    : 2     Number of data columns in the spectrum (This can be zero for configuration only files)
#XUNITS      : eV
#YUNITS      : COUNTS
#DATATYPE    : YY
#XPERCHAN    : 7.862, 7.881   eV per channel (separate by commas if more than one detector)
#OFFSET      : 18.5, -22.4         eV of first channel  (separate by commas if more than one detector
#SIGNALTYPE  : XRF
#YP_TEMP     : 2.203
#LIVETIME    : 8.56169, 8.56442   seconds (separate by commas if more than one detector)
#REALTIME    : 10, 10.0   seconds (separate by commas if more than one detector)
#SPECTRUM    : start of spectrum data
0, 0
0, 0
0, 0
0, 0
0, 0
0, 0
0, 0
0, 0
0, 0
0, 0
0, 0
0, 0
0, 0
0, 0
0, 0
0, 0
0, 0
0, 0
0, 0
0, 0
0, 0
0, 0
0, 0
0, 0
0, 0
0, 0
0, 0
0, 0
0, 0
0, 0
0, 0
0, 0
0, 0
0, 0
0, 0
0, 0
2, 0
0, 0
0, 1
2, 1
5, 1
2, 0
2, 0
2, 1
1, 1
1, 0
2, 2
2, 4
9, 6
16, 11
25, 26
45, 39
54, 65
81, 66
96, 89
84, 76
59, 69
36, 64
32, 21
18, 16
7, 4
5, 4
5, 5
3, 4
3, 3
4, 3
7, 4
5, 8
19, 21
35, 54
86, 90
153, 182
239, 243
329, 370
369, 415
450, 410
376, 337
291, 271
199, 186
103, 107
67, 75
33, 40
12, 10
4, 9
7, 5
1, 4
0, 3
0, 1
2, 0
2, 3
0, 2
2, 1
1, 4
1, 1
1, 1
3, 2
2, 4
4, 3
3, 8
7, 5
7, 4
4, 6
5, 1
6, 3
3, 2
1, 3
2, 6
5, 9
10, 8
15, 11
27, 15
31, 23
71, 25
77, 44
80, 56
88, 50
108, 45
96, 44
95, 30
74, 31
74, 23
110, 16
118, 16
164, 18
155, 20
145, 19
133, 8
119, 8
78, 9
63, 4
29, 7
14, 6
9, 2
8, 4
2, 2
2, 0
2, 2
3, 2
1, 2
2, 1
5, 4
2, 0
0, 0
1, 3
3, 1
3, 1
4, 2
1, 2
0, 3
2, 2
5, 4
3, 4
2, 5
8, 12
6, 15
16, 20
14, 26
13, 13
23, 18
9, 10
16, 8
11, 6
6, 10
5, 6
2, 5
1, 2
5, 1
2, 3
3, 8
1, 6
6, 4
5, 4
7, 4
5, 5
6, 4
3, 8
2, 6
7, 7
5, 4
7, 7
4, 9
5, 6
4, 7
1, 12
3, 4
4, 8
6, 5
6, 3
9, 3
15, 11
19, 5
31, 12
54, 12
69, 9
73, 19
98, 16
121, 18
117, 20
112, 10
88, 9
62, 9
65, 14
30, 16
27, 9
10, 11
14, 4
5, 9
8, 7
7, 2
4, 6
6, 7
8, 9
5, 4
7, 6
3, 8
6, 6
2, 6
8, 2
3, 6
4, 4
8, 2
4, 6
5, 10
3, 3
7, 10
5, 9
12, 8
14, 13
9, 12
11, 14
15, 18
16, 12
9, 11
7, 12
9, 6
9, 2
3, 4
5, 6
10, 7
2, 4
14, 12
9, 10
11, 11
22, 19
36, 17
26, 31
58, 43
56, 57
78, 66
82, 87
72, 99
85, 107
61, 110
57, 99
42, 105
41, 117
22, 117
24, 107
19, 89
19, 78
19, 76
23, 89
59, 95
85, 142
144, 186
288, 373
485, 612
765, 950
1193, 1307
1640, 1789
1951, 2110
2313, 2406
2453, 2369
2440, 2269
2165, 1917
1733, 1463
1267, 1076
941, 742
589, 466
345, 258
187, 144
100, 74
59, 39
25, 23
23, 14
6, 6
16, 14
14, 15
10, 13
23, 19
20, 30
32, 46
37, 52
78, 84
99, 133
152, 174
219, 233
248, 311
321, 341
376, 339
336, 331
321, 320
293, 290
258, 219
168, 162
132, 97
82, 66
60, 40
32, 24
15, 19
13, 11
8, 6
8, 11
14, 9
14, 20
13, 13
16, 13
12, 15
12, 9
21, 14
13, 13
13, 11
15, 9
4, 10
10, 2
8, 4
6, 4
2, 3
4, 5
6, 3
3, 3
3, 2
3, 3
4, 3
3, 4
5, 6
4, 2
3, 3
1, 8
5, 6
3, 2
3, 5
4, 4
7, 5
7, 6
4, 7
3, 5
4, 8
9, 4
6, 1
2, 8
7, 8
2, 4
9, 9
4, 5
5, 1
3, 2
2, 1
1, 6
3, 4
5, 2
2, 3
2, 3
2, 4
4, 4
7, 5
8, 7
2, 6
3, 8
6, 5
6, 4
6, 6
13, 0
2, 7
5, 5
5, 5
1, 5
3, 2
4, 4
3, 1
2, 2
7, 2
2, 2
3, 4
6, 1
6, 7
9, 2
17, 3
19, 2
10, 1
7, 3
18, 3
13, 1
21, 1
18, 3
13, 6
17, 5
9, 3
8, 2
6, 6
4, 2
4, 6
6, 2
3, 4
3, 6
4, 6
2, 5
7, 6
3, 7
5, 6
4, 6
1, 4
3, 7
3, 5
2, 3
4, 4
5, 6
4, 1
6, 3
4, 3
8, 1
6, 3
14, 3
10, 3
16, 5
15, 3
12, 2
12, 2
12, 7
12, 2
11, 5
6, 2
7, 2
5, 2
6, 3
5, 2
3, 4
3, 5
4, 1
0, 2
4, 3
7, 3
2, 5
2, 4
4, 3
2, 3
5, 4
0, 2
2, 9
2, 3
0, 3
3, 2
3, 1
1, 4
1, 0
4, 4
2, 1
4, 1
0, 5
2, 1
3, 1
1, 1
3, 2
3, 5
4, 1
1, 0
4, 1
2, 2
1, 2
0, 8
4, 0
2, 3
4, 6
0, 3
0, 6
5, 7
1, 3
2, 2
3, 1
3, 1
3, 1
2, 2
2, 4
3, 0
3, 1
1, 0
2, 4
6, 3
0, 3
2, 2
3, 1
3, 4
4, 7
6, 3
1, 1
2, 3
3, 1
3, 1
6, 2
2, 6
2, 4
1, 4
2, 1
2, 3
2, 3
0, 2
4, 4
4, 1
1, 2
2, 1
3, 2
1, 3
3, 4
2, 1
5, 4
2, 4
3, 4
2, 3
1, 2
3, 1
2, 1
1, 1
3, 1
3, 3
5, 1
1, 2
2, 5
1, 1
0, 2
4, 6
0, 1
0, 3
1, 1
4, 4
1, 2
0, 2
3, 2
5, 1
0, 6
5, 5
7, 2
2, 2
3, 6
3, 3
1, 3
3, 3
3, 1
5, 2
3, 2
0, 3
3, 2
1, 3
2, 0
0, 3
2, 1
1, 0
2, 1
0, 2
0, 1
0, 2
1, 2
0, 0
0, 1
1, 1
2, 4
1, 1
2, 0
2, 0
2, 2
2, 2
2, 1
2, 0
2, 2
1, 0
3, 3
1, 4
3, 1
1, 2
3, 1
1, 1
2, 0
3, 1
1, 0
7, 1
4, 1
2, 0
3, 2
1, 1
5, 1
1, 0
2, 1
1, 1
4, 0
1, 0
0, 1
1, 1
1, 1
2, 1
1, 2
0, 0
2, 1
2, 1
0, 0
0, 1
2, 0
1, 0
4, 0
2, 0
1, 0
1, 0
0, 1
1, 0
0, 2
2, 1
0, 1
2, 1
1, 0
0, 0
2, 1
1, 0
0, 3
0, 4
2, 1
0, 2
1, 0
1, 1
0, 1
1, 1
1, 2
1, 0
0, 1
1, 0
1, 2
0, 0
1, 2
1, 1
2, 2
0, 1
1, 1
0, 1
0, 0
0, 0
0, 1
2, 0
2, 0
0, 0
0, 0
0, 0
1, 0
0, 0
0, 0
1, 0
0, 3
0, 1
0, 0
1, 0
1, 4
1, 0
0, 0
0, 0
0, 1
0, 1
0, 2
0, 1
2, 1
1, 0
0, 0
1, 1
2, 2
0, 1
1, 0
0, 0
2, 1
0, 1
0, 0
2, 1
0, 0
0, 0
1, 0
0, 1
0, 0
0, 1
2, 0
0, 0
0, 0
1, 1
0, 0
0, 0
0, 0
0, 0
2, 0
0, 0
0, 0
0, 0
1, 1
0, 0
0, 1
1, 1
0, 2
0, 0
0, 0
0, 0
0, 0
0, 1
0, 1
0, 0
0, 0
0, 0
0, 0
0, 1
0, 0
0, 0
0, 0
0, 0
0, 0
2, 1
0, 0
0, 0
1, 0
0, 0
1, 0
1, 0
0, 0
0, 0
0, 0
1, 0
0, 0
0, 1
0, 0
1, 0
1, 0
1, 0
1, 0
0, 0
0, 0
0, 1
1, 1
0, 0
0, 0
1, 1
0, 0
0, 1
0, 0
0, 0
0, 0
0, 0
1, 0
0, 1
0, 1
0, 0
0, 0
3, 1
0, 0
1, 0
0, 0
2, 1
0, 0
0, 0
0, 0
1, 0
0, 0
0, 0
1, 0
0, 1
0, 0
0, 0
0, 0
0, 1
0, 0
1, 0
0, 1
0, 0
1, 0
1, 0
0, 0
0, 0
1, 0
0, 0
1, 0
0, 0
0, 0
0, 0
1, 0
0, 0
0, 0
0, 1
0, 0
0, 1
0, 0
0, 0
1, 1
0, 0
1, 0
0, 0
0, 1
0, 0
0, 1
0, 0
0, 1
0, 0
0, 0
0, 1
0, 0
1, 0
0, 1
0, 2
1, 0
0, 0
1, 0
2, 1
0, 1
0, 0
0, 0
0, 0
0, 0
0, 0
0, 0
1, 0
0, 0
0, 0
0, 1
0, 1
0, 0
0, 0
0, 0
0, 0
0, 0
0, 2
0, 0
0, 0
0, 0
0, 0
0, 0
0, 0
0, 0
0, 0
0, 0
0, 0
0, 0
0, 0
0, 0
1, 0
0, 0
0, 1
0, 0
0, 1
0, 0
0, 0
0, 0
0, 0
0, 0
0, 2
0, 0
0, 0
0, 0
1, 0
0, 0
0, 0
0, 0
0, 0
1, 1
0, 1
0, 0
0, 0
0, 1
0, 0
0, 0
0, 0
1, 0
0, 0
0, 0
0, 0
0, 0
0, 1
0, 0
0, 0
0, 0
0, 0
1, 0
0, 0
0, 0
0, 0
0, 0
0, 1
0, 0
0, 0
0, 0
0, 0
0, 0
0, 0
0, 0
0, 0
1, 0
0, 0
1, 0
1, 0
0, 0
0, 0
0, 0
0, 0
0, 0
0, 0
0, 0
0, 0
0, 0
0, 0
0, 0
0, 0
0, 0
0, 0
0, 0
0, 0
0, 0
0, 0
0, 0
0, 0
0, 0
0, 0
0, 0
0, 0
0, 0
0, 0
0, 0
0, 0
1, 0
1, 0
1, 0
0, 0
2, 0
0, 0
0, 0
0, 0
0, 0
0, 1
0, 0
0, 0
0, 0
0, 0
0, 0
0, 0
0, 0
0, 0
0, 0
0, 0
0, 0
0, 0
0, 0
0, 0
0, 0
0, 0
0, 0
0, 0
0, 0
0, 0
0, 0
0, 0
0, 0
0, 0
0, 0
0, 0
0, 0
0, 0
0, 0
0, 0
1, 0
0, 0
0, 0
0, 0
0, 0
0, 0
0, 0
0, 0
0, 0
0, 0
0, 0
0, 0
0, 0
0, 0
0, 0
0, 0
0, 0
0, 0
0, 0
0, 0
0, 0
0, 0
0, 0
0, 0
0, 0
0, 0
0, 0
0, 0
0, 0
0, 0
0, 0
0, 0
0, 0
0, 0
0, 0
0, 0
0, 0
0, 0
0, 0
0, 0
0, 0
0, 0
0, 0
0, 0
0, 0
0, 0
0, 0
0, 0
0, 0
0, 0
0, 0
0, 0
0, 0
0, 0
0, 0
0, 0
0, 0
0, 0
0, 0
0, 0
0, 0
0, 0
0, 0
0, 0
0, 0
0, 0
0, 0
0, 0
0, 0
0, 0
0, 0
0, 0
0, 0
0, 0
0, 0
0, 0
0, 0
0, 0
0, 0
0, 0
0, 0
0, 0
0, 0
0, 0
0, 0
0, 0
0, 0
0, 0
0, 0
0, 0
0, 0
0, 0
0, 0
0, 0
0, 0
0, 0
0, 0
0, 0
0, 0
0, 0
0, 0
0, 0
0, 0
0, 0
0, 0
0, 0
0, 0
0, 0
0, 0
0, 0
0, 0
0, 0
0, 0
0, 0
0, 0
0, 0
0, 0
0, 0
0, 0
0, 0
0, 0
0, 0
0, 0
0, 0
0, 0
0, 0
0, 0
0, 0
0, 0
0, 0
0, 0
0, 0
0, 0
0, 0
0, 0
0, 0
0, 0
0, 0
0, 0
0, 0
0, 0
0, 0
0, 0
0, 0
0, 0
0, 0
0, 0
0, 0
0, 0
0, 0
0, 0
0, 0
0, 0
0, 0
0, 0
0, 0
0, 0
0, 0
0, 0
0, 0
0, 0
0, 0
0, 0
0, 0
0, 0
0, 0
0, 0
0, 0
0, 0
0, 0
0, 0
0, 0
0, 0
0, 0
0, 0
0, 0
0, 0
0, 0
0, 0
0, 0
0, 0
0, 0
0, 0
0, 0
0, 0
0, 0
0, 0
0, 0
0, 0
0, 0
0, 0
0, 0
0, 0
0, 0
0, 0
0, 0
0, 0
0, 0
0, 0
0, 0
0, 0
0, 0
0, 0
0, 0
0, 0
0, 0
0, 0
0, 0
0, 0
0, 0
0, 0
0, 0
0, 0
0, 0
0, 0
0, 0
0, 0
0, 0
0, 0
0, 0
0, 0
0, 0
0, 0
0, 0
0, 0
0, 0
0, 0
0, 0
0, 0
0, 0
0, 0
0, 0
0, 0
0, 0
0, 0
0, 0
0, 0
0, 0
0, 0
0, 0
0, 0
0, 0
0, 0
0, 0
0, 0
0, 0
0, 0
0, 0
0, 0
0, 0
0, 0
0, 0
0, 0
0, 0
0, 0
0, 0
0, 0
0, 0
0, 0
0, 0
0, 0
0, 0
0, 0
0, 0
0, 0
0, 0
0, 0
0, 0
0, 0
0, 0
0, 0
0, 0
0, 0
0, 0
0, 0
0, 0
0, 0
0, 0
0, 0
0, 0
0, 0
0, 0
0, 0
0, 0
0, 0
0, 0
0, 0
0, 0
0, 0
0, 0
0, 0
0, 0
0, 0
0, 0
0, 0
0, 0
0, 0
0, 0
0, 0
0, 0
0, 0
0, 0
0, 0
0, 0
0, 0
0, 0
0, 0
0, 0
0, 0
0, 0
0, 0
0, 0
0, 0
0, 0
0, 0
0, 0
0, 0
0, 0
0, 0
0, 0
0, 0
0, 0
0, 0
0, 0
0, 0
0, 0
0, 0
0, 0
0, 0
0, 0
0, 0
0, 0
0, 0
0, 0
0, 0
0, 0
0, 0
0, 0
0, 0
0, 0
0, 0
0, 0
0, 0
0, 0
0, 0
0, 0
0, 0
0, 0
0, 0
0, 0
0, 0
0, 0
0, 0
0, 0
0, 0
0, 0
0, 0
0, 0
0, 0
0, 0
0, 0
0, 0
0, 0
0, 0
0, 0
0, 0
0, 0
0, 0
0, 0
0, 0
0, 0
0, 0
0, 0
0, 0
0, 0
0, 0
0, 0
0, 0
0, 0
0, 0
0, 0
0, 0
0, 0
0, 0
0, 0
0, 0
0, 0
0, 0
0, 0
0, 0
0, 0
0, 0
0, 0
0, 0
0, 0
0, 0
0, 0
0, 0
0, 0
0, 0
0, 0
0, 0
#ENDOFDATA     end of spectrum data