File: host_upload/06-09-2024/ps_0852/dump3/ps__0852shot_2488.msa
#FORMAT      : EMSA/MAS spectral data file
#VERSION     : TC202v2.0 PIXL
#TITLE       : N/A
#DATE        :       Date in the format DD-MMM-YYYY, for example 07-JUL-2010
#TIME        :             The time of day at which the spectrum was recorded, in 24-hour format
#OWNER       : PIXL Flight Model       (PIXL will use this to indicate which instrument took the data.)
#NPOINTS     : 4096     Number of data points in the spectrum (This can be zero for configuration only files)
#NCOLUMNS    : 2     Number of data columns in the spectrum (This can be zero for configuration only files)
#XUNITS      : eV
#YUNITS      : COUNTS
#DATATYPE    : YY
#XPERCHAN    : 7.862, 7.881   eV per channel (separate by commas if more than one detector)
#OFFSET      : 18.5, -22.4         eV of first channel  (separate by commas if more than one detector
#SIGNALTYPE  : XRF
#YP_TEMP     : 2.46
#LIVETIME    : 8.57711, 8.55123   seconds (separate by commas if more than one detector)
#REALTIME    : 10, 10.0   seconds (separate by commas if more than one detector)
#SPECTRUM    : start of spectrum data
0, 0
0, 0
0, 0
0, 0
0, 0
0, 0
0, 0
0, 0
0, 0
0, 0
0, 0
0, 0
0, 0
0, 0
0, 0
0, 0
0, 0
0, 0
0, 0
0, 0
0, 0
0, 0
0, 0
0, 0
0, 0
0, 0
0, 0
0, 0
0, 0
0, 0
0, 0
1, 0
1, 0
0, 0
0, 0
0, 0
1, 1
1, 0
1, 0
0, 1
3, 3
2, 2
3, 3
2, 3
1, 1
5, 5
1, 0
5, 3
3, 5
10, 9
21, 15
22, 23
35, 50
43, 78
52, 52
44, 46
42, 42
24, 38
15, 16
8, 16
4, 7
5, 2
2, 2
8, 3
6, 5
4, 5
4, 9
6, 9
18, 12
38, 48
64, 98
144, 164
206, 290
315, 333
329, 389
347, 437
300, 358
228, 280
159, 197
102, 116
64, 51
40, 35
19, 37
17, 17
6, 15
15, 19
12, 16
7, 15
5, 12
10, 13
4, 13
3, 7
12, 10
17, 15
31, 35
30, 54
71, 85
92, 108
121, 118
110, 123
108, 114
99, 97
50, 49
41, 38
25, 30
34, 20
21, 14
23, 27
28, 32
46, 22
67, 53
97, 85
129, 81
140, 117
179, 119
163, 88
151, 75
133, 64
94, 50
78, 50
51, 38
36, 37
27, 36
22, 32
19, 24
13, 20
20, 14
15, 17
13, 11
9, 10
11, 14
9, 4
4, 2
6, 3
3, 2
3, 6
0, 5
5, 6
5, 9
2, 8
2, 4
10, 5
4, 11
4, 5
5, 7
0, 3
3, 4
5, 3
4, 14
7, 15
17, 20
23, 46
44, 54
81, 101
99, 148
174, 207
211, 235
252, 271
211, 225
221, 180
147, 177
132, 127
60, 69
35, 44
26, 32
26, 15
23, 17
25, 20
26, 35
25, 34
30, 45
27, 36
27, 34
29, 31
28, 18
15, 18
14, 14
13, 11
6, 6
6, 6
6, 8
6, 3
8, 2
6, 2
5, 5
6, 4
4, 4
8, 7
6, 9
12, 7
12, 13
13, 18
17, 13
17, 21
20, 16
14, 20
14, 21
16, 24
33, 24
32, 15
31, 13
25, 15
44, 13
28, 6
32, 7
23, 3
32, 7
19, 6
10, 8
14, 10
11, 7
2, 10
6, 7
7, 7
8, 6
3, 9
6, 8
4, 10
5, 6
5, 7
5, 4
9, 7
7, 6
11, 9
6, 11
5, 24
14, 10
18, 26
30, 32
25, 37
27, 45
26, 30
24, 30
17, 17
21, 18
17, 15
20, 10
8, 14
7, 10
15, 8
4, 8
5, 7
7, 19
4, 17
20, 28
22, 27
27, 33
43, 60
49, 60
59, 69
53, 75
46, 67
68, 61
51, 55
45, 32
33, 41
34, 32
12, 17
12, 16
20, 22
11, 21
19, 23
29, 40
56, 94
124, 179
207, 338
378, 593
570, 927
908, 1285
1243, 1775
1599, 2132
1836, 2302
1843, 2354
1841, 2212
1630, 1940
1314, 1477
1027, 999
760, 654
483, 425
253, 235
165, 129
84, 70
43, 37
15, 30
19, 14
11, 13
11, 11
10, 14
15, 13
24, 21
24, 29
36, 41
44, 51
58, 81
82, 106
103, 170
195, 230
196, 293
247, 355
286, 349
291, 352
269, 320
235, 260
201, 200
128, 153
122, 85
79, 68
43, 37
24, 34
10, 7
14, 13
9, 11
6, 7
2, 12
9, 8
12, 20
12, 10
12, 12
17, 14
9, 11
6, 11
8, 11
7, 9
8, 5
6, 9
6, 6
3, 2
3, 2
4, 2
3, 2
3, 2
5, 3
5, 2
4, 6
4, 3
6, 2
1, 4
1, 4
3, 2
4, 4
4, 4
1, 8
0, 4
1, 2
4, 3
6, 7
3, 5
4, 7
3, 5
5, 6
5, 10
4, 6
5, 3
7, 8
4, 5
5, 4
3, 7
5, 5
1, 4
6, 5
5, 7
4, 7
6, 9
3, 4
4, 6
6, 11
6, 3
7, 15
5, 10
4, 5
5, 10
1, 7
5, 5
4, 8
0, 3
3, 7
2, 6
4, 1
3, 4
1, 2
3, 3
5, 0
2, 3
8, 5
7, 5
1, 6
0, 4
5, 2
2, 3
3, 2
4, 4
2, 4
5, 6
2, 9
2, 7
3, 3
2, 4
4, 4
3, 3
3, 3
5, 4
4, 1
2, 2
3, 2
2, 0
0, 3
3, 2
4, 1
6, 7
1, 3
0, 3
1, 5
1, 2
4, 2
3, 2
3, 1
4, 5
7, 3
4, 8
6, 0
3, 3
8, 2
9, 4
11, 6
20, 4
25, 3
11, 2
12, 7
4, 8
7, 8
10, 4
6, 3
4, 4
1, 4
8, 2
2, 3
2, 2
1, 0
3, 3
4, 2
5, 6
0, 5
2, 1
2, 2
4, 4
3, 5
0, 2
4, 7
1, 5
0, 2
2, 6
2, 2
0, 3
2, 3
3, 6
2, 0
1, 2
2, 1
1, 8
1, 6
2, 1
3, 7
2, 1
0, 3
0, 0
3, 5
1, 4
1, 3
3, 3
3, 4
2, 3
3, 3
2, 1
2, 2
2, 3
1, 1
0, 1
5, 1
4, 2
1, 2
4, 2
2, 2
2, 1
4, 3
5, 2
4, 0
3, 0
4, 3
4, 1
5, 0
3, 2
2, 3
4, 2
2, 4
6, 2
3, 3
2, 1
5, 4
2, 3
4, 1
1, 5
1, 2
3, 4
2, 4
0, 3
4, 1
2, 2
3, 3
2, 2
1, 2
3, 1
0, 3
2, 2
0, 1
0, 1
1, 1
3, 1
4, 4
2, 1
1, 4
0, 2
1, 2
0, 3
3, 4
1, 3
0, 1
2, 4
2, 3
0, 2
1, 2
1, 2
0, 2
2, 2
2, 1
3, 1
1, 1
1, 2
3, 4
5, 1
4, 3
0, 3
1, 8
5, 4
0, 4
1, 6
7, 1
5, 4
1, 3
4, 2
2, 2
0, 2
3, 2
0, 0
1, 1
4, 3
0, 0
3, 1
0, 1
3, 1
3, 1
0, 0
1, 3
0, 2
2, 1
1, 2
4, 2
1, 0
3, 3
3, 2
1, 1
1, 1
0, 1
5, 1
3, 0
0, 3
0, 2
1, 1
0, 2
1, 0
0, 1
2, 2
3, 1
2, 0
0, 2
1, 2
0, 0
0, 0
2, 1
1, 0
1, 1
0, 0
2, 1
1, 0
0, 2
1, 1
0, 2
0, 3
1, 1
1, 2
2, 1
0, 2
1, 1
1, 1
1, 1
1, 0
2, 2
1, 0
1, 0
1, 1
1, 1
0, 1
0, 2
4, 2
1, 2
0, 1
0, 0
2, 2
0, 1
1, 1
0, 1
1, 1
1, 4
0, 1
1, 0
0, 1
1, 1
0, 2
0, 1
1, 0
1, 1
0, 1
2, 0
0, 0
1, 2
0, 2
1, 0
1, 1
0, 2
1, 1
1, 1
0, 2
1, 0
1, 1
1, 1
1, 3
0, 0
0, 2
0, 0
0, 2
1, 0
1, 0
0, 1
1, 2
0, 0
1, 2
0, 2
1, 1
0, 0
0, 0
0, 0
2, 0
0, 0
0, 1
1, 0
0, 1
0, 0
1, 0
0, 0
0, 0
0, 2
0, 0
0, 1
0, 2
0, 1
0, 0
0, 0
0, 1
1, 1
0, 0
0, 1
1, 2
0, 1
0, 1
0, 1
0, 0
1, 1
0, 2
0, 0
0, 0
2, 1
1, 1
1, 0
0, 2
0, 1
0, 0
0, 0
0, 0
0, 0
1, 0
0, 3
0, 0
1, 1
0, 0
0, 0
0, 0
1, 0
0, 0
0, 1
0, 0
1, 0
0, 0
0, 0
0, 0
1, 1
1, 1
0, 1
0, 1
0, 0
0, 0
1, 0
0, 0
0, 0
0, 1
0, 0
0, 0
0, 0
0, 1
0, 0
0, 0
1, 0
0, 0
0, 0
0, 0
1, 2
0, 0
0, 0
0, 0
0, 1
0, 0
1, 1
1, 0
0, 0
0, 0
1, 0
0, 0
0, 1
0, 1
0, 0
0, 0
0, 1
0, 0
0, 0
0, 0
0, 1
0, 1
0, 0
0, 0
0, 0
0, 0
0, 0
0, 0
0, 1
0, 0
0, 0
0, 1
0, 0
0, 0
0, 0
0, 0
0, 0
0, 0
0, 0
0, 0
0, 0
1, 0
0, 0
0, 2
0, 0
0, 1
0, 0
1, 0
0, 0
0, 0
0, 0
0, 0
0, 0
0, 0
0, 0
0, 1
0, 0
0, 1
0, 1
0, 1
0, 0
0, 0
1, 0
0, 0
0, 0
1, 0
0, 1
1, 0
0, 0
0, 0
1, 0
0, 1
1, 1
1, 0
1, 1
0, 1
0, 0
0, 0
0, 0
0, 0
0, 0
0, 0
1, 1
1, 0
0, 0
0, 1
1, 1
0, 0
0, 0
0, 0
0, 0
0, 0
0, 0
1, 0
0, 0
0, 0
2, 0
0, 0
0, 0
0, 0
0, 0
0, 0
0, 0
0, 0
1, 0
0, 0
0, 0
0, 0
1, 0
0, 0
0, 1
0, 1
0, 1
1, 0
1, 0
0, 0
0, 0
0, 2
0, 0
0, 0
0, 0
0, 0
0, 0
0, 1
0, 0
0, 0
0, 0
0, 0
0, 0
1, 0
1, 1
0, 1
0, 0
1, 0
1, 0
0, 1
0, 0
0, 0
0, 0
0, 0
0, 0
0, 0
0, 0
0, 0
0, 0
1, 0
0, 0
0, 0
0, 0
0, 0
0, 0
1, 0
0, 0
0, 0
0, 0
0, 0
0, 0
0, 1
0, 0
0, 0
0, 0
0, 0
0, 0
0, 0
0, 0
0, 0
0, 0
0, 0
0, 0
1, 0
0, 0
0, 0
0, 0
0, 0
0, 0
0, 0
0, 0
0, 0
0, 0
0, 0
0, 0
0, 0
0, 0
0, 0
0, 0
0, 0
0, 0
0, 0
0, 0
0, 0
0, 0
0, 0
0, 0
0, 0
0, 0
0, 0
0, 0
0, 0
0, 0
0, 0
0, 0
1, 0
0, 0
1, 0
0, 0
0, 0
0, 0
0, 0
0, 0
0, 0
0, 0
0, 0
0, 0
0, 0
0, 0
0, 0
0, 0
0, 0
0, 0
0, 0
0, 0
0, 0
0, 0
0, 0
0, 0
0, 0
0, 0
0, 0
0, 0
0, 0
2, 0
0, 0
0, 0
0, 0
0, 0
0, 0
0, 0
0, 0
0, 0
0, 0
0, 0
0, 0
0, 0
0, 0
0, 0
0, 0
0, 0
0, 0
0, 0
0, 0
0, 0
0, 0
0, 0
0, 0
0, 0
0, 0
0, 0
0, 0
0, 0
1, 0
0, 0
0, 0
0, 0
0, 0
0, 0
0, 0
0, 0
0, 0
0, 0
0, 0
0, 0
0, 0
0, 0
0, 0
0, 0
0, 0
0, 0
0, 0
0, 0
0, 0
0, 0
0, 0
0, 0
0, 0
0, 0
0, 0
0, 0
0, 0
0, 0
0, 0
0, 0
0, 0
0, 0
0, 0
0, 0
0, 0
0, 0
0, 0
0, 0
0, 0
0, 0
0, 0
0, 0
0, 0
0, 0
0, 0
0, 0
0, 0
0, 0
0, 0
0, 0
0, 0
0, 0
0, 0
0, 0
0, 0
0, 0
0, 0
0, 0
0, 0
0, 0
0, 0
0, 0
0, 0
0, 0
0, 0
0, 0
0, 0
0, 0
0, 0
0, 0
0, 0
0, 0
0, 0
0, 0
0, 0
0, 0
0, 0
0, 0
0, 0
0, 0
0, 0
0, 0
0, 0
0, 0
0, 0
0, 0
0, 0
0, 0
0, 0
0, 0
0, 0
0, 0
0, 0
0, 0
0, 0
0, 0
0, 0
0, 0
0, 0
0, 0
0, 0
0, 0
0, 0
0, 0
0, 0
0, 0
0, 0
0, 0
0, 0
0, 0
0, 0
0, 0
0, 0
0, 0
0, 0
0, 0
0, 0
0, 0
0, 0
0, 0
0, 0
0, 0
0, 0
0, 0
0, 0
0, 0
0, 0
0, 0
0, 0
0, 0
0, 0
0, 0
0, 0
0, 0
0, 0
0, 0
0, 0
0, 0
0, 0
0, 0
0, 0
0, 0
0, 0
0, 0
0, 0
0, 0
0, 0
0, 0
0, 0
0, 0
0, 0
0, 0
0, 0
0, 0
0, 0
0, 0
0, 0
0, 0
0, 0
0, 0
0, 0
0, 0
0, 0
0, 0
0, 0
0, 0
0, 0
0, 0
0, 0
0, 0
0, 0
0, 0
0, 0
0, 0
0, 0
0, 0
0, 0
0, 0
0, 0
0, 0
0, 0
0, 0
0, 0
0, 0
0, 0
0, 0
0, 0
0, 0
0, 0
0, 0
0, 0
0, 0
0, 0
0, 0
0, 0
0, 0
0, 0
0, 0
0, 0
0, 0
0, 0
0, 0
0, 0
0, 0
0, 0
0, 0
0, 0
0, 0
0, 0
0, 0
0, 0
0, 0
0, 0
0, 0
0, 0
0, 0
0, 0
0, 0
0, 0
0, 0
0, 0
0, 0
0, 0
0, 0
0, 0
0, 0
0, 0
0, 0
0, 0
0, 0
0, 0
0, 0
0, 0
0, 0
0, 0
0, 0
0, 0
0, 0
0, 0
0, 0
0, 0
0, 0
0, 0
0, 0
0, 0
0, 0
0, 0
0, 0
0, 0
0, 0
0, 0
0, 0
0, 0
0, 0
0, 0
0, 0
0, 0
0, 0
0, 0
0, 0
0, 0
0, 0
0, 0
0, 0
0, 0
0, 0
0, 0
0, 0
0, 0
0, 0
0, 0
0, 0
0, 0
0, 0
0, 0
0, 0
0, 0
0, 0
0, 0
0, 0
0, 0
0, 0
0, 0
0, 0
0, 0
0, 0
0, 0
0, 0
0, 0
0, 0
0, 0
0, 0
0, 0
0, 0
0, 0
0, 0
0, 0
0, 0
0, 0
0, 0
0, 0
0, 0
0, 0
0, 0
0, 0
0, 0
0, 0
0, 0
0, 0
0, 0
0, 0
0, 0
0, 0
0, 0
0, 0
0, 0
0, 0
0, 0
0, 0
0, 0
0, 0
0, 0
0, 0
0, 0
0, 0
0, 0
0, 0
0, 0
0, 0
0, 0
0, 0
0, 0
0, 0
0, 0
0, 0
0, 0
0, 0
0, 0
0, 0
0, 0
0, 0
0, 0
0, 0
0, 0
0, 0
0, 0
0, 0
0, 0
0, 0
0, 0
0, 0
0, 0
0, 0
0, 0
0, 0
0, 0
0, 0
0, 0
0, 0
0, 0
0, 0
0, 0
0, 0
0, 0
0, 0
0, 0
0, 0
0, 0
0, 0
0, 0
0, 0
0, 0
#ENDOFDATA     end of spectrum data