File: host_upload/06-09-2024/ps_0852/dump3/ps__0852shot_2441.msa
#FORMAT      : EMSA/MAS spectral data file
#VERSION     : TC202v2.0 PIXL
#TITLE       : N/A
#DATE        :       Date in the format DD-MMM-YYYY, for example 07-JUL-2010
#TIME        :             The time of day at which the spectrum was recorded, in 24-hour format
#OWNER       : PIXL Flight Model       (PIXL will use this to indicate which instrument took the data.)
#NPOINTS     : 4096     Number of data points in the spectrum (This can be zero for configuration only files)
#NCOLUMNS    : 2     Number of data columns in the spectrum (This can be zero for configuration only files)
#XUNITS      : eV
#YUNITS      : COUNTS
#DATATYPE    : YY
#XPERCHAN    : 7.862, 7.881   eV per channel (separate by commas if more than one detector)
#OFFSET      : 18.5, -22.4         eV of first channel  (separate by commas if more than one detector
#SIGNALTYPE  : XRF
#YP_TEMP     : 2.364
#LIVETIME    : 8.55337, 8.54236   seconds (separate by commas if more than one detector)
#REALTIME    : 10, 10.0   seconds (separate by commas if more than one detector)
#SPECTRUM    : start of spectrum data
0, 0
0, 0
0, 0
0, 0
0, 0
0, 0
0, 0
0, 0
0, 0
0, 0
0, 0
0, 0
0, 0
0, 0
0, 0
0, 0
0, 0
0, 0
0, 0
0, 0
0, 0
0, 0
0, 0
0, 0
0, 0
0, 0
0, 0
0, 0
0, 0
0, 0
0, 0
0, 0
1, 0
1, 0
1, 0
0, 0
0, 1
0, 4
1, 2
6, 3
1, 7
2, 5
2, 8
0, 4
0, 14
0, 4
3, 3
4, 3
7, 11
9, 16
25, 21
29, 38
58, 55
72, 75
86, 74
73, 64
53, 50
45, 34
21, 19
14, 16
14, 4
7, 3
2, 4
2, 4
5, 2
6, 4
4, 7
7, 12
32, 26
55, 51
91, 107
173, 169
262, 239
337, 342
439, 390
445, 389
379, 337
292, 270
216, 174
118, 117
56, 62
40, 28
15, 16
7, 10
7, 7
5, 2
5, 5
5, 1
1, 6
2, 2
1, 1
1, 2
2, 0
1, 1
1, 3
1, 0
1, 2
1, 6
4, 7
3, 7
6, 2
2, 4
5, 4
1, 3
1, 9
7, 10
3, 13
10, 19
13, 35
22, 60
29, 122
43, 218
49, 314
62, 385
70, 432
79, 513
96, 417
63, 399
60, 267
59, 169
25, 128
26, 71
21, 48
26, 26
15, 29
24, 21
16, 13
7, 13
13, 8
8, 8
6, 7
9, 1
3, 3
2, 3
4, 5
5, 1
2, 4
3, 3
1, 0
1, 3
3, 5
1, 4
3, 0
3, 5
1, 2
2, 4
1, 2
1, 1
0, 3
1, 5
3, 1
7, 2
4, 5
12, 15
10, 18
17, 14
21, 23
18, 21
25, 30
26, 16
20, 14
17, 14
9, 8
8, 3
5, 1
2, 6
3, 2
5, 4
3, 5
6, 6
9, 3
7, 12
7, 8
6, 10
8, 8
9, 6
16, 4
7, 2
13, 5
11, 3
10, 5
5, 4
10, 8
7, 3
9, 4
9, 4
6, 4
5, 5
8, 4
7, 8
10, 11
8, 11
9, 10
5, 10
16, 13
15, 16
20, 24
13, 26
15, 13
15, 12
21, 29
22, 15
26, 22
10, 24
8, 22
21, 16
16, 12
14, 18
20, 13
26, 11
21, 5
18, 11
28, 10
27, 14
29, 19
14, 17
14, 16
11, 12
9, 19
6, 14
8, 11
6, 13
7, 4
6, 14
5, 12
12, 6
8, 13
12, 13
11, 13
18, 19
11, 15
21, 11
13, 15
17, 12
14, 14
14, 8
17, 18
10, 11
18, 9
15, 9
12, 15
10, 10
16, 12
9, 12
17, 20
18, 23
28, 27
34, 32
40, 57
56, 62
64, 59
73, 61
65, 57
54, 44
41, 41
44, 42
31, 27
29, 29
24, 34
19, 27
30, 33
39, 36
54, 73
95, 104
171, 169
314, 300
494, 562
771, 883
1154, 1283
1669, 1634
1992, 2100
2332, 2294
2529, 2282
2419, 2160
2240, 1856
1848, 1453
1359, 1042
946, 714
588, 462
336, 269
207, 155
115, 74
67, 66
40, 46
29, 33
22, 29
27, 34
16, 33
19, 37
23, 38
32, 41
35, 59
47, 81
56, 97
88, 125
152, 183
203, 229
282, 279
313, 345
358, 381
357, 350
389, 319
351, 274
261, 220
203, 142
130, 97
88, 70
63, 33
39, 18
17, 14
9, 7
8, 8
5, 4
10, 14
10, 10
21, 10
24, 15
23, 9
25, 7
13, 10
31, 11
29, 7
18, 8
6, 14
5, 6
9, 4
4, 5
6, 2
5, 3
3, 5
6, 6
4, 3
3, 5
4, 6
3, 6
2, 2
6, 4
4, 8
1, 5
4, 8
3, 5
8, 7
5, 5
4, 5
5, 3
10, 6
5, 7
5, 5
10, 7
8, 7
7, 7
12, 4
7, 7
9, 11
7, 9
3, 7
8, 5
7, 11
8, 12
6, 14
3, 11
9, 6
5, 9
8, 11
5, 7
4, 5
4, 6
3, 4
5, 1
4, 2
5, 4
6, 5
9, 3
1, 1
7, 4
8, 2
7, 5
8, 4
7, 3
4, 7
5, 7
8, 3
6, 3
7, 9
3, 7
4, 6
6, 5
4, 7
2, 6
9, 4
5, 7
7, 4
4, 4
2, 2
7, 2
6, 1
1, 1
0, 8
2, 6
1, 9
4, 3
6, 5
7, 2
6, 8
6, 4
6, 8
9, 3
3, 6
5, 3
6, 3
3, 3
7, 5
7, 3
2, 4
3, 1
5, 5
3, 2
6, 1
9, 2
5, 3
3, 3
4, 5
5, 6
5, 3
1, 6
6, 5
6, 6
4, 10
4, 6
4, 9
0, 6
2, 11
2, 6
2, 7
2, 2
0, 12
4, 9
3, 6
3, 6
6, 4
3, 2
2, 6
4, 1
8, 2
8, 6
1, 3
5, 5
2, 3
5, 4
3, 7
4, 4
6, 2
1, 6
5, 4
5, 2
6, 3
1, 3
3, 6
1, 5
4, 2
2, 4
4, 2
2, 4
3, 1
5, 3
4, 1
4, 7
6, 4
2, 2
1, 3
1, 4
1, 1
4, 1
1, 3
2, 1
1, 1
1, 3
1, 4
5, 1
2, 4
3, 2
0, 4
2, 1
1, 1
1, 1
2, 3
3, 3
0, 2
2, 2
3, 0
4, 1
5, 3
4, 0
5, 3
1, 2
3, 2
4, 2
3, 0
2, 1
5, 1
1, 4
2, 2
2, 2
0, 2
1, 3
2, 2
3, 2
1, 3
0, 2
2, 2
0, 2
1, 2
3, 0
6, 1
1, 0
1, 1
6, 4
1, 5
4, 0
4, 2
4, 2
5, 2
2, 2
1, 2
2, 4
1, 1
2, 3
1, 3
4, 2
3, 0
2, 1
3, 2
1, 1
1, 2
1, 4
1, 6
3, 1
1, 3
3, 2
7, 3
1, 4
3, 5
4, 0
3, 3
1, 3
3, 3
6, 3
3, 4
4, 4
3, 5
3, 2
3, 2
0, 2
1, 0
1, 3
0, 1
2, 1
2, 2
0, 1
1, 0
0, 0
0, 2
3, 1
0, 2
2, 2
4, 0
2, 2
3, 1
5, 1
3, 4
1, 3
2, 4
2, 3
2, 2
1, 2
2, 1
3, 2
1, 0
2, 0
0, 0
3, 2
0, 0
1, 0
0, 0
3, 1
0, 0
0, 0
1, 1
2, 0
0, 2
1, 6
2, 1
0, 0
0, 2
0, 2
1, 0
2, 3
0, 2
5, 1
4, 1
5, 1
1, 1
4, 2
1, 0
3, 1
0, 1
0, 0
1, 3
2, 2
1, 0
3, 0
2, 1
1, 4
0, 0
1, 2
2, 0
0, 1
1, 1
0, 0
0, 1
1, 0
0, 1
0, 3
1, 1
1, 0
0, 0
1, 3
1, 2
0, 4
0, 1
1, 0
2, 0
2, 0
0, 0
0, 0
1, 0
0, 0
3, 1
1, 0
0, 0
2, 3
0, 1
1, 1
0, 2
2, 0
1, 0
0, 0
1, 1
1, 0
0, 0
1, 0
0, 1
2, 2
2, 0
0, 3
0, 0
1, 1
0, 0
1, 0
1, 0
1, 1
1, 0
0, 1
0, 0
1, 0
0, 0
0, 1
0, 0
1, 1
0, 0
0, 0
0, 0
1, 0
2, 2
0, 1
0, 0
0, 0
0, 0
0, 0
1, 0
2, 1
1, 0
0, 0
3, 1
2, 1
3, 0
1, 1
0, 2
0, 0
1, 0
0, 0
0, 3
0, 3
2, 3
0, 0
0, 0
0, 1
1, 0
1, 0
0, 2
0, 0
0, 0
1, 0
1, 1
0, 0
0, 0
1, 0
0, 0
0, 2
0, 0
0, 0
2, 1
2, 0
0, 2
0, 2
1, 0
1, 1
1, 0
0, 0
0, 0
0, 0
1, 0
1, 1
0, 3
0, 1
1, 1
0, 0
1, 0
0, 0
0, 0
0, 0
0, 2
0, 0
1, 0
0, 1
0, 1
0, 0
0, 0
0, 0
1, 0
1, 0
0, 1
0, 0
1, 0
0, 0
0, 0
0, 0
0, 0
0, 0
0, 0
0, 0
0, 0
1, 0
0, 0
1, 0
0, 0
0, 2
1, 0
0, 0
0, 0
0, 0
0, 0
0, 0
0, 1
0, 0
1, 0
0, 0
0, 0
0, 0
1, 1
0, 0
0, 0
1, 1
0, 0
0, 0
0, 0
1, 0
0, 0
0, 0
0, 0
0, 0
0, 0
0, 0
0, 0
0, 2
1, 0
0, 0
0, 0
0, 0
1, 1
0, 0
1, 1
0, 1
1, 0
0, 0
0, 0
0, 0
0, 0
0, 0
0, 0
0, 0
0, 0
0, 1
0, 0
0, 0
1, 0
0, 0
0, 0
0, 1
0, 0
0, 0
0, 0
1, 0
0, 0
1, 1
0, 1
0, 0
0, 1
0, 1
0, 1
0, 0
0, 0
0, 0
1, 0
0, 0
0, 0
0, 0
0, 0
0, 0
0, 0
0, 0
0, 0
0, 0
0, 0
1, 0
0, 0
0, 0
0, 0
0, 0
0, 0
0, 0
0, 1
0, 0
0, 0
0, 0
0, 0
0, 1
0, 0
0, 0
0, 0
0, 0
0, 0
0, 0
0, 0
0, 0
0, 0
0, 0
1, 1
0, 0
0, 0
0, 0
0, 0
0, 1
0, 1
0, 0
1, 1
0, 0
0, 0
0, 0
0, 0
0, 0
0, 0
0, 1
0, 0
0, 0
0, 0
0, 0
0, 1
0, 0
0, 0
0, 0
0, 0
0, 0
0, 0
1, 0
0, 0
0, 0
0, 0
0, 0
0, 0
0, 0
0, 0
1, 0
0, 0
0, 0
0, 0
0, 0
0, 0
0, 0
0, 0
0, 0
0, 0
0, 0
1, 0
0, 0
1, 0
0, 0
0, 0
0, 0
0, 0
0, 0
0, 0
0, 0
0, 0
0, 0
0, 0
0, 0
0, 0
0, 1
0, 0
0, 0
0, 1
0, 0
0, 0
0, 0
0, 0
0, 0
0, 0
0, 0
0, 0
0, 0
0, 0
0, 0
0, 1
0, 0
0, 0
0, 0
0, 0
0, 0
0, 0
0, 0
1, 0
0, 0
0, 0
0, 0
0, 0
0, 0
0, 0
0, 0
0, 0
0, 0
0, 0
0, 0
0, 0
0, 0
0, 0
0, 0
0, 0
0, 0
1, 0
0, 0
0, 0
0, 0
0, 0
0, 0
0, 0
0, 0
0, 0
0, 0
0, 0
0, 0
0, 0
0, 0
0, 0
0, 0
0, 0
0, 0
0, 1
0, 0
0, 0
0, 0
0, 0
0, 0
0, 0
0, 0
0, 0
0, 0
0, 0
0, 0
0, 0
0, 0
0, 0
0, 0
0, 0
0, 0
0, 0
0, 0
0, 0
0, 0
0, 0
0, 0
0, 0
0, 0
0, 0
0, 0
0, 0
0, 0
0, 0
0, 0
0, 0
0, 0
0, 0
0, 0
0, 0
0, 1
0, 0
0, 0
0, 0
0, 0
0, 0
0, 0
0, 0
0, 0
0, 0
0, 0
0, 0
0, 0
0, 0
0, 0
0, 0
0, 1
0, 0
0, 0
0, 0
0, 0
0, 0
0, 0
0, 0
0, 0
0, 0
0, 0
0, 0
0, 0
0, 0
0, 0
0, 0
0, 0
0, 0
0, 0
0, 1
0, 0
0, 0
0, 0
0, 0
0, 0
0, 0
0, 0
0, 0
0, 0
0, 0
0, 0
0, 0
0, 0
0, 0
0, 0
0, 0
0, 0
0, 0
0, 0
0, 0
0, 0
0, 0
0, 0
0, 0
0, 0
0, 0
0, 0
0, 0
0, 0
0, 0
0, 0
0, 0
0, 0
0, 0
0, 0
0, 0
0, 0
0, 0
0, 0
0, 0
0, 0
0, 0
0, 0
0, 0
0, 0
0, 0
0, 0
0, 0
0, 1
0, 0
0, 0
0, 0
0, 0
0, 0
0, 0
0, 0
0, 0
0, 0
0, 0
0, 0
0, 0
0, 0
0, 0
0, 0
0, 0
0, 0
0, 0
0, 0
0, 0
0, 0
0, 0
0, 0
0, 0
0, 0
0, 0
0, 0
0, 0
0, 0
0, 0
0, 0
0, 0
0, 0
0, 0
0, 0
0, 0
0, 0
0, 0
0, 0
0, 0
0, 0
0, 0
0, 0
0, 0
0, 0
0, 0
0, 0
0, 0
0, 0
0, 0
0, 0
0, 0
0, 0
0, 0
0, 0
0, 0
0, 0
0, 0
0, 0
0, 0
0, 0
0, 0
0, 0
0, 0
0, 0
0, 0
0, 0
0, 0
0, 0
0, 0
0, 0
0, 0
0, 0
0, 0
0, 0
0, 0
0, 0
0, 0
0, 0
0, 0
0, 0
0, 0
0, 0
0, 0
0, 0
0, 0
0, 0
0, 0
0, 0
0, 0
0, 0
0, 0
0, 0
0, 0
0, 0
0, 0
0, 0
0, 0
0, 0
0, 0
0, 0
0, 0
0, 0
0, 0
0, 0
0, 0
0, 0
0, 0
0, 0
0, 0
0, 0
0, 0
0, 0
0, 0
0, 0
0, 0
0, 0
0, 0
0, 0
0, 0
0, 0
0, 0
0, 0
0, 0
0, 0
0, 0
0, 0
0, 0
0, 0
0, 0
0, 0
0, 0
0, 0
0, 0
0, 0
0, 0
0, 0
0, 0
0, 0
0, 0
0, 0
0, 0
0, 0
0, 0
0, 0
0, 0
0, 0
0, 0
0, 0
0, 0
0, 0
0, 0
0, 0
0, 0
0, 0
0, 0
0, 0
0, 0
0, 0
0, 0
0, 0
0, 0
0, 0
0, 0
0, 0
0, 0
0, 0
0, 0
0, 0
0, 0
0, 0
0, 0
0, 0
0, 0
0, 0
0, 0
0, 0
0, 0
0, 0
0, 0
0, 0
0, 0
0, 0
0, 0
0, 0
0, 0
0, 0
0, 0
0, 0
0, 0
0, 0
0, 0
0, 0
0, 0
0, 0
0, 0
0, 0
0, 0
0, 0
0, 0
0, 0
0, 0
0, 0
0, 0
0, 0
0, 0
0, 0
0, 0
0, 0
0, 0
0, 0
0, 0
0, 0
0, 0
0, 0
0, 0
0, 0
0, 0
0, 0
0, 0
0, 0
0, 0
0, 0
0, 0
0, 0
0, 0
0, 0
0, 0
0, 0
0, 0
0, 0
0, 0
0, 0
0, 0
0, 0
0, 0
0, 0
0, 0
0, 0
0, 0
0, 0
0, 0
0, 0
0, 0
0, 0
0, 0
0, 0
0, 0
0, 0
0, 0
0, 0
0, 0
0, 0
0, 0
0, 0
0, 0
0, 0
0, 0
0, 0
0, 0
0, 0
0, 0
0, 0
0, 0
0, 0
0, 0
0, 0
#ENDOFDATA     end of spectrum data