File: host_upload/06-09-2024/ps_0852/dump3/ps__0852shot_2026.msa
#FORMAT      : EMSA/MAS spectral data file
#VERSION     : TC202v2.0 PIXL
#TITLE       : N/A
#DATE        :       Date in the format DD-MMM-YYYY, for example 07-JUL-2010
#TIME        :             The time of day at which the spectrum was recorded, in 24-hour format
#OWNER       : PIXL Flight Model       (PIXL will use this to indicate which instrument took the data.)
#NPOINTS     : 4096     Number of data points in the spectrum (This can be zero for configuration only files)
#NCOLUMNS    : 2     Number of data columns in the spectrum (This can be zero for configuration only files)
#XUNITS      : eV
#YUNITS      : COUNTS
#DATATYPE    : YY
#XPERCHAN    : 7.862, 7.881   eV per channel (separate by commas if more than one detector)
#OFFSET      : 18.5, -22.4         eV of first channel  (separate by commas if more than one detector
#SIGNALTYPE  : XRF
#YP_TEMP     : 2.364
#LIVETIME    : 8.55488, 8.35739   seconds (separate by commas if more than one detector)
#REALTIME    : 10, 10.0   seconds (separate by commas if more than one detector)
#SPECTRUM    : start of spectrum data
0, 0
0, 0
0, 0
0, 0
0, 0
0, 0
0, 0
0, 0
0, 0
0, 0
0, 0
0, 0
0, 0
0, 0
0, 0
0, 0
0, 0
0, 0
0, 0
0, 0
0, 0
0, 0
0, 0
0, 0
0, 0
0, 0
0, 0
0, 0
0, 0
0, 0
0, 0
0, 0
0, 0
0, 0
0, 0
0, 0
0, 0
0, 1
0, 0
0, 0
0, 2
2, 1
1, 3
0, 1
3, 1
1, 1
4, 3
7, 2
9, 3
18, 7
21, 22
26, 37
49, 53
67, 74
76, 59
64, 65
56, 46
51, 36
23, 14
27, 12
6, 11
7, 10
5, 7
2, 6
4, 5
2, 9
8, 8
11, 5
25, 18
45, 56
94, 117
184, 177
243, 264
360, 357
409, 412
454, 365
360, 341
273, 293
211, 194
141, 118
70, 66
43, 30
19, 23
12, 6
8, 3
1, 5
1, 5
0, 0
1, 2
2, 1
2, 2
0, 0
1, 1
1, 0
6, 2
4, 3
10, 3
4, 7
5, 8
6, 6
5, 3
7, 5
2, 8
2, 0
0, 4
6, 6
6, 5
9, 11
13, 16
24, 24
23, 37
31, 54
43, 96
55, 101
51, 124
53, 111
55, 103
48, 100
45, 69
42, 54
39, 37
34, 36
37, 24
36, 16
29, 17
37, 14
28, 9
23, 12
16, 10
15, 12
5, 3
6, 0
2, 3
1, 4
2, 2
3, 3
4, 2
3, 3
7, 1
4, 0
1, 2
0, 4
2, 3
2, 2
3, 2
1, 1
2, 5
0, 3
1, 4
3, 5
1, 11
1, 14
8, 12
9, 21
11, 35
17, 26
22, 32
22, 23
21, 27
15, 21
11, 29
12, 19
9, 11
6, 3
6, 8
7, 2
8, 3
13, 4
29, 5
19, 4
24, 4
22, 4
15, 2
25, 3
10, 8
12, 1
2, 3
1, 3
7, 1
7, 2
4, 6
9, 1
6, 4
7, 3
9, 3
7, 2
19, 8
10, 4
6, 9
10, 7
13, 4
11, 7
10, 16
6, 9
7, 12
10, 17
11, 8
10, 13
11, 18
17, 13
15, 12
5, 12
7, 7
12, 5
6, 4
1, 5
1, 5
2, 6
3, 2
6, 7
7, 4
6, 8
5, 4
5, 8
6, 3
6, 8
4, 5
9, 5
5, 9
12, 5
4, 5
6, 6
8, 6
9, 4
8, 3
6, 11
8, 8
8, 8
13, 17
8, 11
8, 13
19, 14
15, 19
13, 17
12, 14
16, 8
22, 16
21, 17
30, 13
46, 13
42, 8
43, 11
58, 19
53, 12
67, 21
66, 19
61, 29
69, 44
62, 48
61, 52
65, 61
66, 63
62, 46
65, 49
38, 38
36, 26
25, 33
22, 13
30, 14
17, 12
20, 24
24, 41
44, 56
83, 110
171, 207
305, 364
479, 571
792, 964
1160, 1243
1560, 1683
1952, 2055
2329, 2209
2527, 2410
2417, 2262
2170, 1928
1813, 1531
1326, 1053
965, 737
642, 422
325, 298
195, 169
114, 65
67, 40
27, 28
25, 17
17, 7
12, 18
14, 18
16, 15
12, 17
23, 32
31, 34
46, 52
71, 83
122, 138
147, 170
193, 222
248, 283
331, 322
338, 377
390, 362
315, 335
300, 296
261, 204
194, 166
136, 97
99, 73
56, 47
34, 23
22, 16
13, 12
7, 5
4, 7
8, 7
13, 8
14, 11
11, 9
16, 6
13, 11
17, 6
11, 11
9, 6
8, 6
10, 6
7, 5
8, 4
6, 4
4, 4
2, 4
2, 4
4, 6
4, 1
7, 8
2, 3
3, 3
8, 6
3, 5
4, 8
9, 11
3, 4
3, 17
4, 22
3, 33
5, 36
3, 26
10, 35
3, 36
6, 24
9, 21
10, 16
5, 18
7, 10
7, 8
2, 11
6, 8
6, 5
2, 5
5, 4
11, 3
2, 8
7, 5
5, 3
5, 3
3, 2
4, 3
5, 2
1, 3
6, 7
6, 1
10, 7
3, 3
3, 5
6, 4
8, 2
4, 3
11, 4
3, 2
5, 3
3, 3
7, 4
9, 4
6, 3
9, 6
9, 4
13, 4
18, 3
23, 3
34, 2
19, 4
32, 4
34, 2
36, 7
31, 3
30, 2
28, 2
18, 2
12, 3
17, 3
8, 7
9, 7
5, 1
7, 5
7, 2
10, 3
3, 5
9, 2
10, 3
12, 2
13, 3
23, 0
17, 6
20, 4
9, 1
17, 1
6, 5
6, 2
5, 1
16, 5
3, 7
1, 3
3, 2
4, 1
1, 1
0, 1
0, 3
6, 2
2, 2
2, 5
6, 3
2, 2
2, 4
1, 3
2, 2
1, 7
3, 2
1, 2
7, 4
3, 5
1, 0
7, 3
3, 2
3, 2
1, 3
2, 1
3, 6
7, 5
2, 4
3, 2
2, 4
5, 4
3, 1
4, 3
2, 6
3, 2
2, 5
2, 0
3, 2
1, 1
1, 0
1, 3
1, 2
3, 2
0, 0
2, 1
7, 3
3, 5
5, 6
2, 3
4, 4
2, 4
1, 2
4, 2
2, 2
2, 3
6, 0
0, 4
2, 2
5, 5
5, 4
7, 2
1, 1
2, 3
5, 1
6, 1
5, 1
3, 1
6, 1
6, 4
3, 3
3, 1
2, 2
5, 0
4, 1
3, 5
3, 2
0, 6
4, 5
2, 2
1, 2
5, 3
4, 3
4, 4
4, 6
3, 5
5, 6
0, 4
3, 3
2, 2
4, 3
1, 2
0, 3
3, 3
2, 3
2, 1
4, 3
4, 1
2, 4
2, 1
6, 2
2, 3
3, 1
2, 3
2, 1
2, 1
2, 0
1, 3
2, 1
2, 0
1, 3
1, 3
0, 3
2, 2
2, 0
0, 2
1, 2
3, 1
4, 2
2, 1
4, 4
7, 4
4, 3
2, 4
5, 2
3, 2
3, 1
6, 2
5, 1
2, 5
6, 3
0, 1
2, 3
1, 6
1, 2
2, 2
0, 1
0, 3
2, 3
1, 3
1, 1
1, 3
1, 1
5, 2
0, 0
2, 1
2, 0
0, 2
1, 0
0, 1
1, 2
4, 0
1, 2
5, 1
5, 3
2, 0
3, 1
0, 2
2, 1
0, 3
2, 0
1, 1
0, 2
0, 1
1, 3
2, 0
0, 1
1, 1
3, 1
3, 2
1, 1
0, 4
0, 1
1, 1
1, 1
1, 1
0, 1
0, 1
0, 0
1, 3
0, 1
2, 3
2, 1
1, 3
0, 2
1, 2
1, 0
1, 3
1, 1
3, 0
0, 1
0, 1
1, 1
1, 0
1, 2
1, 1
1, 0
0, 2
1, 1
3, 1
1, 1
0, 1
0, 0
0, 1
0, 1
2, 1
1, 0
2, 1
1, 0
2, 1
0, 1
2, 1
0, 1
0, 0
0, 1
1, 0
1, 0
0, 0
0, 1
0, 1
1, 0
0, 3
3, 0
1, 2
0, 1
1, 3
1, 1
0, 1
0, 0
1, 0
0, 2
1, 0
0, 1
0, 0
0, 2
0, 0
0, 1
1, 1
1, 1
0, 0
0, 1
0, 0
0, 0
1, 0
0, 0
0, 0
0, 0
0, 0
0, 0
1, 1
1, 1
0, 0
0, 0
1, 1
0, 0
0, 0
1, 0
1, 0
0, 0
0, 0
0, 0
1, 0
0, 1
1, 0
0, 1
0, 3
0, 0
2, 2
0, 0
1, 0
0, 0
0, 1
0, 1
1, 0
0, 0
1, 1
0, 1
0, 1
0, 0
0, 4
0, 0
0, 0
0, 1
1, 0
0, 1
1, 0
0, 0
0, 0
1, 0
0, 1
1, 0
0, 0
0, 0
1, 0
0, 0
0, 0
0, 0
1, 1
0, 1
0, 0
0, 1
0, 0
1, 0
0, 0
2, 0
0, 0
0, 1
0, 0
0, 0
0, 0
0, 0
3, 0
0, 0
0, 1
0, 0
0, 2
0, 0
1, 1
1, 0
1, 0
0, 0
1, 1
0, 0
0, 0
0, 0
1, 0
0, 0
1, 1
0, 0
2, 0
0, 0
0, 1
0, 0
0, 0
0, 0
0, 0
0, 0
1, 0
0, 0
1, 2
1, 0
0, 1
0, 2
0, 0
0, 0
1, 0
1, 0
1, 1
0, 1
0, 0
0, 0
0, 1
1, 0
1, 2
1, 0
0, 0
0, 0
0, 0
2, 1
1, 0
0, 0
0, 0
0, 0
0, 0
0, 0
0, 0
0, 1
0, 0
0, 0
0, 0
2, 0
1, 0
0, 0
1, 0
0, 0
0, 0
0, 1
0, 0
0, 0
0, 0
0, 0
0, 0
0, 1
1, 0
0, 0
0, 1
1, 0
0, 0
0, 1
0, 1
0, 0
0, 0
0, 0
0, 0
0, 0
0, 0
0, 0
0, 1
0, 1
0, 0
1, 0
0, 0
0, 0
0, 0
0, 1
0, 0
0, 0
0, 0
0, 1
0, 0
0, 0
0, 0
0, 0
0, 0
0, 0
1, 1
0, 0
0, 1
0, 0
1, 0
0, 0
0, 0
1, 1
0, 1
1, 0
0, 0
0, 0
0, 0
0, 0
0, 0
0, 0
0, 0
0, 0
0, 1
0, 1
0, 0
0, 0
0, 0
0, 0
0, 0
0, 0
1, 0
0, 0
0, 0
0, 0
0, 0
0, 0
0, 0
0, 0
0, 0
0, 0
0, 0
0, 0
0, 0
0, 0
0, 0
0, 0
0, 0
0, 0
0, 0
0, 0
0, 2
0, 0
0, 0
1, 0
0, 0
0, 0
0, 0
0, 0
0, 0
0, 0
0, 0
0, 0
0, 0
0, 0
0, 0
0, 0
0, 0
0, 0
0, 1
0, 0
0, 0
0, 0
0, 0
0, 0
1, 0
0, 0
0, 0
0, 0
0, 1
0, 0
0, 0
0, 1
0, 0
0, 0
0, 0
0, 0
0, 0
0, 0
0, 0
0, 0
0, 0
0, 0
0, 0
0, 0
0, 0
0, 0
0, 0
0, 0
0, 0
0, 0
0, 0
0, 1
0, 0
1, 0
0, 0
0, 0
0, 1
0, 0
0, 0
0, 0
0, 0
0, 0
0, 0
1, 0
0, 0
0, 1
0, 0
0, 0
0, 1
0, 0
0, 0
0, 0
0, 0
0, 0
0, 0
0, 0
0, 0
0, 0
0, 1
0, 0
0, 0
0, 0
0, 0
0, 0
0, 0
0, 0
0, 0
0, 0
0, 0
0, 0
0, 0
0, 0
0, 0
0, 0
0, 0
0, 0
0, 0
0, 0
0, 0
0, 0
0, 0
0, 0
0, 0
0, 0
0, 0
0, 0
0, 0
0, 0
0, 0
0, 0
0, 0
0, 0
0, 0
0, 0
0, 0
0, 0
0, 0
0, 1
0, 0
0, 0
0, 0
0, 0
0, 0
0, 0
0, 0
0, 0
0, 0
0, 0
0, 0
0, 0
0, 0
0, 0
0, 0
0, 0
0, 0
0, 0
0, 0
0, 0
0, 0
0, 0
0, 0
0, 0
0, 0
0, 0
0, 0
0, 0
0, 0
0, 0
0, 0
0, 0
0, 0
0, 0
0, 0
0, 0
0, 0
0, 0
0, 0
0, 0
0, 0
0, 0
0, 0
0, 0
0, 0
0, 0
0, 0
0, 0
0, 0
0, 0
0, 0
0, 0
0, 0
0, 0
0, 0
0, 0
0, 0
0, 0
0, 0
0, 0
0, 0
0, 0
0, 0
0, 0
0, 0
0, 0
0, 0
0, 0
0, 0
0, 0
0, 0
0, 0
0, 0
0, 0
0, 0
0, 0
0, 0
0, 0
0, 0
0, 0
0, 0
0, 0
0, 0
0, 0
0, 0
0, 0
0, 0
0, 0
0, 0
0, 0
0, 0
0, 0
0, 0
0, 0
0, 0
0, 0
0, 0
0, 0
0, 0
0, 0
0, 0
0, 0
0, 0
0, 0
0, 0
0, 0
0, 0
0, 0
0, 0
0, 0
0, 0
0, 0
0, 0
0, 0
0, 0
0, 0
0, 0
0, 0
0, 0
0, 0
0, 0
0, 0
0, 0
0, 0
0, 0
0, 0
0, 0
0, 0
0, 0
0, 0
0, 0
0, 0
0, 0
0, 0
0, 0
0, 0
0, 0
0, 0
0, 0
0, 0
0, 0
0, 0
0, 0
0, 0
0, 0
0, 0
0, 0
0, 0
0, 0
0, 0
0, 0
0, 0
0, 0
0, 0
0, 0
0, 0
0, 0
0, 0
0, 0
0, 0
0, 0
0, 0
0, 0
0, 0
0, 0
0, 0
0, 0
0, 0
0, 0
0, 0
0, 0
0, 0
0, 0
0, 0
0, 0
0, 0
0, 0
0, 0
0, 0
0, 0
0, 0
0, 0
0, 0
0, 0
0, 0
0, 0
0, 0
0, 0
0, 0
0, 0
0, 0
0, 0
0, 0
0, 0
0, 0
0, 0
0, 0
0, 0
0, 0
0, 0
0, 0
0, 0
0, 0
0, 0
0, 0
0, 0
0, 0
0, 0
0, 0
0, 0
0, 0
0, 0
0, 0
0, 0
0, 0
0, 0
0, 0
0, 0
0, 0
0, 0
0, 0
0, 0
0, 0
0, 0
0, 0
0, 0
0, 0
0, 0
0, 0
0, 0
0, 0
0, 0
0, 0
0, 0
0, 0
0, 0
0, 0
0, 0
0, 0
0, 0
0, 0
0, 0
0, 0
0, 0
0, 0
0, 0
0, 0
0, 0
0, 0
0, 0
0, 0
0, 0
0, 0
0, 0
0, 0
0, 0
0, 0
0, 0
0, 0
0, 0
0, 0
0, 0
0, 0
0, 0
0, 0
0, 0
0, 0
0, 0
0, 0
0, 0
0, 0
0, 0
0, 0
0, 0
0, 0
0, 0
0, 0
0, 0
0, 0
0, 0
0, 0
0, 0
0, 0
0, 0
0, 0
0, 0
0, 0
0, 0
0, 0
0, 0
0, 0
0, 0
0, 0
0, 0
0, 0
0, 0
0, 0
0, 0
0, 0
0, 0
0, 0
0, 0
0, 0
0, 0
0, 0
0, 0
0, 0
0, 0
0, 0
0, 0
0, 0
0, 0
0, 0
0, 0
0, 0
0, 0
0, 0
0, 0
0, 0
0, 0
0, 0
0, 0
0, 0
0, 0
0, 0
0, 0
0, 0
0, 0
0, 0
0, 0
0, 0
0, 0
0, 0
0, 0
0, 0
0, 0
0, 0
0, 0
0, 0
0, 0
0, 0
0, 0
0, 0
0, 0
0, 0
0, 0
0, 0
0, 0
0, 0
0, 0
0, 0
0, 0
0, 0
0, 0
0, 0
0, 0
0, 0
0, 0
0, 0
0, 0
0, 0
0, 0
0, 0
0, 0
0, 0
0, 0
0, 0
0, 0
0, 0
#ENDOFDATA     end of spectrum data