File: host_upload/06-09-2024/ps_0852/dump3/ps__0852shot_2549.msa
#FORMAT      : EMSA/MAS spectral data file
#VERSION     : TC202v2.0 PIXL
#TITLE       : N/A
#DATE        :       Date in the format DD-MMM-YYYY, for example 07-JUL-2010
#TIME        :             The time of day at which the spectrum was recorded, in 24-hour format
#OWNER       : PIXL Flight Model       (PIXL will use this to indicate which instrument took the data.)
#NPOINTS     : 4096     Number of data points in the spectrum (This can be zero for configuration only files)
#NCOLUMNS    : 2     Number of data columns in the spectrum (This can be zero for configuration only files)
#XUNITS      : eV
#YUNITS      : COUNTS
#DATATYPE    : YY
#XPERCHAN    : 7.862, 7.881   eV per channel (separate by commas if more than one detector)
#OFFSET      : 18.5, -22.4         eV of first channel  (separate by commas if more than one detector
#SIGNALTYPE  : XRF
#YP_TEMP     : 2.235
#LIVETIME    : 8.56307, 8.5429   seconds (separate by commas if more than one detector)
#REALTIME    : 10, 10.0   seconds (separate by commas if more than one detector)
#SPECTRUM    : start of spectrum data
0, 0
0, 0
0, 0
0, 0
0, 0
0, 0
0, 0
0, 0
0, 0
0, 0
0, 0
0, 0
0, 0
0, 0
0, 0
0, 0
0, 0
0, 0
0, 0
0, 0
0, 0
0, 0
0, 0
0, 0
0, 0
0, 0
0, 0
0, 0
0, 0
0, 0
0, 0
0, 0
0, 0
0, 0
0, 0
0, 1
0, 0
0, 0
0, 0
1, 0
1, 0
0, 0
0, 3
2, 0
1, 2
2, 0
2, 2
2, 4
11, 10
6, 21
22, 19
43, 56
70, 66
87, 83
92, 93
78, 74
80, 51
57, 34
37, 17
13, 7
6, 10
5, 2
1, 3
5, 1
3, 2
4, 5
9, 5
11, 8
22, 19
48, 44
98, 107
195, 137
243, 285
390, 400
443, 421
484, 435
388, 339
338, 293
206, 182
123, 116
77, 63
40, 30
17, 15
7, 11
3, 1
1, 3
1, 0
2, 1
1, 0
0, 1
2, 1
1, 0
1, 1
2, 2
1, 1
2, 3
4, 0
4, 3
2, 5
4, 4
2, 4
3, 2
1, 2
2, 1
0, 1
2, 2
1, 3
3, 2
4, 7
9, 12
11, 0
6, 18
9, 15
13, 24
19, 33
24, 36
17, 29
20, 19
12, 22
25, 20
13, 10
22, 15
17, 15
15, 10
14, 7
12, 6
10, 8
15, 5
11, 4
4, 10
5, 6
6, 0
3, 2
4, 1
1, 1
3, 2
4, 0
2, 1
3, 1
2, 4
2, 0
4, 0
3, 3
4, 3
2, 1
1, 1
2, 2
5, 3
3, 1
2, 1
4, 1
7, 4
3, 4
6, 18
18, 19
19, 18
27, 30
23, 28
19, 15
24, 30
11, 12
13, 15
10, 8
3, 7
1, 5
4, 5
1, 2
5, 2
1, 3
1, 3
9, 7
6, 6
4, 11
8, 12
3, 15
4, 15
5, 15
5, 15
4, 22
1, 16
1, 13
3, 6
6, 7
3, 5
3, 0
4, 3
8, 2
3, 9
2, 5
7, 2
8, 12
5, 7
10, 12
12, 29
14, 26
10, 32
15, 64
27, 52
21, 48
35, 62
55, 51
62, 41
73, 24
82, 24
91, 16
72, 9
63, 5
64, 8
37, 3
23, 4
14, 6
18, 7
8, 10
8, 5
13, 5
4, 8
4, 9
4, 2
4, 7
5, 9
4, 5
10, 2
8, 3
7, 6
11, 6
6, 7
14, 11
7, 13
13, 10
14, 9
13, 13
13, 11
13, 12
11, 11
14, 10
6, 11
5, 7
7, 7
8, 5
13, 8
7, 10
7, 7
11, 11
8, 9
17, 17
25, 18
33, 27
48, 35
44, 34
48, 49
59, 64
55, 69
66, 45
56, 55
49, 41
40, 24
35, 20
24, 26
17, 21
25, 16
14, 14
21, 28
30, 63
73, 79
152, 192
256, 317
451, 526
786, 893
1153, 1228
1596, 1774
1989, 2053
2388, 2388
2512, 2292
2417, 2277
2177, 1911
1674, 1541
1349, 1039
912, 680
573, 421
371, 234
254, 130
136, 65
113, 52
113, 18
121, 10
113, 10
120, 9
133, 19
129, 14
102, 19
105, 28
95, 34
88, 47
111, 72
141, 123
178, 171
228, 235
270, 295
287, 356
334, 370
359, 372
371, 315
324, 297
259, 216
198, 163
159, 96
96, 74
65, 39
34, 29
12, 19
12, 4
4, 8
8, 14
4, 8
11, 11
10, 21
16, 14
9, 15
11, 22
15, 15
18, 12
9, 8
15, 10
3, 8
2, 2
5, 5
5, 5
0, 5
4, 2
2, 1
1, 2
3, 5
3, 2
2, 6
3, 3
1, 2
4, 1
9, 7
2, 3
2, 3
6, 3
3, 6
2, 5
5, 1
4, 5
5, 6
4, 4
6, 3
3, 6
4, 6
5, 6
7, 4
7, 3
3, 6
4, 4
5, 2
6, 3
6, 3
5, 6
2, 4
12, 3
10, 6
3, 4
3, 7
4, 2
8, 6
10, 1
5, 5
5, 1
1, 4
4, 4
2, 5
2, 4
5, 0
5, 2
1, 3
1, 3
5, 5
5, 7
5, 2
5, 5
4, 6
1, 2
0, 5
6, 6
5, 2
7, 6
2, 3
2, 4
3, 2
3, 6
4, 10
4, 12
3, 25
5, 20
5, 27
1, 32
2, 35
6, 19
8, 20
5, 26
5, 13
4, 7
6, 8
3, 7
2, 5
2, 3
1, 4
9, 1
8, 3
2, 4
5, 3
7, 3
10, 2
13, 5
8, 3
22, 1
20, 3
17, 2
22, 3
19, 3
22, 3
22, 4
16, 1
17, 1
10, 0
15, 3
8, 4
7, 2
4, 0
2, 2
4, 3
8, 2
5, 4
4, 5
5, 2
4, 6
2, 0
2, 3
3, 4
2, 3
4, 4
2, 4
6, 4
1, 9
2, 3
2, 1
5, 2
2, 4
2, 2
2, 4
1, 2
3, 4
2, 4
4, 5
4, 3
3, 5
1, 0
2, 6
3, 2
5, 3
3, 3
3, 2
1, 4
3, 0
5, 4
1, 3
3, 2
1, 4
3, 4
0, 5
5, 3
3, 1
1, 1
4, 2
5, 3
5, 0
0, 2
4, 5
1, 4
1, 3
4, 4
3, 3
2, 1
0, 2
6, 2
3, 2
3, 2
1, 8
2, 5
3, 8
1, 7
3, 6
2, 3
3, 6
1, 4
2, 1
2, 4
3, 1
1, 4
2, 4
5, 2
2, 3
3, 2
5, 5
1, 4
4, 2
5, 2
0, 0
1, 0
3, 1
1, 3
2, 2
0, 3
2, 3
2, 1
4, 1
0, 0
3, 3
6, 6
2, 2
2, 2
3, 3
1, 2
1, 3
2, 1
4, 0
1, 2
0, 1
1, 0
3, 0
3, 1
4, 2
1, 0
0, 0
3, 4
3, 2
1, 4
2, 5
4, 3
4, 1
2, 5
2, 2
5, 4
4, 5
2, 4
5, 4
1, 4
5, 2
1, 1
4, 1
2, 3
0, 1
5, 1
2, 1
2, 0
3, 1
1, 3
0, 2
2, 0
2, 1
1, 3
2, 1
2, 2
0, 1
5, 1
1, 1
6, 2
2, 1
2, 0
1, 1
4, 0
0, 3
0, 0
1, 3
3, 1
1, 1
1, 1
1, 1
5, 1
0, 0
1, 2
1, 3
3, 1
1, 0
2, 0
0, 1
2, 0
0, 0
1, 1
2, 2
1, 0
1, 1
0, 2
2, 2
1, 2
0, 1
1, 2
0, 3
2, 2
0, 0
1, 0
1, 3
1, 0
1, 2
5, 5
4, 1
1, 1
1, 2
0, 0
1, 2
4, 0
1, 0
0, 1
1, 1
3, 3
0, 0
4, 1
0, 2
1, 2
1, 0
1, 0
0, 2
0, 0
2, 0
1, 2
1, 0
0, 0
1, 1
1, 1
0, 0
0, 0
1, 1
0, 1
2, 1
1, 0
1, 2
0, 1
0, 1
0, 0
0, 2
0, 2
0, 0
2, 0
2, 1
0, 0
1, 1
0, 0
0, 1
0, 0
0, 2
0, 1
2, 0
1, 1
0, 1
0, 2
0, 0
0, 0
1, 1
3, 1
1, 1
0, 2
0, 4
1, 0
1, 1
2, 1
0, 2
0, 0
1, 0
2, 0
2, 0
0, 1
0, 0
0, 0
0, 0
0, 1
0, 3
0, 0
0, 0
0, 1
2, 2
0, 1
1, 1
0, 0
0, 0
0, 0
0, 0
0, 0
0, 2
0, 0
0, 1
0, 0
0, 0
1, 1
0, 1
0, 1
1, 0
2, 0
0, 0
0, 0
0, 1
0, 0
1, 0
1, 0
2, 1
0, 0
0, 1
0, 0
2, 0
0, 0
0, 0
1, 0
1, 0
1, 1
0, 0
1, 1
0, 0
0, 0
1, 0
0, 1
0, 1
0, 0
1, 0
1, 1
0, 1
0, 1
0, 0
0, 1
1, 0
0, 0
0, 0
0, 1
0, 2
0, 0
0, 0
0, 0
0, 0
0, 0
0, 0
0, 0
1, 0
0, 1
0, 1
0, 0
0, 0
0, 0
0, 1
0, 0
0, 1
0, 0
1, 1
0, 1
0, 0
1, 0
0, 0
0, 0
0, 0
0, 1
0, 0
0, 0
1, 0
2, 0
0, 0
0, 0
0, 0
0, 0
0, 0
0, 0
0, 0
0, 0
0, 0
0, 0
0, 0
1, 2
0, 1
1, 1
0, 0
0, 0
0, 1
0, 0
0, 0
0, 0
0, 0
1, 0
1, 0
0, 0
0, 0
0, 0
0, 0
1, 1
0, 1
0, 0
0, 0
0, 0
0, 0
0, 0
0, 1
0, 2
0, 0
0, 1
1, 0
0, 1
0, 0
1, 0
1, 0
0, 0
0, 0
0, 0
0, 0
0, 0
0, 0
0, 0
0, 0
0, 1
0, 0
0, 0
1, 0
0, 0
1, 1
0, 0
0, 1
0, 0
1, 0
0, 0
0, 0
0, 0
0, 1
0, 0
0, 0
0, 1
0, 0
1, 0
0, 0
0, 0
0, 0
1, 0
0, 0
0, 0
0, 0
1, 0
0, 0
0, 0
0, 0
0, 0
0, 0
0, 0
0, 0
1, 0
0, 1
0, 0
0, 0
1, 0
1, 0
0, 0
0, 0
0, 0
0, 0
0, 0
0, 1
0, 0
0, 0
0, 1
0, 1
0, 0
0, 0
0, 0
0, 0
0, 0
0, 0
0, 0
0, 1
0, 0
0, 0
0, 0
0, 0
0, 0
0, 0
0, 0
0, 0
0, 0
0, 0
0, 0
1, 0
0, 0
0, 0
0, 0
0, 0
1, 0
0, 0
0, 0
0, 0
0, 0
0, 0
0, 0
0, 0
0, 1
0, 0
0, 0
0, 0
0, 0
0, 0
0, 0
0, 0
0, 1
0, 0
0, 0
0, 0
0, 0
0, 0
0, 0
0, 0
0, 0
0, 0
0, 0
0, 0
0, 0
0, 0
0, 0
0, 0
0, 0
0, 0
0, 0
0, 0
0, 0
0, 0
0, 0
0, 0
0, 0
2, 0
0, 0
0, 0
0, 0
0, 0
0, 0
0, 0
0, 0
0, 1
0, 0
0, 0
0, 0
0, 0
0, 0
0, 0
0, 0
0, 0
0, 0
0, 0
0, 0
0, 0
0, 0
0, 0
0, 0
0, 0
0, 0
0, 0
1, 0
0, 0
0, 0
0, 0
0, 0
0, 0
0, 0
0, 0
0, 0
0, 0
0, 0
0, 0
0, 0
0, 0
0, 0
1, 0
0, 0
0, 0
0, 1
0, 0
0, 0
0, 0
0, 0
0, 0
0, 0
0, 0
0, 0
0, 0
0, 0
0, 0
0, 0
0, 0
0, 0
0, 0
0, 0
0, 0
0, 0
0, 0
0, 0
0, 0
0, 0
0, 0
0, 0
0, 0
0, 0
0, 0
0, 0
0, 0
0, 0
0, 0
0, 0
0, 0
0, 0
0, 0
0, 0
0, 0
0, 0
0, 0
0, 0
0, 0
0, 0
0, 0
0, 0
0, 0
0, 1
0, 0
0, 0
0, 0
0, 0
0, 0
0, 0
0, 0
0, 0
0, 0
0, 0
0, 0
0, 0
0, 0
0, 0
0, 0
0, 0
0, 0
0, 0
0, 0
0, 0
0, 0
1, 0
0, 0
0, 0
0, 0
0, 0
0, 0
0, 0
0, 0
0, 0
0, 0
0, 0
0, 0
0, 0
0, 0
0, 0
0, 0
0, 0
0, 0
0, 0
0, 0
0, 0
0, 0
0, 0
0, 0
0, 0
0, 0
0, 0
0, 0
0, 0
0, 0
0, 0
0, 0
0, 0
0, 0
0, 0
0, 0
0, 0
0, 0
0, 0
0, 0
0, 0
0, 0
0, 0
0, 0
0, 0
0, 0
0, 0
0, 0
0, 0
0, 0
0, 0
0, 0
0, 0
0, 0
0, 0
0, 0
0, 0
0, 0
0, 0
0, 0
0, 0
0, 0
0, 0
0, 0
0, 0
0, 0
0, 0
0, 0
0, 0
0, 0
0, 0
0, 0
0, 0
0, 0
0, 0
0, 0
0, 0
0, 0
0, 0
0, 0
0, 0
0, 0
0, 0
0, 0
0, 0
0, 0
0, 0
0, 0
0, 0
0, 0
0, 0
0, 0
0, 0
0, 0
0, 0
0, 0
0, 0
0, 0
0, 0
0, 0
0, 0
0, 0
0, 0
0, 0
0, 0
0, 0
0, 0
0, 0
0, 0
0, 0
0, 0
0, 0
0, 0
0, 0
0, 0
0, 0
0, 0
0, 0
0, 0
0, 0
0, 0
0, 0
0, 0
0, 0
0, 0
0, 0
0, 0
0, 0
0, 0
0, 0
0, 0
0, 0
0, 0
0, 0
0, 0
0, 0
0, 0
0, 0
0, 0
0, 0
0, 0
0, 0
0, 0
0, 0
0, 0
0, 0
0, 0
0, 0
0, 0
0, 0
0, 0
0, 0
0, 0
0, 0
0, 0
0, 0
0, 0
0, 0
0, 0
0, 0
0, 0
0, 0
0, 0
0, 0
0, 0
0, 0
0, 0
0, 0
0, 0
0, 0
0, 0
0, 0
0, 0
0, 0
0, 0
0, 0
0, 0
0, 0
0, 0
0, 0
0, 0
0, 0
0, 0
0, 0
0, 0
0, 0
0, 0
0, 0
0, 0
0, 0
0, 0
0, 0
0, 0
0, 0
0, 0
0, 0
0, 0
0, 0
0, 0
0, 0
0, 0
0, 0
0, 0
0, 0
0, 0
0, 0
0, 0
0, 0
0, 0
0, 0
0, 0
0, 0
0, 0
0, 0
0, 0
0, 0
0, 0
0, 0
0, 0
0, 0
0, 0
0, 0
0, 0
0, 0
0, 0
0, 0
0, 0
0, 0
0, 0
0, 0
0, 0
0, 0
0, 0
0, 0
0, 0
0, 0
0, 0
0, 0
0, 0
0, 0
0, 0
0, 0
0, 0
0, 0
0, 0
0, 0
0, 0
0, 0
0, 0
0, 0
0, 0
0, 0
0, 0
0, 0
0, 0
0, 0
0, 0
0, 0
0, 0
0, 0
0, 0
0, 0
0, 0
0, 0
0, 0
0, 0
0, 0
0, 0
0, 0
0, 0
0, 0
0, 0
0, 0
0, 0
0, 0
0, 0
0, 0
0, 0
0, 0
0, 0
0, 0
0, 0
0, 0
0, 0
0, 0
0, 0
0, 0
0, 0
0, 0
0, 0
0, 0
0, 0
0, 0
0, 0
0, 0
0, 0
0, 0
0, 0
0, 0
0, 0
0, 0
0, 0
0, 0
0, 0
0, 0
0, 0
0, 0
0, 0
0, 0
0, 0
0, 0
0, 0
0, 0
0, 0
0, 0
0, 0
0, 0
0, 0
0, 0
0, 0
0, 0
0, 0
0, 0
0, 0
0, 0
#ENDOFDATA     end of spectrum data