File: host_upload/06-09-2024/ps_0852/dump3/ps__0852shot_2460.msa
#FORMAT      : EMSA/MAS spectral data file
#VERSION     : TC202v2.0 PIXL
#TITLE       : N/A
#DATE        :       Date in the format DD-MMM-YYYY, for example 07-JUL-2010
#TIME        :             The time of day at which the spectrum was recorded, in 24-hour format
#OWNER       : PIXL Flight Model       (PIXL will use this to indicate which instrument took the data.)
#NPOINTS     : 4096     Number of data points in the spectrum (This can be zero for configuration only files)
#NCOLUMNS    : 2     Number of data columns in the spectrum (This can be zero for configuration only files)
#XUNITS      : eV
#YUNITS      : COUNTS
#DATATYPE    : YY
#XPERCHAN    : 7.862, 7.881   eV per channel (separate by commas if more than one detector)
#OFFSET      : 18.5, -22.4         eV of first channel  (separate by commas if more than one detector
#SIGNALTYPE  : XRF
#YP_TEMP     : 2.3
#LIVETIME    : 8.5432, 8.56123   seconds (separate by commas if more than one detector)
#REALTIME    : 10, 10.0   seconds (separate by commas if more than one detector)
#SPECTRUM    : start of spectrum data
0, 0
0, 0
0, 0
0, 0
0, 0
0, 0
0, 0
0, 0
0, 0
0, 0
0, 0
0, 0
0, 0
0, 0
0, 0
0, 0
0, 0
0, 0
0, 0
0, 0
0, 0
0, 0
0, 0
0, 0
0, 0
0, 0
0, 0
0, 0
0, 0
0, 0
1, 0
0, 1
0, 0
0, 0
0, 0
0, 1
1, 0
0, 1
1, 2
1, 0
3, 0
0, 0
2, 0
2, 0
0, 0
0, 1
2, 0
3, 4
4, 10
11, 11
29, 18
52, 46
56, 77
98, 73
87, 95
74, 72
78, 59
50, 47
36, 25
18, 12
9, 7
6, 4
2, 4
2, 5
4, 0
0, 3
2, 5
14, 6
24, 22
54, 43
104, 97
180, 144
229, 241
314, 323
444, 391
450, 376
395, 330
325, 245
203, 174
143, 99
80, 65
37, 31
16, 15
8, 8
7, 3
3, 3
1, 3
1, 0
2, 0
2, 0
1, 1
1, 2
2, 1
3, 1
5, 5
9, 7
6, 8
12, 10
15, 17
19, 15
11, 17
7, 9
12, 6
8, 2
3, 8
7, 3
1, 3
5, 4
7, 5
5, 9
16, 6
16, 14
23, 8
23, 20
22, 19
27, 24
34, 22
27, 13
18, 28
21, 15
20, 14
25, 16
18, 18
16, 13
11, 20
12, 7
7, 10
12, 5
9, 7
5, 5
3, 6
1, 0
1, 1
1, 2
0, 2
0, 2
0, 3
0, 1
2, 3
7, 3
2, 0
2, 1
3, 0
2, 3
1, 2
1, 0
0, 1
3, 3
1, 3
2, 0
2, 2
3, 6
5, 5
11, 7
6, 7
19, 6
16, 10
25, 18
12, 23
19, 18
14, 17
3, 9
9, 5
4, 1
4, 0
2, 2
0, 5
3, 6
6, 2
3, 7
3, 4
2, 3
3, 3
2, 1
3, 4
5, 3
1, 7
1, 2
1, 5
4, 3
1, 4
3, 4
2, 3
2, 5
3, 4
1, 3
1, 3
3, 5
6, 3
6, 3
7, 3
7, 10
11, 5
8, 11
10, 11
12, 12
14, 17
13, 14
17, 8
15, 6
14, 9
14, 10
6, 11
7, 4
7, 2
6, 3
3, 3
5, 3
5, 1
11, 4
5, 5
4, 3
5, 5
11, 3
6, 5
5, 2
6, 3
7, 0
4, 7
8, 2
4, 4
5, 5
7, 0
8, 6
6, 4
18, 4
16, 10
23, 8
32, 10
59, 9
98, 14
105, 9
117, 7
125, 10
125, 9
123, 11
80, 5
71, 5
45, 6
28, 8
20, 8
14, 6
12, 14
10, 10
11, 14
30, 24
39, 25
62, 48
74, 46
81, 51
98, 54
124, 56
115, 54
94, 46
82, 32
79, 27
51, 23
45, 13
28, 15
22, 18
26, 20
32, 24
45, 37
88, 104
157, 158
267, 292
488, 514
769, 883
1161, 1221
1574, 1598
2044, 1903
2378, 2186
2517, 2243
2404, 2062
2186, 1816
1772, 1401
1364, 1039
933, 665
590, 431
339, 286
189, 101
91, 64
53, 28
26, 22
24, 9
13, 11
14, 15
7, 19
17, 17
12, 15
19, 16
26, 36
51, 50
79, 80
99, 103
157, 149
206, 223
251, 259
323, 310
337, 303
356, 332
335, 297
259, 247
247, 185
177, 127
148, 79
83, 67
70, 39
25, 20
11, 14
11, 13
8, 4
10, 11
6, 9
6, 9
10, 10
10, 18
14, 9
8, 16
18, 9
13, 12
10, 5
7, 5
3, 9
4, 11
7, 9
6, 3
4, 3
3, 3
2, 8
5, 12
2, 10
10, 10
2, 17
4, 8
4, 9
7, 8
13, 5
5, 7
11, 1
9, 6
16, 3
10, 1
11, 7
9, 6
4, 2
11, 8
8, 7
7, 7
8, 7
9, 2
6, 7
6, 3
4, 3
2, 5
6, 2
2, 1
10, 4
5, 4
10, 1
10, 1
7, 2
8, 2
17, 2
5, 2
6, 1
4, 3
5, 3
1, 4
11, 4
11, 4
9, 4
16, 2
8, 3
14, 2
18, 3
21, 5
29, 3
25, 6
28, 5
24, 7
20, 12
18, 11
14, 17
22, 11
17, 2
5, 7
4, 5
8, 9
9, 6
7, 7
1, 4
4, 3
4, 2
6, 3
3, 5
5, 3
5, 2
8, 3
4, 2
2, 1
4, 4
5, 6
5, 3
5, 2
2, 1
2, 2
4, 6
3, 3
1, 2
2, 7
3, 8
4, 6
4, 5
4, 6
2, 7
2, 4
4, 4
4, 2
2, 0
2, 1
7, 3
5, 4
4, 5
4, 6
4, 3
6, 1
0, 1
2, 1
3, 2
1, 2
2, 3
5, 1
3, 2
1, 3
2, 3
3, 4
2, 1
2, 3
3, 4
3, 0
2, 2
2, 1
1, 2
3, 2
7, 1
4, 3
1, 2
1, 0
3, 2
1, 2
1, 2
2, 3
1, 5
2, 2
2, 4
6, 2
2, 2
4, 4
6, 0
5, 1
7, 1
18, 1
7, 1
7, 0
8, 2
7, 2
7, 0
6, 0
6, 0
2, 2
4, 2
3, 0
4, 3
5, 6
2, 1
6, 3
3, 1
0, 1
2, 4
0, 0
3, 1
0, 0
2, 2
4, 4
3, 2
4, 2
5, 2
2, 0
3, 3
1, 2
1, 4
0, 2
1, 5
2, 4
3, 2
3, 3
2, 4
6, 4
3, 2
3, 3
1, 3
1, 4
4, 4
0, 1
1, 4
1, 3
1, 3
1, 1
2, 1
1, 0
2, 3
1, 3
2, 1
2, 2
3, 4
2, 2
0, 1
0, 4
2, 3
1, 3
2, 3
0, 4
3, 5
3, 4
2, 4
1, 2
2, 0
4, 2
3, 4
3, 7
0, 1
1, 4
4, 2
3, 3
0, 3
3, 1
2, 3
2, 1
5, 3
6, 1
2, 4
2, 3
4, 0
2, 3
6, 2
4, 3
5, 2
3, 1
2, 4
1, 1
2, 2
1, 0
1, 4
2, 1
2, 1
0, 0
2, 1
1, 0
1, 0
5, 1
0, 0
2, 1
0, 2
0, 2
3, 1
2, 3
1, 1
3, 2
2, 3
2, 0
4, 1
2, 1
1, 5
2, 1
0, 3
1, 0
1, 2
2, 1
1, 2
2, 1
1, 2
1, 3
0, 3
2, 0
0, 1
1, 2
3, 1
1, 0
1, 1
3, 2
1, 1
1, 1
1, 0
2, 0
1, 2
1, 0
0, 2
0, 2
4, 0
0, 2
0, 0
0, 0
0, 0
2, 0
2, 0
1, 2
1, 1
1, 0
0, 0
1, 1
1, 3
2, 0
1, 1
1, 1
0, 0
0, 1
0, 0
1, 0
1, 0
3, 0
0, 1
0, 0
1, 1
0, 0
1, 0
0, 1
1, 2
1, 1
0, 0
4, 2
1, 0
2, 1
1, 0
2, 0
0, 0
1, 0
0, 1
1, 2
0, 1
0, 2
2, 0
0, 0
0, 2
0, 0
0, 2
0, 0
0, 0
1, 0
0, 1
0, 0
1, 0
0, 0
1, 1
0, 2
1, 1
2, 1
0, 0
0, 2
0, 0
1, 0
2, 0
1, 0
1, 0
0, 0
2, 2
0, 3
0, 0
1, 0
2, 0
0, 1
0, 0
1, 1
0, 2
1, 1
1, 0
1, 1
0, 0
0, 0
0, 0
0, 1
0, 1
0, 0
1, 2
0, 0
0, 1
0, 0
0, 0
0, 0
0, 0
0, 2
0, 0
0, 0
1, 0
3, 0
0, 0
2, 0
0, 0
0, 0
1, 0
1, 0
0, 0
0, 1
0, 0
0, 0
0, 1
1, 1
0, 0
0, 0
1, 1
1, 1
0, 2
0, 0
0, 0
0, 0
0, 0
1, 0
0, 0
1, 0
0, 0
1, 1
2, 1
2, 1
0, 0
0, 0
0, 0
0, 1
0, 1
0, 0
0, 1
2, 0
0, 0
0, 0
1, 0
0, 1
0, 0
0, 0
1, 1
0, 0
0, 0
0, 1
2, 0
0, 0
0, 0
0, 0
0, 0
0, 1
0, 1
0, 1
1, 0
0, 0
0, 0
0, 0
0, 0
0, 1
0, 0
1, 0
0, 0
1, 1
0, 0
0, 0
0, 0
0, 0
0, 0
0, 0
1, 0
0, 1
1, 0
0, 0
0, 0
1, 0
0, 1
0, 0
0, 0
0, 0
0, 1
0, 1
1, 0
0, 0
2, 0
1, 0
0, 2
0, 0
0, 0
0, 1
0, 0
1, 0
0, 0
0, 0
0, 0
0, 0
0, 0
0, 1
1, 0
2, 0
0, 1
0, 0
0, 0
0, 0
0, 0
0, 0
0, 1
0, 0
1, 0
0, 2
0, 0
0, 1
0, 0
1, 0
1, 0
1, 0
0, 0
0, 0
1, 1
0, 0
0, 0
0, 0
0, 0
0, 0
0, 1
0, 0
0, 0
0, 0
1, 0
0, 0
1, 0
0, 0
0, 0
1, 0
0, 1
0, 0
0, 0
0, 0
1, 0
0, 0
0, 0
0, 1
0, 0
1, 1
0, 0
0, 0
0, 1
0, 0
0, 0
0, 0
0, 1
0, 0
0, 0
0, 1
0, 0
0, 0
1, 0
0, 0
0, 0
0, 0
0, 2
0, 0
0, 0
1, 0
0, 1
0, 0
0, 0
0, 0
0, 0
0, 0
0, 0
0, 0
0, 0
0, 1
0, 0
0, 0
0, 0
0, 0
0, 0
0, 0
0, 0
0, 0
1, 0
0, 0
0, 0
0, 0
0, 0
0, 0
0, 0
0, 0
0, 0
0, 0
0, 0
0, 0
0, 0
0, 0
0, 1
0, 0
0, 0
1, 0
0, 0
1, 0
0, 0
0, 0
0, 0
0, 0
0, 0
0, 0
1, 0
0, 0
0, 0
0, 0
0, 0
0, 0
0, 0
0, 0
0, 0
0, 0
0, 0
0, 0
0, 0
0, 0
0, 0
0, 0
0, 0
0, 0
0, 0
0, 0
0, 0
0, 0
0, 0
0, 0
0, 0
0, 0
0, 0
0, 0
0, 0
0, 0
0, 0
0, 1
1, 0
0, 0
0, 0
0, 0
0, 0
0, 0
0, 0
0, 0
0, 1
0, 0
0, 1
0, 0
0, 0
0, 0
0, 0
0, 0
0, 1
0, 0
0, 0
0, 0
0, 0
0, 0
0, 0
0, 0
0, 0
0, 0
0, 1
0, 0
0, 0
0, 0
0, 0
0, 0
0, 0
0, 0
0, 0
0, 0
1, 0
0, 0
0, 0
0, 0
0, 0
0, 0
0, 0
0, 0
0, 0
0, 0
0, 0
0, 1
0, 0
0, 1
0, 0
0, 0
0, 0
0, 0
0, 1
0, 0
0, 1
0, 0
0, 0
0, 0
0, 0
0, 0
0, 0
0, 0
0, 0
0, 0
0, 0
0, 0
0, 0
0, 0
0, 0
0, 0
0, 0
0, 0
0, 0
0, 0
0, 0
0, 0
0, 0
0, 0
0, 0
0, 0
0, 0
0, 0
0, 0
0, 0
0, 0
0, 0
0, 0
0, 0
0, 0
0, 0
0, 0
0, 0
0, 0
0, 0
0, 0
0, 0
0, 0
0, 0
0, 0
0, 0
0, 0
0, 0
0, 0
0, 0
0, 0
0, 0
0, 0
0, 0
0, 0
0, 0
0, 0
0, 0
0, 0
0, 0
0, 0
0, 0
0, 0
0, 0
0, 0
0, 0
0, 0
0, 0
0, 0
0, 0
0, 0
0, 0
0, 0
0, 0
0, 0
0, 0
0, 0
0, 0
0, 0
0, 0
0, 0
0, 0
0, 0
0, 0
0, 0
0, 0
0, 0
0, 0
0, 0
0, 0
0, 0
1, 0
0, 0
0, 0
0, 0
0, 0
0, 0
0, 0
0, 0
0, 0
0, 0
0, 0
0, 0
0, 0
0, 0
0, 0
0, 0
0, 0
0, 0
0, 0
0, 0
0, 0
0, 0
0, 0
0, 0
0, 0
0, 0
0, 0
0, 0
0, 0
0, 0
0, 0
0, 0
0, 0
0, 0
0, 0
0, 0
0, 0
0, 0
0, 0
0, 0
0, 0
0, 0
0, 0
0, 0
0, 0
0, 0
0, 0
0, 0
0, 0
0, 0
0, 0
0, 0
0, 0
0, 0
0, 0
0, 0
0, 0
0, 0
0, 0
0, 0
0, 0
0, 0
0, 0
0, 0
0, 0
0, 0
0, 0
0, 0
0, 0
0, 0
0, 0
0, 0
0, 0
0, 0
0, 0
0, 0
0, 0
0, 0
0, 0
0, 0
0, 0
0, 0
0, 0
0, 0
0, 0
0, 0
0, 0
0, 0
0, 0
0, 0
0, 0
0, 0
0, 0
0, 0
0, 0
0, 0
0, 0
0, 0
0, 0
0, 0
0, 0
0, 0
0, 0
0, 0
0, 0
0, 0
0, 0
0, 0
0, 0
0, 0
0, 0
0, 0
0, 0
0, 0
0, 0
0, 0
0, 0
0, 0
0, 0
0, 0
0, 0
0, 0
0, 0
0, 0
0, 0
0, 0
0, 0
0, 0
0, 0
0, 0
0, 0
0, 0
0, 0
0, 0
0, 0
0, 0
0, 0
0, 0
0, 0
0, 0
0, 0
0, 0
0, 0
0, 0
0, 0
0, 0
0, 0
0, 0
0, 0
0, 0
0, 0
0, 0
0, 0
0, 0
0, 0
0, 0
0, 0
0, 0
0, 0
0, 0
0, 0
0, 0
0, 0
0, 0
0, 0
0, 0
0, 0
0, 0
0, 0
0, 0
0, 0
0, 0
0, 0
0, 0
0, 0
0, 0
0, 0
0, 0
0, 0
0, 0
0, 0
0, 0
0, 0
0, 0
0, 0
0, 0
0, 0
0, 0
0, 0
0, 0
0, 0
0, 0
0, 0
0, 0
0, 0
0, 0
0, 0
0, 0
0, 0
0, 0
0, 0
0, 0
0, 0
0, 0
0, 0
0, 0
0, 0
0, 0
0, 0
0, 0
0, 0
0, 0
0, 0
0, 0
0, 0
0, 0
0, 0
0, 0
0, 0
0, 0
0, 0
0, 0
0, 0
0, 0
0, 0
0, 0
0, 0
0, 0
0, 0
0, 0
0, 0
0, 0
0, 0
0, 0
0, 0
0, 0
0, 0
0, 0
0, 0
0, 0
0, 0
0, 0
0, 0
0, 0
0, 0
0, 0
0, 0
0, 0
0, 0
0, 0
0, 0
0, 0
0, 0
0, 0
0, 0
0, 0
0, 0
0, 0
0, 0
0, 0
0, 0
0, 0
0, 0
0, 0
0, 0
0, 0
0, 0
0, 0
0, 0
0, 0
0, 0
0, 0
0, 0
0, 0
0, 0
0, 0
0, 0
0, 0
0, 0
0, 0
0, 0
0, 0
0, 0
0, 0
#ENDOFDATA     end of spectrum data