File: host_upload/06-09-2024/ps_0852/dump3/ps__0852shot_2060.msa
#FORMAT      : EMSA/MAS spectral data file
#VERSION     : TC202v2.0 PIXL
#TITLE       : N/A
#DATE        :       Date in the format DD-MMM-YYYY, for example 07-JUL-2010
#TIME        :             The time of day at which the spectrum was recorded, in 24-hour format
#OWNER       : PIXL Flight Model       (PIXL will use this to indicate which instrument took the data.)
#NPOINTS     : 4096     Number of data points in the spectrum (This can be zero for configuration only files)
#NCOLUMNS    : 2     Number of data columns in the spectrum (This can be zero for configuration only files)
#XUNITS      : eV
#YUNITS      : COUNTS
#DATATYPE    : YY
#XPERCHAN    : 7.862, 7.881   eV per channel (separate by commas if more than one detector)
#OFFSET      : 18.5, -22.4         eV of first channel  (separate by commas if more than one detector
#SIGNALTYPE  : XRF
#YP_TEMP     : 2.492
#LIVETIME    : 8.54476, 8.52161   seconds (separate by commas if more than one detector)
#REALTIME    : 10, 10.0   seconds (separate by commas if more than one detector)
#SPECTRUM    : start of spectrum data
0, 0
0, 0
0, 0
0, 0
0, 0
0, 0
0, 0
0, 0
0, 0
0, 0
0, 0
0, 0
0, 0
0, 0
0, 0
0, 0
0, 0
0, 0
0, 0
0, 0
0, 0
0, 0
0, 0
0, 0
0, 0
0, 0
0, 0
0, 0
0, 0
0, 0
0, 0
0, 0
0, 0
0, 0
0, 0
1, 0
1, 1
1, 0
0, 0
1, 0
0, 4
1, 3
4, 0
0, 0
0, 2
0, 1
0, 2
4, 3
7, 6
15, 13
26, 31
43, 52
66, 61
80, 80
75, 82
77, 78
54, 60
53, 47
37, 20
23, 14
6, 9
6, 6
3, 4
3, 1
2, 6
2, 2
6, 2
10, 9
26, 17
42, 44
99, 101
170, 184
256, 251
396, 369
390, 448
406, 430
385, 369
283, 285
206, 173
105, 135
72, 68
48, 36
22, 15
16, 3
6, 7
1, 2
2, 3
0, 0
0, 2
1, 2
0, 0
0, 0
2, 2
1, 1
2, 0
4, 1
3, 1
2, 2
3, 3
2, 2
4, 3
6, 2
3, 2
8, 1
1, 3
6, 2
1, 2
6, 4
4, 6
6, 7
5, 6
15, 9
19, 16
18, 15
22, 21
29, 17
21, 19
30, 21
23, 18
18, 16
18, 18
19, 10
23, 21
13, 23
14, 9
8, 10
14, 10
18, 8
10, 9
4, 7
4, 2
7, 2
5, 8
2, 2
2, 3
2, 6
0, 4
1, 4
2, 6
1, 4
0, 6
1, 4
1, 3
1, 3
3, 3
1, 0
1, 0
1, 3
4, 2
1, 4
0, 5
3, 7
3, 8
11, 10
11, 8
17, 14
14, 16
15, 13
15, 13
13, 18
12, 13
10, 10
6, 3
8, 3
7, 0
2, 0
2, 2
3, 4
5, 6
1, 3
11, 4
2, 11
1, 7
5, 4
4, 0
3, 5
6, 1
6, 5
4, 3
5, 4
14, 3
16, 2
23, 1
25, 6
34, 1
33, 2
26, 4
28, 1
25, 4
28, 4
27, 6
19, 5
16, 5
16, 9
17, 8
19, 13
20, 21
18, 25
11, 20
11, 21
10, 27
5, 17
16, 15
7, 12
2, 11
4, 6
7, 7
3, 4
2, 5
4, 4
6, 9
3, 13
3, 19
6, 14
3, 15
6, 13
3, 11
4, 21
6, 21
9, 14
3, 11
5, 5
6, 18
5, 9
7, 7
10, 12
5, 15
13, 9
18, 8
15, 16
17, 15
15, 17
12, 8
19, 13
18, 14
11, 10
25, 5
23, 9
15, 8
18, 9
31, 4
30, 12
34, 9
30, 9
51, 16
61, 22
70, 24
67, 21
89, 44
83, 62
77, 61
87, 61
70, 56
54, 50
40, 41
34, 30
24, 20
23, 21
14, 17
16, 13
18, 19
35, 30
33, 56
77, 108
158, 162
268, 360
492, 585
757, 975
1098, 1347
1592, 1695
1848, 2110
2215, 2293
2300, 2331
2294, 2200
2008, 1972
1696, 1402
1291, 1120
934, 739
597, 509
360, 298
199, 175
98, 90
67, 61
25, 28
10, 19
12, 20
16, 10
17, 20
24, 22
20, 16
19, 36
36, 25
41, 60
78, 77
94, 110
146, 157
205, 200
250, 302
326, 328
351, 369
360, 334
328, 302
303, 286
262, 203
205, 167
131, 103
94, 56
62, 40
54, 22
19, 5
13, 10
7, 5
9, 8
10, 8
19, 7
9, 8
8, 14
21, 12
11, 13
10, 14
8, 10
10, 11
6, 6
8, 3
7, 5
3, 4
6, 3
6, 2
3, 2
8, 7
6, 3
0, 2
2, 3
1, 7
1, 2
4, 6
4, 10
2, 4
1, 4
4, 3
5, 3
3, 2
2, 5
5, 2
4, 4
5, 5
5, 7
4, 4
5, 5
6, 11
7, 5
6, 5
6, 4
10, 2
4, 10
5, 7
4, 7
3, 8
4, 10
6, 5
8, 15
9, 16
12, 5
7, 12
10, 4
9, 6
9, 11
12, 7
10, 9
6, 9
13, 4
11, 1
4, 4
9, 6
2, 6
4, 8
9, 5
3, 7
1, 7
3, 10
4, 6
0, 3
4, 7
1, 5
1, 4
1, 2
1, 1
1, 3
1, 5
4, 2
3, 3
2, 0
5, 1
3, 4
2, 2
4, 1
4, 3
4, 5
1, 2
3, 4
4, 4
6, 1
1, 4
4, 1
3, 3
2, 0
2, 5
6, 6
2, 4
3, 4
4, 6
3, 1
2, 5
0, 1
4, 3
5, 9
2, 8
3, 1
7, 3
5, 8
4, 6
10, 3
5, 1
5, 2
3, 5
8, 2
9, 2
3, 3
7, 8
9, 6
8, 7
6, 8
4, 8
7, 12
3, 17
2, 24
3, 12
0, 24
2, 20
4, 16
4, 13
2, 12
3, 7
1, 8
1, 6
4, 2
2, 2
1, 4
4, 3
2, 2
2, 6
2, 4
1, 2
1, 4
5, 4
3, 7
0, 4
2, 4
5, 1
3, 1
1, 4
2, 2
2, 1
0, 3
0, 3
1, 0
1, 1
1, 2
1, 2
2, 2
1, 2
0, 4
1, 3
3, 3
3, 3
3, 2
2, 2
5, 1
1, 0
2, 3
4, 2
2, 2
2, 1
3, 3
5, 4
1, 1
5, 1
3, 2
3, 1
2, 1
1, 1
2, 1
2, 3
4, 1
5, 2
1, 3
1, 4
4, 2
1, 3
3, 1
3, 1
5, 1
1, 5
2, 1
1, 4
2, 2
0, 1
1, 1
2, 2
0, 2
3, 1
2, 1
1, 2
4, 2
2, 3
2, 2
1, 2
1, 1
2, 2
1, 2
1, 2
2, 1
3, 3
0, 6
3, 2
0, 0
1, 2
3, 4
2, 2
1, 2
3, 0
4, 1
2, 2
1, 2
3, 0
3, 1
3, 4
2, 2
2, 6
3, 5
5, 3
4, 2
4, 2
1, 4
0, 4
3, 4
6, 2
5, 1
2, 0
3, 3
2, 3
3, 2
2, 2
2, 2
0, 2
1, 1
2, 0
2, 1
3, 1
3, 3
1, 2
4, 2
2, 3
2, 2
4, 2
1, 3
2, 1
1, 4
3, 0
1, 0
3, 0
1, 0
1, 0
1, 4
1, 2
3, 1
1, 2
2, 1
0, 1
2, 2
0, 0
1, 2
1, 1
0, 0
0, 2
0, 0
1, 0
1, 0
2, 2
0, 0
0, 1
0, 0
2, 1
0, 2
1, 1
2, 2
1, 0
0, 1
0, 2
0, 0
0, 2
0, 1
1, 0
1, 1
1, 0
0, 0
1, 2
1, 1
2, 1
2, 0
3, 4
2, 0
2, 2
1, 0
2, 1
2, 0
2, 0
0, 0
0, 0
0, 0
1, 1
0, 0
0, 0
1, 0
1, 0
0, 2
1, 0
2, 2
0, 0
2, 0
0, 1
0, 1
1, 2
0, 0
0, 0
0, 0
0, 1
0, 0
1, 1
0, 1
2, 1
0, 1
0, 2
0, 1
2, 0
0, 0
0, 0
1, 0
0, 0
2, 0
0, 0
1, 2
0, 0
1, 0
0, 0
0, 1
0, 0
1, 0
0, 0
0, 1
0, 0
0, 2
1, 0
0, 0
1, 1
2, 0
3, 0
0, 0
0, 1
0, 1
1, 0
3, 0
2, 2
1, 1
1, 1
1, 0
4, 0
0, 0
1, 1
1, 0
0, 0
0, 2
0, 1
0, 0
0, 1
0, 0
2, 0
0, 0
0, 1
0, 1
2, 0
1, 0
1, 0
1, 1
1, 1
0, 1
0, 0
0, 1
0, 0
0, 0
0, 0
0, 0
0, 1
0, 0
0, 1
2, 1
0, 0
0, 1
1, 1
0, 0
0, 0
0, 1
0, 1
1, 0
0, 0
0, 3
0, 0
0, 2
1, 0
0, 1
0, 0
0, 0
1, 0
1, 1
1, 0
0, 0
0, 0
1, 0
0, 0
1, 0
0, 0
0, 0
0, 0
1, 0
0, 0
0, 1
1, 0
0, 0
0, 0
0, 0
0, 0
0, 0
0, 0
0, 1
0, 0
0, 0
0, 0
0, 0
1, 0
0, 0
0, 1
1, 0
0, 0
0, 1
0, 0
0, 0
1, 0
0, 1
1, 1
0, 0
0, 0
1, 0
0, 1
0, 0
1, 1
0, 0
1, 0
1, 1
0, 0
0, 0
0, 0
2, 0
0, 0
0, 1
2, 0
0, 0
0, 0
0, 0
1, 0
0, 0
0, 0
1, 0
1, 0
0, 0
0, 0
0, 0
0, 0
0, 2
0, 0
1, 0
1, 0
1, 0
0, 0
0, 1
0, 0
0, 0
1, 3
0, 0
0, 0
0, 1
1, 0
0, 0
0, 0
0, 0
2, 0
1, 0
0, 0
0, 0
0, 0
0, 1
0, 1
0, 0
0, 0
0, 0
0, 1
0, 0
1, 0
0, 0
0, 0
0, 0
0, 0
0, 0
0, 0
0, 0
0, 0
0, 0
0, 0
0, 1
1, 0
0, 0
0, 0
0, 0
0, 0
0, 0
0, 0
0, 0
0, 1
0, 1
0, 0
0, 0
0, 0
0, 0
0, 1
0, 0
0, 0
1, 0
0, 0
0, 0
1, 0
0, 0
0, 0
0, 1
1, 0
0, 0
0, 1
0, 0
0, 0
0, 0
1, 0
0, 0
0, 1
1, 0
0, 1
0, 0
0, 0
0, 0
0, 0
0, 0
0, 0
0, 0
0, 0
0, 0
0, 0
0, 0
0, 1
0, 0
0, 0
0, 0
0, 0
0, 0
0, 0
0, 0
0, 1
0, 0
0, 0
0, 0
0, 0
0, 0
0, 1
0, 0
0, 0
0, 0
0, 0
0, 0
0, 0
0, 0
0, 0
0, 0
0, 0
0, 0
0, 0
0, 0
0, 0
0, 0
0, 1
0, 0
0, 0
0, 0
0, 0
0, 0
0, 1
0, 0
0, 0
0, 0
0, 0
0, 0
1, 0
0, 0
0, 0
0, 0
0, 0
0, 0
0, 0
0, 0
0, 0
0, 0
0, 0
0, 0
0, 1
0, 0
0, 0
0, 0
0, 0
0, 0
0, 0
0, 0
0, 0
0, 0
0, 0
1, 0
0, 0
0, 0
0, 0
0, 0
0, 0
0, 0
0, 0
0, 0
0, 0
0, 0
0, 0
0, 0
0, 0
0, 0
0, 0
0, 0
0, 0
0, 0
0, 1
0, 0
0, 0
0, 0
0, 0
0, 0
0, 0
0, 0
0, 0
0, 0
0, 0
0, 0
0, 0
0, 0
0, 0
0, 0
0, 0
0, 0
0, 0
0, 0
0, 0
0, 0
0, 0
0, 0
0, 0
0, 0
0, 0
0, 0
0, 0
1, 0
0, 0
0, 0
0, 0
0, 0
0, 0
0, 0
0, 0
0, 0
0, 0
0, 0
0, 0
0, 0
0, 0
0, 0
0, 0
0, 0
0, 0
0, 0
0, 0
0, 0
0, 0
0, 0
0, 0
0, 0
0, 0
0, 0
0, 0
0, 0
1, 0
0, 0
0, 0
0, 0
0, 0
0, 0
0, 0
0, 0
0, 0
0, 0
0, 0
0, 0
0, 0
0, 0
0, 0
0, 0
0, 0
0, 0
0, 0
0, 0
0, 0
0, 0
0, 0
0, 0
0, 0
0, 0
0, 0
0, 0
0, 0
0, 0
0, 0
0, 0
0, 0
0, 0
0, 0
0, 0
0, 0
0, 0
0, 0
0, 0
0, 0
0, 0
0, 0
0, 0
0, 0
0, 0
0, 0
0, 0
0, 0
0, 0
0, 0
0, 0
0, 0
0, 0
0, 0
0, 0
0, 0
0, 0
0, 0
0, 0
0, 0
0, 0
0, 0
0, 0
0, 0
0, 0
0, 0
0, 0
0, 0
0, 0
0, 0
0, 0
0, 0
0, 0
0, 0
0, 0
0, 0
0, 0
0, 0
0, 0
0, 0
0, 0
0, 0
0, 0
0, 0
0, 0
0, 0
0, 0
0, 0
0, 0
0, 0
0, 0
0, 0
0, 0
0, 0
0, 0
0, 0
0, 0
0, 0
0, 0
0, 0
0, 0
0, 0
0, 0
0, 0
0, 0
0, 0
0, 0
0, 0
0, 0
0, 0
0, 0
0, 0
0, 0
0, 0
0, 0
0, 0
0, 0
0, 0
0, 0
0, 0
0, 0
0, 0
0, 0
0, 0
0, 0
0, 0
0, 0
0, 0
0, 0
0, 0
0, 0
0, 0
0, 0
0, 0
0, 0
0, 0
0, 0
0, 0
0, 0
0, 0
0, 0
0, 0
0, 0
0, 0
0, 0
0, 0
0, 0
0, 0
0, 0
0, 0
0, 0
0, 0
0, 0
0, 0
0, 0
0, 0
0, 0
0, 0
0, 0
0, 0
0, 0
0, 0
0, 0
0, 0
0, 0
0, 0
0, 0
0, 0
0, 0
0, 0
0, 0
0, 0
0, 0
0, 0
0, 0
0, 0
0, 0
0, 0
0, 0
0, 0
0, 0
0, 0
0, 0
0, 0
0, 0
0, 0
0, 0
0, 0
0, 0
0, 0
0, 0
0, 0
0, 0
0, 0
0, 0
0, 0
0, 0
0, 0
0, 0
0, 0
0, 0
0, 0
0, 0
0, 0
0, 0
0, 0
0, 0
0, 0
0, 0
0, 0
0, 0
0, 0
0, 0
0, 0
0, 0
0, 0
0, 0
0, 0
0, 0
0, 0
0, 0
0, 0
0, 0
0, 0
0, 0
0, 0
0, 0
0, 0
0, 0
0, 0
0, 0
0, 0
0, 0
0, 0
0, 0
0, 0
0, 0
0, 0
0, 0
0, 0
0, 0
0, 0
0, 0
0, 0
0, 0
0, 0
0, 0
0, 0
0, 0
0, 0
0, 0
0, 0
0, 0
0, 0
0, 0
0, 0
0, 0
0, 0
0, 0
0, 0
0, 0
0, 0
0, 0
0, 0
0, 0
0, 0
0, 0
0, 0
0, 0
0, 0
0, 0
0, 0
0, 0
0, 0
0, 0
0, 0
0, 0
0, 0
0, 0
0, 0
0, 0
0, 0
0, 0
0, 0
0, 0
0, 0
0, 0
0, 0
0, 0
0, 0
0, 0
0, 0
0, 0
0, 0
0, 0
0, 0
0, 0
0, 0
0, 0
0, 0
0, 0
0, 0
0, 0
0, 0
0, 0
0, 0
0, 0
0, 0
0, 0
0, 0
0, 0
0, 0
0, 0
0, 0
0, 0
0, 0
0, 0
0, 0
0, 0
0, 0
0, 0
0, 0
0, 0
0, 0
0, 0
0, 0
0, 0
0, 0
0, 0
0, 0
0, 0
0, 0
0, 0
0, 0
0, 0
0, 0
0, 0
0, 0
0, 0
0, 0
0, 0
0, 0
0, 0
0, 0
0, 0
0, 0
0, 0
0, 0
0, 0
#ENDOFDATA     end of spectrum data