File: host_upload/06-09-2024/ps_0852/dump3/ps__0852shot_2565.msa
#FORMAT      : EMSA/MAS spectral data file
#VERSION     : TC202v2.0 PIXL
#TITLE       : N/A
#DATE        :       Date in the format DD-MMM-YYYY, for example 07-JUL-2010
#TIME        :             The time of day at which the spectrum was recorded, in 24-hour format
#OWNER       : PIXL Flight Model       (PIXL will use this to indicate which instrument took the data.)
#NPOINTS     : 4096     Number of data points in the spectrum (This can be zero for configuration only files)
#NCOLUMNS    : 2     Number of data columns in the spectrum (This can be zero for configuration only files)
#XUNITS      : eV
#YUNITS      : COUNTS
#DATATYPE    : YY
#XPERCHAN    : 7.862, 7.881   eV per channel (separate by commas if more than one detector)
#OFFSET      : 18.5, -22.4         eV of first channel  (separate by commas if more than one detector
#SIGNALTYPE  : XRF
#YP_TEMP     : 2.235
#LIVETIME    : 8.55434, 8.53847   seconds (separate by commas if more than one detector)
#REALTIME    : 10, 10.0   seconds (separate by commas if more than one detector)
#SPECTRUM    : start of spectrum data
0, 0
0, 0
0, 0
0, 0
0, 0
0, 0
0, 0
0, 0
0, 0
0, 0
0, 0
0, 0
0, 0
0, 0
0, 0
0, 0
0, 0
0, 0
0, 0
0, 0
0, 0
0, 0
0, 0
0, 0
0, 0
0, 0
0, 0
0, 0
0, 0
0, 0
0, 0
0, 0
0, 0
0, 0
0, 0
0, 0
0, 0
0, 1
0, 0
0, 0
1, 0
0, 0
1, 0
0, 0
1, 0
3, 2
3, 2
4, 3
4, 5
8, 19
23, 21
63, 44
65, 62
89, 58
88, 74
100, 80
74, 51
35, 33
27, 24
17, 15
7, 8
6, 6
3, 2
4, 3
0, 3
4, 5
2, 5
18, 13
27, 20
47, 52
113, 100
186, 190
277, 280
360, 336
424, 409
467, 394
405, 363
307, 276
221, 177
131, 102
65, 57
48, 46
20, 19
8, 11
8, 4
6, 3
2, 3
0, 3
3, 0
0, 1
2, 2
1, 1
1, 2
0, 2
1, 0
2, 0
3, 1
1, 2
2, 2
2, 4
3, 1
1, 2
0, 0
3, 4
3, 1
4, 2
1, 5
2, 6
3, 6
4, 2
11, 6
19, 7
30, 7
44, 19
47, 20
55, 27
45, 25
44, 11
40, 21
29, 17
17, 14
26, 13
20, 16
28, 14
31, 12
29, 12
15, 6
16, 14
16, 4
9, 9
10, 7
4, 2
3, 5
2, 3
0, 1
2, 3
2, 3
2, 2
0, 0
0, 2
0, 1
0, 3
2, 3
1, 1
2, 0
0, 4
1, 2
0, 2
1, 6
4, 2
2, 7
1, 13
3, 10
10, 14
13, 15
11, 27
13, 23
20, 13
14, 19
19, 19
14, 12
10, 6
6, 7
2, 3
1, 1
3, 6
3, 2
4, 2
9, 6
5, 3
3, 2
5, 2
9, 4
5, 6
6, 5
7, 6
6, 4
6, 4
9, 7
15, 2
15, 2
21, 1
44, 0
57, 1
58, 4
77, 4
62, 3
63, 6
59, 4
44, 4
40, 4
31, 4
21, 7
10, 13
18, 13
13, 12
14, 8
8, 9
12, 17
15, 7
9, 11
15, 10
14, 7
15, 7
7, 10
11, 4
5, 3
8, 3
10, 3
3, 11
10, 7
2, 4
5, 14
6, 9
4, 7
4, 9
6, 11
7, 12
2, 14
2, 17
6, 18
2, 8
6, 9
7, 12
8, 12
9, 9
8, 15
14, 21
18, 17
15, 25
8, 21
8, 24
14, 18
17, 38
20, 35
20, 29
21, 23
23, 20
28, 18
25, 25
38, 13
37, 9
57, 13
56, 8
70, 8
114, 16
107, 26
141, 42
120, 50
127, 60
124, 65
87, 61
95, 51
73, 43
60, 37
43, 21
40, 23
18, 25
18, 16
18, 13
27, 15
29, 27
49, 52
83, 83
144, 179
307, 348
475, 556
788, 865
1146, 1357
1513, 1787
1979, 1997
2393, 2290
2407, 2481
2320, 2233
2138, 1899
1770, 1501
1321, 1063
882, 709
538, 451
312, 264
186, 139
90, 82
41, 40
27, 25
11, 22
14, 21
21, 22
8, 16
10, 28
23, 30
21, 36
20, 33
45, 71
75, 100
98, 108
154, 188
196, 224
271, 243
302, 313
362, 310
356, 381
336, 312
270, 281
284, 200
196, 129
126, 102
72, 51
59, 33
38, 21
22, 12
18, 11
17, 17
15, 10
18, 4
14, 13
13, 11
19, 18
19, 12
14, 10
21, 13
11, 11
10, 7
5, 4
4, 7
6, 2
2, 7
5, 4
4, 3
3, 4
4, 3
2, 2
0, 3
3, 1
5, 3
1, 6
2, 5
5, 7
4, 6
0, 2
8, 4
1, 4
2, 2
0, 4
4, 0
2, 7
8, 1
4, 4
6, 5
7, 8
9, 6
9, 10
7, 7
3, 1
7, 4
9, 6
5, 7
5, 8
5, 9
15, 9
2, 12
12, 9
9, 12
9, 13
9, 9
13, 15
5, 5
14, 6
10, 7
14, 1
25, 7
13, 6
11, 6
8, 9
6, 11
10, 13
7, 12
7, 17
2, 14
5, 15
5, 4
2, 13
5, 8
2, 6
2, 6
8, 6
3, 4
3, 3
2, 2
2, 4
3, 2
6, 5
3, 2
4, 8
3, 8
4, 0
4, 5
3, 1
2, 4
6, 1
4, 5
2, 2
2, 0
2, 0
1, 2
3, 6
1, 5
0, 2
4, 7
3, 10
1, 3
2, 3
0, 1
3, 5
3, 6
1, 9
2, 3
1, 5
3, 4
2, 5
4, 6
5, 8
3, 3
5, 2
6, 4
4, 3
7, 6
13, 5
3, 6
13, 13
11, 11
10, 10
9, 14
6, 20
12, 17
7, 14
9, 19
8, 14
5, 18
9, 14
5, 5
3, 11
8, 5
4, 5
1, 5
1, 3
2, 1
2, 0
1, 3
3, 6
1, 5
1, 5
2, 1
1, 3
2, 6
2, 2
6, 5
5, 2
1, 3
1, 4
4, 5
1, 5
5, 2
1, 2
3, 1
1, 2
1, 0
1, 3
1, 3
2, 2
2, 0
2, 3
5, 2
1, 1
2, 2
2, 3
1, 2
5, 1
1, 2
1, 1
2, 3
1, 2
1, 1
1, 1
1, 1
3, 4
2, 2
0, 1
6, 0
4, 3
5, 1
9, 0
2, 2
5, 3
3, 4
2, 1
3, 3
3, 6
2, 3
1, 4
2, 2
9, 1
3, 1
1, 3
1, 4
1, 2
3, 0
4, 1
0, 2
2, 5
0, 2
2, 4
2, 3
5, 3
2, 0
2, 1
2, 1
0, 5
2, 1
1, 3
2, 3
0, 4
0, 3
3, 5
3, 2
3, 5
0, 3
2, 1
1, 5
2, 2
2, 1
2, 3
2, 5
0, 1
4, 1
5, 2
6, 2
4, 2
7, 2
0, 3
3, 3
4, 3
3, 3
6, 6
3, 2
4, 5
4, 3
0, 3
7, 4
3, 5
3, 2
2, 1
4, 3
3, 1
1, 0
0, 5
1, 3
2, 1
1, 2
3, 2
0, 3
4, 1
0, 4
4, 1
1, 0
1, 1
0, 0
2, 3
1, 1
0, 4
3, 0
2, 0
1, 4
2, 2
0, 3
2, 4
1, 4
0, 0
1, 0
0, 2
1, 0
3, 0
0, 0
0, 0
0, 1
1, 1
1, 0
1, 1
2, 0
1, 1
1, 0
0, 1
0, 0
0, 0
2, 2
1, 2
0, 1
3, 2
1, 0
0, 3
0, 1
4, 1
0, 0
0, 0
1, 1
1, 1
0, 0
0, 2
1, 1
1, 0
2, 1
0, 1
1, 1
4, 1
1, 0
0, 1
1, 0
1, 0
2, 0
1, 0
1, 1
2, 0
1, 1
0, 1
0, 2
0, 0
1, 1
1, 1
1, 1
0, 0
0, 1
0, 1
1, 1
1, 0
0, 0
0, 1
0, 1
0, 0
1, 2
1, 1
0, 1
1, 0
1, 1
1, 0
0, 0
0, 1
1, 1
1, 1
0, 1
0, 1
0, 1
0, 1
1, 3
1, 0
2, 0
1, 2
1, 1
0, 0
0, 0
2, 1
2, 0
1, 2
0, 0
0, 1
0, 0
1, 0
1, 1
0, 0
1, 2
1, 1
1, 2
0, 1
0, 1
0, 1
0, 1
1, 1
0, 0
1, 1
0, 1
1, 1
1, 1
1, 1
0, 0
0, 0
0, 0
0, 0
0, 2
1, 1
0, 0
2, 1
0, 0
0, 1
0, 0
0, 0
0, 0
0, 0
0, 1
0, 0
0, 0
0, 3
1, 0
1, 0
0, 1
0, 0
1, 0
0, 0
0, 1
0, 1
0, 1
0, 0
0, 1
0, 0
0, 0
0, 1
1, 0
0, 0
1, 0
0, 0
1, 0
0, 0
0, 1
0, 1
0, 0
0, 0
1, 1
1, 1
1, 1
0, 0
3, 0
0, 2
0, 0
0, 0
0, 0
0, 0
0, 0
0, 0
0, 0
0, 0
0, 2
0, 0
0, 0
0, 1
0, 0
0, 0
0, 1
0, 0
0, 0
0, 0
0, 1
1, 0
0, 0
0, 0
0, 2
0, 0
1, 1
0, 0
0, 0
1, 1
1, 0
0, 1
1, 0
0, 0
0, 0
0, 0
1, 0
0, 1
0, 0
0, 1
0, 0
1, 0
0, 0
0, 1
1, 0
1, 0
0, 1
0, 0
0, 1
0, 0
0, 0
0, 1
1, 0
0, 1
0, 0
0, 0
0, 0
0, 0
1, 0
0, 0
0, 1
0, 0
0, 0
0, 0
0, 1
0, 0
0, 0
1, 1
2, 0
0, 0
0, 1
0, 0
0, 0
1, 0
0, 1
2, 0
0, 0
0, 1
1, 0
0, 3
0, 0
0, 0
0, 1
0, 0
0, 0
0, 0
0, 0
0, 0
0, 0
0, 0
0, 0
0, 0
0, 0
0, 1
0, 0
0, 0
2, 0
1, 0
0, 0
0, 0
0, 0
0, 0
0, 0
0, 0
0, 0
0, 0
0, 0
0, 0
0, 1
0, 1
0, 0
1, 0
0, 0
0, 0
0, 0
0, 0
0, 1
0, 0
0, 0
0, 1
0, 0
0, 0
0, 0
0, 1
0, 0
0, 0
0, 0
0, 0
2, 0
2, 0
1, 0
0, 0
0, 0
1, 0
0, 1
0, 0
0, 0
1, 0
0, 0
0, 0
0, 0
0, 0
0, 0
0, 0
0, 0
0, 1
0, 0
0, 0
0, 0
0, 0
0, 0
0, 0
0, 0
1, 0
0, 0
0, 0
0, 0
0, 0
0, 1
0, 0
0, 0
0, 0
0, 0
0, 0
0, 0
0, 0
0, 0
0, 0
0, 0
0, 0
0, 0
0, 0
0, 0
0, 0
0, 0
1, 0
0, 0
0, 0
0, 0
0, 0
0, 0
0, 0
0, 0
1, 0
1, 0
0, 0
0, 0
0, 0
1, 0
0, 0
0, 0
0, 0
0, 0
0, 0
0, 0
0, 0
0, 0
0, 0
0, 0
0, 0
0, 0
0, 0
0, 0
0, 1
0, 0
0, 0
0, 0
0, 0
0, 0
0, 0
0, 0
0, 0
0, 0
0, 0
0, 0
0, 0
0, 0
0, 0
0, 0
0, 0
1, 0
0, 0
0, 0
0, 0
0, 0
0, 0
0, 0
0, 0
0, 0
0, 0
0, 0
0, 0
0, 0
0, 0
0, 0
0, 0
0, 1
0, 0
0, 0
0, 0
0, 0
0, 0
0, 0
0, 0
0, 0
0, 0
0, 0
0, 0
0, 0
0, 0
0, 0
0, 0
0, 0
0, 0
0, 0
0, 0
0, 0
0, 0
0, 0
0, 0
0, 0
0, 0
0, 0
0, 0
0, 0
0, 0
0, 0
0, 0
0, 0
0, 0
0, 0
0, 0
0, 0
0, 0
0, 0
0, 0
0, 0
0, 0
0, 0
0, 0
0, 0
0, 0
0, 0
0, 0
0, 0
0, 0
0, 0
0, 0
0, 0
0, 0
0, 0
0, 0
0, 0
0, 0
0, 0
0, 0
0, 0
0, 0
0, 0
0, 0
0, 0
0, 0
0, 0
1, 0
0, 0
0, 0
0, 0
0, 0
0, 0
0, 0
0, 0
0, 1
0, 0
0, 0
0, 0
0, 0
0, 0
0, 0
0, 0
0, 0
0, 0
0, 0
0, 0
0, 0
0, 0
0, 0
0, 0
0, 0
0, 0
0, 0
0, 0
0, 0
0, 0
0, 0
0, 0
0, 0
0, 0
0, 0
0, 0
0, 0
0, 0
0, 0
0, 0
0, 0
0, 0
0, 0
0, 0
0, 0
0, 0
0, 0
0, 0
0, 0
0, 0
0, 0
0, 0
0, 0
0, 0
0, 0
0, 0
0, 0
0, 0
0, 0
0, 0
0, 0
0, 0
0, 0
0, 0
0, 0
0, 0
0, 0
0, 0
0, 0
0, 0
0, 0
0, 0
0, 0
0, 0
0, 0
0, 0
0, 0
0, 0
0, 0
0, 0
0, 0
0, 0
0, 0
0, 0
0, 0
0, 0
0, 0
0, 0
0, 0
0, 0
0, 0
0, 0
0, 0
0, 0
0, 0
0, 0
0, 0
0, 0
0, 0
0, 0
0, 0
0, 0
0, 0
0, 0
0, 0
0, 0
0, 0
0, 0
0, 0
0, 0
0, 0
0, 0
0, 0
0, 0
0, 0
0, 0
0, 0
0, 0
0, 0
0, 0
0, 0
0, 0
0, 0
0, 0
0, 0
0, 0
0, 0
0, 0
0, 0
0, 0
0, 0
0, 0
0, 0
0, 0
0, 0
0, 0
0, 0
0, 0
0, 0
0, 0
0, 0
0, 0
0, 0
0, 0
0, 0
0, 0
0, 0
0, 0
0, 0
0, 0
0, 0
0, 0
0, 0
0, 0
0, 0
0, 0
0, 0
0, 0
0, 0
0, 0
0, 0
0, 0
0, 0
0, 0
0, 0
0, 0
0, 0
0, 0
0, 0
0, 0
0, 0
0, 0
0, 0
0, 0
0, 0
0, 0
0, 0
0, 0
0, 0
0, 0
0, 0
0, 0
0, 0
0, 0
0, 0
0, 0
0, 0
0, 0
0, 0
0, 0
0, 0
0, 0
0, 0
0, 0
0, 0
0, 0
0, 0
0, 0
0, 0
0, 0
0, 0
0, 0
0, 0
0, 0
0, 0
0, 0
0, 0
0, 0
0, 0
0, 0
0, 0
0, 0
0, 0
0, 0
0, 0
0, 0
0, 0
0, 0
0, 0
0, 0
0, 0
0, 0
0, 0
0, 0
0, 0
0, 0
0, 0
0, 0
0, 0
0, 0
0, 0
0, 0
0, 0
0, 0
0, 0
0, 0
0, 0
0, 0
0, 0
0, 0
0, 0
0, 0
0, 0
0, 0
0, 0
0, 0
0, 0
0, 0
0, 0
0, 0
0, 0
0, 0
0, 0
0, 0
0, 0
0, 0
0, 0
0, 0
0, 0
0, 0
0, 0
0, 0
0, 0
0, 0
0, 0
0, 0
0, 0
0, 0
0, 0
0, 0
0, 0
0, 0
0, 0
0, 0
0, 0
0, 0
0, 0
0, 0
0, 0
0, 0
0, 0
0, 0
0, 0
0, 0
0, 0
0, 0
0, 0
0, 0
0, 0
0, 0
0, 0
0, 0
0, 0
0, 0
0, 0
0, 0
0, 0
0, 0
0, 0
0, 0
0, 0
0, 0
0, 0
0, 0
0, 0
0, 0
0, 0
0, 0
0, 0
0, 0
0, 0
0, 0
0, 0
0, 0
0, 0
0, 0
0, 0
0, 0
0, 0
0, 0
0, 0
0, 0
0, 0
0, 0
0, 0
0, 0
0, 0
0, 0
0, 0
0, 0
0, 0
0, 0
0, 0
0, 0
0, 0
0, 0
#ENDOFDATA     end of spectrum data