File: host_upload/06-09-2024/ps_0852/dump3/ps__0852shot_2297.msa
#FORMAT      : EMSA/MAS spectral data file
#VERSION     : TC202v2.0 PIXL
#TITLE       : N/A
#DATE        :       Date in the format DD-MMM-YYYY, for example 07-JUL-2010
#TIME        :             The time of day at which the spectrum was recorded, in 24-hour format
#OWNER       : PIXL Flight Model       (PIXL will use this to indicate which instrument took the data.)
#NPOINTS     : 4096     Number of data points in the spectrum (This can be zero for configuration only files)
#NCOLUMNS    : 2     Number of data columns in the spectrum (This can be zero for configuration only files)
#XUNITS      : eV
#YUNITS      : COUNTS
#DATATYPE    : YY
#XPERCHAN    : 7.862, 7.881   eV per channel (separate by commas if more than one detector)
#OFFSET      : 18.5, -22.4         eV of first channel  (separate by commas if more than one detector
#SIGNALTYPE  : XRF
#YP_TEMP     : 2.332
#LIVETIME    : 8.53485, 8.5673   seconds (separate by commas if more than one detector)
#REALTIME    : 10, 10.0   seconds (separate by commas if more than one detector)
#SPECTRUM    : start of spectrum data
0, 0
0, 0
0, 0
0, 0
0, 0
0, 0
0, 0
0, 0
0, 0
0, 0
0, 0
0, 0
0, 0
0, 0
0, 0
0, 0
0, 0
0, 0
0, 0
0, 0
0, 0
0, 0
0, 0
0, 0
0, 0
0, 0
0, 0
0, 0
0, 0
0, 0
0, 0
0, 0
0, 0
0, 0
0, 2
0, 1
1, 0
0, 1
0, 0
0, 0
0, 1
2, 1
0, 1
1, 1
0, 1
0, 1
1, 1
3, 4
10, 0
12, 25
20, 21
39, 31
51, 45
85, 76
83, 73
80, 80
47, 62
55, 31
26, 26
14, 10
6, 6
4, 3
2, 5
7, 2
2, 7
4, 4
5, 1
10, 18
26, 23
58, 42
100, 97
188, 169
266, 243
367, 327
461, 349
452, 379
368, 328
321, 266
227, 188
122, 106
88, 55
43, 22
16, 24
6, 9
3, 2
5, 3
4, 2
0, 1
0, 3
2, 0
0, 1
1, 1
2, 4
1, 4
2, 8
4, 9
17, 14
16, 13
15, 19
14, 20
14, 20
10, 15
7, 10
3, 11
10, 14
5, 20
11, 17
9, 24
11, 28
24, 31
14, 27
27, 31
34, 31
44, 37
64, 34
58, 48
63, 38
59, 38
56, 41
40, 29
46, 29
29, 24
34, 21
24, 16
27, 23
21, 16
14, 16
12, 13
10, 7
10, 7
8, 2
4, 2
1, 3
7, 1
4, 4
3, 4
1, 2
2, 2
4, 2
1, 2
1, 2
3, 2
4, 0
5, 5
2, 4
2, 1
0, 4
4, 1
1, 1
3, 8
3, 3
8, 2
14, 4
11, 11
12, 12
15, 16
29, 15
20, 25
20, 19
22, 19
15, 7
14, 11
9, 11
9, 3
6, 3
7, 3
9, 5
4, 6
4, 3
5, 4
7, 4
3, 8
3, 6
8, 9
5, 6
3, 7
4, 11
10, 9
9, 22
6, 15
2, 10
7, 9
7, 7
4, 7
6, 6
5, 5
7, 2
5, 5
7, 4
6, 9
15, 11
9, 12
12, 17
14, 15
9, 16
16, 21
15, 27
20, 27
19, 26
11, 19
21, 15
18, 19
12, 17
5, 12
7, 9
9, 12
5, 9
8, 3
4, 3
9, 7
10, 5
5, 5
13, 6
16, 9
10, 12
16, 7
9, 6
16, 8
25, 8
17, 8
19, 4
10, 9
16, 8
14, 12
19, 8
28, 13
34, 11
50, 14
48, 14
47, 11
63, 17
70, 19
69, 16
59, 17
50, 17
49, 16
38, 17
30, 11
31, 9
22, 6
20, 7
17, 11
20, 16
20, 10
19, 15
24, 18
30, 23
33, 48
56, 40
47, 47
73, 50
68, 52
53, 68
64, 56
41, 47
41, 44
37, 33
26, 32
14, 26
24, 34
25, 36
36, 32
47, 63
107, 110
156, 176
327, 344
473, 529
801, 882
1260, 1210
1621, 1681
2116, 1957
2528, 2196
2502, 2212
2472, 2001
2199, 1829
1813, 1428
1425, 1020
1023, 665
657, 413
415, 233
212, 119
102, 72
80, 45
46, 26
40, 19
49, 20
41, 21
40, 20
34, 15
44, 25
44, 30
52, 26
69, 42
72, 97
108, 130
143, 171
222, 217
279, 263
317, 332
412, 347
370, 343
383, 319
320, 316
280, 194
220, 199
150, 114
102, 70
65, 33
34, 22
13, 10
7, 9
9, 10
4, 6
11, 8
19, 12
13, 16
16, 12
13, 21
14, 6
15, 14
13, 11
8, 9
8, 8
7, 3
8, 7
10, 5
3, 11
3, 8
3, 2
4, 4
5, 5
3, 5
3, 6
5, 5
3, 5
6, 1
6, 5
7, 4
5, 5
3, 3
7, 3
6, 3
5, 7
2, 5
5, 3
5, 4
7, 3
5, 6
4, 7
6, 7
8, 5
9, 6
11, 5
8, 3
8, 7
14, 4
7, 2
9, 3
9, 10
11, 4
4, 4
8, 3
4, 1
6, 8
7, 5
1, 6
5, 3
10, 5
5, 2
4, 5
4, 5
8, 4
4, 2
5, 2
4, 1
2, 11
0, 3
10, 4
8, 3
9, 5
7, 1
6, 5
4, 2
1, 4
6, 7
7, 5
3, 5
4, 4
3, 2
2, 7
6, 9
5, 6
12, 9
8, 16
5, 14
2, 16
5, 14
5, 15
8, 4
3, 14
4, 13
4, 4
3, 10
8, 2
2, 8
3, 4
6, 2
6, 4
4, 2
3, 5
8, 2
4, 5
6, 5
6, 5
3, 5
7, 3
3, 4
8, 1
4, 2
6, 0
6, 4
4, 5
4, 1
8, 1
9, 4
2, 4
4, 7
4, 2
4, 2
4, 2
4, 5
3, 2
2, 1
7, 2
6, 3
7, 0
7, 5
3, 5
4, 2
3, 2
3, 1
2, 1
5, 3
4, 2
3, 2
1, 2
3, 3
4, 3
5, 5
7, 5
3, 1
2, 3
7, 2
4, 3
2, 6
3, 1
2, 7
1, 2
3, 6
2, 2
1, 6
3, 3
2, 2
3, 3
2, 5
2, 3
4, 2
1, 2
3, 2
4, 4
3, 7
2, 3
3, 1
4, 6
4, 3
3, 1
3, 2
3, 2
2, 5
0, 1
1, 2
3, 0
2, 4
2, 4
3, 2
2, 0
2, 2
1, 1
4, 3
3, 5
1, 6
1, 2
3, 2
4, 1
6, 3
4, 3
3, 5
3, 3
2, 3
0, 2
7, 2
4, 2
5, 4
3, 6
1, 1
3, 5
1, 0
3, 2
0, 1
0, 0
1, 0
1, 0
3, 2
6, 0
9, 4
1, 1
0, 0
2, 7
4, 1
6, 2
3, 6
4, 2
3, 3
1, 3
1, 2
0, 2
2, 2
1, 1
1, 3
2, 3
1, 2
0, 2
2, 6
1, 1
4, 1
3, 4
1, 2
3, 5
3, 2
2, 2
3, 1
6, 5
9, 3
5, 2
4, 2
2, 5
9, 4
0, 4
2, 1
2, 5
4, 0
1, 2
0, 2
0, 0
4, 0
2, 0
2, 0
2, 3
0, 3
3, 0
0, 1
2, 0
1, 1
0, 1
1, 0
1, 4
4, 2
1, 2
2, 2
1, 3
4, 1
1, 1
4, 2
2, 2
2, 0
0, 2
0, 0
0, 0
3, 1
2, 1
2, 0
0, 0
1, 0
5, 1
1, 2
1, 1
2, 1
1, 0
3, 1
0, 0
0, 0
0, 2
0, 0
1, 1
1, 1
2, 0
0, 3
2, 0
2, 1
3, 1
0, 2
1, 1
1, 3
0, 1
1, 1
2, 3
0, 1
3, 1
2, 2
1, 0
0, 1
1, 0
0, 2
0, 1
1, 0
0, 0
1, 1
3, 1
1, 0
1, 0
3, 3
4, 1
0, 1
1, 0
2, 2
0, 0
1, 2
1, 0
0, 0
0, 0
1, 0
2, 2
2, 1
0, 0
0, 0
0, 1
2, 0
2, 0
0, 0
2, 2
1, 1
0, 0
0, 2
2, 2
0, 2
0, 0
0, 2
1, 0
0, 1
1, 0
0, 1
1, 3
0, 1
0, 0
2, 0
0, 0
0, 1
0, 1
1, 2
0, 1
0, 0
1, 1
0, 0
1, 0
0, 0
0, 0
0, 1
1, 2
0, 1
0, 0
1, 0
0, 1
2, 1
2, 1
1, 0
0, 0
0, 1
0, 0
2, 0
0, 0
2, 0
0, 2
1, 1
0, 1
2, 2
0, 0
0, 1
0, 1
1, 0
1, 1
0, 0
2, 2
0, 0
0, 0
0, 0
0, 0
0, 1
0, 0
0, 0
0, 1
0, 2
1, 1
2, 0
1, 0
0, 0
2, 0
0, 0
1, 2
1, 0
0, 0
0, 0
0, 0
0, 0
1, 0
1, 0
0, 0
0, 0
0, 0
1, 2
0, 0
0, 0
1, 0
0, 1
0, 1
1, 0
0, 1
0, 0
0, 1
1, 1
0, 0
0, 0
0, 0
0, 0
0, 0
1, 0
0, 0
0, 0
0, 1
1, 0
0, 1
0, 0
0, 0
0, 0
1, 0
1, 1
0, 0
0, 0
0, 0
0, 0
0, 0
1, 0
1, 0
0, 0
0, 0
0, 0
0, 0
1, 0
0, 0
0, 0
1, 0
0, 0
0, 0
0, 0
2, 0
0, 1
0, 0
0, 0
0, 0
0, 0
0, 1
0, 0
0, 0
0, 0
0, 1
0, 0
0, 1
1, 0
0, 0
0, 1
0, 0
0, 0
0, 1
0, 2
0, 0
1, 0
0, 1
0, 0
0, 0
0, 2
1, 0
0, 0
0, 0
0, 0
1, 0
0, 0
0, 0
4, 0
0, 0
0, 0
0, 1
0, 0
1, 0
1, 0
1, 0
1, 0
1, 0
1, 0
1, 0
0, 0
0, 0
0, 0
1, 0
0, 0
0, 2
1, 0
0, 0
0, 0
0, 0
0, 0
0, 0
0, 0
0, 0
0, 0
1, 0
1, 0
0, 0
0, 0
0, 0
0, 0
0, 0
0, 0
0, 0
1, 0
0, 1
0, 0
0, 0
0, 0
0, 0
0, 0
0, 0
0, 0
0, 0
0, 0
0, 0
0, 0
0, 0
0, 0
0, 1
0, 0
0, 0
0, 0
0, 0
0, 1
1, 0
0, 1
0, 0
0, 0
1, 0
0, 1
1, 0
0, 0
0, 1
0, 1
0, 0
0, 0
0, 0
0, 0
0, 0
0, 0
0, 0
0, 0
1, 0
0, 0
0, 0
0, 0
1, 1
0, 0
0, 0
0, 0
0, 0
0, 0
0, 0
1, 0
0, 0
1, 0
0, 0
0, 0
0, 0
0, 0
0, 0
0, 0
0, 0
0, 0
0, 0
0, 0
0, 0
1, 0
0, 0
0, 0
0, 0
0, 0
0, 0
0, 0
0, 0
0, 0
0, 0
0, 0
0, 0
0, 0
0, 0
0, 0
0, 0
0, 1
0, 0
0, 0
0, 0
0, 1
0, 0
0, 0
0, 0
0, 0
1, 0
0, 0
0, 0
0, 0
1, 0
0, 0
0, 0
0, 0
0, 0
0, 0
0, 0
0, 0
0, 0
0, 0
0, 0
0, 0
0, 0
0, 0
0, 0
0, 0
0, 0
0, 0
0, 0
0, 0
0, 0
0, 0
0, 0
0, 1
0, 0
0, 0
0, 0
0, 0
0, 0
0, 0
0, 0
0, 1
0, 0
0, 0
0, 0
0, 0
1, 0
0, 0
0, 0
0, 0
0, 0
0, 0
0, 0
0, 0
0, 0
0, 0
0, 0
0, 0
0, 0
0, 0
0, 0
0, 0
0, 0
0, 0
0, 0
0, 0
0, 0
0, 0
0, 0
0, 0
0, 0
0, 0
0, 0
0, 0
0, 0
0, 0
0, 0
0, 0
0, 0
0, 0
0, 0
0, 0
0, 0
0, 0
0, 0
0, 0
0, 0
0, 0
0, 0
0, 0
0, 0
0, 0
0, 0
0, 0
0, 0
0, 0
0, 0
0, 0
0, 0
0, 0
0, 0
0, 0
0, 0
0, 0
0, 0
0, 0
0, 0
0, 0
0, 0
0, 0
0, 0
0, 0
1, 0
0, 0
0, 0
0, 0
0, 0
0, 0
0, 0
0, 0
0, 0
0, 0
0, 0
0, 0
0, 0
0, 0
0, 0
0, 0
0, 0
0, 0
0, 0
0, 0
0, 0
0, 0
0, 0
0, 0
0, 0
0, 0
0, 0
0, 0
0, 0
0, 0
0, 0
0, 0
0, 0
0, 0
0, 0
0, 0
0, 0
0, 0
0, 0
0, 0
0, 0
0, 0
0, 0
0, 0
0, 0
0, 0
0, 0
0, 0
0, 0
0, 0
0, 0
0, 0
0, 0
0, 0
0, 0
0, 0
0, 0
0, 0
0, 0
0, 0
0, 0
0, 0
0, 0
0, 0
0, 0
0, 0
0, 0
0, 0
0, 0
0, 0
0, 0
0, 0
0, 0
0, 0
0, 0
0, 0
0, 0
0, 0
0, 0
0, 0
0, 0
0, 0
0, 0
0, 0
0, 0
0, 0
0, 0
0, 0
0, 0
0, 0
0, 0
0, 0
0, 0
0, 0
0, 0
0, 0
0, 0
0, 0
0, 0
0, 0
0, 0
0, 0
0, 0
0, 0
0, 0
0, 0
0, 0
0, 0
0, 0
0, 0
0, 0
0, 0
0, 0
0, 0
0, 0
0, 0
0, 0
0, 0
0, 0
0, 0
0, 0
0, 0
0, 0
0, 0
0, 0
0, 0
0, 0
0, 0
0, 0
0, 0
0, 0
0, 0
0, 0
0, 0
0, 0
0, 0
0, 0
0, 0
0, 0
0, 0
0, 0
0, 0
0, 0
0, 0
0, 0
0, 0
0, 0
0, 0
0, 0
0, 0
0, 0
0, 0
0, 0
0, 0
0, 0
0, 0
0, 0
0, 0
0, 0
0, 0
0, 0
0, 0
0, 0
0, 0
0, 0
0, 0
0, 0
0, 0
0, 0
0, 0
0, 0
0, 0
0, 0
0, 0
0, 0
0, 0
0, 0
0, 0
0, 0
0, 0
0, 0
0, 0
0, 0
0, 0
0, 0
0, 0
0, 0
0, 0
0, 0
0, 0
0, 0
0, 0
0, 0
0, 0
0, 0
0, 0
0, 0
0, 0
0, 0
0, 0
0, 0
0, 0
0, 0
0, 0
0, 0
0, 0
0, 0
0, 0
0, 0
0, 0
0, 0
0, 0
0, 0
0, 0
0, 0
0, 0
0, 0
0, 0
0, 0
0, 0
0, 0
0, 0
0, 0
0, 0
0, 0
0, 0
0, 0
0, 0
0, 0
0, 0
0, 0
0, 0
0, 0
0, 0
0, 0
0, 0
0, 0
0, 0
0, 0
0, 0
0, 0
0, 0
0, 0
0, 0
0, 0
0, 0
0, 0
0, 0
0, 0
0, 0
0, 0
0, 0
0, 0
0, 0
0, 0
0, 0
0, 0
0, 0
0, 0
0, 0
0, 0
0, 0
0, 0
0, 0
0, 0
0, 0
0, 0
0, 0
0, 0
0, 0
0, 0
0, 0
0, 0
0, 0
0, 0
0, 0
0, 0
0, 0
0, 0
0, 0
0, 0
0, 0
0, 0
0, 0
0, 0
0, 0
0, 0
0, 0
0, 0
0, 0
0, 0
0, 0
0, 0
0, 0
0, 0
0, 0
0, 0
0, 0
0, 0
0, 0
0, 0
0, 0
0, 0
0, 0
0, 0
0, 0
0, 0
0, 0
0, 0
0, 0
0, 0
0, 0
0, 0
0, 0
0, 0
0, 0
0, 0
0, 0
0, 0
0, 0
0, 0
0, 0
0, 0
0, 0
0, 0
0, 0
0, 0
0, 0
0, 0
0, 0
0, 0
0, 0
0, 0
0, 0
0, 0
0, 0
0, 0
0, 0
0, 0
#ENDOFDATA     end of spectrum data