File: host_upload/06-09-2024/ps_0852/dump3/ps__0852shot_2410.msa
#FORMAT      : EMSA/MAS spectral data file
#VERSION     : TC202v2.0 PIXL
#TITLE       : N/A
#DATE        :       Date in the format DD-MMM-YYYY, for example 07-JUL-2010
#TIME        :             The time of day at which the spectrum was recorded, in 24-hour format
#OWNER       : PIXL Flight Model       (PIXL will use this to indicate which instrument took the data.)
#NPOINTS     : 4096     Number of data points in the spectrum (This can be zero for configuration only files)
#NCOLUMNS    : 2     Number of data columns in the spectrum (This can be zero for configuration only files)
#XUNITS      : eV
#YUNITS      : COUNTS
#DATATYPE    : YY
#XPERCHAN    : 7.862, 7.881   eV per channel (separate by commas if more than one detector)
#OFFSET      : 18.5, -22.4         eV of first channel  (separate by commas if more than one detector
#SIGNALTYPE  : XRF
#YP_TEMP     : 2.107
#LIVETIME    : 8.56004, 8.55331   seconds (separate by commas if more than one detector)
#REALTIME    : 10, 10.0   seconds (separate by commas if more than one detector)
#SPECTRUM    : start of spectrum data
0, 0
0, 0
0, 0
0, 0
0, 0
0, 0
0, 0
0, 0
0, 0
0, 0
0, 0
0, 0
0, 0
0, 0
0, 0
0, 0
0, 0
0, 0
0, 0
0, 0
0, 0
0, 0
0, 0
0, 0
0, 0
0, 0
0, 0
0, 0
0, 0
0, 0
0, 0
0, 0
0, 0
0, 0
0, 0
0, 0
0, 1
1, 1
1, 0
0, 4
0, 1
0, 1
1, 3
2, 0
0, 2
1, 0
2, 0
3, 6
8, 5
18, 10
23, 24
39, 39
57, 46
71, 58
78, 74
65, 70
49, 54
48, 33
31, 20
16, 12
7, 10
3, 5
4, 4
3, 4
3, 5
5, 1
4, 10
11, 13
22, 28
43, 44
121, 117
158, 177
252, 254
373, 322
471, 419
422, 444
356, 405
312, 300
181, 193
130, 105
52, 60
26, 45
13, 13
9, 13
5, 4
0, 3
3, 2
3, 1
2, 0
2, 1
3, 0
0, 0
1, 1
4, 3
2, 3
4, 2
4, 3
2, 4
8, 5
8, 5
2, 3
5, 4
1, 2
4, 4
6, 3
5, 5
5, 5
6, 9
11, 12
19, 23
37, 32
38, 44
48, 48
42, 54
53, 52
35, 64
45, 43
29, 56
28, 43
37, 22
33, 23
21, 27
27, 17
16, 18
17, 22
13, 17
12, 19
13, 14
10, 10
8, 1
4, 9
3, 0
4, 1
3, 1
1, 5
1, 2
2, 1
2, 0
2, 1
4, 2
0, 4
2, 1
4, 1
2, 4
3, 1
0, 5
1, 1
3, 2
2, 3
1, 1
2, 5
4, 6
3, 2
14, 6
6, 11
11, 15
14, 9
8, 17
12, 14
12, 15
10, 14
5, 7
4, 6
4, 3
2, 3
3, 3
2, 2
1, 3
6, 1
1, 3
6, 2
3, 7
4, 2
6, 2
5, 5
5, 3
6, 11
8, 8
5, 3
9, 3
10, 5
14, 7
18, 3
24, 3
14, 4
9, 3
9, 7
8, 4
9, 3
7, 6
11, 4
7, 10
9, 9
6, 7
8, 8
11, 11
20, 11
20, 10
15, 20
15, 11
7, 8
10, 7
8, 12
1, 8
7, 9
5, 9
3, 3
5, 4
2, 8
3, 8
5, 4
1, 3
5, 13
3, 6
6, 4
7, 4
6, 9
5, 14
5, 16
7, 23
12, 43
8, 39
8, 54
8, 83
6, 74
17, 64
9, 44
13, 47
9, 28
21, 26
16, 29
23, 20
12, 17
21, 16
19, 27
24, 8
15, 9
13, 9
8, 4
12, 9
15, 9
14, 7
23, 7
12, 11
23, 14
25, 22
32, 20
42, 36
46, 41
65, 69
53, 76
73, 63
69, 54
61, 43
39, 38
27, 24
25, 22
13, 22
16, 23
18, 23
19, 23
18, 32
51, 55
83, 85
153, 185
280, 341
488, 547
839, 915
1151, 1335
1626, 1797
2030, 2095
2356, 2471
2545, 2471
2379, 2243
2159, 1986
1829, 1538
1337, 1094
989, 656
603, 486
350, 248
195, 141
91, 78
50, 51
23, 35
17, 22
11, 27
20, 15
12, 17
19, 17
16, 18
28, 26
31, 37
45, 50
66, 78
109, 111
153, 159
225, 194
279, 278
332, 332
389, 364
334, 354
381, 311
346, 260
248, 216
205, 144
128, 119
100, 59
49, 33
46, 15
18, 11
15, 10
12, 3
9, 4
11, 5
10, 9
21, 10
17, 12
22, 12
11, 15
16, 14
10, 22
4, 11
6, 7
11, 5
7, 3
5, 7
8, 5
3, 6
2, 5
3, 3
2, 4
1, 3
3, 5
3, 3
1, 10
5, 8
3, 10
3, 16
4, 12
4, 9
6, 8
4, 6
8, 6
2, 7
5, 8
7, 5
2, 3
6, 6
5, 10
7, 6
5, 3
2, 9
0, 7
9, 6
2, 9
8, 6
4, 3
3, 7
3, 3
6, 4
2, 3
5, 2
7, 2
8, 2
7, 2
5, 8
7, 1
2, 7
6, 2
5, 4
5, 8
5, 4
1, 3
3, 5
0, 1
7, 4
2, 7
4, 1
6, 5
1, 1
3, 5
1, 5
8, 3
3, 5
3, 3
3, 5
1, 9
3, 12
6, 4
4, 7
2, 16
10, 23
2, 22
1, 14
2, 15
2, 17
5, 19
4, 14
1, 14
2, 11
1, 5
3, 8
7, 3
4, 1
2, 2
1, 1
2, 1
3, 3
0, 2
4, 0
1, 3
2, 10
5, 1
7, 3
4, 3
1, 5
3, 1
3, 1
9, 3
11, 2
14, 1
12, 4
13, 4
11, 1
19, 4
12, 3
14, 2
7, 1
15, 4
11, 3
12, 1
1, 7
5, 0
4, 4
4, 5
4, 5
3, 7
1, 8
4, 6
3, 5
3, 5
0, 6
3, 2
2, 4
2, 4
2, 3
2, 5
3, 7
2, 4
1, 5
3, 8
0, 6
1, 6
2, 6
1, 5
3, 6
5, 5
0, 2
2, 2
2, 1
0, 3
2, 1
1, 4
2, 3
5, 1
3, 2
6, 1
2, 0
2, 0
5, 1
1, 2
3, 3
3, 1
2, 1
2, 4
1, 0
3, 3
4, 0
2, 0
1, 1
3, 2
1, 5
3, 1
1, 3
3, 3
2, 3
3, 1
1, 1
1, 6
5, 1
4, 0
2, 5
2, 0
1, 0
2, 4
2, 3
2, 3
1, 5
0, 2
1, 2
2, 5
0, 5
3, 1
2, 5
1, 6
2, 6
1, 6
0, 5
1, 4
0, 2
2, 2
3, 4
2, 2
2, 1
1, 3
2, 0
3, 4
5, 1
3, 0
5, 3
4, 2
5, 1
0, 2
5, 1
1, 0
8, 3
5, 0
3, 2
7, 1
4, 1
7, 0
5, 1
3, 2
3, 4
2, 5
3, 2
3, 1
1, 1
2, 3
4, 4
5, 1
3, 3
3, 9
7, 4
3, 1
3, 3
6, 5
3, 3
4, 2
0, 0
3, 0
3, 2
2, 1
2, 0
2, 1
0, 4
0, 2
1, 2
0, 2
1, 1
1, 3
0, 1
1, 3
1, 3
2, 0
2, 0
2, 2
3, 0
2, 2
2, 1
2, 2
1, 2
0, 4
2, 0
0, 2
0, 2
1, 0
1, 1
0, 0
0, 1
1, 0
0, 1
3, 0
0, 1
1, 0
0, 1
2, 3
1, 2
1, 1
1, 1
0, 0
0, 0
0, 1
1, 1
1, 1
1, 0
0, 2
2, 0
1, 2
2, 0
0, 0
1, 0
1, 0
2, 0
1, 1
0, 0
1, 1
3, 1
1, 0
1, 1
0, 2
0, 0
3, 0
2, 1
0, 0
3, 0
0, 6
1, 2
1, 0
2, 2
2, 0
3, 1
0, 0
1, 2
1, 1
1, 1
0, 2
0, 0
1, 1
0, 0
0, 0
0, 0
1, 3
3, 3
0, 0
0, 0
0, 0
1, 0
0, 0
2, 0
1, 0
0, 2
2, 0
0, 2
0, 0
1, 0
1, 0
1, 2
0, 0
0, 0
0, 0
1, 0
0, 2
0, 1
0, 0
0, 0
0, 1
0, 1
0, 0
1, 0
0, 0
1, 0
0, 1
3, 1
0, 0
0, 1
2, 1
1, 2
0, 0
1, 0
0, 0
2, 1
0, 1
1, 0
0, 1
0, 0
0, 1
1, 0
0, 0
0, 0
0, 0
0, 0
1, 1
1, 0
1, 0
0, 2
1, 1
1, 0
1, 0
0, 1
1, 0
0, 0
0, 1
0, 0
0, 0
0, 0
0, 0
1, 0
0, 0
0, 0
0, 1
0, 0
0, 0
0, 0
1, 2
1, 0
0, 0
1, 0
0, 0
0, 0
0, 1
0, 1
0, 3
0, 0
0, 1
1, 0
0, 0
1, 1
0, 0
0, 0
0, 1
0, 1
0, 1
0, 0
3, 1
1, 1
0, 0
0, 1
1, 0
0, 2
1, 1
0, 1
0, 0
0, 1
0, 0
0, 1
1, 1
1, 0
0, 0
0, 0
0, 0
0, 0
0, 1
0, 0
0, 0
0, 1
0, 0
1, 0
0, 0
0, 0
1, 0
0, 0
0, 0
1, 1
0, 0
0, 0
1, 0
2, 0
0, 0
0, 0
0, 1
1, 0
0, 0
0, 0
0, 0
1, 0
0, 0
0, 0
0, 0
0, 0
0, 0
0, 1
1, 0
0, 0
0, 1
0, 0
1, 1
0, 1
0, 0
0, 0
0, 0
0, 0
1, 0
0, 0
0, 0
0, 0
0, 0
0, 0
0, 0
1, 0
0, 0
0, 0
0, 1
0, 0
0, 0
0, 0
0, 1
0, 0
0, 0
1, 0
0, 1
0, 0
0, 0
0, 0
1, 0
0, 0
0, 0
0, 1
0, 0
0, 0
0, 0
0, 0
0, 0
0, 1
1, 0
0, 0
0, 1
0, 1
0, 0
0, 0
0, 0
0, 0
0, 0
0, 0
0, 0
0, 1
0, 0
0, 0
0, 1
0, 1
0, 0
0, 0
0, 0
0, 0
0, 0
0, 0
0, 2
0, 0
0, 0
0, 0
0, 0
1, 0
0, 0
0, 0
0, 0
1, 0
0, 0
0, 0
1, 0
0, 0
0, 1
0, 0
0, 0
1, 0
1, 0
0, 0
0, 1
0, 0
0, 1
0, 0
0, 0
0, 0
0, 1
0, 0
0, 0
0, 0
0, 1
0, 0
0, 0
0, 0
0, 0
0, 0
0, 1
0, 0
0, 0
0, 0
0, 0
0, 0
0, 1
0, 0
0, 0
0, 0
0, 0
0, 0
0, 0
0, 0
0, 0
0, 0
0, 0
0, 0
0, 0
0, 1
1, 0
0, 0
0, 0
0, 0
0, 0
0, 0
0, 0
0, 0
0, 0
0, 0
0, 0
0, 0
0, 1
0, 0
0, 0
0, 0
0, 0
0, 0
0, 0
0, 0
0, 0
0, 0
0, 0
0, 0
0, 0
0, 0
0, 0
0, 0
0, 0
0, 0
0, 0
0, 0
0, 0
0, 0
0, 0
0, 0
0, 0
0, 0
0, 0
0, 0
0, 0
0, 0
0, 0
0, 0
0, 0
0, 0
0, 0
0, 0
0, 0
0, 0
0, 0
0, 0
0, 0
0, 0
0, 0
0, 0
0, 0
0, 0
0, 0
0, 0
0, 0
0, 0
0, 0
1, 0
0, 0
0, 0
0, 0
0, 0
0, 0
0, 0
0, 0
2, 0
0, 0
0, 0
0, 0
0, 0
1, 0
0, 0
0, 0
0, 0
0, 0
0, 0
0, 0
0, 0
0, 0
0, 0
0, 0
0, 0
0, 0
0, 0
0, 0
0, 0
0, 0
0, 0
0, 0
0, 0
1, 0
0, 0
0, 0
0, 0
0, 0
0, 1
0, 0
0, 0
0, 0
0, 0
0, 0
0, 0
0, 0
0, 0
0, 0
0, 0
0, 0
0, 0
0, 0
0, 0
0, 0
0, 0
0, 0
0, 0
0, 0
0, 0
0, 0
0, 0
0, 0
0, 0
0, 0
0, 0
0, 0
0, 0
0, 0
0, 0
0, 0
0, 0
0, 0
0, 0
0, 0
0, 0
0, 0
0, 0
0, 0
0, 0
0, 0
0, 0
0, 0
0, 0
0, 0
0, 0
0, 0
0, 0
0, 0
0, 0
0, 0
0, 0
0, 0
0, 0
0, 0
0, 0
0, 0
0, 0
0, 0
0, 0
0, 0
0, 0
0, 0
0, 0
0, 0
0, 0
0, 0
0, 0
0, 0
0, 0
0, 0
0, 0
0, 0
0, 0
0, 0
0, 0
0, 0
0, 1
0, 0
0, 0
0, 0
0, 0
0, 0
0, 0
0, 0
0, 0
0, 0
0, 0
0, 0
0, 0
0, 0
0, 0
0, 0
0, 0
0, 0
0, 0
0, 0
0, 0
0, 0
0, 0
0, 0
0, 0
0, 0
0, 0
0, 0
0, 0
0, 0
0, 0
0, 0
0, 0
0, 0
0, 0
0, 0
0, 0
0, 0
0, 0
0, 0
0, 0
0, 0
0, 0
0, 0
0, 0
0, 0
0, 0
0, 0
0, 0
0, 0
0, 0
0, 0
0, 0
0, 0
0, 0
0, 0
0, 0
0, 0
0, 0
0, 0
0, 0
0, 0
0, 0
0, 0
0, 0
0, 0
0, 0
0, 0
0, 0
0, 0
0, 0
0, 0
0, 0
0, 0
0, 0
0, 0
0, 0
0, 0
0, 0
0, 0
0, 0
0, 0
0, 0
0, 0
0, 0
0, 0
0, 0
0, 0
0, 0
0, 0
0, 0
0, 0
0, 0
0, 0
0, 0
0, 0
0, 0
0, 0
0, 0
0, 0
0, 0
0, 0
0, 0
0, 0
0, 0
0, 0
0, 0
0, 0
0, 0
0, 0
0, 0
0, 0
0, 0
0, 0
0, 0
0, 0
0, 0
0, 0
0, 0
0, 0
0, 0
0, 0
0, 0
0, 0
0, 0
0, 0
0, 0
0, 0
0, 0
0, 0
0, 0
0, 0
0, 0
0, 0
0, 0
0, 0
0, 0
0, 0
0, 0
0, 0
0, 0
0, 0
0, 0
0, 0
0, 0
0, 0
0, 0
0, 0
0, 0
0, 0
0, 0
0, 0
0, 0
0, 0
0, 0
0, 0
0, 0
0, 0
0, 0
0, 0
0, 0
0, 0
0, 0
0, 0
0, 0
0, 0
0, 0
0, 0
0, 0
0, 0
0, 0
0, 0
0, 0
0, 0
0, 0
0, 0
0, 0
0, 0
0, 0
0, 0
0, 0
0, 0
0, 0
0, 0
0, 0
0, 0
0, 0
0, 0
0, 0
0, 0
0, 0
0, 0
0, 0
0, 0
0, 0
0, 0
0, 0
0, 0
0, 0
0, 0
0, 0
0, 0
0, 0
0, 0
0, 0
0, 0
0, 0
0, 0
0, 0
0, 0
0, 0
0, 0
0, 0
0, 0
0, 0
0, 0
0, 0
0, 0
0, 0
0, 0
0, 0
0, 0
0, 0
0, 0
0, 0
0, 0
0, 0
0, 0
0, 0
0, 0
0, 0
0, 0
0, 0
0, 0
0, 0
0, 0
0, 0
0, 0
0, 0
0, 0
0, 0
0, 0
0, 0
0, 0
0, 0
0, 0
0, 0
0, 0
0, 0
0, 0
0, 0
0, 0
0, 0
0, 0
0, 0
0, 0
0, 0
0, 0
0, 0
0, 0
0, 0
0, 0
0, 0
0, 0
0, 0
0, 0
0, 0
0, 0
0, 0
0, 0
0, 0
0, 0
0, 0
0, 0
0, 0
0, 0
0, 0
0, 0
0, 0
0, 0
0, 0
0, 0
0, 0
0, 0
0, 0
0, 0
0, 0
0, 0
0, 0
0, 0
0, 0
0, 0
0, 0
0, 0
0, 0
#ENDOFDATA     end of spectrum data