File: host_upload/06-09-2024/ps_0852/dump3/ps__0852shot_2009.msa
#FORMAT      : EMSA/MAS spectral data file
#VERSION     : TC202v2.0 PIXL
#TITLE       : N/A
#DATE        :       Date in the format DD-MMM-YYYY, for example 07-JUL-2010
#TIME        :             The time of day at which the spectrum was recorded, in 24-hour format
#OWNER       : PIXL Flight Model       (PIXL will use this to indicate which instrument took the data.)
#NPOINTS     : 4096     Number of data points in the spectrum (This can be zero for configuration only files)
#NCOLUMNS    : 2     Number of data columns in the spectrum (This can be zero for configuration only files)
#XUNITS      : eV
#YUNITS      : COUNTS
#DATATYPE    : YY
#XPERCHAN    : 7.862, 7.881   eV per channel (separate by commas if more than one detector)
#OFFSET      : 18.5, -22.4         eV of first channel  (separate by commas if more than one detector
#SIGNALTYPE  : XRF
#YP_TEMP     : 2.492
#LIVETIME    : 8.55941, 8.54072   seconds (separate by commas if more than one detector)
#REALTIME    : 10, 10.0   seconds (separate by commas if more than one detector)
#SPECTRUM    : start of spectrum data
0, 0
0, 0
0, 0
0, 0
0, 0
0, 0
0, 0
0, 0
0, 0
0, 0
0, 0
0, 0
0, 0
0, 0
0, 0
0, 0
0, 0
0, 0
0, 0
0, 0
0, 0
0, 0
0, 0
0, 0
0, 0
0, 0
0, 0
0, 0
0, 0
0, 0
0, 0
0, 0
0, 0
1, 0
1, 1
1, 0
0, 0
0, 1
0, 0
0, 0
3, 3
1, 1
1, 3
1, 0
1, 1
2, 0
4, 1
1, 3
5, 7
11, 13
19, 22
43, 43
44, 59
70, 76
78, 75
89, 56
63, 50
38, 46
25, 10
18, 12
11, 9
6, 6
2, 3
3, 1
3, 4
6, 3
4, 9
7, 20
30, 29
40, 46
91, 91
157, 181
230, 264
339, 342
369, 380
367, 361
378, 352
271, 260
183, 186
112, 113
65, 49
34, 34
22, 14
10, 8
7, 7
6, 2
4, 1
3, 2
3, 1
4, 2
4, 4
1, 5
11, 2
9, 11
16, 15
28, 28
40, 37
49, 57
63, 66
59, 61
55, 55
46, 39
39, 30
28, 26
19, 23
12, 9
14, 8
10, 7
10, 12
14, 17
18, 19
31, 20
38, 40
56, 37
45, 49
47, 44
35, 37
37, 41
43, 29
39, 32
62, 25
72, 16
96, 10
103, 18
96, 15
101, 10
96, 11
71, 12
41, 11
26, 9
11, 5
10, 7
9, 3
4, 7
1, 2
5, 5
0, 3
2, 1
2, 2
2, 3
4, 1
1, 2
1, 3
2, 0
0, 4
2, 5
2, 3
1, 2
3, 4
2, 2
3, 2
4, 3
5, 10
10, 8
12, 15
4, 14
20, 13
10, 18
28, 20
16, 12
16, 8
9, 5
10, 3
1, 8
1, 3
4, 2
1, 2
2, 4
6, 4
7, 4
7, 2
12, 2
6, 1
4, 2
12, 5
19, 3
19, 4
19, 3
9, 3
13, 1
14, 6
10, 5
13, 0
13, 2
14, 1
9, 3
10, 13
14, 6
10, 1
10, 3
8, 5
10, 5
9, 10
7, 8
11, 12
13, 11
12, 12
10, 16
10, 21
16, 17
7, 15
14, 17
9, 25
7, 18
13, 11
8, 17
3, 15
6, 4
7, 8
2, 2
8, 10
5, 7
6, 5
7, 6
3, 10
4, 7
1, 5
3, 8
0, 6
3, 8
6, 15
6, 8
4, 10
2, 8
7, 10
5, 11
7, 11
7, 11
8, 15
7, 10
16, 13
10, 18
16, 16
18, 13
16, 8
36, 7
32, 11
26, 8
34, 5
53, 4
63, 5
41, 10
69, 11
70, 10
75, 11
95, 24
69, 30
92, 43
88, 55
85, 61
84, 73
86, 61
73, 59
42, 44
37, 47
35, 34
18, 28
23, 17
23, 23
16, 21
20, 17
20, 43
53, 55
101, 102
156, 193
273, 353
464, 603
761, 966
1086, 1370
1493, 1761
1962, 2116
2234, 2336
2352, 2414
2222, 2274
2001, 2024
1750, 1502
1273, 1148
966, 746
596, 427
369, 258
227, 146
107, 74
56, 47
24, 30
20, 26
11, 17
15, 20
20, 19
19, 13
18, 16
31, 31
26, 46
59, 64
71, 84
95, 123
124, 182
208, 266
232, 286
304, 342
339, 385
358, 324
319, 301
317, 288
241, 210
200, 180
119, 95
104, 77
40, 33
35, 27
23, 13
11, 11
8, 10
8, 8
8, 9
11, 9
11, 10
15, 12
13, 15
9, 14
15, 10
8, 7
10, 7
9, 7
7, 7
4, 4
3, 4
3, 6
7, 3
2, 4
4, 4
5, 4
3, 5
2, 1
3, 4
1, 0
5, 8
1, 1
4, 4
7, 0
8, 4
3, 6
5, 1
6, 6
4, 2
6, 4
1, 2
11, 2
12, 7
16, 2
18, 5
11, 3
24, 3
18, 5
16, 3
22, 6
14, 6
21, 7
15, 6
13, 13
9, 11
9, 14
8, 6
13, 6
7, 16
6, 17
4, 14
19, 8
12, 11
12, 6
13, 9
15, 9
7, 4
13, 4
8, 6
3, 5
7, 11
2, 8
1, 7
3, 3
0, 5
3, 7
1, 2
1, 5
5, 0
3, 2
3, 3
2, 5
1, 4
5, 2
3, 6
3, 5
0, 7
1, 4
6, 7
3, 3
7, 6
4, 6
2, 5
5, 9
2, 5
2, 3
3, 6
3, 1
5, 3
6, 5
5, 10
4, 6
8, 11
4, 13
5, 5
3, 17
1, 5
4, 6
2, 5
0, 3
2, 7
3, 4
2, 6
3, 7
2, 6
3, 3
2, 4
5, 3
1, 1
6, 3
5, 3
6, 2
6, 3
6, 3
4, 3
3, 5
2, 2
5, 7
4, 7
10, 4
3, 12
1, 10
2, 6
8, 6
4, 3
1, 7
2, 1
5, 3
1, 2
2, 4
2, 2
3, 4
0, 2
1, 2
0, 1
2, 1
3, 2
2, 4
1, 1
2, 0
3, 3
2, 7
2, 1
4, 4
3, 3
1, 0
2, 1
0, 5
1, 3
3, 1
3, 1
4, 3
2, 4
4, 1
2, 0
1, 2
3, 6
1, 3
3, 2
1, 1
6, 1
2, 1
3, 6
3, 3
5, 3
4, 3
2, 6
7, 6
1, 2
0, 4
6, 2
2, 2
3, 4
4, 3
3, 1
1, 2
3, 4
2, 4
2, 3
4, 3
2, 2
0, 2
0, 1
2, 2
1, 6
0, 5
2, 0
3, 2
3, 1
0, 4
1, 3
4, 4
2, 3
7, 3
2, 1
1, 2
3, 1
2, 1
1, 3
3, 1
3, 0
4, 2
1, 4
1, 1
1, 2
2, 0
0, 0
1, 3
1, 2
2, 4
3, 2
0, 0
3, 3
0, 3
1, 0
2, 1
3, 1
2, 2
1, 1
1, 3
0, 4
3, 1
4, 4
3, 4
2, 3
5, 6
4, 1
5, 3
2, 6
4, 1
5, 3
7, 2
4, 2
2, 4
2, 8
1, 3
2, 2
0, 1
2, 5
2, 0
4, 1
1, 0
0, 0
1, 1
1, 3
2, 3
2, 2
0, 2
1, 1
3, 1
1, 2
2, 2
1, 2
1, 0
2, 5
2, 2
3, 2
3, 0
2, 2
1, 4
2, 1
2, 3
0, 1
0, 2
1, 1
0, 1
1, 0
1, 1
0, 1
1, 0
3, 1
4, 1
2, 1
2, 1
1, 1
0, 2
1, 0
0, 0
1, 0
1, 2
1, 2
1, 0
0, 1
0, 1
1, 1
1, 3
0, 1
0, 3
2, 0
0, 0
2, 0
0, 1
1, 1
1, 0
0, 0
0, 1
0, 0
0, 2
3, 0
0, 2
1, 1
0, 1
1, 0
1, 0
1, 1
0, 0
0, 0
0, 2
1, 0
0, 0
0, 0
2, 2
0, 0
1, 1
0, 1
2, 1
0, 0
1, 2
0, 0
0, 1
2, 2
2, 1
0, 0
1, 0
1, 0
0, 0
1, 1
0, 0
1, 0
1, 4
1, 0
2, 1
1, 0
1, 2
0, 0
0, 2
0, 0
1, 1
0, 0
0, 0
0, 0
0, 1
0, 1
0, 1
0, 1
0, 0
0, 0
0, 0
2, 0
2, 1
0, 1
0, 0
1, 0
0, 0
0, 0
0, 1
1, 1
0, 1
2, 0
0, 0
0, 1
1, 1
0, 0
0, 0
1, 0
0, 0
0, 0
0, 0
0, 0
0, 0
1, 1
0, 2
0, 0
0, 2
0, 1
2, 0
0, 1
3, 1
0, 1
0, 0
0, 1
0, 0
1, 0
1, 1
0, 0
0, 1
0, 0
0, 0
0, 2
0, 0
1, 1
0, 0
0, 1
0, 0
0, 0
1, 0
0, 0
0, 0
0, 0
0, 0
0, 1
1, 0
0, 0
0, 0
1, 0
0, 0
0, 1
1, 0
0, 0
0, 0
0, 0
0, 0
1, 0
1, 0
0, 0
0, 1
0, 1
0, 1
1, 0
0, 2
0, 0
1, 1
0, 1
0, 0
0, 0
1, 0
0, 0
0, 0
0, 0
2, 0
0, 1
0, 0
0, 1
1, 0
1, 0
0, 1
0, 0
0, 0
0, 0
0, 0
0, 0
1, 0
0, 0
2, 0
0, 2
1, 1
0, 0
0, 0
0, 0
0, 0
0, 0
0, 1
0, 0
0, 0
0, 0
1, 0
0, 0
0, 0
0, 0
0, 0
1, 1
0, 1
0, 0
0, 0
0, 0
0, 1
1, 0
0, 0
0, 0
0, 0
0, 0
0, 0
0, 0
0, 0
0, 0
0, 1
1, 0
0, 2
0, 1
0, 0
0, 1
0, 0
1, 0
0, 0
0, 0
0, 1
0, 0
0, 0
2, 1
1, 0
0, 0
0, 1
0, 0
0, 0
0, 0
0, 0
0, 1
0, 0
0, 0
1, 0
0, 0
1, 0
0, 0
0, 0
1, 0
1, 0
0, 1
0, 0
0, 0
1, 0
0, 0
0, 0
0, 0
1, 0
0, 0
0, 0
0, 0
0, 1
0, 1
0, 0
0, 0
0, 0
0, 1
0, 1
0, 0
0, 0
0, 0
0, 0
0, 0
1, 0
0, 0
0, 0
0, 0
0, 0
0, 0
1, 0
0, 0
0, 1
1, 1
0, 1
0, 0
0, 1
0, 0
0, 0
0, 0
0, 0
0, 0
0, 0
0, 2
0, 0
0, 0
0, 1
0, 1
0, 0
0, 0
0, 1
0, 1
0, 0
0, 0
0, 0
0, 1
0, 0
0, 0
0, 0
0, 0
0, 0
0, 0
0, 0
0, 0
0, 0
0, 0
0, 0
0, 0
0, 0
0, 0
0, 0
0, 0
0, 0
0, 0
0, 0
0, 0
0, 0
0, 0
0, 0
0, 0
0, 0
0, 0
1, 0
0, 0
0, 1
0, 0
0, 0
0, 0
0, 1
1, 0
0, 0
0, 0
0, 0
0, 0
0, 0
0, 0
0, 0
0, 0
0, 0
0, 0
0, 0
0, 0
0, 0
0, 0
0, 0
0, 0
0, 0
0, 0
0, 0
0, 0
0, 0
0, 0
0, 0
0, 0
0, 0
0, 0
0, 0
0, 0
0, 0
0, 0
0, 0
0, 1
0, 0
0, 0
1, 0
0, 0
0, 0
0, 0
0, 0
0, 0
0, 0
0, 0
0, 0
0, 0
0, 0
0, 1
0, 0
0, 0
0, 0
0, 0
0, 0
0, 0
0, 0
0, 0
0, 0
0, 1
0, 0
0, 0
0, 0
0, 0
0, 0
0, 0
0, 0
0, 0
0, 0
0, 0
0, 0
0, 0
0, 0
0, 0
0, 0
0, 0
0, 0
0, 0
0, 0
0, 0
0, 0
0, 0
0, 0
0, 0
0, 0
0, 0
0, 0
0, 0
0, 0
0, 0
0, 0
0, 0
0, 0
0, 0
0, 0
0, 0
0, 0
0, 0
0, 0
0, 0
1, 0
0, 0
0, 0
0, 0
0, 1
0, 0
0, 0
0, 0
0, 0
0, 0
0, 0
0, 0
0, 0
0, 0
0, 0
0, 0
0, 0
0, 0
0, 0
0, 0
0, 0
0, 0
0, 0
0, 0
0, 0
0, 0
0, 0
0, 0
0, 0
0, 0
0, 0
0, 0
0, 0
0, 0
0, 0
0, 0
0, 0
0, 0
0, 0
0, 0
0, 0
0, 0
0, 0
0, 0
0, 0
0, 0
0, 0
0, 0
0, 0
0, 0
0, 0
0, 0
0, 0
0, 0
0, 0
0, 0
0, 0
0, 0
0, 0
0, 0
0, 0
0, 0
0, 0
0, 0
0, 0
0, 0
0, 0
0, 0
0, 0
0, 0
0, 0
0, 0
0, 0
0, 0
0, 0
0, 0
0, 0
0, 0
0, 0
0, 0
0, 0
0, 0
0, 0
0, 0
0, 0
0, 0
0, 0
0, 0
0, 0
0, 0
0, 0
0, 0
1, 0
0, 0
0, 0
0, 0
0, 0
0, 0
0, 0
0, 0
0, 0
0, 0
0, 0
0, 0
0, 0
0, 0
0, 0
0, 0
0, 0
0, 0
0, 0
0, 0
0, 0
0, 0
0, 0
0, 0
0, 0
0, 0
0, 0
0, 0
0, 0
0, 0
0, 0
0, 0
0, 0
0, 0
0, 0
0, 0
0, 0
0, 0
0, 0
0, 0
0, 0
0, 0
0, 0
0, 0
0, 0
0, 0
0, 0
0, 0
0, 0
0, 0
0, 0
0, 0
0, 0
0, 0
0, 0
0, 0
0, 0
0, 0
0, 0
0, 0
0, 0
0, 0
0, 0
0, 0
0, 0
0, 0
0, 0
0, 0
0, 0
0, 0
0, 0
0, 0
0, 0
0, 0
0, 0
0, 0
0, 0
0, 0
0, 0
0, 0
0, 0
0, 0
0, 0
0, 0
0, 0
0, 0
0, 0
0, 0
0, 0
0, 0
0, 0
0, 0
0, 0
0, 0
0, 0
0, 0
0, 0
0, 0
0, 0
0, 0
0, 0
0, 0
0, 0
0, 0
0, 0
0, 0
0, 0
0, 0
0, 0
0, 0
0, 0
0, 0
0, 0
0, 0
0, 0
0, 0
0, 0
0, 0
0, 0
0, 0
0, 0
0, 0
0, 0
0, 0
0, 0
0, 0
0, 0
0, 0
0, 0
0, 0
0, 0
0, 0
0, 0
0, 0
0, 0
0, 0
0, 0
0, 0
0, 0
0, 0
0, 0
0, 0
0, 0
0, 0
0, 0
0, 0
0, 0
0, 0
0, 0
0, 0
0, 0
0, 0
0, 0
0, 0
0, 0
0, 0
0, 0
0, 0
0, 0
0, 0
0, 0
0, 0
0, 0
0, 0
0, 0
0, 0
0, 0
0, 0
0, 0
0, 0
0, 0
0, 0
0, 0
0, 0
0, 0
0, 0
0, 0
0, 0
0, 0
0, 0
0, 0
0, 0
0, 0
0, 0
0, 0
0, 0
0, 0
0, 0
0, 0
0, 0
0, 0
0, 0
0, 0
0, 0
0, 0
0, 0
0, 0
0, 0
0, 0
0, 0
0, 0
0, 0
0, 0
0, 0
0, 0
0, 0
0, 0
0, 0
0, 0
0, 0
0, 0
0, 0
0, 0
0, 0
0, 0
0, 0
0, 0
0, 0
0, 0
0, 0
0, 0
0, 0
0, 0
0, 0
0, 0
0, 0
0, 0
0, 0
0, 0
0, 0
0, 0
0, 0
0, 0
0, 0
0, 0
0, 0
0, 0
0, 0
0, 0
0, 0
0, 0
0, 0
0, 0
0, 0
0, 0
0, 0
0, 0
0, 0
0, 0
0, 0
0, 0
0, 0
0, 0
0, 0
0, 0
0, 0
0, 0
0, 0
0, 0
0, 0
0, 0
0, 0
0, 0
0, 0
0, 0
0, 0
0, 0
0, 0
#ENDOFDATA     end of spectrum data