File: host_upload/06-09-2024/ps_0852/dump3/ps__0852shot_2435.msa
#FORMAT      : EMSA/MAS spectral data file
#VERSION     : TC202v2.0 PIXL
#TITLE       : N/A
#DATE        :       Date in the format DD-MMM-YYYY, for example 07-JUL-2010
#TIME        :             The time of day at which the spectrum was recorded, in 24-hour format
#OWNER       : PIXL Flight Model       (PIXL will use this to indicate which instrument took the data.)
#NPOINTS     : 4096     Number of data points in the spectrum (This can be zero for configuration only files)
#NCOLUMNS    : 2     Number of data columns in the spectrum (This can be zero for configuration only files)
#XUNITS      : eV
#YUNITS      : COUNTS
#DATATYPE    : YY
#XPERCHAN    : 7.862, 7.881   eV per channel (separate by commas if more than one detector)
#OFFSET      : 18.5, -22.4         eV of first channel  (separate by commas if more than one detector
#SIGNALTYPE  : XRF
#YP_TEMP     : 2.203
#LIVETIME    : 8.5606, 8.53793   seconds (separate by commas if more than one detector)
#REALTIME    : 10, 10.0   seconds (separate by commas if more than one detector)
#SPECTRUM    : start of spectrum data
0, 0
0, 0
0, 0
0, 0
0, 0
0, 0
0, 0
0, 0
0, 0
0, 0
0, 0
0, 0
0, 0
0, 0
0, 0
0, 0
0, 0
0, 0
0, 0
0, 0
0, 0
0, 0
0, 0
0, 0
0, 0
0, 0
0, 0
0, 0
0, 0
0, 0
0, 0
0, 0
0, 0
1, 0
1, 0
0, 0
0, 1
0, 4
0, 0
1, 2
0, 0
3, 2
0, 2
2, 0
1, 2
2, 1
0, 1
2, 0
3, 8
13, 6
21, 24
38, 35
52, 62
76, 74
94, 65
73, 74
57, 54
33, 32
25, 27
13, 13
7, 8
6, 3
4, 1
5, 7
5, 3
4, 4
3, 10
3, 11
18, 23
56, 49
101, 119
184, 198
299, 298
401, 391
457, 459
452, 443
390, 391
332, 323
193, 192
122, 118
67, 76
58, 35
16, 19
15, 13
10, 5
4, 4
4, 4
4, 3
4, 3
1, 1
1, 2
0, 2
0, 2
6, 2
2, 4
9, 6
14, 9
16, 15
22, 20
12, 13
14, 13
11, 14
7, 12
5, 14
4, 17
2, 8
5, 10
9, 13
10, 10
17, 15
15, 14
21, 28
26, 38
37, 45
36, 34
33, 49
23, 31
26, 35
27, 33
29, 25
19, 20
24, 17
12, 22
11, 15
15, 14
9, 17
12, 9
14, 11
9, 13
8, 5
9, 5
4, 6
2, 8
2, 4
4, 2
2, 1
2, 2
4, 3
8, 2
1, 2
2, 3
2, 0
3, 2
3, 6
2, 4
2, 2
0, 2
2, 2
8, 4
3, 5
16, 15
14, 26
28, 31
68, 58
103, 99
124, 139
164, 180
185, 171
172, 181
130, 145
101, 116
78, 74
48, 51
36, 32
18, 22
12, 9
16, 17
12, 13
20, 21
20, 25
23, 32
23, 36
27, 28
20, 23
21, 17
9, 8
13, 13
11, 8
6, 9
1, 4
6, 2
2, 7
6, 3
4, 4
3, 4
6, 4
4, 4
3, 4
6, 9
7, 4
3, 13
9, 15
6, 12
12, 15
12, 31
11, 30
21, 32
24, 37
20, 38
30, 32
43, 35
18, 19
33, 24
45, 12
43, 11
36, 18
36, 8
27, 9
20, 9
15, 15
11, 9
14, 6
12, 12
10, 6
6, 12
12, 8
15, 7
6, 1
12, 7
10, 3
8, 4
9, 7
10, 11
6, 8
5, 5
8, 12
16, 7
21, 27
20, 16
19, 25
28, 25
21, 30
21, 24
15, 12
13, 18
14, 9
5, 15
7, 9
8, 10
6, 6
10, 5
8, 9
10, 8
11, 8
21, 28
28, 23
38, 46
47, 41
47, 61
67, 70
66, 60
78, 70
75, 64
58, 62
47, 38
36, 32
24, 20
21, 24
22, 21
17, 15
21, 25
37, 37
32, 56
71, 85
165, 184
272, 322
421, 511
711, 783
984, 1201
1411, 1638
1764, 1947
2077, 2187
2171, 2358
2162, 2191
1913, 1784
1575, 1391
1190, 1029
813, 694
497, 415
340, 237
173, 131
120, 53
69, 44
59, 18
47, 12
56, 11
73, 11
60, 18
66, 12
67, 16
74, 34
81, 38
69, 52
87, 89
96, 101
147, 172
197, 207
257, 283
276, 342
301, 328
341, 344
309, 301
287, 249
240, 209
180, 152
106, 112
84, 69
44, 37
31, 12
18, 18
12, 5
11, 7
4, 7
9, 12
15, 13
21, 9
13, 12
12, 13
17, 17
15, 14
13, 6
16, 12
14, 9
13, 8
4, 6
7, 7
5, 13
6, 8
5, 4
3, 3
1, 5
7, 3
6, 10
6, 6
0, 6
2, 10
1, 7
3, 5
3, 5
1, 8
6, 8
1, 7
2, 4
2, 5
6, 7
8, 4
8, 5
6, 6
9, 2
6, 7
10, 8
4, 9
6, 6
13, 8
2, 7
9, 9
9, 11
10, 4
10, 8
6, 6
11, 6
5, 9
7, 7
5, 7
7, 7
6, 6
4, 3
7, 3
7, 7
4, 5
3, 5
6, 6
0, 7
5, 4
7, 2
6, 4
5, 3
6, 7
1, 9
2, 7
3, 3
3, 7
2, 9
7, 8
7, 3
3, 6
6, 6
3, 7
4, 5
1, 6
3, 10
4, 6
1, 17
4, 20
4, 16
3, 20
5, 13
3, 17
5, 22
4, 17
2, 10
10, 13
3, 8
6, 7
9, 3
1, 3
6, 4
8, 2
6, 3
3, 1
2, 3
3, 2
2, 2
7, 6
7, 3
9, 4
8, 4
8, 5
11, 2
7, 2
10, 3
6, 5
8, 2
2, 5
6, 1
4, 4
6, 7
4, 3
4, 2
2, 5
8, 4
2, 0
1, 1
3, 4
1, 4
2, 3
8, 6
4, 5
5, 2
4, 4
6, 7
2, 3
3, 2
1, 1
4, 3
1, 5
3, 4
3, 4
1, 1
2, 4
3, 3
6, 2
0, 5
2, 4
0, 2
1, 6
3, 2
2, 6
4, 4
1, 3
1, 1
1, 1
2, 7
2, 0
6, 2
0, 2
6, 2
0, 0
4, 4
2, 2
6, 0
5, 0
1, 5
3, 1
8, 4
2, 0
2, 3
4, 3
1, 2
3, 7
5, 0
2, 2
4, 2
0, 1
2, 2
2, 0
5, 4
4, 5
1, 4
2, 1
3, 5
0, 5
3, 0
1, 0
2, 3
3, 4
2, 4
2, 1
3, 2
2, 3
1, 3
2, 4
1, 1
5, 5
3, 4
1, 0
4, 4
4, 6
0, 2
5, 5
2, 1
2, 1
2, 3
6, 0
3, 5
3, 1
1, 3
2, 2
2, 2
0, 2
2, 3
1, 3
2, 4
3, 4
2, 4
2, 2
0, 4
3, 2
2, 4
2, 1
1, 2
3, 1
4, 5
3, 2
1, 0
3, 0
0, 3
1, 1
4, 5
3, 3
2, 5
1, 0
2, 3
3, 3
3, 4
5, 6
3, 4
3, 3
4, 3
1, 5
4, 2
1, 1
2, 2
1, 1
0, 0
3, 2
0, 1
1, 1
3, 4
1, 0
0, 0
1, 0
2, 2
3, 0
1, 1
2, 1
1, 1
2, 4
1, 2
2, 2
3, 3
1, 0
3, 0
1, 1
4, 0
3, 0
2, 1
1, 0
2, 1
2, 2
0, 2
2, 1
2, 2
2, 0
1, 0
1, 1
1, 2
2, 3
1, 0
1, 3
2, 4
1, 0
4, 2
0, 2
3, 2
0, 0
4, 0
1, 1
0, 0
4, 3
1, 2
2, 1
1, 0
0, 1
0, 1
2, 1
1, 0
2, 2
0, 2
1, 1
1, 0
0, 0
0, 0
1, 1
2, 1
0, 3
1, 0
1, 0
2, 1
0, 0
1, 0
2, 0
1, 0
2, 1
2, 2
0, 2
0, 2
0, 1
2, 1
0, 0
0, 2
0, 0
0, 0
0, 1
0, 0
2, 0
1, 0
1, 0
0, 1
2, 1
1, 0
0, 2
1, 1
0, 0
0, 1
3, 0
1, 0
0, 0
1, 3
2, 1
0, 1
2, 1
0, 1
1, 0
0, 2
1, 0
0, 1
1, 1
2, 1
0, 0
0, 2
0, 1
2, 0
0, 0
2, 1
0, 0
0, 2
1, 0
1, 0
0, 0
0, 0
0, 1
0, 1
1, 1
2, 1
1, 1
0, 0
2, 0
1, 0
0, 1
1, 1
0, 1
0, 0
0, 0
1, 1
1, 0
1, 1
0, 0
0, 0
1, 0
0, 0
0, 0
0, 0
1, 1
0, 0
1, 0
0, 0
2, 0
0, 0
0, 1
1, 0
1, 0
0, 2
0, 0
0, 0
0, 0
0, 0
2, 0
0, 0
0, 0
0, 1
1, 1
1, 0
1, 0
1, 0
0, 0
1, 0
0, 1
0, 0
2, 1
0, 0
0, 0
0, 1
0, 1
1, 2
0, 1
0, 0
0, 0
0, 0
1, 0
0, 1
1, 1
0, 0
0, 0
0, 0
0, 0
1, 0
0, 1
0, 0
0, 0
0, 0
0, 0
0, 1
0, 0
0, 0
0, 0
0, 0
0, 1
0, 0
0, 0
0, 0
0, 0
1, 1
0, 0
0, 0
0, 0
1, 0
0, 0
0, 0
0, 0
0, 1
0, 0
0, 0
0, 1
0, 0
0, 0
0, 1
1, 0
0, 1
0, 0
1, 0
0, 0
0, 0
0, 0
0, 1
2, 0
0, 0
1, 0
0, 0
1, 1
0, 2
0, 1
0, 0
0, 0
0, 0
0, 0
0, 0
1, 0
0, 1
0, 0
0, 0
1, 0
0, 0
0, 0
0, 0
0, 1
0, 1
0, 1
0, 0
0, 0
0, 0
0, 0
0, 0
0, 0
1, 0
0, 0
0, 2
0, 0
0, 1
0, 1
0, 0
0, 0
0, 0
0, 0
1, 0
0, 0
0, 0
0, 1
0, 0
0, 0
0, 0
0, 0
0, 1
0, 0
0, 0
0, 0
0, 0
0, 0
0, 1
0, 0
0, 0
0, 0
0, 0
1, 0
0, 0
0, 1
1, 0
2, 0
0, 0
0, 0
0, 0
0, 0
1, 0
0, 0
0, 0
0, 0
0, 1
0, 0
0, 0
0, 0
0, 1
0, 0
0, 0
0, 0
1, 0
0, 1
0, 0
0, 1
0, 0
0, 1
0, 0
0, 0
0, 0
0, 0
0, 0
0, 0
1, 0
0, 1
0, 0
0, 0
0, 1
0, 0
0, 0
0, 0
0, 0
0, 0
0, 0
1, 0
0, 0
0, 0
0, 0
0, 0
0, 1
0, 0
0, 0
0, 0
0, 0
0, 0
0, 0
0, 0
0, 0
0, 0
0, 0
0, 0
0, 0
0, 0
0, 0
0, 0
0, 0
0, 0
0, 0
0, 0
0, 0
0, 0
0, 0
0, 0
0, 0
0, 0
0, 0
1, 0
0, 0
0, 0
0, 0
0, 0
0, 0
0, 1
0, 0
0, 0
0, 0
0, 0
0, 0
0, 0
0, 0
0, 0
0, 0
0, 0
0, 0
0, 0
0, 0
0, 0
0, 0
0, 0
0, 0
0, 0
0, 0
0, 0
0, 0
0, 1
0, 0
0, 0
0, 1
0, 0
0, 0
0, 0
0, 0
0, 0
0, 0
0, 0
0, 0
0, 0
0, 0
0, 0
0, 0
0, 0
0, 0
0, 0
0, 0
0, 0
0, 0
0, 0
0, 0
0, 0
0, 0
0, 0
0, 0
0, 0
0, 1
0, 0
0, 1
0, 0
0, 0
0, 0
0, 0
0, 0
0, 0
0, 0
0, 0
0, 0
0, 0
0, 0
0, 0
0, 0
0, 0
0, 0
0, 0
0, 0
0, 0
0, 0
0, 0
0, 0
0, 0
0, 0
0, 0
0, 0
0, 0
0, 0
0, 0
0, 0
0, 0
0, 0
0, 0
0, 0
0, 0
0, 0
0, 0
0, 0
0, 0
0, 0
0, 0
0, 0
0, 0
0, 0
0, 0
0, 0
0, 0
0, 0
0, 0
0, 0
0, 0
0, 0
0, 0
0, 0
0, 0
0, 0
0, 0
0, 0
0, 0
0, 0
0, 0
0, 0
0, 0
0, 0
0, 0
0, 0
0, 0
0, 0
0, 0
0, 0
0, 0
0, 0
0, 0
0, 0
0, 0
0, 0
0, 0
0, 0
0, 0
0, 0
0, 0
0, 0
0, 0
0, 0
0, 0
0, 0
0, 0
1, 0
0, 0
0, 0
0, 0
0, 0
0, 0
0, 0
0, 0
0, 0
0, 0
0, 0
0, 0
0, 0
0, 0
0, 0
0, 0
0, 0
0, 0
0, 0
0, 0
0, 0
0, 0
0, 0
0, 0
0, 0
0, 0
0, 0
0, 0
0, 0
0, 0
0, 0
0, 0
0, 0
0, 0
0, 0
0, 0
0, 0
0, 0
0, 0
0, 0
0, 0
0, 0
0, 0
0, 0
0, 0
0, 0
0, 0
0, 0
0, 0
0, 0
0, 0
0, 0
0, 0
0, 0
0, 0
0, 0
0, 0
0, 0
0, 0
0, 0
0, 0
0, 0
0, 0
0, 0
0, 0
0, 0
0, 0
0, 0
0, 0
0, 0
0, 0
0, 0
0, 0
0, 0
0, 0
0, 0
0, 0
0, 0
0, 0
0, 0
0, 0
0, 0
0, 0
0, 0
0, 0
0, 0
0, 0
0, 0
0, 0
0, 0
0, 0
0, 0
0, 0
0, 0
0, 0
0, 0
0, 0
0, 0
0, 0
0, 0
0, 0
0, 0
0, 0
0, 0
0, 0
0, 0
0, 0
0, 0
0, 0
0, 0
0, 0
0, 0
0, 0
0, 0
0, 0
0, 0
0, 0
0, 0
0, 0
0, 0
0, 0
0, 0
0, 0
0, 0
0, 0
0, 0
0, 0
0, 0
0, 0
0, 0
0, 0
0, 0
0, 0
0, 0
0, 0
0, 0
0, 0
0, 0
0, 0
0, 0
0, 0
0, 0
0, 0
0, 0
0, 0
0, 0
0, 0
0, 0
0, 0
0, 0
0, 0
0, 0
0, 0
0, 0
0, 0
0, 0
0, 0
0, 0
0, 0
0, 0
0, 0
0, 0
0, 0
0, 0
0, 0
0, 0
0, 0
0, 0
0, 0
0, 0
0, 0
0, 0
0, 0
0, 0
0, 0
0, 0
0, 0
0, 0
0, 0
0, 0
0, 0
0, 0
0, 0
0, 0
0, 0
0, 0
0, 0
0, 0
0, 0
0, 0
0, 0
0, 0
0, 0
0, 0
0, 0
0, 0
0, 0
0, 0
0, 0
0, 0
0, 0
0, 0
0, 0
0, 0
0, 0
0, 0
0, 0
0, 0
0, 0
0, 0
0, 0
0, 0
0, 0
0, 0
0, 0
0, 0
0, 0
0, 0
0, 0
0, 0
0, 0
0, 0
0, 0
0, 0
0, 0
0, 0
0, 0
0, 0
0, 0
0, 0
0, 0
0, 0
0, 0
0, 0
0, 0
0, 0
0, 0
0, 0
0, 0
0, 0
0, 0
0, 0
0, 0
0, 0
0, 0
0, 0
0, 0
0, 0
0, 0
0, 0
0, 0
0, 0
0, 0
0, 0
0, 0
0, 0
0, 0
0, 0
0, 0
0, 0
0, 0
0, 0
0, 0
0, 0
0, 0
0, 0
0, 0
0, 0
0, 0
0, 0
0, 0
0, 0
0, 0
0, 0
0, 0
0, 0
0, 0
0, 0
0, 0
0, 0
0, 0
0, 0
0, 0
0, 0
0, 0
0, 0
0, 0
0, 0
0, 0
0, 0
0, 0
0, 0
0, 0
0, 0
0, 0
0, 0
0, 0
0, 0
0, 0
0, 0
0, 0
0, 0
0, 0
0, 0
0, 0
0, 0
0, 0
0, 0
0, 0
0, 0
0, 0
#ENDOFDATA     end of spectrum data