File: host_upload/06-09-2024/ps_0852/dump3/ps__0852shot_2304.msa
#FORMAT      : EMSA/MAS spectral data file
#VERSION     : TC202v2.0 PIXL
#TITLE       : N/A
#DATE        :       Date in the format DD-MMM-YYYY, for example 07-JUL-2010
#TIME        :             The time of day at which the spectrum was recorded, in 24-hour format
#OWNER       : PIXL Flight Model       (PIXL will use this to indicate which instrument took the data.)
#NPOINTS     : 4096     Number of data points in the spectrum (This can be zero for configuration only files)
#NCOLUMNS    : 2     Number of data columns in the spectrum (This can be zero for configuration only files)
#XUNITS      : eV
#YUNITS      : COUNTS
#DATATYPE    : YY
#XPERCHAN    : 7.862, 7.881   eV per channel (separate by commas if more than one detector)
#OFFSET      : 18.5, -22.4         eV of first channel  (separate by commas if more than one detector
#SIGNALTYPE  : XRF
#YP_TEMP     : 2.524
#LIVETIME    : 8.55227, 8.57241   seconds (separate by commas if more than one detector)
#REALTIME    : 10, 10.0   seconds (separate by commas if more than one detector)
#SPECTRUM    : start of spectrum data
0, 0
0, 0
0, 0
0, 0
0, 0
0, 0
0, 0
0, 0
0, 0
0, 0
0, 0
0, 0
0, 0
0, 0
0, 0
0, 0
0, 0
0, 0
0, 0
0, 0
0, 0
0, 0
0, 0
0, 0
0, 0
0, 0
0, 0
0, 0
0, 0
0, 0
0, 0
0, 0
0, 0
0, 0
0, 0
0, 0
0, 2
1, 0
2, 1
0, 1
1, 0
0, 0
0, 0
2, 1
2, 0
2, 0
4, 2
4, 6
5, 5
11, 20
23, 32
40, 32
57, 57
62, 74
73, 67
66, 69
57, 59
44, 36
29, 30
16, 18
9, 6
7, 4
8, 3
2, 2
5, 1
5, 4
4, 8
11, 12
19, 19
50, 40
106, 110
169, 187
314, 291
398, 375
454, 427
442, 415
412, 440
309, 289
207, 200
135, 136
69, 53
46, 42
21, 17
8, 15
8, 11
7, 3
0, 2
5, 3
2, 4
2, 2
0, 0
1, 1
0, 3
5, 2
2, 2
0, 6
5, 3
2, 8
1, 2
8, 1
4, 2
2, 7
4, 2
2, 6
5, 5
2, 8
5, 3
7, 8
10, 11
8, 10
13, 11
35, 32
36, 23
38, 33
68, 53
51, 39
61, 47
59, 34
58, 25
65, 27
52, 24
57, 22
52, 15
38, 16
35, 19
22, 12
18, 13
16, 8
7, 11
9, 11
5, 4
6, 6
0, 4
4, 0
2, 3
1, 4
1, 3
3, 5
2, 1
4, 5
1, 3
1, 1
1, 0
2, 1
4, 6
3, 3
3, 1
2, 4
3, 8
12, 6
18, 17
29, 29
47, 63
76, 99
123, 148
198, 218
201, 228
244, 270
180, 230
222, 202
162, 164
107, 88
75, 75
37, 44
24, 22
20, 17
19, 15
19, 19
21, 29
25, 36
35, 30
45, 38
45, 42
36, 31
27, 23
18, 14
18, 11
9, 7
15, 12
8, 8
4, 8
10, 7
6, 4
2, 6
3, 2
6, 3
2, 10
3, 9
12, 11
8, 10
13, 16
11, 15
20, 10
20, 8
16, 20
15, 15
17, 16
16, 18
14, 11
11, 13
18, 7
17, 11
11, 7
13, 1
6, 6
6, 6
8, 3
16, 4
20, 7
18, 2
22, 5
23, 9
24, 9
18, 9
14, 5
8, 2
16, 5
12, 6
1, 4
13, 6
8, 5
7, 6
8, 4
11, 13
9, 13
11, 15
23, 20
32, 26
26, 43
20, 40
36, 34
35, 35
27, 32
35, 28
20, 23
26, 23
18, 16
32, 20
28, 15
20, 15
18, 12
25, 13
20, 19
17, 22
23, 28
31, 31
41, 31
50, 36
60, 57
67, 56
61, 63
76, 56
66, 62
58, 40
48, 35
37, 26
23, 22
19, 15
16, 18
21, 27
22, 15
29, 31
51, 51
67, 91
112, 148
193, 272
369, 455
612, 730
900, 1073
1212, 1437
1493, 1741
1733, 1878
1863, 1928
1829, 1901
1535, 1577
1376, 1213
1000, 898
712, 577
423, 362
266, 201
150, 98
82, 57
30, 28
23, 30
17, 30
19, 22
13, 27
10, 31
14, 21
12, 31
11, 35
23, 40
47, 49
54, 66
79, 117
118, 160
163, 167
176, 251
252, 292
276, 260
277, 298
295, 279
232, 214
204, 166
157, 137
99, 88
78, 52
35, 26
19, 14
10, 11
15, 6
9, 8
9, 13
12, 19
6, 13
12, 14
11, 12
12, 12
13, 12
11, 11
13, 16
7, 10
6, 11
14, 12
6, 5
7, 11
6, 6
8, 4
7, 9
5, 3
8, 6
2, 4
5, 3
4, 10
4, 6
1, 7
6, 1
6, 3
4, 9
6, 6
7, 4
9, 3
5, 5
8, 8
9, 11
3, 5
9, 8
4, 9
7, 9
5, 8
12, 9
7, 10
9, 6
5, 7
5, 7
12, 5
12, 1
11, 3
7, 8
10, 4
12, 5
8, 4
8, 2
6, 6
5, 6
5, 4
6, 3
6, 4
3, 5
3, 13
5, 5
6, 6
4, 3
7, 4
7, 1
3, 6
6, 11
6, 6
6, 15
3, 15
3, 14
2, 17
4, 23
5, 25
6, 24
3, 19
4, 11
1, 18
6, 18
3, 13
8, 8
11, 10
4, 6
3, 6
1, 3
6, 10
8, 1
4, 9
2, 4
6, 5
2, 4
3, 8
2, 4
10, 6
4, 0
6, 2
3, 4
4, 3
6, 5
3, 2
3, 3
9, 1
4, 2
5, 7
7, 10
7, 4
5, 1
2, 10
10, 3
4, 5
2, 4
6, 4
4, 4
6, 7
3, 8
3, 4
0, 7
5, 2
7, 0
5, 3
3, 6
2, 3
1, 4
2, 5
4, 6
3, 4
5, 1
4, 6
6, 8
0, 6
5, 6
5, 4
2, 7
4, 2
5, 2
2, 2
5, 7
2, 2
3, 3
4, 3
1, 6
3, 3
5, 0
3, 2
4, 5
0, 5
2, 3
2, 1
2, 3
2, 3
4, 7
2, 2
4, 2
2, 3
4, 4
3, 0
2, 4
5, 3
2, 1
4, 7
3, 8
2, 4
4, 4
1, 2
2, 7
1, 2
7, 4
2, 3
4, 2
4, 2
1, 2
2, 4
6, 4
2, 4
4, 3
2, 1
3, 1
4, 2
3, 5
1, 4
3, 3
4, 3
2, 3
3, 1
1, 4
3, 2
3, 3
1, 1
2, 1
2, 2
4, 0
1, 2
5, 2
2, 1
2, 6
4, 1
4, 2
0, 0
6, 4
2, 4
0, 1
5, 4
3, 6
1, 0
1, 0
2, 3
2, 3
2, 0
2, 2
0, 0
3, 3
2, 3
2, 5
5, 2
4, 1
4, 2
2, 2
1, 1
4, 3
5, 1
2, 2
2, 3
6, 1
0, 4
2, 4
1, 2
4, 4
4, 5
2, 6
0, 4
2, 3
2, 7
3, 4
7, 3
4, 1
3, 5
1, 3
3, 4
2, 2
1, 3
1, 4
2, 1
2, 0
1, 0
2, 1
3, 2
0, 3
1, 2
2, 1
1, 1
1, 3
6, 3
1, 2
0, 1
2, 2
4, 2
4, 0
1, 2
1, 0
2, 2
2, 1
0, 1
2, 3
3, 4
1, 3
2, 0
1, 3
3, 0
0, 3
2, 5
1, 1
2, 1
0, 2
0, 2
1, 1
0, 1
1, 5
1, 2
0, 1
0, 2
0, 2
0, 1
0, 1
0, 1
0, 3
2, 1
1, 2
1, 0
0, 1
0, 2
1, 1
2, 2
2, 1
1, 2
1, 0
0, 0
0, 1
0, 0
2, 0
1, 0
2, 4
0, 0
0, 0
1, 0
0, 2
1, 2
2, 1
0, 1
0, 0
1, 1
0, 2
0, 1
1, 0
1, 0
0, 0
1, 2
0, 1
4, 0
1, 2
0, 2
2, 0
0, 2
1, 1
2, 0
0, 0
1, 2
0, 0
0, 2
0, 1
1, 0
1, 0
0, 1
1, 0
0, 1
0, 0
1, 1
1, 0
0, 1
1, 0
0, 1
2, 0
0, 0
3, 1
1, 2
3, 0
0, 2
0, 0
0, 0
1, 2
0, 0
0, 1
0, 0
1, 2
0, 4
0, 1
0, 1
0, 2
0, 1
1, 0
0, 0
0, 3
2, 0
1, 2
2, 1
1, 0
1, 1
0, 1
0, 0
2, 2
0, 0
1, 0
0, 0
0, 0
0, 1
1, 1
0, 0
0, 1
0, 0
0, 2
0, 0
1, 0
1, 0
0, 1
0, 0
1, 0
1, 1
0, 0
1, 0
1, 2
1, 2
0, 1
0, 2
0, 2
0, 0
0, 0
0, 0
0, 1
0, 1
1, 0
0, 1
0, 2
2, 1
1, 1
0, 0
2, 0
0, 0
0, 0
0, 1
1, 0
1, 0
0, 0
0, 1
0, 0
0, 0
0, 0
0, 0
0, 0
0, 0
0, 1
0, 0
0, 1
0, 1
0, 0
0, 0
1, 0
1, 0
0, 0
1, 0
0, 0
0, 0
0, 2
1, 0
0, 0
0, 0
0, 1
0, 0
0, 0
0, 0
0, 0
0, 0
0, 0
0, 0
0, 0
0, 1
0, 0
0, 0
0, 0
0, 0
0, 0
0, 0
0, 1
0, 0
0, 0
0, 0
1, 0
0, 0
0, 0
0, 3
0, 0
0, 0
1, 0
0, 0
0, 3
0, 0
0, 0
0, 1
0, 0
0, 0
1, 1
0, 1
0, 0
1, 0
1, 1
0, 0
1, 0
0, 0
0, 0
0, 0
0, 0
0, 1
0, 0
0, 0
0, 0
0, 0
0, 0
1, 1
0, 0
1, 0
0, 0
1, 0
0, 0
0, 0
0, 0
0, 1
2, 0
0, 0
0, 0
0, 1
0, 0
0, 1
0, 0
0, 0
0, 0
0, 0
0, 0
0, 0
0, 0
0, 0
0, 0
1, 1
0, 0
0, 0
0, 0
0, 0
0, 0
0, 1
1, 0
0, 0
0, 0
1, 0
0, 0
0, 0
0, 0
1, 0
1, 0
0, 0
0, 0
0, 0
0, 0
0, 1
0, 0
0, 0
0, 0
0, 0
0, 0
0, 0
0, 0
0, 0
0, 0
0, 0
0, 0
0, 0
0, 0
0, 0
1, 0
0, 1
1, 0
0, 1
1, 0
0, 0
0, 0
0, 0
0, 0
0, 0
0, 0
0, 0
0, 0
0, 0
0, 0
0, 0
0, 0
0, 0
0, 0
0, 0
0, 0
0, 0
2, 0
0, 0
0, 0
0, 0
0, 0
0, 0
0, 0
0, 1
0, 1
0, 0
0, 0
0, 0
0, 0
0, 0
1, 0
0, 0
0, 0
0, 0
0, 0
0, 0
0, 0
0, 0
0, 0
0, 0
0, 0
0, 0
0, 0
0, 0
0, 1
0, 0
0, 0
0, 0
0, 0
0, 0
0, 0
0, 0
0, 0
0, 0
0, 0
0, 0
0, 0
0, 0
0, 0
0, 0
0, 0
0, 0
0, 0
0, 0
0, 0
0, 0
0, 0
0, 0
0, 0
0, 0
0, 0
0, 0
0, 0
0, 0
0, 0
0, 0
0, 0
0, 0
0, 0
0, 0
0, 0
0, 0
0, 0
0, 0
0, 0
0, 0
0, 0
0, 0
0, 0
0, 0
0, 0
0, 0
0, 0
0, 0
0, 0
0, 0
0, 1
0, 0
0, 0
0, 0
0, 0
0, 0
0, 0
0, 0
0, 0
0, 0
0, 0
0, 0
0, 0
0, 0
0, 0
0, 0
0, 0
0, 0
0, 0
0, 0
0, 0
0, 0
0, 0
0, 0
0, 0
0, 0
0, 0
0, 0
0, 0
0, 0
0, 0
0, 0
0, 0
0, 0
0, 0
0, 0
0, 0
0, 0
0, 0
0, 1
0, 0
0, 0
0, 0
0, 0
0, 0
0, 0
0, 0
0, 0
0, 0
0, 0
0, 0
0, 0
0, 0
0, 0
0, 0
0, 0
0, 0
0, 0
0, 0
0, 0
0, 0
1, 0
0, 0
0, 0
0, 0
0, 0
0, 0
0, 0
0, 0
0, 0
0, 0
0, 0
0, 0
0, 1
0, 0
0, 0
0, 0
0, 0
0, 0
0, 0
0, 0
0, 0
0, 0
0, 0
0, 0
0, 0
0, 0
0, 0
0, 0
0, 0
0, 0
0, 0
0, 0
0, 0
0, 0
0, 0
0, 0
0, 0
0, 0
0, 0
0, 0
0, 0
0, 0
0, 0
0, 0
0, 0
0, 0
0, 0
0, 0
0, 0
0, 0
0, 0
0, 0
0, 0
0, 0
0, 0
0, 0
0, 0
0, 0
0, 0
0, 0
0, 0
0, 0
0, 0
0, 0
0, 0
0, 0
0, 0
0, 0
0, 0
0, 0
0, 0
0, 0
0, 0
0, 0
0, 0
0, 0
0, 0
0, 0
0, 0
0, 0
0, 0
0, 0
0, 0
0, 0
0, 0
0, 0
0, 0
0, 0
0, 0
0, 0
0, 0
0, 0
0, 0
0, 0
0, 0
0, 0
0, 0
0, 0
0, 0
0, 0
0, 0
0, 0
0, 0
0, 0
0, 0
0, 0
0, 0
0, 0
0, 0
0, 0
0, 0
0, 0
0, 0
0, 0
0, 0
0, 0
0, 0
0, 0
0, 0
0, 0
0, 0
0, 0
0, 0
0, 0
0, 0
0, 0
0, 0
0, 0
0, 0
0, 0
0, 0
0, 0
0, 0
0, 0
0, 0
0, 0
0, 0
0, 0
0, 0
0, 0
0, 0
0, 0
0, 0
0, 0
0, 0
0, 0
0, 0
0, 0
0, 0
0, 0
0, 0
0, 0
0, 0
0, 0
0, 0
0, 0
0, 0
0, 0
0, 0
0, 0
0, 0
0, 0
0, 0
0, 0
0, 0
0, 0
0, 0
0, 0
0, 0
0, 0
0, 0
0, 0
0, 0
0, 0
0, 0
0, 0
0, 0
0, 0
0, 0
0, 0
0, 0
0, 0
0, 0
0, 0
0, 0
0, 0
0, 0
0, 0
0, 0
0, 0
0, 0
0, 0
0, 0
0, 0
0, 0
0, 0
0, 0
0, 0
0, 0
0, 0
0, 0
0, 0
0, 0
0, 0
0, 0
0, 0
0, 0
0, 0
0, 0
0, 0
0, 0
0, 0
0, 0
0, 0
0, 0
0, 0
0, 0
0, 0
0, 0
0, 0
0, 0
0, 0
0, 0
0, 0
0, 0
0, 0
0, 0
0, 0
0, 0
0, 0
0, 0
0, 0
0, 0
0, 0
0, 0
0, 0
0, 0
0, 0
0, 0
0, 0
0, 0
0, 0
0, 0
0, 0
0, 0
0, 0
0, 0
0, 0
0, 0
0, 0
0, 0
0, 0
0, 0
0, 0
0, 0
0, 0
0, 0
0, 0
0, 0
0, 0
0, 0
0, 0
0, 0
0, 0
0, 0
0, 0
0, 0
0, 0
0, 0
0, 0
0, 0
0, 0
0, 0
0, 0
0, 0
0, 0
0, 0
0, 0
0, 0
0, 0
0, 0
0, 0
0, 0
0, 0
0, 0
0, 0
0, 0
0, 0
0, 0
0, 0
0, 0
0, 0
0, 0
0, 0
0, 0
0, 0
0, 0
0, 0
0, 0
0, 0
0, 0
0, 0
0, 0
0, 0
0, 0
0, 0
0, 0
0, 0
0, 0
0, 0
0, 0
0, 0
0, 0
0, 0
0, 0
0, 0
0, 0
0, 0
0, 0
0, 0
0, 0
0, 0
0, 0
0, 0
0, 0
0, 0
0, 0
0, 0
0, 0
0, 0
0, 0
0, 0
0, 0
0, 0
0, 0
0, 0
0, 0
0, 0
0, 0
0, 0
0, 0
0, 0
0, 0
0, 0
0, 0
0, 0
0, 0
0, 0
0, 0
#ENDOFDATA     end of spectrum data