File: host_upload/06-09-2024/ps_0852/dump3/ps__0852shot_2456.msa
#FORMAT      : EMSA/MAS spectral data file
#VERSION     : TC202v2.0 PIXL
#TITLE       : N/A
#DATE        :       Date in the format DD-MMM-YYYY, for example 07-JUL-2010
#TIME        :             The time of day at which the spectrum was recorded, in 24-hour format
#OWNER       : PIXL Flight Model       (PIXL will use this to indicate which instrument took the data.)
#NPOINTS     : 4096     Number of data points in the spectrum (This can be zero for configuration only files)
#NCOLUMNS    : 2     Number of data columns in the spectrum (This can be zero for configuration only files)
#XUNITS      : eV
#YUNITS      : COUNTS
#DATATYPE    : YY
#XPERCHAN    : 7.862, 7.881   eV per channel (separate by commas if more than one detector)
#OFFSET      : 18.5, -22.4         eV of first channel  (separate by commas if more than one detector
#SIGNALTYPE  : XRF
#YP_TEMP     : 2.332
#LIVETIME    : 8.51593, 8.56157   seconds (separate by commas if more than one detector)
#REALTIME    : 10, 10.0   seconds (separate by commas if more than one detector)
#SPECTRUM    : start of spectrum data
0, 0
0, 0
0, 0
0, 0
0, 0
0, 0
0, 0
0, 0
0, 0
0, 0
0, 0
0, 0
0, 0
0, 0
0, 0
0, 0
0, 0
0, 0
0, 0
0, 0
0, 0
0, 0
0, 0
0, 0
0, 0
0, 0
0, 0
0, 0
0, 0
0, 1
0, 0
1, 0
0, 0
0, 0
0, 1
0, 0
0, 0
1, 0
0, 3
1, 0
0, 0
1, 1
0, 2
1, 2
1, 4
3, 2
1, 2
3, 5
5, 6
16, 5
19, 18
41, 29
62, 49
60, 68
72, 76
64, 64
57, 45
29, 36
28, 19
20, 14
8, 6
4, 7
1, 3
2, 4
6, 6
7, 2
7, 4
9, 12
19, 19
52, 57
106, 118
190, 174
299, 296
397, 360
475, 470
504, 441
442, 344
322, 291
237, 188
129, 127
99, 59
42, 40
23, 18
11, 13
6, 1
4, 3
3, 1
2, 2
1, 1
2, 4
1, 1
5, 1
12, 10
14, 12
25, 21
28, 32
48, 51
68, 75
72, 57
81, 63
79, 71
60, 53
35, 36
30, 24
15, 14
11, 12
16, 10
17, 12
18, 19
23, 25
24, 24
38, 41
53, 54
45, 40
41, 57
51, 38
51, 29
45, 39
39, 32
21, 25
35, 32
13, 22
19, 25
14, 18
9, 22
20, 21
14, 13
7, 10
8, 13
10, 5
9, 1
3, 3
6, 4
5, 5
4, 0
8, 4
5, 2
2, 2
0, 2
2, 4
7, 3
5, 4
6, 5
4, 2
6, 1
6, 2
7, 2
6, 5
11, 4
14, 6
19, 4
32, 17
37, 31
60, 52
88, 84
113, 102
161, 138
146, 127
134, 116
126, 98
107, 101
75, 70
54, 59
30, 42
15, 40
9, 31
8, 31
14, 27
12, 31
15, 30
28, 30
15, 34
31, 21
20, 17
18, 18
14, 14
8, 9
6, 4
6, 7
6, 4
4, 6
3, 4
2, 3
1, 3
2, 3
5, 4
5, 7
3, 6
6, 9
8, 12
10, 17
11, 21
10, 20
10, 48
12, 29
12, 30
15, 36
16, 37
8, 24
18, 18
14, 11
4, 11
12, 11
9, 8
7, 3
5, 6
6, 14
10, 4
10, 9
6, 11
13, 17
8, 14
8, 18
6, 10
7, 14
8, 13
9, 17
7, 16
4, 13
3, 11
3, 3
7, 8
9, 4
11, 17
6, 16
9, 21
12, 26
19, 44
22, 38
23, 56
19, 43
23, 37
18, 27
12, 23
15, 30
16, 27
10, 22
9, 21
8, 11
6, 20
5, 12
6, 14
8, 17
8, 22
10, 17
22, 27
18, 29
30, 27
39, 51
53, 57
51, 64
61, 57
67, 58
43, 39
40, 34
34, 23
30, 27
32, 19
17, 10
18, 17
21, 18
23, 22
44, 56
92, 101
147, 167
249, 290
430, 487
686, 830
1065, 1156
1562, 1533
1841, 1888
2135, 2098
2300, 2148
2132, 2035
1972, 1723
1657, 1391
1300, 989
851, 683
553, 413
340, 240
165, 109
102, 51
57, 37
38, 26
36, 17
23, 12
16, 5
15, 15
19, 14
21, 23
23, 21
41, 28
51, 50
85, 96
121, 123
165, 160
188, 176
275, 276
282, 295
361, 357
341, 304
315, 263
278, 239
246, 206
180, 145
129, 103
86, 60
43, 40
27, 24
10, 15
16, 5
5, 5
9, 6
11, 11
5, 7
14, 8
16, 16
11, 9
9, 12
17, 8
10, 12
11, 11
11, 3
8, 4
6, 5
5, 9
12, 7
5, 3
3, 10
6, 8
7, 5
7, 10
2, 7
4, 4
3, 1
2, 3
1, 7
3, 5
3, 3
4, 7
1, 6
3, 1
3, 6
4, 11
6, 3
4, 10
5, 6
5, 6
5, 11
6, 5
6, 6
6, 7
4, 17
4, 11
4, 10
5, 5
1, 14
5, 10
6, 19
4, 19
2, 15
6, 11
5, 8
7, 9
6, 8
4, 5
11, 3
3, 5
4, 5
6, 2
6, 5
7, 3
6, 4
6, 6
10, 1
8, 7
13, 4
7, 2
10, 0
4, 4
6, 3
2, 2
7, 3
3, 1
2, 5
2, 4
7, 4
6, 6
5, 5
1, 2
0, 4
1, 4
5, 11
8, 3
3, 4
7, 5
6, 5
8, 4
4, 3
11, 5
6, 6
1, 7
7, 2
7, 3
7, 3
8, 4
4, 3
4, 4
2, 2
7, 2
1, 4
3, 3
2, 2
3, 3
2, 2
4, 0
5, 9
2, 11
2, 6
1, 9
2, 8
3, 8
5, 2
6, 6
2, 7
3, 5
5, 3
1, 7
2, 9
2, 1
3, 0
4, 5
4, 0
1, 3
7, 3
1, 1
6, 1
9, 2
6, 0
7, 3
9, 3
14, 2
9, 2
8, 2
8, 4
2, 4
5, 2
8, 6
6, 2
2, 7
4, 2
2, 1
4, 4
4, 3
4, 4
2, 3
1, 3
3, 6
2, 3
2, 0
1, 4
2, 3
1, 2
1, 7
4, 2
3, 3
6, 0
6, 2
2, 3
4, 4
1, 4
4, 5
2, 2
3, 1
2, 4
3, 2
5, 0
3, 1
0, 3
2, 8
3, 1
1, 2
2, 2
4, 3
2, 3
3, 2
2, 2
3, 0
2, 4
4, 2
5, 2
3, 2
5, 1
5, 3
2, 2
2, 0
5, 3
3, 4
5, 2
6, 3
0, 4
7, 1
3, 4
5, 1
5, 3
2, 2
4, 1
11, 1
6, 2
2, 2
5, 2
5, 2
2, 2
4, 2
2, 0
2, 3
1, 2
1, 0
2, 3
2, 2
1, 3
2, 3
7, 2
2, 3
3, 3
0, 2
3, 0
2, 2
3, 2
1, 4
2, 2
4, 0
1, 1
1, 2
2, 0
4, 5
1, 3
1, 3
3, 1
0, 3
4, 2
5, 0
5, 4
3, 2
4, 1
7, 6
2, 3
2, 1
1, 0
6, 3
0, 5
0, 0
2, 1
5, 1
2, 0
1, 1
0, 2
2, 0
2, 5
2, 2
1, 0
0, 0
0, 1
4, 0
3, 5
2, 1
1, 4
0, 3
1, 0
2, 3
1, 3
2, 2
4, 5
2, 4
2, 2
0, 2
0, 2
2, 2
1, 0
2, 0
2, 0
0, 0
4, 0
0, 2
1, 0
2, 2
1, 1
0, 1
1, 1
2, 2
2, 1
2, 2
1, 0
0, 1
1, 0
1, 1
1, 0
2, 1
1, 0
2, 0
1, 0
0, 0
0, 0
0, 1
1, 0
1, 1
0, 0
3, 0
0, 0
1, 2
0, 2
0, 0
1, 0
2, 0
0, 2
2, 0
0, 0
0, 1
0, 0
0, 3
1, 1
1, 0
1, 1
1, 0
1, 1
1, 0
0, 0
3, 2
1, 1
0, 0
0, 0
1, 3
1, 1
0, 0
0, 1
0, 0
0, 0
1, 0
0, 0
0, 0
2, 1
1, 0
1, 0
2, 0
2, 0
0, 1
2, 1
0, 0
0, 4
0, 1
1, 1
0, 0
0, 0
0, 1
1, 1
0, 0
0, 0
1, 0
2, 1
0, 0
1, 1
0, 0
2, 1
1, 0
1, 0
0, 2
1, 0
0, 0
1, 0
1, 2
1, 0
0, 1
1, 0
1, 0
1, 1
2, 0
1, 0
0, 0
1, 0
0, 1
0, 0
0, 0
2, 1
0, 0
0, 0
1, 0
0, 1
0, 0
0, 0
1, 1
0, 0
1, 0
0, 0
0, 1
0, 1
1, 1
0, 2
0, 1
0, 1
1, 2
0, 1
1, 0
1, 0
1, 0
1, 0
0, 0
0, 0
0, 1
0, 0
1, 0
1, 1
0, 2
0, 1
1, 0
0, 0
0, 0
1, 0
0, 0
0, 1
0, 0
1, 0
0, 0
0, 0
0, 2
0, 0
0, 2
0, 1
1, 0
1, 2
0, 1
0, 0
1, 0
0, 0
1, 1
1, 2
1, 0
0, 0
0, 1
0, 0
1, 0
0, 0
1, 1
0, 1
0, 1
0, 0
0, 0
0, 0
0, 0
1, 0
0, 0
0, 0
1, 0
1, 1
0, 0
0, 0
1, 0
2, 0
1, 0
0, 0
0, 0
0, 0
0, 0
1, 1
0, 0
0, 0
0, 0
0, 0
0, 0
0, 0
0, 0
1, 2
0, 0
0, 0
0, 0
0, 0
0, 0
0, 0
1, 0
0, 0
0, 0
0, 0
0, 0
0, 0
0, 0
0, 0
1, 2
0, 1
1, 1
0, 0
0, 0
1, 1
1, 2
0, 0
0, 1
1, 0
0, 0
0, 0
1, 0
0, 0
0, 0
1, 0
0, 0
1, 0
0, 0
1, 0
0, 1
0, 1
0, 0
1, 0
0, 0
1, 1
0, 0
0, 0
0, 0
0, 0
0, 0
0, 0
0, 2
1, 1
0, 0
0, 0
1, 0
0, 0
1, 0
0, 0
0, 1
0, 0
0, 0
0, 0
0, 1
0, 0
0, 0
0, 0
0, 0
0, 0
1, 0
0, 0
0, 0
0, 0
0, 0
1, 0
0, 0
0, 0
0, 1
0, 0
0, 0
0, 0
0, 1
0, 0
0, 0
0, 0
0, 0
1, 0
0, 0
0, 0
1, 0
0, 0
0, 0
0, 0
0, 1
0, 0
0, 0
0, 0
0, 0
0, 0
0, 0
0, 0
0, 0
0, 0
1, 0
0, 0
0, 0
0, 0
0, 0
0, 0
1, 0
0, 0
0, 0
0, 0
0, 0
1, 0
0, 0
0, 0
1, 0
0, 0
0, 1
1, 0
0, 0
0, 0
0, 0
0, 0
0, 0
0, 0
0, 0
0, 0
0, 0
0, 0
0, 0
0, 1
0, 0
0, 0
0, 0
0, 0
1, 0
0, 1
0, 0
1, 0
0, 0
0, 0
0, 0
0, 0
0, 0
0, 0
0, 0
0, 0
0, 0
0, 0
0, 0
0, 0
0, 0
0, 1
0, 0
1, 0
0, 0
0, 0
0, 0
0, 0
0, 0
0, 0
0, 0
0, 0
0, 0
0, 0
0, 0
0, 1
0, 0
0, 0
0, 0
0, 0
0, 0
0, 0
0, 0
0, 0
0, 0
0, 0
0, 0
0, 0
0, 0
0, 0
0, 0
0, 0
0, 0
0, 0
0, 0
0, 0
0, 0
0, 0
1, 0
0, 0
0, 0
0, 0
0, 0
0, 0
0, 0
0, 0
0, 0
1, 0
0, 0
0, 0
0, 0
0, 0
0, 0
0, 0
0, 0
0, 0
0, 0
0, 0
0, 0
0, 0
0, 0
0, 0
0, 0
1, 0
0, 0
0, 0
0, 0
0, 0
0, 0
0, 0
0, 0
0, 0
0, 0
0, 0
0, 0
0, 0
0, 0
0, 0
0, 0
0, 0
0, 0
0, 0
0, 0
0, 0
0, 0
0, 0
0, 0
0, 0
0, 0
0, 0
0, 0
0, 0
0, 0
0, 0
0, 0
0, 0
0, 0
0, 0
0, 0
0, 0
0, 0
0, 0
0, 0
0, 0
0, 0
0, 0
0, 0
0, 0
0, 0
0, 0
0, 0
0, 0
0, 0
0, 0
0, 0
0, 0
0, 0
0, 0
0, 0
0, 0
0, 0
0, 0
0, 0
0, 0
0, 0
0, 0
0, 0
0, 0
0, 0
0, 0
0, 0
0, 0
0, 0
0, 0
0, 0
0, 0
0, 0
0, 0
0, 0
0, 0
0, 0
0, 0
0, 0
0, 0
0, 0
0, 0
0, 0
0, 0
0, 0
0, 0
0, 0
0, 0
0, 0
0, 0
0, 0
0, 0
0, 0
0, 0
0, 0
0, 0
0, 0
0, 0
0, 0
0, 0
0, 0
0, 0
0, 0
0, 0
0, 0
0, 0
0, 0
0, 0
0, 0
0, 0
0, 0
0, 0
0, 0
0, 0
0, 0
0, 0
0, 0
0, 0
0, 0
0, 0
0, 0
0, 0
0, 0
0, 0
0, 0
0, 0
0, 0
0, 0
0, 0
0, 0
0, 0
0, 0
0, 0
0, 0
0, 0
0, 0
0, 0
0, 0
0, 0
0, 0
0, 0
0, 0
0, 0
0, 0
0, 0
0, 0
0, 0
0, 0
0, 0
0, 0
0, 0
0, 0
0, 0
0, 0
0, 0
0, 0
0, 0
0, 0
0, 0
0, 0
0, 0
0, 0
0, 0
0, 0
0, 0
0, 0
0, 0
0, 0
0, 0
0, 0
0, 0
0, 0
0, 0
0, 0
0, 0
0, 0
0, 0
0, 0
0, 0
0, 0
0, 0
0, 0
0, 0
0, 0
0, 0
0, 0
0, 0
0, 0
0, 0
0, 0
0, 0
0, 0
0, 0
0, 0
0, 0
0, 0
0, 0
0, 0
0, 0
0, 0
0, 0
0, 0
0, 0
0, 0
0, 0
0, 0
0, 0
0, 0
0, 0
0, 0
0, 0
0, 0
0, 0
0, 0
0, 0
0, 0
0, 0
0, 0
0, 0
0, 0
0, 0
0, 0
0, 0
0, 0
0, 0
0, 0
0, 0
0, 0
0, 0
0, 0
0, 0
0, 0
0, 0
0, 0
0, 0
0, 0
0, 0
0, 0
0, 0
0, 0
0, 0
0, 0
0, 0
0, 0
0, 0
0, 0
0, 0
0, 0
0, 0
0, 0
0, 0
0, 0
0, 0
0, 0
0, 0
0, 0
0, 0
0, 0
0, 0
0, 0
0, 0
0, 0
0, 0
0, 0
0, 0
0, 0
0, 0
0, 0
0, 0
0, 0
0, 0
0, 0
0, 0
0, 0
0, 0
0, 0
0, 0
0, 0
0, 0
0, 0
0, 0
0, 0
0, 0
0, 0
0, 0
0, 0
0, 0
0, 0
0, 0
0, 0
0, 0
0, 0
0, 0
0, 0
0, 0
0, 0
0, 0
0, 0
0, 0
0, 0
0, 0
0, 0
0, 0
0, 0
0, 0
0, 0
0, 0
0, 0
0, 0
0, 0
0, 0
0, 0
0, 0
0, 0
0, 0
0, 0
0, 0
0, 0
0, 0
0, 0
0, 0
0, 0
0, 0
0, 0
0, 0
0, 0
0, 0
0, 0
0, 0
0, 0
0, 0
0, 0
0, 0
0, 0
0, 0
0, 0
0, 0
0, 0
0, 0
0, 0
0, 0
0, 0
0, 0
0, 0
0, 0
0, 0
0, 0
0, 0
0, 0
0, 0
0, 0
0, 0
0, 0
0, 0
0, 0
0, 0
0, 0
0, 0
0, 0
0, 0
0, 0
0, 0
0, 0
0, 0
0, 0
0, 0
0, 0
0, 0
0, 0
0, 0
0, 0
0, 0
0, 0
0, 0
0, 0
0, 0
0, 0
0, 0
0, 0
0, 0
0, 0
0, 0
0, 0
#ENDOFDATA     end of spectrum data