File: host_upload/06-09-2024/ps_0852/dump3/ps__0852shot_2280.msa
#FORMAT      : EMSA/MAS spectral data file
#VERSION     : TC202v2.0 PIXL
#TITLE       : N/A
#DATE        :       Date in the format DD-MMM-YYYY, for example 07-JUL-2010
#TIME        :             The time of day at which the spectrum was recorded, in 24-hour format
#OWNER       : PIXL Flight Model       (PIXL will use this to indicate which instrument took the data.)
#NPOINTS     : 4096     Number of data points in the spectrum (This can be zero for configuration only files)
#NCOLUMNS    : 2     Number of data columns in the spectrum (This can be zero for configuration only files)
#XUNITS      : eV
#YUNITS      : COUNTS
#DATATYPE    : YY
#XPERCHAN    : 7.862, 7.881   eV per channel (separate by commas if more than one detector)
#OFFSET      : 18.5, -22.4         eV of first channel  (separate by commas if more than one detector
#SIGNALTYPE  : XRF
#YP_TEMP     : 2.332
#LIVETIME    : 8.54823, 8.54672   seconds (separate by commas if more than one detector)
#REALTIME    : 10, 10.0   seconds (separate by commas if more than one detector)
#SPECTRUM    : start of spectrum data
0, 0
0, 0
0, 0
0, 0
0, 0
0, 0
0, 0
0, 0
0, 0
0, 0
0, 0
0, 0
0, 0
0, 0
0, 0
0, 0
0, 0
0, 0
0, 0
0, 0
0, 0
0, 0
0, 0
0, 0
0, 0
0, 0
0, 0
0, 0
0, 0
0, 0
0, 0
0, 0
0, 0
0, 0
0, 0
0, 0
0, 0
2, 0
1, 0
0, 2
0, 0
0, 0
0, 0
1, 0
0, 0
1, 2
1, 2
6, 4
9, 5
12, 14
20, 22
34, 55
64, 69
63, 89
79, 106
73, 87
68, 69
61, 55
19, 29
15, 15
10, 14
5, 5
3, 3
3, 4
1, 2
3, 7
3, 5
3, 7
16, 25
48, 52
96, 115
141, 210
231, 302
361, 401
376, 456
426, 491
341, 379
249, 326
159, 234
129, 122
56, 82
38, 40
22, 16
11, 3
5, 11
0, 3
5, 0
1, 0
1, 3
1, 1
0, 0
0, 3
0, 2
1, 0
2, 3
2, 2
2, 6
3, 9
4, 5
2, 6
1, 4
1, 1
2, 3
2, 3
1, 3
3, 4
2, 2
4, 2
6, 4
6, 4
9, 9
5, 17
14, 22
11, 22
23, 25
30, 25
22, 31
29, 26
25, 27
16, 24
15, 12
19, 17
16, 17
14, 13
12, 9
16, 11
8, 5
7, 9
5, 8
5, 4
7, 5
5, 1
5, 3
3, 4
2, 6
1, 2
2, 4
2, 2
1, 1
2, 3
2, 2
0, 1
0, 1
5, 1
4, 2
1, 0
0, 1
2, 4
1, 2
1, 1
1, 2
0, 3
4, 3
7, 5
4, 11
11, 14
12, 19
14, 18
21, 10
18, 8
12, 11
8, 4
2, 7
5, 5
1, 5
1, 4
3, 1
2, 5
1, 5
4, 11
1, 5
5, 2
4, 6
5, 7
5, 4
5, 4
7, 2
0, 7
4, 2
3, 4
0, 1
3, 4
1, 1
6, 0
0, 2
3, 3
1, 3
4, 2
2, 6
4, 8
3, 5
6, 7
5, 7
4, 10
6, 16
17, 12
12, 15
15, 10
7, 11
17, 16
6, 8
7, 8
5, 10
4, 4
2, 3
3, 3
4, 7
3, 4
4, 1
2, 4
6, 1
1, 2
3, 5
9, 4
0, 6
2, 6
4, 7
3, 4
4, 7
7, 7
3, 6
3, 9
3, 2
5, 7
7, 5
12, 10
18, 9
28, 8
36, 16
43, 11
74, 12
106, 18
104, 13
95, 9
113, 8
92, 10
82, 9
62, 3
36, 7
31, 5
21, 3
14, 11
9, 12
8, 11
17, 17
18, 18
31, 35
42, 41
74, 49
67, 63
87, 62
107, 74
96, 46
95, 53
92, 41
67, 34
52, 26
46, 24
25, 16
21, 24
25, 17
27, 32
48, 52
67, 119
152, 211
274, 387
433, 630
612, 935
1072, 1401
1402, 1799
1789, 2258
2054, 2444
2180, 2509
2132, 2317
2001, 2001
1582, 1612
1248, 1110
849, 739
582, 502
321, 285
184, 113
91, 77
56, 42
25, 27
26, 17
12, 19
17, 15
15, 11
17, 15
20, 16
21, 21
36, 39
42, 49
68, 80
101, 121
120, 188
184, 229
224, 273
294, 359
335, 394
313, 356
290, 331
262, 316
204, 220
168, 173
116, 136
68, 77
55, 41
34, 15
14, 10
12, 8
7, 2
6, 5
5, 11
7, 6
11, 10
12, 10
12, 22
16, 21
13, 12
9, 12
6, 8
11, 9
8, 6
8, 7
4, 3
3, 4
7, 7
4, 7
3, 9
3, 7
2, 12
4, 4
6, 12
5, 10
5, 11
8, 7
11, 8
13, 4
11, 5
9, 6
11, 4
4, 7
7, 6
6, 7
2, 5
3, 4
4, 5
5, 11
2, 7
3, 5
8, 7
1, 2
2, 5
3, 8
5, 4
5, 4
7, 4
9, 8
4, 6
7, 3
5, 3
4, 1
5, 3
3, 4
2, 3
9, 4
5, 4
10, 2
10, 5
7, 2
7, 2
6, 7
11, 8
17, 6
21, 2
15, 5
31, 8
24, 6
29, 4
20, 10
25, 11
20, 9
15, 13
18, 8
11, 5
8, 7
6, 7
2, 6
4, 8
1, 5
2, 8
3, 3
5, 2
3, 11
1, 2
4, 5
2, 3
3, 1
3, 4
5, 5
4, 4
3, 2
4, 7
1, 6
4, 4
1, 5
2, 10
4, 6
1, 2
2, 8
2, 5
0, 4
0, 2
6, 4
3, 8
3, 3
6, 4
4, 2
1, 1
2, 2
2, 2
1, 2
1, 5
3, 3
1, 6
5, 2
0, 2
2, 3
1, 0
4, 1
2, 1
1, 1
5, 3
3, 6
0, 3
2, 3
2, 6
4, 3
2, 3
2, 3
4, 2
5, 5
4, 3
0, 2
1, 2
4, 1
3, 1
2, 2
0, 2
1, 5
4, 2
2, 4
1, 1
3, 2
4, 3
0, 2
4, 6
5, 3
3, 0
3, 4
5, 2
6, 4
7, 1
10, 4
6, 0
9, 3
4, 5
5, 2
4, 3
6, 2
4, 3
3, 3
4, 2
1, 2
1, 3
1, 2
1, 1
3, 2
0, 2
1, 1
1, 3
3, 1
2, 1
1, 4
5, 3
1, 0
0, 1
2, 1
1, 2
1, 2
2, 2
2, 4
2, 2
0, 3
2, 3
1, 6
5, 5
0, 2
4, 3
2, 2
0, 2
3, 1
0, 1
2, 4
0, 3
0, 0
3, 1
0, 2
2, 4
1, 2
1, 0
0, 0
1, 1
2, 5
1, 1
1, 1
2, 2
4, 6
7, 2
1, 2
1, 2
0, 3
2, 2
3, 2
1, 2
1, 2
0, 6
2, 3
6, 1
0, 2
5, 5
3, 3
2, 0
3, 0
2, 1
2, 3
1, 5
1, 0
2, 4
3, 6
2, 6
3, 6
6, 4
8, 3
2, 2
4, 2
4, 2
1, 0
2, 1
1, 3
3, 0
0, 2
2, 2
2, 0
1, 0
2, 4
0, 1
0, 3
2, 4
4, 5
0, 0
0, 1
1, 2
1, 1
0, 2
2, 3
2, 3
1, 2
0, 3
2, 0
1, 3
1, 2
1, 3
3, 3
2, 1
1, 3
1, 1
1, 1
0, 3
0, 0
3, 1
1, 3
0, 0
1, 1
1, 0
1, 1
0, 2
0, 1
2, 0
0, 3
0, 1
1, 0
3, 2
1, 0
3, 2
0, 1
0, 3
0, 0
0, 2
0, 1
0, 3
0, 0
0, 1
1, 0
1, 0
0, 1
0, 3
2, 0
3, 1
1, 2
1, 3
0, 2
0, 3
1, 0
1, 1
1, 1
0, 3
2, 2
3, 1
1, 1
3, 1
1, 1
1, 1
0, 0
1, 0
0, 1
3, 0
2, 1
1, 0
0, 3
0, 2
0, 1
2, 1
2, 0
1, 1
0, 1
2, 0
2, 1
1, 2
2, 1
0, 1
2, 0
0, 0
0, 1
2, 1
0, 0
0, 0
0, 0
0, 0
0, 1
0, 0
0, 0
2, 3
1, 0
1, 0
0, 0
1, 2
0, 0
1, 1
0, 2
0, 0
1, 0
2, 1
0, 1
0, 0
1, 0
0, 0
0, 0
0, 0
0, 0
0, 0
2, 0
0, 1
0, 1
0, 0
1, 2
0, 0
0, 1
0, 0
0, 0
0, 1
0, 1
2, 1
0, 2
1, 0
1, 0
0, 0
1, 0
0, 0
0, 0
0, 2
1, 0
0, 0
0, 0
0, 0
1, 2
0, 0
0, 0
1, 0
0, 1
0, 0
0, 0
0, 0
0, 0
0, 0
0, 1
0, 1
1, 0
0, 1
0, 0
0, 1
0, 0
0, 0
0, 0
0, 1
0, 0
0, 1
0, 0
0, 0
0, 0
0, 0
0, 2
0, 1
0, 0
1, 0
0, 0
0, 0
0, 0
0, 0
0, 0
0, 0
0, 0
0, 0
0, 0
0, 0
1, 1
1, 0
0, 1
0, 0
0, 0
0, 0
0, 2
1, 0
1, 0
0, 0
0, 0
0, 1
1, 0
0, 0
0, 0
0, 0
0, 0
0, 0
0, 0
0, 0
0, 1
0, 0
0, 0
0, 0
1, 0
0, 0
0, 0
0, 0
1, 0
1, 0
0, 0
0, 0
0, 0
0, 0
0, 0
0, 0
0, 0
0, 2
1, 0
0, 0
0, 0
1, 0
0, 1
0, 0
0, 0
0, 0
1, 1
1, 0
0, 0
0, 0
0, 1
0, 0
0, 1
1, 0
0, 0
0, 0
1, 1
0, 0
0, 0
0, 1
0, 0
0, 1
0, 1
0, 0
1, 0
0, 0
0, 0
0, 0
0, 0
0, 0
0, 0
0, 0
0, 0
0, 1
0, 0
0, 0
0, 0
1, 0
0, 0
0, 0
1, 0
0, 0
0, 0
0, 0
0, 0
0, 0
0, 0
0, 0
0, 0
0, 1
1, 0
0, 0
0, 1
0, 0
0, 0
0, 0
0, 0
0, 0
0, 0
0, 0
0, 0
1, 0
0, 0
0, 0
0, 0
0, 0
0, 0
0, 0
0, 0
0, 0
0, 0
0, 1
0, 0
0, 0
0, 1
0, 0
0, 0
1, 1
0, 0
0, 0
0, 0
0, 0
0, 0
0, 0
0, 0
0, 1
0, 0
0, 1
0, 0
0, 0
0, 0
0, 0
0, 0
0, 0
0, 0
0, 0
0, 0
0, 0
0, 0
0, 0
0, 0
0, 0
0, 0
0, 0
0, 0
0, 0
0, 0
0, 0
0, 0
1, 0
0, 0
0, 0
0, 0
0, 0
0, 0
0, 0
0, 0
0, 0
0, 1
0, 0
0, 1
0, 0
0, 0
0, 2
0, 0
0, 0
0, 0
0, 0
0, 0
0, 0
0, 0
0, 0
0, 0
0, 0
0, 0
0, 1
0, 0
0, 0
0, 0
0, 0
0, 0
0, 0
0, 0
1, 0
0, 0
0, 0
0, 0
0, 0
0, 0
0, 0
0, 0
0, 0
0, 0
0, 0
0, 0
0, 0
0, 0
0, 0
0, 0
0, 0
0, 0
0, 0
0, 0
0, 0
0, 0
0, 0
0, 0
0, 0
0, 0
0, 0
0, 0
0, 0
0, 0
0, 0
0, 0
0, 0
0, 0
0, 0
0, 0
0, 0
0, 0
0, 0
0, 0
0, 0
0, 0
0, 0
0, 0
0, 1
0, 0
0, 0
0, 0
0, 0
0, 0
0, 0
0, 0
0, 0
0, 0
0, 0
0, 0
0, 0
0, 0
0, 0
0, 0
0, 0
0, 0
0, 0
0, 0
0, 0
1, 0
0, 0
0, 0
0, 0
0, 0
0, 0
0, 0
0, 0
0, 0
0, 0
0, 0
0, 0
0, 0
0, 0
0, 0
0, 0
0, 0
0, 0
0, 0
0, 0
0, 0
0, 0
0, 0
1, 0
0, 0
0, 0
0, 0
0, 0
0, 0
0, 0
0, 0
0, 0
0, 0
0, 0
0, 0
0, 0
0, 0
0, 0
0, 0
0, 0
0, 0
0, 0
0, 0
0, 0
0, 0
0, 0
0, 0
0, 0
0, 0
0, 0
0, 0
0, 0
0, 0
0, 0
0, 0
0, 0
0, 0
0, 0
0, 0
0, 0
0, 0
0, 0
0, 0
0, 0
0, 0
0, 0
0, 0
0, 0
0, 0
0, 0
0, 0
0, 0
0, 0
0, 0
0, 0
0, 0
0, 0
0, 0
0, 0
0, 0
0, 0
0, 0
0, 0
0, 0
0, 0
0, 0
0, 0
0, 0
0, 0
0, 0
0, 0
0, 0
0, 0
0, 0
0, 0
0, 0
0, 0
0, 0
0, 0
0, 0
0, 0
0, 0
0, 0
0, 0
0, 0
0, 0
0, 0
0, 0
0, 0
0, 0
0, 0
0, 0
0, 0
0, 0
0, 0
0, 0
0, 0
0, 0
0, 0
0, 0
0, 0
0, 0
0, 0
0, 0
0, 0
0, 0
0, 0
0, 0
0, 0
0, 0
0, 0
0, 0
0, 0
0, 0
0, 0
0, 0
0, 0
0, 0
0, 0
0, 0
0, 0
0, 0
0, 0
0, 0
0, 0
0, 0
0, 0
0, 0
0, 0
0, 0
0, 0
0, 0
0, 0
0, 0
0, 0
0, 0
0, 0
0, 0
0, 0
0, 0
0, 0
0, 0
0, 0
0, 0
0, 0
0, 0
0, 0
0, 0
0, 0
0, 0
0, 0
0, 0
0, 0
0, 0
0, 0
0, 0
0, 0
0, 0
0, 0
0, 0
0, 0
0, 0
0, 0
0, 0
0, 0
0, 0
0, 0
0, 0
0, 0
0, 0
0, 0
0, 0
0, 0
0, 0
0, 0
0, 0
0, 0
0, 0
0, 0
0, 0
0, 0
0, 0
0, 0
0, 0
0, 0
0, 0
0, 0
0, 0
0, 0
0, 0
0, 0
0, 0
0, 0
0, 0
0, 0
0, 0
0, 0
0, 0
0, 0
0, 0
0, 0
0, 0
0, 0
0, 0
0, 0
0, 0
0, 0
0, 0
0, 0
0, 0
0, 0
0, 0
0, 0
0, 0
0, 0
0, 0
0, 0
0, 0
0, 0
0, 0
0, 0
0, 0
0, 0
0, 0
0, 0
0, 0
0, 0
0, 0
0, 0
0, 0
0, 0
0, 0
0, 0
0, 0
0, 0
0, 0
0, 0
0, 0
0, 0
0, 0
0, 0
0, 0
0, 0
0, 0
0, 0
0, 0
0, 0
0, 0
0, 0
0, 0
0, 0
0, 0
0, 0
0, 0
0, 0
0, 0
0, 0
0, 0
0, 0
0, 0
0, 0
0, 0
0, 0
0, 0
0, 0
0, 0
0, 0
0, 0
0, 0
0, 0
0, 0
0, 0
0, 0
0, 0
0, 0
0, 0
0, 0
0, 0
0, 0
0, 0
0, 0
0, 0
0, 0
0, 0
0, 0
0, 0
0, 0
0, 0
0, 0
0, 0
0, 0
0, 0
0, 0
0, 0
0, 0
0, 0
0, 0
0, 0
0, 0
0, 0
0, 0
0, 0
0, 0
0, 0
0, 0
0, 0
0, 0
0, 0
0, 0
0, 0
0, 0
0, 0
0, 0
0, 0
0, 0
0, 0
0, 0
0, 0
0, 0
0, 0
0, 0
0, 0
0, 0
0, 0
0, 0
0, 0
0, 0
0, 0
0, 0
0, 0
0, 0
0, 0
0, 0
0, 0
0, 0
0, 0
0, 0
0, 0
0, 0
0, 0
0, 0
0, 0
0, 0
0, 0
0, 0
0, 0
0, 0
0, 0
0, 0
0, 0
0, 0
0, 0
0, 0
0, 0
0, 0
0, 0
0, 0
0, 0
0, 0
0, 0
0, 0
0, 0
#ENDOFDATA     end of spectrum data