File: host_upload/06-09-2024/ps_0852/dump3/ps__0852shot_2555.msa
#FORMAT      : EMSA/MAS spectral data file
#VERSION     : TC202v2.0 PIXL
#TITLE       : N/A
#DATE        :       Date in the format DD-MMM-YYYY, for example 07-JUL-2010
#TIME        :             The time of day at which the spectrum was recorded, in 24-hour format
#OWNER       : PIXL Flight Model       (PIXL will use this to indicate which instrument took the data.)
#NPOINTS     : 4096     Number of data points in the spectrum (This can be zero for configuration only files)
#NCOLUMNS    : 2     Number of data columns in the spectrum (This can be zero for configuration only files)
#XUNITS      : eV
#YUNITS      : COUNTS
#DATATYPE    : YY
#XPERCHAN    : 7.862, 7.881   eV per channel (separate by commas if more than one detector)
#OFFSET      : 18.5, -22.4         eV of first channel  (separate by commas if more than one detector
#SIGNALTYPE  : XRF
#YP_TEMP     : 2.492
#LIVETIME    : 8.54617, 8.56287   seconds (separate by commas if more than one detector)
#REALTIME    : 10, 10.0   seconds (separate by commas if more than one detector)
#SPECTRUM    : start of spectrum data
0, 0
0, 0
0, 0
0, 0
0, 0
0, 0
0, 0
0, 0
0, 0
0, 0
0, 0
0, 0
0, 0
0, 0
0, 0
0, 0
0, 0
0, 0
0, 0
0, 0
0, 0
0, 0
0, 0
0, 0
0, 0
0, 0
0, 0
0, 0
0, 0
0, 0
0, 0
0, 1
0, 0
0, 0
0, 0
1, 0
0, 0
0, 0
1, 0
0, 0
3, 0
0, 1
1, 0
0, 0
1, 0
2, 0
3, 0
3, 2
6, 7
12, 17
23, 18
35, 36
61, 63
85, 66
98, 87
91, 52
60, 56
40, 33
35, 30
12, 9
16, 6
6, 1
4, 0
2, 3
4, 1
4, 8
6, 4
11, 7
21, 24
51, 50
102, 94
178, 183
263, 276
361, 359
425, 408
475, 440
404, 370
307, 269
221, 210
119, 112
65, 52
54, 36
20, 21
15, 10
4, 2
2, 5
2, 1
3, 1
1, 4
2, 2
0, 0
1, 0
0, 0
0, 0
1, 1
1, 2
1, 2
0, 3
2, 2
4, 1
3, 6
4, 0
2, 1
2, 3
2, 5
3, 4
3, 5
5, 2
3, 6
8, 14
20, 11
17, 20
24, 30
19, 26
32, 32
30, 28
25, 33
40, 26
32, 25
28, 14
10, 14
17, 11
15, 21
10, 12
17, 16
8, 13
10, 8
7, 7
6, 8
5, 5
1, 3
4, 4
5, 5
4, 2
4, 2
2, 3
4, 3
2, 1
2, 1
2, 1
2, 2
1, 1
2, 2
7, 1
4, 3
1, 2
1, 0
3, 0
5, 1
6, 1
7, 3
10, 6
5, 7
15, 9
29, 13
28, 33
30, 27
45, 27
36, 23
32, 19
33, 16
21, 14
12, 12
6, 1
5, 5
5, 5
6, 1
2, 3
3, 4
7, 4
2, 5
7, 6
4, 3
2, 2
8, 5
7, 6
4, 4
5, 3
1, 2
4, 2
2, 2
4, 1
1, 1
0, 2
0, 5
3, 4
6, 5
2, 1
5, 4
6, 6
7, 7
10, 12
12, 7
12, 16
11, 6
17, 10
12, 7
17, 15
13, 10
14, 11
9, 9
14, 12
10, 11
6, 3
4, 5
3, 2
5, 3
4, 4
5, 4
6, 9
2, 6
5, 4
4, 5
3, 12
4, 7
8, 7
6, 4
5, 6
4, 11
4, 15
6, 21
6, 28
5, 43
5, 48
4, 53
12, 69
11, 62
11, 61
19, 47
15, 37
15, 32
14, 30
27, 25
15, 16
11, 7
10, 15
20, 10
20, 5
15, 11
19, 9
19, 5
30, 7
38, 16
38, 11
44, 18
48, 28
48, 27
42, 45
60, 47
77, 51
97, 69
90, 67
79, 55
81, 47
71, 27
70, 35
46, 21
40, 8
36, 10
26, 15
27, 17
31, 34
51, 57
92, 106
176, 183
276, 355
474, 579
791, 873
1246, 1280
1572, 1706
2092, 2048
2368, 2275
2420, 2357
2502, 2029
2178, 1897
1805, 1520
1309, 1054
967, 653
607, 394
360, 213
206, 149
113, 56
42, 40
27, 18
14, 15
16, 17
14, 15
15, 10
11, 12
20, 27
19, 22
29, 36
48, 56
73, 73
100, 101
133, 157
210, 220
302, 292
321, 350
322, 329
364, 332
315, 333
279, 271
220, 191
186, 150
142, 99
73, 59
72, 43
25, 25
20, 14
15, 11
18, 9
30, 7
29, 8
36, 8
26, 9
20, 17
26, 13
17, 13
24, 24
22, 10
13, 7
7, 5
13, 4
6, 2
6, 6
2, 6
5, 3
4, 4
5, 2
4, 5
2, 4
5, 5
3, 3
7, 4
1, 5
3, 4
5, 3
3, 9
5, 7
3, 6
6, 10
3, 12
7, 12
7, 12
4, 20
2, 22
7, 16
3, 17
6, 9
3, 6
7, 15
5, 6
13, 10
5, 7
7, 5
5, 4
11, 4
3, 5
5, 4
4, 6
5, 7
5, 5
4, 5
4, 4
8, 3
3, 3
4, 1
6, 4
7, 5
5, 5
10, 7
6, 7
11, 9
9, 5
9, 4
11, 3
15, 5
18, 2
20, 2
14, 2
16, 1
12, 3
16, 3
15, 4
8, 3
5, 5
8, 4
1, 4
5, 2
2, 3
0, 4
3, 5
5, 7
6, 4
4, 3
8, 5
6, 1
8, 3
5, 2
9, 3
2, 0
7, 3
6, 4
4, 8
6, 4
2, 4
4, 4
0, 2
4, 3
1, 3
2, 2
2, 3
4, 3
2, 0
4, 1
3, 6
3, 0
3, 1
4, 3
4, 2
2, 2
2, 4
3, 2
7, 2
5, 1
4, 6
4, 3
2, 5
4, 3
3, 1
6, 3
4, 6
10, 0
6, 1
4, 4
5, 3
6, 5
6, 2
4, 4
7, 1
6, 3
4, 3
5, 4
7, 3
6, 0
4, 4
6, 3
4, 2
4, 2
2, 0
3, 0
4, 0
0, 4
3, 1
5, 2
3, 3
6, 1
7, 2
6, 3
6, 2
6, 5
3, 3
5, 1
2, 2
5, 2
3, 1
3, 6
3, 0
3, 3
1, 1
4, 0
0, 2
4, 0
0, 2
0, 0
0, 3
0, 2
4, 1
1, 2
0, 5
3, 7
2, 1
1, 3
1, 6
0, 3
2, 2
2, 2
2, 0
0, 4
2, 3
3, 1
5, 0
0, 0
1, 2
1, 2
2, 2
1, 0
2, 1
5, 2
1, 4
2, 5
1, 3
1, 2
0, 4
1, 1
3, 2
3, 1
4, 2
0, 3
0, 5
4, 5
2, 3
4, 4
0, 2
2, 0
2, 0
0, 2
3, 3
0, 3
1, 1
3, 0
1, 1
1, 0
4, 3
0, 2
0, 2
0, 1
4, 1
1, 2
2, 2
2, 2
1, 2
3, 4
1, 2
2, 3
3, 6
2, 2
3, 3
5, 5
4, 4
3, 6
2, 4
6, 3
3, 2
6, 0
1, 2
6, 6
4, 1
3, 0
0, 2
2, 3
0, 2
2, 0
0, 2
0, 0
1, 3
4, 1
0, 3
0, 0
3, 1
2, 2
2, 1
1, 2
0, 2
0, 4
2, 6
0, 2
1, 1
3, 0
1, 5
1, 3
1, 1
0, 2
0, 0
1, 3
0, 1
1, 0
1, 0
1, 1
1, 2
3, 0
4, 0
1, 0
3, 3
1, 1
0, 1
0, 1
1, 3
1, 0
1, 2
0, 1
2, 1
2, 0
1, 2
0, 1
0, 0
0, 0
1, 0
0, 0
0, 0
2, 1
2, 0
1, 0
2, 0
0, 1
0, 1
0, 1
0, 1
1, 0
1, 0
0, 0
0, 1
0, 1
1, 0
0, 1
1, 0
0, 0
0, 2
2, 0
1, 2
1, 1
1, 0
0, 0
0, 1
0, 2
1, 0
2, 1
0, 1
1, 2
0, 0
0, 3
1, 2
0, 1
0, 0
0, 0
2, 0
0, 0
0, 1
1, 0
1, 0
1, 1
1, 0
0, 1
1, 1
2, 1
0, 1
1, 1
1, 0
0, 0
0, 1
1, 2
0, 2
0, 0
4, 0
1, 1
1, 2
0, 1
0, 2
0, 1
1, 1
0, 3
0, 0
1, 0
1, 0
0, 0
2, 0
2, 0
0, 0
1, 0
1, 1
2, 0
0, 1
1, 1
1, 1
1, 0
0, 0
1, 0
0, 2
0, 1
0, 0
0, 1
0, 1
0, 0
0, 3
0, 0
0, 0
0, 0
0, 0
1, 0
0, 0
0, 1
2, 0
1, 0
1, 2
0, 0
1, 0
0, 0
0, 0
0, 0
1, 2
0, 0
0, 0
1, 0
0, 2
0, 1
0, 0
0, 1
1, 0
0, 0
1, 0
0, 0
2, 0
0, 2
0, 0
3, 0
1, 0
0, 0
1, 1
0, 1
0, 0
0, 0
1, 2
0, 0
0, 0
0, 1
0, 0
0, 0
0, 0
0, 0
0, 1
0, 0
0, 2
0, 1
0, 0
0, 0
0, 0
0, 1
0, 0
1, 0
0, 1
0, 1
0, 0
0, 1
0, 1
1, 0
0, 0
0, 1
0, 0
0, 0
0, 0
1, 0
0, 1
0, 0
1, 0
0, 1
0, 0
0, 0
0, 1
0, 0
0, 0
0, 0
0, 0
1, 0
0, 0
0, 0
0, 0
0, 0
0, 1
0, 1
0, 0
0, 1
0, 0
1, 0
0, 0
0, 0
0, 1
0, 1
0, 0
0, 0
0, 0
1, 0
1, 0
0, 0
0, 0
0, 0
0, 1
0, 0
0, 0
0, 0
0, 0
0, 0
1, 2
0, 0
0, 0
0, 0
1, 0
0, 0
0, 0
0, 0
1, 0
0, 0
1, 0
0, 0
0, 0
1, 0
0, 1
0, 0
0, 0
0, 0
0, 0
0, 0
0, 0
0, 0
1, 0
0, 1
0, 0
1, 0
0, 0
0, 0
0, 0
0, 0
0, 1
0, 0
0, 0
0, 0
0, 0
0, 0
1, 0
0, 0
0, 1
1, 0
0, 0
0, 0
1, 0
0, 0
0, 0
0, 0
0, 0
0, 0
0, 0
1, 0
0, 0
0, 0
0, 0
0, 0
0, 0
0, 1
0, 0
0, 0
1, 0
0, 1
0, 0
0, 0
0, 0
0, 0
0, 0
0, 0
1, 0
0, 0
2, 1
0, 0
0, 0
1, 0
1, 0
0, 0
0, 2
0, 0
0, 0
0, 0
0, 0
0, 0
0, 1
0, 0
0, 0
0, 0
0, 0
0, 0
1, 0
0, 0
0, 0
1, 0
0, 0
0, 0
0, 0
0, 0
0, 0
0, 0
0, 0
0, 0
0, 0
1, 0
0, 0
0, 1
0, 0
0, 0
0, 1
0, 0
0, 0
0, 0
1, 0
0, 0
0, 0
0, 0
0, 0
0, 0
0, 0
0, 0
0, 0
0, 0
0, 0
0, 0
0, 0
0, 0
0, 0
0, 0
0, 0
0, 0
0, 0
0, 0
0, 0
0, 0
0, 0
0, 0
0, 0
0, 0
0, 0
0, 0
0, 0
0, 0
0, 0
0, 0
0, 0
0, 0
0, 0
0, 0
0, 0
0, 0
0, 0
0, 0
0, 0
0, 0
0, 0
0, 0
0, 0
0, 0
0, 1
0, 0
0, 0
0, 0
0, 0
0, 0
0, 1
1, 0
0, 0
0, 0
0, 0
0, 0
0, 0
0, 0
0, 0
0, 0
0, 0
0, 0
0, 0
0, 0
0, 0
0, 0
0, 0
0, 0
0, 0
0, 0
0, 0
0, 0
0, 0
0, 0
0, 0
0, 0
0, 0
0, 0
0, 0
0, 0
0, 0
0, 0
0, 0
0, 0
0, 0
0, 0
0, 0
0, 0
0, 0
0, 0
0, 0
0, 0
0, 0
0, 0
0, 0
0, 0
0, 0
0, 0
0, 0
0, 0
0, 0
0, 0
0, 0
0, 0
0, 0
0, 0
0, 0
0, 0
0, 0
0, 0
0, 0
0, 0
0, 0
0, 0
0, 0
0, 0
0, 0
0, 0
0, 0
0, 0
0, 0
0, 0
0, 0
0, 0
0, 0
0, 0
0, 0
0, 0
0, 0
0, 0
0, 0
0, 0
0, 0
0, 0
0, 0
0, 0
0, 0
0, 0
0, 0
0, 0
0, 0
0, 0
0, 0
0, 0
0, 0
0, 0
0, 0
0, 0
0, 0
0, 0
0, 0
0, 0
0, 0
0, 0
0, 0
0, 0
0, 0
0, 0
0, 0
0, 1
0, 0
0, 0
0, 0
0, 0
0, 0
0, 0
0, 0
0, 0
0, 0
0, 0
0, 0
0, 0
0, 0
0, 0
0, 0
0, 0
0, 0
0, 0
0, 0
0, 0
0, 0
0, 0
0, 0
0, 0
0, 0
0, 0
0, 0
0, 0
0, 0
0, 0
0, 0
0, 0
0, 0
0, 0
0, 0
0, 0
0, 0
0, 0
0, 0
0, 0
0, 0
0, 0
0, 0
0, 0
0, 0
0, 0
0, 0
0, 0
0, 0
0, 0
0, 0
0, 0
0, 0
0, 0
0, 0
0, 0
0, 0
0, 0
0, 0
0, 0
0, 0
0, 0
0, 0
0, 0
0, 0
0, 0
0, 0
0, 0
0, 0
0, 0
0, 0
0, 0
0, 0
0, 0
0, 0
0, 0
0, 0
0, 0
0, 0
0, 0
0, 0
0, 0
0, 0
0, 0
0, 0
0, 0
0, 0
0, 0
0, 0
0, 0
0, 0
0, 0
0, 0
0, 0
0, 0
0, 0
0, 0
0, 0
0, 0
0, 0
0, 0
0, 0
0, 0
0, 0
0, 0
0, 0
0, 0
0, 0
0, 0
0, 0
0, 0
0, 0
0, 0
0, 0
0, 0
0, 0
0, 0
0, 0
0, 0
0, 0
0, 0
0, 0
0, 0
0, 0
0, 0
0, 0
0, 0
0, 0
0, 0
0, 0
0, 0
0, 0
0, 0
0, 0
0, 0
0, 0
0, 0
0, 0
0, 0
0, 0
0, 0
0, 0
0, 0
0, 0
0, 0
0, 0
0, 0
0, 0
0, 0
0, 0
0, 0
0, 0
0, 0
0, 0
0, 0
0, 0
0, 0
0, 0
0, 0
0, 0
0, 0
0, 0
0, 0
0, 0
0, 0
0, 0
0, 0
0, 0
0, 0
0, 0
0, 0
0, 0
0, 0
0, 0
0, 0
0, 0
0, 0
0, 0
0, 0
0, 0
0, 0
0, 0
0, 0
0, 0
0, 0
0, 0
0, 0
0, 0
0, 0
0, 0
0, 0
0, 0
0, 0
0, 0
0, 0
0, 0
0, 0
0, 0
0, 0
0, 0
0, 0
0, 0
0, 0
0, 0
0, 0
0, 0
0, 0
0, 0
0, 0
0, 0
0, 0
0, 0
0, 0
0, 0
0, 0
0, 0
0, 0
0, 0
0, 0
0, 0
0, 0
0, 0
0, 0
0, 0
0, 0
0, 0
0, 0
0, 0
0, 0
0, 0
0, 0
0, 0
0, 0
0, 0
0, 0
0, 0
0, 0
0, 0
0, 0
0, 0
0, 0
0, 0
0, 0
0, 0
0, 0
0, 0
0, 0
0, 0
0, 0
0, 0
0, 0
0, 0
0, 0
0, 0
0, 0
0, 0
0, 0
0, 0
0, 0
0, 0
0, 0
0, 0
0, 0
0, 0
0, 0
0, 0
0, 0
0, 0
0, 0
0, 0
0, 0
0, 0
0, 0
0, 0
0, 0
0, 0
0, 0
0, 0
0, 0
0, 0
0, 0
0, 0
0, 0
0, 0
0, 0
0, 0
0, 0
0, 0
0, 0
0, 0
0, 0
0, 0
0, 0
0, 0
0, 0
0, 0
0, 0
0, 0
0, 0
0, 0
0, 0
0, 0
0, 0
0, 0
#ENDOFDATA     end of spectrum data