File: host_upload/06-09-2024/ps_0852/dump3/ps__0852shot_2081.msa
#FORMAT      : EMSA/MAS spectral data file
#VERSION     : TC202v2.0 PIXL
#TITLE       : N/A
#DATE        :       Date in the format DD-MMM-YYYY, for example 07-JUL-2010
#TIME        :             The time of day at which the spectrum was recorded, in 24-hour format
#OWNER       : PIXL Flight Model       (PIXL will use this to indicate which instrument took the data.)
#NPOINTS     : 4096     Number of data points in the spectrum (This can be zero for configuration only files)
#NCOLUMNS    : 2     Number of data columns in the spectrum (This can be zero for configuration only files)
#XUNITS      : eV
#YUNITS      : COUNTS
#DATATYPE    : YY
#XPERCHAN    : 7.862, 7.881   eV per channel (separate by commas if more than one detector)
#OFFSET      : 18.5, -22.4         eV of first channel  (separate by commas if more than one detector
#SIGNALTYPE  : XRF
#YP_TEMP     : 2.428
#LIVETIME    : 8.56196, 8.5584   seconds (separate by commas if more than one detector)
#REALTIME    : 10, 10.0   seconds (separate by commas if more than one detector)
#SPECTRUM    : start of spectrum data
0, 0
0, 0
0, 0
0, 0
0, 0
0, 0
0, 0
0, 0
0, 0
0, 0
0, 0
0, 0
0, 0
0, 0
0, 0
0, 0
0, 0
0, 0
0, 0
0, 0
0, 0
0, 0
0, 0
0, 0
0, 0
0, 0
0, 0
0, 0
0, 0
0, 0
1, 0
0, 0
0, 0
0, 1
1, 1
0, 0
0, 0
1, 0
4, 1
5, 1
3, 1
5, 1
11, 0
6, 0
4, 2
5, 0
4, 2
6, 1
13, 6
15, 10
20, 21
37, 48
55, 60
81, 63
76, 73
83, 84
72, 61
48, 43
25, 27
15, 19
6, 10
7, 2
2, 4
3, 2
4, 2
2, 6
7, 10
9, 8
25, 19
53, 50
118, 107
152, 191
234, 291
344, 360
406, 435
434, 397
348, 392
273, 246
194, 181
121, 121
67, 77
40, 38
23, 28
13, 6
8, 8
3, 1
4, 1
1, 5
0, 4
1, 2
1, 1
1, 1
1, 4
5, 6
4, 6
11, 16
19, 19
15, 21
24, 27
24, 23
21, 28
17, 17
10, 16
8, 7
13, 5
7, 8
7, 1
14, 6
31, 10
68, 9
128, 9
213, 21
366, 22
491, 24
624, 24
627, 34
669, 26
523, 24
458, 18
298, 12
171, 21
87, 12
59, 14
27, 12
17, 13
13, 21
12, 10
11, 8
11, 9
5, 9
2, 4
4, 5
6, 7
3, 4
2, 2
2, 0
1, 1
1, 2
0, 1
1, 0
1, 2
0, 3
0, 2
1, 5
0, 1
0, 0
3, 1
1, 2
2, 4
3, 3
2, 2
1, 3
6, 5
2, 10
12, 12
11, 14
16, 16
26, 17
19, 13
17, 18
15, 17
8, 8
6, 5
4, 7
3, 5
4, 2
6, 4
5, 2
2, 3
6, 5
12, 4
16, 5
31, 3
31, 4
45, 3
70, 1
71, 2
69, 2
89, 3
66, 7
61, 3
36, 4
25, 6
23, 9
16, 7
5, 6
9, 6
2, 5
3, 5
2, 3
13, 6
10, 12
12, 5
10, 15
10, 14
7, 16
15, 24
9, 40
14, 56
11, 92
10, 105
9, 124
8, 137
11, 156
7, 157
9, 132
7, 118
3, 91
10, 66
5, 42
1, 20
5, 23
3, 11
5, 8
5, 1
5, 5
8, 7
5, 4
3, 6
7, 3
11, 2
6, 7
7, 6
8, 12
9, 7
6, 8
9, 7
20, 7
11, 5
11, 11
19, 12
25, 9
30, 10
32, 7
46, 11
39, 8
53, 6
62, 2
57, 4
67, 10
52, 12
49, 7
33, 6
31, 9
23, 15
23, 23
28, 29
28, 42
57, 44
51, 68
47, 66
48, 79
44, 50
56, 57
31, 38
37, 35
21, 31
26, 27
11, 38
14, 34
18, 38
20, 63
40, 91
81, 124
151, 234
256, 363
445, 619
723, 975
1054, 1399
1517, 1776
1869, 2126
2177, 2354
2317, 2450
2237, 2212
2043, 1917
1709, 1512
1329, 1105
926, 743
568, 439
398, 280
175, 153
104, 66
63, 44
44, 38
37, 15
31, 14
38, 20
52, 10
85, 16
117, 24
135, 22
155, 35
190, 58
186, 84
217, 116
242, 189
270, 250
323, 268
314, 347
351, 384
383, 323
336, 337
287, 280
260, 208
208, 146
138, 103
84, 67
62, 45
24, 23
16, 11
9, 11
9, 9
8, 8
7, 9
6, 7
10, 15
17, 14
17, 16
17, 12
12, 13
11, 15
9, 9
7, 7
5, 7
8, 2
2, 0
4, 2
1, 2
4, 0
4, 1
4, 0
3, 3
0, 4
1, 1
2, 2
0, 5
2, 0
2, 1
3, 2
3, 3
5, 6
2, 7
6, 4
7, 5
7, 10
16, 4
21, 3
23, 5
40, 6
56, 3
62, 2
71, 2
87, 3
91, 3
99, 3
91, 3
88, 4
77, 6
70, 2
38, 9
33, 3
15, 5
13, 7
14, 6
6, 12
8, 4
5, 1
4, 7
3, 5
1, 3
2, 3
7, 1
4, 2
2, 2
2, 7
6, 2
4, 1
3, 1
3, 3
2, 4
3, 3
3, 2
5, 3
2, 4
6, 3
4, 8
3, 4
2, 0
4, 5
1, 6
3, 6
6, 4
2, 4
6, 7
2, 3
1, 4
2, 5
1, 6
4, 8
1, 5
2, 3
2, 6
6, 8
5, 6
3, 10
4, 8
5, 5
7, 8
3, 9
4, 4
3, 3
2, 4
4, 4
3, 4
4, 8
5, 7
3, 2
3, 5
2, 5
5, 5
3, 7
3, 7
3, 4
4, 5
1, 2
3, 5
1, 7
0, 1
3, 2
2, 3
5, 1
5, 1
2, 3
3, 3
2, 3
5, 3
1, 1
2, 3
1, 2
1, 3
4, 7
4, 1
2, 10
4, 2
2, 4
4, 3
4, 0
2, 0
1, 3
4, 0
2, 2
0, 3
1, 3
2, 3
3, 1
2, 1
2, 1
2, 7
2, 2
6, 0
4, 5
4, 6
6, 0
3, 3
3, 1
2, 2
5, 4
8, 1
12, 2
8, 4
6, 4
6, 2
3, 2
6, 4
5, 0
8, 2
4, 2
7, 4
8, 1
8, 2
5, 2
9, 1
2, 0
3, 2
3, 1
3, 2
2, 2
1, 2
3, 0
2, 1
0, 0
3, 2
2, 3
1, 0
0, 2
3, 1
1, 3
1, 0
0, 1
3, 5
2, 1
0, 1
1, 4
1, 1
1, 5
1, 3
2, 2
0, 3
4, 2
2, 1
4, 2
3, 2
2, 2
1, 3
4, 3
4, 0
1, 0
0, 3
1, 3
4, 1
2, 2
0, 3
2, 4
2, 2
0, 2
1, 4
3, 2
2, 3
3, 1
6, 1
2, 1
2, 1
5, 1
6, 3
2, 3
3, 4
3, 3
5, 8
6, 7
1, 1
1, 2
2, 4
5, 2
3, 2
6, 2
4, 5
5, 1
4, 5
2, 6
1, 2
4, 1
1, 2
0, 1
2, 2
1, 2
0, 1
3, 5
2, 1
2, 0
3, 1
0, 0
1, 2
1, 2
0, 1
0, 3
1, 3
2, 2
5, 3
4, 1
2, 2
1, 0
3, 3
1, 1
2, 1
2, 2
5, 4
3, 1
3, 1
2, 1
1, 0
3, 2
0, 1
1, 1
1, 1
1, 1
2, 0
2, 2
4, 0
0, 0
0, 1
4, 3
1, 0
0, 2
4, 1
3, 0
1, 1
2, 0
1, 1
3, 0
0, 1
1, 0
1, 2
0, 1
1, 0
3, 1
2, 1
1, 1
2, 2
2, 1
0, 0
0, 0
0, 0
1, 1
1, 3
0, 1
0, 1
0, 0
1, 0
2, 1
2, 1
0, 1
1, 0
2, 0
2, 1
0, 0
0, 1
1, 3
2, 3
0, 3
1, 0
1, 1
0, 1
0, 1
0, 1
1, 2
1, 0
0, 2
0, 1
1, 0
1, 1
0, 1
2, 0
1, 0
3, 0
3, 0
0, 0
1, 2
1, 1
1, 0
1, 0
1, 1
0, 0
2, 1
0, 1
0, 0
0, 0
0, 0
2, 2
1, 0
1, 0
0, 0
1, 0
1, 1
1, 1
1, 0
0, 0
1, 0
1, 0
1, 1
0, 0
1, 2
0, 0
1, 0
0, 1
1, 1
0, 0
1, 2
2, 0
0, 0
1, 0
1, 0
0, 0
0, 2
0, 2
1, 2
1, 0
1, 1
0, 0
0, 0
0, 0
0, 1
0, 1
0, 0
1, 0
0, 1
0, 0
1, 0
2, 1
0, 0
0, 0
0, 0
1, 1
0, 2
2, 0
0, 1
2, 0
1, 0
0, 0
0, 1
1, 1
0, 1
1, 0
0, 0
0, 0
0, 0
0, 0
0, 0
0, 1
1, 1
0, 0
0, 0
1, 2
0, 0
1, 0
0, 0
0, 0
0, 1
0, 0
1, 3
0, 0
0, 0
0, 0
0, 0
0, 0
1, 0
0, 0
0, 0
1, 0
0, 1
0, 0
1, 1
0, 0
0, 0
0, 0
0, 1
1, 0
0, 0
0, 0
0, 0
0, 0
2, 0
0, 0
0, 1
1, 0
0, 0
0, 1
1, 0
0, 0
1, 0
0, 2
0, 0
0, 1
1, 0
0, 0
0, 0
0, 0
1, 1
1, 0
0, 0
0, 0
0, 1
0, 1
0, 1
0, 0
0, 0
0, 1
0, 1
0, 0
1, 0
0, 1
0, 0
0, 0
1, 0
0, 0
0, 0
0, 0
0, 0
0, 0
0, 1
1, 0
0, 0
0, 0
0, 0
0, 0
0, 0
3, 0
1, 1
0, 0
0, 0
0, 0
0, 0
0, 1
0, 1
0, 0
0, 0
0, 0
0, 1
1, 0
1, 0
0, 0
0, 1
0, 0
0, 0
0, 0
1, 0
1, 0
0, 0
0, 0
0, 1
0, 0
0, 0
0, 0
0, 0
0, 0
0, 0
1, 0
1, 0
0, 1
0, 0
0, 0
1, 0
0, 0
0, 1
0, 0
0, 1
0, 0
0, 0
0, 0
0, 0
0, 0
0, 1
0, 0
0, 0
1, 0
0, 0
0, 0
1, 0
0, 0
0, 0
0, 0
1, 1
0, 1
0, 0
0, 0
0, 1
0, 0
0, 0
0, 0
0, 0
0, 0
0, 0
0, 1
0, 1
1, 0
0, 0
0, 0
0, 0
0, 0
1, 0
0, 0
1, 0
0, 0
0, 0
0, 0
0, 0
1, 0
0, 0
1, 0
1, 0
0, 1
0, 0
0, 0
0, 0
0, 0
0, 0
0, 0
0, 0
1, 1
0, 0
0, 0
0, 0
0, 1
0, 0
0, 0
0, 0
1, 0
0, 0
0, 0
0, 0
0, 0
0, 0
0, 0
0, 0
0, 0
0, 0
0, 0
0, 0
0, 0
0, 0
0, 0
0, 0
0, 0
0, 0
1, 0
0, 0
0, 0
0, 0
0, 0
0, 0
0, 0
0, 0
0, 0
0, 0
1, 0
0, 0
0, 0
0, 0
0, 0
0, 0
0, 0
0, 0
0, 0
0, 0
0, 0
0, 0
0, 0
0, 0
0, 0
0, 0
0, 0
0, 0
0, 0
0, 0
0, 0
0, 0
0, 0
0, 0
0, 0
0, 0
0, 0
0, 0
0, 0
0, 0
0, 0
0, 0
0, 0
0, 0
0, 0
0, 0
0, 0
0, 0
0, 0
0, 0
0, 0
0, 0
0, 0
0, 0
0, 0
0, 0
0, 0
0, 0
0, 0
0, 0
0, 0
0, 0
0, 0
0, 0
0, 0
0, 0
0, 0
0, 0
0, 0
0, 0
0, 0
0, 0
0, 0
0, 0
0, 0
0, 0
0, 0
0, 0
0, 0
0, 0
0, 0
0, 0
0, 0
0, 0
0, 0
0, 0
0, 0
0, 0
0, 0
0, 0
0, 0
0, 0
0, 0
0, 0
0, 0
0, 0
0, 0
0, 0
0, 0
0, 0
0, 0
0, 0
0, 0
0, 0
0, 0
0, 0
0, 0
0, 0
0, 0
0, 0
0, 0
0, 0
0, 0
0, 0
0, 0
0, 0
0, 0
0, 0
0, 0
0, 0
0, 0
0, 0
0, 0
0, 0
0, 0
0, 0
0, 0
0, 0
0, 0
0, 0
0, 0
0, 0
0, 0
0, 0
0, 0
0, 0
0, 0
0, 0
0, 0
0, 0
0, 0
0, 0
0, 0
0, 0
0, 0
0, 0
0, 0
0, 0
0, 0
0, 0
0, 0
0, 0
0, 0
0, 0
0, 0
0, 0
0, 0
0, 0
0, 0
0, 0
0, 0
0, 0
0, 0
0, 0
0, 0
0, 0
0, 0
0, 0
0, 0
0, 0
0, 0
0, 0
0, 0
0, 1
0, 1
0, 0
0, 0
0, 0
0, 0
0, 0
0, 0
0, 0
0, 0
0, 0
0, 0
0, 0
0, 0
0, 0
0, 0
0, 0
0, 0
0, 0
0, 0
0, 0
0, 0
0, 0
0, 0
0, 0
0, 0
0, 0
0, 0
0, 0
0, 0
0, 0
0, 0
0, 0
0, 0
0, 0
0, 0
0, 0
0, 0
0, 0
0, 0
0, 0
0, 0
0, 0
0, 0
0, 0
0, 0
0, 0
0, 0
0, 0
0, 0
0, 0
0, 0
0, 0
0, 0
0, 0
0, 0
0, 0
0, 0
0, 0
0, 0
0, 0
0, 0
0, 0
0, 0
0, 0
0, 0
0, 0
0, 0
0, 0
0, 0
0, 0
0, 0
0, 0
0, 0
0, 0
0, 0
0, 0
0, 0
0, 0
0, 0
0, 0
0, 0
0, 0
0, 0
0, 0
0, 0
0, 0
0, 0
0, 0
0, 0
0, 0
0, 0
0, 0
0, 0
0, 0
0, 0
0, 0
0, 0
0, 0
0, 0
0, 0
0, 0
0, 0
0, 0
0, 0
0, 0
0, 0
0, 0
0, 0
0, 0
0, 0
0, 0
0, 0
0, 0
0, 0
0, 0
0, 0
0, 0
0, 0
0, 0
0, 0
0, 0
0, 0
0, 0
0, 0
0, 0
0, 0
0, 0
0, 0
0, 0
0, 0
0, 0
0, 0
0, 0
0, 0
0, 0
0, 0
0, 0
0, 0
0, 0
0, 0
0, 0
0, 0
0, 0
0, 0
0, 0
0, 0
0, 0
0, 0
0, 0
0, 0
0, 0
0, 0
0, 0
0, 0
0, 0
0, 0
0, 0
0, 0
0, 0
0, 0
0, 0
0, 0
0, 0
0, 0
0, 0
0, 0
0, 0
0, 0
0, 0
0, 0
0, 0
0, 0
0, 0
0, 0
0, 0
0, 0
0, 0
0, 0
0, 0
0, 0
0, 0
0, 0
0, 0
0, 0
0, 0
0, 0
0, 0
0, 0
0, 0
0, 0
0, 0
0, 0
0, 0
0, 0
0, 0
0, 0
0, 0
0, 0
0, 0
0, 0
0, 0
0, 0
0, 0
0, 0
0, 0
0, 0
0, 0
0, 0
0, 0
0, 0
0, 0
0, 0
0, 0
0, 0
0, 0
0, 0
0, 0
0, 0
0, 0
0, 0
0, 0
0, 0
0, 0
0, 0
0, 0
0, 0
0, 0
0, 0
0, 0
0, 0
0, 0
0, 0
0, 0
0, 0
0, 0
0, 0
0, 0
0, 0
0, 0
0, 0
0, 0
0, 0
0, 0
0, 0
0, 0
0, 0
0, 0
0, 0
0, 0
0, 0
0, 0
0, 0
0, 0
0, 0
0, 0
0, 0
0, 0
0, 0
0, 0
0, 0
0, 0
0, 0
0, 0
0, 0
0, 0
0, 0
0, 0
0, 0
0, 0
0, 0
0, 0
0, 0
0, 0
0, 0
0, 0
0, 0
0, 0
0, 0
0, 0
#ENDOFDATA     end of spectrum data