File: host_upload/06-09-2024/ps_0852/dump3/ps__0852shot_2514.msa
#FORMAT      : EMSA/MAS spectral data file
#VERSION     : TC202v2.0 PIXL
#TITLE       : N/A
#DATE        :       Date in the format DD-MMM-YYYY, for example 07-JUL-2010
#TIME        :             The time of day at which the spectrum was recorded, in 24-hour format
#OWNER       : PIXL Flight Model       (PIXL will use this to indicate which instrument took the data.)
#NPOINTS     : 4096     Number of data points in the spectrum (This can be zero for configuration only files)
#NCOLUMNS    : 2     Number of data columns in the spectrum (This can be zero for configuration only files)
#XUNITS      : eV
#YUNITS      : COUNTS
#DATATYPE    : YY
#XPERCHAN    : 7.862, 7.881   eV per channel (separate by commas if more than one detector)
#OFFSET      : 18.5, -22.4         eV of first channel  (separate by commas if more than one detector
#SIGNALTYPE  : XRF
#YP_TEMP     : 2.3
#LIVETIME    : 8.55781, 8.55867   seconds (separate by commas if more than one detector)
#REALTIME    : 10, 10.0   seconds (separate by commas if more than one detector)
#SPECTRUM    : start of spectrum data
0, 0
0, 0
0, 0
0, 0
0, 0
0, 0
0, 0
0, 0
0, 0
0, 0
0, 0
0, 0
0, 0
0, 0
0, 0
0, 0
0, 0
0, 0
0, 0
0, 0
0, 0
0, 0
0, 0
0, 0
0, 0
0, 0
0, 0
0, 0
0, 0
0, 0
0, 0
0, 0
0, 1
0, 0
0, 0
1, 0
1, 0
0, 0
1, 2
2, 2
0, 0
0, 2
1, 2
1, 1
0, 2
1, 3
3, 4
1, 1
7, 5
9, 21
20, 23
43, 48
45, 65
64, 89
69, 72
83, 84
61, 64
34, 47
27, 24
10, 10
6, 8
2, 3
4, 4
4, 4
2, 2
6, 2
6, 5
14, 17
16, 17
44, 46
94, 107
142, 164
189, 275
271, 369
308, 407
375, 407
310, 363
224, 249
165, 182
91, 132
53, 57
31, 44
14, 17
10, 5
4, 9
2, 6
3, 4
3, 4
4, 2
1, 2
2, 5
6, 3
9, 11
16, 25
39, 34
50, 74
82, 101
113, 138
106, 154
136, 145
109, 149
83, 123
59, 75
46, 50
25, 35
16, 22
16, 21
14, 16
17, 18
18, 28
29, 25
24, 49
40, 52
44, 58
58, 58
50, 54
50, 48
50, 43
39, 48
25, 32
17, 43
15, 27
22, 23
28, 22
13, 21
15, 19
10, 8
6, 10
9, 5
3, 7
2, 3
3, 4
3, 4
1, 7
2, 5
0, 4
5, 2
2, 1
1, 5
4, 6
8, 4
4, 2
5, 4
2, 5
3, 4
0, 2
5, 2
7, 3
3, 5
6, 4
4, 3
7, 6
5, 7
15, 9
15, 8
15, 18
16, 20
24, 11
18, 22
11, 18
15, 20
11, 16
10, 7
4, 5
5, 7
3, 6
7, 7
5, 3
9, 6
4, 7
0, 10
5, 6
3, 8
5, 5
8, 8
4, 4
5, 9
5, 14
5, 12
4, 19
11, 9
12, 13
11, 9
4, 12
6, 6
7, 7
6, 6
2, 19
5, 19
11, 14
6, 21
11, 20
9, 27
13, 24
7, 27
9, 16
16, 21
10, 24
14, 18
12, 29
12, 15
10, 22
9, 16
8, 25
6, 25
6, 20
7, 36
2, 45
4, 58
5, 72
4, 78
4, 61
6, 54
2, 52
4, 47
6, 24
11, 22
8, 21
10, 8
5, 7
4, 9
6, 4
6, 6
7, 14
12, 9
14, 12
17, 16
24, 6
32, 13
31, 12
36, 11
43, 20
33, 9
23, 15
22, 10
14, 15
11, 11
12, 13
12, 5
12, 9
16, 9
9, 9
10, 11
15, 20
20, 15
17, 22
20, 39
31, 37
50, 44
44, 52
75, 66
66, 68
56, 69
60, 46
38, 49
28, 30
22, 31
15, 15
17, 16
20, 13
26, 29
26, 46
44, 61
63, 114
149, 221
267, 383
441, 622
709, 1047
1053, 1510
1544, 1970
1864, 2334
2070, 2583
2238, 2669
2207, 2544
2011, 2100
1599, 1654
1207, 1201
876, 806
544, 493
357, 283
184, 121
101, 76
62, 42
37, 20
21, 37
23, 12
12, 20
14, 19
24, 17
16, 26
23, 28
34, 36
43, 58
70, 97
98, 130
148, 176
190, 275
249, 327
303, 363
305, 366
333, 350
321, 361
281, 317
222, 236
150, 181
125, 116
79, 61
54, 36
24, 25
16, 21
5, 6
1, 4
3, 12
6, 12
7, 15
11, 15
9, 20
12, 28
13, 22
9, 17
8, 14
11, 12
10, 9
7, 3
9, 7
6, 5
7, 5
6, 8
5, 7
8, 5
5, 4
7, 5
4, 1
4, 2
4, 6
5, 1
0, 10
3, 4
5, 12
2, 4
4, 5
1, 2
7, 7
3, 4
3, 2
3, 4
4, 1
2, 9
6, 6
5, 6
5, 9
4, 11
4, 6
5, 8
6, 7
4, 8
1, 5
3, 8
1, 6
8, 5
3, 7
6, 6
6, 7
4, 4
3, 5
4, 7
8, 3
8, 5
12, 3
7, 3
6, 4
4, 1
14, 6
12, 2
6, 4
7, 8
2, 4
5, 2
4, 7
3, 6
7, 4
6, 5
7, 9
2, 2
5, 6
2, 6
6, 2
7, 2
7, 3
2, 3
6, 7
2, 6
9, 3
3, 1
6, 5
6, 8
3, 4
4, 4
1, 3
2, 0
6, 8
2, 3
2, 7
3, 4
5, 3
2, 5
3, 4
4, 5
6, 3
7, 9
7, 3
5, 12
10, 5
7, 5
3, 11
7, 13
5, 14
5, 10
9, 16
3, 17
0, 13
1, 13
4, 11
10, 11
7, 10
3, 5
2, 9
4, 5
2, 7
3, 3
4, 3
5, 4
5, 0
4, 2
3, 4
1, 5
3, 6
2, 3
2, 4
2, 3
3, 3
1, 2
3, 1
3, 1
2, 2
0, 1
3, 2
1, 5
5, 3
3, 3
2, 4
6, 2
3, 4
4, 4
4, 5
4, 4
7, 1
6, 3
6, 1
9, 5
6, 1
4, 6
8, 1
1, 4
6, 4
2, 3
4, 6
2, 3
3, 2
4, 3
3, 5
5, 1
3, 2
6, 5
3, 2
3, 3
4, 1
1, 1
3, 1
1, 2
2, 2
4, 4
1, 2
0, 5
2, 0
3, 3
4, 5
3, 1
1, 6
1, 3
2, 3
0, 3
0, 6
2, 5
2, 5
5, 3
6, 3
2, 2
2, 0
2, 2
3, 3
2, 2
4, 1
2, 3
3, 1
0, 3
1, 5
4, 1
5, 5
2, 7
0, 1
1, 0
1, 6
0, 3
1, 6
1, 5
2, 2
4, 5
2, 1
2, 1
2, 3
2, 2
2, 4
1, 4
1, 3
2, 1
2, 4
1, 2
1, 2
1, 2
3, 2
2, 1
3, 2
1, 2
5, 4
3, 1
2, 2
6, 1
4, 2
3, 6
4, 2
7, 3
3, 3
2, 3
5, 7
3, 7
2, 0
6, 3
7, 5
1, 2
0, 5
1, 0
4, 1
2, 2
4, 2
6, 5
1, 3
0, 4
2, 2
0, 2
1, 5
3, 1
1, 1
1, 0
3, 2
2, 1
0, 4
2, 2
1, 3
3, 5
1, 3
3, 4
0, 1
1, 1
1, 2
1, 2
1, 0
2, 0
1, 1
1, 3
0, 1
0, 1
2, 2
1, 0
1, 0
0, 2
1, 0
0, 0
0, 1
0, 1
1, 0
0, 1
1, 3
0, 1
0, 3
0, 0
1, 0
1, 2
0, 1
1, 1
1, 3
2, 3
0, 0
0, 2
2, 0
0, 0
1, 1
1, 2
2, 0
2, 1
1, 2
0, 2
1, 1
0, 1
0, 1
2, 1
2, 0
1, 1
1, 0
1, 0
1, 0
0, 0
1, 0
0, 0
0, 1
1, 2
0, 0
0, 1
0, 1
1, 0
1, 1
4, 1
0, 0
2, 1
0, 0
1, 0
0, 0
0, 1
0, 2
1, 1
1, 0
0, 3
0, 0
0, 1
0, 0
1, 2
0, 1
1, 2
0, 0
2, 0
1, 0
2, 1
0, 0
0, 0
2, 1
0, 1
0, 1
0, 0
0, 1
1, 1
1, 0
1, 2
0, 0
0, 0
0, 2
0, 0
0, 0
1, 1
0, 0
0, 1
1, 0
1, 0
0, 1
1, 0
1, 0
0, 0
2, 0
0, 0
0, 1
1, 1
0, 1
2, 0
1, 1
1, 0
0, 2
1, 1
0, 1
0, 0
0, 0
0, 0
0, 0
0, 0
0, 0
1, 0
0, 0
0, 1
1, 0
0, 1
0, 0
1, 0
1, 0
0, 0
1, 0
0, 1
0, 2
0, 0
1, 0
1, 2
1, 2
0, 0
0, 1
0, 0
0, 1
1, 0
0, 1
0, 0
0, 1
0, 0
2, 0
1, 0
0, 0
0, 1
1, 0
0, 0
0, 0
1, 1
0, 0
0, 1
0, 0
1, 0
0, 0
1, 1
1, 0
1, 0
0, 0
0, 0
2, 0
1, 1
0, 1
0, 0
0, 1
1, 0
0, 0
0, 0
1, 0
1, 0
0, 0
0, 0
0, 0
0, 0
0, 0
1, 1
0, 0
0, 0
2, 0
1, 1
0, 0
1, 0
0, 0
0, 0
0, 0
0, 0
0, 0
0, 0
0, 1
0, 0
0, 1
0, 1
0, 0
0, 0
0, 0
0, 1
0, 0
1, 0
0, 0
0, 0
1, 0
0, 0
0, 1
0, 0
0, 0
1, 1
1, 1
1, 0
0, 1
0, 0
0, 2
0, 0
2, 1
0, 0
1, 1
0, 0
2, 3
2, 2
0, 0
0, 0
1, 0
0, 0
0, 0
0, 0
1, 1
0, 0
2, 0
0, 1
0, 0
0, 0
0, 0
0, 0
1, 1
0, 0
0, 0
0, 0
0, 0
0, 1
0, 1
0, 0
0, 0
0, 0
0, 0
0, 0
0, 0
1, 0
0, 0
0, 1
0, 0
0, 1
2, 0
0, 0
0, 0
0, 0
0, 0
0, 0
0, 0
0, 0
0, 1
0, 0
0, 0
0, 0
0, 0
1, 0
0, 0
0, 0
0, 1
0, 0
0, 2
0, 1
0, 0
0, 0
0, 0
0, 0
1, 0
0, 0
0, 1
1, 0
0, 0
0, 0
0, 0
0, 0
1, 0
0, 0
0, 0
0, 0
0, 0
0, 1
0, 0
0, 0
0, 0
0, 0
0, 0
0, 0
0, 0
0, 0
0, 0
0, 0
0, 0
0, 0
0, 0
0, 0
0, 0
0, 0
0, 1
0, 0
0, 0
0, 0
0, 0
0, 0
0, 0
0, 0
0, 0
0, 0
0, 0
0, 0
0, 0
0, 0
0, 0
0, 0
0, 0
0, 0
0, 0
0, 1
0, 0
0, 0
0, 0
0, 0
0, 1
0, 0
0, 0
0, 0
0, 0
0, 0
0, 0
0, 0
0, 0
0, 0
0, 0
0, 0
0, 0
0, 0
0, 0
0, 0
0, 0
0, 0
0, 0
0, 0
0, 0
0, 1
0, 0
0, 0
0, 0
0, 0
0, 0
0, 0
0, 0
0, 0
0, 0
0, 0
0, 0
0, 0
0, 0
0, 1
0, 0
0, 0
0, 0
0, 0
0, 0
0, 0
0, 1
0, 0
1, 0
0, 0
0, 0
0, 0
0, 0
0, 0
0, 0
0, 0
0, 0
0, 0
0, 0
0, 0
0, 0
0, 0
0, 1
0, 0
0, 0
0, 0
1, 1
0, 0
0, 0
0, 0
0, 0
0, 0
0, 1
0, 0
0, 0
0, 0
0, 0
0, 0
0, 0
0, 0
0, 0
0, 0
0, 0
0, 0
0, 0
0, 0
0, 0
0, 0
0, 1
0, 0
0, 0
0, 0
0, 0
0, 0
0, 0
0, 0
0, 0
0, 0
0, 0
0, 0
0, 0
0, 0
0, 0
0, 0
0, 0
0, 0
0, 0
0, 0
0, 0
0, 0
0, 0
0, 0
0, 0
0, 0
0, 0
0, 0
0, 0
0, 0
0, 0
0, 0
0, 0
0, 0
0, 0
0, 0
0, 0
0, 0
0, 0
0, 0
0, 0
0, 0
0, 0
0, 0
0, 0
0, 0
0, 0
0, 0
0, 0
0, 0
0, 0
0, 0
0, 0
0, 0
0, 0
0, 0
0, 0
0, 0
0, 0
0, 0
0, 0
0, 0
0, 0
0, 0
0, 0
0, 0
0, 0
0, 0
0, 0
0, 0
0, 0
0, 0
0, 0
0, 0
0, 0
0, 0
0, 0
0, 0
0, 0
0, 0
0, 0
0, 0
0, 0
0, 0
0, 0
0, 0
0, 0
0, 0
0, 0
0, 0
0, 0
0, 0
0, 0
0, 0
0, 0
0, 0
0, 0
0, 0
0, 0
0, 0
0, 0
0, 0
0, 0
0, 0
0, 0
0, 0
0, 0
0, 0
0, 0
0, 0
0, 0
0, 0
0, 0
0, 0
0, 0
0, 0
0, 0
0, 0
0, 0
0, 0
0, 0
0, 0
0, 0
0, 0
0, 0
0, 0
0, 0
0, 0
0, 0
0, 0
0, 0
0, 0
0, 0
0, 0
0, 0
0, 0
0, 0
0, 0
0, 0
0, 0
0, 0
0, 0
0, 0
0, 0
0, 0
0, 0
0, 0
0, 0
0, 0
0, 0
0, 0
0, 0
0, 0
0, 0
0, 0
0, 0
0, 0
0, 0
0, 0
0, 0
0, 0
0, 0
0, 0
0, 0
0, 0
0, 0
0, 0
0, 0
0, 0
0, 0
0, 0
0, 0
0, 0
0, 0
0, 0
0, 0
0, 0
0, 0
0, 0
0, 0
0, 0
0, 0
0, 0
0, 0
0, 0
0, 0
0, 0
0, 0
0, 0
0, 0
0, 0
0, 0
0, 0
0, 0
0, 0
0, 0
0, 0
0, 0
0, 0
0, 0
0, 0
0, 0
0, 0
0, 0
0, 0
0, 0
0, 0
0, 0
0, 0
0, 0
0, 0
0, 0
0, 0
0, 0
0, 0
0, 0
0, 0
0, 0
0, 0
0, 0
0, 0
0, 0
0, 0
0, 0
0, 0
0, 0
0, 0
0, 0
0, 0
0, 0
0, 0
0, 0
0, 0
0, 0
0, 0
0, 0
0, 0
0, 0
0, 0
0, 0
0, 0
0, 0
0, 0
0, 0
0, 0
0, 0
0, 0
0, 0
0, 0
0, 0
0, 0
0, 0
0, 0
0, 0
0, 0
0, 0
0, 0
0, 0
0, 0
0, 0
0, 0
0, 0
0, 0
0, 0
0, 0
0, 0
0, 0
0, 0
0, 0
0, 0
0, 0
0, 0
0, 0
0, 0
0, 0
0, 0
0, 0
0, 0
0, 0
0, 0
0, 0
0, 0
0, 0
0, 0
0, 0
0, 0
0, 0
0, 0
0, 0
0, 0
0, 0
0, 0
0, 0
0, 0
0, 0
0, 0
0, 0
0, 0
0, 0
0, 0
0, 0
0, 0
0, 0
0, 0
0, 0
0, 0
0, 0
0, 0
0, 0
0, 0
0, 0
0, 0
0, 0
0, 0
0, 0
0, 0
0, 0
0, 0
0, 0
0, 0
0, 0
0, 0
0, 0
0, 0
0, 0
0, 0
0, 0
0, 0
0, 0
0, 0
0, 0
0, 0
0, 0
0, 0
0, 0
0, 0
0, 0
0, 0
0, 0
0, 0
0, 0
0, 0
0, 0
0, 0
0, 0
0, 0
0, 0
0, 0
0, 0
0, 0
0, 0
0, 0
0, 0
0, 0
0, 0
0, 0
0, 0
0, 0
0, 0
0, 0
0, 0
0, 0
0, 0
0, 0
0, 0
0, 0
0, 0
0, 0
0, 0
0, 0
0, 0
0, 0
0, 0
0, 0
0, 0
0, 0
0, 0
0, 0
#ENDOFDATA     end of spectrum data