File: host_upload/06-09-2024/ps_0852/dump3/ps__0852shot_2572.msa
#FORMAT      : EMSA/MAS spectral data file
#VERSION     : TC202v2.0 PIXL
#TITLE       : N/A
#DATE        :       Date in the format DD-MMM-YYYY, for example 07-JUL-2010
#TIME        :             The time of day at which the spectrum was recorded, in 24-hour format
#OWNER       : PIXL Flight Model       (PIXL will use this to indicate which instrument took the data.)
#NPOINTS     : 4096     Number of data points in the spectrum (This can be zero for configuration only files)
#NCOLUMNS    : 2     Number of data columns in the spectrum (This can be zero for configuration only files)
#XUNITS      : eV
#YUNITS      : COUNTS
#DATATYPE    : YY
#XPERCHAN    : 7.862, 7.881   eV per channel (separate by commas if more than one detector)
#OFFSET      : 18.5, -22.4         eV of first channel  (separate by commas if more than one detector
#SIGNALTYPE  : XRF
#YP_TEMP     : 2.46
#LIVETIME    : 8.55607, 8.56225   seconds (separate by commas if more than one detector)
#REALTIME    : 10, 10.0   seconds (separate by commas if more than one detector)
#SPECTRUM    : start of spectrum data
0, 0
0, 0
0, 0
0, 0
0, 0
0, 0
0, 0
0, 0
0, 0
0, 0
0, 0
0, 0
0, 0
0, 0
0, 0
0, 0
0, 0
0, 0
0, 0
0, 0
0, 0
0, 0
0, 0
0, 0
0, 0
0, 0
0, 0
0, 0
0, 0
0, 0
0, 0
0, 0
0, 1
0, 1
0, 0
0, 0
1, 0
1, 1
1, 0
1, 1
2, 1
2, 1
1, 1
2, 2
4, 2
1, 1
1, 1
3, 2
8, 3
9, 13
27, 28
38, 41
57, 68
77, 82
83, 71
77, 91
72, 56
42, 46
26, 22
12, 14
5, 9
3, 7
3, 4
3, 2
2, 2
9, 4
8, 6
13, 7
27, 21
39, 53
103, 130
167, 204
294, 295
362, 415
437, 445
469, 461
371, 394
294, 309
203, 216
102, 125
61, 80
31, 27
25, 21
13, 13
3, 6
2, 1
1, 3
2, 3
1, 3
0, 0
0, 4
2, 1
2, 2
5, 1
9, 1
5, 4
9, 5
7, 6
10, 10
5, 6
2, 7
4, 5
1, 2
9, 7
3, 6
5, 4
9, 8
9, 8
12, 7
21, 15
18, 28
23, 34
34, 41
35, 42
43, 50
49, 69
41, 56
46, 41
39, 36
32, 43
35, 37
31, 24
19, 24
21, 13
11, 25
15, 13
12, 18
12, 12
8, 9
7, 6
4, 7
1, 5
4, 1
0, 3
5, 1
4, 1
2, 1
1, 3
2, 1
2, 1
1, 4
0, 4
2, 2
0, 2
3, 4
4, 3
2, 1
4, 1
2, 2
1, 7
2, 6
5, 6
4, 10
11, 14
15, 27
14, 15
18, 26
17, 28
18, 43
12, 24
14, 31
10, 26
3, 16
5, 10
4, 10
3, 10
4, 4
2, 14
6, 3
7, 6
7, 3
3, 6
9, 5
3, 9
10, 16
6, 6
9, 15
2, 12
6, 14
6, 10
7, 15
8, 8
4, 10
3, 2
7, 8
7, 3
4, 9
7, 5
8, 5
8, 12
11, 10
9, 10
17, 11
7, 17
17, 20
18, 12
15, 23
19, 19
21, 10
16, 16
18, 14
12, 10
15, 10
6, 4
8, 7
4, 8
6, 7
9, 1
4, 9
5, 5
10, 3
9, 6
7, 7
13, 9
10, 12
7, 8
8, 9
8, 11
17, 14
10, 15
7, 17
12, 10
9, 25
15, 28
10, 16
9, 28
6, 26
17, 23
19, 33
14, 38
9, 42
20, 42
10, 41
17, 38
24, 30
11, 27
8, 15
17, 20
16, 10
16, 10
10, 11
18, 12
19, 9
19, 8
26, 9
16, 19
38, 27
28, 50
42, 44
50, 54
51, 54
51, 64
61, 77
47, 56
30, 45
20, 30
34, 18
19, 24
26, 18
11, 24
23, 17
31, 37
47, 66
79, 125
149, 212
266, 351
486, 619
782, 972
1169, 1445
1576, 1970
2012, 2271
2279, 2603
2413, 2706
2324, 2467
1930, 2095
1729, 1599
1214, 1227
822, 748
561, 443
316, 268
201, 131
88, 90
44, 44
32, 16
14, 30
12, 19
15, 29
9, 26
15, 18
13, 28
15, 33
35, 43
40, 57
75, 81
94, 135
148, 177
207, 241
287, 326
286, 394
377, 417
346, 348
304, 348
300, 304
251, 212
173, 163
127, 102
74, 80
37, 39
33, 20
14, 9
19, 10
18, 4
18, 11
17, 8
13, 7
21, 11
21, 15
20, 13
20, 12
22, 17
17, 13
15, 16
10, 12
8, 11
6, 10
10, 2
5, 10
9, 6
4, 5
7, 4
3, 3
6, 6
3, 1
5, 4
3, 7
2, 4
5, 7
6, 10
5, 8
5, 3
3, 5
6, 8
4, 5
10, 3
8, 4
6, 5
12, 6
4, 2
6, 5
8, 5
5, 5
4, 4
1, 8
3, 4
7, 4
6, 9
4, 10
2, 6
5, 3
5, 8
4, 5
5, 5
5, 2
4, 2
6, 7
4, 5
2, 2
4, 6
5, 3
4, 3
6, 6
9, 6
5, 6
4, 1
2, 3
1, 4
4, 5
6, 2
3, 6
6, 9
3, 4
4, 5
6, 4
7, 4
4, 6
5, 6
9, 3
4, 4
8, 6
5, 9
4, 12
5, 7
4, 6
6, 6
6, 8
5, 8
7, 9
4, 5
4, 5
6, 4
2, 4
4, 4
4, 4
2, 6
3, 5
2, 3
2, 0
3, 12
4, 5
4, 8
4, 4
2, 6
5, 2
5, 8
9, 4
6, 7
3, 3
5, 5
1, 7
3, 5
4, 2
3, 1
2, 2
3, 1
5, 3
4, 5
2, 2
5, 4
5, 4
4, 6
3, 5
2, 9
6, 8
3, 8
1, 9
1, 14
1, 12
2, 8
4, 10
5, 14
2, 6
1, 6
3, 7
4, 7
4, 7
4, 5
1, 7
0, 4
3, 7
7, 3
0, 4
3, 0
2, 2
3, 1
2, 1
2, 5
5, 3
1, 1
0, 3
1, 4
2, 3
2, 6
4, 2
4, 1
1, 3
1, 1
2, 1
5, 1
2, 2
4, 3
1, 1
2, 1
2, 5
2, 2
1, 1
2, 3
4, 5
3, 3
3, 2
3, 7
1, 1
2, 2
4, 6
2, 3
5, 0
2, 2
2, 0
4, 1
3, 5
3, 1
3, 4
6, 6
1, 2
3, 6
6, 1
0, 1
1, 1
0, 0
1, 0
1, 5
5, 2
3, 6
3, 3
0, 2
4, 0
3, 2
2, 4
1, 3
4, 1
0, 0
0, 3
1, 1
2, 2
1, 4
3, 0
4, 6
2, 4
0, 0
2, 4
0, 3
1, 2
2, 1
3, 0
2, 2
0, 2
0, 0
2, 3
2, 1
3, 1
0, 3
7, 5
1, 2
1, 4
7, 3
1, 6
4, 1
3, 3
5, 2
2, 4
4, 2
4, 4
7, 9
6, 3
2, 6
6, 1
4, 3
2, 3
2, 1
0, 3
5, 1
4, 1
2, 2
1, 4
0, 0
3, 1
2, 1
1, 2
0, 2
2, 2
2, 2
1, 2
1, 1
0, 3
0, 0
2, 1
4, 0
1, 3
1, 1
2, 1
2, 1
1, 3
3, 3
0, 3
3, 2
2, 4
1, 1
3, 1
2, 1
0, 0
3, 2
1, 2
2, 2
1, 0
2, 4
0, 2
1, 2
1, 0
0, 1
0, 1
0, 3
0, 3
0, 5
2, 1
0, 2
1, 0
0, 2
1, 0
2, 3
1, 2
1, 1
0, 0
0, 3
2, 0
0, 2
0, 2
1, 1
1, 1
0, 0
1, 2
2, 0
1, 0
0, 2
1, 1
1, 0
1, 1
0, 0
1, 1
1, 1
1, 3
1, 0
1, 0
1, 1
2, 1
1, 1
1, 0
1, 0
0, 4
1, 0
2, 0
0, 0
1, 0
0, 0
2, 0
0, 0
0, 0
1, 1
1, 1
2, 1
2, 0
2, 1
0, 0
1, 0
2, 1
0, 2
3, 1
0, 0
1, 1
0, 1
1, 0
0, 0
2, 1
0, 0
0, 0
1, 1
1, 2
0, 1
0, 0
2, 0
0, 0
1, 0
0, 1
0, 0
1, 1
1, 1
1, 0
0, 0
0, 1
0, 0
1, 0
1, 1
1, 0
2, 1
0, 0
2, 1
0, 0
0, 0
0, 0
0, 1
0, 1
0, 4
0, 3
0, 0
2, 0
3, 0
1, 0
0, 1
1, 0
0, 0
0, 0
0, 1
0, 1
0, 0
1, 1
1, 0
0, 2
0, 0
0, 0
0, 0
1, 1
1, 0
0, 1
0, 2
2, 0
0, 0
0, 1
0, 3
0, 0
0, 0
1, 1
1, 0
2, 0
0, 1
0, 0
0, 1
1, 1
0, 0
1, 0
0, 0
0, 0
0, 0
1, 0
0, 0
0, 0
1, 0
1, 1
0, 1
2, 1
0, 0
1, 1
1, 0
0, 1
2, 0
1, 0
0, 0
0, 0
1, 0
0, 0
1, 0
0, 0
0, 1
0, 0
0, 0
0, 1
0, 0
0, 0
0, 1
0, 0
0, 0
0, 0
1, 0
0, 0
1, 0
0, 0
1, 0
1, 1
0, 0
0, 0
0, 0
1, 0
0, 0
0, 0
1, 0
1, 0
0, 1
1, 0
1, 0
0, 0
0, 0
0, 0
0, 0
2, 0
0, 1
1, 0
0, 1
1, 0
0, 0
0, 0
0, 0
0, 1
0, 1
0, 0
0, 0
0, 1
1, 0
1, 0
0, 0
0, 0
0, 0
0, 0
1, 0
0, 0
0, 0
0, 1
1, 0
1, 1
0, 0
0, 0
0, 0
1, 1
0, 1
0, 0
0, 0
0, 1
1, 0
0, 0
1, 0
0, 0
1, 1
0, 0
0, 0
0, 0
0, 1
0, 0
0, 0
0, 0
0, 0
0, 0
0, 0
0, 0
0, 0
0, 1
1, 0
0, 0
0, 0
0, 0
0, 0
0, 0
0, 0
0, 0
0, 0
0, 0
1, 1
0, 0
0, 0
0, 0
0, 1
0, 0
0, 0
0, 0
0, 0
0, 0
0, 0
0, 0
1, 0
0, 0
0, 0
0, 0
1, 0
0, 0
1, 0
0, 0
0, 0
0, 1
0, 1
1, 0
0, 0
0, 0
1, 0
1, 0
0, 0
0, 0
3, 0
0, 0
0, 0
0, 0
0, 0
0, 0
0, 0
0, 0
0, 0
0, 0
0, 0
0, 0
0, 0
0, 0
0, 0
0, 0
1, 0
0, 0
0, 0
0, 0
0, 0
1, 0
0, 0
0, 1
0, 0
0, 0
0, 0
0, 0
0, 1
0, 0
0, 0
0, 0
0, 0
0, 0
0, 0
1, 0
0, 0
0, 0
1, 0
0, 0
0, 0
0, 0
0, 0
0, 0
0, 0
0, 0
0, 1
0, 0
0, 0
0, 0
0, 0
0, 0
0, 0
0, 0
0, 0
0, 0
0, 0
0, 0
0, 0
0, 0
0, 0
0, 0
0, 0
0, 0
0, 0
0, 0
0, 0
0, 0
0, 0
0, 0
0, 0
0, 0
0, 0
0, 0
0, 0
0, 0
0, 0
0, 0
0, 0
0, 0
0, 0
0, 0
0, 0
0, 0
0, 0
0, 0
0, 0
0, 0
0, 0
0, 0
0, 0
0, 0
0, 0
0, 0
0, 0
0, 0
0, 0
0, 0
0, 0
0, 0
0, 0
0, 0
0, 0
0, 0
0, 0
0, 0
0, 0
0, 0
0, 0
0, 0
0, 0
0, 0
0, 0
0, 0
0, 0
0, 0
0, 0
0, 0
0, 0
0, 0
0, 0
0, 0
0, 0
0, 0
0, 0
0, 0
0, 0
0, 0
0, 0
0, 0
0, 0
0, 0
0, 0
0, 0
0, 0
0, 0
0, 0
0, 0
0, 0
0, 0
0, 0
0, 0
0, 0
0, 0
0, 0
0, 0
0, 0
0, 0
0, 0
0, 0
0, 0
0, 0
1, 0
0, 0
0, 0
0, 0
0, 0
0, 0
0, 0
0, 0
0, 0
0, 0
0, 0
0, 0
0, 0
0, 0
0, 0
0, 0
0, 0
0, 0
0, 0
0, 0
0, 0
0, 0
0, 0
0, 0
0, 0
0, 0
0, 0
0, 0
0, 0
0, 0
0, 0
0, 0
0, 0
0, 0
0, 0
0, 0
0, 0
0, 0
0, 0
0, 0
0, 0
0, 0
0, 0
0, 0
0, 0
0, 0
0, 0
0, 0
0, 0
0, 0
0, 0
0, 0
0, 0
0, 1
0, 0
0, 0
0, 0
0, 0
0, 0
0, 0
0, 0
0, 0
0, 0
0, 0
0, 0
0, 0
0, 0
0, 0
0, 0
0, 0
0, 0
0, 0
0, 0
0, 0
0, 0
0, 0
0, 0
0, 0
0, 0
0, 0
0, 0
0, 0
0, 0
0, 0
0, 0
0, 0
0, 0
0, 0
0, 0
0, 0
0, 0
0, 0
0, 0
0, 0
0, 0
0, 0
0, 0
0, 0
0, 0
0, 0
0, 0
0, 0
0, 0
0, 0
0, 0
0, 0
0, 0
0, 0
0, 0
0, 0
0, 0
0, 0
0, 0
0, 0
0, 0
0, 0
0, 0
0, 0
0, 0
0, 0
0, 0
0, 0
0, 0
0, 0
0, 0
0, 0
0, 0
0, 0
0, 0
0, 0
0, 0
0, 0
0, 0
0, 0
0, 0
0, 0
0, 0
0, 0
0, 0
0, 0
0, 0
0, 0
0, 0
0, 0
0, 0
0, 0
0, 0
0, 0
0, 0
0, 0
0, 0
0, 0
0, 0
0, 0
0, 0
0, 0
0, 0
0, 0
0, 0
0, 0
0, 0
0, 0
0, 0
0, 0
0, 0
0, 0
0, 0
0, 0
0, 0
0, 0
0, 0
0, 0
0, 0
0, 0
0, 0
0, 0
0, 0
0, 0
0, 0
0, 0
0, 0
0, 0
0, 0
0, 0
0, 0
0, 0
0, 0
0, 0
0, 0
0, 0
0, 0
0, 0
0, 0
0, 0
0, 0
0, 0
0, 0
0, 0
0, 0
0, 0
0, 0
0, 0
0, 0
0, 0
0, 0
0, 0
0, 0
0, 0
0, 0
0, 0
0, 0
0, 0
0, 0
0, 0
0, 0
0, 0
0, 0
0, 0
0, 0
0, 0
0, 0
0, 0
0, 0
0, 0
0, 0
0, 0
0, 0
0, 0
0, 0
0, 0
0, 0
0, 0
0, 0
0, 0
0, 0
0, 0
0, 0
0, 0
0, 0
0, 0
0, 0
0, 0
0, 0
0, 0
0, 0
0, 0
0, 0
0, 0
0, 0
0, 0
0, 0
0, 0
0, 0
0, 0
0, 0
0, 0
0, 0
0, 0
0, 0
0, 0
0, 0
0, 0
0, 0
0, 0
0, 0
0, 0
0, 0
0, 0
0, 0
0, 0
0, 0
0, 0
0, 0
0, 0
0, 0
0, 0
0, 0
0, 0
0, 0
0, 0
0, 0
0, 0
0, 0
0, 0
0, 0
0, 0
0, 0
0, 0
0, 0
0, 0
0, 0
0, 0
0, 0
0, 0
0, 0
0, 0
0, 0
0, 0
0, 0
0, 0
0, 0
0, 0
0, 0
0, 0
0, 0
0, 0
0, 0
0, 0
0, 0
0, 0
0, 0
0, 0
0, 0
0, 0
0, 0
0, 0
0, 0
0, 0
0, 0
0, 0
0, 0
0, 0
0, 0
0, 0
0, 0
0, 0
0, 0
0, 0
0, 0
0, 0
0, 0
0, 0
0, 0
0, 0
0, 0
0, 0
0, 0
0, 0
0, 0
0, 0
0, 0
0, 0
0, 0
0, 0
0, 0
0, 0
0, 0
0, 0
0, 0
0, 0
0, 0
0, 0
0, 0
#ENDOFDATA     end of spectrum data