File: host_upload/06-09-2024/ps_0852/dump3/ps__0852shot_2548.msa
#FORMAT      : EMSA/MAS spectral data file
#VERSION     : TC202v2.0 PIXL
#TITLE       : N/A
#DATE        :       Date in the format DD-MMM-YYYY, for example 07-JUL-2010
#TIME        :             The time of day at which the spectrum was recorded, in 24-hour format
#OWNER       : PIXL Flight Model       (PIXL will use this to indicate which instrument took the data.)
#NPOINTS     : 4096     Number of data points in the spectrum (This can be zero for configuration only files)
#NCOLUMNS    : 2     Number of data columns in the spectrum (This can be zero for configuration only files)
#XUNITS      : eV
#YUNITS      : COUNTS
#DATATYPE    : YY
#XPERCHAN    : 7.862, 7.881   eV per channel (separate by commas if more than one detector)
#OFFSET      : 18.5, -22.4         eV of first channel  (separate by commas if more than one detector
#SIGNALTYPE  : XRF
#YP_TEMP     : 2.235
#LIVETIME    : 8.55871, 8.54694   seconds (separate by commas if more than one detector)
#REALTIME    : 10, 10.0   seconds (separate by commas if more than one detector)
#SPECTRUM    : start of spectrum data
0, 0
0, 0
0, 0
0, 0
0, 0
0, 0
0, 0
0, 0
0, 0
0, 0
0, 0
0, 0
0, 0
0, 0
0, 0
0, 0
0, 0
0, 0
0, 0
0, 0
0, 0
0, 0
0, 0
0, 0
0, 0
0, 0
0, 0
0, 0
0, 0
0, 0
0, 0
0, 0
0, 0
1, 0
0, 0
1, 0
1, 0
2, 0
0, 2
1, 0
0, 0
3, 0
1, 1
0, 0
0, 0
3, 2
0, 1
4, 4
3, 3
14, 11
16, 15
31, 33
50, 52
72, 97
84, 65
82, 72
77, 62
48, 41
32, 28
17, 10
10, 11
2, 1
3, 2
6, 2
1, 2
3, 7
8, 2
7, 8
20, 25
49, 71
92, 81
152, 182
285, 276
395, 379
454, 457
479, 455
416, 346
345, 256
206, 189
128, 97
68, 61
41, 26
20, 19
10, 8
10, 6
2, 5
3, 1
5, 2
2, 3
3, 0
1, 2
2, 2
1, 1
5, 2
7, 7
9, 5
7, 7
13, 12
13, 17
13, 8
13, 13
15, 11
5, 11
12, 18
2, 8
5, 4
11, 5
6, 7
7, 6
4, 11
5, 11
11, 12
23, 25
24, 26
39, 28
36, 37
38, 40
32, 32
22, 28
16, 17
21, 23
18, 14
12, 19
16, 16
11, 23
10, 13
7, 17
4, 10
8, 8
7, 10
6, 4
8, 7
1, 1
3, 3
2, 4
2, 2
3, 2
1, 3
5, 2
1, 0
2, 1
4, 1
2, 1
4, 2
2, 1
2, 2
0, 3
1, 3
5, 4
2, 3
7, 10
8, 11
14, 20
34, 36
51, 51
65, 64
71, 84
92, 79
85, 92
77, 71
61, 57
41, 30
40, 23
16, 15
9, 6
10, 7
3, 2
8, 10
6, 9
11, 14
24, 14
14, 17
12, 9
8, 14
14, 10
16, 6
7, 7
4, 6
4, 11
6, 6
5, 5
6, 7
1, 3
3, 2
2, 9
2, 1
1, 6
3, 3
7, 5
3, 11
8, 14
10, 14
6, 9
11, 23
14, 21
14, 40
21, 42
21, 40
22, 40
30, 29
53, 36
48, 47
57, 30
48, 23
77, 21
59, 14
53, 11
40, 6
27, 10
21, 5
20, 7
14, 9
7, 8
9, 11
11, 7
6, 4
11, 6
8, 6
9, 6
8, 3
16, 8
3, 8
4, 7
5, 5
15, 15
7, 6
9, 10
12, 20
13, 9
17, 12
14, 14
16, 16
13, 17
12, 17
10, 13
6, 10
13, 12
8, 9
4, 7
8, 10
7, 13
9, 13
12, 9
12, 12
19, 13
27, 36
28, 42
44, 64
43, 85
59, 84
67, 78
70, 63
61, 69
56, 69
40, 49
37, 28
28, 18
14, 15
22, 20
17, 19
13, 23
33, 32
44, 54
79, 111
126, 187
251, 321
444, 569
758, 931
1116, 1338
1502, 1813
1918, 2235
2174, 2450
2363, 2542
2327, 2258
2097, 1914
1616, 1606
1223, 1176
857, 706
591, 461
345, 255
218, 135
122, 73
75, 38
77, 26
105, 16
84, 10
106, 18
114, 18
122, 20
108, 26
106, 32
89, 52
82, 53
98, 88
116, 124
142, 181
200, 218
236, 285
300, 347
349, 352
330, 361
326, 341
285, 285
258, 215
182, 150
106, 108
95, 75
62, 28
29, 24
26, 13
12, 8
9, 7
7, 11
5, 10
9, 14
12, 12
11, 14
12, 16
11, 20
19, 13
12, 7
13, 9
3, 9
6, 9
8, 9
4, 5
5, 5
2, 6
3, 1
2, 6
6, 11
3, 4
2, 5
4, 0
5, 2
2, 5
4, 3
5, 4
4, 3
8, 2
5, 2
2, 2
4, 9
8, 5
6, 6
2, 5
9, 9
2, 2
6, 5
6, 7
4, 3
6, 6
7, 5
9, 5
7, 7
10, 2
11, 5
12, 3
12, 5
13, 6
7, 2
8, 8
5, 4
7, 2
8, 3
7, 3
3, 2
5, 8
4, 2
3, 4
1, 5
2, 5
4, 7
2, 4
6, 8
4, 6
5, 2
3, 4
2, 3
2, 1
4, 3
0, 3
2, 5
4, 10
5, 5
3, 5
6, 5
1, 7
3, 12
5, 9
3, 15
6, 19
1, 18
4, 27
2, 32
5, 22
6, 23
2, 26
1, 33
0, 21
2, 18
2, 14
5, 13
5, 11
7, 7
9, 2
3, 3
7, 4
1, 8
2, 3
3, 3
3, 4
4, 3
4, 2
10, 2
9, 8
17, 5
9, 7
13, 3
14, 4
9, 0
12, 2
9, 4
11, 3
4, 5
5, 1
4, 5
3, 2
0, 0
3, 2
6, 0
0, 2
1, 1
2, 2
3, 6
0, 2
4, 3
3, 4
1, 5
0, 2
1, 4
2, 6
1, 7
0, 6
1, 3
0, 2
1, 5
3, 2
3, 4
3, 1
3, 4
0, 5
2, 2
3, 2
2, 4
1, 2
4, 3
1, 2
3, 1
3, 4
3, 1
5, 1
3, 2
5, 5
6, 0
4, 3
2, 2
4, 4
1, 0
4, 1
2, 2
5, 5
0, 3
3, 1
5, 3
2, 2
3, 5
3, 0
4, 1
2, 1
0, 4
2, 4
1, 1
2, 6
1, 1
0, 2
1, 3
3, 3
0, 5
3, 5
3, 5
3, 11
1, 1
4, 1
1, 6
2, 0
3, 3
3, 4
3, 3
4, 5
1, 1
2, 3
4, 4
2, 4
3, 3
1, 4
2, 1
3, 2
0, 0
3, 1
1, 1
3, 2
3, 1
1, 1
3, 1
3, 2
1, 1
1, 3
2, 3
1, 0
0, 2
2, 3
1, 2
0, 1
0, 2
4, 3
1, 1
0, 2
2, 0
2, 3
2, 1
2, 2
1, 1
0, 1
2, 0
2, 2
4, 3
3, 3
3, 3
4, 1
2, 3
3, 4
5, 4
2, 6
4, 8
1, 6
8, 3
1, 4
4, 2
3, 4
2, 2
0, 1
1, 3
1, 2
0, 1
1, 2
0, 1
4, 2
0, 1
1, 2
4, 4
2, 0
2, 1
0, 2
3, 2
1, 0
2, 1
2, 0
2, 0
3, 1
0, 3
2, 2
1, 1
2, 1
2, 4
0, 2
2, 1
1, 2
1, 3
3, 0
4, 1
0, 0
2, 2
1, 0
2, 1
4, 1
3, 0
0, 2
1, 2
2, 0
0, 2
1, 1
0, 1
1, 1
0, 2
1, 0
1, 0
1, 1
2, 1
0, 4
1, 0
0, 1
2, 1
1, 1
1, 0
1, 1
1, 0
1, 3
2, 1
0, 0
1, 0
0, 1
1, 0
2, 0
0, 0
1, 0
2, 0
1, 2
1, 1
0, 0
2, 1
1, 1
0, 2
1, 2
0, 2
0, 2
1, 1
0, 0
1, 0
1, 0
0, 1
1, 1
1, 1
1, 1
0, 1
0, 0
0, 1
0, 0
1, 0
0, 2
0, 1
2, 0
1, 2
0, 0
1, 1
0, 1
0, 2
1, 1
1, 0
0, 0
1, 1
0, 2
2, 1
0, 0
0, 0
1, 1
0, 0
0, 2
1, 0
1, 2
0, 2
1, 2
0, 0
0, 1
0, 0
0, 2
0, 1
0, 0
0, 0
0, 0
0, 1
0, 0
1, 0
0, 1
0, 0
0, 0
0, 1
0, 0
0, 1
3, 1
1, 0
0, 0
2, 1
1, 1
0, 0
0, 0
0, 0
0, 0
3, 0
1, 1
1, 0
0, 0
3, 0
0, 1
0, 3
0, 0
0, 1
0, 0
0, 1
0, 0
1, 0
0, 0
1, 0
0, 1
1, 0
1, 0
1, 1
0, 1
0, 0
0, 0
0, 0
0, 0
0, 0
1, 1
0, 0
0, 0
0, 0
1, 0
0, 0
0, 2
1, 0
0, 2
0, 1
1, 1
0, 0
1, 1
0, 0
0, 0
0, 1
1, 1
0, 0
0, 0
1, 1
2, 0
0, 0
0, 0
0, 1
0, 1
0, 0
0, 0
0, 0
0, 0
0, 0
0, 0
0, 1
0, 0
0, 0
0, 1
0, 0
0, 0
3, 0
0, 0
0, 0
0, 0
0, 0
0, 0
0, 1
1, 0
0, 0
0, 1
0, 0
0, 1
0, 0
0, 1
0, 0
0, 0
0, 0
0, 0
1, 0
0, 1
0, 1
0, 0
0, 0
0, 0
1, 2
0, 1
0, 1
0, 0
0, 0
0, 0
0, 0
0, 0
0, 2
0, 0
0, 0
0, 0
0, 1
0, 0
0, 0
1, 0
0, 1
1, 1
1, 0
0, 0
0, 0
1, 0
0, 0
0, 0
1, 0
0, 2
0, 0
0, 1
0, 0
1, 0
0, 0
0, 0
0, 0
0, 1
0, 0
0, 0
1, 0
0, 0
0, 0
0, 0
0, 1
0, 0
0, 0
0, 0
0, 0
0, 0
0, 0
0, 0
0, 0
0, 0
0, 1
0, 0
0, 0
0, 0
0, 0
0, 0
0, 0
0, 0
0, 1
0, 0
2, 1
0, 0
0, 0
0, 0
0, 0
1, 1
0, 0
0, 0
0, 0
0, 0
0, 0
0, 0
0, 0
0, 0
0, 0
0, 0
0, 0
2, 0
0, 0
0, 0
0, 0
0, 0
0, 0
0, 0
0, 1
0, 0
0, 0
0, 0
0, 0
0, 0
0, 0
0, 0
1, 0
0, 0
0, 0
0, 0
0, 0
0, 1
0, 0
0, 0
0, 0
0, 0
0, 0
0, 0
0, 0
0, 0
0, 0
0, 0
1, 0
0, 1
1, 0
0, 0
0, 0
0, 0
0, 0
0, 0
0, 0
0, 0
0, 0
0, 0
0, 0
0, 0
0, 0
0, 0
0, 0
0, 0
0, 0
0, 0
0, 0
0, 0
0, 1
0, 0
0, 0
1, 0
0, 0
0, 0
0, 0
1, 0
0, 0
0, 0
0, 0
0, 0
0, 0
0, 0
0, 0
0, 0
0, 0
0, 0
0, 0
0, 0
0, 0
0, 0
0, 0
0, 0
0, 0
0, 0
0, 0
0, 0
0, 0
0, 0
0, 0
0, 0
0, 0
0, 0
0, 0
0, 0
0, 0
0, 0
0, 0
0, 0
0, 0
0, 0
0, 0
0, 0
0, 0
0, 0
0, 0
0, 0
0, 0
0, 0
0, 0
0, 0
0, 0
0, 0
0, 0
0, 0
0, 0
0, 0
0, 0
0, 0
0, 0
0, 0
0, 0
0, 0
0, 0
0, 0
0, 0
0, 0
0, 0
0, 0
0, 0
0, 0
0, 0
0, 0
0, 0
0, 1
0, 0
0, 0
0, 0
0, 0
0, 0
0, 0
0, 0
0, 0
0, 0
0, 0
0, 0
0, 0
0, 0
0, 0
0, 0
0, 0
0, 0
0, 0
0, 0
0, 0
0, 0
0, 0
0, 0
1, 0
0, 0
0, 0
0, 0
0, 0
0, 0
0, 0
0, 0
0, 0
0, 0
0, 0
0, 0
0, 0
0, 0
0, 1
0, 0
0, 0
0, 0
0, 0
0, 0
0, 0
0, 0
0, 0
0, 0
0, 0
0, 0
0, 1
0, 0
0, 0
0, 1
0, 0
0, 0
0, 0
0, 0
0, 0
0, 0
0, 0
0, 0
0, 0
0, 0
0, 0
0, 0
0, 0
0, 0
0, 0
0, 0
0, 0
0, 0
0, 0
0, 0
0, 0
0, 0
0, 0
0, 0
0, 0
0, 0
0, 0
0, 0
0, 0
0, 0
0, 0
0, 0
0, 0
0, 0
0, 0
0, 0
0, 0
0, 0
0, 0
0, 0
0, 0
0, 0
0, 0
0, 0
0, 0
0, 0
0, 0
0, 0
0, 0
0, 0
0, 0
0, 0
0, 0
0, 0
0, 0
0, 0
0, 0
0, 0
0, 0
0, 0
0, 0
0, 0
0, 0
0, 0
0, 0
0, 0
0, 0
0, 0
0, 0
1, 0
0, 0
0, 0
0, 0
0, 0
0, 0
0, 0
0, 0
0, 0
0, 0
0, 0
0, 0
0, 0
0, 0
0, 0
0, 1
0, 0
0, 0
0, 0
0, 0
0, 0
0, 0
0, 0
0, 0
0, 0
0, 0
0, 0
0, 0
0, 0
0, 0
0, 0
0, 0
0, 0
0, 0
0, 0
0, 0
0, 0
0, 0
0, 0
0, 0
0, 0
0, 0
0, 0
0, 0
0, 0
0, 0
0, 0
0, 0
0, 0
0, 0
0, 0
0, 0
0, 0
0, 0
0, 0
0, 0
0, 0
0, 0
0, 0
0, 0
0, 0
0, 0
0, 0
0, 0
0, 0
0, 0
0, 0
0, 0
0, 0
0, 0
0, 0
0, 0
0, 0
0, 0
0, 0
0, 0
0, 0
0, 0
0, 0
0, 0
0, 0
0, 0
0, 0
0, 0
0, 0
0, 0
0, 0
0, 0
0, 0
0, 0
0, 0
0, 0
0, 0
0, 0
0, 0
0, 0
0, 0
0, 0
0, 0
0, 0
0, 0
0, 0
0, 0
0, 0
0, 0
0, 0
0, 0
0, 0
0, 0
0, 0
0, 0
0, 0
0, 0
0, 0
0, 0
0, 0
0, 0
0, 0
0, 0
0, 0
0, 0
0, 0
0, 0
0, 0
0, 0
0, 0
0, 0
0, 0
0, 0
0, 0
0, 0
0, 0
0, 0
0, 0
0, 0
0, 0
0, 0
0, 0
0, 0
0, 0
0, 0
0, 0
0, 0
0, 0
0, 0
0, 0
0, 0
0, 0
0, 0
0, 0
0, 0
0, 0
0, 0
0, 0
0, 0
0, 0
0, 0
0, 0
0, 0
0, 0
0, 0
0, 0
0, 0
0, 0
0, 0
0, 0
0, 0
0, 0
0, 0
0, 0
0, 0
0, 0
0, 0
0, 0
0, 0
0, 0
0, 0
0, 0
0, 0
0, 0
0, 0
0, 0
0, 0
0, 0
0, 0
0, 0
0, 0
0, 0
0, 0
0, 0
0, 0
0, 0
0, 0
0, 0
0, 0
0, 0
0, 0
0, 0
0, 0
0, 0
0, 0
0, 0
0, 0
0, 0
0, 0
0, 0
0, 0
0, 0
0, 0
0, 0
0, 0
0, 0
0, 0
0, 0
0, 0
0, 0
0, 0
0, 0
0, 0
0, 0
0, 0
0, 0
0, 0
0, 0
0, 0
0, 0
0, 0
0, 0
0, 0
0, 0
0, 0
0, 0
0, 0
0, 0
0, 0
0, 0
0, 0
0, 0
0, 0
0, 0
0, 0
0, 0
0, 0
0, 0
0, 0
0, 0
0, 0
0, 0
0, 0
0, 0
0, 0
0, 0
0, 0
0, 0
0, 0
0, 0
0, 0
0, 0
0, 0
0, 0
0, 0
0, 0
0, 0
0, 0
#ENDOFDATA     end of spectrum data