File: host_upload/06-09-2024/ps_0852/dump3/ps__0852shot_2417.msa
#FORMAT      : EMSA/MAS spectral data file
#VERSION     : TC202v2.0 PIXL
#TITLE       : N/A
#DATE        :       Date in the format DD-MMM-YYYY, for example 07-JUL-2010
#TIME        :             The time of day at which the spectrum was recorded, in 24-hour format
#OWNER       : PIXL Flight Model       (PIXL will use this to indicate which instrument took the data.)
#NPOINTS     : 4096     Number of data points in the spectrum (This can be zero for configuration only files)
#NCOLUMNS    : 2     Number of data columns in the spectrum (This can be zero for configuration only files)
#XUNITS      : eV
#YUNITS      : COUNTS
#DATATYPE    : YY
#XPERCHAN    : 7.862, 7.881   eV per channel (separate by commas if more than one detector)
#OFFSET      : 18.5, -22.4         eV of first channel  (separate by commas if more than one detector
#SIGNALTYPE  : XRF
#YP_TEMP     : 2.524
#LIVETIME    : 8.56191, 8.54151   seconds (separate by commas if more than one detector)
#REALTIME    : 10, 10.0   seconds (separate by commas if more than one detector)
#SPECTRUM    : start of spectrum data
0, 0
0, 0
0, 0
0, 0
0, 0
0, 0
0, 0
0, 0
0, 0
0, 0
0, 0
0, 0
0, 0
0, 0
0, 0
0, 0
0, 0
0, 0
0, 0
0, 0
0, 0
0, 0
0, 0
0, 0
0, 0
0, 0
0, 0
0, 0
0, 0
0, 0
0, 0
0, 0
0, 0
0, 0
0, 0
0, 0
0, 0
0, 1
2, 0
3, 1
0, 2
1, 0
2, 1
2, 2
1, 0
1, 2
2, 2
3, 1
6, 5
10, 13
31, 22
56, 41
46, 51
69, 90
96, 77
104, 71
60, 60
51, 30
30, 21
18, 7
10, 3
6, 1
3, 6
4, 2
4, 3
4, 3
7, 4
16, 5
12, 18
62, 45
105, 103
185, 159
272, 234
423, 363
444, 389
435, 448
407, 352
311, 282
239, 185
122, 103
88, 62
39, 36
19, 14
11, 12
4, 3
4, 3
2, 0
1, 2
3, 0
1, 1
0, 0
1, 0
0, 0
2, 3
1, 0
1, 0
1, 2
3, 0
2, 3
2, 1
3, 1
1, 1
1, 1
2, 2
1, 0
4, 0
3, 1
2, 1
6, 1
9, 7
14, 3
31, 9
30, 18
35, 14
36, 20
61, 25
63, 12
42, 19
34, 10
33, 13
26, 14
16, 16
19, 16
21, 19
15, 20
15, 9
13, 11
10, 10
18, 2
5, 2
6, 7
4, 2
4, 1
2, 3
3, 1
0, 0
6, 1
2, 2
3, 2
0, 1
2, 3
1, 1
1, 2
3, 3
1, 0
2, 2
1, 1
2, 4
1, 1
0, 6
2, 5
5, 3
3, 9
6, 9
12, 18
14, 18
15, 13
22, 19
21, 19
13, 15
15, 11
8, 7
3, 8
4, 8
1, 1
7, 3
1, 5
3, 2
4, 3
7, 5
6, 2
4, 3
4, 2
7, 3
6, 3
5, 1
6, 4
5, 2
15, 8
9, 1
22, 1
16, 4
28, 3
36, 2
48, 2
35, 0
26, 7
33, 5
32, 5
25, 3
23, 9
15, 5
16, 4
13, 9
14, 7
17, 6
13, 16
20, 11
11, 11
15, 8
14, 13
7, 5
10, 11
6, 10
6, 8
6, 6
5, 5
4, 9
6, 9
3, 0
4, 11
5, 10
3, 13
5, 16
0, 29
3, 32
3, 29
6, 33
1, 39
4, 20
3, 28
3, 21
8, 12
8, 18
6, 16
7, 18
12, 32
11, 27
17, 31
11, 40
7, 58
11, 54
14, 53
18, 41
25, 33
24, 23
22, 22
27, 12
21, 21
23, 7
30, 6
26, 6
39, 6
39, 6
42, 15
59, 21
82, 30
88, 32
89, 44
97, 55
90, 59
73, 64
63, 46
70, 50
40, 40
28, 26
40, 18
24, 15
14, 17
19, 23
14, 16
24, 26
48, 50
79, 93
142, 180
304, 290
491, 555
798, 816
1164, 1306
1643, 1658
2019, 2023
2360, 2237
2529, 2394
2426, 2152
2069, 1860
1775, 1538
1281, 1079
911, 680
576, 424
342, 239
216, 151
104, 83
56, 40
33, 32
22, 34
14, 20
9, 21
18, 33
12, 32
14, 35
20, 49
41, 44
59, 61
59, 88
100, 123
167, 147
211, 229
265, 271
307, 320
329, 348
359, 360
386, 294
286, 317
285, 229
224, 136
162, 100
94, 70
66, 35
37, 28
17, 10
14, 10
8, 4
7, 5
6, 11
10, 11
17, 5
14, 6
14, 14
18, 7
10, 10
13, 14
11, 11
6, 4
6, 10
6, 4
3, 3
5, 5
7, 5
5, 1
3, 2
4, 2
4, 2
5, 2
3, 1
1, 4
0, 5
5, 3
2, 1
3, 2
4, 4
6, 2
4, 3
1, 3
4, 2
1, 4
2, 7
2, 5
3, 8
10, 3
8, 2
8, 7
5, 3
8, 2
3, 7
9, 3
4, 2
3, 4
7, 8
6, 6
8, 11
4, 16
9, 4
8, 9
6, 9
9, 8
8, 6
11, 6
6, 5
9, 6
5, 4
9, 2
7, 2
5, 3
5, 9
5, 3
9, 8
5, 7
3, 13
3, 6
2, 5
6, 4
3, 5
4, 6
4, 1
0, 5
8, 1
3, 3
0, 2
4, 3
4, 2
1, 4
2, 1
0, 4
6, 2
2, 2
2, 1
2, 0
2, 1
3, 3
1, 3
4, 4
0, 3
2, 1
3, 2
1, 2
4, 3
2, 3
3, 4
1, 4
4, 3
4, 5
3, 1
1, 2
7, 2
5, 5
10, 7
11, 3
10, 3
14, 2
26, 4
19, 3
19, 7
23, 3
16, 4
12, 5
14, 3
16, 3
19, 7
13, 7
11, 10
10, 9
6, 10
8, 6
11, 13
5, 12
2, 10
2, 15
2, 6
5, 5
1, 8
4, 9
3, 6
3, 6
3, 4
1, 3
2, 1
2, 5
3, 1
1, 3
3, 3
0, 3
0, 5
1, 3
2, 2
2, 3
1, 2
2, 0
4, 1
3, 3
4, 2
4, 2
2, 2
3, 3
0, 2
4, 1
2, 1
2, 0
1, 3
2, 2
4, 2
4, 4
5, 2
5, 2
0, 2
1, 2
6, 1
3, 3
2, 1
5, 1
2, 3
2, 5
3, 3
4, 3
3, 1
2, 1
2, 1
10, 4
3, 1
0, 1
2, 2
3, 1
2, 1
4, 2
3, 1
4, 1
3, 0
3, 1
1, 0
1, 5
1, 2
2, 2
1, 2
2, 3
5, 3
3, 3
4, 1
2, 3
0, 3
2, 1
3, 3
3, 1
2, 1
0, 5
2, 2
5, 0
0, 4
0, 3
2, 1
2, 0
0, 2
1, 3
1, 2
3, 1
0, 0
2, 3
0, 0
1, 2
2, 2
3, 2
2, 1
1, 0
2, 0
1, 1
0, 3
4, 2
6, 1
2, 0
7, 0
2, 4
5, 4
6, 1
4, 5
3, 2
2, 8
5, 5
2, 3
4, 3
4, 0
3, 5
4, 1
1, 3
2, 2
5, 0
1, 3
2, 0
1, 2
0, 1
0, 1
1, 1
3, 0
0, 3
1, 0
2, 3
3, 2
0, 2
3, 2
2, 2
3, 0
3, 5
1, 4
1, 2
0, 1
3, 2
1, 3
0, 0
1, 1
1, 0
1, 2
0, 1
0, 1
1, 3
0, 0
1, 1
0, 2
1, 0
1, 0
1, 0
2, 0
1, 1
2, 1
0, 3
1, 1
2, 2
3, 0
0, 1
1, 1
1, 2
2, 2
1, 1
2, 0
1, 4
1, 2
0, 1
0, 0
0, 1
0, 1
3, 0
2, 1
0, 1
0, 3
1, 2
0, 0
0, 3
1, 1
0, 0
3, 1
2, 2
3, 0
0, 1
0, 0
0, 1
2, 1
0, 0
0, 0
0, 1
1, 0
1, 2
0, 3
0, 1
0, 0
0, 0
0, 1
0, 0
0, 0
0, 1
1, 0
1, 1
0, 0
1, 0
0, 0
0, 3
0, 1
0, 0
1, 0
0, 0
0, 0
0, 0
0, 0
0, 0
1, 1
0, 0
3, 0
0, 1
1, 1
0, 0
2, 0
1, 0
0, 1
0, 1
1, 2
0, 1
0, 2
1, 0
1, 1
1, 1
1, 1
2, 0
0, 2
0, 2
0, 0
1, 1
0, 0
2, 1
1, 0
0, 2
2, 0
0, 1
0, 1
1, 1
2, 1
0, 2
2, 1
1, 1
3, 0
0, 0
0, 1
0, 0
1, 0
2, 0
1, 4
0, 0
0, 1
1, 0
0, 0
1, 0
0, 0
0, 0
1, 0
0, 0
3, 1
0, 0
1, 0
0, 0
1, 0
0, 1
0, 0
0, 1
0, 1
1, 0
1, 0
0, 0
0, 0
0, 0
1, 0
0, 0
1, 0
1, 1
0, 0
0, 0
2, 0
1, 0
0, 0
0, 0
0, 1
0, 1
0, 0
1, 0
1, 0
1, 0
0, 0
0, 0
1, 0
0, 0
1, 0
0, 1
0, 0
2, 1
1, 0
1, 0
1, 0
0, 1
1, 0
0, 2
0, 0
0, 0
0, 1
0, 0
0, 1
1, 0
1, 0
0, 0
1, 1
2, 0
2, 0
0, 0
0, 0
1, 0
0, 0
0, 0
0, 0
0, 0
0, 0
1, 0
0, 0
0, 0
1, 0
1, 0
1, 0
1, 0
0, 1
1, 0
0, 0
0, 0
0, 1
0, 1
0, 1
0, 1
0, 2
0, 1
0, 0
0, 0
0, 0
1, 0
0, 0
1, 0
0, 0
0, 0
0, 0
0, 2
2, 0
0, 0
1, 0
0, 1
0, 0
0, 0
0, 0
0, 1
0, 0
2, 1
0, 0
1, 0
0, 0
2, 0
1, 0
0, 1
0, 0
0, 1
0, 0
0, 0
0, 0
0, 0
0, 0
0, 0
0, 0
0, 1
0, 1
1, 1
0, 0
0, 0
0, 0
0, 0
1, 0
0, 0
0, 0
0, 2
0, 0
0, 0
0, 0
0, 0
0, 0
0, 0
0, 0
0, 0
0, 0
0, 0
0, 0
0, 0
0, 0
1, 1
0, 0
0, 0
0, 0
0, 0
0, 0
0, 1
0, 0
0, 0
1, 0
0, 1
2, 0
0, 0
0, 0
0, 1
0, 0
0, 0
0, 0
1, 0
0, 1
0, 0
0, 0
0, 0
0, 0
0, 0
0, 0
0, 0
0, 0
0, 1
0, 0
1, 0
0, 0
0, 0
0, 0
0, 0
0, 0
0, 0
0, 0
0, 1
0, 0
0, 1
0, 0
0, 0
0, 1
0, 0
0, 0
0, 0
0, 0
0, 0
0, 0
0, 0
0, 0
0, 0
0, 0
0, 0
0, 0
0, 1
0, 0
0, 1
0, 0
0, 0
0, 0
0, 0
0, 0
1, 0
0, 0
0, 0
0, 0
0, 0
0, 0
0, 0
0, 0
0, 0
1, 0
0, 0
0, 0
0, 0
0, 0
0, 0
0, 0
0, 0
0, 0
0, 0
0, 0
0, 1
0, 0
0, 0
0, 1
0, 0
0, 0
0, 0
0, 0
0, 0
0, 0
0, 0
0, 0
0, 0
0, 0
0, 0
0, 0
0, 0
0, 0
0, 0
0, 0
0, 0
0, 0
0, 0
0, 0
0, 0
0, 0
0, 1
0, 0
0, 0
0, 0
0, 0
0, 0
0, 0
0, 0
0, 0
0, 0
0, 0
0, 0
1, 0
0, 0
0, 0
0, 0
0, 0
1, 0
0, 0
0, 0
0, 0
0, 0
0, 0
0, 0
0, 0
0, 0
0, 0
0, 0
0, 0
0, 1
0, 0
0, 0
0, 0
0, 0
0, 0
0, 1
0, 0
0, 0
0, 0
0, 0
0, 0
0, 0
0, 0
0, 0
0, 0
0, 0
0, 0
0, 0
0, 0
0, 0
0, 0
0, 0
0, 0
0, 0
0, 0
0, 0
0, 0
0, 0
0, 0
0, 0
0, 0
0, 0
0, 0
0, 0
0, 0
0, 0
0, 0
0, 0
0, 0
0, 0
0, 0
0, 0
0, 0
0, 0
0, 0
0, 0
0, 0
0, 0
0, 0
0, 0
0, 0
0, 0
0, 0
0, 0
0, 0
0, 0
0, 0
0, 0
0, 0
0, 0
0, 0
0, 0
0, 0
0, 0
0, 0
0, 0
0, 0
1, 0
0, 0
0, 0
0, 0
0, 0
0, 0
0, 0
0, 1
0, 0
0, 0
0, 0
0, 0
0, 0
0, 0
0, 0
0, 0
0, 0
0, 0
0, 0
0, 0
0, 0
0, 0
0, 0
0, 0
0, 0
0, 0
0, 0
0, 0
0, 0
0, 0
0, 0
0, 0
0, 0
0, 0
0, 0
0, 0
0, 0
0, 0
0, 0
0, 0
0, 0
0, 0
0, 0
0, 0
0, 0
0, 0
0, 0
0, 0
0, 0
0, 0
0, 0
0, 0
0, 0
0, 0
0, 0
0, 0
0, 0
0, 0
0, 0
0, 0
0, 0
0, 0
0, 0
0, 0
0, 0
0, 0
0, 0
0, 0
0, 0
0, 0
0, 0
0, 0
0, 0
0, 0
0, 0
0, 0
0, 0
0, 0
0, 0
0, 0
0, 0
0, 0
0, 0
0, 0
0, 0
0, 0
0, 0
0, 0
0, 0
0, 0
0, 0
0, 0
0, 0
0, 0
0, 0
0, 0
0, 0
0, 0
0, 0
0, 0
0, 0
0, 0
0, 0
0, 0
0, 0
0, 0
0, 0
0, 0
0, 0
0, 0
0, 0
0, 0
0, 0
0, 0
0, 0
0, 0
0, 0
0, 0
0, 0
0, 0
0, 0
0, 0
0, 0
0, 0
0, 0
0, 0
0, 0
0, 0
0, 0
0, 0
0, 0
0, 0
0, 0
0, 0
0, 0
0, 0
0, 0
0, 0
0, 0
0, 0
0, 0
0, 0
0, 0
0, 0
0, 0
0, 0
0, 0
0, 0
0, 0
0, 0
0, 0
0, 0
0, 0
0, 0
0, 0
0, 0
0, 0
0, 0
0, 0
0, 0
0, 0
0, 0
0, 0
0, 0
0, 0
0, 0
0, 0
0, 0
0, 0
0, 0
0, 0
0, 0
0, 0
0, 0
0, 0
0, 0
0, 0
0, 0
0, 0
0, 0
0, 0
0, 0
0, 0
0, 0
0, 0
0, 0
0, 0
0, 0
0, 0
0, 0
0, 0
0, 0
0, 0
0, 0
0, 0
0, 0
0, 0
0, 0
0, 0
0, 0
0, 0
0, 0
0, 0
0, 0
0, 0
0, 0
0, 0
0, 0
0, 0
0, 0
0, 0
0, 0
0, 0
0, 0
0, 0
0, 0
0, 0
0, 0
0, 0
0, 0
0, 0
0, 0
0, 0
0, 0
0, 0
0, 0
0, 0
0, 0
0, 0
0, 0
0, 0
0, 0
0, 0
0, 0
0, 0
0, 0
0, 0
0, 0
0, 0
0, 0
0, 0
0, 0
0, 0
0, 0
0, 0
0, 0
0, 0
0, 0
0, 0
0, 0
0, 0
0, 0
0, 0
0, 0
0, 0
0, 0
0, 0
0, 0
0, 0
0, 0
0, 0
0, 0
0, 0
0, 0
0, 0
0, 0
0, 0
0, 0
0, 0
0, 0
0, 0
0, 0
0, 0
0, 0
0, 0
0, 0
0, 0
0, 0
0, 0
0, 0
0, 0
0, 0
0, 0
0, 0
0, 0
0, 0
0, 0
0, 0
0, 0
0, 0
0, 0
0, 0
0, 0
0, 0
0, 0
0, 0
0, 0
0, 0
0, 0
0, 0
0, 0
0, 0
0, 0
0, 0
0, 0
0, 0
0, 0
0, 0
0, 0
0, 0
0, 0
0, 0
0, 0
0, 0
0, 0
0, 0
0, 0
0, 0
0, 0
0, 0
0, 0
#ENDOFDATA     end of spectrum data