File: host_upload/06-09-2024/ps_0852/dump3/ps__0852shot_2403.msa
#FORMAT      : EMSA/MAS spectral data file
#VERSION     : TC202v2.0 PIXL
#TITLE       : N/A
#DATE        :       Date in the format DD-MMM-YYYY, for example 07-JUL-2010
#TIME        :             The time of day at which the spectrum was recorded, in 24-hour format
#OWNER       : PIXL Flight Model       (PIXL will use this to indicate which instrument took the data.)
#NPOINTS     : 4096     Number of data points in the spectrum (This can be zero for configuration only files)
#NCOLUMNS    : 2     Number of data columns in the spectrum (This can be zero for configuration only files)
#XUNITS      : eV
#YUNITS      : COUNTS
#DATATYPE    : YY
#XPERCHAN    : 7.862, 7.881   eV per channel (separate by commas if more than one detector)
#OFFSET      : 18.5, -22.4         eV of first channel  (separate by commas if more than one detector
#SIGNALTYPE  : XRF
#YP_TEMP     : 2.3
#LIVETIME    : 8.56358, 8.53622   seconds (separate by commas if more than one detector)
#REALTIME    : 10, 10.0   seconds (separate by commas if more than one detector)
#SPECTRUM    : start of spectrum data
0, 0
0, 0
0, 0
0, 0
0, 0
0, 0
0, 0
0, 0
0, 0
0, 0
0, 0
0, 0
0, 0
0, 0
0, 0
0, 0
0, 0
0, 0
0, 0
0, 0
0, 0
0, 0
0, 0
0, 0
0, 0
0, 0
0, 0
0, 0
0, 0
0, 0
0, 0
0, 1
0, 0
0, 2
0, 0
0, 1
1, 0
0, 0
2, 0
1, 1
0, 3
0, 2
3, 0
1, 0
1, 0
4, 1
1, 1
3, 0
7, 7
14, 13
33, 34
42, 37
64, 69
75, 86
89, 74
101, 65
58, 51
45, 35
40, 29
18, 15
7, 9
6, 3
2, 7
1, 3
4, 3
6, 1
5, 10
12, 9
32, 26
52, 35
100, 83
199, 182
304, 247
342, 346
438, 409
493, 420
386, 411
314, 255
200, 203
120, 125
69, 60
36, 35
19, 14
12, 6
3, 6
2, 5
2, 1
4, 3
4, 1
1, 2
0, 2
1, 1
1, 2
3, 1
1, 4
7, 5
3, 7
8, 2
2, 6
8, 5
7, 10
8, 4
7, 7
4, 3
1, 11
3, 4
9, 14
6, 7
19, 6
17, 16
28, 15
32, 18
55, 31
64, 52
67, 50
87, 50
64, 63
76, 46
53, 36
43, 35
29, 32
30, 21
27, 26
21, 16
20, 22
18, 13
8, 15
10, 11
11, 6
8, 4
7, 5
2, 5
3, 5
2, 3
2, 3
2, 2
0, 3
1, 4
2, 1
3, 5
5, 1
2, 3
6, 3
2, 6
5, 3
1, 4
3, 3
11, 1
10, 5
12, 4
28, 11
19, 3
34, 14
31, 22
47, 29
46, 46
58, 41
42, 56
52, 42
36, 45
35, 24
27, 27
20, 12
10, 14
14, 15
10, 4
10, 13
7, 21
5, 15
16, 20
10, 21
9, 15
7, 14
10, 9
11, 12
6, 11
12, 14
17, 5
16, 4
15, 5
15, 9
17, 11
10, 9
10, 2
11, 7
5, 2
8, 4
9, 6
5, 7
11, 6
3, 10
14, 6
8, 12
12, 10
8, 18
13, 17
11, 19
11, 20
15, 10
14, 17
18, 29
16, 18
16, 10
9, 14
7, 15
6, 15
10, 10
7, 12
9, 18
8, 13
9, 12
8, 12
7, 17
9, 6
5, 14
5, 12
5, 10
5, 12
4, 9
7, 12
6, 7
7, 9
7, 9
11, 5
9, 14
21, 6
20, 13
25, 12
24, 23
34, 20
29, 14
24, 26
25, 18
25, 14
41, 18
20, 11
29, 12
39, 11
25, 9
37, 5
40, 9
27, 11
47, 11
33, 17
16, 23
31, 27
40, 39
34, 39
50, 65
56, 55
64, 60
53, 72
52, 50
60, 47
48, 28
51, 22
24, 26
25, 18
15, 18
22, 21
23, 18
29, 26
66, 55
92, 97
166, 186
275, 324
501, 533
800, 875
1158, 1256
1572, 1661
1985, 2099
2371, 2248
2399, 2350
2498, 2157
2083, 1828
1802, 1493
1312, 1059
904, 713
596, 448
396, 267
201, 137
106, 70
58, 33
30, 21
23, 22
17, 21
21, 25
13, 26
17, 21
21, 27
31, 28
33, 37
45, 51
53, 73
97, 124
157, 187
183, 243
266, 287
322, 338
359, 373
365, 363
373, 340
320, 278
266, 219
186, 152
124, 113
99, 84
52, 62
31, 46
18, 40
9, 35
8, 33
6, 24
11, 25
21, 23
19, 25
20, 23
21, 21
27, 14
6, 21
15, 12
18, 15
10, 8
9, 7
10, 9
6, 5
4, 5
5, 5
11, 3
5, 6
9, 3
3, 8
3, 5
2, 4
2, 2
3, 2
5, 6
4, 8
4, 6
13, 4
6, 3
3, 6
6, 10
6, 6
6, 6
4, 9
6, 9
3, 14
7, 12
10, 7
9, 11
5, 13
12, 16
9, 12
6, 11
7, 4
9, 8
3, 1
3, 4
4, 4
1, 3
11, 5
6, 4
7, 3
10, 8
8, 7
10, 7
7, 3
5, 5
4, 6
4, 4
10, 5
6, 3
7, 3
4, 5
4, 3
2, 5
3, 3
4, 3
4, 4
5, 4
4, 4
4, 0
3, 2
7, 4
2, 4
1, 3
2, 1
0, 4
6, 2
3, 7
5, 3
4, 5
1, 4
4, 2
8, 5
2, 4
6, 8
5, 7
6, 6
3, 8
13, 5
7, 5
8, 8
9, 4
5, 6
7, 4
6, 7
7, 6
11, 6
5, 7
8, 6
10, 3
4, 7
3, 6
5, 2
4, 3
2, 1
3, 4
4, 7
3, 5
5, 2
7, 4
0, 6
1, 6
2, 3
3, 3
1, 5
4, 4
2, 0
4, 3
1, 7
5, 4
1, 2
4, 1
3, 5
3, 4
3, 2
1, 3
4, 3
3, 2
1, 1
4, 3
2, 2
6, 3
5, 2
3, 3
6, 1
2, 4
4, 2
5, 0
4, 1
3, 4
3, 0
3, 1
1, 2
2, 3
6, 3
4, 3
2, 3
2, 6
5, 7
2, 1
0, 3
4, 3
2, 1
5, 4
2, 3
2, 2
4, 1
1, 2
4, 2
3, 0
4, 2
4, 1
5, 5
2, 4
3, 2
2, 3
5, 1
3, 0
3, 1
2, 2
1, 2
2, 2
3, 2
4, 0
2, 1
1, 1
1, 8
0, 4
2, 3
2, 4
1, 6
4, 1
4, 4
3, 3
3, 1
2, 2
4, 4
2, 3
3, 2
4, 3
5, 10
2, 0
6, 0
4, 2
0, 3
4, 0
4, 4
2, 3
6, 1
3, 2
3, 2
1, 1
3, 2
0, 3
1, 4
3, 3
2, 1
0, 2
3, 3
3, 2
1, 2
0, 2
3, 1
1, 2
2, 2
4, 1
3, 1
1, 3
1, 2
0, 1
1, 1
2, 0
5, 1
3, 2
4, 3
2, 1
1, 3
3, 4
5, 2
4, 1
6, 2
4, 3
6, 0
3, 2
5, 0
3, 4
0, 1
2, 3
1, 1
1, 5
2, 2
0, 0
0, 1
1, 1
0, 0
1, 0
0, 3
1, 2
2, 3
1, 0
1, 2
1, 2
1, 2
3, 1
1, 4
6, 2
4, 2
2, 3
2, 2
1, 5
3, 2
0, 3
2, 4
1, 2
2, 1
2, 1
1, 3
3, 1
1, 1
0, 1
3, 3
1, 5
1, 1
2, 3
2, 1
2, 1
2, 0
1, 3
1, 0
1, 2
0, 0
1, 1
0, 1
0, 4
1, 1
1, 4
2, 3
0, 1
0, 2
0, 0
1, 2
3, 1
2, 0
3, 2
0, 2
0, 0
1, 1
1, 0
0, 1
0, 0
2, 0
0, 2
0, 2
0, 2
1, 1
0, 0
0, 0
0, 1
2, 0
0, 2
0, 1
1, 1
0, 1
1, 2
0, 1
1, 2
1, 0
0, 0
1, 1
0, 1
2, 0
0, 1
2, 2
2, 0
0, 0
1, 1
0, 0
1, 0
0, 0
0, 1
2, 1
1, 0
0, 0
1, 2
1, 0
0, 1
0, 0
2, 1
0, 1
1, 0
3, 0
0, 1
0, 1
1, 2
1, 0
1, 1
0, 0
2, 3
0, 0
1, 1
1, 3
0, 0
0, 0
1, 0
2, 0
0, 0
0, 0
0, 0
0, 1
0, 0
1, 0
3, 1
0, 0
0, 0
0, 0
0, 0
0, 1
0, 0
0, 0
0, 1
0, 0
2, 0
1, 1
0, 0
1, 0
0, 0
2, 1
0, 1
1, 0
0, 0
2, 1
0, 1
0, 0
0, 1
1, 0
1, 0
1, 0
2, 0
0, 0
0, 0
1, 1
0, 1
1, 1
0, 0
0, 1
0, 1
1, 0
0, 1
0, 0
0, 0
0, 1
0, 0
1, 2
0, 1
0, 0
0, 2
0, 1
0, 0
0, 2
0, 1
1, 0
0, 0
0, 0
0, 0
0, 2
0, 0
1, 0
0, 0
1, 1
1, 0
0, 0
0, 0
0, 0
0, 0
0, 0
0, 0
0, 0
1, 0
0, 1
0, 0
0, 0
0, 0
0, 1
1, 1
0, 0
0, 0
0, 1
1, 2
0, 0
1, 1
0, 1
0, 0
0, 1
0, 0
0, 0
0, 0
0, 0
1, 0
0, 3
0, 0
1, 1
2, 0
0, 0
1, 0
0, 0
1, 0
0, 1
0, 0
0, 0
0, 0
1, 0
0, 1
0, 1
0, 1
1, 0
0, 1
0, 0
0, 0
0, 1
1, 1
0, 0
0, 0
0, 1
0, 2
1, 0
0, 1
0, 0
0, 0
0, 0
0, 0
2, 1
1, 0
0, 0
0, 0
0, 0
0, 0
0, 0
0, 0
0, 0
0, 1
0, 0
0, 1
1, 0
0, 0
0, 0
0, 0
0, 0
0, 0
0, 0
0, 0
1, 1
0, 0
0, 1
0, 0
0, 0
0, 0
0, 0
0, 2
0, 0
0, 0
0, 0
0, 0
0, 0
0, 0
0, 1
0, 1
0, 1
0, 0
0, 0
0, 0
0, 0
0, 0
0, 0
0, 0
0, 0
1, 0
0, 0
0, 0
0, 0
0, 0
0, 0
0, 0
1, 0
0, 0
0, 0
0, 0
0, 0
0, 1
1, 1
0, 1
0, 0
0, 0
0, 0
0, 0
1, 1
0, 0
0, 0
0, 0
0, 0
0, 0
0, 0
0, 0
0, 0
0, 0
0, 0
0, 0
0, 0
0, 0
0, 0
0, 1
0, 0
0, 0
0, 0
0, 0
0, 1
0, 0
0, 0
0, 0
0, 0
0, 0
0, 0
0, 0
0, 0
0, 0
0, 0
1, 0
0, 0
0, 0
0, 0
1, 0
0, 0
1, 0
0, 0
0, 0
0, 0
0, 0
0, 0
0, 0
0, 0
0, 0
0, 0
0, 1
0, 0
0, 0
0, 0
0, 0
0, 0
0, 0
0, 0
0, 0
0, 0
0, 0
0, 0
0, 0
0, 0
0, 0
0, 0
0, 1
0, 0
0, 0
1, 0
0, 0
0, 0
0, 0
0, 0
0, 0
0, 0
0, 0
0, 0
0, 0
0, 0
0, 0
0, 0
0, 0
0, 0
0, 0
0, 0
0, 0
0, 0
0, 0
0, 0
0, 0
0, 0
0, 0
0, 0
0, 0
0, 0
0, 0
0, 0
0, 0
0, 0
0, 1
0, 0
0, 0
0, 0
0, 0
0, 0
0, 0
0, 0
0, 0
0, 0
0, 1
0, 0
0, 0
0, 0
0, 0
0, 0
0, 0
0, 0
0, 0
0, 0
0, 0
0, 0
0, 0
0, 0
0, 0
0, 0
0, 0
0, 0
0, 0
0, 0
0, 0
0, 0
0, 0
0, 0
0, 0
0, 0
0, 0
0, 0
0, 1
0, 0
0, 0
0, 0
0, 0
0, 0
0, 0
0, 0
0, 0
0, 0
0, 0
0, 0
0, 0
0, 0
0, 0
0, 0
0, 0
0, 0
0, 0
0, 0
0, 0
0, 0
0, 0
0, 0
0, 0
0, 0
0, 0
0, 0
0, 0
0, 0
0, 0
0, 0
0, 0
0, 0
0, 0
0, 0
0, 0
0, 0
0, 0
0, 0
0, 0
0, 0
0, 0
0, 0
0, 0
0, 0
0, 0
0, 0
0, 0
0, 0
0, 0
0, 0
0, 0
0, 0
0, 0
0, 0
0, 0
0, 0
0, 0
0, 0
0, 1
0, 0
0, 0
0, 0
0, 0
0, 0
0, 0
0, 0
0, 0
0, 0
0, 0
0, 0
0, 0
0, 0
0, 0
0, 0
0, 0
0, 0
0, 0
0, 0
0, 0
0, 0
0, 0
0, 0
0, 0
0, 0
0, 0
0, 0
0, 0
0, 0
0, 0
0, 0
0, 0
0, 0
0, 0
0, 0
0, 0
0, 0
0, 0
0, 0
0, 0
0, 0
0, 0
0, 0
0, 0
0, 0
0, 0
0, 0
0, 0
0, 0
0, 0
0, 0
0, 0
0, 0
0, 0
0, 0
0, 0
0, 0
0, 0
0, 0
0, 0
0, 0
0, 0
0, 0
0, 0
0, 0
0, 0
0, 0
0, 0
0, 0
0, 0
0, 0
0, 0
0, 0
0, 0
0, 0
0, 0
0, 0
0, 0
0, 0
0, 0
0, 0
0, 0
0, 0
0, 0
0, 0
0, 0
0, 0
0, 0
0, 0
0, 0
0, 0
0, 0
0, 0
0, 0
0, 0
0, 0
0, 0
0, 0
0, 0
0, 0
0, 0
0, 0
0, 0
0, 0
0, 0
0, 0
0, 0
0, 0
0, 0
0, 0
0, 0
0, 0
0, 0
0, 0
0, 0
0, 0
0, 0
0, 0
0, 0
0, 0
0, 0
0, 0
0, 0
0, 0
0, 0
0, 0
0, 0
0, 0
0, 0
0, 0
0, 0
0, 0
0, 0
0, 0
0, 0
0, 0
0, 0
0, 0
0, 0
0, 0
0, 0
0, 0
0, 0
0, 0
0, 0
0, 0
0, 0
0, 0
0, 0
0, 0
0, 0
0, 0
0, 0
0, 0
0, 0
0, 0
0, 0
0, 0
0, 0
0, 0
0, 0
0, 0
0, 0
0, 0
0, 0
0, 0
0, 0
0, 0
0, 0
0, 0
0, 0
0, 0
0, 0
0, 0
0, 0
0, 0
0, 0
0, 0
0, 0
0, 0
0, 0
0, 0
0, 0
0, 0
0, 0
0, 0
0, 0
0, 0
0, 0
0, 0
0, 0
0, 0
0, 0
0, 0
0, 0
0, 0
0, 0
0, 0
0, 0
0, 0
0, 0
0, 0
0, 0
0, 0
0, 0
0, 0
0, 0
0, 0
0, 0
0, 0
0, 0
0, 0
0, 0
0, 0
0, 0
0, 0
0, 0
0, 0
0, 0
0, 0
0, 0
0, 0
0, 0
0, 0
0, 0
0, 0
0, 0
0, 0
0, 0
0, 0
0, 0
0, 0
0, 0
0, 0
0, 0
0, 0
0, 0
0, 0
0, 0
0, 0
0, 0
0, 0
0, 0
0, 0
0, 0
0, 0
0, 0
0, 0
0, 0
0, 0
0, 0
0, 0
0, 0
0, 0
0, 0
0, 0
0, 0
0, 0
0, 0
0, 0
0, 0
0, 0
0, 0
0, 0
0, 0
0, 0
0, 0
0, 0
0, 0
0, 0
0, 0
0, 0
0, 0
0, 0
0, 0
0, 0
0, 0
0, 0
0, 0
0, 0
0, 0
0, 0
0, 0
0, 0
0, 0
0, 0
0, 0
0, 0
0, 0
0, 0
0, 0
0, 0
0, 0
0, 0
0, 0
0, 0
0, 0
0, 0
0, 0
0, 0
0, 0
0, 0
0, 0
0, 0
0, 0
0, 0
0, 0
0, 0
0, 0
0, 0
0, 0
0, 0
0, 0
#ENDOFDATA     end of spectrum data