File: host_upload/06-09-2024/ps_0852/dump3/ps__0852shot_2206.msa
#FORMAT      : EMSA/MAS spectral data file
#VERSION     : TC202v2.0 PIXL
#TITLE       : N/A
#DATE        :       Date in the format DD-MMM-YYYY, for example 07-JUL-2010
#TIME        :             The time of day at which the spectrum was recorded, in 24-hour format
#OWNER       : PIXL Flight Model       (PIXL will use this to indicate which instrument took the data.)
#NPOINTS     : 4096     Number of data points in the spectrum (This can be zero for configuration only files)
#NCOLUMNS    : 2     Number of data columns in the spectrum (This can be zero for configuration only files)
#XUNITS      : eV
#YUNITS      : COUNTS
#DATATYPE    : YY
#XPERCHAN    : 7.862, 7.881   eV per channel (separate by commas if more than one detector)
#OFFSET      : 18.5, -22.4         eV of first channel  (separate by commas if more than one detector
#SIGNALTYPE  : XRF
#YP_TEMP     : 2.107
#LIVETIME    : 8.57396, 8.5616   seconds (separate by commas if more than one detector)
#REALTIME    : 10, 10.0   seconds (separate by commas if more than one detector)
#SPECTRUM    : start of spectrum data
0, 0
0, 0
0, 0
0, 0
0, 0
0, 0
0, 0
0, 0
0, 0
0, 0
0, 0
0, 0
0, 0
0, 0
0, 0
0, 0
0, 0
0, 0
0, 0
0, 0
0, 0
0, 0
0, 0
0, 0
0, 0
0, 0
0, 0
0, 0
0, 0
0, 0
0, 0
0, 0
0, 0
0, 1
0, 0
0, 1
1, 0
2, 1
1, 0
0, 4
1, 1
0, 1
0, 3
1, 2
3, 1
1, 0
3, 1
3, 1
7, 5
10, 15
16, 22
35, 44
48, 57
60, 67
62, 83
60, 71
52, 61
47, 43
17, 15
16, 13
6, 8
6, 5
4, 3
2, 7
5, 1
5, 5
3, 7
6, 13
19, 28
34, 62
80, 124
153, 176
240, 308
314, 409
370, 459
392, 440
348, 409
263, 288
188, 199
96, 130
62, 67
27, 37
16, 32
11, 12
4, 11
4, 5
6, 4
1, 4
3, 3
2, 1
3, 1
2, 2
5, 2
4, 0
10, 4
11, 4
11, 3
12, 3
8, 6
12, 10
9, 11
6, 6
5, 11
3, 20
4, 29
8, 31
5, 43
9, 36
8, 36
12, 35
35, 57
50, 35
34, 55
61, 57
45, 57
36, 64
35, 39
37, 46
21, 47
27, 27
38, 29
28, 25
23, 25
12, 30
25, 13
16, 18
10, 18
13, 9
10, 13
6, 6
7, 4
2, 2
5, 5
1, 5
3, 3
2, 1
3, 2
1, 0
6, 0
1, 3
1, 4
3, 2
3, 1
1, 3
1, 2
1, 0
1, 2
2, 5
4, 7
2, 2
11, 12
15, 12
18, 17
32, 48
57, 71
62, 85
74, 103
92, 101
112, 91
87, 89
71, 55
43, 51
29, 30
21, 13
10, 15
5, 6
7, 15
13, 9
13, 14
12, 21
11, 15
13, 13
11, 15
19, 13
11, 14
5, 7
6, 7
12, 5
11, 6
5, 4
7, 5
6, 7
4, 2
3, 5
8, 5
9, 5
7, 5
9, 5
11, 2
7, 10
12, 11
17, 12
12, 16
13, 11
9, 14
9, 20
15, 23
11, 12
17, 12
11, 16
14, 10
12, 6
11, 9
10, 7
6, 4
5, 6
8, 16
4, 14
7, 25
8, 14
2, 15
7, 27
7, 25
7, 22
6, 27
5, 28
8, 14
6, 18
4, 10
4, 14
7, 20
4, 9
7, 9
8, 15
7, 9
10, 14
15, 14
16, 16
17, 26
29, 22
27, 18
33, 22
33, 27
39, 18
31, 14
38, 14
20, 20
19, 16
20, 13
17, 19
23, 12
16, 21
13, 28
14, 23
15, 20
26, 35
26, 33
49, 46
57, 56
71, 53
69, 63
50, 84
74, 67
58, 57
55, 45
38, 26
18, 35
19, 19
15, 18
24, 24
15, 26
28, 49
46, 78
71, 143
147, 234
252, 443
425, 686
664, 987
1002, 1427
1354, 1947
1631, 2243
1901, 2389
2058, 2429
2066, 2421
1787, 1901
1493, 1530
1123, 1130
753, 758
469, 451
323, 251
164, 155
104, 79
65, 50
34, 27
21, 11
22, 17
29, 18
23, 15
18, 17
28, 17
35, 27
43, 39
43, 52
60, 79
87, 130
154, 197
194, 236
200, 297
286, 335
299, 376
300, 301
298, 327
235, 280
206, 227
148, 191
108, 105
80, 83
46, 41
36, 20
21, 15
7, 11
7, 11
9, 9
13, 6
8, 14
12, 21
6, 20
17, 19
19, 16
19, 14
20, 17
14, 11
18, 16
14, 4
10, 7
6, 8
5, 5
5, 4
10, 4
4, 1
4, 3
3, 7
2, 3
0, 6
7, 4
3, 5
4, 1
3, 6
9, 9
9, 1
8, 7
4, 6
2, 4
3, 4
6, 2
8, 8
5, 8
5, 7
3, 8
7, 7
6, 6
4, 4
3, 9
4, 8
5, 3
2, 8
5, 6
2, 3
2, 3
6, 2
3, 5
5, 4
6, 1
3, 3
3, 8
3, 5
4, 7
3, 3
4, 4
4, 6
2, 5
2, 7
3, 10
2, 8
3, 6
6, 8
5, 13
2, 14
10, 10
6, 15
8, 15
11, 15
10, 18
17, 23
18, 16
11, 9
11, 9
9, 12
8, 8
10, 8
7, 6
7, 14
5, 6
3, 9
10, 3
3, 1
6, 1
2, 4
3, 2
5, 3
4, 3
6, 3
5, 1
3, 2
3, 4
5, 3
4, 4
3, 9
9, 1
12, 4
6, 4
8, 3
3, 2
5, 4
7, 4
5, 4
2, 1
1, 3
1, 5
2, 8
1, 2
5, 1
0, 3
1, 6
3, 4
4, 5
3, 3
2, 9
5, 3
5, 5
5, 5
1, 4
2, 2
1, 4
1, 0
2, 2
3, 1
0, 6
1, 2
2, 1
1, 3
0, 2
1, 3
2, 2
2, 3
4, 4
2, 3
2, 2
2, 6
3, 1
1, 4
0, 3
0, 2
3, 3
2, 4
3, 3
1, 2
4, 4
6, 2
1, 3
3, 6
2, 2
1, 3
4, 4
4, 5
5, 4
5, 0
5, 3
5, 2
6, 3
4, 3
9, 6
3, 2
5, 1
5, 3
4, 0
2, 4
0, 2
3, 1
2, 2
1, 4
2, 0
3, 4
0, 2
2, 3
3, 1
0, 4
3, 4
2, 9
2, 5
3, 4
1, 6
2, 3
2, 3
0, 3
1, 5
0, 6
2, 4
0, 5
3, 2
2, 1
0, 3
4, 1
3, 2
2, 1
2, 3
2, 1
3, 4
2, 1
3, 0
0, 2
0, 3
2, 0
4, 1
0, 4
0, 3
2, 1
3, 5
3, 0
1, 5
1, 2
0, 3
0, 4
1, 2
2, 2
1, 1
1, 3
2, 3
2, 5
2, 4
2, 6
1, 3
2, 2
1, 3
0, 1
2, 2
4, 4
2, 5
3, 1
5, 5
0, 2
2, 7
5, 6
2, 3
2, 4
2, 6
1, 3
3, 4
0, 4
1, 0
2, 2
1, 0
1, 3
1, 4
1, 1
0, 2
2, 1
2, 0
1, 0
0, 1
6, 0
1, 2
2, 6
4, 3
2, 1
1, 4
2, 6
1, 2
2, 1
3, 2
4, 2
1, 1
1, 2
1, 0
0, 2
3, 5
1, 3
1, 0
2, 2
2, 1
2, 1
1, 2
2, 1
0, 0
3, 0
0, 1
1, 5
2, 0
2, 1
0, 0
0, 0
0, 1
0, 2
4, 1
2, 3
1, 2
0, 1
2, 3
1, 1
2, 1
0, 2
1, 2
0, 2
2, 0
1, 0
1, 3
1, 1
0, 1
0, 2
0, 1
0, 1
3, 2
0, 1
1, 0
0, 1
1, 0
2, 1
1, 0
1, 1
0, 1
2, 0
1, 0
0, 1
0, 1
0, 0
1, 0
0, 1
0, 1
0, 0
0, 0
0, 0
0, 1
1, 1
0, 2
0, 1
0, 1
0, 2
0, 0
1, 1
0, 1
0, 3
0, 0
0, 2
0, 0
0, 0
0, 1
0, 1
0, 2
2, 4
1, 0
1, 1
0, 1
1, 0
0, 0
0, 0
1, 2
0, 2
0, 0
0, 0
0, 1
2, 0
0, 0
2, 0
0, 0
0, 0
0, 0
0, 0
2, 2
1, 1
0, 1
1, 2
0, 1
1, 0
0, 0
1, 1
0, 0
1, 0
0, 0
1, 0
1, 1
0, 1
2, 0
0, 0
0, 0
1, 0
2, 0
0, 0
0, 0
0, 1
1, 0
0, 0
1, 1
0, 2
1, 1
0, 0
1, 1
0, 1
1, 0
0, 0
0, 1
0, 1
0, 2
1, 0
0, 1
0, 0
1, 0
0, 0
0, 0
0, 0
0, 0
1, 1
0, 0
1, 0
0, 2
0, 0
0, 0
1, 1
0, 0
0, 1
0, 1
0, 1
0, 2
2, 0
1, 0
1, 0
0, 0
0, 1
1, 0
0, 0
0, 0
0, 0
0, 1
0, 1
0, 0
0, 1
1, 1
0, 0
0, 0
0, 0
0, 0
1, 1
0, 0
0, 1
0, 0
0, 2
1, 1
0, 1
0, 0
0, 0
0, 0
0, 0
0, 0
1, 0
1, 0
0, 0
0, 1
1, 0
0, 0
0, 0
1, 0
0, 0
0, 0
0, 0
0, 1
1, 0
0, 0
1, 0
1, 1
1, 0
0, 1
0, 0
0, 0
1, 0
0, 0
0, 0
0, 0
0, 0
1, 1
0, 0
1, 0
0, 0
1, 1
0, 0
0, 0
1, 0
0, 0
0, 0
0, 0
0, 1
0, 1
1, 0
1, 0
0, 0
0, 1
0, 0
0, 1
0, 0
0, 0
0, 0
0, 1
0, 0
0, 0
0, 1
0, 0
1, 0
0, 0
0, 0
0, 0
2, 0
0, 1
0, 0
0, 1
0, 2
0, 0
0, 0
1, 0
1, 0
0, 0
0, 0
0, 0
0, 0
0, 0
1, 0
0, 0
0, 0
0, 0
0, 0
0, 0
0, 0
0, 0
0, 0
0, 0
0, 0
0, 1
0, 0
0, 0
0, 0
0, 0
0, 0
0, 0
0, 0
0, 0
0, 1
0, 1
0, 0
1, 0
0, 0
0, 0
0, 0
0, 0
0, 0
0, 0
0, 0
2, 0
0, 0
0, 0
0, 0
0, 0
0, 0
0, 0
0, 0
0, 0
0, 0
1, 0
0, 0
0, 0
0, 0
0, 0
0, 0
0, 0
0, 0
0, 0
0, 0
0, 0
0, 0
0, 0
1, 0
0, 0
0, 1
0, 0
0, 0
0, 0
0, 0
0, 0
1, 0
0, 0
0, 0
0, 0
0, 0
0, 0
0, 0
0, 0
1, 0
0, 0
0, 1
0, 0
0, 0
0, 0
0, 0
0, 0
0, 0
0, 0
0, 0
0, 0
0, 0
0, 0
0, 0
0, 0
0, 0
0, 0
0, 0
0, 0
0, 0
0, 0
0, 0
0, 0
0, 0
0, 0
0, 0
0, 0
0, 0
0, 0
0, 0
0, 0
0, 0
0, 0
0, 0
0, 0
0, 0
0, 0
0, 0
0, 0
0, 0
0, 0
0, 0
0, 0
0, 0
0, 0
0, 0
0, 0
0, 0
0, 0
0, 0
0, 0
0, 0
0, 0
0, 0
0, 1
0, 0
0, 0
0, 0
0, 0
0, 0
0, 0
0, 0
0, 0
0, 0
0, 0
0, 1
0, 0
0, 0
0, 0
0, 0
0, 0
0, 0
0, 0
0, 0
0, 0
0, 0
0, 0
0, 0
0, 0
0, 0
0, 0
0, 0
0, 0
0, 0
0, 0
0, 0
0, 0
0, 0
0, 0
0, 0
0, 0
0, 0
0, 0
0, 0
0, 0
0, 0
0, 0
0, 0
0, 0
1, 0
0, 0
0, 0
0, 0
0, 0
0, 0
0, 0
0, 0
0, 0
0, 0
0, 0
0, 0
0, 0
0, 0
0, 0
0, 0
0, 0
0, 0
0, 0
0, 0
0, 0
0, 0
0, 0
0, 0
0, 0
0, 0
0, 0
0, 0
0, 0
0, 0
0, 0
0, 0
0, 0
0, 0
0, 0
0, 0
0, 0
0, 0
0, 0
0, 0
0, 0
0, 0
0, 0
0, 0
0, 0
0, 0
0, 0
0, 0
0, 0
0, 0
0, 0
0, 0
0, 0
0, 0
0, 0
0, 0
0, 0
0, 0
0, 0
0, 0
0, 0
0, 0
0, 0
0, 0
0, 0
0, 0
0, 0
0, 0
0, 0
0, 0
0, 0
0, 0
0, 0
0, 0
0, 0
0, 0
0, 0
0, 0
0, 0
0, 0
0, 0
0, 0
0, 0
0, 0
0, 0
0, 0
0, 0
1, 0
0, 0
0, 0
0, 0
0, 0
0, 0
0, 0
0, 0
0, 0
0, 0
0, 0
0, 0
0, 0
0, 0
0, 0
0, 0
0, 0
0, 0
0, 0
0, 0
0, 0
0, 0
0, 0
0, 0
0, 0
0, 0
0, 0
0, 0
0, 0
0, 0
0, 0
0, 0
0, 0
0, 0
0, 0
0, 0
0, 0
0, 0
0, 0
0, 0
0, 0
0, 0
0, 0
0, 0
0, 0
0, 0
0, 0
0, 0
0, 0
0, 0
0, 0
0, 0
0, 0
0, 0
0, 0
0, 0
0, 0
0, 0
0, 0
0, 0
0, 0
0, 0
0, 0
0, 0
0, 0
0, 0
0, 0
0, 0
0, 0
0, 0
0, 0
0, 0
0, 0
0, 0
0, 0
0, 0
0, 0
0, 0
0, 0
0, 0
0, 0
0, 0
0, 0
0, 0
0, 0
0, 0
0, 0
0, 0
0, 0
0, 0
0, 0
0, 0
0, 0
0, 0
0, 0
0, 0
0, 0
0, 0
0, 0
0, 0
0, 0
0, 0
0, 0
0, 0
0, 0
0, 0
0, 0
0, 0
0, 0
0, 0
0, 0
0, 0
0, 0
0, 0
0, 0
0, 0
0, 0
0, 0
0, 0
0, 0
0, 0
0, 0
0, 0
0, 0
0, 0
0, 0
0, 0
0, 0
0, 0
0, 0
0, 0
0, 0
0, 0
0, 0
0, 0
0, 0
0, 0
0, 0
0, 0
0, 0
0, 0
0, 0
0, 0
0, 0
0, 0
0, 0
0, 0
0, 0
0, 0
0, 0
0, 0
0, 0
0, 0
0, 0
0, 0
0, 0
0, 0
0, 0
0, 0
0, 0
0, 0
0, 0
0, 0
0, 0
0, 0
0, 0
0, 0
0, 0
0, 0
0, 0
0, 0
0, 0
0, 0
0, 0
0, 0
0, 0
0, 0
0, 0
0, 0
0, 0
0, 0
0, 0
0, 0
0, 0
0, 0
0, 0
0, 0
0, 0
0, 0
0, 0
0, 0
0, 0
0, 0
0, 0
0, 0
0, 0
0, 0
0, 0
0, 0
0, 0
0, 0
0, 0
0, 0
0, 0
0, 0
0, 0
0, 0
0, 0
0, 0
0, 0
0, 0
0, 0
0, 0
0, 0
0, 0
0, 0
0, 0
0, 0
0, 0
0, 0
0, 0
0, 0
0, 0
0, 0
0, 0
0, 0
0, 0
0, 0
0, 0
0, 0
0, 0
0, 0
0, 0
0, 0
0, 0
0, 0
0, 0
0, 0
0, 0
0, 0
0, 0
0, 0
0, 0
0, 0
0, 0
0, 0
0, 0
0, 0
0, 0
0, 0
0, 0
0, 0
0, 0
0, 0
0, 0
0, 0
0, 0
0, 0
0, 0
0, 0
0, 0
0, 0
0, 0
0, 0
0, 0
0, 0
0, 0
0, 0
0, 0
0, 0
0, 0
0, 0
0, 0
0, 0
0, 0
0, 0
0, 0
0, 0
0, 0
0, 0
0, 0
0, 0
0, 0
0, 0
0, 0
0, 0
0, 0
#ENDOFDATA     end of spectrum data