File: host_upload/06-09-2024/ps_0852/dump3/ps__0852shot_2392.msa
#FORMAT      : EMSA/MAS spectral data file
#VERSION     : TC202v2.0 PIXL
#TITLE       : N/A
#DATE        :       Date in the format DD-MMM-YYYY, for example 07-JUL-2010
#TIME        :             The time of day at which the spectrum was recorded, in 24-hour format
#OWNER       : PIXL Flight Model       (PIXL will use this to indicate which instrument took the data.)
#NPOINTS     : 4096     Number of data points in the spectrum (This can be zero for configuration only files)
#NCOLUMNS    : 2     Number of data columns in the spectrum (This can be zero for configuration only files)
#XUNITS      : eV
#YUNITS      : COUNTS
#DATATYPE    : YY
#XPERCHAN    : 7.862, 7.881   eV per channel (separate by commas if more than one detector)
#OFFSET      : 18.5, -22.4         eV of first channel  (separate by commas if more than one detector
#SIGNALTYPE  : XRF
#YP_TEMP     : 2.235
#LIVETIME    : 8.56479, 8.56108   seconds (separate by commas if more than one detector)
#REALTIME    : 10, 10.0   seconds (separate by commas if more than one detector)
#SPECTRUM    : start of spectrum data
0, 0
0, 0
0, 0
0, 0
0, 0
0, 0
0, 0
0, 0
0, 0
0, 0
0, 0
0, 0
0, 0
0, 0
0, 0
0, 0
0, 0
0, 0
0, 0
0, 0
0, 0
0, 0
0, 0
0, 0
0, 0
0, 0
0, 0
0, 0
0, 0
0, 0
0, 0
0, 0
0, 0
1, 0
0, 0
0, 1
0, 0
0, 0
1, 1
1, 0
0, 0
2, 1
0, 1
0, 0
0, 2
2, 1
5, 4
5, 3
12, 4
17, 11
22, 22
39, 40
65, 42
80, 68
94, 68
89, 61
75, 51
55, 30
32, 23
14, 15
5, 7
13, 3
5, 2
1, 5
4, 5
11, 5
10, 4
15, 4
24, 14
51, 46
106, 84
182, 171
279, 246
392, 309
481, 405
465, 434
432, 319
309, 248
236, 184
144, 113
91, 61
49, 29
15, 15
12, 5
9, 6
2, 3
5, 2
2, 4
0, 1
1, 1
1, 2
0, 0
2, 1
2, 1
4, 2
3, 5
3, 2
5, 7
8, 7
8, 2
7, 6
7, 6
5, 1
4, 2
3, 3
5, 5
12, 7
5, 12
17, 8
18, 11
20, 14
24, 38
49, 33
52, 40
52, 22
50, 23
50, 41
52, 30
52, 31
24, 26
32, 21
19, 19
19, 11
29, 14
23, 11
16, 14
13, 12
8, 7
9, 6
9, 9
4, 1
7, 0
3, 3
3, 1
7, 3
4, 4
2, 2
2, 5
5, 5
2, 2
4, 7
4, 2
3, 4
2, 4
4, 4
1, 2
4, 2
1, 0
4, 0
5, 0
6, 3
9, 5
4, 4
15, 10
15, 15
13, 23
21, 14
23, 18
20, 10
11, 12
19, 8
13, 6
6, 9
9, 3
5, 7
3, 1
6, 2
4, 3
5, 3
4, 2
8, 2
8, 5
3, 3
5, 5
8, 3
5, 4
9, 3
5, 5
8, 2
7, 2
10, 3
12, 2
20, 5
26, 6
25, 2
37, 5
34, 4
34, 3
22, 8
11, 4
19, 6
9, 13
9, 14
9, 10
9, 11
14, 12
11, 12
11, 8
12, 15
12, 17
14, 13
11, 11
11, 7
9, 7
6, 9
5, 19
4, 14
7, 21
7, 12
6, 21
9, 21
6, 27
6, 23
6, 17
8, 21
11, 21
7, 21
2, 12
7, 10
5, 6
2, 4
4, 11
7, 15
7, 7
7, 9
9, 11
10, 11
14, 11
13, 15
18, 13
11, 16
14, 14
19, 10
13, 13
18, 13
16, 5
18, 9
15, 9
22, 6
27, 2
27, 5
28, 10
25, 7
33, 8
54, 11
59, 17
57, 31
62, 34
62, 41
89, 48
83, 48
95, 55
85, 51
82, 31
50, 47
42, 30
41, 20
29, 19
25, 15
13, 13
27, 17
25, 26
41, 40
76, 85
160, 180
280, 323
483, 560
832, 921
1261, 1289
1680, 1677
2114, 1983
2430, 2214
2602, 2414
2593, 2114
2241, 1901
1888, 1409
1330, 1067
955, 669
664, 380
353, 239
206, 112
99, 77
65, 31
29, 22
20, 18
10, 19
15, 11
13, 17
17, 14
16, 20
26, 25
40, 27
47, 46
61, 77
95, 120
153, 146
227, 210
250, 296
325, 346
380, 326
369, 352
394, 303
305, 249
252, 208
179, 143
173, 94
116, 65
52, 42
46, 26
17, 18
11, 13
13, 7
5, 8
8, 16
8, 17
9, 25
14, 20
15, 26
19, 37
16, 17
17, 20
7, 17
13, 12
12, 13
10, 9
11, 9
11, 6
15, 2
4, 4
7, 6
10, 4
6, 5
6, 0
3, 2
10, 1
8, 4
8, 1
6, 1
3, 1
6, 3
8, 4
7, 4
6, 7
6, 4
4, 10
3, 2
5, 7
3, 6
5, 9
3, 10
4, 7
4, 7
9, 12
8, 9
7, 8
11, 11
6, 11
4, 4
4, 12
3, 11
7, 12
3, 10
6, 13
7, 11
5, 7
8, 7
14, 9
17, 9
20, 5
19, 4
20, 6
15, 5
25, 5
12, 1
17, 5
20, 10
11, 1
7, 7
6, 8
6, 8
6, 6
5, 4
5, 6
0, 7
4, 8
3, 4
0, 5
3, 4
6, 1
4, 2
2, 3
3, 4
2, 4
1, 7
4, 7
4, 6
0, 5
5, 8
2, 10
2, 13
3, 12
5, 11
3, 18
4, 24
2, 21
3, 23
9, 29
3, 21
8, 19
7, 15
9, 21
12, 12
7, 8
14, 8
15, 5
12, 4
10, 3
18, 2
9, 2
8, 2
5, 1
7, 2
7, 2
7, 5
9, 4
5, 3
7, 4
6, 4
5, 1
6, 3
7, 1
7, 7
5, 4
6, 13
5, 3
1, 4
3, 5
1, 7
1, 8
1, 3
4, 5
1, 5
1, 3
1, 2
1, 2
2, 4
2, 2
2, 1
2, 1
4, 5
3, 4
3, 5
2, 2
3, 3
2, 3
4, 6
3, 5
2, 4
0, 4
2, 2
3, 1
4, 2
4, 1
1, 2
5, 3
6, 3
6, 3
2, 6
2, 2
4, 1
5, 1
2, 3
4, 1
3, 1
5, 0
1, 1
6, 0
1, 0
2, 0
2, 2
7, 4
1, 2
4, 1
3, 2
1, 2
3, 3
3, 0
0, 3
1, 1
1, 2
3, 1
5, 2
2, 2
2, 2
4, 1
5, 1
4, 2
3, 2
4, 2
2, 0
1, 4
1, 5
4, 6
2, 2
1, 10
6, 10
1, 6
2, 7
0, 6
1, 1
1, 3
1, 5
2, 3
3, 2
4, 5
1, 5
1, 4
2, 1
2, 0
3, 0
1, 1
0, 3
0, 3
2, 0
3, 3
1, 3
1, 2
5, 3
3, 2
2, 3
1, 1
1, 4
2, 0
2, 0
3, 1
1, 2
0, 1
2, 1
3, 3
2, 3
7, 5
7, 4
4, 5
5, 2
6, 0
5, 6
3, 2
1, 1
1, 1
2, 3
1, 0
7, 2
3, 5
3, 0
2, 2
1, 1
4, 0
3, 0
1, 2
1, 1
1, 3
0, 1
1, 1
2, 0
1, 4
0, 0
4, 3
2, 4
2, 3
4, 4
2, 0
5, 0
3, 2
2, 0
1, 2
0, 0
1, 0
2, 1
1, 1
1, 0
2, 1
2, 2
1, 2
2, 1
1, 1
1, 2
0, 1
0, 2
1, 1
2, 0
0, 0
1, 1
0, 3
0, 0
0, 1
0, 2
0, 0
2, 2
0, 2
0, 2
0, 2
2, 1
1, 0
2, 2
0, 2
2, 2
3, 0
1, 0
0, 4
1, 3
0, 0
1, 1
1, 0
2, 0
1, 0
0, 0
0, 1
0, 0
0, 1
1, 1
1, 2
0, 2
2, 0
0, 1
1, 0
1, 1
1, 1
0, 2
0, 2
0, 1
1, 0
0, 2
0, 2
0, 0
4, 0
0, 0
2, 1
1, 0
1, 0
0, 0
0, 0
0, 0
0, 1
1, 0
1, 3
1, 0
3, 1
0, 0
0, 3
0, 1
0, 0
0, 1
0, 0
0, 1
1, 2
0, 1
0, 0
1, 0
0, 0
1, 1
0, 0
0, 0
0, 1
0, 0
1, 0
3, 1
1, 0
0, 0
1, 0
0, 0
1, 0
0, 0
1, 1
0, 0
0, 1
0, 2
0, 0
0, 0
0, 0
0, 0
2, 0
0, 0
1, 1
1, 1
0, 0
0, 0
0, 0
0, 0
0, 0
1, 0
0, 1
0, 0
0, 2
0, 0
0, 0
1, 0
0, 0
1, 1
0, 0
0, 0
1, 0
0, 0
1, 3
0, 0
0, 1
0, 2
0, 0
1, 1
0, 2
0, 2
0, 0
0, 0
2, 0
1, 1
0, 0
0, 0
0, 0
0, 1
1, 0
0, 0
0, 0
0, 1
1, 0
0, 0
0, 0
0, 0
0, 0
0, 0
1, 1
1, 0
0, 0
0, 0
1, 0
0, 0
0, 0
0, 0
0, 0
1, 0
1, 1
2, 0
0, 0
1, 0
1, 1
0, 1
0, 0
1, 0
0, 0
1, 0
0, 0
0, 0
0, 0
0, 0
0, 0
0, 0
0, 0
0, 0
1, 1
0, 0
0, 0
0, 0
0, 0
0, 0
0, 1
0, 0
0, 2
1, 0
1, 0
0, 0
1, 0
0, 2
1, 0
0, 0
0, 0
0, 0
0, 0
0, 0
1, 0
0, 0
0, 0
1, 0
1, 0
0, 0
0, 0
1, 0
0, 0
0, 0
1, 1
0, 1
0, 0
0, 0
0, 0
1, 0
0, 0
0, 0
0, 0
2, 0
0, 1
0, 1
1, 1
1, 0
0, 1
0, 0
0, 0
1, 0
0, 0
1, 0
0, 0
0, 0
0, 1
0, 0
0, 0
0, 1
0, 0
0, 2
1, 0
1, 2
0, 0
0, 0
0, 1
0, 0
0, 0
0, 0
0, 0
0, 0
0, 0
0, 0
0, 1
0, 0
0, 0
0, 0
0, 1
0, 0
0, 0
0, 0
0, 0
0, 0
1, 1
1, 0
0, 0
0, 0
0, 0
0, 1
0, 0
0, 0
1, 0
0, 0
0, 0
0, 0
0, 1
0, 1
0, 0
0, 0
0, 0
0, 0
0, 0
0, 0
0, 1
0, 0
0, 0
1, 0
1, 0
0, 0
0, 0
0, 0
0, 0
0, 0
0, 0
0, 0
0, 0
0, 0
0, 0
0, 0
0, 0
0, 0
0, 0
0, 0
0, 0
0, 0
1, 0
0, 0
0, 0
0, 0
0, 0
0, 0
0, 0
0, 0
0, 0
0, 0
0, 0
0, 0
0, 0
0, 0
0, 0
0, 0
0, 0
0, 1
1, 1
0, 0
0, 0
0, 0
0, 0
0, 0
0, 0
1, 0
0, 0
0, 1
0, 0
0, 0
1, 0
0, 0
0, 0
1, 0
0, 0
0, 0
0, 0
0, 0
0, 0
0, 0
0, 0
0, 0
0, 0
0, 0
0, 0
0, 0
0, 0
0, 0
0, 0
0, 0
0, 0
0, 1
0, 0
0, 0
0, 0
0, 0
0, 0
0, 0
0, 0
0, 0
0, 0
0, 0
0, 0
0, 0
0, 0
0, 0
0, 0
0, 0
0, 0
0, 0
0, 0
0, 0
0, 0
0, 0
0, 0
0, 0
0, 0
0, 0
0, 0
0, 0
0, 0
0, 0
0, 0
0, 0
0, 0
0, 0
0, 0
0, 0
0, 0
0, 0
0, 0
0, 0
0, 0
0, 0
0, 0
0, 0
0, 0
1, 0
0, 0
0, 0
0, 0
0, 0
0, 0
0, 0
0, 0
0, 0
0, 0
0, 0
0, 0
0, 0
0, 0
0, 0
0, 0
0, 0
0, 0
0, 0
0, 0
0, 0
0, 0
0, 0
1, 0
0, 0
0, 0
0, 0
0, 0
0, 0
0, 0
1, 0
0, 0
0, 0
0, 0
0, 0
0, 0
0, 0
0, 0
0, 0
0, 0
0, 0
0, 0
0, 0
0, 0
0, 0
0, 0
0, 0
0, 0
0, 0
0, 0
0, 0
0, 0
0, 0
0, 0
1, 0
0, 0
0, 0
0, 0
0, 0
0, 0
0, 0
0, 0
0, 0
0, 0
0, 0
0, 0
0, 0
0, 0
0, 0
0, 0
0, 0
0, 0
0, 0
0, 0
0, 0
0, 0
0, 0
0, 0
0, 0
0, 0
0, 0
0, 0
0, 0
0, 0
0, 0
0, 0
1, 0
0, 0
0, 0
0, 0
0, 0
0, 0
0, 0
0, 0
0, 0
0, 0
0, 0
0, 0
0, 0
0, 0
0, 0
0, 0
0, 0
0, 0
0, 0
0, 0
0, 0
0, 0
0, 0
0, 0
0, 0
0, 0
0, 0
0, 0
0, 0
0, 0
0, 0
0, 0
0, 0
0, 0
0, 0
0, 0
0, 0
0, 0
0, 0
0, 0
0, 0
0, 0
0, 0
0, 0
0, 0
0, 0
0, 0
0, 0
0, 0
0, 0
0, 0
0, 0
0, 0
0, 0
0, 0
0, 0
0, 0
0, 0
0, 0
0, 0
0, 0
0, 0
0, 0
0, 0
0, 0
0, 0
0, 0
0, 0
0, 0
0, 0
0, 0
0, 0
0, 0
0, 0
0, 0
0, 0
0, 0
0, 0
0, 0
0, 0
0, 0
0, 0
0, 0
0, 0
0, 0
0, 0
0, 0
0, 0
0, 0
0, 0
0, 0
0, 0
0, 0
0, 0
0, 0
0, 0
0, 0
0, 0
0, 0
0, 0
0, 0
0, 0
0, 0
0, 0
0, 0
0, 0
0, 0
0, 0
0, 0
0, 0
0, 0
0, 0
0, 0
0, 0
0, 0
0, 0
0, 0
0, 0
0, 0
0, 0
0, 0
0, 0
0, 0
0, 0
0, 0
0, 0
0, 0
0, 0
0, 0
0, 0
0, 0
0, 0
0, 0
0, 0
0, 0
0, 0
0, 0
0, 0
0, 0
0, 0
0, 0
0, 0
0, 0
0, 0
0, 0
0, 0
0, 0
0, 0
0, 0
0, 0
0, 0
0, 0
0, 0
0, 0
0, 0
0, 0
0, 0
0, 0
0, 0
0, 0
0, 0
0, 0
0, 0
0, 0
0, 0
0, 0
0, 0
0, 0
0, 0
0, 0
0, 0
0, 0
0, 0
0, 0
0, 0
0, 0
0, 0
0, 0
0, 0
0, 0
0, 0
0, 0
0, 0
0, 0
0, 0
0, 0
0, 0
0, 0
0, 0
0, 0
0, 0
0, 0
0, 0
0, 0
0, 0
0, 0
0, 0
0, 0
0, 0
0, 0
0, 0
0, 0
0, 0
0, 0
0, 0
0, 0
0, 0
0, 0
0, 0
0, 0
0, 0
0, 0
0, 0
0, 0
0, 0
0, 0
0, 0
0, 0
0, 0
0, 0
0, 0
0, 0
0, 0
0, 0
0, 0
0, 0
0, 0
0, 0
0, 0
0, 0
0, 0
0, 0
0, 0
0, 0
0, 0
0, 0
0, 0
0, 0
0, 0
0, 0
0, 0
0, 0
0, 0
0, 0
0, 0
0, 0
0, 0
0, 0
0, 0
0, 0
0, 0
0, 0
0, 0
0, 0
0, 0
0, 0
0, 0
0, 0
0, 0
0, 0
0, 0
0, 0
0, 0
0, 0
0, 0
0, 0
0, 0
0, 0
0, 0
0, 0
0, 0
0, 0
0, 0
0, 0
0, 0
0, 0
0, 0
0, 0
0, 0
0, 0
0, 0
0, 0
0, 0
0, 0
0, 0
0, 0
0, 0
0, 0
0, 0
0, 0
0, 0
0, 0
0, 0
0, 0
0, 0
0, 0
0, 0
0, 0
0, 0
0, 0
0, 0
0, 0
0, 0
0, 0
0, 0
#ENDOFDATA     end of spectrum data