File: host_upload/06-09-2024/ps_0852/dump3/ps__0852shot_2253.msa
#FORMAT      : EMSA/MAS spectral data file
#VERSION     : TC202v2.0 PIXL
#TITLE       : N/A
#DATE        :       Date in the format DD-MMM-YYYY, for example 07-JUL-2010
#TIME        :             The time of day at which the spectrum was recorded, in 24-hour format
#OWNER       : PIXL Flight Model       (PIXL will use this to indicate which instrument took the data.)
#NPOINTS     : 4096     Number of data points in the spectrum (This can be zero for configuration only files)
#NCOLUMNS    : 2     Number of data columns in the spectrum (This can be zero for configuration only files)
#XUNITS      : eV
#YUNITS      : COUNTS
#DATATYPE    : YY
#XPERCHAN    : 7.862, 7.881   eV per channel (separate by commas if more than one detector)
#OFFSET      : 18.5, -22.4         eV of first channel  (separate by commas if more than one detector
#SIGNALTYPE  : XRF
#YP_TEMP     : 2.3
#LIVETIME    : 8.56681, 8.55657   seconds (separate by commas if more than one detector)
#REALTIME    : 10, 10.0   seconds (separate by commas if more than one detector)
#SPECTRUM    : start of spectrum data
0, 0
0, 0
0, 0
0, 0
0, 0
0, 0
0, 0
0, 0
0, 0
0, 0
0, 0
0, 0
0, 0
0, 0
0, 0
0, 0
0, 0
0, 0
0, 0
0, 0
0, 0
0, 0
0, 0
0, 0
0, 0
0, 0
0, 0
0, 0
0, 0
0, 0
0, 0
0, 0
0, 1
0, 0
0, 0
0, 0
1, 1
0, 0
0, 1
1, 2
2, 1
0, 1
1, 0
2, 1
0, 0
2, 3
0, 4
1, 2
10, 7
8, 3
14, 19
20, 38
60, 45
74, 61
67, 72
66, 50
54, 52
41, 25
22, 15
10, 7
8, 11
5, 2
1, 2
2, 5
4, 3
6, 5
7, 7
23, 8
24, 30
41, 54
129, 105
196, 175
285, 268
367, 364
487, 426
484, 399
477, 397
353, 279
267, 185
152, 109
95, 53
35, 30
26, 19
15, 12
8, 4
8, 0
4, 4
2, 0
1, 5
4, 2
2, 2
0, 0
2, 0
1, 4
3, 4
4, 4
11, 6
10, 5
10, 5
3, 16
6, 6
9, 10
5, 4
4, 4
6, 11
5, 2
9, 11
7, 7
23, 20
23, 31
41, 35
54, 42
61, 70
60, 60
56, 71
53, 65
52, 81
46, 73
51, 59
29, 44
28, 37
31, 34
23, 26
22, 21
25, 25
13, 19
17, 21
15, 13
6, 8
14, 8
11, 12
3, 2
3, 7
4, 5
3, 1
1, 3
1, 3
2, 2
4, 0
4, 1
3, 5
6, 1
7, 5
12, 5
15, 2
8, 3
28, 2
30, 5
35, 1
24, 4
31, 9
29, 13
34, 8
38, 34
49, 44
64, 54
93, 70
98, 66
90, 91
77, 62
63, 54
47, 31
32, 28
25, 16
11, 9
10, 8
5, 8
12, 10
7, 13
11, 6
11, 12
11, 15
16, 19
18, 17
10, 16
13, 14
4, 3
5, 9
4, 8
5, 15
2, 13
2, 3
5, 2
3, 7
0, 2
4, 3
5, 8
6, 4
7, 7
6, 10
13, 11
8, 9
19, 14
18, 11
17, 14
15, 10
22, 14
12, 20
23, 22
34, 15
21, 14
16, 11
26, 13
33, 7
29, 4
17, 7
16, 7
15, 8
9, 9
7, 6
8, 6
7, 12
5, 4
5, 8
4, 4
2, 10
6, 6
6, 6
6, 7
9, 7
6, 6
4, 5
4, 5
8, 8
9, 12
14, 11
18, 14
11, 14
26, 35
28, 23
28, 39
21, 51
22, 34
29, 40
28, 43
17, 42
18, 29
18, 26
13, 20
7, 14
16, 9
17, 17
11, 11
16, 15
16, 16
18, 25
34, 25
41, 31
44, 49
53, 41
66, 60
66, 59
55, 50
59, 55
54, 40
36, 30
19, 23
20, 21
17, 24
18, 20
20, 15
32, 32
53, 56
86, 93
137, 185
246, 358
471, 541
783, 812
1164, 1229
1654, 1630
1918, 1994
2384, 2238
2477, 2217
2382, 2125
2145, 1862
1792, 1445
1311, 1020
906, 702
609, 441
365, 288
230, 180
118, 103
74, 70
44, 52
39, 46
47, 33
53, 27
51, 20
57, 15
78, 22
102, 28
134, 51
182, 57
229, 85
264, 93
312, 177
330, 221
419, 291
461, 320
409, 335
420, 316
402, 302
348, 269
265, 190
234, 148
147, 114
101, 56
50, 36
40, 20
14, 11
8, 8
16, 11
8, 6
16, 14
12, 15
3, 6
25, 14
19, 10
19, 10
17, 11
15, 11
16, 10
9, 7
9, 5
6, 2
4, 5
3, 3
7, 4
9, 3
3, 6
3, 5
9, 5
8, 3
6, 4
8, 6
6, 1
3, 3
13, 6
11, 2
7, 4
11, 6
7, 2
6, 5
8, 4
5, 8
9, 4
3, 4
10, 5
7, 3
5, 6
3, 7
4, 6
4, 2
6, 7
5, 3
8, 4
5, 7
5, 1
5, 4
1, 3
6, 2
4, 7
7, 0
1, 7
5, 2
2, 2
5, 4
5, 2
8, 8
1, 10
1, 5
4, 4
6, 5
1, 9
5, 3
4, 3
4, 1
6, 5
3, 2
6, 4
7, 2
2, 5
5, 6
5, 4
3, 5
4, 5
4, 0
4, 4
3, 6
3, 3
2, 1
5, 4
5, 4
5, 5
9, 4
6, 3
9, 10
6, 13
6, 4
5, 9
2, 5
7, 5
5, 4
11, 5
3, 5
3, 5
5, 1
3, 2
1, 5
6, 1
4, 3
3, 6
4, 3
8, 3
7, 2
6, 3
6, 0
8, 2
10, 6
5, 4
3, 4
5, 0
4, 4
7, 3
4, 2
2, 0
3, 6
2, 1
1, 2
2, 3
4, 5
7, 6
3, 7
0, 4
3, 5
6, 7
6, 0
4, 0
6, 2
9, 8
8, 6
5, 6
10, 5
4, 4
2, 4
6, 5
8, 5
6, 7
4, 5
1, 5
2, 3
5, 3
4, 3
2, 3
2, 1
2, 2
5, 1
4, 1
1, 3
2, 2
3, 2
4, 0
4, 0
0, 4
5, 3
2, 2
3, 5
1, 4
1, 0
3, 2
2, 1
3, 4
6, 2
2, 0
0, 2
4, 1
3, 2
4, 0
2, 0
4, 3
2, 1
3, 1
5, 2
8, 1
4, 4
4, 1
2, 4
3, 4
3, 2
1, 4
1, 2
4, 0
2, 4
4, 1
3, 2
4, 2
1, 2
2, 2
1, 1
0, 2
0, 4
4, 1
2, 0
4, 7
3, 0
3, 2
1, 6
2, 0
0, 2
0, 2
0, 3
2, 2
1, 2
2, 1
3, 3
0, 5
2, 4
3, 0
4, 3
3, 1
6, 5
2, 1
1, 3
4, 1
7, 4
3, 2
2, 4
4, 2
7, 5
1, 3
2, 4
3, 0
4, 4
4, 3
3, 4
2, 1
2, 7
4, 3
0, 7
1, 2
5, 5
5, 2
4, 3
5, 5
5, 8
4, 2
4, 4
1, 5
1, 0
0, 2
3, 0
2, 2
2, 4
4, 1
3, 1
2, 1
1, 0
1, 5
2, 3
0, 1
3, 2
1, 0
2, 1
1, 2
0, 5
3, 1
4, 3
0, 2
3, 0
3, 1
2, 2
3, 1
4, 2
3, 2
3, 1
1, 1
1, 1
0, 1
0, 0
0, 0
0, 0
1, 1
1, 1
1, 1
0, 1
2, 1
3, 2
1, 1
1, 1
3, 1
1, 3
5, 1
4, 2
0, 5
1, 0
1, 1
0, 1
2, 0
3, 1
1, 0
0, 1
2, 1
0, 3
1, 2
1, 1
0, 1
2, 1
1, 0
0, 0
0, 2
4, 0
2, 0
1, 1
2, 3
2, 0
1, 2
0, 3
2, 1
0, 0
1, 2
1, 3
0, 0
2, 1
2, 1
1, 0
0, 0
1, 2
0, 0
1, 1
2, 0
0, 1
0, 0
1, 0
0, 0
1, 0
1, 0
1, 1
1, 1
0, 0
1, 0
0, 0
1, 0
0, 0
0, 0
0, 2
1, 1
1, 0
0, 1
0, 1
1, 2
1, 2
2, 1
0, 1
0, 0
1, 2
0, 0
2, 0
0, 1
1, 0
0, 1
0, 1
1, 2
0, 2
1, 0
1, 0
1, 0
0, 0
0, 1
0, 1
0, 0
0, 0
0, 0
1, 0
0, 1
0, 1
2, 2
1, 0
0, 0
0, 0
1, 2
0, 0
0, 0
0, 0
1, 1
0, 2
1, 0
0, 0
0, 0
0, 0
0, 1
0, 1
0, 1
1, 0
1, 1
0, 3
2, 2
3, 0
0, 0
1, 1
0, 0
0, 0
0, 1
0, 0
2, 0
0, 0
0, 0
0, 0
1, 0
0, 0
0, 2
0, 0
0, 0
1, 1
0, 0
1, 0
0, 0
1, 0
0, 1
0, 0
0, 0
0, 0
0, 1
0, 0
0, 0
0, 0
0, 0
0, 0
0, 0
0, 1
0, 0
0, 0
0, 0
0, 0
0, 0
1, 1
0, 0
1, 0
1, 0
0, 0
0, 0
0, 1
1, 1
0, 0
1, 0
1, 0
1, 1
0, 1
0, 0
0, 0
0, 0
0, 0
2, 1
0, 0
1, 0
1, 0
0, 1
0, 0
0, 0
0, 0
0, 0
0, 0
0, 0
0, 0
0, 0
1, 1
0, 1
1, 1
1, 0
0, 0
0, 0
0, 0
1, 0
0, 1
1, 2
1, 1
0, 0
0, 1
1, 0
0, 0
2, 0
0, 1
2, 1
0, 0
0, 1
0, 0
0, 0
0, 0
0, 0
0, 1
0, 0
0, 2
0, 0
0, 0
1, 0
0, 0
0, 0
2, 0
0, 0
0, 0
1, 0
0, 1
0, 0
0, 1
0, 1
3, 1
0, 0
0, 0
0, 0
0, 0
1, 0
0, 1
0, 0
0, 1
0, 0
0, 0
0, 0
0, 0
0, 1
0, 0
0, 1
1, 0
0, 0
0, 0
0, 0
0, 0
0, 0
1, 0
1, 0
0, 0
0, 0
0, 0
0, 0
0, 0
0, 0
0, 1
0, 0
1, 1
0, 0
0, 0
0, 0
0, 0
1, 0
0, 0
0, 0
0, 1
0, 0
1, 0
0, 0
1, 0
0, 0
0, 0
0, 0
0, 0
1, 0
0, 1
0, 0
0, 0
0, 0
0, 0
0, 0
1, 0
0, 0
0, 0
0, 0
0, 0
1, 0
0, 0
0, 0
0, 0
0, 0
0, 0
0, 0
0, 0
0, 0
0, 0
0, 0
0, 0
0, 0
0, 0
0, 0
1, 0
0, 0
0, 0
0, 0
0, 0
0, 0
0, 0
0, 0
0, 0
0, 0
0, 0
0, 0
0, 0
1, 0
0, 0
0, 0
0, 0
0, 0
0, 0
0, 0
0, 0
0, 0
0, 0
0, 0
0, 0
0, 0
0, 0
0, 0
0, 0
0, 0
0, 0
0, 0
0, 0
0, 0
0, 0
0, 0
0, 0
0, 0
0, 0
0, 0
0, 0
0, 0
0, 0
0, 0
0, 0
0, 0
0, 0
0, 0
0, 0
0, 0
0, 0
0, 0
0, 0
0, 0
0, 1
0, 0
0, 0
0, 0
0, 0
0, 0
0, 0
0, 0
0, 0
0, 0
0, 0
0, 0
0, 0
0, 0
0, 0
0, 0
0, 0
0, 0
0, 0
0, 1
0, 0
0, 0
0, 0
0, 0
0, 0
0, 0
0, 1
0, 0
0, 0
0, 0
0, 0
0, 0
0, 0
0, 0
0, 0
0, 0
0, 0
0, 0
0, 1
0, 0
0, 0
0, 0
0, 0
0, 0
0, 0
0, 0
0, 0
0, 0
0, 0
0, 0
0, 0
0, 0
0, 0
0, 0
0, 0
0, 0
0, 0
0, 0
0, 0
0, 0
0, 0
0, 0
0, 0
0, 0
0, 0
0, 0
0, 0
0, 0
0, 0
0, 0
0, 0
0, 0
0, 0
0, 0
0, 0
0, 0
0, 0
0, 0
0, 0
0, 0
0, 0
0, 0
0, 0
0, 0
0, 0
0, 0
0, 0
0, 0
0, 0
0, 0
0, 0
0, 0
0, 0
0, 0
0, 0
0, 0
0, 0
0, 0
0, 0
0, 0
0, 0
0, 0
0, 0
0, 0
0, 0
0, 0
0, 0
0, 0
0, 0
0, 0
0, 0
0, 0
0, 0
0, 0
0, 0
0, 0
0, 0
0, 0
0, 0
0, 0
0, 0
0, 0
0, 0
0, 0
0, 0
0, 0
0, 0
0, 0
0, 0
0, 0
0, 0
0, 0
0, 0
0, 0
0, 0
0, 0
0, 0
0, 0
0, 0
0, 0
0, 0
0, 0
0, 0
0, 0
0, 0
0, 0
0, 0
0, 0
0, 0
0, 0
0, 0
0, 0
0, 0
0, 0
0, 0
0, 0
0, 0
0, 0
0, 0
0, 0
0, 0
0, 0
0, 0
0, 0
0, 0
0, 0
0, 0
0, 0
0, 0
0, 0
0, 0
0, 0
0, 0
0, 0
0, 0
0, 0
0, 0
0, 0
0, 0
0, 0
0, 0
0, 0
0, 0
0, 0
0, 0
0, 0
0, 0
0, 0
0, 0
0, 0
0, 0
0, 0
0, 0
0, 0
0, 0
0, 0
0, 0
0, 0
0, 0
0, 0
0, 0
0, 0
0, 0
0, 0
0, 0
0, 0
0, 0
0, 0
0, 0
0, 0
0, 0
0, 0
0, 0
0, 0
0, 0
0, 0
0, 0
0, 0
0, 0
0, 0
0, 0
0, 0
0, 0
0, 0
0, 0
0, 0
0, 0
0, 0
0, 0
0, 0
0, 0
0, 0
0, 0
0, 0
0, 0
0, 0
0, 0
0, 0
0, 0
0, 0
0, 0
0, 0
0, 0
0, 0
0, 0
0, 0
0, 0
0, 0
0, 0
0, 0
0, 0
0, 0
0, 0
0, 0
0, 0
0, 0
0, 0
0, 0
0, 0
0, 0
0, 0
0, 0
0, 0
0, 0
0, 0
0, 0
0, 0
0, 0
0, 0
0, 0
0, 0
0, 0
0, 0
0, 0
0, 0
0, 0
0, 0
0, 0
0, 0
0, 0
0, 0
0, 0
0, 0
0, 0
0, 0
0, 0
0, 0
0, 0
0, 0
0, 0
0, 0
0, 0
0, 0
0, 0
0, 0
0, 0
0, 0
0, 0
0, 0
0, 0
0, 0
0, 0
0, 0
0, 0
0, 0
0, 0
0, 0
0, 0
0, 0
0, 0
0, 0
0, 0
0, 0
0, 0
0, 0
0, 0
0, 0
0, 0
0, 0
0, 0
0, 0
0, 0
0, 0
0, 0
0, 0
0, 0
0, 0
0, 0
0, 0
0, 0
0, 0
0, 0
0, 0
0, 0
0, 0
0, 0
0, 0
0, 0
0, 0
0, 0
0, 0
0, 0
0, 0
0, 0
0, 0
0, 0
0, 0
0, 0
0, 0
0, 0
0, 0
0, 0
0, 0
0, 0
0, 0
0, 0
0, 0
0, 0
0, 0
0, 0
0, 0
0, 0
0, 0
0, 0
0, 0
0, 0
0, 0
0, 0
0, 0
0, 0
0, 0
0, 0
0, 0
0, 0
0, 0
0, 0
0, 0
0, 0
0, 0
0, 0
0, 0
0, 0
0, 0
0, 0
0, 0
0, 0
0, 0
0, 0
0, 0
0, 0
0, 0
0, 0
0, 0
0, 0
0, 0
0, 0
0, 0
0, 0
0, 0
0, 0
0, 0
0, 0
0, 0
0, 0
0, 0
0, 0
0, 0
0, 0
0, 0
0, 0
0, 0
0, 0
0, 0
0, 0
0, 0
0, 0
0, 0
0, 0
0, 0
0, 0
0, 0
0, 0
0, 0
0, 0
0, 0
0, 0
0, 0
0, 0
0, 0
0, 0
0, 0
0, 0
#ENDOFDATA     end of spectrum data