File: host_upload/06-09-2024/ps_0852/dump3/ps__0852shot_2247.msa
#FORMAT      : EMSA/MAS spectral data file
#VERSION     : TC202v2.0 PIXL
#TITLE       : N/A
#DATE        :       Date in the format DD-MMM-YYYY, for example 07-JUL-2010
#TIME        :             The time of day at which the spectrum was recorded, in 24-hour format
#OWNER       : PIXL Flight Model       (PIXL will use this to indicate which instrument took the data.)
#NPOINTS     : 4096     Number of data points in the spectrum (This can be zero for configuration only files)
#NCOLUMNS    : 2     Number of data columns in the spectrum (This can be zero for configuration only files)
#XUNITS      : eV
#YUNITS      : COUNTS
#DATATYPE    : YY
#XPERCHAN    : 7.862, 7.881   eV per channel (separate by commas if more than one detector)
#OFFSET      : 18.5, -22.4         eV of first channel  (separate by commas if more than one detector
#SIGNALTYPE  : XRF
#YP_TEMP     : 2.332
#LIVETIME    : 8.5592, 8.56343   seconds (separate by commas if more than one detector)
#REALTIME    : 10, 10.0   seconds (separate by commas if more than one detector)
#SPECTRUM    : start of spectrum data
0, 0
0, 0
0, 0
0, 0
0, 0
0, 0
0, 0
0, 0
0, 0
0, 0
0, 0
0, 0
0, 0
0, 0
0, 0
0, 0
0, 0
0, 0
0, 0
0, 0
0, 0
0, 0
0, 0
0, 0
0, 0
0, 0
0, 0
1, 0
0, 0
0, 0
0, 0
0, 0
0, 0
0, 0
0, 0
1, 0
0, 1
0, 1
0, 0
1, 0
1, 0
1, 1
0, 2
0, 0
2, 1
1, 0
1, 2
4, 1
6, 3
13, 12
22, 19
43, 55
50, 52
79, 88
97, 79
75, 86
64, 57
49, 43
39, 27
11, 15
9, 5
4, 2
1, 1
3, 2
1, 3
4, 3
9, 3
5, 9
22, 26
54, 50
109, 99
180, 191
263, 259
342, 366
419, 477
484, 379
368, 365
323, 296
220, 175
124, 113
70, 70
38, 35
17, 19
8, 15
8, 5
5, 4
2, 3
1, 1
1, 1
0, 2
6, 1
3, 0
3, 0
2, 0
0, 1
3, 0
1, 0
5, 4
0, 3
2, 4
1, 2
1, 2
2, 2
1, 4
1, 1
2, 0
1, 2
7, 6
4, 8
8, 11
10, 11
16, 30
24, 27
32, 30
33, 46
23, 64
38, 52
39, 50
28, 36
17, 27
17, 33
28, 24
20, 18
16, 23
13, 18
15, 19
10, 8
9, 9
5, 9
3, 7
7, 5
9, 4
2, 1
3, 3
1, 5
1, 1
2, 1
2, 1
3, 2
3, 1
2, 2
1, 0
2, 1
3, 4
1, 3
0, 2
1, 0
2, 1
1, 2
1, 1
5, 6
4, 0
5, 2
6, 5
11, 10
8, 16
10, 18
11, 15
15, 12
5, 6
10, 11
12, 5
6, 8
3, 5
3, 5
2, 1
4, 4
3, 7
3, 4
6, 3
5, 2
4, 5
4, 3
4, 2
2, 2
6, 3
6, 4
4, 1
2, 4
2, 2
5, 2
4, 1
1, 1
3, 3
9, 0
9, 0
16, 7
28, 10
48, 8
76, 6
104, 9
133, 8
195, 23
171, 16
174, 14
164, 16
132, 16
116, 8
75, 14
45, 12
37, 13
27, 8
14, 8
9, 8
7, 7
4, 8
5, 3
4, 4
5, 3
1, 5
3, 5
3, 3
6, 2
7, 9
6, 4
5, 3
4, 4
4, 12
5, 1
13, 2
4, 3
8, 5
11, 12
11, 10
10, 17
12, 15
17, 14
18, 22
15, 14
14, 12
9, 15
16, 17
11, 3
9, 16
7, 15
7, 11
7, 18
4, 19
6, 24
9, 32
7, 51
13, 44
13, 60
10, 59
13, 44
13, 41
26, 49
36, 46
48, 59
47, 55
65, 61
55, 69
57, 51
40, 53
43, 41
35, 26
20, 20
16, 22
21, 22
18, 18
21, 27
25, 36
46, 60
84, 96
149, 189
301, 379
480, 606
799, 951
1237, 1373
1618, 1710
2042, 2145
2353, 2384
2402, 2488
2458, 2229
2172, 1931
1853, 1551
1422, 1138
916, 788
594, 487
382, 283
211, 164
110, 116
62, 94
55, 76
25, 73
21, 68
22, 57
17, 57
19, 47
17, 42
32, 34
43, 60
42, 48
62, 88
87, 124
164, 164
198, 239
298, 282
323, 357
322, 352
346, 378
357, 336
308, 290
250, 236
202, 159
143, 103
87, 75
65, 59
43, 25
38, 14
31, 12
14, 13
18, 16
26, 22
19, 13
20, 13
16, 13
12, 24
16, 17
12, 24
7, 10
12, 8
8, 6
11, 5
7, 5
3, 1
4, 4
4, 1
3, 6
3, 1
1, 2
5, 2
4, 3
3, 7
4, 4
4, 6
2, 8
8, 8
8, 9
9, 7
7, 9
6, 10
10, 9
8, 12
8, 8
6, 9
6, 5
8, 9
4, 5
6, 7
7, 7
7, 4
10, 4
5, 3
8, 5
5, 5
3, 6
8, 6
6, 5
0, 3
1, 2
7, 4
1, 12
3, 9
4, 12
4, 4
4, 11
4, 10
6, 12
5, 5
2, 4
2, 7
2, 2
6, 4
4, 1
4, 4
3, 3
2, 5
4, 3
3, 1
1, 6
5, 1
10, 2
1, 4
6, 2
5, 4
6, 2
12, 6
5, 6
7, 5
5, 3
4, 4
8, 5
10, 13
8, 9
12, 15
14, 8
11, 10
6, 15
6, 13
5, 13
4, 9
2, 6
7, 4
6, 6
3, 7
2, 5
0, 0
2, 1
3, 1
2, 2
3, 4
3, 2
1, 1
5, 1
7, 3
6, 2
4, 3
1, 3
5, 3
0, 2
2, 0
5, 2
3, 2
3, 2
4, 4
2, 5
3, 3
7, 2
5, 2
2, 1
2, 5
2, 0
5, 4
4, 6
2, 1
0, 3
4, 2
2, 3
5, 3
6, 6
1, 4
1, 1
7, 4
7, 4
5, 1
3, 2
3, 5
3, 3
0, 3
4, 10
2, 9
5, 6
10, 7
3, 6
1, 4
4, 9
4, 3
1, 1
2, 7
3, 3
2, 5
2, 6
2, 0
4, 3
5, 3
3, 3
3, 3
1, 2
2, 3
1, 0
2, 1
1, 2
2, 2
1, 3
0, 2
4, 1
3, 2
4, 2
3, 1
2, 1
2, 5
1, 0
1, 6
1, 1
0, 1
3, 1
4, 2
3, 4
2, 1
3, 4
5, 3
1, 3
4, 1
2, 1
4, 1
2, 2
1, 1
3, 1
0, 1
2, 3
5, 2
3, 4
2, 3
4, 6
3, 1
4, 2
3, 0
2, 2
2, 1
5, 2
2, 5
3, 6
1, 4
4, 4
1, 2
5, 4
2, 4
3, 2
3, 1
1, 3
2, 1
1, 2
2, 0
1, 1
3, 0
0, 2
2, 1
2, 2
1, 0
3, 2
1, 5
3, 1
1, 2
1, 2
4, 6
2, 2
1, 1
3, 3
7, 2
2, 1
3, 4
2, 6
1, 7
6, 2
2, 7
2, 5
3, 4
3, 1
2, 3
0, 1
1, 2
2, 1
0, 0
0, 1
2, 2
1, 3
0, 1
2, 3
1, 2
1, 4
0, 2
1, 1
2, 4
3, 1
0, 2
4, 1
2, 1
3, 4
2, 1
3, 3
1, 0
0, 1
5, 1
4, 2
4, 3
2, 1
3, 2
1, 1
6, 0
0, 0
1, 0
2, 2
3, 1
2, 1
2, 0
1, 5
2, 1
2, 1
2, 0
0, 2
0, 1
2, 1
1, 2
0, 1
0, 0
1, 1
3, 0
1, 0
0, 1
0, 1
1, 2
0, 0
0, 1
1, 0
0, 0
1, 0
1, 0
1, 0
0, 1
3, 0
0, 1
0, 1
0, 4
0, 1
1, 2
0, 1
2, 0
0, 2
0, 1
2, 1
1, 1
1, 2
0, 1
2, 0
0, 1
0, 0
0, 1
1, 1
1, 1
0, 2
2, 0
1, 1
2, 1
0, 3
1, 0
0, 0
0, 0
1, 0
0, 0
3, 1
1, 0
1, 1
1, 1
0, 1
0, 0
0, 2
0, 3
0, 1
1, 2
0, 3
1, 0
2, 0
3, 0
1, 0
0, 0
0, 0
0, 1
0, 0
2, 0
3, 0
1, 1
0, 0
3, 1
1, 0
1, 1
0, 0
0, 0
1, 0
1, 0
1, 1
1, 0
1, 1
1, 0
1, 1
0, 0
1, 0
0, 1
0, 0
0, 0
1, 0
1, 0
0, 0
0, 0
0, 1
0, 0
3, 1
0, 1
0, 0
0, 1
0, 0
1, 1
0, 0
0, 1
0, 1
1, 0
0, 0
0, 1
0, 1
0, 1
0, 0
0, 0
1, 0
0, 1
2, 0
0, 2
0, 0
0, 0
0, 0
1, 0
1, 1
0, 0
1, 0
1, 0
0, 0
1, 0
0, 1
0, 1
0, 0
1, 0
0, 1
0, 1
0, 0
1, 0
1, 1
0, 0
0, 0
0, 0
0, 0
0, 1
1, 0
0, 0
0, 0
1, 0
2, 0
0, 1
0, 0
1, 1
1, 0
0, 0
0, 1
0, 0
0, 0
0, 0
0, 1
0, 0
0, 0
0, 0
0, 0
0, 0
0, 0
0, 0
0, 0
0, 0
0, 0
0, 0
0, 0
1, 0
0, 1
0, 0
0, 0
1, 0
0, 0
0, 0
0, 0
0, 1
0, 0
1, 0
0, 0
2, 0
0, 0
0, 0
1, 0
0, 1
0, 1
1, 0
0, 1
0, 0
0, 0
0, 2
0, 0
0, 0
0, 0
1, 0
1, 0
1, 0
1, 0
1, 0
1, 0
0, 0
0, 0
0, 1
0, 0
0, 0
0, 0
0, 1
0, 0
1, 0
0, 1
1, 0
0, 0
0, 1
0, 1
0, 0
0, 0
1, 1
1, 0
0, 2
0, 0
0, 0
0, 0
0, 0
0, 0
1, 0
0, 0
0, 0
0, 0
0, 1
0, 0
0, 0
1, 0
0, 0
0, 0
0, 0
0, 0
1, 0
0, 0
0, 0
0, 0
0, 1
0, 0
0, 0
0, 0
0, 1
0, 0
0, 0
0, 0
0, 1
0, 0
0, 0
1, 0
0, 0
0, 0
0, 0
1, 0
0, 1
2, 1
0, 0
0, 0
0, 0
0, 0
1, 1
0, 0
0, 0
0, 0
0, 0
0, 0
0, 0
0, 0
0, 0
0, 0
1, 0
1, 0
0, 0
0, 0
0, 1
1, 0
0, 0
0, 0
0, 0
0, 0
0, 0
0, 0
0, 0
0, 1
0, 0
0, 1
0, 0
1, 0
1, 0
1, 0
0, 0
0, 0
0, 1
0, 0
0, 0
0, 1
1, 0
0, 0
0, 0
0, 0
0, 0
0, 0
0, 0
0, 0
0, 0
0, 0
0, 0
0, 0
0, 0
0, 0
0, 0
0, 0
0, 1
0, 0
0, 0
0, 0
0, 0
0, 0
0, 0
0, 0
0, 0
0, 0
0, 1
0, 0
0, 0
0, 0
0, 0
0, 0
0, 0
0, 0
0, 0
0, 0
0, 0
0, 0
0, 1
0, 0
0, 1
0, 0
1, 0
0, 0
0, 0
0, 0
0, 0
0, 0
0, 0
0, 0
1, 0
0, 0
0, 0
0, 0
0, 0
0, 0
0, 0
0, 0
0, 0
0, 0
0, 0
0, 0
0, 0
0, 0
0, 0
0, 0
0, 0
0, 0
0, 0
0, 0
0, 0
0, 0
0, 0
0, 0
0, 0
0, 0
0, 0
0, 0
0, 0
0, 0
0, 0
0, 0
0, 0
0, 0
0, 0
0, 0
0, 0
0, 0
0, 0
0, 0
0, 1
0, 0
0, 0
0, 0
0, 0
0, 0
0, 0
0, 0
0, 0
0, 0
0, 0
0, 0
0, 0
0, 0
0, 0
0, 0
0, 0
0, 0
0, 0
0, 0
0, 0
0, 0
0, 0
0, 0
0, 0
0, 0
0, 0
0, 0
0, 0
0, 0
0, 0
0, 0
0, 0
0, 0
0, 0
0, 0
0, 0
0, 0
0, 0
0, 0
0, 0
0, 0
0, 0
0, 0
0, 0
0, 0
0, 0
0, 0
0, 0
0, 0
0, 0
0, 0
0, 0
1, 0
0, 0
0, 0
0, 0
0, 0
0, 0
0, 0
0, 0
0, 0
0, 0
0, 0
0, 0
0, 0
0, 0
0, 0
0, 0
0, 0
0, 0
0, 0
0, 0
0, 0
0, 0
0, 0
0, 0
0, 0
0, 0
0, 0
0, 0
0, 0
0, 0
0, 0
0, 0
0, 0
0, 0
0, 0
0, 0
0, 0
0, 0
0, 0
0, 0
0, 0
0, 0
0, 0
0, 0
0, 0
0, 0
0, 0
0, 0
0, 0
0, 0
0, 0
0, 0
0, 0
0, 0
0, 0
0, 0
0, 0
0, 0
0, 0
0, 0
0, 0
0, 0
0, 0
0, 0
0, 0
0, 0
0, 0
0, 0
0, 0
0, 0
0, 0
0, 0
0, 0
0, 0
0, 0
0, 0
0, 0
0, 0
0, 0
0, 0
0, 0
0, 0
0, 0
0, 0
0, 0
0, 0
0, 0
0, 0
0, 0
0, 0
0, 0
0, 0
0, 0
0, 0
0, 0
0, 0
0, 0
0, 0
0, 0
0, 0
0, 0
0, 0
0, 0
0, 0
0, 0
0, 0
0, 0
0, 0
0, 0
0, 0
0, 0
0, 0
0, 0
0, 0
0, 0
0, 0
0, 0
0, 0
0, 0
0, 0
0, 0
0, 0
0, 0
0, 0
0, 0
0, 0
0, 0
0, 0
0, 0
0, 0
0, 0
0, 0
0, 0
0, 0
0, 0
0, 0
0, 0
0, 0
0, 0
0, 0
0, 0
0, 0
0, 0
0, 0
0, 0
0, 0
0, 0
0, 0
0, 0
0, 0
0, 0
0, 0
0, 0
0, 0
0, 0
0, 0
0, 0
0, 0
0, 0
0, 0
0, 0
0, 0
0, 0
0, 0
0, 0
0, 0
0, 0
0, 0
0, 0
0, 0
0, 0
0, 0
0, 0
0, 0
0, 0
0, 0
0, 0
0, 0
0, 0
0, 0
0, 0
0, 0
0, 0
0, 0
0, 0
0, 0
0, 0
0, 0
0, 0
0, 0
0, 0
0, 0
0, 0
0, 0
0, 0
0, 0
0, 0
0, 0
0, 0
0, 0
0, 0
0, 0
0, 0
0, 0
0, 0
0, 0
0, 0
0, 0
0, 0
0, 0
0, 0
0, 0
0, 0
0, 0
0, 0
0, 0
0, 0
0, 0
0, 0
0, 0
0, 0
0, 0
0, 0
0, 0
0, 0
0, 0
0, 0
0, 0
0, 0
0, 0
0, 0
0, 0
0, 0
0, 0
0, 0
0, 0
0, 0
0, 0
0, 0
0, 0
0, 0
0, 0
0, 0
0, 0
0, 0
0, 0
0, 0
0, 0
0, 0
0, 0
0, 0
0, 0
0, 0
0, 0
0, 0
0, 0
0, 0
0, 0
0, 0
0, 0
0, 0
0, 0
0, 0
0, 0
0, 0
0, 0
0, 0
0, 0
0, 0
0, 0
0, 0
0, 0
0, 0
0, 0
0, 0
0, 0
0, 0
0, 0
0, 0
0, 0
0, 0
0, 0
0, 0
0, 0
0, 0
0, 0
0, 0
0, 0
0, 0
0, 0
0, 0
0, 0
0, 0
0, 0
0, 0
0, 0
0, 0
0, 0
0, 0
0, 0
0, 0
0, 0
0, 0
0, 0
0, 0
0, 0
0, 0
0, 0
0, 0
0, 0
0, 0
0, 0
0, 0
0, 0
0, 0
0, 0
0, 0
0, 0
0, 0
0, 0
0, 0
0, 0
0, 0
0, 0
0, 0
0, 0
0, 0
0, 0
0, 0
0, 0
0, 0
0, 0
0, 0
0, 0
0, 0
0, 0
#ENDOFDATA     end of spectrum data