File: host_upload/06-09-2024/ps_0852/dump3/ps__0852shot_2383.msa
#FORMAT      : EMSA/MAS spectral data file
#VERSION     : TC202v2.0 PIXL
#TITLE       : N/A
#DATE        :       Date in the format DD-MMM-YYYY, for example 07-JUL-2010
#TIME        :             The time of day at which the spectrum was recorded, in 24-hour format
#OWNER       : PIXL Flight Model       (PIXL will use this to indicate which instrument took the data.)
#NPOINTS     : 4096     Number of data points in the spectrum (This can be zero for configuration only files)
#NCOLUMNS    : 2     Number of data columns in the spectrum (This can be zero for configuration only files)
#XUNITS      : eV
#YUNITS      : COUNTS
#DATATYPE    : YY
#XPERCHAN    : 7.862, 7.881   eV per channel (separate by commas if more than one detector)
#OFFSET      : 18.5, -22.4         eV of first channel  (separate by commas if more than one detector
#SIGNALTYPE  : XRF
#YP_TEMP     : 2.332
#LIVETIME    : 8.55261, 8.58354   seconds (separate by commas if more than one detector)
#REALTIME    : 10, 10.0   seconds (separate by commas if more than one detector)
#SPECTRUM    : start of spectrum data
0, 0
0, 0
0, 0
0, 0
0, 0
0, 0
0, 0
0, 0
0, 0
0, 0
0, 0
0, 0
0, 0
0, 0
0, 0
0, 0
0, 0
0, 0
0, 0
0, 0
0, 0
0, 0
0, 0
0, 0
0, 0
0, 0
0, 0
0, 0
0, 0
0, 0
0, 0
0, 0
0, 0
0, 0
0, 1
1, 0
0, 0
0, 0
1, 1
3, 0
0, 6
1, 1
1, 1
0, 0
1, 2
0, 2
0, 2
3, 2
4, 8
15, 13
27, 24
54, 37
70, 65
72, 69
93, 74
78, 72
58, 57
39, 47
21, 26
15, 12
5, 6
1, 3
7, 5
3, 1
1, 2
4, 8
8, 6
5, 15
10, 26
55, 52
98, 115
198, 192
267, 244
413, 359
473, 421
446, 430
386, 375
308, 266
217, 188
127, 97
75, 59
40, 36
18, 17
9, 11
11, 7
6, 4
6, 3
5, 3
2, 1
1, 1
4, 3
0, 1
2, 1
2, 0
1, 3
4, 1
3, 4
6, 7
4, 9
5, 5
11, 3
4, 1
4, 6
4, 10
7, 8
4, 15
5, 9
8, 26
13, 25
20, 24
32, 32
30, 42
47, 34
59, 43
52, 48
49, 51
54, 36
55, 52
39, 43
35, 24
26, 29
33, 22
26, 29
30, 28
18, 15
14, 21
18, 28
16, 26
8, 11
5, 8
2, 3
2, 5
1, 2
2, 4
0, 1
2, 5
3, 2
0, 1
1, 3
4, 1
0, 1
3, 4
0, 3
2, 0
0, 3
5, 1
4, 3
7, 2
5, 8
9, 6
7, 10
11, 15
17, 12
21, 20
18, 27
29, 27
24, 16
29, 31
16, 23
24, 27
12, 16
17, 9
11, 7
11, 8
7, 4
5, 2
14, 6
5, 2
8, 3
4, 8
6, 4
6, 6
5, 3
8, 7
7, 9
6, 3
6, 10
8, 4
5, 11
7, 7
10, 5
8, 5
5, 5
10, 8
3, 2
5, 6
6, 6
7, 7
9, 14
9, 10
12, 12
14, 22
19, 13
11, 26
13, 20
14, 26
12, 19
19, 25
18, 18
16, 26
8, 16
22, 19
16, 15
6, 15
9, 1
11, 12
9, 8
7, 9
5, 10
11, 13
5, 15
4, 13
3, 15
12, 20
4, 8
9, 12
7, 12
5, 13
12, 7
6, 10
11, 8
12, 10
11, 12
8, 5
4, 8
9, 12
9, 17
14, 18
17, 16
17, 7
27, 14
14, 8
27, 7
23, 15
14, 8
20, 10
15, 11
12, 12
14, 7
12, 10
12, 13
12, 17
10, 13
21, 16
20, 23
28, 23
28, 38
35, 40
39, 54
63, 66
81, 69
65, 58
75, 48
75, 52
53, 43
53, 26
40, 23
22, 22
26, 19
22, 17
29, 21
36, 29
62, 54
80, 127
158, 202
288, 333
506, 559
853, 956
1213, 1412
1595, 1775
2129, 2194
2337, 2385
2467, 2398
2488, 2258
2237, 1948
1907, 1531
1386, 1108
946, 758
640, 432
380, 243
216, 137
100, 64
63, 47
46, 18
25, 17
30, 15
26, 19
30, 18
25, 19
31, 29
39, 41
34, 38
42, 37
80, 81
110, 140
154, 217
223, 248
268, 322
307, 338
361, 361
357, 382
343, 332
328, 256
254, 204
206, 123
125, 87
87, 66
54, 39
39, 31
21, 15
17, 7
14, 8
13, 9
7, 11
13, 11
16, 24
15, 20
16, 15
15, 15
11, 18
21, 16
14, 9
12, 11
5, 6
8, 10
2, 7
5, 5
6, 6
5, 5
6, 6
5, 3
3, 4
4, 5
8, 6
4, 9
4, 10
4, 5
7, 16
6, 14
15, 15
7, 10
8, 18
4, 8
7, 13
9, 9
8, 6
5, 11
4, 11
7, 11
6, 5
8, 5
6, 8
9, 2
8, 7
5, 3
9, 3
8, 9
6, 6
4, 3
8, 3
2, 4
4, 6
11, 3
5, 4
3, 5
7, 5
2, 4
5, 3
2, 3
5, 5
5, 4
6, 3
12, 1
3, 2
3, 1
7, 8
12, 7
4, 5
5, 6
7, 7
4, 6
4, 4
8, 4
9, 7
10, 8
3, 6
12, 8
8, 7
9, 11
8, 4
13, 5
6, 5
7, 4
6, 3
3, 5
5, 4
4, 2
2, 6
4, 5
3, 9
3, 2
4, 3
4, 2
5, 8
2, 10
5, 5
10, 5
7, 4
8, 6
13, 3
9, 6
6, 5
4, 2
5, 6
3, 6
9, 4
4, 8
5, 1
6, 5
3, 0
6, 1
2, 2
5, 4
2, 4
1, 3
2, 5
4, 4
1, 5
4, 5
3, 4
2, 4
4, 9
6, 5
2, 8
2, 1
2, 5
2, 3
2, 3
6, 6
3, 5
4, 3
1, 0
5, 2
2, 4
1, 4
6, 5
6, 6
7, 2
5, 1
2, 5
4, 1
5, 6
3, 1
1, 4
5, 2
5, 2
3, 1
6, 2
4, 2
1, 2
2, 1
6, 3
3, 1
6, 2
3, 0
3, 1
8, 2
4, 8
2, 2
6, 5
4, 1
5, 4
3, 2
0, 1
1, 3
3, 0
3, 1
5, 0
6, 2
2, 3
4, 3
3, 2
1, 1
5, 2
3, 3
4, 2
1, 3
3, 1
2, 5
3, 4
4, 3
1, 2
2, 1
4, 3
2, 3
6, 0
3, 6
0, 2
4, 2
4, 2
3, 1
2, 0
4, 1
3, 0
3, 1
2, 0
6, 0
3, 3
5, 1
0, 3
2, 2
6, 3
1, 1
1, 1
0, 1
2, 4
4, 1
3, 2
1, 6
1, 2
0, 3
2, 4
3, 2
2, 0
2, 2
3, 0
2, 5
3, 2
3, 0
1, 0
3, 2
2, 5
3, 1
3, 2
2, 3
2, 1
3, 1
0, 3
3, 1
4, 4
0, 2
3, 4
6, 0
3, 4
2, 6
4, 3
5, 6
3, 3
4, 1
1, 4
0, 1
1, 5
2, 3
1, 5
2, 4
2, 3
0, 0
4, 3
0, 4
4, 3
0, 0
3, 1
0, 2
2, 2
1, 1
1, 0
2, 3
2, 2
1, 1
2, 4
2, 4
3, 2
3, 0
2, 1
5, 2
3, 2
3, 2
3, 2
0, 0
1, 0
2, 3
0, 3
2, 1
1, 0
2, 0
0, 3
0, 0
0, 1
1, 2
0, 2
0, 5
3, 0
1, 0
0, 2
0, 3
4, 0
1, 3
0, 2
0, 3
1, 1
1, 0
1, 0
1, 2
1, 0
0, 1
1, 0
3, 1
1, 2
1, 0
2, 0
1, 2
0, 3
1, 1
2, 1
0, 0
1, 1
3, 0
2, 0
0, 0
1, 0
0, 0
0, 0
2, 1
1, 0
2, 1
0, 0
0, 0
1, 0
1, 0
1, 0
4, 1
0, 0
0, 0
1, 1
0, 1
0, 2
1, 0
1, 1
0, 0
0, 0
1, 0
1, 1
2, 1
0, 0
1, 0
1, 1
0, 1
2, 0
0, 0
0, 0
1, 0
1, 0
0, 0
0, 1
0, 0
0, 2
0, 2
2, 0
0, 1
0, 0
2, 1
0, 0
1, 0
0, 0
0, 0
2, 0
0, 0
0, 1
0, 1
0, 0
0, 0
1, 0
0, 1
1, 1
1, 1
0, 0
2, 2
0, 0
1, 0
0, 1
1, 0
0, 1
0, 2
0, 0
0, 0
1, 0
0, 1
0, 0
1, 1
1, 1
0, 1
1, 1
1, 3
2, 0
0, 0
0, 2
0, 0
0, 1
0, 1
0, 0
0, 1
3, 0
0, 0
0, 0
0, 1
0, 0
2, 0
0, 0
0, 1
0, 0
1, 1
0, 0
1, 0
0, 1
0, 1
0, 2
0, 1
0, 0
1, 1
0, 0
0, 0
1, 1
0, 0
0, 0
1, 0
0, 0
0, 0
0, 1
2, 0
1, 2
0, 0
0, 0
0, 0
0, 0
1, 0
1, 0
2, 0
0, 0
0, 1
0, 0
0, 0
0, 0
1, 0
0, 0
1, 0
0, 0
1, 0
0, 0
1, 0
0, 0
0, 0
2, 0
0, 1
1, 0
0, 0
0, 0
0, 0
0, 0
0, 0
0, 1
1, 1
1, 0
0, 1
1, 0
0, 0
0, 0
0, 0
0, 0
0, 0
0, 0
0, 0
0, 0
0, 0
0, 0
2, 0
1, 0
0, 0
0, 0
0, 0
0, 0
0, 0
1, 0
1, 0
0, 0
0, 0
0, 0
0, 0
1, 0
1, 0
1, 0
0, 0
0, 1
0, 0
0, 1
0, 0
0, 0
0, 0
0, 0
0, 0
0, 3
0, 0
0, 0
1, 0
0, 2
0, 0
0, 0
0, 0
1, 0
0, 0
0, 0
1, 0
0, 1
0, 0
0, 2
0, 0
0, 0
0, 0
0, 0
0, 0
0, 1
0, 0
0, 0
0, 0
0, 0
0, 0
0, 0
0, 0
0, 0
0, 0
0, 0
0, 0
1, 0
0, 0
0, 1
0, 0
0, 1
1, 1
0, 0
0, 0
0, 1
0, 0
0, 0
0, 0
0, 0
0, 0
0, 0
0, 1
2, 0
0, 0
1, 0
0, 1
0, 0
0, 1
0, 0
0, 0
0, 1
0, 1
1, 0
0, 0
0, 0
0, 0
1, 0
0, 0
1, 0
0, 0
0, 0
0, 0
1, 0
0, 0
0, 0
0, 0
0, 0
0, 0
0, 0
0, 0
0, 0
0, 0
0, 0
1, 0
0, 0
0, 0
1, 0
0, 0
0, 0
0, 0
0, 0
0, 0
0, 0
0, 0
0, 0
1, 0
0, 0
0, 0
0, 0
0, 0
0, 0
0, 0
0, 0
0, 0
0, 0
0, 0
0, 0
0, 0
0, 0
0, 0
1, 0
0, 0
0, 0
0, 0
0, 0
0, 0
0, 0
0, 0
0, 1
0, 0
0, 0
0, 0
0, 1
0, 0
0, 0
0, 0
0, 0
0, 0
0, 0
0, 0
0, 0
0, 0
0, 0
0, 0
0, 0
0, 0
0, 0
0, 0
0, 0
0, 0
0, 0
0, 0
0, 0
0, 0
0, 0
0, 0
0, 0
0, 0
0, 0
0, 0
0, 0
0, 0
0, 0
0, 0
0, 0
0, 0
0, 0
0, 0
0, 0
0, 0
0, 0
0, 0
0, 0
0, 0
0, 0
0, 0
0, 0
0, 0
0, 0
0, 0
0, 0
0, 0
0, 0
0, 0
0, 0
0, 0
0, 0
0, 0
0, 0
0, 0
0, 0
0, 0
0, 0
1, 0
0, 0
0, 0
0, 0
0, 0
0, 0
0, 0
0, 0
0, 0
0, 0
0, 0
1, 0
0, 0
0, 0
0, 0
0, 0
0, 0
0, 0
0, 0
0, 0
0, 0
0, 0
0, 0
1, 0
0, 0
0, 0
0, 0
0, 0
0, 0
0, 0
0, 0
0, 0
0, 0
0, 0
0, 0
0, 0
0, 0
0, 0
0, 0
0, 0
0, 0
0, 0
0, 0
0, 0
0, 0
0, 0
0, 0
0, 0
0, 0
0, 0
0, 0
0, 0
0, 0
0, 0
0, 0
0, 0
0, 0
0, 0
0, 0
0, 0
0, 0
0, 0
0, 0
0, 0
0, 0
0, 0
0, 0
0, 0
0, 0
0, 0
0, 0
0, 0
0, 0
0, 0
0, 0
0, 0
0, 0
0, 0
0, 0
0, 0
0, 0
0, 0
0, 0
0, 0
0, 0
0, 0
0, 0
0, 0
0, 0
0, 0
0, 0
0, 0
0, 0
0, 0
0, 0
0, 0
0, 0
0, 0
0, 0
0, 0
0, 0
0, 0
0, 0
0, 0
0, 0
0, 0
0, 0
0, 0
0, 0
0, 0
0, 0
0, 0
0, 0
0, 0
0, 0
0, 0
0, 0
0, 0
0, 0
0, 0
0, 0
0, 0
0, 0
0, 0
0, 0
0, 0
0, 0
0, 0
0, 0
0, 0
0, 0
0, 0
0, 0
0, 0
0, 0
0, 0
0, 0
0, 0
0, 0
0, 0
0, 0
0, 0
0, 0
0, 0
0, 0
0, 0
0, 0
0, 0
0, 0
0, 0
0, 0
0, 0
0, 0
0, 0
0, 0
0, 0
0, 0
0, 0
0, 0
0, 0
0, 0
0, 0
0, 0
0, 0
0, 0
0, 0
0, 0
0, 0
0, 0
0, 0
0, 0
0, 0
0, 0
0, 0
0, 0
0, 0
0, 0
0, 0
0, 0
0, 0
0, 0
0, 0
0, 0
0, 0
0, 0
0, 0
0, 0
0, 0
0, 0
0, 0
0, 0
0, 0
0, 0
0, 0
0, 0
0, 0
0, 0
0, 0
0, 0
0, 0
0, 0
0, 0
0, 0
0, 0
0, 0
0, 0
0, 0
0, 0
0, 0
0, 0
0, 0
0, 0
0, 0
0, 0
0, 0
0, 0
0, 0
0, 0
0, 0
0, 0
0, 0
0, 0
0, 0
0, 0
0, 0
0, 0
0, 0
0, 0
0, 0
0, 0
0, 0
0, 0
0, 0
0, 0
0, 0
0, 0
0, 0
0, 0
0, 0
0, 0
0, 0
0, 0
0, 0
0, 0
0, 0
0, 0
0, 0
0, 0
0, 0
0, 0
0, 0
0, 0
0, 0
0, 0
0, 0
0, 0
0, 0
0, 0
0, 0
0, 0
0, 0
0, 0
0, 0
0, 0
0, 0
0, 0
0, 0
0, 0
0, 0
0, 0
0, 0
0, 0
0, 0
0, 0
0, 0
0, 0
0, 0
0, 0
0, 0
0, 0
0, 0
0, 0
0, 0
0, 0
0, 0
0, 0
0, 0
0, 0
0, 0
0, 0
0, 0
0, 0
0, 0
0, 0
0, 0
0, 0
0, 0
0, 0
0, 0
0, 0
0, 0
0, 0
0, 0
0, 0
0, 0
0, 0
0, 0
0, 0
0, 0
0, 0
0, 0
0, 0
0, 0
0, 0
0, 0
0, 0
0, 0
0, 0
0, 0
0, 0
0, 0
0, 0
0, 0
0, 0
0, 0
0, 0
0, 0
0, 0
0, 0
0, 0
0, 0
0, 0
0, 0
0, 0
0, 0
0, 0
0, 0
0, 0
0, 0
0, 0
0, 0
0, 0
0, 0
0, 0
0, 0
0, 0
0, 0
0, 0
0, 0
0, 0
0, 0
0, 0
0, 0
0, 0
0, 0
0, 0
0, 0
0, 0
0, 0
0, 0
0, 0
0, 0
0, 0
0, 0
0, 0
0, 0
0, 0
0, 0
0, 0
0, 0
0, 0
0, 0
0, 0
0, 0
0, 0
0, 0
0, 0
0, 0
0, 0
0, 0
0, 0
0, 0
0, 0
0, 0
0, 0
0, 0
0, 0
0, 0
#ENDOFDATA     end of spectrum data