File: host_upload/06-09-2024/ps_0852/dump3/ps__0852shot_2023.msa
#FORMAT      : EMSA/MAS spectral data file
#VERSION     : TC202v2.0 PIXL
#TITLE       : N/A
#DATE        :       Date in the format DD-MMM-YYYY, for example 07-JUL-2010
#TIME        :             The time of day at which the spectrum was recorded, in 24-hour format
#OWNER       : PIXL Flight Model       (PIXL will use this to indicate which instrument took the data.)
#NPOINTS     : 4096     Number of data points in the spectrum (This can be zero for configuration only files)
#NCOLUMNS    : 2     Number of data columns in the spectrum (This can be zero for configuration only files)
#XUNITS      : eV
#YUNITS      : COUNTS
#DATATYPE    : YY
#XPERCHAN    : 7.862, 7.881   eV per channel (separate by commas if more than one detector)
#OFFSET      : 18.5, -22.4         eV of first channel  (separate by commas if more than one detector
#SIGNALTYPE  : XRF
#YP_TEMP     : 2.364
#LIVETIME    : 8.56576, 8.54819   seconds (separate by commas if more than one detector)
#REALTIME    : 10, 10.0   seconds (separate by commas if more than one detector)
#SPECTRUM    : start of spectrum data
0, 0
0, 0
0, 0
0, 0
0, 0
0, 0
0, 0
0, 0
0, 0
0, 0
0, 0
0, 0
0, 0
0, 0
0, 0
0, 0
0, 0
0, 0
0, 0
0, 0
0, 0
0, 0
0, 0
0, 0
0, 0
0, 0
0, 0
0, 0
0, 0
0, 0
0, 0
0, 0
0, 1
0, 1
0, 0
1, 0
1, 1
0, 0
0, 2
1, 2
1, 2
2, 1
1, 2
1, 2
0, 1
1, 1
1, 2
3, 1
9, 9
11, 9
24, 18
39, 53
37, 86
51, 73
73, 94
68, 54
48, 70
43, 48
22, 34
14, 24
8, 5
3, 4
3, 5
3, 3
4, 3
2, 5
2, 2
9, 9
19, 29
45, 66
93, 120
120, 191
202, 273
287, 419
384, 445
351, 470
329, 358
238, 312
183, 223
126, 141
49, 78
25, 56
24, 30
9, 14
4, 3
3, 4
1, 1
1, 1
1, 0
0, 2
1, 2
2, 0
2, 1
1, 2
5, 2
2, 4
4, 3
6, 2
8, 5
4, 2
5, 1
3, 8
6, 5
8, 3
3, 2
7, 5
8, 12
9, 6
14, 11
16, 19
25, 23
36, 27
49, 45
50, 51
56, 79
59, 51
59, 56
70, 54
47, 52
45, 53
42, 38
36, 37
32, 38
25, 35
21, 28
19, 21
12, 17
17, 15
13, 13
9, 11
7, 6
3, 4
1, 1
5, 4
4, 2
5, 6
1, 2
2, 3
1, 4
2, 1
4, 1
3, 1
1, 6
2, 1
1, 2
4, 5
3, 4
6, 2
6, 2
4, 7
1, 8
3, 6
9, 12
7, 17
18, 23
13, 34
14, 20
15, 19
18, 30
15, 19
15, 18
10, 16
11, 16
4, 12
7, 16
6, 4
6, 3
8, 7
9, 3
2, 10
7, 8
10, 7
4, 8
7, 6
5, 9
12, 7
13, 8
10, 13
14, 7
7, 14
6, 13
12, 17
16, 11
6, 4
8, 7
10, 8
10, 5
6, 7
9, 5
9, 8
14, 14
12, 12
9, 8
9, 25
14, 14
13, 16
12, 15
14, 19
6, 26
21, 18
12, 12
10, 16
14, 13
10, 12
6, 6
10, 5
13, 5
7, 10
5, 7
10, 13
7, 10
6, 5
11, 8
10, 8
6, 7
11, 11
9, 11
4, 7
6, 7
6, 6
10, 5
8, 7
7, 8
4, 8
13, 11
14, 9
22, 10
7, 16
12, 26
15, 23
19, 24
20, 17
20, 33
16, 29
19, 20
17, 26
15, 16
15, 13
5, 20
12, 14
9, 15
7, 18
11, 15
15, 15
19, 22
15, 25
29, 43
31, 43
40, 59
60, 63
54, 67
56, 80
60, 77
67, 71
48, 62
34, 50
25, 51
29, 44
20, 44
27, 40
37, 52
33, 49
37, 67
78, 129
145, 217
244, 395
416, 663
714, 1077
992, 1476
1374, 1981
1749, 2287
1973, 2534
2057, 2641
2043, 2428
1860, 2161
1510, 1709
1180, 1256
822, 798
513, 498
313, 308
210, 165
108, 93
44, 46
36, 24
19, 25
15, 22
9, 14
10, 32
11, 19
19, 33
22, 35
37, 51
53, 66
62, 81
102, 152
139, 205
169, 295
223, 321
275, 349
283, 361
304, 396
312, 382
255, 287
238, 243
165, 162
128, 132
95, 77
42, 54
30, 29
17, 15
13, 7
14, 10
9, 10
7, 11
17, 12
13, 7
15, 13
21, 25
16, 14
15, 19
12, 17
10, 21
11, 7
8, 13
5, 7
6, 7
5, 6
7, 8
5, 5
9, 7
1, 6
6, 7
5, 6
3, 9
3, 4
1, 8
5, 6
7, 8
5, 7
6, 7
8, 5
3, 5
5, 12
2, 9
9, 11
7, 8
8, 7
12, 4
9, 7
5, 11
9, 11
5, 10
1, 9
9, 6
5, 6
6, 9
7, 12
5, 7
12, 6
8, 8
6, 10
3, 4
11, 4
5, 8
5, 7
7, 14
7, 14
8, 12
5, 15
3, 6
4, 5
6, 7
8, 10
5, 7
1, 5
6, 7
7, 6
1, 4
3, 6
5, 3
3, 8
3, 6
8, 2
7, 6
2, 3
4, 5
1, 4
6, 4
3, 4
6, 8
3, 5
5, 3
6, 3
7, 1
1, 2
5, 4
4, 5
6, 9
2, 5
2, 3
3, 2
5, 4
7, 4
5, 6
1, 3
2, 2
9, 12
5, 6
6, 4
4, 8
8, 5
5, 4
2, 2
0, 2
1, 2
1, 3
2, 6
1, 5
2, 3
1, 3
3, 6
6, 2
4, 6
3, 3
1, 3
3, 8
6, 2
5, 4
5, 1
5, 5
2, 4
4, 6
0, 1
5, 9
4, 5
3, 7
2, 8
2, 2
3, 5
1, 4
6, 2
5, 2
2, 4
1, 6
3, 1
3, 3
1, 2
3, 5
1, 7
7, 2
1, 2
2, 6
0, 4
3, 3
3, 4
3, 2
1, 1
4, 3
1, 1
0, 1
4, 4
2, 1
2, 3
4, 3
3, 3
1, 2
6, 1
1, 3
1, 3
2, 2
5, 1
2, 2
2, 5
0, 4
3, 1
5, 3
0, 2
7, 2
4, 5
2, 3
1, 3
6, 4
4, 4
2, 3
0, 3
1, 1
2, 7
4, 2
4, 2
2, 2
4, 3
3, 4
2, 0
1, 1
2, 5
1, 6
1, 1
5, 4
1, 4
1, 4
1, 2
1, 2
1, 0
3, 2
6, 2
3, 1
3, 5
2, 3
1, 0
3, 1
5, 3
3, 1
4, 2
2, 2
3, 3
2, 3
2, 4
2, 3
0, 1
3, 1
1, 3
4, 5
3, 1
2, 3
2, 0
2, 3
2, 2
1, 5
1, 3
5, 4
3, 3
3, 2
1, 3
1, 2
4, 3
1, 5
1, 3
1, 4
4, 5
2, 8
0, 7
4, 4
2, 3
4, 6
9, 3
3, 4
1, 2
5, 5
3, 6
4, 3
2, 0
5, 2
0, 5
1, 1
0, 1
2, 1
2, 3
2, 2
1, 3
2, 1
0, 0
1, 2
0, 0
2, 1
0, 2
2, 1
1, 6
1, 2
1, 5
0, 7
1, 3
4, 4
0, 0
1, 2
1, 2
1, 5
2, 0
1, 2
0, 3
3, 1
1, 1
3, 3
3, 2
2, 0
0, 2
2, 3
1, 0
0, 0
0, 1
3, 0
0, 2
1, 1
0, 2
1, 1
1, 0
2, 0
0, 2
2, 0
3, 0
2, 1
1, 0
3, 2
1, 0
0, 3
1, 0
2, 0
2, 1
0, 3
3, 1
2, 2
2, 0
0, 0
0, 2
1, 0
1, 1
1, 0
0, 1
0, 2
1, 2
0, 0
0, 1
2, 2
2, 2
0, 0
3, 1
0, 1
3, 2
1, 1
1, 2
1, 1
3, 0
1, 2
1, 0
0, 0
0, 1
1, 0
1, 1
1, 1
1, 1
0, 0
0, 0
3, 1
0, 0
1, 0
1, 1
1, 1
0, 0
1, 0
1, 0
1, 0
0, 0
0, 0
1, 3
1, 1
0, 2
1, 1
0, 0
0, 2
1, 0
0, 2
0, 0
0, 4
1, 1
0, 1
0, 1
1, 0
0, 1
1, 2
0, 0
0, 0
2, 0
0, 0
0, 2
0, 0
1, 2
0, 0
1, 2
0, 0
0, 0
2, 0
0, 0
0, 0
0, 1
1, 0
0, 0
0, 0
1, 0
0, 0
1, 2
0, 2
0, 0
3, 0
1, 0
0, 0
0, 0
0, 1
1, 1
2, 0
0, 1
0, 0
0, 0
0, 1
0, 0
0, 0
2, 0
0, 1
0, 0
0, 0
0, 0
2, 0
1, 0
0, 1
0, 1
0, 0
0, 0
2, 1
0, 1
0, 0
1, 0
0, 0
0, 0
0, 0
0, 0
0, 0
0, 1
0, 0
0, 1
0, 0
1, 0
1, 0
1, 0
0, 0
0, 1
0, 0
0, 0
1, 0
0, 0
1, 0
0, 0
0, 0
0, 0
1, 1
0, 0
0, 0
0, 0
0, 0
1, 0
0, 0
1, 0
0, 0
0, 0
0, 0
1, 0
0, 1
0, 0
0, 0
0, 0
0, 1
0, 0
0, 0
0, 0
0, 0
1, 1
0, 0
1, 1
0, 0
0, 0
0, 1
1, 0
0, 0
0, 0
0, 1
0, 1
0, 0
1, 1
0, 0
1, 0
0, 0
0, 0
0, 1
1, 0
0, 0
0, 0
0, 1
1, 0
0, 0
0, 0
0, 0
0, 0
0, 0
0, 0
1, 0
0, 0
0, 0
0, 1
0, 0
0, 0
1, 0
0, 0
0, 1
0, 0
0, 0
0, 0
0, 0
0, 0
0, 0
0, 0
0, 2
0, 1
0, 0
0, 0
1, 0
0, 0
1, 0
0, 0
0, 0
0, 0
0, 2
0, 0
0, 0
1, 0
1, 0
0, 0
0, 0
0, 0
0, 0
0, 0
0, 1
0, 0
0, 1
0, 0
0, 0
0, 0
1, 0
0, 0
0, 0
0, 0
0, 1
0, 0
0, 1
0, 0
0, 1
0, 0
0, 0
0, 0
1, 0
0, 0
0, 2
0, 0
0, 2
0, 0
0, 0
0, 1
1, 0
0, 0
0, 0
0, 0
1, 1
0, 0
0, 0
0, 0
1, 0
0, 0
0, 0
0, 0
1, 0
0, 1
0, 0
0, 0
0, 0
0, 0
0, 0
1, 0
0, 0
0, 0
0, 0
0, 0
0, 0
0, 0
1, 0
0, 0
0, 0
0, 0
0, 0
0, 0
0, 0
0, 0
0, 0
0, 0
0, 0
0, 0
0, 0
0, 0
0, 0
0, 0
0, 0
0, 0
0, 0
0, 0
0, 0
0, 0
0, 0
0, 0
0, 0
0, 0
0, 1
0, 0
0, 0
0, 0
0, 0
0, 0
0, 0
0, 0
0, 0
0, 1
0, 0
0, 0
0, 0
0, 0
0, 0
0, 0
0, 0
0, 0
0, 0
0, 0
0, 0
0, 0
0, 0
0, 0
0, 0
0, 0
0, 0
0, 0
0, 0
0, 0
0, 0
0, 0
0, 0
0, 0
0, 0
0, 0
0, 0
0, 1
0, 0
0, 0
0, 0
0, 0
0, 0
0, 0
0, 0
0, 0
0, 1
0, 0
0, 0
0, 0
0, 0
0, 0
0, 0
0, 0
0, 0
0, 0
1, 0
0, 0
0, 0
0, 0
0, 0
0, 0
0, 0
0, 0
0, 0
0, 0
0, 0
0, 0
0, 0
0, 0
0, 0
0, 0
0, 0
0, 0
0, 0
1, 0
0, 0
0, 0
0, 0
0, 0
0, 0
0, 0
0, 0
0, 0
0, 0
0, 0
0, 0
0, 0
0, 0
0, 0
0, 0
0, 0
0, 0
0, 0
0, 0
0, 0
0, 0
0, 0
0, 0
0, 0
0, 0
0, 0
0, 0
0, 0
0, 0
0, 0
0, 0
0, 1
0, 0
0, 0
0, 0
0, 0
0, 0
0, 0
0, 0
0, 0
0, 0
0, 0
0, 0
0, 0
0, 0
0, 0
0, 0
0, 0
0, 0
0, 0
0, 0
0, 0
0, 0
0, 0
0, 0
0, 0
0, 0
0, 0
0, 0
0, 0
0, 0
0, 0
0, 0
0, 0
0, 0
0, 1
0, 0
0, 0
0, 0
0, 0
0, 0
0, 0
0, 0
0, 0
0, 0
0, 0
0, 0
0, 0
0, 0
0, 0
0, 0
0, 0
0, 0
0, 0
0, 0
0, 0
0, 0
0, 0
0, 0
0, 0
0, 0
0, 0
0, 0
0, 0
0, 0
0, 0
0, 0
0, 0
0, 0
0, 0
0, 0
0, 0
0, 0
0, 0
0, 0
0, 0
0, 0
0, 0
0, 0
0, 0
0, 0
0, 0
0, 0
0, 0
0, 0
0, 0
0, 0
0, 0
0, 0
0, 0
0, 0
0, 0
0, 0
0, 0
0, 0
0, 0
0, 0
0, 0
0, 0
0, 0
0, 0
0, 0
0, 0
0, 0
0, 0
0, 0
0, 0
0, 0
0, 0
0, 0
0, 0
0, 0
0, 0
0, 0
0, 0
0, 0
0, 0
0, 0
0, 0
0, 0
0, 0
0, 0
0, 0
0, 0
0, 0
0, 0
0, 0
0, 0
0, 0
0, 0
0, 0
0, 0
0, 0
0, 0
0, 0
0, 0
0, 0
0, 0
0, 0
0, 0
0, 0
0, 0
0, 0
0, 0
0, 0
0, 0
0, 0
0, 0
0, 0
0, 0
0, 0
0, 0
0, 0
0, 0
0, 0
0, 0
0, 0
0, 0
0, 0
0, 0
0, 0
0, 0
0, 0
0, 0
0, 0
0, 0
0, 0
0, 0
0, 0
0, 0
0, 0
0, 0
0, 0
0, 0
0, 0
0, 0
0, 0
0, 0
0, 0
0, 0
0, 0
0, 0
0, 0
0, 0
0, 0
0, 0
0, 0
0, 0
0, 0
0, 0
0, 0
0, 0
0, 0
0, 0
0, 0
0, 0
0, 0
0, 0
0, 0
0, 0
0, 0
0, 0
0, 0
0, 0
0, 0
0, 0
0, 0
0, 0
0, 0
0, 0
0, 0
0, 0
0, 0
0, 0
0, 0
0, 0
0, 0
0, 0
0, 0
0, 0
0, 0
0, 0
0, 0
0, 0
0, 0
0, 0
0, 0
0, 0
0, 0
0, 0
0, 0
0, 0
0, 0
0, 0
0, 0
0, 0
0, 0
0, 0
0, 0
0, 0
0, 0
0, 0
0, 0
0, 0
0, 0
0, 0
0, 0
0, 0
0, 0
0, 0
0, 0
0, 0
0, 0
0, 0
0, 0
0, 0
0, 0
0, 0
0, 0
0, 0
0, 0
0, 0
0, 0
0, 0
0, 0
0, 0
0, 0
0, 0
0, 0
0, 0
0, 0
0, 0
0, 0
0, 0
0, 0
0, 0
0, 0
0, 0
0, 0
0, 0
0, 0
0, 0
0, 0
0, 0
0, 0
0, 0
0, 0
0, 0
0, 0
0, 0
0, 0
0, 0
0, 0
0, 0
0, 0
0, 0
0, 0
0, 0
0, 0
0, 0
0, 0
0, 0
0, 0
0, 0
0, 0
0, 0
0, 0
0, 0
0, 0
0, 0
0, 0
0, 0
0, 0
0, 0
0, 0
0, 0
0, 0
0, 0
0, 0
0, 0
0, 0
0, 0
0, 0
0, 0
0, 0
0, 0
0, 0
0, 0
0, 0
0, 0
0, 0
0, 0
0, 0
0, 0
0, 0
0, 0
0, 0
0, 0
0, 0
0, 0
0, 0
0, 0
0, 0
0, 0
0, 0
0, 0
0, 0
0, 0
0, 0
0, 0
0, 0
0, 0
0, 0
0, 0
0, 0
#ENDOFDATA     end of spectrum data