File: host_upload/06-09-2024/ps_0852/dump3/ps__0852shot_2466.msa
#FORMAT      : EMSA/MAS spectral data file
#VERSION     : TC202v2.0 PIXL
#TITLE       : N/A
#DATE        :       Date in the format DD-MMM-YYYY, for example 07-JUL-2010
#TIME        :             The time of day at which the spectrum was recorded, in 24-hour format
#OWNER       : PIXL Flight Model       (PIXL will use this to indicate which instrument took the data.)
#NPOINTS     : 4096     Number of data points in the spectrum (This can be zero for configuration only files)
#NCOLUMNS    : 2     Number of data columns in the spectrum (This can be zero for configuration only files)
#XUNITS      : eV
#YUNITS      : COUNTS
#DATATYPE    : YY
#XPERCHAN    : 7.862, 7.881   eV per channel (separate by commas if more than one detector)
#OFFSET      : 18.5, -22.4         eV of first channel  (separate by commas if more than one detector
#SIGNALTYPE  : XRF
#YP_TEMP     : 1.979
#LIVETIME    : 8.52715, 8.51512   seconds (separate by commas if more than one detector)
#REALTIME    : 10, 10.0   seconds (separate by commas if more than one detector)
#SPECTRUM    : start of spectrum data
0, 0
0, 0
0, 0
0, 0
0, 0
0, 0
0, 0
0, 0
0, 0
0, 0
0, 0
0, 0
0, 0
0, 0
0, 0
0, 0
0, 0
0, 0
0, 0
0, 0
0, 0
0, 0
0, 0
0, 0
0, 0
0, 0
0, 0
0, 0
0, 1
0, 0
0, 0
0, 0
0, 0
0, 2
1, 0
1, 1
2, 1
3, 1
4, 2
3, 3
0, 4
3, 2
4, 0
4, 2
5, 7
6, 0
1, 0
3, 2
3, 6
11, 13
19, 23
44, 24
50, 35
58, 61
61, 64
74, 59
40, 44
22, 33
16, 20
13, 10
10, 10
4, 2
7, 2
5, 4
3, 4
3, 1
5, 4
12, 5
15, 14
31, 33
72, 62
96, 111
159, 170
210, 221
250, 258
236, 246
248, 205
179, 170
116, 125
70, 75
37, 47
19, 19
13, 12
11, 10
11, 9
6, 7
1, 8
3, 3
6, 6
9, 6
9, 15
23, 22
48, 38
86, 84
154, 144
233, 284
356, 427
528, 540
584, 595
630, 609
547, 554
424, 426
328, 286
195, 211
117, 144
69, 67
61, 71
53, 47
44, 59
61, 58
75, 69
71, 81
95, 109
83, 99
90, 101
84, 99
76, 88
58, 84
51, 43
51, 51
50, 35
32, 41
39, 29
23, 26
17, 24
23, 27
17, 17
16, 15
19, 16
7, 11
10, 9
10, 6
6, 10
4, 6
1, 1
4, 4
5, 8
6, 5
3, 8
12, 14
8, 9
12, 12
17, 4
7, 13
11, 5
9, 8
5, 5
4, 4
5, 7
8, 5
7, 7
7, 10
14, 20
22, 28
41, 37
42, 43
46, 77
55, 60
53, 57
45, 47
34, 39
32, 21
21, 15
14, 12
11, 9
8, 3
10, 7
9, 4
15, 8
15, 9
13, 13
12, 16
8, 18
8, 12
8, 6
9, 4
7, 5
13, 1
9, 5
5, 4
13, 11
11, 9
6, 11
10, 13
7, 12
7, 8
9, 18
6, 16
9, 12
7, 23
4, 26
10, 30
7, 17
15, 16
15, 20
14, 20
15, 20
10, 19
13, 16
14, 10
15, 13
10, 15
7, 10
10, 16
4, 9
5, 5
8, 15
6, 9
4, 13
6, 15
7, 7
5, 17
7, 13
8, 11
5, 13
12, 19
11, 9
7, 8
3, 11
12, 13
9, 7
8, 8
6, 10
7, 11
7, 7
13, 9
14, 14
10, 16
17, 20
19, 26
26, 23
29, 35
29, 27
24, 16
28, 15
23, 25
20, 18
12, 11
15, 10
12, 14
19, 9
7, 15
7, 6
14, 11
8, 18
19, 27
26, 26
40, 31
46, 62
67, 61
62, 51
52, 58
71, 53
41, 50
32, 35
38, 28
23, 18
20, 28
21, 11
12, 19
19, 20
28, 28
47, 58
69, 99
135, 175
276, 338
464, 582
760, 897
1050, 1275
1490, 1703
1853, 2045
2142, 2276
2240, 2336
2217, 2185
2101, 1899
1605, 1486
1232, 1068
840, 754
526, 470
347, 229
204, 153
79, 69
53, 48
32, 34
21, 21
18, 19
17, 27
15, 29
19, 25
13, 34
22, 34
33, 43
45, 59
70, 58
102, 127
140, 173
197, 214
239, 264
327, 313
347, 339
327, 359
321, 313
305, 254
228, 188
191, 131
116, 96
80, 63
41, 39
25, 24
18, 15
12, 12
9, 13
9, 9
15, 10
6, 10
7, 11
21, 13
23, 9
16, 10
15, 14
18, 11
20, 12
25, 15
28, 13
17, 19
12, 19
21, 30
9, 23
7, 22
10, 23
8, 18
2, 24
9, 20
5, 22
3, 11
5, 6
4, 8
4, 3
7, 6
5, 5
4, 5
6, 5
5, 10
1, 3
7, 3
4, 8
3, 3
5, 6
3, 3
3, 3
3, 5
5, 7
6, 5
3, 4
7, 8
2, 6
4, 4
4, 8
3, 4
6, 5
4, 3
3, 6
4, 3
6, 10
3, 2
2, 2
3, 7
6, 12
7, 11
4, 8
4, 8
3, 9
3, 6
5, 10
6, 10
9, 2
7, 4
9, 1
4, 6
9, 4
6, 3
9, 2
5, 6
7, 6
3, 5
7, 4
3, 5
5, 6
3, 8
8, 9
1, 6
7, 5
4, 4
6, 8
8, 5
2, 8
2, 6
2, 7
3, 5
2, 6
2, 4
7, 3
6, 6
4, 2
2, 3
4, 3
4, 6
6, 3
4, 4
5, 3
3, 3
4, 4
5, 2
7, 1
4, 2
7, 5
5, 6
2, 6
4, 8
1, 2
7, 4
2, 6
2, 7
4, 10
7, 7
2, 7
2, 5
8, 6
3, 5
3, 4
7, 7
7, 7
4, 4
5, 0
3, 5
6, 3
3, 4
3, 6
3, 0
0, 5
0, 3
4, 1
4, 4
12, 2
4, 4
3, 2
9, 2
0, 4
3, 2
6, 3
2, 3
1, 1
8, 3
5, 4
1, 4
3, 4
0, 3
1, 6
5, 5
4, 7
5, 2
5, 3
1, 3
2, 4
5, 5
2, 4
4, 7
5, 7
3, 7
5, 6
7, 3
4, 5
7, 2
5, 5
2, 4
2, 4
1, 2
2, 5
0, 1
3, 4
7, 4
5, 5
2, 4
4, 0
2, 0
1, 1
2, 1
2, 2
3, 3
1, 3
3, 2
2, 2
0, 4
2, 1
2, 3
1, 0
3, 1
2, 2
2, 2
2, 3
2, 0
1, 4
4, 1
2, 2
2, 2
2, 3
1, 3
3, 3
6, 4
4, 1
1, 4
3, 3
3, 0
0, 2
1, 3
2, 5
1, 0
3, 1
1, 3
2, 1
5, 3
2, 0
2, 3
2, 1
3, 1
2, 1
2, 1
3, 1
1, 0
3, 1
3, 3
3, 3
2, 0
3, 2
5, 2
0, 1
2, 4
2, 3
1, 2
8, 3
8, 5
0, 2
5, 5
3, 4
7, 5
3, 4
4, 3
5, 1
1, 6
3, 2
1, 0
1, 2
4, 1
3, 3
2, 1
1, 1
0, 2
2, 0
2, 0
2, 1
1, 1
0, 1
1, 2
0, 1
0, 1
1, 2
1, 3
3, 3
3, 4
2, 0
1, 2
1, 1
3, 2
2, 1
1, 1
2, 2
1, 2
2, 5
1, 1
2, 2
2, 2
2, 2
2, 2
2, 2
0, 1
1, 1
2, 1
1, 0
1, 1
0, 2
0, 3
0, 3
2, 0
2, 2
1, 0
2, 0
2, 2
1, 4
1, 1
0, 0
1, 2
2, 2
0, 0
0, 1
1, 2
2, 0
1, 4
2, 0
0, 1
0, 0
1, 1
1, 0
0, 0
1, 1
1, 0
3, 1
1, 1
0, 0
0, 0
0, 1
0, 1
1, 2
2, 0
3, 1
2, 2
1, 0
1, 0
0, 0
0, 0
1, 1
0, 1
0, 0
0, 1
4, 2
2, 1
1, 2
0, 0
1, 2
1, 0
1, 2
1, 0
2, 0
0, 0
3, 0
1, 0
1, 0
2, 1
0, 2
0, 0
2, 1
0, 0
0, 0
0, 0
1, 0
0, 0
1, 0
1, 0
1, 0
0, 1
1, 0
1, 1
0, 0
0, 0
0, 0
1, 0
1, 0
0, 1
0, 0
1, 0
1, 0
1, 0
0, 1
0, 0
1, 1
1, 1
0, 0
2, 1
1, 1
1, 1
0, 0
1, 0
1, 1
0, 2
1, 0
2, 1
0, 1
1, 0
1, 0
0, 0
0, 0
0, 1
0, 0
0, 0
0, 0
0, 1
0, 1
0, 0
0, 0
0, 0
0, 1
0, 0
0, 1
2, 0
0, 0
0, 1
0, 0
0, 0
0, 0
1, 0
0, 0
0, 0
1, 2
1, 0
0, 0
1, 2
0, 0
1, 0
0, 0
0, 0
0, 0
0, 2
1, 0
1, 0
0, 1
0, 0
0, 0
1, 0
2, 0
0, 0
1, 0
0, 0
0, 0
0, 0
0, 1
2, 1
0, 0
1, 0
0, 0
0, 2
0, 0
0, 1
0, 0
1, 0
1, 0
0, 0
0, 2
0, 0
0, 1
0, 0
0, 0
0, 0
0, 0
1, 0
0, 2
2, 0
0, 1
0, 0
0, 0
0, 0
0, 0
0, 0
0, 1
0, 0
0, 0
0, 0
1, 0
0, 0
0, 0
0, 0
0, 0
0, 0
0, 1
0, 1
0, 0
0, 0
0, 1
0, 0
0, 0
0, 0
0, 0
0, 1
0, 0
0, 0
0, 0
0, 2
0, 1
0, 1
0, 0
0, 1
0, 1
0, 0
0, 0
1, 1
0, 0
0, 0
1, 1
0, 1
1, 1
0, 0
1, 0
0, 0
0, 1
0, 0
1, 0
0, 0
0, 0
0, 1
0, 0
0, 1
1, 0
1, 1
0, 0
2, 1
0, 1
0, 0
0, 1
0, 0
0, 0
1, 0
0, 0
1, 0
0, 0
0, 0
0, 0
0, 0
0, 0
0, 0
0, 0
0, 0
0, 0
0, 0
0, 0
0, 0
0, 0
0, 0
0, 0
0, 0
0, 1
0, 0
0, 0
0, 0
0, 0
0, 0
0, 0
1, 0
0, 0
0, 0
0, 0
0, 0
0, 0
0, 0
1, 0
0, 0
0, 0
1, 0
1, 0
0, 1
2, 0
0, 0
1, 0
0, 0
0, 0
0, 0
0, 0
0, 0
0, 0
1, 0
0, 0
0, 0
0, 0
0, 0
0, 0
1, 0
0, 0
0, 0
0, 0
0, 1
0, 0
0, 0
0, 0
1, 0
0, 0
0, 0
0, 0
0, 0
0, 0
0, 0
0, 1
0, 0
0, 0
0, 0
0, 0
0, 0
0, 0
0, 0
0, 0
1, 0
0, 0
0, 0
0, 0
0, 0
0, 0
0, 0
0, 0
0, 0
0, 1
1, 0
0, 0
0, 0
0, 0
0, 0
0, 0
0, 0
0, 0
0, 0
0, 0
0, 0
0, 0
0, 0
0, 0
0, 1
0, 0
0, 0
0, 0
0, 0
0, 0
0, 0
1, 0
0, 0
0, 0
0, 0
0, 0
0, 0
0, 0
0, 0
0, 0
0, 0
0, 0
0, 0
0, 0
0, 0
0, 0
0, 0
0, 0
0, 0
0, 0
0, 0
0, 0
0, 0
0, 0
0, 0
0, 0
0, 0
0, 0
0, 0
0, 0
0, 0
0, 0
0, 0
0, 0
0, 0
0, 0
0, 0
0, 0
0, 0
0, 0
0, 0
0, 0
0, 0
0, 0
0, 0
0, 0
0, 0
0, 0
0, 0
0, 0
0, 0
0, 0
0, 0
0, 0
0, 0
0, 0
0, 0
0, 0
0, 0
0, 0
0, 0
0, 0
0, 0
0, 0
0, 0
0, 0
0, 0
0, 0
0, 0
0, 0
0, 0
0, 0
0, 0
0, 0
0, 0
0, 0
0, 0
0, 0
0, 0
0, 0
0, 0
0, 0
0, 0
0, 0
0, 0
0, 0
0, 0
0, 0
0, 0
0, 0
0, 0
0, 0
0, 0
0, 0
0, 0
0, 0
0, 0
0, 0
0, 0
0, 0
0, 0
0, 0
0, 0
0, 0
0, 0
0, 0
0, 0
0, 0
0, 0
0, 0
0, 0
0, 0
0, 0
0, 0
0, 0
0, 0
0, 0
0, 0
0, 0
0, 0
0, 0
0, 0
0, 0
0, 0
0, 0
0, 0
0, 0
0, 0
0, 0
0, 0
0, 0
0, 0
0, 0
0, 0
0, 0
0, 0
0, 0
0, 0
0, 0
0, 0
0, 0
0, 0
0, 0
0, 0
0, 0
0, 0
0, 0
0, 0
0, 0
0, 0
0, 0
0, 0
0, 0
0, 0
0, 0
0, 0
0, 0
0, 0
0, 0
0, 0
0, 0
0, 0
0, 0
0, 0
0, 0
0, 0
0, 0
0, 0
0, 0
0, 0
0, 0
0, 0
0, 0
0, 0
0, 0
0, 0
0, 0
0, 0
0, 0
0, 0
0, 0
0, 0
0, 0
0, 0
0, 0
0, 0
0, 0
0, 0
0, 0
0, 0
0, 0
0, 0
0, 0
0, 0
0, 0
0, 0
0, 0
0, 0
0, 0
0, 0
0, 0
0, 0
0, 0
0, 0
0, 0
0, 0
0, 0
0, 0
0, 0
0, 0
0, 0
0, 0
0, 0
0, 0
0, 0
0, 0
0, 0
0, 0
0, 0
0, 0
0, 0
0, 0
0, 0
0, 0
0, 0
0, 0
0, 0
0, 0
0, 0
0, 0
0, 0
0, 0
0, 0
0, 0
0, 0
0, 0
0, 0
0, 0
0, 0
0, 0
0, 0
0, 0
0, 0
0, 0
0, 0
0, 0
0, 0
0, 0
0, 0
0, 0
0, 0
0, 0
0, 0
0, 0
0, 0
0, 0
0, 0
0, 0
0, 0
0, 0
0, 0
0, 0
0, 0
0, 0
0, 0
0, 0
0, 0
0, 0
0, 0
0, 0
0, 0
0, 0
0, 0
0, 0
0, 0
0, 0
0, 0
0, 0
0, 0
0, 0
0, 0
0, 0
0, 0
0, 0
0, 0
0, 0
0, 0
0, 0
0, 0
0, 0
0, 0
0, 0
0, 0
0, 0
0, 0
0, 0
0, 0
0, 0
0, 0
0, 0
0, 0
0, 0
0, 0
0, 0
0, 0
0, 0
0, 0
0, 0
0, 0
0, 0
0, 0
0, 0
0, 0
0, 0
0, 0
0, 0
0, 0
0, 0
0, 0
0, 0
0, 0
0, 0
0, 0
0, 0
0, 0
0, 0
0, 0
0, 0
0, 0
0, 0
0, 0
0, 0
0, 0
0, 0
0, 0
0, 0
0, 0
0, 0
0, 0
0, 0
0, 0
0, 0
0, 0
0, 0
0, 0
0, 0
0, 0
0, 0
0, 0
0, 0
0, 0
0, 0
0, 0
0, 0
0, 0
0, 0
0, 0
0, 0
0, 0
0, 0
0, 0
0, 0
0, 0
0, 0
0, 0
0, 0
0, 0
0, 0
0, 0
0, 0
0, 0
0, 0
0, 0
0, 0
0, 0
0, 0
0, 0
0, 0
0, 0
0, 0
0, 0
0, 0
0, 0
0, 0
0, 0
0, 0
0, 0
0, 0
0, 0
0, 0
0, 0
0, 0
0, 0
0, 0
0, 0
0, 0
0, 0
0, 0
0, 0
0, 0
0, 0
0, 0
0, 0
0, 0
0, 0
0, 0
0, 0
0, 0
0, 0
0, 0
0, 0
0, 0
0, 0
0, 0
0, 0
0, 0
0, 0
0, 0
0, 0
0, 0
0, 0
0, 0
0, 0
0, 0
0, 0
0, 0
0, 0
0, 0
0, 0
0, 0
0, 0
0, 0
0, 0
0, 0
0, 0
0, 0
0, 0
0, 0
0, 0
0, 0
#ENDOFDATA     end of spectrum data