File: host_upload/06-09-2024/ps_0852/dump3/ps__0852shot_2172.msa
#FORMAT      : EMSA/MAS spectral data file
#VERSION     : TC202v2.0 PIXL
#TITLE       : N/A
#DATE        :       Date in the format DD-MMM-YYYY, for example 07-JUL-2010
#TIME        :             The time of day at which the spectrum was recorded, in 24-hour format
#OWNER       : PIXL Flight Model       (PIXL will use this to indicate which instrument took the data.)
#NPOINTS     : 4096     Number of data points in the spectrum (This can be zero for configuration only files)
#NCOLUMNS    : 2     Number of data columns in the spectrum (This can be zero for configuration only files)
#XUNITS      : eV
#YUNITS      : COUNTS
#DATATYPE    : YY
#XPERCHAN    : 7.862, 7.881   eV per channel (separate by commas if more than one detector)
#OFFSET      : 18.5, -22.4         eV of first channel  (separate by commas if more than one detector
#SIGNALTYPE  : XRF
#YP_TEMP     : 2.267
#LIVETIME    : 8.58285, 8.54151   seconds (separate by commas if more than one detector)
#REALTIME    : 10, 10.0   seconds (separate by commas if more than one detector)
#SPECTRUM    : start of spectrum data
0, 0
0, 0
0, 0
0, 0
0, 0
0, 0
0, 0
0, 0
0, 0
0, 0
0, 0
0, 0
0, 0
0, 0
0, 0
0, 0
0, 0
0, 0
0, 0
0, 0
0, 0
0, 0
0, 0
0, 0
0, 0
0, 0
0, 0
0, 0
0, 0
0, 0
0, 0
0, 1
0, 0
0, 0
0, 0
0, 0
1, 0
3, 0
0, 1
1, 0
0, 0
0, 0
2, 1
0, 1
0, 2
0, 3
2, 3
2, 0
7, 5
11, 12
21, 22
28, 40
39, 80
58, 82
54, 95
73, 82
44, 59
38, 40
19, 30
11, 15
4, 5
8, 7
1, 6
3, 5
4, 5
7, 3
2, 8
17, 13
13, 28
33, 59
65, 105
112, 194
195, 278
238, 416
298, 444
335, 438
270, 389
220, 309
162, 174
93, 125
69, 71
31, 49
10, 19
9, 16
8, 10
4, 2
0, 3
3, 5
1, 2
2, 2
3, 6
6, 10
13, 12
29, 36
46, 56
66, 104
105, 134
123, 174
181, 205
180, 224
155, 187
133, 137
104, 119
61, 61
40, 48
25, 34
24, 29
27, 23
16, 24
18, 28
23, 27
37, 52
35, 39
41, 56
33, 53
38, 58
33, 42
33, 38
27, 28
25, 37
22, 26
23, 16
19, 21
19, 14
22, 17
14, 15
9, 13
9, 15
6, 3
11, 7
1, 8
7, 3
5, 4
5, 2
1, 5
4, 4
2, 4
0, 2
3, 1
1, 4
4, 3
3, 2
2, 4
3, 2
4, 6
3, 5
2, 5
0, 1
1, 3
2, 4
1, 11
4, 6
4, 8
4, 19
9, 26
13, 19
21, 31
15, 31
22, 42
12, 30
22, 44
7, 29
11, 20
6, 25
4, 25
3, 35
2, 27
6, 18
6, 22
5, 20
5, 16
7, 6
6, 11
3, 10
4, 5
2, 2
5, 7
3, 4
3, 3
1, 4
4, 7
4, 9
4, 3
7, 1
5, 6
10, 6
21, 6
19, 3
45, 11
39, 6
62, 11
49, 4
60, 8
62, 8
44, 10
39, 8
45, 9
29, 11
15, 17
24, 11
27, 11
29, 5
18, 10
37, 9
17, 4
25, 7
19, 7
14, 5
8, 9
6, 8
5, 4
1, 5
5, 8
3, 4
2, 7
4, 11
9, 6
11, 5
5, 6
4, 7
3, 6
4, 3
8, 8
4, 16
7, 15
9, 14
8, 25
12, 23
15, 33
14, 34
10, 36
8, 42
8, 38
5, 37
7, 40
5, 79
2, 69
5, 85
8, 110
2, 84
4, 109
2, 82
7, 79
8, 77
7, 76
13, 66
13, 71
25, 62
42, 75
40, 88
35, 88
42, 79
43, 64
40, 61
32, 52
31, 33
21, 31
23, 25
15, 11
22, 26
18, 32
34, 45
42, 59
74, 115
141, 219
230, 368
367, 613
555, 964
813, 1424
1139, 1990
1477, 2295
1698, 2488
1891, 2589
1662, 2494
1594, 2098
1369, 1675
965, 1232
666, 805
450, 502
261, 283
155, 152
76, 86
55, 51
26, 33
13, 23
17, 16
12, 14
17, 18
8, 15
16, 22
18, 22
22, 25
47, 56
48, 88
74, 124
123, 178
156, 238
204, 304
240, 371
263, 344
284, 368
251, 365
247, 275
181, 221
134, 192
101, 107
64, 68
43, 40
22, 20
7, 10
11, 10
6, 12
1, 10
9, 9
5, 10
11, 15
14, 16
13, 15
17, 20
15, 18
19, 15
17, 13
15, 10
7, 12
4, 12
4, 7
3, 11
5, 18
5, 11
5, 11
3, 12
0, 6
1, 13
6, 10
3, 11
5, 10
3, 3
3, 3
3, 5
2, 8
1, 5
3, 5
3, 5
4, 5
5, 7
2, 4
1, 11
1, 3
5, 2
1, 13
8, 3
5, 6
3, 2
2, 4
1, 2
4, 6
4, 3
1, 2
5, 8
2, 2
1, 4
1, 3
3, 1
3, 2
2, 2
1, 4
6, 6
2, 8
2, 4
2, 6
3, 6
1, 4
4, 3
3, 5
2, 6
1, 5
0, 7
2, 7
5, 5
3, 5
4, 12
3, 6
3, 6
4, 2
2, 2
4, 7
3, 3
4, 3
5, 4
7, 2
8, 6
9, 5
10, 4
12, 1
15, 3
8, 6
5, 6
9, 4
10, 8
16, 8
7, 8
6, 11
4, 7
8, 10
9, 12
7, 14
3, 12
2, 8
3, 10
3, 3
1, 7
3, 8
1, 3
5, 3
2, 4
5, 3
3, 3
3, 5
4, 3
3, 3
2, 4
1, 3
2, 3
1, 7
1, 3
5, 2
2, 2
3, 5
2, 3
3, 1
0, 3
0, 2
3, 4
4, 4
2, 0
5, 0
4, 2
0, 2
4, 5
3, 3
7, 6
2, 4
4, 3
5, 6
8, 0
2, 3
2, 3
6, 10
2, 7
5, 4
2, 2
0, 3
3, 7
3, 5
2, 3
5, 1
6, 9
2, 6
3, 3
2, 9
1, 5
2, 5
3, 4
3, 3
1, 4
3, 1
2, 0
2, 4
5, 8
5, 3
2, 1
2, 3
2, 4
1, 3
3, 1
1, 6
1, 3
1, 5
1, 3
1, 2
3, 4
5, 5
1, 1
3, 1
3, 2
4, 1
1, 3
0, 2
2, 2
2, 2
0, 1
0, 4
1, 3
0, 4
0, 2
2, 5
3, 3
0, 4
1, 4
1, 8
3, 9
2, 4
2, 5
1, 2
2, 2
2, 8
2, 2
2, 2
2, 0
3, 2
3, 4
0, 3
0, 2
0, 1
1, 2
1, 5
1, 1
1, 4
4, 4
1, 1
4, 1
1, 1
2, 3
1, 3
3, 3
3, 5
5, 4
1, 2
2, 0
7, 6
1, 3
2, 3
2, 1
0, 1
2, 2
2, 5
1, 1
2, 0
3, 2
0, 5
0, 3
1, 5
0, 5
5, 4
3, 4
0, 3
1, 7
1, 5
2, 2
0, 8
1, 2
0, 2
1, 2
1, 1
2, 0
0, 2
1, 2
0, 1
0, 3
0, 2
0, 2
3, 2
0, 0
0, 2
2, 1
0, 1
0, 1
2, 0
1, 2
2, 4
1, 1
1, 2
0, 0
2, 0
0, 0
2, 3
0, 2
0, 0
1, 3
0, 4
1, 2
1, 2
2, 1
0, 1
0, 1
0, 1
2, 1
0, 4
0, 2
0, 1
0, 0
0, 0
0, 1
1, 2
3, 1
1, 0
1, 0
1, 1
1, 1
0, 1
1, 1
0, 2
2, 0
2, 0
1, 0
2, 0
1, 3
0, 1
1, 0
0, 1
1, 0
0, 0
0, 2
0, 2
0, 1
0, 1
1, 0
1, 0
0, 1
0, 0
0, 0
1, 4
0, 2
2, 0
3, 1
3, 1
1, 0
0, 0
3, 0
0, 1
0, 0
0, 0
1, 0
1, 1
0, 0
1, 0
2, 1
0, 0
0, 1
0, 1
1, 0
0, 1
0, 0
0, 2
0, 0
0, 0
1, 0
0, 0
0, 0
0, 0
0, 0
2, 2
0, 1
0, 0
1, 0
1, 1
0, 0
0, 0
1, 0
1, 1
0, 0
2, 0
1, 0
0, 1
0, 0
1, 1
0, 1
1, 0
0, 0
1, 0
0, 2
0, 0
1, 3
0, 0
0, 2
0, 1
0, 0
1, 1
0, 2
1, 1
0, 0
0, 0
0, 1
1, 1
0, 1
0, 0
2, 0
1, 1
1, 1
0, 0
2, 1
1, 2
0, 1
2, 1
0, 1
0, 0
0, 0
1, 0
0, 0
3, 0
0, 1
0, 0
1, 0
0, 0
0, 0
1, 1
0, 0
0, 1
1, 0
0, 0
0, 0
1, 0
0, 0
0, 0
1, 1
0, 0
1, 1
2, 1
0, 1
0, 0
0, 0
0, 0
0, 0
0, 0
2, 0
0, 2
0, 1
1, 0
0, 0
0, 1
1, 0
0, 0
0, 0
0, 1
0, 0
0, 0
0, 0
1, 0
0, 0
0, 0
0, 0
0, 1
0, 0
0, 1
0, 0
0, 0
1, 0
0, 1
1, 1
0, 0
2, 1
0, 0
0, 0
0, 0
0, 0
0, 0
0, 0
0, 0
1, 0
0, 0
0, 0
0, 0
0, 0
0, 1
0, 1
0, 0
1, 0
1, 1
0, 0
0, 0
1, 0
1, 1
0, 1
0, 1
0, 0
0, 1
0, 2
0, 2
0, 0
0, 0
1, 0
0, 0
0, 0
0, 1
1, 1
0, 0
0, 0
0, 0
0, 0
0, 0
1, 0
0, 0
0, 0
0, 0
2, 0
0, 0
0, 0
0, 0
0, 0
0, 0
0, 0
0, 1
0, 0
0, 0
0, 0
0, 0
0, 0
0, 0
0, 0
0, 1
0, 0
0, 0
0, 0
0, 0
0, 0
0, 0
0, 0
0, 0
0, 0
0, 1
0, 0
0, 0
0, 0
1, 0
1, 0
0, 0
0, 0
0, 0
0, 0
0, 0
0, 0
0, 0
0, 0
0, 0
0, 0
0, 0
1, 0
0, 0
1, 0
0, 0
0, 0
1, 0
0, 0
0, 0
0, 0
0, 0
0, 0
0, 1
0, 0
0, 0
0, 0
0, 0
0, 0
0, 0
0, 0
0, 0
0, 0
0, 1
0, 0
0, 0
0, 0
0, 0
0, 0
0, 0
0, 0
0, 2
0, 0
0, 0
0, 1
0, 0
0, 0
0, 0
0, 0
0, 0
0, 0
0, 0
0, 0
0, 0
0, 0
1, 0
0, 0
0, 0
0, 0
0, 0
0, 0
0, 0
1, 0
0, 0
1, 0
0, 0
0, 0
0, 1
0, 0
0, 0
0, 0
0, 0
0, 1
0, 0
0, 0
0, 0
0, 0
0, 0
0, 0
0, 0
0, 0
0, 0
0, 0
0, 0
0, 0
0, 0
0, 0
0, 0
0, 0
0, 0
0, 0
0, 0
0, 0
0, 0
1, 0
0, 0
0, 0
0, 0
0, 0
0, 0
0, 0
0, 0
0, 0
0, 0
0, 0
0, 0
0, 0
0, 0
0, 0
0, 0
0, 0
0, 0
0, 0
0, 0
0, 1
0, 0
0, 0
0, 0
0, 0
0, 0
0, 0
0, 0
0, 0
1, 0
0, 0
1, 0
0, 0
0, 0
0, 0
0, 0
0, 0
0, 0
0, 0
0, 0
0, 0
0, 0
0, 0
0, 0
0, 0
0, 0
0, 0
0, 0
0, 0
0, 0
0, 0
0, 0
0, 0
0, 0
0, 0
0, 0
0, 0
0, 0
0, 0
0, 0
0, 0
0, 0
0, 0
0, 0
0, 0
0, 0
0, 0
0, 0
0, 0
0, 1
0, 0
0, 0
1, 0
0, 0
0, 0
0, 0
0, 0
0, 0
0, 0
0, 0
0, 0
0, 0
0, 0
0, 0
0, 0
0, 0
0, 0
0, 0
0, 0
0, 0
0, 0
0, 0
0, 0
0, 0
0, 0
0, 0
0, 0
0, 0
0, 0
0, 0
0, 0
0, 0
0, 0
0, 0
0, 0
0, 0
0, 0
0, 0
0, 0
0, 1
0, 0
0, 0
0, 0
0, 0
0, 0
0, 0
0, 0
0, 0
0, 0
0, 0
0, 0
0, 0
0, 0
0, 0
0, 0
0, 0
0, 0
0, 0
0, 0
0, 0
0, 0
0, 0
0, 0
0, 0
0, 0
0, 0
0, 0
0, 0
0, 0
0, 0
0, 0
0, 0
0, 0
0, 0
0, 0
0, 0
0, 0
0, 0
0, 0
0, 0
0, 0
0, 0
0, 0
0, 0
0, 0
0, 0
0, 0
0, 0
0, 0
0, 0
0, 0
0, 0
0, 0
0, 0
0, 0
0, 0
0, 0
0, 0
0, 0
0, 0
0, 0
0, 0
0, 0
0, 0
0, 0
0, 0
0, 0
0, 0
0, 0
0, 0
0, 0
0, 0
0, 0
0, 0
0, 0
0, 0
0, 0
0, 0
0, 0
0, 0
0, 0
0, 0
0, 0
0, 0
0, 0
0, 0
0, 0
0, 0
0, 0
0, 0
0, 0
0, 0
0, 0
0, 0
0, 0
0, 0
0, 0
0, 0
0, 0
0, 0
0, 0
0, 0
0, 0
0, 0
0, 0
0, 0
0, 0
0, 0
0, 0
0, 0
0, 0
0, 0
0, 0
0, 0
0, 0
0, 0
0, 0
0, 0
0, 0
0, 0
0, 0
0, 0
0, 0
0, 0
0, 0
0, 0
0, 0
0, 0
0, 0
0, 0
0, 0
0, 0
0, 0
0, 0
0, 0
0, 0
0, 0
0, 0
0, 0
0, 0
0, 0
0, 0
0, 0
0, 0
0, 0
0, 0
0, 0
0, 0
0, 0
0, 0
0, 0
0, 0
0, 0
0, 0
0, 0
0, 0
0, 0
0, 0
0, 0
0, 0
0, 0
0, 0
0, 0
0, 0
0, 0
0, 0
0, 0
0, 0
0, 0
0, 0
0, 0
0, 0
0, 0
0, 0
0, 0
0, 0
0, 0
0, 0
0, 0
0, 0
0, 0
0, 0
0, 0
0, 0
0, 0
0, 0
0, 0
0, 0
0, 0
0, 0
0, 0
0, 0
0, 0
0, 0
0, 0
0, 0
0, 0
0, 0
0, 0
0, 0
0, 0
0, 0
0, 0
0, 0
0, 0
0, 0
0, 0
0, 0
0, 0
0, 0
0, 0
0, 0
0, 0
0, 0
0, 0
0, 0
0, 0
0, 0
0, 0
0, 0
0, 0
0, 0
0, 0
0, 0
0, 0
0, 0
0, 0
0, 0
0, 0
0, 0
0, 0
0, 0
0, 0
0, 0
0, 0
0, 0
0, 0
0, 0
0, 0
0, 0
0, 0
0, 0
0, 0
0, 0
0, 0
0, 0
0, 0
0, 0
0, 0
0, 0
0, 0
0, 0
0, 0
0, 0
0, 0
0, 0
0, 0
0, 0
0, 0
0, 0
0, 0
0, 0
0, 0
0, 0
0, 0
0, 0
0, 0
0, 0
0, 0
0, 0
0, 0
0, 0
0, 0
0, 0
0, 0
0, 0
0, 0
0, 0
0, 0
0, 0
0, 0
0, 0
0, 0
0, 0
0, 0
0, 0
0, 0
0, 0
0, 0
0, 0
0, 0
0, 0
0, 0
0, 0
0, 0
0, 0
0, 0
0, 0
0, 0
0, 0
0, 0
0, 0
0, 0
0, 0
0, 0
0, 0
0, 0
0, 0
0, 0
0, 0
0, 0
0, 0
0, 0
0, 0
0, 0
0, 0
0, 0
0, 0
0, 0
0, 0
0, 0
0, 0
0, 0
0, 0
0, 0
0, 0
0, 0
0, 0
0, 0
0, 0
0, 0
0, 0
0, 0
0, 0
0, 0
0, 0
0, 0
0, 0
#ENDOFDATA     end of spectrum data