File: host_upload/06-09-2024/ps_0852/dump3/ps__0852shot_2323.msa
#FORMAT      : EMSA/MAS spectral data file
#VERSION     : TC202v2.0 PIXL
#TITLE       : N/A
#DATE        :       Date in the format DD-MMM-YYYY, for example 07-JUL-2010
#TIME        :             The time of day at which the spectrum was recorded, in 24-hour format
#OWNER       : PIXL Flight Model       (PIXL will use this to indicate which instrument took the data.)
#NPOINTS     : 4096     Number of data points in the spectrum (This can be zero for configuration only files)
#NCOLUMNS    : 2     Number of data columns in the spectrum (This can be zero for configuration only files)
#XUNITS      : eV
#YUNITS      : COUNTS
#DATATYPE    : YY
#XPERCHAN    : 7.862, 7.881   eV per channel (separate by commas if more than one detector)
#OFFSET      : 18.5, -22.4         eV of first channel  (separate by commas if more than one detector
#SIGNALTYPE  : XRF
#YP_TEMP     : 2.492
#LIVETIME    : 8.56151, 8.55457   seconds (separate by commas if more than one detector)
#REALTIME    : 10, 10.0   seconds (separate by commas if more than one detector)
#SPECTRUM    : start of spectrum data
0, 0
0, 0
0, 0
0, 0
0, 0
0, 0
0, 0
0, 0
0, 0
0, 0
0, 0
0, 0
0, 0
0, 0
0, 0
0, 0
0, 0
0, 0
0, 0
0, 0
0, 0
0, 0
0, 0
0, 0
0, 0
0, 0
0, 0
0, 0
0, 0
0, 0
0, 0
0, 0
0, 1
0, 0
0, 0
0, 0
0, 0
0, 1
3, 1
0, 0
0, 0
1, 1
0, 3
0, 2
3, 1
3, 1
6, 4
2, 1
14, 3
12, 14
28, 6
50, 36
73, 42
76, 61
66, 78
80, 68
65, 60
44, 41
32, 23
9, 10
18, 5
3, 4
7, 5
3, 2
6, 4
3, 7
2, 8
7, 7
30, 18
47, 44
82, 119
184, 174
289, 269
381, 332
491, 401
472, 401
419, 389
299, 311
244, 204
149, 109
75, 78
43, 29
22, 22
11, 10
8, 4
1, 4
5, 5
3, 3
1, 3
2, 2
0, 2
1, 3
2, 0
2, 0
2, 0
1, 3
1, 5
2, 6
3, 3
7, 0
4, 5
2, 3
1, 3
3, 2
4, 3
2, 7
2, 1
8, 9
13, 11
9, 7
27, 17
16, 28
36, 30
31, 43
43, 35
59, 26
60, 30
69, 26
79, 25
79, 26
57, 13
59, 23
52, 19
35, 16
27, 11
21, 15
16, 12
12, 17
12, 5
13, 7
5, 7
8, 4
2, 3
7, 2
3, 4
5, 2
1, 1
2, 2
1, 2
2, 4
0, 3
3, 2
3, 2
2, 3
3, 3
2, 3
2, 5
4, 1
7, 4
6, 9
11, 8
11, 17
36, 21
55, 49
73, 73
93, 89
114, 98
133, 119
114, 103
111, 97
89, 77
73, 48
41, 32
28, 25
16, 11
14, 11
17, 11
8, 12
9, 16
13, 14
19, 17
26, 22
23, 15
21, 12
15, 9
12, 15
8, 11
11, 11
3, 5
10, 6
5, 7
3, 7
6, 7
3, 8
5, 5
4, 3
3, 7
5, 7
8, 4
6, 7
15, 7
11, 11
16, 10
11, 17
20, 12
19, 12
10, 16
16, 12
12, 12
21, 18
18, 10
4, 11
7, 5
13, 5
11, 6
3, 5
9, 8
7, 7
7, 5
9, 10
11, 4
8, 4
9, 17
12, 6
13, 9
7, 7
10, 5
7, 5
10, 5
8, 7
11, 6
14, 7
17, 3
21, 7
29, 11
28, 13
18, 26
19, 15
29, 25
33, 24
36, 17
30, 31
49, 25
51, 20
48, 14
52, 14
44, 14
38, 11
28, 18
30, 13
20, 12
15, 18
17, 25
10, 21
21, 38
18, 69
34, 65
35, 83
61, 69
48, 90
68, 60
62, 78
71, 70
54, 74
33, 61
47, 56
25, 53
20, 43
22, 46
24, 36
23, 38
18, 42
46, 62
62, 95
143, 174
239, 316
462, 520
737, 811
1118, 1252
1442, 1466
1968, 1876
2171, 2056
2350, 2058
2378, 1945
2035, 1671
1697, 1352
1228, 940
899, 655
610, 379
362, 222
202, 141
93, 74
75, 30
40, 24
26, 20
14, 17
14, 20
14, 18
16, 27
20, 32
25, 38
28, 40
50, 62
82, 86
109, 114
165, 174
201, 195
267, 263
294, 272
348, 310
346, 324
315, 263
302, 245
248, 164
184, 120
139, 86
83, 55
53, 36
36, 22
18, 12
6, 14
12, 5
4, 10
8, 8
8, 11
6, 12
8, 6
14, 11
12, 12
11, 12
10, 11
8, 5
9, 8
8, 10
7, 4
7, 8
3, 2
5, 1
8, 8
6, 2
6, 5
2, 1
3, 8
5, 7
3, 2
7, 2
11, 2
11, 1
9, 4
15, 2
16, 5
19, 7
17, 4
17, 2
12, 12
21, 4
20, 9
16, 6
13, 8
15, 2
4, 6
9, 11
8, 10
10, 9
6, 9
12, 5
12, 5
8, 7
3, 4
8, 2
4, 7
5, 3
2, 0
0, 3
4, 5
8, 3
8, 5
4, 4
1, 3
2, 6
6, 3
5, 4
4, 1
2, 2
5, 2
2, 5
9, 5
4, 8
4, 4
7, 6
3, 9
3, 5
1, 4
4, 5
6, 8
3, 6
4, 8
8, 3
4, 3
5, 4
5, 4
1, 5
3, 5
3, 6
3, 1
0, 8
5, 3
1, 4
5, 3
2, 4
4, 0
6, 3
2, 4
5, 4
4, 5
4, 3
5, 7
3, 2
3, 3
6, 5
2, 5
8, 2
8, 3
9, 5
3, 10
2, 5
5, 10
4, 9
6, 5
3, 14
5, 11
4, 13
2, 8
3, 8
3, 11
1, 10
2, 6
1, 5
5, 5
3, 3
0, 2
4, 2
6, 6
3, 2
5, 5
0, 4
3, 4
4, 2
2, 4
4, 2
3, 4
3, 2
3, 3
2, 2
4, 3
3, 1
5, 2
2, 3
0, 3
3, 1
4, 3
2, 3
2, 2
2, 2
4, 3
2, 4
2, 1
2, 3
2, 0
3, 4
3, 3
1, 2
1, 6
3, 4
2, 3
0, 5
1, 6
3, 2
6, 3
2, 0
2, 3
2, 2
5, 0
1, 4
3, 1
4, 3
5, 2
3, 0
4, 1
2, 3
1, 3
2, 2
1, 4
1, 3
3, 4
0, 2
1, 1
3, 4
3, 1
3, 3
1, 3
2, 4
5, 4
1, 4
2, 2
1, 3
3, 5
4, 0
1, 0
2, 3
5, 1
3, 1
0, 1
3, 2
2, 4
2, 0
4, 2
2, 1
2, 3
5, 1
2, 4
4, 2
6, 1
1, 1
6, 3
0, 2
5, 2
1, 1
1, 2
3, 3
3, 2
3, 6
2, 2
1, 3
2, 1
3, 1
2, 0
4, 3
2, 1
2, 0
2, 3
2, 3
4, 3
3, 4
0, 1
2, 1
3, 2
3, 2
1, 2
3, 3
3, 3
4, 2
3, 5
4, 2
1, 4
3, 1
6, 0
1, 0
2, 2
0, 2
1, 0
1, 2
3, 0
3, 2
0, 2
1, 1
3, 1
0, 1
1, 0
0, 4
2, 3
4, 1
1, 1
2, 3
2, 2
3, 2
1, 2
1, 2
1, 1
3, 2
2, 1
1, 1
2, 0
1, 1
3, 3
2, 1
2, 1
0, 2
2, 2
0, 1
0, 0
1, 0
1, 1
1, 1
0, 1
1, 0
3, 2
2, 0
2, 0
1, 0
0, 0
0, 0
0, 2
2, 2
2, 1
0, 0
0, 0
0, 2
2, 3
0, 1
1, 0
0, 0
0, 1
2, 1
1, 1
0, 0
1, 1
0, 1
1, 0
0, 5
1, 0
0, 0
1, 2
0, 2
0, 0
1, 1
1, 0
1, 2
1, 0
1, 2
0, 0
2, 1
2, 2
0, 0
2, 0
1, 0
1, 0
0, 0
1, 2
3, 0
1, 0
1, 0
2, 0
2, 2
1, 0
1, 2
2, 2
1, 0
0, 1
1, 2
1, 2
0, 2
1, 1
1, 1
1, 2
0, 1
1, 0
1, 1
1, 1
0, 1
1, 1
0, 0
3, 0
0, 1
0, 0
1, 0
2, 0
0, 1
1, 1
1, 0
1, 1
1, 2
0, 0
0, 1
0, 0
2, 0
1, 1
1, 0
1, 0
0, 0
0, 0
1, 0
0, 0
1, 1
1, 1
0, 1
2, 0
1, 0
0, 1
0, 1
1, 0
0, 0
0, 0
0, 0
1, 0
2, 0
1, 0
1, 0
1, 0
3, 0
0, 0
0, 0
0, 0
0, 0
0, 0
0, 0
1, 0
0, 0
0, 0
0, 0
0, 1
0, 2
0, 0
0, 2
1, 0
0, 0
0, 1
0, 0
0, 0
1, 0
0, 0
1, 1
0, 0
0, 2
0, 0
0, 0
0, 0
0, 0
0, 0
0, 0
0, 1
0, 1
1, 1
0, 0
1, 1
0, 0
0, 0
0, 1
2, 0
0, 0
0, 0
0, 1
1, 0
3, 0
1, 2
0, 0
0, 0
0, 1
1, 0
0, 0
1, 0
0, 0
0, 1
2, 0
0, 0
1, 0
0, 0
0, 0
0, 0
0, 0
0, 0
0, 0
0, 1
1, 0
0, 1
0, 2
0, 0
0, 0
0, 1
0, 0
0, 1
0, 0
0, 0
0, 0
0, 0
0, 0
1, 0
0, 0
0, 1
1, 0
0, 0
0, 0
0, 0
0, 0
0, 0
0, 0
0, 0
0, 0
0, 0
0, 0
0, 0
0, 0
0, 0
0, 0
1, 0
0, 1
0, 0
1, 0
0, 0
0, 0
0, 0
0, 0
0, 0
0, 1
1, 0
0, 0
1, 0
0, 0
0, 0
0, 0
0, 1
1, 0
0, 0
0, 1
0, 1
0, 0
0, 0
0, 0
0, 0
0, 1
0, 0
0, 2
0, 1
0, 1
0, 0
0, 1
0, 0
1, 0
0, 0
0, 0
1, 0
0, 0
0, 0
1, 0
0, 0
1, 0
0, 0
0, 0
0, 0
1, 0
0, 1
0, 0
0, 0
0, 0
0, 0
0, 0
0, 0
0, 0
1, 0
0, 0
0, 0
1, 0
1, 0
1, 1
0, 0
0, 0
0, 1
1, 0
1, 0
0, 0
1, 0
1, 0
0, 0
0, 0
0, 0
0, 0
0, 0
0, 0
1, 0
0, 0
0, 0
0, 0
0, 0
0, 0
0, 0
0, 0
0, 0
0, 0
0, 0
0, 0
0, 0
0, 0
1, 0
0, 0
0, 0
0, 0
0, 0
0, 0
0, 0
0, 0
0, 1
0, 1
0, 0
0, 0
0, 0
0, 0
0, 0
0, 0
0, 0
0, 0
0, 0
0, 0
0, 0
0, 0
0, 0
1, 1
0, 0
0, 0
0, 1
0, 0
0, 0
0, 0
0, 0
0, 0
0, 0
0, 0
0, 0
0, 0
0, 0
0, 0
0, 0
0, 0
0, 0
0, 0
0, 0
0, 0
0, 0
0, 0
0, 0
0, 0
0, 0
0, 0
0, 0
0, 0
0, 0
0, 0
0, 0
0, 0
0, 0
0, 0
0, 0
0, 0
0, 0
0, 0
0, 0
0, 0
0, 0
0, 0
0, 0
0, 0
1, 0
0, 0
0, 0
0, 0
0, 0
0, 0
0, 0
0, 0
0, 0
1, 0
0, 0
0, 0
0, 0
0, 0
0, 0
0, 0
0, 0
0, 0
0, 0
0, 0
0, 0
0, 0
0, 0
0, 0
0, 0
0, 0
0, 0
0, 1
0, 0
0, 0
0, 0
0, 0
0, 0
0, 0
0, 0
0, 0
0, 0
0, 0
0, 0
0, 0
0, 0
0, 0
0, 0
0, 0
0, 0
0, 0
0, 0
0, 0
0, 0
0, 0
0, 0
0, 0
0, 0
0, 0
0, 0
0, 0
0, 0
0, 0
0, 0
0, 0
0, 0
0, 0
0, 0
0, 0
0, 0
0, 0
0, 0
0, 0
0, 0
0, 0
1, 0
0, 0
0, 0
0, 0
0, 1
0, 0
0, 0
0, 0
0, 0
0, 0
0, 0
1, 0
0, 0
0, 0
0, 0
0, 0
0, 0
0, 0
0, 0
0, 0
0, 0
0, 0
0, 0
0, 0
0, 0
0, 0
0, 0
0, 0
0, 0
0, 0
0, 0
0, 0
0, 0
0, 0
0, 0
0, 0
0, 0
0, 0
0, 0
0, 0
0, 0
0, 0
0, 0
0, 0
0, 0
0, 0
0, 0
0, 0
0, 0
0, 0
0, 0
0, 0
0, 0
0, 0
0, 0
0, 0
0, 0
0, 0
0, 0
0, 0
0, 0
0, 0
0, 0
0, 0
0, 0
0, 0
0, 0
0, 0
0, 0
0, 0
0, 0
0, 0
0, 0
0, 0
0, 0
0, 0
0, 0
0, 0
0, 0
0, 0
0, 0
0, 0
0, 0
0, 0
0, 0
0, 0
0, 0
0, 0
0, 0
0, 0
0, 0
0, 0
0, 0
0, 0
0, 0
0, 0
0, 0
0, 0
0, 0
0, 0
0, 0
0, 0
0, 0
0, 0
0, 0
0, 0
0, 0
0, 0
0, 0
0, 0
0, 0
0, 0
0, 0
0, 0
0, 0
0, 0
0, 0
0, 0
0, 0
0, 0
0, 0
0, 0
0, 0
0, 0
0, 0
0, 0
0, 0
0, 0
0, 0
0, 0
0, 0
0, 0
0, 0
0, 0
0, 0
0, 0
0, 0
0, 0
0, 0
0, 0
0, 0
0, 0
0, 0
0, 0
0, 0
0, 0
0, 0
0, 0
0, 0
0, 0
0, 0
0, 0
0, 0
0, 0
0, 0
0, 0
0, 0
0, 0
0, 0
0, 0
0, 0
0, 0
0, 0
0, 0
0, 0
0, 0
0, 0
0, 0
0, 0
0, 0
0, 0
0, 0
0, 0
0, 0
0, 0
0, 0
0, 0
0, 0
0, 0
0, 0
0, 0
0, 0
0, 0
0, 0
0, 0
0, 0
0, 0
0, 0
0, 0
0, 0
0, 0
0, 0
0, 0
0, 0
0, 0
0, 0
0, 0
0, 0
0, 0
0, 0
0, 0
0, 0
0, 0
0, 0
0, 0
0, 0
0, 0
0, 0
0, 0
0, 0
0, 0
0, 0
0, 0
0, 0
0, 0
0, 0
0, 0
0, 0
0, 0
0, 0
0, 0
0, 0
0, 0
0, 0
0, 0
0, 0
0, 0
0, 0
0, 0
0, 0
0, 0
0, 0
0, 0
0, 0
0, 0
0, 0
0, 0
0, 0
0, 0
0, 0
0, 0
0, 0
0, 0
0, 0
0, 0
0, 0
0, 0
0, 0
0, 0
0, 0
0, 0
0, 0
0, 0
0, 0
0, 0
0, 0
0, 0
0, 0
0, 0
0, 0
0, 0
0, 0
0, 0
0, 0
0, 0
0, 0
0, 0
0, 0
0, 0
0, 0
0, 0
0, 0
0, 0
0, 0
0, 0
0, 0
0, 0
0, 0
0, 0
0, 0
0, 0
0, 0
0, 0
0, 0
0, 0
0, 0
0, 0
0, 0
0, 0
0, 0
0, 0
0, 0
0, 0
0, 0
0, 0
0, 0
0, 0
0, 0
0, 0
0, 0
0, 0
0, 0
0, 0
0, 0
0, 0
0, 0
0, 0
0, 0
0, 0
0, 0
0, 0
0, 0
0, 0
0, 0
0, 0
0, 0
0, 0
0, 0
0, 0
0, 0
0, 0
0, 0
0, 0
0, 0
0, 0
0, 0
0, 0
0, 0
0, 0
0, 0
0, 0
0, 0
0, 0
0, 0
0, 0
0, 0
0, 0
0, 0
0, 0
0, 0
0, 0
0, 0
0, 0
0, 0
0, 0
0, 0
0, 0
0, 0
0, 0
0, 0
0, 0
0, 0
0, 0
0, 0
0, 0
0, 0
#ENDOFDATA     end of spectrum data