File: host_upload/06-09-2024/ps_0852/dump3/ps__0852shot_2099.msa
#FORMAT      : EMSA/MAS spectral data file
#VERSION     : TC202v2.0 PIXL
#TITLE       : N/A
#DATE        :       Date in the format DD-MMM-YYYY, for example 07-JUL-2010
#TIME        :             The time of day at which the spectrum was recorded, in 24-hour format
#OWNER       : PIXL Flight Model       (PIXL will use this to indicate which instrument took the data.)
#NPOINTS     : 4096     Number of data points in the spectrum (This can be zero for configuration only files)
#NCOLUMNS    : 2     Number of data columns in the spectrum (This can be zero for configuration only files)
#XUNITS      : eV
#YUNITS      : COUNTS
#DATATYPE    : YY
#XPERCHAN    : 7.862, 7.881   eV per channel (separate by commas if more than one detector)
#OFFSET      : 18.5, -22.4         eV of first channel  (separate by commas if more than one detector
#SIGNALTYPE  : XRF
#YP_TEMP     : 2.62
#LIVETIME    : 8.58327, 8.5698   seconds (separate by commas if more than one detector)
#REALTIME    : 10, 10.0   seconds (separate by commas if more than one detector)
#SPECTRUM    : start of spectrum data
0, 0
0, 0
0, 0
0, 0
0, 0
0, 0
0, 0
0, 0
0, 0
0, 0
0, 0
0, 0
0, 0
0, 0
0, 0
0, 0
0, 0
0, 0
0, 0
0, 0
0, 0
0, 0
0, 0
0, 0
0, 0
0, 0
0, 0
0, 0
0, 0
0, 0
0, 0
0, 0
0, 0
1, 0
0, 1
0, 0
2, 0
0, 0
0, 1
1, 2
1, 4
0, 0
2, 0
0, 1
2, 0
1, 2
0, 1
6, 3
7, 10
14, 8
20, 24
35, 39
53, 48
54, 58
77, 68
64, 68
69, 49
23, 32
31, 20
11, 20
8, 8
3, 4
4, 7
4, 3
5, 1
0, 3
9, 6
9, 12
15, 23
34, 43
81, 81
125, 142
193, 212
277, 281
309, 347
315, 337
259, 310
231, 247
148, 163
100, 104
50, 59
29, 25
15, 11
12, 10
7, 6
3, 5
2, 5
3, 6
3, 3
3, 6
7, 11
13, 8
35, 40
55, 68
104, 120
170, 183
278, 277
358, 396
390, 405
385, 425
339, 464
303, 321
205, 204
159, 155
93, 86
59, 60
48, 51
42, 38
27, 31
32, 34
36, 33
39, 51
52, 53
50, 61
42, 42
49, 49
43, 40
34, 45
34, 32
28, 33
43, 29
23, 25
30, 23
19, 24
18, 14
15, 14
16, 16
12, 6
8, 6
13, 4
7, 4
6, 5
6, 2
3, 1
6, 1
3, 2
4, 5
3, 2
2, 3
2, 3
4, 1
3, 1
3, 4
3, 3
1, 3
2, 2
5, 6
3, 2
1, 3
5, 3
5, 6
10, 10
8, 27
22, 39
34, 46
69, 68
62, 86
65, 81
68, 73
67, 72
40, 60
35, 45
20, 40
22, 57
13, 51
7, 54
8, 23
3, 52
9, 42
6, 34
15, 33
8, 26
13, 16
5, 10
7, 11
13, 14
8, 8
5, 6
3, 5
3, 5
3, 8
4, 4
8, 4
7, 3
5, 2
10, 6
21, 5
27, 9
28, 6
51, 7
55, 6
60, 8
62, 12
64, 15
59, 11
54, 7
40, 14
36, 16
25, 18
28, 10
28, 17
47, 15
42, 11
37, 9
41, 10
37, 18
30, 12
20, 2
15, 2
12, 5
6, 12
8, 5
6, 10
6, 11
4, 3
0, 3
4, 11
5, 5
7, 7
5, 9
3, 6
7, 7
4, 7
7, 9
8, 11
12, 12
13, 13
14, 15
14, 22
17, 23
9, 19
18, 32
13, 20
18, 25
15, 28
9, 48
13, 62
8, 33
6, 48
5, 61
11, 60
4, 55
10, 51
12, 46
11, 59
25, 50
17, 53
35, 70
40, 77
39, 81
58, 78
57, 69
55, 84
39, 68
44, 47
31, 46
25, 29
32, 14
23, 20
24, 17
26, 22
46, 31
56, 53
80, 110
137, 209
244, 302
408, 537
655, 906
973, 1251
1299, 1625
1664, 2040
1893, 2229
2034, 2207
2049, 2132
1793, 1784
1466, 1452
1116, 1036
798, 696
522, 404
281, 254
164, 123
85, 86
62, 42
22, 27
19, 15
13, 14
13, 8
11, 14
23, 18
15, 27
21, 29
31, 44
34, 51
57, 68
93, 108
130, 159
148, 195
229, 261
286, 321
277, 341
324, 314
324, 296
254, 256
231, 210
145, 139
98, 103
84, 57
45, 33
31, 27
14, 7
15, 10
14, 7
12, 7
11, 10
8, 10
10, 14
11, 9
19, 12
16, 14
13, 6
19, 14
21, 12
11, 15
7, 6
9, 8
7, 7
4, 15
7, 7
5, 5
4, 10
2, 7
4, 7
3, 7
5, 6
6, 6
3, 4
4, 6
6, 7
5, 1
6, 2
5, 9
5, 3
5, 2
3, 8
5, 2
4, 10
5, 7
8, 7
7, 8
7, 4
3, 4
4, 8
5, 6
6, 6
6, 1
5, 5
5, 11
5, 2
3, 1
2, 5
4, 6
5, 4
3, 5
3, 3
7, 8
7, 7
5, 3
4, 4
2, 3
3, 2
9, 4
3, 2
2, 8
2, 2
5, 7
3, 6
6, 6
1, 8
6, 1
5, 6
2, 7
3, 9
3, 5
1, 5
3, 4
4, 2
3, 3
12, 3
2, 2
12, 1
16, 6
10, 4
18, 2
13, 4
14, 7
15, 3
12, 7
14, 9
16, 7
9, 11
10, 12
9, 8
4, 12
5, 6
8, 7
6, 5
5, 9
4, 13
3, 2
3, 10
5, 6
0, 6
1, 3
1, 3
1, 4
3, 1
2, 5
2, 2
3, 3
4, 1
6, 6
2, 6
4, 6
4, 5
3, 3
2, 4
4, 3
2, 2
0, 3
3, 4
1, 5
1, 4
2, 0
1, 8
1, 1
3, 6
1, 0
2, 0
2, 2
7, 2
2, 4
4, 2
5, 4
4, 0
3, 0
3, 2
3, 2
1, 5
5, 4
5, 4
4, 4
2, 5
3, 2
3, 3
3, 2
3, 3
2, 1
1, 3
7, 4
0, 2
3, 3
4, 3
4, 4
4, 3
4, 2
4, 2
1, 7
6, 3
1, 4
3, 1
2, 1
0, 3
4, 3
3, 0
3, 3
1, 1
1, 2
1, 2
6, 4
0, 3
1, 5
1, 0
1, 3
2, 1
1, 4
2, 2
4, 1
2, 4
3, 3
2, 2
1, 6
1, 1
0, 3
3, 5
3, 4
2, 1
3, 4
1, 6
5, 6
4, 5
3, 8
3, 3
1, 7
1, 3
0, 3
2, 1
2, 2
2, 5
3, 3
1, 4
4, 1
1, 4
2, 4
3, 0
1, 0
2, 8
1, 1
2, 0
2, 1
2, 2
4, 1
0, 2
2, 1
3, 2
1, 3
2, 1
2, 1
2, 0
3, 1
1, 2
1, 1
2, 2
2, 2
0, 1
5, 2
1, 3
3, 5
1, 2
4, 3
2, 4
2, 2
5, 7
5, 4
2, 4
5, 5
3, 3
3, 3
0, 3
2, 3
1, 1
0, 3
1, 4
1, 1
1, 3
0, 1
0, 2
0, 4
3, 1
1, 0
2, 2
2, 2
1, 2
2, 2
1, 2
1, 0
2, 6
0, 1
1, 0
0, 1
1, 1
1, 2
0, 1
0, 0
3, 0
2, 1
4, 0
0, 2
3, 2
4, 0
3, 0
0, 3
0, 1
0, 2
0, 1
1, 2
4, 2
0, 3
2, 0
1, 4
1, 2
1, 2
1, 3
0, 2
2, 0
1, 1
2, 3
2, 3
1, 3
0, 2
0, 1
0, 0
1, 2
1, 1
1, 2
1, 0
0, 0
0, 0
1, 2
0, 0
1, 3
0, 0
1, 0
1, 0
1, 0
0, 1
0, 0
0, 0
0, 0
0, 0
0, 2
1, 0
1, 1
0, 0
0, 3
0, 5
2, 2
1, 1
1, 0
0, 3
2, 0
0, 1
1, 1
1, 1
1, 0
1, 1
1, 0
3, 1
0, 1
1, 1
1, 1
1, 2
0, 3
0, 0
0, 0
3, 0
1, 1
0, 1
0, 0
0, 0
0, 0
1, 0
1, 1
5, 1
0, 0
1, 0
2, 0
2, 1
0, 0
1, 0
0, 1
0, 0
3, 0
2, 1
1, 1
1, 1
0, 1
0, 1
0, 0
1, 0
0, 2
0, 0
1, 0
0, 2
2, 1
0, 1
0, 1
0, 1
0, 0
1, 1
0, 2
1, 1
0, 0
1, 0
0, 0
0, 1
0, 0
0, 1
0, 0
1, 1
0, 0
0, 1
1, 0
1, 1
2, 0
0, 1
0, 1
1, 0
0, 0
0, 1
1, 0
1, 0
0, 2
0, 1
0, 0
0, 0
1, 1
1, 1
1, 1
1, 0
0, 1
0, 0
0, 0
0, 0
0, 0
0, 1
1, 1
0, 0
1, 1
0, 1
0, 1
0, 0
0, 0
0, 0
0, 0
1, 1
1, 0
0, 1
0, 0
0, 0
0, 0
0, 0
0, 1
0, 0
0, 1
0, 0
1, 0
0, 1
0, 0
0, 0
0, 1
1, 0
0, 0
0, 0
0, 0
0, 1
0, 0
0, 0
0, 1
0, 1
0, 1
0, 0
0, 0
1, 0
0, 0
0, 1
1, 0
0, 0
0, 0
0, 0
0, 0
0, 0
1, 1
0, 0
0, 0
0, 0
0, 0
0, 0
0, 0
0, 0
0, 0
0, 1
1, 0
0, 0
1, 0
0, 1
0, 0
0, 0
0, 0
0, 0
0, 0
0, 0
0, 0
0, 0
1, 1
0, 0
0, 0
0, 0
0, 0
0, 0
1, 0
0, 0
1, 0
0, 0
0, 0
0, 1
0, 2
2, 0
0, 0
0, 1
1, 0
0, 0
0, 0
0, 0
0, 0
0, 1
1, 0
0, 0
1, 0
0, 0
0, 0
2, 0
0, 0
0, 0
1, 0
2, 1
0, 0
0, 0
1, 0
0, 1
0, 0
1, 0
1, 0
1, 0
0, 0
0, 0
0, 0
0, 0
0, 0
0, 0
0, 0
0, 0
0, 0
1, 0
0, 0
0, 0
0, 0
0, 0
0, 1
0, 1
0, 0
0, 0
0, 0
1, 0
0, 0
0, 0
0, 0
0, 1
1, 0
0, 0
1, 0
0, 0
0, 0
0, 0
1, 0
0, 0
0, 1
0, 0
0, 1
0, 0
0, 0
0, 0
0, 0
0, 0
0, 1
0, 0
0, 0
0, 0
0, 0
0, 0
0, 0
0, 0
0, 0
0, 0
0, 0
1, 0
0, 0
0, 0
0, 0
0, 0
0, 0
1, 0
0, 0
0, 1
0, 0
0, 0
0, 0
0, 0
0, 0
0, 0
0, 0
0, 0
0, 0
1, 0
0, 0
0, 0
0, 1
0, 0
0, 0
0, 1
0, 0
0, 0
0, 0
0, 0
0, 0
0, 1
0, 0
0, 0
0, 0
0, 0
0, 0
0, 0
0, 0
0, 0
0, 0
0, 0
0, 0
0, 0
0, 0
0, 0
0, 0
0, 0
0, 0
0, 0
1, 0
0, 0
0, 1
0, 0
0, 0
0, 0
0, 0
0, 0
0, 0
0, 0
0, 0
0, 0
0, 0
0, 0
0, 0
1, 0
0, 0
0, 0
0, 0
0, 0
0, 1
0, 0
0, 0
0, 0
0, 0
0, 0
1, 0
0, 0
0, 0
0, 0
0, 0
0, 0
0, 0
0, 0
0, 0
0, 0
0, 0
0, 0
0, 0
0, 0
0, 0
0, 0
0, 0
0, 0
0, 0
0, 0
0, 0
0, 0
0, 0
0, 0
0, 0
0, 0
0, 0
0, 0
0, 0
0, 0
0, 0
0, 0
0, 0
0, 0
0, 0
0, 0
0, 0
0, 0
0, 0
0, 0
0, 0
0, 0
0, 0
0, 0
0, 0
0, 0
0, 0
0, 0
0, 0
0, 0
0, 0
0, 0
0, 0
0, 0
0, 0
0, 0
0, 0
0, 0
0, 0
0, 0
0, 0
0, 0
0, 0
0, 0
0, 0
0, 0
0, 0
0, 0
0, 0
0, 0
0, 0
0, 0
0, 0
0, 0
0, 0
0, 0
0, 0
0, 0
1, 0
0, 0
0, 0
0, 0
0, 0
0, 0
0, 0
0, 0
1, 0
0, 0
0, 0
0, 0
0, 0
0, 0
0, 0
0, 0
0, 0
0, 0
0, 0
0, 0
0, 0
0, 0
0, 0
0, 0
0, 0
0, 0
0, 0
0, 0
0, 0
0, 0
0, 0
0, 0
0, 0
0, 0
0, 0
0, 0
0, 0
0, 0
0, 0
0, 0
0, 0
0, 0
0, 0
0, 0
0, 0
0, 0
0, 0
0, 0
0, 0
0, 0
0, 0
0, 0
0, 0
0, 0
0, 0
0, 0
0, 0
0, 0
0, 0
0, 0
0, 0
0, 0
0, 0
0, 0
0, 0
0, 0
0, 0
0, 0
0, 0
0, 0
0, 0
0, 0
0, 0
0, 0
0, 0
0, 0
0, 0
0, 0
0, 0
0, 0
0, 0
0, 0
0, 0
0, 0
0, 0
0, 0
0, 0
0, 0
0, 0
0, 0
0, 0
0, 0
0, 0
0, 0
0, 0
0, 0
0, 0
0, 0
0, 0
0, 0
0, 0
0, 0
0, 0
0, 0
0, 0
0, 0
0, 0
0, 0
0, 0
0, 0
0, 0
0, 0
0, 0
0, 0
0, 0
0, 0
0, 0
0, 0
0, 0
0, 0
0, 0
0, 0
0, 0
0, 0
0, 0
1, 0
0, 0
0, 0
0, 0
0, 0
0, 0
0, 0
0, 0
0, 0
0, 0
0, 0
0, 0
0, 0
0, 0
0, 0
0, 0
0, 0
0, 0
0, 0
0, 0
0, 0
0, 0
0, 0
0, 0
0, 0
0, 0
0, 0
0, 0
0, 0
0, 0
0, 0
0, 0
0, 0
0, 0
0, 0
0, 0
0, 0
0, 0
0, 0
0, 0
0, 0
0, 0
0, 0
0, 0
0, 0
0, 0
0, 0
0, 0
0, 0
0, 0
0, 0
0, 0
0, 0
0, 0
0, 0
0, 0
0, 0
0, 0
0, 0
0, 0
0, 0
0, 0
0, 0
0, 0
0, 0
0, 0
0, 0
0, 0
0, 0
0, 0
0, 0
0, 0
0, 0
0, 0
0, 0
0, 0
0, 0
0, 0
0, 0
0, 0
0, 0
0, 0
0, 0
0, 0
0, 0
0, 0
0, 0
0, 0
0, 0
0, 0
0, 0
0, 0
0, 0
0, 0
0, 0
0, 0
0, 0
0, 0
0, 0
0, 0
0, 0
0, 0
0, 0
0, 0
0, 0
0, 0
0, 0
0, 0
0, 0
0, 0
0, 0
0, 0
0, 0
0, 0
0, 0
0, 0
0, 0
0, 0
0, 0
0, 0
0, 0
0, 0
0, 0
0, 0
0, 0
0, 0
0, 0
0, 0
0, 0
0, 0
0, 0
0, 0
0, 0
0, 0
0, 0
0, 0
0, 0
0, 0
0, 0
0, 0
0, 0
0, 0
0, 0
0, 0
0, 0
0, 0
0, 0
0, 0
0, 0
0, 0
0, 0
0, 0
0, 0
0, 0
0, 0
0, 0
0, 0
0, 0
0, 0
0, 0
0, 0
0, 0
0, 0
0, 0
0, 0
0, 0
0, 0
0, 0
0, 0
0, 0
0, 0
0, 0
0, 0
0, 0
0, 0
0, 0
0, 0
0, 0
0, 0
0, 0
0, 0
0, 0
0, 0
0, 0
0, 0
0, 0
0, 0
0, 0
0, 0
0, 0
0, 0
0, 0
0, 0
0, 0
0, 0
0, 0
0, 0
0, 0
0, 0
0, 0
0, 0
0, 0
0, 0
0, 0
0, 0
0, 0
0, 0
0, 0
0, 0
0, 0
0, 0
0, 0
0, 0
0, 0
#ENDOFDATA     end of spectrum data