File: host_upload/06-09-2024/ps_0852/dump3/ps__0852shot_2398.msa
#FORMAT      : EMSA/MAS spectral data file
#VERSION     : TC202v2.0 PIXL
#TITLE       : N/A
#DATE        :       Date in the format DD-MMM-YYYY, for example 07-JUL-2010
#TIME        :             The time of day at which the spectrum was recorded, in 24-hour format
#OWNER       : PIXL Flight Model       (PIXL will use this to indicate which instrument took the data.)
#NPOINTS     : 4096     Number of data points in the spectrum (This can be zero for configuration only files)
#NCOLUMNS    : 2     Number of data columns in the spectrum (This can be zero for configuration only files)
#XUNITS      : eV
#YUNITS      : COUNTS
#DATATYPE    : YY
#XPERCHAN    : 7.862, 7.881   eV per channel (separate by commas if more than one detector)
#OFFSET      : 18.5, -22.4         eV of first channel  (separate by commas if more than one detector
#SIGNALTYPE  : XRF
#YP_TEMP     : 2.364
#LIVETIME    : 8.55976, 8.56682   seconds (separate by commas if more than one detector)
#REALTIME    : 10, 10.0   seconds (separate by commas if more than one detector)
#SPECTRUM    : start of spectrum data
0, 0
0, 0
0, 0
0, 0
0, 0
0, 0
0, 0
0, 0
0, 0
0, 0
0, 0
0, 0
0, 0
0, 0
0, 0
0, 0
0, 0
0, 0
0, 0
0, 0
0, 0
0, 0
0, 0
0, 0
0, 0
0, 0
0, 0
0, 0
0, 0
0, 0
0, 0
0, 0
0, 0
0, 1
0, 1
0, 1
0, 6
1, 6
0, 9
1, 14
2, 22
0, 25
1, 24
2, 17
0, 12
2, 11
0, 14
3, 5
8, 9
13, 12
24, 19
56, 44
51, 58
63, 58
93, 77
72, 58
66, 53
45, 42
33, 21
14, 12
10, 9
4, 2
2, 5
4, 4
2, 5
4, 7
3, 4
12, 12
26, 21
35, 41
104, 97
184, 157
275, 242
382, 332
478, 398
476, 419
410, 359
328, 249
187, 188
132, 115
76, 62
32, 36
26, 16
10, 8
6, 4
0, 4
3, 3
3, 1
0, 2
1, 1
2, 0
0, 1
1, 2
1, 1
2, 2
3, 2
5, 4
3, 6
3, 4
1, 2
3, 0
4, 5
2, 9
7, 8
4, 10
6, 13
8, 33
4, 45
7, 93
12, 183
19, 352
27, 620
45, 919
39, 1295
35, 1422
38, 1516
34, 1382
30, 1113
30, 911
22, 523
14, 306
17, 174
18, 78
11, 44
16, 19
13, 18
10, 15
10, 9
9, 7
6, 4
4, 5
4, 4
8, 3
2, 3
5, 3
7, 3
7, 1
11, 3
9, 1
5, 1
5, 4
4, 4
4, 2
3, 1
1, 0
3, 2
2, 0
4, 0
0, 1
2, 4
2, 0
9, 3
5, 6
6, 7
9, 5
7, 12
22, 13
15, 10
15, 17
11, 11
13, 12
11, 7
11, 13
9, 4
7, 1
10, 4
9, 2
6, 2
11, 5
8, 2
13, 3
12, 4
9, 8
7, 7
9, 12
6, 14
2, 18
6, 19
4, 28
8, 37
5, 22
1, 34
6, 29
3, 25
7, 17
3, 7
3, 6
3, 9
7, 3
2, 5
3, 10
5, 7
5, 9
9, 11
15, 11
10, 19
12, 14
16, 8
14, 13
18, 15
26, 13
31, 9
53, 6
52, 11
67, 3
65, 5
62, 8
61, 5
64, 6
37, 10
34, 10
18, 7
15, 10
11, 7
4, 10
8, 13
9, 5
3, 5
5, 7
6, 11
5, 7
8, 14
5, 22
5, 32
8, 40
10, 46
10, 50
12, 47
12, 50
18, 64
14, 35
20, 40
6, 26
10, 14
17, 24
15, 20
19, 8
17, 8
19, 8
24, 6
26, 9
24, 7
21, 4
13, 12
15, 9
28, 17
30, 21
28, 43
53, 47
48, 52
56, 65
56, 52
59, 59
49, 39
38, 42
49, 39
29, 19
24, 15
19, 17
15, 27
26, 21
37, 30
40, 43
69, 88
176, 201
291, 313
552, 524
895, 892
1231, 1294
1652, 1719
2071, 2010
2474, 2321
2610, 2263
2514, 2151
2270, 1811
1811, 1451
1346, 1031
1040, 671
680, 410
362, 226
219, 141
115, 66
62, 40
36, 20
19, 18
10, 16
17, 18
13, 24
23, 19
20, 26
30, 32
35, 39
53, 61
70, 92
90, 127
144, 195
197, 240
280, 271
303, 309
357, 322
368, 344
359, 294
318, 270
244, 236
205, 166
132, 96
72, 71
60, 41
37, 22
18, 12
16, 10
9, 10
15, 6
12, 11
13, 12
12, 14
18, 9
13, 8
26, 17
11, 12
10, 15
12, 10
9, 9
11, 7
10, 5
1, 2
3, 3
1, 7
4, 1
5, 6
6, 8
2, 2
6, 7
4, 7
4, 4
9, 9
7, 21
7, 21
9, 32
6, 35
9, 32
14, 46
16, 28
13, 40
4, 29
13, 29
14, 18
4, 13
8, 11
6, 7
3, 6
4, 4
6, 6
1, 3
4, 3
3, 7
4, 2
2, 7
1, 4
2, 4
2, 1
5, 4
5, 2
3, 2
7, 3
4, 4
6, 3
2, 4
2, 2
6, 5
3, 2
10, 4
17, 1
4, 1
12, 5
12, 2
6, 6
10, 1
12, 1
10, 1
5, 2
7, 2
3, 12
3, 9
5, 7
3, 11
2, 8
3, 7
2, 5
4, 2
1, 6
8, 6
1, 5
4, 3
5, 2
2, 2
2, 1
3, 6
4, 4
1, 5
4, 6
4, 2
4, 3
2, 6
5, 4
2, 4
5, 4
1, 4
7, 9
2, 5
0, 5
3, 7
3, 12
7, 2
2, 1
3, 4
5, 5
6, 3
6, 2
2, 5
2, 2
4, 3
3, 8
5, 3
2, 2
3, 2
3, 0
6, 9
2, 3
5, 1
0, 7
3, 2
4, 5
7, 5
6, 0
7, 4
6, 7
7, 3
11, 6
7, 3
11, 3
9, 8
18, 2
12, 3
15, 2
11, 4
11, 2
8, 7
7, 1
9, 3
7, 6
6, 3
4, 7
4, 5
4, 2
2, 5
4, 7
7, 11
5, 5
2, 5
3, 2
4, 4
1, 2
2, 2
4, 2
3, 3
2, 1
5, 3
2, 1
2, 1
2, 4
4, 1
2, 6
2, 1
4, 1
3, 3
3, 1
2, 1
5, 2
3, 0
5, 1
1, 1
3, 2
7, 0
1, 2
0, 2
4, 1
0, 4
3, 2
2, 1
4, 0
3, 0
3, 3
4, 0
0, 2
1, 4
2, 2
2, 3
0, 2
4, 4
2, 1
0, 3
2, 1
2, 0
3, 2
4, 3
1, 3
0, 4
0, 3
1, 1
2, 2
3, 1
4, 6
5, 2
4, 3
4, 1
2, 2
3, 0
1, 1
3, 2
2, 2
3, 2
1, 6
2, 4
1, 4
2, 0
3, 5
1, 2
3, 1
1, 4
2, 3
5, 2
2, 2
2, 0
3, 2
4, 2
5, 7
7, 3
3, 2
2, 5
5, 4
5, 5
2, 5
7, 6
10, 2
3, 6
4, 1
3, 2
3, 2
1, 3
3, 1
2, 3
0, 0
3, 1
1, 2
3, 1
0, 3
1, 2
0, 3
2, 0
0, 0
0, 1
2, 1
1, 3
3, 3
1, 1
2, 1
3, 1
2, 2
4, 2
3, 4
0, 2
3, 3
5, 0
3, 2
1, 0
2, 1
1, 1
0, 1
1, 1
3, 1
1, 3
3, 0
0, 1
1, 1
1, 2
2, 2
1, 0
1, 0
2, 2
1, 2
0, 0
0, 0
5, 1
0, 0
1, 1
0, 0
1, 1
2, 0
0, 0
2, 0
3, 2
1, 2
0, 1
2, 0
1, 0
2, 0
4, 2
2, 1
2, 1
3, 0
1, 0
3, 0
3, 1
1, 0
0, 3
2, 1
1, 0
2, 0
4, 0
0, 1
3, 1
2, 0
0, 1
4, 0
0, 0
1, 3
0, 0
0, 0
0, 1
2, 3
0, 2
0, 0
0, 3
0, 1
2, 0
0, 2
1, 1
1, 0
0, 1
0, 2
0, 0
0, 0
1, 0
1, 0
4, 0
0, 1
0, 0
0, 1
1, 0
0, 0
0, 2
1, 0
1, 1
0, 0
0, 0
0, 1
0, 0
1, 0
0, 0
1, 2
1, 1
0, 1
0, 0
1, 0
1, 0
0, 1
1, 0
0, 0
0, 1
0, 0
0, 0
1, 1
0, 0
1, 2
0, 1
0, 0
0, 1
0, 1
0, 0
0, 0
0, 0
1, 0
0, 0
0, 0
0, 2
3, 2
1, 0
1, 1
0, 0
0, 0
0, 0
1, 0
1, 0
0, 0
1, 0
1, 0
1, 0
0, 0
0, 0
0, 0
0, 0
0, 2
0, 1
0, 0
0, 0
0, 0
0, 0
0, 0
0, 0
1, 0
0, 0
0, 0
0, 0
0, 0
1, 1
0, 0
0, 0
0, 0
0, 0
0, 0
0, 2
1, 0
1, 1
0, 0
3, 0
1, 0
0, 0
0, 0
0, 1
0, 0
0, 1
1, 0
0, 1
1, 0
0, 1
1, 1
1, 0
0, 0
0, 1
0, 1
0, 0
0, 0
1, 0
0, 0
0, 0
1, 1
0, 0
0, 0
0, 0
0, 0
0, 0
0, 0
1, 0
1, 0
1, 0
0, 1
0, 0
1, 0
0, 0
0, 0
1, 0
1, 0
0, 0
0, 0
0, 0
0, 0
0, 0
0, 0
0, 0
0, 2
0, 1
2, 0
0, 0
0, 0
0, 0
0, 0
0, 0
0, 1
0, 0
0, 1
0, 0
1, 0
1, 1
0, 0
1, 0
0, 0
1, 0
0, 0
1, 0
1, 0
0, 1
0, 0
0, 1
0, 1
0, 0
0, 1
1, 0
1, 0
0, 0
0, 0
1, 0
0, 0
0, 0
0, 0
0, 0
0, 0
0, 0
0, 0
0, 0
0, 0
0, 0
0, 0
0, 0
0, 0
0, 0
1, 0
0, 0
0, 0
0, 0
0, 0
0, 1
1, 0
0, 0
0, 1
0, 0
0, 1
0, 0
0, 0
1, 0
0, 0
0, 0
1, 0
0, 0
1, 0
0, 0
1, 0
0, 0
0, 0
0, 0
0, 0
0, 0
0, 0
0, 1
1, 0
0, 0
0, 0
0, 0
0, 1
1, 0
0, 0
0, 0
0, 0
0, 0
0, 0
0, 0
0, 0
0, 1
0, 0
0, 0
0, 0
0, 1
0, 1
0, 0
0, 0
0, 0
0, 0
0, 0
0, 0
0, 0
0, 1
0, 0
0, 0
1, 0
0, 0
0, 0
0, 0
0, 0
0, 0
0, 0
0, 0
0, 0
0, 0
0, 0
0, 0
0, 0
0, 0
0, 0
0, 0
0, 0
0, 0
0, 0
0, 0
0, 0
0, 0
0, 0
0, 1
0, 0
0, 0
0, 0
0, 0
2, 0
0, 0
0, 0
0, 0
0, 0
0, 0
0, 0
0, 0
0, 0
0, 0
0, 0
0, 0
0, 0
0, 0
0, 0
0, 0
0, 0
0, 0
0, 0
0, 0
0, 0
0, 0
0, 0
0, 0
0, 0
0, 0
0, 0
0, 0
0, 0
0, 1
0, 0
0, 0
0, 0
0, 0
0, 0
0, 0
0, 0
0, 0
0, 0
0, 0
0, 0
0, 0
1, 0
0, 1
0, 0
0, 0
0, 0
0, 0
0, 0
0, 0
0, 0
0, 0
0, 0
0, 0
0, 0
0, 0
1, 0
0, 0
0, 0
0, 0
0, 0
0, 0
0, 0
0, 1
0, 0
0, 0
0, 0
0, 0
0, 0
0, 0
0, 0
0, 0
0, 0
0, 0
0, 0
0, 0
0, 0
0, 0
0, 0
0, 0
0, 0
0, 0
0, 0
0, 0
0, 0
0, 0
0, 0
0, 0
0, 0
0, 0
0, 0
0, 0
0, 0
0, 0
0, 0
0, 0
0, 0
0, 0
0, 0
0, 0
0, 0
0, 0
0, 0
0, 0
0, 0
0, 0
0, 0
0, 0
0, 0
0, 0
0, 0
0, 0
0, 0
0, 0
0, 0
0, 0
0, 0
0, 0
0, 0
0, 0
0, 0
0, 0
0, 0
0, 0
0, 0
0, 0
0, 0
0, 0
0, 0
0, 0
0, 0
0, 0
0, 0
0, 0
0, 0
0, 0
0, 0
0, 0
0, 0
0, 0
0, 0
0, 0
0, 0
0, 0
0, 0
0, 0
0, 0
0, 0
0, 0
0, 0
0, 0
0, 0
0, 0
0, 0
0, 0
0, 0
0, 0
0, 0
0, 0
0, 0
0, 0
0, 0
0, 0
0, 0
0, 0
0, 0
0, 0
0, 0
0, 0
0, 0
0, 0
0, 0
0, 0
0, 0
0, 0
0, 0
0, 0
0, 0
0, 0
0, 0
0, 0
0, 0
0, 0
0, 0
0, 0
0, 0
0, 0
0, 0
0, 0
0, 0
0, 0
0, 0
0, 0
0, 0
0, 0
0, 0
0, 0
0, 0
0, 0
0, 0
0, 0
0, 0
0, 0
0, 0
0, 0
0, 0
0, 0
0, 0
0, 0
0, 0
0, 0
0, 0
0, 0
0, 0
0, 0
0, 0
0, 0
0, 0
0, 0
0, 0
0, 0
0, 0
0, 0
0, 0
0, 0
0, 0
0, 0
0, 0
0, 0
0, 0
0, 0
0, 0
0, 0
0, 0
0, 0
0, 0
0, 0
0, 0
0, 0
0, 0
0, 0
0, 0
0, 0
0, 0
0, 0
0, 0
0, 0
0, 0
0, 0
0, 0
0, 0
0, 0
0, 0
0, 0
0, 0
0, 0
0, 0
0, 0
0, 0
0, 0
0, 0
0, 0
0, 0
0, 0
0, 0
0, 0
0, 0
0, 0
0, 0
0, 0
0, 0
0, 0
0, 0
0, 0
0, 0
0, 0
0, 0
0, 0
0, 0
0, 0
0, 0
0, 0
0, 0
0, 0
0, 0
0, 0
0, 0
0, 0
0, 0
0, 0
0, 0
0, 0
0, 0
0, 0
0, 0
0, 0
0, 0
0, 0
0, 0
0, 0
0, 0
0, 0
0, 0
0, 0
0, 0
0, 0
0, 0
0, 0
0, 0
0, 0
0, 0
0, 0
0, 0
0, 0
0, 0
0, 0
0, 0
0, 0
0, 0
0, 0
0, 0
0, 0
0, 0
0, 0
0, 0
0, 0
0, 0
0, 0
0, 0
0, 0
0, 0
0, 0
0, 0
0, 0
0, 0
0, 0
0, 0
0, 0
0, 0
0, 0
0, 0
0, 0
0, 0
0, 0
0, 0
0, 0
0, 0
0, 0
0, 0
0, 0
0, 0
0, 0
0, 0
0, 0
0, 0
0, 0
0, 0
0, 0
0, 0
0, 0
0, 0
0, 0
0, 0
0, 0
0, 0
0, 0
0, 0
0, 0
0, 0
0, 0
0, 0
0, 0
0, 0
0, 0
0, 0
0, 0
0, 0
0, 0
0, 0
0, 0
0, 0
0, 0
0, 0
0, 0
0, 0
0, 0
0, 0
0, 0
0, 0
0, 0
0, 0
0, 0
0, 0
0, 0
0, 0
0, 0
0, 0
0, 0
0, 0
0, 0
0, 0
0, 0
0, 0
0, 0
0, 0
0, 0
0, 0
0, 0
0, 0
0, 0
0, 0
0, 0
0, 0
0, 0
0, 0
0, 0
0, 0
0, 0
0, 0
0, 0
0, 0
0, 0
0, 0
0, 0
0, 0
0, 0
0, 0
0, 0
0, 0
0, 0
0, 0
0, 0
0, 0
0, 0
0, 0
0, 0
0, 0
0, 0
0, 0
0, 0
0, 0
0, 0
0, 0
0, 0
0, 0
0, 0
0, 0
0, 0
0, 0
0, 0
0, 0
0, 0
0, 0
0, 0
0, 0
0, 0
0, 0
0, 0
0, 0
0, 0
0, 0
0, 0
0, 0
0, 0
0, 0
#ENDOFDATA     end of spectrum data