File: host_upload/06-09-2024/ps_0852/dump3/ps__0852shot_2204.msa
#FORMAT      : EMSA/MAS spectral data file
#VERSION     : TC202v2.0 PIXL
#TITLE       : N/A
#DATE        :       Date in the format DD-MMM-YYYY, for example 07-JUL-2010
#TIME        :             The time of day at which the spectrum was recorded, in 24-hour format
#OWNER       : PIXL Flight Model       (PIXL will use this to indicate which instrument took the data.)
#NPOINTS     : 4096     Number of data points in the spectrum (This can be zero for configuration only files)
#NCOLUMNS    : 2     Number of data columns in the spectrum (This can be zero for configuration only files)
#XUNITS      : eV
#YUNITS      : COUNTS
#DATATYPE    : YY
#XPERCHAN    : 7.862, 7.881   eV per channel (separate by commas if more than one detector)
#OFFSET      : 18.5, -22.4         eV of first channel  (separate by commas if more than one detector
#SIGNALTYPE  : XRF
#YP_TEMP     : 2.267
#LIVETIME    : 8.57022, 8.56093   seconds (separate by commas if more than one detector)
#REALTIME    : 10, 10.0   seconds (separate by commas if more than one detector)
#SPECTRUM    : start of spectrum data
0, 0
0, 0
0, 0
0, 0
0, 0
0, 0
0, 0
0, 0
0, 0
0, 0
0, 0
0, 0
0, 0
0, 0
0, 0
0, 0
0, 0
0, 0
0, 0
0, 0
0, 0
0, 0
0, 0
0, 0
0, 0
0, 0
0, 0
0, 0
0, 0
0, 0
0, 0
0, 0
0, 0
0, 0
0, 1
1, 0
1, 0
1, 1
1, 1
2, 3
0, 2
0, 1
2, 2
2, 2
4, 0
5, 4
3, 7
5, 5
6, 4
6, 10
27, 23
28, 40
67, 59
81, 73
86, 75
81, 49
58, 70
49, 43
31, 19
13, 11
14, 7
4, 9
6, 8
13, 5
9, 9
10, 8
9, 13
12, 11
28, 33
49, 44
91, 108
187, 161
283, 275
378, 370
453, 448
463, 446
382, 355
289, 269
192, 201
128, 127
70, 68
43, 30
24, 18
13, 5
9, 5
5, 5
2, 1
4, 5
3, 2
4, 2
3, 0
2, 0
0, 3
3, 2
2, 3
2, 2
2, 5
3, 6
1, 2
2, 3
3, 4
2, 5
2, 7
3, 2
7, 4
4, 5
2, 11
9, 13
7, 16
18, 26
16, 35
47, 53
38, 59
60, 107
61, 117
59, 100
57, 100
58, 103
42, 59
51, 44
42, 34
37, 33
31, 32
26, 26
18, 19
11, 19
17, 13
7, 15
9, 8
6, 4
7, 5
5, 5
2, 3
5, 2
5, 2
2, 2
1, 5
6, 7
3, 4
3, 5
10, 11
7, 8
8, 9
3, 3
5, 5
3, 3
5, 3
3, 2
7, 3
2, 5
1, 3
5, 4
8, 9
13, 7
18, 10
14, 17
20, 27
22, 30
19, 21
16, 15
22, 12
20, 9
7, 7
9, 0
7, 9
2, 3
6, 3
8, 8
7, 4
7, 1
5, 5
8, 6
7, 7
7, 8
1, 2
2, 6
6, 3
6, 5
9, 7
3, 1
6, 2
1, 4
4, 3
3, 2
4, 1
2, 5
2, 3
12, 6
6, 4
11, 13
18, 4
19, 12
22, 9
30, 14
15, 17
15, 13
23, 20
17, 14
24, 15
18, 10
15, 16
14, 13
9, 15
13, 4
11, 6
9, 4
13, 5
9, 3
10, 7
11, 14
10, 4
2, 7
8, 11
2, 9
5, 15
7, 15
5, 21
6, 8
7, 20
3, 13
8, 15
3, 23
14, 6
5, 8
15, 8
11, 9
15, 5
14, 11
16, 15
10, 20
15, 14
17, 18
11, 16
20, 12
5, 10
14, 15
16, 14
18, 10
21, 17
12, 18
10, 13
22, 23
14, 26
15, 21
17, 28
19, 40
32, 34
46, 45
40, 53
55, 65
51, 70
53, 66
52, 48
49, 45
39, 38
41, 35
30, 22
23, 24
19, 20
29, 10
42, 21
58, 23
78, 46
104, 102
175, 204
323, 330
469, 581
809, 941
1173, 1321
1567, 1700
1990, 2088
2199, 2266
2426, 2356
2301, 2206
2057, 1848
1699, 1536
1381, 1040
958, 731
613, 478
391, 230
232, 163
110, 86
82, 44
59, 23
30, 28
15, 14
15, 26
21, 18
18, 26
18, 28
24, 32
25, 44
41, 52
77, 81
108, 114
168, 178
206, 242
271, 288
308, 329
354, 354
308, 361
345, 349
298, 278
248, 218
204, 145
123, 106
88, 69
61, 41
32, 23
28, 15
13, 10
13, 6
6, 6
11, 6
15, 10
14, 14
8, 14
10, 12
12, 13
17, 10
8, 7
12, 8
10, 8
7, 5
6, 7
5, 3
4, 2
5, 5
5, 3
5, 4
6, 5
6, 1
4, 4
5, 4
2, 10
10, 5
4, 4
10, 6
5, 4
11, 6
6, 2
7, 9
12, 5
11, 7
3, 2
7, 4
8, 5
5, 5
9, 5
9, 3
15, 2
12, 8
8, 7
3, 3
7, 8
11, 8
8, 3
7, 10
8, 13
5, 7
3, 16
4, 6
1, 5
4, 7
0, 11
3, 3
2, 10
5, 2
6, 3
4, 2
0, 3
4, 2
3, 4
9, 5
7, 6
6, 3
9, 1
7, 3
9, 1
8, 3
24, 4
18, 3
22, 2
15, 1
20, 2
22, 0
10, 4
14, 6
12, 3
7, 2
7, 3
10, 1
1, 5
7, 3
9, 3
9, 3
4, 2
8, 5
4, 1
3, 4
5, 4
4, 4
5, 5
5, 12
2, 5
1, 7
8, 3
2, 7
6, 7
3, 10
1, 5
1, 6
2, 5
3, 2
4, 4
1, 4
0, 1
6, 3
3, 2
2, 7
1, 1
2, 2
4, 6
4, 5
1, 2
5, 8
3, 4
5, 7
2, 10
3, 9
1, 11
5, 17
3, 15
4, 14
2, 22
3, 23
4, 19
3, 13
0, 8
0, 11
1, 12
3, 6
3, 3
2, 4
4, 3
3, 1
0, 6
4, 1
7, 2
2, 3
2, 3
1, 2
2, 1
1, 3
3, 2
0, 5
5, 3
4, 7
3, 2
2, 2
4, 4
3, 3
6, 3
4, 5
1, 0
2, 2
0, 0
1, 3
2, 0
2, 5
0, 2
1, 2
2, 0
3, 1
2, 1
1, 3
1, 1
0, 0
2, 2
3, 1
2, 4
2, 1
1, 4
5, 1
2, 3
4, 1
3, 2
1, 1
1, 3
0, 1
3, 2
2, 1
0, 1
3, 4
5, 1
5, 1
4, 2
0, 2
4, 4
5, 2
2, 1
0, 2
2, 0
2, 4
1, 5
1, 1
0, 1
3, 6
4, 3
5, 3
3, 2
3, 0
1, 0
2, 2
1, 2
2, 2
2, 2
4, 5
2, 1
2, 1
1, 1
3, 3
1, 3
2, 1
1, 2
3, 0
2, 3
1, 1
2, 1
1, 2
1, 1
5, 1
2, 0
3, 2
2, 4
3, 3
2, 2
1, 7
6, 1
2, 4
4, 3
4, 2
2, 5
6, 1
3, 3
1, 2
2, 3
0, 2
3, 1
2, 2
2, 2
2, 2
1, 1
1, 2
1, 2
3, 1
2, 1
1, 2
1, 2
4, 2
1, 1
3, 2
2, 3
1, 1
2, 5
3, 0
2, 3
0, 2
5, 2
1, 3
1, 1
3, 2
1, 2
1, 1
1, 1
1, 2
1, 2
1, 0
1, 3
0, 2
1, 1
0, 2
3, 3
3, 2
1, 2
3, 2
1, 1
1, 0
2, 3
2, 0
1, 0
3, 0
1, 1
1, 1
1, 0
1, 2
1, 1
0, 2
1, 0
1, 2
1, 0
1, 2
1, 1
1, 2
0, 1
1, 1
1, 2
0, 0
2, 0
1, 1
1, 2
0, 2
1, 0
1, 0
1, 1
1, 0
1, 2
0, 1
0, 1
0, 1
1, 1
2, 0
0, 0
1, 0
1, 0
0, 0
0, 0
0, 0
0, 2
0, 2
1, 0
1, 0
1, 0
0, 0
2, 0
0, 2
1, 0
0, 0
2, 0
1, 1
0, 1
0, 1
0, 0
1, 0
0, 0
1, 1
1, 1
2, 0
0, 0
0, 0
0, 0
0, 1
0, 1
0, 0
0, 0
1, 0
1, 2
0, 1
0, 0
0, 0
0, 0
0, 0
0, 0
0, 0
0, 1
1, 1
0, 1
0, 0
2, 0
1, 2
0, 0
1, 1
0, 1
0, 1
0, 0
0, 0
0, 0
1, 1
0, 0
0, 1
1, 1
0, 5
0, 0
1, 0
0, 1
1, 0
0, 0
1, 0
1, 0
1, 0
0, 0
0, 0
0, 0
1, 0
0, 1
2, 0
0, 1
0, 1
0, 0
0, 0
0, 0
2, 0
0, 0
0, 1
2, 1
0, 0
1, 0
0, 0
1, 0
0, 0
1, 0
0, 1
1, 0
0, 0
0, 0
1, 0
2, 1
0, 2
0, 1
0, 0
0, 0
0, 0
1, 1
1, 0
2, 0
0, 0
0, 0
0, 0
0, 0
0, 0
0, 0
0, 0
1, 0
0, 0
0, 1
0, 0
0, 0
0, 0
0, 0
0, 1
0, 1
0, 1
0, 0
1, 0
1, 0
0, 0
1, 0
0, 0
0, 0
1, 0
0, 0
0, 1
0, 0
0, 0
0, 0
0, 1
0, 0
0, 2
1, 0
1, 0
0, 2
0, 0
0, 0
0, 0
0, 0
0, 1
1, 0
1, 0
0, 0
0, 0
0, 1
1, 1
0, 0
0, 0
0, 0
1, 0
0, 0
1, 1
0, 1
0, 1
0, 0
1, 0
0, 1
0, 0
1, 0
0, 0
0, 0
0, 0
0, 0
0, 0
0, 1
0, 1
0, 0
0, 0
1, 0
1, 0
0, 0
0, 1
0, 0
0, 1
0, 0
0, 0
0, 0
1, 0
0, 0
0, 0
0, 1
0, 0
0, 0
1, 0
0, 0
0, 1
0, 0
0, 0
0, 1
0, 0
0, 1
0, 0
0, 0
0, 0
0, 0
0, 0
0, 0
0, 0
0, 0
0, 0
1, 0
0, 0
0, 0
0, 0
0, 1
0, 0
1, 0
0, 0
0, 0
0, 0
0, 0
0, 0
1, 1
0, 0
0, 0
1, 0
0, 0
0, 0
0, 0
2, 1
0, 0
1, 1
0, 0
0, 0
0, 0
0, 1
0, 1
0, 0
0, 0
1, 0
0, 0
0, 0
0, 0
0, 0
0, 0
0, 0
0, 0
0, 1
0, 0
0, 0
0, 0
1, 0
0, 0
0, 0
0, 0
0, 0
0, 0
1, 0
0, 0
0, 0
0, 0
0, 0
0, 0
0, 0
0, 0
0, 0
0, 0
0, 1
0, 0
0, 0
0, 0
0, 0
0, 0
0, 0
0, 0
0, 0
0, 0
0, 0
0, 0
0, 0
0, 0
0, 0
1, 0
0, 0
0, 0
0, 0
0, 0
0, 0
0, 0
0, 0
0, 0
0, 0
0, 0
0, 0
0, 0
0, 0
0, 0
0, 1
0, 0
0, 0
0, 0
0, 0
0, 0
1, 0
0, 0
0, 0
0, 0
0, 0
0, 0
0, 0
0, 0
0, 1
0, 0
0, 0
1, 0
0, 1
0, 0
0, 0
0, 0
0, 0
0, 0
0, 0
0, 0
0, 0
0, 0
0, 0
0, 0
0, 0
0, 0
0, 0
1, 0
0, 0
0, 0
0, 0
0, 0
0, 0
0, 0
0, 0
0, 0
0, 0
0, 0
0, 0
0, 0
0, 0
0, 0
0, 0
0, 0
0, 1
0, 0
0, 0
0, 0
0, 0
0, 0
0, 0
0, 0
0, 0
0, 0
0, 0
0, 0
0, 0
0, 0
0, 0
0, 0
0, 0
0, 0
0, 0
0, 0
0, 0
0, 0
0, 0
0, 0
0, 0
0, 0
0, 0
0, 0
0, 0
1, 0
0, 0
0, 0
0, 0
0, 1
0, 0
0, 0
0, 0
0, 0
0, 0
0, 0
0, 0
0, 0
0, 0
0, 0
0, 0
0, 0
0, 0
0, 0
0, 0
0, 0
0, 0
0, 0
0, 0
0, 0
0, 0
0, 0
0, 0
0, 0
0, 0
0, 0
0, 0
0, 0
0, 0
0, 0
0, 0
0, 0
0, 0
0, 0
0, 0
0, 0
0, 0
0, 0
0, 0
0, 0
0, 0
0, 0
0, 0
0, 0
0, 0
0, 0
0, 0
0, 0
0, 0
0, 0
0, 0
0, 0
0, 0
0, 0
0, 0
0, 0
0, 0
0, 0
0, 0
0, 0
0, 0
0, 0
0, 0
0, 0
0, 0
0, 0
0, 0
0, 0
0, 0
0, 0
0, 0
0, 0
0, 0
0, 0
0, 0
0, 0
0, 0
0, 0
0, 0
0, 0
0, 0
0, 0
0, 0
0, 0
0, 0
0, 0
0, 0
0, 0
0, 0
0, 0
0, 0
0, 0
0, 0
0, 0
0, 0
0, 0
0, 0
0, 0
0, 0
0, 0
0, 0
0, 0
1, 0
0, 0
0, 0
0, 0
0, 0
0, 0
0, 0
0, 0
0, 0
0, 0
0, 0
0, 0
0, 0
0, 0
0, 0
0, 0
0, 0
0, 0
0, 0
0, 0
0, 0
0, 0
0, 0
0, 0
0, 0
0, 0
0, 0
0, 0
0, 0
0, 0
0, 0
0, 0
0, 0
0, 0
0, 0
0, 0
0, 0
0, 0
0, 0
0, 0
0, 0
0, 0
0, 0
0, 0
0, 0
0, 0
0, 0
0, 0
0, 0
0, 0
0, 0
0, 0
0, 0
0, 0
0, 0
0, 0
0, 0
0, 0
0, 0
0, 0
0, 0
0, 0
0, 0
0, 0
0, 0
0, 0
0, 0
0, 0
0, 0
0, 0
0, 0
0, 0
0, 0
0, 0
0, 0
0, 0
0, 0
0, 0
0, 0
0, 0
0, 0
0, 0
0, 0
0, 0
0, 0
0, 0
0, 0
0, 0
0, 0
0, 0
0, 0
0, 0
0, 0
0, 0
0, 0
0, 0
0, 0
0, 0
0, 0
0, 0
0, 0
0, 0
0, 0
0, 0
0, 0
0, 0
0, 0
0, 0
0, 0
0, 0
0, 0
0, 0
0, 0
0, 0
0, 0
0, 0
0, 0
0, 0
0, 0
0, 0
0, 0
0, 0
0, 0
0, 0
0, 0
0, 0
0, 0
0, 0
0, 0
0, 0
0, 0
0, 0
0, 0
0, 0
0, 0
0, 0
0, 0
0, 0
0, 0
0, 0
0, 0
0, 0
0, 0
0, 0
0, 0
0, 0
0, 0
0, 0
0, 0
0, 0
0, 0
0, 0
0, 0
0, 0
0, 0
0, 0
0, 0
0, 0
0, 0
0, 0
0, 0
0, 0
0, 0
0, 0
0, 0
0, 0
0, 0
0, 0
0, 0
0, 0
0, 0
0, 0
0, 0
0, 0
0, 0
0, 0
0, 0
0, 0
0, 0
0, 0
0, 0
0, 0
0, 0
0, 0
0, 0
0, 0
0, 0
0, 0
0, 0
0, 0
0, 0
0, 0
0, 0
0, 0
0, 0
0, 0
0, 0
0, 0
0, 0
0, 0
0, 0
0, 0
0, 0
0, 0
0, 0
0, 0
0, 0
0, 0
0, 0
0, 0
0, 0
0, 0
0, 0
0, 0
0, 0
0, 0
0, 0
0, 0
0, 0
0, 0
0, 0
0, 0
0, 0
0, 0
0, 0
0, 0
0, 0
0, 0
0, 0
0, 0
0, 0
0, 0
0, 0
0, 0
0, 0
0, 0
0, 0
0, 0
0, 0
0, 0
0, 0
0, 0
0, 0
0, 0
0, 0
0, 0
0, 0
0, 0
0, 0
0, 0
0, 0
0, 0
0, 0
0, 0
0, 0
0, 0
0, 0
0, 0
0, 0
0, 0
0, 0
0, 0
0, 0
0, 0
0, 0
0, 0
0, 0
#ENDOFDATA     end of spectrum data