File: host_upload/06-09-2024/ps_0852/dump3/ps__0852shot_2178.msa
#FORMAT      : EMSA/MAS spectral data file
#VERSION     : TC202v2.0 PIXL
#TITLE       : N/A
#DATE        :       Date in the format DD-MMM-YYYY, for example 07-JUL-2010
#TIME        :             The time of day at which the spectrum was recorded, in 24-hour format
#OWNER       : PIXL Flight Model       (PIXL will use this to indicate which instrument took the data.)
#NPOINTS     : 4096     Number of data points in the spectrum (This can be zero for configuration only files)
#NCOLUMNS    : 2     Number of data columns in the spectrum (This can be zero for configuration only files)
#XUNITS      : eV
#YUNITS      : COUNTS
#DATATYPE    : YY
#XPERCHAN    : 7.862, 7.881   eV per channel (separate by commas if more than one detector)
#OFFSET      : 18.5, -22.4         eV of first channel  (separate by commas if more than one detector
#SIGNALTYPE  : XRF
#YP_TEMP     : 2.428
#LIVETIME    : 8.56457, 8.55304   seconds (separate by commas if more than one detector)
#REALTIME    : 10, 10.0   seconds (separate by commas if more than one detector)
#SPECTRUM    : start of spectrum data
0, 0
0, 0
0, 0
0, 0
0, 0
0, 0
0, 0
0, 0
0, 0
0, 0
0, 0
0, 0
0, 0
0, 0
0, 0
0, 0
0, 0
0, 0
0, 0
0, 0
0, 0
0, 0
0, 0
0, 0
0, 0
0, 0
0, 0
0, 0
0, 0
0, 0
0, 0
0, 0
0, 1
0, 0
1, 0
1, 0
1, 0
0, 0
0, 1
0, 2
2, 1
0, 1
1, 0
3, 1
1, 3
2, 0
1, 0
5, 1
5, 7
11, 10
29, 23
44, 27
75, 36
86, 68
87, 51
92, 50
72, 25
45, 25
37, 18
20, 13
15, 5
3, 4
6, 3
2, 2
4, 0
6, 4
8, 3
13, 8
24, 14
48, 33
110, 61
163, 126
278, 192
387, 255
477, 254
459, 258
423, 271
289, 203
217, 126
107, 79
80, 45
50, 23
23, 14
14, 13
2, 3
4, 3
1, 2
1, 2
1, 0
1, 3
0, 0
1, 0
1, 1
4, 3
1, 2
6, 4
9, 3
6, 2
9, 1
10, 13
7, 7
7, 5
4, 5
5, 3
7, 7
9, 5
10, 4
9, 6
13, 3
20, 11
13, 9
26, 14
31, 18
31, 28
35, 34
39, 31
44, 45
29, 28
43, 28
27, 18
27, 21
18, 14
13, 12
24, 15
14, 15
17, 9
17, 8
10, 8
8, 7
4, 4
4, 4
5, 3
6, 1
2, 3
1, 2
1, 2
2, 7
3, 4
4, 2
0, 6
3, 4
3, 4
3, 2
6, 2
1, 2
3, 1
4, 2
2, 0
2, 1
3, 2
3, 1
4, 4
5, 8
9, 5
7, 11
21, 19
14, 16
23, 12
13, 15
19, 4
16, 6
18, 9
10, 5
7, 7
8, 2
9, 3
10, 8
8, 8
9, 6
8, 9
8, 7
8, 6
7, 6
3, 1
7, 5
12, 8
8, 6
4, 11
11, 9
7, 10
5, 9
7, 9
6, 14
8, 11
3, 7
6, 4
6, 4
2, 5
2, 1
8, 7
5, 4
12, 12
12, 9
11, 9
13, 11
14, 10
13, 8
15, 12
12, 12
14, 18
17, 14
16, 25
11, 27
14, 29
12, 37
8, 31
6, 42
8, 25
10, 21
5, 28
8, 17
6, 10
9, 9
11, 12
13, 6
9, 6
7, 6
9, 8
6, 1
7, 7
10, 9
10, 2
5, 4
14, 7
14, 7
18, 10
30, 14
26, 6
28, 13
35, 12
30, 13
26, 11
25, 8
15, 13
22, 12
9, 10
17, 8
12, 7
10, 7
15, 8
16, 6
5, 10
7, 7
29, 5
22, 14
22, 18
24, 28
42, 30
43, 40
73, 38
65, 54
66, 49
67, 47
65, 41
54, 34
34, 23
31, 22
33, 11
26, 18
26, 26
38, 19
47, 33
70, 49
120, 96
213, 175
335, 270
618, 467
844, 714
1256, 981
1801, 1450
2200, 1678
2628, 1866
2712, 1861
2644, 1774
2269, 1538
1931, 1212
1461, 801
1038, 549
694, 371
419, 207
223, 103
116, 70
71, 32
23, 15
23, 18
13, 19
14, 20
7, 19
11, 10
26, 14
34, 26
33, 32
48, 47
93, 54
121, 108
154, 126
230, 166
295, 236
343, 264
397, 275
410, 302
362, 264
375, 202
292, 174
227, 122
149, 96
92, 54
65, 31
42, 18
30, 16
12, 9
13, 5
11, 6
5, 9
12, 17
21, 11
18, 11
21, 14
13, 6
17, 9
13, 9
16, 4
9, 9
8, 2
12, 6
8, 3
5, 6
5, 1
4, 4
4, 4
5, 3
6, 3
3, 2
8, 2
5, 1
5, 7
3, 5
4, 3
6, 8
3, 12
8, 12
4, 13
5, 15
8, 11
9, 17
5, 14
11, 10
11, 8
10, 7
6, 10
7, 6
3, 10
10, 5
10, 7
13, 4
8, 7
6, 3
10, 3
4, 2
16, 4
5, 4
14, 2
10, 5
11, 6
10, 4
6, 3
5, 2
6, 5
7, 3
6, 4
4, 1
3, 4
4, 0
3, 1
6, 3
4, 3
1, 1
4, 3
6, 5
5, 1
5, 4
2, 8
3, 2
1, 2
4, 7
2, 4
5, 3
0, 5
4, 3
6, 3
6, 2
6, 5
5, 6
7, 2
6, 3
7, 5
2, 3
7, 3
5, 3
5, 3
5, 6
6, 3
6, 6
9, 3
0, 3
4, 2
7, 2
4, 5
3, 2
4, 4
3, 3
3, 4
4, 2
3, 5
1, 0
1, 1
7, 2
4, 2
1, 3
5, 3
4, 2
3, 2
6, 4
6, 4
7, 2
6, 2
6, 5
4, 3
3, 5
3, 1
2, 5
3, 1
3, 5
4, 2
4, 5
2, 2
5, 3
3, 7
4, 6
4, 7
3, 3
7, 7
3, 7
1, 4
4, 7
8, 3
2, 3
9, 3
4, 2
7, 1
3, 4
3, 2
4, 5
6, 2
6, 1
2, 1
3, 1
7, 2
5, 1
5, 2
6, 2
1, 0
3, 5
2, 0
9, 1
5, 1
2, 3
1, 2
4, 2
5, 0
6, 3
3, 1
5, 0
4, 2
0, 0
3, 1
1, 1
4, 0
5, 0
3, 3
4, 3
6, 1
0, 0
0, 1
2, 2
2, 0
2, 2
2, 2
3, 4
1, 3
4, 5
2, 2
2, 1
4, 2
0, 3
4, 1
3, 0
0, 0
2, 2
0, 1
0, 0
3, 0
0, 3
3, 4
2, 3
3, 1
3, 4
2, 1
4, 1
2, 3
2, 2
3, 2
3, 0
3, 2
2, 2
1, 2
4, 1
4, 1
1, 1
2, 2
3, 3
2, 1
1, 3
3, 1
1, 0
3, 1
4, 1
4, 1
1, 0
3, 0
1, 0
0, 2
1, 1
5, 1
2, 1
5, 2
2, 3
1, 5
6, 0
2, 2
5, 2
7, 4
8, 4
3, 3
8, 0
7, 3
7, 1
3, 0
3, 2
2, 2
1, 3
5, 4
2, 1
2, 0
1, 0
1, 2
0, 2
1, 0
3, 1
3, 0
2, 2
3, 0
2, 1
2, 1
0, 1
1, 2
3, 1
2, 3
2, 2
2, 0
4, 2
1, 0
1, 2
3, 2
1, 1
2, 1
0, 1
1, 0
4, 0
0, 0
1, 1
4, 3
1, 0
1, 0
1, 1
1, 2
1, 1
1, 2
0, 1
1, 1
5, 1
0, 2
2, 1
0, 1
1, 0
1, 1
2, 2
1, 2
2, 1
1, 0
1, 2
0, 0
3, 1
1, 0
2, 0
0, 0
1, 1
0, 0
1, 0
1, 1
2, 0
2, 2
1, 0
2, 0
1, 0
1, 2
1, 0
2, 1
2, 1
2, 0
1, 0
1, 0
0, 1
1, 0
1, 0
2, 1
3, 1
0, 0
2, 0
0, 1
0, 0
2, 0
0, 3
1, 1
2, 0
0, 0
2, 1
1, 0
0, 2
0, 3
0, 0
3, 1
0, 0
0, 0
1, 0
0, 0
1, 0
2, 1
0, 0
0, 0
3, 0
0, 0
2, 0
1, 1
0, 0
2, 0
1, 0
0, 1
1, 1
0, 1
0, 0
1, 1
1, 1
0, 0
0, 0
1, 0
0, 1
0, 1
0, 0
0, 0
1, 0
0, 0
0, 0
1, 1
1, 0
1, 0
0, 0
1, 0
0, 0
0, 0
1, 0
0, 1
1, 0
0, 0
0, 0
1, 0
1, 0
0, 1
0, 1
3, 1
0, 0
0, 0
1, 0
2, 0
1, 1
0, 1
2, 0
1, 0
0, 0
0, 1
1, 1
0, 0
0, 0
1, 0
2, 1
2, 0
1, 0
2, 0
0, 0
1, 1
0, 1
1, 2
2, 1
0, 1
1, 0
0, 0
0, 0
1, 0
0, 0
0, 0
1, 0
0, 0
0, 0
0, 1
1, 0
0, 0
1, 0
2, 0
0, 1
1, 0
0, 0
0, 0
0, 0
0, 0
0, 0
0, 0
1, 0
0, 0
0, 0
1, 0
0, 0
0, 0
0, 1
0, 0
1, 0
1, 0
0, 0
0, 0
0, 1
0, 0
0, 0
0, 0
0, 0
0, 0
0, 0
0, 2
0, 0
2, 0
0, 0
0, 1
0, 0
0, 0
0, 0
0, 0
0, 0
1, 0
0, 1
0, 0
1, 1
0, 0
0, 0
0, 0
1, 1
0, 0
0, 0
0, 0
0, 0
0, 0
0, 0
0, 0
0, 0
0, 0
1, 0
1, 0
0, 1
0, 0
1, 0
0, 0
1, 0
0, 0
0, 0
0, 0
0, 0
1, 0
2, 1
0, 0
0, 0
0, 0
0, 0
0, 0
0, 0
0, 0
0, 0
0, 0
0, 0
0, 1
0, 0
0, 1
0, 0
0, 0
0, 1
0, 0
0, 0
0, 1
1, 0
1, 1
0, 0
0, 1
0, 0
1, 0
0, 0
0, 1
0, 0
0, 0
0, 0
0, 0
0, 0
0, 0
0, 0
0, 0
0, 0
0, 0
0, 0
0, 0
0, 0
0, 0
0, 0
1, 0
0, 0
0, 1
0, 0
0, 0
0, 0
0, 0
0, 0
1, 0
0, 0
1, 0
0, 0
0, 0
0, 0
0, 0
1, 0
1, 0
1, 1
2, 0
0, 1
0, 0
0, 0
0, 1
0, 0
0, 1
0, 0
0, 0
1, 1
0, 0
0, 0
0, 0
0, 0
0, 0
0, 1
1, 0
0, 0
0, 0
0, 0
0, 0
0, 0
0, 0
0, 0
0, 0
0, 0
1, 0
0, 0
0, 0
0, 0
0, 0
0, 0
0, 0
0, 0
0, 0
0, 0
0, 0
0, 0
0, 0
0, 0
0, 0
0, 0
0, 0
0, 0
0, 0
0, 0
0, 0
0, 0
0, 0
0, 1
0, 0
0, 0
0, 0
0, 0
0, 0
0, 0
0, 0
0, 0
0, 0
0, 0
0, 0
0, 0
0, 0
0, 0
0, 0
0, 0
0, 0
0, 0
0, 0
0, 0
0, 0
0, 0
0, 0
0, 0
0, 0
0, 0
0, 0
0, 0
0, 0
0, 0
0, 0
0, 0
0, 0
1, 0
0, 0
0, 0
0, 0
0, 0
0, 0
0, 0
0, 0
0, 0
0, 0
0, 0
0, 0
0, 0
0, 0
0, 0
0, 0
1, 0
0, 0
0, 0
1, 0
0, 0
0, 0
0, 0
0, 0
0, 0
0, 0
1, 0
0, 0
0, 0
0, 0
0, 0
0, 0
0, 0
0, 0
0, 0
0, 0
0, 0
0, 0
0, 0
0, 0
0, 0
0, 0
0, 0
0, 0
0, 0
0, 0
0, 0
0, 0
0, 0
0, 0
0, 0
0, 0
0, 0
0, 0
0, 0
0, 0
0, 0
0, 0
0, 0
0, 0
0, 0
0, 0
0, 0
0, 0
0, 0
0, 0
0, 0
0, 0
0, 0
0, 0
0, 0
0, 0
0, 0
0, 0
0, 0
0, 0
0, 0
0, 0
0, 0
0, 0
0, 0
0, 0
0, 0
0, 0
0, 0
0, 0
0, 0
0, 0
0, 0
0, 0
0, 0
0, 0
0, 0
0, 0
0, 0
0, 0
0, 0
0, 0
0, 0
0, 0
0, 0
0, 0
0, 0
0, 0
0, 0
0, 0
0, 0
0, 0
0, 0
0, 0
0, 0
0, 0
0, 0
0, 0
0, 0
0, 0
0, 0
0, 0
0, 0
0, 0
0, 0
0, 0
0, 0
0, 0
0, 0
0, 0
0, 0
0, 0
0, 0
0, 0
0, 0
0, 0
0, 0
0, 0
0, 0
0, 0
0, 0
0, 0
0, 0
0, 0
0, 0
0, 0
0, 0
0, 0
0, 0
0, 0
0, 0
0, 0
0, 0
0, 0
0, 0
0, 0
0, 0
0, 0
0, 0
0, 0
0, 0
0, 0
0, 0
0, 0
0, 0
0, 0
0, 0
0, 0
0, 0
0, 0
0, 0
0, 0
0, 0
0, 0
0, 0
0, 0
0, 0
0, 0
0, 0
0, 0
0, 0
0, 0
0, 0
0, 0
0, 0
0, 0
0, 0
0, 0
0, 0
0, 0
0, 0
0, 0
0, 0
0, 0
0, 0
0, 0
0, 0
0, 0
0, 0
0, 0
0, 0
0, 0
0, 0
0, 0
0, 0
0, 0
0, 0
0, 0
0, 0
0, 0
0, 0
0, 0
0, 0
0, 0
0, 0
0, 0
0, 0
0, 0
0, 0
0, 0
0, 0
0, 0
0, 0
0, 0
0, 0
0, 0
0, 0
0, 0
0, 0
0, 0
0, 0
0, 0
0, 0
0, 0
0, 0
0, 0
0, 0
0, 0
0, 0
0, 0
0, 0
0, 0
0, 0
0, 0
0, 0
0, 0
0, 0
0, 0
0, 0
0, 0
0, 0
0, 0
0, 0
0, 0
0, 0
0, 0
0, 0
0, 0
0, 0
0, 0
0, 0
0, 0
0, 0
0, 0
0, 0
0, 0
0, 0
0, 0
0, 0
0, 0
0, 0
0, 0
0, 0
0, 0
0, 0
0, 0
0, 0
0, 0
0, 0
0, 0
0, 0
0, 0
0, 0
0, 0
0, 0
0, 0
0, 0
0, 0
0, 0
0, 0
0, 0
0, 0
0, 0
0, 0
0, 0
0, 0
0, 0
0, 0
0, 0
0, 0
0, 0
0, 0
0, 0
0, 0
0, 0
0, 0
0, 0
0, 0
0, 0
0, 0
0, 0
0, 0
0, 0
0, 0
0, 0
0, 0
0, 0
0, 0
0, 0
0, 0
0, 0
0, 0
0, 0
0, 0
0, 0
0, 0
0, 0
0, 0
0, 0
0, 0
0, 0
0, 0
0, 0
0, 0
0, 0
0, 0
0, 0
0, 0
0, 0
0, 0
0, 0
0, 0
0, 0
0, 0
0, 0
0, 0
0, 0
0, 0
0, 0
0, 0
0, 0
0, 0
0, 0
0, 0
0, 0
0, 0
0, 0
0, 0
0, 0
0, 0
0, 0
0, 0
0, 0
0, 0
0, 0
0, 0
0, 0
0, 0
0, 0
0, 0
0, 0
0, 0
0, 0
0, 0
0, 0
0, 0
0, 0
0, 0
0, 0
0, 0
0, 0
0, 0
0, 0
0, 0
0, 0
0, 0
0, 0
0, 0
0, 0
0, 0
0, 0
0, 0
0, 0
0, 0
0, 0
0, 0
0, 0
0, 0
0, 0
0, 0
0, 0
0, 0
0, 0
0, 0
0, 0
0, 0
0, 0
0, 0
0, 0
0, 0
0, 0
0, 0
0, 0
0, 0
0, 0
0, 0
0, 0
0, 0
0, 0
0, 0
0, 0
0, 0
0, 0
0, 0
0, 0
0, 0
0, 0
0, 0
0, 0
0, 0
0, 0
0, 0
#ENDOFDATA     end of spectrum data