File: host_upload/06-09-2024/ps_0852/dump3/ps__0852shot_2143.msa
#FORMAT      : EMSA/MAS spectral data file
#VERSION     : TC202v2.0 PIXL
#TITLE       : N/A
#DATE        :       Date in the format DD-MMM-YYYY, for example 07-JUL-2010
#TIME        :             The time of day at which the spectrum was recorded, in 24-hour format
#OWNER       : PIXL Flight Model       (PIXL will use this to indicate which instrument took the data.)
#NPOINTS     : 4096     Number of data points in the spectrum (This can be zero for configuration only files)
#NCOLUMNS    : 2     Number of data columns in the spectrum (This can be zero for configuration only files)
#XUNITS      : eV
#YUNITS      : COUNTS
#DATATYPE    : YY
#XPERCHAN    : 7.862, 7.881   eV per channel (separate by commas if more than one detector)
#OFFSET      : 18.5, -22.4         eV of first channel  (separate by commas if more than one detector
#SIGNALTYPE  : XRF
#YP_TEMP     : 2.46
#LIVETIME    : 8.56773, 8.54986   seconds (separate by commas if more than one detector)
#REALTIME    : 10, 10.0   seconds (separate by commas if more than one detector)
#SPECTRUM    : start of spectrum data
0, 0
0, 0
0, 0
0, 0
0, 0
0, 0
0, 0
0, 0
0, 0
0, 0
0, 0
0, 0
0, 0
0, 0
0, 0
0, 0
0, 0
0, 0
0, 0
0, 0
0, 0
0, 0
0, 0
0, 0
0, 0
0, 0
0, 0
0, 0
0, 0
0, 0
0, 0
0, 0
0, 0
0, 0
0, 0
1, 2
1, 0
1, 2
1, 0
2, 0
2, 0
0, 0
1, 0
0, 1
1, 3
1, 0
2, 4
3, 2
5, 1
14, 17
23, 26
32, 44
46, 54
67, 84
71, 81
56, 81
66, 55
39, 46
25, 26
13, 18
9, 6
6, 7
3, 3
7, 6
5, 5
3, 7
7, 11
8, 15
28, 21
44, 54
106, 120
161, 193
230, 314
295, 395
379, 499
375, 446
384, 405
295, 291
198, 203
109, 128
83, 97
45, 45
11, 16
5, 7
6, 5
4, 6
1, 2
2, 2
3, 3
0, 0
2, 0
0, 2
2, 2
1, 3
1, 0
4, 2
3, 3
5, 1
3, 6
0, 6
0, 1
5, 3
1, 3
4, 3
2, 6
9, 2
3, 5
7, 10
13, 8
23, 16
22, 32
28, 37
46, 44
40, 51
39, 47
42, 49
40, 40
43, 37
34, 35
25, 27
27, 20
18, 13
25, 22
14, 16
16, 21
10, 15
12, 19
13, 9
10, 5
9, 15
3, 5
4, 2
1, 8
3, 0
3, 4
2, 7
2, 2
3, 3
0, 0
3, 1
1, 6
2, 0
4, 3
3, 5
3, 5
6, 4
5, 3
6, 4
8, 2
9, 2
11, 8
13, 7
26, 15
31, 24
24, 24
41, 24
33, 44
49, 43
44, 43
39, 33
27, 28
20, 27
14, 10
18, 13
13, 6
21, 4
24, 3
36, 6
31, 5
27, 14
21, 4
19, 11
21, 9
19, 14
14, 5
12, 5
9, 5
1, 8
9, 4
10, 4
6, 2
3, 4
6, 4
2, 1
4, 4
8, 2
2, 6
6, 3
5, 7
5, 6
9, 12
7, 16
14, 16
14, 17
12, 9
14, 14
15, 11
12, 16
11, 20
7, 16
9, 16
14, 11
6, 8
11, 13
8, 7
8, 7
14, 5
9, 8
16, 9
15, 7
8, 5
11, 13
7, 15
10, 10
16, 22
7, 34
6, 41
11, 45
8, 36
2, 36
3, 34
6, 35
12, 21
15, 18
9, 16
12, 29
16, 12
13, 12
14, 19
14, 10
12, 18
30, 19
22, 17
19, 11
13, 12
14, 15
11, 10
9, 8
2, 5
12, 2
7, 9
8, 6
9, 12
10, 12
14, 12
20, 21
23, 41
36, 47
48, 60
47, 54
49, 76
42, 59
51, 74
55, 61
35, 37
27, 34
28, 27
22, 24
17, 15
15, 16
13, 19
21, 31
43, 64
62, 99
136, 160
243, 390
405, 627
673, 921
983, 1357
1355, 1809
1720, 2240
1976, 2414
2083, 2443
2038, 2334
1854, 1970
1480, 1561
1141, 1128
771, 758
515, 442
310, 300
179, 144
104, 81
62, 48
30, 27
15, 15
13, 20
24, 18
11, 20
24, 18
22, 24
27, 34
33, 38
40, 48
59, 86
111, 136
129, 164
186, 247
225, 307
259, 316
276, 406
295, 374
311, 323
257, 288
212, 227
138, 180
125, 113
85, 72
45, 37
32, 39
17, 18
5, 7
11, 5
8, 15
5, 8
7, 10
7, 13
5, 14
6, 15
6, 20
12, 14
4, 19
5, 11
9, 14
5, 11
5, 8
6, 12
3, 5
6, 7
9, 9
9, 7
6, 2
15, 2
17, 6
27, 2
17, 3
27, 6
17, 7
18, 6
8, 7
11, 8
6, 5
9, 10
8, 9
11, 11
3, 9
5, 14
4, 9
7, 11
5, 11
6, 7
11, 8
6, 9
3, 9
9, 6
4, 11
11, 2
8, 4
9, 5
4, 2
5, 3
5, 1
3, 1
4, 6
8, 5
4, 9
1, 6
2, 5
4, 5
4, 7
10, 3
1, 2
4, 5
3, 1
2, 3
2, 3
5, 3
3, 3
3, 5
2, 3
5, 4
6, 7
7, 2
1, 1
7, 6
5, 5
5, 5
6, 7
3, 8
6, 5
6, 8
1, 1
3, 5
0, 4
1, 1
4, 4
3, 2
4, 4
2, 3
1, 5
4, 6
6, 3
8, 2
4, 5
2, 5
7, 8
6, 1
4, 2
5, 4
4, 2
4, 3
4, 2
1, 1
1, 6
3, 8
5, 7
1, 7
3, 4
2, 3
5, 0
2, 3
2, 4
6, 5
2, 2
3, 1
2, 3
2, 2
8, 3
4, 2
3, 4
5, 2
2, 5
8, 5
3, 5
7, 2
3, 8
5, 5
4, 6
5, 3
4, 0
4, 1
5, 2
5, 2
7, 4
2, 2
2, 7
5, 2
3, 8
3, 1
3, 4
3, 3
6, 6
3, 3
1, 2
2, 4
2, 4
2, 2
2, 0
2, 5
1, 1
0, 5
1, 6
3, 2
0, 5
0, 3
0, 3
4, 4
3, 4
2, 4
5, 2
1, 4
1, 2
3, 4
1, 1
1, 2
3, 3
3, 7
4, 3
0, 1
1, 3
3, 2
0, 0
0, 2
2, 3
1, 3
6, 2
4, 3
3, 1
1, 0
0, 4
3, 5
3, 4
3, 3
1, 2
1, 3
4, 1
0, 1
0, 2
1, 2
3, 5
1, 1
0, 5
4, 2
1, 3
2, 1
2, 2
0, 1
0, 3
3, 0
1, 2
1, 1
2, 5
3, 0
1, 1
0, 2
3, 0
0, 3
2, 0
2, 0
0, 2
0, 3
3, 3
0, 2
1, 3
0, 3
1, 1
3, 2
1, 0
0, 1
2, 5
1, 1
3, 4
1, 1
3, 1
3, 4
1, 3
1, 4
2, 3
6, 3
5, 4
2, 5
2, 7
2, 4
2, 7
2, 6
4, 6
4, 5
3, 5
0, 6
3, 0
3, 1
4, 1
0, 4
2, 4
2, 0
3, 1
1, 1
3, 1
2, 1
2, 1
0, 1
2, 2
1, 3
0, 2
0, 2
3, 2
2, 0
1, 0
1, 3
0, 1
0, 4
2, 0
2, 3
2, 2
3, 0
1, 2
0, 0
0, 1
3, 1
1, 2
0, 1
1, 0
0, 0
4, 1
0, 0
1, 0
2, 3
2, 0
0, 1
1, 0
2, 0
0, 0
0, 1
2, 2
1, 1
1, 0
1, 2
0, 1
1, 3
3, 1
1, 0
0, 0
2, 0
0, 2
0, 0
0, 3
0, 4
0, 1
0, 1
1, 1
0, 2
0, 0
0, 0
2, 1
1, 1
0, 1
1, 2
0, 2
2, 2
0, 1
0, 1
0, 2
1, 2
0, 3
1, 1
3, 2
1, 0
2, 1
0, 2
1, 0
0, 1
0, 0
0, 0
2, 2
0, 0
0, 0
0, 2
1, 1
0, 2
0, 1
0, 3
1, 2
1, 1
3, 1
1, 1
0, 1
1, 0
1, 0
0, 1
0, 2
0, 2
0, 0
0, 2
0, 1
0, 0
0, 1
0, 1
2, 0
0, 1
0, 2
1, 0
0, 0
2, 2
0, 0
0, 1
0, 1
1, 0
0, 0
0, 3
0, 0
0, 0
1, 0
4, 0
0, 1
0, 1
0, 0
1, 0
2, 0
0, 1
0, 1
0, 1
0, 1
0, 0
0, 0
0, 1
0, 0
0, 1
0, 0
0, 0
0, 0
1, 1
0, 0
0, 0
0, 2
0, 2
0, 0
1, 0
0, 0
1, 1
0, 1
0, 1
0, 2
0, 0
1, 1
0, 0
0, 1
1, 2
0, 0
0, 1
1, 1
1, 1
0, 0
0, 0
0, 0
0, 1
0, 0
0, 2
2, 0
1, 0
0, 1
1, 1
0, 0
0, 3
0, 0
0, 0
1, 0
0, 1
0, 0
0, 1
0, 1
0, 0
0, 0
0, 1
0, 1
0, 2
0, 0
0, 1
2, 1
0, 2
0, 1
0, 1
1, 0
0, 1
1, 0
0, 0
0, 0
0, 1
0, 0
0, 0
0, 0
0, 0
0, 0
1, 0
0, 0
0, 0
0, 0
0, 0
0, 1
0, 0
0, 0
0, 0
1, 0
2, 2
0, 0
0, 0
0, 0
0, 2
0, 0
1, 0
0, 1
0, 0
2, 1
0, 0
0, 0
1, 0
0, 0
0, 0
0, 0
1, 0
0, 0
2, 0
0, 0
0, 0
0, 0
1, 0
1, 0
0, 0
1, 0
0, 0
1, 0
0, 0
0, 1
0, 0
0, 0
0, 1
0, 1
0, 0
0, 0
0, 0
0, 1
1, 0
0, 0
0, 0
0, 0
1, 0
0, 0
0, 0
0, 1
1, 0
2, 0
0, 1
0, 0
0, 0
0, 0
0, 0
0, 0
0, 1
0, 0
0, 0
0, 0
1, 0
0, 0
0, 0
0, 1
0, 0
0, 2
0, 0
1, 1
0, 0
0, 1
0, 0
0, 0
1, 0
0, 0
1, 0
1, 0
0, 0
0, 0
1, 0
0, 0
0, 0
0, 0
0, 0
0, 0
0, 0
0, 0
0, 0
2, 0
0, 0
0, 0
0, 0
0, 0
0, 0
0, 0
0, 0
0, 0
0, 1
0, 0
0, 0
2, 0
0, 0
0, 0
0, 0
0, 0
0, 0
1, 0
0, 0
0, 0
0, 0
0, 0
0, 0
0, 0
0, 0
0, 1
0, 0
0, 0
0, 1
1, 0
0, 0
0, 0
0, 0
0, 0
0, 0
0, 0
0, 1
0, 0
0, 0
0, 0
0, 0
0, 0
0, 0
0, 0
0, 0
0, 0
0, 1
0, 0
0, 0
0, 0
0, 1
0, 0
0, 0
0, 0
0, 0
0, 0
0, 0
0, 0
0, 0
0, 0
0, 0
0, 0
0, 0
0, 0
0, 0
0, 0
0, 0
0, 0
0, 0
0, 0
1, 0
0, 0
0, 0
1, 0
0, 0
1, 0
0, 0
0, 0
0, 0
0, 0
0, 0
0, 0
0, 0
0, 0
0, 0
0, 0
0, 0
0, 0
0, 0
0, 0
0, 0
0, 0
0, 0
0, 0
0, 0
0, 0
0, 0
0, 0
0, 0
0, 0
0, 0
0, 0
0, 0
0, 0
0, 0
0, 0
0, 0
1, 0
0, 0
0, 0
0, 1
0, 0
0, 0
0, 0
0, 0
0, 0
0, 0
0, 0
0, 0
0, 0
0, 1
0, 0
0, 0
0, 0
0, 0
0, 0
0, 0
0, 0
0, 0
0, 0
0, 0
0, 0
0, 0
0, 0
0, 0
0, 0
0, 0
0, 0
0, 0
0, 0
0, 0
0, 0
0, 0
0, 0
0, 0
0, 0
0, 0
0, 0
0, 0
0, 0
0, 0
0, 0
0, 0
0, 0
0, 0
0, 0
0, 0
0, 0
0, 0
0, 0
0, 0
0, 0
0, 0
0, 0
0, 0
0, 0
0, 0
0, 0
0, 0
0, 0
0, 0
0, 0
0, 0
0, 0
0, 0
0, 0
0, 1
0, 0
0, 0
0, 0
0, 0
0, 0
0, 0
0, 0
0, 0
0, 0
0, 0
0, 0
0, 0
0, 0
0, 0
0, 0
0, 0
0, 0
0, 0
0, 0
0, 0
0, 0
0, 0
0, 0
0, 0
0, 0
0, 0
0, 0
0, 0
0, 0
0, 0
0, 0
0, 0
0, 0
0, 0
0, 0
0, 0
0, 0
0, 0
0, 0
0, 0
0, 0
0, 0
0, 0
0, 0
0, 0
0, 0
0, 0
0, 0
0, 0
0, 0
0, 0
0, 0
0, 0
0, 0
0, 0
0, 0
0, 0
0, 0
0, 0
0, 0
0, 0
0, 0
0, 0
0, 0
0, 0
0, 0
0, 0
0, 0
0, 0
0, 0
0, 0
0, 0
0, 0
0, 0
0, 0
0, 0
0, 0
0, 0
0, 0
0, 0
0, 0
0, 0
0, 0
0, 0
0, 0
0, 0
0, 0
0, 0
0, 0
0, 0
0, 0
0, 0
0, 0
0, 0
0, 0
0, 0
0, 0
0, 0
0, 0
0, 0
0, 0
0, 0
0, 0
0, 0
0, 0
0, 0
0, 0
0, 0
0, 0
0, 0
0, 0
0, 0
0, 0
0, 0
0, 0
0, 0
0, 0
0, 0
0, 0
0, 0
0, 0
0, 0
0, 0
0, 0
0, 0
0, 0
0, 0
0, 0
0, 0
0, 0
0, 0
0, 0
0, 0
0, 0
0, 0
0, 0
0, 0
0, 0
0, 0
0, 0
0, 0
0, 0
0, 0
0, 0
0, 0
0, 0
0, 0
0, 0
0, 0
0, 0
0, 0
0, 0
0, 0
0, 0
0, 0
0, 0
0, 0
0, 0
0, 0
0, 0
0, 0
0, 0
0, 0
0, 0
0, 0
0, 0
0, 0
0, 0
0, 0
0, 0
0, 0
0, 0
0, 0
0, 0
0, 0
0, 0
0, 0
0, 0
0, 0
0, 0
0, 0
0, 0
0, 0
0, 0
0, 0
0, 0
0, 0
0, 0
0, 0
0, 0
0, 0
0, 0
0, 0
0, 0
0, 0
0, 0
0, 0
0, 0
0, 0
0, 0
0, 0
0, 0
0, 0
0, 0
0, 0
0, 0
0, 0
0, 0
0, 0
0, 0
0, 0
0, 0
0, 0
0, 0
0, 0
0, 0
0, 0
0, 0
0, 0
0, 0
0, 0
0, 0
0, 0
0, 0
0, 0
0, 0
0, 0
0, 0
0, 0
0, 0
0, 0
0, 0
0, 0
0, 0
0, 0
0, 0
0, 0
0, 0
0, 0
0, 0
0, 0
0, 0
0, 0
0, 0
0, 0
0, 0
0, 0
0, 0
0, 0
0, 0
0, 0
0, 0
0, 0
0, 0
0, 0
0, 0
0, 0
0, 0
0, 0
0, 0
0, 0
0, 0
0, 0
0, 0
0, 0
0, 0
0, 0
0, 0
0, 0
0, 0
0, 0
0, 0
0, 0
0, 0
0, 0
0, 0
0, 0
0, 0
0, 0
0, 0
0, 0
0, 0
0, 0
0, 0
0, 0
0, 0
0, 0
0, 0
0, 0
0, 0
0, 0
0, 0
0, 0
0, 0
0, 0
0, 0
0, 0
0, 0
0, 0
0, 0
0, 0
0, 0
0, 0
0, 0
0, 0
0, 0
0, 0
0, 0
0, 0
0, 0
0, 0
0, 0
0, 0
0, 0
0, 0
0, 0
0, 0
0, 0
0, 0
0, 0
0, 0
0, 0
0, 0
0, 0
0, 0
0, 0
0, 0
0, 0
0, 0
0, 0
0, 0
0, 0
0, 0
0, 0
0, 0
0, 0
0, 0
0, 0
0, 0
0, 0
0, 0
0, 0
#ENDOFDATA     end of spectrum data