File: host_upload/06-09-2024/ps_0852/dump3/ps__0852shot_2056.msa
#FORMAT      : EMSA/MAS spectral data file
#VERSION     : TC202v2.0 PIXL
#TITLE       : N/A
#DATE        :       Date in the format DD-MMM-YYYY, for example 07-JUL-2010
#TIME        :             The time of day at which the spectrum was recorded, in 24-hour format
#OWNER       : PIXL Flight Model       (PIXL will use this to indicate which instrument took the data.)
#NPOINTS     : 4096     Number of data points in the spectrum (This can be zero for configuration only files)
#NCOLUMNS    : 2     Number of data columns in the spectrum (This can be zero for configuration only files)
#XUNITS      : eV
#YUNITS      : COUNTS
#DATATYPE    : YY
#XPERCHAN    : 7.862, 7.881   eV per channel (separate by commas if more than one detector)
#OFFSET      : 18.5, -22.4         eV of first channel  (separate by commas if more than one detector
#SIGNALTYPE  : XRF
#YP_TEMP     : 2.524
#LIVETIME    : 8.51817, 8.51669   seconds (separate by commas if more than one detector)
#REALTIME    : 10, 10.0   seconds (separate by commas if more than one detector)
#SPECTRUM    : start of spectrum data
0, 0
0, 0
0, 0
0, 0
0, 0
0, 0
0, 0
0, 0
0, 0
0, 0
0, 0
0, 0
0, 0
0, 0
0, 0
0, 0
0, 0
0, 0
0, 0
0, 0
0, 0
0, 0
0, 0
0, 0
0, 0
0, 0
0, 0
0, 0
0, 0
0, 0
0, 0
0, 0
0, 0
0, 0
0, 0
0, 0
0, 0
0, 0
1, 0
0, 0
1, 1
0, 1
1, 0
4, 3
0, 1
0, 3
1, 0
2, 2
3, 9
11, 11
32, 22
37, 44
51, 71
80, 52
102, 77
72, 75
68, 45
40, 36
28, 32
16, 15
10, 11
6, 2
0, 4
4, 1
3, 4
6, 5
6, 4
12, 3
25, 32
41, 44
87, 102
175, 162
252, 256
329, 361
415, 392
415, 405
405, 352
289, 260
193, 166
136, 102
86, 70
37, 41
16, 26
10, 8
4, 6
2, 4
2, 2
1, 2
1, 2
1, 2
0, 1
1, 1
1, 1
3, 2
3, 1
4, 6
5, 4
2, 7
10, 9
4, 5
6, 1
7, 6
4, 7
4, 3
5, 3
6, 4
6, 6
10, 8
13, 14
22, 19
32, 23
39, 25
49, 31
79, 49
86, 41
73, 51
82, 39
86, 37
44, 35
46, 36
25, 24
18, 30
28, 27
9, 13
10, 14
17, 23
12, 13
8, 15
6, 5
5, 4
6, 6
0, 7
1, 3
2, 4
3, 3
3, 8
2, 3
0, 7
6, 2
1, 3
4, 1
2, 3
4, 2
4, 3
0, 5
1, 2
2, 1
2, 4
1, 4
2, 1
6, 1
4, 2
5, 2
7, 9
6, 8
20, 23
21, 19
20, 30
19, 24
15, 26
9, 31
10, 17
16, 18
6, 25
6, 17
15, 13
8, 7
7, 18
6, 7
5, 7
6, 6
8, 6
15, 8
4, 4
6, 2
5, 4
5, 5
3, 5
10, 4
5, 4
6, 8
5, 4
7, 3
3, 8
5, 7
3, 4
6, 1
5, 4
5, 7
12, 12
9, 4
14, 7
11, 17
18, 12
10, 18
15, 16
12, 15
14, 15
18, 11
18, 18
11, 15
16, 18
16, 10
10, 6
5, 8
10, 10
7, 7
13, 17
10, 19
7, 30
5, 31
8, 36
11, 31
9, 36
13, 29
5, 22
8, 24
7, 15
7, 15
8, 7
3, 6
14, 8
4, 9
10, 6
10, 7
13, 11
18, 11
22, 10
11, 22
23, 19
12, 25
19, 26
21, 22
23, 22
10, 15
14, 8
13, 15
8, 16
15, 10
17, 5
11, 11
14, 12
18, 11
19, 10
13, 21
22, 28
38, 35
47, 30
46, 46
66, 64
66, 76
77, 59
79, 61
48, 42
59, 41
30, 31
26, 31
29, 22
23, 23
29, 15
20, 34
38, 26
46, 52
89, 114
144, 164
303, 351
456, 590
773, 891
1180, 1271
1534, 1710
1897, 2130
2185, 2230
2443, 2289
2379, 2106
2112, 1913
1679, 1525
1282, 1040
979, 680
578, 425
378, 268
251, 132
116, 83
78, 41
45, 26
18, 13
19, 11
15, 15
19, 12
14, 22
19, 20
21, 22
26, 35
64, 55
62, 88
131, 98
159, 153
172, 204
261, 297
304, 328
362, 350
356, 347
370, 313
312, 287
243, 220
177, 166
138, 110
92, 52
62, 43
31, 21
23, 19
17, 17
14, 11
6, 10
12, 19
10, 18
14, 30
10, 33
13, 28
19, 36
10, 27
9, 27
13, 35
13, 29
13, 27
7, 29
11, 21
9, 18
8, 15
6, 7
8, 5
5, 7
9, 6
8, 9
8, 4
5, 5
10, 2
6, 2
7, 6
12, 1
2, 8
3, 5
1, 5
7, 4
6, 3
5, 5
6, 7
8, 8
10, 3
5, 7
10, 9
7, 8
8, 7
8, 4
7, 2
3, 3
5, 3
4, 8
3, 6
3, 3
4, 4
3, 1
4, 3
2, 2
4, 2
5, 4
2, 3
10, 6
6, 5
7, 3
1, 6
6, 6
4, 6
4, 4
9, 6
4, 3
9, 2
3, 1
8, 2
2, 4
6, 3
9, 2
5, 4
1, 4
2, 2
5, 8
8, 4
3, 1
7, 5
4, 6
3, 4
3, 5
6, 5
4, 4
3, 3
5, 8
5, 5
8, 3
1, 2
2, 4
7, 4
2, 3
3, 5
5, 2
3, 5
4, 4
3, 6
4, 0
8, 4
4, 5
8, 2
2, 2
3, 5
5, 2
3, 1
2, 1
0, 2
4, 0
6, 3
3, 2
2, 2
4, 3
3, 3
5, 2
3, 5
5, 1
6, 3
1, 2
1, 7
4, 3
2, 5
4, 4
4, 7
3, 3
4, 1
5, 3
3, 2
1, 4
0, 4
1, 1
1, 2
2, 4
2, 1
7, 4
7, 2
4, 0
3, 1
5, 0
3, 1
0, 2
3, 1
4, 2
1, 3
3, 3
1, 3
2, 4
3, 1
3, 4
4, 2
6, 3
1, 3
2, 3
4, 2
7, 4
4, 3
2, 2
1, 3
1, 2
3, 3
5, 1
3, 2
3, 1
4, 3
4, 1
2, 1
4, 3
6, 1
3, 4
4, 0
2, 1
0, 1
1, 4
0, 4
6, 1
3, 6
2, 1
2, 3
2, 3
4, 1
4, 3
1, 1
1, 2
2, 3
1, 3
2, 1
1, 3
2, 2
2, 1
2, 3
0, 2
3, 1
0, 1
3, 2
4, 1
3, 1
2, 1
2, 1
4, 3
2, 1
3, 1
2, 1
2, 2
1, 1
2, 0
2, 0
3, 1
2, 2
1, 2
2, 2
2, 1
2, 2
2, 3
1, 2
2, 1
2, 2
3, 0
2, 0
5, 2
4, 1
4, 3
3, 0
4, 3
1, 4
5, 1
4, 2
0, 4
1, 2
2, 3
3, 3
7, 3
3, 3
3, 4
8, 4
0, 6
4, 2
8, 6
2, 4
4, 3
2, 2
2, 4
1, 2
2, 0
0, 1
1, 1
1, 3
2, 1
1, 3
1, 2
2, 2
1, 1
1, 4
2, 2
5, 1
0, 1
4, 1
0, 2
4, 3
6, 0
1, 2
3, 1
3, 1
9, 0
3, 1
2, 0
4, 1
3, 1
2, 4
0, 1
0, 0
0, 2
0, 0
0, 0
3, 0
0, 2
1, 2
1, 1
1, 0
1, 0
0, 1
1, 2
1, 0
1, 1
1, 0
0, 1
1, 1
1, 1
1, 2
1, 1
1, 3
1, 3
0, 0
1, 0
0, 2
1, 0
0, 1
1, 2
3, 2
1, 0
0, 1
1, 0
0, 2
0, 1
0, 0
1, 1
0, 1
2, 1
2, 1
2, 0
1, 0
2, 0
1, 0
0, 2
1, 0
1, 0
0, 0
2, 3
0, 0
0, 0
1, 1
0, 0
0, 1
1, 0
1, 1
2, 1
1, 0
1, 2
2, 1
0, 1
1, 1
1, 2
0, 2
0, 2
2, 0
0, 1
1, 3
0, 1
0, 0
2, 0
2, 1
2, 0
0, 0
0, 0
0, 0
2, 1
0, 1
3, 1
2, 0
1, 0
0, 0
0, 0
1, 0
0, 1
0, 0
0, 1
0, 1
1, 1
1, 1
2, 0
0, 1
1, 2
0, 0
1, 1
0, 1
0, 0
1, 1
0, 0
0, 1
0, 1
0, 0
0, 2
2, 1
1, 1
1, 0
1, 2
0, 0
0, 1
0, 0
1, 1
2, 0
0, 0
0, 0
0, 2
2, 0
0, 1
0, 0
0, 1
0, 1
0, 0
0, 4
1, 0
1, 0
0, 1
0, 0
1, 0
0, 0
0, 1
0, 0
0, 0
0, 0
0, 0
0, 0
0, 0
0, 0
0, 1
1, 1
1, 0
0, 2
1, 0
1, 0
1, 0
1, 0
1, 0
0, 0
1, 0
1, 0
0, 0
0, 0
0, 0
1, 0
0, 1
2, 0
0, 0
0, 0
0, 0
1, 0
0, 1
0, 0
0, 0
0, 1
0, 0
0, 1
1, 0
1, 1
1, 1
2, 0
0, 0
0, 2
0, 0
0, 0
0, 0
1, 0
0, 0
1, 1
0, 0
0, 0
0, 0
0, 0
0, 0
0, 0
0, 0
0, 0
0, 0
0, 0
0, 0
0, 0
0, 1
0, 1
0, 0
0, 0
0, 0
1, 2
1, 0
1, 0
0, 0
1, 0
1, 0
0, 0
0, 1
2, 2
0, 0
0, 0
0, 0
0, 0
0, 1
0, 0
1, 0
0, 0
1, 1
0, 0
0, 0
1, 1
0, 0
0, 0
0, 0
1, 1
1, 0
1, 0
0, 0
0, 1
0, 0
0, 0
1, 1
1, 0
2, 0
0, 0
1, 0
0, 0
1, 0
0, 0
1, 0
1, 0
0, 0
0, 0
0, 1
0, 0
0, 0
0, 0
0, 0
0, 0
0, 0
0, 0
0, 0
0, 0
0, 0
1, 0
1, 0
1, 0
0, 0
0, 0
0, 0
0, 0
0, 0
0, 0
0, 0
0, 0
0, 0
0, 0
0, 0
0, 0
0, 0
1, 1
1, 0
0, 0
0, 0
0, 0
0, 0
0, 0
0, 0
0, 0
0, 0
0, 0
0, 0
0, 1
0, 0
0, 0
0, 0
1, 1
0, 0
0, 0
0, 0
0, 0
1, 0
0, 0
0, 0
0, 0
0, 0
0, 0
0, 0
0, 0
0, 0
0, 0
0, 0
0, 0
0, 0
0, 0
0, 0
0, 0
0, 0
0, 0
0, 0
0, 0
0, 0
0, 0
0, 0
0, 0
0, 0
0, 1
0, 0
0, 1
0, 0
0, 0
2, 0
0, 0
0, 0
0, 0
0, 0
0, 1
0, 0
0, 0
0, 0
0, 0
0, 0
0, 0
0, 0
0, 0
0, 0
0, 0
0, 0
0, 0
0, 0
0, 0
0, 0
1, 0
0, 0
0, 0
0, 0
0, 0
0, 0
0, 0
0, 0
0, 0
0, 0
0, 0
0, 0
0, 0
0, 0
0, 0
0, 0
0, 0
0, 0
0, 0
0, 0
1, 0
0, 0
0, 0
0, 0
0, 1
0, 0
0, 0
0, 0
0, 0
0, 0
0, 0
0, 0
0, 0
0, 0
0, 0
0, 0
0, 0
0, 0
0, 0
0, 0
0, 0
0, 0
0, 0
0, 0
0, 0
0, 0
0, 0
0, 0
0, 0
0, 0
0, 0
0, 0
0, 0
0, 0
0, 0
0, 0
0, 0
0, 0
0, 0
0, 0
0, 0
0, 0
0, 0
0, 0
0, 0
0, 0
0, 0
0, 0
0, 0
0, 0
0, 0
0, 0
0, 0
0, 0
0, 0
0, 0
0, 0
0, 0
0, 0
0, 0
0, 0
0, 0
0, 0
0, 0
0, 0
0, 0
0, 0
0, 0
0, 0
0, 0
0, 0
0, 0
0, 0
0, 0
0, 0
0, 0
0, 0
0, 0
0, 0
0, 0
0, 0
0, 0
0, 0
0, 0
0, 0
0, 0
0, 0
0, 0
0, 0
0, 0
0, 0
0, 0
0, 0
0, 0
0, 0
0, 0
0, 0
0, 0
0, 0
0, 0
0, 0
0, 0
0, 0
0, 0
0, 0
0, 0
0, 0
0, 0
0, 0
0, 0
0, 0
0, 0
0, 0
0, 0
0, 0
0, 0
0, 0
0, 0
0, 0
0, 0
0, 0
0, 0
0, 0
0, 0
0, 0
0, 0
0, 0
0, 0
0, 0
0, 0
0, 0
0, 0
0, 0
0, 0
0, 0
0, 0
0, 0
0, 0
0, 0
0, 0
0, 0
0, 0
0, 0
0, 0
0, 0
0, 0
0, 0
0, 0
0, 0
0, 0
0, 0
0, 0
0, 0
0, 0
0, 0
0, 0
0, 0
0, 0
0, 0
0, 0
0, 0
0, 0
0, 0
0, 0
0, 0
0, 0
0, 0
0, 0
0, 0
0, 0
0, 0
0, 0
0, 0
0, 0
0, 0
0, 0
0, 0
0, 0
0, 0
0, 0
0, 0
0, 0
0, 0
0, 0
0, 0
0, 0
0, 0
0, 0
0, 0
0, 0
0, 0
0, 0
0, 0
0, 0
0, 0
0, 0
0, 0
0, 0
0, 0
0, 0
0, 0
0, 0
0, 0
0, 0
0, 0
0, 0
0, 0
0, 0
0, 0
0, 0
0, 0
0, 0
0, 0
0, 0
0, 0
0, 0
0, 0
0, 0
0, 0
0, 0
0, 0
0, 0
0, 0
0, 0
0, 0
0, 0
0, 0
0, 0
0, 0
0, 0
0, 0
0, 0
0, 0
0, 0
0, 0
0, 0
0, 0
0, 0
0, 0
0, 0
0, 0
0, 0
0, 0
0, 0
0, 0
0, 0
0, 0
0, 0
0, 0
0, 0
0, 0
0, 0
0, 0
0, 0
0, 0
0, 0
0, 0
0, 0
0, 0
0, 0
0, 0
0, 0
0, 0
0, 0
0, 0
0, 0
0, 0
0, 0
0, 0
0, 0
0, 0
0, 0
0, 0
0, 0
0, 0
0, 0
0, 0
0, 0
0, 0
0, 0
0, 0
0, 0
0, 0
0, 0
0, 0
0, 0
0, 0
0, 0
0, 0
0, 0
0, 0
0, 0
0, 0
0, 0
0, 0
0, 0
0, 0
0, 0
0, 0
0, 0
0, 0
0, 0
0, 0
0, 0
0, 0
0, 0
0, 0
0, 0
0, 0
0, 0
0, 0
0, 0
0, 0
0, 0
0, 0
0, 0
0, 0
0, 0
0, 0
0, 0
0, 0
0, 0
0, 0
0, 0
0, 0
0, 0
0, 0
0, 0
0, 0
0, 0
0, 0
0, 0
0, 0
0, 0
0, 0
0, 0
0, 0
0, 0
0, 0
0, 0
0, 0
0, 0
0, 0
0, 0
0, 0
0, 0
0, 0
0, 0
0, 0
0, 0
0, 0
0, 0
0, 0
0, 0
0, 0
0, 0
0, 0
0, 0
0, 0
0, 0
0, 0
0, 0
0, 0
0, 0
0, 0
0, 0
0, 0
0, 0
0, 0
0, 0
0, 0
0, 0
0, 0
0, 0
0, 0
0, 0
0, 0
0, 0
0, 0
0, 0
0, 0
0, 0
0, 0
0, 0
0, 0
0, 0
0, 0
0, 0
0, 0
0, 0
0, 0
0, 0
0, 0
0, 0
0, 0
0, 0
0, 0
0, 0
0, 0
0, 0
0, 0
0, 0
0, 0
0, 0
0, 0
0, 0
0, 0
0, 0
0, 0
0, 0
0, 0
0, 0
0, 0
0, 0
0, 0
0, 0
0, 0
0, 0
0, 0
0, 0
0, 0
0, 0
0, 0
0, 0
0, 0
0, 0
0, 0
0, 0
0, 0
0, 0
0, 0
0, 0
0, 0
0, 0
0, 0
#ENDOFDATA     end of spectrum data