File: host_upload/06-09-2024/ps_0852/dump3/ps__0852shot_2364.msa
#FORMAT      : EMSA/MAS spectral data file
#VERSION     : TC202v2.0 PIXL
#TITLE       : N/A
#DATE        :       Date in the format DD-MMM-YYYY, for example 07-JUL-2010
#TIME        :             The time of day at which the spectrum was recorded, in 24-hour format
#OWNER       : PIXL Flight Model       (PIXL will use this to indicate which instrument took the data.)
#NPOINTS     : 4096     Number of data points in the spectrum (This can be zero for configuration only files)
#NCOLUMNS    : 2     Number of data columns in the spectrum (This can be zero for configuration only files)
#XUNITS      : eV
#YUNITS      : COUNTS
#DATATYPE    : YY
#XPERCHAN    : 7.862, 7.881   eV per channel (separate by commas if more than one detector)
#OFFSET      : 18.5, -22.4         eV of first channel  (separate by commas if more than one detector
#SIGNALTYPE  : XRF
#YP_TEMP     : 2.396
#LIVETIME    : 8.53365, 8.55596   seconds (separate by commas if more than one detector)
#REALTIME    : 10, 10.0   seconds (separate by commas if more than one detector)
#SPECTRUM    : start of spectrum data
0, 0
0, 0
0, 0
0, 0
0, 0
0, 0
0, 0
0, 0
0, 0
0, 0
0, 0
0, 0
0, 0
0, 0
0, 0
0, 0
0, 0
0, 0
0, 0
0, 0
0, 0
0, 0
0, 0
0, 0
0, 0
0, 0
0, 0
0, 0
0, 0
0, 0
0, 0
0, 0
0, 0
0, 1
0, 0
0, 0
0, 2
1, 2
1, 3
2, 4
0, 5
0, 6
1, 9
2, 10
1, 7
2, 4
1, 5
3, 2
5, 12
7, 13
30, 22
33, 39
43, 70
77, 83
73, 93
81, 88
51, 70
55, 49
29, 23
18, 18
8, 7
8, 8
3, 4
3, 7
5, 9
4, 4
3, 7
8, 11
9, 32
54, 61
90, 111
174, 192
263, 299
338, 366
411, 479
440, 458
380, 427
310, 289
222, 209
114, 128
80, 69
52, 45
27, 17
12, 8
4, 8
4, 3
1, 1
3, 4
0, 3
2, 2
3, 1
0, 2
1, 0
1, 2
1, 2
2, 3
2, 3
3, 1
2, 2
3, 6
2, 2
1, 4
1, 4
6, 7
1, 3
2, 4
6, 8
5, 17
7, 37
16, 87
35, 141
47, 241
54, 357
57, 453
68, 558
93, 611
85, 558
96, 494
54, 356
43, 237
36, 142
26, 74
22, 56
19, 30
21, 23
24, 16
14, 11
13, 9
8, 6
8, 5
5, 6
7, 3
2, 3
2, 5
4, 1
2, 3
1, 2
0, 4
1, 5
1, 4
1, 1
0, 1
0, 0
2, 4
1, 3
0, 2
1, 2
4, 1
0, 3
1, 1
4, 4
5, 13
3, 8
9, 8
15, 6
12, 13
12, 18
24, 28
13, 16
8, 9
11, 9
5, 11
4, 8
9, 4
4, 4
5, 6
6, 12
3, 9
8, 20
4, 16
5, 17
8, 22
12, 23
15, 7
30, 8
31, 6
25, 7
20, 4
20, 6
16, 1
11, 7
14, 2
3, 7
6, 5
5, 6
2, 4
4, 4
4, 6
11, 9
13, 5
12, 3
4, 12
9, 11
10, 12
7, 11
13, 16
15, 14
12, 22
15, 29
8, 37
12, 43
15, 48
5, 51
6, 52
9, 53
9, 50
10, 38
3, 46
5, 24
7, 12
4, 16
6, 11
5, 7
5, 6
7, 8
7, 11
8, 7
2, 5
10, 9
4, 6
5, 7
3, 7
6, 9
10, 13
7, 14
7, 10
9, 11
9, 5
11, 9
15, 15
12, 12
17, 14
19, 12
19, 8
17, 4
20, 9
24, 11
31, 4
28, 8
24, 11
15, 7
19, 3
12, 11
18, 9
16, 17
19, 19
28, 27
33, 48
30, 44
45, 61
51, 64
64, 56
56, 53
37, 47
36, 37
39, 40
20, 22
14, 38
22, 25
16, 25
15, 31
23, 37
52, 71
71, 117
142, 196
269, 357
457, 633
765, 1037
1079, 1435
1517, 1904
1861, 2389
2291, 2586
2375, 2606
2259, 2459
2126, 2164
1707, 1729
1211, 1250
899, 819
571, 586
353, 311
176, 186
104, 96
61, 59
27, 42
20, 38
16, 32
28, 22
26, 19
23, 27
38, 28
35, 29
52, 47
54, 66
80, 100
122, 139
151, 177
205, 254
264, 330
290, 366
358, 377
354, 366
351, 322
315, 275
246, 242
178, 138
124, 120
92, 66
47, 37
32, 16
17, 18
8, 9
4, 6
10, 12
7, 6
3, 7
5, 14
11, 17
13, 16
22, 25
17, 9
12, 19
4, 10
8, 8
2, 9
6, 6
6, 9
4, 6
8, 2
3, 6
1, 6
1, 5
4, 3
1, 2
5, 8
5, 9
7, 10
4, 6
3, 9
5, 11
9, 7
2, 9
8, 6
12, 6
15, 4
17, 5
22, 7
18, 7
14, 5
33, 4
18, 8
35, 9
43, 6
30, 11
35, 5
15, 8
28, 3
22, 6
17, 4
10, 7
6, 4
8, 6
4, 2
2, 5
5, 3
10, 3
7, 8
5, 4
4, 8
3, 2
2, 5
1, 3
5, 2
3, 1
4, 3
2, 4
4, 6
2, 7
2, 3
6, 4
5, 5
6, 5
4, 5
3, 5
5, 8
5, 6
1, 6
5, 7
2, 4
4, 7
3, 6
1, 3
7, 4
2, 3
6, 6
3, 4
3, 4
2, 6
3, 5
4, 7
5, 4
1, 5
3, 7
2, 5
6, 6
4, 7
1, 2
1, 4
4, 3
3, 4
0, 2
1, 5
4, 4
3, 2
3, 3
0, 3
1, 6
2, 1
2, 2
4, 4
3, 5
6, 6
4, 2
0, 3
5, 2
2, 4
4, 2
0, 6
4, 5
3, 8
2, 6
2, 4
0, 3
4, 4
1, 6
2, 6
4, 4
2, 7
3, 2
0, 2
1, 4
4, 6
3, 3
2, 1
5, 3
3, 2
7, 5
0, 1
4, 5
0, 1
3, 1
3, 3
1, 2
5, 1
4, 6
6, 3
4, 3
2, 6
2, 4
0, 12
5, 6
3, 4
4, 6
5, 5
2, 5
1, 8
5, 3
1, 4
1, 3
8, 4
1, 2
2, 2
2, 1
1, 3
1, 3
8, 0
1, 2
4, 1
4, 2
4, 4
1, 5
5, 3
1, 2
4, 2
2, 2
1, 2
1, 2
4, 0
3, 3
0, 4
1, 3
3, 2
1, 4
5, 1
5, 4
1, 1
1, 1
2, 1
1, 3
1, 2
2, 4
3, 4
2, 1
1, 1
2, 0
2, 2
4, 1
0, 1
0, 2
0, 3
0, 2
1, 3
3, 7
2, 1
1, 1
1, 2
1, 2
2, 2
3, 1
2, 1
2, 2
0, 4
3, 1
1, 3
4, 2
0, 1
1, 2
3, 4
1, 1
0, 3
1, 3
3, 1
3, 2
4, 1
4, 3
2, 4
2, 4
3, 1
4, 4
4, 5
5, 3
1, 3
3, 6
6, 5
6, 5
6, 6
3, 5
1, 4
4, 2
3, 3
3, 3
3, 1
4, 3
0, 1
1, 4
1, 6
3, 1
1, 2
0, 4
3, 2
1, 1
4, 3
3, 1
0, 2
2, 1
3, 5
2, 0
4, 1
2, 3
1, 2
3, 1
2, 3
0, 1
3, 0
1, 4
2, 1
3, 0
1, 0
1, 3
2, 0
3, 2
2, 0
2, 0
0, 3
2, 1
1, 3
1, 1
0, 0
2, 2
0, 0
0, 1
1, 0
0, 1
1, 0
0, 0
0, 0
1, 3
0, 0
0, 3
5, 2
0, 0
2, 1
1, 1
2, 3
4, 1
3, 3
2, 1
2, 0
2, 0
0, 1
0, 1
1, 0
1, 1
0, 1
2, 4
1, 2
3, 0
0, 2
2, 0
0, 0
1, 2
2, 0
1, 0
1, 0
0, 0
3, 2
0, 1
1, 1
1, 2
1, 1
0, 2
1, 0
2, 2
0, 0
1, 0
0, 2
1, 1
1, 0
0, 1
0, 1
2, 2
2, 0
1, 0
1, 3
0, 0
0, 1
1, 1
0, 1
0, 0
0, 0
2, 0
0, 0
1, 1
2, 1
0, 0
0, 0
0, 1
1, 0
1, 1
1, 1
0, 1
0, 0
1, 1
1, 0
0, 1
1, 2
1, 0
1, 0
1, 1
2, 0
1, 0
0, 2
1, 1
1, 1
1, 1
1, 0
0, 0
0, 1
0, 0
0, 2
0, 1
0, 1
0, 1
0, 1
0, 1
1, 0
1, 1
2, 0
0, 0
0, 0
0, 0
0, 0
0, 0
0, 1
1, 0
0, 1
1, 1
1, 1
0, 1
0, 1
0, 0
0, 0
1, 0
0, 0
1, 1
0, 0
0, 1
1, 0
0, 0
1, 1
0, 0
0, 0
0, 1
1, 1
1, 2
0, 0
1, 0
0, 0
1, 1
0, 0
0, 1
1, 0
2, 0
1, 3
0, 0
2, 0
0, 0
0, 1
0, 0
0, 0
0, 1
0, 1
1, 1
1, 0
0, 0
0, 0
0, 0
1, 0
1, 1
0, 1
0, 0
0, 0
0, 0
0, 0
1, 1
0, 0
0, 1
0, 0
1, 2
0, 0
0, 0
0, 0
0, 0
0, 0
0, 1
0, 0
0, 0
0, 0
0, 0
0, 0
0, 0
0, 0
0, 0
0, 0
0, 0
2, 0
0, 0
0, 0
0, 1
0, 1
0, 0
0, 0
0, 0
0, 1
0, 0
0, 0
1, 0
0, 1
0, 1
0, 1
0, 0
0, 0
0, 1
0, 0
0, 0
0, 0
0, 1
0, 1
0, 0
1, 0
0, 0
0, 1
0, 0
0, 1
0, 0
0, 0
0, 0
0, 1
0, 1
0, 0
0, 0
0, 0
0, 0
0, 0
0, 2
0, 0
0, 0
2, 1
0, 0
0, 0
1, 0
0, 0
0, 0
0, 0
0, 0
0, 0
0, 1
0, 0
0, 0
0, 0
0, 1
0, 0
0, 0
0, 0
0, 0
0, 0
0, 0
0, 0
0, 0
1, 0
1, 0
0, 0
0, 0
0, 0
0, 0
0, 0
0, 0
0, 0
0, 0
0, 0
1, 0
0, 0
1, 0
0, 1
0, 0
0, 0
0, 0
0, 0
0, 0
1, 1
0, 0
0, 0
0, 1
0, 0
0, 0
1, 0
0, 0
0, 1
0, 0
0, 0
0, 0
0, 0
0, 0
0, 0
0, 0
0, 0
0, 0
0, 0
0, 1
0, 0
0, 0
0, 1
0, 0
0, 0
0, 0
0, 0
0, 0
0, 0
1, 0
0, 0
0, 0
0, 0
0, 0
0, 0
0, 0
0, 0
0, 0
0, 0
0, 0
0, 0
0, 0
0, 0
0, 0
0, 0
0, 0
0, 0
0, 0
0, 0
0, 0
0, 0
0, 0
0, 0
0, 0
0, 0
0, 0
0, 1
0, 0
0, 0
0, 0
0, 0
0, 0
0, 0
0, 0
0, 0
0, 0
0, 0
0, 0
0, 0
0, 0
0, 0
0, 0
0, 0
0, 0
0, 0
0, 0
0, 0
0, 0
0, 0
0, 0
0, 0
0, 1
0, 0
0, 0
0, 0
0, 0
0, 0
0, 0
0, 0
0, 0
0, 0
0, 0
0, 0
0, 0
0, 0
0, 0
0, 0
0, 0
0, 0
0, 0
0, 0
0, 0
0, 0
0, 0
0, 0
0, 0
0, 0
0, 0
0, 0
0, 0
0, 0
0, 1
0, 0
0, 0
0, 0
0, 0
0, 0
0, 0
0, 0
0, 0
1, 0
0, 0
0, 0
0, 0
0, 0
0, 0
0, 0
0, 0
0, 0
0, 0
0, 0
0, 0
0, 0
0, 0
0, 0
0, 0
0, 0
0, 0
0, 0
0, 0
0, 0
0, 0
0, 0
0, 0
0, 0
0, 0
0, 0
0, 0
0, 0
0, 0
0, 0
0, 0
0, 0
0, 0
0, 0
0, 0
0, 0
0, 0
0, 0
0, 0
0, 0
0, 0
0, 0
0, 0
0, 0
0, 0
0, 0
0, 0
0, 0
0, 0
0, 0
0, 0
0, 0
0, 0
0, 0
0, 0
0, 0
0, 0
0, 0
0, 0
0, 0
0, 0
0, 0
0, 0
0, 0
0, 0
0, 0
0, 0
0, 0
0, 0
0, 0
0, 0
0, 0
0, 0
0, 0
0, 0
0, 0
0, 0
0, 0
0, 0
0, 0
0, 0
0, 0
0, 0
0, 0
0, 0
0, 0
0, 0
0, 0
0, 0
0, 0
0, 0
0, 0
0, 0
0, 0
0, 0
0, 0
0, 0
0, 0
0, 0
0, 0
0, 0
0, 0
0, 0
0, 0
0, 0
0, 0
0, 0
0, 0
0, 0
0, 0
0, 0
0, 0
0, 0
0, 0
0, 0
0, 0
0, 0
0, 0
0, 0
0, 0
0, 0
0, 0
0, 0
0, 0
0, 0
0, 0
0, 0
0, 0
0, 0
0, 0
0, 0
0, 0
0, 0
0, 0
0, 0
0, 0
0, 0
0, 0
0, 0
0, 0
0, 0
0, 0
0, 0
0, 0
0, 0
0, 0
0, 0
0, 0
0, 0
0, 0
0, 0
0, 0
0, 0
0, 0
0, 0
0, 0
0, 0
0, 0
0, 0
0, 0
0, 0
0, 0
0, 0
0, 0
0, 0
0, 0
0, 0
0, 0
0, 0
0, 0
0, 0
0, 0
0, 0
0, 0
0, 0
0, 0
0, 0
0, 0
0, 0
0, 0
0, 0
0, 0
0, 0
0, 0
0, 0
0, 0
0, 0
0, 0
0, 0
0, 0
0, 0
0, 0
0, 0
0, 0
0, 0
0, 0
0, 0
0, 0
0, 0
0, 0
0, 0
0, 0
0, 0
0, 0
0, 0
0, 0
0, 0
0, 0
0, 0
0, 0
0, 0
0, 0
0, 0
0, 0
0, 0
0, 0
0, 0
0, 0
0, 0
0, 0
0, 0
0, 0
0, 0
0, 0
0, 0
0, 0
0, 0
0, 0
0, 0
0, 0
0, 0
0, 0
0, 0
0, 0
0, 0
0, 0
0, 0
0, 0
0, 0
0, 0
0, 0
0, 0
0, 0
0, 0
0, 0
0, 0
0, 0
0, 0
0, 0
0, 0
0, 0
0, 0
0, 0
0, 0
0, 0
0, 0
0, 0
0, 0
0, 0
0, 0
0, 0
0, 0
0, 0
0, 0
0, 0
0, 0
0, 0
0, 0
0, 0
0, 0
0, 0
0, 0
0, 0
0, 0
0, 0
0, 0
0, 0
0, 0
0, 0
0, 0
0, 0
0, 0
0, 0
0, 0
0, 0
0, 0
0, 0
0, 0
0, 0
0, 0
0, 0
0, 0
0, 0
0, 0
0, 0
0, 0
0, 0
0, 0
0, 0
0, 0
0, 0
0, 0
0, 0
0, 0
0, 0
0, 0
0, 0
0, 0
0, 0
0, 0
0, 0
0, 0
0, 0
0, 0
0, 0
0, 0
0, 0
0, 0
0, 0
0, 0
0, 0
0, 0
0, 0
0, 0
0, 0
0, 0
0, 0
0, 0
0, 0
0, 0
0, 0
0, 0
0, 0
0, 0
0, 0
0, 0
0, 0
0, 0
0, 0
0, 0
0, 0
0, 0
0, 0
0, 0
0, 0
0, 0
0, 0
0, 0
0, 0
0, 0
0, 0
0, 0
0, 0
0, 0
0, 0
0, 0
0, 0
0, 0
0, 0
0, 0
0, 0
0, 0
0, 0
0, 0
0, 0
0, 0
0, 0
0, 0
0, 0
0, 0
0, 0
0, 0
0, 0
0, 0
0, 0
0, 0
0, 0
0, 0
0, 0
0, 0
0, 0
0, 0
0, 0
0, 0
0, 0
0, 0
0, 0
0, 0
0, 0
0, 0
0, 0
0, 0
0, 0
0, 0
0, 0
0, 0
0, 0
#ENDOFDATA     end of spectrum data