File: host_upload/06-09-2024/ps_0852/dump3/ps__0852shot_2113.msa
#FORMAT      : EMSA/MAS spectral data file
#VERSION     : TC202v2.0 PIXL
#TITLE       : N/A
#DATE        :       Date in the format DD-MMM-YYYY, for example 07-JUL-2010
#TIME        :             The time of day at which the spectrum was recorded, in 24-hour format
#OWNER       : PIXL Flight Model       (PIXL will use this to indicate which instrument took the data.)
#NPOINTS     : 4096     Number of data points in the spectrum (This can be zero for configuration only files)
#NCOLUMNS    : 2     Number of data columns in the spectrum (This can be zero for configuration only files)
#XUNITS      : eV
#YUNITS      : COUNTS
#DATATYPE    : YY
#XPERCHAN    : 7.862, 7.881   eV per channel (separate by commas if more than one detector)
#OFFSET      : 18.5, -22.4         eV of first channel  (separate by commas if more than one detector
#SIGNALTYPE  : XRF
#YP_TEMP     : 2.364
#LIVETIME    : 8.55634, 8.55336   seconds (separate by commas if more than one detector)
#REALTIME    : 10, 10.0   seconds (separate by commas if more than one detector)
#SPECTRUM    : start of spectrum data
0, 0
0, 0
0, 0
0, 0
0, 0
0, 0
0, 0
0, 0
0, 0
0, 0
0, 0
0, 0
0, 0
0, 0
0, 0
0, 0
0, 0
0, 0
0, 0
0, 0
0, 0
0, 0
0, 0
0, 0
0, 0
0, 0
0, 0
0, 0
0, 0
0, 1
0, 0
0, 1
0, 2
0, 2
0, 0
0, 3
2, 4
1, 1
0, 0
1, 2
4, 0
0, 3
1, 4
2, 3
2, 2
3, 2
0, 0
2, 4
3, 5
6, 10
17, 13
27, 24
34, 28
49, 51
62, 52
53, 48
42, 39
27, 34
22, 14
14, 9
7, 3
8, 6
2, 5
1, 6
7, 7
4, 4
6, 5
6, 12
18, 24
40, 38
78, 60
143, 142
212, 192
274, 271
351, 319
348, 311
311, 266
255, 198
170, 125
107, 107
61, 44
38, 38
21, 14
12, 8
7, 9
5, 6
5, 6
7, 6
1, 1
2, 4
4, 7
5, 10
17, 20
41, 46
75, 79
126, 118
175, 210
229, 273
264, 269
266, 298
197, 217
183, 189
125, 196
111, 149
60, 165
51, 164
28, 197
32, 197
27, 185
26, 181
36, 118
55, 122
49, 95
66, 93
57, 88
58, 55
41, 72
34, 56
23, 34
32, 40
28, 36
22, 29
20, 10
14, 23
12, 24
15, 11
21, 13
15, 12
18, 13
8, 8
5, 6
6, 4
4, 5
5, 2
2, 2
2, 4
3, 6
4, 10
4, 3
8, 5
1, 9
0, 4
7, 4
5, 6
4, 5
3, 3
3, 5
4, 1
5, 7
3, 3
9, 12
15, 21
34, 39
57, 57
81, 71
135, 107
130, 163
165, 172
136, 157
130, 136
100, 92
70, 75
51, 45
34, 30
22, 16
15, 8
15, 10
14, 11
13, 17
13, 27
17, 33
22, 18
20, 26
16, 19
17, 17
19, 7
11, 10
12, 7
5, 2
9, 3
4, 1
4, 1
2, 5
1, 0
3, 0
5, 3
5, 9
5, 8
10, 7
13, 15
16, 10
9, 14
12, 18
20, 15
25, 18
28, 16
27, 17
25, 21
26, 18
37, 17
19, 15
15, 10
11, 12
12, 9
7, 5
3, 9
5, 15
6, 24
7, 37
7, 39
2, 58
6, 70
6, 77
6, 93
9, 81
7, 88
9, 69
7, 40
10, 21
6, 25
5, 16
6, 12
8, 8
7, 9
9, 17
11, 21
13, 19
11, 28
19, 35
14, 43
18, 37
21, 39
19, 50
16, 32
14, 24
15, 15
6, 11
10, 15
5, 10
9, 5
7, 7
9, 6
3, 7
13, 12
8, 16
20, 29
20, 25
33, 40
58, 52
61, 61
60, 52
58, 57
69, 56
50, 49
48, 37
24, 31
42, 21
29, 16
18, 13
14, 21
19, 14
16, 41
39, 53
68, 90
157, 187
259, 311
440, 532
760, 883
1148, 1229
1468, 1585
1871, 2024
2254, 2173
2364, 2242
2290, 2070
2080, 1860
1596, 1463
1302, 1115
880, 678
588, 411
368, 231
207, 123
99, 63
56, 41
26, 17
15, 21
7, 15
14, 15
10, 12
18, 19
16, 23
25, 33
30, 26
45, 53
63, 82
85, 112
135, 156
201, 198
261, 280
288, 295
369, 336
343, 344
332, 299
264, 273
260, 207
178, 139
119, 121
94, 54
47, 40
42, 22
26, 13
10, 10
4, 10
7, 2
10, 7
9, 7
9, 8
13, 13
17, 14
13, 14
9, 9
9, 11
11, 15
9, 5
5, 9
6, 9
5, 7
4, 6
3, 6
4, 12
5, 4
3, 11
7, 12
1, 13
4, 20
4, 16
7, 21
5, 11
5, 21
3, 31
4, 18
6, 11
4, 14
4, 13
8, 6
3, 4
7, 4
6, 5
5, 3
6, 4
5, 4
7, 7
10, 5
7, 5
5, 1
6, 5
5, 3
4, 3
6, 1
4, 3
10, 3
6, 4
8, 6
2, 3
3, 1
7, 3
6, 3
8, 5
11, 5
7, 4
10, 5
12, 2
9, 4
5, 3
5, 4
6, 6
2, 4
8, 5
2, 7
2, 1
4, 6
3, 2
3, 4
2, 1
3, 2
5, 4
2, 6
5, 5
4, 4
3, 11
8, 5
5, 4
4, 7
4, 6
8, 5
8, 3
6, 7
6, 2
5, 8
2, 2
3, 6
2, 2
2, 2
2, 3
4, 1
5, 5
1, 2
5, 5
3, 5
4, 4
2, 5
4, 3
2, 1
5, 4
4, 5
1, 2
5, 3
6, 4
4, 2
4, 2
5, 1
4, 2
2, 5
5, 4
7, 3
3, 3
6, 6
7, 6
6, 3
6, 2
6, 6
3, 5
5, 4
6, 3
3, 5
8, 4
5, 3
9, 4
6, 1
9, 0
9, 4
4, 3
7, 1
8, 2
7, 2
9, 2
9, 6
9, 1
6, 0
7, 0
6, 1
2, 2
2, 3
7, 3
4, 3
4, 1
3, 1
4, 3
3, 2
2, 6
4, 2
1, 3
4, 6
7, 2
1, 1
3, 3
2, 4
2, 2
3, 1
3, 2
4, 2
0, 2
5, 1
1, 2
1, 1
3, 2
1, 1
6, 2
1, 0
3, 2
4, 1
1, 3
4, 2
3, 0
6, 4
1, 3
3, 2
4, 2
1, 3
2, 2
0, 3
1, 3
2, 5
0, 1
1, 1
1, 3
3, 1
0, 0
3, 2
2, 0
2, 3
1, 0
0, 1
1, 1
1, 1
3, 1
1, 1
4, 2
2, 0
3, 4
4, 2
1, 1
5, 8
1, 2
0, 1
1, 4
1, 0
2, 0
2, 2
0, 0
1, 2
3, 1
2, 1
0, 1
2, 2
1, 2
3, 2
0, 1
0, 0
3, 5
1, 1
0, 1
1, 1
0, 2
1, 4
3, 2
2, 3
4, 1
3, 2
6, 3
3, 4
5, 0
1, 2
2, 0
4, 6
4, 2
5, 1
3, 4
4, 6
4, 3
1, 1
3, 3
1, 1
1, 1
0, 1
1, 3
1, 2
3, 3
1, 1
2, 2
0, 0
2, 4
0, 0
0, 2
3, 3
5, 2
0, 2
2, 3
2, 2
3, 1
2, 2
1, 1
2, 1
1, 3
1, 1
5, 3
0, 2
0, 1
1, 0
1, 1
0, 5
0, 2
3, 2
1, 0
2, 0
0, 1
2, 0
0, 2
1, 2
1, 2
2, 2
1, 0
2, 2
1, 1
0, 0
3, 1
2, 0
1, 0
3, 1
1, 2
2, 1
1, 0
3, 1
0, 2
0, 2
1, 2
1, 2
4, 1
5, 0
1, 2
1, 1
1, 0
1, 1
0, 1
1, 0
1, 2
2, 1
1, 1
3, 4
1, 1
3, 0
0, 0
0, 0
0, 3
3, 0
1, 1
0, 1
1, 0
0, 1
1, 1
2, 1
1, 1
0, 2
1, 1
1, 1
1, 0
0, 3
2, 4
0, 0
0, 1
2, 0
1, 0
1, 1
0, 1
0, 0
1, 0
0, 0
0, 0
0, 0
0, 0
0, 0
0, 1
1, 0
0, 3
0, 1
1, 1
0, 0
1, 0
0, 1
0, 1
0, 1
1, 1
0, 1
2, 3
1, 0
1, 0
0, 1
0, 1
1, 1
0, 0
2, 0
0, 1
0, 3
2, 2
1, 2
2, 0
0, 0
0, 0
2, 3
0, 0
1, 1
1, 0
1, 0
1, 0
0, 2
1, 1
2, 0
0, 0
0, 1
0, 1
0, 1
0, 1
0, 0
0, 0
0, 0
2, 1
0, 1
0, 1
2, 0
0, 0
0, 0
3, 1
0, 0
0, 0
0, 0
0, 0
4, 0
0, 0
1, 1
0, 1
1, 0
0, 0
0, 0
0, 0
0, 0
0, 1
0, 2
0, 0
1, 0
2, 0
2, 1
0, 0
0, 0
0, 2
0, 1
0, 0
1, 0
0, 3
0, 0
0, 0
0, 0
0, 0
0, 1
0, 0
0, 0
1, 1
0, 0
0, 0
0, 1
0, 0
2, 0
0, 0
0, 0
0, 0
0, 0
0, 0
1, 0
0, 0
0, 1
2, 0
0, 1
0, 1
1, 3
0, 1
0, 1
1, 0
0, 0
0, 0
1, 1
0, 0
0, 0
0, 0
1, 0
0, 0
1, 1
0, 0
0, 0
0, 0
0, 1
0, 0
0, 0
0, 0
0, 1
2, 0
0, 1
0, 0
0, 0
0, 0
0, 1
0, 0
0, 0
0, 0
0, 0
0, 0
0, 0
1, 1
0, 0
0, 0
1, 0
0, 1
1, 1
0, 1
2, 0
0, 1
0, 0
0, 2
0, 0
0, 0
1, 1
0, 0
1, 1
1, 1
1, 0
1, 0
0, 1
0, 1
0, 0
0, 0
0, 1
0, 0
0, 0
0, 0
0, 0
0, 0
0, 0
0, 0
0, 0
0, 0
0, 0
1, 0
0, 0
0, 0
0, 0
0, 0
1, 0
0, 0
0, 0
0, 0
0, 0
0, 0
0, 0
0, 0
0, 0
0, 0
0, 0
0, 0
0, 0
0, 0
0, 0
0, 0
0, 0
0, 0
0, 0
0, 0
0, 2
0, 1
0, 0
0, 0
0, 0
0, 0
0, 0
0, 0
1, 0
0, 0
0, 0
0, 0
1, 1
0, 0
1, 0
0, 0
1, 0
1, 0
2, 0
0, 0
0, 0
0, 0
0, 0
0, 0
0, 0
0, 0
1, 0
0, 0
0, 0
0, 0
0, 0
0, 0
0, 1
0, 0
0, 0
0, 0
0, 0
0, 0
0, 0
0, 0
0, 0
0, 0
0, 0
0, 0
0, 0
0, 0
0, 0
0, 0
0, 0
0, 1
1, 0
0, 0
1, 0
1, 0
0, 0
0, 0
0, 0
0, 0
0, 0
0, 0
0, 0
0, 0
1, 0
0, 0
0, 0
0, 0
0, 0
0, 0
0, 0
0, 0
0, 0
0, 0
1, 0
0, 0
0, 0
0, 0
0, 0
0, 0
0, 1
0, 0
0, 0
0, 0
0, 0
0, 0
0, 0
0, 0
0, 0
0, 0
0, 0
0, 0
0, 0
0, 0
0, 0
1, 0
0, 0
0, 0
0, 0
0, 0
0, 0
0, 0
0, 0
0, 0
0, 0
0, 0
0, 0
0, 0
0, 0
0, 0
0, 0
0, 0
0, 0
0, 1
1, 0
0, 0
0, 0
0, 0
0, 0
0, 0
0, 0
0, 0
0, 0
0, 0
0, 0
0, 0
0, 0
0, 0
0, 0
0, 0
0, 0
0, 0
0, 0
0, 0
0, 0
0, 0
0, 0
0, 0
0, 0
0, 0
0, 0
0, 0
0, 0
0, 0
0, 0
0, 0
0, 0
0, 0
0, 0
0, 0
0, 0
0, 0
0, 0
0, 0
0, 0
1, 0
0, 0
0, 0
0, 0
0, 0
0, 0
0, 0
0, 0
0, 0
0, 0
0, 0
0, 0
0, 0
0, 0
0, 0
1, 0
0, 0
0, 0
0, 0
0, 0
0, 0
0, 0
0, 0
0, 0
0, 0
0, 0
0, 0
0, 0
0, 0
0, 0
0, 0
0, 0
0, 0
0, 0
0, 0
0, 0
0, 0
0, 0
0, 0
0, 0
0, 0
0, 0
0, 0
0, 0
0, 0
0, 0
0, 0
0, 0
0, 0
0, 0
0, 0
0, 0
0, 0
0, 0
0, 0
0, 0
0, 0
0, 0
0, 0
0, 0
0, 0
0, 0
0, 0
0, 0
0, 0
0, 0
0, 0
0, 0
0, 0
0, 0
0, 0
0, 0
0, 0
0, 0
0, 0
0, 0
0, 0
0, 0
0, 0
0, 0
0, 0
1, 0
0, 0
0, 0
0, 0
0, 0
0, 0
0, 0
0, 0
0, 0
0, 0
0, 0
0, 0
0, 0
0, 0
0, 0
0, 0
0, 0
0, 0
0, 0
0, 0
0, 0
0, 0
0, 0
0, 0
0, 0
0, 0
0, 0
0, 0
0, 0
0, 0
0, 0
0, 0
0, 0
0, 0
0, 0
0, 0
0, 0
0, 0
0, 0
0, 0
0, 0
0, 0
0, 0
0, 0
0, 0
0, 0
0, 0
0, 0
0, 0
0, 0
0, 0
0, 0
0, 0
0, 0
0, 0
0, 0
0, 0
0, 0
0, 0
0, 0
0, 0
0, 0
0, 0
0, 0
0, 0
0, 0
0, 0
0, 0
0, 0
0, 0
0, 0
0, 0
0, 0
0, 0
0, 0
0, 0
0, 0
0, 0
0, 0
0, 0
0, 0
0, 0
0, 0
0, 0
0, 0
0, 0
0, 0
0, 0
0, 0
0, 0
0, 0
0, 0
0, 0
0, 0
0, 0
0, 0
0, 0
0, 0
0, 0
0, 0
0, 0
0, 0
0, 0
0, 0
0, 0
0, 0
0, 0
0, 0
0, 0
0, 0
0, 0
0, 0
0, 0
0, 0
0, 0
0, 0
0, 0
0, 0
0, 0
0, 0
0, 0
0, 0
0, 0
0, 0
0, 0
0, 0
0, 0
0, 0
0, 0
0, 0
0, 0
0, 0
0, 0
0, 0
0, 0
0, 0
0, 0
0, 0
0, 0
0, 0
0, 0
0, 0
0, 0
0, 0
0, 0
0, 0
0, 0
0, 0
0, 0
0, 0
0, 0
0, 0
0, 0
0, 0
0, 0
0, 0
0, 0
0, 0
0, 0
0, 0
0, 0
0, 0
0, 0
0, 0
0, 0
0, 0
0, 0
0, 0
0, 0
0, 0
0, 0
0, 0
0, 0
0, 0
0, 0
0, 0
0, 0
0, 0
0, 0
0, 0
0, 0
0, 0
0, 0
0, 0
0, 0
0, 0
0, 0
0, 0
0, 0
0, 0
0, 0
0, 0
0, 0
0, 0
0, 0
0, 0
0, 0
0, 0
0, 0
0, 0
0, 0
0, 0
0, 0
0, 0
0, 0
0, 0
0, 0
0, 0
0, 0
0, 0
0, 0
0, 0
0, 0
0, 0
0, 0
0, 0
0, 0
0, 0
0, 0
0, 0
0, 0
0, 0
0, 0
0, 0
0, 0
0, 0
0, 0
0, 0
0, 0
0, 0
0, 0
0, 0
0, 0
0, 0
0, 0
0, 0
0, 0
0, 0
0, 0
0, 0
0, 0
0, 0
0, 0
0, 0
0, 0
0, 0
0, 0
0, 0
0, 0
0, 0
0, 0
0, 0
0, 0
0, 0
0, 0
0, 0
0, 0
0, 0
0, 0
0, 0
0, 0
0, 0
0, 0
0, 0
0, 0
0, 0
0, 0
0, 0
0, 0
0, 0
0, 0
0, 0
0, 0
0, 0
0, 0
0, 0
0, 0
0, 0
0, 0
0, 0
0, 0
0, 0
0, 0
0, 0
0, 0
0, 0
0, 0
0, 0
0, 0
#ENDOFDATA     end of spectrum data