File: host_upload/06-09-2024/ps_0852/dump3/ps__0852shot_2348.msa
#FORMAT      : EMSA/MAS spectral data file
#VERSION     : TC202v2.0 PIXL
#TITLE       : N/A
#DATE        :       Date in the format DD-MMM-YYYY, for example 07-JUL-2010
#TIME        :             The time of day at which the spectrum was recorded, in 24-hour format
#OWNER       : PIXL Flight Model       (PIXL will use this to indicate which instrument took the data.)
#NPOINTS     : 4096     Number of data points in the spectrum (This can be zero for configuration only files)
#NCOLUMNS    : 2     Number of data columns in the spectrum (This can be zero for configuration only files)
#XUNITS      : eV
#YUNITS      : COUNTS
#DATATYPE    : YY
#XPERCHAN    : 7.862, 7.881   eV per channel (separate by commas if more than one detector)
#OFFSET      : 18.5, -22.4         eV of first channel  (separate by commas if more than one detector
#SIGNALTYPE  : XRF
#YP_TEMP     : 2.46
#LIVETIME    : 8.55963, 8.56994   seconds (separate by commas if more than one detector)
#REALTIME    : 10, 10.0   seconds (separate by commas if more than one detector)
#SPECTRUM    : start of spectrum data
0, 0
0, 0
0, 0
0, 0
0, 0
0, 0
0, 0
0, 0
0, 0
0, 0
0, 0
0, 0
0, 0
0, 0
0, 0
0, 0
0, 0
0, 0
0, 0
0, 0
0, 0
0, 0
0, 0
0, 0
0, 0
0, 0
0, 0
0, 0
0, 0
0, 0
0, 0
0, 0
1, 0
0, 0
0, 0
0, 0
1, 0
0, 1
0, 1
0, 1
0, 1
2, 0
1, 2
2, 0
0, 3
2, 1
2, 1
4, 2
7, 13
7, 14
34, 24
40, 41
67, 57
81, 72
72, 84
83, 69
65, 58
56, 40
36, 16
18, 12
10, 6
4, 5
3, 1
2, 2
0, 2
2, 8
5, 7
8, 10
31, 23
42, 47
83, 90
166, 175
255, 262
388, 389
456, 410
397, 400
334, 385
296, 289
197, 196
137, 122
58, 64
37, 45
21, 16
7, 9
4, 5
2, 4
0, 0
1, 0
0, 0
2, 1
3, 3
1, 1
2, 2
2, 4
6, 4
4, 6
10, 11
20, 12
15, 16
22, 18
15, 15
12, 9
13, 10
6, 6
2, 4
9, 6
5, 10
3, 4
7, 9
12, 8
13, 11
19, 15
26, 20
32, 26
43, 30
40, 35
39, 30
26, 25
26, 23
31, 18
28, 19
14, 14
15, 14
16, 8
20, 17
17, 9
9, 6
12, 10
10, 4
7, 5
3, 5
5, 7
2, 1
1, 3
1, 3
2, 5
2, 0
2, 2
1, 0
3, 3
3, 1
2, 6
0, 2
3, 1
5, 1
4, 0
5, 1
4, 3
7, 2
2, 0
7, 2
6, 1
3, 3
2, 11
8, 12
8, 13
16, 22
12, 14
20, 10
20, 14
10, 16
5, 7
4, 8
1, 9
5, 12
1, 14
4, 9
3, 7
4, 12
6, 7
6, 5
8, 8
6, 2
4, 2
7, 3
2, 5
5, 5
7, 4
7, 0
4, 1
2, 1
4, 2
3, 5
1, 5
1, 1
0, 3
4, 2
3, 4
6, 5
2, 5
12, 6
9, 3
7, 11
8, 6
14, 6
14, 9
6, 9
22, 7
12, 6
16, 17
12, 3
11, 10
6, 6
10, 8
9, 5
5, 5
8, 10
4, 5
4, 6
3, 5
9, 8
1, 11
2, 13
3, 13
4, 16
4, 16
4, 15
7, 8
5, 20
5, 10
5, 6
4, 8
9, 5
5, 6
8, 6
9, 9
8, 18
23, 11
31, 16
47, 21
62, 19
71, 12
77, 20
97, 16
75, 19
59, 12
63, 11
46, 6
33, 7
12, 6
13, 7
10, 5
12, 12
12, 11
19, 10
23, 19
23, 29
43, 43
59, 44
83, 51
103, 58
92, 61
97, 56
76, 47
49, 36
63, 35
47, 24
33, 14
30, 19
23, 10
28, 14
27, 31
46, 42
77, 73
129, 186
287, 324
482, 558
710, 897
1140, 1317
1571, 1626
1931, 2119
2284, 2285
2428, 2332
2474, 2118
2229, 1766
1670, 1461
1323, 1008
975, 663
626, 408
379, 216
192, 136
122, 59
61, 29
26, 12
18, 10
15, 16
20, 13
11, 16
17, 10
13, 21
34, 21
35, 47
48, 62
75, 80
135, 113
163, 156
201, 231
279, 296
340, 323
349, 367
368, 333
315, 288
295, 252
274, 222
175, 127
131, 93
90, 57
47, 35
27, 12
20, 11
8, 10
9, 7
9, 8
9, 10
15, 10
8, 14
13, 13
17, 12
13, 10
17, 9
9, 11
9, 6
5, 8
7, 5
5, 4
6, 8
4, 4
2, 10
7, 9
1, 3
3, 9
7, 8
3, 14
1, 13
3, 4
5, 6
7, 5
7, 11
10, 6
5, 7
9, 10
5, 3
6, 9
8, 8
8, 6
7, 4
5, 5
3, 3
0, 10
5, 3
4, 1
4, 10
6, 4
3, 3
8, 3
7, 2
8, 7
9, 3
7, 6
10, 4
8, 6
17, 4
16, 6
12, 5
12, 3
13, 5
7, 3
8, 4
13, 4
7, 8
4, 4
13, 3
9, 4
9, 4
16, 4
21, 2
15, 3
17, 7
20, 4
15, 10
16, 8
11, 6
13, 11
16, 14
14, 8
6, 6
10, 10
5, 9
5, 8
5, 7
2, 14
6, 6
5, 5
6, 8
5, 5
9, 6
6, 7
7, 6
3, 6
5, 2
6, 4
9, 5
9, 4
5, 5
5, 3
7, 6
6, 3
8, 6
7, 6
6, 4
10, 5
1, 7
5, 9
2, 3
1, 6
2, 5
5, 1
1, 7
0, 3
1, 4
3, 1
2, 11
2, 2
2, 1
1, 8
6, 3
3, 4
3, 4
3, 2
1, 1
1, 2
2, 3
6, 1
1, 1
2, 2
3, 5
1, 2
3, 2
2, 3
4, 2
3, 4
5, 1
1, 2
2, 2
3, 2
4, 6
1, 3
3, 0
4, 6
3, 2
1, 4
3, 4
2, 3
3, 2
1, 2
0, 0
3, 4
4, 5
3, 1
3, 3
3, 3
4, 0
6, 4
5, 3
3, 3
4, 4
2, 1
7, 0
8, 0
9, 2
8, 2
8, 2
5, 4
6, 2
2, 0
6, 4
4, 1
3, 2
3, 5
1, 1
2, 1
2, 2
1, 3
2, 1
1, 2
0, 2
1, 3
0, 0
0, 0
0, 0
1, 3
3, 4
0, 1
3, 4
0, 3
4, 4
1, 1
2, 1
2, 2
1, 1
3, 3
3, 1
1, 1
0, 3
0, 2
4, 2
0, 4
4, 5
0, 5
3, 1
1, 3
2, 2
1, 3
2, 4
1, 2
3, 1
0, 1
1, 2
3, 1
1, 5
1, 1
0, 1
1, 3
2, 2
3, 2
2, 2
1, 5
2, 4
5, 3
2, 4
1, 1
4, 1
2, 3
1, 5
1, 3
1, 1
1, 3
7, 0
6, 0
3, 6
0, 6
7, 4
6, 3
2, 3
2, 2
4, 3
3, 3
6, 1
5, 1
2, 3
1, 3
3, 2
2, 4
1, 1
3, 1
1, 1
2, 2
0, 2
1, 0
1, 2
3, 1
2, 0
1, 0
3, 1
0, 3
0, 1
1, 0
5, 2
1, 3
1, 0
1, 5
1, 4
2, 0
3, 1
3, 1
2, 3
1, 2
0, 1
2, 0
3, 5
0, 0
0, 1
2, 2
1, 0
1, 0
1, 0
0, 1
1, 1
0, 2
2, 1
1, 1
1, 0
2, 1
1, 0
1, 1
1, 0
1, 0
4, 2
0, 2
2, 4
3, 3
0, 2
1, 2
2, 0
3, 1
0, 1
1, 1
1, 4
0, 1
0, 0
0, 0
1, 1
0, 0
0, 0
0, 1
0, 1
3, 2
0, 0
2, 0
0, 0
2, 2
1, 1
1, 0
0, 0
2, 0
2, 1
0, 1
0, 1
0, 1
1, 0
1, 1
0, 2
0, 0
2, 0
0, 0
2, 1
1, 1
1, 0
1, 1
1, 0
0, 1
1, 1
0, 1
1, 2
1, 0
1, 0
0, 1
1, 0
0, 0
0, 1
1, 1
3, 0
1, 1
0, 0
0, 0
0, 0
1, 0
2, 1
1, 0
1, 0
0, 1
2, 0
0, 0
1, 0
0, 0
0, 0
0, 1
1, 0
0, 0
0, 1
0, 0
0, 1
0, 0
0, 0
0, 0
1, 2
1, 0
0, 0
0, 0
1, 0
0, 1
1, 0
2, 2
1, 0
0, 0
0, 1
0, 2
0, 0
0, 0
0, 1
1, 0
0, 0
1, 2
1, 0
0, 0
0, 0
1, 2
0, 0
1, 0
1, 0
0, 0
1, 1
1, 0
0, 0
0, 1
0, 0
0, 0
1, 0
0, 0
1, 0
0, 2
0, 1
1, 0
1, 0
1, 0
1, 0
0, 1
1, 0
1, 2
0, 0
2, 0
0, 1
0, 1
1, 0
0, 0
0, 0
0, 1
0, 1
0, 0
0, 1
1, 2
0, 0
0, 1
1, 0
0, 0
0, 1
0, 0
1, 0
0, 0
1, 1
0, 0
0, 1
2, 0
1, 1
1, 1
0, 0
0, 0
0, 1
1, 0
0, 0
0, 0
0, 1
0, 0
0, 0
0, 0
0, 0
1, 1
0, 0
0, 0
1, 0
0, 1
0, 0
0, 0
0, 0
0, 0
0, 0
0, 0
0, 0
1, 0
0, 0
0, 0
0, 0
0, 0
0, 1
0, 0
0, 0
0, 0
0, 0
0, 0
0, 0
0, 1
0, 1
0, 1
0, 0
0, 1
0, 0
1, 1
0, 1
0, 0
0, 0
0, 0
0, 1
2, 1
0, 0
1, 0
0, 1
0, 1
0, 0
0, 0
0, 0
0, 0
0, 0
0, 0
1, 1
0, 1
0, 0
1, 0
0, 0
0, 0
1, 1
0, 0
0, 0
0, 1
0, 0
0, 0
0, 0
1, 1
0, 0
0, 0
0, 0
0, 0
0, 0
0, 0
0, 0
1, 0
0, 0
0, 0
1, 0
0, 0
0, 0
1, 1
0, 1
0, 0
0, 0
0, 1
0, 0
0, 0
0, 1
0, 0
0, 0
0, 0
0, 0
0, 0
0, 0
0, 0
0, 0
0, 0
0, 0
0, 1
0, 0
0, 1
0, 0
0, 0
0, 0
0, 0
0, 2
0, 0
0, 0
0, 0
0, 0
0, 0
0, 0
0, 0
0, 0
0, 0
0, 0
0, 1
0, 0
0, 0
0, 0
0, 0
0, 0
0, 0
1, 0
0, 0
0, 0
1, 0
0, 0
0, 0
1, 1
0, 0
0, 0
0, 0
0, 0
0, 0
0, 0
0, 0
0, 0
0, 0
0, 0
0, 0
0, 0
0, 0
0, 0
0, 0
0, 0
0, 0
0, 0
0, 0
0, 0
0, 0
0, 0
0, 0
0, 0
0, 0
0, 0
0, 0
0, 0
1, 0
0, 0
0, 0
0, 0
0, 1
0, 0
0, 0
0, 0
0, 0
0, 0
0, 0
0, 0
0, 1
0, 0
0, 0
0, 0
0, 0
0, 0
0, 0
0, 0
0, 0
0, 0
0, 0
0, 1
0, 0
1, 0
0, 0
0, 0
0, 0
0, 0
0, 0
0, 0
0, 0
0, 0
0, 0
0, 0
0, 0
0, 0
0, 0
0, 0
0, 0
0, 0
0, 0
0, 0
0, 0
0, 0
0, 0
0, 0
0, 0
0, 0
0, 0
0, 0
0, 0
0, 0
0, 0
0, 0
0, 0
0, 0
0, 0
0, 0
0, 0
0, 0
0, 0
0, 0
0, 0
0, 0
0, 0
0, 0
0, 0
0, 0
0, 1
0, 0
0, 0
0, 0
0, 0
0, 0
0, 0
0, 0
0, 0
0, 0
0, 0
0, 0
0, 0
0, 0
0, 0
0, 0
0, 0
0, 0
0, 0
0, 0
0, 0
0, 0
0, 0
0, 0
0, 0
0, 0
0, 0
0, 0
0, 0
0, 0
0, 0
0, 0
0, 0
0, 0
0, 0
0, 0
0, 0
0, 0
0, 0
0, 0
0, 0
0, 0
0, 0
0, 0
0, 0
0, 0
0, 0
0, 0
0, 0
0, 0
0, 0
0, 0
0, 1
0, 0
0, 0
0, 0
0, 0
0, 0
0, 0
0, 0
0, 0
0, 0
0, 0
0, 0
0, 0
0, 0
0, 0
0, 0
0, 0
0, 0
0, 0
0, 0
0, 0
0, 0
0, 0
0, 0
0, 0
0, 0
0, 0
0, 0
0, 0
0, 0
0, 0
0, 0
0, 0
0, 0
0, 0
0, 0
0, 0
0, 0
0, 0
0, 0
0, 0
0, 0
0, 0
0, 0
0, 0
0, 0
0, 0
0, 0
0, 0
0, 0
0, 0
0, 0
0, 0
0, 0
0, 0
0, 0
0, 0
0, 0
0, 0
0, 0
0, 0
0, 0
0, 0
0, 0
0, 0
0, 0
0, 0
0, 0
0, 0
0, 0
0, 0
0, 0
0, 0
0, 0
0, 0
0, 0
0, 0
0, 0
0, 0
0, 0
0, 0
0, 0
0, 0
0, 0
0, 0
0, 0
0, 0
0, 0
0, 0
0, 0
0, 0
0, 0
0, 0
0, 0
0, 0
0, 0
0, 0
0, 0
0, 0
0, 0
0, 0
0, 0
0, 0
0, 0
0, 0
0, 0
0, 0
0, 0
0, 0
0, 0
0, 0
0, 0
0, 0
0, 0
0, 0
0, 0
0, 0
0, 0
0, 0
0, 0
0, 0
0, 0
0, 0
0, 0
0, 0
0, 0
0, 0
0, 0
0, 0
0, 0
0, 0
0, 0
0, 0
0, 0
0, 0
0, 0
0, 0
0, 0
0, 0
0, 0
0, 0
0, 0
0, 0
0, 0
0, 0
0, 0
0, 0
0, 0
0, 0
0, 0
0, 0
0, 0
0, 0
0, 0
0, 0
0, 0
0, 0
0, 0
0, 0
0, 0
0, 0
0, 0
0, 0
0, 0
0, 0
0, 0
0, 0
0, 0
0, 0
0, 0
0, 0
0, 0
0, 0
0, 0
0, 0
0, 0
0, 0
0, 0
0, 0
0, 0
0, 0
0, 0
0, 0
0, 0
0, 0
0, 0
0, 0
0, 0
0, 0
0, 0
0, 0
0, 0
0, 0
0, 0
0, 0
0, 0
0, 0
0, 0
0, 0
0, 0
0, 0
0, 0
0, 0
0, 0
0, 0
0, 0
0, 0
0, 0
0, 0
0, 0
0, 0
0, 0
0, 0
0, 0
0, 0
0, 0
0, 0
0, 0
0, 0
0, 0
0, 0
0, 0
0, 0
0, 0
0, 0
0, 0
0, 0
0, 0
0, 0
0, 0
0, 0
0, 0
0, 0
0, 0
0, 0
0, 0
0, 0
0, 0
0, 0
0, 0
0, 0
0, 0
0, 0
0, 0
0, 0
0, 0
0, 0
0, 0
0, 0
0, 0
0, 0
0, 0
0, 0
0, 0
0, 0
0, 0
0, 0
0, 0
0, 0
0, 0
0, 0
0, 0
0, 0
0, 0
0, 0
0, 0
0, 0
0, 0
0, 0
0, 0
0, 0
0, 0
0, 0
0, 0
0, 0
0, 0
0, 0
0, 0
0, 0
0, 0
0, 0
0, 0
0, 0
0, 0
0, 0
0, 0
0, 0
0, 0
0, 0
0, 0
0, 0
0, 0
0, 0
0, 0
0, 0
0, 0
0, 0
0, 0
0, 0
0, 0
0, 0
0, 0
0, 0
0, 0
0, 0
0, 0
0, 0
0, 0
0, 0
0, 0
0, 0
0, 0
0, 0
0, 0
0, 0
0, 0
0, 0
0, 0
0, 0
0, 0
0, 0
0, 0
0, 0
0, 0
0, 0
0, 0
0, 0
0, 0
0, 0
0, 0
0, 0
0, 0
0, 0
0, 0
0, 0
0, 0
#ENDOFDATA     end of spectrum data