File: host_upload/06-09-2024/ps_0852/dump3/ps__0852shot_2270.msa
#FORMAT      : EMSA/MAS spectral data file
#VERSION     : TC202v2.0 PIXL
#TITLE       : N/A
#DATE        :       Date in the format DD-MMM-YYYY, for example 07-JUL-2010
#TIME        :             The time of day at which the spectrum was recorded, in 24-hour format
#OWNER       : PIXL Flight Model       (PIXL will use this to indicate which instrument took the data.)
#NPOINTS     : 4096     Number of data points in the spectrum (This can be zero for configuration only files)
#NCOLUMNS    : 2     Number of data columns in the spectrum (This can be zero for configuration only files)
#XUNITS      : eV
#YUNITS      : COUNTS
#DATATYPE    : YY
#XPERCHAN    : 7.862, 7.881   eV per channel (separate by commas if more than one detector)
#OFFSET      : 18.5, -22.4         eV of first channel  (separate by commas if more than one detector
#SIGNALTYPE  : XRF
#YP_TEMP     : 2.203
#LIVETIME    : 8.58586, 8.56597   seconds (separate by commas if more than one detector)
#REALTIME    : 10, 10.0   seconds (separate by commas if more than one detector)
#SPECTRUM    : start of spectrum data
0, 0
0, 0
0, 0
0, 0
0, 0
0, 0
0, 0
0, 0
0, 0
0, 0
0, 0
0, 0
0, 0
0, 0
0, 0
0, 0
0, 0
0, 0
0, 0
0, 0
0, 0
0, 0
0, 0
0, 0
0, 0
0, 0
0, 0
0, 0
0, 0
0, 0
0, 0
0, 0
0, 0
0, 1
0, 0
0, 0
0, 1
1, 0
0, 1
2, 1
0, 0
1, 1
2, 0
0, 1
2, 0
0, 1
2, 3
5, 2
5, 6
12, 8
29, 20
36, 31
60, 63
66, 88
100, 75
74, 70
71, 48
52, 39
23, 23
20, 11
5, 10
6, 7
5, 3
2, 1
4, 5
3, 1
9, 6
10, 14
21, 24
41, 43
91, 85
184, 152
269, 244
348, 342
470, 385
397, 316
375, 297
334, 239
208, 163
134, 107
74, 54
47, 32
9, 17
8, 6
9, 5
3, 3
2, 1
3, 0
0, 2
1, 3
2, 3
1, 0
2, 1
4, 1
2, 3
5, 3
6, 5
7, 10
9, 9
6, 5
15, 9
8, 4
5, 7
8, 4
10, 10
7, 3
5, 2
8, 8
9, 8
10, 10
15, 19
26, 16
20, 40
26, 38
40, 31
47, 42
29, 47
26, 36
25, 33
32, 31
21, 20
29, 19
13, 18
11, 23
7, 11
14, 12
10, 7
10, 12
7, 7
6, 4
7, 7
7, 4
2, 5
5, 2
2, 5
2, 7
1, 6
3, 10
1, 6
1, 4
1, 3
5, 3
3, 5
1, 0
1, 2
4, 1
0, 1
2, 3
3, 1
11, 0
2, 1
4, 5
7, 3
8, 8
13, 4
21, 12
22, 18
22, 17
20, 17
23, 12
14, 14
5, 6
5, 7
8, 7
2, 6
12, 6
2, 3
4, 9
5, 1
8, 5
3, 8
4, 3
6, 6
5, 8
3, 4
5, 9
7, 9
6, 5
4, 9
6, 11
5, 11
12, 10
1, 18
6, 15
6, 5
4, 11
4, 10
1, 3
8, 3
4, 10
9, 13
7, 7
13, 10
9, 10
12, 10
15, 13
16, 16
20, 17
18, 19
9, 23
8, 20
6, 28
13, 36
11, 32
9, 38
7, 41
6, 62
5, 55
8, 43
6, 25
3, 26
4, 20
8, 12
9, 8
10, 8
2, 3
10, 4
12, 5
9, 6
6, 5
8, 6
12, 8
7, 8
16, 4
17, 7
19, 7
20, 12
30, 11
22, 10
35, 19
20, 8
27, 6
19, 12
17, 4
16, 13
17, 15
12, 2
11, 8
9, 6
13, 12
4, 3
15, 9
13, 5
17, 20
15, 22
26, 14
30, 30
37, 48
43, 41
48, 57
66, 59
62, 50
67, 49
54, 50
48, 37
34, 46
32, 39
30, 40
22, 40
27, 60
37, 56
37, 69
64, 111
98, 160
172, 194
334, 361
499, 570
845, 875
1227, 1191
1648, 1678
2074, 1958
2457, 2211
2479, 2216
2417, 2088
2229, 1801
1846, 1388
1342, 1040
980, 681
583, 388
403, 241
211, 127
112, 61
57, 50
45, 28
28, 18
20, 15
16, 16
21, 19
16, 11
15, 21
28, 24
37, 27
63, 46
59, 69
113, 124
168, 153
203, 219
247, 276
314, 281
368, 373
404, 323
384, 296
310, 236
265, 188
212, 149
132, 106
98, 55
60, 38
40, 20
20, 13
20, 10
20, 7
10, 7
14, 12
15, 10
17, 19
14, 15
17, 12
13, 12
10, 15
13, 11
12, 8
9, 9
9, 9
11, 4
11, 3
6, 6
11, 4
8, 7
6, 3
6, 7
3, 7
5, 2
5, 3
7, 4
4, 8
1, 3
4, 4
3, 13
5, 9
5, 10
2, 17
2, 14
4, 11
10, 15
6, 10
7, 12
5, 9
9, 7
9, 6
3, 4
8, 5
6, 4
8, 7
5, 6
6, 4
7, 4
11, 4
12, 4
6, 2
19, 6
14, 6
14, 6
12, 1
16, 3
19, 2
5, 5
9, 2
6, 2
5, 2
5, 3
2, 6
6, 1
4, 3
5, 4
2, 3
1, 7
8, 2
5, 2
1, 3
2, 3
2, 8
2, 3
3, 6
2, 5
1, 5
2, 4
0, 7
5, 4
10, 2
3, 2
1, 7
5, 5
3, 4
4, 6
2, 4
6, 5
7, 4
4, 2
2, 5
3, 2
4, 6
3, 4
5, 4
6, 3
5, 4
2, 5
2, 1
3, 8
7, 6
7, 11
4, 6
3, 3
4, 10
4, 7
4, 3
5, 1
5, 5
2, 3
8, 1
1, 1
3, 7
5, 3
3, 5
4, 2
5, 4
2, 1
1, 3
2, 6
4, 2
3, 6
3, 4
2, 4
3, 8
2, 8
3, 10
3, 8
3, 16
4, 5
2, 9
2, 10
1, 6
2, 8
3, 1
3, 3
4, 4
5, 2
3, 1
1, 5
5, 1
3, 4
2, 3
3, 4
2, 3
5, 2
2, 4
1, 2
3, 3
5, 2
1, 1
5, 5
4, 1
1, 1
5, 3
4, 0
2, 1
2, 2
2, 3
4, 3
4, 1
3, 3
0, 0
2, 1
1, 3
3, 0
5, 2
3, 1
1, 3
2, 1
2, 3
4, 2
2, 1
2, 3
1, 1
0, 2
2, 3
0, 1
0, 2
2, 1
3, 3
4, 1
2, 3
2, 1
1, 1
3, 0
1, 2
1, 2
2, 3
2, 3
0, 3
0, 2
2, 2
0, 1
2, 2
3, 2
1, 2
1, 5
1, 5
3, 4
1, 3
3, 0
2, 1
2, 2
3, 3
1, 1
6, 1
3, 1
2, 1
4, 2
1, 3
2, 2
2, 4
4, 2
5, 4
1, 1
0, 2
2, 6
3, 1
2, 2
2, 2
1, 1
3, 1
5, 2
0, 1
1, 2
5, 1
1, 4
1, 5
1, 4
2, 2
2, 4
6, 4
4, 7
7, 0
5, 2
1, 3
1, 4
2, 3
1, 3
4, 1
4, 1
1, 2
4, 2
1, 0
3, 2
1, 3
2, 2
2, 2
2, 1
1, 1
1, 2
0, 3
1, 1
1, 3
1, 1
0, 1
2, 2
1, 4
2, 3
4, 3
4, 2
4, 1
1, 1
2, 0
1, 2
2, 2
0, 1
3, 2
3, 1
0, 0
4, 0
1, 2
1, 0
2, 1
1, 1
0, 0
0, 1
2, 1
0, 0
3, 1
2, 1
3, 2
0, 1
1, 1
1, 0
1, 2
2, 0
1, 0
1, 2
0, 1
0, 1
1, 2
1, 4
0, 0
1, 0
2, 2
0, 0
1, 1
3, 0
0, 1
0, 2
1, 0
1, 0
3, 2
0, 2
0, 2
1, 3
1, 1
1, 1
1, 2
0, 2
0, 0
0, 1
0, 0
2, 1
0, 1
0, 1
2, 0
0, 1
0, 0
0, 1
0, 0
3, 0
1, 1
1, 0
1, 2
0, 0
0, 1
0, 1
0, 0
1, 1
1, 1
0, 0
0, 1
1, 0
0, 0
1, 1
0, 0
1, 1
2, 0
0, 1
1, 0
0, 1
1, 1
0, 0
1, 0
1, 0
1, 0
1, 0
2, 0
0, 0
0, 1
0, 1
1, 0
0, 0
0, 2
0, 3
2, 0
2, 1
0, 0
3, 1
0, 0
2, 2
0, 0
1, 1
0, 1
2, 0
0, 0
0, 0
2, 0
0, 1
0, 0
0, 1
1, 0
0, 3
1, 1
0, 0
0, 0
0, 0
1, 0
0, 0
0, 0
0, 1
0, 0
2, 1
0, 1
0, 0
0, 0
0, 0
1, 1
1, 0
0, 1
0, 0
0, 0
0, 1
1, 0
1, 0
1, 1
0, 1
0, 0
1, 0
1, 0
0, 0
0, 0
0, 0
1, 0
0, 0
0, 0
2, 1
0, 0
1, 0
1, 1
0, 1
0, 1
0, 0
0, 0
0, 1
0, 0
0, 1
0, 0
0, 0
0, 1
0, 0
1, 0
1, 1
0, 0
0, 0
0, 0
1, 0
0, 0
0, 0
0, 0
0, 0
0, 0
0, 0
1, 0
0, 0
0, 0
0, 0
0, 0
0, 1
0, 1
0, 0
0, 0
0, 0
0, 0
0, 0
0, 1
1, 1
0, 0
0, 0
0, 1
0, 0
0, 0
0, 0
0, 1
1, 0
0, 0
1, 0
0, 0
0, 0
0, 0
0, 0
0, 1
0, 0
0, 1
0, 0
0, 0
0, 0
0, 0
0, 0
0, 0
0, 0
0, 0
2, 0
0, 0
0, 0
1, 0
0, 1
0, 0
0, 0
0, 0
1, 0
1, 0
0, 1
0, 0
0, 0
0, 2
0, 0
0, 1
0, 0
0, 0
1, 0
0, 0
1, 0
1, 2
0, 0
0, 0
1, 0
0, 0
0, 0
0, 0
0, 1
0, 0
0, 1
0, 0
0, 0
1, 0
0, 0
0, 0
0, 1
1, 0
1, 0
0, 0
0, 0
0, 0
1, 0
0, 0
0, 0
0, 0
0, 0
0, 0
0, 1
1, 0
0, 0
0, 0
0, 0
0, 1
1, 0
1, 0
0, 0
0, 0
1, 1
0, 0
0, 1
0, 0
0, 0
1, 0
0, 1
0, 0
0, 1
0, 0
0, 0
0, 1
0, 0
0, 0
1, 0
0, 2
0, 0
0, 0
0, 0
1, 2
0, 0
0, 0
0, 0
0, 0
0, 0
1, 0
0, 0
0, 0
0, 0
0, 0
0, 0
0, 0
0, 0
0, 0
0, 1
0, 0
0, 0
0, 0
0, 0
0, 0
0, 0
0, 0
0, 0
0, 0
0, 0
0, 0
0, 0
1, 0
0, 0
0, 0
0, 0
0, 0
0, 0
0, 1
1, 0
0, 0
0, 0
0, 0
0, 0
0, 0
0, 1
0, 0
0, 0
0, 0
0, 0
0, 0
0, 0
0, 0
0, 0
0, 0
0, 0
0, 0
0, 0
0, 0
0, 0
0, 0
0, 0
0, 0
0, 0
0, 0
0, 0
0, 0
0, 0
0, 0
0, 0
0, 0
0, 0
0, 0
0, 0
0, 0
0, 0
0, 0
0, 0
0, 0
0, 0
0, 0
0, 0
0, 0
0, 0
0, 0
0, 0
0, 0
0, 0
0, 0
0, 0
0, 0
0, 0
0, 0
0, 0
0, 0
0, 0
0, 0
0, 0
0, 0
0, 0
0, 0
0, 0
0, 0
0, 0
0, 0
0, 0
0, 0
0, 0
0, 0
0, 0
0, 0
0, 0
0, 0
0, 0
0, 0
0, 0
0, 0
0, 0
0, 0
0, 0
0, 0
0, 0
0, 0
0, 0
0, 0
0, 0
0, 0
0, 0
0, 0
0, 0
0, 0
0, 0
0, 0
0, 0
0, 0
0, 0
0, 0
0, 0
0, 0
0, 0
0, 0
0, 0
0, 0
0, 0
0, 0
0, 0
0, 0
0, 0
0, 0
0, 0
0, 0
0, 0
0, 0
0, 0
0, 0
0, 0
0, 0
0, 0
0, 0
0, 0
0, 0
0, 0
0, 0
0, 0
0, 1
0, 0
0, 0
0, 0
0, 0
0, 0
0, 0
0, 0
0, 0
0, 0
0, 0
0, 0
0, 0
0, 0
0, 0
0, 0
0, 0
0, 0
0, 0
0, 0
0, 0
0, 0
0, 0
0, 0
0, 0
0, 0
0, 0
0, 0
0, 0
0, 0
0, 0
0, 0
0, 0
0, 0
0, 0
0, 0
0, 0
0, 0
0, 0
0, 0
0, 0
0, 0
0, 0
0, 0
0, 0
0, 0
0, 0
0, 0
0, 0
0, 0
0, 0
0, 0
0, 0
0, 0
0, 0
0, 0
0, 0
0, 0
0, 0
0, 0
0, 0
0, 0
0, 0
0, 0
0, 0
0, 0
0, 0
0, 0
0, 0
0, 0
0, 0
0, 0
0, 0
0, 0
0, 0
0, 0
0, 0
0, 0
0, 0
0, 0
0, 0
0, 0
0, 0
0, 0
0, 0
0, 0
0, 0
0, 0
0, 0
0, 0
0, 0
0, 0
0, 0
0, 0
0, 0
0, 0
0, 0
0, 0
0, 0
0, 0
0, 0
0, 0
0, 0
0, 0
0, 0
0, 0
0, 0
0, 0
0, 0
0, 0
0, 0
0, 0
0, 0
0, 0
0, 0
0, 0
0, 0
0, 0
0, 0
0, 0
0, 0
0, 0
0, 0
0, 0
0, 0
0, 0
0, 0
0, 0
0, 0
0, 0
0, 0
0, 0
0, 0
0, 0
0, 0
0, 0
0, 0
0, 0
0, 0
0, 0
0, 0
0, 0
0, 0
0, 0
0, 0
0, 0
0, 0
0, 0
0, 0
0, 0
0, 0
0, 0
0, 0
0, 0
0, 0
0, 0
0, 0
0, 0
0, 0
0, 0
0, 0
0, 0
0, 0
0, 0
0, 0
0, 0
0, 0
0, 0
0, 0
0, 0
0, 0
0, 0
0, 0
0, 0
0, 0
0, 0
0, 0
0, 0
0, 0
0, 0
0, 0
0, 0
0, 0
0, 0
0, 0
0, 0
0, 0
0, 0
0, 0
0, 0
0, 0
0, 0
0, 0
0, 0
0, 0
0, 0
0, 0
0, 0
0, 0
0, 0
0, 0
0, 0
0, 0
0, 0
0, 0
0, 0
0, 0
0, 0
0, 0
0, 0
0, 0
0, 0
0, 0
0, 0
0, 0
0, 0
0, 0
0, 0
0, 0
0, 0
0, 0
0, 0
0, 0
0, 0
0, 0
0, 0
0, 0
0, 0
0, 0
0, 0
0, 0
0, 0
0, 0
0, 0
0, 0
0, 0
0, 0
0, 0
0, 0
0, 0
0, 0
0, 0
0, 0
0, 0
0, 0
0, 0
0, 0
0, 0
0, 0
0, 0
0, 0
0, 0
0, 0
0, 0
0, 0
0, 0
0, 0
0, 0
0, 0
0, 0
0, 0
0, 0
0, 0
0, 0
0, 0
0, 0
0, 0
0, 0
0, 0
0, 0
0, 0
0, 0
0, 0
0, 0
0, 0
0, 0
0, 0
0, 0
0, 0
0, 0
0, 0
0, 0
0, 0
0, 0
0, 0
0, 0
0, 0
0, 0
0, 0
0, 0
0, 0
0, 0
0, 0
0, 0
0, 0
0, 0
0, 0
0, 0
0, 0
0, 0
0, 0
0, 0
0, 0
0, 0
0, 0
0, 0
0, 0
0, 0
0, 0
0, 0
0, 0
0, 0
0, 0
0, 0
0, 0
0, 0
0, 0
0, 0
0, 0
0, 0
0, 0
0, 0
0, 0
0, 0
0, 0
0, 0
0, 0
0, 0
0, 0
0, 0
0, 0
0, 0
0, 0
0, 0
0, 0
0, 0
0, 0
0, 0
0, 0
0, 0
0, 0
0, 0
0, 0
0, 0
0, 0
#ENDOFDATA     end of spectrum data