File: host_upload/06-09-2024/ps_0852/dump3/ps__0852shot_2106.msa
#FORMAT      : EMSA/MAS spectral data file
#VERSION     : TC202v2.0 PIXL
#TITLE       : N/A
#DATE        :       Date in the format DD-MMM-YYYY, for example 07-JUL-2010
#TIME        :             The time of day at which the spectrum was recorded, in 24-hour format
#OWNER       : PIXL Flight Model       (PIXL will use this to indicate which instrument took the data.)
#NPOINTS     : 4096     Number of data points in the spectrum (This can be zero for configuration only files)
#NCOLUMNS    : 2     Number of data columns in the spectrum (This can be zero for configuration only files)
#XUNITS      : eV
#YUNITS      : COUNTS
#DATATYPE    : YY
#XPERCHAN    : 7.862, 7.881   eV per channel (separate by commas if more than one detector)
#OFFSET      : 18.5, -22.4         eV of first channel  (separate by commas if more than one detector
#SIGNALTYPE  : XRF
#YP_TEMP     : 2.332
#LIVETIME    : 8.51714, 8.32789   seconds (separate by commas if more than one detector)
#REALTIME    : 10, 10.0   seconds (separate by commas if more than one detector)
#SPECTRUM    : start of spectrum data
0, 0
0, 0
0, 0
0, 0
0, 0
0, 0
0, 0
0, 0
0, 0
0, 0
0, 0
0, 0
0, 0
0, 0
0, 0
0, 0
0, 0
0, 0
0, 0
0, 0
0, 0
0, 0
0, 0
0, 0
0, 0
0, 0
0, 0
0, 1
1, 0
0, 0
0, 0
0, 1
0, 0
1, 0
0, 0
2, 1
1, 0
0, 3
1, 3
0, 1
1, 1
2, 1
2, 4
1, 3
2, 2
3, 0
1, 3
5, 3
5, 7
5, 12
14, 23
32, 41
54, 46
46, 67
48, 64
61, 71
44, 54
39, 41
34, 25
20, 11
12, 4
6, 5
2, 2
2, 7
3, 3
4, 4
5, 3
12, 14
12, 14
39, 46
81, 80
135, 155
238, 246
324, 334
364, 340
347, 409
309, 305
240, 238
196, 159
119, 90
62, 59
34, 24
18, 22
13, 8
8, 8
5, 8
2, 1
2, 1
4, 7
6, 2
8, 5
13, 15
15, 22
39, 51
72, 95
141, 147
184, 223
274, 284
316, 340
305, 330
269, 299
190, 247
137, 165
103, 109
50, 82
42, 57
29, 43
30, 33
40, 38
49, 46
38, 52
57, 69
64, 69
65, 80
66, 88
70, 84
70, 73
41, 68
49, 55
45, 54
39, 34
32, 27
40, 33
33, 31
30, 27
22, 23
25, 21
13, 18
17, 14
15, 10
6, 10
3, 4
4, 10
2, 5
4, 4
5, 3
3, 3
5, 6
6, 5
2, 2
8, 4
4, 6
5, 5
5, 7
4, 5
4, 2
3, 3
1, 5
3, 7
3, 7
9, 6
16, 22
12, 41
48, 41
42, 69
74, 100
75, 121
92, 156
120, 135
93, 108
55, 72
45, 64
30, 47
22, 29
12, 12
10, 13
6, 14
14, 8
17, 10
12, 16
15, 31
21, 24
19, 31
22, 24
20, 22
11, 11
13, 4
6, 5
6, 4
6, 5
5, 1
4, 2
8, 2
5, 3
6, 7
4, 5
1, 5
2, 7
4, 9
11, 9
7, 8
9, 13
9, 11
7, 12
14, 15
16, 15
13, 20
16, 8
11, 19
14, 20
13, 12
10, 17
15, 10
11, 6
6, 10
9, 3
9, 9
12, 7
9, 6
8, 8
11, 12
11, 14
9, 13
13, 4
14, 20
5, 6
6, 6
6, 10
6, 15
2, 10
2, 11
6, 10
14, 13
9, 6
8, 12
6, 9
9, 20
24, 21
23, 19
31, 25
34, 33
35, 35
33, 24
36, 16
47, 16
46, 21
46, 14
34, 10
22, 9
22, 11
14, 15
15, 9
12, 11
16, 18
25, 16
33, 20
50, 32
59, 39
88, 52
97, 50
116, 56
123, 46
117, 54
124, 40
92, 39
99, 35
84, 19
52, 16
30, 12
17, 12
20, 25
17, 29
41, 55
80, 110
121, 177
257, 312
420, 532
642, 850
901, 1144
1319, 1656
1747, 1944
1948, 2005
2075, 2184
2071, 1941
1874, 1707
1582, 1407
1196, 984
847, 691
511, 401
304, 221
183, 117
97, 66
43, 34
34, 21
16, 16
19, 21
16, 15
11, 12
15, 18
14, 21
21, 27
28, 40
43, 57
42, 79
97, 119
130, 148
186, 224
207, 254
295, 292
300, 316
295, 297
335, 305
287, 247
239, 209
173, 133
126, 107
88, 86
49, 34
29, 24
23, 15
10, 17
11, 11
10, 14
11, 7
11, 12
11, 10
10, 12
14, 9
10, 12
18, 10
13, 10
20, 8
22, 11
15, 5
13, 8
9, 9
4, 5
3, 7
8, 11
6, 10
6, 13
2, 3
2, 7
6, 1
7, 4
2, 1
4, 4
4, 4
3, 4
2, 2
1, 3
5, 2
5, 2
6, 2
3, 7
6, 9
5, 4
4, 4
2, 8
5, 6
4, 4
5, 6
7, 3
10, 7
2, 3
4, 7
3, 2
3, 5
4, 6
8, 3
4, 3
3, 5
7, 5
5, 2
6, 6
5, 3
6, 5
8, 5
1, 4
3, 6
7, 6
4, 3
4, 2
3, 6
4, 2
4, 7
5, 5
3, 2
2, 6
3, 5
7, 4
2, 5
5, 6
2, 4
5, 6
3, 3
3, 2
4, 5
5, 5
4, 3
4, 5
4, 5
6, 5
3, 10
2, 4
5, 10
8, 5
8, 8
5, 5
6, 3
6, 4
9, 4
5, 6
6, 2
5, 2
4, 6
6, 5
4, 2
9, 5
2, 5
4, 1
3, 6
5, 1
6, 1
2, 3
1, 7
3, 4
3, 7
4, 3
1, 4
4, 4
4, 3
3, 3
1, 4
5, 8
6, 9
5, 6
4, 6
3, 4
5, 16
5, 3
3, 8
2, 6
3, 9
3, 8
3, 1
4, 2
0, 2
7, 4
3, 1
2, 2
1, 2
2, 5
2, 2
5, 1
2, 2
2, 3
2, 1
0, 2
3, 0
2, 5
1, 5
2, 4
2, 1
3, 1
1, 2
1, 5
1, 4
3, 3
1, 4
3, 2
4, 4
5, 6
4, 5
3, 6
2, 6
3, 5
1, 1
2, 4
4, 1
0, 2
5, 2
3, 1
2, 4
2, 6
2, 3
2, 4
3, 1
2, 4
2, 1
1, 1
2, 0
2, 1
6, 0
1, 2
0, 4
2, 0
4, 2
3, 3
3, 4
2, 1
2, 3
1, 1
3, 4
5, 2
3, 2
2, 3
2, 4
5, 2
6, 3
5, 0
7, 3
5, 2
7, 0
14, 4
8, 6
6, 2
8, 1
10, 0
2, 0
2, 3
5, 0
2, 4
5, 2
0, 1
2, 0
1, 1
3, 3
4, 2
0, 2
5, 1
0, 1
1, 1
0, 1
5, 1
4, 0
1, 1
2, 1
1, 1
0, 2
0, 1
1, 3
1, 4
4, 2
1, 1
4, 5
1, 0
2, 8
4, 3
2, 3
1, 3
2, 4
7, 0
2, 2
2, 3
4, 1
6, 8
2, 2
2, 0
1, 3
2, 1
1, 1
6, 2
0, 1
3, 1
1, 1
0, 1
0, 5
2, 2
1, 1
1, 0
1, 0
2, 0
1, 2
0, 3
2, 1
1, 2
2, 3
1, 3
2, 0
0, 2
1, 2
2, 2
0, 0
1, 2
3, 2
1, 3
3, 3
3, 1
2, 1
1, 3
0, 0
1, 1
1, 0
2, 3
0, 0
2, 0
1, 0
1, 1
3, 2
1, 0
3, 3
0, 1
3, 1
0, 1
1, 2
2, 2
2, 0
0, 0
2, 3
2, 0
2, 0
1, 2
2, 0
1, 1
0, 0
2, 0
0, 0
3, 0
3, 1
0, 1
1, 0
0, 1
3, 0
0, 0
4, 0
2, 1
1, 1
3, 1
1, 1
0, 0
2, 1
0, 0
1, 0
0, 1
1, 4
0, 1
1, 0
1, 0
0, 0
0, 1
0, 0
0, 2
1, 1
2, 1
0, 1
0, 1
0, 0
1, 1
2, 0
1, 0
1, 3
0, 1
1, 0
0, 0
1, 1
2, 0
0, 1
1, 1
0, 0
0, 0
0, 0
1, 1
0, 1
2, 1
0, 0
0, 0
1, 1
1, 0
0, 1
0, 1
1, 0
0, 0
1, 0
2, 0
1, 0
0, 1
1, 0
0, 0
2, 0
0, 1
0, 1
0, 0
1, 0
0, 0
0, 0
0, 3
0, 0
0, 0
1, 2
0, 1
0, 0
0, 1
0, 0
0, 1
1, 1
0, 0
0, 1
1, 0
0, 0
0, 2
0, 1
0, 1
0, 1
3, 0
1, 0
0, 1
0, 0
1, 0
1, 0
0, 0
0, 1
1, 0
0, 0
0, 0
0, 2
0, 0
0, 2
0, 0
1, 0
1, 0
1, 0
0, 0
1, 0
1, 0
1, 0
0, 0
0, 0
0, 0
0, 0
0, 0
0, 0
0, 0
0, 0
0, 0
1, 1
0, 0
3, 1
0, 0
0, 0
0, 0
0, 0
0, 3
0, 0
0, 0
0, 0
0, 0
0, 0
0, 0
0, 0
1, 0
0, 0
0, 1
0, 0
0, 1
0, 0
0, 0
0, 0
2, 0
0, 0
0, 0
1, 0
0, 1
0, 1
1, 0
0, 1
0, 0
0, 0
2, 0
1, 1
1, 0
0, 0
0, 1
1, 0
0, 0
0, 0
2, 1
0, 1
0, 0
0, 0
0, 0
0, 0
1, 1
0, 0
0, 1
0, 0
0, 1
1, 0
1, 0
0, 1
0, 0
0, 0
0, 0
0, 1
0, 1
1, 0
1, 0
0, 1
0, 1
0, 0
0, 0
0, 1
0, 0
0, 0
0, 0
0, 0
0, 0
0, 0
0, 1
0, 0
0, 0
0, 0
0, 1
1, 0
0, 0
0, 0
0, 0
0, 0
0, 0
0, 0
0, 1
0, 1
0, 0
0, 1
0, 0
0, 0
0, 0
0, 0
1, 0
0, 0
0, 1
0, 0
0, 0
0, 0
1, 0
1, 0
0, 0
0, 0
0, 0
0, 0
0, 0
0, 1
0, 0
0, 0
0, 0
1, 0
0, 0
0, 0
0, 0
0, 0
0, 0
0, 0
0, 0
0, 0
1, 0
0, 1
0, 0
0, 0
0, 0
0, 1
0, 0
0, 0
0, 1
0, 0
0, 0
0, 0
0, 1
0, 0
2, 0
0, 0
0, 0
0, 0
0, 0
0, 0
0, 0
0, 0
0, 0
0, 0
0, 0
0, 0
0, 0
0, 0
0, 0
0, 0
0, 0
0, 0
0, 0
0, 0
0, 0
0, 0
0, 1
0, 0
0, 0
0, 0
0, 0
0, 1
0, 0
0, 0
0, 0
0, 0
0, 0
0, 1
0, 0
0, 0
0, 0
0, 0
0, 0
0, 0
0, 0
0, 0
0, 0
0, 0
0, 0
0, 0
0, 0
0, 0
0, 0
0, 0
0, 0
0, 0
0, 0
0, 0
0, 0
1, 0
0, 0
0, 0
0, 0
0, 0
0, 0
1, 0
0, 0
0, 0
0, 0
0, 0
0, 0
0, 0
0, 0
0, 0
0, 0
0, 0
1, 0
0, 0
0, 0
0, 0
0, 0
0, 0
0, 0
0, 0
0, 0
0, 0
0, 0
0, 0
0, 0
0, 0
0, 0
0, 0
0, 0
0, 0
0, 0
0, 0
0, 0
0, 0
0, 0
0, 0
0, 0
0, 0
0, 0
0, 0
0, 0
0, 0
0, 0
0, 0
0, 0
0, 0
0, 0
0, 0
0, 0
0, 0
0, 0
0, 0
0, 0
0, 0
0, 0
0, 0
0, 0
0, 0
0, 0
0, 0
0, 0
0, 0
0, 0
0, 0
0, 0
0, 0
0, 0
0, 0
0, 0
0, 0
0, 0
0, 0
0, 0
0, 0
0, 0
0, 0
0, 0
0, 0
0, 0
0, 0
0, 0
0, 0
0, 0
0, 0
0, 0
0, 0
0, 0
0, 0
0, 0
0, 0
0, 0
0, 0
0, 0
0, 0
0, 0
0, 0
0, 0
0, 0
0, 0
0, 0
0, 0
0, 0
0, 0
0, 0
0, 0
0, 0
0, 0
0, 0
0, 0
0, 0
0, 0
0, 0
0, 0
0, 0
0, 0
0, 0
0, 0
0, 0
0, 0
0, 0
0, 0
0, 0
0, 0
0, 0
0, 0
0, 0
0, 0
0, 0
0, 0
0, 0
0, 0
0, 0
0, 0
0, 0
0, 0
0, 0
0, 0
0, 0
0, 0
0, 0
0, 0
0, 0
0, 0
0, 0
0, 0
0, 0
0, 0
0, 0
0, 0
0, 0
0, 0
0, 0
0, 0
0, 0
0, 0
0, 0
0, 0
0, 0
0, 0
0, 0
0, 0
0, 0
0, 0
0, 0
0, 0
0, 0
0, 0
0, 0
0, 0
0, 0
0, 0
0, 0
0, 0
0, 0
0, 0
0, 0
0, 0
0, 0
0, 0
0, 0
0, 0
0, 0
0, 0
0, 0
0, 0
0, 0
0, 0
0, 0
0, 0
0, 0
0, 0
0, 0
0, 0
0, 0
0, 0
0, 0
0, 0
0, 0
0, 0
0, 0
0, 0
0, 0
0, 0
0, 0
0, 0
0, 0
0, 0
0, 0
0, 0
0, 0
0, 0
0, 0
0, 0
0, 0
0, 0
0, 0
0, 0
0, 0
0, 0
0, 0
0, 0
0, 0
0, 0
0, 0
0, 0
0, 0
0, 0
0, 0
0, 0
0, 0
0, 0
0, 0
0, 0
0, 0
0, 0
0, 0
0, 0
0, 0
0, 0
0, 0
0, 0
0, 0
0, 0
0, 0
0, 0
0, 0
0, 0
0, 0
0, 0
0, 0
0, 0
0, 0
0, 0
0, 0
0, 0
0, 0
0, 0
0, 0
0, 0
0, 0
0, 0
0, 0
0, 0
0, 0
0, 0
0, 0
0, 0
0, 0
0, 0
0, 0
0, 0
0, 0
0, 0
0, 0
0, 0
0, 0
0, 0
0, 0
0, 0
0, 0
0, 0
0, 0
0, 0
0, 0
0, 0
0, 0
0, 0
0, 0
0, 0
0, 0
0, 0
0, 0
0, 0
0, 0
0, 0
0, 0
0, 0
0, 0
0, 0
0, 0
0, 0
0, 0
0, 0
0, 0
0, 0
0, 0
0, 0
0, 0
0, 0
0, 0
0, 0
0, 0
0, 0
0, 0
0, 0
0, 0
0, 0
0, 0
0, 0
0, 0
0, 0
0, 0
0, 0
0, 0
0, 0
0, 0
0, 0
0, 0
0, 0
0, 0
0, 0
0, 0
0, 0
0, 0
0, 0
0, 0
0, 0
0, 0
0, 0
0, 0
0, 0
0, 0
0, 0
0, 0
0, 0
0, 0
0, 0
0, 0
0, 0
0, 0
0, 0
0, 0
0, 0
0, 0
0, 0
0, 0
0, 0
0, 0
0, 0
0, 0
0, 0
0, 0
0, 0
0, 0
0, 0
0, 0
0, 0
0, 0
0, 0
0, 0
0, 0
0, 0
0, 0
0, 0
0, 0
0, 0
0, 0
0, 0
0, 0
0, 0
0, 0
0, 0
0, 0
0, 0
0, 0
0, 0
0, 0
0, 0
0, 0
0, 0
0, 0
0, 0
0, 0
0, 0
0, 0
0, 0
0, 0
0, 0
0, 0
0, 0
0, 0
0, 0
0, 0
0, 0
0, 0
0, 0
0, 0
0, 0
0, 0
0, 0
0, 0
0, 0
0, 0
0, 0
0, 0
0, 0
0, 0
0, 0
0, 0
0, 0
0, 0
0, 0
0, 0
0, 0
0, 0
0, 0
0, 0
0, 0
0, 0
0, 0
0, 0
0, 0
0, 0
0, 0
0, 0
0, 0
0, 0
0, 0
0, 0
0, 0
0, 0
0, 0
0, 0
0, 0
0, 0
0, 0
0, 0
0, 0
#ENDOFDATA     end of spectrum data