File: host_upload/06-09-2024/ps_0852/dump3/ps__0852shot_2407.msa
#FORMAT      : EMSA/MAS spectral data file
#VERSION     : TC202v2.0 PIXL
#TITLE       : N/A
#DATE        :       Date in the format DD-MMM-YYYY, for example 07-JUL-2010
#TIME        :             The time of day at which the spectrum was recorded, in 24-hour format
#OWNER       : PIXL Flight Model       (PIXL will use this to indicate which instrument took the data.)
#NPOINTS     : 4096     Number of data points in the spectrum (This can be zero for configuration only files)
#NCOLUMNS    : 2     Number of data columns in the spectrum (This can be zero for configuration only files)
#XUNITS      : eV
#YUNITS      : COUNTS
#DATATYPE    : YY
#XPERCHAN    : 7.862, 7.881   eV per channel (separate by commas if more than one detector)
#OFFSET      : 18.5, -22.4         eV of first channel  (separate by commas if more than one detector
#SIGNALTYPE  : XRF
#YP_TEMP     : 2.332
#LIVETIME    : 8.57049, 8.56641   seconds (separate by commas if more than one detector)
#REALTIME    : 10, 10.0   seconds (separate by commas if more than one detector)
#SPECTRUM    : start of spectrum data
0, 0
0, 0
0, 0
0, 0
0, 0
0, 0
0, 0
0, 0
0, 0
0, 0
0, 0
0, 0
0, 0
0, 0
0, 0
0, 0
0, 0
0, 0
0, 0
0, 0
0, 0
0, 0
0, 0
0, 0
0, 0
0, 0
0, 0
0, 0
0, 0
0, 0
0, 0
0, 0
0, 0
0, 0
0, 0
1, 0
0, 1
2, 2
1, 1
2, 3
1, 8
0, 5
0, 6
1, 2
0, 3
2, 2
1, 2
4, 0
6, 10
13, 10
28, 21
41, 51
49, 72
81, 63
82, 73
68, 74
52, 54
38, 47
28, 24
16, 16
4, 8
3, 2
3, 4
5, 2
1, 2
5, 5
6, 6
6, 13
17, 21
42, 44
85, 115
144, 181
242, 275
318, 360
377, 461
401, 459
353, 434
289, 318
195, 204
119, 136
72, 67
26, 29
22, 20
9, 11
6, 5
1, 4
4, 2
4, 0
2, 1
2, 1
0, 1
0, 2
1, 1
1, 1
3, 1
3, 2
5, 5
5, 4
4, 7
4, 5
3, 8
2, 10
3, 10
6, 23
3, 19
4, 43
4, 33
9, 51
14, 60
14, 75
19, 104
26, 156
35, 227
47, 312
44, 309
26, 338
40, 332
36, 255
27, 222
23, 132
25, 76
19, 44
15, 39
17, 20
16, 14
17, 19
16, 14
4, 7
4, 8
10, 6
4, 5
8, 2
4, 3
2, 0
4, 1
1, 1
5, 1
1, 3
3, 2
3, 2
2, 3
2, 1
0, 4
0, 5
2, 3
1, 6
1, 0
0, 1
1, 2
1, 2
4, 1
2, 4
9, 2
9, 6
16, 12
11, 14
22, 9
14, 19
15, 14
17, 15
16, 12
14, 10
19, 3
11, 4
9, 2
12, 5
23, 3
20, 4
27, 3
21, 3
23, 4
24, 3
15, 3
23, 10
5, 6
10, 12
5, 13
5, 19
3, 26
5, 35
6, 46
4, 52
3, 62
4, 35
1, 25
4, 15
6, 13
4, 2
8, 7
6, 7
7, 11
4, 11
9, 6
12, 9
11, 8
5, 16
11, 8
18, 13
8, 26
6, 14
11, 9
7, 11
8, 5
11, 6
6, 11
11, 5
18, 10
6, 12
5, 6
1, 18
11, 17
8, 15
3, 25
3, 25
7, 16
7, 17
7, 9
4, 11
8, 3
3, 8
4, 7
3, 5
3, 10
6, 9
8, 12
5, 7
4, 10
7, 13
9, 16
10, 20
17, 16
16, 21
19, 13
27, 18
32, 12
42, 5
62, 10
91, 10
96, 10
99, 5
108, 4
103, 2
72, 7
65, 11
54, 12
39, 17
48, 37
48, 43
37, 61
45, 72
72, 73
55, 82
57, 75
38, 59
44, 60
40, 38
18, 26
14, 19
22, 21
10, 13
13, 19
27, 26
39, 55
68, 114
129, 203
257, 390
423, 635
672, 1000
1030, 1424
1477, 1903
1812, 2275
2164, 2525
2184, 2677
2156, 2382
1892, 2003
1657, 1671
1168, 1188
842, 798
534, 494
308, 282
137, 140
104, 68
50, 50
30, 11
14, 22
13, 21
10, 13
8, 13
13, 21
23, 24
28, 30
31, 39
62, 57
66, 87
93, 126
146, 177
203, 243
248, 280
290, 372
352, 430
320, 352
323, 348
300, 305
225, 237
186, 151
147, 111
78, 70
53, 32
42, 21
19, 12
17, 9
8, 12
10, 7
8, 7
9, 15
4, 17
12, 18
19, 23
11, 10
14, 15
14, 14
10, 13
11, 12
9, 9
6, 2
10, 5
8, 3
12, 3
10, 2
8, 0
3, 2
7, 3
2, 3
9, 4
10, 8
4, 1
7, 6
3, 6
1, 7
4, 5
3, 7
8, 10
2, 9
2, 4
8, 7
3, 4
4, 6
2, 8
5, 6
5, 2
1, 9
9, 4
4, 3
7, 7
4, 8
2, 6
4, 1
7, 4
3, 3
4, 5
3, 3
4, 4
4, 2
1, 3
3, 3
2, 9
2, 3
3, 1
4, 4
2, 5
6, 3
3, 6
2, 5
8, 9
7, 7
4, 8
4, 12
10, 9
7, 11
11, 12
5, 9
6, 6
4, 6
3, 11
3, 9
6, 4
2, 6
2, 2
3, 4
3, 5
2, 3
4, 4
2, 3
4, 2
4, 1
6, 3
4, 3
5, 3
12, 0
4, 3
8, 5
10, 6
7, 3
8, 3
7, 1
7, 7
4, 3
0, 2
13, 4
6, 3
6, 3
6, 5
2, 1
2, 4
2, 4
3, 3
4, 4
1, 0
2, 4
0, 4
2, 4
3, 2
4, 2
3, 4
2, 2
1, 0
0, 2
4, 11
2, 9
4, 3
2, 4
2, 3
2, 4
3, 4
4, 2
2, 5
2, 5
5, 7
1, 2
4, 5
3, 3
4, 5
4, 3
1, 3
1, 4
3, 6
3, 4
1, 9
5, 5
4, 4
8, 3
9, 7
14, 3
6, 6
12, 1
5, 6
6, 0
8, 3
8, 5
10, 1
5, 2
8, 0
4, 3
6, 0
5, 2
1, 4
9, 2
3, 2
0, 4
5, 1
1, 2
1, 1
4, 3
3, 2
2, 2
1, 1
4, 3
1, 1
1, 3
2, 3
2, 1
4, 1
3, 2
0, 4
3, 1
2, 1
4, 0
4, 3
1, 3
6, 2
0, 1
2, 4
1, 0
2, 0
7, 1
4, 4
2, 1
0, 2
1, 2
4, 1
1, 2
1, 2
2, 0
3, 4
2, 2
2, 2
1, 2
1, 1
3, 4
0, 0
3, 2
0, 3
3, 0
0, 0
2, 7
3, 2
1, 1
1, 4
2, 2
3, 0
2, 0
4, 3
4, 2
1, 0
1, 2
0, 0
1, 2
3, 0
0, 3
5, 3
4, 2
1, 1
5, 2
3, 3
4, 2
3, 7
2, 0
3, 2
8, 3
1, 6
2, 1
2, 5
3, 5
5, 4
4, 3
2, 7
2, 3
1, 3
1, 0
3, 7
1, 3
1, 3
1, 5
0, 3
1, 1
3, 2
0, 4
2, 0
0, 2
1, 2
1, 2
3, 0
0, 2
0, 1
0, 0
2, 1
1, 1
3, 2
2, 1
1, 2
0, 3
4, 4
3, 2
2, 0
1, 0
1, 1
2, 0
2, 1
1, 0
1, 1
2, 1
1, 3
2, 2
1, 0
0, 4
0, 1
0, 3
0, 3
1, 1
3, 3
0, 0
2, 1
0, 2
2, 2
0, 2
3, 1
0, 2
1, 2
1, 3
3, 3
1, 1
0, 1
1, 2
1, 1
2, 1
2, 0
0, 0
1, 3
0, 3
2, 2
1, 1
0, 1
0, 2
1, 3
1, 0
0, 2
1, 0
3, 2
0, 1
1, 1
1, 1
1, 3
0, 2
0, 1
0, 2
1, 1
1, 2
1, 1
1, 1
0, 2
0, 0
0, 0
0, 0
3, 1
0, 0
3, 2
0, 3
1, 0
1, 0
0, 2
1, 0
0, 1
1, 1
0, 0
0, 0
3, 0
0, 0
0, 1
0, 0
1, 4
0, 1
0, 0
1, 0
1, 0
0, 0
1, 1
0, 4
0, 1
0, 0
1, 0
0, 1
1, 1
1, 0
0, 0
1, 0
0, 0
0, 1
2, 1
1, 0
2, 1
0, 0
0, 0
3, 0
0, 0
2, 0
1, 2
0, 2
1, 1
0, 0
2, 1
1, 3
0, 1
0, 1
2, 0
0, 0
0, 1
0, 0
3, 5
1, 0
0, 1
2, 0
0, 0
0, 1
0, 1
0, 1
1, 1
2, 1
0, 1
0, 0
0, 2
1, 0
0, 0
0, 1
0, 0
0, 0
0, 0
0, 0
0, 0
2, 0
0, 1
2, 2
1, 1
0, 1
0, 0
1, 0
0, 0
1, 1
0, 1
0, 0
0, 0
1, 0
0, 1
0, 0
1, 0
1, 1
1, 0
0, 0
0, 0
0, 1
0, 0
0, 0
0, 0
0, 0
0, 2
0, 0
0, 1
1, 1
0, 1
0, 0
0, 2
0, 0
0, 0
1, 2
0, 0
0, 0
0, 1
0, 0
1, 0
0, 0
0, 0
0, 0
0, 0
0, 1
1, 3
0, 0
0, 2
2, 0
1, 1
0, 2
0, 0
0, 0
0, 1
0, 0
1, 0
0, 0
0, 0
0, 0
0, 0
0, 2
0, 1
0, 0
0, 0
0, 0
0, 0
0, 1
0, 0
3, 0
0, 0
0, 1
0, 0
0, 1
0, 0
0, 0
0, 0
1, 0
0, 0
0, 0
0, 1
0, 1
0, 0
0, 0
1, 0
0, 0
0, 0
0, 0
1, 0
1, 0
0, 1
0, 0
1, 0
0, 1
0, 1
1, 0
0, 0
0, 0
1, 0
0, 0
1, 1
0, 0
0, 0
1, 0
0, 0
0, 0
0, 2
1, 0
0, 0
0, 0
0, 0
0, 0
0, 0
0, 0
0, 0
0, 1
0, 0
0, 1
0, 0
0, 0
0, 0
0, 0
0, 0
0, 0
0, 0
0, 0
0, 0
0, 0
1, 0
0, 1
1, 0
1, 0
0, 0
0, 0
0, 1
0, 0
0, 0
0, 0
0, 0
0, 1
0, 0
0, 0
0, 1
0, 0
0, 0
1, 0
0, 0
0, 0
0, 0
0, 0
0, 0
1, 0
0, 0
0, 1
0, 0
1, 0
0, 0
0, 0
0, 0
0, 0
0, 0
0, 0
0, 0
0, 0
0, 0
0, 0
0, 0
0, 0
0, 1
0, 0
0, 0
0, 1
0, 1
0, 0
0, 0
0, 0
0, 0
0, 0
0, 0
0, 1
1, 0
0, 0
0, 0
0, 1
0, 0
0, 0
0, 0
0, 0
1, 0
0, 0
0, 0
0, 0
0, 0
0, 0
0, 0
0, 0
0, 0
0, 0
0, 0
0, 0
0, 0
0, 0
0, 1
0, 0
0, 0
0, 0
0, 0
0, 0
0, 0
0, 0
0, 0
0, 0
0, 0
0, 0
0, 0
0, 0
0, 0
0, 0
0, 0
0, 0
0, 0
0, 0
0, 0
0, 0
1, 0
0, 0
0, 0
0, 0
0, 0
0, 0
0, 0
0, 0
0, 0
0, 0
0, 0
0, 0
0, 0
0, 0
0, 0
0, 0
0, 0
0, 0
0, 0
0, 0
0, 0
0, 0
0, 0
0, 0
0, 1
0, 0
0, 0
0, 0
0, 0
0, 0
0, 0
0, 0
0, 0
0, 0
0, 0
0, 0
0, 0
0, 0
0, 0
0, 0
0, 0
0, 0
0, 0
0, 0
1, 0
0, 0
0, 0
0, 0
0, 0
0, 0
0, 0
0, 0
0, 0
0, 0
0, 0
0, 0
0, 0
0, 0
0, 0
0, 0
0, 0
0, 0
0, 0
0, 0
0, 0
0, 0
0, 0
0, 0
0, 0
0, 0
0, 0
0, 0
0, 0
0, 0
0, 0
0, 0
0, 0
0, 1
0, 0
0, 0
0, 0
0, 0
0, 0
0, 0
0, 0
0, 0
0, 0
0, 0
0, 0
0, 0
0, 0
0, 0
0, 0
0, 0
0, 0
0, 0
0, 0
0, 0
0, 0
0, 0
0, 0
0, 0
0, 0
0, 0
0, 0
0, 0
0, 0
0, 0
0, 1
0, 0
0, 0
0, 0
0, 0
0, 0
0, 0
0, 0
0, 0
0, 0
0, 0
0, 0
0, 0
0, 0
0, 0
0, 0
0, 0
0, 0
0, 0
0, 0
0, 0
0, 0
0, 0
0, 0
0, 0
0, 0
0, 0
0, 0
0, 0
0, 0
0, 0
0, 0
0, 0
0, 0
0, 0
0, 0
0, 0
0, 0
0, 0
0, 0
0, 0
0, 0
0, 0
0, 0
0, 0
0, 0
0, 0
0, 0
0, 0
0, 0
0, 0
0, 0
0, 0
0, 0
0, 0
0, 0
0, 0
0, 0
0, 0
0, 0
0, 0
0, 0
0, 0
0, 0
0, 0
0, 0
0, 0
0, 0
0, 0
0, 0
0, 0
0, 0
0, 0
0, 0
0, 0
0, 0
0, 0
0, 0
0, 0
0, 0
0, 0
0, 0
0, 0
0, 0
0, 0
0, 0
0, 0
0, 0
0, 0
0, 0
0, 0
0, 0
0, 0
0, 0
0, 0
0, 0
0, 0
0, 0
0, 0
0, 0
0, 0
0, 0
0, 0
0, 0
0, 0
0, 0
0, 0
0, 0
0, 0
0, 0
0, 0
0, 0
0, 0
0, 0
0, 0
0, 0
0, 0
0, 0
0, 0
0, 0
0, 0
0, 0
0, 0
0, 0
0, 0
0, 0
0, 0
0, 0
0, 0
0, 0
0, 0
0, 0
0, 0
0, 0
0, 0
0, 0
0, 0
0, 0
0, 0
0, 0
0, 0
0, 0
0, 0
0, 0
0, 0
0, 0
0, 0
0, 0
0, 0
0, 0
0, 0
0, 0
0, 0
0, 0
0, 0
0, 0
0, 0
0, 0
0, 0
0, 0
0, 0
0, 0
0, 0
0, 0
0, 0
0, 0
0, 0
0, 0
0, 0
0, 0
0, 0
0, 0
0, 0
0, 0
0, 0
0, 0
0, 0
0, 0
0, 0
0, 0
0, 0
0, 0
0, 0
0, 0
0, 0
0, 0
0, 0
0, 0
0, 0
0, 0
0, 0
0, 0
0, 0
0, 0
0, 0
0, 0
0, 0
0, 0
0, 0
0, 0
0, 0
0, 0
0, 0
0, 0
0, 0
0, 0
0, 0
0, 0
0, 0
0, 0
0, 0
0, 0
0, 0
0, 0
0, 0
0, 0
0, 0
0, 0
0, 0
0, 0
0, 0
0, 0
0, 0
0, 0
0, 0
0, 0
0, 0
0, 0
0, 0
0, 0
0, 0
0, 0
0, 0
0, 0
0, 0
0, 0
0, 0
0, 0
0, 0
0, 0
0, 0
0, 0
0, 0
0, 0
0, 0
0, 0
0, 0
0, 0
0, 0
0, 0
0, 0
0, 0
0, 0
0, 0
0, 0
0, 0
0, 0
0, 0
0, 0
0, 0
0, 0
0, 0
0, 0
0, 0
0, 0
0, 0
0, 0
0, 0
0, 0
0, 0
0, 0
0, 0
0, 0
0, 0
0, 0
0, 0
0, 0
0, 0
0, 0
0, 0
0, 0
0, 0
0, 0
0, 0
0, 0
0, 0
0, 0
0, 0
0, 0
0, 0
0, 0
0, 0
0, 0
0, 0
0, 0
0, 0
0, 0
0, 0
0, 0
0, 0
0, 0
0, 0
0, 0
0, 0
0, 0
0, 0
0, 0
0, 0
0, 0
0, 0
0, 0
0, 0
0, 0
0, 0
0, 0
0, 0
0, 0
0, 0
0, 0
0, 0
0, 0
0, 0
0, 0
0, 0
0, 0
0, 0
0, 0
#ENDOFDATA     end of spectrum data