File: host_upload/06-09-2024/ps_0852/dump3/ps__0852shot_2002.msa
#FORMAT      : EMSA/MAS spectral data file
#VERSION     : TC202v2.0 PIXL
#TITLE       : N/A
#DATE        :       Date in the format DD-MMM-YYYY, for example 07-JUL-2010
#TIME        :             The time of day at which the spectrum was recorded, in 24-hour format
#OWNER       : PIXL Flight Model       (PIXL will use this to indicate which instrument took the data.)
#NPOINTS     : 4096     Number of data points in the spectrum (This can be zero for configuration only files)
#NCOLUMNS    : 2     Number of data columns in the spectrum (This can be zero for configuration only files)
#XUNITS      : eV
#YUNITS      : COUNTS
#DATATYPE    : YY
#XPERCHAN    : 7.862, 7.881   eV per channel (separate by commas if more than one detector)
#OFFSET      : 18.5, -22.4         eV of first channel  (separate by commas if more than one detector
#SIGNALTYPE  : XRF
#YP_TEMP     : 2.364
#LIVETIME    : 8.57503, 8.55323   seconds (separate by commas if more than one detector)
#REALTIME    : 10, 10.0   seconds (separate by commas if more than one detector)
#SPECTRUM    : start of spectrum data
0, 0
0, 0
0, 0
0, 0
0, 0
0, 0
0, 0
0, 0
0, 0
0, 0
0, 0
0, 0
0, 0
0, 0
0, 0
0, 0
0, 0
0, 0
0, 0
0, 0
0, 0
0, 0
0, 0
0, 0
0, 0
0, 0
0, 0
0, 0
0, 0
0, 0
0, 0
0, 0
0, 0
0, 0
0, 1
0, 0
1, 0
1, 0
0, 0
2, 1
0, 1
0, 0
0, 1
1, 2
2, 0
3, 2
2, 2
2, 3
5, 8
14, 9
21, 22
32, 49
53, 77
68, 76
70, 85
65, 79
58, 60
50, 34
29, 33
16, 15
7, 7
1, 8
3, 1
1, 4
1, 4
4, 5
2, 4
13, 10
16, 33
44, 48
78, 90
155, 143
205, 239
299, 362
357, 421
324, 437
343, 378
268, 277
158, 179
108, 114
66, 63
35, 31
20, 17
9, 8
1, 1
1, 3
1, 3
1, 0
2, 3
1, 0
1, 3
1, 2
1, 3
1, 1
2, 2
3, 2
2, 3
0, 2
1, 7
4, 7
1, 3
3, 2
2, 4
2, 1
4, 3
0, 3
2, 2
2, 1
6, 5
7, 10
6, 8
11, 9
20, 18
26, 22
34, 31
34, 33
18, 24
21, 19
25, 23
12, 30
13, 35
9, 24
12, 26
16, 26
13, 14
14, 17
15, 12
9, 7
1, 9
7, 6
9, 2
1, 6
2, 2
4, 9
0, 9
2, 4
1, 6
3, 7
4, 17
0, 9
3, 6
0, 6
2, 0
1, 4
2, 2
2, 0
0, 2
1, 2
3, 2
3, 3
1, 2
3, 6
1, 4
9, 8
10, 13
13, 14
13, 17
18, 16
15, 19
17, 22
14, 13
2, 11
8, 8
11, 7
2, 3
4, 2
4, 3
3, 8
5, 5
7, 6
8, 7
8, 4
8, 4
4, 6
4, 3
2, 2
5, 1
2, 3
0, 6
7, 3
0, 2
1, 6
1, 3
5, 8
1, 3
5, 5
3, 5
4, 2
5, 2
3, 6
9, 3
6, 7
4, 6
4, 5
16, 5
9, 7
12, 10
11, 11
7, 20
8, 20
4, 34
6, 45
15, 54
12, 83
8, 102
9, 116
6, 125
5, 103
7, 108
8, 88
8, 61
16, 38
17, 32
20, 13
22, 6
18, 10
29, 7
16, 7
12, 9
19, 3
8, 6
11, 4
5, 2
12, 9
11, 6
9, 10
10, 14
6, 15
12, 10
15, 16
9, 12
11, 14
10, 18
9, 13
6, 7
10, 14
4, 14
6, 8
8, 13
5, 11
5, 4
12, 10
9, 16
6, 13
15, 18
17, 20
21, 42
28, 42
36, 61
43, 54
49, 87
51, 75
43, 66
25, 56
34, 42
41, 39
27, 27
17, 19
17, 18
21, 25
26, 20
39, 35
54, 59
68, 106
133, 209
250, 380
424, 614
641, 910
915, 1333
1262, 1759
1534, 2256
1913, 2461
1940, 2456
2032, 2275
1760, 2006
1385, 1623
1080, 1160
801, 789
520, 476
299, 284
176, 161
100, 103
41, 54
30, 25
24, 12
20, 18
16, 18
11, 17
12, 12
17, 22
27, 29
31, 34
38, 63
61, 93
77, 134
127, 177
166, 265
201, 300
251, 334
259, 338
302, 377
297, 307
287, 312
195, 223
164, 178
126, 107
73, 72
44, 44
26, 20
18, 14
13, 7
2, 6
4, 12
6, 11
9, 14
6, 18
12, 13
9, 18
9, 20
10, 19
10, 10
7, 14
11, 3
7, 9
5, 9
4, 2
7, 5
4, 4
5, 3
3, 3
6, 6
8, 5
2, 2
5, 4
1, 7
4, 6
2, 10
2, 13
2, 12
2, 18
5, 17
2, 29
5, 22
5, 17
1, 34
4, 17
6, 15
4, 19
6, 16
1, 16
4, 6
2, 4
2, 7
3, 7
3, 5
6, 5
4, 2
6, 1
8, 4
1, 4
3, 6
6, 1
3, 4
4, 8
2, 5
1, 1
9, 7
4, 6
3, 6
4, 3
2, 4
4, 6
1, 5
0, 4
1, 2
2, 5
4, 7
2, 6
2, 6
3, 9
2, 7
3, 5
2, 2
2, 5
1, 4
4, 5
2, 4
5, 4
1, 4
3, 4
4, 8
4, 6
5, 0
5, 4
4, 1
2, 5
2, 1
4, 2
4, 3
0, 4
1, 3
2, 2
4, 2
3, 3
5, 2
3, 7
2, 3
1, 6
5, 2
3, 5
4, 8
1, 3
1, 7
3, 5
1, 6
4, 7
4, 2
0, 2
1, 1
1, 2
2, 3
4, 6
2, 2
2, 0
7, 6
1, 5
3, 4
3, 4
5, 3
2, 5
1, 7
3, 4
9, 6
4, 8
3, 13
4, 14
3, 9
3, 16
3, 14
4, 17
5, 9
1, 8
4, 9
2, 15
1, 9
1, 7
2, 6
3, 7
1, 1
3, 3
1, 3
2, 4
2, 0
3, 1
6, 1
2, 6
2, 2
1, 5
1, 3
1, 3
2, 1
1, 1
3, 2
2, 5
0, 2
1, 1
0, 3
5, 7
1, 4
1, 1
2, 3
2, 4
0, 1
1, 3
3, 1
4, 5
1, 2
3, 2
0, 1
5, 2
2, 2
0, 4
3, 1
0, 3
3, 3
2, 3
1, 3
3, 1
4, 0
0, 2
2, 2
0, 2
0, 3
0, 1
4, 3
4, 3
3, 4
1, 4
0, 7
3, 2
1, 3
1, 3
1, 6
1, 4
1, 3
2, 6
2, 7
3, 5
0, 3
1, 3
6, 2
3, 2
3, 4
0, 3
3, 1
1, 0
3, 1
2, 2
2, 1
0, 1
5, 2
1, 2
2, 2
1, 2
1, 1
0, 3
0, 1
0, 3
2, 0
2, 0
2, 6
0, 1
0, 2
2, 2
1, 1
1, 2
2, 2
2, 8
2, 3
2, 3
2, 5
1, 0
1, 2
4, 3
5, 1
2, 7
1, 2
1, 2
4, 3
5, 4
0, 3
1, 4
2, 1
1, 0
2, 0
2, 5
0, 1
1, 0
2, 1
2, 1
2, 0
1, 1
1, 2
3, 1
1, 4
1, 0
2, 4
1, 2
3, 0
3, 0
2, 4
2, 1
4, 1
5, 4
0, 1
2, 1
1, 0
1, 2
0, 0
1, 0
1, 1
0, 1
1, 1
1, 0
0, 2
1, 0
2, 1
0, 1
2, 0
2, 2
2, 3
1, 0
0, 0
0, 1
0, 2
0, 1
3, 0
4, 2
0, 2
0, 1
1, 2
2, 2
0, 0
1, 3
0, 2
1, 1
0, 1
2, 0
0, 0
0, 1
0, 0
1, 0
0, 2
1, 1
0, 1
0, 1
0, 0
1, 0
0, 3
2, 2
0, 3
0, 0
0, 4
1, 2
1, 1
0, 0
1, 0
1, 0
0, 0
0, 2
1, 1
0, 1
0, 0
2, 1
1, 0
0, 0
0, 1
1, 0
1, 2
0, 0
0, 0
0, 1
0, 0
0, 2
0, 0
0, 0
1, 0
1, 0
0, 0
0, 0
1, 0
2, 1
0, 2
1, 0
0, 0
0, 0
0, 1
1, 0
1, 0
0, 1
0, 0
0, 1
1, 0
0, 0
0, 1
0, 0
0, 2
0, 0
0, 1
0, 1
0, 0
0, 0
0, 1
0, 1
1, 0
0, 0
0, 0
0, 0
0, 2
1, 0
0, 1
0, 0
0, 1
0, 1
0, 2
0, 0
0, 0
0, 0
0, 1
0, 1
0, 1
1, 0
1, 1
0, 0
0, 1
0, 0
1, 0
1, 1
0, 0
0, 1
0, 1
0, 0
0, 0
0, 0
1, 0
0, 0
0, 0
0, 0
0, 1
1, 0
0, 1
0, 0
0, 0
0, 0
1, 1
1, 1
1, 3
0, 1
0, 0
0, 0
0, 1
0, 1
1, 0
0, 0
1, 0
0, 0
0, 1
0, 0
0, 0
0, 1
1, 1
1, 0
0, 2
0, 0
0, 1
0, 0
1, 0
0, 1
0, 0
0, 0
0, 0
1, 0
0, 0
0, 0
0, 0
0, 1
0, 1
0, 1
0, 0
0, 0
0, 0
1, 0
0, 1
1, 0
0, 0
0, 0
0, 0
0, 0
0, 1
1, 0
1, 0
1, 0
0, 1
0, 1
2, 0
2, 0
0, 1
0, 0
0, 0
0, 0
0, 0
0, 1
0, 0
0, 0
0, 1
0, 0
0, 1
1, 0
0, 0
0, 1
0, 0
0, 0
0, 0
0, 0
0, 1
1, 0
1, 0
0, 0
1, 0
0, 0
0, 1
0, 0
0, 0
0, 0
1, 0
0, 0
0, 1
0, 0
0, 0
0, 0
0, 0
0, 1
0, 0
0, 1
0, 0
0, 0
0, 0
0, 0
0, 0
0, 0
0, 3
0, 0
0, 0
0, 0
1, 0
1, 0
0, 0
0, 0
1, 0
0, 0
0, 0
0, 1
0, 0
0, 0
0, 0
0, 1
0, 0
0, 0
0, 0
0, 0
1, 0
0, 0
0, 0
0, 0
0, 1
0, 1
0, 0
0, 0
1, 0
1, 0
0, 0
0, 0
0, 0
0, 0
0, 0
0, 0
0, 0
0, 0
1, 0
1, 0
0, 0
0, 0
1, 0
0, 0
0, 1
0, 0
2, 0
0, 1
0, 0
0, 0
0, 0
0, 0
0, 0
0, 0
0, 0
0, 0
1, 0
0, 0
0, 0
0, 1
0, 0
0, 0
0, 0
0, 0
0, 0
0, 1
0, 0
0, 0
0, 0
0, 0
0, 0
0, 0
0, 0
0, 0
0, 0
0, 0
0, 0
0, 0
0, 0
0, 0
0, 0
0, 0
0, 0
0, 0
0, 0
0, 0
0, 0
0, 0
0, 0
0, 0
1, 0
0, 0
0, 0
0, 0
0, 0
0, 0
0, 0
0, 0
0, 0
0, 0
0, 0
0, 0
0, 0
0, 0
0, 0
0, 0
0, 0
0, 0
0, 0
0, 0
0, 0
0, 0
0, 0
0, 0
0, 0
0, 0
0, 0
0, 0
0, 0
0, 0
0, 1
0, 0
0, 0
0, 0
0, 0
0, 0
0, 0
0, 0
0, 0
0, 0
0, 1
0, 0
0, 0
0, 0
0, 0
0, 1
0, 0
0, 0
0, 0
0, 0
0, 0
0, 0
0, 0
0, 0
0, 0
0, 0
0, 0
0, 0
0, 0
0, 0
0, 0
0, 0
0, 0
0, 0
0, 0
0, 0
0, 0
0, 0
0, 0
0, 0
0, 0
0, 0
1, 0
0, 0
0, 0
0, 0
0, 0
0, 0
0, 0
0, 0
0, 0
0, 0
0, 0
0, 0
0, 0
0, 0
0, 0
0, 0
0, 0
0, 0
0, 0
0, 0
0, 0
0, 0
0, 0
0, 0
0, 0
1, 0
0, 0
0, 0
0, 0
0, 0
0, 0
0, 0
0, 0
0, 0
0, 0
0, 0
0, 0
0, 0
0, 0
0, 0
0, 0
0, 0
0, 0
0, 0
0, 0
0, 0
0, 0
0, 0
0, 0
0, 0
0, 0
0, 0
0, 0
0, 0
0, 0
0, 0
0, 0
0, 0
0, 0
0, 0
0, 0
0, 0
0, 0
0, 0
0, 0
0, 0
0, 0
0, 0
0, 0
0, 0
0, 0
0, 0
0, 0
0, 0
0, 0
0, 0
0, 0
0, 0
0, 0
0, 0
0, 0
0, 0
0, 0
0, 0
0, 0
0, 0
0, 0
0, 0
0, 0
0, 0
0, 0
0, 0
0, 0
0, 0
0, 0
0, 0
0, 0
0, 0
0, 0
0, 0
0, 0
0, 0
0, 0
0, 0
0, 0
0, 0
0, 0
0, 0
0, 0
0, 0
0, 0
0, 0
0, 0
0, 0
0, 0
0, 0
0, 0
0, 0
0, 0
0, 0
0, 0
0, 0
0, 0
0, 0
0, 0
0, 0
0, 0
0, 0
0, 0
0, 0
0, 0
0, 0
0, 0
0, 0
0, 0
0, 0
0, 0
0, 0
0, 0
0, 0
0, 0
0, 0
0, 0
0, 0
0, 0
0, 0
0, 0
0, 0
0, 0
0, 0
0, 0
0, 0
0, 0
0, 0
0, 0
0, 0
0, 0
0, 0
0, 0
0, 0
0, 0
0, 0
0, 0
0, 0
0, 0
0, 0
0, 0
0, 0
0, 0
0, 0
0, 0
0, 0
0, 0
0, 0
0, 0
0, 0
0, 0
0, 0
0, 0
0, 0
0, 0
0, 0
0, 0
0, 0
0, 0
0, 0
0, 0
0, 0
0, 0
0, 0
0, 0
0, 0
0, 0
0, 0
0, 0
0, 0
0, 0
0, 0
0, 0
0, 0
0, 0
0, 0
0, 0
0, 0
0, 0
0, 0
0, 0
0, 0
0, 0
0, 0
0, 0
0, 0
0, 0
0, 0
0, 0
0, 0
0, 0
0, 0
0, 0
0, 0
0, 0
0, 0
0, 0
0, 0
0, 0
0, 0
0, 0
0, 0
0, 0
0, 0
0, 0
0, 0
0, 0
0, 0
0, 0
0, 0
0, 0
0, 0
0, 0
0, 0
0, 0
0, 0
0, 0
0, 0
0, 0
0, 0
0, 0
0, 0
0, 0
0, 0
0, 0
0, 0
0, 0
0, 0
0, 0
0, 0
0, 0
0, 0
0, 0
0, 0
0, 0
0, 0
0, 0
0, 0
0, 0
0, 0
0, 0
0, 0
0, 0
0, 0
0, 0
0, 0
0, 0
0, 0
0, 0
0, 0
0, 0
0, 0
0, 0
0, 0
0, 0
0, 0
0, 0
0, 0
0, 0
0, 0
0, 0
0, 0
0, 0
0, 0
0, 0
0, 0
0, 0
0, 0
0, 0
0, 0
0, 0
0, 0
0, 0
0, 0
0, 0
0, 0
0, 0
0, 0
0, 0
0, 0
0, 0
0, 0
0, 0
0, 0
0, 0
0, 0
0, 0
0, 0
0, 0
0, 0
0, 0
0, 0
0, 0
0, 0
0, 0
0, 0
0, 0
0, 0
0, 0
0, 0
0, 0
0, 0
0, 0
0, 0
0, 0
0, 0
0, 0
0, 0
0, 0
0, 0
0, 0
0, 0
0, 0
0, 0
0, 0
0, 0
0, 0
0, 0
0, 0
0, 0
0, 0
0, 0
0, 0
0, 0
0, 0
0, 0
0, 0
0, 0
0, 0
0, 0
0, 0
0, 0
0, 0
0, 0
0, 0
0, 0
0, 0
0, 0
0, 0
0, 0
0, 0
0, 0
0, 0
0, 0
0, 0
0, 0
0, 0
0, 0
0, 0
0, 0
0, 0
0, 0
0, 0
0, 0
0, 0
0, 0
0, 0
0, 0
0, 0
0, 0
0, 0
0, 0
0, 0
0, 0
0, 0
0, 0
0, 0
0, 0
#ENDOFDATA     end of spectrum data