File: host_upload/06-09-2024/ps_0852/dump3/ps__0852shot_2133.msa
#FORMAT      : EMSA/MAS spectral data file
#VERSION     : TC202v2.0 PIXL
#TITLE       : N/A
#DATE        :       Date in the format DD-MMM-YYYY, for example 07-JUL-2010
#TIME        :             The time of day at which the spectrum was recorded, in 24-hour format
#OWNER       : PIXL Flight Model       (PIXL will use this to indicate which instrument took the data.)
#NPOINTS     : 4096     Number of data points in the spectrum (This can be zero for configuration only files)
#NCOLUMNS    : 2     Number of data columns in the spectrum (This can be zero for configuration only files)
#XUNITS      : eV
#YUNITS      : COUNTS
#DATATYPE    : YY
#XPERCHAN    : 7.862, 7.881   eV per channel (separate by commas if more than one detector)
#OFFSET      : 18.5, -22.4         eV of first channel  (separate by commas if more than one detector
#SIGNALTYPE  : XRF
#YP_TEMP     : 2.3
#LIVETIME    : 8.59085, 8.54845   seconds (separate by commas if more than one detector)
#REALTIME    : 10, 10.0   seconds (separate by commas if more than one detector)
#SPECTRUM    : start of spectrum data
0, 0
0, 0
0, 0
0, 0
0, 0
0, 0
0, 0
0, 0
0, 0
0, 0
0, 0
0, 0
0, 0
0, 0
0, 0
0, 0
0, 0
0, 0
0, 0
0, 0
0, 0
0, 0
0, 0
0, 0
0, 0
0, 0
0, 0
1, 0
0, 0
0, 0
0, 0
0, 0
0, 0
0, 0
0, 0
2, 0
2, 0
5, 1
5, 0
8, 2
9, 0
7, 1
8, 2
8, 5
7, 1
9, 1
5, 2
2, 3
4, 9
10, 13
31, 25
48, 42
55, 55
76, 69
77, 71
66, 76
73, 55
39, 35
23, 27
11, 14
7, 16
2, 2
6, 4
4, 2
6, 2
4, 5
10, 7
8, 12
13, 28
39, 50
99, 97
197, 148
289, 261
335, 348
468, 441
458, 438
350, 334
333, 303
220, 191
121, 119
78, 65
41, 32
21, 13
17, 10
8, 7
6, 2
3, 6
5, 4
2, 2
3, 2
3, 0
3, 2
1, 1
1, 2
3, 4
5, 4
1, 4
4, 4
6, 9
7, 7
5, 5
6, 4
9, 3
5, 1
8, 3
5, 5
10, 7
21, 8
61, 20
107, 29
243, 34
368, 37
586, 47
732, 70
910, 75
943, 92
898, 80
724, 75
543, 62
384, 61
227, 38
132, 26
81, 39
42, 25
27, 15
30, 19
22, 11
18, 11
11, 12
4, 9
7, 5
6, 3
2, 1
2, 2
4, 3
0, 1
1, 2
2, 2
2, 0
1, 1
3, 3
1, 1
0, 1
3, 1
2, 2
3, 1
4, 2
3, 5
5, 2
4, 6
2, 8
7, 17
0, 20
9, 13
14, 10
7, 18
20, 16
21, 19
11, 12
9, 21
11, 15
10, 13
7, 4
5, 4
6, 11
7, 14
8, 28
12, 46
17, 55
17, 58
14, 75
16, 71
17, 81
13, 65
8, 50
8, 36
5, 26
3, 14
6, 14
3, 6
1, 6
3, 9
10, 6
4, 6
5, 3
4, 3
3, 4
3, 2
7, 9
8, 9
10, 8
6, 9
14, 8
19, 13
8, 9
11, 12
14, 7
17, 11
11, 6
8, 5
13, 13
13, 6
11, 9
13, 9
4, 2
5, 5
6, 5
10, 6
4, 8
2, 8
4, 6
4, 7
7, 8
4, 3
5, 5
5, 7
11, 5
2, 4
3, 7
7, 8
5, 15
5, 16
5, 21
12, 17
12, 25
7, 21
12, 23
10, 19
17, 19
10, 21
9, 20
12, 19
9, 10
13, 10
8, 11
9, 7
11, 10
13, 6
8, 8
7, 11
1, 9
11, 6
5, 4
8, 9
15, 14
20, 17
22, 31
35, 36
50, 46
56, 58
69, 63
65, 59
48, 66
47, 49
44, 34
47, 32
27, 21
14, 9
21, 13
25, 15
22, 11
31, 32
43, 60
90, 87
156, 196
331, 360
473, 559
801, 937
1134, 1301
1583, 1680
1935, 2075
2291, 2267
2424, 2351
2320, 2146
2110, 1888
1786, 1502
1323, 1110
918, 752
608, 432
364, 292
236, 146
126, 91
56, 67
49, 53
35, 56
37, 48
36, 50
39, 50
29, 43
19, 38
29, 40
41, 41
46, 50
68, 86
96, 134
132, 187
210, 202
246, 282
333, 316
354, 371
324, 366
334, 307
315, 266
245, 207
186, 171
133, 103
105, 69
57, 56
33, 20
21, 11
11, 8
13, 4
6, 5
12, 5
13, 9
10, 11
15, 9
12, 9
15, 11
11, 12
8, 10
11, 10
12, 9
11, 8
7, 6
5, 2
1, 2
1, 3
1, 1
1, 1
3, 2
2, 5
3, 8
1, 3
5, 3
7, 11
4, 7
3, 4
2, 4
9, 11
10, 8
3, 7
10, 7
3, 5
12, 7
7, 8
10, 9
3, 11
6, 9
8, 4
6, 11
6, 9
4, 4
8, 5
6, 3
4, 2
4, 2
4, 3
4, 7
4, 4
5, 3
3, 7
3, 1
6, 2
4, 4
2, 0
5, 5
3, 4
5, 2
3, 4
6, 2
3, 6
3, 5
8, 0
2, 0
3, 5
7, 4
4, 1
5, 3
5, 2
1, 2
5, 0
6, 2
7, 4
6, 1
2, 9
5, 1
7, 3
4, 1
2, 4
9, 2
2, 3
1, 5
1, 2
3, 4
5, 1
3, 4
11, 3
4, 7
6, 2
1, 5
7, 4
4, 7
5, 5
9, 3
5, 7
0, 2
4, 4
3, 4
4, 3
1, 1
3, 6
2, 5
4, 4
6, 4
1, 1
5, 1
5, 5
0, 4
3, 4
2, 4
2, 0
5, 3
4, 4
1, 3
2, 1
3, 2
3, 6
4, 0
2, 2
1, 2
2, 2
0, 2
5, 1
3, 3
1, 2
1, 0
1, 1
2, 3
2, 4
1, 2
2, 2
0, 5
1, 2
1, 1
3, 3
2, 3
2, 2
4, 6
1, 0
5, 4
2, 4
1, 5
1, 4
4, 2
5, 5
2, 1
4, 7
3, 5
1, 4
7, 3
4, 4
6, 2
2, 2
4, 1
4, 1
2, 1
5, 2
3, 4
0, 3
2, 4
2, 0
4, 1
3, 3
2, 4
4, 2
1, 0
0, 1
2, 1
0, 1
0, 0
4, 6
1, 1
1, 0
1, 5
0, 8
3, 3
4, 3
1, 0
2, 2
2, 2
1, 4
2, 0
3, 2
3, 2
4, 2
3, 1
0, 1
3, 2
2, 3
2, 6
3, 5
1, 2
1, 0
4, 2
4, 5
1, 1
3, 3
3, 3
3, 10
3, 3
5, 10
2, 6
3, 4
1, 7
1, 3
1, 7
4, 2
0, 3
2, 4
2, 6
3, 4
3, 0
0, 1
2, 0
2, 2
3, 2
2, 2
2, 2
4, 4
2, 1
2, 5
1, 2
6, 1
2, 3
3, 1
2, 2
1, 2
2, 5
3, 3
3, 5
2, 5
3, 7
3, 3
2, 3
0, 3
6, 6
1, 2
3, 4
4, 3
3, 3
1, 3
0, 2
2, 0
0, 1
2, 0
1, 0
3, 1
3, 2
4, 1
2, 0
0, 3
2, 3
3, 2
4, 1
1, 3
1, 4
1, 4
2, 4
1, 1
0, 6
2, 2
0, 5
3, 2
2, 3
0, 4
2, 3
0, 1
2, 3
2, 2
0, 3
0, 0
1, 0
0, 3
1, 2
0, 1
3, 1
0, 3
0, 0
1, 1
0, 0
1, 1
0, 2
1, 1
2, 0
2, 1
1, 1
1, 0
0, 0
2, 1
1, 2
3, 1
0, 3
0, 1
2, 0
0, 1
1, 1
0, 0
0, 0
0, 1
0, 1
0, 1
1, 2
1, 0
0, 1
1, 2
1, 2
0, 0
0, 1
1, 1
0, 0
1, 0
1, 2
1, 2
1, 0
0, 0
1, 1
0, 0
0, 1
1, 0
1, 1
0, 1
0, 0
0, 0
0, 0
0, 1
2, 4
2, 0
0, 1
1, 1
1, 0
0, 2
2, 0
1, 0
0, 1
1, 0
2, 0
0, 0
0, 0
1, 0
0, 1
0, 0
0, 2
0, 0
1, 0
2, 0
0, 0
1, 0
0, 1
1, 1
0, 0
1, 0
1, 0
2, 0
0, 1
0, 0
0, 0
1, 0
0, 1
1, 0
0, 2
1, 0
2, 2
0, 0
1, 1
0, 0
0, 1
2, 0
0, 1
1, 1
0, 1
0, 0
1, 1
0, 0
1, 1
0, 0
0, 2
0, 0
0, 1
0, 0
2, 0
1, 0
0, 0
0, 1
0, 0
0, 0
1, 1
0, 0
0, 1
0, 0
0, 1
1, 0
0, 0
1, 0
1, 1
0, 0
0, 1
0, 0
0, 1
0, 1
0, 0
0, 0
0, 0
0, 0
0, 0
0, 2
1, 0
0, 0
1, 1
0, 0
0, 1
0, 0
0, 0
1, 1
0, 0
0, 0
0, 0
0, 0
0, 0
0, 0
0, 1
2, 0
0, 0
1, 0
0, 0
0, 0
0, 0
0, 1
0, 1
0, 2
0, 0
0, 1
1, 1
1, 0
1, 0
0, 2
0, 1
0, 1
0, 1
0, 0
1, 0
1, 0
0, 1
0, 0
0, 0
2, 0
0, 0
0, 0
0, 0
0, 0
0, 0
0, 0
0, 0
0, 0
1, 0
0, 0
1, 0
0, 1
0, 0
0, 1
0, 1
1, 0
0, 0
1, 0
0, 0
0, 0
0, 0
0, 1
1, 0
1, 0
0, 0
0, 0
0, 0
0, 0
1, 1
0, 0
0, 0
0, 0
0, 0
0, 0
0, 0
0, 0
1, 1
1, 0
0, 1
0, 1
1, 1
0, 1
1, 1
1, 1
0, 1
3, 0
1, 0
0, 0
0, 0
0, 1
0, 0
0, 0
0, 0
0, 0
0, 0
0, 0
0, 0
0, 0
1, 1
1, 0
0, 0
0, 0
0, 0
0, 0
0, 1
0, 0
0, 0
1, 0
0, 0
0, 0
0, 1
0, 0
0, 0
0, 0
1, 0
0, 0
0, 0
0, 0
0, 0
0, 0
0, 0
0, 0
0, 0
0, 0
0, 0
0, 1
0, 1
0, 0
0, 0
0, 0
0, 0
0, 0
0, 0
0, 0
0, 0
0, 0
0, 0
1, 0
0, 1
0, 0
0, 1
0, 0
0, 0
0, 0
0, 0
0, 0
0, 0
0, 0
0, 0
1, 0
0, 0
0, 0
0, 0
0, 0
0, 1
0, 0
0, 0
0, 0
0, 0
0, 1
0, 0
0, 0
0, 0
0, 0
0, 0
0, 0
0, 0
0, 0
0, 0
0, 0
1, 0
0, 0
0, 0
0, 0
1, 0
0, 0
1, 0
0, 0
0, 0
0, 0
0, 0
0, 0
0, 0
1, 0
0, 0
0, 0
0, 0
0, 0
0, 0
0, 0
0, 0
0, 0
0, 0
0, 1
0, 0
0, 0
0, 0
0, 0
0, 0
0, 0
0, 0
0, 0
0, 0
0, 0
1, 0
0, 0
0, 0
0, 0
0, 0
0, 0
0, 0
0, 0
0, 0
0, 0
0, 0
0, 0
0, 0
0, 0
0, 0
0, 0
0, 0
0, 0
0, 0
0, 0
0, 0
0, 0
0, 0
0, 0
0, 0
1, 0
0, 1
0, 0
0, 0
0, 0
0, 0
0, 0
0, 0
0, 0
0, 0
0, 0
0, 0
0, 0
1, 0
0, 0
0, 1
0, 0
0, 0
0, 0
0, 0
0, 0
0, 0
0, 0
0, 0
0, 0
0, 0
0, 0
0, 0
0, 0
0, 0
0, 0
0, 0
0, 0
0, 0
0, 0
0, 0
0, 0
0, 0
0, 0
0, 0
0, 0
0, 0
0, 0
0, 0
0, 0
0, 0
0, 0
0, 0
0, 0
0, 0
0, 0
0, 0
0, 0
0, 0
0, 0
0, 0
0, 0
0, 0
0, 0
0, 0
0, 0
0, 0
0, 0
0, 0
0, 0
0, 0
0, 0
0, 0
0, 0
0, 0
0, 0
0, 0
0, 0
0, 0
0, 0
0, 0
0, 0
0, 0
0, 0
0, 0
0, 0
0, 0
0, 0
0, 0
1, 0
0, 0
0, 0
0, 0
0, 0
0, 0
0, 0
0, 0
0, 0
0, 0
0, 0
0, 0
0, 0
0, 0
0, 0
0, 0
0, 0
0, 0
0, 0
0, 0
0, 0
0, 0
0, 0
0, 0
0, 0
0, 0
0, 0
0, 0
0, 0
0, 0
0, 0
0, 0
0, 0
0, 0
0, 0
0, 0
0, 0
0, 0
0, 0
0, 0
0, 0
0, 0
0, 0
0, 0
0, 0
0, 0
0, 0
0, 0
0, 0
0, 0
0, 0
0, 0
0, 0
0, 0
0, 0
0, 0
0, 0
0, 0
0, 0
0, 0
0, 0
0, 0
0, 0
0, 0
0, 0
0, 0
0, 0
0, 0
0, 0
0, 0
0, 0
0, 0
0, 0
0, 0
0, 0
0, 0
0, 0
0, 0
0, 0
0, 0
0, 0
0, 0
0, 0
0, 0
0, 0
0, 0
0, 0
0, 0
0, 0
0, 0
0, 0
0, 0
0, 0
0, 0
0, 0
0, 0
0, 0
0, 0
0, 0
0, 0
0, 0
0, 0
0, 0
0, 0
0, 0
0, 0
0, 0
0, 0
0, 0
0, 0
0, 0
0, 0
0, 0
0, 0
0, 0
0, 0
0, 0
0, 0
0, 0
0, 0
0, 0
0, 0
0, 0
0, 0
0, 0
0, 0
0, 0
0, 0
0, 0
0, 0
0, 0
0, 0
0, 0
0, 0
0, 0
0, 0
0, 0
0, 0
0, 0
0, 0
0, 0
0, 0
0, 0
0, 0
0, 0
0, 0
0, 0
0, 0
0, 0
0, 0
0, 0
0, 0
0, 0
0, 0
0, 0
0, 0
0, 0
0, 0
0, 0
0, 0
0, 0
0, 0
0, 0
0, 0
0, 0
0, 0
0, 0
0, 0
0, 0
0, 0
0, 0
0, 0
0, 0
0, 0
0, 0
0, 0
0, 0
0, 0
0, 0
0, 0
0, 0
0, 0
0, 0
0, 0
0, 0
0, 0
0, 0
0, 0
0, 0
0, 0
0, 0
0, 0
0, 0
0, 0
0, 0
0, 0
0, 0
0, 0
0, 0
0, 0
0, 0
0, 0
0, 0
0, 0
0, 0
0, 0
0, 0
0, 0
0, 0
0, 0
0, 0
0, 0
0, 0
0, 0
0, 0
0, 0
0, 0
0, 0
0, 0
0, 0
0, 0
0, 0
0, 0
0, 0
0, 0
0, 0
0, 0
0, 0
0, 0
0, 0
0, 0
0, 0
0, 0
0, 0
0, 0
0, 0
0, 0
0, 0
0, 0
0, 0
0, 0
0, 0
0, 0
0, 0
0, 0
0, 0
0, 0
0, 0
0, 0
0, 0
0, 0
0, 0
0, 0
0, 0
0, 0
0, 0
0, 0
0, 0
0, 0
0, 0
0, 0
0, 0
0, 0
0, 0
0, 0
0, 0
0, 0
0, 0
0, 0
0, 0
0, 0
0, 0
0, 0
0, 0
0, 0
0, 0
0, 0
0, 0
0, 0
0, 0
0, 0
0, 0
0, 0
0, 0
0, 0
0, 0
0, 0
0, 0
0, 0
0, 0
0, 0
0, 0
0, 0
0, 0
0, 0
0, 0
0, 0
0, 0
0, 0
0, 0
0, 0
0, 0
0, 0
0, 0
0, 0
0, 0
0, 0
0, 0
0, 0
0, 0
0, 0
0, 0
0, 0
0, 0
0, 0
0, 0
0, 0
0, 0
0, 0
0, 0
0, 0
0, 0
0, 0
0, 0
0, 0
0, 0
0, 0
0, 0
0, 0
0, 0
0, 0
0, 0
0, 0
0, 0
0, 0
0, 0
0, 0
#ENDOFDATA     end of spectrum data