File: host_upload/06-09-2024/ps_0852/dump3/ps__0852shot_2501.msa
#FORMAT      : EMSA/MAS spectral data file
#VERSION     : TC202v2.0 PIXL
#TITLE       : N/A
#DATE        :       Date in the format DD-MMM-YYYY, for example 07-JUL-2010
#TIME        :             The time of day at which the spectrum was recorded, in 24-hour format
#OWNER       : PIXL Flight Model       (PIXL will use this to indicate which instrument took the data.)
#NPOINTS     : 4096     Number of data points in the spectrum (This can be zero for configuration only files)
#NCOLUMNS    : 2     Number of data columns in the spectrum (This can be zero for configuration only files)
#XUNITS      : eV
#YUNITS      : COUNTS
#DATATYPE    : YY
#XPERCHAN    : 7.862, 7.881   eV per channel (separate by commas if more than one detector)
#OFFSET      : 18.5, -22.4         eV of first channel  (separate by commas if more than one detector
#SIGNALTYPE  : XRF
#YP_TEMP     : 2.492
#LIVETIME    : 8.55037, 8.53818   seconds (separate by commas if more than one detector)
#REALTIME    : 10, 10.0   seconds (separate by commas if more than one detector)
#SPECTRUM    : start of spectrum data
0, 0
0, 0
0, 0
0, 0
0, 0
0, 0
0, 0
0, 0
0, 0
0, 0
0, 0
0, 0
0, 0
0, 0
0, 0
0, 0
0, 0
0, 0
0, 0
0, 0
0, 0
0, 0
0, 0
0, 0
0, 0
0, 0
0, 0
0, 0
0, 0
0, 0
0, 0
0, 0
0, 0
0, 1
2, 0
0, 2
1, 1
0, 0
1, 0
0, 0
1, 0
0, 1
2, 1
0, 1
0, 0
1, 1
1, 1
4, 2
1, 4
3, 14
15, 17
36, 50
59, 54
73, 78
74, 98
86, 81
71, 52
38, 33
35, 30
18, 13
5, 8
7, 2
4, 0
2, 5
5, 4
5, 7
7, 5
12, 12
18, 18
44, 54
90, 86
166, 191
227, 297
319, 365
420, 405
404, 425
358, 388
287, 285
203, 180
117, 120
83, 49
34, 36
25, 18
10, 6
4, 4
6, 4
3, 2
3, 3
4, 0
1, 1
4, 2
1, 0
1, 2
0, 1
1, 1
4, 2
0, 2
2, 4
5, 5
5, 3
6, 2
5, 5
1, 3
4, 1
3, 2
7, 3
5, 3
11, 9
8, 15
8, 14
22, 27
30, 17
26, 19
28, 31
44, 34
40, 37
38, 37
53, 25
42, 24
46, 24
30, 22
35, 26
29, 23
25, 24
33, 19
28, 9
8, 7
12, 10
11, 11
8, 9
9, 6
4, 5
5, 4
4, 3
2, 1
1, 3
1, 2
2, 4
2, 2
0, 1
0, 1
3, 3
4, 4
2, 0
4, 0
1, 3
2, 1
1, 1
3, 2
2, 2
2, 2
4, 2
5, 9
1, 6
7, 14
15, 14
13, 16
13, 12
19, 15
6, 11
9, 10
11, 9
6, 11
10, 1
11, 5
6, 4
6, 7
6, 2
4, 2
9, 6
3, 5
6, 6
4, 8
8, 3
4, 5
4, 4
7, 2
6, 11
3, 7
11, 19
3, 15
6, 28
3, 26
1, 27
4, 27
4, 21
7, 22
1, 14
8, 14
12, 11
9, 12
17, 17
15, 13
10, 16
28, 17
17, 28
19, 18
6, 13
14, 20
10, 12
13, 18
7, 14
3, 11
9, 7
4, 11
4, 3
4, 4
6, 10
7, 10
7, 2
7, 5
7, 5
4, 8
5, 8
4, 2
3, 4
7, 4
5, 5
11, 4
3, 8
7, 5
7, 12
13, 14
17, 12
24, 25
28, 30
38, 55
39, 55
49, 59
70, 98
78, 67
68, 77
87, 71
53, 52
44, 42
37, 35
22, 24
15, 14
14, 11
16, 6
9, 15
10, 12
10, 5
6, 15
12, 15
17, 30
31, 34
57, 58
42, 80
57, 88
68, 108
56, 101
70, 138
49, 122
63, 136
34, 134
29, 151
24, 142
19, 125
16, 114
13, 87
32, 73
39, 97
78, 130
159, 201
254, 321
440, 575
783, 949
1049, 1296
1533, 1786
1866, 2167
2229, 2476
2213, 2358
2309, 2298
2019, 1926
1755, 1478
1247, 1038
800, 724
568, 473
322, 252
181, 125
115, 80
60, 38
35, 24
21, 28
17, 16
12, 28
13, 38
11, 34
19, 41
29, 47
41, 50
64, 61
89, 80
129, 146
167, 188
186, 232
245, 296
334, 315
336, 353
349, 375
343, 314
284, 287
241, 219
195, 164
139, 90
86, 52
49, 41
26, 18
20, 13
8, 3
12, 8
8, 9
9, 10
9, 10
10, 10
20, 14
14, 17
10, 18
7, 11
9, 13
11, 8
4, 4
9, 3
3, 3
5, 5
0, 7
3, 3
7, 5
2, 2
4, 4
4, 6
5, 4
3, 2
5, 2
8, 1
2, 5
4, 5
8, 4
10, 6
3, 6
8, 8
6, 2
5, 6
7, 3
3, 5
9, 5
8, 3
8, 3
9, 14
3, 4
4, 7
5, 7
8, 5
6, 6
3, 9
3, 12
2, 3
3, 8
5, 5
3, 3
3, 11
5, 3
2, 1
6, 4
4, 6
4, 2
6, 2
3, 9
5, 4
3, 2
1, 3
4, 5
3, 2
4, 2
3, 3
4, 5
3, 5
4, 2
4, 4
6, 3
4, 7
4, 3
0, 3
3, 3
2, 4
5, 4
3, 2
1, 6
3, 4
7, 6
5, 1
2, 3
4, 0
4, 1
1, 5
3, 4
3, 4
4, 1
4, 5
2, 2
2, 3
2, 5
3, 3
5, 6
3, 3
1, 1
0, 3
3, 5
2, 2
0, 3
4, 3
4, 2
1, 8
2, 4
3, 2
2, 1
0, 5
2, 4
2, 5
4, 4
3, 2
4, 4
2, 2
2, 4
6, 6
4, 3
0, 4
2, 3
1, 1
1, 3
0, 2
3, 4
1, 3
1, 4
2, 4
2, 2
0, 5
4, 2
3, 7
1, 3
3, 3
2, 3
4, 1
4, 1
1, 3
0, 1
2, 1
2, 1
2, 2
4, 1
2, 3
5, 5
2, 2
0, 2
1, 4
2, 4
1, 4
5, 3
4, 3
0, 5
2, 1
0, 2
5, 1
1, 3
0, 1
2, 1
2, 5
1, 1
3, 1
4, 4
2, 5
3, 4
2, 1
2, 4
1, 5
3, 1
0, 2
2, 4
2, 3
0, 1
3, 0
2, 0
0, 2
5, 5
0, 0
4, 2
2, 2
2, 0
2, 5
3, 2
3, 5
6, 0
5, 0
2, 3
2, 5
2, 4
4, 3
0, 3
2, 1
0, 2
0, 1
3, 2
2, 1
5, 6
4, 4
2, 5
0, 3
7, 5
2, 1
0, 4
1, 6
2, 8
2, 6
1, 8
1, 5
2, 0
3, 6
2, 4
4, 1
5, 4
2, 3
3, 0
4, 1
2, 1
3, 2
2, 2
1, 0
3, 3
1, 2
8, 3
1, 2
0, 1
7, 2
2, 5
2, 3
2, 3
4, 0
2, 4
3, 5
5, 5
6, 5
1, 6
2, 4
0, 6
2, 8
5, 1
1, 1
1, 3
0, 3
3, 0
1, 0
1, 2
1, 0
0, 0
0, 1
1, 1
3, 1
2, 2
1, 0
2, 1
3, 3
1, 2
1, 0
2, 0
1, 1
2, 1
2, 3
2, 2
0, 1
1, 1
2, 3
0, 2
2, 4
1, 1
1, 1
1, 1
1, 1
0, 0
0, 1
0, 0
2, 1
0, 0
3, 1
1, 0
0, 1
1, 1
1, 0
1, 1
0, 2
3, 1
3, 1
4, 1
1, 0
1, 2
0, 1
1, 2
1, 0
3, 0
3, 2
0, 1
1, 1
1, 2
1, 2
2, 2
0, 1
0, 1
2, 1
1, 1
1, 0
0, 2
1, 0
0, 1
2, 0
0, 1
1, 0
1, 1
3, 1
1, 1
2, 1
2, 1
1, 1
0, 0
0, 0
0, 1
0, 1
0, 1
0, 1
0, 2
0, 1
0, 1
1, 1
1, 0
4, 0
2, 0
1, 0
0, 0
2, 1
0, 0
1, 1
2, 0
0, 1
0, 0
2, 2
0, 1
0, 1
1, 0
0, 0
1, 0
2, 1
1, 1
0, 1
2, 1
0, 0
1, 0
0, 0
0, 0
0, 1
0, 0
1, 1
0, 0
0, 0
0, 1
1, 0
1, 0
0, 0
0, 0
1, 1
0, 0
0, 0
1, 3
0, 0
0, 0
0, 0
0, 0
2, 0
3, 1
2, 0
0, 0
1, 0
1, 0
1, 0
0, 1
0, 1
1, 0
2, 0
0, 0
0, 0
1, 0
0, 2
1, 0
0, 1
0, 0
0, 0
2, 0
1, 0
0, 1
0, 1
0, 0
1, 0
0, 0
1, 1
0, 0
0, 0
0, 0
0, 0
0, 0
0, 1
0, 0
0, 0
0, 1
0, 0
0, 0
0, 1
0, 0
1, 0
0, 0
0, 1
0, 0
0, 1
0, 0
0, 1
1, 1
0, 0
0, 1
0, 1
0, 0
1, 0
0, 0
1, 0
1, 1
1, 0
0, 0
0, 1
0, 1
0, 0
0, 0
0, 0
0, 0
0, 0
0, 1
0, 0
0, 0
1, 0
0, 1
0, 1
1, 0
0, 0
0, 0
0, 0
0, 0
0, 0
0, 0
1, 0
1, 0
0, 0
0, 0
0, 0
0, 0
1, 1
0, 0
0, 0
0, 0
0, 0
0, 0
0, 0
0, 0
0, 1
0, 0
0, 0
0, 0
0, 0
0, 1
0, 0
0, 0
0, 0
0, 0
0, 0
0, 0
0, 0
0, 1
2, 1
1, 0
0, 0
0, 0
0, 0
0, 0
1, 0
1, 0
0, 0
0, 0
0, 1
1, 0
0, 0
0, 0
0, 0
1, 0
0, 0
0, 0
0, 0
1, 0
1, 0
0, 0
0, 0
0, 0
0, 0
1, 1
0, 0
1, 0
0, 0
0, 0
0, 1
0, 1
0, 0
0, 0
0, 0
0, 0
0, 0
0, 0
0, 0
0, 0
0, 0
0, 0
0, 0
0, 0
0, 1
0, 0
0, 1
0, 0
0, 0
0, 0
0, 0
0, 1
0, 0
0, 0
0, 0
0, 0
0, 0
0, 0
0, 0
0, 0
0, 0
0, 0
0, 0
0, 1
0, 0
0, 0
0, 0
0, 0
0, 0
0, 1
1, 0
1, 0
1, 0
0, 0
0, 1
0, 2
0, 0
0, 0
0, 1
0, 0
0, 1
1, 1
0, 0
0, 0
0, 0
0, 1
0, 0
0, 0
0, 0
0, 0
0, 0
0, 0
0, 1
0, 0
1, 0
0, 0
0, 0
0, 0
0, 0
0, 0
0, 0
0, 0
0, 0
0, 0
0, 0
0, 0
0, 1
0, 0
0, 0
0, 0
0, 0
0, 0
0, 0
0, 0
0, 1
0, 0
0, 1
0, 0
0, 0
0, 0
0, 0
0, 0
0, 0
0, 0
0, 0
0, 0
0, 0
0, 0
0, 0
0, 0
0, 0
0, 0
0, 0
0, 0
0, 0
0, 0
0, 0
0, 0
0, 0
1, 0
0, 0
0, 0
0, 0
0, 0
0, 0
0, 0
0, 0
0, 0
0, 0
0, 0
0, 0
1, 0
0, 0
0, 0
0, 0
0, 0
0, 0
0, 0
0, 0
0, 0
0, 0
0, 0
0, 0
0, 0
0, 0
0, 0
0, 0
0, 0
0, 0
0, 0
0, 0
0, 0
0, 0
0, 0
0, 0
0, 0
0, 0
0, 0
0, 0
0, 0
0, 0
0, 0
0, 1
0, 0
0, 0
0, 0
0, 0
0, 0
0, 0
0, 0
0, 0
0, 0
0, 0
0, 0
0, 0
0, 0
0, 0
0, 0
0, 0
0, 0
0, 0
0, 0
0, 0
0, 0
0, 1
0, 0
0, 0
0, 0
0, 0
0, 0
0, 0
0, 0
0, 0
0, 0
0, 0
0, 0
0, 0
0, 0
0, 0
0, 0
0, 0
0, 0
0, 0
0, 0
0, 0
0, 0
0, 0
0, 0
0, 0
0, 0
0, 0
0, 1
0, 0
0, 0
0, 0
0, 0
0, 0
0, 0
0, 0
0, 0
0, 0
0, 0
0, 0
0, 0
0, 0
0, 0
0, 0
0, 0
0, 0
0, 0
0, 0
0, 0
0, 0
0, 0
0, 0
0, 0
0, 0
0, 0
0, 0
0, 0
0, 0
0, 0
0, 0
0, 0
0, 0
0, 0
0, 0
0, 0
0, 0
0, 0
0, 0
0, 0
0, 0
0, 0
0, 0
0, 0
0, 0
0, 0
0, 0
0, 0
0, 0
0, 0
0, 0
0, 0
0, 0
0, 0
0, 0
0, 0
0, 0
0, 0
0, 0
0, 0
0, 0
0, 0
0, 0
0, 0
0, 0
0, 0
0, 0
0, 0
0, 0
0, 0
0, 0
0, 0
0, 0
0, 0
0, 0
0, 0
0, 0
0, 0
0, 0
0, 0
0, 0
0, 0
0, 0
0, 0
0, 0
0, 0
0, 0
0, 0
0, 0
0, 0
0, 0
0, 0
0, 0
0, 0
0, 0
0, 0
0, 0
0, 0
0, 0
0, 0
0, 0
0, 0
0, 0
0, 0
0, 0
0, 0
0, 0
0, 0
0, 0
0, 0
0, 0
0, 0
0, 0
0, 0
0, 0
0, 0
0, 0
0, 0
0, 0
0, 0
0, 0
0, 0
0, 0
0, 0
0, 0
0, 0
0, 0
0, 0
0, 0
0, 0
0, 0
0, 0
0, 0
0, 0
0, 0
0, 0
0, 0
0, 0
0, 0
0, 0
0, 0
0, 0
0, 0
0, 0
0, 0
0, 0
0, 0
0, 0
0, 0
0, 0
0, 0
0, 0
0, 0
0, 0
0, 0
0, 0
0, 0
0, 0
0, 0
0, 0
0, 0
0, 0
0, 0
0, 0
0, 0
0, 0
0, 0
0, 0
0, 0
0, 0
0, 0
0, 0
0, 0
0, 0
0, 0
0, 0
0, 0
0, 0
0, 0
0, 0
0, 0
0, 0
0, 0
0, 0
0, 0
0, 0
0, 0
0, 0
0, 0
0, 0
0, 0
0, 0
0, 0
0, 0
0, 0
0, 0
0, 0
0, 0
0, 0
0, 0
0, 0
0, 0
0, 0
0, 0
0, 0
0, 0
0, 0
0, 0
0, 0
0, 0
0, 0
0, 0
0, 0
0, 0
0, 0
0, 0
0, 0
0, 0
0, 0
0, 0
0, 0
0, 0
0, 0
0, 0
0, 0
0, 0
0, 0
0, 0
0, 0
0, 0
0, 0
0, 0
0, 0
0, 0
0, 0
0, 0
0, 0
0, 0
0, 0
0, 0
0, 0
0, 0
0, 0
0, 0
0, 0
0, 0
0, 0
0, 0
0, 0
0, 0
0, 0
0, 0
0, 0
0, 0
0, 0
0, 0
0, 0
0, 0
0, 0
0, 0
0, 0
0, 0
0, 0
0, 0
0, 0
0, 0
0, 0
0, 0
0, 0
0, 0
0, 0
0, 0
0, 0
0, 0
0, 0
0, 0
0, 0
0, 0
0, 0
0, 0
0, 0
0, 0
0, 0
0, 0
0, 0
0, 0
0, 0
0, 0
0, 0
0, 0
0, 0
0, 0
0, 0
0, 0
0, 0
0, 0
0, 0
0, 0
0, 0
0, 0
0, 0
0, 0
0, 0
0, 0
0, 0
0, 0
0, 0
0, 0
0, 0
0, 0
0, 0
0, 0
0, 0
0, 0
0, 0
0, 0
0, 0
0, 0
0, 0
0, 0
0, 0
0, 0
0, 0
0, 0
0, 0
0, 0
0, 0
0, 0
0, 0
0, 0
0, 0
0, 0
0, 0
0, 0
0, 0
0, 0
0, 0
0, 0
0, 0
0, 0
0, 0
0, 0
0, 0
0, 0
0, 0
0, 0
0, 0
0, 0
0, 0
0, 0
0, 0
0, 0
0, 0
#ENDOFDATA     end of spectrum data