File: host_upload/06-09-2024/ps_0852/dump3/ps__0852shot_2225.msa
#FORMAT      : EMSA/MAS spectral data file
#VERSION     : TC202v2.0 PIXL
#TITLE       : N/A
#DATE        :       Date in the format DD-MMM-YYYY, for example 07-JUL-2010
#TIME        :             The time of day at which the spectrum was recorded, in 24-hour format
#OWNER       : PIXL Flight Model       (PIXL will use this to indicate which instrument took the data.)
#NPOINTS     : 4096     Number of data points in the spectrum (This can be zero for configuration only files)
#NCOLUMNS    : 2     Number of data columns in the spectrum (This can be zero for configuration only files)
#XUNITS      : eV
#YUNITS      : COUNTS
#DATATYPE    : YY
#XPERCHAN    : 7.862, 7.881   eV per channel (separate by commas if more than one detector)
#OFFSET      : 18.5, -22.4         eV of first channel  (separate by commas if more than one detector
#SIGNALTYPE  : XRF
#YP_TEMP     : 2.364
#LIVETIME    : 8.54768, 8.6005   seconds (separate by commas if more than one detector)
#REALTIME    : 10, 10.0   seconds (separate by commas if more than one detector)
#SPECTRUM    : start of spectrum data
0, 0
0, 0
0, 0
0, 0
0, 0
0, 0
0, 0
0, 0
0, 0
0, 0
0, 0
0, 0
0, 0
0, 0
0, 0
0, 0
0, 0
0, 0
0, 0
0, 0
0, 0
0, 0
0, 0
0, 0
0, 0
0, 0
0, 0
0, 0
0, 0
0, 0
0, 1
0, 1
0, 0
0, 0
1, 0
0, 0
1, 0
0, 3
0, 1
1, 3
0, 2
0, 3
1, 2
0, 0
1, 1
1, 0
3, 1
1, 1
9, 6
20, 14
23, 25
43, 39
60, 62
82, 78
89, 83
104, 81
71, 69
47, 35
40, 27
20, 14
9, 7
7, 2
2, 2
4, 2
5, 0
5, 5
4, 6
8, 4
21, 19
46, 50
118, 98
173, 168
296, 263
366, 362
437, 407
408, 400
392, 372
277, 305
214, 187
134, 112
78, 71
43, 34
25, 23
9, 8
10, 4
4, 4
4, 2
2, 3
3, 0
0, 0
2, 1
1, 0
3, 1
3, 2
2, 3
2, 3
2, 3
3, 3
2, 3
5, 6
2, 5
5, 3
2, 5
3, 4
1, 4
3, 11
3, 9
5, 6
5, 5
13, 11
14, 10
22, 17
29, 25
29, 30
36, 33
31, 30
37, 37
26, 43
29, 40
29, 29
21, 23
22, 26
17, 12
15, 14
13, 14
9, 8
18, 9
15, 16
8, 6
5, 5
3, 4
2, 1
5, 2
4, 3
2, 2
1, 1
1, 2
5, 1
1, 1
1, 4
2, 3
2, 4
1, 3
2, 1
2, 3
1, 2
1, 1
2, 2
2, 3
5, 3
2, 2
8, 5
6, 8
11, 9
13, 15
23, 22
20, 15
14, 21
24, 15
15, 12
11, 16
13, 13
10, 8
5, 7
4, 4
7, 6
2, 5
6, 2
6, 12
5, 11
9, 4
11, 8
8, 6
9, 8
7, 5
16, 8
16, 5
31, 5
30, 7
34, 4
35, 2
39, 5
26, 5
19, 8
11, 5
11, 6
10, 2
9, 2
7, 9
6, 3
6, 8
5, 11
7, 6
10, 13
17, 10
16, 7
12, 12
15, 13
16, 13
14, 14
12, 7
13, 20
9, 9
3, 15
6, 16
11, 14
4, 10
5, 13
5, 11
5, 14
8, 18
6, 16
5, 11
1, 13
5, 8
5, 8
3, 3
4, 7
4, 10
7, 11
3, 7
0, 2
5, 5
11, 9
4, 11
11, 14
7, 10
12, 14
17, 13
14, 12
18, 20
18, 12
10, 14
11, 11
8, 7
10, 10
13, 6
5, 7
10, 9
6, 7
6, 15
9, 30
10, 34
9, 37
8, 56
27, 56
35, 76
32, 83
50, 94
52, 85
53, 69
54, 69
66, 72
44, 41
52, 47
36, 28
35, 20
18, 20
16, 21
18, 21
22, 25
31, 34
57, 63
88, 104
153, 180
275, 371
488, 605
809, 945
1120, 1336
1534, 1844
1928, 2204
2218, 2375
2500, 2496
2480, 2313
2104, 2012
1797, 1612
1299, 1104
949, 727
596, 487
384, 255
204, 154
126, 79
61, 44
36, 31
19, 25
23, 16
15, 14
15, 15
20, 16
15, 25
25, 31
20, 39
50, 50
71, 91
97, 141
133, 184
194, 221
275, 288
311, 317
334, 389
368, 359
317, 320
283, 302
270, 182
182, 159
133, 104
83, 91
56, 47
21, 48
18, 40
15, 41
14, 44
5, 32
11, 28
8, 31
11, 23
10, 19
12, 17
15, 19
15, 7
9, 12
15, 12
7, 9
7, 7
8, 4
6, 7
8, 9
7, 7
2, 3
1, 5
3, 6
3, 3
3, 2
0, 3
3, 2
1, 5
6, 7
3, 4
4, 2
3, 3
3, 4
6, 6
7, 12
4, 13
5, 9
7, 23
4, 28
9, 31
5, 34
5, 33
9, 30
8, 45
11, 27
2, 28
9, 21
9, 14
6, 16
9, 9
14, 7
8, 3
13, 10
9, 5
8, 3
11, 3
5, 2
3, 1
2, 5
4, 1
5, 6
4, 3
4, 1
4, 4
7, 2
4, 2
0, 1
4, 3
3, 3
0, 4
7, 2
4, 2
1, 1
3, 5
4, 9
3, 5
0, 7
6, 10
4, 6
3, 8
5, 4
4, 2
7, 10
5, 7
5, 6
3, 4
0, 2
8, 3
4, 0
2, 4
5, 4
5, 6
3, 7
8, 4
9, 7
11, 7
12, 4
9, 1
10, 4
6, 7
12, 3
6, 3
2, 4
5, 9
5, 1
3, 5
2, 3
8, 5
3, 2
1, 1
2, 1
1, 2
4, 1
1, 0
3, 3
4, 3
2, 2
1, 3
3, 4
1, 1
3, 4
4, 3
3, 1
2, 3
1, 3
6, 3
4, 4
2, 1
3, 0
5, 0
2, 3
3, 6
3, 3
2, 3
1, 4
4, 3
8, 2
7, 2
8, 2
4, 2
9, 4
8, 1
6, 3
5, 1
5, 2
5, 3
3, 2
2, 4
6, 2
4, 2
0, 4
3, 0
2, 1
1, 1
2, 4
1, 0
3, 3
1, 1
2, 2
0, 2
5, 3
3, 3
2, 2
4, 1
2, 5
5, 1
2, 3
0, 2
1, 4
4, 0
0, 3
1, 0
2, 2
1, 0
1, 3
3, 4
8, 3
4, 3
1, 3
1, 4
2, 4
1, 6
1, 3
1, 1
7, 5
5, 5
2, 3
3, 3
2, 6
1, 2
2, 6
2, 3
2, 0
0, 2
2, 1
2, 1
0, 2
2, 2
2, 3
0, 3
0, 5
3, 3
3, 0
0, 3
1, 2
2, 3
2, 3
2, 1
1, 2
2, 1
1, 2
0, 2
2, 1
1, 3
1, 2
1, 1
2, 3
2, 2
1, 2
1, 0
2, 2
1, 3
1, 3
0, 1
1, 0
2, 3
2, 4
1, 3
4, 3
1, 3
3, 3
4, 2
4, 9
4, 2
6, 2
3, 5
2, 5
3, 1
1, 3
3, 0
2, 4
1, 3
0, 1
1, 2
0, 1
0, 4
2, 1
4, 2
0, 1
0, 1
1, 3
0, 1
2, 1
2, 0
2, 3
2, 4
2, 0
1, 2
3, 2
1, 1
2, 2
0, 1
2, 4
4, 3
2, 2
3, 1
1, 1
3, 0
3, 2
1, 2
1, 0
1, 1
2, 2
1, 0
1, 1
0, 2
3, 2
1, 1
2, 0
3, 5
1, 1
0, 2
1, 2
2, 4
0, 1
0, 4
0, 1
2, 1
1, 5
0, 4
1, 1
0, 0
0, 1
1, 3
2, 2
0, 2
0, 2
1, 1
2, 0
0, 0
2, 2
0, 3
1, 1
0, 1
0, 2
1, 1
0, 0
1, 2
1, 1
0, 1
2, 1
0, 0
2, 0
0, 1
0, 0
0, 1
1, 0
1, 3
3, 0
1, 1
2, 3
1, 1
0, 2
1, 0
0, 1
0, 1
1, 1
1, 1
3, 1
0, 1
0, 0
1, 1
3, 0
0, 0
0, 0
0, 0
1, 1
0, 1
0, 2
0, 2
3, 0
0, 1
1, 0
2, 0
0, 1
0, 0
2, 1
0, 0
1, 3
0, 0
1, 2
1, 0
0, 1
1, 0
0, 2
0, 0
0, 3
1, 0
1, 0
0, 1
1, 1
0, 0
1, 0
1, 0
0, 0
1, 3
1, 2
0, 1
0, 0
1, 0
0, 2
0, 0
1, 1
0, 2
1, 0
1, 0
1, 1
0, 0
1, 0
0, 0
0, 0
0, 0
1, 0
1, 0
1, 0
1, 1
1, 0
0, 0
0, 0
0, 1
1, 0
0, 1
0, 1
0, 0
0, 0
0, 2
0, 0
0, 0
0, 0
1, 0
0, 1
0, 0
0, 1
0, 0
0, 0
0, 0
0, 2
0, 0
0, 1
1, 0
1, 0
0, 1
0, 0
0, 0
1, 0
0, 0
0, 0
0, 0
0, 0
0, 0
1, 0
0, 0
0, 0
0, 0
0, 0
0, 0
0, 0
0, 1
1, 0
1, 0
0, 1
2, 0
1, 0
0, 0
0, 1
1, 0
0, 1
0, 1
0, 0
0, 0
0, 0
0, 0
0, 0
0, 0
0, 0
0, 0
0, 1
0, 1
1, 1
0, 0
0, 0
0, 0
0, 0
0, 0
1, 0
0, 0
0, 0
0, 0
1, 0
0, 0
1, 0
0, 0
0, 0
0, 0
0, 0
0, 0
1, 0
0, 0
0, 0
0, 0
0, 0
0, 0
0, 1
0, 0
0, 0
1, 0
0, 0
0, 0
0, 0
0, 0
0, 0
0, 0
0, 0
0, 0
0, 0
1, 0
1, 2
0, 0
0, 0
0, 1
0, 0
0, 1
0, 2
0, 0
0, 2
1, 0
0, 1
1, 0
0, 0
0, 0
0, 1
0, 0
0, 1
0, 1
0, 0
0, 1
0, 1
0, 0
0, 2
0, 0
0, 0
0, 0
2, 0
0, 1
0, 0
0, 0
0, 0
0, 0
0, 0
0, 0
0, 0
0, 0
1, 0
1, 0
0, 0
0, 0
0, 0
0, 0
0, 0
0, 0
0, 0
0, 0
1, 0
0, 0
0, 0
0, 1
0, 1
0, 0
0, 0
0, 0
0, 0
0, 0
0, 0
1, 1
0, 0
1, 0
0, 0
1, 0
0, 0
1, 0
0, 0
0, 0
0, 0
0, 0
0, 0
0, 0
1, 0
0, 0
0, 0
0, 1
0, 0
1, 0
0, 0
0, 0
0, 0
0, 0
0, 0
0, 0
0, 0
0, 0
0, 0
0, 0
0, 0
0, 0
0, 0
0, 0
0, 0
0, 0
0, 0
0, 0
0, 0
0, 0
0, 0
0, 0
0, 0
0, 0
0, 0
0, 0
1, 0
0, 0
0, 0
0, 0
0, 1
0, 0
0, 0
0, 0
0, 0
0, 0
0, 0
0, 0
0, 0
0, 0
0, 0
0, 0
0, 0
0, 0
0, 0
0, 1
0, 1
0, 0
0, 0
0, 0
0, 0
0, 0
0, 0
0, 0
0, 0
0, 0
0, 0
0, 0
0, 0
0, 0
0, 0
0, 0
0, 0
0, 0
0, 0
0, 0
0, 0
0, 0
0, 0
0, 0
1, 0
0, 0
0, 0
0, 0
0, 0
0, 0
0, 0
0, 0
0, 0
0, 0
0, 0
0, 0
0, 0
0, 0
0, 0
0, 0
0, 0
0, 0
0, 0
0, 1
0, 0
0, 0
0, 0
0, 0
0, 0
0, 0
0, 0
0, 0
0, 0
0, 0
0, 0
0, 0
0, 0
0, 0
0, 1
0, 0
0, 0
0, 0
0, 0
0, 0
0, 0
0, 0
0, 0
0, 0
0, 0
0, 0
0, 0
0, 0
0, 0
0, 0
0, 0
0, 0
0, 0
0, 0
0, 0
0, 0
0, 0
0, 0
0, 0
0, 0
0, 0
0, 0
0, 0
0, 0
0, 0
0, 0
0, 0
0, 0
0, 0
0, 0
0, 0
0, 0
0, 0
0, 0
0, 0
0, 0
0, 0
0, 0
0, 0
0, 0
0, 0
0, 0
0, 0
0, 0
0, 0
0, 0
0, 0
0, 0
0, 0
0, 0
0, 0
0, 0
0, 0
0, 0
0, 0
0, 0
0, 0
0, 0
0, 0
0, 0
0, 0
0, 0
0, 0
0, 0
0, 0
0, 0
0, 0
0, 0
0, 0
0, 1
0, 0
0, 0
0, 0
0, 0
0, 0
0, 0
0, 0
0, 0
0, 0
0, 0
0, 0
0, 0
0, 0
0, 0
0, 0
0, 0
0, 0
0, 0
0, 0
0, 0
0, 0
0, 0
0, 0
0, 0
0, 0
0, 0
0, 0
0, 0
0, 0
0, 0
0, 0
0, 0
0, 0
0, 0
0, 0
0, 0
0, 0
0, 0
0, 0
0, 0
0, 0
0, 0
0, 0
0, 0
0, 0
0, 0
0, 0
0, 0
0, 0
0, 0
0, 0
0, 0
0, 0
0, 0
0, 0
0, 0
0, 0
0, 0
0, 0
0, 0
0, 0
0, 0
0, 0
0, 0
0, 0
0, 0
0, 0
0, 0
0, 0
0, 0
0, 0
0, 0
0, 0
0, 0
0, 0
0, 0
0, 0
0, 0
0, 0
0, 0
0, 0
0, 0
0, 0
0, 0
0, 0
0, 0
0, 0
0, 0
0, 0
0, 0
0, 0
0, 0
0, 0
0, 0
0, 0
0, 0
0, 0
0, 0
0, 0
0, 0
0, 0
0, 0
0, 0
0, 0
0, 0
0, 0
0, 0
0, 0
0, 0
0, 0
0, 0
0, 0
0, 0
0, 0
0, 0
0, 0
0, 0
0, 0
0, 0
0, 0
0, 0
0, 0
0, 0
0, 0
0, 0
0, 0
0, 0
0, 0
0, 0
0, 0
0, 0
0, 0
0, 0
0, 0
0, 0
0, 0
0, 0
0, 0
0, 0
0, 0
0, 0
0, 0
0, 0
0, 0
0, 0
0, 0
0, 0
0, 0
0, 0
0, 0
0, 0
0, 0
0, 0
0, 0
0, 0
0, 0
0, 0
0, 0
0, 0
0, 0
0, 0
0, 0
0, 0
0, 0
0, 0
0, 0
0, 0
0, 0
0, 0
0, 0
0, 0
0, 0
0, 0
0, 0
0, 0
0, 0
0, 0
0, 0
0, 0
0, 0
0, 0
0, 0
0, 0
0, 0
0, 0
0, 0
0, 0
0, 0
0, 0
0, 0
0, 0
0, 0
0, 0
0, 0
0, 0
0, 0
0, 0
0, 0
0, 0
0, 0
0, 0
0, 0
0, 0
0, 0
0, 0
0, 0
0, 0
0, 0
0, 0
0, 0
0, 0
0, 0
0, 0
0, 0
0, 0
0, 0
0, 0
0, 0
0, 0
0, 0
0, 0
0, 0
0, 0
0, 0
0, 0
0, 0
0, 0
0, 0
0, 0
0, 0
0, 0
0, 0
0, 0
0, 0
0, 0
0, 0
0, 0
0, 0
0, 0
0, 0
0, 0
0, 0
0, 0
0, 0
0, 0
0, 0
0, 0
0, 0
0, 0
0, 0
0, 0
0, 0
0, 0
0, 0
0, 0
0, 0
0, 0
0, 0
0, 0
0, 0
0, 0
0, 0
0, 0
0, 0
0, 0
0, 0
0, 0
0, 0
0, 0
0, 0
0, 0
0, 0
0, 0
0, 0
0, 0
0, 0
0, 0
0, 0
0, 0
0, 0
0, 0
0, 0
0, 0
0, 0
0, 0
0, 0
0, 0
0, 0
0, 0
0, 0
0, 0
0, 0
0, 0
0, 0
0, 0
0, 0
0, 0
0, 0
0, 0
0, 0
0, 0
0, 0
0, 0
0, 0
0, 0
0, 0
0, 0
0, 0
0, 0
0, 0
0, 0
0, 0
0, 0
0, 0
0, 0
0, 0
#ENDOFDATA     end of spectrum data