File: host_upload/06-09-2024/ps_0852/dump3/ps__0852shot_2214.msa
#FORMAT      : EMSA/MAS spectral data file
#VERSION     : TC202v2.0 PIXL
#TITLE       : N/A
#DATE        :       Date in the format DD-MMM-YYYY, for example 07-JUL-2010
#TIME        :             The time of day at which the spectrum was recorded, in 24-hour format
#OWNER       : PIXL Flight Model       (PIXL will use this to indicate which instrument took the data.)
#NPOINTS     : 4096     Number of data points in the spectrum (This can be zero for configuration only files)
#NCOLUMNS    : 2     Number of data columns in the spectrum (This can be zero for configuration only files)
#XUNITS      : eV
#YUNITS      : COUNTS
#DATATYPE    : YY
#XPERCHAN    : 7.862, 7.881   eV per channel (separate by commas if more than one detector)
#OFFSET      : 18.5, -22.4         eV of first channel  (separate by commas if more than one detector
#SIGNALTYPE  : XRF
#YP_TEMP     : 2.203
#LIVETIME    : 8.55375, 8.56478   seconds (separate by commas if more than one detector)
#REALTIME    : 10, 10.0   seconds (separate by commas if more than one detector)
#SPECTRUM    : start of spectrum data
0, 0
0, 0
0, 0
0, 0
0, 0
0, 0
0, 0
0, 0
0, 0
0, 0
0, 0
0, 0
0, 0
0, 0
0, 0
0, 0
0, 0
0, 0
0, 0
0, 0
0, 0
0, 0
0, 0
0, 0
0, 0
0, 0
0, 0
0, 0
0, 0
0, 0
0, 0
0, 0
0, 0
0, 0
0, 1
0, 1
0, 2
0, 2
1, 2
0, 0
1, 0
0, 0
1, 2
2, 0
1, 2
1, 0
1, 2
3, 4
7, 5
16, 17
19, 18
45, 31
54, 62
95, 75
86, 77
81, 65
77, 63
43, 37
29, 24
12, 16
9, 11
7, 4
2, 4
6, 4
5, 7
2, 6
11, 6
14, 12
31, 28
54, 54
107, 85
164, 156
266, 254
394, 343
422, 413
416, 375
413, 340
302, 242
211, 176
121, 112
65, 70
36, 34
19, 22
11, 13
3, 8
3, 4
4, 2
3, 2
2, 4
2, 2
1, 2
1, 2
0, 2
2, 1
3, 2
4, 4
3, 1
2, 5
3, 6
3, 7
5, 1
8, 2
5, 3
3, 3
4, 2
8, 5
6, 5
7, 6
12, 8
12, 14
20, 22
25, 28
28, 42
53, 38
47, 52
41, 28
35, 43
29, 31
41, 35
28, 23
16, 18
22, 15
26, 17
16, 12
17, 14
16, 23
16, 9
14, 10
7, 11
11, 2
5, 5
5, 3
4, 2
1, 2
3, 1
2, 1
2, 3
1, 4
2, 2
1, 2
2, 5
3, 4
3, 3
1, 8
4, 2
1, 2
0, 1
5, 1
0, 2
1, 5
4, 3
2, 3
3, 11
14, 5
16, 20
15, 14
22, 20
14, 13
23, 23
17, 26
14, 10
15, 11
15, 6
7, 6
6, 4
3, 2
5, 2
2, 2
2, 3
8, 5
7, 4
6, 6
3, 2
2, 8
8, 4
9, 4
4, 4
10, 4
5, 4
6, 0
8, 3
8, 2
14, 2
10, 7
8, 3
18, 8
24, 2
17, 4
14, 9
12, 7
7, 5
8, 8
4, 10
14, 9
7, 12
20, 13
13, 17
12, 11
12, 16
16, 11
9, 21
8, 12
9, 14
9, 13
5, 8
4, 21
6, 12
1, 14
2, 29
4, 28
5, 32
8, 45
5, 40
4, 34
3, 45
5, 36
8, 33
11, 29
4, 14
4, 12
7, 6
7, 9
4, 9
5, 8
7, 6
17, 12
9, 11
12, 13
10, 17
14, 22
12, 14
18, 27
21, 24
21, 17
18, 16
16, 16
14, 14
19, 8
21, 16
18, 16
22, 10
9, 17
12, 8
27, 10
30, 15
37, 31
48, 22
45, 33
60, 49
77, 65
70, 73
51, 56
70, 60
52, 57
47, 32
33, 31
35, 25
20, 17
17, 20
13, 17
19, 15
29, 31
46, 57
78, 106
139, 232
266, 334
469, 574
777, 930
1179, 1367
1595, 1675
1937, 2032
2279, 2300
2514, 2407
2399, 2182
2159, 1972
1769, 1476
1420, 1072
982, 785
629, 462
375, 260
232, 147
102, 75
58, 37
28, 36
20, 21
18, 15
14, 13
18, 20
15, 22
25, 17
30, 20
30, 36
56, 46
65, 85
84, 98
143, 179
235, 236
260, 309
317, 340
377, 342
366, 330
335, 316
307, 256
283, 201
191, 146
156, 95
100, 68
63, 49
41, 28
22, 22
18, 13
11, 13
10, 11
8, 17
10, 24
9, 30
7, 47
14, 41
13, 45
16, 34
6, 46
7, 35
9, 41
6, 18
7, 37
3, 18
5, 20
5, 6
8, 7
9, 2
13, 5
10, 3
3, 4
6, 3
4, 2
13, 1
13, 3
9, 7
7, 1
4, 7
3, 5
5, 5
7, 6
5, 3
2, 5
8, 5
7, 4
8, 3
7, 5
7, 1
6, 3
4, 8
8, 10
12, 6
6, 3
8, 10
10, 7
4, 2
5, 2
3, 9
2, 6
4, 7
4, 6
5, 2
6, 6
5, 8
2, 3
7, 5
9, 4
7, 5
7, 2
5, 3
9, 5
3, 6
9, 5
6, 5
5, 10
3, 10
3, 7
5, 5
2, 9
2, 9
3, 8
4, 8
1, 5
3, 4
5, 11
2, 7
3, 9
4, 12
1, 7
3, 9
2, 6
2, 8
2, 2
2, 1
3, 3
2, 6
1, 6
5, 6
2, 0
1, 3
5, 4
4, 7
2, 2
3, 5
2, 5
3, 2
3, 2
2, 3
4, 1
1, 6
8, 0
5, 0
2, 2
12, 4
3, 3
3, 6
4, 0
7, 6
3, 6
4, 3
7, 2
7, 5
3, 8
4, 2
4, 4
4, 5
3, 6
4, 7
6, 5
3, 3
3, 8
6, 4
4, 9
3, 7
1, 6
3, 6
3, 4
3, 5
0, 4
3, 1
1, 3
5, 2
2, 2
3, 1
0, 4
1, 3
0, 3
3, 4
4, 4
0, 3
1, 4
2, 2
4, 0
3, 1
2, 4
3, 2
4, 2
5, 5
2, 1
5, 2
6, 5
6, 4
6, 2
2, 5
4, 2
3, 2
6, 1
5, 3
3, 2
4, 1
0, 0
4, 0
7, 1
7, 2
3, 0
2, 0
1, 2
2, 1
3, 2
1, 1
3, 5
0, 1
2, 2
5, 2
3, 3
1, 0
5, 2
2, 3
2, 2
1, 3
5, 3
2, 2
0, 2
2, 2
2, 2
3, 4
3, 3
2, 0
1, 1
1, 2
1, 3
0, 1
2, 1
1, 5
1, 1
2, 1
0, 1
1, 2
3, 3
0, 2
0, 4
5, 2
2, 0
3, 0
1, 1
4, 1
0, 1
4, 3
1, 5
1, 2
1, 0
3, 3
2, 2
3, 2
4, 1
3, 1
1, 2
4, 2
0, 0
3, 3
1, 2
1, 3
1, 3
2, 2
3, 6
4, 4
8, 1
2, 6
4, 5
4, 2
6, 6
5, 2
7, 3
1, 2
4, 1
3, 1
2, 5
2, 1
2, 3
1, 2
2, 3
4, 0
5, 1
2, 0
4, 1
4, 0
2, 2
1, 1
1, 2
3, 3
3, 0
2, 1
4, 3
2, 2
6, 2
1, 0
1, 1
5, 2
2, 3
1, 0
1, 4
5, 1
3, 3
0, 3
2, 2
0, 0
0, 0
1, 0
1, 0
4, 2
1, 0
1, 2
0, 1
2, 1
1, 1
0, 1
2, 0
0, 0
1, 0
3, 0
0, 1
0, 1
2, 2
1, 1
0, 0
0, 1
0, 0
2, 0
3, 1
1, 2
0, 2
0, 0
0, 0
1, 1
0, 0
1, 0
1, 1
2, 1
3, 1
2, 0
0, 2
0, 0
0, 2
2, 1
0, 0
0, 0
1, 0
0, 2
2, 2
1, 0
0, 1
3, 0
0, 3
1, 2
0, 1
2, 0
0, 1
1, 1
2, 0
0, 1
1, 0
1, 1
0, 0
0, 1
0, 1
0, 4
2, 1
2, 0
0, 2
1, 1
1, 2
0, 1
0, 0
0, 0
2, 1
0, 1
1, 2
0, 1
0, 0
0, 1
1, 1
0, 1
1, 0
0, 0
0, 3
0, 0
0, 0
0, 0
0, 0
1, 1
0, 0
0, 0
0, 2
0, 0
1, 0
1, 0
0, 0
0, 0
0, 0
1, 2
1, 0
1, 2
0, 1
0, 0
0, 0
0, 1
1, 1
0, 0
0, 1
0, 1
0, 0
1, 0
0, 0
0, 0
1, 0
0, 2
1, 0
0, 0
0, 0
0, 0
0, 0
2, 0
0, 0
0, 0
0, 0
0, 0
0, 0
1, 1
2, 0
0, 0
0, 1
0, 0
1, 2
0, 1
1, 0
0, 1
2, 0
0, 1
0, 0
0, 1
1, 0
0, 0
1, 0
0, 0
0, 1
0, 0
2, 0
0, 0
1, 0
0, 1
1, 0
0, 0
0, 1
0, 0
1, 2
0, 0
0, 0
0, 0
0, 0
1, 0
1, 1
0, 0
1, 0
1, 0
0, 0
0, 0
0, 1
0, 0
0, 0
0, 0
0, 0
0, 0
0, 0
0, 0
0, 0
0, 0
0, 0
0, 0
0, 0
2, 0
0, 1
0, 2
0, 0
1, 1
0, 0
0, 0
0, 0
1, 0
0, 0
0, 0
1, 2
0, 2
0, 0
0, 1
1, 0
0, 0
2, 0
0, 0
0, 0
1, 0
0, 0
2, 0
0, 0
0, 0
1, 0
0, 0
2, 0
0, 0
0, 0
0, 1
0, 0
1, 0
1, 0
0, 0
1, 0
0, 0
0, 1
0, 0
0, 0
0, 0
0, 0
0, 1
0, 0
0, 1
1, 1
0, 0
0, 0
0, 0
0, 1
0, 0
1, 0
0, 0
0, 0
0, 0
0, 0
0, 0
0, 0
0, 1
0, 0
0, 0
0, 0
1, 0
0, 1
1, 0
1, 0
1, 0
0, 0
1, 0
0, 0
0, 0
0, 0
0, 0
0, 0
0, 0
0, 0
0, 0
0, 0
0, 1
0, 0
0, 0
0, 0
0, 0
0, 0
0, 0
0, 0
0, 1
1, 0
0, 0
0, 1
0, 0
0, 0
0, 0
0, 0
0, 0
0, 1
1, 0
0, 0
0, 0
0, 0
0, 2
1, 0
0, 0
0, 0
1, 0
1, 0
0, 0
0, 0
0, 0
0, 0
0, 0
0, 0
0, 0
0, 0
0, 1
0, 0
0, 0
0, 0
0, 0
0, 0
0, 0
0, 0
0, 0
0, 0
0, 0
0, 1
0, 0
0, 0
0, 0
0, 1
1, 0
0, 0
0, 0
0, 0
0, 0
0, 1
0, 0
0, 0
0, 0
0, 0
0, 1
0, 0
0, 0
0, 0
0, 0
0, 0
0, 0
0, 0
0, 0
0, 0
0, 1
0, 0
0, 0
0, 0
0, 0
0, 0
0, 0
0, 0
0, 1
0, 0
0, 0
0, 1
0, 0
0, 0
0, 0
0, 0
0, 0
0, 0
0, 0
0, 0
0, 0
0, 0
0, 0
0, 0
0, 0
0, 0
0, 0
0, 0
0, 1
0, 0
0, 0
0, 0
0, 0
0, 0
0, 0
0, 0
0, 0
0, 0
0, 0
0, 0
0, 0
0, 0
0, 0
0, 0
0, 0
0, 0
1, 0
0, 0
0, 0
0, 0
0, 0
0, 0
0, 0
0, 0
0, 0
0, 0
0, 0
0, 0
0, 0
0, 0
0, 0
0, 0
0, 0
0, 0
0, 0
0, 1
0, 0
0, 0
0, 0
0, 0
0, 0
0, 0
0, 0
0, 0
0, 0
0, 0
0, 0
0, 0
0, 0
0, 0
0, 0
0, 0
0, 0
0, 0
0, 0
0, 0
0, 0
0, 0
0, 1
0, 0
0, 0
0, 0
0, 0
0, 1
0, 0
0, 0
1, 0
0, 0
0, 0
0, 0
0, 0
0, 0
0, 0
0, 0
0, 0
0, 0
0, 0
0, 0
0, 0
0, 0
0, 0
0, 0
0, 0
0, 0
0, 0
0, 0
0, 0
0, 0
0, 0
0, 0
0, 0
0, 0
0, 0
0, 0
0, 0
0, 0
0, 0
0, 0
0, 0
0, 0
0, 0
0, 0
0, 0
0, 0
0, 0
0, 0
0, 0
0, 0
0, 0
0, 0
0, 0
0, 0
0, 0
0, 0
0, 0
0, 0
0, 0
0, 0
0, 0
0, 0
0, 0
0, 0
0, 0
0, 0
0, 0
0, 0
0, 0
0, 0
0, 0
0, 0
0, 0
0, 0
0, 0
0, 0
0, 0
0, 0
0, 0
0, 0
0, 0
0, 0
0, 0
0, 0
0, 0
0, 0
0, 0
0, 0
0, 0
0, 0
0, 0
0, 0
0, 0
0, 0
0, 0
0, 0
0, 0
0, 0
0, 0
0, 0
0, 0
0, 0
0, 0
0, 0
0, 0
0, 0
0, 0
0, 0
0, 0
0, 0
0, 0
0, 0
0, 0
0, 0
0, 0
0, 0
0, 0
0, 0
0, 0
0, 0
0, 0
0, 0
0, 0
0, 0
0, 0
0, 0
0, 0
0, 0
0, 0
0, 0
0, 0
0, 0
0, 0
0, 0
0, 0
0, 0
0, 0
0, 0
0, 0
0, 0
0, 0
0, 0
0, 0
0, 0
0, 0
0, 0
0, 0
0, 0
0, 0
0, 0
0, 0
0, 0
0, 0
0, 0
0, 0
0, 0
0, 0
0, 0
0, 0
0, 0
0, 0
0, 0
0, 0
0, 0
0, 0
0, 0
0, 0
0, 0
0, 0
0, 0
0, 0
0, 0
0, 0
0, 0
0, 0
0, 0
0, 0
0, 0
0, 0
0, 0
0, 0
0, 0
0, 0
0, 0
0, 0
0, 0
0, 0
0, 0
0, 0
0, 0
0, 0
0, 0
0, 0
0, 0
0, 0
0, 0
0, 0
0, 0
0, 0
0, 0
0, 0
0, 0
0, 0
0, 0
0, 0
0, 0
0, 0
0, 0
0, 0
0, 0
0, 0
0, 0
0, 0
0, 0
0, 0
0, 0
0, 0
0, 0
0, 0
0, 0
0, 0
0, 0
0, 0
0, 0
0, 0
0, 0
0, 0
0, 0
0, 0
0, 0
0, 0
0, 0
0, 0
0, 0
0, 0
0, 0
0, 0
0, 0
0, 0
0, 0
0, 0
0, 0
0, 0
0, 0
0, 0
0, 0
0, 0
0, 0
0, 0
0, 0
0, 0
0, 0
0, 0
0, 0
0, 0
0, 0
0, 0
0, 0
0, 0
0, 0
0, 0
0, 0
0, 0
0, 0
0, 0
0, 0
0, 0
0, 0
0, 0
0, 0
0, 0
0, 0
0, 0
0, 0
0, 0
0, 0
0, 0
0, 0
0, 0
0, 0
0, 0
0, 0
0, 0
0, 0
0, 0
0, 0
0, 0
0, 0
0, 0
0, 0
0, 0
0, 0
0, 0
0, 0
0, 0
0, 0
0, 0
0, 0
0, 0
0, 0
0, 0
0, 0
0, 0
0, 0
0, 0
0, 0
0, 0
0, 0
0, 0
0, 0
0, 0
0, 0
0, 0
0, 0
0, 0
0, 0
0, 0
0, 0
0, 0
0, 0
0, 0
0, 0
0, 0
0, 0
0, 0
0, 0
0, 0
0, 0
0, 0
0, 0
0, 0
0, 0
0, 0
0, 0
0, 0
0, 0
0, 0
0, 0
0, 0
0, 0
0, 0
0, 0
0, 0
0, 0
0, 0
0, 0
0, 0
0, 0
0, 0
0, 0
0, 0
0, 0
0, 0
0, 0
0, 0
0, 0
0, 0
0, 0
0, 0
0, 0
0, 0
0, 0
0, 0
0, 0
0, 0
0, 0
0, 0
0, 0
0, 0
0, 0
0, 0
0, 0
0, 0
0, 0
0, 0
0, 0
0, 0
#ENDOFDATA     end of spectrum data