File: host_upload/06-09-2024/ps_0852/dump3/ps__0852shot_2500.msa
#FORMAT      : EMSA/MAS spectral data file
#VERSION     : TC202v2.0 PIXL
#TITLE       : N/A
#DATE        :       Date in the format DD-MMM-YYYY, for example 07-JUL-2010
#TIME        :             The time of day at which the spectrum was recorded, in 24-hour format
#OWNER       : PIXL Flight Model       (PIXL will use this to indicate which instrument took the data.)
#NPOINTS     : 4096     Number of data points in the spectrum (This can be zero for configuration only files)
#NCOLUMNS    : 2     Number of data columns in the spectrum (This can be zero for configuration only files)
#XUNITS      : eV
#YUNITS      : COUNTS
#DATATYPE    : YY
#XPERCHAN    : 7.862, 7.881   eV per channel (separate by commas if more than one detector)
#OFFSET      : 18.5, -22.4         eV of first channel  (separate by commas if more than one detector
#SIGNALTYPE  : XRF
#YP_TEMP     : 2.396
#LIVETIME    : 8.55426, 8.55002   seconds (separate by commas if more than one detector)
#REALTIME    : 10, 10.0   seconds (separate by commas if more than one detector)
#SPECTRUM    : start of spectrum data
0, 0
0, 0
0, 0
0, 0
0, 0
0, 0
0, 0
0, 0
0, 0
0, 0
0, 0
0, 0
0, 0
0, 0
0, 0
0, 0
0, 0
0, 0
0, 0
0, 0
0, 0
0, 0
0, 0
0, 0
0, 0
0, 0
0, 0
0, 0
0, 0
0, 0
0, 0
0, 0
0, 0
0, 0
0, 0
0, 0
1, 0
0, 0
1, 0
0, 1
0, 0
0, 0
2, 0
1, 1
3, 2
1, 0
2, 1
3, 0
2, 5
10, 12
15, 25
31, 43
43, 56
51, 79
56, 67
63, 53
53, 44
36, 25
33, 17
12, 12
6, 11
7, 2
10, 6
3, 6
4, 10
8, 5
10, 7
9, 9
21, 20
38, 51
90, 91
145, 162
184, 250
299, 317
338, 408
341, 368
310, 351
226, 265
167, 192
123, 89
59, 57
22, 30
22, 16
10, 9
4, 4
4, 6
3, 4
1, 3
2, 2
2, 2
0, 0
1, 1
0, 2
0, 2
1, 2
2, 3
2, 3
3, 4
3, 2
2, 5
3, 4
5, 4
6, 1
4, 3
6, 6
4, 5
6, 5
4, 15
8, 14
14, 12
16, 15
26, 17
37, 27
31, 33
30, 38
40, 35
49, 34
36, 25
53, 26
40, 30
35, 20
33, 17
30, 27
16, 17
15, 15
17, 28
8, 14
12, 13
7, 11
5, 13
8, 5
4, 6
3, 4
7, 3
4, 1
2, 6
0, 4
2, 0
1, 3
2, 2
2, 2
2, 2
0, 2
2, 4
1, 1
1, 1
4, 3
0, 3
2, 2
5, 2
7, 7
9, 6
6, 12
17, 21
26, 26
38, 34
35, 51
33, 48
25, 41
36, 27
37, 29
15, 16
19, 20
19, 8
21, 5
24, 5
27, 7
26, 5
18, 4
19, 7
14, 9
16, 6
5, 6
8, 8
10, 7
3, 5
3, 12
4, 5
6, 17
3, 16
6, 16
8, 20
2, 24
8, 20
4, 26
7, 23
9, 17
25, 20
32, 27
32, 54
63, 36
65, 63
73, 76
62, 69
62, 55
45, 39
46, 38
31, 36
15, 25
13, 23
11, 18
8, 20
6, 11
10, 14
4, 14
12, 12
8, 6
12, 19
8, 12
18, 21
22, 9
16, 19
12, 9
15, 13
11, 13
14, 6
9, 6
9, 9
10, 7
9, 8
13, 14
13, 29
39, 48
62, 83
117, 175
189, 258
318, 404
457, 549
590, 687
744, 815
712, 857
772, 772
712, 665
539, 536
411, 398
271, 238
169, 167
114, 80
56, 49
28, 33
20, 15
16, 22
17, 26
20, 23
21, 34
25, 59
46, 59
61, 79
81, 102
102, 163
145, 187
152, 192
147, 197
165, 212
130, 196
134, 170
88, 146
66, 102
47, 74
24, 75
37, 51
34, 67
34, 66
65, 112
134, 204
211, 336
387, 599
603, 862
936, 1250
1222, 1680
1511, 2040
1765, 2252
1969, 2316
1915, 2225
1805, 1846
1404, 1446
1059, 1074
733, 634
531, 421
260, 223
150, 126
96, 70
39, 32
28, 30
26, 22
19, 21
12, 29
14, 36
10, 34
14, 46
22, 54
31, 56
48, 50
70, 99
97, 127
134, 193
163, 211
245, 310
280, 336
301, 326
277, 386
272, 314
253, 283
175, 183
147, 172
103, 110
76, 67
46, 62
20, 43
17, 25
10, 14
4, 11
8, 7
4, 10
9, 10
10, 13
12, 18
9, 12
8, 13
15, 7
10, 11
9, 7
4, 9
5, 4
4, 5
6, 7
4, 1
1, 4
10, 3
4, 1
5, 7
4, 2
8, 5
4, 3
4, 2
5, 5
5, 1
5, 3
6, 5
7, 2
6, 4
9, 4
9, 6
5, 4
9, 3
7, 6
9, 10
6, 3
5, 7
3, 4
2, 1
2, 6
6, 6
8, 4
3, 7
6, 5
2, 8
5, 8
3, 3
1, 7
2, 7
5, 5
4, 4
8, 4
3, 4
3, 3
4, 6
4, 5
3, 2
5, 5
2, 3
4, 4
6, 3
4, 3
7, 4
5, 2
7, 4
6, 6
4, 4
4, 2
3, 4
1, 8
6, 3
9, 2
3, 5
1, 3
3, 5
2, 4
9, 2
3, 4
2, 8
4, 2
3, 3
0, 0
3, 3
5, 4
2, 3
4, 5
2, 8
2, 2
4, 7
0, 4
1, 6
2, 5
1, 4
0, 6
2, 2
3, 2
2, 5
3, 4
3, 1
4, 3
3, 3
3, 5
3, 1
1, 0
1, 2
5, 3
3, 2
2, 3
3, 1
2, 1
0, 2
2, 1
3, 1
3, 4
4, 7
1, 5
3, 4
2, 4
1, 1
1, 4
2, 8
5, 1
1, 2
2, 3
6, 3
1, 1
1, 4
3, 4
4, 5
3, 2
0, 2
3, 2
3, 3
5, 0
4, 3
1, 5
1, 3
2, 0
2, 3
5, 4
3, 0
0, 6
3, 0
3, 2
5, 4
3, 2
0, 4
5, 2
2, 0
0, 0
2, 4
1, 6
7, 1
2, 4
1, 3
1, 2
1, 0
1, 3
1, 0
1, 0
4, 4
1, 4
0, 1
2, 1
3, 4
1, 2
4, 2
4, 0
0, 2
1, 4
3, 3
1, 3
2, 1
3, 3
0, 4
1, 1
2, 2
1, 1
1, 3
0, 4
1, 4
3, 2
0, 1
2, 4
0, 7
7, 3
0, 6
2, 2
1, 5
0, 4
0, 3
3, 3
6, 2
4, 4
3, 0
3, 0
5, 6
7, 3
3, 3
0, 0
1, 3
4, 2
3, 2
3, 2
3, 1
2, 3
1, 1
3, 1
1, 2
0, 3
2, 1
4, 1
1, 1
1, 3
1, 0
2, 1
2, 1
2, 2
2, 0
1, 1
1, 2
2, 5
1, 2
2, 0
4, 1
1, 1
0, 4
0, 3
2, 5
0, 2
1, 4
2, 3
2, 2
2, 2
3, 2
5, 2
1, 0
2, 0
0, 3
1, 2
0, 0
0, 1
1, 0
0, 1
1, 1
0, 3
2, 5
4, 1
0, 1
0, 1
2, 0
1, 5
0, 2
1, 0
0, 3
1, 2
3, 2
2, 1
1, 1
0, 1
3, 1
0, 0
1, 2
1, 0
0, 1
0, 2
0, 0
1, 2
0, 1
1, 1
1, 3
0, 3
1, 0
1, 1
2, 1
1, 1
0, 3
2, 1
0, 1
1, 1
3, 4
1, 0
0, 0
1, 2
1, 0
1, 0
3, 1
0, 0
1, 1
1, 2
1, 1
2, 2
1, 0
0, 3
1, 3
1, 1
1, 1
0, 2
0, 1
0, 0
0, 2
0, 1
0, 2
1, 2
1, 2
0, 1
0, 1
1, 0
1, 3
2, 0
2, 0
1, 0
0, 1
0, 1
0, 0
1, 3
1, 1
0, 1
0, 0
1, 1
1, 0
1, 1
1, 1
2, 1
0, 0
0, 0
1, 0
1, 0
0, 0
0, 0
0, 0
1, 0
0, 2
2, 1
1, 1
0, 0
1, 0
0, 0
1, 1
0, 0
0, 1
0, 1
0, 1
0, 0
0, 1
0, 0
0, 1
2, 0
0, 1
1, 1
0, 1
0, 0
0, 0
0, 1
1, 1
1, 0
1, 2
0, 0
0, 0
0, 1
2, 1
0, 0
0, 0
1, 0
1, 1
0, 0
0, 0
0, 0
1, 1
1, 0
0, 0
0, 1
0, 1
0, 0
1, 0
1, 0
0, 0
1, 1
0, 1
3, 0
0, 0
1, 0
0, 0
1, 0
0, 0
0, 0
0, 1
0, 1
0, 0
0, 0
0, 2
0, 0
0, 0
1, 0
0, 1
0, 1
0, 3
0, 0
0, 1
0, 0
1, 0
1, 0
0, 0
0, 0
0, 0
0, 0
0, 1
0, 0
0, 0
0, 0
0, 0
1, 1
0, 0
0, 1
0, 1
0, 0
0, 0
0, 1
1, 0
0, 0
0, 1
0, 0
0, 0
0, 0
0, 0
0, 0
0, 0
1, 0
0, 1
0, 0
1, 0
0, 1
1, 1
1, 0
1, 0
0, 1
0, 0
0, 0
0, 0
0, 0
0, 1
0, 0
0, 0
0, 0
0, 0
0, 0
1, 1
0, 0
1, 0
0, 0
0, 0
1, 0
0, 0
0, 0
0, 0
0, 0
0, 1
0, 1
0, 0
0, 0
0, 0
0, 0
0, 0
0, 0
0, 0
0, 1
0, 0
0, 0
0, 0
0, 0
0, 0
0, 1
0, 0
0, 0
0, 0
0, 0
0, 0
0, 0
0, 1
0, 0
0, 0
0, 0
0, 0
0, 0
0, 2
1, 0
0, 1
0, 0
0, 0
0, 1
0, 1
0, 1
1, 0
0, 0
1, 0
0, 1
0, 1
0, 0
0, 1
1, 2
0, 0
1, 0
0, 0
0, 0
0, 0
0, 0
0, 1
1, 0
0, 0
0, 0
0, 0
0, 0
0, 0
0, 1
0, 1
1, 0
0, 0
1, 0
0, 0
0, 0
0, 0
0, 0
0, 0
0, 0
0, 0
1, 0
0, 0
0, 0
0, 1
0, 0
0, 0
0, 0
0, 0
0, 0
1, 0
0, 1
0, 0
0, 0
0, 0
0, 0
0, 1
0, 0
0, 0
0, 0
0, 0
0, 0
0, 0
1, 0
2, 0
0, 0
0, 0
0, 0
0, 1
0, 0
0, 0
0, 0
0, 0
0, 0
0, 0
0, 0
0, 0
1, 0
0, 0
0, 1
0, 0
0, 1
0, 0
0, 1
0, 0
0, 0
0, 0
0, 1
0, 0
0, 0
0, 0
0, 0
0, 0
0, 0
0, 0
0, 0
0, 1
0, 0
0, 0
0, 0
0, 0
0, 0
0, 0
0, 0
0, 1
0, 0
0, 0
0, 0
0, 0
0, 0
1, 0
0, 0
0, 0
0, 0
0, 0
0, 0
0, 0
0, 0
0, 1
0, 0
0, 0
0, 0
0, 0
0, 0
0, 0
0, 0
0, 0
0, 0
0, 0
0, 0
0, 0
0, 0
0, 0
0, 0
0, 0
0, 0
0, 0
0, 0
0, 0
0, 0
0, 0
0, 0
0, 0
0, 0
0, 0
0, 0
1, 1
0, 0
0, 0
0, 0
0, 0
0, 0
0, 0
0, 0
0, 0
0, 0
0, 0
0, 0
0, 0
0, 0
0, 0
0, 0
0, 0
0, 0
0, 0
0, 0
0, 0
0, 0
0, 0
0, 0
1, 0
0, 0
0, 0
0, 0
0, 0
0, 0
0, 0
0, 0
0, 0
0, 0
0, 0
0, 0
0, 0
0, 0
0, 0
0, 0
0, 0
0, 0
0, 0
0, 0
0, 0
0, 0
0, 0
0, 0
0, 0
0, 0
0, 0
0, 0
0, 0
0, 0
0, 0
0, 0
0, 0
0, 0
0, 0
0, 0
0, 0
0, 0
0, 0
0, 0
0, 0
0, 0
0, 0
0, 0
0, 0
0, 0
0, 0
0, 0
0, 0
0, 0
0, 0
0, 0
0, 0
0, 0
0, 0
0, 0
0, 0
0, 0
0, 0
0, 0
0, 0
0, 0
0, 0
0, 0
0, 0
0, 0
0, 0
0, 0
0, 0
0, 0
0, 0
0, 0
0, 0
0, 0
0, 0
0, 0
0, 0
0, 0
0, 0
0, 0
0, 0
0, 0
0, 0
0, 0
0, 0
0, 0
0, 0
0, 0
0, 0
0, 0
0, 0
0, 0
0, 0
0, 0
0, 0
0, 0
0, 0
0, 0
0, 0
0, 0
0, 0
0, 0
0, 0
0, 0
0, 0
0, 0
0, 0
0, 0
0, 0
0, 0
0, 0
0, 0
0, 0
0, 0
0, 0
0, 0
0, 0
0, 0
0, 0
0, 0
0, 0
0, 0
0, 0
0, 0
0, 0
0, 0
0, 0
0, 0
0, 0
0, 0
0, 0
0, 0
0, 0
0, 0
0, 0
0, 0
0, 0
0, 0
0, 0
0, 0
0, 0
0, 0
0, 0
0, 0
0, 0
0, 0
0, 0
0, 0
0, 0
0, 0
0, 0
0, 0
0, 0
0, 0
0, 0
0, 0
0, 0
0, 0
0, 0
0, 0
0, 0
0, 0
0, 0
0, 0
0, 0
0, 0
0, 0
0, 0
0, 0
0, 0
0, 0
0, 0
0, 0
0, 0
0, 0
0, 0
0, 0
0, 0
0, 0
0, 0
0, 0
0, 0
0, 0
0, 0
0, 0
0, 0
0, 0
0, 0
0, 0
0, 0
0, 0
0, 0
0, 0
0, 0
0, 0
0, 0
0, 0
0, 0
0, 0
0, 0
0, 0
0, 0
0, 0
0, 0
0, 0
0, 0
0, 0
0, 0
0, 0
0, 0
0, 0
0, 0
0, 0
0, 0
0, 0
0, 0
0, 0
0, 0
0, 0
0, 0
0, 0
0, 0
0, 0
0, 0
0, 0
0, 0
0, 0
0, 0
0, 0
0, 0
0, 0
0, 0
0, 0
0, 0
0, 0
0, 0
0, 0
0, 0
0, 0
0, 0
0, 0
0, 0
0, 0
0, 0
0, 0
0, 0
0, 0
0, 0
0, 0
0, 0
0, 0
0, 0
0, 0
0, 0
0, 0
0, 0
0, 0
0, 0
0, 0
0, 0
0, 0
0, 0
0, 0
0, 0
0, 0
0, 0
0, 0
0, 0
0, 0
0, 0
0, 0
0, 0
0, 0
0, 0
0, 0
0, 0
0, 0
0, 0
0, 0
0, 0
0, 0
0, 0
0, 0
0, 0
0, 0
0, 0
0, 0
0, 0
0, 0
0, 0
0, 0
0, 0
0, 0
0, 0
0, 0
0, 0
0, 0
0, 0
0, 0
0, 0
0, 0
0, 0
0, 0
0, 0
0, 0
0, 0
0, 0
0, 0
0, 0
0, 0
0, 0
0, 0
0, 0
0, 0
0, 0
0, 0
0, 0
0, 0
0, 0
0, 0
0, 0
0, 0
0, 0
0, 0
0, 0
0, 0
0, 0
0, 0
0, 0
0, 0
0, 0
0, 0
0, 0
0, 0
0, 0
0, 0
0, 0
0, 0
0, 0
0, 0
0, 0
0, 0
0, 0
0, 0
0, 0
0, 0
0, 0
0, 0
0, 0
0, 0
0, 0
0, 0
0, 0
0, 0
0, 0
0, 0
0, 0
0, 0
0, 0
0, 0
0, 0
0, 0
0, 0
0, 0
0, 0
0, 0
0, 0
0, 0
0, 0
0, 0
0, 0
0, 0
0, 0
0, 0
0, 0
0, 0
0, 0
0, 0
0, 0
0, 0
0, 0
0, 0
0, 0
0, 0
0, 0
0, 0
0, 0
0, 0
0, 0
0, 0
0, 0
0, 0
0, 0
0, 0
0, 0
0, 0
0, 0
0, 0
0, 0
0, 0
#ENDOFDATA     end of spectrum data