File: host_upload/06-09-2024/ps_0852/dump3/ps__0852shot_2131.msa
#FORMAT      : EMSA/MAS spectral data file
#VERSION     : TC202v2.0 PIXL
#TITLE       : N/A
#DATE        :       Date in the format DD-MMM-YYYY, for example 07-JUL-2010
#TIME        :             The time of day at which the spectrum was recorded, in 24-hour format
#OWNER       : PIXL Flight Model       (PIXL will use this to indicate which instrument took the data.)
#NPOINTS     : 4096     Number of data points in the spectrum (This can be zero for configuration only files)
#NCOLUMNS    : 2     Number of data columns in the spectrum (This can be zero for configuration only files)
#XUNITS      : eV
#YUNITS      : COUNTS
#DATATYPE    : YY
#XPERCHAN    : 7.862, 7.881   eV per channel (separate by commas if more than one detector)
#OFFSET      : 18.5, -22.4         eV of first channel  (separate by commas if more than one detector
#SIGNALTYPE  : XRF
#YP_TEMP     : 2.492
#LIVETIME    : 8.58747, 8.56171   seconds (separate by commas if more than one detector)
#REALTIME    : 10, 10.0   seconds (separate by commas if more than one detector)
#SPECTRUM    : start of spectrum data
0, 0
0, 0
0, 0
0, 0
0, 0
0, 0
0, 0
0, 0
0, 0
0, 0
0, 0
0, 0
0, 0
0, 0
0, 0
0, 0
0, 0
0, 0
0, 0
0, 0
0, 0
0, 0
0, 0
0, 0
0, 0
0, 0
0, 0
0, 0
0, 0
0, 0
0, 0
0, 0
0, 0
0, 0
0, 0
0, 0
1, 0
1, 0
2, 0
1, 0
0, 0
0, 0
1, 1
2, 1
3, 3
1, 1
0, 1
2, 3
6, 4
12, 13
17, 14
33, 33
51, 51
46, 51
71, 55
80, 65
45, 44
42, 39
25, 19
15, 8
6, 2
7, 4
5, 8
5, 4
3, 6
7, 5
11, 5
16, 5
21, 16
51, 53
101, 97
185, 132
275, 269
340, 372
447, 381
427, 421
386, 367
298, 267
234, 189
144, 124
79, 80
45, 43
26, 14
10, 12
12, 8
5, 2
4, 3
5, 3
2, 0
2, 2
1, 0
1, 2
5, 4
7, 7
18, 10
15, 13
22, 24
41, 27
33, 35
43, 32
34, 45
40, 25
21, 20
12, 19
14, 13
7, 7
17, 8
8, 5
16, 13
28, 24
33, 27
40, 38
50, 49
56, 66
90, 58
79, 59
87, 52
63, 44
52, 48
45, 31
34, 17
23, 21
22, 28
11, 16
21, 18
14, 15
14, 12
15, 13
10, 14
8, 5
8, 7
3, 7
3, 5
4, 2
2, 0
5, 4
0, 1
2, 3
2, 3
3, 2
4, 1
3, 1
8, 4
10, 3
12, 1
21, 2
21, 2
32, 4
27, 3
41, 6
28, 8
30, 17
42, 25
61, 57
76, 66
102, 93
134, 132
139, 118
123, 101
102, 95
75, 85
67, 42
51, 32
28, 17
15, 15
15, 14
11, 11
16, 11
10, 13
16, 16
17, 16
26, 24
20, 19
12, 9
20, 9
13, 7
7, 15
9, 10
9, 3
7, 13
4, 13
2, 12
6, 17
6, 12
3, 17
2, 10
6, 11
3, 11
6, 11
4, 6
8, 9
11, 8
9, 11
14, 10
10, 13
19, 9
11, 11
15, 7
15, 17
14, 17
15, 9
26, 8
21, 11
18, 5
18, 7
11, 2
18, 16
15, 7
22, 6
7, 6
9, 12
11, 16
8, 7
14, 13
4, 12
6, 12
10, 15
2, 19
11, 20
5, 27
6, 13
5, 17
6, 16
7, 14
8, 15
13, 9
3, 12
21, 25
16, 12
19, 16
19, 20
24, 18
13, 21
20, 14
19, 12
11, 13
11, 14
7, 7
4, 9
7, 6
11, 12
8, 4
10, 6
9, 13
12, 19
14, 19
26, 33
36, 48
39, 45
54, 58
62, 79
46, 87
58, 77
56, 82
39, 84
26, 70
26, 84
17, 94
17, 102
17, 100
11, 98
23, 76
61, 85
69, 138
143, 208
277, 331
470, 570
691, 807
1009, 1210
1488, 1590
1936, 1942
2137, 2092
2227, 2285
2269, 2111
1936, 1830
1656, 1410
1259, 995
899, 620
602, 401
371, 242
221, 126
102, 73
49, 39
35, 35
31, 25
22, 29
21, 29
34, 33
54, 34
47, 34
77, 34
127, 44
137, 65
213, 89
229, 99
304, 160
315, 211
336, 268
354, 334
423, 323
356, 295
375, 312
303, 251
261, 201
191, 143
125, 104
86, 57
62, 35
36, 20
18, 11
11, 12
7, 5
4, 10
11, 10
12, 10
3, 10
11, 19
11, 17
20, 16
19, 11
14, 17
13, 7
7, 16
4, 5
2, 11
2, 5
5, 7
3, 7
4, 7
4, 3
5, 6
4, 5
4, 4
5, 1
6, 1
1, 1
7, 2
10, 4
8, 6
8, 4
6, 9
7, 0
3, 4
4, 4
2, 8
3, 6
6, 7
5, 5
6, 6
3, 5
7, 3
5, 8
4, 3
4, 3
4, 6
5, 6
7, 6
6, 6
0, 6
2, 4
2, 5
2, 6
1, 5
2, 8
6, 6
3, 3
5, 5
9, 4
6, 4
1, 3
4, 3
5, 5
2, 4
8, 2
3, 6
3, 4
7, 2
6, 6
6, 7
4, 3
3, 4
7, 4
5, 2
4, 2
2, 3
3, 2
5, 2
3, 4
4, 2
8, 1
8, 2
8, 1
2, 4
2, 5
5, 2
7, 3
10, 2
6, 3
9, 2
5, 2
7, 3
3, 6
10, 6
5, 5
8, 0
6, 4
8, 10
7, 1
7, 3
6, 5
6, 3
8, 0
7, 6
6, 4
4, 4
4, 3
0, 8
4, 6
4, 9
2, 10
2, 11
4, 7
4, 5
2, 5
4, 10
3, 6
4, 3
2, 4
2, 6
3, 4
0, 7
3, 3
5, 2
6, 4
3, 7
5, 3
5, 0
5, 2
4, 4
4, 4
7, 2
10, 8
11, 3
8, 5
11, 3
1, 1
5, 2
2, 2
6, 0
5, 1
4, 3
5, 2
4, 1
5, 1
1, 2
5, 0
4, 1
3, 0
1, 3
2, 3
2, 1
3, 3
1, 1
2, 0
2, 3
4, 3
5, 1
1, 2
2, 1
1, 2
6, 2
4, 3
0, 4
1, 5
4, 1
0, 2
0, 4
1, 1
2, 3
3, 3
8, 1
5, 2
3, 3
3, 2
5, 4
5, 1
3, 4
3, 1
5, 3
3, 5
7, 1
2, 0
3, 2
0, 0
3, 0
3, 1
4, 0
1, 2
3, 2
3, 1
3, 0
3, 4
2, 4
4, 5
2, 3
3, 2
5, 1
0, 4
3, 1
1, 4
4, 2
0, 2
3, 2
2, 5
2, 4
2, 3
2, 4
2, 5
1, 3
0, 4
0, 6
1, 1
1, 3
3, 1
3, 2
2, 5
1, 2
5, 1
2, 1
1, 2
3, 0
3, 4
6, 3
3, 0
4, 1
4, 2
2, 3
4, 4
2, 5
4, 4
3, 2
0, 4
5, 3
4, 3
6, 3
5, 4
4, 5
3, 3
1, 3
2, 0
2, 1
1, 2
1, 3
3, 2
2, 1
3, 4
2, 0
3, 6
1, 0
1, 0
1, 2
2, 1
2, 0
3, 0
2, 4
1, 2
2, 1
0, 0
2, 1
2, 1
2, 3
1, 1
4, 2
2, 4
3, 1
3, 5
3, 1
1, 1
1, 0
1, 1
2, 1
1, 1
0, 1
1, 1
3, 2
1, 1
0, 2
1, 3
0, 2
2, 0
0, 0
2, 1
3, 3
1, 0
2, 3
2, 1
0, 0
1, 0
2, 0
3, 1
0, 1
1, 1
1, 0
0, 0
2, 1
2, 1
2, 1
0, 2
2, 0
0, 0
0, 0
0, 1
0, 0
1, 1
1, 0
0, 0
1, 1
0, 1
0, 2
0, 0
0, 1
1, 0
2, 1
1, 0
1, 2
0, 0
0, 1
2, 1
0, 1
2, 0
0, 2
1, 3
1, 0
0, 2
0, 0
2, 0
3, 0
2, 1
0, 1
0, 0
1, 0
0, 1
2, 1
0, 1
0, 3
0, 0
0, 1
0, 1
0, 0
1, 0
1, 0
0, 0
1, 0
0, 0
1, 0
1, 1
1, 1
0, 0
0, 0
1, 0
0, 0
0, 1
0, 0
0, 0
0, 1
0, 1
1, 1
0, 0
1, 0
1, 1
0, 1
0, 0
0, 0
1, 1
0, 2
0, 0
0, 0
0, 0
0, 1
1, 0
0, 0
2, 0
0, 0
1, 1
0, 1
1, 0
0, 0
0, 1
0, 0
1, 0
0, 0
0, 0
2, 0
1, 0
1, 1
1, 0
0, 0
0, 2
1, 0
0, 0
0, 0
2, 0
0, 0
0, 1
0, 0
0, 0
0, 0
0, 1
0, 2
0, 0
1, 0
1, 0
0, 2
1, 0
0, 0
0, 0
0, 0
1, 0
2, 1
2, 0
3, 0
0, 0
0, 0
1, 0
2, 0
0, 0
0, 0
1, 0
0, 0
0, 0
0, 0
0, 0
0, 0
2, 0
2, 1
0, 0
0, 1
1, 0
0, 1
2, 0
0, 0
1, 0
0, 0
1, 0
0, 0
0, 0
0, 1
1, 0
0, 0
0, 0
0, 0
0, 0
1, 2
0, 0
0, 1
0, 0
1, 0
0, 0
1, 0
0, 1
0, 1
0, 0
0, 0
1, 0
0, 0
1, 0
1, 0
0, 0
0, 0
1, 0
0, 0
0, 0
0, 0
1, 0
0, 1
1, 0
0, 0
0, 0
0, 0
0, 0
0, 0
0, 0
1, 0
0, 0
0, 0
1, 0
0, 0
0, 0
0, 1
0, 0
0, 1
1, 0
0, 0
0, 0
0, 0
0, 1
2, 0
4, 0
0, 0
1, 1
0, 0
0, 0
0, 0
1, 0
1, 0
1, 0
0, 0
0, 0
0, 1
1, 1
1, 0
0, 0
0, 2
0, 0
0, 0
0, 0
0, 0
0, 0
1, 1
0, 0
0, 0
0, 0
0, 0
0, 0
0, 0
0, 0
0, 0
0, 1
1, 0
0, 1
0, 0
0, 0
1, 0
0, 0
0, 1
0, 0
0, 2
0, 0
0, 1
0, 0
0, 0
0, 0
0, 0
0, 0
0, 0
0, 0
0, 0
1, 0
0, 0
0, 0
0, 0
0, 0
0, 0
0, 0
0, 0
0, 1
0, 0
0, 0
0, 0
0, 0
0, 1
0, 1
0, 0
0, 0
0, 1
0, 0
0, 1
0, 0
0, 0
0, 0
0, 0
0, 0
0, 0
1, 0
0, 0
0, 0
0, 0
0, 0
0, 0
0, 0
0, 0
0, 0
0, 0
0, 0
0, 0
0, 0
0, 0
0, 0
0, 0
0, 0
0, 0
0, 0
0, 0
0, 0
0, 0
0, 0
0, 0
0, 0
0, 0
0, 1
0, 0
0, 0
0, 0
0, 0
0, 0
0, 0
1, 0
0, 0
0, 0
0, 0
0, 0
1, 1
0, 0
0, 1
0, 0
0, 0
0, 0
0, 0
0, 0
0, 0
0, 0
0, 0
0, 0
0, 0
0, 0
0, 0
0, 1
0, 0
0, 0
0, 1
0, 0
0, 0
0, 0
0, 0
0, 0
0, 0
0, 0
0, 0
0, 0
0, 1
0, 0
0, 0
0, 0
0, 0
0, 0
0, 0
0, 0
0, 0
0, 0
0, 0
0, 0
0, 0
0, 0
0, 0
0, 0
0, 0
0, 0
0, 0
0, 0
0, 1
0, 0
0, 0
0, 0
0, 0
0, 0
0, 0
1, 0
0, 0
0, 0
1, 0
0, 0
0, 0
0, 0
0, 0
0, 0
0, 0
0, 0
0, 0
0, 0
0, 0
0, 0
0, 0
0, 0
0, 0
0, 0
0, 0
1, 0
0, 0
0, 0
0, 0
0, 0
0, 0
0, 0
0, 0
0, 0
0, 0
0, 0
0, 0
0, 0
0, 0
0, 1
0, 0
0, 0
0, 0
0, 0
0, 0
0, 0
0, 0
0, 0
0, 0
0, 0
0, 0
0, 0
0, 0
0, 0
0, 0
1, 0
0, 0
0, 0
0, 0
0, 0
0, 0
0, 0
0, 0
0, 0
0, 0
0, 0
0, 0
0, 0
0, 0
0, 0
0, 0
0, 0
0, 0
0, 0
0, 0
0, 0
0, 0
0, 0
0, 0
0, 0
0, 0
0, 0
0, 0
0, 0
0, 0
0, 0
0, 0
0, 0
0, 0
0, 0
0, 0
0, 0
0, 0
0, 0
0, 0
0, 0
0, 0
0, 0
0, 0
0, 0
0, 0
0, 0
0, 0
0, 0
0, 0
0, 0
0, 0
0, 0
0, 0
0, 0
0, 0
0, 0
0, 0
0, 0
0, 0
0, 0
0, 0
0, 0
0, 0
0, 0
0, 0
0, 0
0, 0
0, 0
0, 0
0, 0
0, 0
0, 0
0, 0
0, 0
0, 0
0, 0
0, 0
0, 0
0, 0
0, 0
0, 0
0, 0
0, 0
0, 0
0, 0
0, 0
0, 0
0, 0
0, 0
0, 0
0, 0
0, 0
0, 0
0, 0
0, 0
0, 0
0, 0
0, 0
0, 0
0, 0
0, 0
0, 0
0, 0
0, 0
0, 0
0, 0
0, 0
0, 0
0, 0
0, 0
0, 0
0, 0
0, 0
0, 0
0, 0
0, 0
0, 0
0, 0
0, 0
0, 0
0, 0
0, 0
0, 0
0, 0
0, 0
0, 0
0, 0
0, 0
0, 0
0, 0
0, 0
0, 0
0, 0
0, 0
0, 0
0, 0
0, 0
0, 0
0, 0
0, 0
0, 0
0, 0
0, 0
0, 0
0, 0
0, 0
0, 0
0, 0
0, 0
0, 0
0, 0
0, 0
0, 0
0, 0
0, 0
0, 0
0, 0
0, 0
0, 0
0, 0
0, 0
0, 0
0, 0
0, 0
0, 0
0, 0
0, 0
0, 0
0, 0
0, 0
0, 0
0, 0
0, 0
0, 0
0, 0
0, 0
0, 0
0, 0
0, 0
0, 0
0, 0
0, 0
0, 0
0, 0
0, 0
0, 0
0, 0
0, 0
0, 0
0, 0
0, 0
0, 0
0, 0
0, 0
0, 0
0, 0
0, 0
0, 0
0, 0
0, 0
0, 0
0, 0
0, 0
0, 0
0, 0
0, 0
0, 0
0, 0
0, 0
0, 0
0, 0
0, 0
0, 0
0, 0
0, 0
0, 0
0, 0
0, 0
0, 0
0, 0
0, 0
0, 0
0, 0
0, 0
0, 0
0, 0
0, 0
0, 0
0, 0
0, 0
0, 0
0, 0
0, 0
0, 0
0, 0
0, 0
0, 0
0, 0
0, 0
0, 0
0, 0
0, 0
0, 0
0, 0
0, 0
0, 0
0, 0
0, 0
0, 0
0, 0
0, 0
0, 0
0, 0
0, 0
0, 0
0, 0
0, 0
0, 0
0, 0
0, 0
0, 0
0, 0
0, 0
0, 0
0, 0
0, 0
0, 0
0, 0
0, 0
0, 0
0, 0
0, 0
0, 0
0, 0
0, 0
0, 0
0, 0
0, 0
0, 0
0, 0
0, 0
0, 0
0, 0
0, 0
0, 0
0, 0
0, 0
0, 0
0, 0
0, 0
0, 0
0, 0
0, 0
0, 0
0, 0
0, 0
0, 0
0, 0
0, 0
0, 0
0, 0
0, 0
0, 0
0, 0
0, 0
0, 0
0, 0
0, 0
0, 0
0, 0
0, 0
0, 0
0, 0
0, 0
0, 0
0, 0
0, 0
0, 0
0, 0
0, 0
0, 0
0, 0
0, 0
0, 0
0, 0
0, 0
0, 0
0, 0
0, 0
0, 0
0, 0
0, 0
0, 0
0, 0
0, 0
0, 0
0, 0
0, 0
0, 0
0, 0
0, 0
0, 0
0, 0
0, 0
0, 0
0, 0
0, 0
0, 0
0, 0
#ENDOFDATA     end of spectrum data