File: host_upload/06-09-2024/ps_0852/dump3/ps__0852shot_2022.msa
#FORMAT      : EMSA/MAS spectral data file
#VERSION     : TC202v2.0 PIXL
#TITLE       : N/A
#DATE        :       Date in the format DD-MMM-YYYY, for example 07-JUL-2010
#TIME        :             The time of day at which the spectrum was recorded, in 24-hour format
#OWNER       : PIXL Flight Model       (PIXL will use this to indicate which instrument took the data.)
#NPOINTS     : 4096     Number of data points in the spectrum (This can be zero for configuration only files)
#NCOLUMNS    : 2     Number of data columns in the spectrum (This can be zero for configuration only files)
#XUNITS      : eV
#YUNITS      : COUNTS
#DATATYPE    : YY
#XPERCHAN    : 7.862, 7.881   eV per channel (separate by commas if more than one detector)
#OFFSET      : 18.5, -22.4         eV of first channel  (separate by commas if more than one detector
#SIGNALTYPE  : XRF
#YP_TEMP     : 2.171
#LIVETIME    : 8.56589, 8.55789   seconds (separate by commas if more than one detector)
#REALTIME    : 10, 10.0   seconds (separate by commas if more than one detector)
#SPECTRUM    : start of spectrum data
0, 0
0, 0
0, 0
0, 0
0, 0
0, 0
0, 0
0, 0
0, 0
0, 0
0, 0
0, 0
0, 0
0, 0
0, 0
0, 0
0, 0
0, 0
0, 0
0, 0
0, 0
0, 0
0, 0
0, 0
0, 0
0, 0
0, 0
0, 0
0, 0
0, 0
0, 0
0, 0
1, 0
0, 0
0, 0
0, 1
0, 1
0, 0
1, 1
2, 1
1, 2
1, 0
0, 2
1, 0
2, 1
3, 3
5, 3
2, 4
10, 4
9, 10
21, 22
45, 30
61, 56
80, 79
84, 80
77, 77
67, 62
59, 37
32, 20
17, 16
6, 8
6, 6
5, 5
1, 2
3, 1
6, 4
9, 5
9, 10
17, 23
35, 51
88, 108
182, 175
275, 271
386, 381
424, 401
428, 408
376, 408
290, 266
206, 178
146, 98
75, 82
40, 33
21, 19
6, 12
6, 4
5, 5
2, 4
0, 2
3, 0
0, 1
3, 1
2, 1
4, 0
2, 3
2, 5
5, 6
4, 10
4, 3
3, 7
9, 7
11, 4
7, 2
4, 5
6, 5
6, 4
5, 2
6, 15
9, 9
11, 6
11, 24
30, 21
31, 39
57, 52
54, 57
81, 73
85, 75
74, 70
81, 71
59, 48
54, 63
48, 46
36, 31
40, 29
32, 34
17, 18
17, 18
12, 20
15, 15
8, 12
3, 7
5, 1
6, 5
3, 4
4, 3
2, 1
1, 3
1, 2
3, 3
0, 2
2, 3
5, 3
3, 3
2, 5
3, 1
1, 2
5, 2
4, 2
4, 3
4, 2
8, 11
5, 5
9, 19
15, 14
9, 22
10, 22
14, 35
24, 30
26, 23
18, 27
14, 22
18, 15
16, 10
22, 12
11, 5
13, 11
6, 5
6, 12
6, 5
7, 4
10, 7
7, 6
8, 11
11, 11
7, 8
9, 10
9, 9
11, 10
7, 10
12, 13
17, 10
12, 17
12, 16
8, 8
15, 10
13, 12
6, 9
3, 7
9, 6
3, 7
11, 6
13, 7
13, 14
7, 16
17, 11
16, 17
16, 17
21, 22
22, 22
20, 16
21, 19
19, 19
16, 10
21, 10
11, 9
13, 10
12, 8
10, 8
12, 9
5, 12
4, 7
15, 9
9, 5
9, 11
12, 4
4, 9
6, 7
9, 6
11, 14
6, 7
7, 9
4, 8
6, 8
10, 9
10, 9
9, 9
16, 5
14, 11
12, 14
15, 23
24, 16
31, 18
22, 22
24, 22
13, 17
18, 22
22, 17
18, 17
11, 18
12, 15
15, 15
12, 19
10, 12
14, 22
13, 19
17, 13
35, 25
33, 36
42, 50
53, 66
64, 51
61, 55
82, 54
56, 61
66, 60
53, 56
39, 36
37, 40
32, 50
32, 32
26, 47
30, 45
33, 54
56, 71
77, 127
184, 219
299, 360
502, 619
763, 871
1107, 1354
1502, 1726
1892, 2005
2196, 2336
2392, 2359
2353, 2171
2051, 1942
1738, 1570
1285, 1150
928, 774
597, 458
379, 287
213, 161
123, 76
57, 55
41, 38
26, 33
19, 25
21, 21
10, 20
25, 25
20, 34
21, 40
39, 55
59, 62
72, 109
111, 127
157, 178
157, 248
278, 277
301, 345
326, 367
353, 370
350, 325
307, 326
266, 210
196, 149
121, 110
99, 78
63, 38
44, 27
15, 12
15, 10
8, 4
17, 11
15, 11
10, 18
15, 9
12, 8
8, 8
18, 12
15, 18
13, 13
11, 9
11, 4
5, 12
9, 8
5, 8
5, 10
9, 6
7, 5
3, 3
9, 2
5, 5
3, 1
5, 4
6, 4
1, 6
6, 9
3, 5
5, 8
4, 4
3, 4
6, 12
6, 5
4, 6
7, 5
7, 7
12, 13
10, 6
7, 4
5, 9
6, 4
5, 7
4, 5
11, 7
3, 8
5, 12
8, 9
8, 12
7, 10
3, 4
5, 5
5, 7
10, 5
6, 5
4, 6
12, 5
7, 6
3, 5
1, 6
4, 6
9, 8
6, 1
4, 2
9, 3
4, 6
3, 6
7, 8
4, 7
5, 3
8, 3
4, 6
1, 8
6, 3
8, 6
12, 3
5, 6
3, 7
4, 8
6, 3
3, 3
7, 8
6, 6
4, 10
3, 5
4, 6
3, 9
5, 4
2, 7
4, 2
7, 2
6, 3
6, 11
6, 6
3, 6
2, 5
4, 4
4, 5
2, 1
5, 5
5, 3
1, 8
1, 4
3, 3
4, 1
3, 6
3, 4
3, 1
1, 7
3, 3
3, 5
2, 6
4, 4
3, 6
3, 6
4, 3
2, 3
8, 4
5, 5
6, 7
3, 4
2, 5
6, 1
4, 2
5, 2
2, 1
4, 5
4, 2
4, 4
8, 3
3, 6
4, 2
3, 4
2, 1
3, 2
3, 3
6, 2
1, 1
1, 3
2, 5
3, 4
1, 3
3, 2
2, 3
2, 1
2, 2
1, 4
4, 3
2, 6
4, 3
2, 1
3, 1
0, 3
2, 2
3, 0
6, 2
3, 3
5, 3
3, 4
2, 3
7, 3
2, 3
5, 3
1, 2
1, 0
2, 4
3, 4
6, 1
2, 4
1, 1
3, 6
6, 1
3, 3
2, 1
4, 2
6, 1
1, 0
2, 1
0, 2
4, 2
1, 2
1, 2
2, 5
2, 2
1, 3
3, 5
3, 6
1, 4
2, 3
4, 5
2, 3
2, 1
2, 2
2, 2
1, 1
1, 3
2, 0
1, 2
4, 3
1, 3
1, 3
2, 4
1, 2
1, 2
0, 0
1, 2
2, 1
0, 2
4, 2
3, 3
2, 1
4, 3
6, 1
2, 2
2, 4
4, 0
2, 1
1, 1
3, 2
2, 2
2, 1
5, 1
3, 0
2, 1
4, 3
1, 5
2, 3
5, 5
2, 3
6, 1
4, 2
0, 1
7, 4
3, 3
5, 5
7, 7
5, 5
2, 1
4, 4
4, 6
2, 1
1, 1
3, 1
1, 5
2, 2
1, 3
2, 2
0, 2
2, 1
1, 2
3, 3
3, 1
2, 1
1, 2
1, 0
1, 0
1, 2
3, 2
5, 0
2, 1
3, 3
3, 3
3, 1
3, 1
2, 3
1, 2
4, 1
1, 4
0, 0
1, 3
1, 0
1, 2
0, 1
3, 2
2, 1
1, 1
3, 1
0, 0
3, 0
1, 3
0, 4
0, 0
3, 0
0, 0
2, 1
2, 1
0, 2
2, 1
0, 2
1, 0
3, 1
0, 1
1, 0
1, 2
3, 1
4, 1
0, 2
1, 0
2, 0
0, 0
3, 0
0, 0
3, 2
1, 1
0, 0
1, 2
1, 0
2, 0
0, 2
1, 1
0, 2
1, 1
2, 1
0, 2
1, 0
1, 2
1, 1
1, 2
1, 2
0, 0
0, 1
1, 1
3, 1
0, 2
2, 0
3, 1
0, 1
1, 0
2, 0
1, 1
0, 1
0, 1
0, 1
0, 2
0, 0
1, 3
0, 1
0, 0
0, 0
1, 0
1, 1
1, 0
1, 0
0, 0
0, 1
0, 0
0, 1
0, 2
0, 0
0, 1
0, 1
0, 1
0, 1
0, 1
1, 0
1, 0
0, 2
1, 0
0, 0
0, 0
1, 0
2, 0
0, 0
2, 0
0, 1
0, 1
1, 0
0, 1
0, 0
0, 1
0, 0
0, 1
0, 0
1, 0
0, 1
0, 0
0, 0
1, 0
0, 1
1, 0
0, 1
0, 0
0, 0
0, 0
0, 0
0, 0
0, 0
3, 0
0, 0
0, 1
0, 0
1, 0
0, 1
2, 0
0, 0
0, 2
0, 0
0, 0
0, 0
1, 0
2, 1
1, 2
0, 1
0, 1
0, 0
0, 0
1, 0
1, 1
0, 2
0, 0
0, 0
0, 0
1, 0
1, 1
1, 0
0, 0
0, 0
1, 0
1, 0
1, 0
0, 0
0, 0
0, 1
0, 0
1, 0
0, 0
1, 0
0, 0
0, 0
1, 0
2, 1
0, 0
0, 0
1, 1
0, 0
0, 0
0, 2
0, 1
0, 0
1, 0
0, 0
0, 1
0, 0
0, 0
0, 0
0, 1
0, 0
0, 0
0, 0
0, 0
0, 1
0, 0
0, 0
0, 1
0, 0
0, 0
0, 0
0, 0
0, 0
0, 0
1, 1
0, 0
0, 0
0, 2
0, 0
0, 0
0, 0
0, 0
2, 0
1, 1
1, 0
0, 0
1, 0
0, 0
1, 0
0, 0
1, 0
0, 0
0, 0
0, 0
0, 0
0, 1
1, 1
1, 1
0, 0
0, 0
0, 0
1, 0
0, 1
0, 0
0, 0
0, 2
0, 0
0, 1
1, 1
0, 0
0, 0
0, 1
0, 0
0, 0
0, 0
1, 0
0, 1
0, 0
1, 0
0, 0
0, 0
0, 0
1, 1
0, 1
0, 0
0, 0
0, 0
0, 1
0, 0
0, 0
1, 0
1, 0
0, 0
0, 0
1, 1
0, 0
1, 0
0, 1
0, 0
0, 0
0, 0
0, 0
1, 0
0, 0
0, 0
0, 1
1, 0
0, 0
0, 0
0, 0
0, 0
0, 1
0, 1
0, 0
0, 1
1, 0
0, 0
0, 1
1, 0
0, 0
0, 0
1, 0
1, 0
1, 0
0, 0
0, 0
0, 0
0, 0
0, 0
0, 0
0, 0
0, 0
0, 0
1, 0
0, 0
0, 0
0, 0
0, 0
0, 0
0, 1
0, 0
0, 0
0, 0
0, 0
0, 0
0, 0
0, 1
0, 0
0, 0
0, 1
0, 0
0, 0
0, 0
0, 1
0, 0
0, 0
0, 0
0, 0
0, 0
0, 0
0, 0
0, 0
0, 0
0, 0
0, 0
0, 0
0, 0
0, 1
0, 1
0, 0
0, 1
0, 0
0, 0
0, 0
0, 0
0, 0
0, 0
0, 0
0, 0
0, 0
0, 0
0, 0
0, 0
0, 0
0, 0
1, 0
0, 0
0, 0
0, 0
0, 0
0, 0
0, 0
0, 0
0, 0
0, 0
0, 0
0, 0
0, 0
0, 0
0, 1
0, 0
0, 0
0, 0
0, 0
0, 0
0, 0
0, 0
0, 0
0, 0
0, 0
0, 0
0, 0
0, 0
0, 0
0, 0
0, 0
0, 0
0, 0
0, 0
0, 0
0, 0
0, 0
1, 0
0, 0
0, 0
0, 0
0, 0
0, 0
0, 0
0, 0
0, 0
0, 0
0, 0
0, 0
0, 0
0, 0
0, 0
0, 0
0, 0
0, 0
0, 0
0, 0
0, 0
0, 0
0, 0
0, 0
0, 0
0, 0
0, 0
0, 0
0, 0
0, 0
0, 0
0, 0
0, 0
0, 0
0, 0
0, 0
0, 0
0, 0
0, 0
0, 0
0, 0
0, 1
0, 0
0, 0
0, 0
0, 0
0, 0
0, 0
0, 0
0, 0
0, 0
0, 0
0, 0
0, 0
0, 0
0, 0
0, 0
0, 0
0, 0
0, 0
0, 0
0, 0
0, 0
0, 0
0, 0
0, 0
0, 0
0, 0
1, 0
0, 0
0, 0
0, 1
0, 0
0, 0
0, 0
0, 0
0, 0
0, 0
0, 0
0, 0
0, 0
0, 0
0, 0
0, 0
0, 0
0, 0
0, 0
0, 0
0, 1
0, 0
0, 0
0, 0
0, 0
0, 0
0, 0
0, 0
0, 0
0, 0
0, 0
0, 0
0, 0
0, 0
0, 0
0, 0
0, 0
0, 0
0, 0
0, 0
0, 0
0, 0
0, 0
0, 0
0, 0
0, 0
0, 0
0, 0
0, 0
0, 0
0, 0
0, 0
0, 0
0, 0
0, 0
0, 0
0, 0
0, 0
0, 0
0, 0
0, 0
0, 0
0, 0
0, 0
0, 0
0, 0
0, 0
0, 0
0, 0
0, 0
0, 0
0, 0
0, 0
0, 0
0, 0
0, 0
0, 0
0, 0
0, 0
0, 0
0, 0
0, 0
0, 0
0, 0
0, 0
0, 0
0, 0
0, 0
0, 0
0, 0
0, 0
0, 0
0, 0
0, 0
0, 0
0, 0
0, 0
0, 0
0, 0
0, 0
0, 0
0, 0
0, 0
0, 0
0, 0
0, 0
0, 0
0, 0
0, 0
0, 0
0, 0
0, 0
0, 0
0, 0
0, 0
0, 0
0, 0
0, 0
0, 0
0, 0
0, 0
0, 0
0, 0
0, 0
0, 0
0, 0
0, 0
0, 0
0, 0
0, 0
0, 0
0, 0
0, 0
0, 0
0, 0
0, 0
0, 0
0, 0
0, 0
0, 0
0, 0
0, 0
0, 0
0, 0
0, 0
0, 0
0, 0
0, 0
0, 0
0, 0
0, 0
0, 0
0, 0
0, 0
0, 0
0, 0
0, 0
0, 0
0, 0
0, 0
0, 0
0, 0
0, 0
0, 0
0, 0
0, 0
0, 0
0, 0
0, 0
0, 0
0, 0
0, 0
0, 0
0, 0
0, 0
0, 0
0, 0
0, 0
0, 0
0, 0
0, 0
0, 0
0, 0
0, 0
0, 0
0, 0
0, 0
0, 0
0, 0
0, 0
0, 0
0, 0
0, 0
0, 0
0, 0
0, 0
0, 0
0, 0
0, 0
0, 0
0, 0
0, 0
0, 0
0, 0
0, 0
0, 0
0, 0
0, 0
0, 0
0, 0
0, 0
0, 0
0, 0
0, 0
0, 0
0, 0
0, 0
0, 0
0, 0
0, 0
0, 0
0, 0
0, 0
0, 0
0, 0
0, 0
0, 0
0, 0
0, 0
0, 0
0, 0
0, 0
0, 0
0, 0
0, 0
0, 0
0, 0
0, 0
0, 0
0, 0
0, 0
0, 0
0, 0
0, 0
0, 0
0, 0
0, 0
0, 0
0, 0
0, 0
0, 0
0, 0
0, 0
0, 0
0, 0
0, 0
0, 0
0, 0
0, 0
0, 0
0, 0
0, 0
0, 0
0, 0
0, 0
0, 0
0, 0
0, 0
0, 0
0, 0
0, 0
0, 0
0, 0
0, 0
0, 0
0, 0
0, 0
0, 0
0, 0
0, 0
0, 0
0, 0
0, 0
0, 0
0, 0
0, 0
0, 0
0, 0
0, 0
0, 0
0, 0
0, 0
0, 0
0, 0
0, 0
0, 0
0, 0
0, 0
0, 0
0, 0
0, 0
0, 0
0, 0
0, 0
0, 0
0, 0
0, 0
0, 0
0, 0
0, 0
0, 0
0, 0
0, 0
0, 0
0, 0
0, 0
0, 0
0, 0
0, 0
0, 0
0, 0
0, 0
0, 0
0, 0
0, 0
0, 0
0, 0
0, 0
0, 0
0, 0
0, 0
0, 0
0, 0
0, 0
0, 0
0, 0
0, 0
0, 0
0, 0
0, 0
0, 0
#ENDOFDATA     end of spectrum data