File: host_upload/06-09-2024/ps_0852/dump3/ps__0852shot_2344.msa
#FORMAT      : EMSA/MAS spectral data file
#VERSION     : TC202v2.0 PIXL
#TITLE       : N/A
#DATE        :       Date in the format DD-MMM-YYYY, for example 07-JUL-2010
#TIME        :             The time of day at which the spectrum was recorded, in 24-hour format
#OWNER       : PIXL Flight Model       (PIXL will use this to indicate which instrument took the data.)
#NPOINTS     : 4096     Number of data points in the spectrum (This can be zero for configuration only files)
#NCOLUMNS    : 2     Number of data columns in the spectrum (This can be zero for configuration only files)
#XUNITS      : eV
#YUNITS      : COUNTS
#DATATYPE    : YY
#XPERCHAN    : 7.862, 7.881   eV per channel (separate by commas if more than one detector)
#OFFSET      : 18.5, -22.4         eV of first channel  (separate by commas if more than one detector
#SIGNALTYPE  : XRF
#YP_TEMP     : 2.3
#LIVETIME    : 8.55981, 8.56502   seconds (separate by commas if more than one detector)
#REALTIME    : 10, 10.0   seconds (separate by commas if more than one detector)
#SPECTRUM    : start of spectrum data
0, 0
0, 0
0, 0
0, 0
0, 0
0, 0
0, 0
0, 0
0, 0
0, 0
0, 0
0, 0
0, 0
0, 0
0, 0
0, 0
0, 0
0, 0
0, 0
0, 0
0, 0
0, 0
0, 0
0, 0
0, 0
0, 0
0, 0
0, 0
0, 0
0, 0
0, 0
0, 0
0, 0
0, 0
0, 0
1, 1
0, 0
0, 1
0, 1
1, 1
1, 1
2, 1
4, 1
1, 1
1, 0
1, 1
3, 3
0, 3
5, 9
8, 7
20, 24
30, 29
57, 43
80, 80
68, 67
67, 59
51, 58
48, 40
24, 27
17, 13
4, 7
3, 3
5, 4
5, 5
5, 7
10, 3
10, 3
13, 15
19, 18
47, 56
94, 116
174, 185
314, 339
399, 421
511, 470
484, 471
407, 414
312, 327
200, 211
137, 149
87, 78
45, 38
19, 18
17, 14
6, 8
11, 9
0, 1
3, 3
1, 3
2, 3
3, 3
3, 5
5, 8
13, 8
27, 21
47, 38
66, 72
79, 78
92, 85
99, 105
81, 90
59, 61
38, 47
24, 37
26, 17
10, 17
7, 9
13, 14
9, 14
27, 17
28, 26
36, 30
44, 64
44, 41
62, 52
58, 49
46, 31
39, 38
31, 30
37, 23
26, 23
15, 19
24, 25
16, 20
16, 15
18, 17
15, 12
6, 13
4, 7
4, 8
6, 5
2, 9
6, 6
2, 5
0, 7
3, 3
3, 5
4, 2
8, 8
4, 5
5, 4
4, 4
6, 4
5, 3
1, 4
3, 3
1, 2
5, 3
5, 8
2, 9
7, 10
21, 24
37, 52
58, 77
76, 121
121, 142
149, 168
176, 191
161, 185
150, 168
117, 106
86, 82
44, 51
34, 33
20, 25
12, 11
15, 11
12, 14
19, 25
27, 29
41, 34
24, 37
35, 28
23, 25
11, 11
14, 17
10, 12
8, 5
12, 5
7, 8
5, 5
0, 4
5, 6
8, 6
6, 4
5, 2
2, 7
8, 3
4, 8
5, 9
13, 7
6, 11
12, 15
9, 11
11, 14
8, 16
8, 14
13, 12
11, 14
14, 13
5, 11
11, 4
8, 4
6, 5
7, 3
3, 6
9, 4
6, 4
11, 6
11, 7
9, 4
2, 7
8, 6
8, 10
6, 6
3, 7
3, 7
4, 14
5, 16
4, 12
5, 12
9, 16
9, 13
10, 15
8, 20
13, 20
20, 17
24, 13
20, 19
38, 24
45, 26
48, 22
44, 24
41, 15
43, 19
34, 8
30, 10
23, 6
25, 10
14, 4
14, 5
11, 6
7, 5
20, 15
22, 17
36, 12
36, 27
42, 40
49, 52
62, 47
87, 57
75, 61
76, 67
51, 51
60, 44
35, 25
30, 25
21, 21
20, 12
22, 16
21, 29
23, 34
39, 55
71, 88
99, 180
250, 345
413, 529
658, 869
968, 1192
1295, 1679
1720, 1941
1917, 2190
2161, 2249
1992, 2007
1773, 1832
1447, 1378
1120, 983
772, 681
465, 418
313, 238
153, 145
103, 80
51, 36
30, 37
8, 19
13, 13
12, 11
13, 23
13, 11
12, 18
25, 28
27, 32
41, 69
60, 75
87, 108
134, 131
163, 229
217, 240
273, 321
326, 333
335, 311
290, 321
257, 226
208, 210
183, 141
138, 101
82, 67
56, 32
48, 27
27, 17
28, 10
22, 15
12, 9
17, 11
11, 14
14, 13
15, 13
10, 17
13, 11
10, 12
6, 6
6, 13
8, 9
5, 1
6, 2
4, 4
4, 3
7, 7
4, 3
4, 3
4, 3
2, 6
4, 4
5, 5
4, 5
1, 6
3, 7
8, 3
4, 11
4, 4
6, 8
5, 5
9, 11
7, 7
5, 11
8, 13
7, 5
6, 3
9, 2
7, 4
6, 5
10, 4
4, 4
7, 9
4, 3
3, 3
8, 0
8, 2
2, 4
1, 5
3, 3
2, 6
5, 4
4, 6
7, 7
3, 4
4, 3
0, 2
2, 6
4, 6
2, 3
7, 5
3, 6
7, 6
8, 9
8, 3
4, 5
3, 8
9, 2
5, 3
8, 8
8, 7
2, 6
3, 6
4, 7
3, 6
3, 2
4, 6
5, 5
4, 6
2, 7
3, 3
1, 1
1, 9
2, 8
0, 4
7, 3
4, 2
2, 2
4, 4
1, 4
5, 2
1, 5
0, 3
5, 3
3, 5
1, 2
4, 1
3, 2
3, 4
6, 2
6, 3
4, 7
13, 2
14, 6
7, 3
15, 2
23, 1
9, 6
11, 6
16, 2
12, 4
7, 3
11, 0
7, 2
9, 4
7, 5
4, 4
5, 3
2, 1
0, 4
3, 2
2, 3
4, 5
5, 4
6, 3
1, 1
3, 6
2, 2
4, 2
4, 2
4, 3
3, 3
2, 3
7, 4
1, 3
3, 4
3, 3
4, 1
1, 1
2, 3
1, 5
3, 2
1, 5
1, 1
4, 3
2, 1
3, 4
3, 2
2, 1
2, 2
3, 2
2, 3
1, 2
0, 3
0, 1
2, 3
1, 1
2, 1
2, 5
2, 4
4, 4
2, 2
3, 2
7, 3
4, 3
1, 2
0, 3
2, 1
1, 4
2, 3
2, 0
2, 3
2, 5
0, 3
0, 1
3, 5
0, 3
2, 7
5, 11
2, 5
1, 8
2, 14
2, 11
6, 14
4, 4
1, 8
3, 6
2, 7
3, 5
1, 5
3, 3
1, 1
2, 0
2, 4
4, 0
1, 3
4, 2
2, 2
3, 0
3, 1
0, 5
0, 2
3, 1
1, 2
3, 4
1, 2
5, 4
7, 2
1, 1
1, 3
4, 3
5, 1
6, 5
2, 3
5, 3
1, 1
2, 2
1, 2
1, 2
3, 1
1, 1
0, 3
2, 1
2, 2
3, 3
3, 1
5, 3
0, 3
2, 1
7, 8
3, 4
4, 5
2, 5
3, 5
3, 7
2, 2
1, 2
2, 4
0, 0
1, 2
2, 2
3, 2
1, 2
2, 2
2, 0
2, 1
0, 1
1, 2
1, 2
1, 1
0, 0
1, 3
0, 2
0, 0
2, 1
3, 2
2, 0
5, 0
2, 2
2, 1
3, 1
2, 3
0, 5
0, 1
2, 0
1, 3
0, 3
0, 1
2, 2
0, 2
2, 3
1, 0
1, 1
0, 0
1, 3
0, 0
2, 0
1, 1
0, 1
2, 2
1, 2
0, 0
2, 0
0, 1
1, 3
1, 1
0, 3
0, 4
1, 1
1, 2
1, 0
1, 1
2, 1
1, 0
1, 1
1, 2
0, 1
0, 1
0, 0
2, 0
1, 2
1, 3
2, 4
2, 0
1, 1
1, 0
2, 2
0, 1
4, 0
0, 2
1, 0
0, 1
0, 2
0, 0
3, 0
1, 0
1, 0
0, 0
1, 2
0, 1
1, 1
0, 0
3, 3
0, 0
0, 1
1, 0
0, 0
0, 2
1, 1
0, 0
0, 1
2, 0
2, 1
0, 1
0, 2
2, 1
1, 3
0, 0
1, 0
2, 1
0, 0
0, 2
0, 1
1, 1
0, 2
1, 0
0, 0
0, 1
4, 2
0, 0
1, 0
0, 0
0, 0
0, 0
0, 0
1, 1
0, 1
1, 1
0, 0
1, 1
1, 2
0, 0
0, 0
1, 0
0, 0
0, 0
0, 2
1, 0
1, 0
0, 0
1, 1
0, 0
1, 2
0, 0
2, 0
0, 1
0, 0
0, 1
1, 1
2, 0
1, 0
1, 0
0, 2
0, 0
0, 0
4, 1
0, 0
1, 0
0, 2
0, 0
0, 1
0, 1
1, 1
0, 0
0, 1
0, 1
2, 1
0, 0
0, 0
0, 0
0, 0
0, 0
1, 0
1, 0
0, 0
0, 0
0, 0
0, 0
0, 0
0, 2
0, 1
1, 0
0, 0
0, 0
0, 1
0, 1
0, 1
0, 0
0, 0
0, 1
0, 1
0, 0
1, 0
0, 0
0, 1
0, 1
1, 0
0, 0
0, 0
0, 0
0, 1
0, 2
0, 0
0, 0
0, 0
0, 0
0, 0
0, 1
0, 1
1, 0
0, 1
0, 0
0, 0
0, 0
0, 0
0, 1
2, 0
1, 0
0, 0
0, 0
0, 0
0, 0
0, 0
1, 0
0, 0
1, 1
0, 0
0, 1
0, 0
0, 0
0, 0
0, 0
0, 0
0, 1
1, 0
0, 1
0, 0
0, 0
0, 0
0, 0
0, 0
0, 0
0, 0
0, 0
0, 0
1, 0
0, 0
1, 0
0, 1
0, 0
0, 0
0, 0
0, 0
0, 1
0, 1
1, 0
0, 0
0, 0
0, 1
0, 0
0, 0
0, 0
0, 0
1, 0
0, 0
0, 0
1, 2
0, 0
0, 0
0, 0
0, 0
0, 0
0, 0
0, 0
0, 0
0, 0
2, 1
0, 0
0, 0
0, 0
0, 0
0, 0
0, 0
0, 0
1, 0
0, 0
1, 0
0, 0
0, 0
0, 0
0, 0
0, 0
0, 0
0, 0
0, 0
0, 0
0, 0
0, 0
0, 0
1, 0
0, 0
0, 0
1, 0
0, 0
0, 0
0, 1
0, 0
0, 0
0, 1
1, 1
0, 0
1, 0
0, 0
0, 0
0, 0
1, 1
0, 0
0, 0
0, 0
0, 0
1, 0
0, 0
0, 0
0, 1
0, 0
0, 0
0, 0
0, 0
0, 0
0, 0
0, 0
0, 0
0, 1
1, 0
0, 0
1, 0
0, 0
0, 0
0, 0
0, 0
0, 0
0, 0
0, 0
0, 0
0, 0
1, 0
0, 0
0, 0
0, 0
0, 0
0, 0
0, 0
0, 0
0, 0
0, 0
0, 1
0, 0
1, 0
0, 1
0, 0
0, 0
0, 0
0, 0
0, 0
0, 0
0, 0
0, 0
0, 0
0, 0
0, 1
0, 0
0, 0
0, 0
0, 0
0, 0
0, 0
0, 0
0, 0
0, 0
0, 0
0, 0
0, 0
0, 0
0, 0
0, 0
0, 0
0, 0
0, 0
0, 0
0, 0
1, 0
0, 0
0, 0
0, 0
0, 0
0, 1
0, 0
0, 0
0, 0
0, 0
0, 0
0, 0
0, 0
0, 0
0, 0
0, 0
0, 0
0, 0
0, 1
0, 0
0, 0
0, 0
0, 0
0, 0
1, 0
0, 0
0, 0
1, 0
0, 0
0, 0
0, 0
0, 0
0, 0
0, 0
0, 0
0, 0
0, 0
0, 0
0, 0
0, 1
0, 0
0, 0
0, 0
0, 0
0, 0
0, 0
0, 0
1, 0
0, 0
0, 0
0, 0
0, 0
0, 0
0, 0
0, 0
0, 0
0, 0
0, 0
0, 0
0, 0
0, 0
0, 0
0, 0
0, 0
0, 0
0, 0
0, 0
0, 0
0, 0
0, 0
0, 0
0, 0
0, 0
0, 0
0, 0
0, 1
0, 0
0, 0
0, 0
0, 0
0, 0
0, 0
0, 0
0, 0
0, 0
0, 0
0, 0
0, 0
0, 0
0, 0
0, 0
0, 0
0, 0
0, 0
0, 0
0, 0
0, 0
0, 0
0, 0
0, 0
0, 0
0, 0
0, 0
0, 0
0, 0
0, 0
0, 0
0, 0
0, 0
0, 0
0, 0
0, 0
0, 0
0, 0
0, 0
0, 0
0, 0
0, 0
0, 0
0, 0
0, 0
0, 0
0, 0
0, 0
0, 0
0, 0
0, 0
0, 0
0, 0
0, 0
0, 1
0, 0
0, 0
0, 0
0, 0
0, 0
0, 0
0, 0
0, 0
0, 0
0, 0
0, 0
0, 0
0, 0
0, 0
0, 0
0, 0
0, 0
0, 0
0, 0
0, 0
0, 0
0, 0
0, 0
0, 0
0, 0
0, 0
0, 0
0, 0
0, 0
0, 0
0, 0
0, 0
0, 0
0, 0
0, 0
0, 0
0, 0
0, 0
0, 0
0, 0
0, 0
0, 0
0, 0
0, 0
0, 0
0, 0
0, 0
0, 0
0, 0
0, 0
0, 0
0, 0
0, 0
0, 0
0, 0
0, 0
0, 0
0, 0
0, 0
0, 0
0, 0
0, 0
0, 0
0, 0
0, 0
0, 0
0, 0
0, 0
0, 0
0, 0
0, 0
0, 0
0, 0
0, 0
0, 0
0, 0
0, 0
0, 0
0, 0
0, 0
0, 0
0, 0
0, 0
0, 0
0, 0
0, 0
0, 0
0, 0
0, 0
0, 0
0, 0
0, 0
0, 0
0, 0
0, 0
0, 0
0, 0
0, 0
0, 0
0, 0
0, 0
0, 0
0, 0
0, 0
0, 0
0, 0
0, 0
0, 0
0, 0
0, 0
0, 0
0, 0
0, 0
0, 0
0, 0
0, 0
0, 0
0, 0
0, 0
0, 0
0, 0
0, 0
0, 0
0, 0
0, 0
0, 0
0, 0
0, 0
0, 0
0, 0
0, 0
0, 0
0, 0
0, 0
0, 0
0, 0
0, 0
0, 0
0, 0
0, 0
0, 0
0, 0
0, 0
0, 0
0, 0
0, 0
0, 0
0, 0
0, 0
0, 0
0, 0
0, 0
0, 0
0, 0
0, 0
0, 0
0, 0
0, 0
0, 0
0, 0
0, 0
0, 0
0, 0
0, 0
0, 0
0, 0
0, 0
0, 0
0, 0
0, 0
0, 0
0, 0
0, 0
0, 0
0, 0
0, 0
0, 0
0, 0
0, 0
0, 0
0, 0
0, 0
0, 0
0, 0
0, 0
0, 0
0, 0
0, 0
0, 0
0, 0
0, 0
0, 0
0, 0
0, 0
0, 0
0, 0
0, 0
0, 0
0, 0
0, 0
0, 0
0, 0
0, 0
0, 0
0, 0
0, 0
0, 0
0, 0
0, 0
0, 0
0, 0
0, 0
0, 0
0, 0
0, 0
0, 0
0, 0
0, 0
0, 0
0, 0
0, 0
0, 0
0, 0
0, 0
0, 0
0, 0
0, 0
0, 0
0, 0
0, 0
0, 0
0, 0
0, 0
0, 0
0, 0
0, 0
0, 0
0, 0
0, 0
0, 0
0, 0
0, 0
0, 0
0, 0
0, 0
0, 0
0, 0
0, 0
0, 0
0, 0
0, 0
0, 0
0, 0
0, 0
0, 0
0, 0
0, 0
0, 0
0, 0
0, 0
0, 0
0, 0
0, 0
0, 0
0, 0
0, 0
0, 0
0, 0
0, 0
0, 0
0, 0
0, 0
0, 0
0, 0
0, 0
0, 0
0, 0
0, 0
0, 0
0, 0
0, 0
0, 0
0, 0
0, 0
0, 0
0, 0
0, 0
0, 0
0, 0
0, 0
0, 0
0, 0
0, 0
0, 0
0, 0
0, 0
0, 0
0, 0
0, 0
0, 0
0, 0
0, 0
0, 0
0, 0
#ENDOFDATA     end of spectrum data