File: host_upload/06-09-2024/ps_0852/dump3/ps__0852shot_2401.msa
#FORMAT      : EMSA/MAS spectral data file
#VERSION     : TC202v2.0 PIXL
#TITLE       : N/A
#DATE        :       Date in the format DD-MMM-YYYY, for example 07-JUL-2010
#TIME        :             The time of day at which the spectrum was recorded, in 24-hour format
#OWNER       : PIXL Flight Model       (PIXL will use this to indicate which instrument took the data.)
#NPOINTS     : 4096     Number of data points in the spectrum (This can be zero for configuration only files)
#NCOLUMNS    : 2     Number of data columns in the spectrum (This can be zero for configuration only files)
#XUNITS      : eV
#YUNITS      : COUNTS
#DATATYPE    : YY
#XPERCHAN    : 7.862, 7.881   eV per channel (separate by commas if more than one detector)
#OFFSET      : 18.5, -22.4         eV of first channel  (separate by commas if more than one detector
#SIGNALTYPE  : XRF
#YP_TEMP     : 2.492
#LIVETIME    : 8.57796, 8.56326   seconds (separate by commas if more than one detector)
#REALTIME    : 10, 10.0   seconds (separate by commas if more than one detector)
#SPECTRUM    : start of spectrum data
0, 0
0, 0
0, 0
0, 0
0, 0
0, 0
0, 0
0, 0
0, 0
0, 0
0, 0
0, 0
0, 0
0, 0
0, 0
0, 0
0, 0
0, 0
0, 0
0, 0
0, 0
0, 0
0, 0
0, 0
0, 0
0, 0
0, 0
0, 0
0, 0
0, 0
0, 0
0, 1
0, 0
0, 0
0, 0
0, 1
0, 0
1, 0
0, 2
1, 1
1, 4
1, 0
1, 4
3, 1
1, 0
2, 5
1, 1
0, 2
7, 7
14, 13
19, 23
45, 43
67, 48
65, 74
88, 79
80, 82
73, 66
63, 35
30, 25
20, 12
11, 6
5, 1
5, 1
6, 4
2, 5
5, 5
5, 6
9, 6
21, 21
48, 49
98, 101
167, 172
295, 274
394, 387
451, 416
428, 440
416, 354
325, 291
222, 184
135, 101
67, 68
43, 44
22, 17
16, 5
8, 5
3, 1
0, 2
0, 0
0, 1
3, 0
2, 0
2, 0
2, 1
2, 1
1, 1
4, 3
0, 4
1, 1
1, 4
2, 2
3, 5
3, 10
1, 4
2, 5
2, 4
5, 8
4, 9
7, 7
4, 9
11, 14
9, 18
15, 20
26, 41
28, 58
25, 58
32, 68
36, 63
34, 51
30, 49
34, 33
26, 25
20, 14
15, 22
13, 16
9, 14
10, 12
10, 11
6, 9
5, 8
2, 3
4, 5
2, 1
6, 4
7, 0
1, 0
2, 2
3, 1
1, 4
4, 3
1, 0
1, 2
3, 4
2, 0
1, 2
5, 2
0, 0
2, 2
6, 2
5, 1
8, 2
4, 6
7, 3
9, 9
12, 6
20, 17
13, 13
27, 15
16, 15
16, 21
21, 16
14, 9
15, 16
13, 3
8, 6
11, 6
6, 4
7, 3
11, 3
6, 4
12, 1
7, 2
8, 6
8, 6
12, 3
17, 6
9, 4
15, 9
18, 5
19, 5
21, 6
16, 10
23, 7
24, 11
13, 14
5, 9
7, 7
9, 9
11, 3
7, 5
4, 4
6, 8
2, 6
10, 5
6, 9
13, 20
8, 9
9, 14
15, 17
14, 14
11, 18
11, 8
10, 11
4, 5
6, 4
9, 6
1, 4
6, 14
5, 13
6, 12
5, 10
5, 7
3, 11
2, 14
6, 7
2, 12
4, 17
2, 14
7, 11
4, 9
5, 6
5, 10
7, 8
5, 9
4, 8
6, 7
19, 7
12, 8
18, 14
9, 8
14, 14
15, 15
22, 15
17, 8
15, 12
13, 8
21, 8
25, 13
26, 7
28, 8
37, 14
31, 19
32, 22
32, 38
32, 36
31, 55
32, 61
43, 67
33, 74
51, 78
41, 93
61, 82
63, 78
61, 59
41, 52
43, 52
34, 24
32, 20
29, 21
16, 11
23, 17
22, 28
31, 38
52, 50
95, 108
142, 171
279, 368
496, 608
757, 986
1152, 1341
1633, 1780
1975, 2091
2319, 2340
2459, 2296
2470, 2225
2191, 1915
1715, 1494
1354, 1121
937, 758
620, 414
376, 245
225, 116
117, 82
64, 42
35, 27
14, 13
12, 14
23, 20
8, 26
10, 12
13, 21
25, 31
33, 42
51, 55
57, 77
109, 116
165, 168
187, 225
233, 274
304, 316
384, 343
349, 348
349, 319
294, 261
260, 208
214, 168
125, 100
87, 89
58, 59
30, 35
13, 33
13, 24
11, 27
13, 20
12, 19
9, 27
10, 15
17, 20
20, 9
9, 12
10, 7
12, 9
12, 4
7, 13
7, 8
4, 7
4, 4
3, 3
4, 4
2, 10
2, 4
3, 3
3, 5
5, 3
6, 4
2, 6
1, 4
5, 3
6, 7
2, 4
4, 7
6, 4
3, 5
8, 9
2, 10
1, 12
4, 24
3, 22
1, 29
5, 33
4, 46
10, 41
2, 38
14, 36
5, 27
6, 24
11, 23
4, 13
10, 19
8, 8
11, 5
4, 5
11, 6
6, 4
3, 1
6, 2
3, 6
1, 4
7, 3
5, 12
2, 3
2, 1
2, 2
4, 2
6, 3
6, 4
5, 6
4, 3
4, 6
5, 5
1, 6
1, 4
5, 5
5, 6
8, 10
5, 14
2, 4
3, 5
3, 9
4, 3
2, 11
3, 9
2, 5
4, 9
4, 5
9, 6
4, 2
5, 5
10, 4
7, 0
11, 4
15, 3
7, 2
9, 1
6, 3
11, 4
16, 1
15, 4
12, 2
11, 2
3, 1
6, 5
7, 6
6, 1
1, 3
5, 0
2, 3
2, 5
3, 1
0, 3
5, 2
2, 0
5, 2
5, 4
4, 2
2, 3
5, 5
2, 2
6, 2
2, 4
2, 2
3, 6
4, 3
3, 5
2, 1
0, 3
1, 1
1, 4
4, 9
4, 3
4, 2
2, 3
2, 3
7, 4
5, 1
5, 1
5, 5
10, 0
13, 2
9, 2
3, 2
5, 4
5, 2
9, 2
3, 4
0, 1
4, 4
1, 2
3, 1
1, 3
2, 3
3, 1
0, 3
4, 3
3, 4
2, 2
2, 4
3, 2
2, 2
1, 2
5, 4
3, 1
2, 3
3, 6
1, 1
3, 3
3, 1
6, 1
3, 1
2, 1
4, 4
4, 3
1, 1
2, 4
4, 0
1, 2
1, 6
3, 4
5, 2
2, 4
3, 4
2, 8
2, 3
1, 3
2, 5
3, 2
0, 5
3, 5
1, 2
2, 5
3, 2
0, 2
3, 1
1, 3
1, 3
3, 2
2, 1
2, 2
1, 1
1, 2
1, 0
3, 1
1, 1
0, 3
3, 2
0, 0
0, 1
5, 1
3, 2
1, 0
0, 3
2, 3
1, 3
2, 3
2, 1
0, 1
0, 0
1, 2
2, 3
1, 1
4, 0
1, 2
4, 2
0, 0
1, 2
1, 1
2, 1
2, 1
1, 2
4, 1
4, 9
6, 7
3, 3
4, 2
1, 4
2, 3
6, 4
4, 1
3, 2
1, 1
0, 2
1, 3
1, 4
0, 0
2, 1
1, 3
0, 0
0, 1
3, 2
3, 0
4, 1
1, 2
1, 2
1, 1
0, 2
3, 3
2, 2
0, 2
2, 0
4, 2
1, 0
1, 2
0, 2
1, 0
2, 2
2, 3
1, 0
1, 0
3, 0
1, 0
1, 2
0, 1
3, 1
0, 3
1, 2
4, 0
1, 1
1, 1
0, 2
0, 1
0, 2
1, 3
0, 3
1, 4
2, 2
2, 1
2, 7
1, 1
2, 3
1, 2
2, 1
4, 1
0, 3
0, 1
0, 2
0, 0
0, 0
0, 0
1, 1
0, 0
1, 0
1, 2
1, 0
1, 1
1, 2
4, 0
0, 1
1, 3
1, 0
0, 1
1, 1
3, 2
0, 2
1, 1
2, 2
3, 1
0, 0
2, 0
0, 0
1, 1
0, 0
0, 0
3, 2
0, 1
1, 1
0, 1
0, 0
0, 1
0, 2
2, 2
0, 2
1, 1
1, 1
0, 1
1, 2
0, 0
2, 0
2, 0
1, 0
0, 0
1, 0
0, 0
0, 0
0, 1
0, 1
1, 0
0, 2
0, 0
1, 1
0, 1
1, 0
1, 0
0, 1
1, 2
1, 0
0, 1
0, 1
1, 0
1, 0
1, 0
2, 0
1, 0
0, 0
0, 0
0, 0
3, 0
0, 1
1, 1
1, 1
0, 1
0, 1
0, 0
1, 1
1, 1
1, 1
0, 0
0, 0
0, 0
0, 1
0, 0
0, 2
0, 0
0, 0
0, 1
0, 0
0, 0
1, 0
0, 1
1, 0
1, 1
2, 2
0, 0
2, 0
0, 0
2, 0
0, 1
0, 0
1, 0
0, 1
2, 1
0, 0
1, 0
0, 1
0, 0
1, 1
0, 0
1, 0
0, 1
0, 1
2, 0
0, 0
1, 0
0, 1
0, 1
0, 0
0, 0
0, 0
0, 0
0, 0
0, 1
0, 0
1, 1
1, 0
0, 1
2, 0
0, 0
0, 1
0, 0
0, 1
0, 0
0, 0
0, 0
0, 0
0, 0
0, 0
1, 0
0, 0
1, 0
1, 2
0, 0
0, 0
1, 0
0, 0
0, 0
0, 1
1, 0
0, 0
0, 0
1, 0
0, 1
1, 1
0, 0
0, 0
0, 0
0, 1
0, 0
1, 0
1, 0
0, 0
0, 0
0, 1
0, 0
0, 0
0, 0
0, 0
0, 0
0, 0
0, 0
0, 0
0, 0
0, 0
1, 0
1, 0
1, 0
1, 0
0, 0
1, 0
0, 1
0, 0
1, 0
0, 0
0, 0
1, 0
1, 1
0, 0
0, 0
0, 0
0, 0
0, 1
1, 1
0, 0
0, 1
1, 0
0, 0
0, 0
0, 0
0, 1
1, 0
0, 1
0, 0
1, 0
1, 0
0, 1
1, 0
0, 0
0, 0
0, 1
0, 0
0, 1
0, 0
0, 0
0, 0
0, 0
0, 0
0, 0
0, 0
0, 0
0, 0
0, 0
1, 0
0, 0
0, 0
0, 0
0, 1
0, 0
0, 0
0, 0
0, 0
0, 0
0, 0
0, 0
0, 0
0, 1
0, 0
1, 0
0, 0
1, 0
0, 0
0, 0
0, 0
0, 1
0, 0
1, 0
0, 0
0, 1
0, 0
0, 1
0, 0
0, 0
0, 0
0, 0
0, 0
1, 0
0, 0
0, 0
0, 0
0, 0
0, 0
0, 0
0, 0
0, 0
0, 0
0, 0
0, 0
0, 0
0, 0
0, 0
0, 0
0, 0
0, 0
0, 0
0, 0
0, 0
0, 0
0, 1
0, 0
0, 1
0, 0
0, 0
0, 0
0, 0
0, 0
0, 0
0, 0
0, 0
0, 0
0, 0
0, 0
0, 0
0, 0
1, 0
0, 0
0, 0
0, 0
0, 0
0, 0
0, 0
0, 0
0, 0
0, 0
0, 0
0, 0
0, 0
0, 0
0, 0
0, 0
0, 0
0, 0
0, 0
0, 0
0, 0
0, 0
1, 0
0, 0
0, 0
0, 0
0, 0
0, 0
0, 0
0, 0
0, 0
0, 0
0, 0
0, 0
0, 0
0, 0
0, 0
0, 0
0, 0
0, 0
0, 0
0, 0
0, 0
0, 0
0, 0
0, 0
0, 0
0, 0
0, 0
0, 0
0, 0
0, 0
0, 0
0, 0
1, 0
0, 0
0, 0
0, 0
0, 0
0, 0
0, 0
0, 0
0, 0
0, 0
0, 0
0, 0
0, 0
0, 0
0, 0
0, 0
0, 0
0, 0
1, 0
0, 0
0, 0
0, 0
0, 0
0, 0
0, 0
0, 0
0, 0
0, 0
0, 0
0, 0
0, 0
0, 0
0, 0
1, 0
1, 0
0, 0
0, 0
0, 0
0, 0
0, 0
0, 0
0, 0
0, 0
0, 0
0, 0
0, 0
0, 0
0, 0
0, 0
0, 0
0, 0
0, 0
0, 0
0, 0
0, 0
0, 0
0, 0
0, 0
0, 0
0, 0
0, 0
0, 0
0, 0
0, 0
0, 0
0, 0
0, 0
0, 0
0, 0
0, 0
0, 0
0, 0
0, 0
0, 0
0, 0
0, 0
0, 0
1, 0
0, 0
0, 0
1, 0
0, 0
0, 0
0, 0
0, 0
0, 0
0, 0
0, 0
0, 0
0, 0
0, 0
0, 0
0, 0
0, 0
0, 0
0, 0
0, 0
0, 0
0, 0
0, 0
0, 0
0, 0
0, 0
0, 0
0, 0
0, 0
0, 0
0, 0
0, 0
0, 0
0, 0
0, 0
0, 0
0, 0
0, 0
0, 0
0, 0
0, 0
0, 0
0, 0
0, 0
0, 0
0, 0
0, 0
0, 0
0, 0
0, 0
0, 0
0, 0
0, 0
0, 0
0, 0
0, 0
0, 0
0, 0
0, 0
0, 0
0, 0
0, 0
0, 0
0, 0
0, 0
0, 0
0, 0
0, 0
0, 0
0, 0
0, 0
0, 0
0, 0
0, 0
0, 0
0, 0
0, 0
0, 1
0, 0
0, 0
0, 0
0, 0
0, 0
0, 0
0, 0
0, 0
0, 0
0, 0
0, 0
0, 0
0, 0
0, 0
0, 0
0, 0
0, 0
0, 0
0, 0
0, 0
0, 0
0, 0
0, 0
0, 0
0, 0
0, 0
0, 0
0, 0
0, 0
0, 0
0, 0
0, 0
0, 0
0, 0
0, 0
0, 0
0, 0
0, 0
0, 0
0, 0
0, 0
0, 0
0, 0
0, 0
0, 0
0, 0
0, 0
0, 0
0, 0
0, 0
0, 0
0, 0
0, 0
0, 0
0, 0
0, 0
0, 0
0, 0
0, 0
0, 0
0, 0
0, 0
0, 0
0, 0
0, 0
0, 0
0, 0
0, 0
0, 0
0, 0
0, 0
0, 0
0, 0
0, 0
0, 0
0, 0
0, 0
0, 0
0, 0
0, 0
0, 0
0, 0
0, 0
0, 0
0, 0
0, 0
0, 0
0, 0
0, 0
0, 0
0, 0
0, 0
0, 0
0, 0
0, 0
0, 0
0, 0
0, 0
0, 0
0, 0
0, 0
0, 0
0, 0
0, 0
0, 0
0, 0
0, 0
0, 0
0, 0
0, 0
0, 0
0, 0
0, 0
0, 0
0, 0
0, 0
0, 0
0, 0
0, 0
0, 0
0, 0
0, 0
0, 0
0, 0
0, 0
0, 0
0, 0
0, 0
0, 0
0, 0
0, 0
0, 0
0, 0
0, 0
0, 0
0, 0
0, 0
0, 0
0, 0
0, 0
0, 0
0, 0
0, 0
0, 0
0, 0
0, 0
0, 0
0, 0
0, 0
0, 0
0, 0
0, 0
0, 0
0, 0
0, 0
0, 0
0, 0
0, 0
0, 0
0, 0
0, 0
0, 0
0, 0
0, 0
0, 0
0, 0
0, 0
0, 0
0, 0
0, 0
0, 0
0, 0
0, 0
0, 0
0, 0
0, 0
0, 0
0, 0
0, 0
0, 0
0, 0
0, 0
0, 0
0, 0
0, 0
0, 0
0, 0
0, 0
0, 0
0, 0
0, 0
0, 0
0, 0
0, 0
0, 0
0, 0
0, 0
0, 0
0, 0
0, 0
0, 0
0, 0
0, 0
0, 0
0, 0
0, 0
0, 0
0, 0
0, 0
0, 0
0, 0
0, 0
0, 0
0, 0
0, 0
0, 0
0, 0
0, 0
0, 0
0, 0
0, 0
0, 0
0, 0
0, 0
0, 0
0, 0
0, 0
0, 0
0, 0
0, 0
0, 0
0, 0
0, 0
0, 0
0, 0
0, 0
0, 0
0, 0
0, 0
0, 0
0, 0
0, 0
0, 0
0, 0
0, 0
0, 0
0, 0
0, 0
0, 0
0, 0
0, 0
0, 0
0, 0
0, 0
0, 0
0, 0
0, 0
0, 0
#ENDOFDATA     end of spectrum data