File: host_upload/06-09-2024/ps_0852/dump3/ps__0852shot_2517.msa
#FORMAT      : EMSA/MAS spectral data file
#VERSION     : TC202v2.0 PIXL
#TITLE       : N/A
#DATE        :       Date in the format DD-MMM-YYYY, for example 07-JUL-2010
#TIME        :             The time of day at which the spectrum was recorded, in 24-hour format
#OWNER       : PIXL Flight Model       (PIXL will use this to indicate which instrument took the data.)
#NPOINTS     : 4096     Number of data points in the spectrum (This can be zero for configuration only files)
#NCOLUMNS    : 2     Number of data columns in the spectrum (This can be zero for configuration only files)
#XUNITS      : eV
#YUNITS      : COUNTS
#DATATYPE    : YY
#XPERCHAN    : 7.862, 7.881   eV per channel (separate by commas if more than one detector)
#OFFSET      : 18.5, -22.4         eV of first channel  (separate by commas if more than one detector
#SIGNALTYPE  : XRF
#YP_TEMP     : 2.171
#LIVETIME    : 8.54789, 8.56111   seconds (separate by commas if more than one detector)
#REALTIME    : 10, 10.0   seconds (separate by commas if more than one detector)
#SPECTRUM    : start of spectrum data
0, 0
0, 0
0, 0
0, 0
0, 0
0, 0
0, 0
0, 0
0, 0
0, 0
0, 0
0, 0
0, 0
0, 0
0, 0
0, 0
0, 0
0, 0
0, 0
0, 0
0, 0
0, 0
0, 0
0, 0
0, 0
0, 0
0, 0
0, 0
1, 0
0, 0
0, 0
0, 0
0, 0
0, 0
0, 1
1, 2
3, 1
1, 0
1, 2
1, 3
1, 2
4, 3
1, 3
1, 1
2, 3
1, 0
2, 2
3, 4
4, 6
10, 12
11, 22
33, 44
50, 48
55, 57
70, 75
56, 59
48, 55
48, 28
31, 16
14, 9
5, 6
4, 2
3, 4
5, 2
2, 2
8, 5
5, 6
8, 6
18, 23
29, 39
65, 65
120, 117
184, 164
250, 257
332, 296
310, 312
314, 266
217, 219
132, 129
98, 74
40, 49
32, 24
14, 21
10, 6
5, 10
7, 3
4, 4
5, 5
4, 9
6, 7
5, 8
27, 11
38, 30
77, 68
144, 162
234, 259
358, 367
454, 526
549, 592
604, 590
520, 517
391, 405
311, 282
185, 182
121, 112
72, 58
74, 60
44, 47
44, 43
46, 57
57, 51
72, 72
80, 91
83, 81
88, 83
90, 76
72, 62
51, 59
48, 54
36, 35
34, 33
32, 37
29, 27
25, 37
19, 13
22, 23
20, 22
15, 12
9, 14
14, 15
11, 9
4, 3
4, 3
7, 1
3, 7
8, 6
2, 4
2, 9
3, 14
6, 8
8, 9
9, 9
4, 7
8, 10
7, 7
6, 6
4, 5
2, 4
3, 6
7, 5
2, 11
20, 18
26, 33
34, 53
53, 83
70, 93
94, 100
100, 108
84, 95
69, 87
70, 77
49, 41
28, 19
25, 17
17, 12
10, 9
9, 11
12, 11
16, 9
13, 14
20, 15
19, 25
22, 18
19, 15
24, 7
23, 12
22, 8
24, 4
16, 6
20, 11
12, 6
12, 8
13, 10
8, 10
3, 20
7, 19
9, 15
6, 33
9, 31
10, 27
8, 26
12, 24
9, 31
11, 21
14, 20
9, 28
11, 20
18, 8
18, 19
16, 19
10, 16
11, 13
8, 15
10, 9
6, 8
3, 3
3, 8
5, 7
9, 7
9, 10
4, 12
7, 12
5, 12
7, 9
6, 14
4, 9
14, 8
10, 8
5, 6
6, 12
12, 6
5, 4
8, 8
10, 12
12, 16
14, 18
14, 15
17, 14
18, 22
25, 22
27, 31
22, 23
26, 39
23, 16
25, 30
22, 13
23, 14
15, 18
5, 18
13, 9
11, 11
12, 11
12, 15
11, 22
13, 8
18, 25
29, 23
29, 45
48, 55
57, 56
65, 62
64, 52
51, 53
60, 46
50, 38
22, 26
21, 16
14, 17
14, 13
15, 17
19, 27
26, 22
53, 47
73, 72
144, 183
244, 298
461, 529
704, 850
1068, 1220
1393, 1532
1840, 1942
2046, 2158
2294, 2229
2203, 2010
1912, 1706
1600, 1358
1238, 971
793, 638
548, 411
310, 188
181, 121
95, 82
37, 29
29, 28
20, 20
16, 31
14, 32
12, 30
17, 38
13, 28
18, 41
25, 37
39, 57
58, 75
99, 97
120, 161
185, 211
228, 239
271, 294
332, 323
347, 307
312, 313
269, 253
239, 208
171, 133
136, 105
75, 65
61, 33
22, 19
19, 14
11, 14
11, 7
3, 7
11, 9
5, 8
18, 12
13, 14
19, 15
11, 17
16, 15
9, 13
21, 12
8, 17
12, 14
11, 27
12, 22
9, 26
7, 21
6, 29
6, 31
6, 26
1, 36
5, 17
6, 17
1, 10
2, 11
2, 12
3, 6
2, 2
8, 3
3, 4
4, 7
4, 4
6, 4
6, 7
5, 6
9, 4
5, 12
3, 6
4, 8
0, 7
8, 5
4, 11
3, 7
6, 7
7, 9
5, 5
3, 9
4, 4
3, 5
3, 5
5, 5
2, 4
8, 4
2, 7
6, 10
3, 14
2, 7
6, 10
8, 14
5, 5
2, 3
4, 9
4, 8
7, 5
7, 5
5, 8
7, 8
6, 4
3, 4
8, 4
4, 6
4, 7
5, 8
7, 6
4, 6
2, 10
7, 6
3, 11
5, 5
5, 4
2, 5
2, 5
4, 2
3, 4
3, 3
5, 3
4, 2
5, 9
2, 5
2, 5
6, 1
4, 6
5, 0
6, 0
9, 0
4, 5
4, 3
1, 4
4, 2
4, 2
5, 4
4, 6
2, 6
4, 0
2, 2
2, 7
3, 11
1, 4
3, 7
5, 3
3, 5
5, 2
2, 3
6, 7
6, 7
6, 10
2, 7
4, 13
0, 13
2, 4
1, 7
2, 1
3, 4
4, 8
3, 8
0, 3
3, 11
2, 7
4, 3
7, 2
2, 4
5, 4
3, 3
1, 3
5, 4
6, 4
4, 4
6, 1
5, 4
3, 1
6, 3
3, 2
5, 4
2, 2
3, 4
4, 1
4, 2
2, 1
2, 4
6, 3
4, 1
3, 5
4, 1
9, 5
1, 6
0, 7
4, 3
6, 5
2, 7
3, 8
1, 9
3, 8
6, 3
2, 7
1, 7
0, 8
2, 5
2, 6
2, 2
2, 7
2, 2
1, 2
4, 4
3, 0
5, 2
1, 2
2, 2
2, 1
1, 4
3, 2
4, 3
3, 3
3, 3
2, 2
3, 2
3, 0
2, 4
3, 2
2, 3
2, 0
2, 1
3, 1
0, 4
1, 1
2, 2
2, 3
3, 1
1, 1
2, 2
1, 1
1, 2
2, 1
2, 1
0, 1
1, 2
1, 1
3, 3
0, 3
3, 3
2, 5
2, 0
1, 0
2, 5
2, 3
2, 0
6, 0
4, 3
1, 1
2, 1
1, 1
2, 1
3, 0
2, 1
1, 3
3, 1
1, 3
1, 1
3, 2
1, 2
4, 2
4, 5
2, 3
6, 3
4, 3
1, 1
0, 1
5, 1
3, 3
0, 4
2, 2
2, 6
5, 2
3, 3
0, 2
2, 2
0, 1
1, 0
1, 1
1, 1
2, 2
0, 0
2, 1
0, 3
0, 1
1, 1
1, 1
1, 0
1, 3
1, 1
3, 2
0, 2
4, 3
2, 3
3, 4
2, 1
2, 1
1, 0
1, 1
2, 3
1, 2
0, 0
1, 2
1, 2
1, 0
1, 3
0, 2
1, 3
0, 1
1, 2
2, 1
3, 2
1, 1
1, 0
0, 0
2, 4
1, 1
1, 0
1, 1
0, 1
1, 1
0, 0
3, 0
3, 2
2, 3
0, 3
0, 0
1, 0
0, 0
0, 0
0, 0
2, 0
0, 0
1, 0
1, 0
2, 0
1, 0
1, 0
0, 0
0, 2
0, 0
0, 1
1, 1
0, 0
2, 0
2, 2
1, 2
2, 1
0, 0
1, 0
1, 0
1, 0
1, 2
1, 1
1, 1
0, 0
0, 1
1, 1
0, 1
2, 0
1, 0
1, 0
0, 0
1, 1
0, 1
0, 0
1, 0
2, 0
0, 0
0, 1
3, 0
0, 1
0, 0
1, 1
0, 0
1, 1
0, 0
0, 2
3, 3
0, 0
0, 0
0, 1
0, 1
0, 1
1, 1
1, 0
0, 0
1, 1
0, 0
1, 0
0, 0
1, 1
0, 0
0, 1
0, 0
0, 1
0, 4
1, 0
0, 0
0, 0
0, 0
0, 0
0, 0
1, 0
0, 0
0, 0
2, 1
0, 1
0, 0
1, 0
0, 0
2, 1
0, 0
1, 0
3, 0
0, 1
0, 1
0, 0
0, 0
0, 1
1, 0
1, 1
0, 1
0, 3
0, 0
0, 1
1, 1
0, 0
1, 0
0, 1
0, 0
0, 0
0, 0
0, 0
0, 1
1, 1
0, 0
0, 0
0, 0
3, 0
0, 0
1, 0
1, 1
0, 1
0, 1
0, 1
2, 0
0, 1
0, 0
0, 1
0, 0
1, 0
0, 0
1, 1
0, 0
0, 0
0, 1
0, 0
0, 0
1, 0
0, 1
0, 0
0, 0
1, 0
0, 1
0, 1
2, 1
0, 0
0, 0
0, 1
0, 0
0, 1
0, 1
0, 0
0, 1
0, 0
1, 2
0, 1
1, 1
1, 0
0, 0
0, 0
0, 0
0, 0
0, 0
0, 0
0, 0
0, 1
0, 0
0, 0
0, 0
0, 0
0, 0
0, 0
1, 1
0, 0
0, 0
1, 0
0, 1
0, 0
0, 0
0, 0
0, 1
0, 1
0, 0
0, 0
0, 0
0, 0
0, 0
0, 0
1, 0
0, 1
0, 0
0, 0
0, 0
0, 0
1, 0
0, 0
0, 0
0, 0
0, 0
0, 1
1, 1
0, 0
1, 0
0, 0
0, 0
0, 0
1, 1
0, 0
0, 1
0, 0
0, 0
0, 0
0, 0
0, 0
1, 2
1, 0
0, 1
1, 0
0, 0
2, 0
0, 0
0, 0
0, 0
0, 0
0, 0
0, 0
0, 1
0, 0
0, 0
0, 0
0, 0
0, 0
0, 1
0, 0
0, 0
0, 0
0, 0
0, 0
0, 0
2, 0
0, 0
0, 0
1, 0
0, 0
0, 0
0, 1
0, 2
0, 0
0, 0
0, 0
0, 0
0, 0
0, 1
2, 0
0, 0
0, 0
0, 1
0, 0
0, 0
0, 0
0, 0
0, 1
0, 0
0, 0
0, 0
0, 1
0, 0
0, 0
0, 0
0, 0
0, 0
0, 0
0, 1
0, 0
0, 0
0, 0
0, 0
0, 0
0, 0
0, 0
0, 0
0, 1
0, 0
0, 0
0, 0
0, 0
0, 0
0, 0
0, 0
0, 0
0, 0
0, 1
0, 0
0, 0
1, 0
0, 0
1, 1
0, 0
0, 0
0, 0
0, 0
0, 0
0, 0
0, 0
0, 0
0, 0
0, 0
1, 0
0, 0
0, 1
0, 0
0, 0
0, 0
0, 0
0, 0
0, 0
0, 0
0, 0
0, 0
0, 0
0, 1
0, 0
0, 0
0, 0
0, 0
0, 0
0, 0
0, 0
0, 0
0, 0
0, 0
0, 0
0, 0
0, 0
0, 0
0, 0
0, 0
0, 0
0, 0
0, 0
0, 0
0, 0
0, 0
0, 0
0, 0
0, 0
0, 0
0, 0
0, 0
0, 0
0, 0
1, 0
0, 0
0, 0
0, 0
0, 0
0, 1
0, 0
0, 0
0, 0
0, 0
0, 0
0, 0
0, 0
0, 0
0, 0
0, 0
0, 0
0, 0
0, 0
0, 0
0, 0
0, 0
0, 0
0, 0
0, 0
0, 0
0, 1
0, 0
0, 0
0, 0
0, 0
0, 0
0, 0
0, 0
0, 0
0, 0
0, 0
0, 0
0, 0
0, 0
0, 0
0, 0
0, 0
0, 0
0, 0
0, 0
0, 0
0, 0
0, 0
0, 0
0, 0
0, 0
0, 0
0, 0
0, 0
0, 0
0, 0
0, 0
0, 0
0, 0
0, 1
0, 0
0, 0
0, 0
0, 0
0, 0
0, 0
0, 0
0, 0
0, 0
0, 0
0, 0
0, 0
0, 0
0, 0
0, 0
0, 0
0, 0
0, 0
0, 0
0, 0
0, 0
0, 0
0, 0
0, 0
0, 0
0, 0
0, 0
0, 0
0, 0
0, 0
0, 0
0, 0
0, 0
0, 0
0, 0
0, 0
0, 0
0, 0
0, 0
0, 0
0, 0
0, 0
0, 0
0, 0
0, 0
0, 0
0, 0
0, 0
0, 0
0, 0
0, 0
0, 0
0, 0
0, 0
0, 0
0, 0
0, 0
0, 0
0, 0
0, 0
0, 0
0, 0
0, 0
0, 0
0, 0
0, 0
0, 0
0, 0
0, 0
0, 0
0, 0
0, 0
0, 0
0, 0
0, 0
0, 0
0, 0
0, 0
0, 0
0, 0
0, 0
0, 0
0, 0
0, 0
0, 0
0, 0
0, 0
0, 0
0, 0
0, 0
0, 0
0, 0
0, 0
0, 0
0, 0
0, 0
0, 0
0, 0
0, 0
0, 0
0, 0
0, 0
0, 0
0, 0
0, 0
0, 0
0, 0
0, 0
0, 0
0, 0
0, 0
0, 0
0, 0
0, 0
0, 0
0, 0
0, 0
0, 0
0, 0
0, 0
0, 0
0, 0
0, 0
0, 0
0, 0
0, 0
0, 0
0, 0
0, 0
0, 0
0, 0
0, 0
0, 0
0, 0
0, 0
0, 0
0, 0
0, 0
0, 0
0, 0
0, 0
0, 0
0, 0
0, 0
0, 0
0, 0
0, 0
0, 0
0, 0
0, 0
0, 0
0, 0
0, 0
0, 0
0, 0
0, 0
0, 0
0, 0
0, 0
0, 0
0, 0
0, 0
0, 0
0, 0
0, 0
0, 0
0, 0
0, 0
0, 0
0, 0
0, 0
0, 0
0, 0
0, 0
0, 0
0, 0
0, 0
0, 0
0, 0
0, 0
0, 0
0, 0
0, 0
0, 0
0, 0
0, 0
0, 0
0, 0
0, 0
0, 0
0, 0
0, 0
0, 0
0, 0
0, 0
0, 0
0, 0
0, 0
0, 0
0, 0
0, 0
0, 0
0, 0
0, 0
0, 0
0, 0
0, 0
0, 0
0, 0
0, 0
0, 0
0, 0
0, 0
0, 0
0, 0
0, 0
0, 0
0, 0
0, 0
0, 0
0, 0
0, 0
0, 0
0, 0
0, 0
0, 0
0, 0
0, 0
0, 0
0, 0
0, 0
0, 0
0, 0
0, 0
0, 0
0, 0
0, 0
0, 0
0, 0
0, 0
0, 0
0, 0
0, 0
0, 0
0, 0
0, 0
0, 0
0, 0
0, 0
0, 0
0, 0
0, 0
0, 0
0, 0
0, 0
0, 0
0, 0
0, 0
0, 0
0, 0
0, 0
0, 0
0, 0
0, 0
0, 0
0, 0
0, 0
0, 0
0, 0
0, 0
0, 0
0, 0
0, 0
0, 0
0, 0
0, 0
0, 0
0, 0
0, 0
0, 0
0, 0
0, 0
0, 0
0, 0
0, 0
0, 0
0, 0
0, 0
0, 0
0, 0
0, 0
0, 0
0, 0
0, 0
0, 0
0, 0
0, 0
0, 0
0, 0
0, 0
0, 0
0, 0
0, 0
0, 0
0, 0
0, 0
0, 0
0, 0
0, 0
0, 0
0, 0
0, 0
0, 0
0, 0
0, 0
0, 0
0, 0
0, 0
0, 0
0, 0
0, 0
0, 0
0, 0
0, 0
0, 0
0, 0
0, 0
0, 0
0, 0
0, 0
0, 0
0, 0
0, 0
0, 0
0, 0
0, 0
0, 0
0, 0
0, 0
0, 0
0, 0
0, 0
0, 0
0, 0
0, 0
0, 0
0, 0
0, 0
0, 0
0, 0
0, 0
0, 0
#ENDOFDATA     end of spectrum data