File: host_upload/06-09-2024/ps_0852/dump3/ps__0852shot_2114.msa
#FORMAT      : EMSA/MAS spectral data file
#VERSION     : TC202v2.0 PIXL
#TITLE       : N/A
#DATE        :       Date in the format DD-MMM-YYYY, for example 07-JUL-2010
#TIME        :             The time of day at which the spectrum was recorded, in 24-hour format
#OWNER       : PIXL Flight Model       (PIXL will use this to indicate which instrument took the data.)
#NPOINTS     : 4096     Number of data points in the spectrum (This can be zero for configuration only files)
#NCOLUMNS    : 2     Number of data columns in the spectrum (This can be zero for configuration only files)
#XUNITS      : eV
#YUNITS      : COUNTS
#DATATYPE    : YY
#XPERCHAN    : 7.862, 7.881   eV per channel (separate by commas if more than one detector)
#OFFSET      : 18.5, -22.4         eV of first channel  (separate by commas if more than one detector
#SIGNALTYPE  : XRF
#YP_TEMP     : 2.364
#LIVETIME    : 8.54513, 8.56   seconds (separate by commas if more than one detector)
#REALTIME    : 10, 10.0   seconds (separate by commas if more than one detector)
#SPECTRUM    : start of spectrum data
0, 0
0, 0
0, 0
0, 0
0, 0
0, 0
0, 0
0, 0
0, 0
0, 0
0, 0
0, 0
0, 0
0, 0
0, 0
0, 0
0, 0
0, 0
0, 0
0, 0
0, 0
0, 0
0, 0
0, 0
0, 0
0, 0
0, 0
0, 0
0, 0
0, 0
0, 0
0, 2
0, 1
0, 0
0, 3
0, 0
0, 3
4, 2
2, 0
2, 1
1, 3
3, 2
1, 0
2, 2
1, 1
1, 0
1, 4
3, 4
6, 3
12, 8
12, 13
20, 22
33, 40
37, 33
38, 58
47, 48
36, 35
19, 29
13, 9
12, 8
9, 9
6, 5
9, 5
2, 13
6, 7
6, 6
7, 8
12, 12
23, 21
41, 33
91, 77
157, 142
208, 218
266, 296
365, 325
336, 358
275, 289
252, 232
162, 174
124, 113
53, 61
36, 27
26, 17
11, 17
16, 7
6, 10
6, 12
8, 3
1, 7
5, 4
8, 12
15, 16
30, 27
65, 44
83, 100
151, 155
248, 248
312, 328
335, 360
374, 379
348, 370
255, 270
173, 185
131, 147
94, 111
64, 85
45, 65
47, 82
36, 86
39, 66
38, 75
71, 87
80, 82
88, 91
64, 75
72, 78
54, 62
61, 54
43, 54
41, 45
35, 34
24, 25
26, 24
20, 20
19, 26
14, 14
15, 12
18, 15
9, 6
9, 7
6, 5
7, 4
8, 4
2, 2
6, 8
4, 3
5, 4
3, 2
3, 4
3, 5
7, 13
6, 6
6, 7
2, 2
2, 5
3, 3
0, 6
4, 4
9, 8
13, 12
22, 26
38, 50
68, 56
98, 120
146, 163
240, 254
262, 247
307, 327
298, 329
240, 258
219, 194
165, 160
90, 105
46, 48
38, 25
29, 26
17, 17
24, 25
31, 34
30, 50
31, 53
40, 39
39, 47
42, 37
38, 31
29, 27
11, 12
13, 8
13, 12
11, 2
8, 9
3, 1
5, 10
5, 3
3, 10
4, 6
5, 15
8, 18
4, 20
4, 43
10, 29
21, 37
23, 32
26, 35
20, 18
18, 21
18, 20
18, 19
18, 30
16, 15
16, 16
15, 15
6, 16
11, 12
7, 9
7, 5
7, 12
7, 10
10, 15
9, 34
6, 33
5, 27
12, 26
3, 34
12, 24
3, 34
10, 20
5, 13
2, 16
3, 8
8, 15
5, 8
12, 13
9, 5
15, 14
19, 31
18, 26
29, 37
37, 57
39, 32
35, 50
47, 38
37, 37
23, 27
30, 27
20, 31
15, 25
9, 24
5, 12
12, 13
7, 9
7, 12
10, 8
14, 7
11, 12
17, 14
24, 26
31, 34
49, 48
47, 45
54, 58
49, 68
47, 48
47, 34
36, 33
19, 19
20, 25
22, 19
20, 14
18, 14
16, 19
24, 21
34, 46
61, 95
130, 158
215, 287
379, 476
571, 758
846, 1061
1193, 1436
1516, 1622
1798, 1895
1894, 1862
1831, 1781
1647, 1492
1379, 1170
1054, 846
734, 564
444, 354
278, 208
176, 131
83, 63
58, 32
24, 19
18, 16
8, 10
10, 16
14, 16
15, 22
18, 16
17, 32
22, 25
40, 45
65, 61
81, 112
108, 143
151, 171
203, 228
236, 238
282, 285
284, 260
270, 271
243, 234
192, 152
150, 141
107, 86
60, 52
39, 29
30, 19
20, 7
8, 14
13, 5
8, 6
6, 15
5, 14
9, 10
10, 7
19, 12
9, 14
18, 11
22, 12
17, 11
11, 7
13, 11
17, 6
12, 5
6, 1
12, 8
9, 8
4, 3
5, 12
1, 4
3, 10
3, 8
5, 6
6, 14
2, 4
6, 3
7, 8
8, 6
3, 9
8, 11
6, 11
5, 11
5, 5
7, 10
4, 4
8, 9
9, 3
7, 4
13, 3
7, 6
10, 1
5, 7
9, 4
9, 1
8, 6
8, 9
8, 4
14, 3
8, 2
13, 4
11, 5
3, 4
9, 0
11, 0
8, 7
10, 7
9, 3
10, 2
5, 7
7, 2
4, 8
1, 5
3, 2
5, 10
8, 2
4, 4
2, 9
3, 5
5, 11
4, 13
3, 9
0, 19
3, 16
4, 9
2, 14
3, 28
3, 16
4, 22
8, 17
4, 16
4, 13
9, 12
5, 12
5, 13
3, 5
2, 9
4, 4
2, 3
6, 4
4, 4
5, 4
9, 4
3, 2
4, 4
4, 3
3, 5
2, 6
2, 3
2, 4
0, 7
3, 5
4, 7
4, 3
4, 3
3, 2
5, 3
5, 4
7, 5
1, 8
2, 2
5, 4
2, 5
4, 5
5, 5
3, 2
2, 2
3, 8
2, 2
3, 2
2, 9
7, 6
5, 2
3, 2
1, 3
6, 2
3, 10
4, 6
6, 4
3, 4
2, 9
7, 2
2, 1
1, 0
2, 3
1, 5
0, 1
3, 5
8, 4
4, 1
5, 3
3, 6
2, 5
0, 1
2, 7
2, 2
3, 1
7, 3
5, 1
4, 5
3, 0
2, 4
5, 2
4, 3
4, 1
5, 4
2, 3
3, 0
2, 2
3, 2
1, 3
1, 4
3, 2
3, 1
3, 5
3, 4
3, 4
6, 2
5, 2
3, 0
2, 3
4, 3
4, 4
5, 2
1, 3
1, 2
3, 4
1, 1
3, 2
2, 1
2, 4
5, 6
3, 4
0, 7
1, 0
1, 2
2, 4
3, 1
1, 4
2, 1
2, 2
0, 1
3, 1
2, 1
0, 2
3, 2
1, 1
2, 1
3, 1
1, 2
4, 1
2, 1
3, 3
1, 3
4, 1
2, 1
1, 1
3, 1
4, 1
1, 1
3, 1
3, 3
4, 1
2, 0
3, 2
5, 0
1, 2
3, 3
2, 2
1, 1
1, 3
2, 1
3, 3
2, 1
1, 1
5, 4
4, 2
5, 4
2, 1
5, 3
4, 1
0, 0
2, 2
6, 1
6, 2
3, 2
0, 3
1, 0
3, 0
0, 9
4, 1
2, 0
3, 1
1, 3
1, 1
0, 0
1, 2
5, 1
5, 0
1, 2
2, 0
4, 2
3, 1
3, 2
2, 1
4, 1
3, 1
1, 0
0, 0
3, 2
1, 1
1, 1
0, 3
2, 1
2, 2
0, 0
0, 3
1, 1
0, 1
0, 2
1, 2
1, 3
2, 2
1, 2
0, 3
1, 1
1, 0
3, 1
1, 1
0, 2
0, 0
1, 0
0, 3
1, 0
0, 0
1, 1
1, 1
0, 1
3, 1
2, 0
0, 0
0, 1
0, 3
0, 0
2, 1
2, 2
1, 0
1, 0
1, 0
1, 1
0, 1
1, 0
1, 0
1, 0
2, 1
1, 4
0, 0
0, 0
2, 0
0, 0
2, 1
1, 1
2, 1
0, 0
0, 1
1, 1
0, 0
0, 1
0, 0
1, 0
1, 0
2, 1
0, 1
1, 3
0, 0
3, 1
0, 0
0, 1
0, 0
1, 2
3, 0
1, 0
0, 0
1, 2
1, 0
0, 0
1, 1
4, 0
0, 1
0, 0
1, 0
0, 1
0, 0
0, 0
1, 0
1, 0
0, 0
1, 1
0, 0
0, 0
1, 0
1, 2
0, 0
0, 0
0, 1
1, 1
1, 0
2, 1
1, 1
0, 2
1, 0
0, 0
0, 2
0, 0
1, 3
0, 0
1, 1
1, 0
0, 1
0, 0
0, 0
1, 0
0, 1
1, 0
0, 1
2, 1
1, 0
0, 2
0, 0
0, 0
1, 1
0, 0
0, 0
0, 1
0, 1
1, 0
0, 0
0, 0
0, 1
0, 0
0, 1
0, 0
1, 0
2, 0
2, 1
0, 0
0, 1
0, 1
1, 0
2, 0
1, 2
1, 1
0, 0
0, 0
0, 1
0, 0
0, 0
1, 1
0, 0
0, 0
0, 0
0, 0
0, 0
0, 2
1, 0
0, 0
1, 2
1, 1
0, 0
0, 0
1, 0
1, 0
2, 1
0, 0
0, 0
1, 0
0, 1
0, 1
1, 0
1, 1
0, 0
1, 1
1, 0
0, 0
2, 0
0, 0
0, 0
1, 0
0, 1
0, 0
0, 0
1, 0
1, 0
0, 0
0, 0
1, 0
0, 0
0, 0
1, 0
0, 0
0, 0
0, 0
0, 1
1, 0
0, 0
1, 1
0, 0
1, 0
0, 0
0, 1
0, 0
0, 0
0, 1
1, 0
0, 1
0, 0
0, 0
0, 0
0, 0
0, 0
0, 1
1, 0
0, 0
0, 0
1, 0
0, 0
0, 0
1, 0
1, 0
1, 0
0, 0
0, 0
0, 0
0, 0
0, 0
0, 0
0, 1
0, 0
0, 0
1, 1
0, 0
0, 0
0, 0
0, 0
0, 1
0, 1
0, 0
0, 0
0, 0
0, 0
0, 2
0, 0
0, 0
0, 0
0, 1
0, 0
0, 0
0, 0
0, 0
0, 0
1, 0
0, 0
0, 0
0, 1
0, 0
0, 0
0, 1
0, 0
0, 0
0, 0
1, 1
0, 0
0, 0
1, 0
0, 0
0, 0
0, 1
0, 0
0, 0
0, 0
0, 0
1, 0
1, 0
0, 1
0, 0
0, 0
0, 0
0, 0
1, 0
0, 0
0, 1
0, 0
0, 0
0, 0
0, 0
0, 0
1, 1
0, 0
0, 1
0, 0
0, 0
0, 0
0, 0
0, 0
0, 0
0, 1
0, 0
0, 0
0, 0
0, 0
0, 0
0, 0
0, 0
0, 0
0, 1
1, 0
0, 0
0, 0
0, 0
0, 0
0, 0
0, 0
0, 0
0, 0
0, 0
0, 0
0, 0
0, 0
0, 0
0, 0
0, 0
0, 0
0, 0
0, 0
0, 0
0, 0
0, 1
0, 0
0, 0
0, 0
1, 0
0, 0
1, 0
0, 0
0, 0
0, 0
0, 0
0, 0
1, 0
0, 0
0, 0
0, 0
0, 0
0, 0
0, 0
0, 0
0, 0
0, 0
0, 0
0, 0
1, 0
0, 0
0, 0
0, 0
0, 0
0, 0
0, 0
0, 0
0, 0
0, 0
0, 0
0, 0
0, 0
0, 0
1, 0
0, 0
0, 0
0, 1
0, 0
1, 0
0, 0
0, 0
0, 0
0, 0
0, 0
0, 0
0, 0
0, 0
0, 0
0, 0
0, 0
0, 0
0, 0
0, 0
0, 0
0, 0
0, 0
0, 0
0, 0
0, 0
0, 0
0, 0
0, 1
0, 0
0, 1
0, 0
0, 0
0, 0
0, 0
0, 0
0, 0
0, 0
0, 0
0, 0
0, 0
0, 1
0, 0
0, 0
0, 0
0, 0
0, 0
0, 0
0, 0
0, 0
0, 0
0, 0
0, 0
0, 0
0, 0
0, 0
0, 0
0, 0
0, 0
0, 0
0, 0
0, 0
0, 0
0, 0
0, 0
0, 0
0, 0
0, 0
0, 0
0, 0
0, 0
0, 0
0, 0
0, 0
0, 0
0, 0
0, 0
0, 0
0, 0
0, 0
0, 0
0, 0
0, 0
0, 0
0, 0
0, 0
0, 0
0, 0
0, 0
0, 0
0, 0
0, 0
0, 0
1, 0
0, 0
0, 0
0, 0
0, 0
0, 0
0, 0
0, 0
0, 0
0, 0
0, 0
0, 0
0, 0
0, 0
0, 0
0, 0
0, 0
0, 0
0, 0
0, 0
0, 0
0, 0
0, 0
0, 0
0, 0
0, 0
0, 0
0, 0
0, 0
0, 0
0, 0
0, 0
0, 0
0, 0
0, 0
0, 0
0, 0
0, 0
0, 0
0, 0
0, 0
0, 0
0, 0
0, 0
0, 0
0, 1
0, 0
0, 0
0, 0
0, 0
0, 0
0, 0
0, 0
0, 0
0, 0
0, 0
0, 0
0, 0
0, 0
0, 0
0, 0
0, 0
0, 0
0, 0
0, 0
0, 0
0, 0
0, 0
0, 0
0, 0
0, 0
0, 0
0, 0
0, 0
0, 0
0, 0
0, 0
0, 0
0, 0
0, 0
0, 0
0, 0
0, 0
0, 0
0, 0
0, 0
0, 0
0, 0
0, 0
0, 0
0, 0
0, 0
0, 0
0, 0
0, 0
0, 0
0, 0
0, 0
0, 0
0, 0
0, 0
0, 0
0, 0
0, 0
0, 0
0, 0
0, 0
0, 0
0, 0
0, 0
0, 0
0, 0
0, 0
0, 0
0, 0
0, 0
0, 0
0, 0
0, 0
0, 0
0, 0
0, 0
0, 0
0, 0
0, 0
0, 0
0, 0
0, 0
0, 0
0, 0
0, 0
0, 0
0, 0
0, 0
0, 0
0, 0
0, 0
0, 0
0, 0
0, 0
0, 0
0, 0
0, 0
0, 0
0, 0
0, 0
0, 0
0, 0
0, 0
0, 0
0, 0
0, 0
0, 0
0, 0
0, 0
0, 0
0, 0
0, 0
0, 0
0, 0
0, 0
0, 0
0, 0
0, 0
0, 0
0, 0
0, 0
0, 0
0, 0
0, 0
0, 0
0, 0
0, 0
0, 0
0, 0
0, 0
0, 0
0, 0
0, 0
0, 0
0, 0
0, 0
0, 0
0, 0
0, 0
0, 0
0, 0
0, 0
0, 0
0, 0
0, 0
0, 0
0, 0
0, 0
0, 0
0, 0
0, 0
0, 0
0, 0
0, 0
0, 0
0, 0
0, 0
0, 0
0, 0
0, 0
0, 0
0, 0
0, 0
0, 0
0, 0
0, 0
0, 0
0, 0
0, 0
0, 0
0, 0
0, 0
0, 0
0, 0
0, 0
0, 0
0, 0
0, 0
0, 0
0, 0
0, 0
0, 0
0, 0
0, 0
0, 0
0, 0
0, 0
0, 0
0, 0
0, 0
0, 0
0, 0
0, 0
0, 0
0, 0
0, 0
0, 0
0, 0
0, 0
0, 0
0, 0
0, 0
0, 0
0, 0
0, 0
0, 0
0, 0
0, 0
0, 0
0, 0
0, 0
0, 0
0, 0
0, 0
0, 0
0, 0
0, 0
0, 0
0, 0
0, 0
0, 0
0, 0
0, 0
0, 0
0, 0
0, 0
0, 0
0, 0
0, 0
0, 0
0, 0
0, 0
0, 0
0, 0
0, 0
0, 0
0, 0
0, 0
0, 0
0, 0
0, 0
0, 0
0, 0
0, 0
0, 0
0, 0
0, 0
0, 0
0, 0
0, 0
0, 0
0, 0
0, 0
0, 0
0, 0
0, 0
0, 0
0, 0
0, 0
0, 0
0, 0
0, 0
0, 0
0, 0
0, 0
0, 0
0, 0
0, 0
0, 0
0, 0
0, 0
0, 0
0, 0
0, 0
0, 0
0, 0
0, 0
0, 0
0, 0
0, 0
0, 0
0, 0
0, 0
0, 0
0, 0
0, 0
0, 0
0, 0
0, 0
0, 0
0, 0
0, 0
#ENDOFDATA     end of spectrum data