File: host_upload/06-09-2024/ps_0852/dump3/ps__0852shot_2109.msa
#FORMAT      : EMSA/MAS spectral data file
#VERSION     : TC202v2.0 PIXL
#TITLE       : N/A
#DATE        :       Date in the format DD-MMM-YYYY, for example 07-JUL-2010
#TIME        :             The time of day at which the spectrum was recorded, in 24-hour format
#OWNER       : PIXL Flight Model       (PIXL will use this to indicate which instrument took the data.)
#NPOINTS     : 4096     Number of data points in the spectrum (This can be zero for configuration only files)
#NCOLUMNS    : 2     Number of data columns in the spectrum (This can be zero for configuration only files)
#XUNITS      : eV
#YUNITS      : COUNTS
#DATATYPE    : YY
#XPERCHAN    : 7.862, 7.881   eV per channel (separate by commas if more than one detector)
#OFFSET      : 18.5, -22.4         eV of first channel  (separate by commas if more than one detector
#SIGNALTYPE  : XRF
#YP_TEMP     : 2.428
#LIVETIME    : 8.5496, 8.55329   seconds (separate by commas if more than one detector)
#REALTIME    : 10, 10.0   seconds (separate by commas if more than one detector)
#SPECTRUM    : start of spectrum data
0, 0
0, 0
0, 0
0, 0
0, 0
0, 0
0, 0
0, 0
0, 0
0, 0
0, 0
0, 0
0, 0
0, 0
0, 0
0, 0
0, 0
0, 0
0, 0
0, 0
0, 0
0, 0
0, 0
0, 0
0, 0
0, 0
0, 0
0, 0
0, 0
0, 0
0, 0
0, 0
0, 1
0, 0
1, 1
1, 1
0, 1
0, 2
1, 4
3, 1
4, 7
2, 6
3, 1
0, 2
1, 1
1, 0
2, 4
3, 4
7, 3
10, 6
7, 19
18, 28
39, 31
45, 47
42, 39
51, 39
32, 40
22, 31
15, 14
6, 4
5, 12
5, 8
2, 4
5, 7
3, 6
5, 5
8, 6
10, 8
7, 14
30, 41
60, 53
95, 101
153, 164
200, 220
244, 235
225, 241
220, 218
166, 145
101, 128
82, 73
44, 50
24, 22
14, 17
8, 5
9, 8
7, 6
8, 3
5, 8
3, 3
3, 8
4, 5
10, 16
22, 29
36, 52
91, 104
133, 167
197, 222
267, 279
303, 319
346, 296
282, 289
267, 198
165, 181
121, 111
71, 71
51, 42
48, 46
38, 55
40, 60
69, 79
97, 107
93, 123
130, 150
150, 144
136, 140
108, 134
106, 110
89, 111
75, 60
65, 55
40, 51
44, 39
33, 41
28, 25
29, 26
31, 24
21, 28
27, 17
22, 20
15, 9
15, 12
12, 8
12, 3
4, 8
9, 7
9, 7
4, 7
6, 16
9, 9
10, 11
20, 14
21, 22
15, 19
11, 14
13, 14
5, 9
7, 13
7, 5
8, 4
3, 2
8, 12
14, 26
23, 27
53, 39
54, 74
93, 89
82, 98
91, 130
85, 101
80, 78
81, 60
48, 42
23, 20
20, 21
15, 12
10, 9
7, 12
7, 9
9, 11
14, 18
11, 21
13, 18
9, 12
18, 19
16, 9
14, 15
12, 6
15, 4
8, 0
8, 2
7, 6
8, 4
1, 4
8, 6
4, 7
2, 2
7, 2
9, 13
2, 5
10, 10
5, 13
12, 9
8, 14
14, 12
13, 15
10, 17
18, 19
19, 16
22, 20
15, 23
16, 12
9, 20
8, 15
4, 11
9, 11
5, 14
6, 15
11, 12
7, 23
9, 25
9, 33
5, 26
5, 19
8, 23
7, 17
7, 12
11, 11
9, 4
6, 7
9, 3
6, 6
5, 6
9, 12
9, 9
11, 10
17, 11
19, 18
10, 19
22, 28
33, 22
34, 29
41, 31
43, 31
61, 48
70, 35
49, 38
62, 29
48, 29
35, 26
32, 5
21, 10
17, 9
13, 13
15, 14
16, 18
24, 27
33, 34
40, 48
55, 51
62, 65
71, 68
71, 86
61, 68
54, 51
55, 38
40, 36
28, 23
21, 17
16, 13
15, 21
17, 25
34, 48
42, 61
80, 112
129, 197
287, 348
464, 671
740, 977
1102, 1431
1568, 1871
1925, 2195
2265, 2452
2370, 2601
2293, 2363
2070, 1936
1732, 1598
1332, 1109
912, 811
595, 472
345, 284
218, 163
108, 89
50, 52
34, 21
15, 25
13, 16
15, 9
12, 19
19, 11
21, 18
26, 35
34, 38
39, 54
64, 84
118, 108
166, 176
203, 246
258, 299
296, 343
357, 389
339, 358
331, 300
315, 276
249, 198
180, 153
139, 116
75, 71
54, 32
25, 25
16, 11
16, 9
4, 7
7, 4
6, 9
12, 10
21, 10
21, 15
10, 15
28, 13
17, 7
35, 6
38, 11
42, 6
55, 2
42, 7
60, 2
43, 6
38, 6
30, 4
14, 4
13, 3
6, 3
9, 1
9, 5
7, 4
7, 2
4, 3
7, 4
11, 5
12, 5
6, 7
10, 2
7, 6
7, 8
5, 3
2, 3
5, 7
2, 2
2, 5
6, 6
8, 5
10, 3
7, 3
7, 6
4, 2
2, 4
3, 3
1, 3
2, 2
3, 1
5, 2
1, 4
4, 5
3, 2
4, 3
2, 6
3, 2
11, 4
9, 3
5, 3
3, 4
2, 7
4, 5
2, 5
5, 6
8, 5
8, 5
11, 1
9, 6
14, 2
5, 2
9, 1
4, 3
4, 3
6, 7
6, 5
4, 4
6, 3
6, 8
7, 5
3, 8
4, 4
2, 9
9, 5
1, 8
6, 4
0, 6
4, 8
3, 6
2, 9
2, 8
6, 4
3, 8
4, 8
6, 6
5, 2
6, 0
5, 2
5, 1
5, 3
2, 5
8, 4
4, 5
5, 8
4, 7
3, 9
5, 6
6, 13
5, 12
6, 19
2, 20
4, 20
4, 11
3, 21
2, 12
8, 15
5, 3
7, 8
10, 8
9, 1
6, 8
6, 3
7, 1
2, 3
4, 4
5, 3
4, 1
2, 3
2, 8
2, 4
2, 1
3, 4
1, 0
4, 4
0, 4
2, 5
0, 6
5, 3
1, 4
1, 4
3, 5
1, 2
2, 4
3, 3
3, 3
2, 4
2, 9
5, 3
3, 4
1, 4
5, 2
5, 2
2, 4
6, 0
4, 6
9, 5
1, 3
9, 1
10, 3
8, 2
6, 2
9, 2
6, 0
3, 0
4, 4
8, 3
3, 2
5, 1
6, 0
5, 2
2, 0
3, 3
0, 5
2, 1
0, 0
2, 2
2, 1
2, 0
3, 1
3, 5
3, 2
2, 1
6, 2
0, 1
2, 1
2, 2
1, 1
3, 1
0, 2
5, 0
1, 0
1, 1
5, 3
0, 2
2, 1
1, 3
1, 2
1, 2
0, 1
1, 1
3, 0
2, 2
5, 2
3, 2
1, 1
3, 3
2, 1
2, 1
1, 1
2, 1
0, 1
3, 2
2, 1
0, 2
1, 0
3, 3
0, 1
1, 1
2, 2
5, 1
1, 1
2, 1
1, 0
2, 1
3, 1
1, 3
1, 2
0, 1
3, 3
4, 3
1, 6
5, 9
4, 3
1, 5
2, 2
4, 5
1, 4
0, 4
3, 3
4, 0
1, 2
2, 1
2, 0
0, 0
3, 1
0, 3
1, 0
2, 1
1, 1
1, 0
2, 0
1, 1
0, 2
1, 0
1, 2
2, 3
2, 1
1, 3
3, 2
0, 1
5, 0
2, 2
1, 4
5, 0
1, 2
5, 0
1, 5
1, 0
2, 1
1, 4
0, 0
2, 3
0, 0
1, 3
2, 1
1, 3
2, 5
2, 1
1, 0
1, 1
0, 1
1, 1
0, 2
0, 0
0, 0
1, 2
1, 2
1, 3
0, 2
0, 1
3, 0
1, 1
1, 0
0, 1
3, 1
0, 4
1, 1
0, 1
1, 2
0, 0
0, 1
0, 2
0, 0
0, 1
1, 0
2, 0
1, 1
2, 1
3, 1
0, 0
1, 1
1, 1
0, 1
0, 1
0, 0
0, 0
1, 1
3, 1
0, 1
0, 0
0, 0
1, 2
0, 0
2, 2
0, 1
1, 0
1, 0
1, 0
0, 0
1, 0
1, 2
0, 1
0, 1
1, 1
2, 2
0, 2
1, 0
4, 0
2, 3
0, 1
1, 0
3, 0
0, 0
3, 0
0, 1
2, 0
2, 1
1, 1
0, 0
0, 0
0, 1
0, 0
2, 1
2, 0
1, 0
0, 0
1, 0
1, 1
1, 1
1, 4
0, 0
0, 1
0, 1
1, 0
1, 1
0, 0
1, 0
0, 0
0, 0
0, 0
1, 1
0, 2
0, 0
1, 0
0, 1
0, 0
2, 1
1, 0
1, 0
0, 0
0, 0
0, 1
0, 0
0, 1
0, 0
0, 0
0, 1
0, 0
0, 1
1, 0
1, 1
1, 1
0, 0
1, 0
0, 0
0, 0
0, 1
0, 0
0, 1
0, 0
0, 1
2, 2
0, 1
0, 1
0, 0
0, 0
0, 0
0, 0
0, 0
2, 0
0, 0
0, 0
0, 0
0, 0
0, 0
0, 0
0, 0
0, 0
1, 1
1, 2
2, 0
0, 0
0, 1
0, 0
1, 0
0, 0
0, 0
0, 0
0, 0
2, 0
0, 0
0, 1
0, 1
0, 1
0, 0
0, 1
0, 0
0, 1
2, 0
0, 0
0, 0
0, 2
1, 2
0, 0
0, 0
0, 0
0, 1
0, 0
0, 0
0, 0
0, 0
0, 2
0, 1
1, 0
0, 0
1, 0
0, 1
0, 0
0, 0
0, 1
0, 0
0, 0
0, 0
0, 1
0, 0
0, 0
0, 0
0, 0
1, 0
0, 0
0, 0
0, 0
0, 0
0, 0
1, 1
0, 0
0, 0
1, 0
0, 0
0, 1
0, 0
0, 0
0, 0
0, 0
0, 0
0, 0
0, 0
0, 0
0, 1
0, 2
0, 2
0, 1
0, 0
0, 0
0, 0
0, 0
1, 0
0, 0
0, 0
0, 0
0, 0
0, 0
0, 0
0, 0
0, 2
0, 1
0, 0
0, 1
0, 0
0, 0
0, 0
0, 1
0, 1
0, 1
0, 0
0, 0
0, 0
1, 0
0, 0
0, 0
0, 0
0, 0
0, 0
0, 0
0, 0
0, 1
0, 0
0, 0
0, 0
0, 0
0, 0
0, 0
0, 0
0, 0
1, 0
0, 1
0, 0
0, 0
0, 0
0, 0
0, 0
0, 0
0, 0
0, 0
0, 0
0, 3
0, 0
0, 1
0, 0
0, 0
0, 0
0, 0
0, 0
0, 0
0, 0
0, 0
1, 0
0, 0
0, 0
0, 0
0, 0
0, 0
0, 0
0, 0
0, 0
0, 1
0, 0
0, 0
0, 0
0, 1
0, 0
0, 0
1, 0
0, 0
0, 0
0, 0
0, 0
0, 0
0, 0
0, 0
1, 0
0, 0
0, 0
0, 0
0, 0
0, 0
1, 0
0, 0
0, 0
0, 0
0, 0
0, 0
0, 0
0, 0
0, 0
0, 0
0, 0
0, 0
0, 0
0, 0
0, 0
0, 0
0, 0
0, 0
0, 0
0, 0
1, 0
0, 0
0, 0
0, 0
0, 0
0, 0
0, 0
0, 0
0, 0
0, 0
0, 0
0, 0
0, 0
0, 0
0, 0
0, 0
0, 0
0, 0
0, 0
0, 0
0, 0
0, 0
0, 0
0, 1
0, 0
0, 0
0, 0
0, 0
0, 0
0, 0
0, 0
0, 1
0, 0
0, 0
0, 0
0, 0
0, 0
0, 0
0, 0
0, 0
0, 0
0, 0
0, 0
1, 1
0, 1
0, 1
0, 0
0, 0
0, 0
0, 0
0, 0
0, 0
0, 0
0, 1
0, 0
0, 0
0, 0
0, 0
0, 0
0, 0
0, 0
0, 1
0, 0
0, 0
0, 0
0, 0
0, 0
0, 0
0, 0
0, 0
0, 0
0, 0
0, 0
0, 0
1, 0
0, 0
0, 0
0, 1
0, 0
0, 0
0, 0
0, 0
0, 0
0, 0
0, 0
0, 0
0, 0
0, 0
0, 0
0, 0
0, 0
0, 0
0, 0
0, 0
0, 0
0, 0
0, 0
0, 0
0, 0
0, 0
0, 0
0, 0
0, 0
0, 0
0, 0
0, 0
0, 0
0, 0
0, 0
0, 0
0, 0
0, 0
0, 0
0, 0
0, 0
0, 0
0, 0
0, 0
0, 0
0, 0
0, 0
0, 0
0, 0
0, 0
0, 0
0, 0
0, 0
0, 0
0, 0
0, 0
0, 0
0, 0
0, 0
0, 0
0, 0
0, 0
0, 0
0, 0
0, 0
0, 0
0, 0
0, 0
0, 0
0, 0
0, 0
0, 0
0, 0
0, 0
0, 0
0, 0
0, 0
0, 0
0, 0
0, 0
0, 0
0, 0
0, 0
0, 0
0, 0
0, 0
0, 0
0, 0
0, 0
0, 0
0, 0
0, 0
0, 0
0, 0
0, 0
0, 0
0, 0
0, 0
0, 0
0, 0
0, 0
0, 0
0, 0
0, 0
0, 0
0, 0
0, 0
0, 0
0, 0
0, 0
0, 0
0, 0
0, 0
0, 0
0, 0
0, 0
0, 0
0, 0
0, 0
0, 0
0, 0
0, 0
0, 0
0, 0
0, 0
0, 0
0, 0
0, 0
0, 0
0, 0
0, 0
0, 0
0, 0
0, 0
0, 0
0, 0
0, 0
0, 0
0, 0
0, 0
0, 0
0, 0
0, 0
0, 0
0, 0
0, 0
0, 0
0, 0
0, 0
0, 0
0, 0
0, 0
0, 0
0, 0
0, 0
0, 0
0, 0
0, 0
0, 0
0, 0
0, 0
0, 0
0, 0
0, 0
0, 0
0, 0
0, 0
0, 0
0, 0
0, 0
0, 0
0, 0
0, 0
0, 0
0, 0
0, 0
0, 0
0, 0
0, 0
0, 0
0, 0
0, 0
0, 0
0, 0
0, 0
0, 0
0, 0
0, 0
0, 0
0, 0
0, 0
0, 0
0, 0
0, 0
0, 0
0, 0
0, 0
0, 0
0, 0
0, 0
0, 0
0, 0
0, 0
0, 0
0, 0
0, 0
0, 0
0, 0
0, 0
0, 0
0, 0
0, 0
0, 0
0, 0
0, 0
0, 0
0, 0
0, 0
0, 0
0, 0
0, 0
0, 0
0, 0
0, 0
0, 0
0, 0
0, 0
0, 0
0, 0
0, 0
0, 0
0, 0
0, 0
0, 0
0, 0
0, 0
0, 0
0, 0
0, 0
0, 0
0, 0
0, 0
0, 0
0, 0
0, 0
0, 0
0, 0
0, 0
0, 0
0, 0
0, 0
0, 0
0, 0
0, 0
0, 0
0, 0
0, 0
0, 0
0, 0
0, 0
0, 0
0, 0
0, 0
0, 0
0, 0
0, 0
0, 0
0, 0
0, 0
0, 0
0, 0
0, 0
0, 0
0, 0
0, 0
0, 0
0, 0
0, 0
0, 0
0, 0
0, 0
0, 0
0, 0
0, 0
0, 0
0, 0
0, 0
0, 0
0, 0
0, 0
0, 0
0, 0
0, 0
0, 0
0, 0
0, 0
0, 0
0, 0
0, 0
0, 0
0, 0
0, 0
0, 0
0, 0
0, 0
0, 0
0, 0
0, 0
0, 0
0, 0
0, 0
0, 0
0, 0
0, 0
0, 0
0, 0
0, 0
0, 0
0, 0
0, 0
0, 0
0, 0
0, 0
0, 0
0, 0
0, 0
0, 0
0, 0
0, 0
0, 0
0, 0
0, 0
0, 0
0, 0
0, 0
0, 0
0, 0
0, 0
0, 0
0, 0
0, 0
0, 0
0, 0
0, 0
0, 0
0, 0
0, 0
0, 0
0, 0
0, 0
0, 0
0, 0
0, 0
0, 0
0, 0
0, 0
0, 0
0, 0
0, 0
0, 0
0, 0
0, 0
0, 0
0, 0
0, 0
0, 0
0, 0
0, 0
0, 0
0, 0
0, 0
0, 0
0, 0
0, 0
0, 0
0, 0
#ENDOFDATA     end of spectrum data