File: host_upload/06-09-2024/ps_0852/dump3/ps__0852shot_2089.msa
#FORMAT      : EMSA/MAS spectral data file
#VERSION     : TC202v2.0 PIXL
#TITLE       : N/A
#DATE        :       Date in the format DD-MMM-YYYY, for example 07-JUL-2010
#TIME        :             The time of day at which the spectrum was recorded, in 24-hour format
#OWNER       : PIXL Flight Model       (PIXL will use this to indicate which instrument took the data.)
#NPOINTS     : 4096     Number of data points in the spectrum (This can be zero for configuration only files)
#NCOLUMNS    : 2     Number of data columns in the spectrum (This can be zero for configuration only files)
#XUNITS      : eV
#YUNITS      : COUNTS
#DATATYPE    : YY
#XPERCHAN    : 7.862, 7.881   eV per channel (separate by commas if more than one detector)
#OFFSET      : 18.5, -22.4         eV of first channel  (separate by commas if more than one detector
#SIGNALTYPE  : XRF
#YP_TEMP     : 2.62
#LIVETIME    : 8.59829, 8.56476   seconds (separate by commas if more than one detector)
#REALTIME    : 10, 10.0   seconds (separate by commas if more than one detector)
#SPECTRUM    : start of spectrum data
0, 0
0, 0
0, 0
0, 0
0, 0
0, 0
0, 0
0, 0
0, 0
0, 0
0, 0
0, 0
0, 0
0, 0
0, 0
0, 0
0, 0
0, 0
0, 0
0, 0
0, 0
0, 0
0, 0
0, 0
0, 0
0, 0
0, 0
0, 0
0, 0
0, 0
0, 0
0, 0
0, 0
0, 0
0, 0
0, 0
1, 2
0, 1
2, 2
0, 0
1, 2
2, 1
0, 1
1, 1
6, 1
2, 1
3, 0
4, 2
4, 6
7, 12
24, 22
41, 37
48, 66
70, 70
66, 77
94, 67
70, 49
42, 38
16, 28
12, 11
13, 9
5, 7
4, 3
4, 2
2, 5
1, 6
9, 7
8, 9
36, 22
39, 46
85, 104
165, 176
260, 283
347, 341
421, 416
396, 425
407, 409
298, 275
207, 200
139, 125
81, 74
45, 50
21, 23
15, 13
8, 6
3, 5
7, 2
3, 0
1, 1
2, 1
2, 0
1, 3
0, 4
0, 2
6, 7
8, 12
10, 14
23, 23
19, 24
12, 22
18, 17
15, 12
10, 9
5, 9
1, 6
6, 8
6, 4
10, 8
17, 20
20, 20
24, 27
47, 50
49, 59
67, 68
95, 57
91, 69
98, 86
87, 68
93, 51
86, 33
66, 29
49, 25
39, 16
31, 20
22, 15
19, 13
16, 9
5, 10
6, 3
11, 7
5, 4
4, 3
7, 6
7, 2
2, 6
0, 2
1, 4
0, 3
4, 7
2, 3
5, 5
1, 3
2, 5
3, 4
1, 1
1, 5
3, 4
1, 3
3, 8
0, 2
13, 5
9, 14
16, 29
38, 46
51, 58
78, 79
85, 96
95, 98
87, 110
89, 90
59, 60
43, 49
37, 35
11, 23
15, 9
6, 12
12, 11
8, 9
14, 17
17, 14
16, 23
20, 21
22, 19
19, 10
19, 14
9, 14
10, 9
9, 2
3, 6
5, 2
2, 1
2, 3
2, 3
1, 4
1, 5
3, 5
2, 10
6, 8
12, 7
8, 8
11, 7
9, 14
11, 9
9, 15
11, 11
11, 12
15, 17
9, 10
16, 14
10, 14
24, 14
13, 13
8, 16
6, 19
9, 22
9, 23
22, 23
16, 27
14, 17
16, 20
7, 13
12, 13
13, 8
18, 5
16, 9
16, 9
14, 10
10, 7
13, 3
4, 5
6, 13
6, 11
11, 5
10, 5
19, 10
23, 8
31, 17
38, 19
41, 21
42, 19
62, 24
72, 24
64, 23
76, 15
79, 17
74, 15
77, 14
53, 19
53, 19
37, 17
26, 36
25, 40
18, 39
18, 45
16, 49
12, 52
24, 60
40, 57
53, 63
54, 85
64, 79
58, 94
56, 83
60, 55
47, 34
48, 29
29, 35
26, 26
22, 12
21, 29
27, 24
35, 31
47, 61
63, 105
159, 207
244, 379
422, 595
701, 920
937, 1269
1380, 1649
1699, 1994
1955, 2267
2065, 2275
2073, 2204
1830, 1834
1514, 1383
1130, 1093
812, 727
525, 405
328, 209
191, 160
110, 70
62, 39
41, 28
38, 19
31, 19
48, 16
29, 13
44, 19
56, 28
46, 31
65, 40
65, 57
63, 72
88, 135
123, 172
165, 210
218, 264
256, 315
323, 335
328, 349
290, 291
278, 273
239, 197
165, 146
124, 115
80, 72
52, 38
29, 32
15, 12
11, 7
12, 19
9, 11
7, 8
7, 5
17, 8
11, 17
13, 11
22, 14
18, 11
27, 10
23, 10
19, 13
19, 11
23, 9
19, 12
11, 16
10, 13
6, 5
8, 11
5, 10
1, 7
1, 9
3, 7
6, 2
1, 9
5, 7
7, 3
4, 7
8, 4
12, 13
9, 9
12, 10
14, 9
11, 9
11, 10
11, 7
6, 9
4, 10
11, 5
6, 3
8, 8
2, 5
8, 2
10, 7
2, 2
8, 5
5, 2
5, 5
4, 9
7, 3
3, 5
2, 8
3, 8
6, 10
2, 6
4, 8
4, 7
6, 3
3, 4
5, 5
7, 3
5, 4
4, 3
1, 3
5, 7
5, 2
4, 2
3, 5
4, 5
5, 8
1, 5
4, 7
4, 6
6, 6
3, 2
4, 2
11, 3
6, 7
3, 3
6, 2
5, 5
4, 5
4, 1
5, 6
5, 1
5, 3
5, 4
2, 2
1, 4
0, 7
4, 10
1, 3
2, 8
4, 3
2, 7
2, 6
1, 5
2, 9
5, 3
1, 4
5, 1
3, 4
3, 0
1, 3
2, 1
1, 6
2, 1
3, 3
3, 7
5, 4
3, 5
2, 3
5, 6
4, 4
4, 4
7, 4
4, 3
5, 5
2, 6
1, 1
5, 4
3, 6
3, 3
1, 2
5, 3
2, 4
0, 7
6, 6
3, 5
6, 1
3, 4
5, 2
2, 2
5, 6
0, 0
3, 3
2, 0
2, 3
3, 2
1, 3
2, 2
1, 6
3, 1
2, 2
3, 2
6, 2
4, 3
0, 1
7, 4
1, 1
3, 4
0, 9
2, 6
1, 1
1, 1
2, 4
0, 2
0, 2
2, 3
3, 3
2, 3
3, 3
3, 1
5, 2
1, 0
6, 1
3, 1
0, 1
2, 3
0, 2
0, 1
1, 4
2, 1
3, 3
2, 2
3, 2
5, 3
1, 2
0, 2
4, 1
4, 2
1, 2
2, 2
2, 2
3, 1
3, 0
1, 3
3, 3
0, 1
4, 0
5, 2
0, 2
2, 2
4, 1
2, 2
3, 0
5, 0
2, 2
0, 1
2, 1
3, 2
0, 2
2, 1
1, 1
4, 1
2, 3
2, 3
7, 3
1, 1
1, 3
5, 1
2, 1
3, 4
3, 0
1, 5
3, 2
1, 0
1, 6
2, 4
4, 1
2, 6
0, 3
5, 2
2, 1
1, 0
3, 1
2, 1
5, 4
3, 4
1, 4
3, 7
3, 2
4, 1
2, 4
4, 3
5, 2
2, 2
1, 1
1, 2
4, 3
3, 2
2, 2
1, 0
2, 2
1, 2
1, 2
0, 0
3, 1
1, 0
0, 3
0, 0
2, 1
2, 4
1, 3
1, 1
2, 0
4, 1
2, 4
1, 1
2, 1
1, 1
2, 0
2, 1
2, 2
2, 3
1, 3
1, 1
2, 2
0, 1
0, 2
1, 2
2, 0
0, 2
2, 4
1, 0
3, 2
0, 0
1, 0
2, 3
0, 1
1, 1
1, 0
2, 1
1, 3
3, 0
1, 0
0, 0
2, 2
1, 2
0, 0
1, 1
0, 2
1, 1
1, 3
0, 1
3, 1
0, 1
0, 1
1, 2
1, 0
0, 1
0, 0
0, 1
0, 0
0, 2
0, 1
1, 1
0, 1
4, 0
1, 1
0, 2
1, 0
1, 2
1, 1
2, 0
1, 2
1, 1
2, 0
2, 1
1, 0
0, 1
1, 2
0, 2
1, 0
2, 3
1, 0
0, 0
2, 1
0, 0
1, 0
0, 1
1, 2
1, 0
1, 0
2, 0
2, 0
0, 0
2, 1
2, 2
1, 1
2, 1
0, 1
1, 1
0, 1
0, 0
1, 0
0, 0
0, 0
2, 0
1, 0
0, 1
0, 1
0, 0
0, 0
0, 0
1, 3
0, 0
0, 0
0, 0
2, 0
0, 0
0, 0
1, 0
1, 0
0, 1
0, 0
2, 0
0, 0
1, 0
0, 0
0, 0
1, 0
0, 0
0, 0
0, 0
3, 0
0, 1
0, 0
0, 0
0, 0
0, 1
1, 0
1, 1
0, 0
3, 0
1, 0
0, 0
0, 1
0, 0
0, 1
1, 0
1, 0
1, 1
0, 0
0, 0
2, 0
0, 0
0, 0
0, 1
0, 0
1, 0
0, 1
0, 0
0, 0
1, 0
0, 1
0, 0
0, 0
0, 0
0, 0
0, 1
0, 2
1, 2
0, 1
0, 0
0, 0
1, 0
0, 0
0, 0
0, 2
1, 0
0, 0
0, 0
1, 0
0, 1
0, 2
0, 1
0, 0
0, 1
0, 0
0, 0
0, 0
0, 0
1, 2
0, 0
0, 0
0, 1
0, 1
0, 0
1, 0
1, 1
0, 0
0, 0
2, 0
0, 0
0, 0
1, 0
1, 0
1, 0
0, 0
0, 0
0, 0
0, 1
1, 0
0, 0
2, 0
1, 0
0, 0
1, 0
2, 0
0, 0
0, 0
0, 0
0, 0
0, 0
1, 0
0, 0
0, 0
0, 0
0, 1
0, 1
1, 1
0, 0
0, 1
0, 0
0, 0
1, 0
0, 0
0, 0
0, 1
0, 1
0, 1
0, 0
0, 0
0, 1
0, 0
1, 0
0, 0
1, 0
0, 0
0, 0
0, 0
0, 0
0, 0
1, 0
0, 0
0, 0
0, 0
0, 1
0, 0
2, 0
0, 0
0, 0
0, 1
0, 0
0, 0
0, 0
1, 0
0, 0
0, 0
0, 0
1, 0
0, 0
0, 0
0, 0
0, 0
0, 0
1, 0
0, 0
1, 1
0, 1
1, 0
0, 0
0, 1
0, 0
0, 0
0, 0
0, 0
0, 0
0, 0
0, 0
0, 0
0, 0
0, 0
1, 0
0, 0
0, 1
0, 0
0, 0
0, 0
0, 0
0, 0
0, 0
0, 0
0, 0
0, 0
1, 0
0, 1
0, 0
0, 0
0, 2
0, 1
0, 0
1, 0
0, 0
0, 0
1, 0
0, 0
0, 0
0, 0
0, 0
0, 0
0, 0
0, 0
0, 0
0, 0
0, 0
0, 0
0, 0
1, 0
1, 0
0, 0
0, 0
0, 0
0, 0
0, 0
0, 1
0, 0
0, 0
0, 0
0, 0
0, 1
0, 0
0, 0
0, 0
0, 0
0, 0
0, 0
0, 0
0, 0
0, 0
0, 0
0, 0
0, 0
0, 0
0, 0
0, 0
0, 0
0, 0
0, 0
0, 0
0, 0
0, 0
0, 0
0, 0
0, 0
0, 0
0, 0
0, 0
0, 0
0, 0
0, 0
0, 0
0, 0
0, 0
0, 0
0, 0
0, 1
0, 1
0, 0
0, 0
0, 0
0, 0
0, 0
0, 0
0, 0
0, 0
0, 0
0, 0
1, 0
0, 0
0, 0
0, 0
0, 0
0, 0
0, 0
0, 0
0, 0
0, 0
0, 0
0, 0
0, 0
0, 0
0, 0
0, 0
0, 0
0, 0
0, 0
0, 0
1, 0
0, 0
0, 0
0, 0
0, 0
0, 0
0, 0
0, 0
0, 0
0, 0
0, 0
0, 0
0, 0
0, 2
0, 0
1, 0
0, 0
0, 0
0, 0
0, 0
0, 0
0, 0
0, 0
0, 0
0, 0
0, 0
0, 0
0, 0
0, 0
0, 0
0, 0
0, 0
0, 0
0, 0
0, 0
0, 0
0, 0
0, 0
0, 0
0, 0
0, 0
0, 0
0, 0
0, 0
0, 0
1, 0
0, 0
0, 0
0, 0
0, 0
0, 0
0, 0
0, 0
1, 0
0, 0
0, 0
0, 0
0, 0
0, 0
0, 0
0, 0
0, 0
0, 0
0, 0
0, 0
0, 0
0, 0
0, 0
0, 0
0, 0
0, 0
0, 0
0, 0
0, 0
0, 0
0, 0
0, 0
0, 0
0, 0
0, 0
0, 0
0, 0
0, 0
0, 0
0, 0
0, 0
0, 0
0, 0
0, 0
0, 0
0, 0
0, 0
0, 0
0, 0
0, 0
0, 0
0, 0
0, 0
0, 0
0, 0
0, 0
0, 0
0, 0
0, 0
0, 0
0, 0
0, 0
0, 0
0, 0
0, 0
0, 0
0, 0
0, 0
0, 0
0, 0
0, 0
0, 0
0, 0
0, 0
0, 0
0, 0
0, 0
0, 0
0, 0
0, 0
0, 0
0, 0
0, 0
0, 0
0, 0
0, 0
0, 0
0, 0
0, 0
0, 0
0, 0
0, 0
0, 0
0, 0
0, 0
0, 0
0, 0
0, 0
0, 0
0, 0
0, 0
0, 0
0, 0
0, 0
0, 0
0, 0
0, 0
0, 0
0, 0
0, 0
0, 0
0, 0
0, 0
0, 0
0, 0
0, 0
0, 0
0, 0
0, 0
0, 0
0, 0
0, 0
0, 0
0, 0
0, 0
0, 0
0, 0
0, 0
0, 0
0, 0
0, 0
0, 0
0, 0
0, 0
0, 0
0, 0
0, 0
0, 0
0, 0
0, 0
0, 0
0, 0
0, 0
0, 0
0, 0
0, 0
0, 0
0, 0
0, 0
0, 0
0, 0
0, 0
0, 0
0, 0
0, 0
0, 0
0, 0
0, 0
0, 0
0, 0
0, 0
0, 0
0, 0
0, 0
0, 0
0, 0
0, 0
0, 0
0, 0
0, 0
0, 0
0, 0
0, 0
0, 0
0, 0
0, 0
0, 0
0, 0
0, 0
0, 0
0, 0
0, 0
0, 0
0, 0
0, 0
0, 0
0, 0
0, 0
0, 0
0, 0
0, 0
0, 0
0, 0
0, 0
0, 0
0, 0
0, 0
0, 0
0, 0
0, 0
0, 0
0, 0
0, 0
0, 0
0, 0
0, 0
0, 0
0, 0
0, 0
0, 0
0, 0
0, 0
0, 0
0, 0
0, 0
0, 0
0, 0
0, 0
0, 0
0, 0
0, 0
0, 0
0, 0
0, 0
0, 0
0, 0
0, 0
0, 0
0, 0
0, 0
0, 0
0, 0
0, 0
0, 0
0, 0
0, 0
0, 0
0, 0
0, 0
0, 0
0, 0
0, 0
0, 0
0, 0
0, 0
0, 0
0, 0
0, 0
0, 0
0, 0
0, 0
0, 0
0, 0
0, 0
0, 0
0, 0
0, 0
0, 0
0, 0
0, 0
0, 0
0, 0
0, 0
0, 0
0, 0
0, 0
0, 0
0, 0
0, 0
0, 0
0, 0
0, 0
0, 0
0, 0
0, 0
0, 0
0, 0
0, 0
0, 0
0, 0
0, 0
0, 0
0, 0
0, 0
0, 0
0, 0
0, 0
0, 0
0, 0
0, 0
0, 0
0, 0
0, 0
0, 0
0, 0
0, 0
0, 0
0, 0
0, 0
0, 0
0, 0
0, 0
0, 0
0, 0
0, 0
0, 0
0, 0
0, 0
0, 0
0, 0
0, 0
0, 0
0, 0
0, 0
0, 0
0, 0
0, 0
0, 0
0, 0
0, 0
0, 0
0, 0
0, 0
0, 0
0, 0
0, 0
0, 0
0, 0
0, 0
0, 0
0, 0
0, 0
0, 0
0, 0
0, 0
0, 0
0, 0
0, 0
0, 0
0, 0
0, 0
0, 0
0, 0
0, 0
0, 0
0, 0
0, 0
0, 0
0, 0
0, 0
0, 0
0, 0
0, 0
0, 0
0, 0
0, 0
0, 0
0, 0
0, 0
0, 0
0, 0
#ENDOFDATA     end of spectrum data