File: host_upload/06-09-2024/ps_0852/dump3/ps__0852shot_2298.msa
#FORMAT      : EMSA/MAS spectral data file
#VERSION     : TC202v2.0 PIXL
#TITLE       : N/A
#DATE        :       Date in the format DD-MMM-YYYY, for example 07-JUL-2010
#TIME        :             The time of day at which the spectrum was recorded, in 24-hour format
#OWNER       : PIXL Flight Model       (PIXL will use this to indicate which instrument took the data.)
#NPOINTS     : 4096     Number of data points in the spectrum (This can be zero for configuration only files)
#NCOLUMNS    : 2     Number of data columns in the spectrum (This can be zero for configuration only files)
#XUNITS      : eV
#YUNITS      : COUNTS
#DATATYPE    : YY
#XPERCHAN    : 7.862, 7.881   eV per channel (separate by commas if more than one detector)
#OFFSET      : 18.5, -22.4         eV of first channel  (separate by commas if more than one detector
#SIGNALTYPE  : XRF
#YP_TEMP     : 2.364
#LIVETIME    : 8.5284, 8.54585   seconds (separate by commas if more than one detector)
#REALTIME    : 10, 10.0   seconds (separate by commas if more than one detector)
#SPECTRUM    : start of spectrum data
0, 0
0, 0
0, 0
0, 0
0, 0
0, 0
0, 0
0, 0
0, 0
0, 0
0, 0
0, 0
0, 0
0, 0
0, 0
0, 0
0, 0
0, 0
0, 0
0, 0
0, 0
0, 0
0, 0
0, 0
0, 0
0, 0
0, 0
0, 0
0, 0
0, 0
0, 0
0, 0
0, 0
0, 0
0, 0
0, 0
1, 0
1, 0
1, 0
1, 0
1, 0
2, 0
2, 3
0, 0
0, 0
1, 1
5, 4
4, 3
5, 5
7, 9
19, 18
45, 29
65, 45
69, 73
87, 65
86, 59
65, 55
53, 34
22, 26
22, 11
10, 3
6, 7
5, 7
5, 2
5, 3
6, 4
5, 5
11, 9
15, 25
42, 50
102, 81
179, 154
275, 245
388, 315
426, 429
463, 438
412, 370
316, 280
235, 195
123, 103
75, 71
39, 42
9, 18
8, 8
4, 6
5, 4
0, 2
3, 2
2, 2
1, 1
2, 2
1, 2
0, 2
4, 3
5, 5
8, 14
11, 19
10, 13
18, 15
26, 14
15, 14
13, 14
12, 10
8, 14
9, 4
8, 7
5, 10
8, 9
12, 9
11, 17
22, 20
35, 31
44, 42
65, 48
56, 43
45, 45
55, 52
55, 46
54, 28
53, 29
50, 38
44, 32
32, 22
25, 22
22, 21
20, 14
14, 14
18, 14
11, 6
12, 5
2, 3
8, 2
1, 3
3, 3
3, 1
3, 1
3, 2
4, 1
1, 5
0, 3
1, 4
2, 2
1, 5
3, 4
3, 4
4, 3
0, 2
4, 3
3, 2
2, 4
5, 2
5, 6
9, 9
21, 13
15, 21
34, 15
32, 36
37, 15
47, 24
39, 18
41, 14
33, 9
20, 8
18, 4
10, 5
14, 5
12, 6
11, 1
3, 8
3, 5
7, 8
7, 1
16, 6
9, 13
9, 9
11, 10
22, 4
23, 10
14, 8
19, 11
18, 6
9, 12
10, 6
6, 6
5, 6
7, 8
10, 4
5, 7
10, 3
5, 7
6, 10
13, 8
12, 13
10, 17
15, 12
14, 13
15, 13
14, 23
22, 17
10, 11
16, 9
9, 18
6, 8
8, 11
5, 6
5, 6
4, 4
7, 6
9, 4
5, 4
4, 5
4, 5
2, 4
5, 5
8, 6
9, 4
5, 7
11, 7
7, 7
8, 6
9, 5
11, 6
8, 6
9, 6
10, 6
14, 11
21, 15
21, 7
21, 19
28, 16
34, 7
33, 15
31, 15
52, 17
46, 14
42, 12
34, 10
42, 7
25, 11
38, 15
14, 11
8, 10
23, 12
10, 13
13, 18
20, 17
27, 28
53, 44
38, 62
61, 54
49, 60
60, 74
75, 66
56, 66
41, 60
37, 66
28, 40
18, 38
16, 59
22, 41
25, 51
34, 40
41, 63
79, 105
139, 183
288, 324
505, 563
732, 915
1160, 1291
1465, 1725
1961, 2123
2362, 2331
2474, 2294
2411, 2182
2062, 1904
1739, 1417
1333, 1065
910, 712
563, 447
326, 267
209, 137
103, 82
51, 45
38, 41
36, 28
49, 27
41, 16
46, 20
38, 24
37, 23
50, 30
45, 33
51, 54
61, 87
105, 120
159, 154
215, 236
262, 296
295, 315
354, 340
355, 361
373, 372
334, 268
272, 212
172, 134
148, 100
80, 70
46, 40
33, 23
27, 22
9, 14
5, 7
4, 7
6, 8
4, 12
17, 12
13, 8
9, 18
17, 16
10, 14
16, 10
16, 8
15, 5
7, 7
6, 7
7, 3
0, 6
2, 1
4, 0
5, 4
5, 6
6, 5
2, 5
3, 3
4, 2
11, 6
7, 1
4, 3
4, 5
7, 6
6, 7
3, 3
7, 6
7, 7
5, 5
9, 6
3, 7
10, 2
10, 7
6, 12
5, 10
5, 11
4, 10
7, 14
7, 7
9, 15
9, 15
7, 5
10, 12
9, 5
3, 7
5, 6
4, 7
8, 4
5, 4
1, 8
1, 2
3, 2
5, 7
1, 3
4, 6
8, 3
4, 1
5, 1
5, 3
7, 6
4, 1
2, 3
6, 6
1, 4
2, 2
9, 6
5, 8
6, 4
2, 6
8, 1
2, 7
1, 5
7, 4
7, 2
6, 6
3, 5
3, 9
4, 4
3, 12
5, 3
5, 10
5, 9
6, 5
3, 1
2, 3
5, 5
2, 3
1, 6
3, 4
1, 1
4, 3
1, 1
4, 3
5, 5
6, 3
3, 2
2, 4
4, 6
8, 3
7, 4
11, 2
5, 6
3, 1
10, 4
8, 3
4, 1
5, 4
8, 1
8, 4
3, 3
3, 5
3, 1
2, 3
2, 3
3, 4
0, 3
5, 1
2, 3
4, 4
2, 4
2, 5
3, 4
2, 2
2, 1
2, 5
1, 1
2, 5
1, 4
5, 1
5, 3
3, 0
2, 3
0, 5
2, 2
2, 3
5, 4
2, 4
7, 2
2, 1
1, 3
2, 2
1, 2
4, 4
4, 3
1, 2
1, 3
1, 1
2, 2
2, 3
3, 2
2, 7
4, 2
2, 1
3, 1
4, 2
6, 3
1, 2
3, 3
2, 1
3, 6
2, 2
7, 4
3, 2
1, 4
5, 1
2, 1
1, 0
3, 1
5, 2
0, 6
2, 1
3, 0
1, 3
3, 3
0, 3
1, 2
7, 3
2, 4
2, 1
2, 0
5, 0
3, 0
1, 1
2, 0
3, 3
3, 2
0, 3
2, 4
2, 2
1, 2
2, 0
7, 1
3, 1
2, 0
1, 0
2, 2
1, 3
4, 1
3, 2
4, 1
2, 3
1, 2
3, 2
1, 1
5, 0
4, 1
0, 1
0, 1
0, 0
2, 2
1, 4
2, 1
1, 1
2, 2
5, 1
2, 1
2, 2
2, 5
3, 2
3, 2
2, 2
1, 3
4, 6
5, 4
5, 3
4, 4
3, 3
8, 3
7, 5
2, 3
1, 3
5, 0
2, 2
1, 1
2, 2
2, 0
3, 1
1, 0
2, 1
3, 1
1, 2
3, 0
0, 3
0, 2
2, 2
3, 1
5, 1
3, 1
1, 3
0, 1
0, 2
5, 0
3, 2
5, 3
2, 3
1, 1
2, 0
1, 2
2, 2
4, 2
5, 2
3, 0
2, 1
1, 2
2, 2
4, 1
2, 1
0, 0
1, 2
1, 0
1, 0
2, 1
1, 1
1, 1
0, 2
0, 0
1, 4
2, 0
0, 2
0, 1
4, 1
1, 1
3, 1
2, 1
4, 0
2, 0
1, 2
0, 5
3, 2
2, 1
0, 3
2, 0
2, 3
0, 1
1, 0
1, 0
0, 0
0, 2
1, 1
1, 3
0, 1
0, 3
1, 3
0, 1
2, 0
1, 1
1, 2
0, 0
1, 3
2, 1
1, 1
1, 1
1, 1
1, 0
1, 0
1, 0
0, 1
0, 1
1, 0
1, 0
1, 0
0, 0
1, 3
0, 2
0, 0
1, 0
1, 1
0, 1
0, 0
1, 0
2, 1
0, 0
0, 0
2, 0
0, 1
1, 1
1, 0
0, 0
0, 0
0, 4
0, 0
0, 1
1, 0
0, 1
0, 1
1, 1
1, 0
2, 1
0, 1
0, 1
0, 1
1, 1
1, 1
1, 0
1, 0
0, 0
1, 1
0, 1
1, 0
0, 2
1, 0
0, 1
0, 0
0, 1
0, 0
0, 1
0, 0
0, 1
1, 1
0, 0
0, 1
0, 0
0, 1
4, 0
0, 2
0, 0
0, 0
1, 1
0, 0
1, 0
0, 0
0, 0
0, 0
0, 0
1, 1
0, 0
1, 1
0, 0
1, 0
1, 0
0, 1
1, 1
0, 0
0, 0
0, 0
0, 0
0, 0
0, 2
1, 1
1, 1
1, 0
0, 1
0, 1
1, 0
0, 0
0, 0
0, 1
2, 0
0, 0
0, 2
0, 0
0, 1
0, 0
1, 1
0, 0
0, 1
0, 0
0, 1
0, 0
1, 0
0, 0
0, 0
0, 0
0, 0
1, 0
0, 0
0, 0
0, 0
0, 0
1, 1
0, 0
0, 1
1, 0
0, 4
0, 0
0, 1
0, 1
0, 0
1, 0
0, 0
0, 0
0, 0
1, 0
0, 0
0, 0
0, 0
0, 0
0, 0
0, 0
0, 0
0, 0
0, 1
1, 1
0, 0
0, 0
0, 0
0, 1
0, 0
0, 0
1, 1
0, 0
0, 0
0, 0
0, 0
0, 0
0, 0
0, 0
1, 0
1, 0
0, 0
0, 0
0, 0
0, 0
1, 0
0, 0
0, 0
0, 0
0, 0
0, 1
0, 1
0, 1
0, 1
0, 0
0, 0
0, 0
0, 0
0, 0
0, 1
0, 0
0, 0
0, 1
1, 0
1, 0
0, 0
0, 0
0, 0
0, 0
0, 0
0, 0
0, 0
1, 0
0, 0
0, 0
0, 1
0, 0
0, 0
0, 0
0, 0
1, 0
1, 0
0, 0
0, 0
0, 0
1, 0
0, 0
0, 0
0, 0
0, 0
0, 1
1, 0
0, 0
0, 0
0, 0
0, 0
0, 0
0, 0
0, 0
0, 0
0, 1
0, 0
0, 0
0, 0
0, 0
1, 0
1, 0
0, 0
0, 0
0, 0
1, 1
0, 1
1, 0
1, 0
0, 0
0, 1
0, 0
0, 0
0, 0
0, 0
0, 1
0, 1
0, 0
0, 0
0, 0
0, 0
0, 0
0, 0
0, 0
0, 0
0, 0
1, 0
0, 0
0, 0
0, 0
1, 0
0, 0
0, 0
0, 0
0, 0
2, 0
0, 0
0, 0
0, 0
0, 0
0, 0
0, 0
0, 0
0, 0
0, 0
0, 0
0, 0
0, 0
1, 0
0, 0
0, 0
0, 0
0, 0
1, 0
1, 0
0, 0
0, 0
0, 0
0, 0
0, 0
0, 0
0, 0
0, 0
0, 0
0, 0
0, 1
0, 0
0, 0
0, 0
0, 0
0, 0
1, 0
0, 0
0, 0
0, 0
0, 0
0, 0
0, 0
0, 0
0, 1
0, 0
0, 0
0, 0
0, 0
0, 0
0, 0
0, 0
0, 0
0, 0
0, 0
0, 0
0, 0
0, 0
0, 0
0, 0
0, 0
0, 0
0, 0
0, 0
0, 0
0, 0
0, 0
1, 0
0, 0
0, 0
0, 0
0, 0
0, 0
0, 0
0, 0
0, 0
0, 0
0, 0
0, 1
0, 0
0, 0
0, 1
0, 0
0, 0
1, 0
0, 0
0, 0
0, 0
0, 0
0, 0
0, 0
0, 0
0, 0
0, 0
0, 0
0, 0
0, 0
0, 0
0, 0
0, 0
0, 0
0, 0
0, 0
0, 0
0, 0
0, 0
0, 0
0, 0
0, 0
0, 0
0, 0
0, 0
0, 0
0, 0
0, 0
0, 0
0, 0
0, 0
0, 0
0, 0
0, 0
0, 0
0, 0
0, 0
1, 0
0, 0
0, 0
0, 0
0, 0
0, 0
0, 0
0, 0
0, 0
0, 0
0, 0
0, 0
0, 0
0, 0
0, 0
0, 0
0, 0
0, 0
0, 0
0, 0
0, 0
0, 0
0, 0
0, 0
0, 0
0, 0
0, 0
0, 0
0, 0
0, 0
0, 0
0, 0
0, 0
0, 0
0, 0
0, 0
0, 0
0, 0
0, 0
0, 0
0, 0
0, 0
0, 0
0, 0
0, 0
0, 0
0, 0
0, 0
0, 0
0, 0
0, 0
0, 0
0, 0
0, 0
0, 0
0, 0
0, 0
0, 0
0, 0
0, 0
0, 0
0, 0
0, 0
0, 0
0, 0
0, 0
0, 0
0, 0
0, 0
0, 0
0, 0
0, 0
0, 0
0, 0
0, 0
0, 0
0, 0
0, 0
0, 0
0, 0
0, 0
0, 0
0, 0
0, 0
0, 0
0, 0
0, 0
0, 0
0, 0
0, 0
0, 0
0, 0
0, 0
0, 0
0, 0
0, 0
0, 0
0, 0
0, 0
0, 0
0, 0
0, 0
0, 0
0, 0
0, 0
0, 0
0, 0
0, 0
0, 0
0, 0
0, 0
0, 0
0, 0
0, 0
0, 0
0, 0
0, 0
0, 0
0, 0
0, 0
0, 0
0, 0
0, 0
0, 0
0, 0
0, 0
0, 0
0, 0
0, 0
0, 0
0, 0
0, 0
0, 0
0, 0
0, 0
0, 0
0, 0
0, 0
0, 0
0, 0
0, 0
0, 0
0, 0
0, 0
0, 0
0, 0
0, 0
0, 0
0, 0
0, 0
0, 0
0, 0
0, 0
0, 0
0, 0
0, 0
0, 0
0, 0
0, 0
0, 0
0, 0
0, 0
0, 0
0, 0
0, 0
0, 0
0, 0
0, 0
0, 0
0, 0
0, 0
0, 0
0, 0
0, 0
0, 0
0, 0
0, 0
0, 0
0, 0
0, 0
0, 0
0, 0
0, 0
0, 0
0, 0
0, 0
0, 0
0, 0
0, 0
0, 0
0, 0
0, 0
0, 0
0, 0
0, 0
0, 0
0, 0
0, 0
0, 0
0, 0
0, 0
0, 0
0, 0
0, 0
0, 0
0, 0
0, 0
0, 0
0, 0
0, 0
0, 0
0, 0
0, 0
0, 0
0, 0
0, 0
0, 0
0, 0
0, 0
0, 0
0, 0
0, 0
0, 0
0, 0
0, 0
0, 0
0, 0
0, 0
0, 0
0, 0
0, 0
0, 0
0, 0
0, 0
0, 0
0, 0
0, 0
0, 0
0, 0
0, 0
0, 0
0, 0
0, 0
0, 0
0, 0
0, 0
0, 0
0, 0
0, 0
0, 0
0, 0
0, 0
0, 0
0, 0
0, 0
0, 0
0, 0
0, 0
0, 0
0, 0
0, 0
0, 0
0, 0
0, 0
0, 0
0, 0
0, 0
0, 0
0, 0
0, 0
0, 0
0, 0
0, 0
0, 0
0, 0
0, 0
0, 0
0, 0
0, 0
0, 0
0, 0
0, 0
0, 0
0, 0
0, 0
0, 0
0, 0
0, 0
0, 0
0, 0
0, 0
0, 0
0, 0
0, 0
0, 0
0, 0
0, 0
0, 0
0, 0
0, 0
0, 0
0, 0
0, 0
0, 0
0, 0
0, 0
0, 0
0, 0
0, 0
0, 0
0, 0
0, 0
0, 0
0, 0
0, 0
0, 0
0, 0
0, 0
0, 0
0, 0
0, 0
0, 0
0, 0
0, 0
0, 0
0, 0
0, 0
0, 0
0, 0
0, 0
0, 0
0, 0
0, 0
0, 0
0, 0
0, 0
0, 0
0, 0
0, 0
0, 0
0, 0
0, 0
0, 0
0, 0
0, 0
0, 0
0, 0
0, 0
0, 0
0, 0
0, 0
0, 0
0, 0
0, 0
0, 0
0, 0
0, 0
0, 0
#ENDOFDATA     end of spectrum data