File: host_upload/06-09-2024/ps_0852/dump3/ps__0852shot_2566.msa
#FORMAT      : EMSA/MAS spectral data file
#VERSION     : TC202v2.0 PIXL
#TITLE       : N/A
#DATE        :       Date in the format DD-MMM-YYYY, for example 07-JUL-2010
#TIME        :             The time of day at which the spectrum was recorded, in 24-hour format
#OWNER       : PIXL Flight Model       (PIXL will use this to indicate which instrument took the data.)
#NPOINTS     : 4096     Number of data points in the spectrum (This can be zero for configuration only files)
#NCOLUMNS    : 2     Number of data columns in the spectrum (This can be zero for configuration only files)
#XUNITS      : eV
#YUNITS      : COUNTS
#DATATYPE    : YY
#XPERCHAN    : 7.862, 7.881   eV per channel (separate by commas if more than one detector)
#OFFSET      : 18.5, -22.4         eV of first channel  (separate by commas if more than one detector
#SIGNALTYPE  : XRF
#YP_TEMP     : 2.3
#LIVETIME    : 8.56328, 8.54419   seconds (separate by commas if more than one detector)
#REALTIME    : 10, 10.0   seconds (separate by commas if more than one detector)
#SPECTRUM    : start of spectrum data
0, 0
0, 0
0, 0
0, 0
0, 0
0, 0
0, 0
0, 0
0, 0
0, 0
0, 0
0, 0
0, 0
0, 0
0, 0
0, 0
0, 0
0, 0
0, 0
0, 0
0, 0
0, 0
0, 0
0, 0
0, 0
0, 0
0, 0
0, 0
0, 1
0, 0
0, 0
0, 0
0, 0
0, 0
1, 0
0, 0
0, 0
0, 0
0, 0
1, 2
1, 1
1, 2
2, 0
3, 0
2, 3
0, 4
2, 0
4, 1
12, 6
19, 15
36, 21
38, 40
60, 47
87, 78
83, 72
74, 79
63, 66
62, 43
25, 24
14, 4
13, 5
7, 5
6, 1
8, 3
7, 6
6, 6
7, 9
7, 13
21, 13
56, 56
118, 89
195, 154
297, 257
400, 340
452, 404
466, 425
439, 326
355, 268
229, 183
132, 129
75, 54
41, 26
25, 11
6, 5
2, 3
3, 1
2, 2
3, 3
1, 1
0, 2
1, 1
0, 2
1, 1
1, 0
3, 0
1, 1
2, 3
3, 3
2, 6
3, 2
2, 2
2, 1
2, 5
3, 1
2, 4
1, 3
4, 2
3, 2
9, 6
17, 7
13, 9
44, 8
69, 16
71, 22
92, 24
112, 28
107, 21
103, 20
80, 19
58, 22
33, 25
25, 8
18, 11
24, 11
17, 15
13, 13
21, 12
5, 16
4, 11
5, 5
1, 7
3, 1
7, 3
5, 1
1, 1
4, 0
1, 0
2, 3
2, 3
2, 1
2, 1
1, 3
6, 0
4, 2
6, 2
1, 4
2, 3
3, 4
3, 0
3, 2
4, 6
4, 8
9, 12
8, 12
9, 17
23, 12
21, 20
16, 33
24, 21
19, 22
10, 13
13, 14
8, 11
7, 6
6, 3
2, 1
5, 1
6, 3
4, 1
7, 7
8, 2
10, 2
6, 4
5, 3
4, 6
6, 1
6, 7
4, 4
9, 1
5, 5
8, 1
8, 2
9, 1
20, 1
23, 0
15, 4
22, 5
24, 3
22, 7
19, 5
20, 8
16, 12
12, 14
17, 5
14, 8
15, 14
13, 5
13, 10
19, 14
21, 12
14, 16
11, 10
10, 6
8, 7
4, 9
6, 7
4, 5
6, 2
3, 3
3, 6
4, 7
5, 9
5, 14
5, 26
2, 21
8, 26
4, 37
4, 23
7, 22
2, 28
4, 27
7, 17
5, 17
2, 12
7, 12
14, 7
3, 20
6, 38
7, 43
15, 39
16, 56
24, 61
7, 35
11, 45
14, 40
15, 26
13, 18
13, 12
15, 11
15, 8
20, 6
25, 5
23, 14
26, 11
36, 14
42, 16
44, 21
61, 48
73, 46
89, 52
88, 66
72, 65
75, 72
61, 41
43, 42
42, 24
23, 27
32, 19
25, 17
18, 14
21, 17
28, 31
53, 50
97, 106
169, 187
302, 322
514, 580
821, 886
1183, 1276
1623, 1710
2183, 2103
2499, 2372
2533, 2276
2515, 2198
2255, 1922
1792, 1462
1302, 1043
960, 693
582, 430
393, 240
178, 126
93, 64
48, 37
26, 29
14, 24
19, 19
14, 22
14, 24
14, 27
21, 28
32, 26
32, 47
64, 51
65, 82
96, 127
164, 172
221, 226
287, 283
345, 345
389, 332
413, 347
388, 323
333, 304
233, 213
196, 152
154, 107
105, 56
56, 33
43, 18
17, 17
15, 9
11, 11
12, 12
10, 5
13, 11
12, 10
21, 11
15, 10
19, 17
13, 14
10, 10
11, 12
9, 10
5, 8
2, 8
8, 5
3, 3
3, 5
4, 2
5, 4
4, 3
5, 5
4, 0
4, 6
3, 5
3, 3
3, 1
5, 2
2, 5
1, 1
4, 2
3, 6
9, 5
3, 7
4, 2
7, 3
6, 2
4, 4
9, 6
5, 7
14, 3
7, 6
8, 1
6, 13
11, 2
6, 6
7, 9
5, 9
6, 3
9, 7
4, 9
8, 8
8, 17
3, 3
6, 9
6, 7
8, 6
1, 2
14, 7
7, 2
8, 5
6, 5
5, 8
6, 5
3, 4
6, 7
2, 11
5, 6
5, 3
5, 4
3, 4
4, 9
4, 5
2, 5
0, 4
3, 6
6, 3
6, 6
2, 4
6, 3
2, 4
2, 3
4, 4
2, 2
3, 2
4, 1
4, 4
2, 3
4, 3
2, 5
2, 2
2, 5
1, 3
5, 5
3, 2
5, 4
5, 4
2, 4
1, 2
2, 4
3, 2
8, 2
1, 4
8, 2
6, 5
3, 5
5, 2
12, 3
11, 3
22, 3
14, 5
19, 4
17, 4
16, 8
20, 7
20, 3
17, 6
14, 6
6, 2
7, 7
3, 10
12, 12
2, 14
5, 8
5, 6
5, 17
3, 8
6, 10
3, 10
3, 5
5, 9
3, 2
0, 1
0, 3
2, 3
1, 6
5, 0
2, 2
2, 4
2, 1
0, 2
3, 4
5, 2
3, 2
2, 2
4, 3
4, 0
2, 2
5, 2
0, 1
3, 4
3, 3
1, 2
4, 2
1, 2
1, 1
1, 4
0, 0
1, 1
3, 1
5, 1
1, 4
0, 6
1, 3
2, 1
5, 2
4, 3
3, 3
3, 4
4, 2
1, 1
3, 2
1, 4
1, 2
5, 0
6, 6
3, 2
1, 5
3, 0
2, 1
5, 1
3, 4
3, 3
1, 3
1, 1
1, 0
3, 4
1, 1
2, 1
3, 1
2, 0
1, 0
3, 2
2, 0
0, 5
0, 3
0, 1
2, 2
4, 2
3, 0
3, 2
1, 1
0, 2
1, 2
3, 0
5, 3
5, 4
5, 2
4, 2
4, 1
0, 3
2, 1
3, 1
2, 1
3, 2
0, 2
1, 1
2, 2
3, 2
1, 2
2, 2
4, 2
1, 0
1, 0
8, 3
6, 2
3, 3
3, 2
3, 1
3, 3
6, 6
2, 6
3, 2
6, 3
2, 6
3, 5
9, 7
6, 2
9, 1
2, 1
2, 1
1, 0
3, 1
3, 2
1, 2
3, 2
2, 2
6, 1
4, 2
1, 1
1, 0
1, 2
2, 0
2, 4
1, 1
2, 1
1, 1
1, 1
0, 0
0, 2
1, 3
3, 1
2, 1
0, 2
4, 1
0, 2
1, 0
1, 2
2, 1
2, 1
1, 1
0, 0
1, 3
3, 0
1, 0
1, 4
1, 0
2, 1
0, 1
1, 1
1, 4
1, 0
0, 0
0, 0
1, 2
0, 2
2, 0
0, 1
2, 1
1, 2
3, 0
2, 4
3, 0
0, 1
2, 0
0, 0
1, 1
0, 2
0, 1
0, 2
0, 2
1, 0
1, 0
1, 2
0, 0
2, 0
0, 1
0, 0
2, 0
0, 0
0, 0
1, 0
1, 0
2, 0
2, 2
2, 0
0, 4
0, 2
0, 1
0, 0
0, 0
0, 1
1, 1
1, 0
0, 0
1, 0
0, 2
0, 0
2, 1
2, 0
0, 1
0, 2
0, 0
0, 0
3, 0
1, 0
0, 2
1, 0
0, 1
0, 0
0, 1
1, 1
0, 2
2, 1
0, 1
0, 2
1, 0
1, 0
1, 0
2, 0
0, 0
0, 0
0, 1
0, 0
1, 0
0, 1
1, 1
1, 2
0, 0
1, 0
2, 0
0, 0
0, 4
0, 0
3, 2
0, 0
0, 1
0, 0
0, 1
0, 1
0, 0
0, 1
0, 0
1, 0
2, 0
0, 0
0, 1
1, 0
0, 0
0, 0
0, 0
1, 0
0, 0
0, 1
0, 1
0, 1
0, 0
1, 0
2, 0
0, 0
0, 1
0, 0
0, 0
2, 2
0, 0
0, 0
1, 0
1, 0
1, 0
0, 0
0, 0
0, 1
0, 0
0, 0
1, 0
1, 0
0, 0
0, 0
1, 1
0, 1
0, 0
1, 0
0, 0
1, 0
0, 0
0, 0
1, 1
0, 0
0, 1
0, 2
0, 0
0, 0
0, 0
0, 0
0, 0
2, 0
0, 0
0, 1
2, 1
0, 0
0, 0
0, 0
0, 0
0, 0
1, 0
0, 0
1, 0
0, 0
0, 0
1, 0
0, 0
0, 1
0, 1
0, 1
1, 1
0, 1
0, 1
0, 0
0, 0
1, 0
0, 0
0, 0
0, 0
0, 0
0, 0
0, 0
0, 0
0, 0
0, 0
0, 0
0, 0
0, 0
0, 0
0, 0
0, 1
0, 0
0, 2
0, 0
0, 0
2, 2
2, 0
0, 1
1, 0
0, 1
1, 0
0, 0
1, 0
1, 0
0, 0
0, 1
0, 0
0, 2
0, 0
1, 0
2, 0
1, 1
1, 0
0, 0
0, 1
0, 1
0, 0
0, 0
0, 0
0, 0
0, 0
1, 0
0, 0
0, 0
0, 0
1, 0
0, 0
0, 0
0, 0
1, 0
0, 0
1, 1
0, 1
0, 0
0, 0
0, 0
0, 0
0, 0
0, 0
1, 0
0, 0
0, 0
1, 0
0, 0
0, 0
0, 0
1, 0
0, 0
0, 0
0, 0
0, 0
0, 0
1, 0
1, 0
0, 0
0, 0
0, 0
1, 0
0, 1
0, 0
0, 0
0, 0
0, 0
0, 1
0, 0
0, 1
0, 0
1, 0
0, 0
0, 0
0, 0
0, 0
0, 0
0, 0
0, 0
1, 1
0, 0
0, 0
0, 0
0, 0
0, 0
0, 0
0, 0
0, 0
0, 0
0, 0
0, 0
0, 0
0, 0
0, 0
0, 0
0, 0
0, 0
0, 0
1, 0
0, 0
0, 0
0, 0
0, 0
0, 0
0, 0
0, 0
0, 0
0, 0
0, 0
0, 0
0, 0
0, 0
0, 0
0, 0
0, 0
0, 0
0, 0
0, 0
0, 0
0, 0
1, 0
1, 0
0, 0
0, 0
0, 0
0, 0
0, 0
0, 0
0, 0
0, 0
0, 0
0, 0
1, 0
0, 0
0, 0
0, 0
0, 0
0, 0
0, 0
0, 1
0, 0
0, 0
0, 0
0, 0
0, 0
0, 0
1, 0
0, 0
0, 0
0, 0
0, 0
0, 0
0, 0
0, 0
0, 0
0, 0
0, 0
0, 0
0, 0
0, 0
0, 0
0, 0
0, 0
0, 0
0, 0
0, 0
0, 0
0, 0
0, 0
0, 0
0, 0
0, 0
0, 0
0, 0
0, 0
0, 0
0, 0
0, 0
0, 1
0, 0
0, 0
0, 0
0, 0
0, 0
0, 0
0, 0
0, 0
0, 0
0, 0
0, 0
0, 0
0, 0
0, 0
0, 0
0, 0
0, 0
0, 0
0, 0
0, 0
0, 0
0, 0
0, 0
0, 0
0, 0
0, 0
0, 0
0, 0
1, 0
0, 1
1, 0
0, 0
0, 0
0, 0
0, 0
0, 0
0, 0
0, 0
0, 0
0, 0
0, 0
0, 0
0, 0
0, 0
0, 0
0, 0
0, 0
0, 0
0, 0
0, 0
0, 0
0, 0
0, 0
0, 0
0, 0
0, 0
0, 0
0, 0
0, 0
0, 0
0, 0
0, 0
0, 0
0, 0
0, 0
0, 0
0, 0
0, 0
0, 0
0, 0
0, 0
0, 0
0, 0
0, 0
0, 0
0, 0
0, 0
0, 0
0, 0
0, 0
0, 0
0, 0
0, 0
0, 0
0, 0
0, 0
0, 0
0, 0
0, 0
0, 0
0, 0
0, 0
0, 0
0, 0
0, 0
0, 0
0, 0
0, 0
0, 0
0, 0
0, 0
0, 0
0, 0
0, 0
0, 0
0, 0
0, 0
0, 0
0, 0
0, 0
0, 0
0, 0
0, 0
0, 0
0, 0
0, 0
0, 0
0, 0
0, 0
0, 0
0, 0
0, 0
0, 0
0, 0
0, 0
0, 0
0, 0
0, 0
0, 0
0, 0
0, 0
0, 0
0, 0
0, 0
0, 0
0, 0
0, 0
0, 0
0, 0
0, 0
0, 0
0, 0
0, 0
0, 0
0, 0
0, 0
0, 0
0, 0
0, 0
0, 0
0, 0
0, 0
0, 0
0, 0
0, 0
0, 0
0, 0
0, 0
0, 0
0, 0
0, 0
0, 0
0, 0
0, 0
0, 0
0, 0
0, 0
0, 0
0, 0
0, 0
0, 0
0, 0
0, 0
0, 0
0, 0
0, 0
0, 0
0, 0
0, 0
0, 0
0, 0
0, 0
0, 0
0, 0
0, 0
0, 0
0, 0
0, 0
0, 0
0, 0
0, 0
0, 0
0, 0
0, 0
0, 0
0, 0
0, 0
0, 0
0, 0
0, 0
0, 0
0, 0
0, 0
0, 0
0, 0
0, 0
0, 0
0, 0
0, 0
0, 0
0, 0
0, 0
0, 0
0, 0
0, 0
0, 0
0, 0
0, 0
0, 0
0, 0
0, 0
0, 0
0, 0
0, 0
0, 0
0, 0
0, 0
0, 0
0, 0
0, 0
0, 0
0, 0
0, 0
0, 0
0, 0
0, 0
0, 0
0, 0
0, 0
0, 0
0, 0
0, 0
0, 0
0, 0
0, 0
0, 0
0, 0
0, 0
0, 0
0, 0
0, 0
0, 0
0, 0
0, 0
0, 0
0, 0
0, 0
0, 0
0, 0
0, 0
0, 0
0, 0
0, 0
0, 0
0, 0
0, 0
0, 0
0, 0
0, 0
0, 0
0, 0
0, 0
0, 0
0, 0
0, 0
0, 0
0, 0
0, 0
0, 0
0, 0
0, 0
0, 0
0, 0
0, 0
0, 0
0, 0
0, 0
0, 0
0, 0
0, 0
0, 0
0, 0
0, 0
0, 0
0, 0
0, 0
0, 0
0, 0
0, 0
0, 0
0, 0
0, 0
0, 0
0, 0
0, 0
0, 0
0, 0
0, 0
0, 0
0, 0
0, 0
0, 0
0, 0
0, 0
0, 0
0, 0
0, 0
0, 0
0, 0
0, 0
0, 0
0, 0
0, 0
0, 0
0, 0
0, 0
0, 0
0, 0
0, 0
0, 0
0, 0
0, 0
0, 0
0, 0
0, 0
0, 0
0, 0
0, 0
0, 0
0, 0
0, 0
0, 0
0, 0
0, 0
0, 0
0, 0
0, 0
0, 0
0, 0
0, 0
0, 0
0, 0
0, 0
0, 0
0, 0
0, 0
0, 0
0, 0
0, 0
0, 0
0, 0
0, 0
0, 0
0, 0
0, 0
0, 0
0, 0
0, 0
0, 0
0, 0
0, 0
0, 0
0, 0
0, 0
0, 0
0, 0
0, 0
0, 0
0, 0
0, 0
0, 0
0, 0
0, 0
0, 0
0, 0
0, 0
0, 0
0, 0
0, 0
0, 0
0, 0
0, 0
0, 0
0, 0
0, 0
0, 0
0, 0
0, 0
0, 0
0, 0
0, 0
0, 0
0, 0
0, 0
0, 0
0, 0
0, 0
#ENDOFDATA     end of spectrum data