File: host_upload/06-09-2024/ps_0852/dump3/ps__0852shot_2015.msa
#FORMAT      : EMSA/MAS spectral data file
#VERSION     : TC202v2.0 PIXL
#TITLE       : N/A
#DATE        :       Date in the format DD-MMM-YYYY, for example 07-JUL-2010
#TIME        :             The time of day at which the spectrum was recorded, in 24-hour format
#OWNER       : PIXL Flight Model       (PIXL will use this to indicate which instrument took the data.)
#NPOINTS     : 4096     Number of data points in the spectrum (This can be zero for configuration only files)
#NCOLUMNS    : 2     Number of data columns in the spectrum (This can be zero for configuration only files)
#XUNITS      : eV
#YUNITS      : COUNTS
#DATATYPE    : YY
#XPERCHAN    : 7.862, 7.881   eV per channel (separate by commas if more than one detector)
#OFFSET      : 18.5, -22.4         eV of first channel  (separate by commas if more than one detector
#SIGNALTYPE  : XRF
#YP_TEMP     : 2.588
#LIVETIME    : 8.53784, 8.57299   seconds (separate by commas if more than one detector)
#REALTIME    : 10, 10.0   seconds (separate by commas if more than one detector)
#SPECTRUM    : start of spectrum data
0, 0
0, 0
0, 0
0, 0
0, 0
0, 0
0, 0
0, 0
0, 0
0, 0
0, 0
0, 0
0, 0
0, 0
0, 0
0, 0
0, 0
0, 0
0, 0
0, 0
0, 0
0, 0
0, 0
0, 0
0, 0
0, 0
0, 0
0, 0
0, 0
0, 0
0, 0
0, 0
0, 1
0, 0
0, 0
0, 0
0, 1
0, 0
0, 1
0, 0
0, 1
0, 0
1, 0
2, 0
0, 3
1, 2
1, 0
3, 4
6, 10
13, 14
25, 23
41, 55
57, 60
66, 71
75, 102
64, 91
55, 57
41, 51
32, 23
14, 11
8, 7
3, 3
2, 5
0, 1
2, 5
0, 7
5, 4
9, 10
20, 28
42, 71
71, 120
135, 166
243, 299
349, 393
377, 456
396, 474
338, 395
260, 262
201, 216
128, 142
71, 77
34, 42
19, 21
10, 15
4, 4
6, 3
1, 3
3, 3
0, 1
1, 1
0, 1
2, 1
5, 2
2, 5
3, 7
8, 11
15, 12
10, 14
17, 12
19, 23
13, 8
10, 28
13, 9
5, 3
5, 9
3, 9
9, 13
7, 5
14, 18
8, 17
11, 24
21, 30
30, 31
38, 44
36, 41
39, 31
29, 32
34, 34
31, 40
21, 30
18, 27
22, 25
16, 26
16, 18
19, 18
14, 17
10, 17
9, 12
9, 12
5, 8
10, 5
3, 0
4, 2
4, 3
1, 2
4, 3
4, 3
0, 3
1, 0
2, 3
1, 1
2, 1
0, 4
0, 3
4, 2
3, 2
4, 3
6, 4
3, 2
2, 2
9, 1
10, 6
18, 11
10, 13
11, 17
17, 18
17, 13
16, 24
22, 28
13, 11
6, 15
5, 7
7, 3
2, 9
3, 3
3, 4
2, 4
2, 5
5, 6
1, 5
6, 6
1, 10
4, 15
2, 15
4, 22
2, 18
4, 29
3, 33
4, 41
1, 25
2, 19
3, 17
5, 22
1, 10
2, 9
4, 3
6, 3
3, 1
6, 3
6, 8
14, 10
12, 14
15, 13
22, 10
36, 17
31, 11
36, 17
38, 17
51, 21
39, 19
45, 18
31, 19
26, 9
19, 14
17, 9
15, 4
12, 5
6, 3
2, 4
6, 4
6, 12
5, 10
5, 8
7, 5
9, 7
9, 7
11, 7
5, 5
8, 6
13, 7
11, 5
9, 5
8, 11
8, 10
6, 14
9, 11
11, 12
12, 20
8, 25
14, 23
14, 15
20, 11
18, 19
10, 23
8, 13
11, 8
8, 10
4, 11
4, 11
7, 10
6, 10
8, 11
6, 17
6, 5
20, 8
13, 31
17, 32
31, 41
39, 57
40, 46
49, 60
57, 65
49, 58
55, 48
33, 53
36, 32
29, 30
18, 14
15, 13
12, 20
16, 25
26, 47
46, 73
86, 116
141, 219
238, 368
472, 613
717, 1012
1035, 1373
1382, 1815
1722, 2258
2024, 2505
2193, 2541
2136, 2291
1939, 2217
1615, 1608
1261, 1181
841, 802
574, 524
340, 333
204, 190
124, 140
79, 82
57, 57
75, 46
52, 34
59, 21
55, 39
48, 24
44, 26
42, 31
42, 57
55, 77
72, 76
102, 151
154, 179
193, 199
265, 267
282, 367
323, 379
326, 392
331, 354
298, 317
250, 292
167, 191
147, 147
91, 100
46, 77
36, 32
22, 31
11, 14
7, 10
5, 15
6, 10
9, 13
6, 12
13, 16
7, 22
12, 16
11, 21
11, 12
8, 13
9, 13
8, 10
10, 4
7, 4
7, 7
1, 5
3, 5
3, 6
6, 3
2, 4
1, 0
2, 8
3, 2
1, 5
6, 3
7, 5
6, 4
5, 4
4, 2
3, 1
6, 5
3, 4
2, 8
7, 8
4, 3
9, 8
5, 1
5, 7
8, 6
7, 4
5, 7
8, 7
6, 10
6, 10
4, 3
0, 8
3, 3
5, 7
5, 3
2, 5
3, 4
1, 7
4, 5
1, 4
5, 8
4, 1
5, 2
4, 5
4, 4
4, 4
3, 7
3, 5
4, 4
1, 4
3, 7
4, 6
1, 7
2, 4
6, 3
4, 2
2, 5
1, 2
3, 4
4, 4
2, 6
5, 8
4, 5
2, 6
5, 6
7, 9
5, 17
5, 12
7, 10
4, 9
3, 15
5, 7
5, 9
9, 6
3, 7
5, 5
7, 6
1, 4
4, 4
2, 3
1, 5
7, 4
2, 9
2, 2
7, 2
9, 2
9, 1
10, 1
13, 3
20, 2
15, 2
21, 4
29, 2
27, 3
17, 1
19, 0
17, 0
6, 4
10, 2
8, 2
4, 2
2, 1
9, 4
2, 4
3, 1
2, 4
5, 4
1, 2
5, 5
4, 8
1, 4
4, 4
1, 3
3, 5
2, 4
1, 4
1, 2
0, 2
3, 2
2, 2
2, 3
3, 6
5, 3
1, 0
3, 1
0, 0
1, 0
1, 5
0, 0
2, 4
3, 4
0, 5
3, 2
0, 3
1, 1
1, 1
3, 1
3, 2
0, 0
3, 1
3, 2
2, 3
4, 2
3, 2
2, 0
4, 1
2, 3
2, 2
2, 3
1, 0
1, 1
5, 0
4, 0
0, 3
2, 4
1, 1
3, 3
0, 1
3, 4
3, 2
3, 6
1, 5
1, 2
4, 3
1, 3
2, 4
3, 2
3, 2
2, 1
2, 2
2, 5
3, 6
2, 7
2, 5
4, 3
0, 3
2, 3
1, 3
1, 6
0, 2
2, 2
1, 3
2, 3
1, 1
1, 1
1, 1
1, 3
1, 1
3, 1
1, 2
0, 2
2, 1
0, 1
1, 1
0, 1
1, 1
1, 0
2, 2
0, 4
0, 0
2, 1
2, 0
2, 1
2, 3
0, 2
2, 0
0, 1
0, 4
2, 4
2, 1
2, 4
2, 3
2, 2
3, 5
0, 6
0, 4
3, 5
4, 4
3, 2
3, 4
3, 3
1, 4
3, 5
2, 2
0, 4
0, 1
1, 2
1, 3
2, 0
2, 2
3, 0
2, 4
0, 0
1, 3
2, 3
1, 1
0, 1
1, 0
1, 5
1, 2
0, 1
1, 2
3, 1
1, 4
1, 5
1, 1
6, 1
3, 3
0, 1
1, 1
1, 1
2, 3
0, 2
3, 0
0, 0
1, 1
1, 1
1, 1
4, 1
3, 0
0, 3
0, 0
0, 1
0, 1
5, 1
0, 0
0, 0
1, 2
2, 0
2, 0
0, 2
1, 2
2, 4
1, 0
1, 0
1, 0
2, 0
1, 0
1, 1
1, 4
4, 2
0, 1
0, 0
3, 1
3, 2
1, 1
2, 1
3, 1
1, 0
1, 2
1, 2
1, 0
1, 2
3, 1
2, 1
0, 1
0, 2
4, 3
0, 0
2, 2
1, 1
0, 1
0, 0
2, 1
1, 0
0, 0
0, 1
0, 0
1, 0
0, 3
1, 0
0, 0
0, 1
0, 0
2, 3
1, 0
0, 1
0, 1
2, 1
1, 2
1, 0
0, 0
0, 0
1, 1
0, 2
0, 1
0, 0
0, 1
0, 1
1, 3
0, 2
1, 2
1, 0
1, 0
0, 0
1, 0
1, 1
1, 1
0, 0
0, 3
2, 1
0, 0
0, 0
0, 0
0, 1
0, 0
0, 0
1, 1
0, 0
0, 0
0, 1
0, 1
0, 1
2, 1
1, 0
0, 2
0, 0
0, 0
3, 0
0, 0
1, 1
0, 0
1, 0
0, 1
0, 0
0, 0
0, 0
2, 0
0, 0
1, 0
1, 0
0, 1
0, 0
1, 0
0, 1
0, 1
1, 0
0, 1
2, 0
0, 0
0, 0
1, 0
0, 0
0, 0
0, 1
0, 0
0, 0
1, 0
0, 1
0, 0
0, 1
3, 0
2, 0
0, 1
1, 0
1, 0
0, 0
0, 0
0, 1
1, 1
0, 1
0, 2
0, 0
0, 0
0, 0
1, 0
0, 0
1, 0
0, 0
0, 0
0, 0
0, 1
0, 0
0, 0
0, 0
0, 0
0, 1
0, 0
1, 0
0, 0
0, 1
0, 0
0, 0
0, 0
0, 0
2, 0
1, 0
0, 0
0, 1
1, 0
1, 0
0, 0
0, 0
0, 1
0, 0
0, 1
0, 0
0, 0
0, 0
0, 0
0, 0
0, 0
0, 0
0, 0
0, 0
1, 0
0, 0
0, 0
0, 0
0, 1
0, 0
1, 0
0, 0
0, 0
0, 0
0, 0
0, 0
0, 0
2, 1
0, 0
0, 0
0, 0
0, 0
0, 1
0, 0
1, 0
0, 1
0, 0
0, 0
1, 0
0, 0
0, 0
0, 1
0, 0
0, 0
0, 0
0, 0
0, 0
0, 1
1, 0
0, 2
0, 0
0, 0
0, 1
0, 0
0, 0
0, 0
0, 0
0, 1
1, 0
0, 0
1, 0
0, 0
0, 0
1, 0
0, 0
0, 0
0, 0
0, 0
0, 1
0, 0
0, 0
0, 0
0, 0
1, 0
0, 0
0, 0
0, 0
0, 0
0, 0
1, 0
0, 0
0, 1
0, 0
0, 0
0, 0
0, 1
0, 1
0, 0
1, 0
1, 0
0, 0
1, 0
1, 1
0, 0
0, 1
0, 0
0, 0
0, 0
0, 1
0, 0
0, 0
1, 0
0, 0
0, 1
0, 0
0, 0
0, 0
0, 0
0, 0
1, 0
0, 0
0, 0
0, 0
0, 0
0, 1
0, 0
0, 0
0, 0
0, 0
0, 0
1, 0
0, 0
0, 0
0, 0
0, 0
0, 0
0, 0
0, 0
0, 0
0, 0
0, 0
0, 0
0, 0
0, 0
0, 0
0, 0
0, 0
0, 0
0, 0
0, 0
0, 0
0, 0
0, 0
0, 0
0, 0
0, 0
1, 0
0, 0
0, 0
1, 0
0, 0
0, 0
0, 0
0, 0
0, 0
0, 0
0, 0
0, 1
0, 0
0, 0
0, 0
0, 0
0, 0
0, 0
0, 0
0, 0
1, 0
0, 0
0, 0
0, 0
0, 0
0, 0
0, 0
0, 0
0, 0
0, 0
0, 0
0, 1
0, 0
0, 0
0, 0
0, 0
0, 0
0, 0
0, 0
0, 0
0, 0
0, 0
0, 0
0, 0
0, 0
0, 0
0, 0
0, 0
0, 0
0, 0
0, 0
0, 0
0, 0
0, 0
0, 0
0, 0
0, 0
0, 0
0, 0
0, 0
0, 0
0, 0
0, 0
0, 0
0, 0
0, 0
0, 0
0, 0
0, 0
0, 0
0, 0
0, 0
0, 0
0, 0
0, 0
0, 0
0, 0
0, 0
0, 0
0, 0
0, 0
0, 0
0, 0
0, 0
0, 0
0, 0
0, 0
0, 0
0, 0
0, 0
0, 0
0, 0
0, 0
0, 0
1, 0
0, 0
0, 0
0, 0
0, 0
0, 0
0, 0
0, 0
0, 0
0, 0
1, 0
0, 0
0, 0
0, 0
0, 0
0, 0
0, 0
0, 0
0, 0
0, 0
0, 0
0, 0
0, 0
0, 0
0, 0
0, 0
0, 0
0, 0
0, 0
0, 0
0, 0
0, 0
0, 0
0, 0
0, 0
0, 0
0, 0
0, 0
0, 0
0, 0
0, 0
0, 0
0, 0
0, 0
0, 0
0, 0
0, 0
0, 0
0, 0
0, 0
0, 0
0, 0
0, 0
0, 0
0, 0
0, 0
0, 0
0, 0
0, 0
0, 0
0, 0
0, 0
0, 0
0, 0
0, 0
0, 0
0, 0
0, 0
0, 0
0, 0
0, 0
0, 0
0, 0
0, 0
0, 0
0, 0
0, 0
0, 0
0, 0
0, 0
0, 0
0, 0
0, 0
0, 0
0, 0
0, 0
0, 0
0, 0
0, 0
0, 0
0, 0
0, 0
0, 0
0, 0
0, 0
0, 0
0, 0
0, 0
0, 0
0, 0
0, 0
0, 0
0, 0
0, 0
0, 0
0, 0
0, 0
0, 0
0, 0
0, 0
0, 0
0, 0
0, 0
0, 0
0, 0
0, 0
0, 0
0, 0
0, 0
0, 0
0, 0
0, 0
0, 0
0, 0
0, 0
0, 0
0, 0
0, 0
0, 0
0, 0
0, 0
0, 0
0, 0
0, 0
0, 0
0, 0
0, 0
0, 0
0, 0
0, 0
0, 0
0, 0
0, 0
0, 0
0, 0
0, 0
0, 0
0, 0
0, 0
0, 0
0, 0
0, 0
0, 0
0, 0
0, 0
0, 0
0, 0
0, 0
0, 0
0, 0
0, 0
0, 0
0, 0
0, 0
0, 0
0, 0
0, 0
0, 0
0, 0
0, 0
0, 0
0, 0
0, 0
0, 0
0, 0
0, 0
0, 0
0, 0
0, 0
0, 0
0, 0
0, 0
0, 0
0, 0
0, 0
0, 0
0, 0
0, 0
0, 0
0, 0
0, 0
0, 0
0, 0
0, 0
0, 0
0, 0
0, 0
0, 0
0, 0
0, 0
0, 0
0, 0
0, 0
0, 0
0, 0
0, 0
0, 0
0, 0
0, 0
0, 0
0, 0
0, 0
0, 0
0, 0
0, 0
0, 0
0, 0
0, 0
0, 0
0, 0
0, 0
0, 0
0, 0
0, 0
0, 0
0, 0
0, 0
0, 0
0, 0
0, 0
0, 0
0, 0
0, 0
0, 0
0, 0
0, 0
0, 0
0, 0
0, 0
0, 0
0, 0
0, 0
0, 0
0, 0
0, 0
0, 0
0, 0
0, 0
0, 0
0, 0
0, 0
0, 0
0, 0
0, 0
0, 0
0, 0
0, 0
0, 0
0, 0
0, 0
0, 0
0, 0
0, 0
0, 0
0, 0
0, 0
0, 0
0, 0
0, 0
0, 0
0, 0
0, 0
0, 0
0, 0
0, 0
0, 0
0, 0
0, 0
0, 0
0, 0
0, 0
0, 0
0, 0
0, 0
0, 0
0, 0
0, 0
0, 0
0, 0
0, 0
0, 0
0, 0
0, 0
0, 0
0, 0
0, 0
0, 0
0, 0
0, 0
0, 0
0, 0
0, 0
0, 0
0, 0
0, 0
0, 0
0, 0
0, 0
0, 0
0, 0
0, 0
0, 0
0, 0
0, 0
0, 0
0, 0
0, 0
0, 0
0, 0
0, 0
0, 0
0, 0
0, 0
0, 0
0, 0
0, 0
0, 0
0, 0
0, 0
0, 0
0, 0
0, 0
0, 0
0, 0
0, 0
0, 0
0, 0
0, 0
0, 0
0, 0
0, 0
0, 0
0, 0
0, 0
0, 0
0, 0
0, 0
0, 0
0, 0
0, 0
0, 0
0, 0
0, 0
0, 0
0, 0
0, 0
0, 0
0, 0
0, 0
0, 0
0, 0
0, 0
0, 0
0, 0
0, 0
0, 0
0, 0
0, 0
0, 0
#ENDOFDATA     end of spectrum data