File: host_upload/06-09-2024/ps_0852/dump3/ps__0852shot_2380.msa
#FORMAT      : EMSA/MAS spectral data file
#VERSION     : TC202v2.0 PIXL
#TITLE       : N/A
#DATE        :       Date in the format DD-MMM-YYYY, for example 07-JUL-2010
#TIME        :             The time of day at which the spectrum was recorded, in 24-hour format
#OWNER       : PIXL Flight Model       (PIXL will use this to indicate which instrument took the data.)
#NPOINTS     : 4096     Number of data points in the spectrum (This can be zero for configuration only files)
#NCOLUMNS    : 2     Number of data columns in the spectrum (This can be zero for configuration only files)
#XUNITS      : eV
#YUNITS      : COUNTS
#DATATYPE    : YY
#XPERCHAN    : 7.862, 7.881   eV per channel (separate by commas if more than one detector)
#OFFSET      : 18.5, -22.4         eV of first channel  (separate by commas if more than one detector
#SIGNALTYPE  : XRF
#YP_TEMP     : 2.332
#LIVETIME    : 8.55934, 8.56366   seconds (separate by commas if more than one detector)
#REALTIME    : 10, 10.0   seconds (separate by commas if more than one detector)
#SPECTRUM    : start of spectrum data
0, 0
0, 0
0, 0
0, 0
0, 0
0, 0
0, 0
0, 0
0, 0
0, 0
0, 0
0, 0
0, 0
0, 0
0, 0
0, 0
0, 0
0, 0
0, 0
0, 0
0, 0
0, 0
0, 0
0, 0
0, 0
0, 0
0, 0
0, 0
0, 0
0, 0
0, 0
0, 0
0, 0
0, 0
0, 0
1, 0
0, 0
0, 0
0, 2
0, 3
2, 1
2, 1
0, 2
0, 2
2, 1
1, 2
4, 1
2, 4
8, 12
14, 12
25, 17
40, 42
57, 73
74, 74
88, 85
80, 82
62, 71
42, 52
32, 25
22, 17
13, 8
4, 6
3, 1
2, 4
2, 0
2, 6
7, 5
15, 10
22, 23
43, 54
104, 123
169, 174
250, 278
381, 384
398, 422
423, 387
363, 417
287, 318
203, 209
125, 115
62, 70
46, 41
12, 19
9, 5
8, 4
3, 4
2, 0
0, 1
2, 2
3, 0
0, 2
1, 2
1, 0
1, 2
2, 2
1, 0
2, 2
4, 1
4, 4
0, 5
4, 1
1, 5
4, 1
1, 3
1, 4
8, 2
1, 7
4, 2
4, 8
9, 16
9, 27
23, 46
29, 70
37, 98
44, 113
42, 127
40, 119
38, 123
33, 79
29, 59
32, 39
22, 42
17, 38
20, 31
15, 25
11, 13
16, 15
12, 12
11, 10
9, 9
3, 4
2, 4
5, 2
3, 1
2, 1
2, 3
0, 2
1, 2
3, 2
1, 1
4, 1
0, 1
3, 0
0, 1
3, 1
0, 2
2, 2
0, 0
0, 1
4, 6
5, 3
4, 5
6, 5
6, 5
6, 7
13, 8
12, 9
14, 18
11, 15
13, 12
8, 6
5, 12
4, 7
6, 4
2, 6
0, 2
4, 4
7, 11
2, 5
6, 4
2, 3
6, 7
6, 3
2, 8
4, 8
4, 6
4, 6
3, 2
1, 3
4, 5
2, 1
5, 2
5, 6
1, 3
6, 4
6, 1
12, 6
25, 4
24, 8
56, 8
62, 10
88, 20
89, 17
101, 18
94, 26
99, 18
99, 23
83, 17
42, 16
29, 8
34, 13
14, 9
11, 10
13, 7
9, 5
9, 4
3, 3
7, 6
7, 5
3, 1
3, 3
3, 3
4, 4
5, 5
3, 3
8, 1
3, 5
5, 3
6, 5
5, 9
6, 8
10, 16
8, 20
13, 18
19, 20
23, 35
19, 23
15, 31
21, 23
15, 26
21, 18
19, 19
15, 14
9, 21
11, 11
15, 13
8, 16
14, 44
11, 38
17, 45
21, 48
24, 53
32, 60
31, 64
25, 68
27, 50
26, 61
37, 50
48, 61
58, 70
56, 70
68, 63
63, 56
55, 58
45, 38
35, 39
35, 18
20, 18
15, 15
16, 14
21, 19
24, 24
60, 67
74, 109
139, 207
254, 354
462, 624
781, 954
1128, 1350
1497, 1862
1934, 2203
2256, 2512
2379, 2555
2321, 2433
2126, 2004
1734, 1605
1359, 1113
923, 730
605, 490
367, 313
197, 146
119, 90
65, 66
44, 53
36, 38
23, 30
23, 43
16, 49
27, 37
28, 36
23, 31
28, 34
50, 56
72, 74
99, 135
183, 183
187, 259
250, 308
325, 341
325, 355
347, 382
343, 329
325, 309
242, 227
160, 180
135, 117
93, 56
42, 53
42, 34
37, 25
22, 24
22, 28
28, 25
39, 30
26, 22
31, 25
24, 24
27, 25
20, 20
11, 21
17, 18
15, 10
8, 9
8, 7
5, 4
8, 3
1, 4
2, 3
1, 2
2, 2
1, 4
1, 3
7, 2
4, 2
6, 2
9, 7
8, 5
11, 10
10, 5
4, 8
8, 10
7, 8
15, 7
8, 7
9, 8
7, 9
10, 2
7, 4
6, 6
3, 6
6, 7
5, 4
3, 3
5, 3
4, 5
3, 5
7, 8
8, 7
3, 9
4, 5
4, 11
2, 9
3, 11
5, 16
6, 9
6, 9
3, 7
7, 7
1, 8
5, 9
9, 3
3, 7
1, 7
4, 6
2, 7
0, 5
3, 3
6, 5
6, 1
3, 4
6, 4
4, 1
5, 4
2, 7
6, 1
5, 5
4, 1
7, 2
7, 1
7, 6
5, 8
12, 6
11, 6
7, 12
13, 12
13, 8
12, 8
5, 6
8, 6
4, 7
8, 5
3, 0
6, 4
4, 11
3, 7
4, 2
2, 4
2, 2
2, 4
3, 4
2, 5
4, 4
3, 3
1, 1
1, 3
5, 2
4, 1
4, 2
3, 6
2, 1
3, 3
4, 5
3, 1
6, 3
2, 1
5, 0
1, 4
3, 3
5, 6
8, 6
3, 2
6, 3
4, 7
6, 3
8, 8
4, 10
9, 4
5, 3
4, 7
3, 3
3, 4
8, 3
8, 4
7, 3
3, 0
2, 1
2, 1
5, 2
3, 7
7, 4
4, 6
6, 6
5, 2
5, 4
1, 2
2, 5
2, 3
2, 6
3, 2
4, 4
2, 2
2, 1
7, 2
4, 5
4, 2
0, 0
1, 1
1, 4
3, 1
1, 4
4, 4
1, 5
0, 3
1, 0
3, 5
2, 2
1, 2
3, 1
5, 1
3, 2
2, 1
0, 0
3, 1
2, 1
1, 1
2, 1
2, 3
5, 1
1, 2
2, 2
3, 2
3, 1
1, 2
4, 2
3, 2
1, 1
2, 3
4, 4
3, 4
2, 1
3, 1
4, 1
4, 4
3, 2
5, 1
5, 3
4, 3
6, 5
5, 6
6, 5
2, 7
3, 0
0, 3
2, 4
2, 2
6, 1
1, 3
2, 1
4, 3
1, 1
1, 3
1, 4
5, 5
1, 0
2, 3
4, 1
1, 4
2, 1
2, 1
2, 0
0, 3
2, 0
2, 0
2, 2
0, 4
0, 3
1, 2
1, 1
1, 4
0, 2
4, 2
1, 6
1, 9
5, 4
4, 4
4, 5
4, 6
4, 2
1, 2
0, 2
0, 3
3, 4
2, 0
2, 1
1, 3
4, 2
0, 3
1, 0
1, 2
0, 1
2, 2
2, 1
0, 2
2, 0
1, 3
4, 3
3, 2
4, 2
0, 2
1, 3
4, 0
0, 4
1, 1
5, 4
3, 1
0, 0
2, 2
1, 0
0, 0
3, 1
1, 1
0, 0
1, 1
2, 0
1, 2
0, 0
1, 0
0, 3
0, 0
0, 1
1, 3
1, 0
0, 1
0, 1
2, 3
1, 0
2, 0
3, 1
2, 0
0, 0
0, 1
0, 3
1, 1
1, 0
1, 3
1, 0
0, 1
1, 0
0, 2
2, 0
1, 1
0, 1
0, 0
1, 1
3, 1
0, 1
0, 0
2, 1
2, 0
0, 0
3, 4
1, 0
0, 1
0, 1
3, 0
0, 0
1, 0
1, 2
1, 0
0, 1
0, 1
0, 0
1, 1
1, 0
2, 0
0, 0
1, 1
2, 0
0, 2
0, 1
1, 0
1, 1
1, 0
0, 0
0, 0
2, 1
0, 0
0, 1
3, 1
0, 0
2, 0
0, 1
0, 0
0, 1
0, 1
1, 1
1, 3
1, 0
0, 1
1, 0
0, 0
1, 1
0, 1
1, 1
0, 0
0, 3
2, 2
0, 0
0, 1
0, 2
1, 0
0, 0
0, 0
2, 1
0, 1
0, 0
2, 0
0, 1
0, 0
0, 1
0, 1
1, 0
1, 0
1, 0
1, 0
0, 0
1, 0
1, 0
1, 1
0, 0
1, 0
0, 2
1, 1
1, 0
0, 1
1, 1
2, 0
1, 2
0, 1
1, 0
0, 0
0, 1
0, 1
1, 1
0, 0
0, 1
0, 1
0, 0
0, 0
1, 0
0, 1
1, 0
1, 0
1, 0
0, 0
0, 0
0, 1
0, 0
0, 0
0, 0
0, 1
0, 0
0, 0
0, 0
0, 0
0, 0
1, 0
0, 0
0, 0
0, 0
1, 1
1, 0
0, 1
0, 0
1, 1
0, 0
0, 1
0, 2
0, 0
2, 0
1, 0
0, 0
0, 0
0, 0
0, 0
0, 0
1, 0
0, 0
1, 1
0, 0
1, 0
1, 0
1, 0
0, 0
0, 1
0, 0
1, 0
0, 1
0, 1
0, 0
0, 1
2, 0
1, 0
0, 1
1, 0
0, 0
0, 0
0, 0
0, 0
0, 0
1, 0
1, 0
0, 0
1, 0
0, 0
0, 0
0, 0
1, 0
0, 0
0, 0
0, 0
0, 0
0, 0
2, 0
0, 1
0, 0
0, 0
0, 0
0, 1
0, 0
0, 1
0, 2
1, 0
0, 0
0, 1
0, 0
0, 0
0, 1
1, 0
1, 1
1, 1
0, 0
0, 0
0, 0
0, 0
0, 0
0, 0
0, 1
0, 0
0, 0
1, 0
0, 0
0, 0
0, 0
0, 1
0, 1
0, 0
0, 1
0, 0
0, 0
0, 0
0, 0
0, 0
1, 0
0, 0
0, 0
0, 0
0, 1
0, 1
0, 0
0, 0
0, 0
0, 0
0, 0
0, 1
0, 0
0, 0
0, 0
0, 0
1, 0
0, 0
0, 0
0, 0
0, 0
0, 0
1, 0
0, 0
0, 1
0, 0
0, 0
0, 0
0, 0
1, 0
0, 0
1, 0
0, 0
0, 0
0, 0
0, 0
0, 0
0, 0
0, 1
0, 0
0, 0
0, 0
0, 0
0, 0
0, 0
0, 0
1, 0
1, 0
0, 0
0, 1
0, 0
0, 0
0, 0
0, 1
0, 0
0, 0
0, 0
0, 0
0, 0
0, 0
0, 0
0, 1
0, 0
0, 0
0, 0
0, 0
0, 0
0, 0
0, 0
0, 0
1, 0
0, 1
0, 0
0, 0
0, 0
0, 0
0, 0
0, 0
0, 0
0, 0
0, 0
0, 1
0, 0
0, 0
0, 0
1, 0
0, 0
0, 0
0, 0
0, 1
0, 0
0, 0
0, 0
0, 0
0, 0
0, 0
0, 0
0, 0
0, 0
0, 0
0, 0
0, 0
0, 1
0, 0
0, 0
0, 0
0, 0
0, 0
0, 0
0, 0
0, 0
0, 0
0, 0
0, 1
0, 0
0, 0
0, 0
0, 1
0, 0
0, 0
0, 0
0, 0
0, 0
1, 0
0, 0
0, 0
0, 0
0, 0
0, 0
0, 0
0, 0
0, 0
0, 0
0, 0
0, 0
0, 0
0, 0
0, 0
0, 0
0, 0
0, 0
0, 0
0, 0
0, 0
0, 0
0, 0
0, 0
0, 0
0, 0
0, 0
0, 0
0, 0
0, 0
1, 0
0, 0
0, 0
0, 0
0, 0
0, 0
0, 0
0, 0
0, 0
0, 0
0, 0
0, 0
0, 0
0, 0
0, 0
0, 0
0, 0
0, 0
0, 0
0, 0
1, 0
0, 0
0, 0
0, 0
0, 0
0, 0
0, 0
0, 0
0, 0
0, 0
0, 0
0, 0
0, 0
0, 1
0, 0
0, 0
0, 0
0, 0
0, 0
0, 0
0, 0
0, 0
0, 0
0, 0
0, 1
0, 1
0, 0
0, 0
0, 0
0, 0
0, 0
0, 0
0, 0
0, 0
0, 0
0, 0
0, 0
0, 0
0, 0
0, 0
0, 0
0, 0
0, 0
0, 0
0, 0
0, 0
0, 0
0, 0
0, 0
0, 0
0, 0
0, 0
0, 0
0, 0
0, 0
0, 0
0, 0
0, 0
0, 0
0, 0
0, 0
0, 0
0, 0
0, 0
0, 0
0, 1
0, 0
0, 0
0, 0
0, 0
0, 0
0, 0
0, 0
0, 0
0, 0
1, 0
0, 0
0, 0
0, 0
0, 0
0, 0
0, 0
0, 0
0, 0
0, 0
0, 0
0, 0
0, 0
0, 0
0, 0
0, 0
0, 0
0, 0
0, 0
0, 0
0, 0
0, 0
0, 0
0, 0
0, 0
0, 0
0, 0
0, 0
0, 0
0, 0
0, 0
0, 0
0, 0
0, 0
0, 0
0, 0
0, 0
0, 0
0, 0
0, 0
0, 0
0, 0
0, 0
0, 0
0, 0
0, 0
0, 0
0, 0
0, 0
0, 0
0, 0
0, 0
0, 0
0, 0
0, 0
0, 0
0, 0
0, 0
0, 0
0, 0
0, 0
0, 0
0, 0
0, 0
0, 0
0, 0
0, 0
0, 0
0, 0
0, 0
0, 0
0, 0
0, 0
0, 0
0, 0
0, 0
0, 0
0, 0
0, 0
0, 0
0, 0
0, 0
0, 0
0, 0
0, 0
0, 0
0, 0
0, 0
0, 0
0, 0
0, 0
0, 0
0, 0
0, 0
0, 0
0, 0
0, 0
0, 0
0, 0
0, 0
0, 0
0, 0
0, 0
0, 0
0, 0
0, 0
0, 0
0, 0
0, 0
0, 0
0, 0
0, 0
0, 0
0, 0
0, 0
0, 0
0, 0
0, 0
0, 0
0, 0
0, 0
0, 0
0, 0
0, 0
0, 0
0, 0
0, 0
0, 0
0, 0
0, 0
0, 0
0, 0
0, 0
0, 0
0, 0
0, 0
0, 0
0, 0
0, 0
0, 0
0, 0
0, 0
0, 0
0, 0
0, 0
0, 0
0, 0
0, 0
0, 0
0, 0
0, 0
0, 0
0, 0
0, 0
0, 0
0, 0
0, 0
0, 0
0, 0
0, 0
0, 0
0, 0
0, 0
0, 0
0, 0
0, 0
0, 0
0, 0
0, 0
0, 0
0, 0
0, 0
0, 0
0, 0
0, 0
0, 0
0, 0
0, 0
0, 0
0, 0
0, 0
0, 0
0, 0
0, 0
0, 0
0, 0
0, 0
0, 0
0, 0
0, 0
0, 0
0, 0
0, 0
0, 0
0, 0
0, 0
0, 0
0, 0
0, 0
0, 0
0, 0
0, 0
0, 0
0, 0
0, 0
0, 0
0, 0
0, 0
0, 0
0, 0
0, 0
0, 0
0, 0
0, 0
0, 0
0, 0
0, 0
0, 0
0, 0
0, 0
0, 0
0, 0
0, 0
0, 0
0, 0
0, 0
0, 0
0, 0
0, 0
0, 0
0, 0
0, 0
0, 0
0, 0
0, 0
0, 0
0, 0
0, 0
0, 0
0, 0
0, 0
0, 0
0, 0
0, 0
0, 0
0, 0
0, 0
0, 0
0, 0
0, 0
0, 0
0, 0
0, 0
0, 0
0, 0
0, 0
0, 0
0, 0
0, 0
0, 0
0, 0
0, 0
0, 0
0, 0
0, 0
0, 0
0, 0
0, 0
0, 0
0, 0
0, 0
0, 0
0, 0
0, 0
0, 0
0, 0
0, 0
0, 0
0, 0
0, 0
0, 0
0, 0
0, 0
0, 0
0, 0
0, 0
0, 0
0, 0
0, 0
0, 0
0, 0
0, 0
0, 0
0, 0
0, 0
#ENDOFDATA     end of spectrum data