File: host_upload/06-09-2024/ps_0852/dump3/ps__0852shot_2163.msa
#FORMAT      : EMSA/MAS spectral data file
#VERSION     : TC202v2.0 PIXL
#TITLE       : N/A
#DATE        :       Date in the format DD-MMM-YYYY, for example 07-JUL-2010
#TIME        :             The time of day at which the spectrum was recorded, in 24-hour format
#OWNER       : PIXL Flight Model       (PIXL will use this to indicate which instrument took the data.)
#NPOINTS     : 4096     Number of data points in the spectrum (This can be zero for configuration only files)
#NCOLUMNS    : 2     Number of data columns in the spectrum (This can be zero for configuration only files)
#XUNITS      : eV
#YUNITS      : COUNTS
#DATATYPE    : YY
#XPERCHAN    : 7.862, 7.881   eV per channel (separate by commas if more than one detector)
#OFFSET      : 18.5, -22.4         eV of first channel  (separate by commas if more than one detector
#SIGNALTYPE  : XRF
#YP_TEMP     : 2.396
#LIVETIME    : 8.5612, 8.56614   seconds (separate by commas if more than one detector)
#REALTIME    : 10, 10.0   seconds (separate by commas if more than one detector)
#SPECTRUM    : start of spectrum data
0, 0
0, 0
0, 0
0, 0
0, 0
0, 0
0, 0
0, 0
0, 0
0, 0
0, 0
0, 0
0, 0
0, 0
0, 0
0, 0
0, 0
0, 0
0, 0
0, 0
0, 0
0, 0
0, 0
0, 0
0, 0
0, 0
0, 0
0, 0
0, 0
1, 0
0, 0
0, 1
0, 0
1, 0
0, 1
0, 2
2, 3
0, 1
1, 2
1, 1
4, 1
2, 5
2, 4
1, 2
1, 1
4, 0
6, 0
2, 2
8, 7
10, 6
23, 17
35, 26
54, 42
63, 63
55, 70
73, 69
51, 47
37, 35
26, 20
11, 16
8, 7
3, 9
5, 5
3, 2
1, 3
7, 4
2, 9
7, 7
12, 17
31, 30
78, 69
102, 129
195, 221
223, 276
256, 320
299, 303
249, 277
210, 225
156, 159
90, 106
45, 50
30, 27
9, 27
10, 6
7, 6
7, 3
3, 3
3, 4
3, 3
6, 7
5, 4
14, 8
25, 26
63, 47
89, 110
163, 178
219, 255
317, 319
369, 357
341, 385
342, 306
245, 249
199, 199
137, 124
90, 100
54, 55
59, 47
55, 47
58, 59
78, 76
95, 123
115, 127
131, 142
140, 132
130, 126
95, 97
87, 92
63, 51
61, 52
45, 38
34, 37
30, 30
33, 28
29, 28
18, 18
16, 14
13, 13
18, 8
5, 8
18, 8
11, 10
5, 4
3, 4
3, 3
3, 6
4, 10
2, 6
7, 10
19, 10
21, 26
22, 26
19, 21
20, 23
24, 23
13, 17
11, 11
14, 9
9, 8
5, 2
1, 5
5, 2
6, 8
8, 7
14, 10
11, 13
18, 13
16, 24
12, 23
15, 16
19, 14
11, 14
6, 5
7, 5
8, 5
3, 1
2, 3
3, 3
2, 4
5, 4
3, 5
4, 2
6, 5
7, 4
9, 0
7, 5
4, 4
3, 7
4, 5
4, 4
0, 5
6, 1
5, 6
5, 4
0, 3
1, 6
6, 5
3, 8
6, 4
9, 13
6, 5
11, 10
6, 9
12, 9
8, 12
13, 8
13, 12
16, 22
14, 17
13, 24
22, 12
8, 9
9, 11
10, 10
5, 10
5, 11
5, 15
5, 15
4, 33
8, 26
7, 33
6, 41
4, 26
11, 26
3, 21
7, 26
7, 20
7, 17
3, 10
6, 5
6, 10
6, 7
4, 13
2, 6
3, 12
7, 7
9, 3
11, 11
14, 23
19, 14
20, 22
37, 25
42, 29
44, 41
48, 36
70, 48
56, 42
66, 27
51, 18
45, 22
31, 19
23, 13
23, 11
10, 11
19, 20
13, 15
18, 20
18, 23
36, 37
49, 59
50, 65
54, 56
70, 59
55, 59
56, 50
36, 24
30, 39
29, 25
16, 22
10, 17
17, 19
18, 18
27, 39
38, 48
88, 95
152, 199
237, 365
422, 602
759, 933
1077, 1336
1480, 1768
1758, 2140
2128, 2446
2273, 2458
2228, 2308
1998, 2026
1601, 1612
1290, 1046
870, 770
548, 481
363, 280
194, 148
85, 82
52, 49
27, 26
13, 21
16, 11
14, 17
14, 14
11, 16
18, 15
18, 24
27, 34
34, 45
44, 74
85, 119
127, 160
170, 198
251, 285
279, 317
336, 380
335, 359
311, 348
316, 275
238, 209
195, 161
114, 109
80, 74
51, 39
33, 31
15, 12
9, 11
6, 8
6, 16
10, 8
9, 8
14, 14
17, 14
21, 10
22, 12
21, 14
37, 16
51, 7
51, 2
53, 5
66, 5
38, 6
54, 2
48, 1
32, 3
23, 9
22, 3
10, 5
9, 1
10, 6
8, 1
11, 2
8, 4
12, 4
11, 3
6, 3
6, 3
9, 1
7, 4
5, 4
6, 2
4, 3
8, 3
3, 5
3, 3
5, 8
1, 7
2, 3
5, 8
6, 8
6, 3
6, 2
3, 6
4, 5
2, 3
5, 6
2, 1
7, 3
2, 3
4, 1
5, 4
4, 6
5, 5
2, 3
7, 6
7, 6
3, 3
6, 8
4, 12
5, 5
5, 3
6, 2
3, 1
7, 2
9, 7
7, 2
3, 1
7, 2
7, 1
7, 2
6, 3
5, 5
12, 3
3, 5
3, 8
2, 7
1, 4
6, 6
8, 2
2, 4
3, 9
2, 5
5, 7
3, 7
4, 9
2, 7
1, 10
3, 5
7, 6
2, 5
5, 4
5, 3
9, 3
3, 8
8, 5
5, 4
8, 9
5, 5
7, 3
4, 8
3, 17
3, 4
2, 14
8, 11
3, 12
2, 10
2, 9
5, 10
5, 10
7, 17
6, 8
7, 6
12, 10
9, 8
8, 3
5, 6
3, 4
5, 2
5, 0
3, 2
5, 4
5, 2
4, 1
3, 2
1, 9
4, 0
6, 5
3, 3
1, 5
4, 3
2, 6
3, 3
4, 10
2, 3
2, 6
3, 3
2, 6
3, 1
3, 5
1, 2
3, 3
4, 1
6, 6
1, 4
2, 5
4, 5
2, 6
2, 1
7, 3
4, 4
5, 2
6, 3
12, 3
6, 3
8, 0
12, 4
9, 4
6, 2
10, 3
8, 3
5, 3
7, 1
3, 2
3, 3
2, 2
2, 2
2, 3
2, 2
5, 3
2, 1
5, 3
4, 7
2, 1
0, 1
3, 3
0, 3
2, 1
3, 0
3, 1
2, 3
2, 1
1, 4
2, 3
1, 1
1, 2
3, 2
2, 6
2, 0
5, 0
2, 1
1, 2
2, 2
1, 3
4, 1
2, 0
1, 0
2, 0
3, 1
1, 3
0, 1
1, 2
1, 1
1, 1
1, 4
2, 1
1, 1
2, 4
1, 1
1, 2
1, 1
2, 2
4, 3
0, 2
1, 1
1, 2
3, 1
0, 1
2, 0
2, 5
1, 4
1, 1
1, 2
3, 1
4, 2
2, 2
3, 1
5, 9
5, 3
5, 1
2, 8
4, 1
5, 3
2, 2
3, 0
0, 2
2, 5
3, 2
1, 2
1, 3
1, 1
3, 1
4, 0
0, 1
1, 1
3, 3
1, 2
1, 2
3, 1
2, 2
0, 0
1, 0
2, 1
1, 3
1, 1
1, 2
4, 0
0, 2
2, 1
3, 3
1, 0
2, 1
2, 3
3, 5
1, 0
4, 0
4, 0
1, 1
1, 0
1, 2
4, 1
0, 2
0, 4
0, 1
0, 1
0, 1
1, 1
2, 2
3, 3
2, 1
0, 0
0, 1
0, 2
1, 1
2, 1
0, 2
2, 2
1, 2
2, 1
0, 1
0, 0
1, 2
3, 0
1, 0
2, 0
1, 1
2, 1
3, 3
1, 1
1, 1
0, 1
2, 0
0, 0
1, 1
0, 2
3, 1
3, 2
2, 0
0, 2
1, 1
2, 0
0, 0
0, 0
2, 0
1, 2
1, 1
0, 0
0, 0
1, 2
1, 3
0, 0
2, 0
1, 0
2, 0
1, 1
0, 1
1, 1
1, 0
0, 3
0, 0
1, 1
0, 2
2, 1
1, 0
1, 0
2, 0
0, 3
1, 1
0, 0
0, 0
1, 0
0, 0
1, 0
1, 0
1, 0
0, 0
1, 0
0, 1
0, 1
1, 1
1, 0
2, 1
1, 0
0, 3
0, 0
1, 0
1, 0
1, 0
1, 0
1, 1
0, 0
1, 0
0, 0
0, 0
1, 0
1, 1
1, 1
0, 1
0, 1
1, 1
0, 0
2, 0
0, 0
0, 1
0, 0
2, 0
0, 1
1, 1
0, 0
0, 1
0, 1
1, 0
0, 2
0, 0
0, 0
0, 0
1, 0
0, 0
1, 0
1, 0
0, 1
0, 1
1, 0
0, 1
1, 1
0, 0
0, 0
0, 0
0, 0
0, 1
1, 0
0, 0
0, 0
0, 0
1, 0
0, 0
1, 1
0, 0
0, 0
1, 0
0, 0
0, 1
0, 0
0, 0
0, 0
0, 1
1, 1
0, 0
0, 0
0, 0
0, 1
1, 0
0, 0
0, 1
0, 0
0, 0
1, 0
0, 0
0, 1
0, 0
1, 0
0, 0
0, 0
0, 0
0, 0
0, 0
0, 0
0, 0
0, 0
1, 0
0, 0
0, 0
0, 0
1, 0
1, 1
0, 0
1, 0
0, 0
0, 0
0, 0
0, 0
0, 0
0, 0
0, 0
2, 0
1, 0
0, 0
0, 1
1, 0
0, 1
1, 0
0, 1
1, 0
0, 0
0, 0
0, 0
1, 1
0, 0
1, 0
0, 0
0, 0
0, 0
0, 0
1, 0
0, 0
0, 0
0, 0
1, 0
1, 1
0, 1
0, 1
0, 0
0, 0
0, 0
0, 0
0, 0
0, 0
4, 0
0, 0
1, 1
1, 2
0, 2
0, 1
0, 0
0, 0
1, 0
0, 0
1, 1
0, 1
0, 0
0, 0
0, 0
0, 0
0, 0
0, 0
0, 0
0, 1
0, 0
1, 0
0, 0
0, 0
0, 0
0, 0
0, 0
0, 1
1, 0
0, 0
0, 0
0, 0
0, 0
1, 0
0, 0
0, 0
1, 0
0, 1
0, 0
0, 1
0, 0
0, 1
0, 0
0, 0
0, 0
0, 0
0, 0
0, 0
0, 0
0, 0
0, 0
0, 0
0, 1
0, 0
1, 1
1, 1
1, 0
0, 0
0, 0
0, 1
1, 1
0, 0
0, 0
1, 1
1, 0
1, 0
0, 0
0, 0
0, 0
0, 0
0, 0
0, 0
0, 0
0, 0
0, 0
0, 0
0, 0
0, 0
0, 0
0, 0
0, 0
0, 0
0, 0
0, 0
0, 1
0, 0
0, 0
0, 0
0, 0
0, 0
0, 0
0, 0
0, 1
0, 0
0, 0
0, 0
0, 1
0, 0
0, 0
0, 0
0, 0
0, 0
0, 0
0, 0
0, 0
0, 0
0, 0
0, 0
0, 0
0, 0
0, 0
0, 0
0, 0
0, 0
0, 0
0, 0
0, 0
0, 0
0, 0
0, 0
0, 0
0, 1
0, 0
0, 0
0, 0
0, 0
0, 0
0, 0
0, 0
0, 0
0, 0
0, 1
0, 0
0, 0
0, 0
0, 0
0, 0
0, 0
0, 0
0, 0
0, 0
0, 0
0, 0
0, 0
0, 0
0, 1
0, 0
0, 0
0, 0
0, 0
0, 0
0, 0
0, 0
0, 0
0, 0
0, 0
0, 0
0, 0
0, 0
0, 0
0, 0
0, 1
0, 0
0, 0
0, 0
0, 0
0, 0
0, 0
0, 0
0, 0
0, 0
0, 0
0, 0
0, 0
0, 0
0, 0
0, 0
0, 0
0, 0
0, 0
0, 0
0, 0
0, 0
0, 0
0, 0
0, 0
0, 0
0, 0
0, 0
0, 0
0, 0
0, 0
0, 0
0, 0
0, 0
0, 0
0, 0
0, 0
0, 0
0, 0
0, 0
0, 0
0, 0
0, 0
0, 0
0, 0
0, 0
0, 0
0, 0
0, 0
0, 0
0, 0
0, 0
0, 0
0, 0
0, 0
0, 0
0, 0
0, 0
0, 0
0, 0
0, 0
0, 0
0, 0
0, 0
0, 0
0, 0
0, 0
0, 0
0, 0
0, 0
0, 0
0, 0
0, 0
0, 0
0, 0
0, 0
0, 0
0, 0
0, 0
0, 0
0, 0
0, 0
0, 0
0, 0
0, 0
0, 0
0, 0
0, 0
0, 0
0, 0
0, 0
0, 0
0, 0
0, 0
0, 0
0, 0
0, 0
0, 0
0, 0
0, 0
0, 0
0, 0
0, 0
0, 0
0, 0
0, 0
0, 0
0, 0
0, 0
0, 0
0, 0
0, 0
0, 0
0, 0
0, 0
0, 0
0, 0
0, 0
0, 0
0, 0
0, 0
0, 0
0, 0
0, 0
0, 0
0, 0
0, 0
0, 0
0, 0
0, 0
0, 0
0, 0
0, 0
0, 0
0, 0
0, 0
0, 0
0, 0
0, 0
0, 0
0, 0
0, 0
0, 0
0, 0
0, 0
0, 0
0, 0
0, 0
0, 0
0, 0
0, 0
0, 0
0, 0
0, 0
0, 0
0, 0
0, 0
0, 0
0, 0
0, 0
0, 0
0, 0
0, 0
0, 0
0, 0
0, 0
0, 0
0, 0
0, 0
0, 0
0, 0
0, 0
0, 0
0, 0
0, 0
0, 0
0, 0
0, 0
0, 0
0, 0
0, 0
0, 0
0, 0
0, 0
0, 0
0, 0
0, 0
0, 0
0, 0
0, 0
0, 0
0, 0
0, 0
0, 0
0, 0
0, 0
0, 0
0, 0
0, 0
0, 0
0, 0
0, 0
0, 0
0, 0
0, 0
0, 0
0, 0
0, 0
0, 0
0, 0
0, 0
0, 0
0, 0
0, 0
0, 0
0, 0
0, 0
0, 0
0, 0
0, 0
0, 0
0, 0
0, 0
0, 0
0, 0
0, 0
0, 0
0, 0
0, 0
0, 0
0, 0
0, 0
0, 0
0, 0
0, 0
0, 0
0, 0
0, 0
0, 0
0, 0
0, 0
0, 0
0, 0
0, 0
0, 0
0, 0
0, 0
0, 0
0, 0
0, 0
0, 0
0, 0
0, 0
0, 0
0, 0
0, 0
0, 0
0, 0
0, 0
0, 0
0, 0
0, 0
0, 0
0, 0
0, 0
0, 0
0, 0
0, 0
0, 0
0, 0
0, 0
0, 0
0, 0
0, 0
0, 0
0, 0
0, 0
0, 0
0, 0
0, 0
0, 0
0, 0
0, 0
0, 0
0, 0
0, 0
0, 0
0, 0
0, 0
0, 0
0, 0
0, 0
0, 0
0, 0
0, 0
0, 0
0, 0
0, 0
0, 0
0, 0
0, 0
0, 0
0, 0
0, 0
0, 0
0, 0
0, 0
0, 0
0, 0
0, 0
0, 0
0, 0
0, 0
0, 0
0, 0
0, 0
0, 0
0, 0
0, 0
0, 0
0, 0
0, 0
0, 0
0, 0
0, 0
0, 0
0, 0
0, 0
0, 0
0, 0
0, 0
0, 0
0, 0
0, 0
0, 0
0, 0
0, 0
0, 0
0, 0
0, 0
0, 0
0, 0
0, 0
0, 0
0, 0
0, 0
0, 0
0, 0
0, 0
0, 0
0, 0
0, 0
0, 0
0, 0
0, 0
0, 0
0, 0
0, 0
0, 0
0, 0
0, 0
0, 0
0, 0
0, 0
0, 0
0, 0
0, 0
0, 0
0, 0
0, 0
0, 0
0, 0
0, 0
0, 0
0, 0
0, 0
0, 0
0, 0
0, 0
0, 0
0, 0
0, 0
0, 0
0, 0
0, 0
0, 0
0, 0
0, 0
0, 0
0, 0
0, 0
0, 0
0, 0
0, 0
0, 0
0, 0
0, 0
0, 0
0, 0
0, 0
0, 0
0, 0
0, 0
0, 0
0, 0
#ENDOFDATA     end of spectrum data