File: host_upload/06-09-2024/ps_0852/dump3/ps__0852shot_2411.msa
#FORMAT      : EMSA/MAS spectral data file
#VERSION     : TC202v2.0 PIXL
#TITLE       : N/A
#DATE        :       Date in the format DD-MMM-YYYY, for example 07-JUL-2010
#TIME        :             The time of day at which the spectrum was recorded, in 24-hour format
#OWNER       : PIXL Flight Model       (PIXL will use this to indicate which instrument took the data.)
#NPOINTS     : 4096     Number of data points in the spectrum (This can be zero for configuration only files)
#NCOLUMNS    : 2     Number of data columns in the spectrum (This can be zero for configuration only files)
#XUNITS      : eV
#YUNITS      : COUNTS
#DATATYPE    : YY
#XPERCHAN    : 7.862, 7.881   eV per channel (separate by commas if more than one detector)
#OFFSET      : 18.5, -22.4         eV of first channel  (separate by commas if more than one detector
#SIGNALTYPE  : XRF
#YP_TEMP     : 2.332
#LIVETIME    : 8.56789, 8.55556   seconds (separate by commas if more than one detector)
#REALTIME    : 10, 10.0   seconds (separate by commas if more than one detector)
#SPECTRUM    : start of spectrum data
0, 0
0, 0
0, 0
0, 0
0, 0
0, 0
0, 0
0, 0
0, 0
0, 0
0, 0
0, 0
0, 0
0, 0
0, 0
0, 0
0, 0
0, 0
0, 0
0, 0
0, 0
0, 0
0, 0
0, 0
0, 0
0, 0
0, 0
0, 0
0, 0
0, 0
0, 0
0, 0
0, 0
0, 0
0, 0
0, 0
0, 0
1, 0
0, 2
3, 1
0, 0
1, 4
2, 2
0, 0
1, 0
0, 1
5, 2
5, 2
7, 6
7, 15
27, 26
44, 34
62, 48
96, 73
84, 83
66, 77
69, 52
47, 41
24, 27
21, 15
7, 5
3, 9
4, 1
5, 1
3, 3
4, 5
3, 5
6, 10
10, 30
43, 51
101, 91
156, 168
259, 255
361, 371
423, 394
467, 437
396, 382
284, 300
241, 192
135, 127
78, 63
30, 33
15, 15
13, 8
8, 4
1, 4
1, 2
4, 2
0, 4
1, 2
2, 0
1, 4
1, 0
4, 3
6, 0
9, 1
7, 3
17, 5
10, 2
8, 5
11, 2
5, 4
3, 2
6, 3
7, 2
5, 2
9, 4
7, 7
8, 8
16, 12
19, 24
28, 24
33, 33
35, 53
33, 46
33, 45
33, 35
43, 40
32, 23
28, 29
31, 22
28, 27
29, 27
17, 25
19, 11
12, 14
3, 16
12, 11
9, 4
5, 3
6, 4
6, 3
3, 2
0, 3
5, 2
3, 6
4, 6
3, 3
1, 0
6, 2
2, 3
5, 3
4, 0
0, 3
4, 5
2, 0
0, 3
5, 1
2, 3
2, 7
2, 4
4, 7
2, 5
7, 9
7, 14
11, 18
8, 24
19, 22
7, 27
10, 23
10, 38
4, 23
1, 20
3, 8
5, 11
3, 7
0, 6
3, 8
2, 4
7, 6
4, 3
5, 4
4, 3
2, 6
6, 5
5, 6
2, 14
3, 12
5, 18
3, 19
4, 15
7, 7
3, 11
4, 8
8, 6
2, 3
5, 7
4, 4
7, 2
9, 9
7, 8
11, 6
12, 20
8, 8
13, 16
16, 21
18, 17
15, 13
20, 18
14, 9
9, 10
16, 18
7, 2
10, 5
6, 7
5, 3
6, 6
3, 5
3, 2
10, 8
6, 5
12, 4
12, 9
13, 5
10, 13
11, 10
22, 9
18, 11
14, 8
15, 11
11, 9
9, 21
14, 19
9, 21
14, 17
12, 26
16, 21
14, 31
7, 24
8, 29
18, 30
14, 38
20, 30
12, 30
15, 24
18, 31
15, 16
11, 15
12, 11
12, 12
18, 7
17, 10
21, 6
21, 9
19, 11
30, 22
36, 31
41, 53
60, 43
51, 64
62, 59
65, 63
50, 56
56, 63
41, 48
37, 23
32, 26
20, 26
24, 15
17, 21
18, 27
29, 24
30, 60
70, 100
160, 211
299, 344
432, 626
779, 984
1130, 1336
1573, 1833
1956, 2184
2342, 2591
2318, 2510
2395, 2373
2066, 2028
1729, 1553
1313, 1104
947, 739
575, 462
345, 271
208, 147
112, 75
51, 48
32, 32
29, 24
16, 20
18, 27
18, 12
14, 20
18, 24
22, 31
33, 44
39, 67
58, 88
107, 117
141, 176
214, 231
265, 292
278, 326
337, 350
356, 389
336, 363
322, 297
253, 214
200, 177
120, 98
84, 67
62, 48
34, 29
27, 11
25, 10
20, 12
29, 10
22, 10
17, 12
27, 13
18, 11
29, 20
28, 17
15, 14
15, 14
19, 18
16, 7
13, 12
7, 7
10, 3
2, 4
5, 1
3, 2
5, 5
3, 6
3, 5
5, 5
6, 7
7, 6
7, 8
4, 4
5, 6
8, 3
4, 4
6, 4
5, 8
6, 4
7, 3
3, 3
8, 2
7, 4
5, 7
9, 7
4, 4
8, 0
6, 4
7, 5
5, 3
4, 3
0, 2
7, 6
5, 3
3, 3
3, 3
3, 5
5, 4
7, 2
5, 4
4, 3
5, 5
4, 7
3, 7
6, 5
3, 5
5, 1
2, 8
3, 3
2, 6
3, 8
4, 4
6, 7
1, 2
1, 8
6, 7
1, 6
7, 1
4, 6
3, 6
7, 2
6, 6
5, 8
7, 3
5, 7
6, 5
7, 4
11, 5
8, 4
3, 3
6, 4
5, 5
5, 3
7, 4
3, 5
4, 1
3, 3
5, 5
5, 3
1, 8
4, 4
0, 4
2, 5
4, 6
6, 12
3, 6
3, 5
5, 7
1, 4
4, 7
3, 2
2, 1
4, 5
3, 2
3, 7
4, 2
3, 7
4, 2
1, 1
4, 1
2, 6
3, 7
4, 3
3, 5
4, 8
6, 5
1, 6
2, 10
1, 16
1, 10
1, 11
2, 9
2, 13
3, 9
3, 11
2, 8
4, 9
7, 9
3, 7
3, 8
2, 5
3, 6
0, 3
2, 2
0, 2
2, 4
3, 2
2, 2
2, 3
2, 1
3, 3
2, 1
1, 2
5, 2
4, 4
3, 2
2, 2
3, 1
2, 5
0, 2
1, 4
2, 2
3, 3
3, 5
1, 6
3, 5
0, 4
0, 1
3, 1
5, 0
6, 2
3, 1
5, 2
3, 3
1, 1
1, 3
2, 2
1, 3
2, 1
1, 3
0, 2
3, 2
3, 2
5, 2
3, 2
1, 3
5, 0
3, 1
1, 1
2, 2
1, 2
1, 3
0, 2
5, 1
4, 2
1, 2
1, 4
2, 2
3, 2
2, 1
2, 3
1, 4
1, 1
0, 4
2, 4
1, 1
2, 4
4, 3
2, 2
2, 2
1, 0
0, 2
5, 2
2, 2
1, 3
3, 3
4, 3
3, 2
2, 4
3, 1
2, 2
4, 1
5, 4
6, 2
0, 0
6, 0
4, 3
5, 2
4, 1
2, 4
5, 3
8, 1
5, 4
5, 6
4, 5
8, 5
4, 7
3, 12
6, 6
6, 3
3, 3
4, 4
4, 2
3, 1
0, 0
2, 2
5, 1
0, 1
1, 1
1, 2
1, 1
1, 0
0, 4
1, 1
1, 1
2, 1
3, 1
3, 3
2, 0
2, 1
1, 2
1, 0
2, 1
3, 4
4, 2
0, 4
1, 4
3, 2
1, 2
2, 1
4, 1
0, 0
4, 1
2, 2
0, 0
3, 1
1, 4
0, 0
0, 1
1, 2
1, 1
1, 4
0, 1
2, 0
2, 2
3, 2
0, 2
0, 0
0, 1
0, 0
0, 2
0, 2
1, 2
2, 3
0, 1
1, 0
3, 1
1, 1
0, 3
3, 1
4, 0
0, 1
2, 0
1, 1
6, 0
0, 0
0, 1
2, 0
1, 1
1, 3
2, 1
0, 0
0, 0
0, 2
2, 1
1, 1
3, 2
2, 0
1, 2
0, 0
0, 1
2, 1
0, 0
0, 2
1, 0
0, 0
0, 0
1, 0
0, 0
0, 2
2, 2
1, 1
0, 0
2, 1
1, 1
3, 0
0, 3
1, 1
2, 0
2, 1
2, 0
1, 1
0, 0
1, 0
1, 0
1, 1
0, 0
2, 2
0, 0
1, 0
0, 0
0, 1
0, 0
1, 0
0, 0
0, 1
4, 0
0, 0
0, 0
0, 0
1, 1
1, 0
1, 0
1, 1
0, 0
0, 0
0, 1
0, 0
0, 2
0, 0
1, 0
0, 0
0, 0
0, 0
0, 1
2, 0
0, 0
0, 0
2, 1
0, 1
1, 1
1, 0
1, 1
0, 1
1, 0
0, 0
1, 1
2, 0
0, 1
0, 0
0, 0
1, 0
0, 1
0, 0
0, 0
1, 0
0, 0
1, 0
0, 0
1, 1
0, 1
0, 1
0, 1
1, 1
0, 1
3, 1
1, 0
0, 1
0, 2
1, 0
0, 0
0, 1
0, 2
0, 0
0, 0
0, 0
0, 0
0, 0
1, 0
0, 1
0, 0
0, 0
0, 0
0, 0
0, 2
1, 0
1, 0
0, 0
0, 1
0, 0
0, 0
0, 0
1, 1
0, 0
2, 1
0, 0
1, 1
1, 0
0, 0
1, 0
1, 0
1, 0
0, 0
0, 2
0, 2
1, 0
0, 1
0, 0
0, 0
1, 0
0, 0
0, 0
1, 0
0, 1
0, 0
0, 0
0, 0
0, 0
0, 0
0, 0
0, 0
0, 0
0, 0
0, 0
0, 0
0, 2
0, 0
2, 0
0, 0
0, 0
1, 0
0, 0
0, 0
1, 1
0, 1
2, 1
0, 0
0, 0
0, 0
0, 0
0, 1
0, 0
2, 0
1, 0
1, 0
0, 0
2, 1
0, 0
1, 0
0, 1
0, 0
1, 1
1, 0
0, 0
2, 0
1, 0
0, 0
0, 0
1, 0
0, 0
0, 0
1, 0
1, 0
0, 0
0, 0
0, 0
0, 1
0, 0
0, 0
0, 0
0, 0
0, 0
0, 0
0, 0
0, 0
0, 0
0, 0
0, 0
0, 0
0, 1
0, 0
0, 0
0, 0
0, 0
0, 0
0, 0
0, 0
0, 0
0, 0
0, 1
0, 0
0, 0
0, 0
0, 0
0, 0
0, 0
0, 0
1, 0
0, 1
0, 0
0, 0
0, 0
0, 0
0, 0
0, 0
0, 0
0, 0
0, 0
1, 0
0, 0
0, 0
0, 0
0, 0
0, 0
1, 0
1, 0
0, 0
2, 0
0, 0
0, 0
1, 0
0, 0
0, 0
0, 0
0, 0
0, 0
0, 0
0, 0
1, 0
0, 0
0, 0
0, 0
0, 0
0, 0
0, 0
0, 0
1, 0
0, 0
1, 0
0, 0
1, 0
0, 1
0, 0
0, 1
0, 0
0, 0
0, 0
0, 0
0, 0
0, 0
0, 1
0, 0
0, 0
0, 0
0, 0
0, 1
0, 0
0, 0
0, 0
0, 0
0, 0
0, 0
0, 0
0, 0
0, 0
0, 0
0, 0
0, 0
0, 0
0, 0
0, 0
0, 0
0, 0
0, 0
0, 0
0, 0
0, 0
0, 0
0, 0
0, 0
0, 0
0, 0
0, 0
0, 0
0, 0
0, 0
0, 0
0, 1
0, 0
0, 0
0, 0
0, 0
0, 0
0, 0
0, 0
0, 0
0, 0
0, 0
0, 0
0, 0
0, 0
0, 0
0, 0
0, 0
0, 0
0, 0
1, 0
0, 0
0, 0
0, 0
1, 0
0, 0
0, 0
0, 0
0, 0
0, 0
0, 0
0, 0
0, 0
0, 1
0, 0
0, 0
0, 0
0, 0
0, 0
0, 0
1, 0
0, 0
0, 0
0, 0
0, 0
0, 0
0, 0
0, 0
0, 0
0, 0
0, 0
0, 0
0, 0
0, 0
0, 0
0, 0
0, 0
0, 0
0, 0
0, 0
0, 0
0, 0
0, 0
0, 0
0, 0
0, 0
0, 0
0, 0
0, 0
0, 0
0, 0
0, 0
0, 0
0, 0
0, 0
0, 0
0, 0
0, 0
0, 0
0, 0
0, 0
0, 1
0, 0
0, 0
0, 0
0, 0
0, 0
0, 0
0, 0
0, 0
0, 0
0, 0
0, 0
0, 0
0, 0
0, 0
0, 0
0, 0
0, 0
0, 0
0, 0
0, 0
0, 0
0, 0
0, 0
0, 0
0, 0
0, 0
0, 0
0, 0
0, 0
0, 0
0, 0
0, 0
0, 0
0, 0
0, 0
0, 0
0, 0
0, 0
0, 0
0, 0
0, 0
0, 0
0, 0
0, 0
0, 0
0, 0
0, 0
0, 0
0, 0
0, 0
0, 0
0, 0
0, 0
0, 0
0, 0
0, 0
0, 0
0, 0
0, 0
0, 0
0, 0
0, 0
0, 0
0, 0
0, 0
0, 0
0, 0
0, 0
0, 0
0, 0
0, 0
0, 0
0, 0
0, 0
0, 0
0, 0
0, 0
0, 0
0, 0
0, 0
0, 0
0, 0
0, 0
0, 0
0, 0
0, 0
0, 0
0, 0
0, 0
0, 0
0, 0
0, 0
0, 0
0, 0
0, 0
0, 0
0, 0
0, 0
0, 0
0, 0
0, 0
0, 0
0, 0
0, 0
0, 0
0, 0
0, 0
0, 0
0, 0
0, 0
0, 0
0, 0
0, 0
0, 0
0, 0
0, 0
0, 0
0, 0
0, 0
0, 0
0, 0
0, 0
0, 0
0, 0
0, 0
0, 0
0, 0
0, 0
0, 0
0, 0
0, 0
0, 0
0, 0
0, 0
0, 0
0, 0
0, 0
0, 0
0, 0
0, 0
0, 0
0, 0
0, 0
0, 0
0, 0
0, 0
0, 0
0, 0
0, 0
0, 0
0, 0
0, 0
0, 0
0, 0
0, 0
0, 0
0, 0
0, 0
0, 0
0, 0
0, 0
0, 0
0, 0
0, 0
0, 0
0, 0
0, 0
0, 0
0, 0
0, 0
0, 0
0, 0
0, 0
0, 0
0, 0
0, 0
0, 0
0, 0
0, 0
0, 0
0, 0
0, 0
0, 0
0, 0
0, 0
0, 0
0, 0
0, 0
0, 0
0, 0
0, 0
0, 0
0, 0
0, 0
0, 0
0, 0
0, 0
0, 0
0, 0
0, 0
0, 0
0, 0
0, 0
0, 0
0, 0
0, 0
0, 0
0, 0
0, 0
0, 0
0, 0
0, 0
0, 0
0, 0
0, 0
0, 0
0, 0
0, 0
0, 0
0, 0
0, 0
0, 0
0, 0
0, 0
0, 0
0, 0
0, 0
0, 0
0, 0
0, 0
0, 0
0, 0
0, 0
0, 0
0, 0
0, 0
0, 0
0, 0
0, 0
0, 0
0, 0
0, 0
0, 0
0, 0
0, 0
0, 0
0, 0
0, 0
0, 0
0, 0
0, 0
0, 0
0, 0
0, 0
0, 0
0, 0
0, 0
0, 0
0, 0
0, 0
0, 0
0, 0
0, 0
0, 0
0, 0
0, 0
0, 0
0, 0
0, 0
0, 0
0, 0
0, 0
0, 0
0, 0
0, 0
0, 0
0, 0
0, 0
0, 0
0, 0
0, 0
0, 0
0, 0
0, 0
0, 0
0, 0
0, 0
0, 0
0, 0
0, 0
0, 0
0, 0
0, 0
0, 0
0, 0
0, 0
0, 0
0, 0
0, 0
0, 0
0, 0
0, 0
0, 0
0, 0
0, 0
0, 0
0, 0
0, 0
0, 0
0, 0
0, 0
0, 0
0, 0
0, 0
0, 0
0, 0
0, 0
0, 0
0, 0
0, 0
0, 0
0, 0
0, 0
0, 0
0, 0
0, 0
0, 0
0, 0
0, 0
0, 0
0, 0
0, 0
0, 0
0, 0
0, 0
0, 0
0, 0
0, 0
0, 0
0, 0
0, 0
0, 0
0, 0
0, 0
0, 0
0, 0
0, 0
0, 0
0, 0
0, 0
0, 0
0, 0
0, 0
0, 0
#ENDOFDATA     end of spectrum data