File: host_upload/06-09-2024/ps_0852/dump3/ps__0852shot_2118.msa
#FORMAT      : EMSA/MAS spectral data file
#VERSION     : TC202v2.0 PIXL
#TITLE       : N/A
#DATE        :       Date in the format DD-MMM-YYYY, for example 07-JUL-2010
#TIME        :             The time of day at which the spectrum was recorded, in 24-hour format
#OWNER       : PIXL Flight Model       (PIXL will use this to indicate which instrument took the data.)
#NPOINTS     : 4096     Number of data points in the spectrum (This can be zero for configuration only files)
#NCOLUMNS    : 2     Number of data columns in the spectrum (This can be zero for configuration only files)
#XUNITS      : eV
#YUNITS      : COUNTS
#DATATYPE    : YY
#XPERCHAN    : 7.862, 7.881   eV per channel (separate by commas if more than one detector)
#OFFSET      : 18.5, -22.4         eV of first channel  (separate by commas if more than one detector
#SIGNALTYPE  : XRF
#YP_TEMP     : 2.267
#LIVETIME    : 8.55328, 8.5981   seconds (separate by commas if more than one detector)
#REALTIME    : 10, 10.0   seconds (separate by commas if more than one detector)
#SPECTRUM    : start of spectrum data
0, 0
0, 0
0, 0
0, 0
0, 0
0, 0
0, 0
0, 0
0, 0
0, 0
0, 0
0, 0
0, 0
0, 0
0, 0
0, 0
0, 0
0, 0
0, 0
0, 0
0, 0
0, 0
0, 0
0, 0
0, 0
0, 0
0, 0
0, 0
0, 0
0, 0
0, 0
0, 0
0, 0
0, 0
0, 2
1, 0
1, 0
0, 1
2, 0
2, 0
0, 0
0, 1
2, 2
1, 2
1, 1
2, 0
1, 2
2, 3
9, 4
12, 9
30, 29
37, 40
54, 68
71, 66
85, 90
78, 71
62, 45
47, 38
31, 25
18, 13
7, 6
7, 2
2, 8
5, 0
3, 1
6, 7
5, 6
10, 8
18, 18
47, 56
91, 92
158, 165
264, 273
333, 359
402, 429
420, 440
345, 365
264, 259
201, 203
127, 118
63, 93
37, 37
19, 28
10, 6
5, 2
5, 1
0, 0
1, 6
4, 3
1, 1
1, 1
1, 1
3, 2
3, 7
9, 7
6, 7
11, 18
15, 19
16, 13
13, 20
16, 15
12, 11
16, 12
5, 8
4, 8
7, 9
8, 9
9, 12
21, 6
17, 19
23, 20
20, 29
25, 21
37, 28
32, 30
37, 41
43, 43
50, 39
35, 34
29, 21
34, 20
28, 21
25, 27
16, 15
15, 18
15, 15
11, 14
15, 9
7, 6
8, 7
1, 5
1, 5
2, 6
7, 6
2, 0
1, 4
1, 1
2, 3
4, 4
4, 1
1, 2
1, 2
4, 4
0, 3
4, 2
3, 2
2, 4
1, 5
0, 1
5, 3
13, 7
7, 3
12, 9
21, 8
14, 11
23, 17
28, 13
26, 21
20, 30
23, 19
17, 13
11, 10
7, 11
11, 5
9, 5
4, 7
7, 3
3, 7
8, 5
7, 6
7, 9
8, 6
6, 5
5, 6
4, 10
3, 12
6, 12
11, 16
13, 12
5, 10
8, 19
4, 8
4, 11
3, 12
2, 6
4, 5
8, 5
5, 5
9, 10
15, 12
7, 7
12, 11
19, 16
9, 13
16, 16
11, 14
14, 27
8, 26
10, 23
11, 24
13, 20
10, 20
10, 17
11, 14
9, 14
3, 9
2, 8
3, 9
13, 5
4, 5
5, 10
10, 5
9, 8
10, 8
16, 13
11, 9
18, 11
20, 10
14, 7
18, 9
29, 8
24, 10
36, 5
48, 13
38, 6
50, 8
61, 9
48, 14
56, 12
55, 17
52, 14
59, 33
50, 20
35, 16
38, 9
18, 18
26, 14
19, 12
11, 15
15, 14
11, 12
14, 12
11, 10
13, 10
10, 13
15, 24
26, 21
28, 47
37, 55
39, 59
62, 71
66, 71
65, 68
53, 56
43, 50
37, 40
35, 27
24, 30
21, 23
22, 15
22, 24
24, 35
45, 48
69, 106
167, 194
256, 380
418, 619
713, 1018
1049, 1431
1440, 1864
1821, 2142
2129, 2418
2211, 2540
2216, 2403
2012, 2013
1565, 1620
1189, 1096
903, 735
587, 462
359, 270
194, 156
101, 95
58, 47
33, 39
31, 31
20, 22
36, 23
30, 19
24, 26
26, 26
32, 31
40, 46
62, 68
68, 83
110, 130
144, 182
184, 271
209, 354
295, 389
315, 373
351, 395
323, 361
286, 328
234, 259
206, 192
142, 141
92, 84
71, 45
30, 46
25, 21
12, 9
13, 10
3, 10
11, 11
11, 13
14, 19
11, 17
14, 13
13, 15
14, 21
17, 14
14, 5
5, 7
10, 9
4, 7
11, 4
3, 10
3, 5
1, 4
4, 1
4, 2
3, 7
3, 6
3, 6
3, 6
2, 5
4, 3
4, 7
3, 8
2, 7
4, 8
5, 9
4, 5
4, 8
5, 10
2, 9
6, 6
4, 8
3, 4
5, 9
5, 9
5, 9
11, 6
4, 5
9, 8
5, 9
3, 12
8, 5
10, 8
5, 4
7, 10
8, 1
5, 2
4, 6
6, 1
1, 7
3, 7
3, 9
4, 6
7, 4
3, 5
1, 1
9, 4
1, 8
4, 8
3, 5
1, 3
6, 5
9, 3
7, 6
7, 8
5, 3
6, 7
8, 8
6, 9
2, 2
4, 5
6, 8
4, 7
7, 5
4, 12
4, 7
1, 7
6, 9
6, 7
3, 14
1, 12
1, 8
2, 6
2, 6
2, 7
3, 5
4, 4
3, 5
5, 8
4, 3
1, 7
4, 3
3, 6
4, 6
7, 1
6, 6
3, 1
3, 5
5, 9
3, 3
7, 1
7, 6
5, 4
3, 4
4, 1
4, 2
8, 3
3, 2
7, 3
2, 7
5, 6
5, 2
2, 5
3, 3
8, 4
4, 2
8, 2
8, 3
4, 0
3, 3
9, 2
8, 2
5, 3
8, 5
5, 1
7, 1
7, 3
2, 4
2, 7
4, 4
2, 4
3, 3
9, 1
2, 5
2, 3
3, 2
0, 2
2, 2
3, 1
5, 6
2, 2
3, 3
0, 2
2, 5
3, 0
6, 3
1, 4
3, 2
2, 5
3, 0
3, 0
2, 2
0, 4
2, 2
1, 2
4, 5
1, 2
1, 2
3, 1
1, 2
0, 3
3, 0
2, 3
3, 4
1, 4
2, 5
6, 3
1, 5
1, 3
2, 2
3, 3
1, 3
0, 4
5, 3
4, 6
2, 2
3, 4
2, 3
0, 4
1, 9
2, 6
3, 3
2, 4
0, 5
2, 4
1, 1
2, 1
3, 2
4, 1
0, 3
2, 1
1, 3
1, 0
2, 2
1, 1
2, 3
1, 2
3, 2
0, 2
2, 3
1, 2
0, 2
2, 5
1, 2
1, 6
2, 0
3, 1
3, 3
0, 1
1, 2
3, 2
1, 3
1, 3
0, 1
1, 3
3, 1
1, 0
2, 1
4, 2
2, 2
1, 3
2, 2
5, 6
3, 3
1, 7
2, 3
3, 1
5, 7
4, 4
4, 5
2, 4
3, 2
2, 2
0, 2
1, 4
0, 0
0, 0
0, 0
0, 1
2, 2
1, 1
1, 3
2, 0
1, 1
1, 0
1, 2
2, 3
2, 2
0, 1
1, 2
3, 4
4, 4
1, 0
1, 3
0, 3
0, 3
3, 2
1, 1
1, 2
1, 1
2, 2
3, 2
3, 3
3, 0
1, 1
1, 0
2, 1
0, 0
1, 1
1, 2
0, 3
3, 1
0, 2
1, 2
1, 0
1, 1
0, 0
2, 1
2, 1
0, 0
4, 3
0, 0
0, 2
0, 1
1, 2
1, 1
0, 1
0, 2
1, 2
0, 1
0, 0
1, 2
0, 1
2, 0
5, 0
2, 1
1, 0
1, 1
2, 1
0, 1
1, 1
0, 0
1, 0
0, 1
0, 1
4, 0
2, 1
0, 0
1, 0
0, 1
0, 0
0, 1
0, 1
1, 0
1, 3
0, 1
1, 1
0, 1
0, 1
0, 0
0, 0
1, 0
0, 2
1, 0
0, 1
0, 1
0, 1
0, 1
3, 1
0, 1
0, 0
0, 2
0, 0
0, 2
0, 3
0, 0
1, 1
1, 1
1, 0
0, 1
0, 0
2, 2
0, 1
0, 1
0, 1
2, 2
0, 2
1, 1
4, 1
0, 0
1, 1
3, 1
0, 0
2, 0
1, 0
1, 0
1, 1
0, 1
0, 0
0, 0
0, 1
1, 0
1, 3
2, 1
1, 0
1, 1
1, 0
0, 0
0, 0
0, 1
0, 0
0, 0
0, 3
2, 0
1, 1
0, 0
1, 0
0, 0
0, 0
0, 0
0, 2
0, 1
0, 0
0, 1
1, 0
0, 0
1, 0
1, 0
0, 0
0, 0
0, 0
0, 0
0, 0
0, 0
3, 0
0, 1
0, 0
0, 1
1, 0
1, 0
0, 1
0, 0
0, 0
1, 0
0, 0
0, 0
0, 1
1, 0
1, 0
1, 0
1, 0
0, 0
1, 0
0, 0
0, 0
1, 0
0, 0
0, 0
0, 0
1, 0
1, 0
1, 0
1, 1
0, 0
0, 0
0, 1
0, 1
0, 1
0, 0
0, 0
0, 0
1, 1
0, 2
0, 0
0, 0
0, 0
0, 1
0, 0
0, 1
0, 1
0, 1
0, 0
0, 0
0, 0
0, 0
1, 0
1, 0
1, 0
0, 0
0, 1
0, 0
0, 0
0, 0
1, 0
1, 0
0, 0
0, 0
0, 1
0, 0
0, 1
0, 0
2, 2
0, 0
0, 0
0, 0
1, 1
0, 0
0, 0
1, 0
0, 0
0, 0
0, 1
0, 0
0, 0
0, 0
1, 0
0, 0
0, 0
0, 0
0, 0
0, 0
1, 0
0, 1
1, 0
0, 0
0, 0
0, 0
0, 0
0, 1
0, 0
0, 0
2, 1
0, 0
0, 0
0, 0
0, 0
1, 0
0, 0
1, 0
0, 0
0, 0
0, 0
1, 0
0, 0
1, 1
0, 1
0, 0
0, 0
0, 0
0, 1
0, 0
1, 0
0, 0
0, 0
0, 0
0, 0
0, 0
0, 1
0, 0
0, 0
0, 0
0, 0
0, 0
0, 0
0, 0
0, 1
0, 0
0, 0
0, 0
0, 0
0, 0
0, 0
1, 0
0, 0
0, 0
0, 0
0, 0
0, 0
0, 0
0, 0
0, 0
0, 0
0, 0
0, 1
0, 0
0, 0
0, 0
0, 0
0, 0
1, 0
0, 0
1, 0
0, 0
0, 0
0, 0
0, 0
0, 0
0, 0
0, 0
0, 1
0, 0
0, 0
1, 0
0, 0
0, 0
0, 0
0, 0
0, 0
0, 0
0, 0
0, 0
0, 0
0, 0
0, 0
0, 0
0, 0
0, 0
0, 0
0, 0
1, 0
0, 0
0, 0
0, 0
0, 0
0, 0
0, 0
0, 0
0, 0
0, 0
0, 0
0, 0
0, 0
0, 1
0, 0
0, 0
0, 0
0, 0
0, 0
0, 0
0, 0
0, 0
0, 0
0, 0
1, 0
0, 0
0, 0
0, 0
0, 0
0, 0
0, 0
0, 0
0, 0
0, 0
0, 0
0, 0
0, 0
0, 0
0, 0
0, 0
0, 0
0, 0
0, 0
0, 0
0, 0
0, 0
0, 0
0, 0
0, 0
0, 0
0, 0
0, 0
0, 0
0, 0
0, 0
0, 0
0, 0
0, 0
0, 0
0, 0
0, 0
0, 0
0, 0
0, 1
0, 0
0, 0
1, 0
0, 0
0, 0
0, 0
1, 0
0, 0
0, 0
0, 0
0, 0
0, 0
0, 0
0, 0
0, 0
0, 0
0, 0
0, 0
0, 0
0, 0
0, 0
0, 0
0, 0
0, 0
0, 0
0, 0
0, 0
0, 0
0, 0
0, 0
0, 0
0, 0
0, 0
0, 0
0, 0
0, 0
0, 1
0, 0
0, 0
0, 0
0, 0
0, 0
0, 0
0, 0
0, 0
0, 0
0, 0
0, 0
0, 0
0, 0
0, 0
0, 0
0, 0
0, 0
0, 0
0, 0
0, 0
0, 0
0, 0
0, 0
0, 0
0, 0
0, 0
0, 0
0, 0
0, 0
0, 0
0, 0
0, 0
0, 0
0, 0
0, 0
0, 0
0, 0
0, 0
0, 0
0, 0
0, 0
0, 0
0, 0
0, 0
0, 0
0, 0
0, 0
0, 0
0, 0
0, 0
0, 0
0, 0
0, 0
0, 0
0, 0
0, 0
0, 0
0, 0
0, 0
0, 0
0, 0
0, 0
0, 0
0, 0
0, 0
0, 0
0, 0
0, 0
0, 0
0, 0
0, 0
0, 0
0, 0
0, 0
0, 0
0, 0
0, 0
0, 0
0, 0
0, 0
0, 0
0, 0
0, 0
0, 0
0, 0
0, 0
0, 0
0, 0
0, 0
0, 0
0, 0
0, 0
0, 0
0, 0
0, 0
0, 0
0, 0
0, 0
0, 0
0, 0
0, 0
0, 0
0, 0
0, 0
0, 0
0, 0
0, 0
0, 0
0, 0
0, 0
0, 0
0, 0
0, 0
0, 0
0, 0
0, 0
0, 0
0, 0
0, 0
0, 0
0, 0
0, 0
0, 0
0, 0
0, 0
0, 0
0, 0
0, 0
0, 0
0, 0
0, 0
0, 0
0, 0
0, 0
0, 0
0, 0
0, 0
0, 0
0, 0
0, 0
0, 0
0, 0
0, 0
0, 0
0, 0
0, 0
0, 0
0, 0
0, 0
0, 0
0, 0
0, 0
0, 0
0, 0
0, 0
0, 0
0, 0
0, 0
0, 0
0, 0
0, 0
0, 0
0, 0
0, 0
0, 0
0, 0
0, 0
0, 0
0, 0
0, 0
0, 0
0, 0
0, 0
0, 0
0, 0
0, 0
0, 0
0, 0
0, 0
0, 0
0, 0
0, 0
0, 0
0, 0
0, 0
0, 0
0, 0
0, 0
0, 0
0, 0
0, 0
0, 0
0, 0
0, 0
0, 0
0, 0
0, 0
0, 0
0, 0
0, 0
0, 0
0, 0
0, 0
0, 0
0, 0
0, 0
0, 0
0, 0
0, 0
0, 0
0, 0
0, 0
0, 0
0, 0
0, 0
0, 0
0, 0
0, 0
0, 0
0, 0
0, 0
0, 0
0, 0
0, 0
0, 0
0, 0
0, 0
0, 0
0, 0
0, 0
0, 0
0, 0
0, 0
0, 0
0, 0
0, 0
0, 0
0, 0
0, 0
0, 0
0, 0
0, 0
0, 0
0, 0
0, 0
0, 0
0, 0
0, 0
0, 0
0, 0
0, 0
0, 0
0, 0
0, 0
0, 0
0, 0
0, 0
0, 0
0, 0
0, 0
0, 0
0, 0
0, 0
0, 0
0, 0
0, 0
0, 0
0, 0
0, 0
0, 0
0, 0
0, 0
0, 0
0, 0
0, 0
0, 0
0, 0
0, 0
0, 0
0, 0
0, 0
0, 0
0, 0
0, 0
0, 0
0, 0
0, 0
0, 0
0, 0
0, 0
0, 0
0, 0
0, 0
0, 0
0, 0
0, 0
0, 0
0, 0
0, 0
0, 0
0, 0
0, 0
0, 0
0, 0
0, 0
0, 0
0, 0
0, 0
0, 0
0, 0
0, 0
0, 0
0, 0
0, 0
0, 0
0, 0
0, 0
0, 0
0, 0
0, 0
0, 0
0, 0
0, 0
0, 0
0, 0
0, 0
0, 0
0, 0
0, 0
0, 0
0, 0
0, 0
0, 0
0, 0
0, 0
0, 0
0, 0
0, 0
0, 0
0, 0
0, 0
0, 0
0, 0
0, 0
0, 0
0, 0
0, 0
0, 0
0, 0
0, 0
0, 0
0, 0
0, 0
0, 0
0, 0
0, 0
0, 0
0, 0
0, 0
0, 0
0, 0
0, 0
0, 0
0, 0
0, 0
0, 0
0, 0
0, 0
0, 0
0, 0
#ENDOFDATA     end of spectrum data