File: host_upload/06-09-2024/ps_0852/dump3/ps__0852shot_2048.msa
#FORMAT      : EMSA/MAS spectral data file
#VERSION     : TC202v2.0 PIXL
#TITLE       : N/A
#DATE        :       Date in the format DD-MMM-YYYY, for example 07-JUL-2010
#TIME        :             The time of day at which the spectrum was recorded, in 24-hour format
#OWNER       : PIXL Flight Model       (PIXL will use this to indicate which instrument took the data.)
#NPOINTS     : 4096     Number of data points in the spectrum (This can be zero for configuration only files)
#NCOLUMNS    : 2     Number of data columns in the spectrum (This can be zero for configuration only files)
#XUNITS      : eV
#YUNITS      : COUNTS
#DATATYPE    : YY
#XPERCHAN    : 7.862, 7.881   eV per channel (separate by commas if more than one detector)
#OFFSET      : 18.5, -22.4         eV of first channel  (separate by commas if more than one detector
#SIGNALTYPE  : XRF
#YP_TEMP     : 2.332
#LIVETIME    : 8.54567, 8.56901   seconds (separate by commas if more than one detector)
#REALTIME    : 10, 10.0   seconds (separate by commas if more than one detector)
#SPECTRUM    : start of spectrum data
0, 0
0, 0
0, 0
0, 0
0, 0
0, 0
0, 0
0, 0
0, 0
0, 0
0, 0
0, 0
0, 0
0, 0
0, 0
0, 0
0, 0
0, 0
0, 0
0, 0
0, 0
0, 0
0, 0
0, 0
0, 0
0, 0
0, 0
0, 0
0, 0
0, 0
0, 0
0, 0
0, 0
0, 0
0, 0
0, 0
0, 1
1, 1
0, 0
1, 1
0, 0
1, 1
0, 1
1, 0
0, 0
1, 1
1, 4
0, 6
6, 6
14, 17
34, 25
48, 46
55, 71
76, 79
98, 90
86, 79
84, 56
58, 35
28, 25
10, 17
7, 4
3, 7
4, 4
2, 2
2, 1
4, 5
7, 6
7, 10
24, 34
37, 44
102, 93
172, 165
273, 270
379, 330
434, 414
456, 395
392, 358
301, 319
222, 206
148, 113
83, 63
35, 24
22, 14
13, 7
7, 2
2, 1
2, 2
1, 3
4, 0
1, 0
1, 2
0, 1
1, 2
0, 0
1, 0
3, 2
0, 1
2, 4
3, 4
2, 9
3, 11
0, 12
3, 21
1, 22
2, 18
1, 20
0, 16
3, 8
2, 12
10, 9
8, 14
7, 14
15, 23
20, 23
23, 32
25, 38
24, 34
15, 32
25, 26
17, 21
9, 12
22, 11
20, 22
18, 15
15, 12
12, 15
9, 11
2, 10
11, 4
10, 8
7, 3
7, 5
1, 3
0, 3
0, 1
3, 2
4, 1
1, 8
1, 1
0, 1
0, 2
0, 1
0, 1
2, 0
2, 2
3, 3
1, 3
1, 3
2, 2
5, 3
2, 3
6, 5
4, 4
8, 8
7, 14
13, 16
15, 21
11, 18
17, 17
9, 19
11, 10
10, 5
4, 9
4, 6
4, 5
3, 3
3, 3
9, 4
4, 7
7, 3
2, 12
11, 3
6, 7
5, 7
8, 8
5, 4
12, 2
13, 1
22, 2
21, 3
17, 3
18, 1
14, 3
20, 2
6, 0
10, 6
9, 1
7, 5
9, 7
3, 8
5, 5
2, 5
8, 9
8, 11
9, 17
16, 9
11, 7
10, 16
12, 15
12, 12
8, 17
9, 17
9, 14
6, 23
5, 29
4, 26
5, 27
3, 40
5, 30
9, 36
6, 20
6, 18
11, 14
3, 11
3, 7
4, 4
4, 14
5, 3
9, 4
7, 2
5, 6
10, 1
8, 4
28, 8
21, 9
27, 5
50, 8
42, 13
58, 11
44, 4
62, 10
45, 9
28, 10
25, 11
26, 8
16, 6
10, 13
8, 8
5, 9
5, 13
8, 13
13, 14
10, 32
17, 33
11, 31
25, 63
24, 48
34, 66
38, 76
57, 87
69, 74
67, 68
48, 51
64, 51
57, 29
40, 32
23, 22
30, 17
11, 12
12, 16
17, 18
34, 41
42, 53
81, 111
150, 173
296, 314
491, 600
829, 861
1128, 1338
1556, 1641
1985, 2123
2381, 2298
2462, 2322
2436, 2223
2166, 1887
1805, 1448
1377, 1094
960, 691
638, 411
419, 262
192, 150
118, 71
55, 46
27, 35
17, 12
19, 18
13, 16
19, 9
14, 20
22, 14
18, 17
38, 40
44, 61
69, 75
107, 117
145, 150
193, 234
262, 285
341, 353
348, 364
384, 343
349, 311
289, 298
270, 216
204, 191
151, 165
87, 133
45, 112
44, 115
26, 123
16, 124
9, 113
7, 104
5, 86
8, 54
8, 49
18, 45
18, 27
18, 33
10, 23
8, 8
13, 12
6, 5
5, 10
6, 0
7, 6
3, 3
4, 5
3, 6
4, 3
4, 2
4, 3
1, 5
0, 4
2, 2
2, 6
5, 1
0, 2
1, 3
4, 3
5, 9
3, 5
3, 6
5, 11
3, 22
5, 14
4, 12
3, 27
3, 27
10, 37
9, 34
6, 28
7, 24
10, 17
7, 26
6, 11
7, 12
13, 9
9, 5
12, 1
14, 4
12, 3
9, 5
11, 2
6, 4
10, 3
11, 4
12, 5
7, 8
2, 2
6, 6
3, 3
4, 5
6, 8
3, 3
2, 5
3, 8
2, 5
4, 6
4, 6
3, 6
1, 0
6, 2
4, 5
3, 6
2, 3
4, 8
2, 3
0, 5
3, 3
0, 1
0, 3
3, 4
4, 8
1, 3
2, 2
5, 2
7, 5
8, 5
7, 2
6, 4
12, 1
7, 1
10, 5
5, 2
12, 2
6, 3
9, 4
14, 6
5, 7
7, 1
4, 3
4, 5
9, 5
3, 9
2, 4
4, 3
6, 5
2, 3
3, 3
3, 7
6, 3
4, 3
2, 3
4, 4
0, 0
4, 3
1, 2
3, 7
2, 2
5, 2
4, 2
1, 4
1, 2
3, 3
2, 6
4, 2
3, 3
0, 0
1, 2
3, 1
3, 1
6, 2
5, 3
7, 1
7, 2
1, 3
3, 2
8, 3
7, 0
6, 2
8, 3
4, 5
3, 3
2, 2
5, 2
5, 4
3, 4
2, 1
3, 1
3, 1
2, 2
2, 3
5, 2
2, 1
1, 4
1, 1
2, 1
2, 2
2, 2
2, 1
3, 1
1, 2
2, 1
0, 6
3, 1
1, 5
1, 2
2, 2
4, 4
0, 4
0, 2
1, 5
2, 4
1, 7
1, 5
2, 2
3, 3
2, 4
1, 7
1, 2
3, 4
3, 2
3, 1
3, 5
3, 4
0, 1
3, 1
4, 3
2, 2
1, 3
5, 1
5, 1
2, 4
1, 3
1, 1
4, 2
0, 1
3, 4
1, 0
1, 3
0, 1
1, 1
1, 2
2, 0
1, 0
1, 0
0, 5
1, 0
0, 3
1, 2
4, 2
2, 0
3, 1
2, 1
2, 0
0, 3
0, 4
2, 4
3, 3
2, 0
1, 1
4, 3
0, 1
3, 2
2, 2
5, 2
5, 3
4, 3
2, 4
6, 4
4, 2
1, 0
9, 4
6, 4
5, 1
5, 2
1, 3
1, 4
2, 2
2, 2
2, 3
4, 2
3, 4
2, 3
1, 1
3, 5
1, 2
2, 5
2, 2
1, 0
0, 1
0, 3
0, 1
2, 3
2, 4
2, 5
2, 2
2, 1
1, 0
0, 2
3, 1
0, 1
4, 2
1, 1
1, 2
2, 3
0, 0
1, 0
2, 1
3, 1
0, 0
2, 1
2, 3
1, 3
0, 2
2, 2
3, 1
1, 0
0, 1
1, 1
0, 4
1, 1
0, 1
5, 3
0, 1
2, 1
1, 3
0, 0
1, 2
0, 1
2, 3
1, 4
0, 1
0, 0
0, 0
0, 0
0, 1
2, 2
2, 0
1, 0
2, 0
2, 0
0, 1
2, 0
0, 1
0, 1
1, 1
1, 1
0, 0
4, 2
0, 0
1, 1
0, 1
1, 2
2, 1
1, 1
2, 2
1, 1
1, 2
0, 1
3, 1
0, 1
0, 0
0, 1
0, 1
0, 1
1, 0
1, 1
1, 1
0, 0
0, 0
0, 2
0, 0
1, 4
0, 0
2, 0
0, 0
2, 2
0, 1
1, 1
0, 1
1, 2
1, 1
2, 1
0, 1
0, 2
1, 1
1, 1
0, 0
0, 1
0, 1
1, 1
0, 0
1, 1
0, 0
0, 0
0, 2
1, 1
0, 1
1, 2
0, 1
0, 0
2, 1
2, 2
1, 1
0, 0
2, 0
0, 0
0, 0
1, 0
0, 1
1, 1
0, 1
0, 1
0, 0
0, 0
0, 0
0, 1
0, 0
1, 1
1, 0
1, 0
1, 1
0, 0
0, 1
1, 1
0, 0
0, 0
0, 0
1, 0
0, 1
0, 0
0, 1
0, 0
0, 0
0, 1
1, 2
1, 0
1, 0
0, 0
0, 0
3, 0
0, 1
0, 0
1, 0
0, 2
1, 0
0, 2
0, 0
3, 0
0, 0
0, 0
0, 0
0, 0
1, 0
1, 0
0, 1
0, 2
1, 0
0, 1
2, 0
1, 0
0, 0
0, 1
0, 0
1, 1
0, 0
0, 0
0, 0
1, 0
0, 1
0, 0
0, 0
0, 0
0, 0
0, 0
0, 0
0, 0
0, 0
1, 0
0, 0
0, 0
0, 0
0, 0
0, 0
0, 0
0, 0
0, 0
1, 0
0, 1
0, 0
0, 0
0, 0
0, 0
1, 1
0, 0
0, 2
0, 0
0, 0
0, 1
0, 0
1, 0
0, 0
0, 0
0, 0
0, 0
0, 0
0, 1
0, 0
1, 0
0, 0
0, 0
0, 1
0, 1
0, 1
0, 0
0, 0
0, 1
0, 0
0, 0
0, 0
1, 0
1, 0
0, 1
0, 1
0, 0
0, 0
0, 1
0, 0
0, 0
1, 1
0, 0
0, 0
0, 0
0, 0
0, 0
0, 0
0, 1
0, 0
1, 0
0, 0
0, 0
0, 0
0, 0
0, 0
0, 0
0, 0
0, 0
0, 0
0, 0
0, 0
0, 1
1, 0
0, 0
1, 0
1, 0
1, 0
0, 0
0, 0
1, 0
0, 0
0, 0
0, 0
0, 0
0, 0
0, 0
0, 0
0, 0
1, 0
0, 0
0, 0
0, 1
0, 0
2, 0
1, 0
0, 0
1, 0
1, 0
0, 0
0, 0
0, 0
0, 0
1, 0
0, 0
0, 0
0, 0
0, 1
0, 0
0, 0
0, 0
0, 0
0, 1
0, 0
1, 0
0, 0
1, 0
0, 1
0, 0
0, 0
0, 0
0, 0
0, 0
0, 0
0, 2
0, 0
0, 0
0, 0
1, 0
0, 0
0, 0
0, 0
0, 0
0, 0
0, 0
1, 0
0, 0
0, 0
0, 0
1, 0
0, 0
0, 0
0, 0
0, 1
0, 0
0, 0
0, 0
0, 0
0, 0
0, 0
0, 0
1, 0
0, 0
0, 0
1, 0
0, 0
0, 0
0, 0
0, 0
0, 0
0, 0
0, 0
0, 0
0, 0
0, 0
0, 0
0, 0
0, 0
0, 0
0, 0
0, 0
0, 0
0, 0
0, 0
0, 0
0, 0
0, 0
0, 0
0, 0
0, 0
0, 0
0, 1
0, 0
0, 0
0, 0
0, 0
0, 0
0, 0
0, 0
0, 0
0, 0
0, 0
0, 0
0, 0
0, 0
0, 0
0, 0
0, 0
0, 0
1, 0
0, 0
0, 0
0, 0
0, 0
0, 0
0, 0
0, 0
0, 0
0, 0
0, 0
0, 0
2, 0
0, 0
0, 0
0, 0
0, 0
0, 0
0, 0
0, 0
0, 0
0, 0
0, 0
0, 0
0, 0
0, 0
0, 0
0, 0
0, 0
0, 0
0, 0
0, 0
0, 0
0, 0
0, 0
0, 0
0, 0
0, 0
0, 0
0, 0
0, 0
0, 0
0, 0
0, 0
0, 0
0, 0
0, 0
0, 0
0, 0
0, 0
0, 0
0, 0
0, 0
0, 0
0, 0
0, 0
0, 0
0, 0
0, 0
1, 0
0, 0
0, 0
0, 0
0, 0
0, 0
0, 0
0, 0
0, 0
0, 0
0, 0
0, 0
1, 0
0, 0
0, 0
0, 0
0, 0
0, 0
0, 1
0, 0
0, 0
0, 0
0, 0
0, 0
0, 0
0, 0
0, 0
0, 0
0, 0
0, 0
0, 0
0, 0
0, 1
0, 0
0, 0
0, 0
0, 0
0, 0
0, 0
0, 0
0, 0
0, 0
0, 0
0, 1
0, 0
0, 0
0, 0
0, 0
0, 0
0, 0
0, 0
0, 0
0, 0
0, 0
0, 0
0, 0
0, 0
0, 0
0, 0
0, 0
0, 0
0, 0
0, 0
0, 0
0, 0
0, 0
0, 0
0, 0
0, 0
0, 0
0, 0
0, 0
0, 0
0, 0
0, 0
0, 0
0, 0
0, 0
0, 0
0, 0
0, 0
0, 0
0, 0
0, 0
0, 0
0, 0
0, 0
0, 0
0, 0
0, 0
0, 0
0, 0
0, 0
0, 0
0, 0
0, 0
0, 0
0, 0
0, 0
0, 0
0, 0
0, 0
0, 0
0, 0
0, 0
0, 0
0, 0
0, 0
0, 0
0, 0
0, 0
0, 0
0, 0
0, 0
0, 0
0, 0
0, 0
0, 0
0, 0
0, 0
0, 0
0, 0
0, 0
0, 0
0, 0
0, 0
0, 0
0, 0
0, 0
0, 0
0, 0
0, 0
0, 0
0, 0
0, 0
0, 0
0, 0
0, 0
0, 0
0, 0
0, 0
0, 0
0, 0
0, 0
0, 0
0, 0
0, 0
0, 0
0, 0
0, 0
0, 0
0, 0
0, 0
0, 0
0, 0
0, 0
0, 0
0, 0
0, 0
0, 0
0, 0
0, 0
0, 0
0, 0
0, 0
0, 0
0, 0
0, 0
0, 0
0, 0
0, 0
0, 0
0, 0
0, 0
0, 0
0, 0
0, 0
0, 0
0, 0
0, 0
0, 0
0, 0
0, 0
0, 0
0, 0
0, 0
0, 0
0, 0
0, 0
0, 0
0, 0
0, 0
0, 0
0, 0
0, 0
0, 0
0, 0
0, 0
0, 0
0, 0
0, 0
0, 0
0, 0
0, 0
0, 0
0, 0
0, 0
0, 0
0, 0
0, 0
0, 0
0, 0
0, 0
0, 0
0, 0
0, 0
0, 0
0, 0
0, 0
0, 0
0, 0
0, 0
0, 0
0, 0
0, 0
0, 0
0, 0
0, 0
0, 0
0, 0
0, 0
0, 0
0, 0
0, 0
0, 0
0, 0
0, 0
0, 0
0, 0
0, 0
0, 0
0, 0
0, 0
0, 0
0, 0
0, 0
0, 0
0, 0
0, 0
0, 0
0, 0
0, 0
0, 0
0, 0
0, 0
0, 0
0, 0
0, 0
0, 0
0, 0
0, 0
0, 0
0, 0
0, 0
0, 0
0, 0
0, 0
0, 0
0, 0
0, 0
0, 0
0, 0
0, 0
0, 0
0, 0
0, 0
0, 0
0, 0
0, 0
0, 0
0, 0
0, 0
0, 0
0, 0
0, 0
0, 0
0, 0
0, 0
0, 0
0, 0
0, 0
0, 0
0, 0
0, 0
0, 0
0, 0
0, 0
0, 0
0, 0
0, 0
0, 0
0, 0
0, 0
0, 0
0, 0
0, 0
0, 0
0, 0
0, 0
0, 0
0, 0
0, 0
0, 0
0, 0
0, 0
0, 0
0, 0
0, 0
0, 0
0, 0
0, 0
0, 0
0, 0
0, 0
0, 0
0, 0
0, 0
0, 0
0, 0
0, 0
0, 0
0, 0
0, 0
0, 0
0, 0
0, 0
0, 0
0, 0
0, 0
0, 0
0, 0
0, 0
0, 0
0, 0
0, 0
0, 0
0, 0
0, 0
0, 0
0, 0
0, 0
0, 0
0, 0
0, 0
0, 0
0, 0
0, 0
0, 0
#ENDOFDATA     end of spectrum data