File: host_upload/06-09-2024/ps_0852/dump3/ps__0852shot_2526.msa
#FORMAT      : EMSA/MAS spectral data file
#VERSION     : TC202v2.0 PIXL
#TITLE       : N/A
#DATE        :       Date in the format DD-MMM-YYYY, for example 07-JUL-2010
#TIME        :             The time of day at which the spectrum was recorded, in 24-hour format
#OWNER       : PIXL Flight Model       (PIXL will use this to indicate which instrument took the data.)
#NPOINTS     : 4096     Number of data points in the spectrum (This can be zero for configuration only files)
#NCOLUMNS    : 2     Number of data columns in the spectrum (This can be zero for configuration only files)
#XUNITS      : eV
#YUNITS      : COUNTS
#DATATYPE    : YY
#XPERCHAN    : 7.862, 7.881   eV per channel (separate by commas if more than one detector)
#OFFSET      : 18.5, -22.4         eV of first channel  (separate by commas if more than one detector
#SIGNALTYPE  : XRF
#YP_TEMP     : 2.3
#LIVETIME    : 8.54518, 8.54309   seconds (separate by commas if more than one detector)
#REALTIME    : 10, 10.0   seconds (separate by commas if more than one detector)
#SPECTRUM    : start of spectrum data
0, 0
0, 0
0, 0
0, 0
0, 0
0, 0
0, 0
0, 0
0, 0
0, 0
0, 0
0, 0
0, 0
0, 0
0, 0
0, 0
0, 0
0, 0
0, 0
0, 0
0, 0
0, 0
0, 0
0, 0
0, 0
0, 0
0, 0
0, 0
0, 0
0, 0
0, 0
0, 0
0, 0
1, 1
0, 0
1, 0
0, 0
0, 0
0, 0
0, 2
1, 1
1, 0
3, 0
3, 2
0, 3
2, 2
4, 0
2, 1
4, 12
10, 9
25, 19
35, 32
51, 55
88, 61
86, 69
86, 72
50, 56
41, 41
37, 24
11, 15
15, 5
4, 3
8, 2
4, 2
3, 8
7, 7
6, 7
13, 9
24, 15
59, 47
79, 91
170, 185
266, 296
354, 352
403, 434
431, 443
382, 377
299, 284
196, 177
143, 117
64, 64
33, 19
20, 16
6, 11
1, 7
5, 2
3, 2
3, 1
2, 0
3, 4
4, 4
3, 2
7, 8
17, 9
24, 15
38, 42
48, 66
87, 77
86, 93
97, 106
92, 87
78, 68
38, 46
35, 28
21, 20
18, 15
21, 19
14, 5
21, 22
25, 25
22, 21
32, 31
47, 42
59, 52
45, 51
44, 31
45, 31
37, 33
43, 25
41, 27
22, 29
19, 20
18, 26
19, 20
19, 23
15, 11
16, 6
14, 5
11, 11
6, 2
4, 5
3, 4
1, 0
0, 3
1, 2
3, 2
3, 1
0, 2
0, 4
0, 0
4, 4
1, 1
4, 6
3, 6
2, 2
4, 1
7, 0
6, 5
5, 3
11, 2
18, 6
5, 4
21, 18
22, 30
51, 40
69, 52
87, 58
81, 65
69, 67
81, 61
58, 55
33, 36
27, 44
18, 31
12, 32
4, 24
9, 24
8, 17
4, 19
15, 17
14, 14
13, 18
13, 13
9, 12
6, 7
9, 7
7, 4
3, 5
7, 6
5, 2
1, 2
1, 1
2, 0
2, 3
3, 7
8, 3
6, 10
4, 1
2, 5
5, 8
11, 8
4, 13
9, 17
9, 14
10, 20
10, 21
9, 25
14, 12
9, 20
18, 17
21, 9
9, 9
6, 6
11, 9
3, 8
4, 8
7, 13
5, 12
7, 22
8, 22
7, 20
12, 29
12, 30
11, 29
13, 20
6, 26
6, 19
9, 20
3, 11
5, 10
5, 10
2, 6
4, 7
8, 16
10, 5
10, 12
9, 16
14, 30
13, 27
21, 28
27, 40
30, 35
27, 45
30, 28
20, 28
20, 45
19, 37
11, 31
9, 27
4, 24
8, 23
13, 22
3, 15
5, 14
14, 14
26, 16
23, 26
31, 42
42, 46
52, 75
53, 58
69, 57
72, 52
45, 50
51, 31
39, 31
42, 19
25, 13
20, 17
19, 13
14, 19
29, 28
45, 49
91, 98
127, 169
252, 345
451, 540
733, 923
1091, 1211
1501, 1714
1832, 2017
2072, 2290
2246, 2277
2117, 2138
2005, 1896
1611, 1413
1174, 1010
876, 649
533, 446
330, 225
196, 134
97, 58
68, 29
43, 18
35, 15
37, 9
22, 14
25, 8
16, 22
27, 10
23, 25
47, 29
47, 49
62, 89
122, 115
153, 181
208, 194
262, 275
296, 330
355, 325
337, 322
335, 336
274, 291
225, 204
155, 150
136, 83
78, 50
52, 54
27, 27
12, 13
10, 9
6, 7
6, 4
7, 12
8, 9
3, 11
13, 11
11, 11
14, 11
11, 13
10, 11
16, 8
11, 7
14, 11
4, 7
4, 6
2, 11
1, 12
4, 10
1, 10
5, 11
1, 16
6, 11
6, 8
2, 4
5, 6
4, 7
1, 8
5, 10
5, 10
6, 6
5, 6
4, 7
3, 4
5, 9
5, 10
4, 5
6, 11
4, 8
10, 7
3, 5
5, 8
4, 6
8, 9
6, 7
3, 9
3, 11
4, 6
6, 3
7, 4
6, 4
6, 10
11, 4
12, 4
7, 2
8, 7
11, 6
17, 7
8, 2
6, 4
4, 5
8, 2
10, 3
13, 2
7, 5
8, 2
4, 4
11, 5
9, 6
5, 6
9, 4
13, 4
10, 2
18, 3
7, 1
9, 5
12, 1
18, 5
11, 5
8, 9
11, 6
7, 11
12, 7
6, 9
2, 7
6, 11
3, 7
3, 4
7, 7
8, 4
7, 5
7, 6
14, 3
9, 6
2, 2
7, 4
6, 3
8, 2
6, 3
1, 3
6, 6
1, 2
3, 3
3, 2
4, 2
4, 5
3, 4
4, 8
1, 6
4, 6
2, 11
4, 4
1, 10
2, 11
4, 12
3, 12
3, 9
2, 4
6, 7
2, 0
1, 4
3, 4
8, 1
5, 3
1, 3
4, 5
5, 7
3, 2
4, 7
3, 4
3, 3
6, 5
7, 0
4, 2
5, 0
3, 3
2, 4
2, 3
5, 3
4, 3
4, 5
4, 3
2, 4
2, 3
1, 2
4, 4
2, 6
2, 2
0, 2
2, 3
5, 5
2, 1
5, 7
6, 2
2, 2
2, 2
5, 4
8, 3
4, 2
3, 0
4, 2
3, 2
5, 5
3, 3
1, 6
6, 0
5, 1
1, 2
1, 4
3, 2
2, 1
4, 0
3, 1
2, 1
1, 2
1, 3
8, 3
0, 1
2, 2
7, 6
2, 2
0, 0
4, 1
4, 1
4, 1
2, 1
1, 3
1, 4
2, 4
2, 3
0, 2
3, 1
0, 1
3, 0
3, 3
2, 3
2, 7
4, 4
1, 3
3, 3
3, 4
2, 2
0, 6
1, 2
2, 1
2, 1
3, 3
0, 5
3, 1
1, 1
1, 4
3, 1
1, 1
1, 1
3, 3
1, 4
3, 1
1, 3
4, 1
3, 6
3, 1
2, 1
0, 1
0, 4
2, 1
3, 1
3, 1
2, 2
2, 8
4, 6
3, 6
3, 6
6, 8
5, 2
6, 6
5, 5
4, 5
9, 4
5, 0
3, 2
4, 1
3, 1
3, 5
3, 0
3, 1
1, 1
4, 1
3, 2
2, 2
3, 0
4, 1
4, 4
4, 0
2, 1
5, 1
3, 1
1, 5
7, 0
0, 0
0, 0
0, 3
3, 2
3, 3
1, 2
2, 2
0, 0
0, 2
1, 3
1, 1
1, 0
1, 0
1, 2
3, 1
0, 2
1, 1
2, 4
1, 1
0, 3
1, 2
1, 0
3, 3
1, 3
0, 0
0, 1
0, 0
0, 0
0, 1
2, 1
1, 3
1, 1
2, 1
0, 1
1, 1
3, 1
0, 1
0, 0
0, 0
1, 1
3, 2
2, 1
0, 1
0, 0
2, 1
0, 1
2, 0
1, 2
0, 0
3, 1
0, 0
1, 0
2, 0
0, 3
2, 1
2, 0
1, 2
2, 2
1, 1
0, 0
0, 1
0, 1
0, 2
0, 0
0, 1
0, 1
3, 0
1, 1
0, 0
0, 1
0, 2
0, 0
0, 0
0, 0
1, 1
0, 2
1, 1
0, 1
2, 0
2, 0
3, 2
0, 1
0, 0
1, 0
1, 1
2, 1
2, 0
1, 0
3, 1
0, 1
2, 0
0, 0
2, 1
2, 0
0, 0
0, 1
3, 0
0, 0
0, 2
0, 0
0, 0
0, 0
0, 1
0, 0
0, 1
1, 0
0, 1
0, 1
1, 1
1, 0
0, 1
0, 0
1, 1
0, 1
0, 0
0, 0
0, 0
1, 2
0, 1
0, 0
0, 1
1, 1
1, 0
0, 3
1, 0
2, 1
0, 1
0, 0
0, 1
1, 0
0, 0
0, 1
0, 0
2, 0
0, 1
1, 1
0, 2
1, 2
0, 1
0, 0
0, 0
1, 0
0, 2
0, 0
0, 0
0, 0
0, 0
0, 0
0, 0
1, 0
0, 1
0, 0
1, 1
0, 0
0, 0
0, 0
0, 3
0, 0
0, 0
0, 0
1, 1
0, 0
0, 1
2, 0
0, 1
0, 0
2, 0
0, 0
0, 0
0, 2
0, 0
0, 0
1, 0
0, 0
1, 0
0, 1
1, 0
0, 1
1, 1
0, 0
0, 0
1, 0
1, 1
0, 0
0, 0
0, 0
0, 0
0, 0
0, 0
0, 1
0, 1
1, 1
1, 0
0, 1
1, 0
0, 0
0, 0
0, 0
0, 0
0, 0
0, 1
0, 0
0, 0
0, 0
0, 1
0, 0
0, 1
0, 0
0, 0
0, 0
0, 1
0, 0
0, 0
0, 0
1, 1
0, 1
1, 0
1, 0
0, 0
1, 0
0, 2
0, 0
1, 0
1, 0
0, 0
1, 0
1, 1
0, 0
0, 0
0, 0
1, 0
0, 0
1, 1
0, 0
0, 0
0, 1
0, 0
1, 0
0, 0
0, 0
0, 1
0, 0
1, 0
0, 0
1, 0
0, 0
1, 0
0, 0
0, 0
1, 0
0, 0
0, 0
0, 0
0, 1
0, 1
0, 0
0, 1
0, 0
0, 0
0, 0
0, 0
0, 0
0, 0
0, 0
0, 1
0, 0
0, 0
1, 1
0, 1
0, 0
0, 0
0, 0
0, 0
1, 0
0, 1
0, 0
0, 0
0, 0
0, 0
0, 0
0, 0
0, 0
0, 0
0, 1
0, 0
0, 0
0, 1
0, 0
0, 0
0, 0
0, 0
1, 0
0, 0
0, 1
0, 0
1, 0
0, 0
0, 0
0, 0
0, 0
0, 0
0, 0
0, 0
0, 0
0, 1
0, 0
0, 0
0, 0
0, 1
0, 0
1, 0
1, 0
0, 0
0, 0
0, 0
0, 1
0, 0
0, 1
0, 0
0, 0
0, 0
0, 0
0, 1
0, 0
0, 0
0, 0
0, 0
0, 0
0, 0
1, 0
0, 0
0, 0
0, 0
0, 0
0, 0
0, 0
0, 0
0, 0
0, 0
0, 0
0, 0
0, 0
0, 0
0, 0
0, 0
0, 0
0, 0
0, 0
0, 1
0, 0
0, 0
0, 0
0, 0
0, 0
0, 0
0, 1
0, 0
0, 0
0, 0
0, 0
0, 0
0, 0
0, 1
0, 0
0, 0
0, 0
0, 0
0, 0
0, 1
0, 0
0, 0
0, 0
0, 0
0, 0
0, 0
0, 0
0, 0
0, 0
0, 0
0, 0
0, 0
0, 0
0, 0
0, 0
1, 0
0, 0
1, 0
0, 0
0, 0
0, 0
0, 0
0, 0
0, 0
0, 0
0, 0
0, 0
0, 0
0, 0
0, 0
0, 0
0, 0
0, 0
0, 0
0, 0
0, 0
1, 0
0, 0
0, 0
0, 0
0, 0
0, 0
0, 0
0, 0
0, 0
0, 0
0, 0
0, 0
0, 0
0, 0
0, 0
0, 0
0, 0
0, 0
0, 0
0, 0
0, 0
0, 0
0, 0
0, 0
0, 0
0, 0
0, 0
0, 0
0, 0
0, 0
0, 0
0, 0
0, 0
0, 0
0, 0
0, 0
0, 0
0, 0
0, 0
0, 0
0, 0
1, 0
0, 0
0, 0
0, 0
0, 0
0, 0
0, 0
0, 0
0, 0
0, 0
0, 0
0, 0
0, 0
0, 0
0, 0
0, 0
0, 0
0, 0
0, 0
0, 0
0, 0
0, 0
0, 0
0, 0
0, 0
0, 0
0, 0
0, 0
0, 0
0, 0
0, 0
0, 0
0, 0
0, 0
0, 0
0, 0
0, 0
0, 0
0, 0
0, 0
0, 0
0, 0
0, 0
0, 0
0, 0
0, 0
0, 0
0, 0
0, 0
0, 0
0, 0
0, 0
0, 0
0, 0
0, 0
0, 0
0, 0
0, 0
0, 0
0, 0
0, 0
0, 0
0, 0
0, 0
0, 0
0, 0
0, 0
0, 0
0, 0
0, 0
0, 0
0, 0
0, 0
0, 0
0, 0
0, 0
0, 0
0, 0
0, 0
0, 0
0, 0
0, 0
0, 0
0, 0
0, 0
0, 0
0, 0
0, 0
0, 0
0, 0
0, 0
0, 0
0, 0
0, 0
0, 0
0, 0
0, 0
0, 0
0, 0
0, 0
0, 0
0, 0
0, 0
0, 0
0, 0
0, 0
0, 0
0, 0
0, 0
0, 0
0, 0
0, 0
0, 0
0, 0
0, 0
0, 0
0, 0
0, 0
0, 0
0, 0
0, 0
0, 0
0, 0
0, 0
0, 0
0, 0
0, 0
0, 0
0, 0
0, 0
0, 0
0, 0
0, 0
0, 0
0, 0
0, 0
0, 0
0, 0
0, 0
0, 0
0, 0
0, 0
0, 0
0, 0
0, 0
0, 0
0, 0
0, 0
0, 0
0, 0
0, 0
0, 0
0, 0
0, 0
0, 0
0, 0
0, 0
0, 0
0, 0
0, 0
0, 0
0, 0
1, 0
0, 0
0, 0
0, 0
0, 0
0, 0
0, 0
0, 0
0, 0
0, 0
0, 0
0, 0
0, 0
0, 0
0, 0
0, 0
0, 0
0, 0
0, 0
0, 0
0, 0
0, 0
0, 0
0, 0
0, 0
0, 0
0, 0
0, 0
0, 0
0, 0
0, 0
0, 0
0, 0
0, 0
0, 0
0, 0
0, 0
0, 0
0, 0
0, 0
0, 0
0, 0
0, 0
0, 0
0, 0
0, 0
0, 0
0, 0
0, 0
0, 0
0, 0
0, 0
0, 0
0, 0
0, 0
0, 0
0, 0
0, 0
0, 0
0, 0
0, 0
0, 0
0, 0
0, 0
0, 0
0, 0
0, 0
0, 0
0, 0
0, 0
0, 0
0, 0
0, 0
0, 0
0, 0
0, 0
0, 0
0, 0
0, 0
0, 0
0, 0
0, 0
0, 0
0, 0
0, 0
0, 0
0, 0
0, 0
0, 0
0, 0
0, 0
0, 0
0, 0
0, 0
0, 0
0, 0
0, 0
0, 0
0, 0
0, 0
0, 0
0, 0
0, 0
0, 0
0, 0
0, 0
0, 0
0, 0
0, 0
0, 0
0, 0
0, 0
0, 0
0, 0
0, 0
0, 0
0, 0
0, 0
0, 0
0, 0
0, 0
0, 0
0, 0
0, 0
0, 0
0, 0
0, 0
0, 0
0, 0
0, 0
0, 0
0, 0
0, 0
0, 0
0, 0
0, 0
0, 0
0, 0
0, 0
0, 0
0, 0
0, 0
0, 0
0, 0
0, 0
0, 0
0, 0
0, 0
0, 0
0, 0
0, 0
0, 0
0, 0
0, 0
0, 0
0, 0
0, 0
0, 0
0, 0
0, 0
0, 0
0, 0
0, 0
0, 0
0, 0
0, 0
0, 0
0, 0
0, 0
0, 0
0, 0
0, 0
0, 0
0, 0
0, 0
0, 0
0, 0
0, 0
0, 0
0, 0
0, 0
0, 0
0, 0
0, 0
0, 0
0, 0
0, 0
0, 0
0, 0
0, 0
#ENDOFDATA     end of spectrum data