File: host_upload/06-09-2024/ps_0852/dump3/ps__0852shot_2384.msa
#FORMAT      : EMSA/MAS spectral data file
#VERSION     : TC202v2.0 PIXL
#TITLE       : N/A
#DATE        :       Date in the format DD-MMM-YYYY, for example 07-JUL-2010
#TIME        :             The time of day at which the spectrum was recorded, in 24-hour format
#OWNER       : PIXL Flight Model       (PIXL will use this to indicate which instrument took the data.)
#NPOINTS     : 4096     Number of data points in the spectrum (This can be zero for configuration only files)
#NCOLUMNS    : 2     Number of data columns in the spectrum (This can be zero for configuration only files)
#XUNITS      : eV
#YUNITS      : COUNTS
#DATATYPE    : YY
#XPERCHAN    : 7.862, 7.881   eV per channel (separate by commas if more than one detector)
#OFFSET      : 18.5, -22.4         eV of first channel  (separate by commas if more than one detector
#SIGNALTYPE  : XRF
#YP_TEMP     : 2.332
#LIVETIME    : 8.5519, 8.56453   seconds (separate by commas if more than one detector)
#REALTIME    : 10, 10.0   seconds (separate by commas if more than one detector)
#SPECTRUM    : start of spectrum data
0, 0
0, 0
0, 0
0, 0
0, 0
0, 0
0, 0
0, 0
0, 0
0, 0
0, 0
0, 0
0, 0
0, 0
0, 0
0, 0
0, 0
0, 0
0, 0
0, 0
0, 0
0, 0
0, 0
0, 0
0, 0
0, 0
0, 0
0, 0
0, 0
0, 0
0, 0
0, 1
0, 0
0, 1
1, 0
0, 0
0, 1
1, 0
0, 0
1, 1
2, 2
0, 2
0, 0
1, 3
0, 0
0, 3
6, 1
7, 4
3, 7
5, 13
19, 22
28, 46
62, 57
87, 93
70, 87
72, 70
55, 61
29, 36
15, 20
13, 15
4, 7
6, 2
2, 1
5, 4
6, 5
9, 12
4, 6
11, 12
17, 35
39, 46
72, 114
176, 206
259, 303
357, 407
399, 451
393, 477
343, 412
280, 287
205, 189
119, 128
57, 67
35, 47
12, 20
9, 11
8, 3
3, 7
3, 4
1, 3
2, 3
2, 0
1, 1
0, 2
3, 2
5, 2
3, 2
2, 5
1, 2
10, 11
4, 3
5, 6
8, 9
4, 8
7, 10
3, 12
4, 17
2, 18
6, 40
8, 41
14, 29
15, 39
22, 40
33, 48
46, 55
45, 53
46, 60
54, 54
44, 64
38, 43
36, 33
29, 27
23, 22
18, 26
26, 25
16, 28
15, 19
13, 14
10, 13
8, 9
5, 10
6, 4
5, 4
6, 3
5, 2
1, 5
1, 4
3, 3
2, 0
1, 3
2, 3
3, 2
0, 2
6, 2
2, 4
1, 1
2, 5
3, 2
4, 2
2, 3
3, 2
5, 6
4, 1
4, 9
8, 13
8, 13
16, 15
11, 17
16, 24
22, 26
21, 27
12, 21
9, 12
5, 11
7, 8
11, 5
4, 8
7, 6
5, 5
2, 3
6, 7
5, 4
9, 7
7, 6
6, 6
4, 4
3, 6
4, 6
5, 7
3, 2
6, 8
4, 6
3, 8
2, 7
4, 7
2, 2
7, 6
4, 6
4, 1
10, 4
4, 13
5, 12
6, 14
8, 10
9, 10
7, 13
22, 14
10, 16
7, 14
14, 16
16, 15
17, 13
17, 14
11, 13
10, 14
10, 4
14, 8
8, 11
10, 10
2, 8
7, 6
8, 25
9, 11
3, 18
7, 12
2, 22
7, 19
8, 18
5, 15
1, 6
6, 16
3, 3
5, 8
3, 9
4, 10
6, 7
4, 14
12, 12
8, 14
16, 21
6, 11
20, 9
25, 10
28, 15
37, 12
34, 11
33, 17
43, 15
40, 13
26, 9
23, 12
19, 5
29, 4
13, 5
15, 10
17, 11
19, 13
14, 30
21, 31
39, 46
36, 50
59, 72
61, 65
59, 69
50, 54
52, 56
44, 49
40, 31
36, 31
24, 27
20, 21
27, 28
24, 35
23, 60
37, 107
78, 172
145, 230
240, 408
436, 680
736, 1070
1050, 1471
1479, 1974
1881, 2336
2179, 2689
2249, 2652
2292, 2462
2080, 2100
1715, 1651
1276, 1232
777, 824
523, 521
334, 258
182, 135
103, 67
47, 44
21, 25
27, 16
18, 11
20, 14
18, 20
25, 14
30, 22
27, 16
38, 62
53, 57
75, 87
104, 148
135, 213
210, 249
264, 301
274, 381
319, 407
360, 358
358, 333
300, 338
248, 215
171, 180
126, 114
81, 82
48, 33
35, 30
18, 18
13, 9
12, 7
6, 16
9, 11
11, 16
18, 22
12, 16
11, 20
12, 20
17, 9
15, 16
20, 13
12, 15
12, 4
6, 6
12, 5
10, 5
7, 9
4, 5
4, 4
4, 1
3, 3
1, 3
5, 5
3, 5
8, 11
6, 5
7, 12
3, 8
7, 6
4, 5
4, 16
6, 15
5, 2
7, 8
5, 7
3, 8
7, 4
4, 8
6, 6
6, 6
8, 2
7, 4
7, 4
5, 7
1, 4
3, 5
7, 8
3, 2
2, 4
5, 3
3, 4
3, 5
8, 4
6, 4
2, 4
3, 5
4, 7
1, 4
8, 6
5, 7
5, 4
4, 9
3, 6
5, 8
7, 11
6, 12
10, 18
7, 12
5, 13
13, 12
13, 21
14, 12
15, 20
13, 9
17, 11
13, 15
21, 5
13, 7
15, 2
12, 5
9, 5
10, 4
6, 4
6, 3
7, 5
5, 2
2, 3
3, 5
3, 1
2, 2
4, 4
1, 5
3, 6
3, 1
8, 4
5, 6
4, 7
4, 4
10, 3
7, 1
10, 5
3, 4
3, 6
7, 3
6, 2
5, 0
2, 6
5, 2
2, 1
0, 4
3, 4
4, 4
4, 0
2, 5
6, 0
2, 4
2, 4
3, 5
0, 4
8, 4
4, 2
3, 3
2, 4
2, 5
4, 2
5, 4
4, 5
3, 1
3, 2
2, 6
2, 2
1, 3
3, 6
6, 9
0, 2
2, 4
3, 4
1, 5
2, 3
5, 0
0, 2
2, 2
0, 4
5, 2
3, 3
2, 2
5, 3
1, 0
2, 4
3, 0
1, 4
6, 6
4, 1
5, 2
7, 3
5, 3
6, 2
5, 4
6, 4
7, 3
4, 5
1, 1
3, 4
7, 2
7, 2
3, 0
1, 2
2, 3
3, 3
1, 5
4, 3
8, 4
2, 5
3, 3
1, 4
2, 2
4, 5
0, 4
3, 1
3, 2
0, 2
4, 3
3, 3
2, 3
1, 6
5, 2
1, 1
1, 3
0, 0
3, 4
3, 1
3, 7
5, 3
5, 5
0, 1
2, 0
2, 1
0, 1
4, 3
3, 4
0, 6
2, 1
0, 1
2, 3
1, 4
3, 2
2, 0
3, 4
2, 5
1, 0
0, 4
4, 6
3, 2
1, 1
1, 2
3, 3
0, 0
2, 5
0, 1
2, 2
1, 1
3, 4
2, 2
3, 7
1, 4
0, 7
3, 2
1, 5
1, 4
4, 2
3, 6
4, 6
4, 3
3, 3
2, 3
5, 5
4, 2
2, 2
1, 3
1, 2
1, 3
4, 1
0, 3
0, 1
1, 2
1, 5
1, 1
1, 1
1, 1
1, 0
1, 1
1, 2
3, 2
2, 5
2, 4
1, 4
3, 3
3, 0
5, 0
0, 1
3, 2
3, 3
1, 3
4, 3
1, 3
0, 0
0, 0
4, 1
0, 3
1, 0
0, 1
1, 1
0, 2
0, 1
0, 2
1, 0
0, 0
0, 0
0, 0
0, 0
1, 2
0, 0
0, 1
1, 1
2, 1
0, 1
0, 1
1, 3
1, 1
1, 1
1, 0
0, 1
1, 0
1, 1
0, 0
0, 1
1, 2
0, 0
0, 1
0, 1
0, 0
1, 2
0, 2
0, 2
1, 0
0, 0
2, 0
0, 2
2, 1
1, 0
1, 1
1, 0
3, 2
0, 1
0, 0
3, 1
0, 0
0, 2
0, 0
0, 2
0, 1
0, 0
0, 2
0, 1
0, 2
1, 2
1, 0
1, 0
1, 1
0, 0
2, 3
1, 1
0, 0
0, 1
0, 2
2, 1
1, 1
0, 0
1, 2
1, 1
3, 1
3, 0
0, 0
0, 0
2, 0
0, 1
0, 2
1, 0
0, 0
1, 1
1, 0
0, 0
0, 0
1, 1
1, 1
0, 0
1, 0
0, 2
0, 1
0, 1
0, 0
0, 0
0, 0
0, 0
2, 0
0, 0
0, 0
1, 0
0, 2
1, 0
1, 0
0, 1
0, 0
0, 1
0, 1
0, 1
1, 1
1, 1
0, 0
0, 1
0, 0
0, 1
0, 1
0, 0
1, 1
2, 1
1, 1
0, 3
1, 0
0, 2
0, 0
0, 1
1, 0
0, 0
0, 0
1, 0
2, 0
0, 0
0, 0
0, 1
1, 0
1, 1
0, 0
1, 1
0, 0
0, 1
0, 1
0, 0
0, 0
1, 0
1, 2
1, 0
1, 0
0, 0
0, 3
1, 0
1, 0
0, 0
1, 2
0, 1
2, 0
0, 0
1, 0
0, 0
1, 0
0, 0
1, 0
1, 0
0, 0
1, 0
1, 0
0, 1
0, 0
0, 0
0, 0
0, 0
0, 0
0, 0
0, 0
1, 2
0, 1
0, 0
0, 0
0, 1
0, 0
0, 1
1, 0
0, 1
0, 0
0, 1
1, 0
1, 0
1, 0
0, 0
0, 0
0, 0
0, 2
1, 0
0, 0
1, 1
0, 0
0, 1
0, 0
0, 0
0, 0
0, 0
0, 0
0, 0
0, 0
1, 0
0, 0
2, 0
0, 0
0, 0
0, 0
0, 0
1, 0
0, 1
0, 0
1, 1
0, 0
1, 0
0, 0
0, 0
0, 0
0, 0
0, 1
0, 0
0, 0
0, 1
0, 0
1, 0
0, 1
1, 0
0, 1
0, 0
0, 0
0, 0
0, 0
0, 0
0, 1
0, 0
1, 0
0, 0
0, 0
0, 0
1, 1
0, 0
0, 0
0, 0
0, 1
0, 0
0, 0
0, 0
0, 0
0, 0
0, 0
0, 0
0, 0
0, 0
0, 0
0, 0
0, 0
0, 0
0, 0
0, 0
1, 0
0, 0
1, 0
0, 0
0, 0
0, 0
1, 0
0, 0
0, 0
0, 0
0, 0
0, 0
0, 0
0, 0
0, 0
0, 0
0, 0
0, 0
0, 0
0, 0
0, 0
1, 1
0, 0
0, 0
0, 0
0, 0
0, 0
0, 0
0, 0
0, 0
0, 0
0, 0
0, 0
0, 0
0, 0
0, 0
0, 0
0, 0
0, 0
0, 0
0, 0
0, 0
0, 0
0, 0
0, 0
1, 0
0, 0
0, 0
0, 0
0, 0
0, 0
0, 0
0, 0
0, 0
0, 0
1, 0
0, 0
0, 0
0, 0
0, 0
0, 0
0, 0
0, 0
0, 0
0, 0
0, 0
0, 1
0, 1
0, 0
0, 0
0, 0
0, 0
0, 0
0, 0
0, 0
0, 1
0, 0
0, 0
0, 0
0, 0
0, 0
0, 0
0, 0
0, 0
0, 0
0, 0
0, 0
0, 0
0, 0
0, 0
0, 0
0, 0
0, 1
0, 0
0, 0
0, 0
0, 0
0, 0
0, 0
0, 0
0, 0
0, 0
0, 0
0, 0
0, 0
0, 0
0, 0
0, 0
0, 0
0, 0
0, 0
0, 0
0, 0
0, 0
0, 0
0, 0
0, 0
0, 0
0, 0
0, 0
0, 0
0, 0
0, 0
0, 0
0, 0
0, 0
0, 0
0, 0
0, 0
0, 0
0, 0
0, 0
0, 0
0, 0
0, 0
0, 0
0, 0
0, 0
0, 0
0, 0
0, 0
0, 0
0, 0
0, 0
0, 0
0, 0
0, 0
0, 0
0, 0
0, 0
0, 0
0, 0
0, 0
0, 0
0, 0
0, 0
0, 0
0, 0
0, 0
0, 0
0, 0
0, 0
0, 0
0, 0
0, 0
0, 0
0, 0
0, 0
0, 0
0, 0
0, 0
0, 0
0, 0
0, 0
0, 0
0, 0
0, 0
0, 0
0, 0
0, 0
0, 0
0, 0
0, 0
0, 0
0, 0
0, 0
0, 0
0, 0
0, 0
0, 0
0, 0
0, 0
0, 0
0, 0
0, 0
0, 0
0, 0
0, 0
0, 0
0, 0
0, 0
0, 0
0, 0
0, 0
0, 0
0, 0
0, 0
0, 0
0, 0
0, 0
0, 0
0, 0
0, 0
0, 0
0, 0
0, 0
0, 0
0, 0
0, 0
0, 1
0, 0
0, 0
0, 0
0, 0
0, 0
0, 0
0, 0
0, 0
0, 0
0, 0
0, 0
0, 0
0, 0
0, 0
0, 0
0, 0
0, 0
0, 0
0, 0
0, 0
0, 0
0, 0
0, 0
0, 0
0, 0
0, 0
0, 0
0, 0
0, 0
0, 0
0, 0
0, 0
0, 0
0, 0
0, 0
0, 0
0, 0
0, 0
0, 0
0, 0
0, 0
0, 0
0, 0
0, 0
0, 0
0, 0
0, 0
0, 0
0, 0
0, 0
0, 0
0, 0
0, 0
0, 0
0, 0
0, 0
0, 0
0, 0
0, 0
0, 0
0, 0
0, 0
0, 0
0, 0
0, 0
0, 0
0, 0
0, 0
0, 0
0, 0
0, 0
0, 0
0, 0
0, 0
0, 0
0, 0
0, 0
0, 0
0, 0
0, 0
0, 0
0, 0
0, 0
0, 0
0, 0
0, 0
0, 0
0, 0
0, 0
0, 0
0, 0
0, 0
0, 0
0, 0
0, 0
0, 0
0, 0
0, 0
0, 0
0, 0
0, 0
0, 0
0, 0
0, 0
0, 0
0, 0
0, 0
0, 0
0, 0
0, 0
0, 0
0, 0
0, 0
0, 0
0, 0
0, 0
0, 0
0, 0
0, 0
0, 0
0, 0
0, 0
0, 0
0, 0
0, 0
0, 0
0, 0
0, 0
0, 0
0, 0
0, 0
0, 0
0, 0
0, 0
0, 0
0, 0
0, 0
0, 0
0, 0
0, 0
0, 0
0, 0
0, 0
0, 0
0, 0
0, 0
0, 0
0, 0
0, 0
0, 0
0, 0
0, 0
0, 0
0, 0
0, 0
0, 0
0, 0
0, 0
0, 0
0, 0
0, 0
0, 0
0, 0
0, 0
0, 0
0, 0
0, 0
0, 0
0, 0
0, 0
0, 0
0, 0
0, 0
0, 0
0, 0
0, 0
0, 0
0, 0
0, 0
0, 0
0, 0
0, 0
0, 0
0, 0
0, 0
0, 0
0, 0
0, 0
0, 0
0, 0
0, 0
0, 0
0, 0
0, 0
0, 0
0, 0
0, 0
0, 0
0, 0
0, 0
0, 0
0, 0
0, 0
0, 0
0, 0
0, 0
0, 0
0, 0
0, 0
0, 0
0, 0
0, 0
0, 0
0, 0
0, 0
0, 0
0, 0
0, 0
0, 0
0, 0
0, 0
0, 0
0, 0
0, 0
0, 0
0, 0
0, 0
0, 0
0, 0
0, 0
0, 0
0, 0
0, 0
0, 0
0, 0
0, 0
0, 0
0, 0
0, 0
0, 0
0, 0
0, 0
0, 0
0, 0
0, 0
0, 0
0, 0
0, 0
0, 0
0, 0
0, 0
0, 0
0, 0
0, 0
0, 0
0, 0
0, 0
0, 0
0, 0
0, 0
0, 0
0, 0
0, 0
0, 0
0, 0
0, 0
0, 0
0, 0
0, 0
0, 0
0, 0
0, 0
0, 0
0, 0
0, 0
0, 0
0, 0
0, 0
0, 0
0, 0
0, 0
0, 0
0, 0
0, 0
0, 0
0, 0
0, 0
0, 0
0, 0
0, 0
0, 0
0, 0
0, 0
0, 0
0, 0
0, 0
0, 0
0, 0
0, 0
0, 0
0, 0
0, 0
0, 0
0, 0
0, 0
0, 0
0, 0
0, 0
0, 0
#ENDOFDATA     end of spectrum data