File: host_upload/06-09-2024/ps_0852/dump3/ps__0852shot_2234.msa
#FORMAT      : EMSA/MAS spectral data file
#VERSION     : TC202v2.0 PIXL
#TITLE       : N/A
#DATE        :       Date in the format DD-MMM-YYYY, for example 07-JUL-2010
#TIME        :             The time of day at which the spectrum was recorded, in 24-hour format
#OWNER       : PIXL Flight Model       (PIXL will use this to indicate which instrument took the data.)
#NPOINTS     : 4096     Number of data points in the spectrum (This can be zero for configuration only files)
#NCOLUMNS    : 2     Number of data columns in the spectrum (This can be zero for configuration only files)
#XUNITS      : eV
#YUNITS      : COUNTS
#DATATYPE    : YY
#XPERCHAN    : 7.862, 7.881   eV per channel (separate by commas if more than one detector)
#OFFSET      : 18.5, -22.4         eV of first channel  (separate by commas if more than one detector
#SIGNALTYPE  : XRF
#YP_TEMP     : 2.332
#LIVETIME    : 8.53912, 8.54308   seconds (separate by commas if more than one detector)
#REALTIME    : 10, 10.0   seconds (separate by commas if more than one detector)
#SPECTRUM    : start of spectrum data
0, 0
0, 0
0, 0
0, 0
0, 0
0, 0
0, 0
0, 0
0, 0
0, 0
0, 0
0, 0
0, 0
0, 0
0, 0
0, 0
0, 0
0, 0
0, 0
0, 0
0, 0
0, 0
0, 0
0, 0
0, 0
0, 0
0, 0
0, 0
0, 0
0, 0
0, 0
0, 0
0, 1
0, 0
0, 0
0, 0
0, 0
1, 0
0, 0
0, 2
1, 0
0, 1
1, 0
1, 1
0, 2
2, 0
1, 2
1, 2
4, 8
8, 12
12, 24
24, 44
56, 70
81, 100
75, 85
81, 86
64, 59
40, 38
32, 18
11, 11
9, 6
3, 3
5, 2
2, 2
3, 3
7, 4
5, 7
8, 13
27, 21
41, 51
89, 101
182, 185
284, 295
366, 410
441, 465
444, 426
381, 414
311, 304
256, 214
136, 124
68, 75
37, 38
19, 12
12, 10
5, 6
4, 3
1, 2
1, 2
0, 0
0, 0
0, 1
2, 0
1, 2
0, 1
2, 2
1, 5
2, 5
3, 3
4, 5
4, 0
2, 2
4, 5
3, 2
2, 3
5, 3
1, 7
3, 4
7, 13
13, 15
22, 12
22, 28
26, 28
31, 41
34, 44
44, 41
47, 46
41, 35
35, 31
31, 27
32, 21
17, 17
19, 18
25, 24
21, 10
23, 17
21, 16
15, 10
12, 11
10, 13
7, 6
4, 5
1, 3
2, 6
4, 4
3, 0
3, 3
5, 1
0, 2
1, 3
2, 2
2, 1
0, 0
2, 5
4, 5
2, 0
3, 3
0, 0
0, 1
1, 2
0, 5
1, 3
3, 4
4, 4
7, 2
12, 10
10, 15
11, 17
8, 21
10, 12
16, 17
18, 7
10, 8
7, 7
2, 3
1, 5
1, 2
3, 4
6, 2
5, 5
5, 4
4, 4
3, 5
6, 6
3, 3
10, 2
2, 2
1, 2
6, 3
2, 5
3, 5
2, 4
0, 6
5, 2
5, 3
3, 1
4, 2
5, 9
1, 5
9, 5
5, 6
8, 7
4, 8
17, 9
11, 7
8, 9
13, 9
18, 19
14, 18
19, 17
17, 11
15, 18
11, 13
4, 13
8, 8
8, 4
5, 7
9, 20
5, 23
9, 29
4, 47
3, 50
9, 63
4, 73
7, 59
3, 72
8, 60
9, 44
4, 34
1, 24
1, 21
5, 10
9, 11
8, 10
9, 7
8, 15
9, 6
9, 15
14, 16
13, 16
17, 14
16, 21
23, 22
25, 12
12, 3
18, 12
16, 4
6, 8
3, 6
6, 8
12, 8
6, 7
8, 9
10, 6
7, 6
11, 18
30, 14
28, 25
38, 45
40, 55
54, 60
61, 76
62, 65
41, 70
58, 44
41, 37
40, 40
30, 21
20, 29
16, 18
15, 21
25, 17
33, 26
49, 49
81, 110
141, 214
250, 392
459, 661
779, 980
1117, 1401
1509, 1830
1856, 2331
2281, 2423
2359, 2585
2325, 2400
2091, 2057
1735, 1623
1289, 1149
950, 758
588, 485
350, 301
187, 148
113, 78
43, 30
35, 24
16, 15
13, 10
12, 17
20, 15
17, 21
19, 17
21, 18
29, 36
46, 61
69, 75
91, 103
150, 184
191, 253
264, 296
289, 322
342, 367
341, 350
347, 331
326, 304
241, 225
227, 186
121, 104
91, 54
49, 35
31, 26
14, 20
11, 16
10, 26
13, 19
6, 23
9, 32
19, 46
14, 49
8, 65
5, 75
9, 70
12, 70
13, 60
7, 79
7, 58
7, 48
10, 33
10, 30
10, 21
11, 15
8, 14
12, 3
14, 6
9, 3
16, 8
13, 6
12, 4
6, 3
12, 3
6, 3
6, 1
6, 4
7, 5
8, 3
6, 7
3, 4
4, 2
5, 3
4, 6
5, 6
4, 7
6, 5
2, 6
9, 5
3, 4
3, 7
3, 5
0, 3
5, 4
7, 0
6, 3
2, 5
4, 2
3, 6
5, 1
2, 5
6, 3
4, 4
4, 3
4, 2
8, 1
6, 3
5, 7
7, 6
9, 3
7, 2
2, 4
2, 0
5, 2
9, 7
3, 4
5, 1
4, 8
4, 5
3, 5
4, 5
1, 8
3, 2
2, 8
1, 2
1, 3
1, 10
1, 5
3, 5
2, 3
0, 3
1, 9
1, 3
0, 6
5, 5
4, 1
0, 6
2, 4
4, 4
2, 4
0, 8
2, 6
4, 4
1, 1
2, 2
3, 4
4, 6
4, 5
5, 4
6, 1
4, 1
5, 7
3, 4
6, 1
6, 3
3, 3
2, 4
4, 4
4, 8
3, 5
3, 1
3, 6
1, 3
3, 3
2, 5
4, 4
4, 5
2, 3
4, 6
6, 5
3, 5
2, 5
5, 2
0, 0
1, 0
2, 4
4, 3
1, 7
2, 2
2, 2
3, 2
2, 3
3, 1
3, 1
0, 1
2, 1
4, 3
2, 2
3, 0
2, 1
5, 3
2, 4
3, 4
4, 2
4, 3
0, 3
1, 4
3, 2
2, 2
7, 5
3, 2
1, 2
3, 3
3, 2
2, 4
4, 1
1, 2
5, 3
5, 3
9, 2
7, 3
2, 2
1, 1
5, 3
6, 8
3, 3
1, 3
3, 4
2, 2
3, 2
3, 2
3, 1
2, 2
4, 3
2, 1
1, 4
1, 1
1, 3
0, 1
3, 1
2, 0
0, 3
4, 3
3, 1
3, 2
3, 3
3, 1
0, 1
1, 3
4, 3
1, 3
3, 4
1, 1
1, 3
3, 2
1, 2
3, 8
3, 2
0, 2
2, 1
1, 2
4, 1
3, 4
3, 2
1, 3
4, 2
3, 2
3, 1
1, 3
1, 2
2, 2
4, 3
4, 3
3, 4
5, 1
3, 1
2, 2
2, 6
0, 1
3, 2
3, 3
2, 3
1, 4
0, 2
0, 1
0, 1
3, 7
4, 4
3, 4
4, 3
1, 5
6, 4
2, 1
1, 2
2, 2
1, 3
1, 1
2, 1
2, 1
1, 2
0, 1
4, 1
4, 1
5, 3
5, 0
4, 1
4, 1
7, 3
2, 1
2, 2
8, 0
4, 1
11, 1
4, 0
10, 2
3, 1
4, 2
6, 2
2, 2
4, 2
2, 0
2, 1
2, 1
4, 1
2, 4
0, 0
2, 0
2, 2
3, 2
1, 2
1, 1
0, 1
0, 3
1, 4
0, 0
1, 2
2, 0
1, 0
2, 3
4, 1
1, 2
0, 0
0, 3
2, 2
1, 1
2, 1
0, 1
1, 1
0, 2
1, 0
1, 1
1, 0
3, 1
0, 0
1, 0
2, 0
1, 0
3, 0
1, 0
3, 2
1, 3
1, 0
0, 0
2, 3
1, 1
1, 0
3, 0
0, 1
0, 2
3, 2
1, 0
2, 1
1, 2
0, 2
1, 0
0, 0
2, 1
2, 0
2, 1
0, 0
0, 0
0, 0
1, 2
0, 2
0, 1
0, 0
1, 1
0, 0
1, 1
0, 0
3, 0
0, 1
0, 0
1, 0
2, 0
2, 0
0, 0
0, 0
0, 0
0, 2
1, 1
0, 1
0, 1
3, 0
1, 1
0, 0
2, 0
2, 1
2, 1
1, 0
0, 0
1, 0
0, 0
0, 2
1, 2
1, 1
0, 0
2, 0
1, 1
0, 0
0, 0
0, 1
0, 2
0, 0
1, 0
0, 0
2, 1
0, 1
1, 1
1, 0
0, 0
0, 1
0, 0
0, 0
1, 0
1, 0
0, 0
0, 0
0, 1
0, 1
0, 0
0, 1
0, 0
0, 0
2, 1
0, 0
0, 1
1, 1
0, 0
0, 0
0, 0
0, 0
0, 0
1, 1
0, 1
2, 2
0, 1
0, 0
2, 1
0, 1
0, 1
1, 0
1, 1
0, 1
0, 0
0, 0
0, 0
0, 1
0, 0
0, 0
0, 0
0, 1
3, 0
0, 1
0, 2
1, 1
1, 0
1, 0
0, 0
1, 0
0, 0
0, 1
1, 0
1, 2
0, 0
0, 0
0, 0
0, 0
1, 0
1, 1
0, 0
0, 1
0, 1
0, 0
0, 0
1, 0
0, 0
0, 1
1, 1
0, 0
1, 0
1, 0
0, 0
1, 0
1, 0
0, 0
0, 0
1, 0
0, 0
0, 0
0, 0
0, 0
0, 1
0, 0
0, 0
2, 0
0, 0
0, 1
0, 0
0, 0
0, 2
0, 0
0, 0
0, 0
0, 1
1, 0
2, 2
0, 0
0, 1
0, 0
0, 0
0, 0
1, 1
1, 2
0, 0
0, 0
2, 1
0, 1
1, 2
0, 1
0, 1
1, 2
0, 1
1, 0
0, 0
0, 1
1, 0
0, 1
0, 0
0, 0
0, 0
0, 0
1, 0
1, 0
1, 0
0, 0
0, 0
1, 1
0, 0
0, 1
0, 0
0, 0
0, 0
0, 0
0, 0
1, 1
0, 0
0, 0
0, 0
0, 0
0, 0
0, 0
0, 1
0, 0
0, 0
0, 0
0, 0
0, 1
0, 0
0, 0
0, 0
1, 0
0, 0
0, 0
0, 0
0, 0
0, 0
0, 0
0, 1
1, 1
0, 0
0, 0
0, 1
0, 0
0, 0
0, 1
0, 0
1, 0
0, 0
1, 0
1, 0
0, 0
0, 0
0, 1
1, 0
0, 1
0, 0
0, 0
1, 0
0, 0
0, 0
0, 0
1, 0
0, 0
0, 0
0, 0
0, 0
0, 0
0, 0
0, 0
0, 0
0, 0
0, 0
0, 0
0, 0
0, 0
0, 0
0, 0
0, 0
0, 0
0, 0
0, 0
0, 0
0, 0
0, 0
0, 0
0, 0
0, 0
0, 0
0, 0
0, 0
0, 1
0, 1
0, 0
0, 0
0, 0
0, 0
0, 0
0, 0
0, 0
0, 0
0, 0
0, 0
0, 0
0, 0
0, 0
0, 0
0, 0
0, 0
0, 0
0, 0
0, 0
0, 0
0, 0
0, 0
0, 1
0, 0
0, 0
0, 0
0, 0
0, 0
0, 0
0, 0
0, 0
0, 0
0, 0
0, 0
0, 1
0, 0
0, 0
0, 0
0, 0
0, 0
0, 0
0, 0
0, 0
0, 0
0, 0
0, 0
0, 0
0, 0
0, 0
0, 0
0, 0
0, 0
0, 0
0, 0
0, 0
0, 0
0, 0
0, 0
0, 0
0, 0
0, 0
0, 0
0, 0
0, 0
0, 0
0, 0
0, 0
0, 0
0, 0
0, 0
0, 0
0, 1
0, 0
0, 0
0, 0
0, 0
0, 0
0, 0
0, 0
0, 0
0, 0
0, 0
0, 0
0, 0
0, 0
0, 0
0, 0
0, 0
0, 0
0, 0
0, 0
0, 0
0, 0
0, 0
0, 0
0, 0
0, 0
0, 0
0, 0
0, 0
0, 0
0, 0
0, 0
0, 0
1, 0
0, 0
0, 0
0, 0
0, 0
0, 0
0, 0
0, 0
0, 0
0, 0
0, 0
0, 0
0, 0
0, 0
0, 0
0, 0
0, 0
1, 0
0, 0
0, 0
0, 0
0, 0
0, 0
0, 0
0, 0
0, 0
1, 0
0, 0
0, 0
0, 0
0, 0
0, 0
0, 0
0, 0
0, 0
0, 0
0, 0
0, 0
0, 0
0, 0
0, 0
0, 0
0, 0
0, 0
0, 0
0, 0
0, 0
0, 0
0, 0
0, 0
0, 0
0, 0
0, 0
0, 0
0, 0
0, 0
0, 0
0, 0
0, 0
0, 0
0, 0
0, 0
0, 0
0, 0
0, 0
0, 0
0, 0
0, 0
0, 0
0, 0
0, 0
0, 0
0, 0
0, 0
0, 0
0, 0
0, 0
0, 0
0, 0
0, 0
0, 0
0, 0
0, 0
0, 0
0, 0
0, 0
0, 0
0, 0
0, 0
0, 0
0, 0
0, 0
0, 0
0, 0
0, 0
0, 0
0, 0
0, 0
0, 0
0, 0
0, 0
0, 0
0, 0
0, 0
0, 0
0, 0
0, 0
0, 0
0, 0
0, 0
0, 0
0, 0
0, 0
0, 0
0, 0
0, 0
0, 0
0, 0
0, 0
0, 0
0, 0
0, 0
0, 0
0, 0
0, 0
0, 0
0, 0
0, 0
0, 0
0, 0
0, 0
0, 0
0, 0
0, 0
0, 0
0, 0
0, 0
0, 0
0, 0
0, 0
0, 0
0, 0
0, 0
0, 0
0, 0
0, 0
0, 0
0, 0
0, 0
0, 0
0, 0
0, 0
0, 0
0, 0
0, 0
0, 0
0, 0
0, 0
0, 0
0, 0
0, 0
0, 0
0, 0
0, 0
0, 0
0, 0
0, 0
0, 0
0, 0
0, 0
0, 0
0, 0
0, 0
0, 0
0, 0
0, 0
0, 0
0, 0
0, 0
0, 0
0, 0
0, 0
0, 0
0, 0
0, 0
0, 0
0, 0
0, 0
0, 0
0, 0
0, 0
0, 0
0, 0
0, 0
0, 0
0, 0
0, 0
0, 0
0, 0
0, 0
0, 0
0, 0
0, 0
0, 0
0, 0
0, 0
0, 0
0, 0
0, 0
0, 0
0, 0
0, 0
0, 0
0, 0
0, 0
0, 0
0, 0
0, 0
0, 0
0, 0
0, 0
0, 0
0, 0
0, 0
0, 0
0, 0
0, 0
0, 0
0, 0
0, 0
0, 0
0, 0
0, 0
0, 0
0, 0
0, 0
0, 0
0, 0
0, 0
0, 0
0, 0
0, 0
0, 0
0, 0
0, 0
0, 0
0, 0
0, 0
0, 0
0, 0
0, 0
0, 0
0, 0
0, 0
0, 0
0, 0
0, 0
0, 0
0, 0
0, 0
0, 0
0, 0
0, 0
0, 0
0, 0
0, 0
0, 0
0, 0
0, 0
0, 0
0, 0
0, 0
0, 0
0, 0
0, 0
0, 0
0, 0
0, 0
0, 0
0, 0
0, 0
0, 0
0, 0
0, 0
0, 0
0, 0
0, 0
0, 0
0, 0
0, 0
0, 0
0, 0
0, 0
0, 0
0, 0
0, 0
0, 0
0, 0
0, 0
0, 0
0, 0
0, 0
0, 0
0, 0
0, 0
0, 0
0, 0
0, 0
0, 0
0, 0
0, 0
0, 0
0, 0
0, 0
0, 0
0, 0
0, 0
0, 0
0, 0
0, 0
0, 0
0, 0
0, 0
0, 0
0, 0
0, 0
0, 0
0, 0
0, 0
0, 0
0, 0
0, 0
0, 0
0, 0
0, 0
0, 0
0, 0
0, 0
0, 0
0, 0
0, 0
0, 0
0, 0
0, 0
0, 0
0, 0
0, 0
0, 0
0, 0
0, 0
0, 0
0, 0
0, 0
0, 0
0, 0
0, 0
0, 0
0, 0
0, 0
0, 0
0, 0
0, 0
0, 0
0, 0
0, 0
#ENDOFDATA     end of spectrum data