File: host_upload/06-09-2024/ps_0852/dump3/ps__0852shot_2405.msa
#FORMAT      : EMSA/MAS spectral data file
#VERSION     : TC202v2.0 PIXL
#TITLE       : N/A
#DATE        :       Date in the format DD-MMM-YYYY, for example 07-JUL-2010
#TIME        :             The time of day at which the spectrum was recorded, in 24-hour format
#OWNER       : PIXL Flight Model       (PIXL will use this to indicate which instrument took the data.)
#NPOINTS     : 4096     Number of data points in the spectrum (This can be zero for configuration only files)
#NCOLUMNS    : 2     Number of data columns in the spectrum (This can be zero for configuration only files)
#XUNITS      : eV
#YUNITS      : COUNTS
#DATATYPE    : YY
#XPERCHAN    : 7.862, 7.881   eV per channel (separate by commas if more than one detector)
#OFFSET      : 18.5, -22.4         eV of first channel  (separate by commas if more than one detector
#SIGNALTYPE  : XRF
#YP_TEMP     : 2.235
#LIVETIME    : 8.55815, 8.56058   seconds (separate by commas if more than one detector)
#REALTIME    : 10, 10.0   seconds (separate by commas if more than one detector)
#SPECTRUM    : start of spectrum data
0, 0
0, 0
0, 0
0, 0
0, 0
0, 0
0, 0
0, 0
0, 0
0, 0
0, 0
0, 0
0, 0
0, 0
0, 0
0, 0
0, 0
0, 0
0, 0
0, 0
0, 0
0, 0
0, 0
0, 0
0, 0
0, 0
0, 0
0, 0
0, 0
0, 0
0, 0
0, 0
0, 0
0, 0
0, 0
0, 1
1, 0
0, 2
0, 0
2, 0
0, 0
0, 1
0, 4
1, 1
3, 2
6, 2
2, 4
2, 4
8, 5
14, 13
26, 25
39, 51
65, 62
74, 80
104, 72
94, 66
70, 52
50, 39
30, 16
21, 13
10, 8
5, 7
3, 1
5, 2
6, 3
4, 6
8, 4
13, 8
27, 21
55, 38
108, 85
191, 169
262, 249
412, 331
458, 373
456, 428
420, 346
311, 260
191, 167
133, 111
76, 56
31, 32
25, 8
10, 6
2, 4
2, 3
2, 2
0, 3
1, 3
4, 1
1, 2
1, 1
2, 1
0, 1
7, 3
1, 1
3, 1
2, 6
2, 1
4, 3
4, 4
5, 3
1, 4
3, 1
5, 2
8, 5
5, 7
17, 5
10, 14
9, 20
20, 25
21, 36
21, 62
37, 57
34, 110
28, 108
25, 89
30, 78
21, 60
25, 40
18, 35
13, 17
14, 17
14, 21
12, 10
21, 9
14, 9
10, 7
4, 6
7, 3
2, 1
5, 0
3, 4
4, 1
1, 0
6, 1
1, 3
1, 2
3, 2
1, 3
1, 2
3, 5
3, 3
1, 2
0, 4
1, 1
2, 2
0, 1
4, 2
9, 2
17, 5
12, 3
12, 7
16, 9
16, 9
18, 12
19, 14
21, 14
15, 7
16, 13
16, 8
14, 8
16, 6
19, 4
19, 4
32, 1
47, 2
46, 1
74, 4
82, 4
102, 4
66, 4
71, 9
40, 6
53, 17
27, 20
16, 28
12, 41
7, 66
5, 101
9, 114
5, 111
2, 103
6, 80
4, 87
7, 41
5, 21
2, 19
3, 10
2, 10
4, 15
11, 14
5, 13
6, 10
13, 6
12, 10
12, 11
17, 19
13, 20
9, 15
14, 16
17, 8
7, 8
6, 3
10, 3
9, 8
4, 7
9, 5
4, 5
5, 11
4, 6
6, 11
4, 17
6, 21
6, 18
6, 30
9, 22
5, 20
7, 16
2, 17
5, 16
6, 10
6, 3
8, 14
15, 3
4, 11
9, 8
14, 14
11, 17
18, 16
19, 10
22, 16
15, 10
22, 8
37, 7
49, 7
69, 7
76, 8
104, 6
94, 11
118, 5
105, 13
78, 17
94, 24
69, 25
66, 25
57, 44
45, 58
49, 60
54, 89
59, 80
75, 89
61, 70
64, 60
45, 35
33, 32
26, 24
25, 12
20, 13
16, 22
24, 30
27, 26
48, 45
98, 98
161, 215
297, 334
490, 509
834, 880
1200, 1265
1607, 1612
2085, 2027
2419, 2353
2516, 2320
2520, 2209
2293, 1844
1932, 1447
1374, 960
936, 661
591, 442
344, 233
220, 137
112, 63
55, 35
28, 29
14, 20
26, 22
17, 23
22, 32
21, 22
19, 34
27, 32
25, 48
52, 59
80, 91
103, 116
150, 165
209, 210
265, 241
287, 316
345, 322
333, 360
331, 321
323, 237
252, 187
194, 139
119, 102
101, 56
72, 28
31, 29
20, 18
20, 15
12, 16
15, 20
16, 20
23, 20
21, 28
18, 28
19, 21
30, 29
16, 27
16, 13
8, 12
14, 13
10, 9
7, 5
10, 4
5, 6
7, 6
4, 2
2, 1
8, 4
10, 3
5, 3
9, 5
7, 0
9, 3
3, 7
4, 5
7, 4
11, 2
7, 6
8, 5
7, 4
12, 6
9, 4
6, 6
9, 4
8, 1
6, 2
5, 9
6, 9
10, 3
4, 4
5, 7
5, 5
4, 6
4, 11
5, 12
2, 3
4, 11
5, 7
3, 4
6, 11
12, 7
6, 8
2, 12
4, 6
4, 4
5, 4
4, 4
1, 2
6, 4
6, 2
4, 2
8, 5
3, 3
3, 7
2, 8
4, 5
3, 7
3, 3
1, 1
1, 7
4, 15
4, 9
5, 6
2, 4
2, 6
5, 7
7, 6
2, 3
7, 7
5, 4
2, 3
3, 4
6, 6
2, 1
7, 4
0, 3
7, 4
8, 2
6, 7
7, 0
8, 4
11, 4
5, 4
5, 2
7, 3
7, 2
4, 3
3, 3
3, 4
6, 3
1, 4
4, 2
2, 3
1, 2
7, 4
4, 4
2, 1
1, 2
1, 10
6, 5
3, 9
4, 7
4, 8
5, 10
5, 16
4, 7
1, 19
4, 15
3, 16
2, 9
3, 15
1, 6
5, 9
7, 6
6, 6
7, 7
4, 7
2, 4
5, 4
7, 5
13, 0
3, 1
5, 1
4, 0
4, 1
7, 4
5, 2
3, 5
3, 1
4, 1
2, 1
4, 2
4, 3
5, 4
0, 1
2, 2
4, 3
2, 6
4, 5
7, 0
2, 1
3, 4
6, 2
4, 2
6, 0
1, 2
5, 2
1, 3
2, 1
4, 3
1, 3
1, 3
2, 3
2, 1
3, 2
1, 2
2, 0
7, 4
1, 2
3, 2
4, 1
3, 1
2, 3
2, 2
4, 3
3, 2
2, 3
3, 2
4, 2
4, 2
3, 1
1, 2
4, 5
3, 3
3, 0
0, 7
6, 3
1, 3
6, 2
7, 2
2, 2
6, 3
5, 2
6, 1
3, 3
5, 2
3, 0
5, 0
2, 2
3, 2
4, 2
2, 0
4, 0
3, 0
1, 1
1, 2
2, 5
3, 4
3, 1
3, 3
3, 2
2, 3
1, 4
2, 2
0, 1
0, 3
5, 2
2, 4
2, 4
4, 2
2, 3
0, 1
2, 4
2, 4
7, 0
3, 3
3, 3
3, 2
3, 6
6, 3
2, 2
3, 1
2, 3
6, 7
3, 2
2, 4
0, 0
1, 2
2, 4
3, 2
0, 3
2, 2
0, 0
2, 3
3, 1
0, 0
2, 1
1, 1
1, 1
0, 3
2, 1
4, 3
1, 1
2, 2
3, 1
5, 0
3, 0
2, 7
3, 1
2, 1
5, 2
3, 1
3, 2
1, 0
2, 0
1, 4
0, 2
1, 2
1, 2
2, 4
2, 1
0, 2
1, 0
1, 1
2, 1
0, 1
1, 1
1, 3
0, 1
1, 1
2, 0
1, 0
0, 1
1, 2
0, 0
2, 0
1, 1
2, 1
1, 1
0, 1
0, 1
2, 0
0, 1
1, 3
2, 1
0, 5
0, 1
0, 0
3, 1
1, 0
2, 1
1, 2
1, 0
2, 0
3, 1
0, 0
1, 0
0, 0
0, 0
0, 2
1, 0
0, 0
0, 0
0, 0
1, 0
0, 1
1, 2
1, 0
0, 2
2, 1
0, 0
0, 0
1, 3
0, 0
0, 0
1, 2
2, 1
0, 1
1, 0
0, 2
0, 1
0, 1
1, 1
1, 1
3, 1
1, 1
0, 0
1, 0
1, 0
1, 0
3, 0
0, 0
1, 0
1, 0
0, 0
0, 0
0, 2
0, 2
0, 0
0, 0
0, 0
0, 0
0, 1
1, 2
2, 1
0, 0
0, 0
3, 1
0, 0
0, 0
1, 1
0, 1
0, 1
0, 1
2, 0
0, 1
0, 3
1, 2
0, 1
1, 2
0, 1
0, 0
0, 2
2, 0
0, 0
0, 0
0, 0
0, 0
1, 1
0, 1
1, 0
0, 1
0, 0
1, 0
0, 0
1, 0
0, 1
0, 0
1, 0
0, 0
1, 0
0, 0
0, 2
0, 1
0, 1
1, 0
0, 1
0, 0
0, 1
0, 0
0, 1
1, 0
0, 0
1, 0
0, 0
0, 1
0, 0
0, 0
1, 1
0, 0
0, 0
0, 1
0, 0
0, 0
1, 0
0, 1
0, 2
0, 0
0, 0
0, 0
0, 0
0, 0
0, 0
0, 0
0, 0
0, 0
1, 1
0, 1
0, 0
0, 0
1, 1
1, 0
0, 0
0, 0
0, 0
1, 0
0, 0
0, 0
0, 0
1, 0
0, 0
0, 0
0, 0
2, 0
0, 1
0, 1
0, 1
0, 0
1, 0
2, 0
1, 1
1, 0
1, 0
0, 0
0, 0
1, 1
0, 0
1, 0
1, 0
2, 0
0, 0
0, 0
0, 0
0, 1
0, 1
1, 0
0, 0
0, 0
0, 0
0, 0
0, 0
1, 1
0, 0
1, 0
1, 0
0, 0
0, 0
0, 0
0, 0
0, 1
1, 0
0, 0
1, 0
0, 3
2, 0
2, 0
0, 0
0, 0
0, 0
0, 0
0, 1
0, 0
0, 3
1, 0
0, 0
1, 0
0, 0
0, 0
0, 0
1, 0
0, 0
0, 0
0, 0
0, 0
0, 0
0, 1
0, 0
0, 0
0, 0
0, 1
0, 0
0, 0
1, 0
0, 0
0, 0
0, 0
0, 0
0, 0
0, 0
0, 0
0, 0
0, 0
0, 0
0, 0
0, 0
0, 0
0, 0
0, 0
0, 0
0, 0
0, 0
0, 0
0, 0
1, 0
0, 0
0, 1
0, 0
0, 0
0, 0
2, 0
0, 1
0, 0
0, 0
0, 0
1, 0
1, 0
0, 0
0, 0
1, 0
1, 0
0, 0
0, 1
0, 0
0, 0
0, 0
0, 0
0, 0
0, 0
0, 0
1, 0
0, 0
0, 0
0, 0
0, 0
0, 1
0, 0
0, 0
0, 0
1, 0
0, 0
0, 0
0, 0
1, 0
0, 0
0, 0
0, 0
0, 0
0, 0
0, 0
0, 0
0, 1
0, 0
0, 0
0, 0
0, 0
0, 0
0, 0
1, 0
0, 0
0, 0
0, 0
0, 0
0, 0
0, 0
0, 1
0, 0
0, 0
0, 0
0, 0
0, 0
0, 0
0, 0
0, 0
0, 0
0, 0
0, 0
0, 0
0, 0
0, 0
0, 0
0, 0
0, 0
0, 0
0, 0
0, 1
0, 0
0, 0
0, 0
0, 0
0, 0
0, 0
0, 0
0, 0
0, 1
0, 0
0, 0
0, 0
0, 0
0, 0
0, 0
0, 0
0, 0
0, 0
0, 0
0, 0
0, 0
0, 0
0, 0
0, 0
0, 0
0, 1
0, 0
0, 0
0, 0
0, 0
0, 0
0, 0
0, 0
0, 0
0, 0
0, 0
0, 0
0, 0
0, 0
0, 0
0, 0
0, 0
0, 0
0, 0
0, 0
0, 0
0, 0
0, 0
0, 0
0, 0
0, 0
0, 0
0, 0
0, 0
0, 0
0, 0
0, 0
0, 0
0, 0
0, 0
0, 0
0, 0
0, 0
0, 0
0, 0
0, 0
0, 0
0, 0
0, 0
0, 0
0, 0
0, 0
0, 0
0, 0
0, 0
0, 0
0, 0
0, 0
0, 0
0, 0
0, 0
0, 0
0, 0
0, 0
0, 0
0, 0
0, 0
0, 0
0, 0
0, 0
0, 0
0, 0
0, 0
0, 0
0, 0
0, 0
0, 0
0, 0
0, 0
0, 0
0, 0
0, 0
0, 0
0, 0
0, 0
0, 0
0, 0
0, 0
0, 0
0, 0
0, 0
0, 0
0, 0
0, 0
0, 0
0, 0
0, 0
0, 0
0, 0
0, 0
0, 0
0, 0
0, 0
0, 0
0, 0
0, 0
0, 0
0, 0
0, 0
0, 0
0, 0
0, 0
0, 0
0, 0
0, 0
0, 0
0, 0
0, 0
0, 0
0, 0
0, 0
0, 0
0, 0
0, 0
0, 0
0, 0
0, 0
0, 0
0, 0
0, 0
0, 0
0, 0
0, 0
0, 0
0, 0
0, 0
0, 0
0, 0
0, 0
0, 0
0, 0
0, 0
0, 0
0, 0
0, 0
0, 0
0, 0
0, 0
0, 0
0, 0
0, 0
0, 0
0, 0
0, 0
0, 0
0, 0
0, 0
0, 0
0, 0
0, 0
0, 0
0, 0
0, 0
0, 0
0, 0
0, 0
0, 0
0, 0
0, 0
0, 0
0, 0
0, 0
0, 0
0, 0
0, 0
0, 0
0, 0
0, 0
0, 0
0, 0
0, 0
0, 0
0, 0
0, 0
0, 0
0, 0
0, 0
0, 0
0, 0
0, 0
0, 0
0, 0
0, 0
0, 0
0, 0
0, 0
0, 0
0, 0
0, 0
0, 0
0, 0
0, 0
0, 0
0, 0
0, 0
0, 0
0, 0
0, 0
0, 0
0, 0
0, 0
0, 0
0, 0
0, 0
0, 0
0, 0
0, 0
0, 0
0, 0
0, 0
0, 0
0, 0
0, 0
0, 0
0, 0
0, 0
0, 0
0, 0
0, 0
0, 0
0, 0
0, 0
0, 0
0, 0
0, 0
0, 0
0, 0
0, 0
0, 0
0, 0
0, 0
0, 0
0, 0
0, 0
0, 0
0, 0
0, 0
0, 0
0, 0
0, 0
0, 0
0, 0
0, 0
0, 0
0, 0
0, 0
0, 0
0, 0
0, 0
0, 0
0, 0
0, 0
0, 0
0, 0
0, 0
0, 0
0, 0
0, 0
0, 0
0, 0
0, 0
0, 0
0, 0
0, 0
0, 0
0, 0
0, 0
0, 0
0, 0
0, 0
0, 0
0, 0
0, 0
0, 0
0, 0
0, 0
0, 0
0, 0
0, 0
0, 0
0, 0
0, 0
0, 0
0, 0
0, 0
0, 0
0, 0
0, 0
0, 0
0, 0
0, 0
0, 0
0, 0
0, 0
0, 0
0, 0
0, 0
0, 0
0, 0
0, 0
0, 0
0, 0
0, 0
0, 0
0, 0
0, 0
0, 0
0, 0
0, 0
0, 0
0, 0
0, 0
0, 0
0, 0
0, 0
0, 0
0, 0
0, 0
0, 0
0, 0
0, 0
0, 0
0, 0
0, 0
0, 0
0, 0
0, 0
0, 0
0, 0
0, 0
0, 0
0, 0
0, 0
0, 0
0, 0
0, 0
0, 0
0, 0
0, 0
0, 0
0, 0
0, 0
0, 0
0, 0
0, 0
0, 0
0, 0
0, 0
0, 0
0, 0
0, 0
0, 0
0, 0
0, 0
0, 0
0, 0
0, 0
0, 0
0, 0
0, 0
0, 0
0, 0
0, 0
0, 0
0, 0
0, 0
0, 0
0, 0
0, 0
0, 0
0, 0
0, 0
0, 0
0, 0
0, 0
0, 0
0, 0
0, 0
0, 0
0, 0
0, 0
0, 0
0, 0
0, 0
0, 0
0, 0
0, 0
0, 0
0, 0
0, 0
0, 0
0, 0
0, 0
0, 0
0, 0
0, 0
0, 0
0, 0
0, 0
0, 0
0, 0
0, 0
0, 0
0, 0
0, 0
0, 0
0, 0
0, 0
#ENDOFDATA     end of spectrum data