File: host_upload/06-09-2024/ps_0852/dump3/ps__0852shot_2264.msa
#FORMAT      : EMSA/MAS spectral data file
#VERSION     : TC202v2.0 PIXL
#TITLE       : N/A
#DATE        :       Date in the format DD-MMM-YYYY, for example 07-JUL-2010
#TIME        :             The time of day at which the spectrum was recorded, in 24-hour format
#OWNER       : PIXL Flight Model       (PIXL will use this to indicate which instrument took the data.)
#NPOINTS     : 4096     Number of data points in the spectrum (This can be zero for configuration only files)
#NCOLUMNS    : 2     Number of data columns in the spectrum (This can be zero for configuration only files)
#XUNITS      : eV
#YUNITS      : COUNTS
#DATATYPE    : YY
#XPERCHAN    : 7.862, 7.881   eV per channel (separate by commas if more than one detector)
#OFFSET      : 18.5, -22.4         eV of first channel  (separate by commas if more than one detector
#SIGNALTYPE  : XRF
#YP_TEMP     : 2.171
#LIVETIME    : 8.55155, 8.58748   seconds (separate by commas if more than one detector)
#REALTIME    : 10, 10.0   seconds (separate by commas if more than one detector)
#SPECTRUM    : start of spectrum data
0, 0
0, 0
0, 0
0, 0
0, 0
0, 0
0, 0
0, 0
0, 0
0, 0
0, 0
0, 0
0, 0
0, 0
0, 0
0, 0
0, 0
0, 0
0, 0
0, 0
0, 0
0, 0
0, 0
0, 0
0, 0
0, 0
0, 0
0, 0
0, 0
0, 0
0, 0
1, 0
0, 0
1, 0
0, 0
0, 1
2, 0
0, 6
1, 8
3, 14
0, 12
1, 13
2, 15
1, 9
2, 8
0, 9
0, 5
2, 3
6, 7
6, 12
22, 25
39, 43
63, 73
67, 85
73, 90
81, 86
64, 56
59, 48
37, 23
15, 17
9, 11
4, 7
3, 4
2, 1
4, 5
4, 7
4, 8
14, 13
26, 22
49, 53
101, 102
184, 196
246, 306
346, 380
436, 482
413, 480
369, 396
289, 285
200, 206
124, 151
65, 76
24, 55
11, 28
14, 13
8, 8
1, 1
3, 3
0, 6
1, 3
0, 1
2, 0
2, 1
2, 4
2, 2
1, 4
4, 5
2, 1
1, 3
3, 2
2, 5
2, 1
3, 5
1, 3
4, 2
4, 8
5, 7
7, 9
3, 27
10, 59
23, 126
32, 240
34, 408
67, 591
63, 821
79, 1061
73, 1033
74, 1049
60, 897
57, 670
38, 462
28, 263
24, 177
24, 83
15, 29
16, 23
18, 11
15, 13
10, 11
15, 10
7, 4
5, 3
6, 4
1, 5
2, 5
0, 2
4, 2
2, 2
2, 1
2, 3
5, 2
1, 2
4, 1
1, 3
3, 4
2, 0
2, 2
2, 3
1, 0
1, 1
1, 3
0, 4
2, 2
2, 7
1, 8
7, 9
10, 15
11, 11
7, 20
10, 9
20, 11
8, 8
10, 6
11, 10
4, 8
4, 7
3, 15
5, 23
5, 23
9, 44
4, 51
8, 60
7, 54
10, 47
16, 44
15, 25
19, 14
21, 10
20, 7
24, 4
12, 1
9, 7
4, 3
3, 2
7, 6
4, 2
5, 2
2, 3
1, 5
2, 9
3, 9
4, 4
9, 6
5, 9
10, 8
13, 15
14, 10
13, 14
19, 21
13, 34
16, 31
11, 33
18, 42
6, 32
9, 33
7, 36
8, 32
8, 41
4, 15
5, 19
5, 10
5, 6
7, 7
7, 6
4, 9
4, 4
8, 4
5, 8
5, 8
5, 7
7, 7
3, 6
5, 4
6, 5
8, 9
3, 12
5, 8
8, 15
9, 12
10, 14
12, 7
15, 21
14, 10
20, 13
17, 12
17, 12
16, 15
26, 3
26, 10
17, 5
20, 10
21, 12
16, 12
16, 7
13, 9
17, 21
17, 18
23, 31
21, 38
39, 49
58, 59
49, 67
57, 59
46, 60
46, 56
33, 44
28, 35
30, 31
25, 23
13, 23
19, 23
19, 23
22, 42
31, 61
74, 133
148, 218
266, 381
438, 597
730, 1013
1093, 1379
1543, 1838
1805, 2251
2223, 2484
2287, 2612
2276, 2471
2083, 2083
1640, 1597
1295, 1147
908, 751
598, 490
381, 306
223, 186
114, 110
61, 83
40, 46
29, 43
32, 41
24, 40
29, 43
24, 40
23, 47
36, 41
44, 38
58, 64
83, 104
87, 144
159, 168
171, 235
215, 306
295, 343
347, 352
350, 403
306, 379
286, 270
243, 197
179, 171
134, 109
82, 71
58, 41
30, 26
16, 15
5, 6
9, 8
7, 7
5, 8
10, 15
12, 12
6, 12
16, 11
21, 10
12, 17
9, 9
6, 6
13, 3
7, 7
4, 4
6, 2
3, 8
4, 5
2, 5
5, 1
0, 2
4, 8
6, 6
4, 1
7, 4
7, 4
5, 4
9, 0
7, 3
14, 7
20, 5
14, 5
12, 8
20, 6
26, 5
29, 4
24, 4
30, 7
25, 5
24, 4
19, 4
26, 7
20, 5
17, 10
26, 3
11, 2
14, 7
9, 4
6, 1
6, 8
5, 3
2, 6
6, 5
3, 3
7, 4
8, 2
3, 6
4, 6
5, 9
5, 5
4, 5
7, 2
6, 1
1, 5
5, 1
4, 4
5, 3
5, 4
2, 3
1, 7
3, 1
6, 7
6, 5
6, 2
2, 8
2, 4
4, 4
3, 4
3, 4
5, 5
6, 3
4, 2
6, 5
4, 7
5, 9
3, 2
7, 4
6, 6
7, 7
6, 5
3, 8
4, 5
6, 4
7, 7
8, 3
0, 1
3, 2
2, 3
5, 3
3, 3
4, 0
5, 3
6, 4
3, 2
1, 4
1, 3
4, 3
5, 4
3, 2
2, 2
4, 2
3, 6
3, 1
2, 4
1, 4
5, 2
0, 4
3, 4
2, 5
3, 4
6, 1
1, 1
0, 4
3, 3
2, 6
0, 3
2, 3
2, 3
3, 4
2, 4
2, 1
1, 6
4, 6
7, 3
6, 2
6, 2
2, 2
6, 4
4, 2
2, 4
5, 2
5, 1
3, 5
4, 8
4, 6
5, 6
4, 3
4, 8
5, 9
2, 8
1, 13
2, 7
6, 7
2, 3
1, 6
2, 6
3, 3
1, 3
4, 4
5, 3
5, 2
1, 0
5, 2
4, 3
3, 3
4, 2
0, 5
2, 2
5, 2
2, 2
1, 1
2, 2
3, 1
0, 3
3, 3
1, 2
2, 3
2, 1
1, 0
1, 3
0, 4
4, 1
2, 2
2, 5
0, 2
2, 2
3, 2
4, 5
3, 2
1, 0
5, 3
0, 3
3, 3
3, 4
1, 5
2, 2
1, 6
0, 5
1, 2
1, 6
0, 1
3, 6
1, 4
3, 4
4, 3
1, 3
2, 4
1, 2
2, 5
4, 2
3, 0
2, 1
1, 2
3, 2
3, 1
1, 3
1, 2
2, 4
1, 2
2, 1
2, 6
5, 5
2, 2
0, 2
1, 4
4, 1
4, 4
2, 2
5, 3
2, 1
2, 1
7, 4
3, 2
8, 3
4, 6
6, 1
5, 3
5, 2
5, 2
1, 3
2, 4
2, 0
2, 4
1, 2
0, 1
2, 0
0, 0
1, 2
1, 0
4, 1
0, 1
3, 2
1, 2
3, 7
1, 1
1, 2
0, 4
3, 0
1, 1
3, 5
1, 2
4, 1
0, 1
3, 1
0, 6
4, 1
1, 2
4, 1
0, 0
1, 2
1, 0
2, 1
0, 0
1, 1
2, 1
1, 2
0, 1
1, 1
0, 0
0, 1
1, 0
0, 2
0, 0
1, 1
2, 0
0, 0
3, 1
0, 0
1, 1
0, 1
3, 1
2, 2
1, 3
1, 0
1, 2
1, 1
1, 1
1, 1
3, 0
0, 1
0, 2
2, 1
2, 0
1, 2
1, 0
1, 1
2, 5
0, 0
0, 1
1, 2
0, 0
2, 2
1, 4
0, 0
2, 1
0, 0
2, 2
2, 0
1, 0
0, 0
0, 1
0, 0
0, 0
2, 1
1, 2
0, 0
0, 0
0, 1
0, 0
1, 0
1, 0
0, 0
0, 0
0, 1
1, 0
1, 0
1, 0
1, 2
0, 0
1, 1
1, 2
0, 1
0, 0
0, 0
0, 2
1, 0
1, 1
1, 2
0, 1
0, 0
0, 0
1, 0
0, 0
1, 1
1, 0
1, 4
0, 1
0, 1
2, 1
0, 0
1, 0
0, 1
1, 0
0, 0
0, 0
1, 1
2, 0
0, 1
0, 0
0, 0
0, 1
0, 1
0, 0
1, 3
0, 0
0, 0
1, 0
1, 2
1, 0
1, 0
0, 1
0, 0
0, 1
0, 0
1, 0
0, 0
1, 0
0, 0
0, 1
0, 1
0, 0
0, 1
0, 0
0, 1
1, 1
0, 0
0, 0
0, 0
0, 0
1, 0
0, 0
2, 0
0, 0
1, 0
0, 1
1, 0
0, 1
0, 0
0, 0
1, 1
0, 0
1, 0
0, 0
0, 2
0, 0
0, 0
1, 0
1, 0
0, 0
0, 0
1, 0
0, 0
1, 0
0, 0
0, 0
0, 0
0, 1
0, 0
1, 0
0, 0
0, 0
0, 0
0, 0
1, 1
0, 1
0, 0
1, 0
0, 2
0, 1
0, 0
0, 0
0, 1
0, 0
0, 0
1, 0
0, 0
0, 1
0, 0
1, 0
0, 0
1, 0
0, 1
0, 1
0, 0
0, 0
0, 1
0, 1
0, 1
0, 0
0, 0
2, 1
1, 0
0, 0
0, 0
0, 0
0, 1
0, 1
0, 0
0, 0
1, 0
0, 0
0, 2
0, 0
0, 0
0, 1
0, 1
0, 0
0, 0
1, 0
0, 0
0, 0
0, 0
0, 0
0, 1
0, 0
0, 0
0, 0
0, 1
1, 0
0, 0
1, 0
0, 1
0, 1
1, 0
0, 0
0, 0
0, 0
0, 0
0, 0
0, 1
0, 0
0, 0
0, 0
0, 0
0, 0
0, 1
1, 0
0, 0
0, 1
0, 0
1, 0
0, 0
0, 0
0, 0
1, 0
0, 0
0, 0
1, 0
0, 1
0, 1
0, 0
0, 0
0, 0
0, 0
0, 0
0, 0
0, 0
0, 0
0, 0
0, 1
1, 0
0, 0
1, 0
0, 0
0, 0
1, 0
0, 0
0, 0
0, 0
0, 0
0, 0
0, 0
0, 0
0, 0
0, 0
1, 0
1, 0
2, 0
0, 0
0, 0
0, 1
1, 1
1, 1
1, 0
0, 0
0, 0
0, 0
1, 0
0, 0
1, 1
0, 0
0, 0
0, 0
0, 0
0, 0
0, 0
0, 0
0, 0
0, 0
0, 0
1, 0
0, 0
0, 0
0, 0
0, 0
0, 0
1, 0
0, 0
0, 0
0, 0
0, 0
0, 0
0, 0
0, 0
0, 0
0, 0
0, 0
0, 0
0, 0
0, 0
0, 0
0, 0
0, 0
0, 0
0, 0
0, 0
0, 0
0, 0
0, 0
0, 0
0, 0
0, 0
0, 0
0, 0
0, 0
0, 0
0, 0
0, 0
0, 0
0, 0
0, 0
0, 0
0, 0
0, 0
0, 0
0, 0
0, 0
0, 0
0, 0
0, 0
0, 0
0, 0
1, 0
0, 0
0, 0
0, 0
0, 0
0, 0
0, 0
0, 0
0, 0
0, 0
0, 0
0, 0
0, 0
0, 0
0, 0
0, 0
0, 0
0, 0
0, 0
0, 0
0, 0
0, 0
0, 0
0, 0
0, 0
0, 0
0, 0
0, 0
0, 0
0, 0
0, 0
0, 0
0, 0
0, 0
0, 0
0, 0
0, 0
0, 0
0, 0
0, 0
0, 0
0, 0
0, 0
0, 0
0, 0
0, 0
0, 0
0, 0
0, 0
0, 0
0, 0
0, 0
0, 0
0, 0
0, 0
0, 0
1, 0
0, 0
0, 0
0, 0
0, 0
0, 0
0, 0
0, 0
0, 0
0, 0
0, 0
0, 0
0, 1
0, 0
0, 0
0, 0
0, 0
0, 0
0, 0
0, 0
0, 0
0, 0
0, 0
0, 0
0, 1
0, 0
0, 0
0, 0
0, 0
0, 0
0, 0
0, 0
0, 0
0, 0
0, 0
0, 0
0, 0
0, 0
0, 0
0, 0
0, 0
0, 0
0, 0
0, 0
0, 0
0, 0
0, 0
0, 0
0, 0
0, 0
0, 0
0, 0
0, 0
0, 0
0, 0
0, 0
0, 0
0, 0
0, 0
0, 0
0, 0
0, 0
0, 0
0, 0
0, 0
0, 0
0, 0
0, 0
0, 0
0, 0
0, 0
0, 0
0, 0
0, 0
0, 0
0, 0
0, 0
0, 0
0, 0
0, 0
0, 0
0, 0
0, 0
0, 0
0, 0
0, 0
0, 0
0, 0
0, 0
0, 0
0, 0
0, 0
0, 0
0, 0
0, 0
0, 0
0, 0
0, 0
0, 0
0, 0
0, 0
0, 0
0, 0
0, 0
0, 0
0, 0
0, 0
0, 0
0, 0
0, 0
0, 0
0, 0
0, 0
0, 0
0, 0
0, 0
0, 0
0, 0
0, 0
0, 0
0, 0
0, 0
0, 0
0, 0
0, 0
0, 0
0, 0
0, 0
0, 0
0, 0
0, 0
0, 0
0, 0
0, 0
0, 0
0, 0
0, 0
0, 0
0, 0
0, 0
0, 0
0, 0
0, 0
0, 0
0, 0
0, 0
0, 0
0, 0
0, 0
0, 0
0, 0
0, 0
0, 0
0, 0
0, 0
0, 0
0, 0
0, 0
0, 0
0, 0
0, 0
0, 0
0, 0
0, 0
0, 0
0, 0
0, 0
0, 0
0, 0
0, 0
0, 0
0, 0
0, 0
0, 0
0, 0
0, 0
0, 0
0, 0
0, 0
0, 0
0, 0
0, 0
0, 0
0, 0
0, 0
0, 0
0, 0
0, 0
0, 0
0, 0
0, 0
0, 0
0, 0
0, 0
0, 0
0, 0
0, 0
0, 0
0, 0
0, 0
0, 0
0, 0
0, 0
0, 0
0, 0
0, 0
0, 0
0, 0
0, 0
0, 0
0, 0
0, 0
0, 0
0, 0
0, 0
0, 0
0, 0
0, 0
0, 0
0, 0
0, 0
0, 0
0, 0
0, 0
0, 0
0, 0
0, 0
0, 0
0, 0
0, 0
0, 0
0, 0
0, 0
0, 0
0, 0
0, 0
0, 0
0, 0
0, 0
0, 0
0, 0
0, 0
0, 0
0, 0
0, 0
0, 0
0, 0
0, 0
0, 0
0, 0
0, 0
0, 0
0, 0
0, 0
0, 0
0, 0
0, 0
0, 0
0, 0
0, 0
0, 0
0, 0
0, 0
0, 0
0, 0
0, 0
0, 0
0, 0
0, 0
0, 0
0, 0
0, 0
0, 0
0, 0
0, 0
0, 0
0, 0
0, 0
0, 0
0, 0
0, 0
0, 0
0, 0
0, 0
0, 0
0, 0
0, 0
0, 0
0, 0
0, 0
0, 0
0, 0
0, 0
0, 0
0, 0
0, 0
0, 0
0, 0
0, 0
0, 0
0, 0
0, 0
0, 0
0, 0
0, 0
0, 0
0, 0
0, 0
0, 0
0, 0
0, 0
0, 0
0, 0
0, 0
0, 0
0, 0
0, 0
0, 0
0, 0
0, 0
0, 0
0, 0
0, 0
0, 0
0, 0
0, 0
0, 0
0, 0
0, 0
0, 0
0, 0
0, 0
0, 0
0, 0
0, 0
0, 0
0, 0
0, 0
0, 0
0, 0
0, 0
0, 0
0, 0
0, 0
0, 0
0, 0
0, 0
0, 0
0, 0
0, 0
0, 0
0, 0
0, 0
0, 0
0, 0
0, 0
0, 0
0, 0
0, 0
0, 0
0, 0
0, 0
0, 0
0, 0
0, 0
0, 0
0, 0
0, 0
0, 0
0, 0
0, 0
0, 0
0, 0
0, 0
0, 0
0, 0
0, 0
0, 0
#ENDOFDATA     end of spectrum data