File: host_upload/06-09-2024/ps_0852/dump3/ps__0852shot_2515.msa
#FORMAT      : EMSA/MAS spectral data file
#VERSION     : TC202v2.0 PIXL
#TITLE       : N/A
#DATE        :       Date in the format DD-MMM-YYYY, for example 07-JUL-2010
#TIME        :             The time of day at which the spectrum was recorded, in 24-hour format
#OWNER       : PIXL Flight Model       (PIXL will use this to indicate which instrument took the data.)
#NPOINTS     : 4096     Number of data points in the spectrum (This can be zero for configuration only files)
#NCOLUMNS    : 2     Number of data columns in the spectrum (This can be zero for configuration only files)
#XUNITS      : eV
#YUNITS      : COUNTS
#DATATYPE    : YY
#XPERCHAN    : 7.862, 7.881   eV per channel (separate by commas if more than one detector)
#OFFSET      : 18.5, -22.4         eV of first channel  (separate by commas if more than one detector
#SIGNALTYPE  : XRF
#YP_TEMP     : 2.203
#LIVETIME    : 8.55764, 8.54831   seconds (separate by commas if more than one detector)
#REALTIME    : 10, 10.0   seconds (separate by commas if more than one detector)
#SPECTRUM    : start of spectrum data
0, 0
0, 0
0, 0
0, 0
0, 0
0, 0
0, 0
0, 0
0, 0
0, 0
0, 0
0, 0
0, 0
0, 0
0, 0
0, 0
0, 0
0, 0
0, 0
0, 0
0, 0
0, 0
0, 0
0, 0
0, 0
0, 0
0, 0
0, 0
0, 0
0, 0
0, 0
0, 0
0, 0
0, 0
0, 1
1, 1
0, 2
0, 1
2, 1
4, 0
0, 3
0, 1
3, 2
2, 3
3, 5
1, 0
1, 2
1, 2
4, 6
11, 17
14, 18
36, 37
49, 47
58, 72
70, 83
60, 74
40, 55
28, 30
23, 20
12, 17
5, 9
5, 4
6, 3
2, 4
1, 9
8, 7
11, 4
14, 6
15, 24
30, 42
61, 99
109, 127
181, 206
224, 289
278, 332
309, 345
231, 288
175, 206
128, 159
92, 82
37, 57
26, 21
15, 15
8, 13
7, 4
4, 4
4, 3
5, 4
8, 6
5, 5
9, 7
10, 17
33, 35
48, 56
113, 135
168, 193
254, 312
367, 403
374, 469
402, 467
338, 426
276, 336
203, 265
126, 154
83, 102
59, 60
51, 64
52, 45
53, 50
53, 62
64, 71
93, 88
100, 95
91, 121
100, 98
83, 73
76, 73
70, 69
52, 60
35, 43
36, 34
33, 32
31, 31
35, 34
16, 23
18, 15
16, 20
13, 23
12, 11
10, 8
5, 6
6, 6
7, 4
4, 8
3, 4
6, 5
3, 4
8, 8
9, 11
17, 13
15, 14
15, 21
19, 15
20, 20
7, 15
16, 4
15, 6
5, 1
9, 9
12, 4
13, 5
17, 6
16, 9
20, 11
19, 19
20, 18
24, 27
14, 22
21, 25
19, 16
13, 17
10, 11
5, 11
0, 8
6, 9
6, 8
4, 14
10, 17
5, 12
8, 14
11, 8
7, 10
12, 10
4, 6
8, 8
11, 8
9, 7
5, 8
5, 12
5, 9
8, 14
3, 16
8, 17
1, 20
6, 20
2, 24
3, 36
4, 63
8, 86
7, 96
15, 142
10, 95
9, 119
10, 93
15, 97
19, 60
10, 54
14, 36
8, 27
11, 22
11, 23
8, 15
7, 13
16, 9
7, 6
10, 7
7, 13
3, 16
6, 15
8, 22
4, 19
4, 31
2, 19
11, 20
9, 17
5, 16
5, 9
4, 9
4, 17
6, 10
7, 11
11, 7
10, 4
5, 6
3, 10
7, 10
6, 11
14, 9
7, 16
15, 14
15, 25
17, 13
17, 20
5, 13
11, 10
11, 7
8, 8
8, 11
11, 6
5, 6
12, 9
8, 8
18, 11
12, 14
14, 13
21, 28
23, 32
44, 46
34, 61
52, 68
74, 65
61, 68
63, 64
42, 64
45, 44
43, 33
29, 19
25, 21
15, 13
11, 21
17, 19
24, 30
43, 61
64, 117
143, 203
244, 360
457, 618
676, 950
1014, 1335
1384, 1813
1748, 2162
2045, 2448
2217, 2538
2066, 2309
1869, 2026
1520, 1527
1244, 1084
813, 745
521, 433
297, 233
174, 121
88, 81
51, 45
28, 30
21, 22
17, 13
8, 10
16, 19
19, 21
21, 18
20, 32
30, 34
46, 54
68, 86
112, 118
140, 170
184, 235
242, 292
253, 351
317, 415
349, 417
324, 362
295, 297
239, 222
176, 168
124, 109
91, 77
49, 43
33, 28
22, 15
12, 15
7, 3
5, 12
7, 12
8, 14
8, 13
13, 13
14, 7
9, 12
11, 17
12, 11
12, 13
10, 8
10, 1
9, 7
10, 4
13, 6
10, 6
15, 4
8, 7
8, 4
9, 6
6, 3
7, 5
4, 5
8, 3
8, 5
7, 7
2, 4
7, 3
4, 8
5, 4
3, 8
6, 4
3, 5
4, 7
7, 8
5, 5
4, 10
8, 9
5, 13
8, 5
13, 14
8, 14
4, 14
5, 13
6, 15
7, 21
5, 14
2, 12
3, 12
4, 10
7, 9
8, 5
2, 8
10, 7
3, 5
6, 7
9, 10
4, 9
8, 6
3, 8
5, 6
7, 8
8, 8
5, 3
1, 7
4, 4
6, 14
4, 9
4, 11
14, 8
2, 9
9, 13
9, 11
10, 13
14, 10
11, 11
9, 9
9, 5
9, 6
7, 6
8, 2
4, 5
2, 5
8, 4
7, 3
1, 7
3, 4
6, 12
4, 3
3, 4
7, 5
8, 2
5, 5
6, 4
3, 6
7, 2
4, 3
5, 6
4, 0
2, 6
3, 5
2, 3
3, 5
1, 9
2, 7
3, 4
4, 2
5, 8
3, 5
3, 4
2, 6
8, 5
1, 11
3, 1
3, 2
5, 3
3, 4
5, 5
4, 1
5, 3
2, 4
5, 5
3, 1
3, 1
4, 8
2, 2
2, 3
1, 3
1, 2
3, 0
3, 2
2, 3
1, 3
4, 3
1, 4
3, 1
6, 4
1, 2
2, 4
4, 4
1, 1
2, 3
2, 3
5, 1
2, 3
6, 3
3, 1
2, 4
1, 2
1, 3
3, 2
5, 4
4, 2
5, 3
0, 1
3, 3
4, 1
1, 10
5, 2
1, 1
0, 3
3, 7
4, 1
1, 2
2, 6
4, 1
1, 3
4, 3
1, 0
1, 3
3, 1
3, 4
3, 1
2, 3
2, 1
3, 0
3, 0
3, 2
2, 1
0, 3
1, 2
2, 4
3, 4
2, 6
1, 3
3, 5
0, 3
4, 6
2, 1
2, 5
2, 5
1, 5
1, 1
3, 1
1, 7
2, 1
0, 3
2, 0
2, 0
0, 1
0, 2
2, 2
2, 2
1, 1
4, 4
2, 1
2, 5
4, 6
1, 2
2, 3
2, 1
3, 3
3, 6
1, 3
2, 2
3, 2
1, 5
0, 2
1, 3
0, 1
1, 4
1, 1
2, 2
3, 4
3, 3
3, 3
4, 3
5, 3
4, 8
4, 7
2, 5
3, 6
6, 8
3, 2
1, 1
4, 3
5, 1
5, 1
5, 3
2, 1
4, 1
3, 1
0, 0
0, 1
2, 0
0, 1
1, 0
0, 0
3, 2
2, 3
2, 2
3, 0
1, 3
1, 0
2, 2
2, 2
2, 3
1, 2
3, 4
3, 7
3, 1
1, 0
1, 2
1, 3
0, 1
0, 1
1, 0
1, 2
3, 1
0, 3
0, 0
1, 0
0, 0
1, 1
1, 4
0, 2
2, 0
0, 1
2, 1
0, 0
0, 0
2, 1
0, 1
2, 2
3, 1
1, 2
0, 1
2, 1
2, 0
2, 0
1, 2
0, 0
2, 0
0, 0
0, 1
1, 1
0, 0
0, 1
2, 1
0, 1
3, 0
0, 0
0, 0
1, 0
1, 1
1, 0
1, 0
0, 0
0, 1
1, 1
0, 0
1, 1
1, 1
1, 0
1, 0
0, 2
0, 0
0, 0
2, 0
0, 0
0, 1
0, 0
1, 0
0, 1
2, 0
0, 0
1, 2
0, 0
1, 1
1, 0
1, 1
2, 2
0, 0
0, 3
0, 1
0, 0
0, 3
3, 0
0, 0
1, 0
0, 0
3, 0
0, 1
0, 2
0, 0
2, 0
1, 1
3, 2
0, 0
0, 0
0, 0
0, 2
0, 1
1, 2
1, 0
0, 1
1, 0
0, 0
1, 0
0, 0
0, 1
3, 0
1, 0
0, 1
1, 0
0, 1
0, 2
0, 0
1, 0
0, 0
0, 0
1, 1
0, 1
1, 2
1, 0
0, 0
1, 0
0, 1
1, 0
0, 0
0, 1
2, 1
0, 0
1, 0
0, 1
1, 0
0, 1
0, 0
1, 0
0, 2
0, 2
0, 1
0, 0
0, 1
0, 0
0, 0
0, 1
0, 0
0, 0
1, 0
0, 0
0, 1
0, 0
1, 0
0, 0
0, 2
0, 0
1, 0
0, 1
1, 2
1, 0
0, 1
0, 0
1, 0
0, 0
0, 0
0, 0
0, 1
0, 0
0, 0
0, 0
0, 0
1, 0
2, 0
1, 0
0, 0
0, 1
1, 1
0, 0
0, 0
0, 0
1, 0
0, 0
1, 0
1, 0
0, 0
0, 1
0, 0
0, 0
1, 0
0, 0
0, 1
0, 0
1, 0
0, 0
1, 0
0, 0
1, 1
0, 0
0, 0
1, 0
0, 0
0, 1
0, 0
1, 0
0, 0
0, 0
0, 0
0, 0
0, 0
0, 0
0, 1
1, 0
0, 0
1, 1
0, 1
0, 0
0, 1
1, 1
0, 0
1, 0
0, 1
0, 0
0, 0
0, 1
0, 1
1, 0
0, 0
0, 0
0, 0
1, 1
1, 0
0, 0
0, 0
0, 1
0, 0
0, 0
0, 0
0, 0
0, 0
0, 2
0, 2
0, 0
0, 0
0, 0
0, 0
0, 0
0, 1
0, 1
0, 0
0, 0
0, 0
0, 0
0, 2
0, 0
0, 0
0, 0
0, 0
0, 0
0, 0
0, 0
0, 1
0, 0
0, 0
0, 0
0, 0
0, 0
1, 0
0, 0
0, 0
0, 1
1, 1
0, 0
0, 0
0, 0
0, 0
0, 0
0, 0
0, 0
0, 0
0, 0
0, 0
0, 0
0, 0
0, 0
0, 0
0, 0
0, 0
0, 0
1, 0
0, 1
0, 2
1, 1
0, 0
0, 0
0, 0
0, 0
0, 0
0, 1
0, 0
1, 1
1, 0
0, 0
0, 0
0, 0
0, 0
0, 0
0, 0
0, 0
1, 0
0, 0
0, 0
0, 0
0, 0
0, 0
0, 0
0, 0
0, 0
0, 0
0, 0
0, 0
0, 0
0, 0
0, 0
0, 0
0, 0
1, 0
0, 0
0, 0
0, 0
1, 0
0, 0
0, 0
0, 0
0, 0
0, 0
0, 0
0, 0
0, 0
0, 0
0, 0
0, 0
0, 0
0, 0
0, 0
0, 0
0, 0
0, 0
0, 0
0, 0
0, 0
0, 1
0, 0
0, 0
0, 0
1, 0
0, 0
0, 0
0, 0
0, 0
0, 0
0, 0
0, 0
0, 0
0, 0
0, 0
0, 0
0, 0
0, 1
0, 0
0, 0
0, 0
0, 0
0, 0
0, 0
0, 0
0, 0
0, 0
1, 0
0, 0
0, 0
0, 0
0, 0
0, 0
0, 0
0, 0
0, 0
0, 0
0, 0
0, 0
0, 0
1, 0
0, 0
0, 0
0, 0
0, 0
0, 0
0, 0
0, 0
0, 0
0, 0
0, 0
0, 0
0, 0
1, 0
0, 0
0, 0
0, 0
0, 0
0, 0
0, 0
0, 0
0, 0
0, 0
0, 0
0, 0
0, 0
0, 0
0, 0
0, 0
1, 0
0, 0
0, 0
0, 0
0, 0
0, 0
0, 0
0, 0
0, 0
0, 0
0, 0
0, 0
0, 0
0, 0
0, 0
0, 0
0, 0
0, 0
0, 0
0, 0
0, 0
0, 0
0, 0
0, 0
0, 0
0, 0
1, 0
0, 0
0, 0
0, 0
0, 0
0, 0
0, 0
0, 0
0, 0
0, 0
0, 1
0, 0
0, 0
0, 0
0, 0
0, 0
0, 0
0, 0
0, 0
0, 0
0, 0
0, 0
0, 0
0, 0
0, 0
0, 0
0, 0
0, 0
0, 0
0, 0
0, 0
0, 0
0, 0
0, 0
0, 0
0, 0
0, 0
0, 0
0, 0
0, 0
0, 0
0, 0
0, 0
0, 0
0, 0
0, 0
0, 0
0, 0
0, 0
0, 0
0, 0
0, 0
0, 0
0, 0
0, 0
0, 0
0, 0
0, 0
0, 0
0, 0
0, 0
0, 0
0, 0
0, 0
0, 0
0, 0
0, 0
0, 0
0, 0
0, 0
0, 0
0, 0
0, 0
0, 0
0, 0
0, 0
0, 0
0, 0
0, 0
0, 0
0, 0
0, 0
0, 0
0, 0
0, 0
0, 0
0, 0
0, 0
0, 0
0, 0
0, 0
0, 0
0, 0
0, 0
0, 0
0, 0
0, 0
0, 0
0, 0
0, 0
0, 0
0, 0
0, 0
0, 0
0, 0
0, 0
0, 0
0, 0
0, 0
0, 0
0, 0
0, 0
0, 0
0, 0
0, 0
0, 0
0, 0
0, 0
0, 0
0, 0
0, 0
0, 0
0, 0
0, 0
0, 0
0, 0
0, 0
0, 0
0, 0
0, 0
0, 0
0, 0
0, 0
0, 0
0, 0
0, 0
0, 0
0, 0
0, 0
0, 0
0, 0
0, 0
0, 0
0, 0
0, 0
0, 0
0, 0
0, 0
0, 0
0, 0
0, 0
0, 0
0, 0
0, 0
0, 0
0, 0
0, 0
0, 0
0, 0
0, 0
0, 0
0, 0
0, 0
0, 0
0, 0
0, 0
0, 0
0, 0
0, 0
0, 0
0, 0
0, 0
0, 0
0, 0
0, 0
0, 0
0, 0
0, 0
0, 0
0, 0
0, 0
0, 0
0, 0
0, 0
0, 0
0, 0
0, 0
0, 0
0, 0
0, 0
0, 0
0, 0
0, 0
0, 0
0, 0
0, 0
0, 0
0, 0
0, 0
0, 0
0, 0
0, 0
0, 0
0, 0
0, 0
0, 0
0, 0
0, 0
0, 0
0, 0
0, 0
0, 0
0, 0
0, 0
0, 0
0, 0
0, 0
0, 0
0, 0
0, 0
0, 0
0, 0
0, 0
0, 0
0, 0
0, 0
0, 0
0, 0
0, 0
0, 0
0, 0
0, 0
0, 0
0, 0
0, 0
0, 0
0, 0
0, 0
0, 0
0, 0
0, 0
0, 0
0, 0
0, 0
0, 0
0, 0
0, 0
0, 0
0, 0
0, 0
0, 0
0, 0
0, 0
0, 0
0, 0
0, 0
0, 0
0, 0
0, 0
0, 0
0, 0
0, 0
0, 0
0, 0
0, 0
0, 0
0, 0
0, 0
0, 0
0, 0
0, 0
0, 0
0, 0
0, 0
0, 0
0, 0
0, 0
0, 0
0, 0
0, 0
0, 0
0, 0
0, 0
0, 0
0, 0
0, 0
0, 0
0, 0
0, 0
0, 0
0, 0
0, 0
0, 0
0, 0
0, 0
0, 0
0, 0
0, 0
0, 0
0, 0
0, 0
0, 0
0, 0
0, 0
0, 0
0, 0
0, 0
0, 0
0, 0
0, 0
0, 0
0, 0
0, 0
0, 0
0, 0
0, 0
0, 0
0, 0
0, 0
0, 0
0, 0
0, 0
0, 0
0, 0
0, 0
0, 0
0, 0
0, 0
0, 0
0, 0
0, 0
0, 0
0, 0
0, 0
0, 0
0, 0
0, 0
0, 0
0, 0
0, 0
0, 0
0, 0
0, 0
0, 0
0, 0
0, 0
0, 0
0, 0
0, 0
0, 0
0, 0
0, 0
0, 0
0, 0
0, 0
0, 0
0, 0
0, 0
#ENDOFDATA     end of spectrum data