File: host_upload/06-09-2024/ps_0852/dump3/ps__0852shot_2245.msa
#FORMAT      : EMSA/MAS spectral data file
#VERSION     : TC202v2.0 PIXL
#TITLE       : N/A
#DATE        :       Date in the format DD-MMM-YYYY, for example 07-JUL-2010
#TIME        :             The time of day at which the spectrum was recorded, in 24-hour format
#OWNER       : PIXL Flight Model       (PIXL will use this to indicate which instrument took the data.)
#NPOINTS     : 4096     Number of data points in the spectrum (This can be zero for configuration only files)
#NCOLUMNS    : 2     Number of data columns in the spectrum (This can be zero for configuration only files)
#XUNITS      : eV
#YUNITS      : COUNTS
#DATATYPE    : YY
#XPERCHAN    : 7.862, 7.881   eV per channel (separate by commas if more than one detector)
#OFFSET      : 18.5, -22.4         eV of first channel  (separate by commas if more than one detector
#SIGNALTYPE  : XRF
#YP_TEMP     : 2.235
#LIVETIME    : 8.58036, 8.57194   seconds (separate by commas if more than one detector)
#REALTIME    : 10, 10.0   seconds (separate by commas if more than one detector)
#SPECTRUM    : start of spectrum data
0, 0
0, 0
0, 0
0, 0
0, 0
0, 0
0, 0
0, 0
0, 0
0, 0
0, 0
0, 0
0, 0
0, 0
0, 0
0, 0
0, 0
0, 0
0, 0
0, 0
0, 0
0, 0
0, 0
0, 0
0, 0
0, 0
0, 0
0, 0
0, 0
0, 0
0, 0
0, 0
0, 0
1, 1
1, 0
1, 0
0, 1
0, 0
0, 0
0, 1
1, 1
2, 2
1, 2
0, 3
1, 0
1, 4
1, 0
2, 7
4, 5
12, 7
30, 28
45, 36
70, 57
80, 58
77, 61
77, 63
70, 51
52, 37
26, 19
23, 10
6, 6
5, 1
1, 9
5, 2
2, 3
6, 0
6, 4
10, 7
17, 17
55, 49
89, 88
190, 162
291, 254
362, 324
446, 376
431, 366
378, 329
342, 273
235, 181
137, 95
80, 76
38, 33
17, 23
8, 7
4, 4
3, 7
6, 5
5, 4
1, 3
2, 2
2, 1
2, 2
1, 3
3, 0
2, 1
2, 5
2, 1
2, 7
5, 5
3, 3
3, 3
8, 1
3, 4
1, 2
3, 4
5, 5
5, 7
6, 13
5, 13
14, 11
24, 24
24, 31
39, 41
59, 41
57, 51
84, 52
68, 43
61, 47
59, 42
55, 24
46, 35
34, 25
45, 33
21, 32
20, 33
18, 24
17, 17
18, 16
14, 14
9, 15
6, 11
6, 6
4, 2
0, 6
3, 2
1, 6
0, 2
1, 0
3, 1
5, 5
6, 2
4, 4
5, 5
2, 2
4, 3
1, 6
1, 7
3, 8
6, 6
1, 9
3, 3
10, 3
12, 8
14, 11
21, 11
16, 20
23, 15
16, 19
18, 12
15, 20
18, 11
9, 7
8, 7
5, 3
6, 5
7, 5
1, 5
5, 2
3, 2
4, 1
2, 9
7, 8
1, 5
8, 7
3, 7
5, 4
3, 7
2, 9
5, 3
3, 5
2, 4
8, 3
4, 7
5, 8
2, 2
6, 5
8, 6
5, 3
7, 7
13, 7
11, 14
12, 10
10, 15
19, 21
18, 24
15, 26
18, 29
24, 16
22, 25
23, 17
12, 16
13, 10
9, 9
12, 11
9, 5
12, 7
13, 4
6, 2
9, 4
5, 5
5, 8
6, 10
5, 9
4, 6
6, 12
6, 17
6, 15
7, 14
11, 12
9, 11
6, 10
8, 8
6, 7
10, 6
28, 6
19, 8
20, 12
26, 16
16, 7
17, 18
25, 18
27, 10
19, 20
20, 8
10, 7
12, 9
19, 13
23, 9
23, 26
24, 36
21, 34
13, 39
14, 43
14, 57
18, 38
21, 48
26, 68
34, 52
59, 72
61, 76
73, 54
80, 73
70, 37
57, 48
66, 33
36, 35
29, 31
25, 25
26, 13
30, 23
33, 22
34, 34
50, 65
105, 104
180, 192
323, 348
543, 556
828, 894
1192, 1340
1610, 1684
2328, 2108
2376, 2422
2548, 2350
2481, 2274
2246, 1850
1867, 1412
1386, 1050
1000, 716
632, 400
428, 250
237, 129
134, 56
72, 29
52, 27
26, 17
30, 20
22, 22
27, 22
26, 20
29, 33
29, 38
33, 44
56, 58
73, 98
114, 131
148, 167
204, 213
262, 299
315, 324
371, 393
358, 341
349, 308
347, 266
258, 180
232, 166
153, 110
87, 64
50, 45
41, 27
30, 18
16, 19
7, 7
14, 11
9, 20
11, 21
18, 15
9, 17
10, 12
18, 22
17, 13
17, 10
17, 10
10, 4
5, 6
11, 3
4, 5
6, 4
4, 4
3, 1
3, 4
5, 5
2, 5
4, 5
7, 3
5, 5
5, 5
7, 4
13, 4
7, 7
6, 4
8, 8
6, 3
10, 7
10, 8
4, 5
5, 7
11, 7
11, 6
12, 5
5, 3
10, 12
9, 5
6, 4
4, 6
7, 7
4, 4
9, 7
8, 4
3, 6
6, 8
4, 8
6, 6
3, 6
4, 5
1, 7
10, 9
6, 9
6, 4
4, 4
6, 6
8, 6
1, 7
5, 3
6, 4
6, 6
5, 4
8, 3
6, 3
6, 2
12, 4
14, 4
8, 3
6, 4
9, 1
11, 5
10, 1
12, 2
11, 1
2, 6
7, 7
9, 1
6, 6
9, 5
11, 0
11, 1
9, 5
9, 1
13, 6
11, 7
12, 5
5, 1
4, 2
7, 5
2, 8
4, 8
6, 4
5, 3
4, 5
4, 4
4, 4
4, 8
2, 3
9, 4
4, 3
6, 4
4, 1
4, 1
2, 2
6, 6
6, 3
3, 7
3, 3
4, 8
3, 7
4, 4
3, 4
2, 5
4, 7
3, 12
3, 7
7, 12
4, 8
0, 6
5, 8
4, 6
2, 11
1, 10
3, 9
2, 8
3, 5
3, 9
1, 4
3, 3
3, 4
3, 4
2, 7
7, 7
1, 3
1, 1
5, 0
3, 1
3, 1
2, 2
3, 5
1, 2
2, 2
3, 2
3, 5
1, 0
5, 1
3, 5
9, 4
2, 1
2, 1
1, 4
1, 2
5, 6
3, 4
4, 2
4, 2
0, 1
2, 1
4, 2
0, 0
2, 1
1, 4
3, 4
2, 1
2, 2
3, 1
4, 3
1, 3
4, 1
2, 3
4, 2
4, 2
5, 5
2, 2
4, 2
2, 4
5, 5
1, 1
5, 2
1, 0
1, 1
0, 3
3, 5
0, 4
2, 5
4, 3
3, 1
3, 5
2, 1
3, 3
4, 3
1, 3
4, 1
4, 5
3, 1
2, 0
2, 2
4, 1
3, 4
1, 0
3, 2
2, 2
2, 2
5, 2
1, 1
3, 4
5, 2
0, 2
1, 1
1, 0
3, 1
2, 3
1, 1
1, 0
1, 2
3, 4
0, 2
3, 3
1, 2
1, 1
2, 0
3, 1
4, 4
3, 4
1, 3
2, 5
4, 1
2, 3
5, 2
1, 4
7, 3
6, 3
4, 0
3, 3
5, 2
4, 2
3, 1
3, 3
4, 2
1, 2
0, 1
2, 1
0, 1
2, 2
1, 0
2, 2
1, 0
3, 2
3, 4
0, 2
3, 3
3, 1
0, 1
2, 1
5, 0
4, 0
3, 0
4, 1
0, 2
2, 2
1, 4
2, 3
1, 1
0, 1
2, 2
2, 0
2, 2
2, 2
2, 2
0, 3
2, 1
3, 0
0, 1
1, 1
1, 1
1, 0
2, 1
0, 0
0, 0
1, 1
1, 0
1, 0
4, 1
1, 0
2, 2
1, 0
2, 0
0, 1
1, 1
0, 2
0, 1
0, 3
1, 1
0, 1
1, 3
0, 2
0, 3
1, 1
0, 2
2, 0
0, 1
0, 0
0, 0
0, 0
1, 0
1, 1
0, 0
1, 0
2, 1
1, 0
4, 1
0, 0
1, 0
0, 1
0, 2
1, 0
1, 0
0, 2
1, 1
0, 0
1, 1
0, 0
1, 0
0, 0
0, 1
0, 1
0, 3
1, 2
0, 0
3, 0
1, 1
1, 0
1, 1
2, 1
1, 1
0, 2
2, 1
0, 0
0, 0
2, 1
0, 1
2, 0
3, 2
0, 2
0, 0
2, 0
0, 0
2, 0
1, 1
0, 1
0, 3
0, 1
1, 1
0, 1
2, 0
2, 0
0, 0
1, 1
0, 0
0, 2
0, 0
0, 1
0, 0
0, 0
0, 0
1, 0
0, 0
1, 0
1, 0
0, 0
0, 1
0, 1
2, 1
0, 0
1, 2
0, 1
1, 1
0, 0
0, 0
0, 0
0, 1
2, 1
0, 0
0, 0
0, 0
0, 0
1, 0
0, 0
0, 0
0, 0
0, 1
0, 0
0, 1
0, 1
1, 1
0, 0
0, 0
1, 0
0, 0
1, 0
0, 1
0, 0
0, 0
0, 1
0, 1
0, 0
0, 0
1, 1
1, 0
0, 1
1, 0
2, 0
1, 1
0, 0
0, 0
0, 0
0, 0
1, 0
1, 0
0, 0
1, 0
0, 0
0, 0
0, 0
1, 1
2, 1
0, 0
0, 0
2, 1
0, 1
0, 0
0, 0
0, 0
1, 0
1, 0
0, 0
0, 0
0, 0
0, 0
0, 0
0, 1
0, 0
0, 0
0, 1
0, 1
0, 0
0, 0
2, 1
2, 0
2, 0
0, 1
0, 0
1, 0
0, 0
2, 0
0, 1
0, 0
0, 0
0, 0
0, 0
0, 0
0, 0
1, 1
0, 1
1, 1
0, 0
1, 0
0, 0
0, 1
0, 1
1, 0
1, 0
0, 0
1, 1
1, 0
0, 0
1, 0
0, 0
1, 0
0, 0
0, 0
0, 1
0, 0
0, 0
2, 0
0, 0
0, 0
0, 0
0, 0
3, 0
0, 0
1, 0
2, 0
0, 0
1, 0
0, 0
0, 0
0, 0
0, 2
0, 0
0, 0
0, 0
1, 0
0, 0
0, 1
0, 1
1, 0
0, 0
0, 0
0, 0
0, 0
0, 0
1, 0
0, 0
0, 0
0, 1
0, 0
0, 1
0, 0
1, 0
0, 0
1, 0
0, 1
0, 0
0, 0
0, 0
0, 0
0, 0
0, 0
0, 0
0, 0
0, 0
0, 0
0, 0
0, 1
0, 0
0, 0
0, 0
0, 1
0, 0
0, 0
0, 0
0, 0
0, 0
0, 0
0, 0
0, 0
0, 0
0, 0
0, 0
0, 0
0, 0
0, 1
0, 0
0, 0
0, 0
0, 0
0, 0
0, 0
0, 0
0, 0
0, 2
0, 0
0, 0
0, 0
0, 0
0, 0
0, 0
1, 0
0, 0
0, 0
0, 0
0, 0
0, 0
0, 0
0, 0
0, 0
0, 0
0, 1
0, 0
0, 0
1, 0
0, 0
0, 0
1, 0
0, 0
0, 0
0, 0
0, 0
0, 1
0, 0
0, 0
0, 1
0, 0
0, 0
0, 1
0, 1
0, 0
0, 0
0, 0
0, 1
0, 0
0, 0
0, 0
0, 0
0, 0
0, 0
1, 0
0, 0
0, 0
0, 0
0, 0
0, 0
0, 0
0, 0
0, 0
0, 0
1, 0
0, 0
0, 0
0, 0
0, 0
0, 0
0, 0
0, 0
0, 0
0, 0
0, 0
0, 0
0, 0
0, 0
0, 0
0, 0
0, 0
0, 0
0, 0
0, 0
0, 0
0, 0
0, 0
0, 0
0, 0
0, 0
0, 0
0, 0
0, 0
0, 0
0, 0
0, 0
0, 0
0, 0
0, 0
0, 0
0, 0
0, 0
0, 0
0, 0
0, 0
0, 0
0, 0
0, 0
0, 0
0, 0
0, 0
0, 0
0, 0
0, 0
0, 1
0, 0
0, 0
0, 0
0, 0
0, 0
0, 0
1, 0
0, 0
0, 0
0, 0
0, 0
0, 0
0, 0
0, 0
0, 1
0, 0
0, 0
0, 0
0, 0
0, 0
0, 0
0, 0
0, 0
0, 0
0, 0
0, 0
0, 0
0, 0
0, 0
0, 0
0, 0
0, 0
0, 0
0, 0
0, 0
0, 0
0, 0
0, 0
0, 0
0, 0
0, 0
0, 0
0, 0
0, 0
0, 0
0, 0
0, 0
0, 0
0, 0
0, 0
0, 0
0, 0
0, 0
0, 0
0, 0
0, 0
0, 0
0, 0
0, 0
0, 0
0, 0
0, 0
0, 0
0, 0
0, 0
0, 0
0, 0
0, 0
0, 0
0, 0
0, 0
0, 0
0, 0
0, 0
0, 0
0, 0
0, 0
0, 0
0, 0
0, 0
0, 0
0, 0
0, 0
0, 0
0, 0
0, 0
0, 0
0, 0
0, 0
0, 0
0, 0
0, 0
0, 0
0, 0
0, 0
0, 0
0, 0
0, 0
0, 0
0, 0
0, 0
0, 0
0, 0
0, 0
0, 0
0, 0
0, 0
0, 0
0, 0
0, 0
0, 0
0, 0
0, 0
0, 0
0, 0
0, 0
0, 0
0, 0
0, 0
0, 0
0, 0
0, 0
0, 0
0, 0
0, 0
0, 0
0, 0
0, 0
0, 0
0, 0
0, 0
0, 0
0, 0
0, 0
0, 0
0, 0
0, 0
0, 0
0, 0
0, 0
0, 0
0, 0
0, 0
0, 0
0, 0
0, 0
0, 0
0, 0
0, 0
0, 0
0, 0
0, 0
0, 0
0, 0
0, 0
0, 0
0, 0
0, 0
0, 0
0, 0
0, 0
0, 0
0, 0
0, 0
0, 0
0, 0
0, 0
0, 0
0, 0
0, 0
0, 0
0, 0
0, 0
0, 0
0, 0
0, 0
0, 0
0, 0
0, 0
0, 0
0, 0
0, 0
0, 0
0, 0
0, 0
0, 0
0, 0
0, 0
0, 0
0, 0
0, 0
0, 0
0, 0
0, 0
0, 0
0, 0
0, 0
0, 0
0, 0
0, 0
0, 0
0, 0
0, 0
0, 0
0, 0
0, 0
0, 0
0, 0
0, 0
0, 0
0, 0
0, 0
0, 0
0, 0
0, 0
0, 0
0, 0
0, 0
0, 0
0, 0
0, 0
0, 0
0, 0
0, 0
0, 0
0, 0
0, 0
0, 0
0, 0
0, 0
0, 0
0, 0
0, 0
0, 0
0, 0
0, 0
0, 0
0, 0
0, 0
0, 0
0, 0
0, 0
0, 0
0, 0
0, 0
0, 0
0, 0
0, 0
0, 0
0, 0
0, 0
0, 0
0, 0
0, 0
0, 0
0, 0
0, 0
0, 0
0, 0
0, 0
0, 0
0, 0
0, 0
0, 0
0, 0
0, 0
0, 0
0, 0
0, 0
0, 0
0, 0
0, 0
0, 0
0, 0
0, 0
0, 0
0, 0
0, 0
0, 0
0, 0
0, 0
0, 0
0, 0
0, 0
0, 0
0, 0
0, 0
0, 0
0, 0
0, 0
0, 0
0, 0
0, 0
0, 0
0, 0
0, 0
0, 0
0, 0
0, 0
0, 0
0, 0
0, 0
0, 0
0, 0
0, 0
0, 0
0, 0
0, 0
0, 0
0, 0
0, 0
0, 0
0, 0
0, 0
0, 0
0, 0
0, 0
0, 0
0, 0
0, 0
0, 0
0, 0
0, 0
0, 0
0, 0
0, 0
0, 0
0, 0
0, 0
0, 0
0, 0
0, 0
0, 0
0, 0
0, 0
0, 0
0, 0
0, 0
0, 0
0, 0
0, 0
0, 0
0, 0
0, 0
0, 0
0, 0
0, 0
0, 0
0, 0
0, 0
0, 0
0, 0
0, 0
0, 0
0, 0
0, 0
0, 0
0, 0
0, 0
0, 0
0, 0
0, 0
0, 0
0, 0
0, 0
0, 0
0, 0
0, 0
0, 0
0, 0
0, 0
0, 0
0, 0
0, 0
0, 0
0, 0
0, 0
0, 0
0, 0
0, 0
0, 0
0, 0
0, 0
0, 0
#ENDOFDATA     end of spectrum data