File: host_upload/06-09-2024/ps_0852/dump3/ps__0852shot_2229.msa
#FORMAT      : EMSA/MAS spectral data file
#VERSION     : TC202v2.0 PIXL
#TITLE       : N/A
#DATE        :       Date in the format DD-MMM-YYYY, for example 07-JUL-2010
#TIME        :             The time of day at which the spectrum was recorded, in 24-hour format
#OWNER       : PIXL Flight Model       (PIXL will use this to indicate which instrument took the data.)
#NPOINTS     : 4096     Number of data points in the spectrum (This can be zero for configuration only files)
#NCOLUMNS    : 2     Number of data columns in the spectrum (This can be zero for configuration only files)
#XUNITS      : eV
#YUNITS      : COUNTS
#DATATYPE    : YY
#XPERCHAN    : 7.862, 7.881   eV per channel (separate by commas if more than one detector)
#OFFSET      : 18.5, -22.4         eV of first channel  (separate by commas if more than one detector
#SIGNALTYPE  : XRF
#YP_TEMP     : 2.3
#LIVETIME    : 8.55781, 8.37273   seconds (separate by commas if more than one detector)
#REALTIME    : 10, 10.0   seconds (separate by commas if more than one detector)
#SPECTRUM    : start of spectrum data
0, 0
0, 0
0, 0
0, 0
0, 0
0, 0
0, 0
0, 0
0, 0
0, 0
0, 0
0, 0
0, 0
0, 0
0, 0
0, 0
0, 0
0, 0
0, 0
0, 0
0, 0
0, 0
0, 0
0, 0
0, 0
0, 0
0, 0
0, 0
0, 0
0, 0
0, 0
0, 0
0, 0
0, 0
0, 3
1, 5
0, 7
0, 13
1, 13
1, 32
3, 39
1, 39
2, 45
1, 32
0, 23
1, 17
0, 11
2, 14
5, 15
14, 15
17, 26
65, 30
59, 55
79, 56
85, 76
82, 73
75, 52
49, 45
37, 25
22, 8
8, 10
6, 5
4, 5
4, 5
1, 7
3, 3
2, 6
12, 8
20, 22
46, 55
127, 88
173, 158
269, 254
392, 325
476, 386
463, 379
391, 337
331, 270
207, 169
152, 101
79, 53
26, 27
18, 18
11, 8
7, 6
5, 2
2, 4
1, 2
0, 4
1, 4
2, 2
1, 1
0, 2
0, 3
4, 3
3, 0
0, 7
1, 6
3, 0
0, 6
3, 7
4, 8
3, 4
4, 5
3, 10
6, 11
7, 18
5, 57
8, 168
8, 322
15, 623
26, 1094
14, 1672
29, 2320
24, 2593
32, 2931
15, 2738
34, 2255
19, 1595
22, 1022
29, 599
16, 321
13, 122
21, 67
7, 28
13, 19
14, 13
7, 15
8, 7
4, 3
6, 8
6, 2
7, 3
5, 1
6, 3
8, 0
8, 1
12, 1
10, 0
6, 1
7, 1
2, 3
2, 2
9, 0
5, 0
1, 2
2, 2
0, 1
4, 3
2, 3
5, 3
9, 2
6, 5
10, 4
12, 10
13, 12
19, 17
15, 20
18, 19
16, 4
9, 7
12, 12
9, 13
6, 6
8, 9
4, 6
4, 2
10, 6
6, 5
8, 3
9, 7
6, 2
9, 5
8, 8
6, 8
3, 6
8, 7
6, 9
3, 23
6, 24
4, 27
3, 15
6, 20
2, 14
3, 7
6, 10
3, 8
4, 4
7, 7
9, 13
8, 4
8, 5
9, 10
11, 8
12, 9
12, 9
17, 7
21, 12
25, 10
32, 14
32, 9
57, 10
70, 5
77, 5
82, 7
95, 4
102, 4
89, 4
79, 9
43, 4
43, 6
22, 4
10, 7
10, 7
10, 6
7, 8
5, 5
8, 4
8, 1
8, 9
6, 13
3, 25
7, 28
6, 38
8, 42
10, 58
8, 67
11, 94
18, 70
11, 79
16, 61
14, 52
11, 32
12, 17
16, 18
16, 16
16, 12
9, 9
10, 10
15, 4
14, 2
9, 5
13, 6
6, 14
15, 19
24, 29
27, 30
32, 42
54, 42
53, 45
53, 57
73, 53
70, 43
55, 32
46, 32
38, 27
27, 24
25, 16
26, 11
17, 22
24, 18
21, 33
48, 55
79, 93
151, 181
297, 323
487, 561
825, 816
1198, 1254
1715, 1571
2091, 1944
2415, 2226
2504, 2187
2560, 2069
2365, 1781
1868, 1436
1394, 1095
981, 687
656, 431
401, 231
197, 117
130, 66
62, 44
33, 24
18, 25
16, 14
17, 25
14, 18
17, 27
20, 37
23, 41
20, 55
47, 77
74, 103
101, 145
148, 170
223, 226
295, 263
329, 313
370, 345
361, 312
365, 294
305, 272
241, 189
199, 135
135, 123
98, 72
67, 33
33, 20
24, 12
13, 5
15, 9
11, 6
9, 6
9, 7
14, 10
15, 13
15, 8
13, 12
18, 12
9, 8
11, 5
7, 7
9, 6
3, 6
10, 2
2, 11
3, 3
4, 2
6, 3
4, 2
4, 12
4, 4
5, 9
3, 15
6, 17
17, 32
10, 28
11, 62
17, 41
19, 34
11, 50
20, 46
26, 61
8, 45
17, 37
12, 35
10, 18
12, 19
4, 10
7, 11
3, 9
7, 5
5, 3
5, 5
5, 7
2, 6
7, 9
1, 5
4, 4
1, 3
3, 1
2, 2
2, 3
3, 3
6, 3
4, 5
4, 3
7, 5
7, 1
6, 1
4, 8
6, 3
4, 4
8, 3
7, 4
4, 4
10, 6
7, 3
2, 5
7, 2
2, 5
3, 4
5, 9
0, 7
2, 8
3, 15
0, 9
2, 8
0, 6
3, 6
6, 8
3, 2
3, 1
5, 5
3, 1
9, 7
4, 3
2, 9
4, 2
4, 4
3, 6
4, 8
1, 5
9, 10
4, 8
6, 3
4, 6
3, 5
4, 1
4, 3
5, 4
4, 2
2, 7
2, 4
5, 3
2, 4
5, 3
1, 3
4, 3
2, 0
1, 3
1, 1
1, 4
1, 2
5, 2
2, 1
2, 4
1, 3
1, 7
3, 3
4, 4
6, 2
4, 3
5, 2
6, 1
8, 2
6, 3
9, 1
12, 0
22, 2
8, 1
6, 2
17, 1
17, 0
16, 3
12, 5
14, 4
8, 4
7, 1
6, 5
9, 6
3, 8
3, 7
3, 12
2, 4
2, 11
4, 6
4, 11
3, 6
3, 2
1, 2
1, 2
5, 4
1, 3
1, 0
1, 5
3, 3
2, 2
5, 3
4, 0
4, 1
4, 4
2, 3
2, 2
0, 4
3, 0
5, 1
5, 1
9, 2
5, 2
4, 2
5, 1
1, 1
1, 0
1, 1
2, 1
3, 2
3, 2
4, 4
0, 1
4, 0
2, 1
1, 1
1, 2
2, 2
4, 0
1, 0
1, 2
2, 3
3, 3
5, 7
3, 2
1, 5
4, 5
3, 9
4, 5
0, 3
2, 1
4, 2
2, 0
1, 3
4, 5
2, 0
5, 2
4, 2
3, 3
3, 0
4, 3
5, 1
4, 2
1, 1
1, 1
2, 2
1, 2
1, 2
0, 4
3, 2
2, 0
2, 7
1, 4
2, 0
3, 0
0, 2
2, 0
5, 2
5, 2
1, 3
1, 3
3, 5
4, 4
3, 3
7, 3
5, 1
7, 1
2, 2
6, 1
2, 0
3, 1
3, 2
2, 1
1, 1
2, 0
0, 0
3, 0
1, 0
1, 0
1, 1
0, 0
2, 1
2, 1
1, 1
1, 7
1, 3
2, 0
2, 2
1, 3
2, 3
1, 1
2, 4
1, 2
0, 3
1, 3
2, 5
4, 1
0, 0
1, 3
0, 4
0, 1
1, 0
2, 2
2, 0
0, 1
1, 2
1, 0
1, 1
0, 1
1, 1
1, 1
0, 0
0, 0
0, 1
2, 1
0, 1
1, 2
0, 1
0, 0
1, 0
0, 1
1, 0
2, 5
0, 1
0, 1
0, 1
2, 0
0, 2
2, 0
1, 0
0, 1
2, 0
0, 2
3, 1
2, 2
2, 2
1, 1
4, 0
1, 1
4, 2
0, 1
1, 0
2, 0
1, 1
0, 1
3, 0
0, 2
1, 1
2, 0
2, 3
2, 1
0, 0
0, 0
1, 1
0, 0
1, 1
0, 0
1, 0
1, 0
0, 0
1, 0
0, 0
0, 0
0, 0
2, 1
2, 1
1, 3
1, 0
1, 2
0, 0
1, 1
2, 0
1, 1
1, 0
0, 0
0, 0
1, 0
0, 1
2, 0
0, 0
0, 3
1, 1
2, 1
0, 0
3, 0
0, 0
1, 1
2, 4
0, 0
0, 0
2, 3
1, 1
0, 0
0, 0
0, 0
1, 0
0, 2
0, 0
0, 0
0, 0
0, 0
0, 1
0, 0
1, 2
0, 0
0, 1
0, 1
0, 0
0, 0
0, 0
0, 0
0, 0
0, 1
1, 0
1, 1
1, 1
0, 0
0, 3
1, 1
2, 1
0, 0
1, 0
0, 0
0, 0
0, 1
0, 0
0, 0
0, 1
0, 0
0, 0
0, 0
0, 1
0, 1
0, 0
0, 1
0, 1
0, 0
0, 0
0, 0
0, 0
1, 0
0, 0
2, 0
0, 0
0, 0
1, 2
2, 1
0, 1
0, 0
2, 0
1, 0
0, 0
0, 0
1, 0
1, 1
0, 0
0, 1
1, 0
0, 0
2, 0
2, 2
1, 0
0, 0
1, 1
0, 0
1, 0
0, 0
0, 0
1, 0
0, 0
1, 1
0, 1
0, 1
0, 0
0, 1
0, 0
0, 0
0, 0
0, 0
0, 0
0, 0
1, 0
1, 0
0, 0
0, 0
1, 0
1, 0
0, 0
0, 0
0, 0
0, 0
0, 0
0, 0
1, 2
0, 1
0, 0
0, 1
0, 0
0, 0
1, 2
0, 0
0, 0
0, 0
0, 0
0, 0
1, 0
0, 0
0, 0
1, 1
0, 0
0, 0
0, 0
1, 0
0, 0
0, 1
0, 0
0, 0
1, 0
0, 0
0, 0
0, 0
0, 0
1, 1
0, 0
1, 0
0, 0
0, 0
0, 0
0, 0
0, 0
0, 0
0, 0
0, 0
0, 0
0, 0
0, 0
1, 0
0, 0
1, 0
0, 0
0, 0
1, 1
1, 0
0, 0
0, 0
0, 0
0, 0
0, 0
0, 0
0, 0
0, 0
0, 0
0, 0
0, 0
1, 1
1, 1
0, 0
0, 0
0, 0
0, 0
0, 0
0, 0
0, 1
0, 0
0, 0
0, 0
1, 0
0, 0
0, 0
0, 0
0, 1
0, 0
0, 0
0, 0
0, 0
0, 0
0, 0
0, 1
0, 0
0, 0
0, 0
0, 1
1, 0
0, 0
0, 1
0, 0
0, 0
0, 0
0, 0
2, 1
0, 0
0, 0
0, 0
0, 0
0, 0
0, 0
0, 0
0, 0
0, 0
1, 1
0, 0
0, 0
0, 0
0, 0
0, 0
0, 0
0, 0
0, 0
0, 0
0, 0
0, 0
1, 0
0, 0
0, 1
0, 0
0, 0
0, 0
0, 0
0, 1
0, 0
0, 0
0, 0
0, 0
0, 1
0, 0
0, 0
0, 0
0, 0
0, 0
0, 1
0, 0
0, 3
0, 0
0, 0
0, 0
0, 0
0, 0
0, 0
0, 0
0, 0
1, 0
0, 0
0, 0
0, 0
0, 0
0, 0
0, 0
0, 0
0, 0
0, 0
0, 0
0, 0
0, 0
0, 0
0, 0
0, 0
0, 0
0, 0
0, 0
0, 0
0, 0
0, 0
0, 0
0, 0
0, 0
1, 0
0, 0
0, 0
0, 0
0, 0
0, 0
0, 0
0, 0
0, 1
0, 0
0, 0
0, 0
0, 0
0, 0
0, 0
0, 0
0, 1
1, 0
0, 0
0, 0
0, 0
0, 0
0, 0
0, 0
0, 0
1, 0
0, 0
0, 0
0, 0
0, 0
0, 0
0, 0
0, 0
0, 0
0, 0
0, 0
0, 0
0, 0
0, 0
0, 0
0, 0
0, 0
0, 0
0, 0
0, 0
0, 0
0, 0
0, 0
0, 0
0, 0
0, 0
0, 0
0, 0
0, 1
0, 0
0, 0
0, 0
0, 0
0, 0
0, 0
0, 0
0, 0
0, 0
0, 0
0, 0
0, 0
0, 0
0, 0
0, 0
0, 0
0, 0
0, 0
0, 0
0, 0
0, 0
0, 0
0, 0
0, 0
0, 0
0, 0
0, 0
0, 0
0, 0
0, 0
0, 0
0, 0
0, 0
0, 0
0, 0
0, 0
0, 0
0, 0
0, 0
0, 0
0, 0
0, 0
0, 0
0, 0
0, 0
0, 0
0, 0
0, 0
0, 0
0, 0
0, 0
0, 0
0, 0
0, 0
0, 0
0, 0
0, 0
0, 0
0, 0
0, 0
0, 0
0, 0
0, 0
0, 0
0, 0
0, 0
0, 0
0, 0
0, 0
0, 0
0, 0
0, 0
0, 0
0, 0
0, 0
0, 0
0, 0
0, 0
0, 0
0, 0
0, 0
0, 0
0, 0
0, 0
0, 0
0, 0
0, 0
0, 0
0, 0
0, 0
0, 0
0, 0
0, 0
0, 0
0, 0
0, 0
0, 0
0, 0
0, 0
0, 0
0, 0
0, 0
0, 0
0, 0
0, 0
0, 0
0, 0
0, 0
0, 0
0, 0
0, 0
0, 0
0, 0
0, 0
0, 0
0, 0
0, 0
0, 0
0, 0
0, 0
0, 0
0, 0
0, 0
0, 0
0, 0
0, 0
0, 0
0, 0
0, 0
0, 0
0, 0
0, 0
0, 0
0, 0
0, 0
0, 0
0, 0
0, 0
0, 0
0, 0
0, 0
0, 0
0, 0
0, 0
0, 0
0, 0
0, 0
0, 0
0, 0
0, 0
0, 0
0, 0
0, 0
0, 0
0, 0
0, 0
0, 0
0, 0
0, 0
0, 0
0, 0
0, 0
0, 0
0, 0
0, 0
0, 0
0, 0
0, 0
0, 0
0, 0
0, 0
0, 0
0, 0
0, 0
0, 0
0, 0
0, 0
0, 0
0, 0
0, 0
0, 0
0, 0
0, 0
0, 0
0, 0
0, 0
0, 0
0, 0
0, 0
0, 0
0, 0
0, 0
0, 0
0, 0
0, 0
0, 0
0, 0
0, 0
0, 0
0, 0
0, 0
0, 0
0, 0
0, 0
0, 0
0, 0
0, 0
0, 0
0, 0
0, 0
0, 0
0, 0
0, 0
0, 0
0, 0
0, 0
0, 0
0, 0
0, 0
0, 0
0, 0
0, 0
0, 0
0, 0
0, 0
0, 0
0, 0
0, 0
0, 0
0, 0
0, 0
0, 0
0, 0
0, 0
0, 0
0, 0
0, 0
0, 0
0, 0
0, 0
0, 0
0, 0
0, 0
0, 0
0, 0
0, 0
0, 0
0, 0
0, 0
0, 0
0, 0
0, 0
0, 0
0, 0
0, 0
0, 0
0, 0
0, 0
0, 0
0, 0
0, 0
0, 0
0, 0
0, 0
0, 0
0, 0
0, 0
0, 0
0, 0
0, 0
0, 0
0, 0
0, 0
0, 0
0, 0
0, 0
0, 0
0, 0
0, 0
0, 0
0, 0
0, 0
0, 0
0, 0
0, 0
0, 0
0, 0
0, 0
0, 0
0, 0
0, 0
0, 0
0, 0
0, 0
0, 0
0, 0
0, 0
0, 0
0, 0
0, 0
0, 0
0, 0
0, 0
0, 0
0, 0
0, 0
0, 0
0, 0
0, 0
0, 0
0, 0
0, 0
0, 0
0, 0
0, 0
0, 0
0, 0
0, 0
0, 0
0, 0
0, 0
0, 0
0, 0
0, 0
0, 0
0, 0
0, 0
0, 0
0, 0
0, 0
0, 0
0, 0
0, 0
0, 0
0, 0
0, 0
0, 0
0, 0
0, 0
0, 0
0, 0
0, 0
0, 0
0, 0
0, 0
0, 0
0, 0
0, 0
0, 0
0, 0
0, 0
0, 0
0, 0
0, 0
0, 0
0, 0
0, 0
0, 0
0, 0
0, 0
0, 0
0, 0
0, 0
0, 0
0, 0
0, 0
0, 0
0, 0
0, 0
#ENDOFDATA     end of spectrum data