File: host_upload/06-09-2024/ps_0852/dump3/ps__0852shot_2168.msa
#FORMAT      : EMSA/MAS spectral data file
#VERSION     : TC202v2.0 PIXL
#TITLE       : N/A
#DATE        :       Date in the format DD-MMM-YYYY, for example 07-JUL-2010
#TIME        :             The time of day at which the spectrum was recorded, in 24-hour format
#OWNER       : PIXL Flight Model       (PIXL will use this to indicate which instrument took the data.)
#NPOINTS     : 4096     Number of data points in the spectrum (This can be zero for configuration only files)
#NCOLUMNS    : 2     Number of data columns in the spectrum (This can be zero for configuration only files)
#XUNITS      : eV
#YUNITS      : COUNTS
#DATATYPE    : YY
#XPERCHAN    : 7.862, 7.881   eV per channel (separate by commas if more than one detector)
#OFFSET      : 18.5, -22.4         eV of first channel  (separate by commas if more than one detector
#SIGNALTYPE  : XRF
#YP_TEMP     : 2.203
#LIVETIME    : 8.57006, 8.57997   seconds (separate by commas if more than one detector)
#REALTIME    : 10, 10.0   seconds (separate by commas if more than one detector)
#SPECTRUM    : start of spectrum data
0, 0
0, 0
0, 0
0, 0
0, 0
0, 0
0, 0
0, 0
0, 0
0, 0
0, 0
0, 0
0, 0
0, 0
0, 0
0, 0
0, 0
0, 0
0, 0
0, 0
0, 0
0, 0
0, 0
0, 0
0, 0
0, 0
0, 0
0, 0
0, 0
0, 0
0, 0
0, 0
0, 0
0, 0
1, 0
0, 0
0, 0
0, 1
0, 0
0, 2
0, 1
0, 1
0, 2
0, 1
2, 1
4, 0
1, 1
3, 5
8, 4
10, 13
15, 23
39, 35
60, 67
83, 84
82, 102
90, 90
65, 50
50, 42
24, 26
23, 17
13, 7
8, 3
2, 5
7, 2
2, 3
2, 4
6, 10
10, 15
21, 17
32, 40
84, 101
169, 205
258, 304
377, 380
405, 450
421, 443
379, 359
287, 311
192, 218
143, 137
72, 68
28, 43
14, 20
12, 9
0, 2
1, 3
3, 1
6, 1
3, 0
0, 0
1, 0
2, 2
0, 0
0, 2
2, 0
3, 0
0, 2
2, 2
1, 1
1, 1
4, 2
0, 4
1, 5
2, 3
4, 3
5, 1
3, 6
9, 3
11, 6
9, 8
11, 12
24, 16
11, 23
22, 24
18, 33
26, 24
26, 26
29, 38
18, 18
11, 14
13, 20
14, 9
7, 17
10, 13
8, 16
21, 10
11, 13
7, 10
6, 4
9, 2
5, 10
4, 1
4, 3
6, 1
2, 1
4, 2
2, 1
2, 2
1, 1
2, 0
3, 2
1, 1
1, 0
1, 3
2, 3
3, 0
3, 2
3, 2
1, 1
1, 1
6, 0
2, 5
7, 6
10, 12
9, 12
17, 14
19, 12
14, 17
22, 16
19, 10
11, 14
9, 10
2, 1
7, 7
4, 1
2, 1
1, 2
6, 4
3, 4
5, 4
5, 6
5, 2
4, 2
3, 5
3, 3
2, 2
1, 1
2, 5
7, 3
7, 2
3, 3
3, 2
1, 2
4, 2
3, 5
2, 2
5, 2
6, 1
1, 11
5, 6
6, 12
4, 9
5, 10
7, 9
15, 10
10, 13
19, 9
15, 16
10, 7
14, 20
16, 19
9, 3
8, 7
9, 6
3, 4
6, 5
5, 7
8, 5
7, 5
4, 3
7, 9
6, 3
4, 4
8, 3
4, 6
5, 4
6, 7
9, 5
3, 2
8, 4
2, 5
8, 2
6, 5
5, 10
3, 8
13, 9
33, 11
26, 12
31, 6
62, 12
75, 11
78, 22
98, 13
123, 16
106, 7
83, 8
66, 3
68, 3
33, 5
31, 4
11, 9
12, 16
9, 9
8, 10
16, 9
25, 28
28, 34
53, 42
61, 39
80, 54
107, 65
95, 53
93, 63
97, 49
76, 39
67, 31
52, 21
34, 15
47, 16
22, 22
24, 19
35, 21
38, 60
81, 104
167, 184
289, 355
465, 608
731, 922
1038, 1410
1461, 1745
1839, 2236
2193, 2459
2332, 2470
2209, 2329
2051, 1961
1628, 1551
1304, 1147
932, 791
570, 429
340, 275
184, 165
99, 82
46, 52
22, 26
26, 14
11, 16
10, 15
11, 19
10, 14
20, 25
22, 33
26, 40
49, 50
61, 76
112, 131
137, 178
177, 226
214, 305
294, 339
351, 407
360, 368
306, 315
313, 276
228, 212
201, 171
126, 122
77, 81
46, 38
36, 15
15, 19
10, 6
7, 8
8, 6
7, 7
5, 11
14, 16
10, 9
11, 14
9, 19
11, 19
8, 11
10, 10
15, 10
6, 12
5, 8
5, 7
3, 7
2, 6
3, 15
3, 15
4, 9
8, 8
1, 14
10, 17
5, 13
5, 9
9, 11
12, 11
12, 8
15, 5
6, 4
15, 6
10, 6
6, 8
8, 6
2, 3
4, 3
5, 3
8, 5
1, 9
4, 5
8, 7
3, 9
7, 8
7, 3
4, 2
2, 5
6, 5
7, 3
12, 3
6, 1
8, 2
11, 6
4, 5
2, 5
4, 5
5, 2
4, 5
3, 2
6, 4
3, 7
11, 8
9, 1
26, 1
12, 3
19, 8
27, 2
23, 4
25, 2
27, 9
23, 8
17, 8
10, 7
15, 9
15, 9
7, 6
4, 22
5, 5
2, 5
4, 3
3, 5
6, 2
4, 5
3, 8
4, 0
1, 3
4, 2
3, 4
4, 5
6, 2
3, 3
4, 1
5, 1
2, 4
3, 6
5, 7
3, 4
1, 5
3, 5
3, 7
2, 5
6, 3
2, 7
2, 4
5, 6
1, 3
3, 5
4, 3
5, 2
1, 1
3, 3
4, 4
2, 2
4, 4
4, 2
2, 1
1, 1
2, 1
3, 2
1, 2
3, 0
2, 1
1, 4
3, 3
2, 2
2, 3
4, 1
3, 1
1, 2
3, 1
4, 3
3, 5
1, 5
3, 4
2, 1
1, 6
4, 2
1, 0
4, 3
4, 1
4, 2
2, 6
4, 2
0, 3
0, 2
2, 4
2, 2
2, 2
5, 3
4, 4
2, 2
5, 2
4, 2
2, 4
6, 5
5, 3
14, 5
9, 1
10, 2
4, 5
2, 3
6, 5
1, 1
3, 2
4, 2
2, 2
2, 0
2, 0
2, 2
3, 4
2, 1
0, 2
3, 2
4, 1
4, 1
2, 2
4, 5
3, 1
0, 3
2, 3
5, 1
1, 4
0, 1
3, 3
1, 3
4, 1
3, 2
1, 3
1, 4
1, 5
3, 2
0, 4
2, 3
4, 4
1, 3
3, 1
1, 5
2, 1
1, 0
4, 6
2, 0
2, 1
1, 2
1, 5
2, 3
2, 1
1, 2
0, 0
3, 1
0, 2
2, 3
1, 2
2, 4
1, 3
2, 3
3, 4
3, 2
1, 5
3, 2
1, 3
2, 4
2, 3
0, 2
1, 0
2, 1
1, 1
0, 3
1, 1
3, 5
1, 4
2, 7
2, 4
7, 8
4, 6
3, 5
6, 3
4, 4
2, 3
0, 1
3, 5
1, 3
1, 3
1, 0
0, 3
0, 3
3, 2
1, 2
0, 0
2, 4
1, 3
1, 1
0, 2
0, 2
3, 1
1, 2
1, 1
4, 2
3, 4
4, 0
1, 1
1, 2
3, 3
1, 2
1, 1
0, 0
1, 1
1, 0
1, 0
0, 2
2, 3
1, 1
2, 1
1, 1
1, 0
1, 3
0, 1
1, 0
2, 3
1, 1
1, 1
0, 1
3, 1
0, 1
2, 2
1, 2
0, 0
1, 0
0, 2
1, 1
0, 2
2, 2
1, 1
2, 1
1, 2
0, 1
1, 0
2, 0
2, 1
2, 0
2, 2
2, 0
1, 0
0, 0
2, 1
2, 1
1, 2
1, 1
2, 1
1, 0
0, 2
1, 1
1, 0
0, 1
6, 0
0, 0
1, 0
1, 3
1, 1
0, 0
2, 1
0, 0
0, 0
2, 1
1, 2
1, 0
4, 0
1, 2
1, 0
0, 0
1, 2
1, 2
1, 0
0, 0
0, 3
0, 1
0, 2
1, 0
0, 0
1, 0
1, 1
0, 0
1, 1
0, 1
0, 1
2, 1
1, 0
0, 0
3, 0
1, 2
0, 0
0, 0
0, 0
0, 1
0, 0
0, 1
1, 0
1, 2
1, 1
0, 3
1, 2
0, 0
1, 1
1, 2
0, 3
1, 0
1, 0
2, 0
2, 1
2, 0
2, 1
0, 0
1, 0
3, 0
1, 0
0, 0
1, 1
0, 2
0, 0
0, 0
0, 0
0, 1
0, 0
1, 0
0, 0
1, 0
0, 0
1, 0
0, 0
0, 1
1, 1
1, 0
0, 0
1, 1
0, 0
1, 0
0, 0
0, 0
0, 1
1, 0
0, 0
0, 0
0, 2
0, 1
1, 0
0, 1
0, 0
0, 0
1, 0
1, 2
0, 1
0, 1
0, 1
0, 2
1, 0
0, 0
0, 0
0, 0
1, 0
1, 0
2, 0
0, 0
0, 0
1, 1
0, 0
0, 1
0, 0
1, 1
0, 0
1, 1
0, 0
1, 0
2, 1
0, 0
0, 0
1, 0
0, 0
0, 0
0, 0
0, 1
1, 0
0, 0
0, 0
0, 1
0, 0
0, 0
0, 0
1, 1
0, 0
0, 0
0, 0
0, 1
1, 1
0, 0
0, 0
0, 0
0, 0
0, 0
0, 0
0, 0
1, 0
0, 0
2, 0
0, 0
1, 0
0, 0
0, 0
0, 0
1, 1
0, 1
0, 0
0, 0
0, 0
0, 0
1, 0
0, 0
0, 0
0, 2
0, 1
0, 0
0, 0
0, 0
0, 0
0, 0
0, 0
1, 0
0, 0
1, 1
0, 0
0, 0
1, 0
0, 0
0, 0
0, 0
0, 1
0, 0
0, 0
0, 0
0, 0
0, 0
0, 0
1, 0
0, 0
0, 0
0, 0
0, 0
0, 0
0, 1
0, 0
0, 0
0, 1
0, 0
0, 0
0, 0
0, 0
0, 0
0, 1
2, 1
0, 0
0, 0
0, 0
0, 0
0, 0
0, 0
0, 0
0, 0
1, 0
0, 0
0, 0
0, 0
0, 0
1, 0
1, 0
0, 0
0, 0
0, 0
0, 0
0, 0
0, 0
0, 1
0, 0
0, 0
0, 0
0, 0
1, 0
0, 0
0, 0
0, 0
0, 0
0, 0
0, 0
0, 0
1, 1
0, 0
0, 0
0, 0
0, 0
0, 0
0, 0
0, 0
0, 0
0, 0
0, 0
0, 0
0, 0
0, 0
0, 0
0, 0
0, 0
0, 0
0, 1
0, 0
0, 0
0, 0
0, 0
0, 0
0, 1
0, 0
0, 0
0, 0
0, 0
0, 0
0, 1
1, 0
0, 0
0, 0
0, 0
0, 0
0, 1
0, 0
0, 0
0, 0
0, 0
0, 0
0, 0
1, 0
0, 0
0, 0
0, 0
0, 0
0, 0
0, 0
0, 0
0, 0
0, 0
0, 0
0, 0
0, 0
0, 0
0, 0
0, 0
0, 0
0, 0
0, 0
0, 0
0, 0
0, 0
0, 1
0, 1
0, 0
0, 0
0, 0
0, 0
0, 0
0, 0
0, 0
0, 0
0, 0
0, 0
0, 0
0, 0
0, 0
0, 0
1, 0
0, 0
0, 0
0, 0
0, 0
0, 0
0, 0
0, 0
0, 0
0, 0
0, 0
0, 0
0, 0
0, 0
0, 0
0, 0
0, 0
0, 0
0, 0
0, 0
0, 0
0, 0
0, 0
0, 0
0, 0
0, 0
0, 0
0, 0
0, 0
0, 0
0, 0
0, 0
0, 0
0, 0
0, 0
0, 0
0, 0
0, 0
0, 0
0, 0
0, 0
0, 0
0, 0
0, 0
0, 0
0, 0
0, 0
0, 0
0, 0
0, 0
0, 0
0, 0
0, 0
0, 0
0, 0
0, 0
0, 0
0, 0
0, 0
0, 0
0, 0
0, 0
0, 0
0, 0
0, 0
0, 0
0, 0
0, 0
0, 0
0, 0
0, 0
0, 0
0, 0
0, 0
0, 0
0, 0
0, 0
0, 0
0, 0
0, 0
0, 0
0, 0
0, 0
0, 0
0, 0
0, 0
0, 0
0, 0
0, 0
0, 0
0, 0
0, 0
0, 0
0, 0
0, 0
0, 0
0, 0
0, 0
0, 0
0, 0
0, 0
0, 0
0, 0
0, 0
0, 0
0, 0
0, 0
0, 0
0, 0
0, 0
0, 0
0, 0
0, 0
0, 0
0, 0
0, 0
0, 0
0, 0
0, 0
0, 0
0, 0
0, 0
0, 0
0, 0
0, 0
0, 0
0, 0
0, 0
0, 0
0, 0
0, 0
0, 0
0, 0
0, 0
0, 0
0, 0
0, 0
0, 0
0, 0
0, 0
0, 0
0, 0
0, 0
0, 0
0, 0
0, 0
0, 0
0, 0
0, 0
0, 0
0, 0
0, 0
0, 0
0, 0
0, 0
0, 0
0, 0
0, 0
0, 0
0, 0
0, 0
0, 0
0, 0
0, 0
0, 0
0, 0
0, 0
0, 0
0, 0
0, 0
0, 0
0, 0
0, 0
0, 0
0, 0
0, 0
0, 0
0, 0
0, 0
0, 0
0, 0
0, 0
0, 0
0, 0
0, 0
0, 0
0, 0
0, 0
0, 0
0, 0
0, 0
0, 0
0, 0
0, 0
0, 0
0, 0
0, 0
0, 0
0, 0
0, 0
0, 0
0, 0
0, 0
0, 0
0, 0
0, 0
0, 0
0, 0
0, 0
0, 0
0, 0
0, 0
0, 0
0, 0
0, 0
0, 0
0, 0
0, 0
0, 0
0, 0
0, 0
0, 0
0, 0
0, 0
0, 0
0, 0
0, 0
0, 0
0, 0
0, 0
0, 0
0, 0
0, 0
0, 0
0, 0
0, 0
0, 0
0, 0
0, 0
0, 0
0, 0
0, 0
0, 0
0, 0
0, 0
0, 0
0, 0
0, 0
0, 0
0, 0
0, 0
0, 0
0, 0
0, 0
0, 0
0, 0
0, 0
0, 0
0, 0
0, 0
0, 0
0, 0
0, 0
0, 0
0, 0
0, 0
0, 0
0, 0
0, 0
0, 0
0, 0
0, 0
0, 0
0, 0
0, 0
0, 0
0, 0
0, 0
0, 0
0, 0
0, 0
0, 0
0, 0
0, 0
0, 0
0, 0
0, 0
0, 0
0, 0
0, 0
0, 0
0, 0
0, 0
0, 0
0, 0
0, 0
0, 0
0, 0
0, 0
0, 0
0, 0
0, 0
0, 0
0, 0
0, 0
0, 0
0, 0
0, 0
0, 0
0, 0
0, 0
0, 0
0, 0
0, 0
0, 0
0, 0
0, 0
0, 0
0, 0
0, 0
0, 0
0, 0
0, 0
0, 0
0, 0
0, 0
0, 0
0, 0
0, 0
0, 0
0, 0
0, 0
0, 0
0, 0
0, 0
0, 0
0, 0
0, 0
0, 0
0, 0
0, 0
0, 0
0, 0
0, 0
0, 0
0, 0
0, 0
0, 0
0, 0
0, 0
0, 0
0, 0
0, 0
0, 0
0, 0
0, 0
0, 0
0, 0
0, 0
0, 0
0, 0
0, 0
0, 0
0, 0
0, 0
0, 0
0, 0
0, 0
0, 0
0, 0
0, 0
0, 0
0, 0
0, 0
0, 0
0, 0
0, 0
0, 0
0, 0
0, 0
0, 0
0, 0
0, 0
0, 0
0, 0
0, 0
0, 0
0, 0
0, 0
0, 0
0, 0
0, 0
0, 0
0, 0
0, 0
0, 0
0, 0
0, 0
0, 0
0, 0
0, 0
0, 0
0, 0
0, 0
0, 0
0, 0
0, 0
0, 0
0, 0
0, 0
0, 0
0, 0
0, 0
0, 0
0, 0
0, 0
0, 0
0, 0
0, 0
0, 0
0, 0
0, 0
0, 0
0, 0
#ENDOFDATA     end of spectrum data