File: host_upload/06-09-2024/ps_0852/dump3/ps__0852shot_2282.msa
#FORMAT      : EMSA/MAS spectral data file
#VERSION     : TC202v2.0 PIXL
#TITLE       : N/A
#DATE        :       Date in the format DD-MMM-YYYY, for example 07-JUL-2010
#TIME        :             The time of day at which the spectrum was recorded, in 24-hour format
#OWNER       : PIXL Flight Model       (PIXL will use this to indicate which instrument took the data.)
#NPOINTS     : 4096     Number of data points in the spectrum (This can be zero for configuration only files)
#NCOLUMNS    : 2     Number of data columns in the spectrum (This can be zero for configuration only files)
#XUNITS      : eV
#YUNITS      : COUNTS
#DATATYPE    : YY
#XPERCHAN    : 7.862, 7.881   eV per channel (separate by commas if more than one detector)
#OFFSET      : 18.5, -22.4         eV of first channel  (separate by commas if more than one detector
#SIGNALTYPE  : XRF
#YP_TEMP     : 2.107
#LIVETIME    : 8.56432, 8.5279   seconds (separate by commas if more than one detector)
#REALTIME    : 10, 10.0   seconds (separate by commas if more than one detector)
#SPECTRUM    : start of spectrum data
0, 0
0, 0
0, 0
0, 0
0, 0
0, 0
0, 0
0, 0
0, 0
0, 0
0, 0
0, 0
0, 0
0, 0
0, 0
0, 0
0, 0
0, 0
0, 0
0, 0
0, 0
0, 0
0, 0
0, 0
0, 0
0, 0
0, 0
0, 0
0, 0
0, 0
0, 0
0, 0
0, 0
0, 0
1, 1
0, 0
0, 1
0, 0
0, 0
0, 0
3, 0
1, 2
0, 0
2, 1
2, 1
1, 0
2, 4
2, 4
10, 5
14, 14
24, 23
52, 34
64, 67
88, 86
93, 87
105, 67
65, 51
45, 52
26, 25
28, 12
11, 7
1, 4
3, 6
6, 5
2, 2
2, 1
6, 6
10, 13
20, 27
43, 53
82, 98
194, 191
259, 273
411, 399
446, 445
475, 423
400, 384
309, 288
197, 179
128, 128
63, 62
26, 31
16, 20
18, 11
3, 3
5, 1
4, 1
0, 1
2, 0
0, 0
1, 4
0, 0
0, 0
0, 0
1, 1
4, 1
2, 2
3, 1
4, 5
7, 1
0, 3
4, 5
6, 2
2, 2
6, 3
3, 3
12, 1
5, 4
10, 7
10, 6
16, 5
18, 10
23, 23
18, 13
24, 19
7, 28
31, 17
30, 23
19, 22
18, 8
17, 17
16, 11
16, 16
16, 13
17, 16
10, 12
12, 5
10, 10
5, 8
8, 7
8, 3
3, 2
3, 3
3, 1
4, 0
0, 3
1, 0
3, 2
3, 2
4, 4
1, 1
1, 2
2, 2
1, 3
1, 4
1, 1
0, 2
1, 2
1, 1
1, 1
6, 1
5, 5
12, 5
8, 16
17, 23
21, 34
28, 33
24, 42
41, 31
27, 38
27, 17
21, 17
8, 15
3, 7
6, 9
3, 6
3, 5
4, 5
1, 3
5, 4
8, 11
6, 5
4, 4
5, 3
8, 4
6, 4
2, 4
4, 3
3, 3
4, 3
4, 4
4, 9
5, 5
3, 5
4, 1
2, 2
3, 2
3, 5
8, 4
4, 4
7, 10
8, 6
6, 10
9, 13
11, 9
12, 11
10, 11
11, 15
13, 15
13, 15
13, 14
8, 7
8, 8
9, 7
6, 5
5, 2
5, 5
9, 3
8, 7
8, 7
9, 5
6, 4
3, 6
4, 7
9, 5
5, 6
3, 6
6, 5
9, 4
2, 7
5, 6
0, 2
6, 7
5, 9
11, 9
15, 8
20, 8
31, 10
48, 8
53, 10
66, 15
87, 12
95, 9
110, 11
113, 7
95, 8
81, 7
70, 3
43, 8
34, 5
19, 1
15, 10
12, 12
11, 13
14, 22
20, 17
27, 26
50, 43
67, 46
89, 58
78, 63
97, 59
112, 58
105, 52
78, 34
59, 31
48, 27
41, 14
31, 14
33, 11
25, 15
32, 23
38, 55
80, 100
155, 182
285, 340
499, 568
820, 888
1162, 1316
1541, 1707
1908, 2074
2308, 2342
2481, 2331
2365, 2191
2098, 1954
1708, 1523
1353, 1054
939, 663
625, 437
362, 235
196, 139
111, 85
58, 37
33, 22
15, 14
6, 12
12, 15
10, 12
22, 15
14, 27
18, 23
28, 24
48, 46
46, 73
111, 128
156, 160
206, 249
241, 289
333, 291
366, 332
328, 380
327, 334
301, 244
259, 219
179, 159
142, 97
95, 74
63, 40
34, 16
24, 14
12, 10
9, 4
13, 9
4, 7
12, 9
13, 8
16, 12
13, 16
11, 11
11, 12
13, 12
6, 7
11, 8
6, 4
10, 6
5, 6
7, 10
7, 3
2, 6
1, 6
1, 5
2, 10
5, 9
5, 13
13, 11
9, 9
9, 11
5, 14
8, 9
6, 5
10, 9
7, 5
5, 7
6, 4
1, 7
4, 3
9, 10
5, 3
3, 2
6, 7
8, 4
4, 7
9, 6
10, 4
7, 11
6, 3
8, 4
6, 6
4, 2
11, 5
2, 2
9, 5
5, 4
7, 3
2, 7
7, 2
7, 6
6, 0
6, 4
6, 4
8, 6
10, 2
11, 2
16, 3
13, 4
22, 7
27, 4
31, 2
33, 10
28, 10
30, 2
29, 4
19, 10
13, 10
15, 7
10, 8
8, 7
5, 7
1, 8
5, 7
6, 3
2, 4
3, 3
6, 7
2, 4
3, 5
4, 3
5, 4
3, 2
8, 1
2, 3
4, 5
2, 4
1, 3
3, 6
4, 3
3, 3
1, 9
5, 5
2, 2
4, 3
4, 8
2, 4
3, 5
3, 3
6, 2
5, 6
3, 6
4, 0
4, 2
4, 2
3, 5
2, 1
2, 4
3, 5
4, 2
3, 1
1, 3
3, 4
1, 5
5, 5
3, 1
6, 2
2, 0
1, 3
2, 5
2, 3
4, 3
0, 1
6, 4
1, 4
2, 2
3, 2
2, 3
4, 1
4, 3
5, 2
1, 0
0, 3
4, 0
1, 0
3, 1
3, 5
3, 1
3, 3
1, 6
3, 3
4, 2
2, 4
6, 1
4, 4
3, 2
4, 4
3, 4
3, 2
12, 0
8, 4
8, 3
7, 3
6, 3
2, 2
2, 0
8, 0
3, 3
3, 1
2, 4
0, 1
5, 5
1, 0
1, 1
1, 2
1, 3
1, 3
1, 3
1, 2
1, 1
2, 2
1, 0
4, 1
2, 2
2, 3
3, 2
0, 2
2, 4
0, 3
3, 1
2, 3
0, 3
2, 5
4, 4
2, 3
1, 7
3, 3
6, 3
0, 4
0, 0
0, 5
3, 0
1, 3
3, 1
3, 2
1, 0
1, 0
2, 3
1, 3
2, 4
3, 5
1, 5
3, 0
2, 3
1, 0
0, 4
3, 3
3, 2
4, 4
1, 2
0, 0
1, 4
1, 2
2, 5
2, 2
1, 1
0, 1
1, 0
2, 2
1, 3
0, 2
0, 3
0, 2
6, 4
7, 6
5, 9
4, 4
2, 3
3, 6
7, 4
1, 1
2, 2
6, 4
3, 1
6, 0
0, 4
1, 3
1, 0
1, 0
0, 1
0, 1
2, 1
1, 2
0, 1
1, 3
1, 0
3, 1
1, 1
1, 1
2, 1
3, 0
5, 3
4, 3
1, 3
4, 5
3, 5
4, 1
1, 5
1, 4
1, 2
0, 0
0, 2
3, 4
1, 1
0, 2
1, 1
4, 2
1, 1
1, 3
1, 2
1, 4
2, 0
1, 1
1, 3
1, 1
1, 0
0, 1
2, 3
4, 1
1, 2
0, 2
0, 0
0, 0
0, 0
1, 0
0, 0
1, 1
0, 1
0, 1
0, 1
2, 1
1, 0
1, 0
3, 0
0, 1
0, 0
1, 0
0, 0
2, 0
2, 0
0, 1
0, 1
0, 2
1, 1
0, 2
0, 0
1, 2
1, 1
0, 2
0, 0
0, 0
0, 0
2, 0
1, 0
1, 0
0, 1
1, 1
0, 1
2, 0
0, 0
1, 1
1, 1
2, 0
0, 1
1, 0
0, 1
0, 1
1, 1
1, 0
0, 0
1, 0
0, 0
0, 0
1, 1
0, 0
0, 0
0, 1
0, 0
1, 2
0, 1
1, 0
1, 1
1, 3
2, 1
0, 0
0, 0
0, 2
1, 1
0, 1
0, 0
1, 1
2, 1
1, 0
1, 0
0, 0
0, 0
0, 0
1, 1
0, 1
0, 1
1, 1
0, 1
0, 0
0, 1
0, 0
0, 1
0, 1
1, 0
0, 0
0, 0
0, 0
1, 2
1, 0
0, 2
0, 1
0, 0
0, 0
0, 0
0, 2
0, 1
1, 0
0, 2
1, 0
1, 1
0, 1
1, 0
0, 0
0, 0
1, 0
0, 0
0, 0
1, 2
2, 0
0, 0
0, 0
0, 0
0, 1
0, 2
1, 1
0, 1
0, 1
0, 0
1, 1
1, 1
0, 0
0, 0
1, 0
0, 0
1, 0
0, 2
0, 0
0, 0
0, 0
1, 0
1, 1
0, 0
0, 1
2, 0
0, 0
0, 2
0, 1
0, 0
1, 0
0, 0
0, 0
0, 0
0, 1
0, 0
1, 0
0, 0
0, 0
0, 0
0, 0
0, 0
1, 1
0, 0
0, 0
1, 0
0, 1
0, 0
0, 0
1, 0
1, 0
1, 1
0, 1
0, 0
0, 0
0, 1
0, 0
0, 0
0, 0
0, 0
0, 0
1, 1
0, 0
1, 0
1, 0
0, 0
0, 0
0, 0
0, 1
0, 0
0, 0
2, 0
1, 0
0, 0
0, 1
1, 1
0, 1
0, 0
0, 0
0, 0
0, 0
0, 0
0, 1
0, 0
0, 0
0, 0
0, 0
0, 4
1, 1
0, 0
0, 1
1, 0
0, 0
1, 0
1, 0
1, 0
0, 0
0, 0
0, 0
3, 0
1, 1
0, 1
0, 0
0, 1
0, 0
0, 0
0, 0
0, 0
0, 0
0, 0
0, 0
0, 0
0, 0
0, 0
0, 1
0, 0
0, 1
0, 0
2, 0
0, 0
0, 0
0, 0
0, 1
0, 0
0, 0
0, 0
0, 0
0, 0
0, 0
0, 0
0, 0
0, 0
0, 1
1, 0
0, 0
0, 0
0, 0
0, 0
0, 0
0, 0
0, 0
1, 0
0, 0
1, 0
1, 0
0, 0
0, 0
0, 0
0, 1
0, 0
0, 0
0, 0
0, 0
0, 0
1, 0
0, 0
0, 0
0, 0
0, 0
0, 1
0, 0
0, 0
0, 0
0, 0
0, 1
0, 0
0, 0
0, 0
0, 0
0, 0
0, 0
0, 0
0, 0
0, 0
0, 0
0, 0
0, 1
0, 0
0, 0
0, 0
0, 0
0, 1
0, 0
0, 0
0, 1
0, 0
0, 0
0, 0
0, 0
0, 0
0, 0
0, 1
0, 0
0, 0
0, 0
0, 0
0, 0
0, 0
0, 0
0, 0
0, 1
0, 0
0, 0
0, 0
0, 0
0, 0
0, 0
0, 0
0, 0
0, 0
0, 0
0, 0
0, 0
0, 0
0, 0
0, 0
0, 0
0, 0
0, 1
0, 0
0, 0
0, 0
0, 1
0, 0
0, 0
0, 0
0, 0
0, 0
1, 0
0, 0
0, 1
0, 0
1, 1
0, 0
0, 0
0, 0
0, 0
0, 0
0, 0
0, 0
0, 0
0, 0
0, 0
0, 0
0, 0
0, 0
0, 0
0, 0
0, 0
0, 0
0, 0
0, 0
0, 0
0, 0
0, 0
0, 0
0, 0
0, 0
0, 0
0, 0
0, 0
0, 0
1, 0
0, 0
0, 0
0, 0
0, 1
0, 0
0, 0
0, 0
0, 0
0, 0
0, 0
0, 0
0, 0
0, 0
0, 0
0, 0
0, 0
0, 0
0, 0
0, 0
0, 0
0, 0
0, 0
0, 0
0, 0
0, 0
0, 0
0, 0
0, 0
0, 0
0, 0
0, 0
0, 1
0, 0
0, 0
0, 0
0, 0
0, 0
0, 0
0, 0
0, 0
0, 0
0, 0
0, 0
0, 1
0, 0
0, 0
0, 0
0, 0
0, 0
0, 0
0, 0
0, 0
0, 0
0, 0
0, 0
0, 0
0, 0
0, 0
0, 0
0, 0
0, 0
0, 0
0, 0
0, 0
0, 0
0, 0
0, 0
0, 0
0, 0
0, 0
0, 0
0, 0
0, 0
0, 0
0, 0
0, 0
0, 0
0, 0
0, 0
0, 0
0, 0
0, 0
0, 0
0, 0
0, 0
0, 0
0, 0
0, 0
0, 0
0, 0
0, 0
0, 0
0, 0
0, 0
0, 0
0, 0
0, 0
0, 0
0, 0
0, 0
0, 0
0, 0
0, 0
0, 0
0, 0
0, 0
0, 0
0, 0
0, 0
0, 0
0, 0
0, 0
0, 0
0, 0
0, 0
0, 0
0, 0
0, 0
0, 0
0, 0
0, 0
0, 0
0, 0
0, 0
0, 0
0, 0
0, 0
0, 0
0, 0
0, 0
0, 0
0, 0
0, 0
0, 0
0, 0
0, 0
0, 0
0, 0
0, 0
0, 0
0, 0
0, 0
0, 0
0, 0
0, 0
0, 0
0, 0
0, 0
0, 0
0, 0
0, 0
0, 0
0, 0
0, 0
0, 0
0, 0
0, 0
0, 0
0, 0
0, 0
0, 0
0, 0
0, 0
0, 0
0, 0
0, 0
0, 0
0, 0
0, 0
0, 0
0, 0
0, 0
0, 0
0, 0
0, 0
0, 0
0, 0
0, 0
0, 0
0, 0
0, 0
0, 0
0, 0
0, 0
0, 0
0, 0
0, 0
0, 0
0, 0
0, 0
0, 0
0, 0
0, 0
0, 0
0, 0
0, 0
0, 0
0, 0
0, 0
0, 0
0, 0
0, 0
0, 0
0, 0
0, 0
0, 0
0, 0
0, 0
0, 0
0, 0
0, 0
0, 0
0, 0
0, 0
0, 0
0, 0
0, 0
0, 0
0, 0
0, 0
0, 0
0, 0
0, 0
0, 0
0, 0
0, 0
0, 0
0, 0
0, 0
0, 0
0, 0
0, 0
0, 0
0, 0
0, 0
0, 0
0, 0
0, 0
0, 0
0, 0
0, 0
0, 0
0, 0
0, 0
0, 0
0, 0
0, 0
0, 0
0, 0
0, 0
0, 0
0, 0
0, 0
0, 0
0, 0
0, 0
0, 0
0, 0
0, 0
0, 0
0, 0
0, 0
0, 0
0, 0
0, 0
0, 0
0, 0
0, 0
0, 0
0, 0
0, 0
0, 0
0, 0
0, 0
0, 0
0, 0
0, 0
0, 0
0, 0
0, 0
0, 0
0, 0
0, 0
0, 0
0, 0
0, 0
0, 0
0, 0
0, 0
0, 0
0, 0
0, 0
0, 0
0, 0
0, 0
0, 0
0, 0
0, 0
0, 0
0, 0
0, 0
0, 0
0, 0
0, 0
0, 0
0, 0
0, 0
0, 0
0, 0
0, 0
0, 0
0, 0
0, 0
0, 0
0, 0
0, 0
0, 0
0, 0
0, 0
0, 0
0, 0
0, 0
0, 0
0, 0
0, 0
0, 0
0, 0
0, 0
0, 0
0, 0
0, 0
0, 0
0, 0
0, 0
0, 0
0, 0
0, 0
0, 0
0, 0
0, 0
0, 0
0, 0
0, 0
0, 0
0, 0
0, 0
0, 0
0, 0
0, 0
0, 0
0, 0
0, 0
0, 0
0, 0
0, 0
0, 0
0, 0
0, 0
0, 0
0, 0
0, 0
0, 0
0, 0
0, 0
0, 0
0, 0
0, 0
0, 0
0, 0
0, 0
0, 0
0, 0
0, 0
0, 0
0, 0
0, 0
0, 0
0, 0
0, 0
0, 0
0, 0
0, 0
0, 0
0, 0
0, 0
0, 0
0, 0
0, 0
0, 0
0, 0
0, 0
0, 0
0, 0
0, 0
0, 0
#ENDOFDATA     end of spectrum data