File: host_upload/06-09-2024/ps_0852/dump3/ps__0852shot_2453.msa
#FORMAT      : EMSA/MAS spectral data file
#VERSION     : TC202v2.0 PIXL
#TITLE       : N/A
#DATE        :       Date in the format DD-MMM-YYYY, for example 07-JUL-2010
#TIME        :             The time of day at which the spectrum was recorded, in 24-hour format
#OWNER       : PIXL Flight Model       (PIXL will use this to indicate which instrument took the data.)
#NPOINTS     : 4096     Number of data points in the spectrum (This can be zero for configuration only files)
#NCOLUMNS    : 2     Number of data columns in the spectrum (This can be zero for configuration only files)
#XUNITS      : eV
#YUNITS      : COUNTS
#DATATYPE    : YY
#XPERCHAN    : 7.862, 7.881   eV per channel (separate by commas if more than one detector)
#OFFSET      : 18.5, -22.4         eV of first channel  (separate by commas if more than one detector
#SIGNALTYPE  : XRF
#YP_TEMP     : 2.332
#LIVETIME    : 8.56196, 8.555   seconds (separate by commas if more than one detector)
#REALTIME    : 10, 10.0   seconds (separate by commas if more than one detector)
#SPECTRUM    : start of spectrum data
0, 0
0, 0
0, 0
0, 0
0, 0
0, 0
0, 0
0, 0
0, 0
0, 0
0, 0
0, 0
0, 0
0, 0
0, 0
0, 0
0, 0
0, 0
0, 0
0, 0
0, 0
0, 0
0, 0
0, 0
0, 0
0, 0
0, 0
0, 0
0, 0
0, 0
0, 0
0, 0
0, 0
0, 0
0, 1
1, 0
0, 1
1, 1
1, 2
3, 1
1, 1
1, 1
0, 3
4, 1
4, 0
3, 0
3, 3
9, 2
5, 2
6, 9
19, 23
36, 25
64, 42
67, 61
72, 62
69, 63
58, 37
40, 29
23, 19
10, 7
12, 5
6, 6
7, 5
6, 11
4, 5
12, 6
8, 9
12, 6
30, 26
55, 36
108, 97
199, 141
298, 208
383, 314
457, 404
455, 396
431, 366
323, 257
205, 189
125, 107
79, 62
46, 32
23, 18
10, 8
7, 8
4, 5
1, 1
0, 2
1, 1
0, 2
1, 0
0, 1
1, 4
6, 2
5, 1
10, 9
12, 5
21, 16
15, 15
23, 12
19, 11
12, 11
10, 16
6, 6
9, 3
6, 8
7, 8
19, 10
21, 6
28, 29
37, 22
59, 43
117, 52
120, 51
136, 71
153, 54
105, 40
100, 53
80, 29
53, 36
61, 39
36, 24
22, 23
19, 17
21, 20
28, 15
15, 8
9, 15
7, 6
3, 7
3, 3
3, 6
8, 3
3, 4
2, 3
0, 4
1, 4
2, 0
3, 2
3, 2
3, 0
4, 1
5, 3
2, 6
2, 1
1, 1
1, 3
3, 4
4, 1
3, 4
5, 1
2, 3
2, 2
4, 12
11, 7
11, 13
11, 13
11, 13
16, 9
13, 15
3, 7
10, 9
8, 6
3, 12
0, 4
3, 6
6, 8
9, 7
11, 6
7, 4
18, 4
5, 6
9, 5
4, 6
6, 9
4, 5
6, 13
5, 7
4, 6
1, 10
1, 8
5, 7
3, 11
5, 2
4, 9
1, 1
10, 7
1, 8
5, 8
9, 12
10, 11
12, 12
16, 15
12, 15
9, 19
19, 21
19, 21
21, 27
18, 21
16, 18
13, 17
11, 21
12, 10
7, 13
8, 15
8, 9
3, 10
10, 12
8, 10
10, 6
4, 7
7, 13
3, 7
6, 5
7, 11
5, 10
7, 11
8, 9
6, 8
3, 5
8, 11
3, 3
6, 6
8, 7
8, 9
9, 7
5, 15
18, 16
18, 8
11, 16
8, 8
21, 7
9, 11
10, 9
16, 2
14, 4
10, 4
14, 7
12, 8
24, 9
22, 1
19, 9
30, 9
23, 15
25, 20
27, 20
41, 21
50, 24
45, 45
54, 49
87, 52
67, 59
60, 62
48, 56
41, 31
29, 19
22, 19
18, 18
25, 17
12, 15
28, 13
29, 37
66, 46
99, 82
148, 166
288, 299
492, 515
795, 813
1188, 1097
1608, 1388
2002, 1807
2345, 2002
2596, 2079
2465, 1973
2148, 1721
1774, 1365
1343, 973
927, 609
578, 390
335, 199
199, 113
102, 75
50, 38
34, 22
15, 31
20, 25
11, 23
10, 21
11, 13
25, 22
24, 25
28, 33
48, 45
67, 52
105, 106
139, 147
223, 183
259, 233
335, 278
335, 310
358, 276
358, 280
317, 277
252, 186
180, 117
117, 95
73, 57
52, 28
39, 23
22, 11
20, 13
15, 3
20, 5
22, 7
30, 7
37, 7
23, 13
34, 12
25, 16
22, 13
23, 8
26, 11
18, 9
14, 3
8, 5
9, 8
6, 3
7, 5
1, 2
6, 9
7, 5
8, 6
3, 2
10, 4
7, 7
6, 2
8, 4
10, 2
6, 5
7, 2
12, 3
8, 3
7, 0
6, 5
5, 2
4, 3
2, 3
8, 1
5, 7
5, 3
9, 9
8, 7
4, 3
5, 5
12, 4
8, 3
5, 3
4, 4
4, 2
4, 1
3, 5
0, 4
2, 5
6, 1
5, 5
8, 3
8, 6
4, 3
6, 3
7, 5
2, 2
5, 7
3, 5
5, 4
4, 5
4, 1
1, 6
6, 2
0, 5
4, 4
4, 4
4, 4
2, 1
3, 2
8, 4
4, 6
4, 4
3, 9
5, 5
3, 4
6, 7
4, 11
4, 7
5, 9
6, 10
5, 8
6, 4
3, 5
4, 2
2, 2
5, 2
6, 4
2, 2
1, 4
5, 2
2, 1
2, 3
4, 3
5, 2
1, 3
2, 3
4, 5
2, 3
3, 7
5, 3
1, 1
4, 2
1, 1
2, 1
5, 0
4, 2
3, 1
6, 3
3, 4
4, 7
2, 4
7, 4
3, 5
2, 1
8, 6
12, 3
8, 6
6, 7
6, 3
5, 0
8, 3
4, 3
4, 2
5, 0
5, 1
4, 4
3, 3
4, 1
2, 1
0, 4
4, 5
3, 2
0, 6
3, 2
4, 3
1, 4
4, 6
3, 3
4, 5
4, 4
3, 2
4, 4
5, 1
3, 5
7, 2
4, 3
6, 3
2, 7
3, 4
3, 3
5, 0
7, 1
3, 1
3, 2
4, 1
6, 0
1, 1
3, 2
2, 2
0, 5
4, 3
5, 1
1, 5
3, 2
2, 4
2, 2
5, 2
4, 1
1, 4
3, 2
4, 4
5, 0
3, 2
5, 1
3, 4
2, 2
2, 4
1, 2
2, 2
3, 3
0, 1
4, 3
2, 2
3, 1
0, 1
2, 1
3, 2
2, 1
2, 2
1, 3
1, 2
0, 2
2, 2
5, 0
2, 4
1, 1
4, 4
8, 0
3, 3
2, 4
2, 2
1, 3
3, 4
3, 1
3, 2
1, 0
4, 0
1, 1
1, 0
2, 0
3, 0
3, 3
3, 0
4, 2
2, 1
2, 2
2, 1
1, 2
5, 1
7, 2
5, 4
1, 5
4, 3
2, 6
5, 7
8, 2
3, 5
5, 3
5, 2
0, 5
6, 3
4, 1
1, 1
4, 1
2, 0
1, 2
3, 0
4, 1
1, 1
0, 1
2, 1
2, 1
1, 0
0, 2
2, 4
1, 1
2, 0
1, 1
3, 2
1, 4
1, 1
4, 0
0, 0
2, 1
0, 1
3, 1
2, 0
3, 1
1, 0
1, 0
0, 2
3, 2
2, 2
0, 2
3, 3
1, 0
0, 1
3, 1
0, 1
2, 0
0, 3
0, 3
1, 2
0, 1
0, 0
1, 1
0, 1
2, 1
1, 0
0, 1
1, 0
1, 2
1, 1
0, 0
0, 1
0, 0
1, 0
0, 1
0, 0
0, 2
2, 0
2, 0
1, 3
0, 0
2, 0
0, 0
0, 1
1, 1
2, 0
2, 0
1, 0
1, 1
1, 1
1, 1
1, 0
2, 1
1, 1
0, 0
1, 0
1, 0
0, 0
3, 1
2, 0
3, 0
1, 0
0, 0
2, 0
0, 2
0, 1
1, 1
1, 0
0, 0
1, 0
1, 1
0, 1
0, 2
0, 0
0, 0
0, 1
0, 1
1, 0
0, 1
1, 0
0, 1
0, 1
2, 0
0, 3
0, 0
1, 0
0, 0
1, 0
0, 1
1, 1
0, 1
2, 1
1, 0
2, 1
1, 1
3, 0
2, 0
1, 2
0, 0
0, 0
1, 0
2, 0
1, 0
0, 2
0, 0
0, 0
1, 0
0, 0
2, 1
0, 4
0, 1
0, 0
0, 1
1, 0
1, 2
1, 1
2, 0
1, 0
1, 1
1, 0
0, 1
1, 0
2, 0
0, 0
0, 0
0, 1
1, 0
0, 0
0, 1
0, 1
1, 0
1, 0
0, 1
0, 1
0, 0
0, 0
2, 3
1, 0
2, 0
1, 0
0, 0
0, 0
0, 0
0, 0
0, 0
1, 0
0, 0
0, 0
1, 0
0, 0
0, 0
0, 0
0, 0
0, 0
0, 0
0, 0
0, 0
1, 0
0, 1
1, 0
1, 1
0, 0
0, 0
0, 0
0, 1
1, 0
0, 0
0, 0
0, 0
0, 0
3, 1
0, 1
0, 1
0, 0
0, 1
0, 1
1, 0
0, 0
0, 0
0, 0
1, 0
1, 0
0, 0
0, 0
0, 0
0, 0
1, 0
0, 0
1, 0
1, 0
1, 0
0, 0
0, 1
2, 0
0, 0
0, 0
0, 1
1, 1
0, 0
0, 1
1, 0
0, 1
0, 1
1, 0
0, 0
0, 0
0, 0
2, 0
0, 1
0, 0
0, 0
1, 0
1, 0
1, 0
0, 0
0, 0
0, 0
1, 0
0, 0
0, 0
0, 0
1, 0
2, 1
0, 0
0, 0
0, 0
0, 0
0, 0
1, 0
2, 1
0, 0
0, 0
0, 0
0, 0
0, 0
0, 0
0, 0
0, 0
0, 0
1, 0
0, 0
1, 0
1, 0
0, 0
0, 1
0, 0
0, 0
1, 0
1, 0
0, 0
1, 0
0, 0
0, 0
0, 0
0, 0
0, 0
0, 0
1, 1
0, 0
0, 0
1, 1
0, 0
0, 0
0, 0
0, 0
0, 0
0, 0
1, 0
0, 0
0, 0
0, 0
0, 0
0, 0
0, 0
0, 1
0, 0
0, 0
0, 0
0, 0
0, 0
0, 0
0, 0
0, 0
0, 0
0, 0
0, 0
0, 0
0, 0
1, 0
0, 0
0, 1
0, 0
0, 0
1, 0
0, 0
0, 0
0, 0
0, 0
0, 0
1, 0
0, 0
0, 0
0, 0
0, 0
1, 0
0, 0
0, 0
1, 0
0, 0
0, 0
0, 0
0, 0
0, 0
0, 0
0, 0
0, 0
0, 0
0, 0
0, 0
0, 0
0, 0
0, 1
0, 0
0, 0
0, 0
0, 0
0, 0
1, 1
0, 0
0, 1
0, 0
0, 0
0, 0
0, 0
1, 0
1, 0
0, 0
0, 0
0, 0
0, 0
0, 0
0, 0
0, 0
0, 0
0, 0
0, 0
0, 0
0, 0
0, 0
0, 0
0, 0
0, 0
0, 0
0, 0
0, 0
0, 0
0, 0
0, 0
0, 0
1, 0
0, 0
0, 0
0, 1
1, 0
0, 0
0, 0
0, 0
0, 0
0, 0
0, 0
0, 0
0, 0
0, 0
0, 0
0, 0
0, 0
0, 0
0, 0
0, 0
0, 0
0, 0
0, 0
0, 0
0, 1
0, 0
0, 0
0, 0
0, 0
0, 0
0, 0
0, 0
0, 0
0, 0
0, 0
0, 0
0, 0
0, 0
0, 0
0, 0
0, 0
0, 0
0, 0
0, 0
0, 0
0, 0
0, 0
0, 0
0, 0
0, 0
0, 1
0, 0
0, 0
0, 0
0, 0
0, 0
0, 0
0, 0
0, 0
0, 0
0, 0
0, 0
0, 0
0, 0
0, 0
0, 0
0, 0
0, 0
0, 0
0, 0
0, 0
0, 0
0, 0
0, 0
0, 0
0, 0
0, 0
0, 0
0, 0
0, 0
0, 0
0, 0
0, 0
0, 0
0, 0
0, 0
0, 0
0, 0
0, 0
0, 0
0, 0
0, 0
0, 0
0, 0
0, 0
0, 0
0, 0
0, 0
0, 0
0, 0
0, 0
0, 0
0, 0
0, 0
0, 0
0, 0
0, 0
1, 0
0, 0
0, 0
0, 0
0, 0
0, 0
0, 0
0, 0
0, 0
0, 0
0, 0
0, 0
0, 0
0, 0
0, 0
0, 0
0, 0
0, 0
0, 0
0, 0
0, 0
0, 0
0, 0
0, 0
0, 0
0, 0
0, 0
0, 0
0, 0
0, 0
0, 0
0, 0
0, 0
0, 0
0, 0
0, 0
0, 0
0, 0
0, 0
0, 0
0, 0
0, 0
0, 0
0, 0
0, 0
0, 0
0, 0
0, 0
0, 0
0, 0
0, 0
0, 0
0, 1
0, 0
0, 0
0, 0
0, 0
0, 0
0, 0
0, 0
0, 0
0, 0
0, 0
0, 0
0, 0
0, 0
0, 0
0, 0
0, 0
0, 0
0, 0
0, 0
0, 0
0, 0
0, 0
0, 0
0, 0
0, 0
0, 0
0, 0
0, 0
0, 0
0, 0
0, 0
0, 0
0, 0
0, 0
0, 0
0, 0
0, 0
0, 0
0, 0
0, 0
0, 0
0, 0
0, 0
0, 0
0, 0
0, 0
0, 0
0, 0
0, 0
0, 0
0, 0
0, 0
0, 0
0, 0
0, 0
0, 0
0, 0
0, 0
0, 0
0, 0
0, 0
0, 0
0, 0
0, 0
0, 0
0, 0
0, 0
0, 0
0, 0
0, 0
0, 0
0, 0
0, 0
0, 0
0, 0
0, 0
0, 0
0, 0
0, 0
0, 0
0, 0
0, 0
0, 0
0, 0
0, 0
0, 0
0, 0
0, 0
0, 0
0, 0
0, 0
0, 0
0, 0
0, 0
0, 0
0, 0
0, 0
0, 0
0, 0
0, 0
0, 0
0, 0
0, 0
0, 0
0, 0
0, 0
0, 0
0, 0
0, 0
0, 0
0, 0
0, 0
0, 0
0, 0
0, 0
0, 0
0, 0
0, 0
0, 0
0, 0
0, 0
0, 0
0, 0
0, 0
0, 0
0, 0
0, 0
0, 0
0, 0
0, 0
0, 0
0, 0
0, 0
0, 0
0, 0
0, 0
0, 0
0, 0
0, 0
0, 0
0, 0
0, 0
0, 0
0, 0
0, 0
0, 0
0, 0
0, 0
0, 0
0, 0
0, 0
0, 0
0, 0
0, 0
0, 0
0, 0
0, 0
0, 0
0, 0
0, 0
0, 0
0, 0
0, 0
0, 0
0, 0
0, 0
0, 0
0, 0
0, 0
0, 0
0, 0
0, 0
0, 0
0, 0
0, 0
0, 0
0, 0
0, 0
0, 0
0, 0
0, 0
0, 0
0, 0
0, 0
0, 0
0, 0
0, 0
0, 0
0, 0
0, 0
0, 0
0, 0
0, 0
0, 0
0, 0
0, 0
0, 0
0, 0
0, 0
0, 0
0, 0
0, 0
0, 0
0, 0
0, 0
0, 0
0, 0
0, 0
0, 0
0, 0
0, 0
0, 0
0, 0
0, 0
0, 0
0, 0
0, 0
0, 0
0, 0
0, 0
0, 0
0, 0
0, 0
0, 0
0, 0
0, 0
0, 0
0, 0
0, 0
0, 0
0, 0
0, 0
0, 0
0, 0
0, 0
0, 0
0, 0
0, 0
0, 0
0, 0
0, 0
0, 0
0, 0
0, 0
0, 0
0, 0
0, 0
0, 0
0, 0
0, 0
0, 0
0, 0
0, 0
0, 0
0, 0
0, 0
0, 0
0, 0
0, 0
0, 0
0, 0
0, 0
0, 0
0, 0
0, 0
0, 0
0, 0
0, 0
0, 0
0, 0
0, 0
0, 0
0, 0
0, 0
0, 0
0, 0
0, 0
0, 0
0, 0
#ENDOFDATA     end of spectrum data