File: host_upload/06-09-2024/ps_0852/dump3/ps__0852shot_2054.msa
#FORMAT      : EMSA/MAS spectral data file
#VERSION     : TC202v2.0 PIXL
#TITLE       : N/A
#DATE        :       Date in the format DD-MMM-YYYY, for example 07-JUL-2010
#TIME        :             The time of day at which the spectrum was recorded, in 24-hour format
#OWNER       : PIXL Flight Model       (PIXL will use this to indicate which instrument took the data.)
#NPOINTS     : 4096     Number of data points in the spectrum (This can be zero for configuration only files)
#NCOLUMNS    : 2     Number of data columns in the spectrum (This can be zero for configuration only files)
#XUNITS      : eV
#YUNITS      : COUNTS
#DATATYPE    : YY
#XPERCHAN    : 7.862, 7.881   eV per channel (separate by commas if more than one detector)
#OFFSET      : 18.5, -22.4         eV of first channel  (separate by commas if more than one detector
#SIGNALTYPE  : XRF
#YP_TEMP     : 2.492
#LIVETIME    : 8.53859, 8.54386   seconds (separate by commas if more than one detector)
#REALTIME    : 10, 10.0   seconds (separate by commas if more than one detector)
#SPECTRUM    : start of spectrum data
0, 0
0, 0
0, 0
0, 0
0, 0
0, 0
0, 0
0, 0
0, 0
0, 0
0, 0
0, 0
0, 0
0, 0
0, 0
0, 0
0, 0
0, 0
0, 0
0, 0
0, 0
0, 0
0, 0
0, 0
0, 0
0, 0
0, 0
0, 0
0, 0
0, 0
0, 0
0, 0
0, 0
1, 0
0, 0
0, 0
0, 1
1, 1
1, 0
1, 0
1, 0
2, 0
1, 2
0, 1
3, 0
1, 2
2, 1
3, 5
5, 3
10, 6
15, 26
51, 42
57, 52
66, 71
77, 81
79, 59
65, 58
44, 33
32, 22
23, 16
8, 7
7, 9
5, 4
5, 5
3, 1
2, 4
9, 1
14, 8
33, 21
48, 48
103, 97
182, 182
290, 279
370, 367
467, 371
428, 393
422, 361
297, 259
187, 163
133, 117
79, 62
50, 29
32, 13
9, 12
9, 4
1, 3
0, 0
1, 3
2, 0
0, 1
1, 0
1, 0
0, 1
4, 2
4, 2
6, 1
1, 5
5, 5
3, 3
5, 2
6, 4
1, 4
3, 3
0, 3
1, 3
4, 9
4, 13
5, 9
6, 8
11, 15
17, 12
17, 22
25, 16
33, 25
36, 29
41, 24
26, 24
25, 32
21, 21
21, 25
30, 20
10, 13
12, 15
16, 21
13, 16
9, 12
13, 12
8, 10
12, 11
9, 7
7, 4
2, 6
2, 1
2, 3
4, 2
4, 3
4, 4
5, 1
2, 2
3, 3
2, 2
1, 2
1, 1
0, 2
1, 4
2, 1
2, 2
1, 2
1, 0
2, 2
0, 6
4, 3
4, 6
12, 4
7, 14
7, 10
17, 20
17, 18
11, 13
17, 15
18, 11
7, 9
7, 6
4, 5
5, 4
1, 6
3, 2
3, 2
7, 1
8, 1
4, 1
7, 3
5, 6
6, 3
6, 5
6, 9
4, 4
2, 4
7, 1
2, 6
5, 6
3, 6
2, 8
2, 2
4, 5
3, 4
2, 8
6, 5
4, 5
8, 8
6, 16
5, 4
9, 15
8, 21
7, 15
15, 16
11, 13
18, 16
15, 16
17, 17
12, 19
15, 13
9, 7
9, 8
9, 10
7, 6
9, 4
5, 4
6, 4
6, 10
10, 10
6, 17
4, 16
6, 10
10, 12
7, 8
3, 7
7, 10
8, 13
6, 10
6, 7
3, 11
17, 8
9, 13
3, 13
7, 22
8, 16
13, 28
7, 25
17, 25
15, 23
14, 11
18, 17
13, 9
13, 12
19, 13
21, 12
17, 8
21, 7
35, 5
43, 5
19, 7
36, 18
38, 16
35, 23
39, 31
38, 39
50, 49
35, 55
65, 54
62, 73
64, 60
50, 55
59, 50
49, 39
52, 29
39, 22
34, 21
49, 11
40, 19
41, 24
47, 35
72, 46
98, 101
173, 174
296, 337
506, 543
814, 874
1164, 1270
1568, 1650
2073, 1930
2448, 2202
2464, 2208
2442, 2056
2212, 1829
1813, 1413
1349, 1108
961, 673
627, 436
402, 275
222, 122
121, 57
69, 46
34, 27
25, 16
26, 15
20, 13
21, 15
16, 13
23, 25
22, 20
27, 37
44, 49
64, 84
112, 118
139, 154
208, 209
232, 272
350, 281
337, 345
352, 303
345, 311
350, 239
264, 179
241, 135
169, 97
123, 75
75, 35
54, 21
31, 11
24, 8
18, 6
10, 8
12, 12
12, 14
11, 16
9, 9
11, 16
12, 15
11, 15
18, 14
11, 13
6, 10
13, 12
11, 11
11, 5
16, 6
9, 2
7, 8
11, 7
7, 2
5, 7
11, 2
5, 6
6, 1
3, 2
3, 3
1, 2
2, 5
5, 1
4, 3
2, 2
5, 5
2, 5
6, 5
5, 4
3, 1
9, 7
4, 8
5, 8
6, 6
6, 4
6, 4
5, 4
4, 3
6, 3
2, 2
6, 6
6, 2
2, 5
3, 5
8, 2
4, 6
6, 3
5, 4
3, 3
4, 8
6, 3
3, 4
4, 9
8, 8
5, 5
4, 6
2, 8
7, 9
5, 6
8, 3
8, 7
9, 3
13, 1
10, 3
6, 2
18, 3
8, 0
7, 3
10, 1
8, 3
6, 5
4, 2
3, 3
7, 3
8, 4
6, 9
7, 2
5, 6
2, 3
5, 1
4, 0
6, 6
4, 3
3, 3
3, 4
7, 3
9, 8
4, 4
2, 3
1, 7
2, 3
3, 3
1, 4
3, 6
1, 2
5, 6
2, 4
5, 5
2, 2
1, 6
2, 6
2, 0
3, 3
5, 2
4, 11
2, 7
3, 4
3, 4
2, 10
7, 11
5, 5
5, 1
4, 5
2, 8
3, 4
1, 3
3, 2
3, 6
1, 2
1, 2
5, 3
1, 3
2, 4
5, 4
1, 2
1, 1
3, 4
4, 3
2, 5
1, 0
3, 4
3, 1
6, 1
2, 3
3, 2
5, 3
4, 2
6, 4
4, 1
2, 4
4, 3
2, 2
2, 3
5, 5
4, 4
4, 5
2, 5
2, 4
3, 0
1, 3
3, 0
3, 0
2, 3
2, 5
2, 2
3, 4
2, 1
0, 2
3, 1
3, 2
3, 1
1, 3
3, 1
5, 2
3, 1
5, 4
2, 2
3, 3
3, 1
2, 1
2, 2
6, 7
4, 3
3, 2
5, 2
0, 2
3, 0
2, 1
4, 2
0, 3
4, 2
3, 3
1, 6
4, 2
4, 0
2, 0
1, 3
2, 3
1, 4
3, 1
1, 3
4, 0
1, 2
2, 1
2, 0
1, 1
1, 0
4, 3
2, 2
4, 0
3, 0
5, 1
0, 1
4, 5
0, 3
2, 0
3, 2
3, 3
2, 0
4, 2
3, 0
4, 2
0, 2
3, 5
4, 3
2, 2
1, 1
1, 2
4, 3
4, 2
0, 2
3, 3
4, 5
6, 1
6, 6
5, 3
2, 2
6, 2
3, 2
1, 6
3, 3
4, 2
5, 2
1, 2
4, 3
1, 2
0, 1
2, 0
1, 0
0, 1
0, 1
1, 2
0, 1
2, 1
1, 2
1, 1
3, 1
3, 1
0, 2
1, 0
2, 0
3, 4
1, 2
2, 3
5, 1
2, 3
0, 3
3, 1
1, 1
2, 0
0, 0
0, 1
2, 1
0, 0
3, 1
1, 0
3, 1
1, 2
2, 0
1, 1
0, 3
1, 2
2, 0
1, 0
1, 1
3, 1
2, 1
1, 1
0, 0
1, 1
2, 5
1, 0
1, 1
0, 2
1, 1
1, 1
1, 1
0, 3
1, 1
1, 1
3, 2
1, 1
2, 0
1, 0
1, 3
0, 1
1, 0
0, 1
0, 2
1, 1
1, 0
1, 0
0, 2
1, 1
1, 1
0, 3
4, 0
1, 1
3, 1
0, 1
1, 0
0, 0
1, 1
0, 1
1, 0
0, 0
1, 1
0, 0
1, 0
1, 3
0, 1
0, 0
1, 0
0, 3
1, 2
1, 0
3, 0
2, 0
1, 2
1, 1
0, 1
1, 0
3, 0
0, 1
0, 0
2, 1
2, 1
2, 1
1, 2
0, 1
0, 0
0, 0
0, 0
0, 0
1, 1
0, 0
0, 1
2, 0
1, 1
0, 0
2, 0
1, 0
2, 0
2, 0
3, 0
0, 0
1, 1
0, 0
0, 0
1, 0
0, 1
0, 0
0, 0
0, 0
0, 0
1, 0
0, 1
1, 0
0, 0
0, 0
0, 1
0, 1
0, 1
1, 1
0, 2
0, 3
2, 1
0, 0
1, 0
0, 0
0, 0
1, 1
1, 1
0, 1
0, 0
0, 0
0, 0
0, 0
0, 0
0, 0
1, 0
1, 1
1, 0
1, 0
0, 0
1, 1
1, 0
0, 1
0, 0
1, 0
1, 0
0, 1
1, 2
1, 0
1, 0
0, 0
0, 1
0, 0
0, 1
0, 1
0, 0
0, 0
0, 0
0, 0
0, 0
0, 0
2, 0
0, 1
0, 0
0, 0
0, 1
0, 2
0, 0
1, 0
0, 0
2, 0
1, 0
0, 0
0, 0
0, 0
0, 0
0, 0
0, 1
0, 0
0, 0
0, 2
0, 1
0, 0
1, 0
0, 0
0, 0
0, 0
0, 0
0, 0
0, 0
0, 0
0, 0
0, 0
0, 1
0, 0
0, 0
0, 0
0, 0
0, 0
0, 0
2, 0
0, 0
1, 0
0, 0
1, 0
1, 0
1, 0
0, 0
1, 0
1, 0
1, 0
0, 1
0, 0
1, 0
0, 1
0, 0
1, 0
0, 0
0, 0
0, 0
0, 0
0, 2
0, 0
1, 0
0, 0
0, 0
0, 0
0, 1
0, 0
0, 0
0, 0
0, 0
1, 1
0, 0
2, 1
1, 0
0, 0
1, 1
0, 0
0, 1
0, 0
0, 0
0, 1
0, 0
0, 0
0, 0
0, 0
1, 0
0, 0
0, 0
0, 0
0, 0
0, 0
0, 1
0, 0
1, 0
0, 0
0, 0
0, 0
0, 0
1, 0
0, 0
0, 0
0, 0
0, 1
0, 0
0, 0
0, 0
0, 0
0, 0
0, 0
0, 1
0, 0
1, 0
0, 0
0, 0
0, 1
0, 0
0, 0
0, 0
0, 0
0, 0
0, 0
0, 0
0, 1
0, 0
0, 1
0, 1
0, 0
0, 0
0, 1
0, 0
0, 0
1, 0
0, 0
0, 0
1, 0
0, 0
0, 0
0, 0
0, 0
0, 0
0, 1
0, 0
0, 0
0, 1
0, 0
0, 0
0, 0
0, 0
0, 0
0, 0
0, 0
0, 0
0, 1
0, 0
0, 0
0, 0
0, 0
0, 0
0, 0
0, 0
0, 0
0, 1
0, 0
0, 0
0, 0
1, 0
0, 0
0, 0
0, 0
0, 0
0, 0
0, 0
0, 0
0, 0
0, 0
0, 0
0, 0
0, 0
0, 0
0, 0
0, 0
0, 0
0, 0
0, 1
0, 0
0, 0
0, 0
0, 0
0, 0
0, 0
0, 0
1, 0
0, 0
0, 0
0, 0
0, 0
0, 0
0, 0
0, 0
0, 0
0, 0
0, 1
0, 0
0, 0
0, 0
0, 0
0, 0
0, 0
0, 0
0, 0
0, 0
0, 0
0, 0
0, 0
0, 0
0, 0
0, 0
0, 0
0, 0
0, 0
0, 0
0, 0
0, 0
0, 0
0, 0
0, 0
0, 0
0, 0
0, 0
0, 0
0, 0
0, 0
0, 0
0, 0
0, 0
0, 0
0, 0
0, 0
0, 0
0, 0
0, 0
0, 0
0, 0
0, 0
0, 0
0, 0
0, 0
0, 0
0, 0
0, 0
0, 0
0, 0
0, 0
0, 0
0, 0
0, 0
0, 0
0, 0
0, 0
0, 0
0, 0
0, 0
0, 0
0, 0
1, 0
0, 0
0, 0
0, 0
0, 0
0, 0
0, 0
0, 0
0, 0
0, 0
0, 0
0, 0
0, 0
0, 0
0, 0
0, 0
0, 0
0, 0
0, 0
0, 0
0, 0
0, 0
0, 0
0, 0
0, 0
0, 0
0, 0
0, 0
0, 0
0, 0
0, 0
0, 0
0, 0
0, 0
0, 0
0, 0
0, 0
0, 0
0, 0
0, 0
0, 0
0, 0
0, 0
0, 0
0, 0
0, 0
0, 0
0, 0
0, 0
0, 0
0, 0
0, 0
0, 0
0, 0
0, 0
0, 0
0, 0
0, 0
0, 0
0, 0
0, 0
0, 0
0, 0
0, 0
0, 0
0, 0
0, 0
0, 0
0, 0
0, 0
0, 0
0, 0
0, 0
0, 0
0, 0
0, 1
0, 0
0, 0
0, 0
0, 0
0, 0
0, 0
0, 0
0, 0
0, 0
0, 0
0, 0
0, 0
0, 0
0, 0
0, 0
0, 0
0, 0
0, 0
0, 0
0, 0
0, 0
0, 0
0, 0
0, 0
0, 0
0, 0
0, 0
0, 0
0, 0
0, 0
0, 0
0, 0
0, 0
0, 0
0, 0
0, 0
0, 0
0, 0
0, 0
0, 0
0, 0
0, 0
0, 0
0, 0
0, 0
0, 0
0, 0
0, 0
0, 0
0, 0
0, 0
0, 0
0, 0
0, 0
0, 0
0, 0
0, 0
0, 0
0, 0
0, 0
0, 0
0, 0
0, 0
0, 0
0, 0
0, 0
0, 0
0, 0
0, 0
0, 0
0, 0
0, 0
0, 0
0, 0
0, 0
0, 0
0, 0
0, 0
0, 0
0, 0
0, 0
0, 0
0, 0
0, 0
0, 0
0, 0
0, 0
0, 0
0, 0
0, 0
0, 0
0, 0
0, 0
0, 0
0, 0
0, 0
0, 0
0, 0
0, 0
0, 0
0, 0
0, 0
0, 0
0, 0
0, 0
0, 0
0, 0
0, 0
0, 0
0, 0
0, 0
0, 0
0, 0
0, 0
0, 0
0, 0
0, 0
0, 0
0, 0
0, 0
0, 0
0, 0
0, 0
0, 0
0, 0
0, 0
0, 0
0, 0
0, 0
0, 0
0, 0
0, 0
0, 0
0, 0
0, 0
0, 0
0, 0
0, 0
0, 0
0, 0
0, 0
0, 0
0, 0
0, 0
0, 0
0, 0
0, 0
0, 0
0, 0
0, 0
0, 0
0, 0
0, 0
0, 0
0, 0
0, 0
0, 0
0, 0
0, 0
0, 0
0, 0
0, 0
0, 0
0, 0
0, 0
0, 0
0, 0
0, 0
0, 0
0, 0
0, 0
0, 0
0, 0
0, 0
0, 0
0, 0
0, 0
0, 0
0, 0
0, 0
0, 0
0, 0
0, 0
0, 0
0, 0
0, 0
0, 0
0, 0
0, 0
0, 0
0, 0
0, 0
0, 0
0, 0
0, 0
0, 0
0, 0
0, 0
0, 0
0, 0
0, 0
0, 0
0, 0
0, 0
0, 0
0, 0
0, 0
0, 0
0, 0
0, 0
0, 0
0, 0
0, 0
0, 0
0, 0
0, 0
0, 0
0, 0
0, 0
0, 0
0, 0
0, 0
0, 0
0, 0
0, 0
0, 0
0, 0
0, 0
0, 0
0, 0
0, 0
0, 0
0, 0
0, 0
0, 0
0, 0
0, 0
0, 0
0, 0
0, 0
0, 0
0, 0
0, 0
0, 0
0, 0
0, 0
0, 0
0, 0
0, 0
0, 0
0, 0
0, 0
0, 0
0, 0
0, 0
0, 0
0, 0
0, 0
0, 0
0, 0
0, 0
0, 0
0, 0
0, 0
0, 0
0, 0
0, 0
0, 0
0, 0
0, 0
0, 0
0, 0
0, 0
0, 0
0, 0
0, 0
0, 0
0, 0
0, 0
0, 0
0, 0
0, 0
0, 0
0, 0
0, 0
0, 0
0, 0
0, 0
0, 0
0, 0
0, 0
0, 0
#ENDOFDATA     end of spectrum data