File: host_upload/06-09-2024/ps_0852/dump3/ps__0852shot_2294.msa
#FORMAT      : EMSA/MAS spectral data file
#VERSION     : TC202v2.0 PIXL
#TITLE       : N/A
#DATE        :       Date in the format DD-MMM-YYYY, for example 07-JUL-2010
#TIME        :             The time of day at which the spectrum was recorded, in 24-hour format
#OWNER       : PIXL Flight Model       (PIXL will use this to indicate which instrument took the data.)
#NPOINTS     : 4096     Number of data points in the spectrum (This can be zero for configuration only files)
#NCOLUMNS    : 2     Number of data columns in the spectrum (This can be zero for configuration only files)
#XUNITS      : eV
#YUNITS      : COUNTS
#DATATYPE    : YY
#XPERCHAN    : 7.862, 7.881   eV per channel (separate by commas if more than one detector)
#OFFSET      : 18.5, -22.4         eV of first channel  (separate by commas if more than one detector
#SIGNALTYPE  : XRF
#YP_TEMP     : 2.203
#LIVETIME    : 8.56063, 8.5565   seconds (separate by commas if more than one detector)
#REALTIME    : 10, 10.0   seconds (separate by commas if more than one detector)
#SPECTRUM    : start of spectrum data
0, 0
0, 0
0, 0
0, 0
0, 0
0, 0
0, 0
0, 0
0, 0
0, 0
0, 0
0, 0
0, 0
0, 0
0, 0
0, 0
0, 0
0, 0
0, 0
0, 0
0, 0
0, 0
0, 0
0, 0
0, 0
0, 0
0, 0
0, 0
0, 0
0, 0
0, 0
0, 0
0, 1
0, 0
1, 0
0, 0
0, 0
1, 2
0, 0
0, 0
1, 2
2, 1
0, 0
4, 2
0, 0
1, 3
0, 2
2, 3
6, 6
14, 20
22, 24
36, 39
71, 58
76, 90
90, 97
78, 83
67, 71
40, 46
25, 26
21, 15
5, 7
11, 5
3, 3
4, 2
1, 3
4, 8
6, 4
9, 16
20, 20
45, 38
94, 108
159, 188
246, 265
341, 373
391, 408
438, 401
376, 364
289, 299
202, 186
121, 113
68, 63
36, 30
20, 20
8, 5
6, 4
4, 2
1, 2
3, 4
3, 2
0, 1
4, 0
3, 2
3, 4
7, 13
25, 23
21, 38
50, 58
50, 51
66, 75
71, 66
60, 66
42, 59
37, 35
31, 26
16, 15
11, 13
11, 9
13, 11
15, 11
18, 23
19, 18
19, 32
32, 26
24, 26
34, 37
35, 37
46, 33
36, 35
23, 26
32, 13
18, 16
15, 11
22, 15
11, 18
13, 15
6, 14
16, 10
6, 9
6, 7
5, 12
2, 5
3, 3
5, 2
1, 3
2, 2
4, 2
4, 0
1, 4
4, 2
4, 3
3, 4
5, 4
4, 3
2, 2
5, 0
7, 0
6, 1
7, 3
11, 3
14, 4
36, 2
44, 4
47, 10
55, 5
46, 12
39, 4
39, 19
20, 16
24, 19
18, 11
11, 10
7, 12
5, 6
4, 5
0, 6
3, 5
6, 1
8, 6
6, 9
4, 4
4, 6
5, 3
6, 2
2, 6
4, 5
8, 11
1, 6
4, 13
4, 5
3, 6
2, 11
8, 5
4, 7
8, 7
5, 4
5, 5
11, 3
10, 5
5, 7
3, 11
4, 7
12, 9
6, 6
7, 14
12, 16
5, 21
18, 14
18, 28
9, 25
9, 28
12, 40
12, 38
10, 29
11, 39
12, 38
8, 32
12, 20
12, 18
4, 16
10, 2
7, 11
5, 9
5, 10
7, 7
5, 5
4, 7
9, 9
6, 5
5, 10
4, 12
6, 10
11, 5
6, 8
8, 10
18, 13
18, 9
33, 11
42, 13
42, 22
34, 18
42, 21
25, 14
41, 11
36, 15
31, 11
18, 13
12, 17
10, 18
9, 28
8, 24
10, 22
5, 39
7, 44
12, 45
18, 38
17, 47
21, 41
38, 55
39, 52
70, 52
56, 67
47, 62
69, 72
72, 49
55, 47
46, 28
62, 26
57, 20
74, 16
107, 11
119, 17
161, 31
180, 45
193, 103
239, 196
396, 360
544, 612
799, 930
1157, 1325
1574, 1863
2051, 2190
2242, 2480
2315, 2477
2378, 2253
2083, 1863
1802, 1566
1227, 1102
951, 715
583, 443
315, 280
231, 135
102, 76
49, 41
25, 19
26, 20
15, 11
8, 13
11, 11
18, 19
13, 30
23, 28
34, 39
40, 69
64, 98
105, 152
149, 182
172, 248
263, 282
313, 332
353, 395
369, 371
345, 330
284, 263
250, 239
196, 193
139, 128
96, 72
55, 59
34, 26
28, 14
16, 18
8, 9
9, 7
15, 14
9, 15
14, 10
12, 9
12, 22
16, 17
11, 10
17, 9
18, 10
9, 13
9, 12
2, 12
4, 9
9, 3
4, 6
10, 6
9, 8
5, 2
6, 7
12, 6
7, 2
5, 2
4, 3
4, 6
6, 3
5, 7
5, 9
5, 6
6, 3
6, 8
6, 2
5, 3
5, 5
5, 8
5, 6
6, 5
6, 3
10, 4
14, 6
16, 4
15, 9
24, 7
19, 2
27, 7
28, 6
29, 2
34, 5
25, 3
22, 6
17, 4
14, 5
8, 9
12, 5
7, 1
11, 5
3, 4
3, 4
7, 3
3, 3
1, 3
2, 3
2, 6
2, 3
5, 3
7, 5
4, 4
4, 2
5, 3
4, 4
6, 7
4, 5
7, 5
4, 5
4, 1
5, 5
6, 4
4, 5
4, 6
1, 7
3, 6
2, 7
5, 6
6, 4
3, 7
1, 7
5, 4
5, 6
2, 5
4, 5
5, 5
8, 6
0, 7
7, 11
2, 3
2, 4
6, 4
0, 7
5, 2
4, 3
4, 2
3, 3
3, 3
0, 3
5, 2
4, 2
3, 5
7, 3
4, 2
6, 3
2, 1
1, 2
3, 2
1, 3
3, 3
5, 4
1, 3
0, 4
3, 4
6, 6
1, 2
6, 5
4, 2
3, 2
5, 3
2, 6
4, 4
3, 2
4, 7
4, 6
6, 1
2, 4
2, 3
3, 3
4, 3
4, 1
5, 1
4, 2
1, 3
3, 0
7, 3
2, 4
2, 3
3, 4
6, 4
1, 0
2, 2
3, 4
1, 2
2, 2
3, 2
1, 0
3, 4
5, 0
3, 4
1, 3
3, 1
0, 3
3, 4
2, 4
2, 3
2, 1
2, 1
2, 1
4, 1
2, 3
2, 1
2, 1
1, 1
2, 7
2, 1
2, 4
3, 2
4, 1
1, 2
0, 2
0, 3
5, 4
2, 1
3, 1
3, 1
0, 2
2, 2
2, 2
1, 3
0, 2
3, 7
3, 3
3, 2
1, 1
0, 3
4, 3
2, 3
2, 1
0, 3
3, 0
0, 2
2, 1
0, 1
0, 2
0, 2
1, 5
4, 2
1, 3
2, 2
3, 1
3, 4
2, 3
1, 1
3, 1
0, 2
2, 0
2, 3
1, 2
2, 1
1, 4
0, 0
2, 2
0, 5
0, 3
4, 2
3, 0
3, 4
2, 1
1, 3
0, 5
4, 3
4, 3
5, 5
1, 2
7, 3
2, 8
7, 5
1, 4
1, 7
12, 4
1, 6
3, 2
4, 0
3, 0
2, 3
3, 3
1, 1
2, 1
1, 3
0, 1
0, 0
0, 0
4, 1
0, 2
4, 6
1, 1
1, 1
2, 2
2, 0
1, 1
2, 4
3, 1
5, 2
0, 0
0, 2
0, 2
1, 0
1, 0
2, 1
2, 0
2, 1
1, 0
3, 2
1, 3
2, 1
2, 1
1, 1
1, 3
0, 2
0, 2
2, 0
1, 2
2, 1
1, 2
2, 4
2, 2
0, 2
0, 5
0, 1
1, 1
2, 1
1, 0
0, 0
1, 1
0, 2
0, 2
0, 1
2, 0
0, 0
0, 0
0, 2
0, 0
0, 2
1, 2
2, 0
0, 2
0, 2
1, 0
2, 1
0, 1
1, 0
1, 0
3, 5
2, 2
2, 0
0, 0
0, 0
2, 1
1, 1
0, 1
1, 2
1, 0
3, 1
0, 1
1, 0
2, 2
1, 0
1, 0
0, 2
0, 1
1, 0
1, 1
0, 2
1, 0
0, 1
0, 1
1, 1
0, 2
0, 0
1, 1
1, 1
0, 1
0, 0
0, 1
0, 1
0, 0
0, 0
2, 0
2, 1
2, 0
0, 2
0, 0
1, 0
1, 1
2, 1
0, 1
0, 1
1, 1
2, 1
1, 0
0, 0
1, 0
1, 0
0, 0
0, 1
0, 0
0, 0
0, 3
0, 1
0, 1
0, 0
0, 1
1, 0
0, 0
1, 1
0, 1
0, 0
0, 0
1, 1
0, 2
0, 0
0, 0
1, 0
0, 0
0, 1
0, 0
1, 2
0, 0
0, 0
0, 0
0, 1
0, 0
0, 1
0, 2
0, 1
0, 0
0, 0
0, 1
0, 0
0, 0
0, 0
0, 0
0, 1
0, 1
0, 0
0, 0
0, 0
0, 2
0, 1
1, 0
0, 0
0, 0
1, 0
0, 0
2, 0
0, 1
0, 0
0, 0
0, 0
0, 0
1, 1
1, 0
0, 0
0, 2
1, 0
0, 0
0, 0
1, 0
0, 0
0, 0
1, 0
0, 0
0, 0
0, 1
1, 0
1, 0
0, 2
0, 1
0, 0
1, 1
1, 0
0, 2
0, 0
1, 0
0, 1
0, 2
0, 0
0, 0
0, 0
0, 0
1, 0
1, 0
0, 0
0, 0
1, 1
0, 0
0, 1
0, 0
0, 1
0, 0
0, 0
1, 0
1, 0
0, 0
0, 0
0, 0
1, 0
0, 2
0, 0
0, 0
0, 0
0, 1
0, 2
1, 1
1, 0
0, 0
0, 0
0, 1
0, 0
0, 0
0, 0
0, 0
0, 1
0, 0
1, 0
0, 0
1, 2
0, 0
1, 1
0, 1
0, 0
0, 0
1, 1
2, 0
0, 0
0, 0
0, 1
1, 0
0, 0
0, 0
0, 0
1, 1
1, 0
0, 0
0, 0
0, 0
0, 0
0, 0
0, 1
0, 0
0, 0
0, 0
1, 1
1, 1
0, 0
0, 0
0, 0
0, 0
1, 0
0, 0
1, 0
0, 0
1, 0
0, 1
0, 0
0, 0
1, 0
0, 0
0, 0
0, 0
0, 1
0, 0
0, 0
0, 0
0, 0
0, 0
0, 0
0, 0
0, 0
0, 0
0, 0
0, 0
0, 0
0, 0
0, 0
2, 0
0, 0
0, 0
1, 0
0, 2
0, 0
0, 0
0, 0
0, 0
0, 0
0, 0
0, 0
0, 0
0, 0
0, 0
0, 0
0, 0
0, 0
0, 0
0, 0
0, 0
0, 0
0, 2
0, 0
0, 0
0, 0
0, 0
0, 0
0, 0
0, 0
0, 0
0, 0
0, 0
0, 0
0, 0
0, 0
0, 0
1, 0
0, 0
0, 0
0, 0
0, 0
0, 0
0, 1
0, 0
0, 0
0, 0
0, 0
0, 2
1, 0
0, 0
0, 0
0, 0
0, 0
0, 0
0, 0
0, 0
0, 0
0, 0
0, 0
0, 0
0, 0
0, 0
0, 0
0, 0
0, 0
0, 0
0, 0
1, 0
1, 0
0, 0
0, 0
0, 0
0, 0
0, 0
0, 0
0, 0
0, 0
0, 0
0, 0
0, 0
0, 0
0, 0
0, 0
0, 0
0, 0
1, 0
0, 0
0, 0
0, 0
0, 0
0, 0
0, 0
0, 0
0, 0
0, 0
0, 0
0, 0
0, 0
0, 0
0, 0
0, 0
0, 0
0, 0
0, 0
0, 0
0, 1
0, 0
0, 0
0, 0
0, 0
1, 0
0, 0
0, 0
0, 0
0, 0
0, 0
0, 0
0, 0
0, 0
0, 0
0, 0
0, 0
0, 0
0, 0
0, 0
0, 0
0, 0
0, 0
0, 0
0, 0
0, 0
0, 0
0, 0
0, 0
0, 0
0, 0
0, 0
0, 0
0, 0
0, 0
0, 0
0, 0
1, 0
0, 0
0, 1
0, 0
0, 0
0, 0
0, 0
0, 0
0, 0
0, 0
0, 0
0, 0
0, 0
0, 0
0, 0
0, 0
0, 0
0, 0
0, 0
0, 0
0, 0
0, 0
0, 0
0, 0
0, 0
0, 0
0, 0
0, 0
0, 0
0, 0
0, 0
0, 0
0, 0
0, 0
0, 0
0, 0
0, 0
0, 0
0, 0
0, 0
0, 0
0, 0
0, 0
0, 0
0, 0
0, 0
0, 0
0, 0
0, 0
0, 0
0, 0
0, 0
0, 0
0, 0
0, 0
0, 0
0, 0
0, 0
0, 0
0, 0
0, 0
0, 0
0, 0
0, 0
0, 0
0, 0
0, 0
0, 0
0, 0
0, 0
0, 0
0, 0
0, 0
0, 0
0, 0
0, 0
0, 0
0, 0
0, 0
0, 0
0, 0
0, 0
0, 0
0, 0
0, 0
0, 0
0, 0
0, 0
0, 0
0, 0
0, 0
0, 0
0, 0
0, 0
0, 0
0, 0
0, 0
0, 0
0, 0
0, 0
0, 0
0, 0
0, 0
0, 0
0, 0
0, 0
0, 0
0, 0
0, 0
0, 0
0, 0
0, 0
0, 0
0, 0
0, 0
0, 0
0, 0
0, 0
0, 0
0, 0
0, 0
0, 0
0, 0
0, 0
0, 0
0, 0
0, 0
0, 0
0, 0
0, 0
0, 0
0, 0
0, 0
0, 0
0, 0
0, 0
0, 0
0, 0
0, 0
0, 0
0, 0
0, 0
0, 0
0, 0
0, 0
0, 0
0, 0
0, 0
0, 0
0, 0
0, 0
0, 0
0, 0
0, 0
0, 0
0, 0
0, 0
0, 0
0, 0
0, 0
0, 0
0, 0
0, 0
0, 0
0, 0
0, 0
0, 0
0, 0
0, 0
0, 0
0, 0
0, 0
0, 0
0, 0
0, 0
0, 0
0, 0
0, 0
0, 0
0, 0
0, 0
0, 0
0, 0
0, 0
0, 0
0, 0
0, 0
0, 0
0, 0
0, 0
0, 0
0, 0
0, 0
0, 0
0, 0
0, 0
0, 0
0, 0
0, 0
0, 0
0, 0
0, 0
0, 0
0, 0
0, 0
0, 0
0, 0
0, 0
0, 0
0, 0
0, 0
0, 0
0, 0
0, 0
0, 0
0, 0
0, 0
0, 0
0, 0
0, 0
0, 0
0, 0
0, 0
0, 0
0, 0
0, 0
0, 0
0, 0
0, 0
0, 0
0, 0
0, 0
0, 0
0, 0
0, 0
0, 0
0, 0
0, 0
0, 0
0, 0
0, 0
0, 0
0, 0
0, 0
0, 0
0, 0
0, 0
0, 0
0, 0
0, 0
0, 0
0, 0
0, 0
0, 0
0, 0
0, 0
0, 0
0, 0
0, 0
0, 0
0, 0
0, 0
0, 0
0, 0
0, 0
0, 0
0, 0
0, 0
0, 0
0, 0
0, 0
0, 0
0, 0
0, 0
0, 0
0, 0
0, 0
0, 0
0, 0
0, 0
0, 0
0, 0
0, 0
0, 0
0, 0
0, 0
0, 0
0, 0
0, 0
0, 0
0, 0
0, 0
0, 0
0, 0
0, 0
0, 0
0, 0
0, 0
0, 0
0, 0
0, 0
0, 0
0, 0
0, 0
0, 0
0, 0
0, 0
0, 0
0, 0
0, 0
0, 0
0, 0
0, 0
0, 0
0, 0
0, 0
0, 0
0, 0
0, 0
0, 0
0, 0
0, 0
0, 0
0, 0
0, 0
0, 0
0, 0
0, 0
0, 0
0, 0
0, 0
0, 0
0, 0
0, 0
0, 0
0, 0
0, 0
0, 0
0, 0
0, 0
0, 0
0, 0
0, 0
0, 0
0, 0
0, 0
0, 0
0, 0
0, 0
0, 0
0, 0
0, 0
0, 0
0, 0
0, 0
0, 0
0, 0
0, 0
0, 0
0, 0
0, 0
0, 0
0, 0
0, 0
0, 0
0, 0
0, 0
0, 0
0, 0
0, 0
#ENDOFDATA     end of spectrum data