File: host_upload/06-09-2024/ps_0852/dump3/ps__0852shot_2432.msa
#FORMAT      : EMSA/MAS spectral data file
#VERSION     : TC202v2.0 PIXL
#TITLE       : N/A
#DATE        :       Date in the format DD-MMM-YYYY, for example 07-JUL-2010
#TIME        :             The time of day at which the spectrum was recorded, in 24-hour format
#OWNER       : PIXL Flight Model       (PIXL will use this to indicate which instrument took the data.)
#NPOINTS     : 4096     Number of data points in the spectrum (This can be zero for configuration only files)
#NCOLUMNS    : 2     Number of data columns in the spectrum (This can be zero for configuration only files)
#XUNITS      : eV
#YUNITS      : COUNTS
#DATATYPE    : YY
#XPERCHAN    : 7.862, 7.881   eV per channel (separate by commas if more than one detector)
#OFFSET      : 18.5, -22.4         eV of first channel  (separate by commas if more than one detector
#SIGNALTYPE  : XRF
#YP_TEMP     : 2.107
#LIVETIME    : 8.54465, 8.58152   seconds (separate by commas if more than one detector)
#REALTIME    : 10, 10.0   seconds (separate by commas if more than one detector)
#SPECTRUM    : start of spectrum data
0, 0
0, 0
0, 0
0, 0
0, 0
0, 0
0, 0
0, 0
0, 0
0, 0
0, 0
0, 0
0, 0
0, 0
0, 0
0, 0
0, 0
0, 0
0, 0
0, 0
0, 0
0, 0
0, 0
0, 0
0, 0
0, 0
0, 0
0, 0
0, 0
0, 0
0, 0
0, 1
0, 0
1, 0
0, 0
0, 0
1, 1
0, 2
0, 0
2, 0
1, 1
1, 1
2, 0
2, 0
2, 5
1, 4
2, 2
2, 5
9, 6
17, 8
27, 16
42, 30
47, 32
77, 66
85, 48
71, 43
43, 48
41, 25
25, 25
13, 8
5, 6
7, 3
9, 2
2, 5
6, 5
8, 9
5, 8
14, 10
24, 20
50, 51
101, 70
182, 127
257, 227
383, 316
474, 337
474, 316
395, 314
318, 214
237, 150
139, 74
71, 30
51, 22
29, 10
8, 9
9, 6
3, 4
4, 1
0, 0
5, 3
1, 0
3, 1
1, 3
3, 2
1, 7
16, 9
17, 9
19, 16
36, 23
38, 33
38, 25
33, 16
17, 16
11, 19
14, 8
14, 3
11, 5
9, 8
20, 9
24, 18
28, 24
59, 38
56, 41
73, 48
82, 50
71, 55
75, 59
74, 50
60, 45
45, 36
44, 35
34, 33
32, 33
24, 42
21, 45
19, 43
20, 40
15, 20
12, 15
9, 15
13, 15
8, 13
6, 10
5, 3
4, 4
1, 3
3, 4
4, 1
4, 1
3, 3
1, 3
6, 2
3, 0
7, 1
1, 2
2, 2
2, 2
5, 1
3, 1
5, 0
3, 3
6, 6
10, 4
9, 15
20, 21
35, 27
61, 21
56, 38
60, 43
64, 49
67, 34
45, 18
35, 19
23, 14
14, 7
4, 6
10, 5
6, 5
10, 4
8, 3
10, 10
8, 13
10, 15
7, 11
11, 14
10, 12
8, 28
5, 28
7, 22
5, 41
7, 34
1, 25
3, 30
6, 18
3, 21
2, 13
4, 4
6, 11
3, 10
9, 17
8, 11
6, 20
9, 19
15, 16
24, 26
11, 29
12, 21
12, 27
14, 22
30, 23
14, 21
29, 22
22, 16
23, 9
27, 13
17, 6
13, 6
26, 3
13, 2
9, 4
12, 2
10, 3
9, 5
11, 2
7, 2
4, 4
6, 1
6, 5
4, 1
2, 4
6, 8
6, 9
6, 7
8, 7
7, 9
6, 13
11, 11
6, 12
15, 22
25, 15
15, 19
23, 24
19, 15
21, 16
18, 13
15, 10
23, 10
16, 14
14, 7
14, 3
16, 14
9, 10
8, 10
9, 11
7, 11
13, 28
25, 40
27, 26
38, 39
60, 48
49, 49
83, 58
72, 51
83, 44
75, 50
46, 30
45, 29
38, 13
27, 24
12, 16
22, 17
27, 13
30, 25
42, 46
86, 82
151, 152
292, 311
484, 466
831, 758
1196, 1085
1681, 1451
2059, 1811
2447, 1903
2580, 2035
2528, 1931
2256, 1601
1843, 1308
1318, 875
934, 607
653, 379
372, 186
226, 133
140, 61
109, 28
94, 22
85, 15
93, 15
91, 13
78, 9
78, 10
110, 13
81, 23
69, 34
73, 44
106, 71
133, 105
170, 130
215, 195
314, 256
304, 326
369, 304
420, 311
387, 283
330, 295
248, 199
196, 131
117, 96
78, 65
56, 41
43, 25
24, 18
8, 9
10, 10
11, 7
14, 12
8, 12
14, 16
17, 13
12, 10
16, 8
11, 10
18, 12
7, 16
13, 10
9, 4
4, 7
2, 4
5, 3
6, 5
3, 4
3, 1
6, 1
4, 2
4, 4
6, 4
2, 1
5, 5
4, 0
6, 3
1, 9
3, 2
5, 3
4, 4
4, 3
5, 3
5, 5
7, 3
8, 4
5, 3
4, 8
9, 7
5, 7
8, 4
4, 8
5, 5
5, 7
3, 7
6, 2
7, 5
7, 6
6, 6
6, 3
3, 3
5, 4
4, 5
5, 4
2, 6
2, 8
3, 5
2, 6
5, 3
4, 6
7, 4
5, 3
7, 5
3, 4
2, 2
3, 5
3, 3
4, 5
9, 3
2, 1
5, 4
6, 4
8, 1
0, 1
2, 5
5, 2
5, 3
4, 1
2, 2
4, 7
7, 6
4, 6
5, 10
5, 12
5, 13
6, 13
1, 13
3, 6
6, 7
2, 8
5, 8
4, 8
3, 3
4, 6
5, 8
1, 5
3, 3
3, 3
4, 3
9, 3
8, 2
13, 2
14, 2
11, 1
19, 3
30, 1
15, 3
29, 2
25, 3
32, 3
21, 0
27, 1
27, 0
13, 3
14, 2
7, 4
6, 3
8, 1
2, 2
7, 2
6, 1
6, 3
7, 3
5, 0
1, 4
4, 2
0, 3
2, 6
5, 4
1, 5
5, 2
2, 3
4, 3
2, 1
3, 2
1, 4
3, 1
3, 0
7, 1
2, 5
4, 5
3, 3
1, 1
1, 1
2, 2
1, 2
1, 4
5, 2
3, 1
4, 3
0, 2
6, 2
2, 2
2, 1
2, 1
3, 1
3, 1
2, 1
4, 0
1, 0
2, 0
1, 4
3, 2
3, 0
1, 2
5, 2
2, 3
2, 0
2, 2
3, 1
2, 3
2, 4
2, 4
2, 7
4, 2
2, 3
2, 3
0, 1
3, 3
2, 2
3, 2
1, 1
2, 4
3, 2
4, 4
0, 4
1, 3
4, 3
1, 4
2, 3
1, 1
3, 2
3, 3
3, 3
3, 0
1, 2
2, 2
0, 2
5, 0
3, 1
2, 2
2, 0
0, 0
2, 0
0, 2
3, 2
1, 3
2, 1
2, 2
3, 1
2, 2
4, 2
1, 1
1, 5
2, 2
2, 0
2, 4
1, 1
3, 2
3, 4
3, 2
2, 2
2, 2
2, 2
1, 5
6, 3
3, 2
2, 2
4, 1
1, 1
4, 2
5, 4
5, 5
4, 1
5, 1
2, 0
6, 6
3, 0
2, 3
3, 0
2, 2
5, 1
3, 1
2, 2
3, 1
0, 0
2, 2
4, 2
1, 0
0, 0
2, 3
0, 3
4, 2
2, 0
2, 1
0, 1
1, 2
3, 1
0, 1
5, 2
2, 3
2, 1
1, 1
2, 1
0, 3
0, 1
1, 1
4, 2
2, 0
0, 4
2, 1
2, 2
2, 2
3, 0
1, 0
1, 0
1, 1
1, 4
2, 1
3, 0
2, 2
3, 1
0, 1
1, 0
0, 1
1, 2
1, 1
1, 0
3, 0
1, 1
3, 3
2, 2
2, 1
2, 2
0, 3
2, 1
5, 0
2, 2
0, 1
1, 1
2, 0
0, 0
3, 4
4, 1
1, 1
1, 0
0, 0
3, 0
4, 0
1, 0
1, 0
0, 0
5, 1
2, 0
0, 2
0, 0
0, 0
2, 0
2, 0
0, 0
0, 0
0, 0
1, 1
1, 1
1, 0
1, 0
0, 1
2, 0
0, 1
0, 1
1, 0
2, 0
1, 1
0, 0
2, 0
0, 0
1, 0
1, 0
0, 0
1, 0
0, 1
0, 0
0, 0
0, 2
2, 0
1, 1
2, 0
1, 0
1, 0
0, 1
1, 0
1, 2
0, 1
0, 1
1, 0
1, 0
1, 0
0, 0
1, 1
0, 0
1, 0
2, 1
1, 0
1, 1
1, 0
0, 0
0, 0
0, 0
1, 0
0, 0
1, 2
0, 0
2, 1
0, 0
0, 0
0, 0
0, 1
2, 0
0, 0
0, 1
1, 0
0, 0
1, 0
1, 0
2, 0
0, 1
1, 0
0, 0
0, 1
1, 1
1, 0
0, 1
1, 0
1, 0
1, 2
0, 0
0, 0
2, 2
1, 0
0, 0
0, 0
0, 0
1, 0
1, 0
1, 1
0, 0
1, 0
0, 0
0, 0
0, 0
0, 0
0, 0
0, 0
1, 0
0, 0
0, 2
1, 0
1, 0
1, 1
0, 0
0, 0
0, 0
0, 0
0, 0
0, 0
0, 0
0, 1
1, 0
0, 0
0, 0
0, 0
2, 0
1, 0
1, 0
0, 0
0, 0
0, 0
0, 0
0, 0
1, 0
0, 0
0, 1
0, 0
0, 1
0, 0
0, 0
0, 0
0, 0
1, 1
1, 0
0, 1
0, 1
1, 0
0, 0
1, 1
0, 0
0, 1
0, 0
1, 0
1, 0
1, 0
0, 0
0, 1
0, 0
0, 0
0, 0
0, 0
0, 0
0, 0
0, 0
1, 0
0, 1
1, 0
0, 0
0, 0
0, 0
0, 1
1, 0
1, 0
0, 0
0, 1
0, 0
0, 0
0, 1
1, 0
0, 0
0, 0
0, 0
1, 0
0, 0
0, 0
0, 0
0, 1
0, 0
2, 0
1, 0
0, 0
0, 1
0, 0
0, 0
0, 0
0, 0
0, 0
0, 0
0, 0
0, 0
0, 0
0, 0
0, 0
0, 1
0, 0
0, 0
1, 0
0, 0
0, 0
0, 0
0, 0
1, 1
0, 0
1, 0
0, 0
1, 0
0, 0
0, 0
0, 0
0, 0
0, 0
0, 0
1, 0
0, 0
0, 0
0, 0
0, 0
0, 0
0, 0
0, 1
0, 0
0, 0
0, 0
0, 0
0, 0
0, 0
0, 0
0, 0
0, 0
0, 0
0, 0
1, 0
0, 0
0, 0
0, 0
0, 0
0, 0
0, 0
0, 0
0, 1
0, 0
0, 0
0, 0
0, 0
0, 0
0, 0
0, 1
0, 0
0, 0
1, 0
1, 0
0, 0
0, 0
0, 0
0, 0
1, 0
0, 0
0, 0
0, 0
0, 0
0, 0
0, 0
0, 0
0, 0
0, 0
0, 0
0, 0
0, 0
0, 0
0, 0
1, 0
0, 0
0, 0
0, 0
0, 0
0, 0
0, 0
0, 0
0, 0
0, 0
0, 0
1, 0
0, 0
1, 0
0, 0
0, 0
0, 0
0, 0
0, 0
0, 0
0, 0
0, 0
0, 0
0, 0
0, 0
0, 0
2, 0
0, 0
0, 1
0, 0
0, 0
0, 0
0, 0
0, 0
0, 0
0, 0
0, 0
0, 0
0, 0
0, 0
0, 0
0, 0
0, 0
0, 0
0, 0
1, 0
0, 0
0, 0
0, 0
0, 0
0, 0
0, 0
0, 0
0, 0
0, 0
0, 0
0, 0
0, 0
0, 0
0, 0
0, 0
0, 0
0, 0
1, 0
0, 0
0, 0
0, 0
0, 0
0, 0
0, 0
0, 0
0, 0
0, 0
0, 0
0, 0
0, 0
0, 0
0, 0
0, 0
0, 0
0, 0
0, 0
0, 0
0, 0
0, 0
0, 0
0, 0
0, 0
0, 0
0, 0
0, 0
0, 0
0, 0
0, 0
0, 0
0, 0
0, 0
0, 0
0, 0
0, 0
0, 0
0, 0
0, 0
0, 0
0, 0
0, 0
0, 1
0, 0
0, 0
0, 0
0, 0
0, 0
0, 0
0, 0
0, 0
0, 0
0, 0
0, 0
0, 0
0, 0
0, 0
0, 0
0, 0
0, 0
0, 0
0, 0
0, 0
0, 0
0, 0
0, 0
0, 0
0, 0
0, 0
0, 0
0, 1
0, 0
0, 0
0, 0
0, 0
0, 0
0, 0
0, 0
0, 0
0, 0
0, 0
0, 0
0, 0
0, 0
0, 0
0, 0
0, 0
0, 0
0, 0
0, 0
0, 0
0, 0
0, 0
0, 0
0, 0
0, 0
0, 0
0, 0
0, 0
0, 0
0, 0
0, 0
1, 0
0, 0
0, 0
0, 0
0, 0
0, 0
0, 0
0, 0
0, 0
0, 0
0, 0
0, 0
0, 0
0, 0
0, 0
0, 0
0, 0
0, 0
0, 0
0, 0
0, 0
0, 0
0, 0
0, 0
0, 0
0, 0
0, 0
0, 0
0, 0
0, 0
0, 0
0, 0
0, 0
0, 0
0, 0
0, 0
0, 0
0, 0
0, 0
0, 0
0, 0
0, 0
0, 0
0, 0
0, 0
0, 0
0, 0
0, 0
0, 0
0, 0
0, 0
0, 0
0, 0
0, 0
0, 0
0, 0
0, 0
0, 0
0, 0
0, 0
0, 0
0, 0
0, 0
0, 0
0, 0
0, 0
0, 0
0, 0
0, 0
0, 0
0, 0
0, 0
0, 0
0, 0
0, 0
0, 0
0, 0
0, 0
0, 0
0, 0
0, 0
0, 0
0, 0
0, 0
0, 0
0, 0
0, 0
0, 0
0, 0
0, 0
0, 0
0, 0
0, 0
0, 0
0, 0
0, 0
0, 0
0, 0
0, 0
0, 0
0, 0
0, 0
0, 0
0, 0
0, 0
0, 0
0, 0
0, 0
0, 0
0, 0
0, 0
0, 0
0, 0
0, 0
0, 0
0, 0
0, 0
0, 0
0, 0
0, 0
0, 0
0, 0
0, 0
0, 0
0, 0
0, 0
0, 0
0, 0
0, 0
0, 0
0, 0
0, 0
0, 0
0, 0
0, 0
0, 0
0, 0
0, 0
0, 0
0, 0
0, 0
0, 0
0, 0
0, 0
0, 0
0, 0
0, 0
0, 0
0, 0
0, 0
0, 0
0, 0
0, 0
0, 0
0, 0
0, 0
0, 0
0, 0
0, 0
0, 0
0, 0
0, 0
0, 0
0, 0
0, 0
0, 0
0, 0
0, 0
0, 0
0, 0
0, 0
0, 0
0, 0
0, 0
0, 0
0, 0
0, 0
0, 0
0, 0
0, 0
0, 0
0, 0
0, 0
0, 0
0, 0
0, 0
0, 0
0, 0
0, 0
0, 0
0, 0
0, 0
0, 0
0, 0
0, 0
0, 0
0, 0
0, 0
0, 0
0, 0
0, 0
0, 0
0, 0
0, 0
0, 0
0, 0
0, 0
0, 0
0, 0
0, 0
0, 0
0, 0
0, 0
0, 0
0, 0
0, 0
0, 0
0, 0
0, 0
0, 0
0, 0
0, 0
0, 0
0, 0
0, 0
0, 0
0, 0
0, 0
0, 0
0, 0
0, 0
0, 0
0, 0
0, 0
0, 0
0, 0
0, 0
0, 0
0, 0
0, 0
0, 0
0, 0
0, 0
0, 0
0, 0
0, 0
0, 0
0, 0
0, 0
0, 0
0, 0
0, 0
0, 0
0, 0
0, 0
0, 0
0, 0
0, 0
0, 0
0, 0
0, 0
0, 0
0, 0
0, 0
0, 0
0, 0
0, 0
0, 0
0, 0
0, 0
0, 0
0, 0
0, 0
0, 0
0, 0
0, 0
0, 0
0, 0
0, 0
0, 0
0, 0
0, 0
0, 0
0, 0
0, 0
0, 0
0, 0
0, 0
0, 0
0, 0
0, 0
0, 0
0, 0
0, 0
0, 0
0, 0
0, 0
0, 0
0, 0
0, 0
0, 0
0, 0
0, 0
#ENDOFDATA     end of spectrum data