File: host_upload/06-09-2024/ps_0852/dump3/ps__0852shot_2037.msa
#FORMAT      : EMSA/MAS spectral data file
#VERSION     : TC202v2.0 PIXL
#TITLE       : N/A
#DATE        :       Date in the format DD-MMM-YYYY, for example 07-JUL-2010
#TIME        :             The time of day at which the spectrum was recorded, in 24-hour format
#OWNER       : PIXL Flight Model       (PIXL will use this to indicate which instrument took the data.)
#NPOINTS     : 4096     Number of data points in the spectrum (This can be zero for configuration only files)
#NCOLUMNS    : 2     Number of data columns in the spectrum (This can be zero for configuration only files)
#XUNITS      : eV
#YUNITS      : COUNTS
#DATATYPE    : YY
#XPERCHAN    : 7.862, 7.881   eV per channel (separate by commas if more than one detector)
#OFFSET      : 18.5, -22.4         eV of first channel  (separate by commas if more than one detector
#SIGNALTYPE  : XRF
#YP_TEMP     : 2.3
#LIVETIME    : 8.5715, 8.52255   seconds (separate by commas if more than one detector)
#REALTIME    : 10, 10.0   seconds (separate by commas if more than one detector)
#SPECTRUM    : start of spectrum data
0, 0
0, 0
0, 0
0, 0
0, 0
0, 0
0, 0
0, 0
0, 0
0, 0
0, 0
0, 0
0, 0
0, 0
0, 0
0, 0
0, 0
0, 0
0, 0
0, 0
0, 0
0, 0
0, 0
0, 0
0, 0
0, 0
0, 0
0, 0
0, 0
0, 0
0, 0
0, 0
1, 0
0, 1
0, 0
0, 0
1, 1
2, 0
1, 1
0, 2
1, 1
3, 1
2, 1
4, 0
1, 2
6, 2
0, 1
3, 2
4, 8
11, 14
13, 22
34, 44
66, 53
72, 67
61, 90
60, 59
60, 52
35, 26
27, 18
20, 23
10, 10
3, 5
5, 4
8, 4
5, 9
2, 11
5, 6
11, 24
18, 22
52, 44
98, 109
164, 177
265, 282
343, 357
361, 434
414, 429
360, 417
274, 275
192, 197
124, 118
71, 86
18, 38
22, 18
15, 7
2, 6
3, 7
0, 3
1, 0
3, 0
2, 2
2, 1
0, 0
1, 1
2, 1
3, 6
3, 3
5, 4
5, 3
3, 4
8, 3
7, 9
4, 5
6, 8
6, 1
10, 4
7, 4
5, 7
14, 11
14, 12
19, 20
30, 31
64, 47
70, 43
91, 76
90, 59
106, 65
78, 56
85, 54
65, 47
37, 36
36, 32
26, 33
27, 19
15, 17
13, 21
12, 17
12, 11
13, 10
10, 5
4, 7
6, 5
4, 6
5, 5
3, 4
5, 2
4, 3
4, 6
2, 3
2, 7
3, 1
3, 3
3, 1
2, 4
5, 1
4, 2
2, 2
5, 2
2, 3
2, 1
4, 3
2, 3
4, 7
3, 5
6, 9
12, 15
14, 23
14, 19
12, 12
14, 20
13, 25
8, 20
7, 16
5, 13
4, 15
7, 4
7, 4
6, 10
2, 2
2, 6
2, 5
7, 6
9, 5
4, 4
5, 3
6, 9
2, 6
6, 3
5, 3
6, 7
11, 5
8, 5
8, 5
3, 7
5, 5
4, 3
6, 4
11, 4
7, 5
5, 10
10, 7
13, 7
14, 9
13, 8
9, 13
10, 15
15, 12
22, 9
14, 16
12, 14
12, 16
22, 17
10, 17
10, 12
14, 10
6, 10
6, 3
9, 5
9, 5
9, 7
14, 11
10, 12
11, 9
8, 9
6, 8
10, 4
6, 5
8, 10
8, 12
11, 7
12, 7
12, 4
10, 6
18, 7
15, 8
18, 12
27, 13
16, 19
16, 20
24, 17
23, 22
30, 43
14, 30
13, 38
16, 39
18, 33
16, 45
15, 45
10, 47
9, 26
12, 22
8, 19
13, 17
15, 17
17, 15
32, 24
29, 27
31, 38
45, 34
50, 46
74, 60
60, 65
60, 59
70, 54
57, 42
51, 41
33, 35
23, 30
20, 27
16, 16
26, 19
19, 26
26, 27
46, 56
72, 111
156, 198
255, 412
448, 615
736, 958
1137, 1348
1535, 1852
1872, 2196
2127, 2393
2344, 2523
2306, 2354
2093, 2073
1684, 1634
1278, 1175
967, 756
554, 480
331, 286
194, 149
106, 73
63, 46
33, 18
18, 20
14, 21
14, 22
17, 28
12, 22
29, 16
18, 44
27, 38
48, 56
71, 87
96, 137
145, 170
170, 274
221, 285
256, 322
346, 366
392, 374
343, 330
284, 295
231, 232
169, 158
152, 118
79, 63
54, 47
31, 24
17, 13
15, 19
11, 17
12, 16
10, 6
7, 15
7, 13
9, 18
15, 26
15, 19
12, 18
13, 14
10, 10
7, 11
11, 7
6, 3
10, 2
5, 9
4, 6
7, 7
5, 3
1, 4
3, 2
3, 2
5, 2
1, 2
4, 3
2, 6
8, 1
8, 6
2, 4
3, 0
5, 9
3, 3
9, 4
5, 3
6, 5
4, 8
4, 11
5, 10
4, 11
7, 6
6, 5
4, 10
4, 5
5, 5
2, 5
8, 5
5, 8
4, 5
3, 4
3, 5
3, 2
4, 7
5, 6
5, 11
5, 10
5, 7
5, 3
9, 6
7, 7
2, 12
2, 3
2, 4
6, 2
3, 4
6, 3
2, 5
3, 5
1, 8
7, 7
4, 1
8, 5
6, 5
6, 4
3, 4
4, 4
3, 4
2, 6
5, 5
9, 6
3, 4
1, 3
5, 2
5, 2
4, 4
3, 8
5, 5
4, 1
2, 4
5, 4
2, 4
6, 6
2, 2
1, 1
2, 4
5, 2
3, 4
4, 6
6, 2
4, 4
3, 2
5, 4
2, 3
3, 4
1, 4
6, 5
5, 2
2, 3
4, 3
2, 2
2, 2
2, 8
5, 3
3, 1
4, 0
3, 1
5, 4
2, 2
2, 2
7, 2
7, 1
2, 3
3, 2
4, 4
5, 5
5, 2
5, 3
3, 5
1, 3
0, 3
4, 7
3, 3
3, 1
1, 3
2, 1
2, 8
3, 3
0, 5
2, 2
2, 4
1, 2
3, 3
2, 6
6, 2
3, 2
4, 3
4, 4
2, 4
4, 3
3, 4
0, 7
3, 1
5, 3
9, 2
4, 10
5, 4
5, 2
1, 3
3, 4
5, 5
1, 2
4, 1
1, 3
2, 5
4, 9
3, 4
3, 9
4, 2
5, 10
2, 4
2, 2
4, 8
1, 2
3, 5
3, 5
3, 2
2, 1
5, 4
1, 2
6, 1
5, 3
3, 2
2, 3
3, 1
3, 2
2, 4
2, 0
2, 3
2, 3
1, 3
2, 1
0, 2
0, 0
2, 2
3, 1
1, 3
5, 1
1, 0
4, 1
4, 4
2, 6
1, 1
3, 1
1, 1
1, 3
0, 2
0, 0
2, 4
2, 3
4, 0
2, 2
0, 3
1, 1
2, 4
2, 3
1, 2
3, 6
3, 2
2, 1
3, 3
3, 5
0, 5
2, 3
3, 4
3, 3
6, 5
9, 6
4, 3
3, 2
0, 2
3, 4
5, 4
6, 5
8, 4
5, 3
1, 6
3, 2
0, 2
1, 2
2, 3
2, 1
3, 1
0, 2
0, 2
1, 2
2, 1
2, 2
1, 2
2, 1
0, 1
2, 2
3, 0
2, 1
1, 1
2, 8
1, 2
1, 4
4, 1
0, 3
2, 1
3, 3
1, 0
1, 3
0, 1
0, 4
1, 3
1, 3
0, 1
1, 0
0, 0
2, 2
0, 1
1, 0
2, 1
0, 0
3, 0
0, 1
2, 0
0, 1
0, 0
2, 1
0, 0
1, 1
1, 3
0, 0
1, 1
1, 0
1, 1
0, 1
1, 1
1, 0
1, 2
2, 0
1, 1
2, 2
5, 1
0, 1
1, 0
2, 1
0, 0
0, 1
0, 0
0, 0
1, 0
2, 0
0, 1
1, 1
3, 0
2, 3
3, 1
0, 2
1, 1
0, 2
1, 0
1, 0
0, 1
1, 0
0, 0
3, 3
0, 1
2, 0
2, 3
1, 1
2, 0
1, 1
1, 0
0, 1
0, 0
1, 1
0, 0
4, 0
2, 2
0, 0
0, 0
1, 1
2, 1
1, 0
0, 1
0, 0
0, 2
1, 2
0, 1
0, 1
1, 0
1, 0
0, 1
0, 0
0, 0
0, 1
1, 1
0, 0
0, 0
1, 1
0, 1
0, 0
0, 0
1, 0
2, 0
0, 2
1, 0
1, 1
3, 0
0, 2
0, 0
0, 0
0, 0
2, 1
0, 0
0, 1
1, 0
1, 0
0, 1
0, 0
0, 0
0, 2
0, 0
0, 0
0, 0
1, 0
1, 0
1, 1
1, 0
0, 1
0, 1
0, 0
1, 0
0, 0
0, 0
3, 2
0, 0
0, 0
0, 0
0, 1
1, 1
0, 0
1, 0
0, 0
0, 0
0, 0
2, 0
1, 0
0, 0
0, 0
0, 1
0, 0
0, 1
2, 1
0, 1
0, 1
0, 0
0, 0
0, 0
0, 0
0, 0
0, 0
0, 0
0, 0
0, 2
1, 1
1, 1
2, 0
0, 1
0, 0
0, 0
0, 1
0, 1
0, 1
0, 0
2, 1
1, 0
0, 0
0, 0
1, 0
0, 0
1, 0
0, 0
0, 1
1, 0
0, 0
0, 0
0, 0
0, 0
0, 0
1, 0
0, 0
0, 0
0, 0
1, 0
0, 0
0, 0
0, 1
0, 0
1, 0
0, 1
0, 0
0, 0
1, 0
1, 0
0, 0
0, 0
0, 0
0, 0
1, 0
0, 0
0, 0
0, 0
0, 0
0, 1
0, 0
0, 1
0, 0
0, 0
0, 1
0, 0
0, 0
1, 2
0, 0
0, 0
2, 0
0, 0
0, 1
0, 1
0, 0
0, 0
1, 0
0, 0
0, 1
0, 0
0, 0
0, 0
0, 1
0, 0
0, 0
0, 0
0, 1
0, 0
0, 0
0, 1
0, 0
0, 2
0, 0
0, 0
0, 1
1, 1
1, 0
0, 0
1, 0
0, 0
0, 0
1, 1
0, 0
0, 0
0, 0
0, 0
0, 0
0, 0
2, 0
0, 0
0, 0
0, 0
0, 0
0, 0
0, 0
0, 0
0, 0
1, 0
1, 0
0, 0
0, 0
0, 0
0, 0
0, 0
0, 0
0, 0
0, 0
0, 0
0, 0
0, 1
0, 0
0, 1
0, 0
0, 0
0, 0
0, 0
0, 0
0, 0
0, 0
0, 0
0, 1
0, 0
0, 0
0, 1
0, 1
1, 0
0, 1
0, 0
0, 0
0, 0
0, 0
0, 0
0, 0
0, 0
0, 0
0, 0
0, 0
0, 0
0, 0
0, 0
0, 0
0, 0
0, 0
0, 0
0, 0
0, 0
0, 1
0, 0
0, 0
0, 0
0, 0
0, 0
0, 0
0, 0
2, 0
0, 0
0, 0
0, 0
0, 0
1, 0
0, 0
0, 0
0, 0
0, 0
0, 0
0, 0
0, 1
0, 0
0, 0
0, 0
0, 0
0, 0
0, 0
0, 1
0, 0
0, 0
0, 0
0, 0
0, 0
0, 0
0, 0
0, 0
0, 0
0, 0
0, 0
0, 0
0, 1
0, 0
0, 0
0, 0
0, 0
0, 0
0, 0
0, 0
0, 0
0, 0
1, 0
0, 0
0, 0
0, 0
0, 0
0, 0
0, 0
0, 0
0, 0
0, 1
0, 0
0, 0
0, 0
0, 0
0, 0
0, 0
0, 0
0, 0
0, 0
0, 0
0, 0
0, 0
0, 0
0, 0
0, 0
0, 0
0, 0
0, 0
0, 0
0, 0
0, 0
0, 0
0, 0
0, 0
0, 0
0, 0
0, 0
0, 0
0, 0
0, 0
0, 0
0, 0
0, 0
0, 0
0, 0
0, 0
1, 0
0, 0
0, 0
0, 0
0, 0
0, 0
0, 1
0, 0
0, 0
0, 0
0, 0
0, 0
0, 0
0, 0
0, 0
0, 0
0, 0
0, 0
0, 0
0, 0
0, 0
0, 0
0, 0
0, 0
0, 0
0, 0
0, 0
0, 0
0, 0
0, 0
0, 0
0, 0
0, 0
0, 0
0, 0
0, 0
0, 0
0, 0
0, 0
0, 0
0, 0
0, 0
0, 0
1, 0
0, 0
0, 0
0, 0
0, 0
0, 0
0, 0
0, 0
0, 0
0, 0
0, 0
0, 0
0, 0
0, 0
0, 0
0, 0
0, 0
0, 0
0, 0
0, 0
0, 0
0, 0
0, 0
0, 0
0, 0
0, 0
0, 0
0, 0
0, 0
0, 0
0, 0
0, 0
0, 0
0, 0
0, 0
0, 0
0, 0
0, 0
0, 0
0, 0
0, 0
0, 0
0, 0
0, 0
0, 0
0, 0
0, 0
0, 0
0, 0
0, 0
0, 0
0, 0
0, 0
0, 0
0, 0
0, 0
0, 0
0, 0
0, 0
0, 0
0, 0
0, 0
0, 0
0, 0
0, 0
0, 0
0, 0
0, 0
0, 0
0, 0
0, 0
0, 0
0, 0
0, 0
0, 0
0, 0
0, 1
0, 0
0, 0
0, 0
0, 0
0, 0
0, 0
0, 0
0, 0
0, 0
0, 0
0, 0
0, 0
0, 0
0, 0
0, 0
0, 0
0, 0
0, 0
0, 0
0, 0
0, 0
0, 0
0, 0
0, 0
0, 0
0, 0
0, 0
0, 0
0, 0
0, 0
0, 0
0, 0
0, 0
0, 0
0, 0
0, 0
0, 0
0, 0
0, 0
0, 0
0, 0
0, 0
0, 0
0, 0
0, 0
0, 0
0, 0
0, 0
0, 0
0, 0
0, 0
0, 0
0, 0
0, 0
0, 0
0, 0
0, 0
0, 0
0, 0
0, 0
0, 0
0, 0
0, 0
0, 0
0, 0
0, 0
0, 0
0, 0
0, 0
0, 0
0, 0
0, 0
0, 0
0, 0
0, 0
0, 0
0, 0
0, 0
0, 0
0, 0
0, 0
0, 0
0, 0
0, 0
0, 0
0, 0
0, 0
0, 0
0, 0
0, 0
0, 0
0, 0
0, 0
0, 0
0, 0
0, 0
0, 0
0, 0
0, 0
0, 0
0, 0
0, 0
0, 0
0, 0
0, 0
0, 0
0, 0
0, 0
0, 0
0, 0
0, 0
0, 0
0, 0
0, 0
0, 0
0, 0
0, 0
0, 0
0, 0
0, 0
0, 0
0, 0
0, 0
0, 0
0, 0
0, 0
0, 0
0, 0
0, 0
0, 0
0, 0
0, 0
0, 0
0, 0
0, 0
0, 0
0, 0
0, 0
0, 0
0, 0
0, 0
0, 0
0, 0
0, 0
0, 0
0, 0
0, 0
0, 0
0, 0
0, 0
0, 0
0, 0
0, 0
0, 0
0, 0
0, 0
0, 0
0, 0
0, 0
0, 0
0, 0
0, 0
0, 0
0, 0
0, 0
0, 0
0, 0
0, 0
0, 0
0, 0
0, 0
0, 0
0, 0
0, 0
0, 0
0, 0
0, 0
0, 0
0, 0
0, 0
0, 0
0, 0
0, 0
0, 0
0, 0
0, 0
0, 0
0, 0
0, 0
0, 0
0, 0
0, 0
0, 0
0, 0
0, 0
0, 0
0, 0
0, 0
0, 0
0, 0
0, 0
0, 0
0, 0
0, 0
0, 0
0, 0
0, 0
0, 0
0, 0
0, 0
0, 0
0, 0
0, 0
0, 0
0, 0
0, 0
0, 0
0, 0
0, 0
0, 0
0, 0
0, 0
0, 0
0, 0
0, 0
0, 0
0, 0
0, 0
0, 0
0, 0
0, 0
0, 0
0, 0
0, 0
0, 0
0, 0
0, 0
0, 0
0, 0
0, 0
0, 0
0, 0
0, 0
0, 0
0, 0
0, 0
0, 0
0, 0
0, 0
0, 0
0, 0
0, 0
0, 0
0, 0
0, 0
0, 0
0, 0
0, 0
0, 0
0, 0
0, 0
0, 0
0, 0
0, 0
0, 0
0, 0
#ENDOFDATA     end of spectrum data