File: host_upload/06-09-2024/ps_0852/dump3/ps__0852shot_2382.msa
#FORMAT      : EMSA/MAS spectral data file
#VERSION     : TC202v2.0 PIXL
#TITLE       : N/A
#DATE        :       Date in the format DD-MMM-YYYY, for example 07-JUL-2010
#TIME        :             The time of day at which the spectrum was recorded, in 24-hour format
#OWNER       : PIXL Flight Model       (PIXL will use this to indicate which instrument took the data.)
#NPOINTS     : 4096     Number of data points in the spectrum (This can be zero for configuration only files)
#NCOLUMNS    : 2     Number of data columns in the spectrum (This can be zero for configuration only files)
#XUNITS      : eV
#YUNITS      : COUNTS
#DATATYPE    : YY
#XPERCHAN    : 7.862, 7.881   eV per channel (separate by commas if more than one detector)
#OFFSET      : 18.5, -22.4         eV of first channel  (separate by commas if more than one detector
#SIGNALTYPE  : XRF
#YP_TEMP     : 2.3
#LIVETIME    : 8.55989, 8.56315   seconds (separate by commas if more than one detector)
#REALTIME    : 10, 10.0   seconds (separate by commas if more than one detector)
#SPECTRUM    : start of spectrum data
0, 0
0, 0
0, 0
0, 0
0, 0
0, 0
0, 0
0, 0
0, 0
0, 0
0, 0
0, 0
0, 0
0, 0
0, 0
0, 0
0, 0
0, 0
0, 0
0, 0
0, 0
0, 0
0, 0
0, 0
0, 0
0, 0
0, 0
0, 0
0, 0
0, 0
0, 0
0, 0
0, 0
0, 0
0, 0
0, 0
3, 0
1, 0
0, 1
1, 1
0, 0
0, 1
0, 2
0, 2
3, 0
1, 2
2, 1
1, 7
4, 6
14, 13
25, 29
48, 31
68, 58
77, 72
93, 79
77, 75
85, 51
46, 38
32, 19
16, 13
10, 7
7, 5
2, 5
5, 2
4, 8
5, 1
8, 6
9, 12
31, 20
44, 49
100, 76
196, 160
302, 260
367, 341
486, 385
449, 369
377, 370
290, 276
219, 165
146, 102
71, 57
52, 35
22, 18
13, 9
2, 3
4, 2
0, 5
1, 2
2, 3
1, 0
1, 0
0, 1
2, 1
0, 0
1, 4
3, 3
2, 3
5, 3
5, 5
3, 2
3, 5
2, 3
1, 6
4, 1
5, 4
4, 5
5, 2
11, 4
18, 9
23, 1
17, 15
45, 27
53, 24
69, 46
76, 32
85, 46
104, 33
79, 40
65, 30
54, 15
42, 22
38, 30
25, 25
29, 34
18, 25
17, 15
24, 17
14, 19
11, 9
6, 8
4, 5
7, 6
2, 2
2, 4
2, 1
4, 3
3, 0
2, 1
1, 1
1, 2
1, 2
1, 0
4, 5
2, 5
2, 2
1, 2
1, 2
5, 3
2, 3
8, 4
8, 4
6, 4
14, 9
12, 11
23, 13
25, 10
21, 11
17, 17
17, 10
26, 11
21, 9
7, 5
13, 4
8, 7
8, 3
7, 5
12, 3
8, 6
5, 4
4, 6
7, 3
3, 7
4, 4
5, 6
3, 7
5, 6
5, 6
3, 5
5, 6
1, 3
5, 3
3, 4
2, 3
3, 5
8, 8
6, 6
1, 4
7, 10
8, 10
8, 14
14, 15
19, 22
13, 17
19, 22
19, 23
18, 28
17, 21
22, 20
17, 19
17, 13
13, 16
17, 13
11, 13
12, 10
8, 11
9, 7
3, 5
4, 2
8, 4
6, 5
4, 4
9, 4
4, 9
6, 6
7, 16
6, 3
7, 8
7, 8
9, 8
11, 8
5, 7
15, 3
15, 5
25, 7
27, 17
35, 14
32, 8
35, 14
24, 16
15, 10
25, 17
24, 13
19, 11
24, 4
20, 13
13, 14
12, 22
11, 19
10, 29
16, 51
15, 63
12, 67
15, 68
13, 87
12, 88
22, 76
33, 82
36, 92
52, 68
60, 60
57, 64
69, 54
66, 57
55, 50
52, 50
35, 26
31, 17
34, 22
28, 14
18, 18
24, 18
36, 26
57, 55
83, 98
187, 223
316, 321
523, 580
886, 906
1253, 1265
1701, 1767
2134, 2046
2479, 2271
2637, 2335
2486, 2192
2164, 1909
1857, 1506
1374, 980
1048, 690
625, 427
362, 232
249, 137
132, 62
83, 42
59, 23
48, 21
41, 12
31, 15
29, 16
22, 22
26, 22
32, 28
37, 39
50, 68
70, 105
121, 108
171, 176
221, 190
284, 301
336, 296
386, 375
345, 361
381, 355
309, 261
270, 204
201, 171
157, 107
86, 86
55, 36
44, 19
13, 26
16, 21
9, 23
7, 21
9, 20
12, 19
6, 24
16, 27
17, 23
16, 21
16, 24
11, 16
5, 7
6, 9
15, 4
5, 7
3, 2
5, 8
4, 3
3, 2
5, 2
6, 6
4, 4
6, 4
5, 2
4, 7
8, 2
14, 4
10, 6
16, 5
20, 4
27, 6
9, 4
8, 3
13, 6
11, 7
7, 7
11, 6
8, 7
11, 2
6, 6
11, 3
5, 3
7, 1
5, 3
5, 6
10, 5
8, 8
4, 6
5, 8
1, 8
3, 8
4, 10
2, 18
3, 14
3, 4
3, 10
5, 10
3, 13
2, 8
3, 8
5, 7
4, 5
6, 8
5, 10
5, 2
1, 6
1, 6
4, 5
8, 4
2, 2
5, 3
8, 4
7, 3
7, 6
6, 5
7, 3
7, 1
11, 6
11, 8
10, 3
13, 4
9, 5
11, 2
12, 6
14, 2
19, 2
16, 4
11, 0
13, 2
14, 4
7, 3
10, 1
10, 3
3, 2
5, 7
6, 2
4, 11
3, 4
4, 7
3, 3
2, 2
4, 1
5, 2
4, 6
5, 0
5, 4
4, 2
5, 1
8, 3
2, 4
3, 3
5, 2
4, 0
4, 4
3, 3
5, 2
8, 4
3, 11
4, 7
2, 5
2, 6
2, 5
4, 5
2, 6
1, 8
3, 4
0, 6
3, 5
2, 5
1, 3
6, 2
5, 1
2, 4
4, 4
2, 3
3, 1
4, 0
2, 1
6, 0
5, 3
4, 0
4, 1
3, 0
5, 1
2, 2
2, 4
6, 2
4, 4
5, 3
4, 2
3, 0
0, 3
7, 2
4, 5
4, 2
4, 1
6, 3
0, 3
1, 4
1, 0
2, 2
1, 2
5, 2
6, 1
1, 1
3, 2
3, 0
1, 1
1, 1
3, 1
2, 5
1, 1
2, 2
1, 0
8, 0
6, 3
1, 4
2, 6
3, 3
3, 4
3, 2
0, 4
3, 2
4, 5
1, 1
3, 1
2, 1
2, 1
6, 3
1, 3
2, 2
5, 0
2, 1
3, 2
1, 0
1, 1
4, 0
2, 2
4, 0
1, 1
3, 1
1, 1
1, 4
1, 4
2, 3
1, 5
1, 1
1, 2
2, 1
2, 3
1, 3
1, 2
1, 2
0, 1
3, 3
2, 2
2, 1
4, 0
4, 0
3, 0
4, 2
3, 3
2, 5
3, 5
1, 0
5, 1
3, 2
3, 5
0, 1
2, 2
2, 3
4, 3
3, 2
2, 4
3, 4
6, 4
7, 3
6, 2
2, 2
2, 1
5, 0
0, 2
1, 1
5, 1
1, 1
1, 1
3, 2
3, 1
0, 2
0, 1
2, 0
4, 0
1, 0
4, 0
1, 2
3, 3
2, 3
5, 1
3, 0
1, 2
2, 2
1, 4
4, 2
1, 1
2, 3
3, 2
1, 0
0, 1
2, 1
0, 2
1, 0
0, 1
0, 0
1, 2
1, 1
1, 0
5, 2
1, 3
2, 1
3, 2
3, 0
2, 3
0, 0
1, 1
0, 0
1, 1
3, 2
0, 3
0, 1
0, 3
1, 1
0, 2
0, 0
2, 0
1, 0
0, 1
1, 2
0, 1
2, 2
1, 0
0, 2
1, 3
2, 0
1, 2
0, 1
1, 1
1, 0
2, 1
0, 0
0, 0
1, 1
0, 2
0, 2
0, 2
0, 1
1, 0
1, 0
1, 0
0, 0
0, 0
0, 0
0, 0
0, 0
0, 0
0, 1
1, 1
2, 0
1, 0
1, 2
0, 0
0, 0
0, 1
0, 0
0, 0
0, 0
1, 0
0, 0
0, 2
0, 0
2, 0
0, 3
0, 0
1, 0
2, 1
0, 0
1, 0
0, 2
1, 0
0, 1
1, 0
0, 1
0, 1
0, 1
2, 0
1, 2
1, 1
0, 1
1, 0
1, 1
0, 0
0, 0
1, 1
1, 1
0, 1
1, 0
2, 1
1, 0
0, 0
0, 1
0, 1
0, 0
1, 1
1, 0
0, 1
1, 0
0, 2
0, 0
1, 5
1, 0
0, 0
1, 1
0, 1
0, 0
0, 0
0, 0
0, 1
2, 1
1, 0
0, 0
0, 0
0, 1
1, 0
2, 1
0, 0
0, 1
0, 2
2, 1
0, 0
0, 1
0, 0
0, 1
0, 2
0, 0
1, 0
0, 1
0, 0
0, 0
0, 0
2, 0
0, 1
0, 1
0, 0
0, 0
0, 1
2, 0
0, 0
0, 0
1, 0
0, 0
0, 1
1, 0
0, 0
0, 0
0, 0
0, 1
2, 0
0, 0
0, 0
0, 0
0, 0
1, 0
0, 0
0, 0
0, 2
0, 1
0, 0
0, 2
0, 1
0, 0
0, 1
0, 0
0, 1
0, 1
0, 0
0, 0
2, 2
1, 0
0, 0
0, 1
1, 1
0, 0
0, 0
0, 0
0, 0
0, 0
0, 0
0, 0
1, 1
0, 0
0, 1
0, 0
0, 0
0, 0
0, 1
0, 0
2, 0
0, 0
0, 1
0, 0
0, 0
1, 0
1, 0
0, 1
0, 0
0, 0
0, 0
0, 0
0, 0
0, 1
0, 0
1, 1
0, 0
1, 0
1, 0
0, 0
2, 1
0, 0
1, 0
0, 0
0, 0
0, 0
1, 0
0, 0
0, 0
0, 0
0, 0
0, 0
0, 0
1, 0
0, 0
0, 0
0, 0
0, 0
0, 1
1, 1
0, 0
0, 0
0, 0
0, 0
0, 0
0, 0
0, 0
0, 0
0, 0
0, 0
1, 0
0, 0
0, 0
0, 1
0, 1
0, 0
0, 0
0, 0
0, 0
0, 0
0, 0
0, 0
0, 0
0, 1
0, 0
0, 1
0, 0
0, 0
1, 1
0, 0
0, 0
0, 0
0, 1
1, 0
1, 0
1, 2
0, 0
0, 0
0, 0
0, 0
0, 0
1, 1
0, 0
0, 0
0, 0
0, 0
0, 1
0, 0
0, 0
0, 0
0, 0
0, 0
0, 0
0, 0
0, 1
0, 0
0, 0
0, 0
0, 0
0, 0
0, 0
0, 0
0, 0
0, 0
0, 0
0, 0
0, 0
0, 0
0, 0
1, 0
0, 0
0, 0
1, 1
0, 0
0, 0
0, 0
0, 0
0, 0
1, 0
0, 0
0, 1
1, 0
1, 0
0, 0
0, 0
0, 0
0, 0
0, 0
0, 0
0, 0
0, 0
1, 0
0, 0
0, 0
0, 0
0, 0
0, 0
0, 0
0, 1
0, 0
0, 0
0, 0
0, 0
0, 0
0, 0
0, 0
0, 0
0, 0
0, 0
0, 0
0, 0
0, 0
0, 0
0, 0
0, 0
0, 0
0, 0
0, 0
0, 0
0, 0
0, 0
0, 0
0, 0
0, 0
0, 0
0, 0
0, 0
0, 0
0, 0
0, 0
0, 0
0, 0
0, 0
0, 0
0, 0
0, 0
0, 0
0, 0
0, 0
0, 0
0, 0
0, 1
0, 0
0, 0
0, 0
0, 0
0, 0
0, 0
0, 0
0, 0
0, 0
0, 0
0, 0
0, 0
0, 0
0, 0
0, 0
0, 0
0, 0
0, 0
0, 0
0, 0
0, 0
0, 0
0, 0
0, 0
0, 0
0, 0
0, 0
0, 0
0, 0
0, 0
0, 0
0, 0
0, 0
0, 0
1, 0
0, 0
0, 0
0, 0
0, 0
0, 0
0, 0
0, 0
0, 0
0, 0
0, 0
0, 0
0, 0
0, 0
0, 0
0, 0
0, 0
0, 0
0, 0
0, 0
0, 0
0, 0
0, 0
0, 0
0, 0
0, 0
0, 0
0, 0
0, 0
0, 0
0, 0
0, 0
0, 0
0, 0
0, 0
0, 0
0, 0
0, 0
0, 0
0, 0
0, 0
0, 0
0, 0
0, 0
0, 0
0, 0
0, 0
0, 0
0, 0
0, 0
0, 0
0, 0
0, 0
0, 0
0, 0
0, 0
0, 0
0, 0
0, 0
0, 0
0, 0
0, 0
0, 0
0, 0
0, 0
0, 0
0, 0
0, 0
0, 0
0, 0
0, 0
0, 0
0, 0
0, 0
0, 0
1, 0
0, 0
0, 0
0, 0
0, 0
0, 0
0, 0
0, 0
0, 0
0, 0
0, 0
0, 0
0, 0
0, 0
0, 0
0, 0
0, 0
0, 0
0, 0
0, 0
0, 0
0, 0
0, 0
0, 0
0, 0
0, 0
0, 0
0, 0
0, 0
0, 0
0, 0
0, 0
0, 0
0, 0
0, 0
0, 0
0, 0
0, 0
0, 0
0, 0
0, 0
0, 0
0, 0
0, 0
0, 0
0, 0
0, 0
0, 0
0, 0
0, 0
0, 0
0, 0
0, 0
0, 0
0, 0
0, 0
0, 0
0, 0
0, 0
0, 0
0, 0
0, 0
0, 0
0, 0
0, 0
0, 0
0, 0
0, 0
0, 0
0, 0
0, 0
0, 0
0, 0
0, 0
0, 0
0, 0
0, 0
0, 0
0, 0
0, 0
0, 0
0, 0
0, 0
0, 0
0, 0
0, 0
0, 0
0, 0
0, 0
0, 0
0, 0
0, 0
0, 0
0, 0
0, 0
0, 0
0, 0
0, 0
0, 0
0, 0
0, 0
0, 0
0, 0
0, 0
0, 0
0, 0
0, 0
0, 0
0, 0
0, 0
0, 0
0, 0
0, 0
0, 0
0, 0
0, 0
0, 0
0, 0
0, 0
0, 0
0, 0
0, 0
0, 0
0, 0
0, 0
0, 0
0, 0
0, 0
0, 0
0, 0
0, 0
0, 0
0, 0
0, 0
0, 0
0, 0
0, 0
0, 0
0, 0
0, 0
0, 0
0, 0
0, 0
0, 0
0, 0
0, 0
0, 0
0, 0
0, 0
0, 0
0, 0
0, 0
0, 0
0, 0
0, 0
0, 0
0, 0
0, 0
0, 0
0, 0
0, 0
0, 0
0, 0
0, 0
0, 0
0, 0
0, 0
0, 0
0, 0
0, 0
0, 0
0, 0
0, 0
0, 0
0, 0
0, 0
0, 0
0, 0
0, 0
0, 0
0, 0
0, 0
0, 0
0, 0
0, 0
0, 0
0, 0
0, 0
0, 0
0, 0
0, 0
0, 0
0, 0
0, 0
0, 0
0, 0
0, 0
0, 0
0, 0
0, 0
0, 0
0, 0
0, 0
0, 0
0, 0
0, 0
0, 0
0, 0
0, 0
0, 0
0, 0
0, 0
0, 0
0, 0
0, 0
0, 0
0, 0
0, 0
0, 0
0, 0
0, 0
0, 0
0, 0
0, 0
0, 0
0, 0
0, 0
0, 0
0, 0
0, 0
0, 0
0, 0
0, 0
0, 0
0, 0
0, 0
0, 0
0, 0
0, 0
0, 0
0, 0
0, 0
0, 0
0, 0
0, 0
0, 0
0, 0
0, 0
0, 0
0, 0
0, 0
0, 0
0, 0
0, 0
0, 0
0, 0
0, 0
0, 0
0, 0
0, 0
0, 0
0, 0
0, 0
0, 0
0, 0
0, 0
0, 0
0, 0
0, 0
0, 0
0, 0
0, 0
0, 0
0, 0
0, 0
0, 0
0, 0
0, 0
0, 0
0, 0
0, 0
0, 0
0, 0
0, 0
0, 0
0, 0
0, 0
0, 0
0, 0
0, 0
0, 0
0, 0
0, 0
0, 0
0, 0
0, 0
0, 0
0, 0
0, 0
0, 0
#ENDOFDATA     end of spectrum data