File: host_upload/06-09-2024/ps_0852/dump3/ps__0852shot_2103.msa
#FORMAT      : EMSA/MAS spectral data file
#VERSION     : TC202v2.0 PIXL
#TITLE       : N/A
#DATE        :       Date in the format DD-MMM-YYYY, for example 07-JUL-2010
#TIME        :             The time of day at which the spectrum was recorded, in 24-hour format
#OWNER       : PIXL Flight Model       (PIXL will use this to indicate which instrument took the data.)
#NPOINTS     : 4096     Number of data points in the spectrum (This can be zero for configuration only files)
#NCOLUMNS    : 2     Number of data columns in the spectrum (This can be zero for configuration only files)
#XUNITS      : eV
#YUNITS      : COUNTS
#DATATYPE    : YY
#XPERCHAN    : 7.862, 7.881   eV per channel (separate by commas if more than one detector)
#OFFSET      : 18.5, -22.4         eV of first channel  (separate by commas if more than one detector
#SIGNALTYPE  : XRF
#YP_TEMP     : 2.428
#LIVETIME    : 8.54955, 8.55382   seconds (separate by commas if more than one detector)
#REALTIME    : 10, 10.0   seconds (separate by commas if more than one detector)
#SPECTRUM    : start of spectrum data
0, 0
0, 0
0, 0
0, 0
0, 0
0, 0
0, 0
0, 0
0, 0
0, 0
0, 0
0, 0
0, 0
0, 0
0, 0
0, 0
0, 0
0, 0
0, 0
0, 0
0, 0
0, 0
0, 0
0, 0
0, 0
0, 0
0, 0
0, 0
0, 0
0, 0
0, 0
0, 1
0, 0
0, 1
0, 0
0, 0
0, 0
0, 2
0, 0
0, 0
0, 0
1, 0
2, 1
0, 1
2, 1
1, 2
3, 0
2, 4
5, 5
11, 11
27, 20
41, 33
44, 54
66, 76
77, 102
73, 73
67, 62
48, 33
27, 28
11, 16
9, 9
4, 2
6, 6
3, 6
3, 4
4, 6
3, 7
12, 10
19, 32
52, 55
91, 101
158, 178
266, 261
332, 374
404, 462
413, 434
393, 406
285, 278
218, 227
135, 129
73, 72
37, 36
19, 19
11, 8
7, 6
0, 2
3, 4
3, 1
2, 1
0, 0
0, 3
0, 1
1, 1
2, 1
4, 2
2, 2
5, 7
4, 4
7, 8
7, 7
10, 8
8, 4
8, 8
6, 8
2, 2
9, 2
5, 1
8, 5
7, 4
15, 10
10, 15
16, 21
22, 21
19, 18
30, 43
39, 32
29, 37
18, 29
21, 16
23, 11
22, 21
16, 16
24, 10
9, 12
21, 14
11, 20
11, 8
7, 8
13, 4
8, 3
5, 5
3, 3
2, 2
2, 3
0, 1
1, 1
1, 4
1, 2
3, 2
2, 0
0, 3
0, 2
2, 0
2, 1
0, 2
3, 2
1, 1
1, 2
0, 0
2, 3
3, 4
0, 5
3, 4
4, 5
3, 8
9, 15
18, 13
24, 12
23, 11
16, 13
6, 9
11, 8
9, 8
6, 8
5, 8
1, 1
0, 2
2, 3
4, 2
2, 3
9, 5
4, 3
6, 9
5, 7
3, 4
3, 4
4, 3
5, 2
3, 3
2, 2
3, 5
1, 4
3, 2
2, 3
2, 1
5, 4
2, 3
2, 4
5, 4
7, 4
9, 4
7, 7
13, 17
9, 18
15, 14
9, 7
9, 7
14, 12
22, 10
13, 13
13, 13
11, 8
6, 4
17, 5
10, 4
5, 9
2, 5
4, 4
5, 4
6, 9
1, 5
3, 12
8, 3
5, 5
4, 6
6, 2
4, 2
5, 9
5, 6
7, 2
1, 2
5, 6
2, 6
8, 10
5, 7
15, 4
15, 9
24, 9
33, 10
48, 14
64, 12
100, 12
93, 13
95, 7
110, 7
83, 10
73, 5
48, 6
40, 6
22, 8
17, 10
6, 3
12, 10
10, 14
19, 19
18, 16
28, 24
57, 35
59, 38
80, 46
98, 48
104, 58
88, 50
84, 31
91, 26
74, 32
46, 15
48, 19
34, 18
28, 18
22, 19
27, 31
50, 48
77, 114
138, 183
268, 346
465, 585
721, 938
1102, 1359
1515, 1748
1830, 2040
2214, 2371
2376, 2456
2284, 2224
2106, 1847
1658, 1521
1296, 1088
886, 725
594, 424
358, 223
213, 120
113, 77
63, 53
34, 27
18, 15
13, 13
19, 8
14, 18
18, 15
16, 26
20, 32
29, 40
47, 47
70, 80
91, 117
141, 175
198, 220
219, 307
280, 369
343, 357
334, 312
318, 297
273, 292
250, 207
190, 161
117, 87
85, 67
56, 35
34, 20
23, 15
7, 10
7, 6
6, 7
2, 7
7, 7
9, 11
14, 11
17, 15
12, 10
11, 11
12, 15
14, 8
12, 4
7, 2
2, 7
3, 5
4, 4
5, 11
1, 8
4, 12
6, 6
8, 6
4, 10
4, 8
7, 14
7, 7
7, 10
8, 10
6, 5
7, 8
5, 1
4, 4
13, 7
3, 3
6, 5
7, 6
6, 5
5, 5
3, 6
6, 9
1, 9
1, 3
8, 4
4, 0
7, 3
5, 3
4, 2
10, 4
9, 4
11, 2
6, 3
5, 2
7, 3
10, 4
4, 4
5, 2
2, 2
10, 3
5, 2
7, 3
3, 2
7, 3
11, 3
14, 4
18, 3
19, 2
26, 3
30, 3
22, 6
28, 5
35, 13
18, 13
23, 10
19, 11
13, 7
10, 9
6, 14
5, 9
4, 12
2, 2
7, 5
3, 4
3, 5
4, 9
12, 4
2, 5
2, 4
2, 0
6, 5
2, 1
4, 2
2, 7
3, 1
2, 1
3, 2
1, 6
3, 1
3, 3
4, 11
1, 2
2, 5
4, 5
5, 6
4, 3
1, 10
3, 1
2, 4
3, 3
3, 4
2, 0
6, 5
1, 0
1, 1
4, 2
5, 4
5, 0
1, 2
4, 2
1, 3
2, 3
0, 1
4, 5
0, 1
2, 2
3, 2
3, 6
3, 4
2, 3
2, 2
3, 2
1, 2
2, 7
5, 4
1, 5
2, 2
0, 3
2, 4
4, 2
0, 7
4, 2
1, 4
2, 6
3, 3
2, 2
0, 3
3, 0
3, 3
1, 6
7, 1
3, 2
3, 2
5, 1
2, 2
8, 2
9, 6
9, 3
4, 5
5, 1
4, 1
3, 3
8, 1
7, 3
0, 1
1, 5
3, 5
1, 6
4, 2
4, 3
2, 2
2, 5
1, 3
2, 5
0, 3
2, 6
2, 0
3, 3
1, 3
3, 2
3, 0
0, 3
2, 3
5, 3
2, 2
2, 4
2, 4
3, 3
2, 3
5, 3
2, 5
1, 4
5, 2
2, 0
2, 1
3, 0
1, 4
0, 1
1, 0
2, 3
3, 2
2, 2
4, 2
0, 1
1, 2
2, 5
2, 1
0, 2
2, 0
3, 4
2, 1
3, 2
1, 1
1, 5
1, 4
2, 2
4, 7
1, 4
1, 1
0, 4
3, 3
0, 2
0, 1
2, 2
1, 2
1, 2
2, 2
2, 3
2, 1
4, 5
5, 4
6, 2
8, 5
3, 2
6, 4
4, 3
3, 2
3, 0
5, 3
1, 4
5, 0
4, 2
5, 2
1, 1
1, 3
0, 1
1, 3
1, 1
0, 1
2, 5
2, 2
2, 1
1, 1
1, 3
1, 4
0, 2
3, 2
3, 1
3, 0
7, 0
0, 3
1, 1
1, 3
3, 0
1, 3
1, 4
0, 5
3, 2
0, 4
0, 2
1, 2
0, 1
0, 1
1, 2
1, 2
1, 2
2, 1
1, 1
2, 2
2, 2
1, 0
0, 0
1, 1
0, 0
1, 5
0, 0
0, 0
0, 0
0, 1
2, 2
0, 1
0, 0
0, 1
1, 1
0, 1
0, 2
0, 0
3, 1
2, 1
1, 0
0, 0
1, 3
2, 0
0, 2
1, 1
0, 0
0, 0
0, 1
2, 1
0, 1
0, 1
0, 2
0, 0
0, 2
1, 0
3, 0
1, 1
1, 0
0, 0
0, 2
0, 0
0, 0
1, 0
0, 1
0, 0
0, 0
1, 1
1, 2
1, 0
1, 0
2, 0
0, 1
0, 0
0, 0
1, 0
0, 0
0, 0
1, 0
0, 0
0, 0
0, 0
2, 0
0, 1
0, 0
1, 2
1, 1
0, 1
2, 1
2, 0
2, 0
2, 0
0, 1
1, 0
0, 1
0, 0
0, 1
0, 0
1, 1
0, 1
0, 0
2, 0
1, 1
0, 2
2, 0
0, 1
0, 0
2, 0
1, 0
0, 2
0, 3
1, 0
0, 0
0, 0
0, 0
0, 0
1, 1
0, 0
0, 1
0, 0
0, 0
1, 0
0, 0
0, 1
1, 0
0, 0
0, 0
2, 0
0, 1
1, 0
1, 1
0, 0
0, 0
0, 0
2, 0
0, 1
0, 2
1, 2
0, 0
1, 0
0, 0
0, 0
0, 1
0, 1
1, 1
1, 1
2, 1
0, 0
1, 1
2, 0
1, 0
0, 0
0, 1
1, 1
1, 1
1, 2
0, 0
0, 1
0, 0
0, 0
0, 0
0, 1
2, 1
1, 1
0, 1
0, 0
1, 0
0, 0
0, 1
1, 0
1, 0
0, 1
0, 0
0, 0
0, 0
0, 0
1, 0
0, 0
0, 1
0, 1
0, 0
0, 0
2, 0
0, 1
0, 0
0, 1
1, 1
0, 0
0, 1
1, 1
0, 0
0, 0
0, 0
0, 0
0, 0
0, 0
1, 0
0, 0
0, 0
0, 0
0, 0
0, 0
0, 0
1, 0
1, 0
0, 0
1, 0
0, 0
0, 0
0, 0
0, 0
1, 0
0, 1
0, 1
1, 0
0, 0
0, 0
0, 0
0, 0
0, 0
0, 1
0, 1
0, 1
0, 0
0, 0
0, 0
1, 1
0, 0
1, 0
0, 0
0, 0
0, 0
0, 1
1, 0
0, 0
1, 0
1, 0
2, 0
0, 0
0, 1
0, 0
0, 0
1, 0
0, 1
0, 0
0, 0
0, 0
0, 0
0, 0
0, 0
1, 1
0, 0
1, 0
1, 0
1, 0
0, 0
0, 0
0, 0
0, 0
0, 0
0, 0
1, 0
0, 0
0, 0
1, 0
0, 0
0, 0
0, 0
0, 1
0, 1
0, 0
0, 0
0, 0
0, 0
0, 1
0, 0
1, 0
0, 0
0, 0
0, 1
0, 0
0, 0
0, 0
0, 0
0, 0
0, 0
0, 1
0, 0
0, 0
0, 0
0, 2
0, 0
0, 0
0, 1
0, 0
1, 0
0, 0
0, 0
0, 0
0, 0
0, 0
1, 0
0, 0
0, 0
0, 0
0, 0
0, 0
0, 0
0, 0
0, 0
0, 0
0, 0
0, 0
0, 0
0, 0
0, 0
0, 0
0, 0
0, 0
0, 0
0, 0
0, 1
1, 0
1, 0
0, 0
0, 0
0, 1
0, 0
0, 0
1, 1
0, 0
0, 0
0, 0
0, 0
0, 0
0, 0
0, 0
0, 0
0, 0
0, 0
0, 0
0, 0
0, 0
0, 0
0, 0
0, 0
0, 0
0, 0
0, 0
0, 0
0, 1
0, 0
0, 0
0, 0
0, 0
0, 0
0, 0
0, 0
0, 0
0, 0
0, 0
0, 0
0, 0
0, 0
0, 0
0, 0
0, 0
0, 0
1, 0
0, 0
0, 0
0, 0
0, 0
0, 0
0, 0
0, 0
0, 0
0, 0
0, 0
0, 0
0, 0
0, 0
0, 0
0, 0
0, 0
0, 0
0, 0
0, 0
0, 0
0, 0
0, 0
0, 0
0, 0
0, 0
0, 0
0, 0
0, 0
0, 0
0, 0
0, 0
0, 0
0, 0
0, 0
0, 0
0, 0
0, 0
0, 0
0, 0
0, 0
0, 0
0, 0
0, 0
0, 0
0, 0
0, 0
0, 0
0, 0
0, 0
0, 0
0, 0
0, 0
0, 0
0, 0
0, 0
0, 0
0, 0
0, 0
0, 0
0, 0
0, 0
0, 0
0, 0
0, 0
0, 0
0, 0
0, 0
0, 0
0, 0
0, 0
0, 0
0, 0
0, 0
0, 0
0, 0
0, 0
0, 0
0, 0
0, 0
0, 0
0, 0
0, 0
0, 0
0, 0
0, 0
0, 0
0, 0
0, 0
0, 0
0, 0
0, 0
0, 0
0, 0
0, 0
0, 0
0, 0
0, 0
0, 0
0, 0
0, 0
0, 0
0, 0
0, 0
0, 0
0, 0
0, 0
0, 0
0, 0
0, 0
0, 0
0, 0
0, 0
0, 0
0, 0
0, 0
0, 0
0, 0
0, 0
0, 0
0, 0
0, 0
0, 0
0, 0
0, 0
0, 0
0, 0
0, 0
0, 0
0, 0
0, 0
0, 0
0, 0
0, 0
0, 0
0, 0
0, 0
0, 0
0, 0
0, 0
0, 0
0, 0
0, 0
0, 0
0, 0
0, 0
0, 0
0, 0
0, 0
0, 0
0, 0
0, 0
0, 0
0, 0
0, 0
0, 0
0, 0
0, 0
0, 0
0, 0
0, 0
0, 0
0, 0
0, 0
1, 0
0, 0
0, 0
0, 0
0, 0
0, 0
0, 0
0, 0
0, 0
0, 0
0, 0
0, 0
0, 0
0, 0
0, 0
0, 0
0, 0
0, 0
0, 0
0, 0
0, 0
0, 0
0, 0
0, 0
0, 0
0, 0
0, 0
0, 0
0, 0
0, 0
0, 0
0, 0
0, 0
0, 0
0, 0
0, 0
0, 0
0, 0
0, 0
0, 0
0, 0
0, 0
0, 0
0, 0
0, 0
0, 0
0, 0
0, 0
0, 0
0, 0
0, 0
0, 0
0, 0
0, 0
0, 0
0, 0
0, 0
0, 0
0, 0
0, 0
0, 0
0, 0
0, 0
0, 0
0, 0
0, 0
0, 0
0, 0
0, 0
0, 0
0, 0
0, 0
0, 0
0, 0
0, 0
0, 0
0, 0
0, 0
0, 0
0, 0
0, 0
0, 0
0, 0
0, 0
0, 0
0, 0
0, 0
0, 0
0, 0
0, 0
0, 0
0, 0
0, 0
0, 0
0, 0
0, 0
0, 0
0, 0
0, 0
0, 0
0, 0
0, 0
0, 0
0, 0
0, 0
0, 0
0, 0
0, 0
0, 0
0, 0
0, 0
0, 0
0, 0
0, 0
0, 0
0, 0
0, 0
0, 0
0, 0
0, 0
0, 0
0, 0
0, 0
0, 0
0, 0
0, 0
0, 0
0, 0
0, 0
0, 0
0, 0
0, 0
0, 0
0, 0
0, 0
0, 0
0, 0
0, 0
0, 0
0, 0
0, 0
0, 0
0, 0
0, 0
0, 0
0, 0
0, 0
0, 0
0, 0
0, 0
0, 0
0, 0
0, 0
0, 0
0, 0
0, 0
0, 0
0, 0
0, 0
0, 0
0, 0
0, 0
0, 0
0, 0
0, 0
0, 0
0, 0
0, 0
0, 0
0, 0
0, 0
0, 0
0, 0
0, 0
0, 0
0, 0
0, 0
0, 0
0, 0
0, 0
0, 0
0, 0
0, 0
0, 0
0, 0
0, 0
0, 0
0, 0
0, 0
0, 0
0, 0
0, 0
0, 0
0, 0
0, 0
0, 0
0, 0
0, 0
0, 0
0, 0
0, 0
0, 0
0, 0
0, 0
0, 0
0, 0
0, 0
0, 0
0, 0
0, 0
0, 0
0, 0
0, 0
0, 0
0, 0
0, 0
0, 0
0, 0
0, 0
0, 0
0, 0
0, 0
0, 0
0, 0
0, 0
0, 0
0, 0
0, 0
0, 0
0, 0
0, 0
0, 0
0, 0
0, 0
0, 0
0, 0
0, 0
0, 0
0, 0
0, 0
0, 0
0, 0
0, 0
0, 0
0, 0
0, 0
0, 0
0, 0
0, 0
0, 0
0, 0
0, 0
0, 0
0, 0
0, 0
0, 0
0, 0
0, 0
0, 0
0, 0
0, 0
0, 0
0, 0
0, 0
0, 0
0, 0
0, 0
#ENDOFDATA     end of spectrum data