File: host_upload/06-09-2024/ps_0852/dump3/ps__0852shot_2275.msa
#FORMAT      : EMSA/MAS spectral data file
#VERSION     : TC202v2.0 PIXL
#TITLE       : N/A
#DATE        :       Date in the format DD-MMM-YYYY, for example 07-JUL-2010
#TIME        :             The time of day at which the spectrum was recorded, in 24-hour format
#OWNER       : PIXL Flight Model       (PIXL will use this to indicate which instrument took the data.)
#NPOINTS     : 4096     Number of data points in the spectrum (This can be zero for configuration only files)
#NCOLUMNS    : 2     Number of data columns in the spectrum (This can be zero for configuration only files)
#XUNITS      : eV
#YUNITS      : COUNTS
#DATATYPE    : YY
#XPERCHAN    : 7.862, 7.881   eV per channel (separate by commas if more than one detector)
#OFFSET      : 18.5, -22.4         eV of first channel  (separate by commas if more than one detector
#SIGNALTYPE  : XRF
#YP_TEMP     : 2.684
#LIVETIME    : 8.5727, 8.57237   seconds (separate by commas if more than one detector)
#REALTIME    : 10, 10.0   seconds (separate by commas if more than one detector)
#SPECTRUM    : start of spectrum data
0, 0
0, 0
0, 0
0, 0
0, 0
0, 0
0, 0
0, 0
0, 0
0, 0
0, 0
0, 0
0, 0
0, 0
0, 0
0, 0
0, 0
0, 0
0, 0
0, 0
0, 0
0, 0
0, 0
0, 0
0, 0
0, 0
0, 0
0, 0
0, 0
0, 0
0, 0
0, 1
0, 0
0, 0
1, 1
0, 0
0, 1
2, 1
1, 0
0, 2
1, 2
0, 2
2, 1
0, 0
3, 0
0, 1
3, 2
4, 3
6, 2
8, 13
16, 25
34, 36
39, 46
66, 71
62, 61
57, 65
48, 59
38, 28
24, 25
7, 17
4, 11
2, 4
1, 3
4, 2
4, 2
3, 4
7, 7
4, 10
16, 18
42, 65
83, 114
146, 175
194, 264
290, 374
326, 411
341, 396
317, 373
224, 284
165, 175
99, 106
52, 73
31, 41
16, 22
16, 12
4, 10
5, 3
1, 5
2, 3
3, 0
3, 1
2, 1
2, 1
4, 10
6, 16
18, 14
14, 24
22, 49
37, 66
44, 63
33, 72
25, 73
30, 52
14, 29
15, 19
9, 15
7, 13
8, 7
16, 24
13, 24
9, 23
20, 26
37, 40
32, 46
58, 67
47, 50
41, 48
42, 42
44, 47
29, 41
30, 28
22, 33
23, 23
14, 21
16, 22
17, 14
11, 14
8, 15
15, 12
10, 12
11, 6
11, 9
1, 2
1, 3
2, 2
2, 6
1, 3
3, 3
4, 5
1, 2
0, 5
1, 6
5, 3
3, 3
1, 10
1, 3
3, 3
4, 4
3, 1
3, 1
2, 2
2, 7
5, 8
1, 13
6, 10
8, 12
7, 14
8, 18
9, 9
11, 11
12, 7
6, 12
5, 5
6, 7
1, 2
5, 1
2, 6
0, 4
2, 1
1, 5
4, 2
8, 6
5, 6
4, 2
4, 2
1, 3
5, 2
1, 3
2, 6
6, 9
4, 4
2, 5
5, 7
1, 2
3, 5
4, 0
4, 9
5, 4
2, 8
8, 3
9, 11
12, 7
14, 13
18, 11
30, 14
14, 13
23, 20
21, 12
21, 24
17, 17
15, 30
11, 15
13, 10
11, 11
11, 11
6, 6
10, 9
5, 3
1, 7
5, 4
7, 7
3, 11
4, 5
8, 8
10, 7
3, 4
5, 6
3, 7
6, 5
7, 7
3, 6
9, 10
7, 2
2, 7
6, 6
6, 10
8, 8
8, 8
10, 14
15, 14
12, 14
17, 9
13, 14
11, 21
10, 11
12, 5
6, 14
10, 11
7, 5
11, 4
15, 10
15, 9
14, 12
15, 16
19, 22
16, 30
16, 37
27, 39
32, 65
34, 58
48, 73
82, 79
50, 70
47, 73
40, 57
42, 32
24, 34
28, 27
22, 15
16, 16
10, 18
22, 25
17, 26
52, 80
77, 126
139, 238
246, 413
429, 671
757, 1034
979, 1438
1411, 1938
1813, 2258
2026, 2623
2131, 2757
2166, 2438
1917, 2059
1583, 1625
1187, 1213
780, 769
556, 553
302, 294
173, 153
82, 90
51, 63
30, 56
19, 39
9, 55
15, 60
13, 52
18, 49
17, 51
18, 46
29, 62
41, 56
50, 95
99, 130
131, 171
174, 270
248, 308
257, 354
336, 413
328, 378
326, 324
292, 316
207, 232
143, 158
136, 124
72, 60
44, 61
22, 29
19, 12
11, 8
2, 4
13, 5
7, 10
9, 6
8, 13
13, 11
16, 17
14, 14
13, 13
13, 12
11, 12
6, 13
10, 9
4, 21
3, 11
5, 10
4, 11
2, 9
6, 3
4, 7
4, 5
3, 7
7, 3
4, 3
5, 7
3, 5
3, 2
3, 7
3, 2
4, 3
4, 9
11, 8
5, 1
5, 4
5, 4
5, 5
8, 9
9, 7
2, 7
3, 6
9, 3
5, 9
3, 3
7, 5
4, 1
4, 5
4, 3
2, 3
3, 4
0, 5
2, 3
1, 5
2, 5
1, 3
0, 5
4, 4
6, 6
4, 7
3, 5
0, 2
1, 3
2, 2
4, 3
6, 1
4, 4
1, 5
0, 1
8, 5
5, 2
4, 5
3, 7
13, 3
6, 3
5, 3
17, 8
11, 7
20, 5
16, 6
14, 6
16, 8
13, 8
15, 6
10, 9
10, 5
9, 4
5, 2
10, 3
6, 3
3, 8
0, 5
0, 2
1, 8
1, 2
8, 2
2, 2
2, 1
4, 5
4, 5
3, 5
2, 6
0, 3
2, 3
4, 5
4, 1
0, 4
1, 5
3, 5
3, 4
4, 4
3, 7
4, 5
3, 16
13, 8
7, 4
12, 14
6, 13
8, 7
16, 17
10, 14
9, 12
9, 7
10, 5
8, 15
15, 3
11, 2
3, 5
5, 7
2, 5
3, 2
3, 8
2, 4
2, 0
2, 3
0, 3
1, 3
4, 2
2, 4
5, 5
2, 3
5, 3
5, 1
4, 4
3, 4
2, 2
0, 1
3, 2
1, 2
2, 2
5, 1
2, 2
2, 1
1, 3
1, 3
2, 6
0, 3
3, 9
0, 7
3, 3
0, 1
4, 2
4, 5
3, 6
1, 1
2, 7
0, 5
2, 7
2, 5
2, 5
0, 3
2, 5
4, 6
4, 5
1, 5
0, 1
3, 2
3, 3
3, 5
3, 3
1, 3
3, 1
2, 2
2, 2
1, 4
5, 3
4, 1
3, 6
3, 3
2, 5
4, 3
3, 4
1, 3
2, 6
0, 1
2, 2
2, 2
0, 1
1, 4
4, 2
0, 2
3, 0
2, 1
2, 0
2, 4
2, 4
1, 3
4, 3
3, 4
4, 3
3, 3
1, 1
2, 2
3, 0
0, 1
1, 2
3, 2
1, 4
2, 1
1, 2
0, 5
5, 1
1, 1
0, 1
0, 3
0, 2
1, 4
3, 6
4, 3
1, 2
2, 9
3, 5
4, 5
4, 5
4, 3
6, 4
3, 2
2, 2
4, 5
1, 5
2, 2
3, 4
1, 2
1, 5
1, 4
3, 0
0, 0
2, 2
1, 5
0, 1
0, 1
1, 1
0, 0
1, 1
1, 2
3, 4
1, 2
1, 1
0, 1
1, 1
0, 3
2, 4
3, 4
2, 4
0, 0
4, 3
4, 1
2, 2
3, 4
2, 2
2, 3
0, 0
1, 5
0, 2
0, 2
2, 2
2, 0
1, 2
3, 0
0, 4
1, 3
1, 1
2, 2
1, 2
1, 0
2, 0
0, 2
1, 1
0, 0
0, 3
0, 1
2, 1
0, 0
1, 2
0, 0
0, 1
0, 3
1, 3
0, 1
0, 1
2, 1
0, 0
0, 0
1, 3
1, 0
3, 0
2, 2
0, 4
1, 1
0, 3
1, 1
0, 0
1, 1
2, 0
0, 0
1, 1
0, 1
1, 0
0, 1
4, 0
1, 1
2, 0
0, 0
0, 1
0, 0
0, 1
1, 0
0, 2
2, 0
3, 0
2, 1
0, 0
2, 1
0, 1
1, 1
1, 0
2, 1
1, 0
0, 1
0, 1
0, 0
0, 1
0, 1
3, 0
1, 0
1, 0
0, 1
0, 2
0, 0
1, 0
0, 0
0, 0
0, 1
2, 0
1, 0
1, 0
0, 0
2, 0
2, 0
0, 1
0, 0
0, 0
0, 1
0, 4
0, 0
1, 0
2, 0
0, 1
0, 1
1, 1
1, 0
0, 0
0, 0
2, 2
1, 0
0, 0
1, 0
0, 0
0, 0
0, 0
0, 0
0, 0
3, 0
0, 0
0, 1
0, 0
0, 3
0, 1
0, 0
0, 1
3, 0
0, 1
0, 2
1, 0
0, 0
0, 0
2, 0
0, 0
0, 3
0, 0
0, 1
0, 0
0, 0
0, 0
1, 1
0, 1
0, 0
0, 1
0, 0
0, 0
0, 1
1, 0
0, 1
0, 0
0, 0
0, 2
0, 0
0, 0
0, 0
0, 0
0, 1
1, 0
0, 0
0, 0
0, 1
1, 1
0, 0
0, 1
0, 0
1, 0
0, 1
1, 1
0, 0
0, 0
0, 1
0, 0
0, 0
0, 1
0, 1
0, 0
0, 0
0, 0
0, 0
0, 0
0, 0
0, 0
0, 0
0, 0
0, 0
0, 1
0, 1
0, 0
0, 0
0, 0
0, 0
1, 2
0, 0
0, 0
0, 0
0, 1
0, 0
0, 2
1, 1
0, 0
1, 0
0, 0
0, 1
0, 1
0, 0
0, 0
0, 0
1, 1
1, 0
0, 0
0, 1
0, 0
0, 1
0, 0
0, 0
0, 0
0, 0
0, 1
0, 0
1, 0
0, 0
0, 2
0, 1
0, 0
0, 1
1, 1
0, 0
0, 1
0, 0
0, 1
0, 0
1, 1
2, 0
0, 0
0, 0
0, 0
1, 0
0, 0
0, 0
0, 0
0, 2
1, 2
0, 0
0, 0
0, 0
0, 0
0, 0
0, 0
0, 0
0, 0
0, 0
0, 0
0, 0
0, 0
0, 0
1, 0
0, 0
0, 0
0, 0
0, 0
0, 0
0, 0
0, 0
0, 0
0, 0
0, 0
0, 1
1, 0
0, 0
0, 0
0, 0
0, 0
0, 0
1, 0
1, 0
1, 0
0, 1
0, 1
0, 0
0, 1
1, 0
0, 0
1, 0
0, 0
0, 0
1, 0
1, 0
2, 1
0, 0
1, 0
0, 1
0, 1
0, 0
0, 1
0, 0
0, 0
0, 0
0, 0
0, 0
0, 0
0, 1
0, 0
0, 0
0, 0
0, 0
0, 0
0, 0
0, 0
0, 0
0, 0
0, 0
0, 0
0, 0
0, 0
0, 0
0, 0
0, 0
0, 0
0, 0
0, 0
0, 0
0, 0
0, 0
0, 0
0, 0
1, 0
0, 0
0, 0
0, 0
0, 0
0, 0
0, 0
0, 0
0, 0
0, 0
0, 0
0, 0
0, 0
0, 1
0, 0
0, 0
0, 0
0, 0
0, 0
0, 0
0, 0
0, 0
0, 0
0, 0
0, 0
0, 0
0, 0
0, 0
0, 1
0, 0
0, 0
0, 0
0, 0
0, 0
0, 0
0, 0
0, 0
0, 1
0, 1
0, 0
0, 0
0, 0
0, 0
0, 0
0, 0
0, 0
0, 0
0, 0
0, 0
0, 0
0, 0
0, 0
0, 0
0, 0
0, 0
0, 0
0, 0
0, 0
0, 0
0, 0
0, 0
0, 0
0, 0
0, 1
0, 0
0, 0
0, 0
0, 0
0, 0
0, 0
0, 0
0, 0
0, 0
0, 0
1, 0
1, 0
0, 0
0, 0
1, 0
0, 0
0, 0
0, 0
0, 0
1, 0
0, 0
0, 0
0, 0
0, 0
0, 0
0, 0
0, 0
0, 0
0, 0
0, 0
0, 0
0, 0
0, 0
0, 0
0, 0
0, 0
0, 0
0, 0
0, 0
0, 0
0, 0
0, 0
0, 0
0, 0
0, 1
1, 1
0, 0
0, 0
0, 0
0, 0
0, 0
0, 0
0, 0
0, 0
0, 0
0, 0
0, 0
0, 0
0, 0
0, 0
0, 0
0, 0
0, 0
0, 0
0, 0
0, 0
0, 0
0, 0
0, 0
0, 0
0, 0
0, 1
0, 0
0, 0
0, 0
0, 1
0, 0
0, 0
0, 0
0, 0
0, 0
0, 0
0, 0
0, 0
0, 0
0, 0
0, 0
0, 0
0, 0
0, 0
0, 0
0, 0
0, 0
0, 0
0, 0
0, 0
0, 0
0, 0
0, 0
0, 0
0, 0
0, 0
0, 0
0, 0
0, 0
0, 0
0, 0
0, 0
0, 0
0, 0
0, 0
0, 0
0, 0
0, 0
0, 0
0, 0
0, 0
0, 0
0, 0
0, 0
1, 0
0, 0
0, 0
0, 0
0, 0
0, 0
0, 0
0, 0
0, 0
0, 0
0, 0
0, 0
0, 0
0, 0
0, 0
0, 0
0, 0
0, 0
0, 0
0, 0
0, 0
0, 0
0, 0
0, 0
0, 0
0, 0
0, 0
0, 0
0, 0
0, 0
1, 0
0, 0
0, 0
0, 0
0, 0
0, 0
0, 0
0, 0
0, 0
0, 0
0, 0
0, 0
0, 0
0, 0
0, 0
0, 0
0, 0
0, 0
0, 0
0, 0
0, 0
0, 0
0, 0
0, 0
0, 0
0, 0
0, 0
0, 0
0, 0
0, 0
0, 0
0, 0
0, 0
0, 0
0, 0
0, 0
0, 0
0, 0
0, 0
0, 0
0, 0
0, 0
0, 0
0, 0
0, 0
0, 0
0, 0
0, 0
0, 0
0, 0
0, 0
0, 0
0, 0
0, 0
0, 0
0, 0
0, 0
0, 0
0, 0
0, 0
0, 0
0, 0
0, 0
0, 0
0, 0
0, 0
0, 0
0, 0
0, 0
0, 0
0, 0
0, 0
0, 0
0, 0
0, 0
0, 0
0, 0
0, 0
0, 0
0, 0
0, 0
0, 0
0, 0
0, 0
0, 0
0, 0
0, 0
0, 0
0, 0
0, 0
0, 0
0, 0
0, 0
0, 0
0, 0
0, 0
0, 0
0, 0
0, 0
0, 0
0, 0
0, 0
0, 0
0, 0
0, 0
0, 0
0, 0
0, 0
0, 0
0, 0
0, 0
0, 0
0, 0
0, 0
0, 0
0, 0
0, 0
0, 0
0, 0
0, 0
0, 0
0, 0
0, 0
0, 0
0, 0
0, 0
0, 0
0, 0
0, 0
0, 0
0, 0
0, 0
0, 0
0, 0
0, 0
0, 0
0, 0
0, 0
0, 0
0, 0
0, 0
0, 0
0, 0
0, 0
0, 0
0, 0
0, 0
0, 0
0, 0
0, 0
0, 0
0, 0
0, 0
0, 0
0, 0
0, 0
0, 0
0, 0
0, 0
0, 0
0, 0
0, 0
0, 0
0, 0
0, 0
0, 0
0, 0
0, 0
0, 0
0, 0
0, 0
0, 0
0, 0
0, 0
0, 0
0, 0
0, 0
0, 0
0, 0
0, 0
0, 0
0, 0
0, 0
0, 0
0, 0
0, 0
0, 0
0, 0
0, 0
0, 0
0, 0
0, 0
0, 0
0, 0
0, 0
0, 0
0, 0
0, 0
0, 0
0, 0
0, 0
0, 0
0, 0
0, 0
0, 0
0, 0
0, 0
0, 0
0, 0
0, 0
0, 0
0, 0
0, 0
0, 0
0, 0
0, 0
0, 0
0, 0
0, 0
0, 0
0, 0
0, 0
0, 0
0, 0
0, 0
0, 0
0, 0
0, 0
0, 0
0, 0
0, 0
0, 0
0, 0
0, 0
0, 0
0, 0
0, 0
0, 0
0, 0
0, 0
0, 0
0, 0
0, 0
0, 0
0, 0
0, 0
0, 0
0, 0
0, 0
0, 0
0, 0
0, 0
0, 0
0, 0
#ENDOFDATA     end of spectrum data