File: host_upload/06-09-2024/ps_0852/dump3/ps__0852shot_2039.msa
#FORMAT      : EMSA/MAS spectral data file
#VERSION     : TC202v2.0 PIXL
#TITLE       : N/A
#DATE        :       Date in the format DD-MMM-YYYY, for example 07-JUL-2010
#TIME        :             The time of day at which the spectrum was recorded, in 24-hour format
#OWNER       : PIXL Flight Model       (PIXL will use this to indicate which instrument took the data.)
#NPOINTS     : 4096     Number of data points in the spectrum (This can be zero for configuration only files)
#NCOLUMNS    : 2     Number of data columns in the spectrum (This can be zero for configuration only files)
#XUNITS      : eV
#YUNITS      : COUNTS
#DATATYPE    : YY
#XPERCHAN    : 7.862, 7.881   eV per channel (separate by commas if more than one detector)
#OFFSET      : 18.5, -22.4         eV of first channel  (separate by commas if more than one detector
#SIGNALTYPE  : XRF
#YP_TEMP     : 2.332
#LIVETIME    : 8.55754, 8.56715   seconds (separate by commas if more than one detector)
#REALTIME    : 10, 10.0   seconds (separate by commas if more than one detector)
#SPECTRUM    : start of spectrum data
0, 0
0, 0
0, 0
0, 0
0, 0
0, 0
0, 0
0, 0
0, 0
0, 0
0, 0
0, 0
0, 0
0, 0
0, 0
0, 0
0, 0
0, 0
0, 0
0, 0
0, 0
0, 0
0, 0
0, 0
0, 0
0, 0
0, 0
0, 0
0, 0
0, 0
0, 0
0, 0
0, 0
0, 0
0, 0
0, 1
0, 1
0, 1
1, 1
0, 0
3, 3
1, 4
1, 1
1, 1
1, 0
2, 0
1, 1
4, 4
6, 3
9, 15
19, 17
33, 27
50, 58
73, 58
73, 74
56, 62
38, 53
52, 25
23, 15
8, 17
6, 8
1, 6
7, 5
1, 2
6, 7
6, 7
8, 9
7, 8
17, 20
46, 34
98, 89
166, 151
266, 249
342, 340
462, 373
442, 354
393, 331
298, 258
224, 190
149, 100
66, 68
47, 35
23, 21
17, 6
7, 8
2, 4
1, 2
2, 3
2, 1
2, 1
0, 3
0, 2
3, 6
1, 0
1, 0
2, 1
6, 7
4, 8
9, 7
5, 9
5, 7
7, 8
4, 5
9, 11
5, 4
2, 7
6, 15
17, 10
6, 16
28, 24
39, 43
47, 60
60, 82
64, 95
78, 94
59, 104
67, 104
61, 84
33, 68
27, 40
48, 40
21, 32
22, 23
23, 28
26, 18
16, 11
11, 13
9, 6
17, 2
8, 10
6, 5
2, 2
4, 5
6, 6
0, 5
5, 4
0, 1
0, 5
4, 2
1, 2
1, 3
0, 3
2, 4
4, 2
6, 3
3, 3
2, 1
2, 5
2, 3
1, 2
1, 4
5, 2
7, 11
6, 14
10, 17
12, 16
19, 16
26, 17
17, 15
19, 15
14, 17
10, 14
9, 9
8, 9
7, 5
5, 2
5, 6
3, 2
5, 4
9, 3
5, 5
4, 3
13, 8
2, 4
1, 7
2, 4
3, 1
6, 7
7, 3
3, 8
4, 3
5, 2
3, 2
5, 5
3, 4
3, 6
7, 4
6, 9
5, 7
4, 9
8, 3
4, 8
14, 8
14, 11
19, 12
5, 9
13, 19
10, 12
9, 15
13, 21
9, 12
7, 13
11, 9
6, 8
11, 10
15, 3
6, 11
5, 10
11, 7
5, 4
7, 14
6, 9
11, 8
5, 8
5, 6
10, 6
9, 8
9, 4
9, 4
11, 8
10, 9
6, 8
9, 17
7, 15
9, 23
9, 25
15, 20
7, 25
12, 48
10, 40
18, 30
14, 38
22, 14
18, 15
22, 21
19, 14
34, 8
42, 6
65, 2
76, 17
68, 7
72, 8
86, 9
89, 7
75, 21
69, 28
59, 33
75, 38
58, 55
75, 60
51, 64
72, 51
48, 49
56, 51
43, 40
55, 26
36, 23
30, 21
25, 19
37, 9
33, 13
37, 23
49, 54
105, 98
155, 196
269, 345
497, 563
781, 898
1076, 1245
1589, 1656
1965, 2072
2282, 2218
2475, 2254
2438, 2063
2162, 1827
1849, 1464
1317, 1074
920, 785
589, 463
361, 297
231, 157
130, 77
58, 35
40, 24
27, 19
19, 8
23, 12
16, 19
19, 18
23, 19
24, 25
40, 47
43, 64
95, 92
101, 129
153, 200
214, 223
246, 294
294, 315
370, 337
378, 364
332, 307
321, 238
275, 181
197, 151
131, 111
83, 59
59, 43
34, 22
18, 11
18, 8
13, 4
7, 6
10, 8
9, 5
11, 12
12, 12
13, 9
21, 14
16, 7
15, 15
20, 9
18, 7
10, 7
21, 5
18, 6
26, 2
23, 5
27, 7
25, 3
22, 5
16, 5
7, 4
9, 7
11, 3
5, 4
5, 10
4, 9
5, 4
4, 3
6, 5
3, 8
5, 15
2, 6
5, 8
1, 13
3, 9
3, 6
5, 8
4, 6
7, 6
5, 11
8, 9
9, 3
4, 10
1, 4
6, 6
5, 3
4, 5
2, 4
4, 3
2, 3
2, 3
3, 7
2, 4
6, 5
6, 2
7, 4
5, 4
10, 6
4, 2
2, 5
5, 3
9, 1
2, 1
3, 1
5, 2
3, 4
2, 7
4, 2
2, 5
4, 4
3, 1
4, 5
6, 0
3, 1
5, 7
3, 6
2, 7
4, 5
5, 5
4, 10
6, 6
3, 10
1, 5
3, 5
1, 7
2, 9
3, 4
2, 0
3, 2
5, 2
4, 5
0, 3
6, 2
0, 3
5, 3
2, 6
2, 2
4, 0
4, 4
5, 0
0, 4
4, 1
4, 1
2, 1
5, 2
6, 1
3, 4
2, 1
6, 2
5, 4
4, 4
5, 6
6, 3
2, 3
4, 5
2, 3
5, 1
5, 4
4, 4
7, 6
5, 7
6, 1
1, 1
3, 3
2, 2
1, 1
9, 2
5, 4
2, 1
2, 5
2, 4
3, 2
3, 2
5, 5
1, 4
1, 1
4, 2
5, 7
1, 3
4, 7
4, 7
1, 4
2, 8
3, 3
4, 3
1, 3
2, 2
2, 4
1, 3
1, 2
4, 1
3, 1
2, 2
0, 1
0, 1
2, 2
2, 2
3, 1
3, 2
3, 1
4, 4
4, 2
2, 3
0, 0
2, 2
2, 1
10, 3
2, 2
9, 1
1, 0
4, 0
4, 3
0, 1
2, 2
6, 1
3, 0
3, 1
2, 1
2, 1
3, 3
1, 0
2, 1
1, 3
3, 3
2, 2
6, 0
2, 4
4, 1
2, 2
0, 5
2, 2
1, 2
2, 1
0, 0
3, 2
3, 1
4, 3
0, 3
0, 1
2, 2
3, 1
2, 0
3, 2
2, 7
4, 2
5, 4
0, 2
4, 1
3, 3
2, 1
2, 1
2, 4
1, 2
2, 0
2, 1
5, 3
4, 2
3, 2
4, 2
3, 2
2, 5
2, 1
1, 3
3, 6
3, 0
2, 4
2, 3
5, 2
5, 4
4, 3
4, 4
5, 2
6, 6
5, 2
1, 1
4, 2
3, 2
0, 2
2, 2
4, 0
2, 6
2, 0
0, 0
2, 4
1, 5
1, 1
0, 0
2, 2
0, 2
0, 0
3, 2
1, 2
2, 2
2, 0
1, 2
0, 1
4, 0
7, 2
2, 2
4, 1
3, 1
2, 3
3, 2
1, 1
1, 2
4, 4
2, 5
1, 1
1, 2
1, 1
3, 1
3, 2
0, 0
1, 0
0, 1
0, 0
1, 1
0, 0
0, 3
1, 0
1, 1
2, 0
1, 1
1, 3
2, 0
1, 0
0, 1
2, 0
1, 3
1, 0
3, 0
1, 1
1, 1
2, 0
2, 0
0, 1
0, 0
0, 1
1, 1
2, 2
2, 1
1, 0
1, 1
1, 0
2, 0
1, 1
1, 0
0, 0
0, 1
0, 1
0, 2
3, 2
0, 1
0, 0
1, 1
0, 1
0, 0
0, 2
0, 0
0, 0
0, 0
0, 2
0, 1
0, 0
0, 0
1, 1
1, 0
2, 0
0, 0
3, 2
0, 2
0, 0
2, 0
1, 1
0, 2
1, 1
0, 1
0, 0
0, 0
2, 0
2, 0
4, 0
2, 2
0, 0
0, 1
1, 2
1, 1
0, 0
2, 0
1, 0
1, 2
0, 1
0, 0
0, 1
0, 2
0, 0
1, 0
0, 1
0, 2
0, 1
0, 0
0, 1
0, 1
0, 0
0, 0
0, 0
2, 0
1, 1
0, 1
1, 2
1, 2
1, 0
1, 1
0, 0
2, 2
1, 0
0, 0
0, 0
0, 0
1, 0
0, 0
0, 1
0, 1
2, 0
0, 1
2, 0
0, 2
0, 0
0, 0
1, 0
0, 1
1, 0
0, 0
0, 0
0, 0
0, 0
1, 2
2, 0
0, 1
0, 1
1, 0
1, 0
0, 0
0, 0
0, 0
1, 1
1, 0
1, 1
0, 0
0, 0
3, 0
0, 0
1, 0
0, 0
0, 0
1, 1
0, 1
0, 0
0, 0
1, 0
0, 0
1, 1
2, 2
0, 0
0, 0
1, 0
0, 0
1, 0
2, 1
0, 0
1, 0
2, 0
0, 0
1, 1
0, 0
1, 1
1, 0
0, 1
0, 3
0, 1
1, 0
1, 0
0, 0
0, 0
0, 0
0, 0
1, 1
0, 0
0, 0
1, 0
0, 0
0, 1
0, 0
1, 0
0, 0
0, 0
1, 1
0, 0
1, 0
0, 2
0, 0
1, 0
1, 2
1, 0
0, 0
0, 0
0, 0
0, 0
0, 0
0, 0
0, 0
0, 1
0, 0
1, 0
4, 0
1, 0
0, 1
0, 0
0, 2
1, 0
0, 1
0, 0
0, 1
0, 0
0, 0
0, 0
0, 0
0, 0
0, 0
0, 0
0, 0
0, 0
1, 1
2, 0
0, 0
0, 0
0, 1
0, 0
0, 0
0, 0
0, 0
0, 1
0, 0
0, 0
0, 0
1, 0
0, 0
0, 0
0, 0
0, 0
0, 1
0, 0
0, 0
0, 0
0, 0
0, 0
0, 0
0, 0
0, 0
0, 0
0, 0
0, 0
0, 0
1, 0
0, 0
0, 0
0, 0
1, 0
0, 0
0, 0
0, 0
2, 0
0, 1
0, 0
1, 0
0, 0
0, 0
0, 0
0, 0
1, 0
1, 0
1, 0
0, 0
0, 0
1, 0
0, 0
0, 0
0, 0
0, 0
0, 0
0, 0
0, 0
0, 0
0, 0
0, 0
0, 0
0, 0
0, 0
0, 0
0, 0
0, 0
0, 0
0, 0
0, 1
2, 0
0, 0
0, 0
0, 0
0, 1
0, 0
0, 0
0, 0
1, 0
0, 0
0, 0
0, 0
0, 0
0, 0
0, 0
0, 0
0, 0
0, 0
0, 0
0, 0
0, 0
0, 0
0, 0
0, 1
0, 0
0, 0
0, 0
0, 0
0, 0
0, 0
0, 0
0, 0
1, 0
0, 0
0, 0
1, 0
0, 0
0, 0
0, 0
1, 0
0, 0
0, 0
0, 0
1, 0
0, 0
0, 0
0, 0
0, 0
0, 0
0, 0
0, 0
0, 1
0, 0
0, 0
2, 0
0, 0
0, 0
0, 0
0, 0
0, 0
0, 0
0, 0
1, 0
0, 0
0, 0
0, 0
1, 0
0, 0
0, 0
0, 0
0, 0
0, 0
1, 0
0, 0
0, 0
0, 0
0, 0
0, 0
0, 0
0, 0
0, 0
0, 0
0, 1
0, 0
0, 0
0, 0
0, 0
0, 0
0, 0
0, 0
0, 0
1, 0
0, 0
0, 0
0, 0
0, 0
0, 0
0, 0
0, 0
0, 0
0, 0
0, 0
0, 0
0, 0
0, 0
0, 0
0, 0
0, 0
0, 0
0, 0
0, 0
0, 0
0, 0
0, 0
0, 0
0, 0
0, 0
0, 0
0, 0
0, 0
0, 0
0, 0
0, 0
0, 0
0, 0
0, 0
0, 0
0, 0
0, 0
0, 0
0, 0
0, 0
0, 0
0, 0
0, 0
0, 0
0, 0
0, 0
0, 0
0, 0
0, 0
0, 0
0, 0
0, 0
0, 0
0, 0
0, 0
0, 0
0, 0
0, 0
0, 0
0, 0
0, 0
0, 0
0, 0
0, 0
1, 0
0, 0
0, 0
0, 0
0, 0
0, 0
0, 0
0, 0
0, 0
0, 0
0, 0
0, 0
0, 0
0, 0
0, 0
0, 0
0, 0
0, 0
0, 0
0, 0
0, 0
0, 0
0, 0
0, 0
0, 0
0, 0
0, 0
0, 0
0, 0
0, 0
0, 0
0, 0
0, 0
0, 0
0, 0
0, 0
0, 0
0, 0
0, 0
0, 0
0, 0
0, 0
0, 0
0, 0
0, 0
0, 0
0, 0
0, 0
0, 0
0, 0
0, 0
0, 0
0, 0
0, 0
0, 0
0, 0
0, 0
0, 0
0, 0
0, 0
0, 0
0, 0
0, 0
0, 0
0, 0
0, 0
0, 0
0, 0
0, 0
0, 0
0, 0
0, 0
0, 0
0, 0
0, 0
0, 0
0, 0
0, 0
0, 0
0, 0
0, 0
0, 0
0, 0
0, 0
0, 0
0, 0
0, 0
0, 0
0, 0
0, 0
0, 0
0, 0
0, 0
0, 0
0, 0
0, 0
0, 0
0, 0
0, 0
0, 0
0, 0
0, 0
0, 0
0, 0
0, 0
0, 0
0, 0
0, 0
0, 0
0, 0
0, 0
0, 0
0, 0
0, 0
0, 0
0, 0
0, 0
0, 0
0, 0
0, 0
0, 0
0, 0
0, 0
0, 0
0, 0
0, 0
0, 0
0, 0
0, 0
0, 0
0, 0
0, 0
0, 0
0, 0
0, 0
0, 0
0, 0
0, 0
0, 0
0, 0
0, 0
0, 0
0, 0
0, 0
0, 0
0, 0
0, 0
0, 0
0, 0
0, 0
0, 0
0, 0
0, 0
0, 0
0, 0
0, 0
0, 0
0, 0
0, 0
0, 0
0, 0
0, 0
0, 0
0, 0
0, 0
0, 0
0, 0
0, 0
0, 0
0, 0
0, 0
0, 0
0, 0
0, 0
0, 0
0, 0
0, 0
0, 0
0, 0
0, 0
0, 0
0, 0
0, 0
0, 0
0, 0
0, 0
0, 0
0, 0
0, 0
0, 0
0, 0
0, 0
0, 0
0, 0
0, 0
0, 0
0, 0
0, 0
0, 0
0, 0
0, 0
0, 0
0, 0
0, 0
0, 0
0, 0
0, 0
0, 0
0, 0
0, 0
0, 0
0, 0
0, 0
0, 0
0, 0
0, 0
0, 0
0, 0
0, 0
0, 0
0, 0
0, 0
0, 0
0, 0
0, 0
0, 0
0, 0
0, 0
0, 0
0, 0
0, 0
0, 0
0, 0
0, 0
0, 0
0, 0
0, 0
0, 0
0, 0
0, 0
0, 0
0, 0
0, 0
0, 0
0, 0
0, 0
0, 0
0, 0
0, 0
0, 0
0, 0
0, 0
0, 0
0, 0
0, 0
0, 0
0, 0
0, 0
0, 0
0, 0
0, 0
0, 0
0, 0
0, 0
0, 0
0, 0
0, 0
0, 0
0, 0
0, 0
0, 0
0, 0
0, 0
0, 0
0, 0
0, 0
0, 0
0, 0
0, 0
0, 0
0, 0
0, 0
0, 0
0, 0
0, 0
0, 0
0, 0
0, 0
0, 0
0, 0
0, 0
0, 0
0, 0
0, 0
0, 0
0, 0
0, 0
0, 0
0, 0
0, 0
0, 0
0, 0
0, 0
0, 0
0, 0
0, 0
0, 0
0, 0
0, 0
0, 0
0, 0
0, 0
0, 0
0, 0
0, 0
0, 0
0, 0
0, 0
0, 0
0, 0
0, 0
0, 0
0, 0
0, 0
0, 0
0, 0
0, 0
0, 0
0, 0
0, 0
0, 0
0, 0
0, 0
0, 0
#ENDOFDATA     end of spectrum data