File: host_upload/06-09-2024/ps_0852/dump3/ps__0852shot_2252.msa
#FORMAT      : EMSA/MAS spectral data file
#VERSION     : TC202v2.0 PIXL
#TITLE       : N/A
#DATE        :       Date in the format DD-MMM-YYYY, for example 07-JUL-2010
#TIME        :             The time of day at which the spectrum was recorded, in 24-hour format
#OWNER       : PIXL Flight Model       (PIXL will use this to indicate which instrument took the data.)
#NPOINTS     : 4096     Number of data points in the spectrum (This can be zero for configuration only files)
#NCOLUMNS    : 2     Number of data columns in the spectrum (This can be zero for configuration only files)
#XUNITS      : eV
#YUNITS      : COUNTS
#DATATYPE    : YY
#XPERCHAN    : 7.862, 7.881   eV per channel (separate by commas if more than one detector)
#OFFSET      : 18.5, -22.4         eV of first channel  (separate by commas if more than one detector
#SIGNALTYPE  : XRF
#YP_TEMP     : 2.396
#LIVETIME    : 8.58823, 8.56648   seconds (separate by commas if more than one detector)
#REALTIME    : 10, 10.0   seconds (separate by commas if more than one detector)
#SPECTRUM    : start of spectrum data
0, 0
0, 0
0, 0
0, 0
0, 0
0, 0
0, 0
0, 0
0, 0
0, 0
0, 0
0, 0
0, 0
0, 0
0, 0
0, 0
0, 0
0, 0
0, 0
0, 0
0, 0
0, 0
0, 0
0, 0
0, 0
0, 0
0, 0
0, 0
0, 0
0, 0
0, 0
0, 0
0, 0
0, 0
0, 1
2, 1
1, 0
1, 0
1, 0
4, 2
2, 2
0, 2
1, 0
2, 0
1, 2
0, 1
2, 2
2, 2
7, 12
14, 8
17, 14
47, 32
56, 41
63, 60
75, 60
61, 65
57, 57
42, 34
20, 19
23, 8
6, 4
8, 5
4, 6
7, 3
2, 6
9, 5
6, 6
10, 12
23, 27
50, 62
106, 100
170, 179
278, 246
390, 364
478, 384
462, 379
404, 365
357, 270
236, 169
150, 114
81, 57
43, 37
24, 13
19, 6
7, 4
4, 7
4, 3
2, 2
6, 0
1, 1
1, 1
4, 1
3, 2
4, 1
4, 3
2, 5
6, 6
7, 6
8, 8
9, 8
10, 5
7, 7
4, 3
3, 4
4, 4
5, 6
9, 11
9, 8
20, 20
30, 27
36, 35
59, 60
64, 52
65, 72
68, 68
52, 74
62, 59
65, 55
43, 70
34, 51
25, 41
28, 26
27, 32
23, 28
23, 24
18, 20
19, 15
10, 17
8, 8
12, 4
5, 7
6, 7
3, 4
3, 4
5, 2
2, 1
3, 3
1, 3
3, 1
3, 1
4, 3
3, 5
8, 1
11, 4
12, 5
21, 4
16, 2
38, 2
31, 3
34, 6
37, 7
45, 8
48, 14
53, 25
70, 32
61, 47
65, 44
70, 51
55, 41
55, 53
61, 32
26, 21
20, 14
2, 10
9, 9
0, 8
2, 8
7, 4
14, 13
8, 10
12, 8
11, 7
8, 11
7, 11
5, 4
8, 6
5, 5
5, 3
4, 3
4, 3
4, 3
2, 0
4, 3
6, 5
3, 5
6, 1
4, 2
4, 13
7, 12
5, 5
7, 5
11, 10
7, 13
17, 13
10, 15
15, 15
7, 8
19, 12
10, 6
17, 8
16, 10
9, 6
10, 10
7, 7
10, 2
10, 8
4, 3
8, 2
4, 8
2, 9
5, 9
7, 7
7, 10
3, 5
4, 10
9, 7
2, 5
4, 4
8, 4
6, 4
9, 3
7, 7
8, 9
10, 13
19, 12
17, 19
27, 25
26, 26
31, 30
48, 43
43, 53
45, 51
39, 43
40, 47
22, 40
18, 36
23, 38
20, 27
7, 26
7, 9
10, 12
7, 7
18, 15
16, 11
19, 21
15, 22
31, 31
30, 43
40, 52
54, 60
64, 67
49, 58
54, 42
48, 51
50, 42
39, 37
27, 14
40, 14
18, 20
19, 20
11, 9
25, 26
68, 49
88, 106
152, 177
298, 326
517, 625
760, 924
1178, 1329
1645, 1681
1990, 1983
2413, 2310
2527, 2330
2424, 2172
2154, 1885
1699, 1472
1358, 1084
951, 658
606, 496
362, 312
204, 180
117, 119
56, 81
44, 52
27, 47
28, 33
25, 41
44, 23
64, 26
83, 20
102, 27
137, 51
202, 52
215, 74
276, 106
320, 177
371, 222
400, 289
426, 310
445, 312
431, 356
423, 293
299, 257
267, 199
231, 144
143, 101
86, 65
61, 36
37, 18
26, 16
12, 7
14, 6
12, 6
8, 7
13, 8
14, 14
17, 7
15, 9
12, 14
14, 8
15, 9
7, 6
8, 4
12, 8
8, 4
10, 10
0, 1
2, 3
4, 1
3, 4
6, 1
6, 2
3, 2
4, 5
6, 5
8, 6
19, 5
9, 3
7, 1
13, 2
15, 0
10, 5
3, 2
6, 2
4, 8
8, 7
5, 4
6, 5
9, 3
7, 6
6, 1
7, 7
4, 8
4, 5
6, 4
4, 2
4, 1
3, 3
6, 5
4, 5
3, 10
7, 4
5, 1
6, 2
2, 3
3, 2
4, 3
1, 7
6, 3
1, 6
4, 2
4, 1
4, 4
6, 7
6, 3
5, 2
7, 1
3, 2
5, 2
4, 3
4, 5
3, 5
7, 3
2, 3
4, 3
7, 4
5, 4
7, 1
6, 6
3, 3
5, 2
2, 3
4, 3
8, 1
4, 4
5, 2
9, 1
4, 5
4, 4
8, 5
8, 4
7, 5
7, 5
2, 7
7, 1
6, 5
7, 2
4, 4
2, 1
5, 2
4, 5
3, 0
2, 3
4, 5
3, 1
2, 3
7, 4
10, 3
1, 1
1, 4
1, 6
3, 5
3, 3
4, 0
2, 4
0, 2
5, 1
2, 0
0, 2
4, 2
2, 1
4, 1
1, 3
4, 1
3, 1
8, 6
7, 1
5, 4
10, 2
10, 2
5, 6
8, 2
7, 3
15, 3
6, 4
7, 4
6, 3
7, 4
4, 5
11, 2
8, 3
4, 4
7, 2
2, 1
2, 1
3, 1
2, 5
0, 3
3, 1
2, 2
2, 4
3, 4
4, 3
1, 2
3, 5
2, 1
1, 4
2, 5
4, 0
0, 8
1, 4
1, 2
3, 1
4, 1
4, 3
1, 4
0, 3
6, 1
3, 1
3, 2
2, 1
2, 3
5, 0
3, 0
6, 0
7, 1
2, 1
4, 0
2, 4
4, 2
2, 1
4, 2
3, 2
5, 3
0, 1
1, 4
2, 0
4, 2
0, 3
2, 2
2, 5
6, 2
3, 1
2, 0
0, 2
4, 2
2, 1
1, 1
1, 1
0, 3
3, 2
0, 3
2, 2
1, 1
1, 5
3, 2
2, 2
1, 2
1, 1
3, 2
4, 2
3, 2
1, 4
4, 3
7, 1
7, 6
4, 1
5, 2
3, 3
3, 1
4, 1
1, 5
4, 1
1, 2
0, 4
1, 1
0, 4
4, 5
4, 2
1, 7
4, 4
3, 5
0, 7
8, 5
5, 8
3, 4
5, 0
2, 5
5, 3
2, 3
3, 1
0, 3
1, 1
3, 1
1, 0
0, 1
1, 1
2, 4
3, 3
1, 2
0, 1
3, 6
3, 1
5, 1
2, 2
0, 0
1, 3
3, 1
2, 2
4, 0
3, 3
2, 0
1, 3
1, 0
1, 3
0, 0
4, 3
3, 3
1, 3
1, 1
2, 4
2, 1
2, 4
3, 1
3, 1
3, 1
0, 2
3, 2
1, 0
2, 2
4, 1
7, 3
2, 0
1, 2
0, 0
1, 2
0, 0
3, 3
0, 1
1, 2
3, 0
0, 2
1, 1
3, 3
1, 0
2, 0
1, 0
2, 0
0, 0
0, 0
1, 2
0, 1
0, 0
1, 0
1, 1
1, 0
0, 0
0, 1
0, 2
1, 0
2, 0
1, 0
1, 0
0, 1
2, 1
1, 1
1, 3
0, 0
0, 0
0, 1
0, 0
3, 0
0, 1
1, 0
0, 0
2, 0
0, 0
1, 0
2, 2
2, 1
0, 1
2, 1
1, 1
0, 1
1, 0
0, 1
0, 1
1, 2
0, 0
1, 1
0, 1
1, 0
1, 2
0, 2
2, 0
0, 0
0, 1
0, 1
1, 0
3, 2
0, 1
0, 1
0, 6
1, 1
0, 1
1, 0
1, 0
0, 0
0, 1
0, 1
1, 0
1, 1
0, 0
1, 0
1, 0
2, 0
1, 0
0, 0
0, 0
0, 2
2, 3
1, 0
1, 0
3, 0
1, 1
0, 0
1, 0
0, 1
0, 1
0, 0
1, 0
0, 0
0, 0
0, 0
2, 0
1, 1
1, 0
0, 0
0, 0
2, 0
0, 0
0, 0
1, 0
0, 0
1, 1
0, 1
0, 0
0, 0
0, 1
0, 0
0, 0
0, 1
0, 0
0, 1
1, 0
0, 0
0, 0
1, 0
1, 1
0, 2
0, 0
0, 0
0, 0
1, 0
0, 0
0, 0
0, 0
2, 0
2, 0
1, 0
0, 0
1, 0
1, 1
2, 0
0, 1
0, 1
2, 1
0, 0
1, 0
1, 0
1, 0
0, 0
0, 0
0, 1
0, 0
0, 0
0, 2
0, 0
0, 0
0, 1
0, 0
1, 1
0, 1
1, 1
0, 1
0, 0
1, 0
0, 2
0, 0
1, 1
0, 0
1, 1
1, 0
0, 0
0, 0
0, 0
0, 0
0, 0
0, 0
1, 0
0, 0
1, 0
0, 0
1, 1
0, 0
0, 0
0, 0
0, 0
0, 1
0, 0
2, 0
0, 0
0, 0
0, 1
0, 0
0, 1
0, 0
1, 0
1, 0
0, 0
1, 0
1, 0
0, 0
1, 1
0, 0
0, 0
0, 0
1, 2
0, 1
1, 0
2, 0
0, 0
1, 0
0, 0
0, 0
0, 0
1, 0
0, 0
0, 0
0, 0
0, 0
1, 1
0, 0
0, 0
0, 0
0, 0
2, 0
0, 0
0, 0
0, 0
0, 0
1, 0
0, 0
0, 0
0, 0
0, 0
0, 1
0, 0
0, 0
0, 0
0, 0
0, 0
0, 0
0, 0
1, 0
1, 1
2, 0
0, 0
1, 0
0, 1
0, 0
0, 0
0, 0
1, 1
0, 0
0, 0
0, 0
0, 0
0, 0
0, 0
0, 0
0, 0
0, 0
0, 0
0, 0
0, 0
0, 0
0, 0
0, 0
0, 0
0, 0
0, 1
0, 2
1, 0
0, 0
0, 0
0, 0
0, 0
0, 0
0, 0
0, 1
1, 0
0, 0
1, 0
0, 0
0, 0
0, 0
0, 0
0, 0
0, 0
0, 0
0, 0
0, 0
0, 0
0, 0
0, 0
0, 0
0, 0
0, 0
0, 0
1, 0
0, 0
0, 0
0, 0
0, 0
0, 0
0, 0
0, 0
0, 0
0, 1
0, 0
0, 0
0, 0
0, 0
0, 0
0, 0
0, 0
0, 0
0, 0
0, 0
0, 0
0, 0
0, 0
0, 0
0, 0
0, 0
0, 0
0, 0
1, 0
0, 0
0, 0
0, 0
0, 0
0, 0
0, 0
0, 0
0, 0
0, 0
0, 0
0, 0
0, 0
0, 0
0, 0
0, 0
0, 0
0, 0
0, 0
0, 0
0, 0
0, 0
0, 0
0, 0
0, 0
0, 0
0, 0
0, 0
0, 0
0, 0
0, 0
0, 0
0, 0
0, 0
0, 0
0, 0
0, 0
1, 0
0, 0
0, 0
0, 0
0, 0
0, 0
0, 0
0, 0
0, 0
0, 0
0, 0
0, 1
0, 0
0, 0
0, 0
0, 0
0, 0
0, 1
0, 0
0, 0
0, 0
0, 0
0, 0
0, 0
0, 0
0, 0
0, 0
0, 0
0, 0
0, 0
0, 0
0, 0
0, 0
0, 0
0, 0
0, 0
0, 0
0, 0
0, 0
0, 0
0, 0
0, 0
0, 0
0, 0
0, 0
0, 0
0, 0
0, 0
0, 0
0, 0
0, 0
0, 0
0, 0
0, 0
0, 0
0, 0
0, 0
0, 0
0, 0
0, 0
0, 0
0, 0
0, 0
0, 0
0, 0
0, 0
0, 0
0, 0
0, 0
0, 0
0, 0
0, 0
0, 0
0, 0
0, 0
0, 0
0, 0
0, 0
0, 0
0, 0
0, 0
0, 0
0, 0
0, 0
0, 0
0, 0
0, 0
0, 0
0, 0
0, 0
0, 0
0, 0
0, 0
0, 0
0, 0
0, 0
0, 0
0, 0
0, 0
0, 0
0, 0
0, 0
0, 0
0, 0
0, 0
0, 0
0, 0
0, 0
0, 1
0, 0
0, 0
0, 0
0, 0
0, 0
0, 0
0, 0
0, 0
0, 0
0, 0
0, 0
0, 0
0, 0
0, 0
0, 0
0, 0
0, 0
0, 0
0, 0
0, 0
0, 0
0, 0
0, 0
0, 0
0, 0
0, 0
0, 0
0, 0
0, 0
0, 0
0, 0
0, 0
0, 0
0, 0
0, 0
0, 0
0, 0
0, 0
0, 0
0, 0
0, 0
0, 0
0, 0
0, 0
0, 0
0, 0
0, 0
0, 0
0, 0
0, 0
0, 0
0, 0
0, 0
0, 0
0, 0
0, 0
0, 0
0, 0
0, 0
0, 0
0, 0
0, 0
0, 0
0, 0
0, 0
0, 0
0, 0
0, 0
0, 0
0, 0
0, 0
0, 0
0, 0
0, 0
0, 0
0, 0
0, 0
0, 0
0, 0
0, 0
0, 0
0, 0
0, 0
0, 0
0, 0
0, 0
0, 0
0, 0
0, 0
0, 0
0, 0
0, 0
0, 0
0, 0
0, 0
0, 0
0, 0
0, 0
0, 0
0, 0
0, 0
0, 0
0, 0
0, 0
0, 0
0, 0
0, 0
0, 0
0, 0
0, 0
0, 0
0, 0
0, 0
0, 0
0, 0
0, 0
0, 0
0, 0
0, 0
0, 0
0, 0
0, 0
0, 0
0, 0
0, 0
0, 0
0, 0
0, 0
0, 0
0, 0
0, 0
0, 0
0, 0
0, 0
0, 0
0, 0
0, 0
0, 0
0, 0
0, 0
0, 0
0, 0
0, 0
0, 0
0, 0
0, 0
0, 0
0, 0
0, 0
0, 0
0, 0
0, 0
0, 0
0, 0
0, 0
0, 0
0, 0
0, 0
0, 0
0, 0
0, 0
0, 0
0, 0
0, 0
0, 0
0, 0
0, 0
0, 0
0, 0
0, 0
0, 0
0, 0
0, 0
0, 0
0, 0
0, 0
0, 0
0, 0
0, 0
0, 0
0, 0
0, 0
0, 0
0, 0
0, 0
0, 0
0, 0
0, 0
0, 0
0, 0
0, 0
0, 0
0, 0
0, 0
0, 0
0, 0
0, 0
0, 0
0, 0
0, 0
0, 0
0, 0
0, 0
0, 0
0, 0
0, 0
0, 0
0, 0
0, 0
0, 0
0, 0
0, 0
0, 0
0, 0
0, 0
0, 0
0, 0
0, 0
0, 0
0, 0
0, 0
0, 0
0, 0
0, 0
0, 0
0, 0
0, 0
0, 0
0, 0
0, 0
0, 0
0, 0
0, 0
0, 0
0, 0
0, 0
0, 0
0, 0
0, 0
0, 0
0, 0
0, 0
0, 0
0, 0
0, 0
0, 0
0, 0
0, 0
0, 0
0, 0
0, 0
0, 0
0, 0
0, 0
0, 0
0, 0
0, 0
0, 0
0, 0
0, 0
0, 0
0, 0
0, 0
0, 0
0, 0
0, 0
0, 0
0, 0
0, 0
0, 0
0, 0
0, 0
0, 0
0, 0
0, 0
0, 0
0, 0
0, 0
0, 0
0, 0
0, 0
0, 0
0, 0
0, 0
0, 0
0, 0
0, 0
0, 0
0, 0
0, 0
0, 0
0, 0
0, 0
0, 0
0, 0
0, 0
0, 0
0, 0
0, 0
0, 0
0, 0
0, 0
#ENDOFDATA     end of spectrum data