File: host_upload/06-09-2024/ps_0852/dump3/ps__0852shot_2196.msa
#FORMAT      : EMSA/MAS spectral data file
#VERSION     : TC202v2.0 PIXL
#TITLE       : N/A
#DATE        :       Date in the format DD-MMM-YYYY, for example 07-JUL-2010
#TIME        :             The time of day at which the spectrum was recorded, in 24-hour format
#OWNER       : PIXL Flight Model       (PIXL will use this to indicate which instrument took the data.)
#NPOINTS     : 4096     Number of data points in the spectrum (This can be zero for configuration only files)
#NCOLUMNS    : 2     Number of data columns in the spectrum (This can be zero for configuration only files)
#XUNITS      : eV
#YUNITS      : COUNTS
#DATATYPE    : YY
#XPERCHAN    : 7.862, 7.881   eV per channel (separate by commas if more than one detector)
#OFFSET      : 18.5, -22.4         eV of first channel  (separate by commas if more than one detector
#SIGNALTYPE  : XRF
#YP_TEMP     : 2.3
#LIVETIME    : 8.55545, 8.55283   seconds (separate by commas if more than one detector)
#REALTIME    : 10, 10.0   seconds (separate by commas if more than one detector)
#SPECTRUM    : start of spectrum data
0, 0
0, 0
0, 0
0, 0
0, 0
0, 0
0, 0
0, 0
0, 0
0, 0
0, 0
0, 0
0, 0
0, 0
0, 0
0, 0
0, 0
0, 0
0, 0
0, 0
0, 0
0, 0
0, 0
0, 0
0, 0
0, 0
0, 0
0, 0
0, 0
0, 0
0, 0
0, 0
0, 1
0, 0
0, 0
0, 0
1, 0
0, 0
1, 0
0, 0
3, 2
3, 2
0, 2
1, 1
2, 2
2, 3
1, 1
7, 4
5, 10
15, 8
22, 19
60, 22
64, 47
75, 57
81, 69
73, 46
74, 51
35, 35
26, 23
16, 20
9, 10
10, 4
2, 4
3, 2
6, 2
4, 3
9, 4
9, 12
28, 19
37, 52
99, 80
179, 163
289, 250
404, 300
490, 344
453, 340
381, 320
338, 266
216, 176
129, 101
79, 58
42, 32
19, 20
9, 5
9, 4
3, 3
3, 0
1, 6
4, 2
1, 3
1, 1
1, 1
0, 1
1, 2
2, 2
6, 2
8, 10
12, 6
9, 15
10, 5
9, 6
8, 13
5, 5
6, 0
2, 6
6, 6
10, 8
9, 6
11, 20
18, 21
30, 29
41, 30
32, 63
65, 60
50, 81
51, 87
50, 68
47, 76
40, 65
35, 52
21, 49
32, 49
25, 17
14, 25
15, 23
25, 19
16, 14
13, 14
12, 8
12, 6
2, 5
7, 3
4, 5
3, 5
2, 3
5, 1
1, 3
3, 0
5, 3
7, 2
2, 8
3, 2
7, 0
8, 4
9, 1
10, 0
24, 2
25, 4
21, 2
18, 3
26, 3
17, 10
20, 18
26, 7
25, 16
22, 18
36, 31
36, 36
25, 34
28, 29
33, 21
20, 23
13, 9
14, 15
7, 15
6, 8
7, 8
3, 11
3, 8
11, 10
9, 3
12, 11
8, 13
6, 11
11, 12
10, 7
7, 9
6, 10
9, 10
2, 12
3, 5
3, 7
8, 3
7, 6
5, 4
2, 4
7, 4
5, 2
7, 6
11, 4
12, 7
12, 8
22, 14
15, 7
8, 26
13, 19
15, 20
13, 23
13, 19
29, 16
33, 22
35, 20
27, 14
28, 8
29, 7
20, 8
22, 8
15, 8
14, 1
9, 3
5, 7
13, 4
4, 5
4, 7
11, 8
4, 8
8, 5
4, 8
6, 3
7, 7
8, 5
8, 7
8, 2
5, 9
6, 6
17, 11
13, 16
12, 18
11, 19
14, 24
14, 35
15, 27
9, 40
13, 43
9, 47
13, 32
8, 23
12, 32
11, 23
8, 22
15, 15
8, 14
11, 9
13, 5
13, 13
19, 19
26, 22
42, 44
52, 28
54, 48
50, 54
51, 78
65, 60
70, 34
48, 36
36, 34
24, 27
20, 25
20, 21
20, 14
24, 29
39, 32
54, 51
103, 103
150, 163
304, 315
503, 545
798, 877
1243, 1264
1642, 1633
2053, 1967
2340, 2129
2482, 2276
2400, 2090
2229, 1846
1906, 1393
1306, 1042
982, 654
595, 452
377, 263
209, 175
123, 89
64, 58
56, 41
50, 26
45, 28
47, 26
55, 12
65, 25
71, 16
99, 27
122, 27
150, 53
186, 94
206, 109
295, 181
292, 211
365, 272
419, 324
451, 338
405, 322
331, 314
341, 271
270, 193
203, 163
146, 104
82, 49
60, 47
32, 28
16, 16
23, 5
12, 6
14, 7
10, 13
9, 11
11, 9
12, 13
14, 17
18, 13
17, 13
11, 10
10, 12
12, 8
12, 4
6, 4
6, 7
8, 7
4, 1
3, 2
7, 2
6, 4
4, 8
5, 3
6, 2
9, 5
4, 2
3, 4
9, 3
11, 5
7, 5
4, 6
4, 2
5, 7
8, 10
7, 3
5, 4
3, 6
7, 9
8, 9
7, 6
8, 4
9, 4
5, 5
3, 6
7, 1
7, 3
2, 5
6, 4
2, 3
5, 5
3, 8
1, 5
4, 7
5, 9
7, 2
3, 2
7, 7
2, 5
5, 6
10, 2
3, 7
8, 4
4, 9
1, 7
3, 3
1, 2
3, 2
4, 0
4, 4
3, 5
2, 3
2, 4
2, 2
4, 6
3, 4
6, 4
5, 3
6, 4
5, 4
5, 3
1, 3
5, 3
2, 6
5, 6
3, 3
10, 6
6, 14
10, 5
8, 13
10, 10
8, 7
8, 4
6, 7
4, 7
7, 4
4, 5
3, 1
2, 4
7, 5
4, 4
10, 0
6, 2
8, 5
16, 3
10, 2
8, 4
16, 5
14, 2
11, 4
9, 2
6, 2
15, 2
9, 6
6, 2
7, 2
7, 2
3, 3
6, 4
4, 2
5, 1
4, 2
6, 1
4, 2
3, 3
5, 1
5, 2
5, 4
3, 3
4, 1
2, 3
8, 2
6, 7
10, 5
2, 2
8, 4
7, 3
4, 3
6, 4
5, 2
4, 3
4, 5
0, 5
4, 4
3, 4
4, 1
1, 2
4, 5
4, 2
3, 0
2, 1
0, 3
2, 2
3, 0
1, 3
1, 0
2, 2
3, 0
5, 2
2, 2
4, 2
4, 3
0, 2
2, 2
6, 2
4, 0
2, 3
1, 2
1, 3
3, 2
2, 3
5, 2
1, 1
5, 2
3, 1
3, 1
2, 0
1, 3
6, 3
1, 2
3, 1
3, 0
3, 3
3, 1
1, 2
0, 3
5, 0
0, 3
3, 2
1, 0
1, 1
4, 1
1, 1
6, 5
1, 0
1, 3
1, 6
1, 1
0, 1
0, 4
2, 0
1, 1
2, 3
1, 1
0, 3
1, 0
4, 0
1, 2
1, 2
1, 2
1, 1
3, 1
2, 3
1, 1
4, 1
2, 4
3, 1
1, 4
4, 2
0, 4
1, 3
1, 3
1, 2
1, 4
1, 5
3, 2
2, 2
0, 8
0, 3
7, 5
4, 5
4, 2
6, 2
4, 1
4, 3
2, 5
6, 4
3, 2
3, 1
4, 2
3, 3
2, 1
3, 1
0, 2
0, 3
0, 3
3, 2
0, 1
0, 2
4, 0
2, 0
1, 0
0, 1
1, 0
0, 0
1, 3
1, 3
1, 2
1, 2
2, 3
2, 2
6, 3
0, 1
1, 1
2, 1
3, 1
3, 0
3, 1
1, 1
3, 0
2, 1
0, 1
1, 1
2, 2
1, 1
0, 0
0, 1
1, 0
2, 1
1, 3
2, 2
2, 1
1, 3
0, 1
1, 0
0, 0
0, 1
2, 1
1, 0
3, 1
2, 1
3, 1
2, 0
0, 1
0, 2
1, 2
1, 1
3, 2
3, 0
0, 2
3, 1
1, 0
1, 1
0, 0
0, 2
1, 0
0, 0
0, 1
1, 0
4, 1
1, 2
1, 0
0, 1
3, 0
0, 1
1, 0
0, 1
1, 0
0, 2
0, 0
1, 1
1, 0
2, 0
2, 0
1, 0
2, 0
1, 0
2, 2
1, 1
0, 0
0, 0
0, 1
0, 0
2, 0
0, 0
1, 1
1, 1
0, 1
0, 1
0, 1
1, 1
0, 2
0, 1
2, 0
1, 2
1, 0
0, 2
2, 0
1, 0
0, 0
0, 1
0, 1
1, 2
0, 1
0, 0
1, 1
0, 1
1, 0
2, 1
0, 0
0, 0
0, 0
0, 1
1, 0
0, 2
2, 0
0, 0
0, 1
2, 1
2, 3
0, 2
1, 0
2, 0
0, 1
0, 1
0, 0
0, 0
0, 0
1, 0
0, 1
0, 0
0, 1
1, 0
1, 0
0, 0
0, 1
0, 0
0, 0
0, 0
0, 1
0, 0
0, 0
1, 0
0, 0
0, 1
0, 2
0, 1
0, 1
0, 2
0, 0
0, 0
1, 0
0, 1
0, 0
1, 0
0, 0
1, 0
0, 2
0, 0
1, 0
0, 0
0, 0
0, 0
0, 1
0, 1
0, 0
1, 0
0, 0
0, 1
0, 0
1, 0
1, 0
1, 1
2, 1
0, 2
0, 1
0, 0
0, 0
1, 0
0, 0
3, 0
0, 1
2, 0
0, 0
0, 0
0, 0
0, 0
0, 0
0, 0
0, 0
0, 1
0, 0
1, 2
0, 0
0, 0
0, 0
0, 0
0, 0
0, 1
0, 0
1, 0
0, 0
0, 0
1, 0
0, 2
0, 0
0, 0
2, 1
1, 1
0, 0
0, 0
0, 0
0, 0
1, 0
0, 0
0, 0
1, 1
0, 0
0, 0
1, 1
0, 0
0, 0
0, 0
0, 1
0, 0
0, 0
1, 0
1, 1
0, 0
0, 0
0, 1
0, 0
0, 0
1, 0
1, 0
0, 0
1, 0
1, 0
0, 0
0, 0
0, 2
0, 0
0, 1
0, 0
0, 0
0, 0
0, 0
0, 0
0, 0
0, 0
0, 0
0, 1
0, 0
0, 0
0, 1
0, 0
0, 0
0, 0
0, 0
1, 0
1, 0
1, 0
1, 0
0, 0
1, 0
1, 0
0, 0
0, 0
1, 1
0, 0
0, 1
0, 0
0, 0
0, 0
0, 0
0, 0
0, 1
0, 0
0, 0
0, 0
0, 0
0, 0
0, 0
0, 1
0, 0
0, 0
0, 0
0, 1
0, 0
0, 0
0, 0
0, 0
1, 0
1, 0
1, 0
0, 0
0, 0
1, 0
0, 1
1, 0
0, 0
1, 0
0, 0
1, 0
1, 0
1, 0
0, 0
0, 0
0, 1
0, 0
0, 1
0, 0
0, 1
1, 0
0, 0
0, 0
0, 0
0, 0
0, 0
0, 0
0, 1
0, 0
0, 0
0, 0
0, 0
0, 0
0, 0
0, 0
0, 0
0, 0
0, 0
1, 0
0, 0
0, 0
0, 0
0, 0
0, 0
0, 0
0, 0
0, 0
0, 0
0, 0
0, 0
0, 0
0, 0
0, 0
0, 0
0, 0
0, 1
0, 0
0, 0
0, 0
0, 0
0, 0
0, 0
0, 0
0, 0
0, 0
0, 0
0, 0
0, 0
0, 0
0, 0
0, 0
0, 1
0, 0
1, 0
0, 0
0, 0
0, 0
0, 0
0, 0
0, 0
0, 0
1, 0
0, 0
0, 0
0, 0
0, 0
0, 0
0, 0
0, 0
0, 0
0, 0
0, 0
0, 0
0, 0
0, 0
0, 0
0, 0
0, 0
0, 0
0, 0
0, 0
0, 0
0, 0
0, 0
0, 0
0, 0
0, 0
0, 0
0, 0
0, 0
0, 0
0, 0
0, 0
0, 0
0, 0
0, 0
0, 0
0, 0
0, 0
0, 0
0, 0
0, 0
0, 0
0, 0
0, 1
0, 0
0, 0
0, 0
0, 0
0, 0
0, 0
0, 0
0, 0
0, 0
0, 0
0, 0
0, 0
0, 0
0, 0
0, 0
0, 0
0, 0
0, 0
0, 0
0, 0
0, 0
0, 0
0, 0
0, 0
0, 0
0, 0
0, 0
0, 0
0, 0
0, 0
0, 0
0, 0
0, 0
0, 0
0, 0
0, 0
0, 0
0, 0
0, 0
0, 0
0, 0
0, 0
0, 0
0, 0
0, 0
0, 0
0, 0
0, 0
0, 0
0, 1
0, 0
0, 0
0, 0
0, 0
0, 0
0, 0
0, 0
0, 0
0, 0
0, 0
0, 0
0, 0
0, 0
0, 0
0, 0
0, 0
0, 0
0, 0
0, 0
0, 0
0, 0
0, 0
0, 0
0, 0
0, 0
0, 0
0, 0
0, 0
0, 0
0, 0
0, 0
0, 0
0, 0
0, 0
0, 0
0, 0
0, 0
0, 0
0, 0
0, 0
0, 0
0, 0
0, 0
0, 0
0, 0
0, 0
0, 0
0, 0
0, 0
0, 0
0, 0
0, 0
0, 0
0, 0
0, 0
0, 0
0, 0
0, 0
0, 0
0, 0
0, 0
0, 0
0, 0
0, 0
0, 0
0, 0
0, 0
0, 0
0, 0
0, 0
0, 0
0, 0
0, 0
0, 0
0, 0
0, 0
0, 0
0, 0
0, 0
0, 0
0, 0
0, 0
0, 0
0, 0
0, 0
0, 0
0, 0
0, 0
0, 0
0, 0
0, 0
0, 0
0, 0
0, 0
0, 0
0, 0
0, 0
0, 0
0, 0
0, 0
0, 0
0, 0
0, 0
0, 0
0, 0
0, 0
0, 0
0, 0
0, 0
0, 0
0, 0
0, 0
0, 0
0, 0
0, 0
0, 0
0, 0
0, 0
0, 0
0, 0
0, 0
0, 0
0, 0
0, 0
0, 0
0, 0
0, 0
0, 0
0, 0
0, 0
0, 0
0, 0
0, 0
0, 0
0, 0
0, 0
0, 0
0, 0
0, 0
0, 0
0, 0
0, 0
0, 0
0, 0
0, 0
0, 0
0, 0
0, 0
0, 0
0, 0
0, 0
0, 0
0, 0
0, 0
0, 0
0, 0
0, 0
0, 0
0, 0
0, 0
0, 0
0, 0
0, 0
0, 0
0, 0
0, 0
0, 0
0, 0
0, 0
0, 0
0, 0
0, 0
0, 0
0, 0
0, 0
0, 0
0, 0
0, 0
0, 0
0, 0
0, 0
0, 0
0, 0
0, 0
0, 0
0, 0
0, 0
0, 0
0, 0
0, 0
0, 0
0, 0
0, 0
0, 0
0, 0
0, 0
0, 0
0, 0
0, 0
0, 0
0, 0
0, 0
0, 0
0, 0
0, 0
0, 0
0, 0
0, 0
0, 0
0, 0
0, 0
0, 0
0, 0
0, 0
0, 0
0, 0
0, 0
0, 0
0, 0
0, 0
0, 0
0, 0
0, 0
0, 0
0, 0
0, 0
0, 0
0, 0
0, 0
0, 0
0, 0
0, 0
0, 0
0, 0
0, 0
0, 0
0, 0
0, 0
0, 0
0, 0
0, 0
0, 0
0, 0
0, 0
0, 0
0, 0
0, 0
0, 0
0, 0
0, 0
0, 0
0, 0
0, 0
0, 0
0, 0
0, 0
0, 0
0, 0
0, 0
0, 0
0, 0
0, 0
0, 0
0, 0
0, 0
0, 0
0, 0
0, 0
0, 0
0, 0
0, 0
0, 0
0, 0
0, 0
0, 0
0, 0
0, 0
0, 0
0, 0
0, 0
0, 0
0, 0
0, 0
0, 0
0, 0
0, 0
0, 0
0, 0
0, 0
0, 0
0, 0
0, 0
0, 0
0, 0
0, 0
0, 0
0, 0
0, 0
0, 0
0, 0
0, 0
0, 0
0, 0
0, 0
0, 0
0, 0
0, 0
0, 0
0, 0
0, 0
0, 0
0, 0
0, 0
0, 0
0, 0
0, 0
0, 0
0, 0
0, 0
0, 0
0, 0
0, 0
0, 0
0, 0
0, 0
0, 0
0, 0
0, 0
0, 0
0, 0
0, 0
0, 0
0, 0
0, 0
0, 0
0, 0
0, 0
0, 0
0, 0
#ENDOFDATA     end of spectrum data