File: host_upload/06-09-2024/ps_0852/dump3/ps__0852shot_2092.msa
#FORMAT      : EMSA/MAS spectral data file
#VERSION     : TC202v2.0 PIXL
#TITLE       : N/A
#DATE        :       Date in the format DD-MMM-YYYY, for example 07-JUL-2010
#TIME        :             The time of day at which the spectrum was recorded, in 24-hour format
#OWNER       : PIXL Flight Model       (PIXL will use this to indicate which instrument took the data.)
#NPOINTS     : 4096     Number of data points in the spectrum (This can be zero for configuration only files)
#NCOLUMNS    : 2     Number of data columns in the spectrum (This can be zero for configuration only files)
#XUNITS      : eV
#YUNITS      : COUNTS
#DATATYPE    : YY
#XPERCHAN    : 7.862, 7.881   eV per channel (separate by commas if more than one detector)
#OFFSET      : 18.5, -22.4         eV of first channel  (separate by commas if more than one detector
#SIGNALTYPE  : XRF
#YP_TEMP     : 2.62
#LIVETIME    : 8.56134, 8.55689   seconds (separate by commas if more than one detector)
#REALTIME    : 10, 10.0   seconds (separate by commas if more than one detector)
#SPECTRUM    : start of spectrum data
0, 0
0, 0
0, 0
0, 0
0, 0
0, 0
0, 0
0, 0
0, 0
0, 0
0, 0
0, 0
0, 0
0, 0
0, 0
0, 0
0, 0
0, 0
0, 0
0, 0
0, 0
0, 0
0, 0
0, 0
0, 0
0, 0
0, 0
0, 0
0, 0
0, 0
0, 0
0, 0
0, 0
0, 0
0, 1
1, 0
0, 0
0, 0
1, 2
0, 3
2, 0
0, 2
0, 0
1, 2
3, 2
0, 0
2, 1
4, 6
5, 6
16, 14
20, 19
30, 41
51, 65
69, 70
83, 80
73, 72
79, 66
48, 45
25, 34
21, 17
14, 5
8, 6
5, 2
4, 4
5, 1
5, 4
6, 4
13, 13
27, 21
33, 47
98, 111
165, 162
249, 293
338, 366
390, 403
421, 389
364, 390
287, 252
215, 163
126, 118
65, 67
38, 34
25, 14
12, 10
6, 3
1, 5
1, 3
4, 1
0, 2
0, 2
0, 2
0, 2
1, 3
2, 2
5, 3
3, 2
4, 6
8, 7
4, 3
10, 10
5, 4
9, 8
2, 9
3, 8
6, 3
5, 6
5, 10
9, 8
8, 23
11, 22
27, 28
34, 43
41, 68
59, 67
53, 87
60, 101
59, 73
65, 74
38, 63
31, 51
38, 46
31, 32
26, 37
26, 33
18, 25
20, 20
20, 16
12, 9
6, 4
8, 4
8, 9
3, 6
6, 7
3, 4
5, 2
2, 3
3, 0
2, 2
4, 2
1, 2
6, 2
2, 3
3, 1
1, 7
0, 3
1, 1
1, 4
3, 0
1, 3
3, 4
6, 14
4, 9
15, 18
14, 19
16, 23
38, 27
33, 27
36, 26
27, 25
29, 27
28, 11
17, 20
10, 14
5, 7
9, 8
2, 7
5, 7
14, 8
7, 9
7, 6
12, 6
7, 12
8, 8
8, 9
9, 16
14, 12
9, 11
7, 16
12, 8
12, 18
9, 23
7, 30
13, 26
12, 22
7, 24
4, 11
7, 11
7, 14
11, 11
14, 11
21, 4
7, 8
16, 16
10, 20
16, 11
14, 23
14, 16
16, 18
9, 21
24, 16
16, 21
19, 22
7, 11
12, 16
8, 18
6, 17
8, 15
8, 12
7, 16
13, 13
4, 18
11, 7
13, 11
13, 12
10, 8
12, 13
16, 8
16, 3
9, 6
9, 11
2, 4
5, 6
6, 8
9, 9
13, 9
16, 12
22, 13
14, 20
18, 19
22, 29
14, 30
18, 17
24, 19
17, 27
17, 19
16, 10
20, 18
16, 12
13, 18
13, 12
6, 11
13, 15
13, 16
16, 20
28, 17
21, 36
22, 39
41, 39
50, 43
57, 47
60, 64
69, 73
64, 69
62, 60
33, 44
47, 42
35, 24
31, 27
23, 31
32, 39
23, 46
36, 56
50, 52
86, 109
185, 205
270, 373
475, 584
770, 911
1120, 1328
1546, 1736
1980, 2116
2201, 2294
2472, 2311
2371, 2225
2158, 1992
1710, 1550
1341, 1109
980, 737
549, 458
353, 260
218, 131
122, 86
83, 39
33, 27
24, 21
21, 18
16, 13
15, 18
25, 15
26, 30
29, 24
21, 33
45, 48
76, 75
110, 135
148, 176
209, 206
271, 287
322, 355
378, 352
368, 369
361, 323
319, 298
270, 210
197, 146
112, 105
98, 54
76, 31
42, 42
24, 20
25, 9
7, 10
12, 11
8, 15
19, 9
17, 13
17, 10
17, 20
14, 13
10, 23
22, 20
11, 9
12, 11
11, 13
12, 10
9, 5
7, 9
3, 6
5, 5
10, 7
5, 6
2, 4
4, 8
9, 1
5, 5
5, 4
5, 5
7, 4
6, 6
4, 13
5, 10
5, 7
8, 4
6, 14
9, 10
10, 3
5, 5
6, 8
6, 6
8, 8
9, 5
7, 7
10, 10
6, 9
5, 7
2, 6
5, 2
4, 11
2, 3
6, 4
4, 6
9, 4
7, 8
6, 6
8, 10
6, 5
6, 5
6, 5
6, 5
4, 1
5, 3
4, 5
7, 3
3, 10
6, 7
2, 8
0, 2
4, 7
1, 7
4, 6
5, 10
2, 9
2, 4
4, 4
2, 5
8, 7
3, 4
1, 5
3, 8
1, 9
3, 7
4, 3
2, 6
6, 7
7, 6
8, 2
7, 0
4, 5
4, 4
5, 4
4, 6
3, 3
2, 2
7, 4
5, 7
7, 6
4, 6
2, 6
4, 3
2, 1
5, 5
4, 3
4, 6
6, 4
4, 2
2, 4
5, 4
1, 2
2, 0
4, 2
5, 10
2, 7
5, 3
0, 1
2, 1
1, 2
5, 4
5, 8
3, 2
1, 2
4, 9
6, 8
2, 4
3, 1
0, 8
3, 8
4, 4
4, 5
6, 6
3, 7
2, 0
2, 2
2, 0
1, 2
3, 5
4, 1
4, 3
6, 2
3, 2
6, 2
2, 7
4, 6
4, 3
3, 1
4, 7
2, 1
6, 4
5, 4
2, 5
5, 1
3, 1
4, 4
2, 1
3, 2
6, 1
3, 3
2, 0
3, 3
1, 1
2, 3
1, 0
5, 1
4, 3
3, 1
1, 2
2, 1
1, 1
3, 4
3, 1
3, 1
1, 1
3, 4
5, 7
4, 3
2, 5
0, 0
5, 1
4, 1
1, 1
3, 2
1, 2
1, 1
2, 1
1, 4
2, 3
3, 2
3, 2
2, 1
1, 4
3, 0
2, 5
2, 5
1, 4
2, 3
3, 1
3, 1
1, 1
3, 1
5, 3
3, 6
4, 4
1, 0
4, 4
1, 1
4, 3
2, 1
0, 1
3, 3
1, 5
3, 1
3, 0
0, 2
2, 1
4, 2
2, 1
1, 3
2, 3
3, 1
0, 1
2, 0
3, 2
2, 4
3, 2
0, 0
0, 2
2, 5
6, 4
2, 4
1, 4
8, 3
2, 7
0, 3
2, 2
4, 2
6, 2
4, 2
7, 3
3, 6
7, 1
4, 1
2, 2
0, 2
0, 1
0, 3
3, 3
2, 3
1, 1
3, 0
2, 2
2, 0
3, 1
4, 2
1, 3
1, 4
4, 0
2, 4
3, 1
0, 0
1, 4
2, 1
2, 1
1, 0
3, 4
0, 1
2, 1
0, 5
2, 2
1, 1
0, 3
0, 3
3, 1
0, 2
1, 1
0, 1
0, 2
3, 2
1, 1
1, 0
1, 3
0, 2
0, 0
2, 3
0, 1
4, 0
0, 0
0, 3
2, 2
1, 0
1, 1
0, 3
1, 0
0, 0
3, 2
0, 0
1, 0
0, 3
1, 2
1, 1
1, 1
1, 1
5, 1
3, 2
0, 0
0, 0
2, 0
0, 0
1, 2
4, 3
3, 1
2, 0
0, 0
1, 1
0, 1
2, 1
0, 0
1, 0
0, 0
1, 0
2, 1
0, 1
1, 3
2, 0
0, 0
0, 2
0, 0
1, 0
1, 1
0, 0
1, 0
0, 1
2, 3
1, 1
0, 0
2, 0
0, 1
0, 1
0, 1
0, 0
0, 3
3, 0
0, 0
0, 0
0, 1
0, 0
3, 0
1, 1
0, 0
1, 2
0, 0
1, 0
0, 1
0, 0
1, 1
0, 1
0, 0
1, 0
2, 0
0, 0
4, 0
3, 0
0, 0
0, 0
0, 0
0, 1
0, 0
0, 0
0, 0
0, 0
0, 0
0, 0
0, 1
0, 0
1, 0
1, 1
0, 0
0, 0
0, 0
0, 1
2, 1
1, 0
1, 0
1, 0
0, 0
0, 1
0, 1
0, 0
0, 1
0, 1
0, 0
0, 0
1, 1
0, 1
0, 0
0, 0
0, 1
0, 2
0, 1
0, 0
0, 1
1, 0
0, 0
1, 0
0, 0
0, 0
0, 0
0, 1
0, 0
0, 1
0, 0
0, 0
0, 0
0, 0
0, 0
0, 0
0, 0
0, 1
0, 0
1, 0
0, 0
1, 0
2, 0
2, 0
1, 0
0, 0
1, 1
0, 0
0, 0
0, 0
0, 0
1, 0
0, 0
0, 0
0, 0
0, 0
1, 1
0, 0
0, 0
0, 0
0, 0
0, 0
0, 1
0, 0
0, 0
0, 0
0, 0
0, 0
0, 0
0, 0
0, 0
0, 0
0, 0
1, 0
0, 0
1, 1
0, 0
1, 0
0, 0
0, 1
0, 0
1, 1
0, 0
0, 0
0, 0
0, 1
1, 0
0, 1
0, 0
0, 0
0, 0
1, 0
2, 0
0, 0
0, 0
0, 0
0, 0
0, 0
0, 0
0, 0
0, 0
1, 1
1, 0
0, 2
0, 0
0, 0
0, 0
0, 0
1, 0
1, 0
0, 1
0, 0
1, 0
0, 0
0, 0
0, 0
0, 0
0, 0
1, 0
0, 0
0, 0
0, 0
0, 0
0, 0
0, 0
0, 0
0, 0
0, 0
0, 0
0, 0
0, 0
0, 0
0, 0
2, 0
0, 0
0, 0
0, 0
0, 0
0, 0
0, 0
0, 0
0, 1
0, 0
0, 0
0, 0
0, 0
1, 0
0, 0
0, 0
1, 0
0, 0
1, 0
0, 0
0, 0
0, 0
0, 0
0, 0
0, 0
0, 0
0, 0
0, 0
0, 0
0, 0
0, 1
2, 0
0, 0
0, 1
0, 1
0, 2
0, 0
0, 1
0, 0
0, 0
0, 0
0, 0
0, 0
0, 0
1, 0
0, 0
0, 0
0, 0
0, 0
0, 0
0, 0
0, 0
0, 0
1, 0
0, 0
0, 0
0, 0
0, 0
0, 0
0, 0
0, 0
0, 0
1, 0
0, 0
0, 1
0, 0
0, 0
0, 0
0, 0
0, 0
0, 0
0, 0
0, 0
0, 0
0, 0
0, 0
0, 0
0, 0
0, 0
0, 0
0, 0
0, 0
0, 0
0, 0
1, 0
1, 0
0, 0
0, 0
0, 0
0, 0
0, 0
0, 0
0, 0
1, 0
0, 0
0, 0
0, 0
0, 0
1, 0
0, 0
0, 0
0, 0
0, 0
0, 0
0, 0
0, 0
0, 0
0, 0
0, 0
0, 0
0, 0
0, 0
0, 0
0, 0
0, 0
0, 0
0, 1
0, 0
0, 0
0, 0
0, 0
0, 0
0, 0
0, 0
1, 0
0, 0
0, 0
0, 0
0, 0
0, 0
0, 0
0, 1
0, 0
0, 0
0, 0
0, 0
0, 0
0, 0
0, 0
0, 0
0, 0
0, 0
0, 0
0, 0
0, 0
0, 0
0, 0
0, 0
0, 0
0, 0
0, 0
0, 0
0, 0
0, 0
0, 0
0, 0
0, 0
0, 0
0, 0
0, 0
0, 0
0, 0
0, 0
0, 0
0, 0
0, 0
0, 0
1, 0
0, 0
0, 0
0, 0
0, 0
0, 0
0, 0
0, 0
0, 0
0, 0
0, 0
0, 0
0, 0
0, 0
0, 0
0, 0
0, 0
0, 0
0, 0
0, 0
0, 0
0, 0
0, 0
0, 0
0, 0
0, 0
0, 0
0, 0
0, 0
0, 0
0, 0
0, 0
0, 0
0, 0
0, 0
0, 0
0, 0
0, 0
0, 0
0, 0
0, 0
0, 0
0, 0
0, 0
0, 0
0, 0
0, 0
0, 0
0, 0
0, 0
0, 0
0, 0
0, 0
0, 0
0, 0
0, 0
0, 0
0, 0
0, 0
0, 0
0, 0
0, 0
0, 0
0, 0
0, 0
0, 0
0, 0
0, 0
0, 0
0, 0
0, 0
0, 0
0, 0
0, 0
0, 0
0, 0
0, 0
0, 0
0, 0
0, 0
0, 0
0, 0
0, 0
0, 0
0, 0
0, 0
0, 0
0, 0
0, 0
0, 0
0, 0
0, 0
0, 0
0, 0
0, 0
0, 0
0, 0
0, 0
0, 0
0, 0
0, 0
0, 0
0, 0
0, 0
0, 0
0, 0
0, 0
0, 0
0, 0
0, 0
0, 0
0, 0
0, 0
0, 0
0, 0
0, 0
0, 0
0, 0
0, 0
0, 0
0, 0
0, 0
0, 0
0, 0
0, 0
0, 0
0, 0
0, 0
0, 0
0, 0
0, 0
0, 0
0, 0
0, 0
0, 0
0, 0
0, 0
0, 0
0, 0
0, 0
0, 0
0, 0
0, 0
0, 0
0, 0
0, 0
0, 0
0, 0
0, 0
0, 0
0, 0
0, 0
0, 0
0, 0
0, 0
0, 0
0, 0
0, 0
0, 0
0, 0
0, 0
0, 0
0, 0
0, 0
0, 0
0, 0
0, 0
0, 0
0, 0
0, 0
0, 0
0, 0
0, 0
0, 0
0, 0
0, 0
0, 0
0, 0
0, 0
0, 0
0, 0
0, 0
0, 0
0, 0
0, 0
0, 0
0, 0
0, 0
0, 0
0, 0
0, 0
0, 0
0, 0
0, 0
0, 0
0, 0
0, 0
0, 0
0, 0
0, 0
0, 0
0, 0
0, 0
0, 0
0, 0
0, 0
0, 0
0, 0
0, 0
0, 0
0, 0
0, 0
0, 0
0, 0
0, 0
0, 0
0, 0
0, 0
0, 0
0, 0
0, 0
0, 0
0, 0
0, 0
0, 0
0, 0
0, 0
0, 0
0, 0
0, 0
0, 0
0, 0
0, 0
0, 0
0, 0
0, 0
0, 0
0, 0
0, 0
0, 0
0, 0
0, 0
0, 0
0, 0
0, 0
0, 0
0, 0
0, 0
0, 0
0, 0
0, 0
0, 0
0, 0
0, 0
0, 0
0, 0
0, 0
0, 0
0, 0
0, 0
0, 0
0, 0
0, 0
0, 0
0, 0
0, 0
0, 0
0, 0
0, 0
0, 0
0, 0
0, 0
0, 0
0, 0
0, 0
0, 0
0, 0
0, 0
0, 0
0, 0
0, 0
0, 0
0, 0
0, 0
0, 0
0, 0
0, 0
0, 0
0, 0
0, 0
0, 0
0, 0
0, 0
0, 0
0, 0
0, 0
0, 0
0, 0
0, 0
0, 0
0, 0
0, 0
0, 0
0, 0
0, 0
0, 0
0, 0
0, 0
0, 0
0, 0
0, 0
0, 0
0, 0
0, 0
0, 0
0, 0
0, 0
0, 0
0, 0
0, 0
0, 0
0, 0
0, 0
0, 0
0, 0
0, 0
0, 0
0, 0
0, 0
0, 0
0, 0
0, 0
0, 0
0, 0
0, 0
0, 0
0, 0
0, 0
0, 0
0, 0
0, 0
0, 0
0, 0
0, 0
0, 0
0, 0
0, 0
0, 0
0, 0
0, 0
0, 0
0, 0
0, 0
0, 0
0, 0
0, 0
0, 0
0, 0
0, 0
0, 0
0, 0
0, 0
0, 0
0, 0
0, 0
0, 0
0, 0
0, 0
0, 0
0, 0
0, 0
0, 0
0, 0
0, 0
0, 0
0, 0
0, 0
0, 0
#ENDOFDATA     end of spectrum data