File: host_upload/06-09-2024/ps_0852/dump3/ps__0852shot_2209.msa
#FORMAT      : EMSA/MAS spectral data file
#VERSION     : TC202v2.0 PIXL
#TITLE       : N/A
#DATE        :       Date in the format DD-MMM-YYYY, for example 07-JUL-2010
#TIME        :             The time of day at which the spectrum was recorded, in 24-hour format
#OWNER       : PIXL Flight Model       (PIXL will use this to indicate which instrument took the data.)
#NPOINTS     : 4096     Number of data points in the spectrum (This can be zero for configuration only files)
#NCOLUMNS    : 2     Number of data columns in the spectrum (This can be zero for configuration only files)
#XUNITS      : eV
#YUNITS      : COUNTS
#DATATYPE    : YY
#XPERCHAN    : 7.862, 7.881   eV per channel (separate by commas if more than one detector)
#OFFSET      : 18.5, -22.4         eV of first channel  (separate by commas if more than one detector
#SIGNALTYPE  : XRF
#YP_TEMP     : 2.396
#LIVETIME    : 8.55351, 8.5667   seconds (separate by commas if more than one detector)
#REALTIME    : 10, 10.0   seconds (separate by commas if more than one detector)
#SPECTRUM    : start of spectrum data
0, 0
0, 0
0, 0
0, 0
0, 0
0, 0
0, 0
0, 0
0, 0
0, 0
0, 0
0, 0
0, 0
0, 0
0, 0
0, 0
0, 0
0, 0
0, 0
0, 0
0, 0
0, 0
0, 0
0, 0
0, 0
0, 0
0, 0
0, 0
0, 0
0, 0
0, 0
0, 0
0, 1
0, 0
0, 0
0, 0
0, 0
1, 1
0, 1
1, 0
0, 1
2, 0
1, 0
0, 2
1, 0
0, 1
5, 0
4, 2
8, 5
15, 17
22, 14
46, 47
66, 61
88, 81
92, 83
68, 86
65, 60
38, 36
36, 27
16, 16
9, 8
4, 7
1, 3
2, 4
1, 3
3, 2
3, 7
7, 7
20, 16
40, 57
87, 105
187, 174
273, 249
326, 354
403, 430
436, 399
382, 406
307, 282
197, 193
121, 145
64, 71
32, 28
23, 7
6, 5
7, 7
3, 3
3, 1
2, 0
1, 3
1, 1
1, 5
2, 0
1, 1
1, 1
1, 0
3, 2
2, 3
3, 2
5, 1
2, 2
1, 4
2, 2
3, 2
1, 2
7, 5
5, 4
6, 3
8, 7
15, 8
10, 7
17, 9
25, 19
24, 17
28, 28
38, 22
36, 27
28, 29
31, 22
27, 22
24, 16
19, 20
16, 19
23, 14
18, 8
16, 12
19, 16
17, 9
16, 12
10, 6
3, 7
3, 6
4, 8
5, 2
4, 1
2, 3
3, 0
1, 1
5, 2
1, 2
1, 0
3, 3
3, 0
2, 0
0, 4
1, 0
0, 4
0, 6
3, 2
1, 3
2, 5
3, 10
3, 12
4, 8
6, 17
8, 26
14, 16
13, 24
9, 18
14, 21
15, 26
10, 9
12, 5
7, 7
2, 4
6, 2
2, 4
5, 2
0, 3
4, 2
2, 0
2, 1
2, 2
8, 6
5, 4
2, 1
2, 4
4, 1
4, 1
5, 6
7, 2
11, 1
21, 0
27, 3
20, 3
41, 2
35, 4
24, 4
29, 3
26, 4
28, 8
17, 5
18, 6
14, 7
20, 8
10, 10
17, 5
15, 14
16, 15
17, 16
15, 15
18, 17
19, 9
11, 12
8, 9
6, 4
9, 5
4, 3
13, 0
13, 6
12, 7
8, 8
19, 4
19, 8
21, 4
19, 6
14, 6
14, 10
8, 4
11, 10
4, 7
1, 12
5, 6
8, 7
5, 8
11, 14
7, 14
10, 21
10, 9
16, 23
8, 30
12, 22
9, 31
16, 42
10, 30
9, 28
6, 31
10, 25
13, 17
13, 14
14, 14
16, 20
23, 8
29, 10
37, 6
56, 14
54, 29
64, 31
86, 44
81, 57
92, 49
90, 64
87, 61
68, 62
59, 40
49, 48
47, 34
18, 21
21, 13
13, 10
21, 19
30, 13
32, 25
54, 51
93, 103
179, 197
281, 320
471, 609
717, 940
1095, 1393
1547, 1771
1883, 2227
2198, 2558
2326, 2522
2342, 2305
2030, 2102
1706, 1586
1325, 1157
890, 762
621, 483
333, 283
196, 174
93, 78
60, 48
32, 43
22, 16
13, 14
13, 9
17, 14
19, 20
18, 23
34, 36
21, 33
52, 65
68, 97
104, 126
138, 156
210, 225
256, 342
306, 337
317, 335
330, 347
323, 338
256, 278
259, 211
187, 163
153, 126
77, 70
58, 38
35, 31
38, 11
21, 13
14, 9
15, 8
18, 11
16, 8
23, 10
24, 12
20, 14
21, 14
17, 24
25, 10
23, 12
15, 2
13, 5
13, 7
7, 8
7, 2
7, 10
5, 2
2, 1
5, 5
5, 3
4, 3
3, 3
4, 4
6, 2
2, 3
3, 3
0, 3
1, 5
3, 3
1, 5
6, 3
4, 6
3, 3
6, 5
3, 7
3, 7
4, 6
3, 3
5, 6
6, 7
7, 4
13, 2
8, 4
3, 4
5, 0
6, 2
4, 6
5, 6
5, 4
2, 7
9, 5
11, 6
15, 7
4, 8
17, 2
15, 5
11, 8
14, 7
8, 5
15, 8
15, 5
5, 13
7, 15
6, 11
3, 10
6, 8
3, 10
4, 9
3, 10
3, 4
2, 9
3, 3
3, 5
2, 1
3, 4
3, 2
6, 4
6, 3
3, 2
7, 11
5, 1
4, 4
3, 3
3, 4
3, 1
4, 4
2, 4
1, 2
4, 1
0, 4
1, 2
3, 4
2, 3
2, 3
1, 3
1, 5
3, 4
4, 1
2, 5
3, 3
3, 3
0, 6
1, 2
3, 5
0, 5
1, 3
5, 4
4, 4
7, 6
1, 2
6, 7
2, 2
3, 4
7, 5
7, 2
7, 5
6, 2
6, 7
10, 8
13, 6
7, 7
11, 15
6, 13
8, 14
9, 8
6, 13
6, 6
7, 5
6, 10
3, 4
1, 3
2, 7
2, 1
0, 5
0, 6
2, 2
4, 3
2, 7
0, 3
3, 4
0, 2
2, 2
1, 1
2, 5
3, 3
5, 6
6, 6
2, 4
3, 7
1, 3
0, 3
1, 3
1, 9
3, 5
3, 2
2, 5
1, 3
2, 8
4, 5
5, 2
2, 3
1, 0
5, 4
2, 0
1, 1
2, 3
4, 3
3, 2
3, 0
2, 2
1, 6
2, 2
3, 4
3, 3
5, 5
3, 0
2, 1
6, 3
3, 2
5, 2
4, 3
5, 1
5, 2
2, 3
6, 2
3, 4
3, 1
5, 2
2, 2
1, 4
3, 2
2, 6
1, 0
3, 4
1, 2
2, 1
1, 2
0, 2
2, 2
0, 2
3, 0
1, 1
0, 3
1, 1
0, 3
1, 2
2, 2
1, 2
2, 5
1, 2
1, 4
1, 6
2, 4
1, 2
1, 5
0, 3
3, 6
1, 6
0, 1
1, 1
4, 5
1, 2
3, 2
0, 5
4, 2
1, 3
2, 3
1, 4
3, 3
6, 4
4, 6
2, 2
5, 1
5, 7
4, 7
6, 3
1, 2
3, 2
0, 1
2, 1
3, 4
2, 1
3, 1
3, 2
5, 1
2, 2
3, 1
3, 3
2, 2
0, 2
2, 3
5, 3
0, 0
2, 2
2, 0
4, 1
2, 2
3, 2
2, 2
0, 1
3, 2
2, 3
4, 0
1, 0
2, 1
0, 2
1, 1
2, 2
1, 2
1, 0
1, 0
0, 1
0, 1
2, 1
1, 3
1, 3
3, 0
0, 0
1, 1
1, 2
5, 0
1, 1
6, 1
3, 1
1, 0
0, 0
1, 0
1, 0
1, 0
0, 2
1, 1
0, 3
0, 0
1, 0
2, 1
0, 2
0, 1
3, 1
2, 0
0, 3
3, 0
1, 1
2, 2
0, 1
2, 3
0, 1
0, 1
0, 2
3, 2
1, 0
1, 1
1, 1
0, 1
0, 3
1, 1
3, 0
1, 1
1, 1
0, 0
0, 3
1, 0
0, 0
0, 0
1, 0
1, 0
0, 1
1, 0
1, 1
0, 0
2, 1
0, 0
1, 2
1, 1
2, 0
0, 1
0, 1
1, 0
1, 0
0, 1
0, 0
0, 0
0, 0
0, 0
0, 0
0, 0
0, 1
0, 0
0, 1
2, 1
1, 3
1, 0
2, 0
0, 0
1, 1
0, 1
2, 2
0, 0
1, 3
1, 1
0, 1
1, 1
0, 0
0, 1
0, 0
0, 1
0, 1
1, 1
1, 0
0, 1
0, 0
0, 0
2, 2
1, 0
0, 2
1, 3
2, 0
0, 1
0, 0
2, 0
0, 1
1, 0
2, 0
0, 0
0, 0
1, 0
1, 0
0, 0
1, 1
0, 2
0, 0
0, 0
0, 0
0, 1
0, 0
0, 1
1, 1
0, 0
0, 0
0, 0
0, 0
0, 0
1, 0
1, 1
0, 1
0, 0
1, 0
0, 0
0, 1
0, 0
0, 0
1, 0
0, 0
1, 0
0, 1
1, 0
0, 0
0, 0
0, 2
0, 0
0, 1
0, 0
0, 0
1, 0
0, 0
0, 0
1, 0
0, 0
0, 0
0, 0
1, 0
0, 0
0, 0
0, 0
0, 0
0, 0
0, 0
1, 0
0, 1
1, 0
1, 0
0, 0
0, 0
0, 0
1, 0
0, 0
0, 0
0, 0
0, 0
0, 0
0, 0
0, 1
0, 0
0, 3
0, 0
0, 2
0, 0
0, 0
0, 0
0, 0
0, 0
0, 0
0, 1
0, 1
0, 0
0, 0
0, 1
1, 0
1, 0
0, 0
0, 0
0, 0
0, 1
0, 0
1, 0
0, 0
0, 0
0, 1
0, 1
1, 0
0, 0
1, 0
0, 0
0, 0
0, 1
2, 1
1, 0
0, 0
0, 1
0, 1
0, 0
0, 0
1, 1
1, 0
0, 0
0, 0
0, 1
0, 0
0, 0
0, 1
0, 0
0, 0
0, 0
0, 0
0, 0
0, 0
0, 0
0, 1
0, 1
1, 0
1, 0
1, 0
0, 1
0, 0
0, 0
0, 1
0, 0
0, 1
0, 0
0, 0
0, 0
0, 0
0, 0
0, 0
0, 0
0, 0
0, 0
0, 0
0, 2
0, 0
0, 0
0, 0
0, 0
0, 0
0, 0
0, 0
0, 0
0, 0
0, 0
0, 0
0, 0
0, 0
0, 0
1, 0
0, 1
0, 0
0, 0
0, 0
1, 0
1, 0
0, 0
2, 0
0, 0
0, 0
0, 0
0, 0
0, 0
0, 0
0, 0
0, 1
0, 0
0, 0
0, 0
0, 0
0, 0
0, 0
0, 0
0, 1
0, 0
0, 0
0, 0
0, 0
0, 0
0, 0
0, 0
0, 0
0, 0
0, 0
0, 1
0, 0
0, 0
0, 0
0, 0
0, 0
0, 0
0, 0
0, 0
0, 0
0, 0
0, 0
0, 0
0, 0
0, 0
0, 0
0, 0
1, 0
0, 0
0, 0
0, 0
0, 0
0, 0
0, 0
0, 0
0, 0
0, 0
0, 0
0, 0
0, 0
0, 0
0, 0
0, 0
0, 0
0, 0
0, 0
0, 0
0, 0
0, 0
1, 0
0, 0
0, 0
0, 0
0, 0
0, 0
0, 0
0, 0
0, 0
0, 0
0, 0
0, 1
0, 0
1, 0
0, 0
0, 0
0, 0
0, 0
0, 0
0, 0
0, 0
0, 0
0, 0
0, 0
0, 0
0, 0
0, 0
0, 0
0, 0
0, 0
0, 0
1, 0
0, 0
1, 0
0, 0
0, 0
0, 0
0, 0
0, 0
0, 0
1, 0
0, 0
0, 0
0, 0
0, 2
0, 0
0, 0
0, 0
0, 0
0, 0
0, 0
0, 0
0, 0
0, 0
0, 0
0, 0
0, 0
0, 0
0, 0
0, 0
0, 0
0, 0
0, 0
0, 0
0, 0
0, 0
0, 0
0, 0
0, 0
0, 0
0, 0
0, 0
0, 0
0, 0
0, 0
0, 0
0, 0
0, 0
0, 0
0, 0
0, 0
0, 0
0, 0
0, 0
0, 0
0, 0
0, 0
0, 0
0, 0
0, 0
0, 0
0, 0
0, 0
0, 0
0, 0
0, 0
0, 0
0, 0
0, 0
0, 0
0, 0
0, 0
0, 0
0, 0
0, 0
0, 0
0, 0
0, 0
0, 0
0, 0
0, 0
0, 0
0, 0
0, 0
0, 0
0, 0
0, 0
0, 0
0, 0
0, 0
0, 0
0, 0
0, 0
0, 0
0, 0
0, 0
0, 0
0, 0
0, 0
0, 0
0, 0
0, 0
0, 0
0, 0
0, 0
0, 0
0, 0
0, 0
0, 0
0, 0
0, 0
0, 0
0, 0
0, 0
0, 0
0, 0
0, 0
0, 0
0, 0
0, 0
0, 0
0, 0
0, 0
0, 0
0, 0
0, 0
0, 0
0, 0
0, 0
0, 0
0, 0
0, 0
0, 0
0, 0
0, 0
0, 0
0, 0
0, 0
0, 0
0, 0
0, 0
0, 0
0, 0
0, 0
0, 0
0, 0
0, 0
0, 0
0, 0
0, 0
0, 0
0, 0
0, 0
0, 0
0, 0
0, 0
0, 0
0, 0
0, 0
0, 0
0, 0
0, 0
0, 0
0, 0
0, 0
0, 0
0, 0
0, 0
0, 0
0, 0
0, 0
0, 0
0, 0
0, 0
0, 0
0, 0
0, 0
0, 0
0, 0
0, 0
0, 0
0, 0
0, 0
0, 0
0, 0
0, 0
0, 0
0, 0
0, 0
0, 0
0, 0
0, 0
0, 0
0, 0
0, 0
0, 0
0, 0
0, 0
0, 0
0, 0
0, 0
0, 0
0, 0
0, 0
0, 0
0, 0
0, 0
0, 0
0, 0
0, 0
0, 0
0, 0
0, 0
0, 0
0, 0
0, 0
0, 0
0, 0
0, 0
0, 0
0, 0
0, 0
0, 0
0, 0
0, 0
0, 0
0, 0
0, 0
0, 0
0, 0
0, 0
0, 0
0, 0
0, 0
0, 0
0, 0
0, 0
0, 0
0, 0
0, 0
0, 0
0, 0
0, 0
0, 0
0, 0
0, 0
0, 0
0, 0
0, 0
0, 0
0, 0
0, 0
0, 0
0, 0
0, 0
0, 0
0, 0
0, 0
0, 0
0, 0
0, 0
0, 0
0, 0
0, 0
0, 0
0, 0
0, 0
0, 0
0, 0
0, 0
0, 0
0, 0
0, 0
0, 0
0, 0
0, 0
0, 0
0, 0
0, 0
0, 0
0, 0
0, 0
0, 0
0, 0
0, 0
0, 0
0, 0
0, 0
0, 0
0, 0
0, 0
0, 0
0, 0
0, 0
0, 0
0, 0
0, 0
0, 0
0, 0
0, 0
0, 0
0, 0
0, 0
0, 0
0, 0
0, 0
0, 0
0, 0
0, 0
0, 0
0, 0
0, 0
0, 0
0, 0
0, 0
0, 0
0, 0
0, 0
0, 0
0, 0
0, 0
0, 0
0, 0
0, 0
0, 0
0, 0
0, 0
0, 0
0, 0
0, 0
0, 0
0, 0
0, 0
0, 0
0, 0
0, 0
0, 0
0, 0
0, 0
0, 0
0, 0
0, 0
0, 0
0, 0
0, 0
0, 0
0, 0
0, 0
0, 0
0, 0
0, 0
0, 0
0, 0
0, 0
0, 0
0, 0
0, 0
0, 0
0, 0
0, 0
0, 0
0, 0
0, 0
0, 0
0, 0
0, 0
0, 0
0, 0
0, 0
0, 0
0, 0
0, 0
0, 0
0, 0
0, 0
0, 0
0, 0
0, 0
0, 0
0, 0
0, 0
0, 0
0, 0
0, 0
0, 0
0, 0
0, 0
0, 0
0, 0
0, 0
0, 0
0, 0
0, 0
0, 0
0, 0
0, 0
0, 0
0, 0
0, 0
0, 0
0, 0
0, 0
0, 0
0, 0
0, 0
0, 0
0, 0
0, 0
#ENDOFDATA     end of spectrum data