File: host_upload/06-09-2024/ps_0852/dump3/ps__0852shot_2448.msa
#FORMAT      : EMSA/MAS spectral data file
#VERSION     : TC202v2.0 PIXL
#TITLE       : N/A
#DATE        :       Date in the format DD-MMM-YYYY, for example 07-JUL-2010
#TIME        :             The time of day at which the spectrum was recorded, in 24-hour format
#OWNER       : PIXL Flight Model       (PIXL will use this to indicate which instrument took the data.)
#NPOINTS     : 4096     Number of data points in the spectrum (This can be zero for configuration only files)
#NCOLUMNS    : 2     Number of data columns in the spectrum (This can be zero for configuration only files)
#XUNITS      : eV
#YUNITS      : COUNTS
#DATATYPE    : YY
#XPERCHAN    : 7.862, 7.881   eV per channel (separate by commas if more than one detector)
#OFFSET      : 18.5, -22.4         eV of first channel  (separate by commas if more than one detector
#SIGNALTYPE  : XRF
#YP_TEMP     : 2.3
#LIVETIME    : 8.55544, 8.55676   seconds (separate by commas if more than one detector)
#REALTIME    : 10, 10.0   seconds (separate by commas if more than one detector)
#SPECTRUM    : start of spectrum data
0, 0
0, 0
0, 0
0, 0
0, 0
0, 0
0, 0
0, 0
0, 0
0, 0
0, 0
0, 0
0, 0
0, 0
0, 0
0, 0
0, 0
0, 0
0, 0
0, 0
0, 0
0, 0
0, 0
0, 0
0, 0
0, 0
0, 0
0, 0
0, 0
0, 0
0, 0
0, 0
0, 0
0, 0
0, 0
0, 0
1, 0
1, 0
2, 1
1, 3
5, 0
3, 0
1, 2
0, 0
2, 1
3, 2
1, 1
2, 1
13, 2
4, 11
17, 15
48, 26
56, 37
66, 66
74, 69
66, 63
46, 36
39, 20
19, 19
12, 14
6, 5
8, 2
6, 1
4, 4
2, 2
6, 2
7, 4
11, 5
20, 19
35, 37
78, 78
154, 137
280, 212
310, 269
348, 336
388, 347
295, 269
281, 219
181, 137
108, 102
68, 49
37, 30
21, 13
8, 12
6, 6
4, 7
6, 6
6, 5
5, 5
6, 3
5, 2
5, 8
17, 9
25, 24
53, 49
75, 82
117, 110
138, 150
181, 197
187, 190
149, 148
136, 121
98, 100
67, 69
41, 48
33, 28
17, 24
23, 24
18, 23
27, 33
50, 43
60, 48
73, 60
63, 56
68, 58
75, 67
55, 51
57, 41
38, 36
39, 33
35, 24
28, 21
26, 20
12, 20
16, 14
13, 16
18, 16
16, 7
15, 13
11, 9
9, 3
4, 5
9, 4
2, 5
5, 4
2, 3
3, 4
6, 5
4, 4
3, 9
4, 4
8, 4
4, 8
2, 4
4, 0
2, 1
4, 2
3, 0
1, 4
1, 5
2, 5
4, 5
11, 8
15, 7
21, 10
26, 26
34, 33
33, 28
25, 23
18, 27
21, 23
13, 13
15, 15
8, 6
4, 14
5, 19
3, 13
5, 11
3, 17
7, 10
13, 15
5, 9
9, 8
9, 13
2, 8
5, 6
6, 5
6, 8
8, 8
4, 8
2, 4
1, 4
4, 10
4, 6
3, 6
4, 4
5, 4
5, 6
2, 10
10, 5
7, 4
9, 4
15, 16
13, 10
9, 14
8, 13
17, 12
17, 10
10, 17
13, 17
11, 21
11, 12
12, 23
6, 28
15, 22
9, 24
8, 25
17, 20
10, 21
8, 27
7, 12
6, 9
9, 9
11, 9
8, 5
13, 3
9, 7
11, 7
10, 7
12, 5
9, 7
6, 7
10, 8
9, 5
9, 11
14, 8
16, 13
17, 9
16, 22
19, 24
18, 25
21, 33
16, 36
20, 45
14, 43
12, 42
7, 40
8, 37
9, 26
12, 22
5, 32
6, 13
11, 15
13, 15
16, 13
11, 19
34, 24
27, 29
49, 46
62, 58
60, 77
62, 70
64, 55
51, 48
59, 38
37, 33
24, 36
26, 45
21, 42
19, 46
23, 66
41, 86
52, 98
95, 145
179, 221
263, 327
479, 583
757, 861
1120, 1278
1544, 1637
2000, 1990
2242, 2206
2388, 2266
2430, 2158
2151, 1798
1782, 1456
1327, 1008
921, 647
603, 403
340, 239
216, 132
120, 90
63, 40
42, 23
26, 17
28, 13
24, 13
22, 15
20, 17
17, 20
31, 19
29, 30
57, 51
77, 62
101, 105
130, 175
199, 225
244, 255
320, 289
313, 338
376, 351
376, 299
318, 244
266, 209
195, 142
153, 94
81, 65
44, 42
44, 21
17, 20
12, 20
15, 9
13, 15
15, 11
8, 10
14, 12
16, 19
15, 11
14, 16
19, 11
13, 13
11, 11
8, 8
6, 9
4, 8
4, 7
8, 10
3, 7
4, 12
5, 9
4, 10
9, 6
5, 7
7, 7
4, 3
8, 3
5, 6
6, 2
7, 6
7, 4
12, 4
13, 5
6, 10
8, 7
6, 3
6, 8
7, 8
3, 7
3, 7
6, 6
9, 7
2, 3
7, 8
7, 6
2, 5
4, 3
7, 5
3, 5
4, 4
5, 5
3, 6
5, 2
5, 5
6, 4
7, 2
9, 2
6, 3
9, 5
4, 8
4, 2
7, 3
4, 4
3, 2
5, 5
6, 2
5, 2
6, 2
3, 2
4, 3
5, 3
7, 4
2, 3
7, 2
3, 5
3, 5
2, 4
0, 1
4, 3
5, 3
2, 4
9, 1
11, 5
7, 2
9, 1
10, 3
8, 1
14, 5
8, 1
14, 6
18, 6
10, 4
6, 1
12, 4
8, 1
11, 2
11, 4
7, 3
3, 3
4, 0
6, 4
3, 8
3, 7
5, 6
12, 2
13, 3
9, 3
5, 1
9, 2
9, 4
7, 3
7, 4
9, 2
6, 1
5, 2
2, 3
4, 2
5, 1
4, 3
2, 5
5, 6
2, 0
3, 4
3, 4
2, 4
2, 3
4, 5
2, 2
4, 4
0, 1
3, 2
4, 3
2, 2
4, 2
2, 2
0, 3
3, 3
1, 4
3, 1
4, 0
4, 1
4, 2
3, 3
1, 0
1, 3
2, 4
2, 3
3, 1
1, 3
2, 3
3, 5
3, 0
7, 3
7, 2
4, 3
7, 5
2, 4
6, 10
4, 4
4, 3
4, 9
7, 4
1, 5
6, 4
2, 4
5, 3
1, 1
3, 5
7, 1
1, 1
2, 2
1, 4
6, 1
2, 2
3, 3
5, 2
4, 4
1, 3
0, 2
0, 1
2, 3
2, 3
4, 0
2, 0
4, 3
5, 0
4, 3
3, 1
3, 1
5, 3
3, 0
0, 0
1, 1
2, 6
0, 1
2, 0
3, 3
1, 2
1, 3
4, 3
3, 1
4, 3
3, 2
0, 0
0, 0
3, 1
1, 1
0, 1
0, 1
0, 4
1, 3
1, 2
1, 2
3, 5
1, 3
0, 2
4, 3
2, 3
1, 2
2, 1
1, 1
1, 2
2, 1
0, 0
3, 3
2, 1
2, 3
2, 2
1, 3
0, 3
1, 5
3, 4
6, 4
5, 2
3, 6
3, 4
7, 5
7, 2
4, 1
5, 2
5, 5
2, 2
0, 2
0, 1
1, 2
4, 0
6, 3
0, 0
2, 0
1, 0
1, 0
4, 1
1, 2
3, 4
2, 1
2, 5
2, 0
1, 3
1, 1
2, 3
5, 1
1, 0
1, 4
0, 1
0, 3
1, 1
1, 1
2, 0
1, 0
0, 0
4, 3
2, 1
3, 1
1, 2
1, 1
1, 0
1, 3
3, 1
5, 4
4, 0
0, 0
2, 3
2, 0
2, 1
0, 0
1, 1
2, 0
0, 1
0, 3
0, 0
2, 2
3, 2
1, 1
3, 2
0, 0
0, 2
4, 1
2, 1
1, 2
1, 2
2, 0
1, 2
0, 0
1, 2
1, 1
0, 1
2, 2
1, 0
0, 1
0, 2
1, 1
0, 0
1, 1
0, 2
2, 0
1, 1
0, 1
0, 0
0, 0
2, 1
1, 0
0, 1
3, 2
4, 0
0, 0
1, 0
1, 1
1, 0
1, 3
0, 0
1, 4
2, 0
0, 1
0, 0
0, 1
0, 1
0, 0
0, 0
0, 0
0, 0
0, 1
0, 0
0, 0
0, 0
0, 2
1, 2
3, 0
0, 0
4, 0
0, 0
0, 1
0, 1
0, 1
0, 0
1, 0
2, 0
0, 1
0, 0
0, 0
2, 1
2, 0
0, 0
0, 0
0, 0
1, 0
0, 0
1, 0
0, 0
1, 1
0, 0
1, 0
0, 2
1, 0
0, 0
1, 0
1, 1
0, 0
1, 1
0, 0
0, 0
0, 0
0, 0
1, 0
0, 0
1, 1
0, 1
0, 1
1, 0
0, 0
0, 0
0, 0
0, 0
0, 1
1, 1
1, 0
1, 1
0, 0
1, 0
0, 1
0, 0
0, 0
0, 0
1, 0
0, 0
1, 1
2, 0
0, 2
0, 0
0, 1
0, 1
0, 0
0, 0
0, 0
0, 0
1, 0
0, 0
1, 0
0, 0
0, 0
0, 0
0, 0
0, 0
0, 1
0, 0
0, 0
0, 0
0, 1
1, 0
0, 0
1, 0
2, 1
0, 0
1, 1
0, 0
0, 0
0, 0
0, 0
0, 0
0, 0
0, 0
0, 0
0, 0
0, 0
0, 1
0, 0
1, 0
0, 0
0, 0
0, 0
0, 0
0, 0
0, 0
0, 1
1, 1
1, 0
0, 0
0, 0
0, 0
0, 1
0, 0
0, 0
0, 0
0, 0
0, 2
0, 0
0, 0
0, 1
0, 0
0, 1
1, 0
0, 1
0, 0
0, 0
0, 0
0, 1
1, 0
0, 0
0, 1
0, 0
0, 0
0, 1
0, 0
0, 0
1, 0
0, 1
0, 0
0, 0
0, 0
0, 0
0, 2
0, 0
0, 1
0, 0
0, 0
0, 0
1, 0
1, 0
0, 0
1, 1
0, 0
1, 0
0, 0
0, 0
0, 0
1, 0
0, 0
0, 0
0, 0
0, 0
0, 0
0, 1
0, 0
0, 1
0, 0
0, 0
0, 0
0, 0
0, 2
0, 0
0, 0
0, 1
0, 0
0, 0
0, 0
0, 0
0, 0
1, 0
0, 0
0, 0
0, 0
0, 0
0, 0
0, 0
0, 0
1, 0
0, 0
0, 0
0, 0
0, 0
0, 0
0, 0
0, 0
0, 0
0, 0
0, 0
1, 0
2, 0
0, 0
0, 0
0, 0
0, 0
0, 0
0, 1
0, 0
0, 0
0, 1
0, 0
0, 0
0, 0
0, 0
0, 0
0, 0
0, 0
0, 0
0, 0
0, 0
0, 0
0, 0
0, 0
0, 0
0, 0
0, 0
1, 0
0, 0
1, 0
0, 1
0, 0
0, 0
0, 0
0, 0
0, 0
0, 0
0, 0
0, 0
0, 0
0, 0
0, 0
0, 0
0, 0
0, 0
0, 0
0, 0
0, 0
0, 0
0, 0
0, 0
0, 0
0, 0
0, 0
0, 1
0, 0
0, 1
0, 0
0, 0
0, 0
1, 0
0, 0
0, 0
0, 0
0, 0
0, 0
0, 0
0, 0
0, 0
0, 0
0, 0
0, 0
0, 0
0, 0
0, 0
0, 0
0, 0
0, 0
0, 0
0, 0
1, 0
0, 0
0, 0
0, 0
0, 0
0, 0
0, 0
0, 0
0, 0
0, 0
0, 0
0, 0
0, 0
0, 0
0, 0
0, 0
0, 0
0, 0
0, 0
0, 0
0, 0
0, 0
0, 0
0, 0
0, 0
0, 0
0, 0
0, 0
0, 0
0, 0
0, 0
0, 0
0, 0
0, 0
0, 0
0, 0
0, 0
0, 0
0, 0
0, 0
0, 0
0, 0
0, 0
0, 0
0, 0
0, 0
0, 0
0, 0
0, 0
0, 0
0, 0
0, 0
0, 0
0, 0
0, 0
0, 0
0, 0
0, 0
0, 0
0, 0
0, 0
0, 0
0, 0
0, 0
0, 0
0, 0
0, 0
0, 0
0, 0
0, 0
0, 0
0, 0
0, 0
0, 0
0, 0
0, 0
0, 0
0, 0
0, 0
0, 0
0, 0
0, 0
0, 0
0, 0
0, 0
0, 0
0, 0
1, 0
0, 0
0, 0
0, 0
0, 0
0, 0
0, 0
0, 0
0, 0
0, 0
0, 0
0, 0
0, 0
0, 0
0, 0
0, 0
0, 0
0, 0
0, 0
0, 0
0, 0
0, 0
0, 0
0, 0
0, 0
0, 0
0, 0
0, 0
0, 0
0, 0
0, 0
0, 0
0, 0
0, 0
0, 0
0, 0
0, 0
0, 0
0, 0
0, 0
0, 0
0, 0
0, 0
0, 0
0, 0
0, 0
0, 0
0, 0
0, 0
0, 0
0, 0
0, 0
0, 0
0, 0
0, 0
0, 0
0, 0
0, 0
0, 0
0, 0
0, 0
0, 0
0, 0
0, 0
0, 0
0, 0
0, 0
0, 0
0, 0
0, 0
0, 0
0, 0
0, 0
0, 0
0, 0
0, 0
0, 0
0, 0
0, 0
0, 0
0, 0
0, 0
0, 0
0, 0
0, 0
0, 0
0, 0
0, 0
0, 0
0, 0
0, 0
0, 0
0, 0
0, 0
0, 0
0, 0
0, 0
0, 0
0, 0
0, 0
0, 0
0, 0
0, 0
0, 0
0, 0
0, 0
0, 0
0, 0
0, 0
0, 0
0, 0
0, 0
0, 0
0, 0
0, 0
0, 0
0, 0
0, 0
0, 0
0, 0
0, 0
0, 0
0, 0
0, 0
0, 0
0, 0
0, 0
0, 0
0, 0
0, 0
0, 0
0, 0
0, 0
0, 0
0, 0
0, 0
0, 0
0, 0
0, 0
0, 0
0, 0
0, 0
0, 0
0, 0
0, 0
0, 0
0, 0
0, 0
0, 0
0, 0
0, 0
0, 0
0, 0
0, 0
0, 0
0, 0
0, 0
0, 0
0, 0
0, 0
0, 0
0, 0
0, 0
0, 0
0, 0
0, 0
0, 0
0, 0
0, 0
0, 0
0, 0
0, 0
0, 0
0, 0
0, 0
0, 0
0, 0
0, 0
0, 0
0, 0
0, 0
0, 0
0, 0
0, 0
0, 0
0, 0
0, 0
0, 0
0, 0
0, 0
0, 0
0, 0
0, 0
0, 0
0, 0
0, 0
0, 0
0, 0
0, 0
0, 0
0, 0
0, 0
0, 0
0, 0
0, 0
0, 0
0, 0
0, 0
0, 0
0, 0
0, 0
0, 0
0, 0
0, 0
0, 0
0, 0
0, 0
0, 0
0, 0
0, 0
0, 0
0, 0
0, 0
0, 0
0, 0
0, 0
0, 0
0, 0
0, 0
0, 0
0, 0
0, 0
0, 0
0, 0
0, 0
0, 0
0, 0
0, 0
0, 0
0, 0
0, 0
0, 0
0, 0
0, 0
0, 0
0, 0
0, 0
0, 0
0, 0
0, 0
0, 0
0, 0
0, 0
0, 0
0, 0
0, 0
0, 0
0, 0
0, 0
0, 0
0, 0
0, 0
0, 0
0, 0
0, 0
0, 0
0, 0
0, 0
0, 0
0, 0
0, 0
0, 0
0, 0
0, 0
0, 0
0, 0
0, 0
0, 0
0, 0
0, 0
0, 0
0, 0
0, 0
0, 0
0, 0
0, 0
0, 0
0, 0
0, 0
0, 0
0, 0
0, 0
0, 0
0, 0
0, 0
0, 0
0, 0
0, 0
0, 0
0, 0
0, 0
0, 0
0, 0
0, 0
0, 0
0, 0
0, 0
0, 0
0, 0
0, 0
0, 0
0, 0
0, 0
0, 0
0, 0
0, 0
0, 0
0, 0
0, 0
0, 0
0, 0
0, 0
0, 0
0, 0
0, 0
0, 0
0, 0
0, 0
0, 0
0, 0
0, 0
0, 0
0, 0
0, 0
0, 0
0, 0
0, 0
0, 0
0, 0
0, 0
0, 0
0, 0
0, 0
0, 0
0, 0
#ENDOFDATA     end of spectrum data