File: host_upload/06-09-2024/ps_0852/dump3/ps__0852shot_2072.msa
#FORMAT      : EMSA/MAS spectral data file
#VERSION     : TC202v2.0 PIXL
#TITLE       : N/A
#DATE        :       Date in the format DD-MMM-YYYY, for example 07-JUL-2010
#TIME        :             The time of day at which the spectrum was recorded, in 24-hour format
#OWNER       : PIXL Flight Model       (PIXL will use this to indicate which instrument took the data.)
#NPOINTS     : 4096     Number of data points in the spectrum (This can be zero for configuration only files)
#NCOLUMNS    : 2     Number of data columns in the spectrum (This can be zero for configuration only files)
#XUNITS      : eV
#YUNITS      : COUNTS
#DATATYPE    : YY
#XPERCHAN    : 7.862, 7.881   eV per channel (separate by commas if more than one detector)
#OFFSET      : 18.5, -22.4         eV of first channel  (separate by commas if more than one detector
#SIGNALTYPE  : XRF
#YP_TEMP     : 2.428
#LIVETIME    : 8.55999, 8.56337   seconds (separate by commas if more than one detector)
#REALTIME    : 10, 10.0   seconds (separate by commas if more than one detector)
#SPECTRUM    : start of spectrum data
0, 0
0, 0
0, 0
0, 0
0, 0
0, 0
0, 0
0, 0
0, 0
0, 0
0, 0
0, 0
0, 0
0, 0
0, 0
0, 0
0, 0
0, 0
0, 0
0, 0
0, 0
0, 0
0, 0
0, 0
0, 0
0, 0
0, 0
0, 0
0, 0
0, 0
0, 0
0, 0
1, 0
0, 0
0, 0
1, 0
0, 0
2, 0
1, 0
1, 0
1, 3
1, 2
1, 2
1, 2
1, 2
0, 0
1, 3
3, 0
9, 5
11, 11
18, 19
27, 44
65, 52
77, 77
73, 76
66, 74
66, 54
48, 37
29, 22
11, 12
7, 9
5, 9
4, 5
5, 3
9, 5
2, 3
8, 3
15, 6
25, 22
47, 50
85, 94
187, 164
250, 233
384, 336
426, 380
429, 404
360, 341
336, 292
200, 194
138, 129
73, 60
43, 36
21, 21
12, 12
9, 7
2, 1
0, 2
1, 1
0, 1
1, 1
2, 5
1, 1
6, 5
5, 2
9, 4
11, 12
3, 9
15, 17
23, 17
16, 16
16, 14
10, 4
7, 9
10, 9
7, 5
5, 4
8, 7
11, 7
11, 7
15, 17
17, 23
35, 33
43, 50
64, 51
65, 73
74, 63
67, 65
61, 53
56, 48
58, 43
39, 33
42, 32
54, 21
34, 37
30, 26
29, 25
17, 21
22, 9
6, 14
8, 4
5, 8
5, 5
4, 4
5, 1
4, 5
2, 3
4, 1
2, 0
2, 1
1, 4
3, 6
2, 3
3, 5
9, 2
3, 5
4, 2
6, 8
5, 3
12, 2
9, 6
12, 7
18, 13
9, 14
23, 17
30, 25
45, 41
42, 36
49, 46
51, 29
45, 36
26, 21
16, 7
16, 12
15, 4
2, 10
10, 8
9, 10
3, 12
7, 6
11, 10
7, 10
15, 9
16, 10
9, 1
4, 6
7, 11
4, 12
10, 9
5, 9
8, 15
13, 7
9, 6
9, 6
7, 6
2, 7
7, 9
8, 12
6, 18
15, 16
4, 22
18, 23
13, 29
10, 31
12, 33
13, 21
12, 30
18, 19
16, 23
25, 19
14, 20
13, 11
13, 14
13, 16
12, 12
6, 8
4, 7
6, 12
12, 8
6, 7
7, 12
5, 6
7, 4
7, 13
11, 7
11, 9
16, 12
11, 4
7, 11
7, 6
7, 6
8, 5
4, 6
4, 9
8, 5
8, 6
6, 14
13, 23
10, 15
23, 16
14, 23
17, 24
20, 10
20, 23
29, 15
19, 11
25, 18
22, 10
16, 13
20, 13
20, 14
17, 14
12, 11
12, 15
23, 17
20, 30
24, 35
32, 30
48, 34
49, 40
58, 62
78, 72
71, 75
63, 45
48, 45
64, 60
63, 48
41, 28
31, 20
35, 28
19, 24
30, 20
34, 35
49, 68
80, 110
167, 198
279, 343
488, 582
790, 866
1193, 1301
1582, 1753
2010, 1968
2250, 2367
2474, 2274
2336, 2167
2189, 1825
1772, 1443
1422, 1113
995, 759
631, 463
362, 249
222, 154
113, 79
59, 44
38, 31
36, 16
22, 20
12, 21
12, 24
22, 23
20, 25
19, 36
34, 52
62, 59
59, 94
98, 130
148, 155
225, 252
247, 301
317, 333
369, 357
326, 342
347, 323
304, 255
253, 205
192, 170
143, 108
85, 59
80, 30
32, 20
26, 12
26, 15
11, 8
5, 6
12, 12
11, 14
10, 15
15, 12
10, 11
14, 12
18, 9
16, 17
10, 12
14, 10
12, 8
7, 5
14, 7
7, 6
3, 3
5, 8
9, 4
3, 1
12, 6
5, 12
6, 4
7, 4
11, 6
9, 5
7, 1
8, 6
11, 8
5, 6
9, 8
8, 4
5, 4
8, 13
4, 8
6, 12
8, 5
4, 17
5, 15
4, 9
8, 8
10, 9
11, 9
10, 9
8, 1
8, 6
2, 7
9, 5
5, 0
7, 9
5, 10
8, 3
3, 6
6, 8
5, 8
7, 8
6, 6
5, 3
4, 8
7, 4
6, 2
3, 5
2, 7
7, 4
4, 5
3, 1
4, 1
6, 4
4, 3
8, 2
1, 7
6, 7
3, 5
6, 5
10, 4
3, 4
13, 2
5, 7
3, 4
3, 4
3, 6
5, 7
8, 7
8, 9
9, 4
5, 6
4, 7
3, 6
7, 7
5, 6
5, 5
4, 4
3, 8
3, 3
7, 8
5, 0
9, 7
4, 3
4, 2
4, 6
4, 5
2, 3
0, 2
3, 5
5, 2
5, 1
6, 6
1, 2
5, 1
3, 0
5, 3
4, 2
2, 3
4, 4
1, 1
4, 1
7, 4
3, 1
8, 5
5, 3
8, 1
3, 2
4, 2
5, 2
2, 3
4, 0
5, 5
2, 0
2, 1
4, 3
3, 1
7, 1
3, 4
1, 0
3, 2
3, 4
4, 1
1, 5
3, 2
0, 3
2, 2
3, 0
3, 3
2, 2
2, 0
4, 3
6, 4
2, 2
5, 3
2, 1
0, 2
4, 4
4, 2
2, 1
3, 4
3, 4
1, 0
3, 5
3, 5
1, 3
4, 3
4, 1
2, 2
6, 3
1, 2
2, 3
4, 2
2, 3
1, 2
5, 1
4, 2
0, 2
5, 3
4, 3
3, 3
1, 2
2, 1
1, 0
0, 1
4, 1
0, 4
7, 3
3, 3
5, 0
4, 3
3, 1
3, 2
5, 1
4, 4
2, 2
3, 4
3, 0
0, 4
2, 2
5, 3
2, 5
2, 2
4, 2
3, 5
0, 3
2, 2
5, 2
2, 1
1, 0
1, 3
0, 1
2, 1
0, 1
3, 6
2, 1
2, 1
2, 0
4, 2
4, 2
4, 1
0, 2
3, 0
2, 1
1, 3
4, 3
3, 5
4, 2
0, 3
1, 2
1, 5
2, 4
3, 1
3, 1
5, 3
5, 6
4, 3
6, 5
6, 4
4, 3
8, 8
2, 6
6, 5
1, 1
1, 1
4, 4
3, 2
2, 3
3, 0
5, 0
5, 0
2, 2
0, 1
1, 1
2, 4
3, 2
1, 3
2, 2
4, 2
3, 1
4, 0
2, 2
4, 2
0, 1
1, 1
6, 2
1, 1
3, 0
1, 2
3, 2
1, 2
1, 1
1, 2
0, 2
1, 1
2, 1
3, 1
0, 1
1, 1
2, 0
0, 1
0, 1
1, 2
2, 1
1, 2
3, 1
1, 0
0, 0
0, 2
1, 1
2, 0
0, 0
1, 0
1, 1
0, 1
1, 1
0, 2
4, 2
2, 2
1, 0
0, 0
0, 0
1, 0
1, 1
2, 1
0, 1
1, 3
1, 0
0, 1
0, 0
1, 2
2, 0
1, 1
2, 2
1, 1
1, 0
1, 1
0, 0
1, 0
4, 0
0, 2
0, 1
2, 2
1, 1
0, 1
1, 0
1, 1
0, 1
0, 0
0, 1
4, 2
0, 0
1, 0
1, 1
0, 0
3, 1
1, 2
3, 2
2, 0
0, 0
2, 0
2, 1
0, 2
1, 2
1, 0
0, 1
1, 0
0, 1
1, 0
0, 0
2, 0
2, 0
1, 1
0, 0
1, 1
0, 1
1, 1
0, 1
0, 1
1, 0
0, 0
1, 1
0, 0
1, 0
0, 0
1, 0
1, 0
1, 1
0, 1
1, 0
1, 1
1, 1
1, 0
0, 0
0, 0
1, 0
1, 0
1, 0
0, 0
0, 0
1, 0
0, 0
0, 0
0, 1
0, 0
1, 1
0, 1
2, 0
0, 0
0, 0
0, 0
0, 0
0, 0
0, 0
2, 0
0, 1
0, 0
0, 0
2, 0
0, 0
1, 2
0, 0
1, 1
0, 0
0, 1
1, 0
0, 0
0, 1
0, 1
0, 1
0, 1
0, 0
0, 0
0, 0
0, 0
0, 0
0, 1
0, 1
0, 0
1, 2
0, 3
1, 1
0, 1
0, 0
1, 0
0, 1
0, 0
0, 0
2, 0
1, 0
2, 0
1, 0
1, 0
0, 0
1, 0
0, 1
0, 0
1, 0
1, 0
0, 0
0, 1
1, 0
0, 0
0, 1
0, 1
1, 0
0, 0
0, 0
0, 0
0, 0
0, 0
0, 0
0, 0
1, 0
1, 0
0, 0
0, 0
2, 0
0, 0
0, 0
0, 1
0, 0
0, 1
0, 2
0, 0
0, 0
0, 0
0, 1
1, 1
0, 1
0, 0
1, 0
1, 1
2, 0
0, 0
0, 0
1, 1
0, 0
0, 1
0, 1
0, 0
0, 0
0, 0
0, 0
0, 1
0, 0
0, 0
1, 0
0, 0
0, 0
2, 1
1, 2
1, 0
0, 0
0, 1
0, 0
0, 0
0, 0
0, 0
0, 0
0, 0
0, 0
1, 0
0, 0
1, 1
1, 0
0, 0
0, 0
0, 0
0, 0
0, 0
0, 0
0, 0
0, 1
0, 0
0, 0
1, 0
0, 0
0, 0
0, 0
0, 0
0, 0
0, 0
0, 0
0, 0
1, 1
0, 0
2, 0
0, 0
0, 0
0, 0
0, 0
0, 1
0, 1
0, 0
0, 0
0, 0
0, 0
0, 1
0, 0
0, 1
0, 0
0, 0
0, 0
1, 0
0, 0
0, 0
0, 0
0, 0
0, 0
0, 0
0, 0
0, 0
0, 0
0, 0
0, 0
0, 0
0, 0
0, 0
0, 0
0, 0
0, 0
0, 0
0, 0
0, 0
0, 1
0, 0
0, 0
1, 0
0, 0
0, 0
0, 0
0, 0
0, 0
0, 0
0, 0
0, 0
0, 0
0, 1
0, 0
0, 0
0, 0
0, 0
0, 0
0, 0
0, 0
0, 0
0, 0
0, 0
0, 0
0, 0
1, 0
0, 0
0, 0
0, 0
0, 0
0, 0
0, 0
0, 0
0, 0
0, 0
0, 0
0, 0
0, 0
0, 0
0, 0
1, 0
0, 1
0, 0
0, 0
0, 0
0, 0
0, 0
0, 0
0, 0
0, 0
0, 0
0, 0
0, 0
0, 0
0, 0
0, 0
0, 0
0, 0
0, 0
0, 0
0, 0
0, 0
0, 0
0, 0
0, 0
0, 0
0, 0
0, 0
0, 0
0, 0
0, 0
0, 1
1, 0
0, 0
1, 0
0, 0
0, 0
0, 0
1, 0
0, 0
0, 0
0, 0
0, 0
0, 0
0, 0
0, 0
0, 0
0, 0
0, 0
0, 0
0, 0
0, 0
0, 0
0, 0
0, 0
0, 0
0, 0
0, 0
0, 0
0, 0
0, 0
0, 0
0, 0
0, 0
0, 0
0, 0
0, 0
0, 0
0, 0
0, 0
0, 0
0, 0
0, 0
0, 0
0, 0
0, 0
0, 0
0, 0
0, 0
0, 0
0, 0
0, 0
0, 0
0, 0
0, 1
0, 0
0, 0
0, 0
0, 0
0, 0
0, 0
0, 0
0, 0
0, 0
0, 0
0, 0
0, 0
1, 0
0, 0
0, 0
0, 0
0, 0
0, 0
0, 0
0, 0
0, 0
0, 0
0, 0
0, 0
0, 0
0, 0
0, 0
0, 0
0, 0
0, 0
0, 0
0, 0
0, 0
0, 0
0, 0
0, 0
0, 0
0, 0
0, 0
0, 0
0, 0
0, 0
0, 0
0, 0
0, 0
0, 0
0, 0
0, 0
0, 0
0, 0
0, 0
0, 0
0, 0
0, 0
0, 0
0, 0
0, 0
0, 0
0, 0
0, 0
0, 0
0, 0
0, 0
0, 0
0, 0
0, 0
0, 0
0, 0
0, 0
0, 0
0, 0
0, 0
0, 1
0, 0
0, 0
0, 0
0, 0
0, 0
0, 0
0, 0
0, 0
0, 0
0, 0
0, 0
0, 0
0, 0
0, 0
0, 0
0, 0
0, 0
0, 0
0, 0
0, 0
0, 0
0, 0
0, 0
0, 0
0, 0
0, 0
0, 0
0, 0
0, 0
0, 0
0, 0
0, 0
0, 0
0, 0
0, 0
0, 0
0, 0
0, 0
0, 0
0, 0
0, 0
0, 0
0, 0
0, 0
0, 0
0, 0
0, 0
1, 0
0, 0
0, 0
0, 0
0, 0
0, 0
0, 0
0, 0
0, 0
0, 0
0, 0
0, 0
0, 0
0, 0
0, 0
0, 0
0, 0
0, 0
0, 0
0, 0
0, 0
0, 0
0, 0
0, 0
0, 0
0, 0
0, 0
0, 0
0, 0
0, 0
0, 0
0, 0
0, 0
0, 0
0, 0
0, 0
0, 0
0, 0
0, 0
0, 0
0, 0
0, 0
0, 0
0, 0
0, 0
0, 0
0, 0
0, 0
0, 0
0, 0
0, 0
0, 0
0, 0
0, 0
0, 0
0, 0
0, 0
0, 0
0, 0
0, 0
0, 0
0, 0
0, 0
0, 0
0, 0
0, 0
0, 0
0, 0
0, 0
0, 0
0, 0
0, 0
0, 0
0, 0
0, 0
0, 0
0, 0
0, 0
0, 0
0, 0
0, 0
0, 0
0, 0
0, 0
0, 0
0, 0
0, 0
0, 0
0, 0
0, 0
0, 0
0, 0
0, 0
0, 0
0, 0
0, 0
0, 0
0, 0
0, 0
0, 0
0, 0
0, 0
0, 0
0, 0
0, 0
0, 0
0, 0
0, 0
0, 0
0, 0
0, 0
0, 0
0, 0
0, 0
0, 0
0, 0
0, 0
0, 0
0, 0
0, 0
0, 0
0, 0
0, 0
0, 0
0, 0
0, 0
0, 0
0, 0
0, 0
0, 0
0, 0
0, 0
0, 0
0, 0
0, 0
0, 0
0, 0
0, 0
0, 0
0, 0
0, 0
0, 0
0, 0
0, 0
0, 0
0, 0
0, 0
0, 0
0, 0
0, 0
0, 0
0, 0
0, 0
0, 0
0, 0
0, 0
0, 0
0, 0
0, 0
0, 0
0, 0
0, 0
0, 0
0, 0
0, 0
0, 0
0, 0
0, 0
0, 0
0, 0
0, 0
0, 0
0, 0
0, 0
0, 0
0, 0
0, 0
0, 0
0, 0
0, 0
0, 0
0, 0
0, 0
0, 0
0, 0
0, 0
0, 0
0, 0
0, 0
0, 0
0, 0
0, 0
0, 0
0, 0
0, 0
0, 0
0, 0
0, 0
0, 0
0, 0
0, 0
0, 0
0, 0
0, 0
0, 0
0, 0
0, 0
0, 0
0, 0
0, 0
0, 0
0, 0
0, 0
0, 0
0, 0
0, 0
0, 0
0, 0
0, 0
0, 0
0, 0
0, 0
0, 0
0, 0
0, 0
0, 0
0, 0
0, 0
0, 0
0, 0
0, 0
0, 0
0, 0
0, 0
0, 0
0, 0
0, 0
0, 0
0, 0
0, 0
0, 0
0, 0
0, 0
0, 0
0, 0
0, 0
0, 0
0, 0
0, 0
0, 0
#ENDOFDATA     end of spectrum data