File: host_upload/06-09-2024/ps_0852/dump3/ps__0852shot_2325.msa
#FORMAT      : EMSA/MAS spectral data file
#VERSION     : TC202v2.0 PIXL
#TITLE       : N/A
#DATE        :       Date in the format DD-MMM-YYYY, for example 07-JUL-2010
#TIME        :             The time of day at which the spectrum was recorded, in 24-hour format
#OWNER       : PIXL Flight Model       (PIXL will use this to indicate which instrument took the data.)
#NPOINTS     : 4096     Number of data points in the spectrum (This can be zero for configuration only files)
#NCOLUMNS    : 2     Number of data columns in the spectrum (This can be zero for configuration only files)
#XUNITS      : eV
#YUNITS      : COUNTS
#DATATYPE    : YY
#XPERCHAN    : 7.862, 7.881   eV per channel (separate by commas if more than one detector)
#OFFSET      : 18.5, -22.4         eV of first channel  (separate by commas if more than one detector
#SIGNALTYPE  : XRF
#YP_TEMP     : 2.267
#LIVETIME    : 8.57302, 8.54519   seconds (separate by commas if more than one detector)
#REALTIME    : 10, 10.0   seconds (separate by commas if more than one detector)
#SPECTRUM    : start of spectrum data
0, 0
0, 0
0, 0
0, 0
0, 0
0, 0
0, 0
0, 0
0, 0
0, 0
0, 0
0, 0
0, 0
0, 0
0, 0
0, 0
0, 0
0, 0
0, 0
0, 0
0, 0
0, 0
0, 0
0, 0
0, 0
0, 0
0, 0
0, 0
0, 0
0, 0
0, 0
0, 0
0, 0
0, 0
0, 0
0, 1
0, 0
0, 1
1, 0
1, 1
0, 0
2, 3
0, 0
1, 1
2, 1
0, 0
3, 3
6, 1
8, 7
8, 16
25, 26
56, 41
78, 53
79, 84
94, 67
81, 65
61, 53
46, 40
24, 20
25, 9
8, 3
3, 1
2, 0
5, 3
6, 2
4, 2
11, 2
11, 9
20, 17
46, 36
112, 100
191, 172
286, 255
376, 334
450, 361
479, 382
386, 346
308, 241
216, 175
128, 93
81, 65
39, 18
16, 12
12, 9
2, 6
1, 4
0, 4
1, 2
3, 0
2, 2
3, 0
3, 1
2, 0
1, 2
1, 0
3, 0
5, 0
3, 1
2, 0
4, 2
2, 1
4, 0
4, 2
0, 2
5, 1
3, 3
3, 2
4, 3
5, 7
12, 5
10, 15
23, 16
29, 27
22, 25
30, 30
32, 28
40, 43
35, 31
25, 25
22, 20
36, 19
34, 18
23, 17
20, 12
19, 15
20, 17
9, 12
11, 10
7, 6
8, 10
5, 7
3, 4
1, 7
2, 3
5, 3
0, 2
1, 3
1, 0
1, 3
2, 1
5, 1
3, 2
1, 1
1, 4
3, 2
1, 1
4, 1
4, 3
6, 2
9, 5
10, 2
19, 3
24, 7
22, 6
23, 12
33, 14
38, 9
28, 9
23, 19
22, 9
11, 16
12, 9
5, 6
3, 8
1, 2
3, 6
4, 5
2, 3
4, 3
7, 2
7, 4
8, 3
6, 5
2, 3
9, 3
4, 2
9, 6
7, 3
2, 6
5, 1
9, 7
6, 4
9, 4
3, 6
7, 7
4, 4
6, 4
5, 6
6, 6
9, 13
6, 9
12, 13
21, 13
8, 15
13, 13
15, 20
16, 16
17, 15
12, 13
18, 17
18, 4
11, 7
9, 10
20, 9
7, 7
5, 7
6, 2
9, 4
7, 4
5, 5
6, 6
2, 5
7, 6
3, 6
10, 3
3, 6
10, 6
11, 5
7, 8
7, 6
8, 4
7, 8
12, 16
20, 20
18, 15
40, 24
35, 43
57, 51
67, 55
105, 69
78, 83
86, 67
89, 54
86, 60
68, 32
55, 32
44, 18
32, 28
27, 18
21, 21
18, 30
17, 20
14, 21
25, 19
25, 18
26, 12
46, 35
49, 32
78, 46
65, 54
97, 82
91, 64
68, 57
76, 69
63, 52
48, 33
38, 36
25, 23
23, 20
16, 14
32, 22
25, 31
46, 46
86, 92
143, 183
293, 313
456, 569
785, 875
1141, 1213
1646, 1659
2045, 1969
2381, 2180
2527, 2192
2525, 2093
2281, 1777
1810, 1396
1332, 1020
942, 656
598, 406
356, 245
202, 116
126, 50
62, 36
41, 24
23, 18
13, 13
15, 17
20, 20
22, 27
21, 17
25, 24
34, 39
65, 47
72, 78
118, 101
147, 153
206, 217
246, 249
334, 282
384, 344
379, 338
359, 292
306, 241
263, 179
213, 127
134, 106
95, 57
53, 25
51, 30
32, 10
9, 15
22, 9
16, 7
15, 12
8, 16
11, 7
18, 19
13, 14
13, 10
17, 14
13, 13
15, 10
14, 9
5, 7
3, 7
8, 7
3, 1
9, 3
3, 4
8, 4
8, 1
2, 2
7, 3
5, 1
9, 4
10, 4
4, 7
7, 4
5, 4
5, 3
5, 6
8, 6
6, 2
8, 6
7, 8
3, 11
8, 6
15, 6
9, 4
8, 8
4, 4
3, 3
10, 4
7, 3
4, 7
3, 7
8, 6
4, 4
3, 4
2, 5
4, 8
4, 4
3, 6
2, 3
11, 5
4, 3
6, 5
3, 4
5, 3
7, 3
6, 4
5, 4
3, 4
5, 5
10, 4
3, 4
3, 2
3, 3
2, 2
2, 3
8, 5
3, 4
6, 6
4, 9
3, 8
5, 13
1, 20
1, 18
9, 20
5, 15
2, 15
6, 22
4, 15
3, 13
5, 6
5, 12
1, 9
6, 2
9, 4
4, 5
4, 2
1, 2
7, 4
3, 4
5, 2
2, 4
1, 4
6, 6
1, 4
6, 6
1, 5
7, 8
4, 4
4, 8
5, 9
0, 4
3, 8
2, 5
1, 7
3, 2
2, 1
2, 4
2, 5
2, 2
3, 1
3, 0
2, 3
4, 6
3, 2
4, 3
3, 1
1, 4
3, 0
3, 0
4, 0
3, 5
2, 2
2, 2
4, 7
5, 2
2, 7
3, 6
6, 6
2, 5
2, 2
1, 6
3, 4
4, 4
3, 2
5, 3
3, 1
5, 0
5, 2
3, 0
4, 2
2, 3
5, 1
2, 2
1, 3
7, 2
0, 1
4, 4
2, 3
5, 4
5, 1
3, 0
3, 3
4, 3
2, 5
12, 2
5, 1
5, 3
7, 1
3, 2
3, 1
2, 2
1, 5
2, 4
0, 1
3, 2
5, 5
2, 3
3, 6
6, 2
2, 3
2, 2
3, 2
6, 2
4, 0
6, 3
3, 1
1, 5
3, 2
1, 1
3, 4
5, 2
3, 2
1, 2
1, 4
6, 1
1, 2
4, 1
2, 3
2, 3
2, 3
4, 1
1, 6
0, 3
4, 3
5, 2
0, 2
0, 2
2, 0
0, 2
1, 2
3, 1
3, 2
5, 6
3, 0
1, 3
5, 3
5, 1
3, 1
2, 3
6, 2
3, 2
3, 2
3, 1
4, 2
2, 3
2, 2
2, 4
3, 0
4, 1
2, 3
4, 4
2, 1
4, 3
2, 2
9, 1
2, 3
5, 2
4, 5
4, 5
4, 5
3, 2
4, 2
0, 0
1, 4
3, 2
1, 3
3, 1
2, 3
3, 3
1, 1
0, 0
2, 1
1, 2
1, 2
3, 0
2, 1
2, 1
2, 1
0, 2
1, 1
1, 1
1, 1
3, 1
3, 0
3, 1
1, 1
4, 1
2, 2
1, 2
0, 1
2, 1
2, 0
0, 3
2, 3
0, 1
1, 0
0, 1
2, 1
1, 2
2, 1
2, 0
1, 0
0, 3
0, 3
1, 0
0, 0
0, 0
1, 0
0, 2
1, 1
1, 1
0, 2
2, 0
1, 1
1, 2
1, 3
1, 0
0, 1
2, 0
0, 1
0, 1
1, 1
0, 0
1, 0
2, 0
1, 3
0, 1
1, 1
0, 1
1, 0
1, 0
2, 2
2, 0
1, 1
0, 1
1, 1
2, 1
0, 1
0, 2
0, 0
0, 0
0, 1
0, 0
0, 0
1, 0
1, 1
0, 0
2, 0
1, 0
2, 1
0, 0
0, 1
0, 0
2, 0
1, 0
1, 1
0, 1
1, 0
2, 0
0, 2
1, 3
0, 0
0, 1
0, 0
4, 0
0, 1
1, 3
2, 0
2, 1
2, 0
0, 0
0, 1
0, 0
0, 0
0, 0
1, 0
1, 1
0, 0
0, 1
0, 1
0, 0
1, 1
0, 0
0, 0
0, 1
0, 1
1, 1
0, 0
0, 0
0, 0
0, 0
0, 0
0, 1
0, 1
0, 0
0, 1
1, 1
1, 2
2, 1
1, 1
0, 0
1, 0
0, 0
0, 0
1, 0
0, 0
0, 0
1, 0
1, 0
1, 0
0, 1
0, 0
0, 0
0, 0
2, 0
1, 0
0, 0
0, 0
0, 1
0, 1
0, 0
0, 0
0, 0
0, 0
4, 0
0, 0
0, 1
0, 0
0, 0
0, 0
1, 0
0, 0
0, 3
0, 0
3, 1
0, 0
0, 0
0, 0
0, 0
0, 0
0, 0
0, 1
0, 0
0, 0
0, 0
0, 0
0, 1
0, 0
0, 0
1, 0
0, 0
0, 0
0, 0
0, 1
0, 0
0, 1
0, 0
0, 1
0, 1
0, 0
0, 0
0, 1
1, 0
1, 1
0, 0
0, 0
0, 0
0, 0
0, 0
0, 0
0, 0
0, 0
0, 0
0, 1
0, 2
0, 0
0, 0
0, 0
0, 0
0, 0
0, 0
1, 0
0, 0
0, 0
0, 1
0, 0
0, 0
0, 0
0, 0
0, 1
0, 0
0, 0
1, 1
0, 0
1, 1
1, 0
0, 0
0, 1
0, 0
0, 0
1, 0
0, 0
0, 0
0, 1
1, 0
0, 0
0, 1
0, 0
0, 0
0, 0
0, 0
1, 1
0, 0
0, 0
0, 0
0, 0
0, 0
0, 0
0, 0
0, 0
0, 0
0, 0
0, 0
0, 0
0, 0
0, 0
0, 0
0, 0
0, 0
0, 0
0, 0
0, 0
0, 0
1, 0
0, 0
0, 0
0, 1
0, 0
1, 0
0, 0
0, 0
0, 0
0, 0
0, 1
0, 0
0, 0
0, 0
0, 1
0, 0
0, 0
0, 0
0, 0
0, 0
0, 1
0, 0
0, 0
0, 1
0, 0
1, 0
0, 0
0, 0
1, 0
1, 0
0, 0
1, 0
0, 0
0, 0
0, 0
0, 0
0, 0
0, 0
0, 0
0, 0
0, 0
0, 0
0, 1
0, 1
0, 0
1, 0
0, 0
0, 0
0, 0
1, 0
0, 0
0, 0
0, 0
0, 0
0, 0
0, 0
0, 0
0, 0
0, 0
0, 0
0, 0
0, 1
0, 0
0, 0
0, 0
0, 0
0, 0
0, 0
0, 0
0, 0
0, 0
0, 0
0, 0
0, 0
0, 0
0, 0
0, 0
0, 0
0, 0
0, 0
1, 0
0, 0
0, 0
0, 0
0, 0
0, 0
0, 0
0, 1
0, 0
0, 0
0, 0
1, 0
0, 0
0, 0
0, 0
0, 0
0, 0
0, 0
0, 1
0, 0
0, 0
0, 0
1, 0
0, 1
0, 0
0, 0
1, 0
0, 0
0, 1
0, 0
0, 0
0, 0
0, 0
0, 0
0, 0
0, 0
0, 0
0, 0
0, 0
0, 0
0, 0
0, 0
0, 0
0, 0
0, 0
0, 0
0, 0
0, 0
0, 0
0, 0
0, 0
0, 0
0, 0
0, 0
0, 0
0, 0
0, 0
0, 0
0, 0
0, 0
0, 0
0, 0
0, 0
0, 0
0, 0
0, 0
0, 0
0, 0
0, 0
0, 1
0, 0
0, 0
0, 0
0, 0
0, 0
0, 0
0, 0
0, 0
0, 0
0, 0
0, 0
0, 0
0, 0
0, 0
0, 0
0, 0
0, 0
0, 0
0, 0
0, 0
0, 0
0, 0
0, 0
0, 0
0, 0
0, 0
0, 0
0, 0
0, 0
0, 0
0, 0
0, 0
0, 0
0, 0
0, 0
0, 0
0, 0
0, 0
0, 0
0, 0
0, 0
0, 0
0, 0
0, 0
0, 0
0, 0
0, 0
0, 0
0, 0
0, 0
0, 0
0, 0
0, 0
0, 0
0, 0
0, 0
0, 0
0, 0
0, 0
0, 0
0, 0
0, 0
0, 0
0, 0
0, 0
0, 0
0, 0
0, 0
0, 0
0, 0
0, 0
0, 0
0, 0
0, 0
0, 0
0, 0
0, 0
0, 0
0, 0
0, 0
0, 0
0, 0
0, 0
0, 0
0, 0
0, 0
0, 0
0, 0
0, 0
0, 0
0, 0
0, 0
0, 0
0, 0
0, 0
0, 0
0, 0
0, 0
0, 0
0, 0
0, 0
0, 0
0, 0
0, 0
0, 0
0, 0
0, 0
0, 0
0, 0
0, 0
0, 0
0, 0
0, 0
0, 0
0, 0
0, 0
0, 0
0, 0
0, 0
0, 0
0, 0
0, 0
0, 0
0, 0
0, 0
0, 0
0, 0
0, 0
0, 0
0, 0
0, 0
0, 0
0, 0
0, 0
0, 0
0, 0
0, 0
0, 0
0, 0
0, 0
0, 0
0, 0
0, 0
0, 0
0, 0
0, 0
0, 0
0, 0
0, 0
0, 0
0, 0
0, 0
0, 0
0, 0
0, 0
0, 0
0, 0
0, 0
0, 0
0, 0
0, 0
0, 0
0, 0
0, 0
0, 0
0, 0
0, 0
0, 0
0, 0
0, 0
0, 0
0, 0
0, 0
0, 0
0, 0
0, 0
0, 0
0, 0
0, 0
0, 0
0, 0
0, 0
0, 0
0, 0
0, 0
0, 0
0, 0
0, 0
0, 0
0, 0
0, 0
0, 0
0, 0
0, 0
0, 0
0, 0
0, 0
0, 0
0, 0
0, 0
0, 0
0, 0
0, 0
0, 0
0, 0
0, 0
0, 0
0, 0
0, 0
0, 0
0, 0
0, 0
0, 0
0, 0
0, 0
0, 0
0, 0
0, 0
0, 0
0, 0
0, 0
0, 0
0, 0
0, 0
0, 0
0, 0
0, 0
0, 0
0, 0
0, 0
0, 0
0, 0
0, 0
0, 0
0, 0
0, 0
0, 0
0, 0
0, 0
0, 0
0, 0
0, 0
0, 0
0, 0
0, 0
0, 0
0, 0
0, 0
0, 0
0, 0
0, 0
0, 0
0, 0
0, 0
0, 0
0, 0
0, 0
0, 0
0, 0
0, 0
0, 0
0, 0
0, 0
0, 0
0, 0
0, 0
0, 0
0, 0
0, 0
0, 0
0, 0
0, 0
0, 0
0, 0
0, 0
0, 0
0, 0
0, 0
0, 0
0, 0
0, 0
0, 0
0, 0
0, 0
0, 0
0, 0
0, 0
0, 0
0, 0
0, 0
0, 0
0, 0
0, 0
0, 0
0, 0
0, 0
0, 0
0, 0
0, 0
0, 0
0, 0
0, 0
0, 0
0, 0
0, 0
0, 0
0, 0
0, 0
0, 0
0, 0
0, 0
0, 0
0, 0
0, 0
0, 0
0, 0
0, 0
0, 0
0, 0
0, 0
0, 0
0, 0
0, 0
0, 0
0, 0
0, 0
0, 0
0, 0
0, 0
0, 0
0, 0
0, 0
0, 0
0, 0
0, 0
0, 0
0, 0
0, 0
0, 0
0, 0
0, 0
0, 0
0, 0
0, 0
0, 0
0, 0
0, 0
0, 0
0, 0
0, 0
0, 0
0, 0
0, 0
0, 0
0, 0
0, 0
0, 0
0, 0
0, 0
0, 0
0, 0
0, 0
0, 0
0, 0
0, 0
0, 0
0, 0
0, 0
0, 0
0, 0
0, 0
0, 0
0, 0
0, 0
0, 0
0, 0
0, 0
0, 0
0, 0
0, 0
0, 0
0, 0
0, 0
0, 0
0, 0
0, 0
0, 0
0, 0
0, 0
0, 0
0, 0
0, 0
0, 0
0, 0
0, 0
0, 0
0, 0
0, 0
#ENDOFDATA     end of spectrum data