File: host_upload/06-09-2024/ps_0852/dump3/ps__0852shot_2305.msa
#FORMAT      : EMSA/MAS spectral data file
#VERSION     : TC202v2.0 PIXL
#TITLE       : N/A
#DATE        :       Date in the format DD-MMM-YYYY, for example 07-JUL-2010
#TIME        :             The time of day at which the spectrum was recorded, in 24-hour format
#OWNER       : PIXL Flight Model       (PIXL will use this to indicate which instrument took the data.)
#NPOINTS     : 4096     Number of data points in the spectrum (This can be zero for configuration only files)
#NCOLUMNS    : 2     Number of data columns in the spectrum (This can be zero for configuration only files)
#XUNITS      : eV
#YUNITS      : COUNTS
#DATATYPE    : YY
#XPERCHAN    : 7.862, 7.881   eV per channel (separate by commas if more than one detector)
#OFFSET      : 18.5, -22.4         eV of first channel  (separate by commas if more than one detector
#SIGNALTYPE  : XRF
#YP_TEMP     : 2.235
#LIVETIME    : 8.55875, 8.5559   seconds (separate by commas if more than one detector)
#REALTIME    : 10, 10.0   seconds (separate by commas if more than one detector)
#SPECTRUM    : start of spectrum data
0, 0
0, 0
0, 0
0, 0
0, 0
0, 0
0, 0
0, 0
0, 0
0, 0
0, 0
0, 0
0, 0
0, 0
0, 0
0, 0
0, 0
0, 0
0, 0
0, 0
0, 0
0, 0
0, 0
0, 0
0, 0
0, 0
0, 0
0, 0
0, 0
0, 0
0, 0
0, 0
0, 0
1, 0
0, 0
0, 0
0, 0
0, 1
2, 0
1, 4
1, 0
2, 0
0, 1
1, 3
1, 1
0, 1
3, 2
1, 3
8, 5
11, 9
23, 30
38, 39
48, 62
76, 67
85, 71
81, 63
71, 61
42, 36
19, 18
12, 11
9, 7
3, 3
6, 2
5, 3
3, 2
5, 2
5, 5
10, 11
17, 25
51, 41
110, 117
177, 193
287, 265
349, 342
441, 405
449, 426
401, 351
288, 291
184, 215
131, 119
83, 70
41, 27
17, 17
12, 6
6, 5
3, 3
3, 2
1, 1
2, 1
1, 0
3, 1
2, 1
1, 3
2, 2
2, 1
1, 3
5, 3
3, 4
4, 4
5, 4
4, 4
4, 3
1, 1
3, 5
4, 2
3, 5
5, 2
4, 9
13, 6
15, 12
13, 23
27, 18
40, 29
31, 28
48, 30
41, 48
38, 42
38, 45
50, 42
34, 31
34, 24
30, 28
34, 20
22, 21
17, 11
19, 19
12, 12
11, 8
9, 10
10, 11
6, 5
5, 2
4, 2
4, 0
2, 1
3, 0
3, 0
2, 2
0, 1
4, 0
4, 4
1, 2
4, 4
3, 4
1, 5
2, 9
2, 3
1, 3
9, 4
6, 8
5, 8
10, 11
16, 23
40, 40
65, 49
58, 68
70, 66
75, 74
82, 86
64, 62
69, 51
47, 35
26, 28
19, 26
17, 8
17, 7
7, 7
13, 10
21, 13
15, 10
11, 14
18, 16
15, 18
17, 16
8, 14
8, 6
5, 6
5, 8
4, 3
3, 4
2, 2
3, 2
5, 2
1, 4
4, 4
6, 3
3, 4
6, 6
5, 8
5, 7
10, 10
13, 7
10, 10
7, 10
11, 18
18, 12
14, 7
22, 12
10, 14
11, 19
14, 11
15, 16
7, 10
9, 7
6, 10
16, 5
19, 6
24, 4
43, 5
35, 4
50, 5
40, 3
35, 2
41, 11
33, 7
35, 4
19, 9
14, 8
8, 8
5, 9
7, 8
4, 7
13, 6
4, 9
6, 13
6, 8
9, 13
14, 16
11, 19
16, 20
14, 16
22, 16
11, 27
26, 20
14, 14
10, 11
12, 15
5, 6
13, 15
15, 9
14, 11
3, 9
7, 7
7, 12
15, 11
23, 23
28, 20
26, 38
48, 47
80, 50
74, 72
80, 74
51, 64
68, 49
47, 26
31, 33
22, 19
19, 13
20, 21
14, 13
18, 16
31, 31
39, 60
77, 108
149, 181
273, 343
473, 567
762, 940
1117, 1261
1516, 1641
1840, 2002
2196, 2286
2336, 2354
2320, 2175
1994, 1872
1716, 1471
1272, 1045
893, 707
596, 409
370, 275
170, 127
103, 89
58, 50
39, 22
33, 13
21, 29
17, 17
23, 22
16, 29
19, 36
22, 57
30, 102
49, 88
64, 132
101, 140
118, 190
195, 232
248, 303
324, 335
328, 357
335, 350
313, 347
284, 243
240, 205
165, 156
138, 119
75, 65
59, 34
29, 22
13, 19
12, 13
12, 2
8, 7
13, 8
14, 8
18, 13
15, 13
19, 18
20, 11
20, 12
24, 15
20, 13
11, 16
7, 8
8, 8
9, 14
5, 6
8, 7
9, 8
8, 12
6, 9
8, 4
10, 10
7, 6
12, 6
7, 6
8, 3
4, 7
5, 8
5, 5
2, 3
4, 12
4, 11
2, 5
4, 4
10, 5
4, 7
7, 9
8, 6
10, 5
12, 7
13, 6
19, 3
12, 5
14, 2
16, 4
18, 5
12, 6
10, 5
8, 8
10, 2
4, 2
8, 8
5, 5
1, 4
4, 3
5, 1
5, 8
4, 3
2, 1
3, 1
2, 5
4, 3
2, 1
3, 4
3, 4
3, 4
3, 6
3, 6
5, 7
1, 8
4, 8
3, 7
5, 9
4, 9
4, 6
3, 5
1, 4
2, 5
6, 4
5, 3
4, 6
4, 6
1, 3
3, 6
7, 4
5, 3
1, 5
10, 4
7, 6
2, 6
9, 9
3, 1
3, 3
6, 4
5, 3
5, 4
3, 6
4, 5
2, 6
1, 6
4, 2
3, 3
3, 3
6, 6
5, 2
8, 1
10, 4
1, 2
5, 3
9, 2
5, 2
5, 4
9, 6
13, 4
8, 3
3, 4
4, 5
7, 7
10, 6
6, 9
6, 8
5, 6
6, 3
4, 5
7, 2
4, 5
3, 6
2, 3
1, 2
3, 3
2, 3
6, 2
2, 1
1, 5
1, 4
3, 3
2, 2
0, 3
2, 3
6, 3
4, 2
5, 2
2, 2
5, 0
4, 3
4, 3
4, 5
8, 3
3, 5
3, 3
2, 1
0, 2
6, 1
5, 2
4, 6
8, 3
3, 2
4, 2
1, 5
4, 5
3, 3
3, 5
2, 2
0, 2
2, 2
2, 5
2, 3
4, 1
4, 4
4, 2
5, 4
4, 2
0, 2
1, 4
1, 4
1, 3
3, 4
4, 2
3, 6
4, 2
1, 2
1, 3
2, 2
2, 3
1, 1
2, 3
3, 1
1, 0
6, 1
1, 5
2, 1
4, 1
6, 5
1, 0
1, 1
1, 2
0, 2
5, 2
1, 1
5, 0
1, 3
0, 0
1, 2
3, 1
1, 3
2, 1
1, 3
2, 1
2, 2
1, 5
0, 0
2, 2
0, 1
1, 2
5, 1
2, 3
2, 2
1, 2
1, 2
2, 0
3, 1
2, 2
2, 3
4, 5
2, 2
3, 4
2, 4
1, 3
3, 4
2, 5
4, 8
7, 2
4, 1
2, 0
5, 1
3, 4
2, 3
5, 4
5, 2
5, 1
2, 5
3, 1
1, 2
0, 1
2, 1
4, 1
2, 2
1, 0
3, 1
0, 2
3, 0
3, 2
1, 5
2, 0
5, 3
5, 3
3, 3
1, 2
2, 2
1, 1
3, 1
1, 2
1, 3
1, 1
2, 1
0, 0
0, 0
0, 0
0, 1
0, 0
2, 0
1, 0
2, 1
1, 0
0, 1
0, 2
0, 0
1, 1
2, 0
2, 0
0, 2
0, 0
1, 3
2, 2
0, 3
0, 0
2, 1
0, 3
3, 2
1, 0
2, 0
1, 2
0, 0
0, 0
0, 1
0, 1
0, 1
0, 0
1, 1
2, 2
0, 1
1, 1
0, 0
1, 3
2, 1
2, 2
0, 1
0, 1
1, 0
2, 1
1, 3
2, 1
0, 1
3, 0
0, 0
2, 0
4, 2
1, 0
2, 1
0, 0
1, 1
0, 2
1, 1
0, 0
0, 1
1, 3
0, 0
0, 0
1, 1
1, 2
0, 1
0, 2
1, 0
0, 0
2, 1
1, 0
0, 0
0, 2
2, 1
0, 0
0, 1
0, 0
1, 1
0, 0
0, 0
0, 0
0, 0
2, 1
0, 0
0, 0
0, 1
1, 0
1, 0
0, 0
0, 1
1, 1
1, 0
1, 0
0, 0
1, 0
0, 0
0, 1
0, 0
1, 0
1, 0
0, 0
1, 0
1, 2
0, 1
0, 0
1, 0
0, 0
0, 0
0, 1
1, 0
1, 0
0, 0
0, 1
0, 0
2, 1
0, 1
1, 1
1, 0
0, 0
1, 0
0, 0
0, 1
0, 0
1, 1
2, 0
0, 1
1, 0
0, 0
1, 0
1, 1
0, 1
0, 1
1, 2
0, 0
0, 0
1, 0
0, 2
0, 0
1, 2
0, 0
0, 0
0, 0
0, 0
0, 0
0, 0
1, 0
1, 0
0, 0
1, 1
0, 0
1, 0
0, 0
0, 0
1, 2
0, 1
0, 0
0, 0
0, 0
0, 0
2, 0
1, 1
0, 0
0, 0
2, 0
0, 0
0, 0
1, 0
0, 0
1, 1
1, 0
0, 0
0, 0
0, 0
0, 0
1, 0
0, 0
0, 0
0, 0
0, 1
0, 0
2, 0
0, 0
2, 1
0, 0
0, 0
1, 0
0, 1
0, 2
0, 0
0, 0
0, 1
0, 0
1, 0
1, 0
2, 0
0, 1
1, 0
1, 1
0, 1
1, 0
0, 0
0, 0
0, 0
0, 0
0, 0
0, 0
1, 0
1, 1
1, 0
0, 0
0, 0
0, 0
0, 0
0, 0
2, 1
0, 0
1, 1
0, 0
0, 0
0, 0
0, 0
0, 0
0, 0
0, 0
1, 1
0, 0
0, 0
1, 0
0, 1
0, 1
1, 0
0, 0
0, 0
0, 0
0, 1
0, 0
0, 0
0, 0
0, 0
0, 0
0, 0
0, 0
0, 0
0, 0
0, 0
0, 0
0, 0
0, 0
0, 0
0, 0
0, 0
0, 0
0, 0
0, 0
0, 0
0, 0
0, 0
0, 0
0, 0
0, 1
0, 0
0, 0
0, 0
0, 0
0, 0
1, 0
0, 0
0, 0
0, 1
0, 0
1, 0
0, 0
0, 1
0, 1
0, 0
0, 0
0, 0
0, 0
0, 0
0, 0
1, 0
1, 0
0, 0
1, 0
0, 1
0, 0
0, 0
0, 1
0, 0
0, 0
0, 0
0, 0
1, 0
0, 0
0, 0
0, 0
0, 0
0, 0
0, 0
0, 0
0, 0
0, 0
0, 0
0, 0
0, 0
0, 0
0, 0
0, 0
0, 0
1, 0
0, 0
0, 0
0, 0
0, 0
0, 0
0, 0
0, 1
0, 0
0, 0
0, 0
0, 0
0, 0
0, 0
0, 0
0, 0
0, 0
0, 0
0, 0
0, 0
0, 0
0, 0
0, 0
0, 0
0, 0
0, 0
0, 0
0, 0
0, 0
0, 0
0, 0
0, 1
0, 0
0, 0
0, 0
0, 0
0, 0
0, 0
0, 0
0, 0
0, 0
0, 0
0, 0
0, 0
0, 0
0, 0
0, 0
0, 0
0, 0
0, 0
0, 0
0, 0
0, 0
0, 0
0, 0
0, 0
0, 0
0, 0
0, 0
0, 0
0, 0
0, 0
0, 0
0, 0
0, 0
0, 0
0, 0
0, 0
1, 0
0, 0
0, 0
0, 0
0, 0
0, 0
0, 0
0, 0
0, 0
0, 0
0, 0
0, 0
0, 0
0, 0
0, 0
0, 0
0, 0
0, 0
0, 0
0, 0
0, 0
0, 0
0, 0
0, 0
0, 0
0, 0
0, 0
0, 0
0, 0
0, 0
0, 0
0, 0
0, 0
0, 0
0, 0
0, 0
0, 0
0, 0
0, 0
0, 0
0, 0
0, 0
0, 0
0, 0
0, 0
0, 0
0, 0
1, 0
0, 0
0, 0
0, 0
0, 0
0, 0
0, 0
0, 0
1, 0
0, 0
0, 0
0, 0
0, 0
0, 0
0, 0
0, 0
0, 0
0, 0
0, 0
0, 0
0, 0
0, 0
0, 0
0, 0
0, 0
0, 0
0, 0
0, 0
0, 0
0, 0
0, 0
0, 0
0, 0
0, 0
0, 0
0, 0
0, 0
0, 0
0, 0
0, 0
0, 0
0, 0
0, 0
0, 0
0, 0
0, 0
0, 0
0, 0
0, 0
0, 0
0, 0
0, 0
0, 0
0, 0
0, 0
0, 0
0, 0
0, 0
0, 0
0, 0
0, 0
0, 0
0, 0
0, 0
0, 0
0, 0
0, 0
0, 0
0, 0
0, 0
0, 0
0, 0
0, 0
0, 0
0, 0
0, 0
0, 0
0, 0
0, 0
0, 0
0, 0
0, 0
0, 0
0, 0
0, 0
0, 0
0, 0
0, 0
0, 0
0, 0
0, 0
0, 0
0, 0
0, 0
0, 0
0, 0
0, 0
0, 0
0, 0
0, 0
0, 0
0, 0
0, 0
0, 0
0, 0
0, 0
0, 0
0, 0
0, 0
0, 0
0, 0
0, 0
0, 0
0, 0
0, 0
0, 0
0, 0
0, 0
0, 0
0, 0
0, 0
0, 0
0, 0
0, 0
0, 0
0, 0
0, 0
0, 0
0, 0
0, 0
0, 0
0, 0
0, 0
0, 0
0, 0
0, 0
0, 0
0, 0
0, 0
0, 0
0, 0
0, 0
0, 0
0, 0
0, 0
0, 0
0, 0
0, 0
0, 0
0, 0
0, 0
0, 0
0, 0
0, 0
0, 0
0, 0
0, 0
0, 0
0, 0
0, 0
0, 0
0, 0
0, 0
0, 0
0, 0
0, 0
0, 0
0, 0
0, 0
0, 0
0, 0
0, 0
0, 0
0, 0
0, 0
0, 0
0, 0
0, 0
0, 0
0, 0
0, 0
0, 0
0, 0
0, 0
0, 0
0, 0
0, 0
0, 0
0, 0
0, 0
0, 0
0, 0
0, 0
0, 0
0, 0
0, 0
0, 0
0, 0
0, 0
0, 0
0, 0
0, 0
0, 0
0, 0
0, 0
0, 0
0, 0
0, 0
0, 0
0, 0
0, 0
0, 0
0, 0
0, 0
0, 0
0, 0
0, 0
0, 0
0, 0
0, 0
0, 0
0, 0
0, 0
0, 0
0, 0
0, 0
0, 0
0, 0
0, 0
0, 0
0, 0
0, 0
0, 0
0, 0
0, 0
0, 0
0, 0
0, 0
0, 0
0, 0
0, 0
0, 0
0, 0
0, 0
0, 0
0, 0
0, 0
0, 0
0, 0
0, 0
0, 0
0, 0
0, 0
0, 0
0, 0
0, 0
0, 0
0, 0
0, 0
0, 0
0, 0
0, 0
0, 0
0, 0
0, 0
0, 0
0, 0
0, 0
0, 0
0, 0
0, 0
0, 0
0, 0
0, 0
0, 0
0, 0
0, 0
0, 0
0, 0
0, 0
0, 0
0, 0
0, 0
0, 0
0, 0
0, 0
0, 0
0, 0
0, 0
0, 0
0, 0
0, 0
0, 0
0, 0
0, 0
0, 0
0, 0
0, 0
0, 0
0, 0
0, 0
0, 0
0, 0
0, 0
0, 0
0, 0
0, 0
0, 0
0, 0
0, 0
0, 0
0, 0
0, 0
0, 0
0, 0
0, 0
0, 0
0, 0
0, 0
0, 0
0, 0
0, 0
0, 0
0, 0
0, 0
0, 0
0, 0
0, 0
0, 0
0, 0
0, 0
0, 0
0, 0
0, 0
0, 0
0, 0
0, 0
0, 0
0, 0
0, 0
0, 0
0, 0
0, 0
0, 0
0, 0
0, 0
0, 0
0, 0
0, 0
0, 0
0, 0
0, 0
0, 0
0, 0
0, 0
0, 0
0, 0
0, 0
0, 0
0, 0
0, 0
0, 0
0, 0
0, 0
0, 0
0, 0
#ENDOFDATA     end of spectrum data