File: host_upload/06-09-2024/ps_0852/dump3/ps__0852shot_2346.msa
#FORMAT      : EMSA/MAS spectral data file
#VERSION     : TC202v2.0 PIXL
#TITLE       : N/A
#DATE        :       Date in the format DD-MMM-YYYY, for example 07-JUL-2010
#TIME        :             The time of day at which the spectrum was recorded, in 24-hour format
#OWNER       : PIXL Flight Model       (PIXL will use this to indicate which instrument took the data.)
#NPOINTS     : 4096     Number of data points in the spectrum (This can be zero for configuration only files)
#NCOLUMNS    : 2     Number of data columns in the spectrum (This can be zero for configuration only files)
#XUNITS      : eV
#YUNITS      : COUNTS
#DATATYPE    : YY
#XPERCHAN    : 7.862, 7.881   eV per channel (separate by commas if more than one detector)
#OFFSET      : 18.5, -22.4         eV of first channel  (separate by commas if more than one detector
#SIGNALTYPE  : XRF
#YP_TEMP     : 2.203
#LIVETIME    : 8.55985, 8.56377   seconds (separate by commas if more than one detector)
#REALTIME    : 10, 10.0   seconds (separate by commas if more than one detector)
#SPECTRUM    : start of spectrum data
0, 0
0, 0
0, 0
0, 0
0, 0
0, 0
0, 0
0, 0
0, 0
0, 0
0, 0
0, 0
0, 0
0, 0
0, 0
0, 0
0, 0
0, 0
0, 0
0, 0
0, 0
0, 0
0, 0
0, 0
0, 0
0, 0
0, 0
0, 0
0, 0
0, 0
0, 0
0, 0
1, 0
0, 1
0, 0
2, 0
1, 0
0, 1
1, 0
0, 0
0, 1
1, 1
0, 2
2, 5
0, 2
1, 0
2, 4
4, 3
5, 6
18, 15
29, 20
37, 51
63, 66
67, 78
80, 97
74, 68
75, 67
45, 52
32, 29
21, 10
7, 7
2, 4
3, 4
4, 3
6, 4
4, 4
5, 5
12, 8
19, 18
51, 42
94, 106
177, 185
228, 274
372, 384
417, 406
463, 470
372, 369
300, 270
216, 182
142, 110
65, 56
22, 22
13, 18
8, 7
4, 9
2, 3
1, 2
1, 0
1, 1
2, 1
1, 1
1, 1
2, 1
0, 1
2, 2
2, 1
4, 2
2, 3
7, 7
3, 5
10, 2
8, 0
5, 1
4, 3
4, 2
7, 5
8, 4
10, 4
8, 6
18, 9
11, 13
14, 17
21, 27
18, 35
25, 44
24, 48
24, 25
30, 39
17, 22
18, 23
11, 22
19, 15
18, 12
15, 10
11, 12
12, 16
16, 10
11, 14
11, 14
10, 7
1, 5
4, 4
3, 1
1, 0
0, 2
1, 3
1, 1
1, 0
0, 0
2, 1
1, 1
1, 0
1, 1
0, 1
3, 2
3, 1
0, 1
0, 1
2, 3
4, 0
3, 4
5, 4
6, 5
9, 14
5, 11
17, 16
14, 19
17, 22
19, 18
13, 17
17, 8
13, 7
4, 12
5, 3
2, 5
3, 4
3, 5
2, 9
4, 6
8, 0
6, 8
4, 2
4, 4
3, 8
5, 6
3, 5
4, 2
4, 3
4, 2
4, 8
0, 1
4, 3
6, 3
2, 3
0, 1
1, 6
1, 4
2, 5
2, 8
7, 6
9, 9
11, 7
11, 7
9, 12
11, 10
18, 8
18, 12
11, 17
13, 15
8, 17
7, 13
17, 12
8, 5
8, 4
4, 8
5, 4
3, 5
5, 6
10, 2
7, 2
6, 4
5, 5
5, 3
5, 5
10, 5
6, 3
1, 2
8, 2
3, 3
5, 5
7, 4
2, 2
4, 4
8, 10
9, 9
20, 10
24, 11
31, 16
38, 11
66, 20
84, 13
96, 6
143, 12
110, 8
120, 13
102, 3
88, 11
70, 10
60, 5
28, 7
23, 7
16, 7
16, 7
14, 8
15, 17
22, 18
29, 28
64, 39
59, 53
83, 69
118, 51
87, 58
130, 56
99, 50
66, 35
71, 24
50, 24
29, 14
30, 16
23, 12
27, 25
31, 27
42, 56
80, 111
149, 171
282, 378
459, 584
770, 901
1123, 1329
1507, 1821
1951, 2127
2191, 2378
2277, 2432
2290, 2313
2138, 1906
1630, 1515
1224, 1066
911, 729
575, 415
334, 258
170, 147
106, 57
58, 41
36, 18
13, 23
17, 15
15, 15
10, 11
18, 16
20, 16
23, 27
20, 38
52, 49
68, 67
99, 110
183, 195
193, 252
257, 278
300, 351
357, 365
344, 370
323, 307
288, 273
254, 227
198, 128
145, 122
69, 64
59, 39
24, 23
14, 13
5, 13
7, 9
7, 10
8, 4
6, 8
9, 12
10, 9
11, 10
12, 8
10, 7
14, 13
8, 8
9, 5
8, 8
9, 4
6, 10
4, 8
5, 11
4, 6
1, 8
3, 7
4, 9
4, 10
4, 6
7, 8
8, 7
6, 12
12, 10
12, 2
7, 8
13, 6
10, 4
11, 3
17, 6
14, 6
3, 3
6, 3
6, 4
8, 6
7, 7
3, 3
4, 3
5, 7
6, 5
3, 5
9, 4
10, 1
5, 7
4, 4
8, 4
11, 2
6, 7
4, 1
5, 4
6, 8
6, 3
3, 5
1, 5
5, 4
5, 3
5, 1
4, 5
10, 1
8, 2
22, 2
21, 4
24, 5
27, 4
24, 5
24, 1
23, 8
26, 6
17, 16
22, 6
7, 12
8, 9
8, 6
8, 7
4, 6
2, 6
8, 4
2, 2
4, 2
1, 4
3, 3
6, 1
1, 3
6, 2
2, 3
6, 6
1, 2
7, 2
4, 4
3, 4
2, 4
4, 5
7, 3
0, 4
3, 12
1, 7
0, 11
1, 7
4, 4
0, 3
2, 5
2, 1
3, 3
2, 1
1, 3
3, 1
1, 3
4, 3
1, 8
2, 0
5, 3
0, 3
1, 3
2, 2
2, 0
4, 0
4, 3
2, 5
4, 3
2, 1
1, 2
2, 2
6, 4
2, 2
3, 0
3, 1
0, 2
3, 5
2, 5
2, 2
3, 0
4, 5
2, 2
0, 1
2, 3
2, 4
2, 3
3, 0
2, 2
3, 4
4, 1
0, 1
2, 2
3, 4
6, 6
6, 3
2, 4
4, 3
7, 4
8, 3
6, 2
7, 2
9, 3
3, 0
5, 0
7, 4
6, 5
2, 1
4, 1
3, 3
2, 1
4, 1
3, 3
4, 3
1, 1
4, 3
0, 5
3, 1
4, 2
3, 2
3, 8
4, 1
1, 1
0, 3
5, 5
2, 4
3, 3
4, 2
1, 1
4, 1
1, 3
1, 4
3, 6
3, 1
2, 3
3, 3
0, 3
3, 3
3, 7
0, 4
2, 4
1, 1
5, 1
0, 1
2, 3
1, 1
0, 1
0, 2
1, 2
1, 1
2, 4
3, 1
2, 3
3, 2
1, 6
0, 1
5, 5
2, 2
4, 2
1, 5
1, 5
2, 4
5, 2
0, 2
2, 4
1, 0
2, 4
1, 2
0, 3
2, 6
1, 1
0, 0
6, 2
2, 3
1, 2
8, 2
2, 4
2, 6
3, 2
3, 5
6, 3
4, 3
7, 1
3, 3
6, 6
1, 1
3, 3
2, 4
1, 4
1, 1
0, 0
2, 0
3, 3
1, 1
2, 1
3, 0
4, 0
1, 2
1, 4
3, 0
0, 2
5, 1
2, 2
2, 4
4, 2
4, 3
1, 2
1, 2
3, 3
4, 1
4, 2
1, 1
5, 1
4, 2
2, 0
0, 2
0, 5
1, 2
2, 1
0, 3
1, 0
1, 3
1, 1
1, 0
2, 2
1, 0
2, 0
1, 0
4, 0
2, 0
1, 1
1, 1
2, 1
1, 0
1, 2
2, 2
2, 1
0, 3
2, 1
1, 0
0, 2
2, 2
2, 0
2, 0
1, 1
0, 1
3, 1
2, 2
0, 1
0, 2
1, 0
2, 1
0, 1
0, 4
2, 1
0, 0
1, 0
3, 2
3, 3
2, 1
0, 1
0, 2
1, 0
0, 0
3, 1
0, 0
0, 1
0, 1
0, 1
1, 0
3, 1
0, 4
0, 0
2, 0
0, 0
0, 2
1, 2
0, 2
0, 0
0, 0
0, 1
1, 1
2, 1
0, 1
3, 1
0, 0
0, 1
0, 1
0, 0
1, 1
2, 1
0, 0
2, 0
1, 3
4, 0
0, 0
1, 2
0, 0
0, 0
0, 1
0, 2
0, 2
1, 0
2, 0
0, 1
0, 0
0, 1
1, 1
0, 0
0, 0
0, 0
0, 0
0, 0
1, 2
0, 1
0, 1
3, 0
1, 0
0, 0
0, 0
1, 1
0, 1
0, 0
1, 2
1, 0
0, 1
0, 0
0, 0
0, 0
0, 0
0, 1
2, 0
0, 1
0, 0
0, 0
0, 1
0, 0
1, 1
0, 2
0, 0
0, 0
0, 0
1, 0
0, 0
0, 0
0, 0
0, 0
0, 1
0, 1
0, 0
0, 0
2, 1
0, 1
1, 1
1, 1
0, 2
0, 0
0, 1
0, 0
0, 0
0, 0
0, 2
0, 0
0, 0
2, 1
1, 0
0, 0
0, 1
1, 0
1, 0
0, 0
0, 0
0, 1
0, 0
0, 0
0, 0
0, 0
0, 1
0, 2
0, 0
1, 0
0, 0
0, 2
0, 0
0, 1
0, 0
0, 0
0, 0
0, 1
0, 0
0, 1
0, 0
0, 0
0, 0
0, 0
1, 1
0, 2
0, 0
0, 1
0, 0
0, 1
0, 0
1, 0
1, 0
0, 0
0, 0
1, 0
0, 0
0, 1
2, 0
0, 0
0, 0
0, 2
0, 0
0, 0
0, 0
0, 1
0, 0
0, 1
1, 0
0, 0
0, 1
0, 0
0, 0
0, 0
0, 0
0, 0
0, 1
0, 0
0, 0
1, 0
0, 0
0, 0
0, 0
0, 0
0, 1
0, 1
0, 0
0, 0
0, 0
0, 0
0, 0
0, 1
0, 0
0, 1
0, 0
0, 1
0, 0
1, 0
0, 1
0, 2
0, 0
0, 0
0, 0
0, 0
0, 0
0, 1
0, 1
0, 0
0, 0
0, 0
0, 0
0, 0
1, 0
0, 0
0, 0
0, 0
0, 1
0, 0
0, 0
0, 0
0, 0
0, 0
0, 0
0, 0
0, 0
0, 0
0, 0
0, 1
0, 0
0, 0
1, 0
0, 1
0, 1
0, 0
0, 0
0, 2
0, 1
0, 0
0, 1
0, 0
0, 1
0, 0
0, 0
1, 0
1, 0
0, 0
1, 0
0, 1
0, 0
0, 0
0, 0
0, 0
0, 0
0, 1
0, 0
0, 1
1, 0
1, 1
0, 0
0, 0
0, 1
0, 0
0, 0
0, 0
0, 0
0, 1
0, 0
0, 0
0, 0
0, 0
0, 0
1, 0
0, 0
0, 0
1, 0
0, 0
0, 0
0, 0
0, 0
0, 0
0, 0
0, 0
0, 1
0, 0
0, 0
0, 0
0, 0
0, 0
0, 0
0, 0
0, 0
0, 0
0, 0
0, 0
0, 0
0, 0
0, 0
0, 0
0, 0
0, 0
0, 1
0, 0
0, 0
0, 0
0, 0
0, 0
0, 0
0, 0
0, 0
0, 0
0, 0
0, 0
0, 0
0, 0
0, 0
0, 0
0, 0
0, 0
0, 1
0, 0
0, 0
0, 0
0, 0
0, 0
0, 0
0, 1
0, 0
0, 0
0, 0
0, 1
0, 0
0, 0
0, 0
0, 0
0, 0
0, 0
0, 0
0, 0
0, 0
0, 1
0, 0
0, 0
0, 1
0, 0
0, 0
0, 0
0, 1
0, 0
0, 0
1, 0
0, 0
0, 0
0, 0
0, 0
0, 0
0, 0
1, 0
0, 1
0, 0
0, 0
0, 0
0, 0
0, 0
0, 0
1, 1
0, 0
0, 0
0, 0
0, 0
0, 0
0, 0
0, 0
0, 0
0, 0
0, 0
0, 0
0, 0
0, 0
0, 0
0, 0
0, 0
0, 0
0, 1
0, 0
0, 0
0, 0
0, 0
0, 0
0, 0
0, 0
0, 0
0, 0
0, 0
0, 0
0, 0
0, 0
0, 0
0, 0
0, 0
0, 0
0, 0
0, 0
0, 0
0, 0
0, 0
0, 0
0, 0
0, 0
0, 0
0, 0
0, 0
0, 0
0, 0
0, 0
0, 0
0, 0
0, 0
0, 0
0, 0
0, 0
0, 0
0, 0
0, 0
0, 0
0, 0
0, 0
0, 0
0, 0
0, 0
0, 0
0, 0
0, 0
0, 0
0, 0
0, 0
0, 0
0, 0
0, 0
0, 0
0, 0
0, 0
0, 0
0, 0
0, 0
0, 0
0, 0
0, 0
0, 0
0, 0
0, 0
0, 0
0, 0
0, 0
0, 0
0, 0
0, 0
0, 0
0, 0
0, 0
0, 0
0, 0
0, 0
0, 0
0, 0
0, 0
0, 0
0, 0
0, 0
0, 0
0, 0
0, 0
0, 0
0, 0
0, 0
0, 0
0, 0
0, 0
0, 0
0, 0
0, 0
0, 0
0, 0
0, 0
0, 0
0, 0
0, 0
0, 0
0, 0
0, 0
0, 0
0, 0
0, 0
0, 0
0, 0
0, 0
0, 0
0, 0
0, 0
0, 0
0, 0
0, 0
0, 0
0, 0
0, 0
0, 0
0, 0
0, 0
0, 0
0, 0
0, 0
0, 0
0, 0
0, 0
0, 0
0, 0
0, 0
0, 0
0, 0
0, 0
0, 0
0, 0
0, 0
0, 0
0, 0
0, 0
0, 0
0, 0
0, 0
0, 0
0, 0
0, 0
0, 0
0, 0
0, 0
0, 0
0, 0
0, 0
0, 0
0, 0
0, 0
0, 0
0, 0
0, 0
0, 0
0, 0
0, 0
0, 0
0, 0
0, 0
0, 0
0, 0
0, 0
0, 0
0, 0
0, 0
0, 0
0, 0
0, 0
0, 0
0, 0
0, 0
0, 0
0, 0
0, 0
0, 0
0, 0
0, 0
0, 0
0, 0
0, 0
0, 0
0, 0
0, 0
0, 0
0, 0
0, 0
0, 0
0, 0
0, 0
0, 0
0, 0
0, 0
0, 0
0, 0
0, 0
0, 0
0, 0
0, 0
0, 0
0, 0
0, 0
0, 0
0, 0
0, 0
0, 0
0, 0
0, 0
0, 0
0, 0
0, 0
0, 0
0, 0
0, 0
0, 0
0, 0
0, 0
0, 0
0, 0
0, 0
0, 0
0, 0
0, 0
0, 0
0, 0
0, 0
0, 0
0, 0
0, 0
0, 0
0, 0
0, 0
0, 0
0, 0
0, 0
0, 0
0, 0
0, 0
0, 0
0, 0
0, 0
0, 0
0, 0
0, 0
0, 0
0, 0
0, 0
0, 0
0, 0
0, 0
0, 0
0, 0
0, 0
0, 0
0, 0
0, 0
0, 0
0, 0
0, 0
0, 0
0, 0
0, 0
0, 0
0, 0
0, 0
0, 0
0, 0
0, 0
0, 0
0, 0
0, 0
0, 0
0, 0
0, 0
0, 0
0, 0
0, 0
0, 0
0, 0
0, 0
0, 0
0, 0
0, 0
0, 0
0, 0
0, 0
0, 0
0, 0
0, 0
0, 0
0, 0
0, 0
0, 0
0, 0
0, 0
0, 0
0, 0
0, 0
0, 0
0, 0
0, 0
0, 0
0, 0
0, 0
0, 0
0, 0
0, 0
0, 0
0, 0
0, 0
0, 0
0, 0
0, 0
0, 0
0, 0
0, 0
0, 0
0, 0
0, 0
0, 0
0, 0
0, 0
0, 0
0, 0
0, 0
0, 0
0, 0
0, 0
0, 0
0, 0
0, 0
0, 0
0, 0
0, 0
0, 0
0, 0
0, 0
0, 0
0, 0
0, 0
0, 0
0, 0
0, 0
0, 0
0, 0
0, 0
0, 0
0, 0
0, 0
0, 0
0, 0
0, 0
0, 0
0, 0
0, 0
0, 0
0, 0
0, 0
0, 0
0, 0
0, 0
0, 0
#ENDOFDATA     end of spectrum data