File: host_upload/06-09-2024/ps_0852/dump3/ps__0852shot_2573.msa
#FORMAT      : EMSA/MAS spectral data file
#VERSION     : TC202v2.0 PIXL
#TITLE       : N/A
#DATE        :       Date in the format DD-MMM-YYYY, for example 07-JUL-2010
#TIME        :             The time of day at which the spectrum was recorded, in 24-hour format
#OWNER       : PIXL Flight Model       (PIXL will use this to indicate which instrument took the data.)
#NPOINTS     : 4096     Number of data points in the spectrum (This can be zero for configuration only files)
#NCOLUMNS    : 2     Number of data columns in the spectrum (This can be zero for configuration only files)
#XUNITS      : eV
#YUNITS      : COUNTS
#DATATYPE    : YY
#XPERCHAN    : 7.862, 7.881   eV per channel (separate by commas if more than one detector)
#OFFSET      : 18.5, -22.4         eV of first channel  (separate by commas if more than one detector
#SIGNALTYPE  : XRF
#YP_TEMP     : 2.332
#LIVETIME    : 8.55066, 8.55898   seconds (separate by commas if more than one detector)
#REALTIME    : 10, 10.0   seconds (separate by commas if more than one detector)
#SPECTRUM    : start of spectrum data
0, 0
0, 0
0, 0
0, 0
0, 0
0, 0
0, 0
0, 0
0, 0
0, 0
0, 0
0, 0
0, 0
0, 0
0, 0
0, 0
0, 0
0, 0
0, 0
0, 0
0, 0
0, 0
0, 0
0, 0
0, 0
0, 0
0, 0
0, 0
0, 0
0, 0
0, 0
0, 0
0, 0
0, 0
0, 0
0, 0
0, 1
1, 1
1, 0
1, 0
0, 2
0, 3
1, 0
0, 1
2, 1
0, 1
2, 2
3, 7
6, 7
14, 17
17, 31
37, 42
60, 59
65, 64
73, 67
81, 74
45, 64
37, 38
26, 22
11, 12
4, 10
7, 3
2, 1
4, 3
5, 5
1, 2
5, 3
7, 12
22, 26
47, 52
96, 108
162, 188
255, 264
374, 385
404, 474
406, 451
413, 407
264, 290
213, 232
106, 125
54, 74
31, 54
22, 20
11, 9
7, 0
2, 5
4, 1
1, 1
2, 1
0, 0
0, 2
2, 2
1, 1
2, 2
1, 2
2, 4
5, 4
7, 8
5, 3
5, 4
4, 8
6, 6
2, 4
2, 5
4, 5
4, 2
9, 8
8, 11
15, 17
20, 25
34, 50
42, 50
53, 75
45, 64
61, 65
64, 59
42, 56
36, 38
35, 38
36, 34
39, 31
24, 30
23, 23
25, 23
14, 15
20, 16
10, 8
10, 12
6, 9
5, 6
10, 6
6, 3
5, 3
2, 3
2, 3
1, 1
5, 1
4, 3
1, 5
1, 1
0, 3
3, 0
4, 2
1, 1
3, 2
2, 2
1, 1
2, 4
3, 2
1, 5
3, 2
6, 4
4, 4
8, 6
7, 11
13, 12
18, 18
10, 15
12, 15
7, 14
9, 7
3, 8
2, 8
1, 7
4, 4
2, 1
4, 5
4, 2
2, 3
4, 6
4, 3
4, 6
3, 12
3, 9
2, 6
1, 5
5, 8
5, 11
3, 6
8, 5
16, 5
14, 8
19, 5
15, 5
14, 4
18, 6
19, 5
7, 5
6, 4
8, 12
9, 9
6, 5
9, 7
7, 12
11, 10
12, 18
9, 15
14, 8
23, 15
17, 11
13, 20
14, 14
5, 9
1, 4
8, 4
5, 4
4, 4
5, 6
7, 10
6, 8
3, 3
5, 7
6, 5
6, 6
4, 6
7, 7
6, 9
6, 10
11, 20
3, 18
11, 37
6, 51
4, 55
5, 52
6, 67
11, 58
6, 42
15, 50
19, 27
18, 31
13, 26
18, 19
17, 23
19, 23
19, 13
11, 9
14, 17
21, 9
10, 9
19, 6
5, 12
13, 8
13, 10
9, 12
11, 16
24, 23
29, 38
31, 42
39, 50
41, 49
65, 81
49, 61
59, 56
54, 42
47, 43
27, 40
20, 24
25, 22
24, 17
17, 16
16, 19
26, 25
49, 55
68, 107
155, 219
250, 365
461, 634
783, 1026
1139, 1402
1573, 1860
2052, 2359
2278, 2543
2476, 2702
2323, 2427
2128, 2007
1681, 1633
1249, 1254
895, 776
558, 485
322, 265
174, 135
103, 108
43, 57
31, 28
14, 22
18, 26
15, 22
15, 18
15, 21
14, 23
24, 25
33, 41
55, 43
78, 90
109, 117
167, 188
207, 256
260, 323
350, 353
372, 356
389, 411
342, 329
310, 330
270, 236
188, 151
131, 96
68, 50
48, 47
26, 29
14, 13
13, 10
10, 11
8, 11
7, 6
13, 4
16, 18
14, 11
10, 21
10, 9
13, 14
5, 10
13, 11
12, 8
7, 4
9, 2
3, 2
6, 3
2, 4
3, 2
4, 3
2, 7
1, 7
5, 6
3, 10
4, 9
1, 21
3, 19
4, 18
4, 15
8, 14
3, 14
5, 18
5, 8
1, 7
3, 7
5, 10
1, 11
3, 0
3, 6
5, 1
3, 6
3, 8
4, 7
6, 5
6, 6
5, 4
3, 1
3, 3
1, 4
1, 4
2, 1
3, 1
6, 3
6, 6
6, 5
6, 4
8, 8
4, 7
7, 1
6, 3
4, 2
7, 2
3, 3
5, 1
3, 4
4, 4
5, 2
4, 4
4, 2
6, 2
5, 6
2, 5
1, 5
3, 5
3, 6
4, 6
5, 6
2, 7
5, 11
4, 12
1, 22
4, 22
1, 21
2, 22
2, 30
3, 26
6, 22
7, 23
2, 13
1, 10
1, 11
2, 5
3, 7
0, 4
4, 6
2, 3
3, 7
3, 2
0, 1
6, 2
2, 4
2, 3
2, 3
3, 4
2, 3
4, 1
4, 1
7, 5
9, 2
9, 2
13, 6
17, 1
20, 4
15, 3
17, 4
24, 3
17, 3
16, 1
9, 3
10, 3
4, 4
4, 3
7, 2
7, 6
4, 3
6, 7
2, 6
2, 7
1, 2
2, 5
5, 3
4, 8
1, 2
1, 5
1, 3
2, 3
0, 3
0, 8
3, 10
0, 5
2, 6
0, 5
3, 9
2, 9
4, 7
1, 6
4, 7
2, 2
2, 1
1, 1
1, 3
3, 2
1, 0
2, 5
3, 3
1, 3
4, 4
2, 2
0, 2
5, 5
2, 4
4, 4
0, 2
2, 3
2, 2
2, 2
2, 2
5, 1
1, 1
5, 5
1, 1
1, 3
1, 2
3, 1
3, 2
0, 5
4, 1
3, 2
4, 5
2, 0
4, 0
2, 0
0, 6
3, 2
3, 3
4, 2
6, 2
2, 3
2, 3
2, 4
1, 2
1, 4
1, 5
5, 7
2, 7
0, 7
3, 7
4, 2
2, 6
1, 5
2, 1
2, 3
3, 1
1, 3
3, 5
4, 0
1, 3
3, 3
6, 1
3, 1
1, 2
2, 1
4, 1
5, 4
2, 5
3, 0
2, 3
6, 1
5, 4
4, 1
7, 1
0, 2
2, 1
3, 2
3, 3
7, 1
2, 5
2, 3
2, 6
4, 5
3, 4
3, 4
5, 6
3, 4
4, 5
6, 8
5, 3
0, 3
5, 2
4, 5
3, 3
1, 1
1, 0
2, 3
2, 2
0, 1
0, 4
3, 1
2, 2
3, 3
0, 1
0, 1
0, 1
1, 2
0, 0
3, 0
2, 1
1, 2
2, 5
1, 2
3, 1
0, 3
1, 3
1, 2
1, 2
0, 2
1, 2
0, 0
0, 0
1, 2
0, 4
0, 2
2, 0
0, 0
0, 2
1, 1
0, 0
0, 3
0, 2
0, 2
0, 2
1, 1
1, 2
1, 0
0, 1
0, 0
2, 1
3, 1
2, 0
2, 1
2, 1
2, 2
1, 1
1, 4
2, 2
0, 1
2, 2
1, 0
1, 1
2, 2
0, 1
2, 0
0, 1
1, 1
1, 2
1, 1
0, 2
3, 0
0, 0
0, 0
3, 0
0, 0
0, 2
0, 1
1, 0
1, 2
0, 0
1, 0
1, 0
1, 2
2, 2
0, 0
0, 1
1, 0
1, 0
0, 0
0, 1
1, 1
1, 1
1, 0
1, 1
0, 1
1, 0
0, 1
0, 0
0, 0
0, 2
1, 1
1, 0
0, 0
2, 0
2, 0
0, 0
1, 0
3, 0
1, 0
1, 0
1, 2
0, 0
1, 0
1, 0
0, 1
0, 0
0, 0
0, 1
1, 0
1, 0
2, 1
0, 0
1, 1
0, 1
1, 1
1, 3
0, 1
0, 1
0, 1
0, 1
2, 1
1, 1
0, 0
0, 1
1, 1
0, 0
0, 0
0, 0
0, 1
1, 0
0, 1
1, 0
0, 0
0, 1
0, 1
0, 0
0, 1
0, 0
0, 1
0, 0
1, 0
0, 0
1, 1
0, 1
1, 0
0, 0
0, 0
2, 0
0, 0
2, 1
0, 0
1, 0
1, 0
0, 0
0, 0
0, 0
1, 0
1, 0
1, 0
0, 1
0, 2
1, 0
0, 0
0, 0
0, 0
0, 0
0, 0
1, 0
1, 0
0, 0
1, 0
0, 1
0, 0
1, 1
0, 0
1, 0
0, 0
0, 0
0, 0
1, 0
0, 1
0, 1
0, 0
0, 0
0, 0
0, 0
0, 1
0, 0
0, 0
1, 0
1, 1
0, 1
0, 0
1, 1
0, 0
0, 0
0, 0
0, 1
1, 0
0, 0
0, 0
0, 0
0, 0
1, 0
0, 0
0, 0
1, 0
1, 0
0, 0
1, 0
0, 0
0, 0
0, 0
0, 0
0, 0
0, 0
0, 2
0, 0
0, 0
0, 1
0, 1
2, 0
1, 0
0, 0
0, 0
0, 0
0, 0
0, 0
0, 0
0, 0
0, 1
0, 0
1, 1
0, 0
1, 0
0, 0
0, 2
1, 1
1, 0
0, 0
0, 0
0, 2
0, 0
0, 0
0, 0
0, 0
0, 0
1, 0
0, 0
0, 1
0, 0
0, 1
0, 0
1, 1
0, 1
0, 0
1, 0
0, 0
0, 0
0, 1
0, 2
0, 0
0, 1
0, 0
0, 0
0, 0
0, 0
0, 0
0, 0
0, 0
0, 0
0, 0
0, 0
0, 0
0, 0
0, 0
0, 0
0, 0
0, 0
0, 1
0, 1
0, 0
0, 0
0, 0
0, 0
0, 0
0, 0
0, 0
0, 0
1, 0
0, 0
0, 0
0, 0
1, 1
0, 0
0, 0
0, 0
0, 0
0, 0
0, 0
0, 1
0, 0
0, 0
0, 1
0, 0
0, 0
0, 0
0, 0
0, 0
0, 0
0, 0
0, 0
0, 0
1, 0
0, 0
0, 0
0, 0
0, 0
0, 0
0, 1
0, 0
0, 0
0, 0
0, 0
0, 0
0, 0
0, 0
0, 0
0, 0
0, 0
0, 0
0, 0
0, 0
0, 0
0, 0
0, 0
0, 0
0, 0
0, 1
0, 0
0, 0
0, 0
0, 0
0, 0
1, 0
0, 0
0, 0
0, 0
0, 0
0, 0
0, 0
1, 0
0, 0
0, 0
0, 0
0, 0
0, 0
0, 0
0, 0
0, 0
0, 0
0, 0
0, 0
0, 0
0, 0
0, 0
0, 0
0, 0
0, 0
0, 0
0, 0
0, 0
0, 0
0, 0
0, 0
0, 0
0, 0
0, 0
1, 0
0, 0
0, 0
0, 0
0, 0
0, 0
0, 0
0, 0
0, 0
0, 0
0, 0
0, 0
1, 0
0, 0
0, 0
0, 0
0, 0
0, 0
0, 0
0, 0
0, 0
0, 0
0, 0
0, 0
0, 0
0, 0
0, 0
0, 0
0, 0
0, 0
0, 0
0, 0
0, 0
0, 0
0, 0
0, 0
0, 0
0, 0
0, 0
0, 1
0, 0
0, 0
0, 0
0, 0
0, 0
0, 0
0, 0
0, 0
0, 0
0, 0
0, 0
0, 0
0, 0
0, 0
0, 0
1, 0
0, 0
0, 0
0, 0
0, 0
0, 0
0, 0
0, 0
0, 0
0, 0
0, 0
0, 0
0, 0
0, 0
0, 0
0, 0
0, 0
0, 0
0, 0
0, 1
0, 0
0, 0
0, 0
0, 0
0, 0
0, 0
0, 0
0, 0
0, 0
0, 0
0, 0
0, 0
0, 0
0, 0
0, 0
0, 0
0, 0
0, 0
0, 0
0, 0
0, 0
0, 0
0, 0
0, 0
0, 0
0, 0
0, 0
0, 0
0, 0
0, 0
0, 0
0, 0
0, 0
0, 0
0, 0
0, 0
0, 0
0, 0
0, 0
0, 0
0, 0
0, 0
0, 0
0, 0
0, 0
0, 0
0, 0
0, 0
0, 0
0, 0
0, 0
0, 0
0, 0
0, 0
0, 0
0, 0
0, 0
0, 0
0, 0
0, 0
0, 0
0, 0
0, 0
0, 0
0, 0
0, 0
0, 0
0, 0
0, 0
0, 0
0, 0
0, 0
0, 0
0, 0
0, 0
0, 0
0, 0
0, 0
0, 0
0, 0
0, 0
0, 0
0, 0
0, 0
0, 0
0, 0
0, 0
0, 0
0, 0
0, 0
0, 0
0, 0
0, 0
0, 0
0, 0
0, 0
0, 0
0, 0
0, 0
0, 0
0, 0
0, 0
0, 0
0, 0
0, 0
0, 0
0, 0
0, 0
0, 0
0, 0
0, 0
0, 0
0, 0
0, 0
0, 0
0, 0
0, 0
0, 0
0, 0
0, 0
0, 0
0, 0
0, 0
0, 0
0, 0
0, 0
0, 0
0, 0
0, 0
0, 0
0, 0
0, 0
0, 0
0, 0
0, 0
0, 0
0, 0
0, 0
0, 0
0, 0
0, 0
0, 0
0, 0
0, 0
0, 0
0, 0
0, 0
0, 0
0, 0
0, 0
0, 0
0, 0
0, 0
0, 0
0, 0
0, 0
0, 0
0, 0
0, 0
0, 0
0, 0
0, 0
0, 0
0, 0
0, 0
0, 0
0, 0
0, 0
0, 0
0, 0
0, 0
0, 0
0, 0
0, 0
0, 0
0, 0
0, 0
0, 0
0, 0
0, 0
0, 0
0, 0
0, 0
0, 0
0, 0
0, 0
0, 0
0, 0
0, 0
0, 0
0, 0
0, 0
0, 0
0, 0
0, 0
0, 0
0, 0
0, 0
0, 0
0, 0
0, 0
0, 0
0, 0
0, 0
0, 0
0, 0
0, 0
0, 0
0, 0
0, 0
0, 0
0, 0
0, 0
0, 0
0, 0
0, 0
0, 0
0, 0
0, 0
0, 0
0, 0
0, 0
0, 0
0, 0
0, 0
0, 0
0, 0
0, 0
0, 0
0, 0
0, 0
0, 0
0, 0
0, 0
0, 0
0, 0
0, 0
0, 0
0, 0
0, 0
0, 0
0, 0
0, 0
0, 0
0, 0
0, 0
0, 0
0, 0
0, 0
0, 0
0, 0
0, 0
0, 0
0, 0
0, 0
0, 0
0, 0
0, 0
0, 0
0, 0
0, 0
0, 0
0, 0
0, 0
0, 0
0, 0
0, 0
0, 0
0, 0
0, 0
0, 0
0, 0
0, 0
0, 0
0, 0
0, 0
0, 0
0, 0
0, 0
0, 0
0, 0
0, 0
0, 0
0, 0
0, 0
0, 0
0, 0
0, 0
0, 0
0, 0
0, 0
0, 0
0, 0
0, 0
0, 0
0, 0
0, 0
0, 0
0, 0
0, 0
0, 0
0, 0
0, 0
0, 0
0, 0
0, 0
0, 0
0, 0
0, 0
0, 0
0, 0
0, 0
0, 0
0, 0
0, 0
0, 0
0, 0
0, 0
0, 0
0, 0
0, 0
0, 0
0, 0
0, 0
0, 0
0, 0
0, 0
0, 0
0, 0
0, 0
0, 0
0, 0
0, 0
0, 0
0, 0
0, 0
0, 0
0, 0
0, 0
0, 0
0, 0
0, 0
0, 0
0, 0
0, 0
0, 0
0, 0
0, 0
0, 0
0, 0
0, 0
0, 0
0, 0
0, 0
0, 0
0, 0
#ENDOFDATA     end of spectrum data