File: host_upload/06-09-2024/ps_0852/dump3/ps__0852shot_2233.msa
#FORMAT      : EMSA/MAS spectral data file
#VERSION     : TC202v2.0 PIXL
#TITLE       : N/A
#DATE        :       Date in the format DD-MMM-YYYY, for example 07-JUL-2010
#TIME        :             The time of day at which the spectrum was recorded, in 24-hour format
#OWNER       : PIXL Flight Model       (PIXL will use this to indicate which instrument took the data.)
#NPOINTS     : 4096     Number of data points in the spectrum (This can be zero for configuration only files)
#NCOLUMNS    : 2     Number of data columns in the spectrum (This can be zero for configuration only files)
#XUNITS      : eV
#YUNITS      : COUNTS
#DATATYPE    : YY
#XPERCHAN    : 7.862, 7.881   eV per channel (separate by commas if more than one detector)
#OFFSET      : 18.5, -22.4         eV of first channel  (separate by commas if more than one detector
#SIGNALTYPE  : XRF
#YP_TEMP     : 2.267
#LIVETIME    : 8.56364, 8.55861   seconds (separate by commas if more than one detector)
#REALTIME    : 10, 10.0   seconds (separate by commas if more than one detector)
#SPECTRUM    : start of spectrum data
0, 0
0, 0
0, 0
0, 0
0, 0
0, 0
0, 0
0, 0
0, 0
0, 0
0, 0
0, 0
0, 0
0, 0
0, 0
0, 0
0, 0
0, 0
0, 0
0, 0
0, 0
0, 0
0, 0
0, 0
0, 0
0, 0
0, 0
0, 0
0, 0
0, 0
0, 0
0, 0
1, 0
0, 0
1, 0
1, 0
1, 0
1, 1
0, 0
0, 0
1, 3
1, 1
1, 1
0, 0
0, 0
0, 0
1, 4
1, 3
7, 5
17, 10
24, 18
30, 44
60, 49
86, 61
80, 69
62, 69
57, 54
34, 45
20, 25
7, 18
12, 11
8, 2
3, 6
3, 4
4, 1
0, 5
4, 6
6, 12
19, 21
43, 48
100, 101
178, 195
254, 302
338, 402
423, 461
395, 448
358, 422
300, 318
199, 202
113, 115
58, 65
43, 46
25, 19
11, 12
5, 11
1, 3
1, 4
1, 1
4, 0
4, 1
2, 0
1, 2
0, 2
3, 3
1, 1
2, 4
3, 3
2, 3
3, 4
6, 6
2, 6
5, 5
3, 2
4, 3
3, 6
5, 9
5, 8
9, 10
14, 12
26, 18
17, 29
29, 32
43, 47
37, 52
42, 51
39, 57
48, 40
48, 37
31, 43
28, 22
28, 22
21, 28
17, 27
25, 12
12, 13
12, 15
10, 7
14, 13
7, 9
2, 8
3, 5
8, 5
3, 2
2, 3
2, 1
1, 5
3, 2
0, 0
2, 3
3, 2
3, 1
1, 2
0, 0
2, 0
1, 2
0, 1
2, 1
2, 1
0, 1
3, 1
0, 1
9, 9
6, 3
8, 5
9, 12
8, 16
21, 17
21, 16
18, 20
16, 12
10, 13
4, 5
7, 10
5, 4
5, 8
2, 7
3, 4
7, 1
6, 2
3, 8
8, 7
3, 6
3, 3
2, 7
7, 7
5, 8
2, 10
3, 7
3, 14
2, 8
5, 6
7, 9
7, 4
6, 4
7, 6
5, 6
3, 8
4, 3
5, 3
9, 3
7, 8
11, 6
11, 14
15, 10
10, 15
19, 15
11, 14
15, 10
17, 15
7, 12
16, 11
12, 13
11, 13
4, 10
10, 6
3, 9
7, 11
3, 14
6, 15
1, 29
5, 39
3, 35
9, 43
5, 50
6, 49
6, 44
6, 30
8, 18
9, 21
11, 18
9, 9
7, 22
2, 11
12, 10
8, 10
10, 18
12, 13
15, 13
13, 13
13, 15
18, 16
22, 28
14, 11
18, 12
17, 11
7, 13
7, 11
9, 7
10, 10
13, 9
12, 5
16, 7
23, 6
13, 8
32, 14
33, 17
35, 27
29, 47
46, 58
55, 52
40, 78
51, 66
56, 62
51, 62
37, 47
38, 26
20, 20
22, 22
18, 21
10, 23
15, 24
27, 36
48, 44
67, 118
130, 226
283, 347
496, 581
763, 997
1113, 1477
1545, 1885
1884, 2256
2236, 2525
2303, 2631
2296, 2387
2077, 2079
1666, 1573
1256, 1101
876, 780
595, 446
346, 295
196, 154
99, 61
70, 53
35, 38
18, 19
11, 18
17, 10
14, 18
15, 16
22, 20
18, 21
35, 33
40, 59
70, 93
94, 116
120, 184
225, 247
240, 277
298, 357
325, 344
338, 350
359, 349
284, 268
257, 233
199, 170
139, 115
90, 77
62, 37
30, 28
29, 21
16, 15
9, 9
9, 14
12, 18
9, 18
25, 24
16, 35
12, 41
12, 44
10, 52
12, 42
8, 45
5, 39
10, 28
7, 33
11, 33
2, 15
6, 22
10, 10
10, 4
7, 7
3, 5
10, 3
12, 4
12, 3
7, 5
9, 1
6, 1
6, 5
4, 3
8, 3
8, 3
3, 9
2, 6
5, 7
4, 4
13, 7
5, 4
4, 1
7, 3
11, 4
4, 4
2, 3
3, 5
2, 4
3, 1
6, 4
1, 5
5, 2
4, 3
2, 5
4, 3
3, 5
5, 1
3, 5
1, 1
3, 1
5, 4
6, 5
3, 4
7, 7
8, 7
5, 3
5, 3
2, 7
7, 4
9, 5
5, 5
7, 7
4, 0
7, 1
1, 7
3, 8
2, 5
2, 0
5, 2
9, 10
5, 2
7, 5
5, 6
5, 7
6, 4
4, 6
5, 7
3, 11
2, 2
2, 1
7, 4
4, 1
1, 2
4, 4
4, 3
4, 6
3, 4
2, 4
1, 5
2, 4
4, 5
6, 10
3, 8
2, 5
2, 3
4, 5
4, 4
3, 5
7, 3
5, 4
1, 3
4, 5
5, 6
4, 8
3, 3
1, 2
6, 5
3, 2
2, 2
3, 5
1, 7
5, 5
2, 5
2, 7
1, 11
4, 9
2, 9
5, 11
3, 8
1, 12
4, 17
3, 6
8, 9
5, 1
1, 9
5, 4
3, 4
0, 3
3, 5
0, 6
0, 6
2, 8
4, 6
1, 3
4, 3
2, 1
3, 4
0, 2
3, 4
1, 1
4, 1
2, 1
5, 2
4, 2
5, 3
4, 1
4, 2
3, 1
2, 6
0, 2
2, 2
1, 3
4, 0
3, 2
4, 3
6, 2
7, 1
1, 3
1, 2
4, 3
5, 2
4, 2
2, 3
3, 5
1, 0
7, 4
2, 2
3, 2
1, 3
3, 1
2, 3
1, 6
0, 0
1, 3
3, 4
0, 4
1, 1
3, 1
2, 1
3, 1
1, 3
5, 2
2, 3
3, 4
1, 1
2, 1
1, 1
0, 1
1, 1
1, 3
4, 2
2, 0
1, 3
0, 2
2, 1
2, 4
1, 2
2, 4
2, 3
1, 2
1, 2
3, 0
3, 2
2, 1
2, 0
2, 3
2, 4
2, 2
4, 2
4, 6
4, 1
3, 5
3, 4
3, 4
2, 1
4, 2
2, 3
1, 0
3, 3
1, 7
3, 4
1, 4
0, 8
4, 3
4, 9
6, 2
0, 8
2, 7
5, 2
6, 1
1, 1
1, 4
3, 4
3, 3
2, 1
3, 1
0, 1
0, 3
4, 2
0, 1
0, 0
3, 0
0, 0
3, 3
1, 0
3, 2
3, 1
0, 2
2, 2
1, 2
4, 3
0, 2
4, 0
5, 2
2, 2
3, 2
1, 5
1, 1
1, 0
0, 1
4, 1
3, 1
2, 1
1, 2
1, 0
2, 0
0, 0
2, 1
1, 1
1, 2
0, 1
0, 1
0, 4
0, 1
1, 0
1, 2
0, 2
2, 0
0, 1
0, 1
1, 0
2, 1
1, 1
0, 1
1, 1
1, 1
1, 0
1, 1
1, 3
0, 1
0, 0
1, 0
1, 3
1, 0
1, 0
3, 0
1, 2
1, 1
0, 1
1, 0
2, 1
1, 0
0, 1
1, 0
2, 0
2, 1
0, 1
0, 2
2, 0
0, 2
3, 0
0, 1
0, 1
1, 0
1, 0
1, 0
1, 0
2, 1
1, 1
0, 0
1, 0
1, 1
1, 1
0, 0
1, 1
0, 0
3, 1
0, 2
1, 0
0, 3
2, 1
2, 2
1, 0
0, 0
2, 0
0, 0
0, 2
0, 1
2, 3
0, 2
0, 0
2, 0
1, 1
1, 0
1, 1
0, 0
0, 0
2, 0
0, 1
0, 2
1, 0
0, 1
0, 0
0, 1
0, 2
0, 0
0, 0
1, 2
0, 0
0, 1
0, 0
0, 1
2, 2
1, 0
0, 0
0, 0
0, 1
0, 0
0, 1
1, 0
0, 0
3, 0
0, 0
0, 2
0, 0
0, 0
1, 1
0, 0
1, 1
1, 0
1, 1
0, 0
1, 1
0, 2
0, 0
1, 0
1, 0
0, 0
1, 0
0, 0
0, 1
1, 1
0, 0
0, 0
0, 1
0, 1
0, 0
0, 0
1, 1
1, 0
2, 1
0, 0
0, 0
1, 0
0, 0
0, 1
0, 0
1, 0
0, 0
0, 0
0, 0
1, 0
0, 1
1, 0
1, 0
0, 0
0, 0
0, 0
0, 0
0, 0
2, 0
0, 0
0, 1
0, 1
1, 0
1, 0
1, 0
0, 0
0, 0
0, 0
0, 0
0, 1
0, 0
0, 0
1, 0
0, 0
0, 0
0, 0
0, 0
0, 0
0, 0
0, 0
0, 0
0, 0
0, 0
0, 0
0, 0
0, 0
0, 0
0, 0
0, 1
0, 0
0, 0
1, 0
0, 0
0, 0
0, 0
1, 0
0, 0
0, 0
1, 1
0, 0
0, 0
0, 0
0, 0
0, 1
0, 1
1, 1
1, 0
0, 0
1, 2
0, 0
1, 1
0, 0
0, 0
0, 0
0, 1
0, 0
0, 0
0, 0
0, 0
0, 1
1, 0
1, 0
0, 0
0, 0
0, 0
0, 1
0, 0
0, 0
0, 0
0, 0
1, 0
0, 0
2, 0
1, 0
0, 0
0, 1
0, 0
0, 0
0, 0
1, 2
1, 0
1, 0
0, 0
1, 0
0, 0
0, 0
0, 0
0, 0
1, 0
0, 0
0, 0
0, 1
1, 0
0, 1
0, 0
0, 0
0, 0
0, 0
0, 1
0, 0
0, 0
0, 0
0, 0
0, 0
0, 0
0, 0
0, 0
0, 0
0, 0
0, 0
0, 0
0, 1
0, 0
2, 0
0, 1
1, 0
0, 0
1, 0
0, 0
0, 0
1, 0
0, 0
0, 0
0, 1
0, 0
0, 0
0, 0
0, 0
0, 0
0, 0
0, 0
1, 0
0, 0
0, 0
0, 0
0, 0
0, 0
0, 0
0, 0
0, 0
0, 0
0, 0
0, 0
0, 0
0, 0
0, 0
0, 0
0, 0
0, 0
0, 0
0, 0
0, 0
0, 0
0, 0
0, 0
0, 0
0, 0
0, 0
0, 0
0, 0
0, 0
0, 0
0, 0
0, 0
0, 0
0, 1
0, 0
0, 0
0, 0
0, 0
0, 0
0, 0
0, 0
0, 0
0, 0
0, 0
0, 0
0, 0
0, 0
0, 0
0, 0
0, 0
0, 0
0, 0
0, 0
0, 1
0, 0
0, 0
0, 0
0, 1
0, 0
0, 0
0, 0
0, 0
0, 0
0, 0
0, 0
0, 0
0, 0
0, 0
0, 0
0, 0
0, 0
0, 0
0, 0
0, 0
0, 0
0, 0
0, 0
0, 0
0, 0
0, 0
0, 0
0, 0
0, 0
0, 0
0, 0
0, 0
0, 0
0, 0
0, 0
0, 0
0, 0
0, 0
0, 0
0, 0
0, 0
1, 0
0, 0
0, 0
0, 0
0, 0
0, 0
0, 0
0, 0
0, 0
0, 1
0, 0
0, 0
0, 0
0, 0
0, 0
0, 0
0, 0
1, 0
0, 0
0, 0
0, 0
0, 0
0, 0
0, 0
0, 0
0, 0
0, 0
0, 0
1, 0
0, 0
0, 0
0, 0
0, 0
0, 0
0, 0
0, 0
0, 0
0, 0
0, 0
0, 0
0, 0
0, 0
0, 0
0, 0
0, 0
0, 0
0, 0
0, 0
0, 0
0, 0
0, 0
0, 0
0, 0
0, 0
0, 0
0, 0
0, 0
0, 0
0, 0
0, 0
0, 0
0, 1
0, 0
0, 0
0, 0
0, 0
0, 0
0, 0
0, 0
0, 0
0, 0
0, 0
0, 0
0, 0
0, 0
0, 1
0, 0
0, 0
0, 0
0, 0
0, 0
0, 0
0, 0
0, 0
0, 0
0, 0
0, 0
0, 0
0, 0
0, 0
0, 0
0, 0
0, 0
0, 0
0, 0
0, 0
0, 0
0, 0
0, 0
0, 0
0, 0
0, 0
0, 0
0, 0
0, 0
0, 0
0, 0
0, 0
0, 0
0, 0
0, 0
0, 0
0, 0
0, 0
0, 0
1, 0
0, 0
0, 0
0, 0
0, 0
0, 0
0, 0
0, 0
0, 0
0, 0
0, 0
0, 0
0, 0
0, 0
0, 0
0, 0
0, 0
0, 0
0, 0
0, 0
0, 0
0, 0
0, 0
0, 0
0, 0
0, 0
0, 0
0, 0
0, 0
0, 0
0, 0
0, 0
0, 0
0, 0
0, 0
0, 0
0, 0
0, 0
0, 0
0, 0
0, 0
0, 0
0, 0
0, 0
0, 0
0, 0
0, 0
0, 0
0, 0
0, 0
0, 0
0, 0
0, 0
0, 0
0, 0
0, 0
0, 0
0, 0
0, 0
0, 0
0, 0
0, 0
0, 0
0, 0
0, 0
0, 0
0, 0
0, 0
0, 0
0, 0
0, 0
0, 0
0, 0
0, 0
0, 0
0, 0
0, 0
0, 0
0, 0
0, 0
0, 0
1, 0
0, 0
0, 0
0, 0
0, 0
0, 0
0, 0
0, 0
0, 0
0, 0
0, 0
0, 0
0, 0
0, 0
0, 0
0, 0
0, 0
0, 0
0, 0
0, 0
0, 0
0, 0
0, 0
0, 0
0, 0
0, 0
0, 0
0, 0
0, 0
0, 0
0, 0
0, 0
0, 0
0, 0
0, 0
0, 0
0, 0
0, 0
0, 0
0, 0
0, 0
0, 0
0, 0
0, 0
0, 0
0, 0
0, 0
0, 0
0, 0
0, 0
0, 0
0, 0
0, 0
0, 0
0, 0
0, 0
0, 0
0, 0
0, 0
0, 0
0, 0
0, 0
0, 0
0, 0
0, 0
0, 0
0, 0
0, 0
0, 0
0, 0
0, 0
0, 0
0, 0
0, 0
0, 0
0, 0
0, 0
0, 0
0, 0
0, 0
0, 0
0, 0
0, 0
0, 0
0, 0
0, 0
0, 0
0, 0
0, 0
0, 0
0, 0
0, 0
0, 0
0, 0
0, 0
0, 0
0, 0
0, 0
0, 0
0, 0
0, 0
0, 0
0, 0
0, 0
0, 0
0, 0
0, 0
0, 0
0, 0
0, 0
0, 0
0, 0
0, 0
0, 0
0, 0
0, 0
0, 0
0, 0
0, 0
0, 0
0, 0
0, 0
0, 0
0, 0
0, 0
0, 0
0, 0
0, 0
0, 0
0, 0
0, 0
0, 0
0, 0
0, 0
0, 0
0, 0
0, 0
0, 0
0, 0
0, 0
0, 0
0, 0
0, 0
0, 0
0, 0
0, 0
0, 0
0, 0
0, 0
0, 0
0, 0
0, 0
0, 0
0, 0
0, 0
0, 0
0, 0
0, 0
0, 0
0, 0
0, 0
0, 0
0, 0
0, 0
0, 0
0, 0
0, 0
0, 0
0, 0
0, 0
0, 0
0, 0
0, 0
0, 0
0, 0
0, 0
0, 0
0, 0
0, 0
0, 0
0, 0
0, 0
0, 0
0, 0
0, 0
0, 0
0, 0
0, 0
0, 0
0, 0
0, 0
0, 0
0, 0
0, 0
0, 0
0, 0
0, 0
0, 0
0, 0
0, 0
0, 0
0, 0
0, 0
0, 0
#ENDOFDATA     end of spectrum data