File: host_upload/06-09-2024/ps_0852/dump3/ps__0852shot_2321.msa
#FORMAT      : EMSA/MAS spectral data file
#VERSION     : TC202v2.0 PIXL
#TITLE       : N/A
#DATE        :       Date in the format DD-MMM-YYYY, for example 07-JUL-2010
#TIME        :             The time of day at which the spectrum was recorded, in 24-hour format
#OWNER       : PIXL Flight Model       (PIXL will use this to indicate which instrument took the data.)
#NPOINTS     : 4096     Number of data points in the spectrum (This can be zero for configuration only files)
#NCOLUMNS    : 2     Number of data columns in the spectrum (This can be zero for configuration only files)
#XUNITS      : eV
#YUNITS      : COUNTS
#DATATYPE    : YY
#XPERCHAN    : 7.862, 7.881   eV per channel (separate by commas if more than one detector)
#OFFSET      : 18.5, -22.4         eV of first channel  (separate by commas if more than one detector
#SIGNALTYPE  : XRF
#YP_TEMP     : 2.139
#LIVETIME    : 8.57287, 8.55474   seconds (separate by commas if more than one detector)
#REALTIME    : 10, 10.0   seconds (separate by commas if more than one detector)
#SPECTRUM    : start of spectrum data
0, 0
0, 0
0, 0
0, 0
0, 0
0, 0
0, 0
0, 0
0, 0
0, 0
0, 0
0, 0
0, 0
0, 0
0, 0
0, 0
0, 0
0, 0
0, 0
0, 0
0, 0
0, 0
0, 0
0, 0
0, 0
0, 0
0, 0
0, 0
0, 0
0, 1
0, 0
1, 0
0, 0
0, 0
0, 0
0, 0
0, 0
1, 0
3, 1
2, 3
0, 0
2, 0
1, 0
0, 3
0, 1
3, 2
2, 0
3, 5
6, 5
12, 13
18, 23
42, 37
52, 61
54, 67
65, 83
58, 66
49, 65
39, 41
17, 27
9, 11
9, 13
6, 3
2, 6
1, 3
1, 3
4, 6
5, 3
7, 7
19, 33
39, 66
98, 99
162, 195
248, 280
373, 383
404, 493
399, 441
343, 394
272, 335
165, 195
115, 128
56, 81
40, 48
16, 13
14, 7
6, 9
1, 3
2, 3
2, 1
0, 0
0, 2
1, 2
1, 1
0, 0
1, 2
1, 1
4, 4
0, 8
3, 4
4, 4
3, 5
2, 2
6, 2
1, 2
3, 5
1, 4
8, 5
9, 3
9, 11
16, 10
21, 30
30, 34
38, 46
49, 51
44, 55
50, 47
44, 60
48, 47
26, 46
19, 30
22, 31
23, 24
20, 19
21, 29
24, 24
13, 28
16, 15
14, 24
14, 18
8, 14
12, 5
8, 9
1, 7
3, 5
5, 2
3, 6
3, 5
4, 5
3, 4
1, 1
0, 1
2, 5
1, 4
4, 4
2, 1
2, 0
2, 1
5, 2
1, 0
4, 1
2, 1
4, 4
7, 6
7, 6
14, 11
19, 18
22, 31
24, 26
23, 35
32, 36
27, 19
23, 16
21, 9
30, 13
41, 5
43, 4
54, 3
65, 8
71, 4
81, 4
83, 8
52, 3
45, 9
38, 4
27, 5
24, 2
10, 1
9, 2
8, 2
3, 5
6, 2
7, 7
5, 2
0, 3
1, 7
5, 2
3, 2
1, 7
5, 9
4, 9
9, 8
10, 7
9, 6
15, 11
12, 19
10, 14
9, 13
14, 17
12, 21
15, 21
6, 13
14, 14
5, 16
5, 14
9, 9
6, 4
4, 4
5, 8
3, 4
9, 6
11, 5
7, 2
5, 7
6, 10
9, 4
8, 9
6, 12
5, 12
5, 17
7, 15
1, 18
4, 22
2, 14
6, 15
10, 18
7, 11
5, 18
17, 13
17, 14
16, 16
26, 26
26, 33
26, 14
31, 17
18, 21
25, 8
25, 7
17, 6
14, 10
10, 5
8, 7
12, 12
8, 7
7, 6
13, 11
9, 16
23, 12
23, 43
26, 40
39, 45
60, 48
49, 83
56, 63
57, 58
47, 52
39, 38
32, 38
26, 12
20, 26
16, 16
16, 18
15, 25
27, 28
39, 66
59, 106
137, 197
246, 376
453, 636
670, 1008
1040, 1453
1533, 1857
1859, 2309
2164, 2592
2359, 2618
2301, 2476
2048, 2102
1645, 1489
1223, 1160
867, 841
582, 467
323, 268
155, 138
90, 85
42, 37
28, 22
19, 12
2, 13
18, 15
12, 18
13, 20
20, 22
18, 21
27, 28
35, 45
59, 72
100, 133
157, 186
194, 236
215, 294
281, 343
354, 398
337, 381
346, 333
292, 272
262, 199
187, 160
126, 102
85, 62
40, 30
31, 26
23, 16
9, 6
8, 9
10, 7
5, 15
6, 11
12, 18
11, 19
13, 14
9, 13
18, 20
19, 18
9, 20
6, 14
12, 5
9, 20
8, 13
13, 13
15, 7
24, 5
21, 8
31, 6
48, 7
46, 5
57, 4
59, 3
67, 8
48, 8
49, 9
44, 4
42, 5
20, 8
20, 12
17, 13
8, 12
7, 14
8, 8
5, 14
12, 6
2, 10
6, 4
0, 5
7, 11
4, 8
2, 5
7, 5
2, 5
7, 5
5, 2
2, 4
2, 2
2, 6
5, 5
2, 7
1, 5
4, 6
3, 8
2, 8
4, 6
3, 3
2, 6
4, 6
1, 8
3, 7
0, 5
6, 5
3, 1
3, 3
3, 1
2, 5
6, 8
6, 4
7, 2
4, 5
11, 7
6, 3
6, 8
4, 7
6, 3
0, 2
3, 3
1, 6
6, 5
2, 2
1, 2
3, 4
6, 6
6, 7
5, 4
6, 4
5, 4
12, 1
8, 2
19, 0
10, 3
4, 1
8, 3
5, 2
8, 3
6, 4
6, 4
5, 4
6, 3
2, 1
1, 0
2, 3
0, 6
7, 6
1, 3
2, 5
2, 4
3, 6
3, 3
3, 3
0, 1
3, 5
0, 4
0, 4
2, 0
3, 3
3, 1
1, 4
5, 1
7, 2
2, 3
4, 5
5, 6
5, 3
0, 1
2, 4
4, 5
8, 4
5, 1
8, 6
2, 4
9, 5
4, 2
2, 4
3, 9
1, 2
2, 3
2, 4
3, 2
3, 2
3, 3
1, 1
2, 1
1, 1
2, 3
2, 4
0, 5
1, 0
2, 4
4, 2
2, 4
0, 4
3, 5
4, 8
2, 5
0, 4
3, 5
2, 3
1, 2
2, 1
2, 1
1, 3
1, 2
0, 2
1, 5
2, 3
1, 3
3, 1
3, 3
1, 4
3, 4
1, 6
4, 1
1, 1
1, 0
1, 2
2, 2
3, 4
1, 0
1, 3
0, 2
3, 2
3, 0
2, 1
2, 4
3, 3
2, 1
3, 1
2, 4
5, 0
3, 6
5, 1
1, 2
4, 3
1, 1
0, 2
5, 1
1, 2
3, 0
1, 3
0, 3
1, 3
1, 1
1, 2
2, 1
1, 4
0, 3
1, 0
2, 1
2, 1
0, 3
3, 1
0, 2
6, 3
2, 0
1, 4
0, 2
2, 5
4, 1
4, 2
4, 1
0, 3
0, 4
4, 3
7, 6
5, 8
3, 3
2, 13
3, 2
4, 5
5, 4
5, 5
5, 4
1, 5
6, 3
2, 6
4, 2
3, 5
5, 3
1, 1
2, 0
2, 0
2, 1
2, 0
1, 0
0, 2
1, 2
0, 1
1, 1
0, 3
0, 5
1, 0
0, 2
0, 2
0, 2
1, 0
3, 3
1, 2
2, 4
3, 1
1, 1
0, 1
1, 2
1, 2
2, 1
0, 0
1, 2
0, 1
3, 1
2, 1
0, 2
1, 1
2, 1
0, 1
1, 1
2, 0
0, 1
1, 2
1, 2
1, 1
1, 1
1, 1
0, 2
0, 1
0, 1
0, 1
0, 1
0, 0
0, 2
2, 0
0, 1
1, 0
0, 0
1, 0
1, 1
1, 0
1, 0
1, 0
2, 1
1, 0
4, 2
1, 1
0, 2
0, 0
1, 0
0, 1
2, 3
0, 2
1, 1
0, 0
0, 4
1, 0
0, 0
0, 0
1, 0
2, 1
1, 0
0, 0
0, 1
0, 1
0, 2
0, 0
1, 0
1, 3
0, 0
0, 1
1, 2
1, 0
2, 0
0, 0
0, 1
2, 1
1, 2
1, 0
0, 1
0, 1
0, 3
0, 0
2, 1
0, 0
0, 1
1, 1
0, 1
0, 1
0, 0
0, 0
0, 2
0, 1
1, 0
0, 1
0, 0
2, 1
1, 0
0, 0
0, 2
0, 0
0, 0
0, 0
0, 0
1, 0
0, 0
0, 0
1, 0
0, 2
1, 0
0, 1
0, 0
0, 0
0, 1
0, 0
1, 0
0, 0
0, 4
0, 2
0, 0
0, 0
1, 1
0, 0
0, 1
0, 1
0, 0
0, 2
0, 1
0, 0
0, 0
0, 0
0, 0
0, 0
1, 0
0, 0
0, 1
2, 0
0, 0
0, 0
0, 0
0, 0
0, 0
0, 0
0, 1
0, 0
0, 2
0, 0
0, 0
0, 0
2, 0
0, 0
1, 0
0, 0
1, 0
2, 0
0, 0
0, 0
0, 3
0, 0
0, 0
0, 0
0, 0
0, 0
0, 0
0, 0
0, 0
0, 2
0, 0
0, 0
0, 1
0, 0
0, 1
0, 0
0, 2
0, 0
0, 0
0, 1
0, 0
0, 0
0, 0
1, 0
0, 0
0, 1
0, 0
0, 0
1, 0
0, 0
0, 0
0, 1
0, 1
0, 1
0, 0
0, 0
0, 0
0, 0
0, 0
0, 0
0, 0
0, 0
0, 0
0, 0
1, 1
0, 0
1, 0
0, 0
0, 1
0, 0
0, 0
0, 0
0, 1
1, 2
1, 1
0, 1
0, 0
0, 1
0, 0
0, 0
1, 1
1, 0
0, 0
0, 0
1, 0
0, 1
1, 1
2, 0
0, 0
0, 1
1, 2
2, 0
0, 0
0, 0
0, 0
0, 0
0, 0
0, 0
0, 0
0, 0
0, 0
0, 0
0, 0
0, 0
1, 1
1, 0
1, 0
0, 0
0, 0
0, 0
0, 0
0, 1
0, 0
0, 0
0, 1
0, 0
0, 0
0, 1
0, 0
0, 0
0, 0
0, 0
0, 0
0, 0
1, 0
0, 0
1, 0
0, 0
0, 0
0, 0
0, 1
0, 0
0, 0
0, 0
0, 1
0, 0
0, 0
0, 0
0, 0
0, 1
0, 0
0, 0
0, 0
1, 0
0, 0
0, 0
0, 0
0, 0
0, 0
0, 0
0, 0
0, 0
0, 1
0, 0
0, 1
0, 1
0, 0
0, 1
0, 0
1, 2
0, 0
0, 0
0, 0
0, 0
0, 0
0, 0
0, 0
0, 0
0, 0
0, 0
0, 0
0, 0
0, 0
0, 0
0, 0
0, 0
0, 0
0, 0
0, 0
0, 0
0, 0
0, 0
0, 0
0, 1
0, 0
0, 0
0, 0
1, 2
0, 0
0, 0
0, 0
0, 0
0, 0
0, 0
0, 0
0, 0
0, 0
0, 0
0, 0
0, 0
0, 0
0, 0
0, 0
0, 0
0, 0
0, 0
0, 0
0, 0
0, 0
0, 0
0, 0
0, 0
0, 0
0, 0
0, 0
0, 0
0, 0
0, 0
0, 0
1, 0
0, 0
0, 0
0, 0
0, 0
0, 0
0, 0
1, 0
0, 0
0, 0
0, 0
0, 0
0, 0
0, 0
0, 0
0, 0
0, 0
0, 0
0, 0
0, 0
0, 0
0, 0
0, 0
0, 0
0, 0
0, 0
0, 0
0, 0
0, 0
0, 0
0, 0
0, 0
0, 0
0, 0
0, 0
0, 0
0, 0
0, 0
0, 0
0, 0
0, 0
0, 0
0, 0
0, 0
0, 0
0, 0
0, 0
0, 0
0, 0
0, 0
0, 0
0, 0
0, 0
0, 0
0, 0
0, 0
0, 0
0, 0
0, 0
0, 0
0, 0
0, 0
0, 0
0, 0
0, 0
0, 0
0, 0
0, 0
0, 0
0, 0
0, 0
0, 0
0, 0
0, 0
0, 0
0, 0
0, 0
0, 0
0, 0
0, 0
0, 0
0, 0
0, 0
0, 0
0, 0
0, 0
0, 0
0, 0
0, 0
0, 0
0, 0
0, 0
0, 0
0, 0
0, 0
0, 0
0, 0
0, 0
0, 0
0, 0
0, 0
0, 0
0, 0
0, 0
0, 0
0, 0
0, 0
0, 0
0, 0
0, 0
0, 0
0, 0
0, 0
0, 0
0, 0
0, 0
0, 0
0, 0
0, 0
0, 0
0, 0
0, 0
0, 0
0, 0
0, 0
0, 0
0, 0
0, 0
0, 0
0, 0
0, 0
0, 0
0, 0
0, 0
0, 0
0, 0
0, 0
0, 0
0, 0
0, 0
0, 0
0, 0
0, 0
0, 0
0, 0
0, 0
0, 0
0, 0
0, 0
0, 0
0, 0
0, 0
0, 0
0, 0
0, 0
0, 0
0, 0
0, 0
0, 0
0, 0
0, 0
0, 0
0, 0
0, 0
0, 0
0, 0
0, 0
0, 0
0, 0
0, 0
0, 0
0, 0
0, 0
0, 0
0, 0
0, 0
0, 0
0, 0
0, 0
0, 0
0, 0
0, 0
0, 0
0, 0
0, 0
0, 0
0, 0
0, 0
0, 0
0, 0
0, 0
0, 0
0, 0
0, 0
0, 0
0, 0
0, 0
0, 0
0, 0
0, 0
0, 0
0, 0
0, 0
0, 0
0, 0
0, 0
0, 0
0, 0
0, 0
0, 0
0, 0
0, 0
0, 0
0, 0
0, 0
0, 0
0, 0
0, 0
0, 0
0, 0
0, 0
0, 0
0, 0
0, 0
0, 0
0, 0
0, 0
0, 0
0, 0
0, 0
0, 0
0, 0
0, 0
0, 0
0, 0
0, 0
0, 0
0, 0
0, 0
0, 0
0, 0
0, 0
0, 0
0, 0
0, 0
0, 0
0, 0
0, 0
0, 0
0, 0
0, 0
0, 0
0, 0
0, 0
0, 0
0, 0
0, 0
0, 0
0, 0
0, 0
0, 0
0, 0
0, 0
0, 0
0, 0
0, 0
0, 0
0, 0
0, 0
0, 0
0, 0
0, 0
0, 0
0, 0
0, 0
0, 0
0, 0
0, 0
0, 0
0, 0
0, 0
0, 0
0, 0
0, 0
0, 0
0, 0
0, 0
0, 0
0, 0
0, 0
0, 0
0, 0
0, 0
0, 0
0, 0
0, 0
0, 0
0, 0
0, 0
0, 0
0, 0
0, 0
0, 0
0, 0
0, 0
0, 0
0, 0
0, 0
0, 0
0, 0
0, 0
0, 0
0, 0
0, 0
0, 0
0, 0
0, 0
0, 0
0, 0
0, 0
0, 0
0, 0
0, 0
0, 0
0, 0
0, 0
0, 0
0, 0
0, 0
0, 0
0, 0
0, 0
0, 0
0, 0
0, 0
0, 0
0, 0
0, 0
0, 0
0, 0
0, 0
0, 0
0, 0
0, 0
0, 0
0, 0
0, 0
0, 0
0, 0
0, 0
0, 0
0, 0
0, 0
0, 0
0, 0
0, 0
0, 0
0, 0
0, 0
0, 0
0, 0
0, 0
0, 0
0, 0
0, 0
0, 0
0, 0
0, 0
0, 0
0, 0
0, 0
0, 0
0, 0
0, 0
0, 0
0, 0
0, 0
0, 0
0, 0
0, 0
0, 0
0, 0
0, 0
0, 0
0, 0
0, 0
0, 0
0, 0
0, 0
0, 0
0, 0
0, 0
0, 0
0, 0
0, 0
0, 0
0, 0
0, 0
0, 0
0, 0
0, 0
0, 0
0, 0
0, 0
0, 0
0, 0
0, 0
0, 0
0, 0
0, 0
0, 0
0, 0
0, 0
0, 0
0, 0
0, 0
0, 0
0, 0
0, 0
0, 0
0, 0
0, 0
0, 0
0, 0
0, 0
0, 0
0, 0
0, 0
0, 0
0, 0
0, 0
0, 0
0, 0
0, 0
0, 0
0, 0
0, 0
0, 0
0, 0
0, 0
0, 0
0, 0
#ENDOFDATA     end of spectrum data