File: host_upload/06-09-2024/ps_0852/dump3/ps__0852shot_2301.msa
#FORMAT      : EMSA/MAS spectral data file
#VERSION     : TC202v2.0 PIXL
#TITLE       : N/A
#DATE        :       Date in the format DD-MMM-YYYY, for example 07-JUL-2010
#TIME        :             The time of day at which the spectrum was recorded, in 24-hour format
#OWNER       : PIXL Flight Model       (PIXL will use this to indicate which instrument took the data.)
#NPOINTS     : 4096     Number of data points in the spectrum (This can be zero for configuration only files)
#NCOLUMNS    : 2     Number of data columns in the spectrum (This can be zero for configuration only files)
#XUNITS      : eV
#YUNITS      : COUNTS
#DATATYPE    : YY
#XPERCHAN    : 7.862, 7.881   eV per channel (separate by commas if more than one detector)
#OFFSET      : 18.5, -22.4         eV of first channel  (separate by commas if more than one detector
#SIGNALTYPE  : XRF
#YP_TEMP     : 2.524
#LIVETIME    : 8.55765, 8.57729   seconds (separate by commas if more than one detector)
#REALTIME    : 10, 10.0   seconds (separate by commas if more than one detector)
#SPECTRUM    : start of spectrum data
0, 0
0, 0
0, 0
0, 0
0, 0
0, 0
0, 0
0, 0
0, 0
0, 0
0, 0
0, 0
0, 0
0, 0
0, 0
0, 0
0, 0
0, 0
0, 0
0, 0
0, 0
0, 0
0, 0
0, 0
0, 0
0, 0
0, 0
0, 0
0, 0
0, 0
0, 0
0, 2
0, 0
0, 0
0, 0
0, 1
0, 1
2, 0
0, 1
0, 3
0, 0
0, 1
2, 0
0, 0
1, 2
4, 1
2, 1
5, 2
10, 4
8, 2
27, 37
38, 36
62, 48
68, 64
85, 83
86, 68
77, 62
47, 48
29, 26
22, 15
6, 6
8, 2
8, 1
1, 1
2, 1
4, 2
7, 2
12, 10
16, 26
50, 45
81, 101
201, 167
277, 267
407, 377
412, 414
428, 423
370, 376
307, 291
207, 182
142, 127
68, 72
42, 43
27, 20
16, 11
6, 4
3, 3
1, 5
3, 1
1, 1
3, 1
2, 2
1, 1
1, 2
1, 2
3, 2
2, 1
1, 1
4, 0
2, 1
4, 4
6, 5
5, 2
4, 1
3, 1
1, 4
1, 4
3, 1
2, 5
2, 5
9, 3
7, 6
12, 9
16, 24
21, 26
31, 29
33, 28
19, 36
29, 16
22, 18
25, 15
32, 23
22, 20
17, 19
20, 11
30, 11
17, 5
13, 12
8, 7
7, 7
6, 5
4, 4
4, 4
3, 1
1, 4
3, 3
5, 3
2, 3
3, 3
0, 6
1, 2
1, 3
4, 2
1, 2
2, 4
3, 4
2, 2
3, 2
4, 4
3, 7
1, 6
7, 7
6, 4
13, 10
21, 17
28, 21
25, 16
25, 25
23, 27
27, 25
20, 27
24, 20
15, 4
5, 8
10, 6
6, 4
3, 7
6, 7
3, 4
3, 5
4, 2
5, 9
1, 2
6, 5
6, 8
5, 5
4, 3
4, 3
4, 4
3, 6
4, 8
4, 2
4, 5
4, 3
0, 3
6, 1
8, 2
5, 2
5, 2
9, 7
7, 7
8, 5
10, 9
11, 14
12, 10
11, 14
17, 14
18, 23
15, 20
3, 24
16, 18
16, 16
17, 14
15, 19
7, 13
12, 15
6, 6
8, 10
2, 12
8, 5
10, 13
9, 4
4, 4
9, 11
8, 3
2, 8
7, 7
10, 7
5, 16
8, 4
7, 12
12, 9
3, 6
4, 6
5, 6
11, 10
6, 4
13, 8
15, 18
17, 11
23, 18
32, 17
36, 17
38, 15
30, 11
43, 8
47, 10
51, 12
31, 11
26, 10
22, 19
6, 18
10, 14
13, 13
10, 19
18, 16
20, 25
26, 32
41, 39
50, 48
55, 58
64, 54
72, 56
64, 51
46, 46
57, 29
33, 37
24, 17
23, 14
14, 18
18, 14
20, 12
28, 25
43, 65
93, 105
157, 179
308, 346
494, 557
768, 971
1179, 1346
1571, 1753
2022, 2116
2311, 2364
2441, 2406
2427, 2232
2121, 1971
1800, 1523
1319, 1078
922, 754
595, 465
372, 251
185, 145
118, 79
72, 39
31, 23
20, 23
11, 17
12, 12
14, 14
5, 12
20, 32
29, 23
31, 42
48, 60
67, 92
108, 113
136, 185
206, 227
240, 281
316, 338
328, 389
377, 346
341, 321
336, 277
271, 219
212, 151
127, 124
86, 73
60, 46
45, 25
25, 14
20, 10
14, 5
13, 5
14, 8
17, 14
11, 13
17, 12
14, 17
10, 12
14, 19
10, 6
6, 16
10, 9
11, 8
8, 4
2, 4
2, 9
7, 4
5, 4
8, 6
7, 2
3, 0
3, 5
6, 1
8, 4
4, 2
3, 5
6, 8
7, 5
3, 9
5, 8
0, 12
4, 8
3, 7
6, 9
13, 8
6, 13
1, 4
5, 10
5, 9
10, 6
5, 6
8, 3
4, 2
3, 3
4, 3
6, 3
3, 2
3, 3
3, 4
4, 4
6, 11
6, 6
2, 5
3, 10
11, 5
3, 7
10, 9
10, 5
7, 5
10, 4
3, 4
10, 3
10, 4
3, 2
5, 3
3, 8
3, 3
4, 5
3, 5
7, 6
4, 4
2, 7
2, 11
4, 8
3, 9
6, 18
1, 15
2, 22
2, 20
4, 13
5, 20
2, 13
5, 9
2, 15
2, 18
1, 5
2, 3
2, 6
2, 5
4, 5
3, 6
5, 2
2, 1
1, 5
5, 4
6, 2
4, 2
2, 6
3, 4
3, 2
5, 5
9, 6
3, 3
1, 5
3, 4
3, 1
4, 2
1, 3
2, 2
2, 7
1, 5
5, 1
7, 2
4, 5
6, 2
5, 2
2, 5
2, 2
4, 4
6, 2
4, 0
4, 1
6, 3
3, 4
4, 4
2, 3
0, 2
4, 3
5, 2
2, 3
1, 3
2, 2
1, 4
1, 1
3, 5
4, 2
5, 2
6, 2
2, 0
3, 5
2, 4
3, 1
4, 4
3, 5
3, 1
3, 1
5, 3
3, 4
1, 3
4, 2
2, 2
5, 4
9, 2
4, 3
4, 3
5, 2
4, 4
4, 5
4, 5
0, 2
0, 5
2, 4
2, 5
4, 3
2, 3
5, 3
2, 2
2, 2
0, 4
2, 1
6, 5
1, 2
1, 5
1, 4
2, 1
1, 0
2, 0
0, 4
5, 2
1, 7
4, 5
6, 6
0, 3
2, 1
2, 2
3, 1
3, 5
0, 0
0, 4
1, 5
1, 2
0, 2
3, 0
4, 1
1, 1
1, 3
0, 0
1, 1
4, 1
3, 0
0, 1
3, 1
2, 0
1, 2
1, 3
0, 1
2, 1
5, 2
2, 3
5, 1
3, 2
3, 0
1, 0
10, 0
3, 2
6, 0
3, 2
8, 1
4, 2
3, 2
6, 2
1, 3
1, 1
2, 1
1, 3
1, 0
4, 5
3, 0
4, 1
4, 5
1, 1
5, 9
4, 4
8, 3
3, 5
3, 5
6, 0
0, 1
2, 2
1, 0
0, 0
1, 1
1, 0
2, 1
0, 0
0, 1
1, 1
0, 1
3, 2
2, 1
1, 0
1, 1
2, 1
1, 0
1, 0
1, 1
3, 1
2, 1
0, 2
4, 2
2, 4
2, 2
0, 1
3, 1
4, 1
1, 0
2, 1
2, 0
1, 1
0, 0
1, 2
1, 1
0, 0
0, 0
2, 0
0, 0
2, 0
0, 3
1, 3
1, 1
0, 0
3, 1
0, 1
1, 2
0, 0
1, 0
1, 0
0, 2
1, 0
1, 1
3, 1
1, 0
1, 0
3, 2
0, 0
0, 0
3, 1
0, 1
2, 1
1, 0
0, 1
0, 1
2, 1
0, 0
2, 2
2, 1
1, 0
1, 1
1, 0
0, 2
0, 1
1, 1
1, 0
1, 0
1, 1
0, 0
0, 0
0, 2
2, 0
0, 1
3, 0
0, 1
0, 0
1, 0
1, 1
0, 1
0, 1
0, 1
0, 0
2, 1
1, 0
1, 0
1, 1
1, 0
0, 1
0, 1
0, 0
1, 3
0, 2
0, 1
0, 2
1, 0
1, 0
0, 0
1, 2
1, 1
0, 0
0, 1
0, 1
2, 0
0, 0
0, 2
1, 0
0, 1
1, 0
0, 0
0, 1
1, 0
0, 0
1, 0
1, 0
0, 0
0, 0
0, 1
0, 0
2, 1
1, 1
0, 0
0, 0
2, 1
1, 0
1, 0
0, 0
0, 2
0, 0
1, 1
2, 1
0, 2
1, 2
0, 1
0, 0
0, 0
0, 0
0, 1
0, 1
1, 0
1, 1
0, 1
0, 0
0, 1
0, 0
0, 0
0, 0
0, 0
2, 1
0, 2
0, 1
0, 0
0, 0
0, 0
1, 0
2, 0
0, 1
0, 0
1, 0
0, 0
0, 0
0, 2
0, 0
0, 0
0, 0
0, 0
0, 0
0, 1
0, 0
0, 0
1, 0
0, 0
0, 0
0, 1
1, 0
0, 1
1, 0
0, 0
1, 2
0, 0
0, 0
0, 0
0, 0
0, 0
0, 0
1, 0
0, 0
1, 0
2, 0
0, 0
0, 0
0, 0
0, 0
2, 0
1, 0
0, 0
0, 1
0, 1
0, 1
0, 0
0, 0
0, 0
0, 0
1, 0
1, 0
0, 0
0, 0
0, 0
0, 1
1, 0
0, 1
0, 0
0, 0
0, 0
0, 0
0, 1
0, 0
0, 0
0, 0
0, 0
0, 0
0, 1
0, 0
0, 0
0, 0
1, 0
0, 0
0, 1
1, 0
1, 0
0, 0
0, 0
0, 0
0, 0
0, 0
0, 1
1, 0
0, 0
0, 0
0, 1
0, 1
1, 1
0, 0
0, 0
2, 3
0, 1
0, 1
0, 1
1, 0
0, 0
0, 0
0, 1
0, 0
0, 0
0, 0
0, 0
0, 1
0, 1
0, 1
0, 0
0, 0
0, 0
0, 0
0, 1
0, 0
1, 1
0, 0
0, 0
0, 0
1, 0
0, 1
0, 0
0, 0
0, 1
0, 0
0, 0
0, 0
0, 0
0, 0
0, 0
0, 0
0, 1
0, 0
0, 0
0, 0
0, 0
0, 0
0, 0
0, 0
0, 0
0, 0
0, 0
0, 0
0, 0
0, 0
0, 0
0, 0
1, 0
0, 0
0, 1
0, 0
0, 0
0, 0
1, 0
0, 0
0, 0
1, 0
0, 0
0, 0
0, 0
0, 0
0, 1
0, 0
1, 0
0, 0
0, 0
0, 0
0, 0
0, 0
0, 0
0, 0
0, 0
0, 1
0, 0
0, 0
0, 0
0, 0
0, 0
0, 0
0, 0
0, 0
0, 0
0, 0
0, 0
0, 1
0, 0
0, 0
0, 0
0, 0
0, 0
0, 0
0, 0
0, 0
0, 0
0, 1
0, 0
0, 0
1, 0
0, 0
0, 0
0, 0
0, 0
0, 0
0, 0
0, 0
0, 0
0, 0
1, 0
0, 0
0, 1
0, 0
0, 0
0, 0
0, 0
0, 0
0, 0
0, 0
0, 0
1, 0
0, 0
0, 0
0, 0
0, 0
0, 0
0, 0
0, 0
0, 0
0, 0
0, 0
0, 0
0, 0
0, 0
0, 0
0, 0
0, 0
0, 0
0, 0
0, 0
0, 0
1, 0
0, 0
0, 0
0, 0
1, 0
0, 0
0, 0
0, 0
0, 0
0, 0
0, 0
0, 0
0, 0
0, 0
0, 0
0, 0
0, 0
0, 0
0, 0
0, 0
0, 0
0, 0
0, 0
0, 0
0, 0
0, 0
0, 0
0, 0
0, 0
0, 0
0, 0
0, 0
0, 0
0, 0
0, 0
0, 0
0, 1
0, 0
0, 0
0, 0
0, 0
0, 0
0, 1
0, 0
0, 0
0, 0
0, 0
0, 0
0, 0
0, 0
0, 0
0, 0
0, 0
0, 0
0, 0
0, 0
0, 0
0, 0
0, 0
0, 0
0, 0
0, 0
0, 0
0, 0
0, 0
0, 0
0, 0
0, 0
0, 0
0, 0
0, 1
0, 0
0, 0
0, 0
0, 0
0, 0
0, 0
0, 0
0, 0
0, 0
0, 0
0, 0
0, 0
0, 0
0, 0
0, 0
0, 0
0, 0
0, 0
0, 0
0, 0
0, 0
0, 0
0, 0
0, 0
0, 0
0, 0
0, 0
0, 0
0, 0
0, 0
0, 0
0, 0
0, 0
0, 0
0, 0
0, 0
0, 0
0, 0
0, 0
0, 0
0, 0
0, 0
0, 0
0, 0
0, 0
0, 0
0, 0
0, 0
0, 0
0, 0
0, 0
0, 0
0, 0
0, 0
0, 0
0, 0
0, 0
0, 0
0, 0
0, 0
0, 0
0, 0
0, 0
0, 0
0, 0
0, 1
0, 0
0, 0
0, 0
0, 0
0, 0
0, 0
0, 0
0, 0
0, 0
0, 0
0, 0
0, 0
0, 0
0, 0
0, 0
0, 0
0, 0
0, 0
0, 0
0, 0
0, 0
0, 0
0, 0
0, 0
0, 0
0, 0
0, 0
0, 0
0, 0
0, 0
0, 0
0, 0
0, 0
0, 0
0, 0
0, 0
0, 0
0, 0
0, 0
0, 0
0, 0
0, 0
0, 0
0, 0
0, 0
0, 0
0, 0
0, 0
0, 0
0, 0
0, 0
0, 0
0, 0
0, 0
0, 0
0, 0
0, 0
0, 0
0, 0
0, 0
0, 0
0, 0
0, 0
0, 0
0, 0
0, 0
0, 0
0, 0
0, 0
0, 0
0, 0
0, 0
0, 0
0, 0
0, 0
0, 0
0, 0
0, 0
0, 0
0, 0
0, 0
0, 0
0, 0
0, 0
0, 0
0, 0
0, 0
0, 0
0, 0
0, 0
0, 0
0, 0
0, 0
0, 0
0, 0
0, 0
0, 0
0, 0
0, 0
0, 0
0, 0
0, 0
0, 0
0, 0
0, 0
0, 0
0, 0
0, 0
0, 0
0, 0
0, 0
0, 0
0, 0
0, 0
0, 0
0, 0
0, 0
0, 0
0, 0
0, 0
0, 0
0, 0
0, 0
0, 0
0, 0
0, 0
0, 0
0, 0
0, 0
0, 0
0, 0
0, 0
0, 0
0, 0
0, 0
0, 0
0, 0
0, 0
0, 0
0, 0
0, 0
0, 0
0, 0
0, 0
0, 0
0, 0
0, 0
0, 0
0, 0
0, 0
0, 0
0, 0
0, 0
0, 0
0, 0
0, 0
0, 0
0, 0
0, 0
0, 0
0, 0
0, 0
0, 0
0, 0
0, 0
0, 0
0, 0
0, 0
0, 0
0, 0
0, 0
0, 0
0, 0
0, 0
0, 0
0, 0
0, 0
0, 0
0, 0
0, 0
0, 0
0, 0
0, 0
0, 0
0, 0
0, 0
0, 0
0, 0
0, 0
0, 0
0, 0
0, 0
0, 0
0, 0
0, 0
0, 0
0, 0
0, 0
0, 0
0, 0
0, 0
0, 0
0, 0
0, 0
0, 0
0, 0
0, 0
0, 0
0, 0
0, 0
0, 0
0, 0
0, 0
0, 0
0, 0
0, 0
0, 0
0, 0
0, 0
0, 0
0, 0
0, 0
0, 0
0, 0
0, 0
0, 0
0, 0
0, 0
0, 0
0, 0
0, 0
0, 0
0, 0
0, 0
0, 0
0, 0
0, 0
0, 0
0, 0
0, 0
0, 0
0, 0
0, 0
0, 0
0, 0
0, 0
0, 0
0, 0
0, 0
0, 0
0, 0
0, 0
0, 0
0, 0
0, 0
0, 0
0, 0
0, 0
0, 0
0, 0
0, 0
0, 0
0, 0
0, 0
0, 0
0, 0
0, 0
0, 0
0, 0
0, 0
0, 0
0, 0
0, 0
0, 0
0, 0
0, 0
0, 0
0, 0
0, 0
0, 0
0, 0
0, 0
0, 0
#ENDOFDATA     end of spectrum data