File: host_upload/06-09-2024/ps_0852/dump3/ps__0852shot_2018.msa
#FORMAT      : EMSA/MAS spectral data file
#VERSION     : TC202v2.0 PIXL
#TITLE       : N/A
#DATE        :       Date in the format DD-MMM-YYYY, for example 07-JUL-2010
#TIME        :             The time of day at which the spectrum was recorded, in 24-hour format
#OWNER       : PIXL Flight Model       (PIXL will use this to indicate which instrument took the data.)
#NPOINTS     : 4096     Number of data points in the spectrum (This can be zero for configuration only files)
#NCOLUMNS    : 2     Number of data columns in the spectrum (This can be zero for configuration only files)
#XUNITS      : eV
#YUNITS      : COUNTS
#DATATYPE    : YY
#XPERCHAN    : 7.862, 7.881   eV per channel (separate by commas if more than one detector)
#OFFSET      : 18.5, -22.4         eV of first channel  (separate by commas if more than one detector
#SIGNALTYPE  : XRF
#YP_TEMP     : 2.46
#LIVETIME    : 8.56991, 8.56092   seconds (separate by commas if more than one detector)
#REALTIME    : 10, 10.0   seconds (separate by commas if more than one detector)
#SPECTRUM    : start of spectrum data
0, 0
0, 0
0, 0
0, 0
0, 0
0, 0
0, 0
0, 0
0, 0
0, 0
0, 0
0, 0
0, 0
0, 0
0, 0
0, 0
0, 0
0, 0
0, 0
0, 0
0, 0
0, 0
0, 0
0, 0
0, 0
0, 0
0, 0
0, 0
0, 0
0, 0
0, 0
0, 0
0, 0
0, 1
0, 1
0, 0
0, 0
0, 1
0, 0
0, 1
1, 0
1, 0
0, 0
1, 0
4, 1
1, 3
3, 0
6, 6
2, 12
18, 15
24, 29
39, 42
44, 54
72, 77
81, 77
64, 63
60, 67
43, 45
30, 20
17, 13
9, 10
0, 4
3, 5
5, 6
2, 3
5, 2
7, 3
10, 9
19, 19
29, 41
102, 106
197, 155
257, 292
339, 385
434, 423
398, 409
391, 369
302, 276
184, 189
112, 136
70, 82
34, 32
28, 18
11, 10
9, 3
2, 6
3, 2
0, 1
0, 0
1, 2
0, 0
1, 1
2, 0
1, 3
1, 6
2, 2
6, 2
4, 1
3, 5
2, 10
6, 2
2, 5
3, 1
2, 1
3, 3
6, 8
4, 5
4, 3
10, 8
10, 10
19, 22
20, 33
41, 28
37, 43
34, 55
34, 35
41, 40
37, 35
40, 31
32, 19
19, 30
20, 35
24, 24
17, 35
23, 30
25, 22
10, 23
16, 21
9, 16
20, 7
9, 3
5, 6
8, 10
1, 4
2, 2
4, 6
3, 0
1, 4
3, 5
5, 2
2, 3
3, 1
3, 0
7, 5
3, 3
4, 2
10, 4
10, 2
5, 5
3, 5
6, 3
13, 11
16, 12
17, 23
23, 26
14, 28
29, 29
26, 19
25, 26
26, 28
13, 14
16, 20
10, 6
10, 5
3, 12
1, 9
6, 9
1, 7
6, 8
4, 1
5, 8
7, 5
6, 11
8, 12
6, 12
4, 15
6, 17
9, 18
7, 13
12, 9
6, 8
8, 12
8, 4
5, 9
6, 4
10, 5
3, 4
10, 8
8, 4
10, 4
7, 14
5, 11
13, 10
13, 11
11, 11
13, 13
12, 16
11, 21
21, 18
13, 13
15, 9
16, 10
15, 11
15, 12
4, 6
4, 5
7, 10
7, 8
5, 7
10, 7
3, 4
5, 5
5, 6
4, 6
7, 3
7, 6
6, 8
11, 10
11, 5
9, 8
15, 3
11, 6
15, 12
9, 6
15, 8
16, 7
14, 14
16, 14
21, 14
24, 13
15, 18
11, 13
15, 12
11, 12
10, 17
10, 19
12, 28
10, 23
10, 38
11, 40
6, 58
9, 54
13, 51
8, 56
16, 54
11, 61
22, 45
43, 55
55, 60
56, 62
70, 64
70, 59
68, 54
64, 46
58, 36
60, 35
41, 27
35, 24
31, 16
41, 12
35, 22
45, 32
52, 57
109, 96
179, 182
286, 351
498, 569
741, 913
1141, 1342
1544, 1702
1893, 2205
2127, 2400
2411, 2432
2312, 2214
2016, 1901
1728, 1635
1348, 1110
936, 738
552, 482
355, 265
232, 139
117, 74
41, 52
28, 34
19, 19
15, 18
17, 14
16, 16
11, 19
16, 19
26, 20
39, 39
55, 56
80, 97
139, 129
167, 148
220, 240
264, 301
339, 358
353, 324
398, 365
338, 309
320, 290
279, 216
184, 156
150, 113
94, 75
50, 37
33, 21
26, 8
4, 8
9, 13
9, 5
9, 6
9, 11
11, 14
11, 11
8, 8
11, 20
17, 8
16, 5
10, 6
9, 12
8, 9
2, 4
1, 4
7, 3
5, 1
3, 7
2, 3
4, 3
5, 2
2, 2
5, 5
2, 5
4, 10
5, 6
6, 2
8, 5
5, 5
7, 5
6, 2
5, 6
6, 6
6, 8
7, 9
6, 12
6, 13
4, 4
4, 13
6, 9
4, 18
7, 14
10, 16
8, 23
5, 12
6, 9
5, 11
4, 11
4, 10
4, 10
3, 10
4, 7
7, 12
5, 7
5, 7
5, 9
3, 6
6, 11
4, 5
4, 7
5, 3
4, 7
2, 5
7, 7
4, 3
8, 5
4, 4
4, 5
2, 7
1, 4
4, 2
2, 5
2, 3
4, 1
6, 2
4, 8
5, 4
1, 1
8, 4
2, 4
2, 1
3, 6
0, 1
0, 3
4, 2
0, 6
5, 3
4, 4
1, 4
5, 5
5, 2
0, 4
5, 0
7, 1
6, 3
3, 1
5, 0
6, 2
7, 6
8, 2
8, 4
6, 6
2, 1
6, 5
6, 4
5, 4
4, 3
3, 7
3, 2
7, 3
3, 4
2, 7
4, 5
0, 1
1, 2
0, 1
4, 4
3, 1
4, 3
2, 3
6, 4
1, 1
1, 3
6, 2
4, 3
5, 2
4, 3
4, 2
3, 1
4, 2
5, 1
2, 0
2, 2
4, 1
5, 1
5, 6
3, 2
2, 1
2, 3
2, 3
5, 6
2, 2
2, 1
2, 1
3, 0
1, 1
3, 3
5, 3
0, 1
4, 1
2, 6
1, 0
0, 2
3, 3
1, 2
0, 3
1, 3
3, 0
0, 4
5, 4
0, 4
3, 3
3, 1
4, 4
2, 2
1, 5
1, 3
3, 3
4, 2
3, 3
2, 2
4, 2
4, 0
1, 1
3, 1
2, 2
0, 2
1, 2
4, 5
6, 0
12, 1
4, 3
2, 0
2, 2
3, 0
1, 2
3, 1
4, 1
1, 1
3, 2
1, 1
5, 2
5, 1
1, 4
1, 2
0, 1
2, 2
2, 1
1, 2
1, 0
4, 1
4, 1
5, 2
5, 2
3, 2
6, 0
4, 0
2, 1
1, 0
3, 1
1, 0
5, 3
3, 3
2, 3
5, 0
3, 0
0, 4
2, 1
4, 2
0, 2
5, 2
4, 3
2, 3
1, 3
1, 0
1, 2
1, 3
2, 6
1, 1
5, 3
3, 7
3, 4
1, 3
4, 3
3, 2
1, 3
2, 6
1, 1
1, 4
2, 1
0, 3
0, 1
1, 2
0, 2
0, 0
0, 2
0, 1
1, 1
3, 1
1, 3
0, 1
2, 0
0, 2
0, 1
1, 3
1, 3
1, 2
1, 7
1, 0
2, 2
3, 2
1, 2
5, 0
0, 1
2, 0
6, 4
2, 1
2, 0
3, 2
0, 3
1, 0
2, 1
0, 2
4, 0
2, 1
2, 1
0, 1
0, 2
2, 2
2, 3
1, 0
0, 1
0, 2
0, 2
1, 2
2, 0
1, 2
1, 2
1, 0
1, 2
1, 0
1, 0
1, 1
0, 2
0, 3
0, 1
4, 1
1, 0
1, 1
1, 0
1, 1
1, 1
1, 0
1, 0
3, 1
1, 0
0, 0
1, 0
0, 0
2, 0
1, 0
0, 1
0, 1
0, 0
0, 0
0, 0
0, 0
1, 1
0, 1
0, 0
1, 0
0, 2
1, 1
2, 1
0, 1
2, 0
0, 0
1, 2
1, 0
0, 1
0, 2
1, 0
1, 3
0, 0
0, 0
3, 1
0, 0
3, 1
0, 2
1, 1
1, 2
0, 0
2, 1
0, 0
2, 0
0, 0
0, 0
1, 0
3, 0
1, 1
0, 0
0, 1
1, 0
1, 1
0, 1
0, 1
0, 0
2, 0
0, 3
0, 2
1, 0
0, 0
1, 0
1, 0
0, 1
0, 1
2, 1
1, 0
0, 0
1, 1
0, 0
0, 1
0, 0
1, 1
1, 0
0, 2
0, 0
0, 0
0, 0
1, 0
1, 0
1, 1
1, 1
0, 0
0, 0
0, 0
0, 2
1, 0
0, 0
0, 1
0, 1
0, 1
0, 0
0, 0
0, 1
1, 0
0, 2
0, 0
0, 0
3, 1
0, 0
0, 0
1, 1
0, 0
0, 0
1, 0
1, 1
0, 1
2, 0
0, 0
0, 0
1, 0
2, 0
1, 0
0, 2
3, 0
0, 0
1, 0
0, 0
0, 0
0, 1
1, 0
0, 1
1, 1
0, 0
0, 1
0, 0
0, 1
2, 0
0, 1
0, 0
0, 1
0, 0
0, 0
0, 0
1, 0
0, 0
0, 1
0, 0
0, 0
1, 1
0, 1
0, 0
2, 0
0, 0
0, 0
1, 0
0, 0
0, 0
0, 1
0, 0
0, 0
0, 1
0, 0
1, 1
0, 0
0, 0
0, 0
0, 0
0, 0
0, 0
0, 1
0, 0
0, 1
1, 1
0, 0
0, 0
0, 1
1, 1
0, 0
0, 0
0, 0
0, 0
0, 0
1, 0
0, 1
0, 0
0, 0
0, 0
0, 1
0, 1
0, 0
0, 0
0, 0
0, 0
2, 0
1, 0
1, 0
0, 1
1, 0
1, 1
0, 0
0, 0
1, 1
0, 1
0, 1
1, 1
0, 0
0, 0
1, 1
0, 0
0, 0
0, 1
0, 0
0, 0
0, 0
0, 1
1, 0
0, 0
0, 0
0, 0
0, 0
0, 0
0, 1
1, 1
0, 0
0, 1
0, 0
0, 1
1, 0
0, 0
0, 0
0, 0
0, 0
0, 0
0, 0
1, 0
0, 0
1, 0
0, 0
0, 2
0, 0
0, 0
1, 0
0, 0
0, 0
0, 0
0, 0
0, 0
0, 0
0, 0
0, 1
0, 0
0, 0
0, 0
0, 0
0, 0
0, 1
0, 0
0, 0
0, 0
0, 0
0, 0
0, 0
0, 1
0, 0
0, 0
0, 1
0, 0
1, 0
0, 0
0, 0
0, 0
0, 0
0, 1
0, 0
0, 0
0, 0
1, 0
0, 0
1, 0
0, 0
0, 1
0, 0
0, 0
0, 0
0, 0
0, 0
0, 0
0, 0
0, 0
0, 0
0, 0
0, 0
0, 0
0, 0
0, 0
0, 0
0, 1
0, 0
0, 0
0, 0
0, 0
0, 0
0, 0
0, 0
0, 1
0, 0
0, 0
0, 0
0, 0
0, 0
0, 0
0, 0
0, 0
0, 0
0, 0
0, 0
0, 0
0, 0
0, 0
0, 0
0, 0
0, 0
0, 0
0, 0
0, 0
0, 0
0, 0
0, 0
0, 0
0, 0
0, 1
0, 0
0, 0
0, 0
0, 0
0, 0
0, 0
0, 0
0, 0
0, 0
0, 0
0, 0
0, 0
0, 0
0, 0
0, 1
0, 0
0, 0
0, 0
0, 0
0, 0
0, 1
0, 0
0, 0
0, 0
0, 0
0, 0
0, 0
0, 0
0, 0
0, 0
0, 0
0, 0
0, 0
0, 0
0, 0
0, 0
0, 0
0, 0
0, 0
0, 0
0, 0
0, 0
0, 0
0, 0
1, 0
0, 0
0, 0
0, 0
0, 0
0, 0
0, 0
0, 0
0, 0
0, 0
0, 0
0, 0
0, 0
0, 0
0, 0
0, 0
0, 0
0, 0
0, 0
0, 0
0, 0
0, 0
0, 0
0, 0
0, 0
0, 0
0, 0
0, 0
0, 0
0, 0
0, 0
0, 0
0, 0
0, 0
0, 0
0, 0
0, 0
0, 0
0, 0
0, 0
0, 0
0, 0
0, 0
0, 0
0, 0
0, 0
0, 0
0, 0
0, 0
0, 0
0, 0
0, 0
0, 0
0, 0
0, 0
0, 0
0, 0
0, 0
0, 0
0, 0
0, 0
0, 0
0, 0
0, 0
0, 0
0, 0
0, 0
1, 0
0, 0
0, 0
0, 0
0, 0
0, 0
0, 0
0, 0
0, 0
0, 0
0, 0
0, 0
0, 0
0, 0
0, 0
0, 0
0, 0
0, 0
0, 0
0, 0
0, 0
0, 0
0, 0
0, 0
0, 0
0, 0
0, 0
0, 0
0, 0
0, 0
0, 0
0, 0
0, 0
0, 0
0, 0
0, 0
0, 0
0, 0
0, 0
0, 0
0, 0
0, 0
0, 0
0, 0
0, 0
0, 0
0, 0
0, 0
0, 0
0, 0
0, 0
0, 0
0, 0
0, 0
0, 0
0, 0
0, 0
0, 0
0, 0
0, 0
0, 0
0, 0
0, 0
0, 0
0, 0
0, 0
0, 0
0, 0
0, 0
0, 0
0, 0
0, 0
0, 0
0, 0
0, 0
0, 0
0, 0
0, 0
0, 0
0, 0
0, 0
0, 0
0, 0
0, 0
0, 0
0, 0
0, 0
0, 0
0, 0
0, 0
0, 0
0, 0
0, 0
0, 0
0, 0
0, 0
0, 0
0, 0
0, 0
0, 0
0, 0
0, 0
0, 0
0, 0
0, 0
0, 0
0, 0
0, 0
0, 0
0, 0
0, 0
0, 0
0, 0
0, 0
0, 0
0, 0
0, 0
0, 0
0, 0
0, 0
0, 0
0, 0
0, 0
0, 0
0, 0
0, 0
0, 0
0, 0
0, 0
0, 0
0, 0
0, 0
0, 0
0, 0
0, 0
0, 0
0, 0
0, 0
0, 0
0, 0
0, 0
0, 0
0, 0
0, 0
0, 0
0, 0
0, 0
0, 0
0, 0
0, 0
0, 0
0, 0
0, 0
0, 0
0, 0
0, 0
0, 0
0, 0
0, 0
0, 0
0, 0
0, 0
0, 0
0, 0
0, 0
0, 0
0, 0
0, 0
0, 0
0, 0
0, 0
0, 0
0, 0
0, 0
0, 0
0, 0
0, 0
0, 0
0, 0
0, 0
0, 0
0, 0
0, 0
0, 0
0, 0
0, 0
0, 0
0, 0
0, 0
0, 0
0, 0
0, 0
0, 0
0, 0
0, 0
0, 0
0, 0
0, 0
0, 0
0, 0
0, 0
0, 0
0, 0
0, 0
0, 0
0, 0
0, 0
0, 0
0, 0
0, 0
0, 0
0, 0
0, 0
0, 0
0, 0
0, 0
0, 0
0, 0
0, 0
0, 0
0, 0
0, 0
0, 0
0, 0
0, 0
0, 0
0, 0
0, 0
0, 0
0, 0
0, 0
0, 0
0, 0
0, 0
0, 0
0, 0
0, 0
0, 0
0, 0
0, 0
0, 0
0, 0
0, 0
0, 0
0, 0
0, 0
0, 0
0, 0
0, 0
0, 0
0, 0
0, 0
0, 0
0, 0
0, 0
0, 0
0, 0
0, 0
0, 0
0, 0
0, 0
0, 0
0, 0
0, 0
0, 0
0, 0
0, 0
0, 0
0, 0
0, 0
0, 0
0, 0
0, 0
0, 0
0, 0
0, 0
0, 0
0, 0
0, 0
0, 0
0, 0
0, 0
0, 0
0, 0
0, 0
0, 0
0, 0
0, 0
0, 0
0, 0
0, 0
0, 0
0, 0
0, 0
0, 0
0, 0
0, 0
0, 0
0, 0
0, 0
0, 0
0, 0
0, 0
0, 0
0, 0
0, 0
0, 0
0, 0
0, 0
0, 0
0, 0
0, 0
0, 0
0, 0
0, 0
0, 0
0, 0
0, 0
0, 0
0, 0
0, 0
#ENDOFDATA     end of spectrum data