File: host_upload/06-09-2024/ps_0852/dump3/ps__0852shot_2127.msa
#FORMAT      : EMSA/MAS spectral data file
#VERSION     : TC202v2.0 PIXL
#TITLE       : N/A
#DATE        :       Date in the format DD-MMM-YYYY, for example 07-JUL-2010
#TIME        :             The time of day at which the spectrum was recorded, in 24-hour format
#OWNER       : PIXL Flight Model       (PIXL will use this to indicate which instrument took the data.)
#NPOINTS     : 4096     Number of data points in the spectrum (This can be zero for configuration only files)
#NCOLUMNS    : 2     Number of data columns in the spectrum (This can be zero for configuration only files)
#XUNITS      : eV
#YUNITS      : COUNTS
#DATATYPE    : YY
#XPERCHAN    : 7.862, 7.881   eV per channel (separate by commas if more than one detector)
#OFFSET      : 18.5, -22.4         eV of first channel  (separate by commas if more than one detector
#SIGNALTYPE  : XRF
#YP_TEMP     : 2.332
#LIVETIME    : 8.56657, 8.57286   seconds (separate by commas if more than one detector)
#REALTIME    : 10, 10.0   seconds (separate by commas if more than one detector)
#SPECTRUM    : start of spectrum data
0, 0
0, 0
0, 0
0, 0
0, 0
0, 0
0, 0
0, 0
0, 0
0, 0
0, 0
0, 0
0, 0
0, 0
0, 0
0, 0
0, 0
0, 0
0, 0
0, 0
0, 0
0, 0
0, 0
0, 0
0, 0
0, 0
0, 0
0, 0
0, 0
0, 0
0, 0
0, 0
0, 1
0, 0
0, 0
0, 0
0, 0
2, 0
2, 0
0, 0
3, 2
3, 1
1, 4
0, 2
0, 0
1, 2
0, 0
6, 4
7, 9
16, 11
17, 23
43, 31
54, 41
80, 74
88, 69
89, 67
76, 60
50, 44
34, 17
15, 5
12, 3
5, 4
4, 3
2, 1
2, 2
7, 7
9, 5
20, 14
16, 16
33, 44
111, 84
185, 160
267, 240
361, 306
451, 401
424, 371
405, 332
317, 245
211, 170
132, 130
101, 77
51, 33
24, 12
11, 11
3, 4
2, 3
3, 1
2, 2
1, 1
2, 4
0, 3
1, 2
1, 0
1, 4
0, 1
1, 4
3, 1
3, 4
3, 4
6, 6
3, 3
2, 2
2, 3
3, 2
5, 4
2, 4
7, 7
6, 4
13, 8
19, 14
21, 31
21, 42
38, 58
27, 71
27, 96
48, 76
39, 87
33, 61
38, 51
42, 40
40, 29
38, 25
21, 27
24, 15
25, 23
27, 14
18, 14
16, 10
7, 15
10, 11
8, 4
2, 6
6, 5
1, 4
3, 2
4, 2
3, 1
3, 3
2, 1
2, 1
2, 4
1, 0
0, 4
2, 1
1, 6
1, 1
2, 4
3, 8
4, 6
3, 15
6, 17
5, 21
6, 27
18, 48
21, 43
35, 46
45, 67
35, 51
39, 52
29, 45
26, 27
18, 22
10, 17
11, 7
4, 2
3, 5
1, 3
4, 1
6, 4
10, 10
11, 12
8, 15
6, 8
8, 8
5, 8
3, 3
5, 6
3, 4
4, 4
2, 4
2, 1
5, 8
5, 5
4, 4
2, 3
2, 4
5, 6
3, 6
9, 6
13, 16
12, 10
16, 7
10, 14
16, 8
16, 10
18, 15
24, 19
20, 15
21, 11
23, 13
15, 4
12, 10
13, 5
13, 6
14, 10
16, 9
19, 5
30, 5
30, 6
35, 8
37, 7
54, 6
47, 8
44, 6
43, 10
39, 5
21, 7
11, 5
17, 11
12, 8
10, 7
3, 13
6, 8
14, 6
4, 9
13, 10
13, 10
7, 15
17, 14
14, 17
17, 16
17, 19
12, 14
14, 11
14, 9
9, 8
11, 6
7, 4
10, 9
13, 10
11, 8
11, 8
12, 17
15, 17
15, 22
33, 30
38, 32
45, 38
61, 65
60, 51
80, 58
80, 64
66, 70
58, 44
51, 34
54, 31
28, 15
28, 22
18, 14
13, 14
26, 26
21, 24
55, 60
81, 82
153, 176
291, 358
461, 563
734, 878
1130, 1273
1581, 1680
2016, 1979
2324, 2189
2476, 2267
2363, 2021
2107, 1819
1798, 1373
1341, 1044
956, 684
562, 414
297, 241
213, 120
117, 71
52, 32
24, 22
24, 15
30, 20
21, 19
14, 17
15, 23
29, 45
19, 26
50, 45
44, 64
74, 88
105, 137
170, 167
187, 190
288, 241
318, 317
304, 345
318, 353
354, 294
300, 253
229, 220
220, 131
141, 88
88, 57
52, 43
32, 26
21, 12
16, 7
13, 9
10, 7
24, 13
12, 8
14, 21
27, 13
23, 12
26, 12
8, 13
16, 6
18, 13
13, 9
15, 8
10, 8
6, 4
5, 14
12, 7
4, 7
6, 8
1, 9
3, 5
4, 3
4, 3
2, 2
7, 4
6, 7
6, 4
11, 4
2, 3
2, 5
4, 1
7, 3
7, 8
6, 5
8, 9
8, 11
6, 13
6, 10
9, 5
10, 6
11, 10
5, 5
10, 11
14, 8
10, 2
15, 3
8, 6
8, 1
7, 9
6, 2
1, 7
3, 5
11, 7
10, 5
4, 4
3, 6
5, 6
6, 7
11, 6
4, 5
3, 4
4, 7
5, 6
4, 5
2, 5
4, 3
5, 4
4, 3
5, 1
5, 3
3, 5
3, 3
2, 1
3, 2
6, 7
4, 3
2, 6
3, 8
12, 4
3, 3
3, 6
1, 3
6, 5
4, 7
7, 4
4, 5
2, 5
4, 3
2, 7
4, 1
3, 3
4, 4
2, 5
1, 6
3, 5
1, 4
2, 6
5, 5
1, 9
2, 10
4, 6
5, 0
1, 1
4, 8
3, 3
4, 4
9, 4
8, 5
11, 6
11, 1
9, 1
11, 5
9, 2
6, 2
7, 2
3, 7
7, 5
5, 13
5, 5
8, 2
10, 6
9, 3
11, 2
7, 4
9, 1
7, 5
8, 2
7, 6
6, 1
5, 4
3, 4
3, 1
3, 0
3, 4
3, 2
2, 1
2, 4
3, 1
2, 2
4, 2
2, 3
6, 1
3, 1
2, 1
3, 4
1, 1
4, 4
1, 5
1, 5
6, 3
1, 2
0, 3
3, 4
6, 1
4, 2
6, 3
1, 4
5, 3
1, 3
1, 2
3, 3
3, 3
4, 2
2, 4
2, 5
2, 0
2, 4
3, 2
3, 1
3, 1
3, 2
2, 10
1, 3
2, 1
1, 2
3, 2
2, 2
2, 0
2, 2
2, 1
4, 3
5, 0
3, 1
1, 2
1, 1
3, 5
3, 4
2, 0
2, 2
0, 1
0, 1
4, 2
2, 2
5, 3
3, 1
0, 1
2, 2
5, 2
5, 4
2, 3
2, 0
5, 1
2, 2
1, 4
1, 0
2, 1
0, 1
1, 4
5, 1
1, 0
2, 4
2, 2
0, 1
1, 1
1, 4
1, 1
2, 1
2, 1
3, 2
1, 1
5, 1
4, 1
3, 3
1, 2
4, 1
3, 0
1, 0
5, 3
6, 5
1, 1
5, 2
4, 7
2, 3
4, 3
8, 3
3, 2
1, 1
1, 1
3, 3
3, 5
4, 4
1, 2
3, 5
2, 5
0, 2
1, 2
0, 1
1, 3
1, 1
4, 4
2, 1
1, 1
2, 0
5, 3
0, 2
2, 1
1, 0
1, 3
2, 1
5, 2
1, 0
1, 2
4, 0
4, 2
3, 1
2, 1
1, 0
0, 5
0, 0
1, 0
1, 0
2, 1
0, 2
4, 0
3, 0
2, 0
2, 1
0, 1
0, 0
0, 0
0, 1
0, 0
1, 1
1, 0
0, 0
3, 1
1, 2
0, 2
2, 0
0, 2
1, 1
0, 2
1, 0
2, 1
1, 0
1, 0
1, 0
0, 1
1, 1
0, 0
0, 1
3, 0
1, 0
1, 5
1, 0
1, 1
0, 1
1, 0
0, 0
3, 0
1, 0
0, 2
0, 1
0, 0
1, 1
1, 0
2, 2
1, 1
1, 0
0, 0
0, 1
2, 0
0, 0
2, 2
1, 0
0, 0
0, 0
1, 1
0, 0
1, 0
0, 0
1, 1
0, 1
1, 2
0, 1
0, 0
0, 3
1, 0
1, 0
0, 1
0, 1
0, 2
1, 0
0, 0
0, 1
1, 1
1, 1
1, 1
0, 0
2, 1
0, 0
1, 0
0, 2
0, 0
1, 0
0, 1
0, 0
0, 2
0, 0
1, 0
1, 0
0, 1
0, 0
1, 3
1, 0
0, 1
1, 0
0, 3
0, 0
1, 0
0, 0
0, 2
1, 0
0, 3
0, 0
1, 1
2, 1
0, 0
3, 0
1, 0
0, 0
1, 0
0, 1
1, 0
2, 1
0, 0
0, 0
0, 0
1, 1
0, 1
0, 2
1, 0
0, 1
1, 0
1, 0
0, 0
1, 0
0, 0
0, 0
0, 0
0, 0
1, 0
0, 1
0, 0
0, 0
0, 0
0, 1
0, 0
0, 1
1, 0
0, 1
1, 0
0, 0
0, 0
1, 0
0, 1
0, 0
0, 1
0, 1
0, 0
0, 0
0, 0
1, 0
0, 1
0, 0
2, 1
0, 1
1, 0
1, 0
1, 0
0, 0
2, 0
0, 1
0, 0
0, 0
1, 0
0, 0
0, 1
0, 1
0, 0
1, 0
0, 0
0, 0
1, 0
0, 0
0, 0
1, 0
0, 0
0, 0
0, 0
0, 0
1, 0
0, 0
0, 0
0, 0
0, 1
1, 0
0, 0
0, 0
0, 0
0, 0
0, 0
1, 0
0, 0
2, 0
0, 0
0, 0
0, 0
0, 0
0, 0
0, 0
0, 0
1, 0
0, 0
0, 0
1, 0
0, 0
0, 0
0, 0
0, 0
0, 0
0, 0
0, 0
0, 0
1, 0
0, 2
0, 1
0, 0
0, 1
0, 1
0, 0
0, 0
0, 0
0, 1
0, 0
0, 0
0, 0
0, 0
1, 0
0, 0
0, 0
0, 0
0, 0
3, 1
0, 0
0, 0
1, 0
1, 0
0, 0
0, 0
0, 0
0, 0
0, 0
0, 0
1, 0
0, 0
0, 1
0, 0
0, 0
0, 0
0, 0
0, 0
1, 0
0, 0
0, 0
1, 1
0, 0
0, 0
0, 0
0, 0
1, 0
0, 0
1, 0
0, 0
0, 0
0, 0
0, 0
0, 0
0, 0
0, 0
0, 0
0, 0
0, 0
0, 0
1, 0
0, 1
0, 0
1, 0
0, 0
0, 0
0, 1
0, 0
0, 0
0, 0
0, 0
0, 0
0, 0
0, 1
1, 0
0, 0
0, 0
0, 0
0, 0
0, 0
0, 0
0, 0
0, 0
0, 0
0, 0
0, 0
0, 0
0, 0
0, 0
0, 0
1, 0
0, 0
0, 0
0, 0
0, 1
0, 0
0, 1
0, 0
0, 0
0, 0
0, 0
1, 0
0, 0
0, 0
0, 0
0, 0
0, 0
0, 0
0, 0
1, 0
0, 0
0, 0
0, 0
1, 0
0, 0
0, 0
0, 0
0, 0
0, 0
1, 0
0, 0
0, 0
0, 0
0, 0
0, 0
0, 0
0, 0
0, 0
0, 0
0, 0
0, 1
0, 0
0, 0
0, 0
0, 0
0, 0
0, 0
0, 0
0, 0
0, 0
0, 0
0, 0
0, 0
0, 0
0, 0
0, 0
0, 0
0, 0
0, 0
0, 0
0, 0
0, 0
0, 1
0, 0
0, 0
0, 0
0, 0
0, 0
0, 0
0, 0
0, 0
0, 0
0, 0
0, 0
0, 0
0, 0
0, 0
0, 0
0, 0
0, 0
0, 0
0, 0
0, 0
1, 0
0, 0
0, 0
0, 0
0, 0
0, 0
0, 0
0, 0
0, 0
0, 0
0, 0
0, 0
0, 0
0, 0
0, 0
0, 0
0, 0
0, 0
0, 0
0, 0
0, 0
0, 0
0, 0
1, 0
0, 0
0, 0
0, 0
0, 0
0, 0
0, 0
0, 0
0, 0
0, 0
0, 0
0, 0
0, 0
0, 0
0, 0
0, 0
0, 0
0, 0
0, 0
0, 0
0, 0
0, 0
0, 0
0, 0
0, 0
0, 0
0, 0
0, 0
0, 0
0, 0
0, 0
0, 0
0, 0
0, 0
0, 0
0, 0
0, 0
0, 0
0, 0
0, 0
0, 0
0, 0
0, 0
0, 0
0, 0
1, 0
1, 0
0, 0
0, 0
0, 0
0, 0
0, 0
0, 0
0, 0
0, 0
0, 0
0, 0
0, 0
0, 0
0, 0
0, 0
0, 0
0, 0
0, 0
0, 0
0, 0
0, 0
0, 0
0, 0
0, 0
0, 0
0, 0
0, 0
0, 0
0, 0
0, 0
0, 0
0, 0
0, 0
0, 0
0, 0
0, 0
0, 0
0, 0
0, 0
0, 0
0, 0
0, 0
0, 0
0, 0
0, 0
0, 0
0, 0
0, 0
0, 0
0, 0
0, 0
0, 0
0, 0
0, 0
0, 0
0, 0
0, 0
0, 0
0, 0
0, 0
0, 0
0, 0
0, 0
0, 0
0, 0
0, 0
0, 0
0, 0
0, 0
0, 0
0, 0
0, 0
0, 0
0, 0
0, 0
0, 0
0, 0
0, 0
0, 0
0, 0
0, 0
0, 0
0, 0
0, 0
0, 0
0, 0
0, 0
0, 0
0, 0
0, 0
0, 0
0, 0
0, 0
0, 0
0, 0
0, 0
0, 0
0, 0
0, 0
0, 0
0, 0
0, 0
0, 0
0, 0
0, 0
0, 0
0, 0
0, 0
0, 0
0, 0
0, 0
0, 0
0, 0
0, 0
0, 0
0, 0
0, 0
0, 0
0, 0
0, 0
0, 0
0, 0
0, 0
0, 0
0, 0
0, 0
0, 0
0, 0
0, 0
0, 0
0, 0
0, 0
0, 0
0, 0
0, 0
0, 0
0, 0
0, 0
0, 0
0, 0
0, 0
0, 0
0, 0
0, 0
0, 0
0, 0
0, 0
0, 0
0, 0
0, 0
0, 0
0, 0
0, 0
0, 0
0, 0
0, 0
0, 0
0, 0
0, 0
0, 0
0, 0
0, 0
0, 0
0, 0
0, 0
0, 0
0, 0
0, 0
0, 0
0, 0
0, 0
0, 0
0, 0
0, 0
0, 0
0, 0
0, 0
0, 0
0, 0
0, 0
0, 0
0, 0
0, 0
0, 0
0, 0
0, 0
0, 0
0, 0
0, 0
0, 0
0, 0
0, 0
0, 0
0, 0
0, 0
0, 0
0, 0
0, 0
0, 0
0, 0
0, 0
0, 0
0, 0
0, 0
0, 0
0, 0
0, 0
0, 0
0, 0
0, 0
0, 0
0, 0
0, 0
0, 0
0, 0
0, 0
0, 0
0, 0
0, 0
0, 0
0, 0
0, 0
0, 0
0, 0
0, 0
0, 0
0, 0
0, 0
0, 0
0, 0
0, 0
0, 0
0, 0
0, 0
0, 0
0, 0
0, 0
0, 0
0, 0
0, 0
0, 0
0, 0
0, 0
0, 0
0, 0
0, 0
0, 0
0, 0
0, 0
0, 0
0, 0
0, 0
0, 0
0, 0
0, 0
0, 0
0, 0
0, 0
0, 0
0, 0
0, 0
0, 0
0, 0
0, 0
0, 0
0, 0
0, 0
0, 0
0, 0
0, 0
0, 0
0, 0
0, 0
0, 0
0, 0
0, 0
0, 0
0, 0
0, 0
0, 0
0, 0
0, 0
0, 0
0, 0
0, 0
0, 0
0, 0
0, 0
0, 0
0, 0
0, 0
0, 0
0, 0
0, 0
0, 0
0, 0
0, 0
0, 0
0, 0
0, 0
0, 0
0, 0
0, 0
0, 0
0, 0
0, 0
0, 0
0, 0
0, 0
0, 0
0, 0
0, 0
0, 0
0, 0
0, 0
0, 0
0, 0
0, 0
0, 0
0, 0
0, 0
0, 0
0, 0
0, 0
0, 0
0, 0
0, 0
0, 0
0, 0
#ENDOFDATA     end of spectrum data