File: host_upload/06-09-2024/ps_0852/dump3/ps__0852shot_2058.msa
#FORMAT      : EMSA/MAS spectral data file
#VERSION     : TC202v2.0 PIXL
#TITLE       : N/A
#DATE        :       Date in the format DD-MMM-YYYY, for example 07-JUL-2010
#TIME        :             The time of day at which the spectrum was recorded, in 24-hour format
#OWNER       : PIXL Flight Model       (PIXL will use this to indicate which instrument took the data.)
#NPOINTS     : 4096     Number of data points in the spectrum (This can be zero for configuration only files)
#NCOLUMNS    : 2     Number of data columns in the spectrum (This can be zero for configuration only files)
#XUNITS      : eV
#YUNITS      : COUNTS
#DATATYPE    : YY
#XPERCHAN    : 7.862, 7.881   eV per channel (separate by commas if more than one detector)
#OFFSET      : 18.5, -22.4         eV of first channel  (separate by commas if more than one detector
#SIGNALTYPE  : XRF
#YP_TEMP     : 2.203
#LIVETIME    : 8.52874, 8.49024   seconds (separate by commas if more than one detector)
#REALTIME    : 10, 10.0   seconds (separate by commas if more than one detector)
#SPECTRUM    : start of spectrum data
0, 0
0, 0
0, 0
0, 0
0, 0
0, 0
0, 0
0, 0
0, 0
0, 0
0, 0
0, 0
0, 0
0, 0
0, 0
0, 0
0, 0
0, 0
0, 0
0, 0
0, 0
0, 0
0, 0
0, 0
0, 0
0, 0
0, 0
0, 0
0, 0
0, 0
0, 0
0, 0
1, 0
0, 0
0, 1
0, 0
0, 1
0, 1
2, 0
0, 2
0, 1
1, 0
2, 0
1, 1
2, 3
0, 2
1, 0
2, 2
10, 4
17, 14
20, 25
40, 31
60, 62
60, 65
99, 48
74, 78
56, 56
48, 44
22, 23
19, 14
9, 7
5, 6
3, 6
6, 2
5, 5
2, 4
6, 5
14, 15
27, 33
48, 43
98, 108
172, 175
239, 254
380, 315
411, 387
448, 388
386, 312
285, 285
215, 188
121, 136
66, 82
39, 28
24, 18
12, 11
4, 4
3, 2
4, 2
1, 0
2, 1
0, 4
0, 2
2, 0
0, 2
3, 2
2, 2
5, 0
4, 3
5, 2
2, 5
6, 2
3, 4
4, 2
4, 1
3, 3
3, 7
4, 4
5, 6
6, 5
9, 5
14, 14
21, 26
30, 24
34, 16
40, 46
40, 46
44, 38
41, 38
24, 29
33, 29
30, 26
18, 31
19, 12
17, 16
21, 19
19, 19
12, 13
12, 15
9, 9
6, 7
13, 7
6, 3
5, 5
5, 0
0, 0
6, 2
1, 1
2, 3
1, 4
4, 2
0, 2
2, 0
1, 0
4, 2
1, 1
1, 0
1, 2
3, 2
0, 2
1, 4
0, 3
3, 4
3, 1
4, 1
6, 9
7, 8
7, 4
13, 11
16, 11
11, 10
12, 11
3, 11
6, 6
5, 5
5, 6
3, 3
4, 3
4, 1
4, 9
3, 1
4, 4
5, 5
4, 3
6, 3
7, 8
6, 6
6, 6
7, 6
9, 4
13, 14
9, 10
10, 7
7, 5
10, 2
7, 9
15, 1
11, 5
9, 3
9, 6
9, 5
6, 3
8, 6
9, 3
10, 8
14, 9
12, 15
10, 14
10, 16
23, 21
20, 19
19, 22
9, 15
16, 28
15, 17
6, 20
7, 14
10, 18
3, 7
7, 10
3, 6
6, 6
6, 10
8, 4
6, 7
4, 9
8, 8
5, 4
2, 6
3, 14
6, 11
8, 13
10, 8
6, 10
11, 6
2, 9
5, 9
10, 13
9, 22
10, 12
12, 23
17, 24
6, 25
14, 22
20, 30
11, 31
19, 33
23, 32
28, 25
45, 23
66, 13
71, 19
90, 19
100, 8
114, 5
104, 14
94, 17
93, 19
94, 36
91, 37
86, 39
104, 47
77, 59
78, 44
57, 58
56, 40
45, 35
31, 28
17, 24
26, 25
17, 11
14, 14
13, 19
29, 38
46, 50
84, 104
139, 180
301, 407
480, 592
731, 923
1125, 1304
1581, 1694
1900, 2177
2235, 2400
2416, 2367
2330, 2226
2113, 1906
1776, 1533
1284, 1109
963, 774
601, 502
397, 269
193, 157
110, 80
53, 56
31, 22
24, 14
20, 12
13, 12
9, 10
18, 14
23, 21
18, 25
38, 37
50, 52
60, 97
82, 109
146, 183
224, 251
267, 280
310, 309
339, 342
372, 356
350, 312
331, 263
252, 226
179, 149
140, 112
101, 70
55, 56
39, 31
27, 9
13, 6
8, 8
16, 6
4, 12
11, 8
11, 12
14, 20
16, 17
12, 10
15, 12
12, 9
7, 9
18, 8
4, 6
4, 5
8, 1
6, 5
4, 2
9, 3
5, 7
3, 2
0, 10
2, 4
1, 3
2, 6
7, 5
5, 4
2, 5
6, 5
6, 5
4, 5
2, 6
4, 5
4, 3
7, 9
5, 7
1, 5
11, 9
7, 7
7, 7
15, 7
9, 6
7, 7
12, 4
8, 4
8, 3
6, 8
3, 5
6, 6
6, 5
2, 6
5, 5
7, 9
9, 6
8, 9
6, 6
7, 7
3, 6
5, 7
5, 5
7, 11
3, 10
7, 10
5, 10
3, 8
2, 7
5, 4
8, 7
4, 7
13, 2
2, 5
5, 11
8, 1
7, 7
7, 8
9, 5
11, 5
3, 4
9, 2
3, 2
7, 8
6, 1
1, 6
6, 2
3, 9
1, 5
1, 4
3, 5
4, 3
4, 2
4, 3
3, 4
2, 3
3, 8
1, 5
3, 2
2, 1
3, 8
7, 8
2, 3
6, 7
2, 4
4, 2
3, 3
5, 2
2, 8
5, 8
3, 3
8, 9
0, 4
5, 8
4, 8
4, 11
4, 10
3, 16
5, 5
5, 6
2, 5
3, 7
5, 5
5, 2
2, 4
5, 5
2, 8
2, 15
4, 7
4, 5
4, 3
5, 4
5, 6
5, 6
3, 1
3, 9
2, 2
4, 3
1, 3
1, 5
1, 2
2, 5
1, 0
1, 4
4, 2
0, 4
1, 3
2, 6
2, 3
4, 1
2, 5
2, 3
0, 2
2, 3
2, 4
2, 3
4, 4
3, 4
2, 0
4, 2
1, 2
2, 5
3, 3
4, 1
2, 4
4, 0
2, 3
2, 2
3, 3
5, 3
2, 1
5, 4
5, 1
6, 3
3, 2
6, 6
3, 4
7, 6
6, 2
3, 3
9, 3
5, 4
8, 4
5, 5
3, 1
4, 3
7, 4
0, 0
1, 3
2, 0
6, 3
1, 1
2, 0
3, 0
3, 5
0, 1
2, 6
2, 2
3, 6
2, 3
2, 2
1, 0
1, 1
2, 0
4, 2
0, 3
3, 0
3, 3
2, 0
0, 0
4, 1
2, 0
2, 4
3, 2
2, 0
1, 2
3, 0
1, 0
4, 3
2, 2
3, 1
7, 0
2, 3
2, 0
2, 2
3, 2
1, 1
3, 1
4, 0
3, 0
0, 1
2, 2
1, 2
5, 2
4, 3
4, 4
6, 4
2, 2
6, 4
3, 7
0, 4
5, 5
2, 2
3, 0
1, 2
1, 1
1, 3
3, 2
1, 1
0, 1
2, 3
0, 0
3, 0
0, 2
0, 2
1, 3
2, 0
1, 1
1, 2
0, 1
3, 1
2, 2
2, 2
3, 2
1, 1
2, 0
0, 2
1, 2
2, 1
0, 4
3, 0
3, 2
1, 2
1, 0
0, 0
0, 1
1, 0
1, 1
1, 0
0, 3
3, 0
1, 1
2, 1
0, 0
2, 2
1, 1
1, 0
1, 1
0, 0
0, 0
1, 0
1, 0
3, 0
0, 1
2, 0
0, 1
1, 0
2, 1
0, 0
0, 2
0, 2
0, 3
0, 0
1, 1
0, 0
4, 2
0, 1
3, 1
2, 2
0, 3
1, 0
1, 2
1, 1
1, 0
0, 0
0, 0
0, 0
1, 0
2, 0
1, 1
1, 1
0, 0
0, 1
1, 0
2, 1
0, 3
0, 0
0, 0
0, 0
2, 2
0, 0
0, 0
1, 0
0, 1
1, 0
0, 1
0, 1
0, 0
2, 0
0, 1
0, 2
0, 2
0, 0
0, 0
0, 1
1, 0
0, 1
1, 1
2, 1
1, 0
0, 1
0, 1
1, 0
0, 0
1, 1
2, 0
3, 2
0, 0
0, 0
1, 1
0, 0
2, 0
0, 1
0, 2
1, 0
1, 0
1, 0
1, 0
1, 0
0, 0
1, 1
1, 0
0, 1
0, 1
1, 0
0, 0
0, 0
1, 1
0, 0
0, 1
0, 0
2, 0
0, 1
1, 0
1, 0
2, 0
0, 0
1, 0
0, 1
0, 0
0, 1
0, 0
1, 1
0, 0
0, 0
0, 0
1, 1
1, 0
1, 0
0, 0
0, 0
0, 0
1, 0
0, 0
0, 0
0, 1
0, 0
1, 0
2, 0
1, 0
0, 0
1, 1
1, 1
1, 0
1, 0
0, 0
2, 0
0, 0
0, 1
1, 0
0, 0
0, 0
0, 1
0, 0
0, 0
0, 1
0, 1
0, 0
0, 0
1, 0
0, 0
0, 0
0, 0
0, 0
1, 0
0, 1
0, 0
0, 0
0, 1
0, 1
0, 1
1, 0
1, 0
0, 0
0, 1
0, 0
0, 2
0, 1
0, 0
0, 0
0, 1
0, 0
1, 0
2, 0
0, 0
0, 0
0, 0
0, 0
1, 1
0, 0
0, 0
0, 0
0, 1
0, 0
0, 0
1, 1
1, 1
1, 1
0, 0
0, 0
0, 0
0, 0
0, 0
0, 0
0, 0
0, 0
0, 0
1, 0
0, 1
1, 0
0, 2
1, 0
0, 1
1, 0
0, 0
1, 0
0, 0
0, 0
0, 0
0, 0
0, 0
0, 0
0, 0
0, 0
0, 0
0, 0
0, 1
0, 0
0, 0
0, 0
0, 1
0, 0
0, 0
0, 0
0, 0
0, 0
0, 0
0, 0
0, 0
0, 0
0, 1
0, 1
0, 0
0, 0
0, 0
1, 0
0, 0
1, 0
0, 0
0, 0
0, 0
0, 0
0, 0
0, 0
0, 0
0, 0
0, 0
1, 0
0, 0
0, 1
0, 0
1, 0
1, 0
0, 1
0, 0
1, 0
0, 0
0, 1
0, 0
0, 0
0, 1
0, 0
0, 0
0, 0
0, 0
1, 1
0, 0
0, 1
0, 0
1, 0
0, 0
0, 1
0, 0
0, 0
0, 0
0, 0
0, 0
0, 0
0, 0
0, 0
0, 0
0, 0
0, 0
0, 1
1, 0
0, 0
0, 0
0, 0
0, 0
0, 0
0, 0
0, 0
0, 0
0, 0
0, 0
1, 0
0, 0
0, 0
1, 0
0, 0
0, 0
0, 0
0, 0
0, 0
0, 0
0, 0
0, 0
0, 0
0, 0
1, 0
0, 0
0, 0
0, 0
0, 0
0, 0
0, 0
0, 0
0, 0
0, 0
0, 0
0, 0
0, 0
0, 0
0, 0
0, 0
0, 0
0, 0
0, 0
0, 0
0, 0
0, 0
0, 0
0, 0
0, 0
0, 0
0, 0
0, 0
0, 0
0, 0
0, 0
0, 0
0, 0
0, 0
1, 0
1, 0
0, 0
0, 0
0, 0
0, 0
0, 0
0, 0
0, 0
0, 0
0, 0
0, 0
0, 0
0, 0
0, 0
0, 0
0, 0
0, 0
0, 0
0, 0
0, 0
0, 0
0, 0
0, 0
0, 0
0, 0
0, 0
0, 0
0, 0
0, 0
0, 1
0, 0
0, 0
0, 0
0, 0
0, 0
0, 0
0, 1
0, 0
0, 0
0, 0
0, 0
0, 0
0, 0
0, 0
0, 0
0, 0
0, 0
0, 0
0, 0
0, 0
0, 0
0, 0
0, 0
0, 0
0, 0
0, 0
0, 0
0, 0
0, 0
0, 0
0, 0
0, 0
0, 0
0, 0
0, 0
0, 0
0, 0
0, 0
0, 0
0, 0
0, 0
0, 0
0, 0
0, 0
0, 0
0, 0
0, 0
0, 0
0, 0
0, 0
0, 0
0, 0
0, 0
0, 0
0, 0
0, 0
0, 0
0, 0
0, 0
0, 0
0, 0
0, 0
0, 1
0, 0
0, 0
0, 0
0, 0
0, 0
0, 0
0, 0
0, 0
0, 0
0, 0
0, 0
0, 0
0, 0
0, 0
0, 0
0, 0
0, 0
0, 0
0, 0
0, 1
0, 0
0, 0
0, 0
0, 0
0, 0
0, 0
0, 0
0, 0
0, 0
0, 0
0, 0
0, 0
0, 0
0, 0
0, 0
0, 0
0, 0
0, 0
0, 0
0, 0
0, 0
0, 0
0, 0
0, 0
0, 0
0, 0
0, 0
0, 0
0, 0
0, 0
0, 0
0, 0
0, 0
0, 0
0, 0
0, 0
0, 0
0, 0
0, 0
0, 0
0, 0
0, 0
0, 0
0, 0
0, 0
0, 0
0, 0
0, 0
0, 0
0, 0
0, 0
0, 0
0, 0
0, 0
0, 0
0, 0
0, 0
0, 0
0, 0
0, 0
0, 0
0, 0
0, 0
0, 0
0, 0
0, 0
0, 0
0, 0
0, 0
0, 0
0, 0
0, 0
0, 0
0, 0
0, 0
0, 0
0, 0
0, 0
0, 0
0, 0
0, 0
0, 0
0, 0
0, 0
0, 0
0, 0
0, 0
0, 0
0, 0
0, 0
0, 0
0, 0
0, 0
0, 0
0, 0
0, 0
0, 0
0, 0
0, 0
0, 0
0, 0
0, 0
0, 0
0, 0
0, 0
0, 0
0, 0
0, 0
0, 0
0, 0
0, 0
0, 0
0, 0
0, 0
0, 0
0, 0
0, 0
0, 0
0, 0
0, 0
0, 0
0, 0
0, 0
0, 0
0, 0
0, 0
0, 0
0, 0
0, 0
0, 0
0, 0
0, 0
0, 0
0, 0
0, 0
0, 0
0, 0
0, 0
0, 0
0, 0
0, 0
0, 0
0, 0
0, 0
0, 0
0, 0
0, 0
0, 0
0, 0
0, 0
0, 0
0, 0
0, 0
0, 0
0, 0
0, 0
0, 0
0, 0
0, 0
0, 0
0, 0
0, 0
0, 0
0, 0
0, 0
0, 0
0, 0
0, 0
0, 0
0, 0
0, 0
0, 0
0, 0
0, 0
0, 0
0, 0
0, 0
0, 0
0, 0
0, 0
0, 0
0, 0
0, 0
0, 0
0, 0
0, 0
0, 0
0, 0
0, 0
0, 0
0, 0
0, 0
0, 0
0, 0
0, 0
0, 0
0, 0
0, 0
0, 0
0, 0
0, 0
0, 0
0, 0
0, 0
0, 0
0, 0
0, 0
0, 0
0, 0
0, 0
0, 0
0, 0
0, 0
0, 0
0, 0
0, 0
0, 0
0, 0
0, 0
0, 0
0, 0
0, 0
0, 0
0, 0
0, 0
0, 0
0, 0
0, 0
0, 0
0, 0
0, 0
0, 0
0, 0
0, 0
0, 0
0, 0
0, 0
0, 0
0, 0
0, 0
0, 0
0, 0
0, 0
0, 0
0, 0
0, 0
0, 0
0, 0
0, 0
0, 0
0, 0
0, 0
0, 0
0, 0
0, 0
0, 0
0, 0
0, 0
0, 0
0, 0
0, 0
0, 0
0, 0
0, 0
0, 0
0, 0
0, 0
0, 0
0, 0
0, 0
0, 0
0, 0
0, 0
0, 0
0, 0
0, 0
0, 0
0, 0
0, 0
0, 0
0, 0
0, 0
0, 0
0, 0
0, 0
0, 0
0, 0
0, 0
0, 0
0, 0
0, 0
0, 0
0, 0
0, 0
0, 0
0, 0
0, 0
0, 0
0, 0
0, 0
0, 0
0, 0
0, 0
0, 0
0, 0
0, 0
0, 0
0, 0
0, 0
0, 0
0, 0
0, 0
0, 0
0, 0
0, 0
0, 0
0, 0
0, 0
0, 0
0, 0
0, 0
0, 0
#ENDOFDATA     end of spectrum data