File: host_upload/06-09-2024/ps_0852/dump3/ps__0852shot_2211.msa
#FORMAT      : EMSA/MAS spectral data file
#VERSION     : TC202v2.0 PIXL
#TITLE       : N/A
#DATE        :       Date in the format DD-MMM-YYYY, for example 07-JUL-2010
#TIME        :             The time of day at which the spectrum was recorded, in 24-hour format
#OWNER       : PIXL Flight Model       (PIXL will use this to indicate which instrument took the data.)
#NPOINTS     : 4096     Number of data points in the spectrum (This can be zero for configuration only files)
#NCOLUMNS    : 2     Number of data columns in the spectrum (This can be zero for configuration only files)
#XUNITS      : eV
#YUNITS      : COUNTS
#DATATYPE    : YY
#XPERCHAN    : 7.862, 7.881   eV per channel (separate by commas if more than one detector)
#OFFSET      : 18.5, -22.4         eV of first channel  (separate by commas if more than one detector
#SIGNALTYPE  : XRF
#YP_TEMP     : 2.396
#LIVETIME    : 8.54638, 8.54313   seconds (separate by commas if more than one detector)
#REALTIME    : 10, 10.0   seconds (separate by commas if more than one detector)
#SPECTRUM    : start of spectrum data
0, 0
0, 0
0, 0
0, 0
0, 0
0, 0
0, 0
0, 0
0, 0
0, 0
0, 0
0, 0
0, 0
0, 0
0, 0
0, 0
0, 0
0, 0
0, 0
0, 0
0, 0
0, 0
0, 0
0, 0
0, 0
0, 0
0, 0
0, 0
0, 0
0, 0
0, 0
0, 0
0, 0
0, 0
0, 1
0, 0
0, 1
1, 0
0, 0
0, 1
0, 0
2, 0
0, 0
0, 0
1, 1
3, 1
4, 2
4, 3
8, 12
13, 15
26, 27
43, 43
63, 59
78, 75
89, 91
88, 71
57, 67
54, 33
27, 22
9, 12
9, 5
4, 1
4, 2
3, 1
3, 2
5, 3
4, 6
3, 9
21, 26
51, 50
98, 120
165, 223
250, 305
356, 371
423, 438
440, 431
354, 375
292, 273
195, 217
94, 116
73, 75
48, 39
15, 15
8, 5
4, 4
4, 1
0, 3
2, 1
0, 1
0, 1
2, 1
2, 1
0, 0
1, 0
0, 1
3, 0
1, 2
1, 4
2, 0
2, 3
3, 3
1, 2
2, 2
2, 1
2, 3
1, 3
1, 3
4, 3
4, 3
5, 5
8, 8
14, 10
18, 13
32, 18
40, 21
42, 31
43, 10
36, 22
25, 10
26, 22
18, 11
19, 17
15, 12
12, 16
13, 8
12, 8
7, 13
7, 5
11, 8
13, 3
5, 6
4, 6
2, 5
2, 10
2, 11
0, 6
2, 6
3, 18
2, 19
4, 7
1, 7
1, 6
3, 4
0, 2
1, 6
0, 4
2, 6
1, 2
2, 5
4, 17
2, 17
3, 31
4, 42
7, 38
9, 39
8, 44
25, 37
23, 38
15, 35
16, 21
13, 14
4, 8
9, 8
1, 3
3, 2
3, 2
3, 2
3, 2
1, 3
5, 1
6, 5
9, 7
1, 5
2, 1
5, 5
8, 2
4, 0
7, 2
8, 1
8, 3
10, 1
7, 2
10, 5
19, 2
12, 6
11, 3
16, 5
29, 3
26, 4
30, 4
33, 6
38, 10
31, 19
35, 20
25, 37
25, 56
31, 50
18, 61
21, 65
17, 44
12, 38
12, 36
17, 19
11, 30
15, 6
4, 19
4, 6
13, 6
5, 13
2, 16
6, 20
11, 33
1, 21
6, 31
2, 28
5, 21
4, 16
2, 23
5, 18
6, 9
4, 9
5, 9
5, 9
3, 5
7, 7
8, 8
12, 18
10, 9
8, 10
17, 12
12, 19
17, 16
9, 21
13, 12
11, 17
11, 17
10, 8
12, 15
10, 2
18, 5
11, 5
17, 8
19, 9
26, 14
23, 16
37, 16
59, 26
70, 36
71, 59
72, 66
81, 66
65, 48
83, 59
55, 59
25, 35
45, 35
32, 24
23, 17
23, 10
14, 18
27, 19
53, 40
41, 62
103, 101
151, 213
310, 340
517, 611
794, 968
1158, 1384
1528, 1778
1908, 2182
2288, 2429
2387, 2447
2294, 2312
2099, 1991
1821, 1514
1352, 1091
974, 749
588, 453
348, 268
214, 155
97, 98
57, 45
31, 23
21, 28
9, 17
23, 32
19, 24
10, 33
23, 36
25, 41
24, 37
50, 79
64, 85
99, 123
146, 180
199, 205
271, 279
301, 345
343, 345
331, 343
306, 341
290, 316
235, 213
171, 154
127, 103
90, 64
63, 37
30, 26
15, 16
14, 9
13, 7
12, 8
18, 5
10, 8
13, 12
10, 9
23, 14
17, 13
22, 12
11, 11
16, 7
14, 3
13, 5
9, 9
5, 1
7, 6
7, 5
8, 6
3, 7
2, 11
2, 14
3, 12
2, 8
2, 8
5, 3
5, 10
0, 9
8, 6
4, 4
4, 8
2, 8
3, 6
4, 6
3, 10
3, 5
5, 7
4, 10
4, 8
5, 5
5, 7
10, 12
7, 6
4, 3
8, 4
4, 10
4, 8
1, 7
2, 7
4, 7
5, 9
3, 7
9, 10
4, 6
5, 10
6, 6
7, 8
7, 14
6, 8
3, 8
11, 8
5, 9
5, 2
5, 5
7, 4
7, 3
6, 6
3, 4
3, 10
5, 9
3, 6
7, 8
3, 8
3, 4
4, 3
5, 4
6, 1
2, 7
4, 6
7, 5
9, 5
5, 8
3, 6
6, 6
2, 4
3, 6
5, 7
4, 4
7, 6
5, 3
2, 2
6, 5
6, 8
2, 3
2, 6
3, 8
4, 4
5, 2
1, 2
3, 4
3, 0
3, 4
4, 3
2, 4
3, 2
2, 2
4, 2
7, 3
6, 4
5, 5
9, 0
15, 1
15, 2
12, 6
7, 3
14, 3
18, 3
9, 6
12, 1
16, 12
9, 4
12, 5
9, 8
7, 4
11, 10
6, 7
4, 8
6, 5
4, 6
2, 9
6, 5
2, 4
3, 2
5, 4
3, 3
2, 4
1, 3
7, 5
2, 1
2, 1
4, 1
3, 8
2, 5
1, 4
2, 2
3, 2
3, 3
2, 3
0, 1
4, 2
2, 2
0, 6
6, 0
1, 1
2, 2
1, 1
1, 5
2, 1
2, 2
3, 3
2, 2
1, 4
2, 6
6, 3
3, 2
2, 2
1, 4
0, 0
2, 2
5, 3
5, 5
1, 8
1, 4
4, 3
3, 4
4, 2
5, 7
1, 9
4, 5
4, 4
1, 7
4, 4
4, 3
4, 8
3, 2
4, 1
4, 2
5, 1
3, 4
3, 5
6, 1
5, 0
2, 5
1, 1
3, 1
4, 0
0, 5
2, 6
1, 1
0, 4
2, 2
0, 0
1, 1
0, 0
3, 1
5, 1
3, 1
5, 2
0, 1
4, 2
1, 2
2, 7
1, 7
3, 2
1, 1
1, 4
1, 2
6, 3
1, 1
2, 1
3, 1
1, 3
1, 0
0, 1
2, 4
1, 1
1, 1
2, 5
6, 3
4, 4
4, 0
7, 6
1, 1
3, 7
5, 7
6, 3
7, 1
4, 2
4, 3
2, 5
5, 2
3, 1
2, 3
6, 3
7, 3
1, 3
2, 3
3, 2
2, 0
1, 1
2, 4
1, 1
1, 1
0, 5
0, 1
2, 3
1, 2
3, 5
1, 4
3, 4
1, 2
2, 0
2, 3
1, 3
2, 1
2, 0
1, 3
1, 1
3, 3
3, 2
0, 0
1, 0
1, 2
0, 1
1, 0
2, 0
0, 0
2, 1
0, 0
2, 2
1, 0
1, 2
0, 0
0, 0
1, 0
3, 2
3, 1
1, 1
1, 1
2, 1
1, 1
1, 0
0, 0
1, 1
0, 1
0, 0
0, 1
1, 0
2, 0
2, 0
3, 2
1, 0
0, 3
3, 0
1, 0
1, 1
1, 1
0, 0
0, 0
0, 0
0, 1
0, 1
1, 0
0, 1
3, 0
2, 0
1, 1
0, 1
1, 0
1, 0
0, 0
1, 1
0, 2
2, 0
1, 3
0, 3
1, 2
0, 0
0, 0
1, 1
1, 1
1, 0
0, 0
0, 0
0, 1
0, 3
0, 1
1, 1
1, 1
1, 4
0, 1
0, 0
0, 0
1, 1
1, 0
1, 0
2, 0
0, 1
1, 0
0, 1
1, 0
1, 0
0, 0
0, 2
1, 0
0, 0
2, 0
1, 0
0, 2
0, 1
3, 0
1, 2
2, 1
1, 0
0, 3
1, 4
2, 0
0, 2
0, 1
0, 1
0, 0
1, 2
0, 0
0, 0
2, 0
1, 1
0, 0
1, 1
2, 0
0, 0
2, 1
0, 0
0, 1
0, 0
0, 1
0, 0
0, 0
1, 0
0, 3
2, 0
0, 2
0, 0
1, 1
0, 0
2, 0
1, 0
0, 0
0, 2
1, 0
1, 0
1, 0
0, 0
1, 0
1, 0
0, 0
1, 1
0, 0
1, 0
0, 0
0, 0
0, 0
0, 1
0, 0
0, 1
0, 0
0, 1
2, 0
0, 1
0, 0
1, 0
0, 0
0, 0
0, 0
0, 0
0, 0
2, 0
0, 0
0, 1
0, 0
0, 0
0, 1
0, 0
0, 1
0, 0
0, 0
0, 0
0, 1
1, 0
0, 0
0, 0
0, 1
0, 0
0, 0
1, 0
0, 1
0, 0
0, 0
0, 2
0, 0
0, 0
0, 0
0, 0
0, 1
0, 2
0, 0
0, 0
0, 0
0, 2
1, 1
0, 0
0, 0
0, 1
0, 0
0, 0
0, 1
0, 0
1, 0
0, 0
0, 2
0, 0
0, 0
0, 1
0, 1
0, 0
1, 0
1, 0
0, 0
1, 0
0, 0
0, 1
0, 0
0, 0
0, 1
0, 0
1, 0
1, 0
1, 0
0, 0
0, 1
1, 0
1, 0
0, 0
0, 0
0, 0
0, 1
0, 0
1, 0
1, 0
0, 0
0, 0
0, 0
0, 1
0, 1
0, 0
0, 0
1, 0
0, 0
0, 0
1, 0
0, 0
0, 0
0, 0
0, 0
0, 0
0, 0
0, 1
0, 0
0, 0
0, 0
1, 0
0, 0
0, 0
0, 0
1, 0
0, 0
0, 0
0, 0
0, 0
0, 0
0, 0
0, 1
0, 0
1, 0
0, 1
0, 0
0, 0
1, 0
0, 0
0, 0
1, 0
0, 0
0, 0
0, 0
0, 0
0, 0
0, 0
0, 0
0, 0
0, 0
0, 1
0, 0
0, 0
1, 0
0, 0
0, 0
0, 0
0, 0
0, 0
0, 0
0, 0
0, 0
0, 0
0, 0
0, 0
0, 0
0, 0
0, 0
0, 0
0, 0
0, 0
0, 0
0, 0
0, 0
0, 0
0, 0
0, 0
0, 1
0, 0
0, 0
0, 0
0, 0
0, 0
0, 0
0, 0
0, 1
0, 0
0, 0
0, 0
0, 0
0, 0
0, 1
0, 0
0, 0
0, 0
0, 0
0, 0
0, 0
0, 0
0, 0
0, 0
0, 1
0, 0
0, 0
0, 0
0, 1
0, 1
0, 0
0, 0
0, 0
0, 0
0, 0
0, 0
0, 0
0, 0
0, 0
0, 0
0, 0
0, 0
0, 1
0, 0
0, 1
0, 0
0, 0
0, 0
0, 0
0, 0
0, 0
1, 0
0, 0
0, 0
0, 0
0, 0
0, 0
0, 0
0, 0
0, 0
0, 0
0, 0
0, 0
0, 0
0, 0
0, 0
0, 0
0, 0
0, 0
0, 0
0, 0
0, 0
0, 0
0, 0
0, 0
0, 0
0, 0
0, 0
0, 0
0, 0
0, 0
0, 0
0, 0
0, 0
0, 0
0, 0
0, 0
0, 0
0, 0
0, 0
0, 0
0, 0
0, 0
0, 0
0, 0
0, 0
0, 0
0, 0
0, 0
0, 0
0, 0
0, 0
0, 0
0, 0
0, 0
0, 0
0, 0
0, 1
0, 0
0, 0
0, 0
0, 0
0, 0
0, 0
0, 0
0, 0
0, 0
0, 0
0, 0
0, 1
0, 0
0, 0
0, 0
0, 0
0, 0
0, 0
0, 0
0, 0
0, 0
0, 0
0, 0
0, 0
0, 0
0, 0
0, 0
0, 0
0, 0
0, 0
0, 0
0, 0
0, 0
0, 0
0, 0
0, 0
0, 0
0, 0
0, 0
0, 0
0, 0
0, 0
0, 0
0, 0
0, 0
0, 0
0, 0
0, 0
0, 0
0, 0
0, 0
0, 0
0, 0
0, 0
0, 0
0, 0
0, 0
0, 0
0, 0
0, 0
0, 0
0, 0
0, 0
0, 0
0, 0
0, 0
0, 0
0, 0
0, 0
0, 0
0, 0
0, 0
0, 0
0, 0
0, 0
0, 0
0, 0
0, 0
0, 0
0, 0
0, 0
0, 0
0, 0
0, 0
0, 0
0, 0
0, 0
0, 0
0, 0
0, 0
0, 0
0, 0
0, 0
0, 0
0, 0
0, 0
0, 0
0, 0
0, 0
0, 0
0, 0
0, 0
0, 0
0, 0
0, 0
0, 0
0, 0
0, 0
0, 0
0, 0
0, 0
0, 0
0, 0
0, 0
0, 0
0, 0
0, 0
0, 0
0, 0
0, 0
0, 0
0, 0
0, 0
0, 0
0, 0
0, 0
0, 0
0, 0
0, 0
0, 0
0, 0
0, 0
0, 0
0, 0
0, 0
0, 0
0, 0
0, 0
0, 0
0, 0
0, 0
0, 0
0, 0
0, 0
0, 0
0, 0
0, 0
0, 0
0, 0
0, 0
0, 0
0, 0
0, 0
0, 0
0, 0
0, 0
0, 0
0, 0
0, 0
0, 0
0, 0
0, 0
0, 0
0, 0
0, 0
0, 0
0, 0
0, 0
0, 0
0, 0
0, 0
0, 0
0, 0
0, 0
0, 0
0, 0
0, 0
0, 0
0, 0
0, 0
0, 0
0, 0
0, 0
0, 0
0, 0
0, 0
0, 0
0, 0
0, 0
0, 0
0, 0
0, 0
0, 0
0, 0
0, 0
0, 0
0, 0
0, 0
0, 0
0, 0
0, 0
0, 0
0, 0
0, 0
0, 0
0, 0
0, 0
0, 0
0, 0
0, 0
0, 0
0, 0
0, 0
0, 0
0, 0
0, 0
0, 0
0, 0
0, 0
0, 0
0, 0
0, 0
0, 0
0, 0
0, 0
0, 0
0, 0
0, 0
0, 0
0, 0
0, 0
0, 0
0, 0
0, 0
0, 0
0, 0
0, 0
0, 0
0, 0
0, 0
0, 0
0, 0
0, 0
0, 0
0, 0
0, 0
0, 0
0, 0
0, 0
0, 0
0, 0
0, 0
0, 0
0, 0
0, 0
0, 0
0, 0
0, 0
0, 0
0, 0
0, 0
0, 0
0, 0
0, 0
0, 0
0, 0
0, 0
0, 0
0, 0
0, 0
0, 0
0, 0
0, 0
0, 0
0, 0
0, 0
0, 0
0, 0
0, 0
0, 0
0, 0
0, 0
0, 0
0, 0
0, 0
0, 0
0, 0
0, 0
0, 0
0, 0
0, 0
0, 0
0, 0
0, 0
0, 0
0, 0
0, 0
0, 0
0, 0
0, 0
0, 0
0, 0
0, 0
0, 0
0, 0
0, 0
0, 0
0, 0
0, 0
0, 0
0, 0
0, 0
0, 0
0, 0
0, 0
0, 0
0, 0
0, 0
0, 0
0, 0
0, 0
0, 0
0, 0
0, 0
0, 0
0, 0
0, 0
0, 0
0, 0
0, 0
0, 0
0, 0
0, 0
0, 0
0, 0
0, 0
0, 0
0, 0
0, 0
0, 0
0, 0
0, 0
0, 0
0, 0
0, 0
0, 0
0, 0
0, 0
0, 0
0, 0
0, 0
0, 0
0, 0
0, 0
0, 0
0, 0
0, 0
0, 0
0, 0
0, 0
0, 0
0, 0
0, 0
0, 0
0, 0
0, 0
0, 0
0, 0
0, 0
0, 0
0, 0
0, 0
#ENDOFDATA     end of spectrum data