File: host_upload/06-09-2024/ps_0852/dump3/ps__0852shot_2175.msa
#FORMAT      : EMSA/MAS spectral data file
#VERSION     : TC202v2.0 PIXL
#TITLE       : N/A
#DATE        :       Date in the format DD-MMM-YYYY, for example 07-JUL-2010
#TIME        :             The time of day at which the spectrum was recorded, in 24-hour format
#OWNER       : PIXL Flight Model       (PIXL will use this to indicate which instrument took the data.)
#NPOINTS     : 4096     Number of data points in the spectrum (This can be zero for configuration only files)
#NCOLUMNS    : 2     Number of data columns in the spectrum (This can be zero for configuration only files)
#XUNITS      : eV
#YUNITS      : COUNTS
#DATATYPE    : YY
#XPERCHAN    : 7.862, 7.881   eV per channel (separate by commas if more than one detector)
#OFFSET      : 18.5, -22.4         eV of first channel  (separate by commas if more than one detector
#SIGNALTYPE  : XRF
#YP_TEMP     : 2.235
#LIVETIME    : 8.54674, 8.56011   seconds (separate by commas if more than one detector)
#REALTIME    : 10, 10.0   seconds (separate by commas if more than one detector)
#SPECTRUM    : start of spectrum data
0, 0
0, 0
0, 0
0, 0
0, 0
0, 0
0, 0
0, 0
0, 0
0, 0
0, 0
0, 0
0, 0
0, 0
0, 0
0, 0
0, 0
0, 0
0, 0
0, 0
0, 0
0, 0
0, 0
0, 0
0, 0
0, 0
0, 0
0, 0
0, 0
0, 0
0, 0
0, 0
0, 1
0, 1
0, 1
1, 2
0, 1
0, 0
2, 1
1, 0
1, 2
1, 1
3, 1
0, 3
2, 3
0, 2
3, 0
1, 4
6, 4
7, 12
12, 26
21, 32
40, 49
41, 66
42, 76
52, 63
32, 64
26, 39
14, 38
7, 12
5, 11
4, 4
1, 6
0, 5
0, 5
3, 8
1, 7
3, 17
16, 17
33, 66
67, 98
94, 193
171, 281
247, 375
275, 452
281, 471
259, 445
180, 300
139, 191
72, 117
58, 80
26, 39
16, 16
6, 8
5, 7
4, 4
3, 2
1, 2
4, 1
2, 3
1, 9
10, 9
12, 18
28, 24
41, 45
63, 89
94, 123
123, 163
161, 168
147, 201
133, 168
101, 132
87, 96
50, 51
30, 44
22, 29
25, 24
17, 26
19, 25
21, 38
27, 39
39, 58
53, 75
53, 80
53, 81
48, 58
57, 68
38, 53
29, 41
26, 41
25, 31
24, 38
28, 28
12, 27
20, 26
10, 14
9, 19
9, 14
10, 8
11, 15
6, 5
2, 4
3, 3
4, 2
3, 3
2, 2
3, 3
5, 3
0, 3
1, 5
3, 6
2, 2
4, 6
4, 3
1, 2
1, 1
0, 4
2, 4
2, 2
2, 1
3, 3
3, 6
5, 6
5, 11
6, 15
1, 16
6, 11
5, 17
10, 13
5, 13
5, 20
8, 12
2, 10
4, 18
3, 27
3, 24
5, 23
3, 21
4, 22
2, 27
4, 12
3, 13
2, 7
4, 12
6, 5
1, 14
5, 12
6, 6
1, 4
4, 12
2, 3
3, 6
2, 7
3, 8
4, 4
6, 3
7, 2
5, 4
12, 10
12, 10
25, 8
22, 8
29, 17
25, 13
30, 24
16, 30
16, 32
16, 27
16, 36
15, 36
10, 25
9, 25
4, 17
9, 18
6, 13
4, 13
4, 16
2, 14
3, 15
4, 13
7, 7
7, 5
7, 8
4, 7
10, 2
5, 8
5, 6
6, 8
4, 7
3, 7
6, 7
2, 5
6, 7
4, 11
7, 14
7, 7
8, 10
7, 13
7, 9
9, 16
8, 5
11, 11
8, 11
5, 11
6, 9
6, 7
4, 13
7, 9
5, 8
3, 11
8, 14
7, 10
9, 13
7, 11
7, 19
13, 25
14, 29
23, 59
33, 69
29, 84
48, 83
34, 84
45, 71
32, 58
30, 49
27, 38
27, 24
28, 26
22, 15
18, 19
18, 30
25, 41
35, 74
72, 124
119, 253
204, 403
375, 697
535, 1014
797, 1501
1104, 2034
1318, 2367
1540, 2743
1637, 2686
1607, 2453
1490, 2120
1150, 1734
879, 1209
666, 845
401, 488
234, 339
139, 174
69, 78
42, 42
23, 30
15, 37
9, 18
8, 19
19, 24
10, 20
13, 24
19, 31
17, 34
28, 59
52, 92
76, 135
94, 195
135, 251
164, 338
220, 379
227, 405
251, 412
243, 356
208, 303
176, 247
145, 161
103, 120
70, 86
41, 37
24, 28
17, 18
15, 10
11, 6
16, 5
15, 7
15, 12
19, 14
17, 23
21, 12
11, 19
15, 17
16, 11
6, 16
5, 7
10, 5
7, 15
5, 10
3, 10
4, 8
5, 16
6, 6
3, 8
6, 13
2, 12
4, 13
6, 12
7, 13
9, 10
4, 20
5, 10
2, 8
2, 6
4, 11
2, 9
4, 15
2, 8
2, 3
6, 7
1, 7
4, 1
4, 6
4, 11
3, 7
3, 7
9, 4
3, 3
1, 5
1, 7
3, 7
1, 4
2, 6
3, 10
4, 3
2, 0
3, 3
7, 2
6, 6
3, 6
3, 5
2, 6
3, 5
1, 3
6, 2
1, 5
2, 5
4, 8
1, 5
4, 6
3, 1
0, 2
2, 4
5, 8
1, 2
1, 3
3, 3
1, 3
1, 6
6, 11
4, 5
5, 11
7, 14
7, 10
3, 11
8, 11
4, 16
8, 20
1, 20
3, 15
1, 15
5, 7
4, 17
1, 7
1, 3
2, 12
4, 7
1, 5
1, 7
1, 7
0, 3
3, 6
3, 3
2, 5
7, 3
2, 5
3, 4
4, 1
2, 0
2, 6
0, 3
4, 4
2, 2
1, 3
2, 3
3, 2
2, 1
1, 5
2, 0
2, 6
1, 4
5, 6
2, 2
1, 2
1, 6
0, 8
6, 5
0, 1
4, 3
2, 3
3, 8
1, 2
0, 3
2, 4
0, 3
3, 5
2, 4
2, 2
7, 4
0, 5
6, 2
0, 4
3, 2
3, 4
2, 4
2, 3
3, 5
4, 4
2, 3
3, 4
0, 5
1, 6
2, 4
4, 2
3, 1
1, 2
4, 1
3, 3
7, 2
0, 2
2, 4
1, 3
1, 0
3, 5
1, 1
3, 2
5, 1
4, 3
3, 2
2, 5
2, 4
2, 9
2, 2
1, 3
3, 2
4, 5
2, 3
2, 6
3, 2
1, 4
1, 6
1, 2
5, 4
2, 6
1, 6
1, 3
2, 2
0, 3
2, 2
2, 9
1, 4
2, 3
1, 2
0, 4
0, 1
1, 3
0, 3
1, 2
2, 5
4, 0
3, 3
0, 2
1, 2
0, 2
0, 2
3, 2
3, 0
1, 4
1, 2
2, 0
3, 4
0, 6
0, 5
3, 2
0, 7
1, 3
0, 1
3, 2
1, 2
0, 2
2, 2
0, 1
0, 2
4, 1
2, 3
2, 5
0, 2
3, 3
1, 3
2, 8
0, 6
0, 5
4, 1
1, 3
1, 5
3, 5
3, 6
4, 11
0, 3
1, 5
2, 3
3, 2
3, 4
0, 5
2, 4
3, 1
2, 1
1, 0
1, 0
0, 3
1, 1
1, 1
2, 4
2, 2
0, 3
0, 0
3, 1
1, 2
1, 3
0, 2
1, 1
0, 3
0, 4
3, 2
1, 2
1, 3
1, 4
2, 2
1, 2
2, 0
0, 2
1, 2
1, 1
5, 1
1, 0
1, 0
0, 1
1, 0
0, 4
0, 3
1, 1
2, 2
0, 3
1, 1
0, 1
1, 1
0, 3
0, 1
1, 5
0, 0
0, 1
0, 2
0, 3
1, 1
0, 1
0, 0
1, 1
0, 0
0, 1
0, 3
1, 0
0, 1
2, 1
0, 0
0, 0
1, 1
0, 2
0, 0
0, 0
1, 0
0, 1
0, 1
1, 1
0, 0
3, 2
0, 0
1, 3
1, 0
0, 1
0, 0
1, 0
0, 0
0, 2
0, 1
2, 0
0, 1
1, 1
0, 0
1, 0
1, 1
0, 2
2, 1
1, 0
0, 0
0, 1
1, 1
0, 2
0, 0
0, 0
1, 2
0, 0
0, 0
0, 1
0, 1
0, 4
1, 0
0, 1
3, 0
0, 1
1, 0
0, 0
0, 1
0, 0
0, 1
0, 0
1, 1
0, 0
0, 0
0, 0
0, 0
1, 1
0, 0
1, 0
0, 0
0, 1
0, 0
0, 1
0, 2
1, 1
0, 1
2, 1
0, 0
0, 1
1, 3
0, 0
0, 0
0, 2
0, 2
0, 0
0, 0
1, 2
0, 0
0, 1
0, 0
1, 0
0, 1
1, 1
0, 1
0, 1
0, 1
2, 0
2, 0
0, 1
0, 1
0, 0
0, 0
0, 1
1, 0
1, 0
0, 0
0, 1
0, 0
1, 0
0, 0
0, 0
0, 0
0, 0
0, 1
0, 0
1, 0
0, 1
1, 0
0, 2
0, 1
1, 1
0, 0
0, 1
1, 0
0, 0
0, 0
0, 0
0, 0
0, 1
0, 2
0, 0
0, 0
0, 0
0, 0
0, 0
2, 0
0, 1
0, 0
0, 1
0, 1
1, 1
0, 0
1, 0
0, 0
0, 0
1, 1
0, 0
0, 0
0, 1
0, 0
0, 0
0, 0
0, 0
0, 0
0, 0
1, 0
0, 1
0, 0
1, 1
0, 0
0, 0
0, 0
0, 0
0, 0
0, 1
0, 0
0, 0
0, 0
0, 0
0, 0
0, 1
0, 0
0, 0
0, 0
0, 0
0, 0
0, 0
0, 0
1, 0
0, 0
1, 0
0, 1
0, 0
0, 0
0, 0
1, 0
1, 0
0, 0
0, 0
0, 0
1, 1
0, 0
0, 0
0, 1
1, 0
0, 0
0, 0
0, 1
0, 0
2, 0
0, 0
0, 0
0, 2
0, 1
0, 1
1, 2
1, 1
0, 0
0, 0
0, 0
0, 0
0, 0
0, 0
0, 0
0, 0
2, 0
0, 0
0, 0
0, 0
0, 0
0, 0
0, 0
0, 0
0, 0
0, 0
0, 0
0, 1
0, 0
0, 0
0, 0
0, 0
0, 0
0, 0
0, 0
1, 0
0, 0
1, 0
0, 0
0, 0
0, 0
0, 0
0, 0
0, 0
0, 0
0, 0
0, 0
1, 1
0, 0
0, 0
0, 0
0, 1
0, 0
0, 0
0, 1
0, 1
0, 1
0, 0
0, 0
0, 0
0, 0
0, 0
0, 0
0, 0
0, 1
0, 0
0, 0
0, 0
0, 0
1, 0
0, 0
0, 0
0, 0
0, 0
0, 0
0, 0
0, 0
1, 0
1, 0
0, 0
0, 1
0, 0
0, 0
0, 0
0, 0
0, 0
0, 0
0, 0
0, 0
0, 0
1, 0
0, 0
0, 0
0, 0
0, 0
0, 0
0, 0
0, 0
0, 0
0, 1
0, 0
0, 0
0, 0
0, 1
0, 0
0, 0
0, 0
0, 0
0, 0
0, 0
0, 0
0, 0
0, 1
0, 0
0, 0
0, 0
0, 0
0, 0
0, 0
0, 0
0, 0
0, 0
0, 0
0, 0
0, 0
0, 1
0, 0
0, 0
0, 0
0, 0
0, 0
0, 0
0, 0
0, 0
0, 0
0, 0
0, 0
0, 0
0, 0
0, 0
0, 0
0, 0
0, 0
0, 0
0, 1
0, 0
0, 0
1, 1
0, 0
0, 0
0, 0
0, 0
0, 0
0, 0
0, 0
0, 0
0, 0
0, 1
0, 0
0, 0
0, 0
0, 0
0, 0
0, 0
0, 0
0, 0
0, 0
0, 0
0, 0
0, 0
0, 0
0, 0
0, 0
0, 0
0, 0
0, 0
0, 0
0, 0
0, 0
0, 0
0, 0
0, 0
0, 0
0, 0
0, 0
0, 0
0, 0
0, 0
0, 0
0, 0
0, 0
0, 0
0, 0
0, 0
0, 0
0, 0
0, 0
0, 0
0, 0
0, 0
0, 0
0, 0
0, 0
0, 0
0, 0
0, 0
0, 1
0, 0
0, 0
0, 1
0, 0
0, 0
0, 0
0, 0
0, 0
0, 0
0, 0
0, 0
0, 0
0, 0
0, 0
0, 0
0, 0
1, 0
0, 0
0, 0
0, 0
0, 0
0, 0
0, 0
0, 0
0, 0
0, 0
0, 0
0, 0
0, 0
0, 0
0, 0
0, 0
0, 0
0, 0
0, 0
0, 0
0, 0
0, 0
0, 0
0, 0
0, 0
0, 0
0, 0
0, 0
0, 0
0, 0
0, 0
0, 0
0, 0
0, 0
0, 0
0, 0
0, 0
0, 0
0, 0
0, 0
0, 0
0, 0
0, 0
0, 0
0, 0
0, 0
0, 0
0, 0
0, 0
0, 0
0, 0
0, 0
0, 0
0, 0
0, 0
0, 0
0, 0
0, 0
0, 0
0, 0
0, 0
0, 0
0, 0
0, 0
0, 0
0, 0
0, 0
0, 0
0, 0
0, 0
0, 0
0, 0
0, 0
0, 0
0, 0
0, 0
0, 0
0, 0
0, 0
0, 0
0, 0
0, 0
0, 0
0, 0
0, 0
0, 0
0, 0
0, 0
0, 0
0, 0
0, 0
0, 0
0, 0
0, 0
0, 0
0, 0
0, 0
0, 0
0, 0
0, 0
0, 0
0, 0
0, 0
0, 0
0, 0
0, 0
0, 0
0, 0
0, 0
0, 0
0, 0
0, 0
0, 0
0, 0
0, 0
0, 0
0, 0
0, 0
0, 0
0, 0
0, 0
0, 0
0, 0
0, 0
0, 0
0, 0
0, 0
0, 0
0, 0
0, 0
0, 0
0, 0
0, 0
0, 0
0, 0
0, 0
0, 0
0, 0
0, 0
0, 0
0, 0
0, 0
0, 0
0, 0
0, 0
0, 0
0, 0
0, 0
0, 0
0, 0
0, 0
0, 0
0, 0
0, 0
0, 0
0, 0
0, 0
0, 0
0, 0
0, 0
0, 0
0, 0
0, 0
0, 0
0, 0
0, 0
0, 0
0, 0
0, 0
0, 0
0, 0
0, 0
0, 0
0, 0
0, 0
0, 0
0, 0
0, 0
0, 0
0, 0
0, 0
0, 0
0, 0
0, 0
0, 0
0, 0
0, 0
0, 0
0, 0
0, 0
0, 0
0, 0
0, 0
0, 0
0, 0
0, 0
0, 0
0, 0
0, 0
0, 0
0, 0
0, 0
0, 0
0, 0
0, 0
0, 0
0, 0
0, 0
0, 0
0, 0
0, 0
0, 0
0, 0
0, 0
0, 0
0, 0
0, 0
0, 0
0, 0
0, 0
0, 0
0, 0
0, 0
0, 0
0, 0
0, 0
0, 0
0, 0
0, 0
0, 0
0, 0
0, 0
0, 0
0, 0
0, 0
0, 0
0, 0
0, 0
0, 0
0, 0
0, 0
0, 0
0, 0
0, 0
0, 0
0, 0
0, 0
0, 0
0, 0
0, 0
0, 0
0, 0
0, 0
0, 0
0, 0
0, 0
0, 0
0, 0
0, 0
0, 0
0, 0
0, 0
0, 0
0, 0
0, 0
0, 0
0, 0
0, 0
0, 0
0, 0
0, 0
0, 0
0, 0
0, 0
0, 0
0, 0
0, 0
0, 0
0, 0
0, 0
0, 0
0, 0
0, 0
0, 0
0, 0
0, 0
0, 0
0, 0
0, 0
0, 0
0, 0
0, 0
0, 0
0, 0
0, 0
0, 0
0, 0
0, 0
0, 0
0, 0
0, 0
0, 0
0, 0
0, 0
0, 0
0, 0
0, 0
0, 0
0, 0
0, 0
0, 0
0, 0
0, 0
0, 0
0, 0
0, 0
0, 0
0, 0
0, 0
0, 0
0, 0
0, 0
0, 0
0, 0
0, 0
0, 0
0, 0
0, 0
0, 0
0, 0
0, 0
0, 0
0, 0
0, 0
0, 0
0, 0
0, 0
0, 0
0, 0
0, 0
0, 0
0, 0
0, 0
#ENDOFDATA     end of spectrum data