File: host_upload/06-09-2024/ps_0852/dump3/ps__0852shot_2386.msa
#FORMAT      : EMSA/MAS spectral data file
#VERSION     : TC202v2.0 PIXL
#TITLE       : N/A
#DATE        :       Date in the format DD-MMM-YYYY, for example 07-JUL-2010
#TIME        :             The time of day at which the spectrum was recorded, in 24-hour format
#OWNER       : PIXL Flight Model       (PIXL will use this to indicate which instrument took the data.)
#NPOINTS     : 4096     Number of data points in the spectrum (This can be zero for configuration only files)
#NCOLUMNS    : 2     Number of data columns in the spectrum (This can be zero for configuration only files)
#XUNITS      : eV
#YUNITS      : COUNTS
#DATATYPE    : YY
#XPERCHAN    : 7.862, 7.881   eV per channel (separate by commas if more than one detector)
#OFFSET      : 18.5, -22.4         eV of first channel  (separate by commas if more than one detector
#SIGNALTYPE  : XRF
#YP_TEMP     : 2.011
#LIVETIME    : 8.56261, 8.55379   seconds (separate by commas if more than one detector)
#REALTIME    : 10, 10.0   seconds (separate by commas if more than one detector)
#SPECTRUM    : start of spectrum data
0, 0
0, 0
0, 0
0, 0
0, 0
0, 0
0, 0
0, 0
0, 0
0, 0
0, 0
0, 0
0, 0
0, 0
0, 0
0, 0
0, 0
0, 0
0, 0
0, 0
0, 0
0, 0
0, 0
0, 0
0, 0
0, 0
0, 0
0, 0
0, 0
0, 0
0, 0
0, 0
0, 0
0, 0
0, 1
2, 0
1, 1
1, 2
1, 3
0, 2
1, 3
3, 2
2, 2
1, 4
1, 2
1, 1
3, 2
1, 3
4, 8
11, 8
20, 21
28, 29
50, 60
63, 59
77, 58
76, 52
53, 57
27, 28
27, 17
18, 15
11, 11
16, 9
10, 20
24, 20
21, 22
14, 19
19, 16
15, 21
24, 23
53, 51
98, 103
152, 185
246, 263
380, 361
463, 365
426, 411
398, 341
277, 265
214, 149
131, 122
87, 64
48, 32
25, 17
19, 16
16, 14
20, 7
13, 15
18, 9
15, 15
17, 7
7, 1
9, 5
3, 2
11, 5
7, 1
11, 1
12, 7
12, 5
16, 6
13, 10
11, 4
14, 9
9, 5
5, 6
4, 8
9, 12
10, 8
14, 20
20, 21
34, 37
55, 39
71, 72
92, 76
103, 82
100, 82
88, 83
67, 64
71, 46
67, 40
46, 37
64, 47
40, 37
46, 28
43, 37
38, 22
36, 19
33, 15
18, 8
20, 13
13, 5
6, 7
7, 8
4, 4
4, 3
4, 2
8, 1
2, 6
9, 5
20, 12
18, 19
16, 25
27, 24
24, 16
21, 17
14, 14
14, 5
10, 10
6, 5
5, 6
2, 4
6, 14
12, 16
30, 26
29, 34
30, 39
55, 47
67, 76
59, 62
75, 62
57, 41
57, 42
37, 36
25, 20
10, 12
9, 7
6, 8
7, 6
3, 10
7, 15
16, 14
17, 13
19, 13
16, 9
15, 13
14, 9
9, 16
8, 9
8, 7
10, 6
6, 4
17, 5
25, 5
33, 5
30, 5
59, 8
43, 5
64, 5
53, 10
49, 10
46, 26
57, 21
42, 21
37, 23
33, 21
27, 22
28, 24
33, 15
19, 18
29, 10
19, 9
22, 12
14, 8
11, 15
13, 6
12, 11
17, 3
11, 8
13, 14
9, 10
10, 13
7, 9
17, 9
16, 8
14, 9
8, 6
10, 8
6, 10
8, 21
8, 9
3, 8
7, 13
10, 8
8, 15
12, 11
6, 12
10, 15
9, 13
19, 14
16, 18
23, 14
20, 15
22, 26
33, 19
19, 23
30, 18
24, 15
24, 19
22, 11
16, 14
26, 11
25, 7
24, 3
38, 4
55, 11
62, 13
85, 27
75, 26
83, 42
114, 45
121, 60
113, 66
123, 52
81, 58
81, 63
54, 35
51, 34
39, 28
28, 22
12, 20
17, 24
24, 29
20, 19
38, 56
68, 117
139, 190
266, 328
482, 499
740, 879
1114, 1171
1535, 1601
1847, 2062
2103, 2109
2316, 2089
2162, 2049
2064, 1707
1643, 1302
1203, 997
911, 656
582, 415
356, 230
173, 138
81, 81
54, 36
23, 22
19, 28
18, 16
12, 18
26, 15
21, 18
14, 34
20, 30
31, 33
58, 41
69, 76
95, 93
152, 149
189, 241
240, 285
302, 284
332, 346
297, 336
321, 310
285, 223
246, 172
173, 141
123, 85
107, 66
66, 35
37, 17
25, 14
12, 8
14, 5
10, 8
14, 10
18, 8
21, 19
15, 17
20, 16
23, 16
17, 13
21, 21
20, 10
16, 6
11, 13
11, 4
9, 7
5, 4
3, 4
1, 4
4, 6
4, 6
5, 3
5, 5
7, 2
5, 10
4, 6
8, 3
10, 4
7, 10
9, 4
9, 3
3, 4
6, 5
6, 5
7, 6
3, 7
9, 8
12, 8
10, 5
9, 11
9, 8
2, 6
8, 9
11, 10
8, 11
9, 2
6, 3
4, 15
3, 8
6, 9
8, 7
8, 10
13, 9
4, 8
10, 7
5, 7
8, 6
11, 8
11, 4
15, 6
13, 5
11, 6
8, 7
11, 9
12, 11
9, 15
11, 3
6, 13
4, 19
4, 19
8, 8
15, 7
8, 14
12, 13
7, 13
7, 5
8, 7
6, 2
5, 2
5, 2
5, 5
7, 3
2, 3
3, 5
4, 4
2, 2
2, 3
1, 2
2, 6
4, 3
3, 7
5, 3
3, 0
5, 6
6, 4
1, 4
5, 1
6, 6
3, 4
4, 4
4, 2
2, 0
5, 1
1, 2
3, 5
5, 4
3, 2
5, 1
4, 3
3, 1
3, 2
3, 7
2, 4
7, 1
5, 6
3, 1
4, 4
3, 8
6, 9
9, 6
11, 11
8, 8
9, 11
4, 6
7, 14
4, 11
5, 10
5, 7
9, 8
5, 6
3, 12
3, 4
5, 2
4, 3
4, 6
3, 5
3, 2
4, 3
4, 7
4, 4
3, 4
1, 5
6, 3
2, 4
3, 3
1, 7
8, 1
0, 2
1, 3
1, 2
1, 3
4, 2
4, 2
3, 1
6, 2
2, 6
2, 0
3, 1
3, 5
3, 2
2, 4
1, 2
3, 3
4, 3
6, 2
3, 1
2, 3
2, 4
1, 2
1, 5
2, 4
2, 2
1, 3
3, 1
5, 1
5, 1
6, 1
6, 0
4, 7
1, 2
1, 3
1, 3
3, 2
2, 1
0, 0
0, 2
3, 2
3, 4
1, 1
5, 1
7, 0
2, 2
4, 3
0, 4
4, 3
6, 2
4, 1
3, 0
2, 3
1, 1
7, 2
2, 1
1, 1
3, 1
0, 5
1, 1
1, 2
2, 6
4, 3
3, 3
2, 3
2, 1
2, 4
5, 3
1, 1
2, 4
1, 3
0, 2
0, 0
3, 3
2, 2
0, 1
3, 2
3, 1
1, 4
3, 2
2, 0
4, 3
4, 2
2, 1
2, 3
4, 3
3, 3
3, 7
7, 8
2, 4
4, 3
9, 1
4, 2
1, 0
1, 2
2, 2
3, 1
1, 3
2, 2
3, 0
3, 1
3, 0
2, 2
3, 0
2, 1
1, 0
2, 5
1, 0
0, 1
1, 0
2, 0
4, 3
3, 1
1, 2
2, 4
1, 1
1, 2
5, 1
0, 3
3, 0
3, 2
0, 1
2, 3
0, 2
1, 1
0, 4
0, 1
2, 1
1, 1
2, 2
2, 2
3, 0
0, 2
2, 0
0, 0
1, 3
0, 1
2, 1
0, 0
1, 1
0, 4
2, 2
1, 1
3, 2
2, 2
0, 0
2, 4
0, 0
2, 3
1, 1
2, 2
0, 1
1, 0
3, 0
0, 2
0, 1
3, 2
1, 2
1, 0
1, 3
2, 2
0, 0
1, 1
1, 3
1, 1
1, 2
1, 3
2, 0
1, 0
0, 1
0, 0
3, 1
1, 0
1, 2
0, 1
1, 1
1, 1
1, 2
1, 0
1, 0
0, 2
0, 2
0, 0
1, 1
0, 0
1, 1
0, 2
2, 3
0, 3
1, 2
1, 1
0, 0
0, 2
1, 0
1, 1
0, 0
1, 0
1, 1
1, 1
0, 0
0, 1
0, 0
0, 0
0, 1
0, 0
0, 0
0, 2
1, 1
0, 0
2, 0
1, 0
1, 1
0, 0
0, 0
1, 2
0, 0
1, 2
2, 0
0, 1
0, 0
0, 0
1, 0
0, 0
1, 1
1, 0
0, 0
1, 2
1, 1
0, 1
0, 0
0, 1
1, 2
1, 2
2, 0
0, 0
0, 0
1, 0
0, 1
1, 0
0, 0
0, 0
0, 1
0, 0
0, 0
0, 0
1, 0
1, 0
0, 0
0, 1
1, 0
0, 0
0, 0
2, 0
1, 1
0, 2
1, 0
0, 1
0, 0
0, 1
0, 2
0, 0
1, 0
0, 0
2, 0
0, 0
0, 0
0, 0
0, 0
0, 1
0, 0
0, 1
0, 0
0, 0
1, 1
1, 1
1, 0
0, 0
0, 0
0, 0
0, 0
0, 0
1, 2
0, 0
0, 0
0, 0
0, 0
0, 0
1, 1
1, 0
0, 0
1, 0
1, 0
1, 0
0, 0
0, 0
1, 1
0, 1
0, 1
0, 0
0, 0
0, 0
0, 0
0, 1
0, 0
0, 0
1, 1
2, 0
0, 0
0, 0
1, 0
0, 0
0, 0
0, 0
1, 0
0, 0
0, 0
1, 1
1, 1
0, 1
0, 0
0, 1
0, 0
0, 0
0, 0
0, 0
1, 0
0, 0
0, 0
0, 0
3, 0
1, 2
0, 0
0, 0
0, 0
0, 0
0, 0
0, 1
0, 0
0, 1
0, 1
3, 0
0, 0
0, 0
1, 0
1, 0
0, 1
0, 0
1, 0
0, 0
0, 0
0, 0
0, 0
0, 1
0, 0
0, 0
0, 0
1, 1
0, 0
0, 1
0, 0
0, 0
1, 1
0, 0
1, 0
1, 0
0, 0
0, 1
0, 1
0, 0
0, 0
0, 0
0, 0
0, 0
0, 0
0, 0
0, 0
0, 0
0, 0
0, 0
0, 0
0, 0
0, 0
0, 0
0, 1
0, 0
0, 0
0, 0
0, 0
0, 0
0, 1
0, 0
0, 0
0, 0
0, 0
0, 0
1, 0
0, 0
0, 1
0, 0
1, 0
0, 0
1, 0
0, 0
0, 0
0, 0
1, 0
0, 0
0, 0
1, 0
0, 0
0, 0
0, 1
0, 1
0, 0
0, 0
0, 0
0, 0
0, 0
0, 0
0, 0
0, 0
0, 0
0, 0
0, 0
0, 0
0, 0
0, 0
0, 0
0, 0
0, 0
0, 0
0, 0
0, 0
0, 0
0, 0
0, 0
1, 0
0, 0
0, 0
0, 0
0, 0
0, 1
0, 0
0, 0
0, 0
0, 0
0, 0
0, 0
0, 0
1, 0
0, 0
0, 0
0, 0
0, 0
0, 0
0, 0
0, 0
0, 0
0, 0
0, 0
0, 0
0, 0
0, 0
0, 0
0, 0
0, 0
0, 0
0, 1
0, 0
0, 0
0, 0
0, 0
0, 0
0, 0
0, 0
0, 0
0, 0
0, 0
0, 0
0, 0
2, 0
0, 0
0, 0
0, 0
0, 0
0, 0
0, 0
0, 0
0, 1
0, 0
0, 0
0, 0
0, 0
0, 0
0, 0
0, 0
0, 0
0, 0
0, 0
0, 0
0, 0
0, 0
0, 0
0, 0
0, 0
0, 0
0, 0
0, 1
0, 0
0, 0
0, 0
0, 0
0, 0
0, 0
0, 0
0, 0
0, 1
0, 0
0, 0
0, 0
0, 0
0, 0
0, 0
0, 0
0, 0
0, 0
0, 0
0, 0
0, 0
0, 0
0, 0
0, 0
0, 0
0, 0
0, 0
0, 0
0, 0
0, 0
0, 0
0, 0
0, 0
0, 0
0, 0
0, 0
0, 0
0, 0
0, 0
0, 0
0, 0
0, 0
0, 0
0, 0
0, 0
0, 0
0, 0
0, 0
0, 0
0, 0
0, 0
0, 0
0, 0
0, 0
0, 0
0, 0
0, 0
0, 0
0, 0
0, 0
0, 0
0, 0
0, 0
0, 0
0, 0
0, 0
0, 0
0, 0
0, 0
0, 0
0, 0
0, 0
0, 0
0, 0
0, 0
0, 0
0, 0
0, 0
0, 0
0, 0
0, 0
0, 0
0, 0
0, 0
0, 0
0, 0
0, 0
0, 0
0, 0
0, 0
0, 0
0, 0
0, 0
0, 0
0, 0
0, 0
0, 0
0, 0
0, 0
0, 0
0, 0
0, 0
0, 0
0, 0
0, 0
0, 0
0, 0
0, 0
0, 0
0, 0
0, 0
0, 0
0, 0
0, 0
0, 0
0, 0
0, 0
0, 0
0, 0
0, 0
0, 0
0, 0
0, 0
0, 0
0, 0
0, 0
0, 0
0, 0
0, 0
0, 0
0, 0
0, 0
0, 0
0, 0
0, 0
0, 0
0, 0
0, 0
0, 0
0, 0
0, 0
0, 0
0, 0
0, 0
0, 0
0, 0
0, 0
0, 0
0, 0
0, 0
0, 0
0, 0
0, 0
0, 0
0, 0
0, 0
0, 0
0, 0
0, 0
0, 0
0, 0
0, 0
0, 0
0, 0
0, 0
0, 0
0, 0
0, 0
0, 0
0, 0
0, 0
0, 0
0, 0
0, 0
0, 0
0, 0
0, 0
0, 0
0, 0
0, 0
0, 0
0, 0
0, 0
0, 0
0, 0
0, 0
0, 0
0, 0
0, 0
0, 0
0, 0
0, 0
0, 0
0, 0
0, 0
0, 0
0, 0
0, 0
0, 0
0, 0
0, 0
0, 0
0, 0
0, 0
0, 0
0, 0
0, 0
0, 0
0, 0
0, 0
0, 0
0, 0
0, 0
0, 0
0, 0
0, 0
0, 0
0, 0
0, 0
0, 0
0, 0
0, 0
0, 0
0, 0
0, 0
0, 0
0, 0
0, 0
0, 0
0, 0
0, 0
0, 0
0, 0
0, 0
0, 0
0, 0
0, 0
0, 0
0, 0
0, 0
0, 0
0, 0
0, 0
0, 0
0, 0
0, 0
0, 0
0, 0
0, 0
0, 0
0, 0
0, 0
0, 0
0, 0
0, 0
0, 0
0, 0
0, 0
0, 0
0, 0
0, 0
0, 0
0, 0
0, 0
0, 0
0, 0
0, 0
0, 0
0, 0
0, 0
0, 0
0, 0
0, 0
0, 0
0, 0
0, 0
0, 0
0, 0
0, 0
0, 0
0, 0
0, 0
0, 0
0, 0
0, 0
0, 0
0, 0
0, 0
0, 0
0, 0
0, 0
0, 0
0, 0
0, 0
0, 0
0, 0
0, 0
0, 0
0, 0
0, 0
0, 0
0, 0
0, 0
0, 0
0, 0
0, 0
0, 0
0, 0
0, 0
0, 0
0, 0
0, 0
0, 0
0, 0
0, 0
0, 0
0, 0
0, 0
0, 0
0, 0
0, 0
0, 0
0, 0
0, 0
0, 0
0, 0
0, 0
0, 0
0, 0
0, 0
0, 0
0, 0
0, 0
0, 0
0, 0
0, 0
0, 0
0, 0
0, 0
0, 0
0, 0
0, 0
0, 0
0, 0
0, 0
0, 0
0, 0
0, 0
0, 0
0, 0
0, 0
0, 0
0, 0
0, 0
0, 0
0, 0
0, 0
0, 0
0, 0
0, 0
0, 0
0, 0
0, 0
0, 0
0, 0
0, 0
0, 0
0, 0
0, 0
0, 0
0, 0
0, 0
0, 0
0, 0
0, 0
0, 0
0, 0
0, 0
0, 0
0, 0
0, 0
0, 0
0, 0
0, 0
0, 0
0, 0
0, 0
0, 0
0, 0
0, 0
0, 0
0, 0
0, 0
0, 0
0, 0
0, 0
0, 0
0, 0
0, 0
0, 0
0, 0
0, 0
#ENDOFDATA     end of spectrum data