File: host_upload/06-09-2024/ps_0852/dump3/ps__0852shot_2505.msa
#FORMAT      : EMSA/MAS spectral data file
#VERSION     : TC202v2.0 PIXL
#TITLE       : N/A
#DATE        :       Date in the format DD-MMM-YYYY, for example 07-JUL-2010
#TIME        :             The time of day at which the spectrum was recorded, in 24-hour format
#OWNER       : PIXL Flight Model       (PIXL will use this to indicate which instrument took the data.)
#NPOINTS     : 4096     Number of data points in the spectrum (This can be zero for configuration only files)
#NCOLUMNS    : 2     Number of data columns in the spectrum (This can be zero for configuration only files)
#XUNITS      : eV
#YUNITS      : COUNTS
#DATATYPE    : YY
#XPERCHAN    : 7.862, 7.881   eV per channel (separate by commas if more than one detector)
#OFFSET      : 18.5, -22.4         eV of first channel  (separate by commas if more than one detector
#SIGNALTYPE  : XRF
#YP_TEMP     : 2.3
#LIVETIME    : 8.60016, 8.54357   seconds (separate by commas if more than one detector)
#REALTIME    : 10, 10.0   seconds (separate by commas if more than one detector)
#SPECTRUM    : start of spectrum data
0, 0
0, 0
0, 0
0, 0
0, 0
0, 0
0, 0
0, 0
0, 0
0, 0
0, 0
0, 0
0, 0
0, 0
0, 0
0, 0
0, 0
0, 0
0, 0
0, 0
0, 0
0, 0
0, 0
0, 0
0, 0
0, 0
0, 0
0, 0
0, 0
0, 0
0, 0
0, 0
0, 0
0, 0
0, 0
0, 0
0, 0
0, 1
1, 0
0, 0
0, 1
2, 2
1, 0
1, 0
1, 1
2, 3
1, 7
1, 1
5, 2
10, 13
31, 18
42, 30
58, 63
74, 79
86, 90
78, 73
61, 44
33, 39
34, 22
17, 11
8, 5
5, 5
4, 1
6, 4
1, 1
6, 4
2, 7
10, 6
16, 22
42, 50
88, 90
157, 179
272, 271
353, 364
441, 388
420, 428
380, 346
294, 272
205, 163
129, 108
69, 61
42, 36
25, 16
11, 5
3, 2
2, 2
1, 1
3, 2
1, 2
3, 3
1, 0
1, 2
3, 0
2, 1
4, 0
0, 4
2, 5
6, 3
3, 9
8, 6
7, 5
5, 3
4, 3
6, 2
4, 4
2, 4
3, 5
5, 4
10, 10
12, 12
21, 20
32, 25
21, 23
40, 33
41, 38
72, 43
63, 40
73, 37
66, 23
59, 25
56, 26
52, 29
35, 19
29, 35
15, 21
15, 20
9, 9
12, 12
7, 9
5, 11
7, 2
7, 4
2, 3
0, 2
3, 4
1, 3
2, 5
1, 3
1, 1
2, 2
4, 1
0, 3
1, 1
3, 1
2, 3
3, 2
1, 2
6, 1
13, 3
14, 1
15, 0
26, 3
44, 7
45, 6
58, 5
54, 17
52, 9
44, 13
29, 22
22, 12
23, 8
9, 3
14, 4
5, 6
4, 2
2, 4
3, 1
2, 3
3, 2
2, 5
8, 5
3, 4
5, 6
4, 5
4, 3
5, 4
3, 3
5, 6
1, 1
4, 2
2, 4
3, 2
3, 8
2, 0
2, 6
3, 2
4, 9
8, 5
13, 5
9, 14
13, 13
21, 12
20, 21
16, 12
11, 20
15, 13
18, 23
12, 15
12, 17
8, 14
16, 12
14, 17
12, 11
4, 11
5, 6
3, 10
4, 8
5, 8
10, 7
6, 7
13, 7
7, 6
6, 6
4, 9
10, 4
6, 12
4, 11
6, 11
10, 7
5, 15
8, 19
10, 14
6, 7
6, 21
20, 23
32, 29
37, 56
64, 63
80, 91
111, 95
122, 90
117, 87
131, 70
113, 75
119, 46
80, 42
88, 32
57, 32
54, 28
51, 30
28, 45
29, 47
30, 39
24, 50
32, 48
39, 46
36, 36
62, 46
64, 42
76, 60
94, 60
78, 67
92, 77
73, 61
56, 64
46, 34
44, 39
29, 29
25, 26
21, 17
17, 21
28, 26
40, 66
89, 128
163, 180
276, 363
491, 607
773, 906
1089, 1354
1534, 1771
1938, 2059
2294, 2345
2398, 2434
2378, 2294
2126, 1843
1700, 1500
1264, 1069
884, 728
580, 398
331, 228
203, 134
86, 69
41, 33
27, 24
22, 11
9, 11
15, 8
14, 16
18, 20
14, 11
23, 25
37, 37
37, 58
66, 71
114, 109
141, 179
207, 224
244, 307
309, 320
294, 340
343, 353
395, 344
289, 258
272, 219
178, 159
139, 92
76, 63
55, 47
34, 26
23, 22
13, 19
13, 5
9, 11
13, 10
12, 11
14, 13
20, 13
26, 18
27, 12
25, 18
17, 6
21, 12
22, 6
16, 4
9, 6
12, 9
17, 1
8, 2
8, 4
3, 6
5, 3
5, 6
2, 2
4, 1
4, 6
5, 6
3, 7
5, 3
4, 9
3, 10
2, 11
3, 5
1, 6
6, 7
5, 5
4, 12
4, 8
14, 11
6, 9
12, 11
2, 8
8, 4
0, 7
3, 6
3, 9
7, 11
4, 11
3, 14
2, 19
3, 22
7, 22
2, 29
1, 20
0, 19
4, 27
5, 17
3, 16
11, 15
5, 14
10, 11
2, 8
4, 3
4, 6
7, 4
8, 2
7, 5
5, 4
7, 2
6, 5
3, 3
3, 4
6, 4
3, 5
2, 5
5, 4
6, 5
4, 7
2, 12
3, 7
5, 19
5, 12
1, 15
3, 14
3, 10
6, 13
6, 6
4, 3
7, 1
8, 3
10, 4
15, 3
6, 4
14, 3
7, 6
6, 6
7, 2
5, 4
7, 3
2, 2
4, 3
5, 6
3, 3
3, 4
2, 4
5, 9
2, 5
1, 2
2, 1
3, 3
4, 3
1, 5
6, 1
3, 1
2, 1
5, 2
2, 7
3, 3
4, 1
2, 2
2, 3
5, 4
0, 4
0, 5
1, 1
2, 5
5, 3
5, 3
2, 2
7, 0
1, 2
4, 3
2, 2
4, 2
2, 3
4, 7
6, 2
2, 1
2, 2
4, 2
3, 0
3, 2
1, 2
0, 2
0, 1
1, 3
4, 4
2, 4
2, 3
1, 3
4, 1
0, 1
1, 5
0, 2
1, 3
5, 4
2, 2
5, 4
4, 1
0, 3
4, 6
7, 3
0, 4
3, 2
2, 2
2, 3
3, 3
6, 4
4, 7
4, 4
3, 2
2, 3
3, 4
4, 4
2, 3
4, 5
2, 4
3, 0
0, 6
3, 3
3, 3
1, 3
2, 2
5, 4
6, 0
1, 2
1, 2
3, 3
1, 1
2, 4
4, 0
1, 4
3, 2
5, 0
3, 3
2, 0
2, 3
2, 4
4, 1
3, 1
5, 1
2, 0
0, 4
1, 0
5, 3
1, 2
2, 1
3, 3
5, 4
3, 1
1, 6
3, 1
2, 1
2, 3
2, 1
3, 3
2, 2
2, 4
2, 1
3, 4
2, 1
0, 3
3, 2
2, 0
1, 0
4, 0
1, 0
3, 4
2, 4
1, 2
2, 5
7, 5
4, 5
4, 2
4, 7
6, 4
6, 2
5, 1
2, 0
3, 2
5, 2
1, 0
2, 1
2, 3
1, 3
1, 0
1, 1
0, 3
1, 1
1, 3
2, 0
4, 2
1, 0
4, 0
1, 0
5, 1
2, 1
1, 2
1, 3
3, 0
2, 1
3, 1
2, 3
6, 0
2, 1
1, 1
2, 1
1, 2
1, 3
1, 0
0, 0
1, 1
1, 1
3, 0
2, 1
4, 0
2, 1
1, 0
3, 2
2, 0
0, 1
0, 0
0, 0
1, 1
0, 0
2, 0
0, 1
2, 0
1, 1
0, 1
1, 0
2, 1
1, 1
0, 1
2, 1
0, 1
0, 2
0, 1
0, 1
1, 0
0, 0
1, 0
1, 1
1, 3
2, 0
0, 1
0, 0
1, 2
2, 0
1, 1
0, 0
1, 1
2, 1
0, 0
1, 1
0, 2
2, 0
0, 1
0, 1
0, 0
4, 0
2, 0
1, 0
0, 0
0, 0
0, 0
0, 1
0, 0
3, 0
2, 0
0, 0
1, 1
0, 0
0, 2
1, 1
0, 2
0, 1
2, 1
3, 1
1, 0
1, 1
1, 2
1, 0
0, 0
2, 2
1, 0
0, 0
0, 1
1, 1
0, 0
0, 1
2, 0
1, 1
1, 0
1, 1
0, 1
1, 2
0, 0
0, 0
0, 0
2, 0
0, 0
0, 1
0, 2
0, 1
0, 0
3, 0
0, 1
1, 0
2, 0
3, 0
0, 0
0, 1
0, 0
1, 0
1, 0
1, 0
1, 1
0, 0
0, 0
0, 1
0, 2
1, 0
1, 0
0, 0
1, 1
0, 0
1, 1
0, 0
0, 1
0, 0
1, 0
0, 0
0, 0
0, 0
0, 1
0, 0
1, 0
0, 0
0, 0
0, 0
1, 1
0, 1
0, 1
1, 0
0, 0
1, 0
1, 2
0, 1
0, 0
0, 1
0, 1
0, 1
0, 0
1, 0
0, 0
0, 0
0, 0
0, 0
0, 0
0, 0
0, 0
1, 0
0, 0
0, 1
0, 0
0, 0
0, 0
0, 1
0, 0
0, 1
0, 2
0, 0
1, 0
0, 0
1, 0
1, 0
0, 0
1, 0
1, 1
1, 1
1, 0
0, 0
0, 0
0, 0
0, 0
0, 0
0, 0
0, 1
0, 1
0, 0
1, 0
1, 0
0, 0
0, 0
0, 0
0, 0
1, 0
0, 0
0, 1
0, 0
0, 0
0, 0
0, 2
0, 0
0, 1
1, 0
0, 0
0, 0
1, 0
0, 1
1, 1
0, 0
0, 0
1, 0
1, 0
0, 0
0, 0
2, 0
0, 0
0, 0
0, 0
0, 0
2, 0
1, 0
1, 0
1, 0
0, 1
4, 0
1, 0
0, 0
0, 1
0, 0
0, 0
1, 0
0, 0
1, 0
0, 0
0, 0
0, 1
0, 1
0, 0
0, 0
0, 0
0, 0
0, 0
0, 0
0, 0
0, 0
0, 0
0, 0
0, 0
0, 0
0, 0
0, 0
0, 1
0, 0
0, 0
0, 1
0, 0
0, 0
0, 0
0, 0
0, 1
0, 0
0, 0
0, 0
0, 0
0, 0
0, 0
0, 0
0, 0
0, 0
1, 0
0, 0
0, 1
0, 1
0, 0
0, 1
0, 0
0, 0
0, 0
0, 0
0, 0
0, 0
1, 0
0, 0
0, 0
0, 0
0, 0
1, 0
0, 0
0, 0
0, 0
0, 0
0, 0
0, 0
0, 0
0, 0
1, 0
1, 0
0, 0
0, 0
0, 0
0, 0
0, 0
1, 0
0, 0
0, 0
0, 0
0, 0
0, 0
0, 0
0, 0
0, 0
0, 0
0, 0
0, 0
0, 0
0, 0
0, 0
0, 0
0, 0
0, 0
0, 0
0, 0
0, 0
0, 1
0, 0
0, 0
1, 1
0, 0
0, 0
0, 0
0, 0
0, 0
0, 0
0, 0
0, 0
0, 0
0, 0
0, 0
0, 0
0, 0
1, 0
0, 0
0, 0
0, 0
0, 0
0, 0
0, 0
0, 0
0, 0
0, 0
0, 0
0, 0
0, 0
0, 0
0, 0
0, 0
0, 0
0, 0
0, 0
0, 0
0, 0
0, 0
0, 0
0, 0
0, 0
0, 0
0, 0
0, 0
0, 0
0, 0
0, 0
0, 0
0, 0
0, 0
0, 0
0, 0
0, 0
0, 0
0, 0
0, 0
0, 0
0, 0
0, 0
0, 0
0, 0
0, 0
0, 0
0, 0
0, 0
0, 0
0, 0
0, 0
0, 0
0, 0
0, 0
0, 0
0, 0
0, 0
0, 0
0, 0
0, 0
0, 0
0, 0
0, 0
0, 0
0, 0
0, 0
0, 1
1, 0
0, 0
0, 0
0, 0
0, 0
1, 0
0, 0
0, 0
0, 0
0, 0
0, 1
0, 1
0, 0
0, 0
0, 0
0, 0
0, 0
0, 0
0, 0
0, 0
0, 0
0, 0
0, 0
0, 0
0, 0
0, 0
0, 0
0, 0
0, 0
0, 0
0, 0
0, 0
0, 0
0, 0
0, 0
0, 0
0, 0
0, 0
0, 0
0, 0
0, 0
0, 0
0, 0
0, 0
0, 0
0, 0
0, 0
0, 0
0, 0
0, 0
0, 0
0, 0
0, 0
0, 0
0, 0
0, 0
0, 0
0, 0
0, 0
0, 0
0, 0
0, 0
0, 0
0, 0
0, 0
0, 0
0, 0
0, 0
0, 0
0, 0
0, 0
0, 0
0, 0
0, 0
0, 0
0, 0
0, 0
0, 0
0, 0
0, 0
0, 0
0, 0
0, 0
0, 0
0, 0
0, 0
0, 0
0, 0
0, 0
0, 0
0, 0
0, 0
0, 0
0, 0
0, 0
0, 0
0, 0
0, 0
0, 0
0, 0
0, 0
0, 0
0, 0
0, 0
0, 1
0, 0
0, 0
0, 0
0, 0
0, 0
0, 0
0, 0
0, 0
0, 0
0, 0
0, 0
0, 0
0, 0
0, 0
0, 0
0, 0
0, 0
0, 0
0, 0
0, 0
0, 0
0, 0
0, 0
0, 0
0, 0
0, 0
0, 0
0, 0
0, 0
0, 0
0, 0
0, 0
0, 0
0, 0
0, 0
0, 0
0, 0
0, 0
0, 0
0, 0
0, 0
0, 0
0, 0
0, 0
0, 0
0, 0
0, 0
0, 0
0, 0
0, 0
0, 0
0, 0
0, 0
0, 0
0, 0
0, 0
0, 0
0, 0
0, 0
0, 0
0, 0
0, 0
0, 0
0, 0
0, 0
0, 0
0, 0
0, 0
0, 0
0, 0
0, 0
0, 0
0, 0
0, 0
0, 0
0, 0
0, 0
0, 0
0, 0
0, 0
0, 0
0, 0
0, 0
0, 0
0, 0
0, 0
0, 0
0, 0
0, 0
0, 0
0, 0
0, 0
0, 0
0, 0
0, 0
0, 0
0, 0
0, 0
0, 0
0, 0
0, 0
0, 0
0, 0
0, 0
0, 0
0, 0
0, 0
0, 0
0, 0
0, 0
0, 0
0, 0
0, 0
0, 0
0, 0
0, 0
0, 0
0, 0
0, 0
0, 0
0, 0
0, 0
0, 0
0, 0
0, 0
0, 0
0, 0
0, 0
0, 0
0, 0
0, 0
0, 0
0, 0
0, 0
0, 0
0, 0
0, 0
0, 0
0, 0
0, 0
0, 0
0, 0
0, 0
0, 0
0, 0
0, 0
0, 0
0, 0
0, 0
0, 0
0, 0
0, 0
0, 0
0, 0
0, 0
0, 0
0, 0
0, 0
0, 0
0, 0
0, 0
0, 0
0, 0
0, 0
0, 0
0, 0
0, 0
0, 0
0, 0
0, 0
0, 0
0, 0
0, 0
0, 0
0, 0
0, 0
0, 0
0, 0
0, 0
0, 0
0, 0
0, 0
0, 0
0, 0
0, 0
0, 0
0, 0
0, 0
0, 0
0, 0
0, 0
0, 0
0, 0
0, 0
0, 0
0, 0
0, 0
0, 0
0, 0
0, 0
0, 0
0, 0
0, 0
0, 0
0, 0
0, 0
0, 0
0, 0
0, 0
0, 0
0, 0
0, 0
0, 0
0, 0
0, 0
0, 0
0, 0
0, 0
0, 0
0, 0
0, 0
0, 0
0, 0
0, 0
0, 0
0, 0
0, 0
0, 0
0, 0
0, 0
0, 0
0, 0
0, 0
0, 0
0, 0
0, 0
0, 0
0, 0
0, 0
0, 0
0, 0
0, 0
0, 0
0, 0
0, 0
0, 0
0, 0
0, 0
0, 0
0, 0
0, 0
0, 0
0, 0
0, 0
0, 0
0, 0
0, 0
0, 0
0, 0
0, 0
0, 0
0, 0
0, 0
0, 0
0, 0
0, 0
0, 0
0, 0
0, 0
0, 0
0, 0
0, 0
0, 0
0, 0
0, 0
0, 0
0, 0
0, 0
0, 0
0, 0
#ENDOFDATA     end of spectrum data