File: host_upload/06-09-2024/ps_0852/dump3/ps__0852shot_2362.msa
#FORMAT      : EMSA/MAS spectral data file
#VERSION     : TC202v2.0 PIXL
#TITLE       : N/A
#DATE        :       Date in the format DD-MMM-YYYY, for example 07-JUL-2010
#TIME        :             The time of day at which the spectrum was recorded, in 24-hour format
#OWNER       : PIXL Flight Model       (PIXL will use this to indicate which instrument took the data.)
#NPOINTS     : 4096     Number of data points in the spectrum (This can be zero for configuration only files)
#NCOLUMNS    : 2     Number of data columns in the spectrum (This can be zero for configuration only files)
#XUNITS      : eV
#YUNITS      : COUNTS
#DATATYPE    : YY
#XPERCHAN    : 7.862, 7.881   eV per channel (separate by commas if more than one detector)
#OFFSET      : 18.5, -22.4         eV of first channel  (separate by commas if more than one detector
#SIGNALTYPE  : XRF
#YP_TEMP     : 2.332
#LIVETIME    : 8.56637, 8.53903   seconds (separate by commas if more than one detector)
#REALTIME    : 10, 10.0   seconds (separate by commas if more than one detector)
#SPECTRUM    : start of spectrum data
0, 0
0, 0
0, 0
0, 0
0, 0
0, 0
0, 0
0, 0
0, 0
0, 0
0, 0
0, 0
0, 0
0, 0
0, 0
0, 0
0, 0
0, 0
0, 0
0, 0
0, 0
0, 0
0, 0
0, 0
0, 0
0, 0
0, 0
0, 0
0, 0
0, 0
0, 1
0, 0
0, 0
0, 0
0, 5
1, 2
0, 3
0, 11
1, 8
0, 15
1, 29
1, 33
0, 21
3, 26
1, 20
2, 11
2, 9
1, 10
6, 10
10, 20
29, 25
32, 57
63, 59
65, 77
84, 88
94, 87
69, 83
29, 44
30, 24
14, 14
10, 14
5, 7
2, 4
2, 3
5, 4
3, 2
6, 8
4, 20
32, 18
40, 55
95, 113
162, 196
256, 270
372, 416
406, 433
422, 449
407, 398
299, 317
199, 204
138, 145
67, 68
34, 45
22, 24
5, 9
7, 5
1, 4
1, 6
1, 3
1, 2
2, 1
0, 0
0, 3
0, 3
1, 0
4, 3
1, 2
0, 1
3, 7
6, 2
4, 5
2, 3
3, 2
3, 5
2, 5
1, 4
2, 9
4, 27
3, 40
6, 113
11, 238
18, 456
26, 734
30, 1204
38, 1562
54, 1958
57, 2029
49, 1877
54, 1599
46, 1130
32, 794
25, 418
23, 255
21, 122
15, 46
20, 35
13, 18
11, 11
9, 4
13, 8
7, 5
5, 5
4, 4
5, 3
5, 2
2, 3
2, 3
3, 3
2, 0
4, 0
1, 0
2, 4
1, 3
3, 0
2, 3
5, 4
4, 0
1, 3
2, 1
1, 1
3, 3
2, 3
4, 3
5, 7
8, 6
6, 7
7, 12
12, 14
24, 19
15, 16
11, 11
9, 12
6, 8
5, 3
3, 10
2, 12
3, 15
4, 17
7, 34
10, 45
17, 47
12, 56
9, 54
11, 34
9, 42
7, 25
6, 12
5, 6
3, 11
4, 7
9, 5
4, 5
4, 2
6, 6
1, 3
2, 6
2, 2
5, 3
8, 1
8, 5
4, 7
7, 11
10, 8
9, 17
9, 11
5, 7
15, 8
14, 16
12, 12
10, 13
17, 8
5, 9
15, 10
10, 9
6, 7
4, 7
6, 2
5, 7
3, 3
5, 7
5, 7
5, 6
5, 7
5, 3
4, 3
8, 4
9, 11
2, 2
5, 10
3, 6
4, 6
6, 9
5, 13
13, 12
7, 14
8, 6
13, 10
14, 17
9, 20
20, 33
11, 20
21, 14
15, 10
16, 18
13, 13
10, 12
6, 6
12, 15
5, 8
8, 6
8, 5
6, 6
9, 14
6, 8
10, 15
12, 21
21, 15
22, 27
27, 37
39, 44
65, 59
64, 62
64, 59
62, 47
52, 47
35, 35
34, 36
35, 29
21, 18
19, 9
20, 9
13, 12
32, 33
40, 56
76, 115
135, 182
260, 341
434, 586
740, 935
1074, 1328
1488, 1853
1935, 2232
2207, 2425
2429, 2451
2386, 2263
2097, 2043
1647, 1564
1289, 1082
878, 713
618, 442
329, 252
168, 154
104, 90
66, 60
47, 41
32, 34
28, 50
25, 44
30, 45
22, 49
27, 42
24, 43
29, 45
59, 81
59, 108
103, 137
147, 214
188, 226
252, 291
299, 326
364, 396
341, 357
339, 318
286, 277
247, 229
185, 153
125, 100
75, 67
60, 42
23, 27
18, 16
8, 13
5, 9
7, 8
5, 10
9, 17
6, 8
8, 11
16, 14
18, 10
18, 7
5, 12
11, 8
9, 8
6, 4
8, 4
4, 8
1, 1
4, 0
2, 7
3, 2
3, 1
11, 6
6, 2
3, 3
8, 4
5, 2
10, 6
6, 7
10, 3
21, 7
18, 8
24, 2
23, 10
23, 5
19, 4
20, 7
21, 4
23, 8
22, 9
19, 1
15, 5
11, 6
12, 3
6, 4
5, 3
7, 6
4, 5
1, 4
1, 9
4, 4
3, 5
3, 3
3, 5
2, 2
3, 6
2, 3
6, 7
3, 1
8, 4
7, 4
1, 2
3, 4
1, 2
2, 3
4, 6
4, 1
2, 2
6, 5
4, 5
3, 5
2, 3
5, 7
3, 4
2, 4
3, 7
4, 5
2, 9
1, 6
4, 12
3, 7
7, 7
5, 4
5, 5
5, 8
3, 4
4, 5
6, 7
7, 6
8, 3
7, 3
5, 8
7, 5
4, 4
1, 3
10, 3
2, 4
2, 2
4, 4
3, 3
5, 4
1, 4
2, 3
3, 0
4, 9
5, 2
3, 3
6, 1
5, 4
2, 2
1, 2
4, 0
1, 0
4, 4
1, 6
3, 4
2, 3
2, 1
2, 3
2, 3
5, 4
0, 3
0, 6
6, 2
2, 2
1, 4
1, 3
2, 1
3, 1
2, 1
1, 2
2, 1
2, 1
4, 2
5, 4
0, 3
3, 4
5, 2
1, 5
3, 5
2, 2
3, 4
9, 8
3, 4
2, 6
3, 9
3, 6
4, 9
4, 7
3, 12
5, 6
3, 7
7, 3
2, 10
1, 9
2, 10
1, 7
1, 2
3, 0
3, 3
2, 2
4, 2
5, 3
4, 2
1, 3
2, 1
3, 1
2, 3
2, 3
2, 2
1, 3
3, 1
3, 0
3, 3
2, 1
3, 0
1, 4
1, 3
2, 1
2, 4
1, 4
3, 0
2, 1
5, 7
5, 2
3, 3
0, 1
2, 1
1, 0
3, 0
1, 1
3, 1
0, 2
3, 3
0, 4
5, 3
1, 1
1, 3
0, 3
2, 3
1, 3
1, 2
2, 2
4, 0
2, 5
1, 3
1, 4
4, 2
2, 6
2, 0
3, 2
3, 1
3, 1
2, 1
1, 3
0, 3
2, 0
1, 3
2, 2
0, 3
0, 2
1, 1
0, 3
0, 5
1, 4
2, 0
1, 6
1, 2
3, 7
1, 2
3, 5
0, 6
4, 2
0, 5
6, 3
7, 4
6, 4
2, 3
5, 1
4, 1
1, 3
1, 3
2, 2
2, 0
2, 3
0, 5
3, 1
1, 0
2, 1
0, 0
1, 2
1, 0
0, 1
0, 2
3, 3
0, 0
0, 5
2, 5
3, 4
4, 3
1, 7
3, 6
4, 4
1, 5
2, 3
0, 2
2, 4
3, 2
0, 2
2, 4
1, 2
0, 0
0, 0
1, 1
0, 0
5, 1
1, 2
1, 0
1, 0
1, 1
1, 1
1, 1
0, 2
1, 2
1, 1
2, 0
0, 0
2, 1
0, 0
0, 1
2, 0
0, 0
2, 0
2, 0
0, 0
2, 1
1, 0
0, 4
1, 0
0, 1
0, 2
0, 0
2, 2
2, 1
0, 1
0, 2
4, 0
1, 1
1, 0
0, 1
1, 0
1, 1
0, 1
1, 0
1, 2
1, 3
2, 3
2, 1
0, 0
1, 2
0, 1
1, 5
0, 0
1, 0
0, 0
1, 2
0, 3
2, 2
0, 3
3, 1
1, 3
0, 0
0, 1
0, 0
0, 0
0, 2
0, 0
1, 0
0, 2
2, 0
0, 1
0, 0
0, 1
1, 0
2, 0
0, 0
0, 0
2, 0
0, 1
1, 0
0, 0
1, 1
0, 0
2, 0
0, 0
2, 1
1, 0
2, 3
1, 0
0, 0
0, 0
0, 0
0, 0
0, 1
0, 0
3, 0
0, 0
1, 1
1, 0
0, 0
1, 0
0, 1
2, 2
2, 0
2, 0
1, 2
1, 1
1, 0
0, 0
1, 2
1, 0
0, 0
2, 1
2, 0
1, 0
2, 0
0, 2
0, 0
0, 0
0, 0
0, 0
0, 0
0, 0
1, 0
0, 0
1, 1
3, 0
0, 0
0, 0
0, 0
0, 1
0, 0
1, 1
0, 0
1, 2
1, 1
1, 1
1, 0
0, 0
0, 0
0, 0
0, 0
0, 0
3, 1
1, 0
1, 1
1, 0
0, 1
0, 1
1, 0
1, 0
0, 0
1, 0
1, 0
0, 0
0, 1
1, 0
1, 2
0, 1
0, 0
1, 1
0, 0
1, 1
2, 0
1, 0
0, 0
0, 0
0, 0
0, 0
1, 1
0, 1
1, 1
0, 0
1, 0
0, 1
0, 1
0, 0
0, 1
0, 0
0, 0
1, 1
1, 0
0, 0
1, 0
0, 0
0, 0
0, 0
0, 0
0, 1
0, 0
0, 0
1, 0
0, 0
0, 0
0, 0
0, 0
0, 0
1, 0
0, 2
0, 1
0, 0
0, 1
1, 0
0, 0
1, 0
2, 0
0, 1
0, 0
1, 0
0, 1
0, 0
1, 0
0, 1
0, 0
1, 0
1, 0
0, 1
0, 0
0, 0
0, 0
1, 0
0, 1
0, 0
1, 0
0, 0
0, 0
0, 0
0, 0
2, 1
0, 1
0, 0
0, 0
0, 0
0, 0
1, 0
0, 0
0, 0
0, 1
0, 0
0, 0
0, 0
0, 0
1, 0
1, 0
0, 0
0, 0
1, 0
0, 1
1, 0
0, 0
0, 0
0, 0
1, 0
0, 0
0, 0
0, 0
0, 0
0, 0
0, 0
0, 0
0, 0
0, 0
0, 1
0, 0
0, 0
0, 0
0, 0
0, 0
0, 0
0, 0
0, 0
0, 0
1, 0
0, 0
0, 0
0, 0
1, 1
0, 0
0, 3
0, 0
0, 0
0, 0
0, 0
0, 1
1, 0
0, 0
0, 1
0, 0
0, 0
0, 0
0, 0
0, 1
0, 0
0, 0
0, 0
0, 0
0, 0
0, 0
0, 0
0, 0
0, 0
0, 0
0, 1
0, 1
0, 0
0, 0
0, 0
0, 0
0, 0
0, 0
0, 0
1, 0
1, 0
0, 0
0, 0
0, 0
0, 0
0, 0
2, 0
0, 0
0, 0
0, 0
0, 0
0, 0
0, 1
1, 0
0, 0
0, 0
0, 0
0, 0
0, 0
0, 0
0, 0
0, 0
0, 0
0, 1
0, 0
0, 0
0, 0
1, 0
0, 0
0, 0
0, 0
0, 0
0, 0
0, 0
0, 0
0, 0
0, 0
0, 0
0, 0
0, 0
0, 0
0, 0
0, 0
0, 0
0, 0
0, 0
0, 0
0, 0
0, 0
0, 0
0, 0
0, 0
0, 0
0, 0
0, 0
0, 0
0, 0
0, 0
0, 0
0, 0
0, 0
0, 0
0, 0
0, 0
0, 0
0, 0
0, 0
0, 0
0, 0
0, 0
0, 0
0, 0
0, 0
0, 0
0, 0
0, 0
0, 0
0, 0
0, 0
0, 0
0, 0
0, 0
0, 0
0, 0
0, 0
0, 0
0, 0
0, 0
0, 0
0, 0
0, 1
0, 0
0, 0
0, 0
0, 0
0, 0
0, 0
0, 0
0, 0
0, 0
0, 0
0, 0
0, 0
0, 0
0, 0
0, 0
0, 0
0, 0
0, 0
0, 0
0, 0
0, 0
0, 0
0, 0
0, 0
0, 0
0, 0
0, 0
0, 0
0, 0
0, 0
0, 0
0, 0
0, 0
0, 0
1, 0
0, 0
0, 0
0, 0
0, 0
0, 0
0, 0
0, 0
0, 0
0, 0
0, 0
0, 0
0, 0
0, 0
0, 0
0, 0
0, 0
0, 0
0, 0
0, 0
1, 0
0, 0
0, 0
0, 0
0, 0
0, 0
0, 0
0, 0
0, 0
0, 0
0, 0
0, 0
0, 0
0, 0
0, 0
0, 0
0, 0
0, 0
0, 0
0, 0
0, 0
0, 0
0, 0
0, 0
0, 0
0, 0
0, 0
0, 0
0, 0
0, 0
0, 0
0, 0
0, 0
0, 0
0, 0
0, 0
0, 0
0, 0
0, 0
0, 0
0, 0
0, 0
0, 0
0, 0
0, 0
0, 0
0, 0
0, 0
0, 0
0, 0
0, 0
0, 0
0, 0
0, 0
0, 0
0, 0
0, 0
0, 0
0, 0
0, 0
0, 0
0, 0
0, 0
0, 0
0, 0
0, 0
0, 0
0, 0
0, 0
0, 0
0, 0
0, 0
0, 0
0, 0
0, 0
0, 0
0, 0
0, 0
0, 0
0, 0
0, 0
0, 0
0, 0
0, 0
0, 0
0, 0
0, 0
0, 0
0, 0
0, 0
0, 0
0, 0
0, 0
0, 0
0, 0
0, 0
0, 0
0, 0
0, 0
0, 0
0, 0
0, 0
0, 0
0, 0
0, 0
0, 0
0, 0
0, 0
0, 0
0, 0
0, 0
0, 0
0, 0
0, 0
0, 0
0, 0
0, 0
0, 0
0, 0
0, 0
0, 0
0, 0
0, 0
0, 0
0, 0
0, 0
0, 0
0, 0
0, 0
0, 0
0, 0
0, 0
0, 0
0, 0
0, 0
0, 0
0, 0
0, 0
0, 0
0, 0
0, 0
0, 0
0, 0
0, 0
0, 0
0, 0
0, 0
0, 0
0, 0
0, 0
0, 0
0, 0
0, 0
0, 0
0, 0
0, 0
0, 0
0, 0
0, 0
0, 0
0, 0
0, 0
0, 0
0, 0
0, 0
0, 0
0, 0
0, 0
0, 0
0, 0
0, 0
0, 0
0, 0
0, 0
0, 0
0, 0
0, 0
0, 0
0, 0
0, 0
0, 0
0, 0
0, 0
0, 0
0, 0
0, 0
0, 0
0, 0
0, 0
0, 0
0, 0
0, 0
0, 0
0, 0
0, 0
0, 0
0, 0
0, 0
0, 0
0, 0
0, 0
0, 0
0, 0
0, 0
0, 0
0, 0
0, 0
0, 0
0, 0
0, 0
0, 0
0, 0
0, 0
0, 0
0, 0
0, 0
0, 0
0, 0
0, 0
0, 0
0, 0
0, 0
0, 0
0, 0
0, 0
0, 0
0, 0
0, 0
0, 0
0, 0
0, 0
0, 0
0, 0
0, 0
0, 0
0, 0
0, 0
0, 0
0, 0
0, 0
0, 0
0, 0
0, 0
0, 0
0, 0
0, 0
0, 0
0, 0
0, 0
0, 0
0, 0
0, 0
0, 0
0, 0
0, 0
0, 0
0, 0
0, 0
0, 0
0, 0
0, 0
0, 0
0, 0
0, 0
0, 0
0, 0
0, 0
0, 0
0, 0
0, 0
0, 0
0, 0
0, 0
0, 0
0, 0
0, 0
0, 0
0, 0
0, 0
0, 0
0, 0
0, 0
0, 0
0, 0
0, 0
0, 0
0, 0
0, 0
0, 0
0, 0
0, 0
0, 0
0, 0
0, 0
0, 0
0, 0
0, 0
0, 0
0, 0
0, 0
0, 0
0, 0
0, 0
0, 0
0, 0
0, 0
0, 0
0, 0
0, 0
0, 0
0, 0
0, 0
0, 0
0, 0
0, 0
0, 0
0, 0
0, 0
0, 0
0, 0
0, 0
0, 0
0, 0
0, 0
0, 0
0, 0
0, 0
0, 0
0, 0
0, 0
#ENDOFDATA     end of spectrum data