File: host_upload/06-09-2024/ps_0852/dump3/ps__0852shot_2422.msa
#FORMAT      : EMSA/MAS spectral data file
#VERSION     : TC202v2.0 PIXL
#TITLE       : N/A
#DATE        :       Date in the format DD-MMM-YYYY, for example 07-JUL-2010
#TIME        :             The time of day at which the spectrum was recorded, in 24-hour format
#OWNER       : PIXL Flight Model       (PIXL will use this to indicate which instrument took the data.)
#NPOINTS     : 4096     Number of data points in the spectrum (This can be zero for configuration only files)
#NCOLUMNS    : 2     Number of data columns in the spectrum (This can be zero for configuration only files)
#XUNITS      : eV
#YUNITS      : COUNTS
#DATATYPE    : YY
#XPERCHAN    : 7.862, 7.881   eV per channel (separate by commas if more than one detector)
#OFFSET      : 18.5, -22.4         eV of first channel  (separate by commas if more than one detector
#SIGNALTYPE  : XRF
#YP_TEMP     : 2.107
#LIVETIME    : 8.54882, 8.56871   seconds (separate by commas if more than one detector)
#REALTIME    : 10, 10.0   seconds (separate by commas if more than one detector)
#SPECTRUM    : start of spectrum data
0, 0
0, 0
0, 0
0, 0
0, 0
0, 0
0, 0
0, 0
0, 0
0, 0
0, 0
0, 0
0, 0
0, 0
0, 0
0, 0
0, 0
0, 0
0, 0
0, 0
0, 0
0, 0
0, 0
0, 0
0, 0
0, 0
0, 0
0, 0
0, 0
1, 0
0, 0
0, 0
0, 0
0, 1
0, 0
0, 0
2, 2
1, 2
2, 2
0, 1
2, 3
3, 2
2, 1
0, 5
1, 2
0, 2
1, 2
6, 2
5, 7
8, 6
21, 21
32, 26
52, 52
71, 77
65, 68
59, 87
59, 60
46, 41
23, 25
9, 13
10, 4
1, 6
4, 3
4, 12
13, 5
9, 7
9, 6
10, 12
18, 17
58, 54
93, 109
185, 191
295, 285
363, 407
411, 471
455, 457
391, 432
315, 301
205, 220
137, 145
74, 85
40, 37
25, 24
13, 21
8, 16
8, 8
6, 7
3, 6
6, 5
2, 6
0, 2
1, 3
2, 1
0, 3
1, 3
2, 3
1, 3
6, 9
11, 11
1, 6
3, 8
6, 5
9, 10
2, 10
5, 19
7, 24
7, 25
22, 34
23, 52
36, 49
47, 53
59, 52
78, 82
64, 79
87, 68
71, 50
59, 65
52, 38
37, 47
33, 29
28, 33
32, 19
27, 23
27, 29
22, 12
19, 12
13, 12
15, 12
8, 10
12, 8
11, 7
2, 5
6, 4
4, 3
1, 3
2, 5
5, 1
4, 4
4, 2
3, 0
2, 0
3, 4
1, 5
3, 2
0, 4
7, 1
5, 4
1, 5
3, 4
9, 3
6, 6
5, 4
12, 9
17, 15
16, 10
20, 28
26, 27
26, 32
28, 23
21, 13
28, 23
15, 13
18, 11
19, 6
19, 9
12, 2
9, 2
5, 6
6, 6
4, 4
7, 10
6, 7
7, 12
4, 8
3, 10
3, 9
2, 8
2, 5
1, 12
2, 4
5, 9
5, 11
3, 2
5, 4
2, 5
1, 2
3, 2
1, 3
2, 9
11, 11
10, 9
8, 11
8, 7
15, 13
8, 11
14, 18
26, 13
23, 20
27, 12
26, 21
42, 15
56, 10
48, 10
54, 4
52, 7
36, 5
35, 6
35, 12
20, 9
18, 19
19, 16
11, 18
4, 21
6, 15
8, 12
5, 10
5, 17
7, 5
9, 7
6, 11
6, 0
1, 5
6, 7
3, 6
8, 5
12, 6
9, 5
7, 18
10, 12
12, 13
8, 26
12, 18
17, 9
12, 14
17, 16
14, 15
11, 13
15, 7
4, 14
11, 7
6, 10
11, 14
6, 14
12, 11
16, 19
18, 19
29, 30
32, 38
34, 46
40, 52
51, 68
60, 61
53, 47
52, 55
49, 35
36, 32
19, 25
26, 14
18, 17
30, 22
35, 28
35, 30
56, 65
89, 102
167, 202
287, 355
468, 603
779, 959
1109, 1344
1572, 1754
1911, 2182
2241, 2449
2320, 2499
2324, 2324
2058, 1993
1735, 1513
1358, 1164
889, 784
552, 470
367, 285
192, 130
98, 82
41, 46
31, 19
31, 19
20, 18
17, 12
17, 14
18, 16
26, 23
33, 28
30, 37
45, 53
67, 79
103, 118
164, 180
168, 246
250, 301
322, 376
339, 380
384, 380
343, 315
277, 276
217, 198
188, 156
125, 99
77, 82
65, 38
27, 22
9, 17
22, 8
7, 3
11, 11
11, 7
8, 6
9, 9
23, 18
14, 14
12, 15
12, 18
17, 12
16, 12
9, 8
9, 5
7, 5
7, 10
5, 4
3, 8
6, 4
2, 4
3, 4
3, 6
3, 6
3, 2
3, 4
4, 3
6, 2
2, 6
2, 7
1, 6
3, 6
0, 11
7, 9
6, 9
5, 13
3, 10
8, 14
9, 10
6, 14
6, 9
9, 15
4, 10
2, 11
6, 8
4, 13
5, 8
8, 7
4, 7
2, 1
0, 6
3, 6
5, 4
3, 0
3, 4
6, 3
3, 2
1, 4
4, 6
5, 3
2, 5
4, 3
5, 6
7, 5
5, 3
3, 5
1, 3
2, 3
4, 5
2, 6
5, 9
11, 1
7, 5
11, 2
18, 3
14, 5
10, 5
15, 6
12, 5
4, 5
14, 3
4, 6
4, 1
7, 3
12, 8
7, 2
4, 3
6, 3
2, 4
7, 3
6, 1
6, 2
3, 6
2, 5
5, 2
4, 5
3, 6
10, 2
10, 4
9, 1
14, 2
10, 4
13, 6
15, 3
9, 7
14, 3
10, 1
11, 3
8, 2
4, 1
9, 4
3, 3
3, 4
1, 4
3, 4
3, 1
0, 3
0, 6
5, 2
2, 5
6, 1
2, 0
4, 6
1, 5
4, 6
2, 1
2, 5
3, 2
2, 3
2, 1
1, 3
5, 3
3, 1
2, 8
2, 2
3, 5
1, 4
0, 2
7, 3
0, 4
2, 3
3, 3
0, 2
0, 2
4, 5
1, 2
5, 1
4, 3
1, 2
3, 3
3, 5
4, 3
2, 0
4, 6
4, 2
5, 3
5, 0
4, 4
2, 3
4, 1
2, 1
2, 1
5, 1
3, 3
0, 4
2, 2
6, 1
2, 1
1, 1
5, 1
3, 3
0, 3
2, 1
2, 2
1, 3
5, 2
1, 4
0, 1
3, 1
0, 2
3, 2
2, 2
2, 2
0, 3
5, 3
2, 2
2, 2
2, 1
3, 0
2, 3
1, 1
3, 1
2, 1
0, 1
1, 3
3, 2
5, 1
2, 1
1, 2
0, 3
1, 2
1, 0
1, 6
3, 2
1, 2
1, 3
2, 1
3, 1
3, 3
3, 2
0, 0
5, 6
2, 2
1, 3
2, 1
4, 4
1, 3
1, 2
0, 1
2, 1
2, 1
1, 4
2, 1
2, 3
3, 2
3, 4
3, 2
2, 1
6, 2
2, 3
4, 1
2, 5
4, 6
4, 3
8, 4
5, 3
3, 3
2, 3
3, 5
1, 3
4, 0
1, 0
1, 4
1, 6
1, 2
1, 2
0, 1
0, 6
2, 1
0, 1
0, 1
1, 3
0, 0
0, 0
0, 2
1, 0
0, 0
0, 1
5, 2
3, 2
2, 2
3, 0
1, 1
2, 0
2, 1
0, 2
1, 4
2, 0
2, 2
0, 0
1, 0
0, 1
0, 0
4, 1
1, 2
0, 1
2, 1
1, 0
0, 1
2, 1
2, 0
0, 1
2, 1
0, 2
1, 0
1, 1
0, 1
3, 2
0, 2
1, 0
0, 3
1, 0
1, 1
0, 1
1, 0
0, 0
0, 2
0, 1
1, 1
2, 2
2, 0
1, 0
0, 0
0, 0
0, 2
0, 0
0, 0
0, 0
1, 2
1, 1
0, 1
2, 0
1, 0
0, 1
1, 0
2, 0
1, 1
1, 0
4, 0
0, 0
1, 0
1, 0
1, 1
0, 2
2, 0
1, 0
1, 1
1, 0
2, 0
1, 3
3, 0
0, 0
1, 2
1, 0
0, 0
0, 0
0, 1
0, 1
2, 0
0, 2
1, 0
0, 1
1, 0
2, 2
0, 0
0, 0
0, 1
0, 0
2, 0
0, 0
1, 0
0, 3
0, 0
1, 0
0, 0
1, 0
2, 0
0, 1
2, 0
0, 0
0, 1
0, 1
0, 1
2, 0
1, 0
0, 0
0, 0
1, 1
1, 0
0, 0
2, 2
0, 0
0, 1
0, 0
1, 1
1, 1
0, 0
0, 0
2, 0
0, 1
0, 2
1, 0
0, 0
1, 0
1, 0
0, 0
0, 1
1, 1
0, 0
0, 0
0, 1
0, 0
0, 1
0, 0
0, 0
0, 0
0, 1
0, 0
0, 1
3, 0
1, 3
0, 0
0, 1
1, 0
1, 1
0, 0
0, 0
1, 0
0, 0
0, 1
1, 0
0, 0
0, 1
0, 0
0, 0
0, 1
0, 0
0, 0
1, 0
0, 0
0, 0
0, 0
0, 0
0, 0
0, 0
0, 0
0, 0
1, 0
0, 0
0, 0
0, 1
1, 0
0, 0
0, 1
0, 0
1, 0
1, 0
0, 1
0, 0
0, 1
0, 0
0, 0
1, 1
0, 0
0, 1
0, 1
0, 0
0, 0
0, 0
0, 2
0, 0
0, 0
0, 0
0, 2
0, 0
2, 0
0, 2
0, 0
0, 1
0, 0
0, 0
0, 0
1, 0
0, 1
0, 1
0, 1
0, 0
0, 0
1, 0
1, 1
0, 1
0, 0
0, 0
0, 0
0, 1
2, 0
0, 0
0, 1
0, 0
1, 0
0, 0
1, 0
0, 1
0, 0
0, 0
0, 0
0, 1
1, 0
0, 0
0, 0
0, 1
1, 1
0, 0
0, 0
0, 1
0, 0
1, 0
0, 1
0, 0
0, 1
0, 0
0, 0
0, 0
0, 1
0, 0
0, 0
0, 0
0, 0
0, 0
0, 1
0, 0
0, 0
0, 0
0, 0
0, 0
0, 0
0, 0
0, 0
0, 0
0, 0
0, 2
0, 0
0, 0
0, 0
0, 0
0, 0
0, 0
0, 1
0, 0
0, 0
0, 0
0, 0
1, 0
0, 0
0, 0
0, 0
2, 0
0, 0
0, 1
0, 0
0, 1
0, 0
0, 0
0, 0
0, 0
0, 0
1, 0
0, 0
0, 1
0, 0
1, 1
0, 0
1, 0
0, 0
0, 0
0, 1
0, 0
0, 0
0, 0
0, 0
0, 0
0, 0
0, 0
0, 0
0, 0
0, 0
0, 0
0, 0
0, 0
0, 0
0, 0
0, 0
0, 0
0, 1
1, 0
0, 0
0, 0
0, 0
1, 0
0, 1
0, 0
0, 0
0, 0
0, 0
0, 0
1, 0
0, 0
1, 0
0, 0
0, 0
0, 0
0, 0
0, 0
0, 0
0, 0
0, 0
0, 0
0, 1
0, 0
0, 0
0, 0
0, 0
0, 0
0, 0
0, 0
0, 0
0, 0
0, 0
0, 1
0, 0
0, 0
1, 0
0, 0
0, 0
0, 0
0, 0
0, 0
0, 0
0, 0
0, 0
0, 0
0, 0
0, 0
0, 0
0, 0
0, 0
0, 0
0, 0
0, 0
0, 0
0, 0
0, 0
0, 0
0, 0
0, 0
0, 0
0, 0
0, 0
0, 0
0, 0
0, 0
0, 0
0, 0
0, 0
0, 0
0, 0
0, 0
0, 0
0, 0
0, 0
0, 0
0, 1
0, 0
0, 0
0, 0
0, 0
0, 0
0, 0
0, 0
0, 0
0, 0
1, 0
1, 0
0, 0
0, 0
0, 0
0, 0
0, 0
0, 0
0, 0
0, 0
0, 0
0, 0
0, 0
0, 0
0, 0
0, 0
0, 0
1, 0
0, 0
0, 0
0, 0
0, 0
0, 0
0, 0
0, 0
0, 0
0, 0
0, 0
0, 0
0, 0
0, 0
0, 0
0, 0
0, 0
0, 0
0, 0
0, 0
0, 0
0, 0
0, 0
0, 0
0, 0
0, 0
0, 0
0, 0
0, 0
0, 0
0, 0
0, 0
0, 0
0, 0
0, 0
0, 0
0, 0
0, 0
0, 0
0, 0
0, 0
0, 0
0, 0
0, 0
0, 0
0, 0
0, 0
0, 0
0, 0
0, 0
0, 0
0, 0
0, 0
0, 0
0, 0
0, 0
0, 0
0, 0
0, 0
0, 0
0, 0
0, 0
0, 0
0, 0
0, 0
0, 0
0, 0
0, 0
0, 0
0, 0
0, 0
0, 0
0, 0
0, 0
0, 0
0, 0
0, 0
0, 0
0, 0
0, 0
0, 0
0, 0
0, 0
0, 0
0, 0
0, 0
0, 0
0, 0
0, 0
0, 0
0, 0
0, 0
0, 0
0, 0
0, 0
0, 0
0, 0
0, 0
0, 0
0, 0
0, 0
0, 0
0, 0
0, 0
0, 0
0, 0
0, 0
0, 0
0, 0
0, 0
0, 0
0, 0
0, 0
0, 0
0, 0
0, 0
0, 0
0, 0
0, 0
0, 0
0, 0
0, 0
0, 0
0, 0
0, 0
0, 0
0, 0
0, 0
0, 0
0, 0
0, 0
0, 0
0, 0
0, 0
0, 0
0, 0
0, 0
0, 0
0, 0
0, 0
0, 0
0, 0
0, 0
0, 0
0, 0
0, 0
0, 0
0, 0
0, 0
0, 0
0, 0
0, 0
0, 0
0, 0
0, 0
0, 0
0, 0
0, 0
0, 0
0, 0
0, 0
0, 0
0, 0
0, 0
0, 0
0, 0
0, 0
0, 0
0, 0
0, 0
0, 0
0, 0
0, 0
0, 0
0, 0
0, 0
0, 0
0, 0
0, 0
0, 0
0, 0
0, 0
0, 0
0, 0
0, 0
0, 0
0, 0
0, 0
0, 0
0, 0
0, 0
0, 0
0, 0
0, 0
0, 0
0, 0
0, 0
0, 0
0, 0
0, 0
0, 0
0, 0
0, 0
0, 0
0, 0
0, 0
0, 0
0, 0
0, 0
0, 0
0, 0
0, 0
0, 0
0, 0
0, 0
0, 0
0, 0
0, 0
0, 0
0, 0
0, 0
0, 0
0, 0
0, 0
0, 0
0, 0
0, 0
0, 0
0, 0
0, 0
0, 0
0, 0
0, 0
0, 0
0, 0
0, 0
0, 0
0, 0
0, 0
0, 0
0, 0
0, 0
0, 0
0, 0
0, 0
0, 0
0, 0
0, 0
0, 0
0, 0
0, 0
0, 0
0, 0
0, 0
0, 0
0, 0
0, 0
0, 0
0, 0
0, 0
0, 0
0, 0
0, 0
0, 0
0, 0
0, 0
0, 0
0, 0
0, 0
0, 0
0, 0
0, 0
0, 0
0, 0
0, 0
0, 0
0, 0
0, 0
0, 0
0, 0
0, 0
0, 0
0, 0
0, 0
0, 0
0, 0
0, 0
0, 0
0, 0
0, 0
0, 0
0, 0
0, 0
0, 0
0, 0
0, 0
0, 0
0, 0
0, 0
0, 0
0, 0
0, 0
0, 0
0, 0
0, 0
0, 0
0, 0
0, 0
0, 0
0, 0
0, 0
0, 0
0, 0
0, 0
0, 0
0, 0
0, 0
0, 0
0, 0
0, 0
0, 0
0, 0
0, 0
0, 0
0, 0
0, 0
0, 0
0, 0
0, 0
0, 0
0, 0
0, 0
0, 0
0, 0
0, 0
0, 0
0, 0
0, 0
0, 0
0, 0
0, 0
0, 0
0, 0
0, 0
0, 0
0, 0
0, 0
0, 0
0, 0
0, 0
0, 0
0, 0
0, 0
0, 0
0, 0
0, 0
0, 0
0, 0
0, 0
0, 0
0, 0
0, 0
0, 0
0, 0
0, 0
0, 0
0, 0
0, 0
0, 0
0, 0
0, 0
0, 0
0, 0
0, 0
0, 0
0, 0
0, 0
0, 0
0, 0
#ENDOFDATA     end of spectrum data