File: host_upload/06-09-2024/ps_0852/dump3/ps__0852shot_2388.msa
#FORMAT      : EMSA/MAS spectral data file
#VERSION     : TC202v2.0 PIXL
#TITLE       : N/A
#DATE        :       Date in the format DD-MMM-YYYY, for example 07-JUL-2010
#TIME        :             The time of day at which the spectrum was recorded, in 24-hour format
#OWNER       : PIXL Flight Model       (PIXL will use this to indicate which instrument took the data.)
#NPOINTS     : 4096     Number of data points in the spectrum (This can be zero for configuration only files)
#NCOLUMNS    : 2     Number of data columns in the spectrum (This can be zero for configuration only files)
#XUNITS      : eV
#YUNITS      : COUNTS
#DATATYPE    : YY
#XPERCHAN    : 7.862, 7.881   eV per channel (separate by commas if more than one detector)
#OFFSET      : 18.5, -22.4         eV of first channel  (separate by commas if more than one detector
#SIGNALTYPE  : XRF
#YP_TEMP     : 2.332
#LIVETIME    : 8.55876, 8.54661   seconds (separate by commas if more than one detector)
#REALTIME    : 10, 10.0   seconds (separate by commas if more than one detector)
#SPECTRUM    : start of spectrum data
0, 0
0, 0
0, 0
0, 0
0, 0
0, 0
0, 0
0, 0
0, 0
0, 0
0, 0
0, 0
0, 0
0, 0
0, 0
0, 0
0, 0
0, 0
0, 0
0, 0
0, 0
0, 0
0, 0
0, 0
0, 0
0, 0
0, 0
0, 0
0, 0
0, 0
0, 0
0, 1
0, 0
1, 0
0, 0
0, 0
1, 1
0, 2
0, 0
2, 0
1, 2
0, 0
2, 1
0, 0
0, 2
1, 2
1, 1
2, 3
10, 5
9, 13
36, 34
49, 47
72, 59
85, 60
98, 74
90, 71
68, 71
58, 35
27, 33
27, 13
6, 4
5, 1
1, 0
1, 1
2, 4
4, 3
8, 4
9, 16
23, 20
50, 52
94, 96
189, 150
301, 247
393, 356
455, 352
514, 389
427, 352
303, 284
234, 183
123, 140
66, 62
53, 36
18, 8
12, 15
2, 1
5, 1
1, 2
1, 2
2, 2
0, 2
3, 1
0, 1
1, 2
1, 0
3, 0
1, 0
2, 3
0, 0
4, 3
4, 1
3, 2
1, 2
4, 1
1, 1
4, 1
3, 5
2, 1
4, 3
4, 5
7, 5
16, 2
17, 17
31, 17
45, 19
35, 17
52, 29
47, 24
31, 20
38, 19
27, 18
31, 19
20, 16
23, 19
18, 17
16, 11
10, 13
20, 12
15, 13
7, 7
7, 6
7, 2
2, 7
2, 4
1, 2
3, 6
2, 5
1, 3
1, 3
2, 1
3, 5
2, 3
1, 3
0, 2
2, 3
2, 2
0, 2
0, 3
4, 5
2, 8
1, 9
3, 14
5, 13
6, 21
8, 28
12, 25
9, 27
21, 27
11, 26
15, 18
17, 10
17, 17
12, 8
10, 6
2, 5
1, 3
3, 4
2, 3
4, 4
5, 6
5, 8
3, 2
5, 3
6, 7
7, 0
7, 7
7, 3
6, 3
5, 2
10, 5
4, 3
5, 2
23, 1
29, 3
25, 2
34, 2
32, 2
39, 2
46, 0
32, 8
26, 5
20, 6
27, 5
16, 4
15, 9
27, 12
13, 12
18, 10
16, 12
19, 21
13, 13
10, 14
20, 12
15, 10
6, 7
7, 5
11, 5
8, 5
7, 5
6, 4
8, 7
8, 6
4, 8
6, 9
3, 20
3, 10
7, 13
6, 10
7, 16
1, 8
5, 11
3, 2
5, 9
5, 10
7, 14
4, 10
5, 5
5, 15
12, 17
14, 12
12, 22
15, 29
14, 26
14, 25
14, 26
20, 29
10, 34
10, 26
11, 15
22, 12
23, 11
24, 9
34, 15
48, 11
60, 13
53, 17
75, 21
71, 20
100, 49
92, 44
102, 55
91, 51
84, 53
80, 51
77, 43
51, 29
40, 20
39, 16
30, 22
24, 16
31, 22
31, 20
50, 22
72, 49
118, 92
192, 203
276, 305
521, 603
798, 895
1203, 1328
1614, 1596
2091, 1960
2324, 2173
2611, 2181
2521, 2114
2173, 1740
1804, 1414
1339, 971
919, 621
636, 388
400, 228
196, 126
92, 83
71, 39
28, 22
22, 22
13, 23
15, 22
18, 26
9, 30
14, 27
25, 27
28, 36
50, 58
78, 79
97, 128
158, 186
236, 246
272, 247
310, 330
349, 339
362, 325
389, 272
313, 257
285, 194
214, 128
146, 119
82, 63
72, 41
36, 13
21, 15
19, 9
13, 6
21, 11
16, 14
16, 13
20, 15
23, 10
16, 10
17, 12
15, 5
19, 9
12, 7
5, 6
14, 2
11, 1
3, 8
6, 4
4, 6
4, 0
6, 1
6, 2
3, 1
2, 5
4, 2
4, 3
4, 6
4, 3
6, 4
4, 3
4, 0
5, 2
3, 4
6, 2
5, 2
6, 5
5, 6
12, 5
6, 4
7, 7
4, 3
6, 7
9, 8
7, 3
13, 5
8, 5
5, 4
6, 7
6, 6
6, 4
9, 5
4, 12
10, 7
8, 10
5, 5
10, 11
10, 4
6, 8
11, 2
13, 7
10, 7
9, 8
6, 7
11, 4
6, 10
6, 8
4, 8
4, 10
4, 8
3, 5
3, 10
3, 8
1, 8
4, 3
3, 3
5, 5
3, 3
4, 2
3, 2
2, 2
4, 4
5, 3
11, 2
2, 0
3, 7
2, 0
8, 4
8, 4
3, 1
6, 4
4, 3
2, 5
7, 5
2, 5
3, 2
1, 3
1, 1
3, 5
1, 1
0, 1
1, 0
2, 1
6, 3
4, 3
3, 2
4, 5
3, 3
2, 3
2, 2
6, 5
5, 3
3, 4
4, 4
3, 4
4, 2
5, 4
7, 2
3, 4
8, 7
8, 6
7, 7
6, 8
6, 3
5, 11
7, 9
5, 14
6, 10
7, 3
4, 9
6, 10
1, 8
2, 8
1, 11
2, 7
1, 6
1, 4
4, 6
0, 1
5, 5
4, 1
4, 3
3, 2
2, 5
1, 0
2, 4
3, 5
2, 3
2, 3
3, 0
3, 1
2, 2
3, 2
4, 3
2, 1
4, 0
0, 4
2, 1
1, 4
4, 2
1, 0
2, 1
2, 4
3, 2
1, 1
5, 1
5, 4
1, 3
2, 5
2, 3
2, 2
2, 3
2, 3
1, 2
5, 2
3, 2
6, 3
3, 1
2, 1
2, 2
7, 3
3, 0
1, 5
2, 2
7, 2
3, 0
5, 1
1, 1
2, 4
3, 1
2, 1
1, 0
2, 2
2, 3
1, 0
3, 2
2, 0
3, 4
4, 4
1, 0
1, 1
2, 5
1, 0
3, 1
0, 3
1, 1
1, 2
4, 3
2, 4
3, 2
1, 1
2, 2
2, 1
2, 2
1, 4
0, 3
1, 1
2, 2
0, 4
0, 2
2, 4
0, 4
2, 2
2, 2
2, 0
1, 3
2, 3
1, 4
1, 3
3, 3
1, 1
4, 1
4, 3
5, 2
2, 7
4, 5
2, 2
2, 2
2, 2
3, 3
4, 5
2, 2
6, 0
2, 3
3, 2
5, 0
2, 2
1, 1
2, 1
0, 1
2, 2
1, 1
6, 1
1, 1
3, 1
0, 3
1, 0
1, 1
0, 3
3, 1
1, 2
2, 4
2, 2
0, 3
2, 0
2, 2
2, 0
4, 0
1, 2
2, 0
1, 0
1, 1
2, 1
1, 1
1, 1
2, 1
2, 2
1, 1
1, 0
2, 1
2, 1
1, 1
0, 2
2, 1
3, 3
1, 0
1, 0
1, 0
1, 0
1, 1
0, 1
2, 1
2, 3
2, 0
1, 1
0, 0
0, 3
2, 2
1, 0
1, 1
0, 1
0, 0
1, 0
1, 0
0, 2
1, 1
4, 0
2, 0
1, 1
1, 3
0, 1
1, 1
0, 0
0, 1
0, 0
1, 0
0, 1
0, 1
1, 1
1, 1
0, 1
0, 1
0, 1
1, 1
0, 1
1, 4
0, 0
2, 1
1, 1
3, 1
0, 2
0, 3
1, 0
3, 2
1, 1
0, 0
0, 0
3, 1
1, 0
1, 0
1, 0
0, 0
1, 0
0, 0
3, 1
0, 2
0, 0
0, 0
1, 1
0, 0
0, 2
0, 3
0, 1
2, 1
0, 1
1, 0
2, 0
1, 1
0, 1
0, 0
0, 0
0, 0
1, 1
0, 0
1, 1
2, 1
1, 0
1, 0
0, 1
0, 0
1, 0
2, 0
0, 0
1, 1
1, 0
0, 0
1, 0
2, 0
0, 1
1, 0
0, 0
0, 0
3, 1
0, 2
1, 1
1, 1
1, 0
1, 0
0, 0
1, 0
1, 1
0, 0
0, 0
0, 0
0, 0
1, 0
1, 1
0, 1
1, 0
0, 0
0, 0
0, 0
0, 1
1, 0
0, 1
0, 0
0, 1
1, 0
0, 0
1, 0
0, 0
1, 0
0, 0
0, 0
0, 1
0, 0
1, 1
0, 0
0, 1
1, 0
1, 0
0, 0
0, 2
0, 0
0, 0
2, 1
0, 1
0, 0
0, 3
1, 0
0, 0
0, 0
0, 0
1, 1
0, 0
0, 0
1, 0
0, 0
0, 0
0, 0
0, 1
1, 0
1, 0
0, 1
1, 1
1, 0
0, 0
0, 0
0, 0
1, 0
0, 0
0, 0
0, 0
1, 0
0, 0
1, 0
0, 0
0, 0
0, 0
0, 0
1, 0
0, 0
0, 0
0, 0
1, 0
0, 2
0, 0
0, 1
0, 1
0, 0
0, 0
0, 1
0, 0
0, 0
0, 0
0, 0
0, 0
1, 0
0, 0
0, 1
0, 0
1, 0
2, 0
0, 0
0, 0
0, 2
1, 1
0, 1
0, 0
0, 0
0, 1
0, 1
0, 0
0, 0
0, 0
0, 0
1, 0
0, 0
1, 0
0, 2
0, 0
0, 1
0, 0
1, 0
0, 0
0, 0
0, 0
0, 0
0, 0
0, 0
0, 0
0, 0
0, 1
0, 2
0, 0
0, 1
0, 0
0, 0
0, 0
0, 0
0, 0
0, 0
1, 0
0, 0
0, 0
0, 0
0, 0
0, 0
0, 0
0, 0
0, 0
0, 0
0, 0
0, 0
0, 0
0, 0
0, 1
0, 1
0, 0
0, 0
0, 0
0, 0
0, 0
0, 0
0, 0
0, 0
0, 1
0, 0
1, 0
1, 0
0, 0
0, 0
1, 0
0, 0
0, 1
0, 0
0, 0
0, 0
0, 1
0, 0
0, 0
0, 0
0, 0
0, 1
0, 0
0, 0
0, 0
0, 0
0, 0
0, 0
0, 0
0, 0
0, 0
0, 0
0, 0
0, 0
0, 1
1, 0
0, 0
0, 0
0, 0
0, 0
0, 0
0, 0
0, 0
0, 0
0, 0
0, 0
0, 0
0, 0
0, 0
0, 0
0, 1
0, 0
0, 0
0, 0
0, 0
0, 0
0, 0
0, 0
0, 0
0, 0
0, 0
0, 0
0, 0
0, 0
0, 0
0, 0
0, 0
0, 0
0, 0
0, 0
0, 0
0, 0
0, 0
0, 0
0, 0
0, 0
0, 0
0, 1
0, 0
0, 0
0, 0
0, 0
0, 0
0, 0
0, 0
0, 0
0, 0
0, 0
0, 0
0, 0
0, 0
0, 0
0, 0
0, 0
0, 0
0, 0
1, 0
0, 0
0, 0
0, 0
0, 0
0, 0
0, 0
0, 0
0, 0
0, 0
0, 0
0, 0
0, 0
0, 0
0, 0
0, 0
0, 0
0, 0
0, 0
0, 0
0, 0
0, 0
0, 0
0, 0
0, 0
0, 0
0, 0
0, 0
0, 0
0, 0
0, 0
0, 0
0, 0
0, 0
0, 0
0, 0
0, 0
0, 0
0, 0
0, 0
0, 0
0, 0
0, 0
0, 0
0, 0
0, 0
0, 0
0, 0
0, 0
0, 0
0, 0
0, 0
0, 0
0, 0
0, 0
0, 0
0, 0
0, 0
0, 0
0, 0
0, 0
0, 0
0, 0
0, 0
0, 0
0, 0
0, 0
0, 0
0, 0
0, 0
0, 0
0, 0
0, 0
0, 0
0, 0
0, 0
0, 0
0, 0
0, 0
0, 0
0, 1
0, 0
0, 0
0, 0
0, 0
0, 0
0, 0
0, 0
0, 0
0, 0
0, 0
0, 0
0, 0
0, 0
0, 0
0, 0
0, 0
0, 0
0, 0
0, 0
0, 0
0, 0
0, 0
0, 0
0, 0
0, 0
0, 0
0, 0
0, 0
0, 0
0, 0
0, 0
0, 0
0, 0
0, 0
0, 0
0, 0
0, 0
0, 0
0, 0
0, 0
0, 0
0, 0
0, 0
0, 0
0, 0
0, 0
0, 0
0, 0
0, 0
0, 0
0, 0
0, 0
0, 0
0, 0
0, 0
0, 0
0, 0
0, 0
0, 0
0, 0
0, 0
0, 0
0, 0
0, 0
0, 0
0, 0
0, 0
0, 0
0, 0
0, 0
0, 0
0, 0
0, 0
0, 0
0, 0
0, 0
0, 0
0, 0
0, 0
0, 0
0, 0
0, 0
0, 0
0, 0
0, 0
0, 0
0, 0
0, 0
0, 0
0, 0
0, 0
0, 0
0, 0
0, 0
0, 0
0, 0
0, 0
0, 0
0, 0
0, 0
0, 0
0, 0
0, 0
0, 0
0, 0
0, 0
0, 0
0, 0
0, 0
0, 0
0, 0
0, 0
0, 0
0, 0
0, 0
0, 0
0, 0
0, 0
0, 0
0, 0
0, 0
0, 0
0, 0
0, 0
0, 0
0, 0
0, 0
0, 0
0, 0
0, 0
0, 0
0, 0
0, 0
0, 0
0, 0
0, 0
0, 0
0, 0
0, 0
0, 0
0, 0
0, 0
0, 0
0, 0
0, 0
0, 0
0, 0
0, 0
0, 0
0, 0
0, 0
0, 0
0, 0
0, 0
0, 0
0, 0
0, 0
0, 0
0, 0
0, 0
0, 0
0, 0
0, 0
0, 0
0, 0
0, 0
0, 0
0, 0
0, 0
0, 0
0, 0
0, 0
0, 0
0, 0
0, 0
0, 0
0, 0
0, 0
0, 0
0, 0
0, 0
0, 0
0, 0
0, 0
0, 0
0, 0
0, 0
0, 0
0, 0
0, 0
0, 0
0, 0
0, 0
0, 0
0, 0
0, 0
0, 0
0, 0
0, 0
0, 0
0, 0
0, 0
0, 0
0, 0
0, 0
0, 0
0, 0
0, 0
0, 0
0, 0
0, 0
0, 0
0, 0
0, 0
0, 0
0, 0
0, 0
0, 0
0, 0
0, 0
0, 0
0, 0
0, 0
0, 0
0, 0
0, 0
0, 0
0, 0
0, 0
0, 0
0, 0
0, 0
0, 0
0, 0
0, 0
0, 0
0, 0
0, 0
0, 0
0, 0
0, 0
0, 0
0, 0
0, 0
0, 0
0, 0
0, 0
0, 0
0, 0
0, 0
0, 0
0, 0
0, 0
0, 0
0, 0
0, 0
0, 0
0, 0
0, 0
0, 0
0, 0
0, 0
0, 0
0, 0
0, 0
0, 0
0, 0
0, 0
0, 0
0, 0
0, 0
0, 0
0, 0
0, 0
0, 0
0, 0
0, 0
0, 0
0, 0
0, 0
0, 0
0, 0
0, 0
0, 0
0, 0
0, 0
0, 0
0, 0
0, 0
0, 0
0, 0
0, 0
0, 0
0, 0
0, 0
0, 0
0, 0
0, 0
0, 0
0, 0
0, 0
0, 0
0, 0
0, 0
0, 0
0, 0
0, 0
0, 0
0, 0
0, 0
0, 0
0, 0
0, 0
0, 0
0, 0
0, 0
0, 0
0, 0
0, 0
0, 0
0, 0
0, 0
0, 0
0, 0
0, 0
0, 0
0, 0
0, 0
0, 0
0, 0
0, 0
0, 0
0, 0
0, 0
0, 0
0, 0
0, 0
0, 0
0, 0
#ENDOFDATA     end of spectrum data