File: host_upload/06-09-2024/ps_0852/dump3/ps__0852shot_2110.msa
#FORMAT      : EMSA/MAS spectral data file
#VERSION     : TC202v2.0 PIXL
#TITLE       : N/A
#DATE        :       Date in the format DD-MMM-YYYY, for example 07-JUL-2010
#TIME        :             The time of day at which the spectrum was recorded, in 24-hour format
#OWNER       : PIXL Flight Model       (PIXL will use this to indicate which instrument took the data.)
#NPOINTS     : 4096     Number of data points in the spectrum (This can be zero for configuration only files)
#NCOLUMNS    : 2     Number of data columns in the spectrum (This can be zero for configuration only files)
#XUNITS      : eV
#YUNITS      : COUNTS
#DATATYPE    : YY
#XPERCHAN    : 7.862, 7.881   eV per channel (separate by commas if more than one detector)
#OFFSET      : 18.5, -22.4         eV of first channel  (separate by commas if more than one detector
#SIGNALTYPE  : XRF
#YP_TEMP     : 2.524
#LIVETIME    : 8.55546, 8.55881   seconds (separate by commas if more than one detector)
#REALTIME    : 10, 10.0   seconds (separate by commas if more than one detector)
#SPECTRUM    : start of spectrum data
0, 0
0, 0
0, 0
0, 0
0, 0
0, 0
0, 0
0, 0
0, 0
0, 0
0, 0
0, 0
0, 0
0, 0
0, 0
0, 0
0, 0
0, 0
0, 0
0, 0
0, 0
0, 0
0, 0
0, 0
0, 0
0, 0
0, 0
0, 0
0, 0
1, 0
0, 1
0, 0
0, 0
0, 1
1, 1
0, 2
1, 2
2, 0
2, 1
2, 0
1, 10
2, 1
3, 2
1, 1
3, 0
5, 2
3, 5
2, 3
9, 5
7, 15
12, 17
27, 32
26, 28
48, 48
48, 65
37, 53
36, 38
37, 33
20, 12
9, 13
5, 5
6, 9
7, 9
8, 8
5, 10
6, 3
5, 9
11, 14
17, 16
26, 40
72, 77
95, 112
182, 170
216, 267
251, 327
266, 309
251, 302
194, 194
139, 141
72, 75
48, 54
34, 27
15, 22
7, 11
3, 3
15, 5
5, 5
8, 3
4, 3
6, 8
6, 4
9, 11
28, 28
53, 51
99, 104
141, 176
196, 248
289, 340
333, 386
371, 359
338, 298
270, 276
182, 203
111, 125
91, 68
71, 58
55, 34
54, 48
55, 52
79, 61
82, 78
79, 96
132, 134
104, 171
118, 143
93, 121
96, 123
90, 80
68, 73
61, 58
43, 48
40, 43
48, 46
36, 36
21, 26
29, 22
22, 26
20, 23
17, 14
16, 9
12, 12
4, 6
7, 7
6, 4
3, 6
7, 5
6, 5
6, 4
3, 6
6, 7
5, 9
9, 11
7, 3
4, 5
3, 3
4, 1
6, 5
2, 5
5, 7
8, 5
14, 9
19, 28
29, 35
54, 66
83, 103
95, 108
137, 143
159, 168
118, 151
122, 123
96, 93
75, 69
42, 41
25, 30
8, 17
12, 10
13, 12
14, 15
23, 14
18, 24
23, 24
13, 25
23, 23
13, 21
9, 23
17, 18
10, 15
9, 11
13, 15
8, 14
5, 9
5, 4
5, 7
5, 9
6, 8
3, 4
6, 3
9, 9
11, 10
4, 7
8, 13
9, 12
14, 19
16, 7
14, 14
23, 18
20, 11
15, 20
12, 14
11, 12
15, 8
19, 10
8, 13
12, 5
14, 11
7, 13
7, 14
15, 21
6, 24
9, 22
3, 28
6, 20
5, 19
9, 23
7, 11
4, 19
3, 17
7, 13
3, 8
5, 11
3, 7
9, 11
7, 13
13, 12
15, 9
7, 16
18, 17
21, 20
30, 28
31, 33
33, 31
47, 38
38, 41
56, 45
57, 35
45, 31
33, 29
34, 18
20, 21
33, 16
16, 13
19, 10
18, 8
13, 21
9, 20
29, 27
20, 41
42, 50
37, 48
50, 73
74, 72
60, 92
56, 82
62, 58
52, 43
32, 31
32, 27
29, 20
14, 17
20, 19
19, 24
29, 37
53, 60
73, 118
149, 191
250, 347
407, 599
731, 966
1073, 1328
1371, 1756
1760, 2184
2098, 2455
2198, 2488
2133, 2302
1958, 1982
1579, 1496
1277, 1190
778, 769
544, 512
347, 305
187, 149
105, 84
44, 50
35, 29
25, 20
15, 14
15, 10
12, 11
13, 24
26, 22
20, 27
29, 30
62, 35
66, 82
100, 105
115, 147
181, 229
243, 297
307, 352
315, 347
333, 362
307, 361
285, 283
200, 229
178, 177
134, 120
71, 80
54, 43
26, 25
27, 14
14, 6
8, 7
6, 3
6, 11
13, 11
5, 8
10, 9
18, 11
13, 8
31, 18
20, 11
35, 7
39, 7
29, 5
36, 3
41, 11
40, 3
27, 2
25, 5
11, 4
18, 4
11, 4
4, 4
9, 3
6, 3
9, 1
4, 1
9, 2
7, 0
6, 5
4, 3
7, 6
9, 4
9, 6
5, 4
4, 2
7, 9
4, 5
5, 6
2, 2
4, 4
5, 3
2, 6
7, 7
4, 6
2, 5
5, 5
2, 6
3, 5
3, 4
7, 5
7, 6
4, 8
4, 1
5, 8
4, 3
6, 8
3, 8
4, 4
2, 3
4, 5
2, 5
2, 2
8, 3
8, 7
6, 4
3, 5
7, 5
8, 4
10, 4
8, 1
5, 1
8, 2
2, 4
4, 9
5, 5
5, 3
3, 3
7, 4
2, 2
6, 5
0, 5
6, 9
6, 5
2, 6
5, 7
5, 6
2, 4
2, 2
1, 6
3, 8
4, 6
4, 5
1, 4
6, 6
3, 2
2, 7
7, 7
4, 8
5, 2
8, 6
7, 3
3, 8
7, 7
6, 9
2, 6
5, 12
2, 8
6, 10
2, 20
6, 13
6, 16
0, 20
4, 10
7, 11
12, 5
4, 9
9, 3
8, 4
7, 5
7, 3
7, 4
2, 4
6, 2
7, 4
4, 1
5, 2
2, 2
1, 6
5, 5
6, 2
2, 6
0, 3
5, 5
3, 2
5, 1
5, 3
8, 1
3, 2
4, 2
5, 2
3, 4
1, 2
3, 1
5, 2
3, 4
5, 3
1, 1
4, 2
0, 1
3, 5
1, 6
2, 4
4, 2
5, 2
6, 4
7, 2
2, 1
4, 1
5, 3
8, 8
5, 6
10, 2
5, 3
3, 0
7, 2
3, 1
2, 2
4, 3
3, 3
2, 2
2, 1
0, 2
2, 1
1, 2
1, 5
2, 1
4, 6
2, 0
2, 2
2, 1
1, 3
2, 3
1, 6
2, 2
4, 0
1, 3
0, 1
1, 3
4, 2
1, 5
2, 2
1, 2
2, 3
0, 2
0, 1
1, 2
1, 2
0, 2
4, 5
1, 0
3, 2
2, 3
3, 0
0, 1
1, 0
2, 3
4, 2
2, 2
1, 1
2, 0
1, 2
1, 0
1, 1
1, 0
1, 0
1, 3
0, 2
2, 3
1, 0
1, 2
3, 3
1, 5
1, 0
0, 1
1, 3
2, 2
2, 4
2, 2
2, 6
3, 3
1, 4
6, 2
3, 4
4, 8
4, 5
4, 2
4, 2
0, 2
3, 2
3, 1
4, 2
0, 4
0, 0
1, 3
2, 0
2, 1
4, 3
0, 1
2, 3
1, 1
1, 2
3, 0
0, 4
1, 2
2, 1
1, 4
5, 1
1, 1
2, 2
0, 1
0, 0
3, 2
1, 3
1, 2
2, 0
3, 1
1, 1
0, 0
1, 2
0, 3
0, 2
2, 0
0, 1
1, 1
1, 0
2, 1
0, 2
0, 2
1, 1
0, 1
1, 0
1, 2
1, 1
1, 1
0, 3
4, 4
0, 2
1, 2
2, 1
5, 1
1, 1
0, 0
0, 1
1, 3
0, 0
0, 1
0, 1
0, 1
3, 3
1, 0
1, 2
0, 1
0, 0
0, 1
1, 0
2, 1
1, 2
1, 2
1, 0
0, 2
1, 3
1, 0
1, 1
0, 0
1, 0
1, 0
0, 2
1, 1
0, 0
0, 0
1, 1
0, 0
1, 1
1, 0
1, 3
0, 1
0, 0
1, 0
0, 1
1, 0
1, 1
1, 0
0, 0
1, 1
0, 1
0, 2
0, 2
0, 0
0, 1
0, 0
0, 2
0, 2
0, 0
0, 1
2, 1
0, 0
0, 2
1, 0
1, 0
0, 1
1, 1
0, 1
0, 0
0, 0
1, 0
0, 0
1, 0
1, 0
1, 2
0, 0
2, 0
0, 0
1, 0
2, 0
1, 0
2, 1
0, 0
2, 0
1, 0
1, 0
1, 0
0, 0
0, 1
3, 1
1, 0
1, 0
0, 1
0, 0
1, 0
2, 2
0, 0
1, 0
0, 0
0, 1
1, 0
0, 1
2, 1
0, 1
0, 0
0, 0
0, 2
0, 0
1, 0
2, 0
0, 0
0, 0
0, 0
0, 0
0, 0
1, 0
0, 0
0, 1
0, 0
2, 0
2, 0
0, 0
0, 0
0, 0
0, 1
0, 1
0, 0
0, 0
0, 0
0, 0
2, 1
0, 0
1, 0
0, 0
0, 1
1, 0
0, 0
1, 0
0, 0
1, 1
0, 0
1, 0
0, 0
0, 1
0, 1
0, 2
0, 0
0, 1
0, 0
0, 2
0, 0
0, 1
0, 0
0, 0
2, 0
0, 0
0, 0
0, 0
0, 0
0, 0
0, 0
1, 0
0, 1
0, 1
0, 0
1, 0
0, 1
1, 0
0, 1
0, 0
1, 0
0, 1
2, 0
1, 0
0, 0
0, 0
1, 0
0, 0
0, 1
1, 0
0, 0
0, 0
0, 2
0, 0
0, 0
0, 0
1, 1
0, 1
0, 0
0, 0
0, 0
1, 0
1, 0
0, 0
1, 0
0, 0
1, 0
0, 0
0, 0
1, 0
0, 0
0, 1
0, 0
0, 0
0, 1
0, 0
1, 0
0, 1
0, 0
0, 0
0, 0
1, 0
0, 0
0, 0
0, 0
0, 0
0, 1
0, 0
0, 0
1, 1
0, 0
0, 1
0, 0
0, 0
1, 0
0, 0
0, 1
0, 0
0, 1
0, 0
0, 2
0, 0
1, 0
0, 0
0, 0
0, 0
0, 1
0, 0
0, 0
0, 1
0, 0
1, 1
0, 0
0, 0
1, 0
0, 0
1, 0
0, 0
0, 0
1, 0
0, 0
0, 1
0, 0
0, 0
0, 0
1, 0
1, 0
0, 0
1, 0
0, 0
0, 0
0, 0
0, 0
0, 0
0, 0
0, 0
0, 0
0, 0
0, 0
1, 1
0, 0
0, 0
0, 0
0, 0
0, 1
0, 0
0, 0
0, 0
0, 0
0, 0
0, 0
0, 0
0, 0
0, 0
0, 1
0, 1
0, 0
0, 0
0, 0
0, 0
1, 0
0, 0
0, 0
0, 0
0, 0
0, 0
0, 0
0, 0
0, 0
0, 1
0, 0
0, 0
0, 0
0, 0
0, 0
0, 0
1, 1
0, 0
0, 0
0, 0
0, 0
0, 0
0, 1
0, 0
0, 0
0, 0
0, 0
0, 0
0, 0
0, 0
0, 0
0, 0
0, 0
0, 0
0, 1
0, 0
0, 0
0, 0
0, 0
0, 0
0, 0
0, 0
1, 0
0, 0
0, 0
0, 0
0, 0
0, 0
1, 0
0, 0
0, 0
0, 0
0, 0
0, 0
0, 0
0, 0
0, 0
0, 0
0, 0
0, 0
0, 0
0, 0
0, 0
0, 0
0, 0
0, 0
0, 0
0, 1
0, 0
0, 0
0, 0
0, 0
0, 0
0, 0
0, 0
0, 0
0, 0
0, 0
0, 0
0, 0
0, 0
0, 0
0, 0
0, 0
0, 0
0, 0
0, 0
0, 0
0, 0
0, 0
0, 0
0, 1
0, 0
0, 0
0, 0
0, 0
0, 0
0, 0
0, 1
0, 0
0, 0
0, 0
0, 0
0, 0
0, 0
0, 0
0, 0
0, 0
0, 0
0, 0
0, 0
0, 0
0, 0
0, 0
0, 0
0, 1
0, 0
0, 0
0, 0
0, 0
0, 0
0, 0
0, 0
0, 0
0, 0
0, 0
0, 0
0, 0
0, 0
0, 0
0, 0
0, 0
0, 0
0, 0
0, 0
0, 0
0, 0
0, 0
0, 0
0, 0
0, 0
0, 0
0, 0
0, 0
0, 0
0, 0
0, 0
0, 1
0, 0
0, 0
0, 0
0, 0
0, 0
0, 0
0, 0
0, 0
1, 0
0, 0
0, 0
0, 0
0, 0
0, 0
0, 0
0, 0
0, 0
0, 0
0, 0
0, 0
0, 0
0, 0
0, 0
0, 0
0, 0
0, 0
0, 0
0, 0
0, 0
0, 0
0, 0
0, 0
0, 0
0, 0
0, 0
0, 0
0, 0
0, 0
0, 0
0, 0
0, 0
0, 0
0, 0
0, 0
0, 0
0, 0
0, 0
0, 0
0, 0
0, 0
0, 0
0, 0
0, 0
0, 0
0, 0
0, 0
0, 0
0, 0
0, 0
0, 0
0, 0
0, 0
0, 0
0, 0
0, 0
0, 0
0, 0
0, 0
0, 0
0, 0
0, 0
0, 0
0, 0
0, 0
0, 0
0, 0
0, 0
0, 0
0, 0
0, 0
0, 0
0, 0
0, 0
0, 0
0, 0
0, 0
0, 0
0, 0
0, 0
0, 0
0, 0
0, 0
0, 0
0, 0
0, 0
0, 0
0, 0
0, 0
0, 0
1, 0
0, 0
0, 0
0, 0
0, 0
0, 0
0, 0
0, 0
0, 0
0, 0
0, 0
0, 0
0, 0
0, 0
0, 0
0, 0
0, 0
0, 0
0, 0
0, 0
0, 0
0, 0
0, 0
0, 0
0, 0
0, 0
0, 0
0, 0
0, 0
0, 0
0, 0
0, 0
0, 0
0, 0
0, 0
0, 0
0, 0
0, 0
0, 0
0, 0
0, 0
0, 0
0, 0
0, 0
0, 0
0, 0
0, 0
0, 0
0, 0
0, 0
0, 0
0, 0
0, 0
0, 0
0, 0
0, 0
0, 0
0, 0
0, 0
0, 0
0, 0
0, 0
0, 0
0, 0
0, 0
0, 0
0, 0
0, 0
0, 0
0, 0
0, 0
0, 0
0, 0
0, 0
0, 0
0, 0
0, 0
0, 0
0, 0
0, 0
0, 0
0, 0
0, 0
0, 0
0, 0
0, 0
0, 0
0, 0
0, 0
0, 0
0, 0
0, 0
0, 0
0, 0
0, 0
0, 0
0, 0
0, 0
0, 0
0, 0
0, 0
0, 0
0, 0
0, 0
0, 0
0, 0
0, 0
0, 0
0, 0
0, 0
0, 0
0, 0
0, 0
0, 0
0, 0
0, 0
0, 0
0, 0
0, 0
0, 0
0, 0
0, 0
0, 0
0, 0
0, 0
0, 0
0, 0
0, 0
0, 0
0, 0
0, 0
0, 0
0, 0
0, 0
0, 0
0, 0
0, 0
0, 0
0, 0
0, 0
0, 0
0, 0
0, 0
0, 0
0, 0
0, 0
0, 0
0, 0
0, 0
0, 0
0, 0
0, 0
0, 0
0, 0
0, 0
0, 0
0, 0
0, 0
0, 0
0, 0
0, 0
0, 0
0, 0
0, 0
0, 0
0, 0
0, 0
0, 0
0, 0
0, 0
0, 0
0, 0
0, 0
0, 0
0, 0
0, 0
0, 0
0, 0
0, 0
0, 0
0, 0
0, 0
0, 0
0, 0
0, 0
0, 0
0, 0
0, 0
0, 0
0, 0
0, 0
0, 0
0, 0
0, 0
0, 0
0, 0
0, 0
0, 0
0, 0
0, 0
0, 0
0, 0
0, 0
0, 0
0, 0
0, 0
0, 0
0, 0
0, 0
0, 0
0, 0
0, 0
0, 0
0, 0
0, 0
0, 0
0, 0
0, 0
0, 0
0, 0
0, 0
0, 0
0, 0
0, 0
0, 0
0, 0
0, 0
0, 0
0, 0
0, 0
0, 0
0, 0
0, 0
0, 0
#ENDOFDATA     end of spectrum data