File: host_upload/06-09-2024/ps_0852/dump3/ps__0852shot_2213.msa
#FORMAT      : EMSA/MAS spectral data file
#VERSION     : TC202v2.0 PIXL
#TITLE       : N/A
#DATE        :       Date in the format DD-MMM-YYYY, for example 07-JUL-2010
#TIME        :             The time of day at which the spectrum was recorded, in 24-hour format
#OWNER       : PIXL Flight Model       (PIXL will use this to indicate which instrument took the data.)
#NPOINTS     : 4096     Number of data points in the spectrum (This can be zero for configuration only files)
#NCOLUMNS    : 2     Number of data columns in the spectrum (This can be zero for configuration only files)
#XUNITS      : eV
#YUNITS      : COUNTS
#DATATYPE    : YY
#XPERCHAN    : 7.862, 7.881   eV per channel (separate by commas if more than one detector)
#OFFSET      : 18.5, -22.4         eV of first channel  (separate by commas if more than one detector
#SIGNALTYPE  : XRF
#YP_TEMP     : 2.107
#LIVETIME    : 8.54456, 8.57125   seconds (separate by commas if more than one detector)
#REALTIME    : 10, 10.0   seconds (separate by commas if more than one detector)
#SPECTRUM    : start of spectrum data
0, 0
0, 0
0, 0
0, 0
0, 0
0, 0
0, 0
0, 0
0, 0
0, 0
0, 0
0, 0
0, 0
0, 0
0, 0
0, 0
0, 0
0, 0
0, 0
0, 0
0, 0
0, 0
0, 0
0, 0
0, 0
0, 0
0, 0
0, 0
0, 0
0, 0
0, 0
0, 0
0, 0
0, 0
0, 0
1, 0
1, 0
0, 0
1, 0
3, 2
0, 0
1, 0
3, 1
1, 1
0, 2
1, 2
0, 2
1, 3
4, 5
12, 11
20, 15
38, 38
66, 56
88, 78
77, 72
78, 74
66, 55
54, 30
38, 27
10, 20
9, 6
5, 7
6, 2
4, 5
7, 3
9, 4
13, 5
8, 10
31, 18
64, 49
99, 103
177, 188
295, 256
373, 377
398, 391
462, 408
386, 333
307, 269
202, 188
123, 116
71, 66
44, 35
19, 19
11, 9
5, 5
4, 7
1, 2
2, 3
3, 2
1, 2
3, 0
3, 1
4, 1
2, 1
3, 2
3, 3
5, 4
5, 6
6, 5
9, 5
9, 8
5, 4
4, 4
0, 4
3, 4
7, 2
5, 3
5, 9
7, 10
9, 11
15, 12
23, 25
33, 18
32, 37
39, 32
46, 30
38, 39
41, 25
36, 19
31, 21
21, 19
21, 21
22, 16
31, 12
9, 16
20, 14
14, 11
14, 14
14, 7
9, 5
9, 6
3, 6
3, 0
4, 4
1, 0
1, 1
3, 3
3, 1
1, 1
1, 2
3, 1
3, 4
4, 2
2, 0
1, 3
1, 3
2, 2
0, 5
2, 2
6, 1
1, 2
1, 2
6, 5
12, 13
10, 15
14, 19
26, 22
18, 17
6, 18
18, 13
9, 12
9, 8
2, 4
1, 7
2, 2
4, 6
3, 3
4, 6
4, 4
5, 3
7, 5
13, 6
19, 5
19, 6
23, 4
19, 3
23, 1
21, 4
26, 4
23, 3
28, 3
30, 0
27, 3
30, 8
45, 7
28, 2
27, 4
20, 8
19, 5
17, 5
16, 4
15, 12
15, 10
15, 9
15, 9
12, 18
22, 24
16, 16
16, 27
18, 15
17, 33
15, 28
12, 39
5, 34
5, 38
6, 22
6, 17
5, 17
2, 16
12, 11
4, 13
4, 8
7, 11
5, 9
7, 2
5, 4
5, 12
8, 10
5, 10
2, 9
3, 12
5, 13
9, 6
4, 9
8, 7
11, 8
10, 11
18, 10
8, 13
15, 19
17, 13
21, 12
10, 10
26, 10
26, 15
33, 12
33, 10
45, 12
44, 3
38, 9
53, 10
51, 6
59, 7
58, 13
71, 10
77, 19
93, 23
84, 36
97, 36
88, 57
96, 66
95, 46
75, 48
64, 42
48, 36
26, 25
32, 29
16, 24
14, 17
14, 12
22, 20
23, 35
38, 66
75, 90
144, 207
290, 350
473, 563
780, 917
1174, 1261
1515, 1725
2015, 2021
2283, 2305
2481, 2357
2481, 2207
2233, 1907
1856, 1452
1433, 1153
954, 724
622, 462
373, 279
208, 153
121, 68
60, 53
23, 26
33, 27
21, 20
9, 9
14, 21
17, 22
16, 18
29, 18
38, 37
59, 68
75, 70
111, 114
165, 185
203, 219
280, 296
320, 306
367, 345
384, 315
362, 300
319, 259
274, 207
229, 133
140, 117
97, 71
73, 49
37, 35
25, 10
21, 14
10, 4
12, 7
6, 11
10, 14
11, 12
15, 11
16, 12
14, 22
15, 17
12, 14
15, 9
8, 5
8, 6
5, 12
6, 5
2, 3
4, 7
7, 6
2, 1
7, 3
0, 3
5, 5
0, 4
8, 2
5, 2
4, 7
4, 6
6, 2
7, 5
5, 1
11, 3
3, 3
9, 5
9, 3
4, 3
9, 5
7, 8
16, 6
16, 5
21, 4
26, 2
16, 7
23, 7
33, 8
24, 7
12, 9
17, 14
18, 14
12, 11
13, 12
12, 12
11, 19
9, 15
9, 11
9, 12
9, 12
14, 5
11, 7
6, 8
9, 8
14, 3
7, 7
8, 10
10, 11
4, 4
6, 7
3, 17
4, 12
5, 9
4, 15
3, 7
4, 5
3, 7
6, 5
0, 3
3, 1
2, 3
6, 4
2, 6
3, 5
4, 4
1, 6
4, 6
0, 5
3, 3
3, 4
5, 4
9, 4
2, 6
3, 3
2, 3
2, 2
5, 5
2, 3
1, 3
5, 2
2, 2
3, 2
6, 5
3, 3
4, 5
5, 3
3, 2
3, 3
1, 2
2, 5
2, 2
3, 1
4, 7
5, 7
6, 6
3, 3
6, 3
4, 7
5, 4
9, 3
6, 5
11, 7
4, 6
11, 10
7, 14
8, 11
7, 19
9, 13
3, 14
5, 14
2, 10
3, 15
6, 13
6, 7
5, 7
4, 5
2, 5
2, 6
2, 6
6, 3
6, 3
2, 4
3, 3
3, 3
3, 5
1, 3
0, 3
2, 0
1, 6
4, 5
1, 2
2, 5
2, 3
1, 1
2, 5
4, 0
4, 5
3, 3
3, 3
3, 4
2, 2
2, 4
6, 1
8, 3
1, 4
1, 4
4, 3
8, 1
2, 4
4, 2
4, 1
4, 3
4, 3
0, 4
3, 4
4, 2
0, 0
0, 2
3, 2
1, 0
4, 2
1, 1
4, 3
1, 0
0, 2
3, 1
2, 4
3, 3
2, 1
5, 1
1, 3
0, 3
2, 3
2, 2
3, 3
2, 2
3, 1
2, 2
1, 3
3, 5
1, 1
0, 2
0, 1
0, 2
0, 2
4, 1
0, 2
2, 3
2, 1
3, 4
2, 2
2, 1
3, 3
2, 2
2, 1
1, 1
3, 3
1, 1
3, 2
0, 1
2, 2
2, 2
2, 3
2, 2
2, 2
2, 3
5, 0
5, 1
0, 0
2, 4
1, 2
0, 7
4, 2
6, 3
5, 3
9, 3
7, 5
8, 6
2, 2
5, 3
1, 4
5, 3
6, 0
2, 3
2, 1
3, 3
0, 2
3, 1
1, 3
4, 0
2, 2
4, 4
0, 4
1, 1
2, 2
3, 1
1, 2
2, 0
2, 3
2, 3
2, 2
1, 3
1, 1
2, 2
1, 0
0, 4
2, 1
0, 2
1, 1
1, 1
0, 0
1, 0
2, 1
1, 1
3, 2
3, 0
0, 0
0, 2
0, 0
2, 2
0, 2
1, 0
0, 1
1, 0
1, 2
2, 0
0, 0
1, 1
1, 0
2, 3
3, 1
1, 2
2, 1
1, 3
3, 0
2, 0
1, 1
0, 2
2, 0
0, 0
0, 0
2, 0
1, 1
2, 0
1, 2
0, 4
1, 2
0, 0
0, 0
2, 0
0, 3
2, 0
3, 0
2, 1
1, 1
1, 1
2, 2
0, 1
2, 0
0, 1
0, 2
0, 3
2, 1
0, 2
0, 3
0, 0
0, 0
2, 0
1, 0
1, 0
0, 0
0, 0
1, 0
0, 1
0, 0
0, 0
0, 2
1, 0
1, 0
1, 0
2, 1
0, 1
2, 2
0, 0
0, 1
1, 0
0, 2
1, 2
4, 0
0, 1
1, 0
4, 1
1, 0
1, 0
1, 3
0, 2
1, 0
0, 0
0, 2
0, 1
1, 0
1, 2
0, 2
0, 1
0, 3
2, 0
1, 0
1, 0
0, 0
3, 0
0, 2
1, 0
0, 3
1, 0
0, 1
2, 0
0, 1
1, 0
0, 1
1, 0
0, 1
1, 1
1, 0
3, 0
0, 2
0, 1
0, 0
0, 0
0, 0
0, 0
0, 0
0, 2
0, 0
0, 1
1, 0
1, 0
1, 0
1, 0
0, 0
0, 0
0, 0
1, 1
0, 0
0, 0
0, 0
0, 0
0, 0
0, 0
0, 0
1, 1
0, 0
0, 0
0, 0
0, 0
1, 0
3, 0
0, 1
0, 0
1, 1
2, 0
1, 0
1, 0
1, 0
0, 0
0, 0
0, 0
0, 0
0, 0
0, 0
1, 2
0, 0
2, 0
0, 0
0, 0
0, 0
0, 0
1, 0
1, 0
0, 0
0, 0
0, 0
0, 1
0, 0
0, 0
0, 1
0, 0
0, 1
1, 0
1, 0
1, 0
0, 0
0, 0
0, 0
0, 0
0, 0
1, 0
0, 0
0, 1
0, 0
0, 0
2, 0
1, 1
0, 1
0, 1
0, 0
0, 0
1, 2
0, 1
0, 0
0, 0
0, 0
1, 2
0, 0
0, 0
0, 3
0, 2
2, 0
0, 0
0, 0
0, 0
1, 0
1, 1
0, 0
0, 1
1, 0
0, 1
1, 0
0, 0
0, 1
0, 0
0, 0
0, 0
1, 0
0, 0
1, 0
0, 0
2, 0
1, 0
0, 0
0, 0
0, 0
0, 0
0, 1
0, 0
2, 0
1, 0
2, 0
1, 0
1, 0
0, 1
0, 0
1, 0
0, 0
0, 0
1, 0
0, 0
0, 0
0, 0
0, 0
0, 0
0, 2
0, 1
0, 0
0, 0
0, 0
0, 0
0, 0
0, 0
0, 0
0, 0
0, 0
0, 0
0, 0
0, 0
0, 0
0, 0
0, 0
1, 0
0, 0
0, 2
1, 0
0, 0
0, 0
0, 0
0, 0
1, 1
0, 0
2, 0
0, 0
0, 0
1, 0
0, 0
0, 0
0, 0
0, 0
0, 0
0, 0
0, 0
0, 0
0, 0
0, 0
0, 0
0, 0
0, 0
0, 0
0, 1
1, 0
0, 0
0, 0
0, 0
0, 1
1, 0
0, 0
1, 0
0, 0
0, 0
0, 0
0, 0
0, 0
0, 1
1, 1
0, 0
0, 0
0, 0
0, 0
0, 1
0, 0
0, 0
0, 0
0, 1
0, 0
0, 0
0, 0
0, 0
0, 0
0, 0
0, 0
0, 0
0, 0
0, 1
0, 0
1, 0
1, 0
0, 0
1, 0
0, 0
1, 0
0, 0
0, 0
0, 0
0, 0
0, 0
0, 0
0, 0
0, 0
0, 0
0, 0
0, 0
0, 0
0, 0
0, 0
0, 0
0, 0
0, 0
0, 0
0, 0
0, 0
1, 0
0, 0
0, 0
0, 0
0, 1
0, 0
0, 0
0, 0
0, 0
0, 0
0, 1
0, 0
0, 0
0, 0
0, 0
0, 0
0, 0
0, 0
0, 0
0, 0
0, 0
0, 0
0, 0
0, 0
0, 0
0, 0
0, 0
0, 0
0, 0
0, 0
0, 0
0, 0
0, 0
0, 0
0, 0
0, 0
0, 0
0, 0
0, 0
0, 0
0, 0
0, 0
0, 0
0, 0
0, 0
0, 0
0, 0
0, 0
0, 0
0, 0
0, 0
0, 0
0, 0
0, 0
0, 0
0, 0
0, 0
0, 0
0, 0
0, 0
0, 0
0, 0
0, 0
0, 0
0, 0
0, 0
0, 0
0, 0
0, 0
0, 0
0, 0
0, 0
0, 0
0, 0
0, 0
0, 0
0, 0
0, 0
0, 0
0, 0
0, 0
0, 0
0, 0
0, 0
0, 0
0, 0
0, 0
0, 0
0, 0
0, 0
0, 0
0, 0
0, 0
0, 0
0, 0
0, 0
0, 0
0, 0
0, 0
0, 0
0, 0
0, 0
0, 0
0, 0
0, 0
0, 0
0, 0
0, 0
0, 0
0, 0
0, 0
0, 0
0, 0
0, 0
0, 0
0, 0
0, 0
0, 0
0, 0
0, 0
0, 0
0, 0
0, 0
0, 0
0, 0
0, 0
0, 0
0, 0
0, 0
0, 0
0, 0
0, 0
0, 0
0, 0
0, 0
0, 0
0, 0
0, 0
0, 0
0, 0
0, 0
0, 0
0, 0
0, 0
0, 0
0, 0
0, 0
0, 0
0, 0
0, 0
0, 0
0, 0
0, 0
0, 0
0, 0
0, 0
0, 0
0, 0
0, 0
0, 0
0, 0
0, 0
0, 0
0, 0
0, 0
0, 0
0, 0
0, 0
0, 0
0, 0
0, 0
0, 0
0, 0
0, 0
0, 0
0, 0
0, 0
0, 0
0, 0
0, 0
0, 0
0, 0
0, 0
0, 0
0, 0
0, 0
0, 0
0, 0
0, 0
0, 0
0, 0
0, 0
0, 0
0, 0
0, 0
0, 0
0, 0
0, 0
0, 0
0, 0
0, 0
0, 0
0, 0
0, 0
0, 0
0, 0
0, 0
0, 0
0, 0
0, 0
0, 0
0, 0
0, 0
0, 0
0, 0
0, 0
0, 0
0, 0
0, 0
0, 0
0, 0
0, 0
0, 0
0, 0
0, 0
0, 0
0, 0
0, 0
0, 0
0, 0
0, 0
0, 0
0, 0
0, 0
0, 0
0, 0
0, 0
0, 0
0, 0
0, 0
0, 0
0, 0
0, 0
0, 0
0, 0
0, 0
0, 0
0, 0
0, 0
0, 0
0, 0
0, 0
0, 0
0, 0
0, 0
0, 0
0, 0
0, 0
0, 0
0, 0
0, 0
0, 0
0, 0
0, 0
0, 0
0, 0
0, 0
0, 0
0, 0
0, 0
0, 0
0, 0
0, 0
0, 0
0, 0
0, 0
0, 0
0, 0
0, 0
0, 0
0, 0
0, 0
0, 0
0, 0
0, 0
0, 0
0, 0
0, 0
0, 0
0, 0
0, 0
0, 0
0, 0
0, 0
0, 0
0, 0
0, 0
0, 0
0, 0
0, 0
0, 0
0, 0
0, 0
0, 0
0, 0
0, 0
0, 0
0, 0
0, 0
0, 0
0, 0
0, 0
0, 0
0, 0
0, 0
0, 0
0, 0
0, 0
0, 0
0, 0
0, 0
0, 0
0, 0
0, 0
0, 0
0, 0
0, 0
0, 0
0, 0
0, 0
0, 0
0, 0
0, 0
0, 0
0, 0
0, 0
0, 0
0, 0
0, 0
0, 0
0, 0
0, 0
0, 0
0, 0
0, 0
0, 0
0, 0
0, 0
0, 0
0, 0
0, 0
0, 0
0, 0
0, 0
0, 0
0, 0
0, 0
0, 0
0, 0
0, 0
0, 0
0, 0
0, 0
0, 0
0, 0
0, 0
0, 0
0, 0
0, 0
0, 0
0, 0
0, 0
0, 0
0, 0
0, 0
0, 0
0, 0
0, 0
0, 0
0, 0
0, 0
0, 0
0, 0
0, 0
0, 0
0, 0
0, 0
0, 0
0, 0
0, 0
0, 0
0, 0
0, 0
0, 0
0, 0
0, 0
0, 0
0, 0
0, 0
0, 0
0, 0
0, 0
0, 0
0, 0
0, 0
0, 0
0, 0
0, 0
0, 0
0, 0
0, 0
0, 0
0, 0
0, 0
0, 0
0, 0
0, 0
0, 0
0, 0
0, 0
0, 0
0, 0
0, 0
0, 0
0, 0
0, 0
0, 0
0, 0
0, 0
0, 0
0, 0
0, 0
#ENDOFDATA     end of spectrum data