File: host_upload/06-09-2024/ps_0852/dump3/ps__0852shot_2474.msa
#FORMAT      : EMSA/MAS spectral data file
#VERSION     : TC202v2.0 PIXL
#TITLE       : N/A
#DATE        :       Date in the format DD-MMM-YYYY, for example 07-JUL-2010
#TIME        :             The time of day at which the spectrum was recorded, in 24-hour format
#OWNER       : PIXL Flight Model       (PIXL will use this to indicate which instrument took the data.)
#NPOINTS     : 4096     Number of data points in the spectrum (This can be zero for configuration only files)
#NCOLUMNS    : 2     Number of data columns in the spectrum (This can be zero for configuration only files)
#XUNITS      : eV
#YUNITS      : COUNTS
#DATATYPE    : YY
#XPERCHAN    : 7.862, 7.881   eV per channel (separate by commas if more than one detector)
#OFFSET      : 18.5, -22.4         eV of first channel  (separate by commas if more than one detector
#SIGNALTYPE  : XRF
#YP_TEMP     : 2.3
#LIVETIME    : 8.54153, 8.55293   seconds (separate by commas if more than one detector)
#REALTIME    : 10, 10.0   seconds (separate by commas if more than one detector)
#SPECTRUM    : start of spectrum data
0, 0
0, 0
0, 0
0, 0
0, 0
0, 0
0, 0
0, 0
0, 0
0, 0
0, 0
0, 0
0, 0
0, 0
0, 0
0, 0
0, 0
0, 0
0, 0
0, 0
0, 0
0, 0
0, 0
0, 0
0, 0
0, 0
0, 0
0, 0
0, 0
0, 0
0, 0
0, 0
1, 0
0, 0
1, 0
1, 0
0, 1
0, 4
1, 2
2, 1
3, 1
1, 1
4, 1
2, 4
1, 1
1, 1
0, 0
1, 4
5, 6
11, 7
22, 21
38, 32
67, 42
75, 77
74, 69
75, 59
57, 44
40, 39
29, 21
19, 13
9, 5
5, 7
4, 3
2, 3
2, 2
3, 9
2, 6
10, 5
14, 13
45, 48
86, 88
150, 150
274, 263
362, 298
435, 360
403, 395
363, 337
306, 272
211, 167
132, 116
71, 50
35, 35
18, 15
10, 17
10, 10
8, 5
5, 4
11, 5
8, 5
4, 5
7, 8
8, 6
10, 9
39, 32
59, 57
96, 102
127, 139
166, 184
196, 216
188, 197
189, 186
160, 127
115, 123
71, 57
46, 51
34, 38
25, 16
25, 18
18, 27
24, 21
33, 32
38, 36
47, 43
45, 55
56, 47
40, 37
46, 49
45, 28
41, 32
31, 26
41, 29
30, 30
26, 24
32, 20
11, 15
12, 14
19, 19
11, 15
20, 7
8, 6
5, 4
1, 5
5, 2
1, 3
6, 2
2, 3
2, 1
2, 4
4, 2
0, 4
4, 1
0, 4
4, 3
5, 5
3, 4
5, 2
2, 1
3, 2
5, 3
8, 7
7, 8
9, 15
31, 30
44, 56
62, 63
86, 85
102, 114
128, 126
100, 110
104, 93
98, 68
74, 68
31, 36
25, 25
16, 13
13, 17
16, 14
20, 17
24, 14
21, 16
25, 22
26, 24
20, 19
24, 12
21, 15
17, 16
6, 11
7, 16
2, 14
4, 12
5, 14
2, 14
6, 3
10, 5
5, 4
4, 1
2, 5
3, 7
4, 6
10, 7
17, 11
8, 9
14, 20
16, 6
19, 12
20, 18
15, 15
13, 18
14, 19
14, 16
15, 13
9, 25
7, 22
12, 10
9, 6
6, 8
4, 11
5, 5
13, 9
6, 8
5, 5
7, 7
6, 3
10, 13
12, 5
7, 4
8, 7
11, 6
11, 9
11, 6
11, 2
9, 7
7, 10
11, 11
15, 9
22, 15
37, 21
52, 23
35, 21
46, 27
53, 39
52, 24
52, 33
49, 14
32, 18
27, 13
14, 10
19, 8
9, 7
11, 13
8, 11
10, 14
10, 13
9, 11
9, 20
25, 27
28, 28
24, 39
45, 46
49, 51
56, 47
70, 66
67, 45
49, 35
38, 43
30, 41
19, 28
24, 29
15, 27
16, 25
15, 19
30, 25
47, 49
70, 85
116, 165
257, 311
419, 519
698, 836
1045, 1143
1462, 1477
1719, 1901
2170, 2131
2221, 2032
2165, 2113
1977, 1692
1526, 1278
1232, 939
838, 610
514, 404
328, 206
181, 102
94, 63
50, 47
29, 20
21, 22
27, 17
23, 20
41, 16
23, 17
33, 29
30, 28
38, 29
40, 45
68, 84
103, 95
146, 168
193, 213
254, 232
285, 332
320, 347
360, 331
304, 314
301, 272
244, 212
185, 131
125, 103
74, 73
44, 42
31, 23
18, 16
9, 14
7, 6
9, 8
9, 18
11, 7
9, 15
13, 17
16, 17
19, 14
11, 14
13, 17
3, 11
11, 9
9, 8
8, 5
8, 8
6, 4
11, 7
5, 8
6, 9
7, 5
7, 7
7, 4
12, 3
12, 6
11, 1
11, 3
6, 5
8, 3
11, 6
6, 9
4, 4
5, 9
4, 4
4, 2
1, 8
6, 8
8, 8
5, 8
4, 10
4, 10
5, 7
8, 3
5, 10
11, 2
3, 6
7, 8
4, 5
4, 2
4, 5
4, 4
7, 5
5, 7
6, 5
4, 4
11, 4
5, 2
5, 3
6, 6
5, 3
6, 4
7, 8
5, 2
1, 4
5, 7
4, 5
5, 3
5, 1
0, 2
3, 5
2, 4
5, 8
6, 3
10, 6
6, 3
4, 10
3, 7
2, 6
3, 7
0, 3
4, 7
1, 6
4, 10
3, 8
5, 11
8, 7
2, 9
3, 8
1, 14
6, 11
4, 7
4, 6
3, 8
3, 6
2, 7
5, 4
4, 10
7, 3
2, 5
7, 3
4, 2
2, 4
4, 4
3, 4
4, 3
6, 2
5, 2
9, 3
7, 3
9, 1
2, 3
7, 3
4, 2
5, 1
5, 1
1, 4
3, 4
4, 3
1, 2
3, 6
4, 1
6, 6
4, 3
6, 2
6, 1
5, 3
6, 3
4, 2
1, 0
1, 1
2, 2
2, 1
7, 1
3, 3
3, 3
5, 1
1, 1
2, 2
3, 2
5, 2
4, 2
2, 3
2, 1
3, 2
1, 3
1, 1
2, 5
0, 1
3, 1
3, 2
3, 4
4, 3
3, 0
4, 0
2, 1
0, 4
3, 7
2, 1
3, 2
4, 4
4, 2
2, 3
1, 3
5, 3
2, 1
4, 5
0, 3
3, 0
4, 3
1, 0
0, 2
0, 2
1, 3
1, 1
2, 3
2, 2
2, 1
4, 5
3, 2
1, 2
3, 1
1, 3
0, 2
2, 2
4, 4
1, 1
4, 4
4, 1
2, 3
3, 2
1, 1
1, 2
3, 1
0, 0
2, 2
0, 1
1, 1
5, 4
0, 5
1, 0
3, 3
2, 1
4, 0
5, 2
2, 2
3, 1
1, 5
4, 0
1, 1
3, 3
1, 1
4, 0
3, 3
1, 0
2, 3
2, 2
0, 0
3, 1
3, 6
1, 1
1, 2
6, 1
1, 1
3, 1
0, 6
1, 2
1, 1
1, 0
2, 2
1, 0
6, 3
3, 4
4, 1
4, 4
7, 0
3, 6
2, 1
7, 3
4, 1
2, 2
1, 0
3, 0
0, 1
0, 2
0, 1
1, 1
0, 0
0, 0
1, 1
1, 2
1, 1
1, 0
0, 0
2, 0
0, 1
0, 1
1, 0
1, 0
0, 3
3, 2
3, 1
1, 0
1, 4
2, 1
2, 2
3, 1
2, 4
1, 0
1, 2
0, 3
0, 2
1, 1
2, 1
1, 2
1, 2
2, 2
0, 1
0, 0
0, 1
1, 1
0, 1
1, 0
1, 1
1, 0
2, 3
0, 1
2, 1
0, 0
0, 0
1, 1
0, 1
1, 1
0, 0
1, 0
2, 0
0, 1
1, 0
1, 3
0, 1
2, 1
0, 0
3, 1
0, 1
2, 0
0, 0
1, 0
2, 1
1, 0
1, 2
0, 1
0, 0
0, 0
0, 3
0, 1
1, 2
1, 0
1, 0
3, 0
0, 2
1, 1
0, 1
0, 2
0, 0
0, 0
2, 0
0, 2
2, 0
1, 0
1, 2
0, 1
1, 0
3, 0
0, 0
0, 0
0, 0
0, 0
0, 1
1, 0
0, 0
1, 0
1, 1
0, 0
1, 0
1, 1
0, 0
0, 1
0, 1
0, 0
2, 0
0, 1
1, 2
0, 0
0, 1
0, 1
0, 0
0, 0
1, 0
1, 0
1, 0
1, 1
0, 0
1, 0
0, 0
0, 1
0, 0
0, 0
0, 0
0, 1
1, 0
0, 0
1, 0
0, 0
0, 1
3, 0
0, 0
1, 1
0, 0
2, 0
0, 0
0, 0
0, 0
0, 1
1, 1
1, 2
1, 0
0, 0
2, 2
0, 2
0, 0
0, 1
0, 0
0, 0
1, 0
2, 1
1, 0
0, 0
0, 0
1, 0
0, 0
1, 0
0, 0
0, 1
0, 0
0, 0
1, 1
1, 0
0, 0
2, 0
0, 1
0, 1
1, 0
0, 0
1, 0
1, 0
0, 0
0, 0
0, 0
1, 1
0, 0
1, 1
0, 0
0, 2
0, 0
0, 2
0, 0
0, 0
0, 0
0, 0
0, 0
0, 0
0, 1
0, 0
1, 0
1, 1
0, 0
0, 0
0, 0
0, 0
0, 0
0, 0
0, 0
0, 0
1, 0
1, 0
0, 1
0, 0
0, 0
0, 0
1, 0
1, 0
0, 0
0, 0
0, 1
1, 1
2, 0
0, 2
0, 0
0, 0
0, 1
0, 0
0, 0
0, 0
0, 0
0, 1
2, 1
0, 1
0, 0
0, 0
0, 0
0, 0
0, 0
0, 0
0, 0
0, 1
0, 0
0, 0
0, 0
0, 0
1, 0
0, 0
0, 0
0, 0
0, 0
0, 0
0, 0
1, 1
0, 0
0, 0
0, 2
1, 0
0, 0
0, 0
0, 0
0, 1
0, 0
0, 0
0, 0
0, 0
1, 0
0, 0
0, 0
0, 1
0, 0
0, 0
1, 0
0, 0
0, 0
1, 0
0, 0
0, 0
1, 0
0, 0
0, 0
1, 1
0, 0
0, 0
0, 1
0, 0
0, 0
0, 0
0, 0
0, 0
0, 0
1, 0
0, 0
0, 0
0, 0
0, 0
0, 0
1, 0
0, 0
0, 0
0, 0
0, 0
1, 0
0, 1
0, 0
0, 2
0, 0
0, 0
0, 0
0, 0
0, 0
0, 0
0, 0
0, 0
0, 1
0, 0
1, 0
0, 1
1, 0
0, 0
0, 0
0, 0
1, 0
0, 0
0, 0
1, 0
0, 0
0, 0
0, 1
0, 0
0, 0
0, 0
0, 0
0, 0
0, 0
0, 0
0, 0
0, 0
0, 0
0, 0
0, 0
0, 0
0, 1
0, 0
0, 0
0, 0
0, 0
0, 0
0, 0
0, 1
0, 0
2, 0
0, 0
0, 0
0, 1
0, 0
0, 0
0, 0
0, 1
0, 0
0, 0
0, 0
0, 0
0, 0
0, 0
0, 0
0, 0
0, 0
0, 0
0, 0
0, 0
1, 0
0, 0
0, 0
0, 0
0, 0
0, 0
0, 0
0, 0
0, 1
0, 0
0, 0
0, 0
0, 0
0, 0
0, 0
0, 0
0, 0
0, 0
0, 0
0, 0
0, 0
0, 0
1, 0
0, 0
0, 0
1, 0
0, 0
0, 0
0, 0
0, 0
0, 0
1, 0
0, 0
0, 0
0, 0
0, 0
0, 0
0, 0
0, 0
0, 0
0, 0
0, 0
0, 0
0, 0
0, 0
0, 0
0, 0
0, 0
0, 0
0, 0
0, 0
0, 0
0, 0
0, 0
0, 0
0, 0
0, 1
1, 0
0, 0
0, 0
0, 0
1, 0
0, 0
0, 0
0, 0
0, 0
0, 0
0, 0
0, 0
0, 0
0, 0
0, 0
0, 0
0, 0
0, 0
0, 0
0, 0
0, 0
0, 0
0, 0
0, 0
0, 0
0, 0
0, 0
0, 0
0, 0
0, 0
0, 0
0, 0
0, 0
0, 0
0, 0
0, 0
0, 0
0, 0
0, 0
0, 0
0, 0
0, 0
0, 0
0, 0
0, 0
0, 0
0, 0
0, 0
0, 0
0, 0
0, 0
0, 0
0, 0
0, 0
0, 0
0, 0
0, 0
0, 0
0, 0
0, 0
0, 0
0, 0
0, 0
0, 0
0, 0
0, 0
0, 0
0, 0
0, 0
0, 0
0, 0
0, 0
0, 0
0, 0
0, 0
0, 0
0, 0
0, 0
0, 0
0, 0
0, 0
0, 0
0, 0
0, 0
0, 0
0, 0
0, 0
0, 0
0, 0
0, 0
0, 0
0, 0
0, 0
0, 0
0, 0
0, 0
0, 0
0, 0
0, 0
0, 0
0, 0
0, 0
0, 0
0, 0
0, 0
0, 0
0, 0
0, 0
0, 0
0, 0
0, 0
0, 0
0, 0
0, 0
0, 0
0, 0
0, 0
0, 0
0, 0
0, 0
0, 0
0, 0
0, 0
0, 0
0, 0
0, 0
0, 0
0, 0
0, 0
0, 0
0, 0
0, 0
0, 0
0, 0
0, 0
0, 0
0, 0
0, 0
0, 0
0, 0
0, 0
0, 0
0, 0
0, 0
0, 0
0, 0
0, 0
0, 0
0, 0
0, 0
0, 0
0, 0
0, 0
0, 0
0, 0
0, 0
0, 0
0, 0
0, 0
0, 0
0, 0
0, 0
0, 0
0, 0
0, 0
0, 0
0, 0
0, 0
0, 0
0, 0
0, 0
0, 0
0, 0
0, 0
0, 0
0, 0
0, 0
0, 0
0, 0
0, 0
0, 0
0, 0
0, 0
0, 0
0, 0
0, 0
0, 0
0, 0
0, 0
0, 0
0, 0
0, 0
0, 0
0, 0
0, 0
0, 0
0, 0
0, 0
0, 0
0, 0
0, 0
0, 0
0, 0
0, 0
0, 0
0, 0
0, 0
0, 0
0, 0
0, 0
0, 0
0, 0
0, 0
0, 0
0, 0
0, 0
0, 0
0, 0
0, 0
0, 0
0, 0
0, 0
0, 0
0, 0
0, 0
0, 0
0, 0
0, 0
0, 0
0, 0
0, 0
0, 0
0, 0
0, 0
0, 0
0, 0
0, 0
0, 0
0, 0
0, 0
0, 0
0, 0
0, 0
0, 0
0, 0
0, 0
0, 0
0, 0
0, 0
0, 0
0, 0
0, 0
0, 0
0, 0
0, 0
0, 0
0, 0
0, 0
0, 0
0, 0
0, 0
0, 0
0, 0
0, 0
0, 0
0, 0
0, 0
0, 0
0, 0
0, 0
0, 0
0, 0
0, 0
0, 0
0, 0
0, 0
0, 0
0, 0
0, 0
0, 0
0, 0
0, 0
0, 0
0, 0
0, 0
0, 0
0, 0
0, 0
0, 0
0, 0
0, 0
0, 0
0, 0
0, 0
0, 0
0, 0
0, 0
0, 0
0, 0
0, 0
0, 0
0, 0
0, 0
0, 0
0, 0
0, 0
0, 0
0, 0
0, 0
0, 0
0, 0
0, 0
0, 0
0, 0
0, 0
0, 0
0, 0
0, 0
0, 0
0, 0
0, 0
0, 0
0, 0
0, 0
0, 0
0, 0
0, 0
0, 0
0, 0
0, 0
0, 0
0, 0
0, 0
0, 0
0, 0
0, 0
0, 0
0, 0
0, 0
0, 0
0, 0
0, 0
0, 0
0, 0
0, 0
0, 0
0, 0
0, 0
0, 0
0, 0
0, 0
0, 0
0, 0
0, 0
0, 0
0, 0
0, 0
0, 0
0, 0
0, 0
0, 0
0, 0
0, 0
0, 0
0, 0
0, 0
0, 0
0, 0
0, 0
0, 0
0, 0
0, 0
0, 0
0, 0
0, 0
0, 0
0, 0
0, 0
0, 0
0, 0
0, 0
0, 0
0, 0
0, 0
0, 0
0, 0
0, 0
0, 0
0, 0
0, 0
0, 0
0, 0
0, 0
0, 0
0, 0
0, 0
#ENDOFDATA     end of spectrum data