File: host_upload/06-09-2024/ps_0852/dump3/ps__0852shot_2329.msa
#FORMAT      : EMSA/MAS spectral data file
#VERSION     : TC202v2.0 PIXL
#TITLE       : N/A
#DATE        :       Date in the format DD-MMM-YYYY, for example 07-JUL-2010
#TIME        :             The time of day at which the spectrum was recorded, in 24-hour format
#OWNER       : PIXL Flight Model       (PIXL will use this to indicate which instrument took the data.)
#NPOINTS     : 4096     Number of data points in the spectrum (This can be zero for configuration only files)
#NCOLUMNS    : 2     Number of data columns in the spectrum (This can be zero for configuration only files)
#XUNITS      : eV
#YUNITS      : COUNTS
#DATATYPE    : YY
#XPERCHAN    : 7.862, 7.881   eV per channel (separate by commas if more than one detector)
#OFFSET      : 18.5, -22.4         eV of first channel  (separate by commas if more than one detector
#SIGNALTYPE  : XRF
#YP_TEMP     : 2.364
#LIVETIME    : 8.56697, 8.55527   seconds (separate by commas if more than one detector)
#REALTIME    : 10, 10.0   seconds (separate by commas if more than one detector)
#SPECTRUM    : start of spectrum data
0, 0
0, 0
0, 0
0, 0
0, 0
0, 0
0, 0
0, 0
0, 0
0, 0
0, 0
0, 0
0, 0
0, 0
0, 0
0, 0
0, 0
0, 0
0, 0
0, 0
0, 0
0, 0
0, 0
0, 0
0, 0
0, 0
0, 0
0, 0
0, 0
0, 0
0, 0
0, 0
0, 1
0, 0
1, 0
1, 0
0, 0
0, 0
1, 2
1, 0
1, 1
1, 0
2, 2
2, 0
0, 0
4, 1
1, 3
5, 3
9, 6
16, 11
19, 14
29, 28
55, 55
74, 61
91, 74
63, 69
59, 53
51, 31
31, 25
14, 18
10, 6
8, 6
2, 2
6, 2
5, 3
2, 3
5, 4
15, 6
27, 20
41, 43
88, 94
163, 139
264, 259
388, 355
428, 400
431, 430
353, 352
297, 270
217, 194
116, 108
72, 50
43, 25
24, 17
10, 13
3, 7
5, 2
3, 2
3, 2
4, 4
3, 1
5, 1
2, 1
3, 2
5, 6
4, 6
14, 7
25, 14
27, 24
32, 14
32, 21
21, 25
19, 15
14, 9
11, 8
9, 6
6, 7
6, 2
12, 9
9, 13
18, 17
30, 29
41, 30
47, 43
55, 41
70, 42
65, 50
69, 51
88, 36
96, 32
97, 36
80, 25
64, 30
59, 27
49, 13
31, 21
20, 31
21, 13
18, 14
10, 9
12, 7
2, 5
4, 4
8, 3
3, 6
2, 5
1, 1
2, 2
3, 3
1, 4
1, 4
2, 2
0, 4
6, 0
0, 1
3, 0
1, 1
0, 2
2, 0
1, 1
3, 2
2, 0
4, 1
2, 11
7, 6
18, 11
11, 9
35, 15
28, 16
22, 25
24, 9
25, 14
9, 7
18, 2
5, 6
8, 7
6, 2
8, 4
7, 4
6, 2
3, 5
9, 8
4, 6
4, 8
7, 2
12, 7
8, 6
6, 4
6, 5
6, 5
11, 6
7, 3
14, 5
11, 3
4, 2
7, 2
4, 3
8, 8
5, 6
7, 5
2, 8
10, 11
11, 11
8, 16
15, 8
22, 12
16, 7
10, 12
11, 17
16, 12
15, 18
13, 13
10, 12
13, 11
5, 8
2, 2
11, 4
6, 3
7, 7
5, 4
7, 5
7, 3
5, 6
7, 7
3, 6
11, 4
2, 5
5, 4
5, 12
8, 6
5, 6
2, 5
11, 4
5, 8
7, 5
3, 6
8, 11
11, 13
7, 8
16, 13
24, 5
16, 11
17, 10
31, 11
40, 12
49, 17
54, 9
55, 4
54, 6
52, 8
62, 8
47, 7
27, 4
33, 10
29, 12
23, 17
27, 30
27, 29
45, 36
48, 45
62, 54
74, 66
67, 69
57, 69
44, 81
52, 81
34, 94
26, 62
27, 67
12, 74
23, 59
15, 51
25, 56
49, 65
74, 124
133, 196
308, 358
442, 592
809, 933
1172, 1267
1568, 1733
2000, 2176
2295, 2319
2487, 2465
2454, 2234
2120, 1979
1823, 1539
1446, 1070
930, 708
613, 436
399, 244
165, 133
107, 102
53, 59
26, 46
22, 33
16, 28
18, 30
16, 24
16, 22
21, 23
25, 25
32, 45
35, 53
70, 97
107, 122
180, 172
218, 212
258, 295
318, 306
397, 382
364, 383
352, 341
292, 273
281, 241
212, 152
137, 103
85, 79
45, 60
38, 30
19, 28
17, 17
10, 20
3, 9
7, 11
11, 13
5, 13
9, 12
21, 20
12, 19
12, 11
9, 9
7, 11
9, 4
3, 7
6, 9
10, 6
7, 7
6, 5
4, 4
5, 9
9, 6
2, 11
3, 7
4, 10
2, 6
4, 7
4, 6
8, 6
8, 1
4, 5
2, 5
5, 6
5, 5
6, 3
5, 7
6, 5
7, 9
7, 6
5, 5
4, 12
7, 13
10, 8
6, 19
5, 19
7, 21
12, 21
12, 24
17, 20
14, 18
9, 9
11, 10
4, 4
3, 3
4, 6
5, 7
4, 7
6, 7
4, 3
5, 4
2, 4
2, 1
5, 4
6, 4
3, 9
2, 5
5, 1
1, 0
2, 2
8, 3
3, 4
3, 3
4, 0
4, 4
4, 4
4, 1
2, 2
7, 1
1, 3
2, 1
6, 3
2, 7
6, 2
5, 1
3, 3
1, 1
3, 3
0, 2
6, 7
3, 3
2, 2
3, 4
5, 4
3, 4
4, 1
7, 5
1, 2
4, 3
3, 5
2, 1
4, 2
3, 4
7, 1
6, 2
1, 3
4, 4
2, 1
2, 3
3, 1
4, 2
3, 1
2, 4
2, 2
2, 6
6, 2
4, 5
4, 0
4, 4
5, 2
0, 4
5, 5
4, 3
4, 2
3, 0
2, 0
4, 1
1, 2
0, 3
0, 2
1, 2
4, 2
3, 2
3, 1
1, 3
3, 4
5, 2
2, 9
6, 2
6, 2
1, 0
1, 4
3, 2
0, 4
1, 5
2, 1
2, 0
3, 0
3, 2
3, 4
1, 1
3, 1
2, 1
0, 3
4, 4
2, 3
0, 3
2, 2
3, 2
4, 5
3, 0
2, 2
3, 4
2, 4
1, 2
6, 3
5, 1
1, 1
3, 3
4, 0
1, 2
4, 2
2, 1
5, 2
0, 0
3, 2
1, 1
3, 0
3, 1
2, 1
0, 3
3, 2
3, 1
1, 1
5, 3
4, 3
6, 1
2, 2
2, 3
2, 1
4, 2
2, 3
2, 3
3, 3
1, 1
3, 4
3, 1
0, 2
4, 1
3, 1
2, 2
3, 1
2, 3
5, 0
4, 1
1, 3
2, 4
1, 1
2, 3
0, 5
0, 1
0, 1
4, 1
2, 1
3, 2
7, 2
1, 2
4, 3
0, 1
1, 2
3, 2
2, 0
1, 2
1, 1
3, 5
2, 1
2, 3
0, 3
0, 1
5, 3
1, 5
0, 1
3, 2
7, 5
7, 5
4, 2
1, 4
3, 4
0, 2
2, 0
3, 3
3, 3
0, 0
1, 3
3, 0
3, 2
3, 3
2, 1
2, 3
1, 1
0, 2
0, 0
2, 0
0, 0
2, 1
3, 1
2, 1
2, 1
1, 0
5, 0
3, 1
2, 2
0, 1
0, 5
3, 1
2, 2
5, 2
1, 1
1, 0
0, 1
0, 2
1, 1
2, 3
2, 4
0, 1
2, 3
2, 1
0, 0
1, 1
0, 0
2, 1
2, 0
1, 0
0, 1
1, 0
1, 0
0, 4
1, 0
1, 0
2, 1
0, 0
4, 0
1, 0
0, 2
1, 0
1, 0
0, 3
1, 2
0, 0
1, 0
1, 2
0, 1
1, 4
1, 3
0, 1
1, 2
2, 1
0, 3
2, 2
3, 0
1, 0
1, 1
0, 2
1, 1
0, 1
1, 0
0, 0
1, 0
1, 1
1, 0
0, 1
1, 0
1, 1
1, 0
2, 0
0, 0
0, 1
0, 1
1, 0
0, 0
0, 1
2, 1
0, 0
1, 0
1, 0
1, 2
2, 1
0, 1
0, 2
0, 0
0, 0
1, 0
2, 1
0, 0
0, 0
0, 0
0, 1
0, 0
2, 0
0, 1
1, 0
0, 0
3, 1
0, 1
0, 0
2, 0
0, 0
1, 0
0, 0
0, 0
2, 0
0, 0
1, 2
0, 0
0, 0
0, 0
1, 0
0, 0
0, 2
0, 0
1, 0
1, 1
1, 2
0, 0
0, 0
1, 1
0, 0
1, 2
0, 0
1, 1
0, 1
2, 0
2, 1
0, 3
0, 1
2, 0
0, 0
1, 1
1, 0
0, 0
0, 1
0, 1
0, 2
0, 0
0, 1
0, 1
0, 0
1, 1
0, 0
0, 1
1, 0
0, 0
1, 1
1, 0
0, 0
0, 0
0, 0
0, 0
0, 0
0, 0
0, 0
0, 0
0, 2
1, 0
0, 1
0, 2
1, 0
0, 0
0, 0
1, 0
0, 0
1, 2
0, 0
0, 0
0, 0
0, 1
0, 1
0, 0
0, 0
0, 0
1, 0
0, 1
0, 0
0, 1
0, 0
0, 0
0, 1
0, 1
0, 1
0, 0
0, 0
0, 0
0, 0
0, 0
0, 0
0, 0
0, 0
0, 0
0, 0
0, 1
0, 0
0, 0
0, 0
0, 0
1, 1
0, 1
0, 0
1, 0
1, 0
0, 1
0, 0
0, 0
1, 1
0, 0
0, 0
0, 1
0, 1
0, 0
0, 0
1, 0
0, 0
0, 0
0, 0
0, 0
0, 0
2, 1
1, 0
0, 0
0, 0
0, 0
0, 0
1, 0
0, 0
0, 0
0, 0
0, 1
1, 0
0, 0
0, 0
0, 1
1, 0
1, 0
0, 1
0, 0
0, 1
1, 0
0, 0
1, 0
0, 0
0, 0
1, 0
0, 1
0, 0
0, 1
0, 0
0, 0
0, 0
0, 1
1, 0
0, 1
0, 1
0, 1
0, 0
1, 0
0, 0
1, 0
0, 1
0, 1
0, 1
0, 0
0, 1
0, 1
0, 0
1, 0
0, 0
0, 0
0, 0
0, 1
0, 0
0, 0
1, 0
0, 0
0, 0
0, 1
1, 0
0, 0
0, 0
0, 0
0, 0
1, 0
0, 0
1, 0
0, 1
0, 1
0, 1
0, 0
0, 0
0, 0
1, 0
0, 1
0, 0
0, 1
0, 0
0, 0
0, 0
0, 0
0, 0
0, 0
0, 0
0, 0
0, 0
1, 0
0, 0
0, 0
0, 0
0, 0
0, 0
0, 0
0, 0
0, 0
0, 0
0, 0
0, 0
0, 0
1, 0
0, 0
0, 0
0, 0
0, 0
0, 0
0, 0
0, 1
0, 0
0, 1
0, 0
0, 0
0, 0
0, 0
0, 0
0, 0
0, 0
0, 0
0, 0
0, 0
0, 0
0, 0
0, 0
0, 0
0, 0
0, 0
0, 0
0, 0
0, 0
0, 0
0, 0
0, 0
1, 0
0, 0
0, 0
0, 0
0, 0
0, 0
0, 0
0, 0
0, 0
0, 0
0, 0
0, 0
0, 0
0, 0
0, 0
0, 0
0, 0
0, 0
0, 0
0, 0
1, 0
0, 0
0, 0
0, 0
0, 0
0, 0
0, 0
0, 0
0, 0
0, 0
0, 0
0, 0
1, 0
0, 0
0, 0
0, 0
0, 0
0, 0
0, 0
0, 0
0, 0
0, 0
0, 0
0, 0
0, 0
0, 0
0, 0
0, 0
0, 0
1, 0
0, 0
0, 0
0, 0
0, 0
0, 1
0, 0
0, 0
0, 0
0, 0
0, 0
0, 0
0, 0
0, 0
0, 0
0, 0
0, 0
0, 0
0, 0
0, 0
0, 0
0, 0
0, 0
0, 1
0, 0
0, 0
0, 0
0, 0
0, 0
0, 0
0, 0
0, 0
0, 0
0, 0
0, 0
0, 0
0, 0
0, 0
0, 0
0, 0
0, 0
0, 0
0, 0
0, 0
0, 0
0, 0
0, 0
0, 0
0, 0
0, 0
0, 0
0, 0
0, 0
0, 0
0, 0
0, 0
0, 0
0, 0
0, 0
0, 0
0, 0
0, 0
0, 0
0, 0
0, 0
0, 0
0, 0
0, 0
1, 0
0, 0
0, 0
0, 0
0, 0
0, 0
0, 0
0, 0
0, 0
0, 0
0, 0
0, 0
0, 0
0, 0
0, 0
0, 0
0, 0
0, 0
0, 0
0, 0
0, 0
0, 0
0, 0
0, 0
0, 0
0, 0
0, 0
0, 0
0, 0
0, 0
0, 0
0, 0
0, 0
0, 0
0, 0
0, 0
0, 0
0, 0
0, 0
0, 0
0, 0
0, 0
0, 0
0, 0
0, 0
0, 0
0, 0
0, 0
0, 0
0, 0
0, 0
0, 0
0, 0
0, 1
0, 0
0, 0
0, 0
0, 0
0, 0
0, 0
0, 0
0, 0
0, 0
0, 0
0, 0
0, 0
0, 0
0, 0
0, 0
0, 0
0, 0
0, 0
0, 0
0, 0
0, 0
0, 0
0, 0
0, 0
0, 0
0, 0
0, 0
0, 0
0, 0
0, 0
0, 0
0, 0
0, 0
0, 0
0, 0
0, 0
0, 1
0, 0
0, 0
0, 0
0, 0
0, 0
0, 0
0, 0
0, 0
0, 0
0, 0
0, 0
0, 0
0, 0
0, 0
0, 0
0, 0
0, 0
0, 0
0, 0
0, 0
0, 0
0, 0
0, 0
0, 0
0, 0
0, 0
0, 0
0, 0
0, 0
0, 0
0, 0
0, 0
0, 0
0, 0
0, 0
0, 0
0, 0
0, 0
0, 0
0, 0
0, 0
0, 0
0, 0
0, 0
0, 0
0, 0
0, 0
0, 0
0, 0
0, 0
0, 0
0, 0
0, 0
0, 0
0, 0
0, 0
0, 0
0, 0
0, 0
0, 0
0, 0
0, 0
0, 0
0, 0
0, 0
0, 0
0, 0
0, 0
0, 0
0, 0
0, 0
0, 0
0, 0
0, 0
0, 0
0, 0
0, 0
0, 0
0, 0
0, 0
0, 0
0, 0
0, 0
0, 0
0, 0
0, 0
0, 0
0, 0
0, 0
0, 0
0, 0
0, 0
0, 0
0, 0
0, 0
0, 0
0, 0
0, 0
0, 0
0, 0
0, 0
0, 0
0, 0
0, 0
0, 0
0, 0
0, 0
0, 0
0, 0
0, 0
0, 0
0, 0
0, 0
0, 0
0, 0
0, 0
0, 0
0, 0
0, 0
0, 0
0, 0
0, 0
0, 0
0, 0
0, 0
0, 0
0, 0
0, 0
0, 0
0, 0
0, 0
0, 0
0, 0
0, 0
0, 0
0, 0
0, 0
0, 0
0, 0
0, 0
0, 0
0, 0
0, 0
0, 0
0, 0
0, 0
0, 0
0, 0
0, 0
0, 0
0, 0
0, 0
0, 0
0, 0
0, 0
0, 0
0, 0
0, 0
0, 0
0, 0
0, 0
0, 0
0, 0
0, 0
0, 0
0, 0
0, 0
0, 0
0, 0
0, 0
0, 0
0, 0
0, 0
0, 0
0, 0
0, 0
0, 0
0, 0
0, 0
0, 0
0, 0
0, 0
0, 0
0, 0
0, 0
0, 0
0, 0
0, 0
0, 0
0, 0
0, 0
0, 0
0, 0
0, 0
0, 0
0, 0
0, 0
0, 0
0, 0
0, 0
0, 0
0, 0
0, 0
0, 0
0, 0
0, 0
0, 0
0, 0
0, 0
0, 0
0, 0
0, 0
0, 0
0, 0
0, 0
0, 0
0, 0
0, 0
0, 0
0, 0
0, 0
0, 0
0, 0
0, 0
0, 0
0, 0
0, 0
0, 0
0, 0
0, 0
0, 0
0, 0
0, 0
0, 0
0, 0
0, 0
0, 0
0, 0
0, 0
0, 0
0, 0
0, 0
0, 0
0, 0
#ENDOFDATA     end of spectrum data