File: host_upload/06-09-2024/ps_0852/dump3/ps__0852shot_2160.msa
#FORMAT      : EMSA/MAS spectral data file
#VERSION     : TC202v2.0 PIXL
#TITLE       : N/A
#DATE        :       Date in the format DD-MMM-YYYY, for example 07-JUL-2010
#TIME        :             The time of day at which the spectrum was recorded, in 24-hour format
#OWNER       : PIXL Flight Model       (PIXL will use this to indicate which instrument took the data.)
#NPOINTS     : 4096     Number of data points in the spectrum (This can be zero for configuration only files)
#NCOLUMNS    : 2     Number of data columns in the spectrum (This can be zero for configuration only files)
#XUNITS      : eV
#YUNITS      : COUNTS
#DATATYPE    : YY
#XPERCHAN    : 7.862, 7.881   eV per channel (separate by commas if more than one detector)
#OFFSET      : 18.5, -22.4         eV of first channel  (separate by commas if more than one detector
#SIGNALTYPE  : XRF
#YP_TEMP     : 2.428
#LIVETIME    : 8.55416, 8.55175   seconds (separate by commas if more than one detector)
#REALTIME    : 10, 10.0   seconds (separate by commas if more than one detector)
#SPECTRUM    : start of spectrum data
0, 0
0, 0
0, 0
0, 0
0, 0
0, 0
0, 0
0, 0
0, 0
0, 0
0, 0
0, 0
0, 0
0, 0
0, 0
0, 0
0, 0
0, 0
0, 0
0, 0
0, 0
0, 0
0, 0
0, 0
0, 0
0, 0
0, 0
0, 0
0, 0
0, 0
0, 0
0, 1
0, 0
0, 0
0, 1
2, 0
0, 0
0, 0
0, 2
0, 2
1, 0
2, 1
1, 0
1, 0
1, 0
1, 1
0, 1
3, 6
8, 5
10, 14
21, 24
29, 39
50, 61
59, 69
59, 73
60, 57
53, 52
36, 31
18, 17
15, 6
11, 10
10, 9
8, 7
5, 7
6, 8
8, 4
11, 6
14, 13
19, 27
36, 62
77, 104
146, 169
222, 276
336, 310
373, 365
334, 416
367, 362
248, 289
183, 171
110, 118
76, 73
34, 30
25, 21
12, 12
3, 9
4, 3
2, 4
3, 2
1, 6
0, 3
5, 4
5, 4
9, 10
28, 31
37, 55
74, 78
111, 134
129, 161
145, 183
157, 183
154, 165
121, 140
87, 93
75, 72
44, 44
45, 26
42, 30
41, 30
47, 32
70, 49
62, 44
81, 78
79, 94
78, 84
77, 74
66, 90
62, 76
49, 67
39, 44
35, 50
33, 36
34, 31
27, 36
9, 28
15, 29
16, 18
17, 19
15, 25
11, 11
9, 5
3, 8
5, 8
3, 7
0, 4
3, 1
4, 2
3, 5
1, 4
3, 0
5, 4
3, 2
1, 3
5, 9
4, 2
2, 2
1, 2
4, 2
3, 1
2, 6
1, 5
1, 4
5, 3
0, 6
4, 10
4, 11
19, 10
15, 18
18, 12
15, 15
10, 21
8, 14
12, 17
7, 6
3, 6
4, 11
3, 7
3, 4
4, 9
3, 2
6, 6
8, 3
3, 3
3, 9
6, 8
7, 5
5, 14
8, 13
3, 13
4, 18
4, 12
4, 6
5, 13
3, 5
6, 8
6, 6
2, 8
6, 7
2, 6
9, 6
7, 10
9, 9
6, 8
13, 9
9, 12
8, 13
17, 19
16, 9
14, 12
10, 10
13, 9
16, 13
11, 13
6, 16
5, 9
8, 6
8, 7
0, 12
6, 6
6, 8
4, 9
1, 7
7, 13
6, 15
6, 10
3, 12
7, 4
4, 6
6, 7
5, 6
8, 7
8, 5
4, 4
5, 3
6, 8
4, 11
7, 8
14, 14
11, 8
9, 15
11, 19
13, 23
16, 19
18, 15
18, 11
19, 13
19, 12
11, 12
11, 12
19, 10
10, 11
7, 10
7, 8
10, 10
10, 15
13, 21
17, 21
26, 28
37, 39
30, 63
48, 79
59, 89
53, 73
44, 83
46, 72
41, 55
25, 48
19, 28
18, 22
13, 20
20, 18
11, 28
28, 30
39, 64
90, 124
133, 187
238, 359
449, 599
725, 934
1086, 1373
1444, 1801
1861, 2226
2136, 2437
2121, 2458
2172, 2253
2019, 2002
1625, 1588
1261, 1231
908, 775
552, 505
368, 245
180, 141
106, 80
52, 37
39, 25
16, 20
18, 16
17, 10
19, 20
25, 21
22, 21
26, 35
24, 30
27, 48
63, 102
98, 116
121, 189
184, 239
270, 307
273, 354
331, 371
336, 352
322, 337
284, 281
262, 247
159, 159
125, 111
88, 80
51, 43
43, 29
17, 12
9, 17
10, 9
10, 5
6, 8
9, 6
7, 11
6, 10
18, 12
17, 15
16, 11
20, 12
21, 9
24, 5
23, 2
22, 8
28, 6
16, 5
23, 2
18, 5
19, 2
21, 3
11, 4
11, 3
4, 3
5, 0
7, 1
8, 6
6, 4
7, 5
5, 4
3, 5
8, 3
2, 4
5, 8
4, 10
10, 11
6, 12
2, 10
5, 11
4, 11
8, 12
4, 22
2, 24
2, 12
4, 16
3, 21
6, 20
4, 14
5, 18
3, 9
2, 11
3, 10
10, 6
3, 9
6, 3
5, 6
6, 4
5, 5
4, 3
8, 7
13, 4
8, 6
9, 8
6, 3
11, 5
4, 5
3, 2
6, 0
7, 2
2, 2
2, 5
9, 4
3, 3
8, 6
4, 3
5, 3
3, 0
3, 6
3, 6
1, 7
4, 3
4, 1
6, 5
4, 4
4, 13
4, 7
4, 8
8, 3
4, 8
2, 8
4, 7
2, 3
3, 3
2, 3
2, 6
5, 7
8, 1
3, 5
2, 4
3, 2
2, 4
6, 1
10, 2
3, 2
5, 7
4, 4
4, 8
1, 4
2, 4
2, 4
1, 7
3, 7
6, 6
7, 5
2, 6
4, 9
3, 5
3, 3
1, 4
0, 2
4, 4
3, 5
5, 3
2, 3
6, 4
1, 5
2, 2
1, 1
3, 3
4, 3
4, 2
3, 2
2, 2
4, 4
3, 2
5, 3
1, 2
2, 3
3, 4
4, 4
3, 4
2, 3
1, 1
4, 8
2, 3
3, 2
4, 1
4, 5
4, 2
3, 3
4, 0
1, 2
2, 4
4, 1
5, 1
3, 4
3, 4
4, 2
2, 1
1, 3
3, 0
5, 5
4, 0
2, 3
7, 3
1, 3
3, 5
4, 1
2, 2
2, 2
2, 0
5, 5
1, 2
4, 1
1, 2
0, 2
0, 0
1, 2
2, 3
1, 3
4, 2
1, 2
1, 4
1, 2
3, 1
2, 3
2, 5
0, 0
1, 3
0, 4
2, 4
1, 6
2, 6
1, 6
2, 4
3, 3
0, 2
3, 2
1, 2
2, 2
4, 2
0, 3
2, 2
6, 3
1, 2
3, 1
3, 3
2, 1
3, 2
3, 3
2, 4
2, 1
3, 4
0, 0
3, 0
3, 3
3, 1
2, 0
3, 3
2, 2
1, 1
1, 2
1, 4
3, 3
0, 0
1, 2
1, 1
1, 2
3, 4
2, 10
3, 7
4, 5
2, 3
3, 6
2, 4
5, 5
3, 3
4, 0
3, 2
2, 1
4, 1
0, 1
3, 0
5, 2
3, 1
1, 1
4, 0
0, 1
2, 1
1, 1
1, 0
0, 0
5, 2
2, 2
1, 1
1, 4
1, 4
1, 2
1, 2
2, 2
1, 3
3, 1
2, 5
0, 0
1, 1
1, 1
0, 1
2, 1
0, 0
1, 1
0, 0
2, 0
0, 2
3, 3
1, 4
2, 0
1, 0
2, 0
1, 1
4, 1
3, 0
1, 0
2, 1
2, 3
2, 2
0, 1
2, 0
3, 0
0, 0
1, 1
2, 1
1, 0
1, 1
1, 2
1, 0
0, 0
2, 3
1, 2
0, 1
0, 1
1, 1
0, 0
0, 1
0, 3
1, 2
1, 3
1, 2
0, 1
1, 0
4, 3
0, 2
3, 0
2, 0
1, 0
0, 0
0, 2
3, 0
0, 0
0, 0
1, 0
1, 1
2, 1
0, 3
0, 0
0, 0
1, 0
0, 0
0, 1
1, 1
1, 1
1, 1
3, 0
1, 0
0, 1
1, 0
0, 1
1, 1
0, 1
1, 0
0, 1
0, 0
0, 0
1, 1
1, 0
0, 2
2, 1
2, 0
1, 0
1, 1
0, 0
0, 0
0, 0
0, 1
0, 4
1, 0
0, 0
0, 0
2, 0
0, 1
1, 0
1, 0
0, 0
1, 0
0, 0
1, 0
1, 0
0, 1
0, 2
0, 1
1, 0
0, 0
0, 0
0, 1
0, 1
0, 0
1, 1
0, 1
0, 0
0, 0
1, 0
1, 0
0, 0
0, 0
0, 0
1, 0
0, 0
0, 0
0, 0
0, 0
0, 0
0, 0
0, 0
0, 2
2, 1
0, 0
0, 3
0, 0
0, 1
0, 1
0, 5
0, 1
1, 0
0, 1
0, 0
0, 0
0, 1
0, 0
1, 0
0, 2
0, 2
0, 0
0, 1
0, 0
1, 0
1, 1
0, 0
0, 1
0, 0
1, 0
0, 0
0, 1
0, 0
0, 0
1, 1
1, 1
0, 1
0, 1
0, 2
1, 0
0, 2
2, 0
0, 0
0, 1
0, 1
0, 0
0, 0
0, 1
1, 0
0, 1
0, 1
0, 0
1, 0
0, 0
0, 0
0, 0
0, 1
1, 0
1, 0
0, 0
1, 0
0, 0
0, 0
1, 1
0, 0
0, 0
0, 2
0, 1
0, 0
0, 0
2, 0
0, 0
0, 0
1, 1
0, 0
0, 0
0, 0
0, 0
0, 0
0, 0
1, 0
0, 0
0, 0
2, 0
0, 0
0, 0
1, 1
0, 1
0, 0
1, 0
0, 0
1, 1
1, 0
1, 1
1, 0
0, 1
2, 1
0, 0
1, 1
0, 0
2, 0
0, 1
0, 0
0, 0
0, 0
0, 0
0, 0
0, 0
0, 0
0, 1
1, 0
0, 1
1, 0
0, 0
0, 0
0, 0
0, 0
0, 0
0, 0
0, 0
0, 0
0, 0
0, 0
0, 0
0, 0
1, 0
0, 0
0, 1
0, 0
0, 0
0, 0
0, 2
0, 0
0, 0
0, 0
0, 0
1, 0
0, 0
1, 0
0, 0
0, 0
0, 0
0, 0
0, 0
0, 0
0, 0
0, 0
0, 0
0, 0
0, 1
0, 0
0, 0
0, 0
1, 0
0, 1
0, 0
0, 0
0, 0
0, 0
0, 0
0, 0
0, 0
1, 1
0, 0
0, 0
0, 0
0, 0
0, 0
0, 0
0, 0
0, 0
0, 0
0, 0
1, 0
0, 0
0, 1
0, 0
0, 0
1, 0
0, 0
0, 2
0, 0
0, 0
0, 0
0, 0
0, 0
0, 1
0, 0
0, 1
0, 1
0, 0
1, 0
0, 0
0, 0
0, 0
0, 0
0, 1
0, 1
0, 0
0, 0
0, 0
0, 0
0, 0
0, 0
0, 1
0, 0
0, 0
1, 0
0, 0
0, 0
0, 0
0, 0
0, 0
0, 0
0, 0
0, 0
0, 0
0, 0
0, 1
0, 0
0, 0
0, 0
0, 0
0, 0
0, 0
0, 0
0, 0
0, 0
0, 0
0, 0
0, 0
0, 0
0, 0
0, 0
0, 0
0, 0
0, 0
0, 0
0, 0
0, 0
0, 0
0, 0
0, 0
0, 0
0, 0
0, 0
0, 0
0, 0
0, 0
0, 0
0, 0
0, 0
0, 0
0, 1
0, 0
0, 0
0, 0
0, 0
0, 0
0, 0
0, 0
0, 0
0, 0
0, 0
1, 0
0, 0
0, 0
0, 0
0, 0
0, 0
0, 0
0, 0
0, 0
0, 0
0, 0
0, 0
0, 0
0, 0
0, 0
0, 0
0, 0
0, 0
0, 0
0, 0
0, 0
0, 0
1, 0
0, 0
0, 1
0, 0
0, 0
0, 0
0, 0
0, 0
0, 0
0, 0
0, 0
0, 0
0, 0
0, 0
0, 0
0, 0
0, 0
0, 0
0, 0
0, 0
0, 0
0, 0
0, 0
0, 0
0, 0
0, 0
0, 0
0, 0
0, 0
0, 0
0, 0
0, 0
0, 0
0, 0
0, 0
0, 0
0, 0
0, 0
0, 0
0, 0
0, 0
0, 0
0, 0
0, 0
0, 0
0, 0
0, 0
0, 0
0, 0
0, 0
0, 0
0, 0
0, 0
0, 1
0, 0
0, 0
0, 0
0, 0
0, 0
0, 0
0, 0
0, 0
0, 0
0, 1
0, 0
0, 0
0, 0
0, 0
0, 0
0, 0
0, 0
0, 0
0, 1
0, 0
0, 0
0, 0
0, 0
0, 0
0, 0
0, 0
0, 0
0, 0
0, 0
0, 0
0, 0
0, 0
0, 0
0, 0
0, 0
0, 0
0, 0
0, 0
0, 0
0, 0
0, 0
0, 0
0, 0
0, 0
0, 0
0, 0
0, 0
0, 0
0, 0
0, 0
0, 0
0, 0
0, 0
0, 0
0, 0
0, 0
0, 0
0, 0
0, 0
0, 0
0, 0
0, 0
0, 0
0, 0
0, 0
0, 0
0, 0
0, 0
0, 0
0, 0
0, 0
0, 0
0, 0
0, 0
0, 0
0, 0
0, 0
0, 0
0, 0
0, 0
0, 0
0, 0
0, 0
0, 0
0, 0
0, 0
0, 0
0, 0
0, 0
0, 0
0, 0
0, 0
0, 0
0, 0
0, 0
0, 0
0, 0
0, 0
0, 0
0, 0
0, 0
0, 0
0, 0
0, 0
0, 0
0, 0
0, 0
0, 0
0, 0
0, 0
0, 0
0, 0
0, 0
0, 0
0, 0
0, 0
0, 0
0, 0
0, 0
0, 0
0, 0
0, 0
0, 0
0, 0
0, 0
0, 0
0, 0
0, 0
0, 0
0, 0
0, 0
0, 0
0, 0
0, 0
0, 0
0, 0
0, 0
0, 0
0, 0
0, 0
0, 0
0, 0
0, 0
0, 0
0, 0
0, 0
0, 0
0, 0
0, 0
0, 0
0, 0
0, 0
0, 0
0, 0
0, 0
0, 0
0, 0
0, 0
0, 0
0, 0
0, 0
0, 0
0, 0
0, 0
0, 0
0, 0
0, 0
0, 0
0, 0
0, 0
0, 0
0, 0
0, 0
0, 0
0, 0
0, 0
0, 0
0, 0
0, 0
0, 0
0, 0
0, 0
0, 0
0, 0
0, 0
0, 0
0, 0
0, 0
0, 0
0, 0
0, 0
0, 0
0, 0
0, 0
0, 0
0, 0
0, 0
0, 0
0, 0
0, 0
0, 0
0, 0
0, 0
0, 0
0, 0
0, 0
0, 0
0, 0
0, 0
0, 0
0, 0
0, 0
0, 0
0, 0
0, 0
0, 0
0, 0
0, 0
0, 0
0, 0
0, 0
0, 0
0, 0
0, 0
0, 0
0, 0
0, 0
0, 0
0, 0
0, 0
0, 0
0, 0
0, 0
0, 0
0, 0
0, 0
0, 0
0, 0
0, 0
0, 0
0, 0
0, 0
0, 0
0, 0
0, 0
0, 0
0, 0
0, 0
0, 0
0, 0
0, 0
0, 0
0, 0
0, 0
0, 0
0, 0
0, 0
0, 0
0, 0
0, 0
0, 0
0, 0
0, 0
0, 0
0, 0
0, 0
0, 0
0, 0
0, 0
0, 0
0, 0
0, 0
0, 0
0, 0
0, 0
0, 0
0, 0
0, 0
0, 0
0, 0
0, 0
0, 0
0, 0
0, 0
0, 0
0, 0
0, 0
0, 0
0, 0
0, 0
0, 0
0, 0
0, 0
0, 0
0, 0
0, 0
0, 0
0, 0
0, 0
0, 0
0, 0
0, 0
0, 0
0, 0
0, 0
0, 0
0, 0
0, 0
0, 0
0, 0
0, 0
0, 0
0, 0
0, 0
0, 0
0, 0
0, 0
0, 0
0, 0
0, 0
0, 0
0, 0
0, 0
0, 0
0, 0
0, 0
0, 0
#ENDOFDATA     end of spectrum data