File: host_upload/06-09-2024/ps_0852/dump3/ps__0852shot_2310.msa
#FORMAT      : EMSA/MAS spectral data file
#VERSION     : TC202v2.0 PIXL
#TITLE       : N/A
#DATE        :       Date in the format DD-MMM-YYYY, for example 07-JUL-2010
#TIME        :             The time of day at which the spectrum was recorded, in 24-hour format
#OWNER       : PIXL Flight Model       (PIXL will use this to indicate which instrument took the data.)
#NPOINTS     : 4096     Number of data points in the spectrum (This can be zero for configuration only files)
#NCOLUMNS    : 2     Number of data columns in the spectrum (This can be zero for configuration only files)
#XUNITS      : eV
#YUNITS      : COUNTS
#DATATYPE    : YY
#XPERCHAN    : 7.862, 7.881   eV per channel (separate by commas if more than one detector)
#OFFSET      : 18.5, -22.4         eV of first channel  (separate by commas if more than one detector
#SIGNALTYPE  : XRF
#YP_TEMP     : 2.396
#LIVETIME    : 8.57178, 8.5521   seconds (separate by commas if more than one detector)
#REALTIME    : 10, 10.0   seconds (separate by commas if more than one detector)
#SPECTRUM    : start of spectrum data
0, 0
0, 0
0, 0
0, 0
0, 0
0, 0
0, 0
0, 0
0, 0
0, 0
0, 0
0, 0
0, 0
0, 0
0, 0
0, 0
0, 0
0, 0
0, 0
0, 0
0, 0
0, 0
0, 0
0, 0
0, 0
0, 0
0, 0
0, 0
0, 0
0, 0
0, 0
0, 1
0, 0
0, 0
1, 1
1, 1
2, 1
4, 0
6, 2
7, 1
4, 0
9, 0
10, 2
5, 2
7, 6
4, 2
3, 1
3, 4
6, 5
7, 8
16, 14
23, 29
57, 37
52, 54
58, 68
72, 60
49, 39
42, 35
17, 10
10, 9
5, 7
9, 6
9, 2
10, 4
11, 8
6, 3
14, 8
13, 6
16, 17
48, 45
81, 92
150, 153
251, 234
298, 304
352, 321
358, 362
351, 305
270, 233
201, 147
91, 111
68, 53
42, 40
26, 21
12, 17
15, 15
18, 16
10, 6
15, 9
10, 16
10, 7
13, 9
10, 4
5, 6
11, 18
27, 23
44, 36
77, 55
91, 83
100, 96
109, 89
97, 103
81, 71
45, 40
37, 28
15, 24
16, 13
25, 17
32, 19
59, 21
100, 39
144, 46
298, 64
408, 79
547, 85
642, 89
651, 91
611, 89
534, 70
379, 67
261, 46
177, 27
102, 25
69, 29
32, 25
29, 22
19, 15
10, 20
17, 10
15, 11
7, 9
8, 8
5, 6
1, 7
1, 3
5, 6
3, 4
1, 4
4, 4
6, 4
3, 4
3, 4
5, 7
2, 4
5, 0
5, 3
4, 1
6, 2
7, 2
3, 3
8, 5
15, 11
18, 10
27, 21
52, 47
68, 60
88, 82
111, 99
91, 92
123, 124
87, 80
88, 58
77, 51
43, 40
27, 18
17, 15
19, 12
9, 9
15, 14
18, 30
20, 42
20, 26
22, 28
13, 21
18, 28
15, 17
7, 18
15, 11
3, 8
8, 9
2, 6
2, 2
4, 7
5, 8
2, 1
1, 6
5, 6
5, 6
6, 7
12, 8
16, 9
11, 7
14, 6
10, 9
15, 11
12, 11
14, 20
20, 14
14, 8
19, 17
19, 17
21, 8
34, 10
29, 7
39, 7
26, 7
45, 4
40, 7
33, 6
21, 4
20, 10
5, 6
8, 10
11, 6
5, 11
5, 13
3, 13
4, 14
6, 9
9, 11
11, 12
5, 12
12, 14
6, 14
5, 9
5, 9
11, 15
16, 12
18, 17
17, 21
17, 22
13, 19
17, 17
20, 21
11, 13
21, 12
12, 8
7, 13
9, 13
5, 10
7, 5
9, 7
9, 9
9, 12
7, 16
10, 17
21, 32
32, 38
29, 44
57, 56
75, 59
66, 65
71, 50
67, 73
66, 51
68, 32
44, 44
27, 32
15, 24
21, 25
22, 20
22, 22
24, 36
44, 60
76, 107
170, 188
302, 379
460, 578
789, 844
1174, 1312
1569, 1772
1940, 2087
2321, 2318
2427, 2315
2430, 2271
2108, 1851
1763, 1461
1401, 1046
984, 715
643, 433
315, 239
181, 139
98, 75
68, 63
38, 41
23, 32
21, 37
22, 30
19, 37
18, 39
25, 30
33, 32
34, 58
49, 57
91, 91
104, 118
163, 176
223, 226
248, 330
305, 335
342, 317
365, 358
349, 320
314, 272
242, 192
218, 165
138, 96
89, 59
71, 26
34, 18
22, 20
9, 16
5, 4
11, 9
11, 9
16, 6
13, 12
10, 11
19, 9
13, 8
4, 8
12, 9
16, 16
8, 6
5, 4
8, 4
5, 5
6, 3
4, 2
5, 2
5, 5
3, 4
3, 3
9, 7
3, 6
4, 1
2, 6
2, 2
2, 4
6, 3
6, 2
3, 5
8, 5
10, 6
3, 6
7, 12
5, 8
6, 8
5, 13
4, 8
6, 6
5, 6
3, 4
3, 8
6, 5
5, 4
3, 5
7, 5
2, 4
3, 6
2, 2
3, 5
2, 5
5, 6
5, 7
8, 7
3, 2
3, 6
1, 2
4, 3
5, 3
3, 2
4, 7
10, 2
5, 4
6, 6
7, 5
8, 8
8, 5
5, 1
9, 5
7, 2
2, 5
4, 3
3, 1
4, 4
8, 3
6, 4
6, 5
1, 4
5, 2
6, 5
2, 5
2, 4
1, 7
4, 4
2, 5
5, 5
4, 4
4, 4
3, 5
2, 4
2, 5
2, 4
5, 2
5, 2
11, 4
9, 1
9, 3
4, 4
6, 9
5, 2
8, 3
11, 3
8, 7
6, 9
1, 8
4, 8
2, 12
3, 12
3, 14
7, 16
3, 11
2, 22
3, 17
1, 8
3, 14
3, 7
5, 9
2, 0
5, 3
4, 7
1, 4
6, 1
6, 6
4, 5
4, 3
5, 1
3, 2
1, 2
4, 4
1, 3
4, 3
6, 1
2, 3
1, 3
1, 2
4, 0
3, 1
1, 0
4, 2
4, 4
2, 5
2, 0
5, 1
6, 3
3, 3
2, 1
3, 5
6, 8
2, 2
2, 8
3, 3
3, 3
3, 2
3, 2
6, 4
2, 1
5, 2
3, 1
5, 2
1, 3
2, 2
0, 2
3, 2
6, 2
0, 0
1, 2
0, 1
3, 1
3, 0
5, 0
0, 3
0, 0
3, 3
2, 3
2, 3
3, 2
4, 1
4, 0
2, 1
2, 1
1, 0
1, 1
4, 5
3, 4
2, 1
3, 6
4, 3
4, 3
3, 2
0, 3
5, 0
1, 4
4, 2
2, 4
2, 2
1, 3
2, 1
2, 1
1, 3
3, 1
3, 4
4, 2
1, 4
2, 2
3, 2
0, 3
2, 2
4, 0
2, 4
0, 1
1, 3
4, 2
2, 0
2, 2
1, 2
1, 1
0, 1
1, 3
2, 0
2, 3
0, 3
3, 2
2, 2
2, 1
1, 2
2, 3
2, 1
4, 3
2, 2
3, 4
4, 2
2, 3
2, 2
5, 2
1, 2
2, 2
4, 3
1, 3
1, 2
1, 0
0, 1
1, 1
2, 1
1, 1
4, 1
1, 1
0, 1
2, 3
2, 1
2, 0
2, 1
2, 2
0, 0
0, 0
0, 4
1, 2
2, 0
1, 3
3, 3
2, 1
1, 3
0, 3
1, 3
3, 1
3, 3
3, 3
0, 3
2, 3
0, 0
3, 0
2, 0
1, 1
1, 1
1, 1
1, 1
0, 1
2, 1
1, 1
0, 1
2, 1
2, 3
0, 1
1, 2
0, 2
2, 2
0, 1
2, 1
0, 0
0, 0
1, 1
0, 1
1, 3
3, 1
2, 1
2, 0
0, 0
3, 0
2, 0
2, 0
2, 2
1, 0
0, 2
0, 0
2, 0
0, 0
1, 0
1, 0
0, 0
1, 1
0, 0
0, 0
0, 2
1, 1
0, 2
4, 0
1, 0
2, 1
0, 1
0, 2
2, 0
0, 1
2, 1
0, 1
1, 0
1, 1
0, 0
0, 0
1, 0
1, 0
1, 1
1, 0
0, 1
1, 1
0, 2
0, 1
1, 1
0, 0
1, 2
0, 2
0, 1
0, 1
1, 0
0, 1
0, 0
1, 0
2, 0
0, 1
0, 1
0, 0
2, 1
1, 0
0, 0
2, 0
0, 1
0, 1
0, 1
1, 1
1, 1
0, 0
0, 0
1, 0
1, 0
1, 1
3, 2
2, 1
0, 0
0, 0
0, 0
1, 0
0, 1
1, 0
1, 1
0, 0
0, 1
2, 0
0, 0
0, 0
0, 0
1, 0
0, 1
0, 0
0, 0
0, 0
2, 3
1, 0
0, 1
1, 0
0, 0
0, 0
0, 1
0, 1
3, 1
0, 1
0, 0
1, 0
1, 0
0, 1
0, 0
1, 0
0, 1
0, 0
1, 0
0, 0
1, 0
0, 3
1, 0
0, 0
0, 0
0, 0
1, 1
0, 0
0, 1
0, 0
2, 1
1, 0
2, 1
0, 1
0, 0
0, 0
1, 0
0, 0
0, 0
0, 1
0, 0
0, 0
0, 0
0, 1
2, 1
1, 2
0, 0
0, 0
1, 0
0, 0
0, 0
0, 0
0, 1
1, 0
1, 0
0, 0
0, 1
0, 1
0, 0
1, 0
0, 1
0, 0
0, 0
0, 0
0, 0
0, 0
0, 0
0, 1
0, 0
0, 0
0, 0
0, 0
0, 0
0, 1
0, 0
0, 1
0, 1
0, 0
0, 0
0, 0
1, 0
0, 0
1, 0
0, 0
0, 0
0, 2
0, 0
1, 0
2, 0
0, 0
1, 0
0, 1
1, 1
0, 0
1, 0
1, 0
0, 0
0, 0
1, 0
0, 1
1, 0
0, 0
0, 0
0, 0
0, 0
0, 0
0, 0
2, 0
0, 0
0, 0
0, 0
0, 0
0, 0
1, 1
0, 0
0, 1
0, 0
0, 0
2, 0
0, 0
0, 0
0, 0
0, 0
1, 0
0, 0
0, 0
0, 0
0, 0
0, 0
0, 0
0, 0
0, 0
0, 0
1, 0
0, 0
1, 2
0, 0
0, 0
0, 0
0, 0
0, 0
0, 0
0, 0
0, 0
0, 0
0, 0
0, 0
0, 0
0, 0
0, 0
0, 0
0, 0
0, 1
0, 0
0, 0
0, 0
1, 0
0, 1
0, 0
0, 0
1, 1
0, 0
0, 0
0, 0
0, 0
0, 0
0, 1
0, 0
0, 0
0, 0
0, 0
0, 0
1, 0
0, 0
0, 0
0, 0
0, 0
0, 0
0, 0
0, 1
0, 0
2, 0
0, 1
0, 0
0, 0
0, 0
0, 0
0, 0
1, 0
0, 0
0, 0
0, 0
0, 0
0, 0
0, 0
0, 0
0, 0
0, 1
0, 0
0, 0
0, 0
0, 0
0, 0
0, 0
0, 1
0, 0
0, 0
0, 0
0, 0
0, 0
0, 0
0, 0
0, 0
0, 0
0, 0
0, 0
0, 0
2, 0
0, 0
0, 0
0, 0
0, 0
0, 0
0, 0
0, 0
0, 0
0, 0
0, 0
0, 0
0, 0
0, 0
0, 0
0, 0
0, 0
0, 0
0, 0
0, 0
0, 0
0, 0
0, 0
0, 0
0, 0
0, 0
0, 0
0, 1
0, 0
0, 0
0, 0
0, 0
0, 0
0, 0
0, 0
0, 0
0, 0
0, 0
0, 0
0, 0
0, 0
0, 0
0, 0
0, 0
0, 0
0, 0
0, 0
0, 0
0, 0
0, 0
0, 0
0, 0
0, 0
0, 0
0, 0
0, 0
0, 0
0, 1
0, 0
0, 0
0, 0
0, 0
0, 0
0, 0
0, 0
0, 0
0, 0
0, 0
0, 0
0, 0
0, 0
0, 0
0, 0
0, 0
0, 0
0, 0
0, 0
0, 0
0, 0
0, 0
0, 0
0, 0
0, 0
0, 0
0, 0
0, 0
0, 0
0, 0
0, 0
0, 0
0, 0
0, 0
0, 0
0, 0
0, 0
0, 0
0, 0
0, 0
0, 0
0, 0
0, 0
0, 0
0, 0
0, 0
0, 0
0, 0
0, 0
0, 0
0, 0
0, 0
0, 0
0, 0
0, 0
0, 0
0, 0
0, 0
0, 0
0, 0
0, 0
0, 0
0, 0
0, 0
0, 0
0, 0
0, 0
0, 0
0, 0
0, 0
0, 0
0, 0
0, 0
0, 0
0, 0
0, 0
0, 0
0, 0
0, 0
0, 0
0, 0
0, 0
0, 0
0, 0
0, 0
0, 0
0, 0
0, 0
0, 0
0, 0
0, 0
0, 0
0, 0
0, 0
0, 0
0, 0
0, 0
0, 0
0, 0
0, 0
0, 0
0, 0
0, 0
0, 0
0, 0
0, 0
0, 0
0, 0
0, 0
0, 0
0, 0
0, 0
0, 0
0, 0
0, 0
0, 0
0, 0
0, 0
0, 0
0, 0
0, 0
0, 0
0, 0
0, 0
0, 0
0, 0
0, 0
0, 0
0, 0
0, 0
0, 0
0, 0
0, 0
0, 0
0, 0
0, 0
0, 0
0, 0
0, 1
0, 0
0, 0
0, 0
0, 0
0, 0
0, 0
0, 0
0, 0
0, 0
0, 0
0, 0
0, 0
0, 0
0, 0
0, 0
0, 0
0, 0
0, 0
0, 0
0, 0
0, 0
0, 0
0, 0
0, 0
0, 0
0, 0
0, 0
0, 0
0, 0
0, 0
0, 0
0, 0
0, 0
0, 0
0, 0
0, 0
0, 0
0, 0
0, 0
0, 0
0, 0
0, 0
0, 0
0, 0
0, 0
0, 0
0, 0
0, 0
0, 0
0, 0
0, 0
0, 0
0, 0
0, 0
0, 0
0, 0
0, 0
0, 0
0, 0
0, 0
0, 0
0, 0
0, 0
0, 0
0, 0
0, 0
0, 0
0, 0
0, 0
0, 0
0, 0
0, 0
0, 0
0, 0
0, 0
0, 0
0, 0
0, 0
0, 0
0, 0
0, 0
0, 0
0, 0
0, 0
0, 0
0, 0
0, 0
0, 0
0, 0
0, 0
0, 0
0, 0
0, 0
0, 0
0, 0
0, 0
0, 0
0, 0
0, 0
0, 0
0, 0
0, 0
0, 0
0, 0
0, 0
0, 0
0, 0
0, 0
0, 0
0, 0
0, 0
0, 0
0, 0
0, 0
0, 0
0, 0
0, 0
0, 0
0, 0
0, 0
0, 0
0, 0
0, 0
0, 0
0, 0
0, 0
0, 0
0, 0
0, 0
0, 0
0, 0
0, 0
0, 0
0, 0
0, 0
0, 0
0, 0
0, 0
0, 0
0, 0
0, 0
0, 0
0, 0
0, 0
0, 0
0, 0
0, 0
0, 0
0, 0
0, 0
0, 0
0, 0
0, 0
0, 0
0, 0
0, 0
0, 0
0, 0
0, 0
0, 0
0, 0
0, 0
0, 0
0, 0
0, 0
0, 0
0, 0
0, 0
0, 0
0, 0
0, 0
0, 0
0, 0
0, 0
0, 0
0, 0
0, 0
0, 0
0, 0
0, 0
0, 0
0, 0
0, 0
0, 0
0, 0
0, 0
0, 0
0, 0
0, 0
0, 0
0, 0
0, 0
0, 0
0, 0
0, 0
0, 0
0, 0
0, 0
0, 0
0, 0
0, 0
0, 0
0, 0
0, 0
0, 0
0, 0
0, 0
0, 0
0, 0
0, 0
0, 0
0, 0
0, 0
0, 0
0, 0
0, 0
0, 0
0, 0
0, 0
0, 0
0, 0
0, 0
0, 0
0, 0
0, 0
0, 0
0, 0
0, 0
0, 0
0, 0
0, 0
0, 0
0, 0
0, 0
0, 0
0, 0
0, 0
0, 0
0, 0
0, 0
0, 0
0, 0
0, 0
0, 0
0, 0
0, 0
0, 0
0, 0
0, 0
0, 0
0, 0
0, 0
0, 0
0, 0
0, 0
0, 0
0, 0
0, 0
#ENDOFDATA     end of spectrum data