File: host_upload/06-09-2024/ps_0852/dump3/ps__0852shot_2560.msa
#FORMAT      : EMSA/MAS spectral data file
#VERSION     : TC202v2.0 PIXL
#TITLE       : N/A
#DATE        :       Date in the format DD-MMM-YYYY, for example 07-JUL-2010
#TIME        :             The time of day at which the spectrum was recorded, in 24-hour format
#OWNER       : PIXL Flight Model       (PIXL will use this to indicate which instrument took the data.)
#NPOINTS     : 4096     Number of data points in the spectrum (This can be zero for configuration only files)
#NCOLUMNS    : 2     Number of data columns in the spectrum (This can be zero for configuration only files)
#XUNITS      : eV
#YUNITS      : COUNTS
#DATATYPE    : YY
#XPERCHAN    : 7.862, 7.881   eV per channel (separate by commas if more than one detector)
#OFFSET      : 18.5, -22.4         eV of first channel  (separate by commas if more than one detector
#SIGNALTYPE  : XRF
#YP_TEMP     : 2.043
#LIVETIME    : 8.54258, 8.57455   seconds (separate by commas if more than one detector)
#REALTIME    : 10, 10.0   seconds (separate by commas if more than one detector)
#SPECTRUM    : start of spectrum data
0, 0
0, 0
0, 0
0, 0
0, 0
0, 0
0, 0
0, 0
0, 0
0, 0
0, 0
0, 0
0, 0
0, 0
0, 0
0, 0
0, 0
0, 0
0, 0
0, 0
0, 0
0, 0
0, 0
0, 0
0, 0
0, 0
0, 0
0, 0
0, 0
0, 0
0, 0
0, 0
0, 0
0, 0
0, 0
0, 0
0, 0
1, 0
1, 1
0, 3
2, 0
1, 2
2, 2
1, 1
0, 4
2, 0
1, 5
4, 4
3, 6
15, 12
20, 18
40, 38
65, 62
72, 61
104, 76
83, 78
86, 59
59, 28
26, 16
20, 11
5, 6
4, 5
6, 6
1, 1
3, 2
3, 4
9, 4
14, 17
23, 24
38, 48
110, 106
163, 170
281, 300
356, 355
456, 401
424, 423
413, 375
289, 269
203, 208
138, 104
82, 66
39, 47
16, 15
6, 10
6, 6
4, 5
8, 4
4, 5
5, 3
2, 2
3, 2
1, 2
2, 3
2, 0
1, 4
2, 1
3, 5
2, 8
9, 2
11, 6
5, 3
4, 6
7, 5
3, 5
2, 11
7, 12
6, 18
10, 12
18, 21
16, 26
28, 32
37, 33
56, 34
58, 47
53, 53
82, 36
91, 50
74, 43
56, 31
38, 25
34, 25
26, 24
26, 24
25, 22
20, 25
24, 13
15, 17
20, 16
12, 11
10, 8
5, 5
2, 6
3, 6
2, 2
3, 2
0, 1
4, 5
0, 4
1, 0
5, 0
1, 5
2, 2
0, 2
2, 2
2, 6
4, 1
4, 2
5, 4
9, 3
9, 6
15, 8
21, 9
26, 14
23, 15
22, 15
28, 34
38, 33
35, 31
32, 28
35, 28
19, 22
24, 11
22, 8
27, 5
23, 1
16, 8
13, 8
13, 4
12, 7
7, 8
9, 7
8, 10
10, 6
6, 9
3, 9
9, 6
5, 5
3, 7
8, 4
6, 7
3, 8
7, 3
4, 6
7, 1
3, 2
6, 6
5, 4
6, 8
6, 6
5, 9
8, 11
8, 18
6, 16
9, 25
17, 16
17, 18
16, 24
15, 23
22, 33
22, 27
7, 23
15, 15
11, 17
7, 13
12, 8
12, 9
8, 7
7, 5
13, 16
3, 8
11, 9
9, 12
10, 17
7, 16
12, 13
8, 13
8, 12
10, 7
13, 7
6, 6
10, 9
10, 6
9, 8
9, 8
16, 9
17, 8
7, 11
17, 23
21, 18
22, 12
18, 14
17, 9
18, 10
14, 13
12, 14
19, 9
13, 13
10, 9
21, 8
8, 7
16, 7
16, 10
16, 15
13, 12
12, 20
22, 24
34, 38
33, 44
35, 49
69, 53
64, 73
68, 55
58, 63
48, 46
58, 43
47, 38
30, 28
35, 28
22, 17
26, 20
32, 32
50, 46
67, 56
99, 111
186, 185
314, 341
525, 542
781, 893
1256, 1266
1686, 1759
2024, 2148
2422, 2453
2527, 2447
2395, 2274
2115, 1838
1761, 1451
1319, 1079
935, 703
645, 450
363, 228
214, 134
108, 75
56, 40
25, 25
19, 21
23, 19
29, 18
25, 16
18, 19
25, 31
33, 22
35, 40
47, 61
73, 85
116, 139
165, 146
238, 240
272, 264
318, 335
359, 357
370, 355
365, 296
320, 279
250, 223
193, 158
130, 92
83, 71
60, 45
27, 19
20, 19
12, 9
10, 10
8, 5
12, 5
12, 8
19, 15
15, 12
15, 9
10, 15
16, 17
16, 14
9, 11
12, 13
7, 7
9, 5
0, 7
9, 5
5, 6
6, 2
7, 6
4, 5
3, 8
6, 6
5, 8
3, 6
4, 13
6, 5
9, 20
4, 8
8, 8
7, 15
8, 10
16, 9
8, 12
9, 12
11, 9
10, 8
12, 12
10, 10
9, 9
11, 10
9, 8
2, 3
11, 5
8, 5
4, 6
3, 6
4, 5
5, 7
5, 2
7, 4
7, 7
3, 6
3, 4
4, 9
3, 4
4, 5
5, 2
1, 10
8, 6
4, 6
4, 5
1, 4
4, 5
4, 1
7, 2
8, 5
4, 5
2, 8
3, 3
2, 5
5, 4
6, 7
8, 5
8, 5
7, 5
8, 5
6, 6
12, 4
9, 3
4, 2
5, 3
6, 4
4, 4
6, 1
4, 4
5, 4
3, 4
6, 4
5, 2
4, 6
4, 10
6, 8
2, 4
10, 8
7, 3
13, 6
10, 3
4, 5
11, 5
10, 1
12, 2
3, 4
8, 4
6, 5
11, 3
5, 1
5, 1
4, 4
3, 2
5, 3
5, 3
6, 1
2, 5
1, 3
4, 3
1, 1
6, 5
2, 3
3, 5
3, 4
2, 2
3, 2
3, 3
6, 3
1, 1
3, 3
5, 2
5, 1
5, 0
4, 4
2, 0
4, 5
0, 3
4, 1
4, 2
1, 5
3, 4
5, 4
2, 2
7, 4
1, 4
5, 1
5, 1
1, 2
3, 4
3, 1
3, 3
7, 4
5, 6
3, 3
3, 0
7, 3
0, 3
2, 3
4, 2
5, 2
3, 3
5, 2
4, 2
3, 3
6, 3
0, 2
3, 2
1, 0
3, 1
2, 2
1, 1
3, 4
5, 0
2, 2
4, 2
7, 4
2, 2
3, 1
3, 2
2, 0
0, 2
3, 2
1, 3
2, 4
1, 1
1, 5
1, 2
1, 3
2, 4
1, 1
1, 0
6, 2
2, 7
7, 0
6, 1
6, 0
3, 2
2, 0
4, 3
2, 4
1, 5
2, 2
5, 3
2, 1
5, 0
0, 1
0, 2
1, 3
0, 1
4, 0
0, 3
1, 2
0, 1
1, 2
1, 7
4, 4
1, 4
3, 6
3, 1
4, 3
0, 4
2, 4
4, 2
5, 0
4, 3
2, 1
2, 4
2, 0
3, 2
4, 5
2, 5
3, 3
2, 2
3, 2
5, 3
5, 1
3, 2
5, 7
5, 5
2, 3
3, 3
2, 1
0, 1
5, 1
0, 4
3, 4
0, 2
0, 3
2, 0
2, 2
3, 2
1, 1
0, 1
0, 0
2, 1
1, 1
2, 3
3, 1
2, 2
4, 0
2, 2
1, 3
0, 3
3, 2
3, 2
4, 3
1, 2
3, 3
1, 2
1, 1
3, 1
5, 2
0, 2
0, 2
0, 1
0, 2
1, 6
1, 2
0, 0
0, 1
1, 1
3, 1
2, 2
1, 0
2, 0
3, 2
1, 0
0, 0
1, 2
0, 0
1, 4
1, 2
1, 0
0, 1
1, 2
1, 2
0, 0
0, 1
1, 0
1, 0
0, 1
1, 0
0, 0
1, 1
0, 0
0, 2
0, 1
0, 1
4, 1
3, 2
0, 4
0, 2
2, 0
0, 0
0, 1
2, 2
0, 2
0, 1
0, 2
1, 1
2, 0
0, 1
0, 1
0, 0
0, 1
4, 0
0, 0
1, 2
0, 0
1, 0
1, 1
0, 2
0, 0
1, 0
0, 2
0, 0
0, 1
0, 1
0, 0
1, 0
1, 0
1, 0
2, 1
2, 1
0, 0
0, 0
1, 0
1, 1
0, 0
0, 0
1, 0
1, 1
0, 1
0, 0
2, 0
0, 0
3, 0
1, 1
2, 0
0, 0
0, 1
0, 2
1, 0
0, 1
0, 0
0, 2
1, 2
0, 0
1, 1
0, 0
1, 0
0, 0
1, 1
0, 1
0, 1
1, 0
0, 0
0, 2
0, 0
0, 1
1, 0
0, 2
0, 2
1, 0
0, 0
0, 0
0, 0
1, 0
0, 0
0, 0
0, 1
0, 0
1, 0
1, 0
0, 1
0, 0
0, 0
1, 0
1, 0
0, 0
0, 1
1, 0
0, 0
0, 0
1, 0
0, 0
0, 1
0, 0
0, 0
0, 0
0, 0
0, 0
0, 0
0, 0
2, 1
0, 0
0, 0
1, 2
0, 0
0, 0
0, 2
1, 2
0, 0
1, 0
0, 0
2, 1
0, 0
0, 0
2, 0
1, 0
0, 0
0, 1
0, 0
0, 0
0, 0
0, 0
0, 0
1, 0
1, 0
0, 1
0, 0
0, 0
0, 0
1, 0
0, 0
2, 0
0, 0
0, 1
0, 0
1, 1
0, 0
0, 1
0, 0
0, 1
0, 1
0, 0
0, 1
0, 0
0, 0
0, 0
1, 0
0, 1
0, 0
1, 0
0, 0
0, 0
0, 0
0, 0
0, 0
0, 0
0, 0
0, 0
0, 1
0, 0
0, 0
0, 1
0, 0
1, 1
0, 0
0, 0
1, 0
1, 1
0, 1
2, 0
0, 0
0, 0
0, 0
1, 0
0, 0
0, 0
0, 0
1, 0
0, 1
0, 0
0, 0
2, 0
1, 0
0, 0
0, 0
0, 0
0, 1
0, 1
0, 0
0, 0
0, 0
0, 0
1, 0
0, 0
0, 0
0, 0
0, 0
0, 0
0, 0
0, 1
0, 0
0, 0
1, 0
0, 0
0, 1
0, 0
0, 0
0, 0
0, 1
0, 0
0, 0
0, 0
0, 0
0, 0
0, 0
0, 0
0, 0
0, 0
0, 0
0, 2
0, 0
0, 1
0, 1
0, 0
0, 0
0, 1
0, 0
0, 0
0, 0
0, 1
1, 0
0, 0
0, 1
0, 0
0, 0
0, 0
1, 0
1, 0
0, 0
0, 0
0, 1
0, 1
1, 0
0, 0
0, 0
0, 0
0, 0
0, 1
0, 0
0, 0
0, 0
0, 0
0, 0
0, 1
0, 0
0, 1
0, 0
0, 0
0, 0
0, 0
0, 0
0, 0
0, 0
0, 0
0, 0
0, 0
0, 0
0, 0
0, 0
0, 0
0, 0
0, 0
0, 0
0, 0
0, 0
0, 0
0, 1
0, 0
0, 0
0, 0
0, 0
0, 0
0, 0
0, 0
0, 0
0, 0
0, 0
0, 0
0, 0
0, 0
0, 0
0, 0
0, 0
2, 0
0, 0
0, 0
0, 0
0, 0
0, 0
0, 0
0, 1
0, 0
0, 0
0, 0
0, 0
0, 0
0, 0
1, 0
0, 0
0, 0
0, 0
0, 1
0, 0
1, 0
0, 0
0, 0
0, 1
0, 0
0, 0
0, 0
0, 0
0, 0
0, 0
0, 0
0, 1
0, 0
0, 0
1, 0
0, 0
0, 0
0, 0
0, 0
0, 0
0, 0
0, 0
0, 0
0, 0
0, 0
0, 0
0, 0
0, 0
0, 0
0, 0
0, 0
0, 0
0, 0
0, 0
0, 0
0, 0
0, 0
0, 0
0, 0
0, 0
0, 0
0, 0
1, 0
0, 0
0, 0
0, 0
0, 0
0, 0
0, 0
0, 0
0, 0
0, 0
0, 0
0, 0
0, 0
0, 0
0, 0
0, 0
0, 0
0, 0
0, 0
0, 0
0, 0
0, 0
0, 0
0, 0
0, 0
0, 0
0, 0
0, 0
0, 0
0, 0
0, 0
0, 0
0, 0
0, 0
0, 0
0, 0
0, 0
0, 0
0, 0
0, 0
0, 0
0, 0
0, 0
0, 0
0, 0
0, 0
0, 0
0, 0
0, 0
0, 0
0, 0
0, 0
0, 0
0, 0
0, 0
0, 0
0, 0
0, 0
0, 0
0, 0
0, 0
0, 0
0, 0
0, 0
0, 0
0, 0
0, 0
0, 0
0, 0
0, 0
0, 0
0, 0
0, 0
0, 0
0, 0
0, 0
0, 0
0, 0
0, 0
0, 0
0, 0
0, 0
0, 0
0, 0
0, 0
0, 0
0, 0
0, 0
0, 0
0, 0
0, 0
0, 0
0, 0
0, 0
0, 0
0, 0
0, 0
0, 0
0, 0
0, 0
0, 0
0, 0
0, 0
0, 0
0, 0
0, 0
0, 0
0, 0
0, 0
0, 0
0, 0
0, 0
0, 0
0, 0
0, 0
0, 0
0, 0
0, 0
0, 0
0, 0
0, 0
0, 0
0, 0
0, 0
0, 0
0, 0
0, 0
0, 0
0, 0
0, 0
0, 0
0, 0
0, 0
0, 0
0, 0
0, 0
0, 0
0, 0
0, 0
0, 0
0, 0
0, 0
0, 0
0, 0
0, 0
0, 0
0, 0
0, 0
0, 0
0, 0
0, 0
0, 0
0, 0
0, 0
0, 0
0, 0
0, 0
0, 0
0, 0
0, 0
0, 0
0, 0
0, 0
0, 0
0, 0
0, 0
0, 0
0, 0
0, 0
0, 0
0, 0
0, 0
0, 0
0, 0
0, 0
0, 0
0, 0
0, 0
0, 0
0, 0
0, 0
0, 0
0, 0
0, 0
0, 0
0, 0
0, 0
0, 0
0, 0
0, 0
0, 0
0, 0
0, 0
0, 0
0, 0
0, 0
0, 0
0, 0
0, 0
0, 0
0, 0
0, 0
0, 0
0, 0
0, 0
0, 0
0, 0
0, 0
0, 0
0, 0
0, 0
0, 0
0, 0
0, 0
0, 0
0, 0
0, 0
0, 0
0, 0
0, 0
0, 0
0, 0
0, 0
0, 0
0, 0
0, 0
0, 0
0, 0
0, 0
0, 0
0, 0
0, 0
0, 0
0, 0
0, 0
0, 0
0, 0
0, 0
0, 0
0, 0
0, 0
0, 0
0, 0
0, 0
0, 0
0, 0
0, 0
0, 0
0, 0
0, 0
0, 0
0, 0
0, 0
0, 0
0, 0
0, 0
0, 0
0, 0
0, 0
0, 0
0, 0
0, 0
0, 0
0, 0
0, 0
0, 0
0, 0
0, 0
0, 0
0, 0
0, 0
0, 0
0, 0
0, 0
0, 0
0, 0
0, 0
0, 0
0, 0
0, 0
0, 0
0, 0
0, 0
0, 0
0, 0
0, 0
0, 0
0, 0
0, 0
0, 0
0, 0
0, 0
0, 0
0, 0
0, 0
0, 0
0, 0
0, 0
0, 0
0, 0
0, 0
0, 0
0, 0
0, 0
0, 0
0, 0
0, 0
0, 0
0, 0
0, 0
0, 0
0, 0
0, 0
0, 0
0, 0
0, 0
0, 0
0, 0
0, 0
0, 0
0, 0
0, 0
0, 0
0, 0
0, 0
0, 0
0, 0
0, 0
0, 0
0, 0
0, 0
0, 0
0, 0
0, 0
0, 0
0, 0
0, 0
0, 0
0, 0
0, 0
0, 0
0, 0
0, 0
0, 0
0, 0
0, 0
0, 0
0, 0
0, 0
0, 0
0, 0
0, 0
0, 0
0, 0
0, 0
0, 0
0, 0
0, 0
0, 0
0, 0
0, 0
0, 0
0, 0
0, 0
0, 0
0, 0
0, 0
0, 0
0, 0
0, 0
0, 0
0, 0
0, 0
0, 0
0, 0
0, 0
0, 0
0, 0
0, 0
0, 0
0, 0
0, 0
0, 0
0, 0
0, 0
0, 0
0, 0
0, 0
0, 0
0, 0
#ENDOFDATA     end of spectrum data