File: host_upload/06-09-2024/ps_0852/dump3/ps__0852shot_2084.msa
#FORMAT      : EMSA/MAS spectral data file
#VERSION     : TC202v2.0 PIXL
#TITLE       : N/A
#DATE        :       Date in the format DD-MMM-YYYY, for example 07-JUL-2010
#TIME        :             The time of day at which the spectrum was recorded, in 24-hour format
#OWNER       : PIXL Flight Model       (PIXL will use this to indicate which instrument took the data.)
#NPOINTS     : 4096     Number of data points in the spectrum (This can be zero for configuration only files)
#NCOLUMNS    : 2     Number of data columns in the spectrum (This can be zero for configuration only files)
#XUNITS      : eV
#YUNITS      : COUNTS
#DATATYPE    : YY
#XPERCHAN    : 7.862, 7.881   eV per channel (separate by commas if more than one detector)
#OFFSET      : 18.5, -22.4         eV of first channel  (separate by commas if more than one detector
#SIGNALTYPE  : XRF
#YP_TEMP     : 2.46
#LIVETIME    : 8.55644, 8.56789   seconds (separate by commas if more than one detector)
#REALTIME    : 10, 10.0   seconds (separate by commas if more than one detector)
#SPECTRUM    : start of spectrum data
0, 0
0, 0
0, 0
0, 0
0, 0
0, 0
0, 0
0, 0
0, 0
0, 0
0, 0
0, 0
0, 0
0, 0
0, 0
0, 0
0, 0
0, 0
0, 0
0, 0
0, 0
0, 0
0, 0
0, 0
0, 0
0, 0
0, 0
0, 0
0, 0
0, 0
0, 0
0, 0
0, 1
0, 0
0, 0
0, 1
0, 0
1, 0
0, 0
0, 0
0, 1
1, 0
4, 1
4, 1
0, 2
3, 2
2, 1
2, 8
3, 7
15, 10
23, 25
47, 41
47, 65
79, 81
74, 95
74, 89
60, 78
47, 36
35, 32
16, 14
4, 12
4, 5
3, 4
2, 3
2, 2
4, 2
3, 7
8, 12
26, 22
55, 45
84, 104
146, 206
249, 278
342, 390
423, 452
432, 434
357, 392
285, 340
171, 221
130, 136
68, 71
44, 33
20, 15
3, 6
6, 12
3, 4
1, 3
2, 1
0, 1
1, 0
1, 1
0, 0
4, 0
4, 0
0, 2
8, 5
3, 5
2, 6
7, 4
8, 5
10, 3
6, 7
4, 8
5, 3
0, 3
4, 3
3, 2
5, 4
5, 5
7, 10
27, 12
41, 14
51, 7
81, 19
62, 34
69, 33
74, 20
60, 16
39, 18
45, 14
36, 21
24, 12
13, 14
14, 17
16, 9
12, 8
10, 13
14, 6
11, 7
11, 6
4, 4
2, 3
1, 4
2, 0
1, 0
1, 2
1, 3
2, 3
3, 2
0, 0
2, 1
0, 0
0, 1
2, 5
1, 1
1, 0
3, 0
3, 3
2, 3
0, 2
1, 2
3, 3
7, 7
3, 11
12, 9
19, 11
11, 12
16, 13
18, 25
11, 14
12, 13
10, 7
10, 7
5, 5
3, 2
7, 2
1, 2
1, 2
6, 6
6, 3
13, 2
9, 4
10, 5
21, 4
36, 1
47, 2
42, 5
43, 4
37, 2
34, 2
23, 2
19, 1
13, 3
13, 0
9, 1
5, 4
5, 7
7, 5
6, 4
10, 2
8, 3
6, 8
9, 5
9, 11
11, 11
11, 11
19, 27
8, 25
15, 45
14, 53
7, 50
9, 82
6, 97
7, 78
6, 101
6, 51
6, 72
5, 42
1, 35
3, 19
4, 15
3, 8
5, 9
9, 6
7, 8
2, 7
5, 5
9, 13
5, 10
6, 6
4, 12
8, 10
9, 9
5, 6
8, 9
7, 5
2, 8
12, 7
5, 16
17, 14
14, 20
16, 14
18, 9
23, 6
33, 9
64, 10
53, 2
64, 5
62, 5
58, 9
56, 9
40, 8
27, 4
36, 15
31, 11
23, 16
39, 26
36, 43
45, 55
47, 62
59, 55
59, 58
54, 64
51, 51
35, 33
36, 39
17, 22
19, 19
17, 17
16, 21
18, 30
30, 38
63, 68
84, 127
141, 210
274, 363
432, 601
740, 895
1008, 1363
1456, 1855
1814, 2216
2193, 2376
2165, 2540
2259, 2266
1986, 2056
1654, 1577
1245, 1171
881, 751
610, 530
344, 320
195, 205
107, 109
43, 69
31, 44
24, 26
13, 18
20, 20
22, 15
20, 11
35, 24
29, 33
45, 39
57, 55
76, 85
111, 124
157, 185
213, 225
242, 292
312, 333
346, 346
341, 371
353, 332
271, 275
233, 208
194, 152
134, 108
72, 58
56, 52
40, 33
23, 13
5, 10
7, 6
7, 5
3, 7
12, 12
10, 12
11, 14
11, 8
14, 14
14, 18
8, 8
14, 6
9, 7
6, 6
5, 7
3, 6
2, 6
4, 6
1, 3
4, 5
4, 3
4, 7
2, 4
8, 5
2, 3
3, 3
3, 1
3, 6
2, 5
4, 4
2, 6
5, 2
7, 5
9, 5
13, 4
14, 4
12, 5
24, 3
30, 3
45, 3
51, 6
39, 4
47, 8
46, 6
55, 9
37, 2
25, 5
42, 8
14, 3
17, 8
17, 13
7, 11
2, 9
7, 12
4, 11
4, 11
4, 6
6, 7
7, 3
2, 3
1, 6
5, 7
2, 4
4, 0
5, 2
0, 3
1, 3
3, 1
3, 4
3, 4
3, 3
4, 3
3, 4
2, 0
3, 6
2, 2
3, 5
2, 4
6, 6
2, 2
7, 3
0, 2
2, 3
0, 5
2, 4
2, 7
2, 6
3, 1
1, 6
3, 5
2, 4
4, 6
0, 3
4, 10
3, 10
3, 7
4, 4
2, 9
3, 7
1, 5
4, 8
4, 8
4, 3
2, 6
4, 4
2, 1
1, 9
4, 5
4, 6
1, 8
6, 8
4, 6
4, 11
2, 6
1, 4
5, 6
1, 5
3, 6
5, 5
1, 8
6, 7
1, 8
4, 11
5, 8
2, 9
4, 7
2, 9
4, 5
4, 7
1, 4
2, 2
2, 8
0, 7
3, 4
3, 3
2, 2
2, 7
2, 2
0, 2
4, 5
2, 3
5, 1
2, 2
3, 0
1, 2
2, 3
2, 2
4, 5
2, 0
2, 4
3, 1
0, 3
1, 3
1, 2
3, 3
2, 5
3, 4
3, 2
4, 2
4, 3
3, 1
4, 4
6, 3
10, 1
6, 1
2, 1
1, 1
6, 3
1, 1
4, 1
1, 1
0, 0
1, 1
3, 5
5, 3
4, 2
3, 0
3, 0
1, 2
1, 3
0, 0
3, 2
0, 3
2, 4
2, 2
0, 4
2, 3
3, 0
4, 0
1, 3
1, 1
2, 3
3, 1
0, 2
1, 5
0, 0
0, 1
3, 2
0, 0
3, 3
1, 1
2, 3
3, 0
2, 1
1, 2
2, 2
1, 1
1, 0
2, 0
3, 4
3, 3
0, 2
0, 2
4, 3
1, 1
2, 0
2, 3
1, 2
1, 2
3, 5
2, 2
2, 3
2, 3
4, 2
1, 3
3, 4
2, 2
3, 5
3, 1
6, 3
3, 7
2, 6
3, 4
3, 3
2, 2
3, 6
1, 4
1, 2
1, 0
0, 6
3, 3
2, 5
2, 2
1, 4
0, 6
1, 3
1, 4
1, 1
1, 2
2, 2
1, 0
1, 2
0, 1
0, 2
1, 5
2, 2
2, 2
3, 3
0, 1
2, 3
2, 3
2, 1
3, 0
1, 2
0, 0
1, 2
1, 3
1, 2
0, 2
2, 2
1, 4
1, 0
1, 2
2, 1
1, 0
1, 1
1, 2
3, 2
1, 2
0, 2
2, 2
1, 0
2, 0
1, 2
2, 1
1, 0
3, 2
2, 2
5, 1
0, 2
0, 0
1, 1
0, 2
0, 2
1, 1
1, 0
1, 1
2, 0
0, 1
0, 1
0, 0
0, 1
1, 0
0, 1
0, 2
1, 3
1, 0
0, 1
1, 0
1, 1
3, 0
0, 0
0, 0
0, 0
0, 1
0, 0
1, 0
1, 0
1, 1
0, 0
1, 0
0, 1
0, 1
0, 0
1, 0
1, 1
1, 1
1, 2
1, 2
0, 1
0, 1
0, 0
1, 0
2, 2
1, 1
2, 1
2, 1
0, 0
0, 1
0, 0
0, 0
1, 0
1, 0
1, 0
0, 0
2, 1
1, 0
1, 3
0, 0
0, 0
0, 0
0, 0
2, 0
0, 2
1, 0
0, 0
1, 0
2, 0
0, 1
1, 1
1, 0
0, 1
0, 2
0, 0
2, 0
2, 1
0, 2
0, 0
0, 0
2, 0
0, 1
1, 0
1, 0
0, 0
1, 1
0, 0
0, 0
0, 1
2, 1
1, 1
1, 1
0, 1
2, 0
1, 0
0, 0
1, 0
1, 2
1, 0
1, 0
1, 0
0, 0
2, 1
0, 1
1, 0
2, 0
0, 0
2, 0
1, 1
1, 0
1, 1
0, 0
0, 0
1, 1
0, 0
0, 0
3, 1
0, 0
0, 0
1, 1
0, 2
0, 2
1, 0
0, 1
0, 0
0, 0
1, 0
0, 1
0, 0
1, 1
0, 1
0, 0
0, 1
1, 1
1, 1
0, 0
0, 0
0, 0
1, 0
1, 0
0, 1
2, 0
0, 0
0, 0
0, 0
0, 0
1, 0
0, 0
0, 0
1, 0
0, 0
0, 0
0, 0
0, 0
0, 0
0, 0
0, 0
0, 0
0, 0
0, 0
0, 0
0, 1
0, 0
0, 0
0, 0
1, 1
0, 0
0, 0
1, 0
0, 1
1, 1
0, 0
1, 0
0, 0
0, 0
0, 0
0, 0
0, 0
1, 0
0, 0
0, 0
0, 0
0, 0
0, 0
0, 0
0, 0
0, 1
0, 0
0, 0
0, 0
0, 0
0, 0
0, 0
0, 0
0, 0
0, 0
1, 1
1, 1
0, 1
1, 0
0, 0
0, 0
0, 0
1, 1
0, 0
0, 0
1, 0
0, 0
0, 1
0, 0
0, 0
0, 0
0, 1
0, 1
0, 0
0, 0
0, 0
0, 0
1, 0
0, 1
0, 2
0, 0
0, 0
0, 0
0, 0
0, 0
0, 0
0, 0
0, 0
0, 0
0, 0
0, 0
0, 0
0, 0
0, 0
0, 0
2, 0
0, 0
1, 0
0, 0
0, 0
0, 0
1, 0
1, 0
0, 0
0, 0
0, 1
0, 0
0, 0
1, 0
0, 0
0, 0
0, 0
0, 0
0, 0
1, 0
0, 0
0, 0
0, 0
0, 0
0, 0
0, 0
0, 1
0, 0
0, 0
0, 0
0, 0
0, 0
0, 0
0, 0
1, 0
0, 0
0, 0
0, 0
0, 0
2, 0
0, 0
0, 0
0, 1
0, 0
0, 0
0, 0
0, 0
0, 0
0, 0
0, 0
0, 0
0, 0
0, 0
0, 0
0, 0
0, 1
0, 0
0, 0
0, 0
0, 0
0, 0
0, 0
0, 0
0, 0
0, 0
0, 0
0, 0
0, 0
0, 0
0, 0
0, 0
0, 1
0, 0
0, 0
0, 0
0, 0
0, 0
0, 0
0, 0
0, 0
0, 0
0, 0
0, 0
0, 0
0, 0
0, 0
0, 0
0, 0
0, 0
0, 0
0, 0
0, 0
0, 0
0, 0
0, 0
0, 0
0, 0
0, 0
0, 0
0, 0
0, 0
0, 0
1, 0
0, 0
0, 0
0, 0
0, 0
0, 0
0, 0
0, 0
0, 0
0, 0
0, 0
0, 0
0, 0
0, 0
0, 0
0, 0
0, 0
0, 0
0, 0
0, 0
0, 0
0, 1
0, 0
0, 0
0, 0
0, 0
0, 0
0, 0
0, 0
0, 0
0, 0
0, 0
0, 0
0, 0
0, 0
0, 0
0, 0
1, 0
0, 0
1, 0
1, 0
0, 0
0, 1
0, 0
0, 0
0, 0
0, 0
0, 0
0, 0
0, 0
0, 1
0, 0
0, 0
0, 0
0, 0
0, 0
0, 0
0, 0
0, 0
0, 0
0, 0
0, 0
0, 0
0, 0
0, 0
0, 0
0, 0
0, 0
0, 0
0, 0
0, 0
0, 0
0, 0
0, 0
0, 0
0, 0
0, 0
0, 0
0, 0
0, 0
0, 0
0, 0
0, 0
0, 0
0, 0
0, 0
0, 0
0, 0
0, 0
0, 0
0, 0
0, 0
0, 0
0, 0
0, 0
0, 0
0, 0
0, 0
0, 0
0, 0
0, 0
0, 0
0, 0
0, 0
0, 0
0, 0
0, 0
0, 0
0, 0
0, 0
0, 0
0, 0
0, 0
0, 0
0, 0
0, 0
0, 0
0, 0
0, 0
0, 0
0, 0
0, 0
0, 0
0, 0
0, 0
0, 0
0, 0
0, 0
0, 0
0, 0
0, 0
0, 0
0, 0
0, 0
1, 0
0, 0
0, 0
0, 0
0, 0
0, 0
0, 0
0, 0
0, 0
0, 0
0, 0
0, 0
0, 0
0, 0
0, 0
0, 0
0, 0
0, 0
0, 0
0, 0
0, 0
0, 0
0, 0
0, 0
0, 0
0, 0
0, 0
0, 0
0, 0
0, 0
0, 0
0, 0
0, 0
0, 0
0, 0
0, 0
0, 0
0, 0
0, 0
0, 0
0, 0
0, 0
0, 0
0, 0
0, 0
0, 0
0, 0
0, 0
0, 0
0, 0
0, 0
0, 0
0, 0
0, 0
0, 0
0, 0
0, 0
0, 0
0, 0
0, 0
0, 0
0, 0
0, 0
0, 0
0, 0
0, 0
0, 0
0, 0
0, 0
0, 0
0, 0
0, 0
0, 0
0, 0
0, 0
0, 0
0, 0
0, 0
0, 0
0, 0
0, 0
0, 0
0, 0
0, 0
0, 0
0, 0
0, 0
0, 0
0, 0
0, 0
0, 0
0, 0
0, 0
0, 0
0, 0
0, 0
0, 0
0, 0
0, 0
0, 0
0, 0
0, 0
0, 0
0, 0
0, 0
0, 0
0, 0
0, 0
0, 0
0, 0
0, 0
0, 0
0, 0
0, 0
0, 0
0, 0
0, 0
0, 0
0, 0
0, 0
0, 0
0, 0
0, 0
0, 0
0, 0
0, 0
0, 0
0, 0
0, 0
0, 0
0, 0
0, 0
0, 0
0, 0
0, 0
0, 0
0, 0
0, 0
0, 0
0, 0
0, 0
0, 0
0, 0
0, 0
0, 0
0, 0
0, 0
0, 0
0, 0
0, 0
0, 0
0, 0
0, 0
0, 0
0, 0
0, 0
0, 0
0, 0
0, 0
0, 0
0, 0
0, 0
0, 0
0, 0
0, 0
0, 0
0, 0
0, 0
0, 0
0, 0
0, 0
0, 0
0, 0
0, 0
0, 0
0, 0
0, 0
0, 0
0, 0
0, 0
0, 0
0, 0
0, 0
0, 0
0, 0
0, 0
0, 0
0, 0
0, 0
0, 0
0, 0
0, 0
0, 0
0, 0
0, 0
0, 0
0, 0
0, 0
0, 0
0, 0
0, 0
0, 0
0, 0
0, 0
0, 0
0, 0
0, 0
0, 0
0, 0
0, 0
0, 0
0, 0
0, 0
0, 0
0, 0
0, 0
0, 0
0, 0
0, 0
0, 0
0, 0
0, 0
0, 0
0, 0
0, 0
0, 0
0, 0
0, 0
0, 0
0, 0
0, 0
0, 0
0, 0
0, 0
0, 0
0, 0
0, 0
0, 0
0, 0
0, 0
0, 0
0, 0
0, 0
0, 0
0, 0
0, 0
0, 0
0, 0
0, 0
0, 0
0, 0
0, 0
0, 0
0, 0
0, 0
0, 0
0, 0
0, 0
0, 0
0, 0
0, 0
0, 0
0, 0
0, 0
0, 0
0, 0
0, 0
0, 0
0, 0
0, 0
0, 0
0, 0
0, 0
0, 0
0, 0
0, 0
0, 0
0, 0
0, 0
0, 0
0, 0
0, 0
0, 0
0, 0
0, 0
0, 0
0, 0
0, 0
0, 0
0, 0
0, 0
0, 0
0, 0
0, 0
0, 0
#ENDOFDATA     end of spectrum data