File: host_upload/06-09-2024/ps_0852/dump3/ps__0852shot_2481.msa
#FORMAT      : EMSA/MAS spectral data file
#VERSION     : TC202v2.0 PIXL
#TITLE       : N/A
#DATE        :       Date in the format DD-MMM-YYYY, for example 07-JUL-2010
#TIME        :             The time of day at which the spectrum was recorded, in 24-hour format
#OWNER       : PIXL Flight Model       (PIXL will use this to indicate which instrument took the data.)
#NPOINTS     : 4096     Number of data points in the spectrum (This can be zero for configuration only files)
#NCOLUMNS    : 2     Number of data columns in the spectrum (This can be zero for configuration only files)
#XUNITS      : eV
#YUNITS      : COUNTS
#DATATYPE    : YY
#XPERCHAN    : 7.862, 7.881   eV per channel (separate by commas if more than one detector)
#OFFSET      : 18.5, -22.4         eV of first channel  (separate by commas if more than one detector
#SIGNALTYPE  : XRF
#YP_TEMP     : 2.364
#LIVETIME    : 8.59659, 8.55715   seconds (separate by commas if more than one detector)
#REALTIME    : 10, 10.0   seconds (separate by commas if more than one detector)
#SPECTRUM    : start of spectrum data
0, 0
0, 0
0, 0
0, 0
0, 0
0, 0
0, 0
0, 0
0, 0
0, 0
0, 0
0, 0
0, 0
0, 0
0, 0
0, 0
0, 0
0, 0
0, 0
0, 0
0, 0
0, 0
0, 0
0, 0
0, 0
0, 0
0, 0
0, 0
0, 0
0, 0
0, 0
0, 0
0, 0
1, 1
0, 0
0, 0
0, 1
0, 0
1, 1
3, 0
0, 0
1, 0
0, 1
0, 0
0, 1
1, 0
3, 1
1, 3
5, 1
12, 13
17, 24
47, 39
63, 68
70, 75
77, 57
76, 76
70, 51
47, 31
27, 21
13, 8
3, 6
5, 4
8, 2
3, 3
7, 2
6, 3
5, 11
8, 9
19, 18
39, 27
111, 92
197, 145
290, 249
373, 298
427, 359
464, 385
372, 353
279, 228
192, 199
118, 112
66, 45
34, 34
16, 8
12, 6
5, 4
2, 3
4, 2
3, 0
0, 1
0, 1
3, 0
1, 0
2, 2
1, 0
2, 0
2, 1
5, 3
6, 1
4, 1
5, 5
2, 1
2, 4
3, 1
0, 3
7, 3
4, 0
6, 0
5, 4
8, 4
6, 8
16, 15
24, 20
22, 23
32, 27
31, 41
37, 34
49, 34
39, 43
38, 19
36, 27
25, 21
29, 19
23, 18
29, 19
19, 16
25, 13
25, 16
16, 13
14, 9
12, 11
11, 8
12, 6
3, 5
7, 0
1, 4
4, 2
3, 2
5, 3
0, 1
3, 1
6, 2
2, 3
1, 1
1, 3
5, 0
3, 4
3, 3
9, 5
1, 5
7, 8
6, 7
6, 6
13, 9
13, 14
16, 11
24, 12
26, 23
20, 26
25, 30
19, 12
11, 15
7, 9
22, 9
9, 7
7, 5
8, 7
7, 4
5, 8
6, 3
4, 6
2, 6
8, 3
6, 3
6, 7
4, 5
9, 4
7, 3
6, 5
2, 6
6, 9
6, 6
4, 6
2, 10
3, 8
6, 8
6, 7
3, 8
12, 15
14, 9
16, 20
22, 25
21, 25
31, 29
21, 24
26, 21
21, 24
21, 15
19, 22
18, 18
14, 24
13, 19
12, 7
14, 6
6, 8
4, 11
3, 11
3, 5
4, 9
2, 10
6, 7
10, 5
18, 13
9, 6
10, 5
9, 7
12, 2
5, 6
3, 9
5, 10
4, 7
9, 15
25, 14
14, 21
29, 35
34, 52
59, 89
104, 128
151, 160
222, 222
251, 234
277, 262
267, 297
266, 231
211, 172
140, 143
135, 79
91, 55
58, 19
29, 27
25, 19
21, 15
20, 12
18, 20
20, 18
27, 23
37, 27
35, 40
50, 39
95, 80
90, 89
106, 105
109, 115
96, 99
96, 104
73, 93
74, 84
51, 61
54, 40
25, 52
16, 36
28, 43
30, 37
48, 48
79, 93
139, 170
253, 305
446, 561
722, 874
1068, 1269
1463, 1659
1897, 1930
2214, 2192
2383, 2163
2241, 2079
2015, 1785
1725, 1373
1253, 927
883, 672
563, 366
315, 240
203, 114
110, 66
54, 46
38, 21
26, 9
17, 16
15, 20
17, 24
18, 26
19, 22
25, 37
36, 40
43, 55
68, 75
99, 102
145, 166
187, 226
257, 287
260, 309
320, 288
356, 343
301, 287
285, 244
245, 222
191, 149
125, 84
86, 42
49, 33
36, 13
31, 13
19, 9
10, 10
11, 7
19, 4
10, 10
11, 13
13, 9
16, 19
14, 14
13, 8
9, 13
10, 9
8, 9
6, 6
4, 4
8, 1
10, 3
8, 4
4, 3
7, 6
5, 2
4, 2
5, 5
2, 6
1, 4
7, 0
4, 2
2, 2
4, 5
5, 3
7, 4
8, 11
6, 3
6, 4
7, 6
3, 3
12, 3
11, 4
12, 3
10, 1
6, 6
12, 10
3, 2
5, 2
3, 3
5, 2
9, 2
6, 2
3, 8
8, 4
5, 7
5, 6
2, 4
6, 7
5, 6
12, 5
2, 6
5, 4
13, 11
11, 2
10, 5
7, 4
6, 1
4, 4
2, 0
6, 1
6, 5
5, 3
4, 1
4, 6
1, 7
2, 11
5, 5
5, 7
2, 8
4, 5
2, 9
3, 12
5, 11
7, 12
6, 6
3, 9
4, 10
2, 10
4, 2
2, 6
4, 4
2, 6
5, 3
2, 4
3, 5
0, 5
6, 2
2, 2
4, 2
5, 2
1, 3
3, 8
3, 5
3, 3
1, 7
4, 6
2, 5
1, 2
1, 2
2, 4
3, 8
3, 8
0, 4
2, 3
2, 3
0, 3
1, 3
2, 2
1, 5
2, 2
5, 1
1, 3
2, 2
2, 3
3, 1
3, 4
1, 1
1, 4
3, 1
2, 3
0, 4
2, 4
0, 5
5, 5
2, 3
2, 3
2, 2
2, 5
1, 4
2, 3
1, 6
3, 1
2, 2
1, 5
5, 5
4, 2
2, 2
2, 3
2, 1
1, 3
1, 1
2, 1
4, 3
3, 1
4, 1
2, 5
6, 4
3, 1
6, 3
6, 2
4, 2
4, 2
4, 3
7, 6
2, 0
3, 0
5, 0
4, 3
3, 4
6, 3
4, 1
3, 2
2, 3
2, 3
2, 3
2, 5
1, 3
6, 2
2, 5
3, 1
1, 4
1, 1
2, 5
5, 2
0, 2
2, 3
2, 0
2, 2
3, 1
5, 5
2, 1
2, 5
3, 3
1, 4
5, 2
4, 3
3, 1
4, 2
3, 0
1, 1
2, 4
4, 2
3, 3
2, 4
0, 2
0, 2
0, 1
1, 2
0, 1
2, 2
1, 2
3, 1
2, 2
0, 1
2, 1
1, 1
2, 0
6, 2
3, 2
3, 0
1, 1
2, 3
2, 5
1, 0
4, 1
2, 2
1, 2
3, 0
5, 2
2, 1
1, 1
2, 2
1, 3
3, 2
3, 4
3, 1
4, 1
3, 4
6, 5
2, 2
4, 2
0, 5
7, 2
1, 2
3, 2
1, 0
2, 2
1, 1
1, 1
1, 4
1, 0
1, 1
2, 2
1, 2
4, 1
1, 2
1, 1
0, 4
1, 1
2, 1
3, 0
2, 2
2, 2
2, 0
3, 1
2, 2
3, 1
1, 0
0, 0
1, 2
1, 2
1, 0
1, 2
0, 3
0, 2
2, 0
1, 1
0, 0
1, 1
1, 1
0, 3
1, 1
1, 1
5, 0
1, 0
0, 0
0, 3
3, 2
2, 3
0, 1
3, 1
1, 1
1, 0
4, 0
0, 1
1, 1
0, 1
1, 0
1, 1
0, 1
0, 1
0, 1
0, 1
2, 0
1, 2
0, 0
0, 0
0, 0
1, 0
1, 0
0, 0
1, 2
2, 1
0, 0
0, 2
0, 0
0, 2
6, 0
2, 0
1, 0
0, 1
0, 0
0, 0
1, 1
1, 5
0, 0
1, 0
0, 0
2, 1
0, 2
1, 1
0, 1
0, 2
0, 2
1, 2
0, 0
0, 0
0, 0
0, 0
1, 1
0, 0
0, 0
1, 0
0, 0
0, 0
0, 0
1, 1
1, 1
0, 0
1, 0
2, 0
0, 1
1, 0
3, 2
0, 0
0, 1
0, 2
1, 0
1, 0
0, 0
0, 0
0, 1
0, 0
0, 2
1, 2
0, 0
0, 0
1, 0
0, 0
0, 0
0, 2
0, 0
0, 0
1, 0
1, 1
0, 0
0, 0
0, 0
1, 0
1, 0
0, 1
0, 1
0, 0
0, 1
0, 0
0, 0
0, 0
0, 1
1, 0
0, 0
0, 0
0, 0
0, 0
1, 0
0, 1
0, 0
0, 0
1, 0
0, 0
0, 0
0, 2
0, 0
0, 0
1, 1
1, 0
0, 0
0, 0
0, 0
0, 0
0, 0
0, 1
0, 0
0, 0
0, 1
0, 0
0, 0
0, 0
0, 0
0, 0
0, 0
0, 1
0, 0
0, 0
0, 1
0, 0
0, 1
1, 0
0, 0
0, 0
0, 0
0, 0
0, 2
1, 0
0, 1
0, 1
0, 1
0, 1
0, 0
0, 0
0, 0
0, 0
0, 0
0, 0
0, 0
0, 1
0, 0
0, 2
0, 0
0, 0
1, 1
0, 0
0, 2
0, 0
1, 0
0, 0
1, 0
1, 0
1, 1
0, 0
0, 1
0, 0
0, 0
0, 1
0, 0
1, 0
0, 0
0, 0
1, 1
1, 0
0, 0
0, 0
0, 0
0, 1
2, 0
0, 0
1, 1
1, 0
0, 0
0, 1
0, 0
0, 1
0, 0
0, 0
0, 0
1, 0
0, 2
0, 0
0, 0
1, 1
0, 0
2, 0
0, 0
0, 0
0, 0
0, 0
1, 0
1, 0
1, 0
0, 0
0, 0
0, 0
0, 0
0, 0
0, 0
0, 0
0, 1
0, 0
0, 1
0, 0
0, 0
0, 1
0, 0
0, 0
0, 0
0, 0
0, 0
0, 0
0, 0
0, 1
1, 0
1, 1
0, 0
0, 0
0, 0
0, 0
0, 0
0, 0
0, 0
0, 0
0, 0
0, 0
0, 0
0, 0
0, 0
0, 0
0, 0
0, 0
0, 0
0, 0
0, 0
0, 0
0, 0
1, 0
1, 0
1, 0
0, 0
0, 0
1, 1
0, 0
0, 0
1, 0
0, 0
1, 0
0, 0
0, 1
0, 0
0, 0
0, 0
0, 0
0, 0
0, 0
0, 0
0, 0
0, 0
0, 0
0, 0
0, 0
0, 0
0, 0
0, 0
0, 0
0, 0
0, 0
0, 0
0, 0
0, 0
0, 0
0, 1
0, 0
0, 0
0, 0
0, 0
0, 0
1, 0
0, 0
0, 0
0, 0
0, 0
0, 1
0, 0
0, 0
0, 0
0, 0
0, 0
0, 0
0, 0
0, 0
0, 0
0, 0
0, 0
0, 0
1, 0
0, 0
0, 0
0, 1
0, 0
0, 0
0, 0
0, 0
0, 0
0, 0
0, 0
0, 1
0, 0
0, 0
1, 0
0, 0
0, 0
0, 0
0, 0
0, 0
1, 0
0, 0
0, 0
0, 0
0, 0
0, 0
0, 0
0, 0
0, 0
0, 0
0, 0
0, 0
0, 0
0, 0
0, 1
0, 0
0, 0
0, 0
0, 0
0, 0
0, 0
0, 0
0, 0
0, 0
0, 0
0, 0
0, 0
0, 0
0, 0
0, 0
0, 0
0, 0
0, 0
0, 0
0, 0
0, 0
0, 0
0, 0
0, 0
0, 0
0, 0
0, 0
0, 0
0, 0
0, 0
0, 0
0, 0
0, 0
0, 0
0, 0
0, 0
0, 0
0, 0
0, 0
0, 0
0, 0
0, 0
0, 0
0, 0
0, 0
0, 0
0, 0
0, 0
0, 0
0, 0
0, 0
0, 0
0, 0
0, 0
0, 0
0, 0
0, 0
0, 0
0, 0
0, 0
0, 0
0, 0
0, 0
0, 0
0, 0
0, 0
0, 0
0, 0
0, 0
0, 0
0, 0
0, 0
0, 0
0, 0
0, 0
0, 0
1, 0
0, 0
0, 0
0, 0
0, 0
0, 0
0, 0
0, 0
0, 0
0, 0
0, 0
0, 0
0, 0
0, 0
0, 0
0, 0
1, 0
0, 0
0, 0
0, 0
0, 0
0, 0
0, 0
0, 0
0, 0
0, 0
0, 0
0, 0
0, 0
0, 0
0, 0
0, 0
0, 0
0, 0
0, 0
0, 0
0, 0
0, 0
0, 0
0, 0
0, 0
0, 0
0, 0
0, 0
0, 0
0, 0
0, 0
0, 0
0, 0
0, 0
0, 0
0, 0
0, 0
0, 0
0, 0
0, 0
0, 0
0, 0
0, 0
0, 0
0, 0
0, 0
0, 0
0, 0
0, 0
0, 0
0, 0
0, 0
0, 0
0, 0
0, 0
0, 0
0, 0
0, 0
0, 0
0, 0
0, 0
0, 0
0, 0
0, 0
0, 0
0, 0
0, 0
0, 0
0, 0
0, 0
0, 0
0, 0
0, 0
0, 0
0, 0
0, 0
0, 0
0, 0
0, 0
0, 0
0, 0
0, 0
0, 0
0, 0
0, 0
0, 0
0, 0
0, 0
0, 0
0, 0
0, 0
0, 0
0, 0
0, 0
0, 0
0, 0
0, 0
0, 0
0, 0
0, 0
0, 0
0, 0
0, 0
0, 0
0, 0
0, 0
0, 0
0, 0
0, 0
0, 0
0, 0
0, 0
0, 0
0, 0
0, 0
0, 0
0, 0
0, 0
0, 0
0, 0
0, 0
0, 0
0, 0
0, 0
0, 0
0, 0
0, 0
0, 0
0, 0
0, 0
0, 0
0, 0
0, 0
0, 0
0, 0
0, 0
0, 0
0, 0
0, 0
0, 0
0, 0
0, 0
0, 0
0, 0
0, 0
0, 0
0, 0
0, 0
0, 0
0, 0
0, 0
0, 0
0, 0
0, 0
0, 0
0, 0
0, 0
0, 0
0, 0
0, 0
0, 0
0, 0
0, 0
0, 0
0, 0
0, 0
0, 0
0, 0
0, 0
0, 0
0, 0
0, 0
0, 0
0, 0
0, 0
0, 0
0, 0
0, 0
0, 0
0, 0
0, 0
0, 0
0, 0
0, 0
0, 0
0, 0
0, 0
0, 0
0, 0
0, 0
0, 0
0, 0
0, 0
0, 0
0, 0
0, 0
0, 0
0, 0
0, 0
0, 0
0, 0
0, 0
0, 0
0, 0
0, 0
0, 0
0, 0
0, 0
0, 0
0, 0
0, 0
0, 0
0, 0
0, 0
0, 0
0, 0
0, 0
0, 0
0, 0
0, 0
0, 0
0, 0
0, 0
0, 0
0, 0
0, 0
0, 0
0, 0
0, 0
0, 0
0, 0
0, 0
0, 0
0, 0
0, 0
0, 0
0, 0
0, 0
0, 0
0, 0
0, 0
0, 0
0, 0
0, 0
0, 0
0, 0
0, 0
0, 0
0, 0
0, 0
0, 0
0, 0
0, 0
0, 0
0, 0
0, 0
0, 0
0, 0
0, 0
0, 0
0, 0
0, 0
0, 0
0, 0
0, 0
0, 0
0, 0
0, 0
0, 0
0, 0
0, 0
0, 0
0, 0
0, 0
0, 0
0, 0
0, 0
0, 0
0, 0
0, 0
0, 0
0, 0
0, 0
0, 0
0, 0
0, 0
0, 0
0, 0
0, 0
0, 0
0, 0
0, 0
0, 0
0, 0
0, 0
0, 0
0, 0
0, 0
0, 0
0, 0
0, 0
0, 0
0, 0
0, 0
0, 0
0, 0
0, 0
0, 0
0, 0
0, 0
0, 0
0, 0
0, 0
0, 0
0, 0
0, 0
0, 0
0, 0
0, 0
0, 0
0, 0
0, 0
0, 0
0, 0
0, 0
0, 0
0, 0
0, 0
0, 0
0, 0
0, 0
0, 0
#ENDOFDATA     end of spectrum data