File: host_upload/06-09-2024/ps_0852/dump3/ps__0852shot_2307.msa
#FORMAT      : EMSA/MAS spectral data file
#VERSION     : TC202v2.0 PIXL
#TITLE       : N/A
#DATE        :       Date in the format DD-MMM-YYYY, for example 07-JUL-2010
#TIME        :             The time of day at which the spectrum was recorded, in 24-hour format
#OWNER       : PIXL Flight Model       (PIXL will use this to indicate which instrument took the data.)
#NPOINTS     : 4096     Number of data points in the spectrum (This can be zero for configuration only files)
#NCOLUMNS    : 2     Number of data columns in the spectrum (This can be zero for configuration only files)
#XUNITS      : eV
#YUNITS      : COUNTS
#DATATYPE    : YY
#XPERCHAN    : 7.862, 7.881   eV per channel (separate by commas if more than one detector)
#OFFSET      : 18.5, -22.4         eV of first channel  (separate by commas if more than one detector
#SIGNALTYPE  : XRF
#YP_TEMP     : 2.364
#LIVETIME    : 8.56776, 8.54869   seconds (separate by commas if more than one detector)
#REALTIME    : 10, 10.0   seconds (separate by commas if more than one detector)
#SPECTRUM    : start of spectrum data
0, 0
0, 0
0, 0
0, 0
0, 0
0, 0
0, 0
0, 0
0, 0
0, 0
0, 0
0, 0
0, 0
0, 0
0, 0
0, 0
0, 0
0, 0
0, 0
0, 0
0, 0
0, 0
0, 0
0, 0
0, 0
0, 0
0, 0
0, 0
0, 0
0, 0
0, 0
0, 0
0, 0
0, 1
0, 1
0, 0
0, 0
2, 0
2, 1
0, 1
1, 2
3, 1
1, 0
0, 0
3, 1
0, 3
1, 2
4, 3
7, 12
17, 10
23, 17
27, 30
43, 51
64, 63
61, 89
72, 105
49, 58
40, 36
21, 22
12, 17
7, 7
8, 7
1, 2
6, 6
8, 3
5, 6
9, 4
11, 10
17, 35
45, 61
102, 104
160, 174
244, 295
333, 409
418, 424
367, 508
366, 437
271, 293
228, 226
124, 126
73, 68
32, 33
15, 19
14, 12
3, 10
5, 2
1, 4
1, 3
1, 3
1, 1
2, 2
2, 1
1, 2
1, 2
0, 2
1, 2
3, 3
4, 2
6, 1
7, 6
7, 7
5, 7
6, 4
2, 2
2, 6
1, 2
4, 7
6, 13
15, 21
24, 22
24, 39
35, 49
45, 46
45, 61
56, 43
52, 57
38, 63
50, 41
32, 37
18, 29
24, 29
23, 30
19, 34
26, 21
22, 21
18, 27
9, 23
8, 21
12, 18
1, 18
4, 6
9, 10
4, 2
5, 10
2, 4
3, 6
3, 3
3, 3
1, 1
1, 2
8, 4
2, 0
3, 2
4, 2
3, 1
2, 3
4, 1
4, 3
12, 5
12, 1
19, 3
23, 8
20, 11
38, 22
47, 30
55, 41
49, 43
56, 42
48, 54
46, 42
27, 35
18, 22
21, 14
13, 9
14, 7
18, 6
20, 5
22, 8
24, 11
24, 2
27, 9
22, 9
21, 10
10, 5
9, 8
12, 5
13, 3
6, 3
12, 5
8, 7
9, 6
6, 4
3, 4
3, 4
5, 2
3, 3
7, 4
6, 4
8, 3
9, 6
8, 5
5, 12
12, 13
11, 9
8, 15
18, 11
13, 18
16, 18
17, 15
17, 14
21, 14
18, 11
31, 7
39, 11
42, 8
35, 9
46, 7
46, 6
34, 4
29, 12
16, 10
20, 13
16, 13
6, 27
8, 28
9, 44
6, 62
5, 57
6, 70
4, 47
9, 67
9, 45
7, 37
9, 28
13, 25
11, 22
19, 13
24, 22
14, 22
15, 24
19, 23
32, 12
20, 22
19, 17
23, 12
12, 13
17, 9
24, 10
18, 10
13, 9
17, 5
9, 13
14, 8
11, 16
13, 17
16, 17
22, 39
33, 37
44, 52
44, 60
55, 70
64, 52
59, 58
39, 43
54, 51
29, 37
27, 21
22, 18
14, 16
20, 19
13, 16
22, 27
42, 42
75, 110
145, 201
238, 399
449, 599
729, 1011
1044, 1455
1455, 1828
1833, 2196
2116, 2557
2243, 2494
2246, 2308
2072, 1912
1569, 1552
1254, 1127
809, 807
549, 430
334, 255
173, 134
98, 71
54, 42
30, 16
26, 12
12, 16
23, 13
23, 19
14, 12
18, 23
22, 34
34, 47
40, 63
71, 97
92, 122
165, 171
184, 228
226, 301
305, 344
327, 386
315, 401
327, 335
269, 270
249, 240
177, 174
136, 119
102, 73
68, 53
29, 36
17, 19
18, 15
15, 9
10, 13
6, 15
6, 17
15, 18
11, 20
14, 16
11, 13
13, 22
5, 14
5, 10
4, 15
0, 6
9, 5
6, 13
8, 12
6, 4
5, 5
9, 6
7, 2
14, 6
11, 3
13, 7
23, 12
10, 6
17, 10
17, 9
10, 14
23, 12
20, 7
10, 6
20, 6
14, 7
10, 9
11, 12
14, 13
8, 4
10, 4
8, 6
10, 10
5, 9
9, 8
5, 4
5, 8
5, 4
4, 7
6, 8
7, 3
5, 5
5, 9
6, 5
3, 3
3, 6
7, 7
2, 7
6, 4
3, 4
1, 7
1, 1
2, 3
2, 4
3, 2
2, 3
3, 3
6, 4
3, 7
1, 3
3, 2
2, 8
7, 0
4, 5
4, 7
6, 2
3, 3
4, 4
1, 8
1, 8
4, 5
7, 4
5, 12
3, 4
1, 2
1, 8
4, 2
0, 6
3, 3
5, 5
3, 4
4, 3
2, 7
8, 4
3, 9
5, 4
6, 3
3, 5
4, 5
5, 1
9, 2
5, 2
8, 3
5, 5
6, 3
3, 7
5, 4
2, 4
3, 2
2, 2
3, 2
4, 5
5, 6
3, 3
4, 5
1, 5
0, 3
5, 2
3, 5
1, 1
2, 5
2, 1
3, 4
2, 1
3, 8
2, 0
4, 0
2, 6
2, 6
4, 5
3, 7
6, 5
6, 4
0, 2
3, 4
3, 3
4, 0
3, 0
2, 5
5, 3
3, 6
1, 4
0, 1
4, 6
1, 5
3, 2
4, 8
2, 2
5, 0
6, 2
2, 3
4, 1
1, 3
1, 3
4, 3
1, 6
3, 2
1, 2
2, 5
2, 2
1, 4
5, 2
2, 2
3, 1
2, 3
3, 3
3, 1
1, 4
4, 4
5, 5
2, 1
2, 5
1, 5
6, 3
1, 10
1, 3
1, 0
2, 3
2, 0
0, 0
0, 5
2, 3
4, 2
1, 0
1, 2
3, 7
3, 1
2, 3
5, 3
1, 3
0, 2
1, 5
0, 4
1, 5
1, 0
3, 4
3, 0
4, 5
1, 4
1, 1
1, 5
4, 1
0, 1
0, 1
0, 3
1, 2
2, 1
2, 0
3, 0
3, 3
3, 0
1, 2
1, 1
0, 1
1, 1
1, 0
0, 2
2, 1
2, 1
1, 0
1, 1
5, 1
3, 2
5, 3
2, 2
3, 4
1, 5
2, 1
0, 3
4, 7
3, 4
1, 4
2, 3
5, 6
3, 5
4, 4
5, 3
5, 3
3, 5
6, 3
2, 1
2, 2
1, 2
1, 2
0, 0
1, 4
1, 1
0, 0
4, 1
0, 0
1, 0
0, 0
0, 1
0, 1
3, 1
1, 1
0, 2
0, 3
0, 1
3, 1
1, 5
3, 3
0, 4
0, 0
2, 4
5, 1
1, 4
2, 1
0, 2
0, 0
2, 3
1, 0
0, 1
1, 1
2, 1
1, 2
1, 0
2, 1
3, 1
1, 0
0, 1
1, 1
2, 0
0, 3
3, 3
1, 0
0, 4
0, 1
1, 1
2, 1
0, 1
0, 0
1, 2
2, 2
0, 0
2, 0
0, 1
0, 1
3, 1
0, 0
0, 0
0, 4
0, 0
0, 1
0, 1
0, 1
1, 0
3, 2
3, 0
1, 2
0, 0
0, 0
2, 1
0, 2
0, 0
2, 1
0, 0
0, 1
0, 0
0, 0
0, 2
1, 0
0, 0
1, 0
0, 0
0, 1
1, 1
0, 1
2, 1
1, 1
0, 0
0, 0
1, 0
0, 0
0, 0
0, 1
2, 1
0, 0
1, 0
0, 1
1, 2
0, 3
0, 1
2, 0
1, 2
3, 0
0, 1
1, 3
0, 0
0, 1
0, 1
2, 2
0, 1
0, 1
0, 1
0, 0
0, 0
0, 0
0, 1
0, 0
3, 0
1, 1
0, 1
1, 0
1, 0
0, 0
0, 0
2, 1
0, 0
0, 0
0, 1
0, 0
0, 0
0, 1
1, 0
2, 0
0, 0
1, 0
0, 1
1, 0
0, 0
0, 1
0, 0
0, 0
0, 0
0, 0
0, 0
1, 0
1, 1
0, 0
1, 1
0, 1
0, 0
0, 0
0, 1
0, 1
1, 2
0, 1
0, 0
2, 0
0, 0
0, 0
0, 0
1, 0
0, 0
0, 0
0, 0
1, 1
0, 1
0, 0
0, 0
1, 0
2, 0
1, 0
0, 0
0, 0
0, 0
1, 0
0, 0
0, 0
1, 0
0, 1
0, 0
1, 0
0, 1
0, 0
0, 1
0, 1
0, 0
0, 0
1, 0
0, 0
2, 0
0, 1
0, 0
1, 1
0, 0
1, 0
2, 0
0, 0
0, 0
0, 0
0, 1
1, 1
2, 0
0, 1
0, 0
1, 1
0, 0
0, 0
0, 0
0, 0
0, 1
0, 0
0, 0
1, 1
0, 0
0, 0
1, 0
0, 0
1, 1
0, 0
0, 0
0, 0
0, 0
1, 1
0, 0
0, 0
0, 0
0, 1
1, 0
0, 1
0, 1
0, 0
0, 2
0, 0
2, 0
0, 0
0, 1
0, 0
0, 0
0, 0
0, 0
1, 0
0, 0
0, 0
0, 0
0, 1
0, 1
0, 0
0, 0
1, 0
1, 1
0, 0
0, 0
1, 0
0, 0
0, 0
1, 0
0, 0
0, 0
0, 0
0, 1
0, 0
0, 0
0, 0
0, 0
0, 0
0, 0
0, 0
0, 0
0, 0
0, 0
0, 0
0, 0
0, 1
0, 0
0, 0
0, 0
0, 0
0, 0
0, 0
0, 0
0, 0
0, 0
0, 0
0, 0
0, 0
0, 0
0, 0
0, 0
0, 0
0, 0
0, 0
0, 1
0, 1
0, 0
0, 0
0, 0
0, 0
0, 0
0, 0
2, 0
0, 1
0, 1
0, 0
0, 0
0, 0
0, 0
0, 1
0, 0
0, 0
0, 0
0, 0
0, 0
0, 0
0, 0
1, 0
0, 1
0, 0
0, 0
0, 0
0, 1
1, 0
0, 0
0, 0
0, 0
0, 0
0, 0
0, 0
0, 0
0, 0
0, 1
0, 0
0, 0
0, 0
0, 0
0, 0
0, 0
0, 0
0, 0
0, 0
0, 0
0, 0
0, 0
0, 0
0, 1
0, 0
0, 0
0, 0
0, 0
1, 0
1, 0
0, 0
0, 0
0, 0
0, 1
1, 0
0, 1
0, 0
0, 0
0, 0
0, 0
0, 0
0, 0
0, 0
0, 0
0, 0
0, 0
0, 0
0, 0
0, 0
0, 0
0, 0
0, 0
0, 0
0, 0
0, 0
0, 0
0, 0
0, 0
0, 0
0, 0
0, 0
0, 0
0, 0
0, 0
0, 0
0, 0
0, 0
0, 0
0, 0
0, 0
0, 0
0, 0
0, 0
0, 0
0, 0
0, 0
0, 0
0, 0
0, 0
0, 0
0, 0
0, 0
0, 0
0, 0
0, 0
0, 0
0, 0
1, 0
0, 0
0, 0
0, 0
0, 1
0, 0
0, 0
0, 0
0, 0
0, 0
0, 0
0, 0
0, 0
0, 0
0, 0
0, 0
0, 0
0, 0
0, 0
0, 0
0, 0
0, 0
0, 0
0, 0
0, 0
0, 0
0, 0
0, 0
0, 0
0, 0
0, 0
0, 0
0, 0
0, 0
0, 0
0, 0
0, 0
0, 0
0, 0
0, 0
0, 0
0, 0
0, 0
0, 0
0, 0
0, 0
0, 0
0, 0
0, 0
0, 0
0, 0
0, 0
0, 0
0, 0
0, 0
0, 0
0, 0
0, 0
0, 0
0, 0
0, 0
0, 0
0, 0
0, 0
0, 0
0, 0
0, 0
0, 0
0, 0
0, 0
0, 0
0, 0
0, 0
0, 0
0, 0
0, 0
0, 0
1, 0
0, 0
0, 0
0, 0
0, 0
0, 0
0, 0
0, 0
0, 0
0, 0
0, 0
0, 0
0, 0
0, 0
0, 0
0, 0
0, 0
0, 0
0, 0
0, 0
0, 0
0, 0
0, 0
0, 0
0, 0
0, 0
0, 0
0, 0
0, 0
0, 0
0, 0
0, 0
0, 0
0, 0
0, 0
0, 0
0, 0
0, 0
0, 0
0, 0
0, 0
0, 0
0, 0
0, 0
0, 0
0, 0
0, 0
0, 0
0, 0
0, 0
0, 0
0, 0
0, 0
0, 0
0, 0
0, 0
0, 0
0, 0
0, 0
0, 0
0, 0
0, 0
0, 0
0, 0
0, 0
0, 0
0, 0
0, 0
0, 0
0, 0
0, 0
0, 0
0, 0
0, 0
0, 0
0, 0
0, 0
0, 0
0, 0
0, 0
0, 0
0, 0
0, 0
0, 0
0, 0
0, 0
0, 0
0, 0
0, 0
0, 0
0, 0
0, 0
0, 0
0, 0
0, 0
0, 0
0, 0
0, 0
0, 0
0, 0
0, 0
0, 0
0, 0
0, 0
0, 0
0, 0
0, 0
0, 0
0, 0
0, 0
0, 0
0, 0
0, 0
0, 0
0, 0
0, 0
0, 0
0, 0
0, 0
0, 0
0, 0
0, 0
0, 0
0, 0
0, 0
0, 0
0, 0
0, 0
0, 0
0, 0
0, 0
0, 0
0, 0
0, 0
0, 0
0, 0
0, 0
0, 0
0, 0
0, 0
0, 0
0, 0
0, 0
0, 0
0, 0
0, 0
0, 0
0, 0
0, 0
0, 0
0, 0
0, 0
0, 0
0, 0
0, 0
0, 0
0, 0
0, 0
0, 0
0, 0
0, 0
0, 0
0, 0
0, 0
0, 0
0, 0
0, 0
0, 0
0, 0
0, 0
0, 0
0, 0
0, 0
0, 0
0, 0
0, 0
0, 0
0, 0
0, 0
0, 0
0, 0
0, 0
0, 0
0, 0
0, 0
0, 0
0, 0
0, 0
0, 0
0, 0
0, 0
0, 0
0, 0
0, 0
0, 0
0, 0
0, 0
0, 0
0, 0
0, 0
0, 0
0, 0
0, 0
0, 0
0, 0
0, 0
0, 0
0, 0
0, 0
0, 0
0, 0
0, 0
0, 0
0, 0
0, 0
0, 0
0, 0
0, 0
0, 0
0, 0
0, 0
0, 0
0, 0
0, 0
0, 0
0, 0
0, 0
0, 0
0, 0
0, 0
0, 0
0, 0
0, 0
0, 0
0, 0
0, 0
0, 0
0, 0
0, 0
0, 0
0, 0
0, 0
0, 0
0, 0
0, 0
0, 0
0, 0
0, 0
0, 0
0, 0
0, 0
0, 0
0, 0
0, 0
0, 0
0, 0
0, 0
0, 0
0, 0
0, 0
0, 0
0, 0
0, 0
0, 0
0, 0
0, 0
0, 0
0, 0
0, 0
0, 0
0, 0
0, 0
0, 0
0, 0
0, 0
0, 0
0, 0
0, 0
0, 0
0, 0
0, 0
0, 0
0, 0
0, 0
0, 0
0, 0
0, 0
0, 0
0, 0
0, 0
0, 0
0, 0
0, 0
0, 0
0, 0
0, 0
0, 0
0, 0
0, 0
0, 0
0, 0
0, 0
0, 0
0, 0
0, 0
0, 0
0, 0
0, 0
0, 0
0, 0
0, 0
0, 0
0, 0
0, 0
0, 0
0, 0
0, 0
0, 0
0, 0
0, 0
0, 0
0, 0
0, 0
0, 0
0, 0
0, 0
0, 0
0, 0
0, 0
0, 0
0, 0
#ENDOFDATA     end of spectrum data