File: host_upload/06-09-2024/ps_0852/dump3/ps__0852shot_2281.msa
#FORMAT      : EMSA/MAS spectral data file
#VERSION     : TC202v2.0 PIXL
#TITLE       : N/A
#DATE        :       Date in the format DD-MMM-YYYY, for example 07-JUL-2010
#TIME        :             The time of day at which the spectrum was recorded, in 24-hour format
#OWNER       : PIXL Flight Model       (PIXL will use this to indicate which instrument took the data.)
#NPOINTS     : 4096     Number of data points in the spectrum (This can be zero for configuration only files)
#NCOLUMNS    : 2     Number of data columns in the spectrum (This can be zero for configuration only files)
#XUNITS      : eV
#YUNITS      : COUNTS
#DATATYPE    : YY
#XPERCHAN    : 7.862, 7.881   eV per channel (separate by commas if more than one detector)
#OFFSET      : 18.5, -22.4         eV of first channel  (separate by commas if more than one detector
#SIGNALTYPE  : XRF
#YP_TEMP     : 2.171
#LIVETIME    : 8.56278, 8.5478   seconds (separate by commas if more than one detector)
#REALTIME    : 10, 10.0   seconds (separate by commas if more than one detector)
#SPECTRUM    : start of spectrum data
0, 0
0, 0
0, 0
0, 0
0, 0
0, 0
0, 0
0, 0
0, 0
0, 0
0, 0
0, 0
0, 0
0, 0
0, 0
0, 0
0, 0
0, 0
0, 0
0, 0
0, 0
0, 0
0, 0
0, 0
0, 0
0, 0
0, 0
0, 0
0, 0
0, 1
0, 0
0, 0
0, 0
0, 0
0, 0
0, 0
0, 0
0, 0
0, 1
0, 3
1, 1
0, 0
0, 1
0, 0
0, 0
1, 1
1, 4
1, 2
4, 14
20, 12
26, 22
41, 47
55, 61
78, 104
79, 86
71, 83
60, 82
37, 49
35, 17
14, 16
10, 7
11, 2
2, 5
5, 3
3, 4
5, 5
9, 10
6, 11
17, 25
53, 60
91, 95
140, 208
238, 266
319, 381
390, 467
413, 452
358, 411
272, 313
236, 225
130, 135
58, 64
29, 39
17, 20
8, 13
1, 4
4, 6
2, 5
1, 3
2, 1
0, 2
0, 0
1, 1
1, 0
0, 2
1, 2
1, 3
1, 3
2, 3
3, 3
1, 2
4, 5
8, 2
3, 1
6, 3
6, 0
3, 3
7, 1
13, 7
11, 7
9, 11
11, 12
17, 23
18, 36
21, 38
21, 38
15, 49
19, 37
23, 38
16, 28
12, 25
24, 14
19, 28
18, 15
7, 13
8, 13
13, 14
7, 9
10, 8
7, 6
9, 2
4, 2
1, 3
2, 4
0, 3
1, 0
0, 2
4, 3
2, 3
0, 4
0, 1
3, 2
1, 2
1, 0
0, 4
2, 1
1, 2
2, 2
0, 2
1, 1
1, 5
3, 0
5, 4
2, 5
3, 5
7, 10
19, 14
13, 16
20, 14
14, 12
12, 17
17, 14
7, 8
5, 5
2, 2
4, 2
2, 1
2, 3
3, 3
1, 5
6, 2
2, 5
6, 7
1, 5
3, 3
3, 2
2, 3
0, 5
4, 6
2, 5
3, 4
3, 1
1, 7
4, 4
6, 3
2, 1
1, 2
3, 8
3, 3
3, 11
6, 3
3, 9
4, 6
7, 11
12, 11
12, 13
10, 9
8, 12
15, 15
11, 12
5, 12
4, 18
10, 9
10, 6
5, 5
8, 8
3, 4
3, 6
2, 4
7, 3
3, 3
6, 2
3, 3
8, 1
5, 6
3, 5
7, 1
5, 6
6, 4
7, 4
3, 4
6, 6
4, 5
3, 4
10, 4
13, 5
11, 10
24, 9
32, 15
31, 13
51, 19
72, 12
100, 12
100, 21
122, 9
125, 10
95, 6
66, 8
59, 10
53, 8
41, 6
25, 11
8, 8
8, 7
16, 13
13, 17
16, 18
34, 21
40, 41
87, 53
75, 53
93, 60
103, 67
76, 58
97, 44
93, 53
76, 29
41, 32
30, 18
18, 16
24, 19
15, 19
21, 20
34, 50
62, 101
119, 201
287, 391
436, 622
693, 986
998, 1386
1397, 1861
1836, 2262
2145, 2535
2241, 2615
2236, 2503
2010, 2012
1597, 1690
1197, 1164
845, 790
522, 526
302, 292
175, 160
101, 84
46, 40
25, 21
23, 16
14, 11
7, 17
15, 16
12, 11
19, 19
21, 26
24, 36
32, 68
73, 71
85, 152
149, 192
167, 242
243, 318
322, 340
344, 369
331, 369
350, 358
281, 286
235, 228
161, 154
135, 104
76, 76
43, 38
31, 21
20, 17
8, 10
8, 9
8, 7
12, 9
4, 10
10, 8
9, 11
11, 16
7, 13
11, 12
8, 11
11, 8
7, 8
5, 4
6, 4
8, 5
1, 10
5, 10
3, 5
3, 10
5, 14
3, 9
2, 12
4, 11
3, 4
11, 10
8, 10
17, 13
14, 5
12, 5
7, 3
10, 7
11, 7
8, 6
9, 4
5, 6
4, 5
4, 7
8, 4
4, 4
2, 4
6, 8
6, 3
7, 6
5, 2
6, 6
3, 2
6, 4
5, 3
10, 4
5, 5
6, 5
8, 2
7, 4
5, 6
7, 1
3, 5
7, 4
2, 5
3, 6
4, 5
3, 2
15, 3
20, 5
21, 1
19, 2
27, 4
21, 5
20, 6
34, 9
22, 9
24, 15
12, 11
14, 7
11, 8
8, 5
4, 8
4, 9
5, 11
1, 8
3, 7
4, 2
1, 10
5, 6
2, 4
4, 3
2, 6
2, 3
6, 4
2, 6
1, 7
3, 3
3, 6
2, 3
2, 6
5, 6
2, 6
1, 3
3, 2
4, 4
4, 3
7, 6
6, 3
3, 3
4, 6
5, 5
3, 6
3, 4
1, 4
3, 6
1, 3
2, 5
2, 0
3, 3
1, 3
2, 2
2, 2
1, 5
2, 5
0, 3
2, 5
2, 4
3, 3
2, 2
2, 0
3, 4
2, 2
3, 2
3, 4
4, 4
2, 5
4, 6
1, 6
3, 3
4, 2
3, 5
1, 3
3, 2
2, 3
3, 4
1, 2
4, 2
0, 2
3, 1
1, 1
5, 2
1, 3
2, 3
0, 0
2, 5
7, 1
6, 3
5, 1
5, 3
4, 4
5, 2
6, 4
4, 2
4, 3
3, 4
9, 4
2, 2
6, 5
2, 4
3, 3
0, 0
3, 2
1, 2
1, 0
3, 3
2, 4
1, 3
1, 2
2, 1
3, 3
1, 3
6, 2
0, 1
2, 2
4, 4
0, 1
4, 2
5, 6
5, 5
0, 0
0, 3
1, 6
1, 6
1, 4
1, 6
2, 6
2, 6
0, 1
1, 4
1, 3
3, 6
1, 5
2, 3
3, 0
1, 4
2, 0
0, 2
2, 0
0, 1
2, 1
1, 2
1, 1
1, 2
2, 2
3, 1
2, 5
0, 0
0, 2
1, 7
4, 4
1, 5
2, 3
0, 4
1, 1
3, 2
0, 2
0, 3
1, 2
2, 0
1, 2
1, 7
1, 3
1, 4
5, 3
4, 3
3, 5
3, 6
5, 3
4, 4
5, 1
3, 1
2, 0
3, 4
1, 0
5, 1
3, 2
4, 1
2, 2
2, 1
1, 0
0, 1
3, 1
1, 2
1, 3
1, 2
1, 0
0, 1
3, 3
2, 2
0, 2
1, 0
2, 1
1, 2
1, 1
3, 1
7, 1
2, 2
2, 2
2, 0
4, 2
0, 0
1, 2
1, 1
4, 0
0, 1
0, 2
3, 1
1, 0
1, 1
0, 1
3, 0
0, 1
1, 0
0, 2
1, 1
0, 1
1, 0
0, 1
0, 1
0, 2
0, 0
1, 1
2, 0
0, 2
0, 1
2, 0
0, 0
0, 1
2, 2
2, 1
0, 0
0, 2
1, 0
3, 0
2, 0
1, 1
1, 0
1, 1
0, 0
1, 0
0, 0
1, 1
0, 1
1, 0
0, 0
2, 1
0, 0
2, 2
0, 1
3, 2
0, 0
2, 0
2, 1
0, 0
0, 0
0, 3
1, 2
2, 0
1, 0
0, 1
1, 1
2, 2
0, 1
1, 0
0, 0
0, 0
0, 2
0, 0
1, 0
1, 0
0, 1
1, 1
2, 1
0, 3
0, 0
0, 1
1, 1
0, 0
0, 0
0, 2
2, 1
0, 0
0, 3
0, 0
1, 0
1, 1
1, 3
0, 0
0, 0
0, 0
1, 0
2, 1
0, 0
0, 1
0, 1
0, 0
0, 2
0, 2
1, 0
2, 1
0, 0
0, 1
0, 0
0, 1
1, 2
0, 0
0, 1
0, 0
0, 0
0, 1
1, 1
0, 1
2, 0
0, 1
0, 0
0, 0
1, 0
0, 0
0, 0
1, 0
1, 0
0, 2
1, 0
0, 0
0, 1
0, 1
0, 1
1, 1
1, 0
0, 0
0, 0
0, 2
0, 2
0, 1
0, 0
1, 1
0, 2
0, 0
0, 0
2, 0
2, 1
1, 0
0, 1
1, 1
1, 1
1, 0
0, 0
0, 0
1, 0
1, 1
1, 0
0, 0
0, 0
3, 0
0, 1
1, 0
0, 1
0, 0
0, 0
0, 1
0, 0
0, 0
0, 0
1, 0
0, 0
0, 0
0, 1
0, 0
0, 0
1, 0
1, 2
0, 1
0, 0
0, 0
0, 0
0, 0
1, 0
0, 0
0, 0
0, 0
0, 0
0, 0
0, 0
0, 0
0, 0
1, 0
0, 1
0, 0
0, 0
0, 0
0, 1
0, 0
0, 1
0, 0
1, 0
0, 0
0, 0
0, 0
0, 1
0, 0
0, 0
0, 0
0, 1
1, 0
0, 0
1, 2
0, 0
0, 2
0, 0
0, 0
1, 0
0, 0
0, 0
0, 0
1, 0
0, 0
0, 0
2, 0
0, 0
1, 1
0, 1
0, 0
0, 0
1, 0
0, 0
0, 0
0, 0
0, 0
0, 0
0, 0
0, 0
0, 0
1, 1
0, 1
0, 1
1, 1
1, 0
0, 0
0, 0
0, 0
0, 0
0, 0
0, 0
0, 0
0, 0
0, 0
1, 0
0, 0
0, 0
0, 0
0, 0
0, 0
0, 0
0, 0
0, 0
0, 0
0, 0
0, 0
0, 0
0, 0
0, 0
1, 0
0, 0
1, 0
0, 0
0, 0
0, 0
1, 0
0, 0
0, 0
0, 1
1, 0
0, 0
0, 1
0, 0
0, 0
0, 0
0, 1
1, 0
0, 0
1, 0
0, 0
0, 0
0, 0
0, 0
0, 0
0, 0
0, 0
0, 0
1, 0
0, 0
0, 0
0, 0
0, 0
0, 0
0, 0
0, 0
0, 1
0, 0
0, 0
0, 0
0, 0
0, 0
1, 0
0, 0
0, 0
0, 0
0, 0
0, 0
0, 0
0, 0
0, 0
0, 0
0, 1
0, 0
0, 0
0, 0
0, 0
0, 0
0, 0
0, 0
0, 0
0, 0
0, 0
0, 0
0, 0
0, 0
0, 0
0, 0
0, 0
0, 0
0, 0
0, 0
0, 0
0, 0
0, 0
0, 0
0, 0
0, 0
0, 0
0, 0
0, 0
1, 0
0, 0
0, 0
0, 0
0, 0
0, 0
0, 0
0, 0
0, 0
0, 0
0, 0
1, 0
0, 0
0, 0
0, 0
0, 0
0, 0
0, 0
0, 0
0, 0
0, 0
0, 0
0, 0
0, 0
0, 0
0, 0
0, 0
0, 0
0, 0
0, 0
0, 0
0, 0
0, 0
0, 0
0, 0
0, 0
0, 0
0, 0
0, 0
0, 0
0, 0
0, 0
0, 0
0, 0
0, 0
0, 0
0, 0
0, 0
0, 0
0, 0
0, 1
0, 0
0, 0
0, 0
0, 0
0, 0
0, 0
0, 0
0, 0
0, 0
0, 0
0, 0
0, 0
0, 0
1, 0
0, 0
0, 0
0, 0
0, 0
0, 0
0, 0
0, 0
0, 0
0, 0
0, 0
0, 0
0, 0
0, 0
0, 0
0, 0
0, 0
0, 0
0, 0
0, 0
0, 0
0, 0
0, 1
0, 0
0, 0
0, 0
0, 0
0, 0
0, 0
0, 0
0, 0
0, 0
0, 0
0, 0
0, 0
0, 0
0, 0
0, 0
0, 0
0, 0
0, 0
0, 0
0, 0
0, 0
0, 0
0, 0
0, 0
0, 0
0, 0
0, 0
0, 0
0, 0
0, 0
0, 0
0, 0
0, 0
0, 1
0, 0
0, 0
0, 0
0, 0
0, 0
0, 0
0, 0
0, 0
0, 0
0, 0
0, 0
0, 0
0, 0
0, 0
0, 0
0, 0
0, 0
0, 0
0, 0
0, 0
0, 0
0, 0
0, 0
0, 0
0, 0
0, 0
0, 0
0, 0
0, 0
0, 0
0, 0
0, 0
0, 0
0, 0
0, 0
0, 0
0, 0
0, 0
0, 0
0, 0
0, 0
0, 0
0, 0
0, 0
0, 0
0, 0
0, 0
0, 0
0, 0
0, 0
0, 0
0, 0
0, 0
0, 0
0, 0
0, 0
0, 0
0, 0
0, 0
0, 0
0, 0
0, 0
0, 0
0, 0
0, 0
0, 0
0, 0
0, 0
0, 0
0, 0
0, 0
0, 0
0, 0
0, 0
0, 0
0, 0
0, 0
0, 0
0, 0
0, 0
0, 0
0, 0
0, 0
0, 0
0, 0
0, 0
0, 0
0, 0
0, 0
0, 0
0, 0
0, 0
0, 0
0, 0
0, 0
0, 0
0, 0
0, 0
0, 0
0, 0
0, 0
0, 0
0, 0
0, 0
0, 0
0, 0
0, 0
0, 0
0, 0
0, 0
0, 0
0, 0
0, 0
0, 0
0, 0
0, 0
0, 0
0, 0
0, 0
0, 0
0, 0
0, 0
0, 0
0, 0
0, 0
0, 0
0, 0
0, 0
0, 0
0, 0
0, 0
0, 0
0, 0
0, 0
0, 0
0, 0
0, 0
0, 0
0, 0
0, 0
0, 0
0, 0
0, 0
0, 0
0, 0
0, 0
0, 0
0, 0
0, 0
0, 0
0, 0
0, 0
0, 0
0, 0
0, 0
0, 0
0, 0
0, 0
0, 0
0, 0
0, 0
0, 0
0, 0
0, 0
0, 0
0, 0
0, 0
0, 0
0, 0
0, 0
0, 0
0, 0
0, 0
0, 0
0, 0
0, 0
0, 0
0, 0
0, 0
0, 0
0, 0
0, 0
0, 0
0, 0
0, 0
0, 0
0, 0
0, 0
0, 0
0, 0
0, 0
0, 0
0, 0
0, 0
0, 0
0, 0
0, 0
0, 0
0, 0
0, 0
0, 0
0, 0
0, 0
0, 0
0, 0
0, 0
0, 0
0, 0
0, 0
0, 0
0, 0
0, 0
0, 0
0, 0
0, 0
0, 0
0, 0
0, 0
0, 0
0, 0
0, 0
0, 0
0, 0
0, 0
0, 0
0, 0
0, 0
0, 0
0, 0
0, 0
0, 0
0, 0
0, 0
0, 0
0, 0
0, 0
0, 0
0, 0
0, 0
0, 0
0, 0
0, 0
0, 0
0, 0
0, 0
0, 0
0, 0
0, 0
0, 0
0, 0
0, 0
0, 0
0, 0
0, 0
0, 0
0, 0
0, 0
0, 0
0, 0
0, 0
0, 0
0, 0
0, 0
0, 0
0, 0
0, 0
0, 0
0, 0
0, 0
0, 0
0, 0
0, 0
0, 0
0, 0
0, 0
0, 0
0, 0
0, 0
0, 0
0, 0
0, 0
0, 0
0, 0
0, 0
0, 0
0, 0
0, 0
0, 0
0, 0
0, 0
0, 0
0, 0
0, 0
0, 0
0, 0
0, 0
0, 0
0, 0
0, 0
0, 0
0, 0
0, 0
0, 0
0, 0
0, 0
0, 0
0, 0
0, 0
0, 0
0, 0
0, 0
0, 0
0, 0
0, 0
0, 0
0, 0
0, 0
0, 0
0, 0
0, 0
0, 0
0, 0
0, 0
0, 0
0, 0
0, 0
0, 0
0, 0
#ENDOFDATA     end of spectrum data