File: host_upload/06-09-2024/ps_0852/dump3/ps__0852shot_2004.msa
#FORMAT      : EMSA/MAS spectral data file
#VERSION     : TC202v2.0 PIXL
#TITLE       : N/A
#DATE        :       Date in the format DD-MMM-YYYY, for example 07-JUL-2010
#TIME        :             The time of day at which the spectrum was recorded, in 24-hour format
#OWNER       : PIXL Flight Model       (PIXL will use this to indicate which instrument took the data.)
#NPOINTS     : 4096     Number of data points in the spectrum (This can be zero for configuration only files)
#NCOLUMNS    : 2     Number of data columns in the spectrum (This can be zero for configuration only files)
#XUNITS      : eV
#YUNITS      : COUNTS
#DATATYPE    : YY
#XPERCHAN    : 7.862, 7.881   eV per channel (separate by commas if more than one detector)
#OFFSET      : 18.5, -22.4         eV of first channel  (separate by commas if more than one detector
#SIGNALTYPE  : XRF
#YP_TEMP     : 2.3
#LIVETIME    : 8.53689, 8.5309   seconds (separate by commas if more than one detector)
#REALTIME    : 10, 10.0   seconds (separate by commas if more than one detector)
#SPECTRUM    : start of spectrum data
0, 0
0, 0
0, 0
0, 0
0, 0
0, 0
0, 0
0, 0
0, 0
0, 0
0, 0
0, 0
0, 0
0, 0
0, 0
0, 0
0, 0
0, 0
0, 0
0, 0
0, 0
0, 0
0, 0
0, 0
0, 0
0, 0
0, 0
0, 0
0, 0
0, 0
0, 0
0, 0
1, 1
0, 0
0, 0
1, 1
0, 0
0, 0
1, 0
0, 0
0, 0
3, 2
0, 1
0, 0
2, 2
3, 2
0, 2
5, 2
6, 6
9, 8
11, 16
47, 30
52, 50
59, 72
63, 75
69, 57
64, 54
39, 35
19, 25
15, 14
10, 8
3, 2
5, 3
3, 1
1, 1
4, 3
6, 6
12, 11
19, 26
41, 43
93, 102
169, 176
270, 263
382, 349
388, 407
433, 391
395, 384
279, 290
218, 185
102, 104
74, 71
39, 29
24, 22
11, 17
8, 8
3, 6
0, 4
0, 1
0, 0
0, 0
2, 2
0, 3
4, 5
4, 1
4, 10
8, 6
9, 15
9, 16
14, 9
25, 6
14, 13
13, 17
12, 7
3, 8
6, 6
9, 5
7, 8
7, 5
11, 18
18, 22
15, 28
37, 40
36, 46
49, 55
38, 51
57, 45
43, 65
43, 49
33, 30
24, 27
27, 23
20, 31
24, 26
21, 17
17, 12
13, 12
9, 18
5, 11
8, 3
4, 9
4, 2
4, 6
0, 4
4, 3
3, 3
2, 0
3, 2
0, 3
0, 3
5, 2
1, 4
2, 4
2, 3
3, 3
5, 2
1, 4
1, 2
2, 4
2, 2
3, 2
7, 8
5, 15
13, 17
15, 36
36, 51
47, 57
58, 66
60, 89
54, 61
54, 65
42, 50
35, 34
24, 25
14, 14
7, 8
12, 10
11, 12
23, 7
22, 10
26, 19
24, 13
26, 11
29, 18
15, 10
12, 8
8, 9
8, 15
8, 9
2, 11
5, 17
2, 10
4, 9
5, 11
1, 9
4, 11
3, 7
2, 7
3, 5
8, 7
13, 7
12, 10
10, 11
13, 14
14, 14
9, 17
12, 16
9, 15
7, 9
11, 17
22, 16
12, 11
10, 17
14, 23
6, 15
8, 21
9, 12
7, 16
7, 17
14, 14
15, 14
16, 11
16, 12
14, 7
23, 6
16, 15
13, 8
19, 16
11, 6
10, 5
12, 7
5, 7
11, 4
9, 12
5, 6
8, 12
10, 11
17, 17
11, 20
15, 16
13, 29
27, 23
27, 16
23, 23
19, 14
16, 12
16, 16
11, 9
5, 9
5, 9
8, 7
12, 13
2, 9
13, 15
10, 18
9, 26
21, 16
28, 45
34, 38
47, 66
50, 67
57, 53
78, 82
52, 76
47, 57
41, 41
25, 28
32, 29
29, 12
24, 17
12, 16
23, 15
26, 33
48, 54
73, 97
142, 187
262, 360
438, 599
712, 897
989, 1241
1427, 1634
1818, 1923
2047, 2217
2156, 2327
2142, 2144
1947, 1873
1547, 1449
1166, 1043
866, 747
553, 456
354, 262
193, 160
122, 80
53, 32
30, 32
16, 28
16, 15
15, 11
22, 15
20, 17
14, 18
20, 31
32, 29
42, 57
72, 77
107, 115
138, 181
175, 191
211, 264
268, 303
324, 337
309, 337
308, 342
287, 228
223, 210
153, 132
120, 105
82, 64
54, 41
33, 32
24, 13
12, 11
5, 10
9, 9
13, 6
14, 10
14, 15
15, 10
19, 7
20, 13
22, 6
25, 15
29, 6
23, 3
21, 5
22, 7
21, 3
15, 8
12, 4
4, 7
6, 4
6, 0
3, 5
3, 4
3, 4
5, 4
4, 3
5, 3
6, 2
5, 9
5, 3
4, 4
5, 7
12, 6
8, 8
8, 10
4, 8
8, 4
10, 10
6, 2
8, 7
4, 7
4, 6
6, 3
6, 3
5, 8
7, 4
8, 2
2, 4
6, 3
8, 2
9, 5
8, 3
7, 4
14, 4
5, 4
12, 2
7, 1
4, 4
7, 0
4, 3
3, 4
4, 4
4, 1
6, 1
4, 4
6, 4
3, 6
0, 4
5, 2
4, 2
2, 3
5, 4
7, 2
3, 4
6, 5
3, 2
2, 4
7, 5
5, 3
7, 2
6, 6
6, 3
3, 2
6, 2
5, 5
4, 0
3, 0
6, 3
3, 5
3, 3
1, 2
2, 5
3, 1
2, 5
4, 5
4, 7
2, 5
1, 5
7, 6
2, 5
5, 8
3, 10
4, 6
6, 7
3, 6
5, 8
4, 2
2, 7
6, 2
3, 2
2, 5
2, 6
2, 7
6, 1
1, 3
0, 3
0, 6
5, 5
6, 1
2, 2
3, 5
1, 5
3, 5
5, 7
2, 7
4, 4
4, 6
6, 9
4, 7
2, 6
3, 6
2, 3
4, 6
3, 3
5, 0
2, 2
3, 3
2, 1
3, 2
5, 5
3, 3
1, 1
2, 3
2, 1
3, 2
5, 0
0, 3
3, 0
1, 2
3, 2
3, 3
3, 4
3, 4
2, 3
3, 1
2, 4
6, 3
5, 2
4, 4
1, 2
1, 1
3, 2
2, 1
3, 2
3, 1
2, 1
3, 2
1, 3
2, 1
3, 2
1, 2
2, 1
0, 2
5, 2
1, 0
3, 3
3, 3
0, 1
1, 1
1, 0
1, 1
3, 4
4, 1
0, 1
2, 5
2, 0
0, 3
1, 0
2, 3
4, 3
3, 2
0, 3
1, 1
1, 1
2, 0
2, 2
0, 0
2, 0
1, 0
1, 2
2, 1
2, 4
1, 1
1, 1
4, 0
1, 6
2, 4
2, 1
3, 0
2, 1
0, 2
1, 2
1, 1
0, 3
2, 4
1, 1
6, 2
4, 3
1, 3
5, 2
2, 4
3, 4
1, 1
0, 2
4, 2
3, 3
2, 2
6, 2
2, 3
3, 4
5, 8
3, 7
2, 3
3, 4
6, 4
7, 2
2, 1
1, 3
2, 6
3, 1
1, 3
1, 2
0, 1
1, 2
2, 1
0, 4
1, 3
1, 2
3, 3
2, 3
0, 0
2, 1
4, 1
3, 1
1, 1
1, 2
1, 2
1, 1
2, 0
2, 0
4, 2
0, 4
1, 1
1, 0
3, 1
1, 0
1, 3
3, 2
1, 2
4, 2
1, 2
2, 3
0, 5
0, 0
3, 2
0, 1
1, 0
1, 1
0, 1
0, 1
0, 2
2, 1
2, 2
3, 1
3, 2
0, 1
1, 1
3, 3
1, 2
3, 2
0, 0
1, 1
2, 0
0, 1
0, 0
0, 0
0, 0
0, 3
0, 0
3, 1
0, 1
0, 3
2, 0
0, 1
0, 0
2, 0
0, 1
1, 1
0, 0
2, 0
0, 2
0, 0
1, 0
1, 0
1, 1
2, 0
0, 0
1, 0
0, 1
1, 1
1, 2
0, 3
1, 1
0, 2
0, 0
1, 2
1, 0
0, 1
1, 1
0, 0
0, 1
3, 0
0, 0
2, 1
1, 2
1, 1
2, 1
1, 0
1, 1
2, 0
0, 0
0, 0
0, 0
0, 0
0, 0
0, 0
2, 1
1, 0
1, 0
0, 0
0, 1
0, 1
2, 0
1, 0
1, 1
0, 0
1, 2
0, 0
0, 0
0, 1
1, 1
0, 0
0, 0
0, 0
1, 2
0, 0
0, 0
1, 0
0, 0
1, 0
0, 0
0, 0
0, 1
0, 0
0, 0
0, 0
0, 0
1, 1
0, 1
1, 0
1, 1
0, 1
1, 0
1, 0
0, 0
0, 0
0, 0
0, 0
1, 0
0, 0
1, 0
1, 0
0, 0
0, 0
0, 0
2, 1
0, 0
0, 1
1, 0
0, 0
0, 0
0, 0
0, 2
0, 0
0, 0
0, 0
0, 0
0, 0
0, 0
1, 0
0, 0
2, 0
0, 0
0, 0
1, 0
0, 0
0, 0
0, 0
0, 0
0, 0
0, 0
1, 0
0, 1
0, 0
0, 1
0, 0
0, 0
2, 2
0, 0
0, 0
0, 0
0, 0
0, 0
0, 0
0, 0
0, 0
0, 1
2, 0
0, 0
1, 1
0, 1
1, 0
0, 0
1, 1
0, 0
0, 0
0, 0
0, 0
0, 0
0, 0
0, 0
1, 1
0, 1
0, 0
0, 2
0, 0
2, 0
0, 0
1, 0
0, 1
0, 0
0, 0
1, 0
1, 0
0, 0
0, 0
0, 1
0, 0
0, 0
1, 1
0, 0
0, 1
0, 0
0, 0
0, 0
0, 0
0, 2
1, 0
0, 0
0, 0
1, 1
0, 0
0, 0
1, 0
0, 0
0, 0
0, 2
0, 1
2, 0
0, 1
0, 1
0, 0
1, 0
1, 0
1, 0
0, 0
0, 0
0, 0
0, 0
0, 0
0, 0
0, 0
0, 2
0, 0
0, 0
0, 0
0, 0
1, 0
0, 1
0, 0
0, 0
0, 0
0, 0
0, 0
0, 0
0, 0
0, 0
0, 0
0, 0
0, 0
0, 0
0, 0
1, 1
1, 0
0, 0
0, 0
0, 1
0, 1
2, 1
0, 0
0, 0
0, 0
0, 0
0, 0
0, 0
0, 0
0, 0
0, 0
1, 0
0, 0
0, 0
1, 0
0, 0
0, 0
0, 0
0, 1
1, 0
1, 0
0, 0
0, 0
0, 0
0, 0
0, 0
0, 0
0, 0
1, 0
0, 0
0, 1
1, 0
1, 0
0, 0
0, 0
0, 1
0, 0
0, 0
0, 0
0, 0
1, 0
0, 0
0, 0
0, 0
0, 0
0, 0
0, 0
0, 1
0, 0
0, 1
0, 0
0, 0
0, 0
0, 0
0, 0
0, 0
0, 0
0, 0
2, 0
0, 0
0, 0
0, 0
0, 0
0, 1
0, 0
0, 0
0, 0
0, 0
0, 0
0, 0
0, 0
0, 0
1, 0
0, 0
0, 0
0, 0
0, 0
0, 0
0, 1
0, 0
0, 0
0, 0
0, 0
0, 0
0, 0
0, 0
0, 0
0, 0
0, 1
0, 0
0, 0
0, 0
0, 0
0, 0
0, 0
0, 1
0, 0
0, 0
0, 0
0, 0
0, 0
0, 0
0, 0
0, 0
0, 0
0, 0
0, 0
0, 0
0, 0
0, 0
0, 0
0, 0
0, 0
0, 0
0, 0
0, 0
0, 0
0, 0
0, 0
0, 0
1, 0
0, 0
1, 0
0, 0
0, 0
0, 0
0, 0
0, 0
0, 0
0, 0
0, 0
0, 0
0, 0
0, 0
0, 0
0, 0
0, 0
0, 0
0, 0
0, 0
0, 0
0, 0
0, 0
0, 0
0, 0
0, 0
0, 0
0, 0
0, 0
0, 0
0, 0
0, 0
0, 0
0, 0
0, 0
0, 0
0, 0
0, 0
0, 0
0, 0
0, 0
0, 0
0, 0
0, 0
0, 0
0, 0
0, 0
0, 0
0, 0
0, 0
1, 0
0, 0
0, 0
0, 0
0, 0
0, 0
0, 0
0, 0
0, 0
0, 0
0, 0
0, 0
0, 0
0, 0
0, 0
0, 0
0, 0
0, 0
0, 0
0, 0
0, 0
0, 0
0, 0
0, 0
0, 0
0, 0
0, 0
0, 0
0, 0
0, 0
0, 0
0, 0
0, 0
0, 0
0, 0
0, 1
0, 0
0, 0
0, 0
0, 0
0, 0
0, 0
0, 0
0, 0
0, 0
0, 0
0, 0
0, 0
0, 0
0, 0
0, 0
0, 0
0, 0
0, 0
0, 0
0, 0
0, 0
0, 0
0, 0
0, 0
0, 0
0, 0
0, 0
0, 0
0, 0
0, 0
0, 0
0, 0
0, 0
0, 0
0, 0
0, 0
0, 0
0, 0
0, 0
0, 0
0, 0
0, 0
0, 0
0, 0
0, 0
0, 0
0, 0
0, 0
0, 0
0, 0
0, 0
0, 0
0, 0
0, 0
0, 0
0, 0
0, 0
0, 0
0, 0
0, 0
0, 0
0, 0
0, 0
0, 0
0, 0
0, 0
0, 0
0, 0
0, 0
0, 0
0, 0
0, 0
0, 0
0, 0
0, 0
0, 0
0, 0
0, 0
0, 0
0, 0
0, 0
0, 0
0, 0
0, 0
0, 0
0, 0
0, 0
0, 0
0, 0
0, 0
0, 0
0, 0
0, 0
0, 0
0, 0
0, 0
0, 0
0, 0
0, 0
0, 0
0, 0
0, 0
0, 0
0, 0
0, 0
0, 0
0, 0
0, 0
0, 0
0, 0
0, 0
0, 0
0, 0
0, 0
0, 0
0, 0
0, 0
0, 0
0, 0
0, 0
0, 0
0, 0
0, 0
0, 0
0, 0
0, 0
0, 0
0, 0
0, 0
0, 0
0, 0
0, 0
0, 0
0, 0
0, 0
0, 0
0, 0
0, 0
0, 0
0, 0
0, 0
0, 0
0, 0
0, 0
0, 0
0, 0
0, 0
0, 0
0, 0
0, 0
0, 0
0, 0
0, 0
0, 0
1, 0
0, 0
0, 0
0, 0
0, 0
0, 0
0, 0
0, 0
0, 0
0, 0
0, 0
0, 0
0, 0
0, 0
0, 0
0, 0
0, 0
0, 0
0, 0
0, 0
0, 0
0, 0
0, 0
0, 0
0, 0
0, 0
0, 0
0, 0
0, 0
0, 0
0, 0
0, 0
0, 0
0, 0
0, 0
0, 0
0, 0
0, 0
0, 0
0, 0
0, 0
0, 0
0, 0
0, 0
0, 0
0, 0
0, 0
0, 0
0, 0
0, 0
0, 0
0, 0
0, 0
0, 0
0, 0
0, 0
0, 0
0, 0
0, 0
0, 0
0, 0
0, 0
0, 0
0, 0
0, 0
0, 0
0, 0
0, 0
0, 0
0, 0
0, 0
0, 0
0, 0
0, 0
0, 0
0, 0
0, 0
0, 0
0, 0
0, 0
0, 0
0, 0
0, 0
0, 0
0, 0
0, 0
0, 0
0, 0
0, 0
0, 0
0, 0
0, 0
0, 0
0, 0
0, 0
0, 0
0, 0
0, 0
0, 0
0, 0
0, 0
0, 0
0, 0
0, 0
0, 0
0, 0
0, 0
0, 0
0, 0
0, 0
0, 0
0, 0
0, 0
0, 0
0, 0
0, 0
0, 0
0, 0
0, 0
0, 0
0, 0
0, 0
0, 0
0, 0
0, 0
0, 0
0, 0
0, 0
0, 0
0, 0
0, 0
0, 0
0, 0
0, 0
0, 0
0, 0
0, 0
0, 0
0, 0
0, 0
0, 0
0, 0
0, 0
0, 0
0, 0
0, 0
0, 0
0, 0
0, 0
0, 0
0, 0
0, 0
0, 0
0, 0
0, 0
0, 0
0, 0
0, 0
0, 0
0, 0
0, 0
0, 0
0, 0
0, 0
0, 0
0, 0
0, 0
0, 0
0, 0
#ENDOFDATA     end of spectrum data