File: host_upload/06-09-2024/ps_0852/dump3/ps__0852shot_2434.msa
#FORMAT      : EMSA/MAS spectral data file
#VERSION     : TC202v2.0 PIXL
#TITLE       : N/A
#DATE        :       Date in the format DD-MMM-YYYY, for example 07-JUL-2010
#TIME        :             The time of day at which the spectrum was recorded, in 24-hour format
#OWNER       : PIXL Flight Model       (PIXL will use this to indicate which instrument took the data.)
#NPOINTS     : 4096     Number of data points in the spectrum (This can be zero for configuration only files)
#NCOLUMNS    : 2     Number of data columns in the spectrum (This can be zero for configuration only files)
#XUNITS      : eV
#YUNITS      : COUNTS
#DATATYPE    : YY
#XPERCHAN    : 7.862, 7.881   eV per channel (separate by commas if more than one detector)
#OFFSET      : 18.5, -22.4         eV of first channel  (separate by commas if more than one detector
#SIGNALTYPE  : XRF
#YP_TEMP     : 2.364
#LIVETIME    : 8.56158, 8.55658   seconds (separate by commas if more than one detector)
#REALTIME    : 10, 10.0   seconds (separate by commas if more than one detector)
#SPECTRUM    : start of spectrum data
0, 0
0, 0
0, 0
0, 0
0, 0
0, 0
0, 0
0, 0
0, 0
0, 0
0, 0
0, 0
0, 0
0, 0
0, 0
0, 0
0, 0
0, 0
0, 0
0, 0
0, 0
0, 0
0, 0
0, 0
0, 0
0, 0
0, 0
0, 0
0, 0
0, 0
0, 0
0, 0
0, 0
0, 0
0, 0
0, 0
0, 0
0, 0
0, 0
0, 2
0, 0
0, 0
1, 0
1, 0
1, 0
0, 3
1, 3
2, 6
11, 5
7, 13
27, 18
38, 45
53, 73
70, 75
89, 78
91, 79
73, 45
49, 52
22, 27
20, 8
6, 10
8, 7
5, 0
5, 1
3, 2
0, 9
6, 6
6, 8
26, 15
43, 39
100, 95
172, 181
261, 235
372, 366
442, 433
447, 437
391, 380
261, 284
219, 206
132, 119
55, 43
38, 31
15, 19
15, 12
7, 4
1, 5
1, 4
2, 1
1, 2
2, 2
1, 1
0, 0
2, 3
2, 2
0, 2
2, 3
3, 5
4, 4
9, 5
7, 8
3, 7
6, 3
1, 3
1, 5
2, 1
1, 2
5, 0
5, 5
3, 9
12, 10
7, 5
23, 17
17, 23
24, 34
42, 32
19, 36
33, 43
19, 34
23, 18
17, 20
24, 11
15, 16
14, 19
10, 6
11, 17
8, 16
10, 10
10, 15
12, 4
8, 5
2, 2
9, 8
3, 3
3, 0
2, 0
2, 2
3, 3
1, 2
1, 0
4, 1
0, 2
2, 0
0, 0
1, 1
0, 0
4, 2
2, 3
2, 2
2, 1
5, 4
4, 3
2, 6
10, 11
15, 22
39, 25
40, 35
38, 43
36, 34
42, 35
36, 36
36, 29
26, 27
10, 13
8, 3
4, 6
4, 5
7, 4
1, 6
7, 7
9, 5
10, 8
4, 12
7, 16
9, 11
4, 12
4, 12
9, 16
2, 19
3, 12
10, 14
1, 11
4, 3
5, 7
5, 6
0, 8
3, 1
3, 3
3, 6
3, 9
7, 4
8, 10
8, 14
6, 14
11, 19
12, 18
25, 39
30, 31
23, 39
33, 44
37, 48
49, 52
41, 43
71, 25
63, 22
56, 17
73, 15
55, 10
46, 6
32, 4
20, 3
19, 7
12, 2
9, 3
3, 6
8, 5
2, 6
5, 4
8, 8
6, 7
5, 2
14, 4
5, 6
3, 4
7, 4
11, 7
6, 8
10, 9
7, 9
11, 11
17, 13
9, 14
13, 16
13, 11
12, 12
11, 8
7, 9
6, 7
7, 8
12, 1
5, 5
9, 14
19, 2
15, 11
14, 8
21, 24
26, 23
31, 26
56, 35
62, 48
92, 62
71, 70
78, 53
70, 68
73, 47
56, 47
30, 32
16, 21
10, 22
13, 15
8, 16
23, 22
31, 28
45, 51
76, 95
150, 211
260, 337
433, 551
762, 940
1176, 1285
1552, 1828
1923, 2098
2195, 2332
2425, 2522
2328, 2284
2048, 1941
1697, 1575
1271, 1099
893, 719
539, 434
358, 258
204, 151
115, 81
114, 44
88, 22
107, 19
100, 22
119, 12
99, 19
114, 16
93, 13
71, 19
67, 37
90, 49
85, 78
103, 145
147, 181
195, 238
253, 316
303, 332
335, 357
366, 360
348, 342
318, 281
230, 220
171, 154
124, 95
97, 63
53, 26
25, 30
14, 11
8, 14
11, 8
7, 16
5, 10
6, 14
7, 12
9, 18
4, 11
14, 14
14, 13
10, 10
12, 9
4, 6
7, 6
3, 2
4, 5
4, 4
4, 5
2, 8
4, 4
1, 5
0, 4
3, 5
3, 5
2, 5
4, 8
1, 5
9, 3
5, 3
7, 4
2, 3
3, 8
4, 2
4, 3
3, 4
4, 5
6, 2
5, 1
6, 4
2, 10
5, 6
6, 2
7, 2
7, 5
8, 3
8, 9
5, 3
9, 6
5, 3
4, 5
5, 4
5, 4
7, 3
5, 1
6, 5
7, 1
1, 1
7, 5
1, 3
2, 1
3, 3
4, 2
8, 6
4, 5
8, 8
5, 6
4, 2
1, 6
1, 3
3, 6
5, 5
3, 7
2, 4
2, 3
2, 3
1, 6
1, 4
4, 7
3, 7
2, 15
5, 12
2, 14
5, 13
1, 17
5, 27
4, 29
6, 19
10, 26
3, 30
5, 23
9, 24
4, 9
2, 4
5, 11
6, 9
5, 3
7, 6
4, 2
3, 0
4, 2
5, 3
8, 4
9, 3
5, 8
8, 5
12, 2
10, 6
14, 2
18, 3
12, 3
19, 2
22, 4
14, 4
14, 3
7, 2
5, 2
1, 5
5, 3
5, 1
4, 1
4, 3
3, 2
2, 2
4, 2
4, 1
2, 2
3, 4
3, 0
0, 2
3, 2
5, 3
3, 3
2, 2
2, 0
3, 6
0, 2
4, 2
3, 2
3, 4
0, 6
1, 2
2, 5
1, 4
2, 9
1, 4
6, 4
0, 5
3, 7
2, 1
2, 3
1, 2
2, 1
3, 3
1, 0
2, 2
3, 1
1, 4
6, 4
0, 1
2, 2
2, 4
4, 1
1, 3
2, 2
1, 2
1, 4
2, 4
3, 6
4, 0
1, 3
1, 4
2, 3
2, 0
1, 3
4, 2
3, 6
1, 3
1, 3
3, 5
0, 7
2, 0
1, 2
0, 4
1, 2
1, 3
4, 1
1, 4
3, 3
1, 4
3, 4
2, 3
1, 3
0, 3
0, 3
1, 1
4, 1
1, 2
1, 2
1, 1
3, 0
1, 3
0, 4
1, 3
1, 1
1, 1
3, 5
5, 1
0, 1
1, 4
3, 0
1, 2
2, 1
0, 0
1, 2
0, 1
4, 0
2, 1
5, 3
1, 2
1, 1
5, 2
2, 1
2, 0
3, 0
1, 2
2, 2
2, 2
2, 5
3, 5
2, 4
3, 3
6, 4
3, 6
7, 3
3, 3
4, 3
3, 5
2, 0
5, 0
0, 0
1, 4
1, 0
2, 5
3, 0
3, 0
3, 1
2, 2
0, 1
0, 3
2, 2
4, 0
1, 2
1, 0
1, 0
0, 2
3, 2
1, 0
0, 3
3, 2
3, 3
2, 1
0, 1
2, 2
5, 3
1, 1
3, 0
2, 2
0, 1
0, 0
2, 3
0, 0
0, 0
3, 4
2, 4
3, 1
1, 1
0, 0
2, 0
1, 0
1, 1
1, 0
0, 0
0, 1
2, 2
0, 2
1, 2
2, 3
1, 1
3, 4
1, 0
0, 4
2, 1
0, 2
0, 2
1, 1
0, 0
1, 0
1, 1
2, 1
1, 2
1, 0
2, 1
0, 0
1, 0
0, 0
2, 1
1, 1
0, 0
1, 0
2, 0
1, 1
0, 0
0, 0
1, 1
0, 1
0, 2
3, 1
1, 1
0, 1
2, 0
0, 0
0, 2
0, 1
0, 0
0, 1
1, 0
0, 0
0, 1
0, 0
1, 0
0, 1
1, 1
1, 1
0, 0
0, 0
0, 0
0, 0
0, 0
1, 1
0, 2
0, 1
0, 1
1, 0
0, 1
1, 0
0, 2
1, 1
0, 0
1, 1
0, 0
1, 0
0, 1
2, 2
0, 0
0, 0
0, 0
0, 1
2, 0
0, 1
0, 0
0, 0
0, 1
0, 0
1, 0
0, 1
2, 0
2, 1
1, 1
1, 1
0, 1
0, 0
0, 0
1, 0
2, 0
0, 1
0, 0
1, 1
0, 0
0, 1
1, 1
1, 0
0, 0
1, 0
1, 0
0, 1
1, 1
0, 0
2, 0
0, 0
0, 0
0, 1
0, 0
0, 0
0, 0
0, 0
0, 0
0, 0
0, 2
1, 1
0, 0
1, 0
0, 0
3, 0
0, 0
0, 0
1, 1
0, 0
0, 0
1, 0
1, 0
0, 0
0, 0
1, 0
0, 0
0, 0
0, 0
0, 1
0, 0
0, 1
0, 1
1, 0
0, 1
0, 1
0, 1
0, 0
0, 0
1, 0
0, 1
1, 0
0, 0
1, 0
0, 0
0, 1
0, 0
0, 1
0, 0
1, 0
2, 0
0, 0
0, 0
0, 0
1, 0
0, 1
0, 0
0, 0
0, 1
0, 0
0, 0
0, 0
0, 0
0, 0
0, 0
0, 0
0, 0
0, 0
0, 0
1, 0
0, 1
0, 0
0, 1
1, 0
0, 0
1, 0
0, 0
1, 0
0, 0
1, 0
0, 1
0, 1
0, 1
0, 1
0, 0
1, 1
0, 0
1, 1
0, 0
0, 0
1, 0
1, 0
0, 1
1, 0
0, 0
2, 0
0, 1
0, 0
0, 1
0, 0
0, 0
0, 0
0, 1
0, 0
0, 2
0, 0
0, 1
1, 0
0, 0
1, 0
0, 1
0, 1
1, 0
0, 0
0, 0
0, 0
0, 0
1, 0
0, 0
0, 1
0, 0
0, 0
0, 0
0, 0
0, 0
0, 0
0, 0
0, 0
0, 0
0, 0
0, 0
0, 0
0, 0
0, 0
1, 0
1, 0
0, 0
0, 1
0, 0
0, 0
0, 0
0, 0
0, 0
0, 0
0, 0
0, 0
0, 0
0, 0
0, 0
0, 1
0, 0
0, 0
0, 1
0, 0
0, 0
0, 0
0, 0
0, 0
0, 1
0, 0
0, 0
1, 0
0, 1
0, 0
0, 0
1, 0
0, 0
0, 0
0, 0
0, 0
0, 0
0, 0
0, 0
0, 0
0, 0
0, 0
0, 0
0, 0
0, 0
0, 0
0, 0
0, 0
0, 0
0, 0
0, 0
0, 0
0, 0
0, 0
0, 0
0, 0
0, 0
0, 0
0, 0
0, 0
0, 0
0, 0
0, 0
0, 0
0, 0
0, 0
0, 0
0, 0
0, 0
0, 0
0, 0
0, 0
0, 0
0, 0
0, 0
0, 0
0, 0
0, 1
0, 0
0, 0
0, 0
0, 0
0, 0
0, 0
0, 0
0, 0
0, 0
0, 0
1, 0
0, 0
0, 0
0, 0
0, 0
0, 0
0, 0
0, 0
0, 0
0, 0
0, 0
0, 0
0, 0
0, 0
0, 0
0, 0
0, 0
0, 0
0, 0
0, 0
0, 0
0, 0
0, 0
0, 0
0, 0
0, 0
0, 0
0, 0
0, 0
0, 0
0, 0
0, 0
0, 0
0, 0
0, 0
0, 0
0, 0
0, 0
0, 0
0, 0
0, 0
0, 0
0, 0
0, 0
0, 0
0, 0
0, 0
0, 0
0, 0
0, 0
1, 0
0, 0
0, 0
0, 0
0, 1
0, 0
0, 0
0, 0
0, 0
0, 0
0, 0
0, 0
0, 1
0, 0
0, 0
0, 0
0, 0
0, 0
0, 0
0, 0
0, 0
0, 0
0, 0
0, 0
0, 0
0, 0
0, 0
0, 0
0, 0
0, 0
0, 0
0, 0
0, 0
0, 0
0, 0
0, 0
0, 0
0, 0
0, 0
0, 0
0, 0
0, 0
0, 0
0, 0
0, 0
0, 0
0, 0
0, 0
0, 0
0, 0
0, 0
0, 0
0, 0
0, 0
0, 0
0, 0
0, 0
0, 0
0, 0
0, 0
0, 0
0, 0
1, 0
0, 0
0, 0
0, 0
0, 0
0, 0
0, 0
0, 0
0, 0
0, 0
0, 0
0, 0
0, 0
0, 0
0, 0
0, 0
0, 0
0, 0
0, 0
0, 0
0, 0
0, 0
0, 0
0, 0
0, 0
0, 0
0, 0
0, 0
0, 0
0, 0
0, 0
0, 0
0, 0
0, 0
0, 0
0, 0
0, 0
0, 0
0, 0
0, 0
0, 0
0, 0
0, 0
0, 0
0, 0
0, 0
0, 0
0, 0
0, 0
0, 0
0, 0
0, 0
0, 0
0, 0
0, 0
0, 0
0, 0
0, 0
0, 0
0, 0
0, 0
0, 0
0, 0
0, 0
0, 0
0, 0
0, 0
0, 0
0, 0
0, 0
0, 0
0, 0
0, 0
0, 0
0, 0
0, 0
0, 0
0, 0
0, 0
0, 0
0, 0
0, 0
0, 0
0, 0
0, 0
0, 0
0, 0
0, 0
0, 0
0, 0
0, 0
0, 0
0, 0
0, 0
0, 0
0, 0
0, 0
0, 0
0, 0
0, 0
0, 0
0, 0
0, 0
0, 0
0, 0
0, 0
0, 0
0, 0
0, 0
0, 0
0, 0
0, 0
0, 0
0, 0
0, 0
0, 0
0, 0
0, 0
0, 0
0, 0
0, 0
0, 0
0, 0
0, 0
0, 0
0, 0
0, 0
0, 0
0, 0
0, 0
0, 0
0, 0
0, 0
0, 0
0, 0
0, 0
0, 0
0, 0
0, 0
0, 0
0, 0
0, 0
0, 0
0, 0
0, 0
0, 0
0, 0
0, 0
0, 0
0, 0
0, 0
0, 0
0, 0
0, 0
0, 0
0, 0
0, 0
0, 0
0, 0
0, 0
0, 0
0, 0
0, 0
0, 0
0, 0
0, 0
0, 0
0, 0
0, 0
0, 0
0, 0
0, 0
0, 0
0, 0
0, 0
0, 0
0, 0
0, 0
0, 0
0, 0
0, 0
0, 0
0, 0
0, 0
0, 0
0, 0
0, 0
0, 0
0, 0
0, 0
0, 0
0, 0
0, 0
0, 0
0, 0
0, 0
0, 0
0, 0
0, 0
0, 0
0, 0
0, 0
0, 0
0, 0
0, 0
0, 0
0, 0
0, 0
0, 0
0, 0
0, 0
0, 0
0, 0
0, 0
0, 0
0, 0
0, 0
0, 0
0, 0
0, 0
0, 0
0, 0
0, 0
0, 0
0, 0
0, 0
0, 0
0, 0
0, 0
0, 0
0, 0
0, 0
0, 0
0, 0
0, 0
0, 0
0, 0
0, 0
0, 0
0, 0
0, 0
0, 0
0, 0
0, 0
0, 0
0, 0
0, 0
0, 0
0, 0
0, 0
0, 0
0, 0
0, 0
0, 0
0, 0
0, 0
0, 0
0, 0
0, 0
0, 0
0, 0
0, 0
0, 0
0, 0
0, 0
0, 0
0, 0
0, 0
0, 0
0, 0
0, 0
0, 0
0, 0
0, 0
0, 0
0, 0
0, 0
0, 0
0, 0
0, 0
0, 0
0, 0
0, 0
0, 0
0, 0
0, 0
0, 0
0, 0
0, 0
0, 0
0, 0
0, 0
0, 0
0, 0
0, 0
0, 0
0, 0
0, 0
0, 0
0, 0
0, 0
0, 0
0, 0
0, 0
0, 0
0, 0
0, 0
0, 0
0, 0
0, 0
0, 0
0, 0
0, 0
0, 0
0, 0
0, 0
0, 0
0, 0
0, 0
0, 0
0, 0
0, 0
0, 0
0, 0
0, 0
0, 0
0, 0
0, 0
0, 0
0, 0
0, 0
0, 0
0, 0
0, 0
0, 0
#ENDOFDATA     end of spectrum data