File: host_upload/06-09-2024/ps_0852/dump3/ps__0852shot_2367.msa
#FORMAT      : EMSA/MAS spectral data file
#VERSION     : TC202v2.0 PIXL
#TITLE       : N/A
#DATE        :       Date in the format DD-MMM-YYYY, for example 07-JUL-2010
#TIME        :             The time of day at which the spectrum was recorded, in 24-hour format
#OWNER       : PIXL Flight Model       (PIXL will use this to indicate which instrument took the data.)
#NPOINTS     : 4096     Number of data points in the spectrum (This can be zero for configuration only files)
#NCOLUMNS    : 2     Number of data columns in the spectrum (This can be zero for configuration only files)
#XUNITS      : eV
#YUNITS      : COUNTS
#DATATYPE    : YY
#XPERCHAN    : 7.862, 7.881   eV per channel (separate by commas if more than one detector)
#OFFSET      : 18.5, -22.4         eV of first channel  (separate by commas if more than one detector
#SIGNALTYPE  : XRF
#YP_TEMP     : 2.524
#LIVETIME    : 8.5591, 8.55021   seconds (separate by commas if more than one detector)
#REALTIME    : 10, 10.0   seconds (separate by commas if more than one detector)
#SPECTRUM    : start of spectrum data
0, 0
0, 0
0, 0
0, 0
0, 0
0, 0
0, 0
0, 0
0, 0
0, 0
0, 0
0, 0
0, 0
0, 0
0, 0
0, 0
0, 0
0, 0
0, 0
0, 0
0, 0
0, 0
0, 0
0, 0
0, 0
0, 0
0, 0
0, 0
0, 0
0, 0
1, 0
0, 0
1, 0
0, 0
0, 0
2, 0
4, 0
0, 0
2, 1
1, 3
5, 1
4, 1
5, 3
4, 1
2, 2
7, 0
1, 0
6, 3
10, 4
14, 18
29, 20
49, 40
66, 60
82, 77
85, 68
86, 76
66, 58
43, 41
28, 27
18, 13
9, 8
7, 1
3, 6
8, 3
7, 3
3, 7
3, 5
15, 3
20, 20
43, 47
109, 93
163, 145
242, 240
398, 342
428, 408
447, 396
395, 364
312, 276
199, 202
127, 110
66, 65
39, 34
18, 16
14, 14
5, 4
1, 4
2, 2
6, 5
3, 2
4, 2
0, 2
1, 1
0, 3
4, 3
2, 2
7, 5
1, 8
7, 8
2, 5
3, 4
5, 3
6, 4
7, 1
5, 4
3, 2
3, 7
3, 3
9, 7
17, 7
39, 12
68, 14
90, 27
198, 37
239, 50
297, 48
326, 55
306, 60
275, 65
213, 53
175, 45
112, 32
64, 45
44, 22
26, 12
23, 13
19, 22
17, 14
11, 11
13, 6
7, 6
4, 5
3, 9
1, 3
10, 0
1, 2
1, 2
3, 2
4, 4
1, 2
2, 4
1, 1
1, 2
1, 1
2, 3
3, 2
4, 4
5, 2
2, 2
1, 3
4, 2
5, 2
6, 8
11, 9
26, 8
31, 19
32, 33
31, 32
46, 37
45, 37
45, 30
43, 23
28, 19
14, 8
8, 8
6, 6
10, 4
4, 5
10, 5
5, 8
11, 8
14, 4
15, 3
31, 13
24, 5
35, 7
46, 3
49, 7
47, 4
37, 3
56, 3
30, 5
27, 5
18, 6
8, 3
12, 6
10, 8
9, 3
8, 17
17, 15
14, 11
11, 11
11, 13
14, 18
16, 13
14, 23
9, 10
17, 25
22, 21
15, 38
19, 57
13, 61
16, 85
9, 81
13, 88
4, 83
8, 64
3, 64
2, 56
5, 49
5, 27
13, 21
9, 14
4, 4
6, 10
6, 8
6, 7
8, 7
7, 9
5, 5
11, 8
6, 8
1, 7
7, 5
5, 6
11, 8
4, 14
13, 14
15, 17
15, 14
25, 25
19, 17
20, 24
28, 15
35, 20
30, 14
38, 18
38, 30
42, 16
34, 11
33, 15
25, 17
31, 13
20, 7
19, 10
25, 20
24, 19
36, 23
46, 44
55, 45
53, 62
63, 52
51, 51
58, 43
45, 49
47, 53
40, 29
23, 36
24, 37
25, 24
20, 33
31, 58
29, 56
43, 90
78, 155
165, 233
278, 320
482, 555
765, 893
1189, 1266
1532, 1643
1999, 2052
2204, 2252
2435, 2189
2333, 2282
2063, 1917
1766, 1375
1312, 972
894, 692
592, 460
356, 266
198, 140
118, 74
61, 60
33, 31
28, 21
35, 24
45, 24
43, 18
61, 13
58, 26
79, 29
95, 52
116, 62
136, 87
153, 104
183, 160
230, 202
280, 259
296, 301
356, 333
389, 321
361, 295
278, 291
281, 199
228, 143
124, 100
75, 57
34, 34
33, 16
19, 10
12, 8
10, 13
10, 9
15, 7
8, 10
12, 14
15, 19
18, 12
15, 14
21, 15
13, 7
8, 11
8, 14
6, 8
6, 6
7, 6
5, 5
3, 7
1, 3
5, 1
5, 8
6, 5
6, 8
3, 4
5, 7
3, 3
4, 3
4, 6
10, 6
5, 7
5, 4
3, 2
8, 7
13, 6
15, 10
22, 5
30, 2
25, 6
34, 3
41, 5
66, 7
57, 12
61, 4
60, 6
54, 4
44, 4
34, 1
41, 4
26, 4
20, 3
27, 9
8, 5
4, 4
13, 7
4, 4
2, 7
8, 8
4, 4
5, 4
5, 1
7, 2
3, 2
1, 5
0, 3
3, 1
4, 3
2, 4
5, 1
3, 2
2, 4
5, 3
3, 1
2, 5
6, 4
1, 5
2, 4
2, 3
3, 6
5, 4
1, 6
6, 4
3, 5
5, 8
6, 8
7, 7
4, 5
7, 4
2, 7
3, 7
3, 2
5, 5
6, 3
7, 3
2, 10
4, 6
3, 6
2, 9
4, 6
2, 4
4, 2
2, 7
4, 6
3, 6
3, 5
0, 1
4, 2
4, 11
7, 6
4, 3
2, 2
3, 5
4, 4
1, 7
1, 4
5, 3
6, 6
3, 4
4, 3
1, 4
5, 2
5, 6
3, 3
4, 8
6, 1
6, 2
4, 4
6, 6
8, 0
4, 5
4, 1
5, 4
5, 0
0, 3
2, 3
2, 0
3, 3
5, 2
3, 4
3, 3
3, 3
3, 1
3, 2
2, 1
4, 0
1, 2
5, 3
1, 4
5, 4
3, 6
0, 2
5, 2
2, 6
3, 5
2, 5
7, 6
5, 4
11, 5
7, 2
7, 2
7, 3
3, 7
3, 3
7, 6
6, 2
4, 3
3, 3
2, 2
5, 4
5, 2
6, 4
3, 2
0, 2
3, 2
3, 6
1, 1
2, 1
2, 4
2, 0
1, 0
1, 4
2, 1
2, 2
2, 2
4, 3
1, 2
4, 1
4, 2
2, 2
2, 2
1, 1
2, 1
3, 1
2, 0
1, 1
1, 2
0, 2
2, 0
3, 0
1, 1
1, 3
1, 3
2, 1
2, 5
4, 3
4, 0
1, 2
1, 1
3, 1
3, 5
5, 3
2, 2
1, 0
0, 2
2, 2
1, 3
5, 1
4, 2
3, 1
3, 3
2, 1
3, 2
5, 2
2, 3
1, 5
3, 2
2, 1
3, 2
5, 1
4, 6
4, 4
6, 0
2, 4
3, 3
5, 7
3, 3
9, 3
3, 1
5, 0
2, 2
4, 1
2, 4
3, 3
0, 2
2, 3
1, 2
3, 2
0, 1
3, 1
1, 3
2, 0
0, 2
2, 4
2, 5
2, 3
2, 4
1, 1
2, 0
2, 0
2, 1
2, 4
4, 0
0, 2
1, 1
3, 1
1, 1
2, 1
3, 1
1, 4
1, 0
0, 2
1, 1
1, 1
0, 0
0, 2
0, 1
1, 3
1, 0
2, 0
1, 1
0, 3
2, 1
1, 0
2, 1
2, 2
0, 2
3, 1
1, 3
4, 2
2, 1
0, 1
1, 0
0, 2
1, 1
0, 1
0, 0
1, 2
0, 2
1, 0
0, 2
0, 0
0, 1
0, 2
0, 0
3, 1
2, 0
0, 0
1, 2
1, 0
1, 1
0, 1
1, 0
0, 0
1, 0
2, 1
2, 0
0, 2
5, 0
0, 0
1, 1
1, 0
3, 2
2, 1
0, 0
0, 0
1, 0
1, 1
0, 2
1, 2
1, 0
2, 0
0, 0
0, 1
0, 0
2, 1
1, 1
1, 0
1, 0
2, 0
0, 1
1, 0
0, 3
1, 0
2, 1
1, 0
2, 1
1, 1
2, 1
0, 1
0, 1
0, 0
1, 1
2, 0
2, 1
1, 1
0, 0
1, 0
0, 0
2, 0
0, 1
0, 2
1, 0
0, 1
0, 1
1, 1
0, 0
0, 0
1, 1
0, 0
0, 1
1, 0
1, 2
0, 0
0, 1
1, 0
0, 0
0, 0
0, 0
1, 0
0, 1
0, 0
0, 0
0, 0
0, 0
2, 0
0, 1
0, 0
0, 1
2, 1
0, 1
0, 0
1, 0
0, 0
0, 1
2, 0
0, 0
0, 0
0, 0
0, 0
0, 0
0, 0
1, 0
0, 1
1, 0
1, 0
0, 0
0, 1
1, 1
0, 0
0, 0
0, 0
2, 2
1, 0
0, 0
0, 0
0, 0
1, 0
1, 0
1, 0
0, 0
0, 0
2, 0
0, 0
0, 0
0, 0
0, 0
0, 0
1, 0
0, 0
0, 0
1, 0
0, 0
1, 0
0, 0
0, 0
1, 0
1, 0
0, 1
0, 0
1, 0
0, 0
0, 1
0, 0
1, 0
0, 0
1, 0
1, 0
0, 0
0, 1
0, 0
0, 0
0, 0
0, 0
0, 0
0, 0
1, 0
0, 0
0, 0
0, 0
0, 1
2, 1
0, 1
0, 1
0, 0
0, 1
0, 1
0, 0
0, 0
0, 1
0, 0
1, 0
0, 0
1, 0
0, 0
0, 0
0, 0
0, 0
1, 0
0, 0
0, 0
0, 0
0, 2
0, 0
1, 0
1, 2
0, 0
0, 1
0, 0
0, 0
0, 1
0, 1
0, 0
1, 0
1, 0
0, 2
0, 0
0, 1
0, 0
0, 0
0, 0
1, 0
0, 1
0, 0
0, 0
0, 0
0, 0
0, 1
0, 0
2, 0
0, 0
0, 0
1, 1
0, 0
0, 0
0, 0
0, 0
1, 0
0, 0
0, 1
1, 0
0, 1
1, 0
0, 0
0, 0
0, 0
2, 1
0, 0
0, 0
0, 0
0, 0
0, 0
0, 1
2, 0
1, 0
1, 0
1, 0
0, 0
0, 0
0, 0
0, 0
0, 0
0, 0
0, 0
0, 0
0, 0
0, 0
1, 0
1, 0
0, 0
1, 0
0, 0
0, 0
1, 0
0, 0
0, 0
0, 0
0, 0
0, 0
0, 0
0, 1
0, 0
0, 0
0, 0
0, 1
0, 0
0, 0
0, 0
0, 0
0, 0
0, 0
0, 0
0, 0
0, 0
0, 0
0, 0
0, 0
0, 0
0, 0
0, 0
0, 0
0, 0
0, 0
0, 0
0, 0
0, 0
0, 0
0, 0
0, 0
0, 0
0, 0
0, 0
0, 0
0, 0
0, 0
0, 0
0, 0
0, 0
0, 0
0, 0
0, 0
0, 0
0, 0
0, 0
0, 0
0, 0
0, 0
0, 0
0, 0
0, 0
0, 0
0, 0
0, 0
0, 0
0, 0
0, 0
0, 0
0, 0
0, 0
0, 0
0, 0
0, 0
0, 0
0, 0
0, 0
0, 0
0, 0
0, 0
0, 0
0, 0
0, 0
0, 0
0, 0
0, 0
0, 0
0, 0
0, 0
0, 0
0, 0
0, 0
0, 0
0, 0
0, 0
0, 0
0, 0
0, 0
1, 0
0, 0
0, 0
0, 0
0, 0
0, 0
0, 0
0, 0
0, 0
0, 0
0, 0
0, 0
0, 0
0, 0
0, 0
0, 0
0, 0
0, 0
0, 0
0, 0
0, 0
0, 0
0, 0
0, 0
0, 0
0, 0
0, 0
0, 0
0, 0
0, 0
0, 0
0, 0
0, 0
0, 0
0, 0
0, 0
0, 0
0, 0
0, 0
0, 0
0, 0
0, 0
0, 0
0, 0
0, 0
0, 0
0, 0
0, 0
0, 0
0, 0
0, 0
0, 0
0, 0
0, 0
0, 0
0, 0
0, 0
0, 0
0, 0
0, 0
0, 0
0, 0
0, 0
0, 0
0, 0
0, 0
0, 0
1, 0
0, 0
0, 0
0, 0
0, 0
0, 0
0, 0
0, 0
0, 0
0, 0
0, 0
0, 0
0, 0
0, 0
0, 0
0, 1
0, 0
0, 0
0, 0
0, 0
0, 0
0, 0
0, 0
0, 0
0, 0
0, 0
0, 0
0, 0
0, 0
0, 0
0, 0
0, 0
0, 0
0, 0
0, 0
0, 0
0, 0
0, 0
0, 0
0, 0
0, 0
0, 0
0, 0
0, 0
0, 0
0, 0
0, 0
0, 0
0, 0
0, 0
0, 0
0, 0
0, 0
0, 0
0, 0
0, 0
0, 0
0, 0
0, 0
0, 0
0, 0
0, 0
1, 0
0, 0
0, 0
0, 0
0, 0
0, 0
0, 0
0, 0
0, 0
0, 0
0, 0
0, 0
0, 0
0, 0
0, 0
0, 0
0, 0
0, 0
0, 0
0, 0
0, 0
0, 0
0, 0
0, 0
0, 0
0, 0
0, 0
0, 0
0, 0
0, 0
0, 0
0, 0
0, 0
0, 0
0, 0
0, 0
0, 0
0, 0
0, 0
0, 0
0, 0
0, 0
0, 0
0, 0
0, 0
0, 0
0, 0
0, 0
0, 0
0, 0
0, 0
0, 0
0, 0
0, 0
0, 0
0, 0
0, 0
0, 0
0, 0
0, 0
0, 0
0, 0
0, 0
0, 0
0, 0
0, 0
0, 0
0, 0
0, 0
0, 0
0, 0
0, 0
0, 0
0, 0
0, 0
0, 0
0, 0
0, 0
0, 0
0, 0
0, 0
0, 0
0, 0
0, 0
0, 0
0, 0
0, 0
0, 0
0, 0
0, 0
0, 0
0, 0
0, 0
0, 0
0, 0
0, 0
0, 0
0, 0
0, 0
0, 0
0, 0
0, 0
0, 0
0, 0
0, 0
0, 0
0, 0
0, 0
0, 0
0, 0
0, 0
0, 0
0, 0
0, 0
0, 0
0, 0
0, 0
0, 0
0, 0
0, 0
0, 0
0, 0
0, 0
0, 0
0, 0
0, 0
0, 0
0, 0
0, 0
0, 0
0, 0
0, 0
0, 0
0, 0
0, 0
0, 0
0, 0
0, 0
0, 0
0, 0
0, 0
0, 0
0, 0
0, 0
0, 0
0, 0
0, 0
0, 0
0, 0
0, 0
0, 0
0, 0
0, 0
0, 0
0, 0
0, 0
0, 0
0, 0
0, 0
0, 0
0, 0
0, 0
0, 0
0, 0
0, 0
0, 0
0, 0
0, 0
0, 0
0, 0
0, 0
0, 0
0, 0
0, 0
0, 0
0, 0
0, 0
0, 0
0, 0
0, 0
0, 0
0, 0
0, 0
0, 0
0, 0
0, 0
0, 0
0, 0
0, 0
0, 0
0, 0
0, 0
0, 0
0, 0
0, 0
0, 0
0, 0
0, 0
0, 0
0, 0
0, 0
0, 0
0, 0
0, 0
0, 0
0, 0
0, 0
0, 0
0, 0
0, 0
0, 0
0, 0
0, 0
0, 0
0, 0
0, 0
0, 0
0, 0
0, 0
0, 0
0, 0
0, 0
0, 0
0, 0
0, 0
0, 0
0, 0
0, 0
0, 0
0, 0
0, 0
0, 0
0, 0
0, 0
0, 0
0, 0
0, 0
0, 0
0, 0
0, 0
0, 0
0, 0
0, 0
0, 0
0, 0
0, 0
0, 0
0, 0
0, 0
0, 0
0, 0
0, 0
0, 0
0, 0
0, 0
0, 0
0, 0
0, 0
0, 0
0, 0
0, 0
0, 0
0, 0
0, 0
0, 0
0, 0
0, 0
0, 0
0, 0
0, 0
0, 0
0, 0
0, 0
0, 0
0, 0
0, 0
0, 0
0, 0
0, 0
0, 0
0, 0
0, 0
0, 0
#ENDOFDATA     end of spectrum data