File: host_upload/06-09-2024/ps_0852/dump3/ps__0852shot_2013.msa
#FORMAT      : EMSA/MAS spectral data file
#VERSION     : TC202v2.0 PIXL
#TITLE       : N/A
#DATE        :       Date in the format DD-MMM-YYYY, for example 07-JUL-2010
#TIME        :             The time of day at which the spectrum was recorded, in 24-hour format
#OWNER       : PIXL Flight Model       (PIXL will use this to indicate which instrument took the data.)
#NPOINTS     : 4096     Number of data points in the spectrum (This can be zero for configuration only files)
#NCOLUMNS    : 2     Number of data columns in the spectrum (This can be zero for configuration only files)
#XUNITS      : eV
#YUNITS      : COUNTS
#DATATYPE    : YY
#XPERCHAN    : 7.862, 7.881   eV per channel (separate by commas if more than one detector)
#OFFSET      : 18.5, -22.4         eV of first channel  (separate by commas if more than one detector
#SIGNALTYPE  : XRF
#YP_TEMP     : 2.364
#LIVETIME    : 8.56097, 8.55248   seconds (separate by commas if more than one detector)
#REALTIME    : 10, 10.0   seconds (separate by commas if more than one detector)
#SPECTRUM    : start of spectrum data
0, 0
0, 0
0, 0
0, 0
0, 0
0, 0
0, 0
0, 0
0, 0
0, 0
0, 0
0, 0
0, 0
0, 0
0, 0
0, 0
0, 0
0, 0
0, 0
0, 0
0, 0
0, 0
0, 0
0, 0
0, 0
0, 0
0, 0
0, 0
0, 0
0, 0
0, 0
0, 0
1, 0
0, 0
0, 0
1, 1
0, 1
1, 0
0, 0
1, 0
2, 0
2, 1
2, 0
1, 2
4, 0
2, 0
5, 0
3, 1
9, 4
16, 7
19, 23
43, 28
56, 43
68, 62
93, 60
86, 61
74, 49
40, 34
36, 25
18, 13
8, 5
6, 4
2, 1
5, 6
4, 5
4, 1
5, 6
14, 11
22, 13
47, 38
109, 73
195, 140
247, 204
340, 267
431, 296
425, 295
395, 278
329, 205
247, 122
137, 92
79, 70
37, 23
23, 13
12, 6
2, 4
2, 6
4, 4
1, 1
3, 4
2, 2
4, 1
7, 2
10, 10
17, 17
18, 29
31, 35
60, 59
95, 80
101, 86
95, 96
95, 89
79, 57
57, 60
33, 30
19, 22
20, 12
17, 10
14, 13
19, 13
28, 10
26, 18
27, 33
51, 40
59, 39
67, 50
66, 43
68, 38
43, 28
49, 19
41, 28
26, 25
28, 24
25, 15
17, 17
16, 18
15, 17
11, 11
15, 13
14, 8
11, 5
4, 4
8, 9
2, 3
5, 3
5, 2
4, 2
1, 2
3, 3
2, 2
1, 3
4, 2
2, 3
3, 0
3, 2
3, 1
2, 1
3, 2
1, 8
3, 4
2, 4
6, 2
11, 0
8, 4
10, 6
16, 10
10, 16
17, 27
30, 16
20, 23
19, 13
17, 8
10, 8
7, 7
9, 5
2, 4
1, 4
1, 4
5, 2
3, 2
2, 1
2, 2
3, 9
3, 9
9, 4
5, 5
8, 8
5, 16
6, 14
1, 19
6, 8
4, 8
1, 14
4, 2
4, 7
5, 0
2, 6
4, 3
1, 5
6, 6
7, 5
8, 7
7, 11
12, 9
16, 11
10, 20
14, 15
16, 15
14, 25
18, 34
17, 26
14, 24
15, 26
11, 29
8, 21
8, 11
7, 7
8, 9
6, 7
8, 6
6, 6
14, 3
7, 7
7, 5
6, 5
9, 2
19, 6
16, 2
10, 3
12, 7
8, 2
11, 6
9, 11
9, 3
7, 11
10, 7
12, 9
11, 8
10, 8
14, 7
13, 14
13, 14
13, 8
19, 10
14, 10
10, 6
13, 10
9, 2
10, 6
7, 6
13, 6
9, 5
12, 4
8, 8
16, 8
25, 12
17, 16
22, 30
35, 26
35, 42
63, 47
76, 38
68, 56
55, 40
57, 47
45, 30
27, 20
38, 18
16, 16
25, 11
25, 10
18, 14
23, 21
38, 50
105, 84
172, 174
337, 363
521, 490
867, 825
1202, 1162
1717, 1488
2093, 1870
2545, 2090
2601, 2013
2675, 1918
2383, 1654
1959, 1299
1453, 940
1020, 628
680, 421
382, 238
282, 146
188, 90
140, 48
152, 47
142, 35
170, 31
189, 25
164, 21
166, 22
158, 15
128, 24
123, 39
84, 65
124, 84
140, 121
199, 163
232, 235
279, 274
320, 331
413, 385
389, 373
381, 383
322, 302
263, 244
214, 193
152, 153
103, 105
81, 77
34, 52
19, 40
16, 13
12, 11
11, 10
7, 12
7, 14
15, 13
18, 13
10, 7
15, 15
11, 15
5, 6
10, 8
4, 3
3, 2
8, 10
2, 7
9, 7
3, 4
4, 4
4, 2
0, 1
3, 6
3, 3
2, 1
7, 2
2, 6
8, 1
8, 2
7, 2
3, 1
2, 2
5, 3
2, 3
5, 4
6, 8
8, 5
1, 2
4, 4
8, 2
3, 2
5, 4
7, 5
6, 5
2, 3
6, 5
3, 2
7, 5
7, 2
4, 5
12, 2
3, 3
6, 1
4, 3
0, 2
6, 3
8, 3
6, 3
1, 7
5, 1
6, 3
4, 2
4, 2
1, 3
3, 2
2, 4
2, 3
2, 5
4, 1
3, 1
4, 3
0, 2
3, 6
2, 7
3, 2
4, 6
3, 5
1, 2
2, 7
2, 6
4, 3
3, 4
6, 12
3, 10
2, 13
2, 14
1, 20
3, 7
5, 16
4, 12
6, 10
5, 8
4, 7
5, 3
2, 6
0, 3
3, 8
3, 5
6, 7
7, 5
7, 4
12, 5
10, 4
9, 5
10, 0
19, 4
18, 1
23, 3
31, 1
33, 1
42, 1
32, 1
30, 1
29, 0
29, 0
19, 4
14, 0
7, 2
16, 1
8, 3
6, 5
5, 0
4, 3
5, 0
5, 1
3, 1
4, 2
2, 3
1, 4
5, 4
2, 0
1, 3
5, 3
4, 3
7, 2
3, 3
1, 2
1, 4
4, 4
1, 6
4, 1
2, 0
4, 0
3, 1
2, 3
2, 6
2, 1
2, 0
2, 3
2, 2
3, 4
2, 1
5, 1
2, 1
5, 1
2, 2
3, 0
2, 1
2, 1
5, 2
2, 2
3, 3
2, 0
2, 2
3, 1
2, 2
1, 2
2, 3
1, 1
2, 3
4, 4
3, 3
3, 1
3, 2
2, 1
1, 3
1, 2
3, 2
4, 2
1, 1
4, 4
3, 4
3, 1
1, 0
5, 2
2, 1
4, 3
1, 0
2, 4
5, 4
1, 2
1, 3
1, 3
3, 3
3, 1
5, 6
4, 5
2, 1
4, 2
0, 3
2, 1
5, 3
3, 5
7, 0
6, 0
3, 3
6, 3
5, 1
2, 3
3, 4
3, 2
2, 1
2, 3
0, 2
5, 5
1, 0
1, 4
3, 1
2, 1
1, 1
0, 2
1, 1
1, 2
1, 2
3, 2
2, 1
1, 1
2, 2
2, 6
7, 5
3, 3
6, 4
3, 3
3, 5
4, 3
5, 2
3, 4
6, 1
5, 0
4, 0
3, 0
1, 0
0, 0
1, 1
2, 0
2, 0
2, 0
4, 1
0, 2
2, 1
1, 1
3, 2
2, 2
3, 1
1, 1
1, 1
2, 0
1, 1
1, 2
1, 2
2, 2
2, 0
2, 1
0, 1
0, 0
2, 4
2, 0
0, 0
1, 2
0, 2
3, 1
2, 3
3, 0
2, 2
3, 1
0, 0
2, 1
2, 2
1, 2
1, 1
0, 0
1, 1
1, 1
1, 2
0, 0
0, 1
0, 0
3, 0
1, 0
3, 1
3, 1
0, 2
0, 0
0, 1
0, 2
2, 1
4, 1
3, 0
3, 2
2, 0
5, 1
2, 3
0, 0
1, 1
1, 2
1, 0
0, 0
0, 2
0, 0
1, 0
2, 0
0, 0
0, 1
1, 1
3, 1
1, 0
1, 0
2, 1
0, 0
1, 1
0, 2
0, 0
2, 0
2, 3
0, 0
2, 1
1, 0
1, 0
1, 1
1, 1
1, 1
0, 1
0, 0
0, 0
1, 1
0, 1
0, 0
0, 1
0, 1
0, 1
2, 0
2, 1
2, 1
3, 0
0, 0
0, 0
2, 0
0, 1
0, 1
1, 2
0, 0
2, 0
0, 0
0, 0
0, 1
1, 1
1, 1
2, 1
0, 1
1, 0
0, 1
0, 2
0, 0
1, 1
0, 0
0, 0
0, 0
0, 0
0, 0
1, 0
0, 2
0, 0
1, 1
1, 0
0, 1
0, 1
0, 1
1, 0
0, 0
1, 0
1, 2
0, 0
1, 0
1, 0
1, 1
1, 2
0, 0
1, 0
0, 0
0, 0
0, 1
2, 0
1, 0
0, 0
0, 0
0, 0
3, 1
0, 1
0, 0
0, 0
0, 0
0, 0
1, 0
2, 0
2, 0
0, 0
0, 2
0, 1
0, 0
0, 0
1, 0
0, 0
0, 0
0, 0
0, 0
1, 1
0, 0
1, 1
0, 0
1, 0
0, 0
1, 0
0, 0
0, 0
0, 0
0, 0
0, 0
0, 0
1, 0
0, 0
0, 0
0, 0
0, 1
0, 0
1, 0
1, 1
0, 0
0, 0
0, 0
0, 0
0, 0
0, 0
0, 0
1, 0
0, 1
0, 1
0, 1
1, 0
1, 0
0, 0
1, 0
0, 0
0, 0
2, 0
0, 0
0, 0
0, 1
0, 0
1, 0
0, 1
0, 1
1, 1
1, 0
0, 0
1, 0
0, 0
0, 1
0, 1
0, 0
0, 0
0, 0
0, 0
0, 0
1, 0
0, 0
1, 0
0, 1
2, 0
0, 1
0, 0
0, 1
0, 1
1, 0
0, 1
0, 1
0, 0
1, 2
0, 0
0, 2
0, 0
0, 0
1, 0
0, 0
0, 0
0, 1
0, 0
0, 0
0, 0
0, 3
0, 0
0, 1
0, 0
0, 1
0, 0
0, 0
0, 0
0, 0
0, 0
0, 0
0, 1
0, 0
0, 0
0, 0
0, 1
1, 1
1, 0
0, 0
0, 0
0, 1
1, 0
0, 0
0, 0
0, 0
0, 0
0, 0
0, 0
0, 0
1, 0
0, 0
0, 0
0, 0
0, 0
0, 1
0, 1
0, 3
0, 0
0, 0
0, 1
0, 0
0, 0
0, 1
0, 0
0, 1
0, 0
0, 0
0, 0
0, 1
0, 0
0, 0
0, 0
0, 0
1, 0
0, 0
0, 0
0, 0
0, 0
0, 0
0, 0
0, 0
1, 0
1, 0
0, 0
0, 0
0, 0
0, 0
0, 0
0, 0
0, 0
0, 0
0, 0
0, 0
0, 0
0, 0
0, 0
0, 0
0, 0
0, 0
0, 0
0, 0
1, 0
0, 0
0, 0
0, 0
0, 0
0, 0
0, 0
0, 0
0, 0
0, 0
0, 0
0, 0
0, 0
0, 0
0, 0
0, 0
0, 0
0, 0
0, 0
0, 0
0, 0
0, 0
0, 0
0, 0
1, 0
0, 1
0, 0
0, 0
0, 0
0, 0
1, 0
0, 0
0, 0
0, 0
0, 0
0, 0
0, 0
0, 0
0, 0
0, 0
0, 1
0, 0
0, 1
0, 0
0, 0
0, 0
0, 0
0, 0
0, 0
1, 0
0, 0
0, 0
0, 0
0, 0
0, 1
0, 0
0, 0
0, 0
0, 0
1, 0
0, 1
0, 0
0, 0
0, 0
1, 0
0, 0
0, 0
0, 0
0, 0
0, 0
0, 0
0, 0
0, 0
0, 0
0, 0
0, 0
0, 0
0, 0
0, 0
0, 0
0, 0
0, 0
0, 0
0, 0
0, 0
0, 0
0, 0
0, 0
0, 0
0, 0
0, 0
0, 0
0, 0
0, 0
0, 0
0, 0
0, 0
0, 0
0, 0
0, 0
0, 0
0, 0
0, 0
0, 0
0, 0
0, 0
0, 0
0, 0
0, 0
0, 0
0, 0
0, 0
0, 0
0, 0
0, 0
0, 0
0, 0
0, 0
0, 0
0, 0
0, 0
0, 0
0, 0
0, 0
0, 0
0, 0
0, 0
0, 0
0, 0
0, 0
0, 0
0, 0
0, 0
0, 0
0, 0
0, 0
0, 0
0, 0
0, 0
0, 0
0, 0
0, 0
0, 0
0, 0
0, 0
0, 0
0, 0
0, 0
0, 0
0, 0
0, 0
0, 0
0, 0
0, 0
0, 0
0, 0
0, 0
0, 0
0, 0
0, 0
0, 0
0, 0
0, 0
0, 0
0, 0
0, 0
0, 0
0, 0
0, 0
0, 0
0, 0
0, 0
0, 0
0, 0
0, 0
0, 0
0, 0
0, 0
0, 0
0, 0
0, 0
0, 0
0, 0
0, 0
0, 0
0, 0
0, 0
0, 0
0, 0
0, 0
0, 0
0, 0
0, 0
0, 0
0, 0
0, 0
0, 0
0, 0
0, 0
0, 0
0, 0
0, 0
0, 0
0, 0
0, 0
0, 0
0, 0
0, 0
0, 0
0, 0
0, 0
0, 0
0, 0
0, 0
0, 0
0, 0
0, 0
0, 0
0, 0
0, 0
0, 0
0, 0
0, 0
0, 0
0, 0
0, 0
0, 0
0, 0
0, 0
0, 0
0, 0
0, 0
0, 0
0, 0
0, 0
0, 0
0, 0
0, 0
0, 0
0, 0
0, 0
0, 0
0, 0
0, 0
0, 0
0, 0
0, 0
0, 0
0, 0
0, 0
0, 0
0, 0
0, 0
0, 0
0, 0
0, 0
0, 0
0, 0
0, 0
0, 0
0, 0
0, 0
0, 0
0, 1
0, 0
0, 0
0, 0
0, 0
0, 0
0, 0
0, 0
0, 0
0, 0
0, 0
0, 0
0, 0
0, 0
0, 0
0, 0
0, 0
0, 0
0, 0
0, 0
0, 0
0, 0
0, 0
0, 0
0, 0
0, 0
0, 0
0, 0
0, 0
0, 0
0, 0
0, 0
0, 0
0, 0
0, 0
0, 0
0, 0
0, 0
0, 0
0, 0
0, 0
0, 0
0, 0
0, 0
0, 0
0, 0
0, 0
0, 0
0, 0
0, 0
0, 0
0, 0
0, 0
0, 0
0, 0
0, 0
0, 0
0, 0
0, 0
0, 0
0, 0
0, 0
0, 0
0, 0
0, 0
0, 0
0, 0
0, 0
0, 0
0, 0
0, 0
0, 0
0, 0
0, 0
0, 0
0, 0
0, 0
0, 0
0, 0
0, 0
0, 0
0, 0
0, 0
0, 0
0, 0
0, 0
0, 0
0, 0
0, 0
0, 0
0, 0
0, 0
0, 0
0, 0
0, 0
0, 0
0, 0
0, 0
0, 0
0, 0
0, 0
0, 0
0, 0
0, 0
0, 0
0, 0
0, 0
0, 0
0, 0
0, 0
0, 0
0, 0
0, 0
0, 0
0, 0
0, 0
0, 0
0, 0
0, 0
0, 0
0, 0
0, 0
0, 0
0, 0
0, 0
0, 0
0, 0
0, 0
0, 0
0, 0
0, 0
0, 0
0, 0
0, 0
0, 0
0, 0
0, 0
0, 0
0, 0
0, 0
0, 0
0, 0
0, 0
0, 0
0, 0
0, 0
0, 0
0, 0
0, 0
0, 0
0, 0
0, 0
0, 0
0, 0
0, 0
0, 0
0, 0
0, 0
0, 0
0, 0
0, 0
0, 0
0, 0
0, 0
0, 0
0, 0
0, 0
0, 0
0, 0
0, 0
0, 0
0, 0
0, 0
0, 0
0, 0
0, 0
0, 0
0, 0
0, 0
0, 0
0, 0
0, 0
0, 0
0, 0
0, 0
0, 0
0, 0
0, 0
0, 0
0, 0
0, 0
0, 0
0, 0
0, 0
0, 0
0, 0
0, 0
0, 0
0, 0
0, 0
0, 0
0, 0
0, 0
0, 0
0, 0
0, 0
0, 0
0, 0
0, 0
0, 0
0, 0
0, 0
0, 0
0, 0
0, 0
#ENDOFDATA     end of spectrum data