File: host_upload/06-09-2024/ps_0852/dump3/ps__0852shot_2115.msa
#FORMAT      : EMSA/MAS spectral data file
#VERSION     : TC202v2.0 PIXL
#TITLE       : N/A
#DATE        :       Date in the format DD-MMM-YYYY, for example 07-JUL-2010
#TIME        :             The time of day at which the spectrum was recorded, in 24-hour format
#OWNER       : PIXL Flight Model       (PIXL will use this to indicate which instrument took the data.)
#NPOINTS     : 4096     Number of data points in the spectrum (This can be zero for configuration only files)
#NCOLUMNS    : 2     Number of data columns in the spectrum (This can be zero for configuration only files)
#XUNITS      : eV
#YUNITS      : COUNTS
#DATATYPE    : YY
#XPERCHAN    : 7.862, 7.881   eV per channel (separate by commas if more than one detector)
#OFFSET      : 18.5, -22.4         eV of first channel  (separate by commas if more than one detector
#SIGNALTYPE  : XRF
#YP_TEMP     : 2.364
#LIVETIME    : 8.55707, 8.55665   seconds (separate by commas if more than one detector)
#REALTIME    : 10, 10.0   seconds (separate by commas if more than one detector)
#SPECTRUM    : start of spectrum data
0, 0
0, 0
0, 0
0, 0
0, 0
0, 0
0, 0
0, 0
0, 0
0, 0
0, 0
0, 0
0, 0
0, 0
0, 0
0, 0
0, 0
0, 0
0, 0
0, 0
0, 0
0, 0
0, 0
0, 0
0, 0
0, 0
0, 0
0, 0
0, 0
0, 0
0, 0
0, 0
0, 2
1, 0
0, 0
0, 1
0, 2
1, 1
0, 2
1, 1
3, 2
1, 0
3, 3
3, 1
1, 2
3, 1
1, 3
1, 4
2, 6
6, 11
11, 19
22, 44
35, 52
40, 47
54, 55
39, 52
34, 44
30, 33
19, 19
16, 12
6, 7
8, 6
3, 4
3, 8
5, 4
4, 4
6, 5
7, 13
12, 18
21, 40
57, 68
95, 111
160, 146
191, 219
241, 275
241, 247
211, 233
166, 175
118, 119
66, 96
38, 45
31, 29
17, 18
8, 7
6, 4
4, 3
3, 6
8, 5
5, 4
8, 6
4, 9
14, 18
32, 35
58, 73
118, 147
199, 206
312, 332
404, 421
408, 490
504, 486
389, 438
288, 365
244, 230
176, 158
105, 90
72, 74
48, 64
39, 47
42, 53
51, 52
59, 77
80, 92
89, 128
106, 88
94, 106
89, 122
81, 112
63, 91
52, 65
46, 47
41, 50
46, 56
32, 36
35, 34
22, 34
19, 15
20, 18
17, 16
10, 20
14, 7
6, 7
7, 9
5, 6
5, 6
12, 4
2, 4
3, 5
6, 7
5, 7
4, 1
6, 13
8, 7
6, 8
2, 9
4, 5
4, 3
1, 7
7, 4
6, 6
6, 3
5, 5
12, 9
19, 16
14, 19
40, 35
44, 38
50, 53
62, 60
46, 55
53, 68
44, 26
33, 27
12, 15
11, 15
10, 5
8, 8
10, 8
3, 7
10, 8
11, 9
5, 13
13, 12
8, 12
7, 7
7, 6
8, 11
10, 14
5, 11
5, 7
2, 4
5, 6
6, 10
5, 6
7, 5
3, 9
3, 4
2, 6
7, 6
7, 8
4, 14
4, 11
5, 12
14, 10
10, 19
12, 21
16, 33
20, 23
10, 23
14, 22
13, 14
13, 14
15, 18
15, 12
2, 8
8, 2
6, 9
1, 8
8, 5
5, 12
5, 3
8, 7
10, 10
8, 6
4, 12
8, 9
10, 9
11, 12
4, 6
8, 7
18, 10
11, 9
12, 8
20, 6
27, 8
24, 12
50, 8
45, 15
47, 17
45, 20
33, 16
23, 23
30, 28
20, 15
19, 11
9, 15
10, 17
9, 32
6, 32
1, 42
9, 36
8, 39
11, 57
9, 61
9, 50
12, 63
22, 61
29, 49
37, 48
38, 63
51, 66
53, 89
63, 67
59, 74
57, 56
40, 53
32, 30
29, 29
16, 23
23, 15
26, 11
29, 28
44, 28
57, 55
93, 103
122, 233
244, 372
481, 644
747, 919
1105, 1325
1381, 1832
1783, 2262
2101, 2446
2192, 2579
2154, 2365
2009, 2070
1585, 1694
1209, 1217
865, 809
573, 535
327, 279
167, 151
106, 85
43, 45
20, 30
19, 16
15, 25
11, 17
7, 12
21, 23
20, 26
20, 31
47, 37
49, 62
75, 87
116, 131
141, 150
189, 208
233, 292
270, 345
304, 328
339, 337
299, 351
279, 275
227, 219
194, 171
128, 119
84, 83
47, 48
45, 26
12, 12
13, 8
4, 5
7, 7
7, 12
6, 15
7, 18
9, 11
14, 15
18, 17
14, 12
18, 9
19, 20
17, 10
18, 10
14, 6
28, 3
23, 10
11, 4
12, 2
6, 5
9, 2
3, 4
7, 2
2, 5
4, 6
2, 3
4, 5
8, 2
5, 8
5, 3
8, 2
7, 2
5, 5
5, 9
9, 4
7, 7
9, 4
3, 7
2, 7
4, 5
9, 4
6, 7
3, 2
10, 8
12, 3
12, 7
10, 3
17, 4
6, 5
27, 1
20, 2
11, 6
14, 1
7, 4
7, 1
3, 3
4, 2
9, 3
6, 6
6, 2
6, 11
5, 5
4, 8
5, 5
6, 13
4, 6
0, 4
4, 6
3, 9
5, 9
1, 10
1, 12
4, 7
3, 15
5, 16
3, 13
2, 9
4, 8
3, 10
0, 9
4, 3
2, 4
8, 5
4, 6
6, 4
5, 6
7, 2
7, 4
6, 4
5, 2
6, 4
4, 2
2, 7
2, 5
4, 3
0, 3
4, 6
4, 7
3, 2
6, 6
6, 8
2, 6
4, 3
1, 3
2, 2
4, 5
1, 2
1, 2
1, 6
4, 3
0, 2
5, 4
6, 2
2, 1
4, 5
1, 1
3, 1
4, 0
7, 7
1, 3
3, 3
2, 6
1, 3
3, 15
1, 15
1, 7
3, 13
1, 15
6, 10
1, 17
2, 7
1, 5
2, 4
4, 8
5, 3
2, 6
3, 3
5, 2
4, 5
2, 0
6, 2
7, 1
1, 2
2, 3
5, 3
5, 2
5, 6
3, 3
2, 4
2, 3
5, 3
9, 2
3, 2
4, 1
7, 5
5, 1
2, 1
4, 6
6, 4
5, 3
3, 2
0, 3
2, 4
6, 1
3, 4
3, 1
1, 7
3, 2
3, 5
0, 2
0, 3
0, 2
3, 1
1, 5
1, 2
2, 4
1, 5
1, 2
0, 2
1, 2
3, 2
2, 0
3, 2
3, 4
0, 6
4, 6
3, 5
4, 2
0, 3
0, 6
2, 3
1, 1
4, 3
0, 5
1, 3
3, 4
3, 2
2, 1
1, 2
1, 3
0, 0
1, 3
2, 0
5, 1
2, 0
1, 6
3, 1
2, 3
2, 0
2, 5
2, 1
1, 0
2, 2
3, 2
6, 2
4, 3
6, 2
3, 3
4, 0
3, 5
4, 5
2, 7
2, 2
1, 6
2, 1
1, 3
2, 6
2, 2
2, 4
3, 2
2, 6
5, 4
4, 4
2, 3
4, 11
1, 4
3, 2
1, 2
1, 4
1, 3
1, 2
2, 2
1, 1
0, 0
1, 2
2, 4
2, 1
1, 0
1, 0
1, 3
0, 0
2, 1
2, 1
0, 1
1, 2
0, 0
3, 1
3, 5
1, 2
1, 4
2, 2
2, 2
3, 1
4, 4
2, 0
0, 2
2, 2
0, 2
1, 0
3, 0
3, 0
3, 0
0, 1
3, 1
0, 0
3, 1
2, 1
0, 1
1, 2
0, 0
1, 1
1, 1
1, 2
0, 2
1, 1
1, 1
0, 0
0, 2
3, 2
1, 1
1, 0
1, 1
3, 0
1, 0
1, 2
2, 0
1, 1
0, 0
1, 0
0, 0
1, 0
0, 2
1, 0
1, 0
1, 1
1, 1
1, 0
1, 0
1, 1
0, 3
1, 1
1, 0
0, 0
0, 0
0, 0
0, 0
0, 3
1, 1
1, 1
1, 0
0, 1
2, 2
1, 0
1, 0
0, 1
0, 0
1, 1
1, 0
0, 0
1, 1
0, 1
0, 1
1, 1
1, 0
0, 1
0, 2
0, 0
0, 0
0, 0
2, 1
0, 1
1, 2
1, 1
0, 1
0, 2
0, 0
0, 0
0, 0
0, 1
2, 0
1, 1
1, 2
0, 0
0, 1
0, 0
0, 2
1, 2
1, 1
0, 2
0, 1
0, 2
0, 0
0, 0
1, 0
0, 0
1, 0
1, 1
0, 0
1, 0
0, 1
1, 0
1, 2
1, 0
1, 0
0, 1
0, 1
0, 1
0, 0
2, 0
0, 0
0, 0
1, 1
1, 0
0, 0
0, 0
0, 1
1, 0
0, 1
1, 1
0, 1
0, 0
1, 0
0, 1
1, 1
0, 0
1, 0
0, 0
0, 0
0, 0
0, 0
0, 0
0, 0
1, 1
1, 0
0, 0
0, 0
0, 0
0, 1
1, 1
1, 1
0, 1
0, 0
0, 0
0, 0
1, 0
0, 0
0, 0
0, 0
0, 1
0, 1
0, 0
0, 0
0, 0
0, 0
0, 0
1, 1
0, 1
0, 0
0, 0
0, 0
0, 0
0, 2
0, 0
0, 0
1, 0
0, 0
1, 0
0, 0
0, 0
0, 0
0, 0
0, 0
2, 0
0, 0
0, 2
0, 0
0, 1
0, 0
0, 0
0, 0
0, 0
1, 0
0, 0
0, 1
2, 0
0, 0
0, 1
0, 1
0, 1
0, 0
1, 0
0, 0
0, 0
0, 0
0, 0
0, 0
1, 0
0, 0
1, 0
0, 0
0, 0
1, 0
0, 0
0, 0
0, 0
0, 0
0, 0
0, 0
0, 0
1, 0
0, 0
1, 1
0, 0
0, 0
0, 0
0, 1
2, 0
2, 0
0, 0
0, 0
0, 0
0, 0
0, 0
0, 0
0, 0
0, 0
0, 0
0, 1
0, 0
0, 0
0, 0
0, 0
0, 0
0, 1
1, 0
0, 0
0, 0
0, 0
0, 1
0, 0
1, 0
0, 1
0, 0
0, 0
0, 0
0, 0
0, 0
0, 0
0, 0
0, 0
0, 0
0, 0
0, 1
0, 0
0, 0
0, 0
0, 0
0, 0
1, 0
0, 0
1, 0
0, 0
0, 0
0, 0
0, 0
0, 0
0, 0
0, 0
0, 0
0, 0
0, 0
0, 1
0, 0
0, 1
0, 0
1, 0
0, 0
0, 0
0, 0
1, 0
0, 0
0, 1
0, 0
0, 0
0, 0
0, 0
0, 0
0, 0
0, 0
0, 0
0, 0
0, 0
0, 0
0, 0
1, 0
0, 0
0, 0
0, 0
0, 0
0, 0
0, 0
1, 0
0, 0
0, 1
0, 0
0, 0
0, 0
0, 0
0, 0
0, 0
0, 0
0, 0
0, 0
0, 0
0, 0
0, 1
0, 1
0, 1
0, 0
0, 0
0, 1
0, 1
0, 0
0, 0
0, 0
0, 0
0, 0
0, 0
0, 0
0, 0
0, 0
0, 0
1, 0
0, 1
0, 0
0, 0
0, 0
0, 0
0, 0
0, 1
0, 0
0, 0
0, 0
0, 0
0, 0
0, 0
0, 0
0, 1
0, 0
0, 0
0, 0
0, 0
0, 0
0, 0
0, 0
0, 0
0, 0
0, 0
0, 0
0, 0
0, 0
0, 0
0, 0
0, 0
0, 0
0, 0
0, 0
0, 0
0, 0
0, 0
0, 0
0, 0
0, 0
0, 0
0, 0
0, 0
0, 0
0, 0
0, 0
0, 1
0, 0
0, 0
0, 0
0, 0
0, 0
0, 0
0, 0
0, 0
0, 0
0, 0
0, 0
0, 0
0, 0
0, 0
0, 1
0, 0
0, 0
0, 0
0, 0
0, 0
0, 0
0, 0
0, 0
0, 0
0, 0
1, 0
0, 0
0, 0
0, 0
0, 0
0, 0
0, 0
0, 0
0, 0
0, 1
0, 0
0, 0
0, 0
0, 0
0, 0
0, 0
0, 0
1, 0
0, 0
0, 0
0, 0
0, 0
0, 0
0, 0
0, 0
0, 0
0, 0
0, 0
0, 0
0, 0
0, 0
0, 0
0, 0
0, 0
0, 0
1, 0
0, 0
0, 0
0, 0
0, 0
0, 0
0, 0
0, 0
0, 0
0, 0
0, 0
0, 0
0, 0
0, 0
0, 0
0, 0
0, 0
0, 0
0, 0
0, 0
0, 0
0, 0
0, 0
0, 0
0, 0
0, 0
0, 0
0, 0
0, 0
0, 0
0, 0
0, 0
0, 0
0, 0
0, 0
0, 0
0, 0
0, 0
0, 0
0, 0
0, 0
0, 0
0, 0
0, 0
0, 0
0, 0
0, 0
0, 0
0, 0
0, 0
0, 0
0, 0
0, 0
0, 0
0, 0
0, 0
0, 0
0, 0
0, 0
0, 0
0, 0
0, 0
0, 0
0, 0
0, 0
0, 0
0, 0
0, 0
0, 0
0, 0
0, 0
0, 0
0, 0
0, 0
0, 0
0, 0
0, 0
0, 0
0, 0
0, 0
0, 0
0, 0
0, 0
0, 0
0, 0
0, 0
0, 0
0, 0
0, 0
0, 0
0, 0
0, 0
0, 0
0, 0
0, 0
0, 0
0, 0
0, 0
0, 0
0, 0
0, 0
0, 0
0, 0
0, 0
0, 0
0, 0
0, 0
0, 0
0, 0
0, 0
0, 0
0, 0
0, 0
0, 0
0, 0
0, 0
0, 0
0, 0
0, 0
0, 0
0, 0
0, 0
0, 0
0, 0
0, 0
0, 0
0, 0
0, 0
0, 0
0, 0
0, 0
0, 0
0, 0
0, 0
0, 0
0, 0
0, 0
0, 0
0, 0
0, 0
0, 0
0, 0
0, 0
0, 0
0, 0
0, 0
0, 0
0, 0
0, 0
0, 0
0, 0
0, 0
0, 0
0, 0
0, 0
0, 0
0, 0
0, 0
0, 0
0, 0
0, 0
0, 0
0, 0
0, 0
0, 0
0, 0
0, 0
0, 0
0, 0
0, 0
0, 0
0, 0
0, 0
0, 0
0, 0
0, 0
0, 0
0, 0
0, 0
0, 0
0, 0
0, 0
0, 0
0, 0
0, 0
0, 0
0, 0
0, 0
0, 0
0, 0
0, 0
0, 0
0, 0
0, 0
0, 0
0, 0
0, 0
0, 0
0, 0
0, 0
0, 0
0, 0
0, 0
0, 0
0, 0
0, 0
0, 0
0, 0
0, 0
0, 0
0, 0
0, 0
0, 0
0, 0
0, 0
0, 0
0, 0
0, 0
0, 0
0, 0
0, 0
0, 0
0, 0
0, 0
0, 0
0, 0
0, 0
0, 0
0, 0
0, 0
0, 0
0, 0
0, 0
0, 0
0, 0
0, 0
0, 0
0, 0
0, 0
0, 0
0, 0
0, 0
0, 0
0, 0
0, 0
0, 0
0, 0
0, 0
0, 0
0, 0
0, 0
0, 0
0, 0
0, 0
0, 0
0, 0
0, 0
0, 0
0, 0
0, 0
0, 0
0, 0
0, 0
0, 0
0, 0
0, 0
0, 0
0, 0
0, 0
0, 0
0, 0
0, 0
0, 0
0, 0
0, 0
0, 0
0, 0
0, 0
0, 0
0, 0
0, 0
0, 0
0, 0
0, 0
0, 0
0, 0
0, 0
0, 0
0, 0
0, 0
0, 0
0, 0
0, 0
0, 0
0, 0
0, 0
0, 0
0, 0
0, 0
0, 0
0, 0
0, 0
0, 0
0, 0
0, 0
0, 0
0, 0
0, 0
0, 0
0, 0
0, 0
0, 0
0, 0
0, 0
0, 0
0, 0
0, 0
0, 0
0, 0
0, 0
0, 0
0, 0
0, 0
0, 0
0, 0
0, 0
0, 0
0, 0
0, 0
0, 0
0, 0
0, 0
0, 0
0, 0
0, 0
0, 0
0, 0
0, 0
0, 0
0, 0
0, 0
0, 0
0, 0
0, 0
0, 0
0, 0
#ENDOFDATA     end of spectrum data