File: host_upload/06-09-2024/ps_0852/dump3/ps__0852shot_2562.msa
#FORMAT      : EMSA/MAS spectral data file
#VERSION     : TC202v2.0 PIXL
#TITLE       : N/A
#DATE        :       Date in the format DD-MMM-YYYY, for example 07-JUL-2010
#TIME        :             The time of day at which the spectrum was recorded, in 24-hour format
#OWNER       : PIXL Flight Model       (PIXL will use this to indicate which instrument took the data.)
#NPOINTS     : 4096     Number of data points in the spectrum (This can be zero for configuration only files)
#NCOLUMNS    : 2     Number of data columns in the spectrum (This can be zero for configuration only files)
#XUNITS      : eV
#YUNITS      : COUNTS
#DATATYPE    : YY
#XPERCHAN    : 7.862, 7.881   eV per channel (separate by commas if more than one detector)
#OFFSET      : 18.5, -22.4         eV of first channel  (separate by commas if more than one detector
#SIGNALTYPE  : XRF
#YP_TEMP     : 2.075
#LIVETIME    : 8.5179, 8.52752   seconds (separate by commas if more than one detector)
#REALTIME    : 10, 10.0   seconds (separate by commas if more than one detector)
#SPECTRUM    : start of spectrum data
0, 0
0, 0
0, 0
0, 0
0, 0
0, 0
0, 0
0, 0
0, 0
0, 0
0, 0
0, 0
0, 0
0, 0
0, 0
0, 0
0, 0
0, 0
0, 0
0, 0
0, 0
0, 0
0, 0
0, 0
0, 0
0, 0
0, 0
0, 0
0, 0
0, 0
0, 0
1, 0
0, 0
1, 0
1, 0
0, 1
0, 0
1, 0
0, 0
2, 0
2, 2
0, 0
1, 3
2, 1
1, 1
2, 2
1, 1
3, 4
9, 3
9, 16
27, 14
36, 39
60, 50
74, 68
66, 91
77, 88
53, 53
35, 29
36, 28
10, 17
10, 14
13, 6
11, 10
10, 13
10, 11
24, 12
7, 9
17, 19
16, 32
43, 46
97, 105
149, 211
273, 313
367, 368
434, 474
441, 445
382, 393
302, 286
188, 200
134, 145
58, 57
46, 41
20, 19
15, 15
15, 9
11, 10
14, 16
10, 7
11, 7
8, 7
4, 5
7, 5
3, 3
1, 1
1, 0
7, 5
5, 2
6, 2
10, 8
8, 7
7, 5
4, 5
3, 6
5, 7
2, 7
3, 9
8, 9
11, 19
11, 27
28, 29
46, 57
64, 57
68, 62
56, 67
58, 68
64, 58
64, 77
51, 50
37, 36
35, 29
28, 31
26, 37
18, 18
26, 22
16, 15
21, 14
16, 23
9, 10
10, 11
13, 7
5, 8
4, 2
5, 8
7, 2
3, 6
1, 6
7, 6
5, 8
9, 12
16, 11
19, 18
20, 17
11, 15
13, 16
11, 7
11, 9
4, 11
4, 2
5, 4
6, 1
4, 8
6, 8
13, 13
16, 24
35, 37
33, 38
40, 44
34, 39
42, 42
29, 33
42, 27
15, 19
20, 13
14, 7
7, 5
4, 5
5, 7
3, 9
9, 7
10, 3
7, 12
5, 5
14, 12
13, 7
5, 7
8, 6
7, 3
3, 4
1, 4
4, 4
8, 3
3, 5
5, 1
7, 3
5, 1
6, 2
3, 4
7, 13
6, 10
12, 13
14, 12
24, 16
22, 26
33, 20
36, 12
37, 17
64, 16
53, 17
48, 10
54, 14
55, 11
41, 12
37, 10
25, 10
30, 5
21, 3
13, 13
14, 5
13, 8
15, 5
11, 7
15, 7
10, 7
10, 7
6, 8
6, 3
8, 5
3, 5
5, 12
7, 5
11, 6
6, 6
6, 8
9, 10
13, 8
6, 7
15, 12
15, 11
27, 10
15, 10
34, 15
36, 8
27, 11
49, 8
54, 14
47, 10
40, 7
45, 4
33, 7
27, 6
20, 6
14, 7
12, 7
11, 19
17, 21
14, 24
31, 40
34, 37
37, 41
57, 66
51, 56
60, 61
59, 50
59, 36
58, 42
46, 28
39, 24
21, 21
7, 24
30, 32
21, 38
29, 60
45, 99
78, 151
140, 287
275, 416
457, 665
766, 965
1123, 1349
1577, 1808
2024, 2112
2289, 2372
2379, 2494
2340, 2213
2070, 1915
1624, 1486
1321, 1086
847, 703
559, 427
329, 224
166, 109
95, 62
50, 31
20, 21
25, 17
19, 11
16, 18
9, 12
13, 23
19, 22
19, 21
36, 33
50, 45
53, 88
88, 139
154, 150
192, 238
279, 269
318, 337
349, 356
346, 374
355, 323
304, 287
248, 197
192, 160
131, 117
74, 74
56, 43
30, 23
17, 16
13, 5
6, 10
7, 4
8, 11
14, 11
12, 13
23, 11
20, 14
17, 21
21, 16
15, 16
23, 6
10, 4
21, 7
11, 5
15, 6
4, 3
5, 6
5, 7
6, 4
4, 4
2, 3
3, 3
6, 7
3, 4
2, 7
4, 4
6, 4
7, 6
10, 7
9, 5
6, 7
3, 7
13, 17
6, 6
5, 5
4, 7
4, 7
7, 5
6, 7
3, 4
10, 4
10, 1
4, 4
7, 2
7, 2
8, 6
4, 6
7, 4
2, 1
5, 3
4, 3
6, 0
4, 5
2, 6
2, 9
2, 5
3, 7
7, 9
3, 4
6, 2
1, 4
5, 7
4, 16
7, 7
5, 7
9, 19
15, 17
15, 31
20, 23
19, 24
16, 26
30, 37
31, 24
31, 20
25, 15
14, 10
27, 13
14, 11
10, 6
10, 4
16, 6
11, 3
4, 3
7, 3
5, 6
7, 3
3, 2
2, 2
5, 1
4, 5
2, 7
4, 3
5, 3
3, 1
1, 6
4, 3
5, 5
6, 2
5, 1
1, 2
6, 3
3, 2
5, 1
2, 3
6, 0
4, 4
7, 2
3, 1
4, 0
1, 2
3, 3
4, 3
9, 1
4, 4
2, 1
0, 0
2, 0
3, 5
2, 4
3, 1
4, 0
3, 1
5, 3
5, 4
4, 3
0, 3
3, 2
2, 4
2, 4
4, 2
1, 2
3, 4
1, 3
1, 3
2, 1
4, 6
2, 4
6, 3
3, 3
3, 3
5, 1
0, 2
1, 3
2, 2
4, 3
3, 1
3, 4
0, 1
2, 2
4, 4
6, 1
4, 2
4, 3
5, 1
4, 2
10, 2
12, 1
7, 0
11, 2
4, 4
3, 1
6, 5
8, 1
8, 1
4, 3
2, 1
3, 2
6, 4
0, 7
1, 5
6, 1
1, 1
1, 4
3, 4
3, 3
2, 5
1, 4
1, 3
0, 6
7, 7
4, 6
1, 5
1, 3
2, 4
0, 7
1, 2
2, 2
3, 0
0, 0
2, 6
1, 3
2, 3
0, 2
2, 2
2, 0
2, 0
4, 0
4, 0
3, 1
3, 2
5, 0
2, 4
1, 3
5, 1
4, 2
4, 3
1, 1
1, 1
2, 2
1, 3
1, 2
1, 3
2, 0
3, 2
1, 3
2, 4
3, 2
3, 5
2, 1
2, 4
4, 0
1, 3
2, 2
3, 3
2, 5
3, 2
3, 5
4, 0
2, 3
3, 4
3, 7
2, 3
6, 0
2, 6
3, 6
5, 3
2, 3
2, 2
4, 1
2, 2
2, 1
3, 2
2, 3
0, 2
1, 0
0, 3
0, 1
0, 2
1, 1
2, 0
1, 3
0, 5
1, 5
1, 0
2, 3
1, 6
2, 4
1, 2
4, 0
1, 3
5, 6
1, 2
0, 0
1, 0
5, 1
1, 1
0, 2
1, 0
1, 1
2, 1
0, 0
0, 0
2, 2
2, 1
1, 0
1, 2
1, 0
1, 0
1, 1
1, 1
0, 0
4, 1
2, 1
1, 0
0, 1
2, 0
1, 3
1, 2
1, 2
0, 2
1, 1
5, 1
0, 0
1, 1
1, 1
1, 3
0, 1
0, 2
2, 1
2, 0
1, 0
2, 0
3, 1
1, 0
1, 1
1, 1
0, 3
0, 0
0, 0
2, 1
0, 0
0, 1
0, 0
1, 1
2, 1
0, 0
0, 1
0, 0
0, 0
2, 3
0, 1
0, 1
1, 1
1, 0
1, 0
1, 2
2, 0
1, 1
0, 0
1, 2
1, 1
1, 1
3, 3
1, 0
0, 0
1, 1
0, 0
2, 0
0, 1
0, 0
0, 0
1, 0
0, 1
1, 0
1, 0
0, 1
0, 1
0, 0
1, 0
1, 2
0, 2
1, 1
2, 0
1, 0
0, 1
0, 0
1, 0
0, 1
0, 0
0, 0
2, 0
0, 1
0, 0
2, 0
1, 0
0, 0
2, 2
0, 1
1, 0
1, 0
0, 1
0, 1
1, 1
1, 0
0, 0
1, 0
0, 1
0, 0
1, 0
2, 0
0, 0
1, 0
1, 0
0, 0
0, 0
0, 0
1, 2
0, 1
0, 1
0, 1
1, 1
0, 0
1, 1
0, 1
0, 0
0, 1
0, 2
0, 0
0, 0
0, 0
1, 0
1, 1
1, 0
0, 1
0, 0
2, 0
1, 0
0, 0
0, 1
1, 1
0, 0
1, 0
0, 0
0, 1
1, 0
0, 1
2, 0
1, 0
0, 0
0, 0
0, 1
1, 0
0, 0
0, 0
0, 0
0, 1
0, 0
0, 0
0, 1
0, 1
0, 1
0, 1
1, 0
1, 0
0, 0
0, 1
1, 2
0, 0
0, 0
0, 0
0, 0
0, 1
0, 0
1, 0
1, 0
0, 0
0, 0
0, 0
0, 1
0, 0
0, 0
0, 0
0, 0
0, 0
1, 0
1, 0
1, 0
0, 1
0, 0
0, 0
1, 0
0, 0
0, 1
0, 0
0, 0
0, 0
0, 0
0, 1
1, 0
1, 0
1, 0
1, 1
0, 1
0, 0
0, 0
0, 0
1, 1
0, 0
2, 0
0, 0
0, 1
0, 1
0, 1
0, 0
1, 1
0, 0
1, 3
1, 1
0, 0
1, 2
0, 1
0, 0
0, 0
0, 0
0, 0
0, 1
1, 1
0, 0
0, 1
0, 0
0, 0
1, 0
0, 0
0, 0
0, 0
0, 1
0, 0
0, 0
0, 0
0, 0
0, 0
0, 0
0, 0
0, 0
0, 0
0, 0
0, 0
0, 0
0, 0
0, 0
0, 0
0, 2
0, 0
0, 1
1, 0
0, 0
0, 0
0, 0
0, 0
0, 0
0, 0
0, 1
0, 0
0, 0
0, 0
1, 0
0, 0
0, 0
0, 0
0, 0
0, 0
0, 0
0, 2
0, 0
0, 1
0, 0
0, 0
1, 1
0, 1
2, 0
0, 1
2, 0
0, 0
0, 0
0, 0
0, 0
0, 0
0, 0
0, 1
0, 0
0, 0
0, 0
0, 0
0, 0
0, 0
0, 0
0, 0
0, 0
0, 0
0, 0
0, 1
0, 1
0, 1
0, 0
0, 1
0, 0
1, 0
0, 0
0, 0
0, 0
0, 0
0, 0
0, 0
0, 0
0, 0
0, 0
0, 0
0, 0
0, 0
0, 0
0, 0
0, 0
0, 0
0, 0
1, 0
0, 0
0, 0
0, 0
0, 0
1, 0
0, 0
0, 1
0, 0
0, 0
0, 0
0, 0
0, 0
0, 0
0, 0
0, 0
0, 0
0, 0
0, 0
0, 0
0, 0
0, 0
0, 0
0, 0
0, 0
0, 0
0, 0
0, 0
0, 0
0, 0
0, 0
0, 0
0, 0
0, 0
0, 0
0, 0
0, 0
0, 0
0, 0
0, 0
0, 0
0, 0
0, 0
0, 0
0, 1
0, 0
0, 0
0, 0
0, 0
0, 0
0, 0
0, 0
0, 0
0, 0
0, 0
0, 1
0, 0
1, 0
0, 0
0, 0
0, 0
0, 0
0, 0
0, 0
0, 0
0, 0
0, 0
0, 0
0, 0
0, 0
0, 0
0, 0
0, 0
0, 0
0, 0
0, 0
0, 0
0, 0
0, 0
0, 0
0, 0
0, 0
0, 0
1, 0
0, 0
0, 0
0, 0
0, 0
0, 0
0, 0
0, 0
0, 0
0, 0
0, 0
0, 0
0, 0
0, 0
0, 0
0, 0
0, 0
0, 0
0, 0
0, 0
0, 0
0, 0
0, 0
0, 0
0, 0
0, 0
0, 0
0, 0
0, 0
0, 0
0, 0
0, 0
0, 0
0, 0
0, 0
0, 0
0, 0
0, 0
0, 0
0, 0
0, 0
0, 0
0, 0
0, 0
0, 0
0, 0
0, 0
0, 0
0, 0
0, 0
1, 0
0, 0
0, 0
0, 0
0, 0
0, 0
0, 0
0, 0
0, 0
0, 0
0, 0
0, 0
0, 0
0, 0
0, 0
0, 0
0, 0
0, 0
0, 0
0, 0
0, 0
0, 0
0, 0
0, 0
0, 0
0, 0
0, 0
0, 0
0, 0
0, 0
0, 0
0, 0
0, 0
0, 0
0, 0
0, 0
0, 0
0, 0
0, 0
0, 0
0, 0
0, 0
0, 0
0, 0
0, 0
0, 0
0, 0
0, 0
0, 0
0, 0
0, 0
0, 0
0, 0
0, 0
0, 0
0, 0
0, 0
0, 0
0, 0
0, 0
0, 0
0, 0
0, 0
0, 0
0, 0
0, 0
0, 0
0, 0
0, 0
0, 0
0, 0
0, 0
0, 0
0, 0
0, 0
0, 0
0, 0
0, 0
0, 0
0, 0
0, 0
0, 0
0, 0
0, 0
0, 0
0, 0
0, 0
0, 0
0, 0
0, 0
0, 0
0, 0
0, 0
0, 0
0, 0
0, 0
0, 0
0, 0
0, 0
0, 0
0, 0
0, 0
0, 0
0, 0
0, 0
0, 0
0, 0
0, 0
0, 0
0, 0
0, 0
0, 0
0, 0
0, 0
0, 0
0, 0
0, 0
0, 0
0, 0
0, 0
0, 0
0, 0
0, 0
0, 0
0, 0
0, 0
0, 0
0, 0
0, 0
0, 0
0, 0
0, 0
0, 0
0, 0
0, 0
0, 0
0, 0
0, 0
0, 0
0, 0
0, 0
0, 0
0, 0
0, 0
0, 0
0, 0
0, 0
0, 0
0, 0
0, 0
0, 0
0, 0
0, 0
0, 0
0, 0
0, 0
0, 0
0, 0
0, 0
0, 0
0, 0
0, 0
0, 0
0, 0
0, 0
0, 0
0, 0
0, 0
0, 0
0, 0
0, 0
0, 0
0, 0
0, 0
0, 0
0, 0
0, 0
0, 0
0, 0
0, 0
0, 0
0, 0
0, 0
0, 0
0, 0
0, 0
0, 0
0, 0
0, 0
0, 0
0, 0
0, 0
0, 0
0, 0
0, 0
0, 0
0, 0
0, 0
0, 0
0, 0
0, 0
0, 0
0, 0
0, 0
0, 0
0, 0
0, 0
0, 0
0, 0
0, 0
0, 0
0, 0
0, 0
0, 0
0, 0
0, 0
0, 0
0, 0
0, 0
0, 0
0, 0
0, 0
0, 0
0, 0
0, 0
0, 0
0, 0
0, 0
0, 0
0, 0
0, 0
0, 0
0, 0
0, 0
0, 0
0, 0
0, 0
0, 0
0, 0
0, 0
0, 0
0, 0
0, 0
0, 0
0, 0
0, 0
0, 0
0, 0
0, 0
0, 0
0, 0
0, 0
0, 0
0, 0
0, 0
0, 0
0, 0
0, 0
0, 0
0, 0
0, 0
0, 0
0, 0
0, 0
0, 0
0, 0
0, 0
0, 0
0, 0
0, 0
0, 0
0, 0
0, 0
0, 0
0, 0
0, 0
0, 0
0, 0
0, 0
0, 0
0, 0
0, 0
0, 0
0, 0
0, 0
0, 0
0, 0
0, 0
0, 0
0, 0
0, 0
0, 0
0, 0
0, 0
0, 0
0, 0
0, 0
0, 0
0, 0
0, 0
0, 0
0, 0
0, 0
0, 0
0, 0
0, 0
0, 0
0, 0
0, 0
0, 0
0, 0
0, 0
0, 0
0, 0
0, 0
0, 0
0, 0
0, 0
0, 0
0, 0
0, 0
0, 0
0, 0
0, 0
0, 0
0, 0
0, 0
0, 0
#ENDOFDATA     end of spectrum data