File: host_upload/06-09-2024/ps_0852/dump3/ps__0852shot_2239.msa
#FORMAT      : EMSA/MAS spectral data file
#VERSION     : TC202v2.0 PIXL
#TITLE       : N/A
#DATE        :       Date in the format DD-MMM-YYYY, for example 07-JUL-2010
#TIME        :             The time of day at which the spectrum was recorded, in 24-hour format
#OWNER       : PIXL Flight Model       (PIXL will use this to indicate which instrument took the data.)
#NPOINTS     : 4096     Number of data points in the spectrum (This can be zero for configuration only files)
#NCOLUMNS    : 2     Number of data columns in the spectrum (This can be zero for configuration only files)
#XUNITS      : eV
#YUNITS      : COUNTS
#DATATYPE    : YY
#XPERCHAN    : 7.862, 7.881   eV per channel (separate by commas if more than one detector)
#OFFSET      : 18.5, -22.4         eV of first channel  (separate by commas if more than one detector
#SIGNALTYPE  : XRF
#YP_TEMP     : 2.332
#LIVETIME    : 8.56289, 8.52623   seconds (separate by commas if more than one detector)
#REALTIME    : 10, 10.0   seconds (separate by commas if more than one detector)
#SPECTRUM    : start of spectrum data
0, 0
0, 0
0, 0
0, 0
0, 0
0, 0
0, 0
0, 0
0, 0
0, 0
0, 0
0, 0
0, 0
0, 0
0, 0
0, 0
0, 0
0, 0
0, 0
0, 0
0, 0
0, 0
0, 0
0, 0
0, 0
0, 0
0, 0
0, 0
0, 0
0, 0
0, 0
0, 0
0, 0
0, 0
0, 1
0, 0
0, 0
0, 1
1, 0
0, 0
0, 0
0, 0
1, 1
1, 1
1, 1
1, 1
3, 0
3, 1
8, 12
9, 8
29, 25
42, 31
57, 46
81, 66
80, 75
88, 67
63, 58
37, 45
35, 27
16, 15
9, 7
10, 4
3, 7
2, 2
2, 3
5, 3
2, 5
11, 7
28, 15
51, 45
96, 84
212, 146
241, 239
405, 330
488, 399
476, 384
389, 347
331, 279
201, 172
132, 97
68, 56
37, 38
21, 19
9, 2
7, 5
4, 4
1, 1
3, 1
1, 1
0, 1
0, 0
1, 3
0, 0
0, 0
0, 0
0, 3
0, 2
4, 6
1, 1
6, 1
2, 1
5, 3
5, 2
2, 1
3, 0
1, 1
4, 3
3, 3
8, 4
11, 3
12, 8
25, 13
24, 15
47, 13
47, 15
49, 20
52, 17
43, 29
38, 16
39, 14
21, 14
28, 11
17, 10
21, 15
11, 7
19, 10
16, 14
4, 5
11, 8
6, 6
6, 3
3, 1
3, 3
3, 1
3, 3
1, 5
3, 1
3, 5
4, 1
1, 2
3, 2
1, 0
2, 2
2, 2
2, 1
2, 3
3, 3
1, 6
2, 5
3, 12
3, 28
2, 29
4, 42
7, 41
12, 50
14, 44
24, 35
17, 37
21, 28
20, 15
13, 8
8, 13
4, 6
7, 3
8, 6
1, 4
4, 3
3, 7
5, 4
3, 3
9, 4
5, 3
7, 6
6, 5
6, 4
5, 2
7, 5
5, 3
8, 2
6, 1
15, 1
6, 1
8, 1
14, 1
16, 5
18, 3
17, 4
16, 2
27, 5
19, 7
26, 6
27, 8
26, 9
20, 7
27, 6
23, 11
18, 10
19, 14
29, 13
15, 15
21, 12
15, 10
16, 7
18, 6
12, 9
10, 11
10, 8
6, 5
6, 11
8, 6
6, 8
8, 7
4, 10
2, 8
5, 6
2, 13
9, 19
4, 7
3, 13
5, 6
3, 9
9, 2
7, 3
8, 12
10, 11
7, 10
5, 9
8, 14
10, 6
13, 27
11, 21
20, 18
20, 19
14, 28
15, 20
12, 17
11, 20
11, 20
8, 11
18, 10
21, 17
20, 4
22, 6
24, 15
29, 15
42, 25
48, 34
55, 32
65, 62
86, 51
84, 76
79, 56
89, 48
72, 41
36, 41
43, 26
33, 26
29, 18
32, 9
30, 14
51, 18
71, 23
94, 54
147, 89
181, 212
326, 323
540, 527
860, 905
1205, 1212
1687, 1688
2094, 2016
2412, 2239
2589, 2232
2561, 2132
2288, 1834
1886, 1343
1423, 980
973, 647
668, 413
378, 250
195, 124
116, 82
63, 45
34, 24
19, 26
8, 23
12, 13
19, 22
18, 22
12, 24
34, 33
43, 42
47, 48
83, 90
120, 106
154, 166
214, 207
296, 221
380, 313
395, 359
374, 323
376, 301
326, 246
256, 189
186, 172
145, 81
111, 63
72, 37
46, 18
29, 14
20, 12
20, 11
22, 5
19, 9
20, 11
34, 10
19, 12
25, 13
18, 7
16, 11
14, 14
8, 9
10, 10
6, 6
9, 5
7, 5
8, 4
5, 4
5, 0
5, 4
5, 2
7, 5
3, 4
1, 1
6, 5
4, 5
3, 1
3, 6
5, 1
3, 4
4, 2
3, 4
6, 3
2, 7
6, 3
13, 8
7, 2
6, 3
8, 9
6, 4
4, 2
5, 9
9, 7
7, 5
7, 1
2, 7
9, 1
6, 7
3, 2
4, 3
10, 3
4, 5
7, 9
5, 6
6, 4
7, 6
7, 8
4, 5
5, 9
2, 7
7, 1
9, 5
5, 13
4, 3
8, 5
5, 5
1, 4
3, 6
9, 5
4, 5
1, 2
2, 4
3, 4
4, 5
3, 1
3, 6
1, 3
3, 5
1, 6
2, 5
5, 6
7, 3
5, 1
5, 7
5, 5
2, 5
12, 6
8, 4
5, 5
6, 7
8, 2
2, 9
2, 6
4, 10
6, 5
2, 5
3, 4
4, 8
2, 4
4, 2
2, 3
4, 7
5, 6
2, 3
4, 3
1, 3
1, 1
2, 4
4, 2
6, 4
4, 3
3, 2
7, 3
1, 4
3, 3
5, 1
5, 2
6, 6
5, 1
3, 4
8, 4
2, 5
7, 8
8, 6
5, 6
10, 2
8, 7
5, 7
7, 11
4, 9
5, 5
4, 3
4, 5
4, 0
2, 1
7, 2
4, 0
3, 2
3, 0
4, 2
3, 1
5, 2
4, 1
3, 3
0, 3
5, 0
4, 4
8, 0
1, 4
3, 1
2, 3
3, 3
2, 2
3, 7
3, 1
2, 5
3, 2
2, 2
5, 0
2, 3
1, 1
8, 3
4, 3
1, 4
4, 1
1, 1
2, 2
0, 1
1, 2
2, 1
7, 3
6, 4
2, 2
3, 3
7, 0
4, 0
4, 2
1, 1
2, 2
5, 2
2, 2
6, 3
2, 2
2, 0
4, 5
1, 5
4, 4
2, 3
3, 0
1, 4
4, 1
2, 2
3, 2
5, 5
5, 0
2, 1
3, 2
5, 1
2, 0
4, 2
1, 0
0, 3
3, 3
3, 0
2, 1
0, 1
2, 3
4, 3
3, 4
4, 0
2, 2
2, 2
1, 2
2, 1
2, 3
2, 2
2, 2
4, 1
0, 1
1, 6
3, 1
1, 2
0, 0
5, 0
0, 0
0, 2
5, 2
4, 4
1, 3
2, 1
5, 2
4, 3
5, 3
4, 5
5, 3
3, 1
4, 2
3, 1
3, 3
3, 0
3, 0
4, 1
2, 0
1, 0
1, 3
2, 4
2, 1
2, 0
3, 1
3, 1
2, 1
1, 0
0, 0
3, 4
1, 0
2, 1
1, 5
1, 2
2, 2
2, 1
5, 2
0, 1
3, 2
2, 2
2, 0
1, 2
3, 1
0, 0
3, 2
3, 1
0, 2
1, 1
1, 1
1, 0
3, 0
0, 0
1, 1
2, 0
2, 3
0, 1
0, 0
0, 0
1, 0
1, 2
0, 3
0, 1
0, 2
2, 0
3, 1
1, 1
2, 0
0, 0
0, 0
0, 0
3, 2
0, 1
1, 1
0, 2
2, 0
2, 2
2, 0
1, 1
1, 0
3, 0
1, 0
0, 1
1, 1
2, 0
2, 0
0, 0
2, 0
1, 1
1, 0
0, 0
1, 2
0, 0
0, 2
1, 0
0, 0
1, 1
1, 1
1, 0
0, 0
0, 0
1, 1
0, 1
1, 1
1, 0
0, 0
2, 2
0, 0
0, 2
1, 4
0, 0
1, 3
0, 3
2, 0
1, 0
0, 0
0, 0
0, 1
0, 1
1, 0
1, 1
1, 0
1, 3
2, 0
0, 0
1, 0
1, 1
0, 0
0, 1
0, 1
1, 0
0, 0
0, 1
1, 0
1, 3
0, 2
2, 1
1, 0
1, 0
0, 0
2, 1
1, 0
2, 0
1, 1
1, 0
0, 0
1, 0
0, 0
0, 0
0, 0
0, 1
0, 1
1, 2
2, 1
0, 0
0, 0
0, 0
0, 0
0, 1
1, 0
0, 0
2, 1
2, 1
0, 1
0, 0
2, 0
0, 1
0, 1
0, 0
0, 0
1, 0
1, 1
2, 0
1, 0
1, 0
0, 1
2, 0
1, 1
0, 1
0, 0
0, 0
1, 0
1, 0
0, 0
0, 1
0, 0
1, 0
0, 0
0, 0
0, 0
0, 0
0, 0
1, 1
0, 1
0, 0
0, 0
0, 1
1, 0
0, 0
0, 0
0, 0
0, 1
0, 0
2, 0
0, 0
0, 1
0, 0
0, 0
1, 0
0, 0
0, 0
4, 0
1, 0
0, 0
0, 0
0, 1
0, 0
0, 0
0, 1
0, 0
0, 0
1, 0
1, 1
0, 2
0, 0
1, 0
0, 0
0, 1
2, 0
1, 0
2, 0
0, 0
0, 0
0, 0
0, 1
0, 0
0, 0
0, 0
0, 0
0, 0
0, 0
0, 0
1, 0
0, 0
0, 0
0, 0
0, 0
0, 0
0, 0
0, 0
1, 1
0, 0
0, 1
0, 1
0, 0
1, 0
1, 0
0, 0
0, 0
0, 1
0, 1
0, 0
0, 0
0, 2
1, 0
0, 2
0, 0
0, 0
0, 0
0, 0
0, 0
0, 1
0, 1
0, 0
0, 0
0, 0
0, 0
0, 1
1, 0
0, 1
0, 0
0, 0
0, 0
0, 0
0, 0
0, 0
0, 0
0, 0
0, 1
0, 0
1, 0
0, 0
0, 0
0, 0
1, 0
0, 1
0, 0
0, 0
0, 0
0, 0
0, 0
0, 0
0, 0
1, 0
0, 0
0, 0
0, 0
0, 0
0, 0
0, 0
1, 0
0, 2
0, 0
0, 0
0, 0
0, 0
0, 2
0, 0
0, 1
0, 0
0, 0
0, 0
0, 1
0, 0
0, 1
0, 0
0, 0
0, 1
0, 0
0, 0
0, 1
0, 0
0, 0
0, 0
0, 1
0, 0
0, 0
0, 0
0, 0
0, 0
0, 1
0, 0
0, 0
0, 0
0, 0
1, 0
0, 0
0, 0
0, 0
1, 0
0, 0
0, 0
0, 0
0, 0
0, 0
0, 0
0, 0
0, 0
0, 0
0, 0
0, 0
0, 1
0, 0
0, 0
0, 0
0, 0
0, 0
0, 0
0, 0
0, 0
0, 0
0, 0
0, 0
0, 0
0, 0
0, 0
0, 0
0, 0
0, 0
0, 0
0, 0
0, 0
0, 0
0, 0
0, 0
0, 0
0, 0
0, 0
0, 0
0, 0
0, 0
0, 0
0, 0
0, 0
0, 0
0, 0
0, 0
0, 0
0, 0
0, 0
0, 0
0, 0
0, 0
0, 0
0, 0
0, 0
0, 0
0, 0
0, 0
0, 0
0, 0
0, 0
0, 0
1, 0
0, 0
0, 0
0, 0
0, 0
0, 0
0, 0
0, 0
0, 0
0, 0
0, 0
0, 0
0, 0
1, 0
0, 0
0, 0
0, 0
0, 0
0, 0
0, 0
0, 0
0, 0
0, 0
0, 0
0, 0
0, 0
0, 0
0, 0
0, 0
0, 0
0, 0
0, 0
0, 0
0, 0
0, 0
0, 0
0, 0
0, 0
0, 0
0, 0
0, 0
0, 0
0, 0
0, 0
0, 0
0, 0
0, 0
0, 0
0, 0
0, 0
0, 0
0, 0
1, 0
0, 0
0, 0
0, 0
0, 0
0, 0
0, 0
0, 0
0, 0
0, 0
0, 0
0, 0
0, 0
0, 0
0, 0
0, 0
0, 0
0, 0
0, 0
0, 0
0, 1
0, 0
0, 0
0, 0
0, 0
0, 0
0, 0
0, 0
0, 0
0, 0
0, 0
0, 0
0, 0
0, 0
0, 0
0, 0
0, 0
0, 0
0, 0
0, 0
0, 0
0, 0
0, 0
0, 0
0, 0
0, 0
0, 0
0, 0
0, 0
0, 0
0, 0
0, 0
0, 0
0, 0
0, 0
1, 0
0, 0
0, 0
0, 0
0, 0
0, 0
0, 0
0, 0
0, 0
0, 0
0, 0
0, 0
0, 0
0, 0
0, 0
0, 0
0, 0
0, 0
0, 0
0, 0
0, 0
0, 0
0, 0
0, 0
0, 0
0, 0
0, 0
0, 0
0, 0
1, 0
0, 0
0, 0
0, 0
0, 0
0, 0
0, 0
0, 0
0, 0
0, 0
0, 0
0, 0
0, 0
0, 0
0, 0
0, 0
0, 0
0, 0
0, 0
0, 0
0, 0
0, 0
0, 0
0, 0
0, 0
0, 0
0, 0
0, 0
0, 0
0, 0
0, 0
0, 0
0, 0
0, 0
0, 0
0, 0
0, 0
0, 0
0, 0
0, 0
0, 0
0, 0
0, 0
0, 0
0, 0
0, 0
0, 0
0, 0
0, 0
0, 0
0, 0
0, 0
0, 0
0, 0
0, 0
0, 0
0, 0
0, 0
0, 0
0, 0
0, 0
0, 0
0, 0
0, 0
0, 0
0, 0
0, 0
0, 0
0, 0
0, 0
0, 0
0, 0
0, 0
0, 0
0, 0
0, 0
0, 0
0, 0
0, 0
0, 0
0, 0
0, 0
0, 0
0, 0
0, 0
0, 0
0, 0
0, 0
0, 0
0, 0
0, 0
0, 0
0, 0
0, 0
0, 0
0, 0
0, 0
0, 0
0, 0
0, 0
0, 0
0, 0
0, 0
0, 0
0, 0
0, 0
0, 0
0, 0
0, 0
0, 0
0, 0
0, 0
0, 0
0, 0
0, 0
0, 0
0, 0
0, 0
0, 0
0, 0
0, 0
0, 0
0, 0
0, 0
0, 0
0, 0
0, 0
0, 0
0, 0
0, 0
0, 0
0, 0
0, 0
0, 0
0, 0
0, 0
0, 0
0, 0
0, 0
0, 0
0, 0
0, 0
0, 0
0, 0
0, 0
0, 0
0, 0
0, 0
0, 0
0, 0
0, 0
0, 0
0, 0
0, 0
0, 0
0, 0
0, 0
0, 0
0, 0
0, 0
0, 0
0, 0
0, 0
0, 0
0, 0
0, 0
0, 0
0, 0
0, 0
0, 0
0, 0
0, 0
0, 0
0, 0
0, 0
0, 0
0, 0
0, 0
0, 0
0, 0
0, 0
0, 0
0, 0
0, 0
0, 0
0, 0
0, 0
0, 0
0, 0
0, 0
0, 0
0, 0
0, 0
0, 0
0, 0
0, 0
0, 0
0, 0
0, 0
0, 0
0, 0
0, 0
0, 0
0, 0
0, 0
0, 0
0, 0
0, 0
0, 0
0, 0
0, 0
0, 0
0, 0
0, 0
0, 0
0, 0
0, 0
0, 0
0, 0
0, 0
0, 0
0, 0
0, 0
0, 0
0, 0
0, 0
0, 0
0, 0
0, 0
0, 0
0, 0
0, 0
0, 0
0, 0
0, 0
0, 0
0, 0
0, 0
0, 0
0, 0
0, 0
0, 0
0, 0
0, 0
0, 0
0, 0
0, 0
0, 0
0, 0
0, 0
0, 0
0, 0
0, 0
0, 0
0, 0
0, 0
0, 0
0, 0
0, 0
0, 0
0, 0
0, 0
0, 0
0, 0
0, 0
0, 0
0, 0
0, 0
0, 0
0, 0
0, 0
0, 0
0, 0
0, 0
0, 0
0, 0
0, 0
0, 0
0, 0
0, 0
0, 0
0, 0
0, 0
0, 0
#ENDOFDATA     end of spectrum data