File: host_upload/06-09-2024/ps_0852/dump3/ps__0852shot_2477.msa
#FORMAT      : EMSA/MAS spectral data file
#VERSION     : TC202v2.0 PIXL
#TITLE       : N/A
#DATE        :       Date in the format DD-MMM-YYYY, for example 07-JUL-2010
#TIME        :             The time of day at which the spectrum was recorded, in 24-hour format
#OWNER       : PIXL Flight Model       (PIXL will use this to indicate which instrument took the data.)
#NPOINTS     : 4096     Number of data points in the spectrum (This can be zero for configuration only files)
#NCOLUMNS    : 2     Number of data columns in the spectrum (This can be zero for configuration only files)
#XUNITS      : eV
#YUNITS      : COUNTS
#DATATYPE    : YY
#XPERCHAN    : 7.862, 7.881   eV per channel (separate by commas if more than one detector)
#OFFSET      : 18.5, -22.4         eV of first channel  (separate by commas if more than one detector
#SIGNALTYPE  : XRF
#YP_TEMP     : 2.396
#LIVETIME    : 8.56134, 8.56406   seconds (separate by commas if more than one detector)
#REALTIME    : 10, 10.0   seconds (separate by commas if more than one detector)
#SPECTRUM    : start of spectrum data
0, 0
0, 0
0, 0
0, 0
0, 0
0, 0
0, 0
0, 0
0, 0
0, 0
0, 0
0, 0
0, 0
0, 0
0, 0
0, 0
0, 0
0, 0
0, 0
0, 0
0, 0
0, 0
0, 0
0, 0
0, 0
0, 0
0, 0
0, 0
0, 0
0, 0
0, 0
0, 0
0, 0
0, 0
0, 0
0, 1
0, 0
1, 1
0, 0
1, 0
1, 1
2, 2
1, 0
0, 2
3, 0
2, 1
1, 2
8, 1
5, 6
7, 8
28, 11
41, 30
74, 52
83, 62
82, 59
83, 62
67, 50
50, 36
32, 16
15, 11
8, 5
4, 6
2, 1
6, 2
1, 1
2, 4
3, 4
6, 9
23, 17
46, 36
98, 83
190, 160
276, 242
350, 311
486, 344
477, 400
414, 302
282, 249
222, 152
135, 97
75, 58
34, 33
20, 12
9, 10
4, 6
7, 4
2, 3
2, 2
0, 1
0, 3
1, 1
0, 1
1, 1
1, 3
11, 7
13, 8
18, 14
19, 18
16, 25
22, 29
29, 25
18, 12
16, 18
15, 8
9, 6
5, 6
6, 10
10, 4
5, 15
15, 10
19, 26
36, 24
42, 29
43, 35
70, 36
57, 53
55, 38
66, 29
98, 40
72, 25
64, 29
63, 23
48, 28
31, 27
19, 20
20, 22
11, 17
8, 13
5, 10
5, 6
8, 8
5, 2
2, 3
2, 3
1, 1
4, 0
1, 1
0, 1
3, 5
2, 1
3, 3
2, 3
4, 3
0, 3
1, 3
1, 2
2, 4
2, 0
6, 1
8, 4
6, 4
9, 6
10, 8
24, 20
32, 20
33, 23
38, 41
48, 30
46, 32
39, 36
38, 17
27, 21
18, 7
10, 11
6, 4
7, 7
2, 5
5, 6
7, 2
12, 4
11, 10
9, 18
11, 16
8, 12
11, 7
6, 9
9, 8
5, 10
5, 2
9, 3
4, 4
6, 1
9, 2
7, 1
6, 5
5, 2
4, 2
5, 3
9, 2
5, 5
12, 8
8, 6
6, 7
12, 16
14, 6
15, 16
15, 12
18, 19
19, 13
12, 8
11, 8
15, 11
6, 7
7, 3
8, 5
5, 7
5, 8
3, 6
2, 6
4, 2
6, 7
9, 3
5, 7
6, 6
0, 10
4, 7
10, 4
5, 2
8, 5
3, 15
2, 8
7, 11
3, 9
6, 8
8, 10
8, 15
11, 6
16, 10
14, 9
17, 14
28, 9
25, 14
19, 13
43, 15
40, 9
51, 8
49, 14
50, 11
46, 7
50, 13
42, 20
32, 14
37, 19
22, 26
16, 14
19, 32
32, 49
41, 41
50, 52
62, 47
69, 53
62, 65
65, 71
51, 60
45, 49
45, 46
36, 51
20, 62
23, 46
10, 45
25, 43
28, 44
41, 68
79, 87
155, 167
274, 287
516, 526
796, 865
1187, 1251
1629, 1602
2061, 2109
2373, 2278
2487, 2288
2478, 2070
2223, 1841
1896, 1465
1343, 970
944, 661
602, 423
339, 246
208, 130
105, 70
47, 55
31, 21
19, 29
11, 33
19, 24
11, 26
15, 22
18, 21
19, 26
38, 39
46, 51
71, 81
88, 124
135, 147
206, 218
252, 262
315, 313
375, 341
381, 342
385, 289
322, 233
298, 200
172, 142
126, 101
78, 78
50, 39
33, 28
26, 23
13, 11
10, 12
10, 12
14, 11
9, 18
17, 14
15, 11
19, 16
15, 10
23, 5
8, 7
7, 6
8, 7
7, 8
4, 1
6, 8
4, 2
4, 6
3, 6
5, 5
6, 11
2, 4
7, 5
3, 4
7, 3
6, 5
3, 6
6, 3
1, 5
6, 4
6, 11
5, 2
9, 3
8, 2
3, 8
3, 7
4, 9
7, 8
7, 4
4, 7
10, 6
8, 14
7, 11
12, 21
5, 14
10, 18
9, 12
8, 18
9, 8
7, 16
8, 8
4, 8
8, 7
1, 5
5, 5
6, 5
3, 7
8, 5
2, 3
6, 6
3, 8
9, 3
2, 2
4, 4
3, 4
4, 2
7, 4
3, 4
5, 1
3, 3
7, 3
8, 1
1, 5
5, 1
2, 3
5, 8
1, 5
3, 4
3, 3
5, 4
1, 9
4, 4
2, 5
0, 4
4, 10
2, 3
5, 3
3, 2
3, 5
2, 1
1, 7
2, 2
6, 2
3, 6
4, 2
3, 4
1, 1
1, 4
3, 1
3, 5
2, 3
2, 3
1, 3
5, 1
2, 2
2, 5
5, 2
5, 5
0, 3
3, 1
1, 1
1, 4
3, 2
2, 1
1, 4
2, 2
1, 1
4, 3
2, 1
2, 2
2, 1
7, 2
2, 3
1, 2
3, 5
5, 0
0, 0
3, 4
3, 5
6, 2
2, 3
0, 2
3, 3
4, 2
2, 1
7, 2
3, 2
4, 2
3, 3
1, 2
3, 3
2, 2
3, 4
3, 4
0, 4
7, 6
3, 1
2, 4
4, 4
2, 3
6, 1
0, 2
3, 4
1, 1
2, 1
3, 2
4, 4
4, 1
4, 1
0, 0
3, 2
1, 3
3, 2
2, 4
4, 4
2, 2
5, 1
2, 3
3, 2
2, 0
4, 2
3, 2
2, 2
5, 1
2, 3
2, 0
1, 6
2, 1
2, 3
4, 3
3, 4
1, 0
5, 4
2, 0
5, 2
0, 3
5, 1
2, 4
1, 1
5, 3
4, 5
0, 4
1, 3
5, 2
1, 2
3, 0
1, 1
2, 0
1, 1
2, 2
1, 2
3, 2
2, 2
0, 1
4, 2
2, 0
3, 1
3, 2
1, 0
3, 0
4, 2
1, 3
1, 3
2, 1
2, 3
2, 2
4, 3
4, 2
5, 0
4, 0
2, 0
2, 2
2, 2
0, 1
2, 4
1, 4
0, 2
5, 3
4, 4
9, 5
4, 2
4, 2
3, 5
3, 6
7, 5
2, 2
2, 4
2, 4
3, 0
2, 1
0, 1
2, 3
1, 1
0, 1
1, 0
1, 2
1, 4
3, 1
1, 4
1, 1
1, 1
3, 0
2, 1
3, 2
4, 0
0, 3
1, 2
2, 4
4, 2
2, 1
4, 2
3, 1
1, 0
1, 1
4, 2
1, 3
2, 4
2, 0
2, 0
3, 0
0, 0
0, 1
2, 1
1, 2
0, 0
2, 2
1, 1
1, 1
1, 1
1, 0
0, 0
1, 1
3, 2
0, 3
2, 0
0, 1
0, 1
2, 3
2, 0
0, 1
1, 1
0, 1
3, 0
1, 0
3, 2
0, 1
1, 1
1, 0
3, 2
2, 4
0, 0
0, 2
1, 0
0, 0
0, 2
1, 2
1, 2
1, 0
1, 0
2, 1
0, 0
1, 2
0, 0
1, 3
0, 1
2, 0
1, 0
0, 0
0, 0
1, 0
1, 1
0, 0
1, 1
2, 0
0, 0
0, 0
0, 0
0, 0
1, 1
3, 1
0, 1
0, 1
1, 0
0, 1
0, 0
0, 1
0, 0
1, 0
0, 0
0, 2
0, 1
0, 1
2, 1
1, 1
3, 0
2, 0
1, 2
0, 0
0, 1
0, 2
2, 0
1, 1
1, 0
1, 0
0, 0
1, 1
1, 1
1, 0
1, 2
2, 1
1, 1
2, 3
1, 0
0, 0
0, 1
1, 0
0, 0
1, 0
1, 0
1, 3
0, 0
0, 0
0, 0
0, 0
1, 2
0, 0
1, 0
0, 1
0, 2
1, 0
1, 1
0, 2
0, 1
0, 0
0, 0
0, 0
0, 0
0, 0
0, 1
1, 0
0, 3
0, 1
0, 0
0, 0
0, 1
0, 0
0, 1
0, 0
0, 0
0, 0
1, 0
0, 1
0, 0
2, 0
0, 1
0, 0
0, 0
0, 0
0, 0
0, 0
0, 1
1, 0
1, 1
1, 1
0, 1
0, 0
0, 0
0, 0
1, 0
0, 2
0, 0
0, 0
0, 1
1, 0
1, 0
0, 0
0, 0
0, 0
1, 0
0, 1
0, 0
0, 0
0, 0
0, 0
0, 1
0, 2
0, 0
1, 0
0, 0
0, 1
0, 0
0, 0
1, 1
0, 0
0, 0
0, 0
0, 0
0, 0
0, 0
0, 0
0, 0
0, 0
0, 1
0, 0
0, 0
0, 2
0, 0
0, 1
0, 0
0, 0
0, 0
0, 0
0, 0
0, 1
0, 0
0, 0
0, 0
0, 0
0, 0
0, 0
1, 0
1, 1
0, 0
0, 2
0, 1
0, 0
1, 0
0, 0
0, 2
0, 0
0, 1
1, 1
1, 1
0, 0
0, 0
0, 0
0, 0
2, 0
1, 0
0, 0
1, 0
0, 1
0, 0
0, 0
0, 0
0, 0
0, 0
0, 0
1, 1
1, 0
1, 1
1, 0
0, 0
0, 0
0, 0
0, 0
0, 0
1, 0
0, 0
1, 0
0, 0
0, 0
0, 0
1, 1
0, 0
1, 0
1, 0
0, 0
0, 0
0, 0
0, 0
0, 0
0, 0
0, 0
0, 0
0, 0
0, 0
0, 0
0, 1
0, 0
0, 0
0, 0
1, 0
0, 0
0, 0
0, 1
0, 0
0, 0
0, 0
0, 0
1, 0
0, 0
0, 0
0, 0
0, 0
1, 0
0, 0
1, 1
0, 0
0, 0
0, 1
1, 0
0, 0
0, 0
1, 0
0, 0
0, 0
0, 0
1, 0
0, 0
0, 1
0, 0
0, 0
0, 0
0, 0
0, 0
0, 0
0, 0
0, 0
0, 1
0, 0
1, 0
0, 0
0, 0
0, 0
0, 0
0, 0
0, 0
0, 0
0, 0
0, 1
0, 0
0, 0
0, 0
0, 0
0, 0
0, 0
0, 0
0, 0
0, 0
0, 0
0, 0
0, 0
0, 0
0, 0
0, 0
0, 0
0, 0
0, 0
0, 0
0, 0
0, 0
0, 0
1, 0
0, 0
0, 0
0, 0
0, 1
0, 0
0, 0
0, 0
1, 0
0, 0
0, 0
0, 0
0, 0
0, 0
0, 0
0, 0
0, 0
0, 0
0, 0
0, 0
0, 0
0, 0
0, 0
0, 0
0, 1
0, 0
0, 0
0, 0
0, 0
0, 0
0, 0
0, 0
0, 0
0, 0
0, 0
0, 0
0, 0
0, 0
0, 0
0, 0
0, 1
0, 0
0, 0
0, 1
0, 0
0, 0
0, 0
0, 0
0, 0
0, 0
0, 0
0, 0
0, 0
0, 0
0, 0
0, 0
0, 0
0, 0
1, 1
0, 0
0, 0
0, 0
0, 0
0, 0
0, 0
0, 0
0, 0
0, 0
0, 0
0, 1
0, 0
0, 0
0, 0
0, 0
0, 0
0, 0
1, 0
0, 0
0, 0
0, 0
0, 0
0, 0
0, 0
0, 0
0, 0
0, 0
0, 0
0, 0
0, 0
0, 0
0, 0
0, 0
0, 0
0, 0
0, 0
0, 0
0, 0
0, 0
0, 0
0, 0
0, 0
0, 0
0, 0
0, 0
0, 0
0, 0
0, 0
0, 0
0, 0
0, 0
0, 0
0, 0
0, 0
0, 0
0, 0
0, 0
0, 0
0, 0
0, 0
0, 0
0, 0
0, 0
0, 0
0, 0
0, 0
0, 0
0, 0
0, 0
0, 0
0, 0
0, 0
0, 0
0, 0
0, 0
0, 0
0, 0
0, 0
0, 0
0, 0
0, 0
0, 0
0, 0
0, 0
0, 0
0, 0
0, 0
0, 0
0, 0
0, 0
0, 0
0, 0
0, 0
0, 0
0, 0
0, 0
0, 0
0, 0
0, 0
0, 0
0, 0
0, 0
0, 0
0, 0
0, 0
0, 0
0, 0
0, 0
0, 0
0, 0
0, 0
0, 0
0, 0
0, 0
0, 0
0, 0
0, 0
0, 0
0, 0
0, 0
1, 0
0, 0
0, 0
0, 0
0, 0
0, 0
0, 0
0, 0
0, 0
0, 0
0, 0
0, 0
0, 0
0, 0
0, 0
0, 0
0, 0
0, 0
0, 0
0, 0
0, 0
0, 0
0, 0
0, 0
0, 0
0, 0
0, 0
0, 0
0, 0
0, 0
0, 0
0, 0
0, 0
0, 0
0, 0
0, 0
0, 0
0, 0
0, 0
0, 0
0, 0
0, 0
0, 0
0, 0
0, 0
0, 0
0, 0
0, 0
0, 0
0, 0
0, 0
0, 0
0, 0
0, 0
0, 0
0, 0
0, 0
0, 0
0, 0
0, 0
0, 0
0, 0
0, 0
0, 0
0, 0
0, 0
0, 0
0, 0
0, 0
0, 0
0, 0
0, 0
0, 0
0, 0
0, 0
0, 0
0, 0
0, 0
0, 0
0, 0
0, 0
0, 0
0, 0
0, 0
0, 0
0, 0
0, 0
0, 0
0, 0
0, 0
0, 0
0, 0
0, 0
0, 0
0, 0
0, 0
0, 0
0, 0
0, 0
0, 0
0, 0
0, 0
0, 0
0, 0
0, 0
0, 0
0, 0
0, 0
0, 0
0, 0
0, 0
0, 0
0, 0
0, 0
0, 0
0, 0
0, 0
0, 0
0, 0
0, 0
0, 0
0, 0
0, 0
0, 0
0, 0
0, 0
0, 0
0, 0
0, 0
0, 0
0, 0
0, 0
0, 0
0, 0
0, 0
0, 0
0, 0
0, 0
0, 0
0, 0
0, 0
0, 0
0, 0
0, 0
0, 0
0, 0
0, 0
0, 0
0, 0
0, 0
0, 0
0, 0
0, 0
0, 0
0, 0
0, 0
0, 0
0, 0
0, 0
0, 0
0, 0
0, 0
0, 0
0, 0
0, 0
0, 0
0, 0
0, 0
0, 0
0, 0
0, 0
0, 0
0, 0
0, 0
0, 0
0, 0
0, 0
0, 0
0, 0
0, 0
0, 0
0, 0
0, 0
0, 0
0, 0
0, 0
0, 0
0, 0
0, 0
0, 0
0, 0
0, 0
0, 0
0, 0
0, 0
0, 0
0, 0
0, 0
0, 0
0, 0
0, 0
0, 0
0, 0
0, 0
0, 0
0, 0
0, 0
0, 0
0, 0
0, 0
0, 0
0, 0
0, 0
0, 0
0, 0
0, 0
0, 0
0, 0
0, 0
0, 0
0, 0
0, 0
0, 0
0, 0
0, 0
0, 0
0, 0
0, 0
0, 0
0, 0
0, 0
0, 0
0, 0
0, 0
0, 0
0, 0
0, 0
0, 0
0, 0
0, 0
0, 0
0, 0
0, 0
0, 0
0, 0
0, 0
0, 0
0, 0
0, 0
0, 0
0, 0
0, 0
0, 0
0, 0
0, 0
0, 0
0, 0
0, 0
0, 0
0, 0
0, 0
0, 0
0, 0
0, 0
0, 0
0, 0
0, 0
0, 0
0, 0
0, 0
0, 0
0, 0
0, 0
0, 0
#ENDOFDATA     end of spectrum data