File: host_upload/06-09-2024/ps_0852/dump3/ps__0852shot_2317.msa
#FORMAT      : EMSA/MAS spectral data file
#VERSION     : TC202v2.0 PIXL
#TITLE       : N/A
#DATE        :       Date in the format DD-MMM-YYYY, for example 07-JUL-2010
#TIME        :             The time of day at which the spectrum was recorded, in 24-hour format
#OWNER       : PIXL Flight Model       (PIXL will use this to indicate which instrument took the data.)
#NPOINTS     : 4096     Number of data points in the spectrum (This can be zero for configuration only files)
#NCOLUMNS    : 2     Number of data columns in the spectrum (This can be zero for configuration only files)
#XUNITS      : eV
#YUNITS      : COUNTS
#DATATYPE    : YY
#XPERCHAN    : 7.862, 7.881   eV per channel (separate by commas if more than one detector)
#OFFSET      : 18.5, -22.4         eV of first channel  (separate by commas if more than one detector
#SIGNALTYPE  : XRF
#YP_TEMP     : 2.62
#LIVETIME    : 8.5693, 8.5395   seconds (separate by commas if more than one detector)
#REALTIME    : 10, 10.0   seconds (separate by commas if more than one detector)
#SPECTRUM    : start of spectrum data
0, 0
0, 0
0, 0
0, 0
0, 0
0, 0
0, 0
0, 0
0, 0
0, 0
0, 0
0, 0
0, 0
0, 0
0, 0
0, 0
0, 0
0, 0
0, 0
0, 0
0, 0
0, 0
0, 0
0, 0
0, 0
0, 0
0, 0
0, 0
0, 0
0, 0
1, 0
0, 0
0, 0
0, 0
0, 1
0, 3
0, 0
1, 0
4, 0
1, 2
4, 2
3, 4
3, 1
3, 1
3, 0
3, 2
4, 4
0, 2
5, 6
6, 9
13, 25
25, 39
39, 44
61, 56
64, 71
62, 61
43, 44
35, 38
22, 33
8, 15
6, 6
7, 6
3, 3
3, 10
3, 8
6, 5
1, 4
6, 14
23, 11
42, 42
71, 96
142, 161
208, 271
327, 387
330, 405
334, 400
297, 382
242, 299
172, 193
106, 116
64, 61
35, 41
19, 25
14, 18
15, 17
12, 10
13, 14
11, 8
10, 11
10, 15
7, 9
4, 5
11, 9
11, 27
27, 34
50, 44
63, 67
102, 105
98, 123
102, 114
94, 85
79, 87
64, 44
28, 27
37, 24
27, 29
17, 15
13, 24
28, 24
53, 48
52, 51
72, 61
117, 80
126, 81
149, 83
145, 77
116, 65
111, 58
91, 54
72, 34
52, 34
31, 39
45, 27
23, 16
24, 16
23, 20
20, 9
9, 9
10, 11
5, 8
7, 4
3, 4
4, 5
3, 1
1, 2
2, 6
2, 2
1, 1
3, 3
3, 5
4, 7
5, 4
1, 2
2, 3
1, 2
2, 2
1, 3
3, 3
2, 6
6, 9
17, 18
16, 23
32, 42
58, 74
90, 106
133, 152
141, 176
197, 182
173, 194
135, 144
120, 107
81, 90
52, 53
36, 36
25, 16
16, 12
12, 17
18, 17
14, 20
35, 36
15, 34
26, 33
21, 29
27, 20
23, 25
16, 14
12, 11
7, 7
2, 5
6, 7
6, 0
4, 5
4, 6
4, 4
2, 5
4, 3
4, 6
7, 6
5, 14
8, 5
8, 8
9, 9
11, 15
11, 14
8, 25
17, 17
15, 12
20, 19
26, 14
23, 19
29, 25
25, 18
26, 10
24, 4
18, 8
18, 3
24, 7
18, 9
30, 2
13, 4
7, 4
10, 13
4, 8
4, 8
3, 7
5, 7
11, 3
6, 8
3, 12
2, 8
3, 5
7, 7
6, 11
12, 9
6, 12
16, 15
16, 21
16, 30
17, 25
26, 27
22, 26
24, 25
26, 16
14, 17
13, 13
11, 11
10, 9
6, 14
9, 9
6, 5
7, 8
5, 10
5, 7
6, 15
10, 15
13, 23
30, 38
30, 46
30, 52
55, 73
65, 74
68, 67
53, 92
46, 71
38, 33
47, 32
27, 34
17, 16
17, 16
14, 18
16, 20
22, 24
38, 58
71, 105
120, 217
229, 372
379, 624
633, 1005
849, 1438
1283, 1877
1594, 2332
1918, 2561
1985, 2627
2001, 2352
1687, 2026
1418, 1613
1075, 1112
747, 775
489, 477
306, 263
167, 144
85, 84
47, 36
19, 25
17, 21
14, 11
8, 13
11, 11
8, 15
19, 22
29, 24
40, 37
38, 55
48, 81
90, 130
129, 191
204, 245
227, 282
278, 329
332, 395
316, 389
285, 338
272, 280
224, 248
161, 166
111, 101
74, 87
50, 39
25, 27
20, 14
10, 13
3, 9
10, 9
8, 11
10, 7
12, 18
11, 18
8, 17
5, 15
9, 13
8, 15
11, 9
13, 4
2, 7
2, 4
4, 4
1, 2
2, 8
5, 1
7, 2
4, 5
0, 5
3, 5
3, 2
6, 3
6, 2
4, 3
2, 5
8, 1
3, 5
4, 3
5, 8
4, 9
8, 8
5, 5
5, 9
5, 1
7, 4
5, 3
3, 10
4, 10
3, 8
3, 7
1, 8
6, 4
5, 6
5, 4
4, 7
3, 5
3, 6
7, 5
4, 8
2, 2
1, 3
4, 6
8, 10
8, 8
3, 7
6, 13
5, 5
5, 11
3, 10
5, 9
4, 3
1, 10
7, 7
4, 6
6, 2
1, 2
4, 2
2, 6
2, 2
4, 4
4, 2
2, 9
4, 7
1, 2
3, 3
3, 4
3, 4
4, 4
1, 5
5, 7
2, 4
1, 5
3, 6
5, 7
4, 5
1, 2
3, 4
3, 2
2, 2
3, 1
1, 3
1, 1
5, 4
3, 4
0, 6
5, 3
4, 0
3, 3
2, 6
2, 3
3, 3
5, 2
3, 3
3, 2
2, 4
6, 0
10, 2
13, 2
9, 3
17, 5
19, 8
17, 4
24, 4
17, 4
25, 5
26, 5
14, 7
11, 3
5, 4
5, 4
4, 4
4, 4
3, 5
1, 6
6, 5
0, 5
0, 3
1, 5
1, 0
0, 6
2, 3
4, 6
1, 6
2, 3
2, 4
4, 9
2, 2
1, 8
5, 3
4, 9
2, 4
1, 1
3, 3
0, 3
6, 5
2, 4
4, 5
0, 4
2, 5
4, 3
3, 3
0, 0
2, 3
0, 2
0, 3
5, 4
0, 1
1, 2
0, 2
2, 2
3, 2
0, 1
0, 5
6, 3
3, 4
4, 2
2, 1
5, 0
4, 5
2, 4
3, 5
5, 3
4, 3
1, 2
2, 4
6, 1
3, 2
9, 2
4, 2
4, 6
3, 3
3, 3
1, 2
4, 4
3, 3
1, 4
0, 2
3, 4
2, 1
1, 2
1, 3
4, 3
5, 2
3, 1
2, 3
0, 1
4, 0
1, 0
0, 2
1, 0
1, 3
1, 4
2, 1
0, 6
0, 4
3, 0
4, 6
1, 2
1, 2
0, 2
1, 1
1, 5
4, 2
0, 0
3, 1
2, 3
4, 2
1, 1
1, 0
2, 2
1, 2
2, 4
0, 5
2, 1
0, 3
4, 3
2, 7
1, 3
2, 6
5, 8
5, 9
2, 2
3, 4
3, 2
5, 2
3, 3
0, 3
2, 0
2, 3
3, 1
0, 0
0, 1
1, 1
2, 2
1, 2
0, 3
1, 2
1, 2
1, 2
1, 1
3, 2
0, 2
0, 3
1, 2
2, 1
1, 1
1, 1
1, 3
1, 3
2, 1
1, 3
5, 1
1, 5
1, 1
2, 0
1, 1
1, 3
0, 1
4, 2
1, 2
1, 1
0, 3
1, 0
0, 1
0, 1
1, 2
2, 0
0, 3
1, 0
0, 0
0, 1
2, 2
0, 1
1, 1
2, 1
1, 0
1, 1
1, 8
1, 1
1, 1
2, 1
1, 1
3, 0
0, 1
0, 2
2, 0
1, 0
0, 1
1, 0
0, 1
2, 1
1, 1
0, 0
1, 1
1, 1
1, 0
0, 0
1, 0
1, 0
1, 0
1, 0
1, 1
1, 0
0, 2
1, 0
1, 0
1, 0
0, 3
1, 1
0, 1
1, 2
0, 0
3, 0
0, 2
2, 1
0, 0
1, 0
0, 0
0, 2
0, 2
2, 0
0, 1
0, 0
0, 2
1, 0
1, 0
1, 0
1, 1
2, 1
0, 1
0, 1
0, 0
0, 1
1, 0
0, 2
0, 1
1, 3
0, 0
1, 1
1, 1
0, 0
0, 0
0, 0
0, 1
1, 1
1, 1
1, 0
0, 1
1, 1
1, 3
1, 0
0, 0
1, 3
0, 2
0, 2
0, 2
1, 0
0, 2
0, 1
0, 0
2, 0
1, 0
0, 0
1, 0
0, 0
2, 2
0, 0
0, 1
0, 0
1, 1
1, 0
1, 1
1, 0
2, 4
0, 2
0, 0
1, 1
0, 0
0, 1
2, 0
0, 0
1, 0
0, 0
0, 2
2, 0
0, 0
0, 0
0, 1
0, 1
0, 0
0, 0
0, 0
0, 0
1, 0
0, 1
0, 0
0, 0
1, 0
1, 1
1, 1
1, 0
0, 1
0, 0
0, 0
0, 0
0, 0
0, 0
0, 0
1, 0
0, 1
0, 0
0, 0
1, 0
0, 0
0, 0
1, 0
0, 0
1, 1
0, 1
0, 0
0, 0
0, 1
2, 0
0, 1
1, 0
0, 0
0, 1
0, 0
0, 0
1, 1
0, 0
2, 0
0, 0
0, 0
0, 0
0, 0
0, 0
0, 1
0, 0
1, 0
0, 0
0, 0
0, 0
0, 0
2, 0
0, 1
0, 0
3, 1
0, 0
1, 0
0, 0
0, 0
0, 1
1, 0
0, 1
0, 0
1, 0
0, 0
0, 1
0, 1
0, 0
0, 0
0, 1
0, 1
0, 0
0, 1
0, 0
0, 0
0, 1
0, 0
1, 1
0, 0
1, 1
0, 0
0, 0
1, 2
0, 0
0, 0
0, 0
0, 1
1, 0
0, 0
0, 0
0, 0
0, 0
0, 0
0, 0
0, 0
0, 0
0, 0
0, 0
1, 0
0, 0
0, 0
0, 0
0, 0
0, 0
0, 0
0, 0
0, 0
0, 0
0, 0
0, 0
0, 0
0, 0
0, 0
0, 0
0, 0
1, 0
0, 0
0, 0
0, 0
0, 0
0, 0
1, 0
0, 0
0, 0
0, 0
0, 0
0, 0
1, 0
0, 0
1, 0
1, 0
0, 0
0, 3
0, 0
0, 0
0, 0
0, 0
0, 1
0, 0
0, 0
1, 0
0, 0
1, 0
0, 0
0, 0
0, 0
0, 1
1, 0
0, 0
0, 0
0, 0
0, 0
0, 0
0, 0
0, 0
0, 0
0, 0
0, 1
0, 0
0, 0
0, 0
0, 0
0, 0
0, 0
0, 0
0, 0
1, 0
0, 0
0, 0
0, 0
0, 1
0, 0
0, 0
0, 1
0, 0
0, 0
0, 0
0, 0
0, 0
0, 0
0, 0
1, 0
0, 1
0, 0
0, 0
0, 0
0, 0
0, 0
0, 0
0, 0
0, 0
1, 0
0, 0
0, 0
0, 0
0, 0
0, 0
2, 0
0, 0
0, 0
0, 0
0, 0
0, 0
0, 0
0, 0
0, 0
0, 0
0, 0
0, 0
0, 0
0, 0
0, 0
0, 0
0, 0
0, 1
0, 0
0, 0
0, 0
0, 1
0, 0
0, 0
0, 0
0, 0
0, 0
0, 0
0, 0
0, 0
0, 0
0, 0
0, 0
0, 0
0, 0
0, 0
0, 0
0, 0
0, 0
0, 0
0, 0
0, 0
0, 0
0, 0
1, 0
0, 0
0, 0
0, 0
0, 0
0, 0
0, 0
0, 0
0, 0
0, 0
0, 0
0, 0
0, 1
0, 0
0, 0
0, 0
0, 0
0, 0
0, 0
0, 0
0, 0
0, 0
0, 0
0, 0
0, 2
0, 0
0, 0
0, 0
0, 0
0, 0
0, 0
1, 0
0, 0
0, 0
0, 0
0, 0
0, 0
0, 0
0, 0
0, 0
0, 0
0, 0
0, 0
0, 0
0, 0
0, 0
0, 0
0, 0
0, 0
0, 0
0, 0
0, 0
0, 0
0, 0
0, 0
0, 0
0, 0
1, 0
0, 0
0, 0
0, 0
0, 0
0, 0
0, 0
0, 0
0, 0
0, 0
0, 0
0, 0
0, 0
0, 0
0, 0
0, 0
0, 0
0, 0
0, 0
0, 0
0, 0
0, 0
0, 0
0, 0
0, 0
0, 0
0, 0
0, 0
0, 0
0, 0
0, 0
0, 0
0, 0
0, 0
0, 0
0, 0
0, 0
0, 0
0, 0
0, 0
0, 0
0, 0
0, 0
0, 0
0, 0
0, 0
0, 0
0, 0
0, 0
0, 0
0, 0
0, 0
0, 0
0, 0
0, 0
0, 0
0, 0
0, 0
0, 0
0, 0
0, 0
0, 0
0, 0
0, 0
0, 0
0, 0
0, 0
0, 0
0, 0
0, 0
0, 0
0, 0
0, 0
0, 0
0, 0
0, 0
0, 0
0, 0
0, 0
0, 0
0, 0
0, 0
0, 0
0, 0
0, 0
0, 0
0, 0
0, 0
0, 0
0, 0
0, 0
0, 0
0, 0
0, 0
0, 0
0, 0
0, 0
0, 0
0, 0
0, 0
0, 0
0, 0
0, 0
0, 0
0, 0
0, 0
0, 0
0, 0
0, 0
0, 0
0, 0
0, 0
0, 0
0, 0
0, 0
0, 0
0, 0
0, 0
0, 0
0, 0
0, 0
0, 0
0, 0
0, 0
0, 0
0, 0
0, 0
0, 0
0, 0
0, 0
0, 0
0, 0
0, 0
0, 0
0, 0
0, 0
0, 0
0, 0
0, 0
0, 0
0, 0
0, 0
0, 0
0, 0
0, 0
0, 0
0, 0
0, 0
0, 0
0, 0
0, 0
0, 0
0, 0
0, 0
0, 0
0, 0
0, 0
0, 0
0, 0
0, 0
0, 0
0, 0
0, 0
0, 0
0, 0
0, 0
0, 0
0, 0
0, 0
0, 0
0, 0
0, 0
0, 0
0, 0
0, 0
0, 0
0, 0
0, 0
0, 0
0, 0
0, 0
0, 0
0, 0
0, 0
0, 0
0, 0
0, 0
0, 0
0, 0
0, 0
0, 0
0, 0
0, 0
0, 0
0, 0
0, 0
0, 0
0, 0
0, 0
0, 0
0, 0
0, 0
0, 0
0, 0
0, 0
0, 0
0, 0
0, 0
0, 0
0, 0
0, 0
0, 0
0, 0
0, 0
0, 0
0, 0
0, 0
0, 0
0, 0
0, 0
0, 0
0, 0
0, 0
0, 0
0, 0
0, 0
0, 0
0, 0
0, 0
0, 0
0, 0
0, 0
0, 0
0, 0
0, 0
0, 0
0, 0
0, 0
0, 0
0, 0
0, 0
0, 0
0, 0
0, 0
0, 0
0, 0
0, 0
0, 0
0, 0
0, 0
0, 0
0, 0
0, 0
0, 0
0, 0
0, 0
0, 0
0, 0
0, 0
0, 0
0, 0
0, 0
0, 0
0, 0
0, 0
0, 0
0, 0
0, 0
0, 0
0, 0
0, 0
0, 0
0, 0
0, 0
0, 0
0, 0
0, 0
0, 0
0, 0
0, 0
0, 0
0, 0
0, 0
0, 0
0, 0
0, 0
0, 0
0, 0
0, 0
0, 0
0, 0
0, 0
0, 0
0, 0
0, 0
0, 0
0, 0
0, 0
0, 0
0, 0
0, 0
0, 0
0, 0
0, 0
0, 0
0, 0
0, 0
0, 0
0, 0
0, 0
0, 0
0, 0
0, 0
0, 0
0, 0
0, 0
0, 0
0, 0
0, 0
0, 0
0, 0
0, 0
0, 0
0, 0
0, 0
0, 0
0, 0
0, 0
0, 0
0, 0
0, 0
0, 0
0, 0
0, 0
0, 0
0, 0
0, 0
0, 0
0, 0
0, 0
0, 0
0, 0
0, 0
0, 0
0, 0
0, 0
0, 0
0, 0
0, 0
0, 0
0, 0
0, 0
#ENDOFDATA     end of spectrum data