File: host_upload/06-09-2024/ps_0852/dump3/ps__0852shot_2324.msa
#FORMAT      : EMSA/MAS spectral data file
#VERSION     : TC202v2.0 PIXL
#TITLE       : N/A
#DATE        :       Date in the format DD-MMM-YYYY, for example 07-JUL-2010
#TIME        :             The time of day at which the spectrum was recorded, in 24-hour format
#OWNER       : PIXL Flight Model       (PIXL will use this to indicate which instrument took the data.)
#NPOINTS     : 4096     Number of data points in the spectrum (This can be zero for configuration only files)
#NCOLUMNS    : 2     Number of data columns in the spectrum (This can be zero for configuration only files)
#XUNITS      : eV
#YUNITS      : COUNTS
#DATATYPE    : YY
#XPERCHAN    : 7.862, 7.881   eV per channel (separate by commas if more than one detector)
#OFFSET      : 18.5, -22.4         eV of first channel  (separate by commas if more than one detector
#SIGNALTYPE  : XRF
#YP_TEMP     : 2.524
#LIVETIME    : 8.55703, 8.53199   seconds (separate by commas if more than one detector)
#REALTIME    : 10, 10.0   seconds (separate by commas if more than one detector)
#SPECTRUM    : start of spectrum data
0, 0
0, 0
0, 0
0, 0
0, 0
0, 0
0, 0
0, 0
0, 0
0, 0
0, 0
0, 0
0, 0
0, 0
0, 0
0, 0
0, 0
0, 0
0, 0
0, 0
0, 0
0, 0
0, 0
0, 0
0, 0
0, 0
0, 0
0, 0
0, 0
0, 0
0, 0
0, 0
0, 1
0, 0
0, 0
0, 0
1, 0
0, 0
1, 0
0, 0
0, 0
0, 1
0, 2
2, 0
2, 1
0, 0
2, 2
1, 3
6, 4
10, 10
16, 19
40, 28
58, 50
77, 79
78, 70
86, 71
61, 57
46, 30
26, 21
15, 15
10, 6
5, 4
5, 1
5, 3
2, 1
5, 4
6, 9
11, 12
28, 16
52, 39
93, 93
144, 167
261, 255
383, 333
430, 397
422, 425
377, 345
287, 238
183, 154
118, 117
74, 54
42, 36
10, 15
15, 13
7, 6
2, 1
3, 3
1, 2
1, 2
1, 4
0, 7
1, 1
1, 1
1, 3
3, 1
3, 1
0, 2
6, 1
4, 3
0, 2
9, 2
1, 0
2, 4
0, 2
2, 0
5, 4
4, 2
6, 11
13, 12
17, 14
19, 13
17, 27
33, 37
38, 27
40, 25
50, 38
59, 35
62, 31
51, 33
41, 25
41, 24
42, 15
37, 19
29, 18
28, 12
17, 14
17, 18
14, 4
17, 10
7, 10
5, 3
3, 4
5, 2
5, 4
1, 4
3, 2
1, 1
3, 0
1, 2
2, 3
2, 3
4, 2
2, 1
5, 3
4, 1
1, 2
2, 2
2, 4
3, 5
5, 5
3, 12
8, 15
19, 15
21, 18
37, 36
34, 53
45, 51
63, 61
47, 50
38, 47
34, 31
20, 34
16, 20
13, 8
15, 4
15, 6
6, 6
10, 9
16, 6
12, 8
10, 12
12, 12
11, 5
10, 11
5, 10
10, 8
4, 5
3, 4
6, 10
10, 11
1, 6
0, 11
3, 10
3, 7
6, 7
6, 9
2, 8
9, 10
15, 14
17, 11
22, 12
18, 16
26, 21
15, 15
23, 18
17, 25
21, 20
11, 16
14, 14
12, 14
15, 17
11, 9
14, 9
9, 11
9, 11
7, 11
7, 7
2, 3
9, 4
11, 6
8, 9
5, 15
11, 12
5, 4
8, 8
5, 3
7, 5
5, 4
5, 5
4, 7
10, 7
15, 15
10, 9
13, 21
35, 31
49, 55
67, 98
76, 102
119, 116
141, 135
166, 146
137, 137
147, 132
127, 113
101, 82
71, 52
59, 34
37, 24
32, 26
23, 9
24, 14
20, 19
17, 14
17, 19
15, 26
24, 31
32, 41
47, 61
50, 85
69, 73
79, 97
84, 108
93, 96
72, 88
58, 86
54, 62
44, 61
39, 59
25, 39
23, 43
19, 46
33, 49
46, 69
62, 87
152, 212
269, 340
474, 543
733, 912
1034, 1229
1479, 1692
1803, 2038
2058, 2202
2214, 2290
2125, 2099
1984, 1816
1601, 1407
1202, 968
816, 655
563, 442
358, 246
181, 131
98, 60
50, 41
33, 22
18, 15
17, 14
11, 27
24, 26
11, 24
18, 34
27, 37
33, 50
39, 57
59, 86
111, 112
151, 152
196, 212
241, 289
311, 304
313, 320
331, 348
324, 301
252, 246
223, 198
189, 160
131, 98
91, 68
43, 29
28, 23
21, 10
16, 8
15, 13
15, 10
11, 12
8, 5
9, 15
23, 13
7, 7
9, 12
12, 15
7, 14
8, 8
5, 6
11, 10
3, 5
9, 6
6, 2
3, 4
3, 4
8, 5
10, 3
6, 2
4, 3
6, 3
6, 3
2, 4
3, 2
7, 6
10, 5
9, 3
6, 11
8, 5
13, 10
8, 4
7, 7
5, 2
12, 4
10, 8
13, 5
6, 4
9, 5
13, 3
10, 8
6, 5
4, 6
2, 4
5, 11
3, 7
6, 7
6, 3
2, 9
4, 8
5, 2
1, 10
3, 3
6, 5
7, 6
7, 12
5, 3
7, 2
4, 2
4, 6
7, 8
5, 1
1, 3
3, 4
6, 3
4, 1
4, 4
5, 4
2, 2
3, 5
4, 10
3, 7
5, 12
3, 8
2, 9
8, 12
3, 12
5, 13
4, 6
3, 12
2, 6
2, 9
5, 5
5, 4
1, 6
4, 2
5, 6
4, 5
3, 3
2, 1
4, 5
5, 7
3, 5
3, 1
7, 8
1, 8
1, 7
2, 4
4, 5
6, 4
3, 7
3, 5
2, 1
2, 7
1, 2
4, 1
0, 5
5, 4
4, 3
4, 5
2, 2
2, 3
1, 4
2, 7
4, 3
7, 3
1, 8
4, 2
3, 0
0, 5
5, 5
5, 1
7, 5
3, 2
2, 3
0, 5
3, 2
2, 6
0, 3
2, 4
3, 7
1, 3
3, 4
2, 2
1, 2
0, 4
3, 3
2, 1
1, 3
3, 4
2, 2
1, 2
1, 4
1, 5
3, 6
1, 3
2, 1
2, 1
3, 1
5, 1
4, 2
4, 2
2, 4
1, 1
2, 1
2, 9
3, 3
5, 3
2, 2
4, 2
3, 6
1, 2
1, 5
3, 2
4, 1
3, 1
1, 2
1, 1
1, 1
2, 7
2, 2
0, 1
1, 0
5, 2
4, 2
4, 1
2, 2
2, 3
5, 2
3, 0
3, 2
1, 1
3, 1
2, 1
4, 4
6, 1
4, 2
5, 2
0, 3
8, 0
1, 1
2, 2
3, 1
1, 6
0, 1
1, 2
3, 3
3, 1
2, 3
1, 2
2, 1
1, 3
0, 3
1, 4
4, 1
2, 4
1, 1
4, 3
5, 0
1, 0
1, 1
0, 0
4, 0
1, 0
1, 2
3, 1
5, 4
3, 3
2, 1
2, 0
0, 0
1, 1
3, 1
3, 1
3, 3
2, 1
5, 1
2, 4
3, 5
5, 3
3, 3
3, 2
3, 1
6, 4
3, 3
3, 0
3, 5
4, 2
3, 2
1, 0
2, 2
1, 1
2, 2
1, 1
1, 0
2, 1
0, 5
1, 6
0, 2
2, 2
1, 2
0, 1
1, 1
2, 2
1, 1
0, 2
4, 1
2, 0
1, 2
1, 2
2, 1
2, 0
2, 4
1, 1
2, 1
2, 0
1, 2
2, 2
3, 0
5, 0
0, 0
0, 0
0, 1
0, 1
0, 3
1, 0
0, 2
0, 1
2, 2
1, 0
4, 1
0, 1
0, 2
0, 0
0, 1
2, 0
1, 1
0, 2
0, 2
2, 0
0, 0
3, 2
1, 1
1, 3
0, 0
2, 2
0, 0
1, 0
1, 1
4, 0
0, 1
4, 0
1, 0
3, 2
0, 1
0, 1
0, 2
1, 0
2, 0
2, 0
3, 1
1, 0
0, 0
0, 1
0, 0
0, 0
0, 0
1, 1
1, 0
0, 2
1, 1
0, 3
1, 2
1, 1
2, 1
0, 0
2, 2
1, 0
0, 0
1, 3
0, 0
1, 0
2, 1
0, 0
1, 1
0, 0
0, 0
2, 0
0, 0
0, 1
0, 0
0, 0
0, 1
0, 0
0, 1
0, 0
1, 0
1, 0
0, 1
1, 0
1, 0
0, 0
0, 1
0, 0
2, 0
0, 1
0, 0
2, 1
2, 1
0, 1
0, 1
1, 0
1, 0
1, 0
0, 0
1, 3
0, 0
0, 0
0, 0
1, 2
0, 1
0, 0
1, 2
1, 1
2, 0
0, 0
1, 0
2, 0
1, 1
0, 0
1, 0
0, 1
1, 0
0, 0
1, 0
0, 1
0, 1
0, 1
0, 0
0, 1
0, 0
0, 1
0, 0
1, 1
0, 0
0, 0
2, 0
0, 0
0, 0
0, 0
2, 1
0, 0
1, 0
0, 0
2, 2
0, 4
0, 0
0, 0
0, 0
0, 0
0, 0
0, 0
0, 1
1, 0
0, 0
0, 1
0, 0
1, 1
0, 0
0, 0
0, 0
0, 0
0, 0
0, 0
0, 0
0, 0
0, 0
0, 0
0, 1
1, 0
0, 0
0, 1
0, 0
0, 0
0, 0
0, 1
0, 0
0, 0
0, 0
1, 0
0, 0
0, 1
1, 0
1, 0
2, 0
0, 0
1, 0
0, 0
0, 0
0, 0
0, 0
0, 1
0, 0
1, 2
2, 0
2, 1
0, 0
0, 0
0, 1
0, 0
0, 1
0, 1
1, 1
0, 0
0, 1
0, 0
0, 1
0, 0
0, 1
0, 1
0, 0
0, 1
0, 0
0, 1
0, 0
1, 1
0, 0
0, 1
0, 0
0, 0
0, 1
0, 0
0, 0
0, 0
0, 0
0, 0
0, 0
1, 0
0, 0
0, 0
1, 0
1, 0
1, 0
0, 0
0, 0
0, 0
0, 0
0, 0
0, 0
0, 0
1, 0
0, 0
0, 0
0, 0
0, 0
0, 0
0, 0
1, 0
0, 1
0, 0
0, 0
0, 0
0, 0
0, 0
0, 0
0, 0
0, 0
0, 0
1, 0
0, 0
0, 0
0, 0
0, 0
0, 0
1, 0
0, 0
0, 0
0, 0
0, 0
0, 0
0, 0
0, 0
0, 0
0, 0
0, 0
0, 0
0, 0
3, 0
0, 0
0, 0
0, 0
0, 0
2, 0
2, 0
0, 0
0, 0
0, 0
0, 1
0, 1
0, 0
0, 0
0, 0
0, 0
0, 0
0, 1
0, 0
0, 0
0, 0
0, 0
0, 0
0, 0
0, 0
0, 0
0, 0
0, 1
0, 0
0, 0
0, 0
0, 0
0, 0
0, 0
0, 1
0, 1
0, 0
0, 0
0, 1
0, 0
0, 1
0, 0
0, 0
0, 0
0, 0
0, 0
0, 0
0, 0
0, 1
0, 0
0, 0
0, 0
0, 0
0, 0
0, 0
0, 0
0, 0
0, 0
0, 0
0, 0
0, 0
1, 0
0, 1
0, 0
0, 0
1, 0
0, 0
0, 0
1, 0
0, 0
0, 0
0, 0
0, 0
0, 0
0, 0
0, 1
0, 0
0, 0
0, 0
1, 0
0, 0
0, 0
0, 0
0, 0
0, 0
0, 0
0, 0
0, 0
0, 0
0, 0
0, 0
0, 0
1, 0
0, 0
0, 0
0, 0
0, 0
0, 0
0, 0
0, 0
1, 0
0, 0
0, 0
0, 0
0, 0
0, 0
0, 0
0, 0
0, 0
0, 0
0, 0
0, 0
0, 0
0, 0
0, 0
0, 0
0, 0
0, 0
0, 0
0, 0
0, 0
0, 1
0, 0
0, 0
0, 0
0, 0
0, 0
0, 0
0, 0
0, 0
0, 0
0, 0
0, 0
0, 0
0, 0
0, 0
0, 0
0, 0
0, 0
0, 0
0, 0
0, 0
0, 0
0, 0
0, 0
0, 0
0, 0
0, 0
0, 0
0, 0
0, 0
0, 0
0, 0
0, 0
0, 0
0, 0
0, 0
0, 0
0, 0
0, 0
0, 0
0, 1
0, 0
0, 0
0, 0
0, 0
0, 0
0, 0
0, 0
0, 0
0, 0
0, 0
0, 0
0, 0
0, 0
0, 0
0, 0
0, 0
0, 0
0, 0
0, 0
0, 0
0, 0
0, 0
0, 0
0, 0
0, 0
0, 0
0, 0
0, 0
0, 0
0, 0
0, 0
0, 0
0, 0
0, 0
0, 0
0, 0
0, 0
0, 0
0, 0
0, 0
0, 0
0, 0
0, 0
0, 0
0, 0
0, 0
0, 0
0, 0
0, 0
0, 0
0, 0
0, 0
0, 0
0, 0
0, 0
0, 0
0, 0
0, 0
0, 0
0, 0
0, 0
0, 0
0, 0
0, 0
0, 0
0, 0
0, 0
0, 0
0, 0
0, 0
0, 0
0, 0
0, 0
0, 0
0, 0
0, 0
0, 0
0, 0
0, 0
0, 0
0, 0
0, 0
0, 0
0, 0
0, 0
0, 0
0, 0
0, 0
0, 0
0, 0
0, 0
0, 0
0, 0
0, 0
0, 0
0, 0
0, 0
0, 0
0, 0
0, 0
0, 0
0, 0
0, 0
0, 0
0, 0
0, 0
0, 0
0, 0
0, 0
0, 0
0, 0
0, 0
0, 0
0, 0
0, 0
0, 0
0, 0
0, 0
0, 0
0, 0
0, 0
0, 0
0, 0
0, 0
0, 0
0, 0
0, 0
0, 0
0, 0
0, 0
0, 0
0, 0
0, 0
0, 0
0, 0
0, 0
0, 0
0, 0
0, 0
0, 0
0, 0
0, 0
0, 0
0, 0
0, 0
0, 0
0, 0
0, 0
0, 0
0, 0
0, 0
0, 0
0, 0
0, 0
0, 0
0, 0
0, 0
0, 0
0, 0
0, 0
0, 0
0, 0
0, 0
0, 0
0, 0
0, 0
0, 0
0, 0
0, 0
0, 0
0, 0
0, 0
0, 0
0, 0
0, 0
0, 0
0, 0
0, 0
0, 0
0, 0
0, 0
0, 0
0, 0
0, 0
0, 0
0, 0
0, 0
0, 0
0, 0
0, 0
0, 0
0, 0
0, 0
0, 0
0, 0
0, 0
0, 0
0, 0
0, 0
0, 0
0, 0
0, 0
0, 0
0, 0
0, 0
0, 0
0, 0
0, 0
0, 0
0, 0
0, 0
0, 0
0, 0
0, 0
0, 0
0, 0
0, 0
0, 0
0, 0
0, 0
0, 0
0, 0
0, 0
0, 0
0, 0
0, 0
0, 0
0, 0
0, 0
0, 0
0, 0
0, 0
0, 0
0, 0
0, 0
0, 0
0, 0
0, 0
0, 0
0, 0
0, 0
0, 0
0, 0
0, 0
0, 0
0, 0
0, 0
0, 0
0, 0
0, 0
0, 0
0, 0
0, 0
0, 0
0, 0
0, 0
0, 0
0, 0
0, 0
0, 0
0, 0
0, 0
0, 0
0, 0
0, 0
0, 0
0, 0
0, 0
0, 0
0, 0
0, 0
0, 0
0, 0
0, 0
0, 0
0, 0
0, 0
0, 0
0, 0
0, 0
0, 0
0, 0
0, 0
0, 0
0, 0
0, 0
0, 0
0, 0
0, 0
0, 0
0, 0
0, 0
0, 0
0, 0
0, 0
0, 0
0, 0
0, 0
0, 0
0, 0
0, 0
0, 0
0, 0
0, 0
0, 0
0, 0
0, 0
0, 0
0, 0
0, 0
0, 0
0, 0
0, 0
0, 0
0, 0
0, 0
0, 0
0, 0
0, 0
0, 0
0, 0
0, 0
0, 0
0, 0
0, 0
0, 0
0, 0
0, 0
0, 0
0, 0
0, 0
0, 0
0, 0
0, 0
0, 0
0, 0
0, 0
0, 0
0, 0
0, 0
0, 0
0, 0
0, 0
0, 0
0, 0
0, 0
0, 0
0, 0
0, 0
0, 0
0, 0
0, 0
0, 0
0, 0
0, 0
#ENDOFDATA     end of spectrum data