File: host_upload/06-09-2024/ps_0852/dump3/ps__0852shot_2462.msa
#FORMAT      : EMSA/MAS spectral data file
#VERSION     : TC202v2.0 PIXL
#TITLE       : N/A
#DATE        :       Date in the format DD-MMM-YYYY, for example 07-JUL-2010
#TIME        :             The time of day at which the spectrum was recorded, in 24-hour format
#OWNER       : PIXL Flight Model       (PIXL will use this to indicate which instrument took the data.)
#NPOINTS     : 4096     Number of data points in the spectrum (This can be zero for configuration only files)
#NCOLUMNS    : 2     Number of data columns in the spectrum (This can be zero for configuration only files)
#XUNITS      : eV
#YUNITS      : COUNTS
#DATATYPE    : YY
#XPERCHAN    : 7.862, 7.881   eV per channel (separate by commas if more than one detector)
#OFFSET      : 18.5, -22.4         eV of first channel  (separate by commas if more than one detector
#SIGNALTYPE  : XRF
#YP_TEMP     : 2.524
#LIVETIME    : 8.56484, 8.54817   seconds (separate by commas if more than one detector)
#REALTIME    : 10, 10.0   seconds (separate by commas if more than one detector)
#SPECTRUM    : start of spectrum data
0, 0
0, 0
0, 0
0, 0
0, 0
0, 0
0, 0
0, 0
0, 0
0, 0
0, 0
0, 0
0, 0
0, 0
0, 0
0, 0
0, 0
0, 0
0, 0
0, 0
0, 0
0, 0
0, 0
0, 0
0, 0
0, 0
0, 0
0, 0
0, 0
0, 0
0, 0
0, 0
0, 0
0, 1
1, 0
0, 2
1, 3
3, 1
2, 0
4, 1
3, 2
1, 1
5, 1
1, 2
1, 3
0, 2
3, 4
5, 6
10, 4
12, 7
21, 21
23, 32
43, 56
85, 59
70, 76
64, 58
60, 46
35, 38
19, 24
16, 9
6, 8
7, 4
4, 0
2, 2
3, 1
6, 3
2, 6
7, 6
28, 22
39, 49
85, 85
145, 165
241, 250
302, 317
350, 375
387, 361
330, 288
256, 266
177, 194
97, 131
70, 64
32, 28
17, 15
11, 11
3, 3
1, 5
4, 4
2, 4
3, 0
3, 2
3, 5
12, 12
21, 17
45, 31
80, 72
129, 115
164, 208
218, 224
266, 271
259, 261
253, 220
198, 191
149, 132
98, 84
58, 55
37, 40
34, 25
42, 21
33, 22
53, 33
77, 40
104, 54
146, 49
186, 54
164, 57
205, 67
173, 33
144, 35
119, 35
90, 25
49, 30
37, 26
32, 23
29, 18
24, 16
20, 18
10, 16
14, 13
11, 13
6, 9
5, 10
5, 4
2, 0
3, 3
2, 5
5, 4
4, 8
4, 4
7, 3
5, 5
6, 6
11, 3
10, 2
4, 2
3, 5
4, 4
1, 5
3, 1
5, 1
2, 3
5, 4
13, 15
19, 22
27, 41
46, 53
62, 81
81, 85
70, 97
69, 100
64, 73
71, 59
34, 55
19, 31
12, 20
4, 13
4, 8
10, 4
3, 12
9, 16
16, 10
18, 15
11, 22
15, 18
8, 11
13, 13
9, 5
12, 5
5, 3
12, 4
7, 4
5, 4
4, 2
3, 6
4, 4
6, 6
5, 9
7, 5
6, 8
8, 9
12, 10
6, 17
7, 23
16, 10
12, 15
10, 14
9, 13
11, 10
13, 16
6, 16
18, 16
8, 7
9, 13
10, 7
1, 3
12, 6
7, 10
4, 2
13, 6
8, 4
7, 7
10, 8
11, 5
8, 7
8, 7
8, 4
3, 6
9, 11
4, 8
5, 6
2, 9
4, 11
4, 9
7, 11
7, 13
6, 9
8, 10
16, 7
18, 20
11, 18
21, 17
21, 17
16, 25
16, 18
15, 13
25, 15
14, 13
9, 6
18, 7
13, 6
11, 5
9, 6
17, 9
29, 8
31, 13
41, 17
69, 21
85, 36
126, 31
110, 53
115, 69
122, 67
104, 52
107, 65
89, 36
54, 36
38, 27
32, 18
25, 14
15, 12
14, 16
22, 16
16, 39
39, 57
46, 85
131, 178
261, 296
519, 582
735, 905
1049, 1183
1344, 1679
1849, 2051
2118, 2283
2165, 2305
2196, 2187
1932, 1800
1590, 1424
1276, 1050
818, 641
526, 405
318, 230
201, 149
109, 74
41, 33
22, 30
27, 19
15, 18
13, 22
21, 13
17, 26
25, 27
22, 25
35, 38
48, 54
64, 74
108, 125
120, 161
194, 220
211, 268
328, 354
297, 349
302, 331
333, 306
310, 274
236, 205
166, 162
154, 100
80, 57
52, 33
37, 16
20, 22
9, 5
8, 5
7, 2
8, 11
12, 11
14, 9
13, 17
11, 12
16, 20
11, 12
11, 16
12, 4
11, 7
3, 9
2, 2
4, 2
5, 3
7, 4
1, 2
4, 3
3, 4
5, 7
3, 3
2, 1
7, 2
2, 9
0, 9
3, 3
4, 6
5, 6
1, 8
8, 10
3, 12
6, 7
8, 10
5, 1
10, 3
5, 3
7, 9
8, 4
7, 7
8, 6
6, 6
15, 6
4, 5
6, 4
10, 6
2, 7
3, 6
5, 6
7, 6
5, 5
2, 2
2, 4
5, 3
6, 4
5, 2
4, 4
2, 7
2, 9
2, 7
1, 3
2, 8
5, 6
3, 5
1, 3
4, 3
3, 1
1, 6
3, 4
3, 7
6, 1
2, 4
2, 3
5, 2
6, 0
4, 7
7, 6
4, 4
8, 5
4, 3
2, 3
5, 5
2, 5
5, 1
8, 6
5, 5
11, 5
7, 4
5, 6
4, 4
1, 2
7, 1
6, 2
5, 1
7, 4
2, 4
0, 5
4, 5
8, 4
10, 2
7, 6
4, 1
6, 5
3, 2
9, 4
6, 9
5, 3
8, 1
5, 4
6, 2
10, 4
11, 5
5, 7
10, 2
9, 2
3, 3
9, 6
5, 2
2, 1
5, 3
7, 3
5, 4
3, 2
3, 2
1, 4
1, 2
3, 3
2, 4
3, 2
2, 4
3, 2
3, 7
4, 1
2, 1
1, 1
1, 0
2, 4
5, 2
1, 4
0, 3
2, 2
4, 1
1, 2
1, 1
2, 1
2, 2
3, 3
4, 4
2, 4
3, 1
3, 6
3, 2
1, 2
3, 5
3, 0
2, 1
3, 1
1, 2
2, 2
1, 4
4, 5
1, 1
2, 1
3, 2
0, 2
1, 5
0, 2
1, 1
0, 4
1, 6
1, 1
2, 4
1, 4
1, 1
3, 4
2, 1
3, 6
2, 5
6, 7
4, 7
1, 8
4, 5
4, 3
5, 2
4, 5
7, 4
5, 4
3, 6
4, 5
6, 2
4, 2
1, 4
7, 0
6, 1
2, 3
3, 2
2, 5
2, 0
2, 0
2, 0
1, 3
2, 5
1, 1
1, 6
1, 1
1, 3
2, 2
0, 1
2, 4
1, 1
3, 1
2, 5
4, 1
2, 3
3, 2
2, 0
1, 3
2, 2
0, 1
2, 3
3, 2
2, 1
4, 1
2, 0
2, 2
1, 3
0, 1
2, 5
12, 5
6, 7
3, 5
3, 2
1, 4
5, 0
3, 2
1, 3
3, 1
4, 3
3, 2
1, 1
6, 0
1, 0
3, 1
3, 1
3, 2
1, 2
1, 2
1, 1
1, 0
0, 1
1, 1
2, 2
1, 1
1, 2
1, 2
2, 1
0, 2
1, 3
0, 4
1, 3
0, 1
1, 2
0, 4
4, 2
0, 2
1, 1
0, 2
2, 3
0, 0
2, 2
0, 0
1, 1
4, 1
2, 3
0, 0
1, 1
3, 2
2, 1
0, 0
1, 0
0, 2
0, 1
2, 0
1, 5
2, 0
2, 1
1, 1
3, 0
1, 0
2, 1
3, 2
1, 0
1, 0
0, 1
0, 0
0, 2
0, 0
1, 2
0, 0
1, 1
1, 1
0, 0
1, 3
2, 0
1, 2
0, 1
0, 0
0, 0
1, 0
1, 0
1, 1
1, 1
2, 2
0, 2
0, 0
0, 0
2, 1
2, 0
1, 0
2, 1
2, 1
1, 1
0, 1
4, 1
0, 1
0, 2
1, 0
2, 0
1, 0
0, 1
0, 0
1, 0
0, 1
1, 1
1, 1
2, 1
0, 2
0, 0
0, 0
0, 2
1, 0
2, 0
0, 0
1, 0
0, 0
0, 0
0, 1
1, 2
1, 0
1, 0
1, 1
1, 1
0, 0
0, 0
0, 0
1, 0
0, 0
2, 1
0, 1
0, 2
1, 0
0, 0
1, 0
2, 0
1, 1
2, 0
0, 1
0, 1
0, 0
1, 1
0, 0
0, 0
0, 0
0, 1
1, 1
0, 0
0, 1
1, 0
0, 0
0, 0
2, 2
0, 0
1, 1
1, 0
0, 2
1, 0
1, 0
0, 2
0, 0
2, 0
0, 0
0, 0
0, 0
0, 0
0, 0
0, 0
0, 0
1, 0
1, 0
0, 0
0, 0
0, 1
0, 1
1, 0
2, 0
0, 1
0, 0
0, 0
0, 1
0, 0
1, 0
1, 1
0, 0
0, 0
0, 1
0, 0
0, 0
0, 0
0, 0
0, 0
0, 0
0, 0
0, 1
1, 0
0, 2
0, 1
0, 1
0, 0
2, 0
0, 0
0, 0
0, 0
0, 1
0, 0
0, 0
0, 1
0, 0
1, 0
1, 1
0, 1
0, 0
0, 0
0, 2
1, 0
0, 1
1, 1
0, 0
1, 0
1, 0
0, 0
0, 0
0, 0
0, 0
0, 0
0, 1
1, 0
0, 0
0, 0
0, 1
0, 0
0, 1
0, 0
0, 0
0, 1
0, 0
0, 0
0, 1
1, 0
0, 0
0, 0
1, 1
1, 1
1, 0
0, 0
0, 1
1, 0
0, 0
0, 1
0, 1
0, 0
1, 0
0, 1
0, 0
1, 0
0, 0
0, 0
0, 0
0, 0
0, 1
0, 0
1, 1
2, 1
0, 0
0, 0
0, 0
0, 0
0, 0
1, 0
0, 0
1, 0
0, 0
0, 0
0, 0
0, 0
0, 0
1, 0
0, 0
0, 0
0, 0
0, 0
1, 0
0, 2
0, 0
0, 0
0, 0
0, 0
0, 0
0, 0
1, 0
0, 0
0, 0
0, 0
1, 0
0, 0
0, 1
0, 0
0, 0
0, 0
0, 0
0, 0
0, 0
0, 0
0, 0
0, 0
0, 0
0, 0
0, 0
0, 0
0, 0
0, 0
0, 1
0, 0
0, 0
0, 1
0, 1
0, 0
0, 0
0, 0
0, 0
0, 0
0, 0
0, 0
0, 0
1, 0
0, 0
0, 0
0, 0
0, 0
0, 0
0, 0
0, 0
0, 0
0, 0
0, 1
0, 0
0, 1
0, 0
0, 0
0, 0
0, 0
0, 0
1, 0
0, 1
0, 0
0, 0
0, 0
0, 0
0, 0
0, 0
0, 1
0, 0
0, 0
0, 0
0, 0
0, 0
1, 0
0, 0
0, 0
0, 0
0, 0
0, 0
0, 0
0, 0
0, 0
0, 0
0, 0
0, 0
0, 0
0, 0
0, 0
0, 0
0, 0
0, 0
0, 0
0, 0
0, 0
0, 0
0, 0
0, 0
0, 0
0, 0
0, 0
0, 0
0, 0
1, 1
0, 0
0, 0
0, 0
0, 0
0, 0
0, 0
1, 0
0, 0
0, 0
0, 0
0, 0
0, 0
0, 0
0, 0
0, 0
0, 0
0, 0
0, 0
0, 0
0, 0
0, 0
0, 0
0, 0
0, 0
0, 0
0, 0
0, 1
0, 0
0, 0
0, 0
0, 0
0, 0
0, 0
0, 0
0, 0
0, 0
0, 0
0, 0
0, 1
0, 0
0, 0
0, 0
0, 0
0, 0
0, 0
0, 0
0, 0
0, 0
0, 0
0, 0
0, 0
0, 0
0, 0
0, 0
0, 0
0, 0
1, 0
0, 0
0, 0
0, 0
0, 0
0, 0
0, 0
0, 0
0, 0
0, 0
0, 0
0, 0
0, 0
0, 0
0, 0
0, 0
0, 0
0, 0
0, 0
0, 0
0, 0
0, 0
0, 0
0, 0
0, 0
0, 0
0, 0
0, 0
0, 0
0, 0
0, 0
0, 0
0, 0
0, 0
0, 0
0, 0
0, 0
0, 0
0, 0
0, 0
0, 0
0, 0
0, 0
0, 0
0, 0
0, 0
0, 0
0, 0
0, 0
0, 0
0, 0
0, 0
0, 0
0, 0
0, 0
0, 0
0, 0
0, 0
0, 0
0, 0
0, 0
0, 0
0, 0
0, 0
0, 0
0, 0
0, 0
0, 0
0, 0
0, 0
0, 0
0, 0
0, 0
0, 0
0, 0
0, 0
0, 0
0, 0
0, 0
0, 0
0, 0
0, 0
0, 0
0, 0
0, 0
0, 0
0, 0
0, 0
0, 0
0, 0
0, 0
0, 0
0, 0
0, 0
0, 0
0, 0
0, 0
0, 0
0, 0
0, 0
0, 0
0, 0
0, 0
1, 0
0, 0
0, 0
0, 0
0, 0
0, 0
0, 0
0, 1
0, 0
0, 0
0, 0
0, 0
0, 0
0, 0
0, 0
0, 0
0, 0
0, 0
0, 0
0, 0
0, 0
0, 0
0, 0
0, 0
0, 0
0, 0
0, 0
0, 0
0, 0
0, 0
0, 0
0, 0
0, 0
0, 0
0, 0
0, 0
0, 0
0, 0
0, 0
0, 0
0, 0
0, 0
0, 0
0, 0
0, 0
0, 0
0, 0
0, 0
0, 0
0, 0
0, 0
0, 0
0, 0
0, 0
0, 0
0, 0
0, 0
0, 0
0, 0
0, 0
0, 0
0, 0
0, 0
0, 0
0, 0
0, 0
0, 0
0, 0
0, 0
0, 0
0, 0
0, 0
0, 0
0, 0
0, 0
0, 0
0, 0
0, 0
0, 0
0, 0
0, 0
0, 0
0, 0
0, 0
0, 0
0, 0
0, 0
0, 0
0, 0
0, 0
0, 0
0, 0
0, 0
0, 0
0, 0
0, 0
0, 0
0, 0
0, 0
0, 0
0, 0
0, 0
0, 0
0, 0
0, 0
0, 0
0, 0
0, 0
0, 0
0, 0
0, 0
0, 0
0, 0
0, 0
0, 0
0, 0
0, 0
0, 0
0, 0
0, 0
0, 0
0, 0
0, 0
0, 0
0, 0
0, 0
0, 0
0, 0
0, 0
0, 0
0, 0
0, 0
0, 0
0, 0
0, 0
0, 0
0, 0
0, 0
0, 0
0, 0
0, 0
0, 0
0, 0
0, 0
0, 0
0, 0
0, 0
0, 0
0, 0
0, 0
0, 0
0, 0
0, 0
0, 0
0, 0
0, 0
0, 0
0, 0
0, 0
0, 0
0, 0
0, 0
0, 0
0, 0
0, 0
0, 0
0, 0
0, 0
0, 0
0, 0
0, 0
0, 0
0, 0
0, 0
0, 0
0, 0
0, 0
0, 0
0, 0
0, 0
0, 0
0, 0
0, 0
0, 0
0, 0
0, 0
0, 0
0, 0
0, 0
0, 0
0, 0
0, 0
0, 0
0, 0
0, 0
0, 0
0, 0
0, 0
0, 0
0, 0
0, 0
0, 0
0, 0
0, 0
0, 0
0, 0
0, 0
0, 0
0, 0
0, 0
0, 0
0, 0
0, 0
0, 0
0, 0
0, 0
0, 0
0, 0
0, 0
0, 0
0, 0
0, 0
0, 0
0, 0
0, 0
0, 0
0, 0
0, 0
0, 0
0, 0
0, 0
0, 0
0, 0
0, 0
0, 0
0, 0
0, 0
0, 0
0, 0
0, 0
0, 0
0, 0
0, 0
0, 0
0, 0
0, 0
0, 0
0, 0
0, 0
0, 0
0, 0
0, 0
0, 0
0, 0
0, 0
0, 0
0, 0
0, 0
0, 0
0, 0
0, 0
0, 0
0, 0
0, 0
0, 0
0, 0
0, 0
0, 0
0, 0
0, 0
0, 0
0, 0
0, 0
0, 0
0, 0
0, 0
0, 0
0, 0
0, 0
0, 0
0, 0
#ENDOFDATA     end of spectrum data