File: host_upload/06-09-2024/ps_0852/dump3/ps__0852shot_2473.msa
#FORMAT      : EMSA/MAS spectral data file
#VERSION     : TC202v2.0 PIXL
#TITLE       : N/A
#DATE        :       Date in the format DD-MMM-YYYY, for example 07-JUL-2010
#TIME        :             The time of day at which the spectrum was recorded, in 24-hour format
#OWNER       : PIXL Flight Model       (PIXL will use this to indicate which instrument took the data.)
#NPOINTS     : 4096     Number of data points in the spectrum (This can be zero for configuration only files)
#NCOLUMNS    : 2     Number of data columns in the spectrum (This can be zero for configuration only files)
#XUNITS      : eV
#YUNITS      : COUNTS
#DATATYPE    : YY
#XPERCHAN    : 7.862, 7.881   eV per channel (separate by commas if more than one detector)
#OFFSET      : 18.5, -22.4         eV of first channel  (separate by commas if more than one detector
#SIGNALTYPE  : XRF
#YP_TEMP     : 2.267
#LIVETIME    : 8.54138, 8.35384   seconds (separate by commas if more than one detector)
#REALTIME    : 10, 10.0   seconds (separate by commas if more than one detector)
#SPECTRUM    : start of spectrum data
0, 0
0, 0
0, 0
0, 0
0, 0
0, 0
0, 0
0, 0
0, 0
0, 0
0, 0
0, 0
0, 0
0, 0
0, 0
0, 0
0, 0
0, 0
0, 0
0, 0
0, 0
0, 0
0, 0
0, 0
0, 0
0, 0
0, 0
0, 0
0, 0
0, 0
0, 0
0, 0
0, 0
1, 0
2, 2
0, 0
0, 2
0, 0
0, 0
0, 0
1, 0
2, 3
1, 0
0, 2
1, 1
1, 1
3, 3
3, 3
5, 1
11, 16
23, 22
44, 42
63, 47
69, 82
71, 88
69, 73
83, 47
41, 34
27, 23
10, 10
6, 2
2, 8
4, 4
7, 3
2, 3
1, 0
4, 3
17, 6
21, 11
49, 39
89, 83
166, 149
279, 227
353, 336
446, 354
427, 379
378, 287
290, 271
198, 140
110, 107
64, 55
40, 21
16, 10
11, 6
7, 4
5, 6
5, 3
3, 2
5, 3
4, 2
6, 4
7, 6
12, 10
10, 19
35, 22
57, 51
83, 91
107, 112
114, 121
121, 98
104, 89
95, 79
53, 43
40, 42
29, 22
18, 14
14, 17
15, 17
16, 24
24, 16
26, 16
32, 31
36, 28
56, 38
47, 45
60, 46
49, 32
40, 38
34, 28
28, 25
30, 15
26, 27
21, 16
23, 24
11, 12
17, 13
12, 10
8, 12
10, 5
12, 7
5, 8
4, 4
3, 7
5, 4
3, 2
0, 3
3, 5
3, 2
6, 4
2, 1
4, 3
7, 4
9, 0
3, 5
3, 2
1, 2
1, 1
2, 4
1, 1
4, 2
2, 5
2, 4
4, 6
8, 4
7, 9
12, 13
24, 21
15, 19
16, 23
12, 21
10, 14
11, 7
4, 8
9, 11
10, 10
12, 8
8, 11
11, 7
10, 8
8, 7
13, 6
9, 4
6, 9
14, 10
6, 16
4, 14
5, 15
3, 17
7, 20
5, 20
8, 27
2, 19
3, 12
5, 8
1, 8
6, 7
4, 3
6, 3
5, 5
7, 7
8, 9
10, 7
13, 15
13, 7
12, 17
14, 9
15, 11
16, 31
10, 24
8, 17
11, 30
16, 27
12, 28
12, 30
13, 35
18, 16
14, 13
11, 8
12, 13
11, 7
10, 4
8, 6
12, 9
13, 12
7, 7
8, 6
6, 9
9, 4
6, 9
3, 6
7, 11
9, 5
11, 7
12, 6
7, 12
18, 13
18, 8
16, 17
22, 20
18, 22
24, 23
19, 21
27, 11
13, 12
21, 9
19, 6
14, 14
12, 12
11, 19
3, 20
9, 34
13, 38
14, 49
7, 46
13, 45
17, 46
21, 55
35, 66
55, 71
54, 64
52, 53
65, 70
54, 66
62, 58
55, 43
41, 34
42, 24
47, 17
52, 21
64, 6
75, 18
84, 27
118, 49
141, 79
215, 178
300, 360
508, 550
821, 767
1158, 1232
1583, 1633
2009, 2044
2365, 2199
2556, 2221
2462, 2030
2240, 1832
1770, 1346
1353, 1005
969, 690
620, 393
356, 229
209, 133
124, 59
65, 38
36, 19
23, 20
20, 13
27, 13
25, 17
21, 13
27, 23
24, 27
44, 21
50, 61
81, 71
103, 106
146, 145
184, 201
293, 266
300, 293
377, 356
350, 318
355, 302
329, 280
271, 202
185, 176
127, 98
102, 69
54, 45
28, 28
27, 10
20, 6
9, 6
7, 12
13, 9
9, 7
15, 8
15, 12
17, 8
17, 8
11, 14
13, 13
14, 6
8, 7
4, 2
4, 6
6, 9
10, 6
9, 5
5, 8
5, 5
6, 6
1, 5
4, 4
4, 6
5, 4
3, 5
4, 5
5, 4
5, 5
7, 5
3, 4
5, 4
8, 4
3, 6
5, 10
6, 6
9, 10
6, 7
9, 5
7, 11
8, 7
6, 7
11, 5
18, 4
15, 5
33, 10
32, 10
24, 2
33, 7
36, 7
32, 2
36, 2
32, 3
22, 3
19, 5
23, 1
11, 2
11, 5
9, 4
8, 2
6, 2
9, 5
4, 3
9, 4
6, 4
4, 6
2, 3
5, 1
3, 3
3, 3
2, 5
4, 2
4, 1
3, 3
6, 3
7, 4
6, 4
3, 3
5, 2
4, 2
4, 5
5, 2
4, 2
3, 6
3, 3
0, 6
4, 5
3, 1
1, 5
0, 1
4, 5
2, 3
1, 3
7, 4
1, 6
4, 4
2, 4
6, 3
8, 4
5, 7
4, 3
4, 2
4, 1
12, 7
8, 2
10, 3
5, 3
9, 0
13, 2
9, 3
7, 3
3, 1
3, 1
6, 1
1, 6
4, 2
3, 1
5, 3
1, 7
4, 4
4, 3
2, 2
7, 2
4, 4
8, 1
4, 4
3, 4
3, 3
2, 3
3, 4
3, 3
3, 1
3, 7
3, 1
5, 3
2, 1
2, 4
2, 1
3, 5
3, 1
2, 5
1, 4
2, 4
3, 5
5, 2
4, 3
2, 1
1, 5
3, 2
1, 0
3, 1
1, 1
4, 0
0, 1
3, 0
1, 3
2, 2
0, 1
0, 2
1, 4
4, 4
2, 2
2, 4
2, 1
2, 2
2, 2
1, 2
7, 2
1, 1
5, 2
5, 2
2, 4
2, 4
5, 2
2, 5
1, 7
2, 4
2, 5
3, 3
3, 4
3, 1
3, 3
3, 1
1, 2
4, 3
0, 3
4, 0
0, 2
4, 4
5, 3
3, 2
0, 3
2, 1
0, 3
3, 2
1, 0
2, 3
6, 1
1, 0
5, 1
1, 2
1, 1
3, 2
3, 3
2, 2
3, 0
1, 2
3, 2
4, 5
0, 3
1, 1
1, 1
4, 1
3, 1
2, 3
1, 2
2, 0
2, 2
1, 0
2, 1
2, 3
1, 2
2, 2
5, 2
4, 2
2, 5
2, 5
4, 1
3, 5
4, 2
4, 1
4, 4
8, 3
7, 4
4, 2
3, 4
6, 5
4, 4
1, 5
2, 3
1, 2
2, 1
2, 0
1, 2
3, 2
2, 0
2, 1
2, 1
3, 1
1, 1
0, 3
3, 1
3, 1
0, 2
0, 0
2, 0
1, 1
2, 0
2, 0
2, 0
6, 3
2, 3
1, 0
3, 2
1, 7
2, 2
0, 1
2, 1
2, 1
2, 0
1, 0
1, 1
2, 1
0, 0
0, 1
1, 0
0, 3
1, 0
0, 0
1, 2
1, 1
0, 3
0, 1
3, 1
2, 1
2, 3
4, 0
3, 0
0, 1
1, 0
1, 0
0, 0
1, 1
0, 0
2, 3
1, 0
0, 2
0, 2
2, 0
0, 1
0, 0
0, 0
1, 0
1, 1
0, 0
1, 0
1, 0
1, 0
2, 0
2, 0
3, 0
2, 0
1, 1
1, 1
0, 0
3, 0
1, 1
1, 0
0, 2
1, 0
3, 0
1, 0
0, 2
1, 0
0, 1
1, 2
0, 1
0, 0
0, 1
1, 0
1, 3
1, 0
1, 0
0, 0
0, 1
0, 1
1, 0
0, 3
0, 1
0, 3
1, 0
2, 0
1, 2
1, 0
0, 1
1, 3
0, 0
0, 0
1, 0
1, 1
1, 0
0, 2
1, 0
2, 1
1, 1
1, 1
0, 0
3, 1
0, 1
1, 0
0, 2
0, 0
1, 0
0, 0
0, 0
2, 0
3, 0
1, 2
0, 1
3, 1
1, 0
0, 1
2, 0
0, 0
2, 1
0, 1
0, 1
0, 2
1, 2
2, 0
0, 0
0, 0
0, 3
0, 0
0, 1
1, 0
3, 1
1, 0
1, 0
1, 0
2, 0
0, 0
0, 0
0, 0
1, 1
0, 0
2, 0
0, 1
0, 0
0, 1
0, 0
3, 0
0, 0
0, 0
1, 0
0, 0
0, 1
1, 0
1, 0
1, 1
0, 0
0, 0
0, 0
1, 1
0, 0
0, 0
0, 1
2, 0
1, 1
0, 0
0, 0
0, 0
1, 1
0, 1
0, 0
1, 0
1, 1
0, 1
0, 1
1, 0
0, 0
1, 0
2, 1
0, 0
0, 1
0, 0
0, 0
1, 0
0, 0
0, 0
1, 0
0, 0
0, 1
0, 0
0, 0
0, 0
0, 0
0, 0
0, 0
0, 2
1, 2
1, 0
0, 1
0, 1
1, 0
0, 1
0, 0
0, 0
0, 1
0, 0
1, 0
0, 1
0, 0
0, 1
0, 0
1, 0
0, 0
0, 0
0, 1
1, 0
0, 0
0, 1
1, 0
0, 0
0, 0
0, 0
1, 0
0, 0
0, 0
1, 0
0, 0
0, 0
0, 0
1, 0
0, 0
0, 1
1, 0
0, 0
1, 2
0, 0
0, 1
0, 1
2, 0
0, 0
0, 0
0, 0
0, 0
0, 0
0, 0
1, 1
1, 0
0, 0
0, 0
2, 0
0, 1
0, 0
1, 0
0, 0
0, 0
0, 0
1, 0
0, 1
0, 0
0, 0
0, 0
0, 0
0, 0
0, 0
0, 2
0, 0
0, 0
0, 1
0, 0
0, 0
0, 0
0, 0
0, 0
0, 0
1, 0
0, 0
0, 0
0, 0
0, 0
0, 0
0, 1
0, 0
0, 0
1, 0
2, 1
0, 0
1, 0
0, 0
0, 0
0, 0
0, 0
0, 0
0, 1
0, 0
1, 0
0, 0
0, 0
0, 0
0, 1
0, 0
0, 0
0, 0
0, 0
0, 0
0, 0
0, 1
1, 0
0, 0
0, 0
0, 0
1, 0
0, 0
0, 0
0, 0
0, 0
0, 0
0, 0
1, 0
0, 0
0, 0
0, 0
0, 0
0, 0
0, 0
0, 0
1, 0
0, 0
1, 0
0, 0
0, 0
0, 0
0, 0
0, 0
0, 0
0, 0
0, 0
0, 0
0, 1
0, 0
0, 0
0, 0
0, 0
1, 0
0, 0
0, 0
0, 0
0, 0
0, 0
0, 0
0, 0
0, 0
0, 0
0, 0
0, 0
0, 0
0, 0
0, 0
0, 0
0, 0
0, 0
0, 0
0, 0
0, 0
0, 0
0, 0
0, 0
0, 0
0, 0
0, 0
0, 0
1, 0
0, 0
0, 0
0, 0
0, 0
0, 0
0, 0
0, 0
0, 0
0, 0
0, 0
0, 0
0, 0
0, 0
0, 0
0, 0
0, 0
0, 0
0, 0
0, 0
0, 0
0, 0
0, 0
0, 0
0, 0
0, 0
0, 0
0, 0
0, 0
0, 0
0, 0
0, 0
0, 0
0, 0
0, 0
0, 0
0, 0
0, 0
0, 0
0, 0
0, 0
0, 0
0, 0
0, 1
0, 0
0, 0
0, 0
0, 0
0, 0
0, 0
0, 0
0, 0
1, 0
0, 0
0, 0
0, 0
0, 0
0, 0
0, 0
0, 0
0, 0
0, 0
0, 0
0, 0
0, 0
0, 0
0, 0
0, 0
0, 0
0, 0
0, 0
0, 0
0, 0
0, 0
0, 0
0, 0
0, 0
0, 1
0, 0
0, 0
0, 0
0, 0
0, 0
0, 0
0, 0
0, 0
0, 0
0, 0
0, 0
0, 0
0, 0
0, 0
0, 0
0, 0
0, 0
0, 0
0, 0
0, 0
0, 0
0, 0
0, 0
0, 0
0, 0
0, 0
0, 0
0, 0
0, 0
0, 0
0, 0
0, 0
0, 0
0, 0
0, 0
0, 0
0, 0
0, 0
0, 0
0, 0
0, 0
0, 0
0, 0
0, 0
0, 0
0, 0
0, 0
0, 0
0, 0
0, 0
0, 0
0, 0
0, 0
0, 0
0, 0
0, 0
0, 0
0, 0
0, 0
0, 0
1, 0
0, 0
0, 0
0, 0
0, 0
0, 0
0, 0
0, 0
0, 0
0, 0
0, 0
0, 0
0, 0
0, 0
0, 0
0, 0
0, 0
0, 0
0, 0
0, 0
0, 0
0, 0
0, 0
0, 0
0, 0
0, 0
0, 0
0, 0
0, 0
0, 0
0, 0
0, 0
0, 0
0, 0
0, 0
0, 0
0, 0
0, 0
0, 0
0, 0
0, 0
0, 0
0, 0
0, 0
0, 0
0, 0
0, 0
0, 0
0, 0
0, 0
0, 0
0, 0
0, 0
0, 0
0, 0
0, 0
0, 0
0, 0
0, 0
0, 0
0, 0
0, 0
0, 0
0, 0
0, 0
0, 0
0, 0
0, 0
0, 0
0, 0
0, 0
0, 0
0, 0
0, 0
0, 0
0, 0
0, 0
0, 0
0, 0
0, 0
0, 0
0, 0
0, 0
0, 0
0, 0
0, 0
0, 0
0, 0
0, 0
0, 0
0, 0
0, 0
0, 0
0, 0
0, 0
0, 0
0, 0
0, 0
0, 0
0, 0
0, 0
0, 0
0, 0
0, 0
0, 0
0, 0
0, 0
0, 0
0, 0
0, 0
0, 0
0, 0
0, 0
0, 0
0, 0
0, 0
0, 0
0, 0
0, 0
0, 0
0, 0
0, 0
0, 0
0, 0
0, 0
0, 0
0, 0
0, 0
0, 0
0, 0
0, 0
0, 0
0, 0
0, 0
0, 0
0, 0
0, 0
0, 0
0, 0
0, 0
0, 0
0, 0
0, 0
0, 0
0, 0
0, 0
0, 0
0, 0
0, 0
0, 0
0, 0
0, 0
0, 0
0, 0
0, 0
0, 0
0, 0
0, 0
0, 0
0, 0
0, 0
0, 0
0, 0
0, 0
0, 0
0, 0
0, 0
0, 0
0, 0
0, 0
0, 0
0, 0
0, 0
0, 0
0, 0
0, 0
0, 0
0, 0
0, 0
0, 0
0, 0
0, 0
0, 0
0, 0
0, 0
0, 0
0, 0
0, 0
0, 0
0, 0
0, 0
0, 0
0, 0
0, 0
0, 0
0, 0
0, 0
0, 0
0, 0
0, 0
0, 0
0, 0
0, 0
0, 0
0, 0
0, 0
0, 0
0, 0
0, 0
0, 0
0, 0
0, 0
0, 0
0, 0
0, 0
0, 0
0, 0
0, 0
0, 0
0, 0
0, 0
0, 0
0, 0
0, 0
0, 0
0, 0
0, 0
0, 0
0, 0
0, 0
0, 0
0, 0
0, 0
0, 0
0, 0
0, 0
0, 0
0, 0
0, 0
0, 0
0, 0
0, 0
0, 0
0, 0
0, 0
0, 0
0, 0
0, 0
0, 0
0, 0
0, 0
0, 0
0, 0
0, 0
0, 0
0, 0
0, 0
0, 0
0, 0
0, 0
0, 0
0, 0
0, 0
0, 0
0, 0
0, 0
0, 0
0, 0
0, 0
0, 0
0, 0
0, 0
0, 0
0, 0
0, 0
0, 0
0, 0
0, 0
0, 0
0, 0
0, 0
0, 0
0, 0
0, 0
0, 0
0, 0
0, 0
0, 0
0, 0
0, 0
0, 0
0, 0
0, 0
0, 0
#ENDOFDATA     end of spectrum data