File: host_upload/06-09-2024/ps_0852/dump3/ps__0852shot_2428.msa
#FORMAT      : EMSA/MAS spectral data file
#VERSION     : TC202v2.0 PIXL
#TITLE       : N/A
#DATE        :       Date in the format DD-MMM-YYYY, for example 07-JUL-2010
#TIME        :             The time of day at which the spectrum was recorded, in 24-hour format
#OWNER       : PIXL Flight Model       (PIXL will use this to indicate which instrument took the data.)
#NPOINTS     : 4096     Number of data points in the spectrum (This can be zero for configuration only files)
#NCOLUMNS    : 2     Number of data columns in the spectrum (This can be zero for configuration only files)
#XUNITS      : eV
#YUNITS      : COUNTS
#DATATYPE    : YY
#XPERCHAN    : 7.862, 7.881   eV per channel (separate by commas if more than one detector)
#OFFSET      : 18.5, -22.4         eV of first channel  (separate by commas if more than one detector
#SIGNALTYPE  : XRF
#YP_TEMP     : 2.46
#LIVETIME    : 8.56911, 8.55737   seconds (separate by commas if more than one detector)
#REALTIME    : 10, 10.0   seconds (separate by commas if more than one detector)
#SPECTRUM    : start of spectrum data
0, 0
0, 0
0, 0
0, 0
0, 0
0, 0
0, 0
0, 0
0, 0
0, 0
0, 0
0, 0
0, 0
0, 0
0, 0
0, 0
0, 0
0, 0
0, 0
0, 0
0, 0
0, 0
0, 0
0, 0
0, 0
0, 0
0, 0
0, 1
0, 0
0, 0
0, 0
0, 0
1, 0
0, 0
0, 0
0, 0
1, 0
2, 0
0, 2
1, 0
1, 1
0, 0
1, 2
0, 2
1, 1
1, 1
1, 0
4, 3
3, 8
16, 12
25, 25
40, 42
55, 49
66, 82
79, 67
81, 81
60, 54
37, 48
39, 22
8, 14
4, 6
1, 2
1, 0
4, 5
1, 0
3, 5
4, 6
10, 8
14, 23
50, 38
96, 102
180, 170
311, 286
403, 358
405, 418
449, 403
391, 357
302, 265
188, 205
149, 113
68, 78
44, 34
15, 21
13, 7
8, 4
4, 5
2, 2
2, 0
4, 0
0, 2
1, 1
1, 1
1, 1
1, 0
0, 4
1, 0
3, 1
2, 1
2, 2
4, 4
4, 2
1, 3
2, 2
1, 1
2, 5
3, 2
3, 2
8, 4
5, 14
10, 12
16, 15
16, 32
23, 25
27, 28
36, 34
34, 32
29, 31
36, 30
23, 19
24, 21
22, 17
25, 20
16, 17
15, 10
15, 12
11, 13
14, 12
12, 9
10, 4
6, 4
7, 4
3, 3
3, 3
0, 1
1, 1
2, 1
2, 1
3, 2
1, 3
1, 2
2, 2
5, 1
3, 0
2, 0
0, 2
0, 2
2, 2
3, 1
2, 5
4, 5
9, 9
7, 11
20, 18
26, 36
42, 45
64, 57
85, 78
73, 83
91, 84
70, 47
56, 45
33, 35
26, 22
13, 10
14, 4
7, 7
6, 6
8, 7
8, 5
16, 16
9, 12
12, 7
15, 10
22, 12
8, 9
5, 9
10, 4
4, 5
5, 3
0, 5
1, 0
2, 3
5, 3
3, 2
3, 1
7, 0
3, 8
6, 3
2, 8
6, 2
7, 6
9, 4
6, 10
13, 13
8, 15
8, 14
15, 10
11, 9
11, 13
17, 11
7, 9
5, 7
6, 9
8, 2
8, 5
7, 7
9, 7
2, 8
5, 4
2, 4
6, 3
7, 4
10, 6
3, 2
4, 2
5, 4
5, 7
6, 4
7, 6
9, 11
6, 10
8, 11
5, 13
5, 22
7, 19
6, 31
12, 27
21, 27
15, 34
29, 21
26, 32
24, 29
21, 18
24, 19
22, 14
20, 13
11, 6
14, 15
11, 4
8, 6
15, 11
15, 7
15, 9
20, 15
22, 16
25, 27
22, 39
39, 49
62, 57
59, 64
80, 58
73, 72
87, 69
61, 52
68, 41
41, 32
45, 20
30, 23
30, 21
29, 22
14, 20
29, 25
39, 59
64, 110
118, 190
239, 341
448, 543
720, 937
995, 1262
1468, 1752
1839, 2113
2050, 2334
2155, 2349
2207, 2149
1873, 1902
1562, 1450
1242, 1055
871, 714
556, 396
313, 238
189, 126
92, 71
63, 35
35, 25
12, 6
18, 10
17, 12
13, 16
19, 11
19, 15
15, 24
29, 47
52, 57
67, 74
102, 115
132, 186
184, 215
223, 286
264, 327
294, 356
293, 345
320, 288
276, 258
231, 232
184, 127
133, 88
82, 55
54, 43
35, 28
24, 16
21, 13
17, 16
26, 17
32, 16
26, 20
29, 26
26, 23
19, 20
24, 19
27, 16
15, 8
9, 10
8, 13
13, 5
5, 7
3, 5
5, 3
2, 2
2, 1
4, 5
3, 1
4, 4
4, 6
3, 2
2, 7
0, 7
3, 8
3, 7
4, 9
3, 11
1, 5
0, 11
1, 6
4, 9
4, 11
0, 17
9, 16
3, 18
4, 20
5, 19
3, 11
6, 8
6, 7
10, 4
5, 7
5, 9
10, 3
2, 5
7, 6
0, 6
3, 4
5, 6
3, 3
3, 9
5, 5
2, 5
2, 3
3, 7
3, 5
1, 5
3, 4
2, 4
2, 4
10, 1
6, 8
9, 5
7, 2
13, 11
13, 2
11, 2
16, 0
15, 4
10, 1
6, 4
11, 2
12, 4
3, 3
3, 3
3, 3
3, 1
6, 2
3, 3
4, 6
3, 5
1, 4
6, 3
6, 2
2, 1
4, 2
5, 4
3, 1
3, 4
3, 3
11, 2
3, 6
3, 4
3, 1
2, 2
3, 3
2, 2
2, 4
3, 1
1, 3
2, 2
3, 2
0, 2
1, 3
3, 2
3, 3
8, 3
3, 2
1, 3
3, 4
2, 1
1, 6
1, 4
6, 6
8, 1
1, 2
1, 3
2, 2
2, 5
4, 0
1, 6
3, 4
5, 2
0, 2
8, 5
4, 4
3, 2
1, 5
5, 3
3, 2
2, 2
4, 2
6, 4
5, 0
2, 1
1, 2
2, 5
3, 3
4, 3
2, 1
5, 5
6, 3
5, 2
1, 4
6, 4
3, 5
1, 5
1, 4
5, 2
5, 3
3, 4
4, 5
4, 4
1, 3
3, 3
3, 1
4, 2
4, 1
3, 4
2, 1
1, 1
1, 0
1, 2
3, 2
0, 2
3, 3
1, 2
2, 1
2, 1
1, 2
2, 0
0, 0
1, 3
2, 1
3, 1
2, 2
1, 1
4, 3
4, 6
1, 1
0, 1
2, 1
3, 1
0, 1
2, 1
1, 1
1, 2
0, 2
4, 2
0, 3
4, 2
2, 3
2, 2
1, 3
3, 2
2, 2
1, 3
0, 2
2, 3
2, 0
3, 4
0, 1
1, 2
5, 1
3, 4
0, 2
0, 0
0, 0
0, 1
1, 3
2, 4
3, 1
2, 3
2, 1
3, 2
4, 1
4, 3
5, 3
1, 6
3, 2
1, 2
3, 0
4, 4
4, 3
3, 3
2, 0
2, 3
1, 1
4, 4
4, 5
2, 5
6, 4
7, 4
3, 6
6, 2
3, 1
3, 5
3, 2
4, 3
3, 0
1, 4
2, 0
3, 0
1, 2
2, 0
3, 0
2, 3
0, 0
1, 0
2, 3
3, 0
3, 1
0, 2
3, 3
3, 1
4, 2
0, 3
1, 2
1, 1
2, 2
0, 0
1, 2
1, 1
3, 0
3, 1
0, 2
2, 3
1, 2
0, 0
2, 3
0, 1
0, 1
0, 1
1, 3
1, 2
0, 2
2, 1
1, 0
0, 0
0, 4
2, 1
2, 0
2, 1
1, 1
1, 2
2, 1
2, 0
1, 1
0, 0
1, 1
0, 2
2, 0
0, 0
0, 1
0, 3
2, 1
1, 1
2, 2
0, 0
1, 1
0, 1
2, 2
1, 0
0, 0
1, 1
1, 1
0, 2
0, 2
0, 0
1, 1
1, 0
0, 1
3, 2
0, 0
0, 1
1, 1
2, 0
0, 0
1, 0
0, 0
1, 0
2, 1
1, 2
0, 1
2, 1
1, 0
2, 1
2, 4
1, 2
0, 1
0, 1
0, 0
1, 1
4, 2
0, 0
1, 0
2, 0
1, 0
1, 1
0, 0
1, 0
0, 0
1, 3
0, 0
0, 1
1, 0
1, 0
0, 0
0, 0
1, 0
0, 1
1, 1
0, 0
0, 1
0, 0
0, 1
0, 0
0, 0
1, 0
1, 2
0, 0
0, 1
0, 1
0, 0
1, 0
1, 0
1, 0
2, 0
0, 1
1, 0
0, 0
0, 0
0, 0
0, 0
1, 0
0, 0
2, 0
0, 1
0, 0
0, 2
0, 0
0, 2
0, 0
0, 1
1, 1
0, 0
0, 1
1, 1
0, 0
0, 0
0, 0
0, 2
0, 0
0, 2
0, 1
0, 1
0, 0
1, 1
1, 0
0, 0
1, 0
0, 1
2, 0
0, 0
1, 1
0, 0
2, 1
0, 0
1, 0
0, 0
1, 0
0, 0
0, 1
0, 1
0, 0
0, 0
0, 0
1, 0
1, 0
1, 1
0, 0
0, 0
0, 0
0, 0
0, 0
0, 0
0, 1
1, 1
0, 0
0, 0
1, 0
1, 0
0, 0
0, 0
0, 1
0, 0
1, 0
1, 0
0, 0
0, 0
1, 0
1, 0
0, 0
0, 0
1, 0
1, 1
0, 0
0, 0
0, 0
0, 1
0, 0
0, 0
1, 0
0, 0
1, 0
0, 0
0, 0
0, 0
0, 1
0, 1
1, 1
0, 0
0, 0
0, 0
0, 0
0, 1
0, 1
0, 0
0, 0
0, 0
0, 0
1, 0
1, 0
0, 0
0, 0
0, 0
1, 0
0, 1
0, 1
0, 0
0, 1
0, 1
1, 0
0, 1
1, 0
2, 0
0, 0
0, 1
0, 0
0, 1
0, 0
0, 0
0, 0
0, 0
0, 0
0, 0
0, 1
0, 1
0, 0
0, 0
0, 0
0, 0
1, 0
0, 0
1, 0
0, 0
0, 0
0, 0
0, 0
0, 0
0, 0
0, 0
1, 1
0, 0
0, 1
0, 0
0, 0
0, 0
0, 0
0, 0
0, 0
0, 0
0, 0
0, 0
1, 0
1, 0
0, 0
0, 0
0, 0
0, 0
0, 1
0, 0
0, 0
0, 0
0, 0
0, 0
0, 0
0, 0
0, 1
1, 0
0, 1
0, 0
0, 0
0, 1
0, 0
0, 0
0, 0
0, 0
0, 0
0, 0
1, 0
0, 0
2, 0
0, 0
0, 0
0, 0
0, 0
0, 2
0, 0
0, 0
0, 0
0, 1
0, 0
0, 0
0, 0
0, 0
0, 0
0, 0
0, 0
0, 0
0, 0
0, 0
1, 0
0, 0
0, 0
0, 0
0, 0
0, 0
0, 0
0, 0
0, 0
0, 1
0, 0
0, 0
0, 0
1, 0
0, 0
0, 1
0, 0
1, 0
0, 0
1, 0
0, 0
0, 0
0, 0
0, 0
0, 0
0, 0
0, 0
0, 0
0, 0
0, 0
0, 0
1, 0
0, 0
0, 0
0, 0
0, 0
1, 0
0, 0
0, 0
0, 0
0, 0
0, 0
0, 0
0, 0
0, 0
0, 0
1, 0
0, 0
0, 0
0, 0
0, 0
0, 0
0, 0
0, 0
0, 0
0, 0
0, 0
0, 0
0, 0
0, 0
0, 0
0, 0
0, 0
0, 0
0, 0
0, 0
0, 0
0, 0
0, 0
0, 0
0, 0
0, 0
0, 0
0, 0
0, 0
0, 0
0, 1
0, 0
0, 0
0, 0
0, 0
0, 0
0, 0
0, 0
0, 0
0, 0
0, 0
0, 0
0, 0
0, 0
0, 0
0, 0
0, 0
0, 0
0, 0
0, 0
0, 1
0, 0
0, 0
0, 0
0, 0
0, 1
0, 0
0, 0
0, 0
0, 0
0, 0
0, 0
0, 0
0, 0
0, 0
0, 0
0, 0
0, 0
0, 0
0, 0
0, 0
0, 0
0, 0
0, 0
0, 0
0, 0
0, 0
0, 0
0, 0
0, 0
0, 0
0, 0
0, 0
0, 0
0, 0
0, 0
0, 0
0, 0
0, 0
0, 0
0, 0
0, 0
0, 0
0, 0
0, 0
0, 0
0, 0
0, 0
0, 0
0, 0
0, 0
0, 0
0, 0
0, 0
0, 0
1, 0
0, 0
0, 0
0, 0
0, 0
0, 0
0, 0
0, 0
0, 0
0, 0
0, 0
0, 0
0, 0
0, 0
0, 0
0, 0
0, 0
0, 0
0, 0
0, 0
0, 0
0, 0
0, 1
0, 0
0, 0
0, 0
0, 0
0, 0
0, 0
0, 0
0, 0
0, 0
0, 0
0, 0
0, 0
0, 0
0, 0
0, 0
0, 0
0, 0
0, 0
0, 0
0, 0
0, 0
0, 0
0, 0
0, 0
0, 0
0, 0
0, 0
0, 0
0, 0
0, 0
0, 0
0, 0
0, 0
0, 0
0, 0
0, 0
0, 0
0, 0
0, 0
0, 0
0, 0
0, 0
0, 0
0, 0
0, 0
0, 0
0, 0
0, 0
0, 0
0, 0
0, 0
0, 0
0, 0
0, 0
0, 0
0, 0
0, 0
0, 0
0, 0
0, 0
0, 0
0, 0
0, 0
0, 0
0, 0
0, 0
0, 0
0, 0
0, 0
0, 0
0, 0
0, 0
0, 0
0, 0
0, 0
0, 0
0, 0
0, 0
0, 0
0, 0
0, 0
0, 0
0, 0
0, 0
0, 0
0, 0
0, 0
0, 0
0, 0
0, 0
0, 0
0, 0
0, 0
0, 0
0, 0
0, 0
0, 0
0, 0
0, 0
0, 0
0, 0
0, 0
0, 0
0, 0
0, 0
0, 0
0, 0
0, 0
0, 0
0, 0
0, 0
0, 0
0, 0
0, 0
0, 0
0, 0
0, 0
0, 0
0, 0
0, 0
0, 0
0, 0
0, 0
0, 0
0, 0
0, 0
0, 0
0, 0
0, 0
0, 0
0, 0
0, 0
0, 0
0, 0
0, 0
0, 0
0, 0
0, 0
0, 0
0, 0
0, 0
0, 0
0, 0
0, 0
0, 0
0, 0
0, 0
0, 0
0, 0
0, 0
0, 0
0, 0
0, 0
0, 0
0, 0
0, 0
0, 0
0, 0
0, 0
0, 0
0, 0
0, 0
0, 0
0, 0
0, 0
0, 0
0, 0
0, 0
0, 0
0, 0
0, 0
0, 0
0, 0
0, 0
0, 0
0, 0
0, 0
0, 0
0, 0
0, 0
0, 0
0, 0
0, 0
0, 0
0, 0
0, 0
0, 0
0, 0
0, 0
0, 0
0, 0
0, 0
0, 0
0, 0
0, 0
0, 0
0, 0
0, 0
0, 0
0, 0
0, 0
0, 0
0, 0
0, 0
0, 0
0, 0
0, 0
0, 0
0, 0
0, 0
0, 0
0, 0
0, 0
0, 0
0, 0
0, 0
0, 0
0, 0
0, 0
0, 0
0, 0
0, 0
0, 0
0, 0
0, 0
0, 0
0, 0
0, 0
0, 0
0, 0
0, 0
0, 0
0, 0
0, 0
0, 0
0, 0
0, 0
0, 0
0, 0
0, 0
0, 0
0, 0
0, 0
0, 0
0, 0
0, 0
0, 0
0, 0
0, 0
0, 0
0, 0
0, 0
0, 0
0, 0
0, 0
0, 0
0, 0
0, 0
0, 0
0, 0
0, 0
0, 0
0, 0
0, 0
0, 0
0, 0
0, 0
0, 0
0, 0
0, 0
0, 0
0, 0
0, 0
0, 0
0, 0
0, 0
0, 0
0, 0
0, 0
0, 0
0, 0
0, 0
0, 0
0, 0
0, 0
0, 0
0, 0
0, 0
0, 0
0, 0
0, 0
0, 0
0, 0
0, 0
0, 0
0, 0
0, 0
0, 0
0, 0
0, 0
0, 0
0, 0
0, 0
0, 0
0, 0
0, 0
0, 0
#ENDOFDATA     end of spectrum data