File: host_upload/06-09-2024/ps_0852/dump3/ps__0852shot_2546.msa
#FORMAT      : EMSA/MAS spectral data file
#VERSION     : TC202v2.0 PIXL
#TITLE       : N/A
#DATE        :       Date in the format DD-MMM-YYYY, for example 07-JUL-2010
#TIME        :             The time of day at which the spectrum was recorded, in 24-hour format
#OWNER       : PIXL Flight Model       (PIXL will use this to indicate which instrument took the data.)
#NPOINTS     : 4096     Number of data points in the spectrum (This can be zero for configuration only files)
#NCOLUMNS    : 2     Number of data columns in the spectrum (This can be zero for configuration only files)
#XUNITS      : eV
#YUNITS      : COUNTS
#DATATYPE    : YY
#XPERCHAN    : 7.862, 7.881   eV per channel (separate by commas if more than one detector)
#OFFSET      : 18.5, -22.4         eV of first channel  (separate by commas if more than one detector
#SIGNALTYPE  : XRF
#YP_TEMP     : 2.139
#LIVETIME    : 8.56647, 8.56197   seconds (separate by commas if more than one detector)
#REALTIME    : 10, 10.0   seconds (separate by commas if more than one detector)
#SPECTRUM    : start of spectrum data
0, 0
0, 0
0, 0
0, 0
0, 0
0, 0
0, 0
0, 0
0, 0
0, 0
0, 0
0, 0
0, 0
0, 0
0, 0
0, 0
0, 0
0, 0
0, 0
0, 0
0, 0
0, 0
0, 0
0, 0
0, 0
0, 0
0, 0
0, 0
0, 0
0, 0
1, 0
0, 0
0, 0
1, 0
0, 0
0, 0
0, 0
1, 2
0, 0
2, 2
1, 2
1, 0
0, 1
0, 1
0, 4
1, 3
1, 3
2, 5
8, 3
8, 13
30, 27
54, 30
52, 65
74, 46
84, 71
89, 62
72, 69
55, 31
19, 19
15, 10
9, 9
2, 4
5, 3
6, 4
8, 8
4, 4
10, 6
7, 5
23, 17
54, 43
105, 100
211, 187
309, 287
401, 357
458, 436
479, 424
442, 380
336, 270
243, 216
148, 121
91, 59
52, 30
17, 20
12, 12
8, 6
6, 2
1, 2
1, 5
2, 1
1, 1
2, 0
2, 2
3, 1
0, 3
2, 2
5, 3
4, 7
7, 3
5, 3
4, 4
4, 4
1, 2
1, 7
4, 3
6, 4
5, 6
2, 6
5, 8
10, 13
15, 13
24, 17
31, 24
37, 32
41, 59
60, 51
53, 57
42, 58
58, 56
38, 45
29, 33
24, 32
23, 20
20, 19
17, 26
17, 20
11, 13
18, 15
12, 9
10, 5
1, 6
5, 3
6, 3
3, 2
2, 1
3, 3
4, 2
2, 3
1, 1
1, 1
2, 4
2, 0
0, 3
1, 1
3, 0
3, 4
3, 0
3, 2
0, 1
2, 1
5, 1
7, 8
7, 11
17, 17
19, 20
47, 46
51, 49
66, 61
85, 51
73, 65
62, 45
44, 28
30, 27
20, 13
18, 8
5, 9
5, 7
10, 5
7, 8
14, 5
9, 17
20, 8
17, 15
15, 7
23, 7
17, 7
25, 11
34, 4
25, 3
33, 7
22, 4
14, 5
12, 5
5, 2
3, 5
5, 3
4, 4
3, 8
4, 5
5, 11
8, 8
7, 10
12, 7
13, 13
16, 9
13, 11
13, 12
16, 21
15, 26
14, 28
18, 42
12, 37
16, 51
12, 48
15, 48
5, 67
8, 57
6, 37
8, 34
8, 27
4, 16
10, 10
6, 7
7, 9
9, 3
15, 5
6, 2
5, 3
15, 3
4, 5
8, 7
7, 5
7, 7
7, 4
12, 6
7, 11
13, 8
9, 14
11, 17
18, 11
27, 20
23, 13
32, 15
34, 17
47, 13
44, 21
42, 14
61, 7
38, 6
48, 6
29, 4
29, 7
24, 8
15, 8
17, 13
23, 12
22, 20
24, 30
40, 37
37, 43
61, 63
70, 65
78, 49
86, 53
93, 39
84, 35
87, 34
90, 26
78, 19
80, 22
77, 26
63, 34
74, 42
81, 61
96, 96
172, 197
294, 330
489, 571
785, 883
1170, 1436
1641, 1719
2047, 2217
2262, 2313
2542, 2378
2459, 2281
2278, 1891
1787, 1487
1433, 1083
964, 683
605, 457
397, 280
202, 133
107, 90
54, 46
33, 32
25, 19
27, 14
18, 13
24, 18
28, 14
43, 18
56, 29
50, 40
63, 47
97, 60
141, 127
169, 170
221, 234
276, 266
327, 329
359, 347
406, 335
378, 300
321, 280
270, 218
208, 162
127, 75
96, 48
58, 40
28, 18
15, 10
10, 11
11, 6
15, 12
16, 7
7, 13
8, 14
7, 11
15, 10
13, 13
22, 11
14, 10
14, 12
14, 11
11, 3
2, 4
9, 8
10, 0
4, 7
3, 4
5, 2
1, 3
2, 2
2, 5
2, 4
8, 9
2, 2
6, 5
5, 2
2, 7
4, 3
6, 6
4, 2
7, 3
5, 1
8, 1
10, 8
18, 5
24, 9
23, 6
31, 3
43, 2
40, 5
34, 3
45, 4
35, 4
26, 3
25, 5
19, 3
13, 4
12, 4
8, 8
5, 2
1, 3
6, 3
12, 4
5, 3
7, 1
6, 5
7, 3
5, 5
6, 2
6, 6
5, 0
2, 1
3, 4
6, 1
2, 3
5, 3
2, 4
1, 1
3, 2
3, 5
3, 6
5, 5
1, 6
2, 1
4, 3
4, 4
1, 4
4, 1
4, 5
2, 7
4, 3
5, 4
5, 2
2, 7
4, 15
2, 5
5, 6
5, 5
5, 7
5, 8
1, 7
5, 5
4, 5
3, 9
1, 7
6, 7
2, 3
2, 4
3, 4
3, 7
2, 3
2, 6
4, 3
0, 5
4, 7
2, 1
4, 2
3, 4
5, 2
8, 4
7, 4
3, 4
4, 5
6, 4
8, 1
5, 4
3, 7
1, 6
1, 6
2, 12
2, 7
3, 6
5, 6
4, 8
1, 7
3, 3
1, 4
1, 3
3, 4
6, 4
6, 2
3, 1
6, 5
5, 2
1, 4
2, 3
4, 2
6, 0
0, 3
2, 4
4, 1
3, 4
2, 4
3, 6
5, 7
5, 4
2, 1
4, 2
2, 4
2, 0
4, 4
5, 3
6, 6
7, 5
3, 5
6, 1
2, 3
5, 4
5, 2
7, 2
4, 3
4, 7
2, 5
8, 4
5, 3
3, 2
4, 3
3, 1
3, 1
2, 2
10, 2
1, 1
4, 0
4, 2
1, 2
4, 2
2, 3
2, 1
1, 2
4, 2
1, 2
2, 0
3, 2
5, 1
4, 2
3, 2
3, 4
2, 2
4, 5
0, 2
4, 2
5, 2
3, 2
2, 2
2, 3
5, 3
2, 1
2, 0
1, 1
3, 0
1, 1
5, 2
2, 2
0, 5
1, 1
3, 0
4, 0
0, 1
2, 2
2, 0
1, 1
2, 2
6, 1
5, 1
5, 1
2, 4
5, 2
4, 1
7, 1
1, 4
1, 2
6, 1
6, 4
4, 2
4, 3
3, 5
4, 1
7, 4
5, 5
3, 6
4, 5
3, 5
6, 2
5, 8
2, 4
3, 4
3, 1
2, 2
3, 4
2, 0
1, 2
0, 2
0, 0
3, 2
2, 1
0, 2
2, 0
1, 1
1, 3
1, 3
2, 0
2, 1
2, 5
0, 0
1, 1
2, 2
2, 2
2, 1
5, 0
3, 2
3, 5
7, 3
3, 0
3, 4
2, 3
2, 2
1, 0
2, 0
3, 3
0, 2
2, 2
1, 0
1, 4
1, 1
0, 2
0, 0
0, 1
2, 3
2, 2
1, 1
2, 2
0, 0
4, 0
2, 1
1, 0
2, 1
0, 1
0, 2
0, 3
1, 0
1, 0
0, 0
0, 0
0, 0
0, 1
2, 0
0, 0
2, 0
0, 1
0, 1
3, 1
1, 0
0, 1
1, 1
1, 0
1, 1
0, 0
0, 1
1, 2
1, 0
0, 1
1, 1
2, 0
0, 0
0, 1
1, 1
2, 4
0, 1
0, 0
0, 2
0, 1
0, 0
0, 0
1, 0
1, 1
0, 1
2, 1
0, 1
1, 1
1, 0
2, 0
0, 0
1, 0
0, 0
2, 0
1, 0
0, 0
2, 1
1, 1
1, 0
2, 1
1, 2
1, 0
1, 0
3, 0
1, 1
0, 1
0, 1
1, 0
0, 1
0, 0
1, 1
0, 0
1, 2
2, 0
1, 1
0, 0
0, 0
1, 1
0, 0
0, 0
0, 0
0, 0
1, 1
1, 0
1, 0
2, 2
0, 0
0, 0
1, 1
1, 1
1, 0
0, 0
0, 0
1, 0
1, 2
0, 0
1, 1
1, 0
1, 0
1, 0
0, 1
2, 1
0, 0
0, 1
0, 0
0, 0
0, 0
0, 1
1, 0
0, 1
0, 0
1, 2
1, 0
0, 0
1, 0
0, 1
0, 0
0, 1
0, 1
1, 1
1, 0
0, 0
1, 0
0, 0
0, 0
0, 1
0, 1
0, 0
0, 0
0, 1
0, 0
0, 1
0, 1
0, 2
0, 0
0, 0
0, 0
0, 0
0, 0
1, 0
0, 0
0, 0
0, 1
0, 0
0, 0
0, 0
0, 0
1, 0
0, 1
0, 1
0, 0
2, 1
0, 0
1, 1
0, 0
0, 0
1, 0
0, 0
0, 1
0, 0
0, 1
1, 0
0, 0
0, 0
0, 0
0, 0
2, 0
0, 0
0, 2
0, 0
0, 0
0, 0
0, 0
0, 0
0, 0
0, 0
2, 0
0, 0
0, 0
1, 0
0, 0
1, 0
0, 0
0, 1
0, 0
0, 0
0, 0
1, 0
0, 0
0, 0
0, 0
1, 0
0, 0
1, 0
1, 0
0, 0
0, 0
1, 0
0, 0
0, 1
0, 0
0, 0
0, 0
0, 0
1, 0
0, 0
0, 0
0, 0
0, 1
0, 0
0, 0
0, 0
0, 1
0, 0
0, 0
0, 0
0, 0
1, 0
0, 0
0, 0
0, 0
0, 1
0, 0
0, 0
0, 0
0, 0
0, 0
0, 1
0, 0
0, 0
0, 0
0, 0
0, 0
0, 0
1, 0
0, 0
0, 0
1, 0
0, 0
0, 0
0, 0
0, 0
0, 2
1, 0
0, 0
0, 0
0, 0
0, 1
0, 0
0, 0
0, 0
0, 1
0, 1
0, 1
0, 0
0, 1
0, 0
0, 0
0, 1
1, 0
1, 0
1, 0
0, 0
0, 0
0, 0
1, 0
0, 1
0, 1
0, 0
0, 0
1, 0
1, 0
0, 0
0, 0
0, 0
0, 0
0, 1
0, 0
0, 0
0, 0
0, 0
0, 0
0, 0
0, 0
0, 0
0, 0
0, 0
0, 0
0, 0
0, 0
0, 0
0, 0
0, 0
0, 0
0, 0
0, 0
0, 1
0, 0
0, 0
0, 0
0, 0
0, 0
0, 0
0, 0
0, 0
0, 0
0, 1
0, 0
0, 0
0, 0
0, 0
0, 0
0, 0
0, 1
0, 0
0, 0
0, 0
0, 0
0, 0
0, 0
0, 0
0, 0
0, 0
0, 0
0, 0
1, 0
0, 0
0, 0
0, 0
0, 0
0, 0
0, 0
0, 0
0, 0
0, 0
0, 0
0, 0
0, 0
0, 0
0, 0
0, 0
0, 0
0, 0
0, 0
0, 0
0, 0
0, 0
0, 0
0, 0
0, 0
0, 0
0, 0
0, 0
0, 0
0, 0
0, 0
0, 0
0, 0
0, 0
0, 0
0, 0
0, 0
0, 0
0, 0
0, 0
0, 0
0, 0
0, 0
0, 0
0, 0
0, 0
0, 0
0, 0
0, 0
0, 0
0, 0
0, 0
0, 0
0, 0
0, 0
0, 0
0, 0
0, 1
0, 0
0, 0
0, 0
0, 0
0, 0
0, 0
0, 0
0, 0
0, 0
0, 0
0, 0
0, 0
0, 0
0, 0
0, 0
0, 0
0, 0
0, 0
0, 0
0, 0
0, 0
0, 0
0, 0
0, 0
0, 0
0, 0
0, 0
0, 0
0, 0
0, 0
0, 0
0, 0
0, 0
0, 0
0, 0
1, 0
0, 0
0, 0
0, 0
0, 0
0, 0
0, 0
0, 0
0, 0
0, 0
0, 0
0, 0
0, 0
0, 0
0, 0
0, 0
0, 0
0, 0
0, 0
0, 0
0, 0
0, 0
0, 0
0, 0
0, 0
0, 0
0, 0
0, 0
0, 0
0, 0
0, 0
0, 0
0, 0
0, 0
0, 0
0, 0
0, 0
0, 0
0, 0
0, 0
0, 0
0, 0
0, 0
0, 0
0, 0
0, 0
0, 0
0, 0
0, 0
0, 0
0, 0
0, 0
0, 0
0, 0
0, 0
0, 0
0, 0
0, 0
0, 0
0, 0
0, 0
0, 0
0, 0
0, 0
0, 0
0, 0
0, 0
0, 0
0, 0
0, 0
0, 0
0, 0
0, 0
0, 0
0, 0
0, 0
0, 0
0, 0
0, 0
0, 0
0, 0
0, 0
0, 0
0, 0
0, 0
0, 0
0, 0
0, 0
0, 0
0, 0
0, 0
0, 0
0, 0
0, 0
0, 0
0, 0
0, 0
0, 0
0, 0
0, 0
0, 0
0, 0
0, 0
0, 0
0, 0
0, 0
0, 0
0, 0
0, 0
0, 0
0, 0
0, 0
0, 0
0, 0
0, 0
0, 0
0, 0
0, 0
0, 0
0, 0
0, 0
0, 0
0, 0
0, 0
0, 0
0, 0
0, 0
0, 0
0, 0
0, 0
0, 0
0, 0
0, 0
0, 0
0, 0
0, 0
0, 0
0, 0
0, 0
0, 0
0, 0
0, 0
0, 0
0, 0
0, 0
0, 0
0, 0
0, 0
0, 0
0, 0
0, 0
0, 0
0, 0
0, 0
0, 0
0, 0
0, 0
0, 0
0, 0
0, 0
0, 0
0, 0
0, 0
0, 0
0, 0
0, 0
0, 0
0, 0
0, 0
0, 0
0, 0
0, 0
0, 0
0, 0
0, 0
0, 0
0, 0
0, 0
0, 0
0, 0
0, 0
0, 0
0, 0
0, 0
0, 0
0, 0
0, 0
0, 0
0, 0
0, 0
0, 0
0, 0
0, 0
0, 0
0, 0
0, 0
0, 0
0, 0
0, 0
0, 0
0, 0
0, 0
0, 0
0, 0
0, 0
0, 0
0, 0
0, 0
0, 0
0, 0
0, 0
0, 0
0, 0
0, 0
0, 0
0, 0
0, 0
0, 0
0, 0
0, 0
0, 0
0, 0
0, 0
0, 0
0, 0
0, 0
0, 0
0, 0
0, 0
0, 0
0, 0
0, 0
0, 0
0, 0
0, 0
0, 0
0, 0
0, 0
0, 0
0, 0
0, 0
0, 0
0, 0
0, 0
0, 0
0, 0
0, 0
0, 0
0, 0
0, 0
0, 0
0, 0
0, 0
0, 0
0, 0
0, 0
0, 0
0, 0
0, 0
0, 0
0, 0
0, 0
0, 0
0, 0
0, 0
0, 0
0, 0
0, 0
0, 0
0, 0
0, 0
0, 0
0, 0
0, 0
0, 0
0, 0
0, 0
0, 0
0, 0
0, 0
0, 0
0, 0
0, 0
0, 0
0, 0
0, 0
0, 0
0, 0
0, 0
0, 0
0, 0
0, 0
0, 0
0, 0
0, 0
0, 0
0, 0
0, 0
0, 0
0, 0
0, 0
0, 0
0, 0
0, 0
0, 0
0, 0
0, 0
0, 0
0, 0
0, 0
0, 0
0, 0
0, 0
0, 0
0, 0
0, 0
0, 0
0, 0
0, 0
0, 0
0, 0
0, 0
0, 0
0, 0
0, 0
0, 0
0, 0
0, 0
0, 0
0, 0
0, 0
0, 0
0, 0
0, 0
0, 0
0, 0
0, 0
0, 0
0, 0
0, 0
0, 0
0, 0
0, 0
0, 0
0, 0
0, 0
0, 0
0, 0
0, 0
0, 0
0, 0
0, 0
0, 0
0, 0
0, 0
#ENDOFDATA     end of spectrum data