File: host_upload/06-09-2024/ps_0852/dump3/ps__0852shot_2019.msa
#FORMAT      : EMSA/MAS spectral data file
#VERSION     : TC202v2.0 PIXL
#TITLE       : N/A
#DATE        :       Date in the format DD-MMM-YYYY, for example 07-JUL-2010
#TIME        :             The time of day at which the spectrum was recorded, in 24-hour format
#OWNER       : PIXL Flight Model       (PIXL will use this to indicate which instrument took the data.)
#NPOINTS     : 4096     Number of data points in the spectrum (This can be zero for configuration only files)
#NCOLUMNS    : 2     Number of data columns in the spectrum (This can be zero for configuration only files)
#XUNITS      : eV
#YUNITS      : COUNTS
#DATATYPE    : YY
#XPERCHAN    : 7.862, 7.881   eV per channel (separate by commas if more than one detector)
#OFFSET      : 18.5, -22.4         eV of first channel  (separate by commas if more than one detector
#SIGNALTYPE  : XRF
#YP_TEMP     : 2.235
#LIVETIME    : 8.56699, 8.55934   seconds (separate by commas if more than one detector)
#REALTIME    : 10, 10.0   seconds (separate by commas if more than one detector)
#SPECTRUM    : start of spectrum data
0, 0
0, 0
0, 0
0, 0
0, 0
0, 0
0, 0
0, 0
0, 0
0, 0
0, 0
0, 0
0, 0
0, 0
0, 0
0, 0
0, 0
0, 0
0, 0
0, 0
0, 0
0, 0
0, 0
0, 0
0, 0
0, 0
0, 0
0, 0
0, 0
0, 0
0, 0
0, 0
1, 0
0, 0
0, 1
0, 1
0, 1
0, 0
1, 1
0, 2
1, 0
2, 0
4, 1
0, 2
2, 2
3, 3
5, 2
1, 4
7, 4
12, 11
27, 29
51, 37
56, 71
76, 74
84, 74
72, 73
69, 59
50, 47
27, 28
24, 14
8, 7
3, 2
4, 4
3, 1
5, 2
4, 5
9, 5
10, 5
26, 18
41, 55
99, 111
166, 185
262, 293
339, 382
393, 399
395, 428
358, 390
281, 271
214, 201
114, 127
64, 70
41, 44
21, 12
13, 10
3, 9
5, 4
2, 2
3, 0
2, 2
1, 2
0, 1
3, 0
4, 3
6, 5
8, 7
13, 11
15, 15
23, 19
23, 25
24, 26
20, 29
20, 21
17, 10
15, 8
7, 6
8, 7
10, 8
10, 7
15, 12
17, 15
40, 22
36, 35
43, 35
69, 47
85, 39
73, 48
76, 45
59, 56
58, 41
58, 34
34, 34
25, 25
25, 27
22, 23
24, 15
18, 20
16, 15
12, 19
13, 10
4, 9
3, 5
6, 4
4, 7
2, 1
3, 4
5, 0
3, 5
2, 2
4, 1
2, 3
1, 4
1, 1
8, 3
6, 3
3, 6
2, 6
9, 4
10, 6
8, 10
6, 15
5, 26
12, 45
14, 50
20, 67
11, 79
11, 81
17, 65
23, 41
16, 36
12, 34
12, 22
9, 21
7, 17
4, 7
6, 4
4, 10
4, 15
2, 11
0, 8
7, 10
4, 6
4, 12
9, 7
4, 6
9, 7
11, 9
11, 6
17, 5
13, 12
18, 12
16, 5
12, 5
13, 6
11, 6
15, 5
12, 5
22, 1
11, 4
15, 7
15, 12
10, 8
13, 9
12, 15
14, 12
17, 16
24, 15
18, 15
15, 13
19, 16
17, 15
12, 14
16, 14
11, 10
7, 12
6, 6
10, 4
6, 3
7, 7
9, 5
9, 9
3, 13
9, 10
6, 5
12, 14
5, 18
1, 12
4, 13
6, 5
11, 12
7, 8
10, 5
10, 11
10, 13
5, 5
15, 6
12, 12
9, 13
12, 17
15, 26
14, 15
19, 22
17, 25
9, 23
17, 18
19, 21
16, 15
25, 21
28, 33
26, 24
25, 24
33, 27
41, 27
35, 32
22, 34
43, 44
44, 34
52, 36
45, 59
54, 53
55, 61
64, 61
70, 59
61, 57
43, 60
43, 43
35, 30
36, 26
27, 16
22, 20
12, 17
26, 27
20, 33
47, 60
68, 101
152, 207
255, 356
459, 562
701, 932
1040, 1363
1413, 1714
1901, 2042
2112, 2430
2222, 2286
2241, 2232
2050, 1834
1666, 1506
1318, 1107
884, 739
612, 496
356, 252
194, 165
101, 80
63, 47
31, 19
15, 24
25, 28
23, 33
20, 32
21, 37
22, 26
28, 51
38, 50
70, 64
97, 98
137, 130
179, 197
253, 256
294, 298
329, 336
366, 375
380, 323
343, 345
287, 241
249, 217
186, 156
146, 112
104, 62
60, 48
36, 21
24, 9
18, 17
12, 11
14, 7
10, 11
15, 9
11, 10
10, 14
9, 13
11, 10
20, 13
14, 11
13, 11
12, 5
9, 10
6, 6
2, 4
5, 4
3, 3
4, 4
4, 4
3, 7
0, 2
2, 5
5, 2
5, 4
2, 3
1, 5
0, 6
3, 3
4, 10
8, 5
6, 5
3, 5
7, 3
7, 5
4, 5
2, 9
7, 4
6, 7
10, 11
13, 2
14, 8
14, 8
14, 16
12, 11
12, 11
9, 7
12, 6
7, 9
6, 11
6, 11
9, 13
5, 20
11, 14
10, 9
6, 20
6, 9
5, 11
6, 10
3, 8
9, 2
1, 5
2, 4
2, 1
6, 7
4, 4
3, 4
5, 4
3, 1
5, 0
1, 2
4, 5
2, 5
7, 2
1, 3
6, 2
5, 1
8, 1
0, 3
5, 5
4, 5
1, 5
6, 1
4, 3
5, 4
2, 7
5, 3
5, 4
4, 2
4, 5
5, 4
6, 2
4, 2
1, 7
2, 7
3, 4
5, 2
2, 3
4, 2
5, 5
4, 3
2, 5
0, 6
1, 5
7, 3
3, 5
3, 5
6, 2
3, 3
6, 6
4, 6
1, 3
2, 3
1, 1
1, 2
1, 1
2, 5
4, 1
7, 5
4, 2
5, 7
4, 6
4, 5
4, 3
4, 4
5, 1
3, 5
8, 2
4, 0
2, 3
2, 3
3, 3
4, 2
2, 2
3, 2
1, 5
5, 6
4, 4
3, 2
3, 1
1, 4
1, 2
4, 2
2, 1
3, 3
1, 4
1, 0
4, 3
1, 3
1, 1
1, 3
4, 3
3, 1
1, 4
1, 4
1, 4
0, 4
3, 5
2, 3
1, 4
3, 4
2, 2
3, 1
2, 2
3, 1
4, 0
6, 2
5, 1
5, 2
8, 0
3, 4
2, 1
3, 2
4, 3
2, 1
0, 2
4, 3
2, 2
7, 3
6, 2
3, 2
2, 1
3, 1
1, 2
2, 4
2, 2
1, 1
0, 2
1, 0
5, 2
2, 4
6, 3
5, 2
2, 1
1, 1
0, 2
2, 2
3, 2
0, 3
2, 0
0, 4
1, 0
3, 0
5, 5
4, 2
0, 2
3, 1
5, 1
1, 5
3, 3
3, 1
0, 1
2, 3
2, 2
2, 6
1, 3
1, 2
1, 1
2, 0
1, 1
2, 1
1, 1
0, 1
3, 3
4, 3
3, 0
1, 3
2, 1
3, 3
3, 8
2, 5
1, 6
7, 6
4, 4
2, 5
3, 4
3, 5
2, 1
3, 3
3, 1
2, 0
2, 3
2, 1
1, 2
3, 0
1, 0
1, 3
1, 3
1, 1
1, 0
0, 0
3, 3
1, 4
1, 1
1, 0
4, 2
0, 3
0, 2
4, 2
3, 2
1, 2
0, 0
4, 1
3, 2
3, 0
2, 1
2, 1
3, 2
1, 1
0, 3
1, 2
1, 1
0, 0
1, 1
0, 1
1, 1
0, 0
0, 0
2, 1
0, 0
1, 1
3, 2
1, 2
1, 0
1, 2
2, 1
2, 2
1, 2
1, 2
1, 2
4, 0
0, 2
1, 2
0, 2
0, 0
0, 2
1, 1
1, 2
0, 0
2, 2
0, 0
1, 0
0, 0
2, 0
1, 1
1, 2
1, 0
2, 0
0, 0
1, 0
1, 2
3, 0
0, 0
1, 1
0, 1
2, 0
1, 1
0, 0
1, 1
2, 1
1, 1
2, 0
0, 1
1, 0
0, 1
2, 0
1, 1
0, 0
0, 1
0, 0
1, 1
1, 2
0, 1
0, 0
0, 2
1, 0
0, 3
0, 0
0, 1
0, 0
2, 1
1, 1
0, 0
0, 2
1, 1
0, 0
1, 0
1, 0
1, 0
1, 0
1, 0
0, 0
2, 1
1, 0
0, 0
1, 0
1, 0
0, 0
0, 1
1, 1
1, 0
0, 0
0, 0
1, 0
0, 0
0, 0
0, 0
1, 0
2, 2
0, 0
3, 0
0, 1
1, 0
1, 0
1, 1
0, 0
0, 0
0, 0
1, 0
0, 0
1, 1
0, 2
0, 1
0, 0
0, 1
0, 2
1, 0
1, 1
0, 0
0, 0
0, 0
0, 0
1, 0
0, 0
1, 0
0, 0
0, 1
1, 0
0, 3
2, 0
0, 0
0, 0
0, 0
1, 0
1, 0
0, 0
1, 1
0, 0
0, 1
0, 0
0, 0
1, 0
1, 0
0, 0
1, 0
1, 0
0, 1
0, 1
0, 1
0, 0
0, 0
0, 1
0, 1
0, 0
1, 1
0, 1
0, 2
0, 0
0, 0
1, 0
0, 0
0, 1
0, 1
0, 0
0, 1
0, 0
0, 0
0, 0
0, 1
0, 0
0, 0
1, 0
0, 0
0, 0
1, 0
0, 0
0, 0
0, 0
0, 0
0, 0
0, 0
0, 0
0, 0
0, 0
0, 2
0, 0
0, 1
0, 0
1, 1
1, 0
0, 0
0, 0
0, 0
0, 1
0, 0
0, 0
1, 1
1, 0
0, 1
0, 0
0, 0
0, 0
0, 0
0, 1
0, 0
1, 0
0, 2
0, 1
1, 1
0, 1
0, 2
0, 0
1, 3
1, 0
1, 0
0, 0
0, 0
0, 2
0, 0
1, 2
1, 0
1, 0
1, 0
0, 0
1, 1
0, 0
2, 0
0, 0
0, 0
0, 0
0, 0
0, 0
1, 0
0, 0
0, 0
0, 0
1, 0
0, 0
0, 0
0, 0
0, 1
0, 0
0, 0
1, 0
0, 0
0, 0
0, 0
0, 0
0, 1
0, 0
0, 0
0, 0
0, 1
0, 1
0, 0
0, 0
0, 1
0, 0
0, 0
0, 0
0, 0
0, 0
0, 0
1, 0
0, 0
0, 0
0, 0
0, 0
1, 0
0, 0
0, 0
0, 0
0, 0
0, 0
0, 1
0, 0
0, 0
0, 0
0, 1
0, 0
0, 0
0, 0
0, 0
0, 0
0, 0
1, 0
0, 0
0, 0
0, 0
0, 0
0, 0
0, 0
1, 0
0, 0
0, 0
0, 0
0, 0
0, 0
0, 0
0, 0
0, 0
0, 0
0, 0
0, 0
1, 0
0, 0
0, 0
0, 0
0, 0
0, 0
0, 1
0, 0
0, 1
0, 0
0, 0
0, 0
0, 0
0, 0
0, 0
0, 1
0, 0
0, 0
1, 0
0, 0
0, 0
0, 1
0, 0
0, 0
0, 0
1, 0
0, 0
0, 0
0, 0
0, 0
0, 0
0, 0
0, 0
0, 0
0, 0
0, 0
0, 0
0, 0
0, 0
0, 0
0, 0
0, 0
1, 0
0, 0
0, 0
0, 0
0, 0
0, 0
0, 0
0, 0
0, 0
0, 0
0, 0
0, 0
0, 0
0, 0
0, 0
0, 0
0, 0
0, 0
0, 0
0, 0
0, 0
0, 0
0, 0
0, 0
0, 0
0, 0
0, 0
0, 0
0, 0
0, 0
0, 0
1, 0
0, 0
0, 0
0, 0
0, 0
0, 0
0, 0
0, 0
0, 0
0, 0
1, 0
0, 1
0, 0
0, 0
0, 0
0, 0
0, 0
0, 0
0, 0
0, 0
0, 0
0, 0
0, 0
0, 0
0, 0
0, 0
0, 0
0, 0
0, 0
0, 0
0, 0
0, 0
0, 0
0, 0
0, 0
0, 0
0, 0
0, 0
0, 0
0, 0
0, 0
0, 0
0, 0
0, 0
0, 0
0, 0
0, 0
0, 0
0, 0
0, 0
0, 0
0, 0
0, 0
0, 0
0, 0
0, 0
0, 0
0, 0
0, 0
0, 0
0, 0
0, 0
0, 0
0, 0
0, 0
0, 0
0, 0
0, 0
0, 0
0, 0
0, 0
0, 0
0, 0
0, 0
0, 0
0, 0
0, 0
0, 0
0, 0
0, 0
0, 0
0, 0
0, 0
0, 0
0, 0
0, 0
0, 0
0, 0
0, 0
0, 0
0, 0
0, 0
0, 0
0, 0
0, 0
0, 0
0, 0
0, 0
0, 0
0, 0
0, 0
0, 0
0, 0
0, 0
0, 0
0, 0
0, 0
0, 0
0, 0
0, 0
0, 0
0, 0
0, 0
0, 0
0, 0
0, 0
0, 0
0, 0
0, 0
0, 0
0, 0
0, 0
0, 0
0, 0
0, 0
0, 0
0, 0
0, 0
0, 0
0, 0
0, 0
0, 0
0, 0
0, 0
0, 0
0, 0
0, 0
0, 0
0, 0
0, 0
0, 0
0, 0
0, 0
0, 0
0, 0
0, 0
0, 0
0, 0
0, 0
0, 0
0, 0
0, 0
0, 0
0, 0
0, 0
0, 0
0, 0
0, 0
0, 0
0, 0
0, 0
0, 0
0, 0
0, 0
0, 0
0, 0
0, 0
0, 0
0, 0
0, 0
0, 0
0, 0
0, 0
0, 0
0, 0
0, 0
0, 0
0, 0
0, 0
0, 0
0, 0
0, 0
0, 0
0, 0
0, 0
0, 0
0, 0
0, 0
0, 0
0, 0
0, 0
0, 0
0, 0
0, 0
0, 0
0, 0
0, 0
0, 0
0, 0
0, 0
0, 0
0, 0
0, 0
0, 0
0, 0
0, 0
0, 0
0, 0
0, 0
0, 0
0, 0
0, 0
0, 0
0, 0
0, 0
0, 0
0, 0
0, 0
0, 0
0, 0
0, 0
0, 0
0, 0
0, 0
0, 0
0, 0
0, 0
0, 0
0, 0
0, 0
0, 0
0, 0
0, 0
0, 0
0, 0
0, 0
0, 0
0, 0
0, 0
0, 0
0, 0
0, 0
0, 0
0, 0
0, 0
0, 0
0, 0
0, 0
0, 0
0, 0
0, 0
0, 0
0, 0
0, 0
0, 0
0, 0
0, 0
0, 0
0, 0
0, 0
0, 0
0, 0
0, 0
0, 0
0, 0
0, 0
0, 0
0, 0
0, 0
0, 0
0, 0
0, 0
0, 0
0, 0
0, 0
0, 0
0, 0
0, 0
0, 0
0, 0
0, 0
0, 0
0, 0
0, 0
0, 0
0, 0
0, 0
0, 0
0, 0
0, 0
0, 0
0, 0
0, 0
0, 0
0, 0
0, 0
0, 0
0, 0
0, 0
0, 0
0, 0
0, 0
0, 0
0, 0
0, 0
0, 0
0, 0
0, 0
0, 0
0, 0
0, 0
0, 0
0, 0
0, 0
0, 0
0, 0
0, 0
0, 0
0, 0
0, 0
0, 0
0, 0
0, 0
0, 0
0, 0
0, 0
0, 0
0, 0
0, 0
0, 0
0, 0
0, 0
0, 0
0, 0
0, 0
0, 0
0, 0
0, 0
0, 0
0, 0
0, 0
0, 0
0, 0
0, 0
0, 0
0, 0
0, 0
0, 0
0, 0
0, 0
0, 0
0, 0
0, 0
0, 0
0, 0
0, 0
0, 0
0, 0
0, 0
0, 0
0, 0
0, 0
0, 0
0, 0
0, 0
0, 0
0, 0
0, 0
0, 0
0, 0
0, 0
0, 0
0, 0
0, 0
0, 0
0, 0
0, 0
0, 0
0, 0
0, 0
0, 0
0, 0
0, 0
0, 0
0, 0
0, 0
0, 0
0, 0
0, 0
0, 0
0, 0
0, 0
0, 0
0, 0
0, 0
0, 0
0, 0
0, 0
0, 0
0, 0
0, 0
0, 0
0, 0
0, 0
0, 0
0, 0
0, 0
0, 0
0, 0
#ENDOFDATA     end of spectrum data