File: host_upload/06-09-2024/ps_0852/dump3/ps__0852shot_2139.msa
#FORMAT      : EMSA/MAS spectral data file
#VERSION     : TC202v2.0 PIXL
#TITLE       : N/A
#DATE        :       Date in the format DD-MMM-YYYY, for example 07-JUL-2010
#TIME        :             The time of day at which the spectrum was recorded, in 24-hour format
#OWNER       : PIXL Flight Model       (PIXL will use this to indicate which instrument took the data.)
#NPOINTS     : 4096     Number of data points in the spectrum (This can be zero for configuration only files)
#NCOLUMNS    : 2     Number of data columns in the spectrum (This can be zero for configuration only files)
#XUNITS      : eV
#YUNITS      : COUNTS
#DATATYPE    : YY
#XPERCHAN    : 7.862, 7.881   eV per channel (separate by commas if more than one detector)
#OFFSET      : 18.5, -22.4         eV of first channel  (separate by commas if more than one detector
#SIGNALTYPE  : XRF
#YP_TEMP     : 2.267
#LIVETIME    : 8.5701, 8.36664   seconds (separate by commas if more than one detector)
#REALTIME    : 10, 10.0   seconds (separate by commas if more than one detector)
#SPECTRUM    : start of spectrum data
0, 0
0, 0
0, 0
0, 0
0, 0
0, 0
0, 0
0, 0
0, 0
0, 0
0, 0
0, 0
0, 0
0, 0
0, 0
0, 0
0, 0
0, 0
0, 0
0, 0
0, 0
0, 0
0, 0
0, 0
0, 0
0, 0
0, 0
0, 0
0, 0
0, 0
0, 0
0, 0
0, 1
0, 0
2, 2
1, 2
3, 2
2, 2
4, 1
9, 1
10, 3
14, 3
23, 3
11, 4
8, 2
8, 2
5, 0
3, 4
5, 5
13, 14
17, 16
20, 31
48, 56
72, 55
54, 67
59, 44
54, 47
35, 31
21, 19
16, 9
8, 7
7, 3
4, 3
4, 0
9, 5
4, 8
12, 3
7, 6
21, 27
46, 37
84, 91
137, 153
257, 221
319, 292
345, 358
359, 361
325, 300
268, 233
163, 160
111, 90
75, 54
39, 32
16, 13
22, 16
16, 12
18, 9
13, 8
12, 8
7, 8
9, 8
10, 7
5, 10
7, 8
11, 11
23, 29
26, 30
49, 48
55, 66
77, 72
64, 68
49, 74
61, 57
47, 35
35, 26
20, 21
12, 18
27, 13
39, 18
55, 18
134, 23
251, 46
375, 53
560, 62
818, 82
903, 78
920, 100
934, 75
841, 70
581, 62
408, 42
249, 38
156, 29
85, 25
41, 20
25, 22
25, 23
22, 16
13, 13
10, 8
10, 14
8, 3
3, 5
3, 4
0, 3
1, 3
3, 1
3, 2
4, 0
3, 3
1, 5
3, 4
2, 4
5, 2
2, 1
4, 1
1, 2
1, 5
5, 3
8, 2
8, 5
7, 11
14, 12
24, 20
18, 34
36, 46
73, 67
58, 68
72, 67
94, 74
74, 52
62, 42
33, 27
29, 20
32, 16
9, 8
19, 5
15, 10
19, 16
9, 25
13, 21
21, 33
21, 42
17, 24
15, 29
14, 20
11, 9
5, 14
8, 6
9, 8
7, 5
3, 7
8, 5
2, 9
2, 6
4, 3
3, 3
5, 6
3, 7
4, 9
5, 9
13, 8
10, 8
13, 10
9, 15
16, 16
18, 14
13, 7
12, 14
13, 13
20, 19
25, 10
25, 6
18, 7
27, 6
29, 9
26, 3
26, 6
22, 8
12, 9
12, 3
12, 10
13, 11
7, 11
5, 7
5, 5
9, 12
5, 8
6, 3
7, 12
6, 10
7, 9
7, 10
7, 8
6, 6
8, 16
8, 19
7, 17
11, 15
16, 17
17, 10
13, 22
22, 19
14, 15
7, 11
14, 6
14, 12
9, 8
5, 3
6, 6
13, 5
5, 3
8, 9
13, 7
13, 20
9, 13
12, 36
29, 37
35, 49
50, 48
55, 54
68, 74
65, 67
54, 54
57, 54
46, 52
33, 33
22, 24
15, 15
22, 29
12, 18
23, 24
30, 23
43, 64
85, 109
159, 187
284, 348
470, 561
792, 909
1128, 1310
1568, 1715
2015, 2093
2230, 2339
2452, 2403
2362, 2189
2106, 1901
1701, 1482
1356, 1055
963, 748
597, 425
366, 251
205, 153
119, 85
66, 42
31, 35
34, 33
21, 23
24, 31
21, 30
20, 32
19, 32
21, 42
46, 35
50, 45
77, 94
107, 135
148, 177
173, 249
232, 279
286, 347
355, 346
334, 343
340, 333
278, 271
256, 211
190, 162
141, 111
97, 81
59, 43
33, 26
22, 9
11, 6
11, 13
8, 7
7, 11
5, 9
11, 13
13, 12
12, 14
14, 11
13, 7
5, 11
14, 12
5, 11
8, 6
9, 6
4, 6
5, 4
4, 3
1, 3
8, 8
3, 3
2, 3
3, 3
7, 4
1, 3
2, 0
4, 8
3, 2
0, 5
6, 2
4, 8
3, 9
2, 6
4, 12
3, 7
4, 11
5, 12
3, 7
7, 9
0, 4
6, 4
4, 8
5, 9
4, 3
5, 2
6, 5
5, 10
3, 2
3, 4
3, 4
7, 2
1, 1
1, 3
7, 2
2, 3
0, 3
1, 7
4, 6
2, 6
3, 4
6, 6
4, 4
5, 5
2, 0
2, 3
2, 5
4, 4
9, 0
3, 4
2, 3
2, 4
6, 2
7, 5
2, 1
8, 5
11, 3
6, 6
2, 1
9, 7
2, 2
2, 5
3, 2
1, 5
9, 4
7, 5
7, 3
7, 3
5, 3
8, 5
5, 2
4, 3
4, 5
6, 6
4, 2
4, 6
5, 6
4, 4
6, 1
4, 4
7, 2
3, 4
7, 4
3, 5
3, 4
3, 6
5, 2
3, 7
5, 12
4, 12
7, 6
1, 9
2, 4
3, 7
4, 6
2, 2
11, 4
4, 1
7, 3
6, 9
4, 3
2, 5
1, 6
3, 3
4, 1
0, 1
2, 3
5, 0
5, 4
2, 3
1, 0
4, 3
3, 2
5, 6
4, 0
3, 3
3, 4
1, 1
2, 2
3, 0
1, 1
2, 2
2, 3
4, 1
2, 2
0, 5
2, 5
6, 2
4, 2
2, 2
5, 2
5, 3
3, 0
1, 1
3, 7
1, 3
5, 0
5, 2
1, 2
2, 1
3, 3
0, 2
1, 0
2, 5
2, 1
2, 0
2, 2
1, 2
2, 1
2, 5
4, 2
3, 3
5, 2
2, 1
3, 1
3, 5
2, 1
4, 3
1, 2
3, 3
2, 1
4, 3
3, 1
4, 4
2, 4
4, 4
1, 0
1, 3
1, 1
0, 0
1, 5
2, 4
0, 1
4, 2
7, 2
5, 4
2, 1
2, 2
6, 2
4, 3
1, 2
2, 2
4, 5
1, 1
3, 3
1, 0
4, 2
1, 1
1, 2
1, 1
2, 2
2, 1
0, 4
2, 0
1, 1
2, 0
1, 3
4, 1
1, 1
2, 1
1, 2
4, 2
2, 0
1, 2
1, 1
2, 2
3, 1
2, 8
4, 2
5, 3
4, 1
6, 6
2, 4
2, 6
8, 6
5, 5
1, 4
3, 3
3, 2
2, 4
2, 1
1, 0
2, 2
2, 2
0, 0
3, 1
1, 3
2, 1
0, 5
3, 1
2, 0
0, 1
0, 1
2, 2
2, 2
3, 4
2, 1
0, 4
1, 4
2, 4
4, 3
2, 5
1, 1
3, 1
1, 6
1, 5
1, 2
2, 3
1, 1
0, 0
1, 2
1, 1
1, 3
2, 1
1, 2
0, 2
1, 0
0, 3
1, 1
2, 2
2, 0
0, 0
0, 0
1, 2
1, 1
1, 1
0, 0
2, 2
2, 2
2, 1
0, 0
0, 0
3, 1
0, 0
0, 2
1, 0
1, 0
3, 4
2, 3
2, 0
0, 0
1, 1
1, 1
1, 0
1, 0
0, 1
1, 2
2, 2
1, 0
1, 0
1, 1
1, 0
1, 0
3, 2
0, 0
0, 0
1, 2
1, 1
0, 1
1, 1
1, 0
1, 0
0, 1
2, 0
1, 1
2, 0
1, 2
2, 0
2, 1
0, 1
0, 0
0, 0
1, 1
0, 1
0, 0
2, 1
0, 0
1, 1
0, 1
0, 0
1, 0
0, 1
0, 1
1, 0
0, 0
0, 0
0, 0
0, 0
0, 1
0, 0
0, 3
1, 1
0, 0
1, 0
2, 0
0, 1
0, 0
1, 1
1, 0
1, 1
0, 0
0, 0
0, 0
0, 1
0, 0
0, 0
2, 1
1, 0
0, 0
0, 1
0, 0
1, 2
1, 0
1, 0
0, 0
1, 0
0, 1
1, 1
0, 0
0, 0
1, 0
0, 0
0, 0
1, 1
0, 2
0, 0
0, 1
1, 0
0, 1
2, 1
1, 0
0, 0
1, 1
1, 0
0, 0
0, 0
0, 0
0, 0
0, 0
0, 2
0, 1
0, 0
0, 0
0, 2
0, 1
1, 0
0, 1
0, 0
0, 0
0, 0
0, 0
0, 0
0, 0
0, 0
0, 0
0, 1
0, 1
0, 0
0, 0
0, 2
0, 0
0, 0
1, 1
0, 0
0, 0
0, 0
0, 0
0, 1
0, 0
0, 0
0, 1
0, 0
0, 0
0, 0
0, 0
0, 0
1, 1
0, 0
0, 0
0, 0
0, 1
0, 0
1, 0
1, 0
0, 0
1, 0
0, 1
0, 0
0, 0
0, 0
0, 0
0, 0
0, 1
0, 0
2, 0
1, 0
0, 0
0, 0
0, 0
0, 0
1, 1
0, 0
0, 0
1, 0
0, 0
2, 1
0, 0
1, 0
1, 1
0, 0
0, 1
1, 0
0, 0
0, 0
0, 0
0, 0
0, 0
0, 0
0, 1
0, 0
0, 0
0, 0
1, 0
0, 0
1, 1
0, 0
0, 0
0, 0
0, 0
0, 0
0, 0
0, 0
0, 0
0, 0
0, 0
0, 0
0, 1
0, 0
1, 1
1, 0
0, 0
0, 0
0, 0
0, 0
0, 1
0, 1
0, 0
0, 0
0, 0
1, 0
1, 0
0, 0
0, 1
0, 0
0, 0
0, 0
0, 0
0, 1
0, 0
0, 0
0, 0
0, 0
1, 0
0, 0
0, 0
0, 1
0, 0
0, 1
0, 0
0, 0
0, 0
0, 0
0, 0
0, 0
0, 0
0, 0
0, 0
0, 0
0, 0
0, 0
0, 0
0, 0
0, 1
0, 1
1, 0
0, 0
0, 0
0, 0
0, 0
0, 0
2, 0
0, 0
0, 0
0, 0
0, 0
0, 0
0, 0
0, 0
0, 0
0, 0
0, 0
0, 0
0, 0
0, 0
2, 0
0, 0
0, 0
0, 0
0, 1
0, 0
0, 0
0, 0
0, 0
0, 0
1, 0
0, 0
0, 0
0, 0
0, 0
0, 0
0, 1
1, 0
0, 0
0, 0
0, 0
0, 0
0, 0
0, 0
0, 0
0, 0
0, 0
0, 0
0, 0
0, 0
0, 0
0, 0
0, 0
0, 0
0, 0
0, 0
0, 0
0, 0
0, 0
0, 0
0, 0
0, 0
0, 0
0, 0
0, 0
0, 0
0, 0
0, 1
0, 0
1, 1
0, 0
0, 0
0, 0
0, 0
0, 0
0, 0
0, 0
0, 0
0, 0
0, 0
0, 0
0, 0
0, 0
0, 0
0, 0
0, 0
0, 0
0, 0
0, 0
1, 0
0, 0
0, 0
0, 0
0, 0
0, 0
0, 0
0, 0
0, 0
0, 0
0, 0
0, 0
0, 0
0, 0
0, 0
0, 0
0, 0
0, 0
0, 0
0, 0
0, 0
0, 0
0, 0
0, 0
0, 0
0, 0
0, 0
0, 0
0, 0
0, 0
0, 0
0, 0
0, 0
0, 0
0, 0
0, 0
0, 0
0, 0
0, 0
0, 0
0, 0
0, 0
0, 0
0, 0
0, 0
0, 0
0, 0
0, 0
0, 0
0, 0
0, 0
0, 0
0, 0
0, 0
0, 0
0, 0
0, 0
0, 0
0, 0
0, 0
0, 0
0, 0
0, 0
0, 0
0, 0
0, 0
0, 0
0, 0
0, 0
0, 0
0, 0
0, 0
0, 0
0, 0
0, 0
0, 0
0, 0
0, 0
0, 0
0, 0
0, 0
0, 0
0, 0
0, 0
0, 0
0, 0
0, 0
0, 0
0, 0
0, 0
0, 0
0, 0
0, 0
1, 0
0, 0
0, 0
0, 0
0, 0
0, 0
0, 0
0, 0
0, 0
0, 0
0, 0
0, 0
0, 0
0, 0
0, 0
0, 0
0, 0
0, 0
0, 0
0, 0
0, 0
0, 0
0, 0
0, 0
0, 0
0, 0
0, 0
0, 0
0, 0
0, 0
0, 0
0, 0
0, 0
0, 0
0, 0
0, 0
0, 0
0, 0
0, 0
0, 0
0, 0
0, 0
0, 0
0, 0
0, 0
0, 0
0, 0
0, 0
0, 0
0, 0
0, 0
0, 0
0, 0
0, 0
0, 0
0, 0
0, 0
0, 0
0, 0
0, 0
0, 0
0, 0
0, 0
0, 0
0, 0
0, 0
0, 0
0, 0
0, 0
0, 0
0, 0
0, 0
0, 0
0, 0
0, 0
0, 0
0, 0
0, 0
0, 0
0, 0
0, 0
0, 0
0, 0
0, 0
0, 0
0, 0
0, 0
0, 0
0, 0
0, 0
0, 0
0, 0
0, 0
0, 0
0, 0
0, 0
0, 0
0, 0
0, 0
0, 0
0, 0
0, 0
0, 0
0, 0
0, 0
0, 0
0, 0
0, 0
0, 0
0, 0
0, 0
0, 0
0, 0
0, 0
0, 0
0, 0
0, 0
0, 0
0, 0
0, 0
0, 0
0, 0
0, 0
0, 0
0, 0
0, 0
0, 0
0, 0
0, 0
0, 0
0, 0
0, 0
0, 0
0, 0
0, 0
0, 0
0, 0
0, 0
0, 0
0, 0
0, 0
0, 0
0, 0
0, 0
0, 0
0, 0
0, 0
0, 0
0, 0
0, 0
0, 0
0, 0
0, 0
0, 0
0, 0
0, 0
0, 0
0, 0
0, 0
0, 0
0, 0
0, 0
0, 0
0, 0
0, 0
0, 0
0, 0
0, 0
0, 0
0, 0
0, 0
0, 0
0, 0
0, 0
0, 0
0, 0
0, 0
0, 0
0, 0
0, 0
0, 0
0, 0
0, 0
0, 0
0, 0
0, 0
0, 0
0, 0
0, 0
0, 0
0, 0
0, 0
0, 0
0, 0
0, 0
0, 0
0, 0
0, 0
0, 0
0, 0
0, 0
0, 0
0, 0
0, 0
0, 0
0, 0
0, 0
0, 0
0, 0
0, 0
0, 0
0, 0
0, 0
0, 0
0, 0
0, 0
0, 0
0, 0
0, 0
0, 0
0, 0
0, 0
0, 0
0, 0
0, 0
0, 0
0, 0
0, 0
0, 0
0, 0
0, 0
0, 0
0, 0
0, 0
0, 0
0, 0
0, 0
0, 0
0, 0
0, 0
0, 0
0, 0
0, 0
0, 0
0, 0
0, 0
0, 0
0, 0
0, 0
0, 0
0, 0
0, 0
0, 0
0, 0
0, 0
0, 0
0, 0
0, 0
0, 0
0, 0
0, 0
0, 0
0, 0
0, 0
0, 0
0, 0
0, 0
0, 0
0, 0
0, 0
0, 0
0, 0
0, 0
0, 0
0, 0
0, 0
0, 0
0, 0
0, 0
0, 0
0, 0
0, 0
0, 0
0, 0
0, 0
0, 0
0, 0
0, 0
0, 0
0, 0
0, 0
0, 0
0, 0
0, 0
0, 0
0, 0
0, 0
0, 0
0, 0
0, 0
0, 0
0, 0
0, 0
0, 0
0, 0
0, 0
0, 0
0, 0
0, 0
0, 0
0, 0
0, 0
0, 0
0, 0
0, 0
0, 0
0, 0
0, 0
0, 0
0, 0
0, 0
0, 0
0, 0
0, 0
0, 0
0, 0
0, 0
0, 0
0, 0
0, 0
0, 0
#ENDOFDATA     end of spectrum data