File: host_upload/06-09-2024/ps_0852/dump3/ps__0852shot_2450.msa
#FORMAT      : EMSA/MAS spectral data file
#VERSION     : TC202v2.0 PIXL
#TITLE       : N/A
#DATE        :       Date in the format DD-MMM-YYYY, for example 07-JUL-2010
#TIME        :             The time of day at which the spectrum was recorded, in 24-hour format
#OWNER       : PIXL Flight Model       (PIXL will use this to indicate which instrument took the data.)
#NPOINTS     : 4096     Number of data points in the spectrum (This can be zero for configuration only files)
#NCOLUMNS    : 2     Number of data columns in the spectrum (This can be zero for configuration only files)
#XUNITS      : eV
#YUNITS      : COUNTS
#DATATYPE    : YY
#XPERCHAN    : 7.862, 7.881   eV per channel (separate by commas if more than one detector)
#OFFSET      : 18.5, -22.4         eV of first channel  (separate by commas if more than one detector
#SIGNALTYPE  : XRF
#YP_TEMP     : 2.428
#LIVETIME    : 8.55161, 8.56375   seconds (separate by commas if more than one detector)
#REALTIME    : 10, 10.0   seconds (separate by commas if more than one detector)
#SPECTRUM    : start of spectrum data
0, 0
0, 0
0, 0
0, 0
0, 0
0, 0
0, 0
0, 0
0, 0
0, 0
0, 0
0, 0
0, 0
0, 0
0, 0
0, 0
0, 0
0, 0
0, 0
0, 0
0, 0
0, 0
0, 0
0, 0
0, 0
0, 0
0, 0
0, 0
0, 0
0, 0
0, 0
0, 0
0, 0
0, 0
0, 0
0, 1
0, 0
1, 0
0, 1
2, 0
0, 2
1, 1
2, 0
1, 1
2, 0
0, 0
0, 2
6, 2
6, 7
18, 7
18, 19
36, 38
63, 45
65, 70
89, 75
61, 53
69, 56
41, 28
33, 14
10, 8
11, 14
5, 7
3, 4
3, 2
4, 3
6, 6
4, 5
7, 11
19, 21
50, 54
91, 92
176, 161
275, 282
384, 388
490, 415
442, 420
391, 366
302, 278
213, 186
126, 121
70, 58
32, 33
19, 13
12, 7
3, 3
1, 3
0, 3
1, 2
2, 1
3, 3
3, 5
2, 3
3, 3
3, 5
6, 6
7, 9
14, 16
20, 22
20, 21
25, 27
15, 19
22, 14
12, 14
8, 8
11, 3
12, 7
8, 10
6, 7
16, 20
23, 15
25, 25
36, 37
32, 48
34, 50
40, 48
43, 34
49, 46
45, 31
29, 41
30, 36
26, 26
23, 22
22, 20
13, 15
15, 21
4, 21
12, 11
17, 14
5, 11
10, 6
3, 8
7, 10
7, 3
6, 1
2, 5
1, 2
1, 0
5, 2
2, 3
3, 2
2, 5
2, 1
4, 1
1, 3
1, 1
2, 2
4, 1
1, 0
1, 1
1, 1
4, 3
3, 2
7, 2
2, 7
7, 11
12, 9
16, 8
11, 10
12, 18
8, 10
7, 15
15, 2
11, 3
9, 5
9, 12
9, 4
3, 4
8, 6
5, 9
8, 7
8, 8
8, 6
16, 5
16, 5
18, 4
29, 4
20, 4
11, 4
14, 6
9, 12
8, 7
4, 7
6, 4
5, 6
1, 5
4, 1
2, 5
5, 7
10, 8
6, 10
8, 4
10, 7
12, 11
8, 10
18, 15
15, 18
12, 14
11, 16
16, 17
18, 16
12, 15
14, 9
10, 8
12, 4
5, 9
3, 5
2, 2
5, 3
7, 6
9, 10
5, 5
7, 4
4, 7
2, 6
4, 1
5, 5
1, 3
8, 6
10, 3
5, 3
3, 2
9, 9
9, 7
6, 11
8, 10
6, 9
15, 8
6, 12
8, 10
17, 13
17, 14
9, 13
4, 17
16, 7
17, 6
11, 7
9, 9
2, 7
5, 9
8, 6
6, 10
5, 5
6, 7
8, 9
11, 21
17, 20
27, 34
17, 55
53, 55
52, 51
53, 67
71, 62
57, 69
55, 58
38, 33
32, 25
38, 26
23, 33
24, 29
20, 31
19, 54
34, 56
54, 64
71, 114
157, 172
284, 371
482, 580
763, 908
1134, 1298
1495, 1709
1894, 2126
2129, 2392
2353, 2391
2209, 2298
2030, 1896
1715, 1476
1256, 1111
861, 721
577, 411
360, 241
169, 117
105, 69
56, 25
26, 28
15, 22
11, 13
12, 15
9, 18
14, 19
13, 13
29, 24
25, 34
51, 60
88, 75
94, 123
158, 171
209, 191
271, 271
313, 341
339, 360
330, 372
322, 326
282, 247
255, 234
201, 154
130, 128
100, 73
58, 44
35, 23
20, 14
16, 13
6, 11
14, 2
11, 10
10, 12
8, 14
7, 12
3, 9
10, 14
16, 15
11, 17
13, 7
7, 8
4, 5
6, 4
7, 1
4, 2
3, 6
7, 3
5, 5
5, 5
4, 2
3, 1
5, 7
5, 2
3, 3
3, 2
10, 6
7, 2
4, 5
6, 5
4, 5
10, 7
8, 2
11, 6
12, 5
12, 5
13, 2
14, 7
12, 9
14, 5
10, 3
14, 5
14, 6
12, 3
7, 2
5, 7
7, 5
4, 5
4, 8
6, 7
2, 6
5, 11
3, 6
1, 1
6, 8
6, 3
6, 12
1, 5
3, 9
7, 5
4, 5
5, 2
2, 2
3, 1
2, 10
1, 3
6, 3
2, 4
8, 4
3, 3
3, 7
1, 4
3, 2
3, 4
1, 4
5, 5
2, 4
3, 4
3, 6
4, 4
4, 3
6, 1
5, 1
2, 6
5, 7
2, 4
0, 7
3, 10
1, 5
4, 1
3, 2
5, 4
4, 6
6, 4
9, 3
5, 3
14, 6
8, 0
4, 2
1, 6
3, 2
3, 4
2, 4
2, 5
3, 8
2, 10
4, 9
6, 3
7, 14
3, 9
1, 11
2, 10
2, 7
3, 7
4, 3
3, 1
3, 6
6, 1
1, 1
5, 5
4, 2
4, 5
1, 1
0, 2
1, 1
0, 4
2, 4
5, 1
2, 1
1, 2
3, 4
3, 1
2, 3
3, 2
3, 1
0, 7
0, 1
0, 1
4, 2
1, 2
1, 7
2, 2
4, 5
1, 6
0, 3
5, 0
0, 1
2, 4
4, 2
2, 3
3, 2
5, 1
5, 2
5, 3
4, 1
5, 4
5, 6
2, 1
2, 1
5, 3
6, 0
3, 5
2, 7
7, 3
5, 0
1, 7
5, 1
4, 3
3, 6
2, 2
3, 5
4, 5
3, 3
0, 4
1, 2
1, 2
2, 4
2, 3
1, 3
0, 1
0, 1
1, 2
0, 3
0, 6
2, 0
3, 3
0, 4
1, 0
3, 2
0, 1
2, 1
0, 3
3, 0
4, 1
2, 2
2, 3
1, 0
1, 3
2, 0
1, 2
6, 1
1, 1
5, 0
2, 2
5, 1
4, 1
4, 2
1, 1
0, 2
2, 3
7, 1
6, 0
4, 1
8, 2
1, 2
4, 3
5, 1
2, 1
2, 2
3, 1
3, 2
1, 4
2, 1
1, 1
5, 2
5, 1
3, 6
3, 7
1, 3
5, 2
3, 4
8, 3
5, 4
6, 5
8, 2
4, 1
2, 2
3, 5
2, 1
3, 2
0, 2
0, 1
0, 2
0, 2
0, 2
2, 1
1, 4
0, 1
2, 2
4, 0
1, 1
2, 2
2, 0
3, 0
0, 2
1, 4
2, 1
0, 2
2, 2
3, 0
3, 1
1, 2
1, 0
2, 0
4, 1
1, 2
2, 1
1, 2
1, 2
1, 1
3, 0
2, 1
1, 0
0, 1
2, 3
2, 2
1, 0
1, 2
2, 0
1, 2
1, 1
1, 0
1, 1
1, 0
1, 0
2, 4
3, 1
1, 2
0, 1
1, 0
1, 0
0, 0
2, 0
0, 1
0, 0
1, 0
1, 5
1, 0
2, 0
2, 0
2, 0
1, 3
0, 0
0, 2
2, 0
2, 0
1, 0
0, 0
1, 2
0, 0
3, 1
0, 1
0, 0
1, 0
0, 1
0, 1
1, 0
0, 0
0, 1
0, 1
0, 0
0, 0
1, 1
1, 0
0, 0
1, 0
1, 0
1, 0
2, 0
0, 2
0, 0
1, 0
1, 0
0, 0
0, 2
1, 1
0, 0
0, 1
0, 0
0, 1
1, 1
0, 0
0, 0
0, 0
1, 1
0, 0
0, 1
0, 1
1, 2
0, 1
1, 0
1, 1
0, 2
0, 0
0, 0
0, 0
1, 0
2, 1
0, 1
0, 0
0, 0
0, 0
0, 1
0, 1
0, 1
0, 0
2, 0
1, 0
0, 1
0, 0
0, 1
2, 0
0, 0
0, 0
0, 0
1, 1
0, 1
0, 1
0, 0
1, 1
1, 1
0, 1
0, 1
1, 0
0, 0
0, 1
0, 0
0, 0
0, 0
0, 1
0, 0
0, 0
0, 2
0, 0
0, 0
0, 0
0, 0
1, 0
1, 1
1, 0
0, 0
0, 1
0, 0
0, 0
0, 1
1, 0
0, 0
0, 0
0, 0
2, 0
0, 0
0, 0
0, 0
1, 0
0, 0
0, 0
0, 0
0, 0
0, 1
0, 0
0, 2
0, 0
0, 0
0, 1
0, 0
0, 0
0, 1
0, 1
0, 0
0, 1
0, 0
0, 0
1, 0
0, 0
0, 0
0, 0
1, 0
0, 0
0, 0
0, 0
1, 1
0, 0
0, 0
0, 0
1, 0
0, 0
1, 0
0, 0
0, 0
0, 1
1, 0
1, 0
1, 1
0, 0
1, 0
0, 0
0, 0
0, 0
0, 0
0, 0
0, 0
0, 0
0, 1
0, 0
1, 0
0, 1
0, 0
0, 0
0, 0
0, 1
1, 1
0, 0
0, 0
0, 0
0, 0
2, 0
0, 0
0, 0
0, 0
0, 0
0, 0
0, 0
0, 1
0, 0
0, 0
0, 0
1, 1
1, 2
0, 0
1, 0
1, 0
0, 0
0, 0
0, 0
0, 1
0, 0
0, 0
0, 1
0, 0
1, 0
0, 0
0, 0
0, 0
0, 0
1, 0
0, 0
0, 0
0, 1
0, 0
0, 0
0, 0
0, 0
0, 0
0, 0
0, 0
0, 0
1, 1
0, 0
0, 0
0, 0
0, 0
0, 0
0, 0
0, 1
0, 0
0, 0
0, 0
0, 1
0, 0
0, 0
1, 0
0, 0
2, 0
0, 1
0, 0
0, 0
0, 0
0, 0
1, 1
0, 0
0, 0
1, 0
1, 0
0, 0
1, 1
0, 0
0, 0
1, 0
0, 0
0, 1
0, 0
1, 0
0, 0
0, 1
0, 0
0, 0
0, 0
0, 0
1, 0
1, 1
1, 0
0, 0
0, 1
0, 0
0, 0
0, 0
0, 0
0, 0
0, 0
0, 0
0, 0
0, 0
0, 1
0, 0
0, 0
0, 0
0, 0
0, 0
0, 1
0, 0
1, 0
0, 0
0, 0
0, 0
0, 0
0, 0
0, 0
0, 0
0, 0
0, 0
0, 0
0, 0
0, 0
0, 0
0, 0
0, 0
0, 0
0, 0
0, 0
0, 1
0, 0
0, 0
0, 0
1, 0
0, 0
0, 0
0, 0
0, 0
0, 0
0, 0
0, 0
0, 0
0, 0
0, 0
0, 0
0, 0
0, 0
0, 0
0, 0
0, 1
0, 0
0, 0
0, 0
0, 0
0, 0
0, 0
0, 0
0, 0
0, 0
0, 0
0, 0
0, 0
0, 0
0, 0
0, 0
0, 0
0, 0
0, 0
0, 0
0, 0
0, 0
0, 0
0, 0
0, 0
0, 0
0, 0
0, 0
0, 0
0, 0
0, 0
0, 0
0, 0
0, 0
0, 0
0, 0
0, 0
0, 0
0, 0
0, 0
0, 0
0, 0
0, 0
0, 0
0, 0
0, 0
0, 0
0, 0
0, 0
0, 0
0, 0
0, 0
0, 0
0, 0
0, 0
1, 1
0, 0
0, 0
0, 0
0, 0
0, 0
0, 0
0, 0
0, 0
0, 0
0, 0
0, 0
0, 0
0, 0
0, 0
0, 0
0, 0
0, 0
0, 0
0, 0
0, 0
0, 0
0, 0
0, 0
0, 0
0, 0
0, 0
0, 0
0, 0
0, 0
0, 0
0, 0
1, 0
0, 0
0, 0
0, 0
0, 0
0, 0
0, 0
0, 0
0, 0
0, 0
0, 0
0, 0
0, 0
0, 0
0, 0
0, 0
0, 0
0, 0
0, 0
0, 0
0, 0
0, 0
0, 0
0, 0
0, 1
0, 0
0, 0
0, 0
0, 0
0, 0
0, 0
0, 0
0, 0
0, 0
0, 0
0, 0
0, 0
0, 0
0, 0
0, 0
0, 0
0, 0
0, 0
0, 0
0, 0
1, 0
0, 0
0, 0
0, 0
0, 0
0, 0
0, 0
0, 0
0, 0
0, 0
0, 0
0, 0
0, 0
0, 0
0, 0
0, 0
0, 0
0, 0
0, 0
0, 0
0, 0
0, 0
0, 0
0, 0
0, 0
0, 0
0, 0
0, 0
0, 0
0, 0
0, 0
0, 0
0, 0
0, 0
0, 0
0, 0
0, 0
0, 0
0, 0
0, 0
0, 0
0, 0
0, 0
0, 0
0, 0
0, 0
0, 0
0, 0
0, 0
0, 0
0, 0
0, 0
0, 0
0, 0
0, 0
0, 0
0, 0
0, 0
0, 0
0, 0
0, 0
0, 0
0, 0
0, 0
0, 0
0, 0
0, 0
0, 0
0, 0
0, 0
0, 0
0, 0
0, 0
0, 0
0, 0
0, 0
0, 0
0, 0
0, 0
0, 0
0, 0
0, 0
0, 0
0, 0
0, 0
0, 0
0, 0
0, 0
0, 0
0, 0
0, 0
0, 0
0, 0
0, 0
0, 0
0, 0
0, 0
0, 0
0, 0
0, 0
0, 0
0, 0
0, 0
0, 0
0, 0
0, 0
0, 0
0, 0
0, 0
0, 0
0, 0
0, 0
0, 0
0, 0
0, 0
0, 0
0, 0
0, 0
0, 0
0, 0
0, 0
0, 0
0, 0
0, 0
0, 0
0, 0
0, 0
0, 0
0, 0
0, 0
0, 0
0, 0
0, 0
0, 0
0, 0
0, 0
0, 0
0, 0
0, 0
0, 0
0, 0
0, 0
0, 0
0, 0
0, 0
0, 0
0, 0
0, 0
0, 0
0, 0
0, 0
0, 0
0, 0
0, 0
0, 0
0, 0
0, 0
0, 0
0, 0
0, 0
0, 0
0, 0
0, 0
0, 0
0, 0
0, 0
0, 0
0, 0
0, 0
0, 0
0, 0
0, 0
0, 0
0, 0
0, 0
0, 0
0, 0
0, 0
0, 0
0, 0
0, 0
0, 0
0, 0
0, 0
0, 0
0, 0
0, 0
0, 0
0, 0
0, 0
0, 0
0, 0
0, 0
0, 0
0, 0
0, 0
0, 0
0, 0
0, 0
0, 0
0, 0
0, 0
0, 0
0, 0
0, 0
0, 0
0, 0
0, 0
0, 0
0, 0
0, 0
0, 0
0, 0
0, 0
0, 0
0, 0
0, 0
0, 0
0, 0
0, 0
0, 0
0, 0
0, 0
0, 0
0, 0
0, 0
0, 0
0, 0
0, 0
0, 0
0, 0
0, 0
0, 0
0, 0
0, 0
0, 0
0, 0
0, 0
0, 0
0, 0
0, 0
0, 0
0, 0
0, 0
0, 0
0, 0
0, 0
0, 0
0, 0
0, 0
0, 0
0, 0
0, 0
0, 0
0, 0
0, 0
0, 0
0, 0
0, 0
0, 0
0, 0
0, 0
0, 0
0, 0
0, 0
0, 0
0, 0
0, 0
0, 0
0, 0
0, 0
0, 0
0, 0
0, 0
0, 0
0, 0
0, 0
0, 0
0, 0
0, 0
0, 0
0, 0
0, 0
0, 0
0, 0
0, 0
0, 0
0, 0
0, 0
0, 0
0, 0
0, 0
0, 0
0, 0
0, 0
0, 0
0, 0
0, 0
0, 0
0, 0
0, 0
0, 0
0, 0
0, 0
#ENDOFDATA     end of spectrum data