File: host_upload/06-09-2024/ps_0852/dump3/ps__0852shot_2338.msa
#FORMAT      : EMSA/MAS spectral data file
#VERSION     : TC202v2.0 PIXL
#TITLE       : N/A
#DATE        :       Date in the format DD-MMM-YYYY, for example 07-JUL-2010
#TIME        :             The time of day at which the spectrum was recorded, in 24-hour format
#OWNER       : PIXL Flight Model       (PIXL will use this to indicate which instrument took the data.)
#NPOINTS     : 4096     Number of data points in the spectrum (This can be zero for configuration only files)
#NCOLUMNS    : 2     Number of data columns in the spectrum (This can be zero for configuration only files)
#XUNITS      : eV
#YUNITS      : COUNTS
#DATATYPE    : YY
#XPERCHAN    : 7.862, 7.881   eV per channel (separate by commas if more than one detector)
#OFFSET      : 18.5, -22.4         eV of first channel  (separate by commas if more than one detector
#SIGNALTYPE  : XRF
#YP_TEMP     : 2.332
#LIVETIME    : 8.56763, 8.54565   seconds (separate by commas if more than one detector)
#REALTIME    : 10, 10.0   seconds (separate by commas if more than one detector)
#SPECTRUM    : start of spectrum data
0, 0
0, 0
0, 0
0, 0
0, 0
0, 0
0, 0
0, 0
0, 0
0, 0
0, 0
0, 0
0, 0
0, 0
0, 0
0, 0
0, 0
0, 0
0, 0
0, 0
0, 0
0, 0
0, 0
0, 0
0, 0
0, 0
0, 0
0, 0
0, 0
0, 0
1, 0
0, 0
0, 0
1, 1
1, 0
1, 2
0, 2
1, 0
1, 3
0, 1
5, 2
0, 4
3, 2
3, 0
2, 0
1, 7
0, 0
4, 2
4, 5
5, 10
18, 16
23, 41
44, 44
58, 55
53, 64
56, 66
53, 47
25, 31
21, 11
12, 11
6, 9
8, 7
7, 13
9, 11
10, 10
8, 8
9, 14
13, 16
27, 18
38, 33
95, 82
158, 139
222, 211
300, 278
342, 364
360, 340
347, 274
256, 236
183, 155
102, 114
67, 55
38, 43
15, 19
11, 10
9, 5
7, 6
2, 4
4, 8
2, 4
3, 4
7, 8
10, 11
31, 32
41, 52
91, 88
147, 161
185, 228
273, 371
313, 329
338, 348
323, 284
255, 243
165, 179
134, 120
68, 62
51, 59
31, 43
36, 46
32, 35
48, 48
68, 55
76, 93
72, 100
85, 88
78, 120
84, 77
71, 79
51, 70
37, 40
35, 48
48, 34
31, 31
27, 29
28, 28
32, 19
20, 17
18, 21
17, 20
10, 17
14, 8
7, 7
5, 7
3, 8
5, 5
3, 3
7, 3
3, 2
6, 4
9, 5
4, 9
13, 14
9, 17
5, 10
13, 9
7, 12
4, 8
1, 1
2, 4
7, 4
5, 2
5, 5
7, 10
5, 11
7, 13
8, 14
14, 16
19, 13
11, 18
18, 21
11, 13
11, 20
11, 3
4, 7
6, 6
4, 6
9, 3
5, 3
6, 9
7, 5
2, 6
3, 4
4, 5
8, 7
5, 6
5, 9
7, 2
3, 8
3, 7
3, 6
5, 4
5, 8
5, 8
4, 6
3, 6
1, 5
5, 7
2, 16
2, 16
3, 18
4, 9
10, 36
13, 38
8, 29
11, 23
11, 32
15, 19
13, 30
13, 24
21, 20
15, 21
15, 15
14, 21
5, 11
9, 7
6, 4
6, 6
9, 7
9, 11
11, 9
3, 12
9, 12
7, 12
5, 13
8, 3
7, 13
3, 8
9, 6
5, 6
7, 7
5, 4
3, 4
5, 9
8, 9
5, 13
6, 6
7, 7
9, 4
7, 12
9, 13
11, 14
14, 12
15, 9
14, 8
13, 21
11, 12
10, 11
12, 6
6, 13
8, 6
8, 7
7, 5
9, 7
7, 10
8, 14
10, 13
16, 26
23, 32
33, 34
43, 49
47, 65
59, 56
63, 65
49, 60
62, 45
47, 46
33, 34
23, 19
22, 22
14, 17
18, 14
26, 25
29, 36
50, 51
87, 97
137, 209
264, 335
474, 564
710, 988
1167, 1351
1560, 1735
1997, 2147
2332, 2303
2411, 2461
2334, 2170
2085, 1938
1772, 1451
1335, 1064
884, 657
590, 435
369, 258
205, 124
104, 76
52, 38
34, 21
26, 15
18, 12
11, 16
22, 17
13, 23
20, 15
28, 31
33, 42
42, 44
72, 89
88, 115
115, 178
206, 227
222, 275
331, 315
341, 378
393, 350
351, 338
309, 265
245, 200
190, 161
139, 104
89, 69
61, 46
43, 22
21, 10
12, 7
21, 8
7, 6
8, 9
17, 10
18, 15
22, 12
17, 16
13, 14
20, 17
19, 16
15, 11
19, 11
7, 10
24, 6
23, 3
22, 1
24, 0
17, 6
19, 6
11, 3
15, 2
12, 3
11, 3
7, 4
8, 2
5, 6
7, 9
7, 4
5, 8
5, 3
4, 12
3, 5
6, 9
3, 13
12, 6
4, 5
5, 5
4, 13
9, 13
6, 9
8, 15
6, 10
3, 15
6, 14
8, 19
1, 15
3, 8
5, 8
2, 10
8, 2
4, 5
3, 9
7, 3
6, 2
12, 4
4, 8
6, 6
6, 2
6, 6
8, 4
9, 3
9, 2
6, 3
1, 6
4, 2
3, 3
5, 2
8, 5
3, 5
7, 7
4, 6
3, 7
4, 5
1, 6
2, 7
1, 7
3, 11
5, 8
6, 8
4, 15
4, 6
4, 7
4, 5
0, 12
4, 8
4, 8
3, 5
5, 6
8, 4
2, 12
5, 4
3, 7
4, 4
2, 4
6, 1
4, 4
4, 5
3, 1
3, 4
7, 5
4, 0
1, 3
3, 2
2, 4
8, 5
4, 4
4, 4
4, 3
4, 7
6, 1
7, 1
6, 4
5, 5
4, 6
5, 0
4, 2
5, 6
3, 5
9, 6
6, 4
4, 3
4, 2
2, 5
3, 5
5, 4
5, 4
3, 2
4, 3
2, 0
3, 3
6, 2
1, 5
3, 4
3, 3
4, 2
2, 1
7, 4
1, 2
5, 2
0, 2
2, 0
4, 4
4, 3
2, 3
2, 5
2, 2
7, 1
4, 1
1, 4
0, 3
3, 4
2, 2
6, 2
0, 4
2, 2
3, 2
2, 6
3, 0
3, 3
2, 2
1, 4
3, 2
1, 2
1, 0
2, 4
4, 1
0, 3
6, 2
2, 5
1, 1
4, 2
4, 3
1, 1
3, 2
2, 1
2, 4
2, 1
3, 3
2, 1
1, 1
2, 2
0, 1
3, 3
3, 1
2, 5
0, 6
2, 6
3, 1
2, 7
1, 5
6, 2
1, 2
2, 4
1, 2
3, 0
0, 2
3, 1
0, 0
1, 4
4, 1
1, 1
0, 0
4, 1
4, 2
4, 0
1, 2
1, 2
0, 2
1, 1
0, 2
2, 0
3, 3
3, 0
3, 6
3, 6
2, 4
3, 1
3, 2
2, 0
2, 5
2, 2
3, 2
3, 1
0, 1
2, 3
4, 4
1, 2
3, 3
5, 3
6, 5
4, 8
3, 4
2, 1
3, 4
7, 4
3, 1
3, 5
2, 2
2, 1
1, 1
0, 1
4, 0
1, 1
2, 2
1, 1
2, 5
1, 2
2, 2
4, 1
1, 1
0, 3
3, 2
2, 0
2, 2
1, 4
2, 1
2, 1
1, 1
1, 3
1, 2
1, 0
2, 3
1, 1
1, 1
2, 2
1, 1
0, 2
2, 1
1, 2
0, 0
0, 5
1, 4
2, 1
1, 3
2, 1
1, 0
1, 2
1, 0
1, 2
0, 0
0, 1
0, 1
1, 1
1, 0
0, 2
0, 1
0, 3
1, 1
1, 3
1, 2
1, 0
0, 1
1, 2
1, 1
1, 2
0, 1
5, 0
0, 1
0, 1
1, 0
0, 3
1, 0
0, 2
1, 0
0, 1
0, 1
0, 0
1, 1
1, 3
0, 0
0, 0
0, 0
1, 0
2, 0
0, 2
0, 0
0, 1
1, 1
0, 1
1, 1
2, 1
0, 2
0, 1
1, 0
0, 1
0, 0
0, 0
0, 1
0, 1
1, 1
1, 3
0, 0
1, 2
0, 1
2, 1
1, 1
0, 0
0, 0
0, 1
1, 1
2, 0
1, 0
2, 0
0, 1
2, 0
0, 0
0, 0
0, 2
1, 0
1, 0
1, 0
1, 0
0, 0
0, 0
3, 2
0, 0
0, 3
3, 0
0, 2
1, 1
1, 2
0, 1
0, 0
0, 0
0, 0
0, 0
1, 0
1, 0
1, 1
1, 2
0, 0
2, 0
0, 0
2, 1
1, 0
1, 0
0, 0
0, 0
0, 0
0, 0
0, 0
0, 1
0, 0
0, 2
0, 1
0, 1
0, 0
2, 1
1, 0
0, 0
1, 0
1, 0
0, 0
1, 0
0, 0
1, 1
0, 0
0, 0
0, 0
0, 0
0, 0
0, 1
0, 0
0, 0
0, 0
0, 0
0, 1
1, 1
0, 0
0, 0
0, 0
0, 1
0, 0
0, 1
0, 0
1, 0
0, 1
0, 0
0, 0
1, 0
0, 0
0, 1
0, 0
0, 0
0, 1
0, 0
0, 0
1, 0
0, 1
0, 0
0, 1
0, 0
0, 1
0, 1
0, 0
0, 0
0, 0
3, 0
1, 0
0, 0
0, 1
2, 0
1, 0
0, 1
0, 1
0, 0
1, 0
0, 0
1, 2
0, 0
0, 0
1, 1
1, 0
1, 1
1, 0
0, 0
0, 0
0, 0
0, 0
0, 0
0, 0
1, 0
0, 0
0, 1
0, 1
0, 0
0, 0
0, 0
1, 0
1, 0
1, 0
0, 0
0, 0
0, 0
0, 0
0, 0
0, 1
0, 0
0, 0
0, 1
0, 0
0, 0
0, 0
0, 1
0, 0
1, 0
0, 0
1, 1
1, 0
1, 0
3, 0
0, 0
0, 0
0, 2
0, 0
0, 0
0, 0
0, 0
0, 1
0, 1
2, 0
0, 0
1, 0
1, 1
1, 0
1, 0
0, 0
0, 1
0, 0
0, 0
0, 0
0, 0
0, 0
0, 0
0, 0
0, 0
1, 0
0, 0
0, 0
0, 0
0, 0
0, 0
1, 0
0, 0
0, 0
0, 0
1, 0
0, 0
0, 0
0, 0
0, 1
0, 0
0, 0
0, 0
0, 0
0, 0
0, 0
0, 1
0, 1
0, 0
0, 0
0, 0
0, 0
1, 1
0, 0
0, 0
0, 0
0, 0
0, 0
0, 0
0, 0
1, 0
0, 0
0, 0
0, 0
1, 1
0, 0
1, 0
0, 0
0, 0
0, 0
0, 0
0, 0
0, 0
0, 0
1, 0
0, 0
0, 0
0, 0
0, 0
0, 0
0, 0
0, 0
0, 0
0, 0
0, 0
0, 0
1, 0
0, 0
0, 0
0, 0
0, 0
0, 1
0, 0
0, 0
0, 1
0, 0
0, 0
0, 0
0, 0
0, 0
0, 1
0, 0
0, 0
0, 0
0, 0
0, 0
0, 0
0, 1
0, 0
0, 0
2, 0
0, 0
0, 0
0, 0
0, 0
0, 0
2, 0
0, 0
0, 0
0, 0
0, 0
0, 0
0, 1
0, 0
0, 0
0, 0
0, 0
0, 0
0, 0
0, 0
0, 0
0, 0
0, 0
0, 0
0, 0
0, 0
1, 0
0, 0
0, 0
0, 0
0, 0
0, 0
0, 0
0, 0
0, 0
0, 0
0, 0
0, 0
0, 0
0, 0
0, 0
0, 0
0, 1
0, 0
0, 0
0, 0
0, 0
0, 0
1, 0
0, 0
0, 0
0, 0
0, 0
0, 0
0, 0
0, 0
0, 0
0, 0
0, 0
0, 0
0, 0
0, 0
0, 0
0, 0
0, 0
0, 0
0, 0
0, 0
0, 0
0, 0
0, 0
0, 0
0, 0
0, 0
0, 0
0, 0
0, 0
0, 0
0, 0
0, 0
0, 0
0, 0
0, 0
0, 0
0, 0
0, 0
0, 0
0, 0
0, 0
0, 0
0, 0
0, 0
0, 0
0, 0
0, 0
0, 0
0, 0
0, 0
0, 0
0, 0
0, 0
0, 0
0, 0
0, 0
0, 0
0, 0
0, 0
0, 0
0, 0
0, 0
0, 0
0, 0
0, 0
0, 0
0, 0
0, 0
0, 0
0, 0
0, 0
0, 0
0, 0
0, 0
0, 0
0, 0
0, 0
0, 0
0, 0
0, 0
0, 0
0, 0
0, 0
0, 0
0, 0
0, 0
0, 0
0, 0
0, 0
0, 0
0, 0
0, 0
0, 0
0, 0
0, 0
1, 0
0, 0
0, 0
0, 0
0, 0
0, 0
0, 0
0, 0
0, 0
0, 0
0, 0
0, 1
0, 0
0, 0
0, 0
0, 0
0, 0
0, 0
0, 0
0, 0
0, 0
0, 0
0, 0
0, 0
0, 0
0, 0
0, 0
0, 0
0, 0
0, 0
0, 0
0, 0
0, 0
0, 0
0, 0
0, 0
0, 0
0, 0
0, 0
0, 0
0, 0
0, 0
0, 0
0, 0
0, 0
0, 0
0, 0
0, 0
0, 0
0, 0
0, 0
0, 0
0, 0
0, 0
0, 0
0, 0
0, 0
0, 0
0, 0
0, 0
0, 0
0, 0
0, 0
0, 0
0, 0
0, 0
0, 0
0, 0
0, 0
0, 0
0, 0
0, 0
0, 0
0, 0
0, 0
0, 0
0, 0
0, 0
0, 0
0, 0
0, 0
0, 0
0, 0
0, 0
0, 0
0, 0
0, 0
0, 0
0, 0
0, 0
0, 0
0, 0
0, 0
0, 0
0, 0
0, 0
0, 0
0, 0
0, 0
0, 0
0, 0
0, 0
0, 0
0, 0
0, 0
0, 0
0, 0
0, 0
0, 0
0, 0
0, 0
0, 0
0, 0
0, 0
0, 0
0, 0
0, 0
0, 0
0, 0
0, 0
0, 0
0, 0
0, 0
0, 0
0, 0
0, 0
0, 0
0, 0
0, 0
0, 0
0, 0
0, 0
0, 0
0, 0
0, 0
0, 0
0, 0
0, 0
0, 0
0, 0
0, 0
0, 0
0, 0
0, 0
0, 0
0, 0
0, 0
0, 0
0, 0
0, 0
0, 0
0, 0
0, 0
0, 0
0, 0
0, 0
0, 0
0, 0
0, 0
0, 0
0, 0
0, 0
0, 0
0, 0
0, 0
0, 0
0, 0
0, 0
0, 0
0, 0
0, 0
0, 0
0, 0
0, 0
0, 0
0, 0
0, 0
0, 0
0, 0
0, 0
0, 0
0, 0
0, 0
0, 0
0, 0
0, 0
0, 0
0, 0
0, 0
0, 0
0, 0
0, 0
0, 0
0, 0
0, 0
0, 0
0, 0
0, 0
0, 0
0, 0
0, 0
0, 0
0, 0
0, 0
0, 0
0, 0
0, 0
0, 0
0, 0
0, 0
0, 0
0, 0
0, 0
0, 0
0, 0
0, 0
0, 0
0, 0
0, 0
0, 0
0, 0
0, 0
0, 0
0, 0
0, 0
0, 0
0, 0
0, 0
0, 0
0, 0
0, 0
0, 0
0, 0
0, 0
0, 0
0, 0
0, 0
0, 0
0, 0
0, 0
0, 0
0, 0
0, 0
0, 0
0, 0
0, 0
0, 0
0, 0
0, 0
0, 0
0, 0
0, 0
0, 0
0, 0
0, 0
0, 0
0, 0
0, 0
0, 0
0, 0
0, 0
0, 0
0, 0
0, 0
0, 0
0, 0
0, 0
0, 0
0, 0
0, 0
0, 0
0, 0
0, 0
0, 0
0, 0
0, 0
0, 0
0, 0
0, 0
0, 0
0, 0
0, 0
0, 0
0, 0
0, 0
0, 0
0, 0
0, 0
0, 0
0, 0
0, 0
0, 0
0, 0
0, 0
0, 0
0, 0
0, 0
0, 0
0, 0
0, 0
0, 0
0, 0
0, 0
0, 0
0, 0
0, 0
0, 0
0, 0
0, 0
0, 0
0, 0
#ENDOFDATA     end of spectrum data