File: host_upload/06-09-2024/ps_0852/dump3/ps__0852shot_2529.msa
#FORMAT      : EMSA/MAS spectral data file
#VERSION     : TC202v2.0 PIXL
#TITLE       : N/A
#DATE        :       Date in the format DD-MMM-YYYY, for example 07-JUL-2010
#TIME        :             The time of day at which the spectrum was recorded, in 24-hour format
#OWNER       : PIXL Flight Model       (PIXL will use this to indicate which instrument took the data.)
#NPOINTS     : 4096     Number of data points in the spectrum (This can be zero for configuration only files)
#NCOLUMNS    : 2     Number of data columns in the spectrum (This can be zero for configuration only files)
#XUNITS      : eV
#YUNITS      : COUNTS
#DATATYPE    : YY
#XPERCHAN    : 7.862, 7.881   eV per channel (separate by commas if more than one detector)
#OFFSET      : 18.5, -22.4         eV of first channel  (separate by commas if more than one detector
#SIGNALTYPE  : XRF
#YP_TEMP     : 2.139
#LIVETIME    : 8.54583, 8.56071   seconds (separate by commas if more than one detector)
#REALTIME    : 10, 10.0   seconds (separate by commas if more than one detector)
#SPECTRUM    : start of spectrum data
0, 0
0, 0
0, 0
0, 0
0, 0
0, 0
0, 0
0, 0
0, 0
0, 0
0, 0
0, 0
0, 0
0, 0
0, 0
0, 0
0, 0
0, 0
0, 0
0, 0
0, 0
0, 0
0, 0
0, 0
0, 0
0, 0
0, 0
0, 0
0, 0
0, 0
0, 0
0, 0
0, 0
0, 0
0, 0
0, 1
0, 0
1, 1
1, 0
2, 0
2, 1
1, 0
2, 3
1, 1
1, 1
1, 0
3, 2
1, 1
8, 3
17, 8
14, 22
40, 45
63, 51
64, 82
84, 71
70, 65
57, 40
36, 46
21, 17
14, 10
10, 6
9, 6
6, 3
6, 5
9, 5
8, 6
7, 10
15, 12
16, 31
50, 43
70, 93
169, 173
256, 233
319, 347
445, 403
414, 423
354, 345
293, 293
210, 191
109, 121
69, 69
29, 23
19, 20
7, 5
4, 4
6, 4
2, 2
1, 2
3, 1
0, 0
1, 1
1, 1
3, 1
5, 6
4, 10
12, 10
19, 18
24, 22
31, 26
23, 27
29, 27
23, 10
19, 14
14, 11
6, 12
8, 3
5, 12
14, 7
21, 14
28, 10
52, 35
38, 46
59, 55
68, 45
83, 62
83, 42
62, 59
51, 42
44, 24
39, 31
35, 37
30, 22
28, 19
23, 16
23, 14
12, 19
11, 11
15, 8
13, 13
6, 12
9, 3
5, 4
4, 8
1, 6
0, 5
3, 1
1, 3
5, 1
2, 4
4, 2
4, 7
2, 4
5, 3
3, 4
6, 6
1, 1
2, 3
4, 2
0, 4
3, 3
1, 4
4, 8
8, 8
14, 14
21, 21
23, 18
30, 26
36, 32
28, 28
43, 31
22, 17
18, 10
12, 14
8, 6
5, 7
6, 9
9, 4
7, 7
11, 4
9, 9
17, 4
13, 10
8, 6
9, 5
6, 5
8, 3
4, 8
4, 7
4, 6
7, 5
3, 2
5, 7
1, 1
4, 3
0, 7
1, 4
8, 6
5, 3
4, 13
6, 7
9, 14
13, 7
17, 14
13, 11
20, 11
21, 15
14, 18
8, 25
21, 22
18, 22
20, 14
13, 19
15, 15
10, 16
5, 16
6, 12
10, 10
4, 8
11, 6
8, 12
10, 11
10, 13
6, 5
4, 10
9, 8
11, 6
4, 4
6, 7
7, 7
3, 6
8, 7
12, 4
9, 8
11, 9
9, 5
12, 8
10, 9
12, 16
17, 17
8, 15
14, 21
12, 18
19, 13
15, 11
11, 7
13, 12
16, 7
20, 10
19, 7
16, 8
20, 10
36, 10
29, 11
31, 10
40, 14
36, 27
48, 28
56, 36
43, 63
52, 55
73, 57
57, 62
54, 50
62, 50
42, 35
35, 34
28, 32
20, 23
13, 32
17, 34
19, 26
29, 46
54, 68
72, 115
116, 223
276, 369
429, 624
682, 1002
990, 1298
1473, 1730
1835, 2185
2106, 2352
2250, 2424
2252, 2196
1918, 2002
1488, 1426
1236, 1055
802, 728
540, 454
300, 254
166, 124
92, 70
51, 58
24, 34
13, 28
15, 25
15, 17
12, 19
14, 24
23, 29
13, 37
33, 47
51, 59
75, 69
103, 131
125, 179
174, 218
253, 257
314, 333
307, 362
345, 363
329, 321
263, 238
193, 196
187, 137
118, 107
72, 75
53, 38
25, 20
26, 8
10, 19
9, 15
7, 14
11, 29
8, 31
15, 32
10, 33
14, 54
15, 28
12, 27
7, 24
6, 22
10, 31
10, 16
6, 12
6, 8
6, 14
3, 7
3, 5
2, 6
2, 4
3, 3
3, 7
6, 5
5, 4
5, 3
7, 2
7, 7
5, 7
12, 2
4, 5
5, 6
5, 5
15, 6
15, 4
24, 2
19, 3
10, 9
17, 9
8, 3
13, 7
9, 9
11, 5
7, 9
8, 3
7, 1
4, 3
8, 9
5, 1
4, 4
5, 5
3, 4
1, 7
3, 6
8, 12
4, 9
3, 10
8, 11
7, 10
5, 4
7, 8
2, 8
7, 4
5, 7
2, 1
6, 9
2, 8
3, 3
6, 4
0, 2
3, 5
4, 4
3, 4
3, 2
5, 5
3, 5
1, 3
8, 4
5, 3
2, 2
8, 4
3, 2
6, 4
3, 4
6, 3
7, 5
2, 6
2, 4
1, 7
0, 8
3, 3
4, 5
2, 4
2, 1
3, 11
1, 3
5, 2
3, 6
2, 3
3, 2
3, 3
4, 10
7, 6
2, 4
8, 5
4, 10
6, 4
1, 8
1, 3
1, 3
2, 5
2, 5
5, 3
4, 3
5, 7
5, 4
10, 6
8, 5
6, 7
9, 5
5, 4
8, 5
6, 3
5, 2
7, 1
2, 1
6, 4
2, 3
0, 4
5, 3
3, 1
5, 3
1, 1
1, 2
2, 3
5, 0
3, 1
1, 3
4, 3
2, 5
1, 1
1, 4
2, 0
5, 2
1, 5
2, 2
5, 1
4, 1
2, 3
2, 3
5, 2
3, 3
2, 4
3, 1
3, 1
1, 1
1, 0
1, 2
3, 6
4, 6
2, 6
1, 6
3, 2
2, 2
1, 2
2, 1
2, 3
2, 3
5, 2
2, 1
1, 2
4, 0
3, 1
4, 1
3, 1
4, 1
1, 2
6, 3
1, 2
1, 0
2, 2
4, 1
5, 3
0, 2
4, 2
2, 4
4, 3
1, 1
1, 3
5, 3
0, 1
5, 2
0, 1
2, 1
2, 0
5, 3
0, 2
3, 1
2, 0
1, 1
2, 4
3, 2
1, 2
3, 4
2, 1
8, 2
1, 2
4, 3
2, 2
2, 2
2, 3
3, 3
5, 0
2, 1
1, 2
3, 3
2, 1
5, 1
2, 2
0, 1
4, 1
2, 1
0, 1
0, 3
4, 5
1, 4
0, 5
4, 2
3, 2
7, 2
2, 6
3, 2
7, 1
1, 4
4, 6
4, 1
3, 2
1, 1
3, 3
2, 3
1, 5
1, 4
0, 0
1, 2
1, 1
1, 4
0, 5
0, 0
0, 2
0, 4
2, 2
2, 3
0, 0
2, 1
1, 2
0, 4
2, 4
1, 2
0, 3
4, 5
4, 5
1, 2
0, 0
1, 1
0, 0
3, 2
1, 1
2, 0
4, 1
2, 1
1, 1
2, 0
3, 2
1, 1
1, 0
1, 1
0, 1
0, 1
1, 2
0, 3
2, 1
2, 1
0, 1
2, 3
1, 3
2, 2
0, 1
2, 0
2, 1
1, 2
1, 1
2, 2
0, 2
1, 0
1, 1
0, 0
0, 1
1, 2
0, 1
0, 0
0, 0
1, 0
0, 2
3, 1
0, 0
1, 1
2, 1
0, 1
1, 5
1, 1
1, 3
0, 1
1, 0
0, 0
0, 0
0, 0
0, 1
2, 0
0, 2
1, 2
0, 0
0, 0
2, 1
0, 0
0, 0
2, 1
1, 0
0, 0
0, 1
0, 1
2, 0
1, 0
1, 0
1, 1
1, 0
0, 0
0, 0
0, 0
3, 2
2, 1
2, 2
1, 1
2, 0
0, 0
0, 1
0, 1
0, 0
1, 1
0, 0
0, 0
0, 0
0, 1
0, 0
0, 1
0, 1
0, 0
0, 1
0, 0
0, 0
0, 0
0, 2
0, 0
0, 1
0, 1
1, 1
0, 0
1, 1
1, 0
2, 2
0, 2
0, 0
2, 0
1, 0
0, 0
0, 0
1, 0
0, 0
3, 0
1, 1
1, 0
0, 0
0, 1
2, 1
0, 0
1, 1
0, 2
0, 0
0, 0
1, 0
0, 0
0, 0
0, 0
1, 2
0, 0
0, 0
1, 0
0, 0
0, 1
0, 2
0, 0
0, 0
0, 1
2, 0
0, 0
1, 1
0, 1
0, 0
0, 0
0, 1
0, 0
1, 0
0, 0
0, 1
0, 1
0, 0
0, 0
2, 0
0, 0
0, 1
0, 0
1, 0
0, 0
1, 0
0, 1
0, 1
1, 2
0, 0
2, 0
0, 0
0, 0
0, 0
0, 0
0, 0
0, 1
1, 0
0, 0
0, 0
0, 1
1, 0
0, 1
1, 0
1, 0
0, 0
0, 0
0, 1
1, 0
0, 0
0, 0
0, 0
1, 0
1, 0
0, 0
0, 0
0, 0
0, 0
0, 0
0, 0
0, 0
1, 0
1, 0
2, 0
0, 0
0, 0
0, 0
0, 0
0, 0
0, 0
0, 1
0, 0
1, 0
0, 1
0, 1
0, 0
0, 0
0, 0
0, 1
0, 1
0, 0
0, 0
0, 1
0, 0
0, 0
1, 0
1, 0
1, 0
0, 0
0, 0
0, 0
0, 0
0, 1
1, 0
0, 1
0, 0
0, 0
1, 1
0, 1
0, 0
0, 1
1, 2
0, 0
1, 1
1, 0
0, 0
0, 0
0, 0
0, 0
0, 1
0, 0
0, 0
0, 0
0, 0
0, 0
0, 0
0, 0
0, 0
0, 0
0, 0
0, 1
0, 0
1, 0
0, 0
0, 0
0, 0
0, 0
0, 0
0, 0
0, 0
0, 0
0, 0
0, 0
0, 0
0, 0
0, 0
0, 0
1, 0
0, 0
0, 0
0, 0
0, 0
0, 0
0, 0
0, 0
0, 0
0, 0
0, 0
0, 0
0, 0
0, 0
0, 0
0, 0
0, 1
0, 0
0, 0
0, 0
0, 0
0, 0
0, 0
0, 0
0, 0
0, 0
1, 0
0, 0
0, 0
0, 0
0, 0
0, 0
0, 0
0, 0
0, 0
0, 1
0, 0
0, 0
0, 0
0, 0
0, 0
0, 0
0, 0
0, 0
0, 0
1, 0
0, 0
0, 0
0, 0
0, 0
0, 0
0, 0
0, 0
0, 0
0, 0
0, 0
0, 0
0, 0
0, 0
0, 0
0, 0
0, 0
0, 0
0, 0
1, 0
0, 0
0, 0
0, 0
0, 0
0, 0
0, 0
0, 0
0, 0
0, 0
0, 0
0, 0
0, 0
0, 0
0, 0
0, 0
0, 0
0, 0
0, 0
0, 0
0, 0
0, 0
0, 0
1, 0
0, 0
0, 0
0, 0
0, 0
0, 0
0, 0
0, 0
0, 0
0, 1
0, 0
0, 0
0, 0
0, 0
0, 0
0, 0
0, 0
0, 0
0, 0
0, 0
0, 0
0, 0
0, 0
0, 0
0, 0
0, 0
0, 0
0, 0
1, 0
0, 0
0, 0
0, 0
0, 0
0, 0
0, 0
0, 0
0, 0
0, 0
0, 0
0, 0
0, 0
0, 0
0, 0
0, 0
0, 0
0, 0
0, 0
0, 0
0, 0
0, 0
0, 0
0, 0
0, 0
0, 0
0, 0
0, 0
0, 0
0, 0
0, 0
0, 0
0, 0
0, 0
0, 0
0, 0
0, 0
0, 0
0, 0
0, 0
0, 0
0, 0
0, 0
0, 0
0, 0
0, 0
0, 0
0, 0
0, 0
0, 0
0, 0
0, 0
0, 0
0, 0
0, 0
0, 0
0, 0
0, 0
0, 0
0, 0
0, 0
0, 0
0, 1
0, 0
0, 0
0, 0
0, 0
0, 0
0, 0
0, 0
0, 0
0, 0
0, 0
0, 0
0, 0
0, 0
0, 0
0, 0
0, 0
0, 0
0, 0
0, 0
0, 0
0, 0
0, 0
0, 0
0, 0
0, 0
0, 0
0, 0
0, 0
0, 0
0, 0
0, 0
0, 0
0, 0
0, 0
0, 0
0, 0
0, 0
0, 0
0, 0
0, 0
0, 0
0, 0
0, 0
0, 0
0, 0
0, 0
0, 0
0, 0
0, 0
0, 0
0, 0
0, 0
0, 0
0, 0
0, 0
0, 0
0, 0
0, 0
0, 0
0, 0
0, 0
0, 0
0, 0
0, 0
0, 0
0, 0
0, 0
0, 0
0, 0
0, 0
0, 0
0, 0
0, 0
0, 0
0, 0
0, 0
0, 0
0, 0
0, 0
0, 0
0, 0
0, 0
0, 0
0, 0
0, 0
0, 0
0, 0
0, 0
0, 0
0, 0
0, 0
0, 0
0, 0
0, 0
0, 0
0, 0
0, 0
0, 0
0, 0
0, 0
0, 0
0, 0
0, 0
0, 0
0, 0
0, 0
0, 0
0, 0
0, 0
0, 0
0, 0
0, 0
0, 0
0, 0
0, 0
0, 0
0, 0
0, 0
0, 0
0, 0
0, 0
0, 0
0, 0
0, 0
0, 0
0, 0
0, 0
0, 0
0, 0
0, 0
0, 0
0, 0
0, 0
0, 0
0, 0
0, 0
0, 0
0, 0
0, 0
0, 0
0, 0
0, 0
0, 0
0, 0
0, 0
0, 0
0, 0
0, 0
0, 0
0, 0
0, 0
0, 0
0, 0
0, 0
0, 0
0, 0
0, 0
0, 0
0, 0
0, 0
0, 0
0, 0
0, 0
0, 0
0, 0
0, 0
0, 0
0, 0
0, 0
0, 0
0, 0
0, 0
0, 0
0, 0
0, 0
0, 0
0, 0
0, 0
0, 0
0, 0
0, 0
0, 0
0, 0
0, 0
0, 0
0, 0
0, 0
0, 0
0, 0
0, 0
0, 0
0, 0
0, 0
0, 0
0, 0
0, 0
0, 0
0, 0
0, 0
0, 0
0, 0
0, 0
0, 0
0, 0
0, 0
0, 0
0, 0
0, 0
0, 0
0, 0
0, 0
0, 0
0, 0
0, 0
0, 0
0, 0
0, 0
0, 0
0, 0
0, 0
0, 0
0, 0
0, 0
0, 0
0, 0
0, 0
0, 0
0, 0
0, 0
0, 0
0, 0
0, 0
0, 0
0, 0
0, 0
0, 0
0, 0
0, 0
0, 0
0, 0
0, 0
0, 0
0, 0
0, 0
0, 0
0, 0
0, 0
0, 0
0, 0
0, 0
0, 0
0, 0
0, 0
0, 0
0, 0
0, 0
0, 0
0, 0
0, 0
0, 0
0, 0
0, 0
0, 0
0, 0
0, 0
0, 0
0, 0
0, 0
0, 0
0, 0
0, 0
0, 0
0, 0
0, 0
0, 0
0, 0
0, 0
0, 0
0, 0
0, 0
0, 0
0, 0
0, 0
0, 0
0, 0
0, 0
0, 0
0, 0
0, 0
0, 0
0, 0
0, 0
0, 0
0, 0
0, 0
0, 0
0, 0
0, 0
0, 0
0, 0
0, 0
0, 0
0, 0
0, 0
0, 0
0, 0
0, 0
0, 0
0, 0
0, 0
0, 0
0, 0
0, 0
0, 0
0, 0
0, 0
0, 0
0, 0
0, 0
0, 0
0, 0
0, 0
0, 0
0, 0
0, 0
0, 0
0, 0
0, 0
0, 0
0, 0
0, 0
0, 0
0, 0
0, 0
0, 0
0, 0
0, 0
0, 0
0, 0
0, 0
0, 0
0, 0
0, 0
0, 0
#ENDOFDATA     end of spectrum data