File: host_upload/06-09-2024/ps_0852/dump3/ps__0852shot_2266.msa
#FORMAT      : EMSA/MAS spectral data file
#VERSION     : TC202v2.0 PIXL
#TITLE       : N/A
#DATE        :       Date in the format DD-MMM-YYYY, for example 07-JUL-2010
#TIME        :             The time of day at which the spectrum was recorded, in 24-hour format
#OWNER       : PIXL Flight Model       (PIXL will use this to indicate which instrument took the data.)
#NPOINTS     : 4096     Number of data points in the spectrum (This can be zero for configuration only files)
#NCOLUMNS    : 2     Number of data columns in the spectrum (This can be zero for configuration only files)
#XUNITS      : eV
#YUNITS      : COUNTS
#DATATYPE    : YY
#XPERCHAN    : 7.862, 7.881   eV per channel (separate by commas if more than one detector)
#OFFSET      : 18.5, -22.4         eV of first channel  (separate by commas if more than one detector
#SIGNALTYPE  : XRF
#YP_TEMP     : 2.364
#LIVETIME    : 8.56178, 8.35547   seconds (separate by commas if more than one detector)
#REALTIME    : 10, 10.0   seconds (separate by commas if more than one detector)
#SPECTRUM    : start of spectrum data
0, 0
0, 0
0, 0
0, 0
0, 0
0, 0
0, 0
0, 0
0, 0
0, 0
0, 0
0, 0
0, 0
0, 0
0, 0
0, 0
0, 0
0, 0
0, 0
0, 0
0, 0
0, 0
0, 0
0, 0
0, 0
0, 0
0, 0
0, 0
0, 0
1, 0
0, 0
0, 0
0, 0
0, 1
0, 2
0, 9
0, 5
0, 20
3, 31
1, 48
2, 69
5, 80
0, 65
1, 67
0, 48
1, 29
2, 18
2, 16
5, 16
12, 21
21, 22
51, 43
46, 60
66, 79
78, 66
75, 56
72, 69
42, 45
32, 30
11, 22
7, 9
3, 7
7, 11
3, 10
2, 9
5, 7
6, 11
12, 16
19, 21
54, 59
110, 131
176, 173
254, 268
346, 377
404, 446
406, 421
348, 358
293, 254
205, 211
112, 155
64, 72
35, 40
20, 20
10, 7
5, 8
2, 8
0, 8
1, 4
0, 4
1, 5
0, 4
1, 4
0, 1
2, 5
1, 3
2, 4
1, 8
3, 9
4, 3
6, 12
1, 2
2, 5
1, 4
4, 4
0, 8
2, 15
5, 44
5, 108
5, 236
20, 566
30, 1015
24, 1806
37, 2878
49, 3910
49, 4592
50, 4806
44, 4531
54, 3775
40, 2663
34, 1784
36, 998
23, 444
17, 249
16, 111
16, 63
14, 31
15, 23
12, 8
5, 8
6, 6
3, 4
2, 7
4, 2
5, 2
2, 1
3, 5
2, 0
3, 1
5, 2
4, 1
4, 4
2, 0
4, 1
2, 1
2, 1
3, 2
1, 3
2, 0
3, 1
2, 2
5, 2
1, 6
8, 13
9, 17
11, 12
15, 26
19, 19
30, 25
26, 23
25, 24
24, 19
13, 19
10, 7
3, 8
9, 5
3, 16
4, 4
12, 9
10, 16
15, 16
14, 15
21, 19
19, 17
14, 15
12, 17
9, 29
7, 19
4, 29
1, 31
5, 23
6, 13
4, 11
4, 11
0, 4
4, 3
4, 6
3, 5
4, 6
5, 7
11, 9
12, 7
5, 12
6, 11
8, 13
8, 12
17, 12
14, 10
13, 17
15, 14
12, 18
5, 6
16, 10
13, 8
14, 4
21, 6
14, 7
33, 3
22, 5
15, 6
15, 3
13, 7
8, 4
4, 3
3, 4
8, 11
9, 6
4, 7
6, 6
6, 8
12, 5
16, 4
17, 4
17, 6
25, 14
24, 15
22, 23
31, 27
25, 37
35, 37
33, 39
35, 39
33, 44
28, 37
17, 35
21, 18
19, 22
18, 15
14, 12
13, 11
12, 13
8, 13
11, 9
6, 14
12, 17
16, 18
25, 16
22, 30
33, 32
38, 45
62, 47
47, 65
68, 60
65, 65
62, 50
34, 40
27, 25
19, 27
24, 13
19, 25
17, 18
23, 20
18, 45
37, 45
87, 112
120, 186
270, 342
438, 625
720, 863
1123, 1321
1528, 1706
1907, 2159
2086, 2346
2286, 2358
2184, 2250
2020, 1955
1638, 1528
1313, 1062
820, 742
583, 449
353, 253
214, 113
112, 89
66, 39
41, 39
40, 44
39, 39
44, 45
41, 42
46, 71
31, 72
34, 70
40, 109
42, 111
70, 129
76, 163
141, 220
192, 229
248, 340
297, 356
324, 343
376, 386
344, 321
275, 295
238, 237
176, 143
127, 108
88, 75
52, 48
26, 30
18, 17
11, 5
10, 5
7, 10
5, 5
8, 13
14, 12
12, 16
12, 11
13, 16
13, 13
16, 11
3, 8
13, 11
11, 6
6, 5
3, 7
4, 3
1, 5
5, 1
4, 6
5, 6
5, 1
2, 4
5, 3
6, 6
3, 4
5, 2
7, 6
12, 10
8, 6
12, 5
11, 7
12, 6
12, 5
16, 11
16, 5
10, 10
11, 14
6, 17
7, 23
5, 30
6, 30
7, 33
6, 19
3, 41
2, 29
2, 20
2, 28
3, 9
2, 15
8, 5
3, 12
5, 5
2, 4
2, 4
3, 1
4, 4
5, 4
5, 1
4, 4
2, 5
2, 5
3, 3
5, 6
8, 2
5, 6
5, 2
2, 2
1, 8
5, 6
2, 13
1, 6
3, 6
1, 11
2, 14
3, 9
3, 15
6, 9
6, 9
4, 9
7, 11
4, 4
4, 4
14, 9
5, 1
11, 1
18, 4
11, 7
13, 5
16, 3
8, 2
8, 3
6, 4
13, 6
3, 3
3, 0
7, 3
2, 3
3, 2
3, 7
2, 6
1, 6
5, 3
1, 5
1, 6
3, 2
4, 2
1, 3
3, 3
3, 4
1, 4
9, 2
3, 4
2, 2
4, 2
2, 2
5, 2
1, 0
3, 3
1, 1
2, 1
4, 2
6, 1
3, 2
0, 2
1, 4
2, 6
1, 3
2, 2
3, 2
1, 2
1, 3
1, 5
0, 3
6, 0
3, 0
2, 2
4, 1
6, 7
5, 9
4, 2
5, 4
7, 8
4, 7
2, 6
4, 6
5, 9
5, 6
5, 7
6, 10
2, 8
2, 7
3, 8
5, 11
4, 9
1, 5
0, 4
1, 3
1, 6
1, 4
1, 1
1, 2
1, 5
3, 4
2, 3
1, 1
3, 2
1, 2
0, 3
2, 0
2, 2
2, 3
1, 0
4, 2
2, 3
3, 1
1, 2
3, 1
4, 3
4, 1
0, 0
1, 2
2, 5
2, 1
2, 0
0, 2
0, 2
4, 2
2, 1
0, 5
5, 2
3, 0
0, 2
3, 0
4, 5
2, 4
5, 4
2, 0
2, 4
0, 2
2, 3
3, 3
6, 1
2, 1
0, 4
1, 2
1, 2
4, 4
5, 4
3, 2
0, 2
3, 4
1, 1
3, 2
1, 4
2, 1
5, 3
1, 3
0, 2
1, 2
1, 1
0, 0
0, 3
1, 2
1, 4
3, 1
3, 3
0, 0
1, 4
3, 3
5, 3
3, 6
4, 3
3, 4
5, 5
3, 1
4, 2
3, 1
1, 2
3, 2
1, 0
1, 1
0, 0
1, 3
0, 1
0, 3
3, 3
1, 0
2, 1
0, 1
1, 5
1, 0
2, 0
0, 5
3, 4
1, 2
1, 5
3, 2
2, 0
1, 2
5, 2
3, 3
2, 1
1, 0
1, 3
0, 2
1, 1
0, 0
1, 1
0, 1
0, 1
2, 0
0, 0
2, 1
0, 2
1, 2
0, 2
1, 0
0, 2
0, 2
0, 1
2, 3
1, 1
2, 1
2, 0
1, 3
1, 1
0, 1
1, 1
1, 0
1, 0
3, 1
0, 0
3, 0
1, 1
2, 0
0, 0
2, 1
1, 1
1, 0
1, 0
3, 0
0, 0
0, 1
1, 0
0, 0
0, 3
1, 2
2, 0
1, 0
1, 2
0, 2
1, 2
0, 1
1, 1
1, 2
0, 0
0, 0
0, 0
1, 1
1, 1
1, 0
0, 1
0, 2
1, 0
2, 0
0, 1
1, 1
0, 0
1, 0
0, 3
0, 1
1, 0
0, 0
0, 2
0, 0
1, 0
0, 0
2, 1
1, 0
1, 1
1, 1
0, 0
0, 1
0, 0
0, 0
1, 0
1, 1
1, 0
1, 1
0, 0
1, 0
1, 0
1, 2
0, 0
2, 0
1, 0
0, 1
0, 1
1, 0
2, 0
2, 2
0, 0
1, 0
0, 2
0, 2
1, 0
1, 1
2, 0
2, 0
0, 0
3, 0
0, 0
0, 0
4, 0
1, 0
0, 1
0, 0
0, 0
1, 0
1, 0
0, 0
1, 0
1, 1
0, 1
0, 0
0, 0
0, 2
0, 0
0, 0
0, 0
1, 0
0, 0
0, 0
0, 0
1, 0
0, 1
0, 1
1, 0
0, 0
0, 0
3, 2
0, 0
0, 0
0, 0
0, 0
0, 1
1, 0
0, 0
0, 1
0, 1
0, 1
0, 0
0, 0
0, 0
1, 1
0, 2
0, 0
1, 0
1, 0
0, 1
0, 1
1, 0
0, 0
0, 1
0, 0
0, 1
0, 0
0, 0
0, 0
0, 1
1, 1
0, 0
1, 2
2, 0
1, 0
1, 0
0, 0
1, 0
0, 0
1, 1
0, 0
0, 0
1, 0
0, 0
1, 0
1, 1
0, 0
1, 0
0, 0
0, 1
1, 0
0, 0
1, 1
0, 0
0, 0
1, 0
1, 0
0, 0
0, 0
0, 0
0, 0
0, 0
2, 0
0, 0
1, 0
2, 0
0, 0
1, 0
1, 1
0, 0
1, 0
1, 1
0, 0
0, 0
0, 1
0, 0
0, 0
0, 0
1, 2
0, 0
0, 0
0, 1
0, 1
1, 0
0, 1
0, 0
1, 2
0, 1
0, 0
0, 0
0, 0
0, 0
0, 1
0, 1
1, 1
1, 0
1, 0
0, 1
0, 1
1, 0
0, 0
0, 0
0, 0
0, 0
0, 1
0, 0
0, 0
0, 0
0, 0
0, 0
0, 0
0, 0
1, 0
0, 0
0, 0
0, 0
0, 0
0, 1
0, 1
0, 1
0, 1
0, 0
0, 0
0, 0
1, 0
0, 0
0, 0
0, 0
0, 0
0, 0
0, 0
0, 0
1, 0
0, 0
0, 0
1, 0
1, 0
1, 0
1, 1
2, 1
0, 0
0, 1
1, 1
0, 0
0, 0
0, 0
0, 0
0, 0
0, 0
0, 0
0, 1
0, 0
1, 0
0, 1
0, 0
0, 0
0, 0
1, 0
0, 0
0, 0
0, 1
0, 0
0, 0
0, 0
0, 0
0, 0
0, 0
1, 0
0, 0
0, 0
1, 1
0, 0
0, 0
0, 0
0, 0
0, 0
0, 0
0, 0
0, 0
0, 0
0, 0
0, 0
0, 0
0, 0
0, 0
0, 0
0, 1
0, 0
0, 0
0, 0
0, 0
0, 0
0, 0
0, 0
0, 0
1, 0
0, 0
0, 0
1, 0
0, 0
0, 0
0, 0
0, 0
0, 0
0, 0
0, 0
0, 0
0, 0
0, 0
0, 0
0, 0
0, 0
0, 0
1, 0
0, 0
0, 0
0, 0
0, 0
1, 0
0, 0
0, 0
0, 0
0, 0
0, 0
0, 0
0, 0
0, 0
0, 0
0, 0
0, 0
0, 0
0, 0
0, 1
0, 0
0, 0
0, 0
0, 0
0, 0
0, 0
0, 0
1, 0
0, 0
0, 0
0, 0
0, 0
0, 0
0, 0
0, 0
0, 0
0, 0
0, 0
0, 0
0, 0
0, 0
0, 0
0, 1
0, 0
0, 0
0, 0
0, 0
0, 0
0, 0
0, 0
0, 0
0, 0
0, 0
0, 0
0, 0
0, 0
1, 0
0, 0
0, 0
0, 0
0, 0
0, 0
0, 0
0, 0
0, 0
0, 0
0, 0
0, 0
0, 0
0, 0
0, 0
0, 0
0, 0
0, 0
0, 0
0, 0
0, 0
0, 0
0, 0
0, 1
0, 0
0, 0
0, 0
0, 0
0, 0
0, 0
0, 0
0, 0
0, 0
0, 0
0, 0
0, 0
0, 0
0, 0
0, 0
0, 0
0, 0
0, 0
0, 0
0, 0
0, 0
0, 0
0, 0
0, 0
0, 0
0, 0
0, 0
0, 0
0, 0
0, 0
0, 0
0, 0
0, 0
0, 0
0, 0
0, 0
0, 0
0, 0
0, 0
0, 0
0, 0
0, 0
0, 0
0, 0
0, 0
0, 0
0, 0
0, 0
0, 0
0, 0
0, 0
0, 0
0, 0
0, 0
0, 0
0, 0
0, 0
0, 0
0, 0
0, 0
0, 0
0, 0
0, 0
0, 0
0, 0
0, 0
0, 0
0, 0
0, 0
0, 0
0, 0
0, 0
0, 0
0, 0
0, 0
0, 0
0, 0
0, 0
0, 0
0, 0
0, 0
0, 0
0, 0
0, 0
0, 0
0, 0
0, 0
0, 0
0, 0
0, 0
0, 0
0, 0
0, 0
0, 0
0, 0
0, 0
0, 0
0, 0
0, 0
0, 0
0, 0
0, 0
0, 0
0, 0
0, 0
0, 0
0, 0
0, 0
0, 0
0, 0
0, 0
0, 0
0, 0
0, 0
0, 0
0, 0
0, 0
0, 0
0, 0
0, 0
0, 0
0, 0
0, 0
0, 0
0, 0
0, 0
0, 0
0, 0
0, 0
0, 0
0, 0
0, 0
0, 0
0, 0
0, 0
0, 0
0, 0
0, 0
0, 0
0, 0
0, 0
0, 0
0, 0
0, 0
0, 0
0, 0
0, 0
0, 0
0, 0
0, 0
0, 0
0, 0
0, 0
0, 0
0, 0
0, 0
0, 0
0, 0
0, 0
0, 0
0, 0
0, 0
0, 0
0, 0
0, 0
0, 0
0, 0
0, 0
0, 0
0, 0
0, 0
0, 0
0, 0
0, 0
0, 0
0, 0
0, 0
0, 0
0, 0
0, 0
0, 0
0, 0
0, 0
0, 0
0, 0
0, 0
0, 0
0, 0
0, 0
0, 0
0, 0
0, 0
0, 0
0, 0
0, 0
0, 0
0, 0
0, 0
0, 0
0, 0
0, 0
0, 0
0, 0
0, 0
0, 0
0, 0
0, 0
0, 0
0, 0
0, 0
0, 0
0, 0
0, 0
0, 0
0, 0
0, 0
0, 0
0, 0
0, 0
0, 0
0, 0
0, 0
0, 0
0, 0
0, 0
0, 0
0, 0
0, 0
0, 0
0, 0
0, 0
0, 0
0, 0
0, 0
0, 0
0, 0
0, 0
0, 0
0, 0
0, 0
0, 0
0, 0
0, 0
0, 0
0, 0
0, 0
0, 0
0, 0
0, 0
0, 0
0, 0
0, 0
0, 0
0, 0
0, 0
0, 0
0, 0
0, 0
0, 0
0, 0
0, 0
0, 0
0, 0
0, 0
0, 0
0, 0
0, 0
0, 0
0, 0
0, 0
0, 0
0, 0
0, 0
0, 0
0, 0
0, 0
0, 0
0, 0
0, 0
0, 0
0, 0
0, 0
0, 0
0, 0
0, 0
0, 0
0, 0
0, 0
0, 0
0, 0
0, 0
0, 0
0, 0
0, 0
0, 0
0, 0
0, 0
0, 0
0, 0
0, 0
0, 0
0, 0
0, 0
0, 0
0, 0
0, 0
0, 0
0, 0
0, 0
0, 0
0, 0
0, 0
0, 0
0, 0
0, 0
0, 0
0, 0
0, 0
0, 0
0, 0
0, 0
0, 0
0, 0
0, 0
0, 0
0, 0
0, 0
0, 0
0, 0
0, 0
0, 0
0, 0
0, 0
0, 0
0, 0
0, 0
0, 0
0, 0
0, 0
0, 0
0, 0
0, 0
0, 0
0, 0
0, 0
0, 0
0, 0
0, 0
0, 0
0, 0
0, 0
0, 0
0, 0
0, 0
0, 0
0, 0
0, 0
0, 0
0, 0
0, 0
0, 0
0, 0
#ENDOFDATA     end of spectrum data