File: host_upload/06-09-2024/ps_0852/dump3/ps__0852shot_2464.msa
#FORMAT      : EMSA/MAS spectral data file
#VERSION     : TC202v2.0 PIXL
#TITLE       : N/A
#DATE        :       Date in the format DD-MMM-YYYY, for example 07-JUL-2010
#TIME        :             The time of day at which the spectrum was recorded, in 24-hour format
#OWNER       : PIXL Flight Model       (PIXL will use this to indicate which instrument took the data.)
#NPOINTS     : 4096     Number of data points in the spectrum (This can be zero for configuration only files)
#NCOLUMNS    : 2     Number of data columns in the spectrum (This can be zero for configuration only files)
#XUNITS      : eV
#YUNITS      : COUNTS
#DATATYPE    : YY
#XPERCHAN    : 7.862, 7.881   eV per channel (separate by commas if more than one detector)
#OFFSET      : 18.5, -22.4         eV of first channel  (separate by commas if more than one detector
#SIGNALTYPE  : XRF
#YP_TEMP     : 2.332
#LIVETIME    : 8.55754, 8.51714   seconds (separate by commas if more than one detector)
#REALTIME    : 10, 10.0   seconds (separate by commas if more than one detector)
#SPECTRUM    : start of spectrum data
0, 0
0, 0
0, 0
0, 0
0, 0
0, 0
0, 0
0, 0
0, 0
0, 0
0, 0
0, 0
0, 0
0, 0
0, 0
0, 0
0, 0
0, 0
0, 0
0, 0
0, 0
0, 0
0, 0
0, 0
0, 0
0, 0
0, 0
0, 0
0, 0
0, 0
0, 0
0, 0
0, 1
1, 0
0, 1
0, 0
0, 1
0, 3
0, 0
3, 3
1, 3
0, 2
1, 0
3, 2
1, 0
1, 2
0, 0
7, 2
5, 6
6, 7
19, 14
47, 41
58, 62
75, 72
71, 74
63, 54
46, 58
47, 45
24, 24
15, 7
12, 6
1, 5
3, 1
4, 2
6, 2
3, 2
4, 5
8, 9
16, 23
25, 27
73, 89
149, 137
187, 195
276, 284
289, 355
305, 336
245, 251
230, 229
141, 143
92, 119
48, 54
28, 21
11, 14
14, 5
8, 1
4, 8
4, 3
3, 7
5, 3
3, 5
10, 8
11, 14
25, 26
43, 49
93, 120
150, 210
219, 268
308, 362
347, 436
339, 416
287, 356
245, 307
198, 226
135, 128
76, 75
65, 62
34, 43
37, 32
28, 33
47, 44
55, 46
80, 48
86, 50
94, 79
99, 70
126, 68
102, 53
68, 44
63, 40
45, 35
35, 38
27, 26
30, 26
16, 21
17, 17
19, 22
18, 13
7, 7
8, 12
5, 9
6, 10
7, 7
4, 3
3, 0
8, 3
2, 4
5, 4
7, 8
5, 7
5, 5
6, 8
5, 5
8, 5
7, 7
7, 6
5, 3
3, 2
3, 3
3, 2
2, 4
0, 4
5, 6
4, 8
8, 20
12, 28
20, 21
17, 40
15, 34
24, 34
24, 27
20, 35
15, 18
14, 11
6, 4
5, 8
4, 3
3, 7
3, 8
9, 13
9, 13
13, 8
8, 3
12, 7
12, 14
18, 10
23, 8
33, 5
44, 7
53, 2
45, 4
35, 3
46, 6
18, 5
23, 6
13, 4
10, 9
4, 6
8, 8
6, 14
10, 8
10, 12
9, 11
11, 16
11, 18
15, 24
7, 18
13, 13
14, 15
16, 15
13, 19
8, 18
14, 15
4, 8
12, 5
4, 16
3, 10
7, 16
1, 9
6, 16
4, 11
5, 11
10, 8
7, 12
10, 13
4, 14
11, 13
7, 7
4, 8
4, 6
5, 16
9, 6
6, 9
9, 8
7, 9
6, 7
12, 12
9, 14
13, 28
14, 30
21, 30
26, 34
38, 33
30, 28
28, 26
25, 17
26, 27
24, 22
20, 24
14, 28
18, 34
13, 28
7, 35
11, 39
16, 28
21, 28
22, 41
31, 33
47, 44
60, 66
63, 64
59, 70
62, 88
71, 50
53, 39
41, 45
43, 40
23, 27
20, 17
11, 18
10, 20
13, 19
30, 19
34, 55
87, 87
145, 171
243, 352
437, 549
684, 859
1006, 1269
1359, 1752
1759, 2143
1954, 2431
2111, 2475
2154, 2349
1875, 1971
1483, 1462
1171, 1055
827, 795
526, 467
298, 269
155, 149
81, 72
46, 42
27, 24
22, 21
14, 23
19, 12
15, 14
16, 19
22, 21
21, 36
22, 38
52, 52
65, 92
82, 104
126, 181
179, 205
225, 295
273, 344
323, 359
338, 366
303, 316
269, 272
232, 204
175, 154
120, 102
72, 73
55, 33
29, 14
14, 14
17, 7
9, 7
8, 4
9, 15
9, 8
13, 8
9, 8
13, 16
10, 16
15, 10
18, 9
31, 9
25, 10
25, 8
20, 5
22, 2
20, 2
12, 2
6, 3
10, 3
8, 2
5, 0
6, 2
6, 4
7, 4
3, 6
6, 5
10, 0
7, 9
5, 6
7, 3
1, 10
6, 4
8, 6
5, 8
8, 7
3, 5
5, 12
5, 9
8, 10
3, 10
8, 3
8, 7
11, 8
6, 9
8, 4
11, 3
12, 4
5, 1
7, 4
5, 0
6, 3
4, 2
4, 4
3, 9
4, 8
8, 5
7, 5
4, 7
6, 7
4, 6
3, 4
6, 1
3, 4
2, 6
3, 1
4, 5
6, 3
6, 5
5, 5
7, 0
2, 6
3, 6
2, 6
1, 13
3, 12
3, 10
1, 11
3, 16
2, 11
0, 10
2, 10
4, 9
5, 3
4, 10
8, 6
3, 5
1, 6
4, 8
5, 5
5, 5
10, 3
6, 3
8, 3
5, 7
5, 2
3, 6
5, 2
3, 4
8, 1
6, 6
5, 1
3, 3
1, 2
7, 5
1, 2
4, 8
2, 2
4, 10
5, 9
4, 5
0, 13
1, 8
8, 12
7, 12
8, 16
7, 12
3, 10
5, 9
5, 13
5, 7
4, 5
4, 3
3, 6
6, 6
2, 3
4, 4
0, 7
7, 7
3, 3
3, 5
5, 2
1, 3
0, 2
3, 2
2, 6
3, 5
4, 1
6, 1
4, 6
3, 2
4, 1
3, 4
4, 1
3, 0
4, 3
1, 3
1, 2
2, 6
0, 3
3, 5
3, 3
2, 2
4, 3
5, 1
5, 2
0, 2
7, 3
3, 4
4, 3
5, 2
5, 2
6, 2
4, 4
1, 1
3, 0
2, 5
3, 2
6, 2
2, 2
2, 1
3, 2
2, 2
1, 1
3, 1
3, 4
1, 5
1, 1
2, 1
3, 2
1, 2
1, 1
1, 2
1, 2
3, 2
1, 3
1, 4
3, 4
1, 2
2, 3
0, 3
1, 1
1, 2
3, 3
0, 3
3, 1
1, 1
2, 0
1, 2
2, 2
2, 3
1, 1
0, 3
1, 0
1, 2
1, 0
1, 2
2, 1
4, 5
0, 1
1, 1
1, 0
3, 3
3, 0
1, 2
1, 1
0, 1
2, 4
2, 6
2, 1
1, 2
5, 3
4, 2
1, 0
4, 2
3, 5
2, 4
4, 3
3, 5
4, 2
3, 3
3, 7
8, 9
4, 4
1, 5
1, 4
4, 4
2, 2
2, 5
2, 1
1, 2
1, 0
2, 2
3, 5
0, 1
3, 2
2, 2
2, 2
0, 0
0, 2
0, 1
1, 0
0, 1
0, 1
0, 2
1, 0
2, 2
0, 1
3, 2
2, 1
3, 3
1, 5
4, 1
0, 1
1, 2
3, 2
1, 1
3, 2
1, 0
0, 2
0, 0
1, 0
0, 0
1, 2
0, 2
0, 1
1, 1
1, 0
0, 2
1, 0
1, 1
1, 4
0, 1
3, 3
1, 0
2, 2
0, 0
1, 0
1, 1
0, 2
1, 3
1, 1
1, 3
1, 0
1, 0
2, 0
0, 0
0, 1
1, 0
2, 1
1, 0
0, 1
2, 1
3, 0
0, 0
1, 2
0, 3
0, 1
0, 0
1, 1
0, 3
1, 2
2, 0
1, 1
0, 0
4, 0
0, 0
0, 0
0, 1
0, 0
0, 1
1, 0
1, 1
0, 1
0, 1
0, 1
0, 1
0, 1
0, 1
0, 0
0, 0
3, 0
2, 0
0, 0
1, 0
0, 2
0, 1
1, 0
2, 1
0, 0
0, 1
1, 0
0, 1
0, 1
1, 2
1, 1
0, 0
1, 0
0, 1
2, 0
0, 0
1, 0
0, 2
1, 0
1, 0
1, 0
0, 0
0, 1
0, 1
0, 0
0, 1
1, 1
1, 0
1, 1
2, 0
1, 1
0, 0
2, 1
1, 0
2, 1
0, 1
1, 0
1, 0
0, 0
0, 2
1, 0
0, 1
0, 0
0, 1
0, 0
0, 0
0, 0
1, 0
0, 2
1, 1
0, 0
0, 1
0, 1
0, 1
0, 0
0, 1
0, 1
0, 1
0, 0
0, 0
0, 0
0, 0
0, 1
0, 2
0, 1
1, 0
0, 0
1, 0
0, 0
1, 0
1, 0
0, 1
0, 1
0, 0
0, 1
0, 0
1, 0
0, 1
1, 0
0, 1
1, 0
0, 1
1, 0
0, 0
0, 0
0, 0
0, 1
1, 1
0, 0
0, 0
1, 0
3, 0
0, 0
0, 0
0, 0
0, 1
0, 0
0, 0
0, 0
0, 1
0, 1
2, 0
0, 1
0, 0
0, 0
0, 0
1, 1
0, 0
0, 0
0, 1
0, 1
0, 0
2, 0
0, 1
1, 0
0, 1
0, 0
0, 1
0, 0
1, 0
1, 1
1, 0
0, 0
0, 0
0, 0
0, 0
0, 1
1, 0
0, 0
1, 0
0, 1
0, 0
1, 1
0, 0
2, 0
0, 0
1, 0
0, 0
1, 0
0, 1
0, 1
0, 0
0, 0
0, 0
0, 0
0, 1
2, 0
0, 0
0, 0
1, 0
0, 0
0, 0
0, 0
0, 0
0, 1
0, 1
0, 0
1, 0
0, 0
0, 0
1, 0
0, 0
0, 0
0, 0
0, 0
0, 0
0, 0
1, 0
0, 0
0, 1
0, 1
0, 0
0, 0
0, 0
0, 0
0, 0
0, 1
0, 0
0, 0
0, 1
0, 0
0, 0
0, 0
0, 0
1, 1
0, 0
0, 0
0, 1
0, 0
0, 0
0, 0
0, 0
0, 0
1, 0
0, 1
0, 0
0, 0
0, 0
0, 0
0, 0
0, 0
0, 0
0, 0
0, 0
2, 0
0, 3
0, 0
0, 0
0, 0
0, 0
0, 0
0, 1
0, 0
0, 0
0, 0
0, 0
1, 0
0, 0
0, 0
0, 0
0, 0
0, 0
0, 0
0, 0
0, 0
0, 0
0, 0
0, 0
0, 0
0, 0
0, 0
0, 0
0, 0
0, 0
0, 0
0, 0
0, 0
0, 0
0, 0
0, 0
0, 0
0, 0
0, 0
1, 0
0, 0
0, 0
0, 0
0, 0
0, 0
0, 0
0, 0
0, 0
0, 0
0, 0
0, 0
0, 1
0, 0
0, 0
1, 0
0, 0
0, 0
0, 0
1, 0
0, 0
0, 0
0, 0
0, 0
0, 1
0, 0
0, 0
0, 0
0, 0
0, 0
0, 0
0, 0
0, 1
0, 0
0, 0
0, 0
0, 0
0, 0
0, 0
0, 0
0, 0
0, 0
0, 0
0, 0
0, 0
0, 0
0, 0
0, 0
0, 0
0, 0
0, 0
0, 0
0, 0
0, 0
0, 0
0, 0
0, 0
0, 0
0, 0
0, 0
0, 0
0, 0
0, 0
0, 0
0, 0
0, 0
0, 0
0, 0
0, 0
0, 0
0, 0
0, 0
0, 0
0, 0
0, 0
0, 0
0, 0
0, 0
0, 0
0, 1
0, 0
0, 0
0, 0
0, 0
0, 0
0, 0
0, 0
0, 0
0, 0
0, 0
0, 0
0, 0
0, 0
0, 0
0, 0
0, 0
0, 0
0, 0
0, 0
0, 0
0, 0
0, 1
0, 0
1, 0
0, 0
0, 0
0, 0
0, 0
0, 0
0, 0
0, 0
0, 0
0, 0
0, 0
0, 0
0, 0
0, 0
0, 0
0, 0
0, 0
0, 0
0, 0
0, 0
0, 0
0, 0
0, 0
0, 0
0, 0
0, 0
0, 0
0, 0
0, 1
0, 0
0, 0
0, 0
0, 0
0, 0
0, 0
0, 0
0, 0
0, 0
0, 0
0, 0
0, 0
0, 0
0, 0
0, 0
0, 0
0, 0
0, 0
0, 0
0, 0
0, 0
0, 0
0, 0
0, 0
0, 0
0, 0
0, 0
0, 0
0, 0
0, 0
0, 0
0, 0
0, 0
0, 0
0, 0
0, 0
0, 0
0, 0
0, 0
0, 0
0, 0
0, 0
0, 0
0, 0
0, 0
0, 0
0, 0
0, 0
0, 0
0, 0
0, 0
0, 0
0, 0
0, 0
0, 0
0, 0
0, 0
0, 0
0, 0
0, 0
0, 0
0, 0
0, 0
0, 0
0, 0
0, 0
0, 1
0, 0
0, 0
0, 0
0, 0
0, 0
0, 0
0, 0
0, 0
0, 0
0, 0
0, 0
0, 0
0, 0
0, 0
0, 0
0, 0
0, 0
0, 0
0, 0
0, 0
0, 0
0, 0
0, 0
0, 0
0, 0
0, 1
0, 0
0, 0
0, 0
0, 0
0, 0
0, 0
0, 0
0, 0
0, 0
0, 0
0, 0
0, 0
0, 0
0, 0
0, 0
0, 0
0, 0
0, 0
0, 0
0, 0
0, 0
0, 0
0, 0
0, 0
0, 0
0, 0
0, 0
0, 0
0, 0
0, 0
0, 0
0, 0
0, 0
0, 0
0, 0
0, 0
0, 0
0, 0
0, 0
0, 0
0, 0
0, 0
0, 0
0, 0
0, 0
0, 0
0, 0
0, 0
0, 0
0, 0
0, 0
0, 0
0, 0
0, 0
0, 0
0, 0
0, 0
0, 0
0, 0
0, 0
0, 0
0, 0
0, 0
0, 0
0, 0
0, 0
0, 0
0, 0
0, 0
0, 0
0, 0
0, 0
0, 0
0, 0
0, 0
0, 0
0, 0
0, 0
0, 0
0, 0
0, 0
0, 0
0, 0
0, 0
0, 0
0, 0
0, 0
0, 0
0, 0
0, 0
0, 0
0, 0
0, 0
0, 0
0, 0
0, 0
0, 0
0, 0
0, 0
0, 0
0, 0
0, 0
0, 0
0, 0
0, 0
0, 0
0, 0
0, 0
0, 0
0, 0
0, 0
0, 0
0, 0
0, 0
0, 0
0, 0
0, 0
0, 0
0, 0
0, 0
0, 0
0, 0
0, 0
0, 0
0, 0
0, 0
0, 0
0, 0
0, 0
0, 0
0, 0
0, 0
0, 0
0, 0
0, 0
0, 0
0, 0
0, 0
0, 0
0, 0
0, 0
0, 0
0, 0
0, 0
0, 0
0, 0
0, 0
0, 0
0, 0
0, 0
0, 0
0, 0
0, 0
0, 0
0, 0
0, 0
0, 0
0, 0
0, 0
0, 0
0, 0
0, 0
0, 0
0, 0
0, 0
0, 0
0, 0
0, 0
0, 0
0, 0
0, 0
0, 0
0, 0
0, 0
0, 0
0, 0
0, 0
0, 0
0, 0
0, 0
0, 0
0, 0
0, 0
0, 0
0, 0
0, 0
0, 0
0, 0
0, 0
0, 0
0, 0
0, 0
0, 0
0, 0
0, 0
0, 0
0, 0
0, 0
0, 0
0, 0
0, 0
0, 0
0, 0
0, 0
0, 0
0, 0
0, 0
0, 0
0, 0
0, 0
0, 0
0, 0
0, 0
0, 0
0, 0
0, 0
0, 0
0, 0
0, 0
0, 0
0, 0
0, 0
0, 0
0, 0
0, 0
0, 0
0, 0
0, 0
0, 0
0, 0
0, 0
0, 0
0, 0
0, 0
0, 0
0, 0
0, 0
0, 0
0, 0
0, 0
0, 0
0, 0
0, 0
0, 0
0, 0
0, 0
0, 0
0, 0
0, 0
0, 0
0, 0
0, 0
0, 0
#ENDOFDATA     end of spectrum data