File: host_upload/06-09-2024/ps_0852/dump3/ps__0852shot_2095.msa
#FORMAT      : EMSA/MAS spectral data file
#VERSION     : TC202v2.0 PIXL
#TITLE       : N/A
#DATE        :       Date in the format DD-MMM-YYYY, for example 07-JUL-2010
#TIME        :             The time of day at which the spectrum was recorded, in 24-hour format
#OWNER       : PIXL Flight Model       (PIXL will use this to indicate which instrument took the data.)
#NPOINTS     : 4096     Number of data points in the spectrum (This can be zero for configuration only files)
#NCOLUMNS    : 2     Number of data columns in the spectrum (This can be zero for configuration only files)
#XUNITS      : eV
#YUNITS      : COUNTS
#DATATYPE    : YY
#XPERCHAN    : 7.862, 7.881   eV per channel (separate by commas if more than one detector)
#OFFSET      : 18.5, -22.4         eV of first channel  (separate by commas if more than one detector
#SIGNALTYPE  : XRF
#YP_TEMP     : 2.364
#LIVETIME    : 8.56787, 8.55595   seconds (separate by commas if more than one detector)
#REALTIME    : 10, 10.0   seconds (separate by commas if more than one detector)
#SPECTRUM    : start of spectrum data
0, 0
0, 0
0, 0
0, 0
0, 0
0, 0
0, 0
0, 0
0, 0
0, 0
0, 0
0, 0
0, 0
0, 0
0, 0
0, 0
0, 0
0, 0
0, 0
0, 0
0, 0
0, 0
0, 0
0, 0
0, 0
0, 0
0, 0
0, 0
0, 0
0, 0
0, 0
1, 0
0, 2
1, 0
0, 1
1, 0
0, 0
1, 1
0, 0
1, 1
2, 2
1, 1
0, 0
0, 2
1, 1
1, 0
1, 2
4, 1
5, 2
15, 8
29, 15
48, 31
67, 39
96, 58
86, 60
93, 58
70, 45
46, 24
34, 13
17, 11
8, 5
2, 5
9, 1
2, 2
3, 3
2, 1
4, 6
11, 10
15, 20
36, 41
104, 64
167, 109
238, 167
314, 185
355, 238
406, 266
374, 256
304, 169
194, 147
125, 75
75, 37
28, 27
26, 13
12, 2
8, 0
5, 5
9, 4
2, 1
2, 2
7, 3
7, 5
14, 14
26, 15
44, 37
67, 66
135, 100
198, 172
239, 220
287, 249
307, 241
287, 194
201, 162
166, 105
131, 79
81, 49
50, 33
39, 22
29, 23
12, 16
24, 23
21, 28
39, 24
21, 41
31, 25
37, 33
43, 34
42, 30
30, 27
22, 19
24, 26
27, 19
14, 16
22, 15
18, 21
13, 12
12, 13
8, 8
15, 9
8, 6
3, 6
9, 4
7, 9
5, 2
3, 1
1, 1
2, 3
4, 3
2, 6
1, 4
0, 3
3, 0
5, 3
1, 3
6, 1
4, 5
3, 2
1, 1
2, 1
3, 2
2, 2
1, 6
6, 1
7, 3
7, 9
8, 6
11, 8
15, 14
18, 17
19, 12
14, 12
21, 6
20, 5
17, 13
34, 12
28, 10
35, 13
39, 12
34, 16
35, 13
26, 11
11, 15
16, 7
7, 5
6, 5
7, 8
6, 4
9, 1
9, 2
4, 6
5, 7
6, 2
3, 2
5, 3
7, 2
3, 7
1, 4
2, 3
3, 5
5, 5
8, 3
5, 1
6, 5
12, 12
13, 3
11, 11
12, 10
12, 6
11, 11
16, 17
9, 6
10, 8
10, 14
12, 19
4, 6
14, 12
8, 15
8, 10
9, 9
6, 15
8, 11
13, 6
10, 5
14, 6
15, 5
15, 6
18, 8
12, 5
17, 10
11, 6
15, 3
10, 6
9, 4
10, 3
10, 5
3, 4
12, 3
14, 7
16, 8
8, 10
16, 12
16, 9
11, 6
13, 11
10, 13
13, 12
9, 9
9, 9
4, 5
9, 14
6, 16
7, 5
7, 11
16, 5
8, 6
20, 10
23, 9
25, 27
32, 15
49, 34
63, 30
64, 41
68, 39
67, 42
63, 29
64, 24
43, 24
35, 16
38, 20
27, 13
33, 6
39, 20
72, 29
74, 45
124, 71
181, 149
311, 255
590, 416
867, 663
1222, 894
1685, 1212
2097, 1436
2411, 1592
2525, 1614
2497, 1576
2268, 1278
1862, 1008
1393, 751
1036, 519
682, 307
412, 177
228, 95
114, 50
62, 36
44, 8
19, 15
29, 12
15, 16
16, 10
29, 16
21, 14
32, 19
43, 18
29, 44
78, 58
98, 87
189, 124
203, 154
240, 197
295, 215
358, 248
365, 245
382, 216
318, 210
250, 158
208, 100
156, 73
96, 50
71, 25
31, 19
23, 10
21, 5
10, 5
10, 6
8, 2
12, 8
12, 7
10, 8
17, 9
12, 12
22, 5
17, 4
14, 8
15, 7
6, 1
6, 3
5, 4
7, 3
6, 3
5, 3
13, 6
7, 1
10, 5
11, 3
7, 4
6, 4
11, 5
5, 7
6, 6
8, 3
6, 2
2, 5
8, 4
8, 4
5, 2
7, 6
5, 2
7, 5
10, 5
1, 2
10, 4
9, 2
7, 2
10, 2
6, 2
3, 6
8, 2
5, 1
7, 3
7, 4
4, 1
7, 1
3, 3
5, 0
6, 5
6, 2
6, 2
7, 3
10, 5
4, 3
5, 3
6, 2
8, 5
3, 3
3, 3
2, 5
4, 0
2, 5
2, 2
4, 3
3, 3
2, 1
7, 4
3, 2
2, 2
2, 2
2, 1
4, 2
3, 4
5, 4
4, 2
5, 6
3, 2
5, 2
6, 1
6, 5
4, 7
4, 5
6, 4
5, 3
11, 6
6, 2
8, 1
5, 2
6, 1
9, 5
7, 3
11, 3
5, 3
3, 3
5, 3
6, 1
6, 0
8, 2
10, 2
2, 1
4, 3
2, 2
3, 4
3, 4
5, 1
2, 3
2, 2
3, 1
1, 2
3, 2
2, 2
5, 0
3, 4
8, 2
2, 1
3, 3
4, 3
2, 5
2, 4
4, 5
7, 6
4, 11
4, 8
3, 15
4, 18
2, 10
3, 9
5, 15
3, 10
1, 18
3, 4
4, 7
5, 7
7, 6
6, 3
5, 6
2, 2
2, 1
2, 3
4, 0
0, 1
3, 0
3, 2
5, 2
3, 1
2, 2
0, 1
3, 0
3, 1
5, 2
3, 1
4, 3
2, 2
2, 5
2, 2
6, 3
4, 0
3, 2
2, 2
3, 3
2, 2
3, 1
2, 1
3, 2
1, 1
4, 2
6, 0
0, 1
1, 2
1, 3
0, 1
1, 0
2, 2
1, 2
0, 0
2, 2
1, 2
3, 4
2, 2
2, 0
1, 1
4, 1
2, 0
2, 3
1, 0
3, 2
1, 3
0, 3
3, 1
3, 3
2, 4
3, 6
2, 5
2, 4
3, 4
1, 1
0, 2
0, 3
2, 1
4, 0
4, 6
2, 1
2, 1
2, 1
3, 1
1, 2
1, 1
1, 1
0, 2
4, 2
4, 2
2, 0
0, 1
2, 2
3, 1
3, 0
5, 3
2, 0
6, 2
3, 4
3, 3
1, 1
2, 2
1, 3
1, 3
8, 2
6, 4
3, 2
5, 2
4, 4
5, 2
3, 5
2, 1
3, 0
4, 2
2, 1
3, 0
2, 1
5, 2
1, 0
2, 1
0, 1
2, 0
1, 1
4, 2
4, 1
1, 0
2, 2
1, 2
1, 0
1, 0
0, 4
6, 3
0, 1
3, 0
0, 0
3, 2
3, 2
2, 4
0, 2
2, 1
3, 1
1, 3
1, 0
1, 0
5, 0
2, 0
1, 0
1, 0
2, 0
2, 0
2, 1
2, 0
1, 0
1, 1
1, 1
2, 1
0, 0
1, 0
0, 1
1, 1
4, 2
0, 2
0, 2
0, 1
1, 1
2, 1
0, 4
0, 1
0, 2
2, 1
0, 1
0, 3
0, 0
3, 0
0, 3
0, 0
1, 1
1, 1
0, 1
0, 2
0, 3
1, 1
2, 0
1, 0
0, 1
1, 1
2, 0
2, 2
0, 4
1, 0
1, 1
1, 0
2, 0
2, 0
3, 0
2, 0
1, 0
1, 0
1, 1
4, 0
1, 1
0, 0
0, 0
3, 1
0, 1
1, 0
0, 1
1, 1
0, 0
0, 1
1, 0
1, 1
0, 0
0, 0
0, 0
0, 1
1, 0
0, 0
0, 0
0, 1
0, 1
0, 0
0, 3
0, 1
0, 0
1, 0
1, 0
1, 0
1, 2
1, 0
0, 0
2, 0
2, 0
0, 0
0, 2
1, 0
1, 1
1, 0
0, 1
0, 0
0, 0
0, 0
0, 1
1, 0
1, 1
1, 0
3, 0
0, 0
0, 0
1, 0
1, 0
1, 1
1, 0
1, 0
2, 0
0, 2
0, 0
3, 0
1, 1
0, 0
0, 1
0, 1
0, 0
0, 1
0, 0
0, 0
0, 0
0, 2
0, 1
1, 1
1, 0
0, 0
1, 0
0, 0
1, 0
0, 0
1, 0
0, 0
0, 0
0, 0
0, 1
0, 0
1, 0
0, 0
0, 0
1, 2
0, 0
0, 0
0, 1
0, 0
0, 0
0, 0
0, 0
0, 0
1, 0
0, 0
0, 0
0, 0
1, 0
0, 0
1, 2
0, 1
0, 0
0, 1
0, 0
0, 0
0, 0
0, 0
0, 0
2, 0
0, 1
0, 0
0, 0
2, 0
0, 0
0, 1
0, 1
0, 0
0, 0
0, 1
1, 0
0, 0
0, 0
1, 0
0, 0
0, 0
0, 0
0, 0
0, 0
0, 0
0, 0
1, 0
0, 0
0, 0
2, 0
2, 0
0, 0
0, 1
0, 0
1, 0
0, 0
0, 1
1, 0
0, 0
0, 1
1, 0
1, 0
0, 0
1, 0
1, 0
1, 0
0, 0
1, 0
0, 0
0, 0
0, 0
0, 1
0, 1
0, 0
0, 0
0, 2
0, 0
0, 0
1, 0
1, 0
0, 0
1, 0
0, 0
0, 0
0, 0
1, 0
1, 0
1, 0
0, 0
0, 0
0, 0
0, 0
0, 0
1, 1
1, 0
1, 0
1, 0
0, 0
0, 0
0, 0
1, 0
0, 0
0, 0
0, 0
0, 1
0, 0
0, 0
0, 0
0, 0
1, 0
0, 0
0, 0
0, 1
0, 1
0, 1
0, 0
0, 0
0, 0
0, 0
0, 0
0, 0
0, 1
0, 0
0, 0
0, 0
0, 0
1, 0
0, 1
0, 0
0, 0
0, 1
0, 0
0, 1
0, 0
0, 0
0, 0
0, 0
0, 0
0, 0
0, 0
1, 0
0, 1
1, 0
0, 0
0, 0
0, 0
0, 0
0, 0
0, 0
0, 0
0, 0
0, 0
0, 0
0, 0
0, 1
0, 0
0, 0
1, 0
0, 1
0, 0
0, 1
0, 0
0, 0
0, 0
0, 0
0, 0
0, 0
0, 0
0, 0
2, 0
0, 0
0, 0
0, 0
0, 0
0, 0
0, 0
0, 0
0, 0
1, 0
0, 0
0, 0
0, 0
0, 1
0, 0
0, 0
0, 0
0, 0
0, 0
0, 0
0, 0
0, 0
0, 0
0, 0
0, 0
0, 0
0, 0
0, 0
0, 0
0, 0
0, 0
0, 0
0, 0
0, 0
0, 0
0, 0
0, 0
0, 0
0, 0
0, 0
0, 0
0, 0
0, 0
0, 0
0, 0
0, 0
0, 0
0, 0
0, 0
0, 0
0, 0
0, 0
0, 0
0, 0
0, 0
0, 0
0, 0
0, 0
0, 0
0, 0
0, 0
0, 0
0, 0
0, 0
0, 0
0, 0
0, 0
0, 0
0, 0
0, 0
0, 0
0, 0
0, 0
0, 0
0, 0
0, 0
0, 0
0, 0
0, 0
0, 0
0, 0
0, 0
0, 0
0, 0
0, 0
0, 0
0, 0
0, 0
0, 0
0, 0
0, 0
1, 0
0, 0
0, 0
0, 0
0, 0
0, 0
0, 0
0, 0
0, 0
0, 0
0, 0
0, 0
0, 0
0, 0
0, 0
0, 0
0, 0
0, 0
0, 0
0, 0
0, 0
0, 0
0, 0
0, 0
0, 0
0, 0
0, 0
0, 0
0, 0
0, 0
0, 0
0, 0
0, 0
0, 0
0, 0
0, 0
0, 0
0, 0
0, 0
0, 0
0, 0
0, 0
0, 0
0, 0
0, 0
0, 0
0, 0
0, 0
0, 0
0, 0
0, 0
0, 0
0, 0
0, 0
0, 0
0, 0
0, 0
0, 0
0, 0
0, 0
0, 0
0, 0
0, 0
0, 0
0, 0
0, 0
0, 0
0, 0
0, 0
0, 0
1, 0
0, 0
0, 0
0, 0
0, 0
0, 0
0, 0
0, 0
0, 0
0, 0
0, 0
0, 0
0, 0
0, 0
0, 0
0, 0
0, 0
0, 0
0, 0
0, 0
0, 0
0, 0
0, 0
0, 0
0, 0
0, 0
0, 0
0, 0
0, 0
0, 0
0, 0
0, 0
0, 0
0, 0
0, 0
0, 0
0, 0
0, 0
0, 0
0, 0
0, 0
0, 0
0, 0
0, 0
0, 0
0, 0
0, 0
0, 0
0, 0
0, 0
0, 0
0, 0
0, 0
0, 0
0, 0
0, 0
0, 0
0, 0
0, 0
0, 0
0, 0
0, 0
0, 0
0, 0
0, 0
0, 0
0, 0
0, 0
0, 0
0, 0
0, 0
0, 0
0, 0
0, 0
0, 0
0, 0
0, 0
0, 0
0, 0
0, 0
0, 0
0, 0
0, 0
0, 0
0, 0
0, 0
0, 0
0, 0
0, 0
0, 0
0, 0
0, 0
0, 0
0, 0
0, 0
0, 0
0, 0
0, 0
0, 0
0, 0
0, 0
0, 0
0, 0
0, 0
0, 0
0, 0
0, 0
0, 0
0, 0
0, 0
0, 0
0, 0
0, 0
0, 0
0, 0
0, 0
0, 0
0, 0
0, 0
0, 0
0, 0
0, 0
0, 0
0, 0
0, 0
0, 0
0, 0
0, 0
0, 0
0, 0
0, 0
0, 0
0, 0
0, 0
0, 0
0, 0
0, 0
0, 0
0, 0
0, 0
0, 0
0, 0
0, 0
0, 0
0, 0
0, 0
0, 0
0, 0
0, 0
0, 0
0, 0
0, 0
0, 0
0, 0
0, 0
0, 0
0, 0
0, 0
0, 0
0, 0
0, 0
0, 0
0, 0
0, 0
0, 0
0, 0
0, 0
0, 0
0, 0
0, 0
0, 0
0, 0
0, 0
0, 0
0, 0
0, 0
0, 0
0, 0
0, 0
0, 0
0, 0
0, 0
0, 0
0, 0
0, 0
0, 0
0, 0
0, 0
0, 0
0, 0
0, 0
0, 0
0, 0
0, 0
0, 0
0, 0
0, 0
0, 0
0, 0
0, 0
0, 0
0, 0
0, 0
0, 0
0, 0
0, 0
0, 0
0, 0
0, 0
0, 0
0, 0
0, 0
0, 0
0, 0
0, 0
0, 0
0, 0
0, 0
0, 0
0, 0
0, 0
0, 0
0, 0
0, 0
0, 0
0, 0
0, 0
0, 0
0, 0
0, 0
0, 0
0, 0
0, 0
0, 0
0, 0
0, 0
0, 0
0, 0
0, 0
0, 0
0, 0
0, 0
0, 0
0, 0
0, 0
0, 0
0, 0
0, 0
0, 0
0, 0
0, 0
0, 0
0, 0
0, 0
0, 0
0, 0
0, 0
0, 0
0, 0
0, 0
0, 0
0, 0
0, 0
0, 0
0, 0
0, 0
0, 0
0, 0
0, 0
0, 0
0, 0
0, 0
0, 0
0, 0
0, 0
0, 0
0, 0
0, 0
0, 0
0, 0
0, 0
0, 0
0, 0
0, 0
0, 0
0, 0
0, 0
0, 0
0, 0
0, 0
0, 0
0, 0
0, 0
0, 0
0, 0
0, 0
0, 0
0, 0
0, 0
0, 0
0, 0
0, 0
0, 0
0, 0
0, 0
0, 0
0, 0
0, 0
0, 0
0, 0
0, 0
0, 0
0, 0
0, 0
0, 0
#ENDOFDATA     end of spectrum data