File: host_upload/06-09-2024/ps_0852/dump3/ps__0852shot_2150.msa
#FORMAT      : EMSA/MAS spectral data file
#VERSION     : TC202v2.0 PIXL
#TITLE       : N/A
#DATE        :       Date in the format DD-MMM-YYYY, for example 07-JUL-2010
#TIME        :             The time of day at which the spectrum was recorded, in 24-hour format
#OWNER       : PIXL Flight Model       (PIXL will use this to indicate which instrument took the data.)
#NPOINTS     : 4096     Number of data points in the spectrum (This can be zero for configuration only files)
#NCOLUMNS    : 2     Number of data columns in the spectrum (This can be zero for configuration only files)
#XUNITS      : eV
#YUNITS      : COUNTS
#DATATYPE    : YY
#XPERCHAN    : 7.862, 7.881   eV per channel (separate by commas if more than one detector)
#OFFSET      : 18.5, -22.4         eV of first channel  (separate by commas if more than one detector
#SIGNALTYPE  : XRF
#YP_TEMP     : 2.203
#LIVETIME    : 8.54793, 8.55005   seconds (separate by commas if more than one detector)
#REALTIME    : 10, 10.0   seconds (separate by commas if more than one detector)
#SPECTRUM    : start of spectrum data
0, 0
0, 0
0, 0
0, 0
0, 0
0, 0
0, 0
0, 0
0, 0
0, 0
0, 0
0, 0
0, 0
0, 0
0, 0
0, 0
0, 0
0, 0
0, 0
0, 0
0, 0
0, 0
0, 0
0, 0
0, 0
0, 0
0, 0
0, 0
0, 0
0, 0
0, 0
0, 0
0, 0
0, 1
1, 1
0, 1
0, 0
0, 0
3, 1
0, 0
1, 1
0, 0
1, 1
1, 2
2, 1
1, 1
1, 2
6, 1
3, 2
13, 8
25, 12
35, 39
63, 42
64, 52
66, 66
81, 61
57, 43
44, 31
26, 19
18, 10
7, 4
4, 3
1, 4
6, 0
5, 3
5, 1
7, 4
6, 10
25, 17
54, 39
98, 84
195, 174
282, 244
403, 311
412, 363
446, 350
401, 302
300, 220
224, 165
137, 109
75, 59
48, 32
17, 18
11, 10
7, 5
8, 4
3, 3
2, 3
0, 4
3, 2
3, 2
2, 2
2, 1
2, 0
5, 4
4, 3
9, 11
11, 9
13, 13
13, 9
15, 10
12, 7
7, 3
7, 4
5, 1
8, 4
8, 10
7, 11
13, 18
17, 10
24, 22
37, 28
42, 34
54, 37
52, 46
58, 35
52, 46
50, 31
49, 41
38, 30
33, 33
24, 17
27, 20
28, 29
18, 18
21, 14
10, 15
12, 11
13, 12
7, 6
3, 1
8, 1
4, 2
3, 3
3, 0
2, 5
2, 1
3, 3
2, 3
0, 2
1, 1
2, 3
1, 2
1, 1
6, 2
2, 5
2, 4
2, 2
5, 4
4, 7
13, 10
16, 15
38, 24
44, 32
75, 53
90, 77
126, 84
137, 117
129, 92
118, 78
92, 48
70, 40
44, 27
33, 14
20, 7
11, 9
14, 4
9, 8
9, 5
13, 14
14, 20
18, 26
28, 22
13, 10
20, 7
30, 6
18, 9
15, 11
22, 8
27, 4
15, 6
23, 8
14, 3
15, 4
9, 6
6, 7
13, 7
9, 4
11, 5
14, 5
15, 3
10, 13
19, 9
19, 6
21, 14
21, 15
18, 6
21, 14
18, 14
27, 13
17, 9
18, 12
9, 11
10, 12
10, 13
6, 14
6, 12
7, 9
15, 8
7, 4
7, 10
8, 12
5, 7
7, 8
11, 6
9, 8
9, 8
5, 10
4, 14
7, 11
12, 11
6, 6
4, 6
13, 8
14, 7
14, 7
13, 19
15, 13
19, 18
18, 14
29, 16
30, 18
36, 12
35, 15
25, 9
27, 11
26, 10
28, 6
14, 14
22, 11
13, 9
11, 14
17, 9
19, 19
15, 20
16, 31
31, 33
35, 47
47, 40
63, 56
76, 55
72, 49
58, 53
57, 41
51, 35
43, 35
38, 18
27, 20
23, 18
14, 22
40, 21
36, 31
54, 49
97, 103
151, 159
271, 291
481, 460
728, 714
1075, 1032
1610, 1422
1951, 1726
2073, 1834
2320, 1935
2303, 1808
2032, 1547
1671, 1243
1357, 891
950, 625
615, 380
321, 222
231, 112
120, 53
46, 37
44, 28
28, 28
18, 13
18, 17
20, 14
13, 14
22, 19
18, 36
27, 31
44, 45
67, 75
104, 107
157, 132
189, 188
265, 244
283, 271
337, 295
354, 298
356, 272
298, 235
236, 158
188, 129
107, 105
86, 59
43, 46
26, 20
22, 14
7, 8
15, 18
7, 7
6, 2
8, 8
10, 12
6, 9
13, 13
6, 7
11, 6
15, 6
9, 8
17, 11
11, 5
4, 11
7, 6
7, 3
6, 5
7, 1
3, 4
3, 2
2, 3
8, 2
7, 2
5, 3
6, 4
5, 1
7, 2
5, 1
8, 6
5, 5
10, 7
5, 7
11, 2
7, 9
10, 7
5, 9
5, 10
6, 9
10, 5
5, 11
5, 15
6, 16
8, 8
7, 10
5, 6
7, 6
5, 4
14, 4
6, 6
4, 3
4, 6
1, 6
2, 2
10, 6
5, 1
6, 2
5, 2
1, 2
3, 5
5, 2
4, 1
5, 5
2, 3
2, 6
8, 1
4, 5
1, 2
9, 6
7, 1
6, 2
2, 5
10, 4
4, 4
3, 3
6, 7
12, 4
6, 2
5, 1
7, 7
6, 3
10, 5
8, 4
6, 8
3, 7
4, 4
5, 2
6, 1
6, 3
2, 6
4, 8
4, 3
0, 2
2, 4
9, 3
5, 2
4, 7
10, 3
2, 4
2, 4
3, 2
6, 4
2, 3
9, 5
4, 5
4, 3
5, 1
3, 3
3, 2
0, 1
2, 1
4, 3
2, 5
0, 2
8, 3
1, 4
3, 1
3, 0
5, 2
4, 4
4, 5
5, 2
3, 3
2, 3
1, 3
6, 5
3, 1
4, 2
4, 4
0, 2
3, 1
3, 4
2, 1
6, 3
1, 1
8, 4
7, 2
5, 2
0, 3
1, 3
1, 2
5, 3
6, 3
2, 1
2, 3
2, 4
5, 2
1, 3
2, 1
1, 2
4, 3
2, 2
1, 3
3, 2
1, 2
6, 1
4, 1
1, 2
0, 6
5, 2
3, 1
2, 3
2, 1
2, 3
4, 0
4, 2
5, 2
4, 1
3, 4
2, 2
6, 3
0, 2
2, 4
3, 1
4, 0
0, 3
2, 3
5, 3
1, 3
3, 4
4, 5
3, 1
4, 2
3, 5
2, 0
5, 1
0, 0
1, 3
3, 1
9, 0
3, 2
4, 1
2, 7
1, 1
2, 0
3, 2
4, 2
1, 3
2, 1
3, 1
4, 3
2, 2
2, 0
2, 2
4, 1
1, 2
2, 3
2, 1
1, 2
4, 2
5, 1
3, 4
3, 0
1, 2
2, 3
2, 3
1, 3
0, 3
3, 0
1, 0
4, 2
0, 5
4, 1
1, 2
1, 1
6, 2
1, 3
3, 3
0, 2
4, 5
5, 3
4, 5
5, 3
6, 4
2, 3
12, 1
6, 5
1, 1
4, 0
0, 0
0, 0
1, 2
0, 0
1, 1
0, 1
2, 0
0, 4
2, 0
1, 1
0, 0
2, 2
2, 0
4, 2
4, 3
0, 0
3, 1
3, 0
1, 0
2, 0
4, 2
3, 2
3, 1
3, 2
2, 0
0, 1
1, 1
3, 1
0, 2
3, 1
2, 1
1, 0
0, 0
1, 3
1, 1
1, 0
0, 0
1, 0
3, 1
5, 1
0, 2
1, 1
4, 1
0, 0
0, 1
0, 0
0, 0
3, 1
0, 0
1, 1
0, 1
2, 1
1, 2
3, 1
0, 2
1, 1
0, 0
0, 1
0, 2
0, 0
1, 1
0, 2
1, 1
0, 2
1, 0
0, 2
3, 1
2, 2
2, 0
1, 1
1, 1
0, 1
1, 0
1, 0
1, 1
4, 0
1, 0
0, 0
0, 0
2, 2
1, 0
0, 0
0, 0
0, 1
0, 0
2, 1
1, 3
1, 0
1, 1
2, 0
0, 1
2, 2
2, 1
2, 1
0, 0
2, 1
1, 0
2, 0
1, 0
1, 2
0, 0
1, 1
1, 0
0, 0
0, 0
1, 3
1, 0
0, 0
0, 0
0, 3
0, 1
2, 2
2, 2
2, 1
0, 0
0, 0
1, 0
1, 0
0, 0
0, 0
0, 0
0, 3
0, 1
0, 0
1, 0
2, 0
0, 1
1, 0
0, 0
0, 0
0, 0
0, 1
1, 1
0, 0
0, 1
1, 0
0, 0
1, 0
2, 0
1, 0
1, 0
1, 0
1, 0
0, 1
0, 1
0, 0
0, 2
0, 0
1, 1
0, 1
0, 0
0, 0
1, 0
1, 0
0, 0
0, 0
0, 2
0, 0
0, 1
0, 1
1, 0
0, 0
0, 0
1, 0
1, 0
1, 0
1, 0
0, 1
1, 0
0, 1
0, 0
0, 2
0, 0
0, 0
0, 0
0, 0
0, 0
0, 1
0, 1
0, 0
0, 0
1, 0
0, 2
0, 0
0, 1
0, 0
0, 2
0, 0
0, 1
0, 1
0, 0
0, 0
0, 0
1, 0
1, 2
0, 1
1, 0
0, 0
0, 1
0, 0
0, 0
1, 1
0, 1
0, 0
0, 0
0, 0
0, 1
0, 0
1, 1
1, 0
0, 0
0, 0
0, 0
0, 0
0, 0
1, 0
0, 0
0, 0
0, 0
0, 0
0, 0
0, 0
0, 0
0, 0
0, 0
0, 0
0, 0
0, 0
0, 0
1, 0
0, 0
0, 0
0, 1
0, 0
0, 0
0, 1
0, 0
2, 0
0, 0
0, 0
0, 0
0, 0
0, 0
1, 0
0, 0
0, 0
0, 0
0, 0
0, 0
0, 0
1, 1
1, 0
0, 1
0, 0
0, 1
0, 0
0, 0
1, 0
0, 0
0, 1
0, 2
0, 0
0, 1
0, 0
0, 0
0, 0
0, 0
0, 0
0, 0
0, 0
0, 0
0, 0
0, 1
0, 0
0, 0
0, 0
0, 0
0, 1
0, 0
0, 0
1, 0
0, 0
1, 0
0, 0
0, 0
0, 0
0, 0
0, 0
0, 0
0, 0
0, 0
0, 0
0, 0
1, 0
0, 0
0, 0
0, 0
0, 0
0, 1
0, 0
0, 0
0, 0
0, 0
0, 0
1, 0
0, 0
0, 0
0, 0
0, 0
0, 1
0, 0
0, 0
0, 0
0, 0
0, 0
1, 0
0, 0
0, 0
0, 0
0, 0
0, 0
0, 1
0, 0
0, 0
0, 0
0, 0
0, 0
0, 0
0, 1
0, 0
0, 0
0, 0
0, 0
0, 0
0, 0
0, 0
0, 0
0, 0
0, 0
0, 0
0, 0
0, 0
0, 0
0, 0
0, 0
0, 0
0, 0
0, 0
0, 0
0, 0
0, 0
0, 0
0, 0
0, 0
0, 0
0, 0
0, 0
0, 0
0, 0
0, 0
1, 0
0, 0
0, 0
0, 0
0, 0
1, 0
0, 0
0, 0
0, 0
0, 0
0, 0
0, 0
0, 0
0, 0
0, 0
0, 0
0, 0
0, 0
0, 0
1, 0
0, 0
0, 0
0, 0
0, 0
0, 0
0, 0
0, 0
0, 0
0, 0
0, 0
0, 0
0, 0
0, 0
0, 0
0, 0
0, 0
0, 0
0, 0
0, 0
0, 0
0, 0
0, 0
0, 0
0, 0
0, 0
0, 0
0, 0
0, 0
0, 0
0, 0
0, 0
0, 0
0, 0
1, 0
0, 0
0, 0
0, 0
0, 0
0, 0
0, 0
0, 0
0, 0
0, 0
0, 0
0, 0
0, 0
0, 0
0, 0
0, 0
0, 0
0, 0
0, 0
0, 0
0, 0
0, 0
0, 0
0, 0
0, 0
0, 0
0, 0
0, 0
0, 0
0, 0
0, 0
0, 0
0, 0
0, 0
0, 0
0, 0
0, 0
0, 0
0, 0
0, 0
0, 0
0, 0
0, 0
0, 0
0, 0
0, 0
0, 0
0, 0
0, 0
0, 0
0, 0
0, 0
0, 0
0, 0
0, 0
0, 0
0, 0
0, 0
0, 0
0, 0
0, 0
0, 0
0, 0
0, 0
0, 0
0, 0
0, 0
0, 0
0, 0
0, 0
0, 0
0, 0
0, 0
0, 0
0, 0
0, 0
0, 0
0, 0
0, 0
0, 0
0, 0
0, 0
0, 0
0, 0
0, 0
0, 0
0, 0
0, 0
0, 0
0, 0
0, 0
0, 0
0, 0
0, 0
0, 0
0, 0
0, 0
0, 0
0, 0
0, 0
0, 0
0, 0
0, 0
0, 0
0, 0
0, 0
0, 0
0, 0
0, 0
0, 0
0, 0
0, 0
0, 0
0, 0
0, 0
0, 0
0, 0
0, 0
0, 0
0, 0
0, 0
0, 0
0, 0
0, 0
0, 0
0, 0
0, 0
0, 0
0, 0
0, 0
0, 0
0, 0
0, 0
0, 0
0, 0
0, 0
0, 0
0, 0
0, 0
0, 0
0, 0
0, 0
0, 0
0, 0
0, 0
0, 0
0, 0
0, 0
0, 0
0, 0
0, 0
0, 0
0, 0
0, 0
0, 0
0, 0
0, 0
0, 0
0, 0
0, 0
0, 0
0, 0
0, 0
0, 0
0, 0
0, 0
0, 0
0, 0
0, 0
0, 0
0, 0
0, 0
0, 0
0, 0
0, 0
0, 0
0, 0
0, 0
0, 0
0, 0
0, 0
0, 0
0, 0
0, 0
0, 0
0, 0
0, 0
0, 0
0, 0
0, 0
0, 0
0, 0
0, 0
0, 0
0, 0
0, 0
0, 0
0, 0
0, 0
0, 0
0, 0
0, 0
0, 0
0, 0
0, 0
0, 0
0, 0
0, 0
0, 0
0, 0
0, 0
0, 0
0, 0
0, 0
0, 0
0, 0
0, 0
0, 0
0, 0
0, 0
0, 0
0, 0
0, 0
0, 0
0, 0
0, 0
0, 0
0, 0
0, 0
0, 0
0, 0
0, 0
0, 0
0, 0
0, 0
0, 0
0, 0
0, 0
0, 0
0, 0
0, 0
0, 0
0, 0
0, 0
0, 0
0, 0
0, 0
0, 0
0, 0
0, 0
0, 0
0, 0
0, 0
0, 0
0, 0
0, 0
0, 0
0, 0
0, 0
0, 0
0, 0
0, 0
0, 0
0, 0
0, 0
0, 0
0, 0
0, 0
0, 0
0, 0
0, 0
0, 0
0, 0
0, 0
0, 0
0, 0
0, 0
0, 0
0, 0
0, 0
0, 0
0, 0
0, 0
0, 0
0, 0
0, 0
0, 0
0, 0
0, 0
0, 0
0, 0
0, 0
0, 0
0, 0
0, 0
0, 0
0, 0
0, 0
0, 0
0, 0
0, 0
0, 0
0, 0
0, 0
0, 0
0, 0
0, 0
0, 0
0, 0
0, 0
0, 0
0, 0
0, 0
0, 0
0, 0
0, 0
0, 0
0, 0
0, 0
0, 0
0, 0
0, 0
0, 0
0, 0
0, 0
0, 0
0, 0
0, 0
0, 0
0, 0
0, 0
0, 0
0, 0
0, 0
0, 0
0, 0
0, 0
0, 0
0, 0
0, 0
0, 0
0, 0
0, 0
0, 0
0, 0
0, 0
0, 0
0, 0
0, 0
0, 0
0, 0
0, 0
0, 0
0, 0
0, 0
0, 0
0, 0
0, 0
0, 0
0, 0
0, 0
0, 0
0, 0
0, 0
0, 0
0, 0
0, 0
0, 0
0, 0
0, 0
0, 0
0, 0
0, 0
0, 0
0, 0
0, 0
0, 0
0, 0
0, 0
0, 0
0, 0
0, 0
0, 0
0, 0
0, 0
0, 0
0, 0
0, 0
0, 0
0, 0
0, 0
0, 0
0, 0
0, 0
0, 0
0, 0
0, 0
0, 0
0, 0
0, 0
0, 0
0, 0
0, 0
0, 0
#ENDOFDATA     end of spectrum data