File: host_upload/06-09-2024/ps_0852/dump3/ps__0852shot_2111.msa
#FORMAT      : EMSA/MAS spectral data file
#VERSION     : TC202v2.0 PIXL
#TITLE       : N/A
#DATE        :       Date in the format DD-MMM-YYYY, for example 07-JUL-2010
#TIME        :             The time of day at which the spectrum was recorded, in 24-hour format
#OWNER       : PIXL Flight Model       (PIXL will use this to indicate which instrument took the data.)
#NPOINTS     : 4096     Number of data points in the spectrum (This can be zero for configuration only files)
#NCOLUMNS    : 2     Number of data columns in the spectrum (This can be zero for configuration only files)
#XUNITS      : eV
#YUNITS      : COUNTS
#DATATYPE    : YY
#XPERCHAN    : 7.862, 7.881   eV per channel (separate by commas if more than one detector)
#OFFSET      : 18.5, -22.4         eV of first channel  (separate by commas if more than one detector
#SIGNALTYPE  : XRF
#YP_TEMP     : 2.396
#LIVETIME    : 8.54131, 8.533   seconds (separate by commas if more than one detector)
#REALTIME    : 10, 10.0   seconds (separate by commas if more than one detector)
#SPECTRUM    : start of spectrum data
0, 0
0, 0
0, 0
0, 0
0, 0
0, 0
0, 0
0, 0
0, 0
0, 0
0, 0
0, 0
0, 0
0, 0
0, 0
0, 0
0, 0
0, 0
0, 0
0, 0
0, 0
0, 0
0, 0
0, 0
0, 0
0, 0
0, 0
0, 0
0, 0
0, 0
0, 0
0, 0
1, 1
0, 0
1, 1
0, 1
1, 1
1, 0
3, 1
1, 5
3, 0
1, 2
1, 2
1, 2
3, 2
0, 1
2, 1
4, 1
4, 5
6, 8
16, 16
31, 32
42, 45
45, 65
59, 60
50, 60
48, 43
28, 36
21, 22
16, 17
5, 6
7, 6
3, 8
8, 4
9, 7
14, 5
9, 9
7, 14
19, 24
35, 37
56, 89
113, 160
181, 265
232, 293
250, 351
259, 363
222, 290
173, 246
156, 163
88, 92
41, 52
33, 30
19, 13
6, 10
5, 2
5, 4
6, 5
0, 1
2, 5
4, 3
1, 7
9, 13
15, 22
49, 47
78, 79
121, 149
166, 194
227, 301
265, 296
309, 317
269, 270
195, 243
148, 185
100, 119
88, 65
49, 50
67, 42
67, 40
77, 36
94, 55
104, 63
111, 68
104, 91
97, 88
91, 80
78, 90
68, 77
66, 78
49, 47
36, 47
37, 42
29, 30
28, 33
32, 31
27, 30
22, 17
13, 18
21, 17
14, 17
13, 11
13, 4
6, 7
5, 2
3, 4
2, 7
3, 3
6, 4
5, 7
3, 4
3, 4
2, 9
3, 2
6, 6
3, 10
4, 4
0, 3
2, 3
2, 3
3, 4
2, 4
4, 7
5, 12
11, 16
16, 19
29, 25
30, 52
40, 62
45, 54
35, 38
29, 56
22, 31
17, 30
11, 15
3, 7
8, 9
6, 4
2, 8
4, 2
8, 7
10, 6
9, 10
12, 13
4, 19
5, 21
8, 18
5, 11
8, 26
7, 29
5, 26
4, 25
1, 18
2, 20
4, 14
8, 4
4, 3
6, 5
4, 7
4, 7
14, 7
10, 5
14, 11
12, 7
8, 14
9, 17
10, 10
18, 14
9, 13
18, 21
8, 19
17, 17
9, 14
12, 14
15, 10
4, 5
12, 10
5, 8
6, 15
7, 11
5, 12
14, 16
6, 20
2, 21
7, 17
8, 11
2, 12
5, 7
6, 7
8, 11
8, 8
5, 6
4, 11
6, 8
10, 10
8, 8
6, 10
6, 9
9, 16
16, 10
11, 13
17, 17
26, 18
18, 17
24, 29
19, 19
15, 20
19, 15
28, 15
14, 12
14, 9
14, 14
15, 15
14, 13
10, 20
17, 18
12, 22
19, 26
25, 46
21, 55
58, 81
55, 70
49, 70
46, 94
46, 66
55, 64
38, 54
37, 32
36, 29
21, 24
12, 23
16, 22
14, 29
28, 30
29, 62
61, 115
136, 194
226, 381
374, 642
680, 947
1025, 1387
1291, 1853
1743, 2231
1881, 2446
2037, 2553
2006, 2376
1799, 2061
1446, 1637
1110, 1117
789, 787
553, 500
284, 315
177, 157
94, 90
59, 47
34, 33
25, 26
20, 15
10, 16
19, 22
22, 17
16, 25
34, 25
24, 34
40, 56
56, 76
81, 124
141, 185
166, 266
230, 282
251, 321
277, 395
303, 316
311, 334
286, 284
203, 213
151, 150
125, 114
75, 54
42, 35
26, 20
15, 12
12, 11
13, 6
12, 11
6, 9
8, 18
10, 10
16, 12
14, 11
15, 13
19, 18
18, 11
15, 11
24, 9
18, 5
13, 4
16, 4
16, 3
10, 6
7, 4
9, 4
8, 2
2, 6
4, 3
3, 6
2, 7
8, 5
5, 6
5, 5
6, 3
3, 3
3, 3
4, 6
7, 8
1, 6
6, 8
9, 11
8, 10
3, 11
6, 16
3, 17
3, 13
9, 21
5, 17
10, 20
10, 14
4, 24
4, 19
3, 13
4, 14
3, 13
2, 12
5, 8
6, 5
1, 7
3, 2
3, 8
6, 7
1, 3
7, 2
9, 5
6, 5
4, 8
2, 4
5, 5
2, 4
5, 3
5, 3
6, 2
5, 2
2, 5
6, 6
1, 3
6, 6
4, 3
8, 6
0, 4
4, 6
3, 3
3, 0
6, 5
2, 5
4, 5
2, 3
5, 6
5, 8
6, 4
8, 2
7, 8
2, 5
2, 14
4, 8
8, 6
6, 3
7, 5
3, 8
5, 8
2, 4
2, 5
3, 4
1, 7
2, 2
3, 2
2, 7
5, 10
6, 7
1, 11
2, 4
2, 6
1, 4
1, 4
4, 6
4, 3
6, 1
4, 5
4, 6
4, 5
4, 5
2, 6
4, 4
3, 8
6, 1
5, 3
4, 2
5, 4
5, 3
8, 1
13, 4
3, 4
9, 4
4, 6
3, 4
3, 4
3, 8
3, 2
1, 4
5, 4
3, 7
0, 5
3, 4
3, 2
1, 2
3, 4
4, 4
2, 5
0, 1
1, 4
5, 3
1, 4
4, 4
2, 6
1, 2
3, 1
4, 2
2, 6
4, 5
1, 3
5, 4
4, 2
3, 4
3, 0
2, 1
1, 3
5, 1
2, 3
2, 3
3, 2
4, 6
1, 3
3, 2
1, 3
3, 3
3, 0
1, 1
2, 2
4, 1
3, 3
2, 2
3, 1
2, 3
2, 3
0, 3
0, 3
1, 1
3, 3
2, 4
0, 4
2, 1
1, 5
3, 2
1, 1
1, 5
4, 3
2, 3
3, 1
1, 3
1, 2
4, 5
3, 2
1, 6
2, 2
0, 1
3, 3
6, 1
2, 4
0, 4
1, 2
0, 2
0, 2
3, 1
2, 1
1, 5
2, 3
1, 1
1, 3
4, 3
2, 5
3, 4
3, 3
0, 1
1, 2
1, 2
1, 3
2, 0
0, 4
4, 1
3, 1
3, 4
3, 3
3, 5
6, 8
4, 6
2, 7
3, 4
5, 5
5, 3
7, 2
7, 4
3, 4
2, 4
1, 1
4, 9
3, 2
3, 0
0, 2
1, 2
1, 2
2, 1
2, 1
1, 7
0, 4
0, 2
0, 2
1, 1
1, 2
0, 3
3, 2
0, 2
0, 3
3, 2
0, 0
2, 2
1, 3
0, 1
3, 2
1, 1
1, 1
3, 0
3, 1
3, 0
1, 1
2, 2
2, 1
1, 1
0, 1
0, 1
3, 1
2, 1
1, 3
0, 3
1, 2
0, 0
1, 1
1, 0
1, 1
1, 2
1, 1
1, 1
1, 0
1, 1
0, 1
1, 1
1, 3
0, 1
1, 0
1, 2
1, 1
0, 0
1, 1
2, 0
3, 0
0, 0
0, 1
1, 1
0, 0
3, 0
1, 1
1, 1
0, 1
1, 0
2, 0
1, 0
0, 1
2, 0
2, 0
0, 0
1, 2
0, 2
2, 1
2, 2
0, 0
1, 0
1, 2
0, 0
1, 0
0, 2
1, 2
0, 0
0, 0
2, 0
1, 1
0, 0
0, 1
0, 0
0, 0
1, 1
1, 0
4, 0
0, 0
0, 1
0, 1
0, 0
0, 2
1, 2
0, 0
1, 0
0, 1
0, 1
0, 1
1, 0
3, 0
0, 1
0, 3
2, 1
1, 1
0, 0
1, 1
0, 1
0, 0
1, 0
0, 0
0, 1
0, 0
0, 1
0, 1
2, 0
0, 3
0, 1
0, 0
0, 0
0, 0
2, 0
0, 1
0, 1
1, 3
0, 1
0, 1
1, 1
0, 1
0, 1
2, 0
0, 1
1, 0
0, 0
0, 1
0, 1
0, 0
0, 1
0, 2
1, 1
1, 0
0, 0
1, 3
2, 0
0, 2
0, 0
0, 0
1, 1
1, 0
1, 0
0, 1
1, 0
0, 0
1, 1
0, 1
2, 0
0, 0
0, 0
0, 1
0, 0
0, 0
0, 0
0, 0
1, 0
0, 1
0, 2
0, 0
1, 0
0, 0
0, 2
1, 0
0, 1
1, 0
0, 0
0, 0
0, 0
0, 0
0, 0
1, 0
0, 0
0, 0
0, 0
0, 0
0, 0
0, 0
1, 0
0, 0
0, 0
0, 0
0, 0
2, 0
0, 0
1, 1
0, 1
0, 0
0, 0
0, 0
2, 0
0, 0
0, 0
1, 0
0, 0
0, 0
0, 1
0, 0
0, 1
0, 0
0, 1
0, 0
0, 2
0, 2
0, 0
0, 1
0, 2
0, 0
0, 0
0, 0
0, 0
0, 0
0, 0
0, 0
0, 0
1, 1
0, 0
0, 0
1, 0
0, 0
0, 0
0, 0
0, 0
1, 0
0, 0
2, 2
1, 1
0, 0
0, 0
0, 0
0, 0
0, 1
0, 0
0, 0
0, 0
2, 0
0, 0
0, 0
2, 0
0, 0
0, 0
2, 0
0, 0
0, 0
0, 1
0, 1
0, 1
0, 0
0, 0
0, 0
0, 0
0, 0
0, 0
0, 0
0, 0
0, 0
0, 0
1, 0
0, 0
0, 0
0, 0
0, 0
0, 0
0, 0
0, 0
0, 0
0, 0
1, 0
0, 0
0, 0
0, 0
1, 0
0, 0
0, 1
0, 0
0, 0
0, 0
0, 0
0, 1
0, 0
0, 0
0, 0
0, 0
0, 1
0, 0
0, 1
0, 0
0, 1
1, 0
0, 0
0, 0
0, 0
1, 1
0, 0
0, 0
1, 0
0, 0
1, 0
0, 0
0, 0
0, 0
0, 0
0, 0
0, 0
0, 1
0, 0
0, 1
0, 0
1, 0
0, 0
0, 0
0, 0
0, 0
0, 0
0, 0
0, 0
0, 0
1, 0
0, 0
0, 0
0, 0
0, 0
0, 0
0, 0
0, 0
0, 0
0, 0
0, 0
0, 0
0, 0
0, 0
0, 0
1, 0
1, 0
0, 0
0, 0
0, 0
0, 0
0, 0
0, 0
0, 0
0, 0
1, 0
0, 0
0, 0
0, 0
0, 0
0, 0
0, 0
0, 0
0, 0
0, 0
0, 0
0, 0
0, 0
1, 0
0, 0
0, 0
0, 0
0, 1
0, 0
0, 0
0, 1
0, 0
0, 0
0, 0
0, 0
0, 0
0, 0
0, 0
0, 0
0, 0
0, 0
1, 0
0, 0
0, 0
0, 0
0, 0
0, 0
0, 0
0, 0
0, 0
0, 0
0, 0
0, 0
0, 0
1, 0
0, 0
0, 0
0, 0
0, 0
0, 0
0, 0
0, 0
0, 0
0, 0
0, 1
0, 1
0, 0
0, 0
0, 0
0, 0
0, 0
0, 0
0, 0
0, 0
0, 0
0, 0
0, 0
0, 0
0, 0
0, 0
0, 0
0, 0
0, 0
0, 0
0, 0
0, 0
0, 0
0, 0
0, 0
0, 0
0, 0
0, 0
0, 0
0, 0
0, 0
0, 0
0, 0
0, 0
0, 0
0, 0
0, 0
0, 0
0, 0
0, 0
0, 0
0, 0
0, 0
0, 0
0, 0
0, 0
0, 0
0, 0
0, 0
0, 0
0, 0
0, 0
0, 0
0, 0
0, 0
0, 0
0, 0
0, 0
0, 0
0, 0
0, 0
0, 0
0, 0
0, 0
0, 0
0, 0
0, 0
0, 0
0, 0
0, 0
0, 0
0, 0
0, 0
0, 0
0, 0
0, 0
0, 0
0, 0
0, 0
0, 0
0, 0
0, 0
0, 0
0, 0
0, 0
0, 0
0, 0
0, 0
0, 0
0, 0
0, 0
0, 0
0, 0
0, 0
0, 0
0, 0
0, 0
0, 0
0, 0
0, 0
0, 0
0, 0
0, 0
0, 0
0, 0
0, 0
0, 0
0, 0
0, 0
0, 0
0, 0
0, 0
0, 0
0, 0
0, 0
0, 0
0, 0
0, 0
0, 0
0, 0
0, 0
0, 0
0, 0
0, 0
0, 0
0, 0
0, 0
0, 0
0, 0
0, 0
0, 0
0, 0
0, 0
0, 0
0, 0
0, 0
0, 0
0, 0
0, 0
0, 0
0, 0
0, 0
0, 0
0, 0
0, 0
0, 0
0, 0
0, 0
0, 0
0, 0
0, 0
0, 0
0, 0
0, 0
0, 0
0, 0
0, 0
0, 0
0, 0
0, 0
0, 0
0, 0
0, 0
0, 0
0, 0
0, 0
0, 0
0, 0
0, 0
0, 0
0, 0
0, 0
0, 0
0, 0
0, 0
0, 0
0, 0
0, 0
0, 0
0, 0
0, 0
0, 0
0, 0
0, 0
0, 0
0, 0
0, 0
0, 0
0, 0
0, 0
0, 0
0, 0
0, 0
0, 0
0, 0
0, 0
0, 0
0, 0
0, 0
0, 0
0, 0
0, 0
0, 0
0, 0
0, 0
0, 0
0, 0
0, 0
0, 0
0, 0
0, 0
0, 0
0, 0
0, 0
0, 0
0, 0
0, 0
0, 0
0, 0
0, 0
0, 0
0, 0
0, 0
0, 0
0, 0
0, 0
0, 0
0, 0
0, 0
0, 0
0, 0
0, 0
0, 0
0, 0
0, 0
0, 0
0, 0
0, 0
0, 0
0, 0
0, 0
0, 0
0, 0
0, 0
0, 0
0, 0
0, 0
0, 0
0, 0
0, 0
0, 0
0, 0
0, 0
0, 0
0, 0
0, 0
0, 0
0, 0
0, 0
0, 0
0, 0
0, 0
0, 0
0, 0
0, 0
0, 0
0, 0
0, 0
0, 0
0, 0
0, 0
0, 0
0, 0
0, 0
0, 0
0, 0
0, 0
0, 0
0, 0
0, 0
0, 0
0, 0
0, 0
0, 0
0, 0
0, 0
0, 0
0, 0
0, 0
0, 0
0, 0
0, 0
0, 0
0, 0
0, 0
0, 0
0, 0
0, 0
0, 0
0, 0
0, 0
0, 0
0, 0
0, 0
0, 0
0, 0
0, 0
0, 0
0, 0
0, 0
0, 0
0, 0
0, 0
0, 0
0, 0
0, 0
0, 0
0, 0
0, 0
0, 0
0, 0
0, 0
0, 0
0, 0
0, 0
0, 0
0, 0
0, 0
0, 0
0, 0
0, 0
0, 0
0, 0
0, 0
0, 0
0, 0
0, 0
0, 0
0, 0
0, 0
0, 0
0, 0
0, 0
0, 0
0, 0
0, 0
0, 0
0, 0
0, 0
0, 0
0, 0
0, 0
0, 0
0, 0
0, 0
0, 0
0, 0
0, 0
0, 0
0, 0
0, 0
0, 0
0, 0
0, 0
0, 0
0, 0
0, 0
0, 0
0, 0
0, 0
0, 0
0, 0
0, 0
0, 0
0, 0
0, 0
0, 0
0, 0
0, 0
0, 0
0, 0
0, 0
0, 0
0, 0
0, 0
0, 0
0, 0
0, 0
0, 0
0, 0
0, 0
0, 0
0, 0
0, 0
0, 0
0, 0
0, 0
0, 0
0, 0
0, 0
0, 0
0, 0
0, 0
0, 0
#ENDOFDATA     end of spectrum data