File: host_upload/06-09-2024/ps_0852/dump3/ps__0852shot_2061.msa
#FORMAT      : EMSA/MAS spectral data file
#VERSION     : TC202v2.0 PIXL
#TITLE       : N/A
#DATE        :       Date in the format DD-MMM-YYYY, for example 07-JUL-2010
#TIME        :             The time of day at which the spectrum was recorded, in 24-hour format
#OWNER       : PIXL Flight Model       (PIXL will use this to indicate which instrument took the data.)
#NPOINTS     : 4096     Number of data points in the spectrum (This can be zero for configuration only files)
#NCOLUMNS    : 2     Number of data columns in the spectrum (This can be zero for configuration only files)
#XUNITS      : eV
#YUNITS      : COUNTS
#DATATYPE    : YY
#XPERCHAN    : 7.862, 7.881   eV per channel (separate by commas if more than one detector)
#OFFSET      : 18.5, -22.4         eV of first channel  (separate by commas if more than one detector
#SIGNALTYPE  : XRF
#YP_TEMP     : 2.524
#LIVETIME    : 8.5559, 8.52335   seconds (separate by commas if more than one detector)
#REALTIME    : 10, 10.0   seconds (separate by commas if more than one detector)
#SPECTRUM    : start of spectrum data
0, 0
0, 0
0, 0
0, 0
0, 0
0, 0
0, 0
0, 0
0, 0
0, 0
0, 0
0, 0
0, 0
0, 0
0, 0
0, 0
0, 0
0, 0
0, 0
0, 0
0, 0
0, 0
0, 0
0, 0
0, 0
0, 0
0, 0
0, 0
0, 0
0, 0
0, 0
0, 0
0, 2
0, 1
0, 0
1, 0
0, 2
0, 0
1, 0
2, 1
1, 1
0, 0
2, 1
1, 0
0, 0
0, 1
3, 4
0, 1
6, 6
11, 13
27, 13
36, 39
74, 65
86, 80
82, 79
83, 68
82, 61
43, 51
35, 21
21, 12
2, 11
1, 2
4, 2
2, 2
2, 7
4, 2
5, 2
16, 6
15, 21
37, 46
105, 92
206, 161
289, 273
367, 357
446, 458
480, 412
360, 376
302, 299
195, 190
146, 118
72, 86
42, 39
19, 18
11, 16
4, 4
4, 4
0, 2
1, 2
0, 0
0, 2
1, 0
1, 1
0, 0
2, 1
1, 2
0, 1
1, 5
2, 3
4, 4
5, 4
2, 2
3, 2
6, 1
9, 0
5, 3
4, 3
4, 2
5, 5
6, 8
9, 10
13, 6
20, 15
15, 28
19, 22
25, 28
24, 27
28, 38
31, 17
24, 23
25, 17
16, 10
19, 12
25, 18
22, 11
10, 5
18, 15
15, 14
12, 12
14, 7
3, 6
2, 4
2, 3
2, 2
4, 1
0, 3
2, 1
3, 3
1, 1
1, 2
3, 4
1, 0
0, 0
3, 1
3, 0
0, 1
2, 2
4, 0
2, 4
0, 4
4, 3
4, 6
4, 7
6, 12
9, 12
13, 19
17, 17
15, 22
10, 21
12, 14
12, 17
18, 12
6, 9
6, 6
6, 2
4, 2
4, 2
2, 1
8, 2
3, 1
6, 4
6, 5
3, 2
4, 4
2, 4
3, 4
4, 2
5, 4
2, 3
6, 4
13, 1
5, 1
23, 4
21, 2
28, 1
30, 2
18, 2
25, 2
27, 7
17, 2
24, 2
17, 14
13, 5
16, 6
21, 11
20, 9
12, 12
12, 17
11, 12
15, 13
15, 13
9, 22
6, 14
17, 3
10, 6
5, 7
8, 4
3, 2
1, 3
5, 4
4, 6
9, 5
3, 6
7, 7
9, 6
11, 13
9, 8
8, 10
9, 14
8, 16
7, 13
7, 8
7, 8
3, 5
5, 11
11, 11
11, 21
9, 23
14, 12
13, 14
16, 21
13, 21
19, 20
13, 21
14, 37
13, 13
12, 18
12, 11
9, 14
12, 6
28, 5
18, 14
25, 5
38, 6
56, 6
47, 16
64, 23
80, 34
78, 43
96, 53
107, 42
101, 67
84, 57
67, 54
64, 49
56, 36
41, 25
22, 20
15, 12
28, 15
30, 21
26, 29
29, 25
45, 51
106, 101
132, 182
290, 331
505, 593
762, 951
1146, 1368
1624, 1628
1890, 2055
2219, 2269
2426, 2343
2333, 2236
2159, 1896
1760, 1499
1318, 1130
943, 754
610, 418
390, 301
199, 155
114, 81
46, 43
36, 29
22, 25
11, 19
15, 14
16, 16
17, 8
24, 21
18, 29
29, 36
54, 59
66, 97
99, 114
157, 161
205, 212
280, 288
327, 315
336, 339
340, 337
354, 329
298, 292
236, 230
204, 140
155, 113
96, 65
51, 43
28, 26
27, 13
14, 12
12, 8
9, 8
15, 9
13, 9
16, 7
10, 13
13, 12
11, 16
14, 15
19, 12
6, 8
10, 4
5, 4
3, 5
3, 2
3, 2
4, 3
3, 4
1, 1
3, 5
4, 4
0, 2
5, 7
3, 2
5, 1
4, 2
3, 1
0, 1
4, 3
6, 9
3, 3
3, 5
5, 4
1, 2
5, 6
4, 3
3, 5
7, 7
5, 2
5, 4
5, 6
7, 5
5, 1
7, 6
2, 2
10, 4
4, 4
4, 5
5, 4
4, 8
11, 5
7, 5
6, 6
10, 9
11, 5
14, 6
11, 5
9, 7
8, 10
8, 4
12, 3
6, 7
5, 8
7, 3
2, 8
1, 9
5, 5
6, 10
3, 10
5, 6
4, 6
4, 4
4, 3
5, 5
4, 4
3, 4
2, 6
1, 1
1, 4
4, 2
0, 4
5, 3
1, 0
5, 0
2, 4
1, 3
3, 1
1, 1
1, 3
5, 2
1, 3
1, 1
4, 5
6, 2
1, 3
3, 2
3, 0
1, 3
4, 3
2, 2
3, 2
2, 0
3, 4
5, 3
4, 2
5, 0
7, 2
4, 4
2, 4
1, 3
4, 4
3, 2
3, 1
3, 3
4, 3
5, 3
11, 3
5, 4
8, 13
8, 8
5, 13
9, 15
8, 16
11, 16
7, 18
3, 18
3, 20
2, 15
4, 15
6, 8
6, 10
3, 9
4, 7
3, 8
2, 1
2, 7
0, 2
1, 3
5, 2
2, 2
3, 4
4, 5
3, 2
0, 2
2, 3
0, 4
1, 2
3, 2
2, 3
1, 1
1, 3
4, 1
3, 1
3, 2
1, 1
0, 2
1, 2
1, 0
2, 3
0, 5
1, 1
1, 3
1, 2
2, 3
2, 4
3, 2
5, 6
2, 3
4, 1
1, 0
2, 1
1, 4
1, 1
4, 2
5, 1
4, 2
2, 0
4, 4
1, 1
4, 0
6, 3
1, 0
5, 0
1, 2
4, 2
6, 3
7, 2
4, 2
6, 4
2, 1
3, 2
0, 2
5, 4
0, 2
2, 4
0, 3
4, 3
0, 3
1, 2
3, 3
0, 1
2, 1
3, 2
5, 3
0, 1
4, 4
2, 0
2, 2
4, 2
5, 3
2, 4
3, 3
1, 4
2, 8
2, 2
3, 9
2, 8
4, 6
3, 0
1, 2
3, 2
0, 3
1, 3
1, 2
2, 4
1, 2
4, 6
2, 2
1, 7
1, 3
3, 2
4, 6
1, 2
3, 4
2, 2
3, 3
7, 1
1, 2
6, 3
4, 3
3, 1
3, 1
2, 2
4, 2
3, 2
1, 1
3, 1
5, 3
1, 1
1, 3
0, 1
3, 2
0, 3
0, 0
0, 2
3, 1
1, 2
0, 3
1, 3
0, 3
0, 0
2, 2
3, 0
1, 3
2, 4
0, 1
1, 1
0, 1
0, 0
1, 2
1, 1
0, 1
1, 0
1, 0
1, 2
1, 2
0, 1
0, 1
1, 2
0, 1
0, 0
1, 0
2, 2
1, 4
2, 0
0, 1
1, 0
2, 1
1, 1
2, 0
3, 3
2, 0
1, 2
2, 1
3, 0
2, 0
0, 0
1, 1
0, 1
1, 1
1, 1
0, 0
0, 1
3, 0
2, 0
0, 1
1, 1
1, 0
1, 2
0, 1
2, 0
1, 0
3, 1
1, 0
0, 2
0, 3
2, 1
0, 2
0, 0
3, 0
0, 0
2, 2
2, 0
0, 2
0, 0
0, 1
0, 1
0, 0
1, 1
0, 1
0, 1
0, 0
0, 0
0, 3
0, 1
1, 1
1, 0
0, 0
0, 2
2, 0
3, 0
1, 0
0, 2
1, 0
0, 0
0, 1
0, 1
0, 2
0, 0
0, 1
0, 0
1, 1
0, 0
0, 0
2, 0
0, 1
2, 0
1, 0
2, 1
0, 0
0, 0
1, 0
1, 1
0, 1
3, 0
1, 1
0, 0
0, 0
1, 0
0, 1
0, 0
0, 0
0, 0
0, 0
0, 0
0, 0
0, 0
0, 0
0, 1
1, 0
0, 0
0, 1
1, 0
1, 1
0, 0
0, 1
1, 0
2, 0
0, 0
0, 1
2, 2
0, 1
0, 0
1, 0
0, 2
0, 0
2, 0
0, 1
0, 0
0, 0
1, 1
0, 0
1, 1
0, 0
0, 0
1, 1
1, 0
0, 1
0, 0
0, 0
0, 1
0, 0
1, 1
1, 0
0, 0
1, 0
2, 0
1, 1
0, 0
1, 0
2, 2
0, 1
1, 0
0, 0
2, 0
0, 1
2, 0
0, 0
0, 0
1, 1
0, 0
0, 0
0, 1
0, 0
0, 1
0, 0
2, 0
2, 0
0, 0
0, 0
0, 1
0, 0
0, 0
0, 0
0, 0
1, 1
1, 0
0, 0
0, 0
0, 0
1, 1
0, 0
0, 0
1, 0
0, 1
0, 0
0, 0
0, 0
0, 1
0, 0
0, 0
0, 0
0, 0
1, 0
0, 0
0, 1
0, 0
0, 0
0, 0
2, 0
0, 0
0, 0
0, 0
0, 0
0, 1
0, 0
0, 0
1, 0
0, 0
1, 0
1, 0
0, 0
0, 0
0, 0
1, 0
1, 0
1, 0
0, 0
0, 0
0, 0
0, 0
1, 0
0, 0
0, 0
1, 0
0, 0
0, 0
0, 0
1, 0
0, 1
0, 0
0, 1
0, 0
0, 0
1, 0
0, 0
2, 0
1, 0
0, 0
1, 0
0, 0
0, 0
0, 0
1, 1
0, 0
0, 0
0, 0
0, 0
0, 0
0, 0
0, 0
1, 0
0, 0
0, 0
0, 0
0, 0
0, 0
1, 0
0, 0
0, 0
0, 0
0, 0
0, 0
0, 0
0, 0
0, 0
1, 0
0, 0
0, 0
0, 0
0, 1
0, 0
1, 0
0, 0
0, 0
0, 0
0, 0
0, 1
0, 0
0, 1
0, 0
0, 0
0, 0
0, 0
0, 0
0, 1
1, 0
0, 0
0, 0
0, 0
0, 0
0, 0
0, 0
0, 0
1, 0
1, 0
1, 1
0, 0
0, 0
0, 0
0, 0
0, 0
0, 0
0, 0
0, 1
1, 0
0, 0
0, 0
0, 0
0, 0
0, 0
0, 0
0, 0
0, 1
0, 0
0, 0
0, 0
0, 0
0, 0
0, 0
0, 0
0, 0
0, 0
0, 0
0, 0
0, 0
0, 0
0, 0
0, 0
0, 0
0, 0
0, 0
0, 0
0, 0
0, 0
0, 0
0, 0
0, 0
0, 0
0, 0
0, 0
0, 0
0, 0
0, 0
0, 0
0, 0
0, 0
0, 0
0, 0
0, 0
0, 0
0, 0
0, 0
0, 0
0, 0
0, 0
0, 0
0, 0
0, 0
0, 0
0, 0
0, 0
0, 0
0, 0
1, 0
1, 0
0, 0
0, 0
0, 0
0, 0
0, 0
0, 0
0, 0
0, 0
0, 0
0, 0
0, 0
0, 0
0, 0
0, 0
0, 0
0, 0
0, 0
0, 0
0, 1
0, 0
0, 0
0, 0
0, 0
0, 0
0, 0
0, 0
0, 0
0, 0
0, 0
1, 0
0, 0
0, 0
0, 0
0, 0
0, 0
0, 0
0, 0
0, 0
0, 0
0, 0
0, 0
0, 0
0, 0
0, 0
0, 0
0, 0
0, 0
0, 0
0, 0
0, 0
0, 0
0, 0
0, 0
0, 0
0, 0
0, 0
0, 0
0, 0
0, 0
0, 0
0, 0
0, 0
0, 0
0, 0
0, 0
0, 0
0, 0
0, 0
0, 0
0, 0
0, 0
0, 0
0, 0
0, 0
0, 0
0, 0
0, 0
0, 0
0, 0
0, 0
0, 0
0, 0
0, 0
0, 0
0, 0
0, 0
0, 0
0, 0
0, 0
0, 0
0, 0
0, 0
0, 0
0, 0
0, 0
0, 0
0, 0
0, 0
0, 0
0, 0
0, 0
0, 0
0, 0
0, 0
0, 0
0, 0
0, 0
0, 0
0, 0
0, 0
0, 0
0, 0
0, 0
0, 0
0, 0
0, 0
0, 0
0, 0
0, 0
0, 0
0, 0
0, 0
0, 0
0, 0
0, 0
0, 1
0, 0
0, 0
0, 0
0, 0
0, 0
0, 0
0, 0
0, 0
0, 0
0, 0
0, 0
0, 0
0, 0
0, 0
0, 0
0, 0
0, 0
0, 0
0, 0
0, 0
0, 0
0, 0
0, 0
0, 0
0, 0
0, 0
0, 0
0, 0
0, 0
0, 0
0, 0
0, 0
0, 0
0, 0
0, 0
0, 0
0, 0
0, 0
0, 0
0, 0
0, 0
0, 0
0, 0
0, 0
0, 0
0, 0
0, 0
0, 0
0, 0
0, 0
0, 0
0, 0
0, 0
0, 0
0, 0
0, 0
0, 0
0, 0
0, 0
0, 0
0, 0
0, 1
0, 0
0, 0
0, 0
0, 0
0, 0
0, 0
0, 0
0, 0
0, 0
0, 0
0, 0
0, 0
0, 0
0, 0
0, 0
0, 0
0, 0
0, 0
0, 0
0, 0
0, 0
0, 0
0, 0
0, 0
0, 0
0, 0
0, 0
0, 0
0, 0
0, 0
0, 0
0, 0
0, 0
0, 0
0, 0
0, 0
0, 0
0, 0
0, 0
0, 0
0, 0
0, 0
0, 0
0, 0
0, 0
0, 0
0, 0
0, 0
0, 0
0, 0
0, 0
0, 0
0, 0
0, 0
0, 0
0, 0
0, 0
0, 0
0, 0
0, 0
0, 0
0, 0
0, 0
0, 0
0, 0
0, 0
0, 0
0, 0
0, 0
0, 0
0, 0
0, 0
0, 0
0, 0
0, 0
0, 0
0, 0
0, 0
0, 0
0, 0
0, 0
0, 0
0, 0
0, 0
0, 0
0, 0
0, 0
0, 0
0, 0
0, 0
0, 0
0, 0
0, 0
0, 0
0, 0
0, 0
0, 0
0, 0
0, 0
0, 0
0, 0
0, 0
0, 0
0, 0
0, 0
0, 0
0, 0
0, 0
0, 0
0, 0
0, 0
0, 0
0, 0
0, 0
0, 0
0, 0
0, 0
0, 0
0, 0
0, 0
0, 0
0, 0
0, 0
0, 0
0, 0
0, 0
0, 0
0, 0
0, 0
0, 0
0, 0
0, 0
0, 0
0, 0
0, 0
0, 0
0, 0
0, 0
0, 0
0, 0
0, 0
0, 0
0, 0
0, 0
0, 0
0, 0
0, 0
0, 0
0, 0
0, 0
0, 0
0, 0
0, 0
0, 0
0, 0
0, 0
0, 0
0, 0
0, 0
0, 0
0, 0
0, 0
0, 0
0, 0
0, 0
0, 0
0, 0
0, 0
0, 0
0, 0
0, 0
0, 0
0, 0
0, 0
0, 0
0, 0
0, 0
0, 0
0, 0
0, 0
0, 0
0, 0
0, 0
0, 0
0, 0
0, 0
0, 0
0, 0
0, 0
0, 0
0, 0
0, 0
0, 0
0, 0
0, 0
0, 0
0, 0
0, 0
0, 0
0, 0
0, 0
0, 0
0, 0
0, 0
0, 0
0, 0
0, 0
0, 0
0, 0
0, 0
0, 0
0, 0
0, 0
0, 0
0, 0
0, 0
0, 0
0, 0
0, 0
0, 0
0, 0
0, 0
0, 0
0, 0
0, 0
0, 0
0, 0
0, 0
0, 0
0, 0
0, 0
#ENDOFDATA     end of spectrum data