File: host_upload/06-09-2024/ps_0852/dump3/ps__0852shot_2125.msa
#FORMAT      : EMSA/MAS spectral data file
#VERSION     : TC202v2.0 PIXL
#TITLE       : N/A
#DATE        :       Date in the format DD-MMM-YYYY, for example 07-JUL-2010
#TIME        :             The time of day at which the spectrum was recorded, in 24-hour format
#OWNER       : PIXL Flight Model       (PIXL will use this to indicate which instrument took the data.)
#NPOINTS     : 4096     Number of data points in the spectrum (This can be zero for configuration only files)
#NCOLUMNS    : 2     Number of data columns in the spectrum (This can be zero for configuration only files)
#XUNITS      : eV
#YUNITS      : COUNTS
#DATATYPE    : YY
#XPERCHAN    : 7.862, 7.881   eV per channel (separate by commas if more than one detector)
#OFFSET      : 18.5, -22.4         eV of first channel  (separate by commas if more than one detector
#SIGNALTYPE  : XRF
#YP_TEMP     : 2.46
#LIVETIME    : 8.54374, 8.5552   seconds (separate by commas if more than one detector)
#REALTIME    : 10, 10.0   seconds (separate by commas if more than one detector)
#SPECTRUM    : start of spectrum data
0, 0
0, 0
0, 0
0, 0
0, 0
0, 0
0, 0
0, 0
0, 0
0, 0
0, 0
0, 0
0, 0
0, 0
0, 0
0, 0
0, 0
0, 0
0, 0
0, 0
0, 0
0, 0
0, 0
0, 0
0, 0
0, 0
0, 0
0, 0
0, 0
0, 0
0, 0
0, 0
0, 0
0, 0
0, 0
1, 0
1, 1
1, 0
1, 3
1, 1
2, 0
1, 1
5, 1
2, 3
2, 1
0, 0
0, 3
1, 1
5, 11
12, 15
21, 17
37, 30
61, 50
88, 78
80, 75
94, 65
70, 67
57, 43
24, 22
16, 17
11, 6
3, 8
6, 3
3, 4
1, 6
5, 5
7, 6
13, 14
24, 27
58, 52
89, 94
181, 163
249, 254
356, 348
397, 376
447, 411
412, 356
284, 283
195, 199
141, 106
75, 89
39, 38
18, 22
15, 9
6, 4
4, 3
2, 1
2, 1
1, 0
1, 1
0, 1
1, 1
1, 0
1, 2
3, 2
5, 1
7, 2
9, 2
8, 1
6, 6
5, 0
2, 2
1, 5
5, 2
4, 1
2, 2
3, 6
6, 5
11, 10
19, 11
19, 21
35, 22
43, 25
57, 28
66, 46
62, 30
60, 28
54, 26
51, 44
46, 20
43, 20
32, 25
22, 20
25, 20
17, 9
7, 11
9, 6
16, 9
10, 10
3, 5
7, 5
3, 2
0, 4
3, 1
3, 1
4, 4
1, 1
0, 2
5, 2
1, 3
3, 3
4, 1
1, 2
6, 3
4, 2
2, 1
3, 1
1, 0
7, 5
3, 2
3, 0
7, 6
5, 6
13, 9
25, 8
20, 15
15, 10
33, 19
17, 18
22, 12
10, 9
6, 6
7, 8
6, 2
4, 1
1, 3
3, 3
6, 5
4, 4
6, 1
5, 4
6, 7
9, 5
7, 6
5, 4
5, 2
10, 6
4, 9
4, 5
10, 3
3, 10
8, 10
9, 3
6, 8
2, 8
6, 5
5, 4
7, 5
8, 6
9, 5
8, 5
10, 14
5, 15
13, 17
9, 16
17, 17
14, 14
14, 18
15, 23
17, 18
16, 7
19, 13
6, 2
4, 3
17, 10
4, 3
3, 8
4, 7
6, 6
5, 3
8, 3
6, 5
11, 5
8, 4
8, 4
6, 2
9, 11
5, 8
6, 6
6, 8
0, 7
8, 6
5, 9
10, 7
10, 3
10, 7
9, 12
14, 7
8, 8
11, 22
13, 14
22, 11
11, 12
17, 15
17, 12
12, 12
16, 9
14, 19
18, 13
17, 22
15, 29
13, 26
22, 23
23, 21
19, 21
35, 35
55, 44
47, 45
65, 73
82, 58
66, 54
82, 74
79, 67
47, 50
52, 38
43, 31
23, 18
23, 28
25, 27
21, 15
23, 27
34, 31
49, 75
89, 112
153, 223
294, 345
488, 618
750, 971
1145, 1346
1509, 1742
2062, 2089
2292, 2367
2370, 2351
2329, 2295
2059, 1903
1736, 1484
1337, 1128
921, 767
637, 439
379, 223
200, 162
125, 77
57, 39
25, 32
20, 24
11, 19
15, 23
15, 31
31, 13
21, 21
20, 40
42, 45
42, 47
79, 81
96, 123
144, 170
208, 218
288, 283
321, 304
346, 361
349, 351
364, 345
340, 298
237, 239
210, 135
145, 101
89, 78
57, 40
32, 16
14, 10
15, 7
23, 12
5, 9
11, 10
10, 12
15, 13
13, 14
22, 15
18, 7
15, 17
14, 11
11, 9
11, 14
3, 4
8, 6
4, 8
14, 0
3, 4
7, 7
3, 2
9, 6
8, 4
3, 4
3, 7
3, 4
2, 4
2, 3
8, 4
7, 7
6, 7
10, 6
6, 7
9, 7
8, 2
4, 7
9, 4
8, 14
6, 8
5, 4
5, 10
3, 5
7, 10
4, 6
7, 12
3, 11
7, 3
6, 2
0, 7
6, 8
6, 6
4, 6
1, 5
2, 3
9, 7
3, 5
8, 5
4, 7
2, 4
5, 3
3, 7
6, 4
3, 3
4, 7
7, 2
1, 3
3, 3
4, 4
5, 7
1, 2
5, 8
4, 6
1, 10
3, 13
1, 8
4, 10
6, 11
7, 11
4, 18
7, 20
2, 17
6, 20
3, 17
5, 16
4, 11
9, 14
9, 8
6, 10
4, 4
6, 6
5, 5
1, 5
9, 7
6, 3
4, 2
6, 3
4, 6
4, 6
5, 3
5, 9
7, 6
5, 7
8, 8
2, 7
3, 10
2, 7
4, 9
6, 6
0, 6
4, 8
2, 6
3, 4
1, 1
3, 3
2, 3
2, 5
2, 3
4, 7
4, 2
3, 2
2, 1
2, 2
1, 3
5, 7
1, 4
2, 1
0, 3
6, 3
1, 5
3, 6
2, 6
2, 2
3, 4
2, 6
6, 6
2, 5
0, 9
5, 1
5, 2
2, 0
4, 2
1, 4
0, 2
0, 1
2, 6
1, 1
1, 2
3, 3
1, 3
2, 6
4, 1
1, 1
0, 2
4, 3
3, 1
6, 3
2, 4
2, 1
0, 3
2, 1
4, 2
2, 2
2, 3
3, 5
2, 3
2, 2
2, 2
1, 2
1, 5
4, 2
2, 2
5, 0
7, 2
2, 4
0, 3
3, 6
3, 2
3, 2
4, 3
2, 0
2, 5
2, 0
4, 1
2, 4
3, 2
1, 4
6, 4
2, 1
6, 3
2, 2
4, 2
5, 6
3, 8
1, 4
3, 5
3, 7
2, 2
1, 1
2, 1
1, 4
2, 4
0, 3
3, 2
1, 3
1, 5
2, 2
2, 0
1, 3
3, 2
2, 0
1, 1
0, 2
3, 3
3, 1
3, 0
1, 1
2, 2
3, 1
1, 1
2, 0
1, 4
3, 5
0, 1
0, 4
1, 3
4, 2
1, 5
4, 1
2, 2
7, 5
6, 4
3, 3
4, 3
3, 6
12, 3
4, 7
0, 4
4, 5
3, 2
6, 3
0, 1
2, 1
1, 1
1, 4
3, 0
0, 3
0, 0
2, 2
2, 2
0, 3
4, 4
2, 0
4, 0
3, 0
1, 2
5, 0
1, 1
6, 2
2, 4
2, 0
1, 3
4, 2
1, 0
2, 3
3, 0
0, 4
3, 0
1, 0
4, 2
3, 2
2, 0
0, 2
1, 0
0, 2
1, 1
1, 0
2, 1
1, 2
3, 0
1, 1
3, 1
1, 1
1, 1
1, 2
0, 0
0, 2
1, 0
0, 0
2, 2
2, 1
1, 1
2, 1
0, 0
0, 2
0, 0
1, 1
1, 0
0, 6
1, 4
1, 0
2, 0
0, 1
0, 0
4, 3
0, 1
1, 0
0, 1
1, 1
3, 1
1, 1
1, 0
0, 1
1, 3
2, 1
0, 1
0, 2
1, 0
2, 0
1, 2
1, 1
1, 2
2, 1
0, 1
1, 0
1, 0
0, 1
0, 0
1, 1
0, 0
0, 2
1, 0
0, 2
1, 0
1, 0
0, 1
0, 1
1, 1
1, 1
1, 1
1, 0
1, 1
0, 0
0, 1
0, 1
0, 0
1, 1
1, 0
2, 0
1, 0
0, 0
1, 1
0, 0
0, 0
1, 0
0, 1
0, 1
2, 0
0, 0
0, 0
0, 0
0, 1
0, 2
1, 1
2, 0
0, 0
1, 0
0, 0
1, 0
0, 1
4, 1
1, 0
0, 1
0, 1
0, 1
0, 1
3, 0
0, 0
0, 0
2, 0
0, 0
1, 2
0, 0
0, 2
1, 0
0, 0
1, 1
0, 2
0, 1
1, 0
2, 1
0, 0
0, 0
0, 0
0, 1
0, 1
0, 1
0, 0
0, 1
0, 0
0, 0
0, 1
0, 0
0, 0
1, 0
0, 0
0, 0
1, 0
0, 1
0, 0
0, 0
0, 1
0, 0
0, 0
0, 0
0, 0
1, 0
1, 1
0, 0
1, 0
0, 0
1, 0
0, 0
1, 1
3, 2
0, 0
0, 0
0, 1
0, 0
1, 0
1, 1
0, 0
0, 1
0, 1
1, 0
0, 0
2, 0
0, 1
0, 1
0, 0
1, 0
0, 0
0, 2
0, 0
0, 0
0, 0
1, 0
1, 0
0, 0
1, 0
0, 0
0, 0
0, 1
0, 0
0, 0
1, 0
0, 0
0, 0
0, 0
0, 0
0, 0
2, 0
0, 0
1, 0
0, 0
0, 0
0, 0
0, 0
0, 1
0, 1
0, 0
1, 0
2, 1
0, 1
0, 0
1, 0
1, 1
1, 0
0, 1
0, 0
2, 1
1, 1
0, 0
0, 0
0, 0
2, 1
0, 0
0, 0
0, 0
0, 0
1, 0
0, 1
0, 0
0, 0
0, 0
0, 0
0, 0
1, 1
0, 0
0, 0
0, 1
0, 0
0, 0
0, 0
0, 0
0, 1
0, 0
0, 0
0, 0
0, 0
0, 0
0, 0
1, 0
0, 0
0, 1
0, 0
1, 0
0, 0
1, 0
0, 0
0, 0
0, 0
0, 0
0, 1
0, 0
0, 0
0, 1
0, 1
0, 1
0, 1
0, 0
1, 0
0, 0
0, 1
1, 0
0, 0
0, 0
2, 0
0, 0
0, 0
1, 0
0, 0
0, 0
0, 0
0, 1
1, 0
0, 3
1, 1
0, 0
0, 0
0, 0
0, 1
0, 0
0, 0
0, 0
0, 0
1, 1
1, 0
0, 0
0, 0
0, 0
1, 1
0, 0
1, 0
0, 0
0, 0
0, 0
0, 0
0, 0
0, 1
0, 0
1, 0
0, 0
0, 0
0, 0
1, 0
0, 0
0, 0
0, 0
0, 0
0, 0
0, 0
0, 0
0, 0
0, 0
0, 0
0, 0
0, 0
0, 0
0, 0
0, 0
0, 0
0, 0
0, 0
1, 0
0, 0
0, 1
0, 0
0, 0
0, 0
0, 0
0, 0
0, 0
0, 0
1, 0
0, 0
0, 0
0, 0
0, 0
0, 0
0, 0
0, 0
0, 0
0, 0
0, 0
0, 1
0, 0
0, 0
1, 0
0, 0
0, 0
1, 0
0, 0
0, 0
0, 0
0, 0
0, 0
0, 0
0, 0
0, 0
0, 0
1, 0
0, 0
0, 0
0, 0
0, 0
0, 0
0, 0
0, 0
0, 0
0, 0
0, 0
0, 0
0, 0
0, 0
0, 0
0, 0
0, 0
0, 0
0, 0
0, 0
0, 0
0, 0
0, 0
0, 0
0, 0
1, 0
0, 0
0, 0
0, 0
0, 0
0, 0
0, 0
0, 0
0, 0
0, 0
0, 0
0, 0
0, 0
0, 0
0, 0
0, 0
0, 0
0, 0
0, 0
0, 0
0, 0
0, 0
0, 0
0, 0
0, 0
0, 0
0, 0
0, 0
0, 0
0, 0
0, 0
0, 0
0, 0
0, 0
0, 0
0, 0
0, 0
0, 0
0, 0
0, 0
0, 0
0, 0
0, 0
0, 0
0, 0
0, 0
0, 0
0, 0
0, 0
0, 0
0, 0
0, 0
0, 0
0, 0
0, 0
0, 0
0, 0
0, 0
0, 0
0, 0
0, 0
0, 0
0, 0
0, 0
0, 0
0, 0
0, 0
0, 0
0, 0
0, 0
0, 0
0, 0
0, 0
0, 0
0, 0
0, 0
0, 0
0, 0
0, 0
0, 0
0, 0
0, 0
0, 0
0, 0
0, 0
0, 0
0, 0
0, 0
0, 0
0, 0
0, 0
0, 0
0, 0
0, 0
0, 0
0, 0
0, 0
0, 0
0, 0
0, 0
0, 0
0, 0
0, 0
0, 0
0, 0
0, 0
0, 0
0, 0
0, 0
0, 0
0, 0
0, 0
0, 0
0, 0
0, 0
0, 0
0, 0
0, 0
0, 0
0, 0
0, 0
0, 0
0, 0
0, 0
0, 0
0, 0
0, 0
0, 0
0, 0
0, 0
0, 0
0, 0
0, 0
0, 0
0, 0
0, 0
0, 0
0, 0
0, 0
0, 0
0, 0
0, 0
0, 0
0, 0
0, 0
0, 0
0, 0
0, 0
0, 0
0, 0
0, 0
0, 0
0, 0
0, 0
0, 0
0, 0
0, 0
0, 0
0, 0
0, 0
0, 0
0, 0
0, 0
0, 0
0, 0
0, 0
0, 0
0, 0
0, 0
0, 0
0, 0
0, 0
0, 0
0, 0
0, 0
0, 0
0, 0
0, 0
0, 0
0, 0
0, 0
0, 0
0, 0
0, 0
0, 0
0, 0
0, 0
0, 0
0, 0
0, 0
0, 0
0, 0
0, 0
0, 0
0, 0
0, 0
0, 0
0, 0
0, 0
0, 0
0, 0
0, 0
0, 0
0, 0
0, 0
0, 0
0, 0
0, 0
0, 0
0, 0
0, 0
0, 0
0, 0
0, 0
0, 0
0, 0
0, 0
0, 0
0, 0
0, 0
0, 0
0, 0
0, 0
0, 0
0, 0
0, 0
0, 0
0, 0
0, 0
0, 0
0, 0
0, 0
0, 0
0, 0
0, 0
0, 0
0, 0
0, 0
0, 0
0, 0
0, 0
0, 0
0, 0
0, 0
0, 0
0, 0
0, 0
0, 0
0, 0
0, 0
0, 0
0, 0
0, 0
0, 0
0, 0
0, 0
0, 0
0, 0
0, 0
0, 0
0, 0
0, 0
0, 0
0, 0
0, 0
0, 0
0, 0
0, 0
0, 0
0, 0
0, 0
0, 0
0, 0
0, 0
0, 0
0, 0
0, 0
0, 0
0, 0
0, 0
0, 0
0, 0
0, 0
0, 0
0, 0
0, 0
0, 0
0, 0
0, 0
0, 0
0, 0
0, 0
0, 0
0, 0
0, 0
0, 0
0, 0
0, 0
0, 0
0, 0
0, 0
0, 0
0, 0
0, 0
0, 0
0, 0
0, 0
0, 0
0, 0
0, 0
0, 0
0, 0
0, 0
0, 0
0, 0
0, 0
0, 0
0, 0
0, 0
0, 0
0, 0
0, 0
0, 0
0, 0
0, 0
0, 0
0, 0
0, 0
0, 0
0, 0
0, 0
0, 0
0, 0
0, 0
0, 0
0, 0
0, 0
0, 0
0, 0
0, 0
0, 0
0, 0
0, 0
0, 0
0, 0
0, 0
0, 0
0, 0
0, 0
0, 0
0, 0
0, 0
0, 0
0, 0
0, 0
0, 0
0, 0
0, 0
0, 0
0, 0
0, 0
0, 0
0, 0
0, 0
0, 0
0, 0
0, 0
0, 0
0, 0
0, 0
0, 0
0, 0
0, 0
0, 0
0, 0
0, 0
0, 0
0, 0
0, 0
0, 0
0, 0
0, 0
0, 0
0, 0
0, 0
0, 0
0, 0
0, 0
0, 0
0, 0
0, 0
0, 0
0, 0
0, 0
0, 0
0, 0
0, 0
0, 0
0, 0
0, 0
0, 0
0, 0
#ENDOFDATA     end of spectrum data