File: host_upload/06-09-2024/ps_0852/dump3/ps__0852shot_2036.msa
#FORMAT      : EMSA/MAS spectral data file
#VERSION     : TC202v2.0 PIXL
#TITLE       : N/A
#DATE        :       Date in the format DD-MMM-YYYY, for example 07-JUL-2010
#TIME        :             The time of day at which the spectrum was recorded, in 24-hour format
#OWNER       : PIXL Flight Model       (PIXL will use this to indicate which instrument took the data.)
#NPOINTS     : 4096     Number of data points in the spectrum (This can be zero for configuration only files)
#NCOLUMNS    : 2     Number of data columns in the spectrum (This can be zero for configuration only files)
#XUNITS      : eV
#YUNITS      : COUNTS
#DATATYPE    : YY
#XPERCHAN    : 7.862, 7.881   eV per channel (separate by commas if more than one detector)
#OFFSET      : 18.5, -22.4         eV of first channel  (separate by commas if more than one detector
#SIGNALTYPE  : XRF
#YP_TEMP     : 2.267
#LIVETIME    : 8.56248, 8.52   seconds (separate by commas if more than one detector)
#REALTIME    : 10, 10.0   seconds (separate by commas if more than one detector)
#SPECTRUM    : start of spectrum data
0, 0
0, 0
0, 0
0, 0
0, 0
0, 0
0, 0
0, 0
0, 0
0, 0
0, 0
0, 0
0, 0
0, 0
0, 0
0, 0
0, 0
0, 0
0, 0
0, 0
0, 0
0, 0
0, 0
0, 0
0, 0
0, 0
0, 0
0, 0
0, 0
0, 0
0, 0
0, 0
0, 0
0, 0
0, 0
0, 0
0, 1
0, 0
1, 1
2, 0
2, 1
1, 3
3, 0
4, 0
0, 0
0, 2
1, 1
5, 6
6, 7
11, 13
24, 23
38, 42
60, 42
72, 87
77, 71
79, 64
47, 45
56, 42
39, 21
22, 15
7, 5
9, 6
4, 1
7, 4
2, 4
6, 3
4, 6
11, 14
20, 14
45, 57
78, 98
166, 151
256, 233
366, 326
434, 390
438, 369
366, 345
311, 272
234, 176
151, 111
69, 62
46, 33
25, 17
13, 8
4, 6
2, 2
3, 3
0, 3
2, 1
2, 1
0, 0
3, 0
1, 2
1, 2
2, 1
3, 2
3, 2
3, 1
4, 4
6, 2
3, 3
3, 2
1, 1
2, 6
4, 2
5, 3
4, 5
8, 9
16, 6
12, 15
26, 18
34, 23
55, 31
73, 28
92, 32
91, 29
86, 42
89, 23
49, 15
59, 24
39, 20
32, 16
25, 16
25, 21
18, 16
16, 15
21, 10
17, 14
9, 9
4, 2
2, 1
5, 9
3, 4
5, 2
1, 1
1, 2
2, 0
3, 2
1, 3
3, 1
3, 3
1, 0
3, 1
1, 3
4, 3
0, 1
3, 1
2, 5
2, 8
3, 4
3, 2
6, 13
5, 12
6, 17
13, 19
18, 19
14, 19
16, 21
14, 15
12, 25
12, 18
6, 21
5, 12
3, 10
5, 5
4, 7
4, 4
2, 7
6, 0
3, 4
5, 11
7, 3
4, 1
4, 9
4, 3
6, 7
4, 11
5, 8
4, 6
5, 8
9, 8
3, 7
4, 6
3, 5
4, 5
8, 4
4, 3
10, 3
11, 2
15, 5
11, 8
10, 4
18, 11
12, 9
16, 10
12, 7
12, 11
12, 10
21, 16
12, 18
10, 10
6, 7
7, 8
13, 7
9, 2
9, 4
5, 7
4, 5
4, 6
3, 2
6, 4
2, 3
6, 7
6, 7
5, 11
12, 4
5, 10
8, 10
7, 10
2, 7
7, 7
6, 11
5, 9
6, 9
14, 15
10, 11
7, 6
7, 19
21, 26
9, 31
17, 38
16, 55
16, 58
12, 65
19, 69
11, 76
18, 65
19, 64
12, 42
15, 41
9, 25
19, 19
35, 16
25, 13
24, 13
27, 24
33, 24
48, 27
56, 55
66, 44
54, 52
67, 71
76, 43
61, 44
50, 27
39, 31
35, 14
26, 17
20, 12
19, 15
18, 28
32, 27
58, 51
89, 86
181, 177
318, 352
451, 542
860, 822
1154, 1226
1622, 1583
2062, 1989
2370, 2160
2529, 2224
2529, 2066
2231, 1794
1913, 1424
1417, 1017
1053, 723
657, 417
401, 235
217, 135
136, 67
66, 41
34, 24
30, 15
14, 16
10, 14
13, 17
16, 16
20, 22
27, 30
32, 42
50, 47
74, 80
117, 116
163, 152
194, 239
271, 261
307, 337
382, 339
392, 314
365, 298
307, 235
280, 185
225, 166
162, 103
108, 68
64, 44
57, 26
21, 18
16, 24
17, 10
14, 11
19, 13
12, 12
19, 17
10, 20
13, 8
25, 13
13, 15
10, 8
15, 7
10, 5
13, 9
13, 5
9, 5
9, 1
6, 2
4, 4
5, 2
7, 5
4, 3
4, 3
3, 2
4, 3
3, 4
4, 3
6, 2
2, 1
7, 4
3, 2
2, 3
12, 4
11, 1
3, 7
5, 3
4, 0
3, 1
4, 1
7, 3
3, 5
8, 4
7, 4
6, 4
8, 5
5, 1
10, 4
6, 3
7, 6
13, 2
10, 1
6, 3
8, 0
10, 5
8, 4
11, 4
7, 5
13, 12
7, 7
6, 5
9, 5
1, 3
2, 6
7, 4
3, 5
7, 8
4, 3
4, 3
1, 2
3, 3
1, 6
3, 3
6, 3
7, 4
4, 5
6, 3
5, 3
5, 3
1, 6
2, 2
1, 1
5, 5
3, 6
3, 4
2, 3
6, 2
3, 3
4, 5
2, 1
2, 1
1, 2
3, 0
1, 2
3, 5
3, 3
2, 6
6, 4
7, 1
2, 3
7, 1
6, 5
1, 4
3, 4
4, 4
6, 1
4, 2
5, 3
5, 3
3, 3
7, 0
9, 2
3, 4
14, 2
8, 1
6, 5
8, 3
8, 6
5, 1
8, 5
4, 9
3, 6
6, 2
7, 2
3, 3
0, 4
1, 3
2, 1
1, 2
3, 5
3, 2
4, 1
1, 3
3, 1
2, 6
1, 5
6, 3
3, 4
0, 5
3, 3
3, 3
2, 3
4, 6
4, 7
6, 3
3, 2
3, 0
1, 8
4, 3
1, 4
3, 4
2, 5
0, 3
3, 2
1, 3
4, 4
5, 4
0, 10
0, 5
1, 8
1, 4
2, 2
2, 7
4, 6
1, 4
2, 5
4, 4
3, 2
4, 3
4, 2
3, 1
4, 5
3, 1
8, 6
7, 2
5, 6
6, 4
7, 5
4, 1
7, 2
5, 4
2, 4
3, 0
5, 1
3, 2
7, 1
2, 1
1, 0
2, 3
2, 1
1, 3
1, 5
1, 3
1, 1
7, 3
4, 3
2, 1
1, 2
2, 0
3, 0
1, 1
2, 1
2, 1
2, 2
1, 4
0, 4
1, 5
2, 1
1, 0
2, 0
3, 3
1, 3
6, 4
2, 7
3, 3
1, 6
0, 3
1, 6
1, 3
3, 3
4, 6
3, 5
2, 1
4, 2
3, 5
1, 0
2, 4
5, 2
5, 3
3, 6
5, 1
4, 4
6, 4
5, 2
5, 4
5, 7
4, 5
4, 3
1, 3
3, 1
4, 2
2, 1
0, 2
3, 0
1, 2
1, 0
0, 3
0, 1
1, 1
3, 4
1, 2
1, 1
1, 1
2, 1
1, 1
2, 0
1, 0
1, 2
4, 3
1, 2
2, 1
2, 2
3, 2
1, 0
0, 5
2, 0
1, 4
0, 4
1, 1
2, 1
0, 0
0, 1
0, 2
0, 1
1, 1
4, 1
1, 1
3, 1
2, 2
0, 0
0, 0
0, 0
2, 1
2, 1
2, 2
1, 3
2, 2
2, 0
0, 0
0, 0
0, 0
1, 0
4, 0
2, 2
1, 3
2, 1
4, 1
1, 0
1, 1
1, 1
0, 1
2, 0
1, 1
2, 0
0, 1
0, 0
1, 0
1, 2
0, 1
2, 1
0, 1
0, 0
1, 0
1, 1
1, 0
0, 0
1, 0
0, 1
1, 0
0, 0
0, 0
0, 0
0, 1
0, 0
0, 0
0, 0
1, 1
1, 0
1, 2
0, 0
0, 2
1, 1
1, 0
1, 0
0, 0
0, 2
0, 1
1, 0
0, 1
1, 0
1, 1
0, 2
0, 0
0, 0
0, 0
0, 0
0, 1
3, 1
0, 0
1, 0
0, 0
1, 2
0, 3
0, 0
2, 0
0, 0
0, 0
1, 0
0, 0
0, 1
4, 0
0, 0
0, 1
0, 0
0, 2
1, 2
0, 0
0, 1
0, 1
0, 0
0, 0
1, 0
0, 0
2, 1
0, 1
2, 0
0, 0
0, 3
0, 0
0, 0
1, 1
1, 0
0, 0
0, 1
1, 1
3, 1
0, 0
0, 0
1, 0
2, 0
1, 0
3, 2
1, 0
1, 0
0, 0
1, 0
1, 0
1, 0
0, 0
1, 2
1, 0
0, 1
2, 0
0, 0
0, 0
0, 0
0, 0
1, 0
0, 0
0, 1
0, 0
0, 0
1, 0
0, 1
0, 0
0, 1
1, 0
0, 0
1, 0
1, 0
1, 1
0, 1
0, 0
0, 0
0, 1
0, 0
0, 1
0, 1
0, 0
0, 0
0, 1
0, 2
0, 0
0, 0
0, 0
0, 0
1, 0
0, 0
0, 0
1, 0
0, 0
0, 0
0, 0
0, 0
1, 0
1, 0
0, 0
0, 1
0, 0
2, 0
0, 0
0, 0
0, 0
0, 0
0, 0
0, 0
2, 0
0, 1
0, 0
0, 0
0, 0
0, 0
0, 0
0, 0
2, 0
0, 1
0, 0
1, 0
1, 0
0, 0
0, 0
0, 0
0, 0
0, 0
0, 0
1, 0
1, 0
0, 0
0, 0
0, 1
0, 0
0, 0
1, 1
0, 0
0, 1
0, 1
0, 1
0, 0
1, 0
0, 0
0, 0
1, 0
0, 0
0, 0
0, 0
1, 0
2, 0
0, 0
0, 0
0, 0
0, 1
0, 0
0, 0
0, 0
1, 0
0, 0
0, 1
0, 2
0, 0
0, 0
0, 0
0, 0
0, 0
0, 0
0, 0
0, 0
0, 0
0, 0
0, 1
0, 0
0, 0
0, 0
0, 0
0, 0
0, 0
0, 0
0, 0
0, 0
0, 0
0, 0
1, 1
2, 0
0, 0
1, 0
0, 0
0, 0
0, 0
2, 1
0, 1
0, 0
0, 0
0, 0
0, 0
1, 0
0, 0
1, 0
0, 1
0, 0
0, 0
0, 1
0, 0
0, 0
0, 1
1, 0
0, 1
0, 0
0, 0
0, 0
0, 0
0, 0
0, 0
0, 0
0, 0
0, 0
0, 0
0, 0
0, 0
0, 1
0, 0
0, 0
0, 0
0, 0
0, 0
0, 1
0, 0
0, 0
0, 0
0, 0
0, 0
0, 0
0, 0
0, 0
0, 2
0, 0
0, 0
0, 0
0, 0
0, 0
0, 0
0, 0
0, 0
0, 0
0, 0
0, 0
0, 0
0, 0
0, 1
0, 0
0, 0
0, 0
0, 0
0, 0
0, 0
0, 0
0, 1
0, 0
0, 0
0, 0
0, 0
0, 0
0, 0
0, 0
1, 0
0, 0
0, 0
0, 0
0, 0
0, 0
0, 0
0, 1
0, 0
0, 0
0, 0
0, 0
0, 0
1, 0
0, 0
0, 0
1, 0
0, 0
0, 1
0, 0
0, 1
0, 0
0, 0
0, 0
0, 0
0, 0
0, 0
1, 0
0, 0
1, 0
0, 0
0, 0
0, 0
0, 0
0, 0
0, 0
1, 0
0, 0
0, 0
0, 0
0, 0
0, 0
0, 0
0, 0
0, 0
0, 0
0, 0
0, 0
0, 0
0, 1
0, 0
0, 0
0, 0
0, 0
0, 0
0, 0
0, 0
0, 0
0, 0
0, 0
0, 1
0, 0
0, 0
0, 0
1, 0
0, 0
0, 0
0, 0
1, 0
0, 0
0, 0
0, 0
0, 0
0, 0
0, 0
0, 0
0, 0
0, 0
0, 0
0, 0
0, 0
0, 0
0, 0
0, 0
0, 0
0, 0
0, 0
0, 0
0, 0
0, 0
0, 0
0, 0
0, 0
0, 0
0, 0
0, 0
0, 0
0, 0
0, 0
0, 0
0, 0
0, 0
0, 0
0, 0
1, 0
0, 0
0, 0
0, 0
0, 0
0, 0
0, 0
0, 0
0, 0
0, 0
0, 0
0, 0
0, 0
0, 0
0, 0
0, 0
0, 0
0, 0
0, 0
0, 0
0, 0
0, 0
0, 0
0, 0
0, 0
0, 0
0, 0
0, 0
0, 0
0, 0
0, 0
0, 0
0, 0
0, 0
0, 0
0, 0
0, 0
0, 0
0, 0
0, 0
0, 0
0, 0
0, 0
0, 0
0, 0
0, 0
0, 0
0, 0
0, 0
0, 0
0, 0
0, 0
0, 0
0, 0
0, 0
0, 0
0, 0
0, 0
0, 0
0, 0
0, 0
0, 0
0, 0
0, 0
0, 0
0, 0
0, 0
0, 0
0, 0
0, 0
0, 0
0, 0
0, 0
0, 0
0, 0
0, 0
0, 0
0, 0
0, 0
0, 0
0, 0
0, 0
0, 0
0, 0
0, 0
0, 0
0, 0
0, 0
0, 0
0, 0
0, 0
0, 0
0, 0
0, 0
0, 0
0, 0
0, 0
0, 0
0, 0
0, 0
0, 0
0, 0
0, 0
0, 0
0, 0
0, 0
0, 0
0, 0
0, 0
0, 0
0, 0
0, 0
0, 0
0, 0
0, 0
0, 0
0, 0
0, 0
0, 0
0, 0
0, 0
0, 0
0, 0
0, 0
0, 0
0, 0
0, 0
0, 0
0, 0
0, 0
0, 0
0, 0
0, 0
0, 0
0, 0
0, 0
0, 0
0, 0
0, 0
0, 0
0, 0
0, 0
0, 0
0, 0
0, 0
0, 0
0, 0
0, 0
0, 0
0, 0
0, 0
0, 0
0, 0
0, 0
0, 0
0, 0
0, 0
0, 0
0, 0
0, 0
0, 0
0, 0
0, 0
0, 0
0, 0
0, 0
0, 0
0, 0
0, 0
0, 0
0, 0
0, 0
0, 0
0, 0
0, 0
0, 0
0, 0
0, 0
0, 0
0, 0
0, 0
0, 0
0, 0
0, 0
0, 0
0, 0
0, 0
0, 0
0, 0
0, 0
0, 0
0, 0
0, 0
0, 0
0, 0
0, 0
0, 0
0, 0
0, 0
0, 0
0, 0
0, 0
0, 0
0, 0
0, 0
0, 0
0, 0
0, 0
0, 0
0, 0
0, 0
0, 0
0, 0
0, 0
0, 0
0, 0
0, 0
0, 0
0, 0
0, 0
0, 0
0, 0
0, 0
0, 0
0, 0
0, 0
0, 0
0, 0
0, 0
0, 0
0, 0
0, 0
0, 0
0, 0
0, 0
0, 0
0, 0
0, 0
0, 0
0, 0
0, 0
0, 0
0, 0
0, 0
0, 0
0, 0
0, 0
0, 0
0, 0
0, 0
0, 0
0, 0
0, 0
0, 0
0, 0
0, 0
0, 0
0, 0
0, 0
0, 0
0, 0
0, 0
0, 0
0, 0
0, 0
0, 0
0, 0
0, 0
0, 0
0, 0
0, 0
0, 0
0, 0
0, 0
0, 0
0, 0
0, 0
0, 0
0, 0
0, 0
0, 0
0, 0
0, 0
0, 0
0, 0
0, 0
0, 0
0, 0
0, 0
0, 0
0, 0
0, 0
0, 0
0, 0
0, 0
0, 0
0, 0
0, 0
0, 0
0, 0
0, 0
0, 0
0, 0
0, 0
0, 0
0, 0
0, 0
0, 0
0, 0
0, 0
0, 0
0, 0
0, 0
0, 0
0, 0
0, 0
0, 0
0, 0
0, 0
0, 0
0, 0
0, 0
0, 0
0, 0
0, 0
0, 0
0, 0
0, 0
0, 0
0, 0
0, 0
0, 0
0, 0
0, 0
0, 0
0, 0
0, 0
0, 0
0, 0
0, 0
0, 0
#ENDOFDATA     end of spectrum data