File: host_upload/06-09-2024/ps_0852/dump3/ps__0852shot_2353.msa
#FORMAT      : EMSA/MAS spectral data file
#VERSION     : TC202v2.0 PIXL
#TITLE       : N/A
#DATE        :       Date in the format DD-MMM-YYYY, for example 07-JUL-2010
#TIME        :             The time of day at which the spectrum was recorded, in 24-hour format
#OWNER       : PIXL Flight Model       (PIXL will use this to indicate which instrument took the data.)
#NPOINTS     : 4096     Number of data points in the spectrum (This can be zero for configuration only files)
#NCOLUMNS    : 2     Number of data columns in the spectrum (This can be zero for configuration only files)
#XUNITS      : eV
#YUNITS      : COUNTS
#DATATYPE    : YY
#XPERCHAN    : 7.862, 7.881   eV per channel (separate by commas if more than one detector)
#OFFSET      : 18.5, -22.4         eV of first channel  (separate by commas if more than one detector
#SIGNALTYPE  : XRF
#YP_TEMP     : 2.235
#LIVETIME    : 8.56728, 8.3711   seconds (separate by commas if more than one detector)
#REALTIME    : 10, 10.0   seconds (separate by commas if more than one detector)
#SPECTRUM    : start of spectrum data
0, 0
0, 0
0, 0
0, 0
0, 0
0, 0
0, 0
0, 0
0, 0
0, 0
0, 0
0, 0
0, 0
0, 0
0, 0
0, 0
0, 0
0, 0
0, 0
0, 0
0, 0
0, 0
0, 0
0, 0
0, 0
0, 0
0, 0
0, 0
0, 0
0, 0
0, 0
0, 0
0, 0
1, 0
0, 0
1, 0
1, 2
0, 1
0, 3
1, 2
1, 0
1, 2
0, 1
0, 2
1, 0
0, 3
0, 2
8, 3
5, 11
8, 14
19, 21
32, 22
45, 44
58, 76
60, 80
62, 63
59, 52
40, 43
17, 26
16, 12
8, 9
3, 2
3, 6
5, 5
6, 3
4, 8
5, 8
11, 16
28, 28
45, 62
93, 114
179, 222
285, 337
329, 448
417, 477
435, 496
391, 416
289, 330
202, 230
125, 120
71, 73
31, 32
16, 22
5, 10
4, 5
5, 8
2, 2
1, 3
1, 6
3, 1
2, 3
1, 1
4, 2
4, 6
1, 4
6, 12
10, 12
6, 18
21, 26
20, 29
17, 27
12, 20
9, 10
6, 10
6, 7
7, 9
14, 9
7, 10
13, 19
21, 23
23, 40
35, 42
37, 64
58, 50
44, 58
49, 49
56, 57
39, 42
22, 38
37, 43
12, 26
20, 34
16, 19
30, 12
9, 14
12, 17
15, 8
9, 14
10, 6
7, 6
6, 1
3, 2
4, 4
4, 4
0, 2
4, 1
5, 2
0, 4
2, 3
1, 0
4, 2
4, 2
1, 3
1, 1
3, 2
2, 2
1, 1
1, 2
5, 1
0, 3
0, 1
5, 2
3, 4
4, 8
4, 6
5, 5
14, 9
8, 15
10, 12
7, 11
9, 9
2, 9
7, 12
3, 7
2, 16
1, 9
4, 7
4, 3
1, 5
6, 10
4, 4
5, 1
4, 6
5, 11
6, 6
2, 10
3, 14
1, 12
1, 13
7, 4
1, 13
3, 9
0, 3
3, 1
2, 6
7, 3
5, 3
2, 3
7, 9
12, 11
10, 7
12, 15
10, 17
13, 16
10, 36
16, 42
13, 28
11, 32
10, 36
12, 34
11, 26
4, 24
11, 16
7, 13
6, 5
5, 11
8, 12
3, 7
2, 4
4, 6
5, 5
2, 8
4, 10
4, 12
3, 6
1, 8
3, 9
4, 6
5, 4
8, 10
6, 3
4, 11
3, 9
3, 7
5, 10
9, 9
9, 17
15, 11
10, 15
9, 18
12, 9
13, 12
9, 10
11, 14
9, 9
10, 10
6, 6
8, 6
10, 4
6, 6
7, 7
12, 8
12, 8
11, 4
12, 17
18, 19
26, 25
35, 42
42, 45
52, 79
58, 70
50, 65
54, 54
52, 45
38, 31
34, 29
23, 19
15, 23
23, 14
12, 17
18, 18
26, 26
46, 63
83, 110
135, 220
235, 390
433, 614
700, 987
1136, 1386
1573, 1839
1964, 2273
2291, 2589
2222, 2530
2299, 2435
2091, 1965
1690, 1532
1287, 1193
931, 757
551, 453
332, 261
175, 153
98, 68
64, 41
25, 34
17, 22
13, 36
12, 23
12, 17
18, 18
25, 26
19, 37
53, 50
61, 65
73, 83
94, 113
137, 181
227, 244
262, 316
334, 370
343, 371
376, 333
349, 345
285, 260
265, 216
202, 136
152, 119
97, 61
71, 31
34, 22
29, 8
24, 14
33, 11
46, 9
21, 8
49, 10
44, 15
45, 14
44, 15
27, 13
31, 9
29, 15
18, 12
10, 10
7, 5
5, 0
4, 3
5, 7
4, 3
4, 2
3, 1
6, 6
7, 7
6, 4
10, 3
12, 2
10, 6
8, 6
12, 2
9, 3
5, 3
7, 4
5, 2
5, 6
7, 5
3, 8
4, 4
4, 5
4, 3
8, 4
4, 6
6, 5
6, 5
5, 4
6, 7
9, 4
4, 2
2, 5
6, 5
5, 10
5, 5
2, 2
4, 7
3, 4
2, 6
1, 5
9, 6
0, 6
4, 5
1, 3
3, 9
6, 8
1, 8
0, 4
1, 6
2, 1
4, 4
2, 3
3, 1
4, 2
4, 5
2, 1
1, 2
7, 7
3, 7
3, 3
5, 9
3, 11
2, 13
4, 14
4, 12
2, 10
4, 19
3, 18
5, 21
4, 16
6, 16
2, 9
4, 8
4, 13
2, 10
0, 5
5, 9
2, 2
5, 4
2, 2
2, 3
5, 3
7, 3
2, 4
3, 1
1, 3
1, 2
1, 2
3, 2
6, 5
0, 7
3, 2
2, 4
3, 4
5, 3
5, 4
3, 3
7, 4
3, 3
1, 2
1, 4
4, 4
5, 4
5, 5
1, 5
5, 4
2, 5
3, 5
3, 0
0, 6
4, 6
5, 2
3, 2
3, 6
2, 1
6, 4
5, 4
2, 5
3, 3
6, 9
2, 7
3, 2
3, 6
2, 5
0, 5
4, 5
8, 2
6, 8
4, 6
2, 7
4, 3
6, 1
5, 2
4, 2
7, 1
4, 2
4, 1
0, 2
6, 2
5, 5
5, 5
3, 2
1, 4
1, 6
4, 3
0, 7
4, 2
2, 3
6, 2
2, 5
3, 1
0, 1
2, 1
7, 3
3, 2
2, 1
6, 2
8, 5
3, 5
5, 6
6, 4
3, 5
4, 12
2, 5
6, 4
1, 7
5, 5
1, 4
2, 4
1, 4
2, 2
2, 8
1, 5
0, 3
2, 1
6, 1
2, 1
1, 2
5, 1
5, 4
3, 1
2, 2
5, 1
1, 0
3, 4
2, 0
2, 2
3, 0
0, 0
2, 2
2, 2
1, 4
0, 2
2, 0
2, 2
2, 1
2, 2
2, 1
1, 2
0, 0
0, 6
3, 2
3, 3
2, 1
3, 2
2, 1
3, 0
4, 2
0, 5
2, 2
2, 6
5, 3
3, 6
1, 10
3, 3
6, 7
4, 5
4, 2
2, 4
3, 5
4, 1
0, 2
2, 2
3, 2
0, 4
2, 1
3, 1
1, 1
2, 0
1, 0
0, 1
1, 2
1, 5
2, 1
1, 0
2, 4
0, 3
3, 1
1, 0
1, 1
1, 3
1, 0
6, 2
4, 1
3, 3
2, 3
3, 1
1, 1
0, 0
0, 2
1, 1
0, 4
3, 1
1, 1
1, 2
3, 2
3, 2
2, 1
2, 0
0, 1
1, 1
2, 1
0, 2
2, 1
2, 0
0, 3
2, 0
1, 1
0, 0
0, 2
2, 0
2, 1
1, 5
0, 1
1, 1
0, 1
1, 0
1, 1
1, 1
0, 1
0, 0
2, 1
0, 1
0, 0
2, 0
1, 0
1, 5
0, 2
1, 0
0, 1
0, 0
0, 0
1, 1
2, 1
1, 0
0, 3
1, 0
1, 0
4, 2
0, 0
1, 2
1, 1
0, 0
1, 0
0, 0
1, 0
0, 1
0, 0
3, 1
1, 1
2, 1
2, 1
1, 0
1, 3
0, 1
0, 0
0, 4
0, 1
2, 1
0, 1
1, 0
1, 2
0, 1
2, 2
0, 0
3, 0
0, 0
2, 0
0, 0
1, 0
0, 1
1, 0
1, 0
1, 0
1, 2
0, 1
1, 1
1, 1
1, 0
1, 0
1, 0
0, 0
1, 1
0, 2
2, 1
0, 0
0, 1
1, 0
0, 0
1, 0
0, 0
0, 0
4, 1
1, 1
0, 1
1, 1
0, 0
0, 0
1, 0
0, 0
0, 0
0, 0
2, 0
1, 0
0, 1
3, 0
1, 1
0, 0
0, 0
1, 0
0, 0
2, 0
0, 0
0, 0
0, 0
0, 1
0, 1
3, 0
2, 0
1, 1
0, 1
2, 0
1, 0
0, 0
0, 0
0, 1
0, 1
0, 1
1, 0
0, 2
2, 0
0, 0
0, 0
0, 1
0, 1
0, 0
1, 0
0, 0
0, 1
1, 0
1, 0
0, 0
0, 1
1, 1
0, 2
0, 1
0, 0
0, 1
0, 0
0, 0
0, 0
0, 0
0, 0
0, 0
0, 0
0, 0
1, 0
0, 0
0, 1
0, 0
0, 0
0, 0
0, 0
0, 0
1, 0
0, 0
0, 0
0, 0
0, 0
0, 0
0, 1
0, 0
0, 2
1, 0
2, 1
0, 2
0, 0
1, 1
0, 0
1, 0
0, 0
0, 0
0, 0
0, 0
0, 1
0, 0
0, 1
0, 0
0, 0
0, 0
1, 0
1, 1
0, 0
0, 2
0, 0
1, 0
0, 1
0, 0
1, 0
0, 0
0, 0
0, 0
0, 0
0, 0
0, 1
0, 0
0, 1
0, 0
0, 2
0, 0
0, 0
0, 0
1, 0
0, 1
1, 0
1, 0
1, 0
1, 0
1, 0
0, 0
1, 0
0, 1
0, 0
0, 0
0, 0
0, 0
0, 0
0, 0
0, 1
0, 0
1, 0
1, 0
0, 0
0, 0
0, 0
0, 0
0, 0
0, 0
0, 0
1, 0
0, 0
1, 0
0, 1
0, 0
0, 0
1, 0
1, 0
0, 0
0, 0
0, 0
0, 0
0, 0
0, 1
0, 0
0, 0
0, 0
0, 0
0, 0
0, 0
0, 0
0, 2
1, 0
0, 0
0, 0
0, 0
0, 0
0, 0
0, 3
0, 0
1, 0
2, 0
1, 0
0, 1
0, 0
0, 0
0, 1
0, 0
0, 1
0, 0
0, 0
0, 0
0, 0
0, 0
0, 0
0, 0
0, 0
0, 1
0, 0
1, 1
0, 1
0, 0
0, 0
0, 0
0, 0
1, 0
0, 0
0, 1
0, 0
0, 0
1, 0
0, 0
2, 0
0, 0
0, 0
0, 0
1, 0
0, 0
0, 0
0, 0
0, 0
0, 0
0, 0
0, 0
0, 0
0, 0
1, 0
0, 0
0, 0
0, 0
0, 0
0, 0
0, 0
0, 0
0, 0
0, 0
0, 2
0, 0
0, 0
0, 0
0, 0
0, 0
0, 0
0, 0
0, 0
0, 0
0, 0
0, 0
0, 0
0, 0
0, 0
0, 0
0, 0
0, 0
0, 0
0, 0
0, 0
0, 0
0, 0
0, 0
0, 0
0, 0
0, 0
0, 0
0, 0
0, 0
0, 0
0, 1
0, 0
2, 0
0, 0
0, 0
0, 0
0, 0
0, 0
0, 0
0, 0
0, 0
0, 0
0, 0
0, 0
0, 0
0, 0
0, 0
0, 0
0, 0
0, 0
1, 0
0, 0
0, 0
0, 0
0, 0
0, 0
0, 0
0, 0
0, 0
0, 0
0, 0
1, 0
0, 0
0, 0
0, 0
0, 0
0, 0
0, 0
0, 0
0, 0
0, 0
0, 0
0, 0
0, 0
0, 0
0, 0
0, 0
0, 0
0, 0
0, 0
0, 0
0, 0
0, 1
0, 0
0, 0
0, 0
0, 0
0, 0
0, 0
0, 0
0, 0
0, 0
0, 0
0, 0
0, 0
0, 0
0, 0
0, 0
0, 0
0, 0
0, 0
0, 0
0, 0
0, 0
0, 0
0, 0
0, 0
0, 0
0, 0
0, 0
0, 0
1, 0
0, 0
0, 0
0, 0
0, 0
0, 0
0, 0
0, 0
0, 0
0, 0
0, 0
0, 0
0, 0
0, 0
0, 0
0, 0
0, 0
0, 0
0, 0
0, 0
0, 0
0, 0
0, 0
0, 0
0, 0
0, 0
0, 0
0, 0
0, 0
0, 0
0, 0
0, 1
0, 0
0, 0
0, 0
0, 0
0, 0
0, 0
0, 0
0, 0
0, 0
0, 0
0, 0
0, 0
0, 0
0, 0
0, 0
0, 0
0, 0
0, 0
0, 0
0, 0
0, 0
0, 0
0, 0
0, 0
0, 0
0, 0
0, 0
0, 0
0, 0
0, 0
0, 0
0, 0
0, 0
0, 0
0, 0
0, 0
0, 0
0, 0
0, 0
0, 0
0, 0
0, 0
0, 0
0, 0
0, 0
0, 0
0, 0
0, 0
0, 0
0, 0
0, 0
0, 0
0, 0
0, 0
0, 0
0, 0
0, 0
0, 0
0, 0
0, 0
0, 0
0, 0
0, 0
0, 0
0, 0
0, 0
0, 0
0, 0
0, 1
0, 0
0, 0
0, 0
0, 0
0, 0
0, 0
0, 0
0, 0
0, 0
0, 0
0, 0
0, 0
0, 0
0, 0
0, 0
0, 0
0, 0
0, 0
0, 0
0, 0
0, 0
0, 0
0, 0
0, 0
0, 0
0, 0
0, 0
0, 0
0, 0
0, 0
0, 0
0, 0
0, 0
0, 0
0, 0
0, 0
0, 0
0, 0
0, 0
0, 0
0, 0
0, 0
0, 0
0, 0
0, 0
0, 0
0, 0
0, 0
0, 0
0, 0
0, 0
0, 0
0, 0
0, 0
0, 0
0, 0
0, 0
0, 0
0, 0
0, 0
0, 0
0, 0
0, 0
0, 0
0, 0
0, 0
0, 0
0, 0
0, 0
0, 0
0, 0
0, 0
0, 0
0, 0
0, 0
0, 0
0, 0
0, 0
0, 0
0, 0
0, 0
0, 0
0, 0
0, 0
0, 0
0, 0
0, 0
0, 0
0, 0
0, 0
0, 0
0, 0
0, 0
0, 0
0, 0
0, 0
0, 0
0, 0
0, 0
0, 0
0, 0
0, 0
0, 0
0, 0
0, 0
0, 0
0, 0
0, 0
0, 0
0, 0
0, 0
0, 0
0, 0
0, 0
0, 0
0, 0
0, 0
0, 0
0, 0
0, 0
0, 0
0, 0
0, 0
0, 0
0, 0
0, 0
0, 0
0, 0
0, 0
0, 0
0, 0
0, 0
0, 0
0, 0
0, 0
0, 0
0, 0
0, 0
0, 0
0, 0
0, 0
0, 0
0, 0
0, 0
0, 0
0, 0
0, 0
0, 0
0, 0
0, 0
0, 0
0, 0
0, 0
0, 0
0, 0
0, 0
0, 0
0, 0
0, 0
0, 0
0, 0
0, 0
0, 0
0, 0
0, 0
0, 0
0, 0
0, 0
0, 0
0, 0
0, 0
0, 0
0, 0
0, 0
0, 0
0, 0
0, 0
0, 0
0, 0
0, 0
0, 0
0, 0
0, 0
0, 0
0, 0
0, 0
0, 0
0, 0
0, 0
0, 0
0, 0
0, 0
0, 0
0, 0
0, 0
0, 0
0, 0
0, 0
0, 0
0, 0
0, 0
0, 0
0, 0
0, 0
0, 0
0, 0
0, 0
0, 0
0, 0
0, 0
0, 0
0, 0
0, 0
0, 0
0, 0
0, 0
0, 0
0, 0
0, 0
0, 0
0, 0
0, 0
0, 0
0, 0
0, 0
0, 0
0, 0
0, 0
0, 0
0, 0
0, 0
0, 0
0, 0
0, 0
0, 0
0, 0
0, 0
0, 0
0, 0
0, 0
0, 0
0, 0
0, 0
#ENDOFDATA     end of spectrum data