File: host_upload/06-09-2024/ps_0852/dump3/ps__0852shot_2128.msa
#FORMAT      : EMSA/MAS spectral data file
#VERSION     : TC202v2.0 PIXL
#TITLE       : N/A
#DATE        :       Date in the format DD-MMM-YYYY, for example 07-JUL-2010
#TIME        :             The time of day at which the spectrum was recorded, in 24-hour format
#OWNER       : PIXL Flight Model       (PIXL will use this to indicate which instrument took the data.)
#NPOINTS     : 4096     Number of data points in the spectrum (This can be zero for configuration only files)
#NCOLUMNS    : 2     Number of data columns in the spectrum (This can be zero for configuration only files)
#XUNITS      : eV
#YUNITS      : COUNTS
#DATATYPE    : YY
#XPERCHAN    : 7.862, 7.881   eV per channel (separate by commas if more than one detector)
#OFFSET      : 18.5, -22.4         eV of first channel  (separate by commas if more than one detector
#SIGNALTYPE  : XRF
#YP_TEMP     : 2.267
#LIVETIME    : 8.56734, 8.54912   seconds (separate by commas if more than one detector)
#REALTIME    : 10, 10.0   seconds (separate by commas if more than one detector)
#SPECTRUM    : start of spectrum data
0, 0
0, 0
0, 0
0, 0
0, 0
0, 0
0, 0
0, 0
0, 0
0, 0
0, 0
0, 0
0, 0
0, 0
0, 0
0, 0
0, 0
0, 0
0, 0
0, 0
0, 0
0, 0
0, 0
0, 0
0, 0
0, 0
0, 0
0, 0
0, 0
0, 0
0, 0
1, 0
0, 0
0, 0
0, 0
0, 0
1, 0
0, 0
0, 1
1, 0
1, 0
1, 1
2, 0
1, 0
1, 0
2, 0
2, 1
3, 5
5, 9
7, 8
17, 23
34, 40
51, 53
63, 69
78, 74
63, 74
51, 55
38, 39
28, 17
13, 8
9, 5
8, 3
1, 3
3, 1
7, 8
4, 5
8, 6
6, 17
30, 18
58, 57
99, 93
174, 178
289, 293
409, 343
484, 401
458, 412
395, 379
333, 277
232, 202
143, 130
65, 75
41, 32
31, 31
13, 12
9, 0
3, 5
3, 2
2, 1
1, 2
2, 3
1, 3
0, 0
2, 3
0, 0
1, 2
1, 0
8, 5
4, 6
4, 6
5, 6
3, 5
1, 2
3, 2
4, 3
4, 1
2, 4
7, 2
4, 7
14, 10
17, 17
28, 9
32, 30
34, 32
44, 47
50, 47
51, 39
43, 31
30, 40
48, 28
55, 21
45, 23
45, 17
45, 20
30, 11
32, 21
27, 18
20, 9
13, 2
12, 9
8, 14
10, 7
4, 4
2, 2
2, 5
2, 2
4, 4
2, 3
6, 1
3, 0
4, 1
3, 3
2, 0
1, 4
1, 3
1, 3
1, 7
6, 6
4, 3
13, 9
7, 5
16, 20
21, 24
40, 29
58, 44
69, 73
76, 80
135, 119
105, 90
104, 89
83, 73
76, 63
52, 46
38, 19
23, 15
19, 10
15, 6
13, 10
13, 5
12, 15
18, 17
16, 19
23, 13
11, 22
17, 16
9, 13
11, 12
10, 8
3, 4
6, 5
4, 3
5, 2
4, 2
1, 1
4, 2
3, 1
1, 1
4, 5
8, 3
5, 3
5, 9
10, 9
16, 11
14, 15
12, 6
10, 17
14, 11
16, 11
19, 11
16, 7
17, 12
10, 7
10, 5
13, 11
12, 6
4, 6
8, 3
9, 4
7, 6
14, 7
6, 8
16, 9
14, 8
19, 11
18, 16
17, 29
17, 18
18, 27
16, 37
15, 27
20, 32
18, 31
11, 33
12, 30
10, 27
14, 17
9, 11
7, 19
13, 21
15, 19
14, 18
18, 23
20, 27
19, 16
16, 18
15, 7
13, 9
12, 11
8, 17
11, 6
10, 6
15, 12
8, 8
9, 16
15, 16
13, 18
20, 21
26, 35
33, 67
48, 51
41, 74
69, 50
74, 69
52, 61
59, 54
53, 55
49, 26
38, 28
31, 11
20, 18
30, 8
24, 16
30, 39
45, 74
72, 85
172, 178
285, 298
457, 541
776, 784
1088, 1142
1445, 1523
1762, 1891
2099, 2094
2198, 2069
2204, 1996
1941, 1637
1539, 1333
1167, 1034
903, 651
526, 403
329, 233
184, 137
114, 62
51, 33
31, 27
20, 26
26, 22
18, 11
20, 18
29, 23
29, 19
30, 33
42, 30
66, 56
81, 78
103, 109
120, 148
197, 195
208, 234
292, 288
314, 318
335, 299
290, 298
302, 258
230, 209
167, 144
143, 106
81, 73
51, 46
23, 20
22, 16
13, 12
5, 11
16, 11
12, 9
12, 11
14, 12
8, 14
10, 9
14, 10
10, 11
12, 9
15, 12
12, 6
9, 4
7, 3
9, 8
3, 1
3, 4
2, 2
4, 5
1, 4
4, 3
3, 3
5, 11
4, 12
1, 6
5, 9
3, 9
3, 10
7, 13
5, 8
1, 9
5, 8
6, 10
6, 6
7, 8
5, 4
7, 6
4, 6
6, 6
8, 3
8, 4
6, 6
7, 6
6, 1
6, 1
7, 3
18, 4
8, 3
15, 2
14, 10
12, 6
8, 6
13, 5
7, 3
4, 3
5, 2
8, 4
9, 5
7, 3
3, 3
4, 5
5, 4
1, 3
1, 4
5, 3
5, 3
1, 5
4, 5
6, 6
2, 2
5, 2
7, 6
4, 3
4, 2
7, 5
2, 6
11, 2
3, 2
6, 4
4, 2
5, 1
6, 3
1, 5
5, 4
4, 2
4, 2
1, 1
2, 2
1, 2
5, 5
4, 5
2, 3
0, 8
3, 9
1, 9
5, 6
4, 3
2, 8
2, 14
6, 7
6, 8
1, 5
5, 11
3, 5
4, 11
4, 9
3, 5
5, 2
1, 3
1, 1
3, 5
3, 4
4, 6
6, 3
9, 4
7, 4
14, 3
13, 2
8, 4
16, 4
14, 0
10, 0
16, 5
15, 2
15, 4
15, 3
17, 3
18, 1
9, 4
8, 2
5, 5
1, 1
8, 3
6, 2
1, 3
1, 4
1, 2
3, 4
2, 5
2, 2
6, 1
3, 5
4, 3
2, 1
4, 1
2, 5
1, 4
3, 4
2, 2
1, 3
3, 4
2, 2
3, 2
3, 1
2, 6
1, 6
3, 5
4, 3
1, 8
1, 8
1, 5
1, 8
3, 2
1, 4
6, 5
3, 4
1, 5
1, 1
1, 2
1, 1
2, 2
1, 3
2, 0
3, 1
3, 1
3, 3
3, 1
2, 0
4, 2
2, 2
3, 3
0, 1
3, 3
0, 1
2, 1
2, 4
1, 4
1, 2
0, 1
2, 1
3, 4
0, 2
1, 2
0, 1
3, 3
1, 3
3, 3
4, 5
1, 0
2, 1
1, 1
1, 2
2, 2
0, 2
1, 0
1, 1
2, 3
0, 5
1, 2
2, 3
1, 1
1, 3
2, 4
2, 1
5, 2
0, 1
1, 1
1, 2
1, 0
1, 2
3, 2
1, 1
3, 4
3, 3
4, 1
3, 2
2, 2
4, 1
0, 5
5, 6
4, 3
7, 10
4, 3
4, 3
1, 4
6, 2
1, 1
1, 2
3, 3
3, 0
1, 3
1, 2
0, 0
1, 0
2, 2
0, 1
0, 1
1, 1
0, 2
0, 1
1, 3
2, 2
0, 3
0, 1
2, 2
1, 2
3, 3
1, 3
1, 0
1, 1
1, 0
2, 1
1, 1
1, 3
2, 1
3, 3
3, 2
0, 1
1, 1
1, 2
1, 3
1, 0
2, 0
2, 1
1, 0
1, 2
1, 1
2, 1
0, 1
0, 1
1, 1
1, 1
2, 0
0, 1
0, 0
1, 2
0, 0
1, 0
0, 1
0, 1
1, 0
0, 2
2, 1
1, 1
2, 0
1, 1
0, 0
1, 1
1, 1
0, 0
2, 1
1, 0
1, 0
3, 0
1, 1
2, 1
0, 0
1, 1
1, 1
1, 0
0, 1
1, 3
2, 1
1, 0
0, 0
0, 0
0, 0
1, 0
1, 0
3, 0
0, 0
1, 1
0, 0
0, 0
0, 1
3, 0
1, 0
1, 1
1, 0
0, 3
0, 0
1, 0
0, 1
0, 1
0, 2
0, 0
1, 1
1, 0
2, 0
2, 1
0, 2
3, 1
0, 0
0, 1
2, 1
2, 1
0, 0
0, 0
0, 0
0, 0
0, 0
0, 1
0, 0
0, 0
1, 0
0, 0
0, 0
0, 0
0, 3
0, 0
1, 0
0, 0
0, 0
1, 0
1, 2
0, 0
0, 1
0, 4
2, 2
0, 0
0, 0
0, 0
1, 1
0, 0
1, 1
1, 2
0, 0
1, 0
0, 0
1, 0
0, 0
1, 0
0, 0
0, 0
0, 0
0, 0
1, 0
1, 0
0, 0
0, 0
0, 0
1, 0
1, 0
0, 0
1, 1
0, 0
1, 0
0, 0
0, 0
2, 0
0, 0
0, 0
0, 0
0, 0
0, 0
1, 0
1, 1
1, 0
1, 0
1, 2
0, 0
1, 1
1, 0
0, 1
0, 0
0, 0
0, 0
0, 0
0, 0
0, 0
0, 0
1, 0
0, 1
0, 0
0, 0
0, 0
0, 1
1, 1
0, 0
0, 0
0, 0
0, 0
0, 0
0, 0
0, 0
0, 1
0, 0
1, 0
1, 0
1, 0
0, 0
1, 0
0, 1
0, 0
2, 0
1, 1
1, 0
0, 0
0, 0
0, 0
1, 0
1, 0
1, 0
0, 0
0, 0
0, 0
0, 0
0, 0
0, 0
0, 0
0, 0
0, 1
0, 0
0, 0
0, 1
1, 0
0, 0
0, 0
0, 0
0, 0
1, 1
0, 0
0, 0
1, 0
1, 0
0, 0
1, 0
0, 0
0, 0
0, 0
1, 0
1, 1
0, 0
1, 0
0, 0
0, 1
1, 0
1, 0
1, 0
0, 0
0, 0
0, 0
1, 1
0, 0
1, 0
0, 0
0, 0
0, 0
0, 0
0, 0
0, 0
1, 0
1, 0
0, 0
0, 0
0, 0
0, 1
0, 0
0, 0
1, 0
0, 0
1, 0
1, 0
0, 1
0, 0
0, 0
0, 0
0, 0
0, 0
1, 0
0, 0
0, 0
0, 0
0, 0
1, 0
0, 0
0, 1
0, 0
1, 0
0, 0
0, 1
0, 0
0, 0
0, 0
0, 0
0, 0
0, 0
0, 0
0, 0
0, 0
0, 1
0, 0
0, 0
2, 0
0, 0
0, 0
1, 0
0, 0
0, 0
0, 0
0, 0
0, 0
0, 0
0, 0
0, 0
0, 0
0, 0
0, 1
0, 0
0, 0
0, 1
0, 0
0, 0
0, 0
0, 0
0, 0
0, 0
0, 0
0, 0
0, 1
0, 0
0, 0
0, 0
0, 0
0, 0
0, 1
0, 0
0, 0
0, 0
0, 0
0, 1
0, 0
0, 0
1, 0
0, 0
0, 0
0, 0
1, 0
1, 0
0, 0
0, 0
0, 0
0, 0
0, 0
0, 0
0, 0
0, 0
0, 0
0, 0
0, 0
0, 0
0, 0
0, 0
0, 0
0, 0
0, 0
0, 0
0, 0
0, 0
0, 0
0, 0
0, 0
0, 0
0, 0
0, 0
0, 0
0, 0
0, 0
0, 0
0, 0
0, 0
0, 1
0, 0
0, 0
0, 0
0, 0
0, 0
0, 0
0, 0
0, 0
0, 0
0, 0
0, 0
0, 0
0, 0
0, 0
0, 0
0, 0
0, 0
0, 0
0, 0
0, 0
0, 0
0, 0
1, 0
0, 0
0, 1
0, 0
0, 0
0, 0
0, 1
0, 0
0, 0
0, 0
0, 0
0, 0
0, 0
0, 0
0, 0
0, 0
0, 0
0, 0
0, 0
0, 0
0, 0
0, 0
0, 0
0, 1
0, 0
0, 0
0, 0
0, 0
0, 0
0, 0
0, 0
0, 0
1, 0
0, 0
0, 0
0, 0
0, 0
0, 0
0, 0
0, 0
0, 0
0, 0
0, 0
0, 0
0, 0
0, 0
0, 0
0, 0
0, 0
0, 0
0, 0
0, 0
0, 0
0, 0
0, 0
0, 0
0, 0
0, 0
0, 2
0, 0
0, 1
0, 0
0, 0
0, 0
0, 0
0, 0
0, 0
0, 0
0, 0
0, 0
0, 0
0, 0
0, 0
0, 0
0, 0
0, 0
0, 0
0, 0
0, 0
0, 0
0, 0
0, 0
0, 0
0, 0
0, 0
0, 0
0, 0
0, 0
0, 0
0, 0
0, 0
0, 0
0, 0
0, 0
0, 0
0, 0
0, 0
0, 0
0, 0
0, 0
0, 0
0, 0
0, 0
0, 0
0, 0
0, 0
0, 0
0, 0
0, 0
0, 0
0, 0
0, 0
0, 0
0, 0
0, 0
0, 0
0, 0
0, 0
0, 0
0, 0
0, 0
0, 0
0, 0
0, 0
0, 0
0, 0
0, 0
0, 0
0, 0
0, 0
0, 0
0, 0
0, 0
0, 0
0, 0
0, 0
0, 0
0, 0
0, 0
0, 0
0, 0
0, 0
0, 0
0, 0
0, 0
0, 0
0, 0
0, 0
0, 0
0, 0
0, 0
0, 0
0, 0
0, 0
0, 0
0, 0
0, 0
0, 0
0, 0
0, 0
0, 0
0, 0
0, 0
0, 0
0, 0
0, 0
0, 0
0, 0
0, 0
0, 0
0, 0
0, 0
0, 0
0, 0
0, 0
0, 0
0, 0
0, 0
0, 0
0, 0
0, 0
0, 0
0, 0
0, 0
0, 0
0, 0
0, 0
0, 0
0, 0
0, 0
0, 0
0, 0
0, 0
0, 0
0, 0
0, 0
0, 0
0, 0
0, 0
0, 0
0, 0
0, 0
0, 0
0, 0
0, 0
0, 0
0, 0
0, 0
0, 0
0, 0
0, 0
0, 0
0, 0
0, 0
0, 0
0, 0
0, 0
0, 0
0, 0
0, 0
0, 0
0, 0
0, 0
0, 0
0, 0
0, 0
0, 0
0, 0
0, 0
0, 0
0, 0
0, 0
0, 0
0, 0
0, 0
0, 0
0, 0
0, 0
0, 0
0, 0
0, 0
0, 0
0, 0
0, 0
0, 0
0, 0
0, 0
0, 0
0, 0
0, 0
0, 0
0, 0
0, 0
0, 0
0, 0
0, 0
0, 0
0, 0
0, 0
0, 0
0, 0
0, 0
0, 0
0, 0
0, 0
0, 0
0, 0
0, 0
0, 0
0, 0
0, 0
0, 0
0, 0
0, 0
0, 0
0, 0
0, 0
0, 0
0, 0
0, 0
0, 0
0, 0
0, 0
0, 0
0, 0
0, 0
0, 0
0, 0
0, 0
0, 0
0, 0
0, 0
0, 0
0, 0
0, 0
0, 0
0, 0
0, 0
0, 0
0, 0
0, 0
0, 0
0, 0
0, 0
0, 0
0, 0
0, 0
0, 0
0, 0
0, 0
0, 0
0, 0
0, 0
0, 0
0, 0
0, 0
0, 0
0, 0
0, 0
0, 0
0, 0
0, 0
0, 0
0, 0
0, 0
0, 0
0, 0
0, 0
0, 0
0, 0
0, 0
0, 0
0, 0
0, 0
0, 0
0, 0
0, 0
0, 0
0, 0
0, 0
0, 0
0, 0
0, 0
0, 0
0, 0
0, 0
0, 0
0, 0
0, 0
0, 0
0, 0
0, 0
0, 0
0, 0
0, 0
0, 0
0, 0
0, 0
0, 0
0, 0
0, 0
0, 0
0, 0
0, 0
0, 0
0, 0
0, 0
0, 0
0, 0
0, 0
0, 0
0, 0
0, 0
0, 0
0, 0
0, 0
0, 0
0, 0
0, 0
0, 0
0, 0
0, 0
0, 0
0, 0
0, 0
0, 0
0, 0
0, 0
0, 0
0, 0
0, 0
0, 0
0, 0
0, 0
0, 0
0, 0
0, 0
0, 0
0, 0
0, 0
0, 0
0, 0
0, 0
0, 0
0, 0
0, 0
0, 0
0, 0
0, 0
0, 0
0, 0
#ENDOFDATA     end of spectrum data