File: host_upload/06-09-2024/ps_0852/dump3/ps__0852shot_2497.msa
#FORMAT      : EMSA/MAS spectral data file
#VERSION     : TC202v2.0 PIXL
#TITLE       : N/A
#DATE        :       Date in the format DD-MMM-YYYY, for example 07-JUL-2010
#TIME        :             The time of day at which the spectrum was recorded, in 24-hour format
#OWNER       : PIXL Flight Model       (PIXL will use this to indicate which instrument took the data.)
#NPOINTS     : 4096     Number of data points in the spectrum (This can be zero for configuration only files)
#NCOLUMNS    : 2     Number of data columns in the spectrum (This can be zero for configuration only files)
#XUNITS      : eV
#YUNITS      : COUNTS
#DATATYPE    : YY
#XPERCHAN    : 7.862, 7.881   eV per channel (separate by commas if more than one detector)
#OFFSET      : 18.5, -22.4         eV of first channel  (separate by commas if more than one detector
#SIGNALTYPE  : XRF
#YP_TEMP     : 2.556
#LIVETIME    : 8.5636, 8.55238   seconds (separate by commas if more than one detector)
#REALTIME    : 10, 10.0   seconds (separate by commas if more than one detector)
#SPECTRUM    : start of spectrum data
0, 0
0, 0
0, 0
0, 0
0, 0
0, 0
0, 0
0, 0
0, 0
0, 0
0, 0
0, 0
0, 0
0, 0
0, 0
0, 0
0, 0
0, 0
0, 0
0, 0
0, 0
0, 0
0, 0
0, 0
0, 0
0, 0
0, 0
0, 0
0, 0
0, 0
0, 0
0, 0
0, 0
0, 0
0, 0
0, 1
3, 0
0, 1
0, 0
0, 4
2, 0
1, 0
4, 0
5, 2
1, 3
1, 2
1, 1
3, 3
2, 2
9, 12
16, 14
24, 17
34, 32
52, 53
60, 59
72, 32
60, 50
32, 23
19, 17
10, 12
5, 3
4, 4
6, 6
2, 7
4, 5
7, 4
2, 3
12, 6
27, 19
53, 44
118, 91
209, 138
299, 241
437, 346
479, 403
478, 395
414, 349
358, 297
230, 140
148, 107
71, 62
45, 21
19, 22
5, 9
6, 5
9, 4
2, 6
2, 2
0, 4
3, 0
2, 1
1, 1
0, 3
3, 0
6, 5
2, 5
4, 3
7, 4
9, 4
5, 9
8, 6
5, 5
2, 5
8, 7
6, 8
7, 11
8, 12
22, 22
38, 40
53, 48
73, 61
98, 73
114, 90
100, 100
119, 85
108, 77
89, 62
56, 51
63, 51
57, 42
48, 33
41, 30
25, 28
35, 22
27, 26
16, 31
19, 20
21, 16
8, 13
10, 10
5, 6
4, 7
7, 6
4, 1
6, 1
3, 1
5, 2
5, 3
2, 6
3, 1
1, 1
2, 1
2, 5
2, 4
6, 0
5, 0
4, 2
2, 0
2, 2
4, 3
9, 7
12, 8
23, 11
18, 17
37, 30
45, 38
76, 43
70, 55
81, 42
57, 40
54, 28
41, 30
28, 13
15, 16
10, 8
16, 10
13, 13
14, 5
15, 8
16, 9
35, 10
21, 9
30, 15
21, 4
20, 10
22, 1
12, 3
12, 9
8, 4
8, 4
7, 4
8, 3
3, 4
8, 3
6, 2
1, 5
7, 5
7, 11
8, 9
15, 16
15, 16
10, 12
21, 22
16, 11
12, 14
15, 14
10, 15
25, 15
15, 16
13, 8
14, 7
20, 12
17, 10
15, 7
13, 7
12, 8
9, 5
9, 8
13, 9
14, 3
8, 6
13, 6
6, 10
6, 9
5, 6
7, 9
4, 6
8, 5
6, 0
12, 3
11, 5
7, 5
11, 10
5, 9
15, 9
27, 25
49, 40
50, 48
47, 40
67, 53
66, 60
65, 58
62, 46
47, 44
49, 29
30, 21
33, 13
17, 23
18, 5
11, 13
9, 8
8, 10
19, 6
9, 14
23, 12
28, 23
22, 24
32, 37
51, 50
79, 50
71, 79
80, 52
70, 57
72, 57
50, 39
39, 26
40, 28
27, 20
25, 14
21, 9
16, 19
35, 54
44, 40
91, 89
162, 162
281, 322
462, 544
793, 837
1220, 1213
1566, 1545
2081, 1985
2347, 2122
2508, 2226
2417, 2033
2142, 1818
1796, 1416
1354, 945
957, 667
564, 405
291, 226
219, 120
119, 63
61, 31
32, 27
18, 12
15, 15
20, 10
20, 11
7, 12
16, 9
29, 21
29, 27
52, 40
75, 78
96, 115
144, 145
190, 210
257, 252
320, 312
365, 345
330, 343
341, 285
332, 263
249, 203
169, 133
147, 95
90, 60
56, 29
32, 25
17, 20
10, 8
15, 6
9, 2
9, 15
10, 11
10, 16
9, 10
20, 8
8, 16
10, 10
12, 7
17, 12
11, 11
13, 2
11, 8
10, 5
7, 8
8, 1
15, 7
10, 2
7, 7
14, 3
13, 5
10, 13
2, 6
12, 10
4, 13
4, 7
6, 7
5, 11
5, 7
4, 11
9, 5
7, 7
16, 3
10, 4
12, 2
14, 5
12, 7
16, 3
14, 4
17, 1
5, 5
7, 4
8, 4
7, 4
6, 3
1, 1
6, 2
3, 7
2, 2
3, 2
2, 1
4, 3
8, 1
3, 1
3, 3
3, 2
5, 4
3, 4
3, 2
4, 2
4, 6
5, 3
2, 3
4, 4
2, 4
3, 3
4, 2
4, 0
3, 1
2, 4
1, 3
3, 3
1, 4
5, 5
7, 4
2, 3
6, 7
5, 4
4, 2
3, 6
2, 12
1, 14
6, 8
3, 29
2, 29
7, 14
6, 33
9, 29
8, 24
1, 19
4, 25
5, 19
4, 10
5, 21
3, 6
5, 5
3, 1
5, 1
3, 5
3, 4
2, 3
2, 5
4, 1
5, 5
1, 1
5, 3
4, 2
5, 4
2, 2
1, 3
5, 2
4, 4
4, 2
8, 2
5, 0
1, 1
2, 2
1, 3
3, 3
4, 3
5, 1
2, 3
1, 3
6, 2
3, 2
3, 1
1, 2
6, 4
3, 2
4, 2
1, 2
1, 3
2, 4
1, 2
2, 6
0, 2
3, 1
2, 3
7, 2
2, 1
0, 5
0, 3
4, 1
1, 5
3, 3
3, 3
0, 3
1, 0
2, 0
1, 3
3, 4
6, 3
4, 2
3, 2
6, 1
3, 2
1, 2
2, 3
5, 3
1, 3
4, 4
3, 0
3, 2
5, 3
1, 1
2, 2
6, 0
4, 2
5, 1
3, 0
2, 1
2, 2
2, 0
3, 2
2, 1
4, 2
4, 3
4, 2
4, 1
3, 3
3, 1
5, 3
6, 1
5, 3
1, 1
4, 1
4, 4
6, 1
5, 1
7, 1
4, 0
5, 3
3, 1
3, 2
1, 3
1, 2
2, 0
3, 2
0, 1
6, 0
1, 0
5, 1
2, 0
0, 0
2, 1
2, 2
3, 2
2, 2
4, 2
1, 0
2, 5
3, 6
4, 2
3, 2
0, 2
2, 1
3, 1
1, 0
4, 1
4, 1
1, 2
1, 1
3, 2
0, 1
2, 2
3, 2
0, 0
0, 4
5, 3
9, 2
6, 1
9, 5
7, 3
3, 1
2, 2
0, 3
1, 1
2, 1
1, 3
4, 2
5, 1
2, 1
1, 1
2, 2
1, 2
0, 1
2, 0
1, 3
0, 4
2, 1
0, 0
1, 3
0, 2
0, 2
2, 2
1, 0
5, 0
0, 1
1, 1
3, 1
1, 0
3, 2
1, 0
1, 1
1, 1
2, 0
0, 1
1, 0
3, 1
2, 2
1, 1
0, 3
0, 0
0, 0
2, 0
0, 0
3, 3
3, 0
2, 2
1, 1
1, 0
1, 0
0, 1
1, 0
2, 1
0, 0
0, 1
2, 1
1, 0
1, 0
2, 3
0, 1
1, 2
0, 0
4, 1
0, 0
1, 0
1, 0
0, 0
1, 3
0, 2
0, 1
0, 1
1, 1
0, 0
0, 2
1, 0
0, 0
2, 1
2, 3
0, 0
1, 2
1, 3
3, 0
2, 1
1, 2
0, 1
1, 0
3, 3
0, 1
1, 0
2, 2
0, 2
0, 0
0, 0
1, 1
3, 0
1, 3
0, 0
1, 1
1, 0
1, 0
2, 0
0, 0
2, 0
2, 0
0, 0
1, 1
1, 1
1, 1
0, 4
1, 0
0, 0
0, 2
2, 0
2, 1
0, 1
0, 1
0, 0
0, 0
0, 0
2, 1
1, 0
0, 0
2, 1
0, 0
0, 2
1, 0
0, 3
0, 0
0, 1
0, 0
0, 1
0, 1
0, 2
0, 0
0, 1
0, 2
0, 1
1, 0
1, 0
0, 0
1, 0
1, 0
2, 1
0, 0
0, 0
0, 0
0, 0
0, 0
0, 0
0, 0
1, 0
1, 1
0, 0
1, 0
0, 1
1, 0
1, 1
0, 0
1, 0
1, 0
0, 0
0, 0
1, 0
1, 0
1, 2
0, 0
0, 0
1, 0
0, 0
0, 0
1, 1
0, 0
0, 0
0, 2
0, 0
1, 0
1, 0
0, 1
0, 0
1, 0
0, 0
0, 0
0, 0
3, 1
0, 1
0, 0
0, 1
0, 0
1, 0
0, 0
0, 0
0, 0
1, 0
0, 0
0, 0
0, 0
0, 0
0, 1
0, 0
0, 0
0, 0
0, 1
0, 1
0, 0
0, 0
1, 1
0, 0
0, 0
0, 1
0, 0
0, 0
1, 0
0, 0
0, 0
0, 0
0, 0
0, 0
0, 0
0, 0
0, 0
0, 0
1, 1
0, 1
0, 0
0, 0
0, 0
0, 0
0, 0
0, 0
1, 0
1, 0
0, 0
1, 0
2, 0
0, 0
0, 1
0, 0
1, 0
0, 0
0, 1
2, 0
0, 0
1, 1
0, 0
0, 0
0, 0
0, 0
0, 0
0, 0
0, 0
0, 0
1, 1
1, 2
0, 1
0, 0
0, 0
0, 0
0, 0
0, 1
0, 1
1, 0
0, 0
0, 0
0, 0
0, 0
1, 0
2, 0
1, 0
1, 0
0, 0
0, 0
0, 0
0, 0
0, 0
1, 0
1, 0
0, 0
0, 0
0, 1
0, 0
0, 1
0, 0
0, 0
0, 0
0, 0
0, 0
0, 0
0, 0
0, 0
0, 0
0, 0
0, 0
0, 0
0, 0
0, 0
0, 1
0, 0
0, 0
0, 0
1, 0
0, 1
0, 0
0, 0
0, 0
0, 0
0, 0
0, 1
0, 0
0, 0
0, 0
0, 0
2, 0
0, 0
1, 0
0, 0
0, 0
1, 0
0, 0
0, 1
0, 0
2, 0
1, 0
0, 0
0, 0
0, 0
0, 0
0, 0
1, 0
0, 0
0, 0
0, 0
0, 0
0, 0
0, 0
0, 0
0, 0
0, 0
0, 0
0, 0
0, 0
0, 0
0, 0
0, 0
0, 0
0, 0
0, 0
0, 0
1, 1
0, 0
0, 0
0, 0
0, 0
0, 0
0, 0
0, 0
0, 0
0, 1
0, 0
0, 0
0, 1
0, 0
0, 0
0, 0
0, 0
0, 0
0, 0
1, 0
0, 1
0, 0
0, 0
0, 0
0, 0
0, 0
0, 0
0, 0
0, 0
0, 0
0, 0
0, 0
0, 0
0, 0
0, 0
0, 0
0, 0
0, 0
0, 0
0, 0
0, 0
0, 0
0, 0
0, 0
0, 0
0, 0
0, 0
0, 0
0, 0
0, 0
0, 0
0, 0
0, 0
0, 0
0, 0
0, 0
0, 0
0, 0
1, 0
0, 0
0, 0
0, 0
0, 0
0, 0
0, 0
0, 0
0, 0
0, 0
0, 0
0, 0
0, 0
0, 0
0, 0
0, 0
0, 0
0, 0
0, 0
0, 0
0, 0
0, 0
0, 0
0, 0
0, 0
0, 0
0, 0
0, 0
0, 0
0, 0
0, 0
0, 0
0, 0
0, 0
0, 0
0, 0
0, 0
0, 0
0, 0
1, 0
0, 0
0, 0
0, 0
0, 0
0, 0
0, 0
0, 0
0, 0
0, 0
0, 0
0, 0
0, 0
0, 0
0, 0
0, 0
0, 0
0, 0
0, 0
1, 0
0, 0
0, 0
0, 0
0, 0
0, 0
0, 0
0, 0
0, 0
0, 0
1, 0
0, 0
0, 0
0, 0
0, 0
0, 0
0, 0
0, 0
0, 0
0, 0
0, 0
0, 0
0, 0
0, 0
0, 0
0, 0
0, 0
0, 0
0, 0
0, 0
0, 0
0, 0
0, 0
0, 0
0, 0
0, 0
0, 0
0, 0
0, 0
0, 0
0, 0
0, 0
0, 0
0, 0
0, 0
0, 0
0, 1
0, 0
0, 0
0, 0
0, 0
0, 0
0, 0
0, 0
0, 0
0, 0
0, 0
0, 0
0, 0
0, 0
0, 0
0, 0
0, 0
0, 0
0, 0
0, 0
0, 0
0, 0
0, 0
0, 0
0, 0
0, 0
0, 0
0, 0
0, 0
0, 0
0, 0
0, 0
0, 0
0, 0
0, 0
0, 0
0, 0
0, 0
0, 0
0, 0
0, 0
0, 0
0, 0
0, 0
0, 0
0, 0
0, 0
0, 0
0, 0
0, 0
0, 0
0, 0
0, 0
0, 0
0, 0
0, 0
0, 0
0, 0
0, 0
0, 0
0, 0
0, 0
0, 0
0, 0
0, 0
1, 0
0, 0
0, 0
0, 0
0, 0
0, 0
0, 0
0, 0
0, 0
0, 0
0, 0
0, 0
0, 0
0, 0
0, 0
0, 0
0, 0
0, 0
0, 0
0, 0
0, 0
0, 0
0, 0
0, 0
0, 0
0, 0
0, 0
0, 0
0, 0
0, 0
0, 0
0, 0
0, 0
0, 0
0, 0
0, 0
0, 0
0, 0
0, 0
0, 0
0, 0
0, 0
0, 0
0, 0
0, 0
0, 0
0, 0
0, 0
0, 0
0, 0
0, 0
0, 0
0, 0
0, 0
0, 0
0, 0
0, 0
0, 0
0, 0
0, 0
0, 0
0, 0
0, 0
0, 0
0, 0
0, 0
0, 0
0, 0
0, 0
0, 0
0, 0
0, 0
0, 0
0, 0
0, 0
0, 0
0, 0
0, 0
0, 0
0, 0
0, 0
0, 0
0, 0
0, 0
0, 0
0, 0
0, 0
0, 0
0, 0
0, 0
0, 0
0, 0
0, 0
0, 0
0, 0
0, 0
0, 0
0, 0
0, 0
0, 0
0, 0
0, 0
0, 0
0, 0
0, 0
0, 0
0, 0
0, 0
0, 0
0, 0
0, 0
0, 0
0, 0
0, 0
0, 0
0, 0
0, 0
0, 0
0, 0
0, 0
0, 0
0, 0
0, 0
0, 0
0, 0
0, 0
0, 0
0, 0
0, 0
0, 0
0, 0
0, 0
0, 0
0, 0
0, 0
0, 0
0, 0
0, 0
0, 0
0, 0
0, 0
0, 0
0, 0
0, 0
0, 0
0, 0
0, 0
0, 0
0, 0
0, 0
0, 0
0, 0
0, 0
0, 0
0, 0
0, 0
0, 0
0, 0
0, 0
0, 0
0, 0
0, 0
0, 0
0, 0
0, 0
0, 0
0, 0
0, 0
0, 0
0, 0
0, 0
0, 0
0, 0
0, 0
0, 0
0, 0
0, 0
0, 0
0, 0
0, 0
0, 0
0, 0
0, 0
0, 0
0, 0
0, 0
0, 0
0, 0
0, 0
0, 0
0, 0
0, 0
0, 0
0, 0
0, 0
0, 0
0, 0
0, 0
0, 0
0, 0
0, 0
0, 0
0, 0
0, 0
0, 0
0, 0
0, 0
0, 0
0, 0
0, 0
0, 0
0, 0
0, 0
0, 0
0, 0
0, 0
0, 0
0, 0
0, 0
0, 0
0, 0
0, 0
0, 0
0, 0
0, 0
0, 0
0, 0
0, 0
0, 0
0, 0
0, 0
0, 0
0, 0
0, 0
0, 0
0, 0
0, 0
0, 0
0, 0
0, 0
0, 0
0, 0
0, 0
0, 0
0, 0
0, 0
0, 0
0, 0
#ENDOFDATA     end of spectrum data