File: host_upload/06-09-2024/ps_0852/dump3/ps__0852shot_2263.msa
#FORMAT      : EMSA/MAS spectral data file
#VERSION     : TC202v2.0 PIXL
#TITLE       : N/A
#DATE        :       Date in the format DD-MMM-YYYY, for example 07-JUL-2010
#TIME        :             The time of day at which the spectrum was recorded, in 24-hour format
#OWNER       : PIXL Flight Model       (PIXL will use this to indicate which instrument took the data.)
#NPOINTS     : 4096     Number of data points in the spectrum (This can be zero for configuration only files)
#NCOLUMNS    : 2     Number of data columns in the spectrum (This can be zero for configuration only files)
#XUNITS      : eV
#YUNITS      : COUNTS
#DATATYPE    : YY
#XPERCHAN    : 7.862, 7.881   eV per channel (separate by commas if more than one detector)
#OFFSET      : 18.5, -22.4         eV of first channel  (separate by commas if more than one detector
#SIGNALTYPE  : XRF
#YP_TEMP     : 2.235
#LIVETIME    : 8.56608, 8.57301   seconds (separate by commas if more than one detector)
#REALTIME    : 10, 10.0   seconds (separate by commas if more than one detector)
#SPECTRUM    : start of spectrum data
0, 0
0, 0
0, 0
0, 0
0, 0
0, 0
0, 0
0, 0
0, 0
0, 0
0, 0
0, 0
0, 0
0, 0
0, 0
0, 0
0, 0
0, 0
0, 0
0, 0
0, 0
0, 0
0, 0
0, 0
0, 0
0, 0
0, 0
0, 0
0, 0
0, 0
0, 0
0, 0
0, 0
0, 0
0, 0
0, 0
0, 1
1, 1
1, 4
0, 3
0, 2
2, 5
2, 4
1, 4
0, 2
0, 0
2, 0
5, 4
4, 7
10, 16
23, 33
34, 50
57, 64
73, 86
90, 84
82, 85
72, 75
34, 54
33, 45
17, 16
8, 6
3, 3
3, 2
1, 6
2, 4
3, 4
3, 7
11, 14
24, 19
50, 52
88, 119
170, 198
249, 304
362, 415
360, 426
390, 435
351, 399
275, 300
187, 211
119, 122
69, 81
32, 47
18, 16
12, 3
10, 6
4, 3
4, 2
3, 2
1, 1
0, 2
1, 2
2, 1
2, 0
1, 2
1, 0
1, 2
3, 3
2, 0
4, 2
4, 3
2, 5
2, 3
1, 3
3, 2
4, 0
4, 5
3, 3
6, 10
8, 21
14, 40
28, 42
48, 94
47, 123
68, 186
92, 212
88, 216
79, 203
68, 163
55, 169
38, 102
40, 67
28, 54
21, 26
17, 19
16, 17
19, 17
18, 22
9, 14
15, 7
8, 6
7, 7
6, 7
4, 4
3, 2
2, 6
1, 2
4, 3
5, 3
0, 0
0, 1
1, 0
1, 4
5, 1
0, 0
0, 2
1, 1
4, 5
3, 1
0, 4
3, 0
2, 4
4, 4
2, 4
9, 9
9, 9
11, 21
10, 20
15, 20
18, 11
8, 11
14, 9
10, 4
6, 9
3, 7
2, 7
1, 3
2, 6
3, 4
9, 8
7, 8
11, 4
9, 11
22, 8
22, 9
30, 5
36, 9
41, 4
35, 2
31, 3
32, 4
32, 4
15, 7
15, 5
8, 4
5, 4
12, 3
5, 1
4, 4
4, 12
6, 8
10, 10
11, 7
6, 10
7, 16
15, 16
8, 21
6, 15
14, 33
9, 47
14, 58
8, 76
11, 92
8, 98
14, 102
7, 107
8, 80
7, 68
7, 45
11, 35
5, 22
6, 12
4, 18
2, 11
7, 3
6, 9
3, 6
5, 7
4, 10
2, 4
4, 10
5, 3
7, 14
2, 8
8, 7
4, 9
5, 5
17, 5
17, 12
10, 8
10, 13
10, 10
20, 19
18, 18
29, 11
34, 9
48, 8
42, 5
44, 11
40, 10
29, 10
39, 4
27, 8
26, 8
20, 7
18, 18
26, 16
26, 44
39, 45
42, 56
52, 81
56, 63
59, 60
60, 65
50, 58
55, 46
41, 37
26, 23
17, 24
19, 39
18, 39
21, 32
25, 51
46, 87
82, 133
138, 233
246, 382
466, 634
715, 947
1064, 1425
1500, 1902
1840, 2323
2157, 2560
2295, 2659
2223, 2435
2004, 2064
1671, 1720
1258, 1234
878, 846
571, 578
320, 324
176, 203
79, 100
54, 74
30, 59
30, 25
16, 33
25, 22
33, 15
33, 19
41, 25
47, 25
55, 59
65, 54
92, 95
124, 130
120, 184
200, 257
273, 316
282, 324
333, 397
365, 334
325, 350
285, 313
228, 206
170, 165
122, 111
83, 78
56, 55
24, 20
16, 15
13, 8
6, 6
6, 2
11, 9
7, 15
9, 17
8, 20
16, 10
6, 14
9, 13
9, 13
11, 9
9, 5
5, 5
2, 2
5, 3
4, 3
6, 6
3, 6
4, 5
4, 2
1, 5
1, 6
2, 9
3, 5
2, 8
2, 5
4, 8
3, 10
4, 2
2, 7
4, 8
5, 4
8, 4
17, 4
9, 2
26, 5
27, 6
39, 5
46, 7
44, 5
59, 7
44, 8
54, 2
46, 9
52, 5
44, 2
27, 3
14, 3
7, 7
12, 2
12, 5
9, 7
6, 6
2, 5
4, 7
3, 4
9, 5
2, 1
4, 5
3, 5
3, 2
4, 7
3, 4
1, 4
2, 3
3, 2
4, 2
3, 2
5, 5
1, 0
1, 4
3, 2
3, 4
2, 5
4, 2
7, 2
2, 1
4, 8
1, 3
3, 5
3, 3
5, 5
1, 5
1, 6
6, 8
2, 4
2, 4
7, 2
3, 6
4, 3
1, 8
3, 4
1, 7
5, 5
2, 7
1, 5
3, 5
7, 6
0, 6
1, 4
9, 6
6, 5
1, 5
3, 3
2, 7
1, 2
1, 11
3, 5
3, 5
1, 3
3, 5
4, 4
3, 6
1, 2
5, 1
1, 6
5, 3
0, 3
2, 3
5, 1
4, 4
5, 4
2, 3
1, 3
1, 8
3, 3
2, 6
2, 0
3, 3
3, 0
2, 0
0, 3
0, 3
4, 3
1, 4
0, 6
0, 3
2, 3
2, 4
2, 6
4, 2
3, 6
2, 5
0, 2
1, 2
3, 5
3, 5
4, 2
0, 1
1, 0
1, 4
3, 4
1, 4
2, 5
3, 7
0, 5
6, 2
3, 2
1, 2
6, 2
6, 0
4, 1
8, 3
7, 1
3, 2
2, 1
1, 1
2, 3
3, 3
7, 4
1, 2
1, 3
6, 2
3, 2
2, 1
4, 2
0, 3
2, 1
1, 4
2, 0
2, 0
4, 0
1, 2
2, 1
2, 2
1, 1
1, 0
0, 3
3, 0
4, 2
2, 1
2, 0
1, 1
1, 1
0, 4
1, 2
2, 1
3, 3
1, 2
5, 1
2, 3
1, 1
1, 1
3, 1
4, 2
3, 1
1, 1
1, 1
0, 2
0, 3
3, 1
0, 1
2, 3
3, 1
2, 5
3, 3
4, 1
4, 2
2, 3
4, 4
3, 1
3, 0
5, 2
0, 1
3, 2
1, 3
1, 3
1, 3
2, 2
5, 4
3, 5
4, 4
4, 5
4, 7
3, 7
2, 7
0, 3
2, 4
2, 1
0, 3
1, 4
2, 0
0, 7
3, 3
3, 0
3, 1
0, 1
0, 3
0, 1
2, 0
0, 2
5, 2
0, 2
2, 1
2, 2
1, 2
2, 3
1, 4
1, 2
2, 4
1, 1
1, 4
0, 4
2, 2
0, 4
1, 1
1, 0
0, 3
2, 1
3, 0
2, 0
0, 1
1, 0
2, 1
3, 1
2, 0
0, 1
0, 2
3, 2
1, 2
0, 0
1, 0
0, 0
1, 0
2, 1
0, 4
4, 0
2, 0
1, 1
1, 0
0, 0
1, 1
2, 0
0, 0
1, 1
0, 0
0, 1
3, 0
0, 2
1, 0
0, 0
0, 3
1, 1
1, 3
2, 0
0, 2
0, 0
2, 0
1, 0
2, 0
0, 0
0, 2
2, 0
3, 0
0, 2
0, 1
0, 0
2, 2
0, 0
1, 1
0, 1
0, 1
1, 3
0, 0
0, 1
0, 2
0, 0
0, 1
0, 1
0, 2
1, 0
1, 1
0, 1
0, 0
0, 0
0, 1
0, 2
1, 1
2, 0
1, 0
2, 0
0, 1
2, 0
0, 2
0, 1
0, 0
1, 0
2, 0
0, 1
1, 1
2, 0
1, 0
0, 0
1, 0
0, 0
1, 1
0, 3
0, 0
0, 1
0, 1
1, 0
1, 3
1, 1
1, 1
1, 1
0, 2
0, 1
0, 0
0, 0
1, 0
0, 0
0, 0
0, 1
0, 0
1, 2
0, 0
0, 0
0, 1
0, 0
0, 2
0, 0
1, 1
0, 0
1, 0
0, 1
0, 0
0, 0
1, 0
0, 0
0, 0
0, 1
1, 1
0, 0
1, 0
0, 1
1, 1
0, 0
0, 0
0, 1
0, 0
0, 0
0, 0
0, 0
0, 1
1, 1
0, 0
0, 0
0, 0
0, 0
0, 0
0, 1
0, 2
0, 0
0, 0
0, 1
0, 0
0, 0
1, 1
0, 1
0, 1
1, 1
0, 0
0, 1
0, 1
0, 0
1, 1
1, 0
2, 0
1, 0
0, 0
0, 0
0, 0
0, 1
0, 0
0, 0
0, 0
1, 0
0, 0
0, 0
1, 0
0, 0
1, 0
0, 0
1, 0
0, 0
1, 2
1, 0
0, 0
0, 1
1, 0
0, 2
0, 0
1, 0
0, 0
1, 0
0, 0
0, 1
0, 0
0, 0
0, 1
0, 0
0, 1
1, 0
0, 1
0, 0
0, 0
1, 0
1, 0
0, 0
0, 1
0, 0
1, 0
0, 1
0, 0
0, 0
0, 1
0, 0
1, 0
0, 1
0, 2
0, 1
0, 1
0, 1
0, 0
0, 1
0, 1
2, 0
0, 0
0, 0
1, 0
0, 0
0, 0
0, 1
0, 0
1, 0
0, 0
0, 0
1, 0
0, 0
1, 1
0, 0
1, 1
0, 1
0, 0
0, 0
0, 0
1, 1
0, 0
0, 0
0, 0
0, 0
0, 0
0, 0
0, 0
0, 0
0, 0
0, 0
0, 0
0, 1
0, 0
0, 0
0, 0
0, 1
0, 0
1, 1
1, 0
0, 0
0, 0
0, 0
0, 0
0, 1
1, 0
0, 0
0, 0
1, 0
0, 0
0, 0
1, 0
0, 1
0, 0
0, 0
0, 0
0, 0
0, 0
0, 0
0, 0
1, 0
0, 0
1, 0
0, 0
0, 0
0, 0
0, 0
0, 0
0, 0
0, 0
1, 0
0, 0
0, 0
0, 0
0, 0
0, 1
0, 0
0, 0
0, 0
0, 0
0, 1
0, 0
0, 1
1, 0
0, 0
0, 0
0, 0
0, 0
0, 0
0, 0
1, 0
0, 0
0, 0
0, 0
0, 0
0, 0
0, 0
0, 0
0, 0
0, 0
0, 0
0, 1
0, 0
0, 0
0, 1
0, 0
0, 0
0, 0
0, 0
0, 0
0, 0
0, 0
0, 0
0, 0
0, 0
0, 0
0, 0
0, 0
0, 0
0, 0
0, 0
0, 0
0, 0
0, 0
0, 0
0, 0
0, 0
0, 0
0, 0
0, 0
0, 0
0, 0
0, 0
0, 0
0, 0
0, 0
0, 0
0, 0
0, 0
0, 0
0, 0
0, 0
0, 0
0, 0
0, 0
0, 0
0, 0
0, 0
0, 0
0, 0
0, 0
0, 0
0, 0
0, 0
0, 0
0, 0
0, 0
0, 0
0, 0
0, 0
0, 0
0, 0
0, 0
0, 0
0, 0
0, 0
0, 0
0, 1
0, 0
0, 0
0, 0
0, 0
0, 0
0, 0
0, 0
0, 0
0, 0
0, 0
0, 0
0, 0
0, 0
0, 0
0, 0
0, 0
0, 0
0, 0
0, 0
0, 0
0, 0
0, 0
0, 0
0, 0
0, 0
0, 0
0, 0
0, 0
0, 0
0, 0
0, 0
0, 0
0, 0
0, 0
0, 0
0, 0
0, 0
0, 0
0, 0
0, 0
0, 0
0, 0
0, 0
0, 0
0, 0
0, 0
0, 0
0, 0
0, 0
0, 0
0, 0
0, 0
0, 0
0, 0
0, 0
0, 0
0, 0
0, 0
0, 0
0, 0
0, 0
0, 0
0, 0
0, 0
0, 0
0, 0
0, 0
0, 0
0, 0
0, 0
0, 0
0, 0
0, 0
0, 0
0, 0
0, 0
0, 0
0, 0
0, 0
0, 0
0, 0
0, 0
0, 0
0, 0
0, 0
0, 0
0, 0
0, 1
0, 0
0, 0
0, 0
0, 0
0, 0
0, 0
0, 0
0, 0
0, 0
0, 0
0, 0
0, 0
0, 0
0, 0
0, 0
0, 0
0, 0
0, 0
0, 0
0, 0
0, 0
0, 0
0, 0
0, 0
0, 0
0, 0
0, 0
0, 0
0, 0
0, 0
0, 0
0, 0
0, 0
0, 0
0, 0
0, 0
0, 0
0, 0
0, 0
0, 0
0, 0
0, 0
0, 0
0, 0
0, 0
0, 0
0, 0
0, 0
0, 0
0, 0
0, 0
0, 0
0, 0
0, 0
0, 0
0, 0
0, 0
0, 0
0, 0
0, 0
0, 0
0, 0
0, 0
0, 0
0, 0
0, 0
0, 0
0, 0
0, 0
0, 0
0, 0
0, 0
0, 0
0, 0
0, 0
0, 0
0, 0
0, 0
0, 0
0, 0
0, 0
0, 0
0, 0
0, 0
0, 0
0, 0
0, 0
0, 0
0, 0
0, 0
0, 0
0, 0
0, 0
0, 0
0, 0
0, 0
0, 0
0, 0
0, 0
0, 0
0, 0
0, 0
0, 0
0, 0
0, 0
0, 0
0, 0
0, 0
0, 0
0, 0
0, 0
0, 0
0, 0
0, 0
0, 0
0, 0
0, 0
0, 0
0, 0
0, 0
0, 0
0, 0
0, 0
0, 0
0, 0
0, 0
0, 0
0, 0
0, 0
0, 0
0, 0
0, 0
0, 0
0, 0
0, 0
0, 0
0, 0
0, 0
0, 0
0, 0
0, 0
0, 0
0, 0
0, 0
0, 0
0, 0
0, 0
0, 0
0, 0
0, 0
0, 0
0, 0
0, 0
0, 0
0, 0
0, 0
0, 0
0, 0
0, 0
0, 0
0, 0
0, 0
0, 0
0, 0
0, 0
0, 0
0, 0
0, 0
0, 0
0, 0
0, 0
0, 0
0, 0
0, 0
0, 0
0, 0
0, 0
0, 0
0, 0
0, 0
0, 0
0, 0
0, 0
0, 0
0, 0
0, 0
0, 0
0, 0
0, 0
0, 0
0, 0
0, 0
0, 0
0, 0
0, 0
0, 0
0, 0
0, 0
0, 0
0, 0
0, 0
0, 0
0, 0
0, 0
0, 0
0, 0
0, 0
0, 0
0, 0
0, 0
0, 0
0, 0
0, 0
0, 0
0, 0
0, 0
0, 0
0, 0
0, 0
0, 0
0, 0
0, 0
0, 0
0, 0
0, 0
0, 0
0, 0
0, 0
0, 0
0, 0
0, 0
0, 0
0, 0
0, 0
0, 0
0, 0
0, 0
0, 0
0, 0
0, 0
0, 0
0, 0
0, 0
0, 0
0, 0
0, 0
0, 0
0, 0
0, 0
0, 0
0, 0
0, 0
0, 0
0, 0
0, 0
0, 0
0, 0
0, 0
0, 0
0, 0
0, 0
0, 0
0, 0
0, 0
0, 0
0, 0
0, 0
0, 0
0, 0
0, 0
0, 0
0, 0
0, 0
0, 0
0, 0
0, 0
0, 0
0, 0
0, 0
0, 0
0, 0
0, 0
0, 0
0, 0
0, 0
0, 0
0, 0
0, 0
0, 0
0, 0
0, 0
0, 0
0, 0
0, 0
0, 0
0, 0
0, 0
0, 0
0, 0
0, 0
0, 0
0, 0
0, 0
0, 0
0, 0
0, 0
0, 0
0, 0
0, 0
0, 0
0, 0
0, 0
0, 0
#ENDOFDATA     end of spectrum data