File: host_upload/06-09-2024/ps_0852/dump3/ps__0852shot_2366.msa
#FORMAT      : EMSA/MAS spectral data file
#VERSION     : TC202v2.0 PIXL
#TITLE       : N/A
#DATE        :       Date in the format DD-MMM-YYYY, for example 07-JUL-2010
#TIME        :             The time of day at which the spectrum was recorded, in 24-hour format
#OWNER       : PIXL Flight Model       (PIXL will use this to indicate which instrument took the data.)
#NPOINTS     : 4096     Number of data points in the spectrum (This can be zero for configuration only files)
#NCOLUMNS    : 2     Number of data columns in the spectrum (This can be zero for configuration only files)
#XUNITS      : eV
#YUNITS      : COUNTS
#DATATYPE    : YY
#XPERCHAN    : 7.862, 7.881   eV per channel (separate by commas if more than one detector)
#OFFSET      : 18.5, -22.4         eV of first channel  (separate by commas if more than one detector
#SIGNALTYPE  : XRF
#YP_TEMP     : 2.524
#LIVETIME    : 8.56165, 8.55249   seconds (separate by commas if more than one detector)
#REALTIME    : 10, 10.0   seconds (separate by commas if more than one detector)
#SPECTRUM    : start of spectrum data
0, 0
0, 0
0, 0
0, 0
0, 0
0, 0
0, 0
0, 0
0, 0
0, 0
0, 0
0, 0
0, 0
0, 0
0, 0
0, 0
0, 0
0, 0
0, 0
0, 0
0, 0
0, 0
0, 0
0, 0
0, 0
0, 0
0, 0
0, 0
0, 0
0, 0
0, 0
0, 0
0, 0
1, 0
1, 0
0, 1
0, 0
2, 1
2, 0
5, 2
5, 0
5, 1
4, 0
5, 1
2, 1
2, 1
4, 1
4, 1
6, 7
14, 8
17, 20
37, 36
59, 61
70, 77
72, 96
82, 66
63, 64
41, 45
32, 15
21, 14
5, 5
2, 7
3, 2
3, 1
4, 4
4, 3
6, 6
6, 10
16, 30
39, 43
84, 98
183, 186
269, 286
353, 367
400, 443
393, 478
329, 388
282, 296
170, 205
116, 119
75, 67
35, 37
20, 19
10, 7
3, 8
3, 1
3, 1
4, 0
2, 4
1, 1
2, 4
3, 1
2, 3
1, 3
1, 1
5, 5
6, 2
1, 3
7, 4
4, 3
7, 6
1, 5
5, 3
3, 2
5, 4
4, 1
4, 3
9, 5
18, 5
32, 11
63, 18
100, 22
174, 26
212, 38
274, 47
292, 45
284, 48
252, 31
182, 19
137, 21
93, 32
54, 20
35, 24
32, 16
33, 22
22, 17
21, 18
9, 9
19, 11
11, 5
5, 5
4, 5
2, 4
4, 4
1, 1
2, 3
4, 3
2, 2
2, 4
2, 4
0, 1
4, 4
3, 2
2, 4
0, 2
0, 4
1, 4
1, 3
2, 2
4, 3
1, 5
4, 3
12, 8
16, 5
14, 21
36, 16
28, 35
37, 24
40, 34
28, 14
27, 18
18, 12
13, 11
8, 12
6, 7
7, 10
8, 3
7, 7
3, 7
11, 2
13, 8
12, 5
26, 4
19, 6
33, 6
27, 1
42, 7
33, 1
32, 3
24, 4
25, 2
14, 2
8, 1
5, 5
9, 3
3, 8
5, 6
7, 10
9, 9
7, 13
6, 15
8, 12
7, 10
8, 18
12, 16
10, 23
17, 19
6, 21
11, 37
8, 44
16, 51
16, 63
6, 73
6, 68
4, 65
0, 59
11, 52
10, 45
5, 35
9, 15
13, 10
9, 12
15, 12
12, 11
6, 10
5, 10
6, 8
5, 17
4, 6
5, 9
6, 14
3, 8
8, 4
3, 9
9, 7
11, 12
9, 6
11, 14
10, 13
7, 19
12, 12
15, 16
15, 14
14, 9
19, 16
32, 9
27, 5
27, 9
31, 6
23, 7
24, 4
14, 12
20, 8
18, 8
23, 19
27, 15
20, 30
26, 33
46, 39
48, 64
64, 69
59, 52
54, 55
64, 45
29, 43
37, 23
27, 31
18, 31
12, 27
17, 45
20, 48
31, 61
42, 94
59, 121
127, 227
252, 361
434, 597
714, 970
1076, 1373
1434, 1886
1826, 2279
2083, 2384
2279, 2564
2193, 2338
1931, 1977
1590, 1621
1191, 1150
822, 786
534, 492
307, 260
177, 172
87, 93
47, 45
34, 38
31, 24
14, 27
25, 15
24, 24
32, 26
42, 25
53, 40
66, 48
78, 67
107, 88
114, 123
146, 168
193, 236
243, 317
300, 340
322, 370
327, 378
293, 302
307, 324
229, 202
175, 149
110, 118
86, 74
66, 47
24, 20
17, 16
14, 10
5, 9
7, 9
5, 9
16, 11
9, 12
9, 11
17, 12
11, 22
11, 16
11, 16
11, 10
8, 10
6, 7
6, 3
2, 7
6, 7
4, 6
5, 9
4, 9
4, 4
5, 13
4, 13
1, 10
5, 10
1, 17
3, 12
6, 13
3, 11
3, 6
3, 5
2, 8
6, 6
6, 4
12, 5
9, 4
11, 10
25, 4
33, 3
39, 3
37, 2
28, 4
37, 7
38, 1
38, 5
35, 5
23, 2
24, 2
22, 3
12, 5
6, 6
9, 6
4, 5
8, 5
5, 5
6, 7
1, 5
5, 2
7, 5
2, 7
3, 5
4, 4
6, 5
2, 9
1, 3
2, 2
2, 5
5, 6
3, 6
1, 4
4, 6
8, 5
5, 6
7, 5
3, 2
4, 5
4, 5
4, 6
4, 5
5, 6
4, 1
2, 4
1, 4
5, 6
1, 7
2, 6
0, 6
1, 4
1, 9
3, 10
1, 2
4, 9
6, 6
2, 12
3, 8
3, 15
4, 7
3, 12
1, 8
6, 4
4, 10
4, 10
2, 5
3, 3
3, 7
2, 5
1, 3
3, 3
4, 5
0, 7
2, 1
1, 3
2, 5
2, 2
2, 2
2, 4
4, 8
2, 4
1, 6
4, 4
3, 3
4, 5
2, 4
1, 5
3, 3
1, 6
3, 1
4, 7
1, 4
2, 4
2, 2
5, 1
0, 3
1, 3
5, 2
4, 2
1, 1
3, 11
2, 2
2, 1
3, 6
6, 1
2, 2
2, 5
0, 3
4, 2
4, 1
0, 4
2, 1
2, 1
2, 2
3, 5
2, 3
5, 3
3, 1
1, 0
3, 8
6, 3
5, 7
4, 4
4, 1
5, 3
3, 4
2, 4
3, 2
3, 2
5, 5
4, 1
3, 4
1, 2
3, 0
1, 6
0, 1
3, 1
0, 1
4, 1
1, 3
2, 1
1, 2
2, 2
1, 2
1, 3
0, 1
0, 2
2, 0
0, 0
0, 3
2, 3
2, 2
0, 2
1, 2
1, 0
4, 3
2, 0
1, 1
0, 1
0, 4
1, 2
3, 2
3, 2
1, 2
1, 1
3, 3
1, 0
5, 4
0, 1
1, 1
2, 3
3, 3
1, 1
0, 2
3, 5
2, 2
4, 4
0, 3
1, 1
1, 0
2, 4
2, 4
0, 4
2, 1
6, 3
3, 2
2, 3
5, 2
2, 4
0, 5
1, 4
3, 9
10, 5
3, 3
2, 4
2, 3
3, 5
3, 3
3, 1
2, 1
1, 5
2, 2
4, 3
0, 3
0, 3
2, 1
2, 1
2, 0
0, 1
1, 2
0, 1
1, 1
1, 1
2, 1
2, 3
5, 0
1, 3
1, 3
1, 1
5, 1
1, 2
0, 4
1, 2
1, 1
1, 2
1, 4
1, 0
1, 0
0, 1
1, 2
2, 1
1, 1
3, 0
1, 2
4, 2
2, 0
1, 0
0, 0
0, 1
1, 2
2, 1
2, 0
1, 4
1, 2
1, 1
2, 2
1, 3
0, 2
2, 1
2, 2
0, 2
1, 1
1, 2
0, 1
2, 2
1, 0
0, 0
0, 1
0, 2
0, 1
0, 0
0, 2
2, 0
0, 2
0, 0
0, 0
0, 2
0, 1
1, 0
2, 3
1, 0
1, 1
1, 0
4, 0
2, 0
1, 1
5, 1
0, 1
0, 0
0, 0
0, 1
1, 1
0, 2
0, 2
1, 0
3, 1
0, 1
3, 1
1, 0
0, 2
0, 0
0, 0
2, 0
1, 0
1, 1
2, 2
3, 1
1, 0
0, 1
2, 1
0, 1
1, 1
3, 2
0, 0
0, 0
1, 0
1, 0
1, 1
1, 1
1, 2
0, 0
0, 1
2, 1
0, 0
0, 1
1, 0
1, 0
1, 0
0, 0
0, 1
0, 1
1, 0
0, 0
1, 0
2, 1
0, 0
1, 2
0, 0
0, 0
0, 1
0, 0
1, 1
1, 0
0, 0
0, 3
0, 0
1, 1
0, 1
0, 3
1, 0
1, 0
0, 0
0, 2
1, 1
2, 1
1, 0
0, 0
1, 0
1, 1
1, 0
0, 0
0, 0
0, 0
0, 0
0, 1
0, 1
0, 0
0, 0
1, 0
0, 1
0, 0
0, 0
0, 1
0, 1
0, 0
1, 0
0, 0
0, 1
0, 0
1, 0
3, 0
0, 0
0, 0
0, 1
0, 0
0, 1
0, 0
0, 0
0, 0
0, 0
0, 1
0, 0
0, 0
1, 1
2, 0
1, 0
0, 1
0, 1
0, 1
0, 0
0, 0
0, 0
0, 0
1, 0
0, 0
0, 0
0, 2
0, 0
0, 0
1, 0
0, 0
1, 0
0, 0
0, 0
0, 1
0, 0
0, 0
0, 1
0, 0
0, 0
1, 1
0, 0
1, 1
0, 0
0, 0
1, 0
0, 0
0, 0
0, 0
0, 0
0, 0
0, 0
0, 0
0, 0
0, 0
0, 0
0, 1
0, 0
0, 2
0, 0
0, 0
0, 0
0, 0
0, 1
0, 0
0, 0
0, 0
0, 0
0, 0
0, 0
1, 1
0, 0
0, 0
0, 0
0, 1
0, 0
0, 0
1, 1
0, 0
0, 0
0, 0
0, 0
0, 1
1, 1
0, 0
1, 0
0, 0
1, 1
1, 0
1, 0
0, 0
0, 1
0, 0
0, 0
1, 0
0, 0
0, 0
0, 1
0, 1
0, 0
0, 1
0, 0
0, 0
0, 1
0, 0
0, 0
1, 1
0, 0
0, 0
0, 0
1, 0
0, 1
0, 0
0, 0
0, 0
0, 0
0, 0
0, 0
0, 0
0, 1
0, 0
0, 0
0, 0
0, 0
0, 0
0, 0
0, 0
0, 0
1, 0
0, 0
0, 0
0, 0
0, 0
0, 0
0, 0
0, 0
1, 0
1, 0
0, 0
0, 0
0, 0
0, 0
0, 0
1, 0
1, 2
0, 0
1, 1
0, 0
0, 0
0, 0
0, 0
0, 0
0, 0
0, 0
0, 0
1, 0
0, 0
0, 1
0, 0
0, 0
0, 0
0, 0
0, 0
0, 0
0, 0
0, 0
0, 0
0, 1
0, 0
0, 0
0, 0
0, 0
0, 0
0, 0
0, 0
0, 0
1, 0
0, 0
0, 0
0, 0
0, 0
0, 0
0, 0
0, 0
0, 0
0, 0
0, 0
0, 0
0, 0
0, 0
0, 0
0, 0
0, 0
0, 0
0, 0
0, 0
0, 1
0, 0
0, 0
0, 0
0, 0
0, 0
0, 0
0, 0
0, 0
0, 0
0, 0
1, 0
1, 0
0, 0
0, 0
0, 0
0, 0
0, 0
0, 0
0, 0
0, 0
0, 0
0, 0
0, 1
0, 0
0, 0
0, 0
0, 0
0, 0
0, 0
0, 0
0, 0
0, 0
0, 0
0, 0
0, 0
0, 0
0, 0
0, 0
0, 0
0, 0
0, 0
0, 0
0, 0
0, 0
0, 0
0, 0
0, 0
0, 0
0, 0
0, 0
0, 0
0, 0
0, 1
0, 0
0, 0
0, 0
0, 0
0, 0
0, 0
0, 0
0, 0
0, 0
0, 0
0, 0
0, 0
0, 0
0, 0
0, 0
0, 0
0, 0
0, 0
0, 0
0, 0
0, 0
0, 0
0, 0
0, 0
0, 0
0, 0
0, 0
0, 0
0, 0
0, 0
0, 0
0, 0
0, 0
0, 0
0, 0
0, 0
0, 0
0, 0
0, 0
0, 0
0, 0
0, 0
0, 0
0, 0
0, 0
0, 0
0, 0
0, 0
0, 0
0, 0
0, 0
0, 0
0, 0
0, 0
0, 0
0, 0
0, 0
0, 0
0, 0
0, 0
0, 0
0, 0
0, 0
0, 0
0, 0
0, 0
0, 0
0, 0
0, 0
0, 0
0, 0
0, 0
0, 0
0, 0
0, 0
0, 0
0, 0
0, 0
0, 0
0, 0
0, 0
0, 0
0, 0
0, 0
0, 0
0, 0
0, 0
0, 0
0, 0
0, 0
0, 0
0, 0
0, 0
0, 0
0, 0
0, 0
0, 0
0, 0
0, 0
0, 0
0, 0
0, 0
0, 0
0, 0
0, 0
0, 0
0, 0
0, 0
0, 0
0, 0
0, 0
0, 0
0, 0
0, 0
0, 0
0, 0
0, 0
0, 0
0, 0
0, 0
0, 0
0, 0
0, 0
0, 0
0, 0
0, 0
0, 0
0, 0
0, 0
0, 0
0, 0
0, 0
0, 0
0, 0
0, 0
0, 0
0, 0
0, 0
0, 0
0, 0
0, 0
0, 0
0, 0
0, 0
0, 0
0, 0
0, 0
0, 0
0, 0
0, 0
0, 0
0, 0
0, 0
0, 0
0, 0
0, 0
0, 0
0, 0
0, 0
0, 0
0, 0
0, 0
0, 0
0, 0
0, 0
0, 0
0, 0
0, 0
0, 0
0, 0
0, 0
0, 0
0, 0
0, 0
0, 0
0, 0
0, 0
0, 0
0, 0
0, 0
0, 0
0, 0
0, 0
0, 0
0, 0
0, 0
0, 0
0, 0
0, 0
0, 0
0, 0
0, 0
0, 0
0, 0
0, 0
0, 0
0, 0
0, 0
0, 0
0, 0
0, 0
0, 0
0, 0
0, 0
0, 0
0, 0
0, 0
0, 0
0, 0
0, 0
0, 0
0, 0
0, 0
0, 0
0, 0
0, 0
0, 0
0, 0
0, 0
0, 0
0, 0
0, 0
0, 0
0, 0
0, 0
0, 0
0, 0
0, 0
0, 0
0, 0
0, 0
0, 0
0, 0
0, 0
0, 0
0, 0
0, 0
0, 0
0, 0
0, 0
0, 0
0, 0
0, 0
0, 0
0, 0
0, 0
0, 0
0, 0
0, 0
0, 0
0, 0
0, 0
0, 0
0, 0
0, 0
0, 0
0, 0
0, 0
0, 0
0, 0
0, 0
0, 0
0, 0
0, 0
0, 0
0, 0
0, 0
0, 0
0, 0
0, 0
0, 0
0, 0
0, 0
0, 0
0, 0
0, 0
0, 0
0, 0
0, 0
0, 0
0, 0
0, 0
0, 0
0, 0
0, 0
0, 0
0, 0
0, 0
0, 0
0, 0
0, 0
0, 0
0, 0
0, 0
0, 0
0, 0
0, 0
0, 0
0, 0
0, 0
0, 0
0, 0
0, 0
0, 0
0, 0
0, 0
0, 0
0, 0
0, 0
0, 0
0, 0
0, 0
0, 0
0, 0
0, 0
0, 0
0, 0
0, 0
0, 0
0, 0
0, 0
0, 0
0, 0
0, 0
0, 0
0, 0
0, 0
0, 0
0, 0
0, 0
0, 0
0, 0
0, 0
0, 0
0, 0
0, 0
0, 0
0, 0
0, 0
0, 0
0, 0
0, 0
0, 0
0, 0
0, 0
0, 0
0, 0
0, 0
0, 0
0, 0
0, 0
0, 0
0, 0
0, 0
0, 0
0, 0
0, 0
0, 0
0, 0
0, 0
0, 0
0, 0
0, 0
0, 0
0, 0
0, 0
0, 0
0, 0
0, 0
0, 0
0, 0
0, 0
0, 0
0, 0
0, 0
0, 0
0, 0
0, 0
0, 0
0, 0
0, 0
0, 0
0, 0
0, 0
0, 0
0, 0
0, 0
0, 0
0, 0
0, 0
0, 0
0, 0
0, 0
0, 0
0, 0
0, 0
0, 0
0, 0
0, 0
#ENDOFDATA     end of spectrum data