File: host_upload/06-09-2024/ps_0852/dump3/ps__0852shot_2167.msa
#FORMAT      : EMSA/MAS spectral data file
#VERSION     : TC202v2.0 PIXL
#TITLE       : N/A
#DATE        :       Date in the format DD-MMM-YYYY, for example 07-JUL-2010
#TIME        :             The time of day at which the spectrum was recorded, in 24-hour format
#OWNER       : PIXL Flight Model       (PIXL will use this to indicate which instrument took the data.)
#NPOINTS     : 4096     Number of data points in the spectrum (This can be zero for configuration only files)
#NCOLUMNS    : 2     Number of data columns in the spectrum (This can be zero for configuration only files)
#XUNITS      : eV
#YUNITS      : COUNTS
#DATATYPE    : YY
#XPERCHAN    : 7.862, 7.881   eV per channel (separate by commas if more than one detector)
#OFFSET      : 18.5, -22.4         eV of first channel  (separate by commas if more than one detector
#SIGNALTYPE  : XRF
#YP_TEMP     : 2.652
#LIVETIME    : 8.55061, 8.5729   seconds (separate by commas if more than one detector)
#REALTIME    : 10, 10.0   seconds (separate by commas if more than one detector)
#SPECTRUM    : start of spectrum data
0, 0
0, 0
0, 0
0, 0
0, 0
0, 0
0, 0
0, 0
0, 0
0, 0
0, 0
0, 0
0, 0
0, 0
0, 0
0, 0
0, 0
0, 0
0, 0
0, 0
0, 0
0, 0
0, 0
0, 0
0, 0
0, 0
0, 0
0, 0
0, 0
0, 0
0, 0
0, 0
0, 0
1, 0
1, 0
0, 0
0, 0
1, 0
0, 0
0, 0
1, 0
3, 0
2, 0
0, 1
0, 1
2, 2
1, 1
7, 8
5, 0
14, 8
22, 27
39, 52
63, 72
68, 84
94, 75
73, 86
67, 57
47, 34
29, 33
26, 11
5, 7
2, 4
4, 5
6, 4
1, 2
4, 5
1, 8
11, 12
25, 21
44, 62
102, 116
158, 180
270, 306
378, 348
423, 465
423, 429
376, 405
306, 320
191, 216
138, 124
75, 70
37, 37
22, 12
14, 16
8, 6
4, 5
5, 1
1, 1
0, 3
0, 1
3, 0
0, 1
1, 0
1, 1
0, 1
2, 2
2, 4
6, 4
3, 2
3, 4
9, 4
2, 8
5, 6
4, 1
5, 4
6, 4
8, 0
14, 4
11, 2
15, 8
12, 5
20, 17
16, 19
23, 20
27, 30
26, 16
15, 26
23, 18
18, 20
21, 14
13, 17
15, 12
13, 20
13, 10
13, 12
13, 12
10, 10
7, 14
15, 6
11, 5
7, 3
6, 1
2, 2
4, 4
3, 1
1, 2
3, 2
2, 5
0, 2
2, 3
2, 2
0, 1
1, 3
1, 3
1, 0
1, 3
0, 1
0, 2
2, 2
4, 3
3, 2
8, 7
9, 17
17, 22
26, 37
38, 30
46, 49
39, 55
57, 67
42, 38
28, 29
32, 27
13, 14
8, 10
6, 10
7, 6
2, 7
6, 5
5, 5
9, 11
9, 10
14, 10
9, 13
12, 10
12, 6
3, 7
7, 7
2, 7
4, 8
3, 4
1, 4
1, 4
2, 2
0, 0
2, 7
6, 6
0, 6
4, 8
8, 5
6, 11
4, 7
11, 8
7, 6
5, 10
14, 9
18, 13
11, 19
20, 7
12, 21
10, 10
12, 7
13, 9
12, 10
6, 5
2, 5
5, 10
6, 5
5, 4
7, 1
6, 5
7, 4
6, 7
8, 5
8, 5
7, 2
4, 8
8, 8
9, 6
3, 4
5, 9
9, 14
3, 8
8, 10
8, 6
7, 11
6, 11
15, 12
21, 14
47, 19
56, 12
57, 18
78, 14
98, 8
95, 14
90, 16
92, 7
78, 6
40, 5
42, 9
30, 6
19, 8
9, 7
18, 7
15, 12
20, 11
25, 18
29, 32
52, 41
60, 50
86, 67
102, 56
113, 66
107, 60
108, 37
93, 41
75, 31
53, 20
40, 15
27, 23
29, 9
26, 14
20, 26
42, 53
84, 117
125, 179
291, 372
448, 587
685, 854
1141, 1221
1504, 1649
1920, 2080
2218, 2322
2276, 2305
2308, 2178
2071, 1906
1716, 1484
1328, 1111
908, 736
580, 440
343, 248
206, 141
96, 77
64, 33
33, 27
22, 20
16, 24
15, 17
14, 21
11, 11
22, 13
23, 21
32, 34
45, 56
67, 86
96, 124
137, 180
189, 213
230, 296
281, 332
328, 354
343, 336
345, 286
295, 263
246, 199
180, 154
122, 104
97, 63
38, 31
27, 24
26, 13
8, 9
9, 10
8, 10
12, 8
10, 13
15, 10
9, 17
13, 15
14, 16
14, 13
15, 14
15, 9
7, 7
6, 10
4, 3
5, 5
2, 7
1, 6
4, 3
2, 8
5, 5
5, 6
3, 13
3, 9
3, 8
7, 11
6, 11
9, 6
6, 5
7, 7
10, 3
13, 3
4, 2
5, 2
5, 4
5, 1
2, 4
9, 3
2, 3
5, 5
7, 7
8, 3
4, 2
8, 6
8, 1
12, 1
7, 4
3, 2
11, 3
10, 5
6, 6
9, 6
7, 0
8, 6
4, 3
6, 2
6, 5
3, 3
7, 4
5, 7
12, 4
9, 3
9, 6
12, 2
15, 1
18, 2
13, 5
30, 8
26, 6
17, 8
33, 8
24, 13
17, 16
12, 10
17, 10
7, 9
5, 12
8, 5
4, 5
6, 5
2, 9
5, 3
6, 6
4, 2
8, 4
7, 2
5, 1
3, 5
6, 3
4, 4
1, 3
6, 5
3, 5
2, 3
3, 6
2, 3
3, 4
3, 3
2, 3
2, 7
7, 8
4, 2
4, 7
1, 6
2, 7
2, 1
1, 1
1, 3
3, 6
4, 6
3, 3
5, 3
3, 2
3, 3
0, 3
7, 3
2, 3
2, 3
3, 6
4, 2
3, 0
3, 4
2, 5
3, 2
1, 4
1, 6
2, 2
3, 0
3, 2
9, 1
3, 2
1, 1
4, 3
3, 3
3, 2
2, 1
2, 2
2, 3
0, 2
0, 1
2, 1
5, 2
1, 2
0, 2
2, 3
2, 3
0, 2
7, 1
3, 3
4, 3
4, 0
3, 0
6, 1
7, 3
11, 1
13, 1
4, 3
3, 0
10, 3
6, 0
5, 3
4, 1
5, 2
5, 4
0, 5
4, 2
3, 3
4, 4
2, 3
1, 3
0, 3
2, 3
5, 3
1, 2
1, 5
1, 1
4, 3
2, 2
2, 1
6, 3
1, 1
1, 1
3, 7
2, 2
0, 3
2, 2
4, 1
1, 2
3, 4
1, 2
3, 1
3, 5
2, 3
4, 3
3, 1
1, 3
3, 2
4, 1
3, 4
3, 1
2, 4
1, 2
0, 0
3, 3
0, 2
3, 2
3, 4
2, 1
1, 1
1, 0
1, 2
1, 1
2, 5
1, 3
1, 2
3, 5
0, 5
3, 2
2, 2
1, 0
4, 0
2, 6
2, 1
0, 1
3, 1
1, 2
2, 2
3, 4
2, 4
1, 6
4, 4
4, 8
6, 0
10, 4
2, 3
5, 4
5, 4
5, 3
2, 2
1, 1
2, 3
4, 2
6, 2
2, 2
2, 1
1, 2
2, 2
0, 3
1, 1
0, 0
2, 0
2, 2
0, 1
2, 1
3, 2
2, 1
0, 1
1, 2
2, 0
2, 4
2, 1
3, 3
1, 2
1, 6
2, 2
3, 1
1, 1
0, 0
2, 1
2, 0
0, 0
2, 1
3, 1
0, 1
1, 1
1, 2
0, 1
1, 0
0, 2
2, 2
1, 1
1, 1
1, 0
1, 3
1, 0
2, 1
0, 0
3, 4
0, 2
0, 0
0, 1
3, 0
0, 1
0, 2
0, 1
1, 2
1, 1
2, 0
1, 2
1, 1
0, 0
1, 0
0, 0
0, 0
0, 0
1, 1
1, 0
1, 1
1, 0
2, 0
0, 1
2, 0
0, 2
1, 0
0, 0
0, 0
0, 0
1, 0
1, 1
1, 0
1, 1
0, 1
1, 0
1, 0
5, 2
0, 0
1, 1
0, 0
0, 0
0, 0
2, 3
0, 1
1, 2
0, 0
1, 1
2, 1
3, 1
1, 1
1, 0
0, 0
1, 0
0, 1
0, 2
0, 0
0, 1
0, 1
1, 1
1, 0
0, 1
0, 1
0, 0
0, 0
1, 0
1, 0
1, 0
0, 1
0, 1
1, 2
0, 1
1, 0
0, 0
0, 0
2, 0
2, 1
0, 0
0, 0
1, 1
0, 0
1, 0
1, 0
1, 0
0, 0
0, 0
0, 0
0, 1
1, 2
1, 2
1, 0
0, 0
0, 1
1, 1
0, 0
0, 1
0, 0
0, 0
0, 0
0, 0
0, 0
0, 0
0, 0
0, 1
2, 1
0, 0
0, 0
0, 0
0, 1
1, 0
1, 1
1, 2
1, 0
0, 1
0, 0
0, 0
0, 1
0, 1
0, 0
0, 1
0, 0
1, 0
0, 0
2, 2
0, 0
0, 0
1, 0
0, 0
0, 0
1, 0
0, 1
1, 0
0, 0
1, 1
1, 0
0, 0
0, 0
0, 1
1, 0
0, 2
0, 0
0, 0
0, 0
0, 0
0, 0
0, 0
0, 1
0, 0
0, 0
1, 0
0, 0
0, 1
0, 1
0, 0
0, 0
0, 0
0, 0
0, 0
1, 2
0, 1
0, 0
0, 0
0, 1
1, 2
2, 0
0, 1
1, 0
2, 1
0, 0
1, 0
0, 1
0, 1
0, 0
1, 0
1, 0
0, 3
1, 0
0, 1
1, 1
0, 0
1, 0
1, 0
0, 0
0, 0
0, 0
0, 0
0, 1
0, 2
0, 0
0, 0
0, 0
0, 0
1, 2
0, 0
1, 0
2, 0
0, 0
0, 1
0, 1
0, 1
2, 0
0, 1
0, 0
0, 0
2, 0
0, 0
0, 1
0, 0
0, 0
1, 0
0, 0
0, 0
0, 1
0, 0
1, 0
0, 0
0, 1
0, 0
1, 0
0, 0
0, 1
0, 0
0, 0
0, 0
0, 0
0, 0
0, 0
0, 0
0, 1
0, 1
0, 0
0, 2
0, 0
0, 0
1, 0
0, 0
0, 0
0, 0
0, 0
0, 0
0, 0
0, 0
0, 0
0, 0
0, 0
0, 1
0, 0
0, 0
1, 0
0, 0
0, 0
0, 1
1, 0
0, 0
0, 1
0, 0
0, 0
0, 0
0, 0
0, 0
0, 0
0, 1
1, 0
0, 0
0, 0
0, 0
0, 0
0, 0
0, 0
0, 0
0, 0
0, 0
0, 0
0, 1
0, 0
0, 0
0, 0
0, 0
2, 0
0, 0
0, 0
0, 0
0, 0
0, 1
0, 1
0, 0
0, 0
0, 0
0, 0
0, 0
0, 0
0, 0
0, 0
0, 0
1, 0
0, 0
0, 0
0, 0
0, 0
0, 0
0, 0
0, 0
0, 0
0, 0
0, 0
0, 0
0, 0
0, 0
0, 0
1, 0
0, 0
0, 0
0, 0
0, 0
0, 0
0, 0
0, 0
0, 0
0, 0
0, 0
0, 0
0, 0
0, 0
0, 0
0, 1
0, 0
0, 0
0, 0
0, 0
0, 0
0, 0
0, 0
0, 0
0, 0
0, 0
0, 0
0, 0
0, 0
0, 0
0, 0
0, 0
0, 0
0, 0
0, 0
0, 0
0, 0
0, 0
0, 0
0, 0
0, 1
0, 0
0, 0
0, 0
0, 0
0, 0
0, 0
0, 0
0, 0
0, 0
0, 1
0, 1
0, 0
0, 0
0, 0
0, 0
0, 0
0, 0
0, 0
0, 0
0, 0
0, 0
0, 0
0, 0
0, 0
0, 0
0, 0
0, 0
0, 0
0, 0
0, 0
0, 0
0, 0
0, 0
0, 0
0, 0
0, 0
0, 0
0, 0
0, 0
0, 0
0, 0
0, 0
0, 1
0, 0
0, 0
0, 0
0, 0
0, 0
0, 0
0, 0
0, 0
0, 0
0, 0
0, 0
0, 0
0, 0
0, 0
0, 0
0, 0
0, 0
0, 0
0, 0
0, 0
0, 0
0, 0
0, 0
0, 0
0, 0
0, 0
0, 0
0, 0
0, 0
0, 0
0, 0
0, 0
0, 0
0, 0
0, 0
0, 0
0, 0
0, 0
0, 0
0, 0
0, 0
0, 0
0, 0
0, 0
0, 0
0, 0
0, 0
0, 0
0, 0
0, 0
0, 0
0, 0
0, 0
0, 0
0, 0
0, 0
0, 0
0, 0
0, 0
0, 0
0, 0
0, 0
0, 0
0, 0
0, 0
0, 0
0, 0
0, 0
0, 1
0, 0
0, 0
0, 0
0, 0
0, 0
0, 0
0, 0
0, 0
0, 0
0, 0
0, 0
0, 0
0, 0
0, 0
0, 0
0, 0
0, 0
0, 0
0, 0
0, 0
0, 0
0, 0
0, 0
0, 0
0, 0
0, 0
0, 0
0, 0
0, 0
0, 0
0, 0
0, 0
0, 0
0, 0
0, 0
0, 0
0, 0
0, 0
0, 0
0, 0
0, 0
0, 0
0, 0
0, 0
0, 0
0, 0
0, 0
0, 0
0, 0
0, 0
0, 0
0, 0
0, 0
0, 0
0, 0
0, 0
0, 0
0, 0
0, 0
0, 0
0, 0
0, 0
0, 0
0, 0
0, 0
0, 0
0, 0
0, 0
0, 0
0, 0
0, 0
0, 0
0, 0
0, 0
0, 0
0, 0
0, 0
0, 0
0, 0
0, 0
0, 0
0, 0
0, 0
0, 0
0, 0
0, 0
0, 0
0, 0
0, 0
0, 0
0, 0
0, 0
0, 0
0, 0
0, 0
0, 0
0, 0
0, 0
0, 0
0, 0
0, 0
0, 0
0, 0
0, 0
0, 0
0, 0
0, 0
0, 0
0, 0
0, 0
0, 0
0, 0
0, 0
0, 0
0, 0
0, 0
0, 0
0, 0
0, 0
0, 0
0, 0
0, 0
0, 0
0, 0
0, 0
0, 0
0, 0
0, 0
0, 0
0, 0
0, 0
0, 0
0, 0
0, 0
0, 0
0, 0
0, 0
0, 0
0, 0
0, 0
0, 0
0, 0
0, 0
0, 0
0, 0
0, 0
0, 0
0, 0
0, 0
0, 0
0, 0
0, 0
0, 0
0, 0
0, 0
0, 0
0, 0
0, 0
0, 0
0, 0
0, 0
0, 0
0, 0
0, 0
0, 0
0, 0
0, 0
0, 0
0, 0
0, 0
0, 0
0, 0
0, 0
0, 0
0, 0
0, 0
0, 0
0, 0
0, 0
0, 0
0, 0
0, 0
0, 0
0, 0
0, 0
0, 0
0, 0
0, 0
0, 0
0, 0
0, 0
0, 0
0, 0
0, 0
0, 0
0, 0
0, 0
0, 0
0, 0
0, 0
0, 0
0, 0
0, 0
0, 0
0, 0
0, 0
0, 0
0, 0
0, 0
0, 0
0, 0
0, 0
0, 0
0, 0
0, 0
0, 0
0, 0
0, 0
0, 0
0, 0
0, 0
0, 0
0, 0
0, 0
0, 0
0, 0
0, 0
0, 0
0, 0
0, 0
0, 0
0, 0
0, 0
0, 0
0, 0
0, 0
0, 0
0, 0
0, 0
0, 0
0, 0
0, 0
0, 0
0, 0
0, 0
0, 0
0, 0
0, 0
0, 0
0, 0
0, 0
0, 0
0, 0
0, 0
0, 0
0, 0
0, 0
0, 0
0, 0
0, 0
0, 0
0, 0
0, 0
0, 0
0, 0
0, 0
0, 0
0, 0
0, 0
0, 0
0, 0
0, 0
0, 0
0, 0
0, 0
0, 0
0, 0
0, 0
0, 0
0, 0
0, 0
0, 0
0, 0
0, 0
0, 0
0, 0
0, 0
0, 0
0, 0
0, 0
0, 0
0, 0
0, 0
0, 0
0, 0
0, 0
0, 0
0, 0
0, 0
0, 0
0, 0
0, 0
0, 0
0, 0
0, 0
0, 0
0, 0
#ENDOFDATA     end of spectrum data