File: host_upload/06-09-2024/ps_0852/dump3/ps__0852shot_2355.msa
#FORMAT      : EMSA/MAS spectral data file
#VERSION     : TC202v2.0 PIXL
#TITLE       : N/A
#DATE        :       Date in the format DD-MMM-YYYY, for example 07-JUL-2010
#TIME        :             The time of day at which the spectrum was recorded, in 24-hour format
#OWNER       : PIXL Flight Model       (PIXL will use this to indicate which instrument took the data.)
#NPOINTS     : 4096     Number of data points in the spectrum (This can be zero for configuration only files)
#NCOLUMNS    : 2     Number of data columns in the spectrum (This can be zero for configuration only files)
#XUNITS      : eV
#YUNITS      : COUNTS
#DATATYPE    : YY
#XPERCHAN    : 7.862, 7.881   eV per channel (separate by commas if more than one detector)
#OFFSET      : 18.5, -22.4         eV of first channel  (separate by commas if more than one detector
#SIGNALTYPE  : XRF
#YP_TEMP     : 2.043
#LIVETIME    : 8.56523, 8.55033   seconds (separate by commas if more than one detector)
#REALTIME    : 10, 10.0   seconds (separate by commas if more than one detector)
#SPECTRUM    : start of spectrum data
0, 0
0, 0
0, 0
0, 0
0, 0
0, 0
0, 0
0, 0
0, 0
0, 0
0, 0
0, 0
0, 0
0, 0
0, 0
0, 0
0, 0
0, 0
0, 0
0, 0
0, 0
0, 0
0, 0
0, 0
0, 0
0, 0
0, 0
0, 0
0, 0
0, 0
0, 0
0, 0
0, 0
0, 0
0, 2
1, 0
3, 1
2, 3
0, 1
0, 2
2, 1
3, 4
0, 2
4, 3
1, 0
3, 2
2, 1
6, 2
2, 3
13, 10
13, 19
36, 41
42, 47
55, 64
67, 63
57, 62
61, 33
48, 38
34, 18
13, 9
3, 6
2, 3
3, 4
2, 5
8, 4
3, 7
6, 5
10, 6
21, 18
48, 41
113, 93
182, 176
264, 231
367, 357
426, 456
448, 433
405, 327
307, 279
205, 181
127, 127
73, 49
43, 36
20, 17
10, 9
7, 3
2, 4
2, 5
0, 0
1, 2
2, 3
0, 1
6, 5
4, 5
10, 13
17, 28
35, 51
70, 54
90, 92
96, 99
88, 88
112, 72
64, 60
52, 41
31, 28
26, 23
16, 16
13, 17
17, 15
11, 24
30, 31
35, 40
47, 48
55, 56
78, 59
62, 53
81, 67
76, 69
63, 58
40, 43
42, 40
31, 31
30, 32
33, 23
33, 30
15, 25
26, 17
14, 17
11, 12
12, 10
16, 8
6, 9
4, 8
8, 3
4, 7
2, 2
0, 3
2, 5
5, 3
5, 0
3, 5
2, 4
3, 2
2, 2
5, 4
0, 1
2, 1
3, 3
4, 2
5, 1
1, 3
5, 3
4, 5
4, 3
8, 6
13, 9
15, 8
14, 11
13, 11
7, 13
15, 19
12, 14
2, 26
5, 26
0, 33
3, 57
3, 59
2, 66
4, 49
3, 50
5, 33
8, 29
6, 25
8, 18
17, 10
13, 8
18, 8
14, 5
14, 4
7, 6
7, 2
9, 6
7, 2
2, 3
5, 5
8, 6
3, 3
7, 2
10, 3
10, 4
9, 7
11, 8
9, 6
10, 7
13, 7
8, 8
16, 12
16, 18
13, 16
7, 13
10, 12
15, 8
15, 12
11, 13
9, 14
6, 11
11, 14
5, 13
11, 10
3, 12
6, 12
4, 6
9, 9
4, 7
7, 13
7, 9
13, 6
9, 6
4, 7
6, 4
7, 4
7, 5
6, 5
8, 6
7, 10
5, 7
17, 13
14, 11
8, 9
14, 9
11, 11
15, 13
11, 14
11, 5
11, 9
15, 6
12, 3
10, 10
8, 5
6, 6
7, 5
9, 6
13, 5
8, 10
9, 15
15, 11
17, 17
31, 29
32, 44
43, 51
51, 52
55, 61
52, 55
69, 42
75, 37
73, 46
59, 26
75, 21
63, 20
64, 20
56, 20
67, 24
78, 40
79, 59
122, 109
164, 208
272, 353
430, 593
721, 918
1052, 1329
1475, 1792
1914, 2084
2134, 2282
2256, 2316
2163, 2153
2062, 1825
1634, 1475
1222, 1001
874, 734
510, 430
324, 268
187, 151
97, 59
55, 47
27, 32
25, 12
12, 13
8, 25
13, 23
17, 15
18, 21
17, 24
30, 43
45, 48
67, 69
95, 112
139, 155
195, 215
243, 253
266, 333
317, 358
337, 338
337, 317
302, 275
197, 223
182, 148
146, 87
89, 60
61, 37
29, 20
18, 16
3, 8
7, 5
7, 7
10, 7
11, 11
17, 10
17, 4
11, 6
12, 8
20, 10
13, 7
11, 8
7, 12
4, 6
3, 4
4, 12
3, 7
2, 14
4, 18
1, 12
6, 19
3, 11
2, 22
5, 11
4, 15
2, 14
5, 6
10, 9
8, 10
9, 5
10, 3
8, 4
8, 4
6, 5
9, 6
14, 6
11, 5
15, 12
6, 6
11, 10
14, 4
17, 7
9, 4
7, 7
11, 3
8, 4
8, 2
4, 3
5, 6
7, 6
4, 3
13, 12
5, 13
6, 7
8, 8
12, 8
7, 5
7, 7
4, 5
4, 3
4, 3
4, 4
3, 5
6, 1
4, 1
1, 4
7, 1
4, 2
2, 4
6, 5
7, 3
3, 3
5, 4
5, 5
5, 3
1, 4
11, 4
5, 2
4, 2
4, 3
0, 2
2, 4
1, 8
4, 7
5, 4
2, 4
2, 2
5, 5
4, 4
3, 4
1, 4
6, 1
6, 6
4, 0
8, 3
13, 4
8, 2
6, 8
16, 3
8, 3
18, 4
16, 5
14, 4
14, 6
13, 8
19, 5
11, 4
5, 8
4, 6
4, 9
3, 4
7, 4
1, 5
3, 3
2, 6
2, 4
4, 4
2, 4
3, 10
6, 9
9, 5
5, 3
0, 9
1, 5
6, 10
6, 8
2, 8
4, 8
3, 9
4, 6
3, 6
1, 7
3, 5
3, 8
4, 9
7, 3
5, 8
4, 4
2, 2
4, 2
1, 1
7, 1
4, 4
1, 6
3, 2
2, 3
3, 3
3, 2
4, 5
3, 0
0, 5
1, 0
3, 1
2, 2
2, 2
2, 2
1, 1
4, 1
2, 3
4, 4
3, 6
4, 2
6, 6
3, 1
2, 4
1, 3
1, 2
4, 4
3, 2
4, 7
1, 4
1, 4
1, 3
2, 5
1, 1
3, 3
1, 4
2, 3
1, 1
3, 1
0, 4
0, 3
2, 1
3, 0
0, 5
3, 2
2, 2
3, 2
4, 1
1, 3
2, 1
2, 3
1, 1
1, 3
3, 1
1, 1
5, 2
1, 1
1, 1
5, 4
2, 3
1, 3
3, 3
2, 1
4, 1
4, 0
5, 0
1, 3
8, 0
4, 1
4, 0
8, 2
2, 1
5, 0
2, 3
4, 4
2, 4
4, 3
1, 2
1, 2
3, 2
0, 1
2, 5
3, 4
1, 9
3, 9
2, 4
3, 4
2, 5
7, 3
3, 0
6, 6
3, 4
3, 7
3, 3
2, 5
1, 1
6, 3
5, 3
4, 0
1, 3
1, 1
0, 1
5, 2
0, 1
1, 1
2, 1
1, 6
0, 1
2, 0
2, 1
3, 2
3, 0
0, 1
1, 2
1, 3
3, 1
0, 0
1, 4
0, 1
4, 1
1, 1
2, 5
3, 5
0, 4
1, 4
0, 1
0, 2
1, 1
1, 1
1, 3
1, 0
2, 3
0, 3
1, 0
1, 0
0, 3
2, 2
2, 2
2, 2
1, 2
3, 1
2, 2
2, 2
0, 1
2, 0
0, 0
1, 0
1, 3
1, 3
2, 2
1, 0
0, 1
2, 5
0, 3
1, 1
0, 2
2, 0
1, 0
0, 2
0, 1
1, 0
1, 1
0, 1
1, 3
0, 1
0, 0
2, 0
0, 0
2, 1
2, 1
2, 1
0, 0
4, 0
3, 0
0, 1
1, 0
0, 1
0, 2
0, 2
1, 1
0, 1
2, 0
2, 0
1, 0
1, 1
1, 2
2, 0
1, 1
1, 0
0, 2
0, 2
1, 2
0, 0
0, 0
1, 3
2, 2
1, 0
2, 0
2, 0
1, 1
0, 0
1, 3
0, 0
0, 1
2, 0
0, 0
0, 0
1, 2
0, 0
0, 0
1, 1
0, 0
0, 1
1, 0
0, 1
2, 0
0, 0
2, 1
0, 2
1, 0
1, 0
2, 0
0, 0
0, 0
0, 1
2, 1
0, 1
0, 2
0, 0
0, 0
0, 0
1, 1
0, 1
1, 0
0, 0
0, 0
0, 1
0, 0
1, 0
0, 0
1, 0
0, 1
0, 0
1, 1
0, 0
0, 0
0, 0
1, 0
0, 1
0, 0
0, 0
0, 1
0, 0
0, 1
0, 0
0, 0
0, 0
0, 0
0, 0
0, 0
0, 0
0, 0
1, 0
0, 0
0, 0
0, 0
0, 0
0, 1
0, 0
0, 0
0, 0
0, 0
1, 0
0, 2
0, 0
0, 1
0, 0
1, 0
2, 0
0, 0
0, 0
1, 0
0, 1
1, 0
0, 0
1, 1
0, 0
0, 0
2, 1
0, 0
1, 0
0, 0
1, 0
0, 1
0, 1
1, 0
1, 0
0, 0
0, 0
0, 0
1, 1
0, 0
0, 0
1, 1
0, 0
0, 0
0, 0
0, 0
0, 0
0, 1
0, 0
0, 0
0, 0
0, 0
0, 0
0, 1
0, 0
1, 0
0, 0
0, 0
0, 0
0, 0
0, 0
0, 0
1, 0
0, 0
0, 0
0, 1
0, 0
0, 0
0, 1
1, 0
0, 0
1, 1
0, 0
0, 1
0, 0
1, 0
0, 0
0, 0
0, 0
0, 0
0, 0
1, 0
0, 1
0, 0
0, 1
0, 0
1, 1
1, 0
0, 0
1, 0
0, 0
0, 1
1, 0
0, 0
0, 0
0, 0
0, 0
0, 0
0, 0
0, 0
1, 0
0, 0
0, 0
0, 0
0, 0
0, 0
0, 0
0, 0
0, 0
0, 0
0, 1
0, 0
0, 0
0, 0
0, 0
0, 0
0, 0
0, 1
0, 0
0, 0
0, 0
0, 0
1, 0
0, 0
0, 1
0, 0
0, 0
0, 0
1, 0
0, 0
0, 1
0, 0
0, 0
0, 0
0, 0
0, 0
0, 1
0, 1
0, 1
0, 1
0, 0
1, 0
0, 0
0, 0
1, 0
0, 0
0, 0
0, 0
0, 0
0, 0
0, 0
0, 0
0, 0
0, 0
1, 0
0, 0
0, 0
0, 0
0, 0
0, 0
0, 0
0, 0
0, 0
0, 0
0, 0
0, 0
0, 0
0, 0
0, 0
0, 0
0, 0
0, 0
0, 0
0, 0
0, 0
0, 0
0, 0
0, 0
1, 0
0, 0
0, 0
0, 0
0, 0
0, 0
0, 0
0, 0
1, 0
0, 0
0, 0
0, 0
0, 0
0, 0
1, 0
0, 0
0, 0
0, 0
0, 0
0, 0
0, 0
1, 0
0, 0
0, 0
0, 0
0, 1
0, 0
1, 0
0, 0
0, 0
0, 0
0, 0
0, 0
0, 0
0, 0
1, 0
0, 0
0, 0
0, 0
0, 0
0, 0
0, 0
0, 0
0, 0
0, 0
0, 0
0, 0
0, 0
0, 0
0, 0
0, 0
0, 1
0, 0
0, 0
0, 0
0, 0
0, 0
0, 0
0, 0
0, 0
0, 0
0, 0
0, 0
0, 0
0, 0
0, 0
0, 0
0, 0
0, 0
0, 0
0, 0
0, 0
0, 0
0, 0
0, 0
0, 0
0, 0
0, 0
0, 0
0, 0
0, 0
0, 0
0, 0
0, 0
0, 0
0, 0
0, 0
0, 0
0, 0
0, 0
1, 0
0, 0
0, 0
0, 0
0, 0
0, 0
0, 0
0, 0
0, 0
0, 0
0, 0
0, 0
0, 0
0, 0
0, 0
0, 0
0, 1
0, 0
0, 0
0, 0
0, 0
0, 0
0, 0
0, 0
0, 0
0, 0
0, 0
0, 0
0, 0
0, 0
0, 0
0, 0
0, 0
0, 0
0, 0
0, 0
0, 0
0, 0
0, 0
0, 0
0, 0
0, 0
0, 0
0, 0
0, 0
0, 0
0, 0
0, 0
0, 0
0, 0
0, 0
0, 0
0, 0
0, 0
0, 0
0, 0
0, 0
0, 0
0, 0
0, 0
0, 0
0, 0
0, 0
0, 0
0, 0
0, 0
0, 0
0, 0
0, 0
0, 0
0, 0
0, 0
0, 0
0, 0
0, 0
0, 0
0, 0
0, 0
0, 0
0, 0
0, 0
0, 0
0, 0
0, 0
0, 0
0, 0
0, 0
0, 0
0, 0
0, 0
0, 0
0, 0
0, 0
0, 0
0, 0
0, 0
0, 0
0, 0
0, 0
0, 0
0, 0
0, 0
0, 0
0, 0
0, 0
0, 0
0, 0
0, 0
0, 0
0, 0
0, 0
0, 0
0, 0
0, 0
0, 0
0, 0
0, 0
0, 0
0, 0
0, 0
0, 0
0, 0
0, 0
0, 0
0, 0
0, 0
0, 0
0, 0
0, 0
0, 0
0, 0
0, 0
0, 0
0, 0
0, 0
0, 0
0, 0
0, 0
0, 0
0, 0
0, 0
0, 0
0, 0
0, 0
0, 0
0, 0
0, 0
0, 0
0, 0
0, 0
0, 0
0, 0
0, 0
0, 0
0, 0
0, 0
0, 0
0, 0
0, 0
0, 0
0, 0
0, 0
0, 0
0, 0
0, 0
0, 0
0, 0
0, 0
0, 0
0, 0
0, 0
0, 0
0, 0
0, 0
0, 0
0, 0
0, 0
0, 0
0, 0
0, 0
0, 0
0, 0
0, 0
0, 0
0, 0
0, 0
0, 0
0, 0
0, 0
0, 0
0, 0
0, 0
0, 0
0, 0
0, 0
0, 0
0, 0
0, 0
0, 0
0, 0
0, 0
0, 0
0, 0
0, 0
0, 0
0, 0
0, 0
0, 0
0, 0
0, 0
0, 0
0, 0
0, 0
0, 0
0, 0
0, 0
0, 0
0, 0
0, 0
0, 0
0, 0
0, 0
0, 0
0, 0
0, 0
0, 0
0, 0
0, 0
0, 0
0, 0
0, 0
0, 0
0, 0
0, 0
0, 0
0, 0
0, 0
0, 0
0, 0
0, 0
0, 0
0, 0
0, 0
0, 0
0, 0
0, 0
0, 0
0, 0
0, 0
0, 0
0, 0
0, 0
0, 0
0, 0
0, 0
0, 0
0, 0
0, 0
0, 0
0, 0
0, 0
0, 0
0, 0
0, 0
0, 0
0, 0
0, 0
0, 0
0, 0
0, 0
0, 0
0, 0
0, 0
0, 0
0, 0
0, 0
0, 0
0, 0
0, 0
0, 0
0, 0
0, 0
0, 0
0, 0
0, 0
0, 0
0, 0
0, 0
0, 0
0, 0
0, 0
0, 0
0, 0
0, 0
0, 0
0, 0
0, 0
0, 0
0, 0
0, 0
0, 0
0, 0
0, 0
0, 0
0, 0
0, 0
0, 0
0, 0
0, 0
0, 0
0, 0
0, 0
0, 0
0, 0
0, 0
0, 0
0, 0
0, 0
0, 0
0, 0
0, 0
0, 0
0, 0
0, 0
0, 0
0, 0
0, 0
0, 0
0, 0
0, 0
0, 0
0, 0
0, 0
0, 0
0, 0
0, 0
0, 0
0, 0
0, 0
0, 0
0, 0
0, 0
0, 0
0, 0
0, 0
0, 0
0, 0
0, 0
0, 0
0, 0
0, 0
0, 0
0, 0
0, 0
0, 0
0, 0
0, 0
0, 0
0, 0
0, 0
0, 0
0, 0
0, 0
0, 0
0, 0
0, 0
0, 0
0, 0
0, 0
0, 0
0, 0
0, 0
0, 0
0, 0
0, 0
0, 0
0, 0
0, 0
0, 0
0, 0
0, 0
0, 0
0, 0
0, 0
0, 0
#ENDOFDATA     end of spectrum data