File: host_upload/06-09-2024/ps_0852/dump3/ps__0852shot_2433.msa
#FORMAT      : EMSA/MAS spectral data file
#VERSION     : TC202v2.0 PIXL
#TITLE       : N/A
#DATE        :       Date in the format DD-MMM-YYYY, for example 07-JUL-2010
#TIME        :             The time of day at which the spectrum was recorded, in 24-hour format
#OWNER       : PIXL Flight Model       (PIXL will use this to indicate which instrument took the data.)
#NPOINTS     : 4096     Number of data points in the spectrum (This can be zero for configuration only files)
#NCOLUMNS    : 2     Number of data columns in the spectrum (This can be zero for configuration only files)
#XUNITS      : eV
#YUNITS      : COUNTS
#DATATYPE    : YY
#XPERCHAN    : 7.862, 7.881   eV per channel (separate by commas if more than one detector)
#OFFSET      : 18.5, -22.4         eV of first channel  (separate by commas if more than one detector
#SIGNALTYPE  : XRF
#YP_TEMP     : 2.267
#LIVETIME    : 8.55818, 8.5628   seconds (separate by commas if more than one detector)
#REALTIME    : 10, 10.0   seconds (separate by commas if more than one detector)
#SPECTRUM    : start of spectrum data
0, 0
0, 0
0, 0
0, 0
0, 0
0, 0
0, 0
0, 0
0, 0
0, 0
0, 0
0, 0
0, 0
0, 0
0, 0
0, 0
0, 0
0, 0
0, 0
0, 0
0, 0
0, 0
0, 0
0, 0
0, 0
0, 0
0, 0
0, 0
0, 0
0, 0
0, 0
0, 0
0, 1
0, 0
0, 0
0, 0
1, 2
0, 0
0, 1
2, 2
2, 3
0, 1
0, 0
1, 2
0, 1
1, 2
0, 0
4, 5
6, 1
12, 15
28, 18
41, 47
62, 56
73, 75
87, 73
79, 73
65, 61
38, 32
27, 20
12, 9
8, 5
7, 4
3, 9
6, 4
1, 2
2, 4
10, 2
7, 10
28, 22
53, 56
100, 104
184, 167
276, 247
385, 332
460, 404
444, 378
380, 335
361, 295
199, 174
128, 113
78, 62
45, 32
20, 10
7, 6
7, 5
3, 2
4, 2
3, 1
3, 1
1, 1
3, 2
3, 3
3, 0
3, 7
2, 0
9, 5
8, 4
14, 17
12, 20
19, 11
12, 14
15, 9
8, 9
7, 4
3, 5
3, 9
7, 3
4, 6
5, 9
14, 7
18, 18
26, 19
35, 36
37, 21
40, 40
22, 50
43, 26
34, 28
27, 21
27, 26
26, 24
14, 25
17, 20
18, 32
15, 19
15, 16
8, 17
9, 16
7, 7
10, 8
4, 3
8, 5
5, 5
8, 1
2, 1
4, 5
2, 2
3, 0
4, 3
2, 3
1, 1
2, 2
1, 2
2, 0
5, 1
3, 1
1, 2
4, 3
4, 2
5, 3
5, 7
16, 13
12, 11
25, 31
22, 34
35, 59
54, 65
60, 73
64, 70
54, 60
47, 48
28, 34
14, 17
12, 13
13, 8
7, 2
6, 3
7, 7
9, 5
6, 6
18, 18
9, 12
13, 14
7, 19
12, 21
8, 18
4, 25
6, 30
5, 40
3, 23
2, 27
5, 11
6, 9
2, 8
4, 5
3, 7
5, 8
4, 2
9, 4
7, 9
9, 6
16, 17
9, 13
15, 23
9, 28
17, 33
20, 28
15, 43
21, 40
23, 46
37, 43
37, 25
42, 28
43, 19
52, 5
28, 5
39, 7
34, 7
29, 3
20, 9
13, 8
8, 4
10, 6
11, 6
7, 4
9, 5
5, 2
8, 8
9, 0
7, 4
11, 3
7, 7
14, 8
12, 8
10, 6
17, 7
10, 13
14, 14
19, 17
19, 21
23, 20
21, 14
17, 20
20, 9
14, 13
9, 13
7, 6
5, 5
4, 8
6, 8
6, 12
11, 7
11, 8
7, 18
11, 19
25, 29
38, 38
42, 36
41, 48
54, 53
72, 49
59, 61
58, 54
51, 52
55, 40
38, 27
23, 23
23, 25
14, 16
18, 17
17, 19
24, 24
41, 55
85, 77
152, 187
286, 280
510, 504
798, 854
1152, 1233
1591, 1644
1970, 1978
2357, 2147
2522, 2158
2355, 1967
2176, 1734
1809, 1398
1346, 957
901, 656
572, 404
341, 239
234, 131
156, 64
109, 37
118, 26
114, 22
135, 18
139, 21
134, 13
120, 17
97, 13
95, 20
88, 28
76, 62
84, 85
102, 98
168, 160
205, 209
277, 295
307, 311
348, 329
352, 383
350, 329
306, 329
254, 240
170, 169
145, 108
75, 71
50, 42
21, 45
15, 25
13, 13
11, 5
5, 8
8, 12
8, 10
14, 12
14, 9
16, 12
18, 16
6, 9
11, 8
10, 4
7, 3
4, 5
3, 4
3, 6
8, 3
3, 3
5, 5
2, 5
3, 5
6, 2
6, 2
2, 5
3, 2
1, 5
3, 2
4, 1
4, 1
2, 1
3, 4
1, 3
8, 4
8, 5
8, 9
3, 2
12, 2
3, 4
3, 4
3, 4
8, 4
4, 7
6, 5
6, 7
6, 5
4, 5
2, 6
2, 4
6, 6
4, 1
6, 9
2, 2
1, 4
5, 4
1, 8
4, 4
3, 8
2, 7
6, 7
4, 5
5, 5
2, 6
2, 5
4, 3
4, 2
5, 4
5, 8
6, 0
3, 4
6, 3
2, 3
6, 5
3, 4
0, 3
0, 3
2, 3
3, 5
0, 4
1, 4
5, 4
5, 8
6, 11
9, 12
2, 19
7, 23
3, 26
9, 19
6, 22
3, 24
3, 23
2, 12
6, 16
5, 5
1, 11
5, 7
7, 2
3, 5
6, 2
5, 3
4, 1
3, 4
4, 0
7, 4
12, 3
18, 3
21, 3
24, 3
25, 0
42, 5
44, 2
33, 2
26, 3
31, 2
20, 3
11, 0
20, 3
11, 3
7, 1
4, 2
11, 3
7, 3
6, 1
3, 3
4, 0
1, 1
5, 4
1, 2
3, 1
2, 2
1, 4
1, 0
1, 2
2, 3
1, 4
1, 5
2, 6
2, 3
2, 3
2, 3
1, 2
3, 3
1, 5
3, 2
1, 1
1, 4
0, 3
3, 3
2, 1
2, 2
4, 1
3, 5
3, 2
2, 1
2, 1
2, 2
2, 0
2, 2
1, 4
2, 0
1, 1
1, 2
3, 1
4, 3
3, 4
3, 1
4, 1
5, 2
5, 2
4, 4
0, 2
3, 0
1, 0
3, 5
1, 2
2, 3
0, 1
2, 2
5, 3
3, 3
1, 2
4, 3
5, 3
1, 3
3, 2
1, 1
3, 1
2, 1
1, 3
5, 4
0, 2
1, 2
2, 5
2, 1
4, 1
2, 3
3, 3
3, 1
3, 1
1, 1
1, 0
0, 1
0, 0
2, 4
1, 2
0, 0
2, 1
1, 2
2, 5
1, 3
3, 0
0, 2
4, 2
2, 2
2, 2
1, 1
1, 2
1, 0
3, 3
0, 0
1, 2
2, 2
1, 2
2, 0
0, 1
1, 2
3, 2
0, 1
2, 2
1, 3
0, 5
5, 4
2, 5
5, 2
4, 1
4, 1
7, 5
0, 2
4, 1
0, 1
1, 1
2, 1
1, 1
2, 2
3, 1
1, 2
3, 1
2, 0
2, 2
2, 1
1, 3
2, 0
1, 4
3, 3
2, 0
2, 0
1, 2
1, 2
1, 1
0, 1
1, 2
1, 1
3, 1
0, 0
3, 1
0, 2
2, 1
2, 3
2, 4
3, 0
0, 1
1, 0
1, 0
0, 1
0, 3
2, 0
0, 2
0, 3
1, 0
0, 2
0, 1
1, 0
0, 1
0, 2
0, 0
2, 3
2, 2
2, 1
3, 2
1, 0
1, 3
4, 2
1, 0
1, 0
1, 2
1, 2
2, 1
1, 0
1, 1
1, 1
2, 1
1, 0
0, 0
4, 2
3, 2
3, 0
3, 0
2, 0
3, 1
1, 1
1, 1
1, 0
1, 1
1, 1
0, 0
1, 1
1, 0
4, 1
0, 2
2, 1
0, 0
2, 2
0, 0
2, 1
3, 1
0, 0
3, 1
0, 1
2, 0
2, 1
2, 2
0, 0
0, 0
0, 3
1, 1
2, 2
0, 0
1, 1
1, 0
1, 0
0, 1
1, 1
1, 0
0, 1
1, 0
0, 0
1, 1
0, 1
1, 1
0, 0
0, 0
1, 1
0, 0
1, 0
0, 0
1, 1
1, 0
1, 0
0, 0
0, 1
0, 0
0, 0
0, 0
1, 0
0, 0
1, 0
1, 0
0, 0
1, 0
0, 0
0, 1
1, 0
0, 0
1, 0
0, 1
0, 2
0, 0
0, 0
0, 2
1, 1
1, 1
0, 1
1, 1
1, 0
0, 0
0, 0
1, 0
0, 0
1, 0
1, 1
0, 2
0, 2
0, 0
0, 0
2, 0
0, 0
0, 1
1, 1
0, 0
0, 0
0, 0
1, 0
0, 1
0, 2
0, 1
2, 1
0, 1
0, 0
1, 2
1, 0
0, 0
0, 1
0, 0
3, 0
2, 1
0, 0
1, 0
1, 1
0, 2
0, 0
0, 0
1, 0
0, 0
0, 0
1, 0
1, 0
2, 0
0, 0
1, 0
1, 0
0, 0
0, 0
1, 1
0, 0
0, 0
1, 0
0, 0
0, 0
0, 0
0, 0
1, 0
1, 0
1, 0
1, 1
0, 1
0, 0
0, 1
1, 0
0, 1
0, 0
0, 0
1, 0
0, 0
2, 0
2, 0
0, 0
0, 0
0, 0
0, 0
0, 0
0, 0
2, 0
0, 1
0, 0
0, 0
0, 1
1, 3
0, 0
0, 0
0, 0
0, 0
0, 0
0, 0
0, 0
0, 0
0, 0
0, 0
1, 0
1, 0
0, 1
0, 0
1, 0
1, 0
0, 0
0, 0
0, 0
0, 0
0, 1
0, 0
0, 0
0, 0
0, 0
1, 0
0, 1
0, 0
0, 0
0, 0
1, 2
1, 0
0, 0
0, 0
0, 0
2, 0
0, 0
0, 0
0, 1
0, 0
0, 0
0, 0
0, 1
1, 0
0, 0
0, 0
0, 1
0, 0
0, 0
0, 0
0, 0
1, 0
0, 0
0, 0
0, 0
0, 0
1, 0
0, 0
0, 0
0, 0
0, 0
1, 0
0, 0
0, 0
0, 0
0, 0
1, 0
0, 0
1, 0
0, 0
0, 0
0, 0
1, 0
0, 0
0, 1
0, 0
0, 0
1, 0
0, 0
0, 0
0, 2
2, 0
0, 0
1, 0
0, 0
0, 0
0, 0
0, 0
0, 0
0, 0
0, 0
0, 0
1, 0
0, 0
0, 1
0, 0
0, 0
0, 0
0, 1
0, 0
0, 0
0, 0
0, 0
0, 0
0, 0
0, 0
1, 0
0, 1
0, 0
0, 0
0, 0
0, 0
0, 0
0, 0
0, 0
0, 0
0, 0
0, 0
0, 0
0, 0
1, 0
0, 0
0, 0
0, 0
0, 0
0, 0
0, 0
0, 0
0, 0
0, 0
0, 0
0, 0
0, 0
0, 0
0, 0
0, 0
0, 0
0, 0
0, 0
0, 0
0, 0
0, 0
0, 0
0, 0
0, 0
0, 0
0, 0
0, 0
0, 0
0, 0
0, 0
0, 0
0, 0
0, 0
0, 0
0, 0
0, 0
0, 0
0, 0
0, 0
1, 0
0, 0
0, 0
0, 0
0, 0
0, 0
0, 0
0, 0
0, 0
0, 0
0, 0
0, 0
0, 0
0, 0
0, 0
0, 1
0, 0
0, 0
0, 0
0, 0
0, 0
0, 0
0, 0
0, 0
0, 0
0, 0
0, 0
0, 0
0, 0
0, 0
0, 0
0, 0
0, 0
0, 0
0, 0
0, 0
0, 0
0, 0
0, 0
1, 0
0, 0
0, 0
0, 0
0, 0
0, 0
1, 0
0, 0
0, 0
0, 0
0, 0
0, 0
0, 0
0, 0
0, 0
0, 0
0, 0
0, 0
0, 0
0, 0
0, 0
0, 0
0, 0
0, 0
0, 0
0, 0
0, 0
0, 0
0, 0
0, 0
0, 0
0, 0
0, 0
0, 0
0, 0
0, 0
0, 0
0, 0
0, 0
0, 0
0, 0
0, 0
0, 0
0, 0
1, 0
0, 0
0, 0
0, 0
0, 0
0, 0
0, 0
0, 0
0, 0
0, 0
0, 0
0, 0
0, 0
0, 0
0, 0
0, 0
0, 0
0, 0
0, 0
0, 0
0, 0
0, 0
0, 0
0, 0
0, 0
0, 0
0, 0
0, 0
0, 0
0, 0
0, 0
0, 0
0, 0
0, 0
0, 0
0, 0
0, 0
0, 0
0, 0
0, 0
0, 0
0, 0
0, 0
0, 0
0, 0
0, 0
0, 0
0, 0
0, 0
0, 0
0, 0
0, 0
0, 0
0, 0
0, 0
0, 0
0, 0
0, 0
0, 0
0, 0
0, 0
0, 0
0, 0
0, 0
0, 0
0, 0
0, 0
0, 0
0, 0
0, 0
0, 0
0, 0
0, 0
0, 0
0, 0
0, 0
1, 0
0, 0
0, 0
0, 0
0, 0
0, 0
0, 0
0, 0
0, 0
0, 0
0, 0
0, 0
0, 0
0, 0
0, 0
0, 0
0, 0
0, 0
0, 0
0, 0
0, 0
0, 0
0, 0
0, 0
0, 0
0, 0
0, 0
0, 0
0, 0
0, 0
0, 0
0, 0
0, 0
0, 0
0, 0
0, 0
0, 0
0, 0
0, 0
0, 0
0, 0
0, 0
0, 0
0, 0
0, 0
0, 0
0, 0
0, 0
0, 0
0, 0
0, 0
0, 0
0, 0
0, 0
0, 0
0, 0
0, 0
0, 0
0, 0
0, 0
0, 0
0, 0
0, 0
0, 0
0, 0
0, 0
0, 0
0, 0
0, 0
0, 0
0, 0
0, 0
0, 0
0, 0
0, 0
0, 0
0, 0
0, 0
0, 0
0, 0
0, 0
0, 0
0, 0
0, 0
0, 0
0, 0
0, 0
0, 0
0, 0
0, 0
0, 0
0, 0
0, 0
0, 0
0, 0
0, 0
0, 0
0, 0
0, 0
0, 0
0, 0
0, 0
0, 0
0, 0
0, 0
0, 0
0, 0
0, 0
0, 0
0, 0
0, 0
0, 0
0, 0
0, 0
0, 0
0, 0
0, 0
0, 0
0, 0
0, 0
0, 0
0, 0
0, 0
0, 0
0, 0
0, 0
0, 0
0, 0
0, 0
0, 0
0, 0
0, 0
0, 0
0, 0
0, 0
0, 0
0, 0
0, 0
0, 0
0, 0
0, 0
0, 0
0, 0
0, 0
0, 0
0, 0
0, 0
0, 0
0, 0
0, 0
0, 0
0, 0
0, 0
0, 0
0, 0
0, 0
0, 0
0, 0
0, 0
0, 0
0, 0
0, 0
0, 0
0, 0
0, 0
0, 0
0, 0
0, 0
0, 0
0, 0
0, 0
0, 0
0, 0
0, 0
0, 0
0, 0
0, 0
0, 0
0, 0
0, 0
0, 0
0, 0
0, 0
0, 0
0, 0
0, 0
0, 0
0, 0
0, 0
0, 0
0, 0
0, 0
0, 0
0, 0
0, 0
0, 0
0, 0
0, 0
0, 0
0, 0
0, 0
0, 0
0, 0
0, 0
0, 0
0, 0
0, 0
0, 0
0, 0
0, 0
0, 0
0, 0
0, 0
0, 0
0, 0
0, 0
0, 0
0, 0
0, 0
0, 0
0, 0
0, 0
0, 0
0, 0
0, 0
0, 0
0, 0
0, 0
0, 0
0, 0
0, 0
0, 0
0, 0
0, 0
0, 0
0, 0
0, 0
0, 0
0, 0
0, 0
0, 0
0, 0
0, 0
0, 0
0, 0
0, 0
0, 0
0, 0
0, 0
0, 0
0, 0
0, 0
0, 0
0, 0
0, 0
0, 0
0, 0
0, 0
0, 0
0, 0
0, 0
0, 0
0, 0
0, 0
0, 0
0, 0
0, 0
0, 0
0, 0
0, 0
0, 0
#ENDOFDATA     end of spectrum data