File: host_upload/06-09-2024/ps_0852/dump3/ps__0852shot_2552.msa
#FORMAT      : EMSA/MAS spectral data file
#VERSION     : TC202v2.0 PIXL
#TITLE       : N/A
#DATE        :       Date in the format DD-MMM-YYYY, for example 07-JUL-2010
#TIME        :             The time of day at which the spectrum was recorded, in 24-hour format
#OWNER       : PIXL Flight Model       (PIXL will use this to indicate which instrument took the data.)
#NPOINTS     : 4096     Number of data points in the spectrum (This can be zero for configuration only files)
#NCOLUMNS    : 2     Number of data columns in the spectrum (This can be zero for configuration only files)
#XUNITS      : eV
#YUNITS      : COUNTS
#DATATYPE    : YY
#XPERCHAN    : 7.862, 7.881   eV per channel (separate by commas if more than one detector)
#OFFSET      : 18.5, -22.4         eV of first channel  (separate by commas if more than one detector
#SIGNALTYPE  : XRF
#YP_TEMP     : 2.332
#LIVETIME    : 8.55198, 8.55444   seconds (separate by commas if more than one detector)
#REALTIME    : 10, 10.0   seconds (separate by commas if more than one detector)
#SPECTRUM    : start of spectrum data
0, 0
0, 0
0, 0
0, 0
0, 0
0, 0
0, 0
0, 0
0, 0
0, 0
0, 0
0, 0
0, 0
0, 0
0, 0
0, 0
0, 0
0, 0
0, 0
0, 0
0, 0
0, 0
0, 0
0, 0
0, 0
0, 0
0, 0
0, 0
0, 0
0, 0
0, 0
0, 0
0, 0
0, 0
0, 0
0, 1
0, 2
0, 2
0, 2
4, 6
0, 1
1, 1
0, 0
1, 1
1, 0
0, 2
1, 0
2, 4
5, 3
10, 8
16, 17
27, 19
56, 34
62, 52
76, 54
75, 51
37, 34
40, 39
22, 18
14, 7
11, 5
7, 6
8, 5
8, 5
5, 6
8, 5
7, 6
5, 12
23, 25
39, 53
128, 113
218, 172
314, 289
440, 357
537, 459
494, 472
469, 367
359, 314
248, 172
178, 116
88, 62
50, 36
21, 17
10, 7
3, 9
9, 6
4, 3
5, 3
5, 3
3, 1
2, 1
0, 2
4, 1
5, 0
3, 4
13, 11
10, 3
7, 11
10, 8
8, 6
5, 12
17, 4
8, 10
6, 6
1, 6
9, 5
14, 9
22, 15
24, 24
32, 27
48, 46
63, 63
73, 71
81, 86
75, 77
78, 66
56, 76
46, 49
46, 54
35, 36
39, 42
31, 21
16, 22
27, 27
25, 21
12, 14
23, 21
13, 16
12, 9
13, 9
7, 8
7, 5
4, 6
3, 3
1, 4
0, 2
3, 3
1, 6
2, 3
5, 4
2, 5
3, 6
8, 4
6, 2
5, 4
8, 3
7, 7
10, 2
12, 2
20, 4
30, 16
30, 32
50, 45
74, 62
118, 127
156, 151
197, 161
203, 168
184, 170
147, 134
124, 96
122, 85
62, 53
31, 28
24, 17
14, 17
20, 11
16, 22
24, 11
17, 24
34, 31
14, 21
17, 26
34, 18
18, 21
22, 14
4, 7
10, 7
6, 6
6, 8
5, 2
3, 2
8, 1
6, 3
4, 5
5, 11
1, 6
7, 23
13, 27
15, 21
14, 54
11, 45
19, 42
16, 51
15, 48
22, 34
15, 25
17, 26
19, 23
13, 21
17, 13
9, 8
15, 10
6, 3
11, 7
4, 7
9, 7
4, 0
3, 7
4, 8
8, 2
7, 3
7, 6
2, 6
5, 2
5, 4
9, 12
13, 4
2, 7
4, 1
8, 7
5, 6
9, 11
5, 11
9, 16
15, 17
18, 35
28, 49
35, 55
40, 60
45, 57
43, 56
42, 54
36, 47
23, 36
23, 30
15, 18
26, 9
13, 10
11, 5
12, 3
11, 7
10, 12
16, 12
21, 22
25, 11
35, 27
41, 39
51, 39
67, 50
71, 65
77, 54
65, 54
55, 56
40, 38
43, 32
32, 22
22, 20
22, 12
12, 18
16, 16
21, 33
47, 51
79, 83
155, 163
278, 329
482, 526
724, 836
1076, 1231
1584, 1602
1915, 1877
2279, 2186
2383, 2235
2380, 2121
2089, 1756
1714, 1521
1292, 1071
901, 729
524, 416
330, 245
208, 141
99, 80
61, 42
41, 29
22, 26
24, 23
24, 8
26, 15
22, 13
33, 14
50, 21
64, 38
84, 48
87, 88
137, 100
192, 143
263, 195
281, 258
360, 274
395, 332
315, 319
361, 275
314, 249
219, 167
188, 128
152, 82
90, 71
50, 41
31, 14
25, 10
13, 8
13, 10
11, 5
5, 9
8, 7
15, 11
11, 16
13, 14
11, 16
9, 20
10, 20
15, 23
9, 22
5, 22
6, 16
3, 11
6, 12
1, 9
5, 8
5, 7
3, 1
3, 7
4, 2
5, 6
3, 2
3, 2
7, 3
4, 3
8, 4
4, 9
7, 3
10, 3
6, 3
7, 8
9, 2
7, 4
5, 7
3, 5
13, 3
7, 7
8, 4
4, 4
5, 2
7, 4
4, 1
3, 3
2, 4
3, 3
4, 6
6, 2
4, 6
0, 4
2, 4
2, 3
4, 6
5, 1
2, 5
4, 4
4, 7
4, 8
3, 8
2, 11
4, 6
2, 1
1, 8
1, 6
6, 4
1, 3
3, 2
3, 4
2, 6
8, 4
2, 4
4, 3
5, 3
2, 3
3, 1
2, 4
2, 3
3, 4
4, 4
6, 2
3, 7
7, 3
5, 1
4, 1
5, 2
4, 1
4, 3
3, 7
9, 4
8, 2
6, 4
4, 5
8, 3
11, 5
12, 1
5, 3
9, 1
11, 3
10, 0
7, 3
2, 4
7, 6
4, 5
8, 3
2, 4
3, 3
4, 6
3, 5
4, 8
2, 9
3, 6
1, 2
0, 5
2, 3
7, 1
2, 5
2, 4
4, 2
3, 5
3, 4
4, 3
2, 2
5, 3
3, 6
1, 1
5, 2
4, 4
2, 9
6, 4
8, 3
2, 6
2, 5
9, 3
4, 4
6, 2
9, 8
10, 2
16, 1
13, 5
16, 1
9, 4
10, 5
9, 4
9, 6
4, 6
6, 2
3, 5
6, 6
4, 6
4, 8
1, 6
4, 4
0, 2
3, 3
0, 9
4, 5
0, 7
1, 2
2, 3
1, 2
1, 3
3, 2
5, 5
0, 2
0, 2
1, 1
2, 2
2, 4
6, 0
1, 2
0, 3
1, 0
1, 4
4, 3
2, 4
2, 1
1, 1
3, 2
1, 2
1, 5
6, 2
2, 1
8, 0
6, 1
2, 2
2, 3
0, 0
3, 3
2, 3
2, 1
1, 1
3, 1
3, 1
1, 1
1, 2
4, 3
1, 1
1, 1
2, 2
2, 2
0, 1
4, 2
2, 1
1, 3
0, 2
2, 5
3, 4
0, 1
0, 1
3, 2
2, 1
1, 2
3, 2
2, 2
6, 0
2, 0
0, 3
0, 4
1, 2
1, 1
2, 2
5, 2
2, 1
1, 1
3, 4
4, 7
3, 3
6, 4
4, 2
6, 2
4, 5
3, 7
5, 2
1, 2
7, 5
2, 3
1, 2
3, 1
4, 4
2, 2
3, 2
0, 1
1, 1
1, 3
1, 3
4, 1
1, 0
1, 2
0, 3
2, 2
2, 1
6, 3
1, 1
3, 1
3, 3
5, 3
1, 1
3, 3
1, 0
0, 3
1, 1
2, 1
3, 3
1, 4
1, 1
3, 1
0, 0
2, 1
2, 1
2, 0
2, 0
2, 1
0, 0
1, 0
3, 0
1, 0
1, 1
1, 1
0, 1
0, 0
1, 0
1, 2
2, 0
0, 1
4, 1
2, 3
1, 1
2, 0
1, 0
0, 1
1, 0
1, 0
2, 1
1, 0
1, 0
1, 0
0, 1
0, 2
2, 0
0, 1
4, 0
0, 1
2, 0
2, 2
0, 0
0, 2
1, 0
0, 0
1, 2
0, 0
0, 1
1, 0
1, 0
1, 1
1, 2
2, 2
2, 1
1, 2
1, 1
1, 2
1, 0
0, 0
1, 0
1, 2
0, 2
2, 0
1, 1
0, 0
0, 1
1, 0
0, 1
0, 0
0, 0
0, 0
0, 1
1, 0
0, 0
0, 2
1, 1
0, 0
0, 0
0, 0
0, 0
1, 0
0, 0
1, 0
0, 0
0, 1
0, 0
2, 0
1, 2
0, 0
1, 0
1, 0
0, 2
0, 1
0, 1
1, 1
0, 0
2, 2
1, 2
1, 0
1, 2
1, 0
2, 0
2, 1
0, 0
0, 0
1, 0
1, 0
0, 1
0, 0
2, 0
1, 0
0, 0
0, 0
0, 1
0, 0
1, 1
0, 1
0, 0
1, 0
0, 0
1, 0
2, 0
1, 0
0, 2
0, 0
0, 0
1, 0
0, 0
1, 0
0, 0
0, 0
0, 0
0, 0
1, 0
1, 0
2, 0
0, 0
0, 0
0, 0
0, 0
0, 1
1, 0
2, 0
1, 0
1, 0
0, 0
1, 0
0, 0
1, 0
1, 0
1, 1
0, 0
1, 1
0, 2
0, 0
1, 0
1, 1
1, 1
1, 2
0, 0
0, 2
1, 0
1, 0
0, 0
0, 0
2, 0
0, 0
0, 1
0, 0
1, 0
0, 0
0, 0
1, 0
0, 1
0, 1
1, 0
0, 0
0, 1
0, 0
0, 0
0, 0
0, 0
0, 1
1, 0
0, 0
0, 1
0, 1
0, 0
1, 0
0, 0
0, 0
0, 0
0, 1
0, 0
1, 1
1, 0
0, 0
2, 0
0, 0
0, 0
0, 0
1, 0
0, 0
0, 1
1, 0
0, 0
0, 0
0, 0
0, 0
0, 0
1, 0
0, 1
0, 0
0, 0
0, 0
0, 0
0, 1
0, 1
0, 0
0, 0
1, 0
0, 1
1, 1
1, 0
1, 0
0, 1
0, 0
1, 1
0, 0
1, 0
0, 0
0, 0
0, 0
0, 1
0, 0
0, 0
0, 1
1, 0
0, 0
1, 0
0, 0
0, 0
2, 0
2, 0
0, 0
0, 1
0, 0
1, 0
1, 1
0, 0
0, 0
0, 0
0, 0
1, 0
0, 0
0, 0
1, 0
0, 0
0, 0
0, 1
0, 0
0, 0
1, 0
0, 0
0, 0
0, 0
0, 0
0, 0
0, 0
0, 0
0, 1
0, 0
2, 0
0, 0
1, 0
0, 1
0, 0
0, 0
0, 1
0, 0
0, 0
0, 0
1, 0
0, 0
0, 0
1, 0
0, 0
0, 0
0, 0
0, 0
0, 0
0, 0
1, 0
0, 0
0, 0
0, 0
0, 0
0, 0
0, 0
0, 0
0, 1
0, 0
0, 0
0, 0
0, 0
0, 0
0, 0
0, 0
0, 0
0, 0
0, 0
0, 0
0, 0
0, 0
0, 0
0, 0
0, 0
0, 1
0, 0
0, 0
0, 0
0, 0
0, 0
0, 1
0, 0
0, 1
0, 0
0, 0
0, 0
0, 0
0, 0
0, 0
0, 0
0, 0
0, 0
0, 0
0, 0
0, 0
0, 0
0, 0
0, 1
0, 0
0, 0
0, 0
0, 1
0, 0
0, 0
0, 0
0, 0
0, 0
0, 0
0, 0
0, 0
0, 0
0, 0
0, 0
0, 0
0, 0
1, 0
0, 0
0, 0
0, 0
0, 0
0, 0
0, 0
0, 0
0, 0
0, 0
0, 1
0, 0
0, 0
0, 0
0, 0
0, 0
0, 0
0, 0
0, 0
0, 0
0, 0
0, 0
0, 0
0, 0
0, 0
0, 0
0, 0
0, 0
0, 0
0, 0
0, 0
0, 0
0, 0
0, 0
0, 0
0, 0
0, 0
0, 0
0, 0
0, 0
0, 0
0, 0
0, 0
0, 0
0, 0
0, 0
0, 1
0, 0
0, 0
0, 0
0, 0
0, 0
0, 0
0, 0
0, 0
0, 0
0, 0
0, 0
0, 0
0, 0
0, 0
0, 0
0, 0
0, 0
0, 0
0, 0
0, 0
0, 0
0, 0
0, 0
0, 0
0, 0
0, 0
0, 0
0, 0
0, 0
0, 0
0, 0
0, 0
0, 0
0, 0
0, 0
1, 0
0, 0
0, 0
0, 0
0, 0
0, 0
0, 0
0, 0
0, 0
0, 0
0, 0
0, 0
0, 0
0, 0
0, 1
0, 0
0, 0
0, 0
0, 0
0, 0
0, 0
0, 0
0, 0
0, 0
1, 0
0, 0
0, 0
0, 0
0, 0
0, 0
0, 0
0, 0
0, 0
0, 0
0, 0
0, 0
0, 0
0, 0
0, 0
0, 0
0, 0
0, 0
0, 1
0, 0
0, 0
0, 0
0, 0
0, 0
0, 0
0, 0
0, 0
0, 0
0, 0
0, 0
0, 0
0, 0
0, 0
0, 0
0, 0
0, 0
0, 0
0, 0
0, 0
0, 0
0, 0
0, 0
0, 0
0, 0
0, 0
0, 0
0, 0
0, 0
0, 0
0, 0
0, 0
0, 0
0, 0
0, 0
0, 0
0, 0
0, 0
0, 1
0, 0
0, 0
0, 0
0, 0
0, 0
0, 0
0, 0
0, 0
0, 0
0, 0
0, 0
0, 0
0, 0
0, 0
0, 0
0, 0
0, 0
0, 0
0, 0
0, 0
0, 0
0, 0
0, 0
0, 0
0, 0
0, 0
0, 0
0, 0
0, 0
0, 0
0, 0
0, 0
0, 0
0, 0
0, 0
0, 0
0, 0
0, 0
0, 0
0, 0
0, 0
0, 0
0, 0
0, 0
0, 0
0, 0
0, 0
0, 0
0, 0
0, 0
0, 0
0, 0
0, 0
0, 0
0, 0
0, 0
0, 0
0, 0
0, 0
0, 0
0, 0
0, 0
0, 0
0, 0
0, 0
0, 0
0, 0
0, 0
0, 0
0, 0
0, 0
0, 0
0, 0
0, 0
0, 0
0, 0
0, 0
0, 0
0, 0
0, 0
0, 0
0, 0
0, 0
0, 0
0, 0
0, 0
0, 0
0, 0
0, 0
0, 0
0, 0
0, 0
0, 0
0, 0
0, 0
0, 0
0, 0
0, 0
0, 0
0, 0
0, 0
0, 0
0, 0
0, 0
0, 0
0, 0
0, 0
0, 0
0, 0
0, 0
0, 0
0, 0
0, 0
0, 0
0, 0
0, 0
0, 0
0, 0
0, 0
0, 0
0, 0
0, 0
0, 0
0, 0
0, 0
0, 0
0, 0
0, 0
0, 0
0, 0
0, 0
0, 0
0, 0
0, 0
0, 0
0, 0
0, 0
0, 0
0, 0
0, 0
0, 0
0, 0
0, 0
0, 0
0, 0
0, 0
0, 0
0, 0
0, 0
0, 0
0, 0
0, 0
0, 0
0, 0
0, 0
0, 0
0, 0
0, 0
0, 0
0, 0
0, 0
0, 0
0, 0
0, 0
0, 0
0, 0
0, 0
0, 0
0, 0
0, 0
0, 0
0, 0
0, 0
0, 0
0, 0
0, 0
0, 0
0, 0
0, 0
0, 0
0, 0
0, 0
0, 0
0, 0
0, 0
0, 0
0, 0
0, 0
0, 0
0, 0
0, 0
0, 0
0, 0
0, 0
0, 0
0, 0
0, 0
0, 0
0, 0
0, 0
0, 0
0, 0
0, 0
0, 0
0, 0
0, 0
0, 0
0, 0
0, 0
0, 0
0, 0
0, 0
0, 0
0, 0
0, 0
0, 0
0, 0
0, 0
0, 0
0, 0
0, 0
0, 0
0, 0
0, 0
0, 0
0, 0
0, 0
0, 0
0, 0
0, 0
0, 0
0, 0
0, 0
0, 0
0, 0
0, 0
0, 0
0, 0
0, 0
0, 0
0, 0
0, 0
0, 0
0, 0
0, 0
0, 0
0, 0
0, 0
0, 0
0, 0
0, 0
0, 0
0, 0
0, 0
0, 0
0, 0
0, 0
0, 0
0, 0
0, 0
0, 0
0, 0
0, 0
0, 0
0, 0
0, 0
0, 0
0, 0
0, 0
#ENDOFDATA     end of spectrum data