File: host_upload/06-09-2024/ps_0852/dump3/ps__0852shot_2289.msa
#FORMAT      : EMSA/MAS spectral data file
#VERSION     : TC202v2.0 PIXL
#TITLE       : N/A
#DATE        :       Date in the format DD-MMM-YYYY, for example 07-JUL-2010
#TIME        :             The time of day at which the spectrum was recorded, in 24-hour format
#OWNER       : PIXL Flight Model       (PIXL will use this to indicate which instrument took the data.)
#NPOINTS     : 4096     Number of data points in the spectrum (This can be zero for configuration only files)
#NCOLUMNS    : 2     Number of data columns in the spectrum (This can be zero for configuration only files)
#XUNITS      : eV
#YUNITS      : COUNTS
#DATATYPE    : YY
#XPERCHAN    : 7.862, 7.881   eV per channel (separate by commas if more than one detector)
#OFFSET      : 18.5, -22.4         eV of first channel  (separate by commas if more than one detector
#SIGNALTYPE  : XRF
#YP_TEMP     : 2.3
#LIVETIME    : 8.57936, 8.58415   seconds (separate by commas if more than one detector)
#REALTIME    : 10, 10.0   seconds (separate by commas if more than one detector)
#SPECTRUM    : start of spectrum data
0, 0
0, 0
0, 0
0, 0
0, 0
0, 0
0, 0
0, 0
0, 0
0, 0
0, 0
0, 0
0, 0
0, 0
0, 0
0, 0
0, 0
0, 0
0, 0
0, 0
0, 0
0, 0
0, 0
0, 0
0, 0
0, 0
0, 0
0, 0
0, 0
0, 0
0, 0
0, 0
1, 1
0, 0
1, 0
0, 1
2, 3
2, 1
1, 0
0, 2
3, 1
1, 2
0, 3
3, 3
1, 1
1, 0
3, 3
1, 3
5, 6
8, 15
15, 27
33, 45
37, 48
60, 59
69, 55
64, 58
52, 48
34, 45
19, 21
17, 16
6, 6
3, 9
7, 11
10, 9
8, 7
8, 7
10, 10
9, 10
18, 17
44, 53
88, 91
128, 129
204, 208
302, 359
366, 331
343, 313
289, 312
245, 249
154, 141
102, 93
56, 58
36, 28
15, 18
9, 8
5, 9
6, 3
3, 1
3, 5
3, 7
5, 9
8, 6
4, 14
24, 16
43, 45
93, 85
121, 138
155, 213
231, 286
250, 287
286, 324
264, 256
205, 219
152, 147
90, 109
65, 65
45, 49
46, 35
31, 41
45, 41
59, 44
58, 67
88, 76
84, 90
77, 106
73, 108
88, 87
69, 104
53, 69
56, 62
43, 46
30, 54
29, 38
42, 28
28, 22
25, 32
24, 13
12, 17
14, 15
14, 10
10, 6
12, 5
9, 5
6, 4
7, 5
9, 4
2, 3
2, 5
8, 4
4, 3
2, 2
3, 7
3, 3
5, 9
4, 6
1, 3
3, 5
1, 1
2, 5
3, 3
1, 1
2, 4
6, 6
3, 7
11, 14
13, 4
16, 14
8, 15
9, 14
9, 13
12, 18
9, 13
11, 7
4, 9
10, 7
1, 5
5, 2
2, 9
1, 1
4, 3
10, 8
3, 3
3, 5
5, 10
5, 5
3, 6
1, 10
6, 9
2, 8
5, 9
3, 9
2, 7
0, 7
4, 6
6, 5
5, 7
1, 6
2, 5
5, 3
4, 9
10, 10
11, 6
13, 16
15, 12
9, 15
9, 13
14, 14
11, 14
25, 18
13, 16
10, 19
21, 13
9, 11
18, 9
11, 7
9, 7
9, 15
3, 9
9, 14
7, 11
13, 12
8, 16
5, 10
5, 11
7, 11
5, 13
6, 5
11, 12
6, 8
3, 3
1, 7
4, 6
7, 7
4, 11
10, 5
9, 14
12, 9
10, 10
11, 11
17, 13
9, 12
10, 21
15, 16
15, 17
20, 18
19, 22
23, 20
23, 11
21, 10
16, 8
13, 7
14, 12
10, 7
8, 16
8, 14
20, 22
26, 26
28, 45
46, 34
34, 55
55, 48
68, 101
64, 75
70, 74
44, 52
45, 43
29, 42
27, 26
27, 20
16, 21
15, 27
16, 13
18, 41
50, 53
92, 107
151, 195
253, 373
449, 627
727, 953
1098, 1395
1528, 1848
1857, 2201
2213, 2536
2338, 2570
2243, 2382
2024, 2006
1647, 1599
1212, 1145
857, 759
551, 454
346, 279
202, 138
109, 85
59, 37
46, 30
19, 21
20, 14
13, 14
14, 17
21, 8
19, 19
21, 25
23, 40
55, 47
54, 80
109, 143
131, 182
183, 240
233, 283
301, 341
326, 423
357, 371
332, 311
289, 287
248, 249
180, 150
140, 99
61, 71
50, 43
28, 23
13, 11
4, 8
14, 9
11, 8
11, 11
18, 10
14, 11
16, 7
23, 11
21, 13
18, 10
19, 20
18, 12
16, 9
29, 5
25, 4
24, 7
28, 2
26, 5
21, 13
17, 5
12, 2
16, 5
6, 3
7, 6
5, 4
6, 5
4, 3
4, 6
5, 5
7, 4
9, 5
5, 5
8, 3
3, 12
4, 7
5, 10
6, 16
5, 17
4, 15
6, 14
3, 9
7, 13
4, 16
1, 18
3, 13
9, 17
2, 23
4, 6
3, 10
4, 10
2, 3
4, 7
6, 5
8, 8
6, 4
8, 3
4, 4
5, 3
3, 6
3, 4
6, 4
6, 7
9, 3
3, 3
10, 2
4, 2
8, 2
6, 2
8, 5
5, 4
5, 5
4, 5
4, 9
6, 2
6, 6
3, 3
6, 5
2, 7
2, 3
6, 2
3, 5
2, 5
0, 10
1, 7
2, 9
2, 9
3, 10
3, 7
2, 4
2, 3
2, 5
0, 5
3, 3
3, 5
3, 1
4, 3
3, 4
10, 3
2, 4
9, 3
5, 4
8, 5
8, 4
8, 4
1, 7
3, 6
1, 5
3, 6
1, 5
5, 8
5, 8
7, 7
6, 7
7, 4
4, 6
3, 2
6, 3
0, 3
5, 3
8, 4
9, 3
4, 4
9, 4
6, 2
7, 3
5, 7
5, 10
5, 7
2, 7
2, 3
2, 5
4, 2
3, 3
2, 1
2, 2
1, 4
3, 1
1, 8
4, 2
2, 2
2, 4
3, 1
3, 1
3, 3
1, 5
2, 1
5, 2
4, 0
2, 1
2, 2
4, 7
4, 2
3, 5
7, 1
0, 1
7, 1
4, 2
6, 2
3, 0
4, 1
3, 1
4, 5
8, 4
3, 0
3, 1
3, 2
4, 2
2, 2
2, 4
3, 5
1, 2
2, 3
3, 3
2, 2
2, 1
1, 2
2, 0
3, 1
0, 5
2, 3
0, 1
3, 1
3, 3
1, 2
2, 2
2, 0
0, 5
1, 2
0, 1
2, 2
3, 0
0, 3
5, 4
0, 6
2, 2
2, 0
0, 5
4, 4
0, 4
1, 0
1, 2
1, 4
3, 4
2, 1
2, 0
3, 4
0, 2
1, 2
4, 3
1, 1
2, 3
2, 0
2, 0
6, 1
1, 5
3, 0
1, 1
3, 3
2, 2
0, 0
0, 2
0, 0
1, 2
5, 2
2, 2
1, 2
4, 4
2, 2
4, 1
1, 6
6, 3
3, 3
3, 3
4, 3
3, 1
1, 4
4, 2
4, 3
4, 3
4, 0
2, 2
1, 5
3, 1
4, 5
3, 0
0, 2
4, 1
0, 0
2, 1
0, 5
4, 3
1, 3
2, 0
2, 2
1, 3
0, 2
5, 1
0, 2
3, 2
2, 4
1, 0
4, 3
2, 0
2, 4
1, 2
1, 1
1, 1
1, 2
1, 1
1, 2
2, 1
3, 2
2, 1
2, 0
0, 0
1, 2
1, 0
1, 1
0, 3
1, 3
0, 1
0, 1
2, 0
1, 3
2, 2
1, 3
4, 0
0, 4
0, 0
0, 1
2, 0
5, 2
1, 0
1, 0
3, 1
0, 1
1, 3
0, 2
1, 2
1, 1
2, 1
1, 1
2, 1
0, 0
1, 1
0, 0
1, 2
2, 0
0, 0
1, 0
0, 1
1, 0
2, 0
1, 0
0, 3
2, 0
1, 1
1, 2
0, 1
0, 3
2, 2
0, 1
1, 3
0, 0
2, 0
2, 0
2, 1
1, 3
1, 0
1, 1
1, 1
1, 1
1, 1
0, 2
1, 0
0, 1
0, 0
1, 0
0, 2
0, 0
0, 0
1, 2
2, 1
2, 0
1, 0
0, 0
2, 0
2, 1
0, 2
0, 1
1, 0
1, 0
0, 0
2, 0
0, 1
0, 0
0, 0
0, 2
0, 0
2, 0
1, 1
0, 1
1, 1
3, 1
0, 0
3, 0
1, 1
0, 0
1, 0
0, 0
1, 2
1, 0
0, 1
1, 0
0, 2
0, 1
0, 0
0, 1
2, 1
2, 0
0, 0
0, 1
1, 0
1, 1
0, 1
1, 0
0, 0
0, 0
0, 1
0, 1
0, 0
0, 0
0, 0
1, 2
0, 2
0, 0
0, 0
0, 0
0, 2
0, 0
0, 0
0, 1
1, 1
1, 1
0, 3
0, 1
0, 0
0, 0
1, 1
0, 0
1, 0
1, 0
0, 0
1, 1
2, 0
0, 0
1, 1
1, 0
2, 0
1, 1
0, 1
0, 0
1, 0
1, 1
0, 0
0, 0
1, 2
0, 0
1, 0
0, 0
0, 1
0, 0
0, 1
0, 0
0, 0
1, 0
0, 0
0, 0
0, 1
0, 0
0, 1
0, 0
0, 3
0, 1
0, 0
2, 1
0, 0
0, 0
0, 0
0, 0
0, 0
0, 0
2, 1
0, 1
0, 0
0, 0
0, 0
0, 0
0, 0
0, 1
1, 2
0, 0
0, 0
0, 1
1, 0
0, 0
0, 0
0, 1
1, 0
0, 1
0, 0
0, 0
1, 0
0, 0
0, 0
0, 1
0, 2
0, 0
0, 1
0, 1
1, 0
0, 0
0, 0
0, 2
1, 0
0, 0
0, 0
0, 0
1, 0
0, 0
0, 0
0, 0
0, 0
1, 0
0, 1
0, 0
0, 1
0, 1
0, 0
0, 0
0, 0
0, 0
0, 0
0, 0
0, 0
1, 0
1, 0
0, 0
0, 0
0, 0
0, 0
0, 0
0, 0
0, 1
0, 1
0, 0
0, 0
1, 0
0, 0
0, 0
0, 1
0, 0
0, 0
0, 0
0, 0
0, 0
0, 0
0, 0
0, 0
1, 0
0, 0
0, 0
0, 0
0, 0
0, 0
0, 0
0, 0
1, 2
0, 0
0, 0
0, 0
0, 0
0, 0
0, 0
0, 0
0, 0
0, 0
0, 1
0, 1
0, 0
0, 0
0, 0
0, 0
0, 1
0, 0
0, 0
0, 0
0, 0
0, 0
0, 0
1, 0
1, 0
0, 0
0, 0
0, 0
0, 0
0, 0
0, 0
0, 0
0, 0
0, 0
0, 0
0, 0
0, 1
1, 0
0, 1
0, 0
0, 0
0, 0
0, 0
0, 0
0, 0
0, 0
0, 0
0, 0
0, 0
0, 0
0, 0
0, 1
0, 0
0, 0
0, 0
0, 0
0, 0
1, 0
0, 0
0, 0
0, 0
0, 0
0, 0
0, 0
0, 1
0, 0
0, 0
0, 0
0, 0
0, 0
0, 0
0, 0
0, 0
0, 0
0, 0
0, 0
0, 0
0, 0
0, 0
0, 0
0, 0
0, 0
0, 0
0, 0
0, 0
0, 0
0, 0
0, 0
0, 0
0, 0
0, 0
0, 0
0, 0
0, 0
0, 1
0, 0
0, 0
0, 0
0, 0
0, 0
0, 0
0, 0
0, 0
0, 0
0, 0
0, 0
0, 0
0, 0
0, 0
0, 0
0, 0
0, 0
0, 0
0, 0
0, 0
0, 0
0, 0
0, 0
0, 0
0, 0
0, 0
0, 0
0, 0
0, 0
0, 0
0, 0
0, 0
0, 0
0, 0
0, 0
0, 0
0, 0
0, 0
0, 0
0, 0
0, 0
0, 0
0, 0
0, 0
0, 0
0, 0
0, 0
0, 0
0, 0
0, 0
0, 0
0, 0
0, 0
0, 0
0, 0
0, 0
0, 0
0, 0
0, 0
0, 0
0, 0
0, 0
0, 0
0, 0
0, 0
0, 0
0, 0
0, 0
0, 0
0, 0
0, 1
0, 0
0, 0
0, 0
0, 0
0, 0
0, 0
0, 0
0, 0
0, 0
0, 0
0, 0
0, 0
0, 0
0, 0
0, 0
0, 0
0, 0
0, 0
0, 0
0, 0
0, 0
0, 0
0, 0
0, 0
0, 0
0, 0
0, 0
0, 0
0, 0
0, 1
0, 0
0, 0
0, 0
0, 0
0, 0
0, 0
0, 0
0, 0
0, 0
0, 0
0, 0
0, 0
0, 0
0, 0
0, 0
0, 0
0, 0
0, 0
0, 0
0, 0
0, 0
0, 0
0, 0
0, 0
0, 0
1, 0
0, 0
0, 0
0, 0
0, 0
0, 0
0, 0
0, 0
0, 0
0, 0
0, 0
0, 0
0, 0
0, 0
0, 0
0, 0
0, 0
0, 0
0, 0
0, 0
0, 0
0, 0
0, 0
0, 0
0, 0
0, 0
0, 0
0, 0
0, 0
0, 0
0, 0
0, 0
0, 0
0, 0
0, 0
0, 0
0, 0
0, 0
0, 0
0, 0
0, 0
0, 0
0, 0
0, 0
0, 0
0, 0
0, 0
0, 0
0, 0
0, 0
0, 1
0, 0
0, 0
0, 0
0, 0
0, 0
0, 0
0, 0
0, 0
0, 0
0, 0
0, 0
0, 0
0, 0
0, 0
0, 0
0, 0
0, 0
0, 0
0, 0
0, 0
0, 0
0, 0
0, 0
0, 0
0, 0
0, 0
0, 0
0, 0
0, 0
0, 0
0, 0
0, 0
0, 0
0, 0
0, 0
0, 0
0, 0
0, 0
0, 0
0, 0
0, 0
0, 0
0, 0
0, 0
0, 0
0, 0
0, 0
0, 0
0, 0
0, 0
0, 0
0, 0
0, 0
0, 0
0, 0
0, 0
0, 0
0, 0
0, 0
0, 0
0, 0
0, 0
0, 0
0, 0
0, 0
0, 0
0, 0
0, 0
0, 0
0, 0
0, 0
0, 0
0, 0
0, 0
0, 0
0, 0
0, 0
0, 0
0, 0
0, 0
0, 0
0, 0
0, 0
0, 0
0, 0
0, 0
0, 0
0, 0
0, 0
0, 0
0, 0
0, 0
0, 0
0, 0
0, 0
0, 0
0, 0
0, 0
0, 0
0, 0
0, 0
0, 0
0, 0
0, 0
0, 0
0, 0
0, 0
0, 0
0, 0
0, 0
0, 0
0, 0
0, 0
0, 0
0, 0
0, 0
0, 0
0, 0
0, 0
0, 0
0, 0
0, 0
0, 0
0, 0
0, 0
0, 0
0, 0
0, 0
0, 0
0, 0
0, 0
0, 0
0, 0
0, 0
0, 0
0, 0
0, 0
0, 0
0, 0
0, 0
0, 0
0, 0
0, 0
0, 0
0, 0
0, 0
0, 0
0, 0
0, 0
0, 0
0, 0
0, 0
0, 0
0, 0
0, 0
0, 0
0, 0
0, 0
0, 0
0, 0
0, 0
0, 0
0, 0
0, 0
0, 0
0, 0
0, 0
0, 0
0, 0
0, 0
0, 0
0, 0
0, 0
0, 0
0, 0
0, 0
0, 0
0, 0
0, 0
0, 0
0, 0
0, 0
0, 0
0, 0
0, 0
0, 0
0, 0
0, 0
0, 0
0, 0
0, 0
0, 0
0, 0
0, 0
0, 0
0, 0
0, 0
0, 0
0, 0
0, 0
0, 0
0, 0
0, 0
0, 0
0, 0
0, 0
0, 0
0, 0
0, 0
0, 0
0, 0
0, 0
0, 0
0, 0
0, 0
0, 0
0, 0
0, 0
0, 0
0, 0
0, 0
0, 0
0, 0
0, 0
0, 0
0, 0
0, 0
0, 0
0, 0
0, 0
0, 0
0, 0
0, 0
0, 0
0, 0
0, 0
0, 0
0, 0
0, 0
0, 0
0, 0
0, 0
0, 0
0, 0
0, 0
0, 0
0, 0
#ENDOFDATA     end of spectrum data