File: host_upload/06-09-2024/ps_0852/dump3/ps__0852shot_2273.msa
#FORMAT      : EMSA/MAS spectral data file
#VERSION     : TC202v2.0 PIXL
#TITLE       : N/A
#DATE        :       Date in the format DD-MMM-YYYY, for example 07-JUL-2010
#TIME        :             The time of day at which the spectrum was recorded, in 24-hour format
#OWNER       : PIXL Flight Model       (PIXL will use this to indicate which instrument took the data.)
#NPOINTS     : 4096     Number of data points in the spectrum (This can be zero for configuration only files)
#NCOLUMNS    : 2     Number of data columns in the spectrum (This can be zero for configuration only files)
#XUNITS      : eV
#YUNITS      : COUNTS
#DATATYPE    : YY
#XPERCHAN    : 7.862, 7.881   eV per channel (separate by commas if more than one detector)
#OFFSET      : 18.5, -22.4         eV of first channel  (separate by commas if more than one detector
#SIGNALTYPE  : XRF
#YP_TEMP     : 2.235
#LIVETIME    : 8.57134, 8.55922   seconds (separate by commas if more than one detector)
#REALTIME    : 10, 10.0   seconds (separate by commas if more than one detector)
#SPECTRUM    : start of spectrum data
0, 0
0, 0
0, 0
0, 0
0, 0
0, 0
0, 0
0, 0
0, 0
0, 0
0, 0
0, 0
0, 0
0, 0
0, 0
0, 0
0, 0
0, 0
0, 0
0, 0
0, 0
0, 0
0, 0
0, 0
0, 0
0, 0
0, 0
0, 0
0, 0
0, 0
0, 0
0, 0
0, 0
0, 0
0, 0
0, 1
0, 1
0, 0
0, 0
1, 0
1, 1
2, 3
3, 1
1, 0
0, 4
1, 2
0, 2
5, 4
7, 4
5, 21
17, 31
30, 41
53, 66
52, 78
56, 92
68, 79
32, 72
29, 29
20, 25
11, 12
9, 8
4, 0
4, 5
1, 2
1, 6
6, 4
2, 8
13, 10
20, 21
35, 63
79, 106
141, 188
208, 316
261, 414
326, 472
349, 438
318, 416
215, 313
159, 222
85, 131
58, 91
33, 40
18, 23
9, 11
4, 4
4, 3
2, 3
3, 2
2, 7
2, 1
1, 7
2, 5
7, 14
14, 19
15, 27
31, 48
54, 61
83, 82
91, 116
82, 97
73, 83
53, 57
43, 40
39, 31
18, 27
16, 20
14, 16
15, 18
17, 23
26, 25
34, 37
49, 39
55, 65
55, 53
65, 76
62, 57
51, 51
63, 51
38, 46
36, 38
29, 32
24, 27
27, 26
21, 13
17, 20
8, 18
10, 10
8, 16
11, 11
8, 6
8, 8
2, 5
6, 3
2, 2
1, 3
1, 4
7, 3
2, 4
4, 1
2, 3
0, 3
2, 2
6, 3
1, 2
4, 1
3, 1
1, 2
3, 2
1, 3
3, 1
0, 2
2, 4
6, 1
2, 7
4, 9
11, 14
13, 9
7, 17
9, 19
10, 29
8, 27
6, 60
6, 65
7, 103
1, 105
1, 134
10, 116
1, 105
4, 105
4, 75
6, 45
3, 34
6, 18
3, 14
6, 10
10, 14
7, 9
7, 9
9, 10
3, 10
6, 6
3, 10
4, 4
3, 5
2, 4
6, 5
4, 2
5, 4
3, 6
5, 7
8, 5
5, 13
10, 15
9, 18
9, 34
10, 20
12, 34
4, 30
11, 24
11, 20
6, 21
8, 18
15, 8
3, 10
3, 8
9, 8
4, 11
3, 7
6, 8
3, 3
6, 4
6, 7
5, 8
3, 11
7, 4
6, 3
7, 9
6, 5
3, 4
3, 2
6, 3
7, 8
9, 12
6, 10
4, 9
3, 12
12, 6
9, 2
7, 9
7, 8
7, 12
13, 15
8, 13
10, 10
8, 5
8, 10
5, 8
5, 3
2, 10
9, 4
8, 10
8, 10
3, 8
9, 13
17, 22
16, 29
25, 27
28, 39
45, 52
42, 57
64, 65
44, 63
59, 62
66, 58
60, 50
78, 30
67, 33
91, 14
96, 22
103, 17
97, 25
85, 38
92, 54
111, 112
149, 190
254, 380
400, 664
587, 1059
942, 1524
1258, 1969
1524, 2334
1708, 2594
1823, 2731
1744, 2404
1549, 2158
1343, 1630
1029, 1197
674, 785
409, 488
257, 276
140, 170
70, 108
48, 48
21, 32
17, 39
9, 27
10, 25
10, 20
13, 21
18, 28
17, 37
31, 44
44, 64
57, 84
63, 137
124, 175
148, 240
174, 308
224, 368
297, 386
262, 382
257, 321
240, 270
189, 225
146, 169
96, 117
76, 78
34, 49
32, 22
17, 17
8, 7
7, 6
12, 13
10, 13
13, 10
20, 17
9, 14
15, 8
15, 20
13, 17
7, 16
8, 10
4, 12
8, 10
5, 7
15, 12
3, 18
2, 22
8, 25
5, 29
3, 26
3, 30
5, 31
9, 23
6, 21
8, 16
3, 12
5, 7
11, 5
7, 2
9, 5
5, 2
8, 4
10, 7
7, 6
7, 5
4, 8
2, 4
5, 7
5, 6
11, 8
2, 3
6, 5
2, 7
5, 5
3, 3
0, 4
3, 8
2, 9
2, 5
3, 6
3, 0
3, 3
0, 2
4, 5
2, 5
2, 8
4, 11
4, 12
5, 5
2, 2
2, 5
4, 0
6, 2
3, 9
2, 6
4, 6
3, 6
2, 2
4, 4
4, 2
2, 7
5, 2
4, 0
3, 3
3, 3
3, 5
0, 5
2, 7
5, 7
3, 5
2, 11
5, 18
5, 12
3, 10
2, 13
3, 8
2, 9
1, 3
1, 5
2, 3
3, 0
2, 4
7, 2
2, 3
5, 5
3, 5
12, 3
26, 2
7, 3
12, 1
16, 2
18, 5
12, 0
7, 3
5, 1
11, 3
8, 3
0, 4
4, 3
5, 5
2, 2
1, 5
0, 2
3, 7
1, 7
1, 9
0, 6
5, 12
2, 13
2, 12
3, 11
3, 8
5, 11
6, 4
3, 3
1, 4
3, 10
3, 5
2, 6
3, 5
0, 8
3, 9
2, 7
2, 8
1, 15
8, 12
4, 5
3, 1
1, 6
4, 4
3, 7
3, 3
3, 5
2, 5
4, 2
3, 4
3, 2
1, 6
4, 3
3, 0
2, 3
2, 4
0, 1
0, 0
1, 2
1, 2
1, 3
1, 3
3, 1
3, 2
4, 2
3, 6
1, 2
1, 4
3, 2
3, 0
1, 6
0, 1
3, 3
0, 4
1, 4
4, 3
3, 5
1, 4
1, 3
1, 3
0, 3
4, 5
3, 4
4, 2
3, 3
0, 2
1, 4
2, 2
0, 2
2, 1
3, 4
1, 1
4, 0
3, 4
1, 2
0, 4
2, 2
1, 1
3, 3
1, 2
1, 2
1, 4
3, 4
2, 1
2, 4
0, 2
3, 0
6, 2
1, 3
3, 2
2, 4
4, 3
5, 4
3, 1
1, 3
3, 1
1, 4
4, 0
3, 6
2, 4
2, 5
5, 4
3, 8
2, 8
2, 6
1, 2
2, 7
1, 7
2, 12
2, 4
2, 6
1, 5
4, 5
2, 3
3, 4
3, 5
2, 10
3, 4
3, 4
1, 2
2, 3
2, 2
1, 3
1, 1
2, 3
2, 2
0, 0
0, 2
2, 2
0, 1
1, 1
0, 0
0, 1
0, 2
3, 1
0, 1
1, 1
0, 1
1, 2
0, 3
0, 3
2, 0
0, 3
0, 3
1, 2
2, 0
0, 4
1, 0
0, 1
1, 2
1, 1
1, 1
1, 1
0, 1
0, 2
0, 1
0, 2
1, 1
0, 0
1, 1
0, 0
3, 2
0, 2
0, 1
0, 1
1, 3
1, 0
0, 2
2, 1
0, 2
0, 1
1, 2
2, 2
1, 0
0, 0
2, 1
1, 2
0, 4
0, 2
1, 0
2, 3
2, 2
0, 0
0, 4
1, 1
0, 2
2, 1
0, 2
0, 1
0, 4
2, 0
1, 2
0, 0
0, 1
1, 1
0, 5
0, 0
0, 0
0, 3
1, 0
1, 0
0, 0
1, 0
3, 1
1, 1
1, 2
0, 2
1, 0
1, 0
0, 3
0, 0
0, 1
1, 0
0, 1
1, 4
0, 0
1, 2
0, 0
0, 1
1, 0
1, 0
0, 1
1, 2
0, 1
0, 0
0, 3
0, 2
0, 0
0, 1
1, 0
1, 1
0, 0
0, 0
0, 0
1, 3
0, 0
0, 1
1, 2
0, 3
0, 2
0, 0
0, 1
0, 0
0, 2
2, 2
0, 3
1, 1
1, 0
3, 1
1, 0
0, 1
0, 2
0, 0
2, 0
0, 1
0, 2
0, 0
0, 0
0, 1
0, 2
0, 0
0, 1
0, 0
0, 0
1, 0
0, 1
0, 1
0, 0
0, 1
0, 0
0, 0
0, 0
1, 1
1, 0
0, 1
0, 1
0, 0
0, 0
1, 0
0, 0
0, 0
0, 0
0, 1
0, 0
0, 0
0, 2
0, 0
0, 0
0, 0
0, 1
0, 2
0, 0
0, 0
0, 0
0, 0
0, 0
0, 0
0, 1
0, 0
0, 1
0, 0
0, 0
0, 0
1, 0
0, 0
0, 0
1, 0
0, 0
0, 0
0, 1
0, 0
0, 0
1, 0
0, 0
1, 0
1, 0
0, 0
0, 1
0, 1
0, 0
0, 0
0, 0
0, 0
0, 1
1, 1
2, 0
1, 0
0, 0
0, 0
0, 0
0, 0
0, 0
0, 0
0, 0
1, 0
0, 0
1, 0
0, 1
0, 0
0, 1
0, 0
0, 0
1, 0
0, 0
0, 0
0, 2
0, 0
0, 0
0, 0
0, 0
0, 0
0, 0
0, 0
1, 1
0, 0
0, 0
0, 0
1, 1
1, 0
0, 0
1, 0
0, 0
0, 0
1, 0
0, 0
0, 0
1, 0
0, 0
0, 0
0, 0
1, 0
0, 0
0, 0
0, 0
0, 0
1, 0
1, 1
0, 0
0, 1
1, 1
0, 1
0, 1
0, 0
0, 0
0, 0
0, 0
1, 0
0, 1
0, 1
0, 1
0, 0
0, 0
0, 0
0, 0
0, 0
1, 0
0, 0
0, 0
0, 0
0, 0
0, 1
0, 0
0, 0
0, 0
0, 0
0, 0
0, 1
0, 0
0, 0
0, 1
0, 0
0, 0
0, 0
0, 0
0, 0
0, 0
0, 0
1, 0
0, 1
0, 1
0, 0
1, 0
0, 0
0, 0
0, 0
0, 0
0, 0
0, 0
0, 1
0, 0
0, 0
0, 0
0, 0
0, 0
0, 0
0, 0
0, 0
0, 0
1, 0
0, 0
0, 0
0, 0
0, 0
0, 0
1, 0
0, 0
0, 0
0, 0
1, 0
0, 1
0, 0
0, 0
1, 0
0, 0
0, 0
0, 0
0, 1
0, 0
0, 0
0, 0
0, 0
0, 0
0, 0
0, 0
0, 0
0, 1
0, 0
0, 0
0, 0
0, 0
0, 0
0, 0
0, 0
0, 0
0, 0
1, 0
0, 1
0, 0
0, 0
0, 1
0, 0
0, 0
0, 0
0, 0
0, 0
0, 0
0, 0
0, 0
0, 0
0, 0
0, 0
0, 1
0, 0
0, 0
0, 0
0, 0
0, 0
0, 0
0, 0
0, 0
0, 0
0, 0
0, 0
0, 0
0, 0
0, 0
0, 0
0, 0
0, 0
0, 0
0, 0
0, 0
0, 0
0, 0
0, 0
0, 0
0, 0
0, 0
1, 0
0, 0
0, 0
0, 0
0, 0
0, 0
0, 0
0, 0
0, 0
0, 0
2, 0
0, 0
0, 0
0, 0
0, 0
0, 0
0, 0
0, 0
0, 0
0, 0
0, 0
0, 0
0, 0
0, 0
0, 0
0, 0
0, 0
0, 0
0, 0
0, 0
0, 0
0, 1
0, 0
0, 0
0, 0
0, 0
0, 0
0, 0
0, 0
0, 0
0, 0
0, 0
0, 0
0, 0
0, 0
0, 0
0, 0
0, 0
0, 0
0, 0
0, 0
0, 0
0, 0
0, 0
0, 0
0, 0
0, 0
0, 0
0, 0
0, 0
0, 0
0, 0
0, 0
0, 0
0, 0
0, 0
0, 0
0, 0
0, 0
0, 0
0, 0
0, 0
0, 0
0, 1
0, 0
0, 0
0, 0
0, 0
0, 0
0, 0
0, 0
0, 0
0, 0
0, 0
0, 0
0, 0
0, 0
0, 0
0, 0
0, 0
0, 0
0, 0
0, 0
0, 0
0, 0
0, 0
0, 0
0, 0
0, 0
0, 0
0, 0
0, 0
0, 0
0, 0
0, 0
0, 0
0, 0
0, 0
0, 0
0, 0
0, 0
0, 0
0, 0
0, 0
0, 0
0, 0
0, 0
0, 0
0, 0
0, 0
0, 0
0, 0
0, 0
0, 0
0, 0
0, 0
0, 0
0, 0
0, 0
0, 0
0, 0
0, 0
0, 0
0, 0
0, 0
0, 0
0, 0
0, 0
0, 1
0, 0
0, 0
0, 0
0, 0
0, 0
0, 0
0, 0
0, 0
0, 0
0, 0
0, 0
0, 0
0, 0
0, 0
0, 0
0, 0
0, 0
0, 0
0, 0
0, 0
0, 0
0, 0
0, 0
0, 0
0, 0
0, 0
0, 0
0, 0
0, 0
0, 0
0, 0
0, 0
0, 0
0, 0
0, 0
0, 0
0, 0
0, 0
0, 0
0, 0
0, 0
0, 0
0, 0
0, 0
0, 0
0, 0
0, 0
0, 0
0, 0
0, 0
0, 0
0, 0
0, 0
0, 0
0, 0
0, 0
0, 0
0, 0
0, 0
0, 0
0, 0
0, 0
0, 0
0, 0
0, 0
0, 0
0, 0
0, 0
0, 0
0, 0
0, 0
0, 0
0, 0
0, 0
0, 0
0, 0
0, 0
0, 0
0, 0
0, 0
0, 0
0, 0
0, 0
0, 0
0, 0
0, 0
0, 0
0, 0
0, 0
0, 0
0, 0
0, 0
0, 0
0, 0
0, 0
0, 0
0, 0
0, 0
0, 0
0, 0
0, 0
0, 0
0, 0
0, 0
0, 0
0, 0
0, 0
0, 0
0, 0
0, 0
0, 0
0, 0
0, 0
0, 0
0, 0
0, 0
0, 0
0, 0
0, 0
0, 0
0, 0
0, 0
0, 0
0, 0
0, 0
0, 0
0, 0
0, 0
0, 0
0, 0
0, 0
0, 0
0, 0
0, 0
0, 0
0, 0
0, 0
0, 0
0, 0
0, 0
0, 0
0, 0
0, 0
0, 0
0, 0
0, 0
0, 0
0, 0
0, 0
0, 0
0, 0
0, 0
0, 0
0, 0
0, 0
0, 0
0, 0
0, 0
0, 0
0, 0
0, 0
0, 0
0, 0
0, 0
0, 0
0, 0
0, 0
0, 0
0, 0
0, 0
0, 0
0, 0
0, 0
0, 0
0, 0
0, 0
0, 0
0, 0
0, 0
0, 0
0, 0
0, 0
0, 0
0, 0
0, 0
0, 0
0, 0
0, 0
0, 0
0, 0
0, 0
0, 0
0, 0
0, 0
0, 0
0, 0
0, 0
0, 0
0, 0
0, 0
0, 0
0, 0
0, 0
0, 0
0, 0
0, 0
0, 0
0, 0
0, 0
0, 0
0, 0
0, 0
0, 0
0, 0
0, 0
0, 0
0, 0
0, 0
0, 0
0, 0
0, 0
0, 0
0, 0
0, 0
0, 0
0, 0
0, 0
0, 0
0, 0
0, 0
0, 0
0, 0
0, 0
0, 0
0, 0
0, 0
0, 0
0, 0
0, 0
0, 0
0, 0
0, 0
0, 0
0, 0
0, 0
0, 0
0, 0
0, 0
0, 0
0, 0
0, 0
0, 0
0, 0
0, 0
0, 0
0, 0
0, 0
0, 0
0, 0
0, 0
0, 0
0, 0
0, 0
0, 0
0, 0
0, 0
0, 0
0, 0
0, 0
0, 0
0, 0
0, 0
0, 0
0, 0
0, 0
0, 0
0, 0
0, 0
0, 0
0, 0
0, 0
0, 0
#ENDOFDATA     end of spectrum data