File: host_upload/06-09-2024/ps_0852/dump3/ps__0852shot_2020.msa
#FORMAT      : EMSA/MAS spectral data file
#VERSION     : TC202v2.0 PIXL
#TITLE       : N/A
#DATE        :       Date in the format DD-MMM-YYYY, for example 07-JUL-2010
#TIME        :             The time of day at which the spectrum was recorded, in 24-hour format
#OWNER       : PIXL Flight Model       (PIXL will use this to indicate which instrument took the data.)
#NPOINTS     : 4096     Number of data points in the spectrum (This can be zero for configuration only files)
#NCOLUMNS    : 2     Number of data columns in the spectrum (This can be zero for configuration only files)
#XUNITS      : eV
#YUNITS      : COUNTS
#DATATYPE    : YY
#XPERCHAN    : 7.862, 7.881   eV per channel (separate by commas if more than one detector)
#OFFSET      : 18.5, -22.4         eV of first channel  (separate by commas if more than one detector
#SIGNALTYPE  : XRF
#YP_TEMP     : 2.332
#LIVETIME    : 8.55544, 8.56183   seconds (separate by commas if more than one detector)
#REALTIME    : 10, 10.0   seconds (separate by commas if more than one detector)
#SPECTRUM    : start of spectrum data
0, 0
0, 0
0, 0
0, 0
0, 0
0, 0
0, 0
0, 0
0, 0
0, 0
0, 0
0, 0
0, 0
0, 0
0, 0
0, 0
0, 0
0, 0
0, 0
0, 0
0, 0
0, 0
0, 0
0, 0
0, 0
0, 0
0, 0
0, 0
0, 0
0, 0
0, 0
0, 0
0, 0
0, 0
1, 0
0, 3
3, 1
2, 0
2, 2
3, 3
4, 1
8, 2
4, 1
9, 2
3, 4
4, 0
1, 4
1, 3
5, 5
10, 9
29, 24
28, 50
62, 52
76, 70
79, 78
60, 83
55, 54
37, 52
24, 23
11, 10
15, 9
6, 4
4, 2
8, 2
6, 7
4, 1
3, 6
15, 9
16, 18
46, 59
84, 80
156, 193
266, 290
331, 361
390, 398
402, 407
365, 362
283, 298
218, 187
127, 116
71, 74
33, 35
19, 17
12, 11
5, 2
4, 6
0, 3
1, 3
1, 2
2, 1
0, 3
6, 2
4, 9
7, 9
14, 15
20, 21
29, 34
30, 44
44, 46
43, 46
37, 44
30, 31
18, 28
19, 25
16, 13
15, 10
14, 9
21, 13
27, 11
49, 24
94, 27
138, 42
203, 53
282, 55
316, 66
381, 69
347, 48
289, 36
262, 32
158, 30
113, 39
76, 32
57, 23
38, 21
25, 20
19, 20
19, 21
8, 17
12, 17
13, 8
12, 8
6, 4
1, 0
3, 3
1, 5
3, 2
1, 4
1, 6
4, 3
5, 4
1, 2
8, 2
1, 2
1, 2
5, 4
1, 1
0, 5
1, 9
0, 19
9, 13
4, 17
5, 44
5, 35
5, 47
12, 46
27, 58
19, 62
21, 54
20, 52
12, 32
21, 16
16, 15
7, 14
7, 8
2, 11
9, 6
8, 5
7, 7
7, 4
8, 8
10, 7
10, 9
12, 7
17, 3
22, 8
19, 3
29, 5
19, 7
19, 4
21, 11
23, 7
24, 7
21, 5
15, 8
11, 3
18, 3
7, 2
11, 5
17, 2
17, 5
18, 12
7, 8
12, 19
13, 14
16, 16
14, 12
14, 23
16, 17
15, 19
9, 22
11, 17
16, 16
13, 10
4, 13
9, 15
12, 7
7, 9
11, 11
9, 13
12, 19
3, 15
9, 14
6, 19
6, 24
12, 8
9, 16
4, 11
6, 17
5, 5
5, 8
3, 9
12, 8
6, 10
6, 4
6, 10
11, 9
12, 18
17, 9
13, 16
12, 19
19, 19
20, 17
18, 13
21, 23
26, 16
25, 12
38, 13
31, 12
33, 6
39, 11
43, 13
35, 14
30, 16
46, 13
34, 21
39, 32
54, 35
44, 46
59, 64
75, 64
69, 64
76, 67
75, 75
49, 51
46, 48
31, 26
27, 33
22, 30
13, 22
13, 20
14, 29
40, 36
35, 69
85, 113
157, 205
261, 350
471, 590
741, 975
1036, 1344
1432, 1763
1810, 2194
2114, 2429
2212, 2465
2272, 2314
1999, 2023
1675, 1617
1228, 1171
855, 799
610, 488
357, 285
179, 166
105, 91
57, 39
35, 35
21, 32
19, 41
21, 35
18, 38
21, 51
28, 61
49, 49
47, 71
79, 79
89, 89
131, 158
169, 177
214, 258
255, 298
314, 318
369, 347
359, 363
347, 332
293, 301
251, 214
213, 171
162, 99
85, 72
67, 40
22, 32
27, 14
16, 6
8, 3
5, 5
9, 7
9, 14
9, 12
11, 12
13, 8
9, 17
12, 11
9, 12
7, 8
7, 6
8, 7
5, 4
7, 5
3, 5
2, 6
1, 5
5, 5
3, 3
3, 3
2, 4
5, 3
6, 6
3, 5
1, 6
3, 5
4, 3
6, 3
2, 4
4, 7
9, 3
3, 6
9, 4
3, 4
11, 9
13, 4
21, 8
16, 8
23, 12
19, 8
28, 8
27, 2
39, 4
28, 4
29, 6
23, 6
22, 7
8, 7
7, 3
12, 9
10, 8
5, 8
6, 10
7, 10
9, 18
4, 8
16, 15
7, 13
8, 12
8, 5
4, 7
2, 10
6, 1
3, 1
2, 2
4, 4
2, 3
4, 3
2, 6
0, 4
4, 5
8, 1
3, 4
6, 4
7, 5
4, 3
4, 3
3, 6
2, 5
4, 10
10, 5
3, 3
5, 6
6, 4
4, 1
1, 2
4, 4
1, 4
6, 5
4, 1
1, 8
4, 7
2, 2
3, 9
3, 4
1, 3
5, 5
7, 5
3, 3
2, 3
3, 4
3, 0
7, 5
5, 7
4, 2
1, 3
3, 4
2, 5
5, 3
7, 3
4, 5
4, 3
2, 1
4, 5
3, 1
3, 4
2, 5
3, 5
5, 3
2, 2
3, 1
7, 3
2, 2
4, 0
4, 2
3, 3
3, 5
2, 2
3, 1
2, 4
3, 3
3, 5
2, 6
3, 1
0, 3
0, 4
2, 3
2, 1
3, 3
0, 3
1, 1
3, 2
2, 3
6, 2
1, 2
1, 2
1, 3
2, 2
1, 2
2, 4
3, 1
1, 3
4, 3
3, 4
3, 1
5, 6
3, 1
4, 0
2, 3
4, 2
4, 1
2, 1
3, 0
4, 0
3, 4
3, 1
7, 5
0, 2
6, 1
7, 5
3, 2
2, 5
1, 5
3, 10
2, 2
3, 1
2, 4
1, 3
1, 6
3, 1
3, 2
1, 1
0, 1
0, 1
0, 3
2, 5
2, 3
3, 0
5, 2
0, 1
1, 2
1, 2
0, 2
0, 2
0, 1
3, 2
1, 0
3, 1
0, 3
2, 3
2, 2
2, 1
3, 4
3, 3
2, 2
3, 2
2, 6
1, 7
2, 2
0, 4
2, 2
2, 2
1, 2
3, 2
2, 1
3, 1
0, 2
0, 3
0, 3
1, 1
1, 2
3, 0
3, 1
3, 2
3, 4
4, 3
3, 3
6, 2
1, 1
5, 4
4, 7
7, 3
4, 3
2, 3
3, 2
1, 4
1, 3
2, 3
4, 1
1, 2
1, 1
1, 2
2, 2
1, 3
2, 1
2, 2
0, 2
1, 3
0, 3
1, 2
1, 1
3, 4
1, 1
2, 0
0, 0
2, 3
0, 1
2, 5
0, 3
2, 0
0, 4
5, 4
1, 2
1, 0
1, 3
1, 0
2, 3
2, 2
0, 0
1, 2
1, 3
1, 3
3, 0
2, 1
2, 1
1, 0
2, 1
1, 1
0, 1
1, 2
1, 2
2, 3
1, 0
1, 1
1, 0
1, 1
1, 0
1, 1
0, 0
0, 1
1, 2
0, 1
1, 1
1, 1
0, 2
0, 2
1, 0
1, 0
0, 2
2, 0
1, 1
3, 1
1, 1
1, 1
0, 0
1, 1
0, 0
0, 2
0, 3
0, 1
2, 0
0, 0
0, 0
0, 2
3, 1
0, 1
0, 2
3, 1
0, 1
2, 1
0, 2
0, 1
0, 2
1, 0
0, 3
0, 0
0, 0
0, 1
1, 0
1, 0
1, 1
1, 0
2, 0
0, 0
1, 0
0, 1
2, 0
1, 1
0, 0
0, 1
1, 0
0, 2
1, 0
0, 0
0, 0
0, 1
0, 0
0, 0
0, 0
0, 1
0, 0
0, 0
0, 1
0, 0
0, 1
0, 0
1, 2
1, 0
0, 1
0, 2
0, 0
0, 0
1, 1
1, 0
1, 1
0, 0
0, 0
0, 0
0, 2
1, 0
0, 1
0, 0
2, 1
0, 2
0, 0
0, 1
1, 0
2, 2
1, 0
0, 0
3, 0
0, 0
0, 0
3, 0
0, 0
0, 0
1, 0
1, 1
1, 2
3, 0
0, 0
0, 0
0, 1
0, 0
0, 1
1, 1
0, 0
0, 0
0, 0
1, 1
0, 1
2, 0
0, 0
0, 0
0, 1
0, 1
0, 0
0, 0
2, 1
1, 0
0, 1
1, 0
0, 0
0, 0
0, 0
0, 0
0, 0
0, 2
1, 0
0, 0
2, 1
1, 0
0, 0
0, 0
2, 0
1, 0
0, 1
0, 0
0, 0
0, 0
1, 0
2, 0
0, 0
0, 0
0, 0
0, 0
2, 0
0, 0
0, 0
0, 0
0, 1
0, 0
1, 0
0, 0
0, 0
0, 0
0, 0
0, 0
0, 0
0, 0
0, 1
0, 0
0, 0
1, 1
0, 0
2, 2
1, 1
0, 0
0, 0
0, 1
0, 0
0, 0
0, 0
2, 0
1, 0
0, 1
0, 0
0, 0
1, 1
0, 1
0, 0
0, 0
0, 0
2, 1
1, 0
0, 0
0, 1
1, 0
1, 0
1, 0
0, 0
0, 0
0, 1
0, 0
0, 0
1, 1
0, 0
0, 0
0, 0
0, 0
0, 0
1, 0
1, 0
0, 0
0, 0
1, 0
0, 0
0, 0
0, 0
0, 0
0, 0
0, 0
0, 0
0, 0
0, 2
1, 0
1, 0
0, 0
0, 0
1, 0
0, 0
0, 0
1, 0
0, 0
0, 0
0, 0
0, 0
0, 0
0, 0
1, 0
0, 1
0, 0
0, 0
0, 0
0, 0
0, 1
0, 1
0, 0
0, 0
0, 0
0, 0
0, 0
0, 0
0, 0
1, 0
1, 0
0, 0
0, 0
0, 0
0, 0
0, 0
0, 0
0, 1
1, 0
0, 0
0, 0
0, 0
0, 0
0, 0
0, 1
0, 0
2, 0
0, 0
0, 0
0, 1
0, 1
0, 0
0, 0
0, 0
0, 1
0, 0
0, 0
0, 0
0, 0
0, 0
0, 0
0, 0
0, 0
0, 0
1, 0
0, 0
0, 0
0, 0
0, 0
0, 0
1, 0
0, 0
0, 0
0, 0
0, 0
0, 0
0, 0
0, 0
0, 0
0, 0
0, 0
0, 0
0, 0
0, 0
0, 0
0, 0
0, 0
0, 0
0, 0
0, 0
1, 0
0, 0
0, 0
0, 0
0, 0
0, 0
0, 0
0, 0
0, 0
0, 1
0, 0
0, 0
0, 0
0, 0
0, 0
0, 0
0, 0
0, 0
0, 0
0, 0
0, 0
0, 1
0, 1
0, 0
0, 0
0, 0
0, 0
0, 0
0, 0
0, 0
0, 0
0, 0
0, 0
0, 0
0, 0
0, 0
0, 0
0, 0
0, 0
0, 0
0, 0
0, 0
0, 0
0, 0
0, 0
0, 0
0, 0
0, 0
0, 0
0, 0
0, 0
0, 0
0, 0
0, 0
0, 0
0, 0
0, 0
0, 0
0, 0
0, 0
0, 0
0, 0
0, 0
0, 0
0, 0
0, 0
0, 0
0, 0
0, 0
0, 0
0, 0
0, 0
0, 0
0, 0
0, 0
0, 0
0, 0
0, 0
0, 0
0, 0
0, 0
0, 0
0, 0
0, 0
0, 0
0, 0
0, 0
0, 0
0, 0
0, 0
0, 0
0, 0
0, 0
0, 0
0, 0
0, 0
0, 0
0, 0
0, 0
0, 0
0, 0
0, 0
0, 0
0, 0
0, 0
0, 0
0, 0
0, 0
0, 0
0, 0
0, 0
0, 0
0, 0
0, 0
0, 0
0, 0
0, 0
0, 0
0, 0
0, 0
0, 0
0, 0
0, 0
0, 0
0, 0
0, 0
0, 0
0, 1
0, 0
0, 0
0, 0
0, 0
0, 0
0, 0
0, 0
0, 0
0, 0
0, 0
0, 0
0, 0
0, 0
0, 0
0, 0
0, 0
0, 0
0, 0
0, 0
0, 0
0, 0
0, 0
0, 0
0, 0
0, 0
0, 0
0, 0
0, 0
0, 0
0, 0
0, 0
0, 0
0, 0
0, 0
0, 0
0, 0
0, 0
0, 0
0, 0
0, 0
0, 0
0, 0
0, 0
0, 0
0, 0
0, 0
0, 0
0, 0
0, 0
0, 0
0, 0
0, 0
0, 0
0, 0
0, 0
0, 0
0, 0
0, 0
0, 0
0, 0
0, 0
0, 0
0, 0
0, 0
0, 0
0, 0
0, 0
0, 0
0, 0
0, 0
0, 0
0, 0
0, 0
0, 0
0, 0
0, 0
0, 0
0, 0
0, 0
0, 0
0, 0
0, 0
0, 0
0, 0
0, 0
0, 1
0, 0
0, 0
0, 0
0, 0
0, 0
0, 0
0, 0
0, 0
0, 0
0, 0
0, 0
0, 0
0, 0
0, 0
0, 0
0, 0
0, 0
0, 0
0, 0
0, 0
0, 0
0, 0
0, 0
0, 0
0, 0
0, 0
0, 0
0, 0
0, 0
0, 0
0, 0
0, 0
0, 0
0, 0
0, 0
0, 0
0, 0
0, 0
0, 0
0, 0
0, 0
0, 0
0, 0
0, 0
0, 0
0, 0
0, 0
0, 0
0, 0
0, 0
0, 0
0, 0
0, 0
0, 0
0, 0
0, 0
0, 0
0, 0
0, 0
0, 0
0, 0
0, 0
0, 0
0, 0
0, 0
0, 0
0, 0
0, 0
0, 0
0, 0
0, 0
0, 0
0, 0
0, 0
0, 0
0, 0
0, 0
0, 0
0, 0
0, 0
0, 0
0, 0
0, 0
0, 0
0, 0
0, 0
0, 0
0, 0
0, 0
0, 0
0, 0
0, 0
0, 0
0, 0
0, 0
0, 0
0, 0
0, 0
0, 0
0, 0
0, 0
0, 0
0, 0
0, 0
0, 0
0, 0
0, 0
0, 0
0, 0
0, 0
0, 0
0, 0
0, 0
0, 0
0, 0
0, 0
0, 0
0, 0
0, 0
0, 0
0, 0
0, 0
0, 0
0, 0
0, 0
0, 0
0, 0
0, 0
0, 0
0, 0
0, 0
0, 0
0, 0
0, 0
0, 0
0, 0
0, 0
0, 0
0, 0
0, 0
0, 0
0, 0
0, 0
0, 0
0, 0
0, 0
0, 0
0, 0
0, 0
0, 0
0, 0
0, 0
0, 0
0, 0
0, 0
0, 0
0, 0
0, 0
0, 0
0, 0
0, 0
0, 0
0, 0
0, 0
0, 0
0, 0
0, 0
0, 0
0, 0
0, 0
0, 0
0, 0
0, 0
0, 0
0, 0
0, 0
0, 0
0, 0
0, 0
0, 0
0, 0
0, 0
0, 0
0, 0
0, 0
0, 0
0, 0
0, 0
0, 0
0, 0
0, 0
0, 0
0, 0
0, 0
0, 0
0, 0
0, 0
0, 0
0, 0
0, 0
0, 0
0, 0
0, 0
0, 0
0, 0
0, 0
0, 0
0, 0
0, 0
0, 0
0, 0
0, 0
0, 0
0, 0
0, 0
0, 0
0, 0
0, 0
0, 0
0, 0
0, 0
0, 0
0, 0
0, 0
0, 0
0, 0
0, 0
0, 0
0, 0
0, 0
0, 0
0, 0
0, 0
0, 0
0, 0
0, 0
0, 0
0, 0
0, 0
0, 0
0, 0
0, 0
0, 0
0, 0
0, 0
#ENDOFDATA     end of spectrum data