File: host_upload/06-09-2024/ps_0852/dump3/ps__0852shot_2544.msa
#FORMAT      : EMSA/MAS spectral data file
#VERSION     : TC202v2.0 PIXL
#TITLE       : N/A
#DATE        :       Date in the format DD-MMM-YYYY, for example 07-JUL-2010
#TIME        :             The time of day at which the spectrum was recorded, in 24-hour format
#OWNER       : PIXL Flight Model       (PIXL will use this to indicate which instrument took the data.)
#NPOINTS     : 4096     Number of data points in the spectrum (This can be zero for configuration only files)
#NCOLUMNS    : 2     Number of data columns in the spectrum (This can be zero for configuration only files)
#XUNITS      : eV
#YUNITS      : COUNTS
#DATATYPE    : YY
#XPERCHAN    : 7.862, 7.881   eV per channel (separate by commas if more than one detector)
#OFFSET      : 18.5, -22.4         eV of first channel  (separate by commas if more than one detector
#SIGNALTYPE  : XRF
#YP_TEMP     : 2.203
#LIVETIME    : 8.55364, 8.55519   seconds (separate by commas if more than one detector)
#REALTIME    : 10, 10.0   seconds (separate by commas if more than one detector)
#SPECTRUM    : start of spectrum data
0, 0
0, 0
0, 0
0, 0
0, 0
0, 0
0, 0
0, 0
0, 0
0, 0
0, 0
0, 0
0, 0
0, 0
0, 0
0, 0
0, 0
0, 0
0, 0
0, 0
0, 0
0, 0
0, 0
0, 0
0, 0
0, 0
0, 0
0, 0
0, 0
0, 0
0, 0
0, 0
0, 0
0, 1
0, 0
0, 0
2, 0
3, 1
0, 0
1, 0
1, 0
2, 3
1, 3
2, 0
2, 2
2, 1
1, 1
4, 2
6, 5
11, 10
31, 32
54, 35
58, 54
58, 61
81, 79
82, 82
55, 51
56, 41
37, 28
16, 11
11, 5
1, 2
6, 3
3, 1
3, 6
11, 5
2, 8
15, 9
26, 28
40, 39
105, 86
171, 192
299, 248
378, 373
470, 413
465, 402
436, 370
304, 291
225, 190
145, 110
71, 61
44, 40
24, 12
9, 7
8, 8
5, 3
5, 5
2, 3
1, 0
1, 0
2, 1
1, 3
3, 0
3, 3
1, 1
4, 2
5, 3
5, 6
2, 7
5, 3
6, 3
3, 3
5, 9
6, 3
2, 1
5, 6
5, 2
7, 2
8, 5
10, 9
26, 19
40, 33
49, 30
70, 64
79, 67
91, 75
86, 72
83, 66
61, 54
45, 46
35, 27
17, 29
12, 21
28, 16
13, 18
17, 10
11, 11
18, 13
8, 7
9, 6
6, 6
8, 3
4, 2
3, 2
4, 3
7, 2
2, 2
2, 2
1, 4
0, 3
1, 2
2, 3
1, 2
2, 0
2, 4
2, 5
1, 3
2, 2
2, 2
4, 2
6, 6
25, 12
26, 27
51, 42
74, 58
105, 85
136, 101
144, 104
122, 86
113, 76
85, 81
63, 38
41, 29
28, 16
20, 16
20, 5
19, 7
23, 15
24, 10
27, 12
18, 22
41, 25
31, 24
39, 10
40, 11
33, 2
34, 6
52, 4
38, 11
34, 5
28, 4
17, 4
12, 4
11, 4
6, 0
4, 2
7, 3
12, 5
15, 8
18, 7
14, 10
11, 8
17, 12
15, 24
15, 20
15, 20
15, 27
20, 37
12, 44
13, 38
12, 53
16, 53
11, 73
13, 67
6, 60
9, 53
8, 50
3, 40
10, 27
5, 25
10, 16
9, 13
9, 7
7, 8
4, 8
2, 11
4, 2
8, 6
6, 7
6, 8
13, 3
7, 5
2, 11
7, 8
5, 16
11, 14
13, 23
17, 23
30, 17
27, 21
33, 29
32, 31
35, 20
40, 18
41, 19
41, 17
30, 14
42, 9
29, 13
29, 12
36, 8
32, 9
16, 7
20, 11
22, 17
27, 16
32, 26
42, 35
49, 35
56, 60
63, 56
62, 53
59, 45
62, 50
47, 36
39, 30
26, 31
22, 25
15, 16
16, 21
19, 44
30, 30
41, 65
54, 108
119, 176
224, 294
472, 504
737, 759
1113, 1161
1542, 1595
1827, 1866
2084, 2046
2187, 2085
2071, 1935
2025, 1664
1638, 1300
1137, 963
891, 624
532, 403
308, 219
182, 129
116, 69
49, 41
24, 23
17, 14
23, 11
25, 8
45, 17
36, 23
42, 9
65, 23
74, 38
76, 46
85, 66
122, 109
153, 156
211, 214
284, 277
302, 306
358, 310
333, 299
353, 275
279, 217
231, 189
185, 134
130, 97
82, 53
47, 36
27, 20
19, 11
9, 7
5, 6
9, 7
13, 10
13, 10
16, 6
19, 15
19, 21
27, 16
17, 9
21, 10
7, 6
6, 4
9, 7
7, 8
7, 7
2, 5
0, 5
5, 7
9, 4
9, 3
6, 5
14, 3
12, 13
3, 12
4, 3
9, 8
7, 12
3, 6
5, 7
6, 7
4, 4
10, 8
8, 7
9, 9
12, 5
17, 5
16, 8
29, 4
33, 7
50, 7
45, 10
47, 6
51, 8
46, 11
51, 8
25, 11
32, 11
19, 10
23, 8
8, 11
7, 4
3, 8
9, 8
3, 7
3, 6
6, 7
3, 6
2, 5
5, 2
7, 2
4, 4
4, 7
4, 4
1, 3
6, 1
6, 5
2, 7
1, 6
6, 4
6, 3
1, 3
3, 4
4, 3
4, 3
4, 6
1, 7
4, 2
2, 4
4, 3
2, 5
3, 1
3, 5
5, 2
3, 4
2, 8
6, 5
2, 6
1, 6
7, 3
7, 7
4, 5
5, 9
5, 8
4, 7
2, 3
3, 6
12, 3
2, 4
5, 1
5, 6
2, 6
7, 3
4, 2
5, 2
2, 7
3, 4
4, 2
2, 4
4, 4
6, 3
3, 4
3, 1
3, 5
2, 0
3, 3
3, 4
6, 3
4, 3
3, 2
3, 3
1, 2
3, 1
8, 2
5, 5
1, 5
3, 3
3, 2
4, 4
3, 2
4, 4
3, 4
1, 5
5, 2
5, 3
5, 2
3, 7
2, 8
5, 3
4, 4
1, 0
3, 3
4, 3
1, 3
0, 0
2, 0
3, 8
1, 2
5, 2
4, 11
5, 6
3, 7
2, 2
3, 8
6, 3
7, 8
5, 4
4, 4
3, 1
3, 2
5, 2
1, 6
3, 1
4, 3
3, 2
5, 3
0, 3
3, 0
5, 3
4, 1
2, 1
1, 4
1, 2
1, 2
0, 1
1, 1
2, 2
3, 3
3, 2
2, 2
5, 0
5, 2
1, 1
1, 0
1, 0
6, 1
3, 1
5, 2
6, 2
3, 2
7, 1
4, 0
1, 0
3, 3
4, 0
0, 1
1, 1
3, 1
2, 0
3, 3
0, 1
1, 1
2, 0
1, 4
1, 4
1, 2
3, 1
5, 0
1, 2
3, 1
4, 1
1, 1
1, 0
1, 2
2, 3
0, 2
4, 2
2, 1
3, 3
1, 1
0, 2
1, 1
2, 3
1, 2
7, 1
4, 3
1, 3
1, 1
6, 2
5, 4
5, 1
3, 2
4, 6
6, 3
7, 2
2, 4
5, 0
4, 4
6, 3
2, 4
2, 1
5, 3
1, 1
3, 1
0, 3
2, 1
3, 2
3, 3
0, 2
5, 0
1, 1
0, 0
1, 0
0, 1
4, 2
3, 2
2, 2
2, 2
1, 1
5, 2
4, 1
2, 5
0, 4
3, 2
2, 0
1, 1
1, 1
1, 1
3, 3
2, 1
1, 1
2, 2
2, 1
1, 3
4, 2
1, 0
2, 1
3, 1
0, 1
2, 1
1, 0
2, 0
2, 1
0, 1
1, 2
0, 3
0, 1
1, 0
1, 0
1, 1
1, 2
0, 0
1, 0
3, 2
2, 1
1, 2
1, 2
0, 1
0, 0
1, 2
0, 1
1, 1
1, 2
0, 1
1, 0
2, 0
0, 1
0, 0
2, 1
2, 0
1, 0
3, 0
1, 0
3, 0
1, 0
2, 0
3, 1
2, 1
0, 1
0, 1
1, 1
1, 1
0, 0
1, 0
1, 0
0, 0
0, 0
1, 3
1, 1
1, 0
1, 0
0, 1
2, 0
0, 0
0, 0
2, 1
0, 1
1, 0
0, 0
0, 0
2, 0
2, 0
2, 0
0, 1
2, 0
0, 1
0, 0
1, 2
2, 1
1, 3
0, 0
0, 0
1, 2
1, 1
0, 1
0, 0
0, 1
2, 0
2, 0
1, 0
1, 0
0, 0
1, 0
0, 0
2, 0
2, 1
0, 0
1, 0
0, 1
0, 0
1, 0
2, 0
0, 0
0, 1
0, 1
0, 0
1, 0
0, 0
0, 0
1, 0
0, 0
0, 0
0, 0
0, 1
1, 0
1, 0
2, 0
0, 1
0, 1
1, 0
0, 0
1, 0
0, 2
0, 1
1, 1
0, 1
0, 0
0, 0
0, 1
0, 0
0, 0
1, 1
1, 0
0, 0
2, 0
0, 1
2, 0
0, 0
0, 0
0, 0
0, 0
0, 0
1, 0
1, 0
0, 1
0, 1
1, 0
0, 0
0, 1
0, 0
0, 2
0, 0
1, 0
1, 0
0, 0
0, 2
2, 0
0, 0
0, 0
0, 0
0, 1
0, 0
0, 3
0, 0
0, 0
0, 0
0, 0
0, 0
1, 0
0, 0
0, 0
0, 0
0, 1
0, 0
0, 1
1, 0
1, 0
0, 0
0, 0
0, 0
1, 0
1, 0
1, 0
0, 0
0, 0
1, 0
0, 0
0, 0
0, 0
1, 0
1, 0
0, 0
0, 0
0, 0
0, 0
0, 0
0, 0
1, 0
0, 0
0, 0
0, 0
0, 1
0, 0
0, 1
0, 0
0, 0
0, 0
0, 0
0, 0
1, 0
0, 0
0, 0
1, 0
0, 0
0, 1
0, 0
0, 0
0, 1
1, 0
1, 0
0, 0
0, 0
0, 0
0, 2
2, 0
0, 0
0, 0
0, 0
0, 0
0, 0
0, 1
0, 0
0, 1
0, 1
0, 0
1, 0
0, 0
0, 1
1, 0
0, 0
0, 0
0, 0
0, 0
0, 0
0, 0
0, 0
0, 0
1, 0
0, 0
0, 0
0, 0
0, 0
0, 0
0, 0
0, 0
0, 0
0, 0
0, 0
0, 1
0, 1
0, 0
0, 0
0, 0
0, 1
0, 0
0, 0
0, 0
0, 0
0, 2
0, 0
0, 0
0, 0
0, 1
0, 0
0, 0
0, 0
0, 0
0, 0
0, 1
2, 0
1, 0
1, 0
1, 0
0, 0
0, 0
0, 0
0, 0
0, 0
0, 0
0, 0
0, 0
0, 0
0, 0
0, 0
0, 0
0, 0
0, 1
0, 0
0, 0
0, 0
0, 0
0, 0
0, 0
0, 1
0, 0
0, 0
0, 0
0, 1
0, 0
1, 0
0, 0
0, 0
0, 0
0, 0
0, 0
0, 1
0, 0
0, 1
0, 0
0, 1
1, 0
0, 1
0, 0
0, 0
0, 0
0, 0
0, 0
0, 0
1, 0
0, 1
0, 0
0, 0
0, 0
0, 0
1, 0
0, 0
0, 0
0, 0
0, 0
0, 0
0, 0
0, 0
0, 0
0, 0
0, 0
0, 0
0, 1
0, 0
0, 0
0, 0
0, 0
0, 0
0, 0
0, 0
0, 0
0, 0
0, 0
0, 0
0, 0
0, 0
0, 0
0, 0
0, 0
0, 0
0, 1
0, 0
0, 0
0, 0
0, 0
0, 0
0, 0
0, 0
0, 0
0, 0
0, 0
0, 0
0, 0
0, 0
0, 0
0, 0
0, 0
0, 0
0, 0
0, 0
0, 0
0, 0
0, 0
0, 0
0, 0
0, 0
0, 0
0, 1
0, 0
0, 0
0, 0
1, 0
0, 0
1, 0
0, 0
0, 0
0, 0
0, 0
0, 0
0, 0
0, 0
0, 0
0, 0
0, 0
0, 0
0, 0
0, 0
0, 0
0, 0
0, 0
0, 0
0, 0
0, 0
0, 0
0, 0
0, 0
0, 0
0, 0
0, 0
0, 0
0, 0
0, 0
0, 0
0, 0
0, 0
0, 0
0, 0
0, 0
0, 0
0, 0
0, 0
0, 0
0, 0
0, 0
0, 0
0, 0
0, 0
0, 0
0, 0
0, 0
0, 0
0, 0
0, 0
0, 0
0, 0
0, 0
0, 0
0, 0
0, 0
0, 0
0, 0
0, 0
0, 0
0, 0
0, 0
0, 0
0, 0
0, 0
0, 0
0, 0
0, 0
0, 0
0, 0
0, 0
0, 0
0, 0
0, 0
0, 0
0, 0
0, 0
0, 0
0, 0
0, 0
0, 0
0, 0
0, 0
0, 0
0, 0
0, 0
0, 0
0, 0
0, 0
0, 0
0, 0
0, 0
0, 0
0, 0
0, 0
0, 0
0, 0
0, 0
0, 0
0, 0
0, 0
0, 0
0, 0
0, 0
0, 0
0, 0
0, 0
0, 0
0, 0
0, 0
0, 0
0, 0
0, 0
0, 0
0, 0
0, 0
0, 0
0, 0
0, 0
0, 0
0, 0
0, 0
0, 0
0, 0
0, 0
0, 0
0, 0
0, 0
0, 0
0, 0
0, 0
0, 0
0, 0
0, 0
0, 0
0, 0
0, 0
0, 0
0, 0
0, 0
0, 0
0, 0
0, 0
0, 0
0, 0
0, 0
0, 0
0, 0
0, 0
0, 0
0, 0
0, 0
0, 0
0, 0
0, 0
0, 0
0, 0
0, 0
0, 0
0, 0
0, 0
0, 0
0, 0
0, 0
0, 0
0, 0
0, 0
0, 0
0, 0
0, 0
0, 0
0, 0
0, 0
0, 0
0, 0
0, 0
0, 0
0, 0
0, 0
0, 0
0, 0
0, 0
0, 0
0, 0
0, 0
0, 0
0, 0
0, 0
0, 0
0, 0
0, 0
0, 0
0, 0
0, 0
0, 0
0, 0
0, 0
0, 0
0, 0
0, 0
0, 0
0, 0
0, 0
0, 0
0, 0
0, 0
0, 0
0, 0
0, 0
0, 0
0, 0
0, 0
0, 0
0, 0
0, 0
0, 0
0, 0
0, 0
0, 0
0, 0
0, 0
0, 0
0, 0
0, 0
0, 0
0, 0
0, 0
0, 0
0, 0
0, 0
0, 0
0, 0
0, 0
0, 0
0, 0
0, 0
0, 0
0, 0
0, 0
0, 0
0, 0
0, 0
0, 0
0, 0
0, 0
0, 0
0, 0
0, 0
0, 0
0, 0
0, 0
0, 0
0, 0
0, 0
0, 0
0, 0
0, 0
0, 0
0, 0
0, 0
0, 0
0, 0
0, 0
0, 0
0, 0
0, 0
0, 0
0, 0
0, 0
0, 0
0, 0
0, 0
0, 0
0, 0
0, 0
0, 0
0, 0
0, 0
0, 0
0, 0
0, 0
0, 0
0, 0
0, 0
0, 0
0, 0
0, 0
0, 0
0, 0
0, 0
0, 0
0, 0
0, 0
0, 0
0, 0
0, 0
0, 0
0, 0
0, 0
0, 0
0, 0
0, 0
0, 0
0, 0
0, 0
0, 0
0, 0
0, 0
0, 0
0, 0
0, 0
0, 0
0, 0
0, 0
0, 0
0, 0
0, 0
0, 0
0, 0
0, 0
0, 0
0, 0
0, 0
0, 0
0, 0
0, 0
0, 0
0, 0
0, 0
0, 0
0, 0
0, 0
0, 0
0, 0
0, 0
0, 0
0, 0
0, 0
0, 0
0, 0
0, 0
0, 0
0, 0
0, 0
0, 0
0, 0
0, 0
0, 0
0, 0
0, 0
0, 0
0, 0
0, 0
0, 0
0, 0
0, 0
0, 0
0, 0
0, 0
0, 0
0, 0
0, 0
0, 0
0, 0
0, 0
0, 0
0, 0
0, 0
0, 0
0, 0
0, 0
0, 0
0, 0
0, 0
0, 0
0, 0
0, 0
0, 0
0, 0
0, 0
0, 0
0, 0
0, 0
0, 0
0, 0
0, 0
0, 0
0, 0
0, 0
#ENDOFDATA     end of spectrum data