File: host_upload/06-09-2024/ps_0852/dump3/ps__0852shot_2445.msa
#FORMAT      : EMSA/MAS spectral data file
#VERSION     : TC202v2.0 PIXL
#TITLE       : N/A
#DATE        :       Date in the format DD-MMM-YYYY, for example 07-JUL-2010
#TIME        :             The time of day at which the spectrum was recorded, in 24-hour format
#OWNER       : PIXL Flight Model       (PIXL will use this to indicate which instrument took the data.)
#NPOINTS     : 4096     Number of data points in the spectrum (This can be zero for configuration only files)
#NCOLUMNS    : 2     Number of data columns in the spectrum (This can be zero for configuration only files)
#XUNITS      : eV
#YUNITS      : COUNTS
#DATATYPE    : YY
#XPERCHAN    : 7.862, 7.881   eV per channel (separate by commas if more than one detector)
#OFFSET      : 18.5, -22.4         eV of first channel  (separate by commas if more than one detector
#SIGNALTYPE  : XRF
#YP_TEMP     : 2.235
#LIVETIME    : 8.54756, 8.35388   seconds (separate by commas if more than one detector)
#REALTIME    : 10, 10.0   seconds (separate by commas if more than one detector)
#SPECTRUM    : start of spectrum data
0, 0
0, 0
0, 0
0, 0
0, 0
0, 0
0, 0
0, 0
0, 0
0, 0
0, 0
0, 0
0, 0
0, 0
0, 0
0, 0
0, 0
0, 0
0, 0
0, 0
0, 0
0, 0
0, 0
0, 0
0, 0
0, 0
0, 0
0, 0
0, 0
0, 0
0, 0
0, 0
0, 0
1, 2
0, 0
1, 1
1, 1
0, 1
1, 6
1, 15
2, 13
1, 13
0, 19
3, 9
3, 9
2, 6
1, 6
2, 1
4, 6
11, 9
23, 22
41, 36
42, 55
86, 96
83, 70
74, 82
56, 65
55, 41
23, 34
14, 16
5, 12
4, 1
3, 3
2, 8
1, 4
4, 6
3, 10
8, 11
21, 25
48, 48
98, 100
172, 176
249, 267
339, 374
416, 381
415, 425
348, 392
296, 314
200, 191
119, 131
69, 68
32, 41
23, 27
10, 11
2, 6
8, 5
3, 3
3, 0
0, 3
2, 3
1, 0
1, 3
1, 0
4, 1
5, 4
4, 5
6, 8
7, 9
10, 6
8, 11
7, 11
5, 4
7, 3
4, 4
6, 3
5, 6
10, 19
7, 19
16, 65
19, 97
17, 187
46, 335
57, 523
69, 718
62, 868
83, 889
86, 870
56, 704
55, 521
57, 329
45, 202
33, 131
25, 75
33, 39
26, 31
28, 12
23, 16
18, 14
19, 11
9, 15
5, 6
4, 6
3, 3
2, 7
3, 2
5, 1
3, 1
3, 2
3, 2
4, 1
5, 3
2, 5
0, 4
2, 2
2, 6
0, 5
2, 5
5, 4
3, 1
6, 7
7, 11
1, 9
14, 7
15, 10
17, 15
18, 30
29, 14
17, 26
20, 25
24, 16
15, 19
10, 9
7, 6
10, 5
8, 6
7, 5
5, 6
9, 3
5, 7
9, 15
9, 13
9, 14
11, 10
11, 15
7, 11
12, 10
12, 12
8, 7
12, 12
19, 10
11, 11
11, 5
16, 7
13, 6
9, 10
8, 6
6, 3
7, 11
7, 13
6, 16
14, 13
14, 12
27, 9
13, 26
20, 20
18, 10
20, 25
20, 21
20, 27
18, 17
21, 18
19, 13
27, 11
33, 11
32, 8
25, 6
21, 7
20, 2
25, 9
21, 7
14, 9
16, 10
12, 8
9, 7
10, 6
9, 10
13, 6
6, 7
9, 6
15, 7
18, 3
20, 8
21, 13
16, 8
23, 11
34, 13
25, 17
23, 15
32, 25
20, 22
30, 28
24, 27
33, 27
29, 29
24, 22
19, 20
17, 10
9, 12
13, 8
14, 11
15, 13
11, 16
10, 22
12, 14
13, 21
21, 33
35, 32
32, 36
55, 56
54, 61
61, 74
81, 64
81, 60
80, 50
65, 46
31, 30
31, 29
32, 18
23, 23
23, 26
14, 19
35, 27
41, 59
80, 93
163, 205
282, 351
482, 564
805, 936
1154, 1339
1593, 1734
2014, 2164
2399, 2342
2491, 2405
2346, 2251
2149, 2006
1697, 1450
1345, 1103
941, 682
580, 452
356, 243
176, 131
110, 76
61, 50
52, 21
35, 20
20, 28
26, 28
19, 21
33, 29
32, 38
27, 38
26, 42
47, 71
68, 93
91, 115
148, 155
213, 224
231, 287
338, 319
344, 372
371, 385
358, 331
326, 291
277, 249
200, 148
145, 102
93, 83
71, 46
28, 24
19, 17
14, 21
8, 5
10, 6
15, 9
16, 13
9, 11
9, 11
17, 12
14, 8
22, 13
24, 12
8, 11
3, 8
9, 6
11, 7
9, 9
7, 2
2, 3
9, 5
6, 5
7, 1
5, 5
3, 3
6, 1
7, 4
10, 4
9, 7
14, 6
2, 8
18, 3
8, 9
12, 5
8, 6
20, 3
10, 11
14, 5
5, 11
12, 12
9, 8
13, 7
5, 5
8, 8
2, 8
3, 2
8, 3
8, 4
9, 9
5, 6
3, 6
4, 3
3, 6
6, 3
11, 3
5, 2
5, 10
6, 5
3, 4
4, 4
6, 7
2, 4
4, 9
3, 5
3, 2
5, 4
4, 2
8, 3
4, 10
8, 7
3, 4
2, 6
5, 10
2, 3
7, 8
4, 7
6, 5
10, 6
5, 3
9, 7
3, 4
4, 5
9, 9
7, 4
15, 4
16, 4
9, 7
9, 4
9, 5
9, 6
13, 5
8, 5
7, 3
7, 4
7, 8
4, 1
4, 1
6, 4
3, 3
5, 5
3, 2
6, 5
9, 2
9, 2
2, 4
6, 4
2, 7
8, 4
3, 1
3, 3
3, 3
2, 3
1, 5
6, 4
1, 8
4, 6
0, 7
3, 6
2, 5
2, 0
1, 6
6, 5
2, 6
4, 6
3, 2
3, 2
5, 8
2, 5
1, 4
3, 3
4, 4
2, 1
4, 2
1, 4
6, 1
4, 8
8, 2
10, 4
5, 2
3, 6
3, 3
4, 2
3, 5
5, 6
3, 4
3, 1
4, 3
6, 3
3, 10
6, 5
4, 2
5, 7
5, 3
1, 3
2, 4
0, 3
1, 2
5, 6
3, 4
2, 1
4, 2
2, 2
5, 3
2, 2
3, 7
3, 4
3, 0
4, 3
1, 2
1, 3
1, 6
2, 2
1, 3
3, 0
2, 3
3, 3
0, 2
2, 3
4, 4
3, 3
1, 5
2, 2
1, 2
2, 3
1, 3
3, 2
4, 1
3, 0
2, 0
1, 2
1, 3
3, 1
0, 2
5, 2
4, 0
5, 1
6, 3
2, 2
3, 3
4, 2
3, 2
1, 4
1, 2
2, 3
4, 0
2, 1
3, 3
2, 1
1, 3
2, 4
5, 3
2, 2
1, 1
2, 6
2, 2
4, 2
1, 4
1, 5
1, 4
2, 6
0, 6
0, 3
2, 3
1, 3
1, 1
0, 3
0, 2
0, 0
5, 4
2, 5
4, 2
2, 6
8, 2
1, 2
5, 1
4, 5
4, 2
6, 3
3, 4
8, 3
4, 5
2, 5
3, 2
1, 2
0, 0
2, 1
1, 4
1, 4
2, 2
0, 3
2, 0
0, 3
0, 0
0, 0
1, 1
4, 1
1, 2
4, 1
2, 1
1, 4
3, 3
1, 1
2, 0
2, 2
3, 1
0, 3
2, 2
1, 1
2, 1
0, 5
0, 2
2, 0
2, 2
4, 2
0, 4
3, 1
0, 1
0, 2
1, 0
0, 0
1, 2
2, 1
0, 1
2, 2
1, 0
1, 0
1, 3
2, 1
0, 0
0, 1
1, 3
1, 2
0, 0
1, 1
1, 1
2, 1
2, 0
2, 1
0, 2
3, 2
2, 1
1, 0
3, 1
0, 0
2, 1
0, 0
0, 2
0, 1
2, 0
0, 0
1, 2
0, 0
2, 0
2, 0
1, 2
0, 0
1, 1
1, 2
0, 2
1, 0
0, 0
1, 1
1, 2
2, 2
1, 1
1, 2
0, 3
0, 0
0, 1
1, 0
0, 2
1, 0
0, 0
1, 2
1, 2
3, 0
0, 1
0, 1
2, 0
0, 1
1, 4
1, 0
0, 1
2, 0
1, 1
0, 0
2, 1
0, 1
0, 0
1, 0
0, 0
0, 1
2, 0
0, 0
1, 3
0, 2
0, 0
0, 0
1, 0
1, 0
0, 0
0, 1
1, 0
1, 0
1, 0
1, 2
0, 0
0, 1
1, 1
0, 0
0, 1
1, 1
0, 1
0, 0
0, 1
0, 1
0, 3
2, 0
0, 0
1, 0
0, 0
1, 0
0, 1
0, 1
0, 1
0, 0
0, 0
0, 1
0, 2
0, 2
1, 0
0, 0
0, 0
0, 1
0, 0
0, 0
1, 0
0, 0
0, 0
0, 0
0, 1
0, 1
2, 1
1, 0
1, 1
0, 0
0, 0
0, 0
1, 0
0, 0
0, 0
0, 1
1, 1
0, 0
0, 1
1, 0
0, 1
1, 0
0, 0
1, 0
0, 0
0, 1
0, 1
0, 1
0, 0
0, 0
0, 0
1, 0
0, 0
0, 0
1, 1
0, 0
0, 0
2, 0
0, 0
0, 0
0, 2
0, 1
0, 0
0, 0
0, 0
0, 0
0, 1
1, 0
1, 0
0, 0
0, 1
0, 0
0, 0
0, 0
0, 0
0, 0
0, 0
0, 0
0, 0
0, 0
1, 0
0, 0
1, 0
0, 1
0, 0
0, 1
0, 0
0, 1
1, 0
0, 0
0, 1
0, 0
0, 0
0, 0
0, 0
0, 0
1, 1
1, 0
1, 0
0, 0
0, 0
1, 0
0, 0
0, 0
1, 0
0, 1
0, 1
0, 1
0, 0
0, 0
0, 0
0, 1
0, 0
0, 0
1, 0
0, 1
0, 0
0, 0
0, 0
0, 1
0, 0
0, 0
0, 0
0, 2
0, 0
0, 0
0, 0
0, 0
0, 0
0, 0
0, 0
0, 0
0, 2
0, 1
0, 0
0, 0
0, 1
0, 0
0, 1
0, 0
0, 0
0, 0
0, 0
0, 0
0, 0
0, 0
0, 0
0, 0
0, 0
1, 0
0, 0
1, 0
0, 1
0, 0
0, 0
0, 0
0, 0
0, 0
0, 1
0, 0
0, 0
0, 0
1, 0
0, 0
1, 0
0, 0
0, 0
0, 0
0, 0
0, 0
0, 0
0, 0
0, 0
0, 0
0, 1
0, 0
0, 0
0, 0
0, 0
0, 1
0, 0
0, 0
0, 0
0, 0
0, 0
0, 0
0, 0
0, 0
0, 0
0, 0
0, 0
0, 0
0, 0
0, 0
0, 0
0, 1
0, 0
0, 0
0, 0
1, 0
0, 0
0, 0
0, 0
0, 0
0, 1
0, 1
0, 0
0, 0
0, 0
0, 0
1, 1
0, 0
0, 0
0, 1
0, 0
0, 1
0, 0
0, 0
0, 0
0, 0
0, 0
0, 0
0, 0
0, 0
0, 0
0, 0
0, 0
0, 0
0, 0
0, 0
0, 0
0, 0
0, 0
0, 0
0, 0
0, 0
0, 0
0, 0
1, 0
0, 0
0, 0
1, 0
0, 0
0, 0
1, 0
0, 0
0, 0
0, 1
0, 0
0, 0
1, 0
0, 0
0, 0
0, 0
0, 0
0, 0
0, 0
0, 0
0, 0
0, 0
0, 0
0, 0
0, 0
0, 0
0, 0
0, 0
0, 0
0, 0
0, 0
0, 0
0, 0
0, 0
0, 0
0, 0
0, 0
0, 0
0, 0
0, 0
0, 0
0, 0
0, 0
0, 0
0, 1
0, 0
0, 0
0, 0
0, 0
0, 0
0, 0
0, 0
0, 1
0, 0
0, 0
0, 0
0, 0
0, 0
0, 0
0, 0
0, 0
0, 0
0, 0
0, 0
0, 0
0, 0
0, 0
0, 0
0, 0
0, 0
0, 0
0, 0
0, 0
0, 0
0, 0
0, 0
0, 0
0, 0
0, 0
0, 0
0, 0
0, 0
0, 0
0, 0
0, 0
0, 0
0, 0
0, 0
0, 0
0, 0
0, 0
0, 0
0, 0
0, 0
0, 0
0, 0
0, 0
0, 0
0, 0
0, 0
0, 0
0, 0
0, 0
0, 0
0, 0
0, 0
0, 0
0, 0
0, 0
0, 0
0, 0
0, 0
0, 1
0, 0
0, 0
0, 0
0, 0
0, 0
0, 0
0, 0
0, 0
0, 0
0, 0
0, 0
0, 0
0, 0
0, 0
0, 0
0, 0
0, 0
0, 0
0, 0
0, 0
0, 0
0, 0
0, 0
0, 0
0, 0
0, 0
0, 0
0, 0
0, 0
0, 0
0, 0
0, 0
0, 0
0, 0
0, 0
0, 0
0, 0
0, 0
0, 0
0, 0
0, 0
0, 0
0, 0
0, 0
0, 0
0, 0
0, 0
0, 0
0, 0
0, 0
0, 0
0, 0
0, 0
0, 0
0, 0
0, 0
0, 0
0, 0
0, 0
0, 0
0, 0
0, 0
0, 0
0, 0
0, 0
0, 0
0, 0
0, 0
0, 0
0, 0
0, 0
0, 0
0, 0
0, 0
0, 0
0, 0
0, 0
0, 0
0, 0
0, 0
0, 0
0, 0
0, 1
0, 0
0, 0
0, 0
0, 0
0, 0
0, 0
0, 0
0, 0
0, 0
0, 0
0, 0
0, 0
0, 0
0, 0
0, 0
0, 0
0, 0
0, 0
0, 0
0, 0
0, 0
0, 0
0, 0
0, 0
0, 0
0, 0
0, 0
0, 0
0, 0
0, 0
0, 0
0, 0
0, 0
0, 0
0, 0
0, 0
0, 0
0, 0
0, 0
0, 0
0, 0
0, 0
0, 0
0, 0
0, 0
0, 0
0, 0
0, 0
0, 0
0, 0
0, 0
0, 0
0, 0
0, 0
0, 0
0, 0
0, 0
0, 0
0, 0
0, 0
0, 0
0, 0
0, 0
0, 0
0, 0
0, 0
0, 0
0, 0
0, 0
0, 0
0, 0
0, 0
0, 0
0, 0
0, 0
0, 0
0, 0
0, 0
0, 0
0, 0
0, 0
0, 0
0, 0
0, 0
0, 0
0, 0
0, 0
0, 0
0, 0
0, 0
0, 0
0, 0
0, 0
0, 0
0, 0
0, 0
0, 0
0, 0
0, 0
0, 0
0, 0
0, 0
0, 0
0, 0
0, 0
0, 0
0, 0
0, 0
0, 0
0, 0
0, 0
0, 0
0, 0
0, 0
0, 0
0, 0
0, 0
0, 0
0, 0
0, 0
0, 0
0, 0
0, 0
0, 0
0, 0
0, 0
0, 0
0, 0
0, 0
0, 0
0, 0
0, 0
0, 0
0, 0
0, 0
0, 0
0, 0
0, 0
0, 0
0, 0
0, 0
0, 0
0, 0
0, 0
0, 0
0, 0
0, 0
0, 0
0, 0
0, 0
0, 0
0, 0
0, 0
0, 0
0, 0
0, 0
0, 0
0, 0
0, 0
0, 0
0, 0
0, 0
0, 0
0, 0
0, 0
0, 0
0, 0
0, 0
0, 0
0, 0
0, 0
0, 0
0, 0
0, 0
0, 0
0, 0
0, 0
0, 0
0, 0
0, 0
0, 0
0, 0
0, 0
0, 0
0, 0
0, 0
0, 0
0, 0
0, 0
0, 0
0, 0
0, 0
0, 0
0, 0
0, 0
0, 0
0, 0
0, 0
0, 0
0, 0
0, 0
0, 0
0, 0
0, 0
0, 0
0, 0
0, 0
0, 0
0, 0
0, 0
0, 0
0, 0
0, 0
0, 0
0, 0
0, 0
0, 0
0, 0
0, 0
0, 0
0, 0
0, 0
0, 0
0, 0
0, 0
0, 0
0, 0
0, 0
0, 0
0, 0
0, 0
0, 0
0, 0
0, 0
0, 0
0, 0
0, 0
0, 0
0, 0
0, 0
0, 0
0, 0
0, 0
0, 0
0, 0
0, 0
0, 0
0, 0
#ENDOFDATA     end of spectrum data