File: host_upload/06-09-2024/ps_0852/dump3/ps__0852shot_2393.msa
#FORMAT      : EMSA/MAS spectral data file
#VERSION     : TC202v2.0 PIXL
#TITLE       : N/A
#DATE        :       Date in the format DD-MMM-YYYY, for example 07-JUL-2010
#TIME        :             The time of day at which the spectrum was recorded, in 24-hour format
#OWNER       : PIXL Flight Model       (PIXL will use this to indicate which instrument took the data.)
#NPOINTS     : 4096     Number of data points in the spectrum (This can be zero for configuration only files)
#NCOLUMNS    : 2     Number of data columns in the spectrum (This can be zero for configuration only files)
#XUNITS      : eV
#YUNITS      : COUNTS
#DATATYPE    : YY
#XPERCHAN    : 7.862, 7.881   eV per channel (separate by commas if more than one detector)
#OFFSET      : 18.5, -22.4         eV of first channel  (separate by commas if more than one detector
#SIGNALTYPE  : XRF
#YP_TEMP     : 2.267
#LIVETIME    : 8.56884, 8.57375   seconds (separate by commas if more than one detector)
#REALTIME    : 10, 10.0   seconds (separate by commas if more than one detector)
#SPECTRUM    : start of spectrum data
0, 0
0, 0
0, 0
0, 0
0, 0
0, 0
0, 0
0, 0
0, 0
0, 0
0, 0
0, 0
0, 0
0, 0
0, 0
0, 0
0, 0
0, 0
0, 0
0, 0
0, 0
0, 0
0, 0
0, 0
0, 0
0, 0
0, 0
0, 0
0, 0
0, 0
0, 0
0, 1
0, 0
0, 0
0, 0
0, 0
0, 0
0, 0
0, 0
1, 1
2, 2
1, 1
2, 1
1, 1
2, 2
0, 3
2, 0
2, 2
6, 3
13, 8
22, 16
41, 38
55, 54
83, 65
91, 82
71, 62
75, 71
47, 45
28, 28
14, 14
12, 2
3, 5
2, 3
0, 3
3, 1
6, 4
5, 12
4, 8
28, 23
60, 47
95, 95
174, 166
318, 301
371, 375
458, 411
482, 446
418, 334
347, 279
237, 169
139, 107
95, 83
45, 37
18, 19
16, 8
11, 4
1, 4
7, 3
3, 3
2, 1
4, 4
0, 0
1, 3
0, 2
1, 1
1, 0
1, 0
4, 1
2, 4
7, 3
2, 5
0, 3
3, 3
3, 2
1, 2
4, 3
6, 1
12, 6
7, 11
13, 13
12, 15
26, 20
29, 25
41, 38
30, 32
40, 36
57, 39
45, 39
34, 43
33, 26
19, 33
22, 19
27, 21
31, 19
25, 13
19, 13
15, 12
16, 12
11, 6
8, 4
10, 6
5, 4
1, 5
3, 4
6, 5
1, 1
0, 2
0, 3
4, 2
2, 0
1, 2
3, 3
3, 2
2, 1
2, 2
1, 2
2, 0
1, 2
3, 3
3, 1
1, 2
3, 3
4, 4
4, 5
11, 4
11, 9
12, 10
14, 16
18, 15
16, 17
9, 11
13, 7
7, 8
5, 4
7, 3
4, 4
6, 2
4, 5
4, 3
3, 3
2, 5
3, 5
5, 5
5, 4
3, 5
3, 3
3, 4
3, 4
3, 4
0, 7
2, 2
2, 6
2, 2
2, 5
4, 3
4, 3
6, 3
6, 2
4, 5
1, 5
7, 6
13, 7
12, 13
9, 6
9, 19
15, 12
10, 14
16, 16
19, 18
14, 16
14, 10
8, 7
11, 12
7, 9
10, 8
5, 7
4, 9
8, 12
8, 24
5, 26
3, 36
7, 40
7, 56
13, 48
5, 55
5, 47
5, 49
1, 28
7, 29
1, 27
7, 16
3, 17
9, 19
3, 6
2, 8
5, 6
8, 11
8, 7
16, 17
18, 17
20, 19
21, 15
15, 12
18, 11
15, 10
15, 8
24, 12
6, 7
9, 6
10, 8
10, 5
8, 5
6, 3
10, 13
12, 11
16, 15
19, 13
25, 33
41, 44
35, 41
47, 72
59, 70
62, 53
54, 49
59, 49
51, 40
33, 22
31, 26
13, 24
11, 20
18, 16
17, 23
25, 33
44, 53
79, 107
161, 183
283, 369
529, 609
832, 958
1186, 1357
1603, 1782
2108, 2171
2457, 2369
2548, 2451
2608, 2307
2186, 1951
1849, 1575
1341, 1140
966, 729
591, 466
388, 279
224, 167
103, 56
49, 36
18, 34
19, 19
18, 5
21, 11
18, 18
17, 9
26, 30
24, 30
35, 40
38, 50
67, 79
99, 119
194, 198
193, 214
270, 320
328, 348
375, 370
389, 343
359, 342
322, 235
279, 208
217, 169
139, 117
88, 66
53, 49
45, 20
26, 19
16, 14
12, 16
6, 24
10, 20
12, 25
7, 27
14, 39
8, 41
17, 47
8, 56
16, 30
16, 50
9, 42
12, 38
11, 28
12, 33
10, 20
12, 15
16, 8
9, 5
7, 3
9, 7
10, 2
8, 2
7, 2
6, 3
13, 3
8, 6
7, 3
7, 4
10, 3
6, 5
6, 5
5, 3
5, 5
5, 2
7, 7
4, 1
6, 4
4, 3
4, 8
7, 6
3, 5
2, 4
3, 8
6, 4
3, 8
3, 5
4, 2
5, 6
2, 3
2, 6
6, 2
6, 3
8, 3
10, 2
7, 6
10, 10
8, 8
12, 1
19, 1
13, 1
10, 2
13, 4
9, 2
11, 3
6, 3
4, 4
10, 1
11, 2
4, 6
0, 2
8, 3
0, 5
5, 6
1, 6
5, 5
3, 8
4, 6
1, 4
4, 3
4, 5
4, 2
3, 6
5, 2
5, 7
1, 6
2, 5
3, 3
4, 8
4, 10
4, 10
2, 13
2, 8
6, 10
4, 17
3, 13
3, 13
4, 21
7, 12
7, 6
6, 8
11, 5
6, 6
11, 4
8, 5
8, 2
10, 6
5, 2
7, 5
6, 6
4, 4
4, 6
4, 7
5, 3
6, 5
8, 1
0, 6
3, 3
3, 5
2, 4
2, 2
6, 3
4, 5
2, 2
1, 7
4, 2
4, 3
0, 6
2, 2
1, 3
1, 4
3, 2
4, 4
4, 3
2, 3
2, 6
2, 1
2, 3
1, 1
1, 3
4, 4
3, 1
2, 2
2, 4
2, 0
3, 5
2, 2
2, 1
6, 2
2, 2
2, 1
1, 2
3, 0
2, 3
0, 3
5, 3
4, 2
3, 3
0, 3
3, 0
5, 4
2, 0
5, 1
1, 4
3, 2
2, 2
5, 1
2, 2
2, 4
5, 0
1, 2
2, 5
5, 2
2, 1
3, 1
2, 1
4, 2
3, 3
5, 1
3, 4
0, 2
2, 0
1, 4
3, 1
2, 2
3, 0
5, 2
6, 4
3, 1
5, 5
5, 6
2, 2
4, 0
3, 2
2, 1
0, 3
2, 4
5, 9
3, 4
0, 4
1, 2
1, 2
1, 5
0, 3
2, 3
1, 3
3, 5
3, 1
2, 1
3, 2
3, 2
3, 0
2, 2
1, 0
1, 2
5, 1
3, 1
3, 3
1, 0
2, 2
4, 4
1, 1
1, 1
2, 2
2, 3
3, 1
2, 4
3, 4
3, 6
4, 3
2, 4
7, 3
3, 6
2, 2
2, 3
5, 4
8, 1
2, 3
1, 2
2, 1
5, 1
2, 2
2, 1
1, 1
2, 0
1, 0
2, 0
2, 0
1, 3
1, 3
3, 2
3, 0
2, 1
4, 3
3, 1
4, 2
2, 1
4, 0
5, 2
6, 3
7, 1
4, 3
5, 0
1, 3
1, 1
0, 2
2, 1
3, 3
4, 0
1, 1
0, 2
1, 2
2, 0
1, 0
2, 2
0, 2
0, 1
1, 0
1, 1
2, 1
2, 0
1, 0
0, 1
0, 0
0, 0
1, 1
2, 2
1, 0
1, 1
0, 5
1, 2
2, 0
3, 2
0, 0
0, 1
1, 1
1, 0
1, 2
0, 0
2, 1
1, 0
1, 1
1, 2
2, 2
2, 0
0, 1
1, 1
1, 0
2, 0
0, 1
1, 1
0, 2
0, 1
3, 1
0, 2
0, 2
0, 0
1, 1
1, 0
1, 1
1, 0
0, 0
3, 0
3, 1
2, 0
1, 0
0, 2
1, 1
0, 1
0, 1
0, 1
1, 2
1, 0
0, 1
0, 1
1, 0
2, 0
0, 0
2, 0
0, 1
1, 0
0, 0
1, 0
2, 0
1, 0
0, 0
3, 0
0, 0
0, 0
0, 0
1, 0
0, 1
0, 1
2, 1
2, 2
0, 1
1, 2
0, 0
1, 0
2, 2
0, 0
1, 0
0, 0
0, 0
1, 0
1, 1
0, 0
2, 0
1, 2
0, 1
1, 1
0, 0
0, 1
0, 0
1, 1
1, 0
0, 0
0, 0
0, 0
0, 0
0, 1
0, 0
0, 0
0, 0
0, 0
0, 0
2, 1
0, 1
0, 0
1, 0
0, 0
0, 1
0, 0
0, 0
0, 0
0, 0
1, 0
0, 2
0, 0
1, 2
0, 1
0, 1
2, 1
0, 0
1, 1
1, 0
0, 0
0, 0
0, 2
0, 0
0, 0
2, 0
0, 0
0, 1
1, 0
0, 0
1, 1
0, 0
0, 1
0, 0
0, 0
0, 1
1, 0
1, 0
1, 0
1, 0
0, 1
1, 0
1, 1
2, 0
1, 0
0, 0
1, 0
0, 0
0, 0
0, 1
0, 0
0, 1
1, 1
2, 2
0, 1
1, 2
0, 0
0, 1
0, 0
0, 0
1, 1
0, 0
0, 0
1, 0
0, 0
0, 0
0, 1
1, 0
1, 0
1, 0
0, 1
0, 0
0, 0
0, 0
0, 0
0, 1
1, 0
0, 0
0, 0
0, 0
1, 1
0, 0
0, 0
0, 0
0, 0
0, 0
0, 0
0, 3
0, 0
0, 0
0, 1
1, 0
0, 1
0, 0
0, 0
0, 0
0, 0
0, 1
0, 0
1, 0
0, 0
0, 0
0, 0
0, 0
0, 0
0, 1
0, 0
0, 0
0, 0
0, 0
1, 0
0, 0
0, 1
0, 0
0, 1
0, 0
0, 0
1, 0
0, 0
0, 0
1, 0
1, 1
0, 0
0, 0
0, 0
0, 0
0, 0
0, 0
0, 0
0, 0
0, 0
0, 0
1, 1
0, 0
1, 1
0, 0
0, 0
0, 0
0, 1
0, 0
0, 0
0, 0
1, 0
0, 0
0, 0
1, 0
0, 0
0, 0
0, 0
0, 0
0, 0
0, 0
0, 0
0, 0
0, 0
0, 0
1, 1
1, 0
1, 0
0, 0
0, 0
0, 1
0, 0
1, 0
0, 0
0, 0
0, 0
0, 0
1, 0
0, 0
0, 0
0, 0
0, 0
0, 0
0, 0
0, 0
0, 0
0, 0
0, 0
0, 0
0, 0
1, 0
0, 0
0, 0
0, 0
0, 0
0, 0
0, 0
0, 0
0, 0
0, 0
0, 1
0, 0
0, 0
0, 0
0, 0
0, 0
0, 0
0, 0
0, 0
0, 0
0, 0
0, 0
0, 0
1, 0
0, 0
0, 0
0, 0
0, 0
0, 0
0, 0
0, 0
0, 0
0, 0
0, 0
0, 0
0, 0
0, 0
0, 0
0, 0
0, 1
0, 0
0, 0
0, 0
0, 0
0, 0
0, 0
0, 0
0, 0
0, 0
0, 0
0, 0
0, 0
0, 0
0, 0
0, 0
0, 0
0, 0
0, 0
0, 0
0, 0
0, 0
0, 0
0, 0
0, 0
0, 0
0, 0
0, 0
0, 1
1, 0
0, 0
0, 0
0, 0
0, 0
0, 0
0, 0
0, 0
0, 0
0, 0
0, 0
0, 0
0, 0
0, 0
0, 0
0, 0
0, 0
0, 0
0, 0
0, 0
0, 0
0, 0
0, 0
0, 0
0, 0
0, 0
0, 0
0, 0
0, 0
0, 0
0, 0
0, 0
0, 0
0, 0
0, 0
0, 0
0, 0
0, 0
0, 0
0, 0
0, 0
0, 0
0, 0
0, 0
0, 0
0, 0
0, 0
0, 0
0, 0
0, 0
0, 0
0, 0
0, 0
0, 0
0, 0
0, 0
0, 0
0, 0
0, 0
0, 0
0, 0
0, 0
0, 0
0, 0
0, 0
0, 0
0, 0
0, 0
0, 0
0, 0
0, 0
0, 0
0, 0
0, 0
0, 0
0, 0
0, 0
0, 0
0, 0
0, 0
0, 0
0, 0
0, 0
0, 0
0, 0
0, 0
0, 0
0, 0
0, 0
0, 0
0, 0
0, 0
0, 0
0, 0
0, 0
0, 0
0, 0
0, 0
0, 0
0, 0
0, 0
0, 0
0, 0
0, 0
0, 0
0, 0
0, 0
0, 0
0, 0
0, 0
0, 0
0, 0
0, 0
0, 0
0, 0
0, 0
0, 0
0, 0
0, 0
0, 0
0, 0
0, 0
0, 0
0, 0
0, 0
0, 0
0, 0
0, 0
0, 0
0, 0
0, 0
0, 0
0, 0
0, 0
0, 0
0, 0
0, 0
0, 0
0, 0
0, 0
0, 0
0, 0
0, 0
0, 0
0, 0
0, 0
0, 0
0, 0
0, 0
0, 0
0, 0
0, 0
0, 0
0, 0
0, 0
0, 0
0, 0
0, 0
0, 0
0, 0
0, 0
0, 0
0, 0
0, 0
0, 0
0, 0
0, 0
0, 0
0, 0
0, 0
0, 0
0, 0
0, 0
0, 0
0, 0
0, 0
0, 0
0, 0
0, 0
0, 0
0, 0
0, 0
0, 0
0, 0
0, 0
0, 0
0, 0
0, 0
0, 0
0, 0
0, 0
0, 0
0, 0
0, 0
0, 0
0, 0
0, 0
0, 0
0, 0
0, 0
0, 0
0, 0
0, 0
0, 0
0, 0
0, 0
0, 0
0, 0
0, 0
0, 0
0, 0
0, 0
0, 0
0, 0
0, 0
0, 0
0, 0
0, 0
0, 0
0, 0
0, 0
0, 0
0, 0
0, 0
0, 0
0, 0
0, 0
0, 0
0, 0
0, 0
0, 0
0, 0
0, 0
0, 0
0, 0
0, 0
0, 0
0, 0
0, 0
0, 0
0, 0
0, 0
0, 0
0, 0
0, 0
0, 0
0, 0
0, 0
0, 0
0, 0
0, 0
0, 0
0, 0
0, 0
0, 0
0, 0
0, 0
0, 0
0, 0
0, 0
0, 0
0, 0
0, 0
0, 0
0, 0
0, 0
0, 0
0, 0
0, 0
0, 0
0, 0
0, 0
0, 0
0, 0
0, 0
0, 0
0, 0
0, 0
0, 0
0, 0
0, 0
0, 0
0, 0
0, 0
0, 0
0, 0
0, 0
0, 0
0, 0
0, 0
0, 0
0, 0
0, 0
0, 0
0, 0
0, 0
0, 0
0, 0
0, 0
0, 0
0, 0
0, 0
0, 0
0, 0
0, 0
0, 0
0, 0
0, 0
0, 0
0, 0
0, 0
0, 0
0, 0
0, 0
0, 0
0, 0
0, 0
0, 0
0, 0
0, 0
0, 0
0, 0
0, 0
0, 0
0, 0
0, 0
0, 0
0, 0
0, 0
0, 0
0, 0
0, 0
0, 0
0, 0
0, 0
0, 0
0, 0
0, 0
0, 0
0, 0
0, 0
0, 0
0, 0
0, 0
0, 0
0, 0
0, 0
0, 0
0, 0
0, 0
0, 0
0, 0
0, 0
0, 0
0, 0
0, 0
0, 0
0, 0
0, 0
0, 0
0, 0
0, 0
0, 0
0, 0
0, 0
0, 0
0, 0
0, 0
0, 0
0, 0
0, 0
0, 0
0, 0
0, 0
0, 0
0, 0
0, 0
0, 0
0, 0
0, 0
0, 0
0, 0
0, 0
0, 0
0, 0
0, 0
0, 0
0, 0
0, 0
0, 0
0, 0
0, 0
0, 0
0, 0
0, 0
0, 0
0, 0
0, 0
0, 0
0, 0
0, 0
0, 0
0, 0
0, 0
0, 0
0, 0
0, 0
0, 0
0, 0
0, 0
0, 0
0, 0
0, 0
0, 0
0, 0
0, 0
0, 0
0, 0
0, 0
0, 0
#ENDOFDATA     end of spectrum data