File: host_upload/06-09-2024/ps_0852/dump3/ps__0852shot_2274.msa
#FORMAT      : EMSA/MAS spectral data file
#VERSION     : TC202v2.0 PIXL
#TITLE       : N/A
#DATE        :       Date in the format DD-MMM-YYYY, for example 07-JUL-2010
#TIME        :             The time of day at which the spectrum was recorded, in 24-hour format
#OWNER       : PIXL Flight Model       (PIXL will use this to indicate which instrument took the data.)
#NPOINTS     : 4096     Number of data points in the spectrum (This can be zero for configuration only files)
#NCOLUMNS    : 2     Number of data columns in the spectrum (This can be zero for configuration only files)
#XUNITS      : eV
#YUNITS      : COUNTS
#DATATYPE    : YY
#XPERCHAN    : 7.862, 7.881   eV per channel (separate by commas if more than one detector)
#OFFSET      : 18.5, -22.4         eV of first channel  (separate by commas if more than one detector
#SIGNALTYPE  : XRF
#YP_TEMP     : 2.652
#LIVETIME    : 8.57135, 8.57258   seconds (separate by commas if more than one detector)
#REALTIME    : 10, 10.0   seconds (separate by commas if more than one detector)
#SPECTRUM    : start of spectrum data
0, 0
0, 0
0, 0
0, 0
0, 0
0, 0
0, 0
0, 0
0, 0
0, 0
0, 0
0, 0
0, 0
0, 0
0, 0
0, 0
0, 0
0, 0
0, 0
0, 0
0, 0
0, 0
0, 0
0, 0
0, 0
0, 0
0, 0
0, 0
0, 0
0, 0
0, 0
0, 0
1, 0
0, 1
0, 0
1, 0
0, 0
2, 1
0, 2
1, 4
1, 2
0, 1
1, 3
1, 0
3, 2
2, 7
1, 2
1, 2
7, 9
12, 15
22, 21
19, 40
46, 64
46, 74
58, 77
54, 85
40, 61
29, 49
23, 16
10, 13
11, 13
2, 8
3, 8
1, 5
6, 2
6, 3
2, 6
7, 11
9, 25
33, 76
67, 112
117, 226
210, 323
295, 404
322, 509
362, 517
313, 403
227, 316
164, 200
103, 135
59, 82
22, 34
15, 21
11, 7
4, 7
3, 6
0, 5
2, 3
4, 4
0, 1
1, 2
1, 6
4, 5
9, 11
13, 14
31, 22
28, 44
25, 67
42, 61
38, 72
42, 64
32, 50
27, 29
19, 21
9, 13
15, 21
12, 21
7, 18
18, 21
15, 45
37, 40
41, 62
29, 74
36, 69
43, 68
51, 71
41, 57
35, 68
33, 48
36, 32
26, 36
20, 32
23, 31
11, 27
13, 23
15, 17
15, 15
10, 17
8, 12
7, 10
1, 6
5, 4
3, 4
3, 3
6, 3
1, 5
4, 2
3, 5
1, 3
2, 1
2, 3
1, 3
3, 2
2, 5
2, 6
1, 1
6, 7
2, 2
3, 1
2, 3
2, 2
1, 5
2, 5
2, 7
9, 9
7, 11
8, 13
6, 17
10, 12
7, 19
9, 11
9, 13
4, 12
5, 12
6, 15
2, 25
3, 23
3, 22
2, 18
5, 16
3, 16
6, 5
2, 12
1, 9
5, 8
4, 11
4, 13
8, 10
5, 9
4, 9
4, 9
3, 7
3, 8
8, 3
3, 9
4, 5
7, 8
7, 7
9, 4
10, 5
14, 10
16, 13
11, 23
21, 15
18, 28
14, 32
19, 42
11, 44
13, 30
11, 29
8, 30
6, 28
14, 16
7, 16
7, 12
6, 12
3, 11
1, 14
3, 10
6, 8
7, 10
0, 5
4, 2
7, 2
8, 5
6, 4
4, 5
2, 3
6, 5
5, 11
4, 10
4, 8
2, 6
5, 5
5, 5
6, 4
11, 11
6, 16
8, 9
6, 6
8, 13
8, 15
6, 10
6, 10
8, 9
7, 9
7, 6
6, 7
8, 7
5, 11
4, 5
7, 9
9, 17
7, 17
9, 22
8, 27
22, 32
28, 46
37, 62
45, 87
48, 74
48, 70
46, 61
41, 45
31, 38
24, 37
20, 24
16, 19
22, 24
13, 13
16, 32
26, 28
51, 78
68, 108
134, 233
236, 401
389, 663
580, 1024
945, 1552
1301, 2050
1586, 2442
1855, 2770
1894, 2764
1890, 2623
1679, 2117
1365, 1680
1034, 1210
739, 834
486, 532
263, 286
131, 157
95, 92
48, 46
20, 34
17, 20
10, 14
10, 19
11, 20
9, 19
21, 37
24, 30
30, 45
47, 75
71, 91
86, 132
119, 182
177, 232
232, 332
247, 355
278, 420
269, 384
312, 335
229, 333
227, 210
141, 172
128, 117
67, 69
54, 49
29, 31
23, 17
15, 7
21, 9
20, 11
31, 9
38, 11
36, 14
30, 7
35, 14
27, 23
23, 17
17, 10
12, 10
10, 7
5, 3
7, 11
8, 8
3, 6
0, 4
5, 2
1, 7
3, 7
5, 6
7, 4
5, 4
2, 4
7, 4
11, 10
7, 7
7, 5
11, 8
4, 7
5, 4
4, 7
1, 13
3, 6
4, 6
2, 9
5, 3
4, 7
5, 11
2, 5
7, 6
6, 4
3, 6
1, 2
2, 9
5, 5
2, 4
3, 6
6, 4
1, 4
2, 4
4, 8
4, 6
3, 6
3, 4
4, 2
3, 8
3, 5
4, 4
3, 5
2, 5
5, 3
2, 1
3, 0
3, 4
1, 7
4, 5
3, 6
4, 3
1, 6
3, 5
3, 3
2, 5
1, 4
3, 6
0, 8
4, 18
0, 10
1, 16
7, 14
0, 29
4, 25
3, 23
4, 23
1, 19
7, 20
5, 14
2, 4
3, 3
0, 10
4, 8
3, 5
3, 3
2, 4
4, 4
4, 4
0, 3
1, 5
2, 2
4, 6
3, 3
1, 2
3, 2
4, 3
3, 2
3, 4
4, 5
2, 4
0, 4
3, 4
2, 5
5, 3
2, 4
2, 2
2, 0
4, 5
4, 6
4, 4
0, 0
4, 5
2, 13
5, 6
5, 2
7, 2
4, 2
4, 1
5, 2
2, 4
1, 3
1, 5
1, 2
5, 1
2, 6
0, 5
0, 6
2, 3
5, 5
2, 4
2, 5
3, 5
4, 5
3, 6
3, 8
3, 5
5, 7
0, 2
3, 4
3, 1
2, 2
8, 1
3, 5
2, 3
2, 4
3, 0
0, 2
5, 4
2, 6
0, 4
2, 6
0, 4
1, 1
2, 4
2, 3
3, 4
1, 2
3, 3
2, 2
1, 2
6, 4
2, 4
3, 5
6, 4
2, 6
5, 3
1, 7
3, 12
1, 5
2, 5
2, 1
2, 8
3, 6
1, 3
2, 4
1, 7
2, 3
0, 2
7, 1
0, 5
1, 2
2, 0
1, 1
1, 3
4, 3
5, 1
2, 2
2, 3
1, 4
3, 1
2, 1
2, 2
4, 3
0, 2
0, 4
0, 2
0, 2
2, 3
4, 0
1, 2
3, 3
2, 1
0, 2
0, 4
1, 4
3, 1
2, 1
2, 3
2, 4
7, 2
0, 1
4, 3
2, 1
1, 4
2, 4
3, 4
0, 4
0, 5
2, 3
0, 3
3, 6
3, 12
4, 8
3, 6
1, 4
2, 7
3, 5
0, 2
2, 1
2, 3
2, 1
2, 1
1, 1
3, 8
1, 0
1, 1
3, 1
1, 0
0, 2
1, 0
1, 2
0, 1
1, 0
0, 1
2, 2
0, 0
0, 0
2, 2
1, 1
0, 3
3, 5
1, 0
1, 1
3, 2
2, 2
2, 4
3, 1
2, 3
1, 1
1, 4
2, 1
1, 2
0, 1
3, 1
0, 0
1, 2
0, 2
2, 0
0, 2
0, 1
2, 2
0, 0
2, 1
1, 3
0, 3
3, 1
2, 1
1, 2
2, 3
1, 1
0, 0
0, 0
1, 5
0, 0
1, 1
2, 3
1, 1
1, 2
0, 3
0, 0
1, 0
2, 0
2, 0
2, 0
1, 1
1, 0
1, 0
1, 1
2, 0
0, 5
1, 0
0, 2
1, 0
1, 2
0, 1
0, 3
2, 0
0, 1
0, 1
0, 0
2, 0
1, 1
1, 0
2, 1
1, 0
2, 1
1, 1
0, 1
0, 1
0, 1
0, 0
2, 2
0, 0
2, 1
0, 3
0, 0
2, 2
0, 1
1, 0
0, 1
0, 2
1, 2
1, 0
2, 0
0, 0
0, 1
0, 0
0, 0
1, 0
0, 2
1, 2
1, 0
0, 0
0, 1
0, 0
0, 0
0, 0
1, 0
2, 0
0, 0
0, 0
1, 0
0, 0
0, 1
0, 0
2, 0
0, 2
0, 0
0, 0
0, 0
0, 1
0, 0
0, 0
0, 0
0, 0
0, 0
0, 1
2, 0
0, 0
0, 0
2, 2
1, 0
0, 1
1, 0
0, 0
1, 0
0, 2
1, 2
1, 0
0, 0
0, 0
0, 1
0, 0
1, 1
0, 0
0, 1
0, 0
1, 0
1, 2
1, 0
0, 1
0, 0
0, 0
0, 0
1, 0
1, 1
0, 0
0, 2
1, 0
1, 0
0, 0
0, 0
0, 1
0, 1
0, 0
1, 1
0, 1
0, 0
0, 0
0, 1
0, 0
2, 1
0, 0
0, 0
0, 1
0, 0
0, 0
0, 0
1, 0
0, 0
0, 0
0, 0
0, 2
1, 0
0, 0
0, 0
0, 0
0, 1
0, 1
1, 0
0, 0
0, 0
0, 0
0, 0
1, 2
0, 1
1, 0
0, 1
2, 0
0, 0
0, 0
0, 0
0, 0
1, 0
1, 0
1, 0
0, 0
0, 1
0, 1
0, 0
0, 0
0, 0
1, 1
0, 0
0, 0
1, 0
1, 0
1, 2
0, 1
1, 1
0, 0
0, 1
0, 0
0, 0
1, 1
0, 1
0, 0
1, 0
1, 0
0, 0
0, 2
0, 0
0, 0
0, 2
0, 0
0, 3
0, 0
0, 0
1, 0
0, 0
0, 0
0, 0
0, 0
0, 0
0, 0
0, 0
0, 0
0, 0
0, 0
0, 0
0, 0
0, 0
0, 0
0, 1
1, 0
0, 0
0, 0
0, 0
0, 0
1, 0
1, 1
2, 1
0, 0
0, 0
0, 0
1, 0
0, 0
0, 0
0, 1
2, 0
0, 0
0, 0
1, 0
0, 0
0, 0
0, 0
0, 0
0, 2
0, 0
0, 0
0, 0
1, 1
0, 0
0, 1
0, 0
1, 0
0, 1
0, 0
0, 0
0, 0
1, 0
0, 0
1, 0
0, 1
0, 0
0, 0
0, 0
0, 0
1, 0
0, 0
0, 0
0, 0
0, 0
0, 0
0, 0
0, 0
0, 0
0, 1
0, 0
0, 0
0, 0
0, 0
0, 0
0, 0
0, 0
0, 0
0, 0
0, 0
0, 0
0, 0
0, 1
0, 0
0, 0
0, 0
0, 0
0, 0
0, 0
0, 0
0, 0
1, 0
0, 0
0, 0
0, 0
0, 0
0, 0
0, 0
0, 1
0, 1
0, 0
0, 0
1, 0
0, 0
0, 0
0, 0
0, 0
0, 0
0, 0
0, 0
0, 0
0, 0
0, 0
0, 1
1, 0
0, 0
0, 0
0, 0
0, 0
0, 0
0, 0
0, 0
0, 0
0, 0
0, 0
0, 0
0, 0
0, 0
0, 0
0, 0
0, 0
0, 0
0, 0
0, 0
0, 0
0, 0
0, 0
0, 0
0, 0
0, 0
0, 0
0, 0
0, 0
0, 0
0, 0
0, 0
0, 0
0, 0
0, 0
0, 0
0, 0
0, 0
0, 0
0, 0
0, 0
0, 0
0, 0
0, 0
0, 0
0, 0
0, 0
0, 0
0, 0
0, 0
0, 0
0, 0
0, 0
0, 0
0, 0
0, 0
0, 0
0, 0
0, 0
0, 0
0, 0
0, 0
0, 0
0, 0
0, 0
0, 0
0, 0
0, 0
0, 0
0, 0
0, 0
0, 0
0, 0
0, 0
0, 0
0, 0
0, 0
0, 0
0, 0
0, 0
0, 0
0, 0
0, 1
0, 0
0, 0
0, 0
0, 0
0, 0
0, 0
0, 0
0, 0
0, 0
0, 0
0, 0
0, 0
0, 0
0, 0
0, 0
0, 0
0, 0
0, 0
0, 0
0, 0
0, 0
0, 0
0, 0
0, 0
0, 0
0, 0
0, 0
0, 0
0, 0
0, 0
0, 0
0, 0
0, 0
0, 0
0, 0
0, 0
0, 0
0, 0
0, 0
0, 0
0, 0
0, 0
0, 0
0, 0
0, 0
0, 0
0, 0
0, 0
0, 0
0, 0
0, 0
0, 0
0, 0
0, 0
0, 0
0, 0
0, 0
0, 0
0, 0
0, 0
0, 0
0, 0
0, 0
0, 0
0, 0
0, 0
0, 0
0, 0
0, 0
0, 0
0, 0
0, 0
0, 0
0, 0
0, 0
0, 0
0, 0
0, 0
0, 0
0, 0
0, 0
0, 0
0, 0
0, 0
0, 0
0, 0
0, 0
0, 0
0, 0
0, 0
0, 0
0, 0
0, 0
0, 0
0, 0
0, 0
0, 0
0, 0
0, 0
0, 0
0, 0
0, 0
0, 0
0, 0
0, 0
0, 0
0, 0
0, 0
0, 0
0, 0
0, 0
0, 0
0, 0
0, 0
0, 0
0, 0
0, 0
0, 0
0, 0
0, 0
0, 0
0, 0
0, 0
0, 0
0, 0
0, 0
0, 0
0, 0
0, 0
0, 0
0, 0
0, 0
0, 0
0, 0
0, 0
0, 0
0, 0
0, 0
0, 0
0, 0
0, 0
0, 0
0, 0
0, 0
0, 0
0, 0
0, 0
0, 0
0, 0
0, 0
0, 0
0, 0
0, 0
0, 0
0, 0
0, 0
0, 0
0, 0
0, 0
0, 0
0, 0
0, 0
0, 0
0, 0
0, 0
0, 0
0, 0
0, 0
0, 0
0, 0
0, 0
0, 0
0, 0
0, 0
0, 0
0, 0
0, 0
0, 0
0, 0
0, 0
0, 0
0, 0
0, 0
0, 0
0, 0
0, 0
0, 0
0, 0
0, 0
0, 0
0, 0
0, 0
0, 0
0, 0
0, 0
0, 0
0, 0
0, 0
0, 0
0, 0
0, 0
0, 0
0, 0
0, 0
0, 0
0, 0
0, 0
0, 0
0, 0
0, 0
0, 0
0, 0
0, 0
0, 0
0, 0
0, 0
0, 0
0, 0
0, 0
0, 0
0, 0
0, 0
0, 0
0, 0
0, 0
0, 0
0, 0
0, 0
0, 0
0, 0
0, 0
0, 0
0, 0
0, 0
0, 0
0, 0
0, 0
0, 0
0, 0
0, 0
0, 0
0, 0
0, 0
0, 0
0, 0
0, 0
0, 0
0, 0
0, 0
0, 0
0, 0
0, 0
0, 0
0, 0
0, 0
0, 0
0, 0
0, 0
0, 0
0, 0
0, 0
0, 0
0, 0
0, 0
0, 0
0, 0
0, 0
0, 0
0, 0
0, 0
0, 0
0, 0
0, 0
0, 0
0, 0
0, 0
0, 0
0, 0
0, 0
0, 0
0, 0
0, 0
0, 0
0, 0
0, 0
0, 0
0, 0
0, 0
0, 0
0, 0
0, 0
0, 0
0, 0
0, 0
0, 0
0, 0
0, 0
0, 0
0, 0
0, 0
0, 0
0, 0
0, 0
0, 0
0, 0
0, 0
0, 0
0, 0
0, 0
0, 0
0, 0
0, 0
0, 0
0, 0
0, 0
0, 0
0, 0
0, 0
0, 0
0, 0
0, 0
0, 0
0, 0
0, 0
0, 0
0, 0
0, 0
0, 0
0, 0
0, 0
0, 0
0, 0
0, 0
0, 0
0, 0
0, 0
0, 0
0, 0
0, 0
0, 0
0, 0
0, 0
0, 0
0, 0
0, 0
0, 0
0, 0
0, 0
0, 0
0, 0
0, 0
0, 0
0, 0
0, 0
0, 0
0, 0
0, 0
0, 0
0, 0
0, 0
0, 0
0, 0
0, 0
0, 0
0, 0
0, 0
0, 0
0, 0
0, 0
0, 0
0, 0
0, 0
#ENDOFDATA     end of spectrum data