File: host_upload/06-09-2024/ps_0852/dump3/ps__0852shot_2032.msa
#FORMAT      : EMSA/MAS spectral data file
#VERSION     : TC202v2.0 PIXL
#TITLE       : N/A
#DATE        :       Date in the format DD-MMM-YYYY, for example 07-JUL-2010
#TIME        :             The time of day at which the spectrum was recorded, in 24-hour format
#OWNER       : PIXL Flight Model       (PIXL will use this to indicate which instrument took the data.)
#NPOINTS     : 4096     Number of data points in the spectrum (This can be zero for configuration only files)
#NCOLUMNS    : 2     Number of data columns in the spectrum (This can be zero for configuration only files)
#XUNITS      : eV
#YUNITS      : COUNTS
#DATATYPE    : YY
#XPERCHAN    : 7.862, 7.881   eV per channel (separate by commas if more than one detector)
#OFFSET      : 18.5, -22.4         eV of first channel  (separate by commas if more than one detector
#SIGNALTYPE  : XRF
#YP_TEMP     : 2.171
#LIVETIME    : 8.58652, 8.5777   seconds (separate by commas if more than one detector)
#REALTIME    : 10, 10.0   seconds (separate by commas if more than one detector)
#SPECTRUM    : start of spectrum data
0, 0
0, 0
0, 0
0, 0
0, 0
0, 0
0, 0
0, 0
0, 0
0, 0
0, 0
0, 0
0, 0
0, 0
0, 0
0, 0
0, 0
0, 0
0, 0
0, 0
0, 0
0, 0
0, 0
0, 0
0, 0
0, 0
0, 0
0, 0
0, 0
0, 0
0, 0
1, 0
0, 0
0, 0
0, 0
0, 0
0, 2
2, 0
0, 1
3, 4
2, 0
1, 1
1, 1
2, 1
2, 2
0, 1
1, 1
6, 2
7, 6
17, 10
25, 28
47, 44
69, 47
71, 76
80, 65
83, 72
59, 64
50, 43
28, 24
14, 13
8, 8
3, 5
5, 3
2, 3
1, 3
1, 3
6, 6
12, 7
20, 24
60, 49
102, 81
185, 173
276, 268
344, 339
434, 362
424, 388
373, 355
300, 262
223, 168
125, 107
74, 64
46, 38
17, 23
9, 8
4, 5
2, 7
3, 5
2, 1
2, 0
0, 1
2, 1
2, 3
1, 0
3, 1
3, 3
2, 4
3, 7
8, 11
6, 8
8, 7
6, 6
5, 7
4, 6
2, 8
8, 1
7, 4
10, 4
15, 6
14, 10
28, 14
29, 24
22, 26
41, 36
37, 58
40, 42
48, 37
50, 39
41, 30
40, 30
75, 33
124, 19
145, 12
220, 18
242, 22
268, 16
232, 18
206, 13
147, 12
93, 10
69, 5
41, 7
17, 4
11, 3
5, 6
1, 0
5, 4
3, 0
6, 3
1, 3
0, 3
1, 1
1, 2
4, 0
4, 0
5, 5
6, 1
7, 1
5, 1
12, 0
6, 1
8, 2
6, 3
10, 2
10, 4
11, 9
9, 13
14, 6
22, 12
11, 11
11, 11
6, 3
7, 8
11, 6
5, 8
3, 1
3, 6
2, 1
1, 5
0, 2
4, 2
5, 6
4, 5
5, 5
4, 3
6, 5
8, 6
3, 2
4, 2
6, 1
6, 0
4, 3
16, 6
6, 2
10, 2
15, 2
14, 1
21, 5
17, 1
8, 3
18, 5
14, 7
14, 6
15, 11
9, 11
11, 13
14, 14
7, 16
11, 8
11, 20
11, 14
16, 9
11, 9
14, 8
8, 14
4, 5
6, 3
5, 3
12, 6
7, 6
11, 4
8, 3
15, 5
12, 8
15, 6
11, 10
19, 3
7, 7
6, 8
12, 4
6, 12
6, 7
10, 4
8, 5
7, 8
9, 11
5, 8
6, 17
11, 19
10, 14
11, 21
11, 24
15, 18
21, 17
12, 18
15, 17
14, 7
12, 8
16, 10
15, 4
20, 10
15, 4
25, 8
43, 11
43, 9
60, 11
82, 19
83, 24
102, 42
104, 52
103, 55
124, 61
83, 56
102, 55
69, 50
55, 40
37, 37
32, 18
18, 12
24, 17
24, 19
22, 17
33, 40
53, 66
91, 96
153, 187
287, 313
479, 598
785, 909
1159, 1231
1663, 1697
1902, 2073
2330, 2268
2511, 2334
2350, 2170
2140, 1939
1781, 1487
1417, 1101
949, 677
658, 458
371, 268
206, 145
113, 80
65, 48
36, 15
22, 18
15, 13
12, 13
13, 15
17, 21
22, 28
34, 32
46, 43
70, 50
100, 80
157, 124
180, 185
282, 232
326, 263
347, 329
389, 342
417, 349
378, 315
322, 278
266, 212
189, 187
141, 87
92, 83
50, 36
30, 27
25, 15
18, 10
9, 16
8, 14
16, 19
17, 17
16, 12
20, 12
15, 15
18, 16
14, 16
18, 16
12, 10
8, 10
3, 7
6, 5
4, 2
5, 4
3, 6
4, 7
2, 1
4, 11
1, 4
4, 3
3, 4
2, 5
3, 4
4, 1
7, 1
2, 2
1, 5
5, 6
7, 4
5, 3
5, 4
8, 5
4, 6
4, 7
5, 6
6, 5
5, 4
1, 8
3, 5
9, 7
5, 6
9, 4
2, 3
10, 4
4, 6
5, 2
5, 1
3, 2
4, 6
3, 6
5, 5
10, 4
8, 2
3, 4
5, 1
7, 4
5, 2
7, 6
7, 6
9, 7
4, 4
4, 9
5, 4
5, 6
4, 12
4, 5
4, 9
5, 8
3, 5
4, 2
4, 5
3, 3
3, 6
5, 5
2, 2
7, 1
3, 5
3, 3
4, 4
7, 4
4, 4
4, 2
2, 0
4, 4
5, 4
7, 2
9, 0
5, 8
11, 3
12, 3
7, 2
3, 1
6, 4
3, 4
0, 4
3, 1
2, 4
6, 3
5, 4
4, 2
2, 1
2, 2
4, 1
3, 1
5, 5
4, 4
0, 5
1, 4
4, 2
6, 4
4, 4
5, 6
4, 2
4, 8
3, 5
3, 4
6, 4
3, 3
5, 8
2, 6
5, 5
4, 8
2, 9
5, 6
3, 5
1, 5
4, 3
5, 5
1, 2
5, 3
5, 2
7, 3
4, 3
4, 3
3, 1
3, 1
2, 1
3, 5
1, 3
3, 1
2, 7
1, 4
3, 4
2, 3
5, 2
1, 3
2, 1
1, 2
2, 1
0, 2
1, 3
2, 2
2, 2
1, 1
2, 2
4, 2
1, 2
2, 3
2, 4
1, 1
2, 1
1, 0
2, 2
2, 4
2, 2
1, 1
0, 3
2, 1
5, 2
2, 2
2, 5
2, 0
2, 3
3, 3
10, 3
3, 2
5, 3
10, 2
6, 7
3, 3
7, 1
9, 2
5, 2
5, 1
4, 4
5, 4
2, 5
6, 6
3, 1
0, 3
2, 2
1, 2
2, 1
4, 2
2, 1
2, 3
3, 2
1, 1
2, 1
1, 3
5, 5
2, 4
3, 4
0, 1
0, 0
1, 1
1, 2
0, 0
2, 1
1, 2
1, 4
1, 1
2, 1
2, 1
3, 6
0, 1
1, 2
0, 3
2, 2
0, 2
1, 2
4, 2
3, 5
3, 4
7, 3
6, 3
7, 3
4, 2
7, 3
6, 3
5, 4
3, 5
4, 4
8, 3
4, 4
3, 4
7, 4
0, 1
2, 2
2, 2
2, 0
1, 2
3, 1
0, 1
2, 2
0, 1
1, 1
0, 1
5, 2
1, 2
3, 0
2, 0
2, 2
1, 6
1, 3
0, 1
2, 2
1, 1
1, 3
1, 2
2, 4
1, 0
0, 1
4, 0
2, 2
2, 2
2, 4
1, 2
1, 2
1, 2
0, 1
2, 0
0, 0
1, 4
1, 0
1, 0
0, 1
2, 2
1, 2
1, 2
2, 0
1, 0
2, 0
2, 1
3, 0
0, 0
2, 0
1, 0
0, 1
3, 2
2, 0
1, 0
2, 1
2, 0
0, 0
2, 0
1, 0
0, 1
1, 2
2, 0
2, 0
0, 1
0, 1
0, 1
1, 1
0, 1
1, 0
2, 0
0, 0
2, 1
1, 1
0, 0
1, 0
0, 1
0, 1
0, 0
1, 1
1, 1
2, 1
0, 1
4, 0
2, 1
1, 1
0, 1
0, 0
1, 2
1, 2
1, 0
1, 1
1, 1
1, 3
1, 0
1, 0
1, 2
0, 0
0, 0
2, 1
3, 0
1, 1
0, 1
0, 2
0, 2
1, 0
2, 0
0, 0
0, 1
0, 0
1, 2
0, 0
1, 1
0, 1
1, 1
0, 2
0, 0
0, 0
0, 1
2, 0
0, 0
1, 0
0, 0
2, 1
1, 1
0, 0
0, 1
1, 0
1, 0
0, 0
1, 1
2, 0
0, 0
1, 0
0, 1
0, 0
3, 1
1, 0
0, 0
0, 0
2, 0
2, 0
0, 1
0, 0
0, 2
1, 0
0, 1
0, 0
2, 0
0, 0
0, 0
1, 0
0, 0
0, 0
0, 0
0, 0
0, 0
0, 0
0, 0
1, 1
0, 1
0, 1
0, 2
0, 0
0, 0
2, 2
0, 0
2, 0
0, 0
0, 1
1, 0
0, 1
2, 1
0, 0
0, 0
0, 0
0, 0
0, 0
0, 0
0, 0
1, 0
0, 1
2, 0
0, 0
1, 0
0, 0
1, 0
0, 0
0, 0
0, 0
0, 0
1, 0
0, 0
0, 0
0, 0
0, 0
0, 0
0, 0
0, 0
0, 0
0, 0
0, 0
0, 0
0, 1
0, 0
0, 0
0, 0
1, 0
0, 1
1, 0
0, 0
0, 0
0, 0
1, 0
0, 0
0, 0
0, 0
0, 1
0, 0
1, 0
2, 0
1, 0
0, 1
0, 4
0, 1
0, 0
0, 0
1, 0
0, 1
0, 0
0, 1
0, 1
1, 0
1, 0
0, 1
0, 1
0, 0
0, 1
0, 1
2, 0
0, 0
0, 1
1, 1
1, 0
2, 0
1, 1
0, 1
0, 0
0, 1
0, 2
1, 0
0, 0
1, 0
1, 0
0, 0
0, 0
0, 1
2, 0
1, 0
0, 0
0, 0
0, 0
0, 0
0, 0
0, 0
0, 0
0, 0
0, 0
0, 0
0, 0
2, 0
0, 0
0, 1
0, 0
0, 1
0, 0
0, 1
0, 0
0, 0
0, 1
0, 0
0, 0
0, 0
1, 0
0, 0
0, 1
0, 0
0, 0
0, 1
1, 0
0, 0
0, 0
0, 1
0, 0
0, 0
0, 0
0, 0
0, 1
0, 0
0, 0
0, 0
0, 1
0, 1
1, 0
0, 0
0, 0
0, 0
0, 0
0, 0
0, 0
0, 0
0, 0
0, 0
0, 0
0, 0
0, 0
0, 0
0, 1
0, 0
0, 0
0, 0
0, 0
0, 0
0, 0
0, 0
0, 0
0, 0
0, 0
0, 1
0, 0
0, 0
0, 0
0, 0
0, 0
0, 0
0, 0
0, 0
0, 0
0, 0
0, 0
0, 0
2, 0
0, 0
0, 0
0, 0
1, 0
0, 0
0, 0
0, 0
0, 0
0, 0
0, 0
0, 0
0, 0
0, 0
0, 0
0, 0
0, 0
0, 0
0, 0
0, 0
0, 1
0, 0
0, 0
0, 0
0, 0
0, 0
1, 0
0, 0
0, 0
0, 1
0, 0
0, 0
0, 1
0, 0
0, 0
0, 0
0, 0
0, 0
0, 0
0, 0
0, 0
0, 0
0, 0
0, 0
0, 0
0, 0
0, 0
0, 0
0, 0
0, 0
0, 1
0, 1
0, 0
0, 0
0, 0
0, 0
0, 0
0, 0
0, 0
0, 0
0, 0
0, 0
0, 0
0, 1
0, 0
0, 0
0, 0
0, 0
0, 1
0, 0
0, 0
0, 0
0, 0
0, 0
0, 0
0, 0
0, 0
0, 0
0, 0
0, 0
0, 0
0, 0
0, 0
0, 0
0, 0
0, 0
0, 0
0, 0
0, 0
0, 0
0, 0
1, 0
0, 0
0, 0
0, 0
0, 0
0, 0
0, 1
0, 0
0, 0
0, 0
0, 0
0, 0
0, 0
0, 0
0, 0
0, 0
0, 0
0, 0
0, 0
0, 0
0, 0
0, 0
0, 0
0, 0
0, 0
0, 0
0, 0
0, 0
0, 0
0, 0
0, 0
0, 0
0, 0
0, 0
0, 0
0, 0
0, 0
0, 0
0, 0
0, 0
0, 0
0, 0
0, 0
0, 0
0, 0
0, 0
0, 0
0, 0
0, 0
0, 0
0, 0
0, 0
0, 0
0, 0
0, 0
0, 0
0, 0
0, 0
0, 0
0, 0
0, 0
0, 0
0, 0
0, 0
0, 0
0, 0
0, 0
0, 0
0, 0
0, 0
0, 0
0, 0
0, 0
0, 0
0, 0
0, 0
0, 0
0, 0
0, 0
0, 0
0, 0
0, 0
0, 0
0, 0
0, 0
0, 0
0, 0
0, 0
0, 0
0, 0
0, 0
0, 0
0, 0
0, 0
0, 0
0, 0
0, 0
0, 0
0, 0
0, 0
0, 0
0, 0
0, 0
0, 0
0, 0
0, 0
0, 0
0, 0
0, 0
0, 0
0, 0
0, 0
0, 0
0, 0
0, 0
0, 0
0, 0
0, 0
0, 0
0, 0
0, 0
0, 0
0, 0
0, 0
0, 0
0, 0
0, 0
0, 0
0, 0
0, 0
0, 0
0, 0
0, 0
0, 0
0, 0
0, 0
0, 0
0, 0
0, 0
0, 0
0, 0
0, 0
0, 0
0, 0
0, 0
0, 0
0, 0
0, 0
0, 0
0, 0
0, 0
0, 0
0, 0
0, 0
0, 0
0, 0
0, 0
0, 0
0, 0
0, 0
0, 0
0, 0
0, 0
0, 0
0, 0
0, 0
0, 0
0, 0
0, 0
0, 0
0, 0
0, 0
0, 0
0, 0
0, 0
0, 0
0, 0
0, 0
0, 0
0, 0
0, 0
0, 0
0, 0
0, 0
0, 0
0, 0
0, 0
0, 0
0, 0
0, 0
0, 0
0, 0
0, 0
0, 0
0, 0
0, 0
0, 0
0, 0
0, 0
0, 0
0, 0
0, 0
0, 0
0, 0
0, 0
0, 0
0, 0
0, 0
0, 0
0, 0
0, 0
0, 0
0, 0
0, 0
0, 0
0, 0
0, 0
0, 0
0, 0
0, 0
0, 0
0, 0
0, 0
0, 0
0, 0
0, 0
0, 0
0, 0
0, 0
0, 0
0, 0
0, 0
0, 0
0, 0
0, 0
0, 0
0, 0
0, 0
0, 0
0, 0
0, 0
0, 0
0, 0
0, 0
0, 0
0, 0
0, 0
0, 0
0, 0
0, 0
0, 0
0, 0
0, 0
0, 0
0, 0
0, 0
0, 0
0, 0
0, 0
0, 0
0, 0
0, 0
0, 0
0, 0
0, 0
0, 0
0, 0
0, 0
0, 0
0, 0
0, 0
0, 0
0, 0
0, 0
0, 0
0, 0
0, 0
0, 0
0, 0
0, 0
0, 0
0, 0
0, 0
0, 0
0, 0
0, 0
0, 0
0, 0
0, 0
0, 0
0, 0
0, 0
0, 0
0, 0
0, 0
0, 0
0, 0
0, 0
0, 0
0, 0
0, 0
0, 0
0, 0
0, 0
0, 0
0, 0
0, 0
0, 0
0, 0
0, 0
0, 0
0, 0
0, 0
0, 0
0, 0
0, 0
0, 0
0, 0
0, 0
0, 0
0, 0
0, 0
0, 0
0, 0
0, 0
0, 0
0, 0
0, 0
0, 0
0, 0
0, 0
0, 0
0, 0
0, 0
0, 0
0, 0
0, 0
0, 0
0, 0
0, 0
0, 0
0, 0
0, 0
0, 0
0, 0
0, 0
0, 0
0, 0
0, 0
0, 0
0, 0
0, 0
0, 0
0, 0
0, 0
0, 0
0, 0
0, 0
0, 0
0, 0
0, 0
0, 0
0, 0
0, 0
0, 0
0, 0
0, 0
0, 0
0, 0
0, 0
0, 0
0, 0
0, 0
0, 0
0, 0
0, 0
0, 0
0, 0
0, 0
0, 0
0, 0
0, 0
0, 0
0, 0
#ENDOFDATA     end of spectrum data