File: host_upload/06-09-2024/ps_0852/dump3/ps__0852shot_2374.msa
#FORMAT      : EMSA/MAS spectral data file
#VERSION     : TC202v2.0 PIXL
#TITLE       : N/A
#DATE        :       Date in the format DD-MMM-YYYY, for example 07-JUL-2010
#TIME        :             The time of day at which the spectrum was recorded, in 24-hour format
#OWNER       : PIXL Flight Model       (PIXL will use this to indicate which instrument took the data.)
#NPOINTS     : 4096     Number of data points in the spectrum (This can be zero for configuration only files)
#NCOLUMNS    : 2     Number of data columns in the spectrum (This can be zero for configuration only files)
#XUNITS      : eV
#YUNITS      : COUNTS
#DATATYPE    : YY
#XPERCHAN    : 7.862, 7.881   eV per channel (separate by commas if more than one detector)
#OFFSET      : 18.5, -22.4         eV of first channel  (separate by commas if more than one detector
#SIGNALTYPE  : XRF
#YP_TEMP     : 2.716
#LIVETIME    : 8.57772, 8.37371   seconds (separate by commas if more than one detector)
#REALTIME    : 10, 10.0   seconds (separate by commas if more than one detector)
#SPECTRUM    : start of spectrum data
0, 0
0, 0
0, 0
0, 0
0, 0
0, 0
0, 0
0, 0
0, 0
0, 0
0, 0
0, 0
0, 0
0, 0
0, 0
0, 0
0, 0
0, 0
0, 0
0, 0
0, 0
0, 0
0, 0
0, 0
0, 0
0, 0
0, 0
0, 0
0, 0
0, 0
0, 0
0, 0
0, 0
0, 0
0, 3
0, 0
0, 0
3, 0
1, 0
2, 2
2, 0
1, 2
1, 0
5, 0
3, 1
1, 1
5, 3
4, 0
7, 2
13, 8
18, 16
28, 27
67, 54
71, 65
69, 65
65, 57
68, 43
42, 28
30, 21
12, 11
8, 4
4, 6
4, 2
8, 3
6, 3
5, 1
7, 10
17, 9
19, 20
59, 37
104, 94
184, 180
307, 281
438, 350
497, 358
481, 393
442, 325
339, 285
261, 165
167, 110
82, 62
55, 34
20, 14
13, 11
8, 5
3, 0
3, 2
2, 4
0, 1
0, 1
4, 1
2, 1
2, 2
6, 4
5, 4
4, 5
9, 7
10, 12
14, 7
16, 10
10, 8
13, 7
15, 3
9, 3
8, 3
8, 2
8, 6
13, 8
19, 17
36, 28
37, 26
54, 38
62, 69
71, 54
83, 65
63, 62
56, 44
46, 40
37, 40
36, 34
35, 30
23, 19
27, 33
21, 18
11, 14
18, 21
17, 14
12, 12
15, 4
8, 6
5, 10
3, 5
7, 3
3, 3
2, 2
0, 2
1, 1
4, 5
2, 0
5, 1
2, 2
2, 2
6, 2
4, 0
6, 0
13, 3
10, 1
13, 3
14, 6
23, 5
22, 13
15, 18
28, 22
38, 42
75, 56
98, 71
123, 84
119, 97
116, 108
104, 84
87, 56
76, 43
37, 23
28, 16
16, 15
9, 12
10, 10
11, 9
13, 13
17, 13
16, 17
24, 15
20, 24
18, 12
12, 18
11, 16
7, 21
5, 24
6, 22
3, 15
5, 18
1, 17
2, 15
2, 5
3, 7
1, 6
5, 7
5, 5
5, 7
8, 9
14, 15
23, 13
13, 17
13, 15
20, 14
15, 8
19, 14
17, 20
21, 24
32, 18
24, 20
28, 14
40, 15
36, 9
42, 9
31, 5
21, 7
15, 4
22, 3
12, 6
9, 6
9, 4
13, 5
9, 8
10, 6
11, 8
5, 10
8, 0
5, 5
4, 6
2, 6
5, 5
12, 4
7, 7
11, 10
9, 14
14, 14
21, 19
32, 23
24, 17
26, 28
31, 33
30, 19
25, 22
23, 18
23, 18
12, 13
18, 11
20, 8
20, 11
21, 7
19, 6
10, 7
16, 6
20, 13
34, 19
28, 18
34, 30
64, 40
64, 63
76, 51
73, 63
71, 49
66, 50
40, 48
35, 28
33, 19
23, 26
23, 21
11, 18
20, 14
30, 24
57, 44
81, 82
181, 146
321, 294
500, 507
758, 794
1179, 1210
1563, 1571
2045, 1849
2421, 2027
2538, 2155
2432, 1938
2125, 1717
1715, 1260
1435, 950
957, 671
664, 416
379, 225
225, 135
115, 69
99, 47
47, 36
44, 26
34, 19
44, 18
39, 19
50, 20
51, 18
63, 28
78, 34
111, 51
121, 67
180, 112
218, 146
274, 192
348, 234
372, 310
362, 324
407, 307
400, 287
338, 248
295, 197
201, 150
121, 93
87, 57
54, 32
27, 14
17, 8
13, 9
12, 7
10, 8
9, 9
12, 6
13, 11
12, 13
23, 19
16, 19
18, 18
13, 7
22, 12
14, 16
13, 8
16, 8
8, 5
11, 2
11, 8
5, 4
3, 6
3, 1
3, 6
3, 3
5, 3
2, 9
4, 4
5, 4
3, 7
6, 3
9, 2
12, 5
8, 5
8, 8
11, 4
3, 4
5, 3
7, 7
6, 8
4, 8
7, 4
5, 11
7, 7
11, 5
3, 7
6, 5
5, 5
2, 6
5, 4
5, 2
4, 7
5, 7
2, 5
4, 4
4, 6
3, 4
2, 9
4, 6
5, 5
5, 5
4, 4
1, 7
8, 7
4, 5
4, 5
3, 8
3, 1
4, 6
6, 4
5, 1
5, 6
6, 5
5, 3
3, 5
7, 2
8, 3
2, 5
4, 3
3, 5
6, 5
3, 6
7, 2
4, 4
5, 5
9, 8
6, 11
8, 9
8, 10
8, 11
5, 5
4, 6
7, 11
5, 3
10, 6
4, 7
10, 2
2, 3
5, 2
9, 7
5, 1
7, 4
5, 6
5, 3
5, 2
11, 6
7, 1
6, 4
13, 3
10, 0
16, 2
18, 3
16, 2
9, 4
16, 6
6, 3
8, 3
13, 5
3, 5
4, 3
3, 4
4, 2
1, 1
5, 2
3, 1
0, 1
3, 1
3, 3
3, 4
3, 1
6, 7
3, 4
3, 1
5, 5
9, 2
2, 3
5, 3
4, 8
3, 3
1, 6
4, 3
4, 1
2, 1
2, 0
4, 3
4, 3
2, 3
3, 4
0, 4
2, 3
5, 3
3, 4
2, 0
1, 5
2, 0
3, 0
3, 1
2, 1
3, 2
3, 0
1, 2
2, 2
5, 1
3, 1
1, 0
3, 2
2, 3
5, 2
3, 4
3, 1
2, 4
0, 2
3, 2
3, 1
3, 3
5, 4
3, 0
2, 4
1, 5
1, 3
2, 0
2, 2
1, 1
5, 2
6, 3
4, 2
1, 2
0, 3
3, 4
1, 3
5, 2
1, 4
2, 2
2, 0
2, 3
3, 0
1, 2
4, 4
6, 5
4, 2
0, 3
1, 1
2, 1
4, 2
3, 1
1, 1
1, 1
2, 1
1, 2
3, 1
4, 1
2, 2
1, 0
7, 1
3, 3
2, 0
1, 0
2, 2
0, 3
7, 3
2, 2
2, 2
2, 4
1, 2
2, 1
3, 0
0, 4
2, 2
0, 2
1, 4
6, 1
2, 2
5, 2
6, 5
3, 1
4, 4
7, 1
5, 4
4, 3
2, 1
3, 2
2, 3
0, 1
3, 1
1, 2
4, 0
0, 0
2, 0
4, 1
1, 1
0, 0
1, 1
2, 4
1, 0
4, 0
2, 1
3, 4
0, 1
2, 1
1, 1
4, 3
3, 1
2, 1
1, 1
3, 3
3, 0
0, 1
0, 1
2, 1
3, 2
1, 4
2, 2
1, 3
0, 2
0, 1
1, 0
4, 1
1, 3
0, 2
2, 0
1, 2
2, 1
2, 0
0, 0
1, 1
1, 2
0, 0
1, 1
0, 0
5, 2
2, 1
2, 1
2, 2
2, 0
1, 0
4, 0
1, 1
2, 0
2, 2
3, 1
1, 4
2, 1
2, 1
4, 2
2, 1
1, 0
4, 0
1, 2
2, 1
0, 0
1, 0
2, 2
1, 1
0, 0
2, 1
0, 0
1, 3
0, 0
0, 0
0, 1
1, 1
1, 0
0, 0
1, 0
0, 0
0, 1
3, 0
1, 0
1, 0
0, 1
1, 1
1, 2
1, 1
1, 0
1, 0
2, 0
1, 0
1, 0
0, 1
1, 2
0, 0
2, 0
0, 1
0, 0
2, 0
0, 2
0, 1
0, 2
1, 2
0, 0
0, 0
0, 1
0, 1
0, 0
1, 0
0, 0
0, 0
0, 0
0, 1
0, 2
1, 2
0, 0
0, 0
0, 1
0, 0
1, 1
0, 0
0, 0
3, 1
0, 0
1, 1
1, 0
1, 2
0, 2
0, 0
0, 1
0, 0
1, 1
0, 0
1, 2
0, 0
0, 0
1, 0
1, 1
0, 1
2, 1
2, 0
0, 0
2, 0
0, 0
0, 0
0, 1
0, 0
0, 1
0, 0
0, 0
0, 0
0, 0
0, 0
0, 0
1, 2
0, 0
0, 1
0, 1
0, 0
0, 0
0, 0
0, 0
1, 2
0, 0
0, 0
0, 0
0, 0
1, 1
0, 0
0, 3
0, 0
1, 0
0, 0
1, 0
2, 0
0, 0
0, 0
2, 0
0, 0
1, 0
0, 0
0, 1
0, 1
0, 0
0, 0
0, 0
2, 0
0, 0
0, 0
1, 0
0, 0
0, 0
0, 1
0, 0
1, 0
0, 0
0, 0
0, 0
0, 0
0, 0
1, 0
0, 1
0, 0
0, 1
0, 0
0, 0
1, 0
0, 0
0, 0
0, 1
1, 0
0, 1
0, 0
1, 0
0, 0
1, 1
0, 0
0, 0
0, 0
0, 0
0, 0
1, 1
0, 0
0, 0
0, 0
0, 0
0, 1
1, 0
0, 0
0, 0
0, 0
0, 1
0, 0
0, 0
0, 0
1, 2
0, 0
0, 0
1, 0
0, 1
1, 0
1, 0
0, 0
0, 0
0, 0
1, 0
0, 0
0, 0
0, 0
0, 0
0, 0
1, 0
0, 0
0, 1
0, 1
1, 0
1, 0
0, 0
0, 0
0, 0
0, 0
2, 0
0, 0
0, 0
1, 0
0, 0
1, 0
0, 0
0, 0
1, 0
0, 0
0, 0
0, 0
0, 0
0, 0
1, 0
0, 0
0, 0
0, 0
1, 0
0, 0
0, 0
0, 0
0, 0
1, 0
0, 1
0, 1
0, 0
0, 0
0, 0
0, 0
0, 0
0, 0
0, 0
1, 0
0, 0
0, 0
0, 0
0, 2
0, 0
0, 0
0, 0
0, 0
0, 1
0, 0
0, 0
0, 0
0, 0
0, 0
0, 0
1, 0
0, 0
1, 1
0, 0
0, 0
0, 0
0, 1
0, 0
0, 0
0, 1
0, 0
0, 0
1, 0
0, 0
0, 0
0, 1
0, 0
0, 0
0, 0
0, 0
0, 0
0, 0
0, 0
0, 0
0, 0
0, 0
0, 0
0, 0
0, 0
0, 0
0, 0
0, 0
0, 0
0, 0
0, 0
0, 0
0, 0
0, 0
0, 0
0, 0
0, 0
0, 0
0, 0
0, 0
0, 0
0, 0
0, 0
0, 0
0, 0
0, 0
0, 0
0, 0
0, 0
0, 0
0, 0
0, 0
0, 0
0, 0
0, 0
0, 0
0, 0
0, 0
0, 0
0, 0
0, 0
1, 0
0, 0
0, 0
0, 0
0, 0
0, 0
0, 0
0, 0
0, 0
0, 0
0, 0
0, 0
0, 0
0, 1
0, 0
1, 0
0, 0
0, 0
0, 0
0, 0
0, 0
0, 0
0, 0
0, 0
0, 0
0, 0
0, 0
0, 0
0, 0
0, 0
0, 0
0, 0
0, 0
0, 0
0, 0
0, 0
0, 1
0, 0
0, 0
0, 0
0, 0
1, 0
0, 0
0, 0
0, 0
0, 0
0, 0
0, 0
0, 0
0, 0
0, 0
0, 0
0, 0
0, 0
0, 0
0, 0
0, 0
0, 0
0, 0
0, 0
0, 0
0, 0
0, 0
0, 0
0, 0
0, 0
0, 0
0, 0
0, 0
0, 0
0, 0
0, 0
0, 0
0, 0
0, 0
0, 0
0, 0
0, 0
0, 0
0, 0
0, 0
0, 0
0, 0
0, 0
0, 0
0, 0
0, 0
0, 0
0, 0
0, 0
0, 0
0, 0
0, 0
0, 0
0, 0
0, 0
0, 0
0, 0
0, 0
0, 0
0, 0
0, 0
0, 0
0, 0
0, 0
0, 0
0, 0
0, 0
0, 0
0, 0
0, 0
0, 0
0, 0
0, 0
0, 0
0, 0
0, 0
0, 0
0, 0
0, 0
0, 0
0, 0
0, 0
0, 0
0, 0
0, 0
0, 0
0, 0
0, 0
0, 0
0, 0
0, 0
0, 0
0, 0
0, 0
0, 0
0, 0
0, 0
1, 0
0, 1
0, 0
0, 0
0, 0
0, 0
0, 0
0, 0
0, 0
0, 0
0, 0
0, 0
0, 0
0, 0
0, 0
0, 0
0, 0
0, 0
0, 0
0, 0
0, 0
0, 0
0, 0
0, 0
0, 0
0, 0
0, 0
1, 0
0, 0
0, 0
0, 0
0, 0
0, 0
0, 0
0, 0
0, 0
0, 0
0, 0
0, 0
0, 0
0, 0
0, 0
0, 0
0, 0
0, 0
0, 0
0, 0
0, 0
0, 0
0, 0
0, 0
0, 0
0, 0
0, 0
0, 0
0, 0
0, 0
0, 0
0, 0
0, 0
0, 0
0, 0
0, 0
0, 0
0, 0
0, 0
0, 0
0, 0
0, 0
0, 0
0, 0
0, 0
0, 0
0, 0
0, 0
0, 0
0, 0
0, 0
0, 0
0, 0
0, 0
0, 0
0, 0
0, 0
0, 0
0, 0
0, 0
0, 0
0, 0
0, 0
0, 0
0, 0
0, 0
0, 0
0, 0
0, 0
0, 0
0, 0
0, 0
0, 0
0, 0
0, 0
0, 0
0, 0
0, 0
0, 0
0, 0
0, 0
0, 0
0, 0
0, 0
0, 0
0, 0
0, 0
0, 0
0, 0
0, 0
0, 0
0, 0
0, 0
0, 0
0, 0
0, 0
0, 0
0, 0
0, 0
0, 0
0, 0
0, 0
0, 0
0, 0
0, 0
0, 0
0, 0
0, 0
0, 0
0, 0
0, 0
0, 0
0, 0
0, 0
0, 0
0, 0
0, 0
0, 0
0, 0
0, 0
0, 0
0, 0
0, 0
0, 0
0, 0
0, 0
0, 0
0, 0
0, 0
0, 0
0, 0
0, 0
0, 0
0, 0
0, 0
0, 0
0, 0
0, 0
0, 0
0, 0
0, 0
0, 0
0, 0
0, 0
0, 0
0, 0
0, 0
0, 0
0, 0
0, 0
0, 0
0, 0
0, 0
0, 0
0, 0
0, 0
0, 0
0, 0
0, 0
0, 0
0, 0
0, 0
0, 0
0, 0
0, 0
0, 0
0, 0
0, 0
0, 0
0, 0
0, 0
0, 0
0, 0
0, 0
0, 0
0, 0
0, 0
0, 0
0, 0
0, 0
0, 0
0, 0
0, 0
0, 0
0, 0
0, 0
0, 0
0, 0
0, 0
0, 0
0, 0
0, 0
0, 0
0, 0
0, 0
0, 0
0, 0
0, 0
0, 0
0, 0
0, 0
0, 0
0, 0
0, 0
0, 0
0, 0
0, 0
0, 0
0, 0
0, 0
0, 0
0, 0
0, 0
0, 0
0, 0
0, 0
0, 0
0, 0
0, 0
0, 0
0, 0
0, 0
0, 0
0, 0
0, 0
0, 0
0, 0
0, 0
0, 0
0, 0
0, 0
0, 0
0, 0
0, 0
0, 0
0, 0
0, 0
0, 0
0, 0
0, 0
0, 0
0, 0
0, 0
0, 0
0, 0
0, 0
0, 0
0, 0
0, 0
0, 0
0, 0
0, 0
0, 0
0, 0
0, 0
0, 0
0, 0
0, 0
0, 0
0, 0
0, 0
0, 0
0, 0
0, 0
0, 0
0, 0
0, 0
0, 0
0, 0
0, 0
0, 0
0, 0
#ENDOFDATA     end of spectrum data