File: host_upload/06-09-2024/ps_0852/dump3/ps__0852shot_2260.msa
#FORMAT      : EMSA/MAS spectral data file
#VERSION     : TC202v2.0 PIXL
#TITLE       : N/A
#DATE        :       Date in the format DD-MMM-YYYY, for example 07-JUL-2010
#TIME        :             The time of day at which the spectrum was recorded, in 24-hour format
#OWNER       : PIXL Flight Model       (PIXL will use this to indicate which instrument took the data.)
#NPOINTS     : 4096     Number of data points in the spectrum (This can be zero for configuration only files)
#NCOLUMNS    : 2     Number of data columns in the spectrum (This can be zero for configuration only files)
#XUNITS      : eV
#YUNITS      : COUNTS
#DATATYPE    : YY
#XPERCHAN    : 7.862, 7.881   eV per channel (separate by commas if more than one detector)
#OFFSET      : 18.5, -22.4         eV of first channel  (separate by commas if more than one detector
#SIGNALTYPE  : XRF
#YP_TEMP     : 2.428
#LIVETIME    : 8.56374, 8.57289   seconds (separate by commas if more than one detector)
#REALTIME    : 10, 10.0   seconds (separate by commas if more than one detector)
#SPECTRUM    : start of spectrum data
0, 0
0, 0
0, 0
0, 0
0, 0
0, 0
0, 0
0, 0
0, 0
0, 0
0, 0
0, 0
0, 0
0, 0
0, 0
0, 0
0, 0
0, 0
0, 0
0, 0
0, 0
0, 0
0, 0
0, 0
0, 0
0, 0
0, 0
0, 0
0, 0
0, 0
0, 0
1, 0
0, 0
0, 0
0, 0
1, 0
0, 1
3, 1
2, 2
5, 2
13, 0
17, 1
16, 1
14, 0
8, 1
4, 2
7, 0
2, 4
7, 8
10, 9
16, 19
42, 51
60, 56
72, 63
94, 74
80, 91
62, 55
50, 44
31, 24
17, 14
9, 15
7, 5
2, 2
5, 1
3, 2
2, 5
5, 6
8, 9
22, 20
37, 51
82, 96
152, 155
245, 298
340, 365
395, 385
384, 418
338, 368
262, 292
190, 203
110, 118
64, 58
40, 24
10, 16
11, 10
6, 5
3, 3
2, 2
1, 1
4, 0
3, 1
2, 3
2, 0
0, 0
4, 1
3, 4
2, 4
5, 5
11, 7
4, 12
3, 9
3, 9
3, 2
4, 4
5, 3
7, 3
4, 0
6, 7
24, 6
58, 3
100, 10
180, 11
308, 18
467, 29
673, 29
854, 49
923, 54
919, 52
779, 46
593, 53
416, 58
276, 38
124, 36
112, 35
49, 19
22, 22
20, 18
14, 16
12, 9
7, 6
8, 5
3, 6
0, 5
1, 5
1, 1
3, 6
2, 3
1, 0
0, 2
0, 1
1, 1
0, 3
4, 2
3, 1
4, 3
2, 1
2, 2
0, 1
2, 3
1, 6
2, 3
4, 1
4, 6
6, 8
10, 8
11, 9
17, 11
16, 18
23, 18
27, 18
13, 12
15, 10
7, 16
6, 9
9, 5
2, 5
3, 6
2, 4
5, 6
2, 2
8, 3
16, 3
18, 8
25, 2
31, 5
39, 2
35, 7
41, 2
48, 5
47, 5
28, 3
31, 3
29, 1
16, 1
13, 5
14, 4
13, 3
11, 10
7, 8
15, 16
11, 23
11, 13
7, 18
7, 11
6, 19
13, 15
6, 20
15, 31
18, 27
12, 37
17, 61
13, 71
11, 87
10, 97
7, 90
8, 92
5, 83
8, 81
3, 73
5, 47
5, 28
6, 21
6, 15
6, 7
5, 7
11, 6
9, 4
4, 10
9, 11
9, 9
6, 4
6, 10
7, 10
7, 7
7, 5
8, 9
6, 3
17, 11
16, 20
17, 15
20, 32
24, 23
27, 23
25, 22
38, 24
35, 23
33, 30
34, 23
46, 16
37, 17
46, 7
35, 7
29, 5
14, 10
21, 7
13, 14
33, 18
26, 34
40, 41
52, 45
54, 64
70, 56
62, 63
65, 55
52, 45
37, 39
31, 31
20, 33
21, 30
18, 29
24, 45
29, 49
21, 81
44, 98
72, 135
158, 244
280, 353
464, 603
685, 948
1088, 1331
1454, 1739
1904, 2145
2171, 2356
2347, 2380
2325, 2139
1974, 1883
1631, 1485
1354, 1159
935, 738
537, 431
351, 238
201, 166
105, 83
44, 51
31, 29
36, 23
30, 12
47, 9
56, 17
78, 23
64, 13
109, 17
106, 39
128, 59
153, 77
159, 128
186, 182
215, 203
299, 292
353, 323
382, 331
329, 365
333, 332
322, 286
263, 206
172, 170
126, 108
88, 59
54, 47
41, 18
16, 16
11, 11
9, 6
3, 12
9, 10
8, 9
8, 18
10, 8
13, 17
9, 12
10, 19
10, 6
10, 6
8, 10
8, 7
2, 6
2, 8
6, 8
1, 5
2, 6
4, 5
3, 3
4, 5
6, 3
5, 3
7, 4
2, 5
1, 7
8, 10
2, 7
1, 6
8, 4
4, 2
8, 3
1, 2
13, 7
11, 4
28, 4
19, 5
36, 2
46, 7
52, 11
50, 7
49, 10
54, 4
47, 3
44, 3
36, 6
25, 7
24, 2
10, 7
14, 8
11, 8
4, 8
8, 7
3, 1
7, 3
6, 8
6, 5
4, 4
3, 2
2, 4
5, 7
5, 2
3, 3
3, 1
2, 4
6, 5
7, 1
2, 4
3, 2
8, 3
2, 2
6, 3
4, 2
7, 4
2, 1
9, 7
5, 3
7, 11
4, 1
5, 6
3, 10
2, 6
6, 9
3, 5
5, 5
1, 7
6, 6
4, 2
2, 7
2, 3
3, 5
2, 5
3, 3
3, 5
0, 9
4, 9
4, 7
4, 7
1, 5
5, 4
4, 3
3, 6
4, 5
2, 7
4, 3
1, 2
3, 4
2, 2
3, 2
1, 6
3, 7
4, 4
3, 5
3, 0
2, 3
1, 3
2, 1
5, 1
3, 6
3, 4
4, 4
3, 3
2, 9
3, 1
5, 5
2, 4
8, 4
5, 6
3, 2
2, 5
6, 3
4, 3
1, 3
3, 2
4, 2
3, 1
4, 0
2, 2
5, 1
3, 2
5, 2
2, 3
3, 3
1, 4
4, 3
3, 0
4, 5
2, 2
5, 7
7, 3
5, 7
5, 5
8, 3
6, 3
8, 4
7, 4
6, 3
7, 6
6, 7
8, 6
5, 1
2, 1
5, 1
4, 4
2, 4
3, 3
5, 5
3, 1
3, 5
1, 1
0, 1
2, 1
1, 3
4, 0
5, 4
3, 5
3, 2
0, 4
3, 3
1, 2
2, 2
1, 1
1, 0
3, 2
1, 2
1, 3
3, 2
3, 2
2, 1
5, 4
1, 3
1, 2
1, 1
0, 2
3, 1
2, 3
2, 4
3, 2
2, 1
1, 3
1, 2
0, 2
0, 2
0, 4
2, 4
2, 3
4, 2
1, 0
2, 4
2, 2
4, 2
1, 3
5, 3
5, 3
4, 1
5, 3
2, 3
1, 4
4, 1
4, 3
3, 3
5, 1
2, 3
8, 4
4, 0
1, 4
7, 4
5, 3
2, 3
6, 4
3, 6
4, 3
1, 3
3, 4
2, 2
3, 1
1, 6
3, 1
2, 9
2, 2
1, 2
0, 2
1, 6
0, 2
2, 2
0, 2
2, 2
1, 0
0, 1
3, 1
4, 2
2, 0
2, 0
3, 1
0, 2
1, 0
0, 3
2, 0
0, 4
2, 0
2, 0
3, 0
0, 2
3, 3
2, 2
0, 2
2, 2
3, 0
2, 2
1, 1
0, 4
2, 1
0, 1
0, 3
3, 1
4, 2
0, 2
1, 1
0, 0
0, 1
1, 0
3, 0
0, 0
0, 0
2, 2
0, 2
0, 2
2, 0
2, 0
1, 0
1, 1
0, 0
0, 2
0, 1
0, 0
1, 0
0, 1
1, 0
1, 0
2, 0
0, 2
0, 1
2, 1
2, 1
1, 2
0, 2
0, 0
1, 1
0, 0
0, 2
2, 0
2, 0
0, 0
1, 0
0, 1
0, 1
0, 1
0, 1
1, 0
0, 1
1, 0
0, 0
0, 0
0, 1
1, 1
1, 0
2, 0
1, 1
1, 0
1, 1
1, 2
2, 0
1, 0
0, 2
2, 1
1, 0
1, 0
0, 0
0, 0
0, 0
0, 3
0, 0
1, 1
0, 0
1, 0
2, 1
1, 1
0, 0
0, 0
0, 2
1, 0
2, 1
1, 0
0, 0
0, 0
0, 0
0, 0
0, 1
0, 0
1, 1
0, 1
1, 0
0, 1
0, 0
0, 1
2, 0
0, 0
0, 1
1, 0
0, 0
0, 1
0, 0
0, 0
1, 1
1, 0
0, 1
1, 1
1, 3
0, 0
0, 0
1, 0
0, 1
0, 0
0, 0
0, 0
0, 1
0, 0
0, 1
1, 1
2, 0
0, 0
1, 0
0, 0
1, 0
1, 1
0, 0
2, 0
1, 0
0, 1
0, 0
0, 0
0, 0
0, 0
0, 0
2, 0
0, 0
0, 1
0, 1
1, 0
0, 0
0, 1
0, 1
0, 0
1, 0
0, 0
0, 1
2, 0
0, 1
0, 0
0, 1
1, 1
0, 0
1, 0
0, 0
0, 1
0, 0
0, 0
0, 0
0, 0
0, 0
1, 0
0, 0
0, 0
0, 0
0, 0
0, 1
0, 1
0, 1
0, 1
0, 0
0, 0
0, 2
0, 0
0, 0
0, 1
0, 0
0, 0
0, 0
0, 0
0, 1
1, 0
0, 1
0, 0
0, 0
2, 1
0, 1
1, 0
1, 0
1, 0
0, 0
0, 0
0, 1
0, 0
1, 0
0, 0
0, 0
0, 1
0, 1
0, 0
1, 0
1, 0
1, 0
0, 0
0, 0
0, 0
1, 0
0, 0
0, 0
0, 0
0, 0
1, 0
0, 0
0, 1
0, 0
0, 0
0, 0
1, 0
0, 1
0, 0
0, 1
0, 1
1, 2
0, 0
0, 0
0, 0
1, 0
0, 0
0, 0
0, 0
0, 0
0, 1
0, 0
0, 0
0, 0
0, 0
0, 1
0, 0
1, 0
0, 0
0, 1
0, 0
0, 0
1, 0
0, 0
0, 0
1, 1
1, 0
0, 0
0, 0
0, 0
1, 0
0, 0
0, 0
0, 0
0, 0
0, 1
0, 0
0, 0
1, 0
0, 0
0, 0
0, 0
1, 0
0, 0
0, 1
0, 0
0, 0
0, 1
0, 0
0, 0
0, 0
0, 0
0, 0
0, 0
0, 0
0, 2
0, 0
1, 0
0, 0
0, 0
0, 0
0, 1
0, 0
0, 0
0, 0
0, 0
1, 0
1, 0
0, 0
0, 0
0, 0
0, 0
0, 0
0, 1
0, 0
0, 0
0, 0
0, 0
0, 0
0, 0
0, 0
0, 0
0, 0
0, 0
0, 0
0, 0
0, 0
0, 0
0, 0
0, 0
0, 0
0, 0
0, 1
0, 0
0, 0
0, 0
0, 0
0, 0
0, 0
0, 0
0, 0
0, 1
0, 0
0, 0
0, 0
0, 0
0, 0
0, 0
0, 0
0, 0
0, 0
0, 0
0, 0
0, 0
1, 0
0, 0
1, 0
0, 0
1, 0
0, 0
0, 0
0, 0
0, 0
0, 0
1, 0
0, 0
0, 0
0, 0
0, 0
0, 0
0, 0
0, 0
0, 0
0, 0
0, 0
0, 0
0, 0
0, 0
0, 0
0, 0
0, 0
0, 0
0, 0
0, 0
0, 1
0, 0
0, 0
0, 0
0, 0
0, 0
0, 0
0, 0
0, 1
0, 0
0, 0
1, 1
0, 1
0, 0
1, 0
0, 0
0, 0
0, 0
0, 0
0, 0
0, 0
0, 0
0, 0
0, 0
0, 0
0, 0
0, 0
0, 0
0, 0
0, 0
0, 0
0, 0
0, 0
0, 0
0, 0
0, 0
1, 0
0, 0
0, 0
0, 0
0, 0
0, 0
0, 0
0, 0
0, 0
0, 0
0, 0
0, 0
0, 0
1, 0
0, 0
0, 0
0, 0
0, 0
0, 0
0, 0
0, 0
0, 0
0, 0
0, 0
0, 0
0, 0
0, 0
0, 0
0, 0
0, 0
0, 0
0, 0
0, 0
0, 0
0, 0
0, 0
0, 0
0, 0
0, 0
0, 0
0, 0
0, 0
0, 0
0, 0
0, 0
0, 0
0, 0
0, 0
0, 0
0, 0
0, 0
0, 0
0, 0
0, 1
0, 0
0, 0
0, 0
0, 0
0, 0
0, 0
0, 0
0, 0
0, 0
0, 0
0, 0
0, 0
0, 0
0, 0
0, 0
0, 0
0, 0
0, 0
0, 0
0, 0
0, 0
0, 0
0, 0
0, 0
0, 0
0, 0
0, 0
0, 0
0, 0
0, 0
0, 0
0, 0
0, 0
0, 0
0, 0
0, 0
0, 0
0, 0
0, 0
0, 0
0, 0
0, 0
0, 0
0, 0
0, 0
0, 0
0, 0
0, 0
0, 0
0, 0
0, 0
0, 0
0, 0
1, 0
0, 0
0, 0
0, 0
0, 0
0, 0
0, 0
0, 0
0, 0
0, 0
0, 0
0, 0
0, 0
0, 0
0, 0
0, 0
0, 0
0, 0
0, 0
0, 0
0, 0
0, 0
0, 0
0, 0
0, 0
1, 0
0, 0
0, 0
0, 0
0, 0
0, 0
0, 0
0, 0
0, 0
0, 0
0, 0
0, 0
0, 0
0, 0
0, 0
0, 0
0, 0
0, 0
0, 0
0, 0
0, 0
0, 0
0, 0
0, 0
0, 0
0, 0
0, 0
0, 0
0, 0
0, 0
0, 0
0, 0
0, 0
0, 0
0, 0
0, 0
0, 0
0, 0
0, 0
0, 0
0, 0
0, 0
0, 0
0, 0
0, 0
0, 0
0, 0
0, 0
0, 0
0, 0
0, 0
0, 0
0, 0
0, 0
0, 0
0, 0
0, 0
0, 0
0, 0
0, 0
0, 0
0, 0
0, 0
0, 0
0, 0
0, 0
0, 0
0, 0
0, 0
0, 0
0, 0
0, 0
0, 0
0, 0
0, 0
0, 0
0, 0
0, 0
0, 0
0, 0
0, 0
0, 0
0, 0
0, 0
0, 0
0, 0
0, 0
0, 0
0, 0
0, 0
0, 0
0, 0
0, 0
0, 0
0, 0
0, 0
0, 0
0, 0
0, 0
0, 0
0, 0
0, 0
0, 0
0, 0
0, 0
0, 0
0, 0
0, 0
0, 0
0, 0
0, 0
0, 0
0, 0
0, 0
0, 0
0, 0
0, 0
0, 0
0, 0
0, 0
0, 0
0, 0
0, 0
0, 0
0, 0
0, 0
0, 0
0, 0
0, 0
0, 0
0, 0
0, 0
0, 0
0, 0
0, 0
0, 0
0, 0
0, 0
0, 0
0, 0
0, 0
0, 0
0, 0
0, 0
0, 0
0, 0
0, 0
0, 0
0, 0
0, 0
0, 0
0, 0
0, 0
0, 0
0, 0
0, 0
0, 0
0, 0
0, 0
0, 0
0, 0
0, 0
0, 0
0, 0
0, 0
0, 0
0, 0
0, 0
0, 0
0, 0
0, 0
0, 0
0, 0
0, 0
0, 0
0, 0
0, 0
0, 0
0, 0
0, 0
0, 0
0, 0
0, 0
0, 0
0, 0
0, 0
0, 0
0, 0
0, 0
0, 0
0, 0
0, 0
0, 0
0, 0
0, 0
0, 0
0, 0
0, 0
0, 0
0, 0
0, 0
0, 0
0, 0
0, 0
0, 0
0, 0
0, 0
0, 0
0, 0
0, 0
0, 0
0, 0
0, 0
0, 0
0, 0
0, 0
0, 0
0, 0
0, 0
0, 0
0, 0
0, 0
0, 0
0, 0
0, 0
0, 0
0, 0
0, 0
0, 0
0, 0
0, 0
0, 0
0, 0
0, 0
0, 0
0, 0
0, 0
0, 0
0, 0
0, 0
0, 0
0, 0
0, 0
0, 0
0, 0
0, 0
0, 0
0, 0
0, 0
0, 0
0, 0
0, 0
0, 0
#ENDOFDATA     end of spectrum data