File: host_upload/06-09-2024/ps_0852/dump3/ps__0852shot_2200.msa
#FORMAT      : EMSA/MAS spectral data file
#VERSION     : TC202v2.0 PIXL
#TITLE       : N/A
#DATE        :       Date in the format DD-MMM-YYYY, for example 07-JUL-2010
#TIME        :             The time of day at which the spectrum was recorded, in 24-hour format
#OWNER       : PIXL Flight Model       (PIXL will use this to indicate which instrument took the data.)
#NPOINTS     : 4096     Number of data points in the spectrum (This can be zero for configuration only files)
#NCOLUMNS    : 2     Number of data columns in the spectrum (This can be zero for configuration only files)
#XUNITS      : eV
#YUNITS      : COUNTS
#DATATYPE    : YY
#XPERCHAN    : 7.862, 7.881   eV per channel (separate by commas if more than one detector)
#OFFSET      : 18.5, -22.4         eV of first channel  (separate by commas if more than one detector
#SIGNALTYPE  : XRF
#YP_TEMP     : 2.364
#LIVETIME    : 8.57127, 8.56392   seconds (separate by commas if more than one detector)
#REALTIME    : 10, 10.0   seconds (separate by commas if more than one detector)
#SPECTRUM    : start of spectrum data
0, 0
0, 0
0, 0
0, 0
0, 0
0, 0
0, 0
0, 0
0, 0
0, 0
0, 0
0, 0
0, 0
0, 0
0, 0
0, 0
0, 0
0, 0
0, 0
0, 0
0, 0
0, 0
0, 0
0, 0
0, 0
0, 0
0, 0
0, 0
0, 0
0, 0
0, 1
0, 0
0, 0
0, 0
1, 0
1, 0
0, 1
1, 0
1, 0
1, 0
1, 1
0, 1
2, 1
2, 1
2, 1
1, 1
1, 1
4, 4
8, 4
9, 11
32, 30
36, 40
59, 41
78, 65
90, 62
81, 85
71, 52
44, 43
31, 21
24, 14
8, 7
8, 5
0, 1
9, 5
4, 1
4, 2
7, 7
11, 9
34, 19
45, 45
78, 105
188, 158
267, 302
382, 346
404, 400
445, 426
398, 340
330, 288
216, 213
141, 119
70, 60
39, 24
14, 24
10, 4
2, 2
1, 5
1, 0
2, 1
1, 0
1, 1
2, 1
0, 0
2, 1
3, 2
0, 1
4, 2
2, 3
1, 2
6, 0
3, 2
1, 3
5, 6
2, 2
3, 2
2, 3
3, 3
4, 4
5, 9
9, 10
7, 11
13, 17
12, 17
25, 29
32, 30
44, 26
36, 31
39, 26
34, 19
23, 17
23, 22
26, 8
31, 14
17, 10
13, 12
8, 19
13, 13
4, 15
9, 14
11, 4
8, 4
2, 2
4, 1
3, 2
4, 3
4, 1
8, 1
4, 5
0, 2
0, 4
3, 1
1, 4
1, 5
5, 2
6, 1
7, 3
7, 2
11, 0
22, 3
16, 2
13, 2
16, 2
7, 1
7, 5
16, 8
17, 13
20, 8
13, 15
15, 13
18, 14
20, 14
16, 15
11, 9
8, 6
5, 8
6, 2
2, 3
5, 2
2, 8
3, 8
4, 5
5, 8
6, 8
5, 4
2, 4
5, 2
4, 2
3, 4
3, 3
2, 1
0, 2
5, 5
3, 5
5, 8
7, 2
1, 6
3, 5
2, 13
2, 16
10, 20
10, 33
12, 32
9, 31
14, 30
10, 19
12, 24
13, 16
16, 9
15, 22
15, 14
13, 13
18, 16
7, 13
4, 8
8, 8
6, 3
5, 11
3, 3
6, 3
2, 4
6, 8
3, 3
3, 3
5, 5
10, 5
4, 10
8, 4
3, 4
2, 8
3, 7
5, 11
5, 4
6, 10
2, 12
4, 13
5, 9
4, 7
13, 13
14, 12
8, 15
11, 15
16, 8
25, 10
14, 10
22, 6
11, 11
8, 5
9, 6
8, 9
6, 9
17, 7
6, 12
13, 5
13, 14
17, 17
13, 13
20, 30
28, 38
35, 35
46, 55
52, 55
61, 65
62, 54
82, 48
74, 43
52, 34
46, 37
33, 21
24, 25
29, 13
18, 15
22, 19
29, 38
35, 65
90, 109
169, 211
302, 399
470, 614
799, 898
1182, 1320
1572, 1783
1995, 2170
2361, 2424
2476, 2413
2474, 2305
2131, 2009
1776, 1570
1399, 1132
964, 773
656, 462
359, 292
213, 140
138, 89
54, 42
31, 27
18, 13
15, 12
14, 8
12, 12
11, 25
22, 29
26, 34
40, 44
46, 63
79, 101
112, 127
151, 171
185, 250
247, 302
308, 334
373, 291
364, 380
327, 342
318, 276
262, 224
192, 159
144, 120
84, 69
46, 42
25, 32
23, 14
7, 10
9, 8
7, 7
6, 8
13, 11
9, 12
14, 12
11, 19
14, 12
16, 12
9, 8
14, 7
15, 6
9, 6
9, 5
10, 4
7, 4
6, 2
7, 6
4, 3
5, 6
2, 2
3, 3
4, 3
7, 2
4, 2
6, 1
5, 1
5, 3
5, 3
4, 3
5, 6
2, 1
5, 14
5, 10
3, 8
6, 12
2, 18
5, 9
4, 5
4, 11
5, 10
4, 3
5, 4
4, 5
8, 5
8, 7
4, 2
4, 8
4, 6
2, 13
3, 10
5, 8
3, 5
1, 3
6, 3
6, 3
1, 6
6, 7
8, 5
4, 8
2, 9
5, 3
6, 3
5, 8
5, 2
7, 10
12, 7
7, 4
12, 3
15, 4
11, 6
14, 1
13, 4
17, 4
17, 3
14, 5
11, 1
9, 3
11, 4
9, 6
4, 9
4, 4
3, 3
5, 3
5, 6
9, 4
5, 4
3, 2
5, 4
7, 3
6, 2
3, 5
4, 3
7, 8
5, 2
11, 8
4, 3
7, 1
4, 2
2, 4
3, 4
1, 0
4, 0
3, 2
4, 0
5, 2
3, 3
7, 3
4, 3
2, 3
8, 3
3, 2
1, 2
7, 2
4, 3
3, 3
4, 6
2, 5
7, 4
3, 2
7, 1
3, 4
3, 5
2, 5
5, 4
5, 3
6, 5
4, 2
3, 1
6, 5
3, 7
5, 4
1, 4
1, 3
3, 3
0, 3
2, 2
3, 2
6, 3
5, 1
2, 5
4, 0
4, 2
5, 1
1, 0
3, 4
3, 5
2, 4
7, 4
3, 2
3, 4
8, 3
6, 0
3, 2
2, 3
5, 5
5, 1
4, 2
3, 2
3, 1
2, 4
3, 2
6, 5
1, 3
6, 1
3, 3
3, 2
2, 2
3, 4
2, 3
2, 2
3, 3
5, 3
3, 2
2, 7
2, 3
2, 1
0, 3
3, 2
2, 2
4, 1
0, 0
1, 2
1, 3
2, 2
0, 2
4, 2
4, 2
1, 0
1, 0
0, 3
3, 0
2, 2
4, 3
2, 2
1, 5
3, 1
1, 4
3, 0
3, 0
2, 4
1, 0
1, 3
2, 1
1, 0
5, 1
2, 2
2, 2
3, 1
0, 4
5, 0
1, 0
2, 1
3, 3
3, 1
3, 2
2, 3
1, 5
2, 2
3, 1
2, 1
4, 5
3, 2
3, 1
2, 2
1, 1
3, 4
5, 13
2, 3
4, 8
5, 7
3, 5
5, 4
3, 2
8, 2
4, 2
3, 1
2, 2
7, 1
3, 1
4, 2
3, 5
3, 0
3, 0
1, 2
4, 3
2, 1
3, 1
4, 2
1, 3
0, 1
3, 1
2, 2
1, 3
3, 4
0, 2
3, 1
1, 0
2, 2
1, 1
2, 2
5, 2
0, 1
2, 2
1, 1
2, 2
3, 1
0, 2
0, 1
1, 1
2, 0
0, 3
0, 3
0, 0
2, 0
4, 1
2, 1
2, 1
2, 1
1, 1
1, 3
2, 5
1, 1
0, 0
0, 1
0, 2
0, 0
1, 0
1, 1
2, 2
0, 0
1, 1
1, 1
2, 0
1, 2
1, 0
2, 0
0, 1
0, 0
2, 1
2, 2
1, 2
0, 1
0, 1
0, 1
2, 1
0, 3
3, 1
0, 0
1, 2
1, 0
1, 0
2, 0
0, 1
0, 0
1, 0
0, 0
0, 0
4, 0
0, 0
0, 1
2, 0
1, 0
1, 1
0, 1
0, 0
2, 0
0, 0
0, 0
2, 0
1, 0
1, 0
1, 1
0, 0
1, 2
1, 0
0, 1
0, 0
1, 0
1, 0
0, 0
1, 0
3, 2
0, 1
0, 0
1, 1
0, 2
0, 1
0, 1
1, 0
1, 0
0, 1
0, 1
0, 0
1, 1
1, 1
0, 0
0, 1
1, 0
0, 0
0, 0
1, 0
0, 3
0, 2
0, 0
1, 1
0, 0
0, 1
0, 1
1, 0
0, 0
1, 2
0, 0
1, 2
0, 1
0, 0
0, 0
0, 2
0, 0
1, 0
2, 0
2, 0
1, 0
0, 2
0, 0
2, 0
0, 1
0, 0
1, 0
0, 0
1, 0
0, 1
1, 1
0, 0
0, 0
0, 1
3, 0
0, 1
0, 1
0, 0
0, 0
0, 2
1, 0
0, 1
0, 0
1, 0
0, 0
1, 0
0, 3
0, 0
0, 0
1, 2
0, 0
0, 0
0, 0
0, 1
0, 0
1, 1
1, 0
0, 0
1, 2
1, 0
1, 1
0, 1
0, 0
0, 1
0, 0
0, 0
1, 0
0, 1
1, 0
0, 0
1, 0
2, 0
0, 0
0, 0
0, 0
0, 0
0, 0
0, 0
1, 0
0, 0
0, 0
0, 0
0, 0
0, 0
2, 0
0, 0
0, 0
2, 0
1, 0
0, 0
0, 0
0, 0
0, 1
1, 0
1, 0
0, 0
0, 0
0, 0
0, 0
0, 0
1, 0
0, 0
1, 1
0, 0
0, 0
0, 1
1, 0
0, 0
0, 0
0, 1
0, 0
0, 0
1, 0
1, 1
0, 0
0, 0
1, 0
0, 0
1, 0
0, 1
0, 1
0, 0
0, 0
0, 0
0, 0
0, 0
0, 0
0, 0
0, 0
0, 0
0, 0
1, 0
0, 0
1, 0
0, 0
0, 0
1, 0
0, 0
1, 0
2, 0
0, 1
1, 0
0, 2
0, 0
0, 1
0, 0
0, 1
0, 0
0, 0
0, 1
0, 0
0, 0
0, 1
0, 1
1, 0
0, 0
1, 0
0, 0
0, 1
1, 0
0, 0
1, 0
0, 0
0, 0
0, 0
0, 0
0, 0
1, 0
0, 0
0, 0
0, 0
0, 0
0, 0
0, 0
0, 0
1, 0
1, 0
0, 0
0, 0
0, 1
0, 0
1, 0
1, 1
0, 1
0, 0
0, 1
0, 0
1, 0
0, 0
0, 0
0, 0
0, 0
0, 0
0, 0
0, 0
0, 0
0, 0
0, 0
0, 0
0, 0
0, 0
0, 0
1, 0
0, 0
0, 0
0, 1
0, 0
0, 0
0, 0
0, 0
0, 0
0, 0
0, 0
1, 0
0, 0
1, 0
0, 1
0, 0
0, 0
0, 0
0, 0
0, 0
0, 0
1, 0
1, 0
0, 0
1, 1
0, 0
0, 0
0, 0
0, 0
0, 0
0, 0
0, 0
0, 0
0, 0
0, 0
0, 0
0, 0
0, 0
0, 0
0, 0
0, 0
0, 0
0, 0
0, 0
0, 0
1, 0
0, 0
0, 1
0, 0
0, 0
0, 0
0, 0
0, 0
0, 0
0, 0
0, 0
0, 0
0, 0
0, 0
0, 0
0, 0
0, 0
0, 0
0, 0
0, 0
0, 0
0, 0
0, 0
0, 0
0, 0
0, 0
0, 0
0, 1
0, 0
0, 0
0, 0
0, 0
0, 0
0, 0
0, 0
0, 0
0, 0
0, 0
0, 0
0, 0
0, 0
0, 0
0, 0
0, 0
0, 0
0, 0
0, 0
0, 0
0, 0
0, 0
0, 0
0, 0
0, 0
0, 0
0, 0
0, 1
0, 0
0, 0
0, 0
0, 0
0, 0
0, 0
0, 0
0, 0
0, 0
0, 0
0, 0
0, 0
0, 0
0, 0
0, 0
0, 0
0, 0
0, 0
0, 0
0, 0
0, 0
0, 0
0, 0
0, 0
0, 0
0, 0
0, 0
0, 0
0, 0
0, 0
0, 0
0, 0
0, 0
0, 0
0, 0
0, 0
0, 0
0, 0
0, 0
0, 0
0, 0
0, 0
0, 0
0, 0
0, 0
0, 0
0, 0
0, 0
0, 0
0, 0
0, 0
0, 0
0, 0
0, 0
0, 0
0, 0
0, 0
0, 0
0, 0
0, 0
0, 0
0, 0
0, 0
0, 0
0, 0
0, 0
0, 0
0, 0
0, 0
0, 0
0, 0
0, 0
0, 0
0, 0
0, 0
0, 0
0, 0
0, 0
0, 0
0, 0
0, 0
0, 0
0, 0
0, 0
0, 0
0, 0
0, 0
0, 0
0, 0
0, 0
0, 0
0, 0
0, 0
0, 0
0, 0
0, 0
0, 0
0, 0
0, 0
0, 0
0, 0
0, 0
1, 0
0, 0
0, 0
0, 0
0, 0
0, 0
0, 0
0, 0
0, 0
0, 0
0, 0
0, 0
0, 0
0, 0
0, 0
0, 0
0, 0
0, 0
0, 0
0, 0
0, 0
0, 0
0, 0
0, 0
0, 0
0, 0
0, 0
0, 0
0, 0
0, 0
0, 0
0, 0
0, 0
0, 0
0, 0
0, 0
0, 0
0, 0
0, 0
0, 0
0, 0
0, 0
0, 0
0, 0
0, 0
0, 0
0, 0
0, 0
0, 0
0, 0
0, 0
0, 0
0, 0
0, 0
0, 0
0, 0
0, 0
0, 0
0, 0
0, 0
0, 0
0, 0
0, 0
0, 0
0, 0
0, 0
0, 0
0, 0
0, 0
0, 0
0, 0
0, 0
0, 0
0, 0
0, 0
0, 0
0, 0
0, 0
0, 0
0, 0
0, 0
0, 0
0, 0
0, 0
0, 0
0, 0
0, 0
0, 0
0, 0
0, 0
0, 0
0, 0
0, 0
0, 0
0, 0
0, 0
0, 0
0, 0
0, 0
0, 0
0, 0
0, 0
0, 0
0, 0
0, 0
0, 0
0, 0
0, 0
0, 0
0, 0
0, 0
0, 0
0, 0
0, 0
0, 0
0, 0
0, 0
0, 0
0, 0
0, 0
0, 0
0, 0
0, 0
0, 0
0, 0
0, 0
0, 0
0, 0
0, 0
0, 0
0, 0
0, 0
0, 0
0, 0
0, 0
0, 0
0, 0
0, 0
0, 0
0, 0
0, 0
0, 0
0, 0
0, 0
0, 0
0, 0
0, 0
0, 0
0, 0
0, 0
0, 0
0, 0
0, 0
0, 0
0, 0
0, 0
0, 0
0, 0
0, 0
0, 0
0, 0
0, 0
0, 0
0, 0
0, 0
0, 0
0, 0
0, 0
0, 0
0, 0
0, 0
0, 0
0, 0
0, 0
0, 0
0, 0
0, 0
0, 0
0, 0
0, 0
0, 0
0, 0
0, 0
0, 0
0, 0
0, 0
0, 0
0, 0
0, 0
0, 0
0, 0
0, 0
0, 0
0, 0
0, 0
0, 0
0, 0
0, 0
0, 0
0, 0
0, 0
0, 0
0, 0
0, 0
0, 0
0, 0
0, 0
0, 0
0, 0
0, 0
0, 0
0, 0
0, 0
0, 0
0, 0
0, 0
0, 0
0, 0
0, 0
0, 0
0, 0
0, 0
0, 0
0, 0
0, 0
0, 0
0, 0
0, 0
0, 0
0, 0
0, 0
0, 0
0, 0
0, 0
0, 0
0, 0
0, 0
0, 0
0, 0
0, 0
0, 0
0, 0
0, 0
0, 0
0, 0
0, 0
0, 0
0, 0
0, 0
0, 0
0, 0
0, 0
0, 0
0, 0
0, 0
0, 0
0, 0
0, 0
0, 0
0, 0
0, 0
0, 0
0, 0
0, 0
0, 0
0, 0
0, 0
0, 0
0, 0
0, 0
0, 0
0, 0
0, 0
0, 0
0, 0
0, 0
0, 0
0, 0
0, 0
0, 0
0, 0
0, 0
0, 0
0, 0
0, 0
0, 0
0, 0
0, 0
#ENDOFDATA     end of spectrum data