File: host_upload/06-09-2024/ps_0852/dump3/ps__0852shot_2134.msa
#FORMAT      : EMSA/MAS spectral data file
#VERSION     : TC202v2.0 PIXL
#TITLE       : N/A
#DATE        :       Date in the format DD-MMM-YYYY, for example 07-JUL-2010
#TIME        :             The time of day at which the spectrum was recorded, in 24-hour format
#OWNER       : PIXL Flight Model       (PIXL will use this to indicate which instrument took the data.)
#NPOINTS     : 4096     Number of data points in the spectrum (This can be zero for configuration only files)
#NCOLUMNS    : 2     Number of data columns in the spectrum (This can be zero for configuration only files)
#XUNITS      : eV
#YUNITS      : COUNTS
#DATATYPE    : YY
#XPERCHAN    : 7.862, 7.881   eV per channel (separate by commas if more than one detector)
#OFFSET      : 18.5, -22.4         eV of first channel  (separate by commas if more than one detector
#SIGNALTYPE  : XRF
#YP_TEMP     : 2.588
#LIVETIME    : 8.55951, 8.55712   seconds (separate by commas if more than one detector)
#REALTIME    : 10, 10.0   seconds (separate by commas if more than one detector)
#SPECTRUM    : start of spectrum data
0, 0
0, 0
0, 0
0, 0
0, 0
0, 0
0, 0
0, 0
0, 0
0, 0
0, 0
0, 0
0, 0
0, 0
0, 0
0, 0
0, 0
0, 0
0, 0
0, 0
0, 0
0, 0
0, 0
0, 0
0, 0
0, 0
0, 0
0, 0
0, 0
0, 0
1, 0
0, 0
0, 0
0, 0
0, 0
0, 0
0, 1
1, 1
0, 0
2, 0
3, 2
6, 1
1, 1
3, 2
2, 2
3, 0
6, 2
12, 3
11, 12
12, 13
33, 20
45, 43
65, 51
84, 83
83, 79
79, 58
80, 48
48, 34
26, 27
20, 14
14, 9
2, 5
4, 1
3, 2
0, 1
5, 6
7, 8
11, 8
18, 29
51, 59
85, 84
160, 163
300, 256
328, 348
409, 400
435, 431
376, 346
275, 287
234, 184
104, 120
80, 70
43, 36
10, 16
10, 8
7, 6
10, 2
4, 3
1, 3
2, 1
0, 2
1, 0
1, 2
1, 4
1, 3
4, 2
2, 2
7, 2
7, 2
1, 9
5, 5
2, 7
5, 4
4, 7
4, 8
5, 3
6, 3
9, 6
9, 7
23, 12
27, 16
56, 20
103, 33
126, 36
167, 45
211, 48
225, 60
206, 54
174, 44
145, 42
103, 32
95, 29
104, 25
71, 16
107, 22
86, 27
77, 11
83, 21
58, 8
43, 5
22, 6
15, 4
8, 3
8, 6
4, 2
4, 2
3, 0
2, 3
1, 1
3, 3
1, 1
1, 2
2, 2
6, 1
2, 1
1, 5
0, 3
2, 4
3, 9
3, 18
3, 22
2, 33
5, 37
8, 48
11, 45
9, 39
18, 45
19, 43
21, 24
21, 21
19, 24
11, 16
15, 11
9, 14
9, 4
8, 6
2, 12
9, 13
11, 11
9, 10
12, 17
6, 9
15, 21
6, 23
11, 19
10, 14
10, 13
9, 11
2, 12
9, 17
11, 10
10, 4
7, 10
10, 10
6, 4
6, 7
3, 3
5, 6
6, 8
9, 5
11, 12
14, 17
15, 16
16, 16
28, 15
23, 14
29, 20
22, 17
26, 23
31, 25
25, 21
20, 20
16, 25
13, 20
17, 17
16, 20
7, 28
10, 17
8, 17
3, 13
9, 7
7, 7
12, 12
7, 8
5, 12
6, 7
7, 7
6, 9
5, 5
7, 8
3, 8
8, 6
6, 6
0, 8
12, 12
11, 15
10, 19
13, 20
8, 27
16, 26
18, 28
12, 33
15, 25
22, 19
16, 26
11, 21
16, 11
10, 8
11, 13
12, 6
14, 15
9, 9
13, 6
15, 23
24, 17
27, 25
43, 33
38, 40
60, 49
83, 63
95, 58
72, 73
95, 71
70, 61
65, 63
52, 58
42, 37
25, 27
36, 35
16, 37
17, 28
26, 33
22, 35
45, 57
70, 122
163, 202
303, 346
478, 629
743, 955
1156, 1347
1475, 1756
2013, 2092
2211, 2427
2350, 2361
2277, 2225
2033, 1894
1689, 1615
1269, 1084
869, 738
630, 433
380, 268
209, 135
116, 82
68, 56
29, 34
28, 27
18, 22
19, 21
19, 27
23, 20
24, 32
36, 34
33, 46
44, 78
61, 106
102, 135
142, 165
222, 229
254, 296
328, 339
329, 368
359, 390
308, 347
308, 315
247, 235
178, 149
136, 93
83, 66
56, 41
50, 24
15, 10
16, 8
12, 10
7, 9
15, 11
9, 9
14, 14
13, 11
16, 10
17, 14
14, 16
10, 13
12, 6
8, 6
5, 9
7, 9
7, 5
6, 3
7, 4
0, 3
7, 3
8, 6
2, 5
2, 2
2, 11
4, 2
4, 4
6, 6
6, 4
2, 8
8, 6
2, 5
3, 5
7, 8
5, 9
5, 9
5, 8
7, 3
7, 4
4, 4
7, 6
3, 5
10, 5
9, 6
9, 5
4, 4
3, 6
3, 7
3, 9
4, 8
10, 5
1, 4
6, 3
13, 10
2, 4
4, 6
5, 3
7, 5
9, 7
4, 5
5, 4
5, 2
5, 6
6, 4
7, 4
1, 4
4, 7
4, 6
4, 3
3, 4
1, 3
3, 8
6, 7
6, 5
6, 4
4, 3
6, 8
5, 3
5, 2
6, 8
7, 4
4, 4
3, 2
9, 4
4, 2
6, 3
7, 11
3, 4
5, 5
1, 8
1, 5
5, 2
8, 4
9, 4
4, 6
8, 8
6, 8
4, 3
2, 5
2, 3
8, 8
3, 13
4, 4
3, 9
1, 7
3, 7
6, 8
1, 6
2, 3
4, 6
6, 5
7, 6
2, 6
3, 5
3, 4
6, 7
3, 2
5, 4
8, 4
8, 6
6, 4
7, 3
6, 4
3, 4
4, 3
8, 4
7, 4
6, 1
1, 4
6, 2
4, 5
7, 2
3, 1
2, 3
2, 7
3, 3
2, 2
4, 4
4, 1
4, 1
2, 5
1, 4
2, 5
3, 4
1, 1
5, 1
1, 4
7, 2
1, 3
2, 2
3, 3
3, 0
5, 3
2, 6
3, 1
5, 3
6, 2
0, 3
2, 4
5, 4
2, 2
1, 5
0, 1
1, 2
4, 3
2, 1
1, 1
2, 2
2, 1
6, 3
1, 3
3, 9
1, 1
0, 3
2, 0
1, 2
1, 6
2, 3
2, 7
2, 2
4, 4
1, 2
3, 3
5, 6
2, 3
2, 3
3, 1
2, 0
2, 1
4, 4
6, 3
4, 3
1, 1
5, 1
3, 6
1, 1
1, 3
3, 3
2, 7
2, 2
1, 6
4, 2
0, 3
2, 7
1, 2
1, 3
2, 2
1, 2
2, 1
3, 2
3, 3
1, 3
4, 1
2, 3
2, 2
1, 2
1, 2
2, 1
2, 5
5, 3
2, 3
4, 2
1, 4
1, 0
3, 2
1, 0
0, 1
0, 0
1, 3
2, 0
3, 6
3, 3
5, 5
1, 2
6, 3
2, 4
3, 1
1, 1
2, 3
3, 6
3, 2
5, 2
3, 1
4, 3
0, 0
5, 1
2, 2
2, 2
1, 2
1, 4
1, 1
0, 2
2, 2
3, 1
2, 0
3, 1
2, 4
1, 0
1, 2
1, 1
2, 1
0, 1
5, 1
1, 2
3, 2
0, 0
2, 1
1, 3
1, 0
0, 2
2, 5
3, 3
1, 3
2, 1
1, 1
1, 2
0, 1
2, 1
1, 3
3, 1
4, 0
1, 2
2, 1
2, 1
1, 2
0, 1
0, 4
2, 0
1, 2
2, 0
1, 1
2, 1
0, 0
1, 0
1, 4
1, 3
1, 0
2, 0
0, 0
1, 0
0, 1
1, 2
1, 0
0, 0
1, 2
2, 0
0, 0
1, 1
0, 1
0, 0
0, 1
0, 1
1, 0
1, 0
1, 1
1, 0
1, 1
0, 0
0, 1
2, 1
2, 1
0, 1
2, 0
0, 2
4, 2
2, 1
0, 1
0, 0
0, 1
2, 0
2, 1
1, 1
0, 0
1, 0
1, 0
0, 1
1, 2
0, 0
0, 0
0, 1
0, 1
1, 0
0, 0
2, 0
0, 0
0, 0
0, 1
0, 0
0, 0
2, 0
0, 0
0, 0
0, 1
0, 1
0, 1
0, 0
0, 2
1, 1
1, 1
1, 0
0, 0
0, 1
1, 0
1, 1
1, 0
1, 0
1, 0
2, 0
2, 1
1, 0
0, 1
1, 0
0, 0
0, 2
1, 1
0, 0
0, 1
0, 0
0, 1
1, 0
0, 2
0, 1
0, 0
1, 0
2, 0
0, 0
0, 0
1, 1
0, 0
1, 1
1, 0
0, 0
1, 0
0, 1
1, 0
0, 0
0, 0
0, 2
0, 0
1, 0
0, 0
1, 0
1, 0
1, 0
0, 0
0, 1
0, 0
0, 0
0, 0
1, 0
0, 0
0, 0
0, 1
0, 0
0, 0
0, 0
0, 2
0, 1
1, 0
1, 0
0, 1
0, 0
0, 0
0, 0
1, 1
0, 0
0, 1
0, 0
0, 0
1, 1
1, 1
0, 0
0, 0
0, 0
0, 0
1, 0
0, 0
0, 0
0, 0
0, 1
0, 0
0, 0
0, 0
1, 1
0, 0
1, 0
0, 0
0, 0
0, 0
0, 0
0, 0
1, 1
0, 0
0, 1
0, 0
0, 0
0, 0
0, 0
1, 0
0, 0
0, 0
0, 1
1, 0
0, 0
0, 0
0, 0
0, 1
0, 0
0, 0
0, 1
0, 0
2, 1
0, 0
1, 0
0, 0
0, 0
1, 1
0, 0
0, 0
1, 0
0, 0
0, 0
2, 1
0, 0
0, 0
1, 0
0, 0
1, 0
1, 0
0, 0
0, 1
0, 1
0, 0
1, 0
0, 0
1, 0
1, 0
0, 1
0, 1
0, 1
0, 0
0, 1
0, 0
1, 0
0, 0
0, 0
0, 0
0, 0
0, 0
1, 0
0, 0
0, 0
0, 0
1, 0
0, 0
0, 0
0, 0
0, 0
0, 0
0, 0
0, 0
1, 0
0, 0
0, 0
0, 0
0, 0
0, 0
0, 0
0, 0
0, 0
0, 0
1, 0
0, 0
0, 0
0, 0
0, 0
0, 1
0, 0
0, 0
0, 0
0, 0
0, 1
0, 0
0, 1
0, 0
0, 0
0, 1
1, 2
0, 0
1, 0
0, 1
0, 0
0, 2
0, 1
0, 0
1, 0
0, 0
0, 0
0, 0
0, 0
0, 0
0, 0
0, 0
0, 0
0, 0
0, 0
0, 0
1, 0
0, 0
0, 0
0, 1
0, 0
0, 1
0, 0
1, 0
0, 0
0, 0
0, 0
0, 0
1, 0
0, 0
0, 0
0, 0
0, 0
0, 0
0, 0
0, 0
0, 0
0, 0
0, 0
0, 0
0, 0
0, 0
0, 0
1, 0
0, 0
0, 0
1, 0
0, 0
0, 0
0, 0
0, 1
0, 0
0, 0
0, 0
0, 0
0, 0
0, 0
0, 0
0, 0
0, 0
0, 0
0, 0
0, 0
0, 0
0, 0
0, 0
0, 0
0, 0
0, 0
0, 0
0, 0
0, 0
1, 0
0, 0
0, 0
0, 0
0, 0
0, 0
0, 0
0, 0
0, 0
0, 0
0, 0
0, 0
0, 0
0, 0
0, 0
0, 0
0, 0
1, 0
0, 0
0, 0
0, 0
0, 0
0, 0
0, 0
0, 0
0, 0
0, 0
0, 0
0, 0
0, 0
0, 0
0, 0
0, 0
0, 0
0, 0
0, 0
0, 0
0, 0
0, 0
0, 0
0, 0
0, 0
0, 0
0, 0
0, 0
0, 0
0, 0
0, 0
0, 0
0, 0
0, 0
0, 0
0, 0
0, 0
0, 0
0, 0
0, 0
0, 0
0, 0
0, 0
0, 0
0, 0
0, 0
0, 0
0, 0
0, 0
0, 0
0, 0
0, 0
0, 0
0, 0
0, 0
0, 0
0, 0
0, 0
0, 0
0, 0
0, 0
0, 0
0, 0
0, 0
0, 0
0, 0
0, 0
0, 0
0, 0
0, 0
0, 0
0, 0
0, 0
0, 0
0, 0
0, 0
0, 0
0, 0
0, 0
0, 0
0, 0
0, 0
0, 0
0, 0
0, 0
0, 0
0, 0
0, 0
0, 0
0, 0
0, 0
0, 0
0, 0
0, 0
0, 0
0, 0
0, 0
0, 0
0, 0
0, 0
0, 0
0, 0
0, 0
0, 0
0, 0
0, 0
0, 0
0, 0
0, 0
0, 0
0, 0
0, 0
0, 0
0, 0
0, 0
0, 0
0, 0
0, 0
0, 0
0, 0
0, 0
0, 0
0, 0
0, 0
0, 0
0, 0
0, 0
0, 0
0, 0
0, 0
0, 0
0, 0
0, 0
0, 0
0, 0
0, 0
0, 0
0, 0
0, 0
0, 0
0, 0
0, 0
0, 0
0, 0
0, 0
0, 0
0, 0
0, 0
0, 0
0, 0
0, 0
0, 0
0, 0
0, 0
0, 0
0, 0
0, 0
0, 0
0, 1
0, 0
0, 0
0, 0
0, 0
0, 0
0, 0
0, 0
0, 0
0, 0
0, 0
0, 0
0, 0
0, 0
0, 0
0, 0
0, 0
0, 0
0, 0
0, 0
0, 0
0, 0
0, 0
0, 0
0, 0
0, 0
0, 0
0, 0
0, 0
0, 0
0, 0
0, 0
0, 0
0, 0
0, 0
0, 0
0, 0
0, 0
0, 0
0, 0
0, 0
0, 0
0, 0
0, 0
0, 0
0, 0
0, 0
0, 0
0, 0
0, 0
0, 0
0, 0
0, 0
0, 0
0, 0
0, 0
0, 0
0, 0
0, 0
0, 0
0, 0
0, 0
0, 0
0, 0
0, 0
0, 0
0, 0
0, 0
0, 0
0, 0
0, 0
0, 0
0, 0
0, 0
0, 0
0, 0
0, 0
0, 0
0, 0
0, 0
0, 0
0, 0
0, 0
0, 0
0, 0
0, 0
0, 0
0, 0
0, 0
0, 0
0, 0
0, 0
0, 0
0, 0
0, 0
0, 0
0, 0
0, 0
0, 0
0, 0
0, 0
0, 0
0, 0
0, 0
0, 0
0, 0
0, 0
0, 0
0, 0
0, 0
0, 0
0, 0
0, 0
0, 0
0, 0
0, 0
0, 0
0, 0
0, 0
0, 0
0, 0
0, 0
0, 0
0, 0
0, 0
0, 0
0, 0
0, 0
0, 0
0, 0
0, 0
0, 0
0, 0
0, 0
0, 0
0, 0
0, 0
0, 0
0, 0
0, 0
0, 0
0, 0
0, 0
0, 0
0, 0
0, 0
0, 0
0, 0
0, 0
0, 0
0, 0
0, 0
0, 0
0, 0
0, 0
0, 0
0, 0
0, 0
0, 0
0, 0
0, 0
0, 0
0, 0
0, 0
0, 0
0, 0
0, 0
0, 0
0, 0
0, 0
0, 0
0, 0
0, 0
0, 0
0, 0
0, 0
0, 0
0, 0
0, 0
0, 0
0, 0
0, 0
0, 0
0, 0
0, 0
0, 0
0, 0
0, 0
0, 0
0, 0
0, 0
0, 0
0, 0
0, 0
0, 0
0, 0
0, 0
0, 0
0, 0
0, 0
0, 0
0, 0
0, 0
0, 0
0, 0
0, 0
0, 0
0, 0
0, 0
0, 0
0, 0
0, 0
0, 0
0, 0
0, 0
0, 0
0, 0
0, 0
0, 0
0, 0
0, 0
0, 0
0, 0
0, 0
0, 0
0, 0
0, 0
0, 0
0, 0
0, 0
0, 0
0, 0
0, 0
0, 0
0, 0
0, 0
0, 0
0, 0
0, 0
0, 0
0, 0
0, 0
0, 0
0, 0
0, 0
0, 0
0, 0
0, 0
0, 0
0, 0
0, 0
0, 0
0, 0
0, 0
0, 0
0, 0
0, 0
0, 0
0, 0
#ENDOFDATA     end of spectrum data