File: host_upload/06-09-2024/ps_0852/dump3/ps__0852shot_2185.msa
#FORMAT      : EMSA/MAS spectral data file
#VERSION     : TC202v2.0 PIXL
#TITLE       : N/A
#DATE        :       Date in the format DD-MMM-YYYY, for example 07-JUL-2010
#TIME        :             The time of day at which the spectrum was recorded, in 24-hour format
#OWNER       : PIXL Flight Model       (PIXL will use this to indicate which instrument took the data.)
#NPOINTS     : 4096     Number of data points in the spectrum (This can be zero for configuration only files)
#NCOLUMNS    : 2     Number of data columns in the spectrum (This can be zero for configuration only files)
#XUNITS      : eV
#YUNITS      : COUNTS
#DATATYPE    : YY
#XPERCHAN    : 7.862, 7.881   eV per channel (separate by commas if more than one detector)
#OFFSET      : 18.5, -22.4         eV of first channel  (separate by commas if more than one detector
#SIGNALTYPE  : XRF
#YP_TEMP     : 2.139
#LIVETIME    : 8.56675, 8.53949   seconds (separate by commas if more than one detector)
#REALTIME    : 10, 10.0   seconds (separate by commas if more than one detector)
#SPECTRUM    : start of spectrum data
0, 0
0, 0
0, 0
0, 0
0, 0
0, 0
0, 0
0, 0
0, 0
0, 0
0, 0
0, 0
0, 0
0, 0
0, 0
0, 0
0, 0
0, 0
0, 0
0, 0
0, 0
0, 0
0, 0
0, 0
0, 0
0, 0
0, 0
0, 0
0, 0
0, 0
0, 0
0, 0
0, 1
0, 0
0, 0
0, 0
0, 2
1, 1
0, 4
0, 12
0, 10
1, 7
0, 7
1, 7
3, 6
3, 5
2, 6
5, 6
5, 6
5, 13
20, 26
32, 45
55, 67
76, 86
98, 78
77, 88
63, 69
42, 41
29, 20
9, 17
11, 7
6, 5
3, 2
2, 3
3, 6
4, 4
6, 6
11, 8
20, 27
47, 59
91, 95
157, 188
256, 292
351, 375
404, 449
401, 451
348, 378
312, 325
184, 198
118, 119
60, 73
43, 36
24, 18
8, 11
7, 5
4, 5
2, 2
2, 1
1, 2
1, 0
2, 4
1, 1
0, 3
1, 1
1, 6
3, 2
0, 2
0, 1
3, 3
1, 5
2, 2
3, 2
1, 2
2, 2
6, 2
6, 14
3, 15
13, 32
7, 39
22, 88
30, 155
46, 270
76, 425
102, 559
96, 673
94, 673
101, 672
97, 563
88, 440
54, 299
29, 165
27, 88
24, 61
27, 34
21, 15
19, 11
14, 16
11, 17
9, 10
1, 8
3, 8
9, 4
1, 3
1, 2
1, 4
2, 4
0, 2
1, 2
2, 2
0, 1
3, 1
1, 1
0, 1
0, 0
2, 0
2, 0
0, 2
2, 0
2, 4
1, 5
1, 0
2, 4
7, 5
5, 5
9, 11
13, 9
13, 10
15, 20
17, 18
14, 16
8, 6
8, 7
7, 12
5, 3
2, 4
5, 6
8, 16
6, 16
8, 25
8, 32
7, 32
9, 30
23, 26
22, 28
33, 22
23, 12
33, 7
35, 6
27, 8
27, 7
24, 1
19, 2
11, 2
8, 6
5, 3
8, 3
7, 4
2, 7
6, 3
10, 3
7, 6
4, 15
9, 10
9, 7
19, 17
12, 9
9, 19
15, 23
18, 32
17, 35
16, 57
15, 71
6, 62
3, 66
12, 78
13, 58
7, 41
6, 32
6, 21
3, 18
3, 20
2, 7
4, 5
5, 10
8, 7
3, 4
3, 3
6, 9
7, 4
4, 6
8, 10
6, 4
5, 7
5, 12
7, 6
6, 8
9, 12
12, 7
10, 16
7, 7
18, 13
14, 16
19, 20
26, 13
20, 5
30, 8
39, 12
35, 6
31, 8
37, 8
31, 13
35, 7
19, 11
21, 15
18, 12
30, 14
39, 32
35, 42
43, 53
43, 68
62, 61
60, 62
57, 52
52, 37
44, 39
38, 30
23, 36
18, 32
24, 25
7, 22
19, 27
17, 40
47, 54
85, 128
141, 215
283, 353
449, 584
754, 967
1076, 1369
1478, 1786
1952, 2215
2189, 2427
2312, 2572
2326, 2351
2028, 2092
1651, 1674
1317, 1157
849, 860
567, 501
356, 311
197, 167
111, 112
68, 65
33, 45
37, 34
27, 35
29, 27
21, 29
38, 37
40, 29
38, 31
35, 37
64, 67
78, 77
109, 104
166, 195
205, 232
265, 338
263, 372
359, 361
325, 373
361, 338
290, 266
252, 196
180, 149
127, 110
104, 57
53, 55
33, 23
16, 12
13, 13
8, 10
7, 6
14, 14
6, 6
10, 15
10, 13
8, 13
13, 15
12, 13
11, 10
10, 9
13, 9
7, 4
3, 3
4, 5
7, 3
2, 5
6, 3
0, 7
6, 3
3, 7
2, 4
4, 5
5, 5
1, 13
2, 12
2, 6
3, 4
3, 7
10, 8
4, 8
5, 4
13, 4
14, 7
21, 3
30, 5
35, 6
36, 5
41, 4
30, 8
40, 9
59, 6
46, 3
31, 6
43, 4
22, 9
24, 1
19, 4
12, 1
14, 6
10, 7
3, 4
3, 2
5, 1
9, 1
2, 7
2, 4
3, 7
5, 7
4, 4
6, 10
6, 4
2, 4
4, 3
1, 4
5, 4
3, 3
0, 1
1, 4
1, 5
5, 0
2, 3
2, 3
3, 3
4, 4
3, 6
3, 10
2, 7
4, 3
8, 4
5, 2
7, 1
4, 4
6, 3
9, 3
3, 3
1, 1
5, 2
6, 7
3, 2
1, 4
2, 6
1, 5
2, 6
2, 6
3, 6
7, 5
4, 2
1, 7
2, 1
1, 4
0, 2
1, 3
3, 2
0, 5
2, 1
3, 1
2, 1
1, 5
3, 3
3, 3
1, 5
4, 8
2, 3
0, 3
2, 8
5, 3
6, 8
0, 5
1, 5
4, 3
1, 8
2, 7
1, 5
5, 9
2, 7
2, 3
2, 8
2, 5
2, 1
1, 3
3, 4
4, 3
3, 0
5, 4
1, 3
3, 2
3, 4
3, 0
4, 1
4, 3
3, 1
6, 2
4, 1
3, 3
4, 4
3, 6
4, 3
3, 6
4, 6
2, 4
4, 6
4, 2
3, 8
2, 7
3, 6
5, 5
9, 1
3, 7
6, 2
4, 3
5, 2
2, 2
3, 7
5, 2
2, 4
3, 1
5, 0
2, 4
3, 3
5, 2
1, 1
2, 1
0, 0
1, 2
1, 1
3, 0
1, 0
3, 0
1, 1
2, 3
2, 2
4, 1
1, 0
3, 0
2, 1
0, 1
3, 1
3, 1
2, 2
1, 1
2, 2
2, 0
2, 1
2, 0
1, 2
1, 3
3, 2
2, 0
1, 1
4, 2
3, 1
0, 3
3, 1
0, 2
2, 1
5, 3
1, 1
0, 4
1, 4
2, 2
5, 1
2, 1
1, 1
2, 4
2, 2
2, 1
2, 3
3, 0
2, 0
2, 1
3, 6
6, 2
3, 4
0, 1
4, 1
1, 2
2, 4
4, 5
3, 2
5, 6
2, 6
4, 5
1, 5
2, 1
6, 1
2, 7
2, 4
5, 5
0, 3
0, 4
2, 2
1, 2
0, 2
1, 1
1, 3
4, 2
1, 1
2, 3
0, 1
1, 2
1, 0
2, 5
0, 3
2, 2
2, 2
0, 3
4, 4
3, 1
2, 3
0, 3
2, 3
2, 5
2, 4
2, 4
1, 4
2, 2
1, 0
0, 0
1, 0
0, 2
0, 0
0, 2
2, 1
1, 2
0, 1
0, 2
0, 0
0, 3
3, 1
1, 2
1, 1
3, 1
1, 0
0, 0
0, 1
3, 2
0, 2
1, 0
1, 0
0, 0
0, 1
1, 2
1, 0
1, 0
2, 1
1, 1
1, 1
0, 1
1, 0
2, 0
1, 1
0, 1
1, 1
0, 0
2, 2
3, 0
1, 1
1, 0
3, 0
0, 0
0, 0
1, 0
1, 0
0, 0
2, 1
0, 1
2, 0
0, 1
2, 0
0, 2
2, 0
2, 0
0, 2
1, 0
2, 0
0, 1
0, 0
2, 0
1, 2
0, 0
3, 0
0, 0
2, 0
0, 0
0, 0
0, 0
0, 0
0, 0
0, 0
2, 0
0, 0
0, 2
0, 0
1, 1
0, 1
0, 0
0, 1
0, 0
1, 1
1, 1
0, 1
1, 1
0, 0
1, 0
0, 1
0, 1
1, 0
2, 0
0, 0
0, 0
0, 0
0, 1
2, 0
0, 2
0, 1
0, 2
1, 0
0, 0
0, 0
0, 0
1, 0
0, 0
1, 0
1, 1
0, 0
0, 2
0, 1
0, 1
0, 0
1, 1
0, 1
0, 0
0, 1
0, 0
0, 0
0, 0
1, 0
0, 1
0, 0
0, 0
0, 0
0, 1
0, 0
0, 0
0, 0
0, 1
0, 0
0, 0
0, 0
0, 0
2, 0
0, 0
0, 0
0, 0
1, 2
1, 0
0, 0
1, 1
0, 0
1, 1
2, 1
2, 0
0, 0
0, 0
0, 1
0, 1
0, 0
0, 0
0, 1
0, 2
0, 1
1, 0
0, 0
0, 0
0, 0
0, 1
0, 0
0, 0
1, 0
2, 1
0, 1
1, 0
0, 1
0, 0
0, 1
0, 0
0, 0
0, 0
0, 0
0, 1
0, 0
0, 0
1, 0
0, 0
0, 0
0, 1
0, 0
0, 1
0, 0
0, 1
0, 0
1, 0
1, 0
0, 0
0, 3
0, 1
1, 0
0, 0
0, 0
0, 1
0, 0
1, 0
0, 0
0, 0
1, 1
0, 0
0, 0
0, 0
0, 0
0, 0
0, 0
0, 0
0, 1
1, 2
0, 0
0, 0
0, 1
2, 0
0, 0
0, 0
1, 1
0, 0
0, 0
1, 0
0, 0
0, 0
0, 0
0, 1
0, 1
0, 0
1, 0
1, 1
0, 1
1, 0
0, 0
0, 0
0, 0
0, 0
0, 0
0, 0
0, 1
0, 0
0, 0
0, 0
1, 0
1, 0
0, 0
0, 0
0, 2
0, 0
0, 0
0, 0
0, 0
0, 0
0, 0
0, 0
1, 0
0, 0
0, 0
0, 0
0, 0
0, 0
0, 0
1, 0
0, 0
0, 0
0, 0
0, 0
0, 0
0, 1
0, 1
0, 0
0, 0
0, 0
1, 0
0, 0
0, 0
0, 0
0, 0
0, 0
0, 0
0, 0
0, 0
0, 2
0, 0
0, 0
0, 0
0, 0
0, 1
0, 0
1, 0
0, 0
1, 0
0, 0
0, 0
0, 0
0, 0
0, 0
0, 0
2, 0
0, 0
0, 0
0, 2
0, 2
0, 0
0, 0
0, 0
0, 0
0, 0
0, 0
0, 1
0, 0
0, 0
0, 0
0, 1
0, 1
0, 0
0, 1
0, 0
0, 0
0, 0
0, 1
0, 0
0, 0
0, 0
0, 0
0, 0
0, 0
0, 0
0, 0
1, 0
0, 0
0, 0
1, 0
0, 0
0, 0
0, 0
0, 0
0, 0
0, 0
0, 1
0, 0
0, 0
0, 0
0, 0
0, 0
0, 0
0, 0
0, 0
0, 0
0, 0
0, 0
0, 0
0, 0
0, 0
0, 0
1, 0
0, 0
0, 0
0, 0
0, 0
0, 0
0, 0
0, 0
0, 0
0, 0
0, 0
0, 0
0, 0
0, 0
0, 0
1, 0
0, 0
0, 0
0, 0
0, 0
1, 0
0, 0
0, 0
0, 0
0, 0
0, 0
0, 0
0, 0
0, 0
0, 1
0, 0
0, 0
0, 0
0, 0
0, 0
0, 0
0, 0
0, 1
0, 0
0, 0
0, 0
0, 0
0, 0
0, 0
0, 0
0, 0
1, 0
0, 0
0, 0
0, 0
0, 0
0, 0
0, 0
0, 0
0, 0
0, 0
0, 0
0, 0
0, 0
0, 0
0, 0
0, 0
0, 0
0, 0
0, 0
0, 0
0, 0
0, 0
0, 0
0, 0
0, 0
0, 0
0, 0
0, 0
0, 0
0, 0
0, 0
0, 0
0, 0
0, 0
0, 0
0, 0
0, 0
0, 0
0, 0
0, 0
0, 0
0, 0
0, 0
0, 0
0, 0
0, 0
0, 0
0, 0
0, 0
0, 0
0, 0
0, 0
0, 0
0, 0
0, 0
0, 0
0, 0
0, 0
0, 0
0, 0
0, 0
0, 0
0, 0
0, 0
0, 0
0, 0
0, 0
0, 0
0, 0
0, 0
0, 0
0, 0
0, 0
0, 0
0, 0
0, 0
0, 0
0, 0
0, 0
0, 0
0, 0
0, 0
0, 0
0, 0
0, 0
0, 0
0, 0
0, 0
0, 0
0, 0
0, 0
0, 0
0, 0
0, 0
0, 0
0, 0
0, 0
0, 0
0, 0
0, 0
0, 0
0, 0
0, 0
0, 0
0, 0
0, 0
0, 0
0, 0
0, 0
0, 0
0, 0
0, 0
0, 0
0, 0
0, 0
0, 0
0, 0
0, 0
0, 0
0, 0
0, 0
0, 0
0, 0
0, 0
0, 0
0, 0
0, 0
0, 0
0, 0
0, 0
0, 0
0, 0
0, 0
0, 0
0, 0
0, 0
0, 0
0, 0
0, 0
0, 0
0, 0
0, 0
0, 0
0, 0
0, 0
0, 0
0, 0
0, 0
0, 0
0, 0
0, 0
0, 0
0, 0
0, 0
0, 0
0, 0
0, 0
0, 0
0, 0
0, 0
0, 0
0, 0
0, 0
0, 0
0, 0
0, 0
0, 0
0, 0
0, 0
0, 0
0, 0
0, 0
0, 0
0, 0
0, 0
0, 0
0, 0
0, 0
0, 0
0, 0
0, 0
0, 0
0, 0
0, 0
0, 0
0, 0
0, 0
0, 0
0, 0
0, 0
0, 0
0, 0
0, 0
0, 0
0, 0
0, 0
0, 0
0, 0
0, 0
0, 0
0, 0
0, 0
0, 0
0, 0
0, 0
0, 0
0, 0
0, 0
0, 0
0, 0
0, 0
0, 0
0, 0
0, 0
0, 0
0, 0
0, 0
0, 0
0, 0
0, 0
0, 0
0, 0
0, 0
0, 0
0, 0
0, 0
0, 0
0, 0
0, 0
0, 0
0, 0
0, 0
0, 0
0, 0
0, 0
0, 0
0, 0
0, 0
0, 0
0, 0
0, 0
0, 0
0, 0
0, 0
0, 0
0, 0
0, 0
0, 0
0, 0
0, 0
0, 0
0, 0
0, 0
0, 0
0, 0
0, 0
0, 0
0, 0
0, 0
0, 0
0, 0
0, 0
0, 0
0, 0
0, 0
0, 0
0, 0
0, 0
0, 0
0, 0
0, 0
0, 0
0, 0
0, 0
0, 0
0, 0
0, 0
0, 0
0, 0
0, 0
0, 0
0, 0
0, 0
0, 0
0, 0
0, 0
0, 0
0, 0
0, 0
0, 0
0, 0
0, 0
0, 0
0, 0
0, 0
0, 0
0, 0
0, 0
0, 0
0, 0
0, 0
0, 0
0, 0
0, 0
0, 0
0, 0
0, 0
0, 0
0, 0
0, 0
0, 0
0, 0
0, 0
0, 0
0, 0
0, 0
0, 0
0, 0
0, 0
0, 0
0, 0
0, 0
0, 0
0, 0
0, 0
0, 0
0, 0
0, 0
0, 0
0, 0
0, 0
0, 0
0, 0
0, 0
0, 0
0, 0
0, 0
0, 0
0, 0
0, 0
0, 0
0, 0
0, 0
0, 0
0, 0
0, 0
0, 0
0, 0
0, 0
0, 0
0, 0
0, 0
0, 0
0, 0
0, 0
0, 0
0, 0
0, 0
0, 0
0, 0
0, 0
0, 0
0, 0
0, 0
0, 0
0, 0
0, 0
0, 0
0, 0
0, 0
0, 0
0, 0
0, 0
0, 0
0, 0
0, 0
0, 0
0, 0
0, 0
0, 0
0, 0
0, 0
0, 0
0, 0
0, 0
0, 0
0, 0
0, 0
0, 0
0, 0
0, 0
0, 0
#ENDOFDATA     end of spectrum data