File: host_upload/06-09-2024/ps_0852/dump3/ps__0852shot_2561.msa
#FORMAT      : EMSA/MAS spectral data file
#VERSION     : TC202v2.0 PIXL
#TITLE       : N/A
#DATE        :       Date in the format DD-MMM-YYYY, for example 07-JUL-2010
#TIME        :             The time of day at which the spectrum was recorded, in 24-hour format
#OWNER       : PIXL Flight Model       (PIXL will use this to indicate which instrument took the data.)
#NPOINTS     : 4096     Number of data points in the spectrum (This can be zero for configuration only files)
#NCOLUMNS    : 2     Number of data columns in the spectrum (This can be zero for configuration only files)
#XUNITS      : eV
#YUNITS      : COUNTS
#DATATYPE    : YY
#XPERCHAN    : 7.862, 7.881   eV per channel (separate by commas if more than one detector)
#OFFSET      : 18.5, -22.4         eV of first channel  (separate by commas if more than one detector
#SIGNALTYPE  : XRF
#YP_TEMP     : 2.075
#LIVETIME    : 8.54363, 8.56216   seconds (separate by commas if more than one detector)
#REALTIME    : 10, 10.0   seconds (separate by commas if more than one detector)
#SPECTRUM    : start of spectrum data
0, 0
0, 0
0, 0
0, 0
0, 0
0, 0
0, 0
0, 0
0, 0
0, 0
0, 0
0, 0
0, 0
0, 0
0, 0
0, 0
0, 0
0, 0
0, 0
0, 0
0, 0
0, 0
0, 0
0, 0
0, 0
0, 0
0, 0
0, 0
0, 0
0, 0
0, 0
0, 0
0, 0
0, 0
0, 0
0, 2
0, 1
0, 1
2, 2
0, 1
3, 0
2, 1
1, 1
0, 0
1, 3
1, 0
1, 2
2, 5
7, 11
17, 10
24, 28
39, 41
62, 58
68, 80
79, 99
64, 88
47, 50
35, 25
29, 24
13, 13
8, 12
5, 4
7, 7
7, 7
4, 0
6, 6
8, 5
14, 9
19, 20
41, 56
96, 100
190, 190
260, 318
354, 404
418, 438
443, 485
397, 426
292, 286
209, 194
111, 139
82, 81
31, 35
20, 16
12, 10
9, 8
5, 1
6, 5
4, 1
5, 2
2, 0
2, 3
3, 3
2, 2
2, 2
3, 1
5, 3
2, 4
2, 7
3, 6
1, 5
6, 10
1, 5
3, 11
4, 13
6, 22
2, 23
7, 16
12, 23
21, 25
32, 34
39, 50
36, 62
54, 52
71, 60
55, 46
45, 69
51, 50
35, 53
34, 31
37, 27
28, 23
22, 18
14, 25
25, 22
18, 27
16, 6
13, 12
9, 9
5, 8
6, 8
1, 5
3, 4
3, 3
3, 2
6, 2
0, 1
1, 1
3, 5
1, 2
6, 2
4, 2
6, 6
1, 4
3, 2
2, 1
5, 4
1, 3
4, 2
2, 1
6, 3
6, 1
9, 2
8, 6
13, 7
12, 9
13, 19
27, 23
20, 27
14, 20
15, 16
14, 22
12, 17
12, 4
2, 7
4, 5
8, 1
4, 4
3, 5
2, 2
5, 7
4, 3
2, 9
4, 5
7, 4
1, 9
4, 10
7, 3
9, 11
4, 2
3, 13
2, 7
5, 6
3, 6
3, 7
5, 5
9, 4
3, 2
4, 9
8, 4
5, 8
11, 10
12, 11
11, 13
13, 13
12, 18
15, 14
11, 15
17, 17
28, 22
26, 12
21, 13
24, 8
27, 19
22, 8
27, 7
21, 7
10, 7
20, 8
6, 15
10, 11
8, 22
5, 14
4, 24
8, 23
9, 18
4, 9
1, 7
5, 8
2, 10
5, 8
6, 7
8, 8
7, 6
9, 8
9, 9
6, 13
13, 10
12, 13
19, 18
13, 11
14, 12
27, 8
21, 17
21, 15
23, 11
28, 4
30, 9
30, 15
19, 9
14, 5
11, 6
12, 7
6, 12
13, 6
14, 11
20, 29
28, 38
24, 34
42, 54
54, 64
56, 63
66, 65
68, 61
63, 51
39, 40
35, 30
29, 32
35, 23
24, 15
22, 23
30, 37
42, 40
45, 83
75, 145
138, 231
268, 423
429, 667
731, 1028
1109, 1353
1490, 1882
1965, 2395
2225, 2656
2416, 2626
2293, 2481
2024, 1977
1681, 1601
1235, 1183
909, 724
552, 478
326, 252
191, 143
81, 70
43, 39
34, 26
40, 19
23, 20
27, 20
21, 14
27, 20
20, 23
22, 27
31, 39
43, 59
60, 80
96, 142
132, 151
202, 249
250, 309
296, 361
358, 378
335, 387
353, 297
304, 306
261, 237
169, 160
130, 97
70, 64
50, 35
29, 17
17, 11
11, 11
5, 4
5, 10
9, 8
13, 9
14, 12
20, 12
16, 10
17, 11
19, 14
11, 12
12, 8
18, 9
6, 6
12, 6
9, 7
7, 5
9, 4
2, 3
4, 4
4, 1
4, 6
2, 4
4, 5
5, 3
4, 3
1, 5
2, 5
6, 7
5, 6
4, 6
4, 6
3, 9
4, 9
6, 7
9, 7
11, 9
5, 4
8, 10
6, 6
2, 5
5, 11
5, 4
11, 7
3, 7
6, 9
4, 5
9, 2
4, 4
3, 2
6, 3
0, 8
2, 0
2, 1
4, 4
4, 6
7, 3
5, 7
3, 3
4, 5
5, 7
2, 6
0, 6
2, 7
3, 15
5, 12
7, 5
7, 13
8, 13
12, 10
14, 14
9, 11
17, 12
23, 11
19, 8
25, 7
22, 9
14, 4
17, 1
12, 5
15, 1
12, 0
8, 3
3, 3
6, 3
3, 4
9, 4
5, 4
2, 2
3, 2
3, 2
4, 2
4, 2
2, 4
7, 6
7, 0
8, 4
5, 5
9, 1
11, 5
9, 6
12, 4
7, 2
11, 3
8, 2
11, 2
10, 6
3, 4
4, 1
5, 4
4, 4
3, 3
1, 5
4, 2
0, 7
1, 4
4, 4
3, 8
4, 5
7, 5
2, 2
2, 8
3, 4
2, 6
2, 4
4, 1
6, 3
4, 1
4, 3
5, 8
2, 3
7, 5
3, 3
2, 2
3, 2
3, 6
2, 8
1, 4
3, 2
3, 2
4, 7
3, 2
0, 2
0, 3
6, 2
5, 3
2, 2
5, 2
4, 2
4, 1
4, 1
6, 10
6, 2
4, 6
4, 2
6, 2
5, 4
2, 2
7, 1
2, 4
6, 2
6, 1
3, 2
5, 3
3, 2
3, 2
2, 4
1, 1
4, 1
1, 1
1, 5
4, 6
2, 4
3, 4
2, 3
2, 7
1, 5
3, 7
2, 2
5, 5
1, 2
2, 4
4, 5
0, 6
1, 2
2, 4
2, 3
0, 4
2, 1
1, 1
1, 4
1, 1
1, 1
1, 3
3, 4
3, 0
2, 4
0, 4
1, 2
1, 1
1, 2
0, 2
1, 1
2, 1
1, 2
2, 1
2, 4
4, 2
1, 3
2, 2
0, 0
2, 1
3, 4
1, 2
1, 1
2, 4
1, 4
0, 3
1, 1
4, 5
1, 1
3, 4
3, 1
1, 0
1, 2
3, 4
1, 1
3, 6
3, 5
3, 6
4, 1
3, 2
4, 1
3, 2
2, 5
3, 3
6, 3
2, 5
2, 2
2, 1
3, 5
2, 0
1, 0
0, 1
1, 4
2, 2
2, 0
3, 3
1, 1
0, 1
3, 1
1, 4
1, 2
3, 3
3, 3
4, 0
1, 3
4, 1
0, 1
1, 3
4, 5
0, 3
3, 1
2, 3
1, 4
0, 0
0, 2
0, 0
4, 3
0, 0
1, 1
1, 1
1, 1
0, 1
1, 1
4, 0
0, 2
0, 1
0, 1
0, 1
1, 0
0, 0
1, 0
2, 0
2, 3
5, 0
1, 1
1, 1
0, 1
1, 1
1, 1
1, 1
1, 1
1, 3
0, 1
2, 0
1, 1
2, 1
0, 0
0, 0
0, 0
0, 1
0, 2
0, 1
1, 0
3, 0
0, 1
2, 0
0, 1
0, 1
2, 0
0, 2
1, 1
1, 1
0, 0
0, 1
1, 2
0, 0
2, 0
0, 0
0, 2
0, 1
0, 0
2, 1
1, 0
1, 3
0, 0
0, 2
2, 0
2, 0
0, 1
2, 2
1, 0
1, 0
1, 2
0, 1
3, 0
1, 2
0, 0
0, 1
1, 0
1, 1
1, 0
0, 0
0, 0
1, 0
0, 0
2, 0
0, 2
0, 1
0, 1
2, 1
0, 0
1, 1
1, 0
0, 0
1, 2
1, 0
0, 0
1, 0
1, 0
0, 0
0, 1
1, 2
2, 2
1, 1
0, 0
3, 1
0, 0
0, 1
0, 0
0, 0
0, 0
1, 2
0, 1
0, 1
1, 0
0, 0
1, 0
1, 0
0, 0
0, 0
1, 2
1, 1
1, 0
0, 0
0, 0
1, 0
1, 2
0, 0
0, 0
0, 1
1, 2
1, 0
1, 0
1, 0
0, 0
0, 0
0, 0
0, 0
1, 0
0, 0
1, 1
0, 1
1, 0
1, 1
0, 0
0, 1
0, 1
0, 0
1, 0
1, 1
0, 2
0, 1
1, 0
0, 0
0, 1
1, 0
0, 1
0, 2
1, 0
0, 0
0, 0
0, 0
0, 0
1, 0
0, 0
0, 0
0, 0
0, 0
0, 0
0, 0
0, 0
1, 0
0, 1
0, 0
0, 0
0, 0
0, 0
0, 1
0, 0
0, 0
0, 0
0, 0
0, 0
0, 0
0, 0
0, 1
0, 0
0, 0
0, 0
0, 1
0, 0
0, 1
1, 0
0, 0
0, 0
0, 0
0, 1
0, 0
0, 0
1, 0
0, 1
1, 1
0, 0
0, 0
0, 0
0, 0
2, 1
0, 0
0, 0
0, 0
0, 0
1, 0
0, 0
1, 0
1, 1
0, 0
0, 1
0, 0
0, 0
0, 0
2, 0
1, 1
0, 0
1, 0
0, 0
0, 0
1, 0
0, 0
0, 1
0, 2
0, 0
0, 2
0, 0
0, 0
0, 1
1, 1
0, 0
0, 0
0, 0
0, 1
0, 1
0, 1
0, 0
0, 0
0, 0
0, 0
0, 0
0, 0
0, 0
0, 1
0, 0
0, 0
0, 0
0, 0
0, 0
0, 0
0, 0
0, 0
1, 0
2, 0
0, 0
0, 0
0, 0
0, 0
0, 0
0, 1
0, 0
0, 0
0, 0
0, 0
0, 0
0, 0
0, 0
1, 0
0, 0
0, 0
0, 0
0, 1
0, 0
0, 0
0, 0
0, 0
1, 0
0, 0
0, 0
0, 0
0, 0
0, 0
0, 0
0, 0
0, 1
1, 1
0, 1
0, 0
0, 0
0, 0
0, 0
0, 0
0, 0
0, 0
0, 0
0, 0
0, 0
0, 0
0, 0
0, 0
0, 0
0, 0
0, 0
0, 0
0, 0
0, 0
0, 1
0, 0
0, 0
0, 0
0, 0
0, 1
0, 0
0, 0
0, 0
0, 0
0, 0
0, 0
0, 0
0, 0
0, 0
0, 0
0, 0
0, 0
0, 0
0, 0
1, 0
0, 0
0, 0
0, 0
0, 0
0, 0
0, 0
0, 0
0, 0
0, 0
0, 0
0, 0
0, 0
0, 0
0, 0
0, 0
0, 0
0, 0
1, 0
0, 0
0, 0
0, 0
0, 0
0, 0
0, 0
0, 0
0, 0
1, 0
0, 0
0, 0
0, 0
0, 0
0, 0
0, 0
0, 0
0, 0
0, 0
0, 0
0, 0
0, 0
0, 0
1, 0
0, 0
0, 0
0, 0
0, 0
0, 0
0, 0
0, 0
0, 0
0, 0
0, 0
0, 0
0, 0
0, 0
0, 0
0, 0
0, 0
0, 0
0, 0
0, 0
0, 0
0, 0
0, 0
0, 0
0, 0
0, 0
0, 0
0, 0
0, 0
0, 0
0, 0
0, 0
0, 0
0, 0
0, 0
0, 0
0, 0
0, 0
0, 0
0, 0
0, 0
0, 0
0, 0
0, 0
0, 0
0, 0
0, 0
0, 0
0, 0
0, 0
0, 0
0, 0
0, 0
0, 0
0, 0
0, 0
0, 0
0, 0
0, 0
0, 0
0, 0
0, 0
0, 0
0, 0
0, 0
0, 0
0, 0
0, 0
0, 0
0, 0
0, 0
0, 0
0, 0
0, 0
0, 0
0, 0
0, 0
0, 0
0, 0
0, 0
0, 0
0, 0
0, 0
0, 0
0, 0
0, 0
0, 0
0, 0
0, 0
0, 0
0, 0
0, 0
0, 0
0, 0
0, 0
0, 0
0, 0
0, 0
0, 0
0, 0
0, 0
0, 0
0, 0
0, 0
0, 0
0, 0
0, 0
0, 0
0, 0
0, 0
0, 0
0, 0
0, 0
0, 0
0, 0
0, 0
0, 0
0, 0
0, 0
0, 0
0, 0
0, 0
0, 0
0, 0
0, 0
0, 0
0, 0
0, 0
0, 0
0, 0
0, 0
0, 0
0, 0
0, 0
0, 0
0, 0
0, 0
0, 0
0, 0
0, 0
0, 0
0, 0
0, 0
0, 0
0, 0
0, 0
0, 0
0, 0
0, 0
0, 0
0, 0
0, 0
0, 0
0, 0
0, 0
0, 0
0, 0
0, 0
0, 0
0, 0
0, 0
0, 0
0, 0
0, 0
0, 0
0, 0
0, 0
0, 0
0, 0
0, 0
0, 0
0, 0
0, 0
0, 0
0, 0
0, 0
0, 0
0, 0
0, 0
0, 0
0, 0
0, 0
0, 0
0, 0
0, 0
0, 0
0, 0
0, 0
0, 0
0, 0
0, 0
0, 0
0, 0
0, 0
0, 0
0, 0
0, 0
0, 0
0, 0
0, 0
0, 0
0, 0
0, 0
0, 0
0, 0
0, 0
0, 0
0, 0
0, 0
0, 0
0, 0
0, 0
0, 0
0, 0
0, 0
0, 0
0, 0
0, 0
0, 0
0, 0
0, 0
0, 0
0, 0
0, 0
0, 0
0, 0
0, 0
0, 0
0, 0
0, 0
0, 0
0, 0
0, 0
0, 0
0, 0
0, 0
0, 0
0, 0
0, 0
0, 0
0, 0
0, 0
0, 0
0, 0
0, 0
0, 0
0, 0
0, 0
0, 0
0, 0
0, 0
0, 0
0, 0
0, 0
0, 0
0, 0
0, 0
0, 0
0, 0
0, 0
0, 0
0, 0
0, 0
0, 0
0, 0
0, 0
0, 0
0, 0
0, 0
0, 0
0, 0
0, 0
0, 0
0, 0
0, 0
0, 0
0, 0
0, 0
0, 0
0, 0
0, 0
0, 0
0, 0
0, 0
0, 0
0, 0
0, 0
0, 0
0, 0
0, 0
0, 0
0, 0
0, 0
0, 0
0, 0
0, 0
0, 0
0, 0
0, 0
0, 0
0, 0
0, 0
0, 0
0, 0
0, 0
0, 0
0, 0
0, 0
0, 0
0, 0
0, 0
0, 0
0, 0
0, 0
0, 0
0, 0
0, 0
0, 0
0, 0
0, 0
0, 0
0, 0
0, 0
0, 0
0, 0
0, 0
0, 0
0, 0
0, 0
0, 0
0, 0
0, 0
0, 0
0, 0
0, 0
0, 0
0, 0
0, 0
0, 0
0, 0
0, 0
0, 0
0, 0
0, 0
0, 0
0, 0
0, 0
0, 0
0, 0
0, 0
0, 0
0, 0
0, 0
0, 0
0, 0
0, 0
0, 0
0, 0
0, 0
0, 0
0, 0
0, 0
0, 0
0, 0
0, 0
0, 0
0, 0
0, 0
0, 0
0, 0
0, 0
0, 0
0, 0
0, 0
0, 0
0, 0
0, 0
0, 0
0, 0
0, 0
0, 0
0, 0
0, 0
0, 0
0, 0
0, 0
0, 0
0, 0
0, 0
0, 0
0, 0
0, 0
0, 0
0, 0
0, 0
0, 0
0, 0
0, 0
0, 0
0, 0
0, 0
0, 0
0, 0
0, 0
0, 0
0, 0
0, 0
0, 0
0, 0
0, 0
0, 0
0, 0
0, 0
0, 0
0, 0
0, 0
0, 0
0, 0
0, 0
0, 0
0, 0
#ENDOFDATA     end of spectrum data