File: host_upload/06-09-2024/ps_0852/dump3/ps__0852shot_2124.msa
#FORMAT      : EMSA/MAS spectral data file
#VERSION     : TC202v2.0 PIXL
#TITLE       : N/A
#DATE        :       Date in the format DD-MMM-YYYY, for example 07-JUL-2010
#TIME        :             The time of day at which the spectrum was recorded, in 24-hour format
#OWNER       : PIXL Flight Model       (PIXL will use this to indicate which instrument took the data.)
#NPOINTS     : 4096     Number of data points in the spectrum (This can be zero for configuration only files)
#NCOLUMNS    : 2     Number of data columns in the spectrum (This can be zero for configuration only files)
#XUNITS      : eV
#YUNITS      : COUNTS
#DATATYPE    : YY
#XPERCHAN    : 7.862, 7.881   eV per channel (separate by commas if more than one detector)
#OFFSET      : 18.5, -22.4         eV of first channel  (separate by commas if more than one detector
#SIGNALTYPE  : XRF
#YP_TEMP     : 2.46
#LIVETIME    : 8.53181, 8.56868   seconds (separate by commas if more than one detector)
#REALTIME    : 10, 10.0   seconds (separate by commas if more than one detector)
#SPECTRUM    : start of spectrum data
0, 0
0, 0
0, 0
0, 0
0, 0
0, 0
0, 0
0, 0
0, 0
0, 0
0, 0
0, 0
0, 0
0, 0
0, 0
0, 0
0, 0
0, 0
0, 0
0, 0
0, 0
0, 0
0, 0
0, 0
0, 0
0, 0
0, 0
0, 0
0, 0
0, 0
0, 0
0, 0
0, 0
0, 0
0, 0
0, 0
0, 0
1, 1
0, 0
0, 0
1, 0
0, 3
0, 1
1, 1
2, 1
0, 0
2, 1
3, 3
9, 4
14, 16
22, 20
33, 42
67, 57
68, 73
74, 77
98, 61
70, 58
46, 42
21, 29
26, 12
6, 11
3, 5
1, 3
1, 1
5, 1
4, 3
5, 6
8, 10
31, 20
29, 48
104, 93
154, 180
225, 272
358, 318
390, 409
369, 382
346, 356
283, 271
182, 197
108, 109
70, 67
37, 36
17, 12
9, 12
2, 5
5, 3
3, 0
0, 0
1, 0
3, 1
0, 0
4, 0
4, 0
5, 0
10, 1
17, 2
4, 4
18, 3
16, 4
14, 7
10, 8
12, 1
2, 3
3, 3
2, 1
2, 0
3, 2
4, 2
10, 5
10, 15
8, 11
20, 14
19, 29
54, 30
50, 40
48, 39
51, 45
42, 38
37, 33
42, 28
39, 32
24, 34
26, 21
28, 14
18, 13
15, 11
21, 10
4, 10
4, 5
8, 9
5, 4
9, 4
4, 1
3, 2
1, 5
2, 2
1, 1
3, 3
1, 2
0, 1
3, 2
2, 0
1, 0
2, 2
1, 4
5, 4
4, 4
3, 1
2, 2
5, 4
10, 7
9, 6
17, 5
16, 5
20, 12
36, 17
39, 18
24, 19
20, 13
19, 21
18, 8
12, 14
7, 7
7, 7
9, 3
8, 4
6, 6
10, 4
4, 6
8, 5
6, 1
4, 6
3, 8
8, 5
5, 11
0, 4
2, 11
5, 7
5, 14
4, 7
6, 4
3, 3
2, 2
5, 7
3, 3
4, 7
3, 3
5, 7
11, 8
19, 11
13, 14
16, 13
26, 12
12, 18
20, 16
19, 18
19, 10
17, 15
25, 15
10, 17
19, 18
7, 14
17, 8
9, 6
7, 12
4, 3
5, 3
9, 4
4, 5
7, 4
8, 9
4, 4
6, 6
10, 8
2, 3
6, 6
6, 11
7, 9
10, 9
3, 7
3, 5
5, 5
5, 13
8, 4
4, 8
11, 7
10, 10
9, 10
22, 13
17, 11
15, 17
15, 14
22, 15
21, 16
24, 10
16, 12
14, 21
23, 11
24, 22
10, 19
15, 15
13, 11
10, 17
12, 32
21, 27
23, 26
38, 36
45, 49
44, 49
74, 55
61, 65
62, 57
64, 68
51, 44
31, 39
35, 28
25, 21
29, 21
16, 21
20, 17
16, 29
28, 32
45, 68
82, 106
162, 202
286, 371
490, 602
812, 957
1035, 1328
1571, 1707
1893, 2085
2186, 2323
2393, 2405
2283, 2309
2020, 1926
1718, 1569
1311, 1096
885, 716
593, 473
387, 281
212, 167
120, 92
45, 54
41, 32
21, 21
18, 9
17, 10
21, 14
13, 19
17, 27
24, 26
40, 36
40, 50
71, 69
95, 109
138, 174
179, 237
259, 299
312, 360
323, 353
339, 384
348, 338
321, 271
257, 226
194, 168
154, 110
83, 81
62, 49
31, 17
28, 21
11, 8
10, 3
9, 11
12, 11
12, 16
11, 12
5, 21
14, 9
9, 15
8, 14
11, 15
9, 8
14, 12
9, 8
5, 3
3, 7
6, 3
9, 2
5, 7
5, 4
4, 4
8, 7
5, 7
1, 4
3, 3
3, 4
5, 2
4, 5
5, 4
6, 4
2, 6
4, 6
7, 9
7, 7
9, 9
7, 5
5, 6
5, 8
5, 2
7, 10
11, 9
7, 1
2, 9
4, 7
4, 6
5, 4
2, 2
5, 1
2, 6
3, 3
4, 3
2, 5
2, 5
3, 5
5, 6
1, 11
8, 4
11, 5
6, 11
5, 7
4, 6
7, 4
2, 6
2, 4
7, 2
10, 4
4, 2
2, 6
5, 3
5, 4
2, 7
2, 8
2, 4
5, 15
2, 10
2, 14
7, 19
3, 17
6, 13
7, 17
5, 21
4, 19
1, 16
0, 16
7, 9
2, 13
6, 12
3, 5
2, 11
8, 7
5, 9
3, 2
6, 8
4, 4
6, 4
6, 4
4, 0
4, 3
4, 3
4, 11
5, 8
2, 9
1, 7
3, 3
3, 5
4, 10
2, 4
4, 6
2, 2
10, 1
1, 6
4, 4
1, 2
3, 6
3, 3
4, 1
1, 3
3, 6
7, 1
6, 3
6, 2
5, 3
3, 2
4, 0
2, 4
0, 2
3, 5
4, 1
3, 7
4, 4
0, 5
1, 7
2, 7
3, 2
2, 3
5, 2
1, 3
1, 1
5, 3
3, 3
6, 3
4, 2
0, 2
0, 1
4, 3
1, 0
3, 1
2, 4
2, 3
3, 4
2, 3
4, 4
1, 3
4, 2
1, 3
3, 2
6, 6
3, 4
2, 1
1, 3
4, 3
4, 3
3, 0
4, 9
4, 3
3, 1
3, 1
3, 2
2, 5
3, 10
2, 2
4, 4
2, 5
4, 6
4, 2
8, 3
3, 2
3, 2
4, 0
9, 4
1, 5
6, 4
1, 3
3, 2
2, 4
2, 5
4, 5
2, 2
1, 0
5, 4
4, 1
2, 3
2, 1
1, 5
1, 2
2, 0
5, 4
1, 2
3, 3
3, 1
0, 4
2, 4
1, 1
0, 1
1, 1
2, 4
3, 1
4, 2
4, 3
3, 3
0, 3
6, 4
2, 2
3, 2
5, 2
1, 4
1, 2
3, 1
2, 1
3, 3
3, 2
1, 1
2, 1
0, 4
3, 6
2, 0
3, 4
1, 8
0, 0
5, 7
4, 3
3, 3
1, 4
5, 7
4, 5
2, 3
6, 4
3, 6
1, 1
2, 2
2, 1
4, 1
1, 1
3, 1
0, 1
0, 1
0, 0
2, 1
2, 1
1, 2
0, 2
1, 5
3, 2
1, 0
1, 2
2, 2
0, 0
0, 1
1, 0
3, 1
1, 1
1, 0
5, 2
1, 1
0, 1
3, 2
3, 3
2, 1
2, 2
0, 3
1, 2
2, 0
0, 2
0, 1
1, 2
2, 1
0, 4
0, 0
0, 0
1, 2
0, 1
2, 0
1, 1
1, 1
1, 2
0, 2
0, 0
1, 0
2, 3
2, 0
1, 2
2, 0
2, 2
2, 0
3, 2
0, 0
1, 2
1, 1
3, 1
1, 1
1, 1
0, 2
1, 0
2, 0
1, 1
1, 0
1, 1
0, 2
0, 0
0, 2
2, 0
1, 2
5, 0
0, 2
1, 0
1, 0
1, 0
1, 1
0, 1
3, 1
1, 0
2, 2
2, 1
0, 1
0, 1
2, 1
0, 0
0, 0
2, 2
0, 0
2, 4
2, 0
1, 1
1, 2
0, 1
1, 1
1, 3
0, 2
1, 1
2, 0
0, 0
0, 0
1, 1
0, 1
0, 2
1, 0
0, 0
1, 1
2, 0
0, 0
1, 1
1, 1
3, 0
0, 1
1, 0
0, 0
0, 0
1, 1
0, 0
1, 1
0, 0
0, 0
1, 0
0, 0
1, 0
0, 2
1, 1
0, 0
0, 1
1, 0
1, 0
1, 0
0, 0
1, 1
1, 1
0, 0
0, 0
1, 2
1, 0
0, 1
0, 0
0, 1
0, 1
1, 2
1, 0
1, 0
1, 0
0, 1
1, 0
0, 0
0, 1
1, 0
1, 0
0, 0
0, 0
0, 0
0, 0
1, 0
0, 1
0, 1
0, 2
1, 1
0, 1
1, 0
2, 0
0, 0
1, 1
0, 1
0, 0
1, 0
0, 1
0, 2
0, 0
1, 1
1, 1
0, 0
1, 0
1, 1
1, 3
0, 0
1, 0
0, 0
0, 1
0, 1
1, 0
0, 0
0, 1
0, 0
0, 1
1, 0
0, 1
0, 0
2, 1
0, 0
1, 1
0, 0
0, 0
1, 0
0, 0
0, 0
0, 0
0, 0
0, 0
0, 0
0, 0
1, 0
0, 0
0, 0
0, 1
0, 0
0, 0
0, 0
0, 0
0, 0
0, 0
0, 0
0, 1
0, 0
0, 1
2, 0
0, 0
0, 1
0, 0
0, 0
0, 0
0, 1
0, 0
0, 0
0, 0
1, 1
0, 2
1, 1
0, 0
0, 1
0, 0
0, 1
0, 0
0, 0
0, 0
1, 0
1, 0
2, 0
0, 2
1, 2
1, 3
0, 1
0, 2
0, 1
1, 0
0, 0
0, 1
0, 0
0, 0
0, 0
0, 0
1, 0
0, 0
0, 1
0, 0
0, 0
0, 1
0, 0
0, 0
0, 0
1, 0
0, 1
0, 0
0, 1
0, 0
0, 1
0, 0
1, 0
0, 0
0, 0
2, 0
0, 0
0, 0
0, 0
0, 0
0, 0
0, 0
1, 0
1, 0
0, 0
0, 0
0, 0
0, 0
0, 0
0, 0
0, 0
0, 0
0, 1
0, 0
0, 0
0, 0
0, 0
0, 0
0, 0
0, 0
2, 1
0, 0
0, 0
0, 0
0, 0
1, 0
0, 0
0, 0
1, 0
0, 0
0, 1
0, 0
0, 0
0, 0
0, 0
0, 0
0, 0
0, 0
0, 0
0, 0
0, 0
0, 0
0, 0
0, 0
0, 0
0, 0
1, 0
0, 0
0, 0
0, 0
0, 0
0, 0
1, 0
0, 0
0, 0
0, 0
0, 0
0, 0
0, 0
0, 0
0, 0
0, 0
0, 0
0, 0
0, 0
0, 0
0, 0
0, 1
0, 0
1, 0
0, 0
0, 0
0, 0
0, 0
0, 1
0, 0
0, 0
0, 0
0, 0
0, 0
0, 0
0, 0
0, 0
0, 0
0, 0
0, 0
0, 0
0, 0
1, 0
0, 0
0, 0
0, 0
0, 0
0, 0
0, 0
0, 0
0, 0
0, 0
0, 0
0, 0
0, 0
0, 0
1, 0
0, 0
0, 1
0, 0
0, 0
0, 0
0, 0
1, 0
0, 0
0, 0
0, 0
0, 0
0, 0
0, 0
0, 0
0, 0
0, 0
0, 0
0, 0
0, 0
0, 0
0, 0
0, 0
0, 0
0, 0
0, 0
0, 0
0, 0
0, 0
0, 0
0, 1
0, 0
0, 0
0, 0
0, 0
0, 0
0, 0
0, 0
0, 0
0, 0
1, 0
0, 0
0, 0
0, 0
0, 0
0, 0
0, 0
0, 0
0, 0
0, 0
0, 0
0, 0
0, 0
0, 0
0, 0
0, 0
0, 0
0, 1
0, 0
0, 0
0, 0
0, 0
0, 0
0, 0
0, 0
0, 0
0, 0
0, 0
0, 0
0, 0
0, 0
0, 0
0, 0
0, 0
0, 0
0, 0
0, 0
0, 0
0, 0
0, 0
0, 0
0, 0
0, 0
0, 0
0, 0
0, 0
0, 0
0, 0
0, 0
0, 0
0, 0
0, 0
0, 0
0, 0
0, 0
0, 0
0, 0
0, 0
0, 0
0, 0
0, 0
0, 0
0, 0
0, 0
0, 0
0, 0
0, 0
0, 0
0, 0
0, 0
0, 0
0, 0
0, 0
0, 0
0, 0
0, 0
0, 0
0, 0
0, 0
0, 0
0, 0
0, 0
0, 0
0, 0
0, 0
0, 0
0, 0
0, 0
0, 0
0, 0
0, 0
0, 0
0, 0
0, 0
0, 0
0, 0
0, 0
0, 0
0, 0
0, 0
0, 0
0, 0
0, 0
0, 0
0, 0
0, 0
0, 0
0, 0
0, 0
0, 0
0, 0
0, 0
0, 0
0, 0
0, 0
0, 0
0, 0
0, 0
0, 0
0, 0
0, 0
0, 0
0, 0
0, 0
0, 0
0, 0
0, 0
0, 0
0, 0
0, 0
0, 0
0, 0
0, 0
0, 0
0, 0
0, 0
0, 0
0, 0
0, 0
0, 0
0, 0
0, 0
0, 0
0, 0
0, 0
0, 0
0, 0
0, 0
0, 0
0, 0
0, 0
0, 0
0, 0
0, 0
0, 0
0, 0
0, 0
0, 0
0, 0
0, 0
0, 0
0, 0
0, 0
0, 0
0, 0
0, 0
0, 0
0, 0
0, 0
0, 0
0, 0
0, 0
0, 0
0, 0
0, 0
0, 0
0, 0
0, 0
0, 0
0, 0
0, 0
0, 0
0, 0
0, 0
0, 0
0, 0
0, 0
0, 0
0, 0
0, 0
0, 0
0, 0
0, 0
0, 0
0, 0
0, 0
0, 0
0, 0
0, 0
0, 0
0, 0
0, 0
0, 0
0, 0
0, 0
0, 0
0, 0
0, 0
0, 0
0, 0
0, 0
0, 0
0, 0
0, 0
0, 0
0, 0
0, 0
0, 0
0, 0
0, 0
0, 0
0, 0
0, 0
0, 0
0, 0
0, 0
0, 0
0, 0
0, 0
0, 0
0, 0
0, 0
0, 0
0, 0
0, 0
0, 0
0, 0
0, 0
0, 0
0, 0
0, 0
0, 0
0, 0
0, 0
0, 0
0, 0
0, 0
0, 0
0, 0
0, 0
0, 0
0, 0
0, 0
0, 0
0, 0
0, 0
0, 0
0, 0
0, 0
0, 0
0, 0
0, 0
0, 0
0, 0
0, 0
0, 0
0, 0
0, 0
0, 0
0, 0
0, 0
0, 0
0, 0
0, 0
0, 0
0, 0
0, 0
0, 0
0, 0
0, 0
0, 0
0, 0
0, 0
0, 0
0, 0
0, 0
0, 0
0, 0
0, 0
0, 0
0, 0
0, 0
0, 0
0, 0
0, 0
0, 0
0, 0
0, 0
0, 0
0, 0
0, 0
0, 0
0, 0
0, 0
0, 0
0, 0
0, 0
0, 0
0, 0
0, 0
0, 0
0, 0
0, 0
0, 0
0, 0
0, 0
0, 0
0, 0
0, 0
0, 0
0, 0
0, 0
0, 0
0, 0
0, 0
0, 0
0, 0
0, 0
0, 0
0, 0
0, 0
0, 0
0, 0
0, 0
0, 0
0, 0
0, 0
0, 0
0, 0
0, 0
0, 0
0, 0
0, 0
0, 0
0, 0
0, 0
0, 0
0, 0
0, 0
0, 0
0, 0
0, 0
0, 0
0, 0
0, 0
0, 0
0, 0
0, 0
0, 0
0, 0
0, 0
0, 0
0, 0
0, 0
0, 0
0, 0
0, 0
0, 0
0, 0
0, 0
0, 0
0, 0
0, 0
0, 0
0, 0
0, 0
0, 0
0, 0
0, 0
0, 0
0, 0
0, 0
0, 0
0, 0
0, 0
0, 0
0, 0
0, 0
0, 0
0, 0
0, 0
0, 0
0, 0
0, 0
0, 0
#ENDOFDATA     end of spectrum data