File: host_upload/06-09-2024/ps_0852/dump3/ps__0852shot_2147.msa
#FORMAT      : EMSA/MAS spectral data file
#VERSION     : TC202v2.0 PIXL
#TITLE       : N/A
#DATE        :       Date in the format DD-MMM-YYYY, for example 07-JUL-2010
#TIME        :             The time of day at which the spectrum was recorded, in 24-hour format
#OWNER       : PIXL Flight Model       (PIXL will use this to indicate which instrument took the data.)
#NPOINTS     : 4096     Number of data points in the spectrum (This can be zero for configuration only files)
#NCOLUMNS    : 2     Number of data columns in the spectrum (This can be zero for configuration only files)
#XUNITS      : eV
#YUNITS      : COUNTS
#DATATYPE    : YY
#XPERCHAN    : 7.862, 7.881   eV per channel (separate by commas if more than one detector)
#OFFSET      : 18.5, -22.4         eV of first channel  (separate by commas if more than one detector
#SIGNALTYPE  : XRF
#YP_TEMP     : 2.203
#LIVETIME    : 8.56516, 8.59158   seconds (separate by commas if more than one detector)
#REALTIME    : 10, 10.0   seconds (separate by commas if more than one detector)
#SPECTRUM    : start of spectrum data
0, 0
0, 0
0, 0
0, 0
0, 0
0, 0
0, 0
0, 0
0, 0
0, 0
0, 0
0, 0
0, 0
0, 0
0, 0
0, 0
0, 0
0, 0
0, 0
0, 0
0, 0
0, 0
0, 0
0, 0
0, 0
0, 0
0, 0
0, 0
0, 0
0, 0
0, 0
0, 1
0, 0
0, 0
0, 0
0, 0
0, 1
0, 1
1, 0
0, 0
0, 0
1, 1
2, 1
1, 0
0, 0
1, 0
4, 3
6, 3
9, 3
15, 16
30, 16
42, 41
58, 51
74, 58
76, 59
83, 64
61, 48
51, 44
32, 26
15, 15
10, 5
14, 6
2, 3
2, 1
4, 2
3, 2
7, 5
6, 13
31, 22
50, 52
100, 95
176, 166
249, 233
361, 344
416, 365
436, 315
425, 302
303, 246
201, 167
137, 126
65, 64
39, 27
19, 19
8, 14
7, 4
1, 1
2, 0
1, 4
0, 1
4, 1
0, 1
0, 2
2, 0
2, 0
3, 4
0, 2
6, 1
2, 1
5, 2
4, 3
3, 1
1, 6
4, 2
6, 3
1, 2
2, 0
2, 2
5, 2
2, 5
6, 3
11, 10
24, 10
40, 21
29, 19
38, 28
52, 22
50, 30
51, 21
48, 23
33, 16
32, 26
15, 13
25, 16
12, 13
19, 17
17, 14
8, 14
9, 10
6, 7
4, 7
4, 8
1, 3
3, 2
2, 1
0, 1
4, 2
1, 1
3, 1
2, 2
1, 2
3, 1
3, 3
2, 2
0, 0
3, 1
0, 4
2, 4
4, 8
5, 2
4, 4
8, 2
15, 5
11, 6
18, 10
13, 8
18, 9
26, 20
19, 15
18, 10
10, 18
14, 11
9, 5
8, 7
6, 6
4, 8
2, 1
5, 3
4, 2
4, 4
4, 2
2, 3
1, 4
2, 2
4, 4
3, 9
6, 3
2, 3
5, 4
2, 3
4, 5
5, 7
2, 1
4, 1
4, 2
2, 3
3, 4
6, 2
4, 2
5, 7
5, 7
7, 8
12, 2
12, 11
9, 11
15, 17
14, 12
14, 13
13, 17
13, 17
16, 11
17, 5
11, 9
14, 8
7, 5
7, 6
7, 6
4, 9
3, 5
2, 3
6, 4
2, 7
6, 4
3, 6
6, 3
6, 9
12, 5
4, 4
6, 5
5, 6
6, 12
6, 1
5, 7
11, 13
6, 6
6, 8
8, 11
9, 9
7, 15
12, 15
17, 16
27, 11
24, 15
26, 10
21, 17
26, 12
27, 16
20, 18
18, 20
17, 18
16, 29
14, 35
10, 32
7, 29
19, 29
20, 19
33, 25
34, 36
38, 39
64, 50
67, 57
76, 57
76, 55
79, 38
57, 40
37, 35
34, 30
35, 16
23, 20
15, 24
19, 23
20, 25
28, 41
51, 49
87, 108
142, 187
316, 326
495, 537
809, 871
1234, 1236
1644, 1666
1961, 2016
2385, 2209
2443, 2273
2443, 2096
2159, 1773
1822, 1462
1383, 1075
963, 716
634, 404
354, 248
202, 133
100, 67
62, 40
42, 14
34, 20
10, 12
14, 15
12, 18
17, 17
33, 27
33, 17
39, 39
57, 54
61, 82
108, 109
142, 161
209, 186
266, 267
337, 309
388, 320
386, 308
347, 307
317, 252
249, 182
211, 141
137, 97
88, 64
54, 39
42, 26
19, 11
18, 13
22, 7
12, 6
13, 10
13, 9
8, 17
7, 15
14, 9
17, 11
20, 11
11, 8
17, 8
10, 7
5, 4
5, 6
8, 1
8, 6
10, 4
9, 3
10, 6
9, 2
4, 2
5, 2
4, 3
3, 3
3, 3
9, 5
6, 9
1, 5
5, 5
7, 5
3, 8
4, 7
5, 5
4, 8
3, 3
6, 9
1, 8
5, 8
4, 10
4, 8
6, 5
9, 7
8, 3
4, 3
9, 5
5, 5
11, 5
3, 2
4, 6
1, 2
3, 7
4, 3
8, 1
3, 5
4, 4
4, 6
4, 4
6, 8
12, 5
10, 3
6, 4
7, 2
7, 3
4, 1
4, 6
7, 8
4, 5
5, 4
7, 4
4, 8
4, 10
3, 1
1, 8
2, 16
5, 17
3, 18
3, 34
3, 17
2, 23
4, 28
3, 31
5, 26
5, 12
3, 13
7, 11
3, 9
5, 6
3, 7
5, 4
3, 5
3, 6
4, 2
8, 6
7, 7
2, 2
3, 3
3, 5
1, 11
2, 4
2, 7
3, 5
2, 9
2, 9
5, 10
3, 7
2, 7
3, 6
3, 5
0, 7
1, 4
2, 3
2, 2
2, 1
4, 2
2, 2
3, 2
0, 6
2, 0
1, 3
1, 4
3, 3
2, 1
3, 2
5, 1
1, 4
0, 2
2, 0
0, 1
2, 1
2, 1
2, 3
5, 4
3, 3
1, 3
5, 0
4, 0
5, 8
4, 1
3, 1
0, 1
0, 1
4, 3
2, 1
3, 3
3, 3
3, 3
6, 5
2, 2
3, 1
0, 1
1, 3
2, 2
5, 1
4, 3
5, 3
2, 3
4, 3
2, 5
1, 0
4, 4
2, 6
0, 4
2, 1
4, 3
4, 3
1, 7
2, 5
5, 1
1, 4
0, 3
5, 1
1, 3
1, 5
5, 3
5, 4
4, 2
4, 2
2, 1
2, 1
1, 1
4, 3
6, 2
2, 2
4, 2
1, 7
4, 1
5, 6
5, 4
2, 3
6, 4
4, 3
2, 1
0, 1
4, 3
3, 2
1, 4
1, 3
1, 2
3, 1
6, 0
6, 1
1, 0
2, 3
1, 0
1, 4
3, 2
1, 1
4, 0
2, 2
0, 3
2, 0
3, 3
5, 0
5, 3
3, 1
7, 0
2, 2
3, 0
2, 2
3, 0
3, 4
2, 2
2, 2
1, 1
6, 5
2, 1
1, 3
2, 1
6, 1
5, 3
8, 3
4, 3
4, 1
7, 4
2, 4
2, 3
0, 0
2, 1
4, 1
2, 3
1, 0
0, 0
1, 1
1, 0
1, 2
6, 2
2, 0
1, 3
1, 1
1, 0
3, 0
0, 0
3, 2
0, 0
4, 3
2, 2
1, 1
0, 1
1, 1
3, 2
1, 1
2, 2
1, 4
1, 1
3, 0
1, 1
2, 1
2, 1
1, 1
1, 0
1, 2
2, 1
2, 0
1, 0
1, 0
2, 2
3, 0
1, 2
2, 1
1, 1
1, 0
2, 1
0, 0
0, 3
1, 2
0, 0
1, 0
1, 1
0, 3
0, 2
0, 1
2, 1
1, 1
4, 1
1, 0
1, 0
0, 0
1, 0
1, 0
1, 0
1, 0
2, 1
1, 2
0, 1
0, 1
4, 1
0, 1
0, 2
0, 1
2, 0
0, 1
2, 1
0, 1
0, 1
0, 0
2, 1
2, 1
1, 1
1, 1
1, 1
0, 2
2, 0
2, 0
2, 1
0, 0
0, 0
0, 2
1, 1
0, 0
0, 0
1, 2
2, 1
0, 2
0, 1
1, 1
1, 1
2, 4
1, 0
3, 0
0, 0
0, 1
0, 0
1, 1
0, 1
1, 0
0, 1
1, 1
2, 1
0, 1
1, 0
1, 0
1, 0
2, 1
0, 0
0, 1
0, 0
0, 0
1, 0
2, 1
0, 0
1, 0
1, 1
0, 0
0, 0
0, 0
0, 2
0, 0
1, 0
0, 0
0, 0
1, 0
3, 0
0, 0
0, 0
1, 0
1, 1
1, 1
1, 0
1, 0
0, 0
0, 0
1, 0
1, 0
0, 1
0, 1
0, 0
0, 1
2, 1
0, 0
0, 0
1, 0
0, 1
0, 0
0, 0
0, 1
1, 0
0, 2
1, 0
0, 1
2, 2
1, 0
0, 1
1, 0
0, 0
1, 0
0, 0
0, 0
1, 0
0, 0
0, 0
0, 0
0, 0
1, 1
0, 0
0, 0
0, 0
0, 1
1, 0
0, 0
0, 0
0, 0
0, 0
0, 0
1, 0
0, 1
1, 0
0, 0
0, 1
1, 0
1, 0
0, 0
0, 0
1, 0
0, 1
0, 0
0, 0
0, 0
0, 0
0, 0
0, 0
1, 0
0, 0
0, 0
0, 0
0, 0
0, 0
0, 1
0, 0
0, 0
0, 0
0, 0
0, 0
0, 0
0, 0
0, 0
0, 0
0, 0
0, 0
0, 1
0, 1
0, 0
0, 0
0, 0
1, 0
0, 0
0, 1
1, 0
0, 1
0, 1
2, 1
0, 0
0, 0
0, 0
0, 0
0, 1
0, 2
1, 0
0, 0
0, 0
0, 0
0, 0
0, 0
0, 0
0, 0
0, 0
0, 0
0, 0
0, 0
0, 0
2, 1
0, 0
0, 0
0, 0
0, 1
1, 0
1, 3
0, 0
0, 0
0, 0
1, 0
1, 1
0, 0
0, 0
1, 0
0, 0
0, 0
0, 0
0, 0
0, 0
0, 0
0, 0
0, 0
0, 0
0, 0
0, 1
0, 1
0, 0
0, 0
0, 0
0, 0
0, 0
0, 0
0, 0
0, 0
0, 0
0, 0
0, 0
0, 1
0, 0
0, 0
0, 0
0, 0
0, 0
0, 0
0, 0
0, 0
0, 0
0, 0
0, 1
0, 0
0, 1
0, 1
0, 1
0, 0
0, 0
0, 0
0, 0
0, 0
0, 0
0, 0
0, 0
0, 0
1, 0
0, 0
1, 0
0, 0
0, 1
0, 0
0, 0
0, 0
0, 0
0, 0
0, 0
0, 0
0, 0
0, 0
0, 0
0, 0
0, 0
0, 0
0, 0
0, 0
0, 0
1, 0
0, 0
0, 0
0, 0
0, 0
0, 0
0, 0
0, 0
0, 0
0, 0
0, 0
0, 0
0, 0
0, 0
1, 0
0, 0
0, 0
0, 0
0, 0
0, 0
0, 0
0, 0
0, 0
0, 0
0, 0
0, 0
0, 0
0, 0
0, 0
0, 0
0, 0
0, 0
0, 0
0, 0
0, 0
0, 0
0, 0
0, 0
0, 0
0, 0
0, 0
0, 0
0, 0
0, 0
1, 0
0, 0
0, 0
0, 0
0, 0
0, 0
0, 0
0, 0
0, 0
0, 0
0, 0
0, 0
0, 1
0, 0
0, 0
0, 0
0, 0
0, 0
0, 0
0, 0
0, 1
0, 0
0, 0
0, 0
0, 0
0, 0
0, 0
0, 0
0, 0
0, 0
0, 0
0, 0
0, 0
0, 0
0, 0
0, 0
0, 0
0, 0
0, 0
0, 0
0, 0
0, 0
0, 0
0, 0
0, 0
0, 0
0, 0
0, 0
0, 0
0, 0
0, 0
0, 0
0, 0
0, 0
0, 1
0, 0
0, 0
0, 0
0, 0
0, 0
0, 0
0, 0
0, 0
0, 0
0, 0
0, 0
0, 0
0, 0
0, 0
0, 0
0, 0
0, 0
0, 0
0, 0
0, 0
0, 0
0, 0
0, 0
0, 0
0, 0
0, 0
0, 0
0, 0
0, 0
0, 0
0, 0
0, 0
0, 0
0, 0
0, 0
0, 0
1, 0
0, 0
0, 0
0, 0
0, 0
0, 0
0, 0
0, 0
0, 0
0, 0
0, 0
0, 0
0, 0
0, 0
0, 0
0, 0
0, 0
0, 0
0, 0
0, 0
0, 0
0, 0
0, 0
0, 0
0, 0
0, 0
0, 0
0, 0
0, 0
0, 0
0, 0
0, 0
0, 0
0, 0
0, 0
0, 0
0, 0
0, 0
0, 0
0, 0
0, 0
0, 0
0, 0
0, 0
0, 0
0, 0
0, 0
0, 0
0, 0
0, 0
0, 0
1, 0
0, 0
0, 0
0, 0
0, 0
0, 0
0, 0
0, 0
0, 0
0, 0
0, 0
0, 0
0, 0
0, 0
0, 0
0, 0
0, 0
0, 0
0, 0
0, 0
0, 0
0, 0
0, 0
0, 0
0, 0
0, 0
0, 0
0, 0
0, 0
0, 0
0, 0
0, 0
0, 0
0, 0
0, 0
0, 0
0, 0
0, 0
0, 0
0, 0
0, 0
0, 0
0, 0
0, 0
0, 0
0, 0
0, 0
0, 0
0, 0
0, 0
0, 0
0, 0
0, 0
0, 0
0, 0
0, 0
0, 0
0, 0
0, 0
0, 0
0, 0
0, 0
0, 0
0, 0
0, 0
0, 0
0, 0
0, 0
0, 0
0, 0
0, 0
0, 0
0, 0
0, 0
0, 0
0, 0
0, 0
0, 0
0, 0
0, 0
0, 0
0, 0
0, 0
0, 0
0, 0
0, 0
0, 0
0, 0
0, 0
0, 0
0, 0
0, 0
0, 0
0, 0
0, 0
0, 0
0, 0
0, 0
0, 0
0, 0
0, 0
0, 0
0, 0
0, 0
0, 0
0, 0
0, 0
0, 0
0, 0
0, 0
0, 0
0, 0
0, 0
0, 0
0, 0
0, 0
0, 0
0, 0
0, 0
0, 0
0, 0
0, 0
0, 0
0, 0
0, 0
0, 0
0, 0
0, 0
0, 0
0, 0
0, 0
0, 0
0, 0
0, 0
0, 0
0, 0
0, 0
0, 0
0, 0
0, 0
0, 0
0, 0
0, 0
0, 0
0, 0
0, 0
0, 0
0, 0
0, 0
0, 0
0, 0
0, 0
0, 0
0, 0
0, 0
0, 0
0, 0
0, 0
0, 0
0, 0
0, 0
0, 0
0, 0
0, 0
0, 0
0, 0
0, 0
0, 0
0, 0
0, 0
0, 0
0, 0
0, 0
0, 0
0, 0
0, 0
0, 0
0, 0
0, 0
0, 0
0, 0
0, 0
0, 0
0, 0
0, 0
0, 0
0, 0
0, 0
0, 0
0, 0
0, 0
0, 0
0, 0
0, 0
0, 0
0, 0
0, 0
0, 0
0, 0
0, 0
0, 0
0, 0
0, 0
0, 0
0, 0
0, 0
0, 0
0, 0
0, 0
0, 0
0, 0
0, 0
0, 0
0, 0
0, 0
0, 0
0, 0
0, 0
0, 0
0, 0
0, 0
0, 0
0, 0
0, 0
0, 0
0, 0
0, 0
0, 0
0, 0
0, 0
0, 0
0, 0
0, 0
0, 0
0, 0
0, 0
0, 0
0, 0
0, 0
0, 0
0, 0
0, 0
0, 0
0, 0
0, 0
0, 0
0, 0
0, 0
0, 0
0, 0
0, 0
0, 0
0, 0
0, 0
0, 0
0, 0
0, 0
0, 0
0, 0
0, 0
0, 0
0, 0
0, 0
0, 0
0, 0
0, 0
0, 0
0, 0
0, 0
0, 0
0, 0
0, 0
0, 0
0, 0
0, 0
0, 0
0, 0
0, 0
0, 0
0, 0
0, 0
0, 0
0, 0
0, 0
0, 0
0, 0
0, 0
0, 0
0, 0
0, 0
0, 0
0, 0
0, 0
0, 0
0, 0
0, 0
#ENDOFDATA     end of spectrum data