File: host_upload/06-09-2024/ps_0852/dump3/ps__0852shot_2121.msa
#FORMAT      : EMSA/MAS spectral data file
#VERSION     : TC202v2.0 PIXL
#TITLE       : N/A
#DATE        :       Date in the format DD-MMM-YYYY, for example 07-JUL-2010
#TIME        :             The time of day at which the spectrum was recorded, in 24-hour format
#OWNER       : PIXL Flight Model       (PIXL will use this to indicate which instrument took the data.)
#NPOINTS     : 4096     Number of data points in the spectrum (This can be zero for configuration only files)
#NCOLUMNS    : 2     Number of data columns in the spectrum (This can be zero for configuration only files)
#XUNITS      : eV
#YUNITS      : COUNTS
#DATATYPE    : YY
#XPERCHAN    : 7.862, 7.881   eV per channel (separate by commas if more than one detector)
#OFFSET      : 18.5, -22.4         eV of first channel  (separate by commas if more than one detector
#SIGNALTYPE  : XRF
#YP_TEMP     : 2.524
#LIVETIME    : 8.56646, 8.57279   seconds (separate by commas if more than one detector)
#REALTIME    : 10, 10.0   seconds (separate by commas if more than one detector)
#SPECTRUM    : start of spectrum data
0, 0
0, 0
0, 0
0, 0
0, 0
0, 0
0, 0
0, 0
0, 0
0, 0
0, 0
0, 0
0, 0
0, 0
0, 0
0, 0
0, 0
0, 0
0, 0
0, 0
0, 0
0, 0
0, 0
0, 0
0, 0
0, 0
0, 0
0, 0
0, 0
0, 0
0, 0
0, 0
0, 0
0, 0
0, 0
0, 1
0, 0
1, 0
0, 2
1, 0
0, 0
2, 3
2, 7
4, 0
1, 0
0, 1
0, 2
4, 4
7, 4
18, 9
18, 24
32, 29
50, 43
72, 56
91, 57
71, 69
56, 48
42, 34
29, 25
24, 7
7, 4
3, 4
2, 4
2, 6
7, 7
7, 6
7, 9
11, 16
24, 23
59, 48
106, 99
195, 186
300, 290
360, 372
465, 416
483, 457
403, 347
328, 263
246, 187
135, 150
75, 58
41, 42
28, 22
20, 19
8, 5
10, 6
5, 1
4, 5
4, 3
3, 0
3, 0
2, 2
0, 2
0, 2
2, 4
6, 9
6, 3
6, 4
4, 3
12, 10
6, 13
8, 6
12, 2
6, 3
6, 8
5, 3
8, 9
4, 13
9, 12
18, 13
21, 19
41, 26
39, 42
45, 50
60, 54
81, 53
56, 55
65, 41
42, 37
47, 32
26, 36
28, 39
28, 20
35, 37
22, 28
20, 22
23, 11
20, 10
8, 5
14, 10
8, 9
6, 9
6, 6
7, 2
0, 5
2, 3
2, 4
1, 4
6, 2
1, 2
4, 4
6, 2
4, 5
4, 3
7, 5
3, 0
5, 6
5, 2
8, 8
12, 11
15, 19
35, 34
59, 59
91, 102
139, 155
192, 159
241, 234
244, 272
270, 206
225, 210
166, 147
124, 112
88, 60
55, 40
34, 37
15, 23
20, 28
25, 25
33, 26
41, 41
30, 36
38, 30
45, 48
41, 37
31, 22
33, 27
30, 16
16, 17
16, 10
16, 22
12, 11
12, 10
11, 12
11, 7
10, 6
7, 10
8, 8
11, 9
15, 9
17, 9
41, 26
25, 19
21, 21
27, 15
28, 13
20, 13
21, 18
39, 18
14, 15
19, 16
7, 11
13, 15
16, 16
8, 14
12, 10
6, 13
8, 11
10, 12
9, 11
5, 3
8, 14
11, 10
9, 10
8, 3
4, 8
3, 7
13, 5
3, 10
6, 11
9, 7
6, 5
10, 6
12, 9
21, 14
19, 14
29, 21
42, 34
54, 27
49, 27
54, 41
54, 46
56, 44
58, 38
47, 39
45, 21
37, 16
26, 16
20, 7
10, 20
7, 20
15, 14
13, 25
8, 19
14, 30
14, 32
16, 34
30, 40
29, 33
49, 53
42, 62
63, 58
65, 76
59, 57
56, 52
49, 47
48, 32
46, 22
42, 31
29, 20
19, 19
33, 28
25, 24
44, 39
68, 94
127, 154
224, 281
408, 452
644, 721
946, 1036
1297, 1369
1599, 1630
1912, 1739
1966, 1797
2037, 1680
1707, 1523
1422, 1168
1083, 870
761, 556
497, 346
331, 220
158, 112
86, 71
57, 35
30, 27
18, 20
17, 18
18, 15
13, 13
20, 14
18, 18
22, 32
22, 33
37, 43
63, 77
93, 109
127, 130
169, 219
237, 220
260, 221
293, 255
254, 287
311, 246
218, 223
204, 163
168, 104
131, 77
57, 54
55, 29
24, 26
15, 11
12, 12
5, 10
12, 6
4, 8
9, 9
11, 14
14, 5
10, 15
13, 11
17, 12
19, 7
9, 6
10, 5
11, 2
9, 3
14, 0
7, 5
4, 1
5, 7
2, 5
8, 4
6, 3
5, 3
4, 3
6, 2
11, 3
3, 4
11, 2
9, 3
12, 2
8, 11
7, 11
8, 5
6, 4
7, 8
4, 9
7, 6
8, 3
7, 13
8, 11
7, 8
10, 7
8, 3
10, 3
6, 9
4, 7
8, 6
12, 7
3, 14
4, 9
5, 9
7, 5
6, 4
6, 6
5, 7
6, 8
3, 9
11, 9
4, 6
10, 10
9, 5
7, 7
4, 7
4, 2
4, 3
8, 4
2, 3
10, 2
4, 6
8, 3
8, 3
4, 9
3, 1
9, 4
7, 2
4, 3
9, 3
10, 6
5, 6
8, 4
7, 2
7, 5
11, 4
5, 5
6, 6
7, 6
7, 3
8, 5
4, 3
3, 4
4, 5
7, 1
2, 3
3, 2
5, 5
6, 4
6, 0
4, 2
3, 4
2, 3
4, 5
2, 2
2, 2
2, 1
8, 3
5, 3
0, 4
4, 2
0, 5
1, 7
2, 2
6, 3
7, 4
0, 6
4, 7
2, 9
5, 4
6, 5
5, 5
5, 4
5, 6
5, 7
3, 7
4, 3
1, 6
5, 4
8, 6
4, 7
5, 7
3, 1
6, 7
5, 4
3, 7
7, 5
5, 6
2, 2
2, 1
4, 5
10, 1
6, 5
4, 6
5, 3
4, 2
8, 2
8, 3
4, 1
1, 3
4, 2
6, 1
5, 8
1, 0
5, 2
3, 0
6, 2
1, 1
2, 1
2, 2
7, 1
1, 4
3, 2
2, 2
6, 0
5, 2
2, 2
3, 2
0, 2
0, 2
3, 3
3, 3
0, 3
2, 1
3, 3
0, 6
2, 3
4, 5
3, 4
1, 4
5, 4
2, 1
2, 3
2, 4
5, 2
1, 5
1, 2
3, 1
2, 0
4, 3
3, 2
2, 4
2, 2
4, 1
4, 2
2, 5
5, 3
6, 1
8, 2
8, 1
6, 1
4, 5
2, 3
5, 2
3, 3
4, 0
1, 0
6, 0
1, 1
0, 1
3, 1
2, 1
2, 1
2, 2
1, 1
1, 1
1, 2
2, 1
1, 3
2, 3
2, 4
2, 0
3, 2
2, 2
0, 3
2, 0
0, 2
0, 2
4, 1
1, 2
0, 1
1, 0
2, 4
1, 4
2, 4
5, 4
7, 3
2, 2
1, 5
3, 2
3, 4
2, 0
2, 1
2, 1
2, 1
1, 1
0, 1
2, 1
0, 0
1, 3
3, 2
1, 1
3, 1
2, 1
1, 1
1, 1
3, 0
2, 0
4, 2
3, 0
3, 3
3, 0
2, 0
0, 1
1, 4
0, 0
1, 0
0, 1
0, 0
0, 1
3, 4
1, 0
4, 1
2, 2
2, 0
0, 0
1, 0
0, 0
2, 2
2, 0
0, 1
2, 1
1, 0
0, 1
0, 1
1, 1
1, 0
1, 3
1, 0
0, 1
1, 1
2, 0
1, 1
0, 0
0, 0
0, 2
1, 1
1, 0
2, 1
0, 1
0, 0
3, 0
0, 2
0, 2
1, 0
0, 0
0, 0
0, 1
2, 0
1, 0
0, 0
1, 1
1, 0
2, 0
2, 0
3, 1
3, 1
2, 1
1, 0
0, 1
0, 0
2, 0
0, 2
1, 0
0, 3
2, 0
0, 0
0, 0
0, 3
0, 2
0, 1
0, 1
0, 1
0, 0
0, 1
1, 0
2, 3
2, 0
2, 0
0, 3
1, 2
0, 0
1, 2
1, 0
1, 2
0, 2
0, 0
1, 0
2, 3
1, 0
0, 0
1, 0
0, 0
1, 1
1, 0
0, 0
0, 1
0, 0
0, 0
0, 0
0, 1
0, 1
1, 0
1, 0
2, 0
0, 0
2, 0
1, 0
0, 0
0, 1
0, 1
1, 1
0, 0
1, 0
0, 0
2, 1
0, 0
0, 1
1, 0
2, 1
1, 0
0, 0
1, 1
3, 0
0, 0
0, 1
0, 1
2, 0
1, 1
1, 0
1, 1
1, 0
0, 1
2, 1
0, 0
1, 0
0, 1
0, 0
0, 1
1, 0
0, 1
0, 0
0, 0
0, 1
0, 0
2, 0
1, 0
0, 0
0, 0
0, 0
1, 0
2, 0
0, 0
1, 0
0, 0
0, 2
0, 1
0, 1
0, 0
0, 0
0, 0
0, 0
0, 0
0, 0
0, 0
0, 0
0, 0
0, 0
0, 1
0, 0
0, 0
0, 1
0, 0
0, 0
1, 0
1, 0
0, 1
0, 0
1, 1
0, 0
0, 0
0, 0
0, 1
0, 0
0, 0
0, 0
0, 0
0, 0
0, 0
0, 0
0, 0
0, 0
0, 0
0, 0
0, 0
0, 0
0, 0
1, 0
0, 0
0, 0
0, 0
0, 0
0, 0
0, 0
0, 0
1, 0
0, 0
0, 1
0, 1
0, 1
0, 0
0, 0
0, 0
0, 0
0, 0
0, 0
0, 0
0, 1
1, 1
0, 0
2, 0
0, 0
0, 0
0, 1
0, 0
0, 0
1, 0
0, 0
0, 0
1, 0
0, 0
1, 1
1, 0
1, 1
0, 0
0, 0
0, 0
0, 0
0, 1
0, 0
0, 0
0, 1
0, 0
0, 0
0, 0
0, 0
0, 0
0, 0
1, 0
1, 0
0, 1
0, 0
0, 0
0, 0
0, 0
2, 0
0, 0
0, 0
0, 0
0, 0
0, 0
0, 0
0, 0
0, 0
0, 0
0, 0
0, 1
0, 2
0, 0
0, 0
0, 0
0, 0
0, 0
0, 0
1, 1
0, 1
0, 0
0, 0
0, 0
0, 0
0, 0
0, 0
0, 0
1, 0
0, 1
0, 0
0, 0
0, 1
0, 0
0, 0
0, 0
0, 0
0, 0
0, 0
0, 2
0, 0
0, 0
0, 0
1, 0
0, 0
0, 0
0, 0
0, 0
0, 0
0, 0
0, 0
0, 0
0, 0
0, 0
0, 1
0, 0
0, 0
1, 0
0, 0
0, 0
0, 0
0, 0
1, 0
0, 0
0, 0
0, 0
0, 0
0, 0
0, 0
0, 0
0, 0
0, 0
0, 0
0, 0
0, 0
0, 0
0, 0
0, 0
0, 0
0, 0
0, 0
0, 0
0, 0
0, 0
0, 0
0, 0
0, 0
0, 0
0, 0
0, 0
0, 0
0, 0
0, 0
0, 0
0, 0
0, 0
0, 0
0, 0
0, 0
0, 0
0, 0
0, 0
1, 0
0, 0
0, 0
0, 0
1, 0
0, 0
0, 0
0, 0
0, 0
0, 0
0, 0
0, 0
0, 0
1, 0
0, 0
0, 0
0, 0
0, 0
0, 0
0, 0
0, 0
0, 0
0, 0
0, 0
0, 0
0, 0
0, 1
0, 0
0, 0
0, 0
0, 0
0, 0
0, 0
0, 0
0, 0
0, 0
0, 0
0, 0
0, 0
0, 0
0, 0
0, 0
0, 0
0, 0
0, 0
0, 0
0, 0
0, 0
0, 0
0, 0
0, 0
1, 0
0, 0
0, 0
0, 0
0, 0
0, 0
0, 0
0, 1
0, 0
0, 0
0, 0
0, 0
0, 0
0, 0
0, 0
0, 0
0, 0
0, 0
0, 0
0, 0
0, 0
0, 0
0, 0
0, 0
0, 0
0, 0
0, 0
0, 0
0, 0
0, 0
0, 0
0, 0
0, 0
0, 0
0, 0
0, 0
0, 0
0, 0
0, 0
0, 0
0, 0
0, 0
0, 0
0, 0
0, 0
0, 0
0, 0
0, 0
0, 0
0, 0
0, 0
0, 0
0, 0
0, 0
0, 0
0, 0
0, 0
0, 0
0, 0
0, 0
0, 0
0, 0
0, 0
0, 0
0, 0
0, 0
0, 0
0, 0
0, 0
0, 0
0, 0
0, 0
0, 0
0, 0
0, 0
0, 0
0, 0
0, 0
0, 0
0, 0
0, 0
0, 0
0, 0
0, 0
0, 0
0, 0
0, 0
0, 0
0, 0
0, 0
0, 0
0, 0
0, 0
0, 0
0, 0
0, 0
0, 0
0, 0
0, 0
0, 0
0, 0
0, 0
0, 0
0, 0
0, 0
0, 1
0, 0
0, 0
0, 0
0, 0
0, 0
0, 0
0, 0
0, 0
0, 0
0, 0
0, 0
0, 0
0, 0
0, 0
0, 0
0, 0
0, 0
0, 0
0, 0
0, 0
0, 0
0, 0
0, 0
0, 0
0, 0
0, 0
0, 0
0, 0
0, 0
0, 0
0, 0
0, 0
0, 0
0, 0
0, 0
0, 0
0, 0
0, 0
0, 0
0, 0
0, 0
0, 0
0, 0
0, 0
0, 0
0, 0
0, 0
0, 0
0, 0
0, 0
0, 0
0, 0
0, 0
0, 0
0, 0
0, 0
0, 0
0, 0
0, 0
0, 0
0, 0
0, 0
0, 0
0, 0
0, 0
0, 0
0, 0
0, 0
0, 0
0, 0
0, 0
0, 0
0, 0
0, 0
0, 0
0, 0
0, 0
0, 0
0, 0
0, 0
0, 0
0, 0
0, 0
0, 0
0, 0
0, 0
0, 0
0, 0
0, 0
0, 0
0, 0
0, 0
0, 0
0, 0
0, 0
0, 0
0, 0
0, 0
0, 0
0, 0
0, 0
0, 0
0, 0
0, 0
0, 0
0, 0
0, 0
0, 0
0, 0
0, 0
0, 0
0, 0
0, 0
0, 0
0, 0
0, 0
0, 0
0, 0
0, 0
0, 0
0, 0
0, 0
0, 0
0, 0
0, 0
0, 0
0, 0
0, 0
0, 0
0, 0
0, 0
0, 0
0, 0
0, 0
0, 0
0, 0
0, 0
0, 0
0, 0
0, 0
0, 0
0, 0
0, 0
0, 0
0, 0
0, 0
0, 0
0, 0
0, 0
0, 0
0, 0
0, 0
0, 0
0, 0
0, 0
0, 0
0, 0
0, 0
0, 0
0, 0
0, 0
0, 0
0, 0
0, 0
0, 0
0, 0
0, 0
0, 0
0, 0
0, 0
0, 0
0, 0
0, 0
0, 0
0, 0
0, 0
0, 0
0, 0
0, 0
0, 0
0, 0
0, 0
0, 0
0, 0
0, 0
0, 0
0, 0
0, 0
0, 0
0, 0
0, 0
0, 0
0, 0
0, 0
0, 0
0, 0
0, 0
0, 0
0, 0
0, 0
0, 0
0, 0
0, 0
0, 0
0, 0
0, 0
0, 0
0, 0
0, 0
0, 0
0, 0
0, 0
0, 0
0, 0
0, 0
0, 0
0, 0
0, 0
0, 0
0, 0
0, 0
0, 0
0, 0
0, 0
0, 0
0, 0
0, 0
0, 0
0, 0
0, 0
0, 0
0, 0
0, 0
0, 0
0, 0
0, 0
0, 0
0, 0
0, 0
0, 0
0, 0
0, 0
0, 0
0, 0
0, 0
0, 0
0, 0
0, 0
0, 0
0, 0
0, 0
0, 0
0, 0
0, 0
0, 0
0, 0
0, 0
0, 0
0, 0
0, 0
0, 0
0, 0
0, 0
0, 0
0, 0
0, 0
0, 0
0, 0
0, 0
0, 0
0, 0
0, 0
0, 0
0, 0
0, 0
0, 0
0, 0
0, 0
0, 0
0, 0
0, 0
0, 0
0, 0
0, 0
0, 0
#ENDOFDATA     end of spectrum data