File: host_upload/06-09-2024/ps_0852/dump3/ps__0852shot_2536.msa
#FORMAT      : EMSA/MAS spectral data file
#VERSION     : TC202v2.0 PIXL
#TITLE       : N/A
#DATE        :       Date in the format DD-MMM-YYYY, for example 07-JUL-2010
#TIME        :             The time of day at which the spectrum was recorded, in 24-hour format
#OWNER       : PIXL Flight Model       (PIXL will use this to indicate which instrument took the data.)
#NPOINTS     : 4096     Number of data points in the spectrum (This can be zero for configuration only files)
#NCOLUMNS    : 2     Number of data columns in the spectrum (This can be zero for configuration only files)
#XUNITS      : eV
#YUNITS      : COUNTS
#DATATYPE    : YY
#XPERCHAN    : 7.862, 7.881   eV per channel (separate by commas if more than one detector)
#OFFSET      : 18.5, -22.4         eV of first channel  (separate by commas if more than one detector
#SIGNALTYPE  : XRF
#YP_TEMP     : 2.203
#LIVETIME    : 8.55739, 8.55782   seconds (separate by commas if more than one detector)
#REALTIME    : 10, 10.0   seconds (separate by commas if more than one detector)
#SPECTRUM    : start of spectrum data
0, 0
0, 0
0, 0
0, 0
0, 0
0, 0
0, 0
0, 0
0, 0
0, 0
0, 0
0, 0
0, 0
0, 0
0, 0
0, 0
0, 0
0, 0
0, 0
0, 0
0, 0
0, 0
0, 0
0, 0
0, 0
0, 0
0, 0
0, 0
0, 0
0, 0
0, 0
0, 1
0, 0
0, 0
0, 0
0, 0
0, 0
1, 1
0, 0
1, 2
2, 1
1, 3
1, 2
0, 3
0, 2
0, 2
3, 1
1, 1
9, 4
12, 12
24, 24
45, 27
57, 41
89, 72
85, 68
84, 68
73, 60
48, 23
33, 22
20, 19
8, 7
4, 5
2, 4
5, 2
1, 0
2, 1
5, 5
6, 11
21, 16
42, 45
81, 83
164, 169
264, 229
379, 325
475, 381
453, 374
379, 337
321, 244
208, 137
131, 91
82, 50
25, 22
19, 13
9, 9
6, 8
5, 6
3, 1
0, 2
4, 1
2, 2
3, 1
1, 5
3, 2
11, 4
12, 10
14, 8
26, 23
42, 13
35, 32
39, 25
38, 30
26, 26
25, 14
17, 13
11, 7
4, 15
13, 9
9, 12
10, 14
27, 14
31, 20
44, 34
45, 52
53, 64
67, 84
74, 81
58, 73
43, 58
31, 69
39, 57
31, 41
29, 26
31, 36
26, 27
24, 14
15, 30
17, 23
14, 17
13, 14
12, 3
6, 4
4, 5
3, 5
3, 8
2, 3
2, 2
4, 6
3, 4
7, 2
4, 3
3, 2
8, 5
2, 7
2, 5
3, 2
0, 1
4, 2
2, 4
4, 5
2, 4
2, 6
11, 5
12, 8
10, 13
15, 17
20, 19
25, 22
24, 24
22, 19
21, 19
25, 21
16, 16
10, 10
8, 5
7, 11
5, 7
7, 9
9, 9
6, 7
2, 13
8, 5
6, 9
9, 10
4, 7
11, 7
10, 7
13, 12
24, 11
16, 18
31, 12
36, 18
35, 10
41, 20
30, 11
21, 13
18, 8
9, 7
15, 13
11, 6
7, 15
14, 13
17, 24
12, 17
10, 18
17, 15
15, 15
15, 20
24, 16
18, 15
32, 15
21, 19
18, 18
21, 13
24, 13
33, 17
34, 12
35, 24
42, 16
25, 13
36, 12
28, 16
18, 9
17, 10
12, 6
12, 9
9, 6
9, 7
4, 5
17, 6
7, 5
11, 8
9, 10
6, 9
7, 7
9, 16
10, 9
17, 11
17, 15
21, 14
21, 30
20, 19
23, 14
32, 19
31, 28
12, 20
19, 10
18, 10
12, 13
14, 11
15, 12
14, 10
16, 12
15, 18
10, 18
13, 16
28, 28
21, 32
47, 49
37, 61
62, 69
68, 60
55, 67
54, 64
59, 53
57, 41
40, 37
25, 42
34, 26
30, 34
19, 28
23, 34
31, 40
42, 59
94, 119
163, 182
302, 337
535, 559
808, 940
1169, 1219
1689, 1686
2105, 2118
2435, 2311
2607, 2408
2480, 2180
2257, 1919
1838, 1434
1356, 1038
910, 714
612, 404
332, 233
201, 123
110, 61
66, 47
36, 21
30, 20
27, 21
20, 19
25, 20
29, 22
26, 21
22, 26
39, 30
51, 59
85, 74
109, 115
145, 175
197, 206
300, 288
354, 345
359, 339
399, 349
370, 324
337, 268
238, 200
181, 150
153, 99
94, 47
56, 46
37, 27
16, 11
11, 15
5, 10
14, 8
11, 6
20, 9
20, 17
13, 10
19, 19
14, 16
21, 10
11, 9
10, 9
10, 17
8, 7
6, 5
6, 7
8, 1
10, 4
6, 6
4, 1
8, 6
5, 1
3, 3
3, 10
8, 3
5, 3
4, 3
5, 7
5, 6
10, 4
15, 10
7, 8
7, 4
9, 8
4, 5
4, 5
17, 4
12, 5
5, 10
7, 6
10, 8
10, 7
10, 12
5, 6
10, 7
3, 9
10, 4
10, 1
2, 1
9, 9
10, 4
2, 6
4, 8
4, 5
5, 4
4, 4
2, 6
6, 10
6, 6
8, 4
6, 1
8, 6
4, 6
2, 3
3, 9
8, 2
5, 5
3, 1
5, 2
4, 5
3, 5
6, 4
4, 3
7, 6
8, 3
7, 8
8, 3
3, 6
4, 6
8, 8
2, 9
4, 5
1, 6
5, 2
7, 2
6, 6
2, 4
5, 6
5, 3
4, 5
3, 4
7, 6
1, 9
2, 2
5, 4
7, 2
7, 6
5, 7
2, 4
10, 7
2, 7
7, 4
12, 4
12, 3
11, 0
7, 5
5, 3
6, 6
7, 1
10, 7
6, 4
9, 8
7, 4
8, 6
5, 4
8, 4
3, 3
5, 7
2, 5
5, 5
6, 12
8, 8
4, 4
6, 4
1, 0
3, 1
5, 3
1, 6
3, 3
9, 1
3, 4
1, 3
5, 2
4, 2
4, 3
4, 2
8, 3
5, 10
5, 1
4, 1
1, 2
3, 4
2, 4
0, 5
0, 1
3, 1
3, 9
1, 0
5, 3
3, 2
1, 4
2, 0
0, 1
3, 2
7, 5
4, 1
4, 2
4, 2
3, 3
2, 2
2, 4
2, 1
4, 3
2, 0
1, 0
4, 4
3, 3
3, 2
2, 5
2, 1
3, 5
4, 1
3, 1
3, 5
2, 3
5, 4
2, 0
2, 5
1, 2
3, 2
1, 2
2, 1
2, 1
3, 1
3, 2
6, 4
4, 1
1, 3
3, 2
3, 0
1, 6
1, 6
4, 1
4, 3
1, 4
2, 2
4, 4
2, 3
1, 1
3, 3
3, 2
2, 1
1, 0
0, 2
0, 2
1, 2
0, 0
4, 2
0, 0
2, 1
3, 0
3, 3
4, 2
2, 0
2, 3
2, 3
2, 1
1, 1
1, 2
2, 2
2, 3
1, 0
3, 1
1, 3
1, 3
3, 2
1, 6
5, 0
5, 2
6, 0
5, 5
10, 0
9, 5
3, 1
2, 3
3, 3
4, 5
4, 0
2, 0
2, 1
2, 1
0, 4
4, 2
0, 0
1, 0
2, 0
3, 2
1, 3
3, 3
2, 0
5, 4
1, 1
0, 1
2, 1
4, 1
3, 1
1, 1
1, 1
0, 3
1, 2
0, 1
3, 2
1, 2
2, 3
4, 1
1, 3
0, 2
2, 2
2, 1
6, 1
0, 0
3, 0
3, 0
3, 1
1, 0
2, 1
2, 1
0, 3
1, 1
1, 2
2, 0
2, 1
0, 3
1, 0
1, 2
3, 0
5, 0
1, 1
3, 0
2, 4
0, 2
3, 2
2, 0
0, 0
1, 0
3, 2
2, 2
1, 1
0, 1
2, 0
0, 1
1, 1
0, 0
1, 0
0, 2
0, 2
1, 1
2, 1
0, 1
1, 2
1, 0
1, 0
1, 1
1, 1
0, 0
1, 1
3, 1
0, 3
0, 2
2, 0
0, 1
0, 0
0, 1
2, 2
1, 1
0, 0
0, 0
1, 0
0, 2
0, 3
0, 1
0, 1
2, 0
0, 0
0, 0
3, 1
0, 1
1, 1
2, 2
0, 1
0, 0
2, 1
1, 0
1, 0
0, 0
2, 2
0, 0
1, 0
2, 0
0, 0
1, 0
0, 1
1, 0
0, 0
0, 0
1, 3
1, 0
0, 0
0, 1
0, 1
0, 0
0, 3
0, 0
0, 4
1, 0
0, 1
1, 1
0, 0
0, 0
0, 1
1, 0
1, 0
0, 1
0, 0
0, 1
1, 1
1, 0
1, 2
1, 1
0, 0
0, 0
2, 0
0, 0
1, 0
0, 1
1, 1
1, 1
1, 0
0, 1
0, 1
0, 0
0, 1
1, 2
0, 2
0, 0
0, 1
0, 3
0, 0
1, 0
0, 0
1, 0
0, 0
0, 0
0, 1
0, 0
0, 0
0, 1
1, 0
0, 1
0, 1
0, 0
1, 0
0, 0
0, 1
0, 0
0, 0
1, 0
0, 1
0, 0
0, 0
0, 1
0, 0
0, 2
0, 0
0, 0
0, 1
2, 0
0, 0
0, 0
0, 0
0, 0
0, 1
0, 0
0, 0
0, 0
1, 0
0, 0
0, 0
0, 0
0, 0
0, 0
0, 0
0, 0
0, 0
0, 1
0, 0
1, 0
0, 0
0, 0
1, 0
0, 0
0, 0
0, 0
0, 0
0, 1
0, 1
0, 0
0, 0
0, 0
2, 0
0, 0
0, 0
0, 0
0, 0
1, 0
0, 0
0, 0
0, 0
1, 0
0, 0
0, 1
0, 0
0, 0
0, 0
0, 0
0, 0
0, 0
0, 0
0, 1
1, 0
2, 0
1, 0
2, 0
0, 0
0, 0
1, 0
0, 0
0, 1
1, 0
0, 1
0, 0
1, 0
3, 0
0, 0
1, 0
0, 0
0, 0
0, 0
0, 0
0, 0
0, 0
0, 0
0, 1
0, 0
0, 0
0, 1
1, 0
0, 0
0, 0
0, 0
0, 0
0, 1
0, 2
0, 0
0, 0
0, 0
0, 0
0, 0
0, 0
0, 0
1, 0
0, 0
2, 0
0, 1
0, 1
0, 1
0, 0
0, 0
0, 0
0, 0
0, 0
0, 1
0, 1
0, 0
0, 1
0, 0
0, 1
1, 0
0, 0
0, 1
0, 0
0, 0
1, 0
1, 0
1, 0
0, 0
0, 0
0, 0
0, 0
0, 0
0, 0
0, 0
1, 0
0, 0
0, 0
0, 0
0, 0
0, 0
0, 0
0, 0
0, 1
0, 0
0, 0
0, 0
0, 0
0, 0
0, 0
0, 0
0, 0
1, 0
0, 0
0, 0
0, 0
0, 0
0, 0
0, 0
0, 0
0, 1
0, 0
0, 0
1, 0
0, 0
2, 0
0, 0
0, 0
0, 0
0, 0
0, 0
0, 0
0, 1
0, 0
0, 0
0, 0
0, 0
0, 0
0, 1
0, 0
0, 0
0, 0
0, 0
0, 0
0, 0
0, 0
0, 0
0, 0
0, 0
0, 0
1, 0
0, 0
0, 0
0, 0
0, 0
0, 0
0, 0
0, 0
0, 0
0, 0
0, 0
0, 0
0, 0
0, 0
0, 0
0, 0
0, 0
0, 0
0, 0
0, 0
0, 0
0, 0
0, 0
0, 0
0, 0
0, 0
0, 0
0, 0
0, 0
0, 0
0, 0
0, 0
0, 0
0, 0
0, 0
0, 0
0, 0
0, 0
0, 0
0, 0
0, 0
0, 0
0, 0
0, 0
0, 0
0, 0
1, 0
0, 0
1, 0
0, 0
0, 0
0, 0
0, 0
0, 0
0, 0
0, 0
0, 0
0, 0
0, 0
0, 0
0, 0
0, 0
0, 0
0, 0
0, 0
0, 0
0, 0
0, 0
0, 0
0, 0
0, 0
0, 0
0, 0
0, 0
0, 0
0, 0
0, 0
0, 0
0, 1
0, 0
0, 0
0, 0
0, 0
0, 0
0, 0
0, 0
0, 0
0, 0
0, 0
0, 0
0, 0
0, 0
0, 0
0, 0
0, 0
0, 0
0, 0
0, 0
0, 0
0, 0
0, 0
0, 0
0, 1
0, 0
0, 0
0, 0
0, 0
0, 0
0, 0
0, 0
0, 0
0, 0
0, 0
0, 0
0, 0
0, 0
0, 0
0, 0
0, 0
0, 0
0, 0
0, 0
0, 0
0, 0
0, 0
0, 0
0, 0
0, 0
0, 0
0, 0
0, 0
0, 0
0, 0
0, 0
0, 0
0, 0
0, 0
0, 0
0, 0
0, 0
0, 0
0, 0
0, 0
0, 0
0, 0
0, 0
0, 0
0, 0
0, 0
0, 0
0, 0
0, 0
0, 0
0, 0
0, 0
0, 0
0, 0
0, 0
0, 0
0, 0
0, 0
0, 0
0, 0
0, 0
0, 0
0, 0
0, 0
0, 0
0, 0
0, 0
0, 0
0, 0
0, 0
0, 0
0, 0
0, 0
0, 0
0, 0
0, 0
0, 0
0, 0
0, 0
0, 0
0, 0
0, 0
0, 0
0, 0
0, 0
0, 0
0, 0
0, 0
0, 0
0, 0
0, 0
0, 0
0, 0
0, 0
0, 0
0, 0
0, 0
0, 0
0, 0
0, 0
0, 0
0, 0
0, 0
0, 0
0, 0
0, 0
0, 0
0, 0
0, 0
0, 0
0, 0
0, 0
0, 0
0, 0
0, 0
0, 0
0, 0
0, 0
0, 0
0, 0
0, 0
0, 0
0, 0
0, 0
0, 0
0, 0
0, 0
0, 0
0, 0
0, 0
0, 0
0, 0
0, 0
0, 0
0, 0
0, 0
0, 0
0, 0
0, 0
0, 0
0, 0
0, 0
0, 0
0, 0
0, 0
0, 0
0, 0
0, 0
0, 0
0, 0
0, 0
0, 0
0, 0
0, 0
0, 0
0, 0
0, 0
0, 0
0, 0
0, 0
0, 0
0, 0
0, 0
0, 0
0, 0
0, 0
0, 0
0, 0
0, 0
0, 0
0, 0
0, 0
0, 0
0, 0
0, 0
0, 0
0, 0
0, 0
0, 0
0, 0
0, 0
0, 0
0, 0
0, 0
0, 0
0, 0
0, 0
0, 0
0, 0
0, 0
0, 0
0, 0
0, 0
0, 0
0, 0
0, 0
0, 0
0, 0
0, 0
0, 0
0, 0
0, 0
0, 0
0, 0
0, 0
0, 0
0, 0
0, 0
0, 0
0, 0
0, 0
0, 0
0, 0
0, 0
0, 0
0, 0
0, 0
0, 0
0, 0
0, 0
0, 0
0, 0
0, 0
0, 0
0, 0
0, 0
0, 0
0, 0
0, 0
0, 0
0, 0
0, 0
0, 0
0, 0
0, 0
0, 0
0, 0
0, 0
0, 0
0, 0
0, 0
0, 0
0, 0
0, 0
0, 0
0, 0
0, 0
0, 0
0, 0
0, 0
0, 0
0, 0
0, 0
0, 0
0, 0
0, 0
0, 0
0, 0
0, 0
0, 0
0, 0
0, 0
0, 0
0, 0
0, 0
0, 0
0, 0
0, 0
0, 0
0, 0
0, 0
0, 0
0, 0
0, 0
0, 0
0, 0
0, 0
0, 0
0, 0
0, 0
0, 0
0, 0
0, 0
0, 0
0, 0
0, 0
0, 0
0, 0
0, 0
0, 0
0, 0
0, 0
0, 0
0, 0
0, 0
0, 0
0, 0
0, 0
0, 0
0, 0
0, 0
0, 0
0, 0
0, 0
0, 0
0, 0
0, 0
0, 0
0, 0
0, 0
0, 0
0, 0
0, 0
0, 0
0, 0
0, 0
0, 0
0, 0
0, 0
0, 0
0, 0
0, 0
0, 0
0, 0
0, 0
0, 0
0, 0
0, 0
0, 0
0, 0
0, 0
0, 0
0, 0
0, 0
0, 0
0, 0
0, 0
0, 0
0, 0
0, 0
0, 0
0, 0
0, 0
0, 0
0, 0
0, 0
#ENDOFDATA     end of spectrum data