File: host_upload/06-09-2024/ps_0852/dump3/ps__0852shot_2459.msa
#FORMAT      : EMSA/MAS spectral data file
#VERSION     : TC202v2.0 PIXL
#TITLE       : N/A
#DATE        :       Date in the format DD-MMM-YYYY, for example 07-JUL-2010
#TIME        :             The time of day at which the spectrum was recorded, in 24-hour format
#OWNER       : PIXL Flight Model       (PIXL will use this to indicate which instrument took the data.)
#NPOINTS     : 4096     Number of data points in the spectrum (This can be zero for configuration only files)
#NCOLUMNS    : 2     Number of data columns in the spectrum (This can be zero for configuration only files)
#XUNITS      : eV
#YUNITS      : COUNTS
#DATATYPE    : YY
#XPERCHAN    : 7.862, 7.881   eV per channel (separate by commas if more than one detector)
#OFFSET      : 18.5, -22.4         eV of first channel  (separate by commas if more than one detector
#SIGNALTYPE  : XRF
#YP_TEMP     : 2.075
#LIVETIME    : 8.56959, 8.37179   seconds (separate by commas if more than one detector)
#REALTIME    : 10, 10.0   seconds (separate by commas if more than one detector)
#SPECTRUM    : start of spectrum data
0, 0
0, 0
0, 0
0, 0
0, 0
0, 0
0, 0
0, 0
0, 0
0, 0
0, 0
0, 0
0, 0
0, 0
0, 0
0, 0
0, 0
0, 0
0, 0
0, 0
0, 0
0, 0
0, 0
0, 0
0, 0
0, 0
0, 0
0, 0
0, 0
0, 0
0, 0
0, 0
0, 0
0, 0
0, 0
1, 0
0, 0
0, 0
0, 1
2, 0
0, 1
2, 2
1, 1
1, 1
0, 1
0, 1
4, 5
3, 1
7, 4
9, 15
34, 24
37, 36
73, 58
70, 91
76, 84
71, 74
68, 55
44, 52
24, 29
20, 15
5, 8
4, 4
5, 4
2, 2
1, 4
5, 3
6, 5
11, 5
25, 18
44, 58
84, 96
153, 167
268, 272
328, 390
378, 404
447, 403
358, 360
313, 280
211, 181
112, 118
69, 75
30, 33
15, 26
13, 11
3, 3
3, 1
3, 2
2, 0
0, 1
0, 2
0, 2
1, 0
1, 2
0, 2
4, 0
5, 0
11, 1
14, 6
4, 9
8, 8
9, 5
3, 14
4, 0
6, 7
6, 6
5, 1
14, 3
10, 4
9, 4
11, 9
16, 11
10, 19
25, 18
15, 29
29, 21
41, 29
20, 38
23, 24
23, 28
17, 11
17, 20
16, 18
19, 15
16, 10
9, 9
21, 8
14, 15
9, 7
11, 12
5, 7
7, 1
5, 4
3, 0
2, 1
2, 2
2, 3
2, 2
1, 4
2, 2
2, 1
3, 1
1, 1
1, 2
2, 0
1, 3
2, 0
2, 5
1, 0
1, 2
1, 0
4, 3
3, 2
5, 8
3, 12
6, 13
8, 9
20, 28
13, 17
21, 24
11, 9
6, 14
7, 8
6, 8
3, 1
4, 7
5, 1
0, 4
3, 1
3, 4
3, 3
1, 3
5, 3
0, 3
2, 6
0, 5
3, 3
5, 5
1, 1
1, 2
3, 1
2, 3
1, 4
0, 5
4, 2
2, 5
2, 2
0, 5
4, 2
7, 7
2, 10
13, 10
9, 13
10, 13
9, 12
11, 13
5, 12
9, 13
8, 19
12, 19
10, 12
18, 10
11, 14
11, 6
8, 6
7, 4
1, 1
4, 5
3, 4
5, 6
4, 6
2, 3
5, 10
4, 1
3, 5
9, 2
7, 3
4, 3
8, 9
7, 2
9, 4
7, 3
2, 6
6, 7
4, 9
9, 5
14, 8
18, 10
29, 13
36, 10
77, 13
78, 12
89, 11
109, 22
113, 11
103, 11
99, 3
75, 8
60, 8
48, 9
41, 9
19, 8
14, 5
9, 6
13, 11
17, 8
17, 19
33, 29
37, 31
65, 46
87, 68
99, 62
123, 66
117, 58
92, 55
66, 38
68, 32
71, 16
49, 22
37, 18
33, 16
31, 23
25, 34
43, 50
77, 97
140, 190
279, 373
451, 611
775, 971
1169, 1364
1555, 1728
2000, 2200
2182, 2413
2395, 2505
2281, 2285
2155, 2004
1676, 1543
1340, 1075
917, 753
565, 428
335, 238
205, 147
95, 65
61, 35
28, 15
23, 13
12, 14
19, 10
11, 14
11, 26
17, 13
17, 25
37, 37
42, 55
43, 82
94, 104
157, 179
190, 230
278, 294
307, 340
355, 346
341, 381
306, 318
272, 283
233, 212
180, 143
137, 113
95, 62
59, 30
28, 29
17, 14
2, 10
7, 5
10, 14
12, 4
6, 10
9, 15
11, 11
10, 6
14, 13
7, 5
15, 9
8, 9
8, 6
5, 8
6, 5
9, 4
5, 5
3, 5
3, 8
3, 8
3, 13
2, 8
6, 15
6, 8
8, 14
5, 12
7, 13
13, 15
15, 5
16, 4
6, 5
10, 1
9, 5
10, 6
5, 4
9, 6
8, 6
4, 5
6, 7
8, 2
5, 6
5, 5
10, 2
8, 5
7, 4
6, 7
5, 6
9, 4
11, 5
13, 5
13, 6
11, 1
5, 2
5, 4
4, 6
11, 4
8, 4
4, 1
9, 4
7, 0
5, 3
10, 5
14, 6
16, 3
16, 4
23, 4
22, 6
27, 1
34, 7
25, 10
27, 9
24, 10
20, 8
18, 12
12, 8
14, 8
9, 16
5, 9
6, 8
4, 3
3, 7
6, 3
6, 8
6, 3
5, 4
4, 1
6, 2
8, 5
3, 6
1, 2
3, 3
4, 3
3, 4
3, 2
4, 4
1, 2
0, 6
5, 7
3, 7
1, 8
2, 9
3, 4
4, 2
5, 5
3, 5
2, 3
3, 4
4, 2
0, 3
3, 2
4, 4
3, 0
4, 2
1, 1
5, 0
1, 3
6, 3
2, 1
3, 4
3, 3
3, 1
1, 1
3, 3
2, 4
3, 3
5, 4
1, 4
5, 3
2, 2
5, 2
3, 2
2, 3
2, 2
3, 7
3, 1
3, 3
4, 8
1, 5
1, 3
1, 2
4, 1
0, 2
2, 5
4, 4
1, 3
4, 2
3, 1
4, 4
8, 4
3, 0
1, 5
5, 2
9, 1
3, 1
8, 3
6, 2
4, 1
10, 4
8, 2
4, 2
9, 2
4, 2
5, 2
2, 1
4, 3
5, 1
1, 3
0, 2
2, 3
3, 1
0, 0
2, 3
0, 3
0, 2
0, 2
1, 1
4, 1
1, 0
1, 0
2, 2
2, 3
1, 1
2, 3
4, 3
1, 2
2, 1
2, 4
2, 4
3, 6
2, 2
1, 6
2, 3
0, 0
2, 3
2, 1
1, 1
2, 5
1, 3
1, 0
3, 0
3, 0
1, 1
1, 2
1, 1
2, 4
2, 4
2, 2
2, 1
3, 0
1, 6
4, 3
3, 1
2, 5
3, 3
1, 3
4, 4
1, 5
0, 3
0, 2
3, 4
2, 2
1, 0
6, 1
2, 2
4, 2
2, 3
3, 0
2, 3
3, 0
4, 3
4, 7
5, 1
1, 5
3, 3
7, 4
5, 3
4, 3
4, 2
2, 1
4, 2
1, 2
1, 1
1, 0
0, 1
1, 1
0, 3
0, 1
1, 1
0, 3
1, 0
2, 5
0, 2
1, 2
0, 3
1, 2
2, 1
0, 4
1, 0
1, 3
2, 1
3, 1
3, 1
3, 2
3, 3
3, 1
0, 3
1, 0
1, 2
2, 1
0, 3
0, 1
1, 4
2, 0
3, 0
0, 1
2, 4
0, 0
1, 1
0, 1
1, 0
0, 1
2, 1
0, 0
1, 1
0, 2
1, 1
2, 0
0, 0
1, 0
2, 0
2, 1
0, 1
0, 0
0, 0
0, 1
1, 3
2, 3
0, 2
2, 1
1, 0
1, 1
0, 0
3, 1
0, 0
1, 1
0, 0
0, 1
0, 0
0, 2
0, 0
1, 0
0, 1
0, 0
1, 0
1, 3
5, 2
2, 0
2, 3
0, 0
0, 0
0, 1
2, 1
1, 1
3, 0
0, 0
1, 0
2, 0
2, 0
2, 0
1, 2
4, 0
0, 0
2, 1
2, 1
1, 0
0, 2
1, 0
1, 1
1, 2
0, 1
0, 2
2, 0
2, 0
0, 0
0, 0
1, 0
0, 0
0, 2
1, 0
0, 0
0, 0
0, 2
0, 1
0, 0
0, 1
0, 1
1, 0
0, 0
3, 0
0, 2
1, 0
1, 0
0, 2
0, 0
0, 0
1, 0
0, 0
2, 0
0, 1
0, 1
0, 0
0, 1
3, 2
2, 0
1, 2
1, 0
0, 0
1, 1
0, 1
1, 0
1, 1
1, 0
2, 1
0, 0
0, 2
0, 0
0, 1
0, 1
0, 2
0, 2
0, 1
0, 0
1, 1
0, 2
0, 2
1, 0
0, 1
1, 1
1, 1
1, 0
0, 0
1, 1
1, 0
0, 0
0, 0
0, 0
0, 2
1, 1
2, 1
0, 0
1, 0
0, 0
0, 0
0, 0
0, 1
0, 0
1, 2
0, 0
0, 1
1, 1
2, 0
0, 0
0, 0
0, 0
0, 0
0, 0
0, 1
0, 1
1, 1
1, 0
0, 0
1, 0
0, 0
0, 0
0, 0
0, 1
0, 0
0, 0
0, 1
1, 0
0, 0
0, 0
0, 0
0, 0
1, 1
0, 0
1, 1
0, 0
0, 0
0, 0
0, 0
0, 0
0, 0
1, 0
0, 0
0, 0
0, 0
0, 1
0, 0
0, 1
0, 0
0, 0
0, 0
0, 0
0, 1
0, 0
0, 0
0, 1
2, 1
0, 0
0, 0
0, 0
0, 0
0, 1
0, 0
1, 0
0, 0
0, 0
0, 0
2, 1
0, 0
0, 1
0, 0
0, 0
1, 1
0, 0
0, 0
1, 0
0, 0
0, 1
1, 1
1, 0
0, 0
0, 0
0, 0
0, 0
0, 0
0, 0
1, 1
0, 0
0, 0
0, 0
0, 0
0, 0
0, 0
0, 0
0, 1
1, 0
0, 0
0, 0
0, 0
0, 1
0, 1
0, 0
0, 0
0, 0
1, 0
0, 1
0, 0
0, 0
0, 0
0, 0
0, 0
0, 0
0, 0
1, 0
1, 1
1, 0
0, 0
0, 0
0, 0
0, 0
1, 0
0, 0
0, 0
0, 0
0, 0
0, 0
1, 0
0, 0
1, 0
1, 0
0, 0
1, 0
0, 1
1, 0
0, 0
0, 0
0, 0
0, 0
0, 0
0, 0
0, 0
0, 0
0, 0
0, 0
0, 0
1, 0
1, 0
0, 0
0, 0
0, 0
0, 0
0, 0
0, 0
0, 0
1, 0
0, 1
0, 0
0, 0
0, 0
1, 0
0, 0
0, 0
1, 0
0, 0
0, 0
0, 0
0, 0
0, 1
0, 0
0, 0
0, 0
1, 1
0, 0
1, 0
0, 0
1, 0
0, 0
0, 1
0, 0
0, 0
0, 0
0, 1
0, 0
0, 0
0, 0
0, 0
0, 0
0, 0
0, 0
0, 0
0, 0
0, 0
0, 0
0, 0
0, 0
0, 1
0, 0
0, 0
0, 0
0, 0
0, 0
0, 0
0, 0
0, 0
0, 0
0, 0
0, 0
1, 0
0, 0
0, 0
0, 0
0, 0
0, 0
0, 0
0, 0
0, 0
0, 0
0, 0
0, 0
0, 0
0, 0
0, 0
0, 0
0, 0
0, 0
0, 0
0, 0
0, 0
0, 0
0, 0
0, 0
0, 0
0, 0
0, 0
0, 0
0, 0
0, 0
0, 0
0, 0
0, 0
0, 0
0, 0
0, 0
0, 0
0, 0
0, 0
0, 0
0, 0
0, 0
0, 0
0, 1
0, 0
0, 0
0, 0
0, 0
1, 0
0, 0
0, 0
0, 0
0, 0
0, 0
0, 0
0, 0
0, 0
0, 0
0, 0
0, 0
0, 0
0, 0
0, 0
0, 0
0, 0
0, 0
0, 0
0, 0
0, 0
0, 0
0, 0
0, 0
0, 0
0, 0
0, 0
0, 0
0, 0
0, 0
0, 0
0, 0
0, 0
0, 0
0, 0
0, 0
0, 0
0, 0
0, 0
0, 0
0, 0
0, 0
0, 0
0, 0
0, 0
0, 0
0, 0
0, 0
0, 0
0, 0
0, 0
0, 0
0, 0
0, 0
0, 0
0, 0
0, 0
0, 0
0, 0
0, 0
0, 0
0, 0
0, 0
0, 0
0, 0
0, 0
0, 0
0, 0
0, 0
0, 1
0, 0
0, 0
0, 0
0, 0
0, 0
0, 0
0, 0
0, 0
0, 0
0, 0
0, 0
0, 0
0, 0
0, 0
0, 0
0, 0
0, 0
0, 0
0, 0
0, 0
0, 0
0, 0
0, 0
0, 0
0, 0
0, 0
0, 0
0, 0
0, 0
0, 0
0, 0
1, 0
0, 0
0, 0
0, 0
0, 0
0, 0
0, 0
0, 0
0, 0
0, 0
0, 0
0, 0
0, 0
0, 0
0, 0
0, 0
0, 0
0, 0
0, 0
0, 0
0, 0
0, 0
0, 0
0, 0
0, 0
0, 0
0, 0
0, 0
0, 0
0, 0
0, 0
0, 0
0, 0
0, 0
0, 0
0, 0
0, 0
0, 0
0, 0
0, 0
0, 0
0, 0
0, 0
0, 0
0, 0
0, 0
0, 0
0, 0
0, 0
0, 0
0, 0
0, 0
0, 0
0, 0
0, 0
0, 0
0, 0
0, 0
0, 0
0, 0
0, 0
0, 0
0, 0
0, 0
0, 0
0, 0
0, 0
0, 0
0, 0
0, 0
0, 0
0, 0
0, 0
0, 0
0, 0
0, 0
0, 0
0, 0
0, 0
0, 0
0, 0
0, 0
0, 0
0, 0
0, 0
0, 0
0, 0
0, 0
0, 0
0, 0
0, 0
0, 0
0, 0
0, 0
0, 0
0, 0
0, 0
0, 0
0, 0
0, 0
0, 0
0, 0
0, 0
0, 0
0, 0
0, 0
0, 0
0, 0
0, 0
0, 0
0, 0
0, 0
0, 0
0, 0
0, 0
0, 0
0, 0
0, 0
0, 0
0, 0
0, 0
0, 0
0, 0
0, 0
0, 0
0, 0
0, 0
0, 0
0, 0
0, 0
0, 0
0, 0
0, 0
0, 0
0, 0
0, 0
0, 0
0, 0
0, 0
0, 0
0, 0
0, 0
0, 0
0, 0
0, 0
0, 0
0, 0
0, 0
0, 0
0, 0
0, 0
0, 0
0, 0
0, 0
0, 0
0, 0
0, 0
0, 0
0, 0
0, 0
0, 0
0, 0
0, 0
0, 0
0, 0
0, 0
0, 0
0, 0
0, 0
0, 0
0, 0
0, 0
0, 0
0, 0
0, 0
0, 0
0, 0
0, 0
0, 0
0, 0
0, 0
0, 0
0, 0
0, 0
0, 0
0, 0
0, 0
0, 0
0, 0
0, 0
0, 0
0, 0
0, 0
0, 0
0, 0
0, 0
0, 0
0, 0
0, 0
0, 0
0, 0
0, 0
0, 0
0, 0
0, 0
0, 0
0, 0
0, 0
0, 0
0, 0
0, 0
0, 0
0, 0
0, 0
0, 0
0, 0
0, 0
0, 0
0, 0
0, 0
0, 0
0, 0
0, 0
0, 0
0, 0
0, 0
0, 0
0, 0
0, 0
0, 0
0, 0
0, 0
0, 0
0, 0
0, 0
0, 0
0, 0
0, 0
0, 0
0, 0
0, 0
0, 0
0, 0
0, 0
0, 0
0, 0
0, 0
0, 0
0, 0
0, 0
0, 0
0, 0
0, 0
0, 0
0, 0
0, 0
0, 0
0, 0
0, 0
0, 0
0, 0
0, 0
0, 0
0, 0
0, 0
0, 0
0, 0
0, 0
0, 0
0, 0
0, 0
0, 0
0, 0
0, 0
0, 0
0, 0
0, 0
0, 0
0, 0
0, 0
0, 0
0, 0
0, 0
0, 0
0, 0
0, 0
0, 0
0, 0
#ENDOFDATA     end of spectrum data