File: host_upload/06-09-2024/ps_0852/dump3/ps__0852shot_2276.msa
#FORMAT      : EMSA/MAS spectral data file
#VERSION     : TC202v2.0 PIXL
#TITLE       : N/A
#DATE        :       Date in the format DD-MMM-YYYY, for example 07-JUL-2010
#TIME        :             The time of day at which the spectrum was recorded, in 24-hour format
#OWNER       : PIXL Flight Model       (PIXL will use this to indicate which instrument took the data.)
#NPOINTS     : 4096     Number of data points in the spectrum (This can be zero for configuration only files)
#NCOLUMNS    : 2     Number of data columns in the spectrum (This can be zero for configuration only files)
#XUNITS      : eV
#YUNITS      : COUNTS
#DATATYPE    : YY
#XPERCHAN    : 7.862, 7.881   eV per channel (separate by commas if more than one detector)
#OFFSET      : 18.5, -22.4         eV of first channel  (separate by commas if more than one detector
#SIGNALTYPE  : XRF
#YP_TEMP     : 2.171
#LIVETIME    : 8.57055, 8.36591   seconds (separate by commas if more than one detector)
#REALTIME    : 10, 10.0   seconds (separate by commas if more than one detector)
#SPECTRUM    : start of spectrum data
0, 0
0, 0
0, 0
0, 0
0, 0
0, 0
0, 0
0, 0
0, 0
0, 0
0, 0
0, 0
0, 0
0, 0
0, 0
0, 0
0, 0
0, 0
0, 0
0, 0
0, 0
0, 0
0, 0
0, 0
0, 0
0, 0
0, 0
0, 0
0, 0
0, 0
0, 0
0, 0
0, 0
0, 0
1, 0
0, 0
0, 0
1, 1
3, 0
2, 0
0, 0
0, 0
2, 0
1, 1
1, 1
2, 1
2, 3
2, 2
4, 6
5, 6
27, 25
32, 31
58, 64
52, 52
62, 75
70, 70
41, 56
41, 32
22, 29
13, 10
7, 8
1, 5
1, 1
5, 3
4, 2
5, 2
4, 6
3, 8
18, 23
53, 48
86, 79
171, 157
239, 246
313, 384
389, 405
389, 383
317, 325
219, 289
167, 151
117, 124
73, 61
39, 42
13, 18
9, 7
4, 3
5, 2
0, 2
0, 1
1, 3
1, 1
1, 2
1, 3
5, 2
2, 7
9, 8
13, 21
21, 23
14, 43
26, 41
31, 38
26, 30
18, 34
19, 24
10, 16
7, 8
11, 8
4, 10
7, 9
9, 9
19, 18
13, 23
37, 35
48, 40
43, 47
45, 51
34, 51
42, 44
42, 38
39, 46
33, 26
16, 27
13, 19
27, 20
18, 20
16, 21
21, 5
9, 10
10, 15
8, 8
4, 6
8, 8
7, 5
4, 3
1, 2
5, 5
1, 5
2, 2
1, 3
0, 3
2, 0
2, 2
2, 6
2, 6
1, 3
2, 2
1, 0
3, 3
1, 2
0, 3
0, 1
3, 4
1, 6
4, 7
7, 14
7, 11
8, 17
23, 27
18, 22
15, 17
13, 18
7, 17
11, 5
10, 6
9, 7
1, 4
5, 6
4, 6
3, 4
3, 7
4, 5
6, 7
0, 2
4, 5
5, 3
4, 6
4, 5
4, 4
5, 5
2, 5
3, 5
4, 3
1, 3
4, 3
2, 6
5, 2
6, 6
5, 7
13, 3
25, 1
30, 7
28, 7
39, 5
34, 6
31, 6
25, 14
31, 14
19, 13
14, 17
20, 23
22, 5
22, 9
22, 10
19, 1
13, 6
12, 5
8, 7
8, 1
5, 4
9, 4
5, 2
8, 6
3, 5
6, 7
4, 5
3, 3
10, 6
5, 1
4, 8
5, 3
8, 6
3, 5
9, 7
3, 7
9, 15
11, 16
2, 19
11, 32
11, 32
18, 44
12, 40
14, 37
12, 39
14, 28
16, 17
14, 22
18, 18
8, 22
10, 21
13, 17
9, 24
10, 20
7, 23
9, 18
22, 23
16, 32
17, 36
35, 46
31, 58
38, 73
42, 73
63, 74
51, 65
51, 76
54, 54
52, 52
53, 38
14, 22
19, 16
14, 16
10, 20
22, 17
24, 32
57, 53
76, 98
164, 174
278, 348
439, 590
709, 949
1082, 1301
1348, 1728
1813, 2103
2106, 2375
2309, 2424
2219, 2268
1915, 1947
1567, 1500
1193, 1061
870, 711
514, 466
313, 259
157, 151
104, 78
73, 58
22, 48
17, 41
14, 30
15, 35
12, 29
10, 33
17, 29
24, 26
34, 43
44, 64
55, 76
79, 139
129, 175
173, 236
226, 290
296, 350
316, 332
319, 396
311, 335
295, 268
248, 220
164, 157
123, 109
72, 86
55, 32
23, 21
14, 21
5, 8
4, 6
9, 6
14, 10
10, 17
6, 15
11, 9
14, 13
10, 10
14, 16
7, 12
7, 7
14, 10
7, 11
5, 4
8, 4
4, 4
5, 6
8, 3
4, 4
3, 2
4, 3
6, 5
3, 5
3, 2
3, 3
1, 1
2, 3
2, 4
3, 3
3, 6
2, 4
6, 4
4, 5
5, 6
4, 1
2, 4
11, 4
7, 5
8, 4
7, 10
6, 8
5, 5
7, 5
2, 6
2, 4
2, 5
2, 3
3, 4
4, 2
8, 3
6, 2
4, 4
2, 4
5, 1
2, 6
2, 3
4, 4
0, 3
1, 3
4, 1
2, 2
1, 4
1, 4
6, 4
0, 5
3, 3
2, 3
6, 1
5, 4
4, 4
3, 2
3, 4
3, 1
7, 5
7, 3
8, 4
8, 1
19, 4
7, 6
14, 5
12, 3
9, 6
13, 5
8, 4
14, 6
7, 3
6, 4
8, 5
6, 5
12, 4
2, 2
5, 7
1, 2
3, 8
3, 0
3, 5
3, 5
2, 2
5, 4
4, 4
2, 4
0, 1
5, 2
4, 3
8, 4
3, 7
0, 6
2, 0
1, 5
3, 9
8, 6
6, 7
4, 8
10, 5
7, 5
6, 5
5, 6
8, 4
8, 7
6, 9
10, 5
6, 6
5, 3
6, 3
3, 7
3, 2
4, 4
5, 3
7, 2
3, 5
3, 3
6, 1
1, 5
2, 3
3, 1
2, 4
3, 4
1, 2
3, 1
1, 3
2, 5
5, 4
2, 3
3, 4
2, 0
2, 6
4, 2
0, 5
3, 2
5, 5
1, 5
1, 9
2, 4
4, 3
1, 3
2, 1
4, 4
3, 2
2, 7
1, 0
1, 3
2, 4
3, 5
2, 2
3, 1
2, 1
4, 1
1, 2
1, 0
4, 2
1, 1
2, 2
3, 2
2, 3
2, 5
0, 2
0, 2
3, 3
0, 6
1, 2
4, 3
0, 1
3, 1
0, 4
2, 2
1, 5
2, 1
2, 6
3, 2
4, 3
1, 6
0, 2
1, 5
0, 3
0, 4
2, 2
1, 0
1, 4
3, 0
2, 1
2, 0
2, 0
3, 1
2, 0
3, 2
1, 2
3, 2
2, 1
2, 4
3, 2
1, 1
1, 5
0, 0
2, 1
2, 0
3, 1
0, 4
2, 2
2, 1
2, 3
1, 5
2, 0
1, 1
0, 0
1, 4
2, 2
4, 4
2, 6
3, 1
2, 4
3, 3
2, 2
3, 4
4, 6
3, 6
5, 7
4, 3
1, 2
0, 2
2, 2
0, 0
3, 1
1, 2
1, 2
0, 0
3, 1
0, 3
0, 3
0, 0
1, 0
1, 1
0, 0
0, 0
1, 0
2, 5
1, 2
1, 3
1, 3
2, 5
3, 2
2, 1
3, 1
1, 4
2, 2
0, 2
1, 0
1, 0
1, 2
0, 1
2, 0
1, 2
3, 1
3, 3
0, 0
2, 1
3, 1
1, 1
0, 1
0, 0
2, 2
5, 0
1, 0
0, 1
1, 0
0, 1
1, 1
0, 0
1, 1
2, 0
0, 0
1, 1
1, 0
2, 0
2, 1
3, 0
1, 1
0, 0
1, 0
1, 0
0, 0
1, 1
0, 1
2, 0
0, 0
0, 1
1, 2
1, 2
1, 0
0, 2
0, 0
1, 1
0, 0
2, 2
1, 2
0, 0
2, 1
0, 0
0, 0
1, 0
3, 4
0, 1
0, 1
0, 0
0, 1
0, 0
2, 1
3, 2
0, 1
0, 1
0, 1
1, 0
0, 1
3, 0
0, 0
1, 0
0, 0
3, 0
0, 0
0, 2
0, 0
0, 0
0, 1
0, 1
0, 0
0, 0
1, 0
1, 1
0, 1
1, 1
1, 1
0, 0
0, 0
1, 2
0, 0
0, 1
1, 0
1, 0
0, 0
1, 1
0, 1
1, 1
1, 1
0, 3
2, 0
1, 0
0, 0
1, 1
0, 0
0, 0
0, 0
2, 0
0, 1
0, 1
0, 0
1, 0
0, 1
0, 0
1, 0
1, 1
0, 0
0, 0
2, 1
0, 0
0, 0
0, 0
0, 1
2, 0
0, 0
0, 1
1, 0
0, 0
0, 0
1, 1
1, 1
0, 0
0, 1
1, 1
0, 3
0, 0
1, 0
0, 0
0, 1
0, 0
0, 0
0, 0
0, 0
0, 0
0, 0
3, 1
0, 1
0, 0
0, 0
0, 0
1, 1
0, 0
1, 0
0, 1
0, 0
0, 1
1, 0
1, 2
0, 0
0, 0
0, 0
0, 0
0, 1
1, 0
1, 0
0, 0
0, 0
1, 1
0, 0
2, 0
1, 0
0, 0
1, 0
0, 0
0, 0
1, 0
0, 0
0, 0
1, 0
0, 0
0, 0
0, 0
0, 0
0, 2
0, 0
0, 0
0, 0
0, 0
0, 0
0, 0
0, 0
0, 0
0, 0
0, 0
0, 0
0, 0
0, 0
0, 1
0, 1
1, 0
0, 2
0, 0
1, 0
0, 1
0, 0
0, 0
1, 0
1, 1
1, 1
0, 1
0, 0
0, 0
0, 1
1, 1
0, 0
0, 0
0, 1
0, 0
0, 0
0, 2
2, 0
0, 0
1, 0
1, 0
0, 0
0, 0
0, 1
0, 0
0, 0
0, 0
0, 0
0, 0
1, 0
0, 0
0, 0
0, 0
0, 1
1, 0
1, 0
0, 1
0, 0
0, 0
0, 0
0, 0
0, 0
1, 0
1, 0
0, 1
1, 0
0, 0
0, 1
0, 1
0, 0
0, 0
0, 0
0, 0
0, 0
0, 0
0, 0
0, 0
0, 0
0, 0
0, 0
0, 0
0, 1
0, 0
0, 0
0, 0
0, 1
1, 0
0, 1
0, 1
0, 0
0, 0
0, 1
0, 0
0, 0
0, 0
0, 0
0, 0
0, 0
0, 0
0, 0
0, 0
1, 0
0, 1
1, 1
0, 0
0, 0
0, 1
0, 0
0, 0
0, 1
0, 0
0, 0
1, 0
0, 0
0, 0
0, 0
0, 0
0, 0
0, 0
0, 0
0, 0
0, 0
0, 0
0, 1
0, 0
0, 0
0, 1
0, 0
0, 0
0, 0
0, 0
0, 0
0, 0
1, 0
1, 0
0, 0
0, 0
0, 0
0, 0
0, 0
0, 0
0, 0
0, 0
0, 0
0, 0
0, 0
0, 0
0, 0
0, 0
0, 0
0, 0
0, 0
1, 0
0, 0
0, 0
0, 0
0, 1
0, 0
0, 0
0, 0
0, 0
0, 0
0, 0
0, 0
0, 0
0, 0
0, 0
0, 0
0, 0
0, 0
0, 0
0, 0
0, 0
0, 0
0, 0
0, 0
0, 0
0, 0
0, 0
0, 0
0, 0
0, 0
0, 0
0, 0
0, 0
0, 0
1, 0
0, 0
0, 0
0, 0
0, 0
0, 0
0, 0
0, 0
0, 0
0, 0
0, 0
0, 0
0, 0
0, 0
0, 0
0, 0
0, 0
0, 1
0, 0
0, 0
0, 0
0, 0
0, 0
0, 0
0, 0
0, 0
0, 0
0, 0
0, 0
0, 0
0, 0
0, 0
0, 0
0, 0
0, 0
0, 0
0, 0
0, 0
0, 0
0, 0
0, 0
0, 0
0, 0
0, 0
0, 0
0, 0
0, 0
0, 0
0, 0
0, 0
0, 0
0, 0
0, 0
0, 0
0, 0
0, 0
0, 0
0, 0
0, 0
0, 0
0, 0
0, 0
0, 0
0, 0
0, 0
0, 0
0, 0
0, 0
0, 0
0, 0
0, 0
0, 0
0, 0
0, 0
0, 0
0, 0
0, 0
0, 0
0, 0
0, 0
0, 0
0, 0
0, 0
1, 0
0, 0
0, 0
0, 0
0, 0
0, 0
0, 0
0, 0
0, 0
0, 0
0, 0
0, 0
0, 0
0, 0
0, 0
0, 0
0, 0
0, 0
0, 0
0, 0
0, 0
0, 0
0, 0
0, 0
0, 0
0, 0
0, 0
0, 0
0, 0
0, 0
0, 0
0, 0
0, 0
0, 0
0, 0
0, 0
0, 0
0, 0
0, 0
0, 0
0, 0
0, 0
0, 0
0, 0
0, 0
0, 0
0, 0
0, 0
0, 0
0, 0
0, 0
0, 0
0, 0
0, 0
0, 0
0, 0
0, 0
0, 0
0, 0
0, 0
0, 0
0, 0
0, 0
0, 0
0, 0
0, 0
0, 0
0, 0
0, 0
0, 0
0, 0
0, 0
0, 0
0, 0
0, 0
0, 0
0, 0
0, 0
0, 0
0, 0
0, 0
0, 0
0, 0
0, 0
0, 0
0, 0
0, 0
0, 0
0, 0
0, 0
0, 0
0, 0
0, 0
0, 0
0, 0
0, 0
0, 0
0, 0
0, 0
0, 0
0, 0
0, 0
0, 0
0, 0
0, 0
0, 0
0, 0
0, 0
0, 0
0, 0
0, 0
0, 0
0, 0
0, 0
0, 0
0, 0
0, 0
0, 0
0, 0
0, 0
0, 0
0, 0
0, 0
0, 0
0, 0
0, 0
0, 0
0, 0
0, 0
0, 0
0, 0
0, 0
0, 0
0, 0
0, 0
0, 0
0, 0
0, 0
0, 0
0, 0
0, 0
0, 0
0, 0
0, 0
0, 0
0, 0
0, 0
0, 0
0, 0
0, 0
0, 0
0, 0
0, 0
0, 0
0, 0
0, 0
0, 0
0, 0
0, 0
0, 0
0, 0
0, 0
0, 0
0, 0
0, 0
0, 0
0, 0
0, 0
0, 0
0, 0
0, 0
0, 0
0, 0
0, 0
0, 0
0, 0
0, 0
0, 0
0, 0
0, 0
0, 0
0, 0
0, 0
0, 0
0, 0
0, 0
0, 0
0, 0
0, 0
0, 0
0, 0
0, 0
0, 0
0, 0
0, 0
0, 0
0, 0
0, 0
0, 0
0, 0
0, 0
0, 0
0, 0
0, 0
0, 0
0, 0
0, 0
0, 0
0, 0
0, 0
0, 0
0, 0
0, 0
0, 0
0, 0
0, 0
0, 0
0, 0
0, 0
0, 0
0, 0
0, 0
0, 0
0, 0
0, 0
0, 0
0, 0
0, 0
0, 0
0, 0
0, 0
0, 0
0, 0
0, 0
0, 0
0, 0
0, 0
0, 0
0, 0
0, 0
0, 0
0, 0
0, 0
0, 0
0, 0
0, 0
0, 0
0, 0
0, 0
0, 0
0, 0
0, 0
0, 0
0, 0
0, 0
0, 0
0, 0
0, 0
0, 0
0, 0
0, 0
0, 0
0, 0
0, 0
0, 0
0, 0
0, 0
0, 0
0, 0
0, 0
0, 0
0, 0
0, 0
0, 0
0, 0
0, 0
0, 0
0, 0
0, 0
0, 0
0, 0
0, 0
0, 0
0, 0
0, 0
0, 0
0, 0
0, 0
0, 0
0, 0
0, 0
0, 0
0, 0
0, 0
0, 0
0, 0
0, 0
0, 0
0, 0
0, 0
0, 0
0, 0
0, 0
0, 0
0, 0
0, 0
0, 0
0, 0
0, 0
0, 0
0, 0
0, 0
0, 0
0, 0
0, 0
0, 0
0, 0
0, 0
0, 0
0, 0
0, 0
0, 0
0, 0
0, 0
0, 0
0, 0
0, 0
0, 0
0, 0
0, 0
0, 0
0, 0
0, 0
0, 0
0, 0
0, 0
0, 0
0, 0
0, 0
0, 0
#ENDOFDATA     end of spectrum data