File: host_upload/06-09-2024/ps_0852/dump3/ps__0852shot_2129.msa
#FORMAT      : EMSA/MAS spectral data file
#VERSION     : TC202v2.0 PIXL
#TITLE       : N/A
#DATE        :       Date in the format DD-MMM-YYYY, for example 07-JUL-2010
#TIME        :             The time of day at which the spectrum was recorded, in 24-hour format
#OWNER       : PIXL Flight Model       (PIXL will use this to indicate which instrument took the data.)
#NPOINTS     : 4096     Number of data points in the spectrum (This can be zero for configuration only files)
#NCOLUMNS    : 2     Number of data columns in the spectrum (This can be zero for configuration only files)
#XUNITS      : eV
#YUNITS      : COUNTS
#DATATYPE    : YY
#XPERCHAN    : 7.862, 7.881   eV per channel (separate by commas if more than one detector)
#OFFSET      : 18.5, -22.4         eV of first channel  (separate by commas if more than one detector
#SIGNALTYPE  : XRF
#YP_TEMP     : 2.46
#LIVETIME    : 8.56787, 8.54167   seconds (separate by commas if more than one detector)
#REALTIME    : 10, 10.0   seconds (separate by commas if more than one detector)
#SPECTRUM    : start of spectrum data
0, 0
0, 0
0, 0
0, 0
0, 0
0, 0
0, 0
0, 0
0, 0
0, 0
0, 0
0, 0
0, 0
0, 0
0, 0
0, 0
0, 0
0, 0
0, 0
0, 0
0, 0
0, 0
0, 0
0, 0
0, 0
0, 0
0, 0
0, 0
0, 0
0, 0
0, 0
0, 0
0, 1
0, 0
0, 0
2, 0
2, 1
0, 1
2, 2
1, 0
1, 0
3, 1
0, 0
1, 1
1, 4
1, 0
2, 1
1, 4
5, 7
12, 16
17, 30
44, 37
53, 56
91, 66
93, 76
69, 64
56, 61
49, 42
30, 22
22, 21
7, 11
5, 7
2, 5
5, 9
0, 3
3, 10
6, 9
13, 8
23, 29
51, 57
96, 124
148, 190
224, 332
343, 373
387, 453
417, 425
371, 402
310, 276
174, 210
115, 140
68, 69
44, 35
17, 18
11, 8
8, 3
3, 3
3, 3
1, 2
3, 1
2, 1
0, 2
1, 2
1, 1
3, 1
0, 1
4, 3
3, 7
5, 1
6, 8
7, 5
2, 5
8, 4
4, 2
0, 5
4, 2
8, 2
10, 4
10, 10
16, 15
15, 18
19, 35
31, 37
42, 47
37, 51
53, 49
48, 46
40, 41
34, 31
28, 33
37, 21
25, 20
19, 26
18, 29
20, 16
18, 21
17, 21
9, 9
5, 9
11, 9
9, 14
4, 3
4, 3
2, 4
7, 5
3, 2
3, 5
1, 6
5, 4
6, 3
2, 6
2, 2
1, 1
4, 3
5, 3
2, 1
2, 4
7, 4
4, 2
6, 2
5, 3
11, 3
19, 5
21, 9
23, 12
29, 21
33, 32
40, 32
39, 30
35, 39
28, 27
31, 22
18, 20
13, 13
10, 10
6, 5
8, 10
7, 5
7, 9
12, 7
10, 5
6, 12
9, 9
8, 10
8, 8
9, 8
10, 3
13, 3
6, 2
8, 6
9, 2
4, 2
12, 2
5, 3
6, 4
4, 3
5, 5
6, 6
3, 4
8, 5
5, 8
9, 9
2, 10
10, 15
6, 16
9, 10
11, 14
15, 22
12, 9
7, 14
13, 17
13, 13
9, 8
13, 13
8, 12
10, 5
10, 8
5, 9
12, 5
12, 7
14, 7
10, 16
2, 14
3, 23
3, 29
9, 50
4, 50
5, 76
8, 92
4, 103
7, 83
3, 95
8, 67
6, 51
12, 42
7, 34
11, 22
12, 20
20, 15
20, 15
9, 18
23, 20
15, 21
14, 18
15, 16
12, 19
5, 13
5, 17
11, 18
16, 10
16, 7
8, 10
6, 13
7, 11
16, 20
20, 17
13, 23
22, 27
39, 34
45, 42
48, 52
45, 63
51, 63
51, 58
52, 56
44, 33
33, 34
24, 28
24, 25
27, 20
16, 21
24, 25
40, 35
41, 61
119, 111
144, 210
270, 361
487, 602
738, 976
1035, 1391
1433, 1773
1814, 2176
2108, 2481
2163, 2515
2132, 2319
1915, 2009
1613, 1542
1153, 1155
847, 768
564, 468
329, 282
204, 135
135, 89
70, 49
36, 24
30, 17
32, 24
23, 18
25, 11
36, 20
42, 24
37, 25
55, 41
47, 64
62, 74
123, 119
135, 182
194, 238
232, 336
250, 361
294, 392
318, 392
318, 358
245, 312
228, 251
165, 220
126, 148
77, 96
44, 58
22, 58
19, 35
16, 20
2, 22
8, 16
11, 10
11, 10
10, 21
6, 31
11, 16
9, 23
13, 20
9, 34
11, 25
5, 29
7, 19
6, 21
4, 14
5, 16
4, 19
2, 11
6, 6
3, 4
3, 3
2, 3
3, 6
1, 2
2, 3
4, 4
2, 6
8, 7
5, 6
4, 2
5, 3
10, 5
8, 9
5, 4
6, 6
4, 4
5, 6
4, 4
3, 8
2, 4
3, 6
10, 7
5, 6
3, 2
4, 3
7, 10
8, 4
7, 2
8, 10
8, 3
6, 4
7, 5
4, 4
4, 3
4, 3
2, 5
2, 2
6, 2
4, 2
5, 3
1, 6
4, 2
3, 5
3, 2
5, 4
2, 7
7, 1
4, 5
7, 0
4, 5
7, 4
7, 5
5, 9
7, 4
7, 2
5, 3
6, 6
5, 9
3, 1
4, 8
2, 6
1, 5
4, 7
6, 3
4, 4
4, 3
3, 5
2, 0
0, 2
4, 3
2, 4
3, 3
1, 6
1, 3
3, 3
4, 8
6, 5
5, 3
5, 4
3, 7
3, 4
7, 5
2, 3
1, 7
3, 4
2, 2
3, 7
5, 3
1, 3
2, 2
3, 5
2, 7
0, 2
0, 2
1, 5
2, 4
3, 5
1, 5
1, 3
2, 3
2, 3
2, 2
3, 7
1, 4
3, 6
2, 7
6, 7
3, 5
3, 4
1, 5
2, 2
4, 5
1, 1
0, 4
3, 4
2, 2
2, 6
7, 5
2, 5
4, 2
3, 2
1, 3
1, 3
1, 4
2, 2
4, 2
1, 6
4, 5
2, 4
5, 5
1, 0
2, 3
1, 4
4, 2
2, 3
2, 6
1, 2
2, 2
1, 1
5, 1
2, 2
1, 2
3, 5
2, 3
0, 0
1, 4
3, 1
4, 4
1, 3
4, 3
4, 2
2, 5
4, 2
2, 0
5, 3
3, 2
2, 4
0, 1
1, 2
2, 1
1, 6
1, 2
2, 1
1, 1
0, 4
2, 2
3, 6
2, 1
2, 2
3, 2
2, 3
4, 2
2, 5
1, 0
1, 3
2, 0
1, 3
1, 5
3, 2
1, 2
3, 0
1, 3
3, 5
4, 2
0, 4
0, 0
1, 3
2, 2
3, 2
3, 0
2, 1
1, 4
1, 3
4, 0
0, 2
2, 1
0, 2
3, 3
2, 2
2, 1
1, 0
0, 3
4, 4
1, 0
2, 5
2, 0
2, 2
4, 4
3, 3
4, 6
3, 5
8, 4
2, 1
1, 4
2, 5
5, 3
0, 2
0, 4
1, 2
5, 4
1, 2
2, 1
1, 2
0, 1
1, 0
0, 0
2, 1
0, 0
3, 2
1, 2
0, 0
4, 1
1, 1
0, 4
3, 0
2, 5
3, 2
1, 2
1, 2
1, 4
3, 2
4, 0
0, 3
1, 0
0, 2
1, 2
2, 0
4, 0
0, 3
2, 1
0, 2
2, 3
1, 1
0, 1
0, 2
3, 0
4, 0
0, 1
2, 3
1, 0
0, 1
1, 1
0, 0
2, 2
1, 1
0, 2
0, 0
0, 4
1, 2
0, 3
2, 1
0, 3
0, 0
2, 1
1, 2
0, 2
0, 1
0, 2
0, 1
1, 3
0, 1
0, 2
0, 3
2, 2
0, 0
2, 1
1, 1
3, 1
2, 3
0, 2
2, 0
1, 0
0, 0
0, 2
0, 2
1, 1
1, 2
2, 1
2, 0
0, 0
1, 1
0, 1
2, 0
0, 0
0, 3
0, 1
0, 0
1, 0
1, 2
0, 0
0, 1
1, 0
2, 1
1, 0
1, 0
0, 0
0, 1
1, 0
0, 1
1, 0
1, 0
0, 1
1, 0
0, 0
0, 0
0, 0
0, 1
1, 2
1, 0
0, 0
0, 1
0, 0
1, 0
0, 1
0, 3
0, 0
0, 1
1, 2
0, 1
0, 0
0, 0
1, 0
1, 1
0, 0
0, 0
4, 2
0, 0
3, 1
1, 1
1, 0
1, 1
0, 0
0, 0
1, 1
0, 0
0, 0
1, 0
0, 0
0, 0
1, 0
0, 2
1, 1
0, 0
0, 0
1, 0
0, 0
0, 0
0, 1
0, 1
0, 0
0, 0
1, 0
0, 0
0, 2
0, 1
0, 0
0, 1
1, 0
0, 1
0, 1
1, 4
0, 0
0, 2
2, 0
0, 1
1, 0
1, 1
0, 1
0, 0
0, 0
0, 0
0, 1
0, 0
0, 0
0, 1
0, 1
1, 1
0, 0
0, 0
0, 1
0, 1
0, 0
0, 0
2, 0
0, 0
0, 1
0, 0
0, 0
0, 1
0, 0
1, 0
0, 1
1, 0
0, 3
1, 0
0, 0
0, 0
0, 0
0, 0
0, 1
1, 0
0, 0
0, 1
0, 0
1, 0
1, 0
0, 0
0, 0
0, 0
0, 0
1, 0
0, 0
0, 1
0, 0
1, 0
0, 0
0, 1
0, 0
0, 0
0, 0
0, 1
2, 0
1, 0
0, 0
0, 0
0, 1
1, 0
0, 0
0, 1
0, 0
0, 0
0, 0
0, 0
1, 0
0, 0
1, 0
0, 0
1, 0
0, 0
0, 0
0, 0
0, 0
0, 0
1, 0
0, 0
0, 1
0, 0
0, 1
0, 0
0, 0
0, 0
1, 0
0, 0
1, 0
0, 0
1, 0
0, 0
0, 2
1, 0
0, 0
0, 0
1, 1
1, 0
0, 0
0, 0
0, 0
0, 0
0, 0
0, 1
0, 0
0, 0
0, 0
0, 0
0, 0
0, 0
0, 0
0, 0
0, 0
0, 0
0, 0
0, 2
0, 0
0, 0
0, 0
0, 0
0, 0
0, 0
0, 0
0, 0
0, 0
0, 0
0, 0
0, 0
0, 1
0, 0
0, 0
1, 0
0, 0
0, 0
0, 1
0, 0
0, 0
0, 0
0, 0
0, 0
1, 0
0, 1
0, 0
0, 1
0, 0
0, 0
0, 0
0, 0
0, 0
0, 0
0, 0
1, 0
1, 0
0, 0
0, 0
1, 0
0, 0
0, 0
0, 0
1, 0
0, 0
0, 0
0, 0
0, 0
0, 0
0, 0
0, 0
0, 0
0, 0
0, 0
1, 0
1, 0
0, 0
0, 0
0, 0
0, 0
0, 0
0, 0
0, 0
0, 0
0, 1
0, 0
0, 0
0, 0
0, 0
0, 0
0, 0
0, 0
0, 0
0, 0
0, 0
0, 0
0, 0
0, 0
0, 0
0, 0
0, 0
0, 0
0, 0
0, 0
0, 0
0, 0
0, 0
0, 0
0, 0
0, 1
0, 0
1, 0
0, 0
0, 0
0, 0
0, 0
0, 0
0, 0
0, 0
0, 0
0, 0
0, 0
0, 0
0, 0
0, 0
0, 0
0, 0
0, 0
0, 0
0, 0
1, 0
0, 0
0, 0
0, 0
0, 0
0, 0
0, 0
0, 0
0, 0
0, 0
0, 0
0, 0
0, 0
0, 0
0, 0
0, 0
0, 0
0, 0
0, 0
0, 1
0, 0
0, 0
0, 0
0, 0
0, 0
0, 0
0, 0
0, 0
0, 0
0, 0
0, 0
0, 0
0, 0
0, 0
0, 0
0, 0
0, 0
1, 0
0, 0
0, 0
0, 0
0, 0
0, 0
0, 0
0, 0
0, 0
0, 0
1, 0
0, 0
0, 0
0, 0
0, 0
0, 0
0, 0
0, 0
0, 0
0, 0
0, 0
0, 0
0, 0
0, 0
0, 0
0, 0
0, 0
0, 0
0, 0
0, 0
0, 0
0, 0
0, 0
0, 0
0, 0
0, 0
0, 0
0, 0
0, 0
0, 0
0, 0
0, 0
0, 0
0, 0
0, 0
0, 0
0, 0
0, 0
0, 0
0, 0
0, 0
0, 0
0, 0
0, 0
0, 0
0, 0
0, 0
0, 0
0, 0
0, 0
0, 0
0, 0
0, 0
0, 0
0, 0
0, 0
0, 0
0, 0
0, 0
0, 0
0, 0
0, 0
0, 0
0, 0
0, 0
0, 0
0, 0
0, 0
0, 0
0, 0
0, 0
0, 0
0, 0
0, 0
0, 0
0, 0
0, 0
0, 0
0, 0
0, 0
0, 0
0, 0
0, 0
0, 0
0, 0
0, 0
0, 0
0, 0
0, 0
0, 0
0, 0
0, 0
0, 0
0, 0
0, 0
0, 0
0, 0
0, 0
0, 0
0, 0
0, 0
0, 0
0, 0
0, 0
0, 0
0, 0
0, 0
0, 0
0, 0
0, 0
0, 0
0, 0
0, 0
0, 0
0, 0
0, 0
0, 0
0, 0
0, 0
0, 0
0, 0
0, 0
0, 0
0, 0
0, 0
0, 0
0, 0
0, 0
0, 0
0, 0
0, 0
0, 0
0, 0
0, 0
0, 0
0, 0
0, 0
0, 0
0, 0
0, 0
0, 0
0, 0
0, 0
0, 0
0, 0
0, 0
0, 0
0, 0
0, 0
0, 0
0, 0
0, 0
0, 0
0, 0
0, 0
0, 0
0, 0
0, 0
0, 0
0, 0
0, 0
0, 0
0, 0
0, 0
0, 0
0, 0
0, 0
0, 0
0, 0
0, 0
0, 0
0, 0
0, 0
0, 0
0, 0
0, 0
0, 0
0, 0
0, 0
0, 0
0, 0
0, 0
0, 0
0, 0
0, 0
0, 0
0, 0
0, 0
0, 0
0, 0
0, 0
0, 0
0, 0
0, 0
0, 0
0, 0
0, 0
0, 0
0, 0
0, 0
0, 0
0, 0
0, 0
0, 0
0, 0
0, 0
0, 0
0, 0
0, 0
0, 0
0, 0
0, 0
0, 0
0, 0
0, 0
0, 0
0, 0
0, 0
0, 0
0, 0
0, 0
0, 0
0, 0
0, 0
0, 0
0, 0
0, 0
0, 0
0, 0
0, 0
0, 0
0, 0
0, 0
0, 0
0, 0
0, 0
0, 0
0, 0
0, 0
0, 0
0, 0
0, 0
0, 0
0, 0
0, 0
0, 0
0, 0
0, 0
0, 0
0, 0
0, 0
0, 0
0, 0
0, 0
0, 0
0, 0
0, 0
0, 0
0, 0
0, 0
0, 0
0, 0
0, 0
0, 0
0, 0
0, 0
0, 0
0, 0
0, 0
0, 0
0, 0
0, 0
0, 0
0, 0
0, 0
0, 0
0, 0
0, 0
0, 0
0, 0
0, 0
0, 0
0, 0
0, 0
0, 0
0, 0
0, 0
0, 0
0, 0
0, 0
0, 0
0, 0
0, 0
0, 0
0, 0
0, 0
0, 0
0, 0
0, 0
0, 0
0, 0
0, 0
0, 0
0, 0
0, 0
0, 0
0, 0
0, 0
0, 0
0, 0
0, 0
0, 0
0, 0
0, 0
0, 0
0, 0
0, 0
0, 0
0, 0
0, 0
0, 0
0, 0
0, 0
0, 0
0, 0
0, 0
0, 0
0, 0
0, 0
0, 0
0, 0
0, 0
0, 0
0, 0
0, 0
0, 0
0, 0
0, 0
0, 0
0, 0
0, 0
0, 0
0, 0
0, 0
0, 0
0, 0
0, 0
0, 0
0, 0
0, 0
0, 0
0, 0
0, 0
0, 0
0, 0
0, 0
0, 0
0, 0
0, 0
0, 0
0, 0
0, 0
0, 0
0, 0
0, 0
0, 0
0, 0
0, 0
0, 0
0, 0
0, 0
0, 0
0, 0
0, 0
0, 0
0, 0
0, 0
#ENDOFDATA     end of spectrum data