File: host_upload/06-09-2024/ps_0852/dump3/ps__0852shot_2542.msa
#FORMAT      : EMSA/MAS spectral data file
#VERSION     : TC202v2.0 PIXL
#TITLE       : N/A
#DATE        :       Date in the format DD-MMM-YYYY, for example 07-JUL-2010
#TIME        :             The time of day at which the spectrum was recorded, in 24-hour format
#OWNER       : PIXL Flight Model       (PIXL will use this to indicate which instrument took the data.)
#NPOINTS     : 4096     Number of data points in the spectrum (This can be zero for configuration only files)
#NCOLUMNS    : 2     Number of data columns in the spectrum (This can be zero for configuration only files)
#XUNITS      : eV
#YUNITS      : COUNTS
#DATATYPE    : YY
#XPERCHAN    : 7.862, 7.881   eV per channel (separate by commas if more than one detector)
#OFFSET      : 18.5, -22.4         eV of first channel  (separate by commas if more than one detector
#SIGNALTYPE  : XRF
#YP_TEMP     : 2.171
#LIVETIME    : 8.56067, 8.55705   seconds (separate by commas if more than one detector)
#REALTIME    : 10, 10.0   seconds (separate by commas if more than one detector)
#SPECTRUM    : start of spectrum data
0, 0
0, 0
0, 0
0, 0
0, 0
0, 0
0, 0
0, 0
0, 0
0, 0
0, 0
0, 0
0, 0
0, 0
0, 0
0, 0
0, 0
0, 0
0, 0
0, 0
0, 0
0, 0
0, 0
0, 0
0, 0
0, 0
0, 0
0, 0
0, 0
0, 0
0, 0
0, 0
0, 1
1, 0
0, 0
0, 0
1, 0
0, 2
0, 0
0, 2
0, 5
0, 2
3, 2
4, 1
4, 2
1, 1
0, 2
0, 4
5, 6
13, 12
25, 28
39, 31
74, 59
78, 68
79, 88
65, 66
54, 54
47, 45
19, 24
18, 10
8, 9
10, 4
3, 4
4, 4
3, 6
5, 2
7, 7
8, 5
13, 20
43, 54
91, 99
168, 188
248, 250
373, 370
402, 445
434, 427
395, 364
316, 265
204, 170
139, 129
55, 50
26, 33
22, 21
15, 11
4, 4
2, 4
3, 3
0, 1
2, 1
2, 2
2, 2
0, 2
0, 3
2, 2
1, 1
1, 1
2, 1
0, 2
2, 3
4, 4
1, 3
0, 6
3, 2
3, 1
3, 5
6, 4
4, 5
14, 12
10, 15
18, 21
34, 47
66, 80
77, 99
82, 127
117, 192
97, 169
118, 180
94, 176
93, 105
63, 94
28, 45
32, 41
44, 26
28, 22
27, 21
21, 23
14, 16
15, 11
23, 12
9, 4
3, 4
3, 2
3, 1
4, 3
1, 3
1, 1
3, 4
2, 1
2, 4
5, 3
2, 5
2, 1
6, 0
1, 1
0, 5
1, 1
2, 1
1, 2
2, 3
2, 8
2, 3
4, 4
10, 5
6, 12
13, 15
27, 17
15, 29
18, 22
25, 20
21, 17
18, 11
11, 15
14, 8
6, 10
6, 2
5, 4
3, 3
2, 8
4, 4
3, 6
3, 5
8, 8
8, 8
6, 2
11, 7
11, 8
12, 2
19, 6
8, 3
11, 6
15, 1
5, 10
7, 3
7, 4
8, 6
8, 3
13, 6
5, 3
8, 3
9, 10
10, 13
11, 10
11, 14
14, 15
19, 17
14, 18
13, 17
13, 29
12, 23
8, 24
16, 21
20, 28
18, 24
10, 26
14, 35
10, 33
12, 15
21, 16
14, 12
31, 15
24, 9
34, 13
32, 8
29, 15
24, 12
24, 18
20, 19
13, 17
9, 16
8, 16
8, 12
8, 5
8, 11
5, 11
8, 7
13, 8
10, 10
9, 9
5, 6
8, 9
14, 12
16, 16
9, 10
14, 12
16, 8
12, 13
12, 8
26, 13
14, 6
13, 14
16, 10
20, 12
12, 4
12, 13
19, 12
21, 38
29, 31
39, 50
38, 43
51, 65
64, 65
52, 72
60, 53
56, 49
46, 37
31, 33
32, 37
25, 28
21, 20
26, 45
23, 35
26, 35
46, 74
68, 129
164, 222
282, 378
487, 631
805, 905
1164, 1331
1606, 1855
1993, 2141
2246, 2401
2464, 2490
2478, 2350
2216, 1976
1797, 1460
1273, 1061
929, 758
601, 444
338, 274
186, 116
102, 91
65, 81
31, 50
26, 43
13, 50
12, 37
17, 37
12, 44
24, 51
33, 50
35, 66
45, 64
63, 109
99, 147
170, 191
211, 255
234, 301
286, 313
368, 373
349, 397
340, 338
317, 255
255, 208
189, 150
135, 98
78, 61
43, 37
32, 20
21, 16
10, 7
11, 2
7, 7
9, 6
16, 11
12, 14
31, 19
21, 13
21, 9
23, 22
13, 13
22, 7
18, 7
6, 6
13, 6
7, 3
3, 4
6, 4
7, 5
1, 10
4, 6
3, 8
9, 9
5, 3
4, 6
7, 8
5, 20
6, 5
4, 3
8, 6
10, 4
5, 7
5, 6
5, 9
5, 4
3, 7
11, 6
4, 3
6, 10
11, 5
11, 9
10, 1
16, 8
13, 8
4, 8
16, 6
6, 7
4, 14
8, 10
6, 13
1, 15
4, 14
6, 14
2, 10
5, 5
6, 6
6, 5
2, 6
9, 6
6, 8
10, 3
5, 7
6, 4
4, 2
9, 5
3, 5
1, 4
3, 4
9, 4
7, 4
8, 7
10, 7
8, 4
2, 5
4, 5
3, 2
6, 4
3, 1
4, 1
3, 2
2, 4
2, 7
0, 4
2, 6
2, 3
1, 2
1, 4
5, 2
1, 1
4, 6
7, 6
6, 0
4, 4
2, 8
3, 5
5, 6
7, 7
4, 2
5, 4
2, 5
7, 4
2, 3
2, 4
8, 7
4, 10
3, 3
9, 1
8, 5
6, 5
5, 5
6, 8
3, 3
8, 3
7, 4
4, 3
5, 8
5, 5
8, 8
3, 6
4, 9
4, 4
2, 12
2, 9
2, 11
4, 11
8, 5
3, 11
5, 7
6, 8
3, 7
1, 7
4, 7
2, 5
2, 5
1, 2
4, 4
2, 5
4, 0
2, 3
1, 3
0, 5
3, 2
4, 2
5, 0
2, 1
5, 6
3, 5
3, 5
4, 4
3, 0
7, 6
4, 2
4, 5
3, 4
5, 4
1, 4
3, 2
2, 3
4, 3
0, 1
3, 4
6, 1
1, 3
1, 3
5, 1
4, 1
0, 4
1, 2
1, 1
2, 2
4, 2
0, 3
1, 0
4, 1
2, 2
1, 5
3, 2
3, 5
3, 4
3, 5
3, 3
0, 5
4, 1
1, 1
2, 6
2, 1
3, 1
1, 0
0, 2
3, 3
2, 2
1, 0
4, 4
3, 5
4, 5
1, 0
2, 2
3, 2
2, 4
1, 2
2, 4
1, 1
0, 1
2, 2
3, 1
4, 1
1, 2
3, 3
2, 1
3, 1
0, 1
2, 3
3, 5
1, 0
7, 6
5, 2
3, 2
3, 1
3, 2
6, 0
3, 4
5, 2
5, 1
1, 2
1, 4
3, 4
3, 1
1, 1
4, 4
1, 7
5, 3
2, 5
5, 1
6, 6
8, 5
3, 1
1, 4
4, 3
3, 6
1, 2
4, 3
2, 2
3, 2
1, 2
1, 2
1, 1
3, 1
3, 1
1, 2
2, 3
3, 1
2, 2
1, 1
1, 2
1, 1
2, 2
3, 1
2, 0
5, 0
2, 2
3, 2
2, 1
0, 2
1, 3
1, 4
2, 2
1, 2
0, 1
1, 3
2, 3
1, 0
0, 1
3, 0
0, 0
0, 2
1, 0
0, 2
2, 1
2, 1
0, 1
0, 0
0, 2
1, 2
1, 2
0, 2
2, 0
0, 1
3, 2
1, 1
2, 1
1, 1
1, 3
0, 3
3, 1
1, 0
2, 2
2, 0
0, 0
0, 2
0, 1
1, 1
2, 0
3, 2
4, 2
2, 4
0, 0
1, 1
1, 1
1, 0
1, 1
1, 1
0, 1
1, 0
0, 0
1, 1
1, 0
0, 1
0, 1
0, 1
1, 1
1, 0
1, 0
0, 1
3, 0
1, 1
0, 0
1, 0
2, 0
1, 0
1, 1
1, 1
0, 0
0, 0
1, 0
1, 0
1, 3
0, 1
1, 0
0, 0
1, 0
1, 1
0, 0
1, 0
0, 2
2, 1
0, 1
0, 0
1, 0
0, 2
0, 0
1, 1
1, 0
0, 0
1, 1
2, 0
1, 0
0, 0
1, 1
0, 0
0, 0
0, 0
1, 3
1, 0
1, 3
0, 0
0, 0
0, 0
0, 0
1, 0
1, 0
0, 0
1, 0
0, 0
0, 1
5, 0
0, 0
0, 0
1, 0
1, 0
0, 3
0, 0
3, 0
1, 0
3, 1
0, 0
0, 1
0, 0
0, 1
0, 1
0, 2
0, 0
2, 1
0, 1
1, 0
1, 0
0, 1
0, 0
1, 0
0, 2
1, 0
1, 0
0, 0
1, 1
1, 0
1, 0
0, 0
0, 0
1, 1
1, 0
0, 0
1, 0
0, 0
0, 0
0, 1
1, 1
1, 1
0, 0
0, 0
0, 0
0, 0
0, 0
0, 0
0, 0
0, 0
1, 1
0, 1
0, 0
0, 0
0, 0
0, 0
0, 0
1, 0
0, 2
0, 0
1, 0
0, 0
0, 0
1, 0
0, 1
0, 1
0, 0
1, 1
1, 0
0, 0
0, 1
1, 0
1, 1
1, 0
0, 0
0, 1
0, 0
0, 0
0, 1
0, 1
0, 0
0, 0
0, 1
0, 1
0, 0
1, 0
0, 1
0, 1
0, 0
0, 1
0, 0
0, 0
0, 0
1, 1
0, 0
1, 0
0, 0
0, 0
0, 1
0, 0
0, 0
1, 0
1, 0
0, 0
0, 0
0, 0
0, 0
0, 0
0, 1
1, 1
0, 0
0, 0
0, 0
1, 1
0, 0
0, 1
1, 0
0, 0
0, 0
0, 1
0, 0
0, 0
0, 0
0, 1
2, 0
0, 0
0, 1
0, 0
1, 0
0, 1
0, 0
0, 0
0, 2
0, 0
0, 0
0, 0
0, 0
0, 0
0, 1
0, 1
0, 0
0, 0
0, 0
0, 1
0, 0
0, 0
0, 0
0, 1
0, 0
0, 0
1, 0
0, 0
0, 1
0, 0
1, 0
0, 0
0, 0
0, 0
0, 1
0, 0
0, 0
1, 0
1, 0
0, 0
0, 0
1, 0
0, 0
1, 0
0, 1
0, 0
0, 0
0, 0
0, 1
1, 0
0, 1
0, 0
0, 1
1, 0
0, 0
0, 0
1, 0
0, 0
0, 0
0, 0
0, 1
0, 1
0, 0
0, 0
0, 0
0, 0
0, 0
0, 1
0, 0
0, 0
0, 0
1, 1
0, 0
0, 0
0, 0
0, 0
0, 0
0, 0
1, 0
0, 0
0, 0
0, 0
0, 0
0, 0
0, 0
0, 0
0, 0
0, 0
0, 0
0, 0
0, 1
1, 0
0, 0
0, 0
0, 0
0, 0
0, 0
0, 0
0, 0
0, 0
0, 0
0, 0
0, 0
0, 1
0, 0
0, 0
0, 0
0, 0
0, 0
0, 0
0, 1
0, 0
0, 0
0, 0
0, 0
0, 0
1, 0
0, 0
0, 0
0, 0
0, 0
0, 0
0, 0
0, 0
0, 0
0, 0
0, 0
0, 0
0, 0
0, 0
0, 0
0, 0
0, 0
0, 0
0, 0
0, 0
0, 0
0, 0
0, 0
0, 0
0, 0
0, 0
0, 0
0, 0
0, 0
0, 0
0, 0
0, 0
1, 0
0, 0
0, 0
0, 0
0, 0
0, 0
0, 0
0, 0
0, 0
0, 0
0, 1
0, 0
0, 0
0, 0
0, 0
0, 1
0, 0
0, 0
0, 0
0, 0
0, 0
0, 0
0, 0
0, 0
0, 0
0, 0
0, 0
0, 0
0, 0
0, 0
1, 0
0, 0
0, 0
1, 0
0, 0
0, 0
0, 0
0, 0
0, 0
0, 0
0, 0
0, 0
0, 0
0, 0
0, 0
0, 0
0, 0
0, 0
0, 0
0, 0
0, 0
0, 0
0, 0
0, 0
0, 0
0, 0
0, 0
0, 0
0, 0
0, 0
0, 0
0, 0
0, 0
0, 0
0, 0
0, 0
0, 0
0, 0
0, 0
0, 0
0, 0
0, 0
0, 0
0, 0
0, 0
0, 0
0, 0
0, 0
0, 0
0, 0
0, 0
0, 0
0, 0
0, 0
0, 0
0, 0
0, 0
0, 0
0, 0
0, 0
0, 0
0, 0
0, 0
0, 0
0, 0
0, 0
0, 0
0, 0
0, 0
0, 0
0, 0
0, 0
0, 0
0, 0
0, 0
0, 0
0, 0
0, 1
0, 0
0, 0
0, 0
0, 0
0, 0
0, 0
0, 0
0, 0
0, 0
0, 0
0, 0
0, 0
0, 0
0, 0
0, 0
0, 0
0, 0
0, 0
0, 0
0, 0
0, 0
0, 0
0, 0
0, 0
0, 0
0, 0
0, 0
0, 0
0, 0
0, 0
0, 0
0, 0
0, 0
0, 0
0, 0
0, 0
0, 0
0, 0
0, 0
0, 0
0, 0
0, 0
0, 0
0, 0
0, 0
0, 0
0, 0
0, 0
0, 0
0, 0
0, 0
0, 0
0, 0
0, 0
0, 0
0, 0
0, 0
0, 0
0, 0
0, 0
0, 0
0, 0
0, 0
0, 0
0, 1
0, 0
0, 0
0, 0
0, 0
0, 0
0, 0
0, 0
0, 0
0, 0
0, 0
0, 0
0, 0
0, 0
0, 0
0, 0
0, 0
0, 0
0, 0
0, 0
0, 0
0, 0
0, 0
0, 0
0, 0
0, 0
0, 0
0, 0
0, 0
0, 0
0, 0
0, 0
0, 0
0, 0
0, 0
0, 0
0, 0
0, 0
0, 0
0, 0
0, 0
0, 0
0, 0
0, 0
0, 0
0, 0
0, 0
0, 0
0, 0
0, 0
0, 0
0, 0
0, 0
0, 0
0, 0
0, 0
0, 0
0, 0
0, 0
0, 0
0, 0
0, 0
0, 0
0, 0
0, 0
0, 0
0, 0
0, 0
0, 0
0, 0
0, 0
0, 0
0, 0
0, 0
0, 0
0, 0
0, 0
0, 0
0, 0
0, 0
0, 0
0, 0
0, 0
0, 0
0, 0
0, 0
0, 0
0, 0
0, 0
0, 0
0, 0
0, 0
0, 0
0, 0
0, 0
0, 0
0, 0
0, 0
0, 0
0, 0
0, 0
0, 0
0, 0
0, 0
0, 0
0, 0
0, 0
0, 0
0, 0
0, 0
0, 0
0, 0
0, 0
0, 0
0, 0
0, 0
0, 0
0, 0
0, 0
0, 0
0, 0
0, 0
0, 0
0, 0
0, 0
0, 0
0, 0
0, 0
0, 0
0, 0
0, 0
0, 0
0, 0
0, 0
0, 0
0, 0
0, 0
0, 0
0, 0
0, 0
0, 0
0, 0
0, 0
0, 0
0, 0
0, 0
0, 0
0, 0
0, 0
0, 0
0, 0
0, 0
0, 0
0, 0
0, 0
0, 0
0, 0
0, 0
0, 0
0, 0
0, 0
0, 0
0, 0
0, 0
0, 0
0, 0
0, 0
0, 0
0, 0
0, 0
0, 0
0, 0
0, 0
0, 0
0, 0
0, 0
0, 0
0, 0
0, 0
0, 0
0, 0
0, 0
0, 0
0, 0
0, 0
0, 0
0, 0
0, 0
0, 0
0, 0
0, 0
0, 0
0, 0
0, 0
0, 0
0, 0
0, 0
0, 0
0, 0
0, 0
0, 0
0, 0
0, 0
0, 0
0, 0
0, 0
0, 0
0, 0
0, 0
0, 0
0, 0
0, 0
0, 0
0, 0
0, 0
0, 0
0, 0
0, 0
0, 0
0, 0
0, 0
0, 0
0, 0
0, 0
0, 0
0, 0
0, 0
0, 0
0, 0
0, 0
0, 0
0, 0
0, 0
0, 0
0, 0
0, 0
0, 0
0, 0
#ENDOFDATA     end of spectrum data