File: host_upload/06-09-2024/ps_0852/dump3/ps__0852shot_2551.msa
#FORMAT      : EMSA/MAS spectral data file
#VERSION     : TC202v2.0 PIXL
#TITLE       : N/A
#DATE        :       Date in the format DD-MMM-YYYY, for example 07-JUL-2010
#TIME        :             The time of day at which the spectrum was recorded, in 24-hour format
#OWNER       : PIXL Flight Model       (PIXL will use this to indicate which instrument took the data.)
#NPOINTS     : 4096     Number of data points in the spectrum (This can be zero for configuration only files)
#NCOLUMNS    : 2     Number of data columns in the spectrum (This can be zero for configuration only files)
#XUNITS      : eV
#YUNITS      : COUNTS
#DATATYPE    : YY
#XPERCHAN    : 7.862, 7.881   eV per channel (separate by commas if more than one detector)
#OFFSET      : 18.5, -22.4         eV of first channel  (separate by commas if more than one detector
#SIGNALTYPE  : XRF
#YP_TEMP     : 2.203
#LIVETIME    : 8.56386, 8.55255   seconds (separate by commas if more than one detector)
#REALTIME    : 10, 10.0   seconds (separate by commas if more than one detector)
#SPECTRUM    : start of spectrum data
0, 0
0, 0
0, 0
0, 0
0, 0
0, 0
0, 0
0, 0
0, 0
0, 0
0, 0
0, 0
0, 0
0, 0
0, 0
0, 0
0, 0
0, 0
0, 0
0, 0
0, 0
0, 0
0, 0
0, 0
0, 0
0, 0
0, 0
0, 0
0, 0
0, 0
0, 0
0, 0
1, 0
0, 0
1, 0
1, 0
0, 0
0, 1
1, 0
1, 1
1, 1
0, 0
2, 0
3, 1
3, 1
2, 1
1, 0
2, 3
10, 5
6, 8
29, 15
35, 34
50, 41
66, 53
78, 53
60, 63
62, 35
42, 23
23, 9
13, 6
12, 3
6, 3
5, 6
10, 4
4, 4
4, 8
5, 6
18, 8
15, 24
51, 40
110, 92
167, 153
313, 245
422, 302
473, 384
518, 361
462, 334
370, 254
243, 167
126, 94
78, 58
43, 36
22, 12
8, 7
5, 6
4, 3
1, 1
1, 2
2, 1
3, 0
5, 2
3, 0
1, 2
4, 3
7, 5
9, 5
20, 4
23, 12
25, 12
15, 12
20, 7
20, 18
10, 3
6, 6
6, 8
4, 2
10, 10
6, 8
28, 17
26, 27
51, 37
56, 42
75, 50
67, 55
84, 60
64, 52
72, 45
50, 37
37, 32
33, 31
44, 31
22, 26
22, 29
22, 21
28, 17
23, 17
14, 13
15, 13
7, 9
8, 9
4, 3
5, 4
5, 1
4, 4
7, 2
1, 2
2, 2
5, 2
5, 1
5, 1
3, 5
8, 2
9, 2
5, 3
5, 2
7, 1
6, 3
9, 5
8, 2
13, 1
16, 4
19, 11
27, 18
38, 31
70, 54
108, 67
112, 101
115, 90
130, 82
93, 73
71, 55
68, 41
40, 22
28, 18
13, 17
7, 7
12, 5
9, 8
13, 12
19, 13
27, 17
30, 24
15, 13
10, 9
21, 20
17, 19
5, 19
8, 13
7, 26
3, 28
6, 25
5, 24
2, 19
3, 11
4, 8
3, 11
2, 10
6, 11
10, 11
7, 13
18, 16
6, 26
13, 18
13, 15
13, 18
14, 25
25, 26
14, 26
20, 25
27, 13
19, 17
28, 12
29, 10
21, 7
24, 7
25, 6
19, 7
20, 4
13, 5
10, 8
7, 6
10, 4
10, 4
14, 7
12, 3
14, 7
5, 6
9, 3
8, 4
7, 3
7, 0
6, 8
6, 9
9, 7
13, 7
19, 6
15, 15
21, 18
21, 25
28, 29
41, 11
43, 22
39, 25
31, 21
15, 22
20, 6
18, 6
19, 6
30, 6
16, 8
22, 21
12, 10
19, 7
17, 12
19, 14
27, 22
31, 25
39, 37
53, 28
71, 43
62, 57
72, 58
64, 48
66, 50
62, 31
35, 29
35, 29
30, 15
29, 11
19, 15
13, 17
29, 33
30, 37
91, 77
177, 153
296, 302
483, 464
791, 793
1216, 1109
1687, 1385
2204, 1700
2461, 1956
2630, 1994
2556, 1827
2350, 1589
1916, 1183
1423, 870
927, 627
626, 354
376, 207
199, 116
122, 68
75, 49
61, 30
53, 22
55, 14
72, 12
48, 15
74, 10
66, 17
47, 27
73, 36
74, 38
105, 62
141, 120
201, 137
251, 185
292, 222
332, 302
375, 273
428, 298
387, 272
329, 238
249, 171
220, 121
147, 93
79, 46
48, 31
43, 19
13, 10
18, 12
9, 6
14, 2
14, 3
13, 10
15, 9
10, 4
24, 9
20, 13
21, 9
13, 19
12, 12
20, 15
14, 3
10, 11
7, 5
3, 7
10, 5
11, 5
5, 3
1, 1
3, 3
0, 2
6, 4
2, 2
6, 3
6, 1
7, 2
7, 2
8, 2
6, 2
7, 5
4, 1
4, 8
6, 1
6, 4
4, 7
1, 5
5, 6
5, 5
7, 6
11, 6
8, 4
5, 8
10, 5
7, 7
10, 7
5, 5
4, 5
5, 3
5, 3
5, 8
5, 1
4, 5
7, 2
6, 5
4, 6
7, 5
8, 4
4, 4
3, 6
7, 2
2, 3
3, 5
3, 3
3, 5
6, 5
7, 4
9, 3
8, 6
14, 2
9, 6
5, 4
10, 4
10, 3
7, 3
8, 5
4, 3
5, 4
3, 6
6, 8
1, 6
3, 4
7, 5
4, 4
4, 6
4, 8
2, 12
8, 11
5, 4
7, 9
6, 5
4, 6
6, 3
3, 3
7, 6
6, 1
7, 1
6, 1
6, 4
7, 5
6, 1
8, 1
8, 3
12, 2
13, 3
11, 1
16, 1
22, 2
12, 3
14, 2
11, 1
8, 3
14, 2
7, 3
9, 3
5, 3
3, 5
5, 0
7, 3
3, 1
5, 4
5, 1
3, 3
2, 1
4, 0
3, 2
3, 5
5, 1
8, 3
3, 4
5, 1
4, 5
5, 1
4, 3
2, 5
3, 3
4, 6
2, 4
4, 8
3, 3
5, 0
6, 2
5, 4
1, 3
1, 0
5, 4
6, 1
5, 1
4, 5
5, 7
3, 0
8, 2
5, 6
7, 1
6, 2
2, 3
6, 1
3, 2
7, 2
4, 1
6, 2
1, 2
1, 1
4, 1
4, 1
4, 1
3, 3
4, 0
5, 2
2, 1
2, 1
3, 4
2, 1
1, 6
1, 3
2, 2
2, 0
4, 1
1, 1
5, 4
0, 2
5, 0
3, 3
2, 3
3, 2
3, 2
2, 2
3, 0
3, 1
1, 3
5, 3
3, 5
0, 2
1, 2
0, 2
3, 1
0, 3
3, 0
4, 3
0, 4
3, 1
0, 4
1, 0
0, 0
1, 1
1, 0
0, 1
1, 1
3, 2
3, 2
0, 2
1, 0
0, 0
2, 3
2, 3
3, 2
3, 2
2, 1
1, 0
0, 1
2, 1
1, 0
4, 0
0, 1
1, 3
1, 2
1, 3
4, 0
2, 2
4, 1
6, 2
6, 1
4, 2
4, 1
4, 5
6, 0
3, 1
6, 0
3, 1
4, 0
5, 2
1, 0
2, 1
0, 0
4, 1
2, 1
5, 2
0, 0
2, 0
4, 1
2, 1
2, 3
3, 1
2, 2
3, 1
2, 2
2, 2
4, 1
3, 0
3, 0
2, 2
1, 1
5, 1
0, 2
1, 0
3, 1
0, 1
1, 1
0, 1
0, 3
1, 0
2, 1
1, 0
0, 1
1, 2
0, 0
1, 0
1, 3
1, 1
0, 0
1, 0
0, 1
1, 1
2, 0
1, 1
0, 0
2, 0
1, 1
1, 1
3, 2
1, 2
1, 1
1, 1
0, 2
4, 1
2, 1
1, 2
0, 1
3, 1
1, 0
2, 2
4, 1
1, 1
2, 2
1, 2
1, 0
1, 0
0, 1
0, 1
1, 1
3, 2
1, 0
2, 1
0, 1
0, 1
1, 1
1, 0
0, 0
0, 0
1, 0
0, 0
4, 0
1, 0
0, 2
0, 0
0, 0
1, 1
2, 0
1, 0
3, 0
1, 1
0, 0
0, 0
0, 1
0, 1
1, 1
1, 0
1, 1
1, 1
0, 0
0, 1
0, 0
1, 0
0, 0
0, 0
0, 0
0, 0
0, 0
2, 0
0, 0
0, 1
0, 1
1, 3
0, 0
0, 0
1, 0
0, 0
1, 1
1, 1
0, 0
0, 0
0, 1
0, 1
0, 1
0, 0
0, 2
1, 1
1, 3
0, 0
1, 0
1, 1
0, 0
1, 0
1, 0
0, 1
0, 0
1, 0
1, 0
0, 1
2, 1
2, 0
0, 1
0, 0
0, 1
0, 0
0, 1
0, 1
1, 0
0, 1
0, 0
1, 0
0, 1
0, 0
0, 1
2, 0
2, 0
0, 1
2, 0
0, 1
0, 0
0, 0
1, 0
1, 0
1, 0
0, 0
0, 0
0, 0
0, 2
2, 0
0, 1
1, 0
0, 0
1, 0
0, 0
0, 0
0, 1
0, 0
0, 0
0, 1
1, 0
1, 0
0, 0
0, 0
1, 0
1, 0
0, 0
0, 0
0, 0
0, 0
1, 0
0, 0
1, 2
0, 0
2, 0
1, 0
0, 0
0, 0
1, 0
0, 0
0, 0
0, 0
0, 0
1, 0
0, 0
0, 1
1, 0
1, 0
0, 0
2, 0
0, 1
0, 0
1, 1
0, 0
0, 1
0, 0
0, 2
0, 0
0, 0
0, 0
2, 0
1, 0
0, 0
0, 1
0, 0
0, 0
0, 1
0, 0
0, 0
0, 0
0, 0
0, 1
0, 1
0, 0
0, 0
1, 0
0, 0
0, 0
0, 0
0, 1
1, 0
0, 0
0, 0
0, 1
0, 0
0, 0
0, 0
0, 0
0, 0
1, 0
0, 0
0, 0
0, 0
0, 0
0, 1
0, 0
1, 0
0, 0
0, 0
1, 2
0, 0
0, 0
0, 0
0, 0
0, 0
0, 0
0, 0
0, 0
1, 1
0, 0
0, 0
0, 0
0, 0
0, 1
0, 0
0, 0
0, 0
0, 0
0, 0
0, 0
0, 1
0, 0
0, 0
0, 0
1, 0
0, 0
0, 0
0, 0
0, 0
0, 1
0, 0
0, 0
0, 0
0, 0
0, 0
2, 0
0, 0
0, 0
0, 0
0, 0
0, 0
0, 0
0, 0
0, 0
0, 0
1, 0
0, 1
0, 1
0, 0
0, 0
0, 0
0, 0
0, 1
1, 0
0, 0
0, 0
1, 0
0, 0
0, 0
0, 0
0, 0
0, 0
0, 0
0, 0
1, 0
0, 1
2, 0
1, 0
0, 0
0, 0
0, 1
0, 0
0, 0
0, 0
0, 0
0, 0
0, 0
0, 0
0, 0
0, 0
0, 0
0, 0
0, 0
0, 0
0, 0
0, 0
0, 0
0, 0
0, 0
0, 0
1, 0
0, 0
0, 0
0, 0
0, 0
0, 0
0, 0
0, 0
0, 0
0, 0
0, 0
0, 0
0, 0
0, 0
0, 0
0, 0
0, 1
1, 0
0, 0
0, 0
0, 0
0, 0
0, 0
0, 1
0, 0
0, 0
0, 0
0, 0
0, 0
0, 0
0, 0
0, 0
0, 0
0, 0
0, 0
0, 0
0, 0
0, 0
0, 0
0, 0
0, 0
0, 0
0, 0
0, 0
0, 0
0, 0
0, 0
0, 0
0, 0
0, 0
0, 0
0, 0
1, 1
0, 0
0, 0
0, 0
1, 0
0, 0
0, 0
0, 0
0, 0
0, 0
0, 0
0, 0
0, 0
0, 0
0, 0
0, 0
0, 0
0, 0
0, 0
0, 0
0, 0
0, 0
0, 0
0, 0
0, 0
0, 0
0, 0
0, 0
0, 0
0, 0
0, 0
0, 0
0, 0
0, 0
0, 0
0, 0
0, 0
0, 0
0, 0
0, 0
0, 0
0, 0
0, 0
0, 0
0, 0
0, 0
0, 0
0, 0
0, 0
0, 0
0, 0
0, 0
0, 0
0, 0
0, 0
0, 0
0, 0
0, 0
0, 0
0, 0
0, 0
0, 0
0, 0
0, 0
0, 0
0, 0
0, 0
0, 0
0, 0
0, 0
0, 0
0, 0
0, 0
0, 0
0, 0
0, 0
0, 0
0, 0
0, 0
0, 0
0, 0
0, 0
0, 0
0, 0
0, 0
0, 0
0, 0
0, 0
0, 0
0, 0
0, 0
0, 0
0, 0
0, 0
0, 0
0, 0
0, 0
0, 0
0, 0
0, 0
0, 0
0, 0
0, 0
0, 0
0, 0
0, 0
0, 0
0, 0
0, 0
0, 0
0, 0
0, 0
0, 0
0, 0
0, 0
0, 0
0, 0
0, 0
0, 0
0, 0
0, 0
0, 0
0, 0
0, 0
0, 0
0, 0
0, 0
0, 0
0, 0
0, 0
0, 0
0, 0
0, 0
0, 0
0, 0
0, 0
0, 0
0, 0
0, 0
0, 0
0, 0
0, 0
0, 0
0, 0
0, 0
0, 0
0, 0
0, 0
0, 0
0, 0
0, 0
0, 0
0, 0
0, 1
0, 0
0, 0
0, 0
0, 0
0, 0
0, 0
0, 0
0, 0
0, 0
0, 0
0, 0
0, 0
0, 0
0, 0
0, 0
0, 0
0, 0
0, 0
0, 0
0, 0
0, 0
0, 0
0, 0
0, 0
0, 0
0, 0
0, 0
0, 0
0, 0
0, 0
0, 0
0, 0
0, 0
0, 0
0, 0
0, 0
0, 0
0, 0
0, 0
0, 0
0, 0
0, 0
0, 0
0, 0
0, 0
0, 0
0, 0
0, 0
0, 0
0, 0
0, 0
0, 0
0, 0
0, 0
0, 0
0, 0
0, 0
0, 0
0, 0
0, 0
0, 0
0, 0
0, 0
0, 0
0, 0
0, 0
0, 0
0, 0
0, 0
0, 0
0, 0
0, 0
0, 0
0, 0
0, 0
0, 0
0, 0
0, 0
0, 0
0, 0
0, 0
0, 0
0, 0
0, 0
0, 0
0, 0
0, 0
0, 0
0, 0
0, 0
0, 0
0, 0
0, 0
0, 0
0, 0
0, 0
0, 0
0, 0
0, 0
0, 0
0, 0
0, 0
0, 0
0, 0
0, 0
0, 0
0, 0
0, 0
0, 0
0, 0
0, 0
0, 0
0, 0
0, 0
0, 0
0, 0
0, 0
0, 0
0, 0
0, 0
0, 0
0, 0
0, 0
0, 0
0, 0
0, 0
0, 0
0, 0
0, 0
0, 0
0, 0
0, 0
0, 0
0, 0
0, 0
0, 0
0, 0
0, 0
0, 0
0, 0
0, 0
0, 0
0, 0
0, 0
0, 0
0, 0
0, 0
0, 0
0, 0
0, 0
0, 0
0, 0
0, 0
0, 0
0, 0
0, 0
0, 0
0, 0
0, 0
0, 0
0, 0
0, 0
0, 0
0, 0
0, 0
0, 0
0, 0
0, 0
0, 0
0, 0
0, 0
0, 0
0, 0
0, 0
0, 0
0, 0
0, 0
0, 0
0, 0
0, 0
0, 0
0, 0
0, 0
0, 0
0, 0
0, 0
0, 0
0, 0
0, 0
0, 0
0, 0
0, 0
0, 0
0, 0
0, 0
0, 0
0, 0
0, 0
0, 0
0, 0
0, 0
0, 0
0, 0
0, 0
0, 0
0, 0
0, 0
0, 0
0, 0
0, 0
0, 0
0, 0
0, 0
0, 0
0, 0
0, 0
0, 0
0, 0
0, 0
0, 0
0, 0
0, 0
0, 0
0, 0
0, 0
0, 0
0, 0
0, 0
0, 0
0, 0
0, 0
0, 0
0, 0
0, 0
0, 0
0, 0
0, 0
0, 0
0, 0
0, 0
0, 0
0, 0
0, 0
0, 0
0, 0
0, 0
0, 0
0, 0
0, 0
0, 0
0, 0
0, 0
0, 0
0, 0
0, 0
0, 0
0, 0
0, 0
0, 0
0, 0
#ENDOFDATA     end of spectrum data