File: host_upload/06-09-2024/ps_0852/dump3/ps__0852shot_2287.msa
#FORMAT      : EMSA/MAS spectral data file
#VERSION     : TC202v2.0 PIXL
#TITLE       : N/A
#DATE        :       Date in the format DD-MMM-YYYY, for example 07-JUL-2010
#TIME        :             The time of day at which the spectrum was recorded, in 24-hour format
#OWNER       : PIXL Flight Model       (PIXL will use this to indicate which instrument took the data.)
#NPOINTS     : 4096     Number of data points in the spectrum (This can be zero for configuration only files)
#NCOLUMNS    : 2     Number of data columns in the spectrum (This can be zero for configuration only files)
#XUNITS      : eV
#YUNITS      : COUNTS
#DATATYPE    : YY
#XPERCHAN    : 7.862, 7.881   eV per channel (separate by commas if more than one detector)
#OFFSET      : 18.5, -22.4         eV of first channel  (separate by commas if more than one detector
#SIGNALTYPE  : XRF
#YP_TEMP     : 2.107
#LIVETIME    : 8.54941, 8.54171   seconds (separate by commas if more than one detector)
#REALTIME    : 10, 10.0   seconds (separate by commas if more than one detector)
#SPECTRUM    : start of spectrum data
0, 0
0, 0
0, 0
0, 0
0, 0
0, 0
0, 0
0, 0
0, 0
0, 0
0, 0
0, 0
0, 0
0, 0
0, 0
0, 0
0, 0
0, 0
0, 0
0, 0
0, 0
0, 0
0, 0
0, 0
0, 0
0, 0
0, 0
0, 1
0, 0
0, 0
0, 0
0, 0
1, 1
1, 2
1, 1
1, 2
4, 0
0, 1
2, 2
1, 2
1, 3
0, 4
0, 2
3, 2
3, 1
4, 5
3, 4
1, 5
10, 2
11, 10
25, 16
32, 40
41, 50
52, 65
57, 53
41, 46
51, 43
30, 32
20, 29
11, 12
8, 5
10, 3
3, 8
5, 3
7, 3
7, 7
9, 5
8, 7
14, 18
32, 41
48, 65
91, 122
143, 156
185, 220
228, 254
225, 255
215, 239
164, 166
129, 106
80, 73
41, 42
23, 24
16, 15
9, 10
6, 7
8, 8
12, 7
7, 5
11, 4
7, 10
11, 13
23, 17
41, 47
84, 91
154, 170
281, 289
396, 428
517, 551
652, 633
614, 631
520, 602
492, 474
345, 330
231, 186
142, 144
82, 99
71, 83
66, 65
84, 80
107, 94
113, 130
117, 142
148, 152
163, 152
138, 152
107, 103
91, 121
75, 87
67, 60
50, 67
47, 54
39, 38
42, 34
38, 35
32, 33
16, 16
19, 22
21, 15
17, 13
14, 12
7, 5
13, 7
3, 11
5, 8
14, 9
2, 3
8, 12
6, 12
13, 23
17, 24
25, 29
23, 31
19, 26
33, 34
17, 14
10, 12
9, 9
6, 5
7, 5
3, 3
6, 5
13, 9
10, 12
12, 18
19, 20
20, 27
27, 24
28, 31
26, 28
15, 15
24, 23
17, 15
11, 14
11, 6
2, 4
2, 10
1, 5
7, 6
3, 6
6, 4
7, 7
6, 7
9, 4
11, 5
4, 10
4, 2
2, 8
8, 9
5, 1
7, 3
6, 8
7, 8
3, 7
5, 3
4, 7
3, 5
6, 4
5, 7
3, 5
9, 10
9, 9
5, 12
9, 11
13, 11
14, 10
11, 7
13, 16
15, 13
14, 10
15, 7
11, 14
12, 18
10, 7
4, 11
5, 17
8, 11
5, 19
2, 23
7, 22
5, 24
10, 29
8, 26
5, 31
4, 32
5, 36
6, 21
12, 8
8, 10
7, 9
11, 3
5, 2
8, 8
7, 15
14, 11
12, 9
8, 14
11, 10
21, 17
20, 15
35, 28
33, 27
39, 30
41, 36
51, 40
57, 33
60, 40
39, 28
54, 19
45, 18
29, 12
23, 15
18, 14
14, 10
12, 9
16, 15
20, 23
28, 21
37, 44
34, 44
49, 61
56, 66
50, 67
63, 57
59, 46
43, 49
27, 32
25, 40
25, 27
18, 16
15, 13
16, 23
22, 38
36, 59
91, 104
138, 183
266, 349
418, 568
700, 900
1028, 1348
1432, 1759
1869, 2089
2125, 2322
2147, 2405
2067, 2356
1956, 1931
1695, 1512
1194, 1104
862, 725
525, 431
330, 264
173, 139
78, 70
60, 32
28, 18
17, 16
19, 11
8, 12
15, 15
16, 9
23, 17
18, 25
31, 36
36, 45
73, 71
93, 119
151, 174
183, 231
259, 265
266, 368
303, 401
338, 355
350, 324
264, 281
224, 212
180, 152
126, 106
90, 64
58, 44
29, 23
14, 12
13, 12
6, 7
9, 7
14, 13
13, 13
9, 10
19, 9
14, 16
24, 18
37, 16
35, 11
45, 7
48, 6
60, 13
52, 9
54, 9
54, 5
44, 3
33, 5
24, 2
20, 6
12, 2
16, 3
3, 3
10, 5
6, 4
5, 1
10, 1
3, 3
11, 3
8, 8
9, 4
7, 3
5, 5
3, 9
7, 4
3, 4
5, 2
7, 3
4, 11
8, 9
0, 4
7, 5
7, 4
4, 6
4, 6
5, 3
5, 2
6, 1
2, 4
2, 4
3, 3
2, 1
4, 4
5, 3
2, 6
2, 2
5, 3
3, 11
6, 8
3, 6
3, 3
14, 2
1, 7
2, 2
7, 2
8, 4
10, 4
7, 7
7, 2
15, 1
6, 5
6, 0
4, 5
8, 5
3, 2
7, 8
9, 4
6, 4
4, 3
1, 5
5, 12
2, 6
4, 9
5, 4
1, 9
2, 5
8, 6
2, 8
6, 7
1, 6
4, 2
5, 5
2, 5
3, 6
5, 5
7, 0
8, 3
4, 5
3, 5
9, 3
7, 4
8, 7
11, 10
7, 10
9, 12
4, 15
2, 14
6, 9
4, 18
3, 16
8, 9
8, 19
7, 11
6, 4
7, 14
7, 10
10, 8
7, 2
13, 3
8, 3
6, 3
7, 4
4, 2
3, 5
4, 3
4, 5
3, 6
2, 2
1, 3
4, 7
3, 5
5, 2
2, 1
4, 5
1, 3
2, 5
3, 9
4, 4
2, 2
4, 3
0, 1
2, 1
1, 1
5, 0
2, 5
3, 4
2, 2
1, 4
1, 5
3, 1
6, 5
7, 8
3, 1
7, 7
5, 2
8, 4
13, 2
3, 1
13, 2
10, 2
10, 2
9, 0
5, 2
8, 4
1, 1
1, 3
5, 3
2, 0
1, 3
1, 1
2, 0
5, 1
1, 3
1, 3
4, 7
3, 5
1, 5
0, 0
3, 4
1, 2
1, 3
3, 3
1, 1
1, 1
2, 3
0, 4
0, 2
1, 0
3, 3
1, 1
3, 3
1, 0
1, 0
1, 1
1, 4
1, 0
2, 1
3, 1
0, 4
3, 1
2, 5
0, 5
6, 4
2, 1
3, 3
5, 1
3, 0
0, 0
1, 0
1, 1
0, 4
3, 1
2, 2
2, 1
2, 1
2, 2
0, 1
2, 1
0, 0
1, 1
0, 2
4, 2
3, 1
4, 2
1, 4
2, 4
2, 3
2, 1
6, 6
4, 2
5, 7
3, 3
3, 5
5, 1
3, 5
3, 3
5, 3
1, 1
1, 3
2, 0
2, 0
1, 2
1, 1
1, 2
1, 2
1, 3
2, 1
2, 0
0, 0
2, 1
2, 2
3, 3
3, 2
1, 1
2, 0
0, 1
2, 1
1, 1
0, 3
2, 1
5, 2
2, 0
0, 1
1, 1
0, 2
3, 1
2, 2
3, 1
1, 0
2, 0
0, 2
0, 0
1, 1
3, 1
0, 0
2, 2
0, 1
0, 1
3, 5
1, 0
2, 2
1, 1
0, 2
2, 1
0, 3
1, 1
4, 2
0, 1
0, 2
0, 2
2, 2
1, 0
0, 1
0, 1
2, 0
0, 0
0, 0
2, 0
0, 4
2, 2
1, 0
1, 0
0, 5
0, 1
1, 1
1, 0
0, 3
0, 0
0, 1
0, 0
0, 0
0, 0
1, 1
0, 1
0, 1
1, 0
1, 1
1, 0
0, 3
0, 1
0, 3
1, 0
1, 1
0, 2
1, 3
1, 1
1, 1
1, 0
1, 0
0, 2
1, 1
1, 1
1, 1
1, 1
2, 0
2, 1
0, 0
1, 3
0, 0
0, 0
1, 2
0, 1
1, 0
0, 2
0, 2
0, 2
0, 1
1, 1
0, 2
1, 0
0, 0
0, 1
0, 0
1, 1
0, 0
2, 0
0, 1
0, 0
0, 0
1, 1
0, 1
0, 1
1, 2
0, 1
0, 0
1, 1
2, 0
0, 0
0, 1
0, 1
1, 0
0, 0
0, 0
0, 1
0, 1
1, 1
1, 1
0, 1
0, 0
0, 1
1, 0
0, 1
0, 1
0, 2
0, 1
1, 0
0, 0
0, 1
0, 1
1, 0
0, 1
0, 0
1, 0
0, 0
1, 0
0, 0
1, 0
1, 0
0, 0
0, 0
0, 0
0, 1
0, 0
1, 0
1, 0
0, 0
0, 0
0, 0
0, 0
1, 0
0, 1
0, 0
0, 1
1, 0
0, 1
0, 0
0, 2
1, 0
2, 0
0, 0
0, 1
0, 0
0, 0
0, 0
1, 0
0, 0
0, 0
0, 0
0, 0
0, 0
0, 0
0, 0
0, 0
0, 0
0, 0
0, 0
0, 0
0, 0
0, 0
1, 1
0, 0
0, 0
0, 0
1, 0
0, 0
0, 0
0, 1
1, 2
0, 0
0, 0
0, 0
1, 0
0, 1
0, 2
1, 0
0, 0
0, 0
0, 1
0, 0
0, 1
0, 0
0, 1
0, 0
1, 1
0, 0
0, 0
0, 0
0, 0
0, 0
0, 0
0, 0
0, 0
2, 0
0, 0
0, 0
1, 0
1, 0
0, 0
0, 0
0, 0
0, 1
1, 0
1, 0
1, 0
0, 0
0, 0
1, 0
0, 0
0, 1
0, 1
0, 0
0, 1
0, 0
0, 0
0, 0
0, 0
0, 1
2, 0
1, 0
1, 0
1, 0
1, 0
0, 0
0, 0
0, 0
0, 0
0, 0
0, 0
0, 0
0, 0
0, 1
0, 0
0, 0
0, 0
0, 0
0, 0
0, 0
0, 0
0, 1
0, 1
0, 0
1, 0
0, 0
0, 0
0, 0
0, 0
0, 0
0, 0
0, 0
0, 0
0, 1
0, 0
0, 0
0, 1
0, 1
0, 0
0, 0
0, 0
0, 1
0, 0
0, 0
1, 0
0, 0
1, 0
0, 0
1, 1
0, 0
0, 0
1, 0
0, 0
1, 0
0, 0
0, 0
0, 0
0, 0
0, 0
0, 0
0, 0
0, 0
0, 1
0, 1
0, 0
0, 0
0, 0
0, 0
0, 0
0, 0
0, 0
0, 0
0, 0
0, 0
0, 0
0, 0
0, 0
0, 0
0, 0
0, 0
0, 0
0, 1
0, 0
0, 0
0, 0
0, 0
0, 0
0, 0
0, 0
0, 0
0, 1
0, 0
0, 0
0, 0
0, 0
0, 0
0, 0
0, 0
0, 0
0, 0
0, 0
0, 0
0, 0
0, 0
0, 0
0, 0
0, 0
0, 0
0, 0
0, 0
0, 0
0, 0
0, 0
0, 0
0, 0
0, 0
0, 0
0, 0
0, 0
0, 0
0, 0
1, 1
0, 0
0, 0
0, 0
0, 0
0, 0
0, 0
0, 0
0, 0
0, 0
0, 0
0, 0
0, 0
0, 0
0, 0
1, 0
0, 0
0, 0
0, 0
0, 0
1, 0
0, 0
0, 0
0, 0
0, 0
0, 0
0, 0
0, 0
0, 0
0, 0
0, 0
0, 0
0, 0
0, 0
0, 0
0, 0
0, 0
0, 0
0, 0
0, 0
0, 0
0, 0
0, 0
0, 0
0, 0
0, 0
0, 0
1, 0
1, 0
0, 0
0, 0
0, 0
0, 0
0, 0
0, 0
0, 0
0, 0
0, 0
0, 0
0, 0
0, 0
0, 0
0, 0
0, 0
0, 0
0, 0
0, 0
0, 0
0, 0
0, 0
0, 0
0, 0
0, 0
0, 0
0, 0
0, 0
0, 0
0, 0
0, 0
0, 0
0, 0
0, 0
0, 0
0, 0
0, 0
0, 0
1, 0
0, 0
0, 0
0, 0
0, 0
0, 0
0, 0
0, 0
0, 0
0, 0
0, 0
0, 0
0, 0
0, 0
0, 0
0, 0
0, 0
0, 0
0, 0
0, 0
0, 0
0, 0
0, 0
0, 0
0, 0
0, 0
0, 1
0, 0
0, 0
0, 0
0, 0
0, 0
0, 0
0, 0
0, 0
0, 0
0, 0
0, 0
0, 0
0, 0
0, 0
0, 0
0, 0
0, 0
0, 0
0, 0
0, 0
0, 0
0, 0
0, 0
0, 0
0, 0
0, 0
0, 0
0, 0
0, 0
0, 0
0, 0
0, 0
0, 0
0, 0
0, 0
0, 0
0, 0
0, 0
0, 0
0, 0
0, 0
0, 0
0, 0
0, 0
0, 0
0, 0
0, 0
0, 0
0, 0
0, 0
0, 0
0, 0
0, 0
0, 0
0, 0
0, 0
0, 0
0, 0
0, 0
0, 0
0, 0
0, 0
0, 0
0, 0
0, 0
0, 0
0, 0
0, 0
0, 0
0, 0
0, 0
0, 0
0, 0
0, 0
0, 0
0, 0
0, 0
0, 0
0, 0
0, 0
0, 0
0, 0
0, 0
0, 0
0, 0
0, 0
0, 0
0, 0
0, 0
0, 0
0, 0
0, 0
0, 0
0, 0
0, 0
0, 0
0, 0
0, 0
0, 0
0, 0
0, 0
0, 0
0, 0
0, 0
0, 0
0, 0
0, 0
0, 0
0, 0
0, 0
0, 0
0, 0
0, 0
0, 0
0, 0
0, 0
0, 0
0, 0
0, 0
0, 0
0, 0
0, 0
0, 0
0, 0
0, 0
0, 0
0, 0
0, 0
0, 0
0, 0
0, 0
0, 0
0, 0
0, 0
0, 0
0, 0
0, 0
0, 0
0, 0
0, 0
0, 0
0, 0
0, 0
0, 0
0, 0
0, 0
0, 0
0, 0
0, 0
0, 0
0, 0
0, 0
0, 0
0, 0
0, 0
0, 0
0, 0
0, 0
0, 0
0, 0
0, 0
0, 0
0, 0
0, 0
0, 0
0, 0
0, 0
0, 0
0, 0
0, 0
0, 0
0, 0
0, 0
0, 0
0, 0
0, 0
0, 0
0, 0
0, 0
0, 0
0, 0
0, 0
0, 0
0, 0
0, 0
0, 0
0, 0
0, 0
0, 0
0, 0
0, 0
0, 0
0, 0
0, 0
0, 0
0, 0
0, 0
0, 0
0, 0
0, 0
0, 0
0, 0
0, 0
0, 0
0, 0
0, 0
0, 0
0, 0
0, 0
0, 0
0, 0
0, 0
0, 0
0, 0
0, 0
0, 0
0, 0
0, 0
0, 0
0, 0
0, 0
0, 0
0, 0
0, 0
0, 0
0, 0
0, 0
0, 0
0, 0
0, 0
0, 0
0, 0
0, 0
0, 0
0, 0
0, 0
0, 0
0, 0
0, 0
0, 0
0, 0
0, 0
0, 0
0, 0
0, 0
0, 0
0, 0
0, 0
0, 0
0, 0
0, 0
0, 0
0, 0
0, 0
0, 0
0, 0
0, 0
0, 0
0, 0
0, 0
0, 0
0, 0
0, 0
0, 0
0, 0
0, 0
0, 0
0, 0
0, 0
0, 0
0, 0
0, 0
0, 0
0, 0
0, 0
0, 0
0, 0
0, 0
0, 0
0, 0
0, 0
0, 0
0, 0
0, 0
0, 0
0, 0
0, 0
0, 0
0, 0
0, 0
0, 0
0, 0
0, 0
0, 0
0, 0
0, 0
0, 0
0, 0
0, 0
0, 0
0, 0
0, 0
0, 0
0, 0
0, 0
0, 0
0, 0
0, 0
0, 0
0, 0
0, 0
0, 0
0, 0
0, 0
0, 0
0, 0
0, 0
0, 0
0, 0
0, 0
0, 0
0, 0
0, 0
0, 0
#ENDOFDATA     end of spectrum data