File: host_upload/06-09-2024/ps_0852/dump3/ps__0852shot_2195.msa
#FORMAT      : EMSA/MAS spectral data file
#VERSION     : TC202v2.0 PIXL
#TITLE       : N/A
#DATE        :       Date in the format DD-MMM-YYYY, for example 07-JUL-2010
#TIME        :             The time of day at which the spectrum was recorded, in 24-hour format
#OWNER       : PIXL Flight Model       (PIXL will use this to indicate which instrument took the data.)
#NPOINTS     : 4096     Number of data points in the spectrum (This can be zero for configuration only files)
#NCOLUMNS    : 2     Number of data columns in the spectrum (This can be zero for configuration only files)
#XUNITS      : eV
#YUNITS      : COUNTS
#DATATYPE    : YY
#XPERCHAN    : 7.862, 7.881   eV per channel (separate by commas if more than one detector)
#OFFSET      : 18.5, -22.4         eV of first channel  (separate by commas if more than one detector
#SIGNALTYPE  : XRF
#YP_TEMP     : 2.428
#LIVETIME    : 8.55937, 8.56376   seconds (separate by commas if more than one detector)
#REALTIME    : 10, 10.0   seconds (separate by commas if more than one detector)
#SPECTRUM    : start of spectrum data
0, 0
0, 0
0, 0
0, 0
0, 0
0, 0
0, 0
0, 0
0, 0
0, 0
0, 0
0, 0
0, 0
0, 0
0, 0
0, 0
0, 0
0, 0
0, 0
0, 0
0, 0
0, 0
0, 0
0, 0
0, 0
0, 0
0, 0
0, 0
0, 0
0, 0
0, 1
0, 0
0, 0
1, 0
0, 0
1, 1
0, 0
0, 0
1, 0
2, 0
3, 0
1, 1
1, 1
1, 0
1, 3
1, 0
1, 1
1, 2
3, 9
10, 12
27, 13
39, 28
67, 60
94, 63
78, 77
75, 79
59, 55
53, 32
27, 18
17, 14
14, 8
3, 3
5, 4
3, 4
2, 2
5, 6
3, 4
7, 6
25, 20
52, 38
106, 84
172, 156
263, 258
416, 322
452, 400
455, 359
367, 340
333, 275
220, 178
150, 109
77, 53
32, 32
20, 14
12, 7
8, 6
9, 3
0, 2
1, 4
1, 0
0, 2
1, 1
3, 2
2, 3
0, 0
0, 4
5, 3
2, 1
3, 5
8, 3
7, 2
3, 4
5, 2
6, 3
6, 4
1, 2
4, 4
5, 3
7, 3
6, 11
21, 15
21, 23
18, 27
43, 55
42, 58
37, 75
43, 93
47, 68
29, 76
33, 59
24, 40
22, 37
25, 28
19, 22
15, 22
18, 28
9, 13
17, 14
9, 8
7, 8
7, 5
6, 5
3, 5
3, 3
1, 3
0, 4
2, 2
2, 2
3, 2
2, 4
1, 2
4, 1
1, 4
3, 2
0, 2
2, 1
1, 3
3, 0
5, 4
3, 2
7, 2
6, 2
5, 10
10, 7
16, 10
18, 17
17, 19
22, 18
32, 17
23, 23
26, 15
22, 17
15, 13
7, 6
16, 7
9, 6
6, 4
7, 6
12, 2
7, 10
6, 9
6, 7
6, 3
5, 10
6, 10
2, 9
5, 5
11, 16
9, 10
9, 9
10, 8
6, 11
5, 4
3, 3
1, 8
4, 4
5, 7
5, 5
12, 7
12, 9
7, 8
12, 6
7, 9
9, 12
22, 12
16, 24
19, 27
22, 20
20, 26
22, 38
41, 25
36, 31
34, 18
60, 17
58, 17
67, 9
50, 8
41, 5
24, 6
27, 7
18, 7
17, 5
15, 5
13, 5
14, 5
3, 5
5, 8
9, 7
5, 9
10, 7
5, 7
9, 7
7, 7
11, 5
6, 5
7, 6
10, 13
14, 10
8, 9
18, 16
25, 14
17, 17
19, 19
21, 24
15, 10
24, 16
7, 18
15, 17
13, 15
9, 7
14, 6
17, 8
9, 4
9, 9
13, 10
15, 12
17, 18
24, 28
35, 32
38, 48
59, 54
69, 53
64, 58
60, 64
55, 30
41, 33
47, 32
32, 26
23, 19
28, 17
13, 25
31, 27
25, 36
59, 58
98, 81
166, 165
265, 321
506, 588
762, 843
1237, 1249
1532, 1732
2053, 2022
2365, 2318
2464, 2255
2466, 2092
2163, 1821
1826, 1456
1321, 1095
971, 696
623, 421
389, 252
225, 131
134, 71
85, 35
62, 23
59, 17
66, 16
68, 16
63, 18
68, 16
70, 16
64, 30
61, 44
81, 68
95, 82
106, 110
148, 174
198, 213
273, 283
320, 322
338, 349
352, 348
354, 293
294, 263
240, 215
200, 135
131, 105
85, 73
55, 56
30, 25
12, 14
18, 13
14, 8
7, 20
7, 16
15, 22
13, 9
13, 15
8, 15
15, 14
13, 16
17, 8
16, 14
13, 9
16, 9
11, 4
11, 3
2, 5
2, 3
2, 1
3, 2
5, 4
0, 1
3, 4
6, 5
2, 1
3, 4
5, 6
3, 5
3, 5
9, 5
4, 4
6, 4
4, 4
9, 4
7, 5
5, 8
5, 0
8, 5
8, 7
6, 3
9, 4
3, 8
8, 5
4, 6
9, 4
12, 9
15, 4
2, 4
6, 3
4, 2
7, 5
8, 3
5, 5
11, 3
5, 9
6, 2
7, 2
5, 4
9, 5
6, 6
5, 2
4, 4
3, 6
7, 7
3, 2
2, 6
5, 2
7, 3
3, 3
1, 5
4, 2
6, 8
4, 6
4, 2
7, 5
2, 2
7, 7
5, 10
0, 5
5, 6
7, 12
3, 8
8, 15
8, 19
5, 18
6, 13
8, 17
3, 17
9, 17
5, 15
9, 16
6, 10
9, 8
7, 7
8, 9
5, 7
9, 3
8, 3
5, 3
11, 1
7, 2
2, 5
10, 2
11, 3
10, 4
14, 4
9, 3
6, 6
8, 4
13, 3
8, 5
12, 4
7, 3
5, 6
7, 5
1, 1
2, 2
7, 2
3, 2
5, 4
7, 3
7, 5
3, 7
5, 6
2, 3
4, 1
5, 4
3, 4
4, 3
4, 2
6, 4
1, 4
4, 3
1, 2
2, 2
4, 5
3, 0
2, 7
7, 4
3, 2
0, 1
1, 5
2, 2
0, 5
8, 8
2, 2
2, 2
3, 2
5, 5
2, 3
1, 2
5, 3
1, 1
2, 3
0, 2
2, 5
2, 3
2, 3
4, 4
3, 4
2, 1
1, 3
2, 4
2, 1
0, 1
1, 3
3, 3
4, 7
4, 4
6, 2
2, 5
2, 1
0, 2
2, 4
4, 0
2, 2
3, 7
0, 0
3, 4
3, 3
2, 3
2, 6
1, 10
4, 4
2, 1
5, 1
3, 2
2, 2
1, 3
3, 3
3, 1
1, 2
3, 2
1, 3
2, 2
3, 1
2, 0
3, 3
1, 3
2, 2
1, 2
0, 3
2, 0
5, 2
2, 0
0, 1
3, 2
0, 1
1, 2
0, 4
1, 0
2, 2
2, 3
5, 3
0, 1
3, 1
1, 2
3, 0
3, 3
1, 3
2, 0
0, 1
1, 3
1, 2
4, 2
1, 2
2, 1
3, 5
3, 3
4, 6
8, 6
7, 3
7, 3
3, 5
3, 2
4, 3
4, 3
2, 0
3, 3
3, 4
2, 0
1, 1
1, 0
0, 4
2, 2
5, 0
6, 1
1, 0
0, 0
1, 0
1, 1
0, 1
5, 1
3, 5
2, 1
0, 2
1, 2
4, 2
0, 3
2, 1
2, 3
0, 0
2, 3
0, 3
2, 2
1, 3
1, 0
1, 2
1, 3
2, 2
1, 2
1, 1
2, 1
1, 1
1, 1
0, 1
2, 0
2, 1
1, 0
1, 0
1, 2
3, 1
3, 1
1, 2
0, 3
4, 1
0, 2
1, 2
3, 0
2, 3
0, 2
3, 1
2, 0
1, 3
5, 2
0, 2
4, 2
2, 1
3, 2
1, 2
5, 2
5, 1
3, 1
1, 1
2, 0
1, 0
3, 1
2, 0
1, 0
1, 1
1, 1
2, 0
3, 1
2, 0
1, 0
3, 1
1, 2
1, 1
1, 1
1, 1
0, 0
0, 3
0, 0
0, 3
1, 0
0, 0
0, 1
0, 0
2, 1
0, 2
1, 1
0, 0
0, 0
0, 1
0, 1
1, 0
0, 0
0, 0
1, 0
0, 0
0, 0
0, 2
0, 0
0, 1
1, 0
0, 2
1, 1
1, 0
1, 2
1, 2
0, 0
0, 0
1, 0
1, 2
0, 1
1, 0
1, 2
0, 0
0, 0
0, 0
1, 1
0, 1
0, 0
2, 0
0, 0
0, 0
0, 0
1, 0
0, 0
1, 1
0, 1
1, 1
0, 0
0, 0
0, 1
1, 0
1, 0
0, 1
0, 0
1, 1
1, 0
1, 0
1, 0
0, 0
0, 0
0, 2
0, 0
0, 0
0, 0
1, 0
0, 1
0, 1
2, 0
1, 2
0, 0
1, 1
0, 0
0, 0
0, 1
1, 0
1, 0
0, 0
0, 0
0, 0
0, 0
0, 1
0, 0
0, 0
1, 0
2, 3
2, 0
0, 0
1, 0
0, 1
1, 0
0, 1
0, 0
1, 0
0, 0
0, 0
2, 0
0, 0
0, 1
0, 1
0, 0
0, 0
0, 0
0, 0
0, 1
0, 0
0, 0
0, 0
1, 1
1, 0
1, 1
0, 0
0, 0
0, 1
0, 0
0, 0
0, 0
0, 0
0, 0
0, 1
2, 0
1, 0
0, 0
0, 0
0, 0
0, 0
0, 1
0, 0
0, 1
0, 0
0, 0
0, 0
0, 0
0, 0
0, 1
0, 0
0, 0
1, 1
0, 0
0, 0
1, 0
0, 0
0, 0
0, 0
0, 0
0, 0
2, 1
0, 0
0, 0
0, 0
1, 0
0, 0
0, 0
0, 1
0, 0
0, 1
0, 1
0, 0
1, 0
1, 0
1, 0
0, 0
3, 0
1, 0
0, 0
1, 0
1, 0
0, 0
0, 1
0, 0
0, 0
0, 1
1, 0
1, 2
0, 0
0, 0
0, 0
0, 1
0, 0
0, 0
0, 0
0, 1
0, 1
0, 0
0, 0
0, 0
0, 0
0, 1
0, 0
0, 0
0, 0
0, 0
0, 0
0, 0
0, 0
1, 0
0, 0
0, 0
0, 0
0, 0
0, 0
0, 0
0, 0
0, 0
0, 0
1, 0
0, 0
0, 0
0, 0
0, 0
0, 2
1, 0
0, 0
0, 0
1, 1
0, 0
0, 0
0, 0
0, 0
0, 0
0, 0
0, 0
0, 0
0, 0
0, 1
0, 0
0, 0
0, 0
0, 0
0, 0
0, 0
0, 0
0, 1
0, 0
0, 0
0, 0
0, 0
0, 0
0, 0
0, 0
1, 0
0, 0
0, 0
0, 0
1, 0
0, 0
0, 0
0, 0
0, 0
0, 0
0, 0
0, 0
0, 0
0, 0
0, 0
0, 0
0, 1
0, 0
0, 0
0, 1
1, 0
0, 0
0, 0
0, 0
0, 1
0, 0
1, 0
0, 0
0, 0
0, 0
0, 0
0, 0
0, 1
0, 0
0, 0
0, 0
0, 0
0, 0
0, 0
0, 0
0, 0
0, 0
0, 0
0, 0
0, 0
0, 0
0, 0
0, 0
0, 0
0, 0
0, 0
0, 0
0, 0
0, 0
0, 0
0, 0
0, 0
0, 0
0, 0
0, 0
1, 0
0, 0
0, 0
0, 0
1, 0
0, 0
0, 0
0, 0
0, 0
1, 0
0, 0
0, 0
0, 0
0, 0
0, 0
0, 0
0, 0
0, 0
0, 1
0, 0
0, 0
0, 0
1, 0
0, 0
0, 0
0, 0
0, 0
0, 0
0, 0
0, 0
0, 0
0, 0
0, 0
0, 0
0, 0
0, 0
0, 0
0, 0
0, 0
0, 0
0, 0
0, 0
0, 0
0, 0
0, 0
0, 0
0, 0
0, 0
0, 0
0, 0
0, 0
0, 0
0, 0
0, 0
0, 0
0, 0
0, 0
0, 0
0, 0
0, 0
0, 0
0, 0
0, 0
0, 0
0, 0
0, 0
0, 0
1, 0
0, 0
0, 0
0, 0
0, 0
0, 0
0, 0
0, 0
0, 0
0, 0
0, 0
0, 0
0, 0
0, 0
1, 0
0, 0
0, 0
0, 0
0, 0
0, 0
0, 0
0, 0
0, 0
0, 0
0, 0
0, 0
0, 0
0, 0
0, 0
0, 0
0, 0
0, 0
0, 0
0, 0
0, 0
0, 0
0, 0
0, 0
0, 0
0, 0
0, 0
0, 0
0, 0
0, 0
0, 0
0, 0
0, 0
0, 0
0, 0
0, 0
0, 0
0, 0
0, 0
0, 0
0, 0
0, 0
0, 0
0, 0
0, 0
0, 1
0, 0
0, 0
0, 0
0, 0
0, 0
0, 0
0, 0
0, 0
0, 0
0, 0
0, 0
0, 0
0, 0
0, 0
0, 0
0, 0
0, 0
0, 0
0, 0
0, 0
0, 0
0, 0
0, 0
0, 0
0, 0
0, 0
0, 0
0, 0
0, 0
0, 0
0, 0
0, 0
0, 0
0, 0
0, 0
0, 0
0, 0
0, 0
0, 0
0, 0
0, 0
0, 0
0, 0
0, 0
0, 0
0, 0
0, 0
0, 0
0, 0
0, 0
0, 0
0, 0
0, 0
0, 0
0, 0
0, 0
0, 0
0, 0
0, 0
0, 0
0, 0
0, 0
0, 0
0, 0
0, 0
0, 0
0, 0
0, 0
0, 0
0, 0
0, 0
0, 0
0, 0
0, 0
0, 0
0, 0
0, 0
0, 0
0, 0
0, 0
0, 0
0, 0
0, 0
0, 0
0, 0
0, 0
0, 0
0, 0
0, 0
0, 0
0, 0
0, 0
0, 0
0, 0
0, 0
0, 0
0, 0
0, 0
0, 0
0, 0
0, 0
0, 0
0, 0
0, 0
0, 0
0, 0
0, 0
0, 0
0, 0
0, 0
0, 0
0, 0
0, 0
0, 0
0, 0
0, 0
0, 0
0, 0
0, 0
0, 0
0, 0
0, 0
0, 0
0, 0
0, 0
0, 0
0, 0
0, 0
0, 0
0, 0
0, 0
0, 0
0, 0
0, 0
0, 0
0, 0
0, 0
0, 0
0, 0
0, 0
0, 0
0, 0
0, 0
0, 0
0, 0
0, 0
0, 0
0, 0
0, 0
0, 0
0, 0
0, 0
0, 0
0, 0
0, 0
0, 0
0, 0
0, 0
0, 0
0, 0
0, 0
0, 0
0, 0
0, 0
0, 0
0, 0
0, 0
0, 0
0, 0
0, 0
0, 0
0, 0
0, 0
0, 0
0, 0
0, 0
0, 0
0, 0
0, 0
0, 0
0, 0
0, 0
0, 0
0, 0
0, 0
0, 0
0, 0
0, 0
0, 0
0, 0
0, 0
0, 0
0, 0
0, 0
0, 0
0, 0
0, 0
0, 0
0, 0
0, 0
0, 0
0, 0
0, 0
0, 0
0, 0
0, 0
0, 0
0, 0
0, 0
0, 0
0, 0
0, 0
0, 0
0, 0
0, 0
0, 0
0, 0
0, 0
0, 0
0, 0
0, 0
0, 0
0, 0
0, 0
0, 0
0, 0
0, 0
0, 0
0, 0
0, 0
0, 0
0, 0
0, 0
0, 0
0, 0
0, 0
0, 0
0, 0
0, 0
0, 0
0, 0
0, 0
0, 0
0, 0
0, 0
0, 0
0, 0
0, 0
0, 0
0, 0
0, 0
0, 0
0, 0
0, 0
0, 0
0, 0
0, 0
0, 0
0, 0
0, 0
0, 0
0, 0
0, 0
0, 0
0, 0
0, 0
0, 0
0, 0
0, 0
0, 0
0, 0
0, 0
0, 0
0, 0
0, 0
0, 0
0, 0
0, 0
0, 0
0, 0
0, 0
0, 0
0, 0
0, 0
0, 0
0, 0
0, 0
0, 0
0, 0
0, 0
0, 0
0, 0
0, 0
0, 0
0, 0
0, 0
0, 0
0, 0
0, 0
0, 0
0, 0
0, 0
0, 0
0, 0
0, 0
#ENDOFDATA     end of spectrum data