File: host_upload/06-09-2024/ps_0852/dump3/ps__0852shot_2144.msa
#FORMAT      : EMSA/MAS spectral data file
#VERSION     : TC202v2.0 PIXL
#TITLE       : N/A
#DATE        :       Date in the format DD-MMM-YYYY, for example 07-JUL-2010
#TIME        :             The time of day at which the spectrum was recorded, in 24-hour format
#OWNER       : PIXL Flight Model       (PIXL will use this to indicate which instrument took the data.)
#NPOINTS     : 4096     Number of data points in the spectrum (This can be zero for configuration only files)
#NCOLUMNS    : 2     Number of data columns in the spectrum (This can be zero for configuration only files)
#XUNITS      : eV
#YUNITS      : COUNTS
#DATATYPE    : YY
#XPERCHAN    : 7.862, 7.881   eV per channel (separate by commas if more than one detector)
#OFFSET      : 18.5, -22.4         eV of first channel  (separate by commas if more than one detector
#SIGNALTYPE  : XRF
#YP_TEMP     : 2.396
#LIVETIME    : 8.55826, 8.56342   seconds (separate by commas if more than one detector)
#REALTIME    : 10, 10.0   seconds (separate by commas if more than one detector)
#SPECTRUM    : start of spectrum data
0, 0
0, 0
0, 0
0, 0
0, 0
0, 0
0, 0
0, 0
0, 0
0, 0
0, 0
0, 0
0, 0
0, 0
0, 0
0, 0
0, 0
0, 0
0, 0
0, 0
0, 0
0, 0
0, 0
0, 0
0, 0
0, 0
0, 0
0, 0
0, 0
0, 0
0, 0
0, 0
0, 0
0, 0
0, 0
0, 0
0, 2
0, 2
0, 1
1, 2
1, 0
2, 2
0, 2
1, 1
0, 1
0, 1
1, 1
4, 1
5, 7
13, 14
24, 26
42, 32
50, 49
80, 72
71, 70
69, 71
44, 55
36, 32
31, 27
15, 11
6, 6
5, 3
5, 4
3, 2
3, 6
4, 7
1, 2
12, 8
24, 22
39, 49
102, 94
162, 189
263, 292
344, 341
427, 399
421, 404
350, 391
278, 270
193, 185
111, 117
65, 64
39, 28
20, 8
10, 15
3, 3
7, 5
6, 4
3, 1
0, 0
1, 1
1, 2
1, 2
1, 1
0, 1
1, 3
3, 1
1, 2
2, 4
1, 4
3, 2
5, 5
3, 3
2, 4
3, 4
6, 4
4, 3
6, 7
6, 7
19, 8
22, 11
17, 19
20, 19
23, 40
38, 49
37, 42
52, 52
39, 46
38, 33
35, 28
20, 32
34, 22
17, 26
25, 21
26, 24
18, 18
10, 12
11, 15
6, 12
8, 4
6, 5
6, 2
2, 3
5, 5
2, 6
6, 4
2, 0
1, 2
2, 2
4, 2
2, 1
3, 3
2, 0
1, 7
2, 3
1, 3
2, 9
2, 5
2, 9
1, 14
5, 12
7, 8
15, 17
15, 20
21, 36
25, 35
41, 51
53, 47
52, 44
65, 69
56, 43
44, 26
26, 29
24, 18
12, 13
11, 8
16, 7
20, 6
17, 5
19, 6
14, 6
16, 7
14, 12
12, 12
11, 6
11, 9
9, 10
5, 9
4, 7
2, 7
1, 7
7, 4
3, 6
7, 1
3, 5
2, 3
4, 10
7, 0
4, 5
6, 5
9, 7
3, 12
9, 16
7, 15
4, 12
11, 12
9, 20
20, 19
8, 19
14, 20
19, 10
10, 8
10, 12
8, 8
8, 13
10, 4
12, 4
18, 5
24, 4
36, 7
31, 4
32, 4
38, 5
43, 4
35, 3
35, 10
15, 9
25, 5
17, 4
11, 12
6, 8
10, 15
11, 14
5, 12
8, 7
9, 16
10, 16
4, 7
11, 13
9, 17
11, 21
12, 18
15, 16
16, 23
18, 14
16, 14
20, 11
14, 10
5, 5
8, 6
5, 8
9, 8
9, 10
9, 11
12, 15
10, 20
12, 28
30, 28
27, 38
46, 47
46, 58
60, 57
55, 63
54, 56
52, 48
52, 44
34, 41
27, 20
23, 20
16, 13
17, 21
16, 27
35, 29
38, 47
84, 90
142, 181
276, 413
432, 544
686, 903
1083, 1356
1459, 1691
1782, 2155
2093, 2267
2219, 2353
2223, 2146
1982, 1825
1573, 1491
1221, 1090
885, 672
513, 464
356, 261
171, 140
95, 85
71, 44
34, 26
23, 28
17, 19
19, 13
18, 27
13, 30
21, 35
29, 59
38, 59
42, 89
62, 106
98, 146
155, 205
177, 254
249, 291
301, 384
293, 362
335, 355
297, 329
248, 274
204, 193
157, 133
147, 93
89, 60
53, 34
38, 23
17, 12
14, 10
8, 13
9, 10
7, 6
9, 16
13, 11
13, 15
26, 9
16, 9
23, 15
18, 14
12, 15
16, 16
13, 14
8, 6
7, 5
6, 4
7, 7
8, 12
12, 10
4, 7
5, 9
13, 4
8, 9
8, 6
13, 7
6, 1
8, 7
8, 5
6, 6
6, 9
5, 6
6, 5
7, 10
7, 6
4, 9
8, 5
8, 5
9, 9
10, 8
3, 10
11, 10
13, 5
9, 5
12, 3
9, 6
7, 0
10, 5
8, 2
7, 2
2, 4
6, 1
2, 4
4, 4
3, 3
3, 4
1, 5
4, 5
5, 3
4, 5
0, 3
4, 5
7, 2
5, 7
4, 2
7, 4
1, 8
1, 4
1, 5
4, 5
3, 11
5, 4
6, 10
4, 8
5, 7
6, 3
1, 4
2, 3
4, 4
2, 13
5, 3
1, 7
1, 3
2, 0
3, 2
3, 3
5, 5
10, 3
5, 5
4, 4
8, 4
5, 3
3, 8
5, 3
4, 0
3, 6
3, 5
4, 6
1, 5
4, 3
2, 5
2, 9
4, 0
3, 2
2, 3
3, 2
2, 2
3, 3
3, 4
4, 5
3, 7
9, 6
4, 3
7, 5
9, 5
8, 5
8, 3
8, 6
3, 4
3, 1
4, 7
5, 5
9, 11
3, 3
3, 1
4, 6
7, 2
4, 4
8, 2
0, 2
2, 4
4, 3
4, 5
3, 6
1, 4
2, 1
2, 2
2, 1
2, 1
2, 3
7, 4
5, 0
4, 2
3, 3
3, 3
5, 4
2, 2
6, 0
2, 3
3, 1
5, 1
1, 4
4, 4
3, 3
5, 3
0, 1
3, 1
0, 3
1, 8
3, 2
3, 5
6, 2
1, 3
2, 3
1, 2
1, 4
2, 2
4, 2
2, 3
3, 7
1, 3
4, 1
2, 1
3, 3
3, 1
4, 1
1, 5
4, 6
2, 2
2, 2
4, 3
3, 1
3, 6
0, 1
1, 4
1, 1
6, 4
4, 1
2, 0
1, 3
1, 0
2, 5
2, 0
0, 1
1, 2
3, 3
1, 0
3, 0
2, 2
1, 1
3, 2
0, 2
2, 1
0, 0
3, 2
0, 1
2, 4
0, 1
1, 0
1, 7
1, 3
3, 1
2, 2
1, 2
2, 1
2, 1
4, 1
1, 2
0, 1
0, 1
4, 1
1, 4
4, 0
1, 1
2, 4
1, 3
1, 2
1, 1
3, 5
3, 5
1, 4
6, 7
1, 3
5, 1
3, 4
3, 6
3, 8
0, 3
2, 4
3, 2
5, 1
0, 5
3, 2
0, 0
4, 2
0, 1
2, 2
2, 4
1, 0
4, 2
0, 1
4, 2
4, 1
0, 4
3, 4
2, 1
2, 2
2, 3
2, 1
3, 3
2, 2
0, 3
5, 2
3, 1
1, 4
2, 3
3, 1
1, 3
1, 0
2, 1
0, 3
3, 1
1, 2
1, 2
2, 1
0, 1
1, 2
0, 0
0, 3
1, 2
2, 0
1, 0
1, 1
1, 1
1, 0
1, 0
1, 2
2, 2
1, 0
1, 2
2, 1
3, 2
1, 1
0, 1
3, 0
0, 0
0, 1
1, 0
0, 1
0, 4
3, 0
0, 0
0, 1
3, 2
2, 1
1, 1
1, 2
2, 0
0, 1
3, 0
1, 1
1, 1
0, 0
0, 2
0, 1
1, 0
0, 1
0, 0
0, 1
0, 0
0, 0
0, 0
2, 3
1, 1
1, 1
2, 0
0, 0
0, 0
2, 1
1, 1
0, 2
1, 1
2, 2
3, 5
0, 5
1, 0
0, 1
0, 0
1, 1
0, 0
0, 1
0, 1
0, 2
0, 0
0, 0
0, 3
1, 0
0, 0
0, 0
1, 0
1, 1
0, 0
1, 1
0, 1
0, 1
1, 1
2, 0
0, 0
0, 1
0, 2
2, 0
0, 2
0, 0
0, 1
0, 0
0, 0
0, 0
0, 1
0, 0
0, 0
0, 0
0, 1
1, 0
1, 0
0, 0
0, 0
0, 0
0, 0
1, 1
0, 1
0, 0
0, 0
0, 0
0, 0
0, 0
2, 0
0, 0
0, 0
2, 0
0, 0
0, 0
0, 0
0, 1
0, 0
0, 1
0, 0
0, 0
1, 0
1, 0
1, 1
0, 0
0, 1
0, 0
1, 0
0, 0
0, 0
0, 0
0, 0
0, 0
0, 1
0, 0
0, 0
1, 0
0, 0
1, 1
0, 0
1, 0
0, 2
0, 1
1, 0
1, 0
0, 0
0, 0
0, 1
0, 1
0, 1
0, 1
1, 0
1, 0
1, 0
0, 1
0, 1
0, 0
1, 0
0, 2
0, 0
1, 0
0, 0
1, 0
0, 0
0, 0
0, 0
1, 1
0, 1
0, 1
0, 0
1, 0
0, 0
0, 0
0, 1
1, 0
0, 0
0, 0
1, 0
0, 0
1, 0
0, 0
0, 0
0, 0
0, 1
0, 0
0, 0
0, 0
0, 1
1, 0
0, 0
0, 0
0, 1
0, 0
1, 0
0, 1
1, 0
0, 0
1, 0
1, 0
0, 0
1, 0
0, 1
0, 1
0, 0
0, 0
0, 1
1, 0
0, 1
0, 0
0, 0
0, 0
0, 1
0, 2
1, 0
0, 0
0, 0
1, 0
0, 0
0, 1
1, 0
0, 0
0, 0
0, 0
0, 0
0, 2
1, 0
0, 0
0, 0
0, 0
0, 0
0, 0
1, 0
1, 0
0, 0
0, 0
0, 1
0, 0
0, 0
0, 0
0, 0
0, 0
0, 0
0, 0
0, 0
0, 0
0, 0
0, 0
0, 0
0, 0
1, 1
0, 0
0, 0
0, 0
0, 1
0, 1
1, 0
1, 0
0, 0
0, 1
0, 1
0, 0
0, 2
0, 1
1, 0
0, 0
0, 0
0, 0
0, 1
0, 0
0, 0
1, 0
1, 0
0, 1
0, 0
0, 0
0, 0
1, 1
0, 0
1, 0
0, 0
0, 0
0, 0
0, 0
1, 0
0, 0
0, 0
0, 1
0, 0
0, 0
0, 0
0, 0
0, 0
0, 0
0, 0
0, 0
0, 0
0, 0
0, 0
0, 0
0, 0
0, 1
0, 0
0, 0
0, 0
0, 0
0, 0
0, 0
0, 0
0, 0
0, 0
0, 0
0, 0
0, 0
0, 0
0, 0
0, 0
0, 0
0, 0
0, 0
0, 0
1, 0
0, 0
0, 0
0, 0
0, 0
0, 0
0, 0
0, 0
0, 0
0, 0
0, 0
0, 0
0, 0
0, 0
0, 0
0, 0
0, 0
0, 2
0, 0
0, 0
0, 0
0, 0
0, 0
0, 0
0, 0
0, 0
0, 0
0, 0
0, 0
0, 0
0, 0
0, 0
0, 0
0, 0
0, 0
0, 1
0, 0
0, 0
0, 0
0, 0
1, 0
0, 0
0, 0
0, 0
0, 0
0, 0
0, 0
0, 0
0, 0
0, 0
0, 0
0, 0
0, 0
0, 0
0, 0
0, 0
0, 0
0, 0
0, 0
0, 0
0, 0
0, 0
0, 0
0, 0
0, 0
0, 0
0, 0
0, 0
0, 0
0, 0
0, 0
0, 0
0, 0
0, 0
0, 0
0, 0
0, 0
0, 0
0, 0
0, 0
0, 0
0, 0
0, 0
0, 0
0, 0
0, 0
0, 0
0, 0
0, 0
0, 0
0, 0
0, 0
0, 0
0, 0
0, 0
0, 0
0, 0
0, 0
0, 0
0, 0
0, 0
0, 0
0, 0
0, 0
1, 0
0, 0
0, 0
0, 0
0, 0
0, 0
0, 0
0, 0
0, 0
0, 0
0, 0
0, 0
0, 0
0, 0
0, 0
0, 0
0, 0
0, 0
0, 0
0, 0
0, 0
0, 0
0, 0
0, 0
0, 0
0, 0
0, 0
0, 0
0, 0
0, 0
0, 0
0, 0
0, 0
0, 0
0, 0
0, 0
0, 0
0, 0
0, 0
0, 0
0, 0
0, 0
0, 0
0, 0
0, 0
0, 0
0, 0
0, 0
0, 0
0, 0
0, 0
0, 0
0, 0
0, 0
0, 0
0, 0
0, 0
0, 0
0, 0
0, 0
0, 0
0, 0
0, 0
0, 0
0, 0
0, 0
0, 0
0, 0
0, 0
0, 0
0, 0
0, 0
0, 0
0, 0
0, 0
0, 0
0, 0
0, 0
0, 0
0, 0
0, 0
0, 0
0, 0
0, 0
0, 0
0, 0
0, 0
0, 0
0, 0
0, 0
0, 0
0, 0
0, 0
0, 0
0, 0
0, 0
0, 0
0, 0
0, 0
0, 0
0, 0
0, 0
0, 0
0, 0
0, 0
0, 0
0, 0
0, 0
0, 0
0, 0
0, 0
0, 0
0, 0
0, 0
0, 0
0, 0
0, 0
0, 0
0, 0
0, 0
0, 0
0, 0
0, 0
0, 0
0, 0
0, 0
0, 0
0, 0
0, 0
0, 0
0, 0
0, 0
0, 0
0, 0
0, 0
0, 0
0, 0
0, 0
0, 0
0, 0
0, 0
0, 0
0, 0
0, 0
0, 0
0, 0
0, 0
0, 0
0, 0
0, 0
0, 0
0, 0
0, 0
0, 0
0, 0
0, 0
0, 0
0, 0
0, 0
0, 0
0, 0
0, 0
0, 0
0, 0
0, 0
0, 0
0, 0
0, 0
0, 0
0, 0
0, 0
0, 0
0, 0
0, 0
0, 0
0, 0
0, 0
0, 0
0, 0
0, 0
0, 0
0, 0
0, 0
0, 0
0, 0
0, 0
0, 0
0, 0
0, 0
0, 0
0, 0
0, 0
0, 0
0, 0
0, 0
0, 0
0, 0
0, 0
0, 0
0, 0
0, 0
0, 0
0, 0
0, 0
0, 0
0, 0
0, 0
0, 0
0, 0
0, 0
0, 0
0, 0
0, 0
0, 0
0, 0
0, 0
0, 0
0, 0
0, 0
0, 0
0, 0
0, 0
0, 0
0, 0
0, 0
0, 0
0, 0
0, 0
0, 0
0, 0
0, 0
0, 0
0, 0
0, 0
0, 0
0, 0
0, 0
0, 0
0, 0
0, 0
0, 0
0, 0
0, 0
0, 0
0, 0
0, 0
0, 0
0, 0
0, 0
0, 0
0, 0
0, 0
0, 0
0, 0
0, 0
0, 0
0, 0
0, 0
0, 0
0, 0
0, 0
0, 0
0, 0
0, 0
0, 0
0, 0
0, 0
0, 0
0, 0
0, 0
0, 0
0, 0
0, 0
0, 0
0, 0
0, 0
0, 0
0, 0
0, 0
0, 0
0, 0
0, 0
0, 0
0, 0
0, 0
0, 0
0, 0
0, 0
0, 0
0, 0
0, 0
0, 0
0, 0
0, 0
0, 0
0, 0
0, 0
0, 0
0, 0
0, 0
0, 0
0, 0
0, 0
0, 0
0, 0
0, 0
0, 0
0, 0
0, 0
0, 0
0, 0
0, 0
0, 0
0, 0
0, 0
0, 0
0, 0
0, 0
0, 0
0, 0
0, 0
0, 0
0, 0
0, 0
0, 0
0, 0
0, 0
0, 0
0, 0
0, 0
0, 0
0, 0
0, 0
0, 0
0, 0
0, 0
0, 0
0, 0
0, 0
0, 0
0, 0
0, 0
0, 0
0, 0
0, 0
0, 0
0, 0
0, 0
0, 0
0, 0
0, 0
0, 0
0, 0
0, 0
0, 0
0, 0
#ENDOFDATA     end of spectrum data