File: host_upload/06-09-2024/ps_0852/dump3/ps__0852shot_2107.msa
#FORMAT      : EMSA/MAS spectral data file
#VERSION     : TC202v2.0 PIXL
#TITLE       : N/A
#DATE        :       Date in the format DD-MMM-YYYY, for example 07-JUL-2010
#TIME        :             The time of day at which the spectrum was recorded, in 24-hour format
#OWNER       : PIXL Flight Model       (PIXL will use this to indicate which instrument took the data.)
#NPOINTS     : 4096     Number of data points in the spectrum (This can be zero for configuration only files)
#NCOLUMNS    : 2     Number of data columns in the spectrum (This can be zero for configuration only files)
#XUNITS      : eV
#YUNITS      : COUNTS
#DATATYPE    : YY
#XPERCHAN    : 7.862, 7.881   eV per channel (separate by commas if more than one detector)
#OFFSET      : 18.5, -22.4         eV of first channel  (separate by commas if more than one detector
#SIGNALTYPE  : XRF
#YP_TEMP     : 2.3
#LIVETIME    : 8.53024, 8.521   seconds (separate by commas if more than one detector)
#REALTIME    : 10, 10.0   seconds (separate by commas if more than one detector)
#SPECTRUM    : start of spectrum data
0, 0
0, 0
0, 0
0, 0
0, 0
0, 0
0, 0
0, 0
0, 0
0, 0
0, 0
0, 0
0, 0
0, 0
0, 0
0, 0
0, 0
0, 0
0, 0
0, 0
0, 0
0, 0
0, 0
0, 0
0, 0
0, 0
0, 0
0, 0
0, 0
0, 0
0, 0
0, 0
0, 0
0, 0
0, 0
0, 0
1, 2
1, 1
0, 1
2, 3
2, 3
1, 6
3, 5
1, 1
1, 5
1, 1
3, 2
3, 2
6, 9
9, 11
13, 18
31, 27
50, 45
46, 57
51, 76
41, 71
45, 48
26, 35
20, 12
10, 14
7, 4
4, 4
0, 1
3, 4
3, 8
3, 6
4, 9
5, 16
15, 26
33, 37
63, 76
95, 139
152, 208
223, 287
256, 339
281, 312
234, 279
189, 212
127, 148
78, 110
48, 63
28, 39
13, 20
12, 12
7, 8
8, 2
0, 8
1, 8
6, 2
4, 2
5, 5
15, 18
27, 35
48, 60
93, 136
149, 231
252, 339
297, 473
355, 490
399, 482
375, 408
308, 322
168, 255
113, 144
86, 95
62, 68
51, 47
36, 45
54, 59
60, 73
59, 91
64, 92
83, 92
78, 115
92, 105
88, 126
69, 99
70, 66
52, 90
62, 50
38, 49
46, 46
40, 42
36, 35
28, 30
22, 21
27, 11
16, 19
14, 17
10, 13
7, 4
6, 8
8, 7
1, 14
2, 5
3, 6
4, 6
3, 13
5, 11
9, 13
6, 8
7, 6
7, 6
6, 8
6, 4
3, 5
4, 9
3, 5
5, 8
8, 6
11, 11
13, 13
24, 37
33, 52
62, 89
76, 111
88, 123
89, 159
89, 121
80, 130
65, 88
57, 71
33, 48
14, 25
13, 18
13, 11
12, 11
17, 11
19, 19
16, 19
19, 17
21, 28
28, 23
12, 23
11, 14
15, 6
10, 6
10, 4
4, 6
1, 6
6, 9
6, 6
5, 6
2, 6
9, 7
4, 4
7, 5
12, 7
6, 13
11, 11
6, 15
9, 15
9, 14
6, 16
11, 18
15, 11
17, 23
17, 19
15, 25
19, 15
17, 15
8, 17
10, 8
4, 7
6, 9
12, 12
5, 11
12, 20
6, 12
10, 29
13, 18
10, 24
8, 26
10, 22
10, 19
7, 17
8, 20
9, 14
12, 8
5, 12
9, 8
7, 15
7, 12
11, 9
10, 14
13, 18
13, 22
17, 36
20, 31
33, 21
31, 39
42, 39
48, 33
36, 47
37, 34
43, 28
50, 21
37, 24
33, 31
34, 16
28, 16
16, 16
15, 9
8, 16
14, 20
13, 28
36, 32
40, 61
45, 53
53, 73
56, 69
69, 67
60, 52
57, 58
56, 45
51, 34
22, 21
10, 20
8, 13
14, 18
26, 24
23, 38
39, 61
71, 110
143, 169
220, 337
404, 606
605, 940
949, 1323
1231, 1681
1621, 2204
1869, 2421
1906, 2460
1982, 2262
1783, 1969
1391, 1571
1074, 1175
784, 778
528, 486
305, 305
179, 158
98, 98
53, 51
42, 37
24, 21
14, 24
8, 15
9, 15
23, 17
16, 19
19, 31
30, 32
36, 60
64, 92
78, 134
122, 168
167, 231
210, 306
231, 324
280, 333
282, 337
301, 315
275, 284
220, 207
138, 137
96, 113
77, 71
51, 37
30, 18
18, 17
11, 17
13, 16
4, 13
11, 8
12, 9
10, 14
12, 10
17, 9
19, 19
19, 7
27, 14
26, 9
35, 14
32, 9
22, 16
29, 9
31, 7
16, 7
23, 7
19, 11
14, 9
9, 11
7, 4
8, 9
4, 6
5, 5
3, 12
6, 6
6, 6
4, 9
4, 4
4, 5
5, 5
7, 6
7, 5
4, 3
4, 6
4, 11
6, 7
3, 6
0, 5
5, 8
6, 4
6, 4
6, 6
5, 6
7, 4
3, 3
3, 3
3, 3
5, 3
4, 3
5, 4
5, 4
6, 3
3, 8
5, 6
4, 5
3, 5
4, 8
5, 4
1, 5
6, 6
1, 1
7, 2
3, 4
5, 6
5, 2
2, 7
7, 1
5, 5
4, 3
8, 5
6, 5
5, 1
5, 7
7, 5
5, 5
7, 8
3, 5
2, 4
2, 6
2, 5
7, 10
2, 15
5, 10
4, 10
4, 10
6, 5
1, 4
2, 9
6, 5
6, 3
4, 4
4, 4
3, 4
3, 5
5, 6
4, 4
7, 6
3, 3
1, 10
7, 8
4, 7
8, 9
5, 4
1, 6
2, 15
4, 10
1, 17
4, 13
4, 13
7, 15
7, 19
5, 10
5, 9
3, 8
6, 8
4, 3
6, 3
3, 1
9, 2
1, 2
2, 4
4, 3
3, 3
2, 2
5, 8
2, 7
4, 4
1, 5
2, 2
5, 5
2, 4
2, 4
2, 3
4, 6
4, 7
2, 3
4, 5
2, 5
2, 5
2, 2
4, 2
2, 6
2, 4
3, 2
3, 3
5, 3
2, 4
2, 1
6, 7
4, 2
4, 3
3, 1
3, 2
7, 5
3, 3
9, 4
8, 5
4, 4
5, 4
10, 0
6, 1
4, 1
4, 1
3, 3
1, 1
3, 1
1, 2
2, 2
2, 0
4, 1
2, 5
3, 2
1, 3
0, 1
3, 3
2, 0
1, 1
1, 3
2, 1
2, 2
2, 8
3, 3
1, 7
5, 4
1, 1
1, 2
3, 2
1, 1
1, 3
5, 2
1, 3
7, 1
1, 0
2, 1
0, 3
3, 1
0, 4
1, 1
1, 2
4, 2
2, 1
2, 2
0, 1
0, 2
1, 2
4, 3
1, 1
1, 4
0, 1
3, 1
2, 2
1, 0
2, 0
0, 2
2, 1
1, 2
0, 3
2, 0
3, 1
7, 0
6, 1
1, 4
0, 4
0, 3
2, 6
2, 3
1, 6
1, 4
3, 5
3, 3
5, 2
1, 4
0, 5
3, 2
1, 1
2, 2
1, 3
2, 1
3, 1
1, 1
1, 2
0, 3
0, 2
1, 2
3, 2
1, 2
1, 3
4, 1
0, 0
1, 1
1, 1
1, 0
2, 2
0, 5
2, 0
0, 2
2, 3
4, 1
2, 3
3, 3
0, 3
3, 2
1, 1
0, 1
1, 1
0, 1
0, 2
1, 3
3, 1
2, 2
0, 2
1, 0
0, 2
1, 0
0, 0
1, 1
0, 0
1, 1
1, 0
1, 2
2, 1
0, 4
3, 2
1, 2
3, 4
1, 2
0, 1
0, 2
3, 4
1, 2
0, 1
0, 1
2, 1
2, 0
0, 1
1, 1
1, 0
0, 2
0, 0
1, 1
0, 1
0, 2
2, 2
1, 2
0, 1
1, 2
0, 0
0, 1
0, 1
0, 0
0, 0
0, 0
2, 1
0, 3
1, 0
0, 1
0, 1
0, 0
1, 0
1, 1
1, 0
1, 0
0, 2
0, 0
0, 0
1, 1
1, 0
1, 0
0, 1
1, 1
0, 0
1, 1
0, 0
0, 0
0, 0
0, 1
0, 2
0, 0
0, 0
1, 1
1, 0
0, 0
0, 1
0, 1
0, 0
0, 2
0, 1
0, 0
0, 0
2, 1
1, 0
0, 1
0, 0
0, 3
0, 1
1, 0
1, 4
1, 1
2, 0
0, 3
2, 1
1, 2
0, 2
0, 0
1, 2
0, 2
0, 0
0, 0
0, 0
0, 0
0, 0
0, 0
0, 0
0, 1
1, 0
0, 0
0, 0
2, 0
0, 0
0, 0
0, 0
0, 0
0, 0
1, 0
0, 1
0, 2
0, 0
1, 0
1, 0
1, 1
0, 1
1, 0
3, 0
0, 0
1, 1
1, 0
1, 0
0, 0
0, 0
0, 1
0, 1
2, 1
0, 0
2, 1
0, 0
0, 0
0, 0
0, 0
0, 0
0, 0
0, 1
0, 1
1, 1
0, 0
0, 0
0, 0
1, 0
0, 0
0, 1
0, 1
0, 1
0, 0
0, 0
0, 0
0, 0
1, 1
1, 0
0, 0
1, 0
0, 0
0, 1
1, 1
0, 0
0, 0
0, 0
0, 0
0, 0
0, 1
0, 0
0, 0
0, 0
0, 0
0, 1
0, 0
0, 0
1, 1
0, 2
0, 0
0, 0
0, 2
0, 1
0, 0
0, 0
0, 1
0, 0
3, 0
1, 0
0, 0
0, 0
1, 0
0, 0
0, 1
0, 0
0, 0
0, 2
1, 1
1, 0
0, 0
0, 0
0, 0
0, 0
0, 0
0, 1
0, 0
0, 1
0, 0
0, 0
0, 0
0, 0
0, 2
0, 0
0, 0
1, 1
0, 2
0, 0
0, 1
0, 0
0, 0
0, 0
0, 0
0, 0
1, 0
0, 0
0, 2
0, 0
1, 0
0, 0
1, 0
0, 0
0, 0
0, 0
0, 0
0, 1
0, 0
0, 0
1, 0
0, 1
0, 0
0, 0
1, 0
0, 0
1, 0
0, 0
0, 0
0, 0
0, 0
0, 0
0, 0
0, 0
0, 0
0, 0
0, 0
0, 1
0, 0
1, 1
0, 0
0, 0
0, 0
0, 0
0, 0
0, 0
0, 0
0, 0
0, 0
0, 0
0, 0
1, 0
0, 0
0, 1
0, 1
0, 1
0, 0
0, 1
0, 0
0, 0
0, 0
1, 0
0, 0
0, 0
0, 0
0, 0
0, 0
0, 0
1, 0
0, 0
0, 0
0, 0
0, 0
0, 0
0, 0
0, 0
0, 0
0, 0
0, 0
0, 0
0, 0
0, 0
1, 0
0, 0
0, 0
0, 0
0, 0
0, 0
0, 0
0, 0
0, 0
0, 0
0, 0
0, 0
0, 0
0, 1
0, 0
0, 0
0, 0
0, 0
0, 0
0, 0
0, 0
0, 1
0, 0
0, 0
0, 0
0, 0
0, 0
0, 0
0, 0
0, 0
0, 0
0, 1
0, 0
0, 0
0, 0
0, 0
0, 0
0, 0
0, 0
0, 0
0, 0
0, 0
0, 0
0, 0
0, 0
0, 0
0, 0
0, 0
0, 0
0, 0
0, 0
0, 0
0, 0
0, 0
0, 0
1, 1
0, 0
0, 0
0, 0
0, 0
0, 0
0, 0
0, 0
0, 0
0, 0
0, 0
0, 0
0, 0
0, 0
0, 2
0, 0
0, 0
0, 0
0, 0
0, 0
0, 0
0, 0
0, 0
0, 0
0, 0
0, 0
0, 0
0, 0
0, 0
0, 0
0, 0
0, 0
0, 0
0, 0
0, 1
0, 0
0, 0
0, 0
0, 0
0, 0
0, 0
0, 0
0, 1
0, 0
0, 0
0, 0
0, 0
0, 0
0, 0
0, 0
0, 0
0, 0
0, 0
0, 1
0, 0
0, 0
0, 1
0, 0
0, 0
0, 0
0, 0
0, 0
1, 0
0, 0
0, 1
0, 0
0, 0
0, 0
0, 0
0, 0
0, 0
0, 0
0, 0
0, 0
0, 0
0, 0
0, 0
0, 0
0, 0
0, 0
0, 0
0, 0
0, 0
0, 0
0, 0
0, 0
0, 0
0, 0
0, 0
0, 0
0, 0
0, 0
0, 0
0, 0
0, 0
0, 0
0, 0
0, 0
0, 0
0, 0
0, 0
0, 0
1, 0
0, 0
0, 0
0, 0
0, 0
0, 0
0, 0
0, 0
0, 0
0, 0
0, 0
0, 0
0, 0
0, 0
0, 0
0, 0
0, 0
0, 0
0, 0
0, 0
0, 0
0, 0
0, 0
0, 0
0, 0
0, 0
0, 0
0, 0
0, 0
0, 0
0, 0
0, 0
0, 0
0, 0
0, 0
0, 0
0, 0
0, 0
0, 0
0, 0
0, 0
0, 0
0, 0
0, 0
0, 0
0, 0
0, 0
0, 0
0, 0
0, 0
0, 0
0, 0
0, 0
0, 0
0, 0
0, 0
0, 0
0, 0
0, 0
0, 0
0, 0
0, 0
0, 0
0, 0
0, 0
0, 0
0, 0
0, 0
0, 0
0, 0
0, 0
0, 0
0, 0
0, 0
0, 0
0, 0
0, 0
0, 0
0, 0
0, 0
0, 0
0, 0
0, 0
0, 0
0, 0
0, 0
0, 0
0, 0
0, 0
0, 0
0, 0
0, 0
0, 0
0, 0
0, 0
0, 0
0, 0
0, 0
0, 0
0, 0
0, 0
0, 0
0, 0
0, 0
0, 0
0, 0
0, 0
0, 0
0, 0
0, 0
0, 0
0, 0
0, 0
0, 0
0, 0
0, 0
0, 0
0, 0
0, 0
0, 0
0, 0
0, 0
0, 0
0, 0
0, 0
0, 0
0, 0
0, 0
0, 0
0, 0
0, 0
0, 0
0, 0
0, 0
0, 0
0, 0
0, 0
0, 0
0, 0
0, 0
0, 0
0, 0
0, 0
0, 0
0, 0
0, 0
0, 0
0, 0
0, 0
0, 0
0, 0
0, 0
0, 0
0, 0
0, 0
0, 0
0, 0
0, 0
0, 0
0, 0
0, 0
0, 0
0, 0
0, 0
0, 0
0, 0
0, 0
0, 0
0, 0
0, 0
0, 0
0, 0
0, 0
0, 0
0, 0
0, 0
0, 0
0, 0
0, 0
0, 0
0, 0
0, 0
0, 0
0, 0
0, 0
0, 0
0, 0
0, 0
0, 0
0, 0
0, 0
0, 0
0, 0
0, 0
0, 0
0, 0
0, 0
0, 0
0, 0
0, 0
0, 0
0, 0
0, 0
0, 0
0, 0
0, 0
0, 0
0, 0
0, 0
0, 0
0, 0
0, 0
0, 0
0, 0
0, 0
0, 0
0, 0
0, 0
0, 0
0, 0
0, 0
0, 0
0, 0
0, 0
0, 0
0, 0
0, 0
0, 0
0, 0
0, 0
0, 0
0, 0
0, 0
0, 0
0, 0
0, 0
0, 0
0, 0
0, 0
0, 0
0, 0
0, 0
0, 0
0, 0
0, 0
0, 0
0, 0
0, 0
0, 0
0, 0
0, 0
0, 0
0, 0
0, 0
0, 0
0, 0
0, 0
0, 0
0, 0
0, 0
0, 0
0, 0
0, 0
0, 0
0, 0
0, 0
0, 0
0, 0
0, 0
0, 0
0, 0
0, 0
0, 0
0, 0
0, 0
0, 0
0, 0
0, 0
0, 0
0, 0
0, 0
0, 0
0, 0
0, 0
0, 0
0, 0
0, 0
0, 0
0, 0
0, 0
0, 0
0, 0
0, 0
0, 0
0, 0
0, 0
0, 0
0, 0
0, 0
0, 0
0, 0
0, 0
0, 0
0, 0
0, 0
0, 0
0, 0
0, 0
0, 0
0, 0
0, 0
0, 0
0, 0
0, 0
0, 0
0, 0
0, 0
0, 0
0, 0
0, 0
0, 0
0, 0
0, 0
0, 0
0, 0
0, 0
0, 0
0, 0
0, 0
#ENDOFDATA     end of spectrum data