File: host_upload/06-09-2024/ps_0852/dump3/ps__0852shot_2122.msa
#FORMAT      : EMSA/MAS spectral data file
#VERSION     : TC202v2.0 PIXL
#TITLE       : N/A
#DATE        :       Date in the format DD-MMM-YYYY, for example 07-JUL-2010
#TIME        :             The time of day at which the spectrum was recorded, in 24-hour format
#OWNER       : PIXL Flight Model       (PIXL will use this to indicate which instrument took the data.)
#NPOINTS     : 4096     Number of data points in the spectrum (This can be zero for configuration only files)
#NCOLUMNS    : 2     Number of data columns in the spectrum (This can be zero for configuration only files)
#XUNITS      : eV
#YUNITS      : COUNTS
#DATATYPE    : YY
#XPERCHAN    : 7.862, 7.881   eV per channel (separate by commas if more than one detector)
#OFFSET      : 18.5, -22.4         eV of first channel  (separate by commas if more than one detector
#SIGNALTYPE  : XRF
#YP_TEMP     : 2.332
#LIVETIME    : 8.56876, 8.57036   seconds (separate by commas if more than one detector)
#REALTIME    : 10, 10.0   seconds (separate by commas if more than one detector)
#SPECTRUM    : start of spectrum data
0, 0
0, 0
0, 0
0, 0
0, 0
0, 0
0, 0
0, 0
0, 0
0, 0
0, 0
0, 0
0, 0
0, 0
0, 0
0, 0
0, 0
0, 0
0, 0
0, 0
0, 0
0, 0
0, 0
0, 0
0, 0
0, 0
0, 0
0, 0
0, 0
0, 0
0, 0
0, 0
1, 0
0, 0
0, 1
0, 0
1, 3
1, 0
2, 1
0, 0
1, 0
0, 2
1, 3
0, 1
1, 2
2, 3
4, 3
5, 4
6, 3
12, 9
19, 21
34, 37
54, 41
85, 66
82, 66
68, 66
63, 50
55, 41
24, 22
12, 12
12, 9
4, 5
2, 8
5, 1
3, 3
2, 4
7, 5
14, 9
23, 18
47, 61
117, 87
186, 163
283, 271
366, 326
445, 419
478, 355
371, 345
293, 270
238, 160
145, 124
75, 43
40, 35
19, 19
14, 5
4, 7
3, 4
2, 2
4, 2
3, 1
2, 1
2, 3
0, 3
2, 3
3, 2
6, 6
6, 6
7, 3
5, 7
13, 13
11, 8
6, 6
5, 9
13, 8
4, 2
3, 2
3, 4
8, 12
11, 7
21, 19
22, 17
20, 19
34, 23
38, 42
45, 31
45, 55
48, 42
52, 32
35, 28
39, 29
32, 22
32, 29
31, 25
22, 17
21, 27
18, 23
13, 12
14, 14
10, 11
11, 5
8, 1
6, 3
4, 5
2, 5
3, 6
5, 5
3, 1
1, 2
5, 6
3, 2
0, 4
4, 3
3, 2
3, 0
2, 5
2, 5
3, 2
4, 3
5, 5
4, 5
5, 7
6, 7
16, 9
30, 31
38, 32
37, 57
72, 69
97, 77
107, 100
95, 82
78, 64
64, 76
48, 54
42, 27
19, 15
15, 9
12, 16
18, 17
11, 11
8, 13
13, 16
13, 22
21, 20
10, 23
12, 14
15, 18
10, 15
7, 15
4, 24
11, 17
6, 19
1, 21
4, 17
2, 13
7, 14
5, 8
6, 11
10, 4
9, 6
14, 1
12, 9
22, 13
26, 10
27, 10
34, 14
35, 18
35, 24
17, 16
34, 12
19, 25
15, 23
18, 22
10, 28
19, 45
9, 46
15, 44
5, 62
14, 53
5, 53
8, 50
6, 39
5, 26
2, 17
8, 14
8, 6
6, 9
7, 7
3, 5
5, 3
8, 10
7, 9
5, 5
11, 7
8, 6
8, 11
12, 7
18, 11
12, 10
13, 17
11, 17
27, 29
17, 16
25, 24
26, 23
29, 21
24, 13
17, 11
10, 18
11, 10
10, 11
7, 7
5, 17
6, 11
17, 12
13, 13
13, 19
28, 25
28, 29
42, 37
47, 41
60, 61
75, 53
63, 53
65, 55
69, 40
55, 29
30, 38
33, 34
42, 18
22, 23
31, 14
22, 25
37, 30
50, 50
78, 91
183, 186
264, 292
432, 524
735, 840
1101, 1169
1499, 1514
1876, 1909
2190, 1963
2375, 2077
2263, 1934
1997, 1691
1617, 1357
1147, 964
922, 645
555, 405
357, 251
178, 131
104, 66
63, 33
38, 17
17, 22
28, 16
11, 16
14, 12
11, 17
16, 20
26, 21
37, 30
50, 52
75, 66
99, 121
134, 173
216, 209
245, 285
301, 278
343, 303
323, 309
306, 314
295, 275
221, 168
183, 146
140, 104
88, 57
54, 46
35, 23
20, 13
13, 15
9, 12
10, 7
9, 15
7, 19
11, 16
9, 16
12, 15
12, 7
11, 14
17, 10
9, 8
8, 13
6, 3
5, 12
2, 7
2, 4
3, 5
3, 2
7, 3
2, 2
10, 7
4, 4
5, 6
5, 6
2, 10
4, 8
2, 4
4, 9
9, 9
4, 22
4, 14
6, 14
11, 19
12, 26
6, 10
9, 9
6, 8
8, 9
7, 6
4, 6
10, 5
6, 7
5, 5
6, 4
6, 6
7, 4
6, 5
8, 3
5, 4
3, 2
6, 4
1, 5
3, 2
6, 4
7, 4
6, 7
10, 1
7, 6
15, 3
11, 3
15, 2
16, 3
7, 3
8, 4
10, 3
7, 10
8, 4
8, 5
3, 3
5, 3
7, 3
6, 2
11, 1
6, 2
8, 1
5, 10
1, 5
4, 4
7, 4
4, 5
8, 7
3, 5
5, 6
6, 4
6, 6
7, 8
6, 3
5, 8
4, 1
2, 4
4, 3
5, 3
4, 5
4, 5
3, 5
1, 8
2, 4
4, 5
9, 6
4, 4
5, 4
5, 4
7, 5
2, 6
6, 1
1, 0
2, 0
2, 4
5, 5
4, 6
4, 5
4, 3
3, 5
2, 5
5, 2
1, 4
10, 7
5, 3
7, 1
11, 1
9, 3
13, 3
8, 6
12, 3
9, 0
6, 7
4, 4
10, 6
6, 8
7, 7
4, 6
6, 5
7, 3
4, 6
6, 7
2, 3
4, 5
4, 1
6, 2
5, 4
3, 4
5, 4
2, 4
5, 4
5, 3
1, 2
3, 4
3, 3
2, 1
1, 3
7, 3
3, 3
4, 2
6, 2
1, 0
3, 2
1, 0
2, 2
2, 5
4, 3
4, 0
5, 2
3, 3
3, 2
0, 4
2, 2
2, 0
4, 6
3, 0
1, 1
3, 2
1, 2
4, 4
6, 0
0, 4
7, 4
2, 3
3, 4
1, 2
2, 3
4, 1
1, 1
0, 0
6, 1
2, 3
2, 2
1, 3
2, 3
5, 1
1, 1
4, 3
6, 1
3, 2
1, 2
2, 3
4, 2
0, 3
0, 2
2, 4
3, 3
1, 4
1, 0
0, 2
3, 0
1, 4
2, 4
7, 0
3, 2
3, 1
2, 2
1, 1
2, 1
2, 4
1, 1
3, 3
5, 1
1, 4
3, 3
2, 3
2, 0
3, 3
2, 7
2, 2
0, 1
4, 3
4, 3
5, 1
1, 10
6, 4
4, 1
8, 4
5, 1
4, 4
3, 2
6, 4
4, 2
6, 2
5, 1
3, 3
1, 3
0, 2
3, 3
3, 2
1, 4
1, 0
3, 2
5, 0
2, 2
2, 1
1, 2
2, 0
2, 0
1, 0
2, 1
1, 1
3, 2
1, 3
1, 0
2, 0
4, 2
0, 3
2, 2
2, 4
2, 2
3, 0
1, 1
0, 1
2, 1
2, 1
1, 1
1, 0
1, 0
1, 1
6, 1
2, 1
1, 0
2, 0
2, 1
2, 1
2, 2
2, 2
1, 0
0, 1
0, 1
0, 0
3, 3
1, 1
2, 0
3, 3
2, 0
3, 1
1, 2
0, 1
1, 0
0, 1
2, 2
0, 1
1, 1
0, 1
2, 1
0, 2
1, 0
2, 3
1, 3
0, 2
0, 0
1, 0
0, 0
0, 1
0, 0
2, 1
1, 0
0, 0
4, 0
0, 0
1, 2
0, 1
1, 1
2, 0
1, 0
1, 0
0, 2
1, 0
0, 0
1, 0
0, 0
1, 2
2, 0
0, 1
0, 0
0, 0
1, 2
2, 0
2, 0
0, 0
0, 3
1, 0
0, 1
1, 0
0, 0
3, 0
2, 1
0, 1
1, 0
0, 0
0, 0
2, 0
1, 2
1, 0
2, 0
2, 0
1, 0
0, 0
0, 1
1, 1
0, 0
0, 1
1, 1
2, 0
2, 1
0, 0
0, 0
1, 0
1, 2
0, 0
0, 1
0, 1
0, 0
0, 1
0, 1
1, 1
2, 2
1, 1
0, 0
1, 0
0, 0
1, 0
0, 0
1, 0
0, 0
0, 0
0, 0
0, 1
1, 0
0, 1
0, 1
0, 1
1, 1
1, 0
0, 0
1, 0
0, 0
0, 0
0, 0
1, 0
1, 0
1, 0
0, 0
0, 2
1, 0
0, 0
0, 0
1, 0
1, 0
1, 0
0, 0
1, 0
0, 0
1, 1
0, 0
0, 1
0, 1
1, 0
0, 1
0, 1
0, 1
0, 1
1, 1
0, 0
0, 0
0, 1
0, 0
0, 0
0, 0
0, 0
0, 0
2, 0
0, 0
0, 0
0, 0
1, 0
0, 0
0, 1
0, 0
1, 0
0, 1
0, 1
1, 1
1, 0
0, 1
0, 0
2, 1
1, 1
0, 0
1, 0
0, 0
0, 0
0, 0
0, 0
1, 0
0, 1
0, 1
0, 1
0, 0
0, 0
0, 0
0, 0
0, 0
0, 0
1, 0
0, 0
0, 0
0, 0
1, 0
0, 0
0, 0
0, 0
0, 0
0, 1
0, 0
0, 0
0, 1
0, 1
0, 0
0, 0
0, 0
0, 0
1, 1
1, 0
0, 0
0, 0
1, 0
0, 0
0, 0
0, 0
0, 0
2, 0
2, 0
1, 2
1, 0
0, 1
0, 0
1, 0
0, 0
1, 0
1, 0
1, 1
0, 1
0, 0
0, 0
0, 0
0, 0
0, 0
0, 0
0, 0
0, 0
0, 0
0, 0
0, 0
0, 0
0, 0
1, 0
0, 0
0, 0
0, 1
0, 0
0, 0
0, 0
0, 0
0, 0
1, 0
0, 0
1, 0
0, 0
1, 1
2, 0
0, 0
0, 0
0, 0
0, 0
0, 1
0, 0
0, 0
0, 0
0, 0
1, 0
0, 0
0, 0
0, 0
0, 0
1, 2
0, 0
0, 0
0, 0
0, 0
0, 0
0, 0
0, 0
0, 0
2, 0
0, 0
0, 0
1, 1
0, 0
0, 1
0, 0
0, 1
0, 1
0, 0
0, 0
0, 0
0, 0
0, 0
0, 0
0, 0
2, 0
0, 0
0, 0
0, 0
0, 0
0, 0
0, 0
0, 0
0, 0
0, 0
0, 0
0, 0
0, 0
0, 0
0, 0
0, 0
0, 0
0, 0
0, 1
0, 0
0, 0
0, 0
0, 0
0, 0
0, 0
0, 0
0, 0
0, 0
2, 0
0, 0
0, 0
0, 0
0, 0
0, 0
0, 0
0, 0
0, 0
0, 0
0, 0
0, 0
0, 0
0, 0
0, 0
0, 0
0, 0
0, 0
0, 0
0, 0
0, 0
0, 0
0, 0
0, 0
0, 0
0, 1
1, 0
0, 0
0, 0
0, 0
0, 0
0, 0
0, 0
0, 0
0, 0
0, 0
0, 0
0, 0
0, 0
0, 0
0, 0
0, 0
0, 0
0, 0
0, 0
0, 0
0, 0
0, 0
0, 0
0, 0
0, 0
0, 0
0, 0
0, 0
0, 0
0, 0
1, 0
0, 0
0, 0
0, 0
0, 0
0, 0
0, 0
0, 0
0, 0
0, 0
0, 0
1, 0
0, 0
0, 1
1, 0
0, 0
0, 0
0, 0
0, 0
0, 0
0, 0
0, 0
0, 1
0, 0
0, 0
0, 0
0, 0
0, 0
0, 0
0, 0
0, 0
0, 0
0, 0
0, 0
0, 0
0, 0
0, 0
0, 0
0, 0
0, 0
0, 0
0, 0
0, 0
0, 0
0, 0
0, 0
0, 0
0, 0
0, 0
0, 0
0, 0
0, 0
0, 0
0, 0
0, 0
0, 0
0, 0
0, 0
0, 0
0, 0
0, 0
0, 0
0, 0
0, 0
0, 0
0, 0
0, 0
0, 0
0, 0
0, 0
0, 0
0, 0
0, 0
0, 0
0, 0
0, 0
0, 0
0, 0
0, 0
0, 0
0, 0
0, 0
0, 0
0, 0
0, 0
0, 0
0, 0
0, 0
0, 0
0, 0
0, 0
0, 0
0, 0
0, 0
0, 0
0, 0
0, 0
0, 0
0, 0
0, 0
0, 0
0, 0
0, 0
0, 0
0, 0
0, 0
0, 0
0, 0
0, 0
0, 0
0, 0
0, 0
0, 0
0, 0
0, 0
0, 0
0, 0
0, 0
0, 0
0, 0
0, 0
0, 0
0, 0
0, 0
0, 0
0, 0
0, 0
0, 0
0, 0
0, 0
0, 0
0, 0
0, 0
0, 0
0, 0
0, 0
0, 0
0, 0
0, 0
0, 0
0, 0
0, 0
0, 0
0, 0
0, 0
0, 0
0, 0
0, 0
0, 0
0, 0
0, 0
0, 0
0, 0
0, 0
0, 0
1, 0
0, 0
0, 0
0, 0
0, 0
0, 0
0, 0
0, 0
0, 0
0, 0
0, 0
0, 0
0, 0
0, 0
0, 0
0, 0
0, 0
0, 0
0, 0
0, 0
0, 0
0, 0
0, 0
0, 0
0, 0
0, 0
0, 0
0, 0
0, 0
0, 0
0, 0
0, 0
0, 0
0, 0
0, 0
0, 0
0, 0
0, 0
0, 0
0, 0
0, 0
0, 0
0, 0
0, 0
0, 0
0, 0
0, 0
0, 0
0, 0
0, 0
0, 0
0, 0
0, 0
0, 0
0, 0
0, 0
0, 0
0, 0
0, 0
0, 0
0, 0
0, 0
0, 0
0, 0
0, 0
0, 0
0, 0
0, 0
0, 0
0, 0
0, 0
0, 0
0, 0
0, 0
0, 0
0, 0
0, 0
0, 0
0, 0
0, 0
0, 0
0, 0
0, 0
0, 0
0, 0
0, 0
0, 0
0, 0
0, 0
0, 0
0, 0
0, 0
0, 0
0, 0
0, 0
0, 0
0, 0
0, 0
0, 0
0, 0
0, 0
0, 0
0, 0
0, 0
0, 0
0, 0
0, 0
0, 0
0, 0
0, 0
0, 0
0, 0
0, 0
0, 0
0, 0
0, 0
0, 0
0, 0
0, 0
0, 0
0, 0
0, 0
0, 0
0, 0
0, 0
0, 0
0, 0
0, 0
0, 0
0, 0
0, 0
0, 0
0, 0
0, 0
0, 0
0, 0
0, 0
0, 0
0, 0
0, 0
0, 0
0, 0
0, 0
0, 0
0, 0
0, 0
0, 0
0, 0
0, 0
0, 0
0, 0
0, 0
0, 0
0, 0
0, 0
0, 0
0, 0
0, 0
0, 0
0, 0
0, 0
0, 0
0, 0
0, 0
0, 0
0, 0
0, 0
0, 0
0, 0
0, 0
0, 0
0, 0
0, 0
0, 0
0, 0
0, 0
0, 0
0, 0
0, 0
0, 0
0, 0
0, 0
0, 0
0, 0
0, 0
0, 0
0, 0
0, 0
0, 0
0, 0
0, 0
0, 0
0, 0
0, 0
0, 0
0, 0
0, 0
0, 0
0, 0
0, 0
0, 0
0, 0
0, 0
0, 0
0, 0
0, 0
0, 0
0, 0
0, 0
0, 0
0, 0
0, 0
0, 0
0, 0
0, 0
0, 0
0, 0
0, 0
0, 0
0, 0
0, 0
0, 0
0, 0
0, 0
0, 0
0, 0
0, 0
0, 0
0, 0
0, 0
0, 0
0, 0
0, 0
0, 0
0, 0
0, 0
0, 0
0, 0
0, 0
0, 0
0, 0
0, 0
0, 0
0, 0
0, 0
0, 0
0, 0
0, 0
0, 0
0, 0
0, 0
#ENDOFDATA     end of spectrum data