File: host_upload/06-09-2024/ps_0852/dump3/ps__0852shot_2283.msa
#FORMAT      : EMSA/MAS spectral data file
#VERSION     : TC202v2.0 PIXL
#TITLE       : N/A
#DATE        :       Date in the format DD-MMM-YYYY, for example 07-JUL-2010
#TIME        :             The time of day at which the spectrum was recorded, in 24-hour format
#OWNER       : PIXL Flight Model       (PIXL will use this to indicate which instrument took the data.)
#NPOINTS     : 4096     Number of data points in the spectrum (This can be zero for configuration only files)
#NCOLUMNS    : 2     Number of data columns in the spectrum (This can be zero for configuration only files)
#XUNITS      : eV
#YUNITS      : COUNTS
#DATATYPE    : YY
#XPERCHAN    : 7.862, 7.881   eV per channel (separate by commas if more than one detector)
#OFFSET      : 18.5, -22.4         eV of first channel  (separate by commas if more than one detector
#SIGNALTYPE  : XRF
#YP_TEMP     : 2.396
#LIVETIME    : 8.55992, 8.52522   seconds (separate by commas if more than one detector)
#REALTIME    : 10, 10.0   seconds (separate by commas if more than one detector)
#SPECTRUM    : start of spectrum data
0, 0
0, 0
0, 0
0, 0
0, 0
0, 0
0, 0
0, 0
0, 0
0, 0
0, 0
0, 0
0, 0
0, 0
0, 0
0, 0
0, 0
0, 0
0, 0
0, 0
0, 0
0, 0
0, 0
0, 0
0, 0
0, 0
0, 0
0, 0
0, 0
0, 0
0, 0
0, 0
0, 2
1, 0
0, 0
0, 1
1, 2
0, 0
1, 0
1, 1
1, 1
0, 1
0, 2
1, 1
1, 0
2, 2
2, 1
2, 1
7, 3
8, 14
28, 22
28, 38
56, 51
69, 82
84, 65
76, 84
55, 55
36, 46
22, 23
11, 19
7, 4
6, 3
1, 5
4, 3
9, 5
3, 3
7, 4
15, 9
27, 30
45, 56
108, 135
194, 248
296, 335
389, 463
470, 510
458, 556
419, 439
316, 366
247, 249
129, 154
79, 79
41, 47
24, 16
12, 17
7, 7
3, 7
2, 2
6, 1
1, 2
2, 1
2, 1
5, 2
5, 3
7, 9
19, 12
22, 14
28, 22
38, 45
39, 50
42, 41
43, 35
36, 31
16, 20
13, 11
9, 9
13, 9
5, 9
16, 10
14, 11
18, 14
19, 22
33, 16
35, 28
39, 38
48, 29
53, 32
39, 35
32, 29
29, 25
29, 35
26, 29
15, 14
30, 25
15, 14
19, 10
9, 12
13, 17
9, 10
6, 7
6, 9
9, 9
3, 5
5, 1
3, 5
0, 3
2, 1
2, 4
7, 1
1, 1
3, 1
3, 3
4, 0
1, 1
2, 7
3, 1
0, 1
0, 3
5, 1
6, 10
8, 11
20, 18
26, 30
51, 65
97, 130
156, 177
200, 268
235, 272
272, 316
261, 296
231, 256
189, 197
127, 142
82, 85
58, 50
31, 39
22, 20
18, 20
19, 25
24, 39
31, 43
43, 55
37, 58
51, 42
43, 30
26, 22
17, 18
19, 10
14, 10
13, 12
5, 4
9, 4
4, 7
7, 4
7, 1
2, 7
1, 3
9, 7
2, 3
7, 6
9, 9
10, 16
11, 12
12, 23
11, 13
15, 12
10, 15
7, 11
17, 10
15, 9
9, 10
12, 11
8, 10
3, 6
3, 3
7, 1
7, 3
10, 2
9, 5
9, 9
7, 5
9, 4
12, 5
3, 5
6, 8
8, 6
4, 12
3, 12
3, 12
5, 12
8, 22
2, 21
6, 20
7, 18
11, 20
9, 16
16, 24
23, 22
26, 27
32, 42
48, 38
50, 36
46, 43
68, 20
53, 32
47, 13
37, 19
27, 6
25, 7
22, 6
12, 9
7, 9
17, 4
12, 3
21, 13
20, 9
30, 13
38, 31
51, 41
62, 34
70, 45
79, 60
73, 68
89, 50
92, 51
66, 32
68, 31
46, 19
30, 7
37, 13
21, 16
20, 13
26, 31
30, 37
66, 83
111, 139
208, 247
371, 454
536, 733
824, 1029
1142, 1465
1392, 1690
1595, 1826
1711, 1846
1636, 1786
1538, 1507
1186, 1186
922, 894
654, 553
400, 391
248, 201
119, 113
74, 60
46, 48
13, 25
17, 22
13, 20
12, 17
12, 10
12, 19
12, 24
15, 14
19, 32
36, 36
44, 68
61, 103
110, 111
145, 206
193, 239
222, 288
232, 301
253, 264
251, 243
233, 214
190, 174
156, 113
135, 71
100, 55
69, 31
45, 13
28, 15
19, 12
22, 10
13, 11
9, 14
11, 12
11, 13
13, 20
8, 11
18, 15
12, 10
7, 11
7, 13
7, 12
4, 8
3, 5
7, 6
5, 3
9, 4
4, 4
6, 1
5, 0
7, 5
1, 8
5, 8
4, 4
5, 7
3, 7
6, 10
2, 6
2, 6
6, 6
2, 8
3, 2
3, 6
3, 10
7, 7
4, 6
4, 5
8, 7
2, 6
4, 5
2, 3
9, 2
9, 4
10, 4
9, 3
11, 4
8, 5
6, 9
2, 3
6, 3
4, 4
2, 1
9, 3
1, 4
3, 3
7, 6
5, 2
4, 4
8, 4
2, 5
5, 5
2, 5
2, 6
5, 6
5, 7
5, 6
6, 10
11, 10
7, 8
8, 7
9, 7
11, 8
4, 16
9, 7
8, 13
5, 13
7, 5
3, 9
8, 3
8, 3
2, 7
6, 9
5, 6
9, 6
3, 3
5, 3
6, 3
7, 0
3, 2
6, 8
3, 5
2, 5
4, 3
2, 5
4, 4
3, 5
7, 5
6, 7
3, 1
7, 2
5, 2
4, 6
3, 4
5, 3
3, 7
6, 3
6, 1
4, 4
7, 2
5, 5
2, 4
5, 6
4, 3
6, 2
4, 2
7, 6
2, 8
1, 5
3, 7
4, 4
0, 3
6, 4
1, 6
1, 3
3, 2
0, 3
3, 7
4, 3
2, 4
2, 1
2, 4
3, 3
1, 3
4, 3
2, 7
2, 2
3, 0
1, 6
1, 4
2, 3
2, 1
3, 1
2, 3
4, 5
4, 3
6, 4
3, 2
3, 3
3, 4
4, 5
3, 3
2, 5
6, 5
3, 5
5, 2
5, 6
3, 2
4, 0
3, 3
1, 5
2, 3
1, 4
3, 2
2, 3
0, 2
5, 0
3, 2
3, 1
0, 3
4, 3
1, 1
4, 5
2, 2
0, 3
1, 2
0, 3
2, 3
3, 2
2, 4
3, 3
1, 2
2, 6
0, 9
0, 4
3, 7
5, 6
1, 3
3, 2
2, 4
8, 6
7, 3
4, 2
6, 3
4, 1
7, 1
9, 1
8, 0
6, 3
4, 2
5, 1
3, 3
3, 2
3, 1
5, 2
4, 4
1, 4
2, 3
3, 3
1, 2
2, 2
0, 1
1, 0
5, 4
1, 0
0, 2
2, 4
3, 2
2, 1
2, 2
1, 0
1, 1
0, 2
0, 4
2, 2
1, 4
0, 1
2, 3
3, 3
2, 1
2, 3
0, 6
1, 3
3, 1
0, 7
5, 6
4, 3
2, 3
2, 3
2, 0
0, 4
2, 2
1, 0
1, 3
0, 1
1, 1
2, 1
1, 2
0, 1
1, 0
3, 2
1, 0
0, 5
0, 0
0, 0
1, 2
3, 3
7, 3
0, 2
1, 3
1, 2
0, 2
0, 1
4, 3
1, 1
0, 1
1, 1
4, 1
0, 2
1, 4
0, 2
0, 3
1, 0
0, 0
0, 4
1, 0
3, 0
0, 1
1, 0
2, 2
2, 0
1, 0
4, 0
2, 1
1, 1
0, 0
1, 2
1, 0
1, 2
0, 1
1, 1
0, 0
0, 1
1, 0
0, 1
3, 2
2, 2
2, 0
1, 1
3, 4
1, 1
3, 0
1, 2
0, 1
1, 1
1, 0
2, 1
0, 0
2, 0
1, 0
0, 2
0, 0
2, 0
1, 0
1, 0
0, 3
0, 2
1, 0
1, 0
0, 1
2, 0
0, 1
1, 2
1, 0
2, 1
1, 1
1, 0
0, 0
0, 2
0, 0
2, 1
0, 0
0, 2
1, 0
0, 0
1, 0
0, 0
1, 0
0, 0
1, 2
2, 0
2, 0
0, 3
0, 0
0, 1
1, 1
0, 1
0, 0
0, 0
0, 0
0, 0
0, 3
0, 2
0, 0
1, 0
1, 1
0, 0
1, 1
0, 0
0, 0
1, 2
1, 0
0, 2
2, 0
0, 1
0, 3
1, 1
2, 0
0, 0
2, 2
2, 0
1, 0
0, 0
0, 0
0, 0
0, 0
0, 1
1, 1
1, 0
0, 1
1, 1
0, 0
0, 0
1, 0
1, 1
0, 0
0, 1
1, 0
1, 0
0, 1
0, 0
0, 1
1, 1
1, 1
1, 0
0, 0
0, 1
0, 0
0, 0
0, 1
0, 0
1, 0
2, 1
1, 0
0, 0
1, 0
0, 0
0, 1
0, 0
0, 0
1, 0
0, 0
0, 1
1, 0
1, 1
1, 0
0, 0
0, 0
0, 0
1, 1
0, 0
0, 1
0, 0
2, 0
0, 0
0, 1
0, 0
0, 1
1, 0
2, 2
0, 1
1, 0
0, 0
1, 0
0, 0
0, 0
0, 0
1, 1
0, 0
0, 0
0, 0
0, 0
2, 0
1, 0
0, 0
0, 1
0, 0
0, 0
0, 0
1, 0
0, 0
0, 0
1, 1
0, 1
0, 0
1, 1
1, 0
0, 0
0, 0
0, 0
0, 0
0, 0
0, 0
0, 1
1, 0
0, 0
1, 0
0, 0
0, 0
0, 1
0, 0
0, 1
1, 0
0, 0
0, 1
0, 0
0, 1
0, 1
2, 0
0, 1
0, 0
0, 0
0, 0
0, 1
0, 2
1, 0
0, 0
0, 1
0, 0
0, 0
0, 1
1, 1
0, 0
0, 1
0, 1
1, 0
0, 1
0, 0
0, 1
0, 0
0, 0
0, 0
0, 0
0, 0
0, 0
0, 0
1, 0
0, 0
0, 0
0, 0
0, 0
0, 0
1, 0
0, 0
0, 0
0, 0
0, 1
0, 0
0, 0
0, 0
0, 0
0, 0
0, 0
0, 0
0, 0
0, 0
0, 0
0, 0
0, 0
0, 0
0, 0
0, 1
1, 1
0, 0
0, 1
0, 0
0, 0
0, 1
0, 0
1, 0
0, 0
0, 0
0, 0
0, 0
0, 0
0, 0
1, 0
1, 0
0, 0
0, 0
0, 0
0, 0
0, 0
0, 0
0, 0
0, 0
0, 0
0, 0
0, 0
0, 0
0, 0
0, 0
0, 0
0, 0
0, 0
0, 0
0, 0
0, 0
0, 0
0, 0
0, 0
0, 0
0, 0
0, 0
0, 0
0, 0
0, 0
0, 0
0, 0
1, 0
0, 0
0, 0
0, 0
0, 0
0, 0
0, 0
0, 0
0, 0
0, 0
0, 0
0, 0
0, 0
0, 0
1, 0
0, 0
0, 0
0, 0
0, 0
0, 0
0, 0
0, 0
0, 0
0, 0
0, 0
0, 0
0, 0
0, 0
0, 0
0, 0
0, 0
0, 0
0, 0
0, 0
0, 0
0, 0
0, 0
0, 0
0, 0
0, 0
0, 0
0, 1
0, 0
0, 0
0, 0
0, 0
0, 0
0, 0
0, 0
0, 0
0, 0
3, 1
0, 0
0, 0
0, 0
0, 0
0, 0
0, 0
0, 0
0, 0
0, 0
0, 0
0, 0
0, 0
0, 0
0, 0
0, 0
0, 0
0, 0
0, 0
0, 1
0, 0
0, 0
0, 0
0, 0
0, 0
0, 0
0, 0
0, 0
0, 0
0, 0
0, 0
0, 0
0, 0
0, 0
0, 0
0, 0
0, 0
0, 0
0, 0
0, 0
0, 0
0, 0
0, 1
0, 0
0, 0
0, 0
0, 0
0, 0
0, 1
0, 0
0, 0
0, 0
0, 0
0, 0
0, 0
0, 0
0, 0
0, 0
0, 0
0, 0
0, 0
0, 0
0, 0
0, 0
0, 0
0, 0
0, 0
0, 0
0, 0
0, 0
0, 0
0, 0
0, 0
0, 0
0, 0
0, 0
0, 0
0, 0
0, 0
0, 0
0, 0
0, 0
0, 0
0, 0
0, 0
0, 0
0, 0
0, 0
0, 0
0, 0
0, 0
0, 0
1, 0
1, 0
0, 0
0, 0
0, 0
1, 0
0, 0
0, 0
0, 0
0, 0
0, 0
0, 0
0, 0
0, 0
0, 0
0, 0
0, 0
0, 0
0, 0
0, 0
0, 0
0, 0
0, 0
0, 0
0, 0
0, 0
0, 0
0, 0
0, 0
0, 0
0, 0
0, 0
0, 0
0, 0
0, 0
0, 0
0, 0
0, 0
0, 0
0, 0
0, 0
0, 0
0, 0
0, 0
0, 0
0, 0
0, 0
0, 0
0, 0
0, 1
0, 0
0, 0
0, 0
0, 0
0, 0
0, 0
0, 0
0, 0
0, 0
0, 0
0, 0
0, 0
0, 0
0, 0
0, 0
0, 0
0, 0
0, 0
0, 0
0, 0
0, 0
0, 0
0, 0
0, 0
0, 0
0, 0
0, 0
0, 0
0, 0
0, 0
0, 0
0, 0
0, 0
0, 0
0, 0
0, 0
0, 0
0, 0
0, 0
0, 0
0, 0
0, 0
0, 0
0, 0
0, 0
0, 0
0, 0
0, 0
0, 0
0, 0
0, 0
0, 0
0, 0
0, 0
0, 0
0, 0
0, 0
0, 0
0, 0
0, 0
0, 0
0, 0
0, 0
0, 0
0, 0
0, 0
0, 0
0, 0
0, 0
0, 0
0, 0
0, 0
0, 0
0, 0
0, 0
0, 0
0, 0
0, 0
0, 0
0, 0
0, 0
0, 0
0, 0
0, 0
0, 0
0, 0
0, 0
0, 0
0, 0
0, 0
0, 0
0, 0
0, 0
0, 0
0, 0
0, 0
0, 0
0, 0
0, 0
0, 0
0, 0
0, 0
0, 0
0, 0
0, 0
0, 0
0, 0
0, 0
0, 0
0, 0
0, 0
0, 0
0, 0
0, 0
0, 0
0, 0
0, 0
0, 0
0, 0
0, 0
0, 0
0, 0
0, 0
0, 0
0, 0
0, 0
0, 0
0, 0
0, 0
0, 0
0, 0
0, 0
0, 0
0, 0
0, 0
0, 0
0, 0
0, 0
0, 0
0, 0
0, 0
0, 0
0, 0
0, 0
0, 0
0, 0
0, 0
0, 0
0, 0
0, 0
0, 0
0, 0
0, 0
0, 0
0, 0
0, 0
0, 0
0, 0
0, 0
0, 0
0, 0
0, 0
0, 0
0, 0
0, 0
0, 0
0, 0
0, 0
0, 0
0, 0
0, 0
0, 0
0, 0
0, 0
0, 0
0, 0
0, 0
0, 0
0, 0
0, 0
0, 0
0, 0
0, 0
0, 0
0, 0
0, 0
0, 0
0, 0
0, 0
0, 0
0, 0
0, 0
0, 0
0, 0
0, 0
0, 0
0, 0
0, 0
0, 0
0, 0
0, 0
0, 0
0, 0
0, 0
0, 0
0, 0
0, 0
0, 0
0, 0
0, 0
0, 0
0, 0
0, 0
0, 0
0, 0
0, 0
0, 0
0, 0
0, 0
0, 0
0, 0
0, 0
0, 0
0, 0
0, 0
0, 0
0, 0
0, 0
0, 0
0, 0
0, 0
0, 0
0, 0
0, 0
0, 0
0, 0
0, 0
0, 0
0, 0
0, 0
0, 0
0, 0
0, 0
0, 0
0, 0
0, 0
0, 0
0, 0
0, 0
0, 0
0, 0
0, 0
0, 0
0, 0
0, 0
0, 0
0, 0
0, 0
0, 0
0, 0
0, 0
0, 0
0, 0
0, 0
0, 0
0, 0
0, 0
0, 0
0, 0
0, 0
0, 0
0, 0
0, 0
0, 0
0, 0
0, 0
0, 0
0, 0
0, 0
0, 0
0, 0
0, 0
0, 0
0, 0
#ENDOFDATA     end of spectrum data