File: host_upload/06-09-2024/ps_0852/dump3/ps__0852shot_2427.msa
#FORMAT      : EMSA/MAS spectral data file
#VERSION     : TC202v2.0 PIXL
#TITLE       : N/A
#DATE        :       Date in the format DD-MMM-YYYY, for example 07-JUL-2010
#TIME        :             The time of day at which the spectrum was recorded, in 24-hour format
#OWNER       : PIXL Flight Model       (PIXL will use this to indicate which instrument took the data.)
#NPOINTS     : 4096     Number of data points in the spectrum (This can be zero for configuration only files)
#NCOLUMNS    : 2     Number of data columns in the spectrum (This can be zero for configuration only files)
#XUNITS      : eV
#YUNITS      : COUNTS
#DATATYPE    : YY
#XPERCHAN    : 7.862, 7.881   eV per channel (separate by commas if more than one detector)
#OFFSET      : 18.5, -22.4         eV of first channel  (separate by commas if more than one detector
#SIGNALTYPE  : XRF
#YP_TEMP     : 2.267
#LIVETIME    : 8.58355, 8.54898   seconds (separate by commas if more than one detector)
#REALTIME    : 10, 10.0   seconds (separate by commas if more than one detector)
#SPECTRUM    : start of spectrum data
0, 0
0, 0
0, 0
0, 0
0, 0
0, 0
0, 0
0, 0
0, 0
0, 0
0, 0
0, 0
0, 0
0, 0
0, 0
0, 0
0, 0
0, 0
0, 0
0, 0
0, 0
0, 0
0, 0
0, 0
0, 0
0, 0
0, 0
0, 0
0, 0
0, 0
0, 0
0, 0
1, 0
0, 0
1, 0
0, 0
0, 1
0, 0
4, 0
0, 0
1, 1
3, 3
4, 2
1, 1
2, 0
1, 1
2, 1
2, 2
8, 7
10, 18
25, 19
38, 31
48, 73
67, 55
87, 69
82, 62
56, 58
37, 45
29, 16
17, 10
9, 9
6, 6
3, 2
4, 0
8, 2
5, 4
5, 5
8, 9
20, 17
49, 34
106, 103
171, 175
281, 252
395, 342
472, 367
480, 375
449, 339
335, 227
209, 142
145, 110
68, 50
43, 19
27, 13
16, 9
8, 2
4, 3
3, 0
4, 1
4, 2
1, 3
1, 1
0, 1
0, 0
3, 1
2, 1
2, 1
1, 2
1, 4
5, 5
9, 3
2, 2
1, 1
4, 3
7, 3
11, 2
12, 3
15, 3
17, 8
18, 5
29, 13
41, 18
33, 28
55, 33
63, 50
69, 56
69, 52
59, 50
64, 40
42, 35
37, 20
24, 17
15, 18
29, 21
17, 23
19, 13
18, 17
14, 14
14, 13
11, 9
12, 7
5, 6
6, 3
5, 0
5, 2
3, 2
1, 2
1, 6
1, 4
0, 3
1, 0
1, 0
6, 3
1, 0
2, 2
0, 0
1, 2
4, 0
2, 2
1, 1
3, 3
10, 7
14, 8
24, 21
30, 22
44, 35
50, 47
76, 56
94, 45
85, 60
70, 45
72, 45
39, 37
35, 15
18, 10
11, 8
10, 8
2, 5
8, 6
9, 5
14, 7
12, 8
19, 9
13, 8
15, 12
17, 6
9, 8
11, 13
10, 4
3, 8
6, 3
6, 5
3, 8
3, 4
4, 3
2, 7
3, 2
5, 4
2, 3
6, 5
11, 9
18, 5
17, 10
13, 9
11, 8
13, 10
16, 16
16, 10
15, 8
17, 17
12, 10
13, 10
12, 6
7, 6
5, 6
6, 5
6, 4
6, 6
6, 4
7, 7
3, 5
2, 7
5, 6
4, 9
4, 5
9, 4
0, 8
5, 8
6, 3
6, 10
6, 27
4, 47
2, 46
11, 55
5, 60
9, 93
12, 89
21, 70
19, 86
27, 59
27, 41
24, 33
17, 34
15, 20
21, 19
20, 20
24, 4
28, 6
29, 4
36, 6
51, 8
48, 0
92, 8
96, 12
86, 5
84, 18
95, 27
67, 33
82, 34
67, 52
58, 50
70, 57
73, 63
71, 55
59, 46
43, 33
42, 19
25, 23
26, 26
15, 16
29, 21
23, 9
23, 18
46, 45
81, 94
151, 152
274, 320
499, 499
837, 844
1197, 1254
1577, 1631
1974, 1875
2260, 2237
2449, 2263
2380, 2101
2188, 1688
1727, 1368
1311, 1012
914, 645
604, 363
350, 233
206, 105
93, 62
53, 38
28, 18
21, 23
15, 11
12, 8
14, 12
24, 20
10, 19
17, 20
37, 41
49, 50
62, 69
86, 105
145, 158
182, 231
225, 277
349, 300
363, 357
378, 299
355, 281
282, 246
220, 168
212, 137
125, 88
95, 53
51, 28
41, 31
39, 9
37, 9
33, 4
52, 8
59, 11
58, 11
71, 12
59, 10
55, 17
47, 6
36, 11
26, 12
14, 5
15, 6
13, 5
8, 4
6, 5
5, 0
3, 2
2, 2
3, 2
5, 3
7, 5
7, 1
5, 0
5, 7
3, 2
5, 4
4, 2
5, 3
2, 4
2, 5
2, 5
4, 3
9, 7
3, 4
9, 7
4, 10
8, 9
3, 3
5, 7
6, 6
10, 4
8, 2
1, 4
9, 4
6, 4
4, 3
4, 4
4, 6
4, 2
8, 1
5, 4
7, 6
11, 4
10, 4
7, 3
7, 2
10, 5
7, 2
7, 7
10, 5
7, 2
10, 5
5, 4
5, 4
10, 4
11, 3
8, 5
4, 2
8, 1
8, 2
2, 3
10, 3
5, 2
6, 6
1, 1
3, 3
3, 3
5, 5
5, 7
3, 4
2, 5
4, 5
4, 6
4, 10
4, 3
6, 2
4, 9
1, 6
3, 5
3, 2
1, 3
5, 5
4, 2
2, 5
5, 5
2, 3
0, 2
7, 5
5, 4
5, 7
3, 2
2, 5
3, 3
3, 6
4, 3
0, 2
1, 2
3, 3
3, 6
6, 1
2, 4
2, 1
2, 0
7, 3
7, 1
4, 2
6, 2
9, 2
16, 2
12, 3
15, 0
19, 3
16, 2
11, 4
19, 1
12, 2
13, 3
12, 1
5, 2
10, 5
10, 2
6, 3
4, 3
1, 3
4, 3
3, 5
2, 4
3, 3
1, 4
3, 4
1, 9
5, 7
2, 10
2, 2
6, 2
3, 2
4, 3
1, 1
2, 5
2, 2
3, 4
1, 3
1, 0
2, 3
2, 1
1, 2
2, 4
3, 1
0, 0
0, 0
2, 2
2, 1
3, 0
4, 1
3, 4
3, 1
5, 0
2, 1
2, 3
1, 0
5, 1
4, 6
3, 3
3, 3
3, 0
3, 4
2, 2
1, 1
4, 2
0, 1
1, 1
5, 5
2, 1
2, 1
2, 1
0, 2
6, 3
3, 4
4, 3
6, 1
7, 8
4, 8
9, 5
3, 2
2, 9
4, 7
1, 5
3, 9
3, 2
3, 7
2, 2
2, 1
3, 4
2, 3
3, 1
1, 3
3, 3
2, 3
0, 1
1, 3
2, 1
4, 0
2, 1
4, 1
1, 3
3, 1
4, 5
4, 0
2, 0
1, 0
4, 3
2, 1
1, 0
2, 3
3, 5
2, 4
5, 2
2, 1
4, 1
2, 3
2, 5
4, 6
5, 3
1, 1
4, 4
0, 2
3, 2
2, 6
2, 2
1, 0
1, 2
1, 2
2, 0
2, 2
2, 0
1, 0
1, 1
2, 0
2, 3
1, 1
3, 0
3, 3
1, 1
2, 5
3, 2
2, 3
3, 0
0, 1
0, 3
1, 3
2, 2
1, 5
1, 2
1, 1
0, 3
1, 0
1, 3
0, 0
0, 1
1, 0
2, 0
0, 2
2, 0
1, 3
3, 0
1, 2
1, 0
0, 1
0, 1
1, 1
1, 1
1, 2
1, 0
0, 0
1, 0
1, 2
1, 1
1, 1
2, 0
1, 1
0, 0
1, 0
0, 0
2, 0
0, 1
2, 0
0, 1
2, 0
0, 2
2, 1
0, 1
0, 2
2, 0
2, 1
3, 0
1, 3
0, 1
1, 0
0, 0
2, 0
1, 1
0, 3
0, 0
0, 2
0, 1
2, 0
0, 3
3, 0
3, 0
1, 0
0, 1
0, 0
0, 1
2, 2
2, 0
2, 1
0, 1
0, 0
0, 1
0, 1
0, 1
1, 0
0, 2
0, 0
0, 2
1, 0
1, 0
0, 0
1, 1
0, 0
0, 0
0, 2
0, 0
0, 0
1, 0
0, 0
0, 0
1, 0
0, 0
0, 2
0, 0
1, 3
1, 0
1, 0
1, 0
2, 1
1, 0
0, 1
3, 0
0, 1
0, 0
1, 0
1, 0
0, 0
0, 2
0, 0
0, 0
1, 0
1, 0
0, 0
0, 0
1, 0
0, 0
0, 0
1, 0
0, 1
1, 1
0, 2
0, 0
0, 1
0, 2
2, 0
0, 1
1, 0
0, 0
0, 0
0, 0
2, 0
1, 0
0, 0
1, 0
1, 0
0, 0
1, 2
1, 0
1, 0
0, 0
0, 0
0, 0
0, 1
0, 0
1, 0
1, 0
0, 0
1, 1
0, 1
0, 1
0, 1
0, 1
1, 0
0, 0
1, 0
0, 0
0, 0
0, 0
2, 0
1, 2
2, 1
0, 1
0, 0
0, 0
1, 0
2, 0
0, 2
0, 0
1, 0
0, 2
0, 0
0, 0
0, 0
0, 0
0, 0
1, 0
0, 0
1, 0
0, 1
0, 0
2, 0
0, 0
0, 0
0, 0
1, 1
0, 1
0, 0
0, 2
0, 1
0, 0
0, 0
0, 0
0, 0
0, 0
0, 0
0, 0
1, 0
0, 0
0, 0
1, 0
0, 0
0, 0
0, 0
1, 0
0, 0
1, 1
1, 0
0, 0
0, 0
0, 0
0, 0
0, 1
0, 0
0, 1
1, 0
0, 0
0, 1
1, 0
1, 0
0, 0
0, 0
0, 1
0, 1
0, 0
1, 0
0, 0
0, 0
0, 0
0, 1
0, 1
0, 0
0, 0
1, 0
0, 1
0, 0
1, 0
0, 0
1, 0
0, 0
0, 0
0, 0
0, 1
0, 0
0, 0
0, 0
0, 2
1, 0
0, 0
0, 0
1, 0
0, 0
0, 1
0, 0
0, 1
0, 0
0, 0
0, 0
0, 1
0, 0
0, 0
1, 0
0, 0
0, 0
1, 0
0, 0
0, 0
0, 0
0, 0
0, 0
0, 0
0, 0
1, 0
0, 0
0, 0
0, 0
1, 0
0, 0
0, 0
0, 0
0, 0
0, 0
0, 0
0, 0
0, 0
0, 0
0, 0
0, 0
0, 1
0, 0
1, 1
0, 1
0, 0
0, 1
0, 0
0, 0
0, 0
1, 0
0, 0
0, 0
0, 0
0, 0
0, 0
0, 1
0, 0
0, 0
0, 0
1, 0
0, 0
0, 0
0, 0
0, 0
0, 0
0, 0
0, 0
0, 0
0, 0
1, 0
0, 1
0, 0
0, 0
0, 0
0, 0
0, 0
0, 0
0, 0
0, 0
0, 0
0, 0
0, 0
0, 0
0, 0
0, 0
0, 0
0, 0
0, 1
0, 0
0, 0
0, 0
0, 0
0, 0
0, 0
0, 0
0, 0
0, 0
0, 0
0, 0
0, 0
0, 0
0, 0
0, 0
0, 1
2, 0
0, 0
1, 0
0, 0
0, 0
0, 0
0, 0
0, 1
0, 0
0, 0
0, 0
0, 0
0, 0
0, 0
0, 0
1, 0
1, 0
0, 0
0, 0
0, 0
0, 0
0, 0
0, 0
0, 0
0, 0
0, 0
0, 0
0, 0
0, 0
0, 0
0, 0
0, 0
0, 0
0, 0
0, 0
0, 0
0, 0
0, 0
0, 0
0, 0
0, 0
0, 0
0, 0
0, 0
0, 0
0, 0
0, 0
1, 0
0, 0
0, 0
0, 0
0, 0
0, 0
0, 0
0, 0
0, 0
0, 0
0, 0
0, 0
0, 0
0, 0
0, 0
0, 0
0, 0
0, 0
0, 0
0, 0
0, 0
0, 0
0, 0
0, 0
0, 0
0, 0
0, 0
0, 0
0, 0
0, 0
0, 0
1, 0
0, 0
0, 0
0, 0
0, 0
0, 0
0, 0
0, 0
0, 0
0, 0
0, 0
0, 0
0, 0
0, 0
0, 0
0, 0
0, 0
0, 0
0, 0
0, 0
0, 0
0, 0
0, 0
0, 0
0, 0
0, 0
1, 0
0, 0
0, 0
0, 0
0, 0
0, 0
0, 0
0, 0
0, 0
0, 0
0, 0
0, 0
0, 0
0, 0
0, 0
0, 0
0, 0
0, 0
0, 0
0, 0
0, 0
0, 0
0, 0
0, 0
0, 0
0, 0
0, 0
0, 0
0, 0
0, 0
0, 0
0, 0
0, 0
0, 0
0, 0
0, 0
0, 0
0, 0
0, 0
0, 0
0, 0
0, 0
0, 0
0, 0
0, 0
0, 0
0, 0
0, 0
0, 0
0, 0
0, 0
0, 0
0, 0
0, 0
0, 0
0, 0
0, 0
0, 0
0, 0
0, 0
0, 0
0, 0
0, 0
0, 0
0, 0
0, 0
0, 0
0, 0
0, 0
0, 0
0, 0
0, 0
0, 0
0, 0
0, 0
0, 0
0, 0
0, 0
0, 1
0, 0
0, 0
0, 0
0, 0
0, 0
0, 0
0, 0
0, 0
0, 0
0, 0
0, 0
0, 0
0, 0
0, 0
0, 0
0, 0
0, 0
0, 0
0, 0
0, 0
0, 0
0, 0
0, 0
0, 0
0, 0
0, 0
0, 0
0, 0
0, 0
0, 1
0, 0
0, 0
0, 0
0, 0
0, 0
0, 0
0, 0
0, 0
0, 0
0, 0
0, 0
0, 0
0, 0
0, 0
0, 0
0, 0
0, 0
0, 0
0, 0
0, 0
0, 0
0, 0
0, 0
0, 0
0, 0
0, 0
0, 0
0, 0
0, 0
0, 0
0, 0
0, 0
0, 0
0, 0
0, 0
0, 0
0, 0
0, 0
0, 0
0, 0
0, 0
0, 0
0, 0
0, 0
0, 0
0, 0
0, 0
0, 0
0, 0
0, 0
0, 0
0, 0
0, 0
0, 0
0, 0
0, 0
0, 0
0, 0
0, 0
0, 0
0, 0
0, 0
0, 0
0, 0
0, 0
0, 0
0, 0
0, 0
0, 0
0, 0
0, 0
0, 0
0, 0
0, 0
0, 0
0, 0
0, 0
0, 0
0, 0
0, 0
0, 0
0, 0
0, 0
0, 0
0, 0
0, 0
0, 0
0, 0
0, 0
0, 0
0, 0
0, 0
0, 0
0, 0
0, 0
0, 0
0, 0
0, 0
0, 0
0, 0
0, 0
0, 0
0, 0
0, 0
0, 0
0, 0
0, 0
0, 0
0, 0
0, 0
0, 0
0, 0
0, 0
0, 0
0, 0
0, 0
0, 0
0, 0
0, 0
0, 0
0, 0
0, 0
0, 0
0, 0
0, 0
0, 0
0, 0
0, 0
0, 0
0, 0
0, 0
0, 0
0, 0
0, 0
0, 0
0, 0
0, 0
0, 0
0, 0
0, 0
0, 0
0, 0
0, 0
0, 0
0, 0
0, 0
0, 0
0, 0
0, 0
0, 0
0, 0
0, 0
0, 0
0, 0
0, 0
0, 0
0, 0
0, 0
0, 0
0, 0
0, 0
0, 0
0, 0
0, 0
0, 0
0, 0
0, 0
0, 0
0, 0
0, 0
0, 0
0, 0
0, 0
0, 0
0, 0
0, 0
0, 0
0, 0
0, 0
0, 0
0, 0
0, 0
0, 0
0, 0
0, 0
0, 0
0, 0
0, 0
0, 0
0, 0
0, 0
0, 0
0, 0
0, 0
0, 0
0, 0
0, 0
0, 0
0, 0
0, 0
0, 0
0, 0
0, 0
0, 0
0, 0
0, 0
0, 0
0, 0
0, 0
0, 0
0, 0
0, 0
0, 0
0, 0
0, 0
0, 0
0, 0
0, 0
0, 0
0, 0
0, 0
0, 0
0, 0
0, 0
0, 0
0, 0
0, 0
0, 0
0, 0
0, 0
0, 0
0, 0
0, 0
0, 0
#ENDOFDATA     end of spectrum data