File: host_upload/06-09-2024/ps_0852/dump3/ps__0852shot_2358.msa
#FORMAT      : EMSA/MAS spectral data file
#VERSION     : TC202v2.0 PIXL
#TITLE       : N/A
#DATE        :       Date in the format DD-MMM-YYYY, for example 07-JUL-2010
#TIME        :             The time of day at which the spectrum was recorded, in 24-hour format
#OWNER       : PIXL Flight Model       (PIXL will use this to indicate which instrument took the data.)
#NPOINTS     : 4096     Number of data points in the spectrum (This can be zero for configuration only files)
#NCOLUMNS    : 2     Number of data columns in the spectrum (This can be zero for configuration only files)
#XUNITS      : eV
#YUNITS      : COUNTS
#DATATYPE    : YY
#XPERCHAN    : 7.862, 7.881   eV per channel (separate by commas if more than one detector)
#OFFSET      : 18.5, -22.4         eV of first channel  (separate by commas if more than one detector
#SIGNALTYPE  : XRF
#YP_TEMP     : 2.332
#LIVETIME    : 8.60857, 8.50317   seconds (separate by commas if more than one detector)
#REALTIME    : 10, 10.0   seconds (separate by commas if more than one detector)
#SPECTRUM    : start of spectrum data
0, 0
0, 0
0, 0
0, 0
0, 0
0, 0
0, 0
0, 0
0, 0
0, 0
0, 0
0, 0
0, 0
0, 0
0, 0
0, 0
0, 0
0, 0
0, 0
0, 0
0, 0
0, 0
0, 0
0, 0
0, 0
0, 0
0, 0
0, 0
0, 0
0, 0
0, 0
0, 0
0, 0
0, 0
0, 0
0, 0
0, 1
1, 1
0, 1
0, 0
1, 5
2, 0
0, 2
0, 0
1, 2
0, 0
1, 3
2, 4
13, 4
8, 14
20, 22
55, 42
60, 41
68, 60
72, 78
84, 56
54, 54
40, 33
22, 25
15, 10
9, 5
4, 2
5, 2
5, 2
2, 3
2, 5
5, 4
6, 9
20, 14
50, 39
91, 93
200, 120
270, 227
363, 295
438, 356
446, 352
373, 337
323, 245
186, 151
121, 111
83, 58
37, 32
16, 22
14, 5
7, 4
1, 2
2, 4
2, 3
1, 4
2, 3
3, 0
2, 1
3, 3
3, 3
6, 2
10, 7
9, 10
13, 14
22, 16
25, 19
20, 15
17, 14
21, 12
11, 7
3, 9
7, 8
5, 7
9, 10
18, 9
13, 11
20, 18
22, 34
39, 42
38, 44
47, 48
39, 55
46, 36
45, 50
32, 37
23, 35
20, 28
16, 22
19, 17
19, 18
20, 17
16, 16
7, 8
10, 11
9, 8
5, 6
4, 3
5, 8
5, 3
2, 5
0, 7
2, 6
5, 8
4, 12
3, 5
3, 4
1, 6
4, 4
3, 3
0, 5
0, 0
1, 3
1, 3
3, 0
4, 1
2, 2
5, 3
10, 2
6, 10
10, 14
19, 12
18, 17
19, 22
29, 16
32, 21
23, 19
11, 12
10, 7
9, 9
10, 7
6, 5
5, 4
6, 9
5, 4
5, 14
6, 5
7, 8
11, 15
3, 14
10, 4
4, 12
6, 10
7, 16
7, 15
9, 28
14, 28
10, 28
8, 34
11, 25
6, 33
3, 23
6, 19
10, 16
5, 8
9, 12
12, 13
6, 6
12, 10
11, 16
12, 10
16, 10
14, 12
15, 22
17, 23
20, 25
22, 16
16, 31
18, 46
14, 42
13, 61
20, 67
19, 69
14, 86
15, 75
14, 60
18, 53
17, 34
12, 26
9, 11
14, 13
12, 7
13, 5
5, 4
10, 12
10, 4
7, 12
7, 2
13, 10
10, 6
25, 6
19, 5
24, 13
27, 10
35, 12
32, 13
35, 21
38, 22
40, 18
35, 16
33, 14
26, 15
17, 10
19, 10
14, 12
10, 12
15, 7
10, 9
8, 4
10, 14
14, 11
16, 21
28, 16
39, 30
39, 49
48, 50
71, 54
81, 70
63, 57
54, 45
55, 48
57, 40
42, 37
24, 19
28, 27
24, 24
12, 20
33, 20
47, 30
50, 51
100, 104
152, 192
324, 309
500, 590
792, 906
1248, 1264
1658, 1558
2085, 1931
2467, 2196
2675, 2204
2585, 2056
2326, 1845
1892, 1380
1475, 1008
970, 688
654, 407
381, 224
205, 138
120, 57
76, 29
40, 23
22, 14
20, 18
21, 16
19, 20
17, 17
19, 24
20, 22
35, 33
50, 46
76, 64
106, 129
173, 144
204, 230
311, 242
317, 329
376, 343
418, 352
369, 280
351, 239
256, 197
223, 128
155, 101
80, 81
56, 42
26, 24
14, 16
6, 8
14, 16
5, 10
5, 10
11, 17
12, 9
17, 17
19, 13
19, 13
22, 9
15, 7
8, 13
8, 13
9, 6
5, 7
6, 6
7, 10
5, 2
6, 4
4, 2
5, 5
7, 3
5, 2
7, 2
5, 11
2, 5
8, 12
5, 10
3, 12
2, 12
6, 20
3, 15
6, 19
7, 18
11, 17
3, 20
8, 11
7, 17
7, 15
9, 8
8, 9
17, 4
3, 2
10, 3
6, 4
9, 2
7, 5
3, 2
4, 4
5, 2
4, 2
2, 8
1, 6
3, 3
7, 6
1, 5
7, 1
3, 2
3, 2
3, 2
8, 2
7, 7
3, 4
5, 3
6, 6
4, 7
3, 2
7, 1
3, 3
3, 2
8, 4
4, 8
2, 2
5, 3
3, 4
5, 2
2, 5
5, 3
2, 2
3, 1
9, 9
4, 0
3, 2
8, 2
5, 0
9, 1
6, 2
8, 1
3, 5
6, 3
4, 3
3, 3
8, 3
7, 6
3, 4
7, 3
5, 2
4, 6
4, 5
6, 2
1, 7
7, 7
4, 8
8, 4
9, 4
6, 6
5, 1
9, 4
4, 5
0, 2
9, 3
8, 3
6, 3
2, 2
0, 2
5, 4
3, 8
4, 5
4, 3
4, 5
4, 3
1, 3
4, 3
2, 8
3, 8
5, 8
5, 4
2, 7
5, 6
2, 4
3, 3
4, 4
1, 5
4, 4
3, 5
2, 2
1, 3
3, 8
3, 3
2, 3
3, 3
1, 2
4, 1
1, 1
3, 1
3, 6
4, 2
7, 4
8, 1
2, 5
2, 2
5, 2
3, 3
2, 2
0, 2
0, 1
2, 6
3, 3
0, 3
2, 3
3, 2
5, 3
5, 2
2, 0
2, 2
1, 1
5, 1
4, 1
7, 2
3, 2
3, 2
3, 3
5, 4
4, 2
3, 0
6, 2
0, 0
3, 2
2, 2
2, 2
2, 0
3, 2
1, 3
2, 5
4, 2
3, 1
2, 6
3, 3
1, 2
0, 5
5, 4
3, 2
3, 2
2, 3
1, 4
1, 1
3, 1
5, 1
2, 5
2, 0
4, 0
2, 4
0, 2
2, 0
6, 2
3, 1
0, 0
1, 1
1, 1
1, 0
3, 2
2, 1
3, 2
2, 1
0, 5
4, 3
2, 2
0, 2
1, 0
1, 4
1, 2
0, 0
1, 3
2, 2
3, 3
0, 1
2, 2
4, 2
3, 5
2, 5
1, 1
7, 5
5, 6
2, 5
3, 4
6, 3
6, 1
3, 4
3, 2
3, 3
1, 6
5, 2
1, 0
5, 1
3, 1
1, 1
2, 0
1, 1
2, 1
2, 2
3, 2
2, 0
4, 4
3, 1
0, 3
0, 0
3, 2
0, 2
1, 2
2, 0
0, 1
3, 1
3, 0
6, 2
2, 0
1, 1
3, 1
1, 0
1, 2
2, 2
1, 2
0, 1
3, 1
0, 2
0, 1
2, 1
1, 2
1, 0
0, 0
2, 0
2, 1
1, 2
0, 2
0, 1
0, 2
1, 1
0, 0
3, 1
1, 1
1, 1
2, 0
1, 3
1, 1
2, 0
0, 1
3, 1
0, 0
0, 2
1, 0
1, 1
1, 0
1, 0
0, 2
0, 0
2, 0
0, 0
1, 1
0, 3
0, 0
3, 1
0, 3
1, 0
1, 2
1, 1
2, 2
0, 0
2, 0
0, 0
0, 0
1, 1
1, 0
1, 2
2, 0
0, 0
0, 0
1, 0
2, 1
0, 2
1, 0
0, 1
2, 1
0, 1
0, 1
0, 0
2, 0
1, 1
0, 0
0, 0
1, 0
1, 1
0, 2
1, 0
0, 2
1, 0
0, 1
0, 1
0, 1
0, 1
0, 0
1, 0
1, 0
0, 1
1, 1
1, 0
0, 1
0, 0
1, 2
1, 0
0, 0
1, 3
0, 2
0, 0
3, 1
0, 1
0, 1
0, 0
0, 0
0, 0
2, 0
0, 2
1, 1
0, 2
1, 2
0, 1
2, 0
2, 0
1, 1
0, 1
0, 0
1, 0
0, 0
0, 1
2, 0
0, 1
0, 0
0, 2
1, 0
0, 0
0, 0
0, 2
0, 0
1, 0
0, 0
0, 0
2, 1
0, 1
0, 0
0, 1
2, 1
0, 0
0, 0
0, 0
0, 2
0, 0
0, 1
0, 1
0, 0
0, 0
0, 0
0, 1
0, 0
2, 0
0, 0
1, 0
0, 0
0, 0
1, 0
0, 0
0, 1
0, 0
0, 1
0, 0
0, 1
0, 0
0, 0
0, 0
0, 0
0, 0
0, 1
1, 0
2, 0
0, 0
0, 0
0, 0
1, 0
0, 1
0, 0
1, 2
0, 0
0, 0
0, 1
0, 0
0, 0
1, 0
0, 0
0, 0
0, 0
0, 0
1, 0
0, 0
0, 0
0, 0
1, 0
0, 0
0, 0
2, 1
0, 0
1, 0
0, 1
1, 0
0, 0
0, 0
0, 0
0, 0
0, 1
0, 0
0, 0
0, 0
0, 0
0, 0
0, 0
0, 1
0, 0
0, 0
0, 1
0, 0
0, 1
1, 0
0, 0
0, 0
0, 0
1, 0
0, 0
0, 0
1, 0
0, 0
0, 0
0, 1
0, 0
0, 1
0, 0
0, 0
0, 0
0, 0
0, 0
1, 0
0, 2
1, 0
0, 1
0, 0
0, 1
0, 0
1, 0
0, 0
0, 1
0, 0
0, 0
1, 0
0, 0
0, 1
1, 0
1, 0
0, 1
0, 0
0, 1
1, 0
0, 0
0, 0
1, 0
0, 0
0, 0
1, 0
0, 0
0, 0
0, 0
0, 0
0, 0
0, 0
0, 0
0, 0
0, 0
0, 0
0, 0
0, 0
0, 0
0, 0
1, 0
0, 0
0, 0
1, 0
1, 1
0, 0
0, 1
1, 0
0, 0
0, 0
0, 0
0, 0
0, 0
0, 0
0, 0
0, 0
1, 0
0, 0
0, 1
0, 0
0, 1
1, 1
0, 0
0, 0
0, 0
0, 0
0, 0
0, 1
0, 0
0, 0
0, 0
0, 0
0, 0
0, 0
0, 0
0, 1
0, 0
0, 0
0, 0
0, 0
0, 0
0, 0
1, 0
0, 0
0, 0
0, 0
0, 0
1, 0
0, 1
0, 0
0, 0
0, 0
1, 0
0, 0
0, 0
0, 1
0, 0
0, 0
0, 0
0, 1
0, 0
0, 0
0, 0
0, 0
0, 0
0, 0
0, 0
0, 0
0, 0
0, 0
0, 0
0, 0
1, 0
0, 0
0, 0
0, 0
0, 0
0, 0
0, 0
0, 0
0, 0
0, 0
0, 0
0, 0
0, 0
0, 0
0, 0
0, 0
0, 0
0, 0
0, 0
0, 0
0, 0
0, 0
0, 0
0, 0
0, 0
0, 0
0, 0
0, 0
0, 0
0, 0
0, 0
0, 0
0, 0
0, 0
0, 0
0, 0
0, 0
1, 0
0, 0
0, 0
0, 0
0, 0
0, 0
0, 0
0, 0
0, 0
0, 0
0, 0
0, 0
0, 0
0, 0
0, 0
0, 0
0, 0
0, 0
0, 0
0, 0
0, 0
1, 0
0, 0
0, 0
0, 0
0, 0
0, 0
0, 0
0, 0
0, 0
0, 0
0, 0
0, 0
0, 0
0, 0
0, 0
0, 0
0, 0
0, 0
0, 0
0, 0
0, 0
0, 0
0, 0
0, 0
0, 0
0, 0
0, 0
0, 0
0, 0
0, 0
0, 0
0, 0
0, 0
0, 0
0, 0
0, 0
0, 0
0, 0
0, 0
0, 0
0, 0
0, 0
0, 0
0, 0
0, 0
0, 0
0, 0
0, 0
0, 0
0, 0
0, 0
0, 0
0, 0
0, 0
0, 0
0, 0
0, 0
0, 0
0, 0
0, 0
0, 0
0, 0
0, 0
0, 0
0, 0
0, 0
0, 0
0, 0
0, 0
0, 0
0, 0
0, 0
0, 0
0, 0
0, 0
0, 0
0, 0
0, 0
0, 0
0, 0
0, 0
0, 0
0, 0
0, 0
0, 0
0, 0
0, 0
0, 0
0, 0
0, 0
0, 0
0, 0
0, 0
0, 0
0, 0
0, 0
0, 0
0, 0
0, 0
0, 0
0, 0
0, 0
0, 0
0, 0
0, 0
0, 0
0, 0
0, 0
0, 0
0, 0
0, 0
0, 0
0, 0
0, 0
0, 0
0, 0
0, 0
0, 0
0, 0
0, 0
0, 0
0, 0
0, 0
0, 0
0, 0
0, 0
0, 0
0, 0
0, 0
0, 0
0, 0
0, 0
0, 0
0, 0
0, 0
0, 0
0, 0
0, 0
0, 0
0, 0
0, 0
0, 0
0, 0
0, 0
0, 0
0, 0
0, 0
0, 0
0, 0
0, 0
0, 0
0, 0
0, 0
0, 0
0, 0
0, 0
0, 0
0, 0
0, 0
0, 0
0, 0
0, 0
0, 0
0, 0
0, 0
0, 0
0, 0
0, 0
0, 0
1, 0
0, 0
0, 0
0, 0
0, 0
0, 0
0, 0
0, 0
1, 0
0, 0
0, 0
0, 0
0, 0
0, 0
0, 0
0, 0
0, 0
0, 0
0, 0
0, 0
0, 0
0, 0
0, 0
0, 0
0, 0
0, 0
0, 0
0, 0
0, 0
0, 0
0, 0
0, 0
0, 0
0, 0
0, 0
0, 0
0, 0
0, 0
0, 0
0, 0
0, 0
0, 0
0, 0
0, 0
0, 0
0, 0
0, 0
0, 0
0, 0
0, 0
0, 0
0, 0
0, 0
0, 0
0, 0
0, 0
0, 0
0, 0
0, 0
0, 0
0, 0
0, 0
0, 0
0, 0
0, 0
0, 0
0, 0
0, 0
0, 0
0, 0
0, 0
0, 0
0, 0
0, 0
0, 0
0, 0
0, 0
0, 0
0, 0
0, 0
0, 0
0, 0
0, 0
0, 0
0, 0
0, 0
0, 0
0, 0
0, 0
0, 0
0, 0
0, 0
0, 0
0, 0
0, 0
0, 0
0, 0
0, 0
0, 0
0, 0
0, 0
0, 0
0, 0
0, 0
0, 0
0, 0
0, 0
0, 0
0, 0
0, 0
0, 0
0, 0
0, 0
0, 0
0, 0
0, 0
0, 0
0, 0
0, 0
0, 0
0, 0
0, 0
0, 0
0, 0
0, 0
0, 0
0, 0
0, 0
0, 0
0, 0
0, 0
0, 0
0, 0
0, 0
0, 0
0, 0
0, 0
0, 0
0, 0
0, 0
0, 0
0, 0
0, 0
0, 0
0, 0
0, 0
0, 0
0, 0
0, 0
0, 0
0, 0
0, 0
0, 0
0, 0
0, 0
0, 0
0, 0
0, 0
0, 0
0, 0
0, 0
0, 0
0, 0
0, 0
0, 0
0, 0
0, 0
0, 0
0, 0
0, 0
0, 0
0, 0
0, 0
0, 0
0, 0
0, 0
0, 0
0, 0
0, 0
0, 0
0, 0
0, 0
0, 0
0, 0
0, 0
0, 0
0, 0
0, 0
0, 0
0, 0
0, 0
0, 0
0, 0
0, 0
0, 0
0, 0
0, 0
0, 0
0, 0
0, 0
0, 0
0, 0
0, 0
0, 0
0, 0
0, 0
0, 0
0, 0
0, 0
0, 0
0, 0
0, 0
0, 0
0, 0
0, 0
0, 0
0, 0
0, 0
0, 0
0, 0
0, 0
#ENDOFDATA     end of spectrum data