File: host_upload/06-09-2024/ps_0852/dump3/ps__0852shot_2376.msa
#FORMAT      : EMSA/MAS spectral data file
#VERSION     : TC202v2.0 PIXL
#TITLE       : N/A
#DATE        :       Date in the format DD-MMM-YYYY, for example 07-JUL-2010
#TIME        :             The time of day at which the spectrum was recorded, in 24-hour format
#OWNER       : PIXL Flight Model       (PIXL will use this to indicate which instrument took the data.)
#NPOINTS     : 4096     Number of data points in the spectrum (This can be zero for configuration only files)
#NCOLUMNS    : 2     Number of data columns in the spectrum (This can be zero for configuration only files)
#XUNITS      : eV
#YUNITS      : COUNTS
#DATATYPE    : YY
#XPERCHAN    : 7.862, 7.881   eV per channel (separate by commas if more than one detector)
#OFFSET      : 18.5, -22.4         eV of first channel  (separate by commas if more than one detector
#SIGNALTYPE  : XRF
#YP_TEMP     : 2.492
#LIVETIME    : 8.55082, 8.55177   seconds (separate by commas if more than one detector)
#REALTIME    : 10, 10.0   seconds (separate by commas if more than one detector)
#SPECTRUM    : start of spectrum data
0, 0
0, 0
0, 0
0, 0
0, 0
0, 0
0, 0
0, 0
0, 0
0, 0
0, 0
0, 0
0, 0
0, 0
0, 0
0, 0
0, 0
0, 0
0, 0
0, 0
0, 0
0, 0
0, 0
0, 0
0, 0
0, 0
0, 0
0, 0
0, 0
0, 0
0, 0
1, 1
0, 0
1, 1
0, 0
0, 0
0, 1
1, 3
0, 1
0, 1
0, 2
2, 1
1, 2
1, 1
1, 0
1, 0
1, 3
2, 2
7, 7
16, 8
28, 24
31, 32
59, 41
85, 60
97, 68
87, 55
66, 38
45, 32
33, 28
19, 18
12, 11
8, 6
1, 4
11, 5
5, 6
7, 5
9, 3
7, 4
32, 18
51, 42
101, 85
192, 183
245, 261
399, 322
457, 424
447, 419
401, 355
359, 265
212, 171
158, 112
87, 82
42, 33
22, 17
7, 10
13, 5
5, 6
3, 3
5, 5
3, 4
4, 3
0, 0
1, 0
0, 0
3, 3
1, 4
3, 1
2, 6
6, 2
3, 4
7, 3
5, 2
7, 3
4, 7
4, 2
3, 5
7, 1
9, 3
7, 6
18, 12
13, 18
33, 35
43, 37
46, 45
54, 52
49, 44
41, 42
39, 55
34, 29
31, 41
31, 33
31, 24
20, 22
24, 15
20, 15
21, 19
13, 16
10, 18
14, 11
14, 8
13, 5
5, 4
3, 4
3, 1
2, 4
2, 3
2, 1
1, 2
2, 3
2, 2
1, 2
1, 7
3, 0
4, 1
3, 5
5, 1
9, 2
6, 3
11, 2
17, 1
18, 2
25, 2
21, 4
22, 7
36, 18
41, 20
44, 32
40, 28
33, 38
31, 28
31, 21
27, 14
12, 11
9, 8
7, 7
11, 5
5, 3
6, 10
4, 6
6, 2
5, 4
5, 8
5, 6
6, 4
9, 5
4, 4
9, 5
7, 9
8, 5
6, 4
6, 5
4, 3
3, 2
2, 2
4, 3
0, 2
3, 8
3, 1
2, 6
6, 2
1, 10
8, 9
8, 10
13, 11
4, 16
11, 13
14, 17
13, 12
14, 10
15, 15
13, 8
13, 14
5, 9
14, 10
13, 8
7, 8
9, 5
5, 1
2, 5
11, 6
7, 5
3, 8
5, 4
7, 5
2, 3
5, 8
9, 4
6, 6
4, 10
4, 5
3, 3
6, 8
8, 4
11, 7
9, 9
10, 10
9, 15
15, 25
19, 16
17, 39
23, 33
26, 34
22, 39
30, 26
15, 16
21, 20
13, 18
5, 12
9, 10
18, 9
9, 10
8, 4
10, 8
8, 11
21, 13
16, 17
18, 33
23, 28
41, 53
48, 47
72, 44
55, 57
70, 57
72, 55
75, 48
52, 45
44, 32
46, 26
47, 15
37, 13
19, 17
23, 20
30, 28
45, 45
85, 103
161, 200
282, 353
509, 623
820, 920
1223, 1317
1766, 1784
2058, 2173
2427, 2404
2544, 2344
2528, 2258
2266, 1964
1820, 1560
1401, 1112
981, 743
606, 482
398, 264
225, 159
111, 79
51, 32
42, 33
31, 16
23, 20
18, 16
16, 20
23, 19
36, 18
43, 26
51, 39
65, 58
79, 85
125, 113
167, 174
223, 224
278, 297
330, 346
376, 351
388, 373
407, 366
310, 251
278, 212
214, 144
152, 106
103, 51
54, 38
25, 26
24, 20
18, 8
9, 2
7, 5
10, 11
7, 9
14, 12
17, 11
10, 18
16, 15
18, 10
23, 15
16, 13
13, 6
8, 10
4, 3
6, 6
1, 4
12, 4
3, 2
3, 2
4, 5
4, 3
4, 2
6, 2
5, 4
4, 6
2, 4
5, 9
3, 4
4, 5
5, 9
3, 6
5, 9
7, 11
6, 8
8, 8
4, 11
5, 11
5, 11
5, 7
4, 3
13, 14
7, 9
4, 4
6, 4
6, 3
5, 2
12, 9
5, 7
5, 4
5, 2
5, 8
5, 2
2, 4
2, 2
8, 2
4, 1
6, 4
4, 4
2, 2
5, 1
5, 3
2, 2
5, 4
9, 2
7, 2
5, 1
7, 4
4, 6
24, 2
27, 1
20, 2
17, 0
14, 2
13, 2
12, 4
14, 1
0, 3
7, 8
6, 8
3, 1
2, 2
3, 5
5, 4
1, 2
4, 2
6, 2
3, 2
3, 5
6, 2
5, 3
5, 6
7, 3
6, 2
4, 4
3, 5
10, 2
6, 3
4, 5
5, 5
4, 1
3, 5
4, 3
2, 4
2, 5
3, 2
3, 3
2, 5
1, 4
4, 3
3, 4
2, 2
3, 4
1, 2
1, 4
2, 0
0, 6
1, 1
3, 2
2, 2
4, 5
3, 1
2, 2
2, 2
0, 4
5, 3
1, 0
2, 3
5, 1
5, 2
2, 4
3, 1
4, 2
3, 1
12, 1
4, 1
9, 2
10, 5
14, 1
6, 4
6, 2
8, 2
11, 3
8, 3
8, 1
3, 4
8, 3
6, 4
9, 6
2, 4
3, 4
3, 5
6, 7
3, 4
4, 4
5, 4
1, 3
0, 7
3, 5
4, 4
1, 1
2, 1
3, 2
6, 1
6, 2
3, 2
1, 0
3, 4
2, 0
2, 2
3, 2
1, 2
0, 1
0, 1
5, 3
3, 3
3, 2
0, 2
2, 1
5, 3
1, 1
3, 0
0, 4
2, 2
3, 5
1, 1
3, 0
0, 3
0, 1
2, 0
0, 0
1, 2
5, 6
1, 4
0, 1
3, 3
5, 5
1, 0
0, 4
2, 1
0, 0
4, 1
0, 2
2, 3
0, 0
2, 1
1, 1
0, 3
1, 0
2, 1
2, 1
3, 1
2, 2
1, 4
1, 2
0, 1
2, 0
4, 2
0, 0
3, 2
3, 3
2, 2
3, 2
2, 4
2, 2
1, 5
2, 0
1, 2
2, 5
3, 5
4, 3
7, 4
5, 8
3, 5
7, 5
3, 2
5, 2
6, 5
4, 3
6, 5
3, 0
4, 2
2, 0
3, 1
0, 2
2, 1
3, 2
0, 1
0, 2
0, 0
1, 4
6, 1
2, 1
1, 1
3, 0
5, 2
2, 2
0, 1
6, 4
2, 3
1, 0
3, 2
1, 1
4, 1
1, 0
0, 0
3, 2
1, 2
2, 1
1, 1
4, 0
2, 0
1, 1
1, 2
1, 3
0, 1
1, 1
1, 2
3, 3
2, 2
1, 0
2, 1
3, 0
0, 0
2, 1
1, 1
1, 0
0, 0
0, 0
0, 0
1, 1
0, 4
1, 1
1, 0
1, 3
0, 1
1, 0
2, 0
0, 2
0, 1
3, 1
0, 0
1, 1
0, 0
3, 1
0, 0
0, 0
2, 0
1, 1
2, 2
2, 1
0, 1
2, 3
1, 2
0, 0
2, 2
2, 1
0, 0
1, 1
1, 1
2, 1
1, 1
0, 0
0, 0
1, 1
1, 0
1, 0
2, 0
1, 1
2, 2
3, 0
0, 2
0, 1
1, 0
1, 1
1, 0
2, 2
0, 1
2, 1
0, 0
0, 1
1, 2
0, 0
0, 2
0, 0
1, 1
0, 0
0, 0
0, 0
0, 0
3, 1
1, 1
0, 0
0, 1
1, 0
0, 1
2, 0
1, 2
0, 0
0, 0
0, 0
0, 0
0, 0
2, 0
0, 0
1, 1
0, 0
0, 1
0, 0
1, 1
0, 1
1, 0
1, 0
1, 1
2, 0
0, 0
0, 1
0, 0
0, 1
0, 2
0, 0
1, 1
1, 0
1, 1
1, 1
0, 0
0, 1
0, 0
0, 0
0, 0
0, 0
0, 0
0, 0
0, 0
0, 0
1, 0
0, 1
1, 0
0, 0
0, 0
0, 1
2, 1
3, 0
0, 0
0, 0
0, 2
0, 1
0, 0
0, 1
1, 0
0, 0
1, 0
0, 0
2, 1
1, 0
1, 0
0, 0
1, 1
0, 0
1, 0
0, 0
0, 1
0, 0
0, 1
0, 0
1, 0
0, 1
0, 0
0, 0
1, 0
0, 1
0, 0
0, 0
1, 0
0, 0
1, 0
0, 0
0, 0
1, 1
1, 1
1, 2
1, 0
0, 0
0, 0
1, 0
0, 0
0, 1
0, 1
1, 1
0, 0
1, 0
0, 1
1, 0
0, 1
1, 0
0, 3
0, 0
0, 0
0, 0
0, 0
0, 0
0, 0
0, 0
1, 0
0, 0
0, 1
0, 0
0, 0
1, 1
2, 0
0, 0
0, 0
0, 1
0, 0
0, 0
0, 1
0, 0
0, 1
1, 1
2, 0
0, 1
1, 0
0, 0
0, 1
0, 0
0, 0
1, 0
0, 0
0, 0
0, 1
0, 0
0, 0
0, 0
0, 0
1, 0
0, 0
1, 0
0, 0
0, 0
0, 0
0, 0
0, 1
0, 1
0, 0
0, 0
0, 0
0, 0
0, 0
0, 0
0, 0
1, 0
0, 0
0, 0
0, 1
0, 0
0, 0
0, 0
0, 1
1, 0
0, 1
0, 0
1, 1
0, 1
0, 0
0, 0
0, 1
0, 0
0, 0
0, 1
0, 0
0, 0
0, 0
0, 0
0, 0
0, 0
0, 0
0, 0
0, 0
1, 0
0, 0
0, 0
0, 1
1, 0
1, 0
1, 1
0, 0
1, 1
0, 0
0, 0
0, 0
0, 0
0, 0
0, 0
0, 0
0, 0
0, 0
0, 0
0, 0
0, 0
0, 0
0, 0
0, 0
0, 0
0, 0
0, 0
0, 0
0, 1
2, 0
0, 1
0, 0
0, 0
0, 0
0, 0
1, 0
0, 0
0, 0
0, 0
1, 0
0, 0
0, 0
0, 0
0, 0
0, 0
0, 0
0, 0
0, 0
0, 0
0, 0
0, 0
0, 0
0, 0
0, 0
0, 0
0, 0
0, 0
0, 0
0, 0
0, 0
0, 0
0, 0
0, 0
0, 0
0, 0
0, 0
1, 0
0, 0
0, 0
0, 0
0, 0
0, 0
0, 0
0, 0
0, 0
0, 0
0, 0
0, 0
0, 0
0, 0
0, 0
0, 0
0, 0
0, 0
0, 0
0, 0
0, 0
0, 0
0, 0
0, 0
0, 0
0, 0
0, 0
0, 0
0, 0
1, 0
0, 0
0, 0
0, 0
0, 0
0, 0
0, 0
0, 0
0, 0
0, 0
0, 0
0, 0
0, 0
1, 0
0, 0
1, 0
0, 0
0, 0
0, 0
0, 0
0, 0
0, 0
0, 0
0, 0
0, 0
0, 0
0, 0
0, 0
0, 0
0, 0
0, 0
0, 0
0, 0
0, 0
0, 0
0, 0
0, 0
0, 0
0, 0
0, 0
0, 0
0, 0
0, 0
0, 0
0, 0
0, 0
0, 0
0, 0
0, 0
0, 0
0, 0
0, 0
0, 0
0, 0
0, 0
0, 0
0, 0
0, 0
0, 0
0, 0
0, 0
0, 0
0, 0
0, 0
0, 0
0, 0
0, 0
0, 0
0, 0
0, 0
0, 0
0, 0
0, 0
0, 0
0, 0
0, 0
0, 0
0, 0
0, 0
0, 0
0, 0
0, 0
0, 0
0, 0
0, 0
0, 0
0, 0
0, 0
0, 0
0, 0
0, 0
0, 0
0, 0
0, 0
0, 0
0, 0
0, 0
0, 0
0, 0
0, 0
0, 0
0, 0
0, 0
0, 0
0, 0
0, 0
0, 0
0, 0
0, 0
0, 0
0, 0
0, 0
0, 0
0, 0
0, 0
0, 0
0, 0
0, 0
0, 0
0, 0
0, 0
0, 0
0, 0
0, 0
0, 0
0, 0
0, 0
0, 0
0, 0
0, 0
0, 0
0, 0
0, 0
0, 0
0, 0
0, 0
0, 0
0, 0
0, 0
0, 0
0, 0
0, 0
0, 0
0, 0
0, 0
0, 0
0, 0
0, 0
0, 0
0, 0
0, 0
0, 0
0, 0
0, 0
0, 0
0, 0
0, 0
0, 0
0, 0
0, 0
0, 0
0, 0
0, 0
0, 0
0, 0
0, 0
0, 0
0, 0
0, 0
0, 0
0, 0
0, 0
0, 0
0, 0
0, 0
0, 0
0, 0
0, 0
0, 0
0, 0
0, 0
0, 0
0, 0
0, 0
0, 0
0, 0
0, 0
0, 0
0, 0
0, 0
0, 0
0, 0
0, 0
0, 0
0, 0
0, 0
0, 0
0, 0
0, 0
0, 0
0, 0
0, 0
0, 0
0, 0
0, 0
0, 0
0, 0
0, 0
0, 0
0, 0
0, 0
0, 0
0, 0
0, 0
0, 0
0, 0
0, 0
0, 0
0, 0
0, 0
0, 0
0, 0
0, 0
0, 0
0, 0
0, 0
0, 0
0, 0
0, 0
0, 0
0, 0
0, 0
0, 0
0, 0
0, 0
0, 0
0, 0
0, 0
0, 0
0, 0
0, 0
0, 0
0, 0
0, 0
0, 0
0, 0
0, 0
0, 0
0, 0
0, 0
0, 0
0, 0
0, 0
0, 0
0, 0
0, 0
0, 0
0, 0
0, 0
0, 0
0, 0
0, 0
0, 0
0, 0
0, 0
0, 0
0, 0
0, 0
0, 0
0, 0
0, 0
0, 0
0, 0
0, 0
0, 0
0, 0
0, 0
0, 0
0, 0
0, 0
0, 0
0, 0
0, 0
0, 0
0, 0
0, 0
0, 0
0, 0
0, 0
0, 0
0, 0
0, 0
0, 0
0, 0
0, 0
0, 0
0, 0
0, 0
0, 0
0, 0
0, 0
0, 0
0, 0
0, 0
0, 0
0, 0
0, 0
0, 0
0, 0
0, 0
0, 0
0, 0
0, 0
0, 0
0, 0
0, 0
0, 0
0, 0
0, 0
0, 0
0, 0
0, 0
0, 0
0, 0
0, 0
0, 0
0, 0
0, 0
0, 0
0, 0
0, 0
0, 0
0, 0
0, 0
0, 0
0, 0
0, 0
0, 0
0, 0
0, 0
0, 0
0, 0
0, 0
0, 0
0, 0
0, 0
0, 0
0, 0
0, 0
0, 0
0, 0
0, 0
0, 0
0, 0
0, 0
0, 0
0, 0
0, 0
0, 0
0, 0
0, 0
0, 0
0, 0
0, 0
0, 0
0, 0
0, 0
0, 0
0, 0
0, 0
0, 0
0, 0
0, 0
0, 0
0, 0
0, 0
0, 0
0, 0
0, 0
0, 0
0, 0
0, 0
0, 0
0, 0
0, 0
0, 0
0, 0
0, 0
0, 0
0, 0
0, 0
0, 0
0, 0
0, 0
0, 0
0, 0
0, 0
0, 0
0, 0
0, 0
0, 0
0, 0
0, 0
0, 0
0, 0
0, 0
0, 0
0, 0
0, 0
0, 0
0, 0
0, 0
0, 0
0, 0
0, 0
0, 0
0, 0
0, 0
0, 0
0, 0
0, 0
0, 0
0, 0
#ENDOFDATA     end of spectrum data