File: host_upload/06-09-2024/ps_0852/dump3/ps__0852shot_2173.msa
#FORMAT      : EMSA/MAS spectral data file
#VERSION     : TC202v2.0 PIXL
#TITLE       : N/A
#DATE        :       Date in the format DD-MMM-YYYY, for example 07-JUL-2010
#TIME        :             The time of day at which the spectrum was recorded, in 24-hour format
#OWNER       : PIXL Flight Model       (PIXL will use this to indicate which instrument took the data.)
#NPOINTS     : 4096     Number of data points in the spectrum (This can be zero for configuration only files)
#NCOLUMNS    : 2     Number of data columns in the spectrum (This can be zero for configuration only files)
#XUNITS      : eV
#YUNITS      : COUNTS
#DATATYPE    : YY
#XPERCHAN    : 7.862, 7.881   eV per channel (separate by commas if more than one detector)
#OFFSET      : 18.5, -22.4         eV of first channel  (separate by commas if more than one detector
#SIGNALTYPE  : XRF
#YP_TEMP     : 2.46
#LIVETIME    : 8.56642, 8.54998   seconds (separate by commas if more than one detector)
#REALTIME    : 10, 10.0   seconds (separate by commas if more than one detector)
#SPECTRUM    : start of spectrum data
0, 0
0, 0
0, 0
0, 0
0, 0
0, 0
0, 0
0, 0
0, 0
0, 0
0, 0
0, 0
0, 0
0, 0
0, 0
0, 0
0, 0
0, 0
0, 0
0, 0
0, 0
0, 0
0, 0
0, 0
0, 0
0, 0
0, 0
0, 0
0, 0
0, 0
0, 0
0, 0
0, 0
0, 0
0, 0
0, 0
2, 0
1, 3
0, 0
1, 1
0, 1
3, 1
1, 0
0, 1
0, 2
2, 1
6, 2
4, 3
4, 5
10, 7
19, 23
33, 32
41, 65
48, 68
64, 74
58, 73
42, 58
48, 33
20, 30
13, 18
9, 8
5, 2
5, 5
2, 3
3, 8
3, 2
2, 6
10, 13
19, 28
40, 53
73, 84
158, 180
233, 291
317, 371
330, 423
327, 396
325, 355
237, 282
169, 214
123, 130
78, 70
32, 40
13, 23
3, 13
3, 4
6, 2
2, 1
3, 1
5, 1
1, 3
1, 4
3, 4
5, 6
5, 11
13, 33
26, 49
38, 57
51, 73
62, 78
61, 88
62, 82
57, 62
36, 45
26, 25
12, 17
16, 18
11, 10
9, 12
7, 14
12, 16
19, 23
39, 34
41, 51
40, 37
39, 48
30, 33
37, 46
34, 30
28, 34
19, 34
32, 23
13, 23
22, 28
22, 19
10, 18
12, 18
16, 17
11, 7
10, 8
13, 5
8, 5
9, 4
2, 3
2, 1
3, 3
1, 3
2, 5
2, 3
4, 1
2, 4
3, 1
4, 4
1, 4
2, 9
1, 6
2, 1
3, 2
2, 1
3, 2
2, 4
2, 3
1, 4
6, 2
5, 9
8, 11
10, 14
10, 14
9, 16
12, 17
8, 17
11, 12
10, 16
2, 7
3, 7
6, 10
5, 8
2, 6
3, 4
4, 4
3, 11
4, 3
3, 4
3, 4
4, 2
7, 5
3, 3
4, 4
6, 2
4, 7
4, 3
4, 7
3, 5
6, 3
3, 3
4, 4
7, 4
12, 6
21, 1
30, 5
40, 6
57, 6
75, 5
69, 11
61, 3
49, 12
53, 17
24, 9
34, 8
30, 7
40, 13
31, 15
31, 14
22, 4
23, 7
25, 10
14, 5
19, 5
20, 2
10, 9
9, 9
4, 7
3, 4
5, 4
4, 8
6, 9
11, 6
5, 3
4, 2
1, 2
5, 8
5, 5
6, 3
6, 7
3, 4
6, 11
9, 11
5, 16
12, 29
9, 22
9, 15
20, 24
12, 14
11, 16
17, 30
6, 15
8, 17
6, 20
11, 22
17, 22
8, 27
6, 26
19, 31
10, 26
9, 38
17, 42
23, 55
30, 69
36, 84
35, 68
62, 89
54, 74
56, 92
50, 70
47, 77
43, 45
36, 42
20, 22
23, 24
25, 18
14, 25
26, 25
29, 36
50, 63
91, 109
156, 182
288, 326
413, 630
696, 961
1064, 1320
1343, 1814
1743, 2198
2040, 2314
2094, 2413
2027, 2355
1878, 2053
1600, 1585
1194, 1208
779, 790
561, 501
363, 264
168, 137
103, 82
58, 46
29, 31
15, 47
10, 26
13, 26
9, 16
8, 34
13, 34
20, 26
35, 33
33, 71
68, 79
101, 135
136, 171
173, 212
227, 314
271, 328
313, 368
336, 339
316, 323
302, 309
238, 226
182, 175
121, 83
78, 62
40, 31
36, 27
18, 9
12, 6
5, 10
7, 5
4, 5
10, 12
7, 11
9, 20
12, 11
20, 18
19, 17
15, 19
11, 8
10, 14
11, 10
10, 3
10, 5
4, 10
7, 8
2, 9
8, 2
1, 6
0, 6
3, 8
1, 3
6, 7
1, 3
1, 3
1, 5
1, 6
1, 4
3, 6
5, 10
5, 2
2, 3
6, 5
5, 3
9, 4
3, 5
3, 2
6, 4
3, 4
2, 7
6, 4
6, 6
3, 3
7, 5
2, 4
4, 5
3, 6
2, 4
1, 5
0, 2
2, 3
3, 5
4, 3
2, 6
5, 5
7, 4
5, 6
2, 5
3, 2
1, 5
0, 5
2, 3
1, 2
5, 4
2, 1
2, 4
5, 6
5, 8
5, 5
3, 3
2, 1
6, 4
2, 6
5, 6
4, 6
11, 6
14, 6
15, 6
14, 4
14, 1
13, 3
17, 5
18, 5
17, 5
10, 4
13, 8
11, 8
7, 13
5, 6
3, 9
3, 10
3, 11
3, 7
1, 2
6, 7
2, 9
6, 3
1, 2
4, 2
3, 3
1, 2
6, 1
2, 5
2, 2
5, 2
2, 1
6, 6
0, 4
6, 5
2, 1
3, 3
4, 3
4, 7
5, 3
4, 7
8, 4
8, 2
3, 7
0, 3
6, 5
11, 3
6, 3
6, 2
1, 6
5, 6
5, 3
4, 1
10, 1
5, 1
1, 4
6, 3
7, 1
5, 0
4, 1
4, 1
4, 4
1, 3
3, 3
5, 1
0, 5
5, 1
1, 3
4, 2
5, 3
7, 3
3, 3
2, 4
2, 3
4, 2
3, 2
3, 3
2, 1
3, 9
2, 2
3, 3
2, 3
4, 4
3, 3
0, 4
3, 1
2, 0
0, 7
0, 4
3, 3
0, 5
0, 3
2, 2
4, 2
2, 5
4, 1
0, 3
2, 2
2, 2
4, 2
1, 4
1, 1
2, 1
1, 2
0, 1
0, 4
3, 6
0, 3
4, 5
0, 3
3, 1
0, 9
3, 7
1, 6
1, 7
2, 2
1, 6
0, 5
3, 8
1, 3
3, 3
3, 3
3, 1
2, 0
2, 0
1, 3
3, 1
3, 3
3, 4
3, 0
5, 3
2, 2
0, 3
1, 0
0, 1
1, 1
1, 3
1, 1
3, 0
2, 2
3, 1
2, 1
5, 0
1, 5
4, 3
0, 0
4, 0
1, 4
3, 5
2, 3
1, 3
1, 5
3, 2
3, 6
4, 5
5, 2
4, 4
9, 6
6, 2
1, 4
6, 4
0, 2
1, 1
4, 2
3, 0
1, 4
3, 3
2, 0
0, 1
2, 0
0, 3
2, 0
1, 0
2, 0
1, 2
0, 1
1, 0
2, 0
1, 2
1, 1
0, 2
2, 3
1, 2
2, 1
1, 2
3, 1
4, 0
2, 1
3, 4
2, 1
2, 0
0, 4
0, 0
2, 1
2, 2
0, 0
0, 0
2, 2
3, 2
0, 0
0, 0
0, 3
1, 1
1, 2
1, 0
1, 1
2, 0
0, 3
2, 0
2, 2
3, 2
1, 0
1, 2
0, 1
0, 2
1, 2
3, 2
2, 0
1, 0
3, 1
0, 1
0, 0
0, 2
0, 3
1, 1
0, 2
0, 2
0, 0
0, 1
2, 1
0, 2
1, 2
0, 0
1, 3
0, 0
1, 0
0, 1
1, 0
0, 0
1, 1
0, 0
0, 0
0, 0
0, 1
2, 1
0, 1
0, 0
1, 0
0, 0
0, 1
1, 2
0, 1
1, 1
1, 1
0, 1
0, 0
1, 1
0, 1
0, 0
1, 0
0, 0
0, 1
1, 0
0, 0
1, 1
1, 0
0, 0
0, 0
0, 0
0, 0
0, 0
1, 1
1, 0
0, 1
0, 1
0, 0
0, 0
0, 0
0, 1
0, 0
0, 1
0, 1
0, 1
0, 0
0, 0
0, 1
0, 1
0, 1
0, 1
0, 0
0, 0
0, 0
1, 2
0, 1
1, 0
0, 0
0, 0
0, 0
0, 0
0, 0
0, 1
0, 0
0, 0
0, 0
0, 1
0, 0
0, 3
0, 1
2, 1
0, 1
1, 0
0, 0
0, 0
0, 0
0, 0
0, 1
0, 1
1, 0
0, 0
0, 0
1, 1
1, 0
0, 1
0, 0
1, 0
0, 0
1, 0
1, 0
0, 0
0, 1
1, 0
0, 0
0, 0
0, 0
0, 1
1, 0
0, 0
1, 0
0, 0
1, 0
1, 0
0, 0
1, 1
2, 1
0, 0
0, 0
0, 0
0, 0
0, 0
0, 0
0, 1
0, 0
0, 0
0, 0
0, 0
1, 1
0, 0
1, 0
0, 0
0, 0
0, 0
1, 2
0, 1
1, 0
1, 0
0, 0
0, 1
0, 0
0, 0
0, 0
0, 1
0, 0
0, 0
1, 0
0, 1
1, 0
0, 1
0, 2
1, 0
0, 0
0, 0
0, 0
0, 0
1, 0
0, 1
0, 2
0, 0
0, 0
1, 0
0, 0
0, 0
0, 0
0, 1
0, 0
0, 0
0, 0
2, 0
0, 1
1, 0
0, 0
0, 0
0, 0
0, 0
0, 0
1, 0
0, 0
0, 0
0, 0
0, 0
0, 0
1, 0
1, 0
1, 0
1, 0
0, 0
0, 0
0, 0
0, 1
0, 0
0, 0
0, 0
0, 0
0, 0
0, 0
0, 0
0, 0
0, 0
0, 0
0, 1
0, 0
0, 0
1, 0
0, 1
0, 0
0, 0
1, 0
1, 0
0, 0
0, 0
0, 0
0, 0
0, 0
0, 1
0, 0
0, 0
0, 0
1, 0
1, 0
1, 0
0, 0
0, 0
0, 0
0, 0
0, 0
0, 0
0, 0
1, 0
0, 0
0, 0
0, 0
0, 0
0, 0
0, 0
0, 0
1, 0
0, 0
0, 1
3, 0
0, 2
0, 0
1, 0
1, 1
0, 1
0, 0
0, 0
0, 0
2, 0
1, 0
0, 0
0, 0
0, 0
0, 0
0, 0
0, 0
1, 0
0, 0
0, 0
0, 0
0, 0
0, 0
0, 0
0, 0
0, 0
0, 0
0, 0
0, 0
0, 0
0, 0
0, 1
0, 1
0, 0
0, 1
0, 0
0, 1
0, 0
0, 0
0, 0
0, 0
0, 0
1, 1
0, 0
0, 0
0, 0
0, 0
0, 0
0, 0
0, 0
1, 0
0, 0
0, 0
0, 0
0, 0
0, 1
0, 0
0, 0
0, 0
0, 0
1, 0
0, 0
0, 0
0, 0
0, 0
0, 0
0, 0
0, 0
0, 0
0, 0
0, 0
0, 0
0, 0
0, 0
0, 0
0, 0
0, 0
1, 0
0, 0
0, 0
0, 0
0, 0
0, 0
0, 0
0, 0
0, 0
0, 0
0, 0
0, 0
0, 0
0, 0
0, 0
0, 0
0, 0
0, 0
0, 0
0, 0
0, 0
0, 0
0, 0
0, 0
0, 0
0, 0
0, 0
0, 0
0, 0
0, 1
0, 0
0, 0
1, 0
0, 0
0, 0
0, 0
0, 0
0, 0
0, 0
0, 0
0, 0
0, 0
0, 0
0, 0
0, 0
0, 0
0, 0
0, 0
0, 0
0, 0
0, 0
0, 0
1, 0
0, 0
0, 0
0, 0
0, 0
0, 0
0, 0
0, 0
0, 0
0, 0
0, 0
0, 0
0, 0
0, 0
0, 0
0, 0
0, 0
0, 0
0, 0
0, 0
0, 0
0, 0
0, 0
0, 0
0, 0
0, 0
0, 0
0, 0
0, 0
0, 0
0, 0
0, 0
0, 0
0, 0
0, 0
0, 0
0, 0
0, 0
0, 0
0, 0
0, 0
0, 0
0, 0
0, 0
0, 0
0, 0
0, 0
0, 0
0, 0
0, 0
0, 0
0, 0
0, 0
0, 0
0, 0
0, 0
0, 0
0, 0
0, 0
0, 0
0, 0
0, 0
0, 0
0, 0
0, 0
0, 0
0, 0
0, 0
0, 0
0, 0
0, 1
0, 0
0, 0
0, 0
0, 0
0, 0
0, 0
0, 0
0, 0
0, 0
0, 0
0, 0
0, 0
0, 0
0, 0
0, 0
0, 0
0, 0
0, 0
0, 0
0, 0
0, 0
0, 0
0, 0
0, 0
0, 0
0, 0
0, 0
0, 0
0, 0
0, 0
0, 0
0, 0
0, 0
0, 0
0, 0
0, 0
0, 0
0, 0
0, 0
0, 0
0, 0
0, 0
0, 0
0, 0
0, 0
0, 0
0, 1
0, 0
0, 0
0, 0
0, 0
0, 0
0, 0
0, 0
0, 0
0, 0
0, 0
0, 0
0, 0
0, 0
0, 0
0, 0
0, 0
0, 0
0, 0
0, 0
0, 0
0, 0
0, 0
0, 0
0, 0
0, 0
0, 0
0, 0
0, 0
0, 0
0, 0
0, 0
0, 0
0, 0
0, 0
0, 0
0, 0
0, 0
0, 0
0, 0
0, 0
0, 0
0, 0
0, 0
0, 0
0, 0
0, 0
0, 0
0, 0
0, 0
0, 0
0, 0
0, 0
0, 0
0, 0
0, 0
0, 0
0, 0
0, 0
0, 0
0, 0
0, 0
0, 0
0, 0
0, 0
0, 0
0, 0
0, 0
0, 0
0, 0
0, 0
0, 0
0, 0
0, 0
0, 0
0, 0
0, 0
0, 0
0, 0
0, 0
0, 0
0, 0
0, 0
0, 0
0, 0
0, 0
0, 0
0, 0
0, 0
0, 0
0, 0
0, 0
0, 0
0, 0
0, 0
0, 0
0, 0
0, 0
0, 0
0, 0
0, 0
0, 0
0, 0
0, 0
0, 0
0, 0
0, 0
0, 0
0, 0
0, 0
0, 0
0, 0
0, 0
0, 0
0, 0
0, 0
0, 0
0, 0
0, 0
0, 0
0, 0
0, 0
0, 0
0, 0
0, 0
0, 0
0, 0
0, 0
0, 0
0, 0
0, 0
0, 0
0, 0
0, 0
0, 0
0, 0
0, 0
0, 0
0, 0
0, 0
0, 0
0, 0
0, 0
0, 0
0, 0
0, 0
0, 0
0, 0
0, 0
0, 0
0, 0
0, 0
0, 0
0, 0
0, 0
0, 0
0, 0
0, 0
0, 0
0, 0
0, 0
0, 0
0, 0
0, 0
0, 0
0, 0
0, 0
0, 0
0, 0
0, 0
0, 0
0, 0
0, 0
0, 0
0, 0
0, 0
0, 0
0, 0
0, 0
0, 0
0, 0
0, 0
0, 0
0, 0
0, 0
0, 0
0, 0
0, 0
0, 0
0, 0
0, 0
0, 0
0, 0
0, 0
0, 0
0, 0
0, 0
0, 0
0, 0
0, 0
0, 0
0, 0
0, 0
0, 0
0, 0
0, 0
0, 0
0, 0
0, 0
0, 0
0, 0
0, 0
0, 0
0, 0
0, 0
0, 0
0, 0
0, 0
0, 0
0, 0
0, 0
0, 0
0, 0
0, 0
0, 0
0, 0
0, 0
0, 0
0, 0
0, 0
0, 0
0, 0
0, 0
0, 0
0, 0
0, 0
0, 0
0, 0
0, 0
0, 0
0, 0
0, 0
0, 0
0, 0
0, 0
0, 0
0, 0
0, 0
0, 0
0, 0
0, 0
0, 0
0, 0
0, 0
0, 0
0, 0
0, 0
0, 0
0, 0
0, 0
0, 0
0, 0
0, 0
0, 0
0, 0
0, 0
0, 0
#ENDOFDATA     end of spectrum data