File: host_upload/06-09-2024/ps_0852/dump3/ps__0852shot_2418.msa
#FORMAT      : EMSA/MAS spectral data file
#VERSION     : TC202v2.0 PIXL
#TITLE       : N/A
#DATE        :       Date in the format DD-MMM-YYYY, for example 07-JUL-2010
#TIME        :             The time of day at which the spectrum was recorded, in 24-hour format
#OWNER       : PIXL Flight Model       (PIXL will use this to indicate which instrument took the data.)
#NPOINTS     : 4096     Number of data points in the spectrum (This can be zero for configuration only files)
#NCOLUMNS    : 2     Number of data columns in the spectrum (This can be zero for configuration only files)
#XUNITS      : eV
#YUNITS      : COUNTS
#DATATYPE    : YY
#XPERCHAN    : 7.862, 7.881   eV per channel (separate by commas if more than one detector)
#OFFSET      : 18.5, -22.4         eV of first channel  (separate by commas if more than one detector
#SIGNALTYPE  : XRF
#YP_TEMP     : 2.428
#LIVETIME    : 8.58189, 8.57189   seconds (separate by commas if more than one detector)
#REALTIME    : 10, 10.0   seconds (separate by commas if more than one detector)
#SPECTRUM    : start of spectrum data
0, 0
0, 0
0, 0
0, 0
0, 0
0, 0
0, 0
0, 0
0, 0
0, 0
0, 0
0, 0
0, 0
0, 0
0, 0
0, 0
0, 0
0, 0
0, 0
0, 0
0, 0
0, 0
0, 0
0, 0
0, 0
0, 0
0, 0
0, 0
0, 1
0, 0
0, 0
0, 0
0, 0
0, 0
0, 0
0, 0
0, 0
0, 0
0, 0
1, 1
0, 0
0, 1
3, 0
4, 1
1, 2
1, 4
3, 2
2, 1
8, 4
7, 10
27, 23
55, 44
52, 58
90, 76
86, 86
86, 87
60, 84
48, 47
20, 25
13, 12
8, 3
5, 6
3, 2
3, 6
3, 1
3, 3
5, 4
3, 9
26, 28
49, 56
110, 88
156, 172
275, 268
339, 357
430, 426
421, 398
366, 370
301, 284
232, 170
134, 126
66, 63
39, 33
19, 15
8, 6
4, 2
4, 2
0, 2
1, 0
1, 2
2, 1
1, 1
0, 0
0, 1
1, 0
1, 0
1, 0
1, 0
2, 1
0, 2
4, 3
2, 3
1, 0
1, 2
1, 0
4, 2
2, 0
1, 2
3, 2
6, 6
8, 4
15, 8
18, 7
25, 20
27, 16
34, 23
31, 24
29, 24
33, 20
35, 10
29, 18
27, 17
20, 20
35, 9
29, 11
27, 11
35, 10
23, 9
20, 7
9, 3
13, 2
9, 4
6, 5
2, 2
0, 1
1, 3
1, 5
1, 1
0, 1
2, 2
3, 1
2, 0
1, 0
0, 2
1, 2
1, 1
2, 1
0, 5
3, 1
1, 3
1, 0
4, 5
5, 5
5, 8
6, 9
9, 15
14, 13
15, 14
14, 18
14, 19
14, 18
15, 15
11, 17
4, 8
2, 6
3, 5
4, 5
5, 4
4, 3
8, 4
8, 3
7, 3
10, 10
7, 3
8, 3
8, 7
8, 2
8, 9
8, 4
13, 1
15, 3
23, 2
37, 6
55, 1
73, 0
94, 4
110, 4
117, 1
106, 0
76, 3
54, 7
30, 5
32, 10
24, 7
16, 6
17, 10
20, 11
10, 19
16, 11
6, 7
11, 13
11, 18
8, 16
12, 10
4, 7
5, 5
3, 3
3, 5
5, 3
8, 4
3, 5
3, 8
6, 5
6, 10
3, 14
10, 12
4, 9
5, 18
1, 13
4, 17
4, 14
2, 12
2, 13
7, 13
10, 11
6, 10
9, 9
12, 12
6, 16
8, 14
14, 24
11, 18
10, 16
14, 20
16, 25
20, 24
25, 22
24, 13
28, 11
41, 9
38, 10
62, 17
54, 7
62, 7
87, 14
95, 12
124, 12
154, 38
165, 34
182, 43
154, 60
137, 65
133, 56
111, 65
87, 45
53, 44
31, 24
30, 21
17, 19
19, 13
21, 10
22, 11
30, 30
39, 48
77, 102
149, 173
284, 363
446, 593
778, 919
1084, 1374
1519, 1851
1977, 2062
2209, 2368
2312, 2532
2372, 2311
2083, 1973
1739, 1568
1224, 1134
892, 728
559, 425
359, 245
188, 158
88, 97
37, 49
32, 39
19, 27
10, 28
16, 26
13, 24
13, 32
20, 40
28, 37
25, 47
39, 61
56, 75
101, 124
143, 169
210, 242
251, 301
307, 345
354, 332
333, 329
334, 328
339, 277
270, 239
193, 172
131, 101
103, 77
61, 47
26, 16
29, 13
22, 8
19, 16
20, 6
11, 14
9, 14
20, 11
11, 8
8, 14
18, 9
12, 5
19, 7
10, 8
8, 7
7, 5
8, 6
6, 3
2, 3
5, 7
1, 4
2, 3
2, 2
1, 5
4, 2
0, 2
6, 6
2, 4
1, 2
7, 1
4, 4
4, 6
7, 2
0, 3
1, 4
6, 6
7, 7
2, 4
1, 3
7, 4
5, 4
9, 9
6, 9
6, 2
8, 8
4, 7
10, 13
4, 8
7, 12
4, 17
5, 15
2, 21
5, 16
8, 22
14, 27
9, 21
12, 22
13, 18
14, 14
16, 5
14, 9
26, 7
17, 15
16, 7
13, 10
16, 22
9, 15
13, 8
8, 25
7, 18
3, 26
1, 18
6, 13
3, 20
3, 12
4, 2
4, 8
5, 6
2, 4
3, 5
0, 3
5, 6
2, 1
1, 2
3, 2
5, 3
4, 3
4, 1
3, 1
2, 6
5, 6
2, 2
4, 3
2, 6
3, 3
4, 4
2, 2
3, 1
3, 3
1, 4
1, 4
2, 3
1, 6
2, 3
5, 3
6, 1
4, 6
2, 4
0, 1
2, 7
2, 4
1, 5
3, 3
3, 4
3, 4
6, 4
6, 4
12, 5
6, 10
10, 10
9, 5
9, 12
11, 8
9, 19
10, 19
11, 17
7, 18
6, 20
4, 19
6, 13
5, 8
4, 8
5, 8
4, 6
4, 4
1, 4
4, 4
5, 3
2, 1
3, 1
3, 5
1, 6
5, 2
1, 2
2, 1
4, 3
3, 5
1, 3
3, 2
2, 2
2, 4
2, 1
0, 2
3, 3
1, 2
0, 2
2, 3
3, 1
1, 2
3, 2
2, 1
2, 3
1, 6
0, 2
1, 2
4, 1
2, 1
5, 3
3, 3
3, 2
5, 2
2, 2
4, 1
1, 3
2, 3
3, 2
8, 3
3, 3
2, 1
2, 2
2, 4
6, 2
4, 1
4, 2
5, 1
0, 3
1, 0
3, 2
4, 0
0, 2
4, 3
0, 4
3, 4
2, 1
1, 6
1, 2
6, 2
0, 0
4, 2
0, 5
2, 2
0, 2
2, 0
2, 5
2, 3
2, 2
2, 1
1, 0
2, 3
5, 2
5, 2
3, 4
3, 1
5, 2
2, 1
2, 0
3, 4
1, 2
0, 1
1, 5
1, 1
4, 2
3, 0
3, 2
2, 1
4, 1
1, 3
2, 3
5, 5
3, 1
1, 3
3, 3
5, 2
4, 2
3, 3
5, 3
3, 4
3, 2
5, 3
4, 3
5, 4
3, 4
2, 0
3, 2
5, 1
4, 2
0, 2
9, 0
2, 0
3, 2
2, 0
3, 0
2, 3
5, 1
4, 1
1, 1
1, 2
2, 2
2, 1
1, 4
0, 2
2, 2
1, 0
1, 2
4, 2
0, 1
0, 1
4, 2
0, 1
1, 1
1, 2
1, 1
1, 2
2, 2
1, 2
0, 1
1, 1
1, 3
2, 0
1, 1
0, 1
1, 0
0, 1
0, 1
1, 0
1, 0
2, 1
0, 1
1, 2
0, 0
0, 3
2, 1
3, 2
0, 1
1, 0
1, 0
0, 1
0, 2
2, 1
0, 2
1, 1
2, 0
0, 1
0, 0
2, 0
1, 0
0, 1
1, 0
1, 0
0, 0
0, 1
0, 1
1, 1
0, 1
1, 0
0, 0
1, 2
0, 1
0, 2
1, 0
0, 1
1, 0
0, 0
0, 1
1, 3
0, 0
0, 0
0, 0
1, 2
0, 0
0, 0
0, 0
0, 2
0, 0
0, 0
0, 1
0, 1
1, 0
0, 0
0, 2
0, 0
2, 2
0, 1
0, 2
1, 0
0, 0
0, 0
0, 0
1, 0
0, 0
2, 0
0, 0
1, 0
0, 1
0, 0
1, 1
2, 2
1, 2
1, 1
0, 0
1, 0
0, 2
0, 0
1, 0
0, 3
0, 0
1, 1
0, 0
0, 0
1, 2
1, 0
1, 0
0, 0
0, 0
1, 1
0, 0
0, 1
0, 1
0, 0
0, 1
0, 0
0, 0
0, 0
0, 1
1, 0
1, 0
0, 0
0, 0
0, 0
0, 1
0, 1
1, 0
0, 1
0, 0
0, 0
0, 1
0, 0
0, 0
0, 0
2, 0
1, 0
0, 1
0, 0
1, 0
0, 1
1, 1
0, 0
0, 0
1, 0
0, 0
0, 0
0, 0
0, 2
1, 0
1, 0
0, 0
1, 0
1, 0
0, 0
0, 0
2, 2
0, 1
0, 1
1, 0
0, 0
0, 1
1, 0
0, 0
1, 0
0, 0
0, 0
0, 2
1, 0
1, 0
0, 1
0, 0
0, 1
0, 0
0, 0
0, 0
0, 0
0, 0
0, 0
1, 0
0, 1
0, 0
0, 0
0, 0
0, 0
0, 0
1, 0
1, 1
0, 0
0, 0
1, 0
0, 0
1, 0
0, 0
0, 0
0, 0
1, 0
0, 0
0, 0
0, 1
0, 0
0, 0
0, 1
0, 0
0, 0
0, 2
1, 0
0, 1
0, 0
1, 0
0, 0
0, 1
0, 0
0, 0
0, 0
0, 0
0, 1
0, 0
0, 0
1, 0
0, 0
0, 1
0, 0
0, 0
0, 0
0, 0
0, 0
0, 0
0, 0
0, 0
0, 1
0, 1
0, 0
0, 0
0, 3
0, 0
0, 0
0, 0
0, 0
0, 0
0, 0
0, 0
0, 0
1, 1
0, 0
1, 0
0, 0
0, 0
0, 0
0, 1
0, 0
0, 0
0, 0
0, 0
1, 1
0, 0
0, 1
0, 0
0, 1
0, 0
0, 0
0, 1
0, 0
0, 0
0, 0
0, 0
0, 0
0, 0
0, 0
0, 0
0, 0
0, 0
0, 0
0, 0
1, 0
0, 0
0, 0
0, 0
0, 0
0, 0
0, 0
0, 0
1, 0
1, 1
0, 1
0, 0
0, 0
0, 0
0, 0
0, 0
0, 0
0, 1
0, 0
0, 1
1, 0
0, 0
0, 0
0, 0
0, 0
0, 0
0, 0
1, 0
0, 0
0, 0
0, 0
0, 0
0, 0
0, 0
0, 0
0, 0
0, 0
0, 0
0, 0
0, 0
0, 0
0, 0
0, 0
0, 0
0, 0
0, 0
0, 0
0, 0
0, 0
0, 0
0, 0
0, 0
0, 0
0, 0
0, 0
1, 0
0, 0
0, 0
0, 0
0, 0
0, 0
0, 0
0, 0
0, 0
0, 0
0, 0
0, 0
0, 0
0, 0
0, 0
0, 0
0, 0
0, 0
1, 0
1, 0
0, 0
0, 0
0, 0
0, 0
0, 0
0, 0
0, 0
0, 0
0, 0
0, 0
0, 1
0, 0
0, 0
0, 0
0, 1
0, 0
0, 0
1, 0
0, 0
0, 0
0, 0
0, 0
0, 0
0, 0
0, 0
0, 0
0, 0
0, 0
0, 0
0, 0
0, 0
0, 0
0, 0
0, 0
0, 0
0, 0
0, 0
0, 0
0, 0
0, 0
0, 0
1, 0
0, 0
0, 0
0, 0
0, 0
0, 1
0, 0
0, 0
0, 0
0, 0
0, 0
0, 0
0, 0
0, 0
0, 0
0, 0
0, 0
0, 0
0, 0
0, 0
0, 0
0, 0
0, 0
0, 0
0, 0
0, 0
0, 0
0, 0
0, 0
0, 0
0, 0
0, 0
0, 0
0, 0
0, 0
0, 0
0, 0
0, 0
0, 0
0, 0
0, 0
0, 0
0, 0
0, 0
0, 0
0, 0
0, 0
0, 0
0, 0
0, 0
0, 0
0, 0
0, 0
0, 0
0, 0
0, 0
0, 0
0, 0
0, 0
0, 0
0, 0
0, 0
0, 0
0, 0
0, 0
0, 0
0, 0
0, 0
0, 0
0, 0
0, 0
0, 0
0, 0
0, 0
0, 0
0, 0
0, 0
0, 0
0, 0
0, 0
0, 0
0, 0
0, 0
0, 0
0, 0
0, 0
0, 0
0, 0
0, 0
0, 0
0, 0
0, 0
0, 0
0, 0
0, 0
0, 0
0, 0
0, 0
0, 0
0, 0
0, 0
0, 0
0, 0
0, 0
0, 0
0, 0
0, 0
0, 0
0, 0
0, 0
0, 0
0, 0
0, 0
0, 0
0, 0
0, 0
0, 0
0, 0
0, 0
0, 0
0, 0
0, 0
0, 0
0, 0
0, 0
0, 0
0, 0
0, 0
0, 0
0, 0
0, 0
0, 0
0, 0
0, 0
0, 0
0, 0
0, 0
0, 0
0, 0
0, 0
0, 0
0, 0
0, 0
0, 0
0, 0
0, 0
0, 0
0, 0
0, 0
0, 0
0, 0
0, 0
0, 0
0, 0
0, 0
0, 0
0, 0
0, 0
0, 0
0, 0
0, 0
0, 0
0, 0
0, 0
0, 0
0, 0
0, 0
0, 0
0, 0
0, 0
0, 0
0, 0
0, 0
0, 0
0, 0
0, 0
0, 0
0, 0
0, 0
0, 0
0, 0
0, 0
0, 0
0, 0
0, 0
0, 0
0, 0
0, 0
0, 0
0, 0
0, 0
0, 0
0, 0
0, 0
0, 0
0, 0
0, 0
0, 0
0, 0
0, 0
0, 0
0, 0
0, 0
0, 0
0, 0
0, 0
0, 0
0, 0
0, 0
0, 0
0, 0
0, 0
0, 0
0, 0
0, 0
0, 0
0, 0
0, 0
0, 0
0, 0
0, 0
0, 0
0, 0
0, 0
0, 0
0, 0
0, 0
0, 0
0, 0
0, 0
0, 0
0, 0
0, 0
0, 0
0, 0
0, 0
0, 0
0, 0
0, 0
0, 0
0, 0
0, 0
0, 0
0, 0
0, 0
0, 0
0, 0
0, 0
0, 0
0, 0
0, 0
0, 0
0, 0
0, 0
0, 0
0, 0
0, 0
0, 0
0, 0
0, 0
0, 0
0, 0
0, 0
0, 0
0, 0
0, 0
0, 0
0, 0
0, 0
0, 0
0, 0
0, 0
0, 0
0, 0
0, 0
0, 0
0, 0
0, 0
0, 0
0, 0
0, 0
0, 0
0, 0
0, 0
0, 0
0, 0
0, 0
0, 0
0, 0
0, 0
0, 0
0, 0
0, 0
0, 0
0, 0
0, 0
0, 0
0, 0
0, 0
0, 0
0, 0
0, 0
0, 0
0, 0
0, 0
0, 0
0, 0
0, 0
0, 0
0, 0
0, 0
0, 0
0, 0
0, 0
0, 0
0, 0
0, 0
0, 0
0, 0
0, 0
0, 0
0, 0
0, 0
0, 0
0, 0
0, 0
0, 0
0, 0
0, 0
0, 0
0, 0
0, 0
0, 0
0, 0
0, 0
0, 0
0, 0
0, 0
0, 0
0, 0
0, 0
0, 0
0, 0
0, 0
0, 0
0, 0
0, 0
0, 0
0, 0
0, 0
0, 0
0, 0
0, 0
0, 0
0, 0
0, 0
0, 0
0, 0
0, 0
0, 0
0, 0
0, 0
0, 0
0, 0
0, 0
0, 0
0, 0
0, 0
0, 0
0, 0
0, 0
0, 0
0, 0
0, 0
0, 0
0, 0
0, 0
0, 0
0, 0
0, 0
0, 0
0, 0
0, 0
0, 0
0, 0
0, 0
0, 0
0, 0
0, 0
0, 0
0, 0
0, 0
0, 0
0, 0
0, 0
0, 0
0, 0
0, 0
0, 0
0, 0
0, 0
0, 0
0, 0
0, 0
#ENDOFDATA     end of spectrum data