File: host_upload/06-09-2024/ps_0852/dump3/ps__0852shot_2429.msa
#FORMAT      : EMSA/MAS spectral data file
#VERSION     : TC202v2.0 PIXL
#TITLE       : N/A
#DATE        :       Date in the format DD-MMM-YYYY, for example 07-JUL-2010
#TIME        :             The time of day at which the spectrum was recorded, in 24-hour format
#OWNER       : PIXL Flight Model       (PIXL will use this to indicate which instrument took the data.)
#NPOINTS     : 4096     Number of data points in the spectrum (This can be zero for configuration only files)
#NCOLUMNS    : 2     Number of data columns in the spectrum (This can be zero for configuration only files)
#XUNITS      : eV
#YUNITS      : COUNTS
#DATATYPE    : YY
#XPERCHAN    : 7.862, 7.881   eV per channel (separate by commas if more than one detector)
#OFFSET      : 18.5, -22.4         eV of first channel  (separate by commas if more than one detector
#SIGNALTYPE  : XRF
#YP_TEMP     : 2.46
#LIVETIME    : 8.55616, 8.54991   seconds (separate by commas if more than one detector)
#REALTIME    : 10, 10.0   seconds (separate by commas if more than one detector)
#SPECTRUM    : start of spectrum data
0, 0
0, 0
0, 0
0, 0
0, 0
0, 0
0, 0
0, 0
0, 0
0, 0
0, 0
0, 0
0, 0
0, 0
0, 0
0, 0
0, 0
0, 0
0, 0
0, 0
0, 0
0, 0
0, 0
0, 0
0, 0
0, 0
0, 0
0, 0
0, 0
0, 0
0, 0
0, 0
0, 0
0, 1
0, 0
0, 1
1, 0
1, 0
0, 1
1, 2
2, 1
0, 1
1, 1
0, 0
0, 1
0, 1
1, 2
0, 2
6, 10
22, 7
25, 19
56, 40
61, 54
71, 58
74, 76
83, 62
49, 46
63, 38
29, 24
17, 9
8, 13
7, 2
1, 3
6, 4
3, 4
1, 4
6, 8
15, 8
16, 26
52, 49
97, 104
179, 186
276, 260
360, 331
450, 390
404, 439
405, 343
287, 276
213, 213
159, 117
58, 56
41, 31
20, 16
4, 7
5, 3
6, 1
2, 1
1, 2
3, 1
4, 0
1, 1
1, 2
4, 1
1, 1
0, 0
1, 2
1, 1
3, 4
2, 2
6, 2
2, 1
6, 4
6, 1
2, 2
3, 1
1, 3
5, 7
9, 3
6, 5
9, 7
15, 14
23, 21
44, 36
55, 27
54, 30
55, 38
61, 29
34, 22
30, 25
28, 22
34, 19
19, 22
25, 15
17, 16
14, 18
14, 12
14, 17
12, 7
9, 5
7, 5
5, 3
3, 3
8, 2
2, 3
2, 2
0, 3
2, 1
2, 4
3, 2
0, 2
0, 0
1, 2
0, 3
2, 3
1, 2
2, 1
3, 4
4, 2
0, 5
6, 8
5, 13
7, 15
12, 22
12, 28
23, 26
28, 27
37, 35
47, 40
41, 34
38, 20
29, 25
18, 17
14, 8
12, 4
8, 5
5, 3
8, 3
6, 4
4, 8
9, 5
6, 9
10, 7
6, 2
17, 4
3, 2
6, 1
2, 3
2, 4
4, 4
3, 4
2, 2
4, 6
0, 0
4, 0
4, 0
2, 2
6, 6
3, 6
4, 2
12, 10
5, 16
9, 12
10, 7
12, 10
14, 14
14, 12
11, 13
9, 14
19, 14
10, 9
14, 12
10, 6
8, 10
11, 4
6, 5
4, 4
4, 6
7, 6
5, 2
6, 4
2, 2
4, 6
7, 4
3, 1
3, 9
7, 1
5, 6
4, 1
5, 4
3, 1
5, 9
6, 4
6, 9
10, 10
13, 6
9, 15
14, 9
18, 16
20, 14
25, 17
37, 18
40, 9
38, 16
38, 6
42, 17
26, 6
21, 2
32, 4
14, 2
8, 7
8, 8
5, 14
6, 14
15, 19
8, 26
21, 31
29, 47
43, 57
40, 66
60, 85
70, 83
78, 76
62, 71
68, 50
67, 42
51, 30
33, 31
31, 13
24, 18
19, 17
24, 19
24, 31
46, 45
89, 99
149, 192
262, 302
464, 532
791, 896
1159, 1266
1559, 1740
2059, 2081
2330, 2263
2465, 2315
2424, 2152
2138, 1860
1768, 1468
1350, 1003
924, 727
573, 416
334, 256
217, 145
104, 60
54, 42
27, 22
19, 14
20, 13
15, 16
14, 10
10, 12
14, 17
22, 19
27, 32
48, 50
71, 68
106, 110
153, 165
192, 206
258, 279
289, 333
351, 362
370, 340
327, 316
319, 240
248, 215
192, 148
148, 81
81, 72
60, 37
35, 23
26, 16
28, 12
20, 12
17, 18
19, 17
22, 11
16, 27
28, 18
27, 20
25, 19
12, 16
12, 10
9, 6
8, 4
6, 6
8, 3
8, 8
3, 6
7, 4
2, 4
7, 1
5, 6
3, 4
6, 6
3, 11
3, 10
2, 7
2, 8
5, 11
7, 11
2, 12
4, 9
9, 12
1, 9
6, 12
4, 4
4, 19
7, 11
12, 11
5, 5
5, 10
9, 10
5, 3
5, 13
4, 10
10, 5
1, 8
2, 9
6, 6
1, 6
3, 3
7, 6
4, 3
5, 5
2, 8
5, 2
10, 1
4, 3
7, 3
2, 1
2, 4
2, 10
5, 1
3, 4
2, 6
5, 1
12, 7
10, 3
10, 5
10, 2
15, 3
12, 1
13, 3
14, 2
18, 3
14, 4
6, 1
7, 5
7, 2
3, 2
10, 2
5, 1
7, 5
4, 2
7, 2
1, 4
4, 2
6, 3
6, 1
3, 4
3, 5
7, 2
8, 8
7, 6
8, 3
4, 6
2, 2
8, 6
12, 4
5, 3
3, 3
1, 2
3, 2
1, 2
3, 1
1, 3
2, 3
3, 2
0, 3
8, 1
1, 1
1, 1
2, 5
4, 5
4, 1
7, 1
1, 3
1, 2
4, 5
6, 1
1, 0
2, 0
6, 5
6, 4
3, 1
3, 2
1, 1
2, 2
5, 3
3, 4
7, 1
2, 1
1, 3
3, 5
4, 2
2, 1
3, 5
3, 2
2, 1
5, 3
2, 1
3, 3
5, 1
3, 4
6, 6
4, 2
3, 5
5, 5
7, 5
4, 5
2, 8
6, 4
3, 5
2, 7
4, 3
2, 2
3, 1
5, 4
4, 1
2, 0
0, 1
3, 2
3, 1
3, 1
3, 2
2, 2
3, 5
4, 1
2, 4
1, 0
2, 1
1, 2
2, 1
4, 2
0, 4
0, 0
3, 3
3, 0
0, 3
1, 1
1, 1
2, 0
1, 1
1, 1
1, 2
0, 2
1, 3
2, 2
2, 2
4, 2
2, 2
0, 2
1, 2
0, 2
1, 2
1, 9
2, 6
1, 3
2, 5
1, 1
2, 2
4, 3
2, 2
2, 5
1, 3
0, 2
1, 3
0, 1
1, 1
4, 4
4, 2
4, 2
1, 3
1, 0
1, 2
2, 3
4, 3
4, 1
7, 2
2, 3
1, 3
1, 1
2, 2
4, 4
3, 3
1, 0
3, 3
1, 4
4, 5
2, 6
3, 2
1, 2
1, 3
7, 4
5, 4
8, 9
5, 2
1, 5
2, 3
1, 3
3, 3
3, 1
4, 2
0, 3
2, 1
0, 6
3, 1
2, 1
2, 3
1, 3
0, 2
1, 1
0, 1
2, 2
2, 0
1, 3
0, 3
1, 1
2, 1
2, 1
2, 1
0, 2
3, 1
1, 2
2, 1
1, 1
2, 0
1, 0
2, 2
3, 0
0, 1
1, 0
0, 1
1, 4
4, 1
0, 1
2, 2
1, 2
1, 1
0, 6
0, 0
3, 3
2, 0
2, 1
1, 0
1, 1
3, 1
0, 0
1, 2
2, 1
1, 0
3, 0
1, 4
0, 2
0, 1
0, 1
0, 0
2, 1
0, 2
0, 1
4, 1
0, 0
1, 0
2, 0
2, 1
2, 2
1, 0
0, 0
1, 2
0, 0
0, 0
0, 0
2, 2
2, 4
1, 0
1, 1
0, 1
0, 2
2, 0
0, 3
5, 2
1, 2
0, 2
1, 0
0, 1
1, 1
1, 0
2, 0
1, 1
4, 0
0, 0
0, 0
0, 0
0, 1
0, 1
0, 3
3, 1
1, 0
1, 1
1, 1
1, 0
0, 1
1, 1
2, 2
2, 0
0, 0
2, 1
0, 0
2, 0
1, 0
2, 2
0, 1
0, 0
0, 1
1, 0
0, 0
0, 0
0, 1
0, 2
2, 0
0, 0
0, 0
1, 0
1, 1
1, 1
0, 0
0, 0
1, 2
0, 1
0, 0
1, 1
0, 1
0, 1
0, 2
0, 0
0, 1
0, 0
2, 0
0, 0
0, 0
0, 0
1, 0
2, 1
0, 0
0, 0
1, 0
0, 0
0, 0
0, 0
2, 0
0, 1
0, 0
1, 0
0, 1
0, 0
1, 1
1, 0
0, 0
1, 0
0, 1
0, 1
2, 0
1, 0
0, 2
2, 2
0, 0
0, 0
0, 0
1, 0
0, 0
0, 1
0, 0
0, 1
0, 1
1, 0
1, 0
0, 0
0, 0
1, 0
0, 1
0, 1
0, 0
0, 0
0, 2
0, 0
0, 0
0, 0
0, 0
0, 0
0, 0
1, 0
0, 0
0, 0
0, 0
0, 0
0, 0
0, 0
1, 0
0, 0
0, 0
1, 0
0, 0
0, 0
0, 0
0, 0
0, 0
1, 1
1, 0
0, 0
0, 1
0, 1
0, 1
0, 0
0, 0
1, 0
1, 0
0, 0
1, 0
0, 0
0, 0
0, 0
0, 0
0, 0
0, 0
0, 1
0, 0
0, 0
0, 0
1, 1
0, 1
0, 1
0, 0
0, 0
0, 0
0, 0
0, 0
0, 0
1, 1
0, 0
0, 0
0, 0
0, 1
0, 1
1, 0
1, 0
0, 0
0, 0
0, 0
0, 0
0, 0
0, 0
0, 2
0, 0
0, 0
1, 0
0, 0
0, 0
0, 1
0, 0
0, 0
0, 0
3, 1
0, 0
0, 0
0, 1
0, 1
3, 0
0, 0
0, 0
0, 0
0, 0
0, 1
0, 0
0, 0
0, 0
0, 0
1, 0
0, 0
0, 0
0, 0
0, 1
0, 0
0, 0
0, 2
0, 0
1, 0
0, 0
0, 0
0, 0
1, 0
1, 0
1, 2
1, 0
0, 1
0, 0
0, 0
0, 0
0, 0
0, 0
0, 0
0, 1
0, 0
0, 1
0, 0
0, 0
0, 0
1, 0
0, 0
0, 0
0, 0
0, 0
0, 2
0, 0
0, 0
0, 0
0, 0
0, 0
0, 0
0, 0
0, 1
0, 0
0, 0
0, 0
0, 0
0, 0
0, 0
0, 0
0, 1
0, 0
0, 0
0, 0
0, 1
0, 0
0, 0
0, 0
0, 0
0, 0
0, 0
0, 0
0, 0
0, 1
1, 0
0, 0
0, 1
0, 0
0, 0
0, 0
0, 2
1, 1
0, 0
0, 0
0, 0
0, 0
0, 0
0, 0
0, 0
0, 0
0, 0
0, 0
0, 0
0, 0
0, 0
0, 0
0, 0
1, 0
0, 0
0, 0
0, 0
0, 0
0, 0
0, 0
0, 0
0, 0
0, 0
0, 0
0, 0
0, 0
0, 0
0, 0
0, 0
0, 0
0, 0
0, 0
0, 0
0, 0
0, 0
0, 0
0, 0
0, 0
0, 0
0, 0
0, 0
0, 0
0, 0
0, 0
0, 0
0, 0
0, 0
0, 0
1, 0
0, 0
0, 0
0, 0
0, 0
0, 0
0, 0
1, 0
0, 0
0, 0
0, 0
0, 1
0, 1
0, 0
0, 0
0, 0
1, 0
0, 0
0, 0
0, 0
0, 0
0, 0
0, 0
0, 0
0, 0
0, 0
0, 0
0, 0
0, 0
0, 0
0, 0
0, 0
0, 0
0, 0
0, 0
0, 0
0, 0
0, 0
0, 0
0, 0
0, 0
0, 0
0, 0
0, 0
0, 0
0, 0
0, 0
0, 0
0, 0
0, 0
0, 0
0, 0
0, 0
0, 0
0, 0
0, 0
0, 0
0, 1
0, 0
0, 0
0, 0
0, 0
0, 0
0, 0
0, 0
0, 0
0, 0
0, 0
0, 0
0, 0
0, 0
0, 0
0, 0
0, 0
0, 0
0, 0
0, 0
0, 0
0, 0
0, 0
0, 0
0, 0
1, 0
0, 0
0, 0
0, 0
0, 0
0, 0
0, 0
0, 0
0, 0
0, 0
0, 0
0, 0
0, 0
0, 0
0, 0
0, 0
0, 0
0, 0
0, 0
0, 0
0, 0
0, 0
0, 0
0, 0
0, 0
0, 0
0, 0
0, 0
0, 1
0, 0
0, 0
0, 0
0, 0
0, 0
0, 0
0, 0
0, 0
0, 0
0, 0
0, 0
0, 0
0, 0
0, 0
0, 0
0, 0
0, 0
0, 0
0, 0
0, 0
0, 0
0, 0
0, 0
0, 0
0, 0
0, 0
0, 0
0, 0
0, 0
0, 0
0, 0
0, 0
0, 0
0, 0
0, 0
0, 0
0, 0
0, 0
0, 0
0, 0
0, 0
0, 0
0, 0
0, 0
0, 0
0, 0
0, 0
0, 0
0, 0
0, 0
0, 0
0, 0
0, 0
0, 0
0, 0
0, 0
0, 0
0, 0
0, 0
0, 0
0, 0
0, 0
0, 0
0, 0
0, 0
0, 0
0, 0
0, 0
0, 0
0, 0
0, 0
0, 0
0, 0
0, 0
0, 0
0, 0
0, 0
0, 0
0, 0
0, 0
0, 0
0, 0
0, 0
0, 0
0, 0
0, 0
0, 0
0, 0
0, 0
0, 0
0, 0
0, 0
0, 0
0, 0
0, 0
0, 0
0, 0
0, 0
0, 0
0, 0
0, 0
0, 0
0, 0
0, 0
0, 0
0, 0
0, 0
0, 0
0, 0
0, 0
0, 0
0, 0
0, 0
0, 0
0, 0
0, 0
0, 0
0, 0
0, 0
0, 0
0, 0
0, 0
0, 0
0, 0
0, 0
0, 0
0, 0
0, 0
0, 0
0, 0
0, 0
0, 0
0, 0
0, 0
0, 0
0, 0
0, 0
0, 0
0, 0
0, 0
0, 0
0, 0
0, 0
0, 0
0, 0
0, 0
0, 0
0, 0
0, 0
0, 0
0, 0
0, 0
0, 0
0, 0
0, 0
0, 0
0, 0
0, 0
0, 0
0, 0
0, 0
0, 0
0, 0
0, 0
0, 0
0, 0
0, 0
0, 0
0, 0
0, 0
0, 0
0, 0
0, 0
0, 0
0, 0
0, 0
0, 0
0, 0
0, 0
0, 0
0, 0
0, 0
0, 0
0, 0
0, 0
0, 0
0, 0
0, 0
0, 0
0, 0
0, 0
0, 0
0, 0
0, 0
0, 0
0, 0
0, 0
0, 0
0, 0
0, 0
0, 0
0, 0
0, 0
0, 0
0, 0
0, 0
0, 0
0, 0
0, 0
0, 0
0, 0
0, 0
0, 0
0, 0
0, 0
0, 0
0, 0
0, 0
0, 0
0, 0
0, 0
0, 0
0, 0
0, 0
0, 0
0, 0
0, 0
0, 0
0, 0
0, 0
0, 0
0, 0
0, 0
0, 0
0, 0
0, 0
0, 0
0, 0
0, 0
0, 0
0, 0
0, 0
0, 0
0, 0
0, 0
0, 0
0, 0
0, 0
0, 0
0, 0
0, 0
0, 0
0, 0
0, 0
0, 0
0, 0
0, 0
0, 0
0, 0
0, 0
0, 0
0, 0
0, 0
0, 0
0, 0
0, 0
0, 0
0, 0
0, 0
0, 0
0, 0
0, 0
0, 0
0, 0
0, 0
0, 0
0, 0
0, 0
0, 0
0, 0
0, 0
0, 0
0, 0
0, 0
0, 0
0, 0
0, 0
0, 0
0, 0
0, 0
0, 0
0, 0
0, 0
0, 0
0, 0
0, 0
0, 0
0, 0
0, 0
0, 0
0, 0
0, 0
0, 0
0, 0
0, 0
0, 0
0, 0
#ENDOFDATA     end of spectrum data