File: host_upload/06-09-2024/ps_0852/dump3/ps__0852shot_2406.msa
#FORMAT      : EMSA/MAS spectral data file
#VERSION     : TC202v2.0 PIXL
#TITLE       : N/A
#DATE        :       Date in the format DD-MMM-YYYY, for example 07-JUL-2010
#TIME        :             The time of day at which the spectrum was recorded, in 24-hour format
#OWNER       : PIXL Flight Model       (PIXL will use this to indicate which instrument took the data.)
#NPOINTS     : 4096     Number of data points in the spectrum (This can be zero for configuration only files)
#NCOLUMNS    : 2     Number of data columns in the spectrum (This can be zero for configuration only files)
#XUNITS      : eV
#YUNITS      : COUNTS
#DATATYPE    : YY
#XPERCHAN    : 7.862, 7.881   eV per channel (separate by commas if more than one detector)
#OFFSET      : 18.5, -22.4         eV of first channel  (separate by commas if more than one detector
#SIGNALTYPE  : XRF
#YP_TEMP     : 2.524
#LIVETIME    : 8.56934, 8.55911   seconds (separate by commas if more than one detector)
#REALTIME    : 10, 10.0   seconds (separate by commas if more than one detector)
#SPECTRUM    : start of spectrum data
0, 0
0, 0
0, 0
0, 0
0, 0
0, 0
0, 0
0, 0
0, 0
0, 0
0, 0
0, 0
0, 0
0, 0
0, 0
0, 0
0, 0
0, 0
0, 0
0, 0
0, 0
0, 0
0, 0
0, 0
0, 0
0, 0
0, 0
0, 0
0, 0
0, 0
0, 0
0, 0
1, 0
0, 1
0, 1
2, 2
0, 3
1, 2
0, 2
0, 6
0, 3
0, 3
1, 9
1, 6
0, 4
1, 0
0, 4
5, 3
8, 6
11, 13
26, 30
43, 43
51, 56
71, 70
83, 69
72, 88
49, 69
40, 36
26, 19
19, 15
11, 4
5, 5
3, 6
0, 1
3, 5
4, 4
5, 5
11, 13
21, 21
51, 50
92, 91
181, 182
245, 274
348, 365
442, 434
422, 432
390, 349
298, 291
209, 189
109, 116
67, 73
47, 30
25, 17
12, 9
8, 7
5, 3
1, 1
2, 8
3, 3
2, 4
0, 0
1, 1
3, 4
2, 1
2, 3
1, 3
1, 1
5, 7
7, 5
3, 5
3, 2
3, 6
4, 8
3, 14
2, 23
4, 24
5, 33
9, 32
10, 55
20, 81
22, 135
21, 203
26, 313
37, 387
35, 472
32, 515
31, 458
34, 378
25, 299
25, 207
7, 117
24, 61
14, 25
20, 28
16, 10
14, 9
5, 13
14, 10
8, 10
7, 4
2, 6
6, 4
4, 2
1, 4
3, 8
2, 4
1, 3
3, 5
2, 0
1, 1
2, 2
1, 2
1, 2
2, 1
2, 1
1, 0
1, 1
2, 1
5, 5
5, 0
6, 0
5, 6
14, 2
11, 3
12, 10
19, 10
15, 14
16, 13
17, 20
22, 14
21, 12
17, 4
18, 4
20, 6
22, 3
39, 4
64, 3
87, 6
109, 5
139, 4
117, 5
141, 8
121, 4
95, 12
61, 33
41, 48
25, 69
17, 117
12, 168
4, 225
6, 276
3, 268
3, 241
4, 212
5, 169
0, 101
2, 74
5, 43
5, 16
6, 18
8, 16
2, 13
9, 12
11, 13
4, 11
12, 9
12, 17
22, 12
10, 14
11, 17
16, 6
6, 11
10, 9
9, 7
11, 3
8, 8
8, 8
11, 8
6, 4
3, 16
5, 17
5, 9
9, 16
2, 12
3, 12
5, 11
5, 11
2, 11
4, 12
4, 12
2, 6
5, 12
12, 12
3, 9
2, 6
11, 11
12, 12
11, 18
20, 19
7, 16
9, 18
19, 14
18, 12
31, 9
23, 14
27, 12
40, 5
56, 10
62, 11
61, 6
60, 13
70, 9
55, 22
41, 28
44, 37
42, 42
34, 44
34, 83
53, 68
57, 99
50, 82
61, 77
52, 69
54, 52
41, 53
31, 31
30, 14
17, 21
25, 14
21, 16
12, 22
33, 36
37, 57
79, 109
144, 188
267, 319
473, 581
769, 892
1122, 1285
1525, 1644
2070, 2121
2224, 2368
2387, 2396
2325, 2240
2211, 1884
1741, 1503
1422, 999
915, 739
621, 456
363, 234
203, 124
101, 83
62, 35
24, 22
23, 17
15, 13
16, 19
15, 20
14, 16
32, 18
18, 25
35, 43
52, 51
62, 70
109, 116
152, 179
193, 218
237, 279
306, 301
351, 385
357, 362
289, 309
319, 268
247, 225
160, 154
132, 118
80, 60
48, 44
31, 27
19, 23
19, 18
6, 11
7, 26
9, 27
14, 34
17, 32
16, 36
14, 32
16, 31
13, 27
17, 20
9, 15
13, 16
9, 7
10, 9
2, 3
10, 4
1, 9
4, 7
6, 4
4, 6
9, 3
8, 4
5, 7
10, 3
8, 7
6, 6
20, 6
11, 5
11, 8
12, 8
9, 14
8, 10
12, 5
10, 7
4, 5
8, 4
7, 7
4, 4
7, 7
8, 7
10, 3
5, 7
3, 5
4, 5
8, 7
3, 4
4, 4
2, 11
2, 8
1, 12
2, 6
7, 8
3, 8
2, 10
1, 5
4, 7
3, 5
1, 7
6, 7
2, 4
5, 3
4, 7
2, 6
9, 15
8, 10
9, 17
7, 5
6, 14
6, 13
4, 9
2, 16
4, 9
8, 13
4, 6
2, 8
6, 6
1, 8
4, 7
4, 1
3, 1
5, 3
3, 3
3, 8
5, 1
2, 3
6, 2
10, 6
7, 4
6, 5
0, 2
9, 2
6, 3
7, 5
11, 3
4, 3
8, 1
8, 2
3, 1
7, 3
2, 2
5, 3
2, 2
5, 5
3, 3
3, 2
3, 1
7, 2
2, 5
1, 3
2, 4
1, 7
1, 11
2, 8
5, 6
4, 6
1, 7
0, 7
1, 2
3, 8
5, 8
4, 5
1, 5
2, 5
3, 1
2, 5
2, 6
3, 4
2, 2
5, 5
8, 5
3, 3
4, 2
7, 2
6, 8
5, 4
5, 5
10, 6
9, 4
7, 4
8, 4
10, 2
6, 2
7, 2
7, 1
7, 5
3, 3
8, 2
4, 3
3, 1
2, 4
3, 3
3, 1
0, 5
1, 3
7, 5
6, 3
2, 2
0, 2
0, 4
1, 1
4, 2
3, 1
3, 1
2, 0
2, 3
1, 3
5, 2
2, 2
2, 1
4, 1
1, 1
3, 0
3, 2
1, 2
3, 2
0, 1
1, 6
4, 1
1, 3
1, 2
3, 2
2, 7
3, 4
0, 7
0, 4
1, 8
0, 2
2, 9
1, 2
1, 4
3, 5
2, 1
6, 2
5, 2
3, 1
7, 2
7, 0
9, 2
2, 0
3, 3
5, 1
1, 3
3, 2
3, 1
1, 0
0, 1
3, 1
1, 1
2, 0
2, 1
1, 2
3, 2
1, 3
0, 0
4, 0
2, 2
1, 1
3, 1
2, 1
3, 1
2, 1
2, 2
3, 3
1, 2
5, 3
1, 4
4, 3
4, 3
2, 4
2, 6
5, 0
6, 5
4, 7
2, 4
1, 1
4, 1
5, 3
0, 2
1, 1
1, 3
1, 3
1, 1
1, 1
1, 2
1, 3
1, 0
0, 2
0, 2
1, 0
1, 2
0, 1
2, 2
4, 1
4, 1
1, 1
1, 2
2, 2
4, 5
0, 2
3, 2
4, 0
3, 2
4, 1
1, 1
4, 2
2, 0
0, 0
0, 3
2, 2
0, 2
0, 0
1, 1
0, 2
1, 1
3, 0
2, 0
0, 2
1, 0
0, 2
1, 1
1, 1
1, 0
2, 1
1, 0
0, 2
1, 1
0, 2
1, 0
1, 0
0, 1
1, 3
1, 0
2, 1
1, 1
0, 3
2, 1
1, 5
2, 3
0, 1
0, 3
2, 0
0, 5
0, 1
1, 2
0, 0
2, 2
1, 0
1, 4
0, 0
2, 0
1, 3
1, 0
0, 2
0, 1
0, 1
0, 0
0, 1
2, 1
2, 1
2, 1
0, 1
0, 0
0, 0
0, 1
1, 0
0, 1
1, 2
2, 0
2, 0
0, 1
1, 2
1, 0
0, 0
1, 0
0, 1
1, 0
1, 0
0, 0
0, 2
1, 0
2, 0
2, 2
0, 0
0, 2
1, 0
1, 0
1, 1
0, 1
0, 1
0, 1
1, 0
1, 0
0, 0
0, 1
0, 0
2, 1
0, 0
0, 0
0, 1
0, 0
0, 1
0, 0
1, 2
1, 2
0, 0
0, 1
0, 0
1, 0
1, 1
0, 1
1, 0
0, 1
0, 0
0, 0
2, 0
0, 0
1, 0
0, 0
0, 0
0, 0
1, 0
0, 0
4, 0
1, 2
0, 0
0, 1
0, 0
0, 0
1, 0
0, 0
0, 2
0, 0
1, 0
1, 1
0, 1
0, 0
0, 0
0, 1
1, 0
0, 0
2, 0
1, 0
0, 1
0, 1
0, 1
1, 3
0, 2
0, 1
1, 0
0, 0
1, 0
0, 1
0, 0
0, 0
1, 0
0, 0
0, 0
0, 0
0, 0
0, 0
1, 1
0, 1
0, 1
0, 1
0, 0
0, 0
0, 0
0, 1
0, 1
0, 0
0, 2
0, 0
0, 1
0, 0
1, 0
0, 0
0, 0
0, 0
0, 0
0, 0
0, 0
0, 0
0, 0
0, 1
1, 0
0, 0
0, 0
1, 0
0, 0
0, 0
0, 0
1, 1
0, 1
0, 0
1, 0
0, 0
0, 1
0, 1
0, 0
0, 0
0, 0
0, 0
2, 1
0, 0
0, 1
0, 0
0, 0
0, 0
0, 0
0, 0
1, 0
0, 0
2, 1
1, 0
1, 1
2, 0
0, 0
1, 0
0, 1
0, 0
1, 1
0, 0
1, 0
1, 0
0, 0
1, 0
1, 1
0, 0
1, 1
1, 1
1, 0
0, 0
0, 0
1, 0
0, 1
1, 1
1, 0
0, 1
0, 0
0, 0
0, 0
0, 0
0, 0
0, 0
1, 0
0, 0
0, 0
0, 0
0, 0
0, 0
0, 0
0, 1
0, 0
0, 0
0, 0
0, 0
0, 1
0, 0
0, 0
0, 0
0, 1
0, 0
0, 0
0, 0
0, 0
0, 0
0, 0
0, 0
0, 0
0, 0
0, 0
0, 0
0, 0
0, 0
0, 0
0, 0
0, 0
0, 0
0, 0
0, 0
0, 0
0, 0
0, 0
0, 0
0, 1
1, 0
0, 0
0, 0
0, 0
0, 1
0, 0
0, 0
0, 0
0, 0
0, 0
0, 0
0, 0
0, 0
0, 0
0, 0
0, 0
0, 0
0, 0
0, 0
0, 1
0, 0
0, 1
0, 0
0, 0
0, 0
0, 0
0, 0
1, 0
0, 0
0, 1
0, 0
0, 0
0, 0
0, 0
0, 0
0, 0
1, 0
0, 0
0, 0
0, 0
0, 0
0, 1
0, 0
0, 0
0, 0
0, 0
1, 0
0, 0
0, 0
0, 0
0, 0
0, 0
0, 0
0, 0
0, 0
1, 0
0, 0
0, 0
0, 0
0, 0
0, 0
0, 0
0, 0
0, 0
0, 0
0, 0
0, 0
0, 0
0, 0
0, 1
0, 0
0, 0
0, 0
0, 0
0, 0
0, 0
0, 0
0, 0
0, 0
0, 0
0, 0
0, 0
0, 0
0, 0
0, 1
0, 0
0, 0
0, 0
0, 0
0, 0
0, 0
0, 0
0, 1
1, 0
0, 0
0, 0
1, 0
0, 0
0, 0
0, 0
1, 0
0, 0
0, 0
0, 0
0, 0
0, 0
0, 0
0, 0
0, 0
0, 0
0, 0
0, 0
0, 0
0, 0
0, 0
0, 0
0, 0
0, 0
0, 0
0, 0
0, 0
0, 0
0, 0
0, 0
0, 0
0, 0
0, 1
0, 0
0, 1
0, 0
0, 0
0, 0
0, 0
0, 0
0, 0
0, 0
0, 0
0, 0
0, 0
0, 1
0, 0
0, 0
0, 0
0, 0
0, 0
0, 0
0, 0
0, 0
0, 0
0, 0
0, 0
0, 0
0, 0
0, 0
0, 0
0, 0
0, 0
0, 0
0, 0
0, 0
0, 0
0, 0
0, 0
1, 0
0, 0
0, 0
0, 0
0, 0
0, 0
0, 0
0, 0
0, 0
0, 0
0, 0
0, 0
0, 0
0, 0
0, 0
0, 0
0, 0
0, 0
0, 0
0, 0
0, 0
0, 0
0, 0
0, 0
0, 0
0, 0
0, 0
0, 0
0, 0
0, 0
0, 0
0, 0
0, 0
0, 0
0, 0
0, 0
0, 0
0, 0
0, 0
0, 0
0, 0
0, 0
0, 0
0, 0
0, 0
0, 0
0, 0
0, 0
0, 0
0, 0
0, 0
0, 0
0, 0
0, 0
0, 0
0, 0
0, 0
0, 0
0, 0
0, 0
0, 0
0, 0
0, 0
0, 0
0, 0
0, 0
0, 0
0, 0
0, 0
0, 0
0, 0
0, 0
0, 0
0, 0
0, 0
0, 0
0, 0
0, 0
0, 0
0, 0
0, 0
0, 0
0, 0
0, 0
0, 0
0, 0
0, 0
0, 0
0, 0
0, 0
0, 0
0, 0
0, 0
0, 0
0, 0
0, 0
0, 0
0, 0
0, 0
0, 0
0, 0
0, 0
0, 0
0, 0
0, 0
0, 0
0, 0
0, 0
0, 0
0, 0
0, 0
0, 0
0, 0
0, 0
0, 0
0, 0
0, 0
0, 0
0, 0
0, 0
0, 0
0, 0
0, 0
0, 0
0, 0
0, 0
0, 0
0, 0
0, 0
0, 0
0, 0
0, 0
0, 0
0, 0
0, 0
0, 0
0, 0
0, 0
0, 0
0, 0
0, 0
0, 0
0, 0
0, 0
0, 0
0, 0
0, 0
0, 0
0, 0
0, 0
0, 0
0, 0
0, 0
0, 0
0, 0
0, 0
0, 0
0, 0
0, 0
0, 0
0, 0
0, 0
0, 0
0, 0
0, 0
0, 0
0, 0
0, 0
0, 0
0, 0
0, 0
0, 0
0, 0
0, 0
0, 0
0, 0
0, 0
0, 0
0, 0
0, 0
0, 0
0, 0
0, 0
0, 0
0, 0
0, 0
0, 0
0, 0
0, 0
0, 0
0, 0
0, 0
0, 0
0, 0
0, 0
0, 0
0, 0
0, 0
0, 0
0, 0
0, 0
0, 0
0, 0
0, 0
0, 0
0, 0
0, 0
0, 0
0, 0
0, 0
0, 0
0, 0
0, 0
0, 0
0, 0
0, 0
0, 0
0, 0
0, 0
0, 0
0, 0
0, 0
0, 0
0, 0
0, 0
0, 0
0, 0
0, 0
0, 0
0, 0
0, 0
0, 0
0, 0
0, 0
0, 0
0, 0
0, 0
0, 0
0, 0
0, 0
0, 0
0, 0
0, 0
0, 0
0, 0
0, 0
0, 0
0, 0
0, 0
0, 0
0, 0
0, 0
0, 0
0, 0
0, 0
0, 0
0, 0
0, 0
0, 0
0, 0
0, 0
0, 0
0, 0
0, 0
0, 0
0, 0
0, 0
0, 0
0, 0
0, 0
0, 0
0, 0
0, 0
0, 0
0, 0
0, 0
0, 0
0, 0
0, 0
0, 0
0, 0
0, 0
0, 0
0, 0
0, 0
0, 0
0, 0
0, 0
0, 0
0, 0
0, 0
0, 0
0, 0
0, 0
0, 0
0, 0
0, 0
0, 0
0, 0
0, 0
0, 0
0, 0
0, 0
0, 0
0, 0
0, 0
0, 0
0, 0
0, 0
0, 0
0, 0
0, 0
0, 0
0, 0
0, 0
0, 0
0, 0
0, 0
0, 0
0, 0
0, 0
0, 0
0, 0
0, 0
0, 0
0, 0
0, 0
0, 0
0, 0
0, 0
0, 0
0, 0
0, 0
0, 0
0, 0
0, 0
0, 0
0, 0
0, 0
0, 0
0, 0
0, 0
0, 0
0, 0
0, 0
0, 0
0, 0
#ENDOFDATA     end of spectrum data