File: host_upload/06-09-2024/ps_0852/dump3/ps__0852shot_2439.msa
#FORMAT      : EMSA/MAS spectral data file
#VERSION     : TC202v2.0 PIXL
#TITLE       : N/A
#DATE        :       Date in the format DD-MMM-YYYY, for example 07-JUL-2010
#TIME        :             The time of day at which the spectrum was recorded, in 24-hour format
#OWNER       : PIXL Flight Model       (PIXL will use this to indicate which instrument took the data.)
#NPOINTS     : 4096     Number of data points in the spectrum (This can be zero for configuration only files)
#NCOLUMNS    : 2     Number of data columns in the spectrum (This can be zero for configuration only files)
#XUNITS      : eV
#YUNITS      : COUNTS
#DATATYPE    : YY
#XPERCHAN    : 7.862, 7.881   eV per channel (separate by commas if more than one detector)
#OFFSET      : 18.5, -22.4         eV of first channel  (separate by commas if more than one detector
#SIGNALTYPE  : XRF
#YP_TEMP     : 2.043
#LIVETIME    : 8.56263, 8.55723   seconds (separate by commas if more than one detector)
#REALTIME    : 10, 10.0   seconds (separate by commas if more than one detector)
#SPECTRUM    : start of spectrum data
0, 0
0, 0
0, 0
0, 0
0, 0
0, 0
0, 0
0, 0
0, 0
0, 0
0, 0
0, 0
0, 0
0, 0
0, 0
0, 0
0, 0
0, 0
0, 0
0, 0
0, 0
0, 0
0, 0
0, 0
0, 0
0, 0
0, 0
0, 0
0, 0
0, 0
0, 0
0, 0
0, 0
0, 0
0, 0
0, 0
0, 0
0, 1
2, 0
2, 2
2, 1
0, 0
2, 0
1, 0
0, 0
2, 1
2, 2
3, 3
7, 5
10, 14
30, 23
33, 49
54, 59
94, 70
77, 83
92, 74
50, 55
50, 37
32, 25
16, 12
8, 6
5, 3
2, 2
8, 4
4, 4
5, 4
3, 2
11, 5
21, 16
64, 35
72, 97
184, 177
343, 270
378, 343
453, 423
497, 424
435, 377
333, 287
217, 207
125, 105
81, 56
49, 36
15, 17
7, 14
4, 5
9, 3
1, 3
2, 3
2, 0
3, 1
1, 0
0, 0
0, 1
1, 2
3, 3
6, 1
8, 3
3, 2
2, 6
7, 3
5, 7
2, 3
10, 3
3, 6
2, 5
5, 2
6, 3
6, 4
14, 9
14, 18
29, 20
23, 24
43, 41
58, 48
75, 54
80, 55
88, 57
68, 48
44, 40
33, 33
25, 25
25, 17
20, 13
14, 15
16, 17
12, 21
16, 9
16, 15
3, 9
8, 7
15, 2
8, 4
5, 2
8, 1
5, 5
5, 4
5, 3
3, 1
2, 2
2, 2
3, 2
2, 4
3, 5
3, 2
3, 4
3, 2
3, 3
5, 3
5, 4
7, 9
15, 11
26, 19
47, 32
85, 67
98, 68
138, 115
155, 131
171, 116
182, 140
169, 111
140, 104
77, 71
56, 45
41, 18
25, 15
15, 15
15, 8
20, 14
20, 9
27, 21
33, 13
37, 21
37, 17
35, 19
34, 13
41, 6
36, 9
34, 6
33, 7
16, 7
20, 1
13, 6
9, 7
12, 5
7, 4
11, 3
10, 3
6, 4
7, 9
14, 9
11, 19
14, 12
13, 27
16, 19
15, 26
15, 31
12, 42
9, 50
20, 55
13, 59
5, 56
11, 47
9, 62
5, 47
10, 46
8, 41
4, 20
6, 24
6, 16
13, 10
7, 13
9, 5
11, 5
14, 7
9, 4
9, 5
7, 5
10, 9
10, 10
13, 8
8, 8
9, 14
8, 14
4, 8
16, 14
14, 21
32, 19
18, 21
36, 27
32, 43
43, 24
38, 25
38, 25
55, 16
28, 17
40, 16
27, 13
20, 11
24, 7
16, 4
16, 10
19, 8
21, 9
16, 17
17, 23
38, 22
25, 21
39, 30
51, 37
52, 51
63, 42
74, 31
69, 53
54, 50
49, 38
41, 27
25, 29
32, 25
16, 13
16, 20
14, 33
25, 43
40, 63
62, 79
114, 177
232, 301
375, 438
648, 700
1040, 1011
1403, 1375
1653, 1732
1958, 1946
2113, 1975
2107, 1753
1813, 1521
1503, 1227
1177, 876
759, 554
516, 342
318, 208
154, 117
91, 60
53, 28
33, 29
31, 21
30, 15
37, 14
40, 10
48, 25
49, 18
42, 14
57, 32
79, 48
74, 79
116, 75
146, 134
179, 182
206, 234
263, 244
302, 277
290, 294
292, 252
272, 213
217, 173
172, 142
129, 87
83, 58
31, 34
28, 16
19, 11
9, 7
9, 10
11, 6
13, 5
21, 10
15, 12
19, 18
12, 14
21, 12
20, 7
6, 14
20, 7
8, 6
13, 5
11, 9
5, 8
5, 7
3, 3
6, 6
3, 5
9, 1
5, 2
6, 2
8, 15
8, 5
11, 7
5, 7
7, 16
5, 4
4, 4
6, 14
2, 8
12, 6
4, 7
11, 7
15, 6
16, 6
18, 5
21, 5
33, 8
31, 9
41, 6
47, 11
34, 9
29, 5
24, 5
21, 7
16, 8
12, 5
14, 12
14, 17
8, 6
3, 3
2, 6
4, 1
3, 2
3, 4
3, 9
6, 2
5, 5
4, 4
8, 3
8, 7
1, 0
1, 6
4, 7
8, 4
5, 4
4, 3
2, 4
5, 2
1, 3
5, 4
5, 2
4, 5
1, 3
6, 8
2, 3
0, 4
5, 6
6, 6
4, 7
4, 0
5, 5
3, 8
6, 6
1, 2
9, 8
7, 10
2, 11
3, 2
5, 11
1, 4
5, 4
7, 6
5, 6
5, 7
3, 12
6, 2
3, 6
3, 6
1, 4
3, 2
5, 4
3, 5
4, 5
4, 2
6, 2
7, 4
4, 4
5, 3
3, 4
5, 1
3, 1
5, 6
2, 5
4, 3
3, 2
5, 5
4, 0
1, 4
6, 6
4, 3
4, 2
3, 3
4, 2
3, 3
10, 4
5, 4
4, 3
9, 3
3, 1
7, 2
4, 1
2, 4
3, 1
7, 1
2, 4
4, 2
3, 5
5, 3
2, 0
4, 7
5, 2
2, 4
6, 4
6, 3
2, 2
3, 2
5, 5
3, 1
4, 2
3, 0
5, 2
3, 3
7, 3
3, 3
2, 5
8, 1
2, 1
5, 2
4, 2
2, 3
5, 2
2, 2
3, 2
3, 3
5, 5
2, 2
3, 2
2, 5
7, 1
1, 2
1, 1
1, 1
2, 3
1, 4
3, 1
0, 2
2, 0
1, 1
3, 1
0, 4
1, 2
2, 2
2, 1
2, 3
4, 3
1, 3
2, 1
2, 3
3, 3
4, 3
2, 3
3, 2
5, 1
4, 3
4, 2
4, 2
2, 2
2, 2
2, 1
1, 3
0, 1
0, 6
2, 6
3, 2
1, 3
0, 0
2, 2
0, 0
3, 0
3, 1
2, 4
3, 3
3, 2
4, 2
1, 3
3, 2
2, 1
6, 2
2, 0
1, 3
2, 1
0, 1
2, 1
1, 3
2, 3
2, 0
1, 1
3, 2
6, 7
3, 3
1, 0
2, 2
4, 4
8, 1
2, 2
0, 1
2, 3
0, 0
1, 2
1, 0
1, 0
3, 3
3, 4
1, 3
3, 2
1, 3
3, 0
0, 2
0, 1
4, 0
0, 2
0, 1
0, 1
1, 0
1, 3
1, 0
2, 5
5, 0
3, 3
1, 2
5, 2
2, 1
0, 0
1, 1
0, 2
3, 2
2, 3
0, 1
4, 1
1, 0
4, 0
0, 0
4, 0
3, 1
1, 0
1, 2
2, 0
0, 1
2, 0
0, 3
2, 1
0, 0
1, 0
1, 0
1, 0
2, 1
1, 1
0, 1
0, 1
1, 0
3, 0
1, 0
1, 0
0, 1
2, 0
1, 0
2, 0
1, 1
1, 0
2, 0
3, 0
0, 1
1, 0
0, 0
0, 1
1, 0
0, 1
1, 2
2, 0
2, 0
1, 0
0, 2
0, 0
1, 1
1, 1
0, 0
0, 1
1, 1
0, 2
0, 0
2, 0
1, 2
0, 0
0, 1
1, 0
3, 0
1, 0
1, 0
1, 0
3, 0
0, 2
3, 1
2, 0
1, 2
1, 0
1, 0
1, 0
1, 0
0, 0
2, 1
1, 0
0, 2
1, 0
0, 3
0, 1
0, 0
0, 0
1, 1
2, 0
0, 0
1, 2
0, 0
0, 2
0, 0
2, 0
0, 0
2, 1
0, 0
1, 0
0, 0
1, 0
0, 1
0, 0
0, 0
0, 2
1, 2
2, 1
0, 1
1, 1
0, 0
0, 1
1, 1
2, 1
1, 0
0, 1
0, 0
1, 1
1, 0
0, 0
1, 0
1, 1
0, 0
1, 0
1, 2
0, 0
0, 0
0, 0
0, 1
0, 1
0, 0
1, 0
0, 3
0, 1
0, 1
1, 0
0, 0
0, 0
1, 0
1, 0
2, 0
1, 0
0, 0
2, 0
0, 1
0, 1
0, 0
0, 0
0, 1
1, 0
1, 0
1, 0
0, 1
0, 0
0, 1
1, 0
0, 0
0, 0
0, 1
0, 0
0, 0
0, 0
0, 0
0, 1
1, 0
1, 1
0, 0
0, 0
0, 0
1, 0
1, 0
0, 0
0, 0
0, 1
0, 1
0, 0
0, 0
0, 0
1, 0
0, 0
0, 0
0, 0
0, 0
0, 1
0, 1
0, 0
0, 0
0, 0
0, 0
0, 0
0, 0
0, 0
0, 0
1, 0
1, 0
0, 0
0, 0
0, 1
1, 0
0, 0
0, 1
0, 2
0, 0
0, 0
0, 1
0, 0
0, 0
0, 1
0, 1
0, 0
0, 1
0, 0
1, 0
1, 0
1, 0
0, 0
0, 0
0, 0
0, 0
1, 0
0, 0
0, 0
0, 0
0, 0
0, 0
0, 0
0, 0
0, 0
0, 1
0, 0
0, 0
1, 0
0, 0
1, 0
0, 0
0, 0
0, 0
0, 0
0, 0
0, 0
0, 0
0, 0
0, 0
0, 0
0, 0
0, 0
0, 0
0, 0
0, 0
0, 0
0, 0
0, 0
0, 0
1, 0
1, 0
0, 0
0, 0
0, 1
0, 0
0, 0
0, 0
0, 0
0, 1
0, 0
0, 1
0, 0
0, 0
0, 0
0, 0
0, 0
0, 0
0, 0
0, 0
0, 0
0, 1
0, 0
1, 0
0, 0
0, 0
0, 0
0, 0
0, 0
0, 0
0, 0
0, 1
0, 0
1, 0
2, 1
0, 0
1, 0
0, 0
1, 0
1, 0
0, 0
2, 0
0, 0
0, 0
0, 0
0, 0
0, 0
0, 0
0, 0
0, 0
0, 0
0, 0
1, 0
0, 0
0, 0
0, 0
0, 0
0, 0
0, 0
0, 0
1, 0
0, 0
0, 0
0, 0
0, 0
0, 0
0, 1
0, 0
0, 1
0, 0
0, 0
0, 0
0, 0
0, 0
0, 1
0, 0
0, 0
0, 0
0, 0
0, 0
0, 0
0, 0
0, 1
0, 0
0, 0
0, 0
0, 0
0, 0
0, 0
0, 0
0, 0
0, 0
0, 0
0, 0
0, 0
0, 0
0, 0
0, 0
0, 0
0, 0
0, 0
0, 0
0, 0
0, 0
0, 0
0, 0
0, 0
0, 0
0, 0
0, 0
0, 0
0, 0
0, 0
0, 0
0, 0
0, 0
0, 0
0, 0
0, 0
0, 0
0, 0
0, 0
0, 0
0, 0
0, 0
0, 0
0, 0
0, 0
0, 0
0, 0
0, 0
0, 0
0, 0
0, 0
0, 0
0, 0
0, 0
0, 0
0, 0
0, 0
0, 0
0, 0
0, 0
0, 0
0, 0
0, 0
0, 0
0, 0
0, 0
0, 0
0, 0
0, 0
0, 0
0, 0
0, 0
0, 0
0, 0
0, 0
0, 0
0, 0
0, 0
0, 0
0, 0
0, 0
0, 0
0, 0
0, 0
0, 0
0, 0
0, 0
0, 0
0, 0
0, 0
0, 0
0, 0
0, 0
0, 0
0, 0
0, 0
0, 0
0, 0
0, 0
0, 0
0, 0
0, 0
0, 0
0, 0
0, 0
0, 0
0, 0
0, 0
0, 0
0, 0
0, 0
0, 0
0, 0
0, 0
0, 0
0, 0
0, 0
0, 0
0, 0
0, 0
0, 0
0, 0
0, 0
0, 0
0, 0
0, 0
0, 0
0, 0
0, 0
0, 0
0, 0
0, 0
0, 0
0, 0
0, 0
0, 0
0, 0
0, 0
0, 0
0, 0
0, 0
0, 0
0, 0
0, 0
0, 0
0, 0
0, 0
0, 0
0, 0
0, 0
0, 0
0, 0
0, 0
0, 0
0, 0
0, 0
0, 0
0, 0
0, 0
0, 0
0, 0
0, 0
0, 0
0, 0
0, 0
0, 0
0, 0
0, 0
0, 0
0, 0
0, 0
0, 0
0, 0
0, 0
0, 0
0, 0
0, 0
0, 0
0, 0
0, 0
0, 0
0, 0
0, 0
0, 0
0, 0
0, 0
0, 0
0, 0
0, 0
0, 0
0, 0
0, 0
0, 0
0, 0
0, 0
0, 0
0, 0
0, 0
0, 0
0, 0
0, 0
0, 0
0, 0
0, 0
0, 0
0, 0
0, 0
0, 0
0, 0
0, 0
0, 0
0, 0
0, 0
0, 0
0, 0
0, 0
0, 0
0, 0
0, 0
0, 0
0, 0
0, 0
0, 0
0, 0
0, 0
0, 0
0, 0
0, 0
0, 0
0, 0
0, 0
0, 0
0, 0
0, 0
0, 0
0, 0
0, 0
0, 0
0, 0
0, 0
0, 0
0, 0
0, 0
0, 0
0, 0
0, 0
0, 0
0, 0
0, 0
0, 0
0, 0
0, 0
0, 0
0, 0
0, 0
0, 0
0, 0
0, 0
0, 0
0, 0
0, 0
0, 0
0, 0
0, 0
0, 0
0, 0
0, 0
0, 0
0, 0
0, 0
0, 0
0, 0
0, 0
0, 0
0, 0
0, 0
0, 0
0, 0
0, 0
0, 0
0, 0
0, 0
0, 0
0, 0
0, 0
0, 0
0, 0
0, 0
0, 0
0, 0
0, 0
0, 0
0, 0
0, 0
0, 0
0, 0
0, 0
0, 0
0, 0
0, 0
0, 0
0, 0
0, 0
0, 0
0, 0
0, 0
0, 0
0, 0
0, 0
0, 0
0, 0
0, 0
0, 0
0, 0
0, 0
0, 0
0, 0
0, 0
0, 0
0, 0
0, 0
0, 0
0, 0
0, 0
0, 0
0, 0
0, 0
0, 0
0, 0
0, 0
0, 0
0, 0
0, 0
0, 0
0, 0
0, 0
0, 0
0, 0
0, 0
0, 0
0, 0
0, 0
0, 0
0, 0
0, 0
0, 0
0, 0
0, 0
0, 0
0, 0
0, 0
0, 0
0, 0
0, 0
0, 0
0, 0
0, 0
0, 0
0, 0
0, 0
0, 0
0, 0
0, 0
0, 0
0, 0
0, 0
0, 0
0, 0
0, 0
0, 0
0, 0
0, 0
0, 0
0, 0
0, 0
0, 0
0, 0
0, 0
0, 0
0, 0
0, 0
0, 0
0, 0
0, 0
0, 0
0, 0
0, 0
0, 0
0, 0
0, 0
0, 0
0, 0
0, 0
0, 0
0, 0
0, 0
0, 0
0, 0
0, 0
0, 0
0, 0
0, 0
0, 0
0, 0
0, 0
0, 0
0, 0
0, 0
0, 0
0, 0
0, 0
0, 0
0, 0
0, 0
0, 0
0, 0
0, 0
0, 0
0, 0
0, 0
0, 0
0, 0
0, 0
0, 0
0, 0
0, 0
0, 0
0, 0
0, 0
0, 0
0, 0
0, 0
0, 0
0, 0
0, 0
0, 0
0, 0
0, 0
0, 0
0, 0
0, 0
0, 0
0, 0
0, 0
0, 0
0, 0
0, 0
0, 0
0, 0
0, 0
0, 0
0, 0
0, 0
0, 0
0, 0
0, 0
0, 0
0, 0
#ENDOFDATA     end of spectrum data