File: host_upload/06-09-2024/ps_0852/dump3/ps__0852shot_2436.msa
#FORMAT      : EMSA/MAS spectral data file
#VERSION     : TC202v2.0 PIXL
#TITLE       : N/A
#DATE        :       Date in the format DD-MMM-YYYY, for example 07-JUL-2010
#TIME        :             The time of day at which the spectrum was recorded, in 24-hour format
#OWNER       : PIXL Flight Model       (PIXL will use this to indicate which instrument took the data.)
#NPOINTS     : 4096     Number of data points in the spectrum (This can be zero for configuration only files)
#NCOLUMNS    : 2     Number of data columns in the spectrum (This can be zero for configuration only files)
#XUNITS      : eV
#YUNITS      : COUNTS
#DATATYPE    : YY
#XPERCHAN    : 7.862, 7.881   eV per channel (separate by commas if more than one detector)
#OFFSET      : 18.5, -22.4         eV of first channel  (separate by commas if more than one detector
#SIGNALTYPE  : XRF
#YP_TEMP     : 2.3
#LIVETIME    : 8.55626, 8.54332   seconds (separate by commas if more than one detector)
#REALTIME    : 10, 10.0   seconds (separate by commas if more than one detector)
#SPECTRUM    : start of spectrum data
0, 0
0, 0
0, 0
0, 0
0, 0
0, 0
0, 0
0, 0
0, 0
0, 0
0, 0
0, 0
0, 0
0, 0
0, 0
0, 0
0, 0
0, 0
0, 0
0, 0
0, 0
0, 0
0, 0
0, 0
0, 0
0, 0
0, 0
0, 0
0, 1
0, 0
0, 0
1, 0
0, 0
1, 0
0, 0
1, 1
5, 1
0, 0
1, 0
0, 1
1, 0
4, 0
3, 2
2, 2
1, 1
2, 2
2, 1
0, 2
7, 3
18, 11
18, 26
34, 37
46, 50
85, 60
73, 56
80, 67
63, 34
31, 32
27, 23
12, 13
11, 7
5, 4
8, 2
4, 4
7, 5
4, 5
8, 9
17, 9
19, 22
64, 42
129, 102
203, 209
280, 305
426, 383
510, 470
492, 447
421, 404
370, 297
255, 198
145, 115
89, 57
34, 27
23, 18
16, 13
11, 11
7, 6
4, 2
3, 2
5, 4
3, 1
1, 1
0, 2
1, 1
1, 4
5, 2
6, 0
10, 11
8, 7
6, 9
8, 10
7, 13
9, 4
3, 10
6, 16
3, 13
6, 15
8, 10
11, 17
9, 12
23, 23
30, 35
42, 39
39, 52
47, 49
54, 54
43, 61
40, 50
47, 38
30, 20
33, 36
23, 41
24, 26
25, 21
14, 16
15, 25
22, 13
10, 15
6, 19
10, 6
6, 4
5, 9
5, 5
8, 1
1, 0
3, 5
4, 2
3, 2
0, 6
1, 3
3, 2
4, 3
1, 4
4, 4
3, 3
4, 0
3, 5
4, 2
1, 2
4, 3
9, 7
13, 18
30, 17
71, 71
98, 86
127, 144
190, 194
261, 232
263, 232
242, 212
245, 195
178, 139
124, 108
89, 62
52, 47
32, 28
25, 21
21, 9
35, 20
31, 24
33, 32
34, 36
52, 34
39, 40
33, 35
36, 23
26, 22
30, 14
11, 18
22, 5
18, 6
9, 4
4, 1
8, 6
8, 5
5, 5
4, 9
4, 5
3, 9
6, 15
10, 15
10, 17
17, 11
16, 22
9, 17
15, 21
13, 21
17, 17
18, 18
12, 22
10, 21
9, 20
6, 31
10, 25
8, 19
13, 23
5, 24
7, 34
8, 26
2, 30
11, 18
9, 18
8, 17
11, 8
12, 11
12, 3
20, 4
20, 5
19, 6
12, 5
17, 7
8, 6
9, 6
10, 8
11, 9
12, 12
17, 17
14, 17
21, 11
27, 23
34, 39
39, 42
50, 28
46, 31
38, 17
42, 13
29, 17
25, 12
29, 6
25, 9
21, 5
11, 8
15, 7
13, 15
10, 9
11, 18
26, 15
33, 37
46, 41
48, 56
59, 60
71, 51
94, 59
78, 52
98, 44
98, 37
98, 24
105, 15
81, 19
99, 12
76, 17
52, 14
56, 17
69, 62
83, 83
143, 159
240, 262
418, 495
642, 795
954, 1048
1297, 1465
1730, 1795
1905, 1994
2021, 1994
1962, 1874
1751, 1667
1558, 1293
1080, 940
752, 613
478, 363
277, 208
152, 109
103, 64
43, 31
24, 29
14, 13
17, 17
16, 8
18, 19
21, 19
29, 22
28, 22
45, 31
43, 44
54, 70
100, 112
146, 150
169, 199
240, 226
286, 297
288, 301
315, 293
281, 288
273, 224
227, 197
165, 120
111, 89
87, 68
38, 31
25, 24
12, 11
13, 6
12, 4
14, 9
15, 7
17, 11
15, 11
19, 11
10, 23
16, 15
8, 9
21, 14
20, 9
12, 4
10, 6
9, 5
10, 7
6, 2
11, 11
4, 5
6, 5
5, 5
5, 3
7, 5
1, 1
3, 7
3, 9
4, 2
2, 7
6, 7
6, 3
6, 6
9, 4
1, 5
5, 10
4, 4
9, 5
10, 6
8, 9
7, 11
12, 11
14, 3
16, 7
15, 6
12, 6
15, 3
10, 3
15, 10
10, 9
8, 4
8, 3
9, 5
4, 4
10, 7
10, 2
2, 4
4, 1
6, 5
4, 5
7, 6
7, 5
2, 2
1, 7
7, 7
6, 3
4, 3
10, 3
5, 3
1, 4
6, 4
4, 6
14, 8
6, 6
8, 6
5, 2
3, 6
6, 3
3, 6
3, 5
2, 3
4, 7
3, 4
2, 6
1, 2
4, 3
3, 5
3, 7
5, 3
1, 3
2, 2
5, 5
2, 2
1, 3
3, 3
2, 5
4, 6
4, 5
9, 4
4, 8
5, 1
5, 8
2, 2
3, 5
3, 2
10, 3
1, 5
2, 2
2, 1
2, 6
5, 5
6, 2
2, 5
5, 0
0, 4
4, 3
2, 3
5, 3
8, 5
4, 7
8, 4
3, 3
8, 8
4, 5
3, 4
2, 8
4, 11
4, 3
2, 18
2, 14
4, 13
0, 9
4, 8
3, 7
1, 4
1, 3
3, 4
5, 5
4, 3
3, 1
2, 0
2, 2
1, 4
1, 2
2, 1
3, 3
2, 3
3, 4
3, 4
3, 4
4, 5
6, 3
4, 3
1, 5
4, 5
3, 0
2, 3
3, 4
3, 5
5, 8
4, 10
0, 4
2, 2
3, 6
3, 2
2, 2
1, 4
3, 4
3, 4
6, 3
3, 2
4, 3
3, 1
2, 2
3, 1
1, 5
6, 0
1, 2
3, 1
1, 4
5, 3
3, 4
2, 0
1, 2
3, 2
4, 0
0, 2
1, 2
0, 0
1, 6
3, 4
2, 0
1, 3
3, 2
1, 3
2, 3
3, 0
4, 0
3, 4
2, 3
1, 2
2, 2
2, 5
2, 1
1, 2
1, 5
3, 4
0, 0
0, 0
2, 2
4, 2
0, 1
2, 5
1, 4
2, 1
2, 2
2, 0
1, 3
1, 0
4, 2
5, 1
3, 1
2, 2
2, 3
3, 1
2, 1
3, 3
6, 2
3, 3
5, 4
2, 2
0, 4
3, 1
3, 6
4, 3
3, 3
3, 4
4, 5
1, 3
4, 6
2, 4
3, 1
2, 0
0, 3
1, 1
0, 2
2, 4
1, 1
0, 2
2, 2
1, 4
1, 0
1, 3
3, 1
1, 5
2, 2
1, 6
0, 3
3, 4
3, 2
1, 2
3, 2
1, 4
2, 5
0, 2
0, 2
0, 0
1, 1
1, 1
0, 0
1, 1
0, 1
2, 0
2, 0
2, 0
1, 0
1, 1
3, 0
1, 2
1, 1
1, 2
0, 0
0, 2
2, 0
1, 0
1, 0
2, 2
1, 1
0, 3
0, 1
1, 0
1, 0
1, 1
2, 0
0, 0
0, 0
3, 2
0, 1
3, 0
0, 1
0, 1
1, 0
0, 0
0, 1
0, 1
0, 1
0, 3
0, 1
2, 2
0, 0
1, 1
0, 0
0, 2
0, 1
0, 0
1, 2
2, 0
2, 1
3, 1
2, 0
1, 2
0, 2
1, 2
2, 3
1, 0
0, 1
0, 0
0, 1
1, 0
0, 0
3, 2
0, 0
1, 1
0, 0
0, 3
0, 0
0, 1
0, 2
0, 1
1, 0
1, 1
1, 0
1, 0
1, 0
0, 0
0, 1
2, 0
1, 0
0, 0
1, 0
0, 3
0, 0
1, 0
1, 0
1, 1
1, 1
0, 0
1, 0
3, 0
0, 0
0, 0
0, 0
2, 0
1, 0
0, 0
0, 0
2, 0
0, 1
0, 2
0, 0
0, 0
1, 1
0, 1
1, 0
0, 1
1, 3
1, 1
0, 0
0, 0
0, 1
1, 0
0, 0
2, 1
0, 1
0, 1
0, 1
2, 2
1, 1
2, 0
2, 2
0, 0
0, 0
0, 0
0, 0
0, 0
1, 0
0, 0
1, 1
0, 0
0, 0
1, 1
1, 1
1, 0
0, 0
1, 0
0, 0
0, 0
1, 1
0, 0
0, 1
0, 0
1, 0
0, 0
0, 0
0, 0
0, 0
1, 1
1, 0
0, 1
0, 1
0, 3
1, 0
1, 1
0, 0
1, 1
0, 1
0, 1
0, 0
0, 0
0, 0
0, 0
0, 0
1, 1
0, 0
0, 0
0, 1
0, 1
0, 0
0, 1
0, 0
0, 0
1, 1
0, 0
0, 0
0, 1
0, 0
1, 0
0, 0
0, 0
0, 0
0, 1
0, 0
0, 1
0, 0
1, 1
1, 0
1, 1
1, 0
0, 0
0, 0
2, 1
0, 0
0, 0
0, 0
1, 1
2, 0
0, 0
0, 1
0, 0
0, 0
0, 0
0, 0
0, 0
0, 0
0, 0
0, 0
0, 0
0, 1
0, 0
0, 0
0, 0
0, 0
0, 0
0, 0
1, 0
0, 0
1, 1
1, 0
1, 0
0, 2
0, 1
0, 0
0, 0
2, 1
0, 0
1, 0
0, 0
0, 1
0, 1
0, 0
0, 0
1, 1
0, 0
0, 0
1, 0
1, 0
0, 0
0, 1
0, 0
0, 0
0, 1
0, 0
0, 0
0, 0
1, 0
0, 0
1, 0
0, 2
0, 0
0, 0
0, 0
0, 1
0, 0
0, 0
0, 0
0, 0
1, 0
0, 0
0, 0
0, 0
0, 0
0, 0
0, 0
0, 0
0, 0
0, 0
0, 0
1, 0
1, 0
0, 0
0, 0
0, 0
0, 0
0, 0
0, 1
0, 0
0, 0
0, 0
0, 0
0, 0
0, 0
0, 0
1, 0
0, 0
0, 0
0, 0
1, 0
0, 0
0, 0
0, 0
0, 0
0, 0
0, 0
0, 0
0, 1
0, 0
0, 0
0, 0
0, 0
0, 0
0, 0
0, 0
0, 0
0, 0
0, 0
0, 0
0, 0
0, 0
0, 0
0, 0
0, 0
0, 0
0, 0
0, 1
0, 0
0, 0
0, 1
0, 0
0, 0
0, 0
0, 0
0, 0
0, 0
0, 0
0, 0
0, 0
0, 0
0, 0
0, 0
0, 0
0, 0
0, 0
0, 1
0, 0
1, 0
0, 1
0, 0
0, 0
0, 0
0, 0
0, 0
0, 0
0, 0
0, 0
0, 0
0, 1
0, 0
0, 0
0, 0
0, 0
0, 0
0, 0
0, 0
0, 0
0, 0
0, 0
1, 0
0, 0
0, 0
0, 0
0, 0
0, 0
0, 0
0, 0
0, 0
0, 0
0, 0
0, 0
0, 0
0, 0
0, 0
0, 0
0, 0
0, 0
0, 0
0, 0
0, 0
0, 0
0, 0
0, 0
0, 0
0, 0
0, 0
0, 0
0, 0
0, 0
0, 0
0, 1
0, 0
0, 0
0, 1
0, 0
0, 0
0, 0
0, 0
0, 0
0, 0
0, 0
0, 0
0, 0
0, 0
0, 0
0, 0
0, 0
0, 0
0, 0
0, 0
0, 0
0, 0
0, 0
0, 0
0, 0
0, 0
0, 0
0, 0
0, 0
0, 0
0, 0
0, 0
0, 0
0, 0
0, 0
0, 0
0, 0
0, 0
0, 0
0, 0
0, 0
0, 0
0, 1
0, 0
0, 0
0, 0
0, 0
0, 0
0, 0
0, 0
0, 0
0, 0
0, 0
0, 0
0, 0
0, 0
0, 0
0, 0
0, 0
0, 0
0, 0
0, 0
0, 0
0, 0
0, 0
0, 0
0, 0
0, 0
0, 0
0, 0
0, 0
0, 0
0, 0
0, 0
0, 0
0, 0
0, 0
0, 0
0, 0
0, 0
0, 0
0, 0
0, 0
0, 0
0, 0
0, 0
0, 0
0, 0
0, 0
0, 0
0, 0
0, 0
0, 0
0, 0
0, 0
0, 0
0, 0
0, 0
0, 0
0, 0
0, 0
0, 0
0, 0
0, 0
0, 0
0, 0
0, 0
0, 0
0, 0
0, 0
0, 0
0, 0
0, 0
0, 0
0, 0
0, 0
0, 0
0, 0
0, 0
0, 0
0, 0
0, 0
0, 0
0, 0
0, 0
0, 0
0, 0
0, 0
0, 0
0, 0
0, 0
0, 0
0, 0
0, 0
0, 0
0, 0
0, 0
0, 0
0, 0
0, 0
0, 0
0, 0
0, 0
0, 0
0, 0
0, 0
0, 0
0, 0
0, 0
0, 0
0, 0
0, 0
0, 0
0, 0
0, 0
0, 0
0, 0
0, 0
0, 0
0, 0
0, 0
0, 0
0, 0
0, 0
0, 0
0, 0
0, 0
0, 0
0, 0
0, 0
0, 0
0, 0
0, 0
0, 0
0, 0
0, 0
0, 0
0, 0
0, 0
0, 0
0, 0
0, 0
0, 0
0, 0
0, 0
0, 0
0, 0
0, 0
0, 0
0, 0
0, 0
0, 0
0, 0
0, 0
0, 0
0, 0
0, 0
0, 0
0, 0
0, 0
0, 0
0, 0
0, 0
0, 0
0, 0
0, 0
0, 0
0, 0
0, 0
0, 0
0, 0
0, 0
0, 0
0, 0
0, 0
0, 0
0, 0
0, 0
0, 0
0, 0
0, 0
0, 0
0, 0
0, 0
0, 0
0, 0
0, 0
0, 0
0, 0
0, 0
0, 0
0, 0
0, 0
0, 0
0, 0
0, 0
0, 0
0, 0
0, 0
0, 0
0, 0
0, 0
0, 0
0, 0
0, 0
0, 0
0, 0
0, 0
0, 0
0, 0
0, 0
0, 0
0, 0
0, 0
0, 0
0, 0
0, 0
0, 0
0, 0
0, 0
0, 0
0, 0
0, 0
0, 0
0, 0
0, 0
0, 0
0, 0
0, 0
0, 0
0, 0
0, 0
0, 0
0, 0
0, 0
0, 0
0, 0
0, 0
0, 0
0, 0
0, 0
0, 0
0, 0
0, 0
0, 0
0, 0
0, 0
0, 0
0, 0
0, 0
0, 0
0, 0
0, 0
0, 0
0, 0
0, 0
0, 0
0, 0
0, 0
0, 0
0, 0
0, 0
0, 0
0, 0
0, 0
0, 0
0, 0
0, 0
0, 0
0, 0
0, 0
0, 0
0, 0
0, 0
0, 0
0, 0
0, 0
0, 0
0, 0
0, 0
0, 0
0, 0
0, 0
0, 0
0, 0
0, 0
0, 0
0, 0
0, 0
0, 0
0, 0
0, 0
0, 0
0, 0
0, 0
0, 0
0, 0
0, 0
0, 0
0, 0
0, 0
0, 0
0, 0
0, 0
0, 0
0, 0
0, 0
0, 0
0, 0
0, 0
0, 0
0, 0
0, 0
0, 0
0, 0
0, 0
0, 0
0, 0
0, 0
0, 0
0, 0
0, 0
0, 0
0, 0
0, 0
0, 0
0, 0
0, 0
0, 0
0, 0
0, 0
0, 0
0, 0
0, 0
0, 0
0, 0
0, 0
0, 0
0, 0
0, 0
0, 0
0, 0
0, 0
0, 0
0, 0
0, 0
0, 0
0, 0
0, 0
0, 0
0, 0
0, 0
0, 0
0, 0
0, 0
0, 0
0, 0
0, 0
0, 0
0, 0
0, 0
#ENDOFDATA     end of spectrum data