File: host_upload/06-09-2024/ps_0852/dump3/ps__0852shot_2224.msa
#FORMAT      : EMSA/MAS spectral data file
#VERSION     : TC202v2.0 PIXL
#TITLE       : N/A
#DATE        :       Date in the format DD-MMM-YYYY, for example 07-JUL-2010
#TIME        :             The time of day at which the spectrum was recorded, in 24-hour format
#OWNER       : PIXL Flight Model       (PIXL will use this to indicate which instrument took the data.)
#NPOINTS     : 4096     Number of data points in the spectrum (This can be zero for configuration only files)
#NCOLUMNS    : 2     Number of data columns in the spectrum (This can be zero for configuration only files)
#XUNITS      : eV
#YUNITS      : COUNTS
#DATATYPE    : YY
#XPERCHAN    : 7.862, 7.881   eV per channel (separate by commas if more than one detector)
#OFFSET      : 18.5, -22.4         eV of first channel  (separate by commas if more than one detector
#SIGNALTYPE  : XRF
#YP_TEMP     : 2.267
#LIVETIME    : 8.54651, 8.57987   seconds (separate by commas if more than one detector)
#REALTIME    : 10, 10.0   seconds (separate by commas if more than one detector)
#SPECTRUM    : start of spectrum data
0, 0
0, 0
0, 0
0, 0
0, 0
0, 0
0, 0
0, 0
0, 0
0, 0
0, 0
0, 0
0, 0
0, 0
0, 0
0, 0
0, 0
0, 0
0, 0
0, 0
0, 0
0, 0
0, 0
0, 0
0, 0
0, 0
0, 0
0, 0
0, 0
0, 0
0, 0
0, 1
0, 0
0, 0
0, 2
0, 0
1, 0
1, 0
0, 0
1, 2
2, 2
1, 0
2, 0
2, 2
0, 1
0, 1
2, 3
1, 3
5, 8
11, 13
26, 25
39, 47
81, 67
88, 76
96, 81
68, 74
64, 51
63, 38
33, 31
14, 8
7, 7
3, 3
5, 3
5, 1
5, 1
4, 2
9, 6
16, 7
29, 20
61, 45
118, 92
169, 156
286, 255
401, 356
432, 422
465, 428
411, 323
277, 245
218, 178
144, 87
103, 63
40, 38
16, 22
15, 8
6, 4
4, 6
4, 3
2, 2
0, 2
5, 0
1, 0
3, 0
1, 2
2, 5
3, 4
3, 1
2, 4
3, 1
1, 4
4, 5
3, 5
1, 7
2, 9
2, 11
4, 13
4, 14
4, 16
3, 15
3, 9
3, 8
10, 10
16, 20
12, 9
17, 22
26, 16
24, 22
19, 28
25, 21
19, 11
26, 22
16, 17
16, 17
12, 18
10, 11
6, 9
12, 13
8, 19
6, 7
4, 9
2, 5
5, 5
3, 2
2, 2
2, 0
2, 1
0, 0
6, 2
1, 2
5, 1
5, 0
2, 4
2, 2
0, 1
1, 3
3, 2
0, 0
2, 0
2, 0
0, 2
1, 2
4, 1
2, 3
8, 2
8, 5
22, 10
21, 8
14, 23
20, 19
16, 15
11, 17
23, 14
12, 8
7, 6
2, 2
6, 3
3, 2
6, 2
4, 7
1, 2
3, 3
5, 4
2, 2
12, 8
17, 4
23, 6
31, 3
51, 1
55, 4
87, 5
92, 5
79, 5
94, 0
68, 5
57, 5
42, 2
22, 0
15, 3
6, 4
6, 2
3, 7
5, 2
8, 7
17, 4
10, 15
7, 6
10, 9
12, 12
18, 9
13, 15
17, 12
11, 10
12, 15
8, 12
9, 23
4, 21
3, 26
5, 20
7, 27
4, 18
6, 24
3, 21
9, 18
4, 15
3, 3
5, 7
3, 8
4, 8
4, 3
3, 6
4, 1
7, 4
3, 6
6, 5
15, 4
8, 6
8, 11
15, 15
16, 14
20, 8
13, 11
24, 9
13, 13
17, 7
10, 9
10, 9
7, 8
6, 7
6, 8
8, 6
5, 14
3, 16
4, 24
7, 14
18, 45
14, 50
13, 46
25, 55
36, 69
60, 63
41, 90
50, 81
58, 69
60, 69
49, 38
48, 38
40, 22
16, 24
27, 11
25, 14
23, 18
24, 17
25, 19
29, 44
89, 108
156, 179
295, 340
457, 591
757, 867
1156, 1243
1676, 1660
2033, 2014
2365, 2138
2529, 2314
2442, 2127
2234, 1838
1797, 1391
1348, 1034
969, 669
611, 458
363, 238
245, 135
124, 59
73, 37
37, 20
23, 25
21, 9
9, 14
13, 24
13, 22
21, 22
20, 39
24, 30
37, 60
62, 85
95, 116
142, 134
220, 223
252, 264
327, 319
378, 361
354, 339
347, 337
302, 277
248, 207
207, 167
128, 113
93, 87
57, 76
34, 77
26, 77
11, 81
11, 58
4, 67
11, 54
13, 36
8, 41
12, 29
18, 27
6, 11
15, 16
15, 12
20, 10
10, 3
6, 8
6, 3
7, 7
9, 2
2, 7
4, 5
2, 0
2, 8
7, 3
4, 1
2, 4
3, 6
3, 1
3, 4
2, 3
6, 5
0, 2
1, 10
3, 6
4, 6
4, 11
3, 22
3, 19
3, 22
7, 33
8, 29
5, 31
10, 25
5, 26
5, 33
6, 20
9, 16
10, 13
19, 16
11, 4
19, 3
16, 5
14, 3
18, 2
10, 4
9, 4
7, 5
10, 3
12, 3
11, 3
8, 1
6, 2
6, 6
3, 2
4, 7
2, 8
7, 4
2, 2
3, 3
6, 2
3, 4
6, 5
2, 4
4, 4
0, 7
4, 3
4, 7
5, 4
8, 2
3, 4
4, 15
1, 4
6, 7
0, 4
1, 6
4, 8
7, 5
3, 4
5, 2
8, 3
5, 5
7, 1
11, 3
9, 4
11, 3
9, 3
16, 5
12, 5
12, 3
7, 1
5, 3
4, 2
8, 1
7, 1
3, 7
4, 1
3, 6
3, 6
3, 1
4, 1
5, 1
4, 0
6, 5
3, 2
2, 3
8, 2
1, 5
1, 2
3, 2
2, 4
4, 3
4, 6
1, 2
3, 2
2, 5
3, 1
4, 1
5, 1
8, 4
2, 4
1, 3
4, 4
3, 1
7, 1
3, 7
3, 3
7, 2
9, 3
7, 0
5, 0
11, 0
11, 3
7, 1
9, 1
6, 3
5, 0
5, 3
3, 1
3, 2
4, 3
4, 3
0, 0
6, 3
3, 2
1, 2
6, 3
1, 1
1, 0
2, 2
1, 2
1, 1
1, 3
2, 2
0, 2
1, 0
2, 4
4, 0
1, 0
0, 1
1, 4
2, 1
2, 4
0, 1
3, 1
1, 1
2, 2
3, 1
2, 2
1, 5
3, 3
3, 3
1, 2
3, 7
2, 1
2, 1
3, 6
1, 7
1, 1
2, 3
3, 3
3, 2
4, 4
1, 2
3, 3
2, 2
1, 4
3, 0
4, 0
1, 1
1, 0
2, 1
1, 1
1, 0
1, 3
3, 1
2, 1
2, 3
0, 2
3, 1
1, 0
2, 2
3, 4
2, 1
1, 0
1, 2
1, 1
3, 1
2, 2
0, 1
0, 0
3, 1
1, 0
1, 2
1, 4
2, 0
4, 2
3, 1
7, 3
5, 4
5, 2
5, 3
1, 2
4, 0
6, 2
7, 3
5, 2
8, 3
2, 4
2, 3
4, 2
4, 1
6, 3
2, 1
0, 0
1, 0
1, 4
2, 0
1, 3
2, 1
2, 3
0, 1
1, 1
0, 2
1, 0
1, 1
1, 6
2, 2
5, 2
0, 0
0, 2
0, 0
5, 3
0, 0
3, 0
0, 2
0, 2
0, 4
0, 1
0, 0
3, 1
3, 1
0, 1
2, 1
1, 5
0, 2
1, 2
1, 2
1, 1
2, 0
1, 3
1, 1
3, 0
1, 4
2, 4
0, 4
2, 0
3, 4
1, 4
1, 2
0, 3
0, 1
1, 2
0, 0
2, 3
1, 1
0, 2
3, 0
0, 0
0, 0
0, 1
1, 1
2, 2
1, 1
0, 1
1, 0
0, 1
0, 2
0, 3
1, 1
1, 2
1, 1
0, 0
0, 1
1, 0
0, 1
3, 1
3, 0
3, 0
0, 2
0, 0
1, 1
1, 3
1, 1
1, 0
1, 1
1, 0
1, 1
0, 2
1, 0
1, 0
2, 0
0, 0
0, 0
0, 0
2, 1
0, 1
0, 1
0, 1
0, 1
0, 0
1, 0
1, 0
0, 2
0, 0
0, 0
0, 0
1, 1
0, 2
1, 2
0, 0
1, 0
0, 1
0, 1
0, 0
0, 0
0, 0
1, 2
2, 0
0, 0
1, 0
1, 1
0, 0
0, 1
0, 2
1, 0
1, 0
1, 1
0, 0
0, 0
1, 1
0, 0
0, 0
1, 0
1, 2
0, 1
0, 0
0, 1
0, 0
0, 1
0, 1
1, 0
0, 0
0, 0
0, 0
1, 1
0, 1
0, 0
0, 0
0, 1
1, 0
0, 0
0, 0
1, 0
0, 0
0, 1
0, 2
0, 1
1, 1
1, 1
0, 0
0, 0
0, 0
0, 1
0, 0
1, 0
0, 0
1, 0
1, 0
0, 0
1, 0
0, 1
1, 1
1, 0
3, 0
0, 0
0, 0
0, 0
0, 0
0, 0
0, 1
0, 0
0, 0
1, 0
0, 1
2, 0
0, 0
0, 1
0, 0
1, 0
0, 1
1, 0
0, 0
0, 0
2, 0
0, 0
0, 0
2, 0
0, 0
0, 0
0, 0
0, 0
0, 0
0, 0
1, 1
0, 0
0, 0
1, 0
0, 0
1, 0
0, 1
0, 0
1, 0
0, 0
0, 1
0, 0
0, 0
1, 0
0, 0
0, 0
0, 0
0, 0
0, 1
1, 0
0, 0
0, 0
0, 1
0, 0
0, 0
0, 0
0, 0
0, 0
0, 0
0, 0
2, 1
0, 0
2, 0
0, 1
0, 3
0, 1
0, 0
0, 0
0, 0
1, 0
0, 1
0, 1
0, 0
0, 0
0, 0
0, 1
1, 0
0, 0
1, 0
0, 0
0, 0
0, 0
0, 1
0, 0
1, 0
0, 0
0, 0
0, 0
1, 0
0, 0
0, 1
0, 0
0, 1
1, 0
0, 0
0, 0
0, 0
0, 0
0, 0
1, 1
0, 0
0, 0
0, 0
0, 0
0, 0
0, 0
0, 0
0, 0
0, 0
0, 0
0, 0
0, 0
0, 0
0, 0
0, 0
1, 0
0, 0
0, 0
0, 1
0, 0
0, 0
0, 2
0, 0
0, 0
0, 0
0, 0
2, 0
0, 0
0, 0
0, 0
0, 0
1, 0
0, 0
2, 0
0, 0
0, 1
0, 1
0, 1
0, 0
0, 1
1, 0
0, 0
0, 0
0, 1
0, 0
1, 0
0, 0
0, 0
0, 0
0, 0
0, 1
0, 0
0, 0
1, 0
0, 0
0, 0
0, 0
0, 0
0, 0
0, 0
0, 0
0, 0
0, 0
0, 0
0, 0
0, 0
0, 0
0, 1
0, 0
0, 0
0, 0
1, 0
0, 1
0, 0
1, 0
0, 0
0, 0
0, 0
0, 0
0, 0
0, 0
0, 0
0, 0
0, 0
0, 0
0, 0
1, 0
0, 0
0, 0
0, 0
0, 0
0, 1
0, 0
0, 1
0, 0
0, 0
0, 0
0, 0
0, 0
0, 0
0, 1
0, 1
0, 0
0, 0
0, 1
0, 0
0, 0
0, 0
0, 0
0, 0
0, 0
0, 1
0, 0
0, 0
0, 0
0, 0
0, 0
0, 0
0, 0
0, 1
0, 0
0, 0
0, 0
1, 0
0, 0
0, 0
0, 0
0, 0
0, 0
0, 0
0, 0
0, 0
0, 0
0, 0
0, 0
0, 0
0, 0
0, 0
0, 0
0, 0
0, 0
0, 0
0, 0
0, 0
0, 0
0, 0
0, 0
0, 0
0, 0
0, 0
0, 1
0, 0
0, 0
0, 0
0, 0
0, 0
0, 0
0, 0
0, 0
0, 0
0, 0
0, 0
0, 0
0, 0
0, 0
0, 0
0, 0
0, 0
0, 0
0, 0
0, 0
0, 0
0, 0
0, 0
0, 0
0, 0
0, 0
0, 0
0, 0
0, 0
0, 0
0, 0
0, 0
0, 0
0, 0
0, 0
0, 0
0, 0
0, 0
0, 0
0, 0
0, 0
0, 0
0, 0
0, 0
0, 0
0, 0
0, 0
0, 0
0, 0
0, 0
0, 0
0, 0
0, 0
0, 0
0, 0
0, 0
0, 0
0, 0
0, 0
0, 0
0, 0
0, 0
0, 0
0, 0
0, 0
0, 0
0, 0
0, 0
0, 0
0, 0
0, 0
0, 0
0, 0
0, 0
0, 0
0, 0
0, 0
0, 0
0, 0
0, 0
0, 0
0, 0
0, 0
0, 0
0, 0
0, 0
0, 0
0, 0
0, 0
0, 0
0, 0
0, 0
0, 0
0, 0
0, 0
0, 0
0, 0
0, 0
0, 0
0, 0
0, 0
0, 0
0, 0
0, 0
0, 0
0, 0
0, 0
0, 0
0, 0
0, 0
0, 0
0, 0
0, 0
0, 0
0, 0
0, 0
0, 0
0, 0
0, 0
0, 0
0, 0
0, 0
0, 0
0, 0
0, 0
0, 0
0, 0
0, 0
0, 0
0, 0
0, 0
0, 0
0, 0
0, 0
0, 0
0, 0
0, 0
0, 0
0, 0
0, 0
0, 0
0, 0
0, 0
0, 0
0, 0
0, 0
0, 0
0, 0
0, 0
0, 0
0, 0
0, 0
0, 0
0, 0
0, 0
0, 0
0, 0
0, 0
0, 0
0, 0
0, 0
0, 0
0, 0
0, 0
0, 0
0, 0
0, 0
0, 0
0, 0
0, 0
0, 0
0, 0
0, 0
0, 0
0, 0
0, 0
0, 0
0, 0
0, 0
0, 0
0, 0
0, 0
0, 0
0, 0
0, 0
0, 0
0, 0
0, 0
0, 0
0, 0
0, 0
0, 0
0, 0
0, 0
0, 0
0, 0
0, 0
0, 0
0, 0
0, 0
0, 0
0, 0
0, 0
0, 0
0, 0
0, 0
0, 0
0, 0
0, 0
0, 0
0, 0
0, 0
0, 0
0, 0
0, 0
0, 0
0, 0
0, 0
0, 0
0, 0
0, 0
0, 0
0, 0
0, 0
0, 0
0, 0
0, 0
0, 0
0, 0
0, 0
0, 0
0, 0
0, 0
0, 0
0, 0
0, 0
0, 0
0, 0
0, 0
0, 0
0, 0
0, 0
0, 0
0, 0
0, 0
0, 0
0, 0
0, 0
0, 0
0, 0
0, 0
0, 0
0, 0
0, 0
0, 0
0, 0
0, 0
0, 0
0, 0
0, 0
0, 0
0, 0
0, 0
0, 0
0, 0
0, 0
0, 0
0, 0
0, 0
0, 0
0, 0
0, 0
0, 0
0, 0
0, 0
0, 0
0, 0
0, 0
0, 0
0, 0
0, 0
0, 0
0, 0
0, 0
0, 0
0, 0
0, 0
0, 0
0, 0
0, 0
0, 0
0, 0
0, 0
0, 0
0, 0
0, 0
0, 0
0, 0
0, 0
0, 0
0, 0
0, 0
0, 0
0, 0
0, 0
0, 0
0, 0
0, 0
0, 0
0, 0
0, 0
0, 0
0, 0
0, 0
0, 0
0, 0
0, 0
0, 0
0, 0
0, 0
0, 0
0, 0
0, 0
0, 0
0, 0
0, 0
0, 0
0, 0
0, 0
0, 0
0, 0
0, 0
0, 0
0, 0
0, 0
0, 0
0, 0
0, 0
0, 0
0, 0
0, 0
0, 0
0, 0
0, 0
0, 0
0, 0
0, 0
0, 0
0, 0
0, 0
0, 0
0, 0
0, 0
0, 0
0, 0
0, 0
0, 0
0, 0
0, 0
0, 0
0, 0
0, 0
0, 0
0, 0
0, 0
0, 0
0, 0
0, 0
0, 0
0, 0
0, 0
0, 0
0, 0
0, 0
0, 0
0, 0
0, 0
0, 0
0, 0
0, 0
0, 0
0, 0
0, 0
0, 0
0, 0
0, 0
0, 0
0, 0
0, 0
0, 0
0, 0
0, 0
0, 0
0, 0
#ENDOFDATA     end of spectrum data