File: host_upload/06-09-2024/ps_0852/dump3/ps__0852shot_2506.msa
#FORMAT      : EMSA/MAS spectral data file
#VERSION     : TC202v2.0 PIXL
#TITLE       : N/A
#DATE        :       Date in the format DD-MMM-YYYY, for example 07-JUL-2010
#TIME        :             The time of day at which the spectrum was recorded, in 24-hour format
#OWNER       : PIXL Flight Model       (PIXL will use this to indicate which instrument took the data.)
#NPOINTS     : 4096     Number of data points in the spectrum (This can be zero for configuration only files)
#NCOLUMNS    : 2     Number of data columns in the spectrum (This can be zero for configuration only files)
#XUNITS      : eV
#YUNITS      : COUNTS
#DATATYPE    : YY
#XPERCHAN    : 7.862, 7.881   eV per channel (separate by commas if more than one detector)
#OFFSET      : 18.5, -22.4         eV of first channel  (separate by commas if more than one detector
#SIGNALTYPE  : XRF
#YP_TEMP     : 2.364
#LIVETIME    : 8.55933, 8.55629   seconds (separate by commas if more than one detector)
#REALTIME    : 10, 10.0   seconds (separate by commas if more than one detector)
#SPECTRUM    : start of spectrum data
0, 0
0, 0
0, 0
0, 0
0, 0
0, 0
0, 0
0, 0
0, 0
0, 0
0, 0
0, 0
0, 0
0, 0
0, 0
0, 0
0, 0
0, 0
0, 0
0, 0
0, 0
0, 0
0, 0
0, 0
0, 0
0, 0
0, 0
0, 0
0, 0
0, 0
0, 0
0, 0
0, 0
0, 0
0, 0
2, 0
0, 0
0, 0
4, 0
2, 0
0, 4
0, 2
5, 1
1, 1
5, 1
2, 0
3, 2
6, 2
7, 5
12, 17
31, 24
36, 34
76, 42
82, 60
101, 60
86, 61
66, 43
39, 31
22, 31
18, 9
9, 8
4, 4
4, 2
4, 1
5, 5
3, 3
7, 6
8, 6
33, 11
56, 42
106, 84
179, 144
290, 263
384, 356
457, 400
448, 374
369, 359
304, 237
211, 176
119, 105
67, 56
39, 24
20, 22
15, 10
2, 5
2, 2
2, 3
2, 2
3, 1
1, 0
0, 3
1, 2
2, 1
4, 4
6, 1
10, 6
9, 5
9, 13
16, 15
19, 14
12, 12
19, 7
7, 10
6, 6
3, 4
1, 3
4, 12
7, 8
15, 9
12, 16
13, 22
35, 24
29, 24
35, 46
56, 48
60, 61
62, 37
63, 39
61, 36
58, 52
56, 33
42, 62
28, 58
25, 55
20, 79
22, 37
15, 50
9, 38
14, 23
6, 14
10, 8
4, 2
3, 5
3, 2
3, 1
2, 4
2, 1
3, 1
5, 2
3, 1
4, 3
0, 3
1, 1
5, 4
2, 1
1, 7
1, 1
1, 1
5, 3
6, 0
5, 1
8, 1
14, 4
27, 6
17, 14
21, 19
21, 11
29, 16
12, 14
16, 7
18, 12
14, 12
7, 6
5, 7
5, 2
1, 4
4, 2
8, 8
3, 5
6, 3
7, 5
7, 5
7, 5
4, 10
3, 11
7, 13
7, 14
5, 6
3, 11
4, 12
4, 4
1, 8
4, 1
6, 8
3, 1
4, 2
3, 8
6, 5
4, 3
3, 3
8, 3
6, 6
11, 2
9, 12
8, 8
13, 8
13, 11
11, 13
11, 10
19, 10
12, 13
13, 7
7, 8
11, 5
7, 7
1, 8
4, 3
10, 7
3, 4
9, 9
3, 6
4, 6
5, 8
10, 5
5, 5
7, 5
8, 3
9, 4
9, 11
7, 7
3, 3
8, 4
0, 4
8, 5
3, 6
10, 13
10, 5
12, 12
20, 13
20, 7
24, 13
35, 12
29, 5
45, 15
47, 11
49, 13
47, 9
58, 5
44, 6
34, 7
31, 18
23, 14
14, 16
23, 19
16, 26
31, 31
33, 32
46, 50
37, 64
56, 62
61, 48
67, 48
64, 62
52, 60
36, 47
41, 38
36, 35
30, 35
19, 19
24, 36
26, 33
36, 27
66, 52
89, 86
158, 187
304, 324
494, 559
809, 862
1162, 1242
1577, 1669
2092, 1945
2375, 2228
2543, 2223
2455, 2114
2293, 1716
1807, 1399
1324, 967
911, 685
627, 381
348, 228
202, 130
95, 67
53, 25
27, 22
18, 20
16, 19
15, 16
9, 7
19, 30
14, 26
25, 21
36, 29
36, 59
74, 84
94, 105
154, 168
184, 206
278, 284
349, 323
333, 335
410, 352
379, 314
314, 244
240, 234
181, 154
129, 106
89, 58
71, 42
31, 28
12, 11
11, 11
13, 6
7, 6
8, 10
15, 10
17, 11
15, 9
14, 14
28, 8
17, 12
23, 11
18, 8
20, 3
13, 6
14, 1
8, 3
13, 1
11, 1
7, 1
3, 3
3, 2
1, 3
3, 2
2, 6
8, 1
3, 4
2, 5
8, 7
7, 5
2, 7
9, 4
2, 3
4, 3
9, 9
7, 7
5, 12
10, 7
8, 16
12, 11
9, 17
2, 19
5, 23
6, 28
2, 15
4, 16
3, 18
6, 21
8, 12
5, 11
4, 12
3, 16
3, 20
8, 10
6, 11
4, 16
6, 8
5, 6
5, 8
3, 11
4, 6
4, 12
5, 4
3, 2
4, 2
3, 1
2, 2
7, 1
4, 3
5, 0
5, 3
4, 2
5, 6
3, 2
3, 3
3, 2
3, 2
3, 4
3, 3
3, 4
6, 4
2, 3
1, 8
3, 4
2, 2
6, 2
6, 4
3, 3
2, 6
5, 3
6, 3
7, 4
9, 4
2, 5
2, 1
2, 3
3, 2
3, 1
3, 3
3, 1
3, 2
5, 2
5, 3
3, 2
2, 2
2, 3
4, 3
6, 5
4, 7
1, 1
8, 4
5, 4
2, 5
10, 3
2, 0
6, 2
3, 3
6, 5
5, 2
6, 2
6, 3
5, 4
2, 1
3, 5
4, 2
4, 3
7, 3
5, 2
4, 5
6, 1
5, 0
4, 1
3, 3
4, 3
3, 1
5, 1
1, 3
2, 1
1, 4
3, 2
4, 1
1, 2
2, 1
4, 0
5, 6
2, 3
2, 1
3, 4
3, 1
0, 1
0, 2
2, 1
2, 1
5, 1
2, 3
0, 1
2, 2
2, 2
3, 1
1, 1
3, 3
1, 2
6, 2
2, 0
1, 3
1, 0
2, 3
5, 0
2, 1
4, 3
3, 5
2, 1
1, 1
1, 2
4, 3
1, 6
4, 1
2, 4
1, 0
2, 1
1, 1
2, 3
6, 3
3, 2
2, 4
2, 3
1, 1
3, 1
3, 1
2, 0
2, 1
2, 1
2, 1
1, 1
2, 0
4, 4
5, 1
1, 1
1, 3
4, 2
1, 2
1, 0
3, 1
2, 0
4, 2
1, 3
0, 1
1, 6
2, 4
0, 2
1, 2
2, 0
3, 1
2, 1
2, 5
0, 1
1, 1
1, 3
6, 1
0, 1
2, 2
0, 1
2, 0
2, 2
4, 3
1, 1
3, 2
1, 1
5, 5
4, 1
4, 2
5, 2
2, 4
2, 4
4, 3
6, 5
2, 1
7, 0
5, 3
5, 4
5, 4
1, 1
0, 4
1, 1
4, 1
3, 1
0, 0
0, 2
3, 2
1, 1
1, 1
3, 1
0, 2
2, 2
6, 0
4, 3
3, 2
3, 2
3, 0
3, 2
1, 1
3, 0
4, 2
1, 1
1, 2
3, 1
1, 1
0, 3
2, 2
0, 0
2, 0
1, 3
1, 1
0, 3
1, 1
1, 0
1, 1
4, 0
2, 0
0, 0
1, 0
1, 0
3, 2
1, 1
1, 0
0, 0
1, 0
3, 3
1, 2
0, 1
2, 1
2, 0
2, 1
0, 2
2, 0
0, 0
1, 2
1, 3
1, 0
1, 2
0, 1
1, 1
0, 1
0, 2
0, 1
0, 3
1, 0
0, 2
1, 1
1, 0
0, 1
2, 1
0, 1
0, 0
1, 0
0, 1
0, 0
1, 2
2, 1
1, 1
3, 1
0, 1
0, 1
2, 0
0, 0
1, 1
2, 0
0, 2
0, 1
0, 0
2, 1
1, 0
0, 0
0, 0
2, 0
1, 0
0, 3
0, 0
0, 0
1, 2
0, 1
1, 1
0, 2
0, 0
1, 1
1, 1
0, 0
0, 0
2, 0
0, 2
3, 1
1, 0
1, 1
0, 0
0, 0
0, 1
2, 1
1, 1
0, 1
0, 1
1, 0
1, 0
0, 0
1, 0
0, 2
0, 0
0, 2
1, 0
2, 0
1, 0
1, 0
1, 0
0, 0
0, 2
0, 0
0, 1
0, 2
0, 2
0, 0
0, 0
0, 0
2, 1
0, 0
0, 0
0, 1
0, 0
0, 0
0, 0
0, 0
0, 0
0, 0
0, 0
0, 0
0, 1
1, 1
1, 0
1, 0
0, 0
0, 1
0, 0
0, 0
0, 0
0, 2
0, 1
0, 0
0, 1
0, 1
1, 0
0, 0
1, 0
0, 0
2, 1
0, 0
1, 0
0, 0
0, 1
1, 0
0, 0
0, 1
0, 0
0, 0
0, 0
0, 0
0, 0
0, 0
0, 0
2, 1
0, 0
0, 0
0, 1
0, 0
1, 0
0, 0
0, 0
1, 0
0, 1
0, 0
0, 0
0, 0
0, 0
0, 1
1, 0
0, 1
0, 1
0, 0
0, 0
0, 0
2, 1
0, 1
0, 0
0, 0
0, 0
0, 0
0, 1
0, 0
0, 0
1, 0
0, 1
0, 1
0, 0
1, 0
0, 2
0, 2
0, 0
0, 0
0, 0
1, 2
0, 1
0, 0
0, 0
1, 1
0, 1
0, 0
0, 0
0, 0
1, 1
1, 0
0, 1
0, 0
0, 0
0, 0
0, 0
1, 2
0, 1
0, 1
0, 0
0, 0
0, 0
0, 0
0, 0
0, 1
0, 0
0, 0
1, 0
0, 1
0, 0
0, 1
0, 2
1, 0
0, 0
0, 0
0, 0
0, 0
0, 0
0, 0
1, 0
0, 0
1, 0
0, 0
0, 0
0, 1
0, 0
0, 1
0, 0
0, 0
0, 0
0, 3
0, 0
0, 0
0, 0
0, 0
1, 0
0, 0
0, 0
0, 0
1, 0
0, 0
0, 1
0, 0
1, 0
0, 0
0, 0
0, 0
0, 0
0, 0
0, 1
0, 0
0, 0
0, 2
1, 1
0, 0
1, 0
1, 0
0, 0
0, 1
0, 0
0, 1
0, 1
0, 0
0, 0
0, 0
1, 0
1, 0
0, 0
0, 0
0, 0
0, 0
1, 0
0, 0
0, 0
0, 1
0, 0
0, 0
0, 0
0, 0
0, 0
0, 1
0, 0
0, 0
0, 0
0, 0
0, 0
0, 0
0, 0
1, 0
0, 0
0, 0
0, 0
0, 0
0, 0
0, 0
0, 0
0, 0
0, 0
0, 0
1, 0
1, 0
0, 0
0, 0
0, 0
1, 0
0, 0
0, 0
0, 0
1, 0
0, 0
0, 0
0, 0
0, 0
0, 0
0, 0
0, 0
0, 0
0, 0
0, 0
0, 0
0, 0
0, 0
0, 0
0, 0
0, 0
0, 0
0, 1
0, 0
0, 0
0, 0
0, 0
0, 0
0, 1
0, 0
0, 0
0, 0
0, 0
0, 0
0, 0
0, 0
0, 0
0, 0
0, 0
0, 0
0, 0
0, 0
0, 0
0, 0
0, 0
0, 0
0, 1
0, 0
0, 0
0, 0
0, 0
0, 0
0, 0
1, 0
0, 0
0, 0
0, 0
0, 0
0, 0
1, 0
0, 0
0, 0
0, 0
0, 0
0, 0
0, 0
0, 0
0, 0
0, 0
0, 0
0, 0
0, 0
0, 0
0, 0
0, 0
0, 0
0, 1
0, 0
0, 0
0, 0
0, 0
0, 0
0, 0
0, 0
0, 0
0, 0
0, 0
0, 0
0, 0
0, 0
0, 0
0, 0
0, 0
0, 0
0, 0
0, 0
0, 0
0, 0
0, 0
0, 0
0, 0
0, 0
0, 0
0, 0
0, 0
0, 0
0, 0
0, 0
0, 0
0, 0
0, 0
0, 0
0, 0
0, 0
0, 0
0, 0
0, 0
0, 0
0, 0
0, 0
0, 0
1, 0
0, 0
1, 0
0, 0
0, 0
0, 0
0, 0
0, 0
0, 0
0, 0
0, 0
0, 0
0, 0
0, 0
0, 0
0, 0
0, 0
0, 0
0, 0
0, 0
0, 0
0, 0
0, 0
0, 0
0, 0
0, 0
0, 0
0, 0
0, 0
0, 0
0, 0
0, 0
0, 0
0, 0
0, 0
0, 0
0, 0
0, 0
0, 0
0, 0
0, 0
0, 0
0, 0
0, 0
0, 0
0, 0
0, 0
0, 0
0, 0
0, 0
0, 0
0, 0
0, 0
0, 0
0, 0
0, 0
0, 0
0, 0
0, 0
0, 0
0, 0
0, 0
0, 0
0, 0
0, 0
0, 0
0, 0
0, 0
0, 0
0, 0
0, 0
0, 0
0, 0
0, 0
0, 0
0, 0
0, 0
0, 0
0, 0
0, 0
0, 0
0, 0
0, 0
0, 0
0, 0
0, 0
0, 0
0, 0
0, 0
0, 0
0, 0
0, 0
0, 0
0, 0
0, 0
0, 0
0, 0
0, 0
0, 0
0, 0
0, 0
0, 0
0, 0
0, 0
0, 0
0, 0
0, 0
0, 0
0, 0
0, 0
0, 0
0, 0
0, 0
0, 0
0, 0
0, 0
0, 0
0, 0
0, 0
0, 0
0, 0
0, 0
0, 0
0, 0
0, 0
0, 0
0, 0
0, 0
0, 0
0, 0
0, 0
0, 0
0, 0
0, 0
0, 0
0, 0
0, 0
0, 0
0, 0
0, 0
0, 0
0, 0
0, 0
0, 0
0, 0
0, 0
0, 0
0, 0
0, 0
0, 0
0, 0
0, 0
0, 0
0, 0
0, 0
0, 0
0, 0
0, 0
0, 0
0, 0
0, 0
0, 0
0, 0
0, 0
0, 0
0, 0
0, 0
0, 0
0, 0
0, 0
0, 0
0, 0
0, 0
0, 0
0, 0
0, 0
0, 0
0, 0
0, 0
0, 0
0, 0
0, 0
0, 0
0, 0
0, 0
0, 0
0, 0
0, 0
0, 0
0, 0
0, 0
0, 0
0, 0
0, 0
0, 0
0, 0
0, 0
0, 0
0, 0
0, 0
0, 0
0, 0
0, 0
0, 0
0, 0
0, 0
0, 0
0, 0
0, 0
0, 0
0, 0
0, 0
0, 0
0, 0
0, 0
0, 0
0, 0
0, 0
0, 0
0, 0
0, 0
0, 0
0, 0
0, 0
0, 0
0, 0
0, 0
0, 0
0, 0
0, 0
0, 0
0, 0
0, 0
0, 0
0, 0
0, 0
0, 0
0, 0
0, 0
0, 0
0, 0
0, 0
0, 0
0, 0
0, 0
0, 0
0, 0
0, 0
0, 0
0, 0
0, 0
0, 0
0, 0
0, 0
0, 0
0, 0
0, 0
0, 0
0, 0
0, 0
0, 0
0, 0
0, 0
0, 0
0, 0
0, 0
0, 0
0, 0
0, 0
0, 0
0, 0
0, 0
0, 0
0, 0
0, 0
0, 0
0, 0
0, 0
0, 0
0, 0
0, 0
0, 0
0, 0
0, 0
0, 0
0, 0
0, 0
0, 0
0, 0
0, 0
0, 0
0, 0
0, 0
0, 0
0, 0
0, 0
0, 0
0, 0
0, 0
0, 0
0, 0
0, 0
0, 0
0, 0
0, 0
0, 0
0, 0
0, 0
0, 0
0, 0
0, 0
0, 0
0, 0
0, 0
0, 0
0, 0
0, 0
0, 0
0, 0
0, 0
0, 0
0, 0
0, 0
0, 0
0, 0
0, 0
0, 0
0, 0
0, 0
0, 0
0, 0
0, 0
0, 0
0, 0
0, 0
0, 0
0, 0
0, 0
0, 0
0, 0
0, 0
0, 0
0, 0
0, 0
0, 0
0, 0
#ENDOFDATA     end of spectrum data