File: host_upload/06-09-2024/ps_0852/dump3/ps__0852shot_2308.msa
#FORMAT      : EMSA/MAS spectral data file
#VERSION     : TC202v2.0 PIXL
#TITLE       : N/A
#DATE        :       Date in the format DD-MMM-YYYY, for example 07-JUL-2010
#TIME        :             The time of day at which the spectrum was recorded, in 24-hour format
#OWNER       : PIXL Flight Model       (PIXL will use this to indicate which instrument took the data.)
#NPOINTS     : 4096     Number of data points in the spectrum (This can be zero for configuration only files)
#NCOLUMNS    : 2     Number of data columns in the spectrum (This can be zero for configuration only files)
#XUNITS      : eV
#YUNITS      : COUNTS
#DATATYPE    : YY
#XPERCHAN    : 7.862, 7.881   eV per channel (separate by commas if more than one detector)
#OFFSET      : 18.5, -22.4         eV of first channel  (separate by commas if more than one detector
#SIGNALTYPE  : XRF
#YP_TEMP     : 2.235
#LIVETIME    : 8.54534, 8.56558   seconds (separate by commas if more than one detector)
#REALTIME    : 10, 10.0   seconds (separate by commas if more than one detector)
#SPECTRUM    : start of spectrum data
0, 0
0, 0
0, 0
0, 0
0, 0
0, 0
0, 0
0, 0
0, 0
0, 0
0, 0
0, 0
0, 0
0, 0
0, 0
0, 0
0, 0
0, 0
0, 0
0, 0
0, 0
0, 0
0, 0
0, 0
0, 0
0, 0
0, 0
0, 0
0, 0
0, 0
0, 0
0, 0
0, 0
0, 0
1, 0
0, 0
0, 0
2, 0
0, 2
2, 0
1, 2
1, 0
1, 3
0, 2
2, 1
1, 0
1, 0
2, 2
7, 5
3, 5
14, 9
33, 31
34, 43
47, 60
61, 60
60, 56
52, 37
26, 48
21, 17
17, 9
7, 5
1, 9
2, 4
4, 3
7, 2
3, 3
15, 7
16, 9
20, 15
40, 50
91, 97
149, 138
260, 240
336, 318
396, 362
428, 359
379, 297
337, 211
190, 149
141, 123
83, 52
43, 37
26, 14
8, 8
7, 5
4, 3
4, 4
4, 3
6, 1
2, 4
3, 2
3, 2
5, 4
3, 1
8, 8
10, 9
15, 18
25, 10
27, 26
24, 23
25, 19
22, 13
19, 16
8, 6
10, 7
5, 8
7, 9
13, 14
27, 23
31, 41
48, 41
62, 66
75, 81
96, 89
90, 92
70, 70
76, 67
72, 64
55, 41
39, 29
36, 39
52, 29
19, 29
27, 18
21, 32
20, 21
17, 14
19, 19
10, 13
10, 11
3, 7
8, 3
3, 4
5, 6
3, 4
8, 2
5, 5
16, 1
9, 4
13, 6
7, 4
4, 2
4, 2
5, 2
0, 3
5, 4
7, 3
2, 1
9, 4
9, 4
22, 12
27, 13
37, 22
71, 38
89, 56
119, 82
152, 96
137, 106
172, 96
144, 78
106, 69
76, 42
58, 32
28, 23
27, 14
11, 6
14, 9
12, 8
14, 7
23, 21
25, 18
30, 30
27, 23
22, 12
26, 18
22, 12
19, 11
14, 5
28, 8
22, 10
25, 4
25, 10
16, 6
16, 1
10, 2
8, 3
7, 4
11, 3
11, 10
13, 12
14, 13
17, 15
19, 17
21, 11
27, 15
10, 10
19, 19
18, 20
31, 7
30, 12
29, 8
49, 12
59, 7
73, 9
91, 3
98, 10
94, 6
113, 6
93, 9
75, 9
53, 10
40, 11
19, 20
20, 23
17, 32
12, 34
6, 49
7, 55
6, 45
5, 34
5, 33
5, 27
10, 24
7, 20
21, 27
8, 21
18, 20
16, 29
27, 27
28, 31
24, 27
23, 22
27, 20
20, 16
13, 25
23, 18
14, 15
13, 12
9, 9
13, 9
7, 7
8, 11
11, 8
8, 11
10, 13
17, 15
15, 34
34, 39
42, 60
45, 61
63, 59
48, 57
67, 47
44, 37
45, 37
34, 38
40, 23
18, 25
11, 24
17, 20
9, 24
26, 36
47, 52
83, 100
164, 180
263, 349
505, 543
817, 832
1192, 1234
1574, 1568
1946, 2013
2370, 2211
2507, 2249
2500, 1948
2269, 1744
1817, 1441
1395, 981
975, 630
605, 390
371, 218
201, 137
117, 61
59, 27
37, 24
25, 17
24, 19
22, 12
20, 12
21, 20
26, 24
31, 30
41, 39
67, 54
72, 66
107, 121
165, 152
215, 208
248, 273
303, 309
323, 346
393, 358
344, 331
298, 261
283, 215
178, 163
134, 107
87, 68
66, 58
49, 24
16, 16
3, 7
10, 14
10, 8
10, 9
9, 16
9, 16
16, 18
11, 21
18, 15
24, 19
15, 20
11, 14
7, 16
7, 12
7, 12
3, 14
3, 5
5, 4
6, 5
4, 7
6, 3
6, 6
8, 5
2, 4
4, 8
4, 5
7, 11
9, 10
19, 3
19, 7
20, 8
24, 6
36, 8
28, 7
31, 4
25, 6
25, 3
17, 2
17, 5
11, 6
10, 8
8, 4
15, 7
6, 7
7, 5
6, 8
8, 1
5, 2
8, 4
4, 2
6, 5
2, 5
4, 7
7, 4
9, 2
5, 7
3, 3
6, 4
8, 2
2, 5
9, 4
1, 1
6, 4
3, 3
8, 4
7, 5
2, 0
5, 3
5, 3
5, 4
9, 5
4, 5
6, 2
5, 3
5, 5
6, 3
5, 1
3, 4
5, 2
5, 3
3, 2
4, 4
3, 1
0, 3
1, 1
4, 0
2, 6
2, 5
5, 2
5, 8
4, 3
5, 2
0, 2
4, 1
8, 9
2, 2
7, 5
3, 2
3, 3
6, 1
5, 1
9, 4
3, 5
13, 7
8, 4
4, 1
8, 4
4, 1
3, 4
4, 5
2, 5
6, 4
3, 3
9, 3
7, 3
4, 5
6, 6
3, 3
5, 5
4, 3
1, 2
5, 2
2, 2
5, 4
3, 4
3, 2
3, 1
3, 5
5, 2
3, 3
4, 4
3, 4
4, 2
4, 2
6, 2
2, 3
10, 3
3, 4
2, 3
4, 4
5, 1
3, 3
4, 0
1, 8
6, 2
2, 3
5, 5
2, 3
2, 3
6, 5
2, 1
3, 0
3, 0
2, 0
4, 5
2, 0
0, 2
2, 3
2, 1
3, 1
2, 0
0, 1
1, 1
2, 2
3, 3
2, 1
3, 3
4, 3
1, 3
3, 2
1, 4
0, 3
2, 4
3, 1
1, 3
3, 2
5, 6
3, 2
1, 2
1, 2
2, 3
2, 2
3, 1
1, 2
1, 0
1, 1
5, 0
1, 2
2, 6
1, 4
4, 2
3, 3
2, 5
3, 2
3, 1
2, 1
3, 4
2, 1
1, 1
1, 0
3, 0
2, 2
0, 2
1, 0
3, 2
2, 3
1, 0
2, 2
2, 3
5, 3
4, 2
0, 4
3, 0
0, 1
3, 2
3, 0
2, 0
4, 1
1, 3
2, 2
1, 2
3, 1
1, 0
2, 2
2, 3
2, 2
6, 1
2, 6
4, 1
8, 5
1, 2
5, 3
6, 3
4, 2
10, 2
3, 5
4, 5
5, 3
7, 3
0, 2
2, 1
1, 4
1, 3
2, 2
3, 0
1, 2
3, 1
1, 1
2, 4
2, 1
0, 3
0, 2
2, 3
1, 2
2, 2
0, 2
0, 2
3, 1
4, 2
1, 1
2, 1
1, 1
2, 3
0, 2
1, 2
3, 1
2, 2
1, 0
2, 2
0, 3
0, 0
2, 2
1, 0
0, 0
1, 2
1, 0
2, 1
1, 2
1, 4
0, 2
4, 0
0, 2
2, 0
1, 1
1, 0
1, 0
0, 2
2, 0
0, 2
3, 1
0, 3
0, 4
0, 0
1, 0
2, 0
3, 0
2, 0
2, 2
1, 0
2, 1
1, 1
2, 1
0, 1
1, 0
1, 2
3, 0
0, 0
0, 0
1, 3
3, 0
1, 2
1, 2
0, 0
1, 0
0, 2
1, 2
0, 1
0, 1
2, 1
0, 3
0, 0
0, 0
0, 0
1, 0
1, 0
0, 2
2, 0
0, 0
1, 1
1, 1
3, 1
1, 0
1, 1
0, 0
1, 1
0, 1
0, 1
0, 0
0, 1
1, 0
0, 0
2, 1
1, 1
1, 0
0, 1
0, 0
1, 0
0, 0
0, 0
1, 0
0, 1
0, 0
0, 2
0, 0
1, 0
0, 0
1, 0
2, 0
1, 0
0, 0
2, 0
0, 0
0, 1
0, 2
0, 0
1, 2
0, 2
1, 0
1, 1
0, 1
0, 0
0, 1
1, 0
0, 0
1, 1
1, 0
0, 0
0, 0
0, 1
2, 0
0, 1
0, 0
0, 0
0, 0
0, 0
0, 0
1, 1
2, 1
1, 0
0, 0
0, 0
2, 3
0, 0
0, 0
0, 0
1, 0
0, 2
0, 1
0, 0
1, 1
0, 0
1, 1
1, 1
1, 0
1, 0
0, 1
0, 0
0, 0
0, 1
1, 0
1, 0
1, 1
0, 1
0, 0
0, 0
0, 0
0, 0
0, 0
0, 0
0, 0
0, 0
0, 0
0, 0
0, 0
0, 2
0, 0
0, 0
0, 0
1, 0
0, 1
0, 0
0, 0
1, 1
3, 0
0, 0
0, 0
0, 0
0, 0
0, 0
0, 0
0, 0
1, 0
1, 0
0, 0
0, 1
0, 0
0, 0
0, 0
1, 0
2, 2
1, 0
0, 0
1, 0
0, 0
0, 0
0, 0
0, 0
0, 2
0, 0
1, 0
1, 0
0, 0
0, 1
0, 0
0, 0
1, 0
1, 0
0, 2
0, 1
0, 1
1, 0
0, 0
0, 0
0, 1
0, 0
1, 1
0, 0
2, 0
0, 0
1, 0
2, 0
0, 2
0, 1
0, 1
0, 0
1, 0
0, 0
0, 0
0, 0
1, 1
0, 1
0, 0
0, 0
0, 0
0, 0
0, 0
1, 0
0, 0
1, 0
0, 0
1, 1
0, 0
0, 0
0, 0
0, 1
0, 0
0, 0
0, 0
0, 0
0, 0
0, 0
0, 0
0, 0
0, 0
0, 0
0, 1
0, 0
0, 0
0, 0
0, 0
0, 0
0, 0
0, 0
0, 0
0, 0
0, 0
0, 1
0, 0
0, 0
0, 0
0, 0
0, 0
0, 0
0, 0
0, 0
0, 0
0, 0
0, 0
1, 0
1, 0
0, 0
0, 0
0, 1
0, 0
0, 1
0, 1
1, 0
0, 0
0, 0
0, 0
0, 0
0, 1
0, 0
0, 0
0, 0
0, 0
0, 0
0, 0
0, 0
0, 0
0, 0
0, 0
0, 0
0, 0
0, 1
0, 0
0, 0
0, 0
0, 0
0, 0
0, 0
0, 0
0, 0
1, 0
0, 0
0, 1
0, 0
0, 0
0, 1
0, 0
0, 0
0, 0
0, 0
0, 0
0, 0
0, 0
0, 0
0, 0
0, 0
0, 0
0, 1
0, 0
0, 1
0, 0
0, 0
0, 0
0, 0
0, 0
0, 0
0, 0
0, 0
0, 0
0, 0
0, 0
0, 0
0, 0
0, 0
0, 0
0, 0
0, 1
0, 0
0, 0
0, 0
0, 0
0, 0
0, 0
0, 0
0, 0
0, 0
0, 0
0, 0
0, 0
0, 0
1, 1
0, 0
0, 0
0, 0
0, 0
0, 0
0, 0
0, 0
0, 0
0, 0
0, 0
0, 0
0, 0
0, 0
0, 0
0, 0
0, 0
0, 0
0, 0
0, 0
0, 0
0, 0
0, 0
0, 0
0, 0
0, 0
0, 0
0, 0
0, 1
0, 0
0, 0
0, 0
0, 0
0, 0
0, 0
0, 0
0, 0
0, 0
0, 0
0, 0
0, 0
0, 0
0, 0
0, 0
0, 0
0, 0
0, 0
0, 0
0, 0
0, 0
0, 0
0, 0
0, 0
0, 0
0, 0
0, 0
0, 0
0, 0
0, 0
0, 0
0, 0
0, 0
0, 0
0, 0
0, 0
0, 0
0, 0
0, 0
0, 0
0, 0
0, 0
0, 0
0, 0
0, 0
0, 0
0, 0
0, 0
0, 0
0, 0
0, 0
0, 0
0, 0
0, 0
0, 0
0, 0
0, 0
0, 0
0, 0
0, 0
0, 0
0, 0
0, 0
0, 0
0, 0
0, 0
0, 0
0, 0
0, 0
0, 0
0, 0
0, 0
0, 0
0, 0
0, 0
0, 0
0, 0
0, 0
0, 0
0, 0
0, 0
0, 0
0, 0
0, 0
0, 0
0, 0
0, 0
0, 0
0, 0
0, 0
0, 0
0, 0
0, 0
0, 0
0, 0
0, 0
0, 0
0, 0
0, 0
0, 0
0, 0
0, 0
0, 0
0, 0
0, 0
0, 0
0, 0
0, 0
0, 0
0, 0
0, 0
0, 0
0, 0
0, 0
0, 0
0, 0
0, 0
0, 0
0, 0
0, 0
0, 0
0, 0
0, 0
0, 0
0, 0
0, 0
0, 0
0, 0
0, 0
0, 0
0, 0
0, 0
0, 0
0, 0
0, 0
0, 0
0, 0
0, 0
0, 0
0, 0
0, 0
0, 0
0, 0
0, 0
0, 0
0, 0
0, 0
0, 0
0, 0
0, 0
0, 0
0, 0
0, 0
0, 0
0, 0
0, 0
0, 0
0, 0
0, 0
0, 0
0, 0
0, 0
0, 0
0, 0
0, 0
0, 0
0, 0
0, 0
0, 0
0, 0
0, 0
0, 0
0, 0
0, 0
0, 0
0, 0
0, 0
0, 0
0, 0
0, 0
0, 0
0, 0
0, 0
0, 0
0, 0
0, 0
0, 0
0, 0
0, 0
0, 0
0, 0
0, 0
0, 0
0, 0
0, 0
0, 0
0, 0
0, 0
0, 0
0, 0
0, 0
0, 0
0, 0
0, 0
0, 0
0, 0
0, 0
0, 0
0, 0
0, 0
0, 0
0, 0
0, 0
0, 0
0, 0
0, 0
0, 0
0, 0
0, 0
0, 0
0, 0
0, 0
0, 0
0, 0
0, 0
0, 0
0, 0
0, 0
0, 0
0, 0
0, 0
0, 0
0, 0
0, 0
0, 0
0, 0
0, 0
0, 0
0, 0
0, 0
0, 0
0, 0
0, 0
0, 0
0, 0
0, 0
0, 0
0, 0
0, 0
0, 0
0, 0
0, 0
0, 0
0, 0
0, 0
0, 0
0, 0
0, 0
0, 0
0, 0
0, 0
0, 0
0, 0
0, 0
0, 0
0, 0
0, 0
0, 0
0, 0
0, 0
0, 0
0, 0
0, 0
0, 0
0, 0
0, 0
0, 0
0, 0
0, 0
0, 0
0, 0
0, 0
0, 0
0, 0
0, 0
0, 0
0, 0
0, 0
0, 0
0, 0
0, 0
0, 0
0, 0
0, 0
0, 0
0, 0
0, 0
0, 0
0, 0
0, 0
0, 0
0, 0
0, 0
0, 0
0, 0
0, 0
0, 0
0, 0
0, 0
0, 0
0, 0
0, 0
0, 0
0, 0
0, 0
0, 0
0, 0
0, 0
0, 0
0, 0
0, 0
0, 0
0, 0
0, 0
0, 0
0, 0
0, 0
0, 0
0, 0
0, 0
0, 0
0, 0
0, 0
0, 0
0, 0
0, 0
0, 0
0, 0
0, 0
0, 0
0, 0
0, 0
0, 0
0, 0
0, 0
0, 0
0, 0
0, 0
0, 0
0, 0
0, 0
0, 0
0, 0
0, 0
0, 0
0, 0
0, 0
0, 0
0, 0
0, 0
0, 0
0, 0
0, 0
0, 0
0, 0
0, 0
0, 0
0, 0
0, 0
0, 0
0, 0
0, 0
0, 0
0, 0
0, 0
0, 0
0, 0
0, 0
0, 0
0, 0
0, 0
0, 0
0, 0
0, 0
0, 0
0, 0
0, 0
0, 0
0, 0
0, 0
0, 0
0, 0
0, 0
0, 0
0, 0
0, 0
0, 0
0, 0
0, 0
0, 0
0, 0
0, 0
0, 0
0, 0
#ENDOFDATA     end of spectrum data