File: host_upload/06-09-2024/ps_0852/dump3/ps__0852shot_2052.msa
#FORMAT      : EMSA/MAS spectral data file
#VERSION     : TC202v2.0 PIXL
#TITLE       : N/A
#DATE        :       Date in the format DD-MMM-YYYY, for example 07-JUL-2010
#TIME        :             The time of day at which the spectrum was recorded, in 24-hour format
#OWNER       : PIXL Flight Model       (PIXL will use this to indicate which instrument took the data.)
#NPOINTS     : 4096     Number of data points in the spectrum (This can be zero for configuration only files)
#NCOLUMNS    : 2     Number of data columns in the spectrum (This can be zero for configuration only files)
#XUNITS      : eV
#YUNITS      : COUNTS
#DATATYPE    : YY
#XPERCHAN    : 7.862, 7.881   eV per channel (separate by commas if more than one detector)
#OFFSET      : 18.5, -22.4         eV of first channel  (separate by commas if more than one detector
#SIGNALTYPE  : XRF
#YP_TEMP     : 2.203
#LIVETIME    : 8.53929, 8.52727   seconds (separate by commas if more than one detector)
#REALTIME    : 10, 10.0   seconds (separate by commas if more than one detector)
#SPECTRUM    : start of spectrum data
0, 0
0, 0
0, 0
0, 0
0, 0
0, 0
0, 0
0, 0
0, 0
0, 0
0, 0
0, 0
0, 0
0, 0
0, 0
0, 0
0, 0
0, 0
0, 0
0, 0
0, 0
0, 0
0, 0
0, 0
0, 0
0, 0
0, 0
0, 0
0, 0
1, 0
0, 0
0, 0
0, 0
0, 0
0, 0
0, 0
1, 0
1, 0
0, 3
0, 6
0, 7
0, 4
1, 9
0, 4
1, 2
0, 2
1, 3
2, 1
7, 7
10, 14
31, 26
37, 52
62, 66
83, 78
104, 81
82, 51
60, 53
58, 30
33, 30
18, 13
12, 7
5, 8
9, 4
2, 4
5, 3
4, 5
7, 5
12, 6
25, 30
61, 49
109, 85
186, 158
290, 304
379, 354
453, 382
458, 409
409, 342
290, 279
216, 182
125, 125
64, 70
29, 41
22, 16
16, 10
4, 5
3, 3
0, 3
0, 0
0, 0
2, 1
1, 1
0, 0
2, 0
5, 0
3, 1
2, 2
2, 3
2, 3
1, 4
2, 1
2, 4
1, 1
4, 1
2, 6
4, 0
1, 4
4, 9
4, 14
9, 22
7, 49
15, 75
20, 134
23, 176
19, 239
26, 246
29, 272
29, 232
24, 191
22, 147
21, 87
15, 49
19, 44
15, 22
17, 17
12, 17
10, 10
11, 13
6, 4
8, 5
4, 5
3, 1
4, 3
4, 3
5, 1
3, 1
7, 1
6, 4
2, 2
8, 0
5, 1
5, 1
5, 1
2, 0
5, 1
3, 1
2, 1
2, 0
1, 4
3, 0
1, 1
1, 2
3, 3
3, 6
4, 9
15, 9
6, 9
8, 9
23, 18
18, 14
23, 9
11, 9
16, 7
9, 4
6, 5
7, 1
7, 3
4, 1
8, 3
7, 4
11, 2
4, 5
7, 4
4, 4
3, 1
7, 5
5, 9
4, 11
5, 6
1, 9
3, 5
2, 8
1, 4
6, 6
5, 9
2, 2
5, 3
8, 8
4, 0
3, 4
7, 6
6, 7
6, 9
7, 12
15, 11
17, 7
13, 19
19, 21
28, 13
25, 25
36, 17
44, 12
40, 12
46, 7
52, 8
37, 7
45, 4
38, 4
51, 4
41, 11
28, 6
25, 6
26, 5
20, 5
11, 5
7, 6
11, 5
10, 7
5, 6
3, 5
5, 6
5, 8
7, 6
10, 15
8, 11
6, 17
12, 32
7, 28
17, 33
13, 34
8, 27
13, 22
12, 17
15, 17
8, 17
12, 12
6, 17
8, 10
10, 15
7, 7
12, 7
4, 10
9, 16
12, 20
11, 15
12, 28
14, 29
16, 35
32, 38
38, 52
67, 59
59, 60
69, 61
68, 44
53, 36
40, 31
33, 35
22, 13
18, 19
14, 19
25, 25
18, 22
33, 36
46, 59
94, 101
172, 176
267, 394
508, 550
807, 877
1157, 1245
1597, 1722
2007, 2007
2286, 2249
2543, 2300
2390, 2204
2085, 1852
1837, 1449
1381, 1075
967, 717
649, 419
396, 259
207, 153
127, 70
60, 38
32, 31
18, 16
15, 10
12, 6
16, 13
15, 12
16, 19
22, 29
21, 45
50, 50
72, 94
106, 120
140, 155
188, 219
235, 279
290, 298
361, 348
379, 307
344, 277
333, 229
279, 187
238, 141
161, 101
97, 66
75, 39
39, 16
29, 15
15, 8
14, 7
13, 5
9, 10
12, 9
11, 6
20, 14
11, 7
11, 9
20, 10
12, 11
7, 14
8, 9
8, 7
7, 6
4, 8
4, 4
7, 4
5, 5
4, 5
4, 4
5, 1
6, 3
7, 4
3, 3
5, 9
10, 9
8, 5
9, 8
5, 23
10, 5
9, 12
9, 12
12, 10
6, 16
8, 10
7, 11
14, 2
6, 6
4, 2
2, 5
9, 1
4, 11
5, 5
7, 7
5, 9
0, 7
2, 1
3, 7
2, 3
3, 6
3, 2
4, 4
2, 4
3, 3
3, 3
2, 2
6, 5
3, 6
3, 10
2, 5
6, 7
8, 10
5, 5
10, 12
10, 3
13, 2
11, 4
15, 3
14, 5
13, 2
15, 7
5, 1
15, 3
7, 7
2, 4
13, 7
6, 2
4, 2
5, 3
7, 7
5, 4
6, 8
7, 4
3, 1
3, 6
7, 3
1, 3
6, 4
7, 4
6, 4
5, 2
6, 5
4, 3
2, 1
2, 6
5, 5
5, 2
4, 7
5, 5
3, 3
3, 7
3, 2
5, 6
2, 8
6, 3
3, 5
3, 4
4, 2
1, 7
1, 5
2, 3
3, 8
2, 7
2, 10
1, 6
7, 5
4, 9
5, 7
8, 6
5, 5
2, 2
7, 5
1, 5
5, 1
4, 6
2, 4
3, 4
1, 4
8, 3
2, 3
6, 3
4, 4
6, 1
5, 1
2, 2
2, 2
3, 1
2, 2
5, 3
2, 2
3, 1
5, 3
3, 4
4, 7
7, 1
5, 3
7, 1
2, 0
3, 0
3, 2
2, 4
2, 1
3, 1
1, 3
0, 1
0, 2
3, 2
2, 0
4, 5
2, 2
0, 1
2, 3
2, 2
1, 3
5, 0
1, 3
1, 0
2, 2
5, 0
4, 4
1, 3
2, 2
3, 1
2, 0
2, 1
0, 1
2, 2
0, 3
3, 6
3, 3
1, 4
1, 3
1, 1
1, 1
2, 4
1, 4
2, 3
2, 4
0, 2
4, 2
3, 3
3, 4
2, 3
0, 2
2, 2
2, 3
2, 0
4, 1
0, 2
1, 1
2, 2
2, 1
4, 4
0, 2
2, 1
1, 1
1, 2
1, 0
1, 3
2, 3
0, 1
0, 0
4, 1
0, 3
5, 3
1, 0
1, 4
5, 4
1, 0
0, 3
0, 2
2, 1
4, 3
1, 4
2, 3
3, 3
3, 1
3, 1
2, 3
4, 5
0, 4
3, 5
2, 0
2, 5
4, 5
1, 2
6, 4
5, 2
5, 2
3, 1
0, 0
2, 1
2, 1
3, 1
0, 1
2, 4
2, 2
1, 1
2, 2
6, 2
1, 0
3, 0
1, 1
1, 3
0, 1
2, 0
1, 2
3, 0
0, 1
1, 1
3, 3
3, 0
2, 0
1, 1
1, 2
4, 1
1, 2
0, 3
2, 0
1, 4
1, 2
2, 0
0, 2
0, 2
1, 2
0, 1
0, 1
3, 2
1, 1
1, 0
1, 2
0, 1
1, 1
0, 0
1, 2
1, 1
0, 1
0, 1
1, 0
2, 1
1, 1
2, 0
3, 1
0, 0
1, 1
2, 4
0, 1
2, 1
1, 2
1, 0
0, 0
2, 1
0, 2
0, 2
0, 0
1, 1
2, 0
1, 0
3, 1
0, 0
0, 0
1, 1
0, 1
0, 2
0, 1
0, 0
0, 2
1, 0
0, 0
1, 0
0, 1
1, 2
0, 1
0, 1
0, 1
0, 0
0, 1
1, 1
0, 1
1, 1
1, 2
0, 0
0, 0
2, 0
0, 1
2, 1
0, 0
1, 0
1, 0
0, 0
1, 3
1, 0
1, 0
1, 0
0, 0
2, 1
0, 1
0, 1
0, 1
0, 1
0, 1
0, 0
1, 1
0, 1
1, 2
0, 0
3, 1
0, 1
1, 2
1, 0
0, 1
0, 0
1, 1
0, 0
1, 3
1, 1
0, 0
0, 0
0, 0
1, 0
0, 0
1, 0
0, 0
0, 1
0, 0
3, 0
0, 0
1, 0
0, 0
1, 0
0, 0
0, 0
0, 0
0, 1
0, 0
0, 2
0, 1
0, 0
2, 0
0, 0
0, 1
0, 2
1, 0
0, 0
1, 1
0, 0
0, 0
1, 1
0, 0
0, 2
1, 2
0, 2
1, 0
2, 1
0, 0
0, 0
0, 0
0, 0
1, 1
1, 0
0, 0
1, 0
2, 0
0, 0
1, 0
0, 0
1, 1
0, 1
0, 0
0, 0
0, 0
0, 0
0, 0
0, 0
0, 1
0, 0
0, 1
0, 0
1, 0
1, 1
0, 0
0, 0
0, 1
0, 0
1, 0
0, 1
0, 0
0, 1
1, 0
1, 0
0, 0
2, 0
0, 0
0, 0
0, 0
0, 0
0, 0
0, 0
1, 0
0, 0
0, 0
0, 1
0, 0
0, 1
0, 0
0, 0
1, 0
0, 0
0, 1
0, 0
0, 0
0, 0
0, 0
0, 0
0, 1
1, 0
0, 0
0, 0
0, 0
0, 0
0, 0
2, 0
1, 0
1, 0
0, 0
0, 0
0, 0
0, 0
0, 0
0, 1
0, 1
0, 0
0, 0
1, 0
0, 0
1, 0
0, 0
0, 0
0, 0
0, 0
0, 0
0, 0
0, 0
0, 0
2, 1
0, 1
1, 0
0, 0
1, 1
1, 0
0, 1
0, 0
0, 0
1, 0
0, 1
0, 0
0, 0
0, 0
0, 0
0, 0
1, 0
0, 0
0, 0
1, 0
0, 0
0, 0
0, 0
0, 0
0, 0
0, 0
0, 0
0, 0
0, 0
0, 0
0, 0
0, 0
1, 0
0, 1
1, 0
0, 0
0, 0
0, 0
0, 0
1, 0
1, 0
0, 0
0, 0
0, 0
0, 0
0, 0
0, 0
0, 0
0, 0
0, 1
0, 0
0, 1
0, 0
0, 1
0, 0
0, 0
2, 0
0, 0
0, 0
0, 0
0, 0
0, 0
0, 0
1, 0
0, 0
0, 0
0, 1
0, 0
0, 0
0, 0
0, 0
0, 0
0, 0
0, 0
0, 0
0, 0
0, 0
0, 0
0, 0
0, 0
0, 0
0, 0
0, 0
0, 0
1, 0
0, 0
0, 0
0, 1
0, 0
0, 0
0, 0
0, 0
1, 0
0, 0
0, 0
0, 0
0, 0
0, 0
0, 0
0, 0
0, 0
0, 0
0, 0
0, 0
0, 0
0, 0
0, 1
0, 0
0, 0
0, 0
0, 0
0, 1
0, 0
0, 0
0, 0
1, 0
0, 0
0, 0
0, 0
0, 0
0, 0
0, 0
0, 0
0, 0
0, 0
0, 0
0, 0
0, 0
0, 0
0, 0
0, 0
0, 0
0, 0
0, 0
0, 0
0, 0
0, 0
0, 0
0, 0
0, 0
0, 0
0, 0
0, 0
0, 0
0, 0
0, 0
0, 0
0, 0
0, 1
0, 0
0, 0
0, 0
0, 0
0, 0
0, 0
0, 0
0, 0
0, 0
0, 0
0, 0
0, 0
0, 0
0, 0
0, 0
0, 0
0, 0
0, 0
0, 0
0, 0
0, 0
0, 0
0, 0
0, 0
0, 0
0, 0
0, 0
0, 0
0, 0
0, 0
0, 0
0, 0
0, 0
0, 0
0, 0
0, 0
0, 0
0, 0
0, 0
0, 0
0, 0
0, 0
0, 0
0, 0
0, 0
0, 0
0, 0
0, 0
0, 0
0, 0
0, 0
0, 0
0, 0
0, 0
0, 0
0, 0
0, 0
0, 1
0, 0
0, 0
0, 0
0, 0
0, 0
0, 0
0, 0
0, 0
0, 0
0, 0
0, 0
0, 0
0, 0
0, 0
0, 0
0, 0
0, 0
0, 0
0, 0
0, 0
0, 0
0, 0
0, 0
0, 0
0, 0
0, 0
0, 0
0, 0
0, 0
0, 0
0, 0
0, 0
0, 0
0, 0
0, 0
0, 0
0, 0
0, 0
0, 0
0, 0
0, 0
0, 0
0, 0
0, 0
0, 0
0, 0
0, 0
0, 0
0, 0
0, 0
0, 0
0, 0
0, 0
0, 0
0, 0
0, 0
0, 0
0, 0
0, 0
0, 0
0, 0
0, 0
0, 0
0, 0
0, 0
0, 0
0, 0
0, 0
0, 0
0, 0
0, 0
0, 0
0, 0
0, 0
0, 0
0, 0
0, 0
0, 0
0, 0
0, 0
0, 0
0, 0
0, 0
0, 0
0, 0
0, 0
0, 0
0, 0
0, 0
0, 0
0, 0
0, 0
0, 0
0, 0
0, 0
0, 0
0, 0
0, 0
0, 0
0, 0
0, 0
0, 0
0, 0
0, 0
0, 0
0, 0
0, 0
0, 0
0, 0
0, 0
0, 0
0, 0
0, 0
0, 0
0, 0
0, 0
0, 0
0, 0
0, 0
0, 0
0, 0
0, 0
0, 0
0, 0
0, 0
0, 0
0, 0
0, 0
0, 0
0, 0
0, 0
0, 0
0, 0
0, 0
0, 0
0, 0
0, 0
0, 0
0, 0
0, 0
0, 0
0, 0
0, 0
0, 0
0, 0
0, 0
0, 0
0, 0
0, 0
0, 0
0, 0
0, 0
0, 0
0, 0
0, 0
0, 0
0, 0
0, 0
0, 0
0, 0
0, 0
0, 0
0, 0
0, 0
0, 0
0, 0
0, 0
0, 0
0, 0
0, 0
0, 0
0, 0
0, 0
0, 0
0, 0
0, 0
0, 0
0, 0
0, 0
0, 0
0, 0
0, 0
0, 0
0, 0
0, 0
0, 0
0, 0
0, 0
0, 0
0, 0
0, 0
0, 0
0, 0
0, 0
0, 0
0, 0
0, 0
0, 0
0, 0
0, 0
0, 0
0, 0
0, 0
0, 0
0, 0
0, 0
0, 0
0, 0
0, 0
0, 0
0, 0
0, 0
0, 0
0, 0
0, 0
0, 0
0, 0
0, 0
0, 0
0, 0
0, 0
0, 0
0, 0
0, 0
0, 0
0, 0
0, 0
0, 0
0, 0
0, 0
0, 0
0, 0
0, 0
0, 0
0, 0
0, 0
0, 0
0, 0
0, 0
0, 0
0, 0
0, 0
0, 0
0, 0
0, 0
0, 0
0, 0
0, 0
0, 0
0, 0
0, 0
0, 0
0, 0
0, 0
0, 0
0, 0
0, 0
0, 0
0, 0
0, 0
0, 0
0, 0
0, 0
0, 0
0, 0
0, 0
0, 0
0, 0
0, 0
0, 0
0, 0
0, 0
0, 0
0, 0
0, 0
0, 0
0, 0
0, 0
0, 0
0, 0
0, 0
0, 0
0, 0
0, 0
0, 0
0, 0
0, 0
0, 0
0, 0
0, 0
0, 0
0, 0
0, 0
0, 0
0, 0
0, 0
0, 0
0, 0
0, 0
0, 0
0, 0
0, 0
0, 0
0, 0
0, 0
0, 0
0, 0
0, 0
0, 0
0, 0
0, 0
0, 0
0, 0
0, 0
0, 0
0, 0
0, 0
0, 0
0, 0
0, 0
0, 0
0, 0
0, 0
0, 0
0, 0
0, 0
0, 0
0, 0
0, 0
0, 0
0, 0
0, 0
0, 0
0, 0
0, 0
0, 0
0, 0
0, 0
0, 0
0, 0
0, 0
0, 0
0, 0
0, 0
0, 0
0, 0
0, 0
0, 0
0, 0
0, 0
0, 0
0, 0
0, 0
0, 0
#ENDOFDATA     end of spectrum data