File: host_upload/06-09-2024/ps_0852/dump3/ps__0852shot_2569.msa
#FORMAT      : EMSA/MAS spectral data file
#VERSION     : TC202v2.0 PIXL
#TITLE       : N/A
#DATE        :       Date in the format DD-MMM-YYYY, for example 07-JUL-2010
#TIME        :             The time of day at which the spectrum was recorded, in 24-hour format
#OWNER       : PIXL Flight Model       (PIXL will use this to indicate which instrument took the data.)
#NPOINTS     : 4096     Number of data points in the spectrum (This can be zero for configuration only files)
#NCOLUMNS    : 2     Number of data columns in the spectrum (This can be zero for configuration only files)
#XUNITS      : eV
#YUNITS      : COUNTS
#DATATYPE    : YY
#XPERCHAN    : 7.862, 7.881   eV per channel (separate by commas if more than one detector)
#OFFSET      : 18.5, -22.4         eV of first channel  (separate by commas if more than one detector
#SIGNALTYPE  : XRF
#YP_TEMP     : 2.46
#LIVETIME    : 8.54763, 8.54899   seconds (separate by commas if more than one detector)
#REALTIME    : 10, 10.0   seconds (separate by commas if more than one detector)
#SPECTRUM    : start of spectrum data
0, 0
0, 0
0, 0
0, 0
0, 0
0, 0
0, 0
0, 0
0, 0
0, 0
0, 0
0, 0
0, 0
0, 0
0, 0
0, 0
0, 0
0, 0
0, 0
0, 0
0, 0
0, 0
0, 0
0, 0
0, 0
0, 0
0, 0
0, 0
0, 0
0, 0
0, 0
0, 0
0, 0
0, 0
0, 1
1, 1
0, 2
1, 1
2, 1
1, 0
2, 2
1, 1
3, 1
1, 0
3, 3
0, 2
1, 0
1, 3
13, 7
11, 6
27, 17
49, 32
54, 60
89, 49
93, 69
81, 72
60, 50
44, 37
18, 20
13, 1
12, 2
3, 5
3, 5
4, 3
6, 5
5, 5
9, 5
11, 7
17, 24
50, 47
90, 85
186, 154
268, 243
436, 309
477, 396
477, 365
415, 331
309, 272
180, 182
135, 95
72, 42
44, 31
29, 13
7, 3
2, 2
4, 3
0, 4
2, 2
2, 2
6, 3
2, 2
2, 2
3, 0
3, 0
3, 5
5, 2
6, 3
8, 7
10, 8
8, 7
11, 5
8, 0
9, 5
9, 2
4, 3
9, 5
4, 3
6, 3
10, 15
17, 11
17, 19
37, 32
52, 20
43, 45
58, 37
66, 38
49, 31
36, 25
35, 20
32, 16
32, 14
29, 20
26, 22
22, 21
16, 13
16, 12
18, 9
17, 10
11, 1
6, 6
4, 8
5, 3
2, 4
6, 2
0, 2
3, 6
3, 2
3, 3
4, 4
3, 2
3, 4
2, 3
1, 2
3, 4
4, 3
5, 1
1, 4
3, 0
2, 1
6, 3
5, 3
5, 4
9, 3
11, 8
6, 8
16, 8
13, 21
13, 24
23, 19
21, 19
17, 12
8, 10
6, 2
6, 6
4, 6
2, 2
2, 2
3, 3
3, 2
5, 6
3, 3
5, 7
5, 3
8, 2
5, 1
5, 0
12, 6
10, 3
10, 6
10, 5
13, 5
27, 3
36, 1
35, 0
47, 2
53, 3
61, 3
40, 5
36, 5
34, 6
26, 3
17, 5
9, 11
8, 11
18, 6
11, 7
10, 18
15, 14
15, 13
13, 15
17, 13
7, 14
9, 15
11, 14
8, 9
3, 14
8, 19
3, 13
5, 21
7, 15
6, 20
10, 13
5, 12
5, 7
5, 8
4, 7
5, 7
9, 9
4, 7
6, 9
6, 9
5, 5
6, 10
4, 5
7, 10
15, 5
11, 7
10, 8
20, 7
10, 10
14, 9
20, 10
15, 15
17, 12
13, 5
19, 14
23, 9
19, 3
25, 10
31, 9
30, 4
43, 5
41, 6
53, 10
57, 8
84, 22
82, 28
89, 36
79, 61
102, 64
95, 50
97, 56
88, 47
49, 44
57, 24
33, 30
24, 19
25, 19
20, 13
26, 13
19, 25
31, 22
48, 38
76, 95
166, 197
259, 351
493, 550
809, 827
1179, 1256
1691, 1664
2189, 1955
2498, 2223
2633, 2280
2550, 2164
2255, 1694
1949, 1430
1401, 1041
954, 671
599, 413
404, 233
165, 130
111, 66
59, 39
31, 31
19, 14
16, 19
10, 11
14, 25
16, 21
23, 27
26, 27
34, 32
47, 53
89, 67
100, 111
183, 151
218, 221
290, 258
340, 304
362, 337
385, 367
373, 287
301, 257
259, 185
221, 149
175, 101
94, 50
68, 36
42, 20
14, 11
21, 7
14, 2
14, 3
8, 6
11, 10
14, 13
8, 14
11, 9
13, 14
16, 14
15, 14
15, 10
12, 6
8, 4
6, 6
7, 2
9, 2
7, 0
7, 2
5, 4
5, 2
1, 0
6, 5
1, 1
4, 0
1, 1
6, 3
4, 5
5, 3
6, 3
5, 7
8, 9
3, 1
6, 2
3, 7
8, 7
5, 4
5, 6
6, 3
8, 4
2, 6
8, 9
4, 11
7, 10
4, 9
5, 10
5, 6
8, 12
4, 13
10, 12
4, 18
6, 14
9, 7
16, 14
12, 6
9, 15
11, 6
16, 9
22, 9
25, 8
19, 9
29, 5
23, 9
20, 5
15, 7
9, 4
11, 3
16, 6
4, 12
3, 15
5, 8
3, 14
5, 9
5, 7
0, 2
0, 6
2, 5
1, 0
6, 6
2, 1
4, 4
6, 2
3, 5
3, 4
3, 6
4, 3
4, 9
6, 7
4, 9
1, 6
4, 12
2, 10
5, 10
4, 20
2, 25
4, 22
3, 18
5, 22
6, 12
5, 17
6, 13
8, 3
6, 12
14, 4
7, 6
10, 3
6, 7
13, 6
11, 5
3, 1
5, 3
5, 4
3, 4
2, 2
8, 4
6, 5
6, 10
9, 8
3, 0
4, 9
5, 7
8, 7
9, 9
5, 13
7, 5
8, 9
7, 6
2, 8
3, 1
6, 12
5, 7
3, 3
3, 4
5, 1
2, 5
1, 2
2, 0
3, 1
5, 3
2, 0
2, 5
1, 6
2, 1
2, 2
2, 2
3, 5
4, 2
2, 3
2, 2
1, 3
3, 2
5, 3
2, 2
2, 2
2, 3
3, 2
3, 2
1, 1
4, 2
7, 3
1, 5
3, 4
2, 1
3, 1
4, 3
1, 2
5, 1
4, 5
3, 1
5, 2
4, 0
2, 1
0, 1
4, 1
1, 5
5, 2
1, 0
7, 3
4, 1
4, 1
1, 3
2, 0
0, 3
4, 2
4, 2
2, 4
1, 3
3, 0
5, 3
6, 5
1, 4
0, 6
2, 5
5, 3
2, 3
3, 6
2, 7
3, 8
3, 3
2, 6
1, 6
1, 5
1, 3
2, 2
0, 1
2, 1
0, 0
1, 2
4, 3
2, 2
4, 1
4, 2
1, 2
3, 4
3, 2
3, 2
2, 1
1, 1
1, 2
1, 1
0, 2
2, 1
1, 2
4, 2
2, 1
2, 1
2, 5
2, 3
1, 2
3, 1
3, 1
6, 6
7, 5
6, 5
2, 2
3, 7
9, 1
2, 2
1, 3
2, 0
0, 1
0, 3
3, 2
5, 0
3, 1
4, 1
0, 0
3, 1
1, 0
1, 0
2, 2
0, 2
3, 0
1, 2
2, 1
1, 3
0, 0
3, 3
0, 3
1, 0
1, 0
0, 2
4, 1
1, 2
3, 0
0, 2
2, 0
1, 0
3, 0
1, 0
1, 3
4, 0
0, 2
1, 1
0, 2
1, 2
3, 0
2, 1
1, 0
0, 0
0, 2
1, 1
1, 2
1, 0
1, 2
1, 1
3, 0
1, 1
1, 0
0, 0
1, 4
3, 0
1, 0
1, 0
0, 0
0, 2
1, 1
2, 2
1, 4
1, 0
2, 1
3, 1
1, 1
0, 0
0, 0
0, 3
2, 0
1, 0
0, 1
0, 0
0, 2
0, 0
1, 0
0, 1
2, 0
1, 0
0, 0
3, 0
0, 1
0, 1
1, 3
2, 0
0, 2
2, 1
1, 3
1, 2
0, 2
2, 1
2, 0
0, 0
4, 0
0, 0
0, 0
0, 1
0, 2
1, 0
3, 0
1, 0
1, 0
0, 1
0, 1
2, 0
2, 0
1, 1
1, 0
0, 0
1, 0
0, 0
0, 0
2, 0
0, 0
0, 1
0, 0
1, 2
1, 0
1, 0
0, 0
1, 1
1, 0
0, 0
0, 0
2, 0
1, 0
2, 0
0, 2
1, 1
0, 1
0, 2
0, 2
0, 0
0, 1
0, 1
0, 1
3, 1
1, 2
1, 0
0, 0
0, 0
1, 0
0, 2
0, 0
0, 0
2, 0
0, 0
1, 1
0, 0
0, 0
0, 0
1, 0
0, 1
1, 1
0, 1
0, 1
0, 0
1, 3
0, 0
0, 0
0, 0
0, 1
0, 1
1, 0
0, 1
0, 0
1, 0
0, 1
1, 0
0, 0
1, 2
1, 0
0, 1
0, 1
4, 0
0, 1
2, 0
0, 0
1, 1
1, 0
0, 0
0, 0
1, 0
0, 0
0, 0
1, 1
1, 1
3, 0
0, 0
1, 0
0, 0
1, 0
0, 1
1, 0
0, 2
1, 1
0, 1
0, 1
1, 0
1, 0
0, 0
1, 0
0, 1
0, 1
0, 0
0, 0
1, 0
1, 0
0, 0
0, 0
0, 0
0, 0
0, 0
0, 0
1, 0
1, 0
1, 0
0, 0
0, 0
2, 0
1, 1
0, 0
0, 0
0, 1
0, 0
0, 0
1, 1
0, 0
0, 0
1, 0
0, 0
0, 0
0, 1
0, 1
0, 0
0, 0
0, 0
0, 0
1, 0
0, 1
0, 0
0, 0
1, 0
0, 0
0, 1
0, 1
0, 1
0, 0
0, 0
0, 0
1, 0
0, 0
0, 1
0, 0
1, 0
0, 0
0, 0
2, 0
0, 1
0, 0
0, 0
0, 0
0, 0
1, 0
0, 0
0, 0
0, 0
1, 0
0, 0
0, 0
0, 1
0, 0
0, 2
1, 1
1, 0
0, 1
0, 0
0, 0
0, 0
0, 0
0, 0
0, 0
0, 0
0, 0
0, 0
0, 1
1, 1
0, 0
0, 0
0, 0
0, 0
0, 0
0, 0
0, 0
0, 0
0, 0
0, 0
0, 0
0, 1
0, 0
0, 0
1, 0
0, 0
0, 0
1, 0
0, 0
0, 0
2, 0
0, 0
0, 0
0, 1
0, 0
0, 0
0, 0
0, 1
0, 0
0, 0
0, 0
0, 0
0, 1
0, 0
0, 0
0, 0
0, 1
0, 0
0, 0
0, 0
1, 1
0, 0
1, 0
0, 0
0, 0
0, 0
0, 0
0, 0
0, 0
0, 0
0, 0
0, 0
0, 0
0, 0
0, 0
0, 0
0, 0
0, 0
0, 0
0, 0
0, 0
0, 0
0, 0
0, 0
0, 0
0, 0
1, 0
0, 0
0, 0
0, 0
0, 0
0, 0
0, 0
0, 0
0, 0
0, 0
1, 0
0, 0
0, 0
0, 0
0, 0
0, 0
0, 0
0, 0
0, 0
0, 0
0, 0
0, 0
0, 0
0, 1
0, 0
0, 0
0, 0
0, 0
0, 0
0, 0
0, 0
0, 0
0, 0
0, 0
0, 0
0, 0
0, 0
0, 0
0, 0
0, 1
0, 0
0, 0
0, 0
1, 0
0, 0
0, 0
0, 0
0, 0
0, 0
0, 0
0, 0
0, 0
0, 0
0, 0
0, 0
0, 0
0, 0
0, 0
0, 0
0, 0
0, 0
0, 0
0, 0
0, 0
0, 0
0, 0
0, 0
0, 0
0, 0
0, 0
0, 1
0, 0
0, 0
0, 0
0, 1
0, 0
0, 0
0, 0
0, 0
0, 0
0, 0
0, 0
0, 0
0, 0
0, 0
1, 0
0, 1
1, 0
0, 0
0, 0
0, 0
0, 0
0, 0
0, 0
0, 0
0, 0
0, 0
0, 0
0, 0
0, 0
0, 0
0, 0
0, 0
0, 0
0, 0
0, 0
0, 0
0, 0
0, 0
0, 0
0, 0
0, 0
0, 0
0, 0
0, 0
0, 0
0, 0
0, 0
0, 0
0, 0
0, 0
0, 0
0, 0
0, 0
0, 0
0, 0
0, 0
0, 0
0, 0
0, 0
0, 0
0, 0
0, 0
0, 0
1, 0
0, 0
0, 0
0, 0
0, 0
0, 0
0, 0
0, 0
0, 0
0, 0
0, 0
0, 0
0, 0
0, 0
0, 0
0, 0
0, 0
0, 0
0, 0
0, 0
0, 0
0, 0
0, 0
0, 0
0, 0
0, 0
0, 0
0, 0
0, 0
0, 0
0, 0
0, 0
0, 0
0, 0
0, 0
0, 0
0, 0
0, 0
0, 0
0, 0
0, 0
0, 0
0, 0
0, 0
0, 0
0, 0
0, 0
0, 0
0, 0
0, 0
0, 0
0, 0
0, 0
0, 0
0, 0
0, 0
0, 0
0, 0
0, 0
0, 0
0, 0
0, 0
0, 1
0, 0
0, 0
0, 0
0, 0
0, 0
0, 0
0, 0
0, 0
0, 0
0, 0
0, 0
0, 0
0, 0
0, 0
0, 0
0, 0
0, 0
0, 0
0, 0
0, 0
0, 0
0, 0
0, 0
0, 0
0, 0
0, 0
0, 0
0, 0
0, 0
0, 0
0, 0
0, 0
0, 0
0, 0
0, 0
0, 0
0, 0
0, 0
0, 0
0, 0
0, 0
0, 0
0, 0
0, 0
0, 0
0, 0
0, 0
0, 0
0, 0
0, 0
0, 0
0, 0
0, 0
0, 0
0, 0
0, 0
0, 0
0, 0
0, 0
0, 0
0, 0
0, 0
0, 0
0, 0
0, 0
0, 0
0, 0
0, 0
0, 0
0, 0
0, 0
0, 0
0, 0
0, 0
0, 0
0, 0
0, 0
0, 0
0, 0
0, 0
0, 0
0, 0
0, 0
0, 0
0, 0
0, 0
0, 0
0, 0
0, 0
0, 0
0, 0
0, 0
0, 0
0, 0
0, 0
0, 0
0, 0
0, 0
0, 0
0, 0
0, 0
0, 0
0, 0
0, 0
0, 0
0, 0
0, 0
0, 0
0, 0
0, 0
0, 0
0, 0
0, 0
0, 0
0, 0
0, 0
0, 0
0, 0
0, 0
0, 0
0, 0
0, 0
0, 0
0, 0
0, 0
0, 0
0, 0
0, 0
0, 0
0, 0
0, 0
0, 0
0, 0
0, 0
0, 0
0, 0
0, 0
0, 0
0, 0
0, 0
0, 0
0, 0
0, 0
0, 0
0, 0
0, 0
0, 0
0, 0
0, 0
0, 0
0, 0
0, 0
0, 0
0, 0
0, 0
0, 0
0, 0
0, 0
0, 0
0, 0
0, 0
0, 0
0, 0
0, 0
0, 0
0, 0
0, 0
0, 0
0, 0
0, 0
0, 0
0, 0
0, 0
0, 0
0, 0
0, 0
0, 0
0, 0
0, 0
0, 0
0, 0
0, 0
0, 0
0, 0
0, 0
0, 0
0, 0
0, 0
0, 0
0, 0
0, 0
0, 0
0, 0
0, 0
0, 0
0, 0
0, 0
0, 0
0, 0
0, 0
0, 0
0, 0
0, 0
0, 0
0, 0
0, 0
0, 0
0, 0
0, 0
0, 0
0, 0
0, 0
0, 0
0, 0
0, 0
0, 0
0, 0
0, 0
0, 0
0, 0
0, 0
0, 0
0, 0
0, 0
0, 0
0, 0
0, 0
0, 0
0, 0
0, 0
0, 0
0, 0
0, 0
0, 0
0, 0
0, 0
0, 0
0, 0
0, 0
0, 0
0, 0
0, 0
0, 0
0, 0
0, 0
0, 0
0, 0
0, 0
0, 0
0, 0
0, 0
0, 0
0, 0
0, 0
0, 0
0, 0
0, 0
0, 0
0, 0
0, 0
0, 0
0, 0
0, 0
0, 0
0, 0
0, 0
0, 0
0, 0
0, 0
#ENDOFDATA     end of spectrum data