File: host_upload/06-09-2024/ps_0852/dump3/ps__0852shot_2193.msa
#FORMAT      : EMSA/MAS spectral data file
#VERSION     : TC202v2.0 PIXL
#TITLE       : N/A
#DATE        :       Date in the format DD-MMM-YYYY, for example 07-JUL-2010
#TIME        :             The time of day at which the spectrum was recorded, in 24-hour format
#OWNER       : PIXL Flight Model       (PIXL will use this to indicate which instrument took the data.)
#NPOINTS     : 4096     Number of data points in the spectrum (This can be zero for configuration only files)
#NCOLUMNS    : 2     Number of data columns in the spectrum (This can be zero for configuration only files)
#XUNITS      : eV
#YUNITS      : COUNTS
#DATATYPE    : YY
#XPERCHAN    : 7.862, 7.881   eV per channel (separate by commas if more than one detector)
#OFFSET      : 18.5, -22.4         eV of first channel  (separate by commas if more than one detector
#SIGNALTYPE  : XRF
#YP_TEMP     : 2.332
#LIVETIME    : 8.56193, 8.35724   seconds (separate by commas if more than one detector)
#REALTIME    : 10, 10.0   seconds (separate by commas if more than one detector)
#SPECTRUM    : start of spectrum data
0, 0
0, 0
0, 0
0, 0
0, 0
0, 0
0, 0
0, 0
0, 0
0, 0
0, 0
0, 0
0, 0
0, 0
0, 0
0, 0
0, 0
0, 0
0, 0
0, 0
0, 0
0, 0
0, 0
0, 0
0, 0
0, 0
0, 0
0, 0
0, 0
1, 0
0, 0
1, 0
0, 2
0, 0
0, 0
0, 1
0, 1
0, 1
2, 0
0, 1
0, 0
2, 1
3, 1
2, 1
0, 3
1, 3
1, 1
4, 3
8, 6
7, 12
23, 40
50, 34
59, 63
96, 60
92, 77
77, 71
71, 58
59, 42
31, 28
15, 12
7, 8
4, 4
2, 4
3, 2
5, 3
3, 4
11, 8
8, 15
23, 16
48, 53
109, 100
183, 165
295, 232
413, 314
432, 381
458, 363
382, 326
301, 278
221, 183
131, 114
81, 63
34, 34
28, 12
11, 8
5, 4
3, 2
2, 5
1, 1
0, 1
0, 2
1, 0
4, 0
0, 0
0, 2
1, 3
3, 3
5, 2
3, 6
9, 13
4, 5
8, 11
6, 3
3, 2
2, 5
4, 6
4, 6
9, 11
12, 16
14, 20
16, 27
14, 31
19, 46
32, 58
34, 70
63, 94
62, 120
56, 126
58, 125
55, 98
40, 105
39, 90
35, 80
26, 67
23, 49
18, 28
11, 27
15, 17
21, 21
9, 7
6, 8
4, 3
4, 2
2, 2
1, 0
2, 1
3, 2
2, 4
0, 1
2, 3
0, 4
1, 3
2, 0
1, 1
4, 1
1, 1
2, 2
7, 2
4, 2
3, 3
8, 4
12, 6
11, 4
14, 9
20, 12
20, 14
25, 16
32, 14
23, 19
26, 27
17, 23
23, 13
9, 14
8, 10
4, 4
5, 3
9, 6
2, 8
2, 4
9, 4
4, 4
3, 5
11, 10
5, 3
9, 4
4, 5
4, 3
7, 6
5, 7
10, 9
11, 5
10, 9
5, 8
5, 9
13, 8
5, 8
9, 3
5, 10
7, 7
12, 7
8, 10
9, 11
20, 14
20, 12
22, 11
11, 24
21, 23
13, 23
22, 25
7, 30
21, 19
21, 22
18, 19
25, 17
14, 14
28, 13
13, 10
20, 6
10, 15
9, 8
11, 12
12, 5
7, 15
7, 9
10, 13
13, 12
8, 16
7, 9
2, 8
5, 11
10, 3
12, 10
12, 4
13, 8
8, 6
6, 11
14, 12
14, 14
22, 10
22, 16
16, 25
26, 16
25, 19
37, 24
18, 19
19, 23
25, 33
20, 33
18, 34
22, 32
10, 24
10, 41
11, 16
12, 17
22, 27
14, 14
25, 25
30, 38
35, 39
49, 50
69, 47
63, 66
69, 62
62, 66
54, 53
48, 40
43, 31
27, 16
26, 24
22, 19
19, 18
36, 19
39, 24
60, 70
82, 106
185, 173
259, 353
506, 583
799, 879
1167, 1218
1712, 1678
2043, 2065
2383, 2297
2464, 2223
2430, 2197
2287, 1864
1867, 1435
1379, 1037
935, 700
599, 434
421, 245
218, 134
137, 74
72, 38
75, 25
47, 31
59, 21
50, 21
65, 19
70, 23
103, 20
84, 36
89, 42
85, 48
88, 75
114, 112
167, 171
222, 229
250, 273
281, 293
362, 336
373, 343
336, 312
329, 252
228, 206
227, 162
145, 107
84, 57
63, 34
26, 33
23, 24
14, 13
8, 11
7, 10
8, 11
9, 17
9, 12
15, 15
15, 19
12, 19
24, 13
12, 8
14, 17
11, 5
10, 4
8, 7
11, 9
6, 6
4, 9
3, 2
3, 5
4, 9
3, 7
1, 6
8, 8
4, 6
3, 5
3, 10
3, 1
7, 8
6, 4
6, 4
5, 6
6, 5
4, 4
9, 7
8, 4
6, 6
6, 2
0, 4
5, 5
14, 9
4, 3
5, 9
4, 5
6, 8
7, 6
7, 5
11, 3
12, 7
12, 3
3, 3
9, 7
9, 7
8, 5
8, 6
9, 8
6, 3
9, 2
6, 6
7, 7
5, 3
8, 1
7, 4
3, 1
8, 4
9, 4
5, 5
9, 4
5, 4
3, 2
2, 3
1, 6
4, 3
2, 4
5, 5
6, 8
2, 10
5, 9
4, 8
2, 8
5, 8
3, 8
1, 9
3, 13
4, 11
6, 10
7, 6
2, 9
4, 8
3, 8
2, 11
5, 7
4, 4
3, 3
3, 3
6, 6
4, 8
6, 2
4, 3
4, 2
5, 6
5, 5
10, 5
5, 3
3, 8
4, 4
5, 2
3, 3
4, 4
6, 6
6, 4
7, 3
10, 4
4, 1
4, 1
4, 1
3, 3
4, 5
6, 4
4, 2
1, 7
6, 2
3, 3
7, 1
4, 3
7, 4
8, 8
4, 4
7, 5
4, 1
1, 3
5, 5
4, 6
4, 1
1, 5
4, 5
1, 5
1, 1
5, 3
5, 2
1, 4
2, 2
3, 1
1, 3
2, 3
3, 2
1, 0
3, 6
2, 2
2, 3
4, 0
2, 4
4, 4
3, 2
2, 4
1, 3
4, 4
1, 3
3, 2
2, 1
2, 3
2, 4
5, 2
2, 2
4, 1
3, 3
3, 4
2, 2
0, 0
2, 3
1, 1
2, 0
3, 3
2, 5
1, 2
1, 1
3, 8
4, 3
3, 3
1, 2
2, 3
2, 2
0, 4
1, 5
2, 3
1, 4
1, 3
5, 1
3, 1
4, 3
1, 2
4, 3
2, 4
4, 2
5, 2
1, 5
2, 5
3, 3
6, 1
1, 4
3, 0
2, 0
3, 3
4, 3
3, 5
0, 4
4, 0
0, 3
2, 1
2, 1
3, 0
2, 2
2, 2
3, 4
1, 1
2, 3
5, 3
1, 0
1, 1
2, 2
1, 1
3, 4
1, 3
1, 3
3, 3
5, 5
6, 1
1, 4
5, 5
4, 4
5, 4
3, 4
7, 4
2, 5
3, 7
4, 3
3, 3
4, 3
2, 3
2, 1
0, 0
3, 1
2, 1
1, 1
2, 2
2, 1
1, 1
3, 2
3, 0
2, 3
3, 0
1, 1
2, 1
1, 0
3, 2
2, 2
2, 0
4, 1
0, 1
3, 5
2, 0
3, 0
0, 1
3, 2
2, 1
1, 1
0, 0
1, 2
1, 0
0, 0
2, 0
0, 0
2, 1
2, 1
0, 0
0, 0
3, 0
0, 1
0, 1
1, 0
1, 0
0, 1
0, 2
3, 0
3, 2
0, 1
1, 0
1, 1
1, 0
2, 1
2, 1
0, 1
0, 1
3, 0
0, 0
2, 1
0, 1
0, 0
4, 1
0, 2
1, 0
0, 0
1, 0
0, 0
1, 1
2, 2
2, 0
1, 0
0, 0
1, 0
1, 1
1, 1
1, 0
1, 1
1, 1
1, 0
1, 2
1, 0
3, 0
0, 4
2, 0
0, 0
0, 2
0, 1
0, 2
2, 0
2, 3
2, 2
0, 0
0, 1
0, 0
0, 0
2, 2
1, 1
1, 0
0, 0
1, 2
1, 0
0, 0
1, 0
2, 1
1, 0
1, 0
1, 2
1, 0
0, 2
0, 1
0, 0
1, 0
1, 0
0, 0
1, 1
0, 1
2, 0
1, 0
1, 3
1, 0
1, 0
0, 0
1, 2
0, 0
0, 0
1, 0
1, 1
0, 0
0, 0
1, 0
0, 1
1, 1
0, 0
1, 0
0, 0
1, 0
0, 0
1, 0
0, 0
0, 0
2, 0
0, 0
0, 1
0, 1
0, 1
0, 0
0, 1
0, 0
1, 1
0, 0
2, 2
0, 1
0, 0
0, 0
0, 0
1, 0
0, 1
0, 0
0, 0
0, 0
0, 0
1, 0
0, 1
0, 0
2, 0
0, 0
0, 0
1, 0
2, 0
0, 0
0, 0
0, 1
0, 1
0, 0
0, 0
0, 0
0, 0
0, 0
0, 1
1, 1
2, 0
0, 0
3, 1
0, 2
0, 1
0, 2
1, 0
1, 1
0, 0
0, 0
0, 0
0, 0
0, 1
0, 0
0, 1
1, 0
1, 0
0, 0
0, 0
0, 0
0, 0
0, 0
0, 0
0, 0
1, 0
0, 0
0, 0
0, 0
0, 0
0, 0
1, 1
0, 1
0, 0
0, 1
0, 1
1, 1
0, 0
0, 0
0, 0
0, 0
0, 0
0, 0
0, 0
0, 1
0, 0
0, 0
0, 0
0, 1
1, 0
0, 0
0, 0
0, 0
1, 0
0, 1
0, 1
0, 0
0, 1
1, 0
2, 0
0, 0
0, 0
1, 0
0, 0
0, 1
0, 0
1, 0
0, 0
0, 0
0, 1
0, 0
0, 0
0, 0
1, 0
0, 1
1, 1
0, 0
1, 0
0, 1
1, 1
0, 0
0, 0
0, 0
1, 0
0, 0
0, 0
0, 0
0, 0
0, 0
0, 0
0, 0
0, 1
0, 0
0, 0
0, 0
0, 0
1, 0
1, 0
0, 0
0, 0
0, 0
0, 0
1, 0
0, 0
0, 0
0, 0
0, 0
0, 0
0, 0
0, 0
0, 0
0, 0
0, 0
1, 0
0, 0
0, 0
0, 0
0, 0
0, 0
0, 1
1, 0
0, 0
0, 0
0, 0
1, 0
1, 0
0, 1
0, 0
0, 0
0, 0
1, 0
0, 0
0, 0
0, 0
0, 0
0, 0
0, 0
0, 0
1, 0
0, 1
0, 0
0, 0
0, 0
0, 0
0, 0
0, 0
0, 0
0, 1
0, 0
0, 0
0, 1
0, 0
0, 2
0, 0
0, 0
0, 0
0, 0
0, 0
0, 0
0, 1
0, 0
0, 1
0, 0
0, 0
0, 1
0, 0
0, 0
1, 0
0, 0
0, 0
0, 0
0, 0
0, 0
0, 0
1, 0
0, 0
0, 0
0, 0
0, 0
0, 0
0, 0
0, 0
0, 0
0, 0
1, 0
0, 0
0, 0
0, 0
0, 1
0, 0
0, 0
0, 0
0, 0
0, 0
0, 0
0, 1
0, 0
0, 0
0, 0
0, 0
0, 0
0, 0
0, 0
0, 0
0, 0
0, 0
0, 0
0, 0
0, 0
0, 0
0, 0
0, 0
0, 0
0, 0
0, 0
0, 0
0, 0
0, 0
0, 0
0, 0
0, 0
0, 0
0, 0
0, 0
0, 0
0, 0
0, 0
0, 0
0, 0
0, 0
0, 0
0, 0
0, 0
1, 0
0, 0
0, 0
0, 0
0, 0
0, 0
0, 0
0, 0
0, 0
0, 0
0, 0
0, 0
0, 0
0, 0
0, 0
0, 0
0, 1
0, 0
0, 0
0, 0
0, 0
0, 0
0, 0
0, 0
0, 0
0, 0
0, 0
0, 0
0, 0
0, 0
0, 0
0, 0
0, 0
0, 0
0, 0
0, 0
0, 0
0, 0
0, 0
0, 0
1, 0
0, 0
0, 0
0, 0
0, 0
0, 0
0, 0
0, 0
0, 0
0, 0
0, 0
0, 0
0, 0
0, 0
0, 0
0, 0
0, 0
0, 0
0, 0
0, 0
0, 0
0, 0
0, 0
0, 0
0, 0
0, 0
0, 0
0, 0
0, 0
0, 0
0, 0
0, 0
0, 0
0, 0
0, 0
0, 0
0, 0
0, 0
0, 0
0, 0
0, 0
0, 0
0, 0
0, 0
0, 0
0, 0
0, 0
0, 0
0, 0
0, 0
0, 0
0, 1
0, 0
0, 0
0, 0
0, 0
0, 0
0, 0
0, 0
0, 0
0, 0
0, 0
0, 0
0, 0
0, 0
0, 0
0, 0
0, 0
0, 0
0, 0
0, 0
0, 0
0, 0
0, 0
0, 0
0, 0
0, 0
0, 0
0, 0
0, 0
0, 0
0, 0
0, 0
0, 0
0, 0
0, 0
0, 0
0, 0
0, 0
0, 0
0, 0
0, 0
0, 0
0, 0
0, 0
0, 0
0, 0
0, 0
0, 0
0, 0
0, 0
0, 0
0, 0
0, 0
0, 0
0, 0
0, 0
0, 0
0, 0
0, 0
0, 0
0, 0
0, 0
0, 0
0, 0
0, 0
0, 0
0, 0
0, 0
0, 0
0, 0
0, 0
0, 0
0, 0
0, 0
0, 0
0, 0
0, 0
0, 0
0, 0
0, 0
0, 0
0, 0
0, 0
0, 0
0, 0
0, 0
0, 0
0, 0
0, 0
0, 0
0, 0
0, 0
0, 0
0, 0
0, 0
0, 0
0, 0
0, 0
0, 0
0, 0
0, 0
0, 0
0, 0
0, 0
0, 0
0, 0
0, 0
0, 0
0, 0
0, 0
0, 0
0, 0
0, 0
0, 0
0, 0
0, 0
0, 0
0, 0
0, 0
0, 0
0, 0
0, 0
0, 0
0, 0
0, 0
0, 0
0, 0
0, 0
0, 0
0, 0
0, 0
0, 0
0, 0
0, 0
0, 0
0, 0
0, 0
0, 0
0, 0
0, 0
0, 0
0, 0
0, 0
0, 0
0, 0
0, 0
0, 0
0, 0
0, 0
0, 0
0, 0
0, 0
0, 0
0, 0
0, 0
0, 0
0, 0
0, 0
0, 0
0, 0
0, 0
0, 0
0, 0
0, 0
0, 0
0, 0
0, 0
0, 0
0, 0
0, 0
0, 0
0, 0
0, 0
0, 0
0, 0
0, 0
0, 0
0, 0
0, 0
0, 0
0, 0
0, 0
0, 0
0, 0
0, 0
0, 0
0, 0
0, 0
0, 0
0, 0
0, 0
0, 0
0, 0
0, 0
0, 0
0, 0
0, 0
0, 0
0, 0
0, 0
0, 0
0, 0
0, 0
0, 0
0, 0
0, 0
0, 0
0, 0
0, 0
0, 0
0, 0
0, 0
0, 0
0, 0
0, 0
0, 0
0, 0
0, 0
0, 0
0, 0
0, 0
0, 0
0, 0
0, 0
0, 0
0, 0
0, 0
0, 0
0, 0
0, 0
0, 0
0, 0
0, 0
0, 0
0, 0
0, 0
0, 0
0, 0
0, 0
0, 0
0, 0
0, 0
0, 0
0, 0
0, 0
0, 0
0, 0
0, 0
0, 0
0, 0
0, 0
0, 0
0, 0
0, 0
0, 0
0, 0
0, 0
0, 0
0, 0
0, 0
0, 0
0, 0
0, 0
0, 0
0, 0
0, 0
0, 0
0, 0
0, 0
0, 0
0, 0
0, 0
0, 0
0, 0
0, 0
0, 0
0, 0
0, 0
0, 0
0, 0
0, 0
0, 0
0, 0
0, 0
0, 0
0, 0
0, 0
0, 0
0, 0
0, 0
0, 0
0, 0
0, 0
0, 0
0, 0
0, 0
0, 0
0, 0
0, 0
0, 0
0, 0
0, 0
0, 0
0, 0
0, 0
0, 0
0, 0
0, 0
0, 0
0, 0
0, 0
0, 0
0, 0
0, 0
0, 0
0, 0
#ENDOFDATA     end of spectrum data