File: host_upload/06-09-2024/ps_0852/dump3/ps__0852shot_2370.msa
#FORMAT      : EMSA/MAS spectral data file
#VERSION     : TC202v2.0 PIXL
#TITLE       : N/A
#DATE        :       Date in the format DD-MMM-YYYY, for example 07-JUL-2010
#TIME        :             The time of day at which the spectrum was recorded, in 24-hour format
#OWNER       : PIXL Flight Model       (PIXL will use this to indicate which instrument took the data.)
#NPOINTS     : 4096     Number of data points in the spectrum (This can be zero for configuration only files)
#NCOLUMNS    : 2     Number of data columns in the spectrum (This can be zero for configuration only files)
#XUNITS      : eV
#YUNITS      : COUNTS
#DATATYPE    : YY
#XPERCHAN    : 7.862, 7.881   eV per channel (separate by commas if more than one detector)
#OFFSET      : 18.5, -22.4         eV of first channel  (separate by commas if more than one detector
#SIGNALTYPE  : XRF
#YP_TEMP     : 2.203
#LIVETIME    : 8.58893, 8.55111   seconds (separate by commas if more than one detector)
#REALTIME    : 10, 10.0   seconds (separate by commas if more than one detector)
#SPECTRUM    : start of spectrum data
0, 0
0, 0
0, 0
0, 0
0, 0
0, 0
0, 0
0, 0
0, 0
0, 0
0, 0
0, 0
0, 0
0, 0
0, 0
0, 0
0, 0
0, 0
0, 0
0, 0
0, 0
0, 0
0, 0
0, 0
0, 0
0, 0
0, 0
0, 0
0, 0
0, 0
0, 0
1, 0
0, 0
1, 0
0, 0
1, 0
1, 0
2, 1
1, 1
0, 3
1, 2
0, 1
2, 1
1, 3
2, 1
3, 4
2, 2
2, 2
7, 13
14, 16
20, 25
41, 41
48, 57
71, 57
74, 69
74, 72
59, 58
45, 36
25, 23
11, 16
8, 5
6, 5
4, 4
6, 3
6, 2
4, 6
6, 5
13, 8
25, 24
50, 50
98, 105
180, 189
291, 268
416, 417
465, 466
479, 447
415, 400
319, 311
233, 188
133, 134
69, 64
46, 33
22, 18
15, 14
14, 5
2, 7
7, 1
1, 1
4, 1
1, 0
0, 2
2, 0
0, 3
4, 1
1, 4
7, 11
6, 7
18, 12
12, 18
9, 13
6, 23
7, 18
7, 13
3, 16
6, 16
11, 23
5, 21
8, 16
10, 30
25, 20
28, 34
29, 40
60, 56
52, 69
58, 85
57, 102
55, 82
52, 66
43, 46
31, 35
23, 35
32, 25
20, 25
17, 14
21, 21
26, 15
13, 19
10, 10
10, 10
4, 4
9, 3
8, 5
4, 5
7, 5
1, 3
6, 6
1, 2
4, 3
2, 3
2, 3
2, 2
1, 1
1, 1
2, 3
3, 1
1, 3
3, 4
4, 4
6, 10
4, 5
4, 9
25, 28
35, 42
67, 77
95, 111
154, 109
175, 149
200, 181
164, 186
162, 160
129, 135
81, 60
54, 47
27, 28
21, 20
10, 15
11, 12
15, 17
23, 28
18, 34
29, 26
39, 24
40, 24
34, 23
37, 20
28, 12
25, 12
20, 8
14, 11
21, 2
12, 3
10, 12
14, 1
4, 4
7, 5
4, 2
7, 6
10, 5
8, 7
13, 11
11, 10
12, 16
22, 15
16, 10
14, 13
26, 18
22, 21
22, 18
21, 24
21, 35
19, 30
28, 40
11, 34
12, 49
14, 50
11, 47
7, 40
7, 33
7, 34
6, 23
9, 20
9, 14
7, 19
11, 6
11, 12
12, 9
8, 9
16, 2
11, 5
16, 4
12, 6
9, 8
12, 6
8, 5
7, 7
15, 19
7, 16
27, 17
16, 20
22, 22
25, 24
34, 27
27, 19
34, 25
29, 18
29, 11
27, 11
18, 14
32, 9
24, 10
13, 11
14, 14
16, 20
20, 26
17, 24
27, 40
27, 50
41, 69
46, 76
66, 85
68, 79
51, 55
80, 62
70, 74
58, 42
31, 39
33, 27
35, 28
29, 15
24, 23
18, 35
27, 35
42, 66
62, 98
144, 206
264, 337
438, 502
637, 789
969, 1204
1389, 1552
1638, 1846
1994, 2099
2117, 2041
2083, 1957
1947, 1595
1553, 1290
1195, 921
776, 627
538, 422
286, 231
178, 127
93, 93
54, 55
42, 24
44, 33
32, 21
32, 17
42, 21
39, 34
48, 23
64, 24
57, 36
84, 61
79, 69
111, 102
132, 159
183, 217
220, 245
277, 275
318, 312
331, 332
313, 252
273, 255
197, 214
158, 143
121, 89
92, 61
35, 32
35, 20
22, 17
10, 11
12, 9
5, 12
5, 13
17, 10
7, 12
11, 11
12, 6
16, 14
10, 9
13, 6
9, 10
10, 9
9, 8
9, 4
6, 8
4, 5
2, 5
4, 4
2, 2
2, 3
5, 4
5, 4
6, 7
3, 4
5, 4
5, 2
4, 5
2, 8
5, 6
5, 4
5, 7
3, 5
7, 6
7, 10
8, 5
13, 4
10, 7
20, 6
22, 6
28, 3
33, 6
24, 3
38, 6
28, 4
24, 7
19, 5
12, 3
8, 3
8, 2
9, 3
10, 3
8, 7
5, 4
6, 7
7, 4
4, 9
3, 8
7, 10
4, 10
3, 5
10, 2
10, 9
6, 5
7, 3
4, 7
6, 4
5, 2
7, 5
3, 7
9, 5
4, 3
2, 4
4, 5
8, 3
2, 8
5, 9
2, 4
3, 8
7, 6
5, 8
3, 4
5, 4
4, 14
3, 4
11, 10
11, 8
3, 8
4, 5
4, 10
9, 3
2, 4
6, 6
4, 3
5, 5
7, 5
2, 2
3, 2
4, 4
3, 6
5, 0
1, 3
4, 4
3, 1
4, 2
3, 7
2, 3
5, 5
3, 1
4, 5
6, 2
2, 4
5, 5
4, 2
2, 3
2, 1
3, 0
3, 2
2, 1
6, 3
5, 5
3, 3
11, 3
3, 4
2, 4
5, 1
3, 4
2, 3
6, 3
2, 8
4, 5
1, 2
4, 7
0, 2
2, 3
0, 1
6, 3
2, 4
3, 0
3, 5
3, 3
5, 2
0, 1
3, 4
5, 5
4, 4
2, 3
2, 2
2, 7
3, 1
3, 0
5, 2
2, 5
8, 2
4, 3
1, 3
0, 6
10, 2
2, 8
3, 5
5, 3
2, 4
1, 3
5, 3
3, 3
3, 3
1, 0
3, 1
7, 4
4, 4
3, 0
1, 3
6, 0
1, 1
1, 2
1, 3
3, 2
0, 3
3, 2
2, 5
6, 4
4, 1
4, 2
2, 4
2, 3
1, 3
1, 0
5, 3
2, 1
1, 3
4, 3
4, 3
3, 2
3, 0
0, 1
5, 4
3, 3
0, 2
0, 0
4, 3
1, 0
3, 3
1, 2
1, 1
4, 1
3, 2
1, 3
3, 2
1, 0
0, 1
2, 1
3, 3
1, 3
3, 3
2, 6
1, 5
3, 2
3, 0
1, 0
4, 3
5, 5
5, 4
3, 3
2, 3
3, 2
5, 2
3, 5
3, 1
0, 3
1, 3
2, 4
3, 2
4, 2
6, 4
5, 5
3, 1
4, 2
4, 0
1, 0
1, 0
3, 3
1, 2
3, 1
1, 3
4, 3
2, 0
2, 3
1, 0
0, 2
1, 1
1, 0
4, 3
2, 2
1, 0
2, 4
1, 1
3, 1
2, 3
5, 2
3, 1
3, 0
0, 4
0, 1
0, 1
0, 0
0, 3
1, 0
3, 0
2, 0
2, 2
0, 0
1, 1
2, 1
1, 0
1, 0
2, 2
0, 2
1, 1
0, 0
0, 1
0, 2
1, 2
2, 1
1, 2
2, 1
0, 1
1, 3
1, 0
2, 1
1, 4
1, 0
0, 3
1, 1
0, 2
0, 1
1, 0
1, 0
0, 0
1, 0
0, 0
1, 1
1, 2
0, 0
2, 1
1, 0
0, 2
0, 1
1, 0
0, 1
0, 2
1, 0
0, 1
0, 0
0, 3
0, 0
2, 0
1, 5
1, 1
1, 0
0, 1
0, 1
0, 1
1, 0
1, 1
1, 1
0, 3
0, 0
1, 0
0, 0
0, 0
0, 2
2, 1
2, 0
1, 0
0, 1
0, 0
1, 1
2, 0
1, 1
0, 1
0, 0
1, 1
0, 2
1, 0
0, 0
0, 2
0, 0
0, 1
2, 1
1, 2
0, 0
0, 1
0, 0
3, 2
1, 0
1, 1
1, 1
0, 0
4, 0
0, 0
1, 2
2, 0
0, 0
1, 0
1, 0
2, 0
1, 0
0, 1
0, 0
0, 0
0, 0
0, 0
0, 0
0, 2
1, 0
1, 0
1, 0
1, 0
1, 0
0, 0
0, 0
2, 0
0, 0
0, 0
1, 0
0, 2
1, 0
0, 0
0, 0
1, 0
0, 0
0, 0
1, 1
0, 0
2, 0
0, 2
0, 0
2, 0
0, 0
1, 1
1, 1
0, 0
0, 0
0, 0
0, 0
0, 0
0, 0
2, 0
0, 0
0, 0
0, 0
0, 0
0, 0
0, 0
1, 0
0, 0
2, 0
0, 0
0, 0
0, 1
1, 3
0, 1
1, 0
0, 0
2, 0
0, 0
0, 0
0, 0
0, 1
0, 0
0, 0
0, 0
0, 0
0, 0
0, 0
0, 0
0, 0
0, 0
0, 1
0, 0
0, 0
0, 0
0, 0
0, 0
0, 0
0, 0
0, 0
1, 0
0, 0
0, 0
0, 0
0, 2
0, 0
0, 0
0, 1
0, 0
0, 1
2, 0
0, 0
0, 1
0, 0
0, 1
0, 0
0, 0
0, 0
1, 0
0, 0
0, 0
0, 0
0, 0
0, 0
0, 1
0, 1
0, 0
0, 0
1, 1
1, 0
0, 0
0, 0
0, 1
1, 0
0, 0
0, 0
0, 0
0, 0
1, 0
0, 0
0, 0
0, 0
0, 0
2, 1
0, 0
0, 0
3, 0
1, 0
0, 0
0, 1
0, 0
0, 0
0, 1
0, 0
0, 0
2, 0
0, 0
0, 0
0, 0
0, 0
0, 0
0, 0
0, 1
0, 0
0, 0
0, 1
0, 0
0, 0
1, 0
0, 0
0, 0
0, 0
0, 1
0, 1
0, 0
0, 0
0, 0
0, 0
0, 0
0, 0
0, 0
0, 1
0, 0
0, 0
0, 0
1, 0
0, 0
0, 0
0, 0
0, 1
1, 0
0, 0
1, 0
0, 0
0, 0
0, 0
1, 1
0, 0
0, 0
0, 0
1, 0
0, 0
0, 0
0, 0
0, 0
0, 0
0, 0
0, 0
0, 1
0, 0
0, 0
0, 0
0, 0
0, 1
0, 0
0, 0
0, 0
0, 0
0, 0
0, 0
0, 0
0, 0
0, 0
0, 0
0, 0
0, 1
0, 0
0, 0
1, 0
0, 0
0, 0
0, 0
0, 0
0, 0
0, 0
0, 0
0, 0
0, 0
0, 0
0, 0
0, 0
0, 0
0, 0
0, 0
0, 0
0, 0
0, 1
0, 0
0, 0
0, 0
0, 0
0, 0
0, 0
0, 0
0, 0
1, 0
0, 0
0, 0
0, 0
1, 0
0, 0
0, 0
0, 0
0, 0
0, 0
0, 0
0, 0
1, 0
0, 0
0, 0
0, 0
0, 0
0, 0
0, 0
0, 0
0, 0
0, 0
0, 0
0, 0
0, 0
0, 0
0, 0
0, 0
0, 0
1, 0
0, 0
0, 0
0, 0
0, 0
0, 0
0, 0
0, 0
1, 0
0, 0
0, 0
0, 0
0, 0
0, 0
0, 0
0, 0
0, 0
0, 0
0, 0
0, 0
0, 0
0, 0
0, 0
0, 1
0, 0
0, 0
0, 0
0, 0
0, 0
0, 0
0, 0
0, 0
0, 0
1, 1
0, 0
0, 0
0, 0
0, 0
0, 0
0, 0
0, 0
0, 0
0, 0
0, 0
0, 0
0, 0
0, 0
0, 0
0, 0
0, 0
0, 0
0, 0
0, 0
0, 0
0, 0
0, 0
0, 0
0, 0
0, 0
0, 0
0, 0
0, 0
0, 0
0, 0
0, 0
0, 0
0, 0
0, 0
0, 0
0, 0
0, 0
0, 0
0, 0
0, 0
0, 0
0, 0
0, 0
0, 0
0, 0
0, 0
0, 0
0, 0
0, 0
0, 0
0, 0
0, 0
0, 0
0, 0
0, 0
0, 0
0, 0
0, 0
0, 0
0, 0
0, 0
0, 0
0, 0
0, 0
0, 0
0, 0
0, 0
0, 0
0, 0
0, 0
0, 0
0, 0
0, 0
0, 0
0, 0
0, 0
0, 0
0, 0
0, 0
0, 0
0, 0
0, 0
0, 0
0, 0
0, 0
0, 0
0, 0
0, 0
0, 0
0, 0
0, 0
0, 0
0, 0
0, 0
0, 0
0, 0
0, 0
0, 0
0, 0
0, 0
0, 0
0, 0
0, 0
0, 0
0, 0
0, 0
0, 0
0, 0
0, 0
0, 0
0, 0
0, 0
0, 0
0, 0
0, 0
0, 0
0, 0
0, 0
0, 0
0, 0
0, 0
0, 0
0, 0
0, 0
0, 0
0, 0
0, 0
0, 0
0, 0
0, 0
0, 0
0, 0
0, 0
0, 0
0, 0
0, 0
0, 0
0, 0
0, 0
0, 0
0, 0
0, 0
0, 0
0, 0
0, 0
0, 0
0, 0
0, 0
0, 0
0, 0
0, 0
0, 0
0, 0
0, 0
0, 0
0, 0
0, 0
0, 0
0, 0
0, 0
0, 0
0, 0
0, 0
0, 0
0, 0
0, 0
0, 0
0, 0
0, 0
0, 0
0, 0
0, 0
0, 0
0, 0
0, 0
0, 0
0, 0
0, 0
0, 0
0, 0
0, 0
0, 0
0, 0
0, 0
0, 0
0, 0
0, 0
0, 0
0, 0
0, 0
0, 0
0, 0
0, 0
0, 0
0, 0
0, 0
0, 0
0, 0
0, 0
0, 0
0, 0
0, 0
0, 0
0, 0
0, 0
0, 0
0, 0
0, 0
0, 0
0, 0
0, 0
0, 0
0, 0
0, 0
0, 0
0, 0
0, 0
0, 0
0, 0
0, 0
0, 0
0, 0
0, 0
0, 0
0, 0
0, 0
0, 0
0, 0
0, 0
0, 0
0, 0
0, 0
0, 0
0, 0
0, 0
0, 0
0, 0
0, 0
0, 0
0, 0
0, 0
0, 0
0, 0
0, 0
0, 0
0, 0
0, 0
0, 0
0, 0
0, 0
0, 0
0, 0
0, 0
0, 0
0, 0
0, 0
0, 0
0, 0
0, 0
0, 0
0, 0
0, 0
0, 0
0, 0
0, 0
0, 0
0, 0
0, 0
0, 0
0, 0
0, 0
0, 0
0, 0
0, 0
0, 0
0, 0
0, 0
0, 0
0, 0
0, 0
0, 0
0, 0
0, 0
0, 0
0, 0
0, 0
0, 0
0, 0
0, 0
0, 0
0, 0
0, 0
0, 0
0, 0
0, 0
0, 0
0, 0
0, 0
0, 0
0, 0
0, 0
0, 0
0, 0
0, 0
0, 0
0, 0
0, 0
0, 0
0, 0
0, 0
0, 0
0, 0
0, 0
0, 0
0, 0
0, 0
0, 0
0, 0
0, 0
0, 0
0, 0
0, 0
0, 0
0, 0
0, 0
0, 0
0, 0
0, 0
0, 0
0, 0
0, 0
0, 0
0, 0
0, 0
0, 0
0, 0
0, 0
0, 0
0, 0
0, 0
0, 0
0, 0
0, 0
0, 0
0, 0
0, 0
0, 0
0, 0
0, 0
0, 0
0, 0
0, 0
0, 0
0, 0
0, 0
0, 0
0, 0
0, 0
0, 0
0, 0
0, 0
0, 0
0, 0
0, 0
0, 0
0, 0
0, 0
0, 0
0, 0
0, 0
0, 0
0, 0
0, 0
0, 0
0, 0
0, 0
0, 0
0, 0
0, 0
0, 0
0, 0
0, 0
0, 0
0, 0
0, 0
0, 0
0, 0
0, 0
0, 0
0, 0
0, 0
#ENDOFDATA     end of spectrum data