File: host_upload/06-09-2024/ps_0852/dump3/ps__0852shot_2483.msa
#FORMAT      : EMSA/MAS spectral data file
#VERSION     : TC202v2.0 PIXL
#TITLE       : N/A
#DATE        :       Date in the format DD-MMM-YYYY, for example 07-JUL-2010
#TIME        :             The time of day at which the spectrum was recorded, in 24-hour format
#OWNER       : PIXL Flight Model       (PIXL will use this to indicate which instrument took the data.)
#NPOINTS     : 4096     Number of data points in the spectrum (This can be zero for configuration only files)
#NCOLUMNS    : 2     Number of data columns in the spectrum (This can be zero for configuration only files)
#XUNITS      : eV
#YUNITS      : COUNTS
#DATATYPE    : YY
#XPERCHAN    : 7.862, 7.881   eV per channel (separate by commas if more than one detector)
#OFFSET      : 18.5, -22.4         eV of first channel  (separate by commas if more than one detector
#SIGNALTYPE  : XRF
#YP_TEMP     : 2.364
#LIVETIME    : 8.60352, 8.55793   seconds (separate by commas if more than one detector)
#REALTIME    : 10, 10.0   seconds (separate by commas if more than one detector)
#SPECTRUM    : start of spectrum data
0, 0
0, 0
0, 0
0, 0
0, 0
0, 0
0, 0
0, 0
0, 0
0, 0
0, 0
0, 0
0, 0
0, 0
0, 0
0, 0
0, 0
0, 0
0, 0
0, 0
0, 0
0, 0
0, 0
0, 0
0, 0
0, 0
0, 0
0, 0
0, 0
0, 0
0, 0
0, 0
0, 0
0, 1
1, 0
0, 0
1, 0
1, 0
0, 0
2, 1
1, 1
1, 0
0, 0
1, 3
0, 0
3, 1
2, 3
3, 2
10, 8
13, 6
29, 14
41, 45
61, 49
69, 77
76, 78
90, 67
65, 39
47, 37
28, 25
15, 6
10, 4
4, 5
2, 2
4, 3
4, 3
7, 3
9, 9
13, 6
20, 25
50, 46
96, 110
165, 166
264, 270
373, 374
459, 428
400, 445
385, 396
305, 271
183, 189
142, 111
74, 53
35, 36
19, 14
13, 9
2, 0
3, 4
4, 3
4, 2
2, 1
4, 0
1, 0
1, 1
2, 2
0, 1
2, 1
2, 4
2, 3
0, 3
5, 1
5, 5
5, 2
2, 5
3, 8
2, 3
3, 3
6, 2
6, 3
12, 6
14, 9
17, 14
21, 13
30, 21
28, 23
39, 35
47, 39
52, 26
66, 24
45, 21
69, 24
43, 23
41, 22
57, 19
23, 16
18, 17
21, 22
17, 17
10, 13
16, 13
7, 10
5, 8
6, 2
4, 7
6, 4
2, 2
2, 1
2, 3
2, 2
3, 1
0, 2
2, 1
2, 1
0, 3
1, 5
1, 2
2, 4
1, 3
3, 2
0, 4
2, 1
4, 8
6, 5
11, 14
17, 16
19, 19
38, 34
45, 45
63, 54
64, 43
50, 55
50, 41
46, 38
42, 30
27, 19
16, 8
21, 5
19, 9
30, 7
24, 9
23, 10
21, 7
26, 7
13, 17
16, 12
16, 6
12, 10
8, 7
9, 6
2, 10
6, 9
2, 8
6, 13
1, 9
3, 4
3, 6
3, 12
5, 5
6, 7
4, 7
9, 11
8, 12
10, 8
8, 14
12, 11
14, 15
6, 14
15, 14
13, 13
13, 17
20, 21
16, 8
13, 12
12, 8
5, 10
6, 9
6, 6
6, 6
10, 3
7, 5
10, 6
6, 1
13, 4
7, 7
7, 9
8, 6
4, 8
11, 10
7, 10
9, 8
5, 10
11, 9
9, 12
6, 6
8, 13
8, 8
13, 15
12, 21
23, 21
29, 34
48, 40
32, 41
34, 48
44, 41
43, 27
38, 34
33, 30
50, 20
34, 21
33, 10
30, 9
18, 8
12, 9
12, 10
11, 20
11, 24
16, 29
18, 36
24, 33
40, 53
42, 80
55, 77
63, 67
65, 102
64, 94
50, 61
52, 68
33, 57
28, 47
25, 56
20, 42
23, 38
15, 31
37, 30
35, 45
80, 112
149, 200
238, 321
450, 521
725, 900
1081, 1315
1550, 1605
1950, 2043
2259, 2268
2319, 2294
2285, 2245
2189, 1762
1647, 1416
1251, 1102
849, 644
537, 403
333, 239
185, 127
103, 73
51, 48
43, 27
28, 22
29, 19
10, 24
15, 31
18, 33
20, 31
21, 40
30, 52
52, 55
73, 87
89, 119
162, 149
220, 202
258, 275
313, 324
321, 344
365, 340
316, 271
288, 252
235, 216
185, 167
122, 114
91, 62
56, 36
33, 20
17, 10
9, 8
8, 10
9, 11
8, 5
10, 9
7, 10
9, 13
13, 18
13, 10
7, 10
17, 9
13, 13
12, 14
7, 6
8, 6
7, 5
8, 7
4, 2
12, 4
11, 3
18, 4
17, 3
13, 4
12, 1
10, 1
13, 4
8, 4
9, 2
10, 6
10, 3
16, 0
11, 9
12, 5
26, 11
9, 6
9, 8
12, 7
13, 6
11, 5
5, 6
10, 8
11, 13
14, 13
5, 3
7, 4
6, 11
7, 7
4, 10
4, 5
1, 5
5, 8
2, 7
4, 6
7, 8
1, 3
7, 3
3, 1
3, 3
3, 2
7, 6
7, 3
4, 3
2, 2
7, 5
4, 4
7, 1
9, 4
0, 3
8, 1
2, 3
5, 4
5, 4
2, 1
0, 3
4, 9
8, 4
1, 7
3, 4
5, 3
3, 3
2, 6
2, 8
3, 4
4, 3
1, 2
6, 4
2, 3
5, 3
3, 2
4, 3
4, 1
7, 0
4, 3
4, 2
4, 3
7, 3
1, 1
5, 0
3, 1
4, 0
1, 0
6, 4
4, 1
7, 4
7, 7
3, 3
4, 5
2, 4
0, 5
2, 6
3, 9
2, 7
4, 8
1, 2
4, 4
0, 5
2, 6
3, 4
4, 5
3, 6
1, 3
3, 1
7, 4
2, 3
4, 5
1, 3
2, 8
3, 3
4, 4
5, 3
5, 4
2, 1
2, 4
4, 1
5, 4
5, 3
2, 5
4, 2
0, 2
3, 6
2, 2
1, 0
1, 0
4, 1
2, 2
2, 3
1, 3
1, 2
1, 3
1, 0
6, 2
3, 1
2, 3
2, 3
4, 4
3, 2
3, 1
3, 3
2, 2
2, 3
2, 1
4, 2
2, 3
1, 4
0, 1
0, 4
2, 4
4, 1
2, 1
1, 1
1, 3
0, 2
0, 1
3, 1
2, 3
1, 2
3, 1
2, 1
0, 6
2, 0
5, 3
0, 8
3, 2
1, 4
2, 2
2, 2
0, 1
5, 1
1, 1
0, 4
2, 2
3, 5
1, 3
3, 2
3, 2
4, 2
1, 0
4, 3
2, 3
1, 3
1, 4
3, 6
0, 2
1, 4
1, 1
2, 2
1, 0
1, 4
5, 2
1, 3
0, 1
1, 0
3, 3
2, 2
1, 1
1, 2
1, 3
5, 0
3, 2
4, 3
2, 1
2, 4
0, 2
1, 1
3, 0
3, 1
4, 4
7, 3
2, 3
6, 4
5, 3
3, 5
5, 7
4, 4
7, 5
3, 2
4, 3
2, 2
4, 3
1, 5
3, 3
1, 3
1, 1
0, 1
4, 3
2, 2
1, 2
1, 2
1, 2
3, 1
0, 3
0, 2
2, 4
1, 2
2, 2
3, 3
2, 2
0, 2
2, 0
2, 1
2, 5
3, 1
1, 0
4, 0
4, 1
0, 0
5, 2
3, 1
4, 1
0, 1
1, 0
4, 2
0, 2
1, 0
1, 2
2, 0
2, 0
1, 1
0, 0
1, 1
1, 1
1, 0
0, 3
1, 1
2, 0
0, 0
0, 0
1, 2
0, 1
0, 1
1, 2
1, 2
0, 0
1, 4
2, 2
1, 0
1, 0
2, 1
1, 2
0, 2
1, 1
1, 0
2, 1
1, 1
1, 2
2, 1
1, 0
2, 0
1, 1
0, 0
2, 1
1, 1
2, 2
0, 1
2, 0
1, 2
0, 1
0, 0
1, 0
1, 1
1, 2
0, 1
3, 2
1, 0
0, 0
1, 0
0, 0
0, 1
0, 0
0, 0
1, 0
0, 1
2, 1
1, 0
2, 2
0, 0
1, 2
0, 0
1, 0
1, 2
0, 2
0, 1
0, 3
2, 1
1, 1
1, 0
0, 1
2, 1
0, 0
1, 0
0, 1
0, 2
0, 1
0, 0
0, 1
0, 1
1, 0
0, 0
0, 1
1, 1
0, 0
1, 0
2, 0
1, 0
0, 0
0, 0
0, 0
0, 2
0, 1
0, 1
0, 1
0, 1
1, 0
0, 0
0, 0
2, 0
2, 1
0, 0
0, 1
1, 0
0, 1
0, 0
0, 0
0, 2
0, 0
0, 1
0, 1
1, 0
0, 1
0, 0
0, 0
0, 1
0, 1
0, 0
1, 0
0, 0
0, 2
2, 0
0, 0
0, 0
0, 0
1, 0
0, 0
0, 0
0, 0
0, 2
1, 0
0, 1
0, 1
0, 0
2, 0
0, 0
0, 0
0, 0
0, 1
0, 0
1, 1
1, 1
0, 0
1, 0
0, 0
0, 0
2, 1
1, 0
0, 0
0, 0
1, 1
0, 0
1, 0
0, 1
0, 0
0, 0
1, 1
0, 2
0, 0
0, 0
0, 0
0, 0
0, 0
0, 1
0, 0
0, 0
0, 1
0, 0
1, 0
1, 0
0, 0
1, 0
0, 0
1, 0
0, 0
0, 0
0, 0
1, 1
0, 0
1, 0
0, 0
0, 0
0, 1
0, 1
0, 0
0, 1
0, 0
0, 1
1, 0
0, 0
0, 0
0, 0
0, 0
0, 0
0, 1
0, 0
0, 1
1, 0
1, 0
0, 0
1, 0
0, 0
0, 0
1, 0
0, 1
0, 0
0, 0
0, 0
0, 0
1, 0
0, 2
0, 0
0, 0
0, 0
1, 0
0, 1
0, 0
2, 0
0, 0
0, 0
0, 0
0, 0
0, 0
1, 0
0, 0
0, 0
0, 1
0, 0
1, 0
1, 1
1, 0
0, 0
0, 1
0, 2
0, 0
0, 1
0, 0
0, 0
0, 0
1, 0
1, 0
0, 1
0, 1
0, 0
0, 0
0, 0
0, 0
0, 0
2, 0
0, 0
0, 0
0, 0
0, 0
0, 0
0, 0
0, 0
0, 0
0, 0
0, 1
0, 0
1, 0
0, 0
0, 0
0, 1
0, 0
0, 0
0, 0
0, 1
0, 0
0, 1
1, 0
1, 0
1, 1
0, 1
0, 0
0, 0
0, 0
0, 0
0, 0
0, 0
2, 0
0, 0
0, 0
0, 0
0, 0
0, 0
0, 0
0, 0
0, 0
1, 0
0, 0
0, 0
0, 0
0, 0
0, 0
0, 0
0, 0
0, 0
0, 0
0, 0
0, 0
0, 0
0, 0
0, 0
0, 0
0, 0
0, 0
1, 0
0, 0
0, 0
0, 0
0, 0
0, 0
0, 0
0, 0
0, 0
0, 0
0, 0
0, 0
0, 0
0, 0
0, 0
0, 0
0, 0
0, 0
0, 0
0, 0
0, 0
0, 0
0, 0
0, 0
0, 0
0, 0
0, 1
0, 0
1, 0
0, 0
0, 0
0, 0
0, 0
0, 0
0, 0
0, 1
0, 0
0, 0
0, 1
0, 0
0, 0
0, 0
0, 0
0, 0
0, 0
0, 0
0, 0
0, 0
0, 0
0, 1
0, 0
0, 0
0, 0
0, 0
0, 0
0, 0
0, 0
0, 0
0, 0
0, 0
0, 0
0, 0
0, 0
0, 0
0, 0
0, 0
1, 0
0, 0
0, 0
0, 0
0, 0
0, 0
0, 0
0, 0
0, 0
0, 0
0, 0
0, 0
0, 0
0, 0
0, 0
0, 0
0, 0
0, 0
0, 0
0, 0
0, 0
0, 0
0, 0
0, 0
0, 0
0, 0
0, 0
0, 0
0, 0
0, 0
0, 0
0, 1
0, 0
0, 0
0, 0
0, 0
0, 0
0, 0
0, 0
0, 0
0, 0
0, 0
0, 0
0, 0
0, 0
0, 0
0, 0
0, 0
0, 0
0, 0
0, 0
0, 0
0, 0
0, 0
0, 0
0, 0
0, 0
0, 0
0, 0
0, 0
0, 0
0, 0
0, 0
0, 0
0, 0
0, 0
0, 0
0, 0
0, 0
0, 0
0, 0
0, 0
0, 0
0, 0
0, 0
0, 0
0, 0
0, 0
0, 0
0, 0
0, 0
0, 0
0, 0
0, 0
0, 0
0, 0
0, 0
0, 0
0, 0
0, 0
0, 0
0, 0
0, 0
0, 0
0, 0
0, 0
0, 0
0, 0
0, 0
0, 0
0, 0
0, 0
0, 0
0, 0
0, 0
0, 0
0, 0
0, 0
0, 0
0, 0
0, 0
0, 0
0, 0
0, 0
0, 0
0, 0
0, 0
0, 0
0, 0
0, 0
0, 0
0, 0
0, 0
0, 0
0, 0
0, 0
0, 0
0, 0
0, 0
0, 0
0, 0
0, 0
0, 0
0, 0
0, 0
0, 0
0, 0
0, 0
0, 0
0, 0
0, 0
0, 0
0, 0
0, 0
0, 0
0, 0
0, 0
0, 0
0, 0
0, 0
0, 0
0, 0
0, 0
0, 0
0, 0
0, 0
0, 0
0, 0
0, 0
0, 0
0, 0
0, 0
0, 0
0, 0
0, 0
0, 0
0, 0
0, 0
0, 0
0, 0
0, 0
0, 0
0, 0
0, 0
0, 0
0, 0
0, 0
0, 0
0, 0
0, 0
0, 0
0, 0
0, 0
0, 0
0, 0
0, 0
0, 0
0, 0
0, 0
0, 0
0, 0
0, 0
0, 0
0, 0
0, 0
0, 0
0, 0
0, 0
0, 0
0, 0
0, 0
0, 0
0, 0
0, 0
0, 0
0, 0
0, 0
0, 0
0, 0
0, 0
0, 0
0, 0
0, 0
0, 0
0, 0
0, 0
0, 0
0, 0
0, 0
0, 0
0, 0
0, 0
0, 0
0, 0
0, 0
0, 0
0, 0
0, 0
0, 0
0, 0
0, 0
0, 0
0, 0
0, 0
0, 0
0, 0
0, 0
0, 0
0, 0
0, 0
0, 0
0, 0
0, 0
0, 0
0, 0
0, 0
0, 0
0, 0
0, 0
0, 0
0, 0
0, 0
0, 0
0, 0
0, 0
0, 0
0, 0
0, 0
0, 0
0, 0
0, 0
0, 0
0, 0
0, 0
0, 0
0, 0
0, 0
0, 0
0, 0
0, 0
0, 0
0, 0
0, 0
0, 0
0, 0
0, 0
0, 0
0, 0
0, 0
0, 0
0, 0
0, 0
0, 0
0, 0
0, 0
0, 0
0, 0
0, 0
0, 0
0, 0
0, 0
0, 0
0, 0
0, 0
0, 0
0, 0
0, 0
0, 0
0, 0
0, 0
0, 0
0, 0
0, 0
0, 0
0, 0
0, 0
0, 0
0, 0
0, 0
0, 0
0, 0
0, 0
0, 0
0, 0
0, 0
0, 0
0, 0
0, 0
0, 0
0, 0
0, 0
0, 0
0, 0
0, 0
0, 0
0, 0
0, 0
0, 0
0, 0
0, 0
0, 0
0, 0
0, 0
0, 0
0, 0
0, 0
0, 0
0, 0
0, 0
0, 0
0, 0
0, 0
0, 0
0, 0
0, 0
0, 0
0, 0
0, 0
0, 0
0, 0
0, 0
0, 0
0, 0
0, 0
0, 0
0, 0
0, 0
0, 0
0, 0
0, 0
0, 0
0, 0
0, 0
0, 0
0, 0
0, 0
0, 0
0, 0
0, 0
0, 0
0, 0
0, 0
0, 0
0, 0
0, 0
0, 0
0, 0
0, 0
0, 0
0, 0
0, 0
0, 0
0, 0
0, 0
0, 0
0, 0
0, 0
0, 0
0, 0
0, 0
0, 0
0, 0
0, 0
0, 0
0, 0
0, 0
0, 0
0, 0
0, 0
0, 0
0, 0
0, 0
0, 0
0, 0
0, 0
0, 0
0, 0
#ENDOFDATA     end of spectrum data