File: host_upload/06-09-2024/ps_0852/dump3/ps__0852shot_2408.msa
#FORMAT      : EMSA/MAS spectral data file
#VERSION     : TC202v2.0 PIXL
#TITLE       : N/A
#DATE        :       Date in the format DD-MMM-YYYY, for example 07-JUL-2010
#TIME        :             The time of day at which the spectrum was recorded, in 24-hour format
#OWNER       : PIXL Flight Model       (PIXL will use this to indicate which instrument took the data.)
#NPOINTS     : 4096     Number of data points in the spectrum (This can be zero for configuration only files)
#NCOLUMNS    : 2     Number of data columns in the spectrum (This can be zero for configuration only files)
#XUNITS      : eV
#YUNITS      : COUNTS
#DATATYPE    : YY
#XPERCHAN    : 7.862, 7.881   eV per channel (separate by commas if more than one detector)
#OFFSET      : 18.5, -22.4         eV of first channel  (separate by commas if more than one detector
#SIGNALTYPE  : XRF
#YP_TEMP     : 2.396
#LIVETIME    : 8.58702, 8.37484   seconds (separate by commas if more than one detector)
#REALTIME    : 10, 10.0   seconds (separate by commas if more than one detector)
#SPECTRUM    : start of spectrum data
0, 0
0, 0
0, 0
0, 0
0, 0
0, 0
0, 0
0, 0
0, 0
0, 0
0, 0
0, 0
0, 0
0, 0
0, 0
0, 0
0, 0
0, 0
0, 0
0, 0
0, 0
0, 0
0, 0
0, 0
0, 0
0, 0
0, 0
0, 0
0, 0
0, 0
0, 1
0, 0
0, 0
1, 0
0, 1
0, 0
1, 3
0, 2
0, 2
1, 2
1, 5
1, 5
0, 3
0, 2
5, 1
2, 4
2, 5
5, 6
4, 12
11, 18
30, 23
30, 34
56, 81
66, 79
79, 65
72, 63
70, 71
29, 41
24, 28
10, 20
6, 7
2, 9
3, 3
5, 3
2, 1
5, 3
3, 5
5, 15
26, 21
47, 43
92, 107
174, 199
270, 301
363, 372
404, 424
391, 426
388, 380
285, 261
201, 183
103, 130
79, 53
37, 30
16, 12
7, 8
3, 3
1, 2
1, 3
1, 0
2, 0
0, 0
2, 0
0, 0
2, 3
3, 0
3, 0
3, 2
1, 6
3, 4
6, 7
6, 5
5, 6
1, 5
4, 13
3, 11
1, 12
3, 25
8, 25
7, 40
7, 39
18, 50
23, 54
26, 93
43, 118
35, 135
35, 153
34, 142
37, 134
31, 117
31, 70
27, 51
20, 45
17, 28
28, 26
14, 21
23, 17
10, 8
11, 11
7, 15
6, 9
7, 2
5, 3
3, 5
2, 5
4, 2
1, 3
2, 2
1, 3
6, 1
1, 1
2, 1
3, 3
3, 0
5, 0
3, 2
2, 0
2, 3
0, 3
2, 2
1, 2
2, 0
3, 1
2, 2
5, 4
3, 6
10, 10
10, 14
19, 9
23, 11
20, 8
16, 11
18, 7
16, 7
26, 8
23, 3
24, 5
19, 2
16, 4
16, 3
12, 5
6, 0
9, 5
6, 7
8, 3
2, 2
1, 6
3, 4
11, 14
8, 8
4, 21
4, 15
2, 10
5, 13
7, 14
5, 5
7, 5
3, 5
4, 3
6, 6
4, 6
9, 11
8, 8
6, 9
11, 9
14, 9
5, 14
12, 11
18, 14
17, 15
11, 6
14, 10
13, 10
12, 12
9, 13
8, 4
5, 3
10, 5
9, 2
4, 9
9, 13
8, 7
8, 16
7, 10
1, 17
5, 7
5, 16
4, 10
5, 9
2, 6
4, 6
5, 12
5, 6
7, 16
8, 18
4, 19
6, 15
7, 20
8, 16
10, 15
16, 15
13, 18
17, 10
15, 7
26, 11
28, 10
37, 6
45, 8
70, 3
91, 9
95, 10
100, 4
90, 3
94, 9
92, 8
66, 6
56, 15
45, 17
49, 35
44, 45
47, 57
58, 61
62, 60
81, 64
70, 54
46, 43
45, 30
43, 31
38, 30
21, 21
10, 17
13, 12
20, 22
24, 36
49, 55
64, 95
133, 178
261, 326
482, 644
730, 946
1052, 1364
1502, 1778
1916, 2085
2190, 2385
2304, 2606
2323, 2351
2086, 1982
1664, 1572
1226, 1173
881, 800
615, 459
326, 262
212, 144
82, 74
44, 44
30, 16
13, 13
19, 16
12, 13
10, 16
18, 18
20, 17
31, 22
21, 46
37, 61
65, 103
110, 110
147, 164
206, 243
265, 284
330, 358
344, 363
354, 357
350, 326
297, 288
238, 254
165, 146
126, 116
75, 57
43, 46
28, 13
24, 10
10, 6
15, 6
12, 8
10, 14
14, 9
11, 14
14, 12
16, 11
19, 17
15, 14
11, 19
13, 14
8, 5
13, 7
9, 6
7, 3
9, 4
5, 7
10, 5
9, 0
4, 4
10, 3
4, 2
6, 2
5, 3
3, 6
3, 6
2, 6
3, 7
1, 3
1, 6
7, 7
5, 6
1, 3
6, 6
13, 6
4, 4
4, 4
5, 4
2, 3
2, 11
3, 5
3, 7
3, 3
6, 5
9, 2
3, 2
1, 2
3, 5
4, 2
1, 4
5, 0
5, 4
5, 4
3, 1
7, 4
5, 3
4, 3
3, 5
3, 3
6, 2
8, 3
4, 6
4, 3
5, 8
4, 6
5, 8
12, 15
10, 7
6, 15
5, 14
10, 13
9, 5
4, 7
3, 6
2, 9
5, 2
0, 2
3, 3
4, 3
2, 2
1, 2
4, 5
3, 4
4, 1
7, 4
12, 3
6, 7
5, 4
7, 6
7, 1
8, 1
14, 7
4, 2
4, 7
12, 2
2, 2
8, 3
7, 6
6, 0
7, 3
4, 1
2, 10
5, 5
5, 1
4, 2
5, 4
3, 3
4, 7
2, 3
2, 1
2, 4
4, 3
2, 2
4, 4
4, 5
7, 9
5, 2
5, 3
3, 3
3, 2
0, 2
3, 4
1, 5
3, 3
5, 3
5, 6
4, 4
1, 7
4, 4
1, 8
2, 6
5, 2
5, 4
2, 6
1, 4
4, 3
3, 5
5, 3
6, 2
4, 4
8, 3
9, 1
5, 3
11, 3
7, 3
5, 5
8, 4
8, 3
6, 1
6, 2
10, 2
6, 3
5, 2
4, 2
7, 2
4, 4
2, 3
1, 1
2, 2
1, 2
3, 2
3, 0
4, 2
3, 1
2, 1
0, 1
3, 3
2, 2
3, 1
3, 3
3, 2
2, 1
2, 2
5, 2
2, 2
0, 4
1, 0
4, 1
1, 0
2, 5
3, 1
1, 3
3, 3
4, 4
2, 2
1, 2
2, 0
1, 3
1, 4
3, 1
2, 2
1, 0
4, 2
2, 4
1, 4
2, 3
0, 4
2, 1
2, 3
3, 2
2, 0
2, 0
2, 1
2, 1
1, 1
1, 0
1, 3
4, 3
3, 2
4, 1
4, 2
4, 0
2, 3
0, 0
6, 1
3, 0
1, 3
2, 1
4, 2
4, 3
2, 3
4, 1
3, 4
3, 1
3, 1
0, 1
1, 2
6, 3
2, 6
5, 4
4, 3
3, 6
2, 4
2, 1
3, 4
2, 4
6, 5
5, 2
1, 6
2, 1
1, 2
1, 3
4, 2
1, 0
1, 2
1, 3
2, 1
1, 1
1, 1
4, 2
1, 1
2, 2
0, 4
0, 2
1, 1
0, 1
1, 3
3, 1
3, 1
1, 3
3, 4
1, 0
1, 0
3, 3
0, 5
0, 2
2, 2
0, 3
0, 1
0, 1
0, 3
0, 1
1, 0
3, 0
3, 0
1, 1
0, 1
1, 6
3, 1
2, 1
0, 2
2, 1
1, 2
1, 1
2, 0
1, 3
0, 1
1, 0
4, 0
1, 2
1, 1
0, 1
1, 0
1, 2
2, 0
0, 2
1, 0
1, 1
2, 1
0, 3
2, 1
2, 2
1, 0
0, 2
1, 0
0, 1
1, 1
2, 1
0, 3
2, 1
1, 0
0, 1
0, 1
1, 0
2, 0
0, 1
0, 2
0, 0
0, 0
0, 0
1, 0
1, 0
1, 0
1, 0
1, 1
2, 1
0, 0
0, 0
1, 1
1, 0
1, 1
1, 1
0, 0
0, 0
1, 1
0, 0
2, 1
0, 1
3, 1
0, 3
2, 0
0, 0
0, 1
1, 1
1, 1
0, 0
2, 1
0, 0
0, 0
1, 0
0, 1
0, 1
3, 0
0, 0
0, 0
0, 0
0, 0
0, 0
1, 0
1, 0
1, 1
0, 1
0, 0
2, 0
0, 0
2, 0
0, 0
0, 0
0, 0
1, 1
1, 2
1, 0
3, 0
1, 0
0, 0
0, 1
1, 0
0, 1
2, 0
0, 0
0, 0
0, 1
0, 0
0, 0
1, 1
0, 0
2, 0
1, 0
0, 1
0, 1
0, 0
0, 1
0, 1
1, 0
1, 0
0, 0
0, 1
2, 0
1, 1
0, 0
0, 0
0, 1
0, 0
0, 1
0, 0
0, 1
0, 0
0, 1
1, 0
0, 0
0, 0
2, 0
0, 0
0, 0
0, 0
0, 3
0, 0
0, 1
0, 0
0, 0
0, 0
0, 0
0, 0
0, 0
0, 0
0, 1
1, 0
0, 0
0, 1
0, 0
0, 0
0, 1
1, 1
1, 0
1, 1
0, 0
0, 0
0, 0
0, 0
0, 0
0, 0
0, 1
0, 0
0, 0
0, 0
0, 0
0, 0
0, 0
1, 0
0, 1
0, 0
0, 0
1, 0
0, 0
1, 0
0, 1
0, 0
0, 1
0, 0
1, 0
0, 1
0, 0
0, 0
0, 0
0, 0
0, 0
3, 0
1, 0
0, 0
0, 0
0, 1
0, 1
0, 0
0, 0
0, 0
0, 0
0, 0
1, 1
0, 0
0, 1
0, 0
0, 0
0, 0
0, 0
0, 0
0, 0
0, 0
0, 0
1, 0
1, 0
1, 1
0, 0
1, 1
0, 1
0, 0
0, 1
0, 0
0, 1
0, 0
0, 0
1, 0
0, 0
0, 0
0, 0
0, 0
0, 0
1, 0
0, 0
1, 0
1, 0
0, 0
0, 0
0, 1
0, 0
0, 0
0, 0
0, 1
0, 0
0, 0
0, 0
0, 1
1, 0
0, 0
0, 0
0, 0
0, 0
1, 0
0, 1
0, 0
0, 0
0, 0
0, 0
0, 0
0, 0
0, 0
1, 1
0, 0
0, 1
0, 0
1, 0
0, 0
0, 0
1, 0
0, 0
1, 0
0, 0
1, 0
0, 0
0, 0
1, 1
1, 0
1, 1
0, 0
0, 0
0, 0
0, 0
0, 0
1, 0
0, 0
1, 0
0, 0
0, 0
0, 0
0, 0
0, 0
0, 0
0, 1
0, 0
0, 0
1, 0
0, 0
0, 0
0, 0
0, 0
0, 0
0, 0
0, 0
0, 0
0, 0
0, 0
0, 0
0, 1
0, 0
0, 1
0, 0
0, 0
0, 0
1, 0
0, 1
1, 0
0, 0
1, 0
0, 0
0, 0
0, 0
0, 0
0, 0
0, 0
0, 0
0, 0
0, 0
0, 0
0, 0
0, 0
0, 0
0, 0
0, 0
0, 0
0, 0
0, 0
0, 0
0, 0
0, 0
0, 0
0, 2
0, 0
0, 0
0, 0
0, 0
0, 0
0, 0
0, 0
0, 0
0, 0
0, 0
0, 1
0, 1
0, 0
0, 0
0, 0
0, 0
0, 0
0, 0
0, 0
0, 0
0, 0
1, 0
0, 0
0, 0
0, 0
0, 1
0, 0
0, 1
0, 0
0, 0
0, 0
0, 0
0, 0
0, 0
0, 0
0, 0
0, 0
0, 0
0, 0
0, 1
0, 0
0, 0
0, 0
0, 0
0, 1
0, 0
0, 0
0, 0
0, 0
0, 0
0, 0
0, 0
0, 0
0, 0
0, 0
0, 0
0, 0
0, 0
0, 0
0, 0
0, 0
0, 0
0, 0
0, 0
0, 0
0, 0
0, 0
0, 0
0, 1
0, 0
0, 0
0, 0
0, 0
0, 0
0, 0
0, 0
0, 0
0, 0
0, 1
0, 0
0, 0
0, 0
0, 0
0, 0
0, 0
0, 0
0, 0
0, 0
0, 0
0, 0
0, 1
1, 0
0, 0
0, 0
0, 0
0, 0
0, 0
0, 0
0, 0
0, 0
0, 0
0, 0
0, 0
0, 0
0, 0
0, 0
0, 0
0, 0
0, 0
0, 0
0, 0
0, 0
0, 0
0, 0
0, 0
0, 0
0, 0
0, 0
0, 0
0, 0
0, 0
0, 0
0, 0
0, 0
0, 0
0, 0
0, 0
0, 0
0, 0
0, 0
0, 0
0, 0
0, 0
0, 0
0, 0
0, 0
0, 0
0, 0
0, 0
0, 0
0, 0
0, 0
0, 0
0, 0
0, 0
0, 0
0, 0
0, 0
0, 0
0, 0
0, 0
0, 0
0, 0
0, 0
0, 0
0, 0
0, 0
0, 0
0, 0
0, 0
0, 0
0, 0
0, 0
0, 0
0, 0
0, 0
0, 0
0, 0
0, 0
0, 0
0, 0
0, 0
0, 0
0, 0
0, 0
0, 0
0, 0
0, 0
0, 0
0, 0
0, 0
0, 0
0, 0
0, 0
0, 0
0, 0
0, 0
0, 0
0, 0
0, 0
0, 0
0, 0
0, 0
0, 0
0, 0
0, 0
0, 0
0, 0
0, 0
0, 0
0, 0
0, 0
0, 0
0, 0
0, 0
0, 0
0, 0
0, 0
0, 0
0, 0
0, 0
0, 0
0, 0
0, 0
0, 0
0, 0
0, 0
0, 0
0, 0
0, 0
0, 0
0, 0
0, 0
0, 0
0, 0
0, 0
0, 0
0, 0
0, 0
0, 0
0, 0
0, 0
0, 0
0, 0
0, 0
0, 0
0, 0
0, 0
0, 0
0, 0
0, 0
0, 0
0, 0
0, 0
0, 0
0, 0
0, 0
0, 0
0, 0
0, 0
0, 0
0, 0
0, 0
0, 0
0, 0
0, 0
0, 0
0, 0
0, 0
0, 0
0, 0
0, 0
0, 0
0, 0
0, 0
0, 0
0, 0
0, 0
0, 0
0, 0
0, 0
0, 0
0, 0
0, 0
0, 0
0, 0
0, 0
0, 0
0, 0
0, 0
0, 0
0, 0
0, 0
0, 0
0, 0
0, 0
0, 0
0, 0
0, 0
0, 0
0, 0
0, 0
0, 0
0, 0
0, 0
0, 0
0, 0
0, 0
0, 0
0, 0
0, 0
0, 0
0, 0
0, 0
0, 0
0, 0
0, 0
0, 0
0, 0
0, 0
0, 0
0, 0
0, 0
0, 0
0, 0
0, 0
0, 0
0, 0
0, 0
0, 0
0, 0
0, 0
0, 0
0, 0
0, 0
0, 0
0, 0
0, 0
0, 0
0, 0
0, 0
0, 0
0, 0
0, 0
0, 0
0, 0
0, 0
0, 0
0, 0
0, 0
0, 0
0, 0
0, 0
0, 0
0, 0
0, 0
0, 0
0, 0
0, 0
0, 0
0, 0
0, 0
0, 0
0, 0
0, 0
0, 0
0, 0
0, 0
0, 0
0, 0
0, 0
0, 0
0, 0
0, 0
0, 0
0, 0
0, 0
0, 0
0, 0
0, 0
0, 0
0, 0
0, 0
0, 0
0, 0
0, 0
0, 0
0, 0
0, 0
0, 0
0, 0
0, 0
0, 0
0, 0
0, 0
0, 0
0, 0
0, 0
0, 0
0, 0
0, 0
0, 0
0, 0
0, 0
0, 0
0, 0
0, 0
0, 0
0, 0
0, 0
0, 0
0, 0
0, 0
0, 0
0, 0
0, 0
0, 0
0, 0
0, 0
0, 0
0, 0
0, 0
0, 0
0, 0
0, 0
0, 0
0, 0
0, 0
0, 0
0, 0
0, 0
0, 0
0, 0
0, 0
0, 0
0, 0
0, 0
0, 0
0, 0
0, 0
0, 0
0, 0
0, 0
0, 0
0, 0
0, 0
0, 0
0, 0
0, 0
0, 0
#ENDOFDATA     end of spectrum data