File: host_upload/06-09-2024/ps_0852/dump3/ps__0852shot_2162.msa
#FORMAT      : EMSA/MAS spectral data file
#VERSION     : TC202v2.0 PIXL
#TITLE       : N/A
#DATE        :       Date in the format DD-MMM-YYYY, for example 07-JUL-2010
#TIME        :             The time of day at which the spectrum was recorded, in 24-hour format
#OWNER       : PIXL Flight Model       (PIXL will use this to indicate which instrument took the data.)
#NPOINTS     : 4096     Number of data points in the spectrum (This can be zero for configuration only files)
#NCOLUMNS    : 2     Number of data columns in the spectrum (This can be zero for configuration only files)
#XUNITS      : eV
#YUNITS      : COUNTS
#DATATYPE    : YY
#XPERCHAN    : 7.862, 7.881   eV per channel (separate by commas if more than one detector)
#OFFSET      : 18.5, -22.4         eV of first channel  (separate by commas if more than one detector
#SIGNALTYPE  : XRF
#YP_TEMP     : 2.556
#LIVETIME    : 8.56956, 8.54737   seconds (separate by commas if more than one detector)
#REALTIME    : 10, 10.0   seconds (separate by commas if more than one detector)
#SPECTRUM    : start of spectrum data
0, 0
0, 0
0, 0
0, 0
0, 0
0, 0
0, 0
0, 0
0, 0
0, 0
0, 0
0, 0
0, 0
0, 0
0, 0
0, 0
0, 0
0, 0
0, 0
0, 0
0, 0
0, 0
0, 0
0, 0
0, 0
0, 0
0, 0
0, 0
0, 0
1, 0
0, 0
1, 0
0, 0
0, 0
0, 0
1, 1
0, 1
1, 1
2, 2
0, 3
2, 2
2, 1
2, 1
3, 4
3, 3
2, 0
3, 2
2, 3
6, 9
7, 7
14, 17
22, 27
48, 41
45, 50
46, 61
58, 50
39, 47
29, 31
12, 27
13, 16
7, 6
5, 1
4, 4
4, 3
7, 4
3, 7
2, 8
5, 9
16, 17
30, 47
60, 68
109, 120
162, 190
240, 236
265, 271
257, 289
261, 258
170, 175
123, 135
69, 94
41, 36
33, 35
18, 17
14, 7
4, 9
5, 6
11, 5
4, 4
9, 4
6, 3
10, 9
18, 22
32, 35
51, 66
127, 130
222, 176
289, 301
403, 409
473, 454
449, 460
418, 370
311, 308
234, 214
159, 163
113, 103
59, 83
65, 57
53, 52
62, 60
79, 85
95, 112
106, 111
106, 133
124, 125
98, 130
114, 126
104, 97
71, 73
60, 78
45, 51
46, 43
35, 34
45, 36
32, 27
20, 18
27, 19
22, 21
15, 16
11, 16
7, 13
8, 5
7, 6
6, 5
6, 3
5, 4
5, 3
4, 7
6, 15
15, 12
13, 21
11, 16
13, 14
7, 19
18, 13
13, 11
7, 9
7, 5
5, 6
4, 2
2, 2
5, 7
10, 8
6, 7
18, 20
26, 15
22, 32
37, 38
36, 35
28, 33
28, 29
21, 15
17, 15
17, 14
6, 5
5, 3
4, 2
4, 11
3, 3
6, 8
6, 7
1, 12
4, 4
7, 2
4, 7
8, 5
4, 6
5, 12
6, 6
7, 2
4, 6
5, 7
3, 5
6, 3
4, 8
5, 4
1, 10
4, 6
9, 11
7, 10
9, 4
8, 2
13, 18
5, 7
12, 14
13, 14
12, 12
17, 14
13, 8
16, 21
17, 14
18, 20
18, 10
9, 8
9, 12
8, 7
4, 9
6, 27
5, 20
4, 18
4, 25
6, 29
7, 25
10, 35
6, 29
7, 32
3, 21
3, 20
6, 16
3, 8
9, 4
5, 12
9, 6
8, 11
11, 5
6, 15
8, 10
7, 13
14, 18
20, 17
28, 29
30, 36
37, 41
53, 48
48, 34
59, 45
47, 43
55, 37
47, 34
44, 24
30, 19
27, 15
19, 10
11, 11
13, 14
16, 24
23, 23
25, 24
25, 41
38, 59
52, 59
44, 55
61, 59
51, 54
55, 56
37, 43
30, 34
26, 21
23, 19
18, 16
14, 24
19, 23
18, 31
40, 77
79, 121
156, 210
280, 370
425, 624
743, 920
1077, 1290
1396, 1811
1828, 2053
2177, 2412
2219, 2447
2160, 2352
2122, 1998
1594, 1539
1288, 1139
876, 775
574, 440
331, 265
202, 144
82, 88
53, 34
23, 20
20, 16
14, 16
10, 14
9, 17
16, 20
18, 19
24, 27
41, 41
32, 63
67, 98
108, 118
140, 175
184, 237
240, 284
325, 323
317, 380
369, 359
319, 334
280, 264
230, 194
189, 170
136, 116
86, 64
51, 39
36, 16
18, 6
11, 4
12, 9
12, 10
11, 4
11, 9
15, 9
12, 12
22, 11
21, 10
45, 12
30, 9
37, 6
55, 9
60, 6
58, 4
55, 2
43, 9
35, 3
30, 3
30, 2
13, 8
18, 1
10, 5
6, 2
4, 4
4, 3
6, 6
10, 3
8, 4
6, 3
6, 5
8, 5
7, 2
9, 7
7, 11
4, 3
5, 5
8, 1
3, 4
4, 11
7, 6
2, 10
5, 3
3, 5
3, 6
3, 4
5, 5
8, 4
0, 4
3, 1
3, 4
4, 4
6, 3
1, 3
9, 5
5, 5
4, 3
4, 5
3, 3
7, 6
5, 6
6, 4
5, 1
3, 4
4, 4
5, 3
8, 3
7, 6
11, 4
7, 5
6, 6
8, 0
8, 2
12, 0
10, 1
5, 3
2, 2
3, 7
3, 1
5, 4
6, 4
2, 4
5, 4
1, 9
4, 7
2, 9
2, 3
5, 6
4, 8
6, 10
3, 8
3, 5
4, 7
5, 7
2, 6
4, 3
5, 5
6, 4
2, 1
8, 5
5, 6
10, 5
6, 6
7, 5
7, 13
5, 14
3, 3
2, 18
3, 18
5, 13
5, 21
1, 18
6, 13
3, 9
5, 10
4, 13
10, 13
8, 4
10, 2
9, 3
6, 3
3, 3
6, 3
8, 1
3, 3
4, 5
3, 3
5, 5
2, 4
4, 5
5, 3
2, 2
6, 2
4, 5
4, 9
3, 6
1, 1
0, 5
1, 3
2, 6
1, 2
2, 5
5, 3
2, 1
1, 3
3, 1
3, 3
2, 3
3, 1
0, 5
1, 3
4, 2
4, 3
7, 3
4, 9
8, 3
8, 4
7, 0
10, 6
13, 2
9, 0
4, 2
4, 0
5, 1
4, 2
4, 2
5, 2
2, 1
1, 0
2, 2
5, 1
1, 1
1, 1
4, 2
3, 2
3, 4
2, 3
0, 1
3, 1
4, 1
0, 2
1, 1
1, 2
2, 2
3, 2
0, 2
3, 1
1, 2
2, 3
2, 2
1, 3
2, 0
4, 3
0, 1
1, 3
1, 2
1, 2
2, 1
1, 1
2, 4
1, 2
0, 0
3, 3
3, 1
1, 2
2, 1
1, 1
1, 1
3, 2
2, 0
1, 2
3, 1
2, 3
4, 2
1, 2
3, 0
2, 2
2, 1
3, 2
5, 1
2, 0
1, 0
2, 4
2, 0
5, 1
0, 2
2, 2
2, 1
4, 5
10, 6
3, 5
3, 4
2, 2
5, 4
5, 3
4, 2
1, 3
3, 4
3, 2
1, 4
0, 5
1, 2
0, 1
1, 2
4, 0
1, 1
1, 2
0, 2
1, 2
0, 1
2, 1
0, 4
2, 2
1, 0
0, 1
3, 2
1, 0
0, 2
1, 1
4, 1
0, 1
1, 4
2, 2
2, 4
1, 1
2, 3
2, 2
2, 1
0, 4
2, 1
3, 3
0, 0
3, 4
1, 3
1, 1
1, 0
1, 0
1, 1
3, 1
0, 0
1, 2
1, 1
2, 0
1, 0
0, 0
2, 1
1, 1
1, 1
1, 1
0, 0
2, 1
0, 2
1, 2
1, 2
3, 2
0, 0
0, 0
0, 0
2, 4
0, 2
0, 1
1, 0
0, 1
0, 0
1, 1
0, 3
0, 2
1, 0
0, 1
5, 0
1, 1
2, 1
2, 0
1, 1
0, 0
1, 0
3, 0
0, 1
0, 0
1, 1
2, 0
0, 0
0, 1
0, 0
0, 1
1, 1
0, 0
0, 0
0, 0
0, 0
1, 0
2, 2
2, 1
0, 0
1, 0
1, 0
0, 2
0, 0
2, 1
0, 0
1, 1
1, 0
0, 0
0, 0
1, 1
0, 0
3, 0
1, 1
0, 0
1, 0
0, 1
1, 0
0, 0
1, 1
0, 0
0, 0
0, 1
0, 0
0, 1
1, 0
0, 0
1, 1
0, 0
0, 0
2, 0
1, 1
0, 0
0, 0
1, 1
1, 2
1, 1
0, 0
1, 0
0, 1
0, 1
0, 2
0, 0
1, 0
1, 1
0, 1
0, 1
1, 0
0, 0
0, 0
0, 1
0, 1
0, 1
0, 0
0, 0
0, 0
0, 0
1, 0
1, 1
1, 0
0, 0
0, 0
0, 0
0, 0
0, 1
0, 0
0, 0
0, 1
0, 0
0, 1
1, 0
0, 1
0, 0
1, 0
1, 2
0, 1
0, 0
1, 0
0, 0
0, 1
0, 1
0, 1
0, 0
0, 1
1, 0
0, 1
1, 0
0, 1
0, 0
0, 1
0, 1
0, 0
2, 0
0, 0
0, 1
0, 1
1, 0
0, 1
0, 0
0, 0
0, 1
0, 0
0, 0
0, 0
0, 0
0, 0
1, 0
0, 1
0, 0
0, 0
0, 2
0, 0
0, 0
0, 0
1, 0
0, 0
0, 0
0, 0
0, 1
0, 1
0, 0
0, 0
0, 0
0, 0
0, 1
1, 0
0, 1
1, 0
0, 0
0, 0
0, 0
0, 1
1, 0
0, 0
1, 0
0, 0
1, 0
1, 0
0, 0
0, 0
0, 0
0, 1
0, 0
0, 1
0, 0
0, 0
1, 0
0, 0
0, 0
1, 0
0, 0
0, 1
0, 1
0, 0
1, 0
0, 0
0, 0
0, 0
1, 0
1, 0
1, 0
0, 0
0, 1
0, 0
1, 1
0, 0
0, 0
0, 0
0, 0
0, 0
0, 0
0, 0
0, 2
0, 0
0, 0
0, 0
0, 0
0, 0
0, 0
0, 1
0, 0
1, 0
0, 0
1, 0
0, 0
2, 0
0, 0
1, 1
0, 2
0, 0
0, 0
1, 2
0, 0
0, 0
1, 0
0, 1
0, 0
0, 0
0, 0
0, 0
0, 0
0, 1
0, 0
0, 1
0, 0
1, 1
0, 0
0, 0
1, 0
0, 1
0, 0
0, 0
0, 0
0, 1
0, 0
0, 0
0, 0
1, 0
0, 0
0, 0
0, 0
0, 0
0, 0
0, 0
0, 0
0, 0
0, 0
0, 0
0, 0
0, 0
0, 0
0, 0
0, 0
0, 0
0, 0
0, 0
1, 0
0, 0
0, 0
0, 0
0, 0
1, 0
0, 0
0, 0
0, 0
0, 0
0, 1
0, 0
0, 0
0, 0
0, 0
0, 0
0, 0
0, 0
0, 0
0, 0
0, 0
0, 1
0, 0
0, 0
0, 0
0, 0
0, 0
0, 0
0, 0
0, 0
1, 0
0, 0
0, 0
0, 0
0, 0
0, 0
0, 0
0, 0
0, 0
0, 1
0, 0
0, 0
0, 0
0, 0
0, 0
0, 0
0, 0
0, 0
0, 0
0, 0
0, 0
0, 0
0, 0
0, 0
0, 0
0, 0
0, 0
0, 0
0, 0
0, 0
0, 0
0, 0
0, 0
0, 0
0, 0
0, 0
0, 0
0, 0
0, 0
0, 0
0, 0
0, 0
0, 0
0, 0
0, 0
0, 0
0, 0
0, 0
0, 0
0, 0
0, 0
0, 0
0, 0
0, 0
0, 1
0, 0
0, 0
0, 0
0, 0
0, 0
0, 0
0, 0
0, 0
0, 0
0, 0
0, 0
0, 0
0, 0
0, 0
0, 0
0, 0
0, 0
0, 0
0, 0
0, 0
0, 0
0, 0
0, 0
0, 0
0, 0
0, 0
0, 0
0, 0
0, 1
0, 0
0, 0
0, 0
1, 0
0, 0
0, 0
0, 0
0, 0
0, 0
0, 0
0, 0
0, 0
0, 0
0, 0
0, 0
0, 0
0, 0
0, 0
0, 0
0, 0
0, 0
0, 0
0, 0
0, 0
0, 0
0, 0
0, 0
0, 0
0, 0
0, 0
0, 0
0, 0
0, 0
0, 0
0, 0
0, 0
0, 0
0, 0
0, 0
1, 0
0, 0
0, 0
0, 0
0, 0
0, 0
0, 0
0, 0
0, 0
0, 0
0, 0
0, 0
0, 0
0, 0
1, 0
0, 0
0, 0
0, 0
0, 0
0, 0
0, 0
0, 0
0, 0
0, 0
0, 0
0, 0
0, 0
0, 0
0, 0
0, 0
0, 0
0, 0
0, 0
0, 0
0, 0
0, 0
0, 0
0, 0
0, 0
0, 0
0, 0
0, 0
0, 0
0, 0
0, 0
0, 0
0, 0
0, 0
0, 0
0, 0
0, 0
0, 0
0, 0
0, 0
0, 0
0, 0
0, 0
0, 0
0, 0
0, 0
0, 0
0, 0
0, 0
0, 0
0, 0
0, 0
0, 0
0, 0
0, 0
0, 0
0, 0
0, 0
0, 0
0, 0
0, 0
0, 0
0, 0
0, 0
0, 0
0, 0
0, 0
0, 0
0, 0
0, 0
0, 0
0, 0
0, 0
0, 0
0, 0
0, 0
0, 0
0, 0
0, 0
0, 0
0, 0
0, 0
0, 0
0, 0
0, 0
0, 0
0, 0
0, 0
0, 0
0, 0
0, 0
0, 0
0, 0
0, 0
0, 0
0, 0
0, 0
0, 0
0, 0
0, 0
0, 0
0, 0
0, 0
0, 0
0, 0
0, 0
0, 0
0, 0
0, 0
0, 0
0, 0
0, 0
0, 0
0, 0
0, 0
0, 0
0, 0
0, 0
0, 0
0, 0
0, 0
0, 0
0, 0
0, 0
0, 0
0, 0
0, 0
0, 0
0, 0
0, 0
0, 0
0, 0
0, 0
0, 0
0, 0
0, 0
0, 0
0, 0
0, 0
0, 0
0, 0
0, 0
0, 0
0, 0
0, 0
0, 0
0, 0
0, 0
0, 0
0, 0
0, 0
0, 0
0, 0
0, 0
0, 0
0, 0
0, 0
0, 0
0, 0
0, 0
0, 0
0, 0
0, 0
0, 0
0, 0
0, 0
0, 0
0, 0
0, 0
0, 0
0, 0
0, 0
0, 0
0, 0
0, 0
0, 0
0, 0
0, 0
0, 0
0, 0
0, 0
0, 0
0, 0
0, 0
0, 0
0, 0
0, 0
0, 0
0, 0
0, 0
0, 0
0, 0
0, 0
0, 0
0, 0
0, 0
0, 0
0, 0
0, 0
0, 0
0, 0
0, 0
0, 0
0, 0
0, 0
0, 0
0, 0
0, 0
0, 0
0, 0
0, 0
0, 0
0, 0
0, 0
0, 0
0, 0
0, 0
0, 0
0, 0
0, 0
0, 0
0, 0
0, 0
0, 0
0, 0
0, 0
0, 0
0, 0
0, 0
0, 0
0, 0
0, 0
0, 0
0, 0
0, 0
0, 0
0, 0
0, 0
0, 0
0, 0
0, 0
0, 0
0, 0
0, 0
0, 0
0, 0
0, 0
0, 0
0, 0
0, 0
0, 0
0, 0
0, 0
0, 0
0, 0
0, 0
0, 0
0, 0
0, 0
0, 0
0, 0
0, 0
0, 0
0, 0
0, 0
0, 0
0, 0
0, 0
0, 0
0, 0
0, 0
0, 0
0, 0
0, 0
0, 0
0, 0
0, 0
0, 0
0, 0
0, 0
0, 0
0, 0
0, 0
0, 0
0, 0
0, 0
0, 0
0, 0
0, 0
0, 0
0, 0
0, 0
0, 0
0, 0
0, 0
0, 0
0, 0
0, 0
0, 0
0, 0
0, 0
0, 0
0, 0
0, 0
0, 0
0, 0
0, 0
0, 0
0, 0
0, 0
0, 0
0, 0
0, 0
0, 0
0, 0
0, 0
0, 0
0, 0
0, 0
#ENDOFDATA     end of spectrum data