File: host_upload/06-09-2024/ps_0852/dump3/ps__0852shot_2034.msa
#FORMAT      : EMSA/MAS spectral data file
#VERSION     : TC202v2.0 PIXL
#TITLE       : N/A
#DATE        :       Date in the format DD-MMM-YYYY, for example 07-JUL-2010
#TIME        :             The time of day at which the spectrum was recorded, in 24-hour format
#OWNER       : PIXL Flight Model       (PIXL will use this to indicate which instrument took the data.)
#NPOINTS     : 4096     Number of data points in the spectrum (This can be zero for configuration only files)
#NCOLUMNS    : 2     Number of data columns in the spectrum (This can be zero for configuration only files)
#XUNITS      : eV
#YUNITS      : COUNTS
#DATATYPE    : YY
#XPERCHAN    : 7.862, 7.881   eV per channel (separate by commas if more than one detector)
#OFFSET      : 18.5, -22.4         eV of first channel  (separate by commas if more than one detector
#SIGNALTYPE  : XRF
#YP_TEMP     : 2.46
#LIVETIME    : 8.5934, 8.60051   seconds (separate by commas if more than one detector)
#REALTIME    : 10, 10.0   seconds (separate by commas if more than one detector)
#SPECTRUM    : start of spectrum data
0, 0
0, 0
0, 0
0, 0
0, 0
0, 0
0, 0
0, 0
0, 0
0, 0
0, 0
0, 0
0, 0
0, 0
0, 0
0, 0
0, 0
0, 0
0, 0
0, 0
0, 0
0, 0
0, 0
0, 0
0, 0
0, 0
0, 0
0, 0
0, 0
0, 0
0, 0
1, 0
1, 0
0, 0
0, 0
0, 1
0, 1
0, 0
3, 1
2, 1
0, 2
1, 4
1, 4
3, 3
0, 0
1, 4
2, 1
5, 2
5, 5
14, 11
31, 23
36, 35
46, 57
83, 71
71, 73
73, 57
58, 46
38, 35
26, 14
9, 14
13, 6
2, 6
2, 7
7, 2
9, 9
7, 9
3, 5
21, 11
15, 19
37, 47
86, 98
174, 187
245, 254
326, 314
417, 374
395, 358
354, 335
306, 276
198, 186
134, 103
59, 73
40, 37
28, 19
15, 13
10, 13
7, 9
7, 7
10, 4
5, 4
7, 2
3, 1
4, 2
4, 1
2, 1
2, 3
3, 2
2, 6
7, 6
1, 3
7, 5
4, 5
5, 9
7, 0
3, 4
2, 3
13, 6
7, 2
13, 15
12, 9
32, 22
36, 45
41, 44
43, 49
53, 54
64, 65
61, 60
61, 41
50, 36
56, 32
44, 29
37, 35
34, 21
29, 13
29, 13
32, 15
18, 9
19, 14
16, 22
19, 11
12, 7
13, 5
6, 8
3, 5
2, 4
2, 4
1, 3
1, 4
2, 1
0, 4
3, 4
1, 4
1, 4
2, 1
5, 5
1, 3
2, 4
7, 4
2, 7
0, 8
3, 15
0, 11
5, 17
6, 33
20, 33
15, 47
21, 34
20, 34
25, 33
32, 30
31, 20
10, 20
11, 13
10, 14
7, 8
9, 5
2, 4
4, 7
6, 4
3, 3
6, 10
2, 8
10, 7
2, 9
7, 6
11, 9
5, 6
6, 9
5, 2
3, 9
6, 6
3, 3
5, 7
8, 5
11, 3
11, 0
6, 1
9, 8
8, 8
14, 5
10, 6
11, 9
8, 12
10, 11
12, 10
13, 7
14, 8
17, 16
10, 18
8, 17
8, 14
11, 11
13, 12
7, 11
8, 13
4, 9
4, 8
4, 5
4, 5
6, 7
6, 11
6, 9
2, 8
3, 10
8, 7
12, 12
7, 18
2, 6
9, 14
5, 20
6, 10
9, 10
9, 11
9, 11
6, 9
10, 10
7, 16
13, 8
8, 12
12, 12
17, 14
15, 13
23, 18
17, 18
24, 11
23, 10
25, 8
25, 5
37, 4
30, 10
50, 11
27, 3
44, 9
45, 13
61, 9
60, 18
59, 15
76, 29
61, 41
65, 50
60, 62
69, 62
65, 66
66, 63
43, 40
49, 39
26, 27
29, 28
19, 17
14, 22
18, 15
23, 29
23, 38
45, 66
71, 104
161, 200
287, 326
448, 584
780, 909
1139, 1336
1532, 1761
1944, 2216
2208, 2457
2378, 2360
2332, 2313
2004, 1924
1692, 1518
1262, 1232
942, 794
577, 506
370, 308
179, 159
123, 101
63, 57
35, 35
25, 28
15, 21
17, 20
15, 16
22, 22
25, 26
35, 47
37, 40
41, 68
77, 79
101, 118
129, 188
171, 220
258, 279
330, 357
337, 358
348, 350
365, 347
303, 307
227, 224
178, 163
123, 112
95, 67
55, 42
45, 27
18, 12
12, 6
9, 11
8, 14
8, 12
9, 7
12, 9
16, 17
12, 18
14, 9
6, 11
9, 11
10, 12
4, 11
8, 4
9, 3
4, 4
4, 3
2, 3
3, 6
4, 4
4, 6
4, 5
4, 0
2, 11
1, 3
6, 6
2, 5
4, 6
4, 3
1, 6
2, 7
6, 9
4, 3
3, 1
4, 5
5, 5
3, 6
6, 3
3, 3
4, 5
3, 6
4, 4
3, 4
13, 2
2, 5
5, 4
4, 4
12, 5
6, 5
4, 3
6, 9
3, 7
7, 9
7, 13
7, 8
1, 10
7, 6
6, 11
4, 9
5, 4
5, 2
6, 8
8, 8
5, 5
4, 6
2, 7
9, 3
3, 9
8, 4
9, 6
9, 3
3, 5
6, 5
7, 5
9, 5
5, 3
7, 7
5, 5
4, 5
2, 4
6, 7
2, 3
4, 1
6, 1
3, 5
3, 3
2, 4
0, 5
4, 6
4, 1
3, 9
3, 5
0, 7
4, 7
2, 6
5, 5
4, 6
6, 6
2, 7
3, 7
4, 3
2, 4
0, 2
2, 5
2, 5
2, 4
4, 6
2, 3
4, 2
2, 3
2, 8
1, 3
1, 4
7, 4
2, 7
2, 6
5, 9
4, 6
2, 4
2, 4
5, 2
2, 3
2, 6
4, 11
4, 11
4, 4
4, 10
2, 10
3, 9
1, 7
4, 11
2, 9
3, 3
1, 5
1, 3
3, 5
3, 1
3, 1
1, 2
5, 1
3, 3
2, 2
6, 2
3, 6
5, 1
7, 2
3, 1
7, 1
7, 1
4, 0
2, 2
2, 1
3, 2
2, 4
3, 2
4, 0
3, 1
0, 0
4, 2
3, 2
1, 0
2, 8
2, 4
3, 1
5, 1
1, 2
5, 2
2, 4
4, 1
3, 6
1, 3
3, 5
5, 3
1, 3
3, 3
1, 3
4, 2
4, 2
3, 3
5, 3
2, 0
2, 1
2, 2
1, 2
6, 0
1, 0
3, 0
2, 1
2, 1
3, 2
0, 2
1, 3
0, 0
2, 0
1, 1
1, 2
1, 4
3, 5
0, 2
2, 0
0, 1
1, 0
2, 0
3, 1
4, 0
1, 3
5, 2
2, 0
2, 1
0, 3
4, 2
1, 1
2, 1
3, 1
2, 1
3, 2
2, 4
3, 2
0, 4
2, 3
0, 5
2, 6
4, 0
1, 4
4, 3
0, 2
5, 0
1, 3
3, 2
2, 4
3, 11
3, 4
7, 5
4, 3
2, 1
4, 2
3, 4
2, 2
3, 1
0, 3
1, 2
3, 3
2, 0
3, 0
1, 2
3, 1
1, 1
3, 4
2, 4
2, 6
4, 0
0, 1
2, 1
2, 1
4, 0
1, 1
2, 1
1, 3
4, 0
1, 0
2, 3
1, 1
0, 3
3, 3
1, 1
3, 1
0, 3
2, 3
4, 3
2, 1
2, 2
0, 1
0, 1
0, 0
1, 1
3, 0
1, 2
0, 1
1, 2
3, 3
0, 1
2, 0
0, 0
1, 2
4, 1
1, 1
3, 1
2, 2
0, 0
1, 2
0, 0
0, 1
1, 1
0, 0
3, 1
2, 0
3, 0
4, 1
0, 1
2, 0
2, 1
0, 0
0, 1
0, 1
1, 1
1, 0
0, 3
2, 1
1, 0
1, 0
0, 0
0, 0
0, 3
0, 0
0, 1
0, 0
0, 1
1, 1
0, 2
0, 0
0, 0
1, 2
0, 1
2, 1
1, 0
0, 2
0, 0
1, 0
1, 1
0, 0
1, 2
1, 0
1, 2
0, 1
0, 1
1, 1
0, 3
0, 0
2, 1
0, 2
0, 0
0, 2
1, 0
1, 1
0, 1
0, 0
1, 1
0, 1
0, 0
0, 0
1, 1
3, 3
2, 1
0, 0
0, 3
0, 2
0, 2
1, 1
0, 0
3, 0
2, 0
0, 0
1, 2
2, 0
0, 0
0, 0
1, 0
0, 0
1, 0
0, 0
0, 0
0, 2
1, 1
1, 2
0, 2
0, 2
0, 0
1, 0
1, 1
0, 0
0, 0
0, 0
0, 0
0, 0
0, 0
0, 1
0, 0
0, 0
1, 0
0, 0
0, 0
1, 0
0, 0
1, 0
0, 1
1, 1
1, 0
0, 0
1, 0
0, 2
0, 0
0, 0
0, 0
1, 0
0, 1
0, 0
0, 0
0, 2
2, 0
1, 0
1, 0
0, 1
0, 0
1, 1
0, 0
1, 0
0, 0
0, 0
0, 0
0, 0
0, 0
0, 0
0, 1
0, 0
0, 1
1, 1
0, 0
1, 0
0, 0
0, 0
0, 0
0, 1
0, 0
0, 0
0, 0
0, 1
0, 0
0, 1
0, 0
0, 0
0, 0
0, 1
0, 0
0, 0
0, 1
0, 0
0, 0
0, 0
0, 1
0, 0
0, 0
0, 0
0, 0
1, 0
0, 0
0, 0
0, 0
0, 0
1, 0
0, 0
2, 0
2, 0
0, 1
0, 0
0, 0
0, 0
0, 0
0, 0
1, 0
0, 0
0, 1
0, 1
0, 0
0, 1
0, 0
1, 0
1, 0
0, 1
0, 1
1, 0
0, 0
0, 0
0, 0
0, 0
0, 0
0, 2
0, 0
0, 0
0, 0
0, 1
0, 0
0, 0
0, 0
0, 0
0, 0
0, 0
0, 0
1, 0
1, 0
1, 0
0, 2
0, 0
0, 0
0, 1
0, 0
0, 0
1, 1
0, 0
0, 0
0, 0
0, 0
0, 0
0, 0
0, 0
0, 0
0, 1
1, 1
0, 1
0, 0
0, 0
2, 1
0, 0
0, 0
0, 0
1, 0
0, 0
0, 0
0, 0
0, 0
0, 0
0, 0
0, 1
1, 0
0, 0
0, 0
0, 0
0, 0
0, 2
0, 0
0, 0
0, 0
0, 0
0, 0
0, 1
1, 0
0, 0
0, 0
0, 0
0, 0
1, 0
0, 0
1, 0
0, 0
0, 1
0, 0
0, 0
1, 0
0, 0
0, 0
0, 0
0, 0
0, 0
0, 0
0, 0
1, 0
0, 0
0, 0
0, 0
0, 0
0, 0
0, 0
0, 1
0, 0
0, 0
0, 0
0, 0
0, 0
0, 0
0, 0
0, 0
0, 0
0, 0
0, 0
0, 0
0, 0
1, 0
0, 0
0, 0
1, 0
0, 0
0, 0
0, 0
0, 0
0, 0
0, 0
0, 0
0, 0
0, 0
0, 0
0, 0
0, 0
0, 0
0, 0
1, 0
0, 1
0, 0
0, 0
0, 0
0, 0
0, 0
0, 0
0, 0
1, 0
0, 0
0, 0
0, 0
0, 0
0, 0
0, 0
0, 1
0, 0
0, 0
0, 0
0, 0
0, 0
0, 0
0, 0
0, 1
0, 0
0, 0
0, 0
0, 0
0, 0
0, 0
0, 0
0, 0
0, 0
0, 0
0, 0
0, 0
0, 0
0, 0
0, 0
1, 0
0, 0
0, 0
0, 0
0, 0
0, 0
0, 0
0, 0
0, 0
0, 0
0, 0
0, 0
0, 0
0, 0
0, 0
0, 0
0, 0
0, 0
0, 0
0, 0
0, 0
0, 0
0, 0
0, 0
0, 0
0, 0
0, 0
0, 0
0, 0
0, 0
0, 0
0, 0
0, 0
0, 0
0, 0
0, 0
0, 0
0, 0
0, 0
0, 0
0, 0
0, 0
0, 0
0, 0
0, 0
0, 0
0, 0
0, 0
0, 0
0, 0
0, 0
0, 0
0, 0
0, 0
0, 0
0, 0
0, 0
0, 0
0, 0
0, 0
0, 0
0, 0
0, 0
0, 0
0, 0
0, 0
0, 0
0, 0
0, 0
0, 0
0, 0
0, 0
0, 0
0, 0
0, 0
0, 0
0, 0
0, 0
0, 0
0, 0
0, 0
0, 0
0, 0
0, 0
0, 0
0, 0
0, 0
0, 0
0, 0
0, 0
0, 0
0, 0
0, 0
0, 0
0, 0
0, 0
0, 0
0, 0
0, 0
0, 0
0, 0
0, 0
0, 0
0, 0
0, 0
0, 0
0, 0
0, 0
0, 0
0, 0
0, 0
0, 0
0, 0
0, 0
0, 0
0, 0
0, 0
0, 0
0, 0
0, 0
0, 0
0, 0
0, 0
0, 0
0, 0
0, 0
0, 0
0, 0
0, 0
0, 0
0, 0
0, 0
0, 0
0, 0
0, 0
0, 0
0, 0
0, 0
0, 0
0, 0
0, 0
0, 0
0, 0
0, 0
0, 0
0, 0
0, 0
0, 0
0, 0
0, 0
0, 0
0, 0
0, 0
0, 0
0, 0
0, 0
0, 0
0, 0
0, 0
0, 0
0, 0
0, 0
0, 0
0, 0
0, 0
0, 0
0, 0
0, 0
0, 0
0, 0
0, 0
0, 0
0, 0
0, 0
0, 0
0, 0
0, 0
0, 0
0, 0
0, 0
0, 0
0, 0
0, 0
0, 0
0, 0
0, 0
0, 0
0, 0
0, 0
0, 0
0, 0
0, 0
0, 0
0, 0
0, 0
0, 0
0, 0
0, 0
0, 0
0, 0
0, 0
0, 0
0, 0
0, 0
0, 0
0, 0
0, 0
0, 0
0, 0
0, 0
0, 0
0, 0
0, 0
0, 0
0, 0
0, 0
0, 0
0, 0
0, 0
0, 0
0, 0
0, 0
0, 0
0, 0
0, 0
0, 0
0, 0
0, 0
0, 0
0, 0
0, 0
0, 0
0, 0
0, 0
0, 0
0, 0
0, 0
0, 0
0, 0
0, 0
0, 0
0, 0
0, 0
0, 0
0, 0
0, 0
0, 0
0, 0
0, 0
0, 0
0, 0
0, 0
0, 0
0, 0
0, 0
0, 0
0, 0
0, 0
0, 0
0, 0
0, 0
0, 0
0, 0
0, 0
0, 0
0, 0
0, 0
0, 0
0, 0
0, 0
0, 0
0, 0
0, 0
0, 0
0, 0
0, 0
0, 0
0, 0
0, 0
0, 0
0, 0
0, 0
0, 0
0, 0
0, 0
0, 0
0, 0
0, 0
0, 0
0, 0
0, 0
0, 0
0, 0
0, 0
0, 0
0, 0
0, 0
0, 0
0, 0
0, 0
0, 0
0, 0
0, 0
0, 0
0, 0
0, 0
0, 0
0, 0
0, 0
0, 0
0, 0
0, 0
0, 0
0, 0
0, 0
0, 0
0, 0
0, 0
0, 0
0, 0
0, 0
0, 0
0, 0
0, 0
0, 0
0, 0
0, 0
0, 0
0, 0
0, 0
0, 0
0, 0
0, 0
0, 0
0, 0
0, 0
0, 0
0, 0
0, 0
0, 0
0, 0
0, 0
0, 0
0, 0
0, 0
0, 0
0, 0
0, 0
0, 0
0, 0
0, 0
0, 0
0, 0
0, 0
0, 0
0, 0
0, 0
0, 0
0, 0
0, 0
0, 0
0, 0
0, 0
0, 0
0, 0
0, 0
0, 0
0, 0
0, 0
0, 0
0, 0
0, 0
0, 0
0, 0
0, 0
0, 0
0, 0
0, 0
0, 0
0, 0
0, 0
0, 0
0, 0
0, 0
0, 0
0, 0
0, 0
0, 0
0, 0
0, 0
0, 0
0, 0
0, 0
0, 0
0, 0
0, 0
0, 0
0, 0
0, 0
0, 0
0, 0
0, 0
0, 0
0, 0
0, 0
0, 0
0, 0
0, 0
0, 0
0, 0
0, 0
0, 0
0, 0
#ENDOFDATA     end of spectrum data