File: host_upload/06-09-2024/ps_0852/dump3/ps__0852shot_2509.msa
#FORMAT      : EMSA/MAS spectral data file
#VERSION     : TC202v2.0 PIXL
#TITLE       : N/A
#DATE        :       Date in the format DD-MMM-YYYY, for example 07-JUL-2010
#TIME        :             The time of day at which the spectrum was recorded, in 24-hour format
#OWNER       : PIXL Flight Model       (PIXL will use this to indicate which instrument took the data.)
#NPOINTS     : 4096     Number of data points in the spectrum (This can be zero for configuration only files)
#NCOLUMNS    : 2     Number of data columns in the spectrum (This can be zero for configuration only files)
#XUNITS      : eV
#YUNITS      : COUNTS
#DATATYPE    : YY
#XPERCHAN    : 7.862, 7.881   eV per channel (separate by commas if more than one detector)
#OFFSET      : 18.5, -22.4         eV of first channel  (separate by commas if more than one detector
#SIGNALTYPE  : XRF
#YP_TEMP     : 2.171
#LIVETIME    : 8.59741, 8.59159   seconds (separate by commas if more than one detector)
#REALTIME    : 10, 10.0   seconds (separate by commas if more than one detector)
#SPECTRUM    : start of spectrum data
0, 0
0, 0
0, 0
0, 0
0, 0
0, 0
0, 0
0, 0
0, 0
0, 0
0, 0
0, 0
0, 0
0, 0
0, 0
0, 0
0, 0
0, 0
0, 0
0, 0
0, 0
0, 0
0, 0
0, 0
0, 0
0, 0
0, 0
0, 0
0, 0
0, 0
0, 0
0, 0
0, 0
0, 0
1, 0
0, 0
0, 0
1, 0
1, 1
1, 0
0, 2
0, 1
0, 1
1, 2
2, 3
3, 2
1, 4
3, 1
5, 4
13, 11
22, 14
47, 35
43, 53
49, 60
62, 58
64, 47
51, 61
35, 31
23, 26
6, 14
11, 6
6, 4
6, 1
6, 2
2, 8
4, 5
7, 6
10, 8
26, 19
53, 42
81, 99
163, 179
229, 248
344, 319
349, 369
379, 399
335, 366
230, 294
173, 159
109, 117
66, 63
30, 31
29, 25
20, 19
18, 18
21, 20
14, 21
14, 28
12, 17
8, 17
13, 8
14, 22
16, 21
39, 33
47, 80
119, 133
153, 176
210, 249
280, 243
242, 275
224, 227
191, 176
130, 140
90, 71
54, 52
40, 37
32, 25
30, 15
25, 31
33, 23
38, 39
53, 57
56, 59
66, 63
53, 55
58, 61
69, 49
66, 45
47, 37
39, 23
35, 27
41, 32
29, 17
22, 19
22, 17
26, 13
19, 16
20, 5
12, 10
3, 8
7, 9
9, 5
6, 4
2, 3
8, 4
2, 2
5, 3
0, 2
3, 3
6, 5
6, 2
0, 3
2, 3
1, 1
1, 3
1, 7
3, 6
2, 2
1, 4
9, 11
12, 6
15, 17
41, 40
57, 60
85, 97
125, 125
124, 140
137, 175
146, 137
115, 127
112, 101
73, 65
61, 47
37, 32
31, 17
31, 9
29, 14
34, 11
33, 21
44, 19
46, 24
42, 25
36, 29
32, 12
34, 16
14, 13
5, 7
3, 9
4, 7
1, 9
5, 8
10, 9
4, 4
3, 6
4, 7
5, 3
5, 7
4, 7
6, 12
17, 5
16, 8
10, 12
11, 10
17, 15
19, 11
8, 14
11, 17
11, 18
12, 14
8, 15
9, 16
12, 19
10, 13
9, 9
6, 2
3, 11
6, 3
7, 11
9, 9
5, 8
7, 8
6, 7
5, 5
10, 6
10, 8
9, 8
10, 6
4, 2
4, 6
4, 9
11, 11
6, 6
5, 18
6, 14
10, 26
16, 24
15, 41
24, 36
28, 48
33, 49
30, 48
49, 33
32, 31
25, 37
30, 12
18, 15
12, 6
13, 10
7, 10
6, 15
9, 14
8, 13
19, 22
10, 14
14, 17
15, 25
25, 39
40, 56
53, 54
53, 62
47, 50
64, 58
67, 51
39, 47
46, 42
37, 31
21, 45
16, 11
24, 23
24, 17
27, 22
18, 36
51, 48
74, 86
155, 149
225, 301
381, 541
673, 830
1000, 1246
1347, 1626
1710, 2007
1926, 2093
2049, 2244
2039, 2070
1854, 1740
1517, 1305
1089, 996
740, 652
457, 369
288, 254
157, 118
84, 69
64, 25
20, 30
20, 17
10, 17
16, 14
15, 10
27, 16
28, 25
22, 30
29, 33
42, 46
77, 72
71, 104
151, 183
175, 231
227, 258
291, 334
303, 314
324, 326
323, 306
235, 265
226, 186
154, 158
116, 97
79, 55
48, 43
38, 18
19, 19
10, 14
7, 9
3, 10
7, 9
7, 13
11, 8
13, 15
13, 13
12, 11
13, 21
5, 10
11, 8
8, 6
4, 10
8, 5
5, 6
10, 2
7, 5
6, 8
8, 2
11, 4
10, 6
22, 6
24, 3
18, 8
20, 6
21, 7
18, 4
15, 6
8, 6
12, 5
11, 10
2, 11
10, 6
6, 9
5, 12
5, 12
6, 5
4, 2
8, 6
5, 7
6, 8
5, 5
6, 5
8, 8
7, 9
7, 6
6, 9
5, 2
10, 3
5, 5
6, 4
12, 10
2, 6
8, 7
5, 6
5, 3
6, 0
6, 7
5, 2
5, 5
5, 5
4, 4
5, 2
6, 5
4, 5
5, 4
4, 4
5, 6
8, 9
6, 6
5, 3
4, 9
5, 4
2, 4
2, 7
6, 4
5, 8
2, 7
6, 6
3, 4
8, 14
2, 8
1, 15
2, 12
0, 10
4, 4
2, 8
3, 11
6, 8
7, 4
2, 1
3, 1
7, 3
5, 1
2, 5
0, 4
2, 6
4, 2
4, 2
7, 4
6, 2
4, 3
5, 2
3, 2
5, 6
4, 2
3, 3
1, 4
2, 2
3, 2
2, 8
3, 1
5, 6
0, 4
2, 3
3, 7
2, 3
5, 3
4, 9
3, 2
3, 3
3, 5
3, 3
3, 3
3, 5
6, 4
3, 3
4, 3
4, 5
2, 1
3, 4
4, 3
4, 2
2, 5
4, 6
3, 2
2, 0
8, 4
3, 10
2, 1
2, 5
2, 5
5, 5
0, 8
1, 4
1, 5
2, 5
0, 2
4, 4
1, 5
2, 2
3, 0
3, 3
1, 0
2, 4
2, 0
2, 1
5, 3
2, 3
3, 4
3, 0
2, 0
7, 1
1, 2
3, 1
0, 1
2, 2
4, 3
1, 2
3, 3
2, 4
4, 1
5, 3
4, 2
3, 3
5, 3
4, 2
1, 2
3, 4
4, 5
5, 1
1, 2
3, 1
3, 2
4, 0
3, 6
4, 1
3, 1
1, 2
1, 1
4, 3
6, 0
2, 2
2, 3
1, 1
5, 2
4, 1
5, 2
0, 1
1, 2
1, 3
0, 4
2, 0
1, 2
3, 2
1, 0
1, 3
2, 3
4, 3
1, 1
1, 2
3, 5
2, 1
2, 2
0, 3
2, 3
2, 2
3, 2
0, 2
1, 0
2, 4
2, 0
0, 2
0, 2
1, 3
2, 1
1, 5
4, 3
4, 2
1, 1
0, 7
9, 5
3, 2
5, 3
2, 4
2, 6
1, 3
4, 2
5, 3
1, 1
6, 3
2, 0
3, 1
1, 1
1, 1
0, 0
3, 2
2, 1
0, 0
0, 2
2, 1
0, 2
1, 1
2, 0
2, 1
4, 2
3, 2
1, 2
2, 4
2, 0
1, 2
1, 2
1, 2
1, 2
0, 5
2, 1
0, 2
2, 1
1, 3
1, 1
0, 3
1, 4
0, 1
1, 1
1, 5
0, 0
5, 0
2, 1
1, 2
2, 0
1, 0
1, 0
3, 0
2, 2
2, 1
1, 2
2, 1
1, 2
1, 0
1, 1
0, 2
2, 0
0, 0
0, 1
3, 0
2, 0
0, 2
1, 0
3, 0
0, 1
3, 2
0, 1
1, 0
2, 1
0, 0
1, 0
0, 0
3, 2
0, 1
1, 0
2, 1
0, 1
0, 0
0, 0
1, 0
1, 1
0, 1
1, 0
2, 0
2, 1
0, 0
2, 2
1, 1
2, 0
1, 0
0, 3
0, 0
1, 0
2, 1
0, 0
0, 0
1, 1
0, 3
0, 0
0, 0
1, 0
0, 1
2, 0
1, 0
0, 0
0, 0
1, 0
2, 0
3, 1
0, 1
1, 2
0, 1
1, 0
0, 0
1, 1
1, 1
0, 0
2, 1
0, 1
1, 0
1, 1
0, 1
0, 0
1, 0
0, 0
0, 1
0, 0
2, 0
0, 0
0, 0
0, 0
1, 0
0, 0
0, 0
0, 0
0, 0
0, 0
1, 1
0, 1
1, 0
0, 0
0, 0
0, 0
1, 0
1, 0
2, 1
0, 0
0, 0
0, 0
0, 2
1, 2
1, 0
0, 0
0, 0
0, 0
0, 0
0, 0
0, 0
1, 1
0, 0
0, 1
0, 0
0, 1
1, 0
1, 0
2, 1
0, 0
0, 1
0, 0
0, 0
0, 2
0, 0
1, 0
0, 0
1, 0
0, 0
0, 0
0, 2
0, 0
0, 2
0, 0
1, 0
0, 0
0, 1
2, 0
0, 0
1, 1
0, 1
1, 0
1, 1
0, 0
0, 0
0, 0
0, 1
0, 0
0, 1
0, 1
0, 1
0, 0
1, 2
1, 0
0, 1
2, 1
0, 0
1, 0
0, 0
0, 0
1, 1
0, 0
0, 1
1, 0
1, 0
0, 0
1, 0
0, 0
1, 0
0, 0
1, 0
0, 1
1, 0
0, 0
2, 0
0, 0
0, 0
0, 0
0, 0
0, 0
0, 1
0, 0
0, 1
0, 0
0, 0
0, 2
1, 0
1, 0
0, 0
1, 0
0, 0
0, 0
0, 0
0, 0
0, 1
0, 0
0, 1
0, 0
1, 0
0, 0
0, 0
0, 0
0, 1
0, 1
0, 0
0, 0
0, 0
0, 0
0, 1
0, 0
0, 0
0, 1
1, 0
0, 0
1, 0
0, 1
0, 0
0, 0
1, 0
0, 2
0, 0
0, 0
0, 0
0, 0
1, 0
0, 0
0, 0
0, 0
0, 1
0, 0
0, 0
0, 0
0, 0
0, 0
1, 0
0, 0
0, 0
0, 0
0, 0
0, 0
0, 1
0, 0
0, 0
0, 0
0, 0
0, 1
1, 0
0, 0
0, 0
0, 0
0, 1
0, 1
0, 0
0, 0
1, 1
0, 0
0, 0
0, 0
0, 0
0, 0
0, 0
0, 0
0, 1
0, 0
0, 0
0, 2
0, 0
0, 0
0, 0
0, 0
1, 0
0, 0
0, 0
1, 0
0, 0
0, 1
0, 0
0, 0
0, 0
0, 0
0, 0
0, 0
1, 0
0, 0
0, 0
0, 1
1, 0
0, 0
0, 0
1, 0
0, 0
0, 0
0, 0
0, 0
0, 0
0, 1
0, 0
0, 0
0, 0
0, 0
1, 0
0, 0
0, 0
0, 0
0, 0
0, 0
0, 0
0, 0
0, 0
0, 0
0, 0
0, 0
1, 0
0, 0
0, 0
0, 0
0, 0
0, 0
0, 0
0, 0
0, 0
0, 0
0, 0
0, 0
0, 0
0, 0
0, 0
0, 0
0, 0
0, 0
0, 0
0, 0
0, 0
0, 0
0, 0
0, 0
0, 0
0, 0
0, 0
0, 0
0, 0
0, 0
0, 0
0, 0
0, 0
0, 0
0, 0
0, 0
0, 1
0, 0
0, 0
0, 0
0, 0
0, 0
0, 0
0, 0
0, 0
0, 0
0, 0
0, 0
0, 0
0, 0
0, 0
1, 0
0, 0
0, 0
0, 0
0, 0
0, 0
0, 0
0, 0
0, 0
0, 0
0, 0
0, 0
0, 0
0, 0
0, 0
0, 0
0, 0
0, 0
1, 0
0, 0
0, 0
0, 0
0, 0
0, 0
0, 0
0, 0
0, 0
0, 0
0, 0
0, 0
0, 0
0, 0
0, 0
0, 0
0, 0
0, 0
0, 0
0, 0
0, 0
0, 0
0, 0
0, 0
0, 0
0, 0
0, 0
0, 0
0, 0
0, 0
0, 0
0, 0
0, 0
0, 0
0, 0
0, 0
0, 0
0, 0
0, 0
0, 0
0, 0
0, 1
1, 0
0, 0
0, 0
0, 0
0, 0
0, 0
0, 0
0, 0
0, 0
0, 0
0, 0
0, 0
0, 0
0, 0
0, 0
0, 0
0, 0
0, 0
0, 0
0, 0
0, 0
0, 0
0, 0
0, 0
0, 0
0, 0
0, 0
0, 0
0, 0
0, 0
0, 0
0, 0
0, 0
0, 0
0, 0
0, 0
0, 0
0, 0
0, 0
0, 0
0, 0
0, 0
0, 0
0, 0
0, 0
0, 0
0, 0
0, 0
0, 0
0, 0
0, 0
0, 0
0, 0
0, 0
0, 0
0, 0
0, 0
0, 0
0, 0
0, 0
0, 0
0, 0
0, 0
0, 0
0, 0
0, 0
0, 0
0, 0
0, 0
0, 0
0, 0
0, 0
0, 0
0, 0
0, 0
0, 0
0, 0
0, 0
1, 0
0, 0
0, 0
0, 0
0, 0
0, 0
0, 0
0, 0
0, 0
0, 0
0, 0
0, 0
0, 0
0, 0
0, 0
0, 0
0, 0
0, 0
0, 0
0, 0
0, 0
0, 0
0, 0
0, 0
0, 0
0, 0
0, 0
0, 0
0, 0
0, 0
0, 0
0, 0
0, 0
0, 0
0, 0
0, 0
0, 0
0, 0
0, 0
0, 0
0, 0
0, 0
0, 0
0, 0
0, 0
0, 0
0, 0
0, 0
0, 0
0, 0
0, 0
0, 0
0, 0
0, 0
0, 0
0, 0
0, 0
0, 0
0, 0
0, 0
0, 0
0, 0
0, 0
0, 0
0, 0
0, 0
0, 0
0, 0
0, 0
0, 0
0, 0
0, 0
0, 0
0, 0
0, 0
0, 0
0, 0
0, 0
0, 0
0, 0
0, 0
0, 0
0, 0
0, 0
0, 0
0, 0
0, 0
0, 0
0, 0
0, 0
0, 0
0, 0
0, 0
0, 0
0, 0
0, 0
0, 0
0, 0
0, 0
0, 0
0, 0
0, 0
0, 0
0, 0
0, 0
0, 0
0, 0
0, 0
0, 0
0, 0
0, 0
0, 0
0, 0
0, 0
0, 0
0, 0
0, 0
0, 0
0, 0
0, 0
0, 0
0, 0
0, 0
0, 0
0, 0
0, 0
0, 0
0, 0
0, 0
0, 0
0, 0
0, 0
0, 0
0, 0
0, 0
0, 0
0, 0
0, 0
0, 0
0, 0
0, 0
0, 0
0, 0
0, 0
0, 0
0, 0
0, 0
0, 0
0, 0
0, 0
0, 0
0, 0
0, 0
0, 0
0, 0
0, 0
0, 0
0, 0
0, 0
0, 0
0, 0
0, 0
0, 0
0, 0
0, 0
0, 0
0, 0
0, 0
0, 0
0, 0
0, 0
0, 0
0, 0
0, 0
0, 0
0, 0
0, 0
0, 0
0, 0
0, 0
0, 0
0, 0
0, 0
0, 0
0, 0
0, 0
0, 0
0, 0
0, 0
0, 0
0, 0
0, 0
0, 0
0, 0
0, 0
0, 0
0, 0
0, 0
0, 0
0, 0
0, 0
0, 0
0, 0
0, 0
0, 0
0, 0
0, 0
0, 0
0, 0
0, 0
0, 0
0, 0
0, 0
0, 0
0, 0
0, 0
0, 0
0, 0
0, 0
0, 0
0, 0
0, 0
0, 0
0, 0
0, 0
0, 0
0, 0
0, 0
0, 0
0, 0
0, 0
0, 0
0, 0
0, 0
0, 0
0, 0
0, 0
0, 0
0, 0
0, 0
0, 0
0, 0
0, 0
0, 0
0, 0
0, 0
0, 0
0, 0
0, 0
0, 0
0, 0
0, 0
0, 0
0, 0
0, 0
0, 0
0, 0
0, 0
0, 0
0, 0
0, 0
0, 0
0, 0
0, 0
0, 0
0, 0
0, 0
0, 0
0, 0
0, 0
0, 0
0, 0
#ENDOFDATA     end of spectrum data