File: host_upload/06-09-2024/ps_0852/dump3/ps__0852shot_2371.msa
#FORMAT      : EMSA/MAS spectral data file
#VERSION     : TC202v2.0 PIXL
#TITLE       : N/A
#DATE        :       Date in the format DD-MMM-YYYY, for example 07-JUL-2010
#TIME        :             The time of day at which the spectrum was recorded, in 24-hour format
#OWNER       : PIXL Flight Model       (PIXL will use this to indicate which instrument took the data.)
#NPOINTS     : 4096     Number of data points in the spectrum (This can be zero for configuration only files)
#NCOLUMNS    : 2     Number of data columns in the spectrum (This can be zero for configuration only files)
#XUNITS      : eV
#YUNITS      : COUNTS
#DATATYPE    : YY
#XPERCHAN    : 7.862, 7.881   eV per channel (separate by commas if more than one detector)
#OFFSET      : 18.5, -22.4         eV of first channel  (separate by commas if more than one detector
#SIGNALTYPE  : XRF
#YP_TEMP     : 2.203
#LIVETIME    : 8.55885, 8.55738   seconds (separate by commas if more than one detector)
#REALTIME    : 10, 10.0   seconds (separate by commas if more than one detector)
#SPECTRUM    : start of spectrum data
0, 0
0, 0
0, 0
0, 0
0, 0
0, 0
0, 0
0, 0
0, 0
0, 0
0, 0
0, 0
0, 0
0, 0
0, 0
0, 0
0, 0
0, 0
0, 0
0, 0
0, 0
0, 0
0, 0
0, 0
0, 0
0, 0
0, 0
0, 0
0, 0
0, 0
0, 1
0, 0
0, 0
0, 0
0, 0
0, 0
1, 0
0, 1
0, 0
0, 3
0, 0
1, 3
0, 1
0, 2
0, 1
1, 2
0, 2
3, 1
7, 6
5, 9
15, 27
49, 42
62, 57
102, 82
81, 68
79, 82
58, 62
42, 25
26, 37
18, 17
5, 11
3, 4
1, 3
5, 3
2, 5
0, 4
6, 5
10, 10
24, 28
44, 52
86, 90
190, 179
270, 282
379, 396
400, 447
423, 422
341, 373
315, 315
186, 197
156, 121
73, 65
35, 36
16, 17
8, 9
2, 4
2, 9
3, 1
2, 3
2, 1
2, 1
1, 4
2, 2
0, 0
6, 5
3, 5
5, 6
4, 6
8, 6
7, 9
8, 13
8, 8
10, 9
5, 7
4, 10
3, 4
7, 11
2, 9
5, 4
5, 11
8, 12
10, 19
10, 22
30, 28
24, 45
33, 38
22, 49
24, 39
28, 46
30, 57
22, 27
21, 30
19, 30
15, 27
18, 24
15, 19
14, 16
10, 10
7, 8
12, 13
4, 9
5, 3
4, 1
5, 3
4, 3
1, 3
3, 2
2, 2
0, 1
1, 1
1, 3
1, 3
2, 1
0, 1
4, 2
2, 1
2, 4
1, 1
2, 1
2, 2
3, 1
8, 4
11, 5
7, 13
20, 15
22, 17
31, 30
49, 39
37, 49
49, 41
37, 38
38, 35
15, 22
18, 18
9, 13
9, 6
10, 8
2, 3
6, 4
11, 5
6, 5
9, 11
10, 7
3, 11
10, 6
5, 13
6, 8
6, 6
7, 4
7, 9
5, 1
1, 7
8, 4
1, 4
5, 4
3, 2
5, 5
7, 4
6, 6
8, 7
8, 5
11, 3
12, 12
13, 23
9, 13
14, 33
18, 38
14, 43
23, 55
28, 40
27, 44
38, 42
41, 38
42, 20
49, 20
47, 16
56, 12
39, 9
38, 9
26, 14
13, 14
17, 12
5, 9
9, 15
8, 5
8, 6
7, 13
11, 10
7, 8
5, 11
13, 10
11, 7
9, 3
5, 8
7, 13
7, 9
11, 9
9, 13
12, 9
19, 19
13, 21
13, 17
8, 12
15, 14
10, 12
14, 17
11, 11
13, 17
8, 11
7, 8
13, 7
6, 6
9, 14
10, 6
10, 25
16, 24
26, 39
19, 51
33, 65
51, 79
51, 105
64, 135
64, 80
52, 86
54, 65
47, 45
34, 33
26, 23
18, 17
20, 12
17, 18
19, 24
31, 22
45, 58
87, 96
160, 201
279, 329
472, 599
746, 938
1122, 1437
1520, 1757
1936, 2145
2230, 2441
2334, 2448
2325, 2360
2014, 2026
1728, 1591
1325, 1092
896, 777
551, 478
345, 272
212, 122
108, 79
101, 38
79, 18
91, 14
91, 17
111, 16
128, 20
119, 17
125, 19
107, 25
93, 30
114, 56
93, 83
128, 132
135, 161
205, 251
235, 319
295, 331
349, 359
372, 358
353, 337
278, 292
238, 238
204, 155
145, 110
100, 73
67, 39
43, 27
21, 17
15, 19
12, 10
5, 14
11, 14
6, 18
8, 14
13, 18
14, 11
12, 20
9, 16
13, 8
8, 11
4, 2
5, 12
4, 10
2, 2
5, 4
1, 6
4, 7
3, 4
6, 5
3, 2
2, 4
2, 3
2, 2
5, 7
7, 6
2, 2
4, 3
3, 2
5, 5
0, 8
5, 2
6, 8
8, 6
6, 8
1, 8
3, 4
4, 3
6, 4
5, 7
7, 7
11, 4
7, 5
9, 8
5, 3
12, 2
11, 2
11, 4
10, 7
7, 1
7, 3
9, 5
6, 3
12, 2
8, 6
8, 3
2, 4
2, 4
4, 7
8, 8
8, 4
5, 7
2, 4
1, 4
4, 6
7, 9
6, 4
6, 1
3, 1
4, 4
3, 7
3, 2
4, 6
1, 4
4, 3
4, 4
1, 7
0, 10
6, 12
5, 14
5, 19
1, 25
5, 30
4, 32
3, 22
1, 34
3, 30
5, 22
6, 22
6, 13
5, 15
5, 13
4, 10
4, 6
7, 3
1, 1
6, 3
2, 3
5, 2
3, 3
7, 4
3, 3
6, 3
7, 1
6, 4
12, 3
16, 2
16, 3
15, 1
5, 5
9, 7
8, 4
6, 4
6, 3
5, 2
1, 2
3, 2
4, 5
3, 5
2, 3
3, 2
2, 1
2, 4
3, 2
3, 3
2, 3
3, 4
1, 2
3, 2
5, 1
0, 3
2, 3
0, 4
3, 3
4, 3
3, 4
2, 2
2, 3
3, 1
2, 2
3, 2
1, 6
4, 5
0, 2
1, 4
2, 2
3, 3
2, 1
4, 3
3, 2
3, 1
2, 1
4, 4
3, 6
1, 4
0, 1
3, 1
0, 0
1, 3
1, 0
1, 2
4, 1
1, 1
3, 4
2, 2
3, 1
1, 2
1, 2
3, 5
1, 2
7, 0
4, 2
1, 3
3, 3
4, 7
0, 6
3, 8
3, 5
2, 6
1, 4
2, 4
1, 3
2, 6
3, 5
1, 5
1, 7
3, 5
2, 4
3, 3
1, 2
7, 3
3, 4
3, 4
4, 5
2, 0
1, 0
3, 0
1, 1
4, 5
1, 0
2, 0
3, 1
1, 2
0, 4
5, 3
1, 2
2, 3
3, 1
0, 2
3, 2
1, 4
3, 0
1, 1
1, 0
0, 0
2, 0
1, 3
7, 4
3, 2
2, 4
2, 1
1, 4
5, 6
1, 0
4, 1
3, 1
3, 4
3, 2
3, 0
3, 4
3, 2
2, 1
4, 7
2, 6
2, 4
3, 3
6, 2
1, 2
4, 0
1, 2
2, 2
1, 0
3, 4
0, 1
2, 1
0, 0
0, 2
1, 3
3, 0
1, 0
4, 2
2, 0
1, 1
1, 1
2, 2
0, 1
0, 4
0, 3
1, 0
4, 2
0, 2
2, 4
1, 1
0, 0
0, 2
2, 0
1, 0
3, 2
1, 0
2, 3
1, 0
1, 2
3, 0
2, 1
1, 1
0, 2
3, 1
0, 1
1, 2
0, 2
2, 1
1, 2
0, 0
1, 2
1, 2
2, 1
0, 1
2, 0
2, 0
2, 1
0, 4
0, 0
0, 2
2, 3
1, 1
0, 2
4, 1
0, 0
0, 0
1, 0
2, 1
3, 3
0, 0
0, 0
3, 0
1, 3
2, 0
0, 1
1, 0
1, 0
0, 0
0, 0
1, 1
2, 2
2, 2
2, 3
1, 0
0, 2
1, 1
1, 0
0, 0
1, 1
1, 0
0, 0
0, 0
1, 1
0, 0
0, 0
0, 0
0, 0
0, 1
1, 1
2, 1
0, 1
0, 0
1, 1
0, 0
1, 0
0, 0
1, 0
1, 1
2, 0
0, 0
1, 0
0, 0
1, 1
0, 0
0, 1
0, 0
1, 1
0, 0
0, 1
1, 0
0, 2
0, 0
0, 1
2, 0
1, 0
0, 0
0, 1
2, 2
0, 1
1, 0
0, 0
2, 1
1, 1
0, 2
0, 0
0, 1
0, 2
0, 1
0, 1
1, 1
1, 0
1, 0
1, 0
1, 1
0, 1
0, 1
0, 1
0, 1
1, 0
0, 0
1, 0
1, 1
0, 1
0, 0
1, 0
0, 1
0, 0
1, 0
1, 0
1, 0
0, 0
0, 0
0, 0
1, 1
0, 0
1, 0
0, 1
1, 0
0, 1
0, 1
1, 0
0, 0
0, 0
0, 2
0, 0
1, 0
0, 0
1, 0
0, 0
0, 0
2, 0
0, 0
0, 0
0, 0
0, 0
0, 0
0, 0
1, 0
1, 0
0, 1
0, 1
0, 0
0, 1
0, 1
0, 1
0, 1
1, 1
0, 0
0, 0
0, 0
1, 0
0, 0
0, 0
0, 0
0, 0
0, 1
1, 0
1, 0
0, 0
0, 0
0, 0
1, 0
1, 1
0, 0
0, 0
0, 0
1, 0
0, 1
0, 0
0, 0
0, 0
0, 0
0, 0
0, 0
1, 0
0, 0
0, 0
0, 0
0, 1
0, 0
0, 0
0, 0
1, 0
0, 0
0, 1
1, 0
1, 0
0, 0
0, 1
1, 0
0, 0
0, 1
0, 0
1, 0
0, 0
0, 0
2, 0
0, 1
0, 0
0, 0
0, 0
0, 1
2, 0
0, 0
0, 1
1, 0
1, 0
0, 1
0, 0
0, 2
0, 1
0, 0
0, 0
0, 3
0, 0
1, 0
0, 0
0, 0
0, 0
0, 0
0, 0
0, 0
0, 0
0, 0
0, 1
0, 0
0, 0
0, 0
0, 1
0, 0
0, 0
0, 0
0, 0
0, 0
0, 0
0, 0
0, 0
0, 0
1, 0
0, 0
0, 0
2, 0
1, 0
0, 1
0, 0
0, 0
0, 0
0, 0
0, 0
0, 0
0, 0
0, 0
0, 0
0, 0
0, 0
0, 0
0, 0
0, 0
0, 0
0, 0
0, 0
0, 0
0, 0
0, 1
0, 0
0, 0
0, 1
0, 0
1, 0
0, 0
0, 0
0, 0
0, 0
0, 1
0, 0
0, 1
1, 0
0, 0
0, 0
0, 0
0, 0
1, 0
0, 0
0, 0
0, 0
0, 0
0, 0
0, 0
0, 0
0, 0
0, 0
0, 0
0, 0
0, 0
0, 0
0, 0
0, 0
0, 0
0, 0
0, 1
0, 0
0, 0
0, 0
0, 0
0, 0
1, 0
0, 0
0, 0
0, 0
0, 1
0, 0
0, 0
0, 0
0, 0
0, 0
0, 0
0, 0
0, 0
0, 0
0, 0
0, 0
0, 0
0, 0
0, 0
0, 0
0, 0
0, 0
0, 0
0, 0
0, 0
0, 0
0, 1
0, 1
0, 0
0, 0
0, 0
0, 0
0, 0
0, 0
0, 0
0, 0
0, 0
0, 0
0, 0
0, 0
0, 0
0, 0
0, 0
0, 0
0, 0
0, 0
0, 0
0, 0
0, 0
0, 1
0, 1
0, 0
0, 0
0, 0
0, 0
0, 0
0, 0
0, 0
0, 0
0, 0
0, 0
0, 0
0, 0
0, 0
0, 0
0, 0
1, 0
0, 0
0, 0
0, 0
0, 0
0, 0
0, 0
0, 0
0, 0
0, 0
0, 0
0, 0
0, 0
0, 0
0, 0
0, 0
0, 0
0, 0
0, 0
0, 0
0, 0
0, 0
0, 0
0, 0
0, 0
0, 0
0, 0
0, 0
0, 0
0, 0
0, 0
0, 0
0, 0
0, 0
0, 0
0, 0
0, 0
0, 0
0, 0
0, 0
0, 0
0, 0
0, 0
0, 0
0, 0
0, 0
0, 0
0, 0
0, 0
0, 0
0, 0
0, 0
0, 0
0, 0
0, 0
0, 0
0, 0
0, 0
0, 0
0, 0
0, 0
0, 0
0, 0
0, 0
0, 0
0, 0
0, 0
0, 0
0, 0
0, 0
0, 0
0, 0
0, 0
0, 0
0, 0
0, 0
0, 0
0, 0
0, 0
0, 0
0, 0
0, 0
0, 0
0, 0
0, 0
0, 0
0, 0
0, 0
0, 0
0, 0
0, 0
0, 0
0, 0
0, 0
0, 0
0, 0
0, 0
0, 0
0, 0
0, 0
0, 0
0, 0
0, 0
0, 0
0, 0
0, 0
0, 0
0, 0
0, 0
0, 0
0, 0
0, 0
0, 0
0, 0
0, 0
0, 0
0, 0
0, 0
0, 0
0, 0
0, 0
0, 0
0, 0
0, 0
0, 0
0, 0
0, 0
0, 0
0, 0
0, 0
0, 0
0, 0
0, 0
0, 0
0, 0
0, 0
0, 0
0, 0
0, 0
0, 0
0, 0
0, 0
0, 0
0, 0
0, 0
0, 0
0, 0
0, 0
0, 0
0, 0
0, 0
0, 0
0, 0
0, 0
0, 0
0, 0
0, 0
0, 0
0, 0
0, 0
0, 0
0, 0
0, 0
0, 0
0, 0
0, 0
0, 0
0, 0
0, 0
0, 0
0, 0
0, 0
0, 0
0, 0
0, 0
0, 0
0, 0
0, 0
0, 0
0, 0
0, 0
0, 0
0, 0
0, 0
0, 0
0, 0
0, 0
0, 0
0, 0
0, 0
0, 0
0, 0
0, 0
0, 0
0, 0
0, 0
0, 0
0, 0
0, 0
0, 0
0, 0
0, 0
0, 0
0, 0
0, 0
0, 0
0, 0
0, 0
0, 0
0, 0
0, 0
0, 0
0, 0
0, 0
0, 0
0, 0
0, 0
0, 0
0, 0
0, 0
0, 0
0, 0
0, 0
0, 0
0, 0
0, 0
0, 0
0, 0
0, 0
0, 0
0, 0
0, 0
0, 0
0, 0
0, 0
0, 0
0, 0
0, 0
0, 0
0, 0
0, 0
0, 0
0, 0
0, 0
0, 0
0, 0
0, 0
0, 0
0, 0
0, 0
0, 0
0, 0
0, 0
0, 0
0, 0
0, 0
0, 0
0, 0
0, 0
0, 0
0, 0
0, 0
0, 0
0, 0
0, 0
0, 0
0, 0
0, 0
0, 0
0, 0
0, 0
0, 0
0, 0
0, 0
0, 0
0, 0
0, 0
0, 0
0, 0
0, 0
0, 0
0, 0
0, 0
0, 0
0, 0
0, 0
0, 0
0, 0
0, 0
0, 0
0, 0
0, 0
0, 0
0, 0
0, 0
0, 0
0, 0
0, 0
0, 0
0, 0
0, 0
0, 0
0, 0
0, 0
0, 0
0, 0
0, 0
0, 0
0, 0
0, 0
0, 0
0, 0
0, 0
0, 0
0, 0
0, 0
0, 0
0, 0
0, 0
0, 0
0, 0
0, 0
0, 0
0, 0
0, 0
0, 0
0, 0
0, 0
0, 0
0, 0
0, 0
0, 0
0, 0
0, 0
0, 0
0, 0
0, 0
0, 0
0, 0
0, 0
0, 0
0, 0
0, 0
0, 0
0, 0
0, 0
0, 0
0, 0
0, 0
0, 0
0, 0
0, 0
0, 0
0, 0
0, 0
0, 0
0, 0
0, 0
0, 0
0, 0
0, 0
0, 0
0, 0
0, 0
0, 0
0, 0
0, 0
0, 0
0, 0
0, 0
0, 0
0, 0
0, 0
0, 0
0, 0
0, 0
0, 0
0, 0
0, 0
0, 0
0, 0
0, 0
0, 0
0, 0
0, 0
0, 0
0, 0
0, 0
0, 0
0, 0
0, 0
0, 0
0, 0
0, 0
0, 0
0, 0
0, 0
0, 0
0, 0
0, 0
0, 0
#ENDOFDATA     end of spectrum data