File: host_upload/06-09-2024/ps_0852/dump3/ps__0852shot_2038.msa
#FORMAT      : EMSA/MAS spectral data file
#VERSION     : TC202v2.0 PIXL
#TITLE       : N/A
#DATE        :       Date in the format DD-MMM-YYYY, for example 07-JUL-2010
#TIME        :             The time of day at which the spectrum was recorded, in 24-hour format
#OWNER       : PIXL Flight Model       (PIXL will use this to indicate which instrument took the data.)
#NPOINTS     : 4096     Number of data points in the spectrum (This can be zero for configuration only files)
#NCOLUMNS    : 2     Number of data columns in the spectrum (This can be zero for configuration only files)
#XUNITS      : eV
#YUNITS      : COUNTS
#DATATYPE    : YY
#XPERCHAN    : 7.862, 7.881   eV per channel (separate by commas if more than one detector)
#OFFSET      : 18.5, -22.4         eV of first channel  (separate by commas if more than one detector
#SIGNALTYPE  : XRF
#YP_TEMP     : 2.3
#LIVETIME    : 8.5543, 8.5238   seconds (separate by commas if more than one detector)
#REALTIME    : 10, 10.0   seconds (separate by commas if more than one detector)
#SPECTRUM    : start of spectrum data
0, 0
0, 0
0, 0
0, 0
0, 0
0, 0
0, 0
0, 0
0, 0
0, 0
0, 0
0, 0
0, 0
0, 0
0, 0
0, 0
0, 0
0, 0
0, 0
0, 0
0, 0
0, 0
0, 0
0, 0
0, 0
0, 0
0, 0
0, 0
0, 0
0, 0
0, 0
0, 0
0, 0
0, 0
0, 0
0, 4
2, 1
0, 0
1, 0
1, 1
1, 1
0, 0
1, 3
1, 6
1, 0
0, 0
4, 4
1, 3
5, 6
12, 13
16, 26
30, 22
44, 59
50, 73
71, 67
79, 67
42, 67
38, 36
37, 17
13, 11
7, 5
8, 9
4, 1
2, 2
3, 8
5, 3
4, 6
8, 9
30, 11
48, 52
71, 97
190, 170
252, 278
308, 397
378, 421
393, 419
348, 369
290, 283
211, 191
118, 127
67, 77
28, 31
15, 23
15, 8
5, 4
3, 0
3, 0
0, 4
1, 1
1, 1
1, 1
0, 0
1, 0
1, 0
1, 1
2, 2
5, 8
5, 4
6, 5
4, 5
5, 12
7, 5
3, 10
5, 9
8, 4
3, 14
7, 15
12, 12
10, 18
19, 48
16, 41
44, 60
41, 67
50, 107
65, 104
39, 93
46, 98
41, 90
25, 58
29, 46
17, 42
23, 35
21, 21
21, 19
16, 12
15, 15
20, 11
13, 9
9, 9
8, 11
8, 6
4, 4
6, 6
2, 3
4, 1
0, 2
2, 3
4, 3
4, 1
3, 4
0, 3
5, 3
3, 5
2, 3
4, 4
0, 2
3, 3
2, 1
2, 2
1, 2
1, 4
7, 3
4, 4
1, 4
9, 12
16, 9
8, 20
19, 7
10, 11
9, 12
7, 13
5, 10
7, 5
6, 10
9, 9
5, 11
3, 3
4, 6
3, 4
5, 8
3, 6
4, 12
5, 7
4, 7
1, 5
3, 5
7, 9
6, 11
3, 5
3, 4
3, 4
3, 7
2, 6
6, 9
2, 9
2, 2
1, 3
3, 5
3, 6
9, 14
6, 8
8, 7
12, 9
12, 7
11, 9
9, 14
9, 12
7, 12
14, 12
12, 8
11, 16
13, 6
8, 7
5, 4
5, 2
5, 3
6, 3
7, 4
6, 6
3, 7
9, 6
8, 7
9, 6
0, 5
7, 5
11, 12
2, 6
6, 11
6, 4
10, 5
9, 5
11, 15
11, 11
20, 6
14, 10
18, 17
9, 19
13, 27
11, 20
15, 28
15, 23
14, 21
8, 24
17, 14
11, 12
18, 5
15, 12
26, 7
30, 7
27, 9
43, 11
44, 14
64, 16
49, 10
53, 13
49, 20
56, 28
60, 40
47, 49
78, 54
71, 71
57, 62
57, 53
56, 46
45, 34
37, 35
24, 20
16, 18
19, 20
15, 15
23, 31
34, 40
43, 54
73, 102
152, 212
254, 364
494, 622
700, 956
1027, 1312
1467, 1787
1786, 2195
2126, 2491
2255, 2576
2176, 2267
1922, 2000
1593, 1616
1244, 1133
898, 787
603, 456
344, 281
209, 130
103, 82
58, 49
40, 30
24, 15
22, 20
13, 20
20, 15
29, 21
22, 14
30, 33
47, 47
46, 68
76, 97
105, 135
132, 194
192, 224
207, 288
295, 348
295, 381
319, 366
305, 323
300, 256
231, 239
161, 158
102, 112
90, 82
52, 43
31, 20
16, 12
16, 9
9, 12
8, 9
7, 12
3, 10
20, 14
12, 9
11, 11
13, 13
10, 11
18, 9
17, 13
12, 9
10, 8
10, 4
14, 8
14, 8
18, 3
17, 4
18, 4
16, 10
19, 9
15, 0
13, 6
13, 4
6, 2
2, 2
8, 2
3, 10
8, 9
6, 2
2, 6
11, 9
6, 9
5, 7
1, 4
6, 6
6, 8
2, 3
8, 7
4, 2
5, 7
8, 8
5, 6
5, 8
2, 6
6, 7
3, 5
5, 4
1, 4
3, 4
6, 7
1, 9
7, 4
4, 8
8, 4
4, 9
1, 9
5, 5
4, 1
3, 2
7, 1
3, 3
10, 2
6, 4
6, 2
6, 2
4, 4
3, 1
4, 5
7, 0
8, 2
2, 4
4, 3
8, 3
2, 2
3, 7
5, 2
2, 3
3, 6
6, 9
6, 3
7, 5
2, 4
1, 3
8, 9
3, 11
3, 6
8, 4
4, 2
4, 2
3, 3
2, 3
7, 2
1, 10
4, 5
1, 5
3, 5
3, 1
4, 5
6, 2
4, 1
5, 2
1, 1
3, 2
2, 1
2, 2
6, 2
3, 0
1, 4
1, 3
2, 1
4, 1
1, 5
1, 3
3, 5
2, 2
1, 1
1, 2
5, 4
5, 1
2, 2
4, 2
6, 3
1, 4
5, 4
1, 2
5, 4
3, 1
3, 1
4, 4
1, 4
2, 1
1, 0
1, 3
3, 6
1, 6
0, 2
1, 3
4, 1
4, 3
3, 4
4, 5
3, 2
4, 4
2, 2
2, 2
2, 3
2, 5
1, 3
1, 3
1, 2
2, 3
1, 2
3, 3
7, 0
5, 4
7, 2
1, 2
3, 2
3, 2
1, 3
2, 3
3, 4
5, 2
5, 4
2, 3
2, 2
0, 2
1, 7
2, 4
2, 2
3, 2
4, 3
4, 3
2, 4
4, 0
3, 2
0, 3
3, 4
3, 2
3, 6
1, 1
1, 3
1, 3
2, 4
3, 1
1, 1
4, 1
0, 0
3, 0
2, 1
1, 0
1, 3
4, 2
4, 5
3, 0
1, 0
3, 4
3, 4
2, 1
1, 2
4, 1
1, 4
4, 1
0, 6
2, 1
1, 2
1, 1
2, 0
0, 2
1, 2
2, 3
3, 1
3, 1
3, 4
5, 2
3, 1
1, 3
2, 3
3, 2
0, 2
1, 0
3, 1
3, 1
0, 5
4, 3
6, 3
10, 3
0, 5
3, 5
4, 4
2, 2
5, 2
4, 2
4, 3
3, 1
4, 2
4, 5
2, 0
2, 1
0, 2
1, 1
0, 1
2, 0
2, 2
3, 1
1, 3
1, 1
3, 0
1, 5
1, 2
1, 3
1, 3
1, 2
1, 1
1, 3
1, 3
2, 5
0, 1
2, 1
1, 2
0, 5
1, 2
1, 2
2, 2
0, 1
0, 1
1, 2
0, 1
2, 0
0, 0
2, 1
1, 3
0, 1
2, 0
0, 0
0, 2
1, 1
0, 1
3, 2
2, 0
1, 3
1, 1
0, 0
0, 0
1, 0
0, 2
0, 1
0, 1
2, 2
0, 1
1, 1
2, 1
0, 0
1, 1
0, 0
2, 2
1, 0
0, 0
1, 0
0, 1
2, 1
1, 3
0, 0
0, 1
0, 3
0, 0
3, 1
2, 2
2, 0
0, 1
1, 1
0, 1
0, 3
1, 0
1, 0
0, 1
2, 1
0, 1
0, 1
1, 0
1, 1
1, 1
1, 1
1, 1
0, 1
1, 0
1, 0
2, 1
0, 1
0, 1
0, 0
1, 1
0, 1
1, 0
0, 1
0, 1
0, 0
0, 0
1, 1
0, 0
5, 1
0, 3
0, 1
0, 0
0, 2
1, 0
0, 2
1, 0
0, 0
0, 0
0, 0
0, 0
1, 0
1, 1
1, 0
0, 0
2, 0
0, 1
0, 0
1, 1
0, 0
1, 0
2, 1
0, 0
1, 1
1, 0
1, 0
0, 1
0, 1
0, 1
0, 0
0, 2
0, 0
0, 1
0, 1
0, 1
1, 0
1, 0
0, 1
0, 0
0, 0
0, 0
0, 2
0, 1
0, 0
1, 0
0, 0
0, 0
0, 1
0, 1
2, 1
0, 0
0, 1
0, 0
1, 0
0, 0
1, 0
0, 3
0, 0
0, 1
0, 0
1, 0
0, 0
1, 1
1, 0
1, 1
1, 0
0, 0
0, 0
0, 0
0, 0
0, 0
1, 0
0, 0
0, 4
0, 0
0, 0
0, 0
1, 0
0, 0
0, 2
1, 0
0, 1
0, 0
0, 1
0, 0
1, 0
0, 0
0, 1
0, 0
0, 0
1, 0
0, 0
0, 1
2, 0
0, 0
0, 0
0, 0
0, 0
0, 0
1, 1
0, 1
0, 0
0, 0
0, 0
1, 0
0, 0
0, 1
0, 0
0, 0
0, 0
0, 0
0, 1
0, 0
0, 1
0, 1
0, 0
0, 0
0, 0
2, 0
0, 0
0, 0
0, 0
0, 0
0, 0
0, 0
0, 0
0, 0
0, 0
0, 1
2, 1
1, 1
2, 0
1, 0
0, 0
0, 0
0, 0
0, 0
0, 0
0, 0
0, 0
0, 0
0, 0
0, 0
1, 0
0, 0
0, 0
0, 0
2, 0
0, 1
0, 0
0, 0
0, 0
0, 1
0, 0
0, 0
1, 0
0, 0
0, 1
0, 1
0, 0
0, 0
0, 0
0, 0
0, 0
0, 0
0, 0
0, 0
1, 0
0, 0
0, 1
0, 0
1, 0
0, 0
0, 0
0, 0
0, 0
0, 0
0, 0
0, 0
0, 0
0, 0
0, 0
0, 0
0, 0
0, 0
0, 0
0, 0
0, 0
0, 0
0, 1
0, 0
0, 1
0, 1
0, 0
0, 0
0, 0
0, 1
0, 0
0, 0
0, 0
0, 0
1, 0
0, 0
0, 0
0, 0
0, 0
0, 0
0, 0
0, 0
0, 0
0, 0
0, 0
0, 0
0, 0
0, 0
0, 1
1, 0
0, 0
0, 0
0, 0
0, 0
0, 0
0, 0
0, 1
0, 0
0, 0
0, 0
1, 0
0, 0
1, 0
0, 0
0, 0
0, 0
0, 0
0, 0
0, 0
0, 0
0, 0
0, 0
0, 0
0, 0
0, 1
0, 0
0, 1
0, 0
1, 0
0, 0
0, 0
0, 0
0, 0
0, 0
0, 0
0, 0
0, 0
0, 0
0, 0
0, 0
1, 0
0, 0
0, 0
0, 0
0, 0
0, 0
0, 1
0, 0
0, 0
1, 0
0, 0
0, 0
0, 0
0, 0
0, 0
0, 0
0, 0
0, 0
0, 0
0, 0
0, 0
0, 0
0, 0
0, 0
0, 0
0, 0
0, 0
0, 0
0, 0
0, 0
0, 0
0, 0
0, 0
0, 0
0, 0
0, 0
0, 0
0, 0
0, 0
0, 0
0, 0
0, 0
0, 0
0, 0
0, 0
0, 0
0, 0
0, 0
0, 0
0, 0
0, 0
0, 0
0, 0
0, 0
0, 0
0, 0
0, 1
0, 0
0, 0
0, 0
0, 0
0, 0
0, 0
0, 0
0, 0
0, 0
0, 0
0, 0
0, 0
0, 0
0, 0
0, 0
0, 0
0, 0
0, 0
0, 0
0, 0
0, 0
0, 0
0, 0
0, 0
0, 0
0, 1
0, 0
0, 0
0, 0
0, 0
0, 0
0, 0
0, 0
0, 0
0, 0
0, 0
0, 0
0, 0
0, 0
0, 0
0, 0
0, 0
0, 0
0, 0
0, 0
0, 0
0, 0
0, 0
0, 0
0, 0
0, 0
0, 0
0, 0
0, 0
0, 0
0, 0
0, 0
0, 0
0, 0
0, 0
0, 0
0, 0
0, 0
0, 0
0, 0
0, 0
0, 0
0, 0
0, 0
0, 0
0, 0
0, 0
0, 0
0, 0
0, 0
0, 0
1, 0
0, 0
0, 0
0, 0
0, 0
0, 0
0, 0
0, 0
0, 0
0, 0
0, 0
0, 0
0, 0
0, 0
0, 0
0, 0
0, 0
0, 0
0, 0
0, 0
0, 0
0, 0
0, 0
0, 0
0, 0
0, 0
0, 0
0, 0
0, 0
0, 0
0, 0
0, 0
0, 0
0, 0
0, 0
0, 0
0, 0
0, 0
0, 0
0, 0
0, 0
0, 0
0, 0
0, 0
0, 0
0, 0
0, 0
0, 0
0, 0
0, 0
0, 0
0, 0
0, 0
0, 0
0, 0
0, 0
0, 0
0, 0
0, 0
0, 0
0, 0
0, 0
0, 0
0, 0
0, 0
0, 0
0, 0
0, 0
0, 0
0, 0
0, 0
0, 0
0, 0
0, 0
0, 0
0, 0
0, 0
0, 0
0, 0
0, 0
0, 0
0, 0
0, 0
0, 0
0, 0
0, 0
0, 0
0, 0
0, 0
0, 0
0, 0
0, 0
0, 0
0, 0
0, 0
0, 0
0, 0
0, 0
0, 0
0, 0
0, 0
0, 0
0, 0
0, 0
0, 0
0, 0
0, 0
0, 0
0, 0
0, 0
0, 0
0, 0
0, 0
0, 0
0, 0
0, 0
0, 0
0, 0
0, 0
0, 0
0, 0
0, 0
0, 0
0, 0
0, 0
0, 0
0, 0
0, 0
0, 0
0, 0
0, 0
0, 0
0, 0
0, 0
0, 0
0, 0
0, 0
0, 0
0, 0
0, 0
0, 0
0, 0
0, 0
0, 0
0, 0
0, 0
0, 0
0, 0
0, 0
0, 0
0, 0
0, 0
0, 0
0, 0
0, 0
0, 0
0, 0
0, 0
0, 0
0, 0
0, 0
0, 0
0, 0
0, 0
0, 0
0, 0
0, 0
0, 0
0, 0
0, 0
0, 0
0, 0
0, 0
0, 0
0, 0
0, 0
0, 0
0, 0
0, 0
0, 0
0, 0
0, 0
0, 0
0, 0
0, 0
0, 0
0, 0
0, 0
0, 0
0, 0
0, 0
0, 0
0, 0
0, 0
0, 0
0, 0
0, 0
0, 0
0, 0
0, 0
0, 0
0, 0
0, 0
0, 0
0, 0
0, 0
0, 0
0, 0
0, 0
0, 0
0, 0
0, 0
0, 0
0, 0
0, 0
0, 0
0, 0
0, 0
0, 0
0, 0
0, 0
0, 0
0, 0
0, 0
0, 0
0, 0
0, 0
0, 0
0, 0
0, 0
0, 0
0, 0
0, 0
0, 0
0, 0
0, 0
0, 0
0, 0
0, 0
0, 0
0, 0
0, 0
0, 0
0, 0
0, 0
0, 0
0, 0
0, 0
0, 0
0, 0
0, 0
0, 0
0, 0
0, 0
0, 0
0, 0
0, 0
0, 0
0, 0
0, 0
0, 0
0, 0
0, 0
0, 0
0, 0
0, 0
0, 0
0, 0
0, 0
0, 0
0, 0
0, 0
0, 0
0, 0
0, 0
0, 0
0, 0
0, 0
0, 0
0, 0
0, 0
0, 0
0, 0
0, 0
0, 0
0, 0
0, 0
0, 0
0, 0
0, 0
0, 0
0, 0
0, 0
0, 0
0, 0
0, 0
0, 0
0, 0
0, 0
0, 0
0, 0
0, 0
0, 0
0, 0
0, 0
0, 0
0, 0
0, 0
0, 0
0, 0
0, 0
0, 0
0, 0
0, 0
0, 0
0, 0
0, 0
0, 0
0, 0
0, 0
0, 0
0, 0
0, 0
#ENDOFDATA     end of spectrum data