File: host_upload/06-09-2024/ps_0852/dump3/ps__0852shot_2250.msa
#FORMAT      : EMSA/MAS spectral data file
#VERSION     : TC202v2.0 PIXL
#TITLE       : N/A
#DATE        :       Date in the format DD-MMM-YYYY, for example 07-JUL-2010
#TIME        :             The time of day at which the spectrum was recorded, in 24-hour format
#OWNER       : PIXL Flight Model       (PIXL will use this to indicate which instrument took the data.)
#NPOINTS     : 4096     Number of data points in the spectrum (This can be zero for configuration only files)
#NCOLUMNS    : 2     Number of data columns in the spectrum (This can be zero for configuration only files)
#XUNITS      : eV
#YUNITS      : COUNTS
#DATATYPE    : YY
#XPERCHAN    : 7.862, 7.881   eV per channel (separate by commas if more than one detector)
#OFFSET      : 18.5, -22.4         eV of first channel  (separate by commas if more than one detector
#SIGNALTYPE  : XRF
#YP_TEMP     : 2.332
#LIVETIME    : 8.55044, 8.56812   seconds (separate by commas if more than one detector)
#REALTIME    : 10, 10.0   seconds (separate by commas if more than one detector)
#SPECTRUM    : start of spectrum data
0, 0
0, 0
0, 0
0, 0
0, 0
0, 0
0, 0
0, 0
0, 0
0, 0
0, 0
0, 0
0, 0
0, 0
0, 0
0, 0
0, 0
0, 0
0, 0
0, 0
0, 0
0, 0
0, 0
0, 0
0, 0
0, 0
0, 0
0, 0
0, 0
0, 0
0, 0
0, 0
0, 0
0, 0
0, 0
0, 0
0, 0
2, 0
1, 1
0, 1
1, 0
0, 0
1, 1
0, 0
3, 0
3, 1
1, 3
2, 1
5, 6
16, 18
28, 25
50, 43
61, 63
83, 87
101, 95
77, 88
83, 76
54, 39
30, 25
22, 12
10, 3
2, 0
1, 5
2, 4
3, 1
1, 5
4, 9
11, 13
13, 26
55, 56
111, 105
189, 179
291, 275
332, 379
459, 370
409, 426
428, 376
310, 257
199, 193
110, 140
69, 67
36, 37
19, 18
7, 9
3, 3
3, 2
1, 0
1, 1
0, 2
2, 1
0, 0
1, 1
0, 1
3, 1
2, 3
1, 3
0, 0
4, 3
1, 3
7, 2
2, 2
3, 3
1, 3
2, 2
0, 2
1, 4
1, 3
2, 4
7, 3
8, 5
10, 12
10, 11
16, 13
20, 24
26, 17
15, 18
15, 22
29, 24
17, 25
20, 16
16, 9
12, 18
6, 15
12, 15
11, 15
11, 9
17, 13
7, 9
11, 6
9, 3
7, 10
4, 6
1, 7
2, 1
5, 2
4, 0
0, 3
2, 1
1, 3
1, 2
0, 1
1, 3
2, 1
0, 2
4, 1
7, 1
7, 0
9, 0
8, 3
11, 2
12, 4
10, 5
7, 9
13, 12
17, 14
13, 9
14, 14
12, 21
18, 16
18, 9
9, 10
9, 13
7, 3
12, 3
5, 0
4, 1
2, 1
4, 2
4, 3
2, 5
3, 5
6, 3
6, 6
1, 6
2, 6
4, 5
5, 0
3, 4
5, 0
4, 1
1, 3
1, 2
2, 2
2, 5
4, 3
0, 3
2, 9
2, 11
5, 11
8, 18
5, 12
4, 20
12, 14
8, 22
8, 10
12, 13
10, 23
14, 12
20, 14
10, 16
12, 10
9, 8
7, 10
9, 4
3, 3
3, 5
3, 2
1, 5
6, 10
5, 7
6, 4
5, 5
9, 7
2, 6
2, 7
6, 6
5, 7
8, 6
7, 5
7, 5
9, 8
10, 5
6, 6
7, 6
9, 6
9, 13
9, 8
9, 18
11, 8
11, 12
9, 10
10, 7
11, 20
12, 10
10, 9
8, 6
6, 9
7, 7
8, 14
7, 5
7, 10
7, 9
9, 8
12, 15
14, 15
26, 27
21, 24
35, 43
60, 55
63, 51
71, 58
81, 66
108, 51
89, 39
92, 40
64, 35
51, 31
49, 19
29, 18
21, 20
33, 26
39, 28
45, 55
77, 92
157, 206
278, 378
459, 596
760, 958
1161, 1353
1620, 1867
1986, 2207
2254, 2490
2475, 2476
2277, 2252
2118, 1987
1835, 1570
1430, 1044
969, 697
613, 463
351, 238
213, 138
110, 71
52, 34
36, 24
20, 9
12, 20
14, 16
15, 13
19, 15
19, 21
17, 28
21, 36
47, 77
77, 88
94, 135
149, 181
206, 227
285, 313
326, 321
346, 340
337, 332
324, 335
286, 295
272, 222
179, 148
116, 123
83, 60
47, 46
26, 26
23, 8
11, 6
7, 8
7, 4
8, 11
13, 8
9, 13
8, 12
15, 16
13, 14
23, 11
10, 12
14, 8
7, 8
7, 9
5, 6
4, 3
7, 6
5, 8
3, 3
5, 1
3, 1
3, 1
3, 3
3, 3
2, 2
5, 3
0, 2
4, 1
6, 2
3, 6
3, 10
1, 11
6, 12
3, 13
2, 15
1, 18
1, 22
4, 19
2, 18
4, 16
7, 14
4, 10
1, 10
2, 6
6, 9
3, 4
4, 5
2, 5
6, 2
9, 4
2, 4
3, 5
3, 2
3, 7
3, 5
2, 1
7, 6
0, 3
3, 4
5, 4
8, 2
4, 3
3, 3
7, 3
3, 4
13, 2
9, 4
21, 3
21, 2
17, 2
27, 2
19, 3
29, 9
22, 5
25, 2
14, 3
17, 6
12, 0
10, 1
5, 3
4, 7
12, 3
7, 7
3, 4
4, 4
7, 4
4, 6
9, 2
10, 8
5, 4
7, 6
6, 3
9, 4
9, 3
3, 3
6, 3
7, 3
3, 2
4, 1
3, 1
6, 3
8, 0
7, 5
2, 3
2, 1
1, 3
4, 4
7, 2
2, 1
1, 5
2, 2
4, 1
3, 3
5, 5
2, 2
3, 2
3, 0
4, 4
0, 1
5, 2
2, 2
1, 7
4, 0
2, 2
3, 4
3, 1
3, 3
3, 4
3, 1
4, 0
3, 2
3, 0
11, 1
4, 5
4, 3
0, 2
4, 4
3, 1
2, 2
1, 2
2, 4
0, 3
4, 3
2, 2
3, 2
2, 3
1, 2
6, 7
4, 3
3, 2
7, 3
4, 5
4, 3
9, 3
3, 3
3, 0
2, 2
2, 4
1, 7
3, 0
2, 4
1, 2
3, 4
5, 0
2, 2
1, 2
1, 1
3, 5
2, 4
2, 2
0, 2
2, 4
2, 1
5, 5
1, 1
1, 2
0, 3
2, 3
0, 1
0, 4
2, 3
2, 1
1, 1
1, 2
3, 3
2, 6
3, 2
2, 2
1, 0
2, 1
2, 0
0, 4
3, 3
4, 4
1, 3
2, 3
1, 3
0, 1
3, 5
2, 2
1, 1
2, 2
1, 2
1, 3
1, 3
0, 4
1, 2
1, 3
0, 1
2, 4
1, 0
2, 1
5, 3
1, 0
2, 0
2, 2
1, 1
3, 3
1, 2
4, 0
4, 3
3, 2
2, 5
3, 3
1, 2
1, 1
0, 3
8, 1
5, 3
3, 7
5, 3
8, 3
7, 7
3, 2
8, 4
6, 6
6, 2
7, 3
2, 3
10, 2
4, 0
3, 2
2, 1
2, 1
1, 1
1, 1
0, 3
0, 2
1, 3
3, 2
1, 0
1, 3
1, 1
1, 3
0, 1
1, 0
2, 2
2, 1
0, 4
1, 2
2, 2
1, 1
0, 3
1, 1
3, 1
1, 1
2, 2
3, 2
1, 1
0, 1
3, 1
0, 0
0, 2
2, 0
1, 0
1, 1
0, 1
1, 1
1, 0
0, 2
1, 2
3, 4
2, 4
3, 1
1, 0
1, 0
0, 2
2, 0
1, 1
2, 1
1, 1
1, 0
4, 0
1, 1
1, 2
1, 0
0, 0
1, 0
0, 2
1, 1
0, 1
0, 0
0, 0
0, 1
0, 0
1, 0
1, 0
0, 1
1, 0
3, 1
2, 0
1, 0
2, 1
1, 2
0, 1
2, 0
0, 2
2, 1
1, 0
0, 1
1, 0
2, 3
0, 0
3, 1
1, 0
0, 0
0, 1
1, 1
1, 0
0, 0
1, 1
0, 0
0, 1
1, 1
1, 1
0, 0
0, 0
0, 0
0, 0
1, 3
1, 0
0, 0
0, 0
0, 0
0, 0
2, 0
0, 0
1, 0
0, 3
2, 2
1, 0
1, 0
0, 0
0, 0
0, 0
1, 0
1, 1
0, 0
0, 2
1, 1
1, 0
1, 0
0, 0
0, 0
0, 0
1, 1
1, 0
1, 0
0, 2
1, 0
0, 1
0, 1
1, 0
0, 0
2, 1
0, 0
0, 0
1, 0
0, 1
0, 0
0, 0
0, 1
0, 0
1, 0
1, 0
0, 0
0, 2
0, 1
0, 1
1, 2
0, 0
0, 1
2, 0
0, 0
0, 0
1, 1
1, 1
0, 0
0, 0
0, 1
1, 0
1, 0
0, 0
0, 1
2, 0
1, 0
0, 0
2, 0
0, 0
0, 1
1, 1
1, 0
0, 1
1, 0
0, 0
1, 0
0, 0
1, 0
0, 0
0, 0
0, 1
0, 0
0, 0
0, 1
0, 0
0, 0
0, 0
0, 1
0, 1
0, 0
0, 0
0, 0
0, 0
0, 1
1, 0
0, 0
0, 0
0, 1
0, 2
2, 0
0, 1
0, 0
0, 0
0, 0
0, 0
0, 0
0, 1
1, 0
0, 1
0, 0
0, 0
0, 0
0, 0
0, 0
1, 1
1, 0
0, 0
0, 0
0, 1
1, 0
2, 1
0, 0
0, 0
0, 1
0, 0
0, 0
0, 0
0, 1
1, 1
1, 0
2, 2
0, 0
1, 0
0, 0
0, 1
1, 0
1, 0
1, 0
0, 1
1, 0
0, 0
0, 0
0, 1
0, 0
0, 0
0, 0
0, 0
0, 0
1, 0
0, 0
0, 1
0, 0
0, 1
2, 0
0, 0
0, 0
0, 0
0, 0
0, 1
0, 0
0, 0
1, 0
0, 0
0, 0
0, 1
0, 1
0, 0
0, 0
0, 0
0, 0
0, 0
0, 0
0, 0
0, 0
1, 0
0, 0
0, 0
1, 1
0, 0
0, 0
0, 2
0, 0
1, 0
0, 1
0, 0
0, 0
0, 0
1, 1
0, 0
0, 0
0, 0
0, 0
0, 0
0, 0
0, 0
2, 0
0, 0
1, 0
0, 0
0, 0
0, 0
0, 0
1, 0
1, 0
1, 0
0, 0
0, 0
0, 0
0, 0
0, 0
0, 0
1, 0
0, 0
1, 0
0, 0
0, 0
0, 0
0, 0
0, 0
0, 0
0, 0
0, 0
0, 0
0, 0
0, 1
0, 0
0, 0
0, 0
1, 0
0, 0
0, 0
0, 0
0, 0
0, 0
0, 0
0, 0
0, 0
0, 0
0, 0
0, 0
0, 0
0, 0
0, 1
0, 0
0, 1
0, 0
0, 0
0, 0
0, 0
0, 0
0, 0
0, 0
0, 0
0, 0
0, 0
0, 0
1, 1
0, 0
1, 0
0, 0
0, 0
0, 0
0, 0
0, 0
0, 0
0, 0
0, 0
0, 1
0, 0
1, 0
1, 0
0, 0
0, 0
0, 0
0, 0
0, 0
0, 0
0, 0
0, 0
0, 0
0, 0
0, 0
0, 0
0, 0
0, 1
0, 0
0, 0
0, 0
0, 0
0, 0
0, 0
0, 0
0, 0
0, 0
0, 0
0, 0
0, 0
0, 0
0, 0
0, 0
0, 0
0, 0
0, 0
0, 0
0, 0
0, 0
0, 0
0, 0
0, 0
0, 0
0, 0
0, 1
0, 0
1, 0
0, 0
0, 0
0, 0
0, 0
0, 0
0, 0
0, 0
0, 0
0, 0
0, 0
0, 0
0, 0
0, 0
0, 0
0, 0
0, 0
0, 0
0, 0
0, 0
0, 0
0, 0
0, 0
0, 0
0, 0
0, 0
0, 0
0, 0
0, 0
0, 0
0, 0
0, 0
0, 0
0, 0
0, 0
0, 1
0, 0
0, 0
0, 0
0, 0
0, 0
0, 0
0, 0
0, 0
0, 0
0, 0
0, 0
0, 0
0, 0
0, 0
0, 0
0, 0
0, 0
0, 0
0, 0
0, 0
0, 0
0, 0
0, 0
0, 1
0, 0
0, 0
0, 0
0, 0
0, 0
0, 0
0, 0
0, 0
0, 0
0, 0
0, 0
0, 0
0, 0
0, 0
0, 0
0, 0
0, 0
0, 0
0, 0
0, 0
0, 0
0, 0
0, 0
0, 0
0, 0
0, 0
0, 0
0, 0
0, 0
0, 0
0, 0
0, 0
0, 0
0, 0
0, 0
0, 0
0, 0
0, 0
0, 0
0, 0
0, 0
0, 0
0, 0
0, 0
0, 0
0, 0
0, 0
0, 0
0, 0
0, 0
0, 0
0, 0
0, 0
0, 0
0, 0
0, 0
0, 0
0, 0
0, 0
0, 0
0, 0
0, 0
0, 0
0, 0
0, 0
0, 0
1, 0
0, 0
0, 0
0, 0
0, 0
0, 0
0, 0
0, 0
0, 0
0, 0
0, 0
0, 0
0, 0
0, 0
0, 0
0, 0
0, 0
0, 0
0, 0
0, 0
0, 0
0, 0
0, 0
0, 0
0, 0
0, 0
0, 0
0, 0
0, 0
0, 0
0, 0
0, 0
0, 0
0, 0
0, 0
0, 0
0, 0
0, 0
0, 0
0, 0
0, 0
0, 0
0, 0
0, 0
0, 0
0, 0
0, 0
0, 0
0, 0
0, 0
0, 0
0, 0
0, 0
0, 0
0, 0
0, 0
0, 0
0, 0
0, 0
0, 0
0, 0
0, 0
0, 0
0, 0
0, 0
0, 0
0, 0
0, 0
0, 0
0, 0
0, 0
0, 0
0, 0
0, 0
0, 0
0, 0
0, 0
0, 0
0, 0
0, 0
0, 0
0, 0
0, 0
0, 0
0, 0
0, 0
0, 0
0, 0
0, 0
0, 0
0, 0
0, 0
0, 0
0, 0
0, 0
0, 0
0, 0
0, 0
0, 0
0, 0
0, 0
0, 0
0, 0
0, 0
0, 0
0, 0
0, 0
0, 0
0, 0
0, 0
0, 0
0, 0
0, 0
0, 0
0, 0
0, 0
0, 0
0, 0
0, 0
0, 0
0, 0
0, 0
0, 0
0, 0
0, 0
0, 0
0, 0
0, 0
0, 0
0, 0
0, 0
0, 0
0, 0
0, 0
0, 0
0, 0
0, 0
0, 0
0, 0
0, 0
0, 0
0, 0
0, 0
0, 0
0, 0
0, 0
0, 0
0, 0
0, 0
0, 0
0, 0
0, 0
0, 0
0, 0
0, 0
0, 0
0, 0
0, 0
0, 0
0, 0
0, 0
0, 0
0, 0
0, 0
0, 0
0, 0
0, 0
0, 0
0, 0
0, 0
0, 0
0, 0
0, 0
0, 0
0, 0
0, 0
0, 0
0, 0
0, 0
0, 0
0, 0
0, 0
0, 0
0, 0
0, 0
0, 0
0, 0
0, 0
0, 0
0, 0
0, 0
0, 0
0, 0
0, 0
0, 0
0, 0
0, 0
0, 0
0, 0
0, 0
0, 0
0, 0
0, 0
0, 0
0, 0
0, 0
0, 0
0, 0
0, 0
0, 0
0, 0
0, 0
0, 0
0, 0
0, 0
0, 0
0, 0
0, 0
0, 0
0, 0
0, 0
0, 0
0, 0
0, 0
0, 0
0, 0
0, 0
0, 0
0, 0
0, 0
0, 0
0, 0
0, 0
0, 0
0, 0
0, 0
0, 0
0, 0
0, 0
0, 0
0, 0
0, 0
0, 0
0, 0
0, 0
0, 0
0, 0
0, 0
0, 0
0, 0
0, 0
0, 0
0, 0
0, 0
0, 0
0, 0
0, 0
0, 0
0, 0
0, 0
0, 0
0, 0
0, 0
0, 0
0, 0
0, 0
0, 0
0, 0
0, 0
0, 0
0, 0
0, 0
0, 0
0, 0
0, 0
0, 0
0, 0
#ENDOFDATA     end of spectrum data