File: host_upload/06-09-2024/ps_0852/dump3/ps__0852shot_2385.msa
#FORMAT      : EMSA/MAS spectral data file
#VERSION     : TC202v2.0 PIXL
#TITLE       : N/A
#DATE        :       Date in the format DD-MMM-YYYY, for example 07-JUL-2010
#TIME        :             The time of day at which the spectrum was recorded, in 24-hour format
#OWNER       : PIXL Flight Model       (PIXL will use this to indicate which instrument took the data.)
#NPOINTS     : 4096     Number of data points in the spectrum (This can be zero for configuration only files)
#NCOLUMNS    : 2     Number of data columns in the spectrum (This can be zero for configuration only files)
#XUNITS      : eV
#YUNITS      : COUNTS
#DATATYPE    : YY
#XPERCHAN    : 7.862, 7.881   eV per channel (separate by commas if more than one detector)
#OFFSET      : 18.5, -22.4         eV of first channel  (separate by commas if more than one detector
#SIGNALTYPE  : XRF
#YP_TEMP     : 2.203
#LIVETIME    : 8.57941, 8.59273   seconds (separate by commas if more than one detector)
#REALTIME    : 10, 10.0   seconds (separate by commas if more than one detector)
#SPECTRUM    : start of spectrum data
0, 0
0, 0
0, 0
0, 0
0, 0
0, 0
0, 0
0, 0
0, 0
0, 0
0, 0
0, 0
0, 0
0, 0
0, 0
0, 0
0, 0
0, 0
0, 0
0, 0
0, 0
0, 0
0, 0
0, 0
0, 0
0, 0
0, 0
0, 0
0, 0
0, 0
0, 0
0, 0
2, 1
0, 0
1, 1
0, 0
1, 1
1, 1
2, 1
1, 0
0, 1
4, 1
0, 0
0, 0
1, 1
1, 3
1, 2
2, 1
2, 10
10, 8
19, 21
34, 45
51, 62
72, 58
95, 74
75, 63
49, 60
42, 34
28, 17
20, 12
10, 11
12, 9
12, 8
9, 7
24, 14
17, 12
14, 8
17, 10
25, 27
50, 51
119, 100
186, 192
285, 300
363, 394
439, 442
443, 451
387, 436
342, 318
228, 185
118, 126
84, 82
42, 35
27, 20
11, 17
16, 11
16, 19
8, 11
16, 10
14, 8
12, 7
4, 4
3, 2
8, 2
4, 2
7, 2
8, 3
14, 4
8, 8
12, 3
10, 4
8, 8
3, 5
6, 9
7, 8
2, 5
9, 6
9, 8
9, 16
26, 27
37, 29
30, 44
49, 48
50, 58
68, 80
66, 68
66, 69
63, 58
67, 48
40, 49
53, 31
34, 28
30, 30
18, 27
23, 19
23, 20
14, 20
15, 15
15, 14
14, 11
9, 5
8, 4
7, 4
6, 3
4, 1
5, 4
6, 4
7, 8
4, 3
10, 7
16, 7
7, 16
18, 18
18, 9
12, 13
9, 5
7, 9
4, 3
7, 3
3, 6
6, 5
8, 5
8, 7
15, 12
17, 17
21, 20
27, 20
38, 50
51, 33
32, 37
36, 31
22, 27
14, 18
17, 12
3, 5
6, 5
5, 9
5, 5
7, 5
6, 7
9, 7
8, 4
6, 6
10, 3
5, 6
12, 8
6, 5
7, 5
6, 6
3, 6
3, 3
3, 5
5, 7
3, 4
4, 4
6, 4
6, 5
6, 5
8, 5
11, 13
15, 8
28, 7
21, 21
16, 16
28, 28
27, 18
41, 20
39, 22
35, 18
37, 19
24, 9
32, 10
18, 6
16, 9
17, 7
17, 5
15, 6
15, 2
11, 4
6, 11
8, 7
8, 11
7, 9
1, 9
8, 2
5, 5
6, 5
10, 6
9, 4
12, 6
11, 4
5, 9
3, 1
13, 12
8, 10
9, 10
9, 10
14, 7
17, 14
24, 14
33, 14
33, 13
40, 4
45, 13
57, 12
58, 7
57, 13
43, 9
61, 6
40, 8
22, 7
21, 7
13, 2
18, 7
16, 11
16, 17
14, 24
25, 22
34, 41
54, 40
53, 65
77, 60
79, 58
66, 71
53, 41
51, 33
46, 25
48, 22
26, 25
15, 22
21, 26
21, 33
24, 63
39, 96
80, 180
170, 283
256, 492
490, 735
764, 1008
1194, 1427
1580, 1825
1978, 2142
2234, 2441
2317, 2483
2325, 2270
2053, 1891
1710, 1503
1226, 1069
888, 710
564, 425
337, 232
222, 137
102, 81
43, 37
23, 30
29, 22
15, 14
12, 19
14, 12
17, 17
22, 27
23, 27
20, 45
39, 59
60, 77
113, 137
144, 192
184, 248
293, 288
332, 322
318, 340
337, 352
350, 308
299, 291
253, 220
171, 159
115, 103
101, 86
46, 37
42, 18
15, 11
16, 12
6, 4
11, 5
9, 3
14, 5
22, 14
11, 8
15, 19
25, 16
27, 19
17, 21
20, 6
17, 6
8, 8
17, 9
8, 7
8, 3
8, 2
8, 3
3, 5
9, 4
4, 3
5, 5
2, 5
5, 6
3, 1
6, 2
5, 6
5, 7
9, 5
6, 5
6, 9
6, 8
8, 7
3, 6
8, 6
3, 6
6, 8
8, 8
6, 7
8, 6
2, 7
5, 3
5, 7
5, 5
6, 8
1, 1
4, 5
3, 3
8, 3
4, 5
1, 5
6, 5
5, 4
4, 2
5, 5
3, 2
8, 3
2, 8
2, 7
2, 5
4, 2
7, 14
5, 7
8, 13
8, 17
6, 13
8, 22
17, 21
16, 28
26, 28
23, 31
23, 27
34, 28
23, 33
29, 20
27, 23
21, 12
22, 7
15, 2
11, 4
9, 3
4, 5
4, 6
6, 2
7, 2
4, 2
3, 4
4, 5
3, 4
2, 2
0, 2
4, 6
2, 4
5, 0
6, 5
4, 4
4, 4
3, 2
3, 2
2, 1
5, 1
2, 3
4, 5
6, 6
1, 5
2, 1
3, 0
2, 2
4, 3
5, 3
0, 2
4, 2
3, 4
6, 3
4, 2
1, 3
6, 6
2, 0
4, 2
3, 2
0, 1
2, 2
2, 1
2, 2
5, 4
9, 4
3, 4
3, 2
5, 2
4, 4
2, 2
0, 2
2, 4
1, 0
1, 3
1, 1
3, 2
3, 4
2, 3
1, 2
2, 2
6, 3
6, 4
5, 4
2, 1
4, 5
3, 4
4, 2
0, 2
1, 4
5, 3
2, 3
9, 0
6, 0
10, 2
7, 1
11, 2
7, 1
6, 3
5, 0
8, 4
10, 1
7, 3
5, 2
1, 1
6, 2
2, 2
2, 1
1, 0
0, 1
0, 4
4, 2
3, 8
1, 6
3, 3
1, 4
3, 5
3, 1
4, 6
0, 4
2, 6
0, 6
0, 1
3, 3
4, 2
1, 0
3, 3
4, 0
2, 1
3, 3
3, 2
1, 2
0, 2
6, 1
1, 5
2, 3
1, 3
3, 0
0, 2
0, 2
2, 3
1, 0
3, 1
2, 3
1, 0
1, 6
2, 1
0, 2
4, 4
3, 1
1, 3
3, 3
1, 2
5, 4
1, 7
3, 1
1, 4
1, 3
0, 1
2, 3
1, 4
1, 2
1, 2
4, 1
3, 2
2, 4
0, 3
4, 5
6, 3
1, 5
0, 0
5, 4
2, 2
7, 6
4, 1
3, 2
3, 0
2, 1
3, 1
2, 1
2, 1
2, 2
2, 0
2, 2
1, 1
2, 2
3, 1
2, 2
5, 1
1, 3
0, 5
1, 2
1, 2
1, 3
1, 5
2, 4
2, 0
3, 3
3, 3
1, 3
1, 1
2, 1
1, 3
3, 1
2, 2
3, 2
0, 3
2, 2
3, 3
0, 0
4, 1
2, 1
1, 0
1, 0
1, 1
1, 0
0, 0
0, 1
2, 0
0, 0
1, 0
1, 3
1, 0
0, 1
0, 3
3, 1
1, 1
1, 1
1, 0
2, 2
0, 1
0, 2
1, 1
2, 1
0, 0
1, 0
0, 0
2, 1
1, 0
0, 0
1, 1
2, 0
1, 1
1, 0
0, 0
0, 1
1, 0
0, 0
1, 3
3, 1
1, 0
0, 1
2, 1
1, 1
1, 1
2, 1
1, 1
0, 2
1, 0
0, 3
0, 2
1, 1
2, 0
0, 2
0, 2
1, 0
1, 2
0, 0
1, 0
0, 1
0, 1
1, 5
0, 1
0, 0
0, 1
1, 2
1, 2
0, 0
1, 3
0, 2
0, 0
0, 0
1, 0
1, 0
0, 2
0, 1
0, 0
0, 0
2, 0
1, 0
2, 0
0, 0
0, 1
1, 0
0, 0
0, 0
2, 0
1, 1
2, 0
0, 0
0, 0
0, 0
2, 1
0, 0
1, 0
1, 0
0, 0
1, 0
0, 0
0, 0
0, 1
0, 0
2, 1
0, 0
1, 1
0, 0
0, 0
0, 0
2, 0
0, 0
0, 0
0, 0
0, 0
0, 1
2, 0
0, 1
1, 1
1, 0
0, 2
0, 0
0, 0
0, 0
1, 0
2, 0
2, 0
0, 0
1, 0
0, 0
0, 1
0, 1
0, 0
1, 0
0, 1
1, 1
3, 0
0, 1
0, 0
1, 0
1, 0
0, 1
1, 0
0, 0
0, 0
0, 1
0, 1
1, 0
0, 0
1, 0
0, 0
0, 0
0, 0
1, 1
0, 0
0, 0
1, 0
0, 0
0, 0
0, 0
1, 0
0, 1
0, 1
0, 0
0, 0
0, 1
0, 0
0, 0
1, 0
0, 0
0, 0
0, 0
0, 0
0, 1
0, 0
0, 0
1, 0
0, 0
0, 1
1, 1
1, 0
0, 0
0, 0
1, 1
1, 0
0, 0
0, 0
0, 0
0, 0
0, 1
1, 0
1, 0
0, 0
0, 0
0, 0
1, 1
1, 0
0, 0
0, 0
0, 0
0, 1
0, 0
1, 1
0, 0
2, 1
0, 0
0, 0
0, 0
0, 0
0, 2
0, 0
0, 0
0, 0
0, 0
0, 0
1, 2
0, 1
0, 1
0, 0
1, 0
0, 1
0, 0
1, 0
0, 0
0, 1
0, 0
0, 0
0, 0
1, 0
0, 0
0, 0
1, 1
0, 0
0, 0
0, 0
0, 1
0, 0
0, 1
1, 0
0, 0
0, 0
1, 0
0, 0
0, 0
0, 0
0, 0
0, 0
0, 0
0, 0
0, 0
0, 0
0, 0
0, 0
1, 0
1, 0
0, 0
0, 0
0, 0
0, 0
0, 0
0, 0
0, 0
0, 0
0, 0
0, 0
0, 0
0, 0
0, 0
0, 0
1, 0
0, 0
1, 0
0, 0
0, 0
0, 0
0, 0
1, 0
1, 0
0, 0
0, 0
0, 0
1, 0
0, 0
0, 0
0, 0
1, 0
0, 0
0, 0
1, 0
0, 0
0, 0
0, 0
0, 0
0, 0
1, 0
0, 0
0, 0
0, 1
0, 0
0, 0
0, 0
0, 0
0, 0
0, 0
0, 0
0, 0
0, 1
0, 0
1, 0
0, 0
0, 0
0, 0
0, 0
0, 0
1, 0
0, 0
0, 0
0, 0
0, 1
0, 0
0, 0
1, 0
0, 1
0, 0
0, 0
0, 0
1, 0
0, 0
0, 0
0, 0
0, 0
0, 0
0, 0
0, 0
0, 0
0, 0
0, 0
0, 0
0, 0
0, 0
0, 0
0, 0
0, 0
0, 0
0, 0
0, 0
0, 0
0, 0
0, 0
0, 0
0, 0
0, 0
0, 0
1, 0
0, 0
0, 0
0, 0
1, 0
0, 0
0, 0
0, 0
0, 0
0, 0
0, 0
0, 1
0, 0
0, 0
0, 0
0, 0
0, 0
0, 0
0, 0
0, 0
0, 0
0, 0
0, 0
0, 0
0, 0
0, 1
1, 0
0, 0
0, 0
0, 0
0, 0
0, 0
0, 0
0, 0
0, 0
0, 0
0, 0
0, 0
0, 1
0, 0
0, 0
0, 0
0, 0
0, 0
0, 0
0, 0
0, 0
0, 0
0, 0
0, 0
0, 0
0, 1
0, 0
0, 0
0, 0
0, 0
0, 0
0, 0
0, 0
0, 0
0, 0
0, 0
0, 0
0, 0
0, 0
0, 0
0, 0
0, 0
0, 0
0, 0
0, 0
0, 0
0, 0
0, 0
0, 0
0, 0
0, 0
0, 0
1, 0
0, 0
1, 0
0, 0
0, 0
0, 0
0, 0
0, 0
0, 0
0, 0
0, 0
0, 0
0, 0
0, 0
0, 0
0, 0
0, 0
0, 0
0, 0
0, 0
0, 0
0, 0
0, 0
0, 0
0, 0
0, 0
0, 0
0, 0
0, 0
0, 0
0, 0
0, 0
0, 0
0, 0
0, 0
0, 0
0, 0
0, 0
0, 0
0, 0
0, 0
0, 0
0, 0
0, 0
0, 0
0, 0
0, 0
0, 0
0, 0
0, 0
0, 0
0, 0
0, 0
0, 0
0, 0
0, 0
0, 0
0, 0
0, 0
0, 0
0, 0
0, 0
0, 0
0, 0
0, 0
0, 0
0, 0
0, 0
0, 0
0, 0
0, 0
0, 0
0, 0
0, 0
0, 0
0, 0
0, 0
0, 0
0, 0
0, 0
0, 0
0, 0
0, 0
0, 0
0, 0
0, 0
0, 0
0, 0
0, 0
0, 0
0, 0
0, 0
0, 0
0, 0
0, 0
0, 0
0, 0
0, 0
0, 0
0, 0
0, 0
0, 0
0, 0
0, 0
0, 0
0, 0
0, 0
0, 0
0, 0
0, 0
0, 0
0, 0
0, 0
0, 0
0, 0
0, 0
0, 0
0, 0
0, 0
0, 0
0, 0
0, 0
0, 0
0, 0
0, 0
0, 0
0, 0
0, 0
0, 0
0, 0
0, 0
0, 0
0, 0
0, 0
0, 0
0, 0
0, 0
0, 0
0, 0
0, 0
0, 0
0, 0
0, 0
0, 0
0, 0
0, 0
0, 0
0, 0
0, 0
0, 0
0, 0
0, 0
0, 0
0, 0
0, 0
0, 0
0, 0
0, 0
0, 0
0, 0
0, 0
0, 0
0, 0
0, 0
0, 0
0, 0
0, 0
0, 0
0, 0
0, 0
0, 0
0, 0
0, 0
0, 0
0, 0
0, 0
0, 0
0, 0
0, 0
0, 0
0, 0
0, 0
0, 0
0, 0
0, 0
0, 0
0, 0
0, 0
0, 0
0, 0
0, 0
0, 0
0, 0
0, 0
0, 0
0, 0
0, 0
0, 0
0, 0
0, 0
0, 0
0, 0
0, 0
0, 0
0, 0
0, 0
0, 0
0, 0
0, 0
0, 0
0, 0
0, 0
0, 0
0, 0
0, 0
0, 0
0, 0
0, 0
0, 0
0, 0
0, 0
0, 0
0, 0
0, 0
0, 0
0, 0
0, 0
0, 0
0, 0
0, 0
0, 0
0, 0
0, 0
0, 0
0, 0
0, 0
0, 0
0, 0
0, 0
0, 0
0, 0
0, 0
0, 0
0, 0
0, 0
0, 0
0, 0
0, 0
0, 0
0, 0
0, 0
0, 0
0, 0
0, 0
0, 0
0, 0
0, 0
0, 0
0, 0
0, 0
0, 0
0, 0
0, 0
0, 0
0, 0
0, 0
0, 0
0, 0
0, 0
0, 0
0, 0
0, 0
0, 0
0, 0
0, 0
0, 0
0, 0
0, 0
0, 0
0, 0
0, 0
0, 0
0, 0
0, 0
0, 0
0, 0
0, 0
0, 0
0, 0
0, 0
0, 0
0, 0
0, 0
0, 0
0, 0
0, 0
0, 0
0, 0
0, 0
0, 0
0, 0
0, 0
0, 0
0, 0
0, 0
0, 0
0, 0
0, 0
0, 0
0, 0
0, 0
0, 0
0, 0
0, 0
0, 0
0, 0
0, 0
0, 0
0, 0
0, 0
0, 0
0, 0
0, 0
0, 0
0, 0
0, 0
0, 0
0, 0
0, 0
0, 0
0, 0
0, 0
0, 0
0, 0
0, 0
0, 0
0, 0
0, 0
0, 0
0, 0
0, 0
0, 0
0, 0
0, 0
0, 0
0, 0
0, 0
0, 0
0, 0
0, 0
0, 0
0, 0
0, 0
0, 0
0, 0
0, 0
#ENDOFDATA     end of spectrum data