File: host_upload/06-09-2024/ps_0852/dump3/ps__0852shot_2212.msa
#FORMAT      : EMSA/MAS spectral data file
#VERSION     : TC202v2.0 PIXL
#TITLE       : N/A
#DATE        :       Date in the format DD-MMM-YYYY, for example 07-JUL-2010
#TIME        :             The time of day at which the spectrum was recorded, in 24-hour format
#OWNER       : PIXL Flight Model       (PIXL will use this to indicate which instrument took the data.)
#NPOINTS     : 4096     Number of data points in the spectrum (This can be zero for configuration only files)
#NCOLUMNS    : 2     Number of data columns in the spectrum (This can be zero for configuration only files)
#XUNITS      : eV
#YUNITS      : COUNTS
#DATATYPE    : YY
#XPERCHAN    : 7.862, 7.881   eV per channel (separate by commas if more than one detector)
#OFFSET      : 18.5, -22.4         eV of first channel  (separate by commas if more than one detector
#SIGNALTYPE  : XRF
#YP_TEMP     : 2.332
#LIVETIME    : 8.56595, 8.53079   seconds (separate by commas if more than one detector)
#REALTIME    : 10, 10.0   seconds (separate by commas if more than one detector)
#SPECTRUM    : start of spectrum data
0, 0
0, 0
0, 0
0, 0
0, 0
0, 0
0, 0
0, 0
0, 0
0, 0
0, 0
0, 0
0, 0
0, 0
0, 0
0, 0
0, 0
0, 0
0, 0
0, 0
0, 0
0, 0
0, 0
0, 0
0, 0
0, 0
0, 0
0, 0
0, 0
0, 0
0, 0
0, 0
0, 0
0, 0
1, 1
0, 0
0, 0
0, 0
1, 0
0, 0
0, 0
0, 0
1, 0
0, 2
0, 0
1, 2
0, 1
6, 3
7, 7
13, 11
27, 23
50, 47
68, 55
68, 65
85, 74
87, 83
55, 53
52, 38
31, 18
19, 17
5, 11
11, 6
4, 6
5, 2
3, 5
5, 2
7, 7
13, 4
27, 20
46, 58
113, 97
168, 158
250, 251
370, 334
453, 415
429, 407
421, 362
309, 271
219, 199
154, 126
77, 68
45, 37
14, 15
10, 17
5, 3
2, 4
2, 0
1, 1
0, 1
2, 0
1, 1
1, 2
1, 1
1, 1
2, 1
2, 2
2, 5
6, 4
3, 2
3, 0
4, 5
6, 2
2, 2
0, 2
1, 0
3, 3
3, 2
4, 3
7, 2
9, 5
11, 12
20, 9
24, 15
34, 19
35, 23
27, 18
53, 25
38, 19
25, 16
26, 13
19, 21
20, 11
22, 13
23, 12
19, 13
10, 19
15, 6
10, 8
9, 8
5, 8
2, 8
1, 1
4, 2
4, 1
1, 4
2, 12
0, 11
3, 10
3, 6
2, 10
3, 5
2, 6
1, 5
2, 1
0, 2
4, 1
4, 4
3, 0
3, 1
1, 3
3, 2
1, 8
7, 6
5, 4
8, 15
16, 16
20, 18
13, 19
16, 14
13, 13
16, 11
11, 11
2, 10
4, 4
2, 3
7, 6
2, 1
2, 4
2, 3
7, 1
9, 3
5, 2
9, 2
11, 4
14, 4
11, 1
20, 1
17, 6
23, 0
20, 1
33, 2
23, 4
30, 2
30, 5
41, 1
45, 4
39, 4
45, 4
28, 10
17, 7
21, 7
18, 14
10, 17
12, 20
9, 31
15, 30
12, 54
8, 71
14, 49
18, 58
11, 57
7, 44
7, 34
9, 33
4, 27
3, 26
9, 18
2, 11
5, 16
9, 11
5, 13
3, 10
1, 8
3, 14
4, 18
2, 9
11, 11
2, 12
5, 15
6, 10
6, 7
6, 14
6, 14
8, 10
2, 10
9, 6
15, 10
15, 14
9, 10
18, 11
10, 26
11, 15
25, 14
21, 14
23, 8
25, 18
34, 15
31, 9
33, 7
43, 8
38, 6
39, 6
47, 10
49, 13
60, 7
70, 18
60, 26
86, 36
78, 42
98, 63
104, 54
89, 61
81, 55
74, 50
48, 35
45, 23
18, 24
21, 13
21, 18
21, 16
14, 21
21, 24
41, 62
74, 113
146, 185
305, 308
468, 590
766, 895
1170, 1274
1549, 1635
2045, 2117
2227, 2327
2453, 2361
2291, 2112
2153, 1865
1790, 1460
1377, 1059
963, 683
590, 488
377, 267
218, 139
109, 93
52, 45
19, 29
26, 20
21, 21
21, 30
13, 20
16, 16
20, 14
26, 29
44, 35
48, 41
75, 86
123, 126
153, 174
216, 219
242, 300
295, 307
364, 343
348, 370
395, 314
327, 265
246, 215
200, 145
145, 87
90, 52
60, 24
33, 24
20, 11
17, 10
9, 8
14, 7
11, 10
11, 7
7, 14
19, 8
11, 11
16, 15
12, 11
14, 7
10, 11
8, 6
7, 3
3, 6
9, 4
4, 6
5, 6
2, 6
1, 5
4, 6
4, 12
2, 10
6, 5
3, 7
2, 8
5, 12
7, 6
2, 5
2, 4
7, 5
3, 7
4, 1
4, 3
6, 4
8, 7
11, 7
9, 3
11, 4
12, 8
13, 7
17, 2
17, 8
26, 2
19, 10
14, 7
27, 3
18, 9
11, 10
7, 13
7, 12
7, 13
6, 13
6, 7
11, 9
7, 10
8, 7
5, 5
13, 8
10, 4
15, 5
16, 4
15, 5
8, 8
8, 12
9, 9
5, 12
5, 9
4, 5
5, 7
1, 16
3, 8
3, 5
1, 7
4, 5
1, 4
1, 3
2, 4
2, 5
3, 5
2, 4
2, 5
2, 3
9, 4
2, 4
3, 2
4, 5
2, 7
6, 5
3, 3
5, 3
3, 5
4, 4
7, 5
4, 1
3, 7
7, 7
0, 4
0, 6
4, 3
2, 2
6, 1
4, 2
2, 4
3, 7
8, 2
3, 8
9, 2
3, 4
4, 6
3, 5
5, 8
10, 3
8, 4
21, 6
6, 8
9, 7
12, 11
12, 5
8, 8
15, 8
10, 20
5, 10
5, 10
3, 18
5, 18
6, 16
5, 14
1, 12
4, 10
2, 10
6, 7
3, 3
2, 3
1, 3
2, 3
3, 0
2, 1
1, 1
1, 1
1, 0
2, 1
1, 3
2, 5
4, 3
1, 3
4, 1
2, 2
1, 1
1, 4
4, 2
0, 2
4, 2
0, 4
4, 1
1, 3
5, 5
3, 1
0, 4
5, 3
5, 1
6, 1
8, 3
3, 2
6, 0
0, 2
1, 1
0, 2
2, 5
4, 1
1, 3
4, 1
3, 3
2, 1
3, 2
2, 2
2, 4
3, 4
6, 2
7, 2
2, 0
5, 1
2, 3
4, 0
3, 3
6, 0
5, 1
6, 0
2, 2
4, 2
1, 4
5, 3
1, 1
3, 3
2, 2
1, 4
6, 1
4, 2
1, 3
0, 3
0, 0
1, 2
3, 1
2, 1
0, 1
2, 1
5, 3
2, 2
1, 3
1, 5
3, 4
1, 2
3, 1
0, 0
4, 4
2, 4
2, 3
2, 1
3, 3
2, 2
4, 3
1, 3
3, 0
3, 2
0, 2
3, 2
1, 4
4, 1
4, 6
5, 1
4, 7
6, 3
6, 3
5, 5
5, 4
1, 2
1, 0
4, 3
6, 2
3, 2
4, 1
2, 0
3, 4
1, 2
2, 1
3, 2
2, 1
2, 0
2, 0
2, 0
2, 1
1, 2
5, 2
3, 5
3, 2
1, 1
0, 2
3, 1
0, 1
0, 1
1, 3
2, 1
3, 1
0, 2
1, 2
3, 4
1, 1
4, 0
0, 2
0, 1
0, 1
1, 0
1, 1
2, 0
0, 0
1, 0
0, 1
1, 3
1, 0
1, 0
1, 0
3, 0
1, 0
0, 1
2, 2
2, 1
2, 1
1, 1
0, 0
0, 0
1, 2
0, 1
0, 1
0, 0
0, 1
0, 0
1, 1
0, 2
3, 0
1, 1
1, 0
0, 0
1, 0
1, 0
2, 0
1, 0
1, 1
0, 0
0, 2
3, 0
0, 1
0, 1
2, 1
1, 0
2, 2
2, 0
0, 1
3, 0
1, 1
1, 0
1, 1
0, 1
1, 2
1, 1
2, 0
0, 0
0, 1
2, 0
0, 0
0, 0
0, 0
0, 3
0, 1
1, 1
2, 0
2, 0
1, 1
1, 3
1, 1
0, 3
2, 0
0, 0
2, 0
1, 1
0, 0
0, 0
2, 0
0, 0
0, 0
1, 0
1, 0
0, 0
1, 0
0, 1
1, 1
0, 0
2, 0
1, 1
1, 1
0, 0
0, 1
1, 0
1, 1
0, 2
1, 0
0, 0
0, 0
1, 0
3, 0
0, 1
0, 0
0, 0
0, 0
0, 1
0, 0
0, 2
0, 1
0, 0
1, 0
1, 0
1, 0
0, 0
0, 0
0, 1
0, 1
0, 0
0, 0
1, 0
0, 1
0, 1
1, 0
1, 0
1, 0
0, 0
0, 0
1, 0
0, 1
0, 1
2, 1
0, 2
0, 0
0, 0
2, 0
1, 0
1, 0
0, 0
0, 1
1, 0
0, 1
0, 0
0, 0
1, 0
0, 0
2, 0
1, 0
0, 1
0, 1
0, 0
0, 0
0, 1
0, 1
0, 0
0, 0
0, 1
0, 1
0, 0
1, 0
1, 0
0, 0
0, 2
0, 0
0, 0
0, 0
0, 2
0, 0
0, 0
1, 0
1, 0
0, 1
0, 0
1, 1
1, 0
0, 1
0, 1
0, 2
0, 1
0, 1
0, 1
0, 0
0, 0
0, 0
0, 0
0, 0
0, 0
0, 0
0, 1
2, 0
0, 1
0, 0
0, 1
0, 0
1, 0
0, 0
0, 1
0, 0
0, 0
0, 0
0, 0
0, 0
0, 2
1, 0
0, 1
0, 2
0, 1
1, 0
0, 0
0, 1
0, 0
0, 0
0, 0
0, 0
0, 0
0, 0
0, 0
0, 0
0, 1
0, 0
0, 0
0, 0
0, 0
0, 0
0, 0
0, 0
1, 0
0, 0
0, 0
1, 0
2, 0
0, 2
0, 0
0, 0
0, 1
0, 0
0, 0
0, 0
0, 0
0, 0
0, 0
1, 0
0, 0
0, 0
0, 1
1, 0
0, 0
0, 1
0, 0
0, 0
0, 0
0, 0
1, 0
0, 0
0, 0
1, 1
1, 0
0, 1
0, 0
0, 0
0, 0
0, 0
0, 0
0, 0
0, 0
0, 0
0, 0
0, 0
0, 0
0, 0
0, 1
0, 0
0, 0
0, 0
0, 0
0, 0
0, 0
0, 0
0, 1
2, 0
0, 0
0, 1
0, 0
0, 0
0, 1
0, 1
0, 0
0, 0
0, 0
0, 0
0, 0
1, 1
1, 0
0, 0
0, 0
0, 0
0, 0
0, 0
0, 0
0, 1
0, 0
0, 0
1, 0
0, 0
0, 0
0, 0
1, 0
0, 0
0, 1
1, 0
0, 0
0, 0
0, 0
0, 0
0, 0
0, 0
0, 0
0, 0
0, 0
0, 0
0, 1
0, 0
0, 0
0, 0
0, 0
0, 0
0, 0
0, 0
0, 0
0, 0
0, 0
0, 0
0, 0
0, 0
0, 0
0, 0
0, 0
0, 0
0, 0
0, 0
0, 0
0, 0
0, 0
0, 0
0, 0
0, 0
0, 0
0, 0
0, 0
0, 0
0, 0
0, 0
0, 0
0, 0
0, 0
0, 0
0, 0
0, 0
0, 0
0, 0
0, 1
0, 0
0, 0
0, 0
0, 0
0, 0
0, 0
0, 1
0, 0
1, 0
0, 0
0, 0
0, 0
0, 0
0, 0
1, 0
0, 0
0, 0
0, 0
0, 0
0, 0
0, 0
0, 0
0, 0
0, 0
0, 0
0, 0
0, 1
0, 0
0, 0
0, 0
0, 0
0, 0
0, 0
0, 0
0, 0
0, 0
0, 0
0, 0
0, 0
0, 0
0, 0
0, 0
0, 0
0, 0
0, 0
0, 0
0, 0
0, 0
0, 0
0, 0
0, 0
0, 0
0, 0
0, 0
0, 0
0, 0
0, 0
0, 0
0, 0
0, 0
0, 0
0, 0
0, 0
0, 0
0, 0
0, 0
0, 0
0, 0
0, 0
0, 0
0, 0
0, 0
0, 0
0, 0
0, 0
0, 0
0, 0
0, 0
0, 0
0, 0
0, 0
0, 0
0, 0
0, 0
0, 0
0, 0
0, 0
0, 0
0, 0
0, 0
0, 0
0, 0
0, 0
0, 0
0, 0
0, 0
0, 0
0, 0
0, 0
0, 0
0, 0
0, 0
0, 0
0, 0
0, 0
0, 0
0, 0
0, 0
0, 0
0, 0
0, 0
0, 0
0, 0
0, 0
0, 0
0, 0
0, 0
0, 0
0, 0
0, 0
0, 0
0, 0
0, 0
0, 0
0, 0
0, 0
0, 0
0, 0
0, 0
0, 0
0, 0
0, 0
0, 0
0, 0
0, 0
0, 0
0, 0
1, 0
0, 0
0, 0
0, 0
0, 0
0, 0
0, 0
0, 0
0, 0
0, 0
0, 0
0, 0
0, 0
0, 0
0, 0
0, 0
0, 0
0, 0
0, 0
0, 0
0, 0
0, 0
0, 0
0, 0
0, 0
0, 0
0, 0
0, 0
0, 0
0, 0
0, 0
0, 0
0, 0
0, 0
0, 0
0, 0
0, 0
0, 0
0, 0
0, 0
0, 0
0, 0
1, 0
0, 0
0, 0
0, 0
0, 0
0, 0
0, 0
0, 0
0, 0
0, 0
0, 0
0, 0
0, 0
0, 0
0, 0
0, 0
0, 0
0, 0
0, 0
0, 0
0, 0
0, 0
0, 0
0, 0
0, 0
0, 0
0, 0
0, 0
0, 0
0, 0
0, 0
0, 0
0, 0
0, 0
0, 0
0, 0
0, 0
0, 0
0, 0
0, 0
0, 0
0, 0
0, 0
0, 0
0, 0
0, 0
0, 0
0, 0
0, 0
0, 0
0, 0
0, 0
0, 0
0, 0
0, 0
0, 0
0, 0
0, 0
0, 0
0, 0
0, 0
0, 0
0, 0
0, 0
0, 0
0, 0
0, 0
0, 0
0, 0
0, 0
0, 0
0, 0
0, 0
0, 0
0, 0
0, 0
0, 0
0, 0
0, 0
0, 0
0, 0
0, 0
0, 0
0, 0
0, 0
0, 0
0, 0
0, 0
0, 0
0, 0
0, 0
0, 0
0, 0
0, 0
0, 0
0, 0
0, 0
0, 0
0, 0
0, 0
0, 0
0, 0
0, 0
0, 0
0, 0
0, 0
0, 0
0, 0
0, 0
0, 0
0, 0
0, 0
0, 0
0, 0
0, 0
0, 0
0, 0
0, 0
0, 0
0, 0
0, 0
0, 0
0, 0
0, 0
0, 0
0, 0
0, 0
0, 0
0, 0
0, 0
0, 0
0, 0
0, 0
0, 0
0, 0
0, 0
0, 0
0, 0
0, 0
0, 0
0, 0
0, 0
0, 0
0, 0
0, 0
0, 0
0, 0
0, 0
0, 0
0, 0
0, 0
0, 0
0, 0
0, 0
0, 0
0, 0
0, 0
0, 0
0, 0
0, 0
0, 0
0, 0
0, 0
0, 0
0, 0
0, 0
0, 0
0, 0
0, 0
0, 0
0, 0
0, 0
0, 0
0, 0
0, 0
0, 0
0, 0
0, 0
0, 0
0, 0
0, 0
0, 0
0, 0
0, 0
0, 0
0, 0
0, 0
0, 0
0, 0
0, 0
0, 0
0, 0
0, 0
0, 0
0, 0
0, 0
0, 0
0, 0
0, 0
0, 0
0, 0
0, 0
0, 0
0, 0
0, 0
0, 0
0, 0
0, 0
0, 0
0, 0
0, 0
0, 0
0, 0
0, 0
0, 0
0, 0
0, 0
0, 0
0, 0
0, 0
0, 0
0, 0
0, 0
0, 0
0, 0
0, 0
0, 0
0, 0
0, 0
0, 0
0, 0
0, 0
0, 0
0, 0
0, 0
0, 0
0, 0
0, 0
0, 0
0, 0
0, 0
0, 0
0, 0
0, 0
0, 0
0, 0
0, 0
0, 0
0, 0
#ENDOFDATA     end of spectrum data