File: host_upload/06-09-2024/ps_0852/dump3/ps__0852shot_2312.msa
#FORMAT      : EMSA/MAS spectral data file
#VERSION     : TC202v2.0 PIXL
#TITLE       : N/A
#DATE        :       Date in the format DD-MMM-YYYY, for example 07-JUL-2010
#TIME        :             The time of day at which the spectrum was recorded, in 24-hour format
#OWNER       : PIXL Flight Model       (PIXL will use this to indicate which instrument took the data.)
#NPOINTS     : 4096     Number of data points in the spectrum (This can be zero for configuration only files)
#NCOLUMNS    : 2     Number of data columns in the spectrum (This can be zero for configuration only files)
#XUNITS      : eV
#YUNITS      : COUNTS
#DATATYPE    : YY
#XPERCHAN    : 7.862, 7.881   eV per channel (separate by commas if more than one detector)
#OFFSET      : 18.5, -22.4         eV of first channel  (separate by commas if more than one detector
#SIGNALTYPE  : XRF
#YP_TEMP     : 2.332
#LIVETIME    : 8.5303, 8.55627   seconds (separate by commas if more than one detector)
#REALTIME    : 10, 10.0   seconds (separate by commas if more than one detector)
#SPECTRUM    : start of spectrum data
0, 0
0, 0
0, 0
0, 0
0, 0
0, 0
0, 0
0, 0
0, 0
0, 0
0, 0
0, 0
0, 0
0, 0
0, 0
0, 0
0, 0
0, 0
0, 0
0, 0
0, 0
0, 0
0, 0
0, 0
0, 0
0, 0
0, 0
0, 0
0, 0
0, 0
0, 0
1, 0
0, 0
0, 0
0, 1
2, 0
0, 0
1, 1
1, 1
1, 1
1, 1
2, 0
0, 0
2, 0
4, 2
2, 0
2, 1
5, 1
11, 4
17, 10
18, 20
47, 28
58, 57
86, 69
93, 84
80, 65
64, 55
46, 36
22, 19
17, 8
12, 4
2, 3
5, 1
7, 1
2, 2
4, 4
5, 7
8, 12
21, 23
38, 39
93, 85
181, 163
272, 249
341, 353
437, 430
440, 379
404, 341
304, 253
203, 181
135, 107
83, 64
41, 41
15, 18
15, 7
3, 5
6, 5
4, 2
3, 2
3, 0
1, 2
0, 4
2, 3
0, 4
1, 2
2, 3
2, 3
10, 6
5, 4
8, 2
1, 7
4, 6
5, 5
4, 9
7, 4
2, 3
2, 7
4, 5
10, 4
15, 13
29, 19
28, 24
50, 23
94, 33
132, 40
159, 48
156, 47
160, 48
157, 52
110, 26
127, 34
108, 27
127, 23
170, 25
223, 15
215, 11
188, 15
159, 8
135, 12
84, 11
56, 8
25, 4
17, 2
7, 2
5, 0
6, 2
4, 1
0, 0
3, 0
2, 1
3, 3
2, 2
4, 0
0, 2
1, 3
3, 0
2, 1
3, 4
2, 10
3, 12
2, 18
2, 21
4, 20
8, 31
8, 35
9, 37
11, 34
12, 18
22, 38
12, 19
18, 23
14, 10
10, 18
3, 10
2, 4
6, 5
4, 2
5, 3
8, 8
5, 7
9, 10
13, 3
11, 6
14, 6
5, 8
4, 14
6, 9
7, 4
8, 3
7, 5
3, 10
2, 8
3, 5
2, 4
0, 7
1, 5
5, 4
10, 3
9, 9
13, 11
17, 13
22, 10
31, 12
33, 14
42, 9
61, 14
67, 20
85, 16
85, 15
67, 11
90, 17
62, 13
45, 14
45, 12
18, 8
14, 11
12, 8
7, 9
6, 5
11, 5
7, 12
8, 8
4, 10
9, 6
11, 6
10, 11
3, 7
5, 11
9, 4
3, 4
5, 7
7, 7
3, 8
5, 8
11, 13
7, 13
11, 13
11, 19
14, 15
13, 21
15, 21
12, 27
18, 11
15, 22
19, 11
21, 15
15, 18
19, 7
11, 10
13, 14
14, 7
19, 7
12, 3
27, 8
32, 13
33, 12
45, 28
66, 42
77, 41
86, 65
102, 73
88, 74
102, 80
86, 73
70, 85
52, 89
44, 77
31, 84
32, 65
22, 86
12, 86
26, 65
22, 65
38, 88
82, 101
148, 191
292, 334
472, 567
797, 907
1187, 1287
1644, 1664
2021, 2208
2372, 2359
2488, 2464
2470, 2202
2201, 1912
1806, 1425
1396, 1044
951, 756
613, 456
354, 239
207, 130
118, 70
59, 39
31, 17
32, 23
16, 18
12, 16
15, 23
15, 23
22, 35
33, 34
25, 44
49, 71
71, 89
107, 113
155, 167
186, 242
266, 273
344, 320
368, 339
341, 350
365, 349
311, 281
260, 214
205, 174
125, 103
79, 72
62, 41
34, 19
12, 16
16, 13
12, 3
9, 9
18, 16
10, 13
15, 9
15, 16
17, 13
21, 10
11, 11
9, 7
9, 8
9, 8
9, 5
9, 9
8, 3
0, 4
6, 3
5, 6
3, 3
4, 4
2, 4
6, 6
3, 2
0, 2
8, 5
4, 4
5, 6
6, 5
4, 8
4, 6
5, 10
7, 5
6, 5
11, 2
6, 8
10, 8
6, 7
10, 7
4, 7
6, 6
5, 5
6, 2
6, 11
5, 2
2, 6
2, 6
1, 4
2, 2
5, 3
1, 4
3, 10
5, 1
1, 6
3, 5
9, 5
4, 4
7, 8
11, 2
8, 7
9, 2
5, 5
3, 4
4, 2
3, 2
6, 3
6, 3
3, 1
4, 1
5, 5
2, 5
5, 3
6, 5
4, 6
5, 5
8, 9
7, 3
5, 3
16, 3
11, 2
14, 5
17, 8
27, 3
16, 6
19, 6
10, 5
13, 5
16, 3
10, 4
5, 8
2, 5
8, 6
8, 7
4, 15
0, 12
3, 16
9, 10
2, 11
8, 10
3, 14
4, 15
6, 11
4, 13
3, 8
4, 8
7, 2
1, 3
1, 4
2, 4
2, 5
5, 1
2, 3
4, 5
1, 2
2, 2
5, 2
4, 1
7, 4
3, 4
4, 1
3, 3
2, 3
5, 2
4, 3
2, 4
1, 2
2, 2
4, 1
2, 3
1, 1
3, 3
3, 3
3, 1
1, 0
5, 1
1, 3
2, 2
2, 1
2, 3
2, 2
0, 4
4, 4
2, 4
1, 5
2, 4
2, 4
5, 0
4, 3
4, 2
3, 4
7, 1
2, 2
4, 3
2, 0
2, 1
4, 1
0, 2
1, 0
2, 1
2, 4
0, 4
2, 1
0, 2
2, 5
2, 2
1, 2
2, 2
1, 3
0, 3
1, 4
1, 4
2, 1
3, 0
1, 1
3, 2
2, 5
3, 6
2, 3
2, 2
7, 3
1, 2
1, 1
3, 5
1, 4
5, 5
5, 2
3, 3
6, 4
5, 3
1, 2
3, 1
4, 4
2, 1
2, 1
0, 4
0, 6
3, 3
3, 4
1, 3
2, 4
0, 1
2, 3
5, 2
2, 1
1, 1
1, 3
0, 4
6, 4
1, 5
2, 6
1, 2
4, 0
5, 5
1, 4
6, 1
0, 3
4, 3
4, 3
0, 4
2, 1
1, 2
1, 4
1, 0
1, 0
3, 2
1, 2
3, 1
4, 2
4, 3
1, 5
4, 5
5, 6
4, 2
3, 4
2, 5
1, 3
4, 3
8, 3
1, 1
2, 2
0, 4
2, 2
0, 0
0, 1
3, 2
0, 1
1, 2
0, 1
1, 0
1, 1
2, 2
2, 0
0, 1
1, 2
3, 1
2, 3
2, 0
2, 1
0, 3
4, 1
2, 0
3, 4
3, 5
3, 1
1, 3
6, 1
5, 0
3, 1
4, 1
2, 1
0, 1
3, 1
3, 2
2, 1
3, 1
0, 0
2, 1
4, 1
1, 1
0, 0
1, 1
0, 1
2, 1
1, 2
1, 2
1, 0
2, 0
0, 1
1, 2
0, 1
0, 2
0, 0
1, 0
1, 0
1, 1
2, 0
3, 1
0, 0
1, 0
0, 1
0, 1
1, 0
0, 0
1, 0
1, 0
0, 1
1, 0
1, 0
1, 0
1, 2
0, 0
1, 1
0, 1
1, 1
0, 0
2, 0
1, 0
1, 1
1, 2
2, 1
1, 2
0, 2
0, 0
0, 0
1, 0
1, 0
2, 0
1, 0
1, 0
2, 1
0, 0
0, 0
2, 1
1, 0
1, 0
0, 0
1, 0
1, 0
3, 2
1, 1
2, 0
0, 0
3, 0
0, 3
1, 0
0, 0
0, 3
0, 0
1, 1
0, 1
2, 0
2, 1
0, 0
0, 0
0, 0
1, 1
0, 0
0, 0
0, 1
0, 0
0, 1
1, 0
1, 2
0, 1
0, 1
0, 0
0, 0
0, 0
0, 0
0, 0
1, 1
2, 0
1, 0
0, 1
0, 0
0, 0
1, 1
0, 0
0, 1
0, 1
0, 0
0, 0
2, 0
0, 1
0, 1
0, 0
0, 0
0, 0
1, 1
0, 0
0, 0
2, 1
0, 0
0, 0
1, 0
0, 0
1, 2
0, 0
1, 2
0, 0
0, 0
0, 0
0, 0
0, 0
1, 0
0, 0
0, 1
0, 0
1, 0
0, 0
0, 0
0, 1
0, 0
0, 0
1, 0
0, 1
0, 0
1, 0
0, 0
3, 0
0, 2
1, 0
1, 0
0, 1
0, 1
1, 2
0, 0
0, 0
0, 0
1, 0
0, 1
0, 0
0, 0
1, 0
0, 0
0, 0
0, 1
0, 0
0, 0
0, 0
0, 0
0, 1
0, 0
0, 0
0, 1
0, 0
0, 0
1, 0
1, 1
0, 0
0, 0
1, 0
0, 1
0, 0
0, 0
1, 0
0, 0
1, 0
1, 0
1, 0
0, 0
1, 0
0, 1
0, 1
1, 0
0, 1
1, 0
0, 0
0, 0
0, 1
0, 1
1, 0
0, 1
0, 1
1, 0
0, 0
2, 1
0, 0
1, 0
0, 0
0, 0
0, 1
1, 0
0, 0
0, 0
0, 0
0, 0
0, 0
2, 0
0, 0
0, 0
0, 0
0, 1
0, 0
0, 0
1, 0
0, 0
1, 0
1, 1
0, 0
0, 0
0, 0
0, 0
0, 1
0, 0
0, 1
0, 1
0, 0
0, 0
0, 0
0, 0
0, 0
0, 0
0, 0
0, 0
0, 1
0, 0
0, 0
0, 1
0, 0
0, 0
0, 0
0, 0
0, 0
0, 0
0, 0
0, 0
0, 0
0, 0
0, 0
0, 0
0, 1
0, 0
0, 0
1, 0
0, 0
0, 0
0, 0
0, 0
0, 0
0, 0
0, 0
0, 0
0, 0
0, 0
0, 0
0, 0
1, 0
0, 1
0, 0
1, 0
0, 0
0, 0
0, 0
0, 0
0, 0
0, 0
0, 0
1, 0
0, 0
0, 0
0, 0
0, 1
0, 0
0, 0
0, 0
1, 0
0, 1
0, 0
0, 0
0, 0
0, 0
0, 0
0, 0
0, 0
0, 0
0, 0
0, 0
0, 0
0, 0
0, 1
0, 0
0, 0
0, 0
0, 0
1, 0
0, 0
1, 0
0, 0
0, 0
0, 1
0, 0
0, 0
0, 0
0, 0
0, 0
0, 0
0, 0
0, 0
0, 0
0, 0
1, 0
0, 0
0, 0
0, 0
0, 0
0, 0
0, 0
0, 0
0, 0
0, 0
0, 0
0, 0
0, 0
0, 0
0, 0
0, 1
0, 0
0, 0
0, 0
0, 0
0, 0
0, 0
0, 0
0, 0
0, 0
0, 0
0, 0
0, 0
0, 0
0, 0
0, 0
0, 0
0, 0
0, 0
0, 0
0, 0
0, 0
0, 0
0, 0
0, 0
0, 0
0, 0
0, 0
0, 0
0, 0
0, 1
0, 0
0, 0
0, 0
0, 0
0, 0
0, 0
0, 0
0, 0
0, 0
0, 0
0, 0
0, 0
0, 0
0, 0
0, 0
0, 0
0, 0
0, 0
0, 0
0, 0
0, 0
0, 0
1, 0
0, 0
0, 0
1, 0
0, 0
0, 0
1, 0
0, 0
0, 0
0, 0
0, 0
0, 0
0, 0
0, 0
0, 0
0, 0
0, 0
0, 0
0, 0
0, 0
0, 0
0, 0
0, 0
0, 0
0, 0
0, 0
0, 0
0, 0
0, 0
0, 0
0, 0
0, 0
0, 0
0, 0
0, 0
0, 0
0, 0
0, 0
0, 0
0, 0
0, 0
0, 0
0, 0
0, 0
0, 0
0, 0
0, 0
0, 0
0, 0
0, 0
0, 0
0, 0
0, 0
0, 0
0, 0
0, 0
0, 0
0, 0
0, 0
0, 0
0, 0
0, 0
0, 0
0, 0
0, 0
0, 0
0, 0
0, 0
0, 0
0, 0
0, 0
0, 0
0, 0
0, 0
0, 0
0, 0
0, 0
0, 0
0, 0
0, 0
0, 0
0, 0
0, 0
0, 0
0, 0
0, 0
0, 0
0, 0
0, 0
0, 0
0, 0
0, 0
0, 0
0, 0
0, 0
0, 0
0, 0
0, 0
0, 0
0, 0
0, 0
0, 0
0, 0
0, 0
0, 0
0, 0
0, 0
0, 0
0, 0
0, 0
0, 0
0, 0
0, 0
0, 0
0, 0
0, 0
0, 0
0, 0
0, 0
0, 0
0, 0
0, 0
0, 0
0, 0
0, 0
0, 0
0, 0
0, 0
0, 0
0, 0
0, 0
0, 0
0, 0
0, 0
0, 0
0, 0
0, 0
0, 0
0, 0
0, 0
0, 0
0, 0
0, 0
0, 0
0, 0
0, 0
0, 0
0, 0
0, 0
0, 0
0, 0
0, 0
0, 0
0, 0
0, 0
0, 0
0, 0
0, 0
0, 0
0, 0
0, 0
0, 0
0, 0
0, 0
0, 0
0, 0
0, 0
0, 0
0, 0
0, 0
0, 0
0, 0
0, 0
0, 0
1, 0
0, 0
0, 0
0, 0
0, 0
0, 0
0, 0
0, 0
0, 0
0, 0
0, 0
0, 0
0, 0
0, 0
0, 0
0, 0
0, 0
0, 0
0, 0
0, 0
0, 0
0, 0
0, 0
0, 0
0, 0
0, 0
0, 0
0, 0
0, 0
0, 0
0, 0
0, 0
0, 0
0, 0
0, 0
0, 0
0, 0
0, 0
0, 0
0, 0
0, 0
0, 0
0, 0
0, 0
0, 0
0, 0
0, 0
0, 0
0, 0
0, 0
0, 0
0, 0
0, 0
0, 0
0, 0
0, 0
0, 0
0, 0
0, 0
0, 0
0, 0
0, 0
0, 0
0, 0
0, 0
0, 0
0, 0
0, 0
0, 0
0, 0
0, 0
0, 0
0, 0
0, 0
0, 0
0, 0
0, 0
0, 0
0, 0
0, 0
0, 0
0, 0
0, 0
0, 0
0, 0
0, 0
0, 0
0, 0
0, 0
0, 0
0, 0
0, 0
0, 0
0, 0
0, 0
0, 0
0, 0
0, 0
0, 0
0, 0
0, 0
0, 0
0, 0
0, 0
0, 0
0, 0
0, 0
0, 0
0, 0
0, 0
0, 0
0, 0
0, 0
0, 0
0, 0
0, 0
0, 0
0, 0
0, 0
0, 0
0, 0
0, 0
0, 0
0, 0
0, 0
0, 0
0, 0
0, 0
0, 0
0, 0
0, 0
0, 0
0, 0
0, 0
0, 0
0, 0
0, 0
0, 0
0, 0
0, 0
0, 0
0, 0
0, 0
0, 0
0, 0
0, 0
0, 0
0, 0
0, 0
0, 0
0, 0
0, 0
0, 0
0, 0
0, 0
0, 0
0, 0
0, 0
0, 0
0, 0
0, 0
0, 0
0, 0
0, 0
0, 0
0, 0
0, 0
0, 0
0, 0
0, 0
0, 0
0, 0
0, 0
0, 0
0, 0
0, 0
0, 0
0, 0
0, 0
0, 0
0, 0
0, 0
0, 0
0, 0
0, 0
0, 0
0, 0
0, 0
0, 0
0, 0
0, 0
0, 0
0, 0
0, 0
0, 0
0, 0
0, 0
0, 0
0, 0
0, 0
0, 0
0, 0
0, 0
0, 0
0, 0
0, 0
0, 0
0, 0
0, 0
0, 0
0, 0
0, 0
0, 0
#ENDOFDATA     end of spectrum data