File: host_upload/06-09-2024/ps_0852/dump3/ps__0852shot_2138.msa
#FORMAT      : EMSA/MAS spectral data file
#VERSION     : TC202v2.0 PIXL
#TITLE       : N/A
#DATE        :       Date in the format DD-MMM-YYYY, for example 07-JUL-2010
#TIME        :             The time of day at which the spectrum was recorded, in 24-hour format
#OWNER       : PIXL Flight Model       (PIXL will use this to indicate which instrument took the data.)
#NPOINTS     : 4096     Number of data points in the spectrum (This can be zero for configuration only files)
#NCOLUMNS    : 2     Number of data columns in the spectrum (This can be zero for configuration only files)
#XUNITS      : eV
#YUNITS      : COUNTS
#DATATYPE    : YY
#XPERCHAN    : 7.862, 7.881   eV per channel (separate by commas if more than one detector)
#OFFSET      : 18.5, -22.4         eV of first channel  (separate by commas if more than one detector
#SIGNALTYPE  : XRF
#YP_TEMP     : 2.235
#LIVETIME    : 8.57828, 8.57536   seconds (separate by commas if more than one detector)
#REALTIME    : 10, 10.0   seconds (separate by commas if more than one detector)
#SPECTRUM    : start of spectrum data
0, 0
0, 0
0, 0
0, 0
0, 0
0, 0
0, 0
0, 0
0, 0
0, 0
0, 0
0, 0
0, 0
0, 0
0, 0
0, 0
0, 0
0, 0
0, 0
0, 0
0, 0
0, 0
0, 0
0, 0
0, 0
0, 0
0, 0
0, 0
0, 0
0, 0
0, 0
0, 0
0, 0
0, 0
0, 0
2, 0
1, 1
2, 1
6, 0
11, 0
11, 1
7, 0
8, 1
9, 0
10, 1
9, 0
3, 2
5, 3
5, 2
11, 9
21, 21
38, 41
43, 49
80, 71
71, 91
78, 58
58, 63
32, 45
26, 20
17, 17
9, 14
4, 4
9, 1
2, 7
3, 5
6, 11
4, 11
5, 8
23, 23
56, 38
85, 90
159, 159
246, 260
337, 319
399, 361
423, 340
359, 336
288, 244
201, 187
97, 103
74, 74
52, 38
21, 24
11, 12
5, 5
7, 8
4, 4
6, 5
2, 3
3, 1
3, 2
1, 2
0, 3
1, 2
8, 5
8, 2
7, 5
10, 10
10, 12
5, 5
11, 9
8, 7
10, 8
5, 6
5, 2
10, 3
13, 8
32, 8
64, 15
108, 17
202, 21
327, 34
456, 41
638, 56
762, 52
812, 50
857, 47
641, 43
473, 35
350, 28
244, 23
194, 25
115, 21
102, 20
86, 13
74, 13
66, 14
73, 8
42, 14
29, 5
11, 8
7, 5
6, 3
4, 3
3, 2
1, 4
2, 2
5, 2
1, 0
1, 3
1, 1
2, 2
1, 3
2, 4
6, 2
2, 2
2, 1
2, 5
0, 3
5, 4
4, 10
2, 6
4, 16
5, 12
13, 14
10, 18
9, 19
20, 21
18, 22
13, 9
6, 15
6, 10
4, 8
6, 3
3, 6
5, 6
6, 12
9, 7
15, 15
14, 23
9, 27
11, 15
4, 15
9, 23
6, 10
5, 13
3, 5
5, 8
7, 7
5, 0
6, 4
2, 1
2, 6
7, 3
1, 8
5, 2
4, 3
7, 4
10, 5
7, 3
14, 4
11, 11
13, 9
21, 15
18, 12
32, 23
32, 9
29, 11
35, 20
24, 10
29, 9
23, 12
10, 8
11, 10
4, 2
10, 1
4, 7
8, 5
5, 8
7, 9
8, 6
8, 3
8, 4
5, 4
3, 4
6, 5
4, 8
2, 6
8, 7
4, 9
4, 5
5, 10
4, 12
5, 9
6, 13
7, 14
11, 17
9, 16
16, 21
10, 14
22, 15
16, 12
22, 6
17, 10
18, 11
12, 6
9, 7
15, 9
13, 6
13, 4
5, 8
16, 5
12, 10
23, 17
26, 10
34, 17
36, 27
54, 27
60, 48
58, 60
66, 61
63, 64
77, 73
43, 38
35, 39
40, 27
33, 36
19, 29
21, 35
15, 30
18, 19
25, 44
50, 60
91, 96
153, 191
305, 342
482, 531
733, 946
1087, 1279
1528, 1795
2016, 2045
2368, 2365
2389, 2358
2398, 2203
2110, 1854
1803, 1503
1307, 1086
889, 720
645, 449
380, 247
219, 146
122, 73
78, 45
37, 33
27, 23
30, 27
22, 17
21, 9
29, 21
20, 18
21, 26
33, 31
53, 44
70, 73
109, 143
138, 168
211, 226
266, 278
301, 335
353, 334
348, 331
329, 346
303, 289
287, 203
181, 183
125, 110
90, 66
59, 41
36, 20
27, 14
7, 12
8, 9
9, 8
8, 9
8, 11
9, 7
17, 11
14, 15
11, 10
15, 8
13, 9
10, 12
9, 5
11, 10
5, 2
9, 3
4, 6
3, 6
5, 3
11, 4
3, 1
4, 7
6, 4
4, 8
6, 3
2, 11
3, 6
2, 3
3, 10
2, 4
1, 13
3, 6
5, 15
7, 9
2, 7
9, 10
2, 8
6, 8
10, 12
7, 3
7, 2
1, 9
5, 9
7, 5
4, 4
9, 5
2, 3
5, 5
6, 2
3, 3
3, 2
4, 3
2, 2
9, 3
3, 6
1, 3
6, 1
7, 5
3, 5
2, 2
7, 8
1, 4
4, 3
5, 2
2, 9
8, 1
2, 4
4, 5
5, 3
3, 1
3, 3
5, 2
4, 1
4, 1
8, 3
6, 8
4, 2
7, 7
6, 5
3, 2
0, 7
7, 5
11, 4
4, 3
5, 4
4, 6
5, 6
4, 8
5, 7
7, 10
6, 4
1, 5
4, 4
2, 6
5, 3
3, 4
1, 6
3, 5
3, 2
5, 4
3, 5
2, 3
0, 2
4, 3
1, 1
5, 3
3, 3
2, 0
2, 3
1, 3
5, 4
4, 4
5, 4
6, 4
4, 4
5, 4
10, 3
6, 2
7, 2
7, 0
7, 2
3, 2
2, 1
2, 1
3, 1
6, 1
3, 5
4, 3
2, 4
3, 2
3, 1
2, 2
4, 6
5, 6
1, 5
3, 1
4, 3
3, 3
4, 5
2, 2
8, 4
3, 1
4, 3
3, 7
2, 3
6, 5
4, 5
5, 5
3, 6
4, 1
6, 4
5, 4
5, 2
2, 1
2, 2
4, 3
2, 0
4, 3
1, 2
1, 2
2, 3
3, 2
4, 2
1, 3
3, 3
4, 0
2, 1
1, 6
6, 5
3, 4
1, 5
2, 0
2, 0
1, 0
2, 1
4, 5
1, 2
3, 4
3, 2
5, 1
6, 2
2, 2
1, 0
2, 4
3, 1
3, 1
1, 2
4, 3
1, 2
2, 0
1, 1
4, 1
4, 1
3, 1
3, 2
5, 1
6, 0
5, 2
2, 4
1, 2
5, 3
2, 2
3, 0
3, 1
3, 1
4, 2
4, 2
4, 1
4, 1
2, 3
3, 1
0, 2
1, 1
3, 0
5, 0
1, 1
2, 2
1, 2
1, 1
3, 0
2, 1
2, 3
1, 0
2, 1
1, 1
1, 3
1, 1
2, 4
2, 3
5, 6
2, 2
2, 5
5, 3
4, 3
2, 5
5, 2
4, 3
4, 3
1, 3
4, 6
0, 1
1, 0
1, 2
6, 1
3, 2
2, 2
3, 0
0, 6
1, 0
2, 1
2, 1
4, 1
1, 0
2, 2
0, 1
1, 3
1, 2
4, 2
1, 4
2, 0
4, 1
1, 1
3, 3
2, 0
2, 3
5, 1
2, 0
2, 2
2, 0
5, 0
3, 0
1, 0
3, 2
4, 1
0, 0
0, 0
0, 0
1, 1
4, 2
1, 3
0, 1
2, 1
1, 1
0, 0
0, 2
0, 0
2, 1
0, 2
0, 1
0, 0
0, 0
0, 1
0, 0
1, 1
0, 0
1, 0
0, 0
1, 0
3, 0
0, 2
0, 1
0, 0
0, 0
0, 0
1, 0
2, 1
0, 2
0, 0
0, 0
1, 1
0, 1
0, 1
0, 1
1, 0
1, 0
1, 0
1, 0
1, 1
0, 2
1, 0
1, 1
0, 1
1, 1
1, 2
0, 1
2, 0
0, 2
1, 2
0, 0
0, 1
0, 0
0, 0
0, 0
0, 0
1, 2
0, 0
0, 2
0, 0
1, 0
0, 0
0, 0
0, 0
1, 0
1, 1
0, 1
0, 0
0, 1
2, 0
1, 0
0, 0
1, 1
0, 2
1, 1
1, 1
0, 0
0, 3
0, 2
0, 3
0, 1
0, 1
0, 2
2, 1
0, 1
0, 0
0, 1
1, 0
0, 0
0, 0
0, 1
1, 0
1, 1
0, 1
0, 0
1, 0
1, 1
0, 1
1, 1
0, 0
1, 1
1, 0
0, 0
0, 0
0, 0
0, 1
1, 1
1, 0
0, 2
0, 1
0, 1
0, 0
0, 1
1, 1
0, 1
0, 1
1, 0
1, 0
0, 0
0, 0
0, 0
2, 0
0, 0
1, 1
0, 0
0, 0
0, 0
0, 0
1, 0
0, 0
0, 0
1, 0
1, 1
1, 0
1, 0
0, 1
0, 0
1, 0
0, 0
1, 1
0, 0
0, 0
0, 0
1, 0
1, 1
1, 0
1, 1
0, 0
0, 0
0, 0
0, 0
1, 1
1, 1
0, 0
0, 0
1, 1
0, 0
0, 1
0, 0
0, 0
0, 0
0, 0
0, 1
0, 0
0, 2
0, 0
0, 0
0, 0
0, 0
0, 0
0, 1
0, 0
0, 3
0, 0
0, 0
0, 1
0, 0
1, 2
0, 0
0, 0
0, 0
0, 0
0, 0
0, 0
1, 0
0, 0
1, 2
0, 0
1, 1
0, 1
0, 0
0, 0
0, 0
0, 0
0, 0
0, 0
0, 0
2, 0
0, 0
0, 0
0, 1
0, 0
0, 0
0, 0
0, 1
0, 0
1, 0
0, 1
0, 0
0, 0
1, 1
0, 0
0, 2
0, 1
1, 0
2, 0
0, 0
0, 0
0, 0
0, 0
1, 0
0, 0
0, 0
0, 1
0, 0
0, 0
1, 0
0, 0
0, 1
0, 0
0, 0
1, 0
2, 0
1, 0
0, 0
0, 0
1, 0
1, 0
0, 0
0, 0
0, 0
0, 0
0, 0
0, 0
0, 0
0, 0
0, 0
0, 0
0, 0
0, 0
0, 0
0, 0
0, 0
0, 2
0, 0
0, 0
0, 0
0, 0
0, 0
0, 0
1, 0
1, 0
0, 0
0, 0
0, 1
0, 0
0, 0
0, 0
0, 0
0, 0
0, 0
0, 0
0, 0
0, 0
0, 0
0, 1
0, 0
0, 0
0, 0
0, 0
0, 0
0, 0
0, 0
0, 0
0, 0
0, 0
0, 0
0, 0
0, 0
0, 0
0, 0
0, 0
0, 0
0, 0
0, 0
0, 0
0, 0
0, 1
0, 0
0, 0
0, 0
0, 0
0, 0
0, 0
0, 0
0, 0
1, 0
0, 0
0, 0
0, 0
0, 0
0, 0
0, 0
0, 0
0, 0
0, 0
0, 0
0, 0
0, 0
0, 0
0, 0
0, 0
0, 0
0, 0
0, 0
0, 0
0, 0
0, 0
0, 0
0, 0
0, 0
0, 0
0, 0
0, 0
0, 0
0, 0
0, 0
0, 0
0, 0
0, 0
0, 0
0, 0
0, 0
1, 0
0, 0
0, 0
0, 0
0, 0
0, 0
0, 0
0, 0
0, 0
0, 0
0, 0
0, 0
0, 0
0, 0
0, 0
0, 0
0, 0
0, 0
0, 0
0, 0
0, 0
0, 0
0, 0
0, 0
0, 0
0, 0
0, 0
0, 0
0, 0
0, 0
0, 0
0, 1
0, 0
0, 0
0, 0
0, 0
0, 0
0, 0
0, 0
0, 0
0, 0
0, 0
0, 0
0, 0
0, 0
0, 0
0, 0
0, 0
0, 0
0, 0
1, 0
0, 0
0, 0
0, 0
0, 0
0, 0
0, 0
1, 0
0, 0
0, 0
0, 0
0, 0
0, 0
0, 0
0, 0
0, 0
0, 0
0, 0
0, 0
0, 0
0, 0
0, 0
0, 0
0, 0
0, 0
0, 0
1, 0
0, 0
1, 0
0, 0
0, 0
0, 0
0, 0
0, 0
0, 0
0, 0
0, 0
0, 0
0, 0
0, 0
0, 0
0, 0
0, 0
0, 0
0, 0
0, 0
0, 0
0, 0
0, 0
0, 0
0, 0
0, 0
0, 0
0, 0
0, 0
0, 0
0, 0
0, 0
0, 0
0, 0
0, 0
0, 0
0, 0
0, 0
0, 0
0, 0
0, 0
0, 0
0, 0
0, 0
0, 0
0, 0
0, 0
0, 0
0, 0
0, 0
0, 0
0, 0
0, 0
0, 0
0, 0
0, 0
0, 0
0, 0
0, 0
0, 0
0, 0
0, 0
0, 0
0, 0
0, 0
0, 0
0, 0
0, 0
0, 0
0, 0
0, 0
0, 0
0, 0
0, 0
0, 0
0, 0
0, 0
0, 0
0, 0
0, 0
0, 0
0, 0
0, 0
0, 0
0, 0
0, 0
0, 0
0, 0
0, 0
0, 0
0, 0
0, 0
0, 0
0, 0
0, 0
0, 0
0, 0
0, 0
0, 0
0, 0
0, 0
0, 0
0, 0
0, 0
0, 0
0, 0
0, 0
0, 0
0, 0
0, 0
0, 0
0, 0
0, 0
0, 0
0, 0
0, 0
0, 0
0, 0
0, 0
0, 0
0, 0
0, 0
0, 0
0, 0
0, 0
0, 0
0, 0
0, 0
0, 0
0, 0
0, 0
0, 0
0, 0
0, 0
0, 0
0, 0
0, 0
0, 0
0, 0
0, 0
0, 0
0, 0
0, 0
0, 0
0, 0
0, 0
0, 0
0, 0
0, 0
0, 0
0, 0
0, 0
0, 0
0, 0
0, 0
0, 0
0, 0
0, 0
0, 0
0, 0
0, 0
0, 0
0, 0
0, 0
0, 0
0, 0
0, 0
0, 0
0, 0
0, 0
0, 0
0, 0
0, 0
0, 0
0, 0
0, 0
0, 0
0, 0
0, 0
0, 0
0, 0
0, 0
0, 0
0, 0
0, 0
0, 0
0, 0
0, 0
0, 0
0, 0
0, 0
0, 0
0, 0
0, 0
0, 0
0, 0
0, 0
0, 0
0, 0
0, 0
0, 0
0, 0
0, 0
0, 0
0, 0
0, 0
0, 0
0, 0
0, 0
0, 0
0, 0
0, 0
0, 0
0, 0
0, 0
0, 0
0, 0
0, 0
0, 0
0, 0
0, 0
0, 0
0, 0
0, 0
0, 0
0, 0
0, 0
0, 0
0, 0
0, 0
0, 0
0, 0
0, 0
0, 0
0, 0
0, 0
0, 0
0, 0
0, 0
0, 0
0, 0
0, 0
0, 0
0, 0
0, 0
0, 0
0, 0
0, 0
0, 0
0, 0
0, 0
0, 0
0, 0
0, 0
0, 0
0, 0
0, 0
0, 0
0, 0
0, 0
0, 0
0, 0
0, 0
0, 0
0, 0
0, 0
0, 0
0, 0
0, 0
0, 0
0, 0
0, 0
0, 0
0, 0
0, 0
0, 0
0, 0
0, 0
0, 0
0, 0
0, 0
0, 0
0, 0
0, 0
0, 0
0, 0
0, 0
0, 0
0, 0
0, 0
0, 0
0, 0
0, 0
0, 0
0, 0
0, 0
0, 0
0, 0
0, 0
0, 0
0, 0
0, 0
0, 0
0, 0
0, 0
0, 0
0, 0
0, 0
0, 0
0, 0
0, 0
0, 0
0, 0
0, 0
0, 0
0, 0
0, 0
0, 0
0, 0
0, 0
0, 0
0, 0
0, 0
0, 0
0, 0
0, 0
0, 0
0, 0
0, 0
0, 0
0, 0
0, 0
0, 0
0, 0
0, 0
0, 0
0, 0
0, 0
0, 0
0, 0
0, 0
0, 0
0, 0
0, 0
0, 0
0, 0
0, 0
0, 0
0, 0
0, 0
0, 0
0, 0
0, 0
0, 0
0, 0
0, 0
0, 0
0, 0
0, 0
#ENDOFDATA     end of spectrum data