File: host_upload/06-09-2024/ps_0852/dump3/ps__0852shot_2518.msa
#FORMAT      : EMSA/MAS spectral data file
#VERSION     : TC202v2.0 PIXL
#TITLE       : N/A
#DATE        :       Date in the format DD-MMM-YYYY, for example 07-JUL-2010
#TIME        :             The time of day at which the spectrum was recorded, in 24-hour format
#OWNER       : PIXL Flight Model       (PIXL will use this to indicate which instrument took the data.)
#NPOINTS     : 4096     Number of data points in the spectrum (This can be zero for configuration only files)
#NCOLUMNS    : 2     Number of data columns in the spectrum (This can be zero for configuration only files)
#XUNITS      : eV
#YUNITS      : COUNTS
#DATATYPE    : YY
#XPERCHAN    : 7.862, 7.881   eV per channel (separate by commas if more than one detector)
#OFFSET      : 18.5, -22.4         eV of first channel  (separate by commas if more than one detector
#SIGNALTYPE  : XRF
#YP_TEMP     : 2.171
#LIVETIME    : 8.56201, 8.5514   seconds (separate by commas if more than one detector)
#REALTIME    : 10, 10.0   seconds (separate by commas if more than one detector)
#SPECTRUM    : start of spectrum data
0, 0
0, 0
0, 0
0, 0
0, 0
0, 0
0, 0
0, 0
0, 0
0, 0
0, 0
0, 0
0, 0
0, 0
0, 0
0, 0
0, 0
0, 0
0, 0
0, 0
0, 0
0, 0
0, 0
0, 0
0, 0
0, 0
0, 0
0, 0
0, 0
0, 0
0, 0
0, 1
0, 0
2, 0
0, 0
2, 1
0, 2
2, 1
0, 3
3, 0
2, 0
1, 5
0, 3
1, 2
0, 2
3, 1
2, 2
3, 3
11, 1
9, 12
22, 26
38, 37
53, 51
66, 65
81, 72
49, 52
69, 48
44, 46
30, 15
13, 14
8, 6
5, 4
4, 3
5, 0
3, 4
7, 2
1, 3
5, 11
15, 12
41, 39
87, 70
138, 137
248, 246
313, 283
365, 342
352, 335
311, 300
249, 232
171, 174
107, 79
49, 60
22, 25
15, 10
15, 5
6, 8
3, 5
5, 4
7, 4
4, 2
8, 4
5, 6
8, 12
26, 24
35, 55
83, 97
148, 167
192, 223
280, 304
297, 371
319, 363
305, 362
241, 208
168, 160
123, 125
70, 77
47, 48
35, 36
26, 51
34, 40
27, 49
57, 46
46, 46
52, 62
71, 76
75, 66
62, 60
59, 46
53, 35
40, 36
32, 42
28, 38
19, 17
20, 23
19, 15
9, 16
9, 17
12, 12
11, 12
9, 14
6, 5
6, 2
0, 6
2, 6
3, 4
4, 5
8, 4
0, 11
3, 6
6, 2
3, 2
5, 3
11, 5
4, 2
6, 5
6, 7
4, 4
6, 1
4, 3
4, 1
2, 5
7, 6
8, 9
8, 7
16, 38
22, 35
38, 49
42, 45
54, 56
45, 55
40, 64
29, 47
19, 41
15, 13
5, 19
2, 7
5, 7
10, 3
7, 10
9, 9
6, 8
12, 12
14, 8
12, 13
30, 12
39, 6
34, 11
64, 6
68, 3
85, 7
66, 2
59, 9
47, 2
33, 4
32, 4
14, 6
13, 3
12, 10
9, 8
10, 6
6, 6
5, 19
9, 12
10, 9
11, 12
10, 19
10, 19
12, 15
19, 23
21, 16
11, 8
6, 14
6, 8
10, 10
9, 10
7, 8
5, 5
6, 11
7, 6
7, 8
5, 12
6, 13
5, 7
3, 9
5, 9
4, 3
7, 8
5, 4
3, 6
1, 4
6, 12
5, 11
7, 6
8, 7
6, 8
6, 15
14, 12
14, 10
13, 23
19, 15
15, 28
21, 26
21, 34
18, 34
17, 34
13, 29
15, 30
21, 27
9, 22
11, 36
7, 26
10, 38
5, 29
7, 45
9, 35
11, 39
21, 36
15, 38
44, 45
49, 57
53, 59
52, 71
51, 62
52, 49
58, 44
43, 46
38, 30
31, 22
24, 20
13, 14
19, 19
20, 24
31, 28
51, 53
79, 97
148, 177
249, 315
452, 592
760, 864
1138, 1230
1441, 1734
1909, 1975
2242, 2170
2351, 2374
2327, 2136
2036, 1912
1687, 1462
1259, 1009
850, 728
515, 424
339, 222
187, 112
106, 66
50, 46
32, 25
22, 22
25, 12
16, 15
12, 16
21, 20
17, 18
21, 41
27, 40
56, 43
61, 74
97, 119
144, 182
210, 224
239, 273
296, 311
336, 318
304, 336
329, 319
288, 255
220, 207
187, 153
133, 106
63, 46
53, 34
29, 19
19, 9
13, 8
7, 6
7, 12
10, 6
14, 13
11, 4
15, 11
23, 8
18, 14
12, 13
12, 11
12, 6
17, 13
26, 12
12, 7
13, 10
12, 11
5, 13
5, 7
3, 9
7, 8
1, 14
3, 4
7, 6
4, 8
5, 11
4, 2
1, 3
2, 5
10, 5
5, 2
6, 4
5, 8
8, 4
3, 4
5, 8
11, 6
4, 15
4, 3
6, 8
10, 5
7, 8
10, 7
8, 7
13, 4
8, 4
8, 3
13, 3
8, 2
9, 1
8, 6
10, 2
1, 6
5, 6
5, 1
9, 3
6, 1
8, 0
6, 7
4, 4
6, 5
3, 3
7, 6
5, 2
6, 9
5, 5
3, 1
3, 6
4, 3
7, 5
1, 5
4, 3
7, 4
3, 11
6, 9
3, 16
6, 14
2, 11
3, 14
3, 17
1, 12
4, 10
4, 15
3, 13
6, 11
6, 5
3, 5
3, 5
6, 2
4, 2
4, 5
7, 0
3, 5
7, 0
6, 2
9, 1
7, 7
8, 3
2, 3
4, 3
0, 3
2, 5
2, 5
2, 2
5, 7
3, 3
1, 7
3, 3
1, 7
4, 10
2, 7
3, 8
5, 13
2, 13
3, 7
6, 9
1, 15
10, 17
2, 11
2, 9
2, 12
3, 8
4, 7
4, 8
1, 4
2, 6
2, 9
7, 7
7, 3
4, 1
3, 2
5, 4
6, 5
9, 5
6, 2
7, 4
9, 4
6, 2
5, 1
9, 2
9, 3
4, 3
6, 4
5, 1
3, 2
5, 0
4, 1
4, 0
5, 2
2, 3
2, 0
2, 1
2, 4
3, 5
3, 4
1, 2
3, 2
5, 1
0, 2
3, 3
3, 1
4, 2
0, 8
2, 3
3, 4
3, 4
3, 1
1, 3
3, 2
0, 1
1, 3
4, 3
4, 5
1, 3
4, 3
3, 1
1, 1
3, 3
0, 3
3, 3
2, 2
1, 3
3, 2
2, 4
2, 5
2, 1
2, 4
1, 0
1, 3
3, 3
1, 0
3, 2
1, 0
1, 0
0, 2
2, 1
0, 0
1, 2
3, 1
3, 1
1, 0
5, 0
2, 4
3, 2
4, 1
1, 5
3, 2
1, 1
2, 2
2, 0
3, 2
2, 0
0, 0
1, 2
1, 2
4, 2
1, 2
1, 1
1, 4
4, 1
2, 1
1, 0
2, 4
5, 4
2, 5
4, 3
2, 4
3, 4
8, 4
3, 2
4, 5
7, 4
2, 4
10, 9
4, 5
6, 7
4, 1
3, 1
2, 0
1, 1
2, 1
1, 1
2, 1
3, 0
1, 2
3, 3
3, 0
3, 1
0, 2
0, 0
1, 2
1, 0
2, 2
1, 1
1, 1
1, 2
0, 3
0, 2
2, 3
0, 3
0, 0
1, 2
1, 1
1, 2
1, 3
1, 1
2, 1
1, 3
3, 1
2, 1
0, 1
0, 1
2, 1
3, 1
1, 0
2, 1
1, 1
1, 2
0, 0
2, 3
0, 3
1, 6
0, 3
0, 2
2, 1
0, 1
0, 2
1, 2
0, 0
1, 2
3, 2
0, 2
1, 0
0, 3
2, 0
2, 1
0, 2
0, 0
2, 1
0, 1
1, 1
1, 0
0, 1
0, 2
2, 0
2, 1
1, 2
1, 1
1, 1
1, 1
0, 0
0, 0
1, 1
1, 0
3, 0
2, 1
2, 2
2, 1
1, 0
1, 0
0, 0
3, 0
2, 0
0, 0
1, 1
1, 2
2, 0
0, 2
0, 0
0, 2
2, 0
2, 1
2, 1
1, 3
0, 0
2, 1
0, 0
1, 0
1, 2
2, 0
0, 1
1, 1
0, 2
0, 0
0, 0
2, 0
0, 2
1, 0
1, 1
0, 2
0, 1
0, 0
0, 1
0, 0
0, 0
0, 1
0, 0
1, 0
0, 0
0, 0
1, 0
0, 0
0, 0
0, 1
0, 1
1, 0
0, 0
1, 4
1, 0
0, 0
0, 0
0, 2
1, 0
1, 0
1, 0
2, 1
1, 0
1, 0
0, 0
0, 0
1, 0
0, 0
0, 0
0, 3
0, 0
2, 1
0, 0
1, 2
0, 0
0, 1
0, 0
0, 0
0, 1
1, 0
0, 0
0, 0
0, 0
0, 0
1, 0
0, 0
0, 0
0, 1
0, 0
3, 0
1, 0
0, 0
0, 0
3, 1
0, 1
0, 0
0, 0
0, 0
1, 0
0, 0
0, 0
2, 0
0, 0
1, 0
0, 1
0, 1
0, 0
0, 0
0, 0
0, 0
1, 0
0, 0
0, 1
0, 0
1, 0
0, 0
0, 1
0, 0
0, 0
2, 3
0, 0
0, 0
0, 0
0, 0
0, 0
0, 1
2, 0
0, 0
0, 0
0, 0
0, 0
0, 0
0, 0
0, 0
0, 0
0, 1
0, 0
0, 0
0, 1
0, 0
0, 1
0, 0
0, 2
1, 0
0, 0
0, 0
0, 1
0, 0
1, 0
0, 1
0, 1
0, 0
0, 0
1, 0
0, 0
0, 0
0, 0
0, 2
0, 0
0, 0
0, 0
0, 0
0, 2
1, 0
0, 0
0, 0
0, 1
1, 2
0, 0
0, 1
0, 1
0, 0
0, 0
2, 1
2, 0
0, 0
0, 0
1, 0
0, 0
0, 0
0, 0
0, 0
1, 0
0, 1
1, 0
1, 0
1, 2
0, 0
1, 0
0, 0
0, 0
2, 0
0, 0
1, 0
0, 0
0, 0
1, 0
0, 0
0, 0
0, 0
0, 0
0, 0
0, 2
0, 0
0, 0
0, 0
0, 0
0, 0
0, 0
0, 0
0, 0
0, 1
1, 0
0, 0
0, 0
0, 0
0, 0
0, 0
1, 0
0, 0
0, 0
0, 0
0, 0
0, 0
0, 0
1, 0
0, 0
0, 0
0, 0
0, 0
0, 2
0, 1
0, 0
2, 0
0, 0
0, 0
1, 1
0, 0
0, 0
0, 0
0, 0
0, 0
0, 0
0, 0
0, 0
0, 1
0, 1
0, 0
0, 0
0, 0
0, 0
0, 0
0, 0
0, 0
0, 0
0, 0
0, 0
0, 0
0, 0
0, 0
0, 0
1, 0
0, 0
0, 0
0, 0
0, 0
0, 0
0, 0
0, 0
0, 0
0, 0
0, 0
0, 0
0, 0
0, 0
0, 0
0, 0
0, 0
0, 0
0, 0
0, 0
0, 0
0, 0
0, 0
0, 0
0, 0
0, 0
0, 0
0, 0
0, 0
0, 0
0, 0
0, 0
0, 0
0, 0
0, 0
0, 0
0, 0
0, 0
0, 0
0, 0
0, 0
0, 0
0, 0
0, 0
0, 0
0, 0
0, 0
0, 0
0, 0
0, 0
0, 0
0, 0
0, 0
0, 0
0, 0
0, 0
1, 0
0, 0
0, 0
0, 0
0, 0
0, 0
0, 0
0, 0
0, 0
0, 0
0, 0
0, 0
0, 0
0, 0
0, 0
0, 0
0, 0
0, 0
0, 0
0, 0
0, 0
0, 0
0, 0
0, 0
0, 0
0, 0
0, 0
0, 0
0, 0
0, 0
0, 0
0, 0
0, 0
0, 0
1, 0
0, 0
0, 0
0, 0
0, 0
0, 0
0, 0
0, 0
0, 0
0, 0
1, 0
0, 0
0, 0
0, 0
0, 0
0, 0
0, 0
0, 0
0, 0
0, 0
0, 0
0, 0
0, 0
0, 0
0, 0
0, 0
0, 1
0, 0
0, 0
0, 0
0, 0
0, 0
0, 0
0, 0
0, 0
0, 0
0, 0
0, 0
0, 0
0, 0
0, 0
0, 0
0, 0
0, 0
0, 0
0, 0
0, 0
0, 0
0, 0
0, 0
0, 0
0, 0
0, 0
0, 0
0, 0
0, 0
0, 0
0, 0
0, 0
0, 0
0, 0
0, 0
0, 0
0, 0
0, 0
0, 0
0, 0
0, 0
0, 0
0, 0
0, 0
0, 0
0, 0
0, 0
0, 0
0, 0
0, 0
0, 0
0, 0
0, 0
0, 0
0, 0
0, 0
0, 0
0, 0
0, 0
0, 0
0, 0
0, 0
0, 0
0, 0
0, 0
0, 0
0, 0
0, 0
0, 0
0, 0
0, 0
0, 0
0, 0
0, 0
0, 0
0, 0
0, 0
0, 0
0, 0
0, 0
0, 0
0, 0
0, 0
0, 0
0, 0
0, 0
0, 0
0, 0
0, 0
0, 0
0, 0
0, 0
0, 0
0, 0
0, 0
0, 0
0, 0
0, 0
0, 0
0, 0
0, 0
0, 0
0, 0
0, 0
0, 0
0, 0
0, 0
0, 0
0, 0
0, 0
0, 0
0, 0
0, 0
0, 0
0, 0
0, 0
0, 0
0, 0
0, 0
0, 0
0, 0
0, 0
0, 0
0, 0
0, 0
0, 0
0, 0
0, 0
0, 0
0, 0
0, 0
0, 0
0, 0
0, 0
0, 0
0, 0
0, 0
0, 0
0, 0
0, 0
0, 0
0, 0
0, 0
0, 0
0, 0
0, 0
0, 0
0, 0
0, 0
0, 0
0, 0
0, 0
0, 0
0, 0
0, 0
0, 0
0, 0
0, 0
0, 0
0, 0
0, 0
0, 0
0, 0
0, 0
0, 0
0, 0
0, 0
0, 0
0, 0
0, 0
0, 0
0, 0
0, 0
0, 0
0, 0
0, 0
0, 0
0, 0
0, 0
0, 0
0, 0
0, 0
0, 0
0, 0
0, 0
0, 0
0, 0
0, 0
0, 0
0, 0
0, 0
0, 0
0, 0
0, 0
0, 0
0, 0
0, 0
0, 0
0, 0
0, 0
0, 0
0, 0
0, 0
0, 0
0, 0
0, 0
0, 0
0, 0
0, 0
0, 0
0, 0
0, 0
0, 0
0, 0
0, 0
0, 0
0, 0
0, 0
0, 0
0, 0
0, 0
0, 0
0, 0
0, 0
0, 0
0, 0
0, 0
0, 0
0, 0
0, 0
0, 0
0, 0
0, 0
0, 0
0, 0
0, 0
0, 0
0, 0
0, 0
0, 0
0, 0
0, 0
0, 0
0, 0
0, 0
0, 0
0, 0
0, 0
0, 0
0, 0
0, 0
0, 0
0, 0
0, 0
0, 0
0, 0
0, 0
0, 0
0, 0
0, 0
0, 0
0, 0
0, 0
0, 0
0, 0
0, 0
0, 0
0, 0
0, 0
0, 0
0, 0
0, 0
0, 0
0, 0
0, 0
0, 0
0, 0
0, 0
0, 0
0, 0
0, 0
0, 0
0, 0
0, 0
0, 0
0, 0
0, 0
0, 0
0, 0
0, 0
0, 0
0, 0
0, 0
0, 0
0, 0
0, 0
0, 0
0, 0
0, 0
0, 0
0, 0
0, 0
0, 0
0, 0
0, 0
0, 0
0, 0
0, 0
0, 0
0, 0
0, 0
0, 0
0, 0
0, 0
0, 0
0, 0
0, 0
0, 0
0, 0
0, 0
0, 0
0, 0
0, 0
0, 0
0, 0
0, 0
0, 0
0, 0
0, 0
0, 0
0, 0
0, 0
0, 0
0, 0
0, 0
0, 0
0, 0
0, 0
0, 0
0, 0
0, 0
0, 0
0, 0
0, 0
0, 0
0, 0
0, 0
0, 0
0, 0
0, 0
0, 0
0, 0
0, 0
0, 0
0, 0
0, 0
0, 0
0, 0
0, 0
0, 0
0, 0
0, 0
0, 0
0, 0
#ENDOFDATA     end of spectrum data