File: host_upload/06-09-2024/ps_0852/dump3/ps__0852shot_2454.msa
#FORMAT      : EMSA/MAS spectral data file
#VERSION     : TC202v2.0 PIXL
#TITLE       : N/A
#DATE        :       Date in the format DD-MMM-YYYY, for example 07-JUL-2010
#TIME        :             The time of day at which the spectrum was recorded, in 24-hour format
#OWNER       : PIXL Flight Model       (PIXL will use this to indicate which instrument took the data.)
#NPOINTS     : 4096     Number of data points in the spectrum (This can be zero for configuration only files)
#NCOLUMNS    : 2     Number of data columns in the spectrum (This can be zero for configuration only files)
#XUNITS      : eV
#YUNITS      : COUNTS
#DATATYPE    : YY
#XPERCHAN    : 7.862, 7.881   eV per channel (separate by commas if more than one detector)
#OFFSET      : 18.5, -22.4         eV of first channel  (separate by commas if more than one detector
#SIGNALTYPE  : XRF
#YP_TEMP     : 2.492
#LIVETIME    : 8.57046, 8.57318   seconds (separate by commas if more than one detector)
#REALTIME    : 10, 10.0   seconds (separate by commas if more than one detector)
#SPECTRUM    : start of spectrum data
0, 0
0, 0
0, 0
0, 0
0, 0
0, 0
0, 0
0, 0
0, 0
0, 0
0, 0
0, 0
0, 0
0, 0
0, 0
0, 0
0, 0
0, 0
0, 0
0, 0
0, 0
0, 0
0, 0
0, 0
0, 0
0, 0
0, 0
0, 0
0, 0
0, 0
0, 0
0, 0
0, 0
1, 0
0, 0
0, 0
1, 1
0, 0
0, 1
1, 1
1, 2
3, 4
1, 1
2, 2
0, 2
3, 2
4, 1
3, 8
5, 5
12, 12
19, 18
31, 26
62, 53
70, 73
74, 56
68, 55
46, 56
24, 36
23, 22
8, 10
5, 10
4, 7
7, 3
4, 6
4, 7
5, 3
7, 7
9, 9
13, 24
36, 41
94, 94
163, 174
257, 272
327, 352
415, 423
382, 388
329, 320
283, 263
171, 177
105, 116
54, 65
40, 39
17, 17
8, 19
2, 4
2, 2
2, 5
2, 6
1, 1
1, 2
1, 2
2, 3
1, 3
7, 3
7, 8
17, 12
12, 14
21, 12
38, 31
35, 30
29, 20
21, 17
17, 14
16, 10
8, 5
4, 5
13, 3
12, 14
10, 6
21, 32
33, 31
36, 50
36, 46
57, 71
65, 57
73, 37
59, 37
57, 28
37, 38
20, 31
34, 16
24, 34
21, 17
24, 21
12, 14
25, 13
12, 17
4, 13
8, 11
3, 5
9, 2
3, 4
5, 3
5, 3
1, 1
4, 4
3, 3
4, 2
5, 3
3, 4
4, 3
0, 7
6, 4
4, 3
5, 4
4, 4
2, 3
0, 3
0, 6
2, 2
7, 3
4, 5
10, 19
24, 14
19, 26
37, 25
35, 32
48, 25
41, 50
40, 29
26, 25
22, 26
14, 14
11, 10
7, 8
5, 9
10, 5
13, 7
15, 12
16, 6
18, 3
16, 7
15, 6
7, 10
5, 4
7, 7
4, 6
1, 4
2, 5
5, 7
6, 4
2, 4
4, 3
2, 5
4, 6
4, 7
8, 7
9, 4
11, 6
16, 7
14, 6
14, 12
16, 14
12, 10
16, 10
20, 22
14, 16
15, 12
18, 19
20, 17
12, 15
11, 18
9, 21
3, 14
9, 11
6, 11
9, 10
3, 8
9, 6
5, 7
5, 6
7, 7
3, 5
5, 7
6, 5
3, 5
10, 4
4, 4
6, 6
9, 5
7, 8
9, 9
2, 11
8, 7
9, 7
7, 11
13, 12
9, 17
9, 25
14, 23
11, 29
16, 20
19, 18
12, 13
19, 20
14, 9
8, 9
13, 11
14, 14
18, 8
12, 11
14, 12
26, 9
23, 13
31, 22
24, 26
33, 32
43, 32
57, 47
48, 56
64, 61
64, 67
47, 48
42, 45
30, 51
45, 30
24, 29
23, 21
18, 30
19, 30
17, 38
21, 54
31, 94
76, 133
117, 227
227, 382
459, 633
739, 971
1019, 1430
1496, 1808
1872, 2110
2188, 2394
2210, 2409
2193, 2175
1971, 1924
1611, 1460
1245, 1047
803, 720
515, 444
321, 239
179, 136
106, 82
37, 56
31, 31
23, 27
16, 22
14, 25
11, 20
12, 32
11, 26
18, 22
41, 30
33, 59
68, 85
108, 129
128, 173
194, 224
223, 285
298, 325
372, 355
347, 319
326, 321
266, 277
239, 203
184, 165
131, 102
77, 57
57, 44
35, 22
20, 14
7, 16
4, 20
5, 24
8, 28
10, 49
10, 47
9, 47
15, 43
7, 52
11, 46
7, 39
7, 19
2, 29
3, 12
6, 8
6, 12
3, 6
2, 10
2, 6
3, 4
2, 2
3, 4
3, 2
3, 7
5, 3
4, 4
3, 7
5, 3
8, 5
7, 3
5, 7
14, 3
14, 4
12, 6
16, 4
21, 4
12, 2
25, 8
14, 3
6, 6
16, 2
15, 7
7, 7
7, 5
3, 4
9, 3
1, 3
7, 7
3, 8
4, 6
2, 10
4, 5
1, 8
2, 10
2, 10
1, 5
7, 6
3, 9
2, 7
7, 12
3, 6
3, 5
5, 6
4, 6
4, 0
5, 5
2, 2
5, 2
6, 2
1, 5
4, 2
4, 3
2, 7
2, 3
2, 5
6, 2
4, 9
6, 0
6, 5
11, 7
5, 0
14, 6
7, 7
5, 8
14, 4
5, 7
5, 2
6, 2
2, 2
8, 5
3, 5
3, 6
2, 3
2, 5
3, 4
4, 5
4, 5
7, 5
4, 2
3, 6
0, 2
0, 5
1, 5
2, 2
1, 3
4, 1
2, 5
2, 4
6, 4
3, 6
5, 3
1, 4
2, 5
5, 2
3, 9
9, 11
3, 11
8, 5
9, 5
6, 2
7, 8
6, 6
10, 6
5, 7
5, 2
7, 1
8, 1
6, 2
6, 4
3, 4
1, 4
1, 2
7, 4
6, 1
1, 2
4, 5
1, 5
3, 5
3, 2
4, 3
2, 4
5, 8
2, 1
4, 5
3, 5
3, 2
3, 7
3, 1
2, 2
5, 1
3, 2
3, 6
1, 1
4, 0
1, 4
2, 4
4, 3
2, 1
3, 5
4, 3
1, 5
5, 4
2, 6
4, 4
0, 2
1, 0
2, 6
2, 2
1, 2
1, 0
2, 1
2, 3
2, 0
4, 1
0, 6
1, 2
2, 2
1, 4
4, 3
2, 2
1, 0
1, 3
0, 2
1, 1
1, 3
5, 1
4, 1
2, 0
2, 4
2, 2
2, 1
1, 6
1, 4
3, 5
3, 1
2, 5
3, 2
3, 1
2, 0
0, 1
0, 5
2, 2
2, 1
4, 1
4, 3
1, 2
1, 1
0, 4
1, 2
2, 2
8, 1
2, 1
2, 2
1, 2
2, 2
2, 1
2, 2
0, 4
3, 1
4, 3
3, 3
1, 1
3, 1
3, 2
5, 2
2, 2
2, 1
5, 3
2, 8
5, 3
0, 5
3, 1
8, 5
4, 1
4, 4
5, 1
5, 2
3, 0
2, 1
3, 2
1, 2
2, 1
1, 0
3, 0
0, 5
1, 1
2, 2
0, 0
0, 0
3, 4
1, 0
0, 1
1, 0
3, 3
1, 3
0, 3
2, 0
1, 1
0, 2
4, 1
1, 1
1, 4
1, 2
3, 4
2, 0
2, 0
2, 1
1, 1
1, 3
0, 2
5, 1
2, 2
0, 3
1, 0
2, 0
3, 2
2, 2
4, 1
1, 2
1, 2
1, 1
1, 1
1, 3
2, 0
0, 1
1, 1
0, 2
0, 0
0, 1
1, 1
1, 1
1, 0
0, 1
2, 0
0, 1
0, 1
0, 2
0, 1
0, 0
1, 0
1, 1
0, 1
0, 0
0, 1
1, 1
0, 1
1, 1
1, 3
0, 0
1, 0
2, 1
0, 0
1, 1
1, 1
3, 0
1, 0
0, 0
0, 1
2, 0
1, 0
0, 2
1, 1
1, 1
0, 0
3, 0
2, 1
0, 0
1, 1
2, 0
0, 1
2, 0
0, 0
0, 1
1, 1
1, 0
0, 0
1, 0
1, 1
2, 0
0, 1
0, 0
0, 1
2, 0
1, 1
1, 1
0, 1
1, 1
0, 2
1, 0
0, 1
0, 0
1, 0
0, 1
0, 0
0, 0
0, 1
1, 0
0, 1
0, 0
0, 0
0, 1
1, 1
0, 2
1, 0
0, 0
0, 1
0, 0
1, 2
1, 0
0, 1
0, 2
2, 0
1, 1
0, 1
0, 0
2, 0
0, 1
0, 2
1, 3
0, 1
0, 1
1, 1
0, 1
0, 0
0, 0
0, 0
0, 0
1, 1
1, 0
1, 0
0, 0
0, 1
0, 0
0, 0
2, 0
0, 3
0, 0
1, 0
0, 1
1, 0
0, 1
0, 0
0, 0
0, 0
0, 0
0, 0
0, 0
0, 0
0, 0
0, 0
0, 0
1, 0
0, 0
0, 0
1, 0
0, 0
0, 0
0, 1
0, 0
0, 0
0, 0
0, 0
0, 0
0, 0
0, 1
0, 1
0, 0
0, 0
2, 0
1, 0
0, 1
0, 0
0, 0
0, 0
0, 0
1, 0
0, 0
0, 0
0, 0
1, 0
0, 0
0, 0
0, 0
1, 0
0, 1
0, 0
0, 1
0, 1
0, 0
0, 0
0, 1
0, 0
0, 0
0, 0
1, 1
0, 0
1, 0
1, 0
0, 1
0, 0
0, 0
0, 1
0, 0
0, 0
0, 0
0, 0
0, 0
0, 0
0, 0
1, 1
0, 0
0, 0
0, 0
0, 0
0, 0
0, 0
0, 0
1, 0
0, 1
1, 0
0, 0
0, 1
0, 0
2, 0
0, 1
0, 0
0, 0
1, 0
0, 0
0, 0
1, 0
0, 0
0, 0
0, 1
0, 0
0, 1
0, 0
0, 0
0, 1
0, 0
0, 0
0, 0
0, 1
0, 0
0, 0
0, 0
0, 0
0, 0
0, 0
0, 0
0, 0
0, 0
0, 0
0, 0
0, 1
0, 0
0, 0
0, 0
0, 1
0, 0
0, 0
0, 0
0, 0
0, 0
0, 0
1, 1
0, 0
0, 0
0, 0
0, 0
0, 1
0, 0
0, 0
0, 0
0, 1
1, 0
1, 0
0, 0
0, 0
0, 0
0, 0
0, 0
0, 0
2, 0
0, 0
0, 1
0, 0
1, 0
0, 0
0, 0
0, 0
0, 0
0, 0
0, 1
0, 0
0, 0
0, 0
1, 0
1, 1
0, 0
0, 0
0, 0
0, 0
0, 0
0, 0
0, 0
0, 0
0, 0
0, 0
0, 0
0, 0
0, 0
0, 0
0, 0
0, 0
0, 0
0, 0
0, 0
0, 0
0, 0
0, 0
0, 0
0, 1
0, 0
0, 1
0, 0
0, 0
0, 0
0, 0
0, 0
0, 0
0, 0
1, 0
0, 1
0, 0
0, 0
0, 0
0, 0
0, 0
0, 0
0, 0
0, 0
0, 0
0, 0
1, 0
0, 0
0, 0
0, 0
0, 0
0, 0
0, 0
0, 0
0, 0
0, 0
0, 1
0, 0
0, 0
0, 0
0, 0
0, 0
0, 0
0, 0
0, 0
0, 0
0, 0
0, 0
0, 0
0, 0
0, 0
0, 0
0, 0
0, 0
0, 0
0, 0
0, 0
1, 0
0, 0
0, 0
0, 0
0, 0
0, 0
0, 0
0, 0
0, 0
0, 0
1, 0
0, 0
0, 0
0, 0
0, 0
0, 0
0, 0
0, 0
0, 0
0, 0
0, 0
0, 0
0, 0
0, 0
0, 0
0, 0
1, 0
0, 0
0, 0
0, 0
0, 0
0, 0
0, 0
0, 0
0, 0
0, 0
0, 0
0, 0
1, 0
0, 0
0, 0
0, 0
0, 1
0, 0
0, 0
0, 1
0, 0
0, 0
0, 0
0, 0
0, 0
0, 0
0, 0
1, 0
0, 0
1, 0
0, 0
0, 0
0, 0
0, 0
0, 0
0, 0
0, 0
0, 0
0, 0
0, 0
0, 0
0, 0
0, 0
0, 0
0, 0
0, 0
0, 0
0, 0
0, 0
0, 0
0, 0
0, 0
0, 0
0, 0
0, 0
0, 0
0, 0
0, 0
0, 0
0, 0
0, 0
0, 0
0, 0
0, 0
0, 0
0, 0
0, 0
0, 0
0, 0
0, 0
0, 0
0, 0
0, 0
0, 0
0, 0
0, 0
0, 0
0, 0
0, 0
0, 0
0, 0
0, 0
0, 0
0, 0
0, 0
0, 0
0, 0
0, 0
0, 0
0, 0
0, 0
0, 0
0, 0
0, 0
0, 0
0, 0
0, 0
0, 0
0, 0
0, 0
0, 0
0, 0
0, 0
0, 0
0, 0
0, 0
0, 0
0, 0
0, 0
0, 0
0, 0
0, 0
0, 0
0, 0
0, 0
0, 0
0, 0
0, 0
0, 0
0, 0
0, 0
0, 0
0, 0
0, 0
0, 0
0, 0
0, 0
0, 0
0, 0
0, 0
0, 0
0, 0
0, 0
0, 0
0, 0
0, 0
0, 0
0, 0
0, 0
0, 0
0, 0
0, 0
0, 0
0, 0
0, 0
0, 0
0, 0
0, 0
0, 0
0, 0
0, 0
0, 0
0, 0
0, 0
0, 0
0, 0
0, 0
0, 0
0, 0
0, 0
0, 0
0, 0
0, 0
0, 0
0, 0
0, 0
0, 0
0, 0
0, 0
0, 0
0, 0
0, 0
0, 0
0, 0
0, 0
0, 0
0, 0
0, 0
0, 0
0, 0
0, 0
0, 0
0, 0
0, 0
0, 0
0, 0
0, 0
0, 0
0, 0
0, 0
0, 0
0, 0
0, 0
0, 0
0, 0
0, 0
0, 0
0, 0
0, 0
0, 0
0, 0
0, 0
0, 0
0, 0
0, 0
0, 0
0, 0
0, 0
0, 0
0, 0
0, 0
0, 0
0, 0
0, 0
0, 0
0, 0
0, 0
0, 0
0, 0
0, 0
0, 0
0, 0
0, 0
0, 0
0, 0
0, 0
0, 0
0, 0
0, 0
0, 0
0, 0
0, 0
0, 0
0, 0
0, 0
0, 0
0, 0
0, 0
0, 0
0, 0
0, 0
0, 0
0, 0
0, 0
0, 0
0, 0
0, 0
0, 0
0, 0
0, 0
0, 0
0, 0
0, 0
0, 0
0, 0
0, 0
0, 0
0, 0
0, 0
0, 0
0, 0
0, 0
0, 0
0, 0
0, 0
0, 0
0, 0
0, 0
0, 0
0, 0
0, 0
0, 0
0, 0
0, 0
0, 0
0, 0
0, 0
0, 0
0, 0
0, 0
0, 0
0, 0
0, 0
0, 0
0, 0
0, 0
0, 0
0, 0
0, 0
0, 0
0, 0
0, 0
0, 0
0, 0
0, 0
0, 0
0, 0
0, 0
0, 0
0, 0
0, 0
0, 0
0, 0
0, 0
0, 0
0, 0
0, 0
0, 0
0, 0
0, 0
0, 0
0, 0
0, 0
0, 0
0, 0
0, 0
0, 0
0, 0
0, 0
0, 0
0, 0
0, 0
0, 0
0, 0
0, 0
0, 0
0, 0
0, 0
0, 0
0, 0
0, 0
0, 0
0, 0
0, 0
0, 0
0, 0
0, 0
0, 0
0, 0
0, 0
0, 0
0, 0
0, 0
0, 0
0, 0
0, 0
0, 0
0, 0
0, 0
0, 0
0, 0
0, 0
0, 0
0, 0
0, 0
0, 0
0, 0
0, 0
0, 0
0, 0
0, 0
0, 0
0, 0
0, 0
0, 0
0, 0
0, 0
0, 0
0, 0
0, 0
0, 0
0, 0
0, 0
0, 0
0, 0
0, 0
0, 0
0, 0
0, 0
0, 0
0, 0
0, 0
0, 0
0, 0
0, 0
0, 0
0, 0
0, 0
0, 0
0, 0
0, 0
0, 0
0, 0
0, 0
0, 0
#ENDOFDATA     end of spectrum data