File: host_upload/06-09-2024/ps_0852/dump3/ps__0852shot_2330.msa
#FORMAT      : EMSA/MAS spectral data file
#VERSION     : TC202v2.0 PIXL
#TITLE       : N/A
#DATE        :       Date in the format DD-MMM-YYYY, for example 07-JUL-2010
#TIME        :             The time of day at which the spectrum was recorded, in 24-hour format
#OWNER       : PIXL Flight Model       (PIXL will use this to indicate which instrument took the data.)
#NPOINTS     : 4096     Number of data points in the spectrum (This can be zero for configuration only files)
#NCOLUMNS    : 2     Number of data columns in the spectrum (This can be zero for configuration only files)
#XUNITS      : eV
#YUNITS      : COUNTS
#DATATYPE    : YY
#XPERCHAN    : 7.862, 7.881   eV per channel (separate by commas if more than one detector)
#OFFSET      : 18.5, -22.4         eV of first channel  (separate by commas if more than one detector
#SIGNALTYPE  : XRF
#YP_TEMP     : 2.267
#LIVETIME    : 8.54285, 8.54825   seconds (separate by commas if more than one detector)
#REALTIME    : 10, 10.0   seconds (separate by commas if more than one detector)
#SPECTRUM    : start of spectrum data
0, 0
0, 0
0, 0
0, 0
0, 0
0, 0
0, 0
0, 0
0, 0
0, 0
0, 0
0, 0
0, 0
0, 0
0, 0
0, 0
0, 0
0, 0
0, 0
0, 0
0, 0
0, 0
0, 0
0, 0
0, 0
0, 0
0, 0
0, 0
0, 0
0, 0
0, 0
0, 0
0, 0
0, 0
0, 0
1, 0
1, 0
0, 3
1, 1
0, 2
2, 0
1, 1
1, 0
1, 2
2, 7
0, 0
1, 2
8, 3
3, 6
13, 5
31, 24
37, 26
42, 41
65, 73
73, 69
53, 52
66, 51
38, 41
26, 23
19, 10
10, 15
3, 4
9, 5
5, 4
5, 4
2, 3
5, 5
11, 13
32, 23
52, 51
85, 109
173, 169
265, 244
350, 359
445, 390
431, 414
363, 369
304, 291
209, 182
117, 118
65, 68
44, 36
19, 21
12, 5
6, 12
2, 5
0, 4
1, 0
2, 4
2, 0
3, 4
6, 1
5, 8
10, 6
20, 18
25, 30
41, 27
47, 51
49, 59
41, 65
46, 48
42, 35
24, 20
23, 17
17, 22
6, 12
15, 11
10, 16
20, 22
30, 26
32, 32
39, 42
43, 42
64, 56
69, 42
76, 52
80, 36
81, 62
91, 38
84, 37
91, 32
68, 20
68, 20
48, 24
44, 19
22, 13
16, 20
7, 13
13, 14
11, 8
6, 3
3, 2
7, 8
2, 4
2, 3
2, 0
2, 3
2, 2
2, 2
3, 1
1, 1
5, 3
3, 1
3, 3
1, 1
0, 5
0, 6
1, 3
3, 2
1, 5
0, 5
5, 7
9, 8
13, 7
15, 20
21, 28
31, 36
22, 28
30, 26
19, 14
21, 13
17, 12
12, 4
8, 4
7, 11
4, 6
10, 2
6, 6
6, 10
6, 9
6, 6
9, 3
9, 11
6, 2
8, 5
12, 8
7, 6
14, 16
6, 7
5, 3
7, 4
6, 3
4, 4
2, 5
3, 5
3, 8
5, 4
5, 3
3, 2
4, 9
8, 15
10, 12
7, 13
9, 12
15, 13
20, 12
22, 23
19, 25
13, 13
9, 19
17, 20
12, 11
6, 5
5, 5
3, 10
6, 7
4, 5
4, 10
4, 8
7, 7
6, 5
6, 3
7, 11
4, 5
9, 6
7, 2
6, 5
10, 5
10, 7
11, 6
2, 7
7, 4
12, 6
10, 6
11, 13
16, 15
17, 3
32, 11
33, 6
44, 16
51, 12
51, 15
52, 16
45, 8
61, 6
48, 6
53, 11
61, 8
63, 6
43, 9
42, 4
38, 14
33, 10
16, 10
20, 21
21, 30
19, 27
26, 40
43, 51
60, 50
63, 72
72, 69
49, 76
53, 62
33, 60
30, 63
38, 72
11, 65
16, 69
18, 50
24, 60
29, 55
31, 81
82, 116
159, 190
276, 350
464, 620
763, 954
1058, 1398
1494, 1734
1828, 2151
2199, 2338
2360, 2442
2290, 2334
2045, 1926
1716, 1522
1273, 1086
880, 734
510, 422
333, 283
208, 144
107, 102
55, 62
34, 43
23, 40
22, 26
11, 19
25, 21
28, 18
19, 23
24, 35
40, 40
40, 48
68, 83
90, 141
145, 170
195, 254
228, 252
329, 350
360, 340
377, 357
338, 359
291, 269
250, 226
196, 165
142, 120
79, 79
64, 48
37, 42
21, 31
9, 23
6, 8
8, 15
5, 16
13, 18
11, 11
11, 15
15, 17
11, 15
11, 8
13, 11
10, 13
10, 5
4, 4
5, 6
7, 5
2, 6
5, 3
5, 13
4, 5
7, 3
5, 8
2, 6
6, 9
6, 11
1, 6
5, 4
4, 2
6, 5
3, 2
3, 10
1, 3
2, 5
2, 2
3, 7
8, 6
5, 12
4, 9
2, 7
10, 14
5, 10
10, 14
7, 19
14, 18
12, 14
14, 18
6, 17
11, 11
9, 16
7, 8
1, 13
8, 5
5, 9
6, 2
10, 4
4, 2
7, 8
4, 2
5, 3
3, 4
7, 2
4, 5
2, 5
3, 5
4, 2
3, 5
4, 7
2, 4
5, 6
5, 5
1, 5
7, 4
6, 1
7, 2
5, 3
4, 3
1, 6
3, 1
3, 4
3, 5
2, 3
1, 5
5, 7
0, 4
2, 6
2, 3
5, 9
3, 10
4, 7
6, 5
6, 2
4, 3
1, 2
4, 3
5, 3
4, 3
1, 2
4, 4
2, 1
2, 6
6, 2
2, 4
5, 5
3, 2
1, 5
3, 0
6, 1
3, 5
6, 2
2, 2
3, 3
2, 1
2, 5
2, 1
3, 3
4, 1
3, 6
4, 3
5, 1
3, 2
1, 4
0, 3
1, 1
0, 2
4, 2
2, 3
2, 0
3, 4
1, 3
2, 5
3, 2
3, 4
2, 1
1, 0
4, 3
2, 3
1, 6
1, 1
4, 1
5, 2
1, 2
5, 0
1, 5
2, 0
2, 1
2, 4
3, 0
4, 3
4, 2
4, 3
3, 2
1, 3
4, 4
3, 1
1, 1
4, 7
3, 4
2, 3
4, 1
6, 2
1, 0
3, 7
0, 1
1, 5
4, 3
3, 2
3, 2
2, 3
1, 2
0, 1
3, 1
6, 3
1, 2
2, 2
1, 4
0, 2
3, 7
0, 3
1, 4
2, 0
0, 1
0, 1
4, 1
3, 1
4, 1
4, 3
1, 3
3, 5
3, 1
0, 5
2, 4
4, 6
1, 3
2, 2
2, 0
1, 1
1, 2
0, 1
2, 2
4, 1
3, 1
3, 1
0, 1
1, 2
0, 1
3, 1
3, 1
2, 3
1, 2
3, 1
2, 1
3, 1
3, 0
2, 2
5, 1
1, 2
3, 4
2, 0
3, 2
0, 0
1, 4
1, 1
2, 2
1, 2
1, 1
2, 2
3, 1
4, 5
4, 3
7, 3
4, 1
3, 7
5, 2
7, 6
2, 2
3, 1
4, 4
5, 2
6, 2
3, 2
2, 2
1, 2
0, 2
0, 3
2, 0
2, 2
1, 1
1, 1
3, 1
0, 1
1, 3
3, 3
1, 1
3, 2
2, 2
0, 1
1, 4
1, 2
1, 0
0, 0
5, 6
3, 1
3, 1
5, 1
1, 4
4, 1
3, 1
0, 6
0, 0
1, 1
0, 1
1, 2
1, 1
1, 1
0, 1
2, 2
2, 0
0, 0
1, 0
0, 0
1, 0
0, 0
1, 1
3, 1
1, 1
1, 1
1, 1
4, 1
2, 1
0, 4
2, 0
2, 0
1, 0
0, 2
2, 2
1, 0
0, 2
1, 2
1, 0
1, 4
0, 0
1, 0
0, 3
1, 2
1, 0
1, 1
0, 0
0, 1
3, 0
1, 1
2, 2
1, 0
1, 0
1, 4
1, 3
2, 0
0, 0
1, 2
2, 1
0, 1
2, 1
0, 1
0, 0
2, 1
1, 0
1, 0
1, 0
0, 0
0, 1
1, 1
0, 2
1, 1
1, 1
0, 3
0, 0
0, 1
0, 1
1, 0
2, 0
1, 0
3, 1
2, 1
0, 1
2, 0
2, 0
0, 0
1, 0
1, 1
1, 0
1, 1
1, 0
1, 2
0, 1
0, 1
0, 1
0, 0
1, 0
0, 1
0, 1
0, 1
1, 1
0, 0
1, 0
1, 1
0, 1
1, 0
2, 0
1, 0
0, 0
0, 0
0, 1
0, 0
1, 0
0, 1
0, 0
0, 1
2, 1
1, 2
0, 1
1, 1
2, 0
0, 0
0, 0
1, 1
1, 2
1, 0
2, 0
0, 2
0, 0
0, 0
0, 0
1, 0
0, 0
0, 0
0, 0
1, 0
0, 0
1, 0
1, 1
0, 2
0, 1
0, 1
2, 0
0, 0
1, 0
0, 0
0, 0
0, 0
0, 0
0, 0
1, 0
0, 0
0, 0
1, 1
0, 0
0, 0
0, 0
1, 1
0, 0
0, 1
1, 0
0, 1
0, 0
0, 0
0, 0
0, 0
1, 1
0, 0
0, 0
0, 0
0, 0
0, 0
0, 0
1, 0
0, 0
0, 0
0, 0
0, 0
0, 0
0, 0
1, 0
0, 0
0, 1
0, 0
1, 0
0, 0
0, 1
0, 1
0, 0
0, 0
0, 0
1, 0
1, 0
1, 0
1, 0
1, 0
0, 0
0, 1
0, 0
0, 1
1, 0
0, 1
0, 0
1, 0
0, 0
0, 0
1, 0
0, 0
0, 0
1, 0
0, 2
2, 0
0, 0
0, 1
1, 0
0, 0
2, 0
0, 1
0, 0
0, 0
0, 1
1, 0
0, 1
0, 2
0, 1
0, 0
0, 0
1, 0
0, 0
0, 0
0, 0
0, 0
0, 1
0, 1
1, 0
0, 0
0, 0
1, 1
0, 0
0, 1
1, 0
3, 0
1, 1
0, 0
0, 0
0, 0
1, 0
0, 0
0, 0
0, 0
0, 0
0, 0
0, 1
0, 0
1, 0
0, 0
0, 0
0, 0
0, 0
0, 0
0, 0
0, 0
0, 0
0, 0
0, 0
0, 0
0, 0
0, 0
0, 0
0, 0
0, 0
0, 0
0, 0
0, 0
0, 0
0, 0
0, 0
1, 0
0, 0
0, 0
0, 0
0, 0
0, 0
0, 0
1, 0
0, 0
0, 0
0, 0
0, 0
0, 0
0, 0
0, 1
0, 0
0, 0
0, 0
0, 0
0, 0
0, 0
0, 0
0, 0
0, 0
0, 0
0, 0
0, 0
0, 0
0, 0
0, 0
0, 0
0, 0
0, 1
0, 0
0, 0
0, 0
0, 0
0, 0
0, 0
0, 0
0, 0
0, 0
0, 0
0, 0
0, 0
0, 0
0, 0
0, 1
0, 0
0, 0
0, 0
0, 0
0, 0
0, 0
0, 0
0, 0
0, 0
0, 0
0, 0
0, 0
0, 0
0, 0
0, 0
0, 0
0, 0
0, 1
0, 0
0, 0
0, 0
0, 0
0, 0
0, 0
0, 0
0, 0
0, 0
0, 0
0, 0
0, 0
0, 0
0, 0
0, 0
0, 0
0, 0
0, 0
0, 0
0, 0
0, 1
0, 0
0, 0
0, 0
0, 0
0, 0
0, 0
0, 0
0, 0
0, 0
0, 0
0, 0
0, 0
1, 0
0, 0
0, 0
0, 0
0, 0
0, 0
0, 0
0, 0
0, 0
0, 0
0, 0
0, 0
0, 0
0, 0
0, 0
0, 0
0, 0
0, 0
0, 0
0, 0
0, 0
0, 0
0, 0
0, 0
0, 0
0, 0
0, 0
0, 0
0, 0
0, 0
0, 0
0, 0
0, 0
0, 0
0, 0
0, 0
0, 0
0, 0
0, 0
0, 0
0, 0
0, 0
0, 0
0, 0
0, 0
0, 0
0, 0
0, 0
0, 0
0, 0
0, 0
0, 0
0, 0
0, 0
0, 0
0, 0
0, 0
0, 0
0, 0
0, 0
0, 0
0, 0
0, 0
0, 0
0, 0
0, 0
0, 0
0, 0
0, 0
0, 0
0, 0
0, 0
0, 0
0, 0
0, 0
0, 0
0, 0
0, 0
0, 0
0, 0
0, 0
0, 0
0, 0
0, 0
0, 0
0, 0
0, 0
0, 0
0, 0
0, 0
0, 0
0, 0
0, 0
0, 0
0, 0
1, 0
0, 0
0, 0
0, 0
0, 0
0, 0
0, 0
0, 0
0, 0
0, 0
0, 0
0, 0
0, 0
0, 0
0, 0
0, 0
0, 0
0, 0
0, 0
0, 0
0, 0
0, 0
0, 0
0, 0
0, 0
0, 0
0, 0
0, 0
0, 0
0, 0
0, 0
0, 0
0, 0
0, 0
0, 0
0, 0
0, 0
0, 0
0, 0
0, 0
0, 0
0, 0
0, 0
0, 0
0, 0
0, 0
0, 0
0, 0
0, 0
0, 0
0, 0
0, 0
0, 0
0, 0
0, 0
0, 0
0, 0
0, 0
0, 0
0, 0
0, 0
0, 0
0, 0
0, 0
0, 0
0, 0
0, 0
0, 0
0, 0
0, 0
0, 0
0, 0
0, 0
0, 0
0, 0
0, 0
0, 0
0, 0
0, 0
0, 0
0, 0
0, 0
0, 0
0, 0
0, 0
0, 0
0, 0
0, 0
0, 0
0, 0
0, 0
0, 0
0, 0
0, 0
0, 0
0, 0
0, 0
0, 0
0, 0
0, 0
0, 0
0, 0
0, 0
0, 0
0, 0
0, 0
0, 0
0, 0
0, 0
0, 0
0, 0
0, 0
0, 0
0, 0
0, 0
0, 0
0, 0
0, 0
0, 0
0, 0
0, 0
0, 0
0, 0
0, 0
0, 0
0, 0
0, 0
0, 0
0, 0
0, 0
0, 0
0, 0
0, 0
0, 0
0, 0
0, 0
0, 0
0, 0
0, 0
0, 0
0, 0
0, 0
0, 0
0, 0
0, 0
0, 0
0, 0
0, 0
0, 0
0, 0
0, 0
0, 0
0, 0
0, 0
0, 0
0, 0
0, 0
0, 0
0, 0
0, 0
0, 0
0, 0
0, 0
0, 0
0, 0
0, 0
0, 0
0, 0
0, 0
0, 0
0, 0
0, 0
0, 0
0, 0
0, 0
0, 0
0, 0
0, 0
0, 0
0, 0
0, 0
0, 0
0, 0
0, 0
0, 0
0, 0
0, 0
0, 0
0, 0
0, 0
0, 0
0, 0
0, 0
0, 0
0, 0
0, 0
0, 0
0, 0
0, 0
0, 0
0, 0
0, 0
0, 0
0, 0
0, 0
0, 0
0, 0
0, 0
0, 0
0, 0
0, 0
0, 0
0, 0
0, 0
0, 0
0, 0
0, 0
0, 0
0, 0
0, 0
0, 0
0, 0
0, 0
0, 0
0, 0
0, 0
0, 0
0, 0
0, 0
0, 0
0, 0
0, 0
0, 0
0, 0
0, 0
0, 0
0, 0
0, 0
0, 0
0, 0
0, 0
0, 0
0, 0
0, 0
0, 0
0, 0
0, 0
0, 0
0, 0
0, 0
0, 0
0, 0
0, 0
0, 0
0, 0
0, 0
0, 0
0, 0
0, 0
0, 0
0, 0
0, 0
0, 0
0, 0
0, 0
0, 0
0, 0
0, 0
0, 0
0, 0
0, 0
0, 0
0, 0
0, 0
0, 0
0, 0
0, 0
0, 0
0, 0
0, 0
0, 0
0, 0
0, 0
0, 0
0, 0
0, 0
0, 0
0, 0
0, 0
0, 0
0, 0
0, 0
0, 0
0, 0
0, 0
0, 0
0, 0
0, 0
0, 0
0, 0
0, 0
0, 0
0, 0
0, 0
0, 0
0, 0
0, 0
0, 0
0, 0
0, 0
0, 0
0, 0
0, 0
0, 0
0, 0
0, 0
0, 0
0, 0
0, 0
0, 0
0, 0
0, 0
0, 0
0, 0
0, 0
#ENDOFDATA     end of spectrum data