File: host_upload/06-09-2024/ps_0852/dump3/ps__0852shot_2268.msa
#FORMAT      : EMSA/MAS spectral data file
#VERSION     : TC202v2.0 PIXL
#TITLE       : N/A
#DATE        :       Date in the format DD-MMM-YYYY, for example 07-JUL-2010
#TIME        :             The time of day at which the spectrum was recorded, in 24-hour format
#OWNER       : PIXL Flight Model       (PIXL will use this to indicate which instrument took the data.)
#NPOINTS     : 4096     Number of data points in the spectrum (This can be zero for configuration only files)
#NCOLUMNS    : 2     Number of data columns in the spectrum (This can be zero for configuration only files)
#XUNITS      : eV
#YUNITS      : COUNTS
#DATATYPE    : YY
#XPERCHAN    : 7.862, 7.881   eV per channel (separate by commas if more than one detector)
#OFFSET      : 18.5, -22.4         eV of first channel  (separate by commas if more than one detector
#SIGNALTYPE  : XRF
#YP_TEMP     : 2.3
#LIVETIME    : 8.58069, 8.5567   seconds (separate by commas if more than one detector)
#REALTIME    : 10, 10.0   seconds (separate by commas if more than one detector)
#SPECTRUM    : start of spectrum data
0, 0
0, 0
0, 0
0, 0
0, 0
0, 0
0, 0
0, 0
0, 0
0, 0
0, 0
0, 0
0, 0
0, 0
0, 0
0, 0
0, 0
0, 0
0, 0
0, 0
0, 0
0, 0
0, 0
0, 0
0, 0
0, 0
0, 0
0, 0
0, 0
0, 0
0, 0
0, 1
0, 0
0, 1
0, 0
0, 0
0, 2
1, 0
0, 2
1, 3
1, 0
1, 0
0, 0
0, 0
1, 0
0, 0
0, 0
4, 2
4, 3
10, 10
23, 35
40, 45
77, 61
79, 72
85, 94
76, 58
66, 61
45, 42
27, 27
18, 13
3, 5
6, 4
7, 4
1, 6
3, 6
6, 5
6, 2
5, 12
17, 23
53, 48
101, 128
186, 171
275, 303
371, 382
384, 437
455, 424
373, 395
280, 311
200, 191
120, 116
79, 59
44, 31
16, 17
8, 14
7, 7
5, 2
3, 3
2, 0
1, 1
2, 3
0, 4
1, 2
2, 4
1, 2
0, 2
0, 3
0, 4
2, 4
2, 2
2, 0
3, 2
1, 7
5, 4
4, 0
0, 2
2, 4
7, 8
5, 9
10, 7
10, 13
16, 11
16, 44
25, 49
25, 52
38, 62
24, 64
39, 70
22, 46
25, 39
31, 31
23, 23
29, 20
14, 20
20, 17
24, 6
13, 10
10, 12
13, 18
6, 12
7, 6
6, 4
5, 6
5, 6
4, 1
5, 4
12, 6
11, 7
8, 4
11, 7
11, 5
10, 5
3, 7
8, 3
3, 2
0, 2
3, 1
2, 0
0, 3
2, 2
2, 5
3, 0
4, 6
5, 6
8, 9
12, 10
20, 8
15, 14
14, 20
18, 23
12, 19
10, 9
6, 13
7, 10
6, 10
9, 14
3, 19
8, 20
4, 19
9, 25
3, 26
7, 27
1, 16
4, 16
6, 13
11, 9
7, 10
5, 10
13, 6
6, 14
9, 20
11, 17
17, 16
15, 14
10, 12
8, 5
9, 21
6, 6
4, 8
7, 12
3, 8
9, 13
6, 14
14, 15
10, 14
15, 9
11, 12
10, 17
17, 16
27, 14
23, 21
39, 34
53, 42
70, 38
88, 42
107, 52
122, 59
134, 56
139, 57
88, 57
107, 44
60, 37
51, 27
32, 22
22, 13
21, 9
11, 7
8, 5
3, 5
5, 7
4, 3
11, 13
9, 6
9, 6
13, 5
16, 8
26, 9
20, 14
20, 12
25, 8
32, 16
23, 15
26, 15
20, 19
15, 6
13, 11
9, 11
15, 7
8, 7
8, 5
3, 3
11, 7
10, 15
7, 8
8, 15
7, 16
20, 21
28, 36
37, 44
45, 49
53, 57
50, 68
62, 65
58, 54
65, 44
42, 34
50, 29
29, 17
17, 23
23, 17
17, 24
23, 18
32, 34
48, 56
78, 91
147, 190
264, 339
438, 574
707, 910
1057, 1326
1521, 1793
1853, 2145
2214, 2387
2336, 2436
2263, 2322
2023, 2004
1713, 1527
1232, 1112
917, 712
526, 463
350, 271
196, 117
104, 66
66, 38
32, 28
14, 20
13, 13
12, 11
18, 8
17, 10
19, 19
24, 23
24, 55
47, 54
65, 81
98, 134
119, 184
181, 250
246, 296
308, 356
320, 375
346, 348
360, 292
300, 317
263, 232
163, 167
143, 114
71, 69
43, 43
37, 21
15, 14
14, 7
7, 6
8, 5
11, 12
7, 6
10, 18
14, 16
20, 20
13, 13
13, 18
14, 13
15, 11
10, 9
8, 7
7, 2
5, 3
7, 6
5, 6
9, 6
5, 8
4, 8
2, 7
3, 12
10, 17
10, 14
10, 30
9, 19
16, 9
14, 15
14, 19
28, 17
21, 12
28, 11
24, 18
30, 17
27, 18
21, 14
20, 9
18, 7
16, 8
12, 1
12, 6
6, 6
3, 5
5, 6
5, 3
6, 7
4, 2
3, 3
4, 4
5, 2
2, 1
5, 5
5, 1
3, 4
1, 4
2, 4
4, 4
3, 4
5, 3
4, 5
4, 5
2, 3
6, 1
1, 7
5, 3
3, 4
8, 3
0, 5
6, 2
5, 0
1, 5
7, 3
6, 5
4, 4
2, 4
2, 2
3, 3
3, 3
7, 3
5, 1
3, 1
5, 2
3, 4
8, 4
5, 2
2, 2
2, 0
4, 7
0, 7
4, 3
2, 5
2, 6
4, 1
1, 5
3, 3
5, 4
4, 2
5, 7
7, 5
7, 5
6, 6
6, 4
7, 2
10, 3
4, 3
4, 1
3, 3
4, 5
5, 2
3, 3
1, 4
2, 6
7, 2
2, 2
2, 1
4, 2
4, 2
1, 3
4, 5
3, 2
4, 3
3, 1
2, 6
7, 3
3, 7
4, 8
7, 10
7, 3
5, 8
14, 6
11, 5
10, 11
13, 7
17, 8
12, 3
10, 2
12, 1
8, 2
7, 5
6, 1
3, 0
6, 3
5, 0
1, 1
7, 4
4, 2
4, 3
3, 2
5, 1
0, 2
2, 1
4, 3
2, 2
3, 2
3, 2
0, 5
1, 3
6, 0
3, 1
2, 1
7, 0
2, 1
3, 2
3, 4
2, 4
1, 1
5, 2
2, 5
2, 2
1, 2
2, 1
3, 3
1, 1
2, 2
0, 0
0, 3
9, 2
1, 0
0, 5
3, 3
2, 2
0, 4
0, 5
1, 1
2, 5
2, 1
2, 0
1, 1
1, 3
3, 3
4, 1
7, 1
2, 4
3, 1
7, 2
1, 8
2, 1
3, 6
1, 1
3, 4
5, 1
1, 2
3, 2
4, 3
1, 1
5, 1
0, 2
1, 2
1, 0
4, 3
1, 0
0, 2
2, 2
1, 2
2, 0
1, 0
0, 2
0, 1
2, 2
2, 2
1, 3
3, 3
3, 0
2, 2
6, 2
1, 1
3, 3
4, 6
1, 2
2, 4
3, 3
2, 4
4, 3
2, 1
2, 5
4, 0
3, 3
4, 5
2, 5
1, 4
3, 1
1, 1
3, 2
1, 1
0, 3
0, 1
0, 1
3, 1
0, 0
0, 0
0, 2
1, 4
2, 1
1, 1
0, 1
2, 4
1, 1
2, 2
0, 1
1, 1
0, 2
3, 8
3, 2
1, 0
2, 2
2, 1
2, 0
0, 1
1, 0
0, 5
0, 3
0, 2
0, 1
2, 2
0, 4
2, 1
2, 0
2, 4
2, 0
2, 0
1, 3
0, 3
2, 4
0, 0
1, 0
2, 1
1, 0
3, 2
0, 2
0, 3
2, 1
1, 1
0, 1
1, 0
0, 2
0, 1
0, 0
1, 0
0, 3
1, 1
4, 0
3, 0
1, 0
1, 0
0, 0
2, 1
1, 0
0, 0
0, 2
1, 3
1, 2
0, 2
1, 0
1, 2
1, 0
1, 2
0, 1
0, 0
1, 0
0, 0
0, 2
1, 1
0, 0
0, 0
0, 1
0, 0
1, 0
1, 2
1, 1
0, 1
1, 1
1, 0
2, 0
0, 0
1, 2
0, 0
2, 1
0, 1
1, 0
0, 0
0, 0
0, 2
1, 0
1, 2
2, 1
0, 1
1, 1
1, 1
0, 1
1, 0
0, 0
0, 1
2, 1
0, 0
0, 2
0, 1
1, 1
0, 0
0, 0
2, 0
0, 1
0, 0
2, 0
0, 0
0, 0
0, 1
0, 0
0, 1
0, 0
1, 0
0, 1
0, 2
1, 0
0, 0
1, 0
0, 1
0, 1
0, 0
0, 0
1, 2
1, 3
0, 0
0, 2
2, 0
0, 0
0, 0
0, 1
0, 1
2, 1
0, 0
0, 0
0, 0
0, 1
0, 0
0, 0
1, 0
0, 0
0, 0
1, 0
1, 1
0, 1
1, 1
0, 0
0, 1
0, 0
0, 0
0, 0
0, 0
2, 1
0, 0
0, 0
0, 0
0, 0
0, 0
0, 1
0, 1
0, 0
0, 0
0, 0
1, 0
1, 0
0, 0
1, 0
0, 1
1, 0
0, 1
0, 1
0, 0
1, 0
1, 1
2, 0
0, 0
1, 0
0, 0
0, 0
0, 1
0, 0
0, 0
0, 1
0, 0
0, 1
0, 0
2, 0
0, 0
0, 0
0, 0
0, 1
1, 1
1, 1
1, 0
0, 0
0, 0
0, 0
0, 0
0, 0
0, 1
0, 0
0, 1
1, 0
0, 0
0, 0
0, 0
1, 0
0, 1
0, 1
0, 0
0, 0
0, 0
0, 0
0, 0
0, 0
0, 0
0, 0
0, 0
2, 1
1, 0
0, 0
1, 0
2, 0
0, 0
0, 1
0, 0
1, 0
0, 0
0, 1
0, 0
1, 0
0, 0
0, 0
0, 0
1, 0
0, 0
0, 0
0, 0
1, 1
0, 0
0, 0
0, 0
0, 0
1, 2
0, 1
0, 0
0, 0
0, 0
0, 1
0, 1
0, 0
0, 0
0, 0
0, 1
0, 0
0, 0
0, 0
0, 0
0, 0
0, 1
0, 1
0, 0
0, 0
0, 0
1, 0
1, 0
0, 0
0, 0
0, 0
0, 0
0, 0
1, 0
0, 0
0, 0
0, 1
0, 0
0, 1
0, 0
0, 0
0, 2
1, 0
1, 0
0, 0
0, 0
0, 0
0, 0
0, 0
0, 0
0, 0
0, 0
0, 0
0, 0
0, 0
0, 1
1, 0
0, 0
0, 0
0, 0
0, 0
1, 0
0, 0
0, 0
0, 0
0, 0
1, 0
0, 0
0, 0
0, 0
1, 0
0, 1
0, 0
0, 0
1, 1
0, 0
0, 0
0, 0
1, 0
0, 0
0, 0
0, 0
0, 0
0, 0
1, 0
0, 0
0, 0
0, 0
0, 0
0, 0
0, 0
0, 0
0, 0
1, 0
0, 0
0, 0
0, 1
0, 0
0, 0
1, 0
0, 0
0, 0
0, 0
0, 0
0, 0
0, 0
0, 0
0, 0
0, 0
0, 0
1, 0
0, 0
0, 0
0, 0
0, 0
0, 0
0, 0
1, 0
0, 0
0, 0
0, 0
0, 0
0, 0
0, 0
0, 0
0, 0
0, 0
0, 0
0, 0
1, 1
0, 0
0, 0
0, 0
1, 0
0, 0
0, 0
0, 0
0, 0
0, 0
0, 0
0, 0
1, 0
0, 0
0, 0
0, 0
0, 0
0, 0
0, 0
0, 0
0, 0
0, 0
0, 0
0, 0
0, 0
0, 0
0, 0
0, 0
0, 0
0, 0
0, 0
0, 0
0, 0
0, 0
0, 1
0, 0
0, 0
0, 0
0, 0
0, 0
0, 0
0, 0
0, 0
0, 0
0, 0
0, 0
0, 0
0, 0
0, 0
0, 0
0, 0
0, 0
0, 0
0, 0
0, 0
0, 0
0, 0
0, 0
0, 0
0, 0
0, 0
0, 0
0, 0
0, 0
0, 0
0, 0
0, 0
0, 0
0, 0
0, 0
0, 0
0, 0
0, 0
0, 0
0, 0
0, 0
0, 0
0, 0
0, 0
0, 0
0, 0
0, 0
0, 0
0, 0
0, 0
0, 0
0, 0
0, 0
0, 0
0, 0
0, 0
0, 0
0, 0
0, 0
0, 0
0, 0
0, 0
0, 0
0, 0
0, 0
0, 0
0, 0
0, 0
0, 0
0, 0
0, 0
0, 0
0, 0
0, 0
0, 0
0, 0
0, 1
0, 0
0, 0
0, 0
0, 0
0, 0
0, 0
0, 0
0, 0
0, 0
0, 0
0, 0
0, 0
0, 0
0, 0
0, 0
0, 0
0, 0
0, 0
0, 0
0, 0
0, 0
0, 0
0, 0
0, 0
0, 0
0, 0
0, 0
0, 0
0, 0
0, 0
0, 0
0, 0
0, 0
0, 0
0, 0
0, 0
0, 0
0, 0
0, 0
0, 0
0, 0
0, 0
0, 0
0, 0
0, 0
0, 0
0, 0
0, 0
0, 0
0, 0
0, 0
0, 0
0, 0
0, 0
0, 0
0, 0
0, 0
0, 0
0, 0
0, 0
0, 0
0, 0
0, 0
0, 0
0, 0
0, 0
0, 0
0, 0
0, 0
0, 0
0, 0
0, 0
0, 0
0, 0
0, 0
0, 0
0, 0
0, 0
0, 0
0, 0
0, 0
0, 0
0, 0
0, 0
0, 0
0, 0
0, 0
0, 0
0, 0
0, 0
0, 0
0, 0
0, 0
0, 0
0, 0
0, 0
0, 0
0, 0
0, 0
0, 0
0, 0
0, 0
0, 0
0, 0
0, 0
0, 0
0, 0
0, 0
0, 0
0, 0
0, 0
0, 0
0, 0
0, 0
0, 0
0, 0
0, 0
0, 0
0, 0
0, 0
0, 0
0, 0
0, 0
0, 0
0, 0
0, 0
0, 0
0, 0
0, 0
0, 0
0, 0
0, 0
0, 0
0, 0
0, 0
0, 0
0, 0
0, 0
0, 0
0, 0
0, 0
0, 0
0, 0
0, 0
0, 0
0, 0
0, 0
0, 0
0, 0
0, 0
0, 0
0, 0
0, 0
0, 0
0, 0
0, 0
0, 0
0, 0
0, 0
0, 0
0, 0
0, 0
0, 0
0, 0
0, 0
0, 0
0, 0
0, 0
0, 0
0, 0
0, 0
0, 0
0, 0
0, 0
0, 0
0, 0
0, 0
0, 0
0, 0
0, 0
0, 0
0, 0
0, 0
0, 0
0, 0
0, 0
0, 0
0, 0
0, 0
0, 0
0, 0
0, 0
0, 0
0, 0
0, 0
0, 0
0, 0
0, 0
0, 0
0, 0
0, 0
0, 0
0, 0
0, 0
0, 0
0, 0
0, 0
0, 0
0, 0
0, 0
0, 0
0, 0
0, 0
0, 0
0, 0
0, 0
0, 0
0, 0
0, 0
0, 0
0, 0
0, 0
0, 0
0, 0
0, 0
0, 0
0, 0
0, 0
0, 0
0, 0
0, 0
0, 0
0, 0
0, 0
0, 0
0, 0
0, 0
0, 0
0, 0
0, 0
0, 0
0, 0
0, 0
0, 0
0, 0
0, 0
0, 0
0, 0
0, 0
0, 0
0, 0
0, 0
0, 0
0, 0
0, 0
0, 0
0, 0
0, 0
0, 0
0, 0
0, 0
0, 0
0, 0
0, 0
0, 0
0, 0
0, 0
0, 0
0, 0
0, 0
0, 0
0, 0
0, 0
0, 0
0, 0
0, 0
0, 0
0, 0
0, 0
0, 0
0, 0
0, 0
0, 0
0, 0
0, 0
0, 0
0, 0
0, 0
0, 0
0, 0
0, 0
0, 0
0, 0
0, 0
0, 0
0, 0
0, 0
0, 0
0, 0
0, 0
0, 0
0, 0
0, 0
0, 0
0, 0
0, 0
0, 0
0, 0
0, 0
0, 0
0, 0
0, 0
0, 0
0, 0
0, 0
0, 0
0, 0
0, 0
0, 0
0, 0
#ENDOFDATA     end of spectrum data