File: host_upload/06-09-2024/ps_0852/dump3/ps__0852shot_2504.msa
#FORMAT      : EMSA/MAS spectral data file
#VERSION     : TC202v2.0 PIXL
#TITLE       : N/A
#DATE        :       Date in the format DD-MMM-YYYY, for example 07-JUL-2010
#TIME        :             The time of day at which the spectrum was recorded, in 24-hour format
#OWNER       : PIXL Flight Model       (PIXL will use this to indicate which instrument took the data.)
#NPOINTS     : 4096     Number of data points in the spectrum (This can be zero for configuration only files)
#NCOLUMNS    : 2     Number of data columns in the spectrum (This can be zero for configuration only files)
#XUNITS      : eV
#YUNITS      : COUNTS
#DATATYPE    : YY
#XPERCHAN    : 7.862, 7.881   eV per channel (separate by commas if more than one detector)
#OFFSET      : 18.5, -22.4         eV of first channel  (separate by commas if more than one detector
#SIGNALTYPE  : XRF
#YP_TEMP     : 2.235
#LIVETIME    : 8.57097, 8.54088   seconds (separate by commas if more than one detector)
#REALTIME    : 10, 10.0   seconds (separate by commas if more than one detector)
#SPECTRUM    : start of spectrum data
0, 0
0, 0
0, 0
0, 0
0, 0
0, 0
0, 0
0, 0
0, 0
0, 0
0, 0
0, 0
0, 0
0, 0
0, 0
0, 0
0, 0
0, 0
0, 0
0, 0
0, 0
0, 0
0, 0
0, 0
0, 0
0, 0
0, 0
0, 0
0, 0
0, 0
0, 0
0, 0
2, 0
0, 0
0, 0
0, 0
1, 1
1, 2
0, 0
0, 2
0, 1
1, 0
0, 0
0, 1
2, 1
2, 1
1, 0
4, 1
8, 6
11, 10
30, 39
38, 49
66, 45
85, 71
86, 75
76, 79
62, 66
38, 42
29, 19
21, 9
5, 9
2, 5
3, 3
2, 6
6, 5
7, 8
1, 2
6, 8
17, 27
56, 42
96, 79
177, 197
266, 256
369, 315
387, 374
421, 406
354, 319
278, 245
195, 177
129, 102
76, 64
36, 21
17, 16
8, 3
3, 4
3, 4
2, 1
2, 1
4, 0
3, 1
0, 1
0, 2
0, 1
4, 1
3, 2
4, 1
2, 1
3, 3
1, 6
3, 4
5, 5
4, 4
2, 4
6, 0
3, 4
5, 4
8, 5
5, 9
7, 8
15, 16
6, 14
21, 15
38, 19
30, 29
45, 36
48, 32
43, 38
69, 27
55, 23
56, 34
65, 12
61, 23
27, 19
20, 23
26, 13
19, 7
15, 9
12, 4
7, 17
7, 5
6, 7
6, 2
5, 4
4, 2
3, 1
4, 1
0, 4
3, 0
1, 2
1, 0
1, 0
6, 2
5, 3
2, 2
2, 3
4, 2
3, 3
5, 4
8, 4
8, 1
21, 7
19, 4
31, 6
31, 7
37, 11
32, 12
48, 14
29, 14
29, 20
24, 19
12, 8
6, 8
6, 6
8, 2
6, 1
2, 6
2, 5
4, 4
2, 4
10, 3
3, 5
4, 5
9, 2
5, 4
6, 5
5, 5
5, 4
4, 5
4, 4
3, 3
4, 5
5, 6
2, 4
3, 8
3, 5
5, 3
1, 5
9, 5
12, 14
13, 12
21, 17
21, 19
12, 15
26, 17
29, 24
19, 17
18, 19
23, 12
14, 16
16, 9
9, 10
9, 13
11, 10
7, 10
3, 10
2, 5
6, 8
7, 7
8, 6
7, 11
10, 11
12, 8
14, 6
7, 11
9, 7
9, 8
14, 13
10, 20
8, 11
7, 17
14, 12
2, 16
6, 26
25, 31
41, 32
57, 46
80, 84
119, 114
158, 129
199, 168
221, 190
209, 155
200, 144
179, 116
136, 74
97, 54
81, 43
53, 45
33, 39
39, 36
18, 47
26, 39
27, 26
19, 36
27, 55
32, 39
39, 49
56, 49
74, 72
77, 73
91, 85
92, 85
101, 83
80, 64
82, 64
53, 43
41, 25
31, 24
20, 25
21, 20
23, 31
27, 35
43, 46
71, 90
126, 187
311, 324
453, 518
773, 862
1128, 1193
1512, 1677
1916, 2014
2298, 2228
2448, 2349
2313, 2055
2002, 1816
1684, 1404
1268, 1055
843, 699
556, 460
302, 222
175, 125
106, 62
57, 31
28, 22
26, 12
16, 12
18, 19
16, 9
21, 20
13, 32
26, 20
41, 52
45, 50
72, 78
101, 107
130, 142
202, 228
245, 284
304, 333
326, 347
378, 364
317, 308
325, 240
245, 216
188, 177
121, 70
94, 63
56, 25
35, 22
23, 10
16, 6
15, 2
10, 9
6, 5
17, 8
5, 14
14, 17
11, 13
11, 9
8, 12
14, 11
6, 12
10, 1
4, 10
5, 7
9, 8
3, 5
5, 4
6, 5
2, 4
3, 3
7, 7
4, 1
3, 5
4, 5
9, 6
3, 1
4, 2
5, 7
2, 5
3, 5
2, 6
2, 7
4, 5
8, 9
4, 7
7, 7
5, 6
2, 4
3, 13
5, 6
10, 8
9, 6
4, 5
3, 4
3, 5
6, 11
5, 5
5, 6
3, 9
4, 3
5, 5
5, 3
2, 4
4, 1
6, 10
7, 7
7, 4
7, 5
9, 9
4, 4
5, 6
5, 5
6, 9
6, 2
6, 3
5, 7
4, 4
5, 2
0, 5
5, 4
6, 5
6, 7
7, 5
5, 11
2, 11
5, 19
5, 9
7, 8
4, 13
6, 23
6, 15
4, 13
5, 11
4, 7
9, 7
5, 8
3, 7
3, 5
3, 0
4, 3
3, 5
9, 3
3, 4
4, 2
7, 1
4, 1
6, 3
2, 6
3, 5
2, 4
5, 1
5, 2
5, 3
4, 3
1, 2
1, 5
3, 4
2, 6
1, 3
4, 6
1, 0
3, 5
6, 1
3, 3
2, 2
5, 2
1, 2
5, 3
3, 4
3, 3
4, 5
3, 5
0, 2
5, 3
3, 4
2, 5
3, 2
0, 2
2, 3
2, 3
3, 1
2, 3
3, 2
5, 1
2, 0
5, 3
3, 1
5, 2
6, 1
4, 0
2, 1
5, 4
2, 2
1, 2
6, 4
2, 2
3, 0
3, 1
3, 2
3, 5
2, 3
2, 2
3, 0
0, 1
1, 4
0, 0
5, 2
2, 3
1, 2
2, 5
1, 3
5, 4
0, 3
3, 2
5, 1
1, 3
5, 4
4, 7
5, 6
1, 3
2, 2
3, 3
2, 6
6, 4
1, 2
6, 4
2, 1
4, 7
1, 2
1, 0
4, 4
0, 2
1, 2
3, 4
1, 2
1, 5
2, 2
3, 4
4, 5
5, 0
2, 1
2, 2
3, 3
0, 2
2, 1
0, 1
3, 4
4, 2
2, 6
2, 0
4, 3
2, 1
2, 2
1, 8
0, 0
2, 3
2, 1
2, 5
0, 0
3, 1
4, 1
3, 2
2, 2
2, 2
1, 6
0, 1
2, 1
1, 2
2, 3
2, 2
0, 1
1, 1
1, 2
2, 3
2, 4
3, 2
3, 4
1, 7
4, 4
3, 4
2, 2
6, 3
2, 3
5, 2
4, 1
3, 2
5, 0
1, 3
0, 1
2, 2
2, 0
1, 0
2, 2
1, 1
2, 0
1, 4
2, 1
1, 2
3, 1
0, 1
2, 3
2, 2
2, 3
1, 0
2, 1
1, 0
0, 1
2, 2
1, 2
2, 0
3, 1
1, 1
2, 1
0, 1
1, 0
0, 2
1, 0
2, 2
1, 2
1, 1
1, 3
2, 0
0, 0
2, 0
4, 0
0, 0
0, 0
1, 0
3, 2
2, 0
3, 0
1, 1
2, 0
0, 1
0, 0
1, 0
1, 3
0, 0
2, 1
0, 1
1, 1
1, 2
2, 0
0, 0
0, 1
0, 0
1, 2
1, 4
0, 1
1, 0
1, 0
2, 1
3, 1
1, 0
0, 2
4, 1
0, 0
0, 0
0, 1
1, 1
0, 0
0, 0
0, 1
0, 2
1, 0
0, 1
0, 1
0, 0
1, 3
0, 0
0, 0
3, 1
1, 1
0, 0
1, 0
0, 3
1, 2
1, 0
1, 1
1, 2
1, 3
0, 0
0, 1
1, 0
0, 1
0, 2
0, 0
0, 0
2, 1
0, 0
0, 1
1, 0
0, 0
0, 1
0, 2
1, 0
0, 0
1, 0
1, 0
1, 0
1, 0
0, 1
1, 0
1, 0
0, 1
0, 0
2, 0
0, 1
0, 0
0, 2
0, 2
1, 1
0, 0
1, 0
0, 0
1, 0
1, 0
1, 0
0, 1
0, 0
1, 1
0, 0
1, 1
0, 0
0, 1
0, 1
0, 2
1, 0
1, 0
0, 1
1, 2
2, 0
0, 2
0, 0
0, 0
0, 0
0, 1
0, 0
0, 0
0, 0
0, 0
1, 0
0, 1
1, 0
0, 0
0, 0
0, 0
0, 0
1, 0
1, 0
0, 0
0, 0
0, 0
0, 0
1, 0
0, 0
0, 0
0, 1
1, 1
1, 0
0, 0
1, 0
0, 1
1, 0
0, 0
0, 0
0, 1
1, 0
0, 0
0, 0
0, 0
0, 0
1, 0
0, 0
0, 0
0, 0
0, 1
0, 0
0, 0
1, 0
0, 0
0, 0
1, 0
0, 2
0, 1
0, 0
1, 0
1, 0
0, 0
0, 1
1, 0
1, 0
0, 0
0, 0
0, 0
1, 0
1, 0
0, 0
0, 0
0, 0
0, 0
0, 1
0, 0
0, 0
0, 0
0, 0
0, 0
0, 0
1, 0
1, 0
0, 2
0, 0
0, 1
0, 1
0, 0
0, 0
2, 0
0, 0
0, 0
0, 0
0, 0
0, 0
0, 0
0, 0
1, 1
0, 1
1, 0
1, 0
0, 0
0, 0
2, 0
0, 0
0, 0
0, 0
0, 0
0, 0
0, 0
0, 1
0, 0
0, 0
0, 0
1, 0
0, 0
0, 0
1, 0
1, 1
1, 0
0, 0
0, 0
0, 1
0, 2
0, 0
0, 0
0, 0
1, 0
0, 1
0, 0
0, 1
0, 1
0, 0
0, 1
0, 0
0, 0
0, 1
1, 0
0, 1
0, 0
1, 0
1, 0
0, 0
0, 0
0, 0
0, 0
0, 0
0, 0
0, 0
0, 0
0, 0
0, 0
0, 0
0, 0
0, 0
0, 0
0, 0
0, 1
0, 0
0, 0
0, 0
0, 0
0, 0
0, 0
0, 0
0, 1
1, 0
0, 0
1, 0
0, 0
0, 0
0, 0
0, 0
0, 0
0, 0
0, 0
0, 0
0, 0
0, 0
0, 0
0, 0
0, 0
0, 0
0, 0
0, 0
0, 1
0, 0
0, 0
0, 0
0, 0
0, 1
0, 0
0, 0
0, 0
0, 0
2, 1
0, 0
0, 0
0, 0
0, 0
0, 0
0, 0
0, 0
0, 0
0, 0
0, 0
0, 0
1, 0
0, 0
0, 0
0, 0
0, 0
1, 0
0, 0
0, 0
0, 0
0, 0
0, 0
0, 0
0, 0
0, 0
0, 0
0, 0
0, 0
0, 0
0, 0
0, 0
0, 0
0, 0
0, 0
0, 0
0, 0
0, 0
0, 1
0, 0
0, 0
0, 0
0, 0
1, 0
0, 0
0, 0
0, 0
0, 0
0, 0
0, 0
0, 0
0, 0
0, 0
0, 0
0, 0
0, 0
0, 0
0, 0
0, 0
0, 0
0, 0
0, 0
0, 0
0, 0
0, 0
0, 0
0, 1
0, 0
0, 0
0, 0
0, 0
0, 0
0, 0
0, 0
0, 0
0, 0
0, 0
0, 0
0, 0
0, 0
0, 0
0, 0
0, 0
0, 0
0, 0
0, 0
0, 0
0, 0
0, 0
0, 0
0, 0
0, 0
0, 0
0, 0
0, 0
0, 0
0, 0
0, 0
0, 0
1, 0
0, 0
0, 0
0, 0
0, 0
0, 0
0, 0
0, 0
0, 0
0, 0
0, 0
0, 0
0, 0
0, 0
0, 0
0, 0
1, 0
0, 0
0, 0
0, 0
0, 0
0, 0
0, 0
0, 0
0, 0
0, 0
0, 0
0, 0
0, 0
0, 0
0, 0
0, 0
0, 0
0, 0
0, 0
0, 0
0, 0
0, 0
0, 0
0, 0
0, 0
0, 0
0, 0
0, 0
0, 0
0, 0
0, 0
0, 0
0, 0
0, 0
0, 0
0, 0
0, 0
0, 0
0, 0
0, 0
0, 0
0, 0
0, 0
0, 0
0, 0
0, 0
0, 0
0, 0
0, 0
0, 0
0, 0
0, 0
0, 0
0, 0
0, 0
0, 0
0, 0
0, 0
0, 0
0, 0
0, 0
0, 0
0, 0
0, 0
0, 0
0, 0
0, 0
0, 0
0, 0
0, 0
0, 0
0, 0
0, 0
0, 0
0, 0
0, 0
0, 0
0, 0
0, 0
0, 0
0, 0
0, 0
0, 0
0, 0
0, 0
0, 0
0, 0
0, 0
0, 0
0, 0
0, 0
0, 1
0, 0
0, 0
0, 0
0, 0
0, 0
0, 0
0, 0
0, 0
0, 0
0, 0
0, 0
0, 0
0, 0
0, 0
0, 0
0, 0
0, 0
0, 0
0, 0
0, 0
0, 0
0, 0
0, 0
0, 0
0, 0
0, 0
0, 0
0, 0
0, 0
0, 0
0, 0
0, 0
0, 0
0, 0
0, 0
0, 0
0, 0
0, 0
0, 0
0, 0
0, 0
0, 0
0, 0
0, 0
0, 0
0, 0
0, 0
0, 0
0, 0
0, 0
0, 0
0, 0
0, 0
0, 0
0, 0
0, 0
0, 0
0, 0
0, 0
0, 0
0, 0
0, 0
0, 0
0, 0
0, 0
0, 0
0, 0
0, 0
0, 0
0, 0
0, 0
0, 0
0, 0
0, 0
0, 0
0, 0
0, 0
0, 0
0, 0
0, 0
0, 0
0, 0
0, 0
0, 0
0, 0
0, 0
0, 0
0, 0
0, 0
0, 0
0, 0
0, 0
0, 0
0, 0
0, 0
0, 0
0, 0
0, 0
0, 0
0, 0
0, 0
0, 0
0, 0
0, 0
0, 0
0, 0
0, 0
0, 0
0, 0
0, 0
0, 0
0, 0
0, 0
0, 0
0, 0
0, 0
0, 0
0, 0
0, 0
0, 0
0, 0
0, 0
0, 0
0, 0
0, 0
0, 0
0, 0
0, 0
0, 0
0, 0
0, 0
0, 0
0, 0
0, 0
0, 0
0, 0
0, 0
0, 0
0, 0
0, 0
0, 0
0, 0
0, 0
0, 0
0, 0
0, 0
0, 0
0, 0
0, 0
0, 0
0, 0
0, 0
0, 0
0, 0
0, 0
0, 0
0, 0
0, 0
0, 0
0, 0
0, 0
0, 0
0, 0
0, 0
0, 0
0, 0
0, 0
0, 0
0, 0
0, 0
0, 0
0, 0
0, 0
0, 0
0, 0
0, 0
0, 0
0, 0
0, 0
0, 0
0, 0
0, 0
0, 0
0, 0
0, 0
0, 0
0, 0
0, 0
0, 0
0, 0
0, 0
0, 0
0, 0
0, 0
0, 0
0, 0
0, 0
0, 0
0, 0
0, 0
0, 0
0, 0
0, 0
0, 0
0, 0
0, 0
0, 0
0, 0
0, 0
0, 0
0, 0
0, 0
0, 0
0, 0
0, 0
0, 0
0, 0
0, 0
0, 0
0, 0
0, 0
0, 0
0, 0
0, 0
0, 0
0, 0
0, 0
0, 0
0, 0
0, 0
0, 0
0, 0
0, 0
0, 0
0, 0
0, 0
0, 0
0, 0
0, 0
0, 0
0, 0
0, 0
0, 0
0, 0
0, 0
0, 0
0, 0
0, 0
0, 0
0, 0
0, 0
0, 0
0, 0
0, 0
0, 0
0, 0
0, 0
0, 0
0, 0
0, 0
0, 0
0, 0
0, 0
0, 0
0, 0
0, 0
0, 0
0, 0
0, 0
0, 0
0, 0
0, 0
0, 0
0, 0
0, 0
0, 0
#ENDOFDATA     end of spectrum data