File: host_upload/06-09-2024/ps_0852/dump3/ps__0852shot_2189.msa
#FORMAT      : EMSA/MAS spectral data file
#VERSION     : TC202v2.0 PIXL
#TITLE       : N/A
#DATE        :       Date in the format DD-MMM-YYYY, for example 07-JUL-2010
#TIME        :             The time of day at which the spectrum was recorded, in 24-hour format
#OWNER       : PIXL Flight Model       (PIXL will use this to indicate which instrument took the data.)
#NPOINTS     : 4096     Number of data points in the spectrum (This can be zero for configuration only files)
#NCOLUMNS    : 2     Number of data columns in the spectrum (This can be zero for configuration only files)
#XUNITS      : eV
#YUNITS      : COUNTS
#DATATYPE    : YY
#XPERCHAN    : 7.862, 7.881   eV per channel (separate by commas if more than one detector)
#OFFSET      : 18.5, -22.4         eV of first channel  (separate by commas if more than one detector
#SIGNALTYPE  : XRF
#YP_TEMP     : 2.267
#LIVETIME    : 8.55916, 8.5331   seconds (separate by commas if more than one detector)
#REALTIME    : 10, 10.0   seconds (separate by commas if more than one detector)
#SPECTRUM    : start of spectrum data
0, 0
0, 0
0, 0
0, 0
0, 0
0, 0
0, 0
0, 0
0, 0
0, 0
0, 0
0, 0
0, 0
0, 0
0, 0
0, 0
0, 0
0, 0
0, 0
0, 0
0, 0
0, 0
0, 0
0, 0
0, 0
0, 0
0, 0
0, 0
0, 0
0, 0
0, 0
0, 0
0, 0
0, 0
3, 1
0, 0
3, 0
1, 1
13, 0
14, 0
22, 1
25, 0
21, 0
20, 1
16, 1
12, 2
8, 1
5, 4
9, 5
18, 11
29, 26
51, 28
69, 62
99, 65
98, 81
79, 82
66, 58
44, 43
31, 29
23, 15
13, 8
6, 2
6, 5
1, 6
3, 4
9, 0
4, 10
8, 11
16, 29
45, 61
83, 115
161, 156
241, 307
356, 374
391, 428
440, 406
335, 361
290, 266
203, 202
136, 111
73, 76
42, 40
25, 18
8, 10
9, 7
3, 3
3, 2
1, 0
2, 1
0, 0
2, 0
2, 1
0, 1
1, 1
3, 1
1, 4
0, 2
2, 3
2, 2
3, 3
7, 3
2, 1
4, 1
5, 2
8, 1
7, 3
9, 1
18, 3
59, 3
134, 7
278, 8
473, 16
818, 18
1088, 29
1405, 27
1561, 21
1485, 28
1361, 31
1005, 30
719, 27
419, 21
241, 26
111, 18
61, 13
31, 17
17, 17
19, 8
10, 8
7, 3
11, 7
2, 10
5, 5
1, 3
4, 1
3, 0
3, 5
1, 6
1, 3
1, 2
2, 1
0, 0
0, 0
2, 2
5, 0
2, 1
1, 1
1, 1
2, 4
1, 3
3, 2
3, 2
3, 4
8, 7
13, 8
12, 10
17, 13
15, 13
18, 14
13, 15
18, 17
12, 12
4, 11
7, 8
8, 10
2, 2
4, 3
4, 3
7, 0
6, 4
12, 2
12, 5
19, 6
32, 4
44, 5
55, 1
55, 1
70, 2
71, 2
75, 3
42, 4
39, 2
31, 3
20, 0
8, 3
14, 1
7, 5
7, 5
3, 12
7, 12
9, 14
8, 11
11, 10
11, 11
10, 13
7, 18
8, 25
13, 17
14, 29
8, 47
8, 66
13, 82
11, 107
8, 127
8, 149
3, 138
8, 152
3, 97
3, 87
6, 58
4, 46
5, 16
4, 17
5, 12
6, 10
6, 7
11, 4
6, 6
8, 8
4, 8
5, 4
5, 4
4, 3
4, 5
8, 4
6, 5
7, 6
8, 11
9, 11
12, 10
14, 14
20, 23
24, 10
24, 16
25, 13
29, 9
37, 17
36, 12
50, 10
34, 12
25, 1
34, 12
25, 9
13, 7
10, 13
20, 11
10, 22
31, 22
26, 33
41, 41
50, 46
65, 56
50, 75
59, 54
54, 44
41, 31
32, 36
16, 34
15, 34
20, 45
15, 53
18, 73
36, 78
42, 96
88, 153
145, 197
246, 388
440, 615
742, 925
1088, 1363
1461, 1652
1813, 2003
2090, 2252
2297, 2405
2211, 2139
1998, 1774
1652, 1402
1188, 1079
857, 726
563, 474
354, 258
177, 157
111, 96
60, 48
36, 18
32, 23
32, 14
49, 14
71, 21
73, 12
95, 18
124, 29
159, 41
156, 45
190, 77
222, 110
205, 184
242, 198
268, 280
336, 324
349, 343
333, 340
346, 308
275, 245
242, 201
192, 147
119, 103
77, 63
50, 44
27, 15
23, 10
10, 7
6, 7
4, 3
7, 7
7, 5
9, 7
11, 14
13, 14
18, 13
11, 16
19, 16
6, 6
10, 8
6, 5
5, 8
6, 6
4, 8
4, 10
4, 2
7, 1
2, 2
2, 7
3, 3
4, 3
4, 4
3, 4
3, 6
9, 5
8, 8
4, 11
6, 3
5, 6
6, 9
8, 5
18, 4
22, 3
24, 5
40, 9
42, 4
51, 5
64, 6
86, 6
94, 2
69, 3
65, 3
48, 4
61, 2
40, 3
36, 2
20, 5
27, 3
13, 4
11, 3
6, 2
1, 1
3, 4
2, 4
1, 2
4, 2
3, 5
0, 6
4, 7
3, 3
4, 8
5, 3
2, 7
3, 4
3, 6
5, 2
5, 3
4, 4
4, 4
5, 5
6, 3
8, 5
7, 3
6, 6
10, 6
3, 11
11, 9
3, 3
0, 9
6, 8
4, 7
5, 6
7, 15
3, 8
3, 5
3, 6
4, 3
0, 4
1, 7
2, 1
5, 8
3, 6
6, 6
5, 11
3, 7
4, 7
3, 4
4, 4
2, 2
3, 2
1, 5
0, 5
2, 9
3, 4
2, 3
0, 5
3, 6
2, 3
4, 4
2, 3
1, 1
2, 6
4, 1
3, 2
6, 2
6, 0
4, 1
3, 4
2, 5
1, 0
3, 1
4, 2
3, 1
2, 2
1, 1
1, 3
2, 4
2, 3
0, 4
6, 0
5, 1
2, 1
3, 0
2, 2
3, 1
3, 1
2, 0
2, 1
3, 4
1, 1
0, 3
1, 2
7, 2
2, 5
7, 1
3, 1
7, 4
2, 2
9, 10
4, 3
5, 1
7, 7
8, 4
11, 8
6, 3
6, 3
5, 6
2, 4
2, 6
5, 1
9, 5
2, 1
6, 2
4, 5
1, 3
0, 1
3, 4
5, 0
2, 4
3, 2
2, 1
0, 1
0, 2
2, 0
0, 0
3, 0
1, 2
0, 1
2, 0
1, 1
1, 1
1, 1
2, 1
2, 2
3, 3
2, 3
1, 0
6, 4
1, 0
1, 2
0, 1
1, 3
4, 0
2, 2
2, 3
2, 1
1, 0
1, 4
3, 2
2, 0
2, 3
0, 1
0, 0
1, 1
4, 2
3, 2
2, 1
3, 2
2, 2
1, 0
0, 4
0, 0
5, 2
2, 4
8, 0
2, 3
4, 0
2, 1
3, 1
1, 2
1, 3
3, 1
5, 3
4, 0
4, 0
2, 3
5, 6
0, 11
4, 7
2, 5
4, 3
1, 3
1, 2
4, 3
4, 1
5, 2
0, 2
0, 3
2, 1
1, 0
0, 3
1, 3
2, 1
0, 0
0, 0
0, 0
3, 6
2, 2
0, 1
2, 3
1, 1
4, 2
1, 1
2, 3
1, 2
1, 2
3, 1
2, 0
4, 5
0, 3
2, 3
0, 2
0, 5
1, 3
2, 2
2, 3
1, 2
2, 0
0, 1
0, 2
0, 0
3, 1
0, 1
3, 2
1, 3
0, 0
1, 2
2, 1
0, 0
1, 2
0, 2
1, 3
1, 0
2, 0
2, 2
3, 1
1, 1
0, 1
1, 2
0, 2
1, 2
1, 1
1, 2
0, 0
0, 0
1, 1
1, 1
4, 0
0, 1
0, 0
2, 0
0, 0
1, 1
0, 2
0, 0
0, 0
1, 1
2, 2
0, 0
0, 1
0, 0
0, 0
0, 2
2, 0
0, 0
0, 0
2, 0
1, 1
1, 1
0, 0
2, 2
0, 0
2, 1
1, 1
1, 0
2, 0
1, 0
1, 1
0, 0
0, 0
1, 0
1, 2
2, 1
1, 1
3, 1
0, 1
0, 1
0, 0
0, 0
1, 0
1, 1
0, 0
2, 2
0, 0
1, 3
0, 0
0, 0
1, 1
1, 0
0, 1
0, 0
0, 0
0, 2
1, 1
0, 0
0, 2
0, 0
3, 0
0, 0
0, 2
0, 1
1, 0
1, 0
0, 0
1, 0
0, 0
0, 0
2, 1
0, 1
0, 0
1, 1
0, 0
1, 0
1, 1
0, 0
0, 5
2, 1
0, 0
0, 0
1, 0
2, 2
0, 1
1, 0
0, 0
0, 0
1, 1
1, 0
2, 0
1, 0
0, 0
0, 0
1, 0
1, 1
0, 3
1, 1
0, 0
3, 0
0, 0
0, 1
4, 0
0, 0
0, 1
0, 1
0, 1
0, 0
0, 0
1, 0
0, 0
1, 0
2, 0
0, 0
0, 0
0, 1
0, 0
2, 0
0, 0
0, 1
0, 0
0, 0
0, 0
1, 0
0, 0
0, 0
0, 0
0, 0
0, 0
1, 0
1, 0
0, 1
0, 0
0, 1
0, 0
0, 0
0, 0
1, 0
0, 0
0, 1
0, 0
0, 0
0, 1
0, 1
0, 1
0, 0
0, 0
0, 0
0, 0
1, 0
0, 0
0, 1
0, 1
0, 0
0, 0
1, 0
0, 0
0, 0
0, 0
0, 0
0, 0
0, 0
0, 2
0, 0
0, 0
0, 0
0, 1
0, 0
1, 0
0, 0
0, 0
0, 0
0, 0
0, 0
0, 0
0, 1
0, 0
1, 1
0, 0
1, 2
1, 0
0, 0
0, 1
0, 0
0, 1
0, 0
0, 1
1, 0
0, 0
0, 0
0, 0
1, 0
0, 1
1, 0
0, 0
0, 0
1, 0
0, 0
0, 0
0, 0
0, 0
0, 1
0, 0
0, 0
0, 0
0, 0
0, 0
0, 0
0, 0
0, 0
0, 0
0, 0
0, 0
0, 0
0, 0
0, 1
0, 0
0, 0
0, 0
0, 0
0, 0
0, 0
0, 0
0, 1
0, 0
0, 0
0, 0
0, 0
0, 1
0, 0
0, 0
2, 1
0, 1
0, 0
0, 0
0, 0
0, 0
0, 0
0, 0
0, 0
0, 0
0, 0
0, 0
0, 0
0, 0
1, 0
0, 1
0, 0
0, 0
0, 0
0, 1
0, 0
0, 0
0, 0
0, 0
0, 0
0, 0
0, 0
0, 0
0, 0
0, 0
0, 0
0, 0
1, 0
1, 0
0, 0
0, 0
0, 0
0, 1
0, 0
0, 0
0, 0
0, 0
0, 0
0, 0
0, 0
0, 0
0, 0
0, 0
0, 0
0, 0
0, 0
0, 0
0, 0
0, 0
0, 0
0, 0
0, 0
0, 0
0, 0
0, 0
0, 0
0, 0
0, 0
1, 0
0, 0
0, 0
0, 0
0, 0
0, 0
0, 0
0, 0
0, 0
0, 0
0, 0
0, 0
0, 0
0, 1
0, 0
0, 0
0, 0
0, 0
0, 0
0, 0
0, 0
0, 1
0, 0
0, 0
0, 1
0, 0
0, 0
0, 0
0, 0
0, 0
0, 1
0, 0
0, 1
0, 0
0, 0
0, 0
0, 0
0, 0
0, 0
0, 0
0, 1
0, 0
0, 0
0, 0
0, 0
0, 0
0, 0
0, 0
0, 0
0, 0
0, 0
0, 0
0, 0
0, 0
0, 0
1, 0
0, 0
0, 0
0, 0
1, 0
0, 0
0, 0
0, 1
0, 0
0, 0
0, 0
1, 0
0, 0
0, 0
0, 0
0, 0
0, 0
0, 0
0, 0
0, 0
0, 0
0, 0
0, 0
0, 0
0, 0
0, 0
1, 0
0, 0
0, 0
0, 0
0, 0
0, 0
0, 0
0, 0
0, 0
0, 0
0, 0
0, 0
0, 0
0, 0
0, 0
0, 0
0, 0
0, 0
0, 0
0, 0
0, 0
0, 0
0, 0
0, 0
0, 0
0, 0
0, 0
0, 0
0, 0
0, 0
0, 0
0, 0
0, 0
0, 0
0, 0
0, 0
0, 0
0, 0
0, 0
0, 0
0, 0
0, 0
0, 0
0, 1
0, 0
0, 0
0, 0
0, 0
0, 0
0, 0
0, 0
0, 0
0, 0
0, 0
0, 0
0, 0
0, 0
0, 0
0, 0
0, 0
0, 0
0, 0
0, 0
0, 0
0, 0
0, 0
0, 0
0, 0
0, 0
0, 0
0, 0
0, 0
0, 0
0, 0
0, 0
0, 0
0, 0
0, 0
0, 0
0, 0
0, 0
0, 0
0, 0
0, 0
0, 0
0, 0
0, 0
0, 0
0, 0
0, 0
0, 0
0, 0
0, 0
0, 0
0, 0
0, 0
0, 0
0, 0
0, 0
0, 0
0, 0
0, 0
0, 0
0, 0
0, 0
0, 0
0, 0
0, 0
0, 0
0, 0
0, 0
0, 0
0, 0
0, 0
0, 0
0, 0
0, 0
0, 0
0, 0
0, 0
0, 0
0, 0
0, 0
0, 0
0, 0
0, 0
0, 0
0, 0
0, 0
0, 0
0, 0
0, 0
0, 0
0, 0
0, 0
0, 0
0, 0
0, 0
0, 0
0, 0
0, 0
0, 0
0, 0
0, 0
0, 0
0, 0
0, 0
0, 0
0, 0
0, 0
0, 0
0, 0
0, 0
0, 0
0, 0
0, 0
0, 0
0, 0
0, 0
0, 0
0, 0
0, 0
0, 0
0, 0
0, 0
0, 0
0, 0
0, 0
0, 0
0, 0
0, 0
0, 0
0, 0
0, 0
0, 0
0, 0
0, 0
0, 0
0, 0
0, 0
0, 0
0, 0
0, 0
0, 0
0, 0
0, 0
0, 0
0, 0
0, 0
0, 0
0, 0
0, 0
0, 0
0, 0
0, 0
0, 0
0, 0
0, 0
0, 0
0, 0
0, 0
0, 0
0, 0
0, 0
0, 0
0, 0
0, 0
0, 0
0, 0
0, 0
0, 0
0, 0
0, 0
0, 0
0, 0
0, 0
0, 0
0, 0
0, 0
0, 0
0, 0
0, 0
0, 0
0, 0
0, 0
0, 0
0, 0
0, 0
0, 0
0, 0
0, 0
0, 0
0, 0
0, 0
0, 0
0, 0
0, 0
0, 0
0, 0
0, 0
0, 0
0, 0
0, 0
0, 0
0, 0
0, 0
0, 0
0, 0
0, 0
0, 0
0, 0
0, 0
0, 0
0, 0
0, 0
0, 0
0, 0
0, 0
0, 0
0, 0
0, 0
0, 0
0, 0
0, 0
0, 0
0, 0
0, 0
0, 0
0, 0
0, 0
0, 0
0, 0
0, 0
0, 0
0, 0
0, 0
0, 0
0, 0
0, 0
0, 0
0, 0
0, 0
0, 0
0, 0
0, 0
0, 0
0, 0
0, 0
0, 0
0, 0
0, 0
0, 0
0, 0
0, 0
0, 0
0, 0
0, 0
0, 0
0, 0
0, 0
0, 0
0, 0
0, 0
0, 0
0, 0
0, 0
0, 0
0, 0
0, 0
0, 0
0, 0
0, 0
0, 0
0, 0
0, 0
0, 0
0, 0
0, 0
0, 0
0, 0
0, 0
0, 0
0, 0
0, 0
0, 0
0, 0
0, 0
0, 0
0, 0
0, 0
0, 0
0, 0
0, 0
0, 0
0, 0
0, 0
0, 0
0, 0
0, 0
0, 0
0, 0
0, 0
0, 0
0, 0
0, 0
0, 0
0, 0
0, 0
0, 0
0, 0
0, 0
0, 0
0, 0
0, 0
0, 0
0, 0
0, 0
0, 0
0, 0
0, 0
0, 0
0, 0
0, 0
0, 0
0, 0
0, 0
0, 0
0, 0
0, 0
0, 0
0, 0
0, 0
0, 0
0, 0
0, 0
0, 0
0, 0
0, 0
0, 0
0, 0
0, 0
#ENDOFDATA     end of spectrum data