File: host_upload/06-09-2024/ps_0852/dump3/ps__0852shot_2010.msa
#FORMAT      : EMSA/MAS spectral data file
#VERSION     : TC202v2.0 PIXL
#TITLE       : N/A
#DATE        :       Date in the format DD-MMM-YYYY, for example 07-JUL-2010
#TIME        :             The time of day at which the spectrum was recorded, in 24-hour format
#OWNER       : PIXL Flight Model       (PIXL will use this to indicate which instrument took the data.)
#NPOINTS     : 4096     Number of data points in the spectrum (This can be zero for configuration only files)
#NCOLUMNS    : 2     Number of data columns in the spectrum (This can be zero for configuration only files)
#XUNITS      : eV
#YUNITS      : COUNTS
#DATATYPE    : YY
#XPERCHAN    : 7.862, 7.881   eV per channel (separate by commas if more than one detector)
#OFFSET      : 18.5, -22.4         eV of first channel  (separate by commas if more than one detector
#SIGNALTYPE  : XRF
#YP_TEMP     : 2.203
#LIVETIME    : 8.5329, 8.60511   seconds (separate by commas if more than one detector)
#REALTIME    : 10, 10.0   seconds (separate by commas if more than one detector)
#SPECTRUM    : start of spectrum data
0, 0
0, 0
0, 0
0, 0
0, 0
0, 0
0, 0
0, 0
0, 0
0, 0
0, 0
0, 0
0, 0
0, 0
0, 0
0, 0
0, 0
0, 0
0, 0
0, 0
0, 0
0, 0
0, 0
0, 0
0, 0
0, 0
0, 0
0, 0
0, 0
0, 0
0, 0
0, 0
0, 0
0, 0
0, 0
0, 2
0, 0
2, 1
2, 1
2, 2
3, 2
2, 1
1, 3
1, 1
0, 4
2, 2
0, 1
1, 5
7, 2
11, 20
34, 17
25, 29
43, 41
67, 41
70, 41
51, 35
47, 33
38, 23
35, 22
11, 4
12, 5
6, 4
5, 3
6, 3
2, 2
6, 0
6, 4
6, 10
20, 13
47, 26
70, 55
102, 111
207, 176
266, 186
284, 254
302, 224
270, 210
229, 163
158, 106
96, 77
61, 38
31, 19
13, 13
5, 10
9, 10
5, 3
5, 6
1, 6
3, 6
2, 3
3, 9
13, 9
21, 26
34, 36
77, 80
103, 104
190, 175
285, 216
270, 238
273, 224
258, 231
226, 183
155, 130
100, 80
63, 56
58, 39
35, 27
38, 28
33, 32
37, 38
45, 46
57, 54
80, 59
78, 58
99, 74
74, 86
78, 55
66, 47
56, 35
54, 29
49, 25
51, 37
52, 38
32, 20
43, 21
28, 17
23, 15
22, 10
18, 21
14, 11
14, 19
7, 21
1, 11
5, 16
3, 7
3, 8
1, 5
2, 8
5, 3
2, 2
1, 5
3, 7
6, 1
3, 2
0, 5
2, 2
0, 4
7, 2
3, 2
7, 4
5, 5
4, 9
14, 6
16, 14
14, 23
20, 24
35, 32
24, 28
27, 30
24, 36
25, 10
20, 11
10, 8
12, 7
6, 2
6, 4
9, 5
6, 5
1, 1
2, 7
10, 10
9, 6
14, 2
8, 8
15, 1
10, 3
13, 6
13, 7
6, 4
9, 4
4, 4
8, 1
7, 3
7, 6
6, 4
5, 1
7, 2
7, 2
8, 7
12, 10
5, 9
8, 10
11, 7
10, 15
17, 6
12, 13
7, 5
14, 11
11, 18
19, 20
19, 20
5, 18
13, 23
9, 22
4, 15
11, 15
4, 14
8, 9
8, 9
2, 5
14, 7
9, 1
5, 9
11, 11
8, 8
7, 9
7, 9
9, 6
7, 7
6, 7
4, 4
3, 11
6, 6
11, 8
12, 8
10, 7
6, 10
6, 15
13, 16
14, 8
8, 14
16, 15
11, 17
14, 10
18, 12
11, 6
12, 8
16, 7
17, 7
19, 9
14, 8
13, 5
13, 9
20, 6
23, 13
25, 17
40, 25
47, 43
66, 57
63, 59
70, 52
78, 57
61, 64
75, 43
65, 42
40, 25
36, 24
29, 19
15, 16
24, 25
25, 22
35, 35
58, 51
99, 102
159, 169
324, 310
535, 536
813, 796
1264, 1237
1705, 1505
2158, 1851
2477, 2008
2653, 2147
2667, 1931
2289, 1703
1883, 1369
1512, 892
1005, 650
648, 394
411, 227
252, 119
116, 68
67, 43
40, 18
21, 19
22, 9
14, 15
11, 9
18, 16
24, 12
36, 22
23, 31
54, 52
85, 80
115, 119
154, 176
201, 205
256, 250
354, 295
368, 306
390, 322
383, 283
338, 246
231, 179
209, 134
128, 94
106, 58
59, 33
31, 16
15, 10
15, 8
10, 4
11, 5
8, 6
17, 6
4, 5
13, 15
16, 14
16, 8
16, 7
10, 7
10, 5
10, 7
7, 8
6, 6
7, 2
6, 3
4, 2
6, 3
8, 4
6, 4
8, 5
6, 4
6, 2
7, 3
4, 2
2, 3
5, 0
4, 7
3, 3
3, 3
7, 2
2, 4
5, 1
5, 2
7, 3
4, 3
6, 3
2, 5
8, 4
9, 2
6, 3
8, 6
9, 3
8, 4
8, 1
9, 1
6, 1
10, 1
5, 3
9, 6
12, 1
8, 1
12, 8
6, 5
14, 4
13, 6
10, 5
9, 5
9, 3
10, 3
6, 5
5, 10
7, 5
1, 9
7, 8
4, 12
6, 11
2, 12
4, 12
1, 15
3, 14
0, 11
5, 10
2, 14
6, 11
3, 16
4, 15
2, 11
3, 17
8, 20
8, 23
3, 24
1, 27
4, 26
9, 23
5, 11
6, 10
4, 9
4, 6
7, 2
6, 4
5, 4
12, 7
3, 4
10, 4
8, 1
13, 6
11, 2
9, 2
5, 4
1, 4
7, 3
2, 3
3, 2
3, 2
3, 3
2, 1
7, 1
4, 5
8, 0
2, 3
8, 6
4, 0
5, 2
4, 7
7, 3
2, 4
4, 2
3, 2
4, 0
2, 3
1, 5
4, 1
2, 1
2, 4
6, 1
3, 5
2, 0
2, 3
4, 3
2, 1
2, 2
3, 0
1, 1
2, 2
3, 7
4, 1
1, 2
5, 0
2, 2
1, 6
2, 0
5, 2
6, 2
0, 1
2, 0
5, 1
4, 3
4, 1
1, 0
0, 2
2, 0
1, 3
1, 3
3, 3
1, 5
5, 2
3, 2
4, 4
6, 7
4, 1
2, 2
6, 2
8, 2
2, 1
2, 3
3, 1
4, 2
2, 1
2, 5
4, 3
4, 2
8, 3
6, 1
2, 1
6, 2
2, 1
4, 2
3, 2
2, 2
5, 1
4, 3
0, 2
3, 3
3, 2
3, 9
2, 1
1, 0
4, 6
3, 1
0, 2
1, 0
4, 3
2, 0
6, 0
5, 0
2, 2
5, 1
0, 1
7, 0
2, 2
1, 4
2, 1
2, 1
3, 1
1, 3
3, 0
2, 1
3, 1
2, 1
1, 4
1, 1
4, 1
1, 1
3, 1
0, 1
5, 1
2, 1
0, 0
2, 2
2, 0
1, 1
2, 3
1, 2
2, 0
2, 1
2, 2
2, 5
4, 1
6, 1
7, 1
4, 6
4, 1
5, 0
2, 3
4, 2
2, 1
0, 2
0, 1
1, 2
3, 1
0, 1
3, 1
2, 0
2, 1
2, 1
1, 2
2, 3
3, 3
0, 0
1, 4
3, 1
3, 1
2, 1
2, 1
2, 2
1, 0
0, 1
1, 1
2, 1
3, 1
1, 1
7, 3
0, 1
0, 0
2, 1
0, 1
1, 0
3, 1
0, 2
1, 3
2, 2
2, 0
1, 2
6, 2
2, 0
1, 2
1, 1
2, 1
1, 1
0, 0
2, 2
2, 0
2, 2
3, 0
2, 1
3, 0
2, 2
0, 0
1, 1
3, 2
1, 0
0, 0
0, 2
0, 0
1, 2
3, 0
0, 0
2, 0
4, 0
3, 0
1, 2
2, 1
2, 1
0, 0
2, 0
0, 2
1, 0
0, 1
1, 1
0, 1
0, 1
1, 3
0, 1
1, 1
1, 1
2, 1
2, 2
1, 1
1, 0
0, 1
0, 1
2, 0
0, 0
0, 2
1, 0
0, 0
1, 0
1, 1
2, 2
0, 0
1, 0
0, 1
0, 0
0, 0
0, 0
1, 0
0, 0
0, 0
3, 1
1, 0
0, 2
1, 0
2, 0
1, 0
0, 0
0, 1
0, 1
0, 1
2, 0
0, 1
0, 0
0, 0
0, 0
0, 0
0, 0
1, 0
0, 0
0, 0
0, 0
0, 1
1, 1
2, 1
1, 0
1, 1
1, 0
1, 1
0, 1
0, 1
0, 1
1, 0
0, 0
0, 1
0, 1
1, 1
0, 1
0, 0
0, 0
1, 0
2, 0
0, 0
2, 1
0, 0
0, 0
0, 0
0, 1
0, 0
0, 1
0, 0
0, 1
1, 1
0, 0
0, 1
0, 1
1, 1
2, 0
1, 0
0, 0
0, 0
1, 0
1, 0
1, 0
0, 0
0, 0
0, 0
0, 0
0, 0
0, 0
1, 0
0, 1
0, 1
1, 0
0, 0
0, 0
0, 0
2, 0
0, 1
0, 0
1, 0
0, 1
0, 1
0, 0
0, 0
0, 0
0, 0
1, 0
0, 0
0, 0
0, 0
0, 0
0, 1
0, 0
0, 0
0, 0
1, 0
1, 0
0, 0
0, 0
0, 0
0, 0
0, 1
0, 0
0, 0
1, 0
0, 1
2, 0
0, 0
1, 0
0, 0
2, 0
0, 0
0, 1
1, 0
0, 1
1, 0
0, 0
1, 0
0, 0
0, 0
0, 0
0, 0
0, 0
0, 0
1, 0
0, 0
1, 0
0, 1
0, 0
0, 0
1, 0
0, 0
0, 0
0, 0
0, 0
0, 0
1, 0
0, 0
0, 0
1, 0
0, 0
0, 0
0, 0
1, 0
0, 0
1, 0
0, 2
0, 0
0, 1
1, 0
0, 0
0, 1
2, 0
1, 1
1, 0
0, 0
0, 0
0, 0
0, 0
1, 0
1, 0
0, 0
0, 0
0, 0
0, 0
0, 0
0, 0
0, 0
0, 0
0, 0
0, 0
0, 0
0, 1
0, 0
0, 0
0, 0
0, 0
0, 0
0, 0
0, 0
0, 0
0, 0
0, 0
0, 0
0, 0
0, 0
0, 0
0, 1
0, 0
0, 0
0, 0
0, 0
0, 0
0, 1
0, 0
0, 0
0, 0
1, 0
0, 0
0, 0
1, 0
0, 1
0, 0
0, 1
0, 0
2, 0
0, 0
0, 0
0, 0
1, 0
0, 0
0, 0
0, 0
0, 0
0, 0
0, 0
0, 0
1, 0
0, 0
0, 0
0, 0
0, 1
0, 0
0, 0
0, 0
0, 0
0, 0
0, 0
0, 0
0, 0
0, 0
0, 0
0, 0
1, 0
0, 0
0, 0
0, 0
0, 0
0, 1
0, 0
0, 0
0, 0
0, 0
0, 0
0, 0
0, 0
0, 0
0, 0
0, 0
0, 0
0, 0
0, 0
0, 0
0, 0
0, 0
0, 0
0, 0
0, 0
1, 0
1, 0
0, 0
0, 0
0, 0
1, 0
0, 0
0, 0
0, 0
0, 0
0, 0
0, 0
0, 0
0, 0
0, 0
0, 0
0, 0
0, 0
0, 0
0, 0
0, 0
0, 1
0, 1
0, 0
0, 0
0, 0
0, 0
0, 0
0, 0
0, 0
0, 0
0, 0
0, 0
0, 0
0, 0
0, 0
0, 0
0, 2
0, 0
0, 0
0, 0
0, 0
0, 0
0, 0
0, 0
0, 0
0, 0
0, 0
0, 0
1, 0
0, 0
0, 0
1, 0
0, 0
0, 0
0, 0
0, 0
0, 0
0, 0
0, 0
0, 0
0, 0
0, 0
0, 0
0, 0
0, 0
0, 0
0, 0
0, 0
0, 0
0, 0
0, 0
0, 0
0, 0
0, 0
0, 0
0, 0
0, 0
0, 0
0, 0
0, 0
0, 0
0, 0
0, 0
0, 0
0, 0
0, 0
0, 0
0, 0
0, 0
0, 0
0, 0
0, 0
0, 0
0, 0
0, 0
0, 0
0, 0
0, 0
0, 0
0, 0
0, 0
0, 0
0, 0
0, 0
0, 0
0, 0
1, 0
0, 0
0, 0
0, 0
0, 0
0, 0
0, 0
0, 0
0, 0
0, 0
0, 0
0, 0
0, 0
0, 0
0, 0
0, 0
0, 0
0, 0
0, 0
0, 0
0, 0
0, 0
0, 0
0, 0
0, 0
0, 0
0, 0
0, 0
0, 0
0, 0
0, 0
0, 0
0, 0
0, 0
0, 0
0, 0
0, 0
0, 0
0, 0
0, 0
0, 0
0, 0
0, 0
0, 0
0, 0
0, 0
0, 0
0, 0
0, 0
0, 0
0, 0
0, 0
0, 0
0, 0
0, 0
0, 0
0, 0
0, 0
0, 0
0, 0
0, 0
0, 0
0, 0
0, 0
0, 0
0, 0
0, 0
0, 0
0, 0
0, 0
0, 0
0, 0
0, 0
0, 0
0, 0
0, 0
0, 0
0, 0
0, 0
0, 0
0, 0
0, 0
0, 0
0, 0
0, 0
0, 0
0, 0
0, 0
0, 0
0, 0
0, 0
0, 0
0, 0
0, 0
0, 0
0, 0
0, 0
0, 0
0, 0
0, 0
0, 0
0, 0
0, 0
0, 0
0, 0
0, 0
0, 0
0, 0
0, 0
0, 0
0, 0
0, 0
0, 0
0, 0
0, 0
0, 0
0, 0
0, 0
0, 0
0, 0
0, 0
0, 0
0, 0
0, 0
0, 0
0, 0
0, 0
0, 0
0, 0
0, 0
0, 0
0, 0
0, 0
0, 0
0, 0
0, 0
0, 0
0, 0
0, 0
0, 0
0, 0
0, 0
0, 0
0, 0
0, 0
0, 0
0, 0
0, 0
0, 0
0, 0
0, 0
0, 0
0, 0
0, 0
0, 0
0, 0
0, 0
0, 0
0, 0
0, 0
0, 0
0, 0
0, 0
0, 0
0, 0
0, 0
0, 0
0, 0
0, 0
0, 0
0, 0
0, 0
0, 0
0, 0
0, 0
0, 0
0, 0
0, 0
0, 0
0, 0
0, 0
0, 0
0, 0
0, 0
0, 0
0, 0
0, 0
0, 0
0, 0
0, 0
0, 0
0, 0
0, 0
0, 0
0, 0
0, 0
0, 0
0, 0
0, 0
0, 0
0, 0
0, 0
0, 0
0, 0
0, 0
0, 0
0, 0
0, 0
0, 0
0, 0
0, 0
0, 0
0, 0
0, 0
0, 0
0, 0
0, 0
0, 0
0, 0
0, 0
0, 0
0, 0
0, 0
0, 0
0, 0
0, 0
0, 0
0, 0
0, 0
0, 0
0, 0
0, 0
0, 0
0, 0
0, 0
0, 0
0, 0
0, 0
0, 0
0, 0
0, 0
0, 0
0, 0
0, 0
0, 0
0, 0
0, 0
0, 0
0, 0
0, 0
0, 0
0, 0
0, 0
0, 0
0, 0
0, 0
0, 0
0, 0
0, 0
0, 0
0, 0
0, 0
0, 0
0, 0
0, 0
0, 0
0, 0
0, 0
0, 0
0, 0
0, 0
0, 0
0, 0
0, 0
0, 0
0, 0
0, 0
0, 0
0, 0
0, 0
0, 0
0, 0
0, 0
0, 0
0, 0
0, 0
0, 0
0, 0
0, 0
0, 0
0, 0
0, 0
0, 0
0, 0
0, 0
0, 0
0, 0
0, 0
0, 0
0, 0
0, 0
0, 0
0, 0
0, 0
0, 0
0, 0
0, 0
0, 0
0, 0
0, 0
0, 0
0, 0
0, 0
0, 0
0, 0
0, 0
0, 0
0, 0
0, 0
0, 0
0, 0
0, 0
0, 0
0, 0
0, 0
0, 0
0, 0
0, 0
0, 0
0, 0
0, 0
0, 0
0, 0
0, 0
0, 0
0, 0
0, 0
0, 0
0, 0
0, 0
0, 0
0, 0
0, 0
0, 0
0, 0
0, 0
0, 0
0, 0
0, 0
0, 0
0, 0
#ENDOFDATA     end of spectrum data