File: host_upload/06-09-2024/ps_0852/dump3/ps__0852shot_2311.msa
#FORMAT      : EMSA/MAS spectral data file
#VERSION     : TC202v2.0 PIXL
#TITLE       : N/A
#DATE        :       Date in the format DD-MMM-YYYY, for example 07-JUL-2010
#TIME        :             The time of day at which the spectrum was recorded, in 24-hour format
#OWNER       : PIXL Flight Model       (PIXL will use this to indicate which instrument took the data.)
#NPOINTS     : 4096     Number of data points in the spectrum (This can be zero for configuration only files)
#NCOLUMNS    : 2     Number of data columns in the spectrum (This can be zero for configuration only files)
#XUNITS      : eV
#YUNITS      : COUNTS
#DATATYPE    : YY
#XPERCHAN    : 7.862, 7.881   eV per channel (separate by commas if more than one detector)
#OFFSET      : 18.5, -22.4         eV of first channel  (separate by commas if more than one detector
#SIGNALTYPE  : XRF
#YP_TEMP     : 2.396
#LIVETIME    : 8.56258, 8.56101   seconds (separate by commas if more than one detector)
#REALTIME    : 10, 10.0   seconds (separate by commas if more than one detector)
#SPECTRUM    : start of spectrum data
0, 0
0, 0
0, 0
0, 0
0, 0
0, 0
0, 0
0, 0
0, 0
0, 0
0, 0
0, 0
0, 0
0, 0
0, 0
0, 0
0, 0
0, 0
0, 0
0, 0
0, 0
0, 0
0, 0
0, 0
0, 0
0, 0
0, 0
0, 0
0, 0
0, 0
0, 0
0, 0
0, 0
0, 0
1, 0
2, 2
0, 0
3, 2
7, 0
14, 0
11, 0
11, 3
12, 0
13, 0
8, 1
6, 0
11, 5
1, 4
4, 3
11, 18
23, 20
37, 52
44, 53
64, 65
71, 57
75, 76
56, 40
63, 44
25, 22
22, 15
8, 10
5, 7
4, 3
5, 2
5, 2
7, 2
3, 8
8, 15
29, 27
46, 53
80, 95
181, 173
251, 313
351, 353
387, 415
428, 404
323, 341
282, 266
176, 206
131, 116
66, 65
50, 31
20, 19
14, 10
5, 2
12, 4
6, 7
6, 4
2, 3
1, 3
3, 3
2, 0
3, 0
5, 4
6, 5
10, 7
12, 16
17, 19
20, 19
25, 24
22, 27
15, 11
12, 15
7, 6
11, 1
12, 7
28, 7
20, 8
56, 12
112, 26
195, 28
420, 36
584, 40
789, 59
1015, 60
1094, 68
1008, 59
845, 59
658, 39
428, 35
236, 32
157, 26
102, 19
79, 20
65, 9
58, 23
40, 9
36, 11
31, 9
17, 7
9, 5
10, 4
6, 6
5, 5
4, 0
2, 2
2, 1
1, 0
1, 2
0, 1
7, 3
3, 1
3, 1
4, 0
2, 4
1, 1
0, 1
6, 6
3, 6
1, 3
4, 0
4, 9
4, 10
7, 16
9, 13
11, 22
24, 24
18, 28
16, 15
17, 18
15, 20
14, 7
6, 4
7, 5
7, 4
11, 7
13, 16
10, 22
19, 26
16, 21
14, 30
12, 31
16, 31
4, 25
13, 11
6, 13
3, 10
6, 5
4, 4
2, 2
5, 3
6, 4
5, 2
6, 6
7, 3
9, 1
4, 4
5, 2
5, 5
3, 6
13, 3
3, 12
9, 12
11, 7
16, 14
17, 11
20, 11
18, 11
19, 14
23, 17
13, 11
7, 2
9, 11
10, 5
8, 6
7, 6
10, 5
7, 6
7, 1
4, 1
13, 6
8, 7
5, 2
2, 10
7, 3
5, 5
4, 11
9, 8
8, 4
7, 11
11, 5
11, 9
5, 10
4, 13
10, 13
7, 15
8, 12
11, 7
15, 12
14, 17
11, 9
15, 13
23, 12
10, 17
13, 8
10, 13
8, 5
10, 7
14, 6
9, 11
9, 3
4, 3
12, 9
14, 7
15, 22
19, 21
26, 32
38, 55
45, 58
65, 53
77, 51
62, 65
65, 62
50, 33
48, 38
37, 27
35, 26
20, 18
18, 13
19, 17
18, 21
19, 34
46, 67
75, 122
170, 211
326, 353
515, 555
785, 965
1162, 1293
1573, 1767
1983, 2066
2345, 2472
2481, 2547
2318, 2264
2187, 1972
1723, 1565
1331, 1083
936, 710
597, 438
383, 256
205, 144
121, 84
62, 40
41, 28
30, 12
22, 16
31, 18
31, 24
30, 19
28, 30
37, 21
36, 41
55, 38
65, 81
117, 121
146, 161
198, 244
257, 293
316, 339
384, 354
370, 380
356, 324
299, 269
249, 229
180, 157
135, 109
98, 58
49, 35
32, 19
24, 12
11, 7
7, 5
10, 5
4, 7
9, 10
9, 8
13, 20
12, 12
15, 14
6, 14
16, 8
6, 11
10, 7
8, 8
10, 5
9, 2
4, 5
1, 2
5, 3
4, 4
3, 5
1, 5
3, 1
4, 4
3, 6
3, 6
2, 2
1, 6
3, 6
2, 11
6, 5
8, 9
7, 8
7, 10
3, 13
6, 14
4, 17
6, 14
8, 12
6, 7
9, 5
3, 2
6, 6
9, 6
2, 4
5, 8
5, 4
4, 2
2, 1
1, 5
4, 2
3, 2
2, 1
5, 4
5, 6
3, 2
5, 2
7, 3
2, 3
5, 4
1, 6
8, 3
2, 5
5, 2
5, 1
4, 2
3, 1
4, 2
5, 3
3, 1
1, 2
4, 3
5, 1
7, 3
5, 8
8, 6
7, 3
8, 6
4, 4
4, 5
2, 4
6, 3
2, 6
3, 4
5, 10
0, 6
9, 8
4, 4
4, 9
1, 7
3, 2
0, 3
4, 6
7, 3
9, 3
2, 5
9, 1
2, 3
2, 1
3, 5
3, 2
2, 5
5, 2
1, 4
5, 3
1, 3
5, 5
3, 3
6, 1
2, 3
4, 1
8, 3
9, 3
3, 2
9, 3
11, 4
8, 3
7, 2
3, 1
2, 1
5, 0
4, 2
2, 3
2, 3
4, 4
5, 6
4, 2
2, 3
1, 2
3, 4
2, 3
3, 2
3, 2
1, 5
1, 2
3, 1
0, 2
3, 0
3, 1
2, 2
3, 4
2, 1
2, 1
7, 7
9, 1
2, 3
5, 3
4, 9
6, 3
4, 3
5, 0
7, 2
7, 1
5, 5
0, 4
5, 2
3, 1
2, 2
0, 3
4, 6
5, 0
4, 3
2, 4
3, 0
4, 2
1, 2
0, 2
3, 1
2, 3
4, 2
3, 0
2, 1
2, 3
2, 1
1, 1
2, 1
3, 1
2, 2
4, 2
4, 1
2, 1
4, 4
0, 1
3, 3
1, 3
0, 4
1, 3
3, 2
3, 2
3, 3
1, 1
3, 1
1, 2
3, 0
1, 3
4, 2
7, 0
4, 1
3, 2
2, 1
2, 2
2, 4
2, 1
2, 1
0, 0
1, 3
0, 6
3, 1
2, 4
1, 1
0, 2
4, 2
4, 3
1, 1
2, 0
3, 3
3, 1
3, 3
2, 1
3, 4
2, 2
3, 3
1, 0
1, 0
2, 5
2, 0
3, 2
2, 1
5, 5
4, 3
3, 4
3, 3
5, 5
7, 5
6, 3
2, 3
6, 5
1, 2
5, 4
3, 5
4, 2
1, 1
1, 1
1, 0
2, 3
2, 3
5, 2
0, 0
2, 1
1, 4
1, 0
2, 2
1, 3
2, 3
0, 1
4, 1
1, 0
0, 1
2, 1
2, 2
3, 7
0, 0
0, 0
2, 1
2, 0
0, 1
2, 2
1, 0
1, 2
3, 0
2, 0
0, 1
3, 1
1, 0
0, 0
2, 1
1, 1
4, 0
0, 1
4, 0
1, 2
0, 4
0, 0
1, 1
1, 0
1, 0
0, 1
0, 1
0, 1
0, 1
2, 0
2, 0
2, 0
0, 1
1, 2
0, 1
4, 0
2, 1
1, 1
2, 1
2, 3
1, 0
1, 2
0, 1
0, 0
2, 1
0, 2
2, 3
0, 0
0, 0
0, 1
0, 4
2, 0
0, 2
0, 1
0, 0
1, 1
1, 2
3, 1
0, 0
0, 0
0, 1
2, 2
0, 0
1, 0
0, 0
0, 1
2, 0
1, 1
1, 0
1, 0
0, 0
0, 1
0, 1
0, 1
0, 1
0, 0
0, 2
1, 1
0, 3
0, 0
0, 0
1, 1
1, 0
1, 0
1, 0
0, 1
1, 0
0, 2
2, 1
3, 2
1, 0
0, 1
1, 1
1, 1
1, 0
0, 0
0, 1
1, 1
0, 0
1, 0
2, 1
1, 0
0, 2
0, 1
0, 0
1, 0
0, 2
1, 1
0, 1
0, 0
1, 0
0, 1
0, 0
0, 0
0, 0
0, 0
0, 1
0, 0
2, 1
0, 1
1, 0
0, 1
1, 0
1, 0
0, 0
0, 0
0, 0
0, 0
0, 0
0, 0
1, 0
1, 1
0, 3
0, 1
1, 0
0, 0
0, 0
1, 0
0, 1
0, 2
1, 0
1, 0
1, 1
0, 0
1, 1
0, 0
0, 0
1, 0
1, 1
2, 1
0, 0
0, 0
0, 0
0, 0
0, 0
0, 0
1, 0
0, 0
0, 0
0, 2
1, 0
0, 0
0, 1
0, 0
1, 0
0, 0
1, 0
0, 0
0, 0
0, 0
0, 0
0, 0
0, 0
0, 0
0, 1
0, 0
0, 0
0, 0
0, 1
0, 0
0, 0
0, 0
1, 0
0, 1
0, 0
0, 0
0, 1
1, 0
1, 0
0, 0
1, 0
1, 0
0, 0
0, 0
0, 0
0, 1
0, 0
0, 0
0, 0
0, 0
0, 1
0, 0
0, 0
0, 0
1, 0
0, 0
2, 1
1, 0
0, 0
0, 1
1, 1
0, 0
0, 0
0, 0
1, 1
0, 0
0, 0
0, 2
0, 1
0, 1
0, 0
0, 0
0, 1
0, 0
0, 0
1, 0
0, 0
0, 0
0, 3
0, 0
0, 0
0, 0
0, 1
1, 0
0, 1
0, 0
0, 0
2, 0
0, 0
0, 0
0, 0
0, 0
0, 1
1, 0
0, 0
0, 0
1, 0
0, 0
0, 0
0, 0
0, 0
0, 0
0, 0
0, 0
0, 0
0, 1
0, 0
0, 0
0, 0
0, 0
0, 0
0, 0
1, 0
0, 0
0, 0
0, 0
0, 0
0, 0
0, 0
0, 0
0, 0
0, 0
0, 0
0, 0
0, 1
0, 0
1, 0
0, 0
0, 0
1, 0
0, 1
0, 0
0, 0
1, 0
0, 1
0, 0
0, 0
0, 0
0, 0
0, 0
0, 0
0, 0
0, 0
0, 0
0, 0
0, 0
0, 0
0, 0
0, 0
0, 0
0, 0
0, 1
0, 0
0, 0
0, 0
0, 0
0, 0
0, 0
0, 0
0, 0
0, 0
0, 0
0, 0
0, 0
0, 0
0, 0
0, 0
0, 0
0, 0
0, 0
0, 0
0, 0
0, 0
0, 0
0, 0
0, 0
0, 0
0, 0
0, 1
0, 0
0, 0
0, 0
0, 0
0, 0
1, 0
0, 0
0, 0
0, 0
0, 0
0, 0
0, 0
0, 0
0, 0
0, 0
0, 0
1, 0
0, 0
0, 0
0, 0
0, 0
0, 0
0, 0
0, 0
0, 0
0, 0
0, 0
0, 0
0, 0
0, 0
0, 0
0, 0
0, 0
0, 0
0, 0
0, 0
0, 0
0, 0
0, 0
0, 0
0, 1
0, 0
0, 0
0, 0
0, 0
0, 0
0, 0
0, 0
0, 0
0, 0
0, 0
0, 0
0, 0
0, 0
0, 0
0, 0
0, 0
0, 0
0, 0
0, 0
0, 0
0, 0
0, 0
0, 0
0, 0
0, 0
0, 0
0, 0
0, 0
0, 0
0, 0
0, 0
0, 0
0, 0
0, 0
1, 0
0, 0
0, 0
0, 0
0, 0
0, 0
0, 0
1, 0
0, 0
0, 0
0, 0
0, 0
0, 0
0, 0
0, 0
0, 0
0, 0
0, 0
0, 0
0, 0
0, 0
0, 0
0, 0
0, 0
0, 0
0, 0
0, 0
0, 0
0, 0
0, 0
0, 0
0, 0
0, 0
0, 0
0, 0
0, 0
0, 0
0, 0
0, 0
0, 0
0, 0
0, 0
0, 0
0, 0
0, 0
0, 0
0, 0
0, 0
0, 0
0, 0
0, 0
0, 0
0, 0
0, 1
0, 0
0, 0
0, 0
0, 0
0, 0
0, 0
0, 0
0, 0
0, 0
0, 0
0, 0
0, 0
0, 0
0, 0
0, 0
0, 0
0, 0
0, 0
0, 0
0, 0
0, 0
0, 0
0, 0
0, 0
0, 0
0, 0
0, 0
0, 0
0, 0
0, 0
0, 0
0, 0
0, 0
0, 0
0, 0
0, 0
0, 0
0, 0
0, 0
0, 0
0, 0
0, 0
0, 0
0, 0
0, 0
0, 0
0, 0
0, 0
0, 0
0, 0
0, 0
0, 0
0, 0
0, 0
0, 0
0, 0
0, 0
0, 0
0, 0
0, 0
0, 0
0, 0
0, 0
1, 0
0, 0
0, 0
0, 0
0, 0
0, 0
0, 0
0, 0
0, 0
0, 0
0, 0
0, 0
0, 0
0, 0
0, 0
0, 0
0, 0
0, 0
0, 0
0, 0
0, 0
0, 0
0, 0
0, 0
0, 0
0, 0
0, 0
0, 0
0, 0
0, 0
0, 0
0, 0
0, 0
0, 0
0, 0
0, 0
0, 0
0, 0
0, 0
0, 0
0, 0
0, 0
0, 0
0, 0
0, 0
0, 0
0, 0
0, 0
0, 0
0, 0
0, 0
0, 0
0, 0
0, 0
0, 0
0, 0
0, 0
0, 0
0, 0
0, 0
0, 0
0, 0
0, 0
0, 0
0, 0
0, 0
0, 0
0, 0
0, 0
0, 0
0, 0
0, 0
0, 0
0, 0
0, 0
0, 0
0, 0
0, 0
0, 0
0, 0
0, 0
0, 0
0, 0
0, 0
0, 0
0, 0
0, 0
0, 0
0, 0
0, 0
0, 0
0, 0
0, 0
0, 0
0, 0
0, 0
0, 0
0, 0
0, 0
0, 0
0, 0
0, 0
0, 0
0, 0
0, 0
0, 0
0, 0
0, 0
0, 0
0, 0
0, 0
0, 0
0, 0
0, 0
0, 0
0, 0
0, 0
0, 0
0, 0
0, 0
0, 0
0, 0
0, 0
0, 0
0, 0
0, 0
0, 0
0, 0
0, 0
0, 0
0, 0
0, 0
0, 0
0, 0
0, 0
0, 0
0, 0
0, 0
0, 0
0, 0
0, 0
0, 0
0, 0
0, 0
0, 0
0, 0
0, 0
0, 0
0, 0
0, 0
0, 0
0, 0
0, 0
0, 0
0, 0
0, 0
0, 0
0, 0
0, 0
0, 0
0, 0
0, 0
0, 0
0, 0
0, 0
0, 0
0, 0
0, 0
0, 0
0, 0
0, 0
0, 0
0, 0
0, 0
0, 0
0, 0
0, 0
0, 0
0, 0
0, 0
0, 0
0, 0
0, 0
0, 0
0, 0
0, 0
0, 0
0, 0
0, 0
0, 0
0, 0
0, 0
0, 0
0, 0
0, 0
0, 0
0, 0
0, 0
0, 0
0, 0
0, 0
0, 0
0, 0
0, 0
0, 0
0, 0
0, 0
0, 0
0, 0
0, 0
0, 0
0, 0
0, 0
0, 0
0, 0
0, 0
0, 0
0, 0
0, 0
0, 0
0, 0
0, 0
0, 0
0, 0
0, 0
0, 0
0, 0
0, 0
0, 0
0, 0
0, 0
0, 0
0, 0
0, 0
0, 0
0, 0
0, 0
0, 0
0, 0
0, 0
0, 0
0, 0
0, 0
0, 0
0, 0
0, 0
0, 0
0, 0
0, 0
0, 0
0, 0
0, 0
0, 0
0, 0
0, 0
0, 0
0, 0
0, 0
0, 0
0, 0
0, 0
0, 0
0, 0
0, 0
0, 0
0, 0
0, 0
0, 0
0, 0
0, 0
0, 0
0, 0
0, 0
0, 0
#ENDOFDATA     end of spectrum data