File: host_upload/06-09-2024/ps_0852/dump3/ps__0852shot_2455.msa
#FORMAT      : EMSA/MAS spectral data file
#VERSION     : TC202v2.0 PIXL
#TITLE       : N/A
#DATE        :       Date in the format DD-MMM-YYYY, for example 07-JUL-2010
#TIME        :             The time of day at which the spectrum was recorded, in 24-hour format
#OWNER       : PIXL Flight Model       (PIXL will use this to indicate which instrument took the data.)
#NPOINTS     : 4096     Number of data points in the spectrum (This can be zero for configuration only files)
#NCOLUMNS    : 2     Number of data columns in the spectrum (This can be zero for configuration only files)
#XUNITS      : eV
#YUNITS      : COUNTS
#DATATYPE    : YY
#XPERCHAN    : 7.862, 7.881   eV per channel (separate by commas if more than one detector)
#OFFSET      : 18.5, -22.4         eV of first channel  (separate by commas if more than one detector
#SIGNALTYPE  : XRF
#YP_TEMP     : 2.3
#LIVETIME    : 8.57345, 8.55451   seconds (separate by commas if more than one detector)
#REALTIME    : 10, 10.0   seconds (separate by commas if more than one detector)
#SPECTRUM    : start of spectrum data
0, 0
0, 0
0, 0
0, 0
0, 0
0, 0
0, 0
0, 0
0, 0
0, 0
0, 0
0, 0
0, 0
0, 0
0, 0
0, 0
0, 0
0, 0
0, 0
0, 0
0, 0
0, 0
0, 0
0, 0
0, 0
0, 0
0, 0
0, 0
0, 0
0, 0
0, 0
0, 0
0, 0
1, 1
1, 0
2, 2
1, 0
2, 1
0, 0
1, 1
1, 1
1, 1
1, 2
3, 3
3, 2
0, 0
0, 1
2, 3
6, 3
15, 12
30, 19
37, 35
62, 50
78, 63
85, 77
64, 51
63, 52
57, 26
25, 25
13, 18
5, 10
10, 4
2, 1
3, 4
6, 1
7, 5
8, 5
5, 8
25, 21
57, 41
98, 95
182, 146
312, 253
399, 341
475, 371
448, 352
453, 364
303, 269
201, 185
150, 114
70, 49
41, 29
20, 23
13, 9
3, 4
3, 3
1, 0
1, 2
3, 2
1, 3
2, 1
9, 3
7, 7
18, 9
30, 19
37, 39
67, 38
80, 71
98, 73
94, 69
83, 58
78, 52
47, 33
24, 33
20, 22
12, 10
19, 8
12, 16
11, 11
20, 20
20, 15
26, 33
41, 36
52, 38
36, 31
50, 43
39, 33
30, 21
31, 27
25, 20
24, 18
14, 28
18, 18
14, 24
13, 11
11, 16
15, 13
12, 7
6, 10
13, 7
7, 7
4, 6
2, 4
3, 3
1, 2
2, 2
5, 3
1, 2
0, 3
2, 3
4, 2
0, 1
2, 4
8, 6
1, 1
3, 4
5, 3
8, 5
11, 1
3, 3
7, 7
17, 21
28, 21
51, 30
66, 45
105, 58
109, 84
125, 86
119, 84
97, 74
81, 56
42, 36
27, 19
17, 20
11, 17
7, 11
10, 11
19, 15
16, 11
18, 13
22, 16
29, 19
14, 13
14, 12
12, 9
9, 3
7, 6
6, 6
9, 3
2, 6
5, 4
3, 4
7, 3
1, 3
7, 3
1, 5
11, 3
5, 3
12, 9
13, 6
15, 11
8, 9
15, 18
7, 16
20, 7
11, 13
18, 20
16, 11
16, 11
13, 12
14, 8
6, 4
6, 7
7, 6
4, 6
6, 3
7, 6
7, 4
7, 8
3, 8
5, 7
7, 1
5, 10
6, 4
7, 8
8, 4
3, 7
10, 5
6, 3
8, 6
4, 4
6, 7
6, 18
6, 20
13, 20
15, 35
9, 37
18, 37
17, 67
28, 49
22, 61
14, 52
25, 50
16, 29
10, 25
13, 25
11, 13
8, 15
7, 8
6, 11
11, 12
12, 13
6, 14
14, 12
6, 25
13, 22
30, 36
32, 34
39, 44
39, 46
58, 55
62, 55
63, 62
54, 51
42, 30
28, 46
26, 33
18, 19
13, 19
12, 15
16, 33
27, 41
48, 73
83, 114
146, 190
267, 318
473, 543
778, 825
1097, 1128
1551, 1594
1997, 1907
2286, 2060
2404, 2118
2365, 1894
2130, 1775
1776, 1281
1356, 990
962, 648
614, 411
357, 208
214, 124
122, 68
63, 32
43, 22
21, 23
14, 6
14, 18
15, 20
16, 16
20, 23
21, 29
26, 36
54, 59
55, 65
102, 120
162, 163
215, 202
232, 264
312, 315
333, 288
347, 305
344, 313
326, 234
227, 188
207, 156
127, 84
78, 44
60, 32
39, 19
13, 14
13, 7
3, 14
7, 13
9, 23
8, 19
12, 18
12, 25
11, 20
13, 24
11, 22
12, 16
16, 16
11, 13
6, 10
10, 6
6, 5
3, 4
3, 1
3, 5
3, 5
3, 3
6, 1
4, 2
3, 2
2, 3
8, 2
5, 1
4, 5
7, 5
6, 3
9, 3
3, 5
11, 11
7, 2
7, 10
10, 5
15, 9
13, 7
16, 7
5, 7
7, 6
11, 5
8, 3
11, 9
5, 9
9, 4
3, 9
6, 9
3, 6
4, 9
6, 7
5, 9
3, 5
7, 4
6, 5
4, 7
8, 5
6, 4
11, 3
9, 7
10, 3
4, 7
10, 5
8, 6
7, 2
8, 3
3, 2
4, 2
8, 4
5, 5
8, 3
5, 1
3, 2
9, 2
3, 4
5, 5
1, 4
6, 3
5, 6
7, 6
7, 4
2, 4
4, 1
4, 0
5, 2
4, 3
9, 3
5, 1
6, 0
4, 2
6, 3
9, 2
4, 2
11, 3
5, 4
4, 1
3, 5
3, 1
1, 3
1, 4
4, 5
1, 1
4, 2
3, 6
4, 10
1, 7
5, 6
3, 7
2, 10
3, 8
2, 4
3, 9
1, 11
5, 7
6, 7
1, 8
1, 5
3, 9
0, 3
6, 2
7, 5
5, 3
2, 1
6, 2
5, 0
4, 4
5, 0
7, 5
5, 3
5, 5
4, 3
10, 1
13, 2
8, 4
8, 3
5, 1
4, 0
3, 4
5, 1
8, 4
4, 3
4, 4
1, 4
4, 6
0, 1
4, 7
7, 4
1, 5
4, 7
3, 8
4, 4
1, 5
2, 7
1, 7
4, 0
4, 2
3, 1
3, 3
0, 3
2, 2
1, 1
3, 2
3, 3
0, 3
2, 1
2, 3
2, 3
2, 3
5, 2
3, 6
3, 1
2, 1
3, 4
5, 2
3, 2
2, 4
4, 0
4, 1
2, 1
3, 2
2, 3
5, 1
7, 1
3, 1
1, 2
2, 2
1, 2
3, 2
2, 4
4, 1
5, 3
6, 4
2, 3
5, 6
0, 1
1, 4
5, 3
4, 2
3, 1
4, 2
3, 3
3, 0
4, 1
1, 2
3, 1
2, 2
1, 2
1, 1
3, 2
0, 2
1, 2
1, 1
1, 3
2, 4
4, 0
0, 2
0, 1
1, 1
1, 1
1, 2
2, 3
1, 2
4, 2
2, 1
2, 2
0, 2
1, 2
1, 4
3, 0
3, 3
9, 3
4, 4
3, 5
5, 1
2, 7
3, 3
2, 1
6, 4
3, 5
2, 1
5, 0
7, 1
2, 0
0, 0
2, 3
1, 3
1, 1
0, 1
0, 1
1, 3
2, 0
2, 4
4, 3
1, 3
2, 3
2, 4
3, 3
4, 1
0, 3
1, 1
4, 0
2, 1
3, 1
1, 1
1, 1
4, 2
2, 2
1, 0
4, 1
2, 1
1, 0
2, 0
0, 2
1, 2
1, 0
2, 0
2, 1
2, 3
1, 1
3, 0
2, 0
0, 3
1, 0
1, 0
1, 2
0, 1
1, 1
1, 0
2, 3
1, 2
1, 2
2, 0
1, 3
1, 0
2, 0
0, 1
1, 0
0, 3
0, 1
2, 2
0, 1
0, 0
0, 0
0, 2
0, 2
1, 0
1, 1
2, 1
1, 2
0, 3
4, 1
0, 1
0, 0
0, 0
1, 1
0, 0
0, 2
1, 0
0, 0
0, 0
1, 1
1, 2
0, 1
0, 1
0, 0
1, 0
0, 0
1, 0
2, 0
0, 0
0, 1
2, 1
1, 0
0, 1
2, 1
1, 0
0, 1
2, 2
0, 1
1, 0
1, 3
1, 2
1, 0
0, 1
1, 0
1, 1
0, 0
1, 0
0, 1
0, 1
0, 0
0, 0
0, 1
0, 1
1, 0
0, 0
0, 0
1, 0
1, 0
2, 0
0, 1
1, 0
0, 0
1, 0
1, 0
0, 0
0, 1
1, 0
2, 1
0, 1
1, 0
0, 0
1, 0
0, 1
0, 0
0, 0
0, 2
2, 0
0, 1
0, 0
0, 1
0, 0
0, 0
2, 0
0, 0
0, 0
1, 1
1, 0
1, 0
0, 0
0, 0
1, 0
0, 0
0, 2
0, 1
1, 0
0, 0
2, 0
0, 0
0, 0
1, 1
0, 1
1, 1
0, 0
1, 1
1, 0
0, 1
0, 0
0, 0
0, 0
0, 0
0, 0
0, 0
0, 0
0, 0
0, 0
1, 0
1, 1
1, 1
1, 0
0, 1
2, 0
0, 0
2, 1
0, 0
0, 0
1, 0
0, 0
0, 2
0, 0
0, 0
0, 1
3, 0
0, 0
0, 0
1, 0
0, 0
0, 0
0, 3
0, 0
0, 0
0, 1
1, 0
0, 0
0, 0
0, 1
1, 1
0, 1
1, 0
1, 0
0, 0
0, 0
0, 0
0, 0
0, 0
0, 0
1, 0
0, 0
1, 0
0, 0
0, 0
0, 0
0, 0
0, 2
1, 0
0, 0
0, 0
0, 0
1, 0
0, 0
0, 0
0, 0
0, 0
0, 1
0, 1
0, 0
1, 0
0, 0
0, 0
1, 0
1, 0
0, 0
0, 0
0, 0
0, 1
1, 0
0, 0
0, 0
0, 0
0, 0
0, 0
0, 0
1, 0
1, 0
0, 0
0, 0
1, 0
0, 0
0, 0
0, 1
0, 1
0, 0
0, 0
1, 0
0, 0
0, 0
0, 0
0, 1
0, 1
0, 0
0, 0
0, 0
1, 0
0, 0
0, 0
1, 1
0, 0
0, 1
2, 0
0, 0
1, 0
0, 0
0, 0
0, 0
0, 0
0, 0
0, 0
0, 0
0, 0
0, 0
0, 0
0, 0
0, 0
0, 0
0, 0
0, 0
0, 0
0, 1
0, 0
0, 0
0, 0
0, 0
0, 0
0, 0
0, 0
0, 1
0, 0
0, 0
2, 0
0, 0
0, 0
1, 0
0, 0
1, 0
0, 0
0, 0
0, 0
0, 0
0, 0
1, 0
0, 0
0, 0
2, 0
0, 0
0, 0
0, 0
0, 0
0, 0
0, 0
0, 0
0, 0
0, 0
0, 0
0, 0
0, 0
0, 0
0, 0
0, 0
0, 0
0, 0
1, 0
0, 0
0, 0
0, 0
0, 0
0, 0
0, 0
0, 0
0, 0
0, 0
0, 0
0, 0
0, 0
0, 0
0, 0
0, 0
0, 0
0, 0
0, 0
0, 0
0, 0
0, 0
0, 0
0, 0
0, 0
0, 0
0, 0
0, 0
0, 0
0, 0
0, 0
0, 0
0, 0
0, 0
0, 0
0, 0
0, 0
0, 0
1, 0
0, 0
0, 0
0, 0
0, 0
1, 0
0, 0
0, 0
0, 0
0, 0
0, 0
0, 0
0, 0
0, 0
1, 0
0, 0
0, 0
0, 0
0, 0
0, 0
0, 0
0, 1
0, 0
0, 0
0, 0
0, 0
0, 0
0, 0
0, 0
0, 0
0, 0
0, 0
0, 0
0, 0
0, 0
0, 0
0, 0
0, 0
0, 0
0, 0
0, 0
1, 0
0, 0
0, 0
0, 0
0, 0
0, 0
0, 0
0, 0
0, 0
0, 0
0, 0
0, 0
0, 0
0, 0
0, 0
0, 0
1, 0
0, 0
1, 0
0, 0
0, 0
0, 0
0, 0
0, 0
0, 0
0, 0
0, 0
0, 0
0, 0
0, 0
0, 0
0, 0
0, 0
0, 0
0, 0
0, 0
0, 0
0, 0
0, 0
0, 0
0, 0
0, 0
0, 0
0, 0
0, 0
0, 0
0, 0
0, 0
0, 0
0, 0
0, 0
0, 0
0, 0
1, 0
0, 0
0, 0
0, 0
0, 0
0, 0
0, 0
0, 0
0, 0
0, 0
0, 0
0, 0
0, 0
0, 0
0, 0
0, 0
0, 0
0, 0
0, 0
0, 0
0, 0
0, 0
0, 0
0, 0
0, 0
0, 0
0, 0
0, 0
0, 0
0, 0
0, 0
0, 0
0, 0
0, 0
0, 0
0, 0
0, 0
0, 0
0, 0
0, 0
0, 0
0, 0
0, 0
0, 0
0, 0
0, 0
0, 0
0, 0
0, 0
0, 0
0, 0
0, 0
0, 0
0, 0
0, 0
0, 0
0, 0
0, 0
0, 0
0, 0
0, 0
0, 0
0, 0
0, 0
0, 0
0, 0
0, 0
0, 0
0, 0
0, 0
0, 0
0, 0
0, 0
0, 0
0, 0
0, 0
0, 1
0, 0
0, 0
0, 0
0, 0
0, 0
0, 0
0, 0
0, 0
0, 0
0, 0
0, 0
0, 0
0, 0
0, 0
0, 0
0, 0
0, 0
0, 0
0, 0
0, 0
0, 0
0, 0
0, 0
0, 0
0, 0
0, 0
0, 0
0, 0
0, 0
0, 0
0, 0
0, 0
0, 0
0, 0
0, 0
0, 0
0, 0
0, 0
0, 0
0, 0
0, 0
0, 0
0, 0
0, 0
0, 0
0, 0
0, 0
0, 0
0, 0
0, 0
0, 0
0, 0
0, 0
0, 0
0, 0
0, 0
0, 0
0, 0
0, 0
0, 0
0, 0
0, 0
0, 0
0, 0
0, 0
0, 0
0, 0
0, 0
0, 0
0, 0
0, 0
0, 0
0, 0
0, 0
0, 0
0, 0
0, 0
0, 0
0, 0
0, 0
0, 0
0, 0
0, 0
0, 0
0, 0
0, 0
0, 0
0, 0
0, 0
0, 0
0, 0
0, 0
0, 0
0, 0
0, 0
0, 0
0, 0
0, 0
0, 0
0, 0
0, 0
0, 0
0, 0
0, 0
0, 0
0, 0
0, 0
0, 0
0, 0
0, 0
0, 0
0, 0
0, 0
0, 0
0, 0
0, 0
0, 0
0, 0
0, 0
0, 0
0, 0
0, 0
0, 0
0, 0
0, 0
0, 0
0, 0
0, 0
0, 0
0, 0
0, 0
0, 0
0, 0
0, 0
0, 0
0, 0
0, 0
0, 0
0, 0
0, 0
0, 0
0, 0
0, 0
0, 0
0, 0
0, 0
0, 0
0, 0
0, 0
0, 0
0, 0
0, 0
0, 0
0, 0
0, 0
0, 0
0, 0
0, 0
0, 0
0, 0
0, 0
0, 0
0, 0
0, 0
0, 0
0, 0
0, 0
0, 0
0, 0
0, 0
0, 0
0, 0
0, 0
0, 0
0, 0
0, 0
0, 0
0, 0
0, 0
0, 0
0, 0
0, 0
0, 0
0, 0
0, 0
0, 0
0, 0
0, 0
0, 0
0, 0
0, 0
0, 0
0, 0
0, 0
0, 0
0, 0
0, 0
0, 0
0, 0
0, 0
0, 0
0, 0
0, 0
0, 0
0, 0
0, 0
0, 0
0, 0
0, 0
0, 0
0, 0
0, 0
0, 0
0, 0
0, 0
0, 0
0, 0
0, 0
0, 0
0, 0
0, 0
0, 0
0, 0
0, 0
0, 0
0, 0
0, 0
0, 0
0, 0
0, 0
0, 0
0, 0
0, 0
0, 0
0, 0
0, 0
0, 0
0, 0
0, 0
0, 0
0, 0
0, 0
0, 0
0, 0
0, 0
0, 0
0, 0
0, 0
0, 0
0, 0
0, 0
0, 0
0, 0
0, 0
0, 0
0, 0
0, 0
0, 0
0, 0
0, 0
0, 0
0, 0
0, 0
0, 0
0, 0
0, 0
0, 0
#ENDOFDATA     end of spectrum data