File: host_upload/06-09-2024/ps_0852/dump3/ps__0852shot_2472.msa
#FORMAT      : EMSA/MAS spectral data file
#VERSION     : TC202v2.0 PIXL
#TITLE       : N/A
#DATE        :       Date in the format DD-MMM-YYYY, for example 07-JUL-2010
#TIME        :             The time of day at which the spectrum was recorded, in 24-hour format
#OWNER       : PIXL Flight Model       (PIXL will use this to indicate which instrument took the data.)
#NPOINTS     : 4096     Number of data points in the spectrum (This can be zero for configuration only files)
#NCOLUMNS    : 2     Number of data columns in the spectrum (This can be zero for configuration only files)
#XUNITS      : eV
#YUNITS      : COUNTS
#DATATYPE    : YY
#XPERCHAN    : 7.862, 7.881   eV per channel (separate by commas if more than one detector)
#OFFSET      : 18.5, -22.4         eV of first channel  (separate by commas if more than one detector
#SIGNALTYPE  : XRF
#YP_TEMP     : 2.203
#LIVETIME    : 8.55424, 8.54367   seconds (separate by commas if more than one detector)
#REALTIME    : 10, 10.0   seconds (separate by commas if more than one detector)
#SPECTRUM    : start of spectrum data
0, 0
0, 0
0, 0
0, 0
0, 0
0, 0
0, 0
0, 0
0, 0
0, 0
0, 0
0, 0
0, 0
0, 0
0, 0
0, 0
0, 0
0, 0
0, 0
0, 0
0, 0
0, 0
0, 0
0, 0
0, 0
0, 0
0, 0
0, 0
0, 0
0, 0
0, 0
0, 0
0, 0
0, 0
0, 0
1, 1
0, 0
0, 1
0, 1
0, 2
1, 0
1, 1
1, 0
1, 3
1, 1
1, 0
1, 1
3, 5
8, 9
13, 11
18, 16
48, 48
62, 60
76, 76
78, 80
81, 71
56, 54
48, 33
39, 23
21, 14
10, 9
5, 7
4, 2
3, 0
1, 3
4, 4
9, 5
9, 7
25, 21
46, 44
97, 96
168, 154
273, 254
362, 325
458, 381
411, 359
400, 339
307, 237
206, 186
123, 123
71, 57
25, 37
17, 13
3, 8
10, 3
2, 0
1, 1
0, 1
2, 1
2, 1
2, 1
3, 3
5, 4
13, 9
15, 18
21, 32
39, 38
60, 69
68, 79
74, 63
67, 57
50, 44
48, 30
18, 18
17, 18
14, 9
4, 11
8, 9
8, 14
18, 19
21, 21
23, 24
32, 41
31, 30
41, 35
47, 31
55, 34
42, 31
32, 26
26, 35
22, 29
18, 22
17, 19
11, 14
17, 24
13, 13
10, 13
12, 17
12, 9
5, 4
3, 1
5, 4
2, 1
5, 1
2, 5
3, 1
5, 4
3, 5
1, 2
2, 3
1, 3
3, 1
3, 3
4, 3
3, 4
2, 3
3, 6
3, 1
0, 2
2, 2
6, 3
3, 5
5, 5
12, 9
11, 11
11, 15
11, 11
20, 13
21, 17
15, 13
8, 11
9, 11
9, 6
6, 5
4, 4
4, 2
5, 6
6, 4
3, 7
9, 7
4, 9
10, 7
11, 4
6, 4
8, 16
10, 17
5, 23
3, 19
3, 25
8, 25
7, 24
9, 30
8, 18
9, 18
7, 9
5, 11
8, 5
8, 7
2, 8
12, 4
2, 7
14, 8
8, 19
6, 11
15, 15
16, 10
12, 17
9, 23
12, 30
14, 31
11, 45
12, 52
14, 47
12, 43
13, 45
14, 49
7, 29
10, 28
13, 13
10, 17
9, 9
6, 5
10, 6
7, 7
5, 10
11, 6
6, 5
4, 4
9, 3
10, 6
8, 8
3, 5
9, 11
11, 14
8, 15
13, 12
5, 13
12, 23
18, 15
10, 15
8, 14
16, 18
18, 20
13, 9
15, 15
17, 7
7, 16
8, 15
12, 12
15, 20
16, 25
10, 28
12, 29
17, 36
19, 43
22, 41
33, 45
57, 45
56, 73
43, 75
75, 59
74, 65
61, 73
49, 55
56, 49
58, 33
59, 34
71, 23
104, 11
122, 17
131, 23
173, 26
202, 52
250, 92
273, 180
368, 336
559, 530
756, 873
1193, 1333
1573, 1706
1986, 2151
2359, 2313
2535, 2435
2279, 2153
2179, 1894
1739, 1506
1299, 1000
934, 672
632, 453
342, 251
177, 137
89, 59
41, 34
37, 17
20, 21
23, 7
13, 12
21, 16
19, 19
22, 25
19, 29
36, 38
43, 58
77, 93
111, 137
137, 179
221, 199
259, 249
342, 345
355, 376
363, 357
363, 331
287, 274
235, 213
173, 145
154, 114
81, 67
60, 40
32, 19
16, 17
19, 13
12, 6
13, 5
16, 11
18, 9
13, 15
13, 8
8, 13
11, 15
10, 12
13, 7
10, 4
5, 7
7, 4
9, 6
12, 5
6, 7
2, 5
5, 3
9, 7
6, 5
9, 7
7, 5
7, 4
6, 3
5, 5
4, 1
10, 6
7, 4
7, 5
5, 6
2, 6
5, 9
5, 4
5, 5
8, 5
6, 5
9, 7
8, 9
6, 4
12, 7
12, 1
8, 10
13, 5
22, 7
21, 5
27, 6
42, 12
20, 10
33, 5
31, 6
29, 3
17, 5
29, 7
17, 2
13, 7
12, 3
7, 6
7, 7
4, 4
5, 6
2, 5
7, 5
3, 4
5, 2
6, 4
5, 3
4, 0
2, 5
3, 4
3, 1
2, 0
2, 4
2, 7
3, 4
1, 4
1, 3
3, 3
3, 6
1, 5
2, 5
3, 11
5, 5
5, 3
6, 2
4, 4
4, 5
2, 5
5, 3
2, 3
2, 5
2, 2
7, 7
3, 7
1, 3
5, 3
5, 5
7, 5
6, 1
8, 3
7, 4
3, 4
3, 3
6, 7
2, 4
3, 5
7, 5
3, 2
2, 3
4, 1
3, 3
1, 2
3, 3
1, 3
2, 3
1, 4
3, 1
4, 1
3, 4
2, 3
0, 2
5, 3
1, 2
3, 4
3, 1
3, 5
5, 5
4, 5
2, 4
2, 1
2, 4
2, 3
7, 6
2, 1
3, 1
1, 2
4, 4
3, 5
4, 3
8, 5
4, 2
1, 3
3, 5
1, 5
2, 2
1, 4
4, 1
4, 5
4, 5
3, 5
4, 1
2, 3
3, 0
5, 3
3, 4
3, 3
3, 2
1, 1
5, 3
4, 0
2, 4
4, 6
1, 1
2, 4
2, 5
3, 4
0, 1
1, 0
3, 2
3, 1
2, 4
2, 4
1, 1
0, 4
4, 5
2, 0
3, 3
4, 2
2, 5
3, 4
0, 2
7, 2
1, 4
3, 3
1, 7
3, 1
0, 2
1, 5
1, 4
2, 3
4, 4
2, 3
3, 2
2, 4
2, 1
2, 0
3, 3
5, 1
3, 4
4, 3
2, 3
2, 1
1, 3
2, 2
1, 0
0, 2
2, 2
3, 0
2, 1
1, 0
2, 1
3, 1
1, 2
2, 2
3, 4
3, 0
1, 2
1, 4
2, 1
2, 1
2, 0
2, 3
3, 2
3, 1
2, 1
5, 1
0, 6
4, 1
3, 2
3, 4
5, 5
5, 6
2, 4
4, 5
2, 5
1, 5
7, 7
3, 4
1, 2
4, 3
3, 2
1, 3
3, 3
3, 3
3, 0
0, 2
2, 1
4, 0
4, 1
1, 1
0, 0
2, 0
1, 2
5, 2
3, 2
1, 1
2, 1
5, 2
2, 1
0, 2
1, 4
1, 1
1, 2
1, 0
5, 0
0, 4
1, 1
1, 0
2, 2
1, 3
1, 2
0, 0
0, 1
0, 1
0, 1
2, 1
2, 2
1, 1
2, 2
0, 0
0, 3
0, 1
1, 1
1, 2
0, 0
0, 2
1, 0
1, 3
1, 4
1, 1
0, 0
0, 2
3, 0
0, 2
3, 1
0, 0
1, 1
0, 0
0, 1
0, 0
1, 1
1, 2
2, 1
2, 0
1, 1
3, 0
3, 0
0, 0
1, 1
1, 1
3, 2
1, 1
0, 0
1, 0
2, 0
1, 0
3, 0
1, 1
0, 0
1, 1
1, 1
0, 0
1, 2
0, 1
2, 1
0, 0
1, 0
0, 0
2, 1
1, 0
1, 0
1, 1
0, 1
1, 0
1, 0
0, 0
2, 1
2, 0
1, 2
1, 0
0, 0
1, 2
1, 0
0, 0
0, 1
0, 1
1, 2
1, 2
0, 0
0, 1
0, 0
2, 0
2, 0
2, 1
1, 1
0, 0
0, 3
2, 0
0, 0
1, 1
1, 0
0, 0
0, 0
0, 1
1, 0
0, 3
0, 0
0, 0
0, 0
0, 1
0, 0
0, 1
0, 1
0, 0
0, 0
1, 1
0, 0
0, 0
0, 0
0, 1
1, 0
0, 0
0, 0
0, 1
0, 1
0, 1
1, 0
1, 0
0, 0
0, 0
0, 1
1, 0
0, 0
1, 0
1, 0
1, 0
1, 0
1, 0
1, 2
1, 0
0, 0
2, 0
0, 1
0, 0
1, 1
0, 0
0, 1
0, 0
1, 0
1, 0
0, 0
0, 1
1, 2
1, 1
1, 0
0, 0
0, 3
1, 0
0, 0
0, 0
0, 0
0, 0
0, 0
2, 0
0, 0
1, 0
0, 0
0, 0
0, 0
1, 0
0, 0
0, 0
0, 0
0, 1
0, 0
0, 0
0, 0
0, 0
0, 0
0, 0
0, 0
0, 0
0, 0
0, 0
0, 0
0, 0
0, 0
0, 1
0, 0
0, 0
0, 0
0, 0
0, 0
1, 1
1, 0
0, 1
0, 0
0, 0
0, 0
0, 0
0, 0
1, 0
0, 0
1, 0
0, 0
1, 3
0, 0
0, 0
0, 0
0, 0
1, 1
0, 0
0, 0
0, 0
0, 0
2, 2
0, 0
0, 1
1, 1
0, 1
1, 1
2, 0
0, 1
0, 0
0, 3
1, 0
1, 0
0, 0
0, 1
1, 1
1, 0
0, 2
0, 1
0, 1
0, 0
1, 0
0, 0
0, 0
0, 0
0, 1
0, 0
0, 0
0, 0
0, 0
0, 0
0, 0
0, 0
0, 0
0, 0
0, 0
1, 0
0, 0
0, 0
0, 0
0, 0
0, 0
0, 1
0, 0
0, 0
0, 0
0, 0
0, 1
0, 1
1, 0
0, 0
0, 0
0, 0
0, 0
0, 0
1, 0
0, 0
0, 0
0, 0
0, 0
0, 0
1, 0
0, 0
0, 0
1, 0
0, 0
0, 0
0, 0
0, 0
1, 0
0, 0
2, 0
0, 0
1, 0
1, 2
0, 0
0, 0
0, 0
0, 0
0, 0
0, 1
0, 0
0, 0
0, 0
0, 0
0, 0
1, 0
0, 0
0, 0
0, 0
0, 0
0, 0
0, 0
0, 0
0, 0
0, 0
0, 0
0, 0
0, 0
0, 0
0, 0
0, 0
0, 0
0, 0
0, 0
0, 0
0, 0
0, 1
0, 0
0, 1
1, 0
0, 0
0, 0
0, 0
0, 0
0, 0
0, 0
0, 1
0, 0
1, 0
0, 0
0, 0
0, 0
0, 1
0, 0
1, 0
0, 0
0, 0
0, 0
0, 1
0, 0
0, 0
1, 0
0, 0
0, 0
0, 0
0, 0
0, 1
0, 0
0, 0
0, 0
0, 0
1, 0
0, 0
1, 0
0, 0
0, 0
0, 0
0, 0
0, 0
0, 0
0, 0
0, 0
0, 0
0, 0
0, 0
0, 0
0, 0
0, 0
0, 0
0, 0
0, 0
0, 0
0, 0
0, 0
0, 0
0, 0
0, 0
0, 0
0, 0
0, 0
0, 0
0, 0
0, 0
0, 0
0, 0
0, 0
0, 0
0, 0
0, 0
0, 0
0, 0
0, 0
0, 0
0, 0
0, 0
0, 0
0, 0
0, 0
0, 0
0, 0
0, 0
0, 0
0, 0
0, 0
0, 0
0, 0
0, 0
0, 0
0, 0
0, 0
0, 0
0, 0
0, 0
0, 0
0, 0
0, 0
0, 0
0, 0
0, 0
0, 0
0, 0
0, 0
0, 0
0, 0
0, 0
0, 0
0, 0
0, 0
0, 0
0, 0
0, 0
0, 0
0, 0
0, 0
0, 0
0, 0
0, 0
0, 0
0, 0
0, 0
0, 0
0, 0
0, 0
0, 0
0, 0
0, 0
0, 0
0, 0
0, 0
0, 0
0, 0
0, 0
0, 0
0, 0
0, 0
0, 0
0, 0
0, 0
0, 0
0, 0
0, 0
0, 0
0, 0
0, 0
0, 0
0, 0
0, 0
0, 0
0, 0
0, 0
0, 0
0, 0
0, 0
0, 0
0, 0
0, 0
0, 0
0, 0
0, 0
0, 0
0, 0
0, 0
0, 0
0, 0
0, 0
0, 0
0, 0
0, 0
0, 0
0, 0
0, 0
0, 0
0, 0
0, 0
1, 0
0, 0
0, 0
0, 0
0, 0
0, 0
0, 0
0, 0
0, 0
0, 0
0, 0
0, 0
0, 0
0, 0
0, 0
0, 0
0, 0
0, 0
1, 0
0, 0
0, 0
0, 0
0, 0
0, 0
0, 0
0, 0
0, 0
0, 0
0, 0
0, 0
0, 0
0, 0
0, 0
0, 0
0, 0
0, 0
0, 0
0, 0
0, 0
0, 0
0, 0
0, 0
0, 0
0, 0
0, 0
0, 0
0, 0
0, 0
0, 0
0, 0
0, 0
0, 0
0, 0
0, 0
0, 0
0, 0
0, 0
0, 0
0, 0
0, 0
0, 0
0, 0
0, 0
0, 0
0, 0
0, 0
0, 0
0, 0
0, 0
0, 0
0, 0
0, 0
0, 0
0, 0
0, 0
0, 0
0, 0
0, 0
0, 0
0, 0
0, 0
0, 0
0, 0
0, 0
0, 0
0, 0
0, 0
0, 0
0, 0
0, 0
0, 0
0, 0
0, 0
0, 0
0, 0
0, 0
0, 0
0, 0
0, 0
0, 0
0, 0
0, 0
0, 0
0, 0
0, 0
0, 0
0, 0
0, 0
0, 0
0, 0
0, 0
0, 0
0, 0
0, 0
0, 0
0, 0
0, 0
0, 0
0, 0
0, 0
0, 0
0, 0
0, 0
0, 0
0, 0
0, 0
0, 0
0, 0
0, 0
0, 0
0, 0
0, 0
0, 0
0, 0
0, 0
0, 0
0, 0
0, 0
0, 0
0, 0
0, 0
0, 0
0, 0
0, 0
0, 0
0, 0
0, 0
0, 0
0, 0
0, 0
0, 0
0, 0
0, 0
0, 0
0, 0
0, 0
0, 0
0, 0
0, 0
0, 0
0, 0
0, 0
0, 0
0, 0
0, 0
0, 0
0, 0
0, 0
0, 0
0, 0
0, 0
0, 0
0, 0
0, 0
0, 0
0, 0
0, 0
0, 0
0, 0
0, 0
0, 0
0, 0
0, 0
0, 0
0, 0
0, 0
0, 0
0, 0
0, 0
0, 0
0, 0
0, 0
0, 0
0, 0
0, 0
0, 0
0, 0
0, 0
0, 0
0, 0
0, 0
0, 0
0, 0
0, 0
0, 0
0, 0
0, 0
0, 0
0, 0
0, 0
0, 0
0, 0
0, 0
0, 0
0, 0
0, 0
0, 0
0, 0
0, 0
0, 0
0, 0
0, 0
0, 0
0, 0
0, 0
0, 0
0, 0
0, 0
0, 0
0, 0
0, 0
0, 0
0, 0
0, 0
0, 0
0, 0
0, 0
0, 0
0, 0
0, 0
0, 0
0, 0
0, 0
0, 0
0, 0
0, 0
0, 0
0, 0
0, 0
0, 0
0, 0
0, 0
0, 0
0, 0
0, 0
0, 0
0, 0
0, 0
0, 0
0, 0
0, 0
0, 0
0, 0
0, 0
0, 0
0, 0
0, 0
0, 0
0, 0
0, 0
0, 0
0, 0
0, 0
0, 0
0, 0
0, 0
0, 0
0, 0
0, 0
0, 0
0, 0
0, 0
0, 0
0, 0
0, 0
0, 0
0, 0
0, 0
0, 0
0, 0
0, 0
0, 0
0, 0
0, 0
0, 0
0, 0
0, 0
#ENDOFDATA     end of spectrum data