File: host_upload/06-09-2024/ps_0852/dump3/ps__0852shot_2186.msa
#FORMAT      : EMSA/MAS spectral data file
#VERSION     : TC202v2.0 PIXL
#TITLE       : N/A
#DATE        :       Date in the format DD-MMM-YYYY, for example 07-JUL-2010
#TIME        :             The time of day at which the spectrum was recorded, in 24-hour format
#OWNER       : PIXL Flight Model       (PIXL will use this to indicate which instrument took the data.)
#NPOINTS     : 4096     Number of data points in the spectrum (This can be zero for configuration only files)
#NCOLUMNS    : 2     Number of data columns in the spectrum (This can be zero for configuration only files)
#XUNITS      : eV
#YUNITS      : COUNTS
#DATATYPE    : YY
#XPERCHAN    : 7.862, 7.881   eV per channel (separate by commas if more than one detector)
#OFFSET      : 18.5, -22.4         eV of first channel  (separate by commas if more than one detector
#SIGNALTYPE  : XRF
#YP_TEMP     : 2.267
#LIVETIME    : 8.5792, 8.55249   seconds (separate by commas if more than one detector)
#REALTIME    : 10, 10.0   seconds (separate by commas if more than one detector)
#SPECTRUM    : start of spectrum data
0, 0
0, 0
0, 0
0, 0
0, 0
0, 0
0, 0
0, 0
0, 0
0, 0
0, 0
0, 0
0, 0
0, 0
0, 0
0, 0
0, 0
0, 0
0, 0
0, 0
0, 0
0, 0
0, 0
0, 0
0, 0
0, 0
0, 0
0, 0
0, 0
0, 0
0, 0
0, 0
0, 0
0, 0
0, 0
0, 0
0, 0
0, 0
0, 4
2, 2
1, 0
2, 0
1, 1
4, 1
1, 2
2, 2
1, 1
3, 3
8, 4
18, 22
26, 38
45, 45
48, 65
77, 88
73, 94
72, 91
73, 59
56, 57
25, 24
20, 17
6, 6
5, 4
4, 8
4, 4
5, 4
2, 2
9, 9
16, 8
18, 15
36, 73
74, 124
184, 185
252, 274
344, 418
399, 513
402, 474
370, 413
271, 329
187, 205
117, 138
61, 71
37, 46
20, 33
10, 10
2, 9
1, 3
1, 1
2, 2
3, 6
1, 2
0, 1
0, 0
0, 0
0, 0
3, 1
3, 0
2, 3
1, 1
2, 0
1, 1
4, 1
3, 1
4, 1
2, 2
2, 3
3, 3
0, 3
3, 7
3, 6
8, 7
14, 18
18, 35
35, 59
46, 93
52, 103
48, 96
54, 101
42, 84
38, 77
30, 42
34, 32
19, 26
21, 17
17, 20
18, 17
12, 12
19, 15
7, 8
8, 10
5, 10
11, 9
5, 5
2, 4
4, 5
1, 2
1, 4
2, 2
4, 2
2, 2
1, 2
4, 5
3, 1
1, 0
2, 2
0, 1
2, 3
1, 1
1, 1
1, 2
0, 3
3, 2
4, 5
3, 8
8, 5
8, 19
8, 16
16, 22
16, 18
12, 16
11, 9
8, 10
11, 13
6, 7
10, 4
2, 6
0, 6
4, 3
7, 3
8, 8
3, 6
16, 7
10, 7
17, 9
22, 8
44, 2
33, 4
51, 1
48, 2
34, 2
38, 6
22, 4
19, 6
11, 3
10, 3
10, 2
6, 6
7, 1
7, 5
7, 4
6, 9
11, 13
5, 12
5, 14
10, 11
9, 12
10, 12
8, 34
14, 40
12, 46
11, 65
16, 89
18, 94
9, 115
8, 119
6, 104
5, 83
4, 84
7, 71
3, 51
2, 26
7, 15
2, 12
5, 7
5, 4
4, 5
6, 6
3, 7
4, 8
3, 5
3, 9
3, 6
6, 6
8, 9
5, 12
5, 10
7, 12
8, 7
6, 9
15, 18
9, 12
19, 16
22, 13
25, 9
24, 11
38, 14
45, 8
38, 7
52, 8
61, 5
55, 5
35, 7
31, 6
32, 9
25, 9
14, 13
25, 22
30, 28
32, 30
46, 45
46, 55
54, 73
51, 69
48, 57
56, 48
41, 40
26, 40
14, 31
19, 25
16, 19
10, 23
23, 37
31, 51
40, 83
66, 120
128, 224
270, 429
455, 664
680, 1031
1060, 1379
1438, 1887
1738, 2369
2080, 2543
2238, 2659
2187, 2511
1872, 2256
1621, 1624
1243, 1245
850, 919
580, 500
327, 361
197, 206
103, 121
72, 66
29, 51
15, 31
18, 14
25, 16
33, 11
25, 20
36, 10
43, 21
59, 48
66, 56
81, 84
109, 106
147, 166
186, 249
261, 307
289, 361
319, 396
292, 380
324, 346
258, 297
225, 255
176, 174
141, 122
82, 70
54, 42
25, 23
17, 12
8, 7
10, 5
2, 9
6, 9
11, 8
10, 8
6, 11
16, 8
12, 8
9, 6
10, 13
9, 8
4, 8
8, 9
0, 3
7, 6
9, 0
3, 2
4, 6
1, 2
2, 7
3, 2
1, 6
3, 4
2, 5
3, 8
1, 6
3, 6
5, 4
4, 4
1, 4
9, 6
9, 8
7, 5
10, 4
15, 3
25, 2
28, 3
36, 6
45, 5
68, 13
51, 3
61, 3
50, 5
64, 0
55, 6
46, 3
48, 7
17, 4
11, 6
12, 2
15, 2
7, 7
6, 7
5, 5
6, 9
3, 8
3, 9
1, 4
6, 2
5, 3
2, 2
3, 4
3, 4
2, 2
0, 3
3, 4
2, 4
1, 4
6, 4
1, 3
1, 5
1, 2
2, 2
4, 5
5, 3
1, 7
4, 4
2, 2
1, 3
3, 4
2, 4
2, 3
3, 2
2, 3
2, 2
1, 5
5, 4
2, 6
1, 5
2, 7
0, 7
3, 5
4, 5
4, 4
1, 5
1, 6
1, 8
3, 5
1, 7
2, 5
3, 7
6, 3
3, 3
1, 5
2, 5
4, 4
2, 8
6, 3
0, 8
3, 5
3, 14
0, 9
0, 3
6, 0
2, 4
2, 3
5, 4
2, 7
2, 6
4, 6
1, 4
6, 6
0, 3
3, 5
2, 2
3, 5
2, 5
6, 7
3, 5
0, 5
1, 3
1, 3
0, 4
1, 2
1, 2
1, 4
1, 3
1, 2
0, 2
0, 2
2, 3
3, 0
2, 1
1, 4
2, 2
3, 2
0, 2
2, 1
1, 1
6, 9
4, 4
3, 3
5, 1
1, 3
5, 4
5, 6
6, 4
4, 1
5, 4
1, 0
5, 0
3, 2
5, 1
7, 3
4, 2
4, 5
1, 2
3, 1
3, 3
2, 4
6, 0
0, 4
0, 1
2, 4
4, 2
2, 1
1, 4
0, 4
4, 2
0, 2
0, 0
2, 0
1, 2
2, 5
1, 2
1, 3
1, 1
1, 1
2, 4
2, 4
0, 0
0, 0
3, 8
3, 1
0, 3
2, 2
0, 3
2, 1
1, 3
1, 1
4, 4
1, 1
1, 3
2, 4
1, 4
1, 6
1, 0
1, 2
1, 2
3, 2
0, 3
3, 1
1, 2
3, 0
2, 0
3, 3
3, 0
1, 5
3, 4
4, 0
3, 3
5, 3
2, 3
6, 2
6, 6
5, 1
1, 3
5, 5
2, 6
2, 5
5, 6
1, 3
0, 7
1, 4
6, 11
2, 8
4, 3
1, 5
3, 4
2, 4
3, 1
2, 3
1, 2
3, 4
1, 5
0, 2
1, 1
0, 2
0, 1
0, 1
2, 1
0, 1
3, 0
1, 2
4, 4
5, 1
1, 3
2, 2
1, 5
0, 2
1, 1
1, 3
2, 0
1, 6
0, 1
1, 2
1, 1
0, 0
1, 0
2, 1
2, 1
0, 0
0, 1
1, 1
3, 0
1, 0
2, 1
0, 0
0, 1
0, 2
2, 3
1, 2
0, 0
2, 2
3, 2
2, 1
3, 1
0, 3
1, 0
0, 0
3, 1
1, 1
0, 0
2, 1
1, 0
1, 3
1, 1
1, 0
1, 3
2, 2
0, 0
1, 0
0, 0
0, 1
0, 0
2, 0
1, 1
1, 1
2, 0
0, 2
1, 1
2, 1
1, 2
2, 0
3, 0
1, 0
0, 1
0, 0
2, 0
1, 1
0, 3
0, 1
0, 1
0, 0
0, 4
1, 0
0, 0
0, 1
1, 0
0, 0
1, 0
2, 0
1, 1
0, 0
0, 0
2, 1
0, 2
0, 1
1, 0
0, 1
0, 1
1, 0
2, 0
2, 2
0, 0
1, 0
1, 0
0, 0
0, 1
1, 0
0, 2
0, 1
1, 0
1, 0
0, 0
1, 1
1, 1
0, 2
0, 0
0, 0
1, 0
1, 0
1, 0
0, 0
1, 3
1, 3
1, 0
0, 0
0, 0
1, 2
0, 0
1, 0
1, 0
0, 0
0, 0
1, 0
2, 1
0, 0
0, 0
1, 0
0, 0
0, 0
0, 0
0, 0
0, 0
1, 1
0, 0
1, 1
0, 2
2, 0
0, 1
0, 0
0, 0
0, 1
0, 1
1, 0
0, 2
0, 0
1, 0
2, 1
0, 0
0, 0
0, 0
0, 0
0, 0
1, 1
0, 2
0, 0
0, 1
1, 0
1, 0
1, 0
0, 2
0, 1
1, 0
0, 0
0, 1
1, 1
1, 0
0, 2
0, 1
0, 0
1, 1
0, 0
0, 1
1, 1
0, 0
1, 2
0, 1
0, 0
0, 1
0, 0
0, 0
1, 1
0, 0
1, 0
0, 0
0, 0
0, 0
0, 0
0, 0
0, 0
0, 0
0, 0
1, 2
0, 2
0, 0
1, 0
0, 0
0, 0
0, 0
1, 1
0, 2
0, 0
0, 0
0, 0
0, 0
0, 1
0, 0
0, 0
0, 1
0, 1
1, 0
0, 0
0, 0
1, 1
0, 0
0, 0
0, 1
0, 0
0, 0
1, 0
0, 1
0, 0
1, 1
0, 0
0, 0
0, 0
0, 1
0, 0
0, 1
0, 0
0, 0
0, 0
0, 0
0, 0
0, 0
0, 0
0, 2
0, 0
0, 0
1, 0
0, 0
1, 1
0, 0
0, 0
1, 0
0, 1
2, 0
1, 1
1, 0
0, 0
0, 1
0, 0
0, 0
1, 0
0, 0
0, 0
0, 0
0, 0
0, 0
0, 0
0, 0
0, 0
0, 0
1, 0
0, 0
0, 0
0, 1
0, 0
0, 0
0, 0
0, 0
0, 0
0, 0
0, 0
0, 0
0, 0
0, 0
0, 0
0, 1
0, 0
1, 0
0, 0
0, 0
0, 0
0, 0
0, 0
0, 0
1, 0
0, 1
0, 0
0, 0
0, 0
0, 0
0, 0
0, 0
1, 1
0, 0
0, 0
0, 1
0, 0
0, 0
0, 0
0, 0
0, 0
0, 0
1, 0
1, 0
0, 0
0, 0
0, 0
0, 0
0, 0
1, 0
0, 0
0, 0
0, 0
0, 0
0, 0
1, 0
0, 0
0, 0
0, 0
0, 0
0, 0
0, 0
0, 0
0, 0
1, 0
0, 0
0, 0
0, 0
0, 0
0, 0
0, 1
0, 0
0, 0
0, 0
0, 0
0, 0
0, 0
1, 0
0, 0
0, 0
0, 0
0, 0
0, 0
0, 0
0, 0
0, 0
0, 0
0, 0
0, 0
0, 0
0, 0
0, 1
0, 0
0, 0
0, 0
0, 0
0, 0
0, 0
0, 0
0, 0
0, 0
0, 0
0, 0
0, 0
0, 0
0, 0
0, 0
0, 0
0, 0
0, 0
0, 0
0, 0
0, 0
0, 0
0, 0
0, 0
0, 0
0, 0
0, 0
0, 0
0, 0
0, 0
1, 0
0, 0
0, 0
0, 0
1, 1
0, 0
0, 1
0, 0
0, 0
0, 0
0, 0
0, 0
0, 0
0, 1
0, 0
0, 0
0, 0
0, 0
0, 0
0, 0
0, 0
0, 0
0, 0
0, 0
0, 0
0, 0
0, 0
0, 0
0, 0
0, 0
0, 0
0, 0
1, 0
0, 0
0, 0
0, 0
0, 0
0, 0
0, 0
0, 0
0, 0
0, 0
0, 0
0, 0
0, 0
0, 0
0, 0
0, 0
0, 0
0, 0
0, 0
0, 0
0, 0
0, 0
1, 0
0, 0
0, 0
0, 0
0, 0
0, 0
0, 0
0, 0
0, 0
0, 0
0, 0
0, 0
0, 0
0, 0
0, 0
0, 0
0, 0
0, 0
0, 0
0, 0
0, 0
0, 0
0, 0
0, 0
0, 0
0, 0
0, 0
0, 0
0, 0
0, 0
0, 0
0, 0
0, 0
0, 0
0, 0
0, 0
0, 0
0, 0
0, 0
0, 0
0, 0
0, 0
0, 0
0, 0
0, 0
0, 0
0, 0
0, 0
0, 0
0, 0
0, 0
0, 0
1, 0
0, 0
0, 0
0, 0
0, 0
0, 0
0, 0
0, 0
0, 0
0, 0
0, 0
0, 0
0, 0
0, 0
0, 0
0, 0
0, 0
0, 0
0, 0
0, 0
0, 0
0, 0
0, 0
0, 0
0, 0
0, 0
0, 0
1, 0
0, 0
0, 0
0, 0
0, 0
0, 0
0, 0
0, 0
0, 0
0, 0
0, 0
0, 0
0, 0
0, 0
0, 0
0, 0
0, 0
0, 0
0, 0
0, 0
0, 0
0, 0
0, 0
0, 0
0, 0
0, 0
0, 0
0, 0
0, 0
0, 0
0, 0
0, 0
0, 0
0, 0
0, 0
0, 0
0, 0
0, 0
0, 0
0, 0
0, 0
0, 0
0, 0
0, 0
0, 0
0, 0
0, 0
0, 0
0, 0
0, 0
0, 0
0, 0
0, 0
0, 0
0, 0
0, 0
0, 0
0, 0
0, 0
0, 0
0, 0
0, 0
0, 0
0, 0
0, 0
0, 0
0, 0
0, 0
0, 0
0, 0
0, 0
0, 0
0, 0
0, 0
0, 0
0, 0
0, 0
0, 0
0, 0
0, 0
0, 0
0, 0
0, 0
0, 0
0, 0
0, 0
0, 0
0, 0
0, 0
0, 0
0, 0
0, 0
0, 0
0, 0
0, 0
0, 0
0, 0
0, 0
0, 0
0, 0
0, 0
0, 0
0, 0
0, 0
0, 0
0, 0
0, 0
0, 0
0, 0
0, 0
0, 0
0, 0
0, 0
0, 0
0, 0
0, 0
0, 0
0, 0
0, 0
0, 0
0, 0
0, 0
0, 0
0, 0
0, 0
0, 0
0, 0
0, 0
0, 0
0, 0
0, 0
0, 0
0, 0
0, 0
0, 0
0, 0
0, 0
0, 0
0, 0
0, 0
0, 0
0, 0
0, 0
0, 0
0, 0
0, 0
0, 0
0, 0
0, 0
0, 0
0, 0
0, 0
0, 0
0, 0
0, 0
0, 0
0, 0
0, 0
0, 0
0, 0
0, 0
0, 0
0, 0
0, 0
0, 0
0, 0
0, 0
0, 0
0, 0
0, 0
0, 0
0, 0
0, 0
0, 0
0, 0
0, 0
0, 0
0, 0
0, 0
0, 0
0, 0
0, 0
0, 0
0, 0
0, 0
0, 0
0, 0
0, 0
0, 0
0, 0
0, 0
0, 0
0, 0
0, 0
0, 0
0, 0
0, 0
0, 0
0, 0
0, 0
0, 0
0, 0
0, 0
0, 0
0, 0
0, 0
0, 0
0, 0
0, 0
0, 0
0, 0
0, 0
0, 0
0, 0
0, 0
0, 0
0, 0
0, 0
0, 0
0, 0
0, 0
0, 0
0, 0
0, 0
0, 0
0, 0
0, 0
0, 0
0, 0
0, 0
0, 0
0, 0
0, 0
0, 0
0, 0
0, 0
0, 0
0, 0
0, 0
0, 0
0, 0
0, 0
0, 0
0, 0
0, 0
0, 0
0, 0
0, 0
0, 0
0, 0
0, 0
0, 0
0, 0
0, 0
0, 0
0, 0
0, 0
0, 0
0, 0
0, 0
0, 0
0, 0
0, 0
0, 0
0, 0
0, 0
0, 0
0, 0
0, 0
0, 0
0, 0
0, 0
0, 0
0, 0
0, 0
0, 0
0, 0
0, 0
0, 0
0, 0
0, 0
0, 0
0, 0
0, 0
0, 0
#ENDOFDATA     end of spectrum data