File: host_upload/06-09-2024/ps_0852/dump3/ps__0852shot_2521.msa
#FORMAT      : EMSA/MAS spectral data file
#VERSION     : TC202v2.0 PIXL
#TITLE       : N/A
#DATE        :       Date in the format DD-MMM-YYYY, for example 07-JUL-2010
#TIME        :             The time of day at which the spectrum was recorded, in 24-hour format
#OWNER       : PIXL Flight Model       (PIXL will use this to indicate which instrument took the data.)
#NPOINTS     : 4096     Number of data points in the spectrum (This can be zero for configuration only files)
#NCOLUMNS    : 2     Number of data columns in the spectrum (This can be zero for configuration only files)
#XUNITS      : eV
#YUNITS      : COUNTS
#DATATYPE    : YY
#XPERCHAN    : 7.862, 7.881   eV per channel (separate by commas if more than one detector)
#OFFSET      : 18.5, -22.4         eV of first channel  (separate by commas if more than one detector
#SIGNALTYPE  : XRF
#YP_TEMP     : 2.524
#LIVETIME    : 8.56316, 8.55926   seconds (separate by commas if more than one detector)
#REALTIME    : 10, 10.0   seconds (separate by commas if more than one detector)
#SPECTRUM    : start of spectrum data
0, 0
0, 0
0, 0
0, 0
0, 0
0, 0
0, 0
0, 0
0, 0
0, 0
0, 0
0, 0
0, 0
0, 0
0, 0
0, 0
0, 0
0, 0
0, 0
0, 0
0, 0
0, 0
0, 0
0, 0
0, 0
0, 0
0, 0
0, 0
0, 0
0, 0
0, 0
0, 0
1, 0
0, 0
0, 0
0, 0
0, 0
4, 3
1, 1
3, 1
0, 2
2, 1
0, 3
1, 1
4, 1
2, 2
3, 0
3, 3
6, 9
12, 4
12, 21
30, 43
57, 52
66, 69
78, 68
66, 55
74, 57
40, 36
20, 17
8, 14
12, 8
5, 6
7, 2
4, 2
4, 2
7, 3
4, 3
8, 5
18, 22
43, 44
71, 78
172, 146
249, 235
316, 301
346, 349
378, 363
320, 307
271, 252
163, 171
112, 110
70, 52
28, 29
18, 13
7, 4
4, 10
6, 7
7, 3
1, 4
2, 1
5, 6
5, 4
10, 14
23, 14
46, 44
81, 90
165, 162
219, 189
281, 275
297, 283
331, 341
269, 283
218, 205
145, 132
110, 93
56, 67
45, 38
36, 33
32, 37
53, 25
59, 41
63, 44
107, 52
135, 55
151, 56
159, 62
167, 59
177, 46
142, 40
109, 36
62, 31
59, 30
37, 29
22, 23
20, 16
17, 15
16, 13
15, 18
10, 11
8, 13
7, 6
7, 6
8, 3
5, 7
2, 3
1, 5
1, 2
4, 1
3, 9
3, 6
7, 8
12, 9
5, 9
9, 7
15, 8
7, 5
8, 7
7, 3
4, 3
8, 5
8, 4
7, 15
16, 11
23, 34
42, 51
60, 64
89, 74
100, 113
101, 128
115, 129
93, 96
70, 72
50, 54
25, 39
15, 16
10, 9
10, 9
3, 9
11, 8
14, 14
18, 20
13, 15
16, 22
17, 17
21, 17
18, 15
13, 15
13, 14
13, 4
7, 3
11, 4
9, 1
5, 7
5, 4
5, 8
7, 3
1, 10
8, 4
3, 9
5, 12
7, 8
6, 13
7, 10
12, 8
15, 11
14, 15
18, 11
22, 19
20, 19
8, 15
18, 15
11, 9
14, 10
9, 10
5, 4
7, 7
6, 6
9, 9
8, 7
6, 6
4, 6
8, 6
8, 6
4, 9
6, 3
3, 6
9, 9
7, 8
4, 11
3, 5
2, 18
4, 12
8, 9
6, 15
6, 11
8, 13
14, 10
17, 10
29, 31
28, 14
31, 20
31, 22
30, 13
36, 23
37, 21
37, 20
29, 6
21, 13
14, 4
18, 6
7, 6
20, 5
19, 8
22, 4
28, 9
33, 12
52, 16
45, 24
66, 40
65, 44
79, 50
95, 59
99, 62
80, 49
74, 39
45, 34
37, 27
35, 22
16, 17
15, 16
11, 17
15, 18
27, 17
44, 54
75, 96
121, 168
254, 305
405, 542
762, 812
996, 1183
1457, 1643
1859, 1894
2158, 2164
2248, 2191
2174, 2087
1981, 1778
1578, 1348
1149, 995
860, 623
470, 402
300, 215
190, 114
98, 63
47, 41
16, 25
20, 24
18, 15
16, 12
14, 10
15, 13
19, 16
11, 34
30, 32
51, 47
61, 77
113, 99
159, 142
193, 208
230, 259
294, 296
306, 329
318, 337
324, 313
302, 233
238, 189
227, 122
141, 96
79, 55
51, 28
47, 20
21, 14
10, 4
4, 9
11, 12
6, 4
13, 7
14, 7
17, 23
19, 7
10, 15
14, 11
9, 11
13, 7
6, 7
9, 5
3, 0
3, 1
2, 5
7, 0
4, 2
4, 2
3, 6
3, 4
5, 4
4, 3
3, 7
6, 3
4, 3
7, 6
9, 8
5, 3
7, 10
2, 6
5, 10
6, 7
14, 5
11, 6
6, 10
9, 5
6, 7
8, 6
9, 9
8, 5
10, 8
11, 6
14, 9
6, 4
7, 7
5, 5
7, 3
5, 7
4, 5
8, 3
6, 7
5, 3
6, 3
7, 3
4, 5
6, 9
3, 6
3, 4
8, 2
3, 4
6, 5
2, 6
10, 8
9, 5
4, 2
0, 5
2, 7
2, 5
3, 4
5, 2
3, 8
9, 3
4, 5
2, 5
4, 3
4, 1
2, 3
5, 4
1, 1
7, 2
7, 6
2, 1
5, 1
2, 5
8, 6
2, 3
4, 3
10, 3
5, 2
3, 3
7, 4
5, 3
3, 6
3, 2
4, 2
4, 1
3, 3
3, 5
8, 3
1, 1
6, 1
9, 2
8, 4
16, 6
10, 0
15, 6
10, 3
9, 6
15, 3
14, 5
8, 0
12, 8
8, 6
8, 1
9, 5
7, 6
5, 4
2, 3
6, 5
3, 2
3, 0
4, 1
5, 0
6, 2
1, 3
2, 3
2, 2
3, 3
2, 7
0, 2
5, 1
2, 1
5, 6
0, 3
1, 3
4, 3
1, 3
2, 4
3, 3
0, 3
0, 3
0, 1
1, 3
4, 1
2, 2
6, 2
3, 1
4, 1
4, 5
5, 3
0, 1
4, 2
3, 1
0, 3
1, 1
7, 3
2, 0
4, 2
0, 2
2, 0
1, 7
1, 5
7, 2
2, 0
3, 1
0, 1
3, 2
6, 2
4, 2
0, 4
1, 2
6, 4
0, 8
2, 6
2, 3
4, 4
3, 7
2, 5
5, 6
0, 7
6, 13
7, 5
3, 7
4, 4
1, 7
2, 5
5, 5
3, 4
0, 2
2, 5
1, 4
3, 2
4, 1
4, 2
4, 3
3, 2
3, 2
2, 2
2, 4
1, 1
1, 2
1, 3
3, 0
3, 3
1, 3
0, 2
3, 1
2, 2
2, 3
3, 2
1, 1
0, 4
1, 0
1, 0
3, 2
0, 1
2, 2
1, 2
1, 2
4, 2
3, 0
2, 0
3, 2
1, 2
1, 3
3, 4
1, 1
1, 4
4, 2
2, 2
4, 2
5, 3
3, 1
1, 3
6, 1
2, 2
1, 3
3, 1
5, 1
1, 0
2, 1
2, 1
1, 3
4, 1
2, 1
1, 1
0, 1
1, 2
3, 2
2, 0
2, 3
6, 0
3, 0
0, 0
2, 2
2, 1
1, 5
3, 0
1, 0
0, 1
0, 5
0, 3
1, 2
3, 1
1, 2
1, 0
2, 4
3, 3
1, 1
2, 1
0, 1
1, 0
1, 4
3, 0
0, 2
2, 4
0, 0
1, 1
0, 2
1, 1
1, 1
1, 0
0, 1
1, 0
0, 2
1, 1
0, 0
1, 1
0, 0
1, 2
1, 2
1, 0
2, 1
0, 1
0, 1
0, 0
2, 0
2, 2
0, 0
0, 0
1, 2
3, 0
0, 0
1, 1
1, 0
2, 0
0, 0
2, 1
2, 1
0, 1
0, 1
1, 0
0, 2
0, 2
1, 1
2, 1
1, 0
1, 0
0, 1
0, 1
2, 0
1, 0
0, 0
0, 1
0, 0
0, 0
0, 0
1, 1
2, 1
0, 1
0, 0
0, 1
1, 1
0, 1
0, 0
1, 1
1, 0
1, 1
0, 1
4, 0
0, 1
0, 1
1, 1
0, 1
1, 1
1, 0
0, 1
1, 0
0, 1
0, 0
0, 1
1, 0
2, 0
1, 0
0, 0
0, 1
0, 0
0, 0
1, 2
2, 2
1, 0
1, 0
0, 0
0, 0
1, 2
0, 0
2, 1
0, 1
1, 0
0, 0
0, 0
0, 1
1, 0
1, 0
3, 0
1, 1
1, 0
1, 0
1, 0
0, 0
0, 0
0, 0
0, 0
2, 1
0, 1
0, 0
0, 1
0, 0
0, 0
0, 0
0, 0
0, 1
0, 0
0, 0
0, 0
0, 0
0, 1
0, 1
1, 0
1, 0
0, 0
1, 1
0, 0
0, 1
1, 0
0, 0
2, 2
0, 1
0, 1
1, 0
0, 1
0, 2
0, 0
0, 0
0, 0
0, 0
1, 1
1, 0
0, 1
0, 1
0, 1
0, 1
1, 0
0, 0
1, 0
0, 0
1, 0
0, 1
0, 0
0, 0
0, 1
1, 0
0, 0
0, 0
1, 0
0, 0
1, 1
0, 0
0, 0
0, 0
0, 1
1, 0
0, 1
0, 0
0, 0
1, 0
0, 1
0, 0
0, 0
0, 0
0, 0
0, 1
0, 1
0, 1
0, 0
0, 2
0, 0
0, 0
1, 0
0, 0
0, 0
0, 0
0, 0
0, 1
0, 0
0, 0
1, 0
0, 0
0, 0
0, 0
1, 0
0, 0
0, 0
1, 0
0, 1
1, 1
1, 0
0, 0
1, 1
0, 1
1, 0
0, 1
0, 1
1, 0
0, 1
2, 0
0, 1
0, 0
0, 0
0, 0
0, 0
0, 0
0, 1
0, 0
0, 1
0, 0
1, 0
0, 0
0, 0
0, 0
0, 0
0, 0
2, 0
1, 0
1, 0
0, 0
0, 1
0, 0
0, 0
0, 0
0, 0
0, 1
0, 1
0, 0
0, 0
0, 0
0, 0
0, 0
0, 0
0, 0
1, 0
0, 0
0, 0
0, 0
0, 0
1, 0
0, 0
0, 0
0, 0
0, 0
1, 0
0, 0
0, 0
0, 0
0, 0
0, 1
0, 0
1, 0
0, 0
0, 1
0, 0
0, 0
1, 0
0, 0
2, 0
0, 0
1, 0
0, 0
0, 0
0, 0
0, 0
0, 0
0, 1
0, 0
0, 0
0, 0
0, 0
0, 0
0, 0
0, 0
0, 0
0, 1
0, 0
0, 0
0, 0
0, 0
0, 1
0, 0
1, 0
0, 0
0, 0
1, 0
0, 0
0, 0
0, 1
0, 0
0, 0
0, 0
1, 0
0, 0
0, 0
0, 0
0, 0
0, 1
0, 0
0, 1
0, 0
0, 0
0, 0
0, 0
0, 0
0, 0
0, 0
0, 0
0, 0
0, 0
0, 0
1, 0
0, 0
0, 0
0, 0
0, 0
0, 0
0, 0
0, 0
0, 0
0, 0
0, 0
0, 0
0, 0
0, 0
0, 0
0, 0
0, 0
0, 0
0, 0
0, 0
0, 0
0, 0
0, 0
0, 1
0, 0
0, 0
0, 0
0, 0
0, 0
0, 0
0, 0
0, 0
0, 0
0, 0
0, 0
0, 0
0, 0
0, 0
0, 0
0, 0
0, 0
0, 0
0, 0
0, 0
0, 0
0, 0
0, 0
0, 0
0, 0
0, 0
0, 0
0, 1
0, 0
0, 0
0, 0
0, 0
0, 0
0, 0
0, 0
0, 0
0, 1
0, 0
0, 0
0, 0
0, 0
0, 0
0, 0
0, 0
0, 0
0, 0
0, 0
0, 0
0, 0
0, 0
0, 0
0, 0
0, 0
0, 0
0, 0
0, 0
0, 0
0, 0
0, 0
0, 0
0, 0
0, 0
0, 0
0, 0
0, 0
0, 0
0, 0
0, 0
0, 0
0, 0
0, 0
0, 0
0, 0
0, 0
0, 0
0, 0
0, 0
0, 0
0, 0
0, 0
0, 0
0, 0
0, 0
0, 0
0, 0
0, 0
0, 0
0, 0
0, 0
0, 1
0, 0
0, 0
0, 0
0, 0
0, 0
0, 0
0, 0
0, 0
0, 0
0, 0
0, 0
0, 0
0, 0
0, 0
0, 0
0, 0
0, 0
0, 0
0, 0
0, 0
0, 0
0, 0
0, 0
0, 0
0, 0
0, 0
0, 0
0, 0
0, 0
0, 0
0, 0
0, 0
0, 0
0, 0
0, 0
0, 0
0, 0
0, 0
0, 0
0, 0
0, 0
0, 0
0, 0
0, 0
0, 0
0, 0
0, 0
0, 0
0, 0
0, 0
0, 0
0, 0
0, 0
0, 0
0, 0
0, 0
0, 0
0, 0
0, 0
0, 0
0, 0
0, 0
0, 0
0, 0
0, 0
0, 0
0, 0
0, 0
0, 0
0, 0
0, 0
0, 0
0, 0
0, 0
0, 0
0, 0
0, 0
0, 0
0, 0
0, 0
0, 0
0, 0
0, 0
0, 0
0, 0
0, 0
0, 0
0, 0
0, 0
0, 0
0, 0
0, 0
0, 0
0, 0
0, 0
0, 0
0, 0
0, 0
0, 0
0, 0
0, 0
0, 0
0, 0
0, 0
0, 0
0, 0
0, 0
0, 0
0, 0
0, 0
0, 0
0, 0
0, 0
0, 0
0, 0
0, 0
0, 0
0, 0
0, 0
0, 0
0, 0
0, 0
0, 0
0, 0
0, 0
0, 0
0, 0
0, 0
0, 0
0, 0
0, 0
0, 0
0, 0
0, 0
0, 0
0, 0
0, 0
0, 0
0, 0
0, 0
0, 0
0, 0
0, 0
0, 0
0, 0
0, 0
0, 0
0, 0
0, 0
0, 0
0, 0
0, 0
0, 0
0, 0
0, 0
0, 0
0, 0
0, 0
0, 0
0, 0
0, 0
0, 0
0, 0
0, 0
0, 0
0, 0
0, 0
0, 0
0, 0
0, 0
0, 0
0, 0
0, 0
0, 0
0, 0
0, 0
0, 0
0, 0
0, 0
0, 0
0, 0
0, 0
0, 0
0, 0
0, 0
0, 0
0, 0
0, 0
0, 0
0, 0
0, 0
0, 0
0, 0
0, 0
0, 0
0, 0
0, 0
0, 0
0, 0
0, 0
0, 0
0, 0
0, 0
0, 0
0, 0
0, 0
0, 0
0, 0
0, 0
0, 0
0, 0
0, 0
0, 0
0, 0
0, 0
0, 0
0, 0
0, 0
0, 0
0, 0
0, 0
0, 0
0, 0
0, 0
0, 0
0, 0
0, 0
0, 0
0, 0
0, 0
0, 0
0, 0
0, 0
0, 0
0, 0
0, 0
0, 0
0, 0
0, 0
0, 0
0, 0
0, 0
0, 0
0, 0
0, 0
0, 0
0, 0
0, 0
0, 0
0, 0
0, 0
0, 0
0, 0
0, 0
0, 0
0, 0
0, 0
0, 0
0, 0
0, 0
0, 0
0, 0
0, 0
0, 0
0, 0
0, 0
0, 0
0, 0
0, 0
0, 0
0, 0
0, 0
0, 0
0, 0
0, 0
0, 0
0, 0
0, 0
0, 0
0, 0
0, 0
0, 0
0, 0
0, 0
0, 0
0, 0
0, 0
0, 0
0, 0
0, 0
0, 0
0, 0
0, 0
0, 0
0, 0
0, 0
0, 0
0, 0
0, 0
0, 0
0, 0
0, 0
0, 0
0, 0
0, 0
0, 0
0, 0
0, 0
0, 0
0, 0
0, 0
0, 0
0, 0
0, 0
0, 0
0, 0
0, 0
0, 0
0, 0
0, 0
0, 0
0, 0
0, 0
0, 0
0, 0
0, 0
0, 0
0, 0
0, 0
0, 0
0, 0
0, 0
0, 0
0, 0
0, 0
0, 0
0, 0
0, 0
0, 0
0, 0
0, 0
0, 0
0, 0
#ENDOFDATA     end of spectrum data