File: host_upload/06-09-2024/ps_0852/dump3/ps__0852shot_2492.msa
#FORMAT      : EMSA/MAS spectral data file
#VERSION     : TC202v2.0 PIXL
#TITLE       : N/A
#DATE        :       Date in the format DD-MMM-YYYY, for example 07-JUL-2010
#TIME        :             The time of day at which the spectrum was recorded, in 24-hour format
#OWNER       : PIXL Flight Model       (PIXL will use this to indicate which instrument took the data.)
#NPOINTS     : 4096     Number of data points in the spectrum (This can be zero for configuration only files)
#NCOLUMNS    : 2     Number of data columns in the spectrum (This can be zero for configuration only files)
#XUNITS      : eV
#YUNITS      : COUNTS
#DATATYPE    : YY
#XPERCHAN    : 7.862, 7.881   eV per channel (separate by commas if more than one detector)
#OFFSET      : 18.5, -22.4         eV of first channel  (separate by commas if more than one detector
#SIGNALTYPE  : XRF
#YP_TEMP     : 2.62
#LIVETIME    : 8.54104, 8.55678   seconds (separate by commas if more than one detector)
#REALTIME    : 10, 10.0   seconds (separate by commas if more than one detector)
#SPECTRUM    : start of spectrum data
0, 0
0, 0
0, 0
0, 0
0, 0
0, 0
0, 0
0, 0
0, 0
0, 0
0, 0
0, 0
0, 0
0, 0
0, 0
0, 0
0, 0
0, 0
0, 0
0, 0
0, 0
0, 0
0, 0
0, 0
0, 0
0, 0
0, 0
0, 0
0, 0
0, 0
0, 0
0, 0
0, 0
0, 0
0, 0
2, 0
1, 0
0, 0
0, 1
3, 2
1, 1
3, 2
0, 2
2, 1
2, 4
0, 3
4, 1
7, 5
11, 4
19, 11
26, 25
35, 26
63, 63
67, 74
87, 80
86, 69
68, 48
39, 43
27, 28
12, 9
11, 8
3, 2
4, 2
1, 5
3, 4
3, 1
5, 11
7, 8
31, 25
48, 43
89, 85
163, 191
230, 291
338, 382
432, 403
379, 405
368, 394
267, 319
200, 221
108, 114
75, 70
36, 46
20, 13
6, 11
4, 4
2, 2
1, 2
1, 8
3, 0
0, 0
0, 2
1, 1
4, 5
3, 2
2, 2
2, 0
4, 2
6, 3
4, 3
7, 7
10, 3
12, 2
2, 5
4, 3
2, 8
4, 5
9, 7
9, 7
7, 11
23, 13
27, 31
39, 27
35, 39
61, 40
63, 60
74, 62
101, 49
65, 48
103, 46
108, 32
145, 32
206, 33
271, 28
309, 26
318, 31
303, 23
278, 23
226, 22
150, 14
90, 8
48, 4
30, 2
12, 6
5, 2
5, 5
3, 3
2, 1
0, 2
1, 3
1, 5
1, 1
2, 3
2, 0
4, 3
2, 1
3, 5
0, 1
3, 4
5, 4
5, 12
3, 13
7, 5
3, 21
11, 19
6, 22
15, 23
13, 17
9, 21
9, 13
13, 16
11, 10
12, 5
8, 3
6, 7
7, 4
5, 3
8, 7
5, 9
3, 5
5, 6
7, 6
7, 5
4, 6
8, 7
6, 9
3, 6
8, 9
9, 7
8, 15
11, 12
5, 12
4, 14
10, 17
5, 7
4, 11
6, 6
7, 9
10, 12
9, 7
15, 12
15, 10
21, 12
30, 14
21, 14
27, 11
33, 10
30, 15
28, 18
35, 9
32, 21
34, 10
31, 5
12, 9
16, 8
6, 8
12, 6
8, 10
5, 7
7, 4
4, 8
12, 7
9, 4
7, 5
4, 6
12, 8
7, 7
11, 11
6, 6
7, 9
5, 7
8, 6
13, 4
3, 11
8, 9
13, 9
14, 6
19, 10
17, 16
26, 33
33, 23
20, 24
30, 21
31, 14
28, 12
22, 12
13, 8
8, 14
14, 3
14, 5
10, 11
15, 7
12, 12
24, 11
41, 16
49, 23
54, 44
88, 43
103, 48
123, 58
121, 73
112, 90
113, 82
104, 85
82, 90
51, 83
30, 57
37, 49
19, 63
32, 54
19, 58
24, 32
28, 66
38, 72
66, 112
148, 209
259, 369
460, 599
769, 970
1091, 1374
1486, 1818
1984, 2329
2147, 2522
2337, 2533
2195, 2442
2097, 1979
1677, 1583
1268, 1138
859, 729
580, 470
357, 304
179, 139
110, 93
53, 52
36, 24
26, 16
8, 20
18, 14
14, 20
15, 20
20, 29
33, 25
23, 38
47, 62
65, 82
100, 125
128, 183
186, 240
244, 276
340, 392
336, 374
369, 384
342, 348
279, 279
243, 220
180, 161
133, 121
92, 68
50, 51
43, 19
18, 14
16, 11
9, 9
9, 10
10, 12
12, 10
20, 18
14, 11
8, 14
12, 7
16, 18
12, 17
9, 14
10, 6
5, 10
6, 3
4, 6
6, 1
6, 4
6, 0
5, 4
4, 6
4, 7
3, 6
1, 3
0, 4
8, 5
4, 7
4, 4
3, 2
3, 4
2, 11
2, 9
3, 3
7, 5
8, 5
5, 3
4, 9
5, 5
5, 7
6, 7
10, 8
8, 6
5, 4
3, 5
4, 2
6, 4
3, 4
7, 6
10, 3
2, 2
3, 4
2, 4
6, 6
5, 7
9, 5
6, 2
7, 4
8, 4
9, 1
2, 2
10, 4
7, 6
12, 5
5, 6
6, 3
3, 1
4, 7
5, 3
5, 4
1, 5
6, 2
3, 9
3, 9
6, 4
6, 2
10, 5
9, 1
3, 6
13, 3
5, 8
9, 5
12, 5
9, 5
3, 4
10, 2
6, 7
7, 4
5, 4
5, 8
9, 3
5, 5
3, 7
4, 4
5, 7
5, 3
4, 5
1, 4
4, 4
3, 5
3, 6
3, 3
5, 3
5, 7
0, 8
2, 2
6, 2
6, 3
3, 4
4, 4
0, 7
3, 4
3, 8
2, 2
2, 8
2, 7
1, 1
3, 7
1, 6
0, 5
3, 7
2, 4
3, 1
2, 3
3, 4
2, 1
1, 1
4, 6
4, 6
4, 3
1, 4
1, 1
7, 1
3, 4
2, 3
5, 2
1, 2
2, 1
3, 4
5, 0
3, 2
1, 4
5, 1
3, 2
3, 4
3, 4
2, 0
2, 5
10, 0
0, 4
2, 3
3, 2
2, 3
4, 0
2, 3
2, 2
2, 1
2, 4
5, 4
2, 2
0, 3
3, 7
6, 3
2, 3
1, 4
3, 0
3, 7
1, 2
2, 3
3, 3
3, 4
5, 3
2, 3
1, 3
0, 4
3, 2
2, 2
2, 1
2, 1
6, 3
2, 5
5, 5
3, 2
7, 3
4, 1
2, 3
0, 4
6, 1
5, 1
5, 3
7, 2
3, 4
5, 4
3, 2
5, 7
3, 5
4, 1
2, 3
1, 0
2, 2
3, 1
3, 2
1, 2
1, 0
1, 2
2, 3
4, 4
1, 7
3, 6
4, 2
2, 3
3, 2
3, 3
1, 3
1, 3
0, 3
1, 2
0, 2
3, 3
3, 0
1, 3
1, 0
1, 3
0, 5
3, 2
2, 3
1, 3
0, 2
2, 6
2, 5
4, 3
5, 5
4, 10
2, 4
5, 2
4, 2
5, 3
0, 2
1, 0
1, 2
1, 1
2, 0
1, 5
2, 1
3, 1
2, 1
0, 1
2, 1
2, 4
0, 1
2, 3
4, 2
1, 0
3, 2
1, 0
1, 2
0, 0
1, 3
1, 2
5, 3
3, 1
1, 3
6, 3
2, 0
2, 2
0, 1
5, 2
1, 2
3, 3
1, 1
0, 3
2, 1
1, 2
2, 2
2, 2
2, 2
0, 0
0, 1
3, 2
1, 2
1, 1
0, 1
1, 1
3, 3
2, 0
2, 1
2, 1
4, 0
3, 0
4, 0
0, 2
2, 0
1, 0
2, 0
2, 0
0, 2
2, 1
0, 0
1, 1
0, 0
1, 1
2, 2
0, 2
0, 1
1, 0
1, 1
0, 0
0, 1
2, 2
1, 1
0, 0
1, 0
0, 1
1, 1
0, 0
0, 1
1, 0
1, 3
2, 1
0, 2
3, 1
0, 0
1, 1
0, 1
0, 2
0, 0
2, 0
2, 0
2, 1
3, 0
0, 1
1, 0
0, 0
0, 0
1, 1
1, 0
0, 0
1, 0
1, 1
0, 0
2, 0
1, 1
0, 0
0, 0
1, 2
0, 1
1, 1
0, 1
0, 1
1, 0
0, 1
1, 0
2, 2
0, 1
0, 0
1, 0
1, 1
0, 0
0, 1
0, 1
0, 1
0, 0
0, 0
1, 1
0, 3
1, 0
1, 0
0, 0
0, 1
1, 1
1, 1
1, 0
1, 1
1, 0
0, 1
0, 0
0, 0
0, 0
1, 0
0, 0
0, 0
1, 0
0, 0
0, 1
0, 1
0, 0
1, 1
0, 1
1, 0
0, 0
3, 1
1, 0
1, 0
0, 0
1, 1
1, 0
1, 0
0, 0
0, 0
2, 0
0, 0
0, 0
1, 0
0, 0
0, 0
0, 0
0, 1
0, 0
0, 0
0, 0
1, 0
3, 0
0, 0
0, 1
0, 0
0, 0
0, 1
1, 0
0, 1
0, 0
1, 0
0, 0
0, 1
1, 1
1, 0
0, 0
1, 0
0, 0
0, 1
0, 0
0, 0
1, 1
0, 1
0, 0
0, 0
1, 0
0, 0
0, 0
0, 0
1, 0
0, 0
0, 2
0, 0
1, 0
0, 0
0, 0
0, 0
1, 0
0, 0
1, 0
0, 0
2, 1
3, 0
0, 0
0, 0
0, 0
1, 0
0, 0
0, 0
0, 0
0, 0
1, 0
0, 0
0, 0
1, 1
0, 0
0, 1
0, 0
0, 0
0, 0
0, 0
0, 0
0, 0
0, 0
0, 0
0, 0
0, 0
0, 1
1, 1
0, 0
1, 0
1, 1
1, 3
0, 0
0, 0
0, 0
1, 2
0, 0
0, 0
0, 0
0, 1
0, 0
0, 0
0, 1
0, 0
0, 0
1, 0
0, 0
2, 0
0, 0
0, 0
0, 0
0, 1
1, 0
0, 0
0, 1
0, 1
0, 0
0, 0
0, 0
1, 0
0, 1
2, 0
0, 0
0, 0
0, 0
1, 0
0, 0
0, 0
1, 0
0, 0
0, 0
0, 0
0, 0
0, 1
0, 0
1, 0
0, 0
0, 1
0, 0
0, 0
0, 1
0, 0
0, 0
0, 0
0, 0
1, 0
0, 0
0, 0
0, 0
0, 0
1, 0
0, 0
0, 0
0, 1
0, 2
0, 0
1, 1
0, 0
2, 0
2, 0
0, 0
0, 1
0, 0
1, 0
0, 1
0, 0
0, 0
0, 0
0, 0
0, 0
0, 1
0, 0
0, 0
0, 0
0, 0
0, 0
0, 0
0, 0
1, 0
1, 0
1, 0
0, 0
1, 0
0, 0
0, 0
0, 0
0, 0
0, 0
0, 0
0, 0
0, 0
0, 0
0, 0
0, 0
0, 0
0, 0
0, 0
0, 0
0, 1
0, 1
0, 0
0, 0
0, 0
0, 0
0, 0
0, 0
0, 0
0, 0
0, 0
0, 0
0, 1
0, 0
0, 0
0, 0
0, 0
0, 0
0, 0
0, 0
0, 0
0, 0
0, 0
0, 0
0, 0
0, 0
0, 0
0, 0
0, 0
0, 0
0, 0
0, 0
0, 0
0, 0
0, 0
0, 0
0, 0
0, 0
0, 0
0, 0
0, 0
0, 0
0, 0
0, 0
0, 0
0, 0
0, 0
0, 0
0, 0
0, 0
0, 0
0, 0
0, 1
0, 0
0, 1
0, 0
0, 0
0, 0
0, 0
0, 0
0, 0
0, 0
0, 1
0, 0
0, 0
0, 0
0, 0
0, 0
0, 0
0, 0
0, 0
0, 0
0, 0
0, 0
0, 0
0, 1
0, 0
0, 0
0, 0
0, 0
0, 0
0, 0
0, 0
0, 0
0, 0
0, 0
0, 0
0, 0
0, 0
0, 0
0, 0
0, 0
0, 0
0, 0
0, 0
0, 0
0, 0
0, 0
0, 0
0, 0
0, 0
0, 1
0, 0
0, 0
0, 0
0, 0
0, 1
0, 0
0, 0
0, 0
0, 0
0, 0
0, 0
0, 0
0, 0
0, 0
0, 0
0, 0
0, 0
0, 0
0, 0
0, 0
0, 0
0, 0
0, 0
0, 0
0, 0
0, 0
0, 0
0, 0
1, 0
0, 0
0, 0
0, 0
0, 0
0, 0
0, 0
0, 0
0, 0
0, 1
0, 0
0, 0
0, 0
0, 0
0, 0
0, 0
1, 0
0, 0
0, 0
0, 0
0, 0
0, 0
0, 0
0, 0
0, 0
0, 0
0, 0
0, 0
0, 0
0, 0
0, 0
0, 0
0, 0
0, 0
0, 0
0, 0
0, 0
0, 0
0, 0
0, 0
0, 0
0, 0
0, 0
0, 0
0, 0
0, 0
0, 0
0, 0
0, 0
0, 0
0, 0
0, 0
0, 0
0, 0
0, 0
0, 0
0, 0
0, 0
0, 0
0, 0
0, 0
0, 0
0, 0
0, 0
0, 0
0, 0
0, 0
0, 0
0, 0
0, 0
0, 0
0, 0
0, 0
0, 0
0, 0
0, 0
0, 0
0, 0
0, 0
0, 0
0, 0
0, 0
0, 0
0, 0
0, 0
0, 0
0, 0
0, 0
0, 0
0, 0
0, 0
0, 0
0, 0
0, 0
0, 0
0, 0
0, 0
0, 0
0, 0
0, 0
0, 0
0, 0
0, 0
0, 0
0, 0
0, 0
0, 0
0, 0
0, 0
0, 0
0, 0
0, 0
0, 0
0, 0
0, 0
0, 0
0, 0
0, 0
0, 0
0, 0
0, 0
0, 0
0, 0
0, 0
0, 0
0, 0
0, 0
0, 0
0, 0
0, 0
0, 0
0, 0
0, 0
0, 0
0, 0
0, 0
0, 0
0, 0
0, 0
0, 0
0, 0
0, 0
0, 0
0, 0
0, 0
0, 0
0, 0
0, 0
0, 0
0, 0
0, 0
0, 0
0, 0
0, 0
0, 0
0, 0
0, 0
0, 0
0, 0
0, 0
0, 0
0, 0
0, 0
0, 0
0, 0
0, 0
0, 0
0, 0
0, 0
0, 0
0, 0
0, 0
0, 0
0, 0
0, 0
0, 0
0, 0
0, 0
0, 0
0, 0
0, 0
0, 0
0, 0
0, 0
0, 0
0, 0
0, 0
0, 0
0, 0
0, 0
0, 0
0, 0
0, 0
0, 0
0, 0
0, 0
0, 0
0, 0
0, 0
0, 0
0, 0
0, 0
0, 0
0, 0
0, 0
0, 0
0, 0
0, 0
0, 0
0, 0
0, 0
0, 0
0, 0
0, 0
0, 0
0, 0
0, 0
0, 0
0, 0
0, 0
0, 0
0, 0
0, 0
0, 0
0, 0
0, 0
0, 0
0, 0
0, 0
0, 0
0, 0
0, 0
0, 0
0, 0
0, 0
0, 0
0, 0
0, 0
0, 0
0, 0
0, 0
0, 0
0, 0
0, 0
0, 0
0, 0
0, 0
0, 0
0, 0
0, 0
0, 0
0, 0
0, 0
0, 0
0, 0
0, 0
0, 0
0, 0
0, 0
0, 0
0, 0
0, 0
0, 0
0, 0
0, 0
0, 0
0, 0
0, 0
0, 0
0, 0
0, 0
0, 0
0, 0
0, 0
0, 0
0, 0
0, 0
0, 0
0, 0
0, 0
0, 0
0, 0
0, 0
0, 0
0, 0
0, 0
0, 0
0, 0
0, 0
0, 0
0, 0
0, 0
0, 0
0, 0
0, 0
0, 0
0, 0
0, 0
0, 0
0, 0
0, 0
0, 0
0, 0
0, 0
0, 0
0, 0
0, 0
0, 0
0, 0
0, 0
0, 0
0, 0
0, 0
0, 0
0, 0
0, 0
0, 0
0, 0
0, 0
0, 0
0, 0
0, 0
0, 0
0, 0
0, 0
0, 0
0, 0
0, 0
0, 0
0, 0
0, 0
0, 0
0, 0
0, 0
0, 0
0, 0
0, 0
0, 0
#ENDOFDATA     end of spectrum data