File: host_upload/06-09-2024/ps_0852/dump3/ps__0852shot_2335.msa
#FORMAT      : EMSA/MAS spectral data file
#VERSION     : TC202v2.0 PIXL
#TITLE       : N/A
#DATE        :       Date in the format DD-MMM-YYYY, for example 07-JUL-2010
#TIME        :             The time of day at which the spectrum was recorded, in 24-hour format
#OWNER       : PIXL Flight Model       (PIXL will use this to indicate which instrument took the data.)
#NPOINTS     : 4096     Number of data points in the spectrum (This can be zero for configuration only files)
#NCOLUMNS    : 2     Number of data columns in the spectrum (This can be zero for configuration only files)
#XUNITS      : eV
#YUNITS      : COUNTS
#DATATYPE    : YY
#XPERCHAN    : 7.862, 7.881   eV per channel (separate by commas if more than one detector)
#OFFSET      : 18.5, -22.4         eV of first channel  (separate by commas if more than one detector
#SIGNALTYPE  : XRF
#YP_TEMP     : 2.364
#LIVETIME    : 8.5382, 8.5835   seconds (separate by commas if more than one detector)
#REALTIME    : 10, 10.0   seconds (separate by commas if more than one detector)
#SPECTRUM    : start of spectrum data
0, 0
0, 0
0, 0
0, 0
0, 0
0, 0
0, 0
0, 0
0, 0
0, 0
0, 0
0, 0
0, 0
0, 0
0, 0
0, 0
0, 0
0, 0
0, 0
0, 0
0, 0
0, 0
0, 0
0, 0
0, 0
0, 0
0, 0
0, 0
0, 0
0, 0
1, 0
0, 0
0, 0
1, 0
0, 0
0, 0
0, 2
0, 1
1, 0
0, 2
3, 3
2, 0
0, 1
0, 2
1, 0
1, 2
1, 1
2, 1
4, 5
15, 19
22, 39
44, 44
40, 67
75, 70
82, 88
64, 77
61, 51
44, 43
25, 22
19, 13
3, 12
7, 1
3, 7
2, 7
5, 5
5, 0
9, 11
7, 11
21, 27
47, 64
95, 97
158, 159
280, 281
324, 354
408, 429
379, 458
325, 381
291, 285
173, 190
93, 128
73, 72
31, 30
19, 18
6, 7
5, 2
3, 2
4, 4
0, 0
2, 3
0, 1
1, 1
5, 1
6, 3
5, 5
7, 10
12, 27
29, 20
20, 37
32, 32
36, 29
39, 28
33, 35
13, 15
8, 14
7, 11
11, 8
10, 11
9, 17
9, 29
11, 19
20, 32
21, 38
37, 39
47, 46
33, 46
41, 54
48, 47
34, 34
23, 43
20, 28
25, 25
25, 23
26, 27
25, 21
14, 15
17, 15
9, 11
13, 10
7, 7
7, 8
7, 1
2, 1
0, 2
5, 2
2, 0
2, 4
4, 2
4, 4
4, 2
2, 3
1, 1
0, 4
3, 1
0, 1
1, 2
2, 2
1, 5
1, 1
1, 0
3, 2
3, 6
9, 4
7, 4
8, 8
14, 9
14, 13
14, 13
15, 16
20, 16
10, 9
8, 11
11, 8
5, 11
3, 2
3, 3
3, 4
3, 7
4, 3
6, 6
3, 7
9, 1
2, 9
3, 3
6, 7
6, 5
4, 3
5, 2
1, 6
5, 7
3, 5
5, 6
4, 9
3, 6
2, 4
5, 1
4, 10
4, 6
4, 7
5, 8
14, 5
3, 9
6, 10
7, 15
10, 14
15, 12
5, 15
13, 14
10, 17
15, 28
14, 17
13, 20
11, 24
12, 17
8, 21
11, 21
9, 16
6, 22
4, 21
5, 29
3, 37
3, 54
5, 34
6, 51
6, 40
2, 37
6, 23
7, 24
5, 12
1, 13
9, 8
2, 9
2, 2
8, 8
8, 8
6, 11
6, 8
19, 8
15, 7
18, 11
27, 8
23, 19
30, 20
26, 13
28, 11
20, 9
11, 9
10, 9
10, 2
10, 10
7, 6
6, 10
9, 8
8, 10
11, 9
16, 20
19, 21
18, 27
33, 44
35, 47
50, 66
59, 68
76, 63
68, 61
51, 60
36, 42
36, 28
34, 27
33, 20
31, 19
31, 8
27, 23
47, 29
54, 74
110, 118
163, 239
261, 357
498, 637
715, 968
1080, 1404
1581, 1782
2004, 2290
2143, 2569
2540, 2454
2501, 2402
2118, 2037
1818, 1514
1472, 1132
1020, 744
692, 455
435, 247
233, 141
154, 93
74, 48
54, 44
31, 31
22, 27
20, 16
17, 21
14, 15
20, 22
19, 34
24, 38
50, 67
61, 80
97, 125
136, 219
206, 225
266, 301
322, 367
306, 400
339, 392
327, 316
313, 243
231, 219
189, 168
152, 111
89, 69
45, 46
32, 25
24, 20
5, 12
2, 16
7, 24
2, 24
16, 32
16, 35
17, 37
11, 42
17, 32
11, 38
25, 36
17, 29
14, 26
20, 7
19, 11
6, 7
12, 0
14, 5
2, 5
3, 5
4, 3
11, 5
8, 2
6, 3
5, 1
6, 1
3, 4
4, 1
2, 5
3, 1
6, 4
5, 7
3, 4
3, 5
10, 3
5, 5
4, 2
7, 4
7, 8
3, 6
5, 7
4, 5
4, 6
5, 6
4, 3
6, 3
7, 3
3, 2
2, 3
3, 4
3, 3
1, 6
3, 7
6, 1
6, 5
3, 4
12, 2
6, 8
6, 4
6, 4
9, 4
6, 2
3, 3
2, 4
7, 3
2, 5
1, 2
6, 4
2, 3
2, 6
2, 2
1, 8
8, 5
2, 2
3, 6
2, 2
1, 3
2, 10
0, 6
3, 5
2, 8
3, 8
1, 5
5, 5
5, 2
0, 3
2, 5
5, 1
3, 7
1, 4
3, 2
2, 4
4, 1
0, 5
7, 4
2, 1
2, 2
4, 2
3, 1
5, 4
5, 1
3, 5
7, 6
3, 5
7, 3
7, 4
5, 6
5, 5
5, 11
4, 9
2, 5
2, 9
5, 9
1, 9
1, 6
2, 4
4, 3
4, 4
4, 2
0, 1
6, 6
3, 5
4, 4
2, 1
3, 1
3, 1
4, 1
4, 2
0, 2
1, 3
3, 2
3, 6
3, 4
2, 6
3, 2
1, 0
1, 3
2, 1
3, 2
2, 2
3, 2
4, 2
1, 2
5, 1
4, 2
2, 3
1, 5
13, 7
6, 3
12, 6
4, 1
10, 1
6, 0
16, 2
8, 4
10, 2
9, 2
4, 2
7, 2
10, 2
3, 2
2, 0
4, 1
0, 0
5, 4
2, 3
3, 0
2, 2
2, 0
0, 3
1, 0
0, 4
4, 2
4, 4
2, 6
2, 6
2, 0
2, 5
3, 4
0, 6
4, 3
0, 3
1, 5
4, 4
3, 0
0, 4
2, 3
3, 4
2, 4
0, 4
1, 3
1, 0
1, 4
4, 1
3, 2
1, 3
2, 5
2, 3
3, 9
2, 1
1, 2
6, 4
3, 1
1, 3
3, 1
7, 1
2, 0
2, 0
3, 4
1, 1
5, 3
2, 1
0, 1
1, 3
2, 2
0, 6
1, 1
3, 2
2, 2
1, 1
2, 4
1, 3
0, 3
2, 1
0, 4
3, 2
1, 2
0, 1
1, 3
0, 4
3, 3
9, 7
4, 1
1, 3
6, 7
2, 5
1, 2
1, 5
5, 3
1, 1
2, 3
1, 3
3, 2
1, 0
2, 1
5, 1
1, 0
1, 2
1, 0
2, 1
2, 2
1, 1
2, 0
4, 1
4, 1
1, 1
0, 2
4, 4
2, 3
1, 2
2, 2
6, 3
0, 1
3, 4
3, 2
4, 2
5, 4
0, 1
2, 3
1, 1
0, 1
0, 0
0, 1
1, 0
1, 1
2, 2
0, 1
0, 1
1, 1
2, 0
2, 2
0, 4
1, 0
1, 1
2, 2
1, 3
1, 2
0, 1
0, 2
0, 0
1, 0
2, 2
3, 0
0, 0
1, 1
1, 0
2, 2
0, 0
2, 1
0, 0
2, 1
0, 3
0, 2
0, 0
1, 1
1, 1
1, 1
2, 2
0, 2
0, 0
0, 1
1, 0
2, 1
1, 1
0, 1
1, 0
0, 0
0, 0
0, 3
0, 2
0, 0
0, 2
1, 1
0, 0
2, 0
0, 0
0, 1
1, 1
1, 0
1, 3
1, 0
1, 0
2, 2
0, 1
0, 2
2, 1
1, 0
1, 0
3, 1
1, 0
2, 0
0, 1
1, 1
0, 0
0, 0
0, 1
1, 0
0, 0
0, 1
1, 1
0, 1
0, 1
0, 0
0, 1
1, 0
1, 0
0, 0
0, 1
0, 1
1, 1
0, 1
1, 0
1, 0
0, 0
3, 0
0, 1
0, 0
0, 0
0, 1
0, 0
0, 1
2, 0
1, 0
0, 1
1, 1
1, 0
0, 1
1, 1
0, 0
0, 0
0, 0
0, 1
0, 1
1, 0
0, 0
0, 0
2, 1
0, 0
0, 0
1, 2
1, 0
1, 1
0, 0
0, 0
2, 1
0, 1
0, 0
0, 0
1, 0
0, 1
1, 1
0, 0
2, 0
1, 1
0, 0
0, 0
0, 0
0, 0
0, 0
0, 1
1, 0
0, 1
0, 0
0, 0
1, 0
1, 0
0, 1
0, 0
0, 0
1, 0
0, 0
0, 0
0, 0
2, 0
0, 0
0, 0
0, 1
0, 0
1, 0
1, 1
0, 0
2, 0
0, 1
1, 0
0, 1
0, 0
0, 0
0, 0
0, 0
1, 0
0, 0
0, 0
1, 0
0, 0
1, 0
0, 0
1, 0
0, 1
1, 0
0, 0
1, 0
1, 0
1, 0
1, 0
0, 1
0, 1
0, 0
1, 0
0, 0
1, 0
1, 0
0, 1
0, 0
1, 0
0, 1
1, 0
0, 0
0, 0
0, 0
0, 0
0, 0
0, 0
0, 0
1, 0
0, 0
0, 0
1, 0
0, 0
0, 0
0, 1
0, 0
0, 1
1, 1
0, 1
0, 0
0, 0
0, 1
0, 0
0, 0
1, 1
0, 0
0, 0
1, 0
0, 1
0, 0
0, 0
1, 0
0, 0
0, 0
0, 0
0, 0
0, 0
0, 1
0, 0
0, 2
0, 1
1, 0
0, 1
0, 1
0, 0
1, 1
0, 0
0, 0
0, 1
0, 0
1, 0
0, 0
0, 0
0, 0
1, 0
0, 0
0, 0
0, 0
0, 0
1, 0
0, 0
0, 1
0, 0
1, 0
0, 0
0, 0
0, 0
0, 0
0, 1
0, 0
0, 0
0, 0
0, 0
0, 0
0, 0
0, 2
1, 1
0, 0
0, 0
0, 0
1, 1
0, 0
0, 0
0, 0
0, 0
0, 0
1, 0
0, 0
0, 0
0, 1
0, 0
0, 0
0, 0
0, 0
0, 0
0, 0
0, 0
0, 0
0, 0
0, 0
0, 0
0, 0
1, 0
0, 0
0, 0
0, 0
0, 0
0, 0
0, 0
0, 0
0, 0
0, 0
0, 0
0, 0
0, 0
0, 1
0, 0
0, 0
1, 0
0, 0
0, 0
0, 0
0, 0
0, 0
0, 0
0, 0
0, 1
0, 0
0, 0
0, 0
0, 0
0, 0
0, 0
0, 0
0, 0
0, 0
0, 0
0, 0
0, 0
0, 0
0, 0
0, 0
0, 0
0, 0
0, 0
0, 0
0, 0
0, 0
0, 0
0, 0
0, 0
1, 0
0, 0
0, 0
0, 0
0, 0
0, 0
0, 0
0, 0
0, 0
0, 0
0, 0
1, 0
0, 0
0, 0
0, 0
0, 0
0, 0
0, 0
0, 0
0, 0
0, 0
0, 0
0, 0
0, 0
0, 0
0, 0
0, 0
0, 0
0, 0
0, 0
0, 0
0, 0
0, 0
0, 0
0, 0
0, 0
0, 0
0, 0
0, 0
0, 0
0, 1
0, 0
0, 0
0, 0
0, 0
0, 0
0, 0
0, 0
0, 0
0, 0
0, 0
0, 0
0, 0
0, 0
1, 0
0, 0
0, 0
0, 0
0, 0
0, 0
0, 0
0, 0
0, 0
0, 0
0, 0
0, 0
0, 0
0, 0
0, 0
0, 0
0, 0
0, 0
0, 0
0, 0
0, 0
0, 0
0, 0
0, 0
0, 0
0, 0
0, 0
0, 0
0, 0
0, 0
0, 0
0, 0
0, 0
0, 0
0, 0
0, 0
0, 0
0, 0
0, 0
0, 0
0, 0
0, 0
0, 0
0, 0
0, 0
0, 0
0, 0
0, 0
0, 0
0, 0
0, 0
0, 0
0, 1
0, 0
0, 0
0, 0
0, 0
0, 0
0, 0
0, 0
0, 0
0, 0
0, 0
0, 0
0, 0
0, 0
0, 0
0, 0
0, 0
0, 0
0, 0
0, 0
0, 0
0, 0
0, 0
0, 0
0, 0
0, 0
0, 0
0, 0
0, 0
0, 0
0, 0
0, 0
0, 0
0, 0
0, 0
0, 0
0, 0
0, 0
0, 0
0, 0
0, 0
0, 0
0, 0
0, 0
0, 0
0, 0
0, 0
0, 0
0, 0
0, 0
0, 0
0, 0
0, 0
0, 0
0, 0
0, 0
0, 0
0, 0
0, 0
0, 0
0, 0
0, 0
0, 0
0, 0
0, 0
0, 0
0, 0
0, 0
0, 0
0, 0
0, 0
0, 0
0, 0
0, 0
0, 0
0, 0
0, 0
0, 0
0, 0
0, 0
0, 0
0, 0
0, 0
0, 0
0, 0
0, 0
0, 0
0, 0
0, 0
0, 0
0, 0
0, 0
0, 0
0, 0
0, 0
0, 0
0, 0
0, 0
0, 0
0, 0
0, 0
0, 0
0, 0
0, 0
0, 0
0, 0
0, 0
0, 0
0, 0
0, 0
0, 0
0, 0
0, 0
0, 0
0, 0
0, 0
0, 0
0, 0
0, 0
0, 0
0, 0
0, 0
0, 0
0, 0
0, 0
0, 0
0, 0
0, 0
0, 0
0, 0
0, 0
0, 0
0, 0
0, 0
0, 0
0, 0
0, 0
0, 0
0, 0
0, 0
0, 0
0, 0
0, 0
0, 0
0, 0
0, 0
0, 0
0, 0
0, 0
0, 0
0, 0
0, 0
0, 0
0, 0
0, 0
0, 0
0, 0
0, 0
0, 0
0, 0
0, 0
0, 0
0, 0
0, 0
0, 0
0, 0
0, 0
0, 0
0, 0
0, 0
0, 0
0, 0
0, 0
0, 0
0, 0
0, 0
0, 0
0, 0
0, 0
0, 0
0, 0
0, 0
0, 0
0, 0
0, 0
0, 0
0, 0
0, 0
0, 0
0, 0
0, 0
0, 0
0, 0
0, 0
0, 0
0, 0
0, 0
0, 0
0, 0
0, 0
0, 0
0, 0
0, 0
0, 0
0, 0
0, 0
0, 0
0, 0
0, 0
0, 0
0, 0
0, 0
0, 0
0, 0
0, 0
0, 0
0, 0
0, 0
0, 0
0, 0
0, 0
0, 0
0, 0
0, 0
0, 0
0, 0
0, 0
0, 0
0, 0
0, 0
0, 0
0, 0
0, 0
0, 0
0, 0
0, 0
0, 0
0, 0
0, 0
0, 0
0, 0
0, 0
0, 0
0, 0
0, 0
0, 0
0, 0
0, 0
0, 0
0, 0
0, 0
0, 0
0, 0
0, 0
0, 0
0, 0
0, 0
0, 0
0, 0
0, 0
0, 0
0, 0
0, 0
0, 0
0, 0
0, 0
0, 0
0, 0
0, 0
0, 0
0, 0
0, 0
0, 0
0, 0
0, 0
0, 0
0, 0
0, 0
0, 0
0, 0
0, 0
0, 0
0, 0
0, 0
0, 0
0, 0
0, 0
0, 0
0, 0
0, 0
0, 0
0, 0
0, 0
0, 0
0, 0
0, 0
0, 0
0, 0
0, 0
0, 0
0, 0
0, 0
0, 0
0, 0
0, 0
0, 0
0, 0
0, 0
0, 0
0, 0
0, 0
0, 0
0, 0
0, 0
0, 0
0, 0
0, 0
0, 0
0, 0
0, 0
0, 0
0, 0
0, 0
0, 0
0, 0
0, 0
0, 0
0, 0
0, 0
0, 0
0, 0
0, 0
0, 0
0, 0
#ENDOFDATA     end of spectrum data