File: host_upload/06-09-2024/ps_0852/dump3/ps__0852shot_2531.msa
#FORMAT      : EMSA/MAS spectral data file
#VERSION     : TC202v2.0 PIXL
#TITLE       : N/A
#DATE        :       Date in the format DD-MMM-YYYY, for example 07-JUL-2010
#TIME        :             The time of day at which the spectrum was recorded, in 24-hour format
#OWNER       : PIXL Flight Model       (PIXL will use this to indicate which instrument took the data.)
#NPOINTS     : 4096     Number of data points in the spectrum (This can be zero for configuration only files)
#NCOLUMNS    : 2     Number of data columns in the spectrum (This can be zero for configuration only files)
#XUNITS      : eV
#YUNITS      : COUNTS
#DATATYPE    : YY
#XPERCHAN    : 7.862, 7.881   eV per channel (separate by commas if more than one detector)
#OFFSET      : 18.5, -22.4         eV of first channel  (separate by commas if more than one detector
#SIGNALTYPE  : XRF
#YP_TEMP     : 2.171
#LIVETIME    : 8.53328, 8.33858   seconds (separate by commas if more than one detector)
#REALTIME    : 10, 10.0   seconds (separate by commas if more than one detector)
#SPECTRUM    : start of spectrum data
0, 0
0, 0
0, 0
0, 0
0, 0
0, 0
0, 0
0, 0
0, 0
0, 0
0, 0
0, 0
0, 0
0, 0
0, 0
0, 0
0, 0
0, 0
0, 0
0, 0
0, 0
0, 0
0, 0
0, 0
0, 0
0, 0
0, 0
0, 0
0, 0
0, 0
0, 0
0, 0
0, 0
0, 0
0, 1
1, 1
0, 0
1, 1
1, 2
1, 0
5, 2
0, 0
1, 1
0, 1
1, 2
0, 2
2, 1
4, 0
4, 7
7, 10
14, 22
34, 44
51, 55
70, 74
78, 83
64, 78
66, 71
54, 40
20, 29
7, 12
2, 10
6, 5
8, 2
1, 1
3, 5
1, 3
6, 8
12, 8
17, 24
47, 48
77, 98
182, 167
232, 299
321, 434
390, 440
416, 453
361, 388
297, 293
171, 214
114, 112
55, 66
32, 47
14, 25
6, 7
2, 5
2, 3
1, 1
3, 2
1, 3
2, 1
0, 1
2, 6
6, 6
5, 9
18, 20
24, 27
38, 43
56, 50
57, 66
49, 47
53, 40
40, 43
33, 41
20, 21
15, 19
18, 11
8, 14
13, 13
12, 11
24, 19
17, 20
33, 36
34, 54
45, 46
41, 47
40, 45
37, 36
28, 41
27, 26
31, 21
27, 17
17, 18
11, 15
18, 11
16, 7
5, 16
15, 12
5, 12
16, 11
10, 5
4, 6
8, 2
2, 4
5, 3
5, 1
1, 1
4, 2
2, 2
2, 2
5, 3
1, 4
5, 5
0, 4
1, 6
1, 1
2, 0
0, 1
0, 3
1, 1
3, 4
3, 3
1, 4
2, 3
6, 4
6, 9
5, 15
5, 8
7, 10
13, 8
8, 17
9, 10
9, 12
2, 14
5, 16
1, 22
3, 19
1, 13
2, 10
8, 13
4, 8
5, 7
5, 3
7, 12
12, 7
20, 8
9, 3
19, 7
14, 7
11, 8
14, 6
12, 4
11, 9
5, 4
7, 5
3, 4
6, 9
6, 5
5, 9
9, 3
3, 3
9, 11
12, 9
17, 16
14, 15
9, 17
15, 29
22, 25
23, 22
25, 17
26, 33
14, 19
20, 22
22, 14
15, 6
5, 11
8, 10
6, 8
7, 4
9, 6
7, 14
9, 15
4, 13
8, 12
4, 10
3, 9
3, 9
4, 12
1, 9
6, 9
3, 12
5, 6
3, 7
3, 7
7, 5
5, 7
8, 10
12, 17
9, 5
11, 13
16, 8
7, 15
14, 13
18, 19
13, 6
10, 12
9, 11
7, 6
5, 11
7, 8
3, 10
7, 4
4, 3
5, 9
13, 13
8, 18
14, 34
26, 32
28, 52
46, 57
45, 55
48, 68
50, 59
50, 71
43, 60
48, 46
32, 28
30, 19
23, 16
22, 20
22, 19
21, 22
36, 39
40, 47
63, 111
121, 186
234, 388
422, 664
701, 1017
1063, 1436
1513, 1976
1758, 2257
2103, 2554
2332, 2641
2153, 2454
2040, 2045
1664, 1610
1235, 1164
843, 808
533, 473
333, 285
155, 170
106, 133
47, 95
29, 95
10, 89
11, 83
14, 94
16, 86
10, 79
21, 80
22, 74
24, 78
37, 84
70, 96
89, 147
120, 189
202, 239
248, 303
285, 365
301, 388
297, 383
301, 335
317, 283
247, 222
165, 168
124, 105
76, 79
62, 50
30, 14
19, 16
13, 9
18, 13
18, 10
19, 13
25, 14
23, 13
24, 10
21, 15
24, 21
18, 9
10, 14
16, 13
6, 9
9, 9
6, 7
5, 7
7, 6
7, 6
6, 3
6, 8
8, 6
9, 5
3, 9
7, 5
5, 4
3, 1
5, 2
7, 1
5, 0
4, 2
4, 7
7, 5
4, 9
11, 7
6, 6
8, 8
3, 5
3, 6
5, 6
8, 6
6, 6
6, 6
7, 3
10, 5
7, 7
5, 2
5, 6
9, 5
6, 7
7, 3
4, 1
3, 4
3, 3
3, 5
5, 6
1, 3
5, 10
5, 7
6, 2
5, 6
6, 6
3, 3
2, 3
2, 3
8, 5
1, 4
0, 2
2, 1
2, 3
3, 4
2, 5
1, 2
3, 1
5, 3
3, 7
2, 8
5, 2
5, 6
3, 9
9, 14
7, 12
7, 5
6, 7
7, 12
12, 6
13, 5
11, 9
6, 7
16, 4
14, 7
13, 6
5, 1
14, 6
6, 4
10, 1
5, 3
1, 2
1, 6
4, 4
4, 3
3, 9
7, 10
1, 12
1, 16
5, 10
3, 17
2, 24
5, 24
3, 15
2, 22
3, 22
2, 14
3, 9
4, 9
4, 17
6, 13
3, 4
2, 3
2, 0
7, 3
4, 5
1, 5
3, 2
1, 5
3, 2
1, 3
4, 2
6, 2
4, 4
1, 1
2, 2
5, 1
2, 3
6, 2
4, 4
4, 2
4, 3
3, 4
5, 5
3, 3
1, 4
5, 3
5, 3
3, 2
3, 6
1, 4
1, 6
4, 3
3, 1
3, 4
2, 3
2, 1
2, 1
4, 3
1, 1
3, 1
5, 0
3, 3
3, 0
2, 2
2, 1
1, 5
2, 4
2, 4
3, 2
2, 3
3, 5
2, 3
2, 3
1, 4
2, 1
3, 5
1, 3
6, 2
1, 7
7, 5
3, 7
3, 1
3, 2
1, 3
3, 2
2, 3
2, 1
2, 2
4, 2
3, 2
4, 3
3, 1
1, 3
1, 0
1, 3
2, 2
2, 2
4, 2
4, 2
0, 1
1, 0
0, 2
1, 1
1, 0
0, 4
2, 1
1, 2
1, 4
1, 0
0, 1
0, 1
1, 1
1, 1
2, 1
1, 5
1, 2
0, 0
1, 1
1, 2
0, 5
2, 3
0, 0
2, 1
4, 2
2, 0
0, 1
1, 3
0, 3
2, 3
1, 2
2, 2
4, 3
5, 4
1, 4
2, 5
3, 5
3, 3
1, 2
8, 7
5, 5
1, 2
2, 6
1, 1
2, 0
1, 1
1, 3
1, 2
0, 2
2, 1
2, 2
1, 2
0, 0
1, 0
1, 2
1, 2
0, 3
2, 2
3, 2
0, 2
1, 1
4, 2
3, 2
2, 1
3, 3
2, 0
2, 2
2, 2
0, 0
2, 2
4, 3
2, 0
1, 0
1, 0
0, 2
1, 3
2, 2
1, 2
2, 0
2, 2
1, 1
1, 2
3, 0
2, 1
0, 2
1, 0
0, 1
1, 2
1, 1
0, 0
0, 1
1, 1
1, 0
0, 0
3, 1
0, 0
0, 1
2, 2
0, 0
0, 3
2, 0
1, 4
2, 2
1, 1
2, 0
1, 2
1, 3
1, 0
0, 0
0, 0
0, 0
0, 2
0, 2
1, 0
0, 1
1, 2
0, 0
2, 0
2, 2
2, 1
1, 1
0, 1
0, 0
0, 1
0, 1
0, 1
0, 2
1, 0
0, 1
1, 0
0, 1
2, 1
2, 3
1, 1
1, 1
1, 0
0, 0
1, 0
2, 1
1, 1
1, 0
0, 0
1, 0
0, 0
0, 0
1, 2
0, 0
2, 0
0, 0
2, 0
0, 0
0, 0
0, 0
2, 0
2, 0
0, 0
1, 0
1, 2
0, 0
0, 0
0, 0
0, 0
0, 0
0, 1
0, 0
0, 3
0, 0
1, 2
2, 0
0, 0
0, 1
0, 0
0, 0
2, 1
0, 1
0, 1
2, 1
0, 1
1, 1
0, 1
0, 3
0, 0
1, 0
0, 1
0, 0
0, 0
1, 0
0, 0
0, 0
0, 0
1, 0
0, 0
2, 0
1, 0
0, 0
0, 0
0, 0
1, 0
2, 1
0, 0
0, 0
1, 0
0, 1
1, 2
0, 0
1, 0
1, 0
0, 0
0, 0
0, 0
1, 1
0, 3
0, 1
0, 1
2, 0
1, 0
1, 0
0, 0
0, 0
1, 0
0, 1
0, 0
0, 1
0, 0
0, 0
0, 0
1, 0
0, 0
0, 0
0, 0
0, 0
0, 0
0, 0
1, 1
0, 1
1, 0
0, 0
0, 0
0, 0
0, 0
1, 2
0, 1
0, 1
0, 2
0, 0
0, 1
0, 0
0, 0
0, 0
0, 0
1, 0
1, 1
0, 0
0, 1
0, 0
0, 1
0, 0
0, 1
1, 2
0, 2
0, 1
0, 1
0, 0
0, 0
0, 0
0, 0
1, 1
0, 0
0, 0
0, 1
0, 1
0, 0
0, 0
0, 1
0, 0
0, 0
1, 0
0, 0
0, 0
1, 0
0, 0
0, 1
0, 1
0, 1
1, 2
0, 0
0, 0
0, 1
1, 0
0, 0
0, 0
0, 0
0, 0
1, 1
0, 1
0, 0
1, 0
0, 0
0, 0
0, 0
0, 1
0, 0
1, 0
0, 0
0, 0
0, 0
1, 0
0, 0
0, 0
0, 0
0, 0
0, 0
0, 0
1, 0
0, 0
1, 0
1, 0
0, 0
0, 0
0, 0
0, 0
1, 0
0, 0
0, 0
0, 0
0, 0
0, 0
1, 0
0, 0
0, 1
0, 0
0, 0
0, 0
0, 2
0, 0
0, 0
0, 1
0, 0
0, 0
0, 0
0, 0
1, 0
0, 0
0, 0
0, 0
1, 0
0, 0
0, 0
0, 0
0, 0
0, 0
1, 0
0, 0
0, 0
0, 0
0, 1
0, 0
0, 0
0, 0
0, 0
0, 0
0, 0
0, 0
0, 0
0, 0
0, 1
0, 0
1, 0
0, 0
0, 0
0, 0
0, 1
0, 1
0, 0
0, 1
0, 0
0, 0
0, 0
0, 0
0, 0
0, 0
0, 1
0, 0
1, 0
0, 0
0, 0
0, 0
0, 0
2, 0
0, 0
0, 0
0, 0
0, 0
0, 1
0, 0
0, 0
0, 0
0, 0
0, 0
0, 0
0, 0
0, 0
0, 0
0, 0
0, 0
0, 0
0, 0
0, 0
0, 0
0, 0
1, 0
0, 0
0, 0
0, 0
0, 0
0, 0
0, 0
0, 1
0, 0
0, 0
0, 0
0, 0
0, 0
0, 0
0, 0
0, 0
0, 0
0, 0
0, 0
0, 0
0, 0
0, 0
0, 0
0, 0
0, 0
0, 0
0, 0
0, 0
0, 0
0, 0
0, 0
0, 0
0, 0
0, 0
0, 0
0, 0
0, 0
0, 0
0, 0
0, 0
0, 0
0, 0
0, 1
0, 0
0, 0
0, 0
0, 0
0, 0
0, 0
0, 0
0, 0
0, 0
0, 0
0, 0
0, 0
0, 0
0, 0
0, 0
0, 0
0, 0
0, 0
0, 0
0, 0
0, 0
0, 0
0, 0
0, 0
0, 0
0, 0
0, 0
0, 0
0, 0
0, 0
0, 0
0, 0
0, 0
0, 0
0, 0
0, 0
0, 0
0, 0
0, 0
0, 0
0, 0
0, 0
0, 0
0, 0
0, 0
0, 0
0, 0
0, 0
0, 0
0, 0
0, 0
0, 0
0, 0
0, 0
0, 0
0, 0
0, 0
0, 0
0, 0
0, 0
0, 0
0, 0
0, 0
0, 0
0, 0
0, 0
0, 0
0, 0
0, 0
0, 0
0, 0
0, 0
0, 0
0, 0
0, 0
0, 0
0, 0
0, 0
0, 0
0, 0
0, 0
0, 0
0, 0
0, 0
0, 0
0, 0
0, 0
0, 0
0, 0
0, 0
0, 0
0, 0
0, 0
0, 0
0, 0
1, 0
0, 0
0, 0
0, 0
0, 0
0, 0
0, 0
0, 0
0, 0
0, 0
0, 0
0, 0
0, 0
0, 0
0, 0
0, 0
0, 0
0, 0
0, 0
0, 0
0, 0
0, 0
0, 0
0, 0
0, 0
0, 0
0, 0
0, 0
0, 0
0, 0
0, 0
0, 0
0, 0
0, 0
0, 0
0, 0
0, 0
0, 0
0, 0
0, 0
0, 0
0, 0
0, 0
0, 0
0, 0
0, 0
0, 0
0, 0
0, 0
0, 0
0, 0
0, 0
0, 0
0, 0
0, 0
0, 0
0, 0
0, 0
0, 0
0, 0
0, 0
0, 0
0, 0
0, 0
0, 0
0, 0
0, 0
0, 0
0, 0
0, 0
0, 0
0, 0
0, 0
0, 0
0, 0
0, 0
0, 0
0, 0
0, 0
0, 0
0, 0
0, 0
0, 0
0, 0
0, 0
0, 0
0, 0
0, 0
0, 0
0, 0
0, 0
0, 0
0, 0
0, 0
0, 0
0, 0
0, 0
0, 0
0, 0
0, 0
0, 0
0, 0
0, 0
0, 0
0, 0
0, 0
0, 0
0, 0
0, 0
0, 0
0, 0
0, 0
0, 0
0, 0
0, 0
0, 0
0, 0
0, 0
0, 0
0, 0
0, 0
0, 0
0, 0
0, 0
0, 0
0, 0
0, 0
0, 0
0, 0
0, 0
0, 0
0, 0
0, 0
0, 0
0, 0
0, 0
0, 0
0, 0
0, 0
0, 0
0, 0
0, 0
0, 0
0, 0
0, 0
0, 0
0, 0
0, 0
0, 0
0, 0
0, 0
0, 0
0, 0
0, 0
0, 0
0, 0
0, 0
0, 0
0, 0
0, 0
0, 0
0, 0
0, 0
0, 0
0, 0
0, 0
0, 0
0, 0
0, 0
0, 0
0, 0
0, 0
0, 0
0, 0
0, 0
0, 0
0, 0
0, 0
0, 0
0, 0
0, 0
0, 0
0, 0
0, 0
0, 0
0, 0
0, 0
0, 0
0, 0
0, 0
0, 0
0, 0
0, 0
0, 0
0, 0
0, 0
0, 0
0, 0
0, 0
0, 0
0, 0
0, 0
0, 0
0, 0
0, 0
0, 0
0, 0
0, 0
0, 0
0, 0
0, 0
0, 0
0, 0
0, 0
0, 0
0, 0
0, 0
0, 0
0, 0
0, 0
0, 0
0, 0
0, 0
0, 0
0, 0
0, 0
0, 0
0, 0
0, 0
0, 0
0, 0
0, 0
0, 0
0, 0
0, 0
0, 0
0, 0
0, 0
0, 0
0, 0
0, 0
0, 0
0, 0
0, 0
0, 0
0, 0
0, 0
0, 0
0, 0
0, 0
0, 0
0, 0
0, 0
0, 0
0, 0
0, 0
0, 0
0, 0
0, 0
0, 0
0, 0
0, 0
0, 0
0, 0
0, 0
0, 0
0, 0
0, 0
0, 0
0, 0
0, 0
0, 0
0, 0
0, 0
0, 0
0, 0
0, 0
0, 0
0, 0
0, 0
0, 0
0, 0
0, 0
0, 0
0, 0
0, 0
0, 0
0, 0
0, 0
0, 0
0, 0
0, 0
0, 0
0, 0
0, 0
0, 0
0, 0
0, 0
0, 0
0, 0
0, 0
0, 0
0, 0
0, 0
0, 0
0, 0
0, 0
0, 0
0, 0
0, 0
0, 0
0, 0
0, 0
#ENDOFDATA     end of spectrum data