File: host_upload/06-09-2024/ps_0852/dump3/ps__0852shot_2265.msa
#FORMAT      : EMSA/MAS spectral data file
#VERSION     : TC202v2.0 PIXL
#TITLE       : N/A
#DATE        :       Date in the format DD-MMM-YYYY, for example 07-JUL-2010
#TIME        :             The time of day at which the spectrum was recorded, in 24-hour format
#OWNER       : PIXL Flight Model       (PIXL will use this to indicate which instrument took the data.)
#NPOINTS     : 4096     Number of data points in the spectrum (This can be zero for configuration only files)
#NCOLUMNS    : 2     Number of data columns in the spectrum (This can be zero for configuration only files)
#XUNITS      : eV
#YUNITS      : COUNTS
#DATATYPE    : YY
#XPERCHAN    : 7.862, 7.881   eV per channel (separate by commas if more than one detector)
#OFFSET      : 18.5, -22.4         eV of first channel  (separate by commas if more than one detector
#SIGNALTYPE  : XRF
#YP_TEMP     : 2.171
#LIVETIME    : 8.56789, 8.57612   seconds (separate by commas if more than one detector)
#REALTIME    : 10, 10.0   seconds (separate by commas if more than one detector)
#SPECTRUM    : start of spectrum data
0, 0
0, 0
0, 0
0, 0
0, 0
0, 0
0, 0
0, 0
0, 0
0, 0
0, 0
0, 0
0, 0
0, 0
0, 0
0, 0
0, 0
0, 0
0, 0
0, 0
0, 0
0, 0
0, 0
0, 0
0, 0
0, 0
0, 0
0, 0
0, 0
0, 0
0, 0
1, 0
0, 0
0, 0
0, 1
0, 2
0, 4
2, 7
0, 9
2, 6
1, 15
0, 14
1, 12
2, 23
2, 17
0, 11
3, 8
0, 7
7, 6
22, 13
24, 32
34, 42
51, 53
79, 93
80, 92
74, 79
55, 51
44, 47
19, 38
12, 21
5, 12
5, 5
1, 4
4, 2
6, 6
5, 2
4, 13
15, 19
21, 31
43, 53
97, 103
165, 181
273, 294
357, 383
432, 467
391, 448
419, 396
276, 308
189, 187
140, 136
77, 77
42, 39
19, 20
14, 8
2, 7
3, 4
3, 2
2, 4
1, 3
2, 4
0, 3
1, 1
2, 1
0, 2
0, 4
2, 7
1, 5
4, 5
3, 4
3, 8
3, 3
3, 5
1, 3
1, 3
1, 3
5, 5
4, 13
7, 45
13, 65
27, 159
33, 310
67, 536
68, 839
89, 1184
87, 1363
132, 1387
105, 1336
95, 1091
79, 834
64, 528
33, 345
29, 182
22, 99
20, 40
15, 22
16, 16
16, 15
7, 8
5, 7
7, 4
5, 4
2, 2
2, 4
2, 2
4, 0
5, 2
2, 2
3, 2
0, 1
2, 0
0, 1
1, 1
2, 1
3, 0
1, 1
2, 2
0, 3
2, 3
0, 3
1, 2
3, 4
3, 2
5, 4
3, 6
9, 8
8, 9
6, 16
10, 16
9, 12
11, 10
10, 9
6, 7
10, 9
3, 2
8, 12
2, 12
9, 25
8, 30
10, 33
14, 47
25, 59
19, 56
25, 50
24, 40
13, 31
21, 18
15, 14
6, 3
8, 9
5, 7
2, 6
0, 3
4, 2
2, 0
4, 2
2, 3
3, 5
1, 4
5, 8
4, 5
6, 9
5, 9
7, 6
5, 20
17, 15
7, 9
16, 13
11, 17
17, 14
18, 17
15, 9
11, 9
6, 9
12, 7
6, 7
6, 0
11, 5
6, 8
5, 5
8, 5
6, 9
1, 7
9, 6
6, 7
3, 5
6, 10
5, 5
6, 4
4, 8
2, 6
7, 5
3, 8
12, 9
13, 5
5, 12
11, 10
10, 19
14, 18
16, 17
10, 25
16, 16
20, 13
6, 18
15, 8
7, 11
16, 10
7, 8
10, 12
6, 6
4, 7
4, 4
2, 10
4, 7
7, 9
10, 11
12, 23
25, 38
32, 38
31, 53
42, 56
64, 61
54, 47
73, 55
53, 42
38, 45
28, 27
23, 22
16, 18
13, 14
17, 18
19, 25
27, 24
39, 69
58, 115
137, 188
256, 363
477, 608
724, 963
1095, 1342
1567, 1793
1918, 2224
2260, 2441
2254, 2476
2358, 2404
1980, 2028
1756, 1594
1317, 1197
888, 816
603, 485
362, 254
194, 152
109, 104
79, 61
41, 39
26, 52
36, 40
34, 44
36, 32
28, 55
29, 43
31, 37
33, 56
62, 81
76, 98
110, 128
139, 164
202, 276
267, 295
290, 334
325, 357
373, 366
349, 351
298, 286
239, 214
197, 168
114, 129
81, 68
55, 46
42, 25
26, 12
11, 4
8, 10
8, 9
5, 8
12, 4
13, 21
12, 13
13, 14
5, 6
10, 5
15, 10
13, 13
4, 9
2, 6
4, 9
1, 7
4, 3
1, 5
2, 1
5, 3
6, 4
5, 2
3, 1
4, 6
6, 5
4, 7
12, 5
11, 2
18, 6
9, 4
10, 8
19, 14
25, 10
28, 10
17, 11
32, 7
27, 15
18, 4
18, 6
19, 8
9, 12
12, 10
7, 9
4, 6
4, 2
5, 6
3, 2
5, 4
4, 3
2, 1
5, 7
4, 6
4, 6
6, 4
1, 2
6, 3
1, 1
6, 5
1, 9
5, 1
5, 4
1, 4
5, 7
5, 5
3, 6
1, 3
6, 2
4, 5
6, 2
3, 2
7, 7
1, 1
5, 4
4, 3
3, 3
4, 7
3, 9
2, 6
2, 4
1, 9
2, 4
6, 6
3, 4
5, 4
6, 7
8, 4
10, 6
4, 4
6, 4
4, 6
4, 7
6, 5
9, 5
4, 3
10, 6
5, 4
5, 1
5, 2
2, 7
2, 2
3, 1
0, 6
5, 2
4, 0
2, 3
4, 2
3, 4
4, 1
1, 1
2, 5
4, 1
6, 2
3, 3
3, 1
0, 0
6, 4
5, 2
1, 1
2, 4
0, 1
2, 0
4, 2
2, 2
4, 1
2, 3
1, 2
1, 3
2, 1
0, 1
3, 0
2, 1
4, 1
1, 4
1, 5
4, 0
4, 1
4, 1
1, 6
4, 5
5, 7
4, 4
2, 4
2, 6
1, 4
5, 5
1, 7
4, 9
4, 5
2, 2
4, 3
4, 6
4, 10
2, 5
1, 6
1, 8
2, 5
2, 2
2, 1
2, 3
4, 1
4, 6
0, 1
2, 1
2, 2
1, 4
3, 2
4, 3
2, 3
3, 0
1, 0
2, 1
1, 2
4, 2
2, 2
3, 1
1, 1
3, 0
2, 4
0, 4
1, 1
2, 0
2, 1
3, 4
3, 0
2, 2
2, 0
1, 1
0, 4
0, 3
4, 2
4, 1
1, 1
2, 2
3, 4
1, 2
2, 3
1, 4
1, 2
2, 4
3, 3
1, 3
2, 0
0, 3
1, 4
2, 2
1, 3
4, 0
3, 2
1, 6
1, 2
3, 1
2, 4
1, 2
3, 3
0, 2
1, 1
3, 2
6, 2
2, 4
1, 3
2, 2
2, 4
1, 2
0, 3
5, 2
4, 2
2, 2
2, 2
1, 4
3, 4
6, 3
5, 2
3, 4
3, 7
5, 6
3, 3
4, 3
2, 8
3, 0
2, 0
0, 1
0, 1
1, 2
1, 3
2, 0
1, 2
3, 2
2, 2
1, 0
1, 1
0, 4
0, 2
1, 3
2, 0
1, 3
2, 2
3, 2
3, 5
2, 1
5, 6
4, 5
1, 1
6, 2
3, 3
5, 2
1, 1
0, 3
3, 2
1, 0
1, 0
0, 1
1, 0
2, 2
1, 5
0, 0
0, 2
3, 0
2, 1
1, 1
1, 2
0, 1
2, 0
2, 0
0, 0
1, 1
1, 0
1, 0
0, 1
4, 0
0, 1
0, 0
0, 1
1, 2
1, 2
1, 0
1, 0
1, 2
3, 0
0, 0
2, 1
1, 2
0, 0
2, 2
0, 0
2, 0
2, 2
1, 1
0, 2
0, 0
1, 3
1, 0
1, 0
0, 2
0, 0
2, 1
4, 1
1, 0
0, 1
0, 0
1, 3
1, 2
2, 0
1, 1
1, 2
1, 1
1, 4
4, 2
0, 1
0, 0
0, 0
2, 2
0, 1
0, 0
0, 0
2, 1
0, 0
1, 0
1, 0
0, 0
1, 0
3, 1
0, 0
1, 0
0, 0
0, 0
1, 2
0, 0
0, 0
1, 1
1, 0
1, 0
0, 1
0, 0
0, 0
1, 0
0, 0
0, 0
0, 0
1, 0
0, 1
2, 0
1, 0
1, 0
1, 2
0, 0
1, 0
0, 0
1, 1
1, 1
1, 0
2, 0
2, 0
0, 1
1, 1
2, 1
0, 1
2, 1
0, 2
1, 1
0, 0
0, 1
0, 0
1, 0
0, 0
0, 0
2, 1
0, 1
0, 1
0, 0
1, 0
1, 0
0, 0
0, 0
1, 0
0, 1
0, 0
1, 0
0, 1
1, 0
0, 1
0, 0
1, 0
0, 0
0, 0
1, 0
0, 0
0, 0
0, 0
0, 1
1, 2
0, 0
1, 0
0, 0
0, 1
1, 0
0, 0
0, 2
0, 1
0, 0
0, 0
2, 1
0, 1
0, 0
0, 0
1, 0
0, 0
0, 1
0, 0
0, 0
0, 0
0, 1
2, 0
0, 0
0, 0
0, 1
0, 1
0, 0
2, 0
0, 1
0, 0
0, 0
0, 0
0, 0
0, 0
0, 0
0, 0
0, 0
0, 0
0, 0
0, 0
0, 0
0, 0
0, 1
0, 0
2, 1
0, 1
0, 0
0, 0
1, 0
0, 0
0, 0
0, 1
1, 0
1, 0
1, 0
0, 0
0, 0
1, 1
1, 1
0, 1
0, 0
1, 0
1, 0
2, 0
0, 0
0, 0
0, 1
0, 0
0, 1
0, 1
0, 1
0, 1
0, 1
0, 1
0, 0
0, 0
0, 0
0, 0
1, 1
0, 0
0, 0
0, 1
0, 0
0, 0
0, 1
0, 0
0, 1
0, 0
0, 0
0, 0
0, 0
0, 0
0, 0
1, 0
0, 0
0, 0
1, 0
1, 0
1, 0
0, 1
0, 0
0, 0
0, 0
0, 0
0, 0
0, 0
0, 0
0, 0
0, 0
0, 0
0, 0
0, 0
0, 1
0, 0
0, 0
0, 0
0, 0
0, 0
1, 1
0, 0
0, 1
0, 0
0, 0
0, 0
0, 0
0, 0
1, 0
0, 0
0, 0
0, 0
0, 0
0, 0
1, 1
0, 1
0, 1
0, 0
1, 1
0, 0
1, 0
0, 0
0, 0
2, 0
0, 0
0, 0
0, 0
0, 0
0, 1
0, 0
0, 1
0, 0
0, 0
0, 0
0, 0
0, 0
0, 0
0, 0
0, 0
0, 0
0, 0
0, 0
0, 0
0, 1
0, 0
0, 0
0, 0
0, 0
0, 0
0, 1
0, 0
0, 0
0, 0
1, 0
0, 0
0, 0
0, 0
0, 0
0, 0
0, 0
0, 0
0, 0
0, 0
0, 0
1, 0
0, 0
1, 0
0, 0
0, 0
0, 0
0, 0
0, 0
0, 0
0, 1
0, 0
0, 0
0, 0
0, 0
0, 0
0, 0
0, 0
0, 0
0, 0
0, 0
0, 1
0, 0
1, 0
0, 0
0, 0
0, 0
0, 0
0, 0
0, 0
0, 0
0, 0
0, 0
0, 0
0, 0
0, 0
1, 0
0, 0
0, 0
0, 0
0, 0
0, 0
0, 0
0, 0
0, 0
0, 0
0, 0
0, 0
0, 0
0, 0
0, 0
0, 0
0, 0
0, 0
0, 0
0, 0
0, 0
0, 0
0, 0
0, 0
0, 0
0, 0
0, 0
0, 0
0, 0
0, 0
0, 0
0, 0
0, 0
0, 0
0, 0
0, 0
0, 0
0, 0
0, 0
0, 0
0, 0
0, 0
0, 0
0, 0
0, 0
0, 0
0, 0
0, 0
0, 0
0, 0
0, 0
0, 0
0, 0
0, 0
0, 0
0, 0
0, 0
0, 0
0, 0
0, 0
0, 0
0, 0
0, 0
0, 0
0, 0
0, 0
0, 0
0, 0
0, 0
0, 0
0, 0
0, 0
0, 0
0, 0
0, 0
0, 0
0, 0
0, 0
0, 0
0, 0
0, 0
0, 0
0, 0
0, 0
0, 0
0, 0
0, 0
0, 0
0, 0
0, 0
0, 0
0, 0
0, 0
0, 0
0, 0
0, 0
0, 0
0, 0
0, 0
0, 0
0, 0
0, 0
0, 0
0, 0
0, 0
0, 0
0, 0
0, 0
0, 0
0, 0
0, 0
0, 0
0, 0
0, 0
0, 0
0, 0
0, 0
0, 0
0, 0
0, 0
0, 0
0, 0
0, 0
0, 0
0, 0
0, 0
0, 0
0, 0
0, 0
0, 0
0, 0
0, 0
0, 0
0, 0
0, 0
0, 0
0, 0
0, 0
0, 0
0, 0
0, 0
0, 0
0, 0
0, 0
0, 0
0, 0
0, 0
0, 0
0, 0
0, 0
0, 0
0, 0
0, 0
0, 0
0, 0
0, 0
0, 0
0, 0
0, 0
0, 0
0, 0
0, 0
0, 0
0, 0
0, 0
0, 0
0, 0
0, 0
0, 0
0, 0
0, 0
0, 0
0, 0
0, 0
0, 0
0, 0
0, 0
0, 0
0, 0
0, 0
0, 0
0, 0
0, 0
0, 0
0, 0
0, 0
0, 0
0, 0
0, 0
0, 0
0, 0
0, 0
0, 0
0, 0
0, 0
0, 0
0, 0
0, 0
0, 0
0, 0
0, 0
0, 0
0, 0
0, 0
0, 0
0, 0
0, 0
0, 0
0, 0
0, 0
0, 0
0, 0
0, 0
0, 0
0, 0
0, 0
0, 0
0, 0
0, 0
0, 0
0, 0
0, 0
0, 0
0, 0
0, 0
0, 0
0, 0
0, 0
0, 0
0, 0
0, 0
0, 0
0, 0
0, 0
0, 0
0, 0
0, 0
0, 0
0, 0
0, 0
0, 0
0, 0
0, 0
0, 0
0, 0
0, 0
0, 0
0, 0
0, 0
0, 0
0, 0
0, 0
0, 0
0, 0
0, 0
0, 0
0, 0
0, 0
0, 0
0, 0
0, 0
0, 0
0, 0
0, 0
0, 0
0, 0
0, 0
0, 0
0, 0
0, 0
0, 0
0, 0
0, 0
0, 0
0, 0
0, 0
0, 0
0, 0
0, 0
0, 0
0, 0
0, 0
0, 0
0, 0
0, 0
0, 0
0, 0
0, 0
0, 0
0, 0
0, 0
0, 0
0, 0
0, 0
0, 0
0, 0
0, 0
0, 0
0, 0
0, 0
0, 0
0, 0
0, 0
0, 0
0, 0
0, 0
0, 0
0, 0
0, 0
0, 0
0, 0
0, 0
0, 0
0, 0
0, 0
0, 0
0, 0
0, 0
0, 0
0, 0
0, 0
0, 0
0, 0
0, 0
0, 0
0, 0
0, 0
0, 0
0, 0
0, 0
0, 0
0, 0
0, 0
0, 0
0, 0
0, 0
0, 0
0, 0
0, 0
0, 0
0, 0
0, 0
0, 0
0, 0
0, 0
0, 0
0, 0
0, 0
0, 0
0, 0
0, 0
0, 0
0, 0
0, 0
0, 0
0, 0
0, 0
0, 0
0, 0
0, 0
0, 0
0, 0
0, 0
0, 0
0, 0
0, 0
0, 0
0, 0
0, 0
0, 0
0, 0
0, 0
0, 0
0, 0
0, 0
0, 0
0, 0
0, 0
0, 0
0, 0
0, 0
0, 0
0, 0
0, 0
0, 0
0, 0
0, 0
0, 0
0, 0
0, 0
0, 0
0, 0
0, 0
0, 0
0, 0
0, 0
0, 0
0, 0
0, 0
0, 0
0, 0
0, 0
0, 0
0, 0
0, 0
0, 0
0, 0
0, 0
0, 0
0, 0
0, 0
0, 0
0, 0
0, 0
0, 0
0, 0
0, 0
0, 0
0, 0
0, 0
0, 0
0, 0
0, 0
0, 0
0, 0
0, 0
0, 0
0, 0
0, 0
#ENDOFDATA     end of spectrum data