File: host_upload/06-09-2024/ps_0852/dump3/ps__0852shot_2249.msa
#FORMAT      : EMSA/MAS spectral data file
#VERSION     : TC202v2.0 PIXL
#TITLE       : N/A
#DATE        :       Date in the format DD-MMM-YYYY, for example 07-JUL-2010
#TIME        :             The time of day at which the spectrum was recorded, in 24-hour format
#OWNER       : PIXL Flight Model       (PIXL will use this to indicate which instrument took the data.)
#NPOINTS     : 4096     Number of data points in the spectrum (This can be zero for configuration only files)
#NCOLUMNS    : 2     Number of data columns in the spectrum (This can be zero for configuration only files)
#XUNITS      : eV
#YUNITS      : COUNTS
#DATATYPE    : YY
#XPERCHAN    : 7.862, 7.881   eV per channel (separate by commas if more than one detector)
#OFFSET      : 18.5, -22.4         eV of first channel  (separate by commas if more than one detector
#SIGNALTYPE  : XRF
#YP_TEMP     : 2.588
#LIVETIME    : 8.56292, 8.55433   seconds (separate by commas if more than one detector)
#REALTIME    : 10, 10.0   seconds (separate by commas if more than one detector)
#SPECTRUM    : start of spectrum data
0, 0
0, 0
0, 0
0, 0
0, 0
0, 0
0, 0
0, 0
0, 0
0, 0
0, 0
0, 0
0, 0
0, 0
0, 0
0, 0
0, 0
0, 0
0, 0
0, 0
0, 0
0, 0
0, 0
0, 0
0, 0
0, 0
0, 0
0, 0
0, 0
0, 0
0, 0
0, 0
0, 0
0, 0
1, 0
1, 1
0, 0
1, 1
0, 2
1, 0
1, 1
0, 0
0, 1
0, 1
0, 0
1, 2
0, 1
5, 2
16, 6
10, 8
29, 21
46, 37
64, 54
75, 84
82, 73
82, 59
57, 58
55, 49
31, 34
11, 10
6, 10
10, 4
10, 4
7, 6
6, 2
7, 6
4, 9
9, 9
26, 18
42, 49
103, 90
172, 180
265, 247
388, 368
447, 394
410, 384
376, 363
284, 287
196, 177
129, 119
77, 63
50, 40
21, 20
8, 10
3, 4
2, 5
1, 1
1, 1
2, 3
0, 1
2, 0
0, 1
2, 0
1, 1
1, 1
1, 4
6, 2
4, 3
3, 5
2, 2
4, 4
2, 6
1, 6
5, 7
5, 6
2, 3
2, 7
6, 5
10, 10
12, 12
16, 13
30, 37
30, 32
33, 39
33, 40
40, 36
33, 38
29, 41
24, 25
20, 16
15, 15
22, 18
15, 23
16, 19
11, 15
16, 10
14, 8
13, 5
10, 6
6, 7
8, 4
7, 0
3, 2
4, 0
4, 0
1, 2
2, 0
5, 5
1, 2
4, 3
4, 7
2, 3
3, 3
5, 1
6, 4
8, 1
7, 0
6, 3
8, 0
8, 4
6, 5
7, 3
7, 4
10, 6
9, 5
8, 9
11, 13
17, 11
10, 10
12, 12
5, 10
5, 4
8, 10
4, 8
2, 2
1, 4
2, 3
2, 9
3, 5
4, 2
7, 6
4, 5
5, 5
4, 5
7, 6
6, 5
1, 1
3, 3
3, 3
6, 3
7, 9
1, 3
3, 1
5, 0
3, 5
5, 3
1, 5
6, 7
3, 6
10, 13
3, 18
7, 9
5, 12
13, 15
19, 14
11, 12
13, 17
8, 13
12, 16
14, 14
10, 3
8, 7
9, 7
8, 7
7, 3
12, 6
5, 2
8, 3
3, 6
5, 7
6, 10
5, 9
9, 4
5, 4
7, 4
6, 6
5, 3
7, 6
6, 8
5, 14
4, 25
7, 22
6, 25
3, 44
3, 38
7, 40
9, 52
12, 38
13, 31
20, 30
21, 25
10, 21
14, 20
10, 13
8, 9
10, 7
9, 5
13, 8
11, 3
16, 3
15, 5
28, 10
22, 14
27, 19
27, 24
35, 17
44, 23
51, 38
61, 48
68, 69
68, 72
85, 69
78, 49
73, 53
69, 39
66, 34
64, 30
33, 18
40, 9
15, 15
33, 23
32, 35
40, 48
73, 126
156, 238
263, 341
484, 609
793, 1002
1186, 1347
1485, 1783
2000, 2259
2225, 2451
2493, 2524
2347, 2253
2198, 2011
1815, 1594
1339, 1172
911, 794
601, 496
387, 237
204, 146
118, 71
56, 35
32, 23
19, 17
14, 24
15, 11
9, 17
20, 14
26, 17
25, 26
24, 33
51, 59
80, 87
100, 122
145, 201
204, 231
245, 314
322, 348
347, 357
382, 329
356, 348
288, 275
248, 195
176, 145
136, 101
87, 58
64, 38
34, 26
24, 13
11, 8
9, 9
11, 7
12, 5
20, 9
20, 15
21, 11
15, 10
19, 11
14, 19
16, 9
10, 8
13, 7
11, 7
6, 8
6, 1
9, 2
8, 8
0, 2
5, 2
4, 4
2, 4
6, 2
4, 4
5, 3
2, 7
1, 3
4, 5
4, 7
4, 4
4, 4
4, 7
7, 10
7, 11
6, 7
1, 7
3, 12
3, 14
4, 14
7, 11
4, 12
1, 6
3, 5
12, 7
3, 7
5, 2
7, 3
4, 5
6, 6
5, 8
3, 5
6, 5
4, 5
4, 3
2, 6
3, 8
7, 4
6, 4
6, 6
7, 4
4, 4
5, 2
10, 7
8, 8
7, 9
6, 6
11, 5
6, 3
13, 6
14, 6
10, 3
15, 3
16, 4
13, 3
12, 3
9, 1
10, 1
9, 6
8, 3
4, 2
5, 1
3, 4
5, 2
5, 3
4, 4
3, 1
3, 5
5, 4
7, 6
2, 2
5, 3
5, 0
4, 1
5, 3
13, 3
3, 4
9, 3
3, 3
1, 4
4, 1
7, 3
2, 0
2, 2
4, 3
5, 3
0, 1
3, 2
1, 2
3, 4
4, 4
4, 4
2, 5
3, 1
3, 5
5, 1
3, 2
3, 6
6, 1
4, 3
1, 3
4, 3
3, 1
5, 4
3, 2
2, 2
3, 1
7, 3
4, 2
4, 4
7, 4
4, 7
3, 5
5, 3
3, 4
3, 3
1, 4
4, 3
2, 4
2, 5
2, 4
4, 2
8, 3
2, 1
2, 6
7, 4
3, 0
2, 3
4, 2
6, 3
5, 5
4, 2
2, 0
3, 1
0, 1
4, 3
6, 0
5, 4
4, 5
4, 3
4, 7
3, 3
6, 1
2, 2
3, 4
2, 2
1, 1
2, 2
1, 4
3, 3
2, 3
4, 4
5, 4
1, 4
3, 0
2, 1
3, 5
1, 1
3, 5
1, 5
3, 1
5, 2
5, 2
2, 0
3, 0
2, 2
3, 1
2, 3
1, 3
1, 5
2, 2
3, 5
0, 2
4, 3
4, 5
1, 1
2, 3
3, 2
3, 3
1, 4
4, 3
2, 2
3, 0
0, 0
3, 1
2, 4
2, 2
2, 1
3, 2
1, 0
1, 2
1, 1
1, 3
2, 3
1, 3
4, 0
0, 2
1, 1
2, 1
6, 1
1, 5
6, 3
4, 1
5, 1
3, 0
4, 3
5, 3
1, 5
4, 6
3, 3
2, 1
5, 4
8, 3
2, 6
5, 3
5, 6
5, 9
3, 2
2, 0
5, 2
2, 1
2, 1
2, 4
5, 1
4, 3
1, 2
2, 1
0, 0
1, 2
2, 0
1, 3
1, 3
1, 3
2, 1
2, 0
1, 2
3, 1
1, 5
1, 3
2, 3
1, 1
0, 1
6, 2
0, 2
1, 0
2, 0
3, 2
3, 1
0, 2
0, 2
0, 1
2, 2
1, 1
1, 1
2, 0
0, 0
1, 0
1, 1
1, 0
0, 2
1, 5
3, 3
1, 1
1, 1
0, 2
1, 3
0, 0
2, 1
2, 1
1, 1
1, 1
1, 0
1, 0
1, 0
0, 0
0, 0
1, 0
0, 1
0, 1
0, 0
0, 0
0, 1
1, 1
1, 4
1, 3
2, 0
0, 1
2, 0
0, 0
0, 1
0, 2
1, 1
1, 1
0, 1
0, 1
1, 0
1, 0
1, 0
0, 0
1, 1
1, 1
0, 0
1, 1
0, 2
1, 1
2, 0
0, 1
0, 1
0, 0
4, 2
0, 0
1, 1
0, 1
0, 1
0, 1
0, 2
2, 0
0, 0
0, 2
1, 0
1, 1
1, 0
1, 0
0, 1
0, 1
1, 0
0, 0
1, 0
0, 1
0, 0
2, 2
0, 0
1, 0
0, 1
0, 0
1, 0
0, 2
0, 0
0, 1
0, 0
0, 3
1, 0
0, 1
0, 1
2, 0
2, 1
0, 0
0, 1
1, 1
1, 2
0, 1
0, 0
0, 1
0, 1
1, 0
0, 1
1, 0
0, 0
0, 0
0, 0
0, 0
1, 3
0, 0
0, 1
0, 0
0, 1
0, 0
1, 0
1, 0
0, 0
0, 0
0, 0
1, 1
0, 0
1, 0
0, 0
2, 0
2, 0
2, 1
0, 0
0, 0
0, 0
0, 0
0, 0
0, 0
0, 0
1, 1
0, 0
0, 0
1, 0
0, 0
1, 0
0, 0
0, 0
0, 0
1, 1
1, 0
1, 0
0, 0
0, 0
0, 0
0, 2
0, 0
0, 1
0, 1
0, 1
0, 0
1, 2
2, 1
1, 0
0, 0
0, 0
0, 0
0, 0
0, 0
0, 1
0, 0
0, 0
0, 1
0, 0
0, 0
1, 0
0, 1
0, 2
0, 0
0, 0
0, 0
0, 0
0, 1
1, 0
1, 2
0, 0
2, 0
0, 0
0, 0
0, 0
0, 1
0, 0
0, 0
0, 1
1, 0
0, 0
0, 0
0, 0
0, 0
1, 1
0, 0
0, 0
0, 0
0, 0
0, 0
1, 2
0, 0
0, 0
1, 0
0, 0
0, 2
1, 1
0, 0
0, 0
0, 0
0, 0
2, 1
0, 1
0, 1
1, 0
0, 0
0, 0
0, 0
0, 0
1, 0
0, 0
0, 0
0, 2
0, 0
0, 0
1, 1
0, 1
0, 0
0, 1
0, 0
1, 0
0, 0
0, 0
0, 0
0, 0
0, 0
0, 0
0, 0
0, 0
0, 0
1, 0
0, 0
0, 0
0, 0
0, 0
0, 0
0, 0
0, 0
0, 0
0, 0
0, 0
0, 1
0, 0
0, 0
1, 0
0, 0
0, 0
0, 0
0, 0
0, 0
0, 0
0, 0
0, 0
0, 1
0, 0
0, 1
1, 0
0, 1
0, 0
0, 1
1, 0
0, 0
0, 0
0, 0
0, 0
0, 0
1, 0
1, 0
0, 0
0, 0
0, 0
0, 0
0, 0
0, 0
0, 0
0, 0
0, 0
0, 0
0, 1
0, 0
0, 0
0, 1
0, 0
1, 0
0, 0
0, 0
0, 0
0, 0
0, 0
0, 1
0, 0
0, 0
0, 0
0, 0
0, 0
0, 0
0, 0
0, 0
0, 0
0, 1
1, 0
0, 0
0, 0
0, 0
0, 0
0, 0
0, 0
0, 0
0, 1
0, 0
0, 0
0, 0
0, 0
0, 0
1, 0
0, 0
0, 0
0, 0
0, 0
0, 0
0, 0
0, 0
0, 0
1, 0
1, 0
0, 0
0, 0
0, 0
0, 0
0, 0
1, 0
0, 0
0, 0
0, 0
0, 0
0, 0
0, 0
0, 0
0, 0
0, 0
0, 0
0, 0
0, 0
0, 0
0, 0
0, 0
0, 0
0, 0
0, 0
0, 0
0, 0
0, 0
0, 0
0, 0
0, 0
0, 0
0, 0
0, 0
0, 0
0, 0
0, 0
0, 0
0, 0
0, 0
0, 0
0, 0
0, 0
0, 0
0, 0
0, 0
1, 0
0, 0
0, 0
0, 0
0, 0
0, 0
0, 0
0, 0
1, 0
0, 0
0, 0
0, 0
0, 0
0, 0
0, 0
0, 0
0, 0
0, 0
1, 0
0, 0
0, 0
0, 0
0, 1
0, 0
0, 0
0, 0
0, 0
0, 0
0, 0
0, 0
0, 0
0, 0
0, 0
0, 0
0, 0
0, 0
0, 0
0, 0
0, 0
0, 0
0, 0
0, 0
0, 0
0, 0
0, 0
0, 0
0, 0
0, 0
0, 0
0, 0
0, 0
0, 0
0, 0
0, 0
0, 0
0, 0
0, 0
0, 0
0, 0
0, 0
0, 0
0, 0
0, 0
0, 0
0, 0
0, 0
0, 0
0, 0
0, 0
0, 0
0, 0
0, 0
0, 0
0, 0
0, 0
0, 0
0, 0
0, 0
0, 1
0, 0
0, 0
0, 0
0, 0
0, 0
0, 0
0, 0
0, 0
0, 0
0, 0
0, 0
0, 0
0, 0
0, 0
0, 0
0, 0
0, 0
0, 0
0, 0
0, 0
0, 0
0, 0
0, 0
0, 0
0, 0
0, 0
0, 0
0, 0
0, 0
0, 0
0, 0
0, 0
0, 0
0, 0
0, 0
0, 0
0, 0
0, 0
0, 0
0, 0
0, 0
0, 0
0, 0
0, 0
0, 0
0, 0
0, 0
0, 0
0, 0
0, 0
0, 0
0, 0
0, 0
0, 0
0, 0
0, 0
0, 0
0, 0
0, 0
0, 0
0, 0
0, 0
0, 0
0, 0
0, 0
0, 0
0, 0
0, 0
0, 0
0, 0
0, 0
0, 0
0, 0
0, 0
0, 0
0, 0
0, 0
0, 0
0, 0
0, 0
0, 0
0, 0
0, 0
0, 0
0, 0
0, 0
0, 0
0, 0
0, 0
0, 0
0, 0
0, 0
0, 0
0, 0
0, 0
0, 0
0, 0
0, 0
0, 0
1, 0
0, 0
0, 0
0, 0
0, 0
0, 0
0, 0
0, 0
0, 0
0, 0
0, 0
0, 0
0, 0
0, 0
0, 0
0, 0
0, 0
0, 0
0, 0
0, 0
0, 0
0, 0
0, 0
0, 0
0, 0
0, 0
0, 0
0, 0
0, 0
0, 0
0, 0
0, 0
0, 0
0, 0
0, 0
0, 0
0, 0
0, 0
0, 0
0, 0
0, 0
0, 0
0, 0
0, 0
0, 0
0, 0
0, 0
0, 0
0, 0
0, 0
0, 0
0, 0
0, 0
0, 0
0, 0
0, 0
0, 0
0, 0
0, 0
0, 0
0, 0
0, 0
0, 0
0, 0
0, 0
0, 0
0, 0
0, 0
0, 0
0, 0
0, 0
0, 0
0, 0
0, 0
0, 0
0, 0
0, 0
0, 0
0, 0
0, 0
0, 0
0, 0
0, 0
0, 0
0, 0
0, 0
0, 0
0, 0
0, 0
0, 0
0, 0
0, 0
0, 0
0, 0
0, 0
0, 0
0, 0
0, 0
0, 0
0, 0
0, 0
0, 0
0, 0
0, 0
0, 0
0, 0
0, 0
0, 0
0, 0
0, 0
0, 0
0, 0
0, 0
0, 0
0, 0
0, 0
0, 0
0, 0
0, 0
0, 0
0, 0
0, 0
0, 0
0, 0
0, 0
0, 0
0, 0
0, 0
0, 0
0, 0
0, 0
0, 0
0, 0
0, 0
0, 0
0, 0
0, 0
0, 0
0, 0
0, 0
0, 0
0, 0
0, 0
0, 0
0, 0
0, 0
0, 0
0, 0
0, 0
0, 0
0, 0
0, 0
0, 0
0, 0
0, 0
0, 0
0, 0
0, 0
0, 0
0, 0
0, 0
0, 0
0, 0
0, 0
0, 0
0, 0
0, 0
0, 0
0, 0
0, 0
0, 0
0, 0
0, 0
0, 0
0, 0
0, 0
0, 0
0, 0
0, 0
0, 0
0, 0
0, 0
0, 0
0, 0
0, 0
0, 0
0, 0
0, 0
0, 0
0, 0
0, 0
0, 0
0, 0
0, 0
0, 0
0, 0
0, 0
0, 0
0, 0
0, 0
0, 0
0, 0
0, 0
0, 0
0, 0
0, 0
0, 0
0, 0
0, 0
0, 0
0, 0
0, 0
0, 0
0, 0
0, 0
0, 0
0, 0
0, 0
0, 0
0, 0
0, 0
0, 0
0, 0
0, 0
0, 0
0, 0
0, 0
0, 0
#ENDOFDATA     end of spectrum data