File: host_upload/06-09-2024/ps_0852/dump3/ps__0852shot_2339.msa
#FORMAT      : EMSA/MAS spectral data file
#VERSION     : TC202v2.0 PIXL
#TITLE       : N/A
#DATE        :       Date in the format DD-MMM-YYYY, for example 07-JUL-2010
#TIME        :             The time of day at which the spectrum was recorded, in 24-hour format
#OWNER       : PIXL Flight Model       (PIXL will use this to indicate which instrument took the data.)
#NPOINTS     : 4096     Number of data points in the spectrum (This can be zero for configuration only files)
#NCOLUMNS    : 2     Number of data columns in the spectrum (This can be zero for configuration only files)
#XUNITS      : eV
#YUNITS      : COUNTS
#DATATYPE    : YY
#XPERCHAN    : 7.862, 7.881   eV per channel (separate by commas if more than one detector)
#OFFSET      : 18.5, -22.4         eV of first channel  (separate by commas if more than one detector
#SIGNALTYPE  : XRF
#YP_TEMP     : 2.107
#LIVETIME    : 8.59626, 8.52732   seconds (separate by commas if more than one detector)
#REALTIME    : 10, 10.0   seconds (separate by commas if more than one detector)
#SPECTRUM    : start of spectrum data
0, 0
0, 0
0, 0
0, 0
0, 0
0, 0
0, 0
0, 0
0, 0
0, 0
0, 0
0, 0
0, 0
0, 0
0, 0
0, 0
0, 0
0, 0
0, 0
0, 0
0, 0
0, 0
0, 0
0, 0
0, 0
0, 0
0, 0
0, 0
0, 0
0, 0
0, 0
1, 0
0, 0
1, 0
0, 0
1, 0
0, 4
2, 1
0, 3
5, 4
2, 1
4, 1
0, 4
2, 6
0, 2
0, 6
2, 3
2, 3
8, 4
6, 13
22, 12
29, 31
29, 41
48, 55
55, 52
47, 51
28, 48
22, 44
23, 20
6, 9
5, 8
5, 4
2, 3
5, 11
6, 6
6, 9
7, 4
12, 7
6, 22
21, 34
65, 44
94, 101
128, 150
197, 197
239, 241
206, 218
194, 188
129, 157
108, 100
63, 77
37, 31
27, 16
16, 13
10, 5
5, 4
8, 2
6, 3
4, 6
11, 8
7, 5
14, 7
16, 15
38, 51
72, 103
161, 180
273, 280
388, 458
528, 536
535, 663
591, 651
523, 582
452, 463
350, 310
211, 207
135, 144
90, 101
61, 69
56, 63
73, 56
65, 79
70, 70
66, 98
92, 112
98, 132
119, 134
92, 127
91, 102
65, 85
64, 71
34, 62
50, 44
45, 35
26, 30
35, 29
32, 27
22, 23
24, 23
20, 19
14, 11
6, 17
14, 9
5, 10
5, 6
5, 4
2, 3
6, 7
1, 3
7, 4
6, 7
11, 9
13, 6
9, 8
6, 7
5, 11
7, 11
11, 4
7, 5
6, 3
3, 5
2, 7
8, 7
8, 11
10, 6
19, 21
21, 11
24, 31
39, 37
35, 33
26, 24
16, 18
26, 22
14, 16
9, 19
13, 8
4, 6
9, 7
3, 8
5, 11
6, 8
6, 10
8, 10
10, 13
8, 13
10, 17
9, 6
4, 14
6, 8
6, 2
6, 3
8, 3
2, 7
7, 4
5, 5
5, 7
5, 8
2, 6
5, 11
2, 12
7, 13
6, 7
9, 9
12, 17
15, 19
7, 11
15, 12
11, 14
13, 16
15, 17
12, 21
12, 22
16, 16
9, 17
10, 12
7, 8
14, 12
8, 10
7, 14
5, 10
10, 15
9, 17
5, 19
6, 21
8, 20
5, 16
8, 11
5, 18
9, 8
5, 8
11, 7
7, 3
9, 6
7, 13
6, 6
11, 8
7, 7
11, 9
13, 9
15, 17
11, 18
20, 21
21, 16
19, 18
22, 17
24, 20
27, 17
21, 9
23, 17
25, 13
20, 16
19, 15
10, 13
16, 8
16, 14
5, 9
13, 20
14, 29
30, 36
37, 40
46, 64
49, 72
60, 57
54, 66
67, 74
50, 56
38, 47
41, 39
29, 15
13, 20
13, 20
18, 22
22, 26
23, 33
39, 50
75, 102
144, 211
248, 390
424, 662
714, 948
1017, 1384
1446, 1753
1755, 2229
2143, 2468
2180, 2478
2130, 2340
1966, 1975
1644, 1547
1238, 1147
872, 813
550, 418
354, 244
155, 133
97, 89
52, 52
29, 14
24, 16
15, 16
20, 21
16, 21
8, 24
13, 15
27, 39
29, 30
47, 66
80, 94
92, 148
126, 192
208, 249
241, 298
315, 370
305, 344
341, 357
289, 355
286, 274
226, 234
193, 161
129, 120
88, 72
54, 50
41, 20
18, 20
8, 6
6, 9
12, 6
14, 7
10, 7
9, 10
8, 12
16, 13
22, 21
10, 8
14, 10
30, 16
20, 12
17, 10
21, 4
27, 13
13, 6
20, 5
13, 5
8, 4
6, 12
9, 8
4, 6
9, 6
3, 13
9, 6
6, 4
6, 4
3, 6
6, 8
4, 7
9, 9
6, 5
4, 5
5, 7
4, 6
4, 2
3, 7
9, 8
6, 11
8, 9
6, 8
8, 9
6, 8
7, 4
2, 6
3, 4
3, 7
4, 8
3, 1
4, 1
5, 9
7, 4
5, 4
3, 4
3, 3
6, 8
4, 3
4, 8
4, 4
4, 4
9, 3
3, 4
6, 3
1, 1
4, 4
15, 3
8, 6
2, 2
13, 2
12, 10
7, 4
9, 3
7, 6
6, 4
4, 6
7, 10
5, 9
4, 14
5, 12
2, 10
5, 6
2, 3
5, 6
3, 14
4, 11
4, 10
2, 9
6, 2
4, 7
1, 7
6, 5
1, 5
4, 4
6, 2
4, 3
3, 3
2, 4
4, 3
3, 5
5, 3
8, 4
6, 1
3, 5
2, 6
7, 8
1, 7
3, 14
5, 4
6, 12
4, 13
6, 6
2, 9
0, 7
3, 6
4, 4
5, 7
2, 2
4, 4
4, 3
3, 2
11, 2
4, 2
3, 3
4, 8
1, 2
5, 2
4, 5
4, 1
4, 2
4, 6
6, 6
1, 3
3, 1
3, 1
3, 0
4, 4
5, 1
1, 5
4, 2
3, 2
2, 3
3, 3
2, 3
1, 3
3, 4
4, 4
0, 4
1, 1
3, 3
5, 4
2, 8
4, 2
2, 4
3, 3
4, 4
6, 5
5, 3
7, 1
10, 1
7, 5
5, 3
4, 1
3, 2
6, 3
4, 2
2, 4
4, 0
4, 5
0, 1
3, 5
2, 4
4, 4
0, 0
4, 3
4, 4
3, 3
0, 2
6, 1
2, 1
3, 2
0, 2
5, 1
2, 1
1, 1
2, 5
2, 4
1, 3
1, 3
2, 3
3, 2
1, 0
2, 4
0, 3
1, 6
5, 2
0, 2
2, 2
1, 5
2, 3
4, 1
5, 1
1, 0
1, 2
1, 1
1, 2
1, 1
1, 1
5, 3
1, 1
2, 1
1, 1
1, 1
0, 2
2, 0
3, 4
1, 2
1, 0
3, 0
1, 2
1, 1
1, 3
4, 2
3, 2
1, 3
3, 1
2, 2
2, 1
2, 5
5, 5
4, 4
3, 0
4, 4
7, 6
2, 2
3, 5
5, 1
0, 1
2, 1
3, 0
3, 3
0, 4
5, 1
0, 2
0, 3
1, 2
3, 0
3, 1
0, 2
3, 1
1, 1
1, 0
1, 2
3, 1
4, 3
2, 4
3, 1
2, 4
1, 2
2, 1
3, 0
5, 1
0, 3
3, 2
4, 3
0, 0
2, 1
3, 3
0, 0
1, 2
0, 2
0, 4
1, 2
1, 0
1, 1
1, 1
0, 2
5, 1
2, 1
1, 1
0, 0
0, 1
0, 1
2, 3
2, 4
1, 1
2, 1
0, 1
0, 1
1, 1
0, 4
0, 3
1, 2
1, 0
2, 0
2, 1
1, 0
0, 0
2, 0
0, 2
1, 0
1, 0
0, 1
2, 1
1, 0
1, 1
1, 0
0, 1
0, 1
0, 2
0, 1
0, 0
1, 1
2, 1
0, 1
0, 0
1, 1
0, 0
2, 0
1, 0
0, 0
0, 0
1, 0
1, 1
0, 0
2, 1
1, 1
1, 2
0, 0
2, 0
0, 0
0, 0
1, 2
0, 1
0, 0
0, 2
0, 1
0, 0
2, 0
0, 0
1, 0
0, 0
1, 2
1, 0
1, 1
0, 0
1, 1
1, 0
1, 0
1, 1
0, 0
2, 0
1, 1
0, 0
0, 0
0, 1
1, 0
1, 1
1, 0
1, 0
1, 1
0, 0
1, 0
0, 0
0, 1
1, 0
1, 1
0, 0
1, 1
0, 2
0, 1
1, 0
1, 1
0, 0
0, 0
0, 0
1, 1
0, 0
0, 0
1, 1
0, 1
1, 0
1, 0
0, 0
0, 0
1, 1
0, 0
0, 1
0, 0
0, 1
0, 0
2, 0
0, 0
0, 1
1, 0
0, 1
0, 0
2, 0
1, 0
0, 2
0, 0
1, 0
1, 0
0, 1
0, 0
2, 0
0, 2
2, 0
0, 0
0, 0
0, 0
1, 0
0, 0
0, 0
1, 1
0, 0
0, 1
0, 2
0, 0
0, 0
0, 0
0, 0
0, 1
1, 1
0, 1
0, 0
0, 0
0, 0
1, 1
2, 1
0, 0
0, 0
0, 1
2, 0
0, 0
0, 1
1, 0
2, 1
0, 1
0, 0
0, 1
0, 0
0, 0
0, 1
0, 0
0, 0
0, 0
2, 0
0, 1
0, 0
1, 0
0, 1
1, 0
0, 0
1, 0
0, 0
0, 0
1, 0
0, 0
0, 0
0, 1
0, 0
1, 0
0, 0
0, 0
0, 0
0, 0
0, 0
0, 1
0, 0
2, 0
0, 0
0, 0
0, 0
0, 0
0, 0
0, 2
0, 0
1, 1
1, 0
0, 0
0, 0
0, 1
1, 0
2, 0
0, 1
1, 0
0, 1
0, 0
0, 0
0, 0
1, 0
0, 0
0, 1
1, 0
0, 1
0, 0
0, 0
1, 0
0, 0
0, 0
0, 0
0, 0
0, 1
0, 0
0, 0
0, 0
1, 0
0, 0
0, 1
0, 0
0, 1
1, 0
0, 0
1, 0
0, 0
0, 0
0, 0
0, 0
1, 0
0, 0
1, 0
0, 1
0, 0
0, 0
0, 0
0, 0
0, 1
1, 0
0, 0
0, 0
0, 0
0, 0
0, 0
0, 0
0, 0
0, 0
1, 0
0, 0
1, 0
0, 1
0, 0
1, 0
0, 0
0, 0
0, 2
0, 0
0, 0
0, 0
1, 0
0, 0
0, 0
0, 0
0, 0
0, 0
0, 0
0, 0
0, 0
0, 0
0, 0
0, 1
0, 0
0, 0
0, 0
0, 0
0, 0
0, 1
0, 0
0, 0
0, 0
0, 0
0, 1
0, 0
0, 0
0, 0
0, 0
0, 0
0, 0
0, 0
0, 0
0, 0
0, 0
0, 0
0, 0
0, 0
0, 0
0, 0
0, 0
0, 0
1, 0
0, 0
0, 0
0, 0
0, 0
0, 0
0, 0
0, 0
0, 0
0, 0
0, 0
0, 0
0, 0
0, 1
0, 0
0, 0
0, 0
0, 0
0, 0
0, 1
0, 0
0, 0
0, 0
0, 0
0, 0
0, 0
0, 0
0, 0
0, 0
0, 0
0, 2
0, 0
0, 0
0, 0
0, 0
1, 0
0, 0
0, 0
0, 0
0, 0
0, 1
0, 0
0, 0
0, 0
0, 0
0, 0
0, 0
0, 0
0, 0
0, 0
0, 0
0, 0
0, 0
0, 0
0, 0
0, 0
0, 0
0, 0
0, 0
0, 0
0, 0
0, 0
0, 0
0, 0
0, 0
0, 0
0, 0
0, 0
0, 0
0, 0
0, 0
0, 0
0, 0
0, 1
0, 0
0, 0
0, 0
0, 0
0, 0
0, 0
0, 0
0, 0
0, 0
0, 0
0, 0
0, 0
0, 0
0, 0
0, 0
0, 0
0, 0
0, 0
0, 0
0, 0
0, 0
0, 0
0, 0
0, 0
0, 0
0, 0
1, 0
0, 0
0, 0
0, 0
0, 0
0, 0
0, 0
0, 0
0, 0
0, 0
0, 0
0, 0
0, 0
0, 0
0, 0
0, 0
0, 0
0, 0
0, 0
0, 0
0, 0
0, 0
0, 0
0, 0
0, 0
0, 0
0, 0
0, 0
0, 0
0, 0
0, 0
0, 0
0, 0
0, 0
0, 0
0, 0
0, 0
0, 0
0, 0
0, 0
0, 0
0, 0
0, 0
0, 0
0, 0
0, 0
0, 0
0, 0
0, 0
0, 0
0, 0
0, 0
0, 0
0, 0
0, 0
0, 0
0, 0
0, 0
0, 0
0, 0
0, 0
0, 0
0, 0
0, 0
0, 0
0, 0
0, 0
0, 0
0, 0
0, 0
0, 0
0, 0
1, 0
0, 0
0, 0
0, 0
0, 0
0, 0
0, 0
0, 0
0, 0
0, 0
0, 0
0, 0
0, 0
0, 0
0, 0
0, 0
0, 0
0, 0
0, 0
0, 0
0, 0
0, 0
0, 0
0, 0
0, 0
0, 0
0, 0
0, 0
0, 0
0, 0
0, 0
0, 0
0, 0
0, 0
0, 0
0, 0
0, 0
0, 0
0, 0
0, 0
0, 0
0, 0
0, 0
0, 0
0, 0
0, 0
0, 0
0, 0
0, 0
0, 0
0, 0
0, 0
0, 0
0, 0
0, 0
0, 0
0, 0
0, 0
0, 0
0, 0
0, 0
0, 0
0, 0
0, 0
0, 0
0, 0
0, 0
0, 0
0, 0
0, 0
0, 0
0, 0
0, 0
0, 0
0, 0
0, 0
0, 0
0, 0
0, 0
0, 0
0, 0
0, 0
0, 0
0, 0
0, 0
0, 0
0, 0
0, 0
0, 0
0, 0
0, 0
0, 0
0, 0
0, 0
0, 0
0, 0
0, 0
0, 0
0, 0
0, 0
0, 0
0, 0
0, 0
0, 0
0, 0
0, 0
0, 0
0, 0
0, 0
0, 0
0, 0
0, 0
0, 0
0, 0
0, 0
0, 0
0, 0
0, 0
0, 0
0, 0
0, 0
0, 0
0, 0
0, 0
0, 0
0, 0
0, 0
0, 0
0, 0
0, 0
0, 0
0, 0
0, 0
0, 0
0, 0
0, 0
0, 0
0, 0
0, 0
0, 0
0, 0
0, 0
0, 0
0, 0
0, 0
0, 0
0, 0
0, 0
0, 0
0, 0
0, 0
0, 0
0, 0
0, 0
0, 0
0, 0
0, 0
0, 0
0, 0
0, 0
0, 0
0, 0
0, 0
0, 0
0, 0
0, 0
0, 0
0, 0
0, 0
0, 0
0, 0
0, 0
0, 0
0, 0
0, 0
0, 0
0, 0
0, 0
0, 0
0, 0
0, 0
0, 0
0, 0
0, 0
0, 0
0, 0
0, 0
0, 0
0, 0
0, 0
0, 0
0, 0
0, 0
0, 0
0, 0
0, 0
0, 0
0, 0
0, 0
0, 0
0, 0
0, 0
0, 0
0, 0
0, 0
0, 0
0, 0
0, 0
0, 0
0, 0
0, 0
0, 0
0, 0
0, 0
0, 0
0, 0
0, 0
0, 0
0, 0
0, 0
0, 0
0, 0
0, 0
0, 0
0, 0
0, 0
0, 0
0, 0
0, 0
0, 0
0, 0
0, 0
0, 0
0, 0
0, 0
0, 0
0, 0
0, 0
0, 0
0, 0
0, 0
0, 0
0, 0
0, 0
0, 0
0, 0
0, 0
0, 0
0, 0
0, 0
0, 0
0, 0
0, 0
0, 0
0, 0
0, 0
0, 0
0, 0
0, 0
0, 0
0, 0
0, 0
0, 0
0, 0
0, 0
0, 0
0, 0
0, 0
0, 0
0, 0
0, 0
0, 0
0, 0
0, 0
0, 0
0, 0
0, 0
0, 0
0, 0
0, 0
0, 0
0, 0
0, 0
0, 0
0, 0
0, 0
0, 0
0, 0
0, 0
0, 0
0, 0
0, 0
0, 0
0, 0
0, 0
#ENDOFDATA     end of spectrum data