File: host_upload/06-09-2024/ps_0852/dump3/ps__0852shot_2207.msa
#FORMAT      : EMSA/MAS spectral data file
#VERSION     : TC202v2.0 PIXL
#TITLE       : N/A
#DATE        :       Date in the format DD-MMM-YYYY, for example 07-JUL-2010
#TIME        :             The time of day at which the spectrum was recorded, in 24-hour format
#OWNER       : PIXL Flight Model       (PIXL will use this to indicate which instrument took the data.)
#NPOINTS     : 4096     Number of data points in the spectrum (This can be zero for configuration only files)
#NCOLUMNS    : 2     Number of data columns in the spectrum (This can be zero for configuration only files)
#XUNITS      : eV
#YUNITS      : COUNTS
#DATATYPE    : YY
#XPERCHAN    : 7.862, 7.881   eV per channel (separate by commas if more than one detector)
#OFFSET      : 18.5, -22.4         eV of first channel  (separate by commas if more than one detector
#SIGNALTYPE  : XRF
#YP_TEMP     : 2.396
#LIVETIME    : 8.56201, 8.56683   seconds (separate by commas if more than one detector)
#REALTIME    : 10, 10.0   seconds (separate by commas if more than one detector)
#SPECTRUM    : start of spectrum data
0, 0
0, 0
0, 0
0, 0
0, 0
0, 0
0, 0
0, 0
0, 0
0, 0
0, 0
0, 0
0, 0
0, 0
0, 0
0, 0
0, 0
0, 0
0, 0
0, 0
0, 0
0, 0
0, 0
0, 0
0, 0
0, 0
0, 0
0, 0
0, 0
0, 0
0, 0
0, 0
0, 0
0, 0
1, 1
2, 0
1, 0
2, 1
1, 0
1, 1
2, 0
2, 1
3, 2
0, 0
2, 1
0, 1
1, 3
3, 3
2, 2
8, 6
23, 17
31, 36
55, 64
58, 56
73, 61
78, 60
55, 62
57, 30
26, 23
21, 12
10, 10
6, 2
5, 4
3, 7
3, 6
8, 5
2, 11
11, 10
17, 20
46, 48
121, 83
162, 171
263, 289
363, 337
442, 390
401, 416
400, 374
295, 276
185, 203
105, 111
77, 73
46, 31
21, 24
8, 7
6, 5
5, 0
3, 4
3, 6
5, 3
4, 2
0, 1
6, 2
5, 0
12, 1
8, 3
6, 7
8, 4
15, 4
17, 8
8, 11
15, 7
3, 4
10, 8
9, 0
4, 3
6, 6
12, 7
19, 10
19, 19
31, 31
37, 37
47, 43
57, 49
60, 51
56, 58
47, 51
36, 54
42, 43
29, 33
34, 33
25, 22
23, 30
20, 29
19, 14
14, 18
12, 8
13, 12
12, 10
11, 13
9, 7
4, 5
1, 6
2, 7
6, 2
3, 3
2, 3
2, 3
2, 1
0, 2
3, 3
3, 1
1, 1
3, 3
3, 3
7, 7
2, 5
3, 2
1, 3
3, 1
3, 4
4, 5
8, 9
6, 7
16, 10
23, 19
24, 19
31, 14
22, 26
35, 31
23, 28
11, 13
11, 10
7, 10
4, 11
4, 3
1, 6
2, 2
3, 6
3, 2
6, 7
3, 7
8, 6
4, 2
10, 7
5, 4
11, 4
14, 5
12, 4
13, 3
8, 4
9, 3
15, 1
8, 7
5, 1
7, 4
7, 3
7, 5
4, 6
4, 4
5, 6
8, 11
10, 5
12, 9
16, 8
16, 9
11, 10
11, 13
18, 12
10, 13
12, 21
13, 8
8, 12
10, 7
12, 8
10, 5
8, 1
5, 6
7, 3
14, 4
19, 5
18, 10
15, 9
21, 5
17, 4
23, 5
15, 4
15, 5
21, 4
1, 2
6, 3
8, 8
10, 7
8, 10
8, 7
8, 13
6, 18
10, 19
11, 19
14, 29
24, 28
26, 31
29, 25
35, 26
45, 15
47, 9
41, 19
39, 11
33, 12
22, 9
25, 12
17, 19
15, 16
15, 22
11, 23
13, 30
36, 31
29, 41
27, 39
47, 54
60, 68
67, 52
65, 64
69, 62
43, 47
50, 35
35, 36
37, 13
32, 34
19, 15
19, 20
17, 30
12, 58
43, 111
86, 174
158, 273
247, 443
473, 680
768, 1074
1105, 1408
1518, 1842
1892, 2204
2206, 2408
2481, 2507
2345, 2319
2031, 1932
1808, 1582
1367, 1125
924, 701
602, 471
361, 261
202, 146
105, 69
62, 40
39, 21
21, 26
19, 19
12, 14
11, 13
20, 11
23, 14
24, 25
32, 43
37, 67
73, 88
111, 126
150, 161
218, 217
255, 292
280, 368
357, 335
334, 353
367, 309
331, 288
255, 217
180, 163
130, 110
81, 65
63, 46
31, 23
32, 14
14, 15
16, 2
7, 9
13, 9
11, 14
26, 12
30, 13
26, 14
41, 11
36, 18
32, 12
31, 8
21, 12
28, 5
21, 9
20, 3
15, 7
13, 2
4, 8
9, 4
5, 4
6, 5
7, 7
6, 2
2, 6
3, 6
5, 6
3, 3
6, 8
12, 5
5, 5
5, 8
4, 7
10, 8
5, 5
4, 4
10, 6
4, 5
4, 7
8, 5
4, 4
9, 6
4, 3
7, 2
5, 4
11, 6
8, 2
2, 5
5, 4
2, 4
3, 2
7, 4
1, 6
3, 4
5, 3
3, 5
3, 3
2, 2
4, 2
4, 8
8, 8
6, 7
6, 6
2, 6
7, 8
3, 13
9, 7
6, 13
16, 18
13, 13
14, 20
27, 15
13, 22
13, 20
21, 17
13, 13
15, 9
18, 15
14, 8
8, 4
6, 5
6, 7
7, 3
5, 5
6, 2
3, 5
3, 3
8, 4
4, 3
1, 3
5, 0
5, 6
1, 6
2, 5
3, 1
2, 3
2, 4
4, 1
3, 5
1, 2
3, 2
2, 0
2, 8
3, 3
5, 3
3, 4
2, 6
6, 4
4, 4
3, 2
4, 4
6, 3
3, 4
8, 4
7, 3
2, 2
2, 6
3, 0
3, 1
6, 1
4, 1
1, 3
0, 1
1, 3
2, 4
2, 1
1, 2
6, 2
2, 7
2, 2
1, 3
1, 1
5, 0
4, 3
6, 2
1, 1
3, 4
0, 5
8, 3
3, 2
5, 5
2, 4
3, 5
2, 3
5, 3
0, 2
2, 3
0, 5
2, 1
3, 3
3, 4
2, 0
3, 4
3, 5
4, 5
8, 1
3, 3
7, 6
8, 5
13, 3
3, 4
9, 5
10, 3
3, 5
4, 3
5, 1
5, 2
5, 0
2, 1
0, 3
4, 0
1, 5
3, 4
3, 2
1, 4
2, 2
5, 1
1, 4
2, 4
3, 1
2, 4
1, 6
5, 1
1, 5
2, 4
3, 3
2, 3
4, 4
4, 1
0, 1
2, 5
3, 4
2, 1
2, 2
1, 3
2, 2
0, 1
3, 0
3, 5
2, 1
0, 2
1, 1
4, 0
0, 6
2, 3
4, 1
4, 1
4, 6
1, 1
2, 5
0, 4
2, 2
2, 1
5, 2
3, 5
1, 0
0, 4
5, 1
0, 3
2, 0
3, 2
0, 3
1, 2
1, 5
1, 2
1, 2
1, 3
3, 4
5, 5
3, 3
1, 3
1, 5
6, 7
7, 4
4, 7
3, 2
3, 1
2, 3
4, 2
0, 3
0, 4
0, 1
1, 2
1, 3
2, 2
0, 1
2, 2
0, 4
1, 3
0, 2
5, 1
2, 4
1, 2
1, 0
2, 5
3, 5
0, 4
1, 4
1, 2
0, 4
2, 3
1, 0
1, 1
5, 1
3, 1
3, 2
1, 1
3, 1
0, 2
0, 2
1, 1
1, 0
1, 1
2, 1
1, 2
1, 1
2, 1
0, 0
1, 3
1, 2
0, 0
2, 1
1, 2
2, 0
0, 0
2, 0
1, 1
2, 2
1, 0
1, 2
1, 0
0, 0
2, 1
0, 0
1, 1
3, 1
0, 1
0, 1
0, 0
0, 0
1, 2
0, 1
1, 2
0, 1
1, 1
1, 0
0, 2
2, 0
1, 1
1, 1
1, 0
0, 1
1, 1
3, 1
0, 0
0, 0
2, 2
0, 3
2, 1
2, 1
0, 1
0, 0
0, 1
1, 0
0, 0
1, 1
1, 1
1, 2
2, 1
0, 2
0, 1
1, 1
0, 1
3, 1
0, 2
0, 1
0, 1
0, 0
0, 1
1, 2
0, 0
1, 0
0, 0
0, 2
1, 0
1, 0
0, 0
0, 0
0, 0
2, 0
0, 1
1, 0
0, 0
1, 0
0, 0
0, 0
0, 0
1, 0
0, 0
0, 1
2, 0
0, 1
0, 1
0, 0
0, 2
0, 0
1, 2
0, 0
0, 0
4, 0
0, 0
0, 0
0, 1
0, 0
1, 1
1, 0
0, 1
0, 2
0, 1
0, 2
0, 1
2, 2
2, 0
0, 1
2, 0
0, 1
0, 0
0, 0
0, 1
0, 0
0, 1
1, 1
0, 0
0, 1
1, 1
0, 0
1, 0
0, 0
1, 1
0, 0
0, 0
0, 0
1, 0
1, 0
1, 2
0, 0
0, 0
0, 0
1, 0
0, 0
1, 0
0, 0
0, 0
0, 1
0, 0
0, 0
1, 0
0, 0
0, 0
1, 1
1, 0
0, 0
0, 0
0, 0
0, 0
2, 0
0, 1
0, 0
2, 0
0, 0
0, 0
1, 0
1, 0
0, 0
0, 0
1, 0
0, 0
0, 0
0, 0
0, 1
0, 0
0, 0
0, 0
0, 0
0, 0
1, 0
0, 1
0, 0
1, 0
0, 0
0, 1
0, 1
0, 0
0, 0
0, 0
1, 0
0, 0
0, 1
1, 0
1, 0
0, 0
0, 0
0, 1
0, 1
0, 0
1, 0
1, 0
0, 0
1, 1
0, 0
0, 1
0, 0
0, 0
0, 1
0, 0
0, 0
0, 1
0, 0
0, 0
0, 0
0, 0
0, 1
0, 2
0, 2
1, 1
0, 1
0, 1
0, 1
0, 0
0, 0
0, 1
0, 0
0, 0
2, 1
0, 0
0, 0
0, 0
0, 0
0, 0
0, 0
0, 0
0, 0
0, 0
0, 0
0, 0
0, 0
1, 0
1, 0
0, 0
0, 1
1, 0
0, 1
0, 0
0, 0
0, 0
0, 0
0, 0
0, 1
0, 0
0, 0
0, 0
0, 0
0, 0
0, 0
0, 0
0, 0
0, 0
0, 1
0, 0
0, 0
1, 0
0, 0
0, 0
0, 1
0, 0
0, 0
0, 0
0, 0
0, 0
2, 0
0, 1
0, 0
0, 0
0, 0
0, 0
1, 0
0, 0
0, 1
0, 1
0, 0
0, 0
0, 0
0, 0
0, 0
1, 0
0, 0
0, 0
0, 0
0, 0
0, 0
0, 0
0, 0
0, 0
0, 0
0, 0
0, 0
0, 1
0, 0
0, 0
0, 0
0, 0
0, 0
0, 0
0, 2
0, 0
0, 0
0, 0
0, 0
0, 0
0, 0
0, 0
1, 0
0, 0
0, 0
0, 0
1, 0
0, 0
1, 0
0, 0
0, 1
0, 0
0, 0
0, 0
0, 0
0, 0
0, 0
0, 0
0, 0
0, 1
0, 0
0, 0
0, 0
0, 0
1, 0
0, 0
0, 0
0, 0
0, 0
0, 0
0, 0
0, 0
0, 0
0, 0
0, 0
0, 0
0, 0
0, 0
0, 0
0, 0
0, 0
0, 0
0, 0
0, 0
0, 0
1, 0
0, 0
0, 0
0, 0
0, 0
0, 0
0, 0
0, 0
0, 0
0, 0
0, 0
0, 0
0, 0
0, 0
0, 0
0, 0
0, 0
0, 0
0, 0
0, 0
0, 0
0, 1
0, 0
0, 0
0, 1
0, 0
0, 0
0, 0
0, 0
0, 0
0, 0
0, 0
0, 0
0, 0
0, 0
0, 0
0, 0
0, 0
0, 0
0, 0
0, 0
0, 0
0, 0
0, 0
0, 0
0, 0
0, 0
0, 0
0, 0
0, 0
0, 0
0, 0
0, 0
0, 0
0, 0
0, 0
0, 0
0, 0
0, 0
0, 0
0, 0
0, 0
0, 0
0, 0
0, 0
0, 0
0, 0
0, 0
0, 0
0, 0
0, 0
0, 0
0, 0
0, 0
0, 0
0, 0
0, 0
0, 0
0, 0
0, 0
0, 0
0, 0
0, 0
0, 0
0, 0
0, 0
0, 0
0, 0
0, 0
0, 0
0, 0
0, 0
0, 0
0, 0
0, 0
0, 0
0, 0
0, 0
0, 0
0, 0
0, 0
0, 0
0, 0
0, 0
0, 0
0, 0
0, 0
0, 0
0, 0
0, 0
0, 0
0, 0
0, 0
0, 0
0, 0
0, 0
0, 0
0, 0
0, 0
0, 0
0, 0
0, 0
0, 0
0, 0
0, 0
0, 0
0, 0
0, 0
0, 0
0, 0
0, 0
0, 0
0, 0
0, 0
0, 0
0, 0
0, 0
0, 0
0, 0
0, 0
0, 0
0, 0
0, 0
0, 0
0, 0
0, 0
0, 0
0, 0
0, 0
0, 0
0, 0
0, 0
0, 0
0, 0
0, 0
0, 0
0, 0
0, 0
0, 0
0, 0
0, 0
0, 0
0, 0
0, 0
0, 0
0, 0
0, 0
0, 0
0, 0
0, 0
0, 0
0, 0
0, 0
0, 0
0, 0
0, 0
0, 0
0, 0
0, 0
0, 0
0, 0
0, 0
0, 0
0, 0
0, 0
0, 0
0, 0
0, 0
0, 0
0, 0
0, 0
0, 0
0, 0
0, 0
0, 0
0, 0
0, 0
0, 0
0, 0
0, 0
0, 0
0, 0
0, 0
0, 0
0, 0
0, 0
0, 0
0, 0
0, 0
0, 0
0, 0
0, 0
0, 0
0, 0
0, 0
0, 0
0, 0
0, 0
0, 0
0, 0
0, 0
0, 0
0, 0
0, 0
0, 0
0, 0
0, 0
0, 0
0, 0
0, 0
0, 0
0, 0
0, 0
0, 0
0, 0
0, 0
0, 0
0, 0
0, 0
0, 0
0, 0
0, 0
0, 0
0, 0
0, 0
0, 0
0, 0
0, 0
0, 0
0, 0
0, 0
0, 0
0, 0
0, 0
0, 0
0, 0
0, 0
0, 0
0, 0
0, 0
0, 0
0, 0
0, 0
0, 0
0, 0
0, 0
0, 0
0, 0
0, 0
0, 0
0, 0
0, 0
0, 0
0, 0
0, 0
0, 0
0, 0
0, 0
0, 0
0, 0
0, 0
0, 0
0, 0
0, 0
0, 0
0, 0
0, 0
0, 0
0, 0
0, 0
0, 0
0, 0
0, 0
0, 0
0, 0
0, 0
0, 0
0, 0
0, 0
0, 0
0, 0
0, 0
0, 0
0, 0
0, 0
0, 0
0, 0
0, 0
0, 0
0, 0
0, 0
0, 0
0, 0
0, 0
0, 0
0, 0
0, 0
0, 0
0, 0
0, 0
0, 0
0, 0
0, 0
0, 0
0, 0
0, 0
0, 0
0, 0
0, 0
0, 0
0, 0
0, 0
0, 0
0, 0
0, 0
0, 0
0, 0
0, 0
0, 0
0, 0
0, 0
0, 0
0, 0
0, 0
0, 0
0, 0
0, 0
0, 0
0, 0
0, 0
0, 0
0, 0
0, 0
0, 0
0, 0
0, 0
0, 0
0, 0
0, 0
0, 0
0, 0
0, 0
0, 0
0, 0
0, 0
0, 0
0, 0
0, 0
0, 0
0, 0
0, 0
0, 0
0, 0
0, 0
0, 0
0, 0
0, 0
0, 0
0, 0
0, 0
0, 0
0, 0
0, 0
0, 0
0, 0
0, 0
0, 0
0, 0
0, 0
0, 0
0, 0
0, 0
0, 0
0, 0
0, 0
0, 0
0, 0
0, 0
0, 0
0, 0
0, 0
0, 0
0, 0
0, 0
0, 0
0, 0
0, 0
0, 0
0, 0
0, 0
0, 0
0, 0
0, 0
0, 0
0, 0
0, 0
0, 0
0, 0
0, 0
0, 0
0, 0
0, 0
0, 0
0, 0
0, 0
0, 0
0, 0
0, 0
0, 0
0, 0
0, 0
0, 0
#ENDOFDATA     end of spectrum data