File: host_upload/06-09-2024/ps_0852/dump3/ps__0852shot_2478.msa
#FORMAT      : EMSA/MAS spectral data file
#VERSION     : TC202v2.0 PIXL
#TITLE       : N/A
#DATE        :       Date in the format DD-MMM-YYYY, for example 07-JUL-2010
#TIME        :             The time of day at which the spectrum was recorded, in 24-hour format
#OWNER       : PIXL Flight Model       (PIXL will use this to indicate which instrument took the data.)
#NPOINTS     : 4096     Number of data points in the spectrum (This can be zero for configuration only files)
#NCOLUMNS    : 2     Number of data columns in the spectrum (This can be zero for configuration only files)
#XUNITS      : eV
#YUNITS      : COUNTS
#DATATYPE    : YY
#XPERCHAN    : 7.862, 7.881   eV per channel (separate by commas if more than one detector)
#OFFSET      : 18.5, -22.4         eV of first channel  (separate by commas if more than one detector
#SIGNALTYPE  : XRF
#YP_TEMP     : 2.524
#LIVETIME    : 8.56462, 8.56704   seconds (separate by commas if more than one detector)
#REALTIME    : 10, 10.0   seconds (separate by commas if more than one detector)
#SPECTRUM    : start of spectrum data
0, 0
0, 0
0, 0
0, 0
0, 0
0, 0
0, 0
0, 0
0, 0
0, 0
0, 0
0, 0
0, 0
0, 0
0, 0
0, 0
0, 0
0, 0
0, 0
0, 0
0, 0
0, 0
0, 0
0, 0
0, 0
0, 0
0, 0
0, 0
0, 0
0, 0
0, 0
0, 0
0, 0
0, 0
1, 0
2, 1
0, 0
1, 0
0, 2
0, 0
2, 1
0, 0
1, 2
0, 1
0, 0
0, 2
3, 0
7, 0
6, 11
9, 11
21, 16
38, 42
60, 61
78, 68
86, 82
90, 73
62, 58
58, 34
37, 29
19, 16
6, 7
6, 3
5, 3
3, 2
2, 4
5, 4
4, 2
17, 12
26, 25
56, 47
101, 110
180, 193
288, 262
339, 365
406, 447
472, 413
375, 372
284, 294
200, 169
134, 115
75, 70
35, 33
18, 17
12, 8
4, 1
3, 3
3, 2
2, 1
0, 1
1, 3
1, 1
0, 3
2, 1
0, 2
3, 3
5, 3
5, 7
7, 5
6, 8
9, 8
9, 8
4, 5
4, 5
5, 4
5, 1
4, 3
3, 4
5, 5
7, 10
6, 11
9, 10
32, 21
32, 26
38, 33
41, 28
37, 22
43, 32
38, 23
26, 29
29, 23
22, 11
28, 21
20, 23
15, 18
15, 11
13, 9
6, 16
10, 9
11, 4
9, 4
7, 1
2, 5
5, 3
2, 2
0, 2
4, 1
1, 1
3, 1
1, 3
2, 2
3, 2
1, 3
0, 2
0, 1
2, 4
5, 2
2, 2
3, 6
5, 1
17, 4
9, 5
19, 6
27, 3
34, 13
46, 13
54, 18
41, 20
38, 24
46, 23
40, 22
22, 10
22, 14
11, 4
5, 7
5, 4
3, 7
3, 3
3, 8
3, 4
5, 2
2, 6
5, 6
2, 10
6, 10
4, 3
7, 7
6, 6
1, 5
4, 3
4, 6
4, 1
3, 2
3, 8
5, 1
7, 1
4, 6
3, 6
5, 2
6, 5
6, 5
9, 7
7, 8
9, 14
10, 6
12, 9
8, 12
16, 16
19, 19
15, 22
11, 15
8, 11
6, 14
9, 15
10, 3
8, 8
6, 10
2, 10
3, 5
9, 2
8, 5
11, 6
4, 3
3, 12
7, 10
7, 11
6, 11
5, 15
5, 14
6, 22
4, 14
7, 14
5, 14
4, 10
1, 5
4, 9
10, 11
10, 8
17, 13
13, 12
18, 12
23, 14
29, 13
30, 15
34, 15
31, 14
36, 16
26, 11
33, 24
22, 33
10, 28
19, 34
13, 38
14, 43
10, 33
21, 43
33, 34
30, 41
44, 46
59, 48
73, 54
69, 58
64, 53
58, 50
41, 48
50, 37
35, 31
17, 16
17, 21
20, 18
17, 20
16, 28
29, 30
38, 44
88, 118
137, 181
283, 332
493, 592
790, 911
1115, 1276
1517, 1732
1917, 2046
2322, 2422
2373, 2481
2383, 2261
2163, 1855
1727, 1551
1294, 1102
947, 670
551, 414
332, 254
183, 137
91, 73
51, 46
32, 15
27, 14
21, 19
12, 13
9, 12
11, 17
22, 18
14, 22
33, 54
46, 68
81, 73
109, 118
171, 155
188, 248
261, 308
300, 324
368, 379
339, 371
375, 351
289, 297
274, 213
197, 148
128, 114
87, 52
66, 44
34, 22
21, 15
17, 14
17, 11
11, 4
11, 8
10, 7
18, 8
17, 19
8, 12
12, 22
10, 14
13, 14
11, 9
4, 3
7, 5
10, 5
8, 7
7, 3
6, 4
2, 4
6, 10
5, 8
1, 4
4, 5
5, 5
4, 2
7, 2
3, 2
3, 4
3, 2
4, 5
4, 6
6, 7
4, 12
8, 9
8, 7
7, 11
8, 6
6, 4
4, 9
3, 7
13, 5
5, 8
11, 10
7, 9
4, 8
4, 4
3, 5
8, 2
5, 7
4, 4
6, 7
4, 4
4, 12
7, 2
7, 5
2, 3
5, 4
2, 7
6, 5
8, 3
9, 5
6, 4
5, 5
7, 5
9, 3
5, 3
4, 3
6, 3
7, 2
0, 11
6, 6
6, 6
1, 4
3, 8
2, 15
2, 16
5, 15
4, 25
2, 18
3, 33
4, 29
6, 26
2, 29
3, 18
3, 11
2, 7
3, 14
2, 4
9, 8
4, 5
6, 1
7, 5
4, 7
6, 4
5, 5
2, 8
3, 8
7, 3
2, 3
3, 6
3, 2
3, 5
2, 3
1, 7
4, 3
5, 3
3, 7
3, 6
1, 3
1, 8
3, 6
2, 3
4, 3
1, 4
3, 5
4, 3
3, 2
1, 1
6, 3
1, 1
3, 3
6, 5
1, 2
3, 4
5, 2
0, 1
5, 3
2, 0
1, 7
2, 2
4, 1
8, 5
4, 0
3, 4
3, 1
4, 7
4, 2
3, 2
5, 2
7, 2
1, 2
2, 3
3, 0
0, 2
4, 3
2, 3
3, 6
2, 2
1, 6
4, 2
0, 3
2, 3
4, 3
1, 4
3, 4
4, 0
2, 2
5, 6
3, 1
7, 6
4, 0
4, 3
2, 3
1, 3
2, 4
7, 5
6, 3
5, 5
3, 8
3, 2
3, 5
4, 7
1, 3
2, 1
2, 0
2, 4
2, 4
1, 3
1, 1
3, 2
2, 4
2, 6
0, 0
3, 3
3, 3
1, 3
3, 2
2, 4
1, 3
2, 1
1, 1
0, 2
3, 6
0, 0
0, 5
1, 3
2, 3
2, 2
1, 2
0, 2
0, 2
2, 0
1, 4
3, 3
5, 1
1, 2
1, 3
1, 1
2, 3
1, 2
2, 2
4, 2
2, 0
0, 1
2, 2
4, 1
5, 4
2, 0
4, 2
3, 3
2, 1
1, 1
2, 3
0, 4
1, 2
1, 2
0, 1
2, 5
5, 3
4, 1
3, 2
3, 2
2, 2
6, 7
8, 4
5, 5
1, 1
1, 2
2, 3
0, 2
1, 2
4, 0
0, 1
0, 3
0, 0
2, 1
1, 2
1, 4
2, 2
1, 1
1, 1
1, 1
0, 1
0, 4
1, 1
3, 1
0, 2
0, 2
1, 3
4, 3
0, 3
2, 0
0, 1
2, 2
0, 1
0, 0
0, 2
1, 2
1, 2
1, 1
2, 3
0, 1
1, 1
2, 0
0, 2
1, 0
1, 2
1, 1
0, 2
1, 1
1, 1
0, 1
3, 0
0, 0
0, 1
2, 2
2, 1
1, 1
0, 0
2, 1
0, 1
1, 0
0, 0
2, 1
1, 2
2, 0
1, 2
1, 1
0, 4
1, 1
1, 1
0, 1
0, 0
2, 1
0, 1
0, 2
2, 1
2, 1
1, 2
0, 0
0, 1
0, 2
2, 0
0, 0
1, 2
0, 1
1, 0
1, 0
0, 0
1, 0
0, 0
1, 1
1, 2
0, 0
1, 4
1, 2
1, 1
2, 2
0, 2
0, 0
0, 0
0, 2
0, 3
0, 2
0, 1
1, 2
0, 0
1, 0
1, 0
0, 1
1, 1
3, 1
0, 0
1, 0
1, 1
1, 1
1, 1
0, 0
0, 2
0, 0
0, 1
0, 0
0, 2
1, 2
0, 0
0, 0
1, 0
0, 0
0, 1
1, 0
0, 0
0, 0
0, 0
1, 1
0, 0
0, 0
1, 1
0, 0
0, 0
1, 0
0, 0
3, 0
0, 2
0, 1
0, 1
2, 0
0, 0
1, 2
1, 0
0, 0
3, 0
1, 0
0, 0
0, 1
0, 0
0, 1
0, 0
0, 1
0, 0
1, 0
0, 1
0, 0
0, 0
0, 1
0, 0
1, 0
0, 0
0, 0
0, 0
0, 0
0, 0
0, 0
0, 0
0, 0
0, 0
0, 0
0, 0
0, 0
0, 2
0, 0
0, 0
0, 0
0, 1
0, 0
3, 0
0, 0
1, 1
0, 0
1, 0
1, 0
0, 0
0, 0
0, 0
0, 1
0, 0
0, 0
1, 1
1, 0
0, 0
1, 0
0, 0
0, 0
0, 1
0, 0
0, 0
0, 1
1, 0
0, 1
0, 0
0, 0
0, 1
0, 0
1, 0
0, 2
0, 0
0, 0
1, 0
0, 0
0, 0
0, 1
1, 0
0, 0
0, 1
0, 0
0, 0
1, 0
0, 0
0, 0
0, 0
0, 0
0, 0
0, 0
0, 0
0, 0
0, 0
0, 0
1, 1
0, 0
0, 0
0, 1
1, 2
0, 1
0, 0
0, 0
0, 0
0, 1
0, 0
0, 0
0, 0
0, 0
0, 0
0, 0
0, 0
0, 1
0, 0
0, 0
0, 0
2, 0
0, 0
0, 0
0, 0
0, 0
0, 0
0, 0
1, 0
0, 0
0, 0
0, 0
0, 0
0, 0
0, 0
0, 0
1, 0
0, 1
0, 0
1, 0
0, 0
0, 0
1, 0
0, 0
0, 0
1, 0
1, 0
1, 0
0, 0
1, 0
0, 1
0, 0
0, 1
0, 0
0, 0
0, 0
0, 0
0, 0
0, 0
0, 0
0, 1
0, 0
0, 0
0, 0
0, 0
0, 0
0, 0
1, 0
0, 0
0, 0
0, 0
0, 0
0, 0
0, 0
0, 0
0, 0
0, 0
0, 0
0, 1
1, 1
0, 3
0, 0
0, 0
0, 0
0, 0
0, 0
0, 0
0, 0
1, 0
0, 0
0, 0
0, 0
0, 0
0, 0
0, 0
0, 0
0, 0
0, 0
1, 0
0, 0
0, 0
0, 1
0, 0
0, 0
0, 1
0, 0
0, 1
0, 0
0, 0
0, 0
0, 0
0, 1
1, 0
0, 0
0, 0
0, 0
0, 0
0, 0
0, 0
0, 0
0, 0
0, 1
0, 0
0, 0
0, 0
0, 0
0, 0
1, 0
0, 0
1, 0
0, 0
0, 0
0, 0
0, 0
0, 0
0, 1
0, 0
0, 0
0, 0
0, 0
0, 0
0, 0
0, 0
0, 0
0, 0
0, 0
0, 0
0, 0
0, 0
0, 0
0, 0
0, 0
0, 0
0, 0
0, 0
0, 0
0, 1
0, 0
0, 0
0, 0
0, 0
0, 0
0, 0
0, 0
0, 0
0, 0
0, 0
0, 0
0, 0
0, 0
0, 0
0, 0
0, 0
0, 0
0, 0
0, 0
1, 0
0, 0
0, 0
0, 0
1, 0
0, 0
0, 0
0, 0
0, 0
0, 0
0, 0
0, 0
0, 0
0, 0
0, 0
0, 0
0, 0
0, 0
0, 0
0, 0
0, 0
0, 0
0, 0
0, 0
0, 0
0, 0
0, 0
0, 0
0, 0
0, 0
0, 0
0, 0
0, 0
0, 0
0, 0
0, 0
0, 0
0, 0
0, 0
0, 0
0, 0
0, 0
0, 0
0, 0
0, 0
0, 0
0, 0
0, 0
0, 0
0, 0
0, 0
0, 0
0, 0
0, 0
0, 0
0, 0
0, 0
0, 0
0, 0
0, 0
0, 0
0, 0
0, 0
0, 0
0, 0
0, 0
0, 0
0, 0
0, 0
0, 0
0, 0
0, 0
0, 0
0, 0
0, 0
0, 0
0, 0
0, 0
0, 0
0, 0
0, 0
0, 0
0, 0
0, 0
0, 0
0, 0
0, 0
0, 0
0, 0
0, 0
0, 0
0, 0
0, 0
0, 0
0, 0
0, 0
0, 0
0, 0
0, 0
0, 0
0, 0
0, 0
0, 0
0, 0
0, 0
1, 0
0, 0
0, 0
0, 0
0, 0
0, 0
0, 0
0, 0
0, 0
0, 0
0, 0
0, 0
0, 0
0, 0
0, 0
0, 0
0, 0
0, 0
0, 0
0, 0
0, 0
0, 0
0, 0
0, 0
0, 0
0, 0
0, 0
0, 0
0, 0
0, 0
0, 0
0, 0
0, 0
0, 0
0, 0
0, 0
0, 0
0, 0
0, 0
0, 0
0, 0
0, 0
0, 0
0, 0
0, 0
0, 0
0, 0
0, 0
0, 0
0, 0
0, 0
0, 0
0, 0
0, 0
0, 0
0, 0
0, 0
0, 0
0, 0
0, 0
0, 0
0, 0
0, 0
0, 0
0, 0
0, 0
0, 0
0, 0
0, 0
0, 0
0, 0
0, 0
0, 0
0, 0
0, 0
0, 0
0, 0
0, 0
0, 0
0, 0
0, 0
0, 0
0, 0
0, 0
0, 0
0, 0
0, 0
0, 0
0, 0
0, 0
0, 0
0, 0
0, 0
0, 0
0, 0
0, 0
0, 0
0, 0
0, 0
0, 0
0, 0
0, 0
0, 0
0, 0
0, 0
0, 0
0, 0
0, 0
0, 0
0, 0
0, 0
0, 0
0, 0
0, 0
0, 0
0, 0
0, 0
0, 0
0, 0
0, 0
0, 0
0, 0
0, 0
0, 0
0, 0
0, 0
0, 0
0, 0
0, 0
0, 0
0, 0
0, 0
0, 0
0, 0
0, 0
0, 0
0, 0
0, 0
0, 0
0, 0
0, 0
0, 0
0, 0
0, 0
0, 0
0, 0
0, 0
0, 0
0, 0
0, 0
0, 0
0, 0
0, 0
0, 0
0, 0
0, 0
0, 0
0, 0
0, 0
0, 0
0, 0
0, 0
0, 0
0, 0
0, 0
0, 0
0, 0
0, 0
0, 0
0, 0
0, 0
0, 0
0, 0
0, 0
0, 0
0, 0
0, 0
0, 0
0, 0
0, 0
0, 0
0, 0
0, 0
0, 0
0, 0
0, 0
0, 0
0, 0
0, 0
0, 0
0, 0
0, 0
0, 0
0, 0
0, 0
0, 0
0, 0
0, 0
0, 0
0, 0
0, 0
0, 0
0, 0
0, 0
0, 0
0, 0
0, 0
0, 0
0, 0
0, 0
0, 0
0, 0
0, 0
0, 0
0, 0
0, 0
0, 0
0, 0
0, 0
0, 0
0, 0
0, 0
0, 0
0, 0
0, 0
0, 0
0, 0
0, 0
0, 0
0, 0
0, 0
0, 0
0, 0
0, 0
0, 0
0, 0
0, 0
0, 0
0, 0
0, 0
0, 0
0, 0
0, 0
0, 0
0, 0
0, 0
0, 0
0, 0
0, 0
0, 0
0, 0
0, 0
0, 0
0, 0
0, 0
0, 0
0, 0
0, 0
0, 0
0, 0
0, 0
0, 0
0, 0
0, 0
0, 0
0, 0
0, 0
0, 0
0, 0
0, 0
0, 0
0, 0
0, 0
0, 0
0, 0
0, 0
0, 0
0, 0
0, 0
0, 0
0, 0
0, 0
0, 0
0, 0
0, 0
0, 0
0, 0
0, 0
0, 0
0, 0
0, 0
0, 0
0, 0
0, 0
0, 0
0, 0
0, 0
0, 0
0, 0
0, 0
0, 0
0, 0
0, 0
0, 0
0, 0
0, 0
0, 0
0, 0
0, 0
#ENDOFDATA     end of spectrum data