File: host_upload/06-09-2024/ps_0852/dump3/ps__0852shot_2538.msa
#FORMAT      : EMSA/MAS spectral data file
#VERSION     : TC202v2.0 PIXL
#TITLE       : N/A
#DATE        :       Date in the format DD-MMM-YYYY, for example 07-JUL-2010
#TIME        :             The time of day at which the spectrum was recorded, in 24-hour format
#OWNER       : PIXL Flight Model       (PIXL will use this to indicate which instrument took the data.)
#NPOINTS     : 4096     Number of data points in the spectrum (This can be zero for configuration only files)
#NCOLUMNS    : 2     Number of data columns in the spectrum (This can be zero for configuration only files)
#XUNITS      : eV
#YUNITS      : COUNTS
#DATATYPE    : YY
#XPERCHAN    : 7.862, 7.881   eV per channel (separate by commas if more than one detector)
#OFFSET      : 18.5, -22.4         eV of first channel  (separate by commas if more than one detector
#SIGNALTYPE  : XRF
#YP_TEMP     : 2.492
#LIVETIME    : 8.54879, 8.56823   seconds (separate by commas if more than one detector)
#REALTIME    : 10, 10.0   seconds (separate by commas if more than one detector)
#SPECTRUM    : start of spectrum data
0, 0
0, 0
0, 0
0, 0
0, 0
0, 0
0, 0
0, 0
0, 0
0, 0
0, 0
0, 0
0, 0
0, 0
0, 0
0, 0
0, 0
0, 0
0, 0
0, 0
0, 0
0, 0
0, 0
0, 0
0, 0
0, 0
0, 0
0, 0
0, 0
0, 0
0, 0
0, 0
0, 0
1, 0
0, 1
1, 2
1, 5
1, 6
1, 12
0, 20
3, 14
0, 27
1, 24
0, 22
0, 20
1, 9
1, 13
1, 3
7, 11
13, 12
30, 21
30, 40
58, 62
62, 74
79, 81
80, 81
49, 65
40, 44
27, 25
16, 11
5, 7
13, 10
4, 3
2, 7
1, 6
7, 4
5, 6
10, 17
17, 18
47, 55
82, 110
190, 169
224, 287
334, 385
408, 451
408, 431
342, 354
279, 268
193, 176
119, 134
52, 69
39, 38
19, 17
5, 17
4, 3
1, 2
3, 4
2, 1
2, 4
0, 2
1, 2
0, 2
3, 3
1, 4
4, 2
2, 4
4, 4
4, 8
2, 8
10, 5
6, 7
2, 10
4, 10
5, 5
0, 6
9, 8
3, 18
7, 48
11, 94
17, 219
22, 402
39, 683
62, 1052
58, 1434
76, 1756
75, 1850
79, 1720
51, 1428
46, 1028
38, 645
24, 355
31, 231
22, 92
28, 61
16, 31
24, 19
12, 17
16, 19
12, 16
4, 4
4, 4
3, 9
7, 5
6, 5
3, 1
1, 2
3, 3
5, 1
5, 1
4, 1
2, 1
1, 1
2, 4
1, 3
6, 4
2, 0
3, 3
2, 2
4, 3
11, 4
2, 5
6, 3
10, 7
10, 21
13, 23
15, 19
16, 20
21, 25
19, 21
19, 15
10, 18
15, 6
9, 13
13, 8
6, 6
6, 11
2, 10
2, 13
6, 11
7, 8
7, 17
8, 13
6, 7
9, 11
8, 5
6, 11
7, 7
6, 10
16, 13
15, 5
15, 9
8, 10
8, 6
8, 9
6, 8
11, 7
5, 12
10, 8
4, 9
6, 7
15, 15
17, 11
13, 9
19, 19
20, 20
24, 23
25, 18
11, 21
16, 26
25, 20
22, 12
19, 15
16, 13
19, 12
21, 6
23, 5
29, 8
19, 8
19, 7
12, 9
13, 11
11, 6
4, 11
7, 9
8, 8
7, 3
4, 1
11, 4
13, 9
17, 2
15, 6
10, 12
22, 11
18, 10
22, 17
35, 21
26, 28
30, 26
32, 36
38, 30
30, 32
32, 41
28, 43
27, 33
22, 19
25, 17
15, 18
13, 15
15, 10
9, 9
11, 12
12, 9
15, 10
19, 17
21, 16
24, 21
33, 34
37, 49
58, 53
55, 71
65, 75
63, 91
47, 72
60, 45
39, 49
29, 26
31, 30
30, 20
20, 24
21, 24
25, 21
29, 22
37, 46
71, 108
151, 197
276, 355
486, 597
779, 960
1068, 1330
1556, 1897
1995, 2228
2304, 2542
2369, 2433
2322, 2263
2075, 1963
1691, 1560
1308, 1051
922, 742
508, 449
345, 256
197, 122
100, 65
62, 37
27, 23
31, 26
26, 29
25, 27
25, 36
34, 36
29, 51
18, 58
39, 68
34, 85
70, 96
104, 137
156, 205
218, 264
259, 320
343, 352
377, 377
330, 380
365, 309
331, 304
224, 220
191, 150
129, 116
86, 67
55, 35
26, 16
21, 17
10, 10
7, 11
4, 7
6, 11
6, 13
9, 11
16, 14
17, 15
18, 15
9, 11
12, 10
13, 13
10, 7
11, 5
7, 5
5, 7
5, 8
7, 2
5, 3
1, 4
4, 3
6, 4
7, 1
3, 2
4, 1
8, 9
7, 4
13, 2
10, 6
9, 7
8, 5
6, 9
10, 6
15, 2
9, 6
6, 9
11, 8
13, 10
7, 3
9, 5
6, 16
7, 6
8, 10
7, 9
10, 17
6, 6
9, 7
4, 6
7, 5
6, 6
6, 9
1, 4
8, 5
3, 4
7, 0
1, 8
5, 4
4, 7
1, 9
6, 7
5, 2
1, 2
4, 6
4, 0
7, 3
1, 2
3, 0
4, 3
4, 1
8, 3
7, 8
1, 3
5, 6
5, 6
2, 6
0, 10
5, 7
6, 9
7, 12
8, 7
13, 2
12, 5
12, 5
7, 5
15, 6
8, 3
14, 6
12, 5
19, 3
10, 1
8, 7
6, 6
7, 2
1, 0
8, 4
3, 4
7, 6
2, 5
0, 5
5, 7
2, 6
5, 4
4, 1
3, 6
3, 1
5, 4
4, 2
1, 2
5, 2
1, 5
1, 9
2, 5
2, 4
5, 6
1, 1
3, 3
4, 2
4, 2
3, 3
4, 4
2, 7
5, 3
3, 4
3, 3
3, 4
3, 3
4, 4
0, 1
8, 3
2, 2
1, 1
1, 6
4, 7
2, 4
6, 5
6, 4
5, 2
5, 4
2, 3
6, 2
3, 4
5, 1
5, 4
1, 4
3, 5
3, 3
6, 1
7, 7
4, 3
4, 4
3, 4
3, 7
4, 5
5, 1
4, 5
3, 2
2, 4
1, 3
1, 2
5, 1
6, 4
2, 1
3, 3
2, 2
0, 1
2, 3
2, 2
1, 4
1, 7
1, 0
1, 3
2, 0
3, 0
2, 2
2, 1
3, 3
1, 1
1, 0
2, 4
0, 0
1, 1
1, 0
4, 1
3, 2
3, 4
2, 2
4, 4
3, 3
4, 3
8, 4
2, 2
1, 2
0, 3
2, 3
3, 1
5, 2
1, 3
1, 2
7, 3
7, 2
3, 4
1, 1
2, 4
0, 3
1, 2
1, 2
2, 1
1, 0
2, 1
3, 4
0, 5
4, 3
2, 3
1, 3
2, 3
1, 4
1, 3
3, 4
3, 3
2, 1
2, 1
0, 1
0, 3
1, 2
1, 5
1, 1
3, 4
5, 5
5, 7
4, 4
4, 3
1, 4
2, 1
9, 3
2, 2
3, 4
2, 5
1, 6
3, 2
3, 3
3, 1
3, 2
2, 0
3, 0
0, 0
0, 2
2, 3
2, 3
1, 1
2, 1
1, 1
0, 1
1, 3
1, 1
1, 1
2, 4
0, 4
0, 3
2, 3
2, 3
1, 0
2, 4
0, 2
1, 3
3, 3
3, 2
2, 0
1, 0
1, 2
2, 0
0, 2
0, 0
2, 3
0, 0
0, 0
0, 1
0, 0
0, 2
0, 2
4, 0
0, 1
1, 0
0, 0
2, 0
0, 0
0, 3
4, 2
3, 0
0, 0
1, 1
1, 0
0, 0
0, 0
0, 0
2, 2
0, 1
0, 0
1, 2
1, 2
1, 0
1, 0
2, 0
0, 1
0, 0
1, 1
1, 1
0, 2
0, 2
1, 2
0, 1
1, 1
3, 1
2, 1
1, 0
2, 4
1, 0
3, 0
3, 0
1, 1
2, 0
0, 1
0, 1
0, 2
1, 1
0, 0
1, 1
1, 0
0, 2
1, 1
0, 0
1, 0
1, 1
1, 2
0, 0
2, 1
0, 0
1, 0
1, 0
1, 0
0, 1
2, 2
0, 1
0, 1
0, 0
1, 1
0, 1
0, 0
1, 1
0, 2
0, 0
0, 1
1, 0
0, 0
0, 1
0, 0
0, 2
0, 1
0, 0
0, 0
0, 2
0, 0
0, 0
2, 1
0, 1
0, 0
1, 0
1, 0
1, 0
1, 1
0, 1
1, 0
0, 0
0, 1
0, 1
1, 2
1, 1
0, 0
1, 0
0, 0
0, 0
0, 0
4, 0
0, 1
0, 0
0, 0
0, 0
0, 1
0, 0
0, 0
0, 0
0, 1
2, 0
1, 1
0, 1
0, 0
1, 1
2, 0
0, 1
1, 1
1, 1
1, 1
0, 0
0, 0
0, 0
0, 0
1, 0
0, 0
0, 0
1, 0
1, 0
0, 0
0, 0
3, 0
0, 0
1, 0
0, 1
0, 0
0, 0
0, 0
0, 0
1, 1
0, 0
1, 1
0, 0
1, 0
0, 0
0, 0
0, 0
0, 0
0, 0
1, 0
0, 0
0, 0
1, 0
2, 0
0, 0
0, 1
1, 0
0, 0
2, 0
0, 1
1, 0
0, 0
0, 0
0, 0
0, 1
0, 0
1, 0
0, 0
0, 0
1, 0
0, 0
0, 0
0, 0
0, 0
1, 0
0, 0
0, 0
0, 1
0, 0
0, 0
0, 1
0, 0
0, 0
0, 0
0, 0
0, 1
1, 1
0, 0
0, 1
0, 0
0, 0
1, 1
0, 1
1, 1
0, 0
1, 1
0, 0
0, 0
1, 0
1, 0
1, 0
1, 0
0, 1
0, 0
0, 0
1, 0
0, 0
0, 1
0, 0
0, 0
0, 1
0, 0
1, 1
0, 1
0, 1
0, 0
0, 0
1, 0
0, 0
0, 1
0, 1
0, 0
0, 0
0, 0
0, 0
0, 0
0, 0
1, 0
0, 0
0, 1
0, 0
0, 0
0, 1
0, 0
0, 0
0, 0
0, 1
0, 0
0, 1
0, 0
0, 0
0, 0
0, 1
0, 0
1, 0
0, 0
0, 0
0, 0
0, 0
0, 0
0, 0
1, 0
0, 0
0, 0
0, 0
1, 0
1, 0
0, 0
0, 0
0, 0
0, 0
0, 0
1, 0
0, 0
0, 0
0, 0
0, 0
0, 0
0, 0
1, 0
0, 1
0, 0
0, 0
0, 0
1, 1
0, 0
0, 0
1, 0
0, 0
0, 0
1, 0
0, 0
0, 0
0, 0
0, 0
1, 0
0, 0
0, 0
0, 0
0, 0
1, 0
0, 0
0, 0
0, 0
0, 0
0, 0
0, 0
0, 0
0, 0
0, 0
0, 1
0, 0
0, 0
0, 0
0, 0
0, 0
0, 0
0, 0
0, 0
0, 0
0, 0
0, 0
0, 0
0, 0
0, 0
0, 0
0, 1
0, 0
0, 1
1, 0
0, 0
0, 0
1, 0
0, 0
0, 0
0, 0
0, 0
0, 0
0, 0
0, 0
0, 0
0, 0
0, 0
0, 0
0, 0
0, 0
0, 0
0, 0
0, 1
0, 1
0, 0
0, 0
0, 0
0, 0
0, 0
0, 0
0, 0
0, 0
0, 0
0, 0
0, 0
0, 0
1, 0
0, 0
0, 0
0, 0
0, 0
0, 0
0, 0
1, 0
0, 0
1, 0
0, 0
0, 0
0, 1
0, 0
0, 0
0, 0
0, 0
0, 0
0, 0
0, 0
0, 0
1, 0
0, 0
0, 0
0, 0
0, 0
0, 0
0, 0
0, 0
0, 0
0, 0
1, 0
0, 0
0, 0
1, 0
0, 0
0, 0
0, 0
0, 0
0, 0
0, 0
0, 0
0, 0
0, 0
0, 0
0, 0
0, 0
0, 0
0, 0
0, 0
0, 0
0, 0
0, 0
0, 0
0, 0
0, 0
0, 0
0, 0
0, 0
0, 0
0, 0
0, 0
0, 0
0, 0
0, 0
0, 0
0, 0
0, 0
0, 0
0, 0
0, 0
0, 0
0, 0
0, 0
0, 0
0, 0
0, 0
0, 0
0, 0
0, 0
0, 0
0, 0
0, 0
0, 0
0, 0
0, 0
0, 0
0, 0
0, 0
0, 0
0, 0
0, 0
0, 0
0, 0
0, 0
0, 0
0, 0
0, 0
0, 0
0, 0
0, 0
0, 0
0, 0
0, 0
0, 0
0, 0
0, 0
0, 0
0, 0
0, 0
0, 0
0, 0
0, 0
0, 0
0, 0
0, 0
0, 0
0, 0
0, 0
0, 0
0, 0
0, 0
0, 0
0, 0
0, 0
0, 0
0, 0
0, 0
0, 0
0, 0
0, 0
0, 0
0, 0
0, 0
0, 0
0, 0
0, 0
0, 0
0, 0
0, 0
0, 0
0, 0
0, 0
0, 0
0, 0
0, 0
0, 0
0, 0
0, 0
0, 0
0, 0
0, 0
0, 0
0, 0
0, 0
0, 0
0, 0
0, 0
0, 0
0, 0
0, 0
0, 0
0, 0
0, 0
0, 0
0, 0
0, 0
0, 0
0, 0
0, 0
0, 0
0, 0
0, 0
0, 0
0, 0
0, 0
0, 0
0, 0
0, 0
0, 0
0, 0
0, 0
0, 0
0, 0
0, 0
0, 0
0, 0
0, 0
0, 0
0, 0
0, 0
0, 0
0, 0
0, 0
0, 0
0, 0
0, 0
0, 0
0, 0
0, 0
0, 0
0, 0
0, 0
0, 0
0, 0
0, 0
0, 0
0, 0
0, 0
0, 0
0, 0
0, 0
0, 0
0, 0
0, 0
0, 0
0, 0
0, 0
0, 0
0, 0
0, 0
0, 0
0, 0
0, 0
0, 0
0, 0
0, 0
0, 0
0, 0
0, 0
0, 0
0, 0
0, 0
0, 0
0, 0
0, 0
0, 0
0, 0
0, 0
0, 0
0, 0
0, 0
0, 0
0, 0
0, 0
0, 0
0, 0
0, 0
0, 0
0, 0
0, 0
0, 0
0, 0
0, 0
0, 0
0, 0
0, 0
0, 0
0, 0
0, 0
0, 0
0, 0
0, 0
0, 0
0, 0
0, 0
0, 0
0, 0
0, 0
0, 0
0, 0
0, 0
0, 0
0, 0
0, 0
0, 0
0, 0
0, 0
0, 0
0, 0
0, 0
0, 0
0, 0
0, 0
0, 0
0, 0
0, 0
0, 0
0, 0
0, 0
0, 0
0, 0
0, 0
0, 0
0, 0
0, 0
0, 0
0, 0
0, 0
0, 0
0, 0
0, 0
0, 0
0, 0
0, 0
0, 0
0, 0
0, 0
0, 0
0, 0
0, 0
0, 0
0, 0
0, 0
0, 0
0, 0
0, 0
0, 0
0, 0
0, 0
0, 0
0, 0
0, 0
0, 0
0, 0
0, 0
0, 0
0, 0
0, 0
0, 0
0, 0
0, 0
0, 0
0, 0
0, 0
0, 0
0, 0
0, 0
0, 0
0, 0
0, 0
0, 0
0, 0
0, 0
0, 0
0, 0
0, 0
0, 0
0, 0
0, 0
0, 0
0, 0
0, 0
0, 0
0, 0
0, 0
0, 0
0, 0
0, 0
0, 0
0, 0
0, 0
0, 0
0, 0
0, 0
0, 0
0, 0
0, 0
0, 0
0, 0
0, 0
0, 0
0, 0
0, 0
0, 0
0, 0
0, 0
0, 0
0, 0
0, 0
0, 0
0, 0
0, 0
0, 0
0, 0
0, 0
0, 0
0, 0
0, 0
0, 0
0, 0
0, 0
0, 0
0, 0
0, 0
0, 0
0, 0
0, 0
0, 0
0, 0
0, 0
0, 0
0, 0
0, 0
0, 0
0, 0
0, 0
0, 0
0, 0
0, 0
0, 0
0, 0
0, 0
0, 0
0, 0
0, 0
0, 0
0, 0
0, 0
0, 0
0, 0
0, 0
0, 0
#ENDOFDATA     end of spectrum data