File: host_upload/06-09-2024/ps_0852/dump3/ps__0852shot_2064.msa
#FORMAT      : EMSA/MAS spectral data file
#VERSION     : TC202v2.0 PIXL
#TITLE       : N/A
#DATE        :       Date in the format DD-MMM-YYYY, for example 07-JUL-2010
#TIME        :             The time of day at which the spectrum was recorded, in 24-hour format
#OWNER       : PIXL Flight Model       (PIXL will use this to indicate which instrument took the data.)
#NPOINTS     : 4096     Number of data points in the spectrum (This can be zero for configuration only files)
#NCOLUMNS    : 2     Number of data columns in the spectrum (This can be zero for configuration only files)
#XUNITS      : eV
#YUNITS      : COUNTS
#DATATYPE    : YY
#XPERCHAN    : 7.862, 7.881   eV per channel (separate by commas if more than one detector)
#OFFSET      : 18.5, -22.4         eV of first channel  (separate by commas if more than one detector
#SIGNALTYPE  : XRF
#YP_TEMP     : 2.46
#LIVETIME    : 8.54602, 8.54655   seconds (separate by commas if more than one detector)
#REALTIME    : 10, 10.0   seconds (separate by commas if more than one detector)
#SPECTRUM    : start of spectrum data
0, 0
0, 0
0, 0
0, 0
0, 0
0, 0
0, 0
0, 0
0, 0
0, 0
0, 0
0, 0
0, 0
0, 0
0, 0
0, 0
0, 0
0, 0
0, 0
0, 0
0, 0
0, 0
0, 0
0, 0
0, 0
0, 0
0, 0
0, 0
0, 0
0, 0
0, 0
0, 0
0, 0
0, 0
0, 0
0, 0
1, 0
1, 1
0, 0
1, 0
0, 1
0, 0
0, 1
2, 1
1, 0
2, 1
0, 1
2, 5
5, 6
8, 13
20, 24
45, 36
52, 48
73, 72
86, 78
74, 61
42, 59
40, 41
24, 28
11, 18
12, 9
7, 3
7, 4
5, 2
6, 4
3, 1
5, 4
10, 10
25, 24
53, 61
105, 107
174, 166
267, 262
338, 343
400, 422
488, 459
386, 337
288, 286
203, 226
121, 115
73, 80
44, 38
16, 20
13, 9
5, 2
8, 3
5, 1
5, 3
1, 0
2, 4
2, 0
2, 1
4, 1
6, 5
7, 2
8, 6
4, 6
8, 2
14, 13
14, 11
13, 7
13, 6
3, 8
7, 6
3, 3
7, 3
9, 7
4, 4
7, 8
11, 8
20, 20
22, 25
23, 26
30, 34
24, 28
28, 28
25, 24
18, 19
23, 17
20, 22
24, 20
19, 16
18, 16
14, 19
11, 14
13, 11
11, 7
15, 8
7, 6
11, 7
2, 4
4, 2
4, 2
0, 0
3, 0
3, 3
2, 3
3, 3
4, 4
3, 5
1, 7
2, 1
0, 3
1, 3
0, 2
2, 2
2, 3
5, 1
1, 2
2, 1
1, 4
3, 1
12, 12
16, 10
16, 12
27, 23
30, 28
29, 28
21, 24
26, 23
26, 16
11, 10
14, 10
7, 6
3, 4
6, 2
4, 3
10, 1
5, 3
12, 3
17, 8
15, 3
36, 9
33, 4
48, 3
57, 7
56, 4
97, 4
74, 12
95, 2
86, 3
78, 3
50, 2
40, 3
26, 3
14, 1
9, 3
8, 4
10, 5
5, 5
6, 9
12, 11
8, 15
14, 13
10, 6
9, 9
13, 11
13, 10
14, 11
9, 13
6, 19
8, 4
4, 6
7, 4
9, 7
10, 5
11, 5
7, 3
20, 3
20, 3
24, 8
31, 7
24, 8
35, 2
26, 2
28, 3
28, 4
20, 6
8, 9
10, 9
4, 4
3, 2
3, 4
3, 14
7, 13
8, 20
13, 29
10, 23
11, 22
17, 28
13, 32
14, 43
22, 29
14, 22
17, 24
14, 15
16, 15
8, 20
7, 31
5, 33
10, 56
6, 87
7, 75
10, 96
11, 89
19, 108
23, 98
26, 92
43, 89
58, 85
57, 64
49, 76
51, 57
53, 51
43, 49
29, 36
28, 28
34, 17
24, 18
18, 7
20, 34
24, 27
53, 56
79, 126
155, 203
286, 385
498, 584
768, 916
1149, 1286
1497, 1784
1956, 2075
2199, 2364
2385, 2485
2320, 2147
2152, 1923
1795, 1593
1350, 1168
907, 788
638, 486
361, 314
201, 166
114, 101
73, 57
26, 39
20, 24
14, 21
12, 20
17, 22
19, 13
20, 24
24, 32
28, 45
33, 52
70, 63
100, 112
131, 187
210, 229
249, 268
303, 336
323, 344
355, 360
363, 295
322, 318
282, 215
198, 145
131, 83
92, 72
56, 42
34, 24
25, 21
7, 15
6, 6
15, 11
18, 7
17, 8
25, 13
15, 20
31, 13
33, 20
23, 17
37, 17
34, 15
24, 15
18, 15
26, 18
11, 16
10, 14
13, 11
8, 11
11, 4
4, 5
7, 3
2, 1
3, 7
2, 4
6, 5
1, 4
2, 4
1, 3
5, 4
2, 3
1, 7
7, 7
8, 7
7, 6
5, 6
5, 4
2, 6
6, 2
7, 5
11, 8
13, 0
11, 7
16, 5
9, 4
11, 8
18, 3
8, 4
6, 5
7, 3
11, 4
7, 4
6, 7
7, 5
3, 4
3, 7
7, 3
5, 6
5, 7
3, 4
5, 5
4, 7
6, 4
5, 3
1, 8
2, 3
3, 3
2, 5
3, 4
5, 2
4, 3
6, 6
9, 5
8, 6
8, 4
9, 2
6, 4
3, 6
6, 6
12, 6
1, 3
2, 6
5, 4
3, 7
6, 2
3, 1
2, 3
6, 3
2, 3
0, 4
2, 4
2, 4
3, 4
3, 2
3, 4
3, 3
1, 4
4, 1
0, 2
1, 1
3, 4
1, 4
5, 2
2, 3
1, 2
1, 3
4, 1
3, 5
4, 1
6, 4
9, 4
4, 1
3, 3
5, 4
4, 4
4, 7
4, 3
4, 3
5, 7
3, 3
4, 4
5, 5
5, 8
2, 2
2, 4
2, 3
3, 4
1, 1
0, 7
0, 1
1, 1
1, 6
6, 1
2, 4
3, 1
2, 3
2, 1
4, 3
5, 5
2, 5
1, 2
7, 2
2, 3
2, 1
0, 3
3, 5
5, 4
4, 3
2, 6
5, 2
1, 2
2, 4
2, 3
5, 4
2, 3
2, 2
4, 2
3, 5
1, 1
2, 1
5, 2
3, 3
2, 1
3, 4
1, 2
0, 3
2, 5
2, 1
3, 1
2, 2
5, 1
4, 4
5, 3
0, 2
0, 1
2, 2
0, 3
5, 2
3, 2
3, 1
0, 8
2, 3
2, 5
3, 4
1, 3
3, 2
1, 0
2, 3
2, 3
4, 2
3, 1
4, 1
1, 3
0, 1
3, 2
2, 1
2, 3
1, 0
1, 0
0, 1
2, 1
0, 1
1, 2
1, 0
2, 1
4, 1
1, 3
1, 2
2, 3
4, 4
1, 1
3, 2
0, 1
1, 3
4, 1
2, 2
3, 2
4, 3
1, 0
3, 3
3, 2
3, 1
4, 3
2, 0
1, 4
1, 1
3, 2
2, 1
4, 4
3, 3
3, 7
5, 2
4, 3
5, 2
8, 2
3, 0
2, 3
3, 3
5, 2
2, 3
4, 3
3, 1
2, 1
4, 2
2, 0
1, 0
0, 1
1, 4
0, 1
1, 4
4, 1
1, 1
2, 0
0, 1
1, 2
1, 3
1, 2
0, 0
1, 1
2, 4
4, 4
2, 0
2, 0
1, 1
0, 2
1, 1
0, 1
2, 4
1, 2
4, 2
0, 2
0, 0
1, 0
1, 0
1, 3
2, 1
0, 0
1, 1
1, 2
1, 0
2, 0
3, 0
0, 2
1, 0
0, 3
0, 2
1, 2
2, 1
0, 0
2, 2
2, 2
0, 2
3, 2
0, 0
2, 0
1, 1
1, 0
0, 1
2, 0
0, 1
1, 2
1, 3
1, 1
2, 0
0, 0
1, 0
1, 0
2, 0
1, 0
1, 2
2, 1
1, 1
2, 0
0, 1
0, 1
1, 1
2, 0
0, 0
2, 0
1, 2
1, 0
1, 0
2, 3
0, 0
0, 1
0, 1
1, 0
0, 0
0, 2
0, 2
0, 0
1, 0
0, 1
2, 0
0, 1
0, 0
0, 0
0, 2
1, 1
1, 0
3, 0
0, 0
0, 2
1, 0
2, 0
0, 1
2, 0
0, 0
1, 1
2, 1
2, 0
0, 1
0, 0
0, 1
1, 0
2, 1
0, 0
1, 2
0, 0
0, 1
0, 1
0, 1
0, 1
1, 1
0, 0
0, 1
2, 1
2, 1
0, 0
0, 0
0, 0
0, 2
0, 0
0, 1
0, 1
0, 0
0, 0
0, 1
0, 2
0, 1
0, 1
1, 0
0, 0
1, 0
0, 0
1, 1
0, 1
0, 0
0, 1
0, 0
0, 0
0, 0
2, 0
1, 0
0, 2
0, 0
0, 0
1, 2
0, 1
0, 0
0, 0
0, 0
0, 0
0, 0
0, 0
1, 0
0, 0
0, 0
0, 1
1, 0
0, 0
0, 0
0, 0
0, 0
0, 0
0, 0
0, 1
1, 0
1, 1
0, 1
0, 0
2, 1
2, 0
1, 0
0, 0
1, 0
3, 0
0, 0
0, 0
1, 0
0, 0
0, 1
0, 0
0, 0
1, 0
1, 0
0, 0
0, 0
1, 0
0, 0
1, 0
0, 1
0, 1
0, 0
0, 0
0, 2
0, 0
0, 0
0, 1
0, 0
0, 0
1, 0
0, 0
0, 0
0, 0
0, 0
0, 1
0, 1
0, 0
0, 0
1, 0
0, 0
0, 0
0, 1
0, 1
1, 0
0, 0
0, 1
0, 0
0, 1
0, 0
1, 0
0, 0
1, 0
0, 0
0, 0
1, 0
0, 0
0, 0
0, 0
0, 2
0, 0
0, 0
0, 0
0, 0
1, 0
0, 0
0, 1
0, 1
0, 1
0, 0
0, 2
0, 0
0, 0
0, 0
0, 0
0, 0
1, 0
0, 0
0, 1
2, 1
0, 0
0, 0
2, 0
0, 0
0, 1
0, 0
0, 0
0, 0
1, 0
0, 0
3, 0
0, 0
1, 0
0, 0
0, 0
1, 0
1, 0
0, 0
0, 0
0, 0
0, 0
0, 0
0, 0
0, 0
0, 0
0, 1
0, 0
0, 0
0, 1
0, 0
0, 0
0, 1
0, 0
0, 0
0, 0
0, 0
0, 0
0, 0
0, 1
0, 0
0, 0
0, 0
1, 0
1, 0
1, 0
0, 0
1, 0
0, 0
0, 0
0, 0
0, 0
0, 1
0, 0
0, 0
0, 0
1, 0
0, 0
0, 0
0, 0
0, 0
0, 0
0, 0
0, 0
0, 0
0, 0
0, 1
0, 0
0, 0
0, 0
0, 0
0, 0
0, 0
0, 1
1, 0
0, 0
0, 0
0, 0
0, 0
0, 0
0, 0
0, 0
1, 0
0, 0
0, 0
0, 0
0, 0
0, 0
0, 0
0, 0
0, 0
0, 0
0, 0
0, 0
0, 0
0, 0
0, 0
0, 0
0, 0
0, 0
0, 0
0, 0
0, 0
0, 0
0, 0
0, 1
0, 0
0, 0
0, 0
0, 0
0, 0
0, 0
0, 0
0, 0
0, 0
0, 1
0, 0
0, 0
0, 0
0, 0
0, 0
0, 0
0, 0
0, 0
0, 0
0, 0
0, 0
0, 0
0, 0
0, 0
0, 0
0, 0
0, 0
0, 0
0, 0
0, 0
0, 0
0, 0
0, 0
0, 0
0, 0
0, 0
0, 0
0, 1
0, 0
0, 0
0, 0
1, 0
0, 0
0, 0
1, 0
0, 0
0, 0
0, 0
0, 0
0, 0
0, 0
0, 1
0, 0
0, 0
0, 0
0, 0
0, 0
0, 0
0, 0
0, 0
0, 0
0, 0
0, 0
0, 0
0, 0
0, 0
0, 1
0, 0
0, 0
0, 0
0, 0
0, 0
0, 0
0, 0
0, 0
0, 0
0, 1
0, 0
0, 0
0, 0
0, 0
0, 0
0, 0
0, 0
0, 0
0, 0
0, 0
0, 0
0, 0
0, 0
0, 0
0, 0
0, 0
0, 0
0, 0
0, 0
0, 0
0, 0
0, 0
0, 0
0, 0
0, 0
0, 0
0, 0
0, 0
0, 0
0, 0
0, 0
0, 0
0, 0
0, 0
0, 0
0, 0
0, 0
0, 0
0, 0
0, 0
0, 0
0, 0
0, 0
0, 0
0, 0
0, 0
0, 0
0, 0
0, 0
1, 0
0, 0
0, 0
0, 0
0, 0
0, 0
0, 0
0, 0
0, 0
0, 0
0, 0
0, 0
0, 0
0, 0
0, 0
0, 0
0, 0
0, 0
0, 0
0, 0
0, 0
0, 0
0, 0
0, 0
0, 0
0, 0
0, 0
0, 0
0, 0
0, 0
0, 0
0, 0
0, 0
0, 0
0, 0
0, 0
0, 0
0, 0
0, 0
0, 0
0, 0
0, 0
0, 0
0, 0
0, 0
0, 0
0, 0
0, 0
0, 0
0, 0
0, 0
0, 0
0, 0
0, 0
0, 0
0, 0
0, 0
0, 0
0, 0
0, 0
0, 0
0, 0
0, 0
0, 0
0, 0
0, 0
0, 0
0, 0
0, 0
0, 0
0, 0
0, 0
0, 0
0, 0
0, 0
0, 0
0, 0
0, 0
0, 0
0, 0
0, 0
0, 0
0, 0
0, 0
0, 0
0, 0
0, 0
0, 0
0, 0
0, 0
0, 0
0, 0
0, 0
0, 0
0, 0
0, 0
0, 0
0, 0
0, 0
0, 0
0, 0
0, 0
0, 0
0, 0
0, 0
0, 0
0, 0
0, 0
0, 0
0, 0
0, 0
0, 0
0, 0
0, 0
0, 0
0, 0
0, 0
0, 0
0, 0
0, 0
0, 0
0, 0
0, 0
0, 0
0, 0
0, 0
0, 0
0, 0
0, 0
0, 0
0, 0
0, 0
0, 0
0, 0
0, 0
0, 0
0, 0
0, 0
0, 0
0, 0
0, 0
0, 0
0, 0
0, 0
0, 0
0, 0
0, 0
0, 0
0, 0
0, 0
0, 0
0, 0
0, 0
0, 0
0, 0
0, 0
0, 0
0, 0
0, 0
0, 0
0, 0
0, 0
0, 0
0, 0
0, 0
0, 0
0, 0
0, 0
0, 0
0, 0
0, 0
0, 0
0, 0
0, 0
0, 0
0, 0
0, 0
0, 0
0, 0
0, 0
0, 0
0, 0
0, 0
0, 0
0, 0
0, 0
0, 0
0, 0
0, 0
0, 0
0, 0
0, 0
0, 0
0, 0
0, 0
0, 0
0, 0
0, 0
0, 0
0, 0
0, 0
0, 0
0, 0
0, 0
0, 0
0, 0
0, 0
0, 0
0, 0
0, 0
0, 0
0, 0
0, 0
0, 0
0, 0
0, 0
0, 0
0, 0
0, 0
0, 0
0, 0
0, 0
0, 0
0, 0
0, 0
0, 0
0, 0
0, 0
0, 0
0, 0
0, 0
0, 0
0, 0
0, 0
0, 0
0, 0
0, 0
0, 0
0, 0
0, 0
0, 0
0, 0
0, 0
0, 0
0, 0
0, 0
0, 0
0, 0
0, 0
0, 0
0, 0
0, 0
0, 0
0, 0
0, 0
0, 0
0, 0
0, 0
0, 0
0, 0
0, 0
0, 0
0, 0
0, 0
0, 0
0, 0
0, 0
0, 0
0, 0
0, 0
0, 0
0, 0
0, 0
0, 0
0, 0
0, 0
0, 0
0, 0
0, 0
0, 0
0, 0
0, 0
0, 0
0, 0
0, 0
0, 0
0, 0
0, 0
0, 0
0, 0
0, 0
0, 0
0, 0
0, 0
0, 0
0, 0
0, 0
0, 0
0, 0
0, 0
0, 0
0, 0
0, 0
0, 0
0, 0
0, 0
0, 0
0, 0
0, 0
0, 0
0, 0
0, 0
0, 0
0, 0
0, 0
0, 0
0, 0
0, 0
0, 0
0, 0
0, 0
0, 0
0, 0
0, 0
#ENDOFDATA     end of spectrum data