File: host_upload/06-09-2024/ps_0852/dump3/ps__0852shot_2513.msa
#FORMAT      : EMSA/MAS spectral data file
#VERSION     : TC202v2.0 PIXL
#TITLE       : N/A
#DATE        :       Date in the format DD-MMM-YYYY, for example 07-JUL-2010
#TIME        :             The time of day at which the spectrum was recorded, in 24-hour format
#OWNER       : PIXL Flight Model       (PIXL will use this to indicate which instrument took the data.)
#NPOINTS     : 4096     Number of data points in the spectrum (This can be zero for configuration only files)
#NCOLUMNS    : 2     Number of data columns in the spectrum (This can be zero for configuration only files)
#XUNITS      : eV
#YUNITS      : COUNTS
#DATATYPE    : YY
#XPERCHAN    : 7.862, 7.881   eV per channel (separate by commas if more than one detector)
#OFFSET      : 18.5, -22.4         eV of first channel  (separate by commas if more than one detector
#SIGNALTYPE  : XRF
#YP_TEMP     : 2.3
#LIVETIME    : 8.54849, 8.56817   seconds (separate by commas if more than one detector)
#REALTIME    : 10, 10.0   seconds (separate by commas if more than one detector)
#SPECTRUM    : start of spectrum data
0, 0
0, 0
0, 0
0, 0
0, 0
0, 0
0, 0
0, 0
0, 0
0, 0
0, 0
0, 0
0, 0
0, 0
0, 0
0, 0
0, 0
0, 0
0, 0
0, 0
0, 0
0, 0
0, 0
0, 0
0, 0
0, 0
0, 0
0, 0
0, 0
0, 0
0, 0
0, 0
0, 0
1, 1
0, 0
1, 0
0, 0
0, 0
1, 0
0, 3
1, 0
1, 0
2, 2
1, 1
1, 1
2, 1
5, 1
4, 6
4, 2
14, 14
22, 28
44, 40
63, 70
83, 64
97, 64
95, 65
70, 68
62, 44
27, 21
15, 9
8, 13
5, 3
4, 2
1, 2
1, 0
1, 5
4, 8
14, 12
19, 22
52, 43
105, 86
199, 175
260, 254
357, 360
433, 445
425, 391
388, 356
339, 275
223, 178
122, 134
72, 76
38, 24
18, 13
12, 12
7, 1
4, 3
4, 2
1, 1
2, 0
1, 3
1, 2
3, 0
3, 2
4, 2
5, 5
6, 11
7, 9
7, 15
15, 18
15, 14
14, 15
14, 21
8, 10
8, 4
9, 5
8, 5
7, 7
8, 9
6, 11
14, 12
15, 15
19, 17
26, 31
36, 40
37, 44
50, 41
52, 48
40, 37
34, 32
24, 27
15, 23
19, 23
19, 18
19, 22
13, 17
10, 6
8, 8
5, 14
7, 4
3, 9
4, 4
7, 3
5, 1
5, 4
1, 3
4, 1
0, 4
3, 1
1, 4
2, 2
2, 1
2, 0
0, 2
1, 4
2, 1
1, 1
6, 3
3, 4
3, 2
2, 3
2, 6
7, 4
8, 9
10, 6
8, 18
15, 17
14, 13
21, 10
17, 18
15, 8
17, 8
9, 6
4, 7
8, 7
3, 3
4, 6
4, 2
5, 3
6, 3
1, 7
3, 4
4, 7
4, 11
8, 8
2, 4
4, 8
5, 3
6, 2
7, 6
2, 5
7, 5
2, 4
4, 2
8, 5
3, 3
1, 4
3, 3
5, 2
5, 8
4, 8
14, 10
12, 7
4, 9
14, 11
10, 8
10, 18
11, 13
14, 18
22, 19
15, 12
9, 14
10, 13
6, 13
9, 9
7, 21
5, 27
7, 38
5, 45
5, 52
7, 43
8, 42
12, 52
6, 45
7, 37
8, 34
4, 25
4, 15
3, 10
3, 8
6, 8
4, 10
7, 2
3, 7
4, 9
19, 8
11, 15
16, 9
16, 8
18, 12
30, 13
36, 15
34, 15
37, 12
27, 14
24, 17
22, 7
19, 11
8, 5
11, 9
9, 7
9, 9
10, 14
11, 14
9, 5
18, 16
20, 24
28, 33
41, 43
51, 56
47, 65
47, 62
68, 80
62, 45
51, 45
50, 40
23, 35
36, 21
25, 20
23, 13
24, 16
18, 18
35, 27
32, 45
89, 101
175, 176
309, 361
498, 627
826, 918
1180, 1309
1651, 1746
2057, 2147
2483, 2324
2545, 2437
2485, 2274
2274, 1918
1890, 1488
1471, 1035
1011, 690
653, 478
394, 254
224, 143
112, 89
87, 54
37, 36
27, 28
29, 20
17, 21
12, 14
19, 28
15, 21
17, 22
28, 31
47, 47
77, 88
88, 135
163, 188
240, 239
267, 275
315, 324
370, 331
399, 346
309, 315
300, 283
244, 221
213, 167
115, 117
96, 68
47, 35
32, 22
19, 12
17, 9
11, 6
10, 6
13, 17
7, 13
11, 13
19, 12
24, 24
14, 18
16, 23
19, 17
13, 14
11, 9
12, 8
15, 4
9, 3
6, 4
4, 2
4, 2
6, 7
4, 7
4, 3
3, 5
4, 3
5, 3
1, 6
0, 3
6, 3
8, 2
9, 6
7, 5
5, 2
2, 5
5, 5
5, 5
5, 6
4, 3
4, 10
4, 7
7, 5
7, 5
3, 5
2, 2
9, 10
7, 5
2, 6
2, 2
2, 2
2, 4
1, 0
4, 0
3, 0
2, 7
9, 2
9, 4
8, 4
7, 7
9, 8
8, 4
4, 5
9, 4
8, 3
10, 5
10, 3
11, 4
10, 0
9, 3
3, 6
3, 6
11, 4
1, 5
4, 3
4, 4
5, 4
5, 7
1, 4
3, 4
5, 4
6, 4
8, 4
5, 5
8, 6
2, 6
7, 2
6, 2
2, 7
3, 1
2, 1
4, 4
4, 1
3, 2
3, 3
5, 5
6, 7
0, 1
3, 8
1, 2
1, 6
4, 1
5, 0
5, 5
3, 3
4, 5
9, 3
8, 3
4, 0
1, 9
7, 7
4, 11
7, 8
3, 5
8, 9
5, 3
3, 6
9, 5
3, 6
5, 3
5, 7
3, 4
1, 2
3, 3
1, 1
4, 1
4, 3
1, 1
1, 1
1, 2
5, 3
1, 3
3, 2
3, 3
0, 1
2, 2
2, 1
2, 2
3, 2
4, 1
1, 6
3, 2
2, 1
3, 2
1, 2
2, 4
4, 2
1, 3
0, 4
2, 4
7, 2
10, 2
7, 5
7, 4
6, 2
4, 3
6, 1
10, 2
4, 1
7, 4
11, 1
5, 1
5, 3
5, 4
2, 3
4, 1
3, 5
3, 2
2, 2
2, 2
1, 0
3, 3
2, 0
4, 3
2, 3
1, 1
0, 1
0, 5
1, 5
2, 2
2, 3
0, 4
1, 2
3, 2
3, 4
0, 6
1, 4
1, 4
2, 2
3, 3
1, 6
2, 5
4, 1
7, 3
0, 3
3, 4
1, 1
5, 3
0, 0
2, 3
0, 0
2, 2
1, 0
4, 6
2, 0
3, 2
1, 4
1, 1
3, 1
3, 5
4, 3
1, 4
2, 0
4, 2
1, 4
0, 2
3, 3
1, 1
3, 6
0, 2
2, 1
3, 3
1, 3
2, 1
0, 1
0, 2
1, 2
4, 2
1, 1
2, 3
2, 6
3, 5
3, 4
3, 6
4, 1
5, 5
7, 7
7, 2
9, 2
6, 3
4, 1
2, 2
2, 1
3, 2
3, 3
1, 1
0, 3
2, 1
5, 3
1, 0
2, 0
5, 5
5, 2
1, 4
3, 4
1, 6
2, 1
5, 2
4, 2
2, 1
2, 4
2, 4
2, 1
1, 3
2, 1
5, 1
3, 0
3, 0
2, 3
0, 1
1, 2
1, 2
0, 4
5, 0
0, 1
0, 0
2, 0
1, 1
0, 2
1, 2
0, 1
1, 0
1, 0
1, 0
0, 0
1, 1
1, 4
2, 3
2, 1
0, 2
1, 0
0, 1
0, 1
1, 0
2, 1
2, 2
0, 2
2, 1
0, 1
0, 0
2, 1
0, 1
4, 1
1, 0
0, 4
3, 0
1, 1
1, 2
0, 0
0, 0
1, 1
1, 2
0, 1
1, 0
1, 0
0, 0
1, 1
2, 0
0, 2
0, 1
1, 0
0, 1
1, 2
1, 0
0, 1
0, 2
0, 0
0, 1
0, 2
0, 1
0, 0
0, 1
2, 2
0, 0
0, 0
0, 0
0, 0
2, 0
1, 0
0, 1
0, 0
1, 0
3, 0
0, 0
1, 1
0, 0
0, 0
1, 0
0, 1
1, 0
0, 1
1, 1
2, 0
3, 0
0, 1
0, 0
1, 0
0, 1
0, 2
1, 0
0, 1
2, 1
0, 0
1, 0
0, 0
0, 0
0, 1
0, 0
0, 1
0, 1
2, 0
2, 0
2, 0
0, 0
1, 0
1, 3
1, 0
1, 0
0, 0
0, 0
1, 0
0, 0
0, 1
0, 0
0, 2
1, 0
0, 0
1, 1
0, 0
0, 0
0, 0
0, 1
0, 1
0, 0
0, 1
2, 0
0, 0
0, 1
0, 1
0, 0
1, 0
1, 0
0, 0
0, 1
0, 1
0, 0
0, 0
2, 0
0, 0
1, 0
0, 0
0, 2
0, 1
1, 0
0, 0
0, 0
1, 2
0, 0
1, 0
0, 0
2, 0
1, 0
1, 0
2, 0
0, 0
0, 1
0, 0
1, 0
1, 0
0, 1
1, 1
1, 0
1, 0
2, 1
1, 0
2, 1
0, 0
0, 0
0, 0
1, 1
0, 0
0, 1
1, 0
1, 0
1, 0
1, 0
0, 0
0, 0
0, 0
0, 0
0, 1
1, 0
0, 0
0, 0
0, 0
2, 0
1, 0
0, 1
0, 1
0, 1
1, 0
1, 1
0, 1
0, 0
0, 0
0, 1
0, 1
0, 0
0, 0
1, 0
0, 0
0, 0
0, 0
0, 0
0, 1
0, 0
0, 0
0, 0
0, 1
0, 0
0, 0
0, 0
1, 0
0, 0
0, 0
0, 0
0, 0
0, 0
0, 0
0, 0
0, 2
0, 1
0, 2
0, 0
2, 0
0, 0
0, 0
0, 0
0, 0
0, 0
0, 0
2, 1
0, 0
0, 0
1, 0
0, 0
0, 2
0, 0
0, 0
0, 0
0, 0
0, 0
1, 0
0, 0
0, 0
0, 0
0, 1
0, 0
0, 0
1, 0
0, 0
0, 0
0, 0
0, 1
0, 0
0, 0
0, 0
0, 0
1, 0
0, 0
0, 0
0, 0
0, 0
0, 0
0, 0
0, 0
0, 0
0, 0
0, 0
0, 1
0, 0
0, 0
1, 0
0, 0
0, 0
1, 0
1, 0
0, 0
0, 1
0, 0
0, 0
0, 0
0, 0
0, 0
0, 0
0, 0
0, 1
0, 0
0, 0
0, 0
0, 0
0, 0
0, 0
0, 0
0, 0
0, 0
0, 0
0, 0
0, 0
1, 0
0, 0
0, 0
0, 0
0, 0
0, 0
0, 0
0, 0
0, 0
0, 0
0, 1
0, 0
0, 1
0, 0
0, 0
1, 0
0, 0
1, 0
0, 0
0, 1
0, 0
0, 0
0, 0
0, 0
0, 0
0, 0
0, 1
0, 0
0, 0
0, 0
0, 0
0, 0
0, 0
0, 0
1, 0
0, 0
0, 0
0, 0
0, 0
0, 0
0, 0
0, 0
1, 0
0, 0
0, 0
0, 0
0, 0
0, 0
0, 0
0, 0
0, 0
0, 0
0, 0
1, 0
0, 0
0, 0
0, 0
0, 0
0, 0
0, 0
0, 0
0, 0
0, 0
0, 0
0, 0
0, 0
0, 0
0, 0
0, 0
0, 0
0, 0
0, 0
0, 0
0, 0
0, 0
0, 0
0, 0
0, 0
0, 0
0, 0
0, 0
0, 0
0, 0
0, 0
0, 0
0, 0
0, 0
0, 0
0, 0
0, 0
0, 1
0, 0
0, 0
1, 0
0, 0
0, 0
0, 0
0, 0
0, 0
0, 0
0, 0
0, 0
0, 0
0, 0
0, 0
0, 0
0, 0
0, 0
0, 0
0, 0
0, 0
0, 0
0, 0
0, 0
0, 0
0, 0
0, 0
0, 0
0, 0
0, 0
0, 0
0, 0
0, 0
0, 0
0, 0
0, 0
0, 0
0, 0
0, 0
0, 0
0, 0
0, 0
0, 0
0, 0
0, 0
0, 0
0, 0
0, 0
0, 0
0, 0
0, 0
0, 0
0, 0
0, 0
0, 0
0, 0
0, 0
0, 0
0, 0
0, 0
0, 0
0, 0
0, 0
0, 0
0, 0
0, 0
0, 0
0, 0
0, 0
0, 0
0, 0
0, 0
0, 0
0, 0
0, 0
0, 0
0, 0
0, 0
0, 0
0, 0
0, 0
0, 0
0, 0
0, 0
0, 0
0, 0
0, 0
0, 0
0, 0
0, 0
0, 0
0, 0
0, 0
0, 0
0, 0
0, 0
0, 0
0, 0
0, 0
0, 0
0, 0
0, 0
0, 0
0, 0
0, 0
0, 0
1, 0
0, 0
0, 0
0, 0
0, 0
0, 0
0, 0
0, 0
0, 0
0, 0
0, 0
0, 0
0, 0
0, 0
0, 0
0, 0
0, 0
0, 0
0, 0
0, 0
0, 0
0, 0
0, 0
1, 0
1, 0
0, 0
0, 0
0, 0
0, 0
0, 0
0, 0
0, 0
0, 0
0, 0
0, 0
0, 0
0, 0
0, 0
0, 0
0, 0
0, 0
0, 0
0, 0
0, 0
0, 0
0, 0
0, 0
0, 0
0, 0
0, 0
0, 0
0, 0
0, 0
0, 0
0, 0
1, 0
0, 0
0, 0
0, 0
0, 0
0, 0
0, 0
0, 0
0, 0
0, 0
0, 0
0, 0
0, 0
0, 0
0, 0
0, 0
0, 0
0, 0
0, 0
0, 0
0, 0
0, 0
0, 0
0, 0
0, 0
0, 0
0, 0
0, 0
0, 0
0, 0
0, 0
0, 0
0, 0
0, 0
0, 0
0, 0
0, 0
0, 0
0, 0
0, 0
0, 0
0, 0
0, 0
0, 0
0, 0
0, 0
0, 0
0, 0
0, 0
0, 0
0, 0
0, 0
0, 0
0, 0
0, 0
0, 0
0, 0
0, 0
0, 0
0, 0
0, 0
0, 0
0, 0
0, 0
0, 0
0, 0
0, 0
0, 0
0, 0
0, 0
0, 0
0, 0
0, 0
0, 0
0, 0
0, 0
0, 0
0, 0
0, 0
0, 0
0, 0
0, 0
0, 0
0, 0
0, 0
0, 0
0, 0
0, 0
0, 0
0, 0
0, 0
0, 0
0, 0
0, 0
0, 0
0, 0
0, 0
0, 0
0, 0
0, 0
0, 0
0, 0
0, 0
0, 0
0, 0
0, 0
0, 0
0, 0
0, 0
0, 0
0, 0
0, 0
0, 0
0, 0
0, 0
0, 0
0, 0
0, 0
0, 0
0, 0
0, 0
0, 0
0, 0
0, 0
0, 0
0, 0
0, 0
0, 0
0, 0
0, 0
0, 0
0, 0
0, 0
0, 0
0, 0
0, 0
0, 0
0, 0
0, 0
0, 0
0, 0
0, 0
0, 0
0, 0
0, 0
0, 0
0, 0
0, 0
0, 0
0, 0
0, 0
0, 0
0, 0
0, 0
0, 0
0, 0
0, 0
0, 0
0, 0
0, 0
0, 0
0, 0
0, 0
0, 0
0, 0
0, 0
0, 0
0, 0
0, 0
0, 0
0, 0
0, 0
0, 0
0, 0
0, 0
0, 0
0, 0
0, 0
0, 0
0, 0
0, 0
0, 0
0, 0
0, 0
0, 0
0, 0
0, 0
0, 0
0, 0
0, 0
0, 0
0, 0
0, 0
0, 0
0, 0
0, 0
0, 0
0, 0
0, 0
0, 0
0, 0
0, 0
0, 0
0, 0
0, 0
0, 0
0, 0
0, 0
0, 0
0, 0
0, 0
0, 0
0, 0
0, 0
0, 0
0, 0
0, 0
0, 0
0, 0
0, 0
0, 0
0, 0
0, 0
0, 0
0, 0
0, 0
0, 0
0, 0
0, 0
0, 0
0, 0
0, 0
0, 0
0, 0
0, 0
0, 0
0, 0
0, 0
0, 0
#ENDOFDATA     end of spectrum data