File: host_upload/06-09-2024/ps_0852/dump3/ps__0852shot_2553.msa
#FORMAT      : EMSA/MAS spectral data file
#VERSION     : TC202v2.0 PIXL
#TITLE       : N/A
#DATE        :       Date in the format DD-MMM-YYYY, for example 07-JUL-2010
#TIME        :             The time of day at which the spectrum was recorded, in 24-hour format
#OWNER       : PIXL Flight Model       (PIXL will use this to indicate which instrument took the data.)
#NPOINTS     : 4096     Number of data points in the spectrum (This can be zero for configuration only files)
#NCOLUMNS    : 2     Number of data columns in the spectrum (This can be zero for configuration only files)
#XUNITS      : eV
#YUNITS      : COUNTS
#DATATYPE    : YY
#XPERCHAN    : 7.862, 7.881   eV per channel (separate by commas if more than one detector)
#OFFSET      : 18.5, -22.4         eV of first channel  (separate by commas if more than one detector
#SIGNALTYPE  : XRF
#YP_TEMP     : 2.46
#LIVETIME    : 8.54855, 8.54767   seconds (separate by commas if more than one detector)
#REALTIME    : 10, 10.0   seconds (separate by commas if more than one detector)
#SPECTRUM    : start of spectrum data
0, 0
0, 0
0, 0
0, 0
0, 0
0, 0
0, 0
0, 0
0, 0
0, 0
0, 0
0, 0
0, 0
0, 0
0, 0
0, 0
0, 0
0, 0
0, 0
0, 0
0, 0
0, 0
0, 0
0, 0
0, 0
0, 0
0, 0
0, 0
0, 0
0, 0
0, 0
0, 0
0, 0
1, 0
0, 0
1, 0
0, 2
2, 0
1, 1
2, 2
1, 2
0, 2
1, 0
0, 1
1, 1
1, 1
4, 3
1, 0
4, 6
17, 13
21, 23
42, 35
65, 58
83, 63
74, 72
68, 63
54, 44
44, 31
28, 19
18, 8
7, 8
6, 3
6, 5
6, 6
5, 3
4, 4
9, 0
10, 12
21, 20
53, 49
98, 89
191, 164
300, 257
358, 372
489, 428
482, 411
411, 353
308, 249
201, 182
138, 126
70, 53
40, 41
23, 13
13, 9
9, 9
8, 3
5, 5
3, 5
6, 3
5, 2
5, 0
2, 1
1, 0
4, 2
3, 4
6, 4
8, 6
7, 9
10, 7
10, 10
4, 7
7, 5
6, 1
6, 5
6, 2
10, 3
8, 7
9, 8
12, 16
24, 31
28, 36
31, 47
45, 59
66, 57
72, 70
50, 67
59, 54
42, 38
44, 43
40, 36
30, 31
31, 26
23, 20
22, 17
19, 11
17, 22
17, 15
19, 15
12, 9
6, 5
6, 5
7, 2
3, 3
2, 1
1, 0
0, 1
1, 1
2, 5
3, 6
3, 2
4, 5
2, 3
1, 2
2, 1
3, 2
4, 1
4, 2
6, 5
11, 3
14, 3
15, 7
16, 9
18, 17
34, 17
31, 30
48, 38
49, 61
58, 54
49, 36
47, 36
37, 20
25, 19
14, 12
8, 9
8, 4
2, 2
3, 2
8, 10
8, 3
8, 12
9, 5
11, 9
5, 9
12, 11
8, 7
13, 4
9, 7
2, 5
4, 4
8, 0
3, 0
9, 2
5, 4
6, 6
3, 6
4, 4
4, 4
9, 7
7, 8
7, 12
10, 10
7, 19
9, 17
3, 21
14, 15
13, 14
10, 18
8, 12
15, 20
11, 18
16, 9
8, 11
12, 10
11, 8
8, 4
1, 4
9, 4
6, 1
6, 7
7, 9
10, 0
8, 9
4, 10
5, 2
8, 5
10, 6
5, 4
5, 3
5, 4
7, 5
7, 12
6, 7
3, 4
5, 8
8, 11
12, 15
12, 27
24, 24
25, 32
24, 29
27, 44
19, 38
10, 28
12, 25
7, 26
11, 12
14, 11
5, 9
9, 9
8, 8
7, 5
12, 11
9, 9
11, 15
17, 19
18, 19
29, 46
32, 41
43, 33
62, 66
72, 79
70, 59
60, 66
64, 40
85, 34
65, 26
48, 24
46, 19
20, 20
18, 14
25, 14
33, 22
48, 58
80, 119
147, 187
268, 330
518, 601
818, 915
1212, 1272
1689, 1732
2097, 2139
2349, 2463
2609, 2531
2398, 2371
2200, 1999
1797, 1571
1359, 1145
938, 819
560, 431
370, 248
208, 162
86, 77
65, 40
36, 23
15, 11
17, 17
9, 16
17, 11
15, 11
24, 26
25, 23
42, 44
66, 49
77, 69
86, 116
167, 167
209, 246
276, 266
315, 320
346, 373
365, 374
355, 315
310, 267
211, 207
203, 139
131, 99
92, 56
60, 39
33, 16
18, 12
8, 7
12, 10
11, 5
11, 10
20, 6
18, 16
12, 12
19, 15
14, 12
19, 13
10, 7
10, 12
5, 7
11, 3
2, 6
5, 5
2, 3
11, 10
1, 6
9, 3
4, 3
2, 3
5, 5
8, 2
0, 6
3, 3
3, 4
5, 4
2, 5
4, 5
4, 4
4, 8
8, 2
2, 6
1, 2
2, 7
11, 10
3, 14
7, 5
5, 11
7, 9
8, 5
2, 9
9, 5
3, 3
5, 4
12, 6
3, 2
2, 3
3, 9
3, 5
3, 1
4, 3
2, 3
5, 3
4, 5
5, 6
5, 4
4, 5
1, 4
5, 7
4, 4
2, 4
7, 8
3, 2
4, 3
10, 2
11, 3
6, 1
16, 5
5, 3
8, 8
9, 2
18, 4
10, 4
7, 0
12, 2
10, 3
6, 6
5, 1
3, 3
5, 3
9, 4
3, 5
3, 0
1, 2
3, 2
2, 2
8, 6
7, 6
9, 2
7, 4
8, 4
7, 1
9, 4
12, 4
14, 2
6, 3
6, 2
6, 3
9, 0
3, 0
2, 3
7, 4
1, 4
5, 2
4, 3
4, 1
1, 6
4, 3
3, 6
1, 3
3, 5
7, 4
2, 3
3, 3
2, 4
3, 2
5, 0
4, 0
5, 5
2, 4
2, 5
4, 2
4, 2
5, 3
9, 7
5, 4
6, 1
4, 3
4, 1
4, 2
3, 3
3, 3
6, 1
7, 1
7, 2
10, 3
15, 2
6, 1
11, 2
13, 2
9, 3
4, 4
5, 1
6, 1
7, 3
7, 4
3, 4
4, 0
4, 6
2, 5
3, 3
3, 4
3, 5
4, 5
1, 3
2, 2
1, 3
2, 1
3, 3
0, 5
3, 6
0, 2
1, 0
2, 1
1, 3
1, 1
1, 3
1, 3
0, 2
5, 1
1, 2
4, 1
1, 1
2, 2
4, 2
3, 3
5, 0
4, 3
4, 2
7, 1
1, 0
3, 2
2, 0
1, 2
1, 2
3, 1
6, 1
1, 0
0, 1
1, 3
5, 1
3, 1
3, 1
1, 1
5, 1
1, 3
2, 1
0, 1
2, 0
1, 3
2, 0
2, 2
2, 0
1, 1
2, 0
4, 1
0, 1
3, 2
4, 3
6, 1
0, 2
1, 3
2, 1
2, 3
2, 5
0, 1
4, 1
0, 1
0, 4
4, 2
1, 5
0, 2
2, 3
4, 4
1, 7
6, 5
2, 5
10, 3
2, 5
6, 5
5, 7
3, 7
3, 3
3, 6
4, 5
3, 4
4, 0
6, 2
2, 3
3, 0
4, 2
3, 3
0, 3
4, 1
3, 2
3, 2
0, 1
2, 1
0, 3
1, 2
2, 0
0, 1
0, 0
1, 1
1, 2
6, 1
4, 2
2, 4
3, 2
2, 2
0, 0
3, 4
2, 2
0, 2
1, 3
3, 2
4, 1
1, 2
2, 3
1, 0
0, 0
1, 3
0, 0
2, 2
0, 0
0, 2
2, 1
0, 3
2, 0
2, 0
0, 1
1, 0
1, 2
2, 0
1, 1
2, 0
2, 0
0, 0
3, 0
0, 0
0, 0
2, 2
0, 2
1, 0
2, 0
0, 1
0, 2
1, 0
1, 1
2, 3
2, 3
3, 0
1, 1
0, 0
1, 0
1, 0
2, 1
1, 4
0, 0
3, 0
0, 2
1, 1
2, 2
6, 2
0, 2
0, 1
1, 0
0, 0
0, 0
2, 0
3, 0
1, 0
0, 2
0, 1
3, 0
1, 1
0, 0
0, 0
1, 1
1, 0
0, 0
0, 0
2, 0
0, 0
0, 0
0, 1
0, 2
0, 0
0, 0
0, 0
2, 2
2, 2
1, 1
0, 0
0, 2
0, 1
1, 0
1, 0
0, 1
0, 1
0, 1
0, 1
1, 0
0, 0
0, 0
0, 0
0, 1
0, 0
0, 1
0, 0
0, 0
0, 0
0, 0
0, 1
0, 0
1, 0
0, 1
1, 1
0, 1
0, 0
1, 2
0, 1
1, 0
0, 0
0, 0
1, 0
0, 1
1, 0
0, 1
1, 0
1, 1
0, 0
2, 2
1, 1
0, 0
0, 0
0, 0
0, 0
0, 1
0, 0
1, 0
1, 1
0, 0
0, 0
0, 2
1, 1
1, 0
0, 0
0, 0
0, 0
1, 0
0, 2
0, 0
0, 0
0, 1
1, 0
1, 1
1, 0
0, 0
0, 2
0, 1
0, 0
0, 0
0, 1
0, 0
0, 1
0, 0
0, 1
0, 1
0, 0
0, 0
0, 0
0, 0
0, 0
0, 2
1, 0
2, 1
1, 0
0, 1
0, 1
0, 1
1, 0
0, 2
0, 1
0, 1
0, 0
0, 0
0, 0
0, 1
0, 0
0, 1
0, 0
0, 0
1, 0
0, 0
0, 0
0, 0
2, 1
0, 0
0, 0
0, 0
0, 1
0, 1
0, 0
0, 1
0, 1
0, 0
0, 0
0, 0
0, 0
1, 0
0, 0
2, 0
0, 0
0, 0
0, 0
0, 0
0, 0
0, 0
0, 0
0, 1
0, 0
0, 0
0, 0
0, 2
0, 1
0, 1
1, 0
2, 0
0, 0
0, 0
0, 0
1, 0
0, 0
1, 0
0, 1
0, 0
0, 0
0, 0
0, 0
0, 0
0, 0
0, 0
0, 1
0, 0
0, 0
0, 0
0, 1
0, 0
1, 0
0, 0
0, 0
0, 0
0, 1
0, 0
0, 0
1, 0
0, 0
0, 0
0, 0
0, 0
0, 0
0, 1
0, 0
0, 0
0, 1
0, 0
1, 1
0, 0
1, 0
0, 0
0, 0
0, 0
0, 0
0, 0
0, 0
0, 1
0, 0
0, 0
0, 0
1, 0
0, 0
0, 0
0, 0
0, 0
0, 0
0, 0
0, 0
0, 0
0, 0
0, 0
0, 0
0, 0
0, 1
0, 0
1, 0
0, 0
0, 0
0, 1
0, 0
0, 1
0, 1
0, 0
0, 0
0, 0
0, 0
0, 0
0, 0
0, 0
0, 0
0, 0
0, 0
0, 0
0, 1
0, 0
0, 0
0, 0
0, 0
0, 0
0, 1
0, 0
0, 0
0, 0
0, 0
0, 0
0, 0
0, 0
0, 0
0, 0
0, 0
0, 0
0, 0
0, 0
0, 0
0, 0
0, 0
0, 0
0, 0
0, 0
0, 0
0, 0
0, 0
0, 0
0, 0
0, 0
0, 0
0, 0
0, 0
0, 0
1, 0
0, 0
0, 0
0, 1
0, 0
0, 0
0, 0
0, 0
0, 0
0, 0
1, 1
0, 0
0, 0
2, 0
0, 1
0, 0
0, 0
0, 0
0, 0
0, 0
0, 0
0, 0
0, 0
0, 0
0, 0
0, 0
0, 0
0, 0
1, 0
0, 0
0, 0
1, 0
0, 0
0, 0
0, 0
0, 0
0, 0
0, 0
0, 0
0, 0
0, 1
0, 0
0, 0
0, 0
0, 0
0, 0
0, 0
0, 0
0, 0
0, 0
0, 0
0, 0
0, 0
0, 1
0, 0
0, 0
0, 0
0, 0
0, 0
0, 0
0, 0
0, 0
0, 0
0, 1
0, 0
0, 0
0, 0
0, 0
0, 0
0, 0
0, 0
0, 0
0, 0
0, 0
0, 0
0, 0
1, 0
0, 0
0, 0
0, 0
0, 0
0, 0
0, 0
0, 0
0, 0
0, 0
0, 0
0, 0
0, 0
0, 1
0, 0
0, 0
0, 0
0, 0
0, 0
0, 0
0, 0
0, 0
0, 0
0, 0
0, 0
0, 0
0, 0
0, 0
0, 0
0, 0
0, 0
0, 0
0, 0
0, 0
0, 0
0, 0
0, 0
0, 0
0, 0
0, 0
0, 0
0, 0
0, 0
0, 0
0, 0
0, 0
0, 0
0, 0
0, 0
0, 0
0, 0
0, 0
1, 0
0, 0
0, 0
0, 0
0, 0
0, 0
0, 0
0, 0
0, 0
0, 0
0, 0
0, 0
0, 0
0, 0
0, 0
0, 0
0, 0
0, 0
0, 0
0, 0
0, 0
0, 0
0, 0
0, 0
0, 0
0, 0
0, 0
0, 0
0, 0
0, 0
0, 0
0, 0
0, 0
0, 0
0, 0
0, 0
0, 0
0, 0
0, 0
0, 0
0, 0
0, 0
0, 0
0, 0
0, 0
0, 0
0, 0
0, 0
0, 0
0, 0
0, 0
0, 0
0, 0
0, 0
0, 0
0, 0
0, 0
0, 0
0, 0
0, 0
0, 0
0, 0
0, 0
0, 0
0, 0
0, 0
0, 0
0, 0
0, 0
0, 0
0, 0
0, 0
0, 0
0, 0
0, 0
0, 0
0, 0
0, 0
0, 0
0, 0
0, 0
0, 0
0, 0
0, 0
0, 0
0, 0
0, 0
0, 0
0, 0
0, 0
0, 0
0, 0
0, 0
0, 0
0, 0
0, 0
0, 0
0, 0
0, 0
0, 0
0, 0
0, 0
0, 0
0, 0
0, 0
0, 0
0, 0
0, 0
0, 0
0, 0
0, 0
0, 0
0, 0
0, 0
0, 0
0, 0
0, 0
0, 0
0, 0
0, 0
0, 0
0, 0
0, 0
0, 0
0, 0
0, 0
0, 0
0, 0
0, 0
0, 0
0, 0
0, 0
0, 0
0, 0
0, 0
0, 0
0, 0
0, 0
0, 0
0, 0
0, 0
0, 0
0, 0
0, 0
0, 0
0, 0
0, 0
0, 0
0, 0
0, 0
0, 0
0, 0
0, 0
0, 0
0, 0
0, 0
0, 0
0, 0
0, 0
0, 0
0, 0
0, 0
0, 0
0, 0
0, 0
0, 0
0, 0
0, 0
0, 0
0, 0
0, 0
0, 0
0, 0
0, 0
0, 0
0, 0
0, 0
0, 0
0, 0
0, 0
0, 0
0, 0
0, 0
0, 0
0, 0
0, 0
0, 0
0, 0
0, 0
0, 0
0, 0
0, 0
0, 0
0, 0
0, 0
0, 0
0, 0
0, 0
0, 0
0, 0
0, 0
0, 0
0, 0
0, 0
0, 0
0, 0
0, 0
0, 0
0, 0
0, 0
0, 0
0, 0
0, 0
0, 0
0, 0
0, 0
0, 0
0, 0
0, 0
0, 0
0, 0
0, 0
0, 0
0, 0
0, 0
0, 0
0, 0
0, 0
0, 0
0, 0
0, 0
0, 0
0, 0
0, 0
0, 0
0, 0
0, 0
0, 0
0, 0
0, 0
0, 0
0, 0
0, 0
0, 0
0, 0
0, 0
0, 0
0, 0
0, 0
0, 0
0, 0
0, 0
0, 0
0, 0
0, 0
0, 0
0, 0
0, 0
0, 0
0, 0
0, 0
0, 0
0, 0
0, 0
0, 0
0, 0
0, 0
0, 0
0, 0
0, 0
0, 0
0, 0
0, 0
0, 0
0, 0
0, 0
0, 0
0, 0
0, 0
0, 0
0, 0
0, 0
0, 0
0, 0
0, 0
0, 0
0, 0
0, 0
0, 0
0, 0
0, 0
0, 0
0, 0
0, 0
0, 0
0, 0
0, 0
0, 0
0, 0
0, 0
0, 0
0, 0
0, 0
0, 0
0, 0
0, 0
0, 0
0, 0
0, 0
0, 0
0, 0
0, 0
0, 0
0, 0
0, 0
0, 0
0, 0
0, 0
0, 0
0, 0
0, 0
0, 0
0, 0
0, 0
0, 0
0, 0
0, 0
#ENDOFDATA     end of spectrum data