File: host_upload/06-09-2024/ps_0852/dump3/ps__0852shot_2290.msa
#FORMAT      : EMSA/MAS spectral data file
#VERSION     : TC202v2.0 PIXL
#TITLE       : N/A
#DATE        :       Date in the format DD-MMM-YYYY, for example 07-JUL-2010
#TIME        :             The time of day at which the spectrum was recorded, in 24-hour format
#OWNER       : PIXL Flight Model       (PIXL will use this to indicate which instrument took the data.)
#NPOINTS     : 4096     Number of data points in the spectrum (This can be zero for configuration only files)
#NCOLUMNS    : 2     Number of data columns in the spectrum (This can be zero for configuration only files)
#XUNITS      : eV
#YUNITS      : COUNTS
#DATATYPE    : YY
#XPERCHAN    : 7.862, 7.881   eV per channel (separate by commas if more than one detector)
#OFFSET      : 18.5, -22.4         eV of first channel  (separate by commas if more than one detector
#SIGNALTYPE  : XRF
#YP_TEMP     : 2.46
#LIVETIME    : 8.58614, 8.58661   seconds (separate by commas if more than one detector)
#REALTIME    : 10, 10.0   seconds (separate by commas if more than one detector)
#SPECTRUM    : start of spectrum data
0, 0
0, 0
0, 0
0, 0
0, 0
0, 0
0, 0
0, 0
0, 0
0, 0
0, 0
0, 0
0, 0
0, 0
0, 0
0, 0
0, 0
0, 0
0, 0
0, 0
0, 0
0, 0
0, 0
0, 0
0, 0
0, 0
0, 0
0, 0
0, 0
0, 0
0, 0
0, 1
0, 0
0, 0
0, 0
0, 0
2, 1
0, 2
1, 1
0, 1
0, 2
0, 3
2, 1
1, 1
4, 0
0, 4
2, 1
1, 0
6, 11
11, 9
15, 19
44, 35
51, 58
52, 68
82, 70
66, 62
49, 41
41, 43
27, 27
10, 9
11, 8
6, 7
3, 4
8, 7
3, 5
4, 7
5, 11
11, 7
21, 33
36, 54
111, 82
173, 170
265, 259
332, 349
405, 390
397, 396
361, 366
323, 270
204, 168
125, 102
72, 72
43, 31
15, 13
12, 7
5, 4
6, 3
0, 1
3, 4
0, 2
2, 5
2, 6
3, 5
7, 12
38, 25
37, 39
64, 76
109, 127
159, 159
168, 154
177, 170
136, 150
114, 115
86, 88
59, 62
47, 54
26, 42
15, 42
15, 44
21, 34
28, 45
24, 52
44, 61
61, 55
61, 63
63, 63
53, 70
56, 56
54, 51
39, 47
36, 48
37, 23
27, 32
26, 21
24, 21
21, 28
26, 19
18, 16
12, 11
15, 9
5, 9
5, 9
5, 5
7, 5
2, 5
1, 1
2, 3
3, 1
3, 4
0, 1
0, 1
7, 3
2, 2
1, 5
5, 3
0, 5
6, 4
2, 3
3, 2
2, 2
2, 2
5, 3
7, 3
3, 13
8, 10
16, 13
16, 23
15, 23
22, 16
17, 25
16, 18
20, 20
13, 6
7, 6
4, 11
7, 0
6, 5
0, 5
2, 1
2, 4
6, 3
8, 7
6, 11
6, 4
5, 5
7, 9
6, 4
4, 5
0, 3
2, 5
3, 7
7, 3
6, 5
3, 3
4, 3
2, 4
7, 7
4, 10
5, 5
7, 3
5, 8
11, 10
14, 14
9, 11
9, 6
14, 10
11, 20
17, 12
15, 14
16, 17
18, 12
13, 9
7, 5
10, 11
9, 6
9, 7
11, 7
11, 8
7, 13
8, 18
4, 16
8, 33
8, 23
6, 21
4, 20
7, 24
5, 14
7, 15
7, 12
7, 8
5, 5
3, 13
4, 3
10, 10
8, 10
8, 6
10, 10
6, 9
13, 15
14, 13
14, 13
14, 20
16, 17
12, 11
17, 12
14, 10
12, 4
12, 9
5, 9
4, 4
13, 7
7, 11
6, 10
3, 8
13, 17
14, 17
19, 33
23, 30
28, 57
59, 69
58, 86
49, 79
63, 99
48, 91
53, 69
42, 47
40, 46
22, 30
19, 27
22, 19
20, 15
23, 28
44, 35
45, 48
96, 69
159, 165
319, 343
510, 599
761, 887
1146, 1353
1587, 1748
2029, 2034
2379, 2390
2534, 2362
2501, 2203
2212, 1861
1864, 1566
1405, 1021
964, 716
655, 434
395, 254
245, 140
115, 82
88, 40
42, 26
15, 22
16, 13
15, 13
19, 17
16, 16
16, 24
26, 35
34, 41
55, 46
72, 78
106, 122
148, 172
201, 229
260, 233
340, 347
315, 361
396, 389
365, 336
308, 291
263, 183
205, 158
147, 119
87, 56
62, 45
29, 17
16, 14
6, 15
8, 8
10, 18
10, 9
14, 17
12, 12
5, 15
28, 18
8, 10
21, 14
13, 10
13, 10
19, 7
20, 12
20, 4
16, 3
23, 2
24, 4
22, 3
19, 0
19, 2
22, 5
11, 2
9, 1
7, 4
3, 7
1, 7
6, 2
10, 4
3, 1
3, 3
6, 3
4, 5
3, 2
7, 5
3, 8
7, 8
1, 11
1, 10
7, 15
8, 20
3, 18
4, 20
4, 17
2, 16
6, 17
6, 14
7, 11
3, 11
4, 5
7, 7
3, 7
5, 4
3, 5
7, 2
7, 4
8, 7
7, 4
7, 3
8, 4
14, 2
9, 3
10, 5
5, 1
8, 3
2, 6
6, 5
3, 5
1, 0
3, 3
1, 4
7, 3
4, 3
3, 5
5, 6
1, 0
3, 4
4, 6
2, 2
3, 5
1, 8
4, 2
1, 2
6, 4
3, 6
5, 8
2, 8
2, 2
4, 8
4, 4
1, 7
2, 7
2, 4
4, 4
1, 2
2, 2
2, 0
6, 3
2, 2
7, 3
2, 6
3, 3
0, 1
2, 1
7, 2
3, 3
1, 4
0, 4
2, 4
3, 2
1, 4
7, 2
9, 2
3, 3
7, 6
6, 1
2, 7
2, 7
7, 0
1, 2
3, 3
8, 2
7, 1
1, 2
4, 2
2, 2
1, 5
3, 2
3, 4
2, 2
0, 0
5, 0
4, 5
5, 1
0, 6
3, 3
3, 2
2, 0
3, 4
3, 0
3, 4
0, 4
2, 3
3, 3
0, 4
3, 2
3, 1
4, 5
2, 2
2, 2
3, 1
5, 4
7, 0
1, 0
1, 1
6, 1
2, 0
4, 6
5, 2
3, 4
2, 0
2, 3
3, 1
3, 1
2, 3
2, 3
2, 2
0, 4
0, 1
1, 0
2, 3
3, 3
3, 4
1, 3
5, 1
1, 1
1, 1
1, 3
1, 0
1, 6
3, 4
4, 2
2, 2
2, 5
3, 5
4, 4
1, 1
4, 4
1, 9
2, 1
7, 6
2, 7
2, 3
7, 4
1, 1
3, 4
0, 2
3, 4
2, 3
3, 1
1, 3
4, 1
3, 2
3, 3
0, 2
2, 0
2, 3
3, 2
2, 2
2, 2
2, 5
0, 1
3, 0
2, 0
4, 2
3, 0
0, 2
1, 1
2, 2
4, 0
2, 2
2, 0
0, 2
2, 3
1, 1
3, 1
1, 3
1, 6
3, 2
4, 2
2, 6
9, 3
6, 1
6, 4
8, 7
6, 1
3, 2
7, 2
2, 1
2, 1
1, 2
3, 2
1, 2
2, 0
1, 1
2, 3
1, 4
5, 2
1, 1
5, 2
1, 1
0, 0
3, 1
2, 2
1, 2
2, 4
3, 0
1, 1
3, 3
4, 6
0, 2
1, 3
2, 3
0, 3
1, 1
1, 2
3, 1
2, 2
0, 2
0, 4
1, 0
2, 1
1, 0
0, 2
0, 1
1, 0
1, 0
0, 2
2, 0
1, 0
1, 2
1, 1
1, 2
0, 1
1, 1
0, 2
0, 1
0, 1
4, 2
0, 0
4, 1
2, 1
2, 1
1, 0
1, 0
2, 2
0, 3
4, 0
3, 1
0, 2
0, 0
0, 2
1, 1
0, 1
2, 0
1, 0
0, 1
0, 1
0, 0
0, 2
0, 1
0, 0
2, 0
0, 1
0, 2
1, 0
3, 4
0, 0
0, 1
0, 2
0, 1
1, 0
0, 0
1, 0
1, 1
1, 0
2, 0
0, 0
0, 0
0, 0
0, 1
0, 1
2, 2
2, 3
0, 2
3, 0
0, 0
1, 0
0, 1
0, 1
0, 0
0, 0
1, 0
1, 1
1, 1
2, 0
0, 0
3, 0
0, 0
0, 0
3, 1
3, 1
0, 0
2, 0
0, 0
2, 0
0, 0
0, 0
0, 1
1, 2
0, 1
0, 2
0, 1
0, 2
1, 2
0, 0
0, 2
1, 0
0, 0
0, 0
1, 0
0, 0
0, 0
0, 2
0, 0
1, 0
0, 1
0, 0
2, 0
1, 1
1, 1
1, 0
0, 0
1, 1
0, 1
0, 1
0, 0
0, 0
0, 0
0, 1
2, 1
1, 0
0, 0
0, 1
0, 0
1, 0
1, 1
0, 0
1, 0
0, 0
0, 0
1, 0
1, 2
0, 0
1, 0
0, 1
0, 1
0, 1
0, 0
0, 1
0, 0
0, 0
0, 0
1, 0
0, 0
0, 1
1, 0
0, 0
0, 0
2, 0
0, 0
0, 0
1, 0
0, 1
2, 0
0, 0
0, 0
0, 0
0, 0
0, 1
0, 2
0, 0
0, 0
0, 0
0, 0
0, 0
0, 0
0, 1
0, 0
0, 0
0, 0
1, 1
0, 0
0, 0
0, 0
1, 0
0, 0
0, 0
0, 1
1, 0
1, 0
0, 0
1, 0
0, 0
1, 0
0, 0
1, 0
1, 0
0, 1
0, 0
0, 0
0, 0
0, 0
0, 0
1, 0
0, 0
0, 0
0, 0
0, 0
0, 0
1, 1
0, 0
0, 0
0, 1
1, 0
0, 1
0, 0
0, 0
0, 0
0, 0
0, 0
0, 1
0, 0
0, 1
0, 0
0, 0
0, 0
0, 0
0, 1
2, 0
0, 1
0, 0
0, 1
0, 1
0, 0
0, 2
0, 1
0, 0
0, 0
0, 0
0, 0
1, 0
0, 0
1, 1
0, 0
0, 0
0, 0
0, 0
0, 0
0, 0
0, 0
0, 0
0, 0
0, 0
0, 0
0, 0
0, 0
0, 0
0, 0
0, 0
1, 0
0, 0
0, 0
0, 0
0, 0
0, 0
0, 0
0, 0
0, 0
0, 0
1, 0
0, 0
0, 0
0, 0
0, 0
0, 0
0, 0
0, 0
0, 0
0, 0
0, 0
0, 0
0, 0
1, 0
0, 0
0, 0
0, 0
0, 0
0, 0
1, 0
0, 0
1, 0
0, 0
0, 0
0, 0
0, 0
1, 0
0, 0
0, 0
0, 0
0, 0
0, 0
0, 0
0, 0
0, 0
0, 0
0, 0
0, 0
0, 0
0, 0
0, 0
1, 0
0, 0
1, 0
0, 0
1, 0
0, 0
0, 0
0, 0
0, 0
0, 0
0, 0
0, 0
0, 0
0, 1
1, 0
0, 0
1, 0
0, 0
0, 0
0, 0
0, 0
0, 0
0, 0
0, 1
0, 0
0, 0
0, 0
0, 0
0, 0
0, 0
0, 0
0, 0
0, 0
0, 0
0, 0
0, 0
0, 0
0, 0
0, 0
0, 0
0, 0
0, 0
0, 0
0, 0
1, 0
0, 0
0, 0
0, 0
1, 0
0, 0
1, 0
0, 0
0, 0
0, 0
0, 0
0, 0
0, 0
0, 0
0, 0
0, 0
0, 0
0, 0
0, 0
0, 0
0, 0
0, 1
0, 0
0, 0
0, 0
0, 0
0, 0
0, 0
0, 0
0, 0
0, 0
0, 0
0, 0
0, 0
0, 0
0, 0
0, 0
0, 0
0, 0
0, 0
0, 0
0, 0
0, 0
0, 0
0, 0
0, 0
0, 0
0, 0
0, 0
0, 0
0, 0
0, 0
0, 0
0, 0
0, 0
0, 0
0, 0
0, 0
0, 0
0, 0
0, 0
0, 0
0, 0
0, 0
0, 0
0, 0
0, 0
0, 0
0, 0
0, 0
0, 0
0, 0
0, 0
0, 0
0, 0
0, 0
0, 0
0, 0
0, 0
0, 0
0, 0
0, 0
0, 0
0, 0
0, 0
0, 0
0, 0
0, 0
0, 0
0, 0
0, 0
0, 0
0, 0
0, 0
0, 0
1, 0
0, 0
0, 0
0, 0
0, 0
0, 0
0, 0
0, 0
0, 0
0, 0
0, 0
0, 0
0, 0
0, 0
0, 0
0, 0
0, 0
0, 0
0, 0
0, 0
0, 0
0, 0
0, 0
0, 0
0, 0
0, 0
0, 0
0, 0
0, 0
0, 0
0, 0
0, 0
0, 0
0, 0
0, 0
0, 0
0, 0
0, 0
0, 0
0, 0
0, 0
0, 0
0, 0
0, 0
0, 0
0, 0
0, 0
0, 0
0, 0
0, 0
0, 0
0, 0
0, 0
0, 0
0, 0
0, 0
0, 0
0, 0
0, 0
0, 0
0, 0
0, 0
0, 0
0, 0
0, 0
0, 0
0, 0
0, 0
0, 0
0, 0
0, 0
0, 0
0, 0
0, 0
0, 0
0, 0
0, 0
0, 0
0, 0
0, 0
0, 0
0, 0
0, 0
0, 0
0, 0
0, 0
0, 0
0, 0
0, 0
0, 0
0, 0
0, 0
0, 0
0, 0
0, 0
0, 0
0, 0
0, 0
0, 0
0, 0
0, 0
0, 0
0, 0
0, 0
0, 0
0, 0
0, 0
0, 0
0, 0
0, 0
0, 0
0, 0
0, 0
0, 0
0, 0
0, 0
0, 0
0, 0
0, 0
0, 0
0, 0
0, 0
0, 0
0, 0
0, 0
0, 0
0, 0
0, 0
0, 0
0, 0
0, 0
0, 0
0, 0
0, 0
0, 0
0, 0
0, 0
0, 0
0, 0
0, 0
0, 0
0, 0
0, 0
0, 0
0, 0
0, 0
0, 0
0, 0
0, 0
0, 0
0, 0
0, 0
0, 0
0, 0
0, 0
0, 0
0, 0
0, 0
0, 0
0, 0
0, 0
0, 0
0, 0
0, 0
0, 0
0, 0
0, 0
0, 0
0, 0
0, 0
0, 0
0, 0
0, 0
0, 0
0, 0
0, 0
0, 0
0, 0
0, 0
0, 0
0, 0
0, 0
0, 0
0, 0
0, 0
0, 0
0, 0
0, 0
0, 0
0, 0
0, 0
0, 0
0, 0
0, 0
0, 0
0, 0
0, 0
0, 0
0, 0
0, 0
0, 0
0, 0
0, 0
0, 0
0, 0
0, 0
0, 0
0, 0
0, 0
0, 0
0, 0
0, 0
0, 0
0, 0
0, 0
0, 0
0, 0
0, 0
0, 0
0, 0
0, 0
0, 0
0, 0
0, 0
0, 0
0, 0
0, 0
0, 0
0, 0
0, 0
0, 0
0, 0
0, 0
0, 0
0, 0
0, 0
0, 0
0, 0
0, 0
0, 0
0, 0
0, 0
0, 0
0, 0
0, 0
0, 0
0, 0
0, 0
0, 0
0, 0
0, 0
0, 0
0, 0
0, 0
0, 0
0, 0
0, 0
0, 0
0, 0
0, 0
0, 0
0, 0
0, 0
0, 0
0, 0
0, 0
0, 0
0, 0
0, 0
0, 0
0, 0
0, 0
0, 0
0, 0
0, 0
0, 0
0, 0
0, 0
0, 0
0, 0
0, 0
0, 0
0, 0
0, 0
0, 0
0, 0
0, 0
0, 0
0, 0
0, 0
0, 0
0, 0
0, 0
0, 0
0, 0
0, 0
0, 0
0, 0
0, 0
0, 0
0, 0
0, 0
0, 0
0, 0
0, 0
0, 0
0, 0
0, 0
0, 0
0, 0
0, 0
0, 0
0, 0
0, 0
0, 0
0, 0
0, 0
0, 0
0, 0
0, 0
0, 0
0, 0
0, 0
0, 0
0, 0
0, 0
0, 0
0, 0
0, 0
0, 0
0, 0
0, 0
0, 0
0, 0
0, 0
0, 0
0, 0
0, 0
0, 0
0, 0
0, 0
0, 0
0, 0
0, 0
0, 0
0, 0
#ENDOFDATA     end of spectrum data