File: host_upload/06-09-2024/ps_0852/dump3/ps__0852shot_2201.msa
#FORMAT      : EMSA/MAS spectral data file
#VERSION     : TC202v2.0 PIXL
#TITLE       : N/A
#DATE        :       Date in the format DD-MMM-YYYY, for example 07-JUL-2010
#TIME        :             The time of day at which the spectrum was recorded, in 24-hour format
#OWNER       : PIXL Flight Model       (PIXL will use this to indicate which instrument took the data.)
#NPOINTS     : 4096     Number of data points in the spectrum (This can be zero for configuration only files)
#NCOLUMNS    : 2     Number of data columns in the spectrum (This can be zero for configuration only files)
#XUNITS      : eV
#YUNITS      : COUNTS
#DATATYPE    : YY
#XPERCHAN    : 7.862, 7.881   eV per channel (separate by commas if more than one detector)
#OFFSET      : 18.5, -22.4         eV of first channel  (separate by commas if more than one detector
#SIGNALTYPE  : XRF
#YP_TEMP     : 2.364
#LIVETIME    : 8.5673, 8.53324   seconds (separate by commas if more than one detector)
#REALTIME    : 10, 10.0   seconds (separate by commas if more than one detector)
#SPECTRUM    : start of spectrum data
0, 0
0, 0
0, 0
0, 0
0, 0
0, 0
0, 0
0, 0
0, 0
0, 0
0, 0
0, 0
0, 0
0, 0
0, 0
0, 0
0, 0
0, 0
0, 0
0, 0
0, 0
0, 0
0, 0
0, 0
0, 0
0, 0
0, 0
0, 0
0, 0
0, 0
0, 0
0, 0
0, 1
0, 0
0, 0
0, 0
2, 0
0, 0
2, 0
1, 0
2, 4
1, 0
3, 2
2, 1
1, 3
2, 3
1, 1
4, 2
2, 5
19, 14
24, 23
41, 41
52, 48
77, 64
57, 83
76, 65
47, 58
47, 31
34, 24
14, 15
14, 3
3, 5
3, 3
5, 3
4, 3
2, 4
5, 5
6, 9
22, 18
35, 51
101, 112
175, 181
278, 240
403, 332
400, 431
442, 414
381, 360
302, 248
229, 202
141, 99
72, 62
45, 30
18, 16
10, 6
6, 3
2, 2
2, 3
2, 0
0, 1
0, 1
1, 1
1, 1
2, 5
1, 1
4, 1
3, 3
4, 1
5, 1
5, 5
3, 5
2, 7
6, 7
1, 5
2, 3
5, 5
6, 4
4, 4
9, 6
7, 7
20, 20
29, 35
18, 28
42, 30
53, 36
39, 46
51, 41
36, 43
44, 30
38, 26
28, 20
21, 32
27, 31
24, 16
19, 16
20, 20
14, 13
17, 8
15, 13
8, 8
11, 6
1, 3
2, 3
3, 7
1, 4
3, 0
3, 2
2, 2
2, 2
4, 2
5, 1
2, 3
3, 1
4, 6
3, 4
2, 3
2, 4
4, 2
3, 2
0, 3
2, 1
6, 4
6, 5
2, 8
4, 8
10, 11
6, 12
12, 8
17, 13
12, 14
15, 14
11, 14
7, 6
5, 6
0, 8
3, 6
4, 2
7, 8
3, 15
11, 13
7, 12
5, 9
15, 9
17, 9
10, 8
8, 6
6, 6
7, 4
7, 4
3, 4
6, 6
0, 4
2, 5
2, 4
3, 2
4, 6
2, 6
4, 6
5, 4
13, 4
13, 3
17, 12
37, 8
36, 8
40, 14
50, 14
33, 13
39, 14
27, 14
42, 11
25, 7
14, 13
8, 11
14, 4
10, 9
5, 5
7, 3
3, 7
9, 7
7, 4
2, 5
6, 6
6, 9
4, 6
8, 6
5, 10
7, 5
6, 11
5, 11
8, 9
6, 4
7, 5
2, 12
3, 13
7, 16
13, 21
6, 12
6, 13
10, 18
16, 19
14, 17
13, 16
14, 18
14, 9
12, 17
10, 8
17, 7
13, 7
6, 6
6, 8
12, 7
12, 6
8, 9
12, 10
14, 11
12, 15
19, 22
30, 25
34, 30
41, 48
62, 60
59, 48
75, 53
68, 62
52, 43
62, 45
29, 25
29, 30
19, 29
15, 22
11, 17
20, 25
33, 33
34, 58
75, 85
127, 215
313, 357
477, 599
784, 920
1126, 1422
1631, 1695
1919, 2141
2310, 2465
2431, 2439
2450, 2315
2184, 2012
1744, 1607
1408, 1188
973, 798
635, 462
365, 262
215, 154
121, 81
63, 49
29, 28
18, 22
19, 18
9, 20
16, 10
15, 16
20, 25
32, 22
33, 35
48, 61
80, 78
85, 109
139, 192
210, 203
271, 323
304, 319
371, 371
385, 377
364, 324
341, 270
271, 226
165, 154
168, 90
104, 64
56, 47
32, 21
29, 16
23, 15
12, 6
13, 9
9, 21
16, 10
19, 5
13, 13
6, 16
15, 15
15, 14
19, 11
16, 9
9, 11
8, 7
14, 6
7, 6
7, 3
8, 3
10, 6
11, 8
10, 3
4, 6
2, 2
4, 6
9, 3
9, 5
4, 6
4, 2
2, 1
4, 8
5, 10
5, 9
6, 9
5, 3
4, 4
4, 5
5, 3
2, 5
1, 3
5, 5
8, 11
1, 8
6, 11
5, 7
5, 7
5, 3
2, 1
4, 2
4, 3
2, 3
2, 2
0, 4
3, 7
5, 5
6, 4
5, 9
1, 6
5, 5
5, 5
11, 7
7, 4
11, 8
9, 7
6, 12
7, 6
7, 7
8, 11
2, 12
4, 2
5, 9
2, 3
3, 2
1, 6
3, 3
5, 7
4, 4
5, 6
2, 4
5, 2
2, 6
3, 7
6, 2
3, 1
4, 3
2, 5
2, 6
3, 1
2, 7
2, 2
1, 5
3, 3
1, 3
4, 5
4, 3
3, 6
1, 4
4, 3
3, 1
3, 2
5, 1
4, 1
4, 6
9, 2
5, 6
4, 5
3, 2
5, 3
10, 0
3, 6
6, 0
4, 2
4, 5
4, 1
2, 5
3, 2
2, 3
3, 4
3, 2
1, 1
3, 5
4, 6
0, 3
4, 3
0, 4
2, 4
0, 0
4, 2
5, 4
3, 0
3, 3
2, 8
4, 6
5, 3
5, 4
0, 3
2, 7
3, 4
2, 5
4, 4
0, 3
1, 5
0, 3
3, 2
6, 0
0, 4
4, 3
3, 3
1, 3
6, 1
4, 2
5, 2
7, 4
1, 1
9, 1
1, 2
4, 1
6, 3
2, 3
1, 2
2, 2
0, 5
4, 5
0, 2
3, 4
1, 4
1, 4
1, 6
1, 6
0, 4
2, 6
2, 8
1, 4
2, 8
2, 3
2, 6
0, 1
1, 3
1, 0
2, 3
0, 1
5, 1
2, 0
0, 3
2, 2
1, 2
1, 0
0, 3
3, 3
2, 2
1, 1
1, 3
1, 1
1, 0
3, 3
3, 3
2, 2
0, 1
1, 0
1, 3
3, 3
2, 5
5, 1
5, 3
3, 1
5, 2
4, 1
2, 2
2, 3
2, 3
2, 3
1, 0
3, 1
2, 1
2, 3
2, 1
2, 0
5, 3
1, 0
0, 0
2, 2
1, 2
2, 3
1, 2
1, 2
1, 4
2, 6
2, 2
1, 3
2, 0
1, 4
1, 4
2, 8
3, 4
4, 3
5, 2
3, 2
5, 2
3, 0
3, 5
2, 3
2, 1
3, 0
3, 2
2, 1
0, 3
4, 0
4, 2
0, 2
2, 1
2, 1
2, 0
2, 1
1, 3
3, 1
2, 2
1, 2
1, 2
1, 1
1, 3
5, 0
3, 2
2, 0
1, 3
2, 2
2, 1
1, 5
0, 0
2, 0
1, 1
2, 2
2, 0
0, 0
0, 2
1, 1
3, 0
0, 0
0, 1
1, 1
0, 0
0, 0
2, 0
0, 1
0, 1
0, 1
2, 2
0, 3
0, 4
2, 2
0, 0
1, 1
0, 1
3, 5
0, 1
1, 0
0, 0
0, 0
1, 2
2, 4
1, 0
2, 0
2, 0
0, 0
3, 1
0, 1
0, 0
0, 1
0, 1
2, 4
0, 1
0, 1
0, 1
1, 0
3, 0
0, 0
0, 0
0, 0
0, 0
0, 1
0, 1
0, 1
1, 2
0, 0
1, 1
1, 0
0, 0
2, 2
0, 0
0, 1
0, 0
1, 1
1, 1
0, 0
3, 1
2, 1
0, 0
3, 1
3, 1
0, 0
0, 0
0, 0
0, 1
0, 0
1, 1
0, 3
0, 2
1, 1
0, 0
1, 0
0, 1
0, 0
0, 0
0, 0
2, 2
1, 2
1, 0
2, 1
0, 0
2, 1
2, 1
1, 0
0, 0
0, 2
0, 0
0, 0
1, 1
0, 0
0, 2
1, 0
0, 0
0, 1
1, 0
1, 0
0, 0
0, 0
2, 0
0, 0
1, 0
0, 0
0, 0
0, 0
2, 1
1, 1
0, 1
0, 1
0, 0
1, 0
1, 0
0, 2
0, 0
1, 0
1, 0
0, 0
1, 1
0, 1
1, 2
0, 0
0, 0
0, 1
0, 0
0, 0
0, 0
1, 1
0, 0
0, 1
0, 0
0, 0
2, 1
1, 0
0, 1
1, 0
0, 1
1, 0
0, 1
0, 2
0, 0
1, 0
1, 0
0, 1
1, 1
1, 0
0, 0
1, 1
1, 0
0, 1
0, 0
0, 0
1, 0
0, 0
0, 1
0, 0
1, 0
0, 0
3, 0
0, 0
0, 0
1, 1
0, 1
0, 0
1, 0
1, 0
0, 1
0, 0
0, 1
1, 0
0, 1
0, 0
0, 0
0, 0
0, 0
0, 0
0, 0
0, 0
0, 0
0, 0
1, 0
0, 0
0, 0
1, 0
0, 1
0, 0
0, 0
0, 1
0, 0
0, 1
0, 1
0, 0
0, 0
0, 0
0, 0
0, 1
0, 1
0, 0
0, 1
1, 0
0, 0
0, 0
0, 0
0, 1
1, 0
0, 0
0, 0
0, 0
0, 0
1, 1
0, 0
1, 3
1, 0
0, 0
0, 0
0, 0
1, 0
0, 1
0, 0
1, 0
0, 0
0, 0
0, 0
0, 1
0, 0
0, 0
0, 0
0, 0
0, 0
0, 0
0, 0
0, 0
1, 0
1, 0
0, 0
1, 0
0, 0
0, 0
0, 0
0, 0
0, 1
1, 0
0, 0
0, 0
0, 0
1, 0
0, 0
0, 0
0, 0
0, 0
0, 0
0, 0
0, 0
0, 0
0, 0
0, 0
0, 0
0, 0
0, 0
1, 0
0, 0
1, 0
0, 0
1, 0
0, 0
0, 0
0, 0
0, 0
0, 1
0, 0
1, 0
0, 1
0, 0
0, 0
0, 0
0, 0
0, 0
0, 0
0, 0
0, 0
0, 0
1, 0
0, 0
0, 0
0, 0
0, 0
0, 0
0, 0
0, 0
0, 0
0, 0
0, 0
0, 0
0, 0
0, 0
1, 0
1, 0
0, 0
0, 0
0, 0
0, 0
0, 1
0, 0
0, 0
0, 0
1, 0
0, 0
0, 0
0, 0
0, 0
0, 0
0, 0
0, 0
0, 0
1, 0
0, 0
1, 0
0, 0
0, 0
0, 0
0, 0
0, 0
0, 0
0, 0
0, 0
0, 0
0, 0
0, 0
0, 0
0, 0
0, 0
0, 0
0, 0
0, 0
0, 0
0, 0
0, 0
0, 0
0, 0
0, 0
0, 0
0, 0
0, 0
0, 0
1, 0
0, 0
0, 0
0, 0
0, 0
0, 0
0, 0
0, 0
0, 0
0, 0
0, 0
0, 0
0, 0
0, 0
0, 0
0, 0
1, 0
0, 0
0, 0
0, 0
0, 0
0, 0
0, 0
0, 0
0, 0
0, 0
0, 0
0, 0
0, 0
0, 0
1, 1
0, 0
0, 0
0, 0
1, 0
0, 0
0, 0
0, 0
0, 0
0, 0
0, 0
1, 0
0, 0
0, 0
0, 0
0, 0
0, 0
0, 0
0, 0
0, 0
0, 0
0, 0
1, 0
0, 0
0, 0
0, 0
0, 0
0, 1
0, 0
0, 0
0, 0
0, 0
0, 0
0, 0
0, 0
0, 0
0, 0
0, 0
0, 0
0, 0
0, 0
0, 0
0, 0
0, 0
0, 0
0, 0
0, 0
0, 0
0, 0
0, 0
0, 0
0, 0
0, 0
0, 0
0, 0
0, 0
1, 0
0, 0
0, 0
0, 0
0, 0
0, 0
0, 0
0, 0
0, 0
0, 0
0, 0
0, 0
0, 0
0, 0
0, 0
0, 0
0, 0
0, 0
0, 0
0, 0
0, 0
0, 0
0, 0
0, 0
0, 0
0, 0
0, 0
0, 0
0, 0
0, 0
0, 0
0, 0
0, 0
0, 0
0, 0
0, 0
0, 0
0, 0
0, 0
0, 0
0, 0
0, 0
0, 0
0, 0
0, 0
0, 0
0, 0
0, 0
0, 0
0, 0
0, 0
0, 1
0, 0
0, 0
0, 0
0, 0
0, 0
0, 0
0, 0
0, 0
0, 0
0, 0
0, 0
0, 0
0, 0
0, 0
0, 0
0, 0
0, 0
0, 0
0, 0
0, 0
0, 0
0, 0
0, 0
0, 0
0, 0
0, 0
0, 0
0, 0
0, 0
0, 0
0, 0
0, 0
0, 0
0, 0
0, 0
0, 0
0, 0
0, 0
0, 0
0, 0
0, 0
0, 0
0, 0
0, 0
0, 0
0, 0
0, 0
0, 0
0, 0
0, 0
0, 0
0, 0
0, 0
0, 0
0, 0
0, 0
0, 0
0, 0
0, 0
0, 0
0, 0
0, 0
0, 0
0, 0
0, 0
0, 0
0, 0
0, 0
0, 0
0, 0
0, 0
0, 0
0, 0
0, 0
0, 0
0, 0
0, 0
0, 0
0, 0
0, 0
0, 0
0, 0
0, 0
0, 0
0, 0
0, 0
0, 0
0, 0
0, 0
0, 0
0, 0
0, 0
0, 0
0, 0
0, 0
0, 0
0, 0
0, 0
0, 0
0, 0
0, 0
0, 0
0, 0
0, 0
0, 0
0, 0
0, 0
0, 0
0, 0
0, 0
0, 0
0, 0
0, 0
0, 0
0, 0
0, 0
0, 0
0, 0
0, 0
0, 0
0, 0
0, 0
0, 0
0, 0
0, 0
0, 0
0, 0
0, 0
0, 0
0, 0
0, 0
0, 0
0, 0
0, 0
0, 0
0, 0
0, 0
0, 0
0, 0
0, 0
0, 0
0, 0
0, 0
0, 0
0, 0
0, 0
0, 0
0, 0
0, 0
0, 0
0, 0
0, 0
0, 0
0, 0
0, 0
0, 0
0, 0
0, 0
0, 0
0, 0
0, 0
0, 0
0, 0
0, 0
0, 0
0, 0
0, 0
0, 0
0, 0
0, 0
0, 0
0, 0
0, 0
0, 0
0, 0
0, 0
0, 0
0, 0
0, 0
0, 0
0, 0
0, 0
0, 0
0, 0
0, 0
0, 0
0, 0
0, 0
0, 0
0, 0
0, 0
0, 0
0, 0
0, 0
0, 0
0, 0
0, 0
0, 0
0, 0
0, 0
0, 0
0, 0
0, 0
0, 0
0, 0
0, 0
0, 0
0, 0
0, 0
0, 0
0, 0
0, 0
0, 0
0, 0
0, 0
0, 0
0, 0
0, 0
0, 0
0, 0
0, 0
0, 0
0, 0
0, 0
0, 0
0, 0
0, 0
0, 0
0, 0
0, 0
0, 0
0, 0
0, 0
0, 0
0, 0
0, 0
0, 0
0, 0
0, 0
0, 0
0, 0
0, 0
0, 0
0, 0
0, 0
0, 0
0, 0
0, 0
0, 0
0, 0
0, 0
0, 0
0, 0
0, 0
0, 0
0, 0
0, 0
0, 0
0, 0
0, 0
0, 0
0, 0
0, 0
0, 0
0, 0
0, 0
0, 0
0, 0
0, 0
0, 0
0, 0
0, 0
0, 0
0, 0
0, 0
0, 0
0, 0
0, 0
0, 0
0, 0
0, 0
0, 0
0, 0
0, 0
0, 0
0, 0
0, 0
0, 0
0, 0
0, 0
0, 0
0, 0
0, 0
0, 0
0, 0
0, 0
0, 0
0, 0
0, 0
0, 0
#ENDOFDATA     end of spectrum data