File: host_upload/06-09-2024/ps_0852/dump3/ps__0852shot_2017.msa
#FORMAT      : EMSA/MAS spectral data file
#VERSION     : TC202v2.0 PIXL
#TITLE       : N/A
#DATE        :       Date in the format DD-MMM-YYYY, for example 07-JUL-2010
#TIME        :             The time of day at which the spectrum was recorded, in 24-hour format
#OWNER       : PIXL Flight Model       (PIXL will use this to indicate which instrument took the data.)
#NPOINTS     : 4096     Number of data points in the spectrum (This can be zero for configuration only files)
#NCOLUMNS    : 2     Number of data columns in the spectrum (This can be zero for configuration only files)
#XUNITS      : eV
#YUNITS      : COUNTS
#DATATYPE    : YY
#XPERCHAN    : 7.862, 7.881   eV per channel (separate by commas if more than one detector)
#OFFSET      : 18.5, -22.4         eV of first channel  (separate by commas if more than one detector
#SIGNALTYPE  : XRF
#YP_TEMP     : 2.396
#LIVETIME    : 8.57002, 8.36492   seconds (separate by commas if more than one detector)
#REALTIME    : 10, 10.0   seconds (separate by commas if more than one detector)
#SPECTRUM    : start of spectrum data
0, 0
0, 0
0, 0
0, 0
0, 0
0, 0
0, 0
0, 0
0, 0
0, 0
0, 0
0, 0
0, 0
0, 0
0, 0
0, 0
0, 0
0, 0
0, 0
0, 0
0, 0
0, 0
0, 0
0, 0
0, 0
0, 0
0, 0
0, 0
0, 0
0, 0
0, 0
0, 0
0, 1
1, 0
0, 1
1, 0
0, 1
0, 1
1, 1
2, 0
1, 0
0, 1
0, 1
3, 0
1, 3
1, 1
2, 2
2, 6
7, 7
14, 14
25, 20
37, 44
55, 55
74, 70
74, 83
79, 84
62, 49
46, 40
30, 21
22, 13
7, 5
6, 1
0, 3
3, 3
4, 2
5, 3
7, 4
6, 11
26, 24
49, 45
94, 84
166, 165
276, 277
346, 355
417, 378
416, 390
347, 355
313, 283
224, 196
108, 133
78, 69
41, 36
22, 20
11, 8
3, 9
2, 0
1, 0
2, 1
3, 1
0, 0
2, 2
0, 3
3, 1
4, 1
1, 2
6, 8
3, 5
4, 12
10, 6
9, 5
7, 12
4, 12
6, 5
5, 6
7, 5
5, 0
6, 7
7, 8
13, 13
9, 12
28, 18
32, 30
21, 28
38, 41
36, 41
37, 48
43, 39
36, 33
29, 39
19, 26
29, 12
31, 25
18, 20
24, 23
23, 23
15, 12
21, 23
11, 18
7, 9
5, 12
4, 7
4, 10
4, 8
4, 11
3, 7
3, 2
2, 2
1, 2
0, 1
1, 2
2, 2
1, 4
1, 2
6, 1
2, 2
3, 1
4, 5
4, 4
9, 1
5, 2
18, 2
18, 6
34, 9
18, 13
34, 7
30, 10
27, 20
27, 15
21, 21
20, 12
5, 14
11, 11
7, 10
11, 4
7, 5
3, 4
3, 4
6, 3
6, 8
6, 6
7, 7
2, 2
3, 6
7, 6
5, 12
6, 6
8, 6
6, 6
5, 7
6, 6
2, 5
7, 5
8, 4
2, 6
11, 8
4, 5
3, 6
4, 1
7, 5
6, 8
6, 9
11, 4
14, 12
10, 12
16, 12
22, 13
20, 19
23, 20
14, 14
14, 26
12, 16
15, 24
15, 21
7, 27
4, 22
6, 21
11, 19
9, 16
5, 12
5, 6
3, 11
8, 7
6, 5
6, 10
6, 5
7, 2
0, 6
8, 5
7, 5
6, 6
6, 8
14, 4
8, 8
10, 6
11, 12
19, 7
11, 10
12, 11
21, 16
18, 24
24, 14
25, 17
8, 26
16, 19
10, 17
12, 12
14, 24
8, 18
9, 18
8, 14
6, 12
10, 17
13, 21
14, 17
18, 21
15, 20
26, 36
38, 34
50, 56
52, 47
69, 52
71, 62
81, 70
68, 50
82, 47
90, 32
69, 22
79, 17
55, 14
71, 21
68, 23
76, 32
102, 50
124, 114
197, 191
307, 354
532, 597
793, 877
1180, 1330
1484, 1669
1916, 2017
2242, 2331
2377, 2311
2202, 2189
2059, 2009
1635, 1534
1355, 1092
908, 783
595, 445
388, 263
212, 143
128, 73
66, 40
40, 30
21, 19
19, 12
11, 22
16, 19
10, 16
18, 25
29, 36
25, 49
54, 69
66, 88
87, 145
154, 168
191, 203
270, 297
330, 342
328, 336
358, 332
316, 329
312, 303
281, 194
183, 171
140, 105
84, 59
57, 56
33, 21
21, 19
14, 12
10, 7
13, 5
7, 10
14, 20
12, 12
9, 15
12, 19
11, 20
12, 26
13, 20
14, 12
5, 20
6, 14
5, 12
3, 7
4, 10
3, 6
1, 4
2, 4
3, 6
4, 2
5, 3
7, 4
3, 4
2, 0
5, 3
8, 1
6, 1
11, 8
11, 2
12, 7
16, 3
13, 4
11, 8
8, 4
10, 7
10, 5
11, 7
6, 8
4, 6
3, 4
9, 10
6, 7
8, 3
9, 6
3, 6
6, 3
7, 3
2, 1
3, 1
2, 6
6, 2
7, 5
3, 2
10, 4
6, 5
3, 1
4, 3
8, 6
8, 6
8, 5
5, 5
4, 7
6, 4
6, 8
4, 12
5, 4
3, 8
2, 9
8, 10
6, 9
4, 4
3, 5
8, 9
5, 5
6, 4
5, 3
3, 6
3, 5
4, 3
1, 8
2, 5
2, 11
7, 5
4, 7
4, 6
3, 8
4, 5
4, 4
9, 3
5, 4
5, 3
8, 3
9, 4
12, 4
13, 3
21, 3
20, 4
13, 2
28, 2
25, 0
31, 4
18, 5
15, 1
8, 1
13, 4
8, 3
5, 4
8, 0
3, 1
2, 1
3, 2
5, 3
4, 3
2, 3
4, 4
3, 5
3, 4
2, 3
2, 2
5, 5
3, 1
3, 2
5, 2
7, 6
4, 3
1, 10
0, 2
5, 1
3, 2
4, 3
4, 1
1, 8
2, 3
2, 2
3, 2
3, 3
4, 3
4, 2
1, 2
3, 3
5, 1
1, 3
4, 1
0, 4
2, 6
1, 4
1, 0
1, 4
4, 3
0, 3
0, 1
1, 1
1, 3
4, 3
1, 1
4, 4
1, 0
1, 1
1, 3
3, 1
4, 3
2, 4
0, 0
2, 3
2, 2
2, 1
0, 5
2, 3
0, 7
1, 1
0, 1
3, 2
4, 2
3, 3
0, 1
2, 3
2, 3
7, 4
2, 0
5, 1
5, 1
3, 3
3, 2
2, 4
3, 5
2, 1
1, 3
2, 5
0, 2
2, 1
0, 2
1, 2
4, 2
3, 2
6, 1
0, 4
0, 3
4, 1
2, 5
3, 0
2, 1
2, 1
0, 0
2, 4
3, 3
2, 1
2, 2
2, 1
3, 3
3, 3
1, 1
3, 5
4, 3
3, 1
1, 3
2, 0
2, 3
1, 1
1, 2
4, 1
1, 5
2, 0
3, 1
4, 2
1, 2
2, 3
3, 1
9, 6
4, 3
0, 3
2, 3
4, 3
2, 5
3, 2
3, 4
5, 0
1, 2
1, 0
1, 0
3, 6
1, 4
1, 1
1, 1
2, 3
2, 0
1, 1
2, 2
1, 1
4, 1
1, 1
1, 1
0, 4
0, 0
4, 1
1, 0
0, 1
3, 1
0, 1
0, 1
3, 1
0, 1
0, 1
3, 3
0, 0
1, 3
0, 2
0, 1
1, 0
1, 0
4, 0
0, 1
1, 1
0, 0
4, 0
2, 3
0, 2
1, 2
0, 0
2, 1
0, 0
0, 0
1, 0
0, 0
0, 3
1, 1
1, 1
1, 1
0, 1
2, 2
2, 2
1, 1
1, 0
0, 0
2, 0
1, 2
2, 1
3, 0
1, 0
2, 2
2, 1
2, 1
1, 1
1, 0
0, 0
2, 1
0, 0
0, 0
1, 2
0, 0
2, 1
0, 2
0, 0
1, 1
0, 1
0, 2
0, 0
2, 1
0, 0
0, 1
0, 1
1, 0
2, 0
1, 0
0, 2
0, 0
0, 0
5, 0
1, 1
0, 0
0, 1
0, 1
0, 0
1, 0
0, 0
0, 0
1, 1
0, 0
0, 0
0, 0
0, 0
1, 0
0, 1
1, 1
0, 0
0, 1
0, 3
0, 1
1, 1
2, 0
1, 1
1, 0
2, 0
0, 0
2, 1
1, 0
0, 0
0, 1
1, 1
0, 1
1, 0
0, 0
0, 0
0, 0
0, 0
0, 0
0, 0
0, 0
0, 0
0, 0
0, 0
0, 0
1, 2
2, 0
0, 0
0, 0
0, 0
0, 0
0, 1
0, 0
1, 0
0, 0
0, 0
0, 0
2, 0
0, 1
1, 0
1, 0
1, 0
0, 0
0, 1
0, 0
0, 0
0, 1
0, 2
0, 0
0, 0
0, 1
0, 0
0, 0
1, 0
0, 2
0, 1
0, 0
0, 2
0, 0
1, 0
0, 1
0, 0
0, 0
0, 0
0, 0
1, 0
0, 0
1, 0
0, 0
1, 0
1, 0
0, 1
0, 1
0, 1
0, 0
0, 1
0, 0
0, 0
1, 0
0, 0
0, 0
0, 1
0, 0
0, 1
0, 0
1, 0
1, 1
0, 1
1, 0
0, 0
1, 0
0, 0
1, 1
0, 0
0, 2
0, 0
0, 0
0, 1
1, 0
1, 1
1, 0
0, 0
1, 0
0, 0
1, 0
0, 0
0, 0
1, 0
0, 0
1, 0
0, 1
2, 0
1, 1
0, 0
0, 0
1, 0
1, 0
0, 0
0, 1
0, 0
0, 0
0, 0
0, 0
0, 0
0, 0
0, 0
0, 0
0, 0
0, 0
1, 1
0, 0
1, 0
0, 0
0, 0
0, 0
0, 0
2, 0
0, 1
0, 0
0, 0
0, 0
1, 0
1, 0
0, 0
0, 0
0, 0
1, 1
0, 1
0, 0
1, 0
0, 0
0, 0
0, 0
0, 0
1, 0
0, 0
0, 0
1, 0
0, 0
0, 0
0, 1
0, 0
0, 0
0, 0
1, 0
0, 0
0, 0
0, 0
0, 1
0, 1
0, 0
0, 0
0, 0
0, 1
0, 0
0, 0
0, 0
0, 0
0, 0
0, 1
0, 0
0, 0
0, 0
0, 0
1, 0
0, 0
0, 0
0, 0
0, 0
0, 0
0, 0
1, 0
0, 1
0, 0
0, 0
0, 1
0, 0
0, 0
0, 0
0, 0
0, 0
0, 1
0, 0
0, 0
0, 1
0, 0
0, 0
0, 1
0, 0
0, 0
0, 0
0, 0
0, 0
0, 0
0, 0
0, 0
0, 1
0, 0
0, 1
0, 1
0, 0
0, 0
0, 0
0, 0
0, 0
0, 1
0, 0
0, 0
0, 0
0, 0
0, 0
0, 0
0, 0
0, 0
0, 0
0, 0
0, 0
0, 0
0, 0
0, 0
0, 0
0, 0
0, 0
0, 0
0, 0
0, 0
0, 0
0, 0
0, 0
0, 0
0, 0
0, 0
0, 0
0, 0
0, 0
0, 0
0, 0
0, 0
0, 0
0, 0
0, 0
0, 0
0, 0
0, 0
0, 0
0, 1
0, 0
0, 0
0, 0
0, 0
0, 0
0, 0
0, 0
0, 0
0, 0
0, 0
0, 0
0, 0
0, 1
0, 0
0, 0
0, 0
0, 0
0, 0
0, 0
0, 0
0, 0
0, 0
0, 0
0, 0
1, 0
0, 0
0, 0
1, 0
0, 0
0, 0
0, 0
0, 0
0, 0
0, 0
0, 0
0, 0
0, 0
0, 0
0, 0
0, 0
0, 0
0, 0
0, 0
0, 0
0, 0
0, 0
0, 0
0, 0
0, 0
0, 0
0, 0
0, 0
0, 0
0, 0
0, 0
0, 0
0, 0
0, 0
0, 0
0, 0
0, 0
0, 0
0, 0
0, 0
0, 0
0, 0
0, 0
0, 0
0, 0
0, 0
0, 0
0, 0
0, 0
0, 0
0, 0
0, 0
0, 0
0, 0
0, 0
0, 0
0, 0
0, 0
0, 0
0, 0
0, 0
0, 0
0, 1
0, 0
0, 0
0, 0
0, 0
0, 0
0, 0
0, 0
0, 0
0, 0
0, 0
0, 0
0, 0
0, 0
0, 0
0, 0
0, 0
0, 0
0, 0
0, 0
0, 0
0, 0
0, 0
0, 0
0, 0
0, 0
0, 0
0, 0
0, 0
0, 0
0, 0
0, 0
0, 0
0, 0
0, 0
0, 0
0, 0
0, 0
0, 0
0, 0
0, 0
0, 0
0, 0
0, 0
0, 0
0, 0
0, 0
0, 0
0, 0
0, 0
0, 0
0, 0
0, 0
0, 0
0, 0
0, 0
0, 0
0, 0
0, 0
0, 0
0, 0
0, 0
0, 0
0, 0
0, 0
0, 0
0, 0
0, 0
0, 0
0, 0
0, 0
0, 0
0, 0
0, 0
0, 0
0, 0
0, 0
0, 0
0, 0
0, 0
0, 0
0, 0
0, 0
0, 0
0, 0
0, 0
0, 0
0, 0
0, 0
0, 0
0, 0
0, 0
0, 0
0, 0
0, 0
0, 0
0, 0
0, 0
0, 0
0, 0
0, 0
0, 0
0, 0
0, 0
0, 0
0, 0
0, 0
0, 0
0, 0
0, 0
0, 0
0, 0
0, 0
0, 0
0, 0
0, 0
0, 0
0, 0
0, 0
0, 0
0, 0
0, 0
0, 0
0, 0
0, 0
0, 0
0, 0
0, 0
0, 0
0, 0
0, 0
0, 0
0, 0
0, 0
0, 0
0, 0
0, 0
0, 0
0, 0
0, 0
0, 0
0, 0
0, 0
0, 0
0, 0
0, 0
0, 0
0, 0
0, 0
0, 0
0, 0
0, 0
0, 0
0, 0
0, 0
0, 0
0, 0
0, 0
0, 0
0, 0
0, 0
0, 0
0, 0
0, 0
0, 0
0, 0
0, 0
0, 0
0, 0
0, 0
0, 0
0, 0
0, 0
0, 0
0, 0
0, 0
0, 0
0, 0
0, 0
0, 0
0, 0
0, 0
0, 0
0, 0
0, 0
0, 0
0, 0
0, 0
0, 0
0, 0
0, 0
0, 0
0, 0
0, 0
0, 0
0, 0
0, 0
0, 0
0, 0
0, 0
0, 0
0, 0
0, 0
0, 0
0, 0
0, 0
0, 0
0, 0
0, 0
0, 0
0, 0
0, 0
0, 0
0, 0
0, 0
0, 0
0, 0
0, 0
0, 0
0, 0
0, 0
0, 0
0, 0
0, 0
0, 0
0, 0
0, 0
0, 0
0, 0
0, 0
0, 0
0, 0
0, 0
0, 0
0, 0
0, 0
0, 0
0, 0
0, 0
0, 0
0, 0
0, 0
0, 0
0, 0
0, 0
0, 0
0, 0
0, 0
0, 0
0, 0
0, 0
0, 0
0, 0
0, 0
0, 0
0, 0
0, 0
0, 0
0, 0
0, 0
0, 0
0, 0
0, 0
0, 0
0, 0
0, 0
0, 0
0, 0
0, 0
0, 0
0, 0
0, 0
0, 0
0, 0
0, 0
0, 0
0, 0
0, 0
0, 0
0, 0
0, 0
0, 0
0, 0
0, 0
0, 0
0, 0
0, 0
0, 0
0, 0
0, 0
0, 0
0, 0
0, 0
0, 0
0, 0
0, 0
0, 0
0, 0
0, 0
0, 0
0, 0
0, 0
0, 0
0, 0
0, 0
0, 0
0, 0
0, 0
0, 0
0, 0
0, 0
0, 0
0, 0
0, 0
0, 0
0, 0
0, 0
0, 0
0, 0
0, 0
0, 0
0, 0
0, 0
0, 0
0, 0
0, 0
0, 0
0, 0
0, 0
0, 0
0, 0
0, 0
0, 0
0, 0
0, 0
0, 0
0, 0
0, 0
0, 0
0, 0
0, 0
0, 0
0, 0
0, 0
0, 0
0, 0
0, 0
0, 0
0, 0
0, 0
0, 0
0, 0
0, 0
0, 0
0, 0
0, 0
#ENDOFDATA     end of spectrum data