File: host_upload/06-09-2024/ps_0852/dump3/ps__0852shot_2199.msa
#FORMAT      : EMSA/MAS spectral data file
#VERSION     : TC202v2.0 PIXL
#TITLE       : N/A
#DATE        :       Date in the format DD-MMM-YYYY, for example 07-JUL-2010
#TIME        :             The time of day at which the spectrum was recorded, in 24-hour format
#OWNER       : PIXL Flight Model       (PIXL will use this to indicate which instrument took the data.)
#NPOINTS     : 4096     Number of data points in the spectrum (This can be zero for configuration only files)
#NCOLUMNS    : 2     Number of data columns in the spectrum (This can be zero for configuration only files)
#XUNITS      : eV
#YUNITS      : COUNTS
#DATATYPE    : YY
#XPERCHAN    : 7.862, 7.881   eV per channel (separate by commas if more than one detector)
#OFFSET      : 18.5, -22.4         eV of first channel  (separate by commas if more than one detector
#SIGNALTYPE  : XRF
#YP_TEMP     : 2.332
#LIVETIME    : 8.5747, 8.5701   seconds (separate by commas if more than one detector)
#REALTIME    : 10, 10.0   seconds (separate by commas if more than one detector)
#SPECTRUM    : start of spectrum data
0, 0
0, 0
0, 0
0, 0
0, 0
0, 0
0, 0
0, 0
0, 0
0, 0
0, 0
0, 0
0, 0
0, 0
0, 0
0, 0
0, 0
0, 0
0, 0
0, 0
0, 0
0, 0
0, 0
0, 0
0, 0
0, 0
0, 0
0, 0
0, 0
0, 0
0, 1
0, 0
2, 0
0, 0
0, 0
0, 1
1, 1
0, 0
0, 0
1, 0
0, 2
0, 2
0, 1
1, 1
2, 0
2, 0
2, 1
4, 4
3, 5
19, 9
32, 22
42, 39
78, 63
94, 82
88, 66
77, 70
68, 51
42, 47
32, 24
12, 13
7, 9
5, 4
4, 5
3, 3
2, 9
3, 2
4, 10
8, 7
28, 24
52, 56
96, 90
186, 159
216, 252
372, 353
467, 409
462, 426
408, 352
320, 270
215, 175
139, 115
79, 76
39, 28
18, 18
14, 9
6, 6
2, 6
3, 0
1, 2
3, 1
3, 3
0, 1
0, 0
1, 0
2, 1
4, 3
8, 0
4, 1
7, 6
7, 8
8, 4
2, 6
2, 7
2, 3
3, 5
1, 5
4, 5
2, 2
4, 6
5, 6
9, 11
18, 16
15, 16
24, 22
16, 33
24, 30
32, 27
32, 31
35, 37
26, 24
30, 26
22, 19
27, 21
18, 12
20, 11
16, 11
15, 11
19, 9
11, 9
10, 8
9, 5
11, 3
5, 5
3, 4
1, 6
3, 1
3, 1
2, 1
2, 0
0, 2
1, 1
2, 0
4, 3
1, 2
6, 1
7, 0
7, 2
6, 4
18, 3
12, 2
18, 2
14, 4
16, 2
24, 4
20, 8
18, 11
18, 22
30, 20
27, 24
17, 20
23, 24
16, 23
15, 18
7, 7
3, 4
4, 2
1, 4
1, 8
7, 6
4, 5
5, 6
7, 3
0, 5
5, 8
1, 1
1, 8
4, 8
5, 3
4, 7
3, 1
5, 7
2, 3
6, 2
4, 4
1, 3
3, 3
1, 8
4, 11
3, 18
6, 15
6, 31
8, 36
8, 32
5, 28
11, 22
11, 23
12, 26
12, 15
11, 16
6, 20
8, 8
13, 10
10, 8
7, 8
8, 5
4, 7
9, 3
7, 2
6, 6
4, 5
2, 5
5, 1
7, 9
7, 7
6, 5
2, 12
4, 9
4, 12
2, 7
11, 9
9, 4
4, 7
10, 5
5, 11
3, 8
9, 7
6, 6
11, 5
11, 10
18, 12
13, 23
13, 15
10, 15
11, 13
12, 10
11, 9
16, 8
12, 12
10, 6
9, 13
12, 13
9, 8
13, 10
5, 16
15, 12
11, 15
20, 24
20, 38
42, 46
60, 46
63, 51
69, 44
71, 68
71, 56
74, 45
64, 35
55, 30
44, 19
39, 20
36, 15
27, 14
19, 26
37, 34
50, 44
88, 108
141, 177
313, 361
478, 584
779, 932
1157, 1349
1518, 1730
2052, 2084
2382, 2253
2412, 2393
2494, 2280
2174, 1828
1804, 1477
1380, 1069
918, 704
649, 460
393, 269
234, 110
126, 90
61, 41
45, 20
16, 15
14, 12
14, 17
12, 28
17, 23
25, 34
25, 50
33, 44
44, 76
67, 122
87, 132
155, 175
188, 246
275, 300
334, 345
374, 360
383, 377
367, 326
275, 239
238, 209
189, 142
152, 107
95, 73
47, 39
31, 25
26, 8
15, 16
9, 12
7, 12
5, 8
12, 6
7, 12
18, 14
9, 7
24, 15
9, 8
14, 9
4, 7
9, 9
9, 6
7, 4
6, 2
5, 2
1, 5
3, 4
3, 0
7, 4
4, 4
3, 5
4, 1
6, 9
7, 4
3, 3
6, 5
4, 2
3, 5
3, 5
6, 8
3, 6
2, 8
6, 9
3, 8
6, 13
3, 14
5, 13
0, 15
2, 8
4, 10
3, 4
5, 7
5, 4
3, 4
6, 3
2, 6
5, 3
5, 7
4, 2
5, 2
6, 5
4, 1
6, 5
5, 5
1, 7
7, 7
6, 7
7, 8
0, 8
7, 10
2, 4
9, 5
7, 5
7, 5
5, 6
5, 4
11, 3
15, 5
15, 2
19, 3
16, 5
20, 2
16, 2
8, 0
8, 2
10, 5
19, 4
9, 3
10, 3
9, 6
10, 7
10, 2
4, 1
4, 6
4, 7
4, 4
4, 2
3, 5
5, 3
4, 6
4, 5
6, 7
7, 5
7, 4
4, 3
3, 2
7, 5
8, 4
6, 4
3, 2
5, 5
5, 5
4, 4
4, 2
0, 2
4, 2
3, 2
4, 6
5, 2
3, 2
3, 2
5, 7
5, 1
5, 3
3, 1
2, 5
3, 4
4, 1
3, 4
4, 3
6, 3
6, 3
4, 2
5, 2
3, 3
5, 4
5, 3
3, 1
5, 1
3, 3
5, 4
1, 2
5, 5
5, 1
1, 1
2, 4
4, 5
1, 3
3, 0
1, 3
2, 8
2, 2
4, 1
2, 2
5, 0
2, 1
3, 3
5, 3
6, 4
1, 3
5, 2
4, 4
5, 2
7, 2
6, 1
3, 1
4, 0
3, 6
2, 2
3, 4
2, 2
1, 2
4, 2
1, 2
4, 2
2, 4
2, 3
1, 2
1, 9
1, 2
3, 3
3, 2
2, 2
2, 3
2, 1
2, 2
0, 4
1, 1
1, 2
1, 2
4, 2
3, 2
1, 2
5, 2
0, 2
2, 1
1, 1
1, 1
4, 4
2, 4
2, 1
1, 1
5, 0
2, 2
1, 2
0, 1
3, 1
3, 5
4, 3
2, 4
4, 1
2, 3
0, 6
2, 2
4, 1
1, 1
5, 2
3, 3
2, 2
1, 0
2, 0
4, 1
1, 2
1, 1
1, 1
5, 2
1, 0
0, 0
3, 4
1, 2
1, 1
1, 0
5, 1
4, 3
1, 7
2, 5
1, 5
4, 6
7, 3
5, 2
5, 6
3, 6
3, 4
6, 5
4, 3
8, 1
11, 1
8, 3
4, 1
0, 4
7, 1
3, 3
1, 1
1, 1
4, 2
1, 1
2, 0
0, 1
1, 1
1, 1
0, 2
1, 2
0, 4
2, 4
3, 1
2, 1
2, 1
2, 1
3, 4
0, 1
4, 1
1, 0
3, 1
2, 2
2, 3
1, 0
1, 0
1, 1
1, 1
2, 2
1, 1
0, 3
1, 2
3, 4
1, 2
2, 1
0, 3
0, 3
0, 2
0, 4
1, 4
1, 1
1, 2
2, 0
4, 0
1, 1
1, 0
1, 1
0, 0
0, 1
2, 3
0, 1
1, 0
3, 1
2, 3
0, 1
1, 2
3, 0
1, 2
0, 0
0, 1
0, 2
0, 2
1, 1
0, 2
0, 0
3, 3
0, 0
0, 1
1, 0
2, 0
1, 0
0, 0
2, 0
2, 0
0, 2
0, 0
0, 1
2, 1
0, 2
1, 1
0, 0
0, 1
0, 0
0, 0
1, 0
0, 1
2, 2
1, 4
1, 0
1, 0
1, 0
1, 2
0, 0
0, 0
0, 1
1, 0
2, 0
1, 0
1, 1
3, 1
2, 0
0, 0
0, 0
1, 1
1, 1
1, 1
1, 1
0, 0
0, 2
0, 0
0, 1
3, 0
0, 0
0, 0
1, 1
0, 0
1, 0
1, 1
1, 0
1, 1
0, 0
0, 0
0, 0
0, 0
0, 0
2, 0
0, 0
1, 0
1, 0
0, 0
0, 1
0, 2
0, 0
0, 0
2, 0
0, 0
0, 0
0, 1
0, 0
0, 1
2, 0
0, 1
1, 1
0, 0
0, 0
1, 0
0, 0
0, 0
1, 0
0, 0
1, 0
0, 0
1, 1
1, 0
0, 0
0, 0
0, 1
0, 2
0, 0
0, 0
3, 1
0, 1
0, 0
0, 0
0, 1
1, 0
0, 0
1, 1
0, 0
0, 3
0, 2
1, 1
0, 0
0, 0
0, 0
0, 1
0, 1
0, 0
1, 0
0, 1
0, 0
0, 0
1, 0
0, 0
0, 1
0, 0
0, 0
1, 0
0, 0
0, 0
0, 0
0, 1
0, 1
0, 0
0, 2
0, 1
0, 0
0, 0
0, 1
0, 0
2, 1
1, 1
0, 0
0, 0
0, 0
0, 1
0, 0
0, 1
0, 0
0, 0
0, 1
0, 0
1, 0
0, 1
2, 1
0, 0
0, 0
0, 0
0, 0
0, 0
1, 0
1, 0
0, 0
0, 0
1, 1
0, 0
0, 0
0, 2
1, 0
0, 0
0, 0
0, 0
0, 0
1, 0
0, 0
0, 0
1, 0
0, 0
1, 0
1, 0
0, 0
1, 1
0, 0
0, 0
0, 0
1, 0
0, 0
0, 0
0, 0
0, 0
0, 1
0, 0
0, 0
0, 0
0, 0
0, 1
0, 0
0, 0
0, 0
0, 0
0, 0
0, 0
0, 1
0, 0
0, 0
1, 0
0, 1
0, 0
0, 0
0, 0
0, 0
0, 0
0, 0
0, 0
0, 0
1, 0
0, 1
0, 1
0, 1
0, 0
0, 0
0, 0
0, 0
0, 1
0, 0
0, 0
0, 0
1, 0
0, 0
0, 0
0, 0
0, 1
0, 0
1, 0
0, 0
0, 0
0, 0
0, 0
0, 1
0, 0
0, 0
0, 0
0, 1
0, 0
0, 0
0, 0
0, 0
0, 0
0, 0
0, 0
0, 0
0, 0
0, 0
0, 0
1, 0
0, 0
0, 0
0, 0
0, 0
0, 0
0, 0
0, 0
0, 0
1, 0
0, 0
0, 0
0, 0
1, 0
0, 0
0, 0
0, 0
0, 0
0, 0
0, 0
0, 0
0, 0
0, 0
0, 0
0, 0
1, 1
0, 0
1, 0
0, 0
0, 0
0, 0
0, 0
0, 0
0, 0
0, 0
0, 0
0, 0
0, 0
0, 0
0, 0
0, 0
0, 0
0, 0
0, 0
0, 0
0, 0
0, 0
0, 0
0, 0
0, 0
0, 0
0, 0
0, 0
0, 0
0, 0
0, 0
0, 0
0, 0
0, 0
1, 0
0, 0
0, 0
0, 0
0, 0
0, 0
0, 0
0, 0
0, 0
0, 0
0, 0
0, 0
0, 0
0, 0
0, 0
0, 0
0, 0
0, 0
0, 0
0, 0
0, 0
0, 0
0, 0
0, 0
0, 0
0, 0
1, 0
0, 0
0, 0
0, 0
0, 0
0, 0
0, 0
0, 0
0, 0
0, 0
0, 0
0, 0
0, 0
0, 0
0, 0
0, 0
0, 0
0, 0
0, 0
0, 0
0, 0
0, 0
1, 0
0, 0
0, 0
0, 0
0, 0
0, 0
0, 0
0, 0
0, 0
0, 0
0, 0
0, 0
0, 0
0, 0
0, 0
0, 0
0, 0
0, 0
0, 0
0, 0
0, 0
0, 0
0, 0
0, 0
0, 0
0, 0
0, 0
0, 0
0, 0
0, 0
0, 0
0, 0
0, 0
0, 0
0, 0
0, 0
0, 0
0, 0
0, 0
0, 0
0, 0
0, 0
0, 0
0, 0
0, 0
0, 0
0, 0
0, 0
0, 0
0, 0
0, 0
0, 0
0, 0
0, 0
0, 0
0, 0
0, 0
0, 0
0, 0
0, 0
0, 0
0, 0
0, 0
0, 0
0, 0
0, 0
0, 0
0, 0
0, 0
0, 0
0, 0
0, 0
0, 0
0, 0
0, 0
0, 0
0, 0
0, 0
0, 0
0, 0
0, 0
0, 0
0, 0
0, 0
0, 0
0, 0
0, 0
0, 0
0, 0
0, 0
0, 0
0, 0
0, 0
0, 0
0, 0
0, 0
0, 0
0, 0
0, 0
0, 0
0, 0
0, 0
0, 0
0, 0
0, 0
0, 0
0, 0
0, 0
0, 0
0, 0
0, 0
0, 0
0, 0
0, 0
0, 0
0, 0
0, 0
0, 0
0, 0
0, 0
0, 0
0, 0
0, 0
0, 0
0, 0
0, 0
0, 0
0, 0
0, 0
0, 0
0, 0
0, 0
0, 0
0, 0
0, 0
0, 0
0, 0
0, 0
0, 0
0, 0
0, 0
0, 0
0, 0
0, 0
0, 0
0, 0
0, 0
0, 0
0, 0
0, 0
0, 0
0, 0
0, 0
0, 0
0, 0
0, 0
0, 0
0, 0
0, 0
0, 0
0, 0
1, 0
0, 0
0, 0
0, 0
0, 0
0, 0
0, 0
0, 0
0, 0
0, 0
0, 0
0, 0
0, 0
0, 0
0, 0
0, 0
0, 0
0, 0
0, 0
0, 0
0, 0
0, 0
0, 0
0, 0
0, 0
0, 0
0, 0
0, 0
0, 0
0, 0
0, 0
0, 0
0, 0
0, 0
0, 0
0, 0
0, 0
0, 0
0, 0
0, 0
0, 0
0, 0
0, 0
0, 0
0, 0
0, 0
0, 0
0, 0
0, 0
0, 0
0, 0
0, 0
0, 0
0, 0
0, 0
0, 0
0, 0
0, 0
0, 0
0, 0
0, 0
0, 0
0, 0
0, 0
0, 0
0, 0
0, 0
0, 0
0, 0
0, 0
0, 0
0, 0
0, 0
0, 0
0, 0
0, 0
0, 0
0, 0
0, 0
0, 0
0, 0
0, 0
0, 0
0, 0
0, 0
0, 0
0, 0
0, 0
0, 0
0, 0
0, 0
0, 0
0, 0
0, 0
0, 0
0, 0
0, 0
0, 0
0, 0
0, 0
0, 0
0, 0
0, 0
0, 0
0, 0
0, 0
0, 0
0, 0
0, 0
0, 0
0, 0
0, 0
0, 0
0, 0
0, 0
0, 0
0, 0
0, 0
0, 0
0, 0
0, 0
0, 0
0, 0
0, 0
0, 0
0, 0
0, 0
0, 0
0, 0
0, 0
0, 0
0, 0
0, 0
0, 0
0, 0
0, 0
0, 0
0, 0
0, 0
0, 0
0, 0
0, 0
0, 0
0, 0
0, 0
0, 0
0, 0
0, 0
0, 0
0, 0
0, 0
0, 0
0, 0
0, 0
0, 0
0, 0
0, 0
0, 0
0, 0
0, 0
0, 0
0, 0
0, 0
0, 0
0, 0
0, 0
0, 0
0, 0
0, 0
0, 0
0, 0
0, 0
0, 0
0, 0
0, 0
0, 0
0, 0
0, 0
0, 0
0, 0
0, 0
0, 0
0, 0
0, 0
0, 0
0, 0
0, 0
0, 0
0, 0
0, 0
0, 0
0, 0
0, 0
0, 0
0, 0
0, 0
0, 0
0, 0
0, 0
0, 0
0, 0
0, 0
0, 0
0, 0
0, 0
0, 0
0, 0
0, 0
0, 0
0, 0
0, 0
0, 0
0, 0
0, 0
0, 0
0, 0
0, 0
0, 0
0, 0
0, 0
0, 0
0, 0
0, 0
0, 0
0, 0
0, 0
0, 0
0, 0
0, 0
0, 0
0, 0
#ENDOFDATA     end of spectrum data