File: host_upload/06-09-2024/ps_0852/dump3/ps__0852shot_2503.msa
#FORMAT      : EMSA/MAS spectral data file
#VERSION     : TC202v2.0 PIXL
#TITLE       : N/A
#DATE        :       Date in the format DD-MMM-YYYY, for example 07-JUL-2010
#TIME        :             The time of day at which the spectrum was recorded, in 24-hour format
#OWNER       : PIXL Flight Model       (PIXL will use this to indicate which instrument took the data.)
#NPOINTS     : 4096     Number of data points in the spectrum (This can be zero for configuration only files)
#NCOLUMNS    : 2     Number of data columns in the spectrum (This can be zero for configuration only files)
#XUNITS      : eV
#YUNITS      : COUNTS
#DATATYPE    : YY
#XPERCHAN    : 7.862, 7.881   eV per channel (separate by commas if more than one detector)
#OFFSET      : 18.5, -22.4         eV of first channel  (separate by commas if more than one detector
#SIGNALTYPE  : XRF
#YP_TEMP     : 2.075
#LIVETIME    : 8.55736, 8.54779   seconds (separate by commas if more than one detector)
#REALTIME    : 10, 10.0   seconds (separate by commas if more than one detector)
#SPECTRUM    : start of spectrum data
0, 0
0, 0
0, 0
0, 0
0, 0
0, 0
0, 0
0, 0
0, 0
0, 0
0, 0
0, 0
0, 0
0, 0
0, 0
0, 0
0, 0
0, 0
0, 0
0, 0
0, 0
0, 0
0, 0
0, 0
0, 0
0, 0
0, 0
0, 0
0, 0
0, 0
0, 0
0, 0
0, 0
0, 0
0, 0
0, 3
1, 0
1, 0
0, 3
0, 0
0, 2
2, 0
2, 0
0, 1
0, 0
4, 1
1, 1
4, 2
2, 3
9, 12
17, 15
45, 31
62, 38
70, 55
63, 62
73, 50
60, 36
44, 34
38, 13
14, 8
6, 5
3, 7
3, 9
5, 4
3, 2
9, 3
7, 7
12, 8
20, 15
43, 35
87, 66
167, 122
233, 204
306, 269
329, 278
338, 300
358, 240
254, 230
174, 126
97, 73
62, 51
30, 27
18, 12
8, 5
4, 3
3, 3
5, 1
2, 2
1, 1
2, 2
4, 1
2, 0
4, 0
6, 0
3, 2
2, 2
5, 4
5, 2
4, 4
4, 3
9, 4
2, 1
3, 1
3, 2
9, 4
6, 3
13, 4
6, 9
14, 4
21, 8
24, 11
21, 25
42, 29
53, 26
41, 36
43, 27
48, 30
65, 28
73, 27
84, 21
67, 23
67, 15
57, 25
48, 20
38, 14
29, 4
17, 8
20, 8
14, 6
9, 4
9, 4
5, 7
7, 1
4, 3
10, 1
1, 1
1, 1
6, 2
2, 1
4, 0
1, 1
3, 4
5, 4
2, 1
3, 4
2, 1
3, 3
1, 5
4, 3
2, 5
7, 4
4, 7
8, 8
22, 6
23, 10
19, 20
30, 22
26, 18
30, 15
19, 8
13, 5
13, 8
11, 4
6, 4
7, 6
5, 0
5, 6
8, 3
5, 4
3, 6
7, 9
6, 1
4, 7
10, 6
9, 3
6, 7
4, 3
8, 0
4, 5
9, 6
4, 4
6, 2
5, 4
7, 4
9, 4
13, 11
14, 13
27, 19
40, 25
60, 32
61, 39
58, 59
62, 53
77, 36
65, 37
42, 41
54, 32
37, 23
25, 22
15, 27
16, 27
13, 32
6, 27
7, 19
6, 21
15, 16
11, 16
15, 11
15, 13
17, 19
26, 15
29, 6
18, 15
17, 9
17, 11
10, 16
12, 5
14, 13
9, 13
18, 12
19, 21
27, 26
61, 54
109, 100
185, 178
361, 284
531, 401
758, 586
975, 761
1178, 826
1285, 888
1268, 748
1094, 677
916, 535
749, 350
479, 228
336, 135
185, 86
112, 41
51, 36
49, 21
45, 29
50, 20
28, 25
40, 29
53, 36
61, 43
86, 71
110, 105
134, 138
198, 124
217, 165
228, 193
239, 191
249, 151
180, 142
154, 92
104, 70
83, 52
39, 33
37, 43
26, 32
44, 38
96, 76
132, 124
281, 248
399, 429
669, 731
996, 1046
1355, 1382
1668, 1722
2020, 1830
2009, 1952
2112, 1775
1813, 1486
1539, 1115
1200, 864
808, 555
507, 313
291, 195
156, 105
85, 46
46, 32
30, 25
19, 8
15, 13
18, 14
10, 20
17, 16
23, 25
16, 27
29, 32
44, 54
57, 73
96, 77
143, 162
158, 171
228, 206
284, 268
300, 258
316, 293
289, 241
262, 234
238, 161
150, 135
138, 92
78, 70
35, 42
27, 17
19, 12
14, 6
17, 7
10, 3
7, 9
6, 12
7, 12
14, 10
9, 13
7, 7
10, 6
10, 11
9, 5
4, 6
10, 4
7, 2
5, 4
6, 3
4, 4
6, 2
4, 9
4, 4
5, 0
7, 5
6, 0
4, 3
6, 4
5, 3
5, 2
6, 3
3, 4
3, 5
4, 3
2, 1
2, 8
9, 1
11, 8
13, 4
8, 7
9, 6
10, 6
7, 6
6, 3
6, 6
7, 3
4, 9
4, 1
3, 2
3, 2
3, 5
1, 2
4, 7
5, 7
6, 1
7, 3
3, 4
7, 4
11, 7
4, 5
9, 3
6, 3
3, 1
3, 4
5, 2
2, 5
5, 5
4, 4
4, 4
9, 2
6, 3
6, 1
5, 4
4, 1
1, 5
2, 2
3, 3
5, 5
5, 6
3, 6
4, 8
5, 6
6, 1
5, 5
4, 9
9, 9
2, 9
2, 2
6, 7
8, 7
6, 6
6, 7
5, 8
5, 8
4, 1
2, 11
5, 3
2, 7
4, 8
2, 4
4, 7
3, 2
3, 5
1, 7
1, 4
2, 5
4, 6
1, 5
3, 3
3, 4
3, 2
1, 2
2, 3
0, 1
4, 3
6, 3
3, 2
2, 1
4, 3
3, 1
2, 4
2, 2
3, 1
1, 2
0, 3
3, 3
3, 2
1, 2
3, 2
2, 6
3, 3
2, 5
2, 1
3, 2
3, 1
0, 2
3, 0
2, 3
5, 4
0, 2
2, 2
1, 1
0, 0
2, 0
2, 1
2, 1
0, 1
2, 2
4, 4
3, 5
2, 3
3, 0
2, 3
0, 3
1, 3
8, 1
1, 3
6, 1
3, 4
3, 2
5, 1
0, 7
3, 1
4, 3
3, 1
4, 2
8, 0
3, 4
6, 1
3, 2
5, 2
2, 0
7, 2
8, 5
7, 2
3, 1
4, 1
3, 3
1, 1
7, 0
1, 0
2, 0
1, 4
2, 5
1, 3
0, 2
2, 2
3, 6
1, 1
2, 2
0, 3
5, 2
2, 0
6, 3
5, 1
5, 4
2, 4
0, 2
2, 1
1, 1
4, 0
3, 1
3, 2
0, 4
1, 1
1, 2
2, 0
0, 1
0, 0
1, 2
0, 0
0, 1
0, 1
1, 1
4, 2
5, 2
1, 0
2, 2
1, 2
1, 1
3, 1
0, 0
2, 3
0, 2
1, 2
0, 0
2, 1
0, 2
2, 3
3, 3
3, 2
1, 0
3, 2
4, 4
2, 3
4, 4
2, 3
4, 4
4, 3
5, 2
3, 3
2, 4
0, 0
0, 1
1, 0
0, 1
1, 1
1, 1
0, 1
0, 1
1, 1
1, 0
1, 1
0, 0
2, 1
0, 0
2, 0
0, 3
1, 1
0, 0
0, 1
1, 2
2, 1
1, 0
1, 3
2, 2
1, 0
0, 0
1, 0
0, 0
0, 0
0, 0
1, 0
1, 0
3, 0
4, 4
0, 0
1, 0
0, 2
0, 1
1, 0
4, 2
1, 1
1, 1
1, 0
0, 3
1, 0
0, 0
1, 0
0, 0
2, 1
0, 0
1, 2
0, 0
0, 3
2, 1
1, 1
0, 1
2, 1
0, 0
0, 3
0, 1
0, 1
0, 0
0, 1
0, 2
1, 0
1, 0
0, 1
0, 1
0, 0
0, 2
1, 1
0, 1
1, 2
1, 2
0, 0
0, 0
0, 3
2, 0
2, 1
0, 0
0, 1
0, 0
2, 0
2, 1
1, 1
1, 1
1, 0
0, 0
0, 0
1, 0
1, 1
0, 0
1, 0
0, 0
0, 0
0, 1
2, 0
0, 2
1, 0
0, 0
0, 0
0, 1
0, 0
0, 2
0, 1
0, 0
1, 2
0, 0
0, 0
1, 1
1, 0
1, 0
0, 2
0, 0
0, 0
0, 0
0, 0
0, 0
0, 0
0, 1
0, 0
0, 0
1, 0
0, 1
0, 0
2, 1
0, 0
1, 0
0, 0
1, 0
0, 0
0, 0
1, 1
0, 0
3, 1
1, 0
0, 1
0, 0
0, 0
0, 1
1, 0
0, 0
0, 0
0, 0
0, 0
0, 0
1, 0
1, 0
2, 0
0, 0
0, 1
0, 0
0, 0
0, 1
0, 2
0, 0
1, 0
0, 1
0, 1
0, 1
0, 0
2, 1
0, 0
0, 2
0, 0
0, 1
0, 0
1, 1
1, 0
0, 0
1, 0
0, 0
0, 0
0, 0
0, 0
0, 0
0, 0
1, 0
1, 0
0, 0
0, 0
1, 0
0, 0
0, 1
0, 0
0, 0
0, 0
1, 0
0, 1
0, 0
1, 1
0, 0
0, 1
0, 0
0, 0
0, 0
0, 0
0, 1
1, 0
0, 0
0, 0
0, 0
0, 0
0, 0
0, 0
0, 0
1, 0
0, 0
0, 0
1, 0
0, 0
0, 0
0, 0
0, 0
0, 0
0, 1
0, 0
0, 0
0, 1
0, 0
1, 1
0, 0
0, 0
0, 0
1, 0
0, 0
1, 0
0, 0
0, 0
0, 0
0, 0
0, 0
0, 0
0, 0
0, 0
0, 0
0, 0
1, 0
0, 0
0, 0
0, 0
0, 0
0, 0
0, 0
0, 0
0, 0
0, 0
0, 0
0, 0
0, 0
1, 0
0, 1
0, 0
0, 0
0, 0
0, 0
0, 1
0, 1
0, 0
0, 2
0, 0
0, 0
0, 0
1, 0
1, 0
0, 0
1, 0
0, 0
0, 0
0, 0
0, 0
0, 1
0, 0
0, 0
0, 0
0, 0
0, 0
0, 0
0, 0
0, 1
0, 0
0, 0
0, 0
0, 0
0, 0
0, 0
0, 0
0, 0
0, 0
0, 1
0, 1
1, 0
0, 0
0, 1
0, 0
0, 0
0, 0
0, 0
0, 0
0, 0
0, 0
0, 0
0, 0
0, 0
1, 0
0, 0
0, 0
0, 0
0, 0
0, 0
0, 0
0, 0
1, 0
0, 0
1, 0
0, 0
0, 0
0, 0
0, 0
0, 0
0, 1
0, 0
0, 0
0, 0
0, 1
0, 0
0, 0
0, 0
0, 0
0, 0
0, 0
0, 0
0, 1
0, 0
0, 1
1, 0
0, 0
0, 0
0, 0
0, 1
0, 0
0, 0
0, 0
0, 0
0, 0
0, 0
0, 0
0, 0
0, 0
0, 0
0, 0
0, 0
0, 0
0, 0
0, 0
0, 0
0, 0
0, 0
0, 0
1, 1
0, 0
0, 0
0, 0
0, 0
0, 0
0, 0
0, 0
1, 0
0, 0
0, 0
0, 0
0, 0
0, 0
0, 0
0, 0
0, 0
0, 0
0, 0
0, 0
0, 0
0, 0
0, 0
1, 0
0, 0
0, 0
0, 0
0, 0
0, 0
0, 0
0, 0
0, 0
0, 0
0, 0
0, 0
0, 0
0, 0
0, 0
0, 0
0, 0
0, 0
0, 0
0, 0
0, 0
0, 0
0, 0
0, 0
0, 0
0, 0
0, 0
0, 0
0, 0
0, 1
0, 0
0, 0
0, 0
0, 0
0, 0
0, 0
0, 0
0, 0
0, 0
0, 0
0, 0
0, 0
0, 0
0, 0
0, 0
0, 0
0, 0
0, 0
0, 0
0, 0
0, 0
0, 0
0, 0
0, 0
0, 0
0, 0
0, 0
0, 0
0, 0
0, 0
0, 1
0, 0
0, 0
0, 0
0, 0
0, 0
0, 0
0, 0
0, 0
0, 0
0, 0
0, 0
0, 0
0, 0
0, 0
0, 0
0, 0
0, 0
0, 0
0, 0
0, 0
0, 0
0, 0
0, 0
0, 0
0, 0
0, 0
0, 0
0, 0
0, 0
0, 0
0, 0
0, 0
0, 0
0, 0
0, 0
0, 0
0, 0
0, 0
0, 0
0, 0
0, 0
0, 0
0, 0
0, 0
0, 0
1, 0
0, 0
0, 0
0, 0
0, 0
0, 0
0, 0
0, 0
0, 0
0, 0
0, 0
0, 0
0, 0
0, 0
0, 0
0, 0
0, 0
0, 0
0, 0
0, 0
0, 0
0, 0
0, 0
0, 0
0, 0
0, 0
0, 0
0, 0
0, 0
0, 0
0, 0
0, 0
0, 0
0, 0
0, 0
0, 0
0, 0
0, 0
0, 0
0, 0
0, 0
0, 0
0, 0
0, 0
0, 0
0, 0
0, 0
0, 0
0, 0
0, 0
0, 0
0, 0
0, 0
0, 0
0, 0
0, 0
0, 0
0, 0
0, 0
0, 0
0, 0
0, 0
0, 0
0, 0
0, 0
0, 0
0, 0
0, 0
0, 0
0, 0
0, 0
0, 0
0, 0
0, 0
0, 0
0, 0
0, 0
0, 0
0, 0
0, 0
0, 0
0, 0
0, 0
0, 0
0, 0
0, 0
0, 0
0, 0
0, 0
0, 0
0, 0
0, 0
0, 0
0, 0
0, 0
0, 0
0, 0
0, 0
0, 0
0, 0
0, 0
0, 0
0, 0
0, 0
0, 0
0, 0
0, 0
0, 0
0, 0
0, 0
0, 0
0, 0
0, 0
0, 0
0, 0
0, 0
0, 0
0, 0
0, 0
0, 0
0, 0
0, 0
0, 0
0, 0
0, 0
0, 0
0, 0
0, 0
0, 0
0, 0
0, 0
0, 0
0, 0
0, 0
0, 0
0, 0
0, 0
0, 0
0, 0
0, 0
0, 0
0, 0
0, 0
0, 0
0, 0
0, 0
0, 0
0, 0
0, 0
0, 0
0, 0
0, 0
0, 0
0, 0
0, 0
0, 0
0, 0
0, 0
0, 0
0, 0
0, 0
0, 0
0, 0
0, 0
0, 0
0, 0
0, 0
0, 0
0, 0
0, 0
0, 0
0, 0
0, 0
0, 0
0, 0
0, 0
0, 0
0, 0
0, 0
0, 0
0, 0
0, 0
0, 0
0, 0
0, 0
0, 0
0, 0
0, 0
0, 0
0, 0
0, 0
0, 0
0, 0
0, 0
0, 0
0, 0
0, 0
0, 0
0, 0
0, 0
0, 0
0, 0
0, 0
0, 0
0, 0
0, 0
0, 0
0, 0
0, 0
0, 0
0, 0
0, 0
0, 0
0, 0
0, 0
0, 0
0, 0
0, 0
0, 0
0, 0
0, 0
0, 0
0, 0
0, 0
0, 0
0, 0
0, 0
0, 0
0, 0
0, 0
0, 0
0, 0
0, 0
0, 0
0, 0
0, 0
0, 0
0, 0
0, 0
0, 0
0, 0
0, 0
0, 0
0, 0
0, 0
0, 0
0, 0
0, 0
0, 0
0, 0
0, 0
0, 0
0, 0
0, 0
0, 0
0, 0
0, 0
0, 0
0, 0
0, 0
0, 0
0, 0
0, 0
0, 0
0, 0
0, 0
0, 0
0, 0
0, 0
0, 0
0, 0
0, 0
0, 0
0, 0
0, 0
0, 0
0, 0
0, 0
0, 0
0, 0
0, 0
0, 0
0, 0
0, 0
0, 0
0, 0
0, 0
0, 0
0, 0
0, 0
0, 0
0, 0
0, 0
0, 0
0, 0
0, 0
0, 0
0, 0
0, 0
0, 0
0, 0
0, 0
0, 0
0, 0
0, 0
0, 0
0, 0
0, 0
0, 0
0, 0
0, 0
0, 0
0, 0
0, 0
0, 0
0, 0
0, 0
0, 0
0, 0
0, 0
0, 0
0, 0
0, 0
0, 0
0, 0
0, 0
0, 0
0, 0
#ENDOFDATA     end of spectrum data