File: host_upload/06-09-2024/ps_0852/dump3/ps__0852shot_2238.msa
#FORMAT      : EMSA/MAS spectral data file
#VERSION     : TC202v2.0 PIXL
#TITLE       : N/A
#DATE        :       Date in the format DD-MMM-YYYY, for example 07-JUL-2010
#TIME        :             The time of day at which the spectrum was recorded, in 24-hour format
#OWNER       : PIXL Flight Model       (PIXL will use this to indicate which instrument took the data.)
#NPOINTS     : 4096     Number of data points in the spectrum (This can be zero for configuration only files)
#NCOLUMNS    : 2     Number of data columns in the spectrum (This can be zero for configuration only files)
#XUNITS      : eV
#YUNITS      : COUNTS
#DATATYPE    : YY
#XPERCHAN    : 7.862, 7.881   eV per channel (separate by commas if more than one detector)
#OFFSET      : 18.5, -22.4         eV of first channel  (separate by commas if more than one detector
#SIGNALTYPE  : XRF
#YP_TEMP     : 2.267
#LIVETIME    : 8.56707, 8.51638   seconds (separate by commas if more than one detector)
#REALTIME    : 10, 10.0   seconds (separate by commas if more than one detector)
#SPECTRUM    : start of spectrum data
0, 0
0, 0
0, 0
0, 0
0, 0
0, 0
0, 0
0, 0
0, 0
0, 0
0, 0
0, 0
0, 0
0, 0
0, 0
0, 0
0, 0
0, 0
0, 0
0, 0
0, 0
0, 0
0, 0
0, 0
0, 0
0, 0
0, 0
0, 0
0, 0
0, 0
0, 0
1, 0
0, 0
0, 0
0, 0
0, 0
0, 0
1, 1
1, 0
0, 1
2, 0
1, 1
4, 1
4, 2
1, 3
3, 1
0, 0
3, 2
9, 5
16, 13
31, 20
31, 47
48, 61
74, 85
82, 73
83, 82
63, 78
41, 44
28, 19
19, 11
20, 3
3, 6
5, 6
8, 15
12, 5
6, 7
14, 3
17, 11
26, 18
51, 49
98, 89
195, 180
277, 231
364, 350
447, 430
448, 404
365, 359
303, 308
217, 189
139, 92
72, 67
44, 34
15, 18
12, 13
4, 3
1, 6
2, 1
3, 0
1, 0
1, 1
1, 1
1, 0
1, 2
2, 2
1, 1
1, 0
3, 1
2, 3
4, 5
4, 2
0, 3
4, 3
1, 4
1, 2
2, 2
3, 3
3, 5
4, 2
10, 13
18, 5
31, 7
35, 11
67, 21
91, 27
150, 24
132, 18
126, 20
119, 13
74, 24
60, 14
44, 13
29, 24
23, 15
17, 10
13, 11
15, 17
13, 13
11, 8
8, 6
7, 4
4, 5
5, 8
0, 2
0, 3
4, 2
1, 6
1, 6
1, 4
4, 6
1, 12
1, 5
5, 9
6, 5
5, 2
5, 6
3, 1
2, 3
3, 2
4, 8
1, 6
1, 11
3, 12
6, 21
9, 18
12, 24
19, 34
19, 36
17, 25
25, 23
17, 12
21, 8
13, 11
11, 10
2, 3
2, 4
2, 2
3, 2
8, 2
6, 4
3, 2
1, 1
5, 5
5, 3
11, 2
8, 3
6, 4
6, 5
10, 2
12, 2
15, 1
12, 2
14, 3
15, 0
19, 4
16, 3
9, 1
25, 1
22, 3
23, 4
19, 7
11, 18
23, 8
19, 8
15, 15
18, 18
22, 26
20, 23
17, 39
14, 22
12, 34
13, 19
13, 25
14, 28
10, 16
6, 8
5, 7
8, 6
4, 6
2, 11
4, 12
3, 8
7, 8
3, 15
1, 16
3, 14
4, 18
2, 14
5, 19
2, 14
5, 16
3, 12
5, 12
6, 14
4, 8
6, 6
9, 11
5, 10
10, 16
12, 27
14, 23
16, 34
14, 33
12, 27
11, 22
12, 30
13, 22
7, 15
14, 18
13, 13
15, 5
17, 9
18, 5
23, 16
38, 10
42, 12
38, 13
55, 26
67, 43
73, 56
76, 61
94, 55
65, 57
73, 54
63, 50
54, 37
38, 17
31, 17
22, 12
26, 22
18, 14
16, 23
31, 26
51, 58
83, 102
162, 178
288, 366
468, 617
698, 971
1057, 1365
1508, 1778
1981, 2163
2227, 2400
2445, 2447
2374, 2288
2120, 1948
1728, 1555
1294, 1128
921, 757
553, 496
391, 264
195, 159
106, 85
61, 40
27, 28
17, 18
16, 19
16, 30
15, 22
21, 23
25, 26
28, 39
31, 44
52, 54
78, 106
118, 124
135, 179
208, 256
240, 333
300, 345
304, 341
358, 388
325, 314
332, 262
234, 223
201, 171
120, 123
98, 62
61, 59
33, 26
19, 9
22, 13
21, 11
19, 10
9, 10
13, 16
16, 15
19, 17
19, 8
16, 11
19, 12
19, 13
11, 14
13, 13
8, 10
16, 5
7, 3
8, 4
7, 2
4, 9
0, 7
4, 2
1, 5
3, 10
8, 7
6, 3
1, 7
1, 3
2, 3
2, 5
3, 4
6, 4
7, 6
7, 2
11, 6
2, 9
6, 5
9, 8
8, 4
6, 8
14, 8
10, 8
12, 3
12, 7
9, 0
6, 3
5, 4
5, 4
7, 3
5, 8
8, 5
7, 7
2, 11
8, 6
11, 6
6, 11
5, 6
13, 10
8, 6
9, 5
9, 4
8, 4
12, 6
8, 4
7, 8
4, 6
4, 7
6, 6
6, 7
4, 9
1, 5
3, 9
6, 6
3, 3
5, 9
3, 6
1, 3
3, 3
2, 1
2, 3
9, 2
5, 3
5, 4
2, 3
2, 1
5, 4
5, 5
6, 5
2, 4
3, 7
1, 5
0, 5
4, 5
1, 3
3, 1
3, 5
6, 8
3, 0
3, 7
5, 5
3, 9
2, 4
3, 2
4, 5
2, 0
4, 1
1, 7
3, 3
8, 3
6, 5
7, 3
2, 3
7, 6
8, 3
6, 2
5, 3
9, 2
7, 9
3, 1
9, 6
10, 9
11, 5
8, 12
5, 7
7, 12
6, 9
5, 9
6, 16
8, 3
4, 12
5, 4
3, 7
3, 7
3, 6
4, 3
6, 4
3, 4
8, 4
3, 2
5, 6
0, 3
3, 6
5, 2
1, 2
3, 4
3, 2
2, 2
4, 4
2, 2
2, 4
4, 5
2, 3
1, 3
1, 4
0, 2
5, 4
3, 3
3, 2
2, 3
1, 4
1, 5
2, 4
4, 4
1, 1
1, 3
3, 1
5, 3
2, 1
2, 3
2, 3
5, 4
3, 1
4, 1
1, 2
3, 2
3, 2
3, 1
5, 2
2, 3
5, 4
3, 1
3, 5
3, 0
1, 3
4, 4
3, 2
3, 2
5, 4
4, 3
3, 3
1, 2
3, 3
4, 4
4, 6
1, 1
4, 2
2, 3
0, 3
2, 4
1, 2
0, 3
1, 3
5, 2
1, 2
1, 0
1, 0
4, 4
1, 4
1, 3
4, 2
3, 2
0, 1
1, 2
2, 5
3, 4
2, 0
1, 1
3, 1
0, 1
1, 4
4, 0
2, 6
0, 0
0, 1
1, 0
2, 3
3, 2
2, 2
1, 2
3, 7
2, 1
4, 4
5, 0
3, 3
3, 2
5, 1
5, 1
1, 3
3, 4
6, 1
1, 2
2, 1
2, 0
1, 2
2, 1
1, 2
2, 0
1, 5
2, 2
6, 0
0, 1
3, 2
3, 2
1, 2
2, 2
2, 1
0, 1
1, 2
2, 1
1, 2
0, 6
1, 1
1, 0
2, 1
3, 1
0, 2
1, 4
1, 0
1, 1
1, 1
1, 0
1, 1
0, 3
2, 1
2, 1
0, 0
2, 0
2, 0
1, 1
2, 2
1, 1
2, 1
0, 2
0, 1
1, 0
1, 0
0, 1
0, 1
0, 1
0, 1
4, 2
0, 1
1, 0
1, 2
1, 1
0, 2
1, 1
3, 2
0, 1
3, 0
6, 2
1, 2
0, 1
0, 0
0, 0
1, 0
0, 3
2, 1
1, 3
1, 0
0, 1
0, 1
1, 0
2, 0
1, 1
1, 0
1, 0
0, 1
0, 1
1, 0
0, 0
2, 2
3, 2
1, 0
3, 1
0, 0
1, 0
2, 0
1, 1
1, 0
1, 0
1, 1
1, 0
0, 1
0, 1
0, 2
1, 1
0, 2
0, 0
1, 1
0, 1
0, 1
1, 0
0, 0
4, 1
0, 1
0, 0
1, 1
0, 0
0, 1
2, 1
0, 0
1, 2
0, 0
0, 0
1, 0
1, 0
2, 1
0, 0
1, 0
1, 0
1, 0
0, 0
1, 0
1, 0
1, 0
0, 0
1, 0
0, 0
0, 0
0, 0
0, 0
0, 1
0, 2
0, 0
1, 0
0, 2
2, 1
0, 1
0, 1
1, 1
1, 1
1, 0
1, 1
0, 1
0, 0
2, 0
2, 0
1, 0
1, 1
0, 1
1, 0
0, 0
1, 1
0, 0
0, 0
1, 1
0, 0
0, 0
0, 0
0, 1
0, 1
0, 0
1, 1
0, 0
0, 0
0, 2
1, 0
0, 0
1, 0
1, 1
1, 0
0, 0
0, 0
1, 0
2, 0
0, 0
0, 0
0, 0
0, 0
0, 0
1, 0
0, 0
0, 0
0, 0
0, 0
0, 2
0, 1
0, 1
2, 0
0, 0
1, 0
0, 1
1, 0
0, 0
0, 0
0, 0
0, 0
1, 1
1, 0
0, 0
0, 0
0, 0
0, 1
0, 0
0, 0
0, 0
1, 0
0, 0
0, 0
1, 0
0, 0
0, 0
0, 0
0, 1
0, 0
0, 0
1, 0
0, 0
0, 0
1, 0
0, 0
0, 1
0, 0
0, 0
1, 0
0, 0
1, 0
0, 1
1, 0
0, 1
1, 0
0, 0
0, 0
1, 0
0, 0
0, 0
0, 0
0, 1
0, 0
0, 0
0, 0
0, 0
1, 0
0, 0
0, 0
0, 0
0, 3
0, 1
0, 1
0, 0
0, 0
0, 0
1, 0
0, 0
0, 0
0, 1
0, 2
1, 0
0, 0
0, 0
2, 0
0, 1
0, 2
0, 0
0, 0
1, 1
0, 0
0, 0
1, 0
0, 0
0, 0
0, 0
0, 0
0, 1
0, 0
0, 0
0, 0
0, 0
0, 0
0, 0
1, 1
0, 0
0, 0
0, 1
0, 0
0, 0
0, 0
1, 0
0, 0
0, 0
0, 0
0, 0
1, 0
0, 1
1, 1
0, 0
0, 1
1, 0
0, 0
0, 0
0, 0
0, 0
0, 0
0, 1
0, 0
0, 0
0, 0
0, 0
0, 1
0, 0
0, 0
0, 0
0, 0
0, 0
0, 0
0, 0
0, 0
0, 0
0, 0
0, 0
0, 0
0, 0
0, 0
0, 0
0, 0
0, 0
0, 0
0, 0
0, 0
0, 1
0, 0
0, 0
0, 0
0, 1
0, 0
1, 0
0, 0
0, 0
0, 0
0, 0
0, 0
0, 0
1, 0
0, 0
0, 0
0, 1
0, 0
1, 0
1, 0
0, 0
0, 0
0, 0
0, 0
0, 0
0, 0
0, 0
0, 0
0, 0
1, 0
0, 0
0, 0
0, 0
0, 0
0, 0
0, 0
0, 0
0, 0
0, 0
0, 0
0, 0
0, 0
0, 0
1, 0
0, 0
0, 0
0, 0
0, 0
0, 0
0, 0
0, 0
0, 0
0, 0
0, 0
0, 0
0, 1
0, 0
0, 0
0, 0
0, 0
0, 0
0, 0
0, 0
0, 0
0, 0
0, 0
0, 0
0, 0
0, 0
0, 0
0, 1
0, 0
0, 0
0, 0
0, 0
0, 0
0, 0
0, 0
0, 0
0, 0
0, 0
0, 0
0, 0
0, 0
0, 0
0, 0
0, 0
0, 0
0, 0
0, 0
0, 0
0, 0
0, 0
0, 0
0, 0
0, 0
0, 0
0, 0
0, 1
0, 0
0, 0
0, 0
0, 0
0, 0
0, 0
0, 0
0, 0
0, 0
0, 0
0, 0
0, 0
0, 0
0, 0
0, 0
0, 0
0, 0
0, 0
0, 0
0, 0
0, 0
0, 0
0, 0
0, 0
0, 0
0, 0
0, 0
0, 0
0, 0
0, 0
0, 0
0, 0
0, 0
0, 0
0, 0
0, 0
0, 0
0, 0
0, 0
0, 0
0, 0
0, 0
0, 0
0, 0
0, 0
0, 0
0, 0
0, 0
0, 0
0, 0
0, 0
0, 0
0, 0
0, 0
0, 0
0, 0
0, 0
0, 0
0, 0
0, 0
0, 0
0, 0
0, 0
0, 0
0, 0
0, 0
0, 0
0, 0
0, 0
0, 0
0, 0
0, 0
0, 0
0, 0
0, 0
0, 0
0, 0
0, 0
0, 0
0, 0
0, 0
0, 0
0, 0
0, 0
0, 0
0, 0
0, 0
0, 0
0, 0
0, 0
0, 0
0, 0
0, 0
0, 0
0, 0
0, 0
0, 0
0, 0
0, 0
0, 0
0, 0
0, 0
0, 0
0, 0
0, 0
0, 0
0, 0
0, 0
0, 0
0, 0
0, 0
0, 0
0, 0
0, 0
0, 0
0, 0
0, 0
0, 0
0, 0
0, 0
0, 0
0, 0
0, 0
0, 0
0, 0
0, 0
0, 0
0, 0
0, 0
0, 0
0, 0
0, 0
0, 0
0, 0
0, 0
0, 0
0, 0
0, 0
0, 0
0, 0
0, 0
0, 0
0, 0
0, 0
0, 0
0, 0
0, 0
0, 0
0, 0
0, 0
0, 0
0, 0
0, 0
0, 0
0, 0
0, 0
0, 0
0, 0
0, 0
0, 0
0, 0
0, 0
0, 0
0, 0
0, 0
0, 0
0, 0
0, 0
0, 0
0, 0
0, 0
0, 0
0, 0
0, 0
0, 0
0, 0
0, 0
0, 0
0, 0
0, 0
0, 0
0, 0
0, 0
0, 0
0, 0
0, 0
0, 0
0, 0
0, 0
0, 0
0, 0
0, 0
0, 0
0, 0
0, 0
0, 0
0, 0
0, 0
0, 0
0, 0
0, 0
0, 0
0, 0
0, 0
0, 0
0, 0
0, 0
0, 0
0, 0
0, 0
0, 0
0, 0
0, 0
0, 0
0, 0
0, 0
0, 0
0, 0
0, 0
0, 0
0, 0
0, 0
0, 0
0, 0
0, 0
0, 0
0, 0
0, 0
0, 0
0, 0
0, 0
0, 0
0, 0
0, 0
0, 0
0, 0
0, 0
0, 0
0, 0
0, 0
0, 0
0, 0
0, 0
0, 0
0, 0
0, 0
0, 0
0, 0
0, 0
0, 0
0, 0
0, 0
0, 0
0, 0
0, 0
0, 0
0, 0
0, 0
0, 0
0, 0
0, 0
0, 0
0, 0
0, 0
0, 0
0, 0
0, 0
0, 0
0, 0
0, 0
0, 0
0, 0
0, 0
0, 0
0, 0
0, 0
0, 0
0, 0
0, 0
0, 0
0, 0
0, 0
0, 0
0, 0
0, 0
0, 0
0, 0
0, 0
0, 0
0, 0
0, 0
0, 0
0, 0
0, 0
0, 0
0, 0
0, 0
0, 0
0, 0
0, 0
0, 0
0, 0
0, 0
0, 0
0, 0
0, 0
0, 0
0, 0
0, 0
0, 0
0, 0
0, 0
0, 0
0, 0
0, 0
0, 0
0, 0
0, 0
0, 0
0, 0
0, 0
0, 0
0, 0
0, 0
0, 0
0, 0
0, 0
0, 0
0, 0
0, 0
0, 0
0, 0
0, 0
0, 0
0, 0
0, 0
0, 0
0, 0
0, 0
0, 0
0, 0
0, 0
0, 0
0, 0
0, 0
0, 0
0, 0
0, 0
0, 0
0, 0
0, 0
0, 0
0, 0
0, 0
0, 0
0, 0
0, 0
0, 0
0, 0
0, 0
0, 0
0, 0
0, 0
0, 0
0, 0
0, 0
0, 0
0, 0
0, 0
0, 0
0, 0
0, 0
0, 0
0, 0
0, 0
0, 0
0, 0
0, 0
0, 0
0, 0
0, 0
0, 0
0, 0
0, 0
0, 0
0, 0
0, 0
0, 0
#ENDOFDATA     end of spectrum data