File: host_upload/06-09-2024/ps_0852/dump3/ps__0852shot_2112.msa
#FORMAT      : EMSA/MAS spectral data file
#VERSION     : TC202v2.0 PIXL
#TITLE       : N/A
#DATE        :       Date in the format DD-MMM-YYYY, for example 07-JUL-2010
#TIME        :             The time of day at which the spectrum was recorded, in 24-hour format
#OWNER       : PIXL Flight Model       (PIXL will use this to indicate which instrument took the data.)
#NPOINTS     : 4096     Number of data points in the spectrum (This can be zero for configuration only files)
#NCOLUMNS    : 2     Number of data columns in the spectrum (This can be zero for configuration only files)
#XUNITS      : eV
#YUNITS      : COUNTS
#DATATYPE    : YY
#XPERCHAN    : 7.862, 7.881   eV per channel (separate by commas if more than one detector)
#OFFSET      : 18.5, -22.4         eV of first channel  (separate by commas if more than one detector
#SIGNALTYPE  : XRF
#YP_TEMP     : 2.396
#LIVETIME    : 8.55214, 8.55922   seconds (separate by commas if more than one detector)
#REALTIME    : 10, 10.0   seconds (separate by commas if more than one detector)
#SPECTRUM    : start of spectrum data
0, 0
0, 0
0, 0
0, 0
0, 0
0, 0
0, 0
0, 0
0, 0
0, 0
0, 0
0, 0
0, 0
0, 0
0, 0
0, 0
0, 0
0, 0
0, 0
0, 0
0, 0
0, 0
0, 0
0, 0
0, 0
0, 0
0, 0
0, 0
0, 0
0, 0
0, 0
0, 0
0, 1
0, 1
0, 2
0, 4
3, 1
1, 1
2, 3
2, 2
0, 3
1, 1
0, 4
1, 1
1, 0
4, 3
5, 1
2, 5
5, 4
6, 13
18, 26
25, 32
43, 39
63, 61
46, 83
58, 60
46, 49
33, 34
20, 18
11, 13
13, 6
7, 7
4, 12
9, 9
3, 9
9, 4
10, 16
12, 13
18, 18
30, 50
69, 76
143, 141
198, 225
281, 313
323, 352
302, 371
282, 315
218, 258
164, 172
102, 101
49, 57
33, 28
13, 16
16, 17
15, 6
1, 8
2, 3
5, 3
3, 3
6, 2
10, 3
6, 18
14, 21
23, 44
61, 74
75, 132
143, 175
185, 247
205, 302
227, 286
210, 235
124, 209
130, 160
87, 117
60, 96
38, 117
22, 127
29, 135
35, 116
39, 114
40, 110
50, 98
55, 90
71, 86
78, 98
68, 75
70, 66
59, 53
36, 52
32, 26
26, 39
31, 35
35, 28
21, 17
11, 21
23, 20
12, 20
12, 22
14, 12
5, 9
5, 7
5, 2
0, 1
2, 4
8, 2
3, 3
1, 4
0, 5
6, 1
6, 6
11, 4
6, 3
7, 9
4, 2
2, 3
2, 6
5, 1
1, 2
6, 7
4, 9
7, 6
16, 15
19, 26
25, 41
55, 77
70, 107
94, 113
82, 104
87, 88
91, 80
44, 59
43, 48
33, 31
20, 16
8, 17
9, 16
6, 12
10, 6
7, 14
13, 20
13, 14
14, 17
19, 22
12, 17
12, 12
7, 14
5, 11
5, 7
3, 5
4, 3
5, 5
3, 6
5, 9
4, 1
5, 3
1, 2
2, 9
6, 9
9, 11
9, 10
13, 17
9, 14
12, 10
25, 16
21, 14
16, 9
20, 16
25, 17
19, 21
16, 14
15, 19
15, 12
12, 18
5, 10
4, 12
4, 10
7, 16
4, 14
5, 16
6, 23
6, 29
3, 39
2, 47
6, 53
7, 55
6, 43
6, 34
8, 29
8, 20
6, 19
8, 15
8, 20
10, 8
7, 10
10, 8
9, 18
20, 14
8, 26
10, 36
25, 34
13, 44
22, 34
19, 42
16, 28
13, 25
19, 17
16, 15
11, 15
7, 10
4, 8
9, 7
14, 8
8, 7
7, 16
9, 17
25, 21
22, 45
26, 44
40, 50
36, 65
41, 84
42, 69
57, 82
44, 54
36, 52
29, 48
20, 31
12, 37
17, 22
9, 19
22, 29
27, 32
36, 65
64, 95
136, 201
237, 352
428, 567
655, 896
923, 1356
1250, 1783
1672, 2070
1957, 2287
1985, 2434
1957, 2260
1883, 1922
1494, 1577
1118, 1101
803, 754
505, 449
316, 299
182, 145
95, 66
44, 36
36, 26
22, 23
12, 10
7, 14
6, 24
14, 26
12, 17
22, 26
29, 37
32, 48
51, 84
85, 124
135, 179
168, 221
216, 296
305, 320
291, 320
309, 339
279, 346
247, 275
185, 223
144, 156
115, 91
74, 66
52, 37
28, 13
16, 18
9, 13
12, 12
12, 9
14, 5
7, 11
9, 10
10, 11
9, 17
10, 18
10, 14
12, 17
10, 4
8, 9
11, 10
4, 4
9, 3
10, 4
10, 6
10, 11
14, 5
7, 10
6, 7
4, 12
6, 8
10, 12
3, 11
5, 18
3, 12
4, 12
2, 18
5, 8
9, 8
6, 7
3, 7
7, 7
6, 12
4, 5
8, 7
2, 6
12, 11
3, 16
8, 11
10, 11
6, 9
5, 9
5, 7
4, 11
6, 12
2, 9
5, 11
1, 10
5, 4
7, 6
7, 4
5, 6
6, 3
11, 2
9, 2
7, 4
6, 5
7, 5
6, 2
1, 4
5, 5
3, 5
5, 4
4, 5
2, 5
1, 4
1, 3
6, 6
2, 6
4, 3
0, 4
2, 6
7, 13
3, 5
3, 7
1, 10
9, 8
3, 9
3, 12
1, 7
5, 10
5, 8
4, 5
5, 4
2, 5
3, 5
4, 2
8, 1
6, 2
4, 3
3, 4
3, 6
3, 4
4, 1
4, 3
3, 11
2, 3
7, 6
2, 5
2, 5
5, 5
2, 5
4, 9
1, 1
7, 6
3, 7
6, 6
4, 4
1, 7
3, 6
4, 3
2, 5
1, 3
4, 5
6, 6
1, 3
2, 3
4, 2
1, 6
1, 4
4, 3
4, 4
5, 3
8, 1
7, 3
5, 4
5, 4
3, 0
5, 2
4, 0
7, 4
4, 3
4, 8
7, 2
5, 2
4, 2
4, 1
6, 2
2, 4
4, 5
2, 1
4, 1
3, 0
2, 6
3, 4
2, 4
1, 6
3, 6
1, 4
1, 4
3, 1
1, 4
3, 1
4, 5
3, 3
1, 5
3, 3
5, 2
0, 1
5, 2
2, 1
0, 1
4, 1
3, 1
1, 0
3, 1
2, 2
2, 3
3, 3
1, 5
5, 2
0, 2
5, 2
2, 6
3, 1
0, 5
2, 2
2, 2
1, 4
3, 3
3, 2
0, 0
3, 0
1, 4
2, 1
3, 1
2, 2
0, 4
1, 1
0, 0
0, 3
3, 4
2, 4
2, 0
2, 3
0, 0
1, 4
0, 1
1, 2
2, 2
5, 1
3, 0
3, 1
4, 4
2, 2
1, 2
3, 0
0, 2
4, 0
3, 0
0, 1
1, 1
0, 1
0, 1
2, 3
3, 2
0, 5
1, 3
0, 2
2, 2
2, 2
3, 4
2, 3
0, 3
2, 2
3, 3
3, 3
2, 3
4, 2
0, 6
2, 3
5, 2
3, 2
2, 2
4, 3
2, 3
4, 5
0, 1
2, 0
2, 3
1, 2
1, 1
1, 4
2, 0
1, 0
2, 1
3, 2
0, 2
1, 2
1, 3
1, 5
0, 4
3, 1
3, 2
2, 3
2, 2
1, 4
0, 2
2, 1
0, 0
2, 1
1, 1
0, 0
0, 0
1, 0
1, 2
0, 1
0, 1
2, 2
0, 2
0, 0
0, 1
0, 2
1, 2
1, 1
1, 1
1, 1
1, 0
1, 0
2, 4
1, 2
1, 2
2, 0
0, 2
0, 1
2, 1
1, 2
3, 1
0, 3
1, 1
1, 0
1, 2
1, 1
0, 0
1, 0
0, 1
1, 0
0, 0
1, 0
0, 0
1, 1
1, 3
2, 1
1, 1
0, 1
0, 1
2, 1
1, 1
2, 1
0, 0
0, 0
1, 3
3, 0
2, 0
2, 0
2, 2
2, 1
0, 1
0, 0
0, 2
0, 1
2, 1
1, 0
2, 1
0, 0
0, 0
2, 0
0, 1
1, 0
0, 1
1, 1
2, 1
0, 1
2, 0
0, 1
3, 0
3, 0
0, 0
0, 0
1, 0
0, 0
0, 0
0, 2
0, 1
1, 0
0, 0
2, 1
0, 1
0, 0
0, 3
3, 2
0, 0
0, 0
1, 3
0, 3
4, 1
3, 2
1, 1
0, 2
0, 0
1, 1
1, 1
1, 0
1, 0
1, 0
1, 1
0, 0
0, 1
0, 0
1, 1
1, 0
0, 1
0, 0
0, 0
1, 0
0, 0
0, 0
1, 0
0, 0
0, 0
2, 0
0, 0
0, 0
1, 0
0, 0
0, 0
0, 0
0, 2
1, 0
0, 3
2, 0
1, 0
1, 0
0, 0
0, 1
1, 0
1, 1
0, 1
0, 0
2, 0
0, 2
0, 0
0, 0
0, 0
0, 2
0, 1
0, 0
1, 2
0, 0
0, 1
0, 0
1, 0
0, 1
2, 1
2, 0
1, 0
1, 0
0, 1
0, 0
1, 0
0, 1
0, 1
0, 2
0, 0
0, 0
0, 1
0, 0
0, 0
1, 0
0, 1
0, 0
0, 0
0, 0
0, 0
0, 0
0, 0
1, 1
0, 0
0, 0
1, 0
1, 0
0, 0
0, 0
0, 0
0, 0
1, 1
0, 0
0, 0
0, 1
0, 0
0, 0
1, 0
0, 0
1, 0
0, 0
0, 0
1, 1
0, 1
1, 0
0, 0
0, 1
0, 0
0, 0
0, 0
0, 1
0, 0
1, 0
0, 0
0, 0
0, 0
0, 0
0, 1
0, 0
0, 0
1, 0
0, 0
0, 0
1, 0
1, 0
0, 0
0, 1
0, 0
0, 0
1, 0
0, 0
0, 0
0, 0
0, 0
0, 0
0, 0
0, 0
0, 0
0, 0
0, 0
1, 1
1, 0
0, 1
1, 0
0, 1
0, 0
0, 0
0, 0
0, 0
0, 0
1, 0
0, 0
0, 0
0, 0
0, 0
1, 0
0, 0
0, 1
0, 0
0, 0
0, 0
0, 0
0, 0
0, 0
0, 1
0, 0
1, 0
0, 0
0, 0
0, 0
0, 0
0, 0
0, 0
0, 0
0, 0
0, 0
0, 0
0, 0
1, 0
0, 0
0, 0
0, 0
0, 0
0, 0
0, 0
0, 0
0, 0
0, 0
1, 1
0, 0
0, 0
0, 0
0, 0
0, 0
0, 0
0, 0
0, 0
0, 0
1, 1
0, 0
1, 0
0, 0
1, 0
0, 0
0, 0
0, 0
0, 1
0, 0
0, 0
0, 0
0, 0
0, 0
0, 0
0, 1
0, 1
0, 0
0, 0
0, 0
0, 0
0, 0
0, 0
0, 0
0, 0
0, 0
0, 0
0, 0
0, 0
1, 0
0, 0
1, 1
0, 0
0, 1
1, 1
0, 0
0, 0
0, 0
0, 0
0, 0
0, 0
0, 0
0, 0
0, 1
0, 0
0, 0
0, 0
0, 0
0, 0
0, 0
0, 1
0, 0
0, 0
0, 0
0, 0
0, 0
0, 1
0, 0
0, 0
0, 0
0, 0
0, 0
0, 0
0, 0
0, 0
0, 0
0, 0
0, 0
0, 0
0, 0
0, 0
0, 0
0, 0
0, 0
0, 0
0, 0
0, 0
0, 0
0, 0
0, 0
0, 0
0, 0
0, 0
0, 0
0, 0
0, 0
0, 0
0, 0
0, 0
0, 0
0, 0
0, 0
0, 0
0, 0
0, 0
0, 0
0, 0
0, 0
0, 0
0, 0
0, 0
0, 0
0, 0
0, 0
0, 1
0, 0
0, 0
0, 0
0, 0
0, 0
0, 0
0, 0
0, 0
0, 0
0, 0
0, 0
0, 0
0, 0
0, 0
0, 0
0, 0
0, 0
0, 0
0, 0
0, 0
0, 0
0, 0
0, 0
0, 0
0, 0
0, 0
0, 0
0, 0
0, 0
0, 0
0, 0
0, 0
0, 0
0, 0
0, 0
0, 0
0, 0
0, 0
0, 0
0, 0
0, 1
0, 0
0, 0
0, 0
0, 0
0, 0
0, 0
0, 0
0, 0
0, 0
0, 0
0, 0
0, 0
0, 0
0, 0
0, 0
0, 0
0, 0
0, 0
0, 0
0, 0
0, 0
0, 0
0, 0
0, 0
0, 0
0, 0
0, 0
0, 0
0, 0
0, 0
0, 0
0, 0
0, 0
0, 0
0, 0
0, 0
0, 0
0, 0
0, 0
0, 0
0, 0
0, 0
0, 0
0, 0
0, 0
0, 0
0, 0
0, 0
0, 0
0, 0
0, 0
0, 0
0, 0
0, 0
0, 0
0, 0
0, 0
0, 0
0, 0
0, 0
0, 0
0, 0
0, 0
0, 0
0, 0
0, 1
0, 0
0, 0
0, 0
0, 0
0, 0
0, 0
0, 0
0, 0
0, 0
0, 0
0, 0
0, 0
0, 0
0, 0
0, 0
0, 0
0, 0
0, 0
0, 0
0, 0
0, 0
0, 0
0, 0
0, 0
0, 0
0, 0
0, 0
0, 0
0, 0
0, 0
0, 0
0, 0
0, 0
0, 0
0, 0
0, 0
0, 0
0, 0
0, 0
0, 0
0, 0
0, 0
0, 0
0, 0
0, 0
0, 0
0, 0
0, 0
0, 0
0, 0
0, 0
0, 0
0, 0
0, 0
0, 0
0, 0
0, 0
0, 0
0, 0
0, 0
0, 0
0, 0
0, 0
0, 0
0, 0
0, 0
0, 0
0, 0
0, 0
0, 0
0, 0
0, 0
0, 0
0, 0
0, 0
0, 0
0, 0
0, 0
0, 0
0, 0
0, 0
0, 0
0, 0
0, 0
0, 0
0, 0
0, 0
0, 0
0, 0
0, 0
0, 0
0, 0
0, 0
0, 0
0, 0
0, 0
0, 0
0, 0
0, 0
0, 0
0, 0
0, 0
0, 0
0, 0
0, 0
0, 0
0, 0
0, 0
0, 0
0, 0
0, 0
0, 0
0, 0
0, 0
0, 0
0, 0
0, 0
0, 0
0, 0
0, 0
0, 0
0, 0
0, 0
0, 0
0, 0
0, 0
0, 0
0, 0
0, 0
0, 0
0, 0
0, 0
0, 0
0, 0
0, 0
0, 0
0, 0
0, 0
0, 0
0, 0
0, 0
0, 0
0, 0
0, 0
0, 0
0, 0
0, 0
0, 0
0, 0
0, 0
0, 0
0, 0
0, 0
0, 0
0, 0
0, 0
0, 0
0, 0
0, 0
0, 0
0, 0
0, 0
0, 0
0, 0
0, 0
0, 0
0, 0
0, 0
0, 0
0, 0
0, 0
0, 0
0, 0
0, 0
0, 0
0, 0
0, 0
0, 0
0, 0
0, 0
0, 0
0, 0
0, 0
0, 0
0, 0
0, 0
0, 0
0, 0
0, 0
0, 0
0, 0
0, 0
0, 0
0, 0
0, 0
0, 0
0, 0
0, 0
0, 0
0, 0
0, 0
0, 0
0, 0
0, 0
0, 0
0, 0
0, 0
0, 0
0, 0
0, 0
0, 0
0, 0
0, 0
0, 0
0, 0
0, 0
0, 0
0, 0
0, 0
0, 0
0, 0
0, 0
0, 0
0, 0
0, 0
0, 0
0, 0
0, 0
0, 0
0, 0
0, 0
0, 0
0, 0
0, 0
0, 0
0, 0
0, 0
0, 0
0, 0
0, 0
0, 0
0, 0
0, 0
0, 0
0, 0
0, 0
0, 0
0, 0
0, 0
0, 0
0, 0
0, 0
0, 0
0, 0
0, 0
0, 0
0, 0
0, 0
0, 0
0, 0
0, 0
0, 0
0, 0
0, 0
0, 0
0, 0
0, 0
0, 0
0, 0
0, 0
0, 0
0, 0
0, 0
0, 0
0, 0
0, 0
0, 0
0, 0
0, 0
0, 0
0, 0
0, 0
0, 0
0, 0
0, 0
0, 0
0, 0
0, 0
0, 0
#ENDOFDATA     end of spectrum data