File: host_upload/06-09-2024/ps_0852/dump3/ps__0852shot_2315.msa
#FORMAT      : EMSA/MAS spectral data file
#VERSION     : TC202v2.0 PIXL
#TITLE       : N/A
#DATE        :       Date in the format DD-MMM-YYYY, for example 07-JUL-2010
#TIME        :             The time of day at which the spectrum was recorded, in 24-hour format
#OWNER       : PIXL Flight Model       (PIXL will use this to indicate which instrument took the data.)
#NPOINTS     : 4096     Number of data points in the spectrum (This can be zero for configuration only files)
#NCOLUMNS    : 2     Number of data columns in the spectrum (This can be zero for configuration only files)
#XUNITS      : eV
#YUNITS      : COUNTS
#DATATYPE    : YY
#XPERCHAN    : 7.862, 7.881   eV per channel (separate by commas if more than one detector)
#OFFSET      : 18.5, -22.4         eV of first channel  (separate by commas if more than one detector
#SIGNALTYPE  : XRF
#YP_TEMP     : 2.428
#LIVETIME    : 8.58143, 8.57525   seconds (separate by commas if more than one detector)
#REALTIME    : 10, 10.0   seconds (separate by commas if more than one detector)
#SPECTRUM    : start of spectrum data
0, 0
0, 0
0, 0
0, 0
0, 0
0, 0
0, 0
0, 0
0, 0
0, 0
0, 0
0, 0
0, 0
0, 0
0, 0
0, 0
0, 0
0, 0
0, 0
0, 0
0, 0
0, 0
0, 0
0, 0
0, 0
0, 0
0, 0
0, 0
0, 0
0, 0
0, 0
0, 0
0, 0
0, 0
0, 0
1, 0
1, 0
2, 0
0, 0
0, 1
4, 0
2, 2
2, 0
4, 0
3, 0
3, 3
1, 2
4, 3
9, 4
16, 13
26, 18
41, 31
67, 47
56, 84
90, 73
68, 68
43, 57
33, 40
35, 24
23, 22
14, 7
7, 3
2, 6
3, 4
2, 2
6, 8
9, 10
14, 8
30, 29
44, 51
103, 90
156, 179
240, 237
379, 346
381, 418
416, 414
350, 381
276, 293
212, 184
100, 115
66, 75
39, 42
21, 25
14, 10
6, 9
2, 2
0, 1
1, 0
1, 2
2, 2
0, 1
1, 1
1, 2
0, 1
0, 2
5, 4
7, 2
5, 5
5, 4
4, 3
9, 3
3, 8
4, 1
2, 1
4, 2
7, 8
7, 5
8, 3
4, 14
18, 7
26, 11
29, 21
67, 25
60, 35
79, 47
91, 43
87, 51
99, 32
95, 31
71, 22
102, 20
112, 19
147, 26
180, 21
202, 14
176, 10
157, 19
126, 15
83, 10
52, 7
37, 2
18, 1
12, 12
2, 0
6, 1
2, 2
0, 3
3, 3
4, 0
3, 1
2, 0
2, 2
0, 3
2, 3
0, 3
2, 2
0, 1
4, 2
3, 4
1, 7
1, 8
4, 9
6, 8
3, 14
8, 18
12, 16
11, 14
17, 24
14, 12
13, 10
7, 13
8, 12
4, 8
2, 4
4, 3
5, 8
6, 3
4, 1
3, 3
6, 5
6, 6
4, 6
0, 5
5, 4
6, 3
6, 3
4, 2
5, 6
9, 3
6, 8
1, 6
4, 4
1, 7
2, 5
6, 7
8, 7
7, 6
6, 6
14, 6
19, 4
28, 8
39, 6
49, 6
64, 10
69, 15
98, 10
102, 12
133, 13
126, 19
123, 15
91, 11
64, 14
49, 6
39, 10
28, 10
21, 9
7, 6
10, 8
8, 7
2, 9
5, 10
5, 4
5, 6
6, 5
5, 7
2, 6
6, 6
4, 6
3, 7
5, 6
6, 6
4, 6
6, 5
4, 3
4, 10
6, 11
9, 6
13, 9
9, 11
13, 20
17, 7
9, 10
14, 12
5, 15
7, 6
14, 12
9, 13
9, 6
7, 8
11, 4
11, 8
10, 7
15, 11
22, 8
37, 23
27, 29
65, 50
85, 51
90, 81
96, 79
79, 126
88, 102
76, 118
54, 122
51, 111
40, 123
26, 116
15, 125
17, 119
18, 113
19, 99
25, 95
52, 103
70, 125
121, 210
260, 350
456, 589
777, 1031
1138, 1379
1628, 1855
1968, 2169
2296, 2471
2432, 2521
2453, 2332
2209, 2028
1691, 1610
1301, 1100
922, 731
597, 454
344, 268
194, 148
86, 85
55, 42
29, 20
19, 20
11, 18
11, 16
17, 18
8, 21
16, 19
19, 20
32, 24
43, 67
76, 89
109, 130
146, 163
173, 227
258, 283
307, 335
324, 374
352, 375
309, 350
291, 256
258, 215
204, 155
118, 91
86, 65
62, 44
27, 20
14, 9
21, 8
5, 7
11, 8
6, 14
9, 17
11, 10
15, 10
17, 8
18, 13
14, 8
12, 10
19, 9
8, 3
11, 11
2, 2
5, 8
5, 5
4, 7
4, 7
7, 3
1, 6
3, 5
6, 4
3, 7
6, 8
4, 3
2, 5
5, 2
3, 0
3, 2
6, 1
5, 8
4, 4
3, 2
4, 4
5, 5
5, 7
6, 3
6, 4
4, 5
8, 5
6, 9
7, 3
4, 3
9, 2
2, 3
4, 3
4, 3
3, 3
4, 2
5, 0
4, 4
3, 4
1, 3
4, 1
5, 1
5, 7
5, 6
8, 1
10, 9
4, 3
6, 6
2, 3
4, 6
7, 3
2, 2
5, 3
3, 3
3, 5
5, 3
1, 2
3, 2
5, 4
4, 0
3, 4
4, 3
8, 2
8, 6
11, 4
18, 9
23, 1
26, 2
16, 3
28, 1
19, 2
13, 4
13, 6
20, 7
10, 6
8, 0
9, 6
2, 4
7, 6
3, 6
5, 10
4, 11
2, 8
5, 8
3, 12
3, 6
7, 6
1, 9
2, 4
3, 5
5, 6
2, 6
2, 2
6, 6
2, 6
6, 3
3, 4
7, 4
4, 6
4, 5
7, 2
8, 3
5, 3
3, 1
5, 4
10, 3
5, 3
4, 1
2, 3
3, 5
3, 1
1, 5
5, 4
1, 3
2, 3
4, 2
7, 4
5, 3
2, 4
2, 3
1, 3
4, 2
1, 2
2, 5
2, 2
3, 5
3, 0
1, 1
4, 5
2, 2
6, 2
6, 1
2, 4
6, 7
3, 3
0, 1
0, 2
0, 3
0, 1
1, 1
0, 1
2, 3
1, 3
1, 1
4, 1
3, 3
4, 2
3, 1
4, 2
4, 2
4, 4
5, 2
3, 3
2, 4
3, 2
4, 0
4, 2
4, 2
3, 2
2, 4
4, 3
2, 1
1, 2
1, 3
1, 3
1, 4
3, 3
2, 2
5, 3
2, 1
3, 4
5, 2
1, 4
4, 3
2, 4
1, 1
2, 7
1, 3
3, 1
2, 5
0, 2
1, 3
3, 0
4, 0
1, 1
2, 7
4, 3
2, 0
2, 1
2, 2
3, 3
5, 7
1, 4
5, 6
2, 5
4, 4
3, 4
1, 2
2, 5
1, 5
0, 1
1, 2
2, 0
2, 2
1, 3
1, 1
0, 1
1, 2
4, 2
2, 1
0, 3
5, 1
1, 5
4, 5
2, 3
1, 2
3, 2
3, 7
5, 3
1, 4
2, 4
5, 5
5, 3
1, 2
1, 2
1, 3
2, 1
3, 1
0, 1
2, 1
2, 1
2, 1
0, 1
0, 1
1, 3
1, 1
2, 3
2, 0
2, 1
3, 0
2, 2
0, 3
1, 2
1, 2
4, 0
1, 2
1, 3
1, 1
3, 2
4, 2
3, 4
1, 0
3, 4
6, 2
5, 2
4, 0
3, 0
4, 1
2, 3
3, 4
1, 3
1, 1
3, 4
2, 1
1, 0
2, 0
3, 0
2, 2
1, 0
1, 3
0, 2
2, 2
2, 0
3, 0
2, 2
3, 1
1, 1
2, 1
1, 0
0, 2
0, 0
0, 0
2, 3
0, 0
2, 1
2, 0
1, 1
1, 1
0, 0
1, 1
1, 1
1, 1
2, 4
1, 0
2, 1
0, 1
2, 2
0, 2
0, 2
1, 2
0, 1
3, 1
1, 0
0, 0
1, 0
0, 0
1, 0
0, 0
2, 1
0, 0
0, 0
0, 0
1, 1
0, 1
2, 0
0, 0
0, 0
0, 0
2, 1
0, 2
0, 1
0, 2
0, 0
3, 0
2, 2
0, 0
1, 1
2, 2
1, 0
1, 0
1, 1
0, 2
0, 0
0, 0
1, 0
1, 0
0, 1
0, 0
1, 3
0, 2
1, 2
1, 1
0, 0
1, 1
1, 0
0, 0
0, 1
0, 1
1, 0
0, 0
2, 0
0, 1
1, 2
2, 1
0, 2
0, 0
1, 1
0, 0
0, 0
0, 1
0, 1
0, 0
0, 1
0, 0
0, 1
0, 0
0, 1
1, 0
1, 0
0, 2
0, 0
0, 0
0, 0
0, 0
0, 0
1, 0
1, 4
0, 0
1, 0
0, 1
0, 0
0, 1
0, 0
0, 0
1, 0
0, 0
1, 1
2, 0
0, 2
1, 0
0, 0
0, 2
1, 0
1, 0
0, 0
1, 0
0, 1
0, 0
0, 0
0, 0
2, 0
0, 2
0, 1
1, 0
0, 0
0, 1
1, 0
0, 1
0, 0
1, 1
0, 0
0, 0
0, 0
1, 1
0, 1
0, 0
0, 0
0, 0
0, 0
0, 0
0, 0
0, 0
0, 2
0, 0
0, 0
0, 0
0, 0
0, 0
0, 0
0, 1
0, 0
0, 0
0, 0
0, 1
0, 0
0, 0
0, 0
0, 1
0, 1
0, 0
0, 1
2, 2
0, 0
0, 1
0, 0
1, 0
0, 0
2, 0
0, 0
0, 2
0, 0
1, 1
0, 0
0, 0
0, 0
2, 0
0, 1
0, 0
3, 0
0, 1
0, 0
1, 0
0, 0
1, 0
0, 0
0, 0
0, 1
2, 2
0, 0
0, 1
0, 1
2, 0
0, 0
0, 0
0, 1
0, 0
0, 0
1, 0
0, 1
0, 0
1, 0
0, 0
0, 0
0, 1
0, 0
0, 0
0, 0
0, 2
0, 0
0, 0
1, 0
0, 0
1, 0
0, 0
0, 1
1, 0
0, 1
1, 0
0, 0
0, 0
0, 2
0, 0
0, 0
0, 0
0, 0
0, 0
0, 0
0, 0
0, 0
0, 0
0, 0
0, 0
0, 0
1, 0
0, 0
0, 0
0, 0
0, 0
0, 0
0, 0
0, 0
1, 0
0, 0
0, 0
0, 0
0, 0
0, 0
0, 0
0, 0
0, 0
0, 0
2, 1
0, 1
0, 0
1, 0
0, 0
0, 0
0, 1
1, 0
0, 0
1, 1
0, 1
0, 0
0, 1
0, 0
0, 0
0, 0
0, 0
0, 0
0, 0
1, 0
0, 0
0, 0
0, 0
1, 1
0, 0
0, 0
0, 0
0, 1
0, 0
0, 0
0, 0
0, 0
0, 0
0, 0
0, 0
0, 0
0, 1
0, 0
0, 0
0, 0
0, 0
0, 0
0, 1
0, 1
0, 0
0, 0
0, 1
0, 0
0, 0
0, 0
0, 0
0, 0
0, 0
0, 0
0, 0
0, 0
0, 0
1, 0
0, 0
0, 0
0, 0
0, 0
0, 0
0, 0
0, 0
1, 0
0, 1
0, 0
0, 0
0, 0
1, 0
0, 0
0, 0
0, 0
0, 0
0, 0
0, 0
0, 0
0, 0
0, 0
0, 0
1, 0
0, 0
0, 0
0, 0
0, 0
0, 0
0, 0
0, 0
0, 0
0, 0
0, 0
0, 0
0, 0
0, 0
0, 0
0, 0
0, 0
0, 0
0, 0
0, 0
0, 0
0, 0
0, 0
0, 0
0, 0
0, 0
0, 0
0, 0
0, 0
0, 0
0, 0
0, 0
0, 0
0, 0
0, 0
0, 0
0, 0
0, 0
0, 0
0, 0
0, 1
0, 0
0, 0
0, 1
0, 0
0, 0
0, 0
0, 0
0, 0
0, 0
0, 0
0, 0
0, 0
0, 0
0, 0
0, 0
0, 0
0, 0
0, 0
0, 0
0, 0
0, 0
0, 0
0, 0
0, 0
0, 0
0, 0
0, 0
0, 0
0, 0
0, 0
0, 0
0, 0
0, 0
0, 0
0, 0
0, 0
0, 0
0, 0
0, 0
0, 0
0, 0
0, 0
0, 0
0, 0
0, 0
0, 0
0, 0
0, 0
0, 0
0, 0
0, 0
0, 0
0, 0
0, 0
0, 0
0, 0
0, 0
0, 0
0, 0
0, 0
0, 0
0, 0
0, 0
0, 0
0, 0
0, 0
0, 0
0, 0
0, 0
0, 0
0, 0
0, 0
0, 0
0, 0
0, 0
0, 0
0, 0
0, 0
0, 0
0, 0
0, 0
0, 0
0, 0
0, 0
0, 0
0, 0
0, 0
0, 0
0, 0
0, 0
0, 0
0, 0
0, 0
0, 0
0, 0
0, 0
0, 0
0, 0
0, 0
0, 0
0, 0
0, 0
0, 0
0, 0
0, 0
0, 0
0, 0
0, 0
0, 0
0, 0
0, 0
0, 0
0, 0
0, 0
0, 0
0, 0
0, 0
0, 0
0, 0
0, 0
0, 0
0, 0
0, 0
0, 0
0, 0
0, 0
0, 0
0, 0
0, 0
0, 0
0, 0
0, 0
0, 0
0, 0
0, 0
0, 0
0, 0
0, 0
0, 0
0, 0
0, 0
0, 0
0, 0
0, 0
0, 0
0, 0
0, 0
0, 0
0, 0
0, 0
0, 0
0, 0
0, 0
0, 0
0, 0
0, 0
0, 0
0, 0
0, 0
0, 0
0, 0
0, 0
0, 0
0, 0
0, 0
0, 0
0, 0
0, 0
0, 0
0, 0
0, 0
0, 0
0, 0
0, 0
0, 0
0, 0
0, 0
0, 0
0, 0
0, 0
0, 0
0, 0
0, 0
0, 0
0, 0
0, 0
0, 0
0, 0
0, 0
0, 0
0, 0
0, 0
0, 0
0, 0
0, 0
0, 0
0, 0
0, 0
0, 0
0, 0
0, 0
0, 0
0, 0
0, 0
0, 0
0, 0
0, 0
0, 0
0, 0
0, 0
0, 0
0, 0
0, 0
0, 0
0, 0
0, 0
0, 0
0, 0
0, 0
0, 0
0, 0
0, 0
0, 0
0, 0
0, 0
0, 0
0, 0
0, 0
0, 0
0, 0
0, 0
0, 0
0, 0
0, 0
0, 0
0, 0
0, 0
0, 0
0, 0
0, 0
0, 0
0, 0
0, 0
0, 0
0, 0
0, 0
0, 0
0, 0
0, 0
0, 0
0, 0
0, 0
0, 0
0, 0
0, 0
0, 0
0, 0
0, 0
0, 0
0, 0
0, 0
0, 0
0, 0
0, 0
0, 0
0, 0
0, 0
0, 0
0, 0
0, 0
0, 0
0, 0
0, 0
0, 0
0, 0
0, 0
0, 0
0, 0
0, 0
0, 0
0, 0
0, 0
0, 0
0, 0
0, 0
0, 0
0, 0
0, 0
0, 0
0, 0
0, 0
0, 0
0, 0
0, 0
0, 0
0, 0
0, 0
0, 0
0, 0
0, 0
0, 0
0, 0
0, 0
0, 0
0, 0
0, 0
0, 0
0, 0
0, 0
0, 0
0, 0
0, 0
0, 0
0, 0
0, 0
0, 0
0, 0
0, 0
0, 0
0, 0
0, 0
0, 0
0, 0
0, 0
0, 0
0, 0
0, 0
0, 0
0, 0
0, 0
0, 0
0, 0
0, 0
0, 0
0, 0
0, 0
0, 0
0, 0
0, 0
0, 0
0, 0
0, 0
0, 0
0, 0
0, 0
0, 0
0, 0
0, 0
0, 0
0, 0
0, 0
0, 0
0, 0
0, 0
0, 0
0, 0
0, 0
0, 0
0, 0
0, 0
0, 0
0, 0
0, 0
0, 0
0, 0
0, 0
0, 0
0, 0
0, 0
0, 0
0, 0
0, 0
0, 0
0, 0
0, 0
0, 0
0, 0
0, 0
0, 0
0, 0
0, 0
0, 0
0, 0
0, 0
0, 0
0, 0
0, 0
0, 0
0, 0
#ENDOFDATA     end of spectrum data