File: host_upload/06-09-2024/ps_0852/dump3/ps__0852shot_2080.msa
#FORMAT      : EMSA/MAS spectral data file
#VERSION     : TC202v2.0 PIXL
#TITLE       : N/A
#DATE        :       Date in the format DD-MMM-YYYY, for example 07-JUL-2010
#TIME        :             The time of day at which the spectrum was recorded, in 24-hour format
#OWNER       : PIXL Flight Model       (PIXL will use this to indicate which instrument took the data.)
#NPOINTS     : 4096     Number of data points in the spectrum (This can be zero for configuration only files)
#NCOLUMNS    : 2     Number of data columns in the spectrum (This can be zero for configuration only files)
#XUNITS      : eV
#YUNITS      : COUNTS
#DATATYPE    : YY
#XPERCHAN    : 7.862, 7.881   eV per channel (separate by commas if more than one detector)
#OFFSET      : 18.5, -22.4         eV of first channel  (separate by commas if more than one detector
#SIGNALTYPE  : XRF
#YP_TEMP     : 2.428
#LIVETIME    : 8.5609, 8.5569   seconds (separate by commas if more than one detector)
#REALTIME    : 10, 10.0   seconds (separate by commas if more than one detector)
#SPECTRUM    : start of spectrum data
0, 0
0, 0
0, 0
0, 0
0, 0
0, 0
0, 0
0, 0
0, 0
0, 0
0, 0
0, 0
0, 0
0, 0
0, 0
0, 0
0, 0
0, 0
0, 0
0, 0
0, 0
0, 0
0, 0
0, 0
0, 0
0, 0
0, 0
0, 0
0, 0
0, 0
0, 0
0, 0
0, 0
0, 0
0, 0
0, 0
1, 0
0, 1
3, 0
3, 0
1, 1
2, 0
2, 1
5, 1
7, 1
3, 0
1, 2
6, 2
9, 8
13, 11
30, 29
36, 32
54, 59
84, 73
86, 61
68, 78
57, 55
56, 37
29, 29
15, 8
7, 5
6, 4
5, 5
2, 0
4, 2
6, 7
3, 8
11, 11
20, 19
46, 32
77, 92
170, 147
240, 243
330, 320
395, 347
446, 358
346, 317
263, 256
206, 178
119, 106
64, 67
34, 33
25, 16
10, 3
5, 3
6, 7
1, 3
6, 5
1, 2
0, 1
1, 1
0, 5
5, 5
6, 6
6, 5
9, 14
17, 17
25, 33
24, 27
35, 32
29, 22
14, 25
17, 13
12, 12
9, 10
10, 13
10, 3
13, 9
21, 12
43, 13
78, 15
126, 18
165, 20
247, 18
305, 33
293, 26
323, 32
261, 22
174, 21
154, 20
94, 14
71, 14
45, 18
29, 18
20, 12
18, 6
15, 22
16, 14
9, 4
8, 11
5, 5
5, 5
5, 7
4, 3
4, 4
3, 3
1, 2
0, 3
0, 2
4, 1
2, 1
2, 2
1, 1
3, 3
6, 3
1, 1
3, 1
2, 2
2, 4
1, 2
2, 5
7, 4
7, 5
10, 9
13, 13
19, 21
20, 14
29, 19
18, 12
14, 14
14, 16
14, 6
3, 2
2, 2
4, 5
2, 2
3, 1
0, 5
5, 1
4, 3
9, 4
20, 3
15, 3
22, 5
44, 2
36, 5
37, 5
53, 7
47, 5
40, 3
38, 2
27, 2
21, 6
15, 3
9, 4
7, 2
7, 5
1, 3
8, 6
5, 6
10, 4
12, 10
3, 4
10, 14
13, 13
9, 19
14, 35
13, 37
15, 50
14, 56
7, 73
9, 68
7, 73
10, 96
6, 103
3, 100
8, 72
2, 51
5, 37
7, 16
4, 19
9, 13
5, 5
6, 9
7, 4
6, 5
7, 4
3, 3
8, 6
3, 10
1, 3
8, 1
6, 10
9, 7
11, 9
11, 4
9, 8
15, 11
21, 12
21, 13
19, 8
26, 12
42, 12
30, 15
31, 9
27, 10
35, 11
38, 9
28, 10
46, 7
28, 4
31, 5
28, 7
16, 10
22, 11
21, 21
29, 37
31, 34
48, 34
67, 43
68, 64
52, 53
62, 59
59, 48
35, 35
37, 29
21, 26
24, 23
15, 17
8, 31
12, 19
31, 40
49, 68
68, 142
148, 189
232, 371
485, 562
774, 905
1085, 1314
1470, 1657
1876, 1941
2144, 2214
2286, 2231
2231, 2129
1984, 1741
1670, 1506
1289, 1070
865, 715
613, 395
327, 260
201, 158
113, 68
85, 41
82, 26
83, 28
73, 22
93, 23
114, 22
113, 19
128, 21
141, 34
150, 39
136, 50
155, 81
152, 127
212, 182
223, 215
291, 321
319, 316
337, 354
349, 361
347, 311
281, 283
227, 238
168, 157
156, 113
98, 73
50, 35
37, 23
15, 10
9, 6
6, 13
9, 7
7, 15
8, 10
11, 7
11, 14
13, 5
8, 25
10, 18
12, 10
11, 11
5, 9
12, 6
2, 3
8, 7
4, 2
7, 6
6, 7
5, 0
5, 1
4, 7
2, 2
1, 5
6, 3
5, 5
4, 3
8, 4
5, 3
3, 4
3, 3
3, 2
1, 1
6, 4
7, 2
10, 5
17, 6
21, 3
21, 5
32, 2
43, 2
44, 3
55, 4
57, 6
50, 5
55, 8
52, 7
43, 6
29, 6
26, 5
20, 9
12, 13
10, 4
2, 9
7, 11
6, 7
8, 6
3, 4
3, 4
9, 6
8, 5
4, 3
4, 2
4, 1
5, 3
4, 3
6, 1
7, 5
3, 3
4, 4
2, 3
3, 4
0, 4
5, 1
0, 4
4, 4
5, 5
6, 3
0, 6
2, 7
7, 8
5, 6
4, 7
3, 8
2, 9
5, 13
3, 5
5, 6
3, 7
2, 4
2, 6
2, 6
3, 0
4, 6
0, 7
1, 4
2, 10
4, 6
8, 4
4, 2
1, 6
6, 6
3, 6
5, 2
2, 7
6, 7
9, 3
6, 5
12, 5
7, 2
13, 2
5, 1
10, 5
7, 6
5, 2
6, 3
5, 3
5, 1
5, 7
1, 3
2, 6
1, 7
3, 4
3, 5
4, 1
4, 4
3, 7
4, 8
3, 1
2, 2
2, 2
7, 2
1, 3
3, 1
2, 2
3, 1
6, 1
4, 6
2, 2
2, 5
3, 1
1, 3
2, 3
1, 3
0, 2
3, 2
3, 2
1, 3
5, 7
2, 4
3, 4
2, 0
3, 5
2, 0
3, 4
1, 5
5, 5
3, 5
1, 4
4, 2
6, 7
2, 3
11, 2
5, 5
2, 0
4, 3
8, 1
0, 0
6, 2
1, 1
5, 2
4, 6
2, 3
3, 0
2, 3
2, 1
2, 2
5, 2
4, 3
0, 2
3, 1
2, 5
2, 2
3, 0
3, 1
2, 4
1, 4
4, 1
1, 1
0, 2
1, 1
1, 2
2, 1
3, 3
1, 3
2, 6
0, 1
3, 2
3, 2
2, 2
1, 2
3, 1
0, 1
1, 2
4, 1
4, 0
2, 0
3, 0
2, 0
1, 4
3, 6
2, 2
3, 1
0, 0
1, 2
0, 0
5, 2
0, 1
4, 2
3, 1
1, 0
0, 2
3, 2
4, 0
0, 1
2, 1
0, 1
3, 1
3, 3
5, 3
3, 8
6, 5
6, 2
4, 4
2, 5
2, 4
3, 6
5, 1
1, 4
0, 2
0, 2
0, 2
1, 3
1, 3
1, 2
0, 0
0, 1
1, 1
0, 1
4, 0
3, 1
2, 0
1, 1
3, 0
2, 1
1, 4
0, 4
1, 2
1, 0
2, 0
0, 4
0, 1
1, 3
2, 2
3, 1
3, 0
2, 0
2, 2
0, 2
2, 0
1, 0
1, 0
0, 1
0, 2
3, 1
1, 5
2, 1
2, 1
1, 1
2, 1
3, 0
3, 1
3, 1
1, 3
0, 1
0, 1
0, 1
1, 2
3, 1
0, 1
1, 1
0, 0
1, 1
0, 1
0, 0
1, 0
0, 1
0, 1
2, 0
1, 0
0, 0
0, 2
0, 0
0, 0
2, 2
0, 1
3, 0
1, 0
0, 0
0, 0
0, 0
0, 0
2, 1
1, 1
1, 1
0, 0
0, 0
3, 1
0, 1
2, 1
0, 0
0, 0
1, 0
0, 1
0, 2
1, 0
0, 0
1, 0
1, 1
0, 2
0, 0
1, 1
1, 1
0, 0
1, 2
1, 1
5, 2
0, 0
0, 0
1, 0
1, 2
0, 1
0, 1
0, 1
0, 0
0, 1
0, 0
1, 0
1, 0
2, 0
1, 1
0, 0
1, 1
0, 0
0, 0
1, 1
0, 0
0, 1
0, 0
1, 1
0, 0
0, 0
0, 0
0, 0
2, 1
0, 0
1, 1
0, 0
0, 1
0, 0
0, 0
2, 0
0, 0
1, 0
0, 1
0, 0
0, 0
1, 1
1, 1
0, 0
2, 0
0, 1
0, 0
1, 0
0, 0
0, 0
1, 2
0, 1
2, 0
0, 0
1, 0
1, 0
1, 0
1, 0
0, 1
1, 0
1, 0
0, 0
1, 0
1, 1
2, 1
0, 0
1, 0
0, 0
0, 0
0, 0
1, 0
0, 0
1, 0
1, 0
0, 0
0, 0
0, 0
1, 0
0, 0
0, 0
0, 0
0, 0
1, 0
1, 0
0, 1
0, 0
0, 0
0, 1
0, 0
0, 0
0, 1
1, 0
0, 0
0, 0
0, 1
0, 0
1, 1
0, 0
0, 0
1, 0
1, 0
1, 1
1, 0
0, 1
1, 0
0, 2
0, 0
0, 0
0, 0
0, 0
0, 0
0, 1
1, 0
0, 0
0, 0
0, 0
0, 0
0, 0
0, 1
0, 1
0, 0
0, 0
0, 1
0, 0
0, 0
0, 0
0, 0
0, 0
0, 0
0, 0
0, 0
0, 0
0, 0
1, 0
1, 0
0, 0
0, 0
1, 0
0, 0
0, 0
0, 0
0, 0
0, 1
1, 0
0, 3
0, 0
0, 0
0, 0
1, 0
0, 0
0, 0
1, 1
1, 0
0, 1
2, 1
0, 0
2, 0
1, 0
1, 0
0, 0
0, 0
0, 0
0, 0
0, 0
0, 0
0, 0
0, 0
0, 0
0, 0
0, 0
1, 0
0, 0
0, 0
1, 0
0, 0
0, 0
0, 2
0, 0
0, 1
0, 0
0, 0
0, 0
1, 0
0, 0
0, 1
0, 1
1, 0
0, 1
1, 0
0, 0
0, 0
0, 1
0, 0
0, 0
0, 0
0, 0
0, 0
0, 0
0, 0
0, 0
0, 0
0, 0
0, 0
0, 0
0, 0
0, 0
0, 0
0, 1
0, 0
0, 0
0, 1
2, 0
0, 1
0, 0
0, 0
0, 0
0, 0
0, 0
1, 0
0, 0
0, 0
0, 0
0, 0
1, 0
0, 0
0, 0
0, 0
0, 1
0, 0
0, 0
0, 0
0, 0
0, 1
0, 0
0, 0
0, 0
1, 0
0, 0
0, 0
0, 1
0, 0
0, 0
0, 0
0, 0
0, 0
0, 0
0, 0
0, 1
0, 1
0, 0
0, 0
0, 1
0, 0
0, 0
0, 0
0, 0
0, 0
0, 1
0, 0
0, 0
0, 0
0, 0
0, 0
0, 0
0, 0
0, 1
0, 0
0, 0
0, 0
0, 0
0, 0
0, 0
0, 0
0, 0
0, 0
0, 0
0, 0
0, 0
0, 0
0, 0
0, 1
0, 0
0, 0
1, 0
0, 0
0, 0
0, 0
0, 0
0, 0
0, 0
0, 0
0, 0
0, 0
0, 0
0, 0
0, 0
0, 0
0, 0
0, 0
0, 0
0, 0
0, 0
0, 0
0, 0
0, 0
0, 0
0, 0
0, 0
0, 0
0, 0
0, 0
0, 0
1, 0
0, 0
0, 0
0, 0
0, 0
0, 0
0, 0
0, 0
0, 0
0, 0
0, 0
0, 0
0, 0
0, 0
0, 0
0, 0
0, 0
0, 0
0, 0
0, 0
0, 0
0, 0
0, 0
0, 0
0, 0
0, 0
0, 0
0, 0
0, 0
0, 0
1, 0
0, 0
0, 0
0, 0
0, 0
0, 0
0, 0
0, 0
0, 0
0, 0
0, 0
0, 0
0, 0
0, 0
0, 0
0, 0
0, 0
0, 0
0, 0
0, 0
1, 0
0, 0
0, 0
0, 0
0, 1
0, 0
0, 0
0, 0
0, 0
0, 0
0, 0
0, 0
0, 0
0, 0
0, 0
0, 0
0, 0
0, 0
0, 0
0, 0
0, 0
0, 0
0, 0
0, 0
0, 0
1, 0
0, 0
0, 0
0, 0
0, 0
0, 0
0, 0
0, 0
0, 0
0, 0
0, 0
0, 0
0, 0
0, 0
0, 0
0, 0
0, 0
0, 0
0, 0
0, 0
0, 0
0, 0
0, 0
0, 0
0, 0
0, 0
0, 0
0, 1
0, 0
0, 0
0, 0
0, 0
0, 0
0, 0
0, 0
0, 0
0, 0
0, 0
0, 0
0, 0
0, 0
0, 0
0, 0
0, 0
0, 0
0, 0
0, 0
0, 0
0, 0
0, 0
0, 0
0, 0
0, 0
0, 0
0, 0
0, 0
0, 0
0, 0
0, 0
0, 0
0, 0
0, 0
0, 0
0, 0
0, 0
0, 0
0, 0
0, 0
0, 0
0, 0
0, 0
0, 0
0, 0
0, 0
0, 0
0, 0
0, 0
0, 0
0, 0
0, 0
0, 0
0, 0
0, 0
0, 0
0, 0
0, 0
0, 0
0, 0
0, 0
0, 0
0, 0
0, 0
0, 0
0, 0
0, 0
0, 0
0, 0
0, 0
0, 0
0, 0
0, 0
0, 0
0, 0
0, 0
0, 0
0, 0
0, 0
0, 0
0, 0
0, 0
0, 0
0, 0
0, 0
0, 0
0, 0
0, 0
0, 0
0, 0
0, 0
0, 0
0, 0
0, 0
0, 0
0, 0
0, 0
0, 0
0, 0
0, 0
0, 0
0, 0
0, 0
0, 0
0, 0
0, 0
0, 0
0, 0
0, 0
0, 0
0, 0
0, 0
0, 0
0, 0
0, 0
0, 0
0, 0
0, 0
0, 0
0, 0
0, 0
0, 0
0, 0
0, 0
0, 0
0, 0
0, 0
0, 0
0, 0
0, 0
0, 0
0, 0
0, 0
0, 0
0, 0
0, 0
0, 0
0, 0
0, 0
0, 0
0, 0
0, 0
0, 0
0, 0
0, 0
0, 0
0, 0
0, 0
0, 0
0, 0
0, 0
0, 0
0, 0
0, 0
0, 0
0, 0
0, 0
0, 0
0, 0
0, 0
0, 0
0, 0
0, 0
0, 0
0, 0
0, 0
0, 0
0, 0
0, 0
0, 0
0, 0
0, 0
0, 0
0, 0
0, 0
0, 0
0, 0
0, 0
0, 0
0, 0
0, 0
0, 0
0, 0
0, 0
0, 0
0, 0
0, 0
0, 0
0, 0
0, 0
0, 0
0, 0
0, 0
0, 0
0, 0
0, 0
0, 0
0, 0
0, 0
0, 0
0, 0
0, 0
0, 0
0, 0
0, 0
0, 0
0, 0
0, 0
0, 0
0, 0
0, 0
0, 0
0, 0
0, 0
0, 0
0, 0
0, 0
0, 0
0, 0
0, 0
0, 0
0, 0
0, 0
0, 0
0, 0
0, 0
0, 0
0, 0
0, 0
0, 0
0, 0
0, 0
0, 0
0, 0
0, 0
0, 0
0, 0
0, 0
0, 0
0, 0
0, 0
0, 0
0, 0
0, 0
0, 0
0, 0
0, 0
0, 0
0, 0
0, 0
0, 0
0, 0
0, 0
0, 0
0, 0
0, 0
0, 0
0, 0
0, 0
0, 0
0, 0
0, 0
0, 0
0, 0
0, 0
0, 0
0, 0
0, 0
0, 0
0, 0
0, 0
0, 0
0, 0
0, 0
0, 0
0, 0
0, 0
0, 0
0, 0
0, 0
0, 0
0, 0
0, 0
0, 0
0, 0
0, 0
0, 0
0, 0
0, 0
0, 0
0, 0
0, 0
0, 0
0, 0
0, 0
0, 0
0, 0
0, 0
0, 0
0, 0
0, 0
0, 0
0, 0
0, 0
0, 0
#ENDOFDATA     end of spectrum data