File: host_upload/06-09-2024/ps_0852/dump3/ps__0852shot_2059.msa
#FORMAT      : EMSA/MAS spectral data file
#VERSION     : TC202v2.0 PIXL
#TITLE       : N/A
#DATE        :       Date in the format DD-MMM-YYYY, for example 07-JUL-2010
#TIME        :             The time of day at which the spectrum was recorded, in 24-hour format
#OWNER       : PIXL Flight Model       (PIXL will use this to indicate which instrument took the data.)
#NPOINTS     : 4096     Number of data points in the spectrum (This can be zero for configuration only files)
#NCOLUMNS    : 2     Number of data columns in the spectrum (This can be zero for configuration only files)
#XUNITS      : eV
#YUNITS      : COUNTS
#DATATYPE    : YY
#XPERCHAN    : 7.862, 7.881   eV per channel (separate by commas if more than one detector)
#OFFSET      : 18.5, -22.4         eV of first channel  (separate by commas if more than one detector
#SIGNALTYPE  : XRF
#YP_TEMP     : 2.492
#LIVETIME    : 8.5279, 8.50346   seconds (separate by commas if more than one detector)
#REALTIME    : 10, 10.0   seconds (separate by commas if more than one detector)
#SPECTRUM    : start of spectrum data
0, 0
0, 0
0, 0
0, 0
0, 0
0, 0
0, 0
0, 0
0, 0
0, 0
0, 0
0, 0
0, 0
0, 0
0, 0
0, 0
0, 0
0, 0
0, 0
0, 0
0, 0
0, 0
0, 0
0, 0
0, 0
0, 0
0, 0
0, 0
0, 0
0, 0
0, 0
0, 0
0, 0
0, 0
1, 0
0, 0
0, 0
1, 0
0, 0
1, 0
2, 1
1, 0
0, 0
0, 0
1, 1
1, 4
2, 0
1, 5
6, 7
14, 10
20, 22
47, 35
53, 58
75, 75
100, 74
67, 81
64, 51
57, 42
38, 26
16, 16
14, 2
5, 1
3, 7
0, 3
3, 3
5, 1
5, 5
10, 10
25, 22
69, 50
80, 102
171, 190
297, 287
391, 385
379, 417
434, 392
398, 330
300, 266
219, 187
130, 123
72, 69
34, 49
20, 14
10, 7
5, 3
3, 6
1, 3
1, 1
1, 2
3, 1
1, 0
1, 0
1, 0
1, 2
0, 0
3, 2
2, 3
2, 1
3, 4
3, 2
1, 1
4, 3
3, 3
0, 2
2, 5
2, 0
2, 4
8, 7
4, 8
6, 15
10, 13
16, 19
27, 15
33, 29
40, 21
31, 25
44, 27
27, 22
28, 22
21, 11
25, 20
16, 18
25, 16
19, 11
17, 15
10, 19
16, 18
12, 6
9, 3
9, 6
2, 5
5, 5
5, 4
6, 5
0, 2
2, 2
2, 2
3, 3
0, 4
1, 3
1, 3
1, 1
3, 4
2, 1
1, 1
2, 1
2, 1
3, 5
0, 1
5, 3
0, 0
1, 5
3, 9
7, 3
10, 9
11, 22
13, 11
17, 23
22, 10
20, 9
10, 10
9, 8
7, 4
6, 6
3, 1
5, 5
3, 3
3, 2
0, 4
2, 8
5, 2
5, 3
10, 1
8, 3
4, 6
9, 2
10, 2
15, 4
8, 3
10, 2
18, 6
15, 4
24, 2
22, 3
24, 4
25, 1
21, 7
37, 1
30, 4
21, 6
13, 4
8, 9
16, 14
14, 13
16, 14
16, 21
16, 18
10, 19
11, 13
10, 27
14, 15
6, 23
8, 17
11, 23
6, 17
5, 13
2, 17
6, 10
8, 11
6, 13
5, 6
13, 8
6, 6
3, 4
2, 6
2, 13
1, 10
4, 18
4, 15
1, 12
1, 3
6, 13
6, 8
7, 13
8, 10
8, 15
10, 9
13, 14
14, 14
8, 13
13, 10
17, 9
17, 8
9, 6
17, 6
31, 6
28, 14
32, 6
40, 2
28, 6
52, 9
59, 6
67, 11
72, 14
76, 19
90, 18
99, 24
93, 42
91, 68
97, 54
88, 54
106, 57
71, 44
63, 45
50, 45
36, 35
29, 22
22, 18
18, 16
14, 21
17, 30
31, 36
42, 64
100, 107
136, 188
269, 340
508, 584
838, 898
1158, 1278
1608, 1697
2018, 2068
2241, 2352
2450, 2330
2308, 2179
2208, 1880
1743, 1498
1359, 1125
972, 782
631, 470
395, 294
205, 186
125, 86
50, 58
36, 31
26, 19
18, 19
14, 13
11, 21
6, 18
16, 20
20, 31
31, 22
40, 62
61, 70
113, 103
166, 154
216, 210
259, 253
360, 316
342, 329
377, 336
341, 266
285, 249
271, 205
195, 160
144, 95
100, 76
67, 43
36, 17
28, 6
12, 6
17, 9
9, 7
14, 5
12, 5
8, 7
10, 15
13, 11
15, 13
10, 19
19, 14
6, 8
5, 6
7, 6
5, 9
2, 7
6, 2
5, 2
2, 0
6, 4
3, 3
4, 2
4, 4
4, 4
5, 3
1, 5
3, 4
2, 6
3, 9
2, 5
2, 8
2, 9
6, 6
3, 3
4, 7
7, 8
8, 4
4, 4
8, 2
6, 4
10, 5
12, 6
12, 4
10, 5
11, 2
5, 6
13, 9
8, 13
5, 12
3, 14
7, 17
14, 9
8, 14
12, 10
8, 7
5, 17
14, 2
8, 8
12, 9
8, 0
8, 2
9, 2
5, 6
8, 8
4, 12
3, 4
4, 6
2, 19
3, 9
3, 5
3, 4
1, 5
3, 4
3, 5
1, 2
3, 2
2, 6
1, 8
4, 3
5, 5
2, 5
1, 3
4, 1
5, 5
4, 8
0, 5
3, 4
0, 3
1, 3
4, 6
0, 3
2, 6
4, 1
3, 7
0, 7
6, 2
3, 2
3, 4
1, 3
3, 7
4, 4
2, 3
2, 7
1, 5
3, 3
4, 3
2, 2
6, 5
7, 3
5, 7
4, 4
3, 7
4, 3
5, 5
0, 2
5, 0
4, 4
4, 3
13, 5
7, 4
5, 6
7, 5
1, 9
7, 14
5, 23
4, 18
6, 15
4, 13
3, 13
4, 14
1, 21
3, 5
1, 13
2, 6
1, 3
2, 3
7, 6
6, 2
2, 3
0, 5
0, 1
1, 2
3, 3
2, 7
1, 3
2, 1
2, 6
2, 5
5, 1
1, 3
4, 0
4, 1
0, 4
1, 1
1, 2
2, 3
2, 1
2, 2
7, 2
1, 4
2, 2
3, 3
2, 4
2, 2
4, 1
4, 0
6, 0
2, 0
2, 1
5, 2
3, 3
3, 3
4, 3
5, 1
2, 1
4, 2
4, 0
3, 3
5, 2
4, 1
3, 0
4, 0
2, 1
9, 1
2, 2
3, 1
6, 1
2, 1
4, 0
3, 1
0, 1
2, 4
5, 4
1, 2
1, 4
1, 3
3, 2
4, 2
3, 2
4, 3
2, 2
0, 3
1, 1
1, 2
0, 0
1, 0
1, 3
2, 0
1, 3
5, 2
2, 2
0, 1
0, 1
0, 3
1, 1
4, 0
7, 3
0, 1
0, 1
2, 2
3, 3
2, 2
2, 2
5, 1
2, 3
2, 3
1, 2
4, 1
2, 2
4, 2
5, 7
4, 6
3, 0
8, 3
6, 4
4, 2
1, 5
3, 3
5, 4
2, 2
2, 1
4, 2
5, 0
0, 3
3, 2
2, 3
2, 2
3, 3
1, 1
2, 2
5, 0
0, 4
1, 3
1, 0
1, 2
6, 2
2, 2
1, 2
0, 1
0, 0
3, 2
1, 1
2, 1
2, 1
2, 1
0, 3
0, 3
1, 0
1, 1
0, 0
1, 1
1, 1
0, 3
1, 0
1, 1
0, 2
1, 0
0, 1
0, 0
0, 0
0, 0
1, 2
0, 1
0, 0
0, 3
1, 0
2, 1
0, 0
2, 1
2, 1
0, 2
2, 0
0, 0
1, 0
2, 0
1, 0
0, 0
2, 0
1, 0
2, 0
1, 0
5, 1
3, 0
0, 1
1, 0
2, 0
5, 1
1, 0
0, 0
0, 1
0, 0
0, 0
0, 2
1, 1
0, 0
1, 1
1, 0
1, 0
0, 2
1, 0
1, 0
0, 1
0, 0
1, 1
0, 0
1, 1
1, 1
2, 2
0, 2
1, 1
0, 0
1, 0
2, 1
0, 1
0, 0
0, 1
1, 1
0, 0
0, 0
0, 0
1, 0
1, 0
1, 0
0, 0
1, 1
1, 0
0, 0
1, 0
0, 1
1, 1
0, 0
0, 0
3, 1
2, 0
1, 0
1, 0
0, 2
1, 1
0, 0
1, 3
3, 0
0, 2
0, 1
1, 0
0, 0
0, 0
1, 0
1, 2
0, 0
0, 1
0, 2
0, 1
0, 0
1, 1
0, 0
0, 0
1, 1
2, 0
0, 0
0, 0
1, 2
0, 0
0, 0
0, 0
0, 0
0, 0
0, 0
0, 0
0, 0
0, 0
1, 1
1, 0
0, 0
0, 0
1, 0
0, 0
0, 0
0, 0
1, 0
0, 0
0, 0
0, 0
0, 0
0, 1
0, 0
0, 0
0, 0
0, 1
0, 0
1, 0
0, 0
0, 0
1, 1
0, 0
0, 0
1, 0
1, 1
0, 0
0, 1
0, 0
2, 0
1, 0
0, 0
1, 0
1, 0
1, 0
0, 1
0, 0
0, 0
0, 0
0, 0
1, 0
0, 0
1, 0
0, 0
0, 0
0, 0
1, 0
0, 1
0, 0
0, 0
0, 0
1, 0
0, 0
0, 1
1, 0
0, 0
0, 0
0, 0
1, 0
1, 0
0, 1
0, 0
0, 0
1, 0
0, 0
0, 1
0, 0
0, 0
0, 1
0, 0
0, 0
0, 0
0, 0
0, 1
1, 0
0, 0
0, 0
0, 0
0, 1
0, 0
1, 0
1, 0
0, 1
0, 0
0, 0
0, 0
0, 0
0, 0
2, 0
0, 0
1, 1
0, 0
1, 1
0, 0
1, 0
0, 1
0, 1
0, 0
2, 0
0, 0
0, 0
0, 0
1, 0
0, 1
0, 0
0, 1
1, 0
0, 0
0, 0
0, 0
0, 0
0, 1
0, 0
0, 0
1, 1
0, 0
0, 0
0, 0
1, 0
0, 1
0, 0
0, 0
0, 0
0, 0
1, 0
1, 0
0, 0
1, 1
0, 0
0, 0
0, 0
0, 0
0, 0
0, 0
0, 0
0, 0
1, 0
0, 0
0, 0
0, 0
0, 0
0, 0
0, 0
1, 0
0, 0
0, 0
0, 0
0, 0
0, 1
1, 0
0, 0
0, 0
0, 0
0, 0
0, 0
1, 0
0, 0
1, 0
1, 0
1, 0
0, 0
1, 0
0, 0
0, 0
0, 0
0, 0
0, 0
0, 0
0, 0
0, 0
0, 0
0, 0
0, 0
0, 0
0, 0
0, 2
0, 0
0, 1
0, 0
0, 0
0, 0
1, 0
0, 0
0, 0
0, 0
0, 0
0, 0
0, 0
0, 0
0, 0
0, 0
0, 0
0, 0
0, 0
0, 0
0, 0
0, 0
1, 0
0, 0
0, 0
0, 0
0, 0
1, 0
0, 0
0, 0
0, 0
0, 0
0, 0
0, 0
0, 0
0, 0
1, 0
0, 0
1, 0
0, 0
0, 0
0, 0
0, 0
0, 0
0, 0
0, 1
0, 0
0, 0
0, 0
0, 0
0, 0
0, 0
0, 0
0, 0
0, 0
0, 0
0, 0
0, 0
0, 0
0, 0
0, 0
0, 0
0, 0
0, 0
0, 0
0, 0
0, 0
0, 0
0, 0
0, 0
0, 0
0, 0
0, 1
0, 0
0, 0
0, 0
0, 0
0, 0
0, 1
0, 0
0, 0
0, 0
0, 2
0, 0
1, 0
0, 0
0, 0
0, 0
0, 0
0, 0
0, 0
0, 0
0, 0
0, 0
0, 0
0, 0
0, 0
0, 0
0, 0
0, 0
0, 0
0, 0
0, 0
0, 0
0, 0
0, 0
0, 0
0, 0
0, 0
0, 0
0, 0
0, 0
0, 0
0, 0
0, 0
0, 0
1, 0
0, 0
0, 0
0, 0
0, 0
0, 0
0, 0
0, 0
0, 0
0, 0
0, 0
0, 0
0, 0
0, 0
0, 0
0, 0
0, 0
0, 0
0, 0
0, 0
0, 0
0, 0
0, 0
0, 0
0, 0
0, 0
0, 0
0, 0
0, 0
0, 0
0, 0
0, 0
0, 0
0, 0
0, 0
0, 0
0, 0
0, 0
0, 0
0, 0
0, 0
0, 0
0, 0
0, 0
0, 0
0, 0
0, 0
0, 0
0, 0
0, 0
0, 0
0, 0
0, 0
0, 0
0, 0
0, 0
0, 0
0, 0
0, 0
0, 0
0, 0
0, 0
0, 0
0, 0
0, 0
0, 0
0, 0
0, 0
0, 0
0, 0
0, 0
0, 0
0, 0
0, 0
0, 0
0, 0
0, 0
0, 0
0, 0
0, 0
0, 0
0, 0
0, 0
0, 0
0, 0
0, 0
0, 0
0, 0
0, 0
0, 0
0, 0
0, 1
0, 0
0, 0
0, 0
0, 0
0, 0
0, 0
0, 0
0, 0
0, 0
0, 0
1, 0
0, 0
0, 0
0, 0
0, 0
0, 0
0, 0
0, 0
0, 0
0, 0
0, 0
0, 0
0, 0
0, 0
0, 0
0, 0
0, 0
0, 0
0, 0
0, 0
0, 0
0, 0
0, 0
0, 0
0, 0
0, 0
0, 0
0, 0
0, 0
0, 0
0, 0
0, 0
0, 0
0, 0
0, 0
0, 0
0, 0
0, 0
0, 0
0, 0
0, 0
0, 0
0, 0
0, 0
0, 0
0, 0
0, 0
0, 0
0, 0
0, 0
0, 0
0, 0
0, 0
0, 0
0, 0
0, 0
0, 0
0, 0
0, 0
0, 0
0, 0
0, 0
0, 0
0, 0
0, 0
0, 0
0, 0
0, 0
0, 0
0, 0
0, 0
0, 0
0, 0
0, 0
0, 0
0, 0
0, 0
0, 0
0, 0
0, 0
0, 0
0, 0
0, 0
0, 0
0, 0
0, 0
0, 0
0, 0
0, 0
0, 0
0, 0
0, 0
0, 0
0, 0
0, 0
0, 0
0, 0
0, 0
0, 0
0, 0
0, 0
0, 0
0, 0
0, 0
0, 0
0, 0
0, 0
0, 0
0, 0
0, 0
0, 0
0, 0
0, 0
0, 0
0, 0
0, 0
0, 0
0, 0
0, 0
0, 0
0, 0
0, 0
0, 0
0, 0
0, 0
0, 0
0, 0
0, 0
0, 0
0, 0
0, 0
0, 0
0, 0
0, 0
0, 0
0, 0
0, 0
0, 0
0, 0
0, 0
0, 0
0, 0
0, 0
0, 0
0, 0
0, 0
0, 0
0, 0
0, 0
0, 0
0, 0
0, 0
0, 0
0, 0
0, 0
0, 0
0, 0
0, 0
0, 0
0, 0
0, 0
0, 0
0, 0
0, 0
0, 0
0, 0
0, 0
0, 0
0, 0
0, 0
0, 0
0, 0
0, 0
0, 0
0, 0
0, 0
0, 0
0, 0
0, 0
0, 0
0, 0
0, 0
0, 0
0, 0
0, 0
0, 0
0, 0
0, 0
0, 0
0, 0
0, 0
0, 0
0, 0
0, 0
0, 0
0, 0
0, 0
0, 0
0, 0
0, 0
0, 0
0, 0
0, 0
0, 0
0, 0
0, 0
0, 0
0, 0
0, 0
0, 0
0, 0
0, 0
0, 0
0, 0
0, 0
0, 0
0, 0
0, 0
0, 0
0, 0
0, 0
0, 0
0, 0
0, 0
0, 0
0, 0
0, 0
0, 0
0, 0
0, 0
0, 0
0, 0
0, 0
0, 0
0, 0
0, 0
0, 0
0, 0
0, 0
0, 0
0, 0
0, 0
0, 0
0, 0
0, 0
0, 0
0, 0
0, 0
0, 0
0, 0
0, 0
0, 0
0, 0
0, 0
0, 0
0, 0
0, 0
0, 0
0, 0
0, 0
0, 0
0, 0
0, 0
0, 0
0, 0
0, 0
0, 0
0, 0
0, 0
0, 0
0, 0
0, 0
#ENDOFDATA     end of spectrum data