File: host_upload/06-09-2024/ps_0852/dump3/ps__0852shot_2254.msa
#FORMAT      : EMSA/MAS spectral data file
#VERSION     : TC202v2.0 PIXL
#TITLE       : N/A
#DATE        :       Date in the format DD-MMM-YYYY, for example 07-JUL-2010
#TIME        :             The time of day at which the spectrum was recorded, in 24-hour format
#OWNER       : PIXL Flight Model       (PIXL will use this to indicate which instrument took the data.)
#NPOINTS     : 4096     Number of data points in the spectrum (This can be zero for configuration only files)
#NCOLUMNS    : 2     Number of data columns in the spectrum (This can be zero for configuration only files)
#XUNITS      : eV
#YUNITS      : COUNTS
#DATATYPE    : YY
#XPERCHAN    : 7.862, 7.881   eV per channel (separate by commas if more than one detector)
#OFFSET      : 18.5, -22.4         eV of first channel  (separate by commas if more than one detector
#SIGNALTYPE  : XRF
#YP_TEMP     : 2.364
#LIVETIME    : 8.58024, 8.57009   seconds (separate by commas if more than one detector)
#REALTIME    : 10, 10.0   seconds (separate by commas if more than one detector)
#SPECTRUM    : start of spectrum data
0, 0
0, 0
0, 0
0, 0
0, 0
0, 0
0, 0
0, 0
0, 0
0, 0
0, 0
0, 0
0, 0
0, 0
0, 0
0, 0
0, 0
0, 0
0, 0
0, 0
0, 0
0, 0
0, 0
0, 0
0, 0
0, 0
0, 0
0, 0
0, 0
0, 0
0, 0
0, 0
0, 1
0, 0
0, 0
0, 0
1, 0
2, 0
1, 0
1, 1
0, 0
0, 1
0, 2
2, 1
1, 0
1, 1
2, 2
1, 3
4, 7
11, 14
18, 21
56, 43
70, 58
81, 74
98, 66
73, 70
75, 56
51, 30
40, 15
26, 11
12, 3
10, 5
3, 1
5, 1
8, 4
2, 4
7, 9
12, 3
22, 17
54, 37
115, 90
177, 163
301, 269
350, 362
445, 422
485, 402
412, 344
309, 252
222, 175
145, 94
86, 65
31, 43
17, 14
13, 8
12, 3
5, 1
4, 0
3, 2
1, 1
0, 3
4, 0
0, 2
2, 0
1, 3
3, 5
2, 2
4, 6
8, 7
6, 6
3, 2
6, 6
5, 6
2, 2
3, 2
4, 4
2, 4
6, 3
3, 3
13, 9
6, 10
11, 20
24, 26
26, 23
31, 28
34, 38
32, 53
24, 48
21, 28
20, 38
26, 31
19, 17
16, 19
18, 20
16, 22
14, 7
6, 13
16, 12
12, 8
14, 2
8, 6
5, 2
6, 3
5, 5
2, 4
2, 2
6, 1
2, 3
2, 0
2, 1
4, 2
2, 2
0, 4
2, 1
4, 4
2, 2
6, 2
4, 1
8, 2
10, 3
5, 3
12, 6
10, 6
28, 9
18, 11
26, 17
36, 28
58, 33
60, 37
43, 31
32, 24
32, 18
13, 19
11, 15
11, 7
7, 7
0, 0
9, 5
5, 5
10, 7
5, 4
7, 9
1, 9
5, 10
9, 11
8, 18
5, 19
7, 22
5, 18
7, 19
4, 24
1, 15
2, 10
5, 9
5, 8
4, 4
3, 4
4, 2
5, 4
7, 6
13, 6
11, 8
7, 12
14, 14
15, 19
16, 11
23, 31
19, 25
30, 38
40, 37
50, 35
71, 25
85, 30
68, 15
99, 21
83, 16
85, 9
95, 6
54, 4
50, 4
27, 9
19, 4
13, 3
9, 3
10, 4
9, 6
2, 3
6, 2
8, 8
11, 11
8, 5
2, 9
4, 12
6, 4
5, 5
8, 8
9, 8
12, 11
14, 10
12, 7
11, 13
9, 18
19, 16
12, 17
7, 10
12, 7
14, 15
10, 10
8, 9
7, 12
14, 6
2, 11
7, 8
13, 6
11, 15
6, 7
17, 10
20, 26
41, 31
55, 45
60, 46
62, 51
53, 73
52, 49
46, 44
43, 44
37, 33
25, 27
30, 14
21, 17
17, 20
20, 18
25, 25
55, 54
82, 93
160, 176
318, 324
532, 557
764, 883
1201, 1287
1643, 1771
2068, 2024
2358, 2252
2530, 2307
2409, 2152
2132, 1729
1820, 1468
1322, 1079
952, 740
579, 421
376, 245
221, 142
127, 64
87, 33
83, 27
63, 20
82, 11
71, 11
74, 21
66, 19
67, 26
65, 23
81, 37
53, 62
105, 96
118, 103
162, 175
216, 210
254, 277
343, 324
364, 339
353, 347
361, 278
341, 276
282, 213
205, 168
144, 104
84, 80
57, 28
39, 24
20, 15
12, 16
10, 16
9, 14
6, 17
15, 10
8, 10
14, 12
20, 18
9, 16
22, 12
11, 9
11, 7
15, 8
8, 3
6, 6
11, 2
11, 1
3, 3
3, 5
1, 2
1, 4
1, 2
3, 3
4, 4
3, 2
3, 6
6, 4
3, 2
4, 4
5, 1
2, 6
6, 2
6, 3
5, 7
6, 5
4, 3
9, 3
6, 7
4, 5
6, 2
6, 3
8, 9
12, 5
12, 8
6, 1
8, 7
3, 7
1, 7
4, 3
8, 6
4, 8
4, 2
6, 4
3, 2
3, 5
7, 4
4, 7
3, 7
5, 3
2, 5
3, 4
2, 4
3, 5
5, 1
2, 3
3, 1
3, 6
3, 5
3, 5
3, 2
1, 3
2, 2
3, 3
2, 6
7, 3
3, 1
7, 3
4, 10
2, 5
4, 6
9, 11
3, 5
4, 10
9, 20
7, 25
7, 24
5, 25
11, 21
3, 20
10, 24
8, 21
5, 17
4, 22
5, 7
4, 7
8, 2
7, 3
3, 3
9, 2
9, 2
9, 3
14, 3
7, 4
5, 3
10, 3
11, 1
18, 0
13, 3
13, 3
11, 2
20, 6
13, 4
12, 5
9, 3
11, 3
6, 0
7, 1
1, 1
7, 5
1, 5
2, 3
5, 3
3, 5
6, 2
2, 4
6, 3
4, 2
2, 0
5, 2
3, 2
1, 2
4, 3
2, 5
2, 3
3, 4
0, 6
4, 7
1, 3
3, 3
7, 5
1, 4
3, 5
3, 2
3, 4
2, 1
0, 5
2, 4
0, 3
6, 3
4, 2
0, 2
1, 5
4, 4
1, 0
4, 1
3, 0
3, 2
0, 3
4, 2
3, 1
6, 2
4, 1
2, 3
2, 1
3, 1
1, 2
6, 2
0, 0
2, 4
1, 4
4, 1
5, 1
3, 4
2, 2
4, 2
2, 1
0, 3
0, 2
3, 4
3, 4
3, 7
2, 0
0, 2
2, 4
3, 6
2, 2
4, 2
3, 3
3, 2
0, 4
3, 3
0, 2
3, 1
5, 3
1, 5
0, 4
1, 2
2, 1
2, 1
0, 3
0, 3
3, 1
1, 1
3, 0
0, 5
0, 2
2, 0
2, 0
4, 1
3, 2
1, 1
0, 3
2, 1
1, 3
3, 6
2, 2
5, 0
2, 1
4, 1
4, 0
3, 2
1, 4
2, 3
2, 5
1, 1
3, 2
1, 3
1, 4
7, 3
4, 4
5, 2
2, 3
4, 3
3, 2
7, 4
4, 1
6, 5
4, 2
4, 3
0, 1
1, 4
1, 1
5, 1
2, 1
1, 0
3, 0
2, 0
0, 1
2, 1
1, 0
2, 1
1, 1
2, 1
0, 2
2, 2
3, 0
0, 1
4, 0
1, 0
2, 1
4, 3
0, 1
2, 2
0, 0
4, 2
1, 1
1, 0
3, 2
0, 1
3, 1
3, 0
1, 0
1, 0
1, 0
2, 0
3, 0
0, 2
0, 2
1, 3
3, 3
1, 0
1, 1
1, 1
0, 1
1, 1
1, 1
1, 0
0, 0
0, 3
1, 0
1, 0
0, 1
1, 3
1, 2
4, 1
3, 0
1, 1
0, 2
2, 1
1, 0
2, 1
0, 2
1, 1
1, 2
3, 0
0, 0
2, 0
2, 1
2, 2
2, 1
2, 2
2, 1
1, 0
1, 0
0, 0
0, 0
0, 1
2, 2
3, 0
0, 0
0, 0
1, 1
0, 0
1, 1
0, 1
0, 1
0, 2
0, 1
1, 0
0, 1
0, 1
1, 0
0, 1
0, 3
0, 1
1, 1
1, 0
1, 0
0, 0
1, 1
0, 0
1, 2
1, 0
1, 1
0, 1
0, 0
0, 0
0, 0
0, 0
1, 1
1, 3
2, 4
0, 0
1, 1
0, 2
0, 0
0, 1
0, 0
0, 1
0, 0
0, 2
1, 0
1, 0
0, 1
0, 0
0, 0
0, 1
2, 1
0, 0
0, 0
0, 0
1, 0
1, 1
0, 0
0, 1
2, 0
0, 0
1, 2
1, 0
0, 0
1, 0
2, 0
0, 0
1, 0
0, 1
0, 2
0, 0
1, 0
0, 0
0, 1
0, 0
1, 0
0, 0
0, 0
1, 0
1, 0
0, 0
3, 0
0, 0
1, 0
0, 0
0, 0
0, 0
0, 0
0, 0
0, 0
1, 0
1, 0
0, 1
0, 0
0, 0
0, 2
0, 0
0, 0
0, 0
0, 0
1, 0
0, 0
1, 0
0, 0
1, 0
1, 0
1, 0
0, 0
1, 0
0, 0
0, 0
0, 0
0, 0
1, 0
0, 0
1, 0
1, 0
0, 0
0, 0
1, 1
0, 1
0, 0
0, 1
1, 0
0, 0
0, 0
0, 0
0, 0
0, 0
0, 0
0, 0
2, 0
0, 0
2, 1
0, 0
0, 0
0, 2
1, 0
0, 0
0, 1
0, 0
0, 0
2, 1
0, 0
0, 0
0, 1
0, 0
0, 0
1, 0
0, 0
1, 0
0, 0
0, 0
0, 0
0, 1
0, 0
0, 1
1, 0
0, 1
0, 0
0, 0
0, 0
0, 0
0, 2
0, 1
0, 1
0, 0
0, 0
0, 2
0, 1
0, 0
0, 0
0, 1
0, 1
2, 0
0, 0
0, 1
0, 0
0, 0
0, 0
0, 1
0, 0
1, 0
0, 0
0, 0
0, 0
0, 0
1, 0
2, 0
0, 0
0, 0
0, 0
0, 0
1, 0
0, 0
0, 0
0, 0
0, 0
0, 0
0, 1
1, 0
0, 0
0, 0
1, 0
0, 0
0, 0
0, 1
0, 0
1, 0
0, 0
0, 0
0, 0
0, 0
0, 0
0, 1
0, 0
0, 0
0, 0
0, 1
0, 0
1, 0
1, 0
0, 0
0, 0
1, 0
0, 0
0, 0
0, 0
0, 1
0, 0
0, 1
0, 0
0, 0
0, 0
0, 0
0, 0
0, 0
0, 0
0, 0
0, 0
0, 0
0, 0
0, 0
0, 0
0, 0
0, 0
1, 0
0, 0
1, 0
0, 1
0, 0
0, 0
0, 0
0, 0
0, 0
0, 0
0, 0
0, 0
0, 0
0, 0
0, 0
0, 0
0, 1
0, 0
0, 0
0, 0
0, 0
1, 0
0, 0
0, 0
0, 0
0, 0
0, 0
0, 1
0, 0
0, 0
0, 1
0, 0
0, 0
0, 0
0, 0
0, 0
0, 0
0, 0
0, 0
0, 0
0, 0
0, 0
0, 0
0, 0
0, 0
0, 0
0, 0
0, 0
0, 0
0, 0
0, 0
0, 0
0, 1
0, 0
0, 0
0, 0
0, 0
0, 0
0, 0
0, 0
0, 0
0, 0
0, 0
1, 0
0, 0
0, 0
0, 0
0, 0
0, 0
0, 0
0, 0
0, 0
0, 0
0, 0
0, 0
0, 0
0, 0
0, 0
0, 0
0, 0
0, 0
0, 0
0, 0
0, 0
0, 0
0, 0
0, 0
0, 0
0, 1
0, 0
0, 0
0, 0
0, 0
0, 0
0, 0
0, 0
0, 0
0, 0
0, 0
0, 0
0, 0
0, 0
0, 0
0, 0
0, 0
0, 0
0, 0
0, 0
0, 0
0, 0
0, 0
0, 0
0, 0
0, 1
0, 0
0, 0
0, 0
0, 0
0, 0
0, 0
0, 0
0, 0
0, 0
0, 0
0, 0
0, 0
0, 0
0, 0
0, 0
0, 0
0, 0
0, 0
0, 0
0, 0
0, 0
0, 0
0, 0
0, 0
0, 0
0, 0
0, 0
0, 0
0, 0
0, 0
0, 0
0, 0
0, 0
0, 0
0, 0
0, 0
0, 0
0, 0
0, 0
0, 0
0, 0
0, 0
0, 0
0, 0
0, 0
0, 0
0, 0
0, 0
0, 0
0, 0
0, 0
0, 0
0, 0
0, 0
0, 0
0, 0
0, 0
0, 0
0, 0
0, 0
0, 0
0, 0
0, 0
0, 0
0, 0
0, 0
0, 0
0, 0
0, 0
0, 0
0, 0
0, 0
0, 0
0, 0
0, 0
0, 0
0, 0
0, 0
0, 0
0, 0
0, 0
0, 0
0, 0
0, 0
0, 0
0, 0
0, 0
0, 0
0, 0
0, 0
0, 0
0, 0
0, 0
0, 0
0, 0
0, 0
0, 0
0, 0
0, 0
0, 0
0, 0
0, 0
0, 0
0, 0
0, 0
0, 0
0, 0
0, 0
0, 0
0, 0
0, 0
0, 0
0, 0
0, 0
0, 0
0, 0
0, 0
0, 0
0, 0
0, 0
0, 0
0, 0
0, 0
0, 0
0, 0
0, 0
0, 0
0, 0
0, 0
0, 0
0, 0
0, 0
0, 0
0, 0
0, 0
0, 0
0, 0
0, 0
0, 0
0, 0
0, 0
0, 0
0, 0
0, 0
0, 0
0, 0
0, 0
0, 0
0, 0
0, 0
0, 0
0, 0
0, 0
0, 0
0, 0
0, 0
0, 0
0, 0
0, 0
0, 0
0, 0
0, 0
0, 0
0, 0
0, 0
0, 0
0, 0
0, 0
0, 0
0, 0
0, 0
0, 0
0, 0
0, 0
0, 0
0, 0
0, 0
0, 0
0, 0
0, 0
0, 0
0, 0
0, 0
0, 0
0, 0
0, 0
0, 0
0, 0
0, 0
0, 0
0, 0
0, 0
0, 0
0, 0
0, 0
0, 0
0, 0
0, 0
0, 0
0, 0
0, 0
0, 0
0, 0
0, 0
0, 0
0, 0
0, 0
0, 0
0, 0
0, 0
0, 0
0, 0
0, 0
0, 0
0, 0
0, 0
0, 0
0, 0
0, 0
0, 0
0, 0
0, 0
0, 0
0, 0
0, 0
0, 0
0, 0
0, 0
0, 0
0, 0
0, 0
0, 0
0, 0
0, 0
0, 0
0, 0
0, 0
0, 0
0, 0
0, 0
0, 0
0, 0
0, 0
0, 0
0, 0
0, 0
0, 0
0, 0
0, 0
0, 0
0, 0
0, 0
0, 0
0, 0
0, 0
0, 0
0, 0
0, 0
0, 0
0, 0
0, 0
0, 0
0, 0
0, 0
0, 0
0, 0
0, 0
0, 0
0, 0
0, 0
0, 0
0, 0
0, 0
0, 0
0, 0
0, 0
0, 0
0, 0
0, 0
0, 0
0, 0
0, 0
0, 0
0, 0
0, 0
0, 0
0, 0
0, 0
0, 0
0, 0
0, 0
0, 0
0, 0
0, 0
0, 0
0, 0
0, 0
0, 0
0, 0
0, 0
0, 0
0, 0
0, 0
0, 0
0, 0
0, 0
0, 0
0, 0
0, 0
0, 0
0, 0
0, 0
0, 0
0, 0
0, 0
0, 0
0, 0
0, 0
0, 0
0, 0
0, 0
0, 0
0, 0
0, 0
0, 0
0, 0
0, 0
0, 0
0, 0
0, 0
0, 0
0, 0
0, 0
0, 0
0, 0
0, 0
0, 0
0, 0
0, 0
0, 0
0, 0
0, 0
0, 0
0, 0
0, 0
0, 0
0, 0
0, 0
0, 0
0, 0
0, 0
0, 0
0, 0
0, 0
0, 0
0, 0
0, 0
0, 0
0, 0
0, 0
0, 0
0, 0
0, 0
0, 0
0, 0
0, 0
0, 0
0, 0
0, 0
0, 0
0, 0
0, 0
0, 0
0, 0
0, 0
0, 0
0, 0
0, 0
0, 0
0, 0
#ENDOFDATA     end of spectrum data