File: host_upload/06-09-2024/ps_0852/dump3/ps__0852shot_2424.msa
#FORMAT      : EMSA/MAS spectral data file
#VERSION     : TC202v2.0 PIXL
#TITLE       : N/A
#DATE        :       Date in the format DD-MMM-YYYY, for example 07-JUL-2010
#TIME        :             The time of day at which the spectrum was recorded, in 24-hour format
#OWNER       : PIXL Flight Model       (PIXL will use this to indicate which instrument took the data.)
#NPOINTS     : 4096     Number of data points in the spectrum (This can be zero for configuration only files)
#NCOLUMNS    : 2     Number of data columns in the spectrum (This can be zero for configuration only files)
#XUNITS      : eV
#YUNITS      : COUNTS
#DATATYPE    : YY
#XPERCHAN    : 7.862, 7.881   eV per channel (separate by commas if more than one detector)
#OFFSET      : 18.5, -22.4         eV of first channel  (separate by commas if more than one detector
#SIGNALTYPE  : XRF
#YP_TEMP     : 2.139
#LIVETIME    : 8.56051, 8.56594   seconds (separate by commas if more than one detector)
#REALTIME    : 10, 10.0   seconds (separate by commas if more than one detector)
#SPECTRUM    : start of spectrum data
0, 0
0, 0
0, 0
0, 0
0, 0
0, 0
0, 0
0, 0
0, 0
0, 0
0, 0
0, 0
0, 0
0, 0
0, 0
0, 0
0, 0
0, 0
0, 0
0, 0
0, 0
0, 0
0, 0
0, 0
0, 0
0, 0
0, 0
0, 0
0, 0
0, 0
0, 0
0, 0
0, 0
0, 1
0, 0
0, 0
0, 1
0, 0
3, 1
2, 0
3, 1
8, 3
3, 0
5, 2
1, 2
0, 2
1, 0
1, 2
6, 6
14, 15
25, 24
50, 37
59, 50
71, 77
83, 69
81, 74
72, 52
41, 35
24, 27
14, 21
11, 9
3, 3
3, 0
2, 4
4, 0
3, 2
5, 3
9, 7
22, 25
47, 49
86, 107
155, 197
253, 292
337, 359
446, 419
438, 426
383, 397
305, 262
207, 169
148, 113
73, 47
29, 39
17, 13
7, 7
9, 7
2, 5
6, 1
4, 2
0, 1
2, 0
2, 1
2, 0
2, 1
2, 2
1, 1
2, 1
1, 0
1, 4
2, 3
2, 2
3, 8
0, 3
2, 1
4, 6
5, 4
3, 3
8, 6
13, 1
23, 11
44, 11
80, 12
126, 24
193, 18
256, 22
257, 36
332, 29
308, 28
233, 24
188, 18
140, 22
88, 25
42, 12
27, 21
28, 29
17, 9
20, 29
12, 28
8, 14
10, 6
5, 2
3, 6
3, 7
6, 4
4, 3
2, 1
3, 4
0, 2
1, 2
3, 1
0, 3
1, 1
1, 2
1, 1
1, 1
2, 0
4, 3
4, 4
5, 2
5, 1
7, 1
9, 4
7, 1
9, 4
17, 3
6, 7
21, 7
32, 9
38, 8
42, 7
48, 5
64, 7
72, 10
60, 7
80, 5
64, 6
49, 4
63, 3
43, 5
30, 6
12, 3
13, 5
4, 8
8, 3
5, 1
1, 4
2, 3
4, 1
5, 3
3, 3
0, 2
0, 2
3, 1
5, 3
9, 2
2, 3
2, 1
3, 2
6, 12
4, 5
2, 16
10, 23
13, 25
5, 23
9, 27
5, 31
10, 26
9, 20
11, 26
11, 18
11, 15
15, 19
15, 12
9, 7
2, 6
5, 1
8, 7
7, 4
8, 2
4, 2
8, 4
7, 3
9, 7
10, 7
2, 2
6, 5
3, 5
10, 6
6, 0
8, 10
6, 5
16, 7
10, 7
22, 6
24, 13
27, 4
39, 6
42, 16
33, 13
36, 11
24, 10
41, 12
22, 8
15, 14
8, 12
9, 11
8, 23
9, 23
13, 25
7, 48
8, 62
11, 61
6, 82
8, 96
5, 90
10, 78
21, 83
22, 76
30, 74
36, 70
54, 79
56, 75
65, 56
57, 58
59, 47
49, 51
44, 35
18, 22
23, 17
21, 11
16, 17
16, 21
26, 28
48, 47
93, 100
148, 189
270, 338
477, 569
752, 899
1082, 1229
1501, 1692
1899, 2042
2275, 2266
2368, 2415
2385, 2261
2033, 1900
1693, 1507
1315, 1135
920, 686
553, 434
340, 254
198, 123
127, 79
81, 32
35, 21
36, 13
29, 13
19, 12
25, 14
14, 15
17, 14
27, 32
36, 38
47, 60
76, 84
95, 104
157, 166
187, 232
248, 294
289, 355
319, 342
371, 372
336, 296
311, 262
277, 222
183, 160
126, 102
90, 72
46, 49
23, 30
17, 45
20, 26
5, 38
7, 31
6, 33
12, 43
14, 25
13, 38
13, 21
15, 27
19, 22
16, 14
10, 17
15, 5
9, 13
13, 5
10, 0
5, 2
5, 2
8, 5
5, 2
6, 3
11, 9
8, 8
8, 8
8, 4
1, 1
9, 5
7, 6
14, 5
10, 7
11, 7
4, 6
9, 7
6, 4
4, 3
4, 1
2, 1
4, 4
3, 9
9, 11
11, 5
8, 8
6, 2
9, 4
3, 6
4, 5
3, 8
2, 2
4, 3
3, 11
4, 4
2, 9
5, 6
5, 17
7, 14
3, 14
4, 10
4, 17
2, 18
2, 9
4, 8
3, 7
3, 6
3, 0
4, 3
10, 2
4, 3
6, 6
1, 7
1, 3
4, 6
4, 2
6, 7
8, 4
4, 5
3, 1
10, 2
13, 7
5, 1
7, 1
8, 4
11, 5
8, 2
12, 1
17, 3
15, 3
10, 5
6, 3
3, 6
6, 4
10, 6
8, 4
5, 1
3, 3
3, 2
2, 5
4, 5
4, 6
3, 6
0, 4
1, 3
4, 1
5, 3
1, 4
3, 5
3, 3
4, 2
2, 3
5, 5
4, 2
2, 5
4, 1
3, 6
7, 6
5, 2
0, 2
0, 3
3, 7
3, 11
5, 16
5, 8
3, 7
1, 5
5, 8
3, 7
2, 5
10, 5
5, 5
2, 7
2, 4
1, 2
9, 8
0, 7
5, 6
7, 2
5, 2
7, 5
4, 5
7, 3
5, 2
4, 2
5, 0
6, 3
5, 1
5, 2
3, 3
2, 3
2, 2
6, 2
5, 2
4, 3
3, 1
4, 1
6, 2
2, 4
5, 0
2, 2
0, 2
5, 3
1, 2
0, 4
1, 5
2, 4
4, 2
2, 2
4, 2
4, 2
4, 3
1, 3
1, 4
3, 1
1, 4
1, 3
3, 4
4, 2
1, 1
3, 5
3, 0
1, 1
2, 0
1, 4
0, 2
3, 1
1, 4
6, 6
3, 1
2, 3
5, 1
3, 4
2, 5
2, 2
6, 0
8, 2
2, 2
8, 3
9, 5
7, 1
4, 1
5, 6
4, 1
8, 2
2, 2
2, 2
3, 2
2, 2
1, 3
2, 3
5, 3
2, 2
2, 3
2, 3
3, 2
1, 2
1, 1
0, 2
1, 4
0, 2
1, 2
1, 3
1, 3
2, 2
4, 1
1, 1
2, 2
1, 3
5, 1
3, 3
4, 3
6, 4
4, 8
3, 3
2, 3
0, 3
5, 3
2, 5
6, 4
0, 3
1, 2
2, 2
1, 4
3, 1
1, 2
0, 0
1, 0
2, 1
4, 1
1, 1
2, 4
2, 3
0, 3
0, 0
1, 1
3, 2
0, 0
3, 6
4, 1
3, 1
2, 2
2, 3
2, 2
0, 0
3, 3
1, 2
1, 0
2, 3
3, 0
1, 1
1, 3
3, 0
0, 0
1, 1
0, 2
0, 0
1, 0
0, 0
2, 0
4, 4
3, 0
3, 1
0, 1
0, 1
2, 0
2, 0
1, 1
2, 0
2, 2
0, 0
0, 0
0, 0
0, 1
3, 0
0, 1
0, 2
2, 0
1, 1
0, 1
1, 0
0, 1
3, 0
2, 0
0, 1
0, 0
4, 0
1, 0
2, 4
0, 1
2, 1
0, 4
0, 1
0, 1
0, 2
0, 0
2, 0
0, 1
1, 0
1, 1
0, 0
0, 0
1, 1
1, 2
2, 0
1, 1
2, 1
0, 1
1, 1
0, 1
2, 1
2, 0
1, 0
0, 0
3, 0
0, 1
1, 1
1, 0
0, 1
1, 1
0, 1
1, 1
0, 1
1, 2
0, 1
0, 0
0, 0
0, 0
1, 0
1, 0
1, 0
0, 0
1, 1
0, 1
2, 2
1, 1
0, 0
0, 3
0, 0
1, 0
0, 1
0, 1
1, 0
0, 0
0, 0
2, 2
1, 1
0, 0
0, 0
0, 2
0, 1
1, 1
1, 0
0, 0
1, 0
0, 0
1, 0
2, 1
1, 0
3, 0
2, 0
0, 0
0, 0
0, 1
0, 1
0, 0
0, 1
1, 2
2, 1
1, 0
2, 0
0, 0
0, 0
1, 0
0, 2
0, 1
0, 2
0, 1
0, 0
0, 0
0, 0
1, 0
0, 0
0, 0
1, 0
1, 1
0, 0
1, 0
1, 0
0, 0
0, 0
0, 0
0, 0
0, 0
0, 0
0, 1
0, 1
0, 0
0, 0
0, 0
0, 0
1, 2
0, 0
1, 0
0, 1
0, 0
0, 0
0, 0
0, 0
0, 1
0, 0
0, 0
0, 0
0, 3
0, 0
1, 0
0, 0
0, 1
0, 0
1, 0
0, 0
0, 0
2, 0
0, 0
0, 0
0, 0
0, 0
0, 0
1, 1
0, 1
0, 0
0, 1
0, 0
0, 0
0, 2
0, 0
0, 0
0, 0
0, 0
0, 0
1, 0
1, 0
0, 0
2, 0
0, 0
0, 1
0, 0
0, 1
1, 0
1, 0
0, 0
0, 0
1, 0
0, 0
0, 1
0, 1
0, 1
0, 0
0, 0
1, 0
0, 1
0, 1
1, 0
1, 0
0, 0
0, 0
0, 0
1, 0
0, 0
0, 0
0, 1
0, 1
0, 0
0, 0
0, 0
1, 0
2, 0
0, 0
1, 0
0, 0
0, 0
1, 0
0, 0
0, 0
0, 0
0, 0
3, 0
0, 0
1, 0
0, 0
0, 0
0, 0
0, 0
0, 0
0, 0
0, 0
0, 0
0, 0
0, 0
0, 0
0, 0
0, 0
0, 1
0, 0
0, 0
0, 0
0, 0
0, 0
0, 0
0, 1
1, 0
1, 0
0, 0
0, 0
0, 0
0, 0
0, 0
1, 1
0, 0
0, 0
0, 0
0, 0
0, 1
0, 0
0, 0
0, 0
1, 0
1, 0
0, 0
1, 0
0, 0
0, 0
0, 0
1, 0
0, 0
0, 0
0, 0
0, 1
0, 0
0, 0
0, 0
0, 0
0, 0
0, 0
0, 0
0, 1
0, 0
1, 0
0, 0
0, 0
0, 0
1, 0
0, 0
0, 0
0, 0
0, 0
0, 0
0, 0
0, 0
0, 0
0, 0
0, 0
0, 1
1, 0
0, 0
0, 0
0, 0
0, 0
0, 0
0, 0
1, 0
0, 0
0, 0
0, 1
1, 0
0, 0
0, 0
0, 0
0, 0
0, 0
1, 0
0, 0
0, 0
0, 0
0, 0
0, 0
0, 0
0, 0
0, 0
0, 0
0, 0
0, 0
1, 0
0, 0
0, 0
0, 0
0, 0
0, 0
0, 0
0, 0
0, 0
0, 0
0, 0
0, 0
0, 0
0, 0
0, 0
0, 0
0, 0
0, 0
0, 0
0, 0
0, 0
0, 0
0, 0
0, 0
0, 0
0, 0
0, 0
0, 0
0, 0
0, 0
0, 0
0, 0
0, 0
0, 0
0, 0
0, 0
0, 0
0, 0
0, 0
0, 0
0, 0
0, 0
0, 1
0, 0
0, 0
0, 0
0, 0
0, 0
0, 1
0, 0
0, 0
0, 0
0, 0
0, 0
0, 1
0, 0
0, 0
0, 0
0, 0
0, 0
0, 0
0, 0
0, 0
0, 0
0, 0
0, 0
0, 0
0, 0
0, 0
0, 0
0, 0
0, 0
0, 0
0, 0
0, 0
0, 0
0, 0
0, 0
0, 0
0, 0
0, 0
0, 0
0, 0
0, 0
0, 0
0, 0
0, 0
0, 0
0, 0
0, 0
1, 0
0, 0
0, 0
0, 0
0, 0
0, 0
0, 0
0, 0
0, 0
0, 0
0, 0
0, 0
0, 0
0, 0
0, 0
0, 0
0, 0
0, 0
0, 1
0, 0
0, 0
0, 0
0, 0
0, 0
0, 0
0, 0
0, 0
0, 0
0, 0
0, 0
0, 0
0, 0
0, 0
0, 0
0, 0
0, 0
0, 0
0, 0
0, 0
0, 0
0, 0
0, 0
0, 0
0, 0
0, 0
0, 0
0, 0
0, 0
0, 0
0, 0
0, 0
0, 0
0, 0
0, 0
0, 0
0, 0
0, 0
0, 0
0, 0
0, 0
0, 0
0, 0
0, 0
0, 0
0, 0
0, 0
0, 0
0, 0
0, 0
0, 0
0, 0
0, 0
0, 0
0, 0
0, 0
0, 0
0, 0
0, 0
0, 0
0, 0
0, 0
0, 0
0, 0
0, 0
0, 0
0, 0
0, 0
0, 0
0, 0
0, 0
0, 0
0, 0
0, 0
0, 0
0, 0
0, 0
0, 0
0, 0
0, 0
0, 0
0, 0
0, 0
0, 0
0, 0
0, 0
0, 0
0, 0
0, 0
0, 0
0, 0
0, 0
0, 0
0, 0
0, 0
0, 0
0, 0
0, 0
0, 0
0, 0
0, 0
0, 0
0, 0
0, 0
0, 0
0, 0
0, 0
0, 0
0, 0
0, 0
0, 0
0, 0
0, 0
0, 0
0, 0
0, 0
0, 0
0, 0
0, 0
0, 0
0, 0
0, 0
0, 0
0, 0
0, 0
0, 0
0, 0
0, 0
0, 0
0, 0
0, 0
0, 0
0, 0
0, 0
0, 0
0, 0
0, 0
0, 0
0, 0
0, 0
0, 0
0, 0
0, 0
0, 0
0, 0
0, 0
0, 0
0, 0
0, 0
0, 0
0, 0
0, 0
0, 0
0, 0
0, 0
0, 0
0, 0
0, 0
0, 0
0, 0
0, 0
0, 0
0, 0
0, 0
0, 0
0, 0
0, 0
0, 0
0, 0
0, 0
0, 0
0, 0
0, 0
0, 0
0, 0
0, 0
0, 0
0, 0
0, 0
0, 0
0, 0
0, 0
0, 0
0, 0
0, 0
0, 0
0, 0
0, 0
0, 0
0, 0
0, 0
0, 0
0, 0
0, 0
0, 0
0, 0
0, 0
0, 0
0, 0
0, 0
0, 0
0, 0
0, 0
0, 0
0, 0
0, 0
0, 0
0, 0
0, 0
0, 0
0, 0
0, 0
0, 0
0, 0
0, 0
0, 0
0, 0
0, 0
0, 0
0, 0
0, 0
0, 0
0, 0
0, 0
0, 0
0, 0
0, 0
0, 0
0, 0
0, 0
0, 0
0, 0
0, 0
0, 0
0, 0
0, 0
0, 0
0, 0
0, 0
0, 0
0, 0
0, 0
0, 0
0, 0
0, 0
0, 0
0, 0
0, 0
0, 0
0, 0
0, 0
0, 0
0, 0
0, 0
0, 0
0, 0
0, 0
0, 0
0, 0
0, 0
0, 0
0, 0
0, 0
0, 0
0, 0
0, 0
0, 0
0, 0
0, 0
0, 0
0, 0
0, 0
0, 0
0, 0
0, 0
0, 0
0, 0
0, 0
0, 0
0, 0
0, 0
0, 0
0, 0
0, 0
0, 0
0, 0
0, 0
0, 0
0, 0
0, 0
0, 0
0, 0
0, 0
0, 0
0, 0
0, 0
0, 0
0, 0
0, 0
0, 0
0, 0
0, 0
0, 0
0, 0
0, 0
0, 0
0, 0
0, 0
0, 0
0, 0
0, 0
0, 0
0, 0
0, 0
0, 0
0, 0
0, 0
0, 0
0, 0
0, 0
0, 0
0, 0
0, 0
0, 0
0, 0
0, 0
0, 0
0, 0
0, 0
0, 0
0, 0
0, 0
0, 0
0, 0
0, 0
0, 0
0, 0
0, 0
0, 0
#ENDOFDATA     end of spectrum data