File: host_upload/06-09-2024/ps_0852/dump3/ps__0852shot_2512.msa
#FORMAT      : EMSA/MAS spectral data file
#VERSION     : TC202v2.0 PIXL
#TITLE       : N/A
#DATE        :       Date in the format DD-MMM-YYYY, for example 07-JUL-2010
#TIME        :             The time of day at which the spectrum was recorded, in 24-hour format
#OWNER       : PIXL Flight Model       (PIXL will use this to indicate which instrument took the data.)
#NPOINTS     : 4096     Number of data points in the spectrum (This can be zero for configuration only files)
#NCOLUMNS    : 2     Number of data columns in the spectrum (This can be zero for configuration only files)
#XUNITS      : eV
#YUNITS      : COUNTS
#DATATYPE    : YY
#XPERCHAN    : 7.862, 7.881   eV per channel (separate by commas if more than one detector)
#OFFSET      : 18.5, -22.4         eV of first channel  (separate by commas if more than one detector
#SIGNALTYPE  : XRF
#YP_TEMP     : 2.011
#LIVETIME    : 8.55285, 8.54464   seconds (separate by commas if more than one detector)
#REALTIME    : 10, 10.0   seconds (separate by commas if more than one detector)
#SPECTRUM    : start of spectrum data
0, 0
0, 0
0, 0
0, 0
0, 0
0, 0
0, 0
0, 0
0, 0
0, 0
0, 0
0, 0
0, 0
0, 0
0, 0
0, 0
0, 0
0, 0
0, 0
0, 0
0, 0
0, 0
0, 0
0, 0
0, 0
0, 0
0, 0
0, 0
0, 0
0, 0
0, 1
0, 0
1, 0
0, 0
0, 0
0, 1
0, 0
0, 0
1, 0
0, 2
1, 3
1, 0
0, 0
0, 1
2, 0
2, 1
2, 1
6, 2
10, 9
10, 11
21, 26
46, 37
62, 46
85, 67
82, 65
86, 71
67, 55
43, 36
26, 19
19, 11
11, 12
6, 3
1, 3
6, 3
2, 1
3, 0
4, 5
15, 8
20, 26
42, 37
119, 100
155, 182
273, 254
381, 352
480, 387
418, 413
409, 305
309, 231
198, 166
121, 109
70, 68
37, 32
22, 20
15, 7
8, 4
2, 2
3, 4
2, 1
1, 3
1, 3
2, 3
3, 4
6, 6
6, 14
21, 19
27, 25
37, 43
50, 63
64, 55
59, 44
57, 50
45, 30
32, 22
23, 16
13, 22
6, 9
11, 14
19, 10
11, 16
12, 15
18, 16
28, 31
36, 31
37, 42
38, 42
39, 45
38, 39
32, 43
22, 36
25, 33
19, 36
15, 18
11, 17
13, 24
16, 14
14, 18
12, 18
7, 11
8, 8
11, 7
1, 5
2, 4
5, 5
5, 1
3, 4
3, 3
3, 7
1, 4
2, 1
3, 0
5, 2
4, 5
3, 3
2, 0
3, 5
3, 2
2, 3
5, 1
2, 2
3, 1
2, 1
5, 5
6, 3
10, 9
4, 6
8, 3
15, 11
17, 15
13, 17
10, 7
9, 11
8, 10
10, 3
8, 6
6, 5
7, 5
8, 3
6, 4
2, 12
7, 4
6, 7
4, 5
3, 5
5, 9
3, 6
3, 1
4, 7
6, 11
6, 8
1, 2
3, 7
3, 5
9, 1
7, 2
4, 2
7, 4
3, 2
3, 5
3, 7
3, 4
9, 9
7, 6
9, 12
10, 10
15, 16
11, 6
15, 11
14, 27
19, 39
16, 27
14, 22
13, 42
5, 39
7, 42
11, 45
9, 40
4, 34
11, 32
7, 33
6, 38
9, 32
6, 37
3, 27
6, 28
10, 17
9, 11
5, 14
4, 12
8, 7
8, 8
5, 12
3, 7
11, 5
9, 4
9, 5
16, 7
19, 6
19, 18
22, 4
20, 5
22, 10
31, 7
21, 18
28, 11
17, 5
19, 4
13, 10
12, 8
11, 5
10, 20
15, 20
17, 23
7, 36
14, 31
16, 27
26, 45
28, 36
40, 42
52, 71
60, 70
66, 57
51, 71
60, 61
33, 56
48, 27
43, 29
50, 15
51, 17
64, 24
66, 20
101, 19
134, 42
130, 43
203, 99
252, 181
385, 318
568, 537
863, 873
1252, 1245
1604, 1742
2155, 2077
2426, 2202
2473, 2314
2473, 2178
2151, 1787
1898, 1475
1415, 1022
936, 703
625, 432
357, 236
220, 144
111, 88
40, 41
39, 39
23, 33
14, 19
21, 22
12, 12
17, 14
16, 20
25, 17
41, 37
46, 44
73, 79
93, 117
163, 180
205, 222
272, 280
320, 323
374, 322
372, 328
366, 319
308, 255
256, 204
186, 156
149, 98
78, 60
43, 35
41, 20
20, 21
12, 10
19, 7
9, 8
8, 7
12, 8
12, 11
16, 17
22, 17
10, 15
16, 14
16, 11
14, 8
19, 8
6, 7
6, 6
9, 5
4, 4
6, 3
9, 5
3, 6
9, 2
5, 4
7, 5
8, 1
9, 2
5, 1
5, 5
7, 3
5, 2
3, 0
4, 7
5, 6
5, 6
6, 5
1, 1
3, 5
3, 3
6, 3
5, 7
7, 7
6, 10
11, 7
14, 8
8, 12
14, 5
11, 6
11, 5
15, 5
12, 5
18, 2
14, 1
17, 2
8, 5
10, 3
8, 4
11, 3
6, 2
6, 2
9, 4
8, 6
5, 4
4, 2
3, 5
4, 4
8, 3
5, 2
7, 5
7, 5
4, 4
3, 7
7, 3
7, 6
2, 4
4, 10
4, 5
2, 6
6, 6
3, 5
6, 4
3, 8
3, 2
2, 3
2, 2
6, 1
3, 5
4, 4
2, 3
4, 2
1, 3
3, 2
4, 4
4, 3
2, 0
7, 3
2, 4
4, 3
6, 7
4, 7
4, 4
4, 4
0, 6
7, 4
2, 3
3, 4
7, 3
4, 5
11, 4
5, 3
7, 4
6, 6
8, 2
2, 5
7, 1
1, 3
3, 2
2, 5
3, 4
3, 0
4, 2
4, 4
4, 4
5, 1
3, 7
0, 2
1, 1
0, 4
2, 5
5, 2
3, 6
2, 5
2, 2
2, 2
4, 4
3, 5
2, 2
1, 1
6, 2
2, 4
5, 3
3, 3
6, 3
2, 3
2, 7
3, 5
1, 7
4, 8
5, 1
6, 7
3, 5
2, 0
5, 2
5, 4
10, 5
5, 2
8, 3
10, 2
4, 1
9, 1
4, 1
3, 0
6, 2
1, 2
1, 2
3, 5
1, 2
3, 1
2, 1
2, 1
1, 3
0, 3
1, 3
1, 0
3, 2
4, 2
0, 4
4, 0
2, 0
6, 5
2, 3
3, 6
2, 3
3, 6
2, 4
1, 3
0, 5
3, 7
3, 1
0, 4
3, 0
2, 2
3, 3
1, 3
2, 5
2, 3
3, 1
5, 2
2, 3
4, 1
1, 1
4, 1
1, 2
1, 2
3, 3
1, 1
6, 2
3, 3
2, 4
1, 2
3, 1
0, 1
2, 2
3, 3
3, 1
0, 0
3, 1
2, 0
5, 3
1, 4
0, 1
4, 1
0, 0
1, 1
3, 2
2, 2
1, 1
1, 2
4, 3
4, 7
2, 3
4, 1
5, 6
5, 4
10, 3
3, 5
5, 4
3, 4
3, 0
3, 2
7, 1
2, 2
1, 2
4, 1
3, 1
3, 0
2, 3
3, 2
2, 2
3, 3
6, 3
0, 4
2, 1
4, 6
5, 3
6, 3
5, 1
2, 3
2, 3
4, 1
5, 1
3, 0
2, 4
1, 1
1, 3
0, 0
1, 1
2, 1
4, 1
1, 1
2, 0
1, 2
3, 2
2, 1
1, 3
1, 2
1, 1
0, 1
0, 0
1, 2
0, 0
1, 2
5, 0
4, 1
3, 1
1, 2
1, 1
1, 1
0, 0
2, 0
0, 1
1, 0
1, 0
1, 3
1, 0
1, 1
1, 0
1, 1
1, 1
0, 0
0, 1
1, 0
1, 0
2, 0
1, 2
1, 0
1, 0
1, 2
1, 0
2, 0
1, 1
0, 0
1, 1
1, 1
1, 1
1, 3
0, 1
2, 1
2, 0
0, 1
1, 2
0, 1
0, 0
0, 0
1, 0
0, 0
0, 0
1, 0
0, 1
3, 2
1, 1
0, 0
2, 1
1, 1
0, 0
2, 0
0, 0
1, 1
0, 1
0, 0
1, 0
2, 0
0, 0
1, 0
2, 0
2, 0
1, 1
0, 3
0, 0
0, 0
3, 1
0, 1
0, 1
0, 1
1, 1
1, 3
1, 1
2, 0
1, 1
0, 0
0, 1
0, 1
0, 0
0, 0
0, 1
0, 0
0, 1
0, 0
0, 2
1, 3
0, 0
1, 1
0, 0
0, 0
1, 0
0, 0
0, 0
0, 2
0, 1
2, 0
1, 0
0, 1
1, 1
0, 1
1, 0
0, 0
0, 0
0, 0
0, 2
0, 0
1, 1
0, 0
1, 1
1, 0
1, 0
0, 0
0, 0
1, 0
1, 0
0, 1
0, 0
0, 0
0, 0
2, 0
1, 0
0, 0
0, 1
0, 1
0, 1
0, 0
0, 1
0, 1
0, 0
0, 0
0, 1
0, 0
1, 0
0, 0
0, 1
0, 0
0, 0
0, 0
0, 0
2, 0
0, 0
1, 0
1, 0
0, 0
0, 1
1, 1
0, 0
0, 1
1, 0
0, 0
0, 0
0, 0
0, 1
0, 0
0, 0
2, 0
0, 0
0, 1
0, 0
0, 0
0, 0
0, 0
1, 0
0, 0
0, 0
1, 0
0, 1
0, 0
0, 0
0, 1
1, 1
2, 0
0, 0
0, 0
0, 0
0, 0
0, 0
0, 0
0, 0
0, 1
0, 0
0, 0
0, 0
0, 1
0, 0
2, 0
1, 1
0, 0
0, 1
0, 0
0, 1
0, 1
0, 0
1, 0
0, 1
2, 0
2, 0
0, 0
0, 1
0, 0
1, 0
3, 0
0, 1
0, 0
0, 0
0, 0
1, 0
0, 1
0, 0
2, 0
0, 0
1, 0
1, 0
0, 0
0, 0
0, 0
0, 0
1, 1
0, 0
0, 0
0, 0
0, 1
0, 0
0, 0
0, 0
0, 0
0, 1
0, 1
0, 0
1, 0
0, 0
2, 0
0, 0
0, 0
0, 0
0, 0
0, 0
0, 0
0, 1
1, 0
0, 0
0, 0
0, 0
0, 0
0, 0
0, 0
0, 0
1, 0
0, 0
0, 0
0, 0
0, 0
0, 0
0, 0
1, 0
0, 0
1, 0
0, 0
0, 0
0, 1
0, 1
0, 0
1, 0
0, 0
0, 0
0, 0
1, 0
0, 1
0, 0
1, 0
0, 0
0, 0
0, 0
0, 0
0, 0
0, 0
0, 1
0, 0
0, 0
0, 0
0, 0
0, 0
0, 0
0, 0
0, 0
0, 0
0, 0
0, 0
0, 1
0, 1
0, 1
0, 0
0, 0
1, 0
0, 0
0, 0
0, 0
0, 0
1, 0
1, 0
0, 0
0, 0
0, 0
0, 0
0, 0
0, 0
0, 0
0, 0
0, 0
0, 0
0, 1
0, 0
0, 0
0, 0
0, 0
0, 0
0, 0
0, 0
0, 1
0, 0
0, 0
0, 0
0, 0
0, 0
0, 0
0, 0
0, 0
0, 0
0, 0
0, 0
0, 0
0, 0
0, 0
2, 0
0, 0
0, 0
0, 0
0, 0
0, 0
0, 0
0, 0
0, 0
0, 0
0, 0
0, 0
0, 0
0, 0
0, 0
0, 0
0, 0
0, 0
1, 0
0, 1
0, 0
0, 0
0, 0
0, 0
0, 0
0, 0
1, 0
0, 0
0, 0
0, 0
0, 0
0, 0
0, 0
0, 0
0, 0
0, 0
0, 0
0, 0
0, 0
0, 0
0, 0
0, 0
0, 0
0, 0
0, 1
0, 0
0, 0
0, 0
0, 0
0, 0
0, 0
0, 0
0, 0
0, 0
1, 0
0, 0
0, 0
0, 0
0, 0
0, 0
0, 0
0, 1
0, 0
0, 0
0, 0
0, 0
0, 0
0, 1
0, 0
0, 0
0, 0
0, 0
0, 0
0, 0
0, 0
0, 0
0, 0
0, 0
0, 0
0, 0
0, 0
0, 0
0, 0
0, 0
0, 0
0, 0
0, 0
0, 0
0, 0
0, 0
0, 0
0, 0
0, 0
0, 0
0, 0
0, 0
0, 0
0, 0
0, 0
0, 0
0, 0
0, 0
0, 0
0, 0
0, 0
0, 0
0, 0
0, 0
0, 0
0, 0
0, 0
0, 0
0, 0
0, 0
0, 0
0, 0
0, 0
0, 0
0, 0
0, 0
0, 0
0, 0
0, 0
0, 0
0, 0
0, 0
0, 0
0, 0
0, 0
0, 0
0, 0
0, 0
0, 0
0, 0
0, 0
0, 0
0, 0
0, 0
0, 0
0, 0
0, 0
0, 0
0, 0
0, 0
0, 0
0, 0
0, 0
0, 0
0, 0
0, 0
0, 0
0, 0
0, 0
0, 0
0, 0
0, 0
0, 0
0, 0
0, 0
0, 0
0, 0
0, 0
0, 0
0, 0
0, 0
0, 0
0, 0
0, 0
0, 0
0, 0
0, 0
0, 0
0, 0
0, 0
0, 0
0, 0
0, 0
0, 0
0, 0
0, 0
0, 0
0, 0
0, 0
0, 0
0, 0
0, 0
0, 0
0, 0
0, 0
0, 0
0, 0
0, 0
0, 0
0, 0
0, 0
0, 0
0, 0
0, 0
0, 0
0, 0
0, 0
0, 0
0, 0
0, 0
0, 0
0, 0
0, 0
0, 0
0, 0
0, 0
0, 0
0, 0
0, 0
0, 0
0, 0
0, 0
0, 0
0, 0
0, 0
0, 0
0, 0
0, 0
0, 0
0, 0
0, 0
0, 0
0, 0
0, 0
0, 0
0, 0
0, 0
0, 0
0, 0
0, 0
0, 0
0, 0
0, 0
0, 0
0, 0
0, 0
0, 0
0, 0
0, 0
0, 0
0, 0
0, 0
0, 0
0, 0
0, 0
0, 0
0, 0
0, 0
0, 0
0, 0
0, 0
0, 0
0, 0
0, 0
0, 0
0, 0
0, 0
0, 0
0, 0
0, 0
0, 0
0, 0
0, 0
0, 0
0, 0
0, 0
0, 0
0, 0
0, 0
0, 0
0, 0
0, 0
0, 0
0, 0
0, 0
0, 0
0, 0
0, 0
0, 0
0, 0
0, 0
0, 0
0, 0
0, 0
0, 0
0, 0
0, 0
0, 0
0, 0
0, 0
0, 0
0, 0
0, 0
0, 0
0, 0
0, 0
0, 0
0, 0
0, 0
0, 0
0, 0
0, 0
0, 0
0, 0
0, 0
0, 0
0, 0
0, 0
0, 0
0, 0
0, 0
0, 0
0, 0
0, 0
0, 0
0, 0
0, 0
0, 0
0, 0
0, 0
0, 0
0, 0
0, 0
0, 0
0, 0
0, 0
0, 0
0, 0
0, 0
0, 0
0, 0
0, 0
0, 0
0, 0
0, 0
0, 0
0, 0
0, 0
0, 0
0, 0
0, 0
0, 0
0, 0
0, 0
0, 0
0, 0
0, 0
0, 0
0, 0
0, 0
0, 0
0, 0
0, 0
0, 0
0, 0
0, 0
0, 0
0, 0
0, 0
0, 0
0, 0
0, 0
0, 0
0, 0
0, 0
0, 0
0, 0
0, 0
0, 0
0, 0
0, 0
0, 0
0, 0
0, 0
0, 0
0, 0
0, 0
0, 0
0, 0
0, 0
0, 0
0, 0
0, 0
0, 0
0, 0
0, 0
0, 0
0, 0
0, 0
0, 0
0, 0
0, 0
0, 0
0, 0
0, 0
0, 0
0, 0
0, 0
0, 0
0, 0
0, 0
0, 0
0, 0
0, 0
0, 0
0, 0
0, 0
0, 0
0, 0
0, 0
0, 0
0, 0
0, 0
0, 0
0, 0
0, 0
0, 0
0, 0
0, 0
0, 0
0, 0
0, 0
0, 0
0, 0
0, 0
0, 0
0, 0
0, 0
0, 0
0, 0
0, 0
0, 0
0, 0
0, 0
0, 0
0, 0
0, 0
#ENDOFDATA     end of spectrum data