File: host_upload/06-09-2024/ps_0852/dump3/ps__0852shot_2494.msa
#FORMAT      : EMSA/MAS spectral data file
#VERSION     : TC202v2.0 PIXL
#TITLE       : N/A
#DATE        :       Date in the format DD-MMM-YYYY, for example 07-JUL-2010
#TIME        :             The time of day at which the spectrum was recorded, in 24-hour format
#OWNER       : PIXL Flight Model       (PIXL will use this to indicate which instrument took the data.)
#NPOINTS     : 4096     Number of data points in the spectrum (This can be zero for configuration only files)
#NCOLUMNS    : 2     Number of data columns in the spectrum (This can be zero for configuration only files)
#XUNITS      : eV
#YUNITS      : COUNTS
#DATATYPE    : YY
#XPERCHAN    : 7.862, 7.881   eV per channel (separate by commas if more than one detector)
#OFFSET      : 18.5, -22.4         eV of first channel  (separate by commas if more than one detector
#SIGNALTYPE  : XRF
#YP_TEMP     : 2.428
#LIVETIME    : 8.53509, 8.57268   seconds (separate by commas if more than one detector)
#REALTIME    : 10, 10.0   seconds (separate by commas if more than one detector)
#SPECTRUM    : start of spectrum data
0, 0
0, 0
0, 0
0, 0
0, 0
0, 0
0, 0
0, 0
0, 0
0, 0
0, 0
0, 0
0, 0
0, 0
0, 0
0, 0
0, 0
0, 0
0, 0
0, 0
0, 0
0, 0
0, 0
0, 0
0, 0
0, 0
0, 0
0, 0
0, 0
0, 0
0, 0
0, 0
0, 1
0, 0
0, 0
1, 0
0, 2
2, 0
0, 0
0, 2
0, 2
0, 2
0, 0
1, 1
0, 3
2, 0
2, 1
4, 3
4, 6
16, 9
22, 26
40, 32
52, 60
67, 74
70, 92
63, 69
60, 49
45, 44
25, 24
9, 19
6, 6
4, 7
5, 3
3, 4
6, 7
9, 3
7, 6
12, 11
28, 27
56, 47
84, 117
173, 192
280, 304
415, 448
482, 503
430, 489
400, 411
299, 302
217, 244
124, 146
75, 82
34, 33
27, 24
12, 16
8, 6
4, 4
2, 4
1, 5
1, 3
2, 0
2, 0
3, 2
1, 3
2, 5
5, 8
7, 10
8, 13
11, 10
18, 18
20, 27
22, 12
20, 11
13, 9
9, 6
4, 5
3, 6
8, 10
5, 5
9, 6
16, 11
20, 24
19, 28
26, 26
33, 43
29, 43
35, 38
38, 43
32, 38
36, 35
31, 30
26, 29
29, 27
38, 29
26, 21
36, 22
29, 19
26, 11
16, 11
13, 5
13, 9
6, 9
3, 7
3, 3
2, 4
2, 2
3, 4
3, 1
0, 1
1, 1
1, 0
2, 4
0, 1
1, 2
1, 3
5, 2
1, 1
3, 0
3, 3
3, 6
6, 9
7, 11
22, 28
37, 45
77, 81
95, 119
116, 123
154, 166
159, 172
162, 176
129, 130
109, 134
85, 76
53, 46
34, 31
11, 16
12, 13
15, 15
19, 13
20, 17
22, 22
27, 21
28, 23
23, 25
26, 16
24, 23
11, 12
15, 11
12, 11
6, 5
7, 4
1, 7
7, 6
3, 7
2, 10
12, 5
6, 15
6, 15
9, 30
10, 32
16, 33
17, 35
21, 41
15, 28
21, 28
17, 26
16, 26
21, 25
11, 19
21, 9
15, 9
5, 7
13, 21
14, 9
17, 12
4, 4
2, 3
9, 6
4, 8
6, 7
6, 7
11, 8
11, 9
8, 6
8, 10
6, 5
8, 9
6, 3
6, 11
8, 6
2, 2
6, 4
4, 9
5, 5
6, 6
12, 14
11, 12
12, 18
16, 22
15, 19
16, 28
40, 21
24, 23
29, 25
13, 26
16, 23
13, 14
7, 12
11, 15
10, 10
3, 11
7, 8
6, 16
5, 4
9, 14
15, 17
16, 22
19, 26
34, 46
36, 47
39, 65
46, 68
42, 70
48, 56
42, 54
44, 33
45, 27
24, 19
14, 15
20, 24
16, 20
14, 28
22, 34
42, 47
94, 101
124, 180
245, 313
436, 547
702, 834
1021, 1228
1352, 1553
1673, 2008
1943, 2219
2074, 2241
2067, 2056
1847, 1795
1494, 1433
1133, 962
811, 648
505, 410
296, 249
174, 115
83, 60
34, 42
16, 30
21, 32
10, 47
12, 61
11, 74
11, 67
12, 72
20, 74
25, 80
37, 89
57, 90
107, 122
115, 168
175, 247
252, 273
273, 309
290, 315
309, 335
299, 289
268, 240
209, 217
167, 155
128, 97
96, 53
48, 37
29, 20
17, 9
11, 9
11, 11
1, 6
7, 10
11, 8
5, 14
18, 17
13, 12
17, 12
15, 16
14, 10
9, 11
10, 6
5, 3
5, 4
5, 8
6, 4
8, 6
4, 3
2, 1
3, 5
1, 8
12, 4
4, 1
5, 3
6, 6
5, 1
6, 7
10, 4
14, 5
15, 2
7, 6
11, 10
16, 4
7, 5
12, 7
13, 5
7, 4
10, 5
9, 9
2, 5
2, 2
7, 3
2, 6
2, 3
6, 6
3, 4
5, 9
5, 10
6, 4
6, 3
8, 7
5, 4
2, 7
4, 3
6, 7
6, 3
8, 5
1, 5
2, 8
11, 8
4, 5
2, 4
5, 10
3, 3
5, 7
4, 9
6, 2
4, 3
2, 3
2, 5
0, 4
1, 2
2, 3
7, 8
5, 3
3, 2
2, 2
2, 3
3, 4
5, 3
1, 2
2, 5
4, 5
4, 3
4, 3
9, 3
2, 3
4, 2
2, 1
4, 3
3, 6
2, 1
2, 1
1, 2
2, 3
4, 8
1, 8
5, 3
2, 3
5, 2
2, 10
3, 7
5, 10
1, 6
6, 17
5, 13
4, 12
5, 18
7, 19
10, 16
11, 8
6, 12
14, 9
12, 8
18, 6
28, 5
16, 2
23, 2
21, 4
12, 4
6, 2
3, 3
3, 2
2, 2
10, 2
7, 2
2, 2
2, 0
4, 1
3, 5
5, 3
3, 7
0, 3
1, 4
2, 0
2, 3
3, 7
2, 5
1, 3
5, 2
2, 2
2, 2
2, 1
2, 3
3, 3
0, 3
5, 1
0, 2
4, 6
1, 3
4, 3
3, 3
3, 0
0, 3
3, 4
3, 0
2, 7
3, 3
2, 2
5, 4
2, 0
2, 1
2, 2
4, 2
1, 3
2, 4
2, 2
3, 1
2, 2
1, 1
3, 4
3, 1
2, 0
3, 1
2, 2
5, 1
5, 4
1, 4
6, 1
6, 3
4, 2
7, 2
7, 1
3, 3
5, 3
2, 1
4, 0
5, 3
4, 1
5, 2
3, 2
3, 1
1, 0
1, 2
2, 0
3, 4
3, 0
1, 0
2, 1
1, 2
2, 0
1, 1
2, 0
2, 4
1, 3
1, 2
5, 3
3, 2
1, 4
1, 3
2, 4
3, 2
2, 4
1, 3
0, 1
2, 4
5, 2
2, 2
2, 2
1, 0
2, 1
3, 2
2, 2
1, 1
4, 2
1, 2
2, 4
2, 3
4, 7
3, 2
2, 3
3, 4
1, 4
7, 3
2, 4
3, 5
1, 6
3, 3
3, 2
0, 3
2, 2
3, 2
1, 2
2, 1
1, 1
1, 3
1, 1
1, 0
0, 2
3, 2
2, 1
4, 0
2, 1
1, 2
2, 2
1, 1
4, 1
1, 3
3, 0
4, 2
5, 4
0, 1
2, 2
2, 2
2, 1
0, 1
1, 1
2, 1
2, 1
0, 1
0, 1
1, 3
1, 2
0, 1
1, 1
1, 0
0, 3
0, 2
1, 0
0, 2
1, 4
2, 1
0, 1
1, 1
1, 1
2, 1
0, 1
1, 0
1, 0
4, 0
3, 0
2, 3
0, 2
0, 4
0, 2
1, 2
0, 1
0, 4
0, 0
1, 0
2, 0
2, 1
1, 1
0, 1
1, 1
2, 0
2, 0
1, 0
0, 2
0, 0
1, 2
0, 0
0, 1
1, 1
0, 1
0, 0
0, 1
2, 2
0, 0
3, 3
0, 2
0, 1
0, 2
1, 0
0, 0
0, 0
1, 2
0, 0
3, 1
1, 0
1, 0
0, 0
0, 1
1, 0
0, 0
0, 0
1, 3
1, 0
2, 2
1, 1
0, 2
1, 0
2, 1
2, 2
2, 2
0, 0
1, 0
0, 1
0, 0
2, 0
3, 0
0, 0
0, 0
0, 1
0, 0
0, 0
1, 1
0, 0
0, 0
0, 0
1, 0
2, 1
3, 1
0, 0
1, 0
1, 0
1, 0
1, 0
0, 0
0, 1
1, 0
0, 0
1, 1
1, 2
2, 0
0, 0
0, 0
0, 2
1, 0
0, 0
0, 0
0, 0
1, 0
0, 0
0, 0
0, 0
0, 1
0, 0
0, 0
1, 1
0, 0
2, 1
0, 1
1, 0
0, 1
0, 0
0, 0
0, 0
1, 0
0, 0
1, 1
0, 0
0, 0
1, 1
1, 1
0, 0
0, 0
0, 0
1, 0
0, 1
0, 0
1, 0
0, 0
0, 0
1, 0
0, 1
0, 0
0, 0
0, 0
1, 0
0, 0
0, 1
0, 0
0, 0
0, 0
1, 0
0, 0
0, 1
0, 0
1, 0
0, 2
0, 0
0, 0
1, 1
0, 0
1, 0
0, 0
0, 1
0, 0
0, 0
0, 0
0, 0
0, 0
0, 0
0, 0
0, 0
0, 0
0, 0
0, 1
1, 0
1, 0
1, 0
1, 1
0, 0
0, 0
0, 1
0, 0
1, 1
0, 0
1, 1
2, 0
0, 0
0, 0
0, 1
0, 0
0, 0
0, 1
0, 0
0, 1
1, 0
1, 0
1, 1
0, 0
0, 0
1, 1
0, 0
0, 0
1, 0
1, 0
0, 0
0, 0
0, 0
0, 0
0, 1
0, 1
0, 0
0, 0
2, 1
1, 0
1, 0
1, 0
0, 1
0, 0
1, 0
0, 0
0, 1
0, 0
0, 0
1, 0
0, 0
1, 0
0, 0
0, 0
0, 0
0, 0
1, 0
0, 0
0, 2
0, 0
0, 0
0, 1
0, 0
0, 0
0, 0
0, 0
0, 0
0, 1
0, 0
0, 0
0, 0
1, 0
0, 0
0, 0
0, 0
0, 0
0, 0
0, 0
0, 0
0, 0
0, 0
0, 0
1, 0
1, 0
0, 0
0, 0
0, 0
0, 0
0, 0
0, 0
0, 0
0, 0
0, 0
0, 1
1, 0
1, 1
0, 0
1, 0
0, 0
0, 0
0, 1
0, 0
0, 2
0, 0
0, 0
0, 0
1, 1
0, 0
0, 0
0, 0
0, 0
1, 0
0, 0
0, 0
0, 0
0, 0
0, 0
0, 0
0, 0
0, 0
0, 0
0, 0
0, 0
1, 0
0, 0
0, 0
0, 0
0, 0
0, 0
0, 0
0, 0
0, 0
0, 0
0, 0
0, 0
0, 0
0, 0
0, 0
0, 0
0, 0
0, 0
1, 0
0, 0
0, 0
0, 1
0, 0
1, 0
0, 0
0, 0
0, 0
0, 0
0, 0
0, 0
0, 1
0, 0
0, 0
0, 0
0, 0
0, 0
0, 0
0, 0
0, 0
0, 0
0, 0
0, 0
1, 0
0, 0
0, 0
0, 0
0, 0
0, 0
0, 0
0, 0
0, 0
0, 0
0, 0
0, 0
0, 0
0, 1
0, 0
0, 0
0, 0
0, 0
0, 0
0, 0
0, 0
0, 0
0, 0
0, 0
0, 0
0, 0
0, 0
0, 0
0, 0
0, 0
0, 0
0, 0
0, 0
0, 0
0, 0
0, 0
0, 0
0, 0
0, 0
0, 1
0, 0
0, 0
0, 0
0, 0
0, 0
0, 0
0, 0
0, 0
0, 0
0, 0
0, 0
0, 0
0, 0
0, 0
0, 0
0, 0
0, 0
0, 0
0, 0
0, 0
0, 0
0, 0
0, 0
0, 0
0, 0
0, 0
0, 0
0, 0
1, 0
0, 0
0, 0
0, 0
0, 0
0, 0
0, 0
0, 0
0, 0
0, 0
0, 0
0, 0
0, 0
0, 0
0, 0
0, 0
0, 0
0, 0
0, 0
0, 0
0, 0
0, 0
0, 0
0, 0
0, 0
0, 0
0, 0
0, 0
0, 0
0, 0
0, 0
0, 0
0, 0
0, 0
0, 0
0, 0
0, 0
0, 0
0, 0
0, 0
0, 0
0, 1
0, 0
0, 0
0, 0
0, 0
0, 0
0, 0
0, 0
0, 0
0, 0
0, 0
0, 0
0, 0
0, 0
0, 0
0, 0
0, 0
0, 0
0, 0
0, 0
0, 0
0, 0
0, 0
0, 0
0, 0
0, 0
0, 0
0, 0
0, 0
0, 0
0, 0
0, 0
0, 0
0, 0
0, 0
0, 0
0, 0
0, 0
0, 0
0, 0
0, 0
0, 0
0, 0
0, 0
0, 0
0, 0
0, 0
0, 0
0, 0
0, 0
0, 0
0, 0
0, 0
0, 0
0, 0
0, 0
0, 0
0, 0
0, 0
0, 0
0, 0
0, 0
0, 0
0, 0
0, 0
0, 0
0, 0
0, 0
0, 0
0, 0
0, 0
0, 0
0, 0
0, 0
0, 0
0, 0
0, 0
0, 0
0, 0
0, 0
0, 0
0, 0
0, 0
0, 0
0, 0
0, 0
0, 0
0, 0
0, 0
0, 0
0, 0
0, 0
0, 0
0, 0
0, 0
0, 0
0, 0
0, 0
0, 0
0, 0
0, 0
0, 0
0, 0
0, 0
0, 0
0, 0
0, 0
0, 0
0, 0
0, 0
0, 0
0, 0
0, 0
0, 0
0, 0
0, 0
0, 0
0, 0
0, 0
0, 0
0, 0
0, 0
0, 0
0, 0
0, 0
0, 0
0, 0
0, 0
0, 0
0, 0
0, 0
0, 0
0, 0
0, 0
0, 0
0, 0
0, 0
0, 0
0, 0
0, 0
0, 0
0, 0
0, 0
0, 0
0, 0
0, 0
0, 0
0, 0
0, 0
0, 0
0, 0
0, 0
0, 0
0, 0
0, 0
0, 0
0, 0
0, 0
0, 0
0, 0
0, 0
0, 0
0, 0
0, 0
0, 0
0, 0
0, 0
0, 0
0, 0
0, 0
0, 0
0, 0
0, 0
0, 0
0, 0
0, 0
0, 0
0, 0
0, 0
0, 0
0, 0
0, 0
0, 0
0, 0
0, 0
0, 0
0, 0
0, 0
0, 0
0, 0
0, 0
0, 0
0, 0
0, 0
0, 0
0, 0
0, 0
0, 0
0, 0
0, 0
0, 0
0, 0
0, 0
0, 0
0, 0
0, 0
0, 0
0, 0
0, 0
0, 0
0, 0
0, 0
0, 0
0, 0
0, 0
0, 0
0, 0
0, 0
0, 0
0, 0
0, 0
0, 0
0, 0
0, 0
0, 0
0, 0
0, 0
0, 0
0, 0
0, 0
0, 0
0, 0
0, 0
0, 0
0, 0
0, 0
0, 0
0, 0
0, 0
0, 0
0, 0
0, 0
0, 0
0, 0
0, 0
0, 0
0, 0
0, 0
0, 0
0, 0
0, 0
0, 0
0, 0
0, 0
0, 0
0, 0
0, 0
0, 0
0, 0
0, 0
0, 0
0, 0
0, 0
0, 0
0, 0
0, 0
0, 0
0, 0
0, 0
0, 0
0, 0
0, 0
0, 0
0, 0
0, 0
0, 0
0, 0
0, 0
0, 0
0, 0
0, 0
0, 0
0, 0
0, 0
0, 0
0, 0
0, 0
0, 0
0, 0
0, 0
0, 0
0, 0
0, 0
0, 0
0, 0
0, 0
0, 0
0, 0
0, 0
0, 0
0, 0
0, 0
0, 0
0, 0
0, 0
0, 0
0, 0
0, 0
0, 0
0, 0
0, 0
0, 0
0, 0
0, 0
0, 0
0, 0
0, 0
0, 0
0, 0
0, 0
0, 0
0, 0
0, 0
0, 0
0, 0
0, 0
0, 0
0, 0
0, 0
0, 0
0, 0
0, 0
#ENDOFDATA     end of spectrum data