File: host_upload/06-09-2024/ps_0852/dump3/ps__0852shot_2171.msa
#FORMAT      : EMSA/MAS spectral data file
#VERSION     : TC202v2.0 PIXL
#TITLE       : N/A
#DATE        :       Date in the format DD-MMM-YYYY, for example 07-JUL-2010
#TIME        :             The time of day at which the spectrum was recorded, in 24-hour format
#OWNER       : PIXL Flight Model       (PIXL will use this to indicate which instrument took the data.)
#NPOINTS     : 4096     Number of data points in the spectrum (This can be zero for configuration only files)
#NCOLUMNS    : 2     Number of data columns in the spectrum (This can be zero for configuration only files)
#XUNITS      : eV
#YUNITS      : COUNTS
#DATATYPE    : YY
#XPERCHAN    : 7.862, 7.881   eV per channel (separate by commas if more than one detector)
#OFFSET      : 18.5, -22.4         eV of first channel  (separate by commas if more than one detector
#SIGNALTYPE  : XRF
#YP_TEMP     : 2.332
#LIVETIME    : 8.55655, 8.55279   seconds (separate by commas if more than one detector)
#REALTIME    : 10, 10.0   seconds (separate by commas if more than one detector)
#SPECTRUM    : start of spectrum data
0, 0
0, 0
0, 0
0, 0
0, 0
0, 0
0, 0
0, 0
0, 0
0, 0
0, 0
0, 0
0, 0
0, 0
0, 0
0, 0
0, 0
0, 0
0, 0
0, 0
0, 0
0, 0
0, 0
0, 0
0, 0
0, 0
0, 0
0, 0
0, 0
0, 0
0, 0
0, 0
0, 0
0, 0
0, 1
0, 0
0, 0
0, 0
0, 2
2, 2
0, 0
2, 2
1, 0
1, 3
1, 1
1, 2
1, 2
2, 2
6, 5
6, 13
18, 26
31, 36
36, 43
54, 66
66, 80
52, 68
38, 66
28, 38
16, 24
17, 18
6, 6
2, 4
1, 5
6, 4
0, 2
4, 10
7, 10
9, 6
14, 24
40, 46
70, 102
123, 174
200, 252
268, 369
267, 382
329, 427
262, 371
220, 307
177, 158
103, 124
53, 46
24, 35
14, 20
7, 6
1, 7
5, 8
4, 3
3, 10
4, 2
4, 4
4, 6
3, 17
6, 23
14, 45
36, 81
69, 121
58, 168
120, 240
128, 273
158, 256
148, 250
108, 187
89, 134
47, 95
28, 64
27, 47
14, 35
22, 28
16, 28
32, 39
30, 47
35, 62
44, 73
48, 71
61, 68
54, 71
47, 63
43, 52
30, 42
35, 31
22, 34
21, 27
25, 20
16, 21
19, 17
14, 14
14, 9
8, 14
11, 13
10, 8
7, 7
2, 9
2, 8
6, 3
2, 2
1, 2
1, 2
2, 2
1, 4
5, 7
2, 6
5, 4
1, 7
4, 6
3, 5
4, 2
7, 5
2, 0
8, 5
5, 9
6, 10
10, 21
15, 47
30, 50
37, 85
65, 124
57, 130
72, 141
69, 136
62, 117
65, 110
42, 103
34, 98
16, 89
12, 97
6, 88
6, 79
8, 73
4, 74
11, 64
13, 38
21, 41
16, 29
14, 16
13, 16
7, 15
4, 12
6, 6
4, 4
2, 11
5, 3
5, 4
4, 3
1, 3
9, 6
7, 1
14, 3
14, 6
22, 8
38, 11
47, 15
54, 8
48, 9
41, 11
41, 16
32, 17
27, 17
17, 14
23, 18
12, 10
13, 10
9, 11
7, 17
12, 3
8, 13
10, 11
9, 12
5, 8
6, 13
8, 12
9, 11
6, 16
6, 26
8, 28
8, 29
6, 34
8, 16
3, 24
5, 13
8, 14
9, 8
5, 10
7, 4
9, 10
9, 14
19, 22
16, 17
9, 43
11, 41
20, 40
24, 44
22, 40
29, 36
19, 36
18, 40
17, 37
15, 39
13, 49
9, 60
9, 59
1, 63
11, 62
8, 48
12, 39
12, 29
15, 36
28, 43
34, 33
28, 57
39, 58
64, 71
49, 58
43, 65
49, 52
43, 50
41, 41
27, 21
34, 17
28, 19
14, 20
16, 12
30, 28
45, 39
51, 83
105, 155
193, 284
345, 530
527, 895
792, 1178
1046, 1638
1392, 1914
1606, 2082
1803, 2172
1723, 2042
1523, 1745
1267, 1378
966, 994
652, 691
445, 371
250, 241
143, 168
96, 68
46, 37
31, 22
9, 23
20, 10
15, 7
17, 18
15, 21
14, 18
28, 23
46, 33
48, 60
68, 86
97, 132
103, 153
161, 190
232, 289
224, 273
233, 310
228, 333
273, 296
232, 271
167, 204
162, 148
98, 100
74, 59
44, 41
27, 14
19, 26
14, 7
16, 12
9, 18
9, 11
14, 9
9, 13
10, 9
10, 18
16, 9
12, 19
12, 18
9, 11
5, 9
12, 10
4, 9
3, 10
6, 11
4, 8
3, 13
5, 8
1, 11
4, 5
3, 8
7, 9
5, 8
9, 9
4, 4
4, 6
11, 4
4, 6
10, 8
3, 6
3, 6
8, 10
7, 8
2, 7
7, 11
3, 1
5, 7
6, 14
3, 9
5, 6
5, 8
6, 5
4, 2
5, 5
4, 6
8, 5
1, 7
6, 4
8, 4
8, 5
6, 4
8, 5
8, 3
6, 3
7, 6
7, 8
5, 5
4, 7
5, 8
3, 5
1, 5
3, 7
1, 1
3, 9
3, 4
3, 5
1, 4
1, 8
4, 6
3, 3
3, 2
7, 3
3, 8
3, 5
3, 1
2, 7
0, 7
6, 8
7, 16
12, 10
6, 8
5, 14
5, 9
10, 13
12, 6
6, 11
6, 11
12, 8
5, 6
10, 7
9, 6
15, 9
10, 7
13, 9
9, 12
10, 7
6, 3
7, 4
5, 5
6, 5
4, 6
4, 6
4, 2
3, 3
3, 4
2, 2
2, 2
4, 7
3, 9
1, 6
4, 3
1, 6
5, 4
2, 8
2, 3
3, 6
4, 8
4, 5
6, 7
5, 4
1, 5
5, 3
1, 1
4, 7
2, 2
2, 2
2, 2
5, 3
4, 3
3, 5
3, 2
5, 6
7, 6
1, 5
2, 3
1, 3
4, 2
2, 9
1, 1
3, 2
1, 3
2, 5
1, 6
4, 2
2, 6
2, 3
2, 2
1, 4
1, 3
7, 2
4, 1
2, 5
5, 3
1, 3
2, 1
0, 3
2, 5
2, 2
1, 5
3, 3
1, 3
4, 5
0, 1
3, 2
2, 3
2, 3
1, 3
2, 1
4, 3
3, 2
3, 4
3, 1
0, 4
1, 4
1, 1
2, 2
2, 3
0, 2
1, 4
3, 3
2, 3
1, 3
1, 6
1, 2
5, 2
2, 2
4, 2
2, 4
1, 5
3, 2
1, 4
4, 4
3, 8
2, 1
3, 7
3, 1
1, 2
3, 2
3, 1
1, 3
0, 5
0, 2
3, 3
6, 1
1, 4
4, 3
1, 1
0, 1
1, 0
1, 0
3, 1
1, 5
0, 1
1, 2
2, 5
0, 2
0, 1
0, 0
0, 3
1, 2
1, 3
2, 2
1, 3
1, 3
6, 4
0, 4
2, 2
6, 3
3, 1
2, 3
3, 4
5, 9
2, 2
1, 2
2, 4
5, 2
1, 2
2, 6
1, 2
1, 2
2, 1
1, 4
2, 2
0, 2
0, 4
2, 2
2, 1
3, 0
1, 0
1, 4
0, 2
3, 4
0, 1
0, 2
0, 1
1, 3
2, 2
1, 1
2, 2
1, 2
1, 0
2, 1
0, 5
2, 3
1, 1
1, 4
1, 1
0, 2
1, 2
2, 0
1, 1
0, 0
0, 0
2, 1
2, 1
0, 2
0, 3
0, 1
4, 1
1, 1
2, 0
0, 2
1, 1
2, 2
2, 1
1, 1
2, 3
1, 0
2, 0
1, 1
2, 2
0, 1
1, 1
2, 1
3, 0
1, 1
1, 2
1, 1
0, 1
0, 3
1, 2
1, 1
1, 3
0, 0
0, 0
1, 3
0, 1
0, 2
1, 0
1, 1
2, 4
0, 0
1, 1
0, 1
0, 2
2, 0
1, 1
1, 1
2, 1
0, 2
1, 0
0, 0
2, 0
0, 0
0, 1
0, 2
2, 0
0, 2
0, 1
0, 1
1, 2
1, 0
0, 2
1, 1
2, 0
0, 0
1, 0
0, 2
0, 1
0, 0
1, 1
0, 0
0, 0
1, 2
1, 0
1, 1
1, 1
2, 1
0, 0
0, 2
0, 0
0, 0
1, 2
0, 0
0, 1
3, 0
1, 0
1, 1
0, 1
2, 0
1, 1
0, 0
1, 0
0, 0
0, 1
0, 0
1, 0
0, 0
0, 0
0, 1
1, 0
0, 0
1, 0
0, 0
0, 0
0, 0
1, 1
2, 0
0, 1
1, 1
0, 0
0, 0
0, 1
1, 1
0, 2
2, 1
0, 0
0, 0
1, 1
0, 1
0, 1
0, 0
0, 0
1, 0
0, 0
2, 3
0, 2
0, 1
1, 0
1, 0
0, 0
0, 0
1, 1
0, 2
0, 0
1, 1
0, 0
0, 0
0, 1
0, 1
0, 0
0, 1
0, 0
0, 0
0, 0
0, 0
0, 0
0, 1
1, 0
0, 0
1, 0
0, 0
0, 1
0, 0
2, 0
0, 0
0, 0
0, 1
0, 1
0, 0
0, 0
1, 0
0, 0
0, 0
0, 0
0, 1
0, 0
0, 0
0, 0
0, 2
2, 2
0, 0
0, 1
0, 2
1, 0
0, 0
0, 0
0, 0
0, 0
0, 0
0, 0
0, 0
0, 0
0, 0
0, 0
0, 0
1, 0
0, 0
0, 0
0, 1
0, 0
1, 0
0, 0
1, 0
0, 1
0, 0
0, 0
0, 0
0, 0
0, 1
0, 1
0, 0
1, 0
0, 0
1, 1
1, 0
1, 0
0, 0
0, 0
0, 0
0, 1
1, 1
0, 0
0, 0
0, 1
0, 1
0, 0
0, 1
0, 1
0, 0
0, 0
0, 1
0, 0
1, 1
0, 2
0, 1
0, 1
0, 0
0, 0
0, 0
0, 0
0, 0
0, 0
1, 1
0, 0
0, 1
0, 0
0, 0
0, 0
0, 0
0, 0
0, 0
1, 1
0, 0
0, 0
0, 0
0, 0
0, 0
0, 1
0, 0
0, 1
0, 0
0, 1
0, 0
0, 1
0, 0
0, 0
0, 0
0, 0
2, 0
0, 0
0, 0
1, 0
0, 1
0, 0
0, 0
0, 0
1, 0
0, 1
0, 0
0, 0
0, 0
1, 0
0, 0
0, 1
0, 0
0, 0
0, 0
0, 1
0, 0
1, 0
0, 0
0, 0
1, 0
0, 0
1, 0
1, 0
0, 1
0, 0
0, 0
0, 0
0, 0
0, 0
0, 0
0, 1
0, 0
0, 0
0, 0
0, 0
0, 0
0, 1
0, 0
0, 0
0, 0
0, 0
1, 0
0, 0
0, 0
0, 0
0, 0
0, 0
0, 0
0, 0
0, 0
0, 0
0, 0
0, 0
1, 0
0, 0
0, 0
0, 0
0, 0
1, 0
0, 0
1, 0
0, 0
0, 0
0, 1
0, 0
0, 0
0, 0
0, 1
0, 0
0, 0
0, 0
0, 0
0, 0
0, 0
0, 0
0, 0
0, 0
0, 0
0, 0
0, 0
0, 0
0, 0
0, 0
0, 0
0, 0
0, 0
0, 0
1, 0
0, 0
0, 0
0, 0
0, 0
0, 0
0, 0
0, 0
0, 0
0, 0
0, 0
0, 0
0, 0
0, 0
0, 0
0, 0
0, 0
0, 0
0, 0
0, 0
0, 0
0, 0
0, 0
0, 0
0, 0
0, 0
0, 0
0, 0
0, 0
0, 0
0, 0
0, 1
0, 0
0, 0
0, 0
0, 0
0, 0
0, 0
1, 0
0, 0
0, 0
0, 0
0, 0
0, 0
0, 0
0, 0
0, 0
0, 0
0, 0
0, 0
0, 0
0, 0
0, 0
0, 0
0, 0
0, 0
0, 0
0, 0
1, 0
0, 0
0, 0
0, 0
0, 0
0, 0
0, 0
0, 0
1, 0
0, 0
0, 0
0, 0
0, 0
0, 0
0, 0
0, 0
0, 0
0, 0
0, 0
0, 0
0, 0
0, 0
0, 0
0, 0
0, 0
0, 0
0, 0
0, 0
0, 0
0, 0
0, 0
0, 0
0, 0
0, 0
0, 0
0, 0
0, 0
0, 0
0, 0
0, 0
0, 0
0, 1
0, 0
0, 0
0, 0
0, 0
0, 0
0, 0
0, 0
0, 0
0, 0
0, 0
0, 0
0, 0
0, 0
0, 0
0, 0
0, 0
0, 0
0, 0
0, 0
0, 0
0, 0
0, 0
0, 0
0, 0
0, 0
0, 0
0, 0
0, 0
0, 0
0, 0
0, 0
0, 0
0, 0
0, 0
0, 0
0, 0
0, 0
0, 0
0, 0
0, 0
0, 0
0, 0
0, 0
0, 0
0, 0
0, 0
0, 0
0, 0
0, 0
0, 0
0, 0
1, 0
0, 0
0, 0
0, 0
0, 0
0, 0
0, 0
0, 0
0, 0
0, 0
0, 0
0, 0
0, 0
0, 0
0, 0
0, 0
0, 0
0, 0
0, 0
0, 0
0, 0
0, 0
0, 0
0, 0
0, 0
0, 0
0, 0
0, 0
0, 0
0, 0
0, 0
0, 0
0, 0
0, 0
0, 0
0, 0
0, 0
0, 0
0, 0
0, 0
0, 0
0, 0
0, 0
0, 0
0, 0
0, 0
0, 0
0, 0
0, 0
0, 0
0, 0
0, 0
0, 0
0, 0
0, 0
0, 0
0, 0
0, 0
0, 0
0, 0
0, 0
0, 0
0, 0
0, 0
0, 0
0, 0
0, 0
0, 0
0, 0
0, 0
0, 0
0, 0
0, 0
0, 0
0, 0
0, 0
0, 0
0, 0
0, 0
0, 0
0, 0
0, 0
0, 0
0, 0
0, 0
0, 0
0, 0
0, 0
0, 0
0, 0
0, 0
0, 0
0, 0
0, 0
0, 0
0, 0
0, 0
0, 0
0, 0
0, 0
0, 0
0, 0
0, 0
0, 0
0, 0
0, 0
0, 0
0, 0
0, 0
0, 0
0, 0
0, 0
0, 0
0, 0
0, 0
0, 0
0, 0
0, 0
0, 0
0, 0
0, 0
0, 0
0, 0
0, 0
0, 0
0, 0
0, 0
0, 0
0, 0
0, 0
0, 0
0, 0
0, 0
0, 0
0, 0
0, 0
0, 0
0, 0
0, 0
0, 0
0, 0
0, 0
0, 0
0, 0
0, 0
0, 0
0, 0
0, 0
0, 0
0, 0
0, 0
0, 0
0, 0
0, 0
0, 0
0, 0
0, 0
0, 0
0, 0
0, 0
0, 0
0, 0
0, 0
0, 0
0, 0
0, 0
0, 0
0, 0
0, 0
0, 0
0, 0
0, 0
0, 0
0, 0
0, 0
0, 0
0, 0
0, 0
0, 0
0, 0
0, 0
0, 0
0, 0
0, 0
0, 0
0, 0
0, 0
0, 0
0, 0
0, 0
0, 0
0, 0
0, 0
0, 0
0, 0
0, 0
0, 0
0, 0
0, 0
0, 0
0, 0
0, 0
0, 0
0, 0
0, 0
0, 0
0, 0
0, 0
0, 0
0, 0
0, 0
0, 0
0, 0
0, 0
0, 0
0, 0
0, 0
0, 0
0, 0
0, 0
0, 0
0, 0
0, 0
0, 0
0, 0
0, 0
0, 0
0, 0
0, 0
0, 0
0, 0
0, 0
0, 0
0, 0
0, 0
0, 0
0, 0
0, 0
0, 0
0, 0
0, 0
0, 0
0, 0
0, 0
0, 0
0, 0
0, 0
0, 0
0, 0
0, 0
0, 0
0, 0
0, 0
0, 0
0, 0
0, 0
0, 0
0, 0
0, 0
0, 0
0, 0
0, 0
0, 0
0, 0
0, 0
0, 0
0, 0
0, 0
0, 0
0, 0
0, 0
0, 0
0, 0
0, 0
0, 0
0, 0
0, 0
0, 0
0, 0
0, 0
0, 0
0, 0
#ENDOFDATA     end of spectrum data