File: host_upload/06-09-2024/ps_0852/dump3/ps__0852shot_2130.msa
#FORMAT      : EMSA/MAS spectral data file
#VERSION     : TC202v2.0 PIXL
#TITLE       : N/A
#DATE        :       Date in the format DD-MMM-YYYY, for example 07-JUL-2010
#TIME        :             The time of day at which the spectrum was recorded, in 24-hour format
#OWNER       : PIXL Flight Model       (PIXL will use this to indicate which instrument took the data.)
#NPOINTS     : 4096     Number of data points in the spectrum (This can be zero for configuration only files)
#NCOLUMNS    : 2     Number of data columns in the spectrum (This can be zero for configuration only files)
#XUNITS      : eV
#YUNITS      : COUNTS
#DATATYPE    : YY
#XPERCHAN    : 7.862, 7.881   eV per channel (separate by commas if more than one detector)
#OFFSET      : 18.5, -22.4         eV of first channel  (separate by commas if more than one detector
#SIGNALTYPE  : XRF
#YP_TEMP     : 2.524
#LIVETIME    : 8.55953, 8.36774   seconds (separate by commas if more than one detector)
#REALTIME    : 10, 10.0   seconds (separate by commas if more than one detector)
#SPECTRUM    : start of spectrum data
0, 0
0, 0
0, 0
0, 0
0, 0
0, 0
0, 0
0, 0
0, 0
0, 0
0, 0
0, 0
0, 0
0, 0
0, 0
0, 0
0, 0
0, 0
0, 0
0, 0
0, 0
0, 0
0, 0
0, 0
0, 0
0, 0
0, 0
0, 0
0, 0
0, 0
0, 0
0, 1
0, 0
0, 0
0, 0
0, 0
0, 1
0, 1
2, 0
0, 0
1, 3
0, 0
1, 1
1, 0
0, 2
0, 0
1, 2
3, 3
7, 6
8, 11
29, 14
34, 45
40, 59
64, 73
75, 80
65, 64
50, 63
43, 31
28, 19
15, 19
7, 2
5, 7
3, 5
4, 2
6, 6
3, 6
5, 5
10, 6
19, 23
44, 55
102, 98
181, 183
259, 248
344, 361
401, 440
436, 430
382, 374
312, 293
221, 218
109, 125
86, 69
40, 45
27, 14
9, 11
11, 5
7, 2
4, 1
0, 1
2, 1
2, 1
2, 1
2, 0
2, 2
0, 5
3, 3
7, 6
11, 14
13, 12
21, 14
8, 13
17, 7
12, 10
10, 4
5, 7
6, 4
6, 3
11, 8
11, 6
18, 12
18, 14
25, 20
28, 40
44, 39
40, 38
53, 44
42, 55
62, 51
36, 42
23, 36
30, 29
26, 32
21, 16
19, 21
20, 19
22, 13
18, 17
9, 14
8, 5
8, 6
4, 4
2, 7
4, 3
2, 2
2, 7
1, 5
4, 3
3, 2
4, 2
0, 2
4, 0
1, 2
3, 6
2, 3
4, 1
6, 3
2, 1
13, 1
9, 3
9, 4
8, 7
14, 9
29, 19
33, 25
65, 40
83, 68
103, 84
114, 111
123, 88
152, 119
129, 95
106, 79
71, 55
38, 36
28, 15
18, 5
9, 18
11, 12
12, 11
12, 18
24, 19
14, 23
29, 26
17, 18
16, 19
18, 14
21, 20
10, 7
14, 4
12, 4
20, 10
10, 5
15, 2
15, 5
10, 12
9, 4
5, 9
3, 3
4, 8
6, 4
8, 9
11, 4
14, 15
12, 16
8, 13
17, 16
23, 18
15, 9
12, 12
15, 15
9, 12
16, 21
13, 14
26, 5
11, 9
11, 9
11, 9
20, 12
14, 9
15, 10
17, 12
16, 13
7, 13
4, 20
18, 35
7, 45
6, 58
6, 83
1, 85
4, 97
10, 82
4, 83
4, 65
4, 59
10, 35
3, 31
14, 31
12, 17
19, 19
19, 21
26, 24
22, 20
23, 24
31, 24
19, 27
11, 25
11, 19
10, 25
9, 16
11, 6
8, 11
6, 14
8, 9
10, 9
12, 14
16, 14
19, 20
24, 29
31, 29
39, 42
51, 68
45, 67
53, 74
54, 73
47, 44
37, 59
29, 33
27, 25
25, 35
16, 20
15, 34
13, 31
26, 44
27, 69
73, 110
152, 201
240, 320
471, 551
700, 860
1024, 1286
1394, 1643
1725, 1999
2065, 2245
2130, 2255
2100, 2170
1880, 1754
1472, 1433
1197, 1053
874, 731
543, 456
345, 280
185, 131
117, 75
62, 37
45, 29
40, 11
36, 20
38, 16
42, 28
36, 26
56, 21
48, 25
73, 43
82, 62
112, 72
142, 135
161, 153
207, 250
245, 292
281, 321
349, 347
328, 370
323, 314
272, 323
223, 243
193, 219
125, 172
75, 111
55, 65
30, 45
17, 22
14, 12
8, 13
5, 19
12, 11
7, 16
11, 18
10, 21
7, 22
11, 28
19, 34
13, 45
7, 41
7, 17
7, 26
4, 19
8, 17
6, 10
3, 9
4, 6
5, 3
6, 9
4, 3
5, 2
3, 3
2, 4
5, 2
6, 6
1, 8
7, 3
5, 3
2, 5
4, 1
8, 5
7, 9
3, 3
4, 7
9, 5
4, 5
7, 6
5, 7
2, 7
3, 9
4, 6
5, 6
6, 7
2, 7
7, 2
9, 3
10, 1
9, 6
7, 1
5, 7
7, 3
5, 5
5, 5
11, 8
3, 4
4, 2
5, 9
4, 6
1, 6
2, 5
3, 2
4, 7
6, 3
1, 2
1, 5
4, 1
5, 6
2, 5
7, 6
2, 3
3, 7
3, 4
1, 6
4, 10
3, 2
2, 3
2, 5
3, 2
2, 4
5, 4
2, 4
2, 5
4, 8
6, 4
1, 4
0, 3
6, 5
2, 4
2, 5
3, 7
4, 3
5, 4
2, 6
5, 3
0, 2
3, 4
3, 7
4, 7
3, 3
4, 7
6, 7
3, 2
5, 3
5, 6
4, 3
3, 4
3, 5
3, 5
2, 4
5, 1
4, 2
1, 5
3, 2
0, 2
2, 4
2, 3
3, 2
6, 6
2, 7
4, 6
3, 8
1, 5
2, 4
3, 6
1, 4
3, 4
1, 4
3, 3
3, 9
5, 2
3, 4
3, 3
0, 1
3, 4
4, 4
6, 3
4, 3
4, 5
4, 2
6, 1
3, 2
6, 4
3, 4
2, 1
5, 4
2, 3
2, 1
2, 1
0, 5
3, 4
2, 2
2, 2
4, 2
2, 5
3, 4
5, 2
4, 5
4, 5
0, 1
3, 1
0, 1
1, 2
2, 5
0, 3
4, 3
3, 3
2, 2
1, 3
2, 1
1, 3
4, 0
1, 2
3, 2
4, 1
2, 3
2, 2
1, 2
1, 1
2, 3
2, 0
1, 4
4, 3
1, 4
3, 1
2, 1
0, 3
1, 0
1, 0
2, 0
1, 3
3, 0
1, 0
4, 2
1, 0
2, 0
2, 2
0, 5
2, 2
0, 2
0, 0
2, 2
2, 1
2, 1
3, 1
4, 3
1, 3
2, 2
4, 5
2, 2
0, 1
3, 0
2, 1
2, 2
3, 1
1, 2
2, 2
2, 0
3, 1
2, 3
1, 2
2, 2
1, 2
2, 1
1, 0
2, 5
3, 4
1, 4
2, 4
3, 4
1, 3
5, 10
3, 3
1, 2
4, 3
5, 1
5, 0
4, 3
5, 0
3, 2
1, 0
0, 2
1, 1
1, 0
0, 4
0, 2
1, 0
1, 2
2, 0
3, 1
2, 1
1, 1
3, 2
3, 0
4, 3
0, 0
1, 0
2, 2
1, 1
2, 3
1, 3
2, 2
3, 1
1, 1
1, 2
5, 2
4, 1
1, 2
2, 2
1, 0
2, 1
3, 0
1, 2
2, 0
1, 2
1, 1
1, 1
0, 1
0, 0
3, 1
2, 0
0, 2
0, 0
1, 5
2, 0
1, 1
0, 2
0, 1
2, 1
0, 3
0, 0
0, 2
1, 1
0, 0
1, 0
1, 3
0, 0
0, 3
1, 0
1, 0
3, 0
4, 2
2, 0
0, 1
0, 1
1, 1
0, 0
3, 0
0, 0
2, 2
1, 0
0, 1
1, 4
0, 1
1, 1
1, 1
1, 3
1, 1
0, 0
0, 5
0, 1
1, 0
1, 1
0, 0
0, 0
1, 0
0, 0
2, 2
0, 0
0, 2
1, 0
0, 1
1, 0
2, 1
1, 2
1, 2
0, 1
0, 2
2, 2
0, 0
2, 0
1, 1
0, 0
0, 1
3, 0
1, 2
0, 0
1, 1
0, 2
0, 0
2, 0
1, 2
0, 0
1, 1
1, 1
1, 1
0, 0
1, 1
1, 0
0, 0
0, 0
0, 2
0, 0
2, 0
2, 0
2, 2
0, 0
0, 1
0, 0
0, 0
0, 0
0, 0
0, 0
0, 1
1, 0
0, 0
1, 0
0, 0
0, 1
1, 0
0, 0
0, 1
0, 1
0, 1
0, 2
0, 0
0, 1
0, 0
0, 1
0, 0
0, 1
1, 1
1, 0
1, 0
0, 0
1, 2
1, 1
0, 0
0, 3
0, 0
0, 1
0, 1
1, 0
0, 2
0, 0
0, 0
1, 2
0, 0
0, 0
0, 0
1, 0
0, 0
0, 0
0, 0
0, 0
0, 0
0, 0
0, 1
0, 0
1, 0
0, 0
0, 0
1, 0
0, 0
0, 1
0, 0
0, 0
0, 2
0, 0
0, 0
0, 1
0, 0
0, 0
0, 0
0, 1
0, 2
0, 0
0, 0
0, 0
0, 1
0, 2
0, 0
0, 0
0, 0
0, 1
0, 0
0, 0
0, 0
0, 0
0, 0
0, 2
0, 1
1, 0
0, 0
0, 0
0, 0
0, 0
0, 0
0, 0
0, 1
0, 0
2, 0
0, 1
1, 0
1, 1
0, 0
0, 0
0, 0
0, 0
1, 1
0, 0
0, 0
0, 1
0, 0
0, 2
0, 0
0, 1
1, 1
0, 0
0, 0
0, 0
0, 0
0, 0
1, 0
0, 0
0, 0
0, 0
0, 1
0, 0
0, 0
1, 0
0, 0
0, 0
1, 0
0, 0
2, 1
0, 1
1, 0
0, 0
0, 0
0, 0
0, 0
0, 0
0, 0
0, 1
0, 0
0, 0
0, 0
0, 0
0, 0
0, 0
0, 0
0, 0
0, 0
0, 0
0, 0
0, 0
0, 0
1, 0
0, 0
1, 0
0, 0
0, 0
0, 0
0, 0
0, 0
0, 0
1, 0
0, 0
0, 0
0, 0
0, 0
0, 0
0, 0
0, 0
0, 0
0, 1
1, 0
0, 0
2, 0
0, 0
0, 0
0, 1
0, 0
1, 0
0, 0
0, 0
1, 0
0, 1
0, 0
0, 0
0, 0
0, 0
0, 0
1, 0
0, 1
0, 1
0, 0
1, 0
0, 0
0, 0
0, 0
0, 0
0, 1
0, 0
0, 1
0, 0
0, 0
1, 1
1, 0
0, 0
0, 0
0, 0
0, 0
0, 0
0, 0
0, 0
0, 0
0, 0
0, 1
0, 0
0, 0
0, 0
0, 0
1, 0
1, 0
0, 0
0, 0
1, 0
0, 0
0, 0
0, 0
0, 0
0, 0
0, 0
0, 0
0, 0
0, 0
0, 0
0, 0
0, 0
0, 0
0, 0
0, 0
0, 0
0, 0
0, 0
0, 0
0, 0
0, 0
1, 0
0, 0
0, 0
0, 0
0, 0
0, 0
0, 0
0, 0
0, 0
0, 0
0, 0
0, 0
0, 0
0, 0
0, 0
0, 0
0, 0
0, 0
0, 0
0, 0
0, 0
0, 0
1, 1
0, 0
0, 0
0, 1
0, 0
0, 0
0, 0
0, 0
0, 0
0, 0
0, 0
0, 0
0, 0
0, 0
0, 0
0, 0
0, 0
0, 0
0, 0
0, 0
0, 0
0, 0
0, 0
0, 0
0, 0
0, 0
0, 0
0, 0
0, 0
0, 0
0, 0
0, 0
0, 0
0, 0
0, 0
0, 0
0, 0
0, 0
0, 0
0, 0
0, 0
0, 0
0, 0
0, 0
0, 0
0, 0
0, 0
0, 0
0, 0
0, 0
0, 0
0, 0
0, 0
0, 0
0, 0
0, 0
0, 0
0, 0
0, 0
0, 0
0, 0
0, 0
0, 0
0, 0
0, 0
0, 0
0, 0
0, 0
0, 1
0, 0
0, 0
0, 0
0, 0
0, 0
0, 0
0, 0
0, 0
0, 0
0, 0
0, 0
0, 0
0, 0
0, 0
1, 0
0, 0
0, 0
0, 0
0, 0
0, 0
0, 0
0, 0
0, 0
0, 0
0, 0
0, 0
0, 0
0, 0
0, 0
0, 0
0, 0
0, 0
0, 0
0, 0
0, 0
0, 0
0, 0
0, 0
0, 0
0, 0
0, 0
0, 0
0, 0
0, 0
0, 0
0, 0
0, 0
0, 0
0, 0
0, 0
0, 0
0, 0
0, 0
0, 0
0, 0
0, 0
0, 0
0, 0
0, 0
0, 0
0, 0
0, 0
0, 0
0, 0
0, 0
0, 0
0, 0
0, 0
0, 0
0, 0
0, 0
0, 0
0, 0
0, 0
0, 0
0, 0
0, 0
0, 0
0, 0
0, 0
0, 0
0, 0
0, 0
0, 0
0, 0
0, 0
0, 0
0, 0
0, 0
0, 0
0, 0
0, 0
0, 0
0, 0
0, 0
0, 0
0, 0
0, 0
0, 0
0, 0
0, 0
0, 0
0, 0
0, 0
0, 0
0, 0
0, 0
0, 0
0, 0
0, 0
0, 0
0, 0
0, 0
0, 0
0, 0
0, 0
0, 0
0, 0
0, 0
0, 0
0, 0
0, 0
0, 0
0, 0
0, 0
0, 0
0, 0
0, 0
0, 0
0, 0
0, 0
0, 0
0, 0
0, 0
0, 0
0, 0
0, 0
0, 0
0, 0
0, 0
0, 0
0, 0
0, 0
0, 0
0, 0
0, 0
0, 0
0, 0
0, 0
0, 0
0, 0
0, 0
0, 0
0, 0
0, 0
0, 0
0, 0
0, 0
0, 0
0, 0
0, 0
0, 0
0, 0
0, 0
0, 0
0, 0
0, 0
0, 0
0, 0
0, 0
0, 0
0, 0
0, 0
0, 0
0, 0
0, 0
0, 0
0, 0
0, 0
0, 0
0, 0
0, 0
0, 0
0, 0
0, 0
0, 0
0, 0
0, 0
0, 0
0, 0
0, 0
0, 0
0, 0
0, 0
0, 0
0, 0
0, 0
0, 0
0, 0
0, 0
0, 0
0, 0
0, 0
0, 0
0, 0
0, 0
0, 0
0, 0
0, 0
0, 0
0, 0
0, 0
0, 0
0, 0
0, 0
0, 0
0, 0
0, 0
0, 0
0, 0
0, 0
0, 0
0, 0
0, 0
0, 0
0, 0
0, 0
0, 0
0, 0
0, 0
0, 0
0, 0
0, 0
0, 0
0, 0
0, 0
0, 0
0, 0
0, 0
0, 0
0, 0
0, 0
0, 0
0, 0
0, 0
0, 0
0, 0
0, 0
0, 0
0, 0
0, 0
0, 0
0, 0
0, 0
0, 0
0, 0
0, 0
0, 0
0, 0
0, 0
0, 0
0, 0
0, 0
0, 0
0, 0
0, 0
0, 0
0, 0
0, 0
0, 0
0, 0
0, 0
0, 0
0, 0
0, 0
0, 0
0, 0
0, 0
0, 0
0, 0
0, 0
0, 0
0, 0
0, 0
0, 0
0, 0
0, 0
0, 0
0, 0
0, 0
0, 0
0, 0
0, 0
0, 0
0, 0
0, 0
0, 0
0, 0
0, 0
0, 0
0, 0
0, 0
0, 0
0, 0
0, 0
0, 0
0, 0
0, 0
0, 0
0, 0
0, 0
0, 0
0, 0
0, 0
0, 0
0, 0
0, 0
0, 0
0, 0
0, 0
0, 0
0, 0
0, 0
0, 0
0, 0
0, 0
0, 0
0, 0
0, 0
0, 0
0, 0
0, 0
0, 0
0, 0
0, 0
0, 0
0, 0
0, 0
0, 0
0, 0
0, 0
0, 0
0, 0
0, 0
0, 0
0, 0
0, 0
0, 0
0, 0
0, 0
0, 0
0, 0
0, 0
0, 0
#ENDOFDATA     end of spectrum data