File: host_upload/06-09-2024/ps_0852/dump3/ps__0852shot_2576.msa
#FORMAT      : EMSA/MAS spectral data file
#VERSION     : TC202v2.0 PIXL
#TITLE       : N/A
#DATE        :       Date in the format DD-MMM-YYYY, for example 07-JUL-2010
#TIME        :             The time of day at which the spectrum was recorded, in 24-hour format
#OWNER       : PIXL Flight Model       (PIXL will use this to indicate which instrument took the data.)
#NPOINTS     : 4096     Number of data points in the spectrum (This can be zero for configuration only files)
#NCOLUMNS    : 2     Number of data columns in the spectrum (This can be zero for configuration only files)
#XUNITS      : eV
#YUNITS      : COUNTS
#DATATYPE    : YY
#XPERCHAN    : 7.862, 7.881   eV per channel (separate by commas if more than one detector)
#OFFSET      : 18.5, -22.4         eV of first channel  (separate by commas if more than one detector
#SIGNALTYPE  : XRF
#YP_TEMP     : 2.171
#LIVETIME    : 8.54329, 8.60427   seconds (separate by commas if more than one detector)
#REALTIME    : 10, 10.0   seconds (separate by commas if more than one detector)
#SPECTRUM    : start of spectrum data
0, 0
0, 0
0, 0
0, 0
0, 0
0, 0
0, 0
0, 0
0, 0
0, 0
0, 0
0, 0
0, 0
0, 0
0, 0
0, 0
0, 0
0, 0
0, 0
0, 0
0, 0
0, 0
0, 0
0, 0
0, 0
0, 0
0, 0
0, 0
0, 0
0, 0
0, 0
0, 1
0, 0
0, 2
0, 1
0, 4
1, 2
0, 7
0, 14
0, 19
3, 29
1, 33
0, 23
0, 22
1, 22
0, 14
1, 11
5, 8
9, 5
14, 14
26, 24
40, 28
70, 65
79, 69
92, 74
78, 69
68, 55
54, 50
29, 21
19, 16
4, 2
3, 8
3, 3
4, 8
3, 3
7, 4
4, 10
7, 10
17, 14
57, 44
96, 106
151, 165
279, 265
347, 343
430, 433
454, 461
397, 376
297, 277
185, 175
126, 129
63, 77
35, 36
18, 17
8, 10
3, 3
0, 5
1, 0
1, 2
1, 3
1, 3
0, 4
1, 2
0, 0
3, 3
2, 2
3, 2
4, 2
4, 3
5, 8
4, 6
3, 9
6, 4
0, 8
3, 11
5, 17
5, 21
5, 39
5, 64
9, 98
14, 224
22, 417
19, 754
42, 1115
37, 1493
37, 1832
48, 1900
39, 1781
34, 1525
31, 1135
23, 680
21, 419
17, 200
9, 112
10, 51
14, 22
9, 20
13, 11
10, 11
11, 7
7, 9
7, 3
2, 2
2, 1
4, 3
3, 1
8, 3
6, 0
7, 0
1, 3
5, 2
3, 1
2, 2
2, 1
5, 2
2, 3
1, 0
1, 2
1, 1
0, 3
2, 0
6, 2
2, 4
2, 4
5, 8
10, 10
19, 12
13, 13
12, 16
18, 5
17, 10
14, 6
12, 6
5, 7
11, 1
14, 4
16, 3
15, 6
36, 3
31, 2
48, 7
37, 4
41, 2
32, 4
24, 5
24, 14
15, 19
12, 23
4, 49
5, 67
4, 76
5, 77
1, 90
6, 81
1, 81
4, 61
1, 48
6, 27
4, 13
3, 12
6, 18
8, 14
5, 8
7, 13
12, 14
10, 11
11, 13
17, 10
21, 9
17, 13
19, 5
27, 19
26, 7
29, 9
32, 6
37, 2
47, 7
38, 6
40, 8
35, 7
30, 6
16, 5
15, 17
7, 9
11, 4
8, 8
8, 14
4, 11
6, 4
10, 2
8, 10
6, 12
6, 10
8, 13
7, 18
8, 18
11, 44
11, 33
20, 46
10, 41
14, 35
14, 44
10, 40
17, 28
15, 22
20, 11
31, 10
21, 15
30, 8
43, 5
40, 9
27, 3
30, 11
33, 11
24, 13
26, 13
25, 32
36, 38
21, 58
51, 63
41, 55
60, 65
54, 58
51, 53
47, 53
48, 42
29, 40
26, 26
20, 8
22, 15
17, 19
15, 25
25, 22
37, 53
85, 82
147, 205
288, 334
465, 593
757, 884
1166, 1305
1531, 1763
2115, 2078
2308, 2360
2444, 2456
2391, 2264
2104, 1963
1789, 1458
1309, 1069
905, 677
544, 431
345, 243
189, 126
87, 66
50, 47
28, 22
21, 11
9, 20
9, 16
14, 16
17, 27
22, 29
26, 37
33, 33
44, 72
74, 98
83, 121
149, 164
203, 240
242, 272
348, 353
363, 354
334, 351
322, 308
310, 254
240, 201
184, 130
133, 108
85, 63
52, 35
31, 21
22, 22
12, 13
8, 12
12, 10
8, 6
11, 10
17, 9
14, 22
17, 19
14, 11
16, 14
12, 14
20, 12
9, 7
3, 9
2, 6
5, 7
6, 3
0, 3
6, 3
3, 5
2, 6
5, 2
9, 5
4, 6
10, 7
11, 9
3, 16
6, 19
8, 29
4, 36
11, 35
10, 23
15, 45
11, 32
9, 24
4, 16
5, 19
6, 15
3, 8
5, 13
6, 8
1, 9
3, 4
4, 8
4, 3
4, 2
3, 8
2, 9
5, 4
3, 5
5, 3
1, 7
2, 8
0, 6
5, 4
2, 6
5, 10
2, 3
6, 1
4, 4
4, 4
2, 0
8, 1
5, 6
6, 2
4, 2
8, 7
8, 2
5, 4
9, 5
3, 8
6, 7
6, 9
5, 9
4, 5
3, 14
2, 4
2, 7
3, 5
3, 8
3, 4
2, 11
5, 4
3, 2
5, 5
4, 3
0, 5
5, 5
1, 3
2, 6
8, 3
7, 4
5, 5
7, 6
4, 9
3, 3
3, 3
0, 6
4, 5
3, 6
4, 2
3, 4
5, 5
5, 7
4, 7
1, 6
3, 3
6, 4
2, 6
3, 3
3, 3
2, 3
6, 2
3, 5
5, 3
1, 2
0, 4
4, 6
6, 3
3, 6
1, 3
3, 6
2, 4
3, 2
1, 3
2, 4
4, 6
8, 6
6, 2
5, 3
4, 1
10, 3
15, 6
15, 6
14, 0
15, 6
10, 1
10, 2
10, 2
7, 1
7, 5
7, 6
8, 1
3, 4
5, 5
9, 6
1, 2
3, 4
4, 3
4, 3
6, 2
2, 4
3, 4
3, 2
2, 1
2, 3
0, 1
3, 2
3, 1
4, 0
1, 2
2, 3
1, 1
1, 2
1, 3
3, 2
1, 0
3, 4
3, 0
4, 2
6, 1
0, 2
2, 0
2, 2
1, 1
5, 0
3, 2
3, 0
3, 3
2, 1
2, 3
3, 0
1, 2
2, 4
2, 4
3, 1
1, 4
1, 2
3, 2
1, 1
3, 5
1, 3
4, 2
4, 3
4, 7
4, 3
0, 3
4, 2
2, 3
3, 2
3, 0
2, 1
2, 2
1, 2
2, 2
2, 4
5, 4
1, 2
0, 2
1, 3
2, 0
1, 0
3, 0
0, 3
0, 0
2, 2
1, 2
2, 3
2, 2
0, 3
5, 0
5, 4
4, 2
2, 1
1, 1
4, 0
2, 2
1, 2
3, 4
2, 3
3, 0
4, 2
5, 7
6, 5
2, 3
5, 5
5, 5
1, 5
1, 4
3, 2
0, 1
0, 2
2, 3
2, 4
0, 1
0, 2
1, 2
1, 0
1, 2
0, 2
0, 3
3, 0
2, 2
2, 2
0, 3
1, 1
1, 0
4, 2
0, 4
2, 2
1, 6
2, 1
1, 4
3, 0
2, 1
3, 3
3, 0
0, 1
1, 1
1, 1
0, 1
0, 1
1, 0
0, 0
3, 0
3, 0
0, 0
0, 2
1, 1
1, 1
0, 0
0, 1
0, 2
2, 2
1, 3
1, 2
2, 2
0, 2
0, 1
0, 1
0, 0
0, 0
2, 1
3, 1
0, 1
2, 0
0, 1
1, 0
0, 0
2, 1
1, 2
0, 1
1, 0
0, 1
1, 1
2, 1
2, 0
2, 0
1, 2
3, 0
1, 0
0, 1
0, 1
0, 0
1, 1
2, 1
0, 0
0, 0
1, 0
1, 1
1, 1
0, 2
2, 1
1, 0
0, 0
1, 0
0, 0
0, 3
2, 0
0, 0
0, 1
1, 2
2, 0
0, 0
1, 1
1, 0
0, 0
0, 1
0, 2
2, 0
0, 0
0, 1
0, 0
0, 2
0, 0
0, 1
0, 0
2, 0
0, 0
0, 3
1, 0
0, 1
1, 1
0, 1
0, 0
0, 0
1, 2
0, 0
1, 0
2, 0
0, 0
1, 0
2, 0
1, 1
1, 0
0, 2
0, 1
0, 0
1, 2
0, 2
2, 0
1, 0
0, 1
0, 0
0, 0
1, 0
2, 0
0, 1
0, 0
0, 0
1, 0
0, 0
0, 0
0, 0
0, 0
2, 0
1, 1
0, 0
0, 0
0, 0
0, 0
0, 0
0, 0
0, 1
0, 0
3, 0
1, 0
0, 0
0, 1
1, 0
0, 2
2, 1
0, 0
0, 1
0, 1
1, 0
0, 2
0, 0
1, 0
0, 0
0, 1
0, 0
0, 0
0, 0
0, 1
1, 0
0, 0
0, 0
0, 1
0, 0
1, 0
0, 0
0, 1
0, 1
0, 0
0, 1
1, 0
0, 0
0, 0
1, 0
2, 0
1, 0
1, 1
0, 0
0, 0
0, 0
0, 1
1, 0
0, 0
1, 0
0, 2
0, 0
3, 0
0, 0
0, 1
0, 0
0, 0
0, 0
0, 1
0, 0
0, 0
0, 0
1, 0
0, 0
0, 0
1, 0
0, 1
0, 0
0, 1
0, 1
0, 0
0, 1
0, 0
1, 0
0, 0
0, 0
0, 0
0, 0
0, 0
0, 0
0, 0
1, 0
0, 0
0, 0
0, 0
1, 0
0, 0
0, 0
0, 0
0, 0
0, 0
0, 1
0, 0
0, 0
0, 1
0, 0
0, 1
0, 0
1, 0
0, 1
0, 0
1, 0
0, 0
0, 0
0, 0
0, 0
0, 0
1, 0
0, 1
0, 0
0, 0
0, 0
0, 0
1, 0
0, 0
0, 0
0, 0
1, 0
0, 0
0, 1
0, 0
0, 0
0, 0
0, 1
0, 0
1, 0
0, 0
0, 1
0, 0
0, 0
0, 0
1, 0
0, 0
0, 0
0, 0
0, 0
0, 0
0, 0
0, 0
0, 0
0, 0
0, 0
0, 0
0, 0
0, 0
0, 0
0, 0
0, 0
0, 0
0, 0
0, 0
0, 0
0, 0
0, 0
0, 0
1, 0
0, 0
0, 0
2, 1
0, 1
0, 0
1, 0
0, 1
0, 0
0, 0
0, 0
0, 0
0, 0
0, 0
1, 0
0, 0
0, 0
0, 0
0, 0
1, 0
0, 0
1, 0
0, 0
0, 0
0, 0
0, 0
0, 0
1, 0
0, 0
0, 0
0, 0
0, 0
0, 0
0, 0
0, 0
0, 0
0, 0
0, 0
0, 1
0, 0
0, 0
0, 0
0, 0
0, 0
0, 0
0, 0
0, 0
0, 0
0, 1
0, 0
0, 0
0, 0
0, 0
2, 0
0, 0
0, 0
0, 0
0, 0
0, 0
0, 0
0, 0
0, 0
0, 0
0, 0
0, 0
0, 0
0, 0
0, 0
0, 1
0, 0
0, 0
1, 0
0, 0
0, 1
0, 1
0, 0
0, 0
0, 0
0, 0
0, 0
0, 0
0, 0
0, 0
0, 0
0, 0
0, 0
0, 0
0, 0
0, 0
0, 0
0, 0
0, 0
0, 0
0, 0
0, 0
0, 0
0, 0
1, 0
0, 0
0, 0
0, 0
0, 0
0, 0
0, 0
0, 0
0, 0
0, 0
0, 0
0, 0
0, 0
0, 0
0, 0
0, 0
0, 0
0, 0
0, 0
0, 0
0, 0
0, 0
0, 0
0, 0
0, 0
0, 0
0, 0
0, 0
0, 0
0, 0
0, 0
0, 0
0, 0
0, 0
0, 0
0, 0
0, 0
0, 0
0, 0
0, 0
0, 0
0, 0
0, 0
0, 0
0, 0
0, 0
0, 0
0, 0
0, 0
0, 0
0, 0
0, 0
0, 0
0, 0
0, 0
0, 0
0, 0
0, 0
0, 0
0, 0
0, 0
0, 0
0, 0
0, 0
0, 0
0, 0
0, 0
0, 0
1, 0
0, 0
0, 0
0, 0
0, 0
0, 0
0, 0
0, 0
0, 0
0, 0
0, 0
0, 0
0, 0
0, 0
0, 0
0, 0
0, 0
0, 0
0, 0
0, 0
0, 0
0, 0
0, 0
0, 0
0, 0
0, 0
0, 0
0, 0
0, 0
0, 0
0, 0
0, 0
0, 0
0, 0
0, 0
0, 0
0, 0
0, 0
0, 0
0, 0
0, 0
0, 0
0, 0
0, 0
0, 0
0, 0
0, 0
0, 0
0, 0
0, 0
0, 0
0, 0
0, 0
0, 0
0, 0
0, 0
0, 0
0, 0
0, 0
0, 0
0, 0
0, 0
0, 0
0, 0
0, 0
0, 0
0, 0
0, 0
0, 0
0, 0
0, 0
0, 0
0, 0
0, 0
0, 0
0, 0
0, 0
0, 0
0, 0
0, 0
0, 0
0, 0
0, 0
0, 0
0, 0
0, 0
0, 0
0, 0
0, 0
0, 0
0, 0
0, 0
0, 0
0, 0
0, 0
0, 0
0, 0
0, 0
0, 0
1, 0
0, 0
0, 0
0, 0
0, 0
0, 0
0, 0
0, 0
0, 0
0, 0
0, 0
0, 0
0, 0
0, 0
0, 0
0, 0
0, 0
0, 0
0, 0
0, 0
0, 0
0, 0
0, 0
0, 0
0, 0
0, 0
0, 0
0, 0
0, 0
0, 0
0, 0
0, 0
0, 0
0, 0
0, 0
0, 0
0, 0
0, 0
0, 0
0, 0
0, 0
0, 0
0, 0
0, 0
0, 0
0, 0
0, 0
0, 0
0, 0
0, 0
0, 0
0, 0
0, 0
0, 0
0, 0
0, 0
0, 0
0, 0
0, 0
0, 0
0, 0
0, 0
0, 0
0, 0
0, 0
0, 0
0, 0
0, 0
0, 0
0, 0
0, 0
0, 0
0, 0
0, 0
0, 0
0, 0
0, 0
0, 0
0, 0
0, 0
0, 0
0, 0
0, 0
0, 0
0, 0
0, 0
0, 0
0, 0
0, 0
0, 0
0, 0
0, 0
0, 0
0, 0
0, 0
0, 0
0, 0
0, 0
0, 0
0, 0
0, 0
0, 0
0, 0
0, 0
0, 0
0, 0
0, 0
0, 0
0, 0
0, 0
0, 0
0, 0
0, 0
0, 0
0, 0
0, 0
0, 0
0, 0
0, 0
0, 0
0, 0
0, 0
0, 0
0, 0
0, 0
0, 0
0, 0
0, 0
0, 0
0, 0
0, 0
0, 0
0, 0
0, 0
0, 0
0, 0
0, 0
0, 0
0, 0
0, 0
0, 0
0, 0
0, 0
0, 0
0, 0
0, 0
0, 0
0, 0
0, 0
0, 0
0, 0
0, 0
0, 0
0, 0
0, 0
0, 0
0, 0
0, 0
0, 0
0, 0
0, 0
0, 0
0, 0
0, 0
0, 0
0, 0
0, 0
0, 0
0, 0
0, 0
0, 0
0, 0
0, 0
0, 0
0, 0
0, 0
0, 0
0, 0
0, 0
0, 0
0, 0
0, 0
0, 0
0, 0
0, 0
0, 0
0, 0
0, 0
0, 0
0, 0
0, 0
0, 0
0, 0
0, 0
0, 0
0, 0
0, 0
0, 0
0, 0
0, 0
0, 0
0, 0
0, 0
0, 0
0, 0
0, 0
0, 0
0, 0
0, 0
0, 0
0, 0
0, 0
0, 0
0, 0
0, 0
0, 0
0, 0
0, 0
0, 0
0, 0
0, 0
0, 0
0, 0
0, 0
0, 0
0, 0
0, 0
0, 0
0, 0
0, 0
0, 0
0, 0
0, 0
0, 0
0, 0
0, 0
0, 0
0, 0
0, 0
0, 0
0, 0
0, 0
0, 0
0, 0
0, 0
0, 0
0, 0
#ENDOFDATA     end of spectrum data