File: host_upload/06-09-2024/ps_0852/dump3/ps__0852shot_2042.msa
#FORMAT      : EMSA/MAS spectral data file
#VERSION     : TC202v2.0 PIXL
#TITLE       : N/A
#DATE        :       Date in the format DD-MMM-YYYY, for example 07-JUL-2010
#TIME        :             The time of day at which the spectrum was recorded, in 24-hour format
#OWNER       : PIXL Flight Model       (PIXL will use this to indicate which instrument took the data.)
#NPOINTS     : 4096     Number of data points in the spectrum (This can be zero for configuration only files)
#NCOLUMNS    : 2     Number of data columns in the spectrum (This can be zero for configuration only files)
#XUNITS      : eV
#YUNITS      : COUNTS
#DATATYPE    : YY
#XPERCHAN    : 7.862, 7.881   eV per channel (separate by commas if more than one detector)
#OFFSET      : 18.5, -22.4         eV of first channel  (separate by commas if more than one detector
#SIGNALTYPE  : XRF
#YP_TEMP     : 2.428
#LIVETIME    : 8.54984, 8.55663   seconds (separate by commas if more than one detector)
#REALTIME    : 10, 10.0   seconds (separate by commas if more than one detector)
#SPECTRUM    : start of spectrum data
0, 0
0, 0
0, 0
0, 0
0, 0
0, 0
0, 0
0, 0
0, 0
0, 0
0, 0
0, 0
0, 0
0, 0
0, 0
0, 0
0, 0
0, 0
0, 0
0, 0
0, 0
0, 0
0, 0
0, 0
0, 0
0, 0
0, 0
0, 0
0, 0
0, 0
0, 0
1, 0
0, 0
0, 0
0, 0
0, 1
1, 1
0, 0
1, 0
0, 4
2, 3
2, 4
0, 1
2, 2
0, 1
0, 0
2, 1
3, 6
14, 8
13, 10
24, 20
46, 30
81, 48
96, 70
91, 94
97, 73
69, 74
46, 50
31, 31
21, 12
11, 7
1, 3
6, 6
3, 1
2, 2
4, 3
6, 7
10, 10
21, 17
47, 46
94, 110
163, 158
268, 284
338, 365
424, 404
441, 397
378, 359
309, 257
186, 174
123, 111
82, 65
39, 44
16, 15
9, 13
4, 3
3, 3
3, 0
0, 2
3, 3
0, 0
1, 1
1, 1
1, 2
0, 3
1, 1
2, 2
2, 2
0, 4
3, 6
6, 5
3, 3
2, 8
2, 7
2, 6
5, 6
3, 13
2, 20
5, 10
9, 37
13, 33
8, 51
18, 82
31, 111
36, 152
44, 143
48, 146
34, 135
41, 132
41, 83
20, 60
21, 46
19, 21
15, 37
25, 21
13, 15
12, 15
10, 7
5, 7
7, 9
5, 6
7, 6
4, 5
5, 5
6, 1
5, 3
3, 2
7, 2
11, 3
12, 2
2, 2
4, 1
4, 2
4, 0
3, 0
1, 5
6, 4
6, 1
4, 2
3, 3
2, 2
7, 4
9, 7
4, 7
7, 12
10, 12
11, 15
23, 8
28, 10
27, 13
24, 13
34, 15
40, 10
36, 14
43, 7
55, 8
38, 3
29, 5
28, 5
18, 6
20, 5
12, 3
9, 4
9, 4
9, 13
8, 11
5, 9
7, 12
4, 16
5, 27
10, 14
4, 17
7, 12
5, 15
6, 20
5, 11
7, 8
3, 5
8, 7
8, 5
8, 8
17, 9
6, 2
5, 10
18, 13
19, 9
37, 12
35, 17
52, 17
49, 19
59, 17
77, 19
89, 12
77, 11
57, 2
62, 9
47, 7
32, 7
27, 9
23, 4
22, 4
21, 7
13, 13
16, 8
7, 9
15, 7
17, 7
9, 2
6, 5
10, 8
9, 6
7, 6
7, 9
12, 5
8, 9
6, 10
13, 7
12, 15
11, 16
17, 17
15, 15
9, 19
12, 19
17, 19
12, 14
16, 12
17, 9
11, 9
12, 12
18, 12
12, 15
9, 6
10, 17
23, 10
21, 21
28, 21
28, 32
31, 35
44, 44
48, 54
57, 42
61, 71
70, 62
65, 62
41, 80
49, 53
38, 39
35, 21
34, 25
24, 18
17, 20
36, 22
33, 38
46, 65
94, 87
153, 188
276, 377
505, 566
855, 888
1184, 1280
1611, 1757
2156, 2079
2344, 2246
2406, 2332
2380, 2142
2206, 1839
1759, 1508
1398, 1020
968, 724
685, 432
391, 280
211, 144
135, 80
58, 37
47, 32
19, 31
9, 21
13, 24
10, 23
13, 28
16, 32
17, 28
32, 54
51, 67
76, 82
115, 128
144, 166
202, 228
260, 263
313, 325
360, 345
353, 342
366, 324
298, 272
251, 212
179, 137
127, 100
99, 73
67, 41
35, 33
25, 19
9, 5
11, 4
10, 10
9, 8
13, 13
11, 8
9, 16
9, 14
15, 9
13, 19
9, 14
13, 7
8, 2
8, 7
12, 7
8, 4
13, 5
8, 5
12, 3
10, 3
11, 3
3, 8
6, 2
3, 4
8, 0
10, 6
10, 1
8, 3
8, 9
10, 9
10, 7
3, 5
5, 4
4, 12
7, 1
8, 7
9, 2
5, 6
7, 5
6, 6
12, 14
6, 11
4, 7
3, 12
5, 9
6, 13
8, 3
3, 5
6, 9
5, 3
6, 4
6, 4
7, 0
4, 5
5, 4
6, 3
6, 7
4, 4
5, 4
5, 2
9, 10
6, 2
3, 1
6, 2
2, 1
7, 2
3, 3
7, 3
7, 7
8, 3
1, 4
1, 2
8, 5
6, 7
3, 6
6, 6
3, 5
2, 2
7, 2
7, 2
4, 3
2, 7
9, 4
4, 2
6, 5
4, 8
4, 5
5, 6
2, 5
2, 5
2, 3
6, 4
5, 2
4, 3
4, 3
3, 2
7, 2
4, 6
2, 2
2, 2
3, 1
2, 4
1, 3
6, 1
3, 2
4, 0
4, 5
5, 3
3, 3
7, 6
5, 5
1, 1
5, 2
2, 5
8, 5
6, 9
4, 2
8, 3
8, 3
1, 1
8, 1
8, 2
5, 5
8, 10
9, 2
9, 5
11, 2
2, 5
7, 4
1, 2
5, 5
2, 3
1, 5
3, 4
8, 1
5, 3
8, 1
3, 1
4, 1
2, 3
2, 4
3, 3
3, 3
4, 0
2, 1
3, 1
0, 1
2, 5
4, 3
9, 5
5, 6
4, 6
2, 3
4, 3
1, 2
3, 5
6, 3
2, 5
2, 2
2, 1
5, 3
3, 0
3, 3
5, 7
0, 2
2, 1
4, 3
1, 5
1, 1
8, 2
3, 3
0, 2
4, 1
1, 3
5, 2
5, 2
1, 1
6, 3
4, 0
2, 2
2, 2
3, 1
3, 4
1, 0
2, 2
4, 2
3, 3
1, 1
3, 5
2, 4
4, 3
4, 3
5, 3
0, 3
6, 2
4, 3
2, 3
3, 7
2, 3
1, 6
0, 4
2, 1
2, 2
2, 0
1, 1
0, 3
1, 1
2, 1
5, 3
6, 3
3, 5
0, 3
1, 2
2, 1
3, 3
7, 1
1, 1
3, 0
3, 2
2, 3
2, 1
5, 1
2, 2
3, 1
1, 2
6, 1
5, 4
3, 5
2, 4
2, 2
5, 3
1, 3
2, 4
3, 3
5, 4
6, 4
5, 2
4, 6
1, 2
6, 0
7, 0
3, 1
2, 0
2, 1
1, 3
2, 3
4, 1
2, 1
2, 4
1, 2
2, 1
3, 2
1, 4
1, 3
1, 1
0, 1
1, 1
1, 0
1, 1
1, 1
3, 2
2, 1
2, 3
0, 2
3, 0
1, 2
2, 0
1, 3
0, 0
2, 0
0, 4
2, 0
1, 1
2, 1
0, 1
0, 0
1, 0
1, 0
0, 2
1, 0
1, 2
2, 2
1, 0
1, 0
2, 1
1, 0
3, 1
1, 2
0, 2
1, 0
1, 3
3, 1
2, 2
2, 0
2, 1
2, 0
2, 1
0, 3
1, 1
1, 1
3, 1
1, 1
1, 3
1, 0
0, 0
1, 0
0, 1
0, 2
0, 0
0, 2
4, 1
1, 0
2, 0
0, 1
0, 2
2, 0
4, 0
0, 1
0, 0
1, 1
0, 0
0, 1
0, 0
4, 2
0, 2
1, 0
2, 0
2, 0
3, 0
1, 0
0, 2
2, 0
0, 0
2, 0
1, 0
0, 3
1, 0
1, 0
0, 0
0, 1
0, 0
1, 0
0, 0
1, 0
1, 0
1, 1
0, 1
1, 1
1, 0
1, 0
0, 1
0, 0
0, 0
0, 0
1, 0
1, 1
0, 0
0, 1
0, 0
0, 0
1, 0
1, 0
1, 1
1, 0
0, 0
0, 0
0, 0
0, 0
0, 0
1, 0
0, 0
0, 0
1, 0
0, 1
0, 0
1, 0
2, 0
1, 0
0, 0
1, 1
2, 0
1, 0
1, 0
1, 0
0, 0
0, 0
0, 2
0, 0
0, 0
0, 1
0, 0
1, 1
0, 1
0, 1
0, 0
0, 0
0, 1
0, 0
0, 0
0, 0
1, 0
0, 0
0, 1
1, 1
0, 0
0, 1
0, 0
0, 0
1, 0
0, 0
0, 0
1, 0
0, 0
0, 1
0, 0
0, 0
0, 0
0, 1
1, 0
2, 0
0, 0
0, 0
1, 0
1, 0
0, 0
0, 1
2, 0
0, 0
0, 0
0, 0
0, 1
1, 0
0, 0
0, 0
0, 0
0, 0
0, 0
1, 0
0, 0
1, 0
0, 0
0, 0
0, 0
0, 0
0, 0
0, 0
0, 0
0, 0
1, 0
0, 0
0, 0
1, 0
0, 0
0, 0
0, 0
1, 0
0, 0
0, 0
1, 0
1, 0
1, 0
2, 1
1, 0
1, 0
0, 0
1, 0
1, 0
1, 0
0, 0
0, 0
0, 0
2, 0
0, 0
1, 0
1, 1
0, 1
0, 0
0, 0
0, 1
0, 0
0, 0
0, 0
0, 0
1, 0
0, 0
1, 1
1, 0
1, 0
0, 1
0, 0
1, 0
0, 0
0, 0
0, 0
1, 0
2, 1
0, 1
0, 2
0, 1
0, 0
0, 0
0, 0
2, 0
0, 0
1, 0
0, 0
0, 0
0, 1
0, 0
0, 0
1, 0
0, 0
0, 1
0, 0
0, 0
0, 1
0, 0
0, 0
0, 0
0, 1
1, 0
0, 0
2, 1
0, 1
0, 0
0, 0
1, 0
1, 0
0, 0
0, 0
1, 0
0, 0
1, 0
0, 0
1, 0
0, 0
0, 0
0, 0
0, 0
0, 0
0, 0
0, 0
0, 0
0, 0
1, 0
2, 0
0, 0
0, 0
0, 1
0, 0
0, 0
0, 0
0, 0
0, 0
0, 0
0, 0
1, 0
0, 0
0, 0
0, 1
0, 0
0, 0
0, 0
0, 0
1, 0
0, 0
0, 1
0, 0
0, 0
0, 0
0, 0
0, 0
0, 1
0, 0
0, 1
0, 0
0, 0
0, 0
0, 0
0, 0
0, 0
0, 1
0, 0
0, 0
0, 0
0, 0
0, 1
0, 0
0, 0
0, 0
0, 0
0, 0
0, 0
0, 0
0, 0
0, 0
0, 0
0, 0
0, 0
0, 0
0, 0
0, 0
0, 0
0, 0
0, 0
0, 0
0, 0
0, 0
0, 0
0, 0
0, 0
0, 0
0, 1
0, 0
0, 0
0, 0
0, 0
0, 0
0, 1
0, 0
0, 0
0, 0
0, 0
0, 0
0, 0
0, 0
0, 0
0, 0
0, 0
0, 0
0, 0
0, 0
0, 0
0, 0
0, 0
0, 0
0, 0
0, 0
0, 0
0, 0
1, 0
0, 1
0, 0
0, 0
0, 0
0, 0
0, 1
0, 0
1, 0
0, 0
0, 0
0, 0
0, 0
0, 0
0, 0
0, 0
0, 0
0, 0
0, 0
0, 0
0, 0
0, 1
0, 0
0, 0
0, 0
0, 0
0, 0
0, 0
0, 0
0, 0
0, 0
0, 0
0, 1
0, 0
0, 0
0, 0
0, 0
0, 0
0, 0
0, 0
0, 0
0, 0
0, 0
0, 0
0, 0
0, 0
0, 0
0, 0
0, 0
0, 0
0, 0
0, 0
0, 0
0, 0
0, 0
0, 0
0, 0
0, 0
0, 0
0, 0
0, 0
0, 0
0, 0
0, 0
0, 0
0, 0
0, 0
0, 0
0, 0
0, 0
0, 0
0, 0
0, 0
0, 0
0, 0
0, 0
0, 0
0, 0
0, 0
0, 0
0, 0
0, 0
0, 0
0, 0
0, 0
0, 0
0, 0
0, 0
1, 0
0, 0
0, 0
0, 0
0, 0
0, 0
0, 0
0, 0
0, 0
0, 0
0, 0
0, 0
0, 0
0, 0
0, 0
0, 0
0, 0
0, 0
0, 0
0, 0
0, 0
0, 0
0, 0
0, 0
0, 0
0, 0
0, 0
0, 0
0, 0
0, 0
0, 0
0, 0
0, 0
0, 0
0, 0
0, 0
0, 0
0, 0
0, 0
0, 0
0, 0
0, 0
0, 0
0, 0
0, 0
0, 0
0, 0
0, 0
0, 0
0, 0
0, 0
0, 0
0, 0
0, 0
0, 0
0, 0
0, 0
0, 0
0, 0
0, 0
0, 0
0, 0
0, 0
0, 0
0, 0
0, 0
0, 0
0, 0
0, 0
0, 0
0, 0
0, 0
0, 0
0, 0
0, 0
0, 0
0, 0
0, 0
0, 0
0, 0
0, 0
0, 0
0, 0
0, 0
0, 0
0, 0
0, 0
0, 0
0, 0
0, 0
0, 0
0, 0
0, 0
0, 0
0, 0
0, 0
0, 0
0, 0
0, 0
0, 0
0, 0
0, 0
0, 0
0, 0
0, 0
0, 0
0, 0
0, 0
0, 0
0, 0
0, 0
0, 0
0, 0
0, 0
0, 0
0, 0
0, 0
0, 0
0, 0
0, 0
0, 0
0, 0
0, 0
0, 0
0, 0
0, 0
0, 0
0, 0
0, 0
0, 0
0, 0
0, 0
0, 0
0, 0
0, 0
0, 0
0, 0
0, 0
0, 0
0, 0
0, 0
0, 0
0, 0
0, 0
0, 0
0, 0
0, 0
0, 0
0, 0
0, 0
0, 0
0, 0
0, 0
0, 0
0, 0
0, 0
0, 0
0, 0
0, 0
0, 0
0, 0
0, 0
0, 0
0, 0
0, 0
0, 0
0, 0
0, 0
0, 0
0, 0
0, 0
0, 0
0, 0
0, 0
0, 0
0, 0
0, 0
0, 0
0, 0
0, 0
0, 0
0, 0
0, 0
0, 0
0, 0
0, 0
0, 0
0, 0
0, 0
0, 0
0, 0
0, 0
0, 0
0, 0
0, 0
0, 0
0, 0
0, 0
0, 0
0, 0
0, 0
0, 0
0, 0
0, 0
0, 0
0, 0
0, 0
0, 0
0, 0
0, 0
0, 0
0, 0
0, 0
0, 0
0, 0
0, 0
0, 0
0, 0
0, 0
0, 0
0, 0
0, 0
0, 0
0, 0
0, 0
0, 0
0, 0
0, 0
0, 0
0, 0
0, 0
0, 0
0, 0
0, 0
0, 0
0, 0
0, 0
0, 0
0, 0
0, 0
0, 0
0, 0
0, 0
0, 0
0, 0
0, 0
0, 0
0, 0
0, 0
0, 0
0, 0
0, 0
0, 0
0, 0
0, 0
0, 0
0, 0
0, 0
0, 0
0, 0
0, 0
0, 0
0, 0
0, 0
0, 0
0, 0
0, 0
0, 0
0, 0
0, 0
0, 0
0, 0
0, 0
0, 0
0, 0
0, 0
0, 0
0, 0
0, 0
0, 0
0, 0
0, 0
0, 0
0, 0
0, 0
0, 0
0, 0
0, 0
0, 0
0, 0
0, 0
0, 0
0, 0
0, 0
0, 0
0, 0
0, 0
0, 0
0, 0
0, 0
0, 0
0, 0
0, 0
0, 0
0, 0
0, 0
0, 0
0, 0
0, 0
0, 0
0, 0
0, 0
0, 0
0, 0
0, 0
0, 0
0, 0
0, 0
0, 0
0, 0
0, 0
0, 0
0, 0
0, 0
0, 0
0, 0
0, 0
0, 0
#ENDOFDATA     end of spectrum data