File: host_upload/06-09-2024/ps_0852/dump3/ps__0852shot_2241.msa
#FORMAT      : EMSA/MAS spectral data file
#VERSION     : TC202v2.0 PIXL
#TITLE       : N/A
#DATE        :       Date in the format DD-MMM-YYYY, for example 07-JUL-2010
#TIME        :             The time of day at which the spectrum was recorded, in 24-hour format
#OWNER       : PIXL Flight Model       (PIXL will use this to indicate which instrument took the data.)
#NPOINTS     : 4096     Number of data points in the spectrum (This can be zero for configuration only files)
#NCOLUMNS    : 2     Number of data columns in the spectrum (This can be zero for configuration only files)
#XUNITS      : eV
#YUNITS      : COUNTS
#DATATYPE    : YY
#XPERCHAN    : 7.862, 7.881   eV per channel (separate by commas if more than one detector)
#OFFSET      : 18.5, -22.4         eV of first channel  (separate by commas if more than one detector
#SIGNALTYPE  : XRF
#YP_TEMP     : 2.235
#LIVETIME    : 8.54141, 8.5526   seconds (separate by commas if more than one detector)
#REALTIME    : 10, 10.0   seconds (separate by commas if more than one detector)
#SPECTRUM    : start of spectrum data
0, 0
0, 0
0, 0
0, 0
0, 0
0, 0
0, 0
0, 0
0, 0
0, 0
0, 0
0, 0
0, 0
0, 0
0, 0
0, 0
0, 0
0, 0
0, 0
0, 0
0, 0
0, 0
0, 0
0, 0
0, 0
0, 0
0, 0
0, 0
0, 0
0, 0
0, 0
0, 0
0, 0
0, 0
1, 0
0, 1
0, 1
0, 0
1, 1
4, 0
0, 0
1, 0
2, 2
1, 1
1, 4
0, 0
1, 3
2, 5
2, 5
12, 8
26, 23
37, 41
51, 69
58, 73
73, 49
79, 61
61, 45
36, 39
28, 22
14, 14
12, 9
7, 8
7, 11
5, 7
13, 4
10, 3
7, 6
13, 13
31, 16
37, 58
104, 109
197, 165
273, 254
370, 323
414, 360
401, 404
381, 321
284, 233
206, 181
128, 118
77, 84
44, 26
30, 12
14, 8
13, 5
10, 10
21, 6
10, 9
8, 6
6, 5
10, 4
3, 3
8, 1
8, 0
9, 2
16, 3
18, 2
19, 5
23, 3
7, 5
9, 4
10, 6
9, 7
3, 4
1, 7
5, 4
5, 9
17, 14
24, 19
19, 24
41, 37
48, 39
47, 49
54, 50
62, 59
57, 56
47, 42
51, 44
29, 41
40, 24
35, 27
41, 23
34, 20
37, 24
36, 21
27, 16
16, 10
19, 8
18, 8
13, 6
6, 1
3, 5
9, 4
3, 3
2, 3
0, 0
8, 2
3, 10
8, 3
8, 8
8, 7
9, 6
12, 7
14, 10
5, 3
1, 6
6, 3
4, 5
5, 4
2, 4
8, 5
10, 12
11, 16
17, 15
30, 31
43, 40
49, 58
43, 54
58, 59
33, 60
45, 48
33, 28
32, 16
17, 10
5, 11
10, 6
5, 9
8, 9
6, 8
7, 7
17, 17
10, 7
12, 13
11, 11
8, 8
11, 5
4, 5
10, 9
12, 0
16, 6
16, 7
25, 4
36, 8
46, 9
50, 5
60, 4
60, 5
66, 8
45, 9
37, 7
37, 12
39, 21
25, 14
23, 14
21, 8
14, 17
17, 16
14, 9
20, 18
19, 12
10, 16
13, 13
6, 10
14, 5
4, 6
14, 10
9, 8
5, 9
10, 8
10, 7
10, 12
18, 7
16, 9
15, 10
17, 10
16, 7
10, 9
11, 5
8, 8
3, 6
3, 16
8, 9
6, 14
10, 14
5, 9
10, 14
13, 18
15, 14
21, 18
21, 22
19, 29
23, 36
24, 28
14, 24
18, 15
14, 18
21, 12
18, 14
16, 12
13, 5
20, 7
27, 9
55, 11
60, 11
68, 15
86, 23
104, 29
109, 29
111, 39
144, 63
98, 62
100, 70
86, 63
87, 58
58, 30
36, 27
31, 23
17, 17
19, 18
25, 25
9, 21
28, 21
41, 54
86, 90
155, 179
267, 348
458, 587
728, 893
1181, 1259
1472, 1614
1822, 2015
2241, 2211
2236, 2220
2345, 2012
2120, 1808
1746, 1364
1306, 1021
910, 671
565, 384
365, 266
190, 142
102, 69
62, 34
34, 23
25, 24
18, 16
10, 12
12, 15
11, 25
29, 16
30, 27
29, 33
40, 59
65, 94
104, 111
147, 175
190, 201
254, 288
297, 312
331, 322
340, 306
352, 312
307, 250
259, 195
204, 163
130, 108
83, 59
70, 34
48, 21
26, 15
22, 14
19, 9
9, 9
16, 8
18, 13
15, 10
23, 14
19, 13
18, 15
24, 18
18, 10
10, 3
12, 9
9, 8
7, 1
9, 8
5, 0
3, 5
6, 5
0, 1
2, 1
4, 2
4, 7
4, 5
3, 5
7, 8
9, 6
8, 2
7, 6
2, 7
6, 2
6, 12
7, 4
5, 7
6, 4
8, 3
11, 6
5, 4
7, 8
4, 12
8, 8
6, 7
7, 3
6, 8
3, 4
7, 4
9, 10
2, 7
6, 10
3, 13
8, 12
5, 5
10, 7
7, 9
14, 6
9, 8
17, 5
12, 14
20, 6
15, 7
16, 4
23, 7
11, 7
16, 7
10, 10
5, 15
7, 14
6, 22
5, 13
4, 9
6, 17
8, 11
6, 8
5, 7
2, 9
3, 4
2, 8
5, 6
0, 7
2, 6
2, 2
3, 3
3, 1
5, 4
1, 1
7, 4
3, 1
1, 2
0, 3
4, 5
7, 8
3, 5
0, 3
2, 6
4, 2
5, 4
2, 3
3, 4
4, 3
5, 3
2, 4
2, 8
4, 2
4, 6
3, 5
2, 3
1, 2
4, 2
3, 2
3, 4
5, 5
2, 3
2, 3
0, 5
7, 0
7, 3
4, 8
7, 6
13, 3
7, 13
13, 6
5, 10
13, 15
14, 15
8, 6
7, 11
6, 9
6, 9
2, 10
5, 9
5, 12
5, 8
2, 5
2, 2
4, 4
6, 5
1, 3
0, 5
3, 3
2, 3
3, 4
3, 8
1, 4
2, 3
1, 3
2, 7
2, 3
5, 2
0, 4
1, 4
2, 4
2, 4
5, 0
3, 4
2, 2
5, 2
2, 2
5, 1
0, 4
3, 5
3, 2
3, 4
3, 4
3, 1
1, 3
6, 3
2, 2
6, 3
0, 1
2, 4
1, 2
1, 1
2, 1
3, 4
3, 3
2, 1
6, 2
3, 1
4, 2
0, 3
2, 3
3, 2
4, 1
4, 5
4, 1
4, 1
4, 0
1, 1
1, 1
1, 3
3, 0
4, 2
4, 1
5, 4
2, 0
4, 5
7, 0
3, 0
1, 1
3, 0
6, 2
3, 3
0, 2
1, 2
3, 1
1, 1
2, 2
2, 0
4, 3
3, 5
0, 0
3, 0
3, 7
0, 2
2, 6
2, 2
2, 4
1, 4
1, 1
1, 3
2, 1
3, 3
2, 2
0, 0
1, 1
1, 2
1, 2
1, 1
0, 3
3, 1
2, 2
3, 3
5, 4
7, 2
7, 1
4, 3
2, 2
4, 4
2, 2
4, 0
2, 1
3, 1
0, 2
4, 2
7, 1
1, 2
2, 3
4, 2
2, 0
2, 3
1, 1
3, 2
2, 0
3, 0
0, 2
6, 2
0, 0
1, 1
0, 0
3, 0
4, 2
0, 4
1, 4
1, 4
0, 0
4, 2
2, 1
1, 0
1, 1
3, 2
2, 2
1, 0
0, 1
1, 1
1, 0
2, 0
0, 2
1, 1
2, 0
1, 1
0, 1
0, 1
2, 0
1, 1
2, 1
1, 3
1, 0
1, 4
2, 0
3, 0
3, 1
2, 0
5, 1
1, 2
0, 2
0, 0
3, 1
0, 0
2, 0
1, 0
4, 2
3, 2
0, 0
1, 3
0, 0
0, 0
3, 1
0, 0
1, 1
0, 0
3, 3
1, 0
4, 0
1, 0
0, 2
0, 1
0, 0
1, 2
1, 0
0, 0
1, 1
0, 2
1, 1
2, 1
1, 0
2, 2
0, 0
1, 1
0, 0
1, 1
1, 0
0, 2
1, 0
2, 0
0, 0
2, 1
1, 1
0, 1
0, 0
0, 0
0, 1
1, 1
1, 0
1, 0
1, 0
0, 0
0, 0
1, 1
0, 0
1, 0
0, 1
1, 0
1, 0
0, 0
0, 3
1, 1
0, 1
0, 0
1, 0
1, 1
1, 0
0, 1
0, 0
0, 2
3, 0
2, 0
2, 1
1, 0
0, 1
1, 1
0, 1
1, 1
0, 0
0, 1
0, 1
2, 1
0, 1
0, 1
0, 1
0, 0
1, 1
1, 0
1, 0
0, 0
0, 1
0, 1
0, 0
1, 1
0, 0
0, 0
0, 0
0, 0
0, 0
0, 0
0, 2
0, 0
0, 0
0, 0
0, 0
0, 0
1, 1
0, 0
0, 0
1, 0
0, 0
0, 1
1, 1
0, 0
0, 0
0, 1
0, 0
0, 1
1, 1
0, 0
0, 0
1, 0
0, 0
0, 0
0, 0
2, 0
0, 1
1, 0
1, 0
0, 0
0, 0
0, 0
0, 0
0, 0
3, 0
0, 0
0, 0
0, 0
0, 1
0, 0
0, 1
0, 0
0, 0
4, 1
0, 0
1, 0
0, 1
1, 2
1, 1
0, 2
0, 0
1, 0
1, 0
0, 0
0, 0
1, 0
0, 0
0, 1
0, 0
0, 0
0, 0
1, 0
0, 0
0, 0
0, 0
0, 0
0, 1
0, 0
0, 0
0, 0
0, 0
1, 0
1, 0
0, 0
0, 1
0, 0
0, 0
0, 1
0, 0
0, 0
0, 2
0, 2
2, 0
0, 0
0, 0
0, 0
0, 0
0, 0
0, 0
1, 0
1, 0
0, 0
1, 1
1, 0
0, 0
0, 0
0, 0
0, 1
0, 0
0, 0
0, 1
0, 0
0, 0
1, 0
0, 0
1, 0
1, 0
0, 0
0, 0
0, 0
0, 0
0, 0
0, 0
0, 0
0, 0
0, 0
0, 0
0, 0
0, 0
0, 0
0, 0
0, 0
0, 0
0, 0
0, 0
0, 0
0, 1
0, 0
0, 0
0, 0
0, 0
0, 0
0, 0
0, 0
0, 0
0, 1
0, 0
0, 1
1, 0
0, 0
0, 1
0, 0
0, 0
0, 0
0, 0
1, 0
1, 0
0, 0
0, 0
0, 0
0, 0
0, 1
0, 0
0, 1
0, 0
0, 0
0, 0
0, 0
0, 0
0, 0
0, 1
0, 0
0, 0
0, 0
0, 0
0, 0
0, 0
0, 0
0, 0
0, 0
1, 0
1, 0
1, 0
0, 0
1, 0
0, 0
0, 0
0, 0
0, 0
0, 0
0, 0
0, 0
1, 0
0, 0
0, 0
0, 0
0, 1
0, 0
1, 0
0, 0
0, 0
0, 0
0, 0
0, 0
0, 0
0, 0
0, 0
0, 0
0, 1
0, 0
0, 0
0, 0
0, 0
2, 0
0, 0
0, 0
0, 0
0, 0
0, 0
0, 0
0, 0
0, 0
0, 0
0, 0
1, 0
0, 0
0, 0
0, 1
0, 0
0, 0
0, 0
0, 0
0, 0
0, 0
0, 0
0, 0
0, 0
0, 0
0, 0
0, 0
0, 0
0, 0
1, 0
1, 0
0, 0
0, 0
0, 0
0, 0
0, 0
0, 0
0, 0
0, 1
0, 0
0, 0
0, 0
0, 0
0, 0
0, 0
0, 0
0, 0
0, 0
0, 0
0, 0
0, 0
0, 0
0, 0
0, 0
0, 0
0, 0
0, 0
0, 0
1, 0
0, 0
0, 0
0, 0
0, 0
0, 0
0, 0
0, 0
0, 0
0, 0
0, 0
1, 0
0, 0
0, 0
0, 0
0, 0
0, 0
0, 1
0, 0
0, 0
0, 0
0, 0
0, 0
0, 0
0, 0
0, 0
0, 0
0, 0
0, 0
0, 0
0, 0
0, 0
0, 0
0, 0
0, 0
0, 0
0, 0
0, 0
0, 0
0, 0
0, 0
0, 0
0, 0
0, 0
0, 0
0, 0
0, 0
0, 0
0, 0
0, 0
0, 0
0, 0
0, 0
0, 0
0, 0
0, 0
0, 0
0, 0
0, 0
0, 0
0, 0
0, 0
0, 0
0, 0
0, 0
0, 0
0, 0
0, 0
0, 0
0, 0
0, 0
0, 0
0, 0
0, 0
0, 0
0, 0
0, 0
0, 0
0, 0
0, 0
0, 0
0, 0
0, 0
0, 0
0, 0
0, 0
0, 0
0, 0
0, 0
0, 0
0, 0
0, 0
0, 0
0, 0
0, 0
0, 0
0, 0
0, 0
0, 0
0, 0
0, 0
0, 0
0, 0
0, 0
0, 0
0, 0
0, 0
0, 0
0, 0
0, 0
0, 0
0, 0
0, 0
0, 0
0, 0
0, 0
0, 0
0, 0
0, 0
0, 0
0, 0
0, 0
0, 0
0, 0
0, 0
0, 0
0, 0
0, 0
0, 0
0, 0
0, 0
0, 0
0, 0
0, 0
0, 0
0, 0
0, 0
0, 0
0, 0
0, 0
0, 0
0, 0
0, 0
0, 0
0, 0
0, 0
0, 0
0, 0
0, 0
0, 0
0, 0
0, 0
0, 0
0, 0
0, 0
0, 0
0, 0
0, 0
0, 0
0, 0
0, 0
0, 0
0, 0
0, 0
0, 0
0, 0
0, 0
0, 0
0, 0
0, 0
0, 0
0, 0
0, 0
0, 0
0, 0
0, 0
0, 0
0, 0
0, 0
0, 0
0, 0
0, 0
0, 0
0, 0
0, 0
0, 0
0, 0
0, 0
0, 0
0, 0
0, 0
0, 0
0, 0
0, 0
0, 0
0, 0
0, 0
0, 0
0, 0
0, 0
0, 0
0, 0
0, 0
0, 0
0, 0
0, 0
0, 0
0, 0
0, 0
0, 0
0, 0
0, 0
0, 0
0, 0
0, 0
0, 0
0, 0
0, 0
0, 0
0, 0
0, 0
0, 0
0, 0
0, 0
0, 0
0, 0
0, 0
0, 0
0, 0
0, 0
0, 0
0, 0
0, 0
0, 0
0, 0
0, 0
0, 0
0, 0
0, 0
0, 0
0, 0
0, 0
0, 0
0, 0
0, 0
0, 0
0, 0
0, 0
0, 0
0, 0
0, 0
0, 0
0, 0
0, 0
0, 0
0, 0
0, 0
0, 0
0, 0
0, 0
0, 0
0, 0
0, 0
0, 0
0, 0
0, 0
0, 0
0, 0
0, 0
0, 0
0, 0
0, 0
0, 0
0, 0
0, 0
0, 0
0, 0
0, 0
0, 0
0, 0
0, 0
0, 0
0, 0
0, 0
0, 0
0, 0
0, 0
0, 0
0, 0
0, 0
0, 0
0, 0
0, 0
0, 0
0, 0
0, 0
0, 0
0, 0
0, 0
0, 0
0, 0
0, 0
0, 0
0, 0
0, 0
0, 0
0, 0
0, 0
0, 0
0, 0
0, 0
0, 0
0, 0
0, 0
0, 0
0, 0
0, 0
0, 0
0, 0
0, 0
0, 0
0, 0
0, 0
0, 0
0, 0
0, 0
0, 0
0, 0
0, 0
0, 0
0, 0
0, 0
0, 0
0, 0
0, 0
0, 0
0, 0
0, 0
0, 0
0, 0
0, 0
0, 0
0, 0
0, 0
0, 0
0, 0
0, 0
0, 0
0, 0
0, 0
0, 0
0, 0
0, 0
0, 0
0, 0
0, 0
0, 0
0, 0
0, 0
0, 0
0, 0
0, 0
0, 0
0, 0
0, 0
0, 0
0, 0
0, 0
0, 0
0, 0
0, 0
0, 0
0, 0
0, 0
0, 0
0, 0
0, 0
0, 0
0, 0
0, 0
0, 0
0, 0
0, 0
0, 0
0, 0
0, 0
0, 0
0, 0
0, 0
0, 0
0, 0
0, 0
0, 0
0, 0
0, 0
0, 0
0, 0
0, 0
0, 0
0, 0
0, 0
#ENDOFDATA     end of spectrum data