File: host_upload/06-09-2024/ps_0852/dump3/ps__0852shot_2088.msa
#FORMAT      : EMSA/MAS spectral data file
#VERSION     : TC202v2.0 PIXL
#TITLE       : N/A
#DATE        :       Date in the format DD-MMM-YYYY, for example 07-JUL-2010
#TIME        :             The time of day at which the spectrum was recorded, in 24-hour format
#OWNER       : PIXL Flight Model       (PIXL will use this to indicate which instrument took the data.)
#NPOINTS     : 4096     Number of data points in the spectrum (This can be zero for configuration only files)
#NCOLUMNS    : 2     Number of data columns in the spectrum (This can be zero for configuration only files)
#XUNITS      : eV
#YUNITS      : COUNTS
#DATATYPE    : YY
#XPERCHAN    : 7.862, 7.881   eV per channel (separate by commas if more than one detector)
#OFFSET      : 18.5, -22.4         eV of first channel  (separate by commas if more than one detector
#SIGNALTYPE  : XRF
#YP_TEMP     : 2.428
#LIVETIME    : 8.58012, 8.36788   seconds (separate by commas if more than one detector)
#REALTIME    : 10, 10.0   seconds (separate by commas if more than one detector)
#SPECTRUM    : start of spectrum data
0, 0
0, 0
0, 0
0, 0
0, 0
0, 0
0, 0
0, 0
0, 0
0, 0
0, 0
0, 0
0, 0
0, 0
0, 0
0, 0
0, 0
0, 0
0, 0
0, 0
0, 0
0, 0
0, 0
0, 0
0, 0
0, 0
0, 0
0, 0
0, 0
0, 0
0, 0
0, 0
0, 0
0, 0
0, 1
2, 0
1, 0
1, 1
1, 8
3, 1
6, 3
7, 1
6, 2
8, 2
8, 6
7, 2
4, 3
0, 2
6, 7
14, 7
26, 24
48, 45
63, 68
73, 64
75, 79
86, 65
59, 54
51, 38
22, 28
23, 13
10, 4
7, 7
4, 2
2, 2
6, 1
5, 4
8, 3
8, 7
18, 14
63, 51
95, 85
165, 159
258, 254
361, 343
425, 424
435, 387
385, 359
283, 263
202, 167
110, 130
80, 54
42, 42
26, 18
9, 7
8, 5
5, 6
1, 3
3, 1
1, 2
2, 0
3, 0
2, 1
3, 1
2, 3
5, 3
5, 6
5, 3
6, 5
8, 3
11, 12
7, 14
9, 6
3, 3
4, 6
5, 6
7, 3
8, 6
12, 7
29, 14
69, 33
105, 39
184, 85
259, 111
370, 179
450, 209
472, 209
494, 200
399, 148
316, 122
221, 100
133, 46
95, 29
45, 27
42, 26
17, 16
16, 12
14, 13
10, 9
9, 2
7, 7
8, 7
3, 1
3, 5
0, 1
5, 2
1, 1
0, 2
2, 2
3, 2
4, 2
2, 1
3, 2
1, 6
2, 2
0, 1
0, 1
0, 1
1, 1
2, 2
3, 1
3, 3
7, 9
8, 8
7, 6
20, 10
20, 14
12, 17
23, 19
16, 19
20, 8
18, 21
13, 17
9, 7
10, 5
8, 8
15, 4
15, 5
23, 5
32, 7
47, 6
55, 13
66, 14
52, 12
58, 6
57, 5
42, 9
24, 5
16, 7
8, 5
7, 4
11, 3
6, 3
3, 2
7, 3
2, 2
7, 3
9, 4
2, 7
2, 4
9, 6
5, 9
9, 13
10, 8
17, 12
11, 11
18, 12
12, 17
18, 14
26, 16
17, 13
9, 14
16, 9
7, 7
9, 2
10, 5
9, 10
0, 8
5, 3
7, 2
8, 3
7, 2
6, 10
10, 8
8, 4
6, 6
6, 7
8, 7
8, 4
6, 7
12, 3
14, 9
13, 7
9, 9
13, 10
15, 9
27, 4
24, 13
28, 10
27, 17
27, 14
21, 11
38, 11
37, 9
25, 13
30, 8
32, 11
31, 7
31, 15
22, 11
30, 18
14, 23
24, 14
15, 22
13, 28
13, 22
17, 32
26, 48
31, 51
40, 43
60, 64
61, 60
58, 55
60, 53
36, 40
39, 34
41, 33
32, 23
19, 15
17, 28
16, 24
12, 16
23, 32
41, 47
88, 99
168, 192
300, 340
502, 531
715, 904
1084, 1236
1473, 1707
1865, 2039
2284, 2208
2361, 2285
2280, 2148
2075, 1798
1737, 1509
1323, 1045
988, 720
595, 472
384, 259
239, 151
128, 80
66, 39
59, 21
47, 24
38, 21
41, 25
39, 26
45, 18
41, 26
43, 31
62, 40
48, 48
75, 91
92, 107
165, 144
193, 222
231, 274
321, 316
326, 344
364, 374
342, 320
304, 249
244, 210
197, 143
129, 97
95, 62
42, 41
37, 25
26, 15
14, 12
4, 8
8, 2
5, 7
8, 16
15, 12
11, 7
16, 22
15, 16
12, 17
16, 8
11, 9
9, 14
14, 11
9, 8
8, 10
6, 5
5, 5
2, 6
6, 1
4, 4
3, 9
3, 11
9, 2
4, 6
8, 5
8, 2
10, 10
9, 9
8, 14
9, 12
12, 18
8, 15
14, 17
11, 19
6, 19
5, 15
5, 5
4, 18
13, 9
8, 5
9, 1
14, 5
9, 6
2, 0
2, 5
9, 5
5, 9
9, 5
7, 1
8, 3
6, 2
2, 3
4, 3
3, 3
4, 7
5, 2
1, 3
6, 3
5, 1
6, 4
6, 4
3, 3
1, 4
4, 1
4, 4
3, 7
10, 9
5, 4
3, 4
7, 3
2, 3
3, 1
1, 2
3, 4
4, 3
5, 1
9, 5
5, 5
6, 5
7, 4
8, 7
7, 1
5, 6
2, 4
7, 5
6, 5
7, 4
9, 3
6, 3
6, 4
5, 2
9, 1
3, 1
9, 0
7, 1
6, 5
3, 3
2, 5
4, 3
3, 4
2, 4
4, 0
5, 1
3, 3
3, 3
5, 4
3, 2
3, 0
4, 5
2, 1
3, 6
2, 0
2, 4
2, 1
1, 4
1, 3
6, 2
4, 3
2, 1
1, 5
1, 4
5, 6
3, 2
5, 1
4, 3
1, 0
1, 2
5, 2
2, 2
2, 2
3, 5
5, 1
1, 2
1, 0
3, 0
2, 5
4, 3
4, 1
5, 4
2, 2
5, 2
4, 6
5, 3
3, 1
5, 3
3, 3
3, 5
2, 5
7, 4
8, 1
3, 0
5, 3
3, 0
4, 0
3, 3
3, 4
3, 2
3, 3
6, 5
5, 2
2, 2
1, 1
2, 2
2, 2
1, 2
1, 2
2, 1
1, 6
3, 5
4, 4
4, 2
3, 2
3, 2
2, 5
2, 1
5, 0
4, 3
1, 1
3, 2
0, 3
2, 1
1, 1
4, 2
1, 0
2, 1
3, 5
0, 3
0, 1
2, 2
0, 4
2, 1
2, 3
2, 1
2, 0
3, 3
1, 1
9, 1
2, 0
5, 0
4, 1
7, 3
4, 1
3, 2
2, 2
2, 0
3, 1
0, 3
3, 3
1, 2
5, 7
1, 2
1, 2
4, 2
2, 0
4, 2
2, 2
2, 2
2, 2
0, 1
2, 1
3, 2
1, 1
0, 2
1, 1
3, 1
3, 4
2, 2
3, 2
5, 2
7, 5
6, 3
8, 2
2, 4
2, 1
3, 2
2, 4
4, 2
3, 2
3, 2
2, 3
1, 1
1, 0
1, 0
3, 0
3, 0
1, 3
3, 2
4, 1
1, 2
0, 3
1, 0
3, 2
1, 1
2, 0
3, 1
2, 1
3, 3
4, 4
1, 0
4, 1
2, 1
2, 1
4, 1
2, 2
1, 0
1, 0
3, 2
3, 4
1, 0
1, 0
2, 0
1, 1
1, 1
1, 1
1, 1
0, 0
0, 0
1, 2
1, 1
0, 1
2, 0
1, 0
1, 2
0, 1
1, 1
0, 4
0, 2
0, 0
0, 2
1, 0
1, 0
2, 1
3, 0
1, 1
0, 0
0, 0
2, 3
0, 1
3, 1
0, 0
0, 2
0, 1
1, 0
1, 1
1, 1
0, 0
0, 1
2, 0
0, 0
0, 1
1, 0
2, 1
0, 0
2, 1
2, 1
2, 0
0, 3
0, 0
0, 0
2, 1
0, 2
1, 3
3, 1
0, 1
0, 1
1, 2
0, 0
0, 2
0, 0
0, 1
1, 1
0, 1
1, 1
0, 1
0, 0
2, 1
1, 2
0, 0
1, 1
1, 1
0, 1
0, 0
0, 0
0, 1
0, 1
1, 0
2, 0
1, 0
0, 1
0, 0
0, 0
0, 0
2, 1
0, 1
0, 0
0, 2
1, 2
0, 0
0, 1
0, 2
1, 0
0, 1
1, 0
0, 0
1, 0
1, 2
0, 0
0, 0
1, 0
0, 1
0, 1
3, 0
1, 1
0, 0
2, 0
0, 0
1, 1
0, 0
0, 0
1, 1
1, 0
3, 0
1, 1
0, 0
2, 1
1, 1
0, 0
1, 0
2, 1
0, 0
0, 1
1, 0
0, 0
1, 0
0, 0
1, 0
0, 0
2, 0
0, 0
1, 2
0, 0
0, 0
0, 0
0, 0
0, 1
0, 0
0, 0
0, 2
0, 0
1, 0
3, 0
0, 0
0, 0
0, 0
0, 0
0, 0
0, 0
0, 0
2, 0
1, 1
0, 0
0, 0
0, 0
0, 1
0, 0
0, 1
1, 1
0, 0
0, 0
0, 0
0, 0
0, 0
1, 0
0, 0
0, 0
0, 0
0, 0
0, 0
1, 1
0, 1
0, 0
1, 1
1, 1
2, 0
0, 0
0, 0
0, 0
0, 0
1, 0
0, 1
1, 0
0, 0
0, 0
1, 0
0, 0
0, 0
1, 1
1, 0
1, 0
1, 2
1, 0
1, 0
0, 0
0, 0
0, 0
0, 1
0, 0
0, 0
0, 2
0, 0
0, 1
0, 0
0, 0
1, 1
0, 0
1, 0
0, 0
1, 0
0, 0
0, 0
0, 0
2, 0
1, 0
0, 0
1, 0
0, 0
0, 0
0, 0
0, 1
0, 1
1, 0
1, 2
0, 0
1, 1
0, 1
0, 0
0, 0
0, 1
0, 0
0, 0
0, 0
0, 0
0, 0
0, 0
0, 0
0, 0
1, 1
0, 0
1, 0
0, 0
0, 0
1, 0
0, 0
0, 0
0, 0
0, 1
0, 0
0, 0
1, 0
0, 0
0, 0
0, 0
1, 0
0, 0
0, 0
0, 0
0, 1
0, 0
0, 0
0, 0
0, 0
0, 0
0, 0
0, 0
0, 0
0, 0
0, 0
0, 0
0, 0
0, 1
0, 1
0, 0
0, 0
0, 0
0, 0
0, 0
1, 0
0, 0
0, 0
0, 0
0, 0
0, 0
0, 1
0, 0
0, 0
0, 0
0, 0
0, 0
0, 0
0, 0
0, 0
0, 0
0, 0
0, 0
1, 0
0, 0
0, 0
0, 0
0, 1
0, 0
0, 0
1, 0
0, 0
0, 0
0, 0
0, 0
0, 0
0, 0
0, 0
1, 0
0, 0
0, 0
0, 0
0, 0
0, 0
0, 0
0, 0
0, 0
0, 0
0, 1
0, 0
0, 0
0, 0
0, 0
0, 0
0, 0
0, 0
0, 0
0, 0
1, 0
0, 0
1, 0
0, 0
0, 0
0, 0
0, 0
0, 0
0, 0
0, 0
0, 0
0, 0
0, 0
0, 0
0, 0
0, 0
0, 0
0, 0
0, 0
0, 0
0, 0
0, 0
0, 0
0, 0
0, 0
0, 0
2, 0
0, 0
0, 0
0, 0
0, 0
0, 0
0, 0
0, 0
0, 0
0, 0
0, 1
0, 0
0, 0
0, 0
0, 0
0, 0
0, 0
0, 0
0, 0
0, 0
1, 0
0, 0
0, 0
0, 0
0, 0
0, 0
0, 0
0, 0
0, 0
0, 0
0, 0
0, 0
0, 0
0, 0
0, 0
0, 0
0, 0
0, 0
0, 1
0, 0
0, 0
0, 0
0, 0
0, 0
0, 0
0, 0
0, 0
1, 0
0, 0
0, 0
0, 0
0, 0
0, 0
0, 0
0, 0
0, 0
0, 0
0, 0
0, 0
0, 0
0, 0
1, 0
0, 0
0, 0
0, 0
0, 0
0, 0
0, 0
0, 0
0, 0
0, 0
0, 0
0, 0
0, 0
0, 0
0, 0
0, 0
0, 0
0, 0
0, 0
0, 0
0, 0
0, 0
0, 0
0, 0
0, 0
0, 0
0, 0
0, 0
0, 0
0, 0
0, 0
0, 0
0, 0
0, 0
0, 0
0, 0
0, 0
0, 0
0, 0
0, 0
0, 0
0, 0
0, 0
0, 0
0, 0
0, 0
0, 0
0, 0
0, 0
0, 0
0, 0
0, 0
0, 0
0, 0
0, 0
0, 0
0, 0
0, 0
0, 0
0, 0
0, 0
0, 0
0, 0
0, 0
0, 0
0, 0
0, 0
0, 0
0, 0
0, 0
0, 0
0, 0
0, 0
0, 0
0, 0
0, 0
0, 0
0, 0
0, 0
0, 0
0, 0
0, 0
0, 0
0, 0
0, 0
0, 0
0, 0
0, 0
0, 0
0, 0
0, 0
0, 0
0, 0
0, 0
0, 0
0, 0
0, 0
0, 0
0, 0
0, 0
0, 0
0, 0
0, 0
0, 0
0, 0
0, 0
0, 0
0, 0
0, 0
0, 0
0, 0
0, 0
0, 0
0, 0
0, 0
0, 0
0, 0
0, 0
0, 0
0, 0
0, 0
0, 0
0, 0
0, 0
0, 0
0, 0
0, 0
0, 0
0, 0
0, 0
0, 0
0, 0
0, 0
0, 0
0, 0
0, 0
0, 0
0, 0
0, 0
0, 0
0, 0
0, 0
0, 0
0, 0
0, 0
0, 0
0, 0
0, 0
0, 0
0, 0
0, 0
0, 0
0, 0
0, 0
0, 0
0, 0
0, 0
0, 0
0, 0
0, 0
0, 0
0, 0
0, 0
0, 0
0, 0
0, 0
0, 0
0, 0
0, 0
0, 0
0, 0
0, 0
0, 0
0, 0
0, 0
0, 0
0, 0
0, 0
0, 0
0, 0
0, 0
0, 0
0, 0
0, 0
0, 0
0, 0
0, 0
0, 0
0, 0
0, 0
0, 0
0, 0
0, 0
0, 0
0, 0
0, 0
0, 0
0, 0
0, 0
0, 0
0, 0
0, 0
0, 0
0, 0
0, 0
0, 0
0, 0
0, 0
0, 0
0, 0
0, 0
0, 0
0, 0
0, 0
0, 0
0, 0
0, 0
0, 0
0, 0
0, 0
0, 0
0, 0
0, 0
0, 0
0, 0
0, 0
0, 0
0, 0
0, 0
0, 0
0, 0
0, 0
0, 0
0, 0
0, 0
0, 0
0, 0
0, 0
0, 0
0, 0
0, 0
0, 0
0, 0
0, 0
0, 0
0, 0
0, 0
0, 0
0, 0
0, 0
0, 0
0, 0
0, 0
0, 0
0, 0
0, 0
0, 0
0, 0
0, 0
0, 0
0, 0
0, 0
0, 0
0, 0
0, 0
0, 0
0, 0
0, 0
0, 0
0, 0
0, 0
0, 0
0, 0
0, 0
0, 0
0, 0
0, 0
0, 0
0, 0
0, 0
0, 0
0, 0
0, 0
0, 0
0, 0
0, 0
0, 0
0, 0
0, 0
0, 0
0, 0
0, 0
0, 0
0, 0
0, 0
0, 0
0, 0
0, 0
0, 0
0, 0
0, 0
0, 0
0, 0
0, 0
0, 0
0, 0
0, 0
0, 0
0, 0
0, 0
0, 0
0, 0
0, 0
0, 0
0, 0
0, 0
0, 0
0, 0
0, 0
0, 0
0, 0
0, 0
0, 0
0, 0
0, 0
0, 0
0, 0
0, 0
0, 0
0, 0
0, 0
0, 0
0, 0
0, 0
0, 0
0, 0
0, 0
0, 0
0, 0
0, 0
0, 0
0, 0
0, 0
0, 0
0, 0
0, 0
0, 0
0, 0
0, 0
0, 0
0, 0
0, 0
0, 0
0, 0
0, 0
0, 0
0, 0
0, 0
0, 0
0, 0
0, 0
0, 0
0, 0
0, 0
0, 0
0, 0
0, 0
0, 0
0, 0
#ENDOFDATA     end of spectrum data