File: host_upload/06-09-2024/ps_0852/dump3/ps__0852shot_2400.msa
#FORMAT      : EMSA/MAS spectral data file
#VERSION     : TC202v2.0 PIXL
#TITLE       : N/A
#DATE        :       Date in the format DD-MMM-YYYY, for example 07-JUL-2010
#TIME        :             The time of day at which the spectrum was recorded, in 24-hour format
#OWNER       : PIXL Flight Model       (PIXL will use this to indicate which instrument took the data.)
#NPOINTS     : 4096     Number of data points in the spectrum (This can be zero for configuration only files)
#NCOLUMNS    : 2     Number of data columns in the spectrum (This can be zero for configuration only files)
#XUNITS      : eV
#YUNITS      : COUNTS
#DATATYPE    : YY
#XPERCHAN    : 7.862, 7.881   eV per channel (separate by commas if more than one detector)
#OFFSET      : 18.5, -22.4         eV of first channel  (separate by commas if more than one detector
#SIGNALTYPE  : XRF
#YP_TEMP     : 2.3
#LIVETIME    : 8.56812, 8.56801   seconds (separate by commas if more than one detector)
#REALTIME    : 10, 10.0   seconds (separate by commas if more than one detector)
#SPECTRUM    : start of spectrum data
0, 0
0, 0
0, 0
0, 0
0, 0
0, 0
0, 0
0, 0
0, 0
0, 0
0, 0
0, 0
0, 0
0, 0
0, 0
0, 0
0, 0
0, 0
0, 0
0, 0
0, 0
0, 0
0, 0
0, 0
0, 0
0, 0
0, 0
0, 0
0, 0
0, 0
0, 0
0, 0
0, 0
0, 0
0, 0
0, 4
0, 3
1, 2
0, 11
0, 17
0, 9
1, 17
1, 20
1, 12
1, 4
0, 9
3, 5
2, 6
11, 5
16, 15
20, 23
53, 38
58, 48
60, 71
90, 89
77, 70
61, 71
43, 43
31, 33
19, 13
6, 4
7, 9
1, 2
3, 1
2, 5
2, 6
3, 8
11, 10
23, 26
52, 52
124, 86
176, 186
245, 271
345, 362
425, 467
434, 406
371, 371
303, 258
194, 222
123, 121
79, 68
42, 38
18, 14
3, 7
3, 6
0, 4
6, 3
3, 3
0, 1
1, 0
3, 3
0, 0
0, 2
0, 1
2, 1
3, 3
2, 1
1, 3
4, 2
4, 3
5, 4
0, 5
3, 9
4, 10
1, 8
5, 9
7, 14
5, 20
10, 53
11, 110
12, 213
26, 378
21, 497
31, 775
38, 928
15, 999
16, 872
24, 736
18, 592
26, 376
20, 217
15, 115
11, 69
15, 31
11, 21
13, 11
13, 10
9, 13
6, 8
4, 3
4, 1
5, 3
1, 2
5, 1
2, 2
1, 1
2, 4
0, 1
2, 2
2, 7
1, 1
3, 3
1, 2
0, 1
2, 2
3, 3
3, 4
4, 2
2, 1
3, 2
7, 2
14, 2
15, 4
20, 7
18, 9
17, 16
15, 14
20, 17
16, 11
16, 3
13, 7
5, 4
6, 4
9, 1
9, 1
9, 4
19, 1
31, 4
53, 3
52, 5
55, 7
49, 2
50, 5
34, 4
21, 17
17, 23
11, 34
15, 46
19, 67
19, 90
20, 108
13, 106
10, 118
14, 84
6, 64
4, 41
8, 33
5, 20
3, 14
4, 8
3, 9
2, 10
7, 7
12, 5
11, 11
9, 7
7, 15
13, 12
8, 6
15, 23
9, 9
12, 6
13, 6
14, 7
15, 6
7, 5
8, 14
8, 21
8, 17
3, 15
4, 12
10, 15
4, 14
2, 9
4, 10
2, 9
6, 9
6, 11
4, 8
5, 4
2, 6
2, 5
8, 10
9, 9
9, 9
2, 9
12, 10
15, 13
14, 21
14, 20
17, 28
15, 24
18, 10
17, 19
13, 11
21, 11
26, 12
26, 4
48, 14
45, 9
36, 20
45, 25
44, 24
38, 34
46, 49
22, 53
38, 52
45, 67
59, 80
55, 77
65, 67
61, 85
52, 78
54, 56
47, 38
31, 32
23, 25
17, 7
10, 14
12, 18
16, 25
30, 39
46, 53
88, 83
164, 195
262, 326
443, 610
727, 977
1201, 1359
1610, 1700
2034, 2198
2334, 2360
2456, 2419
2397, 2228
2185, 1898
1782, 1520
1367, 1074
883, 711
621, 455
377, 261
216, 149
117, 61
53, 43
40, 27
17, 19
19, 15
18, 37
17, 30
11, 28
21, 30
30, 32
32, 49
40, 51
69, 92
88, 118
166, 168
185, 248
258, 322
308, 337
333, 342
373, 379
326, 300
316, 250
263, 206
175, 181
131, 103
76, 80
50, 54
39, 38
24, 49
10, 32
7, 42
6, 49
11, 25
7, 34
16, 36
16, 28
14, 27
12, 16
13, 17
10, 17
7, 15
6, 8
10, 4
5, 5
5, 2
4, 6
2, 4
6, 2
2, 4
2, 2
7, 4
2, 5
5, 5
3, 4
2, 3
6, 6
4, 2
3, 10
10, 15
6, 16
11, 10
10, 21
7, 26
3, 16
11, 22
7, 16
4, 26
1, 19
2, 18
6, 23
13, 23
5, 11
5, 13
8, 16
6, 13
5, 15
7, 13
8, 9
10, 10
8, 5
8, 8
7, 5
10, 7
3, 10
4, 6
3, 6
3, 8
4, 2
6, 7
2, 4
3, 6
5, 1
8, 3
2, 4
3, 2
3, 2
5, 6
4, 8
6, 6
1, 7
3, 6
3, 13
1, 12
3, 13
2, 14
2, 4
2, 6
1, 2
3, 8
4, 12
6, 7
2, 5
0, 3
4, 3
5, 3
5, 3
2, 0
9, 2
9, 5
6, 2
5, 3
9, 2
4, 4
11, 7
10, 9
13, 3
9, 5
13, 1
6, 2
11, 4
4, 3
3, 0
5, 6
4, 3
6, 4
2, 4
3, 1
5, 6
3, 4
4, 5
1, 4
1, 3
5, 10
4, 12
2, 5
1, 4
6, 4
2, 4
2, 8
4, 5
2, 5
3, 3
2, 1
5, 5
0, 8
7, 1
3, 4
5, 1
4, 3
4, 2
8, 0
7, 3
6, 0
8, 1
5, 4
10, 2
5, 1
2, 1
11, 4
10, 1
10, 2
4, 6
4, 1
3, 2
3, 2
1, 1
4, 1
6, 1
2, 0
2, 3
2, 3
2, 5
5, 4
2, 2
1, 2
6, 2
1, 1
2, 3
2, 2
2, 1
3, 4
3, 6
6, 5
1, 2
3, 0
2, 0
1, 2
2, 1
4, 4
5, 2
4, 2
6, 3
3, 1
5, 2
1, 2
4, 3
1, 5
2, 2
0, 2
1, 5
5, 7
2, 6
3, 2
6, 3
1, 3
2, 2
2, 5
4, 2
2, 4
2, 7
1, 3
4, 4
5, 1
4, 3
5, 2
2, 1
3, 2
2, 2
2, 2
1, 1
2, 2
3, 3
1, 2
3, 2
1, 3
2, 1
2, 2
2, 1
3, 2
0, 2
2, 3
0, 1
2, 1
1, 1
1, 2
2, 2
0, 1
4, 0
0, 5
0, 3
0, 2
1, 1
2, 3
4, 1
1, 3
4, 2
3, 1
1, 0
2, 4
3, 6
2, 4
3, 4
7, 6
8, 4
2, 2
1, 1
5, 1
1, 1
3, 0
4, 1
1, 0
1, 3
3, 0
1, 1
3, 0
0, 0
2, 5
1, 3
0, 3
1, 1
1, 1
0, 1
2, 3
3, 0
2, 1
2, 2
2, 0
1, 1
1, 1
4, 1
1, 2
0, 3
2, 1
3, 3
3, 4
2, 2
2, 1
3, 2
1, 3
5, 2
1, 3
1, 0
1, 1
1, 2
3, 3
0, 0
0, 2
0, 1
2, 4
0, 0
0, 3
1, 1
1, 1
0, 4
1, 3
0, 3
0, 0
0, 1
1, 0
0, 0
0, 1
0, 0
0, 0
3, 1
1, 1
0, 1
0, 1
1, 2
0, 2
0, 2
2, 1
0, 1
1, 0
1, 2
1, 1
2, 4
0, 0
0, 1
1, 1
1, 1
1, 1
0, 0
1, 0
1, 0
2, 0
0, 0
1, 0
2, 2
0, 0
0, 1
1, 1
3, 2
1, 0
0, 1
1, 0
0, 1
2, 1
1, 0
0, 0
0, 0
0, 0
1, 1
2, 0
0, 0
2, 0
1, 0
2, 0
0, 0
1, 1
0, 0
0, 1
0, 0
1, 4
0, 0
1, 1
0, 1
0, 0
0, 0
0, 1
0, 1
1, 0
1, 0
0, 0
0, 0
1, 0
1, 1
0, 0
0, 0
1, 1
0, 0
1, 1
1, 0
2, 1
1, 0
1, 0
1, 1
0, 0
1, 1
0, 1
1, 1
1, 2
2, 1
0, 1
0, 2
0, 0
2, 0
2, 1
0, 0
1, 1
0, 0
0, 1
0, 0
0, 0
0, 0
0, 0
0, 1
0, 0
0, 1
1, 0
0, 1
0, 1
0, 0
0, 0
0, 0
0, 0
0, 0
0, 1
0, 1
0, 0
0, 0
0, 0
1, 1
0, 1
1, 1
1, 0
0, 0
0, 1
1, 1
2, 0
0, 0
0, 0
1, 1
0, 0
0, 1
0, 1
0, 1
0, 0
0, 0
0, 1
0, 0
1, 0
0, 0
0, 1
0, 0
0, 0
0, 2
1, 1
0, 1
0, 0
0, 0
0, 1
0, 0
0, 0
1, 1
0, 0
0, 0
1, 0
0, 0
0, 0
0, 0
0, 1
0, 0
1, 0
1, 0
0, 0
0, 0
0, 0
0, 0
0, 0
0, 0
0, 0
0, 0
1, 0
0, 0
0, 1
0, 1
1, 1
0, 2
0, 0
1, 0
1, 0
1, 0
0, 0
0, 0
0, 0
1, 0
0, 1
1, 0
0, 0
0, 1
0, 0
0, 0
0, 0
0, 0
0, 0
0, 0
0, 0
1, 0
0, 0
0, 0
0, 1
0, 0
0, 0
0, 0
1, 0
0, 1
0, 0
0, 0
0, 2
0, 0
0, 1
0, 0
1, 0
0, 0
0, 1
0, 1
0, 1
0, 1
0, 1
0, 0
0, 0
0, 0
1, 2
0, 0
0, 0
0, 0
1, 0
0, 0
0, 1
0, 0
0, 0
0, 0
0, 0
1, 0
0, 0
0, 0
0, 0
0, 0
0, 0
0, 0
0, 0
0, 0
0, 0
0, 0
0, 0
0, 0
0, 1
0, 0
0, 0
0, 1
0, 0
0, 0
0, 0
0, 0
0, 0
0, 0
0, 0
0, 0
0, 1
0, 0
0, 0
0, 0
0, 0
0, 0
0, 0
1, 0
0, 1
0, 0
0, 1
1, 0
0, 0
0, 0
1, 0
1, 0
0, 0
1, 0
0, 0
0, 0
0, 0
0, 0
0, 0
0, 1
0, 1
0, 0
0, 0
0, 0
0, 0
0, 0
0, 0
0, 0
0, 0
0, 0
0, 0
0, 0
0, 0
0, 0
0, 0
0, 0
0, 0
0, 0
0, 0
0, 0
0, 0
0, 0
0, 0
0, 0
1, 0
0, 0
0, 0
0, 0
0, 0
0, 0
0, 0
0, 0
0, 0
0, 0
0, 0
0, 0
0, 0
0, 1
0, 0
1, 0
0, 0
0, 0
0, 0
0, 0
0, 0
0, 0
0, 0
0, 0
0, 0
1, 0
0, 0
0, 0
0, 0
1, 0
0, 0
0, 0
0, 0
0, 0
0, 0
0, 0
0, 0
0, 0
0, 0
0, 0
0, 0
0, 0
0, 0
0, 0
0, 0
0, 0
0, 0
0, 0
0, 0
0, 0
0, 0
0, 0
0, 0
0, 0
0, 0
0, 0
0, 0
1, 0
0, 0
0, 0
0, 0
0, 0
0, 0
0, 0
0, 0
0, 0
0, 0
0, 0
0, 0
0, 0
0, 0
0, 0
0, 0
0, 0
0, 0
1, 0
0, 0
0, 0
0, 0
0, 0
0, 0
0, 0
0, 0
0, 0
0, 0
0, 0
0, 0
0, 0
0, 0
0, 0
0, 0
0, 0
0, 0
0, 0
0, 0
1, 0
0, 0
0, 0
0, 0
0, 0
0, 0
0, 0
0, 0
0, 0
0, 0
0, 0
0, 0
0, 0
0, 0
0, 0
0, 0
0, 0
0, 0
1, 0
0, 0
0, 0
0, 0
0, 0
0, 0
0, 0
0, 0
0, 0
0, 0
0, 0
0, 0
0, 0
0, 0
0, 0
0, 0
0, 0
0, 0
0, 0
0, 0
0, 0
0, 0
0, 0
0, 0
0, 1
0, 0
0, 0
0, 0
0, 0
0, 0
0, 0
0, 0
0, 0
0, 0
0, 0
0, 0
0, 0
0, 0
0, 0
0, 0
0, 0
0, 0
0, 0
0, 0
0, 0
0, 0
0, 0
0, 0
0, 0
0, 0
0, 0
0, 0
0, 0
0, 0
0, 0
0, 0
0, 0
0, 0
0, 0
0, 0
0, 0
0, 0
0, 0
0, 0
0, 0
0, 0
0, 0
0, 0
0, 0
0, 0
0, 0
0, 0
0, 0
0, 0
0, 0
0, 0
0, 0
0, 0
0, 0
0, 0
0, 0
0, 0
0, 0
0, 0
0, 0
0, 0
0, 0
0, 0
0, 0
0, 0
0, 0
0, 0
0, 0
0, 0
0, 0
0, 0
0, 0
0, 0
0, 0
0, 0
0, 0
0, 0
0, 0
0, 0
0, 0
0, 0
0, 0
0, 0
0, 0
0, 0
0, 0
0, 0
0, 0
0, 0
0, 0
0, 0
0, 0
0, 0
0, 0
0, 0
0, 0
0, 0
0, 0
0, 0
0, 0
0, 0
0, 0
0, 0
0, 0
0, 0
0, 0
0, 0
0, 0
0, 0
0, 0
0, 0
0, 0
0, 0
0, 0
0, 0
0, 0
0, 0
0, 0
0, 0
0, 0
0, 0
0, 0
0, 0
0, 0
0, 0
0, 0
0, 0
0, 0
0, 0
0, 0
0, 0
0, 0
0, 0
0, 0
0, 0
0, 0
0, 0
0, 0
0, 0
0, 0
0, 0
0, 0
0, 0
0, 0
0, 0
0, 0
0, 0
0, 0
0, 0
0, 0
0, 0
0, 0
0, 0
0, 0
0, 0
0, 0
0, 0
0, 0
0, 0
0, 0
0, 0
0, 0
0, 0
0, 0
0, 0
0, 0
0, 0
0, 0
0, 0
0, 0
0, 0
0, 0
0, 0
0, 0
0, 0
0, 0
0, 0
0, 0
0, 0
0, 0
0, 0
0, 0
0, 0
0, 0
0, 0
0, 0
0, 0
0, 0
0, 0
0, 0
0, 0
0, 0
0, 0
0, 0
0, 0
0, 0
0, 0
0, 0
0, 0
0, 0
0, 0
0, 0
0, 0
0, 0
0, 0
0, 0
0, 0
0, 0
0, 0
0, 0
0, 0
0, 0
0, 0
0, 0
0, 0
0, 0
0, 0
0, 0
0, 0
0, 0
0, 0
0, 0
0, 0
0, 0
0, 0
0, 0
0, 0
0, 0
0, 0
0, 0
0, 0
0, 0
0, 0
0, 0
0, 0
0, 0
0, 0
0, 0
0, 0
0, 0
0, 0
0, 0
0, 0
0, 0
0, 0
0, 0
0, 0
0, 0
0, 0
0, 0
0, 0
0, 0
0, 0
0, 0
0, 0
0, 0
0, 0
0, 0
0, 0
0, 0
0, 0
0, 0
0, 0
0, 0
0, 0
0, 0
0, 0
0, 0
0, 0
0, 0
0, 0
0, 0
0, 0
0, 0
0, 0
0, 0
0, 0
0, 0
0, 0
0, 0
0, 0
0, 0
0, 0
0, 0
0, 0
0, 0
0, 0
0, 0
0, 0
0, 0
0, 0
0, 0
0, 0
0, 0
0, 0
0, 0
0, 0
0, 0
0, 0
0, 0
0, 0
0, 0
0, 0
0, 0
0, 0
0, 0
0, 0
0, 0
0, 0
0, 0
0, 0
0, 0
0, 0
0, 0
0, 0
0, 0
0, 0
0, 0
0, 0
0, 0
0, 0
0, 0
0, 0
0, 0
0, 0
0, 0
0, 0
0, 0
0, 0
0, 0
0, 0
#ENDOFDATA     end of spectrum data