File: host_upload/06-09-2024/ps_0852/dump3/ps__0852shot_2217.msa
#FORMAT      : EMSA/MAS spectral data file
#VERSION     : TC202v2.0 PIXL
#TITLE       : N/A
#DATE        :       Date in the format DD-MMM-YYYY, for example 07-JUL-2010
#TIME        :             The time of day at which the spectrum was recorded, in 24-hour format
#OWNER       : PIXL Flight Model       (PIXL will use this to indicate which instrument took the data.)
#NPOINTS     : 4096     Number of data points in the spectrum (This can be zero for configuration only files)
#NCOLUMNS    : 2     Number of data columns in the spectrum (This can be zero for configuration only files)
#XUNITS      : eV
#YUNITS      : COUNTS
#DATATYPE    : YY
#XPERCHAN    : 7.862, 7.881   eV per channel (separate by commas if more than one detector)
#OFFSET      : 18.5, -22.4         eV of first channel  (separate by commas if more than one detector
#SIGNALTYPE  : XRF
#YP_TEMP     : 2.396
#LIVETIME    : 8.55295, 8.58418   seconds (separate by commas if more than one detector)
#REALTIME    : 10, 10.0   seconds (separate by commas if more than one detector)
#SPECTRUM    : start of spectrum data
0, 0
0, 0
0, 0
0, 0
0, 0
0, 0
0, 0
0, 0
0, 0
0, 0
0, 0
0, 0
0, 0
0, 0
0, 0
0, 0
0, 0
0, 0
0, 0
0, 0
0, 0
0, 0
0, 0
0, 0
0, 0
0, 0
0, 0
0, 0
0, 0
0, 0
0, 0
0, 0
0, 1
0, 0
1, 0
1, 1
2, 0
1, 0
0, 1
1, 0
0, 0
1, 0
0, 1
2, 0
4, 0
0, 1
0, 3
3, 3
10, 5
12, 14
34, 21
47, 47
61, 55
67, 69
80, 75
73, 76
63, 58
38, 47
32, 25
14, 12
7, 8
4, 8
2, 4
5, 2
2, 4
4, 5
4, 5
15, 11
16, 23
50, 44
107, 98
167, 192
252, 284
371, 360
405, 423
412, 409
371, 407
296, 282
236, 159
125, 139
78, 76
47, 39
13, 20
10, 6
8, 8
4, 2
5, 1
3, 3
2, 1
0, 1
1, 1
2, 0
0, 1
0, 1
2, 4
2, 0
4, 1
4, 5
2, 3
4, 8
3, 5
2, 2
3, 4
4, 3
4, 3
6, 5
4, 3
8, 7
9, 9
12, 16
24, 30
23, 35
34, 32
31, 41
45, 37
40, 57
46, 49
38, 24
32, 30
25, 32
21, 16
16, 13
23, 13
15, 16
15, 12
15, 13
15, 5
6, 11
8, 4
8, 6
8, 8
5, 0
1, 4
4, 2
2, 2
0, 2
0, 0
7, 3
0, 3
2, 4
4, 4
7, 2
4, 2
2, 3
2, 3
2, 4
4, 0
2, 1
4, 0
0, 2
0, 0
5, 1
8, 6
11, 6
5, 11
11, 7
11, 10
10, 13
15, 15
16, 13
7, 6
10, 8
3, 7
8, 6
2, 5
4, 7
4, 3
4, 5
2, 6
4, 1
3, 5
3, 7
3, 2
3, 5
5, 5
2, 4
4, 11
5, 4
8, 7
6, 11
12, 14
6, 9
8, 2
10, 6
10, 3
9, 0
11, 3
7, 4
7, 5
6, 6
11, 4
5, 11
12, 14
7, 12
15, 14
10, 5
13, 19
21, 14
9, 17
11, 13
13, 10
6, 8
20, 4
5, 10
7, 9
2, 5
6, 13
4, 9
2, 19
12, 14
4, 26
7, 32
2, 25
4, 26
7, 23
5, 19
7, 17
8, 12
5, 17
8, 10
8, 14
10, 12
3, 13
4, 10
10, 13
8, 12
13, 17
10, 20
17, 16
18, 21
15, 16
10, 9
20, 18
17, 9
9, 10
12, 14
16, 11
7, 4
12, 10
10, 8
14, 12
15, 7
11, 12
16, 8
22, 22
19, 25
25, 29
36, 50
38, 57
46, 53
59, 52
66, 58
65, 62
59, 49
48, 39
36, 21
29, 31
20, 21
20, 19
22, 15
21, 22
27, 40
55, 65
84, 120
158, 195
288, 394
504, 601
813, 909
1118, 1337
1547, 1832
2022, 2174
2321, 2425
2513, 2475
2524, 2217
2229, 1989
1835, 1528
1357, 1088
968, 696
577, 450
323, 251
219, 134
107, 73
59, 42
38, 24
25, 16
15, 21
10, 15
10, 21
16, 23
18, 25
25, 27
30, 38
49, 65
73, 91
118, 119
151, 170
211, 244
245, 336
331, 337
357, 379
369, 344
352, 320
340, 259
282, 212
216, 134
142, 102
116, 60
66, 45
36, 23
24, 10
17, 13
12, 17
9, 16
9, 6
14, 16
10, 22
11, 21
18, 29
10, 30
13, 27
13, 22
8, 25
8, 27
8, 26
10, 19
5, 17
3, 17
2, 9
0, 7
8, 3
5, 8
2, 4
4, 6
8, 5
4, 2
4, 3
5, 2
4, 8
8, 4
3, 6
5, 4
6, 2
9, 3
1, 4
10, 3
3, 3
6, 6
3, 5
2, 1
6, 8
4, 6
4, 3
5, 5
3, 3
2, 1
5, 6
3, 5
4, 4
3, 4
5, 1
6, 4
0, 4
4, 6
4, 6
4, 4
5, 6
5, 2
7, 2
2, 3
6, 3
2, 5
5, 7
5, 7
2, 5
3, 5
9, 5
10, 9
8, 3
6, 5
5, 2
4, 8
5, 4
8, 1
8, 1
8, 3
6, 4
6, 7
5, 6
1, 8
3, 4
4, 10
5, 3
3, 12
7, 10
2, 10
4, 5
1, 4
3, 5
7, 3
3, 9
2, 2
2, 3
3, 4
2, 1
3, 0
1, 4
3, 2
4, 4
5, 0
3, 4
0, 2
3, 4
5, 3
2, 2
1, 2
2, 3
1, 1
7, 3
8, 5
4, 3
9, 9
7, 5
10, 4
10, 7
12, 4
9, 4
8, 6
3, 6
5, 3
8, 1
5, 2
2, 3
5, 4
5, 4
5, 7
3, 4
2, 6
3, 2
5, 3
2, 2
4, 0
1, 3
3, 3
2, 1
5, 2
2, 4
2, 3
2, 1
5, 2
2, 1
3, 6
1, 8
3, 5
3, 2
5, 2
4, 3
5, 4
1, 2
3, 6
2, 2
0, 2
7, 2
2, 1
1, 7
8, 2
2, 3
6, 2
0, 3
0, 2
4, 2
4, 2
3, 0
5, 3
1, 1
2, 0
2, 0
4, 2
2, 1
4, 1
2, 1
1, 1
1, 2
3, 3
0, 0
4, 1
1, 2
2, 4
1, 3
3, 1
0, 3
0, 2
1, 2
0, 1
1, 3
3, 2
2, 6
3, 3
3, 1
2, 5
2, 0
3, 2
3, 1
1, 4
3, 1
1, 4
4, 5
0, 4
2, 1
1, 2
2, 4
2, 3
0, 0
0, 2
2, 1
1, 2
1, 0
2, 4
3, 0
4, 2
0, 1
6, 0
6, 1
1, 2
1, 4
2, 0
6, 1
2, 1
5, 1
2, 0
2, 2
3, 3
1, 1
2, 3
1, 3
4, 4
2, 2
0, 4
6, 2
0, 1
5, 4
2, 6
5, 3
4, 1
6, 2
4, 6
1, 1
5, 3
2, 1
3, 0
4, 3
1, 2
3, 1
3, 0
2, 0
1, 1
1, 0
4, 3
2, 0
0, 3
1, 3
0, 1
0, 0
4, 3
1, 1
3, 1
0, 2
2, 1
3, 2
1, 4
2, 2
0, 1
1, 0
0, 7
1, 2
1, 3
0, 1
1, 1
2, 3
1, 2
0, 1
2, 1
1, 1
2, 0
2, 1
0, 1
2, 1
1, 1
0, 1
1, 2
0, 0
0, 0
0, 1
0, 0
0, 1
0, 1
2, 0
2, 0
3, 1
0, 0
0, 1
0, 1
1, 2
1, 2
0, 3
1, 0
1, 0
0, 1
0, 1
0, 1
1, 2
0, 0
3, 0
0, 1
3, 1
2, 2
0, 0
0, 0
0, 0
0, 0
2, 0
0, 1
0, 2
1, 2
0, 1
1, 1
0, 3
1, 1
0, 1
1, 2
0, 0
3, 1
0, 1
1, 1
1, 1
1, 1
3, 0
0, 1
1, 0
0, 1
2, 0
0, 1
1, 0
0, 0
4, 0
0, 0
1, 0
0, 0
0, 0
2, 0
1, 1
0, 1
0, 1
0, 0
1, 0
2, 0
2, 1
0, 1
0, 1
0, 3
1, 0
0, 0
1, 2
1, 0
0, 0
0, 1
0, 1
1, 0
1, 0
0, 0
2, 2
1, 0
0, 0
0, 1
2, 1
2, 0
1, 0
0, 0
1, 2
0, 1
0, 2
2, 0
0, 0
2, 2
1, 0
0, 1
0, 0
0, 0
0, 0
2, 0
0, 0
1, 0
1, 0
0, 0
0, 3
0, 1
0, 0
0, 1
0, 0
1, 1
0, 1
0, 0
0, 0
0, 0
1, 1
1, 0
0, 0
0, 0
0, 1
0, 0
1, 0
0, 0
0, 0
0, 0
1, 1
0, 0
0, 0
0, 0
0, 0
0, 0
0, 0
0, 0
0, 0
0, 1
1, 0
0, 1
0, 0
1, 0
1, 1
0, 1
0, 0
1, 0
0, 0
1, 1
0, 0
0, 0
0, 1
0, 0
0, 0
0, 0
2, 0
0, 0
0, 0
1, 0
1, 0
0, 0
2, 1
1, 0
0, 1
0, 1
0, 1
0, 1
1, 0
0, 0
0, 1
0, 1
0, 1
0, 0
0, 0
0, 0
1, 1
0, 1
0, 1
0, 0
0, 0
0, 0
0, 0
0, 0
0, 0
0, 0
1, 0
1, 0
0, 0
1, 0
1, 0
0, 0
0, 0
0, 0
1, 0
0, 1
2, 1
0, 0
2, 0
1, 1
0, 0
0, 0
1, 0
0, 0
0, 0
1, 0
0, 0
0, 0
0, 0
0, 0
0, 0
0, 0
1, 0
1, 1
0, 0
2, 0
0, 0
0, 0
0, 0
0, 0
0, 0
1, 1
0, 0
0, 2
0, 0
1, 1
0, 0
0, 0
1, 0
0, 0
0, 0
0, 0
0, 0
0, 2
0, 0
0, 0
0, 0
1, 0
0, 0
0, 0
0, 0
0, 0
0, 0
0, 0
0, 0
0, 0
0, 1
0, 0
0, 0
0, 0
0, 1
0, 0
0, 0
0, 0
0, 0
0, 0
0, 0
0, 0
0, 0
0, 0
1, 0
0, 0
0, 0
0, 0
0, 0
1, 0
0, 0
0, 0
0, 1
0, 0
0, 0
1, 1
0, 0
0, 0
0, 0
0, 0
0, 1
0, 0
0, 0
0, 0
0, 0
0, 0
1, 0
0, 0
0, 0
0, 0
0, 0
0, 1
0, 0
0, 0
0, 0
0, 0
0, 0
0, 0
0, 0
1, 0
0, 0
0, 0
0, 0
0, 0
0, 0
0, 0
0, 0
0, 1
0, 0
0, 0
0, 1
0, 0
0, 0
0, 0
0, 0
1, 0
0, 0
0, 0
0, 0
0, 0
0, 0
0, 0
0, 0
0, 0
1, 0
0, 0
0, 0
0, 0
0, 0
0, 0
0, 0
1, 0
0, 0
1, 0
0, 0
0, 0
0, 0
0, 0
0, 0
0, 0
0, 0
0, 0
0, 0
0, 0
0, 0
0, 0
0, 0
0, 0
0, 0
0, 0
0, 0
0, 0
0, 0
0, 0
0, 0
0, 0
0, 0
0, 0
0, 0
0, 0
0, 0
0, 0
0, 0
0, 0
0, 0
0, 0
0, 0
0, 1
0, 0
0, 0
1, 0
0, 0
0, 0
0, 0
0, 0
0, 0
0, 0
1, 0
0, 1
0, 0
0, 0
0, 1
0, 0
0, 0
0, 0
0, 0
0, 0
0, 0
1, 0
0, 0
0, 0
0, 0
0, 0
0, 0
0, 0
0, 0
0, 0
0, 0
0, 0
0, 0
1, 0
0, 0
0, 0
0, 0
0, 0
0, 0
0, 0
0, 0
0, 0
0, 0
0, 0
0, 0
0, 0
0, 0
0, 0
0, 0
0, 0
0, 0
0, 0
0, 0
0, 0
0, 0
0, 0
0, 0
0, 0
0, 0
0, 0
0, 0
0, 0
0, 0
0, 0
0, 0
0, 0
0, 0
0, 0
0, 0
0, 0
0, 0
0, 0
0, 0
0, 0
0, 0
0, 0
0, 0
0, 0
0, 0
0, 0
0, 0
0, 0
0, 1
0, 0
0, 0
0, 0
0, 0
0, 0
0, 0
0, 0
0, 0
0, 0
0, 0
0, 0
0, 0
0, 0
0, 0
0, 0
0, 0
0, 0
0, 0
0, 0
0, 0
0, 0
0, 0
0, 0
0, 0
0, 0
0, 0
0, 0
0, 0
0, 0
0, 0
0, 0
0, 0
0, 0
0, 0
0, 0
0, 0
0, 0
0, 0
0, 0
0, 0
0, 0
0, 0
0, 0
0, 0
0, 0
0, 0
0, 0
0, 0
0, 0
0, 0
0, 0
0, 0
0, 0
0, 0
0, 0
0, 0
0, 0
0, 0
0, 0
0, 0
0, 0
0, 0
0, 0
0, 0
0, 0
0, 0
0, 0
0, 0
0, 0
0, 0
0, 0
0, 0
0, 0
0, 0
0, 0
0, 0
0, 0
0, 0
0, 0
0, 0
0, 0
0, 0
0, 0
0, 0
0, 0
0, 0
0, 0
0, 0
0, 0
0, 0
0, 0
0, 0
0, 0
0, 0
0, 0
0, 0
0, 0
0, 0
0, 0
0, 0
0, 0
0, 0
0, 0
0, 0
0, 0
0, 0
0, 0
0, 0
0, 0
0, 0
0, 0
0, 0
0, 0
0, 0
0, 0
0, 0
0, 0
0, 0
0, 0
0, 0
0, 0
0, 0
0, 0
0, 0
0, 0
0, 0
0, 0
0, 0
0, 0
0, 0
0, 0
0, 0
0, 0
0, 0
0, 0
0, 0
0, 0
0, 0
0, 0
0, 0
0, 0
0, 0
0, 0
0, 0
0, 0
0, 0
0, 0
0, 0
0, 0
0, 0
0, 0
0, 0
0, 0
0, 0
0, 0
0, 0
0, 0
0, 0
0, 0
0, 0
0, 0
0, 0
0, 0
0, 0
0, 0
0, 0
0, 0
0, 0
0, 0
0, 0
0, 0
0, 0
0, 0
0, 0
0, 0
0, 0
0, 0
0, 0
0, 0
0, 0
0, 0
0, 0
0, 0
0, 0
0, 0
0, 0
0, 0
0, 0
0, 0
0, 0
0, 0
0, 0
0, 0
0, 0
0, 0
0, 0
0, 0
0, 0
0, 0
0, 0
0, 0
0, 0
0, 0
0, 0
0, 0
0, 0
0, 0
0, 0
0, 0
0, 0
0, 0
0, 0
0, 0
0, 0
0, 0
0, 0
0, 0
0, 0
0, 0
0, 0
0, 0
0, 0
0, 0
0, 0
0, 0
0, 0
0, 0
0, 0
0, 0
0, 0
0, 0
0, 0
0, 0
0, 0
0, 0
0, 0
0, 0
0, 0
0, 0
0, 0
0, 0
0, 0
0, 0
0, 0
0, 0
0, 0
0, 0
0, 0
0, 0
0, 0
0, 0
0, 0
0, 0
0, 0
0, 0
0, 0
0, 0
0, 0
0, 0
0, 0
0, 0
0, 0
0, 0
0, 0
0, 0
0, 0
0, 0
0, 0
0, 0
0, 0
0, 0
0, 0
0, 0
0, 0
0, 0
0, 0
0, 0
0, 0
0, 0
0, 0
0, 0
0, 0
0, 0
0, 0
0, 0
0, 0
0, 0
0, 0
0, 0
0, 0
0, 0
0, 0
0, 0
0, 0
0, 0
0, 0
0, 0
0, 0
0, 0
0, 0
0, 0
0, 0
0, 0
0, 0
0, 0
0, 0
0, 0
0, 0
0, 0
0, 0
0, 0
0, 0
0, 0
0, 0
0, 0
0, 0
0, 0
0, 0
0, 0
0, 0
0, 0
0, 0
0, 0
0, 0
0, 0
0, 0
0, 0
0, 0
0, 0
0, 0
0, 0
0, 0
0, 0
0, 0
0, 0
0, 0
0, 0
#ENDOFDATA     end of spectrum data