File: host_upload/06-09-2024/ps_0852/dump3/ps__0852shot_2423.msa
#FORMAT      : EMSA/MAS spectral data file
#VERSION     : TC202v2.0 PIXL
#TITLE       : N/A
#DATE        :       Date in the format DD-MMM-YYYY, for example 07-JUL-2010
#TIME        :             The time of day at which the spectrum was recorded, in 24-hour format
#OWNER       : PIXL Flight Model       (PIXL will use this to indicate which instrument took the data.)
#NPOINTS     : 4096     Number of data points in the spectrum (This can be zero for configuration only files)
#NCOLUMNS    : 2     Number of data columns in the spectrum (This can be zero for configuration only files)
#XUNITS      : eV
#YUNITS      : COUNTS
#DATATYPE    : YY
#XPERCHAN    : 7.862, 7.881   eV per channel (separate by commas if more than one detector)
#OFFSET      : 18.5, -22.4         eV of first channel  (separate by commas if more than one detector
#SIGNALTYPE  : XRF
#YP_TEMP     : 2.492
#LIVETIME    : 8.55478, 8.56186   seconds (separate by commas if more than one detector)
#REALTIME    : 10, 10.0   seconds (separate by commas if more than one detector)
#SPECTRUM    : start of spectrum data
0, 0
0, 0
0, 0
0, 0
0, 0
0, 0
0, 0
0, 0
0, 0
0, 0
0, 0
0, 0
0, 0
0, 0
0, 0
0, 0
0, 0
0, 0
0, 0
0, 0
0, 0
0, 0
0, 0
0, 0
0, 0
0, 0
0, 0
0, 0
0, 0
0, 0
0, 0
0, 0
0, 0
0, 0
0, 0
1, 0
3, 2
0, 0
5, 0
1, 0
6, 1
3, 1
2, 4
1, 1
2, 0
1, 2
5, 1
2, 4
6, 7
13, 9
27, 17
46, 39
59, 55
87, 65
91, 78
73, 80
65, 47
46, 27
20, 24
14, 10
11, 6
2, 5
2, 3
4, 4
4, 5
8, 4
6, 8
8, 7
15, 21
52, 58
89, 86
179, 171
274, 278
385, 360
465, 439
434, 411
390, 355
291, 264
221, 204
148, 105
68, 81
39, 36
29, 9
15, 10
4, 17
6, 7
5, 6
4, 11
7, 7
3, 1
1, 3
2, 2
1, 5
0, 2
4, 1
4, 1
2, 2
5, 2
3, 0
6, 3
7, 3
8, 6
1, 3
0, 8
2, 7
7, 9
9, 13
13, 14
22, 19
37, 16
69, 27
96, 26
127, 38
179, 41
212, 47
212, 39
185, 42
157, 26
106, 32
73, 15
55, 23
39, 33
20, 22
24, 24
20, 15
27, 19
20, 13
10, 11
13, 4
6, 11
9, 7
4, 6
3, 4
1, 1
0, 3
3, 4
5, 0
3, 4
3, 1
4, 2
1, 0
0, 2
1, 2
1, 1
5, 2
2, 0
3, 4
5, 3
8, 6
19, 7
21, 1
20, 4
24, 19
25, 14
33, 20
36, 22
46, 32
39, 31
45, 31
40, 29
61, 27
63, 16
87, 9
79, 6
76, 6
77, 1
48, 2
52, 5
26, 7
22, 5
14, 5
7, 1
5, 6
4, 7
7, 8
4, 5
1, 9
2, 6
5, 4
5, 5
3, 2
7, 5
6, 2
3, 6
6, 4
1, 3
4, 2
3, 7
7, 5
7, 12
10, 13
12, 17
21, 21
9, 18
10, 21
11, 24
5, 18
13, 21
14, 20
16, 17
14, 18
11, 10
12, 13
10, 8
8, 5
11, 6
10, 5
8, 12
7, 5
7, 5
6, 9
10, 9
10, 6
11, 10
4, 9
6, 14
2, 8
4, 5
11, 6
11, 5
7, 5
13, 8
8, 5
8, 6
14, 6
19, 6
25, 8
23, 11
22, 18
19, 11
13, 15
21, 9
23, 11
19, 12
14, 8
15, 2
8, 4
10, 11
14, 6
8, 11
6, 9
13, 18
15, 20
16, 22
24, 27
24, 23
24, 32
33, 39
39, 41
48, 47
78, 60
70, 67
45, 55
48, 57
61, 34
37, 32
28, 23
25, 13
25, 18
35, 25
22, 23
40, 29
51, 54
91, 96
200, 184
290, 328
537, 565
792, 932
1187, 1322
1642, 1713
2022, 2078
2368, 2359
2427, 2400
2455, 2245
2107, 1882
1767, 1496
1324, 1062
922, 732
600, 433
406, 239
222, 126
100, 87
70, 33
38, 26
20, 23
24, 26
24, 20
19, 21
19, 10
18, 31
28, 26
37, 41
52, 57
86, 79
108, 140
150, 151
207, 216
258, 267
272, 305
379, 373
348, 393
339, 341
314, 255
251, 198
182, 153
109, 96
94, 63
59, 41
30, 26
20, 12
16, 11
12, 11
8, 5
8, 14
10, 14
18, 9
15, 18
14, 13
11, 20
18, 8
21, 13
12, 6
9, 5
16, 4
12, 5
10, 8
9, 4
14, 6
8, 5
4, 5
6, 5
10, 10
4, 3
7, 11
5, 9
7, 10
7, 9
8, 8
9, 8
11, 13
7, 9
8, 5
12, 3
12, 9
12, 10
11, 3
9, 9
12, 5
11, 4
8, 6
12, 11
5, 5
4, 1
8, 6
6, 5
5, 6
5, 3
8, 5
4, 5
2, 5
1, 6
2, 5
5, 1
4, 7
4, 1
2, 5
4, 3
7, 4
7, 5
8, 3
2, 4
3, 6
4, 3
4, 3
2, 3
6, 7
6, 6
4, 4
6, 5
4, 6
5, 5
5, 3
1, 8
7, 5
3, 3
6, 5
8, 2
1, 7
5, 6
4, 3
5, 10
7, 4
5, 7
4, 3
7, 4
3, 6
11, 7
0, 2
4, 1
2, 5
6, 3
5, 4
6, 2
7, 1
9, 8
5, 7
8, 8
5, 5
8, 4
10, 4
4, 5
7, 9
7, 4
5, 5
7, 4
3, 1
14, 1
6, 4
7, 2
2, 7
2, 4
3, 3
1, 6
1, 5
5, 7
1, 4
3, 3
2, 4
5, 4
3, 2
4, 2
4, 3
2, 6
0, 7
1, 3
8, 3
4, 6
2, 1
5, 8
4, 5
4, 4
6, 5
1, 8
2, 1
5, 3
5, 1
7, 5
5, 1
4, 6
4, 4
3, 5
3, 5
4, 4
0, 5
0, 3
5, 1
1, 3
1, 3
3, 4
1, 1
3, 2
1, 2
5, 3
5, 2
5, 2
3, 2
1, 2
6, 5
4, 4
2, 2
2, 2
3, 4
3, 1
1, 2
4, 1
3, 2
1, 2
2, 2
3, 3
4, 3
5, 3
2, 3
4, 5
5, 0
2, 3
4, 1
1, 1
4, 1
1, 4
0, 1
3, 1
3, 2
3, 2
3, 4
1, 3
2, 3
7, 3
0, 2
4, 4
1, 1
8, 3
2, 3
3, 1
4, 3
4, 3
5, 4
8, 3
1, 3
4, 2
2, 3
2, 1
3, 0
2, 0
2, 0
0, 2
5, 0
0, 5
1, 1
1, 2
0, 0
0, 2
3, 4
4, 2
4, 2
4, 1
4, 1
1, 2
2, 5
1, 2
2, 0
1, 4
0, 4
3, 2
0, 3
3, 1
5, 2
2, 2
2, 2
3, 4
3, 1
0, 4
2, 1
3, 4
4, 6
4, 5
6, 1
0, 4
3, 3
2, 1
1, 2
3, 4
0, 1
1, 5
5, 3
1, 5
2, 2
0, 1
3, 2
1, 1
2, 1
2, 3
1, 2
0, 0
1, 3
2, 1
2, 0
1, 2
4, 3
3, 3
1, 3
2, 2
2, 2
2, 2
3, 1
0, 2
1, 3
2, 1
0, 1
1, 0
2, 3
0, 0
2, 2
0, 0
1, 3
0, 1
0, 1
1, 1
1, 0
0, 0
0, 1
1, 0
2, 0
0, 0
3, 0
0, 4
2, 2
1, 1
1, 1
0, 0
0, 0
3, 0
3, 0
2, 2
2, 2
2, 3
0, 1
1, 1
0, 3
2, 2
2, 4
0, 0
0, 0
2, 2
0, 1
1, 0
1, 1
0, 1
2, 0
1, 0
0, 1
0, 0
0, 1
2, 0
0, 0
0, 0
1, 1
0, 0
0, 2
1, 1
1, 1
3, 0
0, 0
0, 1
0, 2
1, 0
4, 0
2, 1
0, 2
1, 2
0, 2
1, 0
1, 1
2, 0
0, 1
0, 1
0, 0
2, 0
0, 1
3, 2
0, 0
1, 0
1, 2
0, 2
0, 0
2, 2
2, 0
1, 0
0, 0
2, 0
0, 0
0, 1
1, 0
1, 0
1, 1
2, 1
1, 0
1, 0
3, 3
0, 1
1, 1
0, 0
1, 0
2, 1
1, 1
1, 0
0, 0
0, 1
4, 1
1, 2
0, 0
0, 0
1, 0
0, 0
1, 1
0, 1
3, 0
1, 2
0, 0
0, 0
1, 0
0, 1
0, 0
0, 1
0, 0
1, 0
0, 0
0, 0
0, 0
0, 0
0, 1
0, 1
0, 0
0, 0
0, 0
1, 0
1, 1
0, 1
0, 2
0, 1
0, 0
0, 0
0, 0
0, 0
1, 0
0, 0
0, 1
1, 0
0, 2
1, 0
0, 1
1, 0
0, 0
1, 1
1, 0
1, 0
1, 0
1, 0
2, 1
0, 1
0, 1
0, 2
0, 0
0, 2
0, 1
0, 0
0, 0
1, 0
0, 1
0, 1
0, 0
0, 0
0, 0
1, 0
1, 0
1, 0
0, 0
0, 0
0, 0
0, 1
0, 1
0, 0
0, 1
0, 1
1, 0
1, 1
0, 0
0, 0
0, 0
0, 0
1, 0
0, 0
0, 0
0, 0
0, 0
1, 0
0, 0
1, 1
0, 0
1, 0
0, 2
0, 0
0, 0
0, 0
0, 1
0, 0
2, 0
0, 0
0, 0
0, 0
0, 0
0, 0
0, 0
0, 0
1, 0
0, 0
0, 0
0, 0
0, 0
1, 0
2, 0
1, 0
1, 0
0, 0
0, 1
0, 0
0, 1
0, 1
2, 1
0, 1
0, 0
0, 0
1, 0
0, 0
0, 1
2, 0
0, 0
0, 0
0, 1
3, 0
0, 1
0, 0
1, 0
0, 0
0, 0
1, 0
0, 0
0, 0
0, 0
0, 0
0, 0
0, 0
0, 0
0, 0
0, 0
0, 0
0, 0
0, 0
0, 0
0, 0
0, 0
0, 1
0, 0
0, 1
0, 0
0, 0
0, 0
0, 0
0, 0
0, 0
0, 0
0, 1
0, 0
0, 0
0, 0
0, 0
0, 0
0, 0
0, 0
1, 0
0, 0
0, 0
0, 0
0, 0
0, 1
0, 0
0, 0
0, 0
0, 0
0, 0
0, 0
1, 0
1, 0
0, 0
0, 0
0, 0
0, 0
0, 1
0, 0
0, 0
0, 0
0, 0
0, 0
0, 0
0, 0
1, 0
0, 0
1, 1
0, 0
0, 0
0, 0
0, 0
0, 0
0, 0
0, 0
0, 0
1, 0
0, 0
0, 0
0, 0
0, 0
0, 0
0, 0
0, 0
0, 0
0, 0
0, 0
0, 0
0, 0
0, 0
0, 0
0, 0
0, 0
0, 0
0, 0
0, 0
0, 0
0, 0
0, 0
0, 0
0, 0
0, 0
0, 0
0, 0
0, 0
0, 0
0, 0
0, 0
0, 0
0, 0
0, 1
0, 0
1, 0
0, 0
1, 0
0, 0
0, 0
0, 0
0, 0
0, 0
0, 0
0, 0
0, 0
0, 0
0, 0
0, 0
0, 0
0, 0
0, 0
0, 0
0, 0
0, 0
0, 0
0, 0
0, 0
0, 0
0, 0
0, 0
0, 0
0, 0
1, 0
0, 0
0, 0
0, 0
0, 0
0, 0
0, 0
0, 0
0, 0
0, 1
0, 0
0, 0
0, 0
0, 0
0, 0
0, 0
0, 0
0, 0
0, 0
0, 0
0, 1
0, 0
0, 0
1, 0
0, 0
0, 0
0, 0
0, 0
0, 0
0, 0
0, 0
0, 0
0, 0
0, 0
0, 0
0, 0
0, 0
0, 0
0, 0
0, 0
0, 0
0, 0
0, 0
0, 0
0, 0
0, 0
0, 0
0, 0
0, 0
0, 0
0, 0
0, 0
0, 0
0, 0
0, 0
0, 0
0, 0
0, 0
0, 0
0, 0
0, 0
0, 0
0, 0
0, 0
0, 0
0, 0
0, 0
0, 0
0, 0
0, 0
0, 0
0, 0
0, 0
0, 0
0, 0
0, 0
0, 0
0, 0
0, 0
0, 0
0, 0
0, 0
0, 0
0, 0
0, 0
0, 0
0, 0
0, 0
0, 0
0, 0
0, 0
0, 0
0, 0
0, 0
0, 0
0, 0
0, 0
0, 0
0, 0
0, 0
0, 0
0, 0
0, 0
0, 0
0, 0
0, 0
0, 0
0, 0
0, 0
0, 0
0, 0
0, 0
0, 0
0, 0
0, 0
0, 0
0, 0
0, 0
0, 0
0, 0
0, 0
0, 0
0, 0
0, 0
0, 0
0, 0
0, 0
0, 0
0, 0
0, 0
0, 0
0, 0
0, 0
0, 0
0, 0
0, 0
0, 0
0, 0
0, 0
0, 0
0, 0
0, 0
0, 0
0, 0
0, 0
0, 0
0, 0
0, 0
0, 0
0, 0
0, 0
0, 0
0, 0
0, 0
0, 0
0, 0
0, 0
0, 0
0, 0
0, 0
0, 0
0, 0
0, 0
0, 0
0, 0
0, 0
0, 0
0, 0
0, 0
0, 0
0, 0
0, 0
0, 0
0, 0
0, 0
0, 0
0, 0
0, 0
0, 0
0, 0
0, 0
0, 0
0, 0
0, 0
0, 0
0, 0
0, 0
0, 0
0, 0
0, 0
0, 0
0, 0
0, 0
0, 0
0, 0
0, 0
0, 0
0, 0
0, 0
0, 0
0, 0
0, 0
0, 0
0, 0
0, 0
0, 0
0, 0
0, 0
0, 0
0, 0
0, 0
0, 0
0, 0
0, 0
0, 0
0, 0
0, 0
0, 0
0, 0
0, 0
0, 0
0, 0
0, 0
0, 0
0, 0
0, 0
0, 0
0, 0
0, 0
0, 0
0, 0
0, 0
0, 0
0, 0
0, 0
0, 0
0, 0
0, 0
0, 0
0, 0
0, 0
0, 0
0, 0
0, 0
0, 0
0, 0
0, 0
0, 0
0, 0
0, 0
0, 0
0, 0
0, 0
0, 0
0, 0
0, 0
0, 0
0, 0
0, 0
0, 0
0, 0
0, 0
0, 0
0, 0
0, 0
0, 0
0, 0
0, 0
0, 0
0, 0
0, 0
0, 0
0, 0
0, 0
0, 0
0, 0
0, 0
0, 0
0, 0
0, 0
0, 0
0, 0
0, 0
0, 0
0, 0
0, 0
0, 0
0, 0
0, 0
0, 0
0, 0
0, 0
0, 0
0, 0
0, 0
0, 0
0, 0
0, 0
0, 0
0, 0
0, 0
0, 0
0, 0
0, 0
0, 0
0, 0
0, 0
0, 0
0, 0
0, 0
0, 0
0, 0
0, 0
0, 0
0, 0
0, 0
0, 0
0, 0
0, 0
0, 0
0, 0
0, 0
0, 0
0, 0
0, 0
0, 0
0, 0
0, 0
0, 0
0, 0
0, 0
0, 0
0, 0
0, 0
0, 0
0, 0
0, 0
0, 0
0, 0
0, 0
0, 0
0, 0
0, 0
0, 0
0, 0
0, 0
0, 0
0, 0
0, 0
0, 0
0, 0
0, 0
0, 0
0, 0
0, 0
0, 0
0, 0
0, 0
0, 0
0, 0
0, 0
0, 0
0, 0
0, 0
0, 0
0, 0
0, 0
0, 0
0, 0
0, 0
0, 0
0, 0
0, 0
0, 0
0, 0
0, 0
0, 0
0, 0
0, 0
0, 0
0, 0
0, 0
0, 0
0, 0
0, 0
0, 0
0, 0
0, 0
0, 0
0, 0
0, 0
0, 0
0, 0
0, 0
0, 0
0, 0
0, 0
0, 0
0, 0
0, 0
0, 0
0, 0
0, 0
0, 0
0, 0
0, 0
0, 0
0, 0
0, 0
0, 0
0, 0
0, 0
0, 0
0, 0
0, 0
0, 0
0, 0
#ENDOFDATA     end of spectrum data