File: host_upload/06-09-2024/ps_0852/dump3/ps__0852shot_2146.msa
#FORMAT      : EMSA/MAS spectral data file
#VERSION     : TC202v2.0 PIXL
#TITLE       : N/A
#DATE        :       Date in the format DD-MMM-YYYY, for example 07-JUL-2010
#TIME        :             The time of day at which the spectrum was recorded, in 24-hour format
#OWNER       : PIXL Flight Model       (PIXL will use this to indicate which instrument took the data.)
#NPOINTS     : 4096     Number of data points in the spectrum (This can be zero for configuration only files)
#NCOLUMNS    : 2     Number of data columns in the spectrum (This can be zero for configuration only files)
#XUNITS      : eV
#YUNITS      : COUNTS
#DATATYPE    : YY
#XPERCHAN    : 7.862, 7.881   eV per channel (separate by commas if more than one detector)
#OFFSET      : 18.5, -22.4         eV of first channel  (separate by commas if more than one detector
#SIGNALTYPE  : XRF
#YP_TEMP     : 2.492
#LIVETIME    : 8.57648, 8.57655   seconds (separate by commas if more than one detector)
#REALTIME    : 10, 10.0   seconds (separate by commas if more than one detector)
#SPECTRUM    : start of spectrum data
0, 0
0, 0
0, 0
0, 0
0, 0
0, 0
0, 0
0, 0
0, 0
0, 0
0, 0
0, 0
0, 0
0, 0
0, 0
0, 0
0, 0
0, 0
0, 0
0, 0
0, 0
0, 0
0, 0
0, 0
0, 0
0, 0
0, 0
0, 0
0, 0
0, 0
0, 0
0, 0
0, 0
1, 0
0, 0
0, 0
0, 0
2, 0
0, 0
0, 1
1, 1
2, 3
3, 1
1, 1
1, 2
1, 2
1, 3
6, 2
2, 5
13, 17
28, 18
31, 34
54, 37
65, 70
84, 65
96, 83
70, 59
50, 30
31, 26
11, 13
8, 9
5, 2
4, 4
6, 3
5, 1
4, 5
3, 8
8, 7
16, 22
49, 53
99, 80
205, 156
284, 257
380, 307
454, 376
488, 371
389, 347
302, 258
177, 166
138, 99
65, 63
40, 36
23, 15
12, 9
5, 7
2, 3
3, 4
1, 4
2, 1
1, 1
3, 0
0, 0
3, 4
2, 3
4, 1
1, 5
6, 1
4, 4
4, 4
2, 3
4, 3
3, 2
0, 1
3, 0
3, 0
4, 6
6, 7
5, 3
12, 5
13, 9
20, 14
31, 20
50, 19
49, 17
73, 38
67, 32
66, 39
76, 29
54, 34
53, 34
47, 25
33, 19
33, 31
28, 16
17, 9
20, 9
9, 14
13, 8
14, 5
7, 7
5, 1
8, 0
3, 6
3, 2
1, 0
5, 1
1, 1
3, 4
1, 2
1, 1
3, 1
3, 2
4, 3
2, 4
1, 3
0, 1
5, 1
0, 3
4, 1
5, 6
17, 8
9, 15
23, 17
37, 34
46, 43
41, 59
53, 59
57, 68
59, 57
60, 60
39, 41
32, 21
31, 23
16, 14
4, 5
5, 5
5, 4
7, 5
13, 7
12, 14
11, 8
8, 13
10, 11
10, 14
11, 15
9, 7
6, 15
5, 11
0, 9
3, 7
7, 11
4, 7
5, 7
3, 2
3, 5
4, 4
2, 3
7, 3
4, 8
6, 7
7, 10
7, 8
12, 11
15, 16
11, 10
13, 23
11, 11
13, 15
16, 12
15, 14
11, 12
8, 12
11, 3
5, 8
10, 3
8, 9
6, 4
5, 6
4, 11
9, 6
5, 10
7, 4
9, 7
8, 4
10, 4
4, 1
10, 6
12, 8
9, 7
11, 7
7, 7
4, 12
10, 10
7, 10
4, 1
12, 10
9, 13
12, 16
16, 20
17, 15
20, 18
13, 32
22, 17
18, 17
25, 18
11, 14
30, 22
15, 24
21, 16
13, 15
14, 16
13, 19
18, 17
18, 18
28, 22
38, 26
54, 24
64, 38
83, 52
73, 45
92, 65
107, 57
79, 61
87, 46
61, 37
39, 28
33, 28
38, 21
20, 19
17, 16
23, 31
33, 38
44, 57
72, 104
132, 182
265, 291
499, 521
728, 813
1178, 1214
1534, 1533
1908, 1809
2228, 2125
2425, 2079
2242, 2034
2159, 1705
1743, 1370
1270, 969
927, 633
612, 405
349, 254
187, 132
117, 69
69, 39
28, 31
13, 28
17, 21
12, 31
11, 22
15, 30
20, 26
22, 28
36, 45
46, 48
75, 81
98, 99
148, 161
191, 201
260, 245
281, 310
354, 310
370, 309
314, 307
303, 222
244, 199
194, 146
147, 95
72, 69
56, 37
39, 33
19, 15
15, 9
7, 15
9, 11
7, 18
8, 15
11, 12
17, 14
15, 16
19, 13
14, 10
21, 13
11, 14
4, 8
7, 12
8, 7
6, 8
5, 3
3, 1
8, 2
5, 5
7, 3
3, 3
7, 5
7, 8
6, 4
5, 7
4, 5
6, 4
7, 5
5, 2
5, 8
12, 5
6, 6
2, 7
10, 4
4, 9
10, 4
10, 5
9, 3
6, 4
4, 6
5, 9
2, 9
9, 9
6, 5
7, 1
3, 7
5, 4
6, 1
3, 5
5, 2
7, 3
5, 1
7, 4
5, 7
6, 6
8, 4
10, 1
3, 10
8, 2
0, 4
4, 2
3, 7
2, 1
3, 1
2, 5
10, 3
3, 2
3, 6
3, 5
4, 3
4, 9
2, 4
4, 16
3, 20
4, 9
7, 12
2, 14
3, 16
5, 14
3, 13
4, 13
7, 11
3, 10
6, 6
2, 5
4, 5
5, 6
6, 3
3, 3
4, 4
8, 7
5, 2
5, 4
5, 3
11, 4
2, 4
2, 8
4, 7
5, 6
4, 4
8, 9
4, 9
0, 6
4, 3
6, 11
6, 4
3, 3
5, 3
3, 8
1, 4
4, 3
2, 0
1, 1
4, 3
1, 3
2, 2
2, 6
2, 6
5, 4
3, 0
1, 4
2, 3
4, 4
0, 3
6, 3
2, 3
2, 2
0, 2
1, 4
5, 4
1, 0
1, 1
3, 3
1, 3
4, 3
2, 6
1, 4
4, 3
3, 4
1, 2
1, 6
2, 4
4, 4
3, 2
8, 3
3, 2
2, 3
2, 1
1, 3
3, 4
3, 1
3, 1
0, 2
3, 2
1, 5
3, 1
3, 1
1, 3
6, 3
2, 2
3, 5
1, 2
3, 2
5, 2
2, 1
3, 0
2, 6
2, 0
1, 3
3, 2
1, 2
3, 1
1, 4
5, 1
2, 3
3, 3
0, 5
0, 4
1, 1
2, 2
3, 1
2, 8
2, 2
2, 0
2, 3
4, 4
2, 1
8, 1
1, 2
4, 1
8, 1
4, 3
1, 2
3, 4
6, 2
5, 3
1, 2
3, 1
1, 1
1, 5
3, 3
2, 4
1, 0
2, 3
1, 2
3, 4
0, 3
6, 4
1, 0
4, 2
3, 0
1, 2
4, 1
2, 1
4, 1
0, 0
0, 2
2, 2
2, 0
6, 7
0, 2
3, 0
5, 1
2, 2
2, 3
4, 2
1, 0
3, 0
5, 5
3, 2
1, 5
2, 2
3, 2
2, 6
1, 2
4, 4
3, 1
3, 1
5, 3
2, 3
7, 1
0, 6
1, 4
1, 0
1, 2
2, 2
3, 1
2, 2
1, 0
2, 0
0, 0
1, 0
2, 1
2, 3
1, 2
2, 4
1, 1
4, 2
1, 4
3, 0
2, 1
2, 1
1, 1
3, 0
2, 0
3, 0
1, 2
1, 0
0, 1
1, 1
0, 2
1, 4
1, 0
2, 0
1, 2
0, 3
2, 0
2, 2
1, 0
2, 2
1, 2
0, 0
1, 0
1, 1
1, 1
2, 3
2, 1
0, 1
3, 2
0, 0
2, 0
1, 1
1, 4
2, 1
1, 1
0, 2
0, 1
1, 3
1, 1
1, 3
2, 0
1, 1
1, 1
1, 0
0, 0
0, 1
0, 0
0, 1
1, 0
0, 0
3, 1
0, 1
0, 1
4, 0
0, 2
0, 0
0, 0
0, 1
1, 1
1, 1
0, 1
2, 0
1, 0
0, 1
0, 1
0, 0
0, 0
0, 1
0, 1
0, 0
1, 0
2, 0
1, 1
0, 1
1, 0
0, 0
1, 0
0, 0
2, 0
0, 1
0, 1
0, 2
0, 0
1, 0
0, 0
1, 0
0, 1
0, 0
1, 1
0, 1
0, 1
0, 0
0, 0
0, 0
0, 1
0, 0
1, 0
1, 0
1, 1
1, 0
0, 1
0, 1
0, 1
1, 1
1, 0
1, 1
0, 0
0, 0
1, 0
0, 0
1, 0
0, 1
1, 0
0, 0
0, 0
1, 1
0, 0
0, 2
1, 0
0, 0
0, 0
3, 1
0, 1
0, 1
1, 1
1, 0
0, 2
0, 0
4, 0
0, 0
1, 0
0, 0
1, 1
0, 1
1, 0
0, 0
0, 0
0, 1
0, 0
0, 0
2, 2
0, 0
1, 0
0, 0
1, 0
1, 0
0, 1
0, 0
0, 0
3, 0
1, 0
0, 0
0, 0
0, 1
0, 0
0, 2
0, 0
0, 0
0, 0
1, 0
0, 0
2, 0
0, 0
1, 0
1, 0
0, 0
0, 0
0, 0
0, 0
0, 0
0, 1
0, 1
1, 0
0, 1
0, 0
1, 0
0, 0
1, 0
0, 0
1, 0
0, 1
1, 0
0, 1
0, 0
0, 0
1, 0
0, 0
0, 1
1, 0
1, 0
1, 0
0, 0
0, 1
0, 0
0, 0
0, 0
1, 0
0, 0
0, 0
1, 2
0, 0
1, 0
1, 0
1, 0
0, 0
0, 0
1, 0
0, 0
0, 0
0, 0
0, 0
0, 2
0, 0
0, 0
0, 0
0, 0
0, 0
0, 2
1, 0
0, 0
2, 2
0, 0
1, 0
0, 0
0, 0
0, 0
0, 1
0, 0
0, 1
0, 0
0, 0
0, 0
0, 1
0, 0
0, 0
0, 1
0, 0
0, 1
0, 0
0, 0
0, 0
0, 0
0, 0
0, 1
0, 0
1, 0
0, 0
0, 0
0, 0
0, 0
0, 0
0, 0
1, 0
0, 0
0, 0
0, 1
1, 0
0, 0
0, 0
0, 0
0, 0
0, 0
0, 0
0, 0
1, 0
0, 0
0, 0
1, 0
0, 0
0, 0
0, 0
0, 0
1, 0
0, 1
0, 0
0, 0
0, 0
0, 0
0, 0
0, 0
0, 0
0, 0
0, 0
0, 0
0, 0
0, 1
0, 1
0, 1
0, 0
0, 0
0, 0
0, 1
0, 0
0, 0
0, 0
0, 0
0, 0
0, 0
0, 0
0, 0
0, 1
0, 1
0, 0
1, 0
0, 0
0, 0
0, 0
0, 0
0, 0
0, 0
0, 0
0, 0
0, 0
0, 0
0, 0
0, 0
0, 0
1, 0
1, 0
0, 0
0, 0
0, 0
0, 0
0, 0
0, 0
0, 0
0, 0
0, 0
0, 0
0, 1
1, 0
0, 0
0, 0
0, 0
0, 0
0, 0
0, 0
0, 0
0, 0
0, 0
0, 0
0, 0
0, 0
1, 0
0, 0
0, 0
0, 0
0, 0
0, 0
0, 0
0, 0
0, 0
0, 0
0, 0
0, 0
0, 0
0, 0
0, 0
0, 0
0, 0
0, 0
0, 0
0, 0
0, 0
0, 0
0, 0
0, 0
0, 0
0, 0
0, 0
0, 0
0, 0
0, 0
0, 0
0, 0
0, 0
0, 0
0, 0
0, 0
0, 0
0, 0
0, 0
0, 0
0, 0
0, 0
0, 0
0, 0
0, 0
0, 0
0, 0
0, 0
0, 0
0, 0
0, 0
0, 0
0, 0
0, 0
0, 0
0, 0
0, 0
0, 0
0, 1
0, 0
0, 0
0, 0
0, 1
0, 0
0, 0
0, 0
0, 0
0, 0
0, 0
0, 0
0, 0
0, 0
0, 0
0, 0
0, 0
0, 0
0, 0
0, 0
0, 0
0, 0
0, 0
0, 0
0, 0
0, 0
0, 0
0, 0
0, 0
0, 0
0, 0
0, 0
0, 0
0, 0
0, 0
0, 0
0, 0
0, 0
0, 0
0, 0
0, 0
0, 0
0, 0
0, 0
0, 0
0, 0
0, 0
0, 0
0, 0
0, 0
0, 0
0, 0
0, 0
0, 0
0, 0
0, 0
0, 0
0, 0
0, 0
0, 0
0, 0
0, 0
0, 0
0, 0
0, 0
0, 0
0, 0
0, 0
0, 0
0, 0
0, 0
0, 0
0, 0
0, 0
0, 0
0, 0
0, 0
0, 0
0, 0
0, 0
0, 0
0, 0
0, 0
0, 0
0, 0
0, 0
0, 0
0, 0
0, 0
0, 0
0, 0
0, 0
0, 0
0, 0
0, 0
0, 0
0, 0
0, 0
0, 0
0, 0
0, 0
0, 0
0, 0
0, 0
0, 0
0, 0
0, 0
0, 0
0, 0
0, 0
0, 0
0, 0
0, 0
0, 0
0, 0
0, 0
0, 0
0, 0
0, 0
0, 0
0, 0
0, 0
0, 0
0, 0
0, 0
0, 0
0, 0
0, 0
0, 0
0, 0
0, 0
0, 0
0, 0
0, 0
0, 0
0, 0
0, 0
0, 0
0, 0
0, 0
0, 0
0, 0
0, 0
0, 0
0, 0
0, 0
0, 0
0, 0
0, 0
0, 0
0, 0
0, 0
0, 0
0, 0
0, 0
0, 0
0, 0
0, 0
0, 0
0, 0
0, 0
0, 0
0, 0
0, 0
0, 0
0, 0
0, 0
0, 0
0, 0
0, 0
0, 0
0, 0
0, 0
0, 0
0, 0
0, 0
0, 0
0, 0
0, 0
0, 0
0, 0
0, 0
0, 0
0, 0
0, 0
0, 0
0, 0
0, 0
0, 0
0, 0
0, 0
0, 0
0, 0
0, 0
0, 0
0, 0
0, 0
0, 0
0, 0
0, 0
0, 0
0, 0
0, 0
0, 0
0, 0
0, 0
0, 0
0, 0
0, 0
0, 0
0, 0
0, 0
0, 0
0, 0
0, 0
0, 0
0, 0
0, 0
0, 0
0, 0
0, 0
0, 0
0, 0
0, 0
0, 0
0, 0
0, 0
0, 0
0, 0
0, 0
0, 0
0, 0
0, 0
0, 0
0, 0
0, 0
0, 0
0, 0
0, 0
0, 0
0, 0
0, 0
0, 0
0, 0
0, 0
0, 0
0, 0
0, 0
0, 0
0, 0
0, 0
0, 0
0, 0
0, 0
0, 0
0, 0
0, 0
0, 0
0, 0
0, 0
0, 0
0, 0
0, 0
0, 0
0, 0
0, 0
0, 0
0, 0
0, 0
0, 0
0, 0
0, 0
0, 0
0, 0
0, 0
0, 0
0, 0
0, 0
0, 0
0, 0
0, 0
0, 0
0, 0
0, 0
0, 0
0, 0
0, 0
0, 0
0, 0
0, 0
0, 0
0, 0
0, 0
0, 0
0, 0
0, 0
0, 0
0, 0
0, 0
0, 0
0, 0
0, 0
0, 0
0, 0
0, 0
0, 0
0, 0
0, 0
0, 0
0, 0
0, 0
0, 0
0, 0
0, 0
0, 0
0, 0
0, 0
0, 0
0, 0
0, 0
0, 0
0, 0
0, 0
0, 0
0, 0
0, 0
0, 0
0, 0
0, 0
0, 0
0, 0
0, 0
0, 0
0, 0
0, 0
0, 0
0, 0
0, 0
0, 0
0, 0
0, 0
0, 0
0, 0
0, 0
0, 0
0, 0
0, 0
0, 0
0, 0
0, 0
0, 0
0, 0
0, 0
0, 0
0, 0
0, 0
0, 0
0, 0
0, 0
0, 0
0, 0
0, 0
0, 0
0, 0
0, 0
0, 0
0, 0
0, 0
0, 0
0, 0
0, 0
0, 0
0, 0
0, 0
0, 0
0, 0
0, 0
0, 0
0, 0
0, 0
0, 0
0, 0
0, 0
0, 0
0, 0
0, 0
0, 0
0, 0
0, 0
0, 0
0, 0
0, 0
0, 0
0, 0
#ENDOFDATA     end of spectrum data