File: host_upload/06-09-2024/ps_0852/dump3/ps__0852shot_2461.msa
#FORMAT      : EMSA/MAS spectral data file
#VERSION     : TC202v2.0 PIXL
#TITLE       : N/A
#DATE        :       Date in the format DD-MMM-YYYY, for example 07-JUL-2010
#TIME        :             The time of day at which the spectrum was recorded, in 24-hour format
#OWNER       : PIXL Flight Model       (PIXL will use this to indicate which instrument took the data.)
#NPOINTS     : 4096     Number of data points in the spectrum (This can be zero for configuration only files)
#NCOLUMNS    : 2     Number of data columns in the spectrum (This can be zero for configuration only files)
#XUNITS      : eV
#YUNITS      : COUNTS
#DATATYPE    : YY
#XPERCHAN    : 7.862, 7.881   eV per channel (separate by commas if more than one detector)
#OFFSET      : 18.5, -22.4         eV of first channel  (separate by commas if more than one detector
#SIGNALTYPE  : XRF
#YP_TEMP     : 2.46
#LIVETIME    : 8.57621, 8.55063   seconds (separate by commas if more than one detector)
#REALTIME    : 10, 10.0   seconds (separate by commas if more than one detector)
#SPECTRUM    : start of spectrum data
0, 0
0, 0
0, 0
0, 0
0, 0
0, 0
0, 0
0, 0
0, 0
0, 0
0, 0
0, 0
0, 0
0, 0
0, 0
0, 0
0, 0
0, 0
0, 0
0, 0
0, 0
0, 0
0, 0
0, 0
0, 0
0, 0
0, 0
0, 0
0, 0
0, 0
0, 0
0, 0
0, 0
0, 0
0, 0
0, 0
1, 0
0, 0
1, 0
0, 2
0, 1
0, 0
2, 1
2, 1
1, 1
3, 1
1, 2
2, 4
6, 10
17, 8
22, 33
29, 44
65, 54
78, 74
84, 84
84, 83
64, 55
55, 43
25, 22
18, 8
4, 7
3, 5
3, 4
1, 3
3, 0
4, 3
5, 4
7, 12
20, 15
43, 48
96, 108
160, 178
284, 314
352, 344
447, 457
448, 445
335, 341
306, 290
203, 175
127, 119
88, 66
30, 31
17, 16
6, 19
3, 6
2, 3
3, 1
1, 1
2, 0
4, 3
3, 1
0, 2
9, 3
13, 12
18, 22
37, 35
57, 56
79, 69
73, 87
93, 83
73, 66
59, 59
41, 35
29, 33
14, 15
22, 20
13, 11
14, 16
19, 17
16, 26
22, 22
33, 38
45, 39
32, 41
42, 44
39, 40
34, 36
33, 33
38, 32
25, 20
20, 21
21, 20
24, 18
14, 11
15, 17
16, 10
18, 13
10, 9
13, 6
10, 5
6, 4
6, 4
6, 2
0, 3
1, 1
1, 3
2, 2
3, 4
1, 2
4, 6
3, 4
2, 4
2, 7
2, 3
2, 4
6, 2
2, 3
1, 1
1, 3
2, 3
2, 4
9, 9
10, 9
19, 23
25, 33
41, 35
44, 47
45, 52
58, 45
52, 41
36, 30
19, 16
21, 12
13, 14
9, 8
4, 3
2, 4
8, 8
4, 11
9, 7
11, 8
11, 10
7, 12
8, 8
7, 9
6, 2
5, 7
5, 3
2, 3
2, 2
1, 2
3, 3
3, 5
3, 3
1, 3
1, 2
2, 1
3, 2
4, 6
5, 14
6, 6
10, 8
12, 15
12, 9
7, 13
15, 12
14, 13
13, 9
11, 11
14, 13
12, 9
14, 8
4, 11
7, 4
7, 8
2, 5
4, 4
5, 3
9, 5
7, 7
3, 4
9, 7
9, 8
7, 4
3, 5
4, 3
2, 5
3, 5
7, 11
7, 4
5, 6
6, 12
7, 8
8, 6
7, 12
8, 10
18, 10
28, 18
34, 7
46, 13
57, 13
78, 10
93, 8
76, 14
93, 9
71, 8
61, 6
53, 5
46, 7
29, 4
14, 11
16, 4
9, 6
9, 13
13, 15
21, 23
21, 21
38, 30
53, 49
68, 59
69, 63
99, 61
73, 48
75, 47
76, 38
59, 22
33, 21
26, 13
20, 17
25, 9
26, 21
27, 24
37, 48
74, 113
144, 211
269, 345
503, 589
820, 939
1191, 1284
1541, 1712
1991, 2062
2286, 2376
2433, 2399
2432, 2243
2019, 1964
1735, 1510
1292, 1098
927, 707
630, 456
363, 247
211, 127
97, 62
50, 27
39, 25
19, 19
18, 16
14, 21
14, 15
9, 13
9, 20
26, 31
27, 35
37, 40
50, 95
112, 109
118, 154
213, 221
255, 302
325, 338
323, 368
353, 364
356, 305
290, 294
241, 212
168, 120
126, 98
69, 64
57, 42
38, 22
19, 8
9, 8
9, 7
7, 4
3, 10
9, 6
11, 19
13, 19
10, 12
10, 14
16, 17
12, 10
11, 9
7, 5
7, 3
5, 2
3, 2
5, 2
1, 12
2, 9
5, 5
3, 9
6, 8
4, 12
5, 11
5, 10
8, 11
6, 15
8, 10
20, 11
10, 4
9, 8
3, 9
12, 10
11, 8
13, 9
9, 9
8, 7
6, 5
9, 8
9, 4
6, 4
6, 7
5, 5
8, 8
9, 4
4, 4
6, 5
7, 8
5, 4
4, 3
9, 2
4, 3
7, 4
4, 2
4, 3
8, 0
3, 1
4, 4
2, 2
5, 2
9, 5
10, 7
4, 3
8, 7
12, 5
19, 3
13, 2
10, 8
19, 5
9, 7
19, 8
14, 7
11, 3
14, 5
9, 7
10, 8
5, 9
11, 6
5, 8
4, 2
3, 4
2, 4
1, 3
3, 3
1, 2
4, 3
5, 4
5, 1
8, 5
2, 3
3, 7
0, 0
3, 5
3, 3
4, 5
5, 3
2, 6
6, 5
3, 5
3, 1
3, 5
5, 2
6, 5
6, 2
6, 9
8, 6
15, 4
13, 2
11, 6
9, 3
7, 4
7, 6
8, 5
8, 2
7, 2
2, 4
4, 3
5, 2
1, 4
4, 3
4, 0
5, 1
3, 3
2, 3
4, 3
1, 3
2, 1
2, 0
7, 1
3, 2
1, 1
2, 1
1, 3
2, 3
3, 4
3, 2
0, 1
1, 1
1, 5
1, 1
0, 1
2, 4
3, 3
5, 4
3, 2
1, 1
3, 6
7, 0
7, 3
3, 0
4, 3
3, 1
7, 2
4, 2
3, 4
5, 2
4, 2
2, 5
3, 2
5, 5
5, 1
6, 3
4, 4
4, 3
0, 4
5, 1
3, 4
3, 2
2, 1
2, 2
2, 2
1, 4
1, 2
3, 1
0, 2
5, 2
2, 3
0, 5
6, 6
5, 8
1, 13
1, 8
6, 12
5, 7
1, 4
2, 10
1, 6
3, 7
1, 2
1, 2
2, 4
0, 3
1, 1
3, 1
0, 4
2, 0
4, 5
3, 2
1, 2
1, 1
1, 1
3, 4
1, 1
1, 3
1, 2
1, 3
0, 4
0, 7
2, 0
2, 2
1, 2
2, 3
4, 4
3, 2
6, 1
2, 4
2, 2
6, 2
4, 3
1, 0
4, 0
0, 1
1, 1
3, 1
0, 3
0, 3
5, 2
2, 3
4, 4
2, 6
2, 5
2, 3
3, 5
5, 4
3, 3
4, 5
3, 3
2, 1
1, 2
2, 2
3, 5
0, 1
2, 1
4, 1
3, 1
0, 1
2, 1
3, 2
2, 1
1, 1
1, 2
1, 0
3, 2
0, 0
1, 3
1, 1
0, 2
1, 0
1, 2
2, 1
3, 2
3, 5
1, 2
3, 1
1, 1
0, 4
3, 2
1, 3
0, 2
0, 1
0, 4
1, 1
0, 0
0, 0
0, 4
1, 0
1, 1
0, 1
1, 0
2, 0
2, 0
1, 1
2, 2
0, 1
1, 1
0, 3
0, 0
1, 1
1, 2
1, 1
1, 0
0, 0
1, 2
1, 1
0, 2
0, 0
0, 0
1, 0
1, 1
0, 0
1, 1
0, 3
0, 2
0, 3
0, 3
1, 1
0, 1
0, 0
1, 2
0, 2
0, 0
0, 1
1, 0
1, 0
0, 0
0, 0
0, 1
1, 3
1, 0
1, 1
0, 2
0, 2
1, 0
2, 1
0, 1
0, 1
1, 0
1, 0
0, 3
2, 2
0, 0
0, 0
0, 2
2, 0
2, 1
1, 5
1, 1
1, 0
0, 0
1, 0
2, 0
0, 0
0, 0
0, 1
0, 1
1, 0
1, 3
1, 2
0, 0
0, 0
0, 3
0, 0
0, 0
0, 2
2, 2
0, 0
0, 3
0, 0
1, 1
1, 1
1, 0
0, 0
1, 0
0, 0
1, 1
0, 2
0, 1
1, 1
0, 0
1, 1
1, 0
0, 0
0, 0
1, 1
1, 1
2, 1
0, 0
0, 1
0, 0
0, 2
0, 0
0, 0
1, 0
2, 0
1, 0
0, 0
0, 0
0, 1
1, 0
1, 0
0, 0
3, 1
0, 1
1, 0
2, 0
0, 0
1, 0
0, 0
1, 0
1, 1
0, 0
0, 0
1, 0
0, 0
0, 0
1, 0
1, 0
0, 0
0, 0
0, 1
0, 1
1, 0
0, 0
0, 1
2, 1
0, 1
0, 0
0, 0
0, 0
0, 2
0, 0
0, 1
1, 1
0, 0
3, 0
1, 1
1, 1
0, 1
0, 0
1, 0
1, 0
0, 0
0, 1
0, 0
0, 2
0, 0
0, 0
1, 0
1, 0
1, 0
0, 0
0, 0
1, 1
0, 0
0, 0
0, 0
0, 1
0, 0
0, 1
0, 0
0, 0
0, 2
0, 1
0, 0
1, 0
0, 0
0, 0
0, 0
1, 0
0, 1
0, 0
1, 0
3, 0
1, 0
0, 0
0, 0
0, 1
0, 0
0, 0
1, 0
0, 0
0, 0
0, 0
0, 1
0, 0
1, 0
0, 0
0, 0
1, 1
0, 0
0, 0
0, 0
1, 0
0, 0
0, 1
3, 0
0, 1
1, 0
0, 0
0, 1
0, 0
1, 0
0, 0
0, 1
1, 0
0, 1
1, 0
0, 0
0, 1
0, 1
0, 0
0, 0
0, 0
0, 0
0, 0
0, 0
0, 0
0, 0
1, 0
0, 0
1, 0
1, 0
0, 0
0, 0
0, 0
1, 0
0, 0
0, 0
0, 0
0, 0
1, 1
0, 0
0, 0
0, 0
0, 0
0, 0
0, 0
0, 1
0, 0
0, 0
0, 0
0, 0
0, 0
0, 0
1, 0
0, 1
0, 0
0, 1
0, 0
1, 0
0, 1
0, 0
1, 0
0, 1
0, 0
0, 0
0, 1
0, 0
0, 0
0, 0
0, 0
0, 1
1, 0
0, 1
0, 0
0, 0
0, 0
0, 0
1, 0
0, 0
0, 0
0, 0
0, 0
0, 0
0, 0
0, 0
0, 0
0, 0
0, 0
0, 1
0, 0
0, 0
1, 0
0, 0
0, 0
0, 0
0, 0
0, 0
0, 0
0, 0
0, 0
0, 0
0, 0
0, 0
0, 0
0, 0
0, 0
0, 0
0, 0
0, 0
0, 0
0, 0
0, 0
0, 0
0, 0
0, 0
0, 0
0, 0
0, 0
0, 0
0, 1
0, 0
0, 0
0, 0
0, 0
0, 0
0, 0
0, 0
0, 0
0, 0
0, 0
0, 0
0, 0
0, 0
0, 0
0, 0
0, 0
0, 0
0, 0
0, 0
0, 0
1, 0
0, 0
0, 0
0, 0
0, 0
0, 0
0, 0
0, 0
0, 0
0, 0
0, 0
0, 0
0, 0
0, 0
0, 0
0, 0
0, 0
0, 0
0, 0
1, 0
0, 0
0, 1
0, 0
0, 0
0, 0
0, 0
0, 0
0, 0
0, 0
0, 0
0, 0
0, 0
0, 1
0, 0
0, 0
0, 0
0, 0
0, 0
1, 0
0, 0
0, 0
0, 0
0, 0
0, 0
0, 0
0, 0
0, 0
0, 0
0, 0
0, 0
0, 0
0, 0
0, 0
0, 0
1, 0
0, 0
0, 0
0, 0
0, 0
0, 0
0, 0
0, 0
0, 0
0, 0
0, 0
0, 0
0, 0
0, 0
0, 0
0, 0
0, 0
0, 0
0, 0
0, 0
0, 0
0, 0
0, 0
0, 0
0, 0
0, 0
0, 0
0, 0
0, 0
0, 0
0, 0
0, 0
0, 0
0, 0
0, 0
0, 0
0, 0
0, 0
0, 0
0, 0
0, 0
0, 0
0, 0
0, 0
0, 0
0, 0
0, 0
0, 0
0, 0
0, 0
0, 0
0, 0
0, 0
0, 0
0, 0
0, 0
0, 0
0, 0
0, 0
0, 0
0, 0
0, 0
0, 0
0, 0
0, 0
0, 0
0, 0
0, 0
0, 0
0, 0
0, 0
0, 0
0, 0
0, 0
0, 0
0, 0
0, 0
0, 0
0, 0
0, 0
0, 0
0, 0
0, 0
0, 0
0, 0
0, 0
0, 0
0, 0
0, 0
0, 0
0, 0
0, 0
0, 0
0, 0
0, 0
0, 0
0, 0
0, 0
0, 0
0, 0
0, 0
0, 0
0, 0
0, 0
0, 0
0, 0
0, 0
0, 0
0, 0
0, 0
0, 0
0, 0
0, 0
0, 0
0, 0
0, 0
0, 0
0, 0
0, 0
0, 0
0, 0
0, 0
0, 0
0, 0
1, 0
0, 0
0, 0
0, 0
0, 0
0, 0
0, 0
0, 0
0, 0
0, 0
0, 0
0, 0
0, 0
0, 0
0, 0
0, 0
0, 0
0, 0
0, 0
0, 0
0, 0
0, 0
0, 0
0, 0
0, 0
0, 0
0, 0
0, 0
0, 0
0, 0
0, 0
0, 0
0, 0
0, 0
0, 0
0, 0
0, 0
0, 0
0, 0
0, 0
0, 0
0, 0
0, 0
0, 0
0, 0
0, 0
0, 0
0, 0
0, 0
0, 0
0, 0
0, 0
0, 0
0, 0
0, 0
0, 0
0, 0
0, 0
0, 0
0, 0
0, 0
0, 0
0, 0
0, 0
0, 0
0, 0
0, 0
0, 0
0, 0
0, 0
0, 0
0, 0
0, 0
0, 0
0, 0
0, 0
0, 0
0, 0
0, 0
0, 0
0, 0
0, 0
0, 0
0, 0
0, 0
0, 0
0, 0
0, 0
0, 0
0, 0
0, 0
0, 0
0, 0
0, 0
0, 0
0, 0
0, 0
0, 0
0, 0
0, 0
0, 0
0, 0
0, 0
0, 0
0, 0
0, 0
0, 0
0, 0
0, 0
0, 0
0, 0
0, 0
0, 0
0, 0
0, 0
0, 0
0, 0
0, 0
0, 0
0, 0
0, 0
0, 0
0, 0
0, 0
0, 0
0, 0
0, 0
0, 0
0, 0
0, 0
0, 0
0, 0
0, 0
0, 0
0, 0
0, 0
0, 0
0, 0
0, 0
0, 0
0, 0
0, 0
0, 0
0, 0
0, 0
0, 0
0, 0
0, 0
0, 0
0, 0
0, 0
0, 0
0, 0
0, 0
0, 0
0, 0
0, 0
0, 0
0, 0
0, 0
0, 0
0, 0
0, 0
0, 0
0, 0
0, 0
0, 0
0, 0
0, 0
0, 0
0, 0
0, 0
0, 0
0, 0
0, 0
0, 0
0, 0
0, 0
0, 0
0, 0
0, 0
0, 0
0, 0
0, 0
0, 0
0, 0
0, 0
0, 0
0, 0
0, 0
0, 0
0, 0
0, 0
0, 0
0, 0
0, 0
0, 0
0, 0
0, 0
0, 0
0, 0
0, 0
0, 0
0, 0
0, 0
0, 0
0, 0
0, 0
0, 0
0, 0
0, 0
0, 0
0, 0
0, 0
0, 0
0, 0
0, 0
0, 0
0, 0
0, 0
0, 0
0, 0
0, 0
0, 0
0, 0
0, 0
0, 0
0, 0
0, 0
0, 0
0, 0
0, 0
0, 0
0, 0
0, 0
0, 0
0, 0
0, 0
0, 0
0, 0
0, 0
0, 0
0, 0
0, 0
0, 0
0, 0
0, 0
0, 0
0, 0
0, 0
0, 0
0, 0
0, 0
0, 0
0, 0
0, 0
0, 0
#ENDOFDATA     end of spectrum data