File: host_upload/06-09-2024/ps_0852/dump3/ps__0852shot_2069.msa
#FORMAT      : EMSA/MAS spectral data file
#VERSION     : TC202v2.0 PIXL
#TITLE       : N/A
#DATE        :       Date in the format DD-MMM-YYYY, for example 07-JUL-2010
#TIME        :             The time of day at which the spectrum was recorded, in 24-hour format
#OWNER       : PIXL Flight Model       (PIXL will use this to indicate which instrument took the data.)
#NPOINTS     : 4096     Number of data points in the spectrum (This can be zero for configuration only files)
#NCOLUMNS    : 2     Number of data columns in the spectrum (This can be zero for configuration only files)
#XUNITS      : eV
#YUNITS      : COUNTS
#DATATYPE    : YY
#XPERCHAN    : 7.862, 7.881   eV per channel (separate by commas if more than one detector)
#OFFSET      : 18.5, -22.4         eV of first channel  (separate by commas if more than one detector
#SIGNALTYPE  : XRF
#YP_TEMP     : 2.716
#LIVETIME    : 8.55336, 8.55849   seconds (separate by commas if more than one detector)
#REALTIME    : 10, 10.0   seconds (separate by commas if more than one detector)
#SPECTRUM    : start of spectrum data
0, 0
0, 0
0, 0
0, 0
0, 0
0, 0
0, 0
0, 0
0, 0
0, 0
0, 0
0, 0
0, 0
0, 0
0, 0
0, 0
0, 0
0, 0
0, 0
0, 0
0, 0
0, 0
0, 0
0, 0
0, 0
0, 0
0, 0
0, 0
0, 0
0, 0
0, 0
0, 0
0, 0
0, 1
1, 1
0, 1
0, 0
0, 2
2, 1
0, 2
1, 1
1, 0
1, 1
1, 2
2, 0
1, 0
2, 2
1, 6
6, 7
8, 13
20, 24
40, 45
48, 54
56, 85
67, 84
78, 77
66, 64
41, 47
27, 27
17, 18
8, 6
5, 5
3, 4
7, 5
6, 4
0, 3
8, 10
7, 14
16, 12
34, 44
76, 106
172, 181
259, 294
322, 380
346, 435
399, 429
321, 381
288, 312
204, 208
113, 117
72, 73
43, 39
17, 21
8, 9
6, 8
2, 2
4, 2
0, 4
1, 4
0, 2
1, 2
3, 1
1, 0
0, 1
0, 0
0, 4
3, 2
1, 2
2, 3
7, 5
4, 3
4, 3
2, 0
4, 5
7, 1
7, 3
6, 3
10, 5
9, 8
7, 8
8, 13
20, 15
17, 23
23, 24
24, 31
32, 40
19, 32
28, 30
21, 25
24, 24
16, 19
19, 11
20, 15
9, 23
13, 13
9, 9
11, 20
15, 6
10, 5
3, 6
5, 6
2, 6
2, 4
2, 1
1, 3
0, 1
3, 2
5, 2
4, 1
0, 2
2, 2
3, 2
0, 5
2, 3
2, 3
4, 7
1, 2
1, 4
0, 3
2, 3
3, 8
8, 5
7, 15
5, 9
6, 8
9, 18
8, 15
16, 21
16, 17
11, 14
9, 12
6, 9
8, 5
20, 3
12, 7
23, 4
41, 3
56, 3
49, 4
61, 4
83, 8
64, 7
56, 8
56, 5
36, 2
20, 7
12, 1
8, 2
6, 2
4, 6
4, 4
5, 1
2, 3
2, 3
2, 4
4, 4
7, 7
4, 4
2, 5
12, 8
19, 11
17, 10
24, 13
33, 13
46, 12
24, 17
30, 11
29, 15
29, 9
15, 8
17, 14
11, 8
12, 7
7, 6
8, 6
9, 10
17, 3
10, 9
10, 19
8, 12
6, 13
7, 19
9, 36
3, 35
1, 37
7, 33
6, 38
6, 8
4, 17
1, 15
7, 11
6, 10
4, 9
4, 8
8, 9
7, 12
9, 12
7, 11
14, 15
13, 15
8, 27
9, 19
8, 33
14, 28
9, 27
8, 26
6, 34
6, 28
2, 25
8, 19
5, 19
10, 14
8, 12
4, 11
14, 19
26, 23
24, 35
39, 37
48, 53
40, 50
64, 54
59, 51
50, 52
64, 49
36, 52
38, 48
23, 48
19, 63
29, 40
25, 50
18, 71
26, 71
52, 102
68, 141
169, 207
282, 409
486, 630
754, 964
1056, 1370
1595, 1821
1986, 2236
2321, 2540
2434, 2503
2347, 2330
2156, 2106
1754, 1593
1422, 1157
982, 787
624, 458
389, 251
213, 145
137, 76
64, 52
49, 32
15, 16
13, 14
11, 15
14, 19
13, 23
20, 36
14, 36
35, 51
48, 42
72, 92
86, 145
155, 170
216, 211
234, 303
331, 345
316, 355
321, 346
334, 342
279, 307
253, 200
167, 175
134, 112
91, 61
68, 41
58, 25
45, 11
37, 4
25, 4
27, 6
31, 9
27, 13
24, 14
11, 17
13, 12
16, 13
17, 9
12, 9
11, 11
6, 10
7, 7
7, 2
3, 3
2, 3
4, 3
3, 5
5, 7
6, 3
4, 4
1, 5
6, 4
9, 4
6, 5
4, 5
13, 6
8, 3
10, 2
9, 4
10, 7
9, 0
5, 4
3, 4
7, 7
5, 10
9, 5
11, 8
5, 5
7, 3
7, 4
5, 5
6, 9
5, 4
2, 5
1, 6
5, 7
5, 3
3, 6
3, 7
2, 7
3, 6
5, 2
6, 3
2, 2
2, 4
6, 12
0, 7
3, 3
10, 9
7, 3
11, 6
11, 6
8, 4
12, 5
11, 6
6, 0
21, 9
14, 4
15, 3
13, 6
4, 5
9, 4
7, 3
3, 5
6, 5
3, 5
3, 3
2, 3
1, 4
7, 9
4, 4
3, 7
1, 4
1, 3
3, 1
4, 9
3, 4
2, 3
4, 4
4, 2
2, 5
5, 5
2, 1
2, 2
2, 6
4, 4
1, 2
3, 1
2, 1
2, 5
7, 6
2, 4
6, 4
1, 3
2, 3
2, 3
5, 7
1, 4
3, 1
3, 1
2, 4
3, 3
1, 4
2, 5
3, 8
3, 11
8, 7
7, 4
0, 6
2, 3
0, 7
7, 6
5, 2
13, 4
4, 1
9, 3
11, 2
6, 3
8, 4
4, 2
16, 4
8, 4
10, 6
5, 2
6, 2
4, 4
6, 3
6, 5
0, 2
4, 3
5, 1
4, 5
0, 8
4, 2
4, 3
2, 0
3, 0
2, 3
1, 0
1, 4
2, 2
2, 1
3, 2
0, 3
1, 5
6, 3
6, 8
2, 3
3, 6
1, 3
2, 2
6, 2
1, 6
4, 3
4, 1
3, 2
3, 3
2, 5
5, 3
7, 3
10, 5
2, 0
4, 1
5, 0
4, 2
5, 1
2, 4
2, 2
1, 1
3, 3
4, 4
2, 2
2, 1
3, 1
2, 1
0, 1
3, 2
2, 1
1, 2
0, 3
3, 2
0, 3
2, 2
4, 0
1, 0
1, 5
3, 3
2, 4
3, 0
3, 5
0, 5
2, 4
2, 2
4, 1
2, 3
2, 2
2, 5
1, 3
0, 2
1, 1
3, 1
1, 1
1, 2
1, 2
0, 0
1, 2
0, 3
2, 2
1, 3
0, 6
6, 1
2, 4
2, 2
4, 2
6, 1
3, 1
3, 5
5, 2
6, 2
4, 4
5, 4
2, 4
1, 8
4, 4
3, 3
5, 5
4, 2
2, 2
5, 3
3, 1
1, 1
0, 1
3, 2
0, 4
0, 2
1, 2
1, 1
1, 3
4, 1
3, 1
1, 1
2, 1
1, 2
2, 0
3, 2
1, 0
1, 0
1, 2
2, 1
1, 4
2, 2
1, 4
1, 2
1, 0
1, 2
0, 3
1, 1
1, 3
1, 1
1, 0
3, 0
3, 0
0, 1
0, 0
2, 0
4, 1
4, 0
3, 1
3, 0
1, 1
1, 1
2, 1
1, 0
2, 2
1, 2
3, 2
2, 3
0, 0
1, 2
1, 1
0, 7
0, 1
2, 3
0, 1
1, 0
0, 1
0, 0
0, 0
4, 1
0, 0
0, 1
1, 1
0, 0
1, 0
2, 0
0, 1
3, 1
1, 1
2, 0
1, 0
1, 0
0, 1
0, 0
1, 3
0, 1
1, 0
1, 0
0, 0
0, 1
2, 3
1, 0
0, 1
2, 2
3, 2
0, 0
1, 0
2, 2
2, 1
0, 0
0, 1
0, 2
0, 1
1, 0
1, 0
1, 0
0, 2
1, 1
0, 1
0, 0
2, 0
1, 0
0, 1
0, 1
1, 0
0, 1
0, 1
1, 2
1, 0
0, 1
1, 2
0, 3
1, 1
1, 2
1, 0
0, 0
0, 0
1, 0
0, 1
1, 1
1, 0
0, 0
0, 0
1, 0
0, 4
0, 1
1, 1
0, 0
1, 1
0, 0
0, 1
0, 0
0, 0
0, 1
0, 0
0, 1
0, 0
2, 1
0, 2
1, 1
1, 0
2, 1
2, 0
2, 1
0, 0
0, 1
0, 0
1, 0
1, 0
0, 0
0, 0
0, 0
1, 0
0, 1
1, 0
1, 0
0, 0
0, 1
1, 2
1, 0
3, 0
0, 0
0, 0
0, 0
0, 0
1, 0
0, 0
2, 0
0, 1
0, 0
1, 0
0, 0
0, 1
0, 1
0, 0
0, 0
0, 0
1, 0
0, 0
1, 0
0, 0
2, 0
0, 0
0, 0
0, 1
0, 0
0, 0
0, 0
0, 0
0, 0
0, 1
0, 0
0, 0
0, 1
0, 0
0, 0
0, 0
0, 0
1, 0
0, 0
0, 0
0, 0
0, 1
0, 1
0, 0
0, 0
1, 1
0, 1
0, 0
0, 0
0, 0
0, 1
0, 0
0, 3
0, 0
0, 0
0, 1
1, 0
0, 0
0, 1
0, 0
0, 1
0, 0
0, 1
0, 1
0, 0
1, 0
0, 0
0, 0
1, 0
2, 1
0, 0
0, 0
0, 0
0, 1
1, 0
1, 0
1, 1
0, 1
0, 0
1, 1
1, 0
0, 0
0, 0
0, 0
0, 0
0, 1
0, 1
0, 0
0, 1
0, 0
0, 0
0, 0
0, 0
0, 0
0, 0
0, 0
1, 1
0, 1
0, 1
0, 1
1, 1
0, 1
0, 1
0, 0
0, 0
0, 0
0, 0
0, 0
0, 1
0, 0
0, 0
0, 0
0, 0
0, 0
0, 0
0, 0
0, 0
0, 0
0, 0
0, 1
0, 0
0, 0
0, 0
0, 0
0, 0
0, 0
0, 0
0, 0
0, 0
0, 0
0, 0
0, 0
0, 0
0, 0
0, 0
0, 0
0, 0
0, 0
0, 0
0, 0
0, 0
0, 0
0, 0
0, 0
1, 0
0, 0
0, 1
0, 0
1, 0
0, 1
0, 0
0, 1
0, 1
0, 0
0, 0
0, 0
0, 0
0, 0
0, 0
0, 0
0, 0
0, 0
0, 0
0, 0
0, 0
0, 0
1, 0
0, 0
0, 0
0, 0
1, 0
0, 0
1, 0
0, 0
0, 1
0, 1
0, 0
0, 0
0, 0
0, 0
0, 0
0, 0
0, 0
0, 0
0, 0
1, 0
0, 0
1, 0
0, 0
0, 1
0, 1
0, 0
0, 0
0, 0
0, 0
0, 0
1, 0
0, 0
0, 0
0, 0
0, 0
0, 0
0, 0
0, 0
0, 0
0, 0
0, 0
0, 0
0, 0
0, 0
0, 0
0, 0
0, 0
0, 0
0, 0
0, 0
0, 0
0, 0
0, 0
0, 0
0, 0
0, 0
0, 0
0, 0
0, 0
0, 0
0, 1
0, 0
0, 0
0, 0
0, 0
0, 0
0, 0
0, 0
0, 0
0, 0
0, 0
0, 1
0, 0
0, 0
0, 0
0, 0
0, 0
0, 0
0, 0
0, 0
0, 0
0, 0
0, 0
0, 1
0, 0
0, 0
0, 0
0, 0
0, 0
0, 1
0, 0
0, 0
0, 0
0, 1
0, 0
0, 0
0, 0
0, 0
0, 0
0, 0
0, 0
0, 0
0, 0
0, 0
0, 0
0, 0
0, 0
0, 0
0, 0
0, 0
0, 0
0, 0
1, 0
0, 0
0, 0
1, 0
0, 0
0, 0
0, 0
0, 1
0, 0
0, 0
0, 0
0, 0
0, 0
0, 0
0, 0
0, 0
0, 0
0, 0
0, 0
0, 0
0, 0
0, 0
0, 0
0, 0
0, 0
0, 0
0, 0
0, 0
0, 0
0, 0
0, 0
0, 0
0, 0
0, 0
0, 0
0, 0
0, 0
0, 0
0, 0
0, 0
0, 0
0, 0
0, 0
0, 0
0, 0
0, 0
0, 0
0, 0
0, 0
0, 0
0, 0
0, 0
0, 0
0, 0
0, 0
0, 0
0, 0
0, 1
0, 0
0, 0
0, 0
0, 0
0, 0
0, 0
0, 0
0, 0
0, 0
0, 0
0, 0
0, 0
0, 0
0, 0
0, 0
0, 0
0, 0
0, 0
0, 0
0, 0
0, 0
0, 0
0, 0
0, 0
0, 0
0, 0
0, 0
0, 0
0, 0
0, 0
0, 0
0, 0
0, 0
0, 0
0, 0
0, 0
0, 0
0, 0
0, 0
0, 0
0, 0
0, 0
0, 0
0, 0
0, 0
0, 0
0, 0
0, 0
0, 0
0, 0
0, 0
0, 0
0, 0
0, 0
0, 0
0, 0
0, 0
0, 0
0, 0
0, 0
0, 0
0, 0
0, 0
0, 0
0, 0
0, 0
0, 0
0, 0
0, 0
0, 0
0, 0
0, 0
0, 0
0, 0
0, 0
0, 0
0, 0
0, 0
0, 0
0, 0
0, 0
0, 0
0, 0
0, 0
0, 0
0, 0
0, 0
0, 0
0, 0
0, 0
0, 0
0, 0
0, 0
0, 0
0, 0
0, 0
0, 0
0, 0
0, 0
0, 0
0, 0
0, 0
0, 0
0, 0
0, 0
0, 0
0, 0
0, 0
0, 0
0, 0
0, 0
0, 0
0, 0
0, 0
0, 0
0, 0
0, 0
0, 0
0, 0
0, 0
0, 0
0, 0
0, 0
0, 0
0, 0
0, 0
0, 0
0, 0
0, 0
0, 0
0, 0
0, 0
0, 0
0, 0
0, 0
0, 0
0, 0
0, 0
0, 0
0, 0
0, 0
0, 0
0, 0
0, 0
0, 0
0, 0
0, 0
0, 0
0, 0
0, 0
0, 0
0, 0
0, 0
0, 0
0, 0
0, 0
0, 0
0, 0
0, 0
0, 0
0, 0
0, 0
0, 0
0, 0
0, 0
0, 0
0, 0
0, 0
0, 0
0, 0
0, 0
0, 0
0, 0
0, 0
0, 0
0, 0
0, 0
0, 0
0, 0
0, 0
0, 0
0, 0
0, 0
0, 0
0, 0
0, 0
0, 0
0, 0
0, 0
0, 0
0, 0
0, 0
0, 0
0, 0
0, 0
0, 0
0, 0
0, 0
0, 0
0, 0
0, 0
0, 0
0, 0
0, 0
0, 0
0, 0
0, 0
0, 0
0, 0
0, 0
0, 0
0, 0
0, 0
0, 0
0, 0
0, 0
0, 0
0, 0
0, 0
0, 0
0, 0
0, 0
0, 0
0, 0
0, 0
0, 0
0, 0
0, 0
0, 0
0, 0
0, 0
0, 0
0, 0
0, 0
0, 0
0, 0
0, 0
0, 0
0, 0
0, 0
0, 0
0, 0
0, 0
0, 0
0, 0
0, 0
0, 0
0, 0
0, 0
0, 0
0, 0
0, 0
0, 0
0, 0
0, 0
0, 0
0, 0
0, 0
0, 0
0, 0
0, 0
0, 0
0, 0
0, 0
0, 0
0, 0
0, 0
0, 0
0, 0
0, 0
0, 0
0, 0
0, 0
0, 0
0, 0
0, 0
0, 0
0, 0
0, 0
0, 0
0, 0
0, 0
0, 0
0, 0
0, 0
0, 0
0, 0
0, 0
0, 0
0, 0
0, 0
0, 0
0, 0
0, 0
0, 0
0, 0
0, 0
0, 0
0, 0
0, 0
0, 0
0, 0
0, 0
0, 0
0, 0
0, 0
0, 0
0, 0
0, 0
0, 0
0, 0
0, 0
0, 0
0, 0
0, 0
0, 0
0, 0
0, 0
#ENDOFDATA     end of spectrum data