File: host_upload/06-09-2024/ps_0852/dump3/ps__0852shot_2105.msa
#FORMAT      : EMSA/MAS spectral data file
#VERSION     : TC202v2.0 PIXL
#TITLE       : N/A
#DATE        :       Date in the format DD-MMM-YYYY, for example 07-JUL-2010
#TIME        :             The time of day at which the spectrum was recorded, in 24-hour format
#OWNER       : PIXL Flight Model       (PIXL will use this to indicate which instrument took the data.)
#NPOINTS     : 4096     Number of data points in the spectrum (This can be zero for configuration only files)
#NCOLUMNS    : 2     Number of data columns in the spectrum (This can be zero for configuration only files)
#XUNITS      : eV
#YUNITS      : COUNTS
#DATATYPE    : YY
#XPERCHAN    : 7.862, 7.881   eV per channel (separate by commas if more than one detector)
#OFFSET      : 18.5, -22.4         eV of first channel  (separate by commas if more than one detector
#SIGNALTYPE  : XRF
#YP_TEMP     : 2.235
#LIVETIME    : 8.5723, 8.5449   seconds (separate by commas if more than one detector)
#REALTIME    : 10, 10.0   seconds (separate by commas if more than one detector)
#SPECTRUM    : start of spectrum data
0, 0
0, 0
0, 0
0, 0
0, 0
0, 0
0, 0
0, 0
0, 0
0, 0
0, 0
0, 0
0, 0
0, 0
0, 0
0, 0
0, 0
0, 0
0, 0
0, 0
0, 0
0, 0
0, 0
0, 0
0, 0
0, 0
0, 0
0, 0
0, 0
0, 0
0, 0
0, 0
0, 0
0, 2
0, 1
0, 0
0, 0
0, 3
1, 1
2, 2
2, 1
0, 1
0, 2
1, 5
1, 0
3, 4
1, 1
4, 4
8, 9
12, 8
22, 23
30, 40
36, 50
46, 66
55, 85
59, 76
64, 55
38, 39
21, 11
12, 14
7, 7
4, 1
4, 4
4, 3
7, 1
3, 3
2, 13
15, 15
19, 22
50, 55
80, 124
187, 212
253, 284
330, 435
388, 457
384, 451
363, 373
275, 334
192, 212
113, 124
67, 72
41, 42
21, 18
12, 14
7, 6
5, 5
1, 4
2, 0
2, 3
1, 3
0, 1
1, 3
3, 5
5, 6
14, 15
15, 20
29, 25
22, 38
47, 41
39, 39
28, 35
33, 29
33, 22
17, 16
17, 11
21, 10
22, 12
17, 13
30, 14
30, 23
43, 27
43, 43
54, 45
37, 51
58, 54
41, 36
67, 46
46, 45
29, 31
23, 35
29, 23
23, 28
25, 21
22, 17
19, 19
14, 20
12, 8
15, 8
13, 9
8, 5
5, 3
4, 6
6, 7
5, 4
3, 2
2, 2
2, 2
5, 1
3, 2
1, 0
2, 2
3, 6
3, 2
4, 3
1, 3
1, 5
0, 3
2, 1
1, 6
7, 6
8, 11
4, 16
15, 17
22, 35
44, 47
60, 70
92, 75
80, 97
68, 101
71, 86
52, 58
32, 61
27, 23
12, 20
13, 9
12, 6
6, 3
2, 8
7, 12
8, 12
15, 17
14, 29
19, 13
9, 8
10, 12
6, 7
6, 6
6, 4
7, 7
5, 2
1, 2
2, 6
4, 5
3, 4
7, 1
2, 2
4, 2
3, 7
7, 5
8, 5
2, 14
13, 8
5, 12
11, 7
8, 16
11, 17
12, 13
5, 16
12, 15
13, 18
9, 15
12, 12
4, 5
14, 6
8, 7
11, 6
3, 3
5, 8
7, 8
8, 3
16, 9
15, 9
13, 10
14, 11
9, 12
15, 17
15, 15
10, 13
11, 11
7, 8
11, 12
4, 9
5, 6
7, 13
9, 10
13, 16
11, 11
15, 13
22, 13
20, 14
23, 17
20, 19
32, 10
21, 15
23, 9
32, 6
18, 4
12, 7
6, 5
8, 5
5, 8
16, 4
5, 12
9, 11
10, 14
18, 23
29, 21
58, 39
76, 41
94, 65
124, 67
124, 71
151, 61
117, 38
110, 37
116, 35
75, 28
59, 16
36, 15
32, 10
19, 20
26, 28
36, 47
65, 112
137, 193
244, 359
396, 570
585, 977
924, 1392
1320, 1737
1666, 2216
1901, 2443
1936, 2526
2078, 2372
1770, 2001
1501, 1613
1139, 1127
755, 701
547, 458
273, 283
158, 142
97, 87
48, 32
30, 30
22, 18
14, 18
11, 9
8, 13
14, 24
15, 17
16, 28
29, 35
41, 66
58, 112
75, 146
108, 173
159, 235
236, 298
271, 341
280, 362
312, 363
282, 336
254, 260
218, 225
134, 170
122, 99
73, 76
38, 33
43, 25
15, 11
8, 6
3, 12
7, 6
7, 15
11, 13
11, 9
14, 11
18, 13
13, 15
20, 11
16, 11
7, 10
20, 5
18, 7
12, 3
6, 4
8, 3
9, 5
8, 3
3, 4
6, 4
3, 0
1, 8
2, 6
1, 4
6, 2
3, 2
4, 2
4, 1
4, 6
1, 6
2, 2
6, 7
2, 5
9, 6
2, 4
0, 1
4, 5
9, 5
6, 8
3, 6
4, 6
3, 8
4, 5
2, 4
3, 5
5, 6
6, 5
2, 4
5, 5
2, 4
5, 2
8, 6
4, 4
1, 2
5, 3
4, 4
2, 6
2, 3
10, 9
4, 3
3, 3
8, 5
2, 2
3, 6
0, 6
4, 4
3, 5
5, 0
3, 9
2, 2
1, 4
2, 2
2, 3
2, 6
2, 3
5, 4
3, 8
4, 5
6, 8
8, 8
6, 5
9, 5
9, 6
10, 9
11, 10
7, 4
5, 2
8, 4
6, 4
4, 5
5, 4
4, 3
3, 4
0, 2
3, 5
1, 1
3, 2
2, 5
2, 2
4, 1
6, 3
0, 3
3, 3
1, 6
2, 4
3, 1
2, 0
2, 3
2, 6
3, 5
2, 4
2, 6
1, 4
8, 4
3, 6
0, 8
3, 4
3, 8
5, 7
3, 7
5, 11
1, 13
1, 8
1, 9
5, 9
0, 3
1, 3
2, 4
2, 3
2, 4
2, 4
1, 2
2, 3
5, 2
2, 4
2, 3
3, 1
0, 1
0, 2
0, 8
0, 4
1, 5
1, 4
2, 2
0, 2
1, 4
1, 7
1, 2
3, 2
2, 4
1, 7
4, 7
2, 3
4, 7
4, 2
5, 10
1, 4
1, 2
2, 4
3, 5
2, 6
3, 2
1, 5
3, 2
1, 1
1, 2
3, 2
3, 3
5, 1
0, 2
2, 2
3, 2
2, 3
0, 1
1, 2
1, 6
3, 1
5, 4
0, 2
5, 1
2, 1
0, 6
5, 5
1, 4
5, 0
0, 3
4, 3
7, 6
2, 2
7, 2
6, 1
8, 3
11, 4
10, 3
11, 2
14, 2
5, 3
6, 2
5, 2
6, 1
4, 0
2, 0
2, 3
4, 0
4, 4
3, 1
1, 0
4, 3
3, 1
3, 0
3, 4
1, 2
1, 1
0, 5
3, 3
0, 4
1, 1
0, 3
3, 3
0, 4
2, 3
1, 2
0, 4
1, 3
4, 6
3, 6
1, 10
4, 5
1, 8
1, 4
3, 9
4, 9
1, 6
2, 6
3, 6
3, 2
3, 3
0, 4
2, 2
1, 0
2, 3
2, 1
1, 2
5, 1
0, 2
1, 0
4, 1
0, 1
2, 3
1, 3
0, 2
1, 1
0, 1
0, 3
2, 1
1, 1
1, 1
0, 0
0, 2
1, 0
0, 2
1, 2
2, 2
2, 0
0, 2
2, 1
0, 3
2, 0
0, 4
1, 3
0, 2
1, 3
2, 1
1, 1
3, 1
2, 1
0, 0
1, 1
0, 2
1, 2
2, 3
0, 2
1, 3
2, 1
2, 2
0, 0
1, 1
0, 2
0, 2
3, 1
3, 0
1, 0
0, 1
0, 0
0, 2
1, 2
1, 1
2, 1
0, 0
0, 2
0, 0
1, 1
0, 1
1, 2
0, 2
3, 1
0, 0
1, 0
0, 1
0, 0
1, 0
1, 1
1, 1
0, 1
0, 0
1, 0
0, 1
0, 3
0, 2
1, 0
1, 2
1, 0
1, 1
0, 1
0, 1
0, 0
0, 0
0, 3
2, 0
2, 0
0, 1
1, 2
0, 1
0, 0
1, 0
0, 1
0, 0
2, 0
0, 0
0, 0
2, 0
1, 0
0, 1
0, 0
0, 0
0, 0
0, 0
0, 0
0, 0
1, 0
0, 0
0, 0
1, 1
1, 0
0, 0
1, 0
1, 0
1, 0
0, 1
0, 1
0, 0
0, 0
1, 1
0, 3
0, 0
0, 2
1, 1
0, 0
1, 0
0, 2
0, 0
2, 0
0, 0
0, 0
0, 1
1, 2
0, 0
0, 1
0, 1
0, 0
0, 0
0, 1
0, 2
0, 0
0, 0
1, 0
0, 0
0, 0
0, 0
1, 1
0, 0
0, 0
0, 0
1, 1
0, 0
1, 1
0, 1
0, 0
0, 1
0, 0
0, 0
0, 1
1, 0
0, 0
0, 0
1, 0
2, 0
1, 1
0, 1
0, 1
0, 0
0, 0
1, 0
0, 1
2, 0
0, 0
0, 0
2, 0
0, 0
0, 0
0, 0
1, 0
0, 0
0, 1
0, 0
0, 0
0, 1
0, 0
1, 0
0, 1
0, 0
0, 0
1, 0
0, 0
0, 0
0, 0
0, 1
0, 0
0, 0
0, 0
1, 1
0, 1
0, 0
0, 0
1, 0
1, 0
0, 0
0, 0
0, 0
1, 0
0, 0
0, 0
0, 1
0, 0
0, 0
1, 0
0, 0
0, 0
0, 0
0, 0
0, 1
0, 0
0, 0
0, 0
0, 0
0, 0
0, 0
0, 1
1, 0
0, 0
0, 0
0, 0
0, 1
0, 0
0, 1
1, 1
0, 0
2, 0
1, 0
0, 0
0, 0
0, 0
1, 0
0, 0
1, 0
0, 0
0, 0
0, 2
1, 0
0, 0
0, 0
0, 0
0, 0
0, 0
0, 1
0, 0
0, 0
0, 0
0, 2
0, 0
0, 0
0, 0
0, 0
0, 0
1, 0
1, 0
0, 1
0, 0
0, 0
1, 0
0, 0
1, 0
1, 0
0, 0
0, 1
0, 0
0, 0
0, 1
1, 0
0, 0
0, 0
0, 0
0, 0
1, 0
0, 0
0, 0
0, 0
0, 1
1, 0
0, 0
0, 0
0, 0
0, 0
0, 0
0, 0
0, 0
0, 1
0, 0
0, 0
0, 1
0, 0
0, 1
0, 0
0, 0
1, 1
1, 0
0, 0
0, 1
0, 0
1, 0
0, 0
0, 0
1, 1
0, 0
0, 0
0, 0
0, 0
0, 0
0, 0
0, 0
0, 0
0, 0
0, 0
1, 0
0, 0
0, 0
0, 0
0, 0
0, 0
0, 0
0, 0
0, 0
0, 0
0, 0
0, 0
1, 0
0, 0
0, 0
0, 0
0, 0
0, 0
0, 0
0, 0
0, 0
0, 0
1, 0
0, 0
0, 0
0, 0
0, 0
0, 1
0, 0
0, 0
0, 0
0, 0
0, 0
0, 0
0, 0
0, 0
0, 0
1, 0
0, 0
0, 0
0, 0
0, 0
1, 0
0, 0
0, 0
0, 0
0, 0
0, 0
0, 0
0, 0
0, 0
0, 0
0, 0
0, 0
0, 0
0, 0
0, 0
0, 1
0, 0
0, 0
0, 0
0, 0
0, 0
0, 0
0, 0
0, 0
0, 0
0, 0
0, 0
0, 0
1, 0
0, 0
0, 0
0, 0
0, 0
0, 0
0, 0
0, 0
0, 0
0, 0
0, 0
0, 0
1, 0
0, 0
0, 0
0, 0
0, 0
0, 0
0, 0
0, 0
0, 0
0, 0
0, 0
0, 0
0, 0
0, 0
0, 0
0, 0
0, 0
0, 0
0, 0
0, 0
0, 0
0, 0
0, 0
0, 0
0, 0
0, 0
0, 0
0, 0
0, 1
0, 0
0, 0
0, 0
0, 0
0, 0
0, 0
0, 0
0, 0
0, 0
0, 0
0, 0
0, 0
0, 0
0, 0
0, 0
0, 0
0, 0
0, 0
0, 0
0, 0
0, 0
0, 0
0, 0
0, 0
0, 0
0, 0
0, 0
0, 0
1, 0
0, 0
0, 0
0, 0
0, 0
0, 0
0, 0
0, 0
0, 0
0, 0
0, 0
0, 0
0, 1
0, 0
0, 0
0, 0
0, 0
0, 0
0, 0
0, 0
0, 0
0, 0
0, 0
0, 0
0, 0
0, 0
0, 0
0, 0
0, 0
0, 0
0, 0
0, 0
0, 0
0, 0
0, 0
0, 0
0, 0
0, 0
0, 0
0, 0
0, 0
0, 0
0, 0
0, 0
0, 0
0, 0
0, 0
0, 0
0, 0
0, 0
0, 0
0, 0
0, 0
0, 0
0, 0
0, 0
0, 0
0, 0
0, 0
0, 0
0, 0
0, 0
0, 0
0, 0
0, 0
0, 0
0, 0
0, 0
0, 0
0, 0
0, 0
0, 0
0, 0
0, 0
0, 0
0, 0
0, 0
0, 0
0, 0
0, 0
0, 0
0, 0
0, 0
0, 0
0, 0
0, 0
0, 0
0, 0
0, 0
0, 0
0, 0
0, 0
0, 0
0, 0
0, 0
0, 0
0, 0
0, 0
0, 0
0, 0
0, 0
0, 0
0, 0
0, 0
0, 0
0, 0
0, 0
0, 0
0, 0
0, 0
0, 0
0, 0
0, 0
0, 0
0, 0
0, 0
0, 0
0, 0
0, 0
0, 0
0, 0
0, 0
0, 0
0, 0
0, 0
0, 0
0, 0
0, 0
0, 0
0, 0
0, 0
0, 0
0, 0
0, 0
0, 0
0, 0
0, 0
0, 0
0, 0
0, 0
0, 0
0, 0
0, 0
0, 0
0, 0
0, 0
0, 0
0, 0
0, 0
0, 0
0, 0
0, 0
0, 0
0, 0
0, 0
0, 0
0, 0
0, 0
0, 0
0, 0
0, 0
0, 0
0, 0
0, 0
0, 0
0, 0
0, 0
0, 0
0, 0
0, 0
0, 0
0, 0
0, 0
0, 0
0, 0
0, 0
0, 0
0, 0
0, 0
0, 0
0, 0
0, 0
0, 0
0, 0
0, 0
0, 0
0, 0
0, 0
0, 0
0, 0
0, 0
0, 0
0, 0
0, 0
0, 0
0, 0
0, 0
0, 0
0, 0
0, 0
0, 0
0, 0
0, 0
0, 0
0, 0
0, 0
0, 0
0, 0
0, 0
0, 0
0, 0
0, 0
0, 0
0, 0
0, 0
0, 0
0, 0
0, 0
0, 0
0, 0
0, 0
0, 0
0, 0
0, 0
0, 0
0, 0
0, 0
0, 0
0, 0
0, 0
0, 0
0, 0
0, 0
0, 0
0, 0
0, 0
0, 0
0, 0
0, 0
0, 0
0, 0
0, 0
0, 0
0, 0
0, 0
0, 0
0, 0
0, 0
0, 0
0, 0
0, 0
0, 0
0, 0
0, 0
0, 0
0, 0
0, 0
0, 0
0, 0
0, 0
0, 0
0, 0
0, 0
0, 0
0, 0
0, 0
0, 0
0, 0
0, 0
0, 0
0, 0
0, 0
0, 0
0, 0
0, 0
0, 0
0, 0
0, 0
0, 0
0, 0
0, 0
0, 0
0, 0
0, 0
0, 0
0, 0
0, 0
0, 0
0, 0
0, 0
0, 0
0, 0
0, 0
0, 0
0, 0
0, 0
0, 0
0, 0
0, 0
0, 0
0, 0
0, 0
0, 0
0, 0
0, 0
0, 0
0, 0
0, 0
0, 0
0, 0
0, 0
0, 0
0, 0
0, 0
0, 0
0, 0
0, 0
0, 0
0, 0
0, 0
0, 0
0, 0
0, 0
0, 0
0, 0
0, 0
0, 0
0, 0
0, 0
0, 0
0, 0
0, 0
0, 0
0, 0
0, 0
0, 0
0, 0
0, 0
0, 0
0, 0
0, 0
0, 0
0, 0
0, 0
0, 0
0, 0
0, 0
0, 0
0, 0
0, 0
0, 0
0, 0
0, 0
#ENDOFDATA     end of spectrum data