File: host_upload/06-09-2024/ps_0852/dump3/ps__0852shot_2495.msa
#FORMAT      : EMSA/MAS spectral data file
#VERSION     : TC202v2.0 PIXL
#TITLE       : N/A
#DATE        :       Date in the format DD-MMM-YYYY, for example 07-JUL-2010
#TIME        :             The time of day at which the spectrum was recorded, in 24-hour format
#OWNER       : PIXL Flight Model       (PIXL will use this to indicate which instrument took the data.)
#NPOINTS     : 4096     Number of data points in the spectrum (This can be zero for configuration only files)
#NCOLUMNS    : 2     Number of data columns in the spectrum (This can be zero for configuration only files)
#XUNITS      : eV
#YUNITS      : COUNTS
#DATATYPE    : YY
#XPERCHAN    : 7.862, 7.881   eV per channel (separate by commas if more than one detector)
#OFFSET      : 18.5, -22.4         eV of first channel  (separate by commas if more than one detector
#SIGNALTYPE  : XRF
#YP_TEMP     : 2.428
#LIVETIME    : 8.55195, 8.5394   seconds (separate by commas if more than one detector)
#REALTIME    : 10, 10.0   seconds (separate by commas if more than one detector)
#SPECTRUM    : start of spectrum data
0, 0
0, 0
0, 0
0, 0
0, 0
0, 0
0, 0
0, 0
0, 0
0, 0
0, 0
0, 0
0, 0
0, 0
0, 0
0, 0
0, 0
0, 0
0, 0
0, 0
0, 0
0, 0
0, 0
0, 0
0, 0
0, 0
0, 0
0, 0
0, 0
0, 0
0, 0
0, 0
0, 0
0, 1
0, 2
0, 0
0, 1
0, 1
1, 1
0, 1
1, 0
0, 3
1, 2
2, 0
0, 0
0, 0
0, 0
0, 3
5, 3
8, 19
16, 28
29, 50
48, 64
72, 63
64, 75
55, 62
42, 51
34, 33
21, 20
14, 23
9, 5
5, 1
4, 2
6, 10
4, 11
6, 6
6, 8
4, 12
28, 18
45, 64
100, 123
178, 215
273, 325
412, 439
464, 545
458, 526
358, 465
307, 357
202, 268
134, 140
72, 79
46, 44
17, 17
13, 14
4, 7
4, 3
4, 5
0, 2
2, 4
1, 3
3, 2
2, 2
1, 3
5, 6
8, 9
19, 25
27, 27
25, 36
28, 36
42, 22
37, 31
29, 25
23, 22
10, 15
13, 10
6, 11
9, 7
20, 7
15, 16
18, 30
30, 38
28, 42
42, 51
48, 45
38, 68
34, 59
46, 45
36, 46
27, 34
21, 36
18, 29
14, 24
18, 23
14, 18
9, 21
17, 16
9, 13
11, 9
9, 6
5, 6
4, 9
0, 2
3, 2
3, 4
4, 5
3, 4
5, 4
3, 3
0, 2
4, 2
2, 2
3, 1
2, 1
4, 3
1, 9
3, 3
2, 2
1, 5
4, 6
9, 5
7, 16
22, 24
37, 40
51, 75
98, 122
118, 172
140, 214
184, 196
149, 200
161, 177
102, 131
76, 107
43, 75
27, 67
25, 62
6, 82
13, 62
14, 46
16, 43
30, 46
16, 43
22, 42
30, 23
21, 27
12, 23
14, 9
12, 6
6, 3
6, 6
10, 4
3, 1
5, 3
5, 2
7, 6
1, 7
3, 1
1, 5
5, 14
6, 16
5, 16
8, 15
16, 16
7, 18
13, 18
8, 25
13, 20
15, 20
7, 19
10, 11
13, 15
9, 11
15, 10
15, 7
14, 5
21, 5
18, 15
15, 9
8, 6
9, 4
8, 7
7, 10
3, 5
5, 10
4, 3
5, 7
2, 5
4, 7
3, 9
9, 1
6, 6
4, 8
1, 11
6, 5
8, 13
9, 12
12, 15
13, 17
11, 17
16, 17
18, 35
30, 25
23, 25
16, 25
22, 19
17, 11
12, 12
12, 10
6, 9
8, 4
8, 15
9, 3
8, 8
7, 10
11, 15
19, 13
24, 24
43, 21
52, 34
51, 46
69, 54
54, 53
54, 58
62, 68
36, 47
45, 49
47, 40
27, 30
27, 10
17, 16
17, 14
15, 18
23, 26
46, 53
72, 108
131, 169
214, 368
423, 552
661, 924
993, 1338
1329, 1768
1679, 2088
2013, 2421
2061, 2347
2009, 2303
1862, 1930
1528, 1450
1102, 1119
821, 682
527, 424
277, 250
170, 138
89, 72
43, 58
33, 26
14, 17
13, 16
11, 15
9, 13
12, 15
22, 17
14, 24
24, 40
52, 60
60, 89
93, 102
114, 155
177, 217
238, 265
264, 315
335, 342
318, 346
306, 322
281, 268
233, 170
166, 134
99, 105
84, 67
40, 49
28, 25
16, 21
8, 14
6, 16
7, 8
4, 8
10, 10
7, 12
10, 13
12, 12
11, 13
15, 15
17, 6
11, 11
11, 6
5, 15
6, 7
6, 7
2, 12
2, 5
3, 15
4, 5
3, 12
3, 11
2, 19
4, 7
1, 5
5, 9
2, 1
4, 5
2, 4
3, 9
3, 4
4, 3
4, 6
2, 8
9, 3
6, 4
6, 7
8, 7
8, 5
7, 6
13, 10
19, 9
12, 3
9, 5
11, 7
10, 3
13, 4
6, 2
4, 5
7, 4
5, 5
2, 4
2, 5
6, 7
4, 5
5, 10
5, 8
6, 10
4, 8
6, 12
5, 6
9, 7
5, 11
6, 7
7, 4
7, 5
5, 2
5, 3
7, 1
1, 3
3, 4
4, 1
1, 1
4, 4
3, 2
8, 2
4, 3
3, 2
4, 6
4, 1
3, 1
4, 4
2, 2
3, 4
3, 1
2, 3
5, 6
5, 7
6, 5
8, 4
2, 3
4, 3
4, 5
3, 3
6, 7
2, 5
6, 3
1, 1
2, 11
4, 0
4, 2
3, 2
1, 1
2, 1
4, 3
2, 3
7, 4
3, 1
5, 4
11, 2
13, 3
13, 5
14, 5
20, 2
18, 2
31, 3
31, 4
19, 10
19, 4
16, 2
24, 9
9, 1
2, 5
4, 6
4, 3
8, 11
4, 4
5, 2
2, 2
4, 0
3, 10
2, 5
1, 7
0, 3
4, 4
0, 6
2, 6
3, 4
2, 6
1, 3
3, 1
1, 2
3, 0
3, 1
3, 2
4, 4
3, 4
2, 0
4, 2
1, 2
2, 1
1, 0
1, 4
1, 2
2, 4
2, 1
4, 0
2, 1
2, 1
0, 3
1, 2
2, 5
2, 2
1, 2
0, 2
2, 1
1, 2
0, 5
5, 5
5, 3
3, 2
3, 2
7, 2
2, 0
1, 1
6, 4
7, 3
4, 4
2, 2
5, 4
4, 5
7, 2
6, 2
2, 2
6, 1
3, 2
2, 2
3, 1
6, 2
1, 4
3, 2
3, 4
3, 2
1, 1
1, 1
4, 0
2, 4
4, 1
1, 1
0, 2
1, 0
1, 2
0, 2
1, 2
1, 1
0, 2
2, 0
3, 0
0, 3
2, 7
3, 3
1, 1
3, 6
0, 6
2, 1
1, 3
4, 1
2, 3
1, 4
2, 2
5, 1
0, 3
0, 3
2, 2
1, 1
3, 4
2, 2
1, 3
0, 4
0, 4
2, 4
4, 6
3, 2
4, 1
6, 3
3, 7
4, 5
3, 3
3, 0
2, 0
1, 0
2, 3
1, 1
1, 1
1, 0
2, 2
1, 0
1, 3
0, 0
0, 3
0, 3
0, 3
3, 1
3, 2
2, 0
2, 3
2, 0
3, 5
1, 1
2, 4
2, 2
2, 3
2, 1
0, 6
2, 2
0, 3
1, 1
2, 3
0, 2
2, 4
1, 1
0, 1
1, 0
0, 2
1, 1
1, 0
0, 0
1, 1
2, 1
5, 0
0, 1
0, 0
0, 0
1, 1
0, 2
3, 2
0, 0
0, 0
1, 0
1, 3
4, 1
1, 2
0, 1
1, 2
0, 1
0, 1
1, 2
1, 5
2, 0
2, 0
1, 0
0, 1
0, 2
0, 0
1, 1
5, 1
2, 1
1, 1
1, 1
1, 0
1, 1
1, 1
0, 2
0, 0
0, 0
1, 3
1, 1
3, 0
0, 1
1, 4
1, 0
0, 0
0, 1
0, 1
1, 4
0, 1
2, 2
0, 0
0, 1
0, 0
1, 1
1, 0
1, 2
2, 2
0, 1
0, 0
1, 0
1, 0
0, 0
0, 1
0, 2
2, 5
2, 0
2, 0
0, 1
0, 0
0, 0
0, 1
0, 2
1, 0
0, 1
1, 0
1, 2
1, 0
0, 0
1, 1
0, 0
1, 1
0, 1
1, 0
1, 0
0, 0
0, 1
0, 0
0, 3
2, 0
2, 2
0, 2
1, 0
1, 3
1, 0
0, 0
1, 0
0, 1
0, 0
0, 2
0, 1
0, 0
1, 1
0, 0
0, 0
0, 0
0, 0
0, 0
0, 0
1, 2
1, 0
0, 0
1, 0
0, 0
1, 0
0, 2
0, 0
0, 0
0, 1
0, 0
0, 1
0, 0
0, 0
0, 0
0, 0
0, 0
0, 0
0, 0
1, 1
0, 0
1, 0
0, 0
1, 0
0, 0
0, 0
0, 0
0, 0
0, 0
1, 0
1, 0
0, 0
1, 0
0, 2
0, 0
1, 1
1, 0
0, 0
0, 2
2, 1
0, 0
1, 0
0, 0
1, 1
1, 0
0, 1
0, 0
0, 0
0, 1
0, 1
1, 0
0, 0
0, 0
0, 0
0, 1
2, 1
0, 1
0, 2
2, 0
0, 0
0, 0
0, 0
0, 1
0, 0
0, 0
0, 1
0, 0
1, 1
0, 0
1, 0
0, 0
0, 0
0, 0
0, 0
0, 0
0, 1
1, 0
1, 0
0, 1
1, 0
0, 1
0, 0
1, 1
0, 0
0, 0
0, 1
0, 0
1, 0
1, 0
0, 1
1, 1
0, 0
1, 0
1, 0
0, 0
0, 0
0, 0
1, 1
0, 0
0, 1
0, 0
0, 0
1, 1
0, 0
0, 0
0, 0
0, 0
0, 0
0, 0
0, 0
0, 0
1, 0
1, 0
0, 0
0, 1
0, 2
0, 0
0, 0
0, 0
0, 0
0, 0
0, 0
0, 1
0, 0
0, 0
0, 0
0, 0
0, 0
0, 1
0, 0
0, 0
0, 0
0, 0
0, 1
0, 0
1, 0
1, 0
0, 0
0, 1
0, 0
0, 1
0, 0
0, 0
1, 0
0, 0
0, 1
0, 0
0, 1
0, 1
0, 0
0, 1
0, 1
0, 1
0, 0
0, 1
0, 1
1, 1
0, 0
0, 1
0, 1
0, 0
0, 0
0, 0
0, 1
0, 0
0, 0
1, 0
0, 0
0, 0
0, 0
1, 0
0, 0
0, 0
0, 0
0, 0
0, 0
0, 0
0, 0
1, 0
0, 0
0, 0
0, 1
0, 0
0, 1
0, 0
1, 0
0, 0
0, 0
0, 0
0, 0
0, 0
0, 0
0, 0
0, 0
0, 0
0, 0
0, 0
1, 0
0, 0
0, 0
0, 0
0, 1
0, 0
0, 0
0, 0
0, 0
0, 0
0, 0
0, 0
0, 0
0, 0
0, 0
0, 0
0, 0
0, 0
0, 0
0, 0
0, 0
0, 0
0, 0
0, 1
0, 0
0, 0
0, 0
0, 1
0, 1
0, 0
0, 0
0, 0
0, 0
0, 0
0, 0
1, 0
0, 0
0, 0
0, 0
0, 0
0, 0
0, 0
0, 0
0, 0
0, 0
0, 0
0, 0
0, 0
0, 0
0, 0
0, 0
0, 0
0, 0
0, 0
0, 0
0, 0
0, 0
0, 0
0, 0
0, 0
0, 0
0, 0
0, 0
0, 0
0, 0
0, 0
0, 0
0, 0
0, 0
0, 0
0, 0
0, 0
0, 0
0, 0
0, 0
0, 0
0, 0
0, 0
0, 0
0, 0
0, 0
0, 0
0, 0
0, 0
0, 0
0, 0
0, 0
0, 0
0, 0
0, 0
0, 0
0, 0
0, 0
0, 0
0, 0
0, 0
0, 0
0, 0
0, 0
0, 0
0, 0
0, 0
0, 0
0, 0
0, 0
0, 0
0, 0
0, 0
0, 0
0, 0
0, 0
0, 0
0, 0
0, 0
0, 0
0, 0
0, 0
0, 0
0, 0
0, 0
0, 0
0, 0
0, 0
0, 0
0, 0
0, 0
0, 0
0, 0
0, 0
0, 0
0, 0
0, 0
0, 0
0, 0
0, 0
1, 1
0, 0
0, 0
0, 0
0, 0
0, 0
0, 0
0, 0
0, 0
0, 0
0, 0
0, 0
0, 0
0, 0
0, 0
0, 0
0, 0
0, 0
0, 0
0, 0
0, 0
0, 0
0, 0
0, 0
0, 0
0, 0
0, 0
0, 0
0, 0
0, 0
0, 0
0, 0
0, 0
0, 0
0, 0
0, 0
0, 0
0, 0
0, 0
0, 0
0, 0
0, 0
0, 0
0, 0
0, 0
0, 0
0, 0
0, 0
0, 0
0, 0
0, 0
0, 0
0, 0
0, 0
0, 0
0, 0
0, 0
1, 0
0, 0
0, 0
0, 0
0, 0
0, 0
0, 0
0, 0
0, 0
0, 0
0, 0
0, 0
0, 0
0, 0
0, 0
0, 0
0, 0
0, 0
0, 0
0, 0
0, 0
0, 0
0, 0
0, 0
0, 0
0, 0
0, 0
0, 0
0, 0
0, 0
0, 0
0, 0
0, 0
0, 0
0, 0
0, 0
0, 0
0, 0
0, 0
0, 0
0, 0
0, 0
0, 0
0, 0
0, 0
0, 0
0, 0
0, 0
0, 0
0, 0
0, 0
0, 0
0, 0
0, 0
0, 0
0, 0
0, 0
0, 0
0, 0
0, 0
0, 0
0, 0
0, 0
0, 0
0, 0
0, 0
0, 0
0, 0
0, 0
0, 0
0, 0
0, 0
0, 0
0, 0
0, 0
0, 0
0, 0
0, 0
0, 0
0, 0
0, 0
0, 0
0, 0
0, 0
0, 0
0, 0
0, 0
0, 0
0, 0
0, 0
0, 0
0, 0
0, 0
0, 0
0, 0
0, 0
0, 0
0, 0
0, 0
0, 0
0, 0
0, 0
0, 0
0, 0
0, 0
0, 0
0, 0
0, 0
0, 0
0, 0
0, 0
0, 0
0, 0
0, 0
0, 0
0, 0
0, 0
0, 0
0, 0
0, 0
0, 0
0, 0
0, 0
0, 0
0, 0
0, 0
0, 0
0, 0
0, 0
0, 0
0, 0
0, 0
0, 0
0, 0
0, 0
0, 0
0, 0
0, 0
0, 0
0, 0
0, 0
0, 0
0, 0
0, 0
0, 0
0, 0
0, 0
0, 0
0, 0
0, 0
0, 0
0, 0
0, 0
0, 0
0, 0
0, 0
0, 0
0, 0
0, 0
0, 0
0, 0
0, 0
0, 0
0, 0
0, 0
0, 0
0, 0
0, 0
0, 0
0, 0
0, 0
0, 0
0, 0
0, 0
0, 0
0, 0
0, 0
0, 0
0, 0
0, 0
0, 0
0, 0
0, 0
0, 0
0, 0
0, 0
0, 0
0, 0
0, 0
0, 0
0, 0
0, 0
0, 0
0, 0
0, 0
0, 0
0, 0
0, 0
0, 0
0, 0
0, 0
0, 0
0, 0
0, 0
0, 0
0, 0
0, 0
0, 0
0, 0
0, 0
0, 0
0, 0
0, 0
0, 0
0, 0
0, 0
0, 0
0, 0
0, 0
0, 0
0, 0
0, 0
0, 0
0, 0
0, 0
0, 0
0, 0
0, 0
0, 0
0, 0
0, 0
0, 0
0, 0
0, 0
0, 0
0, 0
0, 0
0, 0
0, 0
0, 0
0, 0
0, 0
0, 0
0, 0
0, 0
0, 0
0, 0
0, 0
0, 0
0, 0
0, 0
0, 0
0, 0
0, 0
0, 0
0, 0
0, 0
0, 0
0, 0
0, 0
0, 0
0, 0
0, 0
0, 0
0, 0
0, 0
0, 0
0, 0
0, 0
0, 0
0, 0
0, 0
0, 0
0, 0
0, 0
0, 0
0, 0
0, 0
0, 0
0, 0
0, 0
0, 0
#ENDOFDATA     end of spectrum data