File: host_upload/06-09-2024/ps_0852/dump3/ps__0852shot_2246.msa
#FORMAT      : EMSA/MAS spectral data file
#VERSION     : TC202v2.0 PIXL
#TITLE       : N/A
#DATE        :       Date in the format DD-MMM-YYYY, for example 07-JUL-2010
#TIME        :             The time of day at which the spectrum was recorded, in 24-hour format
#OWNER       : PIXL Flight Model       (PIXL will use this to indicate which instrument took the data.)
#NPOINTS     : 4096     Number of data points in the spectrum (This can be zero for configuration only files)
#NCOLUMNS    : 2     Number of data columns in the spectrum (This can be zero for configuration only files)
#XUNITS      : eV
#YUNITS      : COUNTS
#DATATYPE    : YY
#XPERCHAN    : 7.862, 7.881   eV per channel (separate by commas if more than one detector)
#OFFSET      : 18.5, -22.4         eV of first channel  (separate by commas if more than one detector
#SIGNALTYPE  : XRF
#YP_TEMP     : 2.011
#LIVETIME    : 8.56444, 8.57117   seconds (separate by commas if more than one detector)
#REALTIME    : 10, 10.0   seconds (separate by commas if more than one detector)
#SPECTRUM    : start of spectrum data
0, 0
0, 0
0, 0
0, 0
0, 0
0, 0
0, 0
0, 0
0, 0
0, 0
0, 0
0, 0
0, 0
0, 0
0, 0
0, 0
0, 0
0, 0
0, 0
0, 0
0, 0
0, 0
0, 0
0, 0
0, 0
0, 0
0, 0
0, 0
0, 0
0, 0
0, 0
0, 0
0, 0
0, 0
1, 0
0, 0
0, 0
0, 0
0, 0
0, 1
0, 0
0, 0
2, 1
1, 0
2, 2
5, 2
0, 3
6, 6
11, 10
18, 11
30, 22
57, 52
63, 58
68, 66
98, 94
88, 91
70, 68
51, 36
33, 28
23, 10
11, 7
2, 4
3, 3
3, 4
4, 2
7, 5
7, 7
13, 7
29, 25
47, 36
96, 97
164, 189
271, 289
346, 362
430, 434
468, 405
415, 406
302, 276
245, 187
160, 106
73, 62
40, 39
16, 21
13, 6
1, 3
6, 7
2, 3
1, 2
3, 0
1, 1
0, 1
2, 2
1, 0
0, 1
3, 2
0, 0
2, 4
2, 4
0, 4
0, 5
4, 2
6, 2
3, 3
5, 7
1, 5
3, 0
4, 5
8, 8
7, 4
12, 18
28, 11
29, 25
46, 29
46, 39
40, 36
55, 30
71, 36
49, 46
37, 28
34, 25
35, 22
24, 36
19, 28
18, 30
17, 27
18, 20
9, 17
6, 15
5, 14
2, 7
7, 3
4, 5
3, 5
1, 2
3, 3
2, 2
2, 2
4, 2
3, 0
1, 1
3, 2
5, 1
3, 3
2, 0
1, 2
1, 1
3, 5
6, 1
4, 3
1, 2
1, 3
1, 5
10, 5
4, 6
13, 8
10, 12
12, 13
17, 6
9, 14
10, 10
6, 8
14, 7
5, 5
5, 3
4, 4
2, 8
1, 2
1, 2
3, 2
7, 2
6, 6
2, 7
4, 6
7, 2
3, 6
2, 3
3, 6
2, 2
0, 2
2, 5
1, 5
2, 3
3, 4
3, 1
7, 3
6, 3
9, 4
17, 7
19, 8
30, 8
56, 10
60, 15
60, 19
69, 18
71, 16
72, 18
57, 17
39, 19
25, 25
20, 15
16, 16
11, 11
11, 8
9, 7
2, 4
5, 6
3, 7
4, 6
3, 4
3, 5
1, 9
5, 8
4, 10
6, 5
2, 6
9, 9
7, 7
9, 6
7, 6
8, 6
6, 8
12, 9
8, 6
19, 6
26, 5
17, 14
24, 16
15, 17
18, 12
25, 14
26, 17
15, 17
19, 19
11, 14
11, 23
8, 21
8, 39
12, 39
11, 47
6, 81
12, 78
8, 109
10, 114
12, 105
14, 95
25, 91
29, 89
39, 81
40, 70
57, 70
62, 65
50, 64
56, 63
55, 50
36, 34
24, 32
25, 18
29, 18
15, 14
19, 17
26, 18
17, 38
47, 52
99, 112
159, 187
259, 347
534, 605
757, 970
1177, 1364
1558, 1764
2053, 2149
2360, 2354
2537, 2411
2399, 2304
2191, 1930
1798, 1539
1364, 1139
968, 728
621, 450
356, 254
239, 141
134, 75
90, 55
55, 44
38, 52
37, 36
38, 30
18, 33
27, 21
17, 35
30, 44
32, 46
48, 53
50, 86
109, 128
122, 176
205, 221
273, 296
310, 338
368, 397
386, 381
351, 373
353, 265
279, 238
189, 170
119, 100
75, 78
49, 51
36, 27
22, 22
17, 25
6, 23
14, 30
7, 43
10, 25
17, 33
15, 40
9, 21
5, 26
7, 21
13, 8
9, 13
12, 8
5, 5
6, 4
5, 1
4, 1
3, 2
3, 7
2, 3
1, 4
5, 2
3, 7
9, 6
4, 6
9, 6
8, 4
17, 2
15, 4
19, 7
12, 8
16, 10
15, 8
9, 8
6, 7
5, 9
8, 3
6, 4
9, 6
6, 7
5, 4
7, 8
11, 1
4, 4
4, 4
6, 6
4, 1
1, 9
4, 5
4, 13
2, 6
6, 12
2, 9
4, 17
2, 19
5, 14
5, 16
7, 14
3, 7
3, 13
3, 8
3, 12
2, 4
2, 6
3, 5
5, 5
5, 3
6, 9
2, 3
2, 3
4, 4
7, 1
7, 1
1, 3
7, 2
3, 4
8, 4
5, 3
9, 2
9, 4
11, 3
9, 3
14, 7
13, 2
19, 4
19, 8
18, 3
20, 3
18, 1
21, 3
15, 1
6, 0
8, 3
7, 5
4, 4
3, 3
5, 5
8, 2
2, 3
2, 2
3, 4
2, 6
2, 2
4, 2
3, 4
3, 6
4, 6
3, 3
5, 4
3, 5
1, 1
2, 0
1, 5
6, 3
5, 3
1, 1
3, 5
3, 3
0, 5
8, 4
3, 7
2, 10
3, 6
2, 6
0, 7
2, 11
4, 5
2, 5
8, 2
1, 6
3, 3
2, 3
6, 2
3, 4
6, 2
7, 5
7, 4
7, 1
3, 2
6, 1
5, 3
7, 5
5, 4
3, 3
4, 2
3, 2
4, 6
3, 4
4, 4
3, 3
2, 4
2, 2
6, 1
3, 0
4, 2
3, 4
2, 2
2, 3
2, 3
2, 2
1, 0
2, 2
0, 1
2, 2
2, 4
3, 1
2, 2
0, 4
0, 0
2, 3
1, 2
2, 2
2, 0
1, 3
1, 0
3, 4
2, 4
2, 5
0, 2
3, 1
1, 3
2, 1
2, 3
1, 2
1, 1
2, 2
2, 2
5, 1
4, 1
3, 1
4, 6
4, 4
4, 3
2, 1
4, 1
2, 1
3, 2
2, 2
3, 2
4, 6
2, 0
3, 3
0, 6
2, 1
3, 2
1, 4
2, 2
2, 5
1, 0
4, 1
2, 2
3, 2
2, 1
3, 0
0, 1
2, 0
1, 1
1, 1
2, 0
3, 0
1, 1
0, 2
3, 3
3, 4
1, 2
3, 1
4, 1
3, 1
4, 1
6, 2
5, 3
5, 5
8, 5
1, 4
3, 8
5, 2
4, 2
3, 6
1, 4
0, 0
1, 1
1, 2
1, 5
4, 2
2, 1
2, 1
0, 2
0, 1
2, 2
2, 1
1, 0
3, 1
0, 3
2, 0
0, 3
1, 2
3, 1
4, 1
6, 2
1, 4
2, 2
3, 0
3, 2
4, 1
1, 0
1, 1
0, 0
1, 1
2, 0
1, 2
0, 2
2, 0
0, 2
1, 0
0, 1
0, 0
2, 2
0, 2
2, 0
0, 1
1, 0
2, 1
0, 1
0, 2
0, 1
1, 1
1, 1
2, 1
3, 1
0, 0
0, 2
2, 1
1, 2
1, 1
0, 0
0, 1
0, 1
1, 2
1, 1
0, 0
0, 0
1, 0
0, 1
0, 0
2, 4
1, 0
0, 0
1, 2
1, 3
0, 0
1, 0
0, 0
0, 4
0, 3
1, 0
0, 0
0, 0
0, 0
1, 1
1, 1
0, 1
0, 2
1, 2
0, 0
1, 1
2, 3
0, 2
2, 1
1, 0
1, 0
1, 0
2, 1
1, 2
0, 0
0, 1
0, 0
1, 1
0, 1
2, 0
0, 0
0, 0
1, 2
0, 1
1, 0
1, 0
1, 1
0, 1
2, 0
0, 0
2, 1
0, 0
1, 0
0, 3
3, 2
1, 0
1, 0
1, 1
1, 0
0, 0
0, 1
0, 0
1, 2
2, 0
1, 0
1, 0
1, 0
1, 0
0, 0
0, 1
1, 1
2, 0
0, 0
1, 0
1, 0
0, 0
0, 1
2, 0
0, 0
0, 0
0, 0
1, 0
1, 0
0, 1
0, 1
1, 0
0, 3
2, 0
0, 0
0, 1
0, 1
1, 0
0, 0
0, 0
0, 0
0, 0
0, 0
0, 0
1, 0
1, 1
0, 0
0, 0
0, 1
0, 0
0, 1
0, 0
0, 0
1, 0
0, 0
0, 0
1, 2
0, 0
0, 0
1, 0
1, 0
0, 0
0, 1
0, 0
0, 0
0, 2
0, 0
0, 0
0, 0
0, 1
0, 1
0, 0
0, 0
0, 0
0, 0
0, 0
0, 0
0, 0
0, 0
1, 0
0, 0
2, 1
0, 0
0, 0
0, 0
0, 1
0, 0
0, 0
0, 1
0, 1
1, 0
1, 0
0, 0
0, 0
0, 0
0, 0
1, 0
0, 1
0, 1
0, 0
0, 1
0, 0
0, 0
1, 0
0, 0
0, 0
0, 0
0, 0
0, 0
0, 0
0, 0
0, 0
1, 0
0, 0
0, 0
0, 0
0, 1
0, 0
0, 0
0, 0
1, 0
1, 0
0, 0
0, 0
0, 0
1, 0
0, 0
0, 1
0, 0
0, 1
0, 2
0, 1
0, 0
0, 0
0, 1
0, 0
0, 1
1, 0
0, 0
0, 0
0, 0
0, 0
0, 1
1, 0
1, 0
0, 1
0, 2
1, 0
1, 0
0, 0
0, 0
0, 0
0, 0
0, 0
0, 0
1, 1
0, 0
0, 0
1, 0
1, 0
0, 1
0, 0
0, 0
0, 0
0, 0
0, 1
0, 0
0, 0
0, 0
0, 1
0, 0
0, 0
1, 0
0, 0
1, 0
1, 0
0, 0
0, 0
2, 0
0, 0
0, 0
0, 0
1, 0
0, 0
0, 0
0, 1
0, 0
0, 1
1, 0
0, 0
0, 0
0, 0
0, 0
1, 0
0, 1
1, 0
1, 0
1, 0
0, 0
0, 0
0, 0
0, 0
0, 0
0, 0
0, 0
0, 0
0, 0
0, 0
1, 0
0, 0
0, 0
0, 0
0, 1
0, 0
0, 0
0, 0
0, 0
0, 0
0, 0
0, 1
0, 0
0, 0
0, 0
0, 0
0, 0
0, 0
0, 1
0, 0
0, 0
0, 0
0, 0
0, 1
0, 0
0, 0
0, 0
0, 0
0, 0
0, 1
0, 0
0, 0
0, 0
0, 0
1, 0
0, 0
1, 0
0, 0
0, 1
0, 0
0, 0
0, 0
0, 0
0, 0
0, 0
0, 0
0, 0
0, 0
0, 1
0, 0
0, 0
0, 0
0, 0
0, 0
0, 0
0, 0
0, 0
0, 0
0, 0
0, 1
0, 0
0, 0
0, 0
1, 0
0, 0
0, 0
0, 0
0, 0
0, 0
0, 0
0, 0
0, 0
0, 0
0, 0
0, 0
0, 0
0, 0
0, 0
0, 0
0, 0
0, 0
0, 0
0, 0
0, 0
0, 0
0, 0
0, 0
0, 0
0, 0
0, 0
0, 0
0, 0
0, 0
0, 0
0, 0
0, 0
0, 0
0, 0
0, 0
0, 0
0, 0
0, 0
0, 1
0, 0
0, 0
0, 0
0, 0
0, 0
0, 0
0, 0
0, 0
0, 0
0, 0
0, 0
0, 0
0, 0
0, 0
0, 0
0, 0
0, 0
0, 0
0, 0
0, 0
0, 0
0, 0
0, 0
0, 0
0, 0
0, 0
0, 0
0, 0
0, 0
0, 0
0, 0
0, 0
0, 0
0, 0
0, 0
0, 0
0, 0
0, 0
0, 0
0, 0
0, 0
0, 0
0, 0
0, 0
0, 0
0, 0
0, 0
0, 0
0, 0
0, 0
0, 0
0, 0
0, 0
0, 0
0, 0
0, 0
0, 0
0, 0
0, 0
0, 0
0, 0
0, 0
0, 0
0, 0
1, 0
0, 0
0, 0
0, 0
0, 0
0, 0
0, 0
0, 0
0, 0
0, 0
0, 0
0, 0
0, 0
0, 0
0, 0
0, 0
0, 0
0, 0
0, 0
0, 0
0, 0
0, 0
0, 0
0, 0
0, 0
0, 0
0, 0
0, 0
0, 0
0, 0
0, 0
0, 0
0, 0
0, 0
0, 0
0, 0
0, 0
0, 0
0, 0
0, 0
0, 0
0, 0
0, 0
0, 0
0, 0
0, 0
0, 0
0, 0
0, 0
0, 0
0, 0
0, 0
0, 0
0, 0
0, 0
0, 0
0, 0
0, 0
0, 0
0, 0
0, 0
0, 0
0, 0
0, 0
0, 0
0, 0
0, 0
0, 0
0, 0
0, 0
0, 0
0, 0
0, 0
0, 0
0, 0
0, 0
0, 0
0, 0
0, 0
0, 0
0, 0
0, 0
0, 0
0, 0
0, 0
0, 0
0, 0
0, 0
0, 0
0, 0
0, 0
0, 0
0, 0
0, 0
0, 0
0, 0
0, 0
0, 0
0, 0
0, 0
0, 0
0, 0
0, 0
0, 0
0, 0
0, 0
0, 0
0, 0
0, 0
0, 0
0, 0
0, 0
0, 0
0, 0
0, 0
0, 0
0, 0
0, 0
0, 0
0, 0
0, 0
0, 0
0, 0
0, 0
0, 0
0, 0
0, 0
0, 0
0, 0
0, 0
0, 0
0, 0
0, 0
0, 0
0, 0
0, 0
0, 0
0, 0
0, 0
0, 0
0, 0
0, 0
0, 0
0, 0
0, 0
0, 0
0, 0
0, 0
0, 0
0, 0
0, 0
0, 0
0, 0
0, 0
0, 0
0, 0
0, 0
0, 0
0, 0
0, 0
0, 0
0, 0
0, 0
0, 0
0, 0
0, 0
0, 0
0, 0
0, 0
0, 0
0, 0
0, 0
0, 0
0, 0
0, 0
0, 0
0, 0
0, 0
0, 0
0, 0
0, 0
0, 0
0, 0
0, 0
0, 0
0, 0
0, 0
0, 0
0, 0
0, 0
0, 0
0, 0
0, 0
0, 0
0, 0
0, 0
0, 0
0, 0
0, 0
0, 0
0, 0
0, 0
0, 0
0, 0
0, 0
0, 0
0, 0
0, 0
0, 0
0, 0
0, 0
0, 0
0, 0
0, 0
0, 0
0, 0
0, 0
0, 0
0, 0
0, 0
0, 0
0, 0
0, 0
0, 0
0, 0
0, 0
0, 0
0, 0
0, 0
0, 0
0, 0
0, 0
0, 0
0, 0
0, 0
0, 0
0, 0
0, 0
0, 0
0, 0
0, 0
0, 0
0, 0
0, 0
0, 0
0, 0
0, 0
0, 0
0, 0
0, 0
0, 0
0, 0
0, 0
0, 0
0, 0
0, 0
0, 0
0, 0
0, 0
0, 0
0, 0
0, 0
0, 0
0, 0
0, 0
0, 0
0, 0
0, 0
0, 0
0, 0
0, 0
0, 0
0, 0
0, 0
0, 0
0, 0
0, 0
0, 0
0, 0
0, 0
0, 0
0, 0
0, 0
0, 0
0, 0
0, 0
0, 0
0, 0
0, 0
0, 0
0, 0
0, 0
0, 0
0, 0
0, 0
0, 0
0, 0
0, 0
0, 0
0, 0
0, 0
0, 0
0, 0
0, 0
0, 0
0, 0
0, 0
0, 0
0, 0
0, 0
0, 0
0, 0
0, 0
0, 0
0, 0
0, 0
0, 0
0, 0
0, 0
0, 0
0, 0
0, 0
0, 0
0, 0
0, 0
0, 0
0, 0
0, 0
#ENDOFDATA     end of spectrum data