File: host_upload/06-09-2024/ps_0852/dump3/ps__0852shot_2165.msa
#FORMAT      : EMSA/MAS spectral data file
#VERSION     : TC202v2.0 PIXL
#TITLE       : N/A
#DATE        :       Date in the format DD-MMM-YYYY, for example 07-JUL-2010
#TIME        :             The time of day at which the spectrum was recorded, in 24-hour format
#OWNER       : PIXL Flight Model       (PIXL will use this to indicate which instrument took the data.)
#NPOINTS     : 4096     Number of data points in the spectrum (This can be zero for configuration only files)
#NCOLUMNS    : 2     Number of data columns in the spectrum (This can be zero for configuration only files)
#XUNITS      : eV
#YUNITS      : COUNTS
#DATATYPE    : YY
#XPERCHAN    : 7.862, 7.881   eV per channel (separate by commas if more than one detector)
#OFFSET      : 18.5, -22.4         eV of first channel  (separate by commas if more than one detector
#SIGNALTYPE  : XRF
#YP_TEMP     : 2.3
#LIVETIME    : 8.57271, 8.37379   seconds (separate by commas if more than one detector)
#REALTIME    : 10, 10.0   seconds (separate by commas if more than one detector)
#SPECTRUM    : start of spectrum data
0, 0
0, 0
0, 0
0, 0
0, 0
0, 0
0, 0
0, 0
0, 0
0, 0
0, 0
0, 0
0, 0
0, 0
0, 0
0, 0
0, 0
0, 0
0, 0
0, 0
0, 0
0, 0
0, 0
0, 0
0, 0
0, 0
0, 0
0, 0
0, 0
0, 0
0, 0
0, 0
0, 0
0, 0
0, 0
2, 0
1, 0
1, 1
0, 3
1, 2
0, 3
1, 1
2, 4
1, 2
0, 0
3, 0
2, 0
7, 5
5, 9
5, 14
19, 20
40, 38
54, 50
58, 68
67, 69
65, 47
52, 66
35, 42
20, 21
20, 12
4, 6
0, 3
5, 3
2, 1
4, 4
5, 4
8, 3
12, 8
14, 31
43, 37
73, 104
135, 165
213, 225
296, 341
364, 369
380, 408
317, 354
234, 265
178, 189
127, 120
62, 62
43, 33
18, 19
14, 11
5, 5
5, 7
3, 5
4, 6
1, 0
5, 4
4, 4
9, 7
28, 24
40, 38
79, 94
123, 140
211, 266
291, 273
288, 357
300, 356
284, 287
246, 245
161, 166
114, 116
77, 69
49, 55
39, 36
38, 33
42, 34
29, 58
45, 56
66, 70
67, 73
80, 78
64, 60
58, 69
40, 56
56, 57
40, 30
35, 42
29, 40
23, 36
28, 35
23, 26
26, 36
31, 22
17, 21
12, 23
9, 6
13, 7
5, 10
4, 2
3, 3
6, 2
6, 5
5, 7
6, 5
7, 9
9, 13
15, 16
8, 11
11, 12
14, 18
13, 9
13, 14
7, 6
7, 8
7, 4
7, 8
5, 5
7, 8
7, 15
14, 19
22, 35
26, 49
42, 65
64, 66
56, 84
60, 63
51, 78
38, 45
32, 29
16, 18
16, 21
10, 6
4, 5
6, 8
7, 7
4, 8
7, 18
13, 14
13, 14
12, 17
14, 6
14, 8
16, 5
15, 6
14, 6
17, 6
8, 5
10, 0
11, 9
15, 6
5, 4
7, 1
6, 9
2, 3
8, 7
4, 10
9, 8
8, 6
12, 7
9, 5
11, 13
14, 9
7, 9
17, 16
7, 16
13, 13
16, 16
12, 11
7, 4
10, 11
11, 7
3, 8
3, 7
3, 6
5, 9
7, 6
6, 8
8, 9
13, 11
10, 9
7, 8
10, 8
12, 17
9, 6
6, 12
10, 10
2, 9
3, 10
8, 9
7, 15
9, 13
7, 12
6, 13
11, 15
15, 19
17, 22
23, 20
17, 9
15, 11
13, 9
16, 14
18, 15
14, 9
9, 12
8, 13
7, 5
9, 10
12, 5
22, 8
23, 10
36, 18
60, 19
67, 24
77, 35
121, 47
117, 46
119, 63
119, 46
102, 49
91, 56
79, 48
68, 38
64, 35
36, 20
32, 12
27, 16
16, 16
30, 17
19, 30
37, 55
70, 96
136, 185
265, 347
384, 545
685, 833
1013, 1240
1349, 1678
1615, 2029
2033, 2201
2097, 2242
2169, 2100
1860, 1800
1519, 1477
1137, 1011
763, 691
521, 449
302, 236
188, 128
110, 76
60, 35
29, 18
17, 24
12, 16
8, 12
17, 18
12, 21
19, 22
31, 37
23, 44
35, 57
63, 83
78, 109
124, 155
186, 196
218, 254
262, 323
280, 316
331, 343
300, 311
250, 251
264, 225
178, 166
98, 108
76, 61
40, 50
35, 34
22, 33
13, 25
13, 29
5, 36
9, 26
6, 23
15, 34
12, 28
26, 23
17, 11
21, 20
8, 16
8, 9
11, 4
5, 4
3, 2
8, 11
4, 6
3, 4
3, 5
4, 3
0, 4
5, 4
3, 6
2, 1
2, 6
4, 6
3, 4
5, 4
4, 5
2, 2
1, 4
7, 3
4, 3
7, 7
5, 5
6, 7
4, 2
6, 5
8, 2
10, 8
8, 9
18, 5
10, 8
13, 9
21, 7
14, 9
15, 2
9, 4
11, 8
6, 7
7, 4
8, 6
3, 6
3, 4
1, 4
6, 4
4, 3
2, 2
4, 1
5, 6
6, 7
7, 5
6, 11
4, 0
6, 6
5, 3
4, 9
2, 7
0, 6
3, 4
3, 5
2, 7
4, 13
8, 8
7, 12
4, 7
1, 5
3, 3
6, 7
5, 4
9, 11
5, 3
8, 7
2, 4
2, 2
5, 9
5, 4
3, 7
5, 5
5, 3
1, 4
2, 2
3, 5
8, 3
2, 3
1, 2
2, 8
6, 1
4, 1
4, 3
2, 3
7, 6
4, 3
5, 4
4, 4
3, 5
7, 4
4, 3
5, 6
6, 7
5, 5
6, 5
3, 6
4, 2
6, 6
7, 9
8, 8
4, 6
1, 3
5, 11
3, 5
4, 9
5, 8
2, 5
2, 8
1, 10
4, 9
5, 6
6, 4
5, 5
3, 6
3, 7
3, 4
2, 6
3, 4
1, 5
2, 5
4, 5
1, 6
1, 7
1, 9
0, 9
0, 12
3, 2
4, 4
7, 2
1, 2
2, 2
2, 3
5, 3
1, 2
1, 1
1, 0
1, 4
6, 1
5, 4
7, 3
3, 3
3, 1
3, 2
3, 0
3, 2
1, 1
1, 7
1, 3
1, 3
2, 1
1, 5
2, 1
1, 5
2, 3
0, 2
4, 1
3, 1
1, 3
0, 2
1, 1
0, 1
3, 1
3, 0
3, 1
3, 4
1, 0
5, 1
5, 0
6, 4
5, 1
3, 3
2, 2
1, 4
2, 4
4, 4
5, 2
2, 5
3, 1
4, 3
7, 7
2, 3
1, 5
2, 6
5, 2
3, 3
1, 1
2, 0
0, 4
1, 4
2, 0
3, 4
4, 0
1, 1
2, 0
1, 2
2, 4
1, 1
2, 0
3, 2
5, 3
2, 1
4, 1
2, 2
0, 1
2, 2
4, 3
3, 2
0, 2
1, 3
5, 5
3, 4
3, 1
2, 2
2, 5
2, 4
3, 3
6, 1
6, 4
3, 1
1, 2
2, 0
2, 0
2, 3
1, 3
2, 0
1, 1
0, 3
3, 2
0, 0
1, 1
1, 2
3, 0
1, 3
3, 0
0, 2
3, 1
2, 0
1, 1
1, 2
2, 1
0, 1
2, 2
0, 4
2, 2
2, 6
1, 0
1, 3
1, 3
2, 1
0, 2
1, 2
1, 0
4, 0
2, 4
2, 0
0, 2
1, 4
0, 1
0, 1
0, 1
1, 0
3, 2
2, 2
0, 0
1, 0
0, 2
0, 2
1, 0
1, 1
2, 0
3, 0
0, 0
0, 1
1, 1
0, 0
1, 2
1, 1
2, 0
1, 3
2, 2
2, 1
0, 0
1, 0
0, 1
1, 0
0, 2
0, 0
0, 0
1, 0
0, 1
0, 0
1, 2
1, 0
0, 0
0, 0
1, 0
0, 3
0, 1
1, 0
1, 0
2, 1
1, 1
1, 1
1, 1
0, 1
0, 2
0, 0
1, 1
0, 1
0, 1
1, 1
0, 0
0, 0
1, 0
1, 1
0, 1
0, 1
0, 1
0, 1
1, 1
1, 0
3, 1
0, 2
0, 1
1, 0
0, 1
0, 2
1, 0
1, 1
0, 0
1, 1
1, 0
0, 1
0, 0
0, 1
0, 0
0, 1
0, 0
0, 0
0, 0
0, 1
0, 0
0, 0
1, 0
2, 0
1, 0
0, 1
2, 0
1, 0
0, 0
1, 2
0, 1
1, 2
0, 1
0, 1
1, 2
0, 1
0, 1
1, 0
1, 1
0, 0
0, 1
1, 0
0, 1
0, 1
0, 1
0, 0
0, 0
0, 0
0, 0
0, 1
0, 0
0, 1
0, 0
0, 1
1, 1
0, 0
1, 0
1, 0
1, 0
1, 0
0, 0
1, 0
1, 1
1, 0
0, 0
0, 0
1, 1
0, 0
0, 0
1, 1
0, 0
1, 0
0, 3
0, 1
0, 0
0, 0
0, 0
0, 1
0, 0
0, 2
0, 1
2, 0
1, 0
0, 1
0, 1
0, 1
0, 0
0, 0
0, 0
0, 0
1, 0
0, 0
0, 1
0, 0
0, 0
0, 0
0, 0
0, 0
0, 0
1, 0
0, 0
0, 0
1, 0
0, 0
0, 1
0, 0
0, 0
0, 1
0, 1
0, 0
0, 0
0, 1
0, 2
1, 0
1, 0
0, 0
0, 0
0, 0
0, 0
0, 0
0, 0
0, 0
0, 0
0, 0
1, 0
0, 0
0, 0
1, 1
0, 0
0, 0
0, 0
0, 0
0, 0
0, 0
0, 0
0, 0
1, 0
0, 0
1, 0
0, 0
0, 0
0, 0
0, 0
0, 0
0, 0
0, 0
0, 1
0, 1
0, 2
0, 0
1, 0
2, 0
0, 0
1, 0
0, 0
0, 0
0, 0
0, 2
1, 0
0, 0
0, 0
0, 1
0, 0
0, 1
0, 0
0, 0
0, 0
0, 0
1, 0
0, 0
0, 0
0, 0
1, 0
0, 0
0, 0
0, 0
0, 0
0, 0
0, 0
0, 0
0, 0
0, 0
0, 0
1, 0
0, 0
0, 0
0, 0
0, 0
0, 0
0, 0
0, 1
0, 0
0, 0
0, 0
0, 0
0, 1
0, 0
0, 0
1, 0
0, 0
1, 0
0, 0
0, 0
0, 0
0, 0
0, 0
0, 0
0, 1
0, 0
0, 0
1, 0
0, 0
0, 0
0, 0
0, 0
0, 0
0, 0
1, 0
0, 0
0, 0
0, 0
0, 0
0, 0
0, 0
0, 0
0, 0
0, 0
0, 0
0, 0
0, 0
0, 0
0, 0
0, 0
0, 0
0, 0
0, 0
0, 0
2, 0
0, 0
0, 0
0, 1
0, 0
0, 0
0, 0
0, 0
0, 0
0, 0
0, 0
0, 0
0, 0
0, 0
0, 0
0, 1
0, 0
0, 0
0, 0
0, 0
0, 0
0, 0
0, 0
0, 0
0, 0
0, 0
0, 0
0, 0
0, 0
1, 0
0, 0
0, 0
0, 0
0, 0
1, 0
0, 0
0, 0
0, 0
0, 0
0, 0
0, 0
0, 0
0, 0
0, 0
0, 0
0, 0
0, 0
0, 0
0, 0
0, 0
0, 0
0, 0
0, 0
0, 0
0, 0
0, 0
0, 1
0, 0
1, 0
0, 0
0, 0
0, 0
0, 0
1, 0
0, 0
0, 0
0, 0
0, 0
0, 0
0, 0
0, 0
0, 0
1, 0
1, 0
0, 0
0, 0
0, 0
0, 0
0, 0
0, 0
0, 0
0, 0
0, 0
0, 0
0, 0
0, 0
0, 0
0, 0
0, 0
0, 0
0, 0
0, 0
0, 0
0, 0
0, 0
1, 0
0, 0
0, 0
0, 0
0, 0
0, 0
0, 0
0, 0
0, 0
0, 0
0, 0
0, 0
0, 0
0, 0
0, 0
0, 0
0, 0
0, 0
0, 0
0, 0
0, 0
0, 0
0, 0
0, 0
0, 0
0, 0
0, 0
0, 0
0, 0
0, 0
0, 0
0, 0
0, 0
0, 0
0, 0
0, 0
0, 0
0, 0
0, 0
0, 0
0, 0
0, 0
0, 0
0, 0
0, 0
0, 0
0, 0
0, 0
0, 0
0, 0
0, 0
0, 0
0, 0
0, 0
0, 0
0, 0
0, 0
0, 0
0, 0
0, 0
0, 0
0, 0
0, 0
0, 0
0, 0
0, 0
0, 0
0, 0
0, 0
0, 0
0, 0
0, 0
0, 0
0, 0
0, 0
0, 0
0, 0
0, 0
0, 0
0, 0
0, 0
0, 0
0, 0
0, 0
0, 0
0, 0
0, 0
0, 0
0, 0
0, 0
0, 0
0, 0
0, 0
0, 0
0, 0
0, 0
0, 0
0, 0
0, 0
0, 0
0, 0
0, 0
0, 0
1, 0
0, 0
0, 0
0, 0
0, 0
0, 0
0, 0
0, 0
0, 0
0, 0
0, 0
0, 0
0, 0
0, 0
0, 0
0, 0
0, 0
0, 0
0, 0
0, 0
0, 0
0, 0
0, 0
0, 0
0, 0
0, 0
0, 0
0, 0
0, 0
0, 0
0, 0
0, 0
0, 0
0, 0
0, 0
0, 0
0, 0
0, 0
0, 0
0, 0
0, 0
0, 0
0, 0
0, 0
0, 0
0, 0
0, 0
0, 0
0, 0
0, 0
0, 0
0, 0
0, 0
0, 0
0, 0
0, 0
0, 0
0, 0
0, 0
0, 0
0, 0
0, 0
0, 0
0, 0
0, 0
0, 0
0, 0
0, 0
0, 0
0, 0
0, 0
0, 0
0, 0
0, 0
0, 0
0, 0
0, 0
0, 0
0, 0
0, 0
0, 0
0, 0
0, 0
0, 0
0, 0
0, 0
0, 0
0, 0
0, 0
0, 0
0, 0
0, 0
0, 0
0, 0
0, 0
0, 0
0, 0
0, 0
0, 0
0, 0
0, 0
0, 0
0, 0
0, 0
0, 0
0, 0
0, 0
0, 0
0, 0
0, 0
0, 0
0, 0
0, 0
0, 0
0, 0
0, 0
0, 0
0, 0
0, 0
0, 0
0, 0
0, 0
0, 0
0, 0
0, 0
0, 0
0, 0
0, 0
0, 0
0, 0
0, 0
0, 0
0, 0
0, 0
0, 0
0, 0
0, 0
0, 0
0, 0
0, 0
0, 0
0, 0
0, 0
0, 0
0, 0
0, 0
0, 0
0, 0
0, 0
0, 0
0, 0
0, 0
0, 0
0, 0
0, 0
0, 0
0, 0
0, 0
0, 0
0, 0
0, 0
0, 0
0, 0
0, 0
0, 0
0, 0
0, 0
0, 0
0, 0
0, 0
0, 0
0, 0
0, 0
0, 0
0, 0
0, 0
0, 0
0, 0
0, 0
0, 0
0, 0
0, 0
0, 0
0, 0
0, 0
0, 0
0, 0
0, 0
0, 0
0, 0
0, 0
0, 0
0, 0
0, 0
0, 0
0, 0
0, 0
0, 0
0, 0
0, 0
0, 0
0, 0
0, 0
0, 0
0, 0
0, 0
0, 0
0, 0
0, 0
0, 0
0, 0
0, 0
0, 0
0, 0
0, 0
0, 0
0, 0
0, 0
0, 0
0, 0
0, 0
0, 0
0, 0
0, 0
0, 0
0, 0
0, 0
0, 0
0, 0
0, 0
0, 0
0, 0
0, 0
0, 0
0, 0
0, 0
0, 0
0, 0
0, 0
0, 0
0, 0
0, 0
0, 0
0, 0
0, 0
0, 0
0, 0
0, 0
0, 0
0, 0
0, 0
0, 0
0, 0
0, 0
0, 0
0, 0
0, 0
0, 0
0, 0
0, 0
0, 0
0, 0
0, 0
0, 0
0, 0
0, 0
0, 0
0, 0
0, 0
0, 0
0, 0
0, 0
0, 0
0, 0
0, 0
0, 0
0, 0
0, 0
0, 0
0, 0
0, 0
0, 0
0, 0
#ENDOFDATA     end of spectrum data