File: host_upload/06-09-2024/ps_0852/dump3/ps__0852shot_2369.msa
#FORMAT      : EMSA/MAS spectral data file
#VERSION     : TC202v2.0 PIXL
#TITLE       : N/A
#DATE        :       Date in the format DD-MMM-YYYY, for example 07-JUL-2010
#TIME        :             The time of day at which the spectrum was recorded, in 24-hour format
#OWNER       : PIXL Flight Model       (PIXL will use this to indicate which instrument took the data.)
#NPOINTS     : 4096     Number of data points in the spectrum (This can be zero for configuration only files)
#NCOLUMNS    : 2     Number of data columns in the spectrum (This can be zero for configuration only files)
#XUNITS      : eV
#YUNITS      : COUNTS
#DATATYPE    : YY
#XPERCHAN    : 7.862, 7.881   eV per channel (separate by commas if more than one detector)
#OFFSET      : 18.5, -22.4         eV of first channel  (separate by commas if more than one detector
#SIGNALTYPE  : XRF
#YP_TEMP     : 2.3
#LIVETIME    : 8.5582, 8.56233   seconds (separate by commas if more than one detector)
#REALTIME    : 10, 10.0   seconds (separate by commas if more than one detector)
#SPECTRUM    : start of spectrum data
0, 0
0, 0
0, 0
0, 0
0, 0
0, 0
0, 0
0, 0
0, 0
0, 0
0, 0
0, 0
0, 0
0, 0
0, 0
0, 0
0, 0
0, 0
0, 0
0, 0
0, 0
0, 0
0, 0
0, 0
0, 0
0, 0
0, 0
0, 0
0, 0
0, 0
0, 0
0, 0
0, 0
0, 1
0, 0
0, 0
0, 1
0, 1
1, 1
0, 0
2, 1
2, 2
2, 1
3, 2
7, 1
2, 2
2, 1
0, 7
7, 5
12, 11
30, 11
53, 39
67, 63
77, 97
79, 102
88, 75
67, 75
41, 36
21, 22
21, 14
10, 7
4, 4
6, 5
3, 3
2, 4
4, 3
4, 6
9, 6
19, 18
51, 40
89, 109
185, 186
264, 284
393, 376
420, 476
431, 442
399, 339
290, 294
229, 180
142, 127
89, 74
32, 28
17, 20
11, 4
7, 3
2, 1
1, 3
0, 1
1, 6
1, 2
0, 2
1, 3
1, 2
3, 3
2, 2
3, 5
2, 6
2, 4
4, 4
5, 6
3, 4
4, 1
3, 5
5, 3
7, 6
3, 2
1, 2
10, 5
11, 8
25, 12
56, 13
75, 29
103, 33
130, 42
161, 49
171, 48
165, 40
128, 40
90, 30
81, 18
44, 31
32, 23
32, 18
21, 15
23, 14
9, 13
11, 5
9, 8
10, 3
5, 4
5, 6
2, 5
4, 6
4, 2
2, 2
1, 2
1, 0
3, 1
1, 2
1, 0
2, 2
4, 0
1, 0
0, 3
3, 2
3, 2
1, 5
1, 5
2, 1
0, 2
6, 2
2, 9
5, 16
9, 12
15, 27
19, 22
27, 27
31, 28
23, 33
24, 32
30, 24
16, 24
12, 9
7, 4
10, 4
6, 5
3, 5
10, 4
11, 4
14, 7
18, 5
19, 10
30, 13
25, 5
44, 8
46, 1
52, 1
54, 5
46, 3
40, 7
27, 3
18, 2
24, 4
14, 3
11, 1
5, 4
6, 3
8, 7
6, 8
7, 6
9, 7
6, 5
17, 12
11, 6
15, 8
17, 19
12, 26
14, 39
19, 45
21, 60
12, 61
15, 93
8, 93
12, 118
8, 96
7, 74
4, 75
5, 50
5, 34
6, 26
7, 19
6, 8
6, 8
9, 8
4, 7
5, 4
6, 5
6, 8
4, 4
9, 5
4, 8
9, 5
6, 10
8, 5
10, 12
11, 10
13, 7
12, 11
14, 15
17, 15
21, 18
29, 20
28, 9
37, 10
45, 8
41, 6
45, 4
51, 6
47, 7
43, 12
37, 4
20, 10
22, 8
17, 11
16, 14
30, 27
33, 37
43, 36
48, 57
53, 55
71, 73
65, 67
51, 60
72, 55
43, 37
46, 31
41, 26
27, 29
24, 25
20, 41
20, 49
25, 55
51, 85
81, 133
156, 211
272, 401
489, 591
728, 978
1170, 1366
1626, 1883
1957, 2123
2297, 2411
2546, 2489
2471, 2322
2075, 2007
1820, 1604
1322, 1144
920, 806
607, 488
373, 294
193, 176
105, 105
68, 69
38, 45
30, 19
35, 26
26, 17
43, 17
68, 16
87, 23
70, 31
92, 33
115, 50
118, 73
161, 126
194, 166
207, 228
257, 303
321, 331
368, 351
365, 357
349, 284
300, 276
241, 207
173, 147
147, 110
75, 65
50, 29
29, 28
16, 12
9, 13
8, 10
6, 6
11, 13
8, 13
7, 15
11, 17
8, 15
16, 13
16, 14
12, 7
10, 12
10, 5
7, 8
5, 6
3, 6
1, 2
6, 4
2, 3
4, 6
3, 6
4, 6
3, 5
2, 6
1, 5
3, 7
2, 6
6, 8
4, 3
4, 6
4, 4
4, 6
7, 8
11, 8
13, 4
18, 3
28, 5
43, 8
42, 6
53, 9
57, 7
70, 6
67, 4
73, 4
73, 3
68, 5
51, 2
35, 5
32, 0
24, 2
14, 8
12, 6
13, 4
7, 3
5, 5
8, 4
5, 6
3, 3
2, 3
2, 7
3, 9
4, 1
3, 4
4, 5
1, 7
6, 3
4, 3
5, 7
4, 5
2, 4
3, 6
3, 5
2, 1
1, 2
3, 9
2, 5
6, 4
1, 2
1, 4
4, 2
3, 1
4, 4
3, 7
1, 3
6, 4
5, 4
0, 4
3, 4
2, 3
2, 3
2, 7
3, 3
2, 7
3, 7
2, 5
3, 9
4, 4
4, 7
3, 4
3, 1
5, 6
2, 3
0, 4
4, 2
2, 2
3, 3
1, 4
2, 3
4, 4
8, 10
4, 5
1, 1
1, 6
3, 9
1, 5
2, 8
3, 4
4, 4
5, 7
1, 3
2, 3
2, 3
2, 3
5, 2
3, 3
5, 3
8, 3
3, 5
3, 1
3, 3
2, 1
1, 3
3, 8
2, 2
3, 1
1, 2
2, 0
4, 1
3, 0
2, 5
6, 2
1, 0
4, 3
1, 2
1, 3
2, 4
0, 0
1, 2
3, 1
4, 0
2, 2
5, 8
2, 2
3, 7
5, 2
3, 2
5, 5
5, 4
4, 1
3, 6
7, 2
7, 3
10, 4
4, 0
3, 1
4, 2
9, 4
6, 4
5, 2
4, 1
4, 3
0, 1
4, 5
4, 3
1, 2
1, 1
2, 1
3, 0
3, 2
2, 2
4, 0
0, 0
1, 2
5, 2
1, 3
1, 0
2, 3
0, 3
2, 1
3, 1
2, 2
3, 0
0, 4
4, 6
1, 3
3, 1
5, 2
2, 3
0, 1
0, 1
1, 2
2, 0
2, 3
2, 1
3, 0
1, 2
6, 3
3, 0
4, 1
0, 4
2, 4
0, 3
0, 0
4, 3
3, 2
4, 0
5, 2
1, 1
2, 0
2, 1
0, 3
2, 0
8, 2
2, 1
5, 3
4, 5
2, 0
3, 3
4, 7
3, 6
4, 4
3, 3
5, 9
1, 4
6, 6
4, 6
4, 4
1, 4
3, 4
2, 3
4, 7
1, 2
1, 1
0, 3
0, 6
3, 1
2, 3
3, 3
3, 2
2, 4
1, 2
1, 4
1, 2
3, 1
2, 2
2, 0
1, 1
1, 1
3, 3
2, 0
0, 1
4, 2
7, 0
3, 2
3, 1
1, 2
2, 2
1, 1
1, 2
0, 0
0, 2
0, 0
1, 1
1, 0
4, 0
0, 1
3, 2
2, 0
0, 0
0, 1
2, 0
1, 2
1, 1
2, 2
2, 2
1, 0
1, 1
1, 3
1, 1
0, 1
1, 1
1, 1
0, 3
1, 0
0, 0
1, 0
0, 1
1, 1
0, 0
1, 2
1, 1
2, 0
0, 1
2, 0
0, 2
0, 0
1, 1
1, 0
0, 0
0, 2
4, 0
1, 3
2, 1
0, 0
1, 1
0, 2
0, 0
0, 1
0, 2
1, 0
0, 0
0, 0
0, 0
0, 1
1, 1
1, 0
1, 0
0, 1
0, 0
0, 0
1, 0
0, 0
1, 0
1, 1
1, 1
0, 0
2, 0
0, 0
0, 1
2, 0
3, 1
1, 1
0, 2
1, 1
1, 0
2, 2
0, 2
0, 0
1, 0
1, 0
0, 0
0, 0
1, 1
0, 3
0, 3
2, 1
0, 1
0, 2
1, 1
0, 0
1, 1
1, 0
1, 1
0, 1
1, 1
2, 1
2, 0
1, 0
0, 0
1, 1
1, 0
2, 1
0, 1
0, 0
1, 1
0, 0
0, 0
0, 0
0, 0
2, 1
2, 0
0, 1
1, 0
0, 0
1, 1
0, 1
0, 0
1, 0
0, 2
0, 0
1, 0
0, 1
1, 0
0, 0
0, 0
0, 0
1, 0
0, 1
0, 0
0, 1
1, 0
0, 0
1, 0
1, 1
0, 0
0, 0
1, 0
0, 0
1, 0
0, 1
0, 0
0, 1
0, 0
0, 1
0, 0
1, 0
0, 0
0, 1
0, 0
0, 0
2, 0
1, 3
0, 1
0, 0
0, 0
0, 0
0, 0
0, 0
0, 0
0, 1
0, 0
0, 0
1, 0
0, 0
0, 1
0, 0
0, 1
0, 1
1, 0
0, 0
0, 0
0, 0
1, 1
0, 0
1, 0
0, 0
1, 0
0, 0
1, 3
0, 0
0, 1
0, 0
0, 0
1, 1
0, 0
0, 0
0, 0
0, 0
0, 1
1, 0
0, 0
0, 1
0, 0
2, 0
0, 0
0, 0
0, 3
1, 0
1, 0
0, 1
0, 0
1, 0
0, 1
2, 1
0, 1
0, 1
0, 0
0, 0
0, 0
0, 0
0, 0
1, 0
0, 0
0, 0
1, 0
0, 0
0, 0
0, 0
0, 0
0, 0
0, 0
1, 1
0, 1
0, 0
0, 0
1, 1
0, 1
0, 0
0, 1
0, 0
1, 0
0, 0
0, 0
0, 1
0, 1
1, 0
1, 0
0, 0
0, 0
0, 0
0, 0
0, 0
1, 0
2, 0
0, 0
0, 0
0, 1
0, 0
0, 0
0, 1
1, 0
0, 0
0, 0
0, 0
0, 0
1, 0
0, 1
0, 0
0, 0
0, 0
0, 0
0, 0
0, 0
0, 0
0, 0
0, 0
0, 1
0, 0
0, 0
0, 0
1, 0
0, 0
0, 0
0, 0
0, 0
2, 0
0, 0
0, 0
0, 0
0, 1
0, 0
0, 0
0, 0
0, 0
0, 0
0, 1
0, 0
0, 0
0, 0
0, 0
0, 0
0, 0
0, 0
0, 0
0, 1
0, 0
1, 0
0, 0
0, 0
0, 0
0, 0
0, 0
0, 0
0, 0
0, 0
0, 0
0, 0
0, 0
1, 0
0, 0
0, 0
0, 0
0, 0
0, 0
0, 0
0, 0
0, 0
0, 0
0, 1
0, 0
0, 0
0, 0
0, 0
0, 0
0, 0
0, 0
0, 0
0, 0
0, 0
0, 0
0, 0
0, 0
0, 0
0, 0
1, 0
1, 0
0, 0
1, 0
0, 1
0, 0
0, 0
0, 0
0, 0
0, 0
0, 0
0, 0
0, 0
0, 0
0, 0
0, 0
0, 0
0, 0
0, 0
0, 0
0, 0
0, 0
1, 1
0, 0
0, 0
0, 0
0, 0
0, 1
0, 0
0, 0
0, 0
0, 0
0, 0
0, 0
0, 0
0, 0
0, 0
0, 0
0, 0
0, 0
0, 0
0, 0
1, 1
0, 0
0, 0
0, 0
0, 0
0, 0
0, 0
0, 1
0, 0
0, 0
0, 0
0, 0
0, 0
0, 0
0, 0
0, 0
0, 0
0, 0
0, 0
0, 0
0, 0
0, 0
0, 0
0, 0
0, 0
1, 0
0, 0
0, 0
0, 0
0, 0
0, 0
0, 0
0, 0
0, 0
0, 0
0, 0
0, 0
0, 0
0, 0
0, 0
0, 0
0, 0
0, 0
0, 0
0, 0
0, 0
0, 0
0, 0
0, 0
0, 0
0, 0
0, 0
0, 0
0, 0
0, 0
0, 0
0, 0
0, 0
0, 0
0, 0
0, 0
0, 0
0, 0
0, 0
0, 0
0, 0
0, 0
1, 0
0, 0
0, 0
0, 0
0, 0
0, 0
0, 0
0, 0
0, 0
0, 0
0, 0
0, 0
0, 0
0, 0
0, 0
0, 0
0, 0
0, 0
0, 0
0, 0
0, 0
0, 0
0, 0
0, 0
0, 0
0, 0
0, 0
0, 0
0, 0
0, 0
0, 0
0, 0
0, 0
0, 0
0, 0
0, 0
0, 0
0, 0
0, 0
0, 0
0, 0
0, 0
0, 0
0, 0
0, 0
0, 0
0, 0
0, 0
0, 0
0, 0
0, 0
0, 0
0, 0
0, 0
0, 0
0, 0
0, 0
0, 0
0, 0
0, 0
0, 0
0, 0
0, 0
0, 0
0, 0
0, 0
0, 0
0, 0
0, 0
0, 0
0, 0
0, 0
0, 0
0, 0
0, 0
0, 0
0, 0
0, 0
0, 0
0, 0
0, 0
0, 0
0, 0
0, 0
0, 0
0, 0
0, 0
0, 0
0, 0
0, 0
0, 0
0, 0
0, 0
0, 0
0, 0
0, 0
0, 0
0, 0
0, 0
0, 0
0, 0
0, 0
0, 0
0, 0
0, 0
0, 0
0, 0
0, 0
0, 0
0, 0
0, 0
0, 0
0, 0
0, 0
0, 0
0, 0
0, 0
0, 0
0, 0
0, 0
0, 0
0, 0
0, 0
0, 0
0, 0
0, 0
0, 0
0, 0
0, 0
0, 0
0, 0
0, 0
0, 0
0, 0
0, 0
0, 0
0, 0
0, 0
0, 0
0, 0
0, 0
0, 0
0, 0
0, 0
0, 0
0, 0
0, 0
0, 0
0, 0
0, 0
0, 0
0, 0
0, 0
0, 0
0, 0
0, 0
0, 0
0, 0
0, 0
0, 0
0, 0
0, 0
0, 0
0, 0
0, 0
0, 0
0, 0
0, 0
0, 0
0, 0
0, 0
0, 0
0, 0
0, 0
0, 0
0, 0
0, 0
0, 0
0, 0
0, 0
0, 0
0, 0
0, 0
0, 0
0, 0
0, 0
0, 0
0, 0
0, 0
0, 0
0, 0
0, 0
0, 0
0, 0
0, 0
0, 0
0, 0
0, 0
0, 0
0, 0
0, 0
0, 0
0, 0
0, 0
0, 0
0, 0
0, 0
0, 0
0, 0
0, 0
0, 0
0, 0
0, 0
0, 0
0, 0
0, 0
0, 0
0, 0
0, 0
0, 0
0, 0
0, 0
0, 0
0, 0
0, 0
0, 0
0, 0
0, 0
0, 0
0, 0
0, 0
0, 0
0, 0
0, 0
0, 0
0, 0
0, 0
0, 0
0, 0
0, 0
0, 0
0, 0
0, 0
0, 0
0, 0
0, 0
0, 0
0, 0
0, 0
0, 0
0, 0
0, 0
0, 0
0, 0
0, 0
0, 0
0, 0
0, 0
0, 0
0, 0
0, 0
0, 0
0, 0
0, 0
0, 0
0, 0
0, 0
0, 0
0, 0
0, 0
0, 0
0, 0
0, 0
0, 0
0, 0
0, 0
0, 0
0, 0
0, 0
0, 0
0, 0
0, 0
0, 0
0, 0
0, 0
0, 0
0, 0
0, 0
0, 0
0, 0
0, 0
0, 0
0, 0
0, 0
0, 0
0, 0
0, 0
0, 0
0, 0
0, 0
0, 0
0, 0
0, 0
0, 0
0, 0
0, 0
0, 0
0, 0
0, 0
0, 0
0, 0
0, 0
0, 0
0, 0
0, 0
0, 0
0, 0
0, 0
0, 0
0, 0
0, 0
0, 0
0, 0
0, 0
0, 0
0, 0
0, 0
0, 0
0, 0
0, 0
0, 0
0, 0
0, 0
0, 0
0, 0
0, 0
0, 0
0, 0
0, 0
0, 0
0, 0
0, 0
0, 0
#ENDOFDATA     end of spectrum data