File: host_upload/06-09-2024/ps_0852/dump3/ps__0852shot_2580.msa
#FORMAT      : EMSA/MAS spectral data file
#VERSION     : TC202v2.0 PIXL
#TITLE       : N/A
#DATE        :       Date in the format DD-MMM-YYYY, for example 07-JUL-2010
#TIME        :             The time of day at which the spectrum was recorded, in 24-hour format
#OWNER       : PIXL Flight Model       (PIXL will use this to indicate which instrument took the data.)
#NPOINTS     : 4096     Number of data points in the spectrum (This can be zero for configuration only files)
#NCOLUMNS    : 2     Number of data columns in the spectrum (This can be zero for configuration only files)
#XUNITS      : eV
#YUNITS      : COUNTS
#DATATYPE    : YY
#XPERCHAN    : 7.862, 7.881   eV per channel (separate by commas if more than one detector)
#OFFSET      : 18.5, -22.4         eV of first channel  (separate by commas if more than one detector
#SIGNALTYPE  : XRF
#YP_TEMP     : 2.492
#LIVETIME    : 8.56822, 8.5542   seconds (separate by commas if more than one detector)
#REALTIME    : 10, 10.0   seconds (separate by commas if more than one detector)
#SPECTRUM    : start of spectrum data
0, 0
0, 0
0, 0
0, 0
0, 0
0, 0
0, 0
0, 0
0, 0
0, 0
0, 0
0, 0
0, 0
0, 0
0, 0
0, 0
0, 0
0, 0
0, 0
0, 0
0, 0
0, 0
0, 0
0, 0
0, 0
0, 0
0, 0
0, 0
0, 0
0, 0
0, 0
0, 0
0, 0
1, 0
0, 0
1, 0
0, 0
0, 1
0, 0
0, 2
2, 0
1, 2
0, 0
2, 2
2, 2
2, 1
1, 2
2, 0
10, 4
9, 18
23, 21
40, 40
83, 58
81, 74
97, 80
78, 90
66, 59
42, 33
24, 23
14, 11
22, 7
6, 2
2, 4
5, 3
2, 0
2, 4
2, 6
10, 10
19, 31
48, 39
102, 81
187, 183
313, 290
369, 330
414, 442
425, 406
424, 376
313, 303
191, 209
135, 129
52, 75
43, 38
24, 19
6, 9
7, 5
4, 2
2, 3
2, 2
1, 2
1, 2
1, 0
1, 3
2, 1
1, 1
1, 5
5, 2
3, 6
7, 2
7, 10
0, 8
7, 5
12, 9
3, 11
9, 6
7, 4
7, 11
7, 9
5, 8
11, 11
11, 10
27, 19
37, 34
33, 46
41, 53
67, 75
76, 78
68, 75
62, 74
52, 52
39, 43
28, 31
33, 29
30, 30
24, 16
19, 8
20, 11
15, 14
11, 18
8, 10
11, 4
4, 5
6, 4
5, 2
2, 4
3, 4
2, 6
3, 2
0, 4
5, 5
0, 5
1, 4
2, 1
1, 2
1, 2
2, 2
2, 1
4, 4
2, 4
6, 6
3, 1
2, 3
9, 9
7, 9
16, 17
18, 17
18, 20
27, 27
20, 27
28, 19
23, 27
19, 18
14, 18
12, 13
17, 8
9, 4
7, 4
8, 15
10, 15
8, 11
9, 27
3, 21
5, 9
8, 11
11, 10
13, 5
12, 6
7, 8
12, 16
10, 7
11, 8
11, 3
6, 8
8, 13
8, 6
12, 3
13, 5
8, 2
2, 9
7, 2
13, 4
16, 8
10, 11
9, 10
13, 10
13, 13
20, 18
13, 23
16, 19
26, 18
11, 20
12, 22
14, 15
14, 16
14, 8
14, 15
4, 20
7, 20
6, 18
4, 20
4, 16
8, 18
7, 9
4, 7
6, 5
7, 13
10, 13
7, 7
1, 8
4, 13
8, 9
11, 6
9, 5
3, 7
11, 11
14, 9
20, 8
17, 8
24, 13
19, 23
35, 18
20, 12
20, 31
26, 22
13, 14
16, 12
19, 11
13, 10
14, 9
13, 12
11, 11
8, 15
13, 18
14, 12
15, 16
16, 27
20, 29
27, 39
42, 52
52, 68
47, 51
61, 73
62, 74
72, 56
58, 42
41, 32
31, 31
17, 25
22, 29
28, 18
15, 20
21, 18
32, 32
47, 50
98, 101
161, 191
288, 379
508, 628
779, 945
1200, 1361
1550, 1795
2123, 2194
2437, 2479
2514, 2554
2493, 2348
2134, 2020
1780, 1535
1280, 1128
914, 692
579, 463
290, 256
175, 129
101, 73
63, 37
28, 21
22, 26
23, 16
31, 17
13, 16
23, 18
18, 18
16, 24
34, 45
58, 53
67, 74
105, 121
142, 192
193, 247
266, 289
335, 333
355, 360
359, 369
338, 352
314, 298
268, 243
196, 182
125, 131
91, 99
43, 65
32, 64
25, 69
12, 58
15, 46
10, 36
7, 38
10, 34
16, 34
19, 23
14, 17
16, 16
18, 17
16, 16
11, 20
13, 6
8, 11
15, 9
5, 6
10, 9
5, 5
9, 5
9, 4
1, 6
6, 3
4, 4
5, 2
1, 2
1, 8
3, 5
5, 4
6, 13
3, 6
5, 3
4, 5
3, 10
3, 3
2, 10
7, 12
5, 9
8, 12
11, 16
8, 13
7, 6
3, 14
2, 10
3, 2
10, 10
5, 13
3, 10
3, 1
7, 5
5, 5
8, 6
6, 5
10, 3
5, 3
7, 3
5, 7
5, 3
6, 6
6, 5
4, 2
9, 7
3, 7
6, 4
5, 6
2, 4
2, 5
4, 6
2, 3
7, 6
4, 5
5, 1
4, 7
4, 6
2, 6
5, 2
3, 1
5, 5
6, 8
2, 6
3, 5
3, 4
2, 1
6, 4
2, 4
2, 4
2, 1
3, 4
2, 3
5, 11
8, 2
3, 8
7, 6
2, 6
10, 9
9, 5
5, 8
8, 5
7, 9
6, 2
9, 7
3, 4
5, 7
3, 7
9, 7
2, 2
3, 3
6, 6
3, 2
7, 3
2, 3
3, 5
2, 1
5, 2
6, 5
3, 6
3, 6
2, 1
4, 3
2, 2
2, 3
7, 0
2, 3
6, 3
1, 6
0, 2
4, 3
5, 1
5, 6
1, 2
2, 1
2, 8
1, 2
6, 3
4, 1
5, 3
7, 2
2, 2
9, 1
3, 5
3, 2
3, 5
6, 2
6, 2
4, 0
1, 3
3, 5
3, 3
2, 2
0, 2
3, 5
2, 2
2, 4
6, 4
1, 2
1, 1
3, 1
2, 0
0, 2
4, 0
2, 2
3, 2
1, 1
6, 1
3, 8
4, 4
3, 2
2, 5
0, 6
0, 1
1, 4
4, 1
5, 1
3, 2
4, 2
1, 2
1, 2
4, 3
2, 4
2, 6
5, 4
5, 5
5, 2
3, 4
1, 5
1, 3
5, 2
3, 4
1, 3
3, 5
2, 4
4, 5
2, 1
0, 6
0, 4
3, 2
2, 8
3, 1
1, 1
0, 4
3, 4
1, 1
1, 1
3, 1
2, 3
0, 3
3, 2
1, 2
1, 1
0, 1
4, 2
1, 1
5, 1
1, 4
2, 2
4, 0
2, 3
1, 2
1, 3
2, 1
3, 1
1, 1
1, 2
1, 1
1, 2
0, 1
3, 2
6, 2
2, 3
6, 2
5, 6
6, 4
7, 0
3, 2
6, 3
5, 2
6, 3
5, 1
2, 8
2, 2
3, 4
2, 2
2, 2
2, 0
2, 0
3, 1
0, 1
1, 4
4, 2
0, 2
3, 2
1, 0
0, 1
2, 1
1, 2
1, 1
1, 3
0, 1
4, 3
1, 1
4, 2
2, 3
0, 4
3, 1
3, 2
2, 2
2, 2
5, 3
1, 1
3, 2
1, 2
2, 1
3, 1
0, 0
1, 1
0, 1
1, 0
2, 2
0, 1
1, 0
0, 3
3, 0
0, 2
0, 2
0, 5
4, 1
1, 2
0, 0
3, 1
1, 2
0, 3
0, 3
1, 1
0, 2
1, 1
1, 1
0, 0
0, 0
0, 1
0, 1
1, 2
1, 1
0, 2
1, 1
1, 0
0, 1
0, 0
1, 3
2, 1
2, 0
1, 1
0, 1
1, 0
0, 0
1, 1
3, 0
1, 0
2, 0
1, 0
1, 0
1, 1
2, 1
1, 0
2, 0
1, 0
4, 0
1, 1
0, 2
0, 0
2, 1
1, 0
1, 0
0, 1
1, 0
2, 0
1, 2
1, 1
0, 1
1, 2
0, 2
0, 0
1, 0
0, 0
0, 1
0, 0
1, 1
2, 0
1, 1
0, 1
0, 2
0, 0
0, 1
1, 0
1, 1
1, 1
0, 0
1, 0
0, 0
0, 0
0, 2
1, 0
0, 1
1, 1
2, 0
0, 0
2, 0
0, 0
5, 0
1, 1
0, 0
1, 0
0, 1
0, 0
0, 2
1, 1
0, 0
1, 1
1, 0
0, 0
1, 0
1, 1
2, 0
0, 0
1, 0
0, 2
0, 1
0, 0
1, 1
0, 1
0, 1
0, 1
0, 0
0, 0
1, 0
1, 0
1, 1
1, 0
0, 0
0, 1
0, 0
0, 0
0, 0
1, 1
0, 0
0, 0
0, 1
0, 0
1, 0
1, 1
1, 0
0, 1
0, 0
0, 0
0, 0
1, 0
0, 0
1, 0
2, 0
0, 0
0, 0
2, 0
0, 0
2, 1
0, 0
0, 0
2, 1
0, 0
0, 1
2, 0
0, 3
0, 0
0, 1
0, 0
1, 0
1, 0
1, 0
0, 0
1, 0
0, 0
0, 0
0, 0
0, 0
0, 0
0, 0
0, 1
1, 0
0, 0
1, 0
0, 0
0, 0
0, 0
1, 2
0, 0
0, 0
0, 0
0, 0
0, 0
1, 0
1, 1
0, 0
0, 0
0, 0
0, 0
0, 1
0, 0
1, 0
0, 0
0, 1
0, 0
0, 0
0, 0
1, 1
1, 0
1, 2
0, 0
1, 0
0, 0
0, 0
0, 0
1, 0
0, 0
0, 0
1, 1
1, 0
0, 0
0, 0
0, 0
0, 0
0, 0
1, 0
0, 0
0, 0
0, 0
0, 1
0, 0
0, 0
0, 0
0, 0
0, 0
0, 1
1, 0
1, 0
0, 0
0, 0
1, 1
0, 0
1, 0
0, 0
0, 0
0, 0
0, 1
0, 0
1, 0
0, 0
0, 0
0, 1
0, 0
0, 0
0, 1
0, 0
1, 1
0, 0
1, 0
0, 1
1, 0
0, 0
1, 0
0, 0
0, 0
0, 0
0, 0
0, 0
0, 0
0, 0
0, 0
0, 0
0, 1
0, 0
0, 0
0, 0
0, 0
1, 0
0, 0
0, 0
0, 0
0, 1
0, 0
0, 0
0, 0
0, 0
0, 0
0, 0
0, 0
0, 0
0, 0
0, 0
0, 0
0, 0
0, 1
0, 0
0, 1
0, 0
1, 0
0, 0
0, 0
0, 0
0, 0
0, 0
0, 0
0, 0
0, 0
0, 0
0, 0
0, 0
0, 1
0, 0
0, 0
0, 0
0, 0
0, 2
0, 0
0, 0
0, 0
0, 0
0, 0
1, 0
0, 0
0, 0
0, 0
0, 0
0, 0
0, 0
0, 0
0, 0
0, 0
1, 1
0, 0
1, 0
0, 0
0, 0
0, 0
0, 0
0, 0
0, 0
0, 1
0, 0
0, 0
0, 0
0, 0
0, 0
0, 0
0, 0
0, 0
0, 0
0, 0
0, 0
0, 0
0, 0
0, 1
0, 0
0, 0
1, 0
0, 0
0, 0
0, 0
0, 0
0, 0
0, 0
0, 0
1, 0
0, 0
0, 0
0, 0
0, 0
0, 0
0, 0
0, 0
0, 0
0, 0
0, 0
0, 0
0, 0
0, 0
0, 0
0, 0
0, 0
0, 0
0, 0
0, 0
0, 0
1, 0
0, 0
0, 0
0, 0
0, 0
0, 0
0, 0
0, 0
0, 0
0, 0
0, 0
0, 0
0, 0
0, 0
0, 0
0, 0
0, 0
0, 0
0, 0
0, 0
0, 0
0, 0
0, 0
0, 0
0, 0
0, 0
0, 0
0, 0
0, 0
0, 1
0, 0
0, 0
0, 0
0, 0
0, 0
0, 0
0, 0
0, 0
0, 0
0, 0
0, 0
0, 0
0, 0
0, 0
0, 0
0, 0
0, 0
0, 0
0, 0
0, 0
0, 0
0, 0
0, 0
0, 0
0, 0
0, 0
0, 0
0, 0
0, 1
0, 0
0, 0
0, 0
1, 0
0, 0
0, 0
0, 0
0, 0
0, 0
0, 0
0, 0
0, 0
0, 0
0, 0
0, 0
0, 0
0, 0
0, 0
0, 0
0, 0
0, 0
0, 0
0, 0
0, 0
0, 0
0, 0
0, 0
0, 0
0, 0
0, 0
0, 0
0, 0
0, 0
0, 0
0, 0
0, 0
0, 0
0, 0
0, 0
0, 0
0, 0
0, 0
0, 0
0, 0
0, 0
0, 0
0, 0
0, 0
0, 0
0, 0
0, 0
0, 0
0, 0
0, 0
0, 0
0, 0
0, 0
0, 0
0, 0
0, 0
0, 0
0, 0
0, 0
0, 0
0, 0
0, 0
0, 0
0, 0
0, 0
0, 0
0, 0
0, 0
0, 0
0, 0
0, 0
0, 0
0, 0
0, 0
0, 0
0, 0
0, 0
0, 0
0, 0
0, 0
0, 0
0, 0
0, 0
0, 0
0, 0
0, 0
0, 0
0, 0
0, 0
0, 0
0, 0
0, 0
0, 0
0, 0
0, 0
0, 0
0, 0
0, 0
0, 0
0, 0
0, 0
0, 0
0, 0
0, 0
0, 0
0, 0
0, 0
0, 0
0, 0
0, 0
0, 0
0, 0
0, 0
0, 0
0, 0
0, 0
0, 0
0, 0
0, 0
0, 0
0, 0
0, 0
0, 0
0, 0
0, 0
0, 0
0, 0
0, 0
0, 0
0, 0
0, 0
0, 0
0, 0
0, 0
0, 0
0, 0
0, 0
0, 0
0, 0
0, 0
0, 0
0, 0
0, 0
0, 0
0, 0
0, 0
0, 0
0, 0
0, 0
0, 0
0, 0
0, 0
0, 0
0, 0
0, 0
0, 0
0, 0
0, 0
0, 0
0, 0
0, 0
0, 0
0, 0
0, 0
0, 0
0, 0
0, 0
0, 0
0, 0
0, 0
0, 0
0, 0
0, 0
0, 0
0, 0
0, 0
0, 0
0, 0
0, 0
0, 0
0, 0
0, 0
0, 0
0, 0
0, 0
0, 0
0, 0
0, 0
0, 0
0, 0
0, 0
0, 0
0, 0
0, 0
0, 0
0, 0
0, 0
0, 0
0, 0
0, 0
0, 0
0, 0
0, 0
0, 0
0, 0
0, 0
0, 0
0, 0
0, 0
0, 0
0, 0
0, 0
0, 0
0, 0
0, 0
0, 0
0, 0
0, 0
0, 0
0, 0
0, 0
0, 0
0, 0
0, 0
0, 0
0, 0
0, 0
0, 0
0, 0
0, 0
0, 0
0, 0
0, 0
0, 0
0, 0
0, 0
0, 0
0, 0
0, 0
0, 0
0, 0
0, 0
0, 0
0, 0
0, 0
0, 0
0, 0
0, 0
0, 0
0, 0
0, 0
0, 0
0, 0
0, 0
0, 0
0, 0
0, 0
0, 0
0, 0
0, 0
0, 0
0, 0
0, 0
0, 0
0, 0
0, 0
0, 0
0, 0
0, 0
0, 0
0, 0
0, 0
0, 0
0, 0
0, 0
0, 0
0, 0
0, 0
0, 0
0, 0
0, 0
0, 0
0, 0
0, 0
0, 0
0, 0
0, 0
0, 0
0, 0
0, 0
0, 0
0, 0
0, 0
0, 0
0, 0
0, 0
0, 0
0, 0
0, 0
0, 0
0, 0
0, 0
0, 0
0, 0
0, 0
0, 0
0, 0
0, 0
0, 0
0, 0
0, 0
0, 0
0, 0
0, 0
0, 0
0, 0
0, 0
0, 0
0, 0
0, 0
0, 0
0, 0
0, 0
0, 0
0, 0
0, 0
0, 0
0, 0
0, 0
0, 0
0, 0
0, 0
0, 0
0, 0
0, 0
0, 0
0, 0
0, 0
0, 0
0, 0
0, 0
0, 0
0, 0
0, 0
#ENDOFDATA     end of spectrum data