File: host_upload/06-09-2024/ps_0852/dump3/ps__0852shot_2137.msa
#FORMAT      : EMSA/MAS spectral data file
#VERSION     : TC202v2.0 PIXL
#TITLE       : N/A
#DATE        :       Date in the format DD-MMM-YYYY, for example 07-JUL-2010
#TIME        :             The time of day at which the spectrum was recorded, in 24-hour format
#OWNER       : PIXL Flight Model       (PIXL will use this to indicate which instrument took the data.)
#NPOINTS     : 4096     Number of data points in the spectrum (This can be zero for configuration only files)
#NCOLUMNS    : 2     Number of data columns in the spectrum (This can be zero for configuration only files)
#XUNITS      : eV
#YUNITS      : COUNTS
#DATATYPE    : YY
#XPERCHAN    : 7.862, 7.881   eV per channel (separate by commas if more than one detector)
#OFFSET      : 18.5, -22.4         eV of first channel  (separate by commas if more than one detector
#SIGNALTYPE  : XRF
#YP_TEMP     : 2.332
#LIVETIME    : 8.58985, 8.53961   seconds (separate by commas if more than one detector)
#REALTIME    : 10, 10.0   seconds (separate by commas if more than one detector)
#SPECTRUM    : start of spectrum data
0, 0
0, 0
0, 0
0, 0
0, 0
0, 0
0, 0
0, 0
0, 0
0, 0
0, 0
0, 0
0, 0
0, 0
0, 0
0, 0
0, 0
0, 0
0, 0
0, 0
0, 0
0, 0
0, 0
0, 0
0, 0
0, 0
0, 0
0, 0
0, 0
0, 0
0, 0
0, 0
0, 1
0, 0
0, 0
2, 0
1, 0
0, 1
1, 0
1, 1
3, 1
3, 0
5, 0
3, 3
3, 3
0, 3
4, 3
4, 3
4, 7
12, 12
26, 18
35, 41
53, 42
64, 73
94, 78
63, 76
67, 68
45, 39
26, 30
16, 5
10, 10
4, 4
3, 4
2, 4
3, 2
3, 1
9, 12
12, 13
20, 20
49, 55
82, 93
175, 147
250, 248
358, 321
415, 382
427, 382
375, 325
277, 252
184, 186
144, 128
87, 67
43, 36
20, 15
9, 5
7, 4
3, 1
1, 4
5, 3
2, 3
1, 1
1, 0
1, 3
1, 1
1, 1
3, 3
1, 2
1, 4
4, 2
5, 7
6, 7
3, 2
4, 2
6, 4
8, 3
2, 3
4, 10
6, 0
11, 7
13, 15
14, 14
40, 18
49, 36
73, 52
73, 42
97, 43
96, 52
121, 52
99, 43
81, 45
68, 31
101, 28
123, 30
151, 17
152, 20
158, 18
184, 15
139, 12
114, 13
78, 8
52, 5
35, 2
19, 5
9, 3
6, 2
2, 0
4, 4
2, 0
0, 2
1, 1
3, 3
1, 2
5, 3
2, 1
1, 2
0, 2
4, 3
7, 3
1, 5
2, 14
7, 19
3, 21
9, 28
6, 35
3, 47
13, 37
10, 26
16, 29
19, 29
17, 18
13, 17
15, 12
11, 7
10, 4
11, 1
9, 5
4, 4
6, 9
5, 5
5, 3
6, 8
6, 4
11, 13
5, 16
7, 1
8, 5
2, 5
7, 7
6, 7
5, 4
5, 6
2, 6
5, 4
10, 7
6, 10
8, 3
11, 6
8, 6
7, 10
13, 11
13, 8
23, 11
28, 14
42, 12
45, 10
69, 14
81, 17
82, 11
88, 17
66, 24
79, 18
49, 14
55, 13
34, 10
27, 14
14, 10
15, 12
5, 5
8, 11
7, 7
5, 7
8, 7
5, 14
9, 5
10, 7
6, 3
4, 14
8, 6
5, 4
4, 2
3, 7
5, 7
10, 7
5, 9
13, 11
8, 9
7, 16
11, 16
10, 22
14, 23
13, 16
14, 13
10, 27
13, 18
21, 12
14, 6
17, 10
14, 8
18, 8
11, 7
12, 4
14, 6
13, 12
18, 11
26, 12
38, 19
52, 26
63, 37
73, 66
82, 65
102, 62
79, 98
81, 93
89, 83
74, 75
57, 96
39, 103
46, 71
26, 92
19, 85
22, 72
26, 82
33, 81
57, 76
93, 133
146, 204
303, 323
441, 595
745, 902
1140, 1281
1498, 1675
1951, 2022
2256, 2340
2419, 2283
2337, 2154
2113, 1825
1733, 1469
1343, 1043
951, 701
609, 443
406, 268
199, 135
108, 71
51, 40
40, 22
28, 20
17, 14
13, 11
14, 23
25, 20
17, 22
29, 29
30, 37
46, 45
85, 102
102, 131
123, 164
193, 216
258, 284
300, 330
356, 340
374, 366
352, 314
321, 252
283, 191
200, 120
152, 95
86, 44
71, 36
31, 24
21, 8
17, 9
13, 8
13, 10
11, 6
19, 13
14, 10
11, 12
15, 7
9, 13
14, 6
17, 11
17, 6
8, 6
11, 8
5, 3
5, 5
6, 4
2, 3
4, 4
6, 2
5, 4
5, 2
2, 0
3, 3
4, 4
4, 4
3, 6
5, 6
3, 2
7, 7
7, 3
7, 2
9, 8
5, 7
4, 4
7, 4
7, 12
6, 3
5, 7
4, 5
4, 8
6, 7
6, 5
5, 5
3, 4
4, 2
6, 6
6, 4
5, 5
3, 10
4, 5
8, 6
3, 1
3, 3
3, 5
7, 3
6, 5
1, 5
7, 2
4, 6
8, 3
3, 4
4, 5
2, 1
4, 4
8, 4
3, 5
5, 3
4, 7
7, 4
5, 3
4, 4
7, 4
3, 1
9, 2
10, 6
3, 2
6, 2
8, 9
12, 1
12, 9
16, 3
15, 4
9, 1
14, 6
20, 10
12, 6
13, 4
12, 4
9, 3
9, 8
3, 5
6, 12
6, 14
1, 4
3, 8
3, 7
0, 18
4, 9
3, 9
5, 9
3, 8
1, 12
4, 5
3, 8
5, 6
3, 3
2, 7
7, 3
5, 0
5, 3
3, 2
3, 1
0, 3
6, 3
5, 0
1, 3
4, 1
4, 0
2, 3
3, 5
4, 1
2, 2
1, 4
5, 0
4, 2
3, 3
2, 1
3, 2
6, 4
4, 1
2, 3
2, 4
3, 4
6, 3
4, 3
1, 1
2, 1
3, 2
7, 2
3, 3
3, 4
1, 0
1, 1
3, 1
2, 1
2, 1
2, 3
1, 7
3, 1
1, 1
1, 6
2, 3
3, 3
4, 4
2, 3
3, 5
2, 0
2, 3
7, 3
3, 4
4, 1
3, 1
3, 3
2, 4
4, 5
1, 3
3, 4
0, 4
1, 3
1, 1
1, 1
3, 2
1, 0
4, 3
5, 1
3, 1
1, 2
1, 3
3, 0
4, 2
5, 5
4, 2
4, 1
4, 4
2, 5
2, 0
4, 6
3, 2
2, 2
2, 2
3, 2
1, 1
1, 2
0, 4
3, 3
2, 2
0, 2
2, 5
5, 4
5, 0
3, 3
1, 7
0, 5
1, 4
2, 3
4, 3
1, 3
2, 3
1, 2
5, 2
0, 1
1, 2
0, 1
1, 5
0, 2
0, 2
1, 2
1, 2
2, 0
3, 4
0, 4
2, 0
4, 2
3, 2
1, 0
3, 2
2, 0
2, 4
6, 1
2, 4
3, 4
6, 2
4, 4
9, 3
6, 1
4, 2
6, 2
3, 2
1, 1
2, 1
6, 0
1, 2
3, 0
3, 2
1, 1
0, 3
0, 2
3, 1
1, 0
1, 0
2, 3
3, 0
4, 1
4, 1
1, 3
2, 1
3, 4
3, 2
4, 1
3, 3
0, 1
3, 0
2, 2
2, 2
1, 1
2, 2
2, 2
3, 0
0, 3
5, 2
0, 0
2, 0
0, 2
1, 1
2, 0
1, 1
2, 1
2, 0
1, 2
1, 0
0, 3
0, 0
1, 2
0, 1
0, 1
0, 0
0, 0
1, 2
1, 1
1, 0
1, 1
0, 0
0, 0
1, 0
0, 1
1, 0
0, 1
1, 2
2, 1
3, 1
1, 1
0, 1
0, 1
0, 1
0, 1
4, 1
2, 1
0, 0
2, 0
2, 0
0, 5
1, 1
0, 2
0, 2
1, 1
0, 1
0, 0
0, 0
2, 0
0, 1
2, 0
0, 1
1, 1
1, 0
1, 1
0, 1
2, 2
1, 4
1, 1
1, 1
0, 1
1, 1
2, 2
0, 0
0, 1
0, 0
2, 1
1, 1
1, 1
0, 0
2, 2
2, 1
0, 1
2, 0
0, 0
1, 0
0, 0
0, 1
0, 0
0, 0
0, 3
0, 0
0, 0
0, 0
0, 0
0, 1
0, 0
0, 0
1, 1
0, 1
0, 0
0, 0
1, 1
2, 1
0, 0
0, 0
0, 0
2, 1
1, 0
1, 0
0, 0
2, 0
0, 0
2, 0
1, 0
0, 0
0, 0
0, 0
1, 2
0, 1
1, 0
2, 0
0, 0
1, 0
1, 0
0, 0
1, 0
0, 0
0, 0
0, 0
0, 2
0, 0
2, 0
0, 0
1, 0
0, 0
0, 0
0, 0
1, 1
0, 0
0, 0
1, 0
0, 0
0, 1
0, 1
1, 1
1, 0
0, 0
0, 0
1, 1
0, 1
1, 0
0, 0
0, 1
0, 0
0, 0
0, 1
0, 0
0, 0
1, 0
0, 1
0, 0
0, 0
0, 0
0, 0
0, 0
0, 0
0, 1
0, 1
1, 0
1, 1
0, 0
1, 0
0, 0
0, 0
0, 0
1, 0
0, 1
0, 0
0, 0
0, 1
0, 0
0, 0
1, 1
1, 0
0, 0
0, 1
0, 0
0, 0
1, 0
0, 0
1, 0
0, 0
0, 0
0, 0
2, 0
0, 0
0, 0
0, 0
0, 2
2, 1
1, 0
0, 0
0, 0
0, 0
0, 0
0, 0
1, 0
1, 2
0, 0
0, 0
0, 0
0, 0
0, 0
0, 1
0, 1
0, 0
0, 0
0, 0
0, 0
1, 2
0, 0
1, 0
0, 0
1, 0
1, 1
0, 0
0, 1
0, 0
0, 0
0, 0
0, 0
0, 0
0, 0
1, 1
0, 0
0, 1
0, 0
0, 0
1, 0
0, 0
1, 0
1, 0
0, 0
0, 0
1, 1
0, 3
0, 0
1, 0
0, 0
1, 0
0, 0
0, 0
0, 0
0, 0
0, 0
1, 0
0, 0
0, 0
0, 0
0, 0
0, 0
1, 0
0, 0
0, 0
0, 0
0, 1
0, 0
0, 0
1, 1
1, 0
0, 1
0, 0
0, 0
0, 0
0, 0
0, 0
0, 0
0, 0
0, 0
0, 1
0, 0
0, 0
1, 0
0, 0
1, 0
0, 0
0, 0
1, 0
0, 0
0, 0
0, 0
0, 0
0, 0
0, 1
0, 0
0, 0
1, 0
0, 1
0, 0
0, 0
0, 0
0, 0
0, 0
0, 0
0, 0
0, 0
0, 0
0, 0
0, 1
0, 0
0, 0
0, 0
0, 1
1, 0
0, 0
0, 0
0, 0
0, 0
0, 0
0, 0
0, 0
1, 0
0, 0
1, 1
0, 0
0, 0
0, 0
0, 0
0, 0
0, 0
0, 0
0, 0
0, 0
0, 0
0, 0
0, 0
0, 0
0, 0
0, 0
0, 0
0, 0
0, 0
0, 0
0, 0
0, 0
0, 0
0, 0
0, 0
1, 0
0, 0
0, 0
0, 0
0, 0
0, 0
0, 0
0, 0
0, 0
0, 0
0, 0
0, 0
0, 0
0, 0
0, 0
0, 0
0, 0
0, 0
0, 0
0, 0
1, 0
0, 0
0, 0
0, 0
0, 0
0, 0
0, 0
0, 0
0, 0
0, 0
0, 0
0, 0
0, 0
0, 0
0, 0
0, 0
0, 0
0, 0
0, 1
0, 0
0, 0
0, 0
1, 0
0, 0
0, 0
0, 0
0, 0
0, 0
0, 0
0, 0
0, 0
0, 0
0, 0
0, 0
1, 0
0, 0
0, 0
0, 0
0, 0
0, 0
0, 0
0, 0
0, 0
0, 0
0, 0
0, 0
1, 0
0, 0
0, 0
0, 0
0, 0
0, 0
0, 0
0, 0
0, 0
0, 0
0, 0
0, 0
0, 0
0, 0
0, 0
0, 0
0, 0
0, 0
1, 0
0, 0
0, 0
0, 0
0, 0
0, 0
0, 0
0, 0
0, 0
0, 0
0, 0
0, 0
0, 0
0, 0
0, 0
0, 0
0, 0
0, 0
0, 0
0, 0
0, 0
0, 0
0, 0
0, 0
0, 0
0, 0
0, 0
0, 0
0, 0
0, 0
0, 0
0, 0
0, 0
0, 0
0, 0
0, 0
0, 0
0, 0
0, 0
0, 0
0, 0
0, 0
0, 0
0, 0
0, 0
0, 0
0, 0
0, 0
0, 0
0, 0
0, 0
0, 0
0, 0
0, 0
0, 0
0, 0
0, 0
0, 0
0, 0
0, 0
0, 0
0, 0
0, 0
0, 0
0, 0
1, 0
0, 0
0, 0
0, 0
0, 0
0, 0
0, 0
0, 0
0, 0
0, 0
0, 0
0, 0
0, 0
0, 0
0, 0
0, 0
0, 0
0, 0
0, 0
0, 0
0, 0
0, 0
0, 0
0, 0
0, 0
0, 0
0, 0
0, 0
0, 0
0, 0
0, 0
0, 0
0, 0
0, 0
0, 0
0, 0
0, 0
0, 0
0, 0
0, 0
0, 0
0, 0
0, 0
0, 0
0, 0
0, 0
0, 0
0, 0
0, 0
0, 0
0, 0
0, 0
0, 0
0, 0
0, 0
0, 0
0, 0
0, 0
0, 0
0, 0
0, 0
0, 0
0, 0
0, 0
0, 0
0, 0
0, 0
0, 0
0, 0
0, 0
0, 0
0, 0
0, 0
0, 0
0, 0
0, 0
0, 0
0, 0
0, 0
0, 0
0, 0
0, 0
0, 0
0, 0
0, 0
0, 0
0, 0
0, 0
0, 0
0, 0
0, 0
0, 0
0, 0
0, 0
0, 0
0, 0
0, 0
0, 0
0, 0
0, 0
0, 0
0, 0
0, 0
0, 0
0, 0
0, 0
0, 0
0, 0
0, 0
0, 0
0, 0
0, 0
0, 0
0, 0
0, 0
0, 0
0, 0
0, 0
0, 0
0, 0
0, 0
0, 0
0, 0
0, 0
0, 0
0, 0
0, 0
0, 0
0, 0
0, 0
0, 0
0, 0
0, 0
0, 0
0, 0
0, 0
0, 0
0, 0
0, 0
0, 0
0, 0
0, 0
0, 0
0, 0
0, 0
0, 0
0, 0
0, 0
0, 0
0, 0
0, 0
0, 0
0, 0
0, 0
0, 0
0, 0
0, 0
0, 0
0, 0
0, 0
0, 0
0, 0
0, 0
0, 0
0, 0
0, 0
0, 0
0, 0
0, 0
0, 0
0, 0
0, 0
0, 0
0, 0
0, 0
0, 0
0, 0
0, 0
0, 0
0, 0
0, 0
0, 0
0, 0
0, 0
0, 0
0, 0
0, 0
0, 0
0, 0
0, 0
0, 0
0, 0
0, 0
0, 0
0, 0
0, 0
0, 0
0, 0
0, 0
0, 0
0, 0
0, 0
0, 0
0, 0
0, 0
0, 0
0, 0
0, 0
0, 0
0, 0
0, 0
0, 0
0, 0
0, 0
0, 0
0, 0
0, 0
0, 0
0, 0
0, 0
0, 0
0, 0
0, 0
0, 0
0, 0
0, 0
0, 0
0, 0
0, 0
0, 0
0, 0
0, 0
0, 0
0, 0
0, 0
0, 0
0, 0
0, 0
0, 0
0, 0
0, 0
0, 0
0, 0
0, 0
0, 0
0, 0
0, 0
0, 0
0, 0
0, 0
0, 0
0, 0
0, 0
0, 0
0, 0
0, 0
0, 0
0, 0
0, 0
0, 0
0, 0
0, 0
0, 0
0, 0
0, 0
0, 0
0, 0
0, 0
0, 0
0, 0
0, 0
0, 0
0, 0
0, 0
0, 0
0, 0
0, 0
0, 0
0, 0
0, 0
0, 0
0, 0
0, 0
0, 0
0, 0
0, 0
0, 0
0, 0
0, 0
0, 0
0, 0
0, 0
0, 0
0, 0
0, 0
0, 0
0, 0
#ENDOFDATA     end of spectrum data