File: host_upload/06-09-2024/ps_0852/dump3/ps__0852shot_2443.msa
#FORMAT      : EMSA/MAS spectral data file
#VERSION     : TC202v2.0 PIXL
#TITLE       : N/A
#DATE        :       Date in the format DD-MMM-YYYY, for example 07-JUL-2010
#TIME        :             The time of day at which the spectrum was recorded, in 24-hour format
#OWNER       : PIXL Flight Model       (PIXL will use this to indicate which instrument took the data.)
#NPOINTS     : 4096     Number of data points in the spectrum (This can be zero for configuration only files)
#NCOLUMNS    : 2     Number of data columns in the spectrum (This can be zero for configuration only files)
#XUNITS      : eV
#YUNITS      : COUNTS
#DATATYPE    : YY
#XPERCHAN    : 7.862, 7.881   eV per channel (separate by commas if more than one detector)
#OFFSET      : 18.5, -22.4         eV of first channel  (separate by commas if more than one detector
#SIGNALTYPE  : XRF
#YP_TEMP     : 2.364
#LIVETIME    : 8.56465, 8.56163   seconds (separate by commas if more than one detector)
#REALTIME    : 10, 10.0   seconds (separate by commas if more than one detector)
#SPECTRUM    : start of spectrum data
0, 0
0, 0
0, 0
0, 0
0, 0
0, 0
0, 0
0, 0
0, 0
0, 0
0, 0
0, 0
0, 0
0, 0
0, 0
0, 0
0, 0
0, 0
0, 0
0, 0
0, 0
0, 0
0, 0
0, 0
0, 0
0, 0
0, 0
0, 0
0, 0
0, 0
0, 0
0, 0
0, 0
0, 0
0, 1
0, 2
0, 3
0, 7
2, 9
0, 12
0, 24
0, 33
3, 23
1, 19
1, 16
0, 12
4, 8
3, 4
5, 7
11, 21
17, 18
40, 31
63, 46
59, 79
71, 77
75, 100
59, 62
47, 43
23, 29
16, 8
9, 11
1, 9
3, 7
1, 5
2, 5
7, 10
5, 6
10, 11
20, 26
48, 50
86, 103
168, 178
266, 291
403, 358
440, 405
442, 428
366, 407
290, 332
182, 222
112, 135
55, 54
45, 36
19, 20
13, 9
6, 7
3, 5
0, 2
1, 2
3, 6
0, 2
2, 2
0, 3
1, 5
2, 1
1, 2
1, 5
0, 8
3, 4
4, 5
3, 4
0, 5
4, 6
3, 3
4, 3
2, 5
2, 5
2, 14
2, 47
14, 104
17, 216
19, 449
20, 702
34, 1125
36, 1584
41, 1867
39, 1992
45, 1844
25, 1499
32, 1132
19, 719
22, 414
24, 224
26, 99
20, 49
10, 29
16, 14
10, 10
11, 13
3, 14
3, 6
3, 3
3, 3
4, 4
2, 1
1, 3
2, 2
2, 1
0, 3
2, 0
0, 3
6, 2
2, 0
0, 3
3, 2
0, 2
1, 2
3, 1
1, 0
1, 1
2, 1
2, 2
4, 5
4, 3
6, 10
5, 7
18, 11
16, 13
17, 14
17, 18
17, 15
11, 13
15, 9
6, 8
6, 1
3, 4
5, 18
5, 15
5, 23
5, 36
10, 40
8, 41
5, 37
12, 28
6, 28
6, 22
4, 11
5, 17
0, 7
2, 7
2, 3
4, 1
1, 5
7, 4
2, 0
4, 2
1, 4
4, 3
2, 4
3, 7
4, 6
3, 7
6, 3
7, 7
6, 12
16, 6
10, 9
8, 9
9, 11
18, 12
15, 11
7, 9
11, 5
7, 4
4, 10
4, 6
3, 6
4, 3
5, 5
3, 4
2, 2
7, 6
4, 4
7, 4
4, 5
9, 7
0, 2
4, 2
8, 6
6, 5
4, 6
9, 2
4, 9
8, 4
4, 1
5, 8
11, 17
7, 8
12, 11
8, 11
10, 20
7, 15
13, 13
14, 11
13, 14
10, 13
7, 10
8, 9
10, 9
6, 7
8, 4
8, 8
9, 8
10, 7
9, 13
12, 11
18, 22
25, 31
25, 33
49, 56
62, 49
38, 69
72, 67
55, 51
55, 51
48, 37
30, 39
30, 25
25, 26
13, 12
16, 20
20, 23
27, 37
39, 77
75, 91
146, 185
280, 352
447, 588
718, 894
1121, 1334
1627, 1822
1935, 2221
2263, 2452
2454, 2414
2344, 2253
2117, 1902
1719, 1497
1273, 1078
941, 716
577, 472
337, 255
180, 159
85, 104
62, 52
32, 38
21, 31
17, 29
27, 29
17, 30
22, 28
21, 40
27, 42
32, 34
50, 50
74, 80
87, 121
153, 166
188, 231
238, 301
325, 343
314, 350
375, 393
343, 315
301, 268
223, 216
203, 149
134, 92
98, 60
42, 46
18, 26
14, 7
8, 8
7, 8
11, 8
13, 7
10, 12
6, 10
15, 9
12, 11
10, 15
16, 5
10, 12
13, 12
7, 6
7, 2
6, 5
7, 5
2, 3
2, 5
3, 4
3, 2
5, 6
5, 2
3, 1
4, 5
6, 1
5, 3
7, 2
8, 3
12, 3
10, 4
15, 3
16, 5
16, 7
22, 5
19, 6
24, 8
18, 10
16, 4
18, 3
15, 4
10, 4
8, 7
10, 4
3, 2
9, 7
5, 1
1, 3
2, 4
3, 3
7, 4
1, 4
3, 5
4, 5
5, 2
6, 3
1, 4
4, 3
10, 7
4, 4
4, 5
3, 2
3, 2
1, 6
4, 5
3, 2
2, 2
2, 1
2, 1
1, 3
5, 8
0, 7
5, 3
2, 8
5, 8
2, 6
5, 9
4, 7
6, 4
6, 8
5, 4
5, 10
4, 2
4, 8
5, 3
3, 4
8, 8
6, 2
6, 9
7, 8
9, 3
4, 5
3, 3
5, 2
5, 2
4, 4
1, 2
9, 4
3, 5
1, 2
3, 3
4, 2
1, 6
2, 1
6, 3
4, 2
0, 4
2, 2
3, 2
2, 4
7, 4
2, 3
2, 1
3, 4
1, 2
2, 1
0, 3
1, 4
4, 0
1, 2
3, 5
3, 4
3, 1
4, 4
3, 2
0, 2
4, 1
4, 3
2, 2
2, 1
2, 1
3, 1
3, 1
3, 3
2, 1
7, 1
2, 2
1, 4
3, 3
5, 5
5, 4
5, 1
6, 2
4, 10
2, 4
2, 5
7, 5
3, 9
4, 2
12, 4
2, 10
2, 4
6, 8
3, 9
4, 4
3, 6
0, 0
1, 3
2, 4
1, 6
0, 2
0, 2
2, 1
1, 1
1, 5
1, 0
2, 3
1, 4
0, 0
1, 3
2, 2
2, 2
5, 1
2, 1
0, 3
3, 2
1, 2
2, 2
0, 2
1, 1
1, 4
1, 5
0, 5
0, 1
2, 3
3, 5
2, 4
2, 2
3, 1
2, 2
2, 0
2, 7
3, 1
3, 1
0, 1
1, 2
1, 2
1, 2
0, 1
2, 1
1, 0
3, 2
2, 1
1, 3
4, 3
1, 2
1, 1
3, 1
1, 1
2, 2
1, 2
3, 4
1, 1
0, 1
0, 4
2, 2
3, 1
1, 2
1, 5
1, 1
6, 7
3, 2
0, 0
3, 0
3, 0
2, 1
2, 3
2, 1
1, 7
3, 3
2, 4
5, 3
0, 7
1, 8
7, 6
2, 1
1, 1
3, 5
0, 2
0, 2
4, 3
4, 1
1, 2
2, 0
1, 1
4, 1
2, 0
0, 3
2, 2
3, 0
0, 2
2, 2
2, 0
2, 2
1, 4
1, 5
5, 4
0, 4
3, 2
3, 1
2, 2
2, 4
2, 4
1, 1
1, 1
3, 1
1, 4
0, 2
0, 0
1, 0
3, 2
2, 0
1, 1
2, 0
1, 0
2, 0
3, 1
1, 1
1, 2
1, 1
0, 1
1, 0
2, 1
1, 0
0, 0
0, 0
1, 1
1, 0
3, 1
0, 0
2, 1
1, 0
1, 1
0, 0
0, 2
2, 0
0, 0
1, 0
0, 2
1, 0
1, 1
1, 1
0, 2
1, 2
0, 0
1, 0
1, 2
0, 1
1, 0
2, 2
2, 1
0, 1
0, 1
0, 3
1, 2
1, 0
2, 0
0, 1
3, 0
0, 1
2, 1
1, 0
2, 1
0, 0
1, 1
0, 0
0, 4
0, 0
0, 0
2, 0
1, 2
0, 2
0, 0
0, 1
2, 2
0, 0
0, 1
2, 1
1, 0
0, 0
2, 0
1, 0
1, 0
1, 1
1, 0
0, 1
1, 1
0, 0
2, 0
0, 0
1, 0
1, 1
1, 1
0, 1
1, 0
1, 1
0, 0
1, 0
0, 1
0, 1
2, 2
2, 0
0, 2
0, 2
2, 1
1, 0
1, 1
0, 2
0, 0
1, 3
0, 1
0, 0
1, 0
0, 1
1, 0
1, 1
1, 1
1, 0
0, 1
1, 0
0, 1
1, 0
0, 1
1, 0
0, 0
0, 0
0, 0
1, 0
0, 1
1, 0
1, 0
0, 0
1, 1
0, 1
1, 1
0, 1
1, 0
0, 0
2, 0
1, 0
0, 0
1, 1
0, 1
1, 0
0, 0
0, 0
0, 0
0, 1
0, 0
0, 0
0, 0
1, 0
0, 0
0, 0
0, 1
1, 0
2, 0
1, 0
1, 1
0, 0
1, 0
0, 0
0, 0
0, 0
1, 0
0, 0
0, 0
0, 0
1, 0
0, 0
2, 0
0, 0
0, 0
0, 0
0, 0
0, 1
0, 0
1, 0
1, 1
1, 0
0, 1
1, 0
0, 1
0, 0
0, 1
0, 0
0, 0
0, 0
1, 0
0, 0
1, 0
1, 0
1, 0
1, 0
0, 0
1, 0
0, 0
0, 0
0, 0
0, 1
0, 0
0, 1
0, 1
0, 0
1, 0
0, 0
0, 0
1, 0
1, 0
0, 0
0, 1
1, 0
0, 0
0, 0
0, 0
0, 0
0, 0
1, 0
0, 0
0, 0
1, 0
1, 1
0, 1
0, 1
2, 0
0, 2
1, 0
0, 1
1, 0
0, 0
1, 0
1, 1
0, 0
0, 1
0, 0
0, 1
0, 1
0, 0
0, 0
1, 0
0, 0
1, 1
0, 0
0, 0
0, 0
0, 0
0, 0
0, 0
0, 0
0, 0
0, 0
1, 0
0, 0
0, 0
0, 0
0, 0
0, 0
0, 0
0, 0
0, 0
0, 0
0, 0
0, 0
0, 0
0, 0
0, 0
0, 0
0, 0
0, 0
0, 0
1, 0
0, 1
0, 1
0, 0
0, 1
0, 0
0, 0
0, 0
0, 1
0, 1
0, 1
0, 0
0, 0
0, 0
0, 0
0, 0
0, 0
0, 0
0, 0
0, 0
1, 0
0, 0
2, 0
0, 0
0, 0
0, 1
0, 0
0, 0
0, 0
0, 0
0, 0
0, 0
0, 0
0, 0
0, 0
0, 0
0, 0
0, 0
0, 0
0, 0
0, 0
0, 0
0, 0
0, 0
0, 0
0, 0
0, 0
0, 0
0, 0
0, 0
0, 0
0, 0
0, 1
1, 0
0, 0
0, 0
0, 0
0, 0
0, 0
0, 1
0, 0
0, 0
0, 0
0, 0
0, 0
0, 0
0, 0
0, 0
0, 0
0, 0
0, 0
0, 0
0, 0
0, 0
0, 0
0, 0
0, 1
0, 0
0, 0
0, 1
0, 0
0, 0
0, 0
0, 0
0, 0
0, 0
0, 0
0, 0
0, 0
0, 0
0, 0
0, 0
0, 0
0, 0
0, 0
0, 0
0, 0
0, 0
0, 0
0, 0
0, 0
0, 0
0, 0
0, 0
0, 0
0, 0
0, 0
0, 0
0, 0
0, 0
0, 0
0, 0
0, 0
0, 0
0, 0
0, 0
0, 0
0, 0
0, 0
0, 0
0, 0
0, 0
0, 0
0, 0
0, 0
0, 0
0, 0
0, 0
0, 0
1, 0
0, 0
0, 0
0, 0
0, 0
0, 0
0, 0
0, 0
0, 0
0, 0
0, 0
0, 0
0, 0
0, 0
0, 0
0, 0
0, 0
0, 0
0, 0
0, 0
0, 0
0, 0
0, 0
0, 0
0, 0
0, 0
0, 0
0, 0
0, 0
0, 0
0, 0
0, 0
0, 0
0, 0
0, 0
0, 0
0, 0
0, 0
0, 0
0, 0
0, 0
0, 0
0, 0
0, 0
0, 0
0, 0
0, 0
0, 0
0, 0
0, 0
1, 0
0, 0
0, 0
0, 0
0, 0
0, 0
0, 0
0, 0
0, 0
0, 0
0, 0
0, 0
0, 0
0, 0
0, 0
0, 0
0, 0
0, 0
0, 0
0, 0
0, 0
0, 0
0, 0
1, 0
0, 0
0, 0
0, 0
0, 0
0, 0
0, 0
0, 0
0, 0
0, 0
0, 0
0, 0
0, 0
0, 0
0, 0
0, 0
0, 0
0, 0
0, 0
0, 0
0, 0
0, 0
0, 0
0, 0
0, 0
0, 0
0, 0
0, 0
0, 0
0, 0
0, 0
0, 0
0, 0
0, 0
0, 0
0, 0
0, 0
0, 0
0, 0
0, 0
0, 0
0, 0
0, 0
0, 0
0, 0
0, 0
0, 0
0, 0
0, 0
0, 0
0, 0
0, 0
0, 0
0, 0
0, 0
0, 0
0, 0
0, 0
0, 0
0, 0
0, 0
0, 0
0, 0
0, 0
0, 0
0, 0
0, 0
0, 0
0, 0
0, 0
0, 0
0, 0
0, 0
0, 0
0, 0
0, 0
0, 0
0, 0
0, 0
0, 0
0, 0
0, 0
0, 0
0, 0
0, 0
0, 0
0, 0
0, 0
0, 0
0, 0
0, 0
0, 0
0, 0
0, 0
0, 0
0, 0
0, 0
0, 0
0, 0
0, 0
0, 0
0, 0
0, 0
0, 0
0, 0
0, 0
0, 0
0, 0
0, 0
0, 0
0, 0
0, 0
0, 0
0, 0
0, 0
0, 0
0, 0
0, 0
0, 0
0, 0
0, 0
0, 0
0, 0
0, 0
0, 0
0, 0
0, 0
0, 0
0, 0
0, 0
0, 0
0, 0
0, 0
0, 0
0, 0
0, 0
0, 0
0, 0
0, 0
0, 0
0, 0
0, 0
0, 0
0, 0
0, 0
0, 0
0, 0
0, 0
0, 0
0, 0
0, 0
0, 0
0, 0
0, 0
0, 0
0, 0
0, 0
0, 0
0, 0
0, 0
0, 0
0, 0
0, 0
0, 0
0, 0
0, 0
0, 0
0, 0
0, 0
0, 0
0, 0
0, 0
0, 0
0, 0
0, 0
0, 0
0, 0
0, 0
0, 0
0, 0
0, 0
0, 0
0, 0
0, 0
0, 0
0, 0
0, 0
0, 0
0, 0
0, 0
0, 0
0, 0
0, 0
0, 0
0, 0
0, 0
0, 0
0, 0
0, 0
0, 0
0, 0
0, 0
0, 0
0, 0
0, 0
0, 0
0, 0
0, 0
0, 0
0, 0
0, 0
0, 0
0, 0
0, 0
0, 0
0, 0
0, 0
0, 0
0, 0
0, 0
0, 0
0, 0
0, 0
0, 0
0, 0
0, 0
0, 0
0, 0
0, 0
0, 0
0, 0
0, 0
0, 0
0, 0
0, 0
0, 0
0, 0
0, 0
0, 0
0, 0
0, 0
0, 0
0, 0
0, 0
0, 0
0, 0
0, 0
0, 0
0, 0
0, 0
0, 0
0, 0
0, 0
0, 0
0, 0
0, 0
0, 0
0, 0
0, 0
0, 0
0, 0
0, 0
0, 0
0, 0
0, 0
0, 0
0, 0
0, 0
0, 0
0, 0
0, 0
0, 0
0, 0
0, 0
0, 0
0, 0
0, 0
0, 0
0, 0
0, 0
0, 0
0, 0
0, 0
0, 0
0, 0
0, 0
0, 0
0, 0
0, 0
0, 0
0, 0
0, 0
0, 0
0, 0
0, 0
0, 0
0, 0
0, 0
0, 0
0, 0
0, 0
0, 0
0, 0
0, 0
0, 0
0, 0
0, 0
0, 0
0, 0
0, 0
0, 0
0, 0
0, 0
0, 0
0, 0
0, 0
0, 0
0, 0
0, 0
0, 0
0, 0
0, 0
0, 0
0, 0
0, 0
#ENDOFDATA     end of spectrum data