File: host_upload/06-09-2024/ps_0852/dump3/ps__0852shot_2470.msa
#FORMAT      : EMSA/MAS spectral data file
#VERSION     : TC202v2.0 PIXL
#TITLE       : N/A
#DATE        :       Date in the format DD-MMM-YYYY, for example 07-JUL-2010
#TIME        :             The time of day at which the spectrum was recorded, in 24-hour format
#OWNER       : PIXL Flight Model       (PIXL will use this to indicate which instrument took the data.)
#NPOINTS     : 4096     Number of data points in the spectrum (This can be zero for configuration only files)
#NCOLUMNS    : 2     Number of data columns in the spectrum (This can be zero for configuration only files)
#XUNITS      : eV
#YUNITS      : COUNTS
#DATATYPE    : YY
#XPERCHAN    : 7.862, 7.881   eV per channel (separate by commas if more than one detector)
#OFFSET      : 18.5, -22.4         eV of first channel  (separate by commas if more than one detector
#SIGNALTYPE  : XRF
#YP_TEMP     : 2.396
#LIVETIME    : 8.54712, 8.57058   seconds (separate by commas if more than one detector)
#REALTIME    : 10, 10.0   seconds (separate by commas if more than one detector)
#SPECTRUM    : start of spectrum data
0, 0
0, 0
0, 0
0, 0
0, 0
0, 0
0, 0
0, 0
0, 0
0, 0
0, 0
0, 0
0, 0
0, 0
0, 0
0, 0
0, 0
0, 0
0, 0
0, 0
0, 0
0, 0
0, 0
0, 0
0, 0
0, 0
0, 0
0, 0
0, 0
0, 0
0, 0
0, 0
1, 0
0, 0
0, 0
0, 1
0, 0
0, 0
0, 1
0, 0
0, 2
0, 1
1, 0
1, 1
1, 0
2, 3
1, 2
4, 3
3, 5
11, 6
25, 26
35, 37
56, 66
63, 69
96, 74
82, 91
74, 52
49, 41
27, 26
16, 16
10, 5
4, 5
3, 4
4, 1
5, 2
3, 2
2, 5
5, 6
19, 19
53, 50
73, 88
175, 160
241, 249
339, 355
393, 380
409, 429
377, 364
275, 255
202, 194
122, 124
61, 78
31, 35
20, 19
10, 5
3, 5
2, 0
4, 2
0, 3
1, 2
2, 2
1, 3
1, 2
2, 0
2, 2
3, 5
7, 4
11, 8
13, 12
13, 12
19, 18
12, 22
10, 10
7, 6
5, 14
2, 2
7, 7
7, 6
3, 5
5, 8
17, 19
16, 18
30, 36
36, 50
33, 36
61, 45
43, 55
37, 43
45, 50
30, 41
32, 35
28, 24
30, 22
15, 18
19, 14
20, 16
15, 17
19, 10
15, 7
4, 7
7, 7
5, 4
3, 3
4, 1
5, 4
1, 4
1, 2
3, 1
1, 3
2, 3
2, 2
1, 2
2, 2
0, 3
3, 1
2, 3
2, 0
3, 0
4, 4
5, 6
3, 4
3, 2
3, 8
9, 7
13, 6
7, 7
19, 8
16, 19
18, 23
4, 15
15, 15
11, 11
8, 7
6, 3
6, 2
0, 6
5, 8
4, 0
4, 2
4, 6
1, 8
2, 4
6, 2
4, 10
7, 9
8, 8
5, 5
13, 5
3, 5
3, 6
11, 9
7, 2
4, 7
2, 2
6, 6
3, 8
5, 2
5, 6
4, 6
8, 6
6, 9
14, 6
7, 10
11, 11
14, 7
6, 11
11, 23
18, 13
14, 16
17, 8
18, 13
10, 17
20, 18
9, 19
7, 13
6, 12
5, 27
6, 28
6, 43
5, 43
8, 42
5, 52
9, 57
6, 57
6, 43
3, 32
8, 35
6, 20
5, 21
3, 11
4, 0
3, 12
6, 5
5, 8
6, 8
12, 10
14, 7
23, 18
24, 10
29, 19
29, 15
26, 18
27, 16
36, 12
34, 8
21, 8
38, 10
17, 11
17, 10
10, 7
10, 6
12, 8
4, 6
17, 7
15, 12
13, 17
18, 30
30, 36
43, 62
50, 58
46, 60
56, 51
42, 77
60, 50
54, 57
39, 39
32, 30
29, 15
12, 21
21, 20
17, 22
22, 26
36, 37
45, 62
51, 103
138, 200
263, 369
518, 568
735, 901
1125, 1339
1570, 1813
2072, 2220
2316, 2443
2471, 2497
2389, 2314
2224, 2059
1790, 1559
1454, 1108
1001, 775
662, 497
425, 277
254, 174
126, 73
83, 59
35, 37
26, 28
21, 19
14, 16
16, 16
18, 19
19, 22
22, 24
24, 46
41, 61
72, 92
115, 100
139, 181
200, 232
258, 293
302, 357
344, 365
400, 362
360, 346
311, 275
249, 217
185, 164
127, 102
67, 72
51, 45
30, 32
17, 17
23, 11
2, 8
7, 11
4, 19
9, 23
17, 20
10, 27
16, 29
15, 32
8, 21
14, 23
16, 24
12, 13
9, 17
5, 7
8, 7
5, 8
9, 5
6, 3
8, 6
4, 0
8, 1
6, 3
7, 6
6, 2
4, 1
4, 5
3, 0
3, 4
6, 2
4, 1
4, 7
1, 8
2, 6
3, 5
6, 7
5, 5
12, 11
2, 4
6, 5
6, 10
6, 9
4, 6
2, 4
5, 8
2, 4
6, 7
3, 7
4, 1
3, 9
6, 9
5, 0
3, 6
7, 6
9, 8
14, 6
6, 2
6, 9
4, 5
9, 4
7, 4
3, 3
7, 5
3, 2
8, 3
6, 2
7, 1
1, 2
7, 7
6, 2
2, 6
4, 2
5, 4
3, 6
2, 1
6, 8
3, 7
4, 12
3, 2
2, 8
5, 6
3, 6
3, 2
5, 9
5, 1
6, 2
1, 3
0, 1
5, 4
2, 2
7, 2
4, 4
6, 2
2, 7
5, 5
1, 4
1, 5
5, 2
3, 5
2, 6
4, 5
2, 0
4, 6
4, 4
4, 2
4, 5
8, 8
4, 3
6, 8
6, 7
6, 11
3, 8
2, 1
1, 6
4, 10
6, 9
2, 3
4, 7
5, 1
2, 5
1, 3
6, 3
5, 0
3, 0
2, 2
3, 2
3, 2
5, 1
2, 2
1, 0
3, 1
4, 1
0, 4
4, 2
2, 2
1, 3
1, 1
1, 4
4, 2
3, 4
3, 3
3, 3
2, 5
1, 6
4, 3
6, 2
4, 7
7, 5
5, 2
7, 1
9, 3
7, 0
9, 2
6, 4
5, 2
8, 2
11, 3
7, 1
7, 6
6, 4
3, 3
7, 2
5, 2
2, 1
3, 0
5, 0
5, 0
1, 2
3, 4
1, 2
2, 3
3, 2
0, 4
1, 3
4, 1
2, 3
3, 3
0, 7
4, 1
1, 1
3, 5
1, 3
2, 5
3, 2
0, 3
2, 3
1, 3
3, 2
0, 3
3, 2
1, 3
2, 0
4, 1
3, 2
2, 2
0, 2
3, 1
4, 2
1, 4
2, 1
0, 1
1, 0
1, 1
2, 1
0, 2
2, 2
1, 2
1, 2
1, 2
0, 2
3, 1
3, 1
2, 0
3, 3
1, 5
1, 3
0, 8
2, 1
1, 2
2, 1
1, 2
1, 0
0, 2
7, 2
2, 1
3, 3
5, 4
4, 3
2, 3
5, 5
6, 3
7, 5
2, 3
3, 4
7, 4
4, 1
6, 4
4, 2
4, 4
2, 1
1, 1
3, 3
1, 1
2, 0
1, 2
3, 3
1, 0
2, 2
0, 4
2, 3
3, 2
1, 3
2, 2
2, 6
3, 3
3, 5
4, 3
4, 3
2, 1
2, 3
0, 3
2, 1
4, 3
4, 2
2, 0
2, 1
4, 0
1, 2
1, 1
1, 1
1, 0
0, 2
2, 2
4, 0
1, 0
1, 0
0, 1
1, 4
1, 1
0, 2
0, 3
0, 2
4, 0
0, 2
1, 1
0, 0
2, 2
1, 0
0, 2
1, 0
1, 1
1, 0
0, 1
1, 0
2, 0
4, 1
1, 1
1, 0
0, 0
1, 0
0, 1
2, 2
1, 0
2, 1
1, 1
1, 0
0, 0
0, 0
1, 0
0, 0
1, 0
0, 1
0, 0
0, 0
0, 0
0, 1
2, 1
0, 3
1, 1
0, 0
2, 0
0, 1
0, 0
0, 1
2, 1
0, 1
1, 1
4, 1
2, 1
2, 0
1, 2
1, 1
0, 0
1, 0
1, 0
0, 0
0, 0
2, 0
2, 0
0, 0
1, 0
0, 0
0, 0
0, 1
1, 1
1, 0
2, 0
1, 0
0, 1
0, 0
1, 0
0, 0
0, 3
1, 0
0, 0
1, 0
1, 0
0, 1
0, 0
0, 0
0, 0
0, 0
1, 1
0, 2
0, 0
0, 0
0, 0
1, 0
0, 0
0, 0
0, 1
0, 0
0, 0
0, 1
1, 0
0, 0
0, 0
1, 0
0, 0
0, 0
2, 0
0, 0
1, 0
0, 1
1, 0
1, 1
0, 1
0, 0
0, 0
0, 1
0, 0
0, 0
0, 0
0, 0
0, 0
3, 1
0, 2
1, 0
0, 0
0, 0
1, 0
0, 0
0, 0
0, 0
0, 0
0, 1
2, 0
0, 1
0, 0
0, 0
0, 0
0, 0
1, 1
0, 0
1, 0
1, 1
0, 0
0, 1
0, 0
0, 0
0, 1
1, 1
1, 0
0, 0
1, 1
0, 0
0, 0
0, 0
0, 1
0, 1
0, 0
0, 0
0, 0
1, 0
1, 1
0, 0
0, 0
0, 0
0, 0
0, 0
0, 0
0, 0
2, 2
0, 0
0, 0
0, 0
0, 0
1, 0
0, 0
0, 0
1, 0
0, 0
1, 0
1, 0
0, 0
1, 0
0, 0
0, 0
1, 1
0, 0
0, 0
0, 0
0, 1
0, 0
0, 0
0, 0
1, 0
0, 0
0, 0
0, 0
1, 0
0, 0
0, 0
0, 0
0, 0
1, 2
0, 0
0, 0
0, 1
0, 0
1, 0
0, 0
0, 0
0, 0
0, 0
0, 1
0, 0
1, 0
0, 1
1, 1
0, 1
0, 0
0, 0
0, 2
0, 1
0, 0
1, 0
0, 0
0, 0
0, 2
0, 0
1, 0
1, 1
0, 1
0, 1
0, 0
1, 0
0, 0
0, 0
0, 0
0, 0
0, 0
0, 0
0, 0
0, 0
1, 0
0, 0
0, 0
1, 1
0, 0
0, 0
0, 0
0, 0
0, 0
0, 0
0, 0
0, 0
0, 0
0, 0
0, 0
0, 1
0, 0
0, 0
0, 0
0, 0
0, 0
0, 0
0, 0
0, 0
0, 0
0, 0
0, 0
0, 0
0, 2
0, 0
1, 0
0, 1
0, 1
0, 0
0, 0
0, 0
0, 0
0, 0
0, 1
0, 1
0, 0
1, 0
0, 0
0, 0
0, 0
0, 0
0, 0
1, 0
0, 0
0, 0
0, 0
0, 0
0, 0
0, 0
0, 0
0, 0
0, 0
0, 0
0, 0
0, 0
0, 0
0, 0
0, 0
0, 0
0, 0
0, 0
0, 0
0, 0
0, 0
0, 0
0, 0
0, 0
0, 0
0, 0
0, 0
0, 0
0, 0
0, 0
0, 0
0, 0
0, 0
0, 0
0, 0
0, 0
0, 0
0, 0
0, 0
0, 0
0, 0
0, 0
0, 0
0, 0
0, 0
0, 0
0, 0
0, 0
0, 0
0, 0
0, 0
1, 0
0, 0
0, 0
0, 0
0, 0
0, 0
0, 0
0, 0
0, 0
0, 0
0, 0
0, 0
0, 0
0, 0
0, 0
0, 0
1, 0
0, 0
0, 0
0, 0
0, 0
0, 0
0, 0
0, 0
0, 0
0, 0
0, 0
0, 0
0, 0
0, 0
0, 0
0, 0
0, 0
0, 0
0, 0
0, 0
0, 0
0, 0
0, 0
0, 0
0, 0
0, 0
0, 0
0, 0
0, 0
0, 0
0, 0
1, 0
0, 0
0, 0
0, 0
0, 0
0, 0
0, 0
0, 0
0, 0
0, 0
0, 0
0, 0
0, 0
0, 0
0, 0
0, 0
0, 0
0, 0
0, 0
0, 0
0, 0
0, 0
0, 0
0, 0
0, 0
0, 0
0, 0
0, 0
0, 0
0, 0
0, 0
0, 0
0, 0
0, 0
0, 0
1, 0
0, 0
0, 0
0, 0
0, 0
0, 0
0, 0
0, 0
0, 0
0, 0
0, 0
0, 0
0, 0
0, 0
0, 0
0, 0
0, 0
0, 0
0, 0
0, 0
0, 0
0, 0
0, 0
0, 0
0, 0
0, 0
0, 0
0, 0
0, 0
0, 0
0, 0
0, 0
0, 0
0, 0
0, 0
0, 0
0, 0
0, 0
0, 0
0, 0
0, 0
0, 0
0, 0
0, 0
0, 0
0, 0
0, 0
0, 0
0, 0
0, 0
0, 0
0, 0
0, 0
0, 0
0, 0
0, 0
0, 0
0, 0
0, 0
0, 0
0, 0
0, 0
0, 0
0, 0
0, 0
0, 0
0, 0
0, 0
0, 0
0, 0
0, 0
0, 0
0, 0
0, 0
0, 0
0, 0
0, 0
0, 0
0, 0
0, 0
0, 0
0, 0
0, 0
0, 0
0, 0
0, 0
0, 0
0, 0
0, 0
0, 0
0, 0
0, 0
0, 0
0, 0
0, 0
0, 0
0, 0
0, 0
0, 0
0, 0
0, 0
0, 0
0, 0
0, 0
0, 0
0, 0
0, 0
0, 0
0, 0
0, 0
0, 0
0, 0
0, 0
0, 0
0, 0
0, 0
0, 0
0, 0
0, 0
0, 0
0, 0
0, 0
0, 0
0, 0
0, 0
0, 0
0, 0
0, 0
0, 0
0, 0
0, 0
0, 0
0, 0
0, 0
0, 0
0, 0
0, 0
0, 0
0, 0
0, 0
0, 0
0, 0
0, 0
0, 0
0, 0
0, 0
0, 0
0, 0
0, 0
0, 0
0, 0
0, 0
0, 0
0, 0
0, 0
0, 0
0, 0
0, 0
0, 0
0, 0
0, 0
0, 0
0, 0
0, 0
0, 0
0, 0
0, 0
0, 0
0, 0
0, 0
0, 0
0, 0
0, 0
0, 0
0, 0
0, 0
0, 0
0, 0
0, 0
0, 0
0, 0
0, 0
0, 0
0, 0
0, 0
0, 0
0, 0
0, 0
0, 0
0, 0
0, 0
0, 0
0, 0
0, 0
0, 0
0, 0
0, 0
0, 0
0, 0
0, 0
0, 0
0, 0
0, 0
0, 0
0, 0
0, 0
0, 0
0, 0
0, 0
0, 0
0, 0
0, 0
0, 0
0, 0
0, 0
0, 0
0, 0
0, 0
0, 0
0, 0
0, 0
0, 0
0, 0
0, 0
0, 0
0, 0
0, 0
0, 0
0, 0
0, 0
0, 0
0, 0
0, 0
0, 0
0, 0
0, 0
0, 0
0, 0
0, 0
0, 0
0, 0
0, 0
0, 0
0, 0
0, 0
0, 0
0, 0
0, 0
0, 0
0, 0
0, 0
0, 0
0, 0
0, 0
0, 0
0, 0
0, 0
0, 0
0, 0
0, 0
0, 0
0, 0
0, 0
0, 0
0, 0
0, 0
0, 0
0, 0
0, 0
0, 0
0, 0
0, 0
0, 0
0, 0
0, 0
0, 0
0, 0
0, 0
0, 0
0, 0
0, 0
0, 0
0, 0
0, 0
0, 0
0, 0
0, 0
0, 0
0, 0
0, 0
0, 0
0, 0
0, 0
0, 0
0, 0
0, 0
0, 0
0, 0
0, 0
0, 0
0, 0
0, 0
0, 0
0, 0
0, 0
0, 0
0, 0
0, 0
0, 0
0, 0
0, 0
0, 0
0, 0
0, 0
0, 0
0, 0
0, 0
0, 0
0, 0
0, 0
0, 0
0, 0
0, 0
0, 0
0, 0
0, 0
0, 0
0, 0
0, 0
0, 0
0, 0
0, 0
0, 0
0, 0
0, 0
0, 0
0, 0
0, 0
0, 0
0, 0
0, 0
0, 0
0, 0
0, 0
0, 0
0, 0
0, 0
0, 0
0, 0
0, 0
0, 0
0, 0
0, 0
0, 0
0, 0
0, 0
0, 0
0, 0
0, 0
0, 0
#ENDOFDATA     end of spectrum data