File: host_upload/06-09-2024/ps_0852/dump3/ps__0852shot_2343.msa
#FORMAT      : EMSA/MAS spectral data file
#VERSION     : TC202v2.0 PIXL
#TITLE       : N/A
#DATE        :       Date in the format DD-MMM-YYYY, for example 07-JUL-2010
#TIME        :             The time of day at which the spectrum was recorded, in 24-hour format
#OWNER       : PIXL Flight Model       (PIXL will use this to indicate which instrument took the data.)
#NPOINTS     : 4096     Number of data points in the spectrum (This can be zero for configuration only files)
#NCOLUMNS    : 2     Number of data columns in the spectrum (This can be zero for configuration only files)
#XUNITS      : eV
#YUNITS      : COUNTS
#DATATYPE    : YY
#XPERCHAN    : 7.862, 7.881   eV per channel (separate by commas if more than one detector)
#OFFSET      : 18.5, -22.4         eV of first channel  (separate by commas if more than one detector
#SIGNALTYPE  : XRF
#YP_TEMP     : 2.332
#LIVETIME    : 8.56867, 8.56168   seconds (separate by commas if more than one detector)
#REALTIME    : 10, 10.0   seconds (separate by commas if more than one detector)
#SPECTRUM    : start of spectrum data
0, 0
0, 0
0, 0
0, 0
0, 0
0, 0
0, 0
0, 0
0, 0
0, 0
0, 0
0, 0
0, 0
0, 0
0, 0
0, 0
0, 0
0, 0
0, 0
0, 0
0, 0
0, 0
0, 0
0, 0
0, 0
0, 0
0, 0
0, 0
0, 0
0, 0
1, 0
0, 0
0, 1
0, 0
0, 1
2, 2
2, 0
1, 1
3, 0
1, 1
0, 4
2, 0
1, 0
1, 1
0, 3
1, 1
2, 3
1, 4
11, 7
14, 11
14, 25
41, 48
56, 63
52, 76
75, 85
70, 62
53, 61
39, 42
35, 37
12, 14
8, 9
7, 6
4, 4
4, 6
4, 4
7, 6
12, 6
9, 21
16, 27
34, 52
70, 98
154, 170
231, 260
305, 348
343, 414
361, 406
338, 398
250, 296
200, 183
111, 137
61, 71
41, 32
26, 12
10, 7
4, 8
2, 3
3, 1
2, 1
0, 8
2, 5
6, 6
7, 9
13, 9
23, 35
61, 58
96, 135
124, 152
180, 200
205, 221
199, 200
172, 211
172, 152
119, 93
59, 74
43, 32
40, 32
42, 16
36, 20
25, 16
28, 20
35, 22
51, 32
52, 44
53, 53
86, 45
72, 39
57, 50
49, 38
42, 31
29, 36
25, 21
22, 19
12, 22
19, 20
16, 21
16, 12
8, 10
12, 12
10, 6
6, 4
3, 3
4, 4
4, 2
5, 3
6, 2
3, 4
3, 4
8, 2
2, 4
5, 3
6, 1
4, 6
5, 1
4, 2
4, 5
3, 4
5, 2
0, 5
2, 2
4, 1
2, 3
9, 13
15, 13
14, 28
29, 33
29, 46
43, 38
41, 37
34, 42
39, 41
40, 28
19, 19
15, 19
11, 7
6, 4
5, 4
3, 4
8, 7
5, 10
7, 6
13, 6
8, 12
10, 7
8, 10
12, 12
11, 5
15, 6
10, 4
12, 5
12, 3
5, 3
7, 8
6, 6
2, 6
7, 10
6, 9
1, 12
3, 9
7, 9
4, 12
6, 6
9, 6
6, 8
4, 15
18, 9
4, 13
12, 10
11, 11
10, 14
16, 17
13, 10
10, 9
9, 8
6, 5
11, 9
3, 3
6, 6
1, 5
5, 2
7, 4
3, 8
5, 6
12, 6
10, 8
8, 6
2, 8
6, 6
5, 9
5, 4
6, 6
7, 5
7, 8
8, 6
4, 9
6, 12
6, 10
7, 8
12, 13
11, 21
12, 15
17, 20
16, 11
20, 12
14, 10
6, 10
10, 8
8, 10
8, 6
12, 11
9, 8
14, 7
24, 6
38, 7
63, 15
76, 18
84, 22
115, 31
140, 57
168, 60
169, 64
164, 73
151, 61
113, 66
83, 48
69, 42
60, 39
36, 27
25, 29
19, 22
21, 20
27, 31
25, 31
23, 69
63, 116
132, 209
245, 372
422, 559
676, 1004
1035, 1438
1409, 1843
1714, 2305
2032, 2489
2206, 2453
2148, 2391
1859, 1952
1540, 1544
1146, 1162
742, 780
515, 437
310, 289
172, 129
83, 77
48, 48
27, 27
18, 13
10, 20
12, 14
9, 17
13, 22
16, 20
19, 27
19, 36
45, 59
54, 87
91, 106
145, 165
183, 247
252, 292
281, 381
311, 375
327, 333
304, 351
286, 273
210, 234
165, 158
119, 124
83, 72
52, 49
40, 31
18, 18
11, 9
5, 16
4, 10
9, 13
9, 23
4, 13
11, 20
17, 21
11, 12
5, 22
9, 13
7, 11
19, 8
9, 7
5, 8
7, 5
8, 3
5, 5
7, 7
4, 7
3, 2
5, 4
0, 5
4, 7
6, 5
5, 6
4, 4
4, 1
1, 5
1, 5
4, 9
4, 5
1, 7
4, 5
5, 2
7, 5
3, 5
9, 5
10, 7
6, 7
4, 9
8, 2
8, 7
7, 4
10, 8
6, 5
4, 0
6, 1
2, 4
7, 4
1, 1
0, 3
2, 2
3, 6
6, 2
5, 8
3, 4
7, 2
4, 7
4, 6
5, 5
4, 6
6, 6
5, 2
9, 5
5, 7
5, 8
3, 3
1, 5
1, 4
1, 5
3, 7
4, 3
8, 3
1, 6
3, 3
5, 4
5, 4
5, 2
1, 7
5, 4
2, 2
6, 2
6, 1
6, 5
7, 3
8, 4
0, 3
9, 8
8, 0
12, 3
4, 1
10, 4
6, 7
5, 5
2, 7
5, 1
3, 0
5, 6
5, 3
0, 7
3, 4
6, 2
5, 5
4, 5
2, 8
3, 3
5, 2
7, 5
10, 4
5, 0
6, 1
3, 5
7, 6
5, 5
2, 3
1, 6
1, 7
3, 5
3, 2
4, 4
1, 6
2, 5
4, 5
3, 7
1, 9
3, 5
1, 8
0, 4
4, 4
0, 5
4, 4
3, 3
4, 6
4, 7
6, 3
0, 3
1, 5
5, 1
4, 2
0, 3
1, 3
3, 1
3, 3
1, 3
1, 2
3, 5
2, 2
5, 3
1, 1
2, 3
1, 6
3, 1
1, 3
2, 4
3, 1
5, 1
2, 4
1, 3
3, 1
1, 1
3, 3
2, 4
3, 2
1, 4
0, 3
4, 3
1, 1
2, 3
0, 2
2, 0
1, 1
0, 1
1, 4
2, 2
3, 2
0, 2
0, 1
1, 2
1, 4
6, 5
5, 5
8, 2
6, 2
2, 1
4, 4
11, 8
6, 3
10, 1
8, 2
4, 6
6, 5
2, 5
3, 1
7, 2
3, 2
5, 4
4, 1
1, 4
2, 0
2, 3
2, 1
2, 2
4, 3
3, 6
1, 3
2, 2
3, 2
2, 1
3, 2
0, 4
1, 2
0, 2
4, 2
2, 4
2, 1
1, 2
1, 0
1, 1
4, 4
2, 1
2, 2
4, 0
2, 1
3, 4
3, 2
4, 5
3, 3
3, 2
3, 4
5, 5
2, 5
3, 2
6, 3
4, 4
1, 7
4, 3
3, 2
1, 2
2, 0
1, 3
1, 1
1, 3
1, 1
1, 2
1, 0
0, 1
0, 1
2, 1
1, 1
1, 2
2, 3
2, 3
1, 1
6, 2
2, 3
0, 1
0, 6
0, 2
4, 2
0, 6
1, 1
2, 1
3, 3
1, 4
1, 1
1, 2
0, 0
1, 1
2, 1
2, 1
1, 1
0, 1
2, 0
0, 1
0, 2
3, 2
0, 0
3, 1
2, 1
1, 1
1, 2
0, 3
0, 5
1, 2
3, 1
1, 2
2, 4
1, 2
2, 0
0, 1
0, 3
1, 2
2, 1
4, 1
2, 0
1, 2
0, 2
0, 2
1, 2
0, 1
1, 0
0, 1
0, 3
0, 0
2, 2
0, 0
1, 1
1, 0
0, 1
2, 2
1, 1
1, 0
0, 0
0, 2
1, 0
0, 0
1, 2
1, 1
0, 0
0, 0
1, 2
0, 0
0, 0
1, 1
1, 0
1, 1
0, 0
1, 2
2, 1
0, 2
0, 1
0, 0
0, 1
1, 0
1, 1
0, 2
0, 0
2, 0
1, 1
0, 2
0, 1
2, 1
0, 2
0, 1
0, 1
1, 2
0, 1
1, 2
0, 0
0, 0
0, 0
0, 0
0, 1
0, 0
0, 0
0, 0
0, 1
0, 1
0, 0
0, 2
0, 1
0, 0
0, 0
0, 1
0, 0
0, 0
1, 1
0, 0
0, 0
0, 0
0, 1
0, 1
1, 0
0, 0
0, 0
0, 0
1, 1
0, 0
0, 0
0, 3
0, 1
0, 1
1, 0
0, 0
0, 0
0, 0
0, 1
2, 0
1, 0
0, 0
0, 1
0, 0
0, 0
0, 0
0, 1
0, 1
0, 1
0, 0
0, 1
0, 0
0, 0
1, 1
2, 0
0, 0
0, 0
0, 0
0, 0
0, 0
0, 0
1, 1
0, 0
0, 0
1, 0
0, 0
0, 2
0, 0
0, 0
0, 1
0, 1
0, 1
0, 2
0, 0
0, 0
0, 2
0, 0
0, 0
0, 0
1, 1
0, 1
0, 1
4, 1
0, 0
0, 1
0, 0
0, 0
1, 2
0, 0
1, 0
1, 0
0, 1
0, 1
0, 0
0, 0
0, 0
1, 0
0, 0
0, 2
0, 0
0, 0
2, 0
0, 0
0, 1
0, 0
0, 0
0, 0
0, 0
0, 0
0, 0
1, 0
0, 0
0, 0
0, 0
0, 0
0, 0
0, 0
0, 0
0, 0
0, 0
0, 0
1, 0
1, 0
0, 0
0, 0
0, 1
1, 0
0, 0
0, 0
0, 0
0, 0
2, 0
0, 0
1, 0
0, 0
1, 0
0, 0
1, 1
0, 0
0, 0
2, 0
0, 0
0, 0
0, 0
3, 0
0, 0
0, 0
2, 0
0, 0
1, 0
0, 0
0, 0
0, 0
1, 0
1, 1
0, 1
0, 0
0, 0
0, 0
0, 1
0, 0
0, 0
0, 0
1, 0
0, 0
0, 0
2, 0
0, 0
0, 0
0, 0
0, 0
0, 0
0, 0
0, 1
0, 0
0, 0
0, 0
0, 0
0, 0
0, 0
1, 0
0, 0
0, 0
0, 0
0, 0
0, 0
0, 0
0, 1
0, 0
0, 0
0, 1
0, 0
0, 0
0, 0
1, 0
1, 0
0, 0
0, 0
0, 0
0, 1
0, 0
1, 0
1, 0
0, 0
0, 0
0, 0
0, 1
0, 0
1, 0
0, 0
0, 0
0, 1
0, 0
0, 0
0, 0
0, 1
0, 0
0, 0
0, 0
1, 0
0, 0
0, 0
0, 0
0, 0
0, 0
0, 0
0, 1
0, 0
0, 0
0, 0
0, 0
0, 0
0, 0
0, 0
0, 0
0, 0
0, 0
0, 0
0, 0
0, 0
0, 0
0, 0
0, 0
0, 1
0, 0
0, 0
0, 0
0, 0
0, 1
0, 0
0, 0
1, 0
0, 0
0, 0
0, 0
0, 0
0, 0
0, 0
0, 0
0, 0
0, 0
0, 0
0, 0
0, 0
0, 0
0, 0
0, 0
0, 0
0, 0
0, 0
0, 0
0, 0
0, 0
0, 0
0, 1
0, 0
0, 0
0, 0
0, 0
0, 0
0, 0
0, 0
0, 0
1, 0
0, 0
0, 0
0, 0
0, 0
0, 0
0, 0
0, 0
0, 0
0, 0
0, 0
0, 0
0, 0
0, 0
0, 0
0, 0
0, 0
0, 0
0, 0
0, 0
0, 0
0, 0
0, 0
0, 0
0, 0
0, 0
0, 0
0, 0
0, 0
0, 0
0, 0
0, 0
0, 0
0, 0
0, 0
0, 1
0, 0
0, 0
0, 0
0, 0
0, 0
0, 0
1, 0
0, 0
0, 0
0, 0
0, 0
0, 0
0, 0
0, 0
0, 0
0, 0
0, 0
0, 0
0, 0
0, 0
0, 0
0, 0
0, 0
0, 0
0, 0
0, 0
0, 0
0, 0
0, 0
0, 0
0, 0
0, 0
0, 0
1, 0
0, 0
0, 0
0, 0
0, 0
0, 0
0, 0
0, 0
0, 0
0, 0
0, 0
0, 0
0, 0
0, 0
0, 0
0, 0
0, 0
0, 0
0, 0
0, 0
0, 0
0, 0
0, 0
0, 0
0, 0
0, 0
0, 0
0, 0
0, 0
0, 0
0, 0
0, 0
0, 0
0, 0
0, 0
0, 0
0, 0
0, 0
0, 0
0, 0
0, 0
0, 0
0, 0
0, 0
0, 0
0, 0
0, 0
0, 0
0, 0
0, 0
0, 0
0, 0
0, 0
0, 0
0, 0
0, 0
0, 0
0, 0
0, 0
0, 0
0, 0
0, 0
0, 0
0, 0
0, 0
0, 0
0, 0
0, 0
0, 0
0, 0
0, 0
0, 0
0, 0
0, 0
0, 0
0, 0
0, 0
0, 0
0, 0
0, 0
0, 0
0, 0
0, 0
0, 0
0, 0
0, 0
0, 0
0, 0
0, 0
0, 0
0, 0
0, 0
0, 0
0, 0
0, 0
0, 0
0, 0
0, 0
0, 0
0, 0
0, 0
0, 0
0, 0
0, 0
0, 0
0, 0
0, 0
0, 0
0, 0
0, 0
0, 0
0, 0
0, 0
0, 0
0, 0
0, 0
0, 0
0, 0
0, 0
0, 0
0, 0
0, 0
0, 0
0, 0
0, 0
0, 0
0, 0
0, 0
0, 0
0, 0
0, 0
0, 0
0, 0
0, 0
0, 0
0, 0
0, 0
0, 0
0, 0
0, 0
0, 0
0, 0
0, 0
0, 0
0, 0
0, 0
0, 0
0, 0
0, 0
0, 0
0, 0
0, 0
0, 0
0, 0
0, 0
0, 0
0, 0
0, 0
0, 0
0, 0
0, 0
0, 0
0, 0
0, 0
0, 0
0, 0
0, 0
0, 0
0, 0
0, 0
0, 0
0, 0
0, 0
0, 0
0, 0
0, 0
0, 0
0, 0
0, 0
0, 0
0, 0
0, 0
0, 0
0, 0
0, 0
0, 0
0, 0
0, 0
0, 0
0, 0
0, 0
0, 0
0, 0
0, 0
0, 0
0, 0
0, 0
0, 0
0, 0
0, 0
0, 0
0, 0
0, 0
0, 0
0, 0
0, 0
0, 0
0, 0
0, 0
0, 0
0, 0
0, 0
0, 0
0, 0
0, 0
0, 0
0, 0
0, 0
0, 0
0, 0
0, 0
0, 0
0, 0
0, 0
0, 0
0, 0
0, 0
0, 0
0, 0
0, 0
0, 0
0, 0
0, 0
0, 0
0, 0
0, 0
0, 0
0, 0
0, 0
0, 0
0, 0
0, 0
0, 0
0, 0
0, 0
0, 0
0, 0
0, 0
0, 0
0, 0
0, 0
0, 0
0, 0
0, 0
0, 0
0, 0
0, 0
0, 0
0, 0
0, 0
0, 0
0, 0
0, 0
0, 0
0, 0
0, 0
0, 0
0, 0
0, 0
0, 0
0, 0
0, 0
0, 0
0, 0
0, 0
0, 0
0, 0
0, 0
0, 0
0, 0
0, 0
0, 0
0, 0
0, 0
0, 0
0, 0
0, 0
0, 0
0, 0
0, 0
0, 0
0, 0
0, 0
0, 0
0, 0
0, 0
0, 0
0, 0
0, 0
0, 0
0, 0
0, 0
0, 0
0, 0
0, 0
0, 0
0, 0
0, 0
0, 0
0, 0
0, 0
0, 0
0, 0
0, 0
0, 0
0, 0
0, 0
0, 0
0, 0
0, 0
0, 0
0, 0
0, 0
0, 0
0, 0
0, 0
0, 0
0, 0
0, 0
0, 0
0, 0
0, 0
0, 0
0, 0
0, 0
0, 0
0, 0
0, 0
0, 0
0, 0
0, 0
0, 0
0, 0
0, 0
0, 0
0, 0
0, 0
0, 0
0, 0
0, 0
0, 0
0, 0
0, 0
0, 0
0, 0
#ENDOFDATA     end of spectrum data