File: host_upload/06-09-2024/ps_0852/dump3/ps__0852shot_2220.msa
#FORMAT      : EMSA/MAS spectral data file
#VERSION     : TC202v2.0 PIXL
#TITLE       : N/A
#DATE        :       Date in the format DD-MMM-YYYY, for example 07-JUL-2010
#TIME        :             The time of day at which the spectrum was recorded, in 24-hour format
#OWNER       : PIXL Flight Model       (PIXL will use this to indicate which instrument took the data.)
#NPOINTS     : 4096     Number of data points in the spectrum (This can be zero for configuration only files)
#NCOLUMNS    : 2     Number of data columns in the spectrum (This can be zero for configuration only files)
#XUNITS      : eV
#YUNITS      : COUNTS
#DATATYPE    : YY
#XPERCHAN    : 7.862, 7.881   eV per channel (separate by commas if more than one detector)
#OFFSET      : 18.5, -22.4         eV of first channel  (separate by commas if more than one detector
#SIGNALTYPE  : XRF
#YP_TEMP     : 2.556
#LIVETIME    : 8.56199, 8.5688   seconds (separate by commas if more than one detector)
#REALTIME    : 10, 10.0   seconds (separate by commas if more than one detector)
#SPECTRUM    : start of spectrum data
0, 0
0, 0
0, 0
0, 0
0, 0
0, 0
0, 0
0, 0
0, 0
0, 0
0, 0
0, 0
0, 0
0, 0
0, 0
0, 0
0, 0
0, 0
0, 0
0, 0
0, 0
0, 0
0, 0
0, 0
0, 0
0, 0
0, 0
0, 0
0, 0
0, 0
0, 1
0, 0
0, 0
0, 1
0, 2
1, 3
1, 10
0, 13
1, 15
1, 50
0, 32
0, 48
0, 45
1, 42
0, 36
0, 20
4, 14
1, 6
6, 13
18, 25
28, 31
41, 43
70, 54
90, 67
111, 79
96, 81
75, 75
39, 52
37, 31
11, 13
5, 9
3, 7
2, 7
1, 2
2, 4
5, 5
6, 9
13, 10
28, 29
48, 42
81, 62
189, 162
314, 258
371, 363
444, 401
439, 379
399, 328
304, 242
204, 196
145, 106
61, 53
45, 42
24, 16
16, 8
9, 11
2, 4
2, 5
1, 3
1, 2
1, 4
0, 3
0, 4
0, 5
1, 1
3, 2
1, 2
6, 6
0, 5
5, 4
6, 7
5, 4
7, 4
2, 4
1, 4
3, 7
6, 8
4, 37
9, 65
5, 154
6, 356
13, 695
17, 1165
16, 1856
38, 2582
28, 3155
27, 3252
25, 3103
30, 2553
18, 1775
20, 1156
17, 685
13, 311
20, 171
10, 64
10, 43
12, 15
8, 12
5, 6
9, 1
6, 10
3, 2
8, 5
6, 1
9, 0
7, 3
13, 4
10, 2
13, 2
18, 1
12, 2
10, 0
3, 2
1, 2
6, 1
1, 3
2, 1
3, 2
2, 1
4, 3
0, 0
2, 0
4, 1
1, 2
5, 11
14, 12
14, 13
19, 16
17, 16
16, 19
11, 12
14, 13
5, 8
8, 5
5, 5
3, 10
5, 3
5, 2
4, 2
2, 5
3, 8
5, 3
2, 2
3, 1
4, 4
5, 3
4, 4
3, 1
4, 5
4, 15
1, 3
3, 10
6, 5
6, 6
3, 4
2, 5
2, 3
4, 2
4, 8
4, 4
8, 9
3, 10
7, 9
11, 9
8, 8
7, 10
12, 10
11, 15
12, 13
27, 17
32, 12
44, 7
63, 2
94, 5
106, 8
123, 5
140, 3
130, 4
113, 8
115, 3
77, 4
58, 6
45, 3
17, 3
16, 4
9, 6
9, 4
5, 3
8, 7
5, 6
10, 7
3, 20
2, 19
7, 32
6, 41
4, 41
8, 76
11, 83
12, 89
10, 90
11, 95
11, 87
13, 65
15, 57
18, 30
7, 23
5, 15
5, 12
9, 7
8, 8
7, 7
13, 10
8, 7
9, 11
14, 10
7, 19
17, 28
25, 20
37, 38
47, 33
54, 59
54, 52
62, 71
74, 45
55, 49
46, 48
34, 34
30, 21
21, 12
18, 15
25, 21
21, 17
49, 28
47, 49
92, 106
167, 179
264, 353
485, 600
784, 880
1136, 1258
1649, 1744
1996, 2066
2379, 2363
2470, 2387
2364, 2239
2161, 1893
1799, 1470
1372, 1034
929, 691
607, 433
369, 261
195, 132
88, 69
60, 32
30, 24
9, 14
18, 17
13, 24
13, 26
21, 23
19, 35
33, 41
28, 50
38, 74
70, 107
99, 127
139, 160
215, 220
261, 292
278, 355
335, 353
348, 335
347, 318
323, 255
241, 223
224, 180
157, 107
79, 61
65, 43
27, 26
14, 16
10, 5
9, 6
5, 11
4, 15
14, 13
13, 11
12, 14
10, 13
19, 7
15, 11
12, 12
12, 8
3, 6
7, 6
5, 4
4, 6
2, 6
4, 3
6, 7
4, 5
3, 1
6, 11
4, 15
10, 12
11, 20
5, 23
17, 44
14, 36
18, 47
10, 69
26, 58
20, 75
17, 79
16, 58
17, 63
16, 45
9, 36
15, 25
9, 15
10, 14
2, 12
6, 5
5, 6
1, 4
7, 6
5, 10
5, 1
5, 4
3, 3
3, 3
1, 8
1, 6
1, 3
2, 2
2, 3
5, 3
6, 3
2, 2
5, 7
3, 3
5, 2
5, 0
5, 4
1, 1
7, 2
4, 0
5, 1
5, 6
4, 3
6, 9
1, 5
5, 5
2, 8
5, 11
5, 7
3, 12
1, 9
2, 7
5, 9
4, 9
4, 6
2, 7
7, 4
4, 3
1, 2
4, 8
1, 3
3, 3
1, 2
5, 1
4, 1
1, 4
3, 6
11, 8
2, 7
5, 7
3, 6
4, 9
3, 6
2, 7
7, 3
4, 5
9, 6
4, 2
2, 5
2, 5
2, 4
1, 3
1, 1
2, 6
4, 2
0, 5
3, 2
1, 2
1, 6
3, 2
3, 2
3, 2
2, 5
3, 2
3, 5
4, 1
4, 0
4, 2
7, 2
3, 1
5, 3
7, 2
6, 2
18, 3
16, 5
22, 3
12, 3
15, 1
25, 2
23, 4
11, 5
12, 2
11, 1
5, 5
10, 6
3, 8
1, 8
2, 12
1, 11
1, 3
4, 8
3, 7
0, 11
6, 8
6, 5
3, 7
2, 3
0, 2
5, 2
2, 5
4, 3
1, 2
3, 2
5, 2
2, 2
4, 2
3, 2
4, 2
3, 1
1, 3
2, 5
0, 3
6, 2
3, 1
3, 0
2, 0
3, 0
1, 1
0, 2
4, 1
1, 1
2, 0
2, 3
2, 2
0, 1
1, 2
1, 2
2, 3
4, 2
2, 2
3, 1
2, 3
3, 5
0, 0
2, 2
2, 5
1, 2
2, 5
1, 5
1, 8
2, 10
2, 7
6, 2
5, 4
5, 3
3, 0
8, 3
5, 4
6, 0
3, 2
2, 3
2, 2
3, 4
1, 4
3, 0
0, 3
2, 2
0, 0
0, 2
3, 2
2, 2
0, 2
2, 2
1, 3
3, 2
2, 0
3, 0
1, 3
1, 2
0, 0
4, 3
4, 1
11, 2
6, 4
4, 1
11, 4
5, 3
9, 4
3, 4
6, 5
4, 3
5, 4
2, 3
1, 2
2, 0
1, 2
0, 2
4, 0
1, 1
1, 0
1, 1
2, 1
2, 2
2, 3
2, 0
1, 0
0, 4
3, 3
3, 4
3, 2
2, 5
0, 5
4, 0
2, 4
2, 2
1, 1
5, 3
2, 3
1, 1
2, 1
2, 2
3, 1
2, 0
1, 1
1, 1
2, 0
1, 0
2, 0
0, 0
3, 4
0, 0
1, 3
1, 0
1, 2
0, 1
2, 0
0, 0
0, 1
1, 0
4, 1
1, 0
2, 2
0, 3
1, 2
0, 0
1, 0
0, 1
0, 1
0, 1
0, 1
0, 2
0, 2
0, 0
0, 1
2, 1
2, 2
3, 1
1, 2
1, 1
1, 2
3, 3
0, 2
1, 0
1, 1
1, 0
0, 4
1, 1
1, 1
1, 1
0, 0
2, 1
0, 1
0, 1
0, 2
2, 1
0, 0
0, 1
1, 2
0, 0
0, 3
1, 1
0, 2
0, 0
2, 2
2, 0
2, 1
0, 1
0, 0
0, 0
0, 0
0, 0
0, 0
0, 0
0, 0
1, 1
0, 0
0, 2
1, 0
2, 1
1, 1
0, 0
0, 1
0, 1
0, 0
1, 1
4, 0
0, 0
0, 0
0, 2
1, 0
0, 0
0, 1
1, 0
1, 0
1, 1
2, 0
0, 1
1, 4
0, 1
0, 2
0, 0
1, 0
0, 0
0, 1
4, 0
0, 0
1, 0
0, 0
0, 0
1, 1
1, 0
0, 1
0, 0
0, 0
0, 0
0, 1
0, 0
1, 0
1, 0
0, 2
0, 0
0, 0
2, 0
0, 0
0, 0
0, 0
0, 0
0, 0
1, 0
2, 0
0, 0
2, 0
1, 0
2, 0
2, 0
0, 0
0, 0
0, 2
0, 2
1, 0
0, 0
1, 1
0, 0
0, 1
0, 0
0, 2
0, 0
0, 0
0, 0
0, 0
0, 0
0, 0
0, 0
1, 1
1, 0
0, 1
0, 0
0, 0
0, 0
0, 0
0, 0
1, 1
0, 0
0, 2
0, 0
0, 0
1, 0
0, 0
0, 0
0, 1
2, 0
0, 0
0, 0
0, 0
1, 0
0, 0
1, 0
0, 0
1, 0
0, 0
1, 0
0, 0
0, 0
0, 0
0, 0
0, 0
0, 0
0, 1
2, 0
0, 0
0, 1
2, 0
0, 1
1, 0
0, 0
1, 2
0, 0
0, 0
0, 0
1, 0
0, 0
1, 0
0, 1
1, 0
0, 0
1, 0
0, 1
0, 0
1, 1
1, 0
1, 1
0, 1
0, 0
0, 1
2, 0
1, 0
0, 1
2, 3
0, 1
0, 0
0, 1
1, 2
0, 0
1, 0
0, 1
0, 0
0, 1
0, 1
0, 0
0, 0
0, 0
0, 0
0, 0
0, 2
0, 0
0, 2
0, 0
0, 0
0, 1
0, 0
0, 0
0, 0
0, 0
0, 0
0, 1
0, 0
0, 0
0, 0
0, 2
0, 0
0, 0
0, 0
1, 0
0, 0
0, 0
0, 0
0, 0
0, 0
0, 0
1, 0
0, 0
0, 0
0, 0
0, 0
0, 0
0, 0
0, 0
0, 0
1, 0
0, 0
0, 0
0, 1
0, 0
1, 0
0, 0
0, 0
0, 0
0, 1
0, 0
0, 0
0, 0
0, 0
0, 0
0, 0
0, 0
1, 0
1, 0
0, 0
1, 0
0, 1
0, 0
0, 0
0, 0
0, 1
1, 0
0, 0
0, 0
1, 0
0, 0
0, 0
0, 0
0, 0
0, 0
0, 0
0, 0
0, 1
0, 0
0, 0
0, 0
0, 0
0, 0
0, 0
0, 0
0, 0
0, 1
0, 0
0, 0
0, 0
0, 0
0, 0
0, 0
1, 0
0, 0
0, 0
1, 0
0, 0
0, 0
0, 0
0, 0
0, 0
0, 0
0, 0
0, 0
0, 0
0, 0
0, 0
0, 0
1, 1
0, 0
0, 0
0, 0
0, 0
0, 0
0, 0
0, 0
0, 0
0, 0
0, 0
0, 0
0, 0
0, 0
0, 0
0, 0
0, 0
0, 0
0, 0
0, 0
0, 0
0, 0
0, 0
0, 0
0, 0
0, 1
0, 0
0, 0
0, 0
0, 0
0, 0
0, 0
0, 0
0, 0
0, 0
0, 0
0, 0
0, 0
0, 0
1, 0
0, 0
0, 0
0, 1
0, 0
0, 0
0, 0
0, 0
0, 0
0, 0
0, 0
0, 0
0, 0
0, 0
0, 0
0, 0
0, 0
0, 0
0, 0
0, 0
0, 0
0, 0
0, 0
0, 0
0, 0
0, 0
0, 0
0, 0
0, 0
0, 0
0, 0
0, 0
0, 0
0, 0
0, 0
0, 0
0, 0
1, 0
0, 0
0, 0
0, 0
0, 0
0, 0
0, 0
0, 0
0, 0
0, 0
0, 0
0, 0
0, 0
0, 0
0, 0
0, 0
0, 0
0, 0
0, 0
0, 0
0, 0
0, 0
0, 0
0, 0
0, 0
0, 0
0, 0
0, 0
0, 0
0, 0
0, 0
0, 0
0, 0
0, 0
0, 0
0, 0
0, 0
0, 0
0, 0
0, 0
0, 0
0, 0
0, 0
0, 0
0, 0
0, 0
0, 0
0, 0
0, 0
0, 0
0, 0
0, 0
0, 0
0, 0
0, 0
0, 0
0, 0
0, 0
0, 0
0, 0
0, 0
0, 0
0, 0
0, 0
0, 0
0, 0
0, 0
0, 0
0, 0
0, 0
0, 0
0, 0
0, 0
0, 0
0, 0
0, 0
0, 0
0, 0
0, 0
0, 0
0, 0
0, 0
0, 0
0, 0
0, 0
0, 0
0, 0
0, 0
0, 0
0, 0
0, 0
0, 0
0, 0
0, 0
0, 0
0, 0
0, 0
0, 0
0, 0
0, 0
0, 0
0, 0
0, 0
0, 0
0, 0
0, 0
0, 0
0, 0
0, 0
0, 0
0, 0
0, 0
0, 0
0, 0
0, 0
0, 0
0, 0
0, 0
0, 0
0, 0
0, 0
0, 0
0, 0
0, 0
0, 0
0, 0
0, 0
0, 0
0, 0
0, 0
0, 0
0, 0
0, 0
0, 0
0, 0
0, 0
0, 0
0, 0
0, 0
0, 0
0, 0
0, 0
0, 0
0, 0
0, 0
0, 0
0, 0
0, 0
0, 0
0, 0
0, 0
0, 0
0, 0
0, 0
0, 0
0, 0
0, 0
0, 0
0, 0
0, 0
0, 0
0, 0
0, 0
0, 0
0, 0
0, 0
0, 0
0, 0
0, 0
0, 0
0, 0
0, 0
0, 0
0, 0
0, 0
0, 0
0, 0
0, 0
0, 0
0, 0
0, 0
0, 0
0, 0
0, 0
0, 0
0, 0
0, 0
0, 0
0, 0
0, 0
0, 0
0, 0
0, 0
0, 0
0, 0
0, 0
0, 0
0, 0
0, 0
0, 0
0, 0
0, 0
0, 0
0, 0
0, 0
0, 0
0, 0
0, 0
0, 0
0, 0
0, 0
0, 0
0, 0
0, 0
0, 0
0, 0
0, 0
0, 0
0, 0
0, 0
0, 0
0, 0
0, 0
0, 0
0, 0
0, 0
0, 0
0, 0
0, 0
0, 0
0, 0
0, 0
0, 0
0, 0
0, 0
0, 0
0, 0
0, 0
0, 0
0, 0
0, 0
0, 0
0, 0
0, 0
0, 0
0, 0
0, 0
0, 0
0, 0
0, 0
0, 0
0, 0
0, 0
0, 0
0, 0
0, 0
0, 0
0, 0
0, 0
0, 0
0, 0
0, 0
0, 0
0, 0
0, 0
0, 0
0, 0
0, 0
0, 0
0, 0
0, 0
0, 0
0, 0
0, 0
0, 0
0, 0
0, 0
0, 0
0, 0
0, 0
0, 0
0, 0
0, 0
0, 0
0, 0
0, 0
0, 0
0, 0
0, 0
0, 0
0, 0
0, 0
0, 0
0, 0
0, 0
0, 0
0, 0
0, 0
0, 0
0, 0
0, 0
0, 0
0, 0
0, 0
0, 0
0, 0
0, 0
0, 0
0, 0
0, 0
0, 0
0, 0
0, 0
0, 0
0, 0
0, 0
0, 0
0, 0
0, 0
0, 0
0, 0
0, 0
0, 0
0, 0
0, 0
0, 0
0, 0
0, 0
0, 0
0, 0
0, 0
0, 0
0, 0
0, 0
0, 0
0, 0
0, 0
0, 0
0, 0
0, 0
0, 0
0, 0
0, 0
0, 0
0, 0
0, 0
0, 0
0, 0
0, 0
0, 0
0, 0
0, 0
0, 0
0, 0
0, 0
0, 0
0, 0
0, 0
0, 0
0, 0
0, 0
0, 0
0, 0
0, 0
0, 0
0, 0
0, 0
0, 0
0, 0
0, 0
0, 0
0, 0
0, 0
0, 0
0, 0
0, 0
0, 0
#ENDOFDATA     end of spectrum data