File: host_upload/06-09-2024/ps_0852/dump3/ps__0852shot_2457.msa
#FORMAT      : EMSA/MAS spectral data file
#VERSION     : TC202v2.0 PIXL
#TITLE       : N/A
#DATE        :       Date in the format DD-MMM-YYYY, for example 07-JUL-2010
#TIME        :             The time of day at which the spectrum was recorded, in 24-hour format
#OWNER       : PIXL Flight Model       (PIXL will use this to indicate which instrument took the data.)
#NPOINTS     : 4096     Number of data points in the spectrum (This can be zero for configuration only files)
#NCOLUMNS    : 2     Number of data columns in the spectrum (This can be zero for configuration only files)
#XUNITS      : eV
#YUNITS      : COUNTS
#DATATYPE    : YY
#XPERCHAN    : 7.862, 7.881   eV per channel (separate by commas if more than one detector)
#OFFSET      : 18.5, -22.4         eV of first channel  (separate by commas if more than one detector
#SIGNALTYPE  : XRF
#YP_TEMP     : 2.332
#LIVETIME    : 8.52711, 8.5466   seconds (separate by commas if more than one detector)
#REALTIME    : 10, 10.0   seconds (separate by commas if more than one detector)
#SPECTRUM    : start of spectrum data
0, 0
0, 0
0, 0
0, 0
0, 0
0, 0
0, 0
0, 0
0, 0
0, 0
0, 0
0, 0
0, 0
0, 0
0, 0
0, 0
0, 0
0, 0
0, 0
0, 0
0, 0
0, 0
0, 0
0, 0
0, 0
0, 0
0, 0
0, 0
0, 0
0, 0
0, 0
0, 0
0, 0
0, 0
1, 0
0, 0
0, 1
0, 1
0, 0
0, 0
1, 1
0, 2
0, 0
0, 3
1, 1
2, 1
3, 3
2, 0
1, 3
8, 5
20, 27
48, 38
53, 57
80, 90
81, 70
66, 73
66, 48
27, 47
25, 21
17, 11
8, 4
6, 4
2, 1
3, 4
5, 1
6, 2
5, 6
11, 12
24, 16
55, 33
89, 95
176, 174
255, 291
372, 362
372, 441
411, 437
395, 357
285, 264
207, 201
123, 125
64, 60
29, 30
17, 19
10, 15
4, 8
2, 2
1, 4
4, 3
1, 3
2, 1
0, 4
1, 2
9, 4
21, 12
14, 12
35, 18
40, 33
61, 58
70, 80
68, 76
52, 46
58, 42
39, 31
33, 20
25, 17
21, 16
16, 8
17, 11
15, 8
30, 20
23, 22
31, 20
38, 28
41, 28
52, 37
47, 32
34, 27
44, 30
24, 31
35, 20
29, 20
23, 17
16, 25
14, 17
11, 17
13, 11
15, 14
6, 13
8, 9
6, 8
3, 7
6, 4
3, 4
3, 2
0, 0
5, 2
5, 2
1, 2
2, 3
2, 3
2, 0
3, 1
1, 5
2, 1
3, 4
4, 4
5, 2
5, 1
5, 2
7, 3
7, 7
13, 8
11, 14
23, 20
35, 26
33, 28
46, 39
51, 43
46, 27
35, 28
32, 33
25, 36
18, 29
7, 30
7, 26
5, 27
6, 16
5, 15
8, 20
4, 13
10, 10
11, 10
10, 13
13, 5
8, 5
8, 3
8, 1
2, 2
3, 1
3, 9
2, 1
3, 3
5, 1
5, 0
1, 1
0, 1
0, 2
2, 3
4, 5
6, 7
8, 13
8, 16
10, 14
13, 23
13, 18
14, 14
15, 18
11, 22
15, 16
10, 11
10, 15
9, 11
12, 8
6, 5
8, 8
7, 3
5, 12
9, 11
4, 21
7, 13
6, 24
14, 26
9, 17
12, 19
7, 29
6, 26
10, 12
1, 11
4, 11
6, 10
3, 7
4, 8
12, 7
8, 8
6, 8
11, 11
13, 22
23, 16
17, 20
26, 32
34, 27
29, 41
37, 38
33, 42
33, 40
35, 40
18, 35
21, 23
18, 19
6, 23
14, 15
11, 11
9, 10
9, 14
12, 13
21, 26
24, 26
43, 37
41, 44
59, 45
74, 47
76, 78
62, 63
67, 62
59, 38
52, 35
38, 16
29, 22
27, 18
21, 18
21, 17
32, 21
46, 55
80, 82
134, 190
274, 339
442, 562
739, 903
1101, 1261
1536, 1665
1872, 2088
2198, 2297
2297, 2387
2275, 2119
1964, 1917
1614, 1434
1304, 1029
883, 719
609, 463
361, 228
205, 124
103, 77
65, 36
33, 14
26, 19
28, 14
24, 7
18, 15
21, 21
18, 19
34, 34
43, 34
42, 60
101, 66
101, 114
145, 154
197, 203
262, 257
307, 302
346, 336
371, 304
340, 318
312, 252
250, 195
200, 154
123, 104
80, 52
48, 37
23, 24
18, 12
16, 4
8, 7
5, 5
4, 7
8, 9
6, 12
8, 8
10, 9
14, 13
8, 13
16, 10
9, 6
10, 4
9, 8
4, 9
7, 9
3, 8
3, 10
6, 3
8, 6
7, 8
4, 6
2, 8
3, 7
1, 5
2, 12
4, 5
6, 6
4, 11
5, 6
5, 10
3, 7
4, 11
1, 8
7, 6
3, 5
3, 3
11, 4
1, 6
4, 4
5, 4
3, 3
5, 4
11, 9
7, 10
5, 4
5, 10
3, 7
5, 8
9, 8
10, 3
7, 7
4, 6
11, 3
6, 5
4, 5
11, 2
10, 3
17, 4
16, 2
10, 6
10, 5
4, 11
5, 5
10, 5
13, 1
12, 4
14, 4
9, 3
9, 4
11, 2
5, 5
7, 4
10, 8
15, 3
8, 7
19, 3
9, 6
12, 5
10, 8
8, 4
12, 5
3, 7
5, 3
7, 5
9, 8
5, 3
6, 2
15, 4
7, 4
9, 3
6, 2
4, 8
9, 2
8, 3
7, 4
6, 2
5, 4
5, 4
6, 4
9, 3
5, 3
4, 6
4, 2
3, 1
3, 3
4, 7
6, 9
2, 10
5, 7
2, 4
2, 14
3, 9
4, 9
3, 7
4, 6
3, 7
0, 5
4, 4
3, 2
3, 0
2, 3
2, 1
2, 1
4, 4
6, 5
2, 3
3, 5
1, 5
4, 6
3, 4
3, 1
6, 3
5, 2
7, 7
2, 3
3, 4
3, 3
5, 2
5, 3
3, 5
2, 3
5, 1
1, 4
7, 1
3, 1
2, 3
3, 4
1, 2
3, 2
1, 0
3, 2
1, 3
5, 2
5, 3
3, 1
4, 3
3, 2
2, 2
5, 0
3, 3
4, 1
2, 2
4, 6
1, 5
4, 5
2, 3
2, 4
0, 7
1, 0
3, 2
3, 3
1, 3
3, 4
0, 3
2, 2
1, 1
1, 1
1, 1
3, 2
2, 1
3, 3
2, 3
3, 2
1, 2
4, 4
0, 4
3, 2
4, 3
4, 3
2, 3
1, 2
4, 0
1, 4
0, 7
1, 5
0, 1
2, 5
3, 6
4, 0
0, 2
6, 2
1, 6
0, 3
1, 2
0, 1
2, 3
3, 3
1, 3
1, 1
4, 4
3, 2
0, 7
4, 0
2, 1
2, 3
1, 5
1, 2
3, 3
2, 1
3, 2
3, 4
2, 1
4, 2
1, 4
1, 2
5, 2
7, 3
3, 2
2, 1
4, 7
1, 1
5, 4
2, 6
4, 6
3, 2
4, 4
4, 5
3, 4
5, 6
0, 2
3, 1
0, 3
0, 4
1, 0
0, 1
1, 0
1, 0
0, 3
1, 1
0, 0
1, 1
2, 1
3, 1
3, 2
2, 3
0, 3
0, 0
2, 3
1, 0
3, 2
1, 2
1, 3
1, 5
0, 2
5, 1
1, 2
0, 0
3, 0
2, 2
0, 2
3, 0
0, 2
0, 1
2, 3
2, 0
0, 1
3, 2
0, 2
2, 1
0, 1
1, 1
1, 1
1, 1
0, 1
0, 0
0, 1
0, 0
2, 1
1, 1
1, 1
1, 1
1, 2
2, 0
0, 0
0, 0
0, 1
1, 0
0, 0
0, 2
0, 0
1, 0
0, 1
2, 1
0, 0
0, 0
1, 2
1, 0
0, 2
0, 1
0, 1
1, 1
2, 1
1, 1
1, 0
0, 2
0, 1
0, 2
1, 1
2, 2
1, 1
2, 0
0, 0
0, 0
0, 2
0, 0
0, 1
2, 1
1, 0
2, 0
1, 2
1, 0
1, 1
0, 0
0, 0
0, 0
3, 2
1, 1
1, 1
2, 0
0, 1
1, 2
1, 0
0, 0
2, 0
1, 0
2, 0
1, 0
1, 0
1, 0
0, 0
0, 0
0, 1
1, 0
0, 0
0, 2
0, 3
0, 1
1, 1
0, 0
0, 0
0, 0
1, 0
0, 0
0, 0
1, 0
0, 1
2, 0
2, 0
0, 0
0, 0
0, 0
0, 0
0, 0
1, 0
0, 0
0, 0
0, 2
0, 1
0, 0
0, 2
0, 1
0, 0
0, 1
1, 0
0, 0
1, 1
0, 2
1, 1
0, 2
0, 0
0, 1
1, 1
0, 1
0, 0
0, 0
1, 0
0, 2
0, 1
0, 0
1, 0
0, 1
0, 0
2, 1
0, 0
0, 0
0, 0
0, 1
0, 1
1, 0
0, 1
0, 1
0, 0
0, 0
0, 0
1, 1
0, 0
0, 0
0, 0
0, 0
1, 0
1, 0
0, 0
0, 1
2, 0
0, 0
0, 0
1, 0
0, 0
0, 1
0, 0
1, 0
0, 0
0, 1
1, 0
1, 0
0, 0
0, 0
0, 0
0, 0
0, 0
0, 0
1, 0
0, 0
0, 0
1, 0
0, 0
0, 0
0, 1
0, 0
1, 0
0, 0
0, 0
0, 1
0, 0
1, 0
0, 1
1, 0
0, 0
0, 0
1, 0
0, 0
0, 1
0, 1
0, 1
0, 0
1, 1
1, 0
0, 0
0, 0
0, 1
0, 0
0, 0
0, 0
0, 0
0, 1
0, 0
0, 1
0, 3
0, 0
0, 0
1, 0
0, 0
1, 0
0, 0
0, 0
0, 1
0, 0
0, 1
0, 0
1, 0
2, 0
0, 2
0, 0
1, 1
0, 0
0, 1
0, 0
0, 0
0, 2
0, 0
0, 0
0, 0
0, 0
0, 0
0, 0
1, 0
0, 0
0, 0
0, 1
0, 0
0, 0
0, 0
0, 0
0, 0
0, 0
0, 0
0, 0
0, 0
0, 0
0, 0
0, 0
0, 0
0, 0
0, 0
0, 0
0, 0
0, 0
0, 0
0, 0
0, 0
0, 0
0, 0
0, 0
0, 0
0, 0
0, 0
0, 0
1, 0
0, 0
0, 1
0, 0
0, 1
0, 0
0, 0
0, 0
0, 0
0, 0
1, 0
0, 1
0, 0
0, 0
0, 0
0, 0
0, 0
0, 0
0, 0
0, 0
0, 0
0, 0
0, 1
0, 0
0, 0
0, 1
0, 0
0, 0
0, 0
0, 0
0, 0
0, 0
1, 0
1, 0
0, 0
0, 0
0, 0
0, 0
0, 0
0, 0
0, 0
0, 0
0, 1
1, 0
0, 0
1, 0
0, 0
0, 0
0, 0
0, 0
0, 1
0, 0
0, 0
0, 0
0, 1
0, 0
0, 0
1, 0
0, 0
0, 1
0, 0
0, 0
0, 0
0, 0
0, 0
0, 0
0, 0
0, 0
0, 0
0, 0
0, 0
0, 0
0, 0
0, 0
0, 0
0, 0
0, 0
0, 0
0, 0
0, 0
0, 0
0, 0
0, 0
1, 0
0, 0
0, 0
0, 0
0, 0
0, 1
0, 0
0, 0
0, 0
1, 0
0, 0
0, 0
0, 0
0, 0
0, 0
0, 0
0, 0
0, 0
0, 0
0, 0
0, 0
0, 0
0, 0
0, 0
0, 0
0, 0
0, 0
0, 0
0, 0
0, 0
0, 0
0, 0
0, 0
0, 0
0, 0
0, 0
0, 0
0, 0
0, 0
0, 0
0, 0
0, 0
0, 0
0, 0
0, 0
0, 1
0, 0
0, 0
0, 0
0, 0
0, 0
0, 0
0, 0
0, 0
0, 0
0, 0
0, 0
0, 0
0, 0
0, 0
0, 0
0, 0
0, 0
0, 0
0, 0
0, 0
0, 0
0, 0
0, 0
0, 0
0, 0
0, 0
0, 0
0, 0
0, 0
0, 0
0, 0
0, 0
0, 0
0, 0
0, 0
0, 0
0, 0
0, 0
0, 0
0, 0
0, 0
0, 0
0, 0
0, 0
0, 0
0, 0
0, 0
0, 0
0, 0
0, 0
0, 0
0, 0
0, 0
0, 0
0, 0
0, 0
0, 0
0, 0
0, 0
0, 0
0, 0
0, 0
0, 0
0, 0
0, 0
0, 0
0, 0
0, 0
0, 0
0, 0
0, 0
0, 0
0, 0
0, 0
0, 0
0, 0
0, 0
0, 0
0, 0
0, 0
0, 0
0, 0
0, 0
0, 0
0, 0
0, 0
0, 1
0, 0
0, 0
0, 0
0, 0
0, 0
0, 0
0, 0
0, 0
0, 0
0, 0
0, 0
0, 0
0, 0
0, 0
0, 0
0, 0
0, 0
0, 0
0, 0
0, 0
0, 0
0, 0
0, 0
0, 0
0, 0
0, 0
0, 0
0, 0
0, 0
0, 0
0, 0
0, 0
0, 0
0, 0
0, 0
0, 0
0, 0
0, 0
0, 0
0, 0
0, 0
0, 0
0, 0
0, 0
0, 0
0, 0
0, 0
0, 0
0, 0
0, 0
0, 0
0, 0
0, 0
0, 0
0, 0
0, 0
0, 0
0, 0
0, 0
0, 0
0, 0
0, 0
0, 0
0, 0
0, 0
0, 0
0, 0
0, 0
0, 0
0, 0
0, 0
0, 0
0, 0
0, 0
0, 0
0, 0
0, 0
0, 0
0, 0
0, 0
0, 0
0, 0
0, 0
0, 0
0, 0
0, 0
0, 0
0, 0
0, 0
0, 0
0, 0
0, 0
0, 0
0, 0
0, 0
0, 0
0, 0
0, 0
0, 0
0, 0
0, 0
0, 0
0, 0
0, 0
0, 0
0, 0
0, 0
0, 0
0, 0
0, 0
0, 0
0, 0
0, 0
0, 0
0, 0
0, 0
0, 0
0, 0
0, 0
0, 0
0, 0
0, 0
0, 0
0, 0
0, 0
0, 0
0, 0
0, 0
0, 0
0, 0
0, 0
0, 0
0, 0
0, 0
0, 0
0, 0
0, 0
0, 0
0, 0
0, 0
0, 0
0, 0
0, 0
0, 0
0, 0
0, 0
0, 0
0, 0
0, 0
0, 0
0, 0
0, 0
0, 0
0, 0
0, 0
0, 0
0, 0
0, 0
0, 0
0, 0
0, 0
0, 0
0, 0
0, 0
0, 0
0, 0
0, 0
0, 0
0, 0
0, 0
0, 0
0, 0
0, 0
0, 0
0, 0
0, 0
0, 0
0, 0
0, 0
0, 0
0, 0
0, 0
0, 0
0, 0
0, 0
0, 0
0, 0
0, 0
0, 0
0, 0
0, 0
0, 0
0, 0
0, 0
0, 0
0, 0
0, 0
0, 0
0, 0
0, 0
0, 0
0, 0
0, 0
0, 0
0, 0
0, 0
0, 0
0, 0
0, 0
0, 0
0, 0
0, 0
0, 0
0, 0
0, 0
0, 0
0, 0
0, 0
0, 0
0, 0
0, 0
0, 0
0, 0
0, 0
0, 0
0, 0
0, 0
0, 0
0, 0
0, 0
0, 0
0, 0
0, 0
0, 0
0, 0
0, 0
0, 0
0, 0
0, 0
0, 0
0, 0
0, 0
0, 0
0, 0
0, 0
0, 0
0, 0
0, 0
0, 0
0, 0
0, 0
0, 0
0, 0
0, 0
0, 0
0, 0
0, 0
0, 0
0, 0
0, 0
0, 0
0, 0
0, 0
0, 0
0, 0
0, 0
0, 0
0, 0
0, 0
0, 0
0, 0
0, 0
0, 0
0, 0
0, 0
0, 0
0, 0
0, 0
0, 0
0, 0
0, 0
0, 0
0, 0
0, 0
0, 0
0, 0
0, 0
0, 0
0, 0
0, 0
0, 0
0, 0
0, 0
0, 0
0, 0
0, 0
0, 0
0, 0
0, 0
0, 0
0, 0
0, 0
#ENDOFDATA     end of spectrum data