File: host_upload/06-09-2024/ps_0852/dump3/ps__0852shot_2267.msa
#FORMAT      : EMSA/MAS spectral data file
#VERSION     : TC202v2.0 PIXL
#TITLE       : N/A
#DATE        :       Date in the format DD-MMM-YYYY, for example 07-JUL-2010
#TIME        :             The time of day at which the spectrum was recorded, in 24-hour format
#OWNER       : PIXL Flight Model       (PIXL will use this to indicate which instrument took the data.)
#NPOINTS     : 4096     Number of data points in the spectrum (This can be zero for configuration only files)
#NCOLUMNS    : 2     Number of data columns in the spectrum (This can be zero for configuration only files)
#XUNITS      : eV
#YUNITS      : COUNTS
#DATATYPE    : YY
#XPERCHAN    : 7.862, 7.881   eV per channel (separate by commas if more than one detector)
#OFFSET      : 18.5, -22.4         eV of first channel  (separate by commas if more than one detector
#SIGNALTYPE  : XRF
#YP_TEMP     : 2.652
#LIVETIME    : 8.56224, 8.55961   seconds (separate by commas if more than one detector)
#REALTIME    : 10, 10.0   seconds (separate by commas if more than one detector)
#SPECTRUM    : start of spectrum data
0, 0
0, 0
0, 0
0, 0
0, 0
0, 0
0, 0
0, 0
0, 0
0, 0
0, 0
0, 0
0, 0
0, 0
0, 0
0, 0
0, 0
0, 0
0, 0
0, 0
0, 0
0, 0
0, 0
0, 0
0, 0
0, 0
0, 0
0, 0
0, 0
0, 0
0, 0
0, 1
0, 0
0, 0
0, 0
0, 1
0, 1
0, 6
2, 17
0, 21
2, 18
2, 22
1, 28
0, 27
2, 15
0, 16
4, 7
3, 6
7, 11
11, 13
25, 19
37, 38
51, 63
77, 104
89, 91
75, 85
58, 58
53, 42
27, 26
27, 15
8, 9
5, 4
2, 5
3, 6
5, 8
3, 2
5, 7
11, 16
21, 14
29, 46
104, 97
183, 152
306, 298
369, 399
435, 431
434, 414
342, 402
291, 299
200, 180
137, 123
69, 83
44, 43
21, 15
13, 15
1, 5
3, 4
3, 4
1, 3
3, 3
2, 2
0, 2
0, 1
1, 3
1, 1
2, 2
2, 4
4, 4
7, 3
4, 5
6, 4
4, 5
5, 2
3, 2
3, 7
2, 3
0, 7
6, 16
8, 45
7, 99
11, 211
17, 405
29, 652
30, 971
33, 1340
49, 1595
62, 1739
53, 1569
37, 1327
46, 845
42, 623
40, 361
24, 190
21, 77
23, 46
16, 22
11, 9
10, 13
9, 16
4, 14
8, 12
7, 3
8, 3
6, 3
5, 2
8, 1
13, 0
12, 3
13, 3
19, 0
8, 2
9, 1
4, 2
3, 1
7, 2
7, 2
4, 3
4, 2
8, 2
2, 2
4, 4
1, 0
5, 7
11, 13
16, 21
24, 31
29, 36
35, 40
43, 51
48, 58
47, 44
30, 28
27, 33
16, 21
15, 14
5, 11
2, 19
3, 18
11, 27
6, 35
6, 48
14, 36
6, 30
8, 25
11, 19
9, 17
10, 14
12, 16
3, 14
5, 17
8, 15
9, 8
7, 11
6, 4
8, 5
5, 7
6, 7
2, 9
4, 7
4, 10
16, 8
8, 9
10, 19
13, 14
10, 14
18, 18
10, 18
15, 19
23, 13
18, 11
33, 12
43, 12
59, 11
71, 5
96, 7
136, 10
130, 12
136, 7
110, 12
109, 11
98, 7
64, 7
38, 7
29, 3
24, 4
10, 8
6, 5
6, 5
5, 6
7, 7
5, 5
5, 4
8, 9
5, 5
12, 7
15, 7
6, 12
16, 7
24, 21
17, 24
19, 20
12, 28
12, 21
21, 12
12, 20
26, 15
22, 11
24, 12
20, 9
15, 12
7, 11
13, 8
11, 12
16, 19
15, 27
16, 18
9, 32
19, 51
40, 46
36, 45
51, 64
42, 59
56, 65
60, 61
46, 47
35, 40
39, 29
31, 25
30, 16
20, 10
18, 16
19, 18
27, 41
43, 57
92, 93
151, 162
293, 341
495, 600
726, 937
1123, 1318
1550, 1804
1919, 2080
2143, 2304
2377, 2468
2262, 2141
2066, 1922
1753, 1524
1285, 1079
915, 683
575, 417
346, 250
195, 124
123, 80
61, 33
38, 26
29, 25
23, 24
18, 23
12, 42
29, 36
22, 43
37, 48
43, 70
57, 87
63, 103
94, 139
137, 191
197, 254
236, 299
301, 339
309, 322
303, 376
337, 317
265, 281
231, 245
173, 163
132, 98
88, 69
62, 40
26, 25
13, 9
4, 9
9, 11
6, 6
10, 8
10, 9
4, 13
16, 12
20, 12
21, 12
13, 9
13, 10
12, 9
8, 7
10, 10
6, 9
2, 9
3, 3
4, 5
4, 15
8, 6
1, 12
4, 15
7, 18
5, 26
7, 19
13, 25
12, 28
14, 25
14, 18
23, 17
28, 9
22, 8
33, 5
38, 4
42, 16
26, 9
23, 7
31, 13
10, 12
13, 14
7, 14
7, 21
6, 16
4, 18
6, 11
4, 17
5, 14
4, 6
3, 11
0, 4
3, 6
1, 4
2, 4
4, 4
1, 5
0, 1
3, 3
5, 4
3, 3
5, 2
5, 5
7, 6
2, 4
4, 4
4, 3
3, 5
4, 4
3, 3
2, 9
1, 4
3, 6
2, 3
6, 5
0, 5
6, 7
2, 6
2, 5
1, 7
3, 10
1, 3
5, 8
9, 3
2, 5
4, 6
5, 2
3, 6
5, 5
10, 4
3, 7
7, 7
11, 4
5, 4
3, 4
2, 3
10, 3
1, 2
5, 4
5, 7
6, 1
0, 2
5, 3
9, 2
4, 1
4, 5
3, 2
3, 3
1, 1
1, 5
2, 0
2, 4
2, 7
5, 3
3, 4
6, 2
3, 5
2, 4
5, 4
1, 2
6, 4
6, 2
2, 4
2, 5
7, 3
4, 0
3, 8
6, 3
4, 3
2, 5
11, 6
10, 5
15, 8
11, 11
25, 6
21, 7
16, 5
13, 7
16, 5
12, 2
7, 6
7, 1
6, 3
5, 5
7, 2
5, 1
2, 2
6, 3
5, 6
2, 5
3, 3
4, 2
2, 4
3, 5
1, 6
5, 3
1, 6
2, 5
1, 3
3, 1
2, 2
3, 4
3, 4
4, 4
2, 2
3, 2
5, 2
1, 1
2, 2
3, 4
7, 2
3, 2
1, 2
2, 0
2, 3
2, 1
1, 2
2, 0
2, 5
3, 3
2, 1
3, 4
5, 0
2, 1
1, 1
3, 3
1, 3
5, 4
1, 2
1, 1
1, 6
0, 1
4, 2
1, 4
2, 1
5, 1
5, 3
3, 1
0, 5
1, 1
4, 2
3, 0
4, 1
1, 5
4, 4
6, 3
4, 2
2, 1
1, 3
0, 1
4, 3
3, 0
0, 1
3, 5
2, 1
0, 3
1, 3
1, 3
0, 2
2, 1
1, 3
3, 2
3, 3
1, 3
2, 4
4, 1
3, 2
3, 1
3, 4
0, 3
5, 0
6, 1
2, 1
3, 2
3, 3
5, 7
3, 3
5, 4
7, 2
3, 3
2, 3
1, 1
1, 4
2, 4
0, 3
0, 0
1, 1
2, 0
4, 2
2, 1
3, 2
1, 2
1, 3
1, 1
3, 3
3, 4
1, 2
1, 2
1, 1
3, 0
1, 1
0, 2
0, 2
3, 3
0, 1
0, 4
2, 1
0, 1
0, 2
1, 1
1, 0
1, 1
0, 0
0, 2
1, 0
0, 1
2, 1
2, 0
2, 2
1, 0
1, 1
1, 1
1, 0
1, 1
2, 1
1, 1
0, 0
1, 0
0, 0
0, 1
0, 0
0, 2
0, 3
0, 0
3, 0
0, 0
0, 1
2, 0
1, 0
2, 1
3, 0
2, 2
1, 1
1, 0
2, 1
0, 0
4, 3
1, 2
1, 0
3, 0
1, 0
2, 1
5, 1
2, 0
1, 0
2, 0
0, 0
1, 0
1, 0
0, 0
2, 0
0, 0
1, 0
0, 1
0, 0
0, 0
0, 0
2, 2
6, 0
0, 0
1, 0
1, 3
1, 0
2, 1
0, 3
1, 0
0, 1
0, 1
1, 2
0, 0
0, 2
1, 2
2, 0
1, 0
0, 0
0, 0
0, 1
1, 1
4, 0
1, 0
1, 0
0, 1
2, 0
0, 0
0, 0
0, 2
0, 1
0, 3
0, 0
1, 0
2, 1
0, 3
0, 0
0, 2
0, 2
1, 1
0, 1
1, 0
0, 1
0, 0
0, 0
1, 1
0, 0
1, 2
2, 0
0, 1
1, 1
0, 0
0, 0
0, 1
1, 1
0, 0
1, 0
0, 1
1, 1
1, 1
1, 0
1, 0
1, 0
2, 0
0, 0
1, 0
0, 0
0, 1
2, 1
1, 0
0, 1
0, 0
1, 0
0, 0
1, 0
0, 0
1, 0
2, 1
1, 1
0, 0
0, 1
0, 1
0, 0
0, 2
0, 0
0, 1
0, 0
0, 1
1, 0
0, 0
1, 1
0, 0
0, 0
1, 1
0, 1
1, 1
0, 0
0, 0
1, 1
0, 0
0, 0
1, 0
0, 0
0, 0
0, 0
0, 1
0, 0
0, 0
0, 1
0, 0
0, 1
0, 0
0, 0
0, 0
0, 0
0, 0
0, 1
0, 0
0, 1
0, 0
0, 0
1, 0
0, 0
0, 0
0, 0
0, 1
0, 0
1, 0
0, 1
0, 0
0, 0
0, 1
0, 1
0, 0
0, 0
0, 0
0, 2
1, 1
0, 0
0, 0
0, 0
1, 2
0, 0
0, 0
0, 0
1, 0
0, 0
0, 0
0, 1
1, 0
1, 1
0, 0
0, 0
0, 0
0, 0
0, 0
0, 0
0, 0
0, 0
0, 2
2, 0
0, 0
0, 1
0, 0
0, 1
1, 0
0, 1
0, 0
0, 1
1, 0
0, 0
0, 0
0, 1
0, 0
0, 1
0, 0
0, 0
0, 0
0, 0
0, 0
0, 0
0, 0
0, 1
1, 1
0, 1
1, 0
2, 0
1, 1
0, 0
0, 0
0, 0
0, 0
0, 0
0, 0
0, 1
0, 2
1, 0
0, 0
0, 0
0, 0
0, 0
0, 0
0, 0
0, 1
0, 0
0, 0
1, 0
0, 1
1, 0
1, 0
0, 0
0, 0
0, 0
0, 0
0, 1
0, 1
0, 0
0, 0
0, 0
0, 0
0, 0
0, 0
0, 0
0, 0
0, 1
0, 0
0, 0
0, 0
0, 0
0, 0
0, 0
0, 0
0, 0
0, 0
0, 1
0, 0
1, 0
0, 0
0, 0
0, 0
0, 0
0, 0
0, 0
0, 0
0, 0
0, 1
0, 0
0, 0
0, 0
0, 0
0, 0
0, 0
0, 0
0, 0
0, 0
0, 0
0, 0
0, 0
0, 0
1, 0
0, 0
0, 0
0, 0
0, 0
1, 1
0, 0
0, 0
0, 0
0, 0
0, 0
0, 0
0, 0
0, 0
0, 0
0, 0
0, 0
1, 0
0, 0
2, 0
0, 0
0, 0
0, 0
0, 0
0, 0
0, 0
0, 0
0, 0
0, 0
0, 0
0, 0
0, 0
0, 0
0, 0
0, 1
0, 0
0, 0
0, 0
0, 0
0, 0
0, 0
0, 0
0, 0
0, 0
0, 0
1, 0
0, 0
0, 0
0, 0
0, 0
0, 0
0, 0
0, 0
0, 0
0, 0
0, 0
0, 0
0, 0
0, 0
0, 0
1, 0
0, 0
0, 0
0, 0
0, 0
0, 0
0, 0
0, 0
0, 0
0, 0
0, 0
0, 0
0, 0
0, 0
0, 0
0, 0
0, 0
0, 0
0, 0
0, 0
0, 0
0, 0
1, 0
0, 0
0, 0
0, 0
0, 0
0, 0
0, 0
0, 0
0, 0
0, 0
0, 1
0, 0
0, 0
0, 0
0, 0
0, 0
0, 0
0, 0
0, 0
0, 0
0, 0
0, 0
0, 0
0, 0
0, 0
0, 0
0, 0
0, 0
0, 0
0, 0
0, 0
0, 1
0, 0
0, 0
0, 0
0, 0
0, 0
0, 0
0, 0
0, 0
0, 0
0, 0
0, 0
0, 0
0, 0
0, 0
0, 0
0, 0
0, 0
0, 0
0, 0
0, 0
0, 0
0, 0
0, 0
0, 0
0, 0
0, 0
0, 0
0, 0
0, 0
0, 0
0, 0
0, 0
0, 0
0, 0
0, 0
0, 0
0, 0
0, 0
0, 0
0, 0
0, 0
0, 0
0, 0
0, 0
0, 0
0, 0
0, 0
0, 0
0, 0
0, 0
0, 0
0, 0
0, 0
0, 0
0, 0
0, 0
0, 0
0, 0
0, 0
0, 0
0, 0
0, 0
0, 0
0, 0
0, 0
0, 0
0, 0
0, 0
0, 0
0, 0
0, 0
0, 0
0, 0
0, 0
0, 0
0, 0
0, 0
0, 0
0, 0
0, 0
0, 0
0, 0
0, 0
0, 0
0, 0
0, 0
0, 0
0, 0
0, 0
0, 0
0, 0
0, 0
0, 0
0, 0
0, 0
0, 0
0, 0
0, 0
0, 0
0, 0
0, 0
0, 0
0, 0
0, 0
0, 0
0, 0
1, 0
0, 0
0, 0
0, 0
0, 0
0, 0
0, 0
0, 0
0, 0
0, 0
0, 0
0, 0
0, 0
0, 0
0, 0
0, 0
0, 0
0, 0
0, 0
0, 0
0, 0
0, 0
0, 0
0, 0
0, 0
0, 0
0, 0
0, 0
0, 0
0, 0
0, 0
0, 0
0, 0
0, 0
0, 0
0, 0
0, 0
0, 0
0, 0
0, 0
0, 0
0, 0
0, 0
0, 0
0, 0
0, 0
0, 0
0, 0
0, 0
0, 0
0, 0
0, 0
0, 0
0, 0
0, 0
0, 0
0, 0
0, 0
0, 0
0, 0
0, 0
0, 0
0, 0
0, 0
0, 0
0, 0
0, 0
0, 0
0, 0
0, 0
0, 0
0, 0
0, 0
0, 0
0, 0
0, 0
0, 0
0, 0
0, 0
0, 0
0, 0
0, 0
0, 0
0, 0
0, 0
0, 0
0, 0
0, 0
0, 0
0, 0
0, 0
0, 0
0, 0
0, 0
0, 0
0, 0
0, 0
0, 0
0, 0
0, 0
0, 0
0, 0
0, 0
0, 0
0, 0
0, 0
0, 0
0, 0
0, 0
0, 0
0, 0
0, 0
0, 0
0, 0
0, 0
0, 0
0, 0
0, 0
0, 0
0, 0
0, 0
0, 0
0, 0
0, 0
0, 0
0, 0
0, 0
0, 0
0, 0
0, 0
0, 0
0, 0
0, 0
0, 0
0, 0
0, 0
0, 0
0, 0
0, 0
0, 0
0, 0
0, 0
0, 0
0, 0
0, 0
0, 0
0, 0
0, 0
0, 0
0, 0
0, 0
0, 0
0, 0
0, 0
0, 0
0, 0
0, 0
0, 0
0, 0
0, 0
0, 0
0, 0
0, 0
0, 0
0, 0
0, 0
0, 0
0, 0
0, 0
0, 0
0, 0
0, 0
0, 0
0, 0
0, 0
0, 0
0, 0
0, 0
0, 0
0, 0
0, 0
0, 0
0, 0
0, 0
0, 0
0, 0
0, 0
0, 0
0, 0
0, 0
0, 0
0, 0
0, 0
0, 0
0, 0
0, 0
0, 0
0, 0
0, 0
0, 0
0, 0
0, 0
0, 0
0, 0
0, 0
0, 0
0, 0
0, 0
0, 0
0, 0
0, 0
0, 0
0, 0
0, 0
0, 0
0, 0
0, 0
0, 0
0, 0
0, 0
0, 0
0, 0
0, 0
0, 0
0, 0
0, 0
0, 0
0, 0
0, 0
0, 0
0, 0
0, 0
0, 0
0, 0
0, 0
0, 0
0, 0
0, 0
0, 0
0, 0
0, 0
0, 0
0, 0
0, 0
0, 0
0, 0
0, 0
0, 0
0, 0
0, 0
0, 0
0, 0
0, 0
#ENDOFDATA     end of spectrum data