File: host_upload/06-09-2024/ps_0852/dump3/ps__0852shot_2065.msa
#FORMAT      : EMSA/MAS spectral data file
#VERSION     : TC202v2.0 PIXL
#TITLE       : N/A
#DATE        :       Date in the format DD-MMM-YYYY, for example 07-JUL-2010
#TIME        :             The time of day at which the spectrum was recorded, in 24-hour format
#OWNER       : PIXL Flight Model       (PIXL will use this to indicate which instrument took the data.)
#NPOINTS     : 4096     Number of data points in the spectrum (This can be zero for configuration only files)
#NCOLUMNS    : 2     Number of data columns in the spectrum (This can be zero for configuration only files)
#XUNITS      : eV
#YUNITS      : COUNTS
#DATATYPE    : YY
#XPERCHAN    : 7.862, 7.881   eV per channel (separate by commas if more than one detector)
#OFFSET      : 18.5, -22.4         eV of first channel  (separate by commas if more than one detector
#SIGNALTYPE  : XRF
#YP_TEMP     : 2.556
#LIVETIME    : 8.55145, 8.54986   seconds (separate by commas if more than one detector)
#REALTIME    : 10, 10.0   seconds (separate by commas if more than one detector)
#SPECTRUM    : start of spectrum data
0, 0
0, 0
0, 0
0, 0
0, 0
0, 0
0, 0
0, 0
0, 0
0, 0
0, 0
0, 0
0, 0
0, 0
0, 0
0, 0
0, 0
0, 0
0, 0
0, 0
0, 0
0, 0
0, 0
0, 0
0, 0
0, 0
0, 0
0, 0
0, 0
0, 1
0, 0
0, 0
0, 0
0, 0
0, 0
1, 0
0, 0
0, 0
1, 1
0, 1
0, 2
2, 1
0, 3
0, 2
1, 0
3, 0
1, 3
3, 3
5, 3
15, 12
25, 23
44, 41
43, 53
66, 57
79, 80
79, 68
58, 56
49, 29
29, 18
10, 11
9, 10
7, 5
6, 5
4, 1
5, 5
5, 3
5, 4
12, 12
22, 29
52, 49
104, 118
174, 187
261, 284
395, 448
443, 471
461, 534
431, 433
310, 304
230, 208
153, 153
88, 87
34, 43
33, 25
7, 13
10, 7
5, 3
8, 2
4, 0
6, 0
10, 2
4, 1
5, 0
9, 1
14, 1
17, 4
4, 3
14, 2
9, 3
11, 6
10, 5
7, 2
5, 11
9, 1
4, 9
6, 10
3, 9
2, 14
5, 14
10, 11
5, 21
13, 24
27, 28
31, 39
32, 34
21, 37
32, 33
32, 34
30, 34
30, 29
24, 31
17, 27
23, 21
16, 15
21, 13
16, 13
10, 9
15, 9
12, 13
8, 6
9, 6
5, 6
4, 4
2, 1
4, 3
4, 1
1, 2
4, 2
2, 4
1, 2
2, 2
3, 2
4, 3
1, 1
1, 0
5, 1
3, 2
4, 4
3, 4
4, 5
6, 8
6, 19
16, 23
27, 43
56, 80
98, 119
138, 142
156, 205
182, 209
177, 183
167, 148
126, 145
91, 98
63, 50
32, 28
19, 27
16, 20
12, 10
17, 18
25, 29
29, 24
34, 30
41, 42
44, 28
55, 27
48, 23
56, 14
71, 16
82, 7
88, 7
77, 6
66, 3
55, 4
51, 6
42, 6
24, 6
28, 4
9, 1
19, 2
15, 6
6, 7
16, 8
17, 19
13, 16
20, 17
19, 13
21, 18
14, 10
13, 15
14, 14
14, 11
9, 12
9, 11
7, 8
17, 6
6, 5
4, 6
6, 5
3, 5
6, 8
5, 5
7, 3
9, 8
6, 7
7, 12
4, 6
3, 11
4, 6
5, 6
5, 3
5, 5
6, 7
5, 10
2, 5
9, 7
8, 8
11, 14
15, 12
16, 16
26, 23
17, 36
23, 28
33, 27
36, 32
25, 20
19, 14
22, 25
13, 21
21, 25
8, 31
11, 50
10, 73
7, 64
7, 83
13, 89
28, 109
29, 113
34, 91
21, 74
55, 82
57, 77
63, 70
78, 64
58, 41
47, 45
64, 39
24, 34
27, 25
21, 22
19, 22
25, 17
26, 18
28, 46
49, 50
78, 106
144, 169
259, 290
430, 523
671, 811
1008, 1061
1392, 1463
1684, 1829
1966, 1893
2059, 2081
2112, 1957
1860, 1673
1568, 1295
1172, 902
837, 646
544, 424
351, 246
206, 129
118, 65
79, 40
32, 32
28, 14
19, 18
16, 14
15, 21
14, 15
17, 22
18, 20
26, 25
43, 39
72, 69
82, 109
118, 130
164, 200
245, 265
306, 279
271, 295
291, 311
271, 270
258, 251
225, 177
160, 130
101, 84
81, 82
51, 36
26, 18
15, 11
10, 8
12, 7
10, 7
12, 15
10, 7
12, 9
14, 20
12, 8
14, 19
10, 29
9, 20
10, 19
12, 14
12, 21
10, 16
13, 14
7, 21
2, 11
6, 10
5, 5
2, 2
5, 11
3, 9
4, 9
4, 2
3, 2
1, 7
3, 6
4, 8
2, 7
3, 9
4, 10
9, 2
8, 7
3, 5
6, 8
10, 1
15, 5
8, 7
5, 2
9, 9
9, 12
14, 7
11, 10
9, 8
18, 6
8, 10
9, 4
10, 3
10, 6
12, 3
8, 4
6, 1
7, 5
6, 4
7, 1
6, 6
7, 2
7, 4
3, 5
7, 6
9, 2
7, 3
4, 6
5, 3
5, 9
5, 6
5, 2
3, 5
8, 13
7, 5
4, 7
11, 8
5, 9
4, 6
11, 4
6, 8
3, 4
8, 13
5, 8
7, 10
4, 13
4, 5
0, 10
4, 6
4, 10
3, 5
4, 6
3, 9
2, 8
5, 4
2, 1
7, 4
2, 2
4, 5
2, 1
3, 3
2, 4
4, 3
2, 2
4, 4
2, 5
2, 2
2, 3
1, 6
2, 4
3, 6
2, 2
4, 2
4, 2
7, 4
1, 7
3, 4
5, 4
2, 3
3, 5
6, 6
4, 5
2, 5
4, 8
3, 3
4, 7
5, 1
7, 8
2, 2
1, 1
2, 7
4, 4
2, 5
3, 3
2, 2
5, 4
5, 3
2, 5
5, 5
4, 3
5, 4
4, 1
4, 2
5, 1
1, 1
3, 3
3, 3
6, 2
5, 1
1, 3
3, 3
2, 3
0, 3
5, 6
3, 3
5, 4
5, 2
3, 2
3, 0
2, 1
6, 3
3, 1
1, 3
2, 0
2, 2
7, 5
3, 4
3, 6
6, 1
1, 2
1, 5
2, 1
1, 7
0, 6
1, 5
2, 3
3, 5
2, 4
2, 3
1, 8
1, 2
1, 9
2, 4
5, 1
0, 3
5, 3
2, 1
2, 3
0, 2
1, 1
2, 3
3, 0
2, 2
0, 0
2, 1
3, 0
0, 3
0, 0
2, 0
1, 1
2, 3
2, 2
2, 3
3, 1
2, 4
4, 2
1, 1
1, 0
4, 3
1, 1
4, 2
2, 5
1, 2
1, 3
2, 0
1, 0
2, 3
2, 3
4, 3
3, 2
5, 2
3, 1
3, 2
2, 1
2, 3
1, 4
3, 3
0, 1
3, 2
1, 4
3, 0
4, 4
3, 3
1, 3
4, 3
3, 4
1, 2
1, 3
4, 4
5, 2
2, 2
0, 2
3, 1
4, 1
3, 2
1, 2
0, 1
1, 3
1, 1
2, 2
1, 0
0, 0
2, 2
2, 3
3, 4
0, 4
4, 1
2, 1
0, 2
1, 1
0, 2
0, 0
1, 2
3, 2
3, 1
1, 5
0, 1
0, 2
3, 2
0, 2
1, 1
1, 1
0, 2
2, 1
2, 2
0, 2
0, 0
0, 0
1, 1
1, 1
1, 1
0, 1
1, 0
0, 0
0, 1
2, 1
1, 1
2, 0
0, 1
0, 2
2, 1
1, 0
2, 0
0, 1
0, 1
1, 0
1, 0
1, 2
1, 1
0, 0
0, 1
0, 0
0, 1
1, 1
1, 0
3, 0
0, 0
2, 0
0, 0
3, 0
2, 0
1, 0
1, 0
2, 0
0, 0
2, 2
1, 1
1, 5
3, 4
2, 2
1, 1
1, 1
2, 1
2, 0
4, 2
1, 0
1, 2
1, 1
0, 2
1, 1
0, 0
1, 2
0, 0
0, 2
0, 1
1, 1
1, 1
0, 0
1, 0
2, 0
0, 0
0, 1
1, 1
0, 1
2, 0
0, 1
2, 1
0, 0
1, 2
1, 0
1, 0
0, 0
0, 0
0, 0
0, 1
0, 1
2, 0
0, 0
1, 0
0, 0
0, 2
1, 0
0, 0
0, 1
0, 0
0, 1
0, 0
2, 1
0, 1
0, 0
0, 0
0, 1
0, 0
1, 0
1, 1
1, 0
0, 0
0, 0
3, 1
0, 0
0, 0
0, 1
0, 0
1, 1
0, 2
0, 2
1, 0
0, 0
1, 1
0, 1
0, 1
1, 1
2, 0
3, 0
0, 0
0, 0
0, 1
0, 0
1, 0
0, 0
0, 0
1, 0
0, 0
3, 1
0, 1
0, 1
0, 0
0, 0
1, 0
0, 0
0, 0
1, 0
0, 1
0, 0
0, 0
0, 1
2, 0
0, 0
2, 1
0, 1
0, 1
0, 1
1, 1
0, 1
0, 0
0, 0
0, 0
0, 0
0, 0
0, 1
0, 0
1, 0
1, 0
0, 1
0, 0
1, 0
2, 0
1, 0
1, 0
0, 0
0, 0
0, 0
0, 0
1, 0
0, 1
0, 0
0, 0
0, 1
0, 0
0, 0
1, 0
0, 1
0, 0
0, 0
0, 0
0, 0
0, 0
1, 0
0, 1
0, 0
1, 0
0, 0
0, 0
0, 1
0, 0
0, 0
0, 1
0, 1
0, 1
1, 0
0, 0
0, 0
1, 0
0, 3
0, 1
0, 0
2, 0
0, 0
0, 0
1, 1
0, 0
1, 0
0, 0
0, 0
0, 0
0, 0
0, 0
0, 0
0, 1
0, 0
0, 0
0, 0
0, 0
1, 2
0, 0
0, 0
1, 0
0, 1
0, 0
0, 1
0, 0
1, 1
0, 0
0, 0
0, 0
1, 0
0, 0
1, 0
0, 1
1, 0
0, 0
0, 1
0, 1
0, 0
0, 0
0, 0
0, 0
0, 0
0, 0
1, 0
0, 1
0, 0
0, 0
0, 0
0, 0
0, 0
0, 0
0, 1
1, 0
0, 0
0, 0
0, 0
0, 0
0, 1
0, 1
0, 0
0, 0
0, 1
0, 0
0, 0
0, 0
0, 0
0, 0
0, 0
0, 0
0, 0
1, 0
0, 0
0, 0
1, 0
0, 0
0, 0
0, 0
0, 1
1, 0
0, 0
0, 0
0, 0
0, 0
0, 0
0, 0
0, 0
0, 0
0, 0
1, 0
0, 0
0, 0
0, 0
0, 0
0, 0
0, 0
0, 0
0, 0
0, 0
0, 0
0, 0
0, 0
0, 0
0, 0
0, 0
0, 1
0, 0
0, 0
0, 0
1, 0
0, 0
0, 0
0, 0
0, 0
0, 0
0, 0
0, 0
0, 0
0, 0
0, 0
0, 0
0, 0
0, 0
0, 0
0, 0
0, 0
0, 0
0, 0
0, 0
0, 0
0, 0
0, 0
0, 1
0, 0
0, 0
0, 0
0, 0
0, 0
0, 0
0, 0
0, 0
0, 0
0, 0
0, 0
0, 0
0, 0
0, 0
0, 0
0, 0
1, 0
0, 0
0, 0
0, 0
0, 0
1, 0
0, 0
0, 0
0, 0
0, 0
0, 1
1, 0
0, 0
0, 0
0, 0
0, 0
0, 0
0, 0
0, 0
0, 0
0, 0
0, 0
0, 0
0, 0
0, 0
1, 0
0, 0
1, 0
0, 0
0, 0
0, 0
0, 0
0, 0
0, 0
0, 0
0, 0
0, 0
0, 0
0, 0
0, 0
0, 0
0, 0
0, 0
0, 0
0, 0
0, 0
0, 0
0, 0
0, 0
0, 0
0, 0
0, 0
0, 0
0, 0
0, 0
0, 0
0, 0
0, 0
0, 0
0, 0
0, 0
0, 0
0, 0
0, 0
0, 0
0, 0
0, 0
0, 1
0, 0
0, 0
0, 0
0, 0
0, 0
0, 0
0, 0
0, 0
0, 0
0, 0
0, 0
0, 0
0, 0
0, 0
0, 0
0, 0
0, 0
1, 0
0, 0
0, 0
0, 0
0, 0
0, 0
0, 0
0, 0
0, 0
0, 0
0, 0
0, 0
0, 0
0, 0
0, 0
0, 0
0, 0
0, 0
0, 0
0, 0
0, 0
0, 0
0, 0
0, 1
0, 0
0, 0
0, 0
0, 0
0, 0
0, 0
0, 0
0, 0
0, 0
0, 0
0, 0
0, 0
0, 0
0, 0
0, 0
0, 0
0, 0
0, 0
0, 0
0, 0
0, 0
0, 0
0, 0
0, 0
0, 0
0, 0
0, 0
0, 0
0, 0
0, 0
0, 0
0, 0
0, 0
0, 0
0, 0
0, 0
0, 0
0, 0
0, 0
0, 0
0, 0
0, 0
0, 0
0, 0
0, 0
0, 0
0, 0
0, 0
0, 0
0, 0
0, 0
0, 0
0, 0
0, 0
0, 0
0, 0
0, 0
0, 0
0, 0
0, 0
0, 0
0, 0
0, 0
0, 0
0, 0
0, 0
0, 0
0, 0
0, 0
0, 0
0, 0
0, 0
0, 0
0, 0
0, 0
0, 0
0, 0
0, 0
0, 0
0, 0
0, 0
0, 0
0, 0
0, 0
0, 0
0, 0
0, 0
0, 0
0, 0
0, 0
0, 0
0, 0
0, 0
0, 0
0, 0
0, 0
0, 0
0, 0
0, 0
0, 0
0, 0
0, 0
0, 0
0, 0
0, 0
0, 0
0, 0
0, 0
0, 0
0, 0
0, 0
0, 0
0, 0
0, 0
0, 0
0, 0
0, 0
0, 0
0, 0
0, 0
0, 0
0, 0
0, 0
0, 0
0, 0
0, 0
0, 0
0, 0
0, 0
0, 0
0, 0
0, 0
0, 0
0, 0
0, 0
0, 0
0, 0
0, 0
0, 0
0, 0
0, 0
0, 0
0, 0
0, 0
0, 0
0, 0
0, 0
0, 0
0, 0
0, 0
0, 0
0, 0
0, 0
0, 0
0, 0
0, 0
0, 0
0, 0
0, 0
0, 0
0, 0
0, 0
0, 0
0, 0
0, 0
0, 0
0, 0
0, 0
0, 0
0, 0
0, 0
0, 0
0, 0
0, 0
0, 0
0, 0
0, 0
0, 0
0, 0
0, 0
0, 0
0, 0
0, 0
0, 0
0, 0
0, 0
0, 0
0, 0
0, 0
0, 0
0, 0
0, 0
0, 0
0, 0
0, 0
0, 0
0, 0
0, 0
0, 0
0, 0
0, 0
0, 0
0, 0
0, 0
0, 0
0, 0
0, 0
0, 0
0, 0
0, 0
0, 0
0, 0
0, 0
0, 0
0, 0
0, 0
0, 0
0, 0
0, 0
0, 0
0, 0
0, 0
0, 0
0, 0
0, 0
0, 0
0, 0
0, 0
0, 0
0, 0
0, 0
0, 0
0, 0
0, 0
0, 0
0, 0
0, 0
0, 0
0, 0
0, 0
0, 0
0, 0
0, 0
0, 0
0, 0
0, 0
0, 0
0, 0
0, 0
0, 0
0, 0
0, 0
0, 0
0, 0
0, 0
0, 0
0, 0
0, 0
0, 0
0, 0
0, 0
0, 0
0, 0
0, 0
0, 0
0, 0
0, 0
0, 0
0, 0
0, 0
0, 0
0, 0
0, 0
0, 0
0, 0
0, 0
0, 0
0, 0
0, 0
0, 0
0, 0
0, 0
0, 0
0, 0
0, 0
0, 0
0, 0
0, 0
0, 0
0, 0
0, 0
0, 0
0, 0
0, 0
0, 0
0, 0
0, 0
0, 0
0, 0
0, 0
0, 0
0, 0
0, 0
0, 0
0, 0
0, 0
0, 0
0, 0
0, 0
0, 0
0, 0
0, 0
0, 0
0, 0
0, 0
0, 0
0, 0
0, 0
0, 0
0, 0
0, 0
0, 0
0, 0
0, 0
0, 0
0, 0
0, 0
#ENDOFDATA     end of spectrum data