File: host_upload/06-09-2024/ps_0852/dump3/ps__0852shot_2482.msa
#FORMAT      : EMSA/MAS spectral data file
#VERSION     : TC202v2.0 PIXL
#TITLE       : N/A
#DATE        :       Date in the format DD-MMM-YYYY, for example 07-JUL-2010
#TIME        :             The time of day at which the spectrum was recorded, in 24-hour format
#OWNER       : PIXL Flight Model       (PIXL will use this to indicate which instrument took the data.)
#NPOINTS     : 4096     Number of data points in the spectrum (This can be zero for configuration only files)
#NCOLUMNS    : 2     Number of data columns in the spectrum (This can be zero for configuration only files)
#XUNITS      : eV
#YUNITS      : COUNTS
#DATATYPE    : YY
#XPERCHAN    : 7.862, 7.881   eV per channel (separate by commas if more than one detector)
#OFFSET      : 18.5, -22.4         eV of first channel  (separate by commas if more than one detector
#SIGNALTYPE  : XRF
#YP_TEMP     : 2.235
#LIVETIME    : 8.59211, 8.55805   seconds (separate by commas if more than one detector)
#REALTIME    : 10, 10.0   seconds (separate by commas if more than one detector)
#SPECTRUM    : start of spectrum data
0, 0
0, 0
0, 0
0, 0
0, 0
0, 0
0, 0
0, 0
0, 0
0, 0
0, 0
0, 0
0, 0
0, 0
0, 0
0, 0
0, 0
0, 0
0, 0
0, 0
0, 0
0, 0
0, 0
0, 0
0, 0
0, 0
0, 0
0, 0
0, 0
0, 0
0, 1
0, 0
0, 0
0, 0
1, 0
1, 0
0, 0
0, 1
0, 1
2, 0
0, 0
0, 0
1, 1
0, 1
0, 1
0, 0
0, 1
3, 3
8, 6
8, 9
14, 21
30, 36
59, 52
65, 71
85, 65
75, 73
71, 41
46, 49
27, 25
14, 13
5, 1
9, 2
5, 3
1, 7
2, 1
5, 8
6, 6
9, 9
18, 23
41, 41
94, 73
175, 159
266, 263
333, 373
445, 401
429, 425
409, 364
296, 270
208, 170
145, 109
76, 70
47, 44
21, 11
12, 10
3, 4
1, 4
4, 3
0, 0
2, 0
2, 0
1, 0
0, 3
1, 0
0, 3
5, 1
3, 2
4, 1
0, 2
0, 2
1, 3
0, 4
4, 3
7, 2
2, 2
3, 5
5, 8
7, 3
5, 9
8, 7
12, 14
21, 14
28, 19
29, 30
28, 41
46, 33
52, 39
63, 25
71, 36
70, 28
57, 21
54, 23
49, 24
33, 18
45, 9
21, 6
17, 11
15, 16
10, 11
18, 10
8, 3
4, 7
3, 3
3, 4
3, 2
3, 1
3, 1
2, 1
4, 2
1, 2
0, 2
0, 0
1, 2
2, 0
5, 2
4, 1
3, 2
2, 1
4, 1
2, 4
5, 9
7, 4
8, 16
29, 21
28, 44
44, 51
64, 61
79, 89
75, 98
69, 84
78, 61
49, 52
40, 35
42, 23
17, 11
14, 6
9, 12
12, 7
9, 6
14, 10
17, 18
17, 10
17, 21
16, 13
16, 12
5, 12
11, 6
5, 6
6, 8
4, 12
7, 11
4, 12
4, 6
4, 16
7, 8
4, 12
5, 8
3, 6
7, 6
9, 10
10, 6
15, 9
21, 12
15, 22
15, 14
21, 13
15, 14
12, 17
13, 18
13, 14
15, 11
11, 17
18, 12
10, 7
8, 4
5, 9
7, 7
2, 2
6, 6
6, 5
8, 13
8, 12
8, 3
9, 8
9, 7
4, 6
6, 4
4, 8
9, 7
2, 6
10, 7
7, 6
16, 8
11, 9
17, 13
14, 10
32, 11
23, 29
30, 34
64, 41
61, 44
58, 63
67, 54
59, 30
49, 32
48, 36
45, 20
48, 17
47, 21
34, 13
21, 22
21, 13
19, 11
10, 29
13, 24
18, 37
15, 45
18, 54
45, 73
45, 92
52, 80
54, 95
75, 78
74, 92
59, 87
45, 86
37, 71
32, 65
25, 47
24, 54
17, 45
18, 43
20, 52
39, 72
84, 99
119, 166
273, 323
423, 584
664, 911
1053, 1218
1467, 1679
1844, 1978
2113, 2278
2318, 2306
2205, 2128
1954, 1868
1568, 1433
1213, 1060
852, 663
582, 418
329, 239
153, 113
103, 62
62, 39
34, 24
18, 17
12, 28
14, 20
17, 26
11, 20
19, 22
25, 29
35, 30
59, 61
71, 82
114, 128
142, 185
189, 201
239, 242
285, 293
341, 355
360, 350
318, 316
261, 256
222, 221
186, 154
115, 76
74, 67
50, 34
31, 22
14, 10
11, 12
7, 5
7, 10
16, 9
12, 9
13, 16
13, 16
13, 16
13, 8
16, 13
12, 13
13, 7
6, 13
9, 5
4, 5
8, 3
5, 3
9, 5
2, 4
7, 3
3, 5
6, 2
9, 4
4, 4
4, 5
5, 4
6, 4
8, 5
9, 5
8, 2
20, 3
17, 12
18, 3
24, 8
20, 8
13, 13
22, 12
18, 11
7, 11
12, 15
6, 13
8, 5
8, 6
7, 6
6, 8
9, 6
3, 4
3, 7
6, 6
6, 6
4, 7
3, 4
8, 3
5, 6
4, 8
1, 7
9, 2
5, 2
3, 4
3, 4
4, 7
4, 11
0, 3
8, 5
4, 3
3, 1
3, 8
7, 4
5, 5
4, 3
4, 3
2, 7
7, 8
1, 5
7, 5
2, 5
3, 7
5, 3
8, 2
1, 5
5, 1
5, 5
5, 3
4, 4
5, 2
3, 2
1, 4
6, 4
4, 4
2, 1
1, 1
3, 2
4, 6
3, 7
1, 0
4, 4
4, 3
4, 4
1, 4
2, 1
8, 6
2, 10
1, 5
5, 2
6, 2
7, 5
4, 6
5, 10
5, 20
5, 6
3, 14
0, 14
5, 13
2, 16
2, 10
6, 8
4, 2
4, 3
4, 8
6, 4
3, 3
7, 3
2, 4
3, 5
4, 3
4, 3
3, 6
3, 5
1, 2
4, 1
3, 3
7, 4
2, 4
2, 1
7, 6
2, 3
3, 2
4, 3
3, 2
2, 0
2, 1
2, 5
3, 2
2, 2
2, 1
3, 4
3, 3
2, 1
3, 5
2, 1
2, 2
0, 2
1, 4
3, 1
1, 7
3, 4
2, 3
3, 4
3, 3
1, 2
3, 0
3, 1
3, 2
3, 3
2, 1
3, 0
1, 4
4, 1
2, 2
2, 1
1, 1
0, 1
3, 2
3, 2
1, 1
5, 1
2, 1
1, 2
7, 2
2, 1
1, 4
1, 1
2, 4
5, 1
1, 3
3, 1
1, 0
4, 2
2, 0
2, 2
1, 2
4, 3
5, 2
3, 2
2, 2
2, 1
2, 3
4, 2
0, 4
5, 1
5, 5
2, 5
0, 2
2, 5
1, 2
0, 2
3, 1
4, 7
2, 4
3, 3
4, 1
1, 1
3, 2
0, 4
3, 1
5, 3
1, 2
3, 1
1, 0
1, 2
4, 0
2, 2
4, 4
1, 1
5, 2
4, 1
4, 7
2, 6
1, 6
3, 4
3, 4
3, 2
5, 5
4, 2
3, 1
7, 3
4, 3
2, 3
5, 1
0, 0
4, 1
1, 3
3, 3
1, 1
1, 2
0, 2
1, 1
1, 2
1, 0
1, 0
0, 5
1, 2
0, 2
1, 4
2, 1
4, 4
2, 3
0, 3
1, 2
2, 2
4, 0
1, 2
3, 1
1, 4
1, 1
0, 1
3, 1
2, 2
0, 1
2, 1
0, 2
0, 2
4, 1
3, 4
0, 0
2, 1
1, 1
0, 0
1, 1
1, 1
2, 1
3, 0
0, 1
0, 0
1, 1
3, 2
1, 0
0, 2
1, 1
0, 0
2, 1
0, 1
3, 0
0, 0
0, 1
0, 0
0, 0
0, 1
1, 0
3, 1
0, 2
0, 3
1, 0
2, 0
1, 0
0, 0
1, 1
2, 0
2, 1
0, 1
0, 0
1, 2
1, 1
1, 1
0, 0
1, 0
3, 0
1, 0
2, 1
0, 1
0, 2
0, 0
0, 2
2, 1
1, 0
0, 0
0, 1
1, 2
0, 0
3, 0
1, 1
0, 0
1, 0
0, 0
0, 1
0, 0
0, 0
0, 0
1, 1
1, 0
0, 0
2, 1
0, 0
1, 0
0, 0
0, 0
1, 0
0, 1
2, 0
0, 1
0, 0
0, 1
2, 0
1, 0
1, 1
1, 1
0, 1
0, 1
0, 0
1, 0
0, 1
1, 1
0, 1
2, 0
1, 1
1, 1
0, 0
2, 1
3, 0
0, 3
0, 1
0, 0
1, 0
1, 3
0, 0
0, 0
1, 0
0, 0
1, 0
0, 0
0, 1
0, 0
1, 0
0, 1
0, 0
1, 1
0, 0
1, 1
0, 2
0, 0
0, 1
0, 1
1, 0
1, 2
0, 0
0, 0
0, 0
1, 0
0, 0
0, 0
1, 0
1, 0
0, 1
2, 0
0, 0
0, 0
0, 1
0, 0
1, 1
0, 1
0, 2
0, 1
0, 1
0, 1
2, 0
1, 0
0, 0
0, 0
0, 0
0, 0
0, 1
0, 0
0, 0
0, 1
1, 0
1, 0
0, 0
0, 0
0, 0
0, 0
0, 0
0, 0
0, 1
0, 0
0, 0
0, 0
0, 0
0, 1
2, 0
0, 0
0, 1
0, 0
2, 0
0, 1
0, 0
0, 0
0, 0
0, 0
0, 0
1, 0
0, 0
0, 0
0, 0
0, 0
0, 0
0, 0
0, 0
0, 1
0, 1
0, 0
0, 0
1, 0
0, 0
0, 1
0, 0
0, 0
1, 1
0, 0
0, 0
0, 0
0, 0
0, 0
0, 0
0, 1
0, 0
0, 0
0, 0
0, 1
0, 1
0, 0
0, 0
0, 0
3, 0
0, 2
0, 0
1, 0
1, 0
0, 0
1, 1
0, 1
0, 0
1, 0
0, 1
0, 0
0, 1
0, 0
1, 0
0, 0
0, 0
0, 0
0, 0
1, 0
0, 0
1, 1
0, 0
0, 0
0, 0
0, 1
0, 0
0, 0
0, 1
1, 1
0, 0
0, 0
0, 0
0, 0
0, 0
1, 0
0, 0
0, 0
0, 0
0, 0
0, 0
0, 0
0, 0
0, 0
0, 0
0, 0
0, 0
0, 0
0, 0
0, 0
0, 0
0, 0
0, 0
0, 0
0, 0
0, 0
0, 0
0, 0
0, 1
0, 0
0, 0
1, 0
0, 0
2, 1
0, 0
0, 0
0, 0
1, 0
1, 0
0, 0
0, 0
0, 1
0, 0
0, 0
0, 0
0, 0
0, 0
0, 0
0, 0
0, 0
0, 0
0, 0
0, 0
0, 0
0, 0
0, 0
0, 0
0, 0
0, 0
0, 0
0, 0
0, 0
0, 0
0, 0
0, 0
0, 0
0, 0
0, 0
0, 0
0, 0
1, 0
0, 0
0, 0
0, 0
0, 0
0, 0
0, 0
0, 0
0, 0
0, 0
1, 1
0, 0
0, 0
0, 0
0, 0
0, 0
0, 1
0, 0
0, 0
0, 0
0, 0
0, 0
0, 0
0, 0
0, 0
0, 0
0, 0
0, 0
0, 0
0, 0
0, 0
0, 0
0, 0
0, 0
0, 0
0, 0
1, 0
0, 0
0, 0
0, 0
0, 0
0, 0
0, 0
0, 0
0, 0
0, 0
0, 0
0, 0
0, 0
0, 0
0, 0
0, 0
0, 0
0, 0
0, 0
0, 0
0, 0
1, 0
0, 0
0, 0
0, 0
0, 1
0, 0
0, 0
0, 0
0, 0
0, 0
0, 0
0, 0
0, 0
0, 0
0, 0
0, 0
0, 0
0, 0
0, 0
0, 0
0, 0
0, 0
0, 0
0, 0
0, 0
0, 0
0, 0
0, 0
0, 0
0, 0
0, 0
0, 0
0, 0
0, 0
0, 0
0, 0
0, 0
0, 0
0, 0
0, 0
0, 0
0, 0
0, 0
0, 0
0, 0
0, 0
0, 0
0, 0
0, 0
0, 0
0, 0
0, 0
0, 0
0, 0
0, 0
0, 0
0, 0
0, 0
0, 0
0, 0
0, 0
0, 0
0, 0
0, 0
0, 0
0, 0
0, 0
0, 0
0, 0
0, 0
0, 0
0, 0
0, 0
0, 0
0, 0
0, 0
0, 0
0, 0
0, 0
0, 0
0, 0
0, 0
0, 0
0, 0
0, 0
0, 0
0, 0
0, 0
0, 0
0, 0
0, 0
0, 0
0, 0
0, 0
0, 0
0, 0
0, 0
0, 0
0, 0
0, 0
0, 0
0, 0
0, 0
0, 0
0, 0
0, 0
0, 0
0, 0
0, 0
0, 0
0, 0
0, 0
0, 0
0, 0
0, 0
0, 0
0, 0
0, 0
0, 0
0, 0
0, 0
0, 0
0, 0
0, 0
0, 0
0, 0
0, 0
0, 0
0, 0
0, 0
0, 0
0, 0
0, 0
0, 0
0, 0
0, 0
0, 0
0, 0
0, 0
0, 0
0, 0
0, 0
0, 0
0, 0
0, 0
0, 0
0, 0
0, 0
0, 0
0, 0
0, 0
0, 0
0, 1
0, 0
0, 0
0, 0
0, 0
0, 0
0, 0
0, 0
0, 0
0, 0
0, 0
0, 0
0, 0
0, 0
0, 0
0, 0
0, 0
0, 0
0, 0
0, 0
0, 0
0, 0
0, 0
0, 0
0, 0
0, 0
0, 0
0, 0
0, 0
0, 0
0, 0
0, 0
0, 0
0, 0
0, 0
0, 0
0, 0
0, 0
0, 0
0, 0
0, 0
0, 0
0, 0
0, 0
0, 0
0, 0
0, 0
0, 0
0, 0
0, 0
0, 0
0, 0
0, 0
0, 0
0, 0
0, 0
0, 0
0, 0
0, 0
0, 0
0, 0
0, 0
0, 0
0, 0
0, 0
0, 0
0, 0
0, 0
0, 0
0, 0
0, 0
0, 0
0, 0
0, 0
0, 0
0, 0
0, 0
0, 0
0, 0
0, 0
0, 0
0, 0
0, 0
0, 0
0, 0
0, 0
0, 0
0, 0
0, 0
0, 0
0, 0
0, 0
0, 0
0, 0
0, 0
0, 0
0, 0
0, 0
0, 0
0, 0
0, 0
0, 0
0, 0
0, 0
0, 0
0, 0
0, 0
0, 0
0, 0
0, 0
0, 0
0, 0
0, 0
0, 0
0, 0
0, 0
0, 0
0, 0
0, 0
0, 0
0, 0
0, 0
0, 0
0, 0
0, 0
0, 0
0, 0
0, 0
0, 0
0, 0
0, 0
0, 0
0, 0
0, 0
0, 0
0, 0
0, 0
0, 0
0, 0
0, 0
0, 0
0, 0
0, 0
0, 0
0, 0
0, 0
0, 0
0, 0
0, 0
0, 0
0, 0
0, 0
0, 0
0, 0
0, 0
0, 0
0, 0
0, 0
0, 0
0, 0
0, 0
0, 0
0, 0
0, 0
0, 0
0, 0
0, 0
0, 0
0, 0
0, 0
0, 0
0, 0
0, 0
0, 0
0, 0
0, 0
0, 0
0, 0
0, 0
0, 0
0, 0
0, 0
0, 0
0, 0
0, 0
0, 0
0, 0
0, 0
0, 0
0, 0
0, 0
0, 0
0, 0
0, 0
0, 0
0, 0
0, 0
0, 0
0, 0
0, 0
0, 0
0, 0
0, 0
0, 0
0, 0
0, 0
0, 0
0, 0
0, 0
0, 0
0, 0
0, 0
0, 0
0, 0
0, 0
0, 0
0, 0
0, 0
0, 0
0, 0
0, 0
0, 0
0, 0
0, 0
0, 0
0, 0
0, 0
0, 0
0, 0
0, 0
0, 0
0, 0
0, 0
0, 0
0, 0
0, 0
0, 0
0, 0
0, 0
0, 0
0, 0
0, 0
0, 0
0, 0
0, 0
0, 0
0, 0
0, 0
0, 0
0, 0
0, 0
0, 0
0, 0
0, 0
0, 0
0, 0
0, 0
0, 0
0, 0
0, 0
0, 0
0, 0
0, 0
0, 0
0, 0
#ENDOFDATA     end of spectrum data