File: host_upload/06-09-2024/ps_0852/dump3/ps__0852shot_2136.msa
#FORMAT      : EMSA/MAS spectral data file
#VERSION     : TC202v2.0 PIXL
#TITLE       : N/A
#DATE        :       Date in the format DD-MMM-YYYY, for example 07-JUL-2010
#TIME        :             The time of day at which the spectrum was recorded, in 24-hour format
#OWNER       : PIXL Flight Model       (PIXL will use this to indicate which instrument took the data.)
#NPOINTS     : 4096     Number of data points in the spectrum (This can be zero for configuration only files)
#NCOLUMNS    : 2     Number of data columns in the spectrum (This can be zero for configuration only files)
#XUNITS      : eV
#YUNITS      : COUNTS
#DATATYPE    : YY
#XPERCHAN    : 7.862, 7.881   eV per channel (separate by commas if more than one detector)
#OFFSET      : 18.5, -22.4         eV of first channel  (separate by commas if more than one detector
#SIGNALTYPE  : XRF
#YP_TEMP     : 2.267
#LIVETIME    : 8.60153, 8.54392   seconds (separate by commas if more than one detector)
#REALTIME    : 10, 10.0   seconds (separate by commas if more than one detector)
#SPECTRUM    : start of spectrum data
0, 0
0, 0
0, 0
0, 0
0, 0
0, 0
0, 0
0, 0
0, 0
0, 0
0, 0
0, 0
0, 0
0, 0
0, 0
0, 0
0, 0
0, 0
0, 0
0, 0
0, 0
0, 0
0, 0
0, 0
0, 0
0, 0
0, 0
0, 0
0, 0
0, 0
0, 1
0, 0
0, 0
0, 0
0, 0
1, 0
0, 1
1, 0
0, 0
3, 0
1, 1
1, 1
1, 1
1, 0
3, 1
3, 2
3, 6
3, 4
3, 4
13, 12
28, 22
44, 46
57, 50
76, 48
91, 74
82, 66
76, 44
47, 38
30, 26
15, 11
8, 9
8, 2
4, 4
3, 2
2, 2
1, 4
6, 2
9, 8
22, 21
53, 58
104, 81
180, 167
280, 264
344, 340
433, 419
432, 403
402, 345
306, 260
228, 193
140, 116
80, 59
37, 39
31, 10
11, 10
6, 4
6, 1
2, 1
1, 0
1, 1
4, 1
1, 1
4, 1
2, 2
2, 0
3, 1
3, 3
2, 2
1, 2
5, 6
4, 5
5, 5
5, 2
6, 2
4, 2
4, 4
2, 7
8, 4
14, 10
17, 10
18, 15
28, 15
52, 31
59, 33
81, 50
86, 57
101, 52
95, 46
70, 38
71, 37
63, 29
81, 29
97, 21
94, 20
100, 19
96, 19
112, 14
109, 6
82, 5
55, 6
38, 12
16, 3
11, 6
8, 6
4, 1
4, 6
4, 5
1, 2
2, 1
2, 2
3, 2
3, 2
0, 1
4, 2
5, 0
1, 4
1, 2
2, 4
1, 2
2, 5
3, 8
3, 10
4, 17
11, 11
9, 20
12, 17
17, 17
20, 28
22, 24
25, 19
13, 17
17, 13
15, 6
14, 8
10, 5
6, 6
8, 4
8, 6
3, 8
9, 6
8, 7
2, 4
3, 7
5, 6
9, 5
6, 10
11, 7
6, 11
8, 8
9, 11
7, 8
8, 17
10, 8
9, 9
4, 9
4, 10
8, 6
5, 5
8, 8
9, 3
16, 12
15, 8
24, 12
29, 9
36, 9
37, 13
47, 7
54, 11
68, 17
62, 20
48, 26
46, 25
42, 20
22, 12
19, 10
17, 12
10, 12
11, 14
9, 3
6, 10
6, 8
5, 5
9, 14
14, 6
8, 4
6, 9
9, 5
4, 10
4, 7
11, 6
4, 3
9, 7
6, 11
9, 5
8, 8
10, 10
5, 12
13, 9
15, 16
12, 7
8, 16
14, 17
18, 20
15, 11
15, 13
12, 17
12, 10
11, 9
9, 13
6, 5
10, 9
11, 9
21, 7
17, 15
25, 18
24, 17
35, 41
58, 31
75, 56
97, 80
81, 87
115, 85
84, 76
89, 75
72, 86
51, 92
43, 75
37, 52
26, 48
14, 63
21, 51
22, 39
27, 58
43, 69
87, 135
139, 194
295, 376
491, 640
735, 942
1170, 1354
1547, 1743
2007, 2018
2334, 2288
2422, 2302
2288, 2251
2131, 1786
1735, 1502
1326, 1054
934, 713
595, 398
377, 246
189, 136
132, 71
58, 49
35, 19
23, 12
26, 18
20, 11
16, 17
20, 16
24, 15
29, 13
26, 33
43, 41
60, 110
100, 129
147, 177
210, 223
274, 260
299, 321
338, 341
383, 354
356, 317
299, 273
243, 198
210, 142
147, 109
96, 52
53, 23
36, 34
23, 15
17, 8
9, 11
6, 7
13, 10
13, 6
14, 12
11, 13
10, 15
19, 7
28, 9
14, 14
13, 11
11, 6
6, 11
10, 7
5, 4
6, 12
4, 2
2, 7
12, 8
5, 6
4, 9
5, 9
7, 6
6, 9
1, 2
4, 5
5, 8
6, 4
2, 5
7, 3
11, 2
7, 6
6, 1
7, 5
9, 5
7, 7
8, 6
4, 5
4, 12
6, 7
7, 5
5, 6
8, 2
7, 7
6, 7
3, 4
2, 3
8, 4
4, 2
3, 9
8, 4
3, 3
3, 6
4, 3
1, 3
6, 2
4, 4
6, 2
4, 6
5, 1
4, 5
3, 3
3, 6
5, 6
1, 4
2, 4
10, 3
1, 2
1, 5
4, 3
7, 4
3, 9
4, 6
2, 1
3, 4
4, 5
7, 5
9, 3
12, 7
9, 6
12, 5
8, 7
7, 6
5, 8
11, 5
10, 5
8, 3
9, 6
7, 2
8, 7
10, 5
5, 9
2, 10
5, 4
5, 6
5, 6
4, 6
4, 5
6, 6
11, 7
2, 7
11, 5
2, 5
8, 2
3, 1
6, 1
1, 4
4, 5
3, 4
4, 5
2, 3
2, 3
4, 3
4, 3
6, 4
1, 2
4, 3
1, 3
6, 0
2, 1
4, 3
2, 2
5, 2
2, 1
4, 2
1, 3
4, 2
6, 2
3, 3
2, 2
2, 0
2, 1
5, 4
4, 3
3, 3
2, 2
3, 3
2, 2
1, 4
6, 5
2, 2
6, 7
4, 7
5, 4
1, 6
2, 8
3, 5
4, 0
2, 1
3, 5
1, 6
5, 3
5, 2
2, 2
1, 2
4, 6
3, 4
3, 3
2, 2
5, 3
3, 2
1, 2
2, 2
0, 4
0, 5
5, 4
1, 3
2, 7
1, 1
1, 3
4, 1
0, 2
1, 1
1, 1
3, 1
3, 3
4, 2
4, 1
1, 2
5, 2
2, 1
0, 4
1, 6
1, 5
4, 4
6, 1
4, 2
2, 4
7, 2
3, 3
2, 1
3, 7
2, 2
1, 2
0, 1
2, 3
2, 2
3, 1
0, 3
3, 4
3, 1
2, 3
2, 3
2, 2
2, 3
3, 3
2, 3
5, 3
5, 3
5, 7
2, 3
2, 1
3, 1
2, 3
2, 4
4, 0
1, 1
3, 0
2, 3
2, 4
0, 2
2, 1
4, 1
3, 2
1, 1
4, 0
3, 1
5, 3
2, 3
2, 6
3, 4
3, 6
4, 1
6, 4
3, 4
2, 3
3, 1
4, 0
2, 1
3, 4
1, 1
2, 2
2, 4
2, 1
0, 2
4, 1
1, 1
1, 2
2, 0
5, 3
2, 0
1, 1
1, 2
3, 4
1, 1
5, 1
4, 1
0, 2
6, 2
3, 1
1, 3
2, 2
0, 2
2, 3
5, 1
2, 1
4, 1
2, 0
1, 1
1, 1
1, 1
1, 1
2, 2
2, 3
1, 2
1, 1
1, 1
2, 3
0, 2
0, 1
1, 0
0, 2
0, 0
1, 3
0, 2
1, 2
1, 1
2, 2
0, 1
0, 0
2, 1
0, 0
1, 1
0, 0
0, 2
2, 0
2, 3
0, 1
1, 1
1, 2
0, 0
1, 1
1, 3
2, 1
1, 1
0, 2
0, 0
1, 1
1, 2
1, 0
0, 0
0, 1
1, 1
3, 1
0, 2
1, 0
1, 2
0, 0
0, 0
1, 0
4, 0
2, 1
1, 1
0, 0
0, 0
0, 3
0, 2
0, 0
1, 1
1, 1
0, 0
3, 0
0, 2
1, 1
0, 1
1, 0
1, 1
1, 0
1, 2
1, 0
0, 1
0, 1
0, 0
0, 3
1, 0
1, 2
1, 0
0, 1
2, 0
0, 1
1, 4
1, 1
1, 1
2, 0
1, 1
4, 2
0, 1
0, 0
0, 1
1, 2
0, 0
0, 1
3, 0
0, 1
0, 0
0, 0
0, 0
1, 0
0, 2
0, 1
0, 0
0, 0
0, 2
0, 0
0, 0
1, 0
1, 0
0, 0
1, 1
0, 2
0, 0
0, 0
1, 1
1, 0
0, 0
0, 1
1, 0
0, 0
0, 1
1, 2
0, 1
0, 0
0, 0
0, 0
0, 0
1, 0
1, 0
0, 1
0, 1
2, 0
1, 1
1, 0
1, 1
1, 0
1, 1
0, 0
0, 0
0, 0
0, 0
1, 0
0, 0
1, 1
0, 1
0, 0
0, 0
1, 0
1, 0
0, 2
0, 0
1, 0
0, 0
0, 0
0, 1
0, 1
0, 0
0, 0
0, 0
0, 0
0, 0
0, 1
0, 0
0, 0
0, 1
0, 0
0, 0
1, 0
1, 0
0, 1
1, 1
0, 1
0, 0
0, 0
0, 1
1, 0
0, 0
0, 1
0, 0
0, 0
0, 0
0, 0
1, 0
0, 0
1, 0
0, 0
0, 0
2, 1
1, 2
0, 0
2, 0
1, 0
0, 2
2, 0
0, 0
0, 0
0, 1
0, 0
0, 0
0, 0
0, 0
2, 0
0, 0
1, 1
0, 0
2, 0
0, 0
0, 0
0, 0
0, 0
0, 0
0, 0
0, 0
0, 0
0, 1
0, 1
0, 0
0, 0
0, 0
0, 0
0, 0
0, 0
0, 0
0, 0
1, 0
0, 0
0, 0
0, 0
1, 0
0, 0
1, 0
1, 0
0, 0
0, 0
0, 1
0, 0
0, 0
0, 0
0, 0
0, 0
0, 0
0, 1
0, 0
0, 0
0, 0
0, 0
0, 0
0, 1
1, 0
0, 0
0, 0
0, 1
0, 0
0, 0
0, 0
0, 0
0, 0
0, 1
0, 0
0, 0
0, 0
0, 0
0, 0
1, 0
1, 0
1, 0
0, 0
0, 0
1, 0
0, 0
0, 0
0, 0
1, 1
0, 0
0, 0
0, 0
0, 0
0, 0
0, 0
0, 0
0, 0
0, 1
0, 0
0, 0
1, 1
0, 0
0, 1
1, 0
0, 0
0, 0
0, 0
0, 0
0, 0
0, 0
0, 0
0, 0
0, 1
0, 0
0, 0
0, 0
0, 0
0, 0
0, 0
0, 0
0, 0
0, 0
0, 0
0, 0
0, 0
0, 1
0, 0
0, 0
0, 0
0, 0
0, 0
0, 0
0, 0
0, 1
0, 0
0, 0
0, 0
0, 0
0, 0
0, 0
1, 0
2, 1
0, 0
0, 0
0, 0
0, 0
0, 0
0, 0
0, 0
0, 0
0, 0
0, 0
0, 0
0, 0
0, 0
0, 0
0, 0
0, 0
0, 0
0, 0
0, 0
0, 0
0, 0
0, 0
0, 0
0, 0
0, 0
0, 0
0, 0
0, 0
0, 1
0, 0
0, 0
0, 0
0, 0
0, 0
0, 0
0, 0
0, 0
0, 0
0, 0
0, 0
0, 0
0, 0
0, 0
0, 0
0, 0
0, 0
0, 0
0, 0
0, 0
0, 0
0, 0
0, 0
0, 0
0, 0
0, 0
0, 0
0, 0
0, 0
0, 0
0, 0
0, 0
0, 0
0, 0
0, 0
0, 0
0, 0
0, 0
0, 0
0, 0
0, 0
0, 0
1, 0
0, 0
0, 0
0, 0
0, 0
0, 0
0, 0
0, 0
0, 0
0, 0
0, 0
0, 0
0, 0
0, 0
0, 0
0, 0
0, 0
0, 0
0, 0
0, 0
0, 0
0, 0
0, 0
0, 0
0, 0
0, 0
0, 0
0, 0
0, 0
0, 0
0, 0
0, 0
0, 0
0, 0
0, 0
0, 0
0, 0
0, 0
0, 0
0, 0
0, 0
0, 0
0, 0
0, 0
0, 0
0, 0
0, 0
0, 0
0, 0
0, 0
0, 0
0, 0
0, 0
0, 0
1, 0
0, 0
0, 0
0, 0
0, 0
0, 0
0, 0
0, 0
0, 0
0, 0
0, 0
0, 0
0, 0
0, 0
1, 0
0, 0
0, 0
0, 0
0, 0
0, 0
0, 0
0, 0
0, 0
0, 0
0, 0
0, 0
0, 0
0, 0
0, 0
0, 0
0, 0
0, 0
0, 0
0, 0
0, 0
0, 0
0, 0
0, 0
0, 0
0, 0
0, 0
0, 0
0, 0
0, 0
0, 0
0, 0
0, 0
0, 0
0, 0
0, 0
0, 0
0, 0
0, 0
0, 0
0, 0
0, 0
0, 0
0, 0
0, 0
0, 0
0, 0
0, 0
0, 0
0, 0
0, 0
0, 0
0, 0
0, 0
0, 0
0, 1
0, 0
0, 0
0, 0
0, 0
0, 0
0, 0
0, 0
0, 0
0, 0
0, 0
0, 0
0, 0
0, 0
1, 0
0, 0
0, 0
0, 0
0, 0
0, 0
0, 0
0, 0
0, 0
0, 0
0, 0
0, 0
0, 0
0, 0
0, 0
0, 0
0, 0
0, 0
0, 0
0, 0
0, 0
0, 0
0, 0
0, 0
0, 0
0, 0
0, 0
0, 0
0, 0
0, 0
0, 0
0, 0
0, 0
0, 0
0, 0
0, 0
0, 0
0, 0
0, 0
0, 0
0, 0
0, 0
0, 0
0, 0
0, 0
0, 0
0, 0
0, 0
0, 0
0, 0
0, 0
0, 0
0, 0
0, 0
0, 0
0, 0
0, 0
0, 0
0, 0
0, 0
0, 0
0, 0
0, 0
0, 0
0, 0
0, 0
0, 0
0, 0
0, 0
0, 0
0, 0
0, 0
0, 0
0, 0
0, 0
0, 0
0, 0
0, 0
0, 0
0, 0
0, 0
0, 0
0, 0
0, 0
0, 0
0, 0
0, 0
0, 0
0, 0
0, 0
0, 0
0, 0
0, 0
0, 0
0, 0
0, 0
0, 0
0, 0
0, 0
0, 0
0, 0
0, 0
0, 0
0, 0
0, 0
0, 0
0, 0
0, 0
0, 0
0, 0
0, 0
0, 0
0, 0
0, 0
0, 0
0, 0
0, 0
0, 0
0, 0
0, 0
0, 0
0, 0
0, 0
0, 0
0, 0
0, 0
0, 0
0, 0
0, 0
0, 0
0, 0
0, 0
0, 0
0, 0
0, 0
0, 0
0, 0
0, 0
0, 0
0, 0
0, 0
0, 0
0, 0
0, 0
0, 0
0, 0
0, 0
0, 0
0, 0
0, 0
0, 0
0, 0
0, 0
0, 0
0, 0
0, 0
0, 0
0, 0
0, 0
0, 0
0, 0
0, 0
0, 0
0, 0
0, 0
0, 0
0, 0
0, 0
0, 0
0, 0
0, 0
0, 0
0, 0
0, 0
0, 0
0, 0
0, 0
0, 0
0, 0
0, 0
0, 0
0, 0
0, 0
0, 0
0, 0
0, 0
0, 0
0, 0
0, 0
0, 0
0, 0
0, 0
0, 0
0, 0
0, 0
0, 0
0, 0
0, 0
0, 0
0, 0
0, 0
0, 0
0, 0
0, 0
0, 0
0, 0
0, 0
0, 0
0, 0
0, 0
0, 0
0, 0
0, 0
0, 0
0, 0
0, 0
0, 0
0, 0
0, 0
0, 0
0, 0
0, 0
0, 0
0, 0
0, 0
0, 0
0, 0
0, 0
0, 0
0, 0
0, 0
0, 0
0, 0
0, 0
0, 0
0, 0
0, 0
0, 0
0, 0
0, 0
0, 0
0, 0
0, 0
0, 0
0, 0
0, 0
0, 0
0, 0
0, 0
0, 0
0, 0
0, 0
0, 0
#ENDOFDATA     end of spectrum data