File: host_upload/06-09-2024/ps_0852/dump3/ps__0852shot_2166.msa
#FORMAT      : EMSA/MAS spectral data file
#VERSION     : TC202v2.0 PIXL
#TITLE       : N/A
#DATE        :       Date in the format DD-MMM-YYYY, for example 07-JUL-2010
#TIME        :             The time of day at which the spectrum was recorded, in 24-hour format
#OWNER       : PIXL Flight Model       (PIXL will use this to indicate which instrument took the data.)
#NPOINTS     : 4096     Number of data points in the spectrum (This can be zero for configuration only files)
#NCOLUMNS    : 2     Number of data columns in the spectrum (This can be zero for configuration only files)
#XUNITS      : eV
#YUNITS      : COUNTS
#DATATYPE    : YY
#XPERCHAN    : 7.862, 7.881   eV per channel (separate by commas if more than one detector)
#OFFSET      : 18.5, -22.4         eV of first channel  (separate by commas if more than one detector
#SIGNALTYPE  : XRF
#YP_TEMP     : 2.492
#LIVETIME    : 8.56081, 8.56477   seconds (separate by commas if more than one detector)
#REALTIME    : 10, 10.0   seconds (separate by commas if more than one detector)
#SPECTRUM    : start of spectrum data
0, 0
0, 0
0, 0
0, 0
0, 0
0, 0
0, 0
0, 0
0, 0
0, 0
0, 0
0, 0
0, 0
0, 0
0, 0
0, 0
0, 0
0, 0
0, 0
0, 0
0, 0
0, 0
0, 0
0, 0
0, 0
0, 0
0, 0
0, 0
0, 0
0, 0
0, 0
0, 1
1, 0
0, 1
0, 2
0, 0
0, 0
0, 1
0, 1
0, 1
0, 2
0, 4
1, 2
1, 1
0, 0
0, 2
0, 2
2, 3
1, 4
13, 12
18, 20
36, 53
40, 46
60, 60
76, 58
57, 69
58, 55
26, 47
28, 29
15, 10
13, 4
3, 5
6, 4
5, 5
5, 10
3, 3
3, 3
10, 13
21, 36
59, 78
99, 111
153, 189
276, 312
389, 403
437, 498
448, 506
441, 439
335, 322
215, 221
151, 129
67, 81
53, 57
32, 25
17, 12
7, 10
3, 3
3, 1
5, 2
2, 3
0, 1
1, 0
2, 5
1, 2
6, 6
15, 19
18, 28
25, 39
40, 58
55, 51
48, 54
40, 42
40, 25
34, 38
23, 23
19, 15
13, 10
12, 14
18, 10
13, 13
20, 15
24, 26
38, 38
35, 39
56, 47
47, 47
40, 35
30, 31
39, 31
31, 29
26, 28
26, 21
23, 16
14, 16
15, 13
10, 14
13, 15
13, 14
10, 12
10, 5
6, 9
7, 2
6, 2
2, 4
3, 1
2, 2
5, 2
2, 5
4, 1
0, 3
2, 2
1, 4
2, 2
3, 4
3, 3
1, 2
5, 0
3, 3
2, 5
4, 8
6, 10
9, 13
31, 31
50, 52
61, 112
126, 144
165, 211
218, 242
195, 279
222, 247
221, 208
158, 138
118, 107
86, 78
44, 34
29, 24
12, 15
14, 11
22, 21
28, 33
24, 30
24, 31
39, 37
34, 32
22, 26
22, 32
24, 16
18, 16
12, 7
14, 6
9, 6
9, 4
7, 0
3, 0
2, 4
7, 4
3, 3
5, 5
5, 4
8, 9
4, 5
7, 6
10, 13
8, 8
15, 12
15, 17
10, 19
11, 19
11, 13
14, 12
10, 9
6, 8
10, 11
9, 9
6, 6
8, 2
4, 6
5, 9
6, 6
12, 8
7, 5
9, 9
5, 6
5, 4
12, 8
5, 11
5, 11
3, 14
1, 12
5, 22
6, 24
6, 26
4, 26
7, 19
4, 12
6, 24
6, 14
16, 19
25, 35
23, 30
38, 35
36, 41
51, 31
26, 25
32, 20
27, 23
18, 9
19, 7
11, 8
20, 3
12, 2
12, 5
15, 3
13, 11
21, 14
22, 14
47, 20
42, 20
70, 37
86, 42
111, 46
112, 46
112, 53
123, 63
125, 49
77, 40
76, 23
60, 25
47, 18
37, 10
24, 21
25, 15
29, 24
45, 34
63, 64
119, 176
230, 304
338, 492
575, 709
894, 1044
1166, 1410
1480, 1698
1770, 1894
1832, 1995
1792, 1854
1639, 1701
1300, 1180
993, 948
663, 678
478, 422
265, 220
150, 140
90, 91
49, 46
20, 22
12, 24
16, 18
12, 13
8, 16
11, 16
19, 13
22, 22
28, 31
35, 44
51, 68
78, 98
118, 129
162, 198
194, 236
254, 314
256, 287
296, 307
263, 285
248, 220
207, 180
171, 143
134, 79
93, 51
66, 35
52, 26
39, 18
27, 23
25, 18
18, 14
13, 9
19, 14
12, 22
11, 17
7, 16
18, 9
10, 13
10, 9
11, 4
12, 2
5, 5
3, 5
1, 2
3, 1
5, 7
4, 4
5, 6
2, 4
2, 1
5, 5
3, 4
3, 4
6, 4
2, 8
3, 5
5, 1
4, 7
3, 6
5, 4
3, 3
1, 2
3, 10
5, 4
5, 3
6, 9
10, 6
5, 8
7, 1
6, 9
7, 4
6, 2
4, 4
6, 4
4, 3
5, 4
4, 7
3, 6
4, 4
2, 2
6, 3
3, 1
7, 5
1, 3
1, 1
5, 7
4, 5
1, 3
5, 4
3, 7
0, 7
7, 2
5, 11
6, 5
3, 5
7, 5
6, 6
5, 7
9, 12
7, 8
13, 9
3, 4
7, 5
6, 4
2, 1
3, 4
6, 4
3, 5
3, 7
10, 6
5, 7
8, 6
6, 9
6, 2
8, 6
10, 4
5, 4
7, 3
3, 5
4, 2
8, 6
5, 2
2, 4
7, 1
6, 2
3, 3
5, 6
8, 4
1, 3
6, 4
2, 3
2, 5
6, 5
5, 1
3, 3
0, 2
3, 4
3, 2
7, 1
5, 2
7, 4
6, 4
4, 3
2, 3
7, 4
1, 6
3, 6
2, 4
1, 7
3, 7
5, 5
2, 6
1, 6
1, 3
2, 2
2, 6
3, 7
3, 5
1, 6
2, 3
5, 4
1, 5
3, 2
2, 4
5, 2
2, 5
1, 1
3, 2
3, 3
1, 7
0, 4
3, 4
4, 2
5, 3
2, 9
1, 6
4, 2
3, 3
1, 3
4, 1
2, 6
5, 2
6, 3
4, 6
4, 5
4, 2
2, 1
0, 1
4, 2
2, 7
5, 2
1, 1
3, 5
3, 1
2, 3
0, 1
4, 2
1, 2
4, 3
5, 2
1, 3
2, 4
0, 1
2, 4
1, 1
3, 2
1, 1
2, 2
1, 2
4, 6
5, 1
4, 0
3, 1
3, 0
2, 0
1, 5
0, 1
3, 0
2, 1
2, 2
6, 5
5, 1
11, 3
9, 1
9, 2
7, 2
8, 2
4, 2
3, 2
3, 1
8, 4
3, 0
2, 1
0, 2
4, 2
2, 5
2, 1
5, 3
0, 2
1, 2
4, 2
3, 3
3, 2
0, 2
0, 2
1, 2
1, 2
0, 2
0, 6
0, 3
1, 4
4, 4
1, 4
4, 2
2, 4
3, 2
2, 3
2, 5
4, 4
4, 6
2, 6
3, 3
3, 4
0, 3
1, 2
3, 0
4, 2
0, 1
1, 2
1, 2
3, 1
0, 5
1, 2
0, 1
1, 3
0, 1
1, 0
2, 3
1, 0
0, 2
2, 1
2, 2
1, 0
1, 1
2, 1
2, 1
0, 1
1, 1
1, 1
1, 4
1, 1
2, 1
2, 1
1, 0
1, 1
0, 0
1, 1
3, 1
0, 1
1, 0
0, 1
0, 2
0, 0
3, 3
2, 1
3, 1
3, 3
0, 1
1, 1
0, 1
1, 0
1, 1
1, 2
1, 1
1, 0
1, 0
2, 6
0, 0
2, 3
1, 1
4, 2
1, 0
1, 2
0, 1
2, 0
2, 0
5, 0
0, 0
0, 0
1, 2
1, 0
2, 1
0, 2
1, 2
1, 2
0, 0
3, 0
2, 0
0, 1
1, 1
0, 1
0, 1
0, 2
0, 0
0, 0
1, 3
1, 0
0, 0
2, 1
1, 1
0, 1
1, 0
0, 3
0, 0
2, 0
2, 0
2, 1
1, 0
1, 0
0, 1
1, 2
0, 1
1, 0
0, 0
0, 0
1, 0
2, 0
0, 0
1, 1
1, 0
0, 0
1, 1
1, 2
0, 1
0, 1
0, 2
0, 0
0, 2
1, 0
0, 0
0, 0
0, 0
0, 1
0, 0
0, 2
1, 0
0, 1
0, 0
0, 0
0, 1
1, 1
0, 0
0, 1
0, 1
1, 0
2, 0
2, 1
2, 1
0, 3
3, 0
0, 0
0, 1
1, 0
0, 1
0, 0
0, 0
0, 0
0, 2
0, 0
0, 1
0, 1
0, 0
0, 0
1, 1
1, 0
0, 0
1, 0
1, 0
0, 0
0, 0
1, 0
2, 0
1, 1
0, 0
0, 0
0, 0
0, 0
0, 0
0, 1
0, 0
2, 0
0, 1
0, 1
0, 0
0, 0
0, 0
0, 0
0, 0
0, 0
0, 0
0, 0
2, 0
0, 0
0, 1
1, 0
0, 0
0, 0
0, 0
1, 0
1, 1
0, 0
1, 0
0, 0
0, 1
1, 2
0, 1
1, 0
0, 0
0, 0
0, 0
0, 0
1, 0
0, 1
0, 0
1, 0
1, 0
1, 1
0, 0
1, 0
0, 0
0, 0
0, 0
0, 0
0, 0
0, 0
0, 1
0, 0
0, 1
0, 0
0, 0
0, 1
0, 0
0, 1
1, 0
0, 0
0, 1
0, 0
0, 0
0, 1
0, 0
0, 0
0, 1
0, 0
1, 2
1, 0
0, 0
0, 0
0, 0
1, 1
0, 1
0, 1
1, 0
0, 0
1, 1
1, 1
0, 1
0, 0
0, 0
1, 0
0, 2
1, 0
0, 0
0, 0
0, 0
1, 0
0, 0
0, 0
1, 1
1, 0
0, 1
0, 2
0, 0
0, 0
0, 0
0, 0
0, 0
0, 0
0, 0
0, 0
0, 0
0, 0
0, 0
0, 0
0, 0
0, 0
1, 0
0, 0
0, 0
0, 0
0, 0
0, 0
1, 1
0, 0
0, 0
0, 0
0, 0
0, 0
0, 1
0, 0
0, 0
0, 0
1, 0
1, 0
0, 0
0, 0
1, 0
0, 0
0, 0
0, 0
0, 0
0, 0
0, 0
0, 1
0, 0
0, 0
0, 1
0, 0
0, 0
0, 0
0, 0
0, 1
0, 1
0, 0
1, 0
0, 0
0, 0
0, 1
0, 0
0, 0
1, 0
0, 0
0, 0
0, 0
0, 1
0, 0
0, 0
0, 0
0, 0
1, 0
0, 0
0, 0
0, 0
1, 0
0, 0
0, 0
0, 0
0, 0
0, 0
0, 0
0, 0
0, 0
1, 0
0, 1
0, 0
0, 0
0, 0
0, 0
0, 0
0, 0
0, 0
0, 0
0, 0
1, 0
0, 0
0, 0
0, 0
1, 0
0, 0
0, 0
0, 0
0, 0
0, 0
0, 0
0, 0
0, 0
0, 0
0, 0
0, 0
0, 0
0, 0
0, 0
0, 0
0, 0
0, 0
1, 0
0, 0
0, 0
0, 0
0, 0
1, 0
0, 0
0, 0
0, 0
0, 0
0, 0
0, 0
0, 0
1, 0
0, 0
0, 0
0, 0
0, 0
0, 0
0, 0
0, 0
0, 0
0, 0
0, 0
0, 0
0, 0
0, 0
0, 0
0, 0
0, 0
0, 0
0, 0
0, 0
0, 0
0, 0
0, 0
0, 0
0, 0
0, 0
0, 0
0, 0
0, 0
0, 0
0, 0
0, 0
0, 0
0, 0
0, 0
0, 0
0, 0
0, 0
0, 0
0, 0
0, 0
0, 0
0, 0
0, 0
0, 0
0, 0
0, 1
0, 0
0, 0
0, 0
0, 0
0, 0
0, 0
0, 0
0, 0
0, 0
0, 1
0, 0
0, 0
0, 0
0, 0
0, 0
0, 0
0, 0
0, 0
0, 0
1, 0
0, 0
0, 0
0, 0
0, 0
0, 0
0, 0
0, 0
0, 0
0, 0
0, 0
0, 0
0, 0
0, 0
0, 0
0, 0
0, 0
0, 0
0, 0
0, 0
0, 0
0, 0
0, 0
0, 0
0, 0
0, 0
0, 0
0, 0
0, 0
0, 0
0, 0
0, 0
0, 0
0, 0
0, 0
0, 0
0, 0
0, 0
0, 0
0, 0
0, 0
0, 0
0, 0
0, 0
0, 0
0, 0
0, 0
0, 0
0, 0
0, 0
0, 0
0, 0
0, 0
0, 0
0, 0
0, 0
0, 0
0, 0
0, 0
0, 0
0, 0
0, 0
0, 0
0, 0
0, 0
0, 0
0, 0
0, 0
0, 0
0, 0
0, 0
0, 0
0, 0
0, 0
0, 0
0, 0
0, 0
0, 0
0, 0
0, 0
0, 0
0, 0
0, 0
0, 0
0, 0
0, 0
0, 0
0, 0
0, 0
0, 0
0, 0
0, 0
0, 0
0, 0
0, 0
0, 0
0, 0
0, 0
0, 0
0, 0
0, 0
0, 0
0, 0
0, 0
0, 0
0, 0
0, 0
0, 0
0, 0
0, 0
0, 0
0, 0
0, 0
0, 0
0, 0
0, 0
0, 0
0, 0
0, 0
0, 0
0, 0
0, 1
0, 0
0, 0
0, 0
0, 0
0, 0
0, 0
0, 0
0, 0
0, 0
0, 0
0, 0
0, 0
0, 0
0, 0
0, 0
0, 0
0, 0
0, 0
0, 0
0, 0
0, 0
0, 0
0, 0
0, 0
0, 0
0, 0
0, 0
0, 0
0, 0
0, 0
0, 0
0, 0
0, 0
0, 0
0, 0
0, 0
0, 0
0, 0
0, 0
0, 0
0, 0
0, 0
0, 0
0, 0
0, 0
0, 0
0, 0
0, 0
0, 0
0, 0
0, 0
0, 0
0, 0
0, 0
0, 0
0, 0
0, 0
0, 0
0, 0
0, 0
0, 0
0, 0
0, 0
0, 0
0, 0
0, 0
0, 0
0, 0
0, 0
0, 0
0, 0
0, 0
0, 0
0, 0
0, 0
0, 0
0, 0
0, 0
0, 0
0, 0
0, 0
0, 0
0, 0
0, 0
0, 0
0, 0
0, 0
0, 0
0, 0
0, 0
0, 0
0, 0
0, 0
0, 0
0, 0
0, 0
0, 0
0, 0
0, 0
0, 0
0, 0
0, 0
0, 0
0, 0
0, 0
0, 0
0, 0
0, 0
0, 0
0, 0
0, 0
0, 0
0, 0
0, 0
0, 0
0, 0
0, 0
0, 0
0, 0
0, 0
0, 0
0, 0
0, 0
0, 0
0, 0
0, 0
0, 0
0, 0
0, 0
0, 0
0, 0
0, 0
0, 0
0, 0
0, 0
0, 0
0, 0
0, 0
0, 0
0, 0
0, 0
0, 0
0, 0
0, 0
0, 0
0, 0
0, 0
0, 0
0, 0
0, 0
0, 0
0, 0
0, 0
0, 0
0, 0
0, 0
0, 0
0, 0
0, 0
0, 0
0, 0
0, 0
0, 0
0, 0
0, 0
0, 0
0, 0
0, 0
0, 0
0, 0
0, 0
0, 0
0, 0
0, 0
0, 0
0, 0
0, 0
0, 0
0, 0
0, 0
0, 0
0, 0
0, 0
0, 0
0, 0
0, 0
0, 0
0, 0
0, 0
0, 0
0, 0
0, 0
0, 0
0, 0
0, 0
0, 0
0, 0
0, 0
0, 0
0, 0
0, 0
0, 0
0, 0
0, 0
0, 0
0, 0
0, 0
0, 0
0, 0
0, 0
0, 0
0, 0
0, 0
0, 0
0, 0
0, 0
0, 0
0, 0
0, 0
0, 0
0, 0
0, 0
0, 0
0, 0
0, 0
0, 0
0, 0
0, 0
0, 0
0, 0
0, 0
0, 0
0, 0
0, 0
0, 0
0, 0
0, 0
0, 0
0, 0
0, 0
0, 0
0, 0
0, 0
0, 0
0, 0
0, 0
0, 0
0, 0
0, 0
#ENDOFDATA     end of spectrum data