File: host_upload/06-09-2024/ps_0852/dump3/ps__0852shot_2218.msa
#FORMAT      : EMSA/MAS spectral data file
#VERSION     : TC202v2.0 PIXL
#TITLE       : N/A
#DATE        :       Date in the format DD-MMM-YYYY, for example 07-JUL-2010
#TIME        :             The time of day at which the spectrum was recorded, in 24-hour format
#OWNER       : PIXL Flight Model       (PIXL will use this to indicate which instrument took the data.)
#NPOINTS     : 4096     Number of data points in the spectrum (This can be zero for configuration only files)
#NCOLUMNS    : 2     Number of data columns in the spectrum (This can be zero for configuration only files)
#XUNITS      : eV
#YUNITS      : COUNTS
#DATATYPE    : YY
#XPERCHAN    : 7.862, 7.881   eV per channel (separate by commas if more than one detector)
#OFFSET      : 18.5, -22.4         eV of first channel  (separate by commas if more than one detector
#SIGNALTYPE  : XRF
#YP_TEMP     : 2.46
#LIVETIME    : 8.55612, 8.55975   seconds (separate by commas if more than one detector)
#REALTIME    : 10, 10.0   seconds (separate by commas if more than one detector)
#SPECTRUM    : start of spectrum data
0, 0
0, 0
0, 0
0, 0
0, 0
0, 0
0, 0
0, 0
0, 0
0, 0
0, 0
0, 0
0, 0
0, 0
0, 0
0, 0
0, 0
0, 0
0, 0
0, 0
0, 0
0, 0
0, 0
0, 0
0, 0
0, 0
0, 0
0, 0
0, 0
0, 0
0, 0
0, 1
0, 0
0, 0
1, 0
0, 0
1, 0
0, 1
0, 1
0, 2
0, 2
1, 2
2, 0
0, 2
1, 0
1, 3
1, 1
1, 1
9, 6
13, 12
33, 13
36, 34
64, 60
73, 69
59, 84
87, 68
53, 66
36, 35
28, 22
14, 13
7, 8
5, 8
1, 3
8, 1
2, 8
5, 3
6, 10
14, 6
27, 14
48, 36
95, 103
153, 158
270, 266
372, 356
413, 416
415, 394
342, 376
282, 294
233, 193
148, 113
74, 86
34, 31
26, 18
7, 8
8, 3
4, 2
0, 2
1, 1
0, 1
1, 0
1, 1
2, 1
2, 2
2, 1
1, 1
2, 5
0, 4
4, 3
1, 6
2, 4
4, 1
7, 1
6, 1
2, 2
0, 6
1, 2
3, 0
1, 8
8, 11
11, 12
10, 22
22, 26
31, 41
35, 63
35, 39
39, 45
34, 46
33, 47
24, 33
13, 23
21, 16
12, 15
17, 18
11, 16
12, 12
12, 11
6, 9
9, 14
3, 6
8, 7
9, 2
1, 3
4, 3
2, 0
1, 3
3, 4
6, 2
4, 2
2, 1
4, 2
3, 4
2, 1
5, 2
2, 1
1, 0
2, 1
2, 3
3, 0
4, 2
1, 1
4, 3
4, 4
9, 2
4, 2
5, 7
11, 16
15, 16
14, 13
18, 16
11, 8
10, 9
8, 9
4, 5
3, 3
3, 1
1, 5
2, 0
2, 2
0, 1
1, 4
3, 3
7, 3
3, 5
3, 9
4, 7
4, 8
8, 6
6, 8
13, 6
6, 7
9, 12
8, 5
8, 7
10, 6
5, 6
6, 4
6, 7
6, 3
8, 6
10, 4
10, 5
12, 10
10, 10
17, 22
11, 23
10, 13
17, 16
5, 19
13, 19
8, 19
23, 12
13, 12
15, 7
13, 9
9, 3
15, 4
17, 4
7, 5
11, 6
9, 2
8, 4
4, 5
9, 10
5, 9
8, 6
4, 5
6, 6
5, 4
11, 11
4, 7
3, 10
6, 8
4, 19
6, 19
10, 20
7, 13
6, 20
11, 20
11, 20
13, 15
13, 17
15, 15
9, 11
11, 13
14, 12
10, 6
8, 7
10, 5
9, 6
6, 4
7, 9
1, 9
6, 17
18, 16
15, 12
18, 21
20, 32
35, 40
46, 56
47, 66
58, 70
62, 46
52, 57
47, 42
52, 39
34, 23
29, 19
20, 18
14, 15
9, 17
15, 21
25, 33
37, 60
75, 102
139, 177
273, 371
459, 591
748, 939
1169, 1352
1517, 1755
1968, 2095
2314, 2372
2342, 2380
2390, 2171
2158, 1983
1760, 1507
1306, 1110
913, 741
617, 455
323, 287
221, 154
103, 72
64, 37
29, 22
29, 21
11, 14
11, 7
19, 14
18, 15
12, 22
22, 27
36, 36
46, 48
81, 101
104, 112
148, 178
205, 238
270, 277
329, 308
350, 333
362, 356
372, 314
357, 297
246, 206
218, 175
143, 94
114, 65
82, 29
46, 26
25, 18
18, 15
13, 2
10, 9
13, 7
10, 8
10, 11
15, 11
10, 12
12, 8
17, 13
14, 7
10, 10
13, 5
8, 7
3, 10
2, 6
3, 3
3, 7
3, 3
2, 8
3, 2
4, 0
3, 2
2, 3
6, 4
4, 3
3, 2
1, 4
9, 6
1, 8
5, 3
4, 4
5, 5
7, 2
3, 6
8, 1
11, 4
3, 8
3, 3
3, 7
3, 5
8, 3
6, 8
5, 3
3, 4
7, 4
5, 6
5, 4
3, 2
4, 6
5, 2
6, 3
2, 5
6, 10
1, 4
5, 1
9, 5
2, 4
4, 5
2, 7
9, 7
7, 7
6, 5
4, 9
10, 4
4, 3
6, 6
11, 5
14, 3
17, 4
8, 4
11, 7
6, 4
9, 2
13, 2
6, 0
7, 1
4, 0
5, 6
2, 6
4, 5
5, 9
9, 5
2, 10
6, 7
6, 10
7, 5
2, 6
2, 6
2, 8
3, 1
3, 2
5, 4
2, 1
3, 2
2, 5
3, 2
3, 0
3, 4
4, 2
1, 7
4, 4
3, 1
3, 3
3, 5
5, 3
4, 6
6, 7
0, 8
2, 11
4, 11
5, 9
7, 10
10, 13
6, 10
9, 14
9, 12
3, 4
8, 11
6, 2
2, 3
3, 6
0, 5
1, 5
1, 2
3, 8
3, 5
1, 2
2, 4
2, 2
4, 6
1, 4
4, 4
2, 3
1, 7
2, 4
1, 3
3, 2
5, 2
1, 6
4, 2
2, 2
3, 3
7, 3
5, 2
6, 3
10, 2
2, 3
10, 1
5, 4
3, 3
6, 4
1, 2
7, 3
3, 3
2, 4
3, 2
0, 5
5, 5
3, 0
0, 2
3, 4
3, 2
3, 3
2, 3
5, 6
2, 0
2, 1
3, 2
4, 3
2, 0
1, 3
1, 3
2, 4
2, 4
2, 1
3, 1
4, 4
2, 1
2, 5
0, 2
1, 2
1, 1
1, 2
2, 1
1, 5
3, 1
1, 1
3, 3
1, 3
2, 2
4, 0
1, 5
4, 2
4, 2
4, 4
3, 3
0, 0
1, 1
3, 2
0, 2
2, 4
3, 1
0, 4
2, 3
1, 3
2, 1
4, 4
4, 2
0, 1
1, 1
1, 1
5, 0
3, 1
4, 2
1, 1
6, 2
6, 2
1, 1
3, 4
3, 2
6, 3
2, 2
4, 1
3, 1
1, 3
1, 0
2, 4
3, 1
5, 4
5, 4
5, 2
4, 6
7, 4
1, 2
2, 4
3, 4
3, 2
2, 5
2, 0
6, 3
4, 0
1, 0
5, 3
3, 1
1, 2
1, 0
2, 2
2, 0
1, 2
1, 2
0, 1
0, 2
1, 2
0, 1
0, 6
2, 2
3, 2
2, 2
3, 1
2, 1
1, 2
2, 4
2, 1
3, 0
2, 3
3, 1
1, 1
1, 1
1, 1
0, 1
3, 1
0, 0
2, 2
0, 1
1, 0
1, 3
2, 0
1, 3
1, 4
0, 1
0, 3
1, 0
0, 1
0, 1
1, 2
1, 2
2, 1
2, 1
0, 2
0, 1
1, 1
1, 0
0, 0
2, 0
4, 2
0, 0
0, 0
1, 0
0, 0
1, 1
3, 0
1, 2
2, 1
0, 0
0, 0
1, 1
1, 0
2, 0
1, 0
4, 1
1, 0
1, 1
1, 0
0, 2
1, 2
0, 0
1, 3
1, 1
1, 0
0, 2
0, 1
0, 0
2, 0
1, 3
0, 0
0, 2
1, 0
0, 1
1, 1
1, 0
2, 1
1, 1
1, 3
0, 1
1, 1
1, 0
0, 1
2, 2
1, 1
0, 0
0, 1
1, 1
2, 0
2, 0
0, 0
2, 1
0, 1
0, 1
1, 2
1, 0
1, 0
1, 0
2, 2
0, 0
0, 2
1, 0
0, 0
0, 0
1, 1
0, 2
0, 0
1, 0
0, 0
1, 0
0, 1
0, 0
0, 0
0, 1
1, 0
2, 1
1, 0
1, 1
1, 1
0, 0
1, 0
0, 1
1, 0
0, 0
0, 0
1, 0
2, 0
2, 0
0, 1
0, 0
0, 1
0, 0
0, 0
1, 0
1, 1
0, 1
0, 0
1, 0
0, 1
0, 0
1, 1
1, 0
2, 0
0, 1
2, 1
1, 2
0, 2
0, 0
0, 1
0, 0
0, 1
0, 1
1, 0
0, 0
0, 0
0, 0
1, 0
0, 1
0, 0
0, 1
1, 1
1, 0
0, 0
0, 1
2, 0
0, 1
0, 0
0, 0
0, 0
0, 0
2, 1
0, 0
0, 0
0, 0
0, 0
0, 0
0, 1
0, 0
0, 0
0, 0
0, 1
0, 0
0, 0
0, 0
1, 0
0, 1
1, 1
0, 0
0, 0
0, 0
0, 0
0, 2
0, 0
1, 0
0, 0
0, 0
0, 0
2, 0
0, 0
0, 0
0, 0
0, 0
0, 0
0, 1
0, 0
0, 1
1, 0
0, 0
0, 0
0, 1
0, 0
0, 0
0, 1
0, 0
0, 0
0, 0
0, 0
1, 0
0, 0
0, 0
0, 1
0, 0
0, 0
0, 0
0, 0
0, 1
0, 0
0, 0
0, 1
0, 1
0, 0
0, 0
0, 0
2, 0
1, 0
0, 0
0, 0
0, 0
0, 0
0, 0
0, 0
0, 1
0, 0
0, 0
0, 1
0, 0
0, 0
0, 0
0, 0
0, 1
0, 0
0, 0
0, 0
0, 0
0, 0
0, 0
1, 0
0, 0
0, 0
0, 0
0, 0
0, 0
0, 0
0, 0
0, 0
1, 0
0, 0
0, 0
0, 1
0, 0
0, 1
0, 0
0, 0
0, 0
1, 0
0, 0
0, 0
0, 2
0, 0
1, 0
0, 0
0, 1
0, 0
1, 0
0, 1
0, 0
1, 0
0, 0
0, 0
0, 0
1, 0
0, 1
0, 0
0, 3
1, 0
0, 0
0, 0
0, 0
1, 0
0, 1
0, 0
0, 0
0, 0
0, 0
0, 0
1, 0
0, 0
0, 0
0, 0
0, 0
0, 0
0, 0
0, 0
0, 0
0, 0
0, 0
0, 0
0, 0
0, 0
0, 0
0, 0
0, 0
0, 1
0, 0
0, 0
0, 0
0, 0
0, 0
0, 0
0, 0
1, 0
0, 0
1, 0
0, 0
0, 0
0, 0
0, 0
0, 0
0, 0
0, 0
0, 0
0, 0
0, 0
0, 0
0, 0
0, 0
0, 0
0, 0
0, 0
0, 0
0, 0
0, 0
0, 0
0, 0
0, 0
0, 1
0, 0
0, 0
0, 0
0, 0
0, 0
0, 0
0, 0
0, 0
0, 0
0, 0
0, 0
0, 0
0, 0
0, 0
0, 0
0, 0
0, 0
0, 0
0, 0
0, 0
0, 0
0, 0
0, 0
0, 0
0, 0
0, 0
1, 0
2, 0
0, 0
1, 0
0, 0
0, 0
0, 0
0, 0
0, 0
0, 0
0, 0
0, 0
0, 0
0, 0
0, 1
0, 0
0, 0
0, 0
0, 0
0, 0
0, 0
0, 0
0, 0
0, 0
0, 0
0, 0
0, 0
0, 0
0, 0
0, 0
0, 0
0, 0
0, 0
0, 0
0, 0
0, 0
0, 0
0, 0
1, 0
0, 0
0, 0
0, 0
0, 0
0, 0
0, 0
0, 0
0, 0
0, 0
0, 0
0, 0
0, 0
0, 0
0, 0
0, 0
0, 0
0, 0
0, 0
0, 0
0, 0
0, 0
0, 0
0, 0
0, 0
0, 0
0, 0
0, 0
0, 0
0, 0
0, 0
0, 0
0, 0
0, 0
0, 0
0, 0
0, 0
0, 0
0, 0
0, 0
0, 0
0, 0
0, 0
0, 0
0, 0
0, 0
0, 0
0, 0
0, 0
0, 0
0, 0
0, 0
0, 0
0, 0
0, 0
0, 0
0, 0
0, 0
0, 0
0, 0
0, 0
0, 0
0, 0
0, 0
0, 0
0, 0
0, 0
0, 0
0, 0
0, 0
0, 0
0, 0
0, 0
0, 0
0, 0
0, 0
0, 0
0, 0
0, 0
0, 0
0, 0
0, 0
0, 0
0, 0
0, 0
0, 0
0, 0
0, 0
0, 0
0, 0
0, 0
0, 0
0, 0
0, 0
0, 0
0, 0
0, 0
0, 0
0, 0
0, 0
0, 0
0, 0
0, 0
0, 0
0, 0
0, 0
0, 0
0, 0
0, 0
0, 0
0, 0
0, 0
0, 0
0, 0
0, 0
0, 0
0, 0
0, 0
0, 0
0, 0
0, 0
0, 0
0, 0
0, 0
0, 0
0, 0
0, 0
0, 0
0, 0
0, 0
0, 0
0, 0
0, 0
0, 0
0, 0
0, 0
0, 0
0, 0
0, 0
0, 0
0, 0
0, 0
0, 0
0, 0
0, 0
0, 0
0, 0
0, 0
0, 0
0, 0
0, 0
0, 0
0, 0
0, 0
0, 0
0, 0
0, 0
0, 0
0, 0
0, 0
0, 0
0, 0
0, 0
0, 0
0, 0
0, 0
0, 0
0, 0
0, 0
0, 0
0, 0
0, 0
0, 0
0, 0
0, 0
0, 0
0, 0
0, 0
0, 0
0, 0
0, 0
0, 0
0, 0
0, 0
0, 0
0, 0
0, 0
0, 0
0, 0
0, 0
0, 0
0, 0
0, 0
0, 0
0, 0
0, 0
0, 0
0, 0
0, 0
0, 0
0, 0
0, 0
0, 0
0, 0
0, 0
0, 0
0, 0
0, 0
0, 0
0, 0
0, 0
0, 0
0, 0
0, 0
0, 0
0, 0
0, 0
0, 0
0, 0
0, 0
0, 0
0, 0
0, 0
0, 0
0, 0
0, 0
0, 0
0, 0
0, 0
0, 0
0, 0
0, 0
0, 0
0, 0
0, 0
0, 0
0, 0
0, 0
0, 0
0, 0
0, 0
0, 0
0, 0
0, 0
0, 0
0, 0
0, 0
0, 0
0, 0
0, 0
0, 0
0, 0
0, 0
0, 0
0, 0
0, 0
0, 0
0, 0
0, 0
0, 0
0, 0
0, 0
0, 0
0, 0
0, 0
0, 0
0, 0
0, 0
0, 0
0, 0
0, 0
0, 0
0, 0
0, 0
0, 0
0, 0
0, 0
0, 0
0, 0
0, 0
0, 0
0, 0
0, 0
0, 0
0, 0
0, 0
0, 0
0, 0
0, 0
0, 0
0, 0
0, 0
0, 0
0, 0
0, 0
0, 0
0, 0
0, 0
0, 0
0, 0
0, 0
0, 0
0, 0
0, 0
0, 0
0, 0
0, 0
0, 0
0, 0
0, 0
0, 0
0, 0
0, 0
0, 0
0, 0
0, 0
0, 0
0, 0
0, 0
0, 0
0, 0
0, 0
0, 0
0, 0
0, 0
0, 0
0, 0
0, 0
0, 0
0, 0
0, 0
0, 0
0, 0
0, 0
0, 0
0, 0
0, 0
0, 0
0, 0
0, 0
0, 0
0, 0
0, 0
0, 0
0, 0
0, 0
0, 0
0, 0
0, 0
0, 0
0, 0
0, 0
0, 0
0, 0
0, 0
0, 0
0, 0
0, 0
0, 0
0, 0
0, 0
0, 0
0, 0
0, 0
0, 0
0, 0
0, 0
0, 0
0, 0
0, 0
0, 0
0, 0
0, 0
0, 0
0, 0
0, 0
0, 0
0, 0
0, 0
0, 0
0, 0
#ENDOFDATA     end of spectrum data