File: host_upload/06-09-2024/ps_0852/dump3/ps__0852shot_2030.msa
#FORMAT      : EMSA/MAS spectral data file
#VERSION     : TC202v2.0 PIXL
#TITLE       : N/A
#DATE        :       Date in the format DD-MMM-YYYY, for example 07-JUL-2010
#TIME        :             The time of day at which the spectrum was recorded, in 24-hour format
#OWNER       : PIXL Flight Model       (PIXL will use this to indicate which instrument took the data.)
#NPOINTS     : 4096     Number of data points in the spectrum (This can be zero for configuration only files)
#NCOLUMNS    : 2     Number of data columns in the spectrum (This can be zero for configuration only files)
#XUNITS      : eV
#YUNITS      : COUNTS
#DATATYPE    : YY
#XPERCHAN    : 7.862, 7.881   eV per channel (separate by commas if more than one detector)
#OFFSET      : 18.5, -22.4         eV of first channel  (separate by commas if more than one detector
#SIGNALTYPE  : XRF
#YP_TEMP     : 2.3
#LIVETIME    : 8.57383, 8.55954   seconds (separate by commas if more than one detector)
#REALTIME    : 10, 10.0   seconds (separate by commas if more than one detector)
#SPECTRUM    : start of spectrum data
0, 0
0, 0
0, 0
0, 0
0, 0
0, 0
0, 0
0, 0
0, 0
0, 0
0, 0
0, 0
0, 0
0, 0
0, 0
0, 0
0, 0
0, 0
0, 0
0, 0
0, 0
0, 0
0, 0
0, 0
0, 0
0, 0
0, 0
0, 0
0, 0
0, 0
0, 0
0, 0
0, 0
0, 1
0, 0
1, 1
0, 0
0, 0
1, 1
1, 0
0, 1
2, 3
2, 1
2, 4
2, 3
2, 1
3, 4
1, 1
10, 1
8, 17
25, 17
27, 27
45, 52
59, 56
93, 66
70, 69
58, 48
45, 34
27, 11
9, 12
11, 9
7, 2
1, 5
10, 6
3, 6
6, 4
4, 8
10, 15
26, 19
48, 32
100, 73
163, 170
271, 200
376, 285
428, 334
382, 389
375, 309
282, 229
166, 164
125, 84
81, 50
37, 36
34, 23
5, 8
7, 5
7, 6
1, 2
5, 2
5, 3
4, 2
5, 5
6, 10
11, 11
20, 15
38, 27
56, 34
96, 89
127, 101
142, 139
153, 103
134, 112
122, 85
84, 76
70, 41
38, 27
17, 18
30, 20
18, 18
20, 24
28, 22
39, 39
43, 37
49, 40
57, 49
82, 48
93, 43
89, 37
105, 38
113, 33
122, 27
102, 30
77, 21
69, 29
47, 11
29, 19
16, 7
15, 22
12, 7
10, 9
8, 8
5, 7
3, 6
5, 4
2, 1
4, 5
2, 3
7, 3
2, 1
4, 5
6, 3
7, 2
6, 4
2, 12
5, 6
0, 4
2, 4
1, 2
3, 6
4, 1
2, 4
8, 5
4, 7
7, 4
7, 8
16, 15
20, 15
21, 16
25, 12
18, 15
19, 17
17, 16
11, 7
6, 2
5, 3
4, 1
6, 5
4, 4
8, 6
5, 2
11, 9
11, 4
7, 7
11, 2
7, 2
10, 6
14, 7
18, 3
16, 5
8, 4
12, 6
9, 3
8, 7
11, 6
8, 3
0, 2
2, 6
5, 12
8, 14
5, 10
5, 22
7, 28
6, 23
9, 40
11, 34
19, 25
18, 23
13, 18
7, 14
17, 12
9, 11
11, 14
11, 9
6, 7
7, 6
6, 5
4, 4
3, 9
9, 6
10, 6
13, 9
17, 7
23, 10
33, 11
35, 10
26, 9
22, 9
28, 7
20, 5
16, 3
12, 5
9, 7
5, 6
5, 5
6, 10
8, 9
11, 21
11, 17
22, 21
16, 24
20, 29
26, 23
45, 21
58, 23
60, 18
74, 10
71, 7
69, 8
75, 5
73, 9
55, 13
43, 5
47, 12
24, 12
17, 10
16, 21
23, 25
29, 38
41, 57
60, 59
62, 79
55, 79
80, 93
68, 57
59, 70
38, 55
44, 49
30, 32
20, 25
19, 21
13, 25
21, 25
20, 37
37, 54
90, 103
147, 184
307, 307
460, 516
768, 830
1191, 1140
1567, 1521
1877, 1771
2368, 2076
2368, 2073
2363, 1935
2210, 1725
1723, 1307
1345, 964
944, 627
642, 410
379, 236
228, 123
98, 59
66, 36
43, 19
29, 14
26, 17
27, 12
19, 11
15, 10
22, 18
25, 30
34, 33
43, 34
52, 75
99, 92
131, 150
185, 180
265, 264
314, 290
326, 322
361, 318
360, 308
279, 237
260, 205
170, 134
148, 95
98, 56
57, 22
29, 23
19, 12
14, 8
6, 8
9, 13
10, 12
14, 11
13, 13
21, 9
35, 22
19, 10
32, 13
26, 14
15, 5
28, 10
24, 3
10, 8
16, 3
13, 5
12, 9
4, 5
5, 7
5, 4
4, 8
2, 3
4, 5
4, 6
5, 5
5, 6
9, 9
6, 2
6, 4
7, 3
7, 2
2, 2
6, 4
7, 7
5, 10
11, 3
7, 5
8, 5
2, 3
8, 3
7, 5
5, 5
7, 4
6, 7
11, 4
5, 7
8, 7
6, 5
6, 3
4, 4
7, 5
9, 2
9, 1
2, 8
8, 4
1, 3
4, 4
4, 4
8, 4
2, 2
5, 2
2, 4
2, 2
2, 6
1, 4
2, 1
1, 4
2, 5
4, 4
5, 3
2, 2
4, 4
4, 2
4, 2
0, 6
2, 5
7, 2
6, 4
3, 3
3, 3
1, 8
2, 1
2, 4
4, 3
6, 6
5, 2
4, 3
4, 2
4, 2
5, 3
1, 3
3, 5
4, 2
6, 2
5, 4
3, 3
8, 9
5, 3
3, 2
7, 0
6, 3
6, 2
7, 3
2, 3
5, 2
4, 2
1, 2
4, 1
4, 1
4, 1
1, 2
2, 3
3, 2
5, 1
1, 1
5, 3
5, 3
5, 1
3, 2
5, 3
4, 1
3, 3
5, 2
4, 1
2, 1
3, 0
3, 0
3, 2
6, 1
5, 2
2, 3
5, 0
4, 2
0, 5
6, 2
7, 5
4, 3
2, 2
2, 4
1, 5
3, 2
5, 2
2, 3
4, 5
5, 2
3, 3
2, 1
4, 2
0, 4
9, 2
8, 4
1, 2
3, 2
4, 0
4, 2
5, 2
2, 1
3, 6
2, 4
4, 1
6, 2
1, 3
3, 4
2, 2
3, 1
2, 2
3, 1
3, 1
4, 0
1, 2
4, 3
1, 1
2, 2
4, 1
2, 2
2, 3
3, 1
2, 2
6, 2
1, 1
3, 1
1, 0
1, 5
4, 2
2, 4
2, 4
1, 3
3, 4
0, 3
5, 2
4, 7
3, 5
2, 2
5, 1
4, 2
3, 3
3, 2
0, 3
4, 2
5, 5
3, 1
2, 4
3, 1
2, 0
3, 1
5, 1
2, 1
6, 3
2, 2
4, 1
1, 3
0, 1
2, 3
3, 0
4, 1
2, 0
4, 2
4, 2
0, 2
0, 2
5, 4
0, 2
3, 0
0, 1
2, 2
1, 5
1, 1
4, 3
6, 5
4, 5
4, 5
5, 3
4, 4
3, 4
3, 4
1, 1
3, 2
5, 6
1, 3
3, 2
0, 1
2, 2
1, 2
1, 1
2, 0
0, 3
2, 0
2, 0
2, 1
2, 1
3, 0
1, 0
2, 2
0, 1
1, 1
4, 2
1, 1
1, 2
3, 1
2, 3
5, 1
0, 4
1, 2
2, 3
3, 1
1, 0
2, 1
2, 1
3, 1
2, 2
0, 0
1, 0
4, 1
1, 0
0, 1
0, 1
0, 1
1, 1
3, 0
1, 0
1, 3
0, 0
0, 0
0, 1
1, 3
1, 2
1, 1
4, 2
1, 1
1, 0
0, 0
0, 1
3, 1
0, 0
0, 0
2, 1
2, 1
2, 0
3, 2
0, 1
2, 1
0, 0
2, 1
0, 0
0, 1
0, 2
0, 0
2, 0
0, 0
2, 1
0, 0
4, 1
1, 1
1, 1
0, 0
0, 1
1, 0
0, 1
1, 0
0, 2
0, 1
1, 0
0, 0
2, 0
0, 1
0, 0
0, 0
2, 0
0, 0
1, 0
0, 0
0, 0
0, 0
2, 1
0, 0
0, 0
4, 1
1, 2
1, 1
0, 1
0, 0
0, 1
2, 0
1, 0
1, 1
1, 1
0, 0
0, 0
0, 0
0, 0
0, 0
2, 2
2, 0
0, 1
1, 0
1, 0
1, 2
0, 0
0, 1
0, 1
0, 1
0, 1
1, 0
1, 0
1, 1
0, 1
1, 0
0, 0
1, 0
0, 0
1, 0
2, 0
0, 1
1, 0
0, 2
0, 0
1, 0
1, 1
1, 1
0, 0
3, 0
0, 0
0, 1
0, 0
0, 0
0, 0
1, 1
0, 0
1, 0
1, 0
0, 0
0, 0
0, 0
0, 0
1, 2
1, 2
0, 0
1, 1
0, 1
0, 0
1, 1
0, 0
0, 0
0, 2
0, 0
1, 1
1, 0
3, 2
0, 0
0, 0
0, 1
0, 1
1, 1
0, 1
0, 0
0, 0
0, 0
0, 0
0, 0
1, 0
0, 1
0, 0
0, 0
0, 1
0, 0
0, 0
0, 2
1, 0
0, 0
0, 0
1, 0
0, 0
0, 1
0, 1
2, 0
1, 1
1, 0
0, 0
0, 1
0, 0
1, 0
0, 0
1, 1
1, 0
0, 1
1, 0
0, 0
0, 2
1, 1
0, 0
0, 1
0, 0
0, 1
1, 0
2, 0
0, 0
0, 0
0, 0
0, 0
0, 0
0, 0
0, 0
0, 0
2, 1
1, 1
0, 0
0, 0
0, 1
0, 1
0, 0
0, 2
0, 1
0, 1
0, 0
0, 0
1, 0
0, 0
1, 1
0, 1
0, 0
0, 1
0, 0
0, 0
0, 0
0, 0
0, 1
0, 0
0, 0
0, 0
1, 0
0, 1
1, 0
0, 0
0, 2
0, 0
0, 1
2, 0
1, 0
0, 0
0, 0
0, 0
0, 0
0, 0
0, 0
0, 0
0, 0
0, 0
0, 0
1, 0
0, 0
0, 0
0, 0
0, 0
0, 0
0, 0
0, 0
0, 0
0, 0
0, 0
0, 0
0, 0
0, 0
0, 0
0, 1
1, 0
0, 1
0, 1
0, 1
0, 0
0, 0
0, 0
0, 0
0, 0
0, 0
0, 0
0, 0
0, 0
0, 0
0, 0
0, 0
0, 1
1, 0
1, 0
0, 0
0, 1
0, 0
0, 1
0, 0
0, 0
0, 0
0, 0
0, 0
0, 0
0, 0
0, 0
0, 0
0, 0
0, 0
1, 0
0, 0
0, 0
0, 0
0, 0
0, 0
0, 0
0, 0
0, 0
0, 0
0, 0
0, 0
0, 0
0, 0
0, 0
0, 0
0, 0
0, 0
0, 0
1, 0
0, 0
0, 0
0, 0
0, 0
0, 0
0, 1
0, 0
0, 0
0, 0
2, 0
0, 0
0, 0
0, 0
0, 0
0, 0
0, 0
0, 0
0, 0
0, 0
0, 0
0, 0
0, 0
0, 0
0, 0
0, 0
0, 0
0, 0
0, 1
0, 0
0, 0
0, 0
0, 0
0, 0
0, 0
0, 0
0, 0
0, 0
0, 0
0, 0
0, 0
0, 0
0, 0
0, 0
0, 0
0, 0
0, 0
0, 0
0, 0
0, 0
0, 0
0, 0
0, 0
0, 0
0, 1
0, 0
0, 1
0, 0
0, 0
0, 0
0, 0
0, 0
0, 0
0, 0
1, 0
0, 0
0, 0
0, 0
0, 0
0, 0
0, 0
0, 0
0, 0
0, 0
0, 0
0, 0
0, 0
0, 0
0, 0
0, 0
0, 0
0, 1
0, 0
0, 0
0, 0
0, 0
0, 0
0, 0
0, 0
0, 0
0, 0
0, 0
0, 0
0, 0
0, 0
0, 0
0, 0
0, 0
0, 0
0, 0
0, 0
0, 0
0, 0
0, 0
0, 0
0, 0
0, 0
0, 0
0, 0
0, 0
0, 0
0, 0
0, 0
0, 0
0, 0
0, 0
0, 0
0, 0
0, 0
0, 0
0, 0
0, 0
0, 0
0, 0
0, 0
0, 0
0, 0
0, 0
0, 0
0, 0
0, 0
0, 0
0, 0
0, 0
0, 0
0, 0
0, 0
0, 0
0, 0
0, 0
0, 0
0, 1
0, 0
0, 0
0, 0
0, 0
0, 0
0, 0
0, 0
0, 0
0, 0
0, 0
0, 0
0, 0
0, 0
0, 0
0, 0
0, 0
0, 0
0, 0
0, 0
0, 0
0, 0
0, 0
0, 0
0, 0
0, 0
0, 0
0, 0
0, 0
0, 0
0, 0
0, 0
0, 0
0, 0
0, 0
0, 0
0, 0
0, 0
0, 0
0, 0
0, 0
0, 0
0, 0
0, 0
0, 0
0, 0
0, 0
0, 0
0, 0
0, 0
0, 0
0, 0
0, 0
0, 0
0, 0
0, 0
0, 0
0, 0
0, 0
0, 0
0, 0
0, 0
0, 0
0, 0
0, 0
0, 0
0, 0
0, 0
0, 0
0, 0
0, 0
0, 0
0, 0
0, 0
0, 0
0, 0
0, 0
0, 0
0, 0
0, 0
0, 0
0, 0
0, 0
0, 0
0, 0
0, 0
0, 0
0, 0
0, 0
0, 0
0, 0
0, 0
0, 0
0, 0
0, 0
0, 0
0, 0
0, 0
0, 0
0, 0
0, 0
0, 0
0, 0
0, 0
0, 0
0, 0
0, 0
0, 0
0, 0
0, 0
0, 0
0, 0
0, 0
0, 0
0, 0
0, 0
0, 0
0, 0
0, 0
0, 0
0, 0
0, 0
0, 0
0, 0
0, 0
0, 0
0, 0
0, 0
0, 0
0, 0
0, 0
0, 0
0, 0
0, 0
0, 0
0, 0
0, 0
0, 0
0, 0
0, 0
0, 0
0, 0
0, 0
0, 0
0, 0
0, 0
0, 0
0, 0
0, 0
0, 0
0, 0
0, 0
0, 0
0, 0
0, 0
0, 0
0, 0
0, 0
0, 0
0, 0
0, 0
0, 0
0, 0
0, 0
0, 0
0, 0
0, 0
0, 0
0, 0
0, 0
0, 0
0, 0
0, 0
0, 0
0, 0
0, 0
0, 0
0, 0
0, 0
0, 0
0, 0
0, 0
0, 0
0, 0
0, 0
0, 0
0, 0
0, 0
0, 0
0, 0
0, 0
0, 0
0, 0
0, 0
0, 0
0, 0
0, 0
0, 0
0, 0
0, 0
0, 0
0, 0
0, 0
0, 0
0, 0
0, 0
0, 0
0, 0
0, 0
0, 0
0, 0
0, 0
0, 0
0, 0
0, 0
0, 0
0, 0
0, 0
0, 0
0, 0
0, 0
0, 0
0, 0
0, 0
0, 0
0, 0
0, 0
0, 0
0, 0
0, 0
0, 0
0, 0
0, 0
0, 0
0, 0
0, 0
0, 0
0, 0
0, 0
0, 0
0, 0
0, 0
0, 0
0, 0
0, 0
0, 0
0, 0
0, 0
0, 0
0, 0
0, 0
0, 0
0, 0
0, 0
0, 0
0, 0
0, 0
0, 0
0, 0
0, 0
0, 0
0, 0
0, 0
0, 0
0, 0
0, 0
0, 0
0, 0
0, 0
0, 0
0, 0
0, 0
0, 0
0, 0
0, 0
0, 0
0, 0
0, 0
0, 0
0, 0
0, 0
0, 0
0, 0
0, 0
0, 0
0, 0
0, 0
0, 0
0, 0
0, 0
0, 0
0, 0
0, 0
0, 0
0, 0
0, 0
0, 0
0, 0
0, 0
0, 0
0, 0
0, 0
0, 0
0, 0
0, 0
0, 0
0, 0
0, 0
0, 0
0, 0
0, 0
0, 0
0, 0
0, 0
0, 0
0, 0
0, 0
0, 0
0, 0
0, 0
0, 0
0, 0
0, 0
0, 0
0, 0
0, 0
0, 0
0, 0
0, 0
0, 0
0, 0
0, 0
0, 0
0, 0
0, 0
0, 0
0, 0
#ENDOFDATA     end of spectrum data