File: host_upload/06-09-2024/ps_0852/dump3/ps__0852shot_2519.msa
#FORMAT      : EMSA/MAS spectral data file
#VERSION     : TC202v2.0 PIXL
#TITLE       : N/A
#DATE        :       Date in the format DD-MMM-YYYY, for example 07-JUL-2010
#TIME        :             The time of day at which the spectrum was recorded, in 24-hour format
#OWNER       : PIXL Flight Model       (PIXL will use this to indicate which instrument took the data.)
#NPOINTS     : 4096     Number of data points in the spectrum (This can be zero for configuration only files)
#NCOLUMNS    : 2     Number of data columns in the spectrum (This can be zero for configuration only files)
#XUNITS      : eV
#YUNITS      : COUNTS
#DATATYPE    : YY
#XPERCHAN    : 7.862, 7.881   eV per channel (separate by commas if more than one detector)
#OFFSET      : 18.5, -22.4         eV of first channel  (separate by commas if more than one detector
#SIGNALTYPE  : XRF
#YP_TEMP     : 2.364
#LIVETIME    : 8.57166, 8.5598   seconds (separate by commas if more than one detector)
#REALTIME    : 10, 10.0   seconds (separate by commas if more than one detector)
#SPECTRUM    : start of spectrum data
0, 0
0, 0
0, 0
0, 0
0, 0
0, 0
0, 0
0, 0
0, 0
0, 0
0, 0
0, 0
0, 0
0, 0
0, 0
0, 0
0, 0
0, 0
0, 0
0, 0
0, 0
0, 0
0, 0
0, 0
0, 0
0, 0
0, 0
0, 0
0, 0
0, 0
0, 0
0, 1
0, 0
1, 0
0, 0
0, 0
0, 0
1, 1
0, 2
2, 2
2, 3
2, 0
0, 0
4, 1
1, 3
3, 3
2, 3
1, 3
4, 10
12, 13
18, 20
44, 40
62, 61
72, 89
88, 76
63, 72
55, 55
41, 40
35, 22
16, 9
8, 7
4, 3
5, 3
3, 2
6, 4
7, 1
4, 4
6, 8
15, 23
42, 41
71, 76
146, 157
238, 250
322, 355
388, 374
347, 347
318, 349
244, 242
158, 168
100, 97
63, 56
22, 27
12, 15
9, 7
5, 8
2, 5
3, 2
3, 2
3, 6
5, 2
6, 5
7, 5
17, 18
31, 43
63, 69
104, 126
139, 198
209, 219
205, 267
184, 246
187, 240
144, 194
92, 127
57, 85
58, 63
45, 33
33, 30
20, 23
16, 23
38, 25
43, 32
91, 37
95, 44
102, 50
149, 52
141, 53
136, 62
85, 44
85, 31
52, 28
39, 21
35, 24
18, 33
20, 20
17, 15
9, 22
15, 11
15, 12
7, 9
5, 9
4, 12
5, 3
4, 2
2, 3
6, 2
4, 3
3, 0
1, 2
2, 2
3, 5
5, 1
4, 3
8, 3
2, 1
5, 6
3, 3
1, 2
1, 2
2, 2
2, 7
2, 8
8, 4
7, 9
10, 14
14, 33
19, 29
13, 41
36, 40
24, 31
27, 31
21, 29
12, 19
13, 10
4, 9
5, 6
4, 3
2, 2
4, 8
8, 4
12, 12
12, 6
11, 8
13, 8
13, 10
22, 3
29, 8
43, 6
42, 4
45, 9
49, 3
47, 2
31, 5
36, 4
24, 2
16, 6
9, 3
14, 3
4, 5
8, 7
3, 11
8, 5
13, 12
8, 11
11, 14
9, 17
10, 16
11, 15
15, 23
14, 20
11, 13
7, 16
8, 12
9, 16
7, 16
0, 9
8, 9
6, 6
3, 7
3, 16
8, 8
9, 6
7, 11
8, 9
11, 7
3, 9
7, 5
7, 6
2, 7
6, 7
2, 10
4, 11
6, 8
6, 8
10, 10
6, 13
12, 16
13, 16
15, 17
11, 19
18, 31
16, 26
15, 25
28, 25
26, 24
28, 13
11, 24
18, 25
9, 21
7, 30
11, 37
12, 33
13, 31
5, 27
12, 44
19, 39
25, 39
33, 49
42, 50
59, 71
68, 63
61, 79
50, 70
74, 58
54, 45
47, 40
32, 30
28, 25
20, 25
18, 20
19, 16
20, 21
29, 34
34, 62
87, 105
146, 165
282, 316
485, 556
712, 928
1006, 1341
1498, 1757
1837, 2198
2023, 2415
2218, 2362
2131, 2371
1898, 1941
1572, 1523
1227, 1092
783, 704
547, 464
301, 257
161, 141
90, 67
36, 34
25, 31
26, 15
16, 19
12, 15
14, 16
13, 13
9, 12
20, 23
27, 46
46, 61
48, 88
99, 138
120, 164
182, 249
237, 305
303, 323
267, 353
330, 399
298, 335
297, 314
230, 211
175, 152
117, 97
79, 62
42, 35
34, 23
13, 16
14, 10
7, 8
4, 6
8, 11
11, 5
11, 13
13, 14
15, 13
17, 13
19, 11
15, 13
16, 6
17, 10
6, 4
11, 2
8, 6
10, 7
4, 4
3, 4
3, 2
4, 1
4, 3
4, 5
10, 1
5, 4
2, 5
3, 3
4, 2
5, 5
6, 4
2, 2
6, 8
7, 8
5, 8
3, 9
3, 5
7, 11
5, 14
5, 9
8, 9
6, 10
7, 11
10, 4
6, 7
10, 4
12, 3
6, 2
9, 5
10, 6
5, 5
9, 7
5, 5
7, 9
2, 5
3, 11
8, 8
4, 5
5, 4
5, 5
5, 4
5, 6
5, 3
1, 2
4, 5
5, 7
2, 1
1, 4
5, 2
2, 4
4, 4
3, 6
3, 7
2, 5
3, 12
7, 7
1, 12
6, 5
2, 15
6, 12
3, 8
2, 8
2, 11
5, 11
2, 7
1, 5
4, 8
5, 4
5, 2
11, 4
10, 5
7, 2
10, 2
7, 6
7, 2
5, 7
2, 4
9, 6
5, 8
7, 5
4, 3
2, 2
1, 2
4, 3
3, 6
4, 2
3, 6
3, 3
3, 6
4, 5
2, 5
5, 8
4, 10
4, 14
6, 14
6, 7
10, 9
5, 13
10, 8
7, 8
4, 8
4, 8
3, 6
5, 9
4, 9
6, 4
3, 9
4, 5
1, 5
4, 5
3, 5
4, 4
2, 4
6, 6
3, 3
2, 4
5, 3
4, 7
7, 4
4, 0
5, 3
3, 1
7, 6
2, 2
2, 3
2, 3
2, 3
2, 4
2, 2
4, 1
3, 1
3, 2
3, 4
1, 2
3, 2
1, 1
4, 0
2, 7
3, 4
3, 4
2, 3
7, 4
2, 2
2, 1
3, 2
2, 4
2, 1
2, 4
7, 4
2, 3
2, 5
1, 6
1, 0
3, 1
1, 2
1, 0
2, 3
1, 3
4, 5
3, 4
1, 1
3, 3
1, 5
3, 7
3, 1
2, 1
1, 2
1, 3
0, 1
0, 6
0, 3
1, 1
1, 0
1, 3
3, 1
3, 3
0, 1
1, 4
3, 1
2, 4
4, 2
1, 1
3, 1
1, 5
0, 2
1, 4
2, 1
2, 3
1, 5
1, 4
3, 1
0, 1
3, 1
2, 0
2, 0
3, 2
3, 1
1, 2
1, 0
4, 2
0, 1
0, 2
3, 0
0, 0
5, 1
5, 4
2, 3
4, 6
3, 2
0, 4
2, 2
6, 6
6, 9
6, 2
5, 1
2, 6
3, 3
5, 3
4, 4
2, 1
2, 1
4, 1
0, 0
0, 1
0, 2
2, 3
2, 2
0, 0
1, 1
1, 1
1, 0
2, 3
0, 1
2, 1
1, 4
2, 1
4, 0
2, 2
3, 0
3, 1
0, 1
2, 1
1, 1
0, 3
2, 3
1, 0
4, 0
3, 3
3, 4
0, 2
0, 1
4, 1
1, 1
0, 2
0, 1
1, 2
2, 0
4, 2
1, 2
1, 4
1, 1
0, 0
1, 5
1, 2
1, 1
0, 1
0, 1
1, 1
1, 1
3, 3
2, 2
0, 1
1, 2
1, 1
1, 0
1, 0
1, 0
0, 1
0, 0
0, 0
3, 0
0, 0
0, 1
0, 0
1, 1
0, 1
1, 0
1, 2
0, 2
0, 0
0, 3
1, 0
2, 0
2, 1
1, 0
2, 2
1, 0
0, 0
1, 2
0, 0
3, 1
0, 0
1, 1
1, 1
1, 0
2, 1
1, 0
1, 0
0, 0
1, 0
2, 0
0, 0
0, 1
0, 2
0, 0
2, 1
0, 1
0, 2
0, 1
1, 1
1, 0
1, 1
0, 1
2, 0
0, 1
0, 1
0, 0
0, 1
1, 3
0, 1
0, 0
0, 0
0, 0
0, 0
2, 3
0, 1
0, 0
0, 0
0, 0
1, 0
0, 2
0, 0
0, 2
0, 0
1, 0
2, 1
0, 0
0, 0
1, 1
0, 1
0, 1
0, 2
0, 1
0, 1
0, 0
1, 1
0, 1
0, 1
1, 0
1, 1
1, 0
0, 1
0, 2
1, 0
0, 1
1, 0
0, 1
1, 0
0, 1
0, 1
1, 0
0, 0
0, 0
0, 1
0, 0
0, 0
0, 0
0, 0
0, 0
0, 1
0, 0
0, 0
3, 1
2, 1
0, 0
0, 1
0, 0
0, 1
2, 0
0, 0
0, 1
2, 0
0, 0
0, 0
1, 1
0, 0
0, 0
1, 1
0, 0
0, 0
0, 0
0, 0
0, 0
1, 0
0, 0
1, 0
0, 0
1, 0
0, 1
2, 0
0, 0
0, 0
0, 0
1, 0
0, 0
1, 0
0, 1
0, 1
1, 1
0, 0
1, 1
1, 0
0, 0
0, 0
0, 0
0, 0
0, 0
0, 0
1, 0
0, 0
0, 0
2, 0
0, 0
0, 0
0, 0
0, 0
0, 0
0, 1
1, 2
1, 0
0, 1
0, 0
0, 0
0, 0
0, 1
1, 1
0, 0
0, 1
1, 2
0, 0
0, 0
1, 0
0, 1
0, 0
1, 1
1, 0
0, 0
0, 0
1, 2
0, 1
0, 0
0, 0
0, 0
0, 0
0, 0
0, 2
0, 0
0, 0
0, 2
0, 0
1, 0
0, 2
0, 0
1, 0
0, 1
1, 0
2, 0
0, 0
0, 1
0, 0
0, 0
0, 1
0, 0
0, 0
0, 0
0, 2
0, 0
0, 0
0, 0
0, 0
0, 0
0, 0
2, 0
1, 0
0, 0
0, 0
0, 0
0, 2
0, 1
0, 1
0, 0
0, 0
0, 0
0, 0
0, 0
0, 0
0, 0
0, 1
0, 0
0, 0
0, 0
0, 0
0, 0
0, 1
1, 0
0, 0
0, 0
0, 0
0, 0
0, 0
0, 0
1, 0
0, 0
0, 0
0, 0
0, 0
0, 0
0, 1
0, 0
0, 0
0, 0
0, 1
0, 0
0, 0
0, 0
0, 0
0, 0
0, 0
0, 0
0, 0
0, 0
0, 0
0, 0
1, 0
0, 0
0, 0
0, 0
0, 0
0, 0
0, 0
0, 0
0, 0
0, 0
0, 0
0, 0
0, 0
0, 0
0, 0
0, 0
0, 0
0, 0
0, 0
0, 0
0, 0
0, 0
0, 0
0, 0
1, 0
0, 0
0, 0
0, 0
0, 0
0, 0
0, 0
0, 0
0, 0
0, 0
0, 0
0, 0
0, 0
0, 0
0, 0
0, 1
0, 0
0, 0
0, 0
0, 0
0, 0
0, 0
0, 0
0, 0
0, 0
0, 0
0, 0
0, 0
0, 0
0, 0
0, 0
0, 0
0, 0
0, 0
0, 0
0, 0
0, 0
0, 0
0, 0
0, 0
0, 1
0, 0
0, 0
0, 0
0, 0
0, 0
0, 0
0, 0
0, 0
0, 0
0, 0
0, 0
0, 0
0, 0
0, 0
0, 0
1, 1
0, 0
0, 1
0, 0
0, 0
0, 0
0, 0
0, 0
0, 0
0, 0
0, 0
0, 0
0, 0
0, 0
0, 0
0, 0
0, 0
0, 0
0, 0
0, 0
0, 0
0, 0
0, 0
0, 0
0, 0
0, 0
0, 0
0, 0
0, 0
0, 0
0, 0
0, 0
0, 0
0, 0
0, 0
0, 0
0, 0
0, 0
0, 0
0, 0
0, 0
0, 0
0, 0
0, 0
0, 0
0, 0
0, 0
0, 0
0, 0
0, 0
0, 0
0, 0
0, 0
0, 0
0, 0
0, 0
0, 0
1, 0
0, 0
0, 0
0, 0
0, 0
0, 0
0, 0
0, 0
0, 0
0, 0
0, 0
0, 0
0, 0
0, 0
1, 0
0, 0
0, 0
0, 0
0, 0
0, 0
0, 0
0, 0
0, 0
0, 0
0, 0
0, 0
0, 0
0, 0
0, 0
0, 0
0, 0
0, 0
0, 0
0, 0
0, 0
0, 0
0, 1
0, 0
0, 0
0, 0
0, 0
0, 0
0, 0
0, 0
0, 0
0, 0
0, 0
0, 0
0, 0
0, 0
0, 0
0, 0
0, 0
0, 0
0, 0
0, 0
0, 0
0, 0
0, 0
0, 0
0, 0
0, 0
0, 0
0, 0
0, 0
0, 0
0, 0
0, 0
0, 0
0, 0
0, 0
0, 0
0, 0
0, 0
0, 0
0, 0
1, 0
0, 0
0, 0
0, 0
0, 0
0, 0
0, 0
0, 0
0, 0
0, 0
0, 0
0, 0
0, 0
0, 0
0, 0
0, 0
0, 0
0, 0
0, 0
0, 0
0, 0
0, 0
0, 0
0, 0
0, 0
0, 0
0, 0
0, 0
0, 0
0, 0
0, 0
0, 0
0, 0
0, 0
0, 0
0, 0
0, 0
0, 0
0, 0
0, 0
0, 0
0, 0
0, 0
0, 0
0, 0
0, 0
0, 0
0, 0
0, 0
0, 0
0, 0
0, 0
0, 0
0, 0
0, 0
0, 0
0, 0
0, 0
0, 0
0, 0
0, 0
0, 0
0, 0
0, 0
0, 0
0, 0
0, 0
0, 0
0, 0
0, 0
0, 0
0, 0
0, 0
0, 0
0, 0
0, 0
0, 0
0, 0
0, 0
0, 0
0, 0
0, 0
0, 0
0, 0
0, 0
0, 0
0, 0
0, 0
0, 0
0, 0
0, 0
0, 0
0, 0
0, 0
0, 0
0, 0
0, 0
0, 0
0, 0
0, 0
0, 0
0, 0
0, 0
0, 0
0, 0
0, 0
0, 0
0, 0
0, 0
0, 0
0, 0
0, 0
0, 0
0, 0
0, 0
0, 0
0, 0
0, 0
0, 0
0, 0
0, 0
0, 0
0, 0
0, 0
0, 0
0, 0
0, 0
0, 0
0, 0
0, 0
0, 0
0, 0
0, 0
0, 0
0, 0
0, 0
0, 0
0, 0
0, 0
0, 0
0, 0
0, 0
0, 0
0, 0
0, 0
0, 0
0, 0
0, 0
0, 0
0, 0
0, 0
0, 0
0, 0
0, 0
0, 0
0, 0
0, 0
0, 0
0, 0
0, 0
0, 0
0, 0
0, 0
0, 0
0, 0
0, 0
0, 0
0, 0
0, 0
0, 0
0, 0
0, 0
0, 0
0, 0
0, 0
0, 0
0, 0
0, 0
0, 0
0, 0
0, 0
0, 0
0, 0
0, 0
0, 0
0, 0
0, 0
0, 0
0, 0
0, 0
0, 0
0, 0
0, 0
0, 0
0, 0
0, 0
0, 0
0, 0
0, 0
0, 0
0, 0
0, 0
0, 0
0, 0
0, 0
0, 0
0, 0
0, 0
0, 0
0, 0
0, 0
0, 0
0, 0
0, 0
0, 0
0, 0
0, 0
0, 0
0, 0
0, 0
0, 0
0, 0
0, 0
0, 0
0, 0
0, 0
0, 0
0, 0
0, 0
0, 0
0, 0
0, 0
0, 0
0, 0
0, 0
0, 0
0, 0
0, 0
0, 0
0, 0
0, 0
0, 0
0, 0
0, 0
0, 0
0, 0
0, 0
0, 0
0, 0
0, 0
0, 0
0, 0
0, 0
0, 0
0, 0
0, 0
0, 0
0, 0
0, 0
0, 0
0, 0
0, 0
0, 0
0, 0
0, 0
0, 0
0, 0
0, 0
0, 0
0, 0
0, 0
0, 0
0, 0
0, 0
0, 0
0, 0
0, 0
0, 0
0, 0
0, 0
0, 0
#ENDOFDATA     end of spectrum data