File: host_upload/06-09-2024/ps_0852/dump3/ps__0852shot_2378.msa
#FORMAT      : EMSA/MAS spectral data file
#VERSION     : TC202v2.0 PIXL
#TITLE       : N/A
#DATE        :       Date in the format DD-MMM-YYYY, for example 07-JUL-2010
#TIME        :             The time of day at which the spectrum was recorded, in 24-hour format
#OWNER       : PIXL Flight Model       (PIXL will use this to indicate which instrument took the data.)
#NPOINTS     : 4096     Number of data points in the spectrum (This can be zero for configuration only files)
#NCOLUMNS    : 2     Number of data columns in the spectrum (This can be zero for configuration only files)
#XUNITS      : eV
#YUNITS      : COUNTS
#DATATYPE    : YY
#XPERCHAN    : 7.862, 7.881   eV per channel (separate by commas if more than one detector)
#OFFSET      : 18.5, -22.4         eV of first channel  (separate by commas if more than one detector
#SIGNALTYPE  : XRF
#YP_TEMP     : 2.235
#LIVETIME    : 8.55919, 8.55788   seconds (separate by commas if more than one detector)
#REALTIME    : 10, 10.0   seconds (separate by commas if more than one detector)
#SPECTRUM    : start of spectrum data
0, 0
0, 0
0, 0
0, 0
0, 0
0, 0
0, 0
0, 0
0, 0
0, 0
0, 0
0, 0
0, 0
0, 0
0, 0
0, 0
0, 0
0, 0
0, 0
0, 0
0, 0
0, 0
0, 0
0, 0
0, 0
0, 0
0, 0
0, 0
0, 0
0, 0
0, 0
0, 0
0, 0
0, 0
0, 0
0, 0
0, 0
1, 1
0, 0
0, 1
0, 1
1, 1
0, 0
2, 1
2, 2
3, 4
3, 0
4, 2
5, 5
9, 7
23, 20
57, 37
72, 67
90, 81
92, 79
103, 64
54, 57
47, 48
47, 27
19, 10
3, 9
6, 6
1, 1
6, 6
4, 7
4, 3
3, 4
14, 16
24, 23
51, 58
87, 97
182, 199
275, 273
372, 302
417, 435
451, 420
431, 352
288, 259
206, 171
130, 120
72, 72
45, 41
15, 21
10, 14
9, 6
8, 2
1, 1
2, 2
3, 2
2, 0
0, 2
0, 2
4, 1
1, 2
1, 1
1, 0
2, 4
3, 0
1, 0
2, 3
7, 2
2, 2
2, 4
2, 1
2, 1
2, 3
5, 2
3, 3
3, 5
7, 14
13, 15
20, 19
21, 24
30, 33
31, 31
28, 31
17, 33
33, 21
24, 16
21, 23
14, 9
17, 15
10, 9
17, 6
16, 14
8, 9
12, 5
17, 7
7, 10
8, 4
6, 7
3, 2
10, 1
4, 0
1, 1
3, 2
4, 0
0, 2
2, 0
2, 3
2, 1
1, 2
0, 1
1, 0
4, 2
2, 3
1, 3
2, 2
10, 1
6, 1
9, 0
8, 1
7, 2
9, 8
12, 14
15, 10
16, 10
21, 17
14, 20
14, 12
15, 16
8, 10
7, 5
2, 4
3, 1
7, 1
3, 5
6, 3
2, 2
5, 6
5, 8
7, 6
3, 4
7, 4
3, 2
2, 4
4, 7
6, 4
7, 1
3, 4
4, 4
3, 3
5, 3
4, 5
2, 4
4, 2
1, 2
3, 6
6, 7
5, 8
10, 11
13, 13
15, 8
16, 11
12, 10
13, 11
6, 8
20, 15
16, 12
10, 8
14, 7
16, 8
10, 10
5, 5
12, 6
8, 1
4, 6
4, 3
3, 9
7, 4
3, 1
9, 3
4, 5
3, 4
4, 6
11, 5
3, 11
1, 5
5, 5
10, 8
1, 21
3, 27
5, 37
1, 29
9, 59
10, 53
11, 56
14, 39
18, 32
11, 38
21, 24
18, 25
20, 13
15, 15
10, 13
10, 5
11, 8
6, 10
20, 10
13, 15
26, 9
31, 13
22, 13
32, 15
33, 18
37, 25
51, 36
43, 45
50, 38
67, 62
81, 57
80, 56
92, 49
71, 39
74, 45
67, 25
48, 21
38, 18
27, 18
29, 21
29, 21
34, 26
45, 54
108, 88
168, 195
292, 353
490, 559
814, 958
1232, 1289
1755, 1708
2041, 2183
2417, 2377
2441, 2339
2518, 2266
2268, 1887
1849, 1483
1468, 1090
945, 721
634, 439
393, 241
194, 119
92, 77
71, 27
35, 17
24, 16
14, 12
12, 11
11, 13
12, 9
14, 16
18, 22
36, 42
50, 45
69, 94
115, 130
155, 166
224, 233
270, 272
302, 339
342, 379
351, 359
388, 332
322, 277
287, 207
227, 160
118, 101
96, 59
61, 36
23, 13
22, 17
13, 7
12, 8
20, 7
18, 12
15, 5
19, 14
20, 8
18, 18
27, 17
17, 4
16, 7
13, 9
9, 3
6, 7
6, 4
6, 3
6, 3
3, 5
3, 2
3, 1
5, 4
4, 2
5, 2
2, 2
3, 0
3, 2
6, 4
5, 4
5, 2
3, 6
4, 10
3, 10
2, 7
3, 9
7, 15
6, 14
11, 17
9, 22
4, 20
6, 26
5, 16
3, 14
5, 9
6, 7
3, 7
5, 5
7, 7
5, 6
3, 3
1, 1
6, 2
5, 1
1, 2
6, 4
5, 1
5, 1
4, 6
3, 2
5, 6
3, 6
5, 2
6, 6
9, 4
11, 1
12, 2
17, 3
9, 3
19, 2
23, 0
25, 1
27, 1
14, 4
21, 4
22, 6
21, 2
10, 1
12, 5
12, 1
11, 2
12, 2
4, 2
4, 6
0, 3
6, 1
2, 2
4, 2
6, 5
5, 2
7, 1
9, 4
11, 3
7, 1
6, 6
11, 1
4, 5
4, 4
4, 2
4, 3
4, 2
3, 5
4, 4
5, 6
2, 1
4, 2
3, 1
3, 2
1, 3
3, 1
2, 1
4, 3
4, 3
4, 1
4, 3
5, 3
2, 1
3, 3
3, 5
5, 8
2, 2
9, 4
4, 2
7, 2
2, 3
7, 1
7, 5
2, 0
7, 0
3, 4
7, 6
3, 2
2, 3
2, 0
4, 2
4, 1
5, 4
5, 2
4, 2
2, 2
8, 4
2, 6
3, 2
4, 4
3, 3
3, 2
0, 4
2, 3
8, 2
7, 1
7, 1
7, 1
3, 1
3, 1
7, 4
2, 1
2, 3
4, 1
3, 0
1, 0
0, 4
1, 4
1, 1
3, 3
0, 1
0, 1
1, 1
0, 1
0, 1
0, 3
5, 4
5, 2
0, 0
2, 0
2, 2
1, 1
1, 0
0, 5
3, 0
1, 2
0, 3
4, 1
3, 1
2, 2
3, 0
3, 1
1, 3
3, 2
6, 1
1, 0
3, 2
1, 4
4, 5
4, 3
3, 3
1, 4
3, 3
1, 1
1, 1
3, 5
2, 3
1, 1
0, 5
5, 4
2, 1
2, 4
5, 3
3, 1
1, 2
4, 1
0, 2
2, 0
2, 0
2, 2
5, 2
3, 0
4, 0
1, 2
1, 1
2, 3
6, 1
2, 0
0, 2
1, 1
1, 8
3, 1
1, 1
3, 6
6, 6
5, 4
2, 2
3, 3
6, 1
3, 0
3, 6
10, 7
11, 5
5, 2
7, 4
2, 1
3, 1
4, 2
6, 3
1, 3
3, 1
4, 1
3, 0
1, 0
2, 0
3, 1
1, 3
2, 0
2, 4
2, 1
2, 0
2, 3
2, 4
2, 3
2, 0
3, 3
3, 0
2, 6
3, 5
2, 1
0, 2
1, 2
1, 1
0, 0
2, 1
4, 0
3, 1
3, 0
0, 2
2, 0
1, 1
2, 1
1, 3
2, 1
3, 0
1, 4
2, 4
2, 0
0, 2
0, 2
2, 1
0, 0
0, 1
0, 1
0, 4
1, 1
0, 0
1, 1
1, 0
2, 0
1, 2
1, 0
2, 0
0, 1
2, 1
0, 0
1, 0
2, 0
0, 0
0, 1
2, 1
1, 2
0, 3
0, 1
1, 1
0, 1
1, 2
1, 0
1, 1
1, 1
0, 1
0, 1
1, 1
2, 0
1, 1
1, 0
0, 0
1, 0
0, 1
0, 0
1, 0
1, 0
2, 1
0, 0
0, 1
0, 1
0, 2
0, 0
1, 1
0, 1
1, 0
1, 1
0, 0
2, 1
1, 0
1, 1
0, 0
0, 0
0, 1
0, 1
0, 2
0, 1
0, 0
2, 0
0, 1
2, 0
2, 0
1, 0
0, 0
1, 1
1, 0
2, 0
0, 1
0, 3
1, 2
1, 0
0, 0
2, 0
0, 1
2, 2
1, 1
0, 0
0, 0
1, 0
2, 0
1, 2
1, 0
0, 1
0, 1
0, 0
0, 1
1, 0
0, 1
1, 0
1, 0
0, 0
0, 1
0, 0
1, 1
0, 0
2, 0
0, 0
0, 0
0, 0
0, 1
0, 1
1, 1
1, 1
0, 0
0, 0
1, 0
2, 2
1, 0
0, 0
0, 0
2, 0
0, 1
1, 0
0, 0
0, 0
1, 1
0, 0
1, 1
1, 0
0, 0
0, 0
0, 0
0, 0
0, 0
0, 0
1, 0
0, 0
0, 0
0, 0
0, 0
0, 1
1, 1
1, 0
0, 1
1, 1
1, 0
1, 1
1, 0
0, 0
0, 0
0, 0
1, 0
0, 1
0, 0
0, 0
0, 0
0, 1
0, 0
0, 0
1, 0
0, 0
0, 0
1, 0
0, 0
1, 0
0, 0
0, 0
0, 2
0, 1
0, 0
0, 1
0, 1
3, 0
0, 0
0, 0
1, 0
0, 0
2, 0
0, 0
0, 1
0, 1
1, 0
1, 0
0, 0
0, 0
1, 0
1, 0
0, 1
0, 1
1, 0
0, 1
0, 1
0, 0
0, 0
1, 1
0, 0
0, 0
0, 0
1, 0
0, 0
2, 0
0, 0
1, 0
0, 0
0, 0
1, 0
0, 0
1, 1
0, 0
0, 2
0, 0
0, 0
0, 0
0, 0
0, 0
0, 0
0, 1
0, 0
0, 0
0, 0
0, 0
0, 0
0, 0
0, 1
0, 0
0, 0
0, 0
1, 0
0, 0
0, 0
0, 0
1, 0
0, 1
1, 0
1, 0
0, 0
0, 0
0, 1
0, 0
1, 0
0, 0
0, 0
0, 0
1, 0
0, 1
0, 0
0, 0
1, 0
1, 0
0, 0
0, 0
0, 0
0, 0
0, 0
0, 1
1, 0
0, 0
0, 0
0, 0
0, 0
0, 0
0, 0
0, 0
0, 1
0, 0
0, 0
0, 1
0, 0
0, 0
0, 0
0, 0
0, 0
0, 0
1, 0
1, 0
0, 0
0, 0
0, 0
0, 0
0, 0
0, 0
0, 0
0, 1
0, 0
0, 0
0, 0
0, 0
0, 0
0, 0
0, 0
0, 0
0, 1
0, 0
0, 0
1, 0
0, 0
0, 0
0, 0
0, 0
0, 0
0, 0
0, 0
0, 1
0, 0
0, 0
0, 1
0, 0
0, 0
0, 0
0, 0
0, 1
0, 0
0, 0
0, 0
0, 0
0, 0
0, 0
1, 0
0, 0
0, 0
0, 0
0, 0
0, 1
0, 0
0, 0
0, 0
0, 0
0, 0
0, 0
0, 0
1, 0
0, 0
0, 0
0, 0
0, 0
0, 0
0, 0
0, 0
0, 0
0, 0
0, 0
0, 0
0, 0
0, 0
0, 0
0, 0
0, 0
0, 0
0, 0
0, 0
0, 0
0, 0
0, 0
0, 0
0, 0
0, 0
0, 0
0, 0
0, 0
0, 0
0, 0
0, 0
0, 0
0, 0
0, 0
0, 0
0, 0
0, 0
0, 0
0, 0
0, 0
0, 0
0, 0
0, 0
0, 0
0, 0
0, 0
0, 0
0, 0
0, 0
0, 0
0, 0
0, 0
0, 0
0, 0
0, 0
0, 0
0, 0
0, 0
0, 0
0, 0
0, 0
0, 0
0, 0
0, 0
0, 0
0, 0
0, 0
0, 0
0, 0
0, 0
0, 0
0, 0
0, 0
0, 0
0, 0
0, 0
0, 0
0, 0
0, 0
0, 0
0, 0
0, 0
0, 0
0, 0
0, 0
0, 0
0, 0
0, 0
0, 0
0, 0
0, 0
0, 0
1, 0
0, 0
0, 0
0, 0
0, 0
0, 0
0, 0
0, 0
0, 0
0, 0
0, 0
0, 0
0, 0
0, 0
0, 0
0, 0
0, 0
0, 0
0, 0
0, 0
0, 0
1, 0
0, 0
0, 0
0, 0
0, 0
0, 0
0, 0
0, 0
0, 0
0, 0
0, 0
0, 0
0, 0
0, 0
0, 0
0, 0
0, 0
0, 0
0, 0
0, 0
0, 0
0, 0
0, 0
0, 0
0, 0
0, 0
0, 0
0, 0
0, 0
0, 0
0, 0
0, 0
0, 0
0, 0
0, 0
0, 0
0, 0
0, 0
0, 0
0, 0
0, 0
0, 0
0, 0
0, 0
0, 0
0, 0
0, 0
0, 0
0, 0
0, 0
0, 0
0, 0
0, 0
0, 0
0, 0
0, 0
0, 0
0, 0
0, 0
0, 0
0, 0
0, 0
0, 0
0, 0
0, 0
0, 0
0, 0
0, 0
0, 0
0, 0
0, 0
0, 0
0, 0
0, 0
0, 0
0, 0
0, 0
0, 0
0, 0
0, 0
0, 0
0, 0
0, 0
0, 0
0, 0
0, 0
0, 0
0, 0
0, 0
0, 0
0, 0
0, 0
0, 0
0, 0
0, 0
0, 0
0, 0
0, 0
0, 0
0, 0
0, 0
0, 0
0, 0
0, 0
0, 0
0, 0
0, 0
0, 0
0, 0
0, 0
0, 0
0, 0
0, 0
0, 0
0, 0
0, 0
0, 0
0, 0
0, 0
0, 0
0, 0
0, 0
0, 0
0, 0
0, 0
0, 0
0, 0
0, 0
0, 0
0, 0
0, 0
0, 0
0, 0
0, 0
0, 0
0, 0
0, 0
0, 0
0, 0
0, 0
0, 0
0, 0
0, 0
0, 0
0, 0
0, 0
0, 0
0, 0
0, 0
0, 0
0, 0
0, 0
0, 0
0, 0
0, 0
0, 0
0, 0
0, 0
0, 0
0, 0
0, 0
0, 0
0, 0
0, 0
0, 0
0, 0
0, 0
0, 0
0, 0
0, 0
0, 0
0, 0
0, 0
0, 0
0, 0
0, 0
0, 0
0, 0
0, 0
0, 0
0, 0
0, 0
0, 0
0, 0
0, 0
0, 0
0, 0
0, 0
0, 0
0, 0
0, 0
0, 0
0, 0
0, 0
0, 0
0, 0
0, 0
0, 0
0, 0
0, 0
0, 0
0, 0
0, 0
0, 0
0, 0
0, 0
0, 0
0, 0
0, 0
0, 0
0, 0
0, 0
0, 0
0, 0
0, 0
0, 0
0, 0
0, 0
0, 0
0, 0
0, 0
0, 0
0, 0
0, 0
0, 0
0, 0
0, 0
0, 0
0, 0
0, 0
0, 0
0, 0
0, 0
0, 0
0, 0
0, 0
0, 0
0, 0
0, 0
0, 0
0, 0
0, 0
0, 0
0, 0
0, 0
0, 0
0, 0
0, 0
0, 0
0, 0
0, 0
0, 0
0, 0
0, 0
0, 0
0, 0
0, 0
0, 0
0, 0
0, 0
0, 0
0, 0
0, 0
0, 0
0, 0
0, 0
0, 0
0, 0
0, 0
0, 0
0, 0
0, 0
0, 0
0, 0
0, 0
0, 0
0, 0
0, 0
0, 0
0, 0
0, 0
0, 0
0, 0
0, 0
0, 0
0, 0
0, 0
0, 0
0, 0
0, 0
0, 0
0, 0
0, 0
0, 0
0, 0
0, 0
0, 0
0, 0
0, 0
0, 0
0, 0
0, 0
0, 0
0, 0
0, 0
0, 0
0, 0
0, 0
0, 0
0, 0
0, 0
0, 0
0, 0
0, 0
0, 0
0, 0
0, 0
0, 0
0, 0
0, 0
0, 0
0, 0
0, 0
0, 0
0, 0
0, 0
0, 0
0, 0
0, 0
0, 0
0, 0
0, 0
0, 0
0, 0
0, 0
#ENDOFDATA     end of spectrum data