File: host_upload/06-09-2024/ps_0852/dump3/ps__0852shot_2261.msa
#FORMAT      : EMSA/MAS spectral data file
#VERSION     : TC202v2.0 PIXL
#TITLE       : N/A
#DATE        :       Date in the format DD-MMM-YYYY, for example 07-JUL-2010
#TIME        :             The time of day at which the spectrum was recorded, in 24-hour format
#OWNER       : PIXL Flight Model       (PIXL will use this to indicate which instrument took the data.)
#NPOINTS     : 4096     Number of data points in the spectrum (This can be zero for configuration only files)
#NCOLUMNS    : 2     Number of data columns in the spectrum (This can be zero for configuration only files)
#XUNITS      : eV
#YUNITS      : COUNTS
#DATATYPE    : YY
#XPERCHAN    : 7.862, 7.881   eV per channel (separate by commas if more than one detector)
#OFFSET      : 18.5, -22.4         eV of first channel  (separate by commas if more than one detector
#SIGNALTYPE  : XRF
#YP_TEMP     : 2.332
#LIVETIME    : 8.57069, 8.57419   seconds (separate by commas if more than one detector)
#REALTIME    : 10, 10.0   seconds (separate by commas if more than one detector)
#SPECTRUM    : start of spectrum data
0, 0
0, 0
0, 0
0, 0
0, 0
0, 0
0, 0
0, 0
0, 0
0, 0
0, 0
0, 0
0, 0
0, 0
0, 0
0, 0
0, 0
0, 0
0, 0
0, 0
0, 0
0, 0
0, 0
0, 0
0, 0
0, 0
0, 0
0, 0
0, 0
0, 0
0, 0
0, 0
0, 0
0, 0
0, 0
1, 0
1, 1
0, 0
3, 0
6, 1
4, 1
7, 2
5, 3
8, 1
1, 2
3, 2
7, 0
2, 7
6, 9
16, 7
16, 23
36, 41
56, 70
62, 81
72, 82
74, 71
65, 67
35, 42
14, 23
12, 14
8, 6
4, 5
3, 3
1, 1
2, 4
6, 6
4, 6
9, 11
21, 21
40, 54
87, 98
166, 171
249, 291
315, 384
398, 433
438, 468
388, 405
292, 325
172, 194
99, 107
61, 61
35, 44
18, 23
15, 8
3, 8
2, 1
4, 3
1, 0
1, 2
1, 1
1, 1
1, 0
1, 0
2, 1
2, 2
1, 2
2, 3
7, 2
1, 2
4, 3
3, 5
5, 1
4, 1
3, 3
3, 1
3, 5
4, 2
11, 4
30, 13
41, 6
90, 19
169, 18
298, 29
373, 25
449, 36
510, 27
489, 24
415, 26
308, 25
253, 30
137, 26
77, 11
53, 16
28, 16
15, 19
18, 13
13, 9
13, 9
11, 7
7, 5
7, 7
2, 2
4, 1
2, 4
3, 2
1, 4
1, 4
1, 0
0, 2
3, 4
1, 2
5, 3
1, 3
0, 1
0, 1
3, 3
2, 2
1, 2
2, 1
0, 3
1, 0
4, 3
6, 3
8, 4
8, 14
12, 11
14, 21
14, 15
17, 9
18, 11
15, 6
6, 6
4, 8
5, 8
6, 1
5, 4
1, 1
3, 3
3, 0
4, 3
11, 3
14, 4
20, 7
25, 3
28, 2
42, 2
39, 2
43, 5
35, 0
26, 1
33, 3
20, 2
10, 2
11, 2
8, 7
5, 3
3, 9
10, 12
2, 8
6, 9
5, 9
6, 14
8, 9
7, 13
7, 8
6, 21
10, 15
14, 26
12, 36
12, 51
6, 54
5, 62
7, 110
11, 103
7, 97
9, 90
5, 91
4, 74
6, 54
4, 25
5, 17
4, 11
5, 8
5, 9
5, 5
4, 9
9, 9
8, 10
3, 10
9, 1
6, 8
8, 7
3, 8
5, 12
7, 5
7, 9
7, 10
8, 12
14, 9
11, 7
17, 10
17, 19
14, 17
25, 12
24, 8
31, 10
42, 8
30, 9
35, 6
21, 6
24, 4
20, 7
20, 6
25, 12
13, 16
20, 22
23, 35
29, 31
29, 37
48, 57
61, 65
54, 65
59, 74
38, 59
41, 36
36, 44
27, 41
16, 26
13, 35
18, 58
14, 59
21, 75
48, 110
79, 166
139, 237
248, 371
425, 651
693, 1033
1043, 1306
1445, 1828
1828, 2287
2109, 2430
2229, 2633
2180, 2418
1984, 2032
1548, 1641
1164, 1126
821, 850
518, 559
299, 292
174, 164
94, 82
50, 48
34, 38
25, 29
35, 20
35, 19
36, 20
46, 15
53, 26
55, 23
84, 36
91, 52
98, 77
143, 124
180, 189
184, 224
239, 278
300, 322
333, 364
345, 335
315, 360
251, 278
238, 224
158, 170
129, 99
87, 60
52, 35
29, 26
18, 15
15, 11
7, 8
4, 9
11, 11
10, 7
9, 19
8, 12
23, 18
18, 15
11, 9
11, 14
10, 14
11, 8
11, 7
5, 9
1, 8
2, 9
3, 2
1, 8
5, 4
1, 3
4, 4
4, 8
2, 5
4, 6
2, 5
4, 9
1, 5
3, 4
6, 9
4, 3
4, 6
12, 2
8, 5
13, 7
18, 7
27, 5
32, 9
34, 2
44, 3
46, 4
54, 7
45, 5
44, 4
33, 2
30, 3
29, 1
30, 4
16, 4
8, 3
10, 6
9, 4
5, 4
3, 3
2, 4
2, 7
3, 2
8, 7
3, 6
3, 2
1, 2
4, 2
4, 4
4, 9
4, 3
1, 4
4, 5
2, 2
3, 4
2, 7
3, 1
2, 3
3, 2
3, 4
2, 0
0, 6
2, 4
1, 6
4, 3
2, 6
3, 2
1, 7
3, 8
2, 6
4, 5
3, 7
2, 2
3, 6
2, 8
1, 6
1, 9
7, 7
4, 6
4, 5
2, 8
3, 8
2, 4
3, 14
2, 5
6, 9
0, 6
2, 2
1, 3
1, 3
2, 5
1, 6
3, 2
4, 7
2, 9
2, 4
3, 1
3, 4
6, 4
4, 2
1, 4
5, 3
3, 1
3, 3
2, 2
2, 4
3, 7
4, 1
3, 5
1, 2
1, 5
1, 4
2, 3
6, 5
0, 2
1, 7
2, 4
1, 6
3, 3
2, 3
4, 0
3, 1
2, 2
3, 4
0, 3
3, 4
1, 0
2, 3
2, 4
4, 2
5, 4
1, 4
2, 3
4, 1
3, 1
7, 1
5, 4
1, 1
2, 3
3, 8
5, 6
4, 2
5, 4
5, 1
4, 6
8, 3
3, 5
5, 3
2, 4
2, 1
2, 0
2, 1
1, 3
3, 3
4, 0
2, 1
0, 4
2, 3
6, 2
4, 1
1, 5
2, 2
1, 3
2, 1
1, 1
1, 1
2, 4
0, 2
2, 3
1, 5
1, 2
0, 3
3, 2
3, 1
3, 2
1, 1
0, 1
2, 1
3, 3
3, 2
1, 5
2, 1
0, 1
0, 4
4, 0
0, 0
2, 1
2, 3
3, 0
3, 1
1, 2
1, 5
2, 2
2, 1
2, 3
1, 3
5, 4
2, 3
2, 6
1, 2
1, 5
2, 1
2, 2
2, 3
2, 3
1, 1
0, 4
1, 4
2, 1
2, 2
3, 3
2, 1
5, 3
3, 2
0, 3
4, 5
2, 7
3, 3
3, 4
4, 4
5, 3
2, 3
2, 4
4, 5
3, 3
2, 2
0, 3
1, 4
1, 3
3, 1
2, 4
0, 2
0, 1
1, 0
0, 1
1, 1
2, 1
0, 1
0, 3
1, 3
2, 4
1, 2
1, 1
1, 1
4, 1
2, 4
3, 0
2, 3
1, 3
1, 3
1, 1
0, 2
1, 1
0, 0
2, 0
2, 1
1, 0
0, 0
0, 2
1, 0
4, 1
0, 0
0, 0
0, 1
1, 0
2, 0
1, 0
2, 1
2, 1
2, 0
2, 3
0, 1
1, 1
6, 2
1, 3
0, 0
1, 3
1, 1
2, 2
3, 0
0, 0
1, 2
0, 0
2, 1
0, 3
0, 0
0, 0
1, 2
0, 0
1, 4
0, 0
1, 1
1, 1
2, 0
1, 0
0, 1
1, 1
0, 0
0, 2
1, 1
1, 0
1, 0
1, 0
0, 1
0, 2
1, 1
0, 1
0, 2
1, 0
1, 1
0, 0
2, 0
0, 1
0, 1
2, 0
0, 1
0, 0
1, 1
0, 1
0, 1
1, 1
0, 0
0, 1
0, 0
1, 0
0, 0
1, 1
0, 1
1, 0
0, 1
0, 0
1, 1
0, 1
1, 0
0, 2
0, 0
0, 1
1, 0
2, 0
0, 0
0, 0
1, 0
0, 0
1, 0
0, 1
0, 2
1, 0
0, 0
1, 1
1, 1
0, 0
1, 1
0, 0
0, 0
1, 1
0, 0
0, 0
0, 1
0, 0
0, 0
0, 1
1, 1
0, 0
0, 1
0, 0
0, 0
0, 0
0, 0
2, 0
0, 0
0, 0
0, 0
0, 1
0, 0
0, 1
2, 0
0, 0
0, 1
0, 1
0, 2
0, 0
1, 0
0, 1
2, 0
1, 0
0, 0
0, 0
1, 0
1, 0
1, 1
1, 0
0, 0
0, 1
0, 0
1, 0
0, 0
0, 0
0, 2
0, 0
1, 1
0, 0
0, 0
0, 0
0, 0
0, 2
1, 2
1, 0
0, 2
0, 0
0, 0
1, 0
0, 1
0, 1
0, 0
0, 0
1, 1
1, 0
0, 0
0, 0
1, 0
0, 0
0, 0
0, 0
1, 1
0, 0
0, 0
2, 0
0, 0
0, 0
0, 0
0, 0
1, 0
0, 0
0, 0
0, 1
0, 1
0, 1
0, 0
0, 1
0, 1
0, 0
0, 0
0, 0
0, 0
0, 0
0, 0
1, 0
0, 0
0, 0
0, 0
0, 0
0, 0
0, 0
0, 0
1, 1
0, 1
0, 1
0, 1
0, 0
0, 1
0, 1
0, 0
0, 0
0, 2
1, 1
0, 0
0, 0
0, 0
0, 0
0, 0
0, 2
0, 0
0, 0
1, 0
0, 0
0, 0
1, 0
0, 0
0, 0
2, 0
0, 1
0, 0
0, 0
0, 0
0, 0
0, 2
1, 0
0, 0
0, 0
0, 1
1, 0
1, 0
0, 1
0, 0
1, 0
0, 0
0, 0
0, 1
0, 0
0, 0
0, 0
0, 1
0, 0
0, 0
0, 0
0, 0
0, 0
0, 0
0, 0
0, 0
0, 0
0, 0
0, 0
1, 0
0, 0
0, 0
0, 1
0, 0
0, 1
0, 0
0, 0
0, 0
0, 0
0, 0
0, 2
0, 0
0, 0
1, 0
0, 0
0, 0
0, 0
0, 1
1, 0
0, 0
0, 1
0, 1
0, 0
0, 0
0, 0
0, 0
0, 0
0, 0
0, 0
0, 0
0, 0
0, 0
0, 0
0, 0
0, 0
0, 1
0, 0
0, 0
0, 0
1, 0
0, 0
0, 0
0, 0
0, 0
0, 0
0, 0
0, 0
0, 0
0, 0
0, 0
0, 0
0, 0
0, 0
1, 0
0, 0
0, 0
0, 0
0, 0
0, 0
1, 0
0, 0
0, 0
0, 0
0, 0
0, 0
0, 0
0, 0
0, 0
0, 0
0, 0
0, 0
0, 0
0, 0
0, 0
0, 0
0, 0
0, 0
0, 0
0, 0
0, 0
0, 0
0, 0
0, 0
0, 0
0, 0
0, 0
0, 0
0, 0
1, 0
0, 0
0, 0
0, 0
0, 0
0, 0
0, 0
0, 0
0, 0
0, 0
0, 0
0, 0
0, 0
0, 0
0, 0
0, 0
0, 0
0, 0
0, 0
0, 0
0, 0
0, 0
0, 0
0, 0
0, 0
0, 0
0, 0
0, 0
0, 0
0, 0
0, 0
0, 0
0, 0
0, 0
0, 0
0, 0
0, 1
0, 0
0, 0
0, 0
0, 0
0, 0
0, 0
0, 0
0, 0
0, 0
0, 0
0, 0
0, 0
0, 0
0, 0
0, 0
0, 0
0, 0
0, 0
0, 0
0, 0
0, 0
0, 0
0, 0
0, 0
0, 0
0, 0
0, 0
0, 0
0, 0
0, 0
0, 0
0, 0
0, 0
0, 0
0, 0
0, 0
0, 0
0, 0
0, 0
0, 0
0, 0
0, 0
0, 0
0, 0
0, 0
0, 0
0, 0
0, 0
0, 0
0, 0
0, 0
0, 0
0, 0
0, 0
0, 0
0, 0
0, 0
0, 0
0, 0
0, 0
0, 0
0, 0
0, 0
0, 0
0, 0
0, 0
0, 0
0, 0
0, 0
0, 0
0, 0
0, 0
0, 0
0, 0
0, 0
0, 0
0, 0
0, 0
0, 0
0, 0
0, 0
0, 0
0, 0
0, 0
0, 0
0, 0
0, 0
0, 0
0, 1
0, 0
0, 0
0, 0
0, 0
0, 0
0, 0
0, 0
0, 0
0, 0
0, 0
0, 0
0, 0
0, 0
0, 0
0, 0
0, 0
0, 0
0, 0
0, 0
0, 0
0, 0
0, 0
0, 0
0, 0
0, 0
0, 0
0, 0
0, 0
0, 0
0, 0
0, 0
0, 0
0, 0
0, 0
0, 0
0, 0
0, 0
0, 0
0, 0
0, 0
0, 0
0, 0
0, 0
0, 0
0, 0
0, 0
0, 0
0, 0
0, 0
0, 0
0, 0
0, 0
0, 0
0, 0
0, 0
0, 0
0, 0
0, 0
0, 0
0, 0
0, 0
0, 0
0, 0
0, 0
0, 0
0, 0
0, 0
0, 0
0, 0
0, 0
0, 0
0, 0
0, 0
0, 0
0, 0
0, 0
0, 0
0, 0
0, 0
0, 0
0, 0
0, 0
0, 0
0, 0
0, 0
0, 0
0, 0
0, 0
0, 0
0, 0
0, 0
0, 0
0, 0
0, 0
0, 0
0, 0
0, 0
0, 0
0, 0
0, 0
0, 0
0, 0
0, 0
0, 0
0, 0
0, 0
0, 0
0, 0
0, 0
0, 0
0, 0
0, 0
0, 0
0, 0
0, 0
0, 0
0, 0
0, 0
0, 0
0, 0
0, 0
0, 0
0, 0
0, 0
0, 0
0, 0
0, 0
0, 0
0, 0
0, 0
0, 0
0, 0
0, 0
0, 0
0, 0
0, 0
0, 0
0, 0
0, 0
0, 0
0, 0
0, 0
0, 0
0, 0
0, 0
0, 0
0, 0
0, 0
0, 0
0, 0
0, 0
0, 0
0, 0
0, 0
0, 0
0, 0
0, 0
0, 0
0, 0
0, 0
0, 0
0, 0
0, 0
0, 0
0, 0
0, 0
0, 0
0, 0
0, 0
0, 0
0, 0
0, 0
0, 0
0, 0
0, 0
0, 0
0, 0
0, 0
0, 0
0, 0
0, 0
0, 0
0, 0
0, 0
0, 0
0, 0
0, 0
0, 0
0, 0
0, 0
0, 0
0, 0
0, 0
0, 0
0, 0
0, 0
0, 0
0, 0
0, 0
0, 0
0, 0
0, 0
0, 0
0, 0
0, 0
0, 0
0, 0
0, 0
0, 0
0, 0
0, 0
0, 0
0, 0
0, 0
0, 0
0, 0
0, 0
0, 0
0, 0
0, 0
0, 0
0, 0
0, 0
0, 0
0, 0
0, 0
0, 0
0, 0
0, 0
0, 0
0, 0
0, 0
0, 0
0, 0
0, 0
0, 0
0, 0
0, 0
0, 0
0, 0
0, 0
0, 0
0, 0
0, 0
0, 0
0, 0
0, 0
0, 0
0, 0
0, 0
0, 0
0, 0
0, 0
0, 0
0, 0
0, 0
0, 0
0, 0
0, 0
0, 0
0, 0
0, 0
0, 0
0, 0
0, 0
0, 0
0, 0
0, 0
0, 0
0, 0
0, 0
0, 0
0, 0
0, 0
0, 0
0, 0
0, 0
0, 0
0, 0
0, 0
0, 0
0, 0
0, 0
0, 0
0, 0
0, 0
0, 0
0, 0
0, 0
0, 0
0, 0
0, 0
0, 0
0, 0
0, 0
0, 0
0, 0
0, 0
0, 0
0, 0
0, 0
0, 0
0, 0
0, 0
0, 0
0, 0
0, 0
0, 0
0, 0
0, 0
0, 0
0, 0
0, 0
0, 0
#ENDOFDATA     end of spectrum data