File: host_upload/06-09-2024/ps_0852/dump3/ps__0852shot_2244.msa
#FORMAT      : EMSA/MAS spectral data file
#VERSION     : TC202v2.0 PIXL
#TITLE       : N/A
#DATE        :       Date in the format DD-MMM-YYYY, for example 07-JUL-2010
#TIME        :             The time of day at which the spectrum was recorded, in 24-hour format
#OWNER       : PIXL Flight Model       (PIXL will use this to indicate which instrument took the data.)
#NPOINTS     : 4096     Number of data points in the spectrum (This can be zero for configuration only files)
#NCOLUMNS    : 2     Number of data columns in the spectrum (This can be zero for configuration only files)
#XUNITS      : eV
#YUNITS      : COUNTS
#DATATYPE    : YY
#XPERCHAN    : 7.862, 7.881   eV per channel (separate by commas if more than one detector)
#OFFSET      : 18.5, -22.4         eV of first channel  (separate by commas if more than one detector
#SIGNALTYPE  : XRF
#YP_TEMP     : 2.075
#LIVETIME    : 8.57679, 8.57961   seconds (separate by commas if more than one detector)
#REALTIME    : 10, 10.0   seconds (separate by commas if more than one detector)
#SPECTRUM    : start of spectrum data
0, 0
0, 0
0, 0
0, 0
0, 0
0, 0
0, 0
0, 0
0, 0
0, 0
0, 0
0, 0
0, 0
0, 0
0, 0
0, 0
0, 0
0, 0
0, 0
0, 0
0, 0
0, 0
0, 0
0, 0
0, 0
0, 0
0, 0
0, 1
0, 0
0, 0
0, 0
0, 1
0, 0
0, 1
0, 0
0, 0
1, 1
0, 1
1, 0
2, 1
0, 0
1, 1
0, 1
3, 1
0, 0
1, 1
2, 1
2, 1
2, 4
10, 15
23, 26
33, 54
52, 65
66, 59
64, 49
75, 81
52, 58
52, 39
35, 25
7, 10
14, 8
5, 3
5, 4
1, 9
3, 5
9, 5
2, 4
9, 7
16, 23
43, 51
84, 116
173, 196
249, 257
300, 387
384, 442
428, 430
354, 384
275, 277
188, 177
120, 134
75, 66
35, 48
18, 15
11, 10
4, 3
2, 3
2, 3
3, 0
2, 2
2, 4
0, 1
0, 1
0, 0
3, 1
2, 2
2, 3
2, 7
5, 3
8, 6
2, 8
4, 5
5, 7
1, 16
1, 15
2, 20
1, 20
3, 29
8, 38
7, 27
15, 31
21, 49
30, 33
32, 37
40, 48
43, 44
53, 62
54, 54
43, 35
33, 35
32, 28
27, 29
23, 26
32, 28
25, 28
15, 19
18, 15
18, 15
12, 14
8, 14
10, 11
4, 6
2, 5
6, 3
2, 6
0, 1
2, 4
3, 2
5, 4
2, 2
4, 2
0, 2
1, 3
1, 0
3, 2
4, 2
1, 2
5, 0
4, 2
5, 5
7, 4
7, 11
14, 11
6, 11
13, 15
16, 14
13, 28
25, 29
29, 36
27, 33
29, 29
21, 18
22, 16
14, 5
11, 11
11, 6
13, 5
5, 9
5, 4
5, 6
7, 9
7, 9
4, 5
8, 7
6, 4
9, 8
4, 7
1, 0
6, 4
6, 4
12, 5
6, 3
6, 4
7, 2
5, 7
5, 6
6, 7
7, 8
3, 10
5, 7
16, 5
10, 16
12, 7
12, 13
10, 17
19, 26
18, 19
12, 24
15, 21
21, 22
17, 24
19, 24
11, 8
17, 10
7, 15
10, 7
5, 8
2, 9
5, 10
9, 8
5, 16
6, 20
4, 11
13, 15
9, 8
7, 12
9, 19
6, 20
7, 11
10, 15
7, 9
9, 4
7, 9
12, 11
7, 8
9, 8
10, 5
12, 18
15, 11
23, 13
17, 12
15, 27
16, 29
19, 16
12, 17
12, 13
13, 14
16, 9
15, 6
10, 11
9, 10
14, 8
13, 11
10, 10
10, 10
14, 21
23, 32
27, 30
27, 52
38, 44
54, 55
68, 77
65, 53
69, 63
71, 55
49, 36
42, 39
40, 21
24, 27
29, 18
21, 18
29, 21
40, 40
64, 70
95, 140
171, 185
270, 395
487, 622
752, 1016
1102, 1432
1622, 1772
1955, 2224
2205, 2529
2412, 2442
2333, 2301
2036, 1966
1684, 1612
1372, 1121
944, 754
591, 493
320, 291
195, 173
110, 68
49, 43
41, 21
26, 14
24, 13
20, 14
22, 13
29, 16
30, 26
38, 36
37, 42
46, 61
57, 88
120, 122
165, 191
204, 252
274, 314
345, 365
337, 392
355, 358
335, 369
310, 313
239, 264
181, 165
142, 114
97, 84
61, 39
36, 27
14, 17
13, 9
8, 6
9, 13
14, 15
9, 10
12, 15
15, 14
20, 13
21, 13
10, 15
15, 12
13, 14
13, 14
4, 5
9, 11
12, 3
6, 8
3, 9
6, 3
6, 4
5, 8
5, 4
3, 5
5, 4
5, 3
4, 6
5, 7
2, 10
3, 6
5, 6
2, 6
11, 6
6, 6
2, 4
4, 7
3, 9
11, 7
9, 7
7, 9
8, 2
16, 3
6, 9
4, 5
4, 5
5, 5
10, 7
9, 5
4, 5
5, 2
4, 5
1, 8
4, 2
6, 4
6, 8
6, 1
5, 6
1, 3
6, 4
8, 6
3, 5
5, 4
3, 5
5, 7
6, 2
6, 5
4, 5
2, 3
7, 4
6, 5
2, 4
9, 4
8, 5
8, 7
7, 2
9, 6
8, 8
5, 8
8, 5
6, 4
4, 5
7, 5
6, 2
2, 11
5, 2
6, 5
6, 3
2, 10
4, 4
3, 6
3, 1
2, 8
5, 2
5, 3
8, 8
6, 8
5, 5
8, 5
8, 6
4, 3
12, 6
4, 5
9, 4
8, 4
8, 3
7, 2
6, 2
6, 2
3, 6
6, 0
1, 2
5, 2
3, 3
2, 2
2, 6
4, 4
0, 9
3, 3
5, 2
3, 3
2, 5
4, 4
3, 7
1, 4
6, 3
1, 3
3, 4
3, 3
3, 2
6, 2
2, 4
6, 1
2, 7
1, 2
4, 1
5, 1
7, 2
2, 6
4, 3
4, 7
4, 1
5, 2
0, 2
3, 2
2, 1
1, 4
4, 1
3, 3
3, 5
5, 3
5, 2
5, 5
1, 2
5, 2
3, 2
2, 3
4, 3
6, 4
0, 4
4, 3
6, 0
2, 4
1, 4
3, 1
7, 1
6, 3
3, 2
4, 3
1, 2
3, 2
3, 5
1, 1
6, 2
2, 4
3, 3
6, 2
1, 2
3, 3
4, 3
1, 2
1, 2
3, 1
0, 5
4, 2
2, 2
1, 2
1, 2
3, 1
2, 2
3, 1
3, 2
2, 1
3, 1
4, 1
1, 3
5, 0
1, 1
2, 1
1, 0
2, 3
3, 1
0, 4
3, 1
3, 3
2, 3
3, 1
2, 4
1, 0
5, 3
1, 3
4, 0
1, 1
0, 1
2, 1
2, 1
0, 3
6, 1
4, 0
2, 1
1, 1
2, 0
1, 1
1, 2
2, 2
2, 5
2, 3
2, 0
1, 1
2, 3
4, 5
5, 1
4, 7
5, 3
5, 5
4, 8
2, 6
5, 1
1, 3
3, 5
5, 3
4, 2
0, 4
1, 3
1, 4
2, 0
0, 4
1, 3
2, 1
4, 0
1, 3
1, 1
2, 0
1, 2
0, 2
2, 3
1, 3
1, 2
0, 2
0, 4
0, 2
2, 2
2, 0
2, 2
3, 0
2, 2
2, 3
2, 1
4, 1
4, 3
0, 2
1, 0
1, 0
1, 0
1, 2
2, 0
0, 2
2, 2
0, 0
2, 0
2, 3
1, 1
1, 0
0, 0
0, 2
1, 0
0, 1
1, 1
2, 0
1, 1
2, 2
0, 2
2, 0
2, 1
1, 0
1, 3
3, 0
1, 4
0, 1
2, 1
1, 1
0, 2
1, 0
0, 1
0, 0
1, 0
0, 2
4, 2
3, 0
1, 1
1, 0
2, 1
1, 2
0, 3
1, 0
0, 3
3, 0
1, 0
0, 1
2, 0
0, 3
1, 0
0, 1
0, 0
0, 2
0, 0
0, 2
1, 0
1, 2
1, 1
3, 0
0, 0
1, 1
0, 0
0, 2
1, 0
1, 0
2, 2
2, 3
1, 0
0, 0
0, 3
1, 1
1, 1
0, 0
0, 1
1, 0
1, 0
1, 0
0, 2
0, 3
1, 1
1, 2
0, 2
1, 0
1, 1
0, 0
1, 0
1, 0
0, 0
0, 1
1, 1
0, 1
0, 1
1, 0
0, 1
1, 0
0, 0
1, 2
0, 1
1, 0
0, 0
2, 1
0, 0
0, 0
1, 0
0, 0
0, 0
0, 0
0, 1
0, 0
0, 1
1, 0
0, 1
0, 0
0, 0
0, 1
0, 0
0, 0
1, 0
0, 0
0, 0
0, 0
0, 0
0, 0
0, 1
0, 1
1, 0
0, 0
1, 0
0, 0
0, 1
1, 0
0, 0
1, 0
1, 1
0, 1
0, 0
1, 0
2, 1
0, 1
0, 1
0, 2
0, 0
0, 0
0, 0
0, 0
0, 0
1, 0
1, 0
0, 0
0, 0
1, 0
0, 1
0, 0
1, 0
0, 0
0, 1
0, 0
0, 0
0, 0
0, 0
0, 0
0, 0
1, 0
0, 0
0, 0
0, 1
0, 2
2, 0
0, 0
1, 0
0, 0
0, 0
0, 1
0, 0
1, 0
0, 1
0, 0
1, 0
0, 0
0, 0
0, 1
0, 0
0, 2
0, 0
1, 0
0, 1
0, 2
1, 0
1, 0
0, 1
0, 0
0, 0
0, 0
0, 0
0, 0
0, 0
1, 0
0, 0
1, 0
3, 0
0, 0
0, 0
0, 1
1, 1
0, 1
1, 1
0, 0
0, 0
2, 0
0, 0
1, 0
0, 1
0, 1
0, 0
0, 1
1, 0
0, 0
1, 0
0, 0
1, 0
0, 0
3, 0
0, 1
1, 0
0, 0
1, 0
0, 0
1, 0
1, 0
0, 0
1, 0
0, 1
0, 0
1, 0
0, 0
0, 0
0, 0
0, 0
0, 0
1, 0
0, 0
0, 0
0, 0
0, 0
1, 0
0, 0
0, 0
0, 1
0, 0
0, 0
2, 0
0, 0
1, 0
0, 0
0, 0
0, 0
0, 0
0, 0
0, 0
0, 1
2, 0
0, 0
0, 0
0, 1
0, 0
0, 0
0, 0
0, 0
0, 0
0, 0
1, 0
1, 0
0, 0
0, 1
0, 0
1, 0
0, 1
0, 0
0, 0
0, 0
0, 0
0, 0
0, 0
0, 0
0, 0
1, 0
0, 0
0, 0
0, 0
0, 0
0, 1
0, 0
0, 0
0, 0
0, 0
0, 0
0, 0
0, 0
1, 0
0, 0
0, 0
0, 2
0, 0
1, 0
0, 0
0, 0
0, 0
0, 1
0, 0
0, 0
0, 0
0, 0
0, 0
0, 1
1, 0
0, 0
0, 0
0, 0
1, 0
0, 0
0, 0
0, 0
0, 0
0, 0
0, 0
0, 0
0, 0
0, 0
0, 0
0, 0
0, 0
0, 0
0, 0
0, 0
0, 0
0, 0
1, 0
0, 0
0, 0
1, 0
0, 0
0, 0
0, 0
0, 0
0, 0
0, 0
0, 0
0, 0
0, 0
0, 0
0, 0
0, 0
0, 0
0, 0
0, 0
0, 0
0, 0
0, 0
0, 0
0, 0
0, 0
0, 0
0, 0
0, 0
0, 0
0, 0
0, 0
0, 0
0, 0
0, 0
0, 0
0, 0
0, 0
0, 0
0, 1
0, 0
0, 1
0, 0
0, 1
0, 0
0, 0
0, 0
0, 0
0, 0
0, 0
0, 0
0, 0
0, 0
0, 0
0, 0
0, 0
1, 0
0, 0
0, 0
0, 0
0, 0
0, 1
0, 0
0, 0
0, 0
0, 0
0, 0
0, 0
0, 0
0, 0
0, 0
0, 0
0, 0
0, 0
0, 0
0, 0
0, 0
0, 0
0, 0
0, 0
0, 0
0, 0
0, 0
0, 0
0, 0
0, 0
0, 0
0, 0
0, 0
0, 0
0, 0
0, 0
0, 0
0, 0
0, 0
0, 0
0, 0
0, 0
0, 0
0, 0
1, 0
0, 0
0, 0
0, 0
0, 0
0, 0
0, 0
0, 0
0, 0
0, 0
0, 0
0, 0
0, 0
0, 0
0, 0
0, 0
0, 0
0, 0
1, 0
0, 0
0, 0
0, 0
0, 0
0, 0
0, 0
0, 0
0, 0
0, 0
0, 0
0, 0
0, 0
0, 0
0, 0
0, 0
0, 0
0, 0
0, 0
0, 0
0, 0
0, 0
0, 0
0, 0
0, 0
0, 0
0, 0
0, 0
0, 0
0, 0
0, 0
0, 0
0, 0
0, 0
0, 0
0, 0
0, 0
0, 0
0, 0
0, 0
0, 0
0, 0
0, 0
0, 0
0, 0
0, 0
0, 0
0, 0
0, 0
0, 0
0, 0
0, 0
0, 0
0, 0
0, 0
0, 0
0, 0
0, 0
0, 0
0, 0
0, 0
0, 0
0, 0
0, 0
0, 0
0, 0
0, 0
0, 0
0, 0
0, 0
0, 0
0, 0
0, 0
0, 0
0, 0
0, 0
0, 0
0, 0
0, 0
0, 0
0, 0
0, 0
0, 0
0, 0
0, 0
0, 0
0, 0
0, 0
0, 0
0, 0
0, 0
0, 0
0, 0
0, 0
0, 0
0, 0
0, 0
0, 0
0, 0
0, 0
0, 0
0, 0
0, 0
0, 0
0, 0
0, 0
0, 0
0, 0
0, 0
0, 0
0, 0
0, 0
0, 0
0, 0
0, 0
0, 0
0, 0
0, 0
0, 0
0, 0
0, 0
0, 0
0, 0
0, 0
0, 0
0, 0
0, 0
0, 0
0, 0
0, 0
0, 0
0, 0
0, 0
0, 0
0, 0
0, 0
0, 0
0, 0
0, 0
0, 0
0, 0
0, 0
0, 0
0, 0
0, 0
0, 0
0, 0
0, 0
0, 0
0, 0
0, 0
0, 0
0, 0
0, 0
0, 0
0, 0
0, 0
0, 0
0, 0
0, 0
0, 0
0, 0
0, 0
0, 0
0, 0
0, 0
0, 0
0, 0
0, 0
0, 0
0, 0
0, 0
0, 0
0, 0
0, 0
0, 0
0, 0
0, 0
0, 0
0, 0
0, 0
0, 0
0, 0
0, 0
0, 0
0, 0
0, 0
0, 0
0, 0
0, 0
0, 0
0, 0
0, 0
0, 0
0, 0
0, 0
0, 0
0, 0
0, 0
0, 0
0, 0
0, 0
0, 0
0, 0
0, 0
0, 0
0, 0
0, 0
0, 0
0, 0
0, 0
0, 0
0, 0
0, 0
0, 0
0, 0
0, 0
0, 0
0, 0
0, 0
0, 0
0, 0
0, 0
0, 0
0, 0
0, 0
0, 0
0, 0
0, 0
0, 0
0, 0
0, 0
0, 0
0, 0
0, 0
0, 0
0, 0
0, 0
0, 0
0, 0
0, 0
0, 0
0, 0
0, 0
0, 0
0, 0
0, 0
0, 0
0, 0
0, 0
0, 0
0, 0
0, 0
0, 0
0, 0
0, 0
0, 0
0, 0
0, 0
0, 0
0, 0
0, 0
0, 0
0, 0
0, 0
0, 0
0, 0
0, 0
0, 0
0, 0
0, 0
0, 0
0, 0
0, 0
0, 0
0, 0
0, 0
0, 0
0, 0
0, 0
0, 0
0, 0
0, 0
0, 0
0, 0
0, 0
0, 0
0, 0
0, 0
0, 0
0, 0
0, 0
0, 0
0, 0
0, 0
0, 0
0, 0
0, 0
0, 0
0, 0
0, 0
0, 0
0, 0
0, 0
0, 0
0, 0
0, 0
0, 0
0, 0
0, 0
0, 0
0, 0
0, 0
0, 0
0, 0
0, 0
0, 0
0, 0
0, 0
0, 0
0, 0
0, 0
0, 0
0, 0
0, 0
0, 0
0, 0
0, 0
0, 0
0, 0
0, 0
0, 0
0, 0
#ENDOFDATA     end of spectrum data