File: host_upload/06-09-2024/ps_0852/dump3/ps__0852shot_2465.msa
#FORMAT      : EMSA/MAS spectral data file
#VERSION     : TC202v2.0 PIXL
#TITLE       : N/A
#DATE        :       Date in the format DD-MMM-YYYY, for example 07-JUL-2010
#TIME        :             The time of day at which the spectrum was recorded, in 24-hour format
#OWNER       : PIXL Flight Model       (PIXL will use this to indicate which instrument took the data.)
#NPOINTS     : 4096     Number of data points in the spectrum (This can be zero for configuration only files)
#NCOLUMNS    : 2     Number of data columns in the spectrum (This can be zero for configuration only files)
#XUNITS      : eV
#YUNITS      : COUNTS
#DATATYPE    : YY
#XPERCHAN    : 7.862, 7.881   eV per channel (separate by commas if more than one detector)
#OFFSET      : 18.5, -22.4         eV of first channel  (separate by commas if more than one detector
#SIGNALTYPE  : XRF
#YP_TEMP     : 1.979
#LIVETIME    : 8.52379, 8.50248   seconds (separate by commas if more than one detector)
#REALTIME    : 10, 10.0   seconds (separate by commas if more than one detector)
#SPECTRUM    : start of spectrum data
0, 0
0, 0
0, 0
0, 0
0, 0
0, 0
0, 0
0, 0
0, 0
0, 0
0, 0
0, 0
0, 0
0, 0
0, 0
0, 0
0, 0
0, 0
0, 0
0, 0
0, 0
0, 0
0, 0
0, 0
0, 0
0, 0
0, 0
0, 0
0, 0
0, 0
0, 0
0, 1
0, 0
1, 1
0, 2
1, 0
1, 2
1, 1
3, 5
0, 4
2, 4
2, 2
5, 2
2, 1
6, 1
2, 2
3, 5
2, 2
3, 7
15, 11
9, 17
29, 41
34, 50
49, 61
67, 70
55, 51
63, 54
43, 32
26, 18
19, 12
5, 11
4, 9
2, 5
5, 1
5, 5
3, 6
3, 2
6, 10
9, 9
32, 29
82, 57
102, 106
156, 148
232, 230
263, 257
274, 258
225, 231
171, 178
135, 108
79, 77
56, 35
23, 12
19, 15
7, 8
10, 5
7, 8
10, 5
5, 9
5, 8
12, 8
14, 10
18, 27
40, 25
80, 83
142, 160
238, 268
373, 443
503, 531
553, 628
578, 606
470, 543
462, 455
294, 307
191, 211
139, 138
107, 84
74, 62
48, 54
58, 37
52, 54
80, 64
90, 116
67, 104
93, 85
100, 113
83, 77
65, 78
51, 52
43, 57
46, 43
38, 38
34, 35
31, 33
29, 20
24, 18
18, 20
19, 17
15, 10
10, 17
12, 7
7, 7
7, 5
2, 4
6, 4
5, 5
7, 5
8, 5
5, 5
6, 9
4, 9
12, 10
15, 10
12, 12
8, 13
8, 7
3, 9
7, 6
3, 3
3, 7
5, 7
3, 9
9, 11
12, 22
38, 43
33, 42
38, 56
39, 78
38, 101
56, 87
49, 67
36, 54
25, 38
21, 27
6, 18
3, 7
6, 7
10, 2
7, 6
8, 16
13, 19
15, 15
11, 26
9, 12
17, 13
26, 9
25, 9
35, 5
26, 11
36, 3
39, 6
31, 5
29, 4
19, 5
17, 12
8, 7
12, 17
9, 11
7, 7
7, 12
10, 12
12, 16
10, 17
12, 13
18, 12
12, 27
19, 15
13, 13
20, 21
13, 14
8, 15
13, 10
12, 12
8, 8
1, 8
6, 5
3, 6
4, 11
6, 9
6, 15
4, 14
6, 12
6, 15
5, 14
5, 22
10, 12
6, 9
3, 10
6, 6
4, 8
7, 10
9, 5
12, 8
12, 6
12, 9
14, 12
8, 7
15, 13
14, 12
16, 22
25, 32
24, 25
21, 50
25, 47
31, 47
30, 41
22, 38
23, 30
24, 34
23, 26
23, 20
8, 29
14, 24
7, 30
15, 31
15, 19
21, 26
22, 36
31, 46
37, 48
50, 69
35, 61
58, 52
52, 32
49, 37
52, 37
31, 30
28, 31
15, 18
18, 9
12, 17
17, 16
27, 25
52, 54
71, 94
149, 181
253, 336
442, 571
642, 848
996, 1184
1353, 1632
1643, 2067
2075, 2136
2128, 2215
2152, 2032
1968, 1806
1498, 1383
1124, 998
793, 651
486, 446
321, 226
175, 111
87, 54
50, 44
31, 19
20, 21
21, 11
14, 20
24, 16
11, 21
12, 21
18, 27
28, 51
48, 50
61, 72
84, 117
130, 134
180, 215
216, 304
299, 317
301, 332
305, 350
317, 301
303, 255
231, 207
164, 150
115, 101
60, 56
48, 44
35, 24
10, 8
11, 11
6, 14
7, 9
11, 7
9, 10
13, 10
12, 13
12, 11
12, 12
13, 9
31, 12
24, 8
16, 14
24, 7
23, 15
19, 8
21, 15
25, 10
13, 21
11, 13
6, 16
8, 15
6, 17
2, 13
4, 7
5, 3
6, 5
3, 5
4, 8
4, 2
8, 2
6, 3
10, 5
8, 3
3, 9
8, 8
5, 3
8, 7
5, 10
6, 4
6, 10
7, 9
7, 8
7, 6
8, 7
6, 4
13, 7
11, 4
7, 5
10, 5
10, 2
9, 7
12, 5
3, 1
4, 3
5, 6
6, 3
6, 5
9, 7
8, 7
2, 8
9, 6
4, 1
11, 6
13, 5
8, 2
4, 5
3, 1
9, 8
6, 12
7, 4
4, 3
4, 2
6, 3
2, 4
9, 7
5, 15
2, 7
5, 2
3, 14
4, 11
6, 8
6, 10
3, 4
6, 6
3, 3
6, 3
2, 11
3, 5
7, 4
2, 5
5, 6
3, 5
5, 1
4, 3
2, 2
9, 3
6, 6
4, 7
3, 2
2, 9
4, 5
3, 5
3, 5
2, 6
4, 5
4, 6
1, 7
0, 9
3, 8
2, 7
4, 7
0, 11
3, 7
3, 13
4, 10
3, 6
3, 9
2, 7
5, 5
7, 8
3, 6
5, 5
6, 6
4, 4
5, 4
2, 6
1, 3
4, 2
0, 6
1, 1
1, 6
2, 4
9, 5
1, 3
3, 5
7, 2
6, 2
5, 3
4, 4
3, 1
9, 8
3, 4
3, 2
3, 1
1, 0
2, 1
2, 3
3, 2
6, 3
3, 2
4, 2
5, 1
2, 5
5, 0
4, 4
4, 2
6, 2
8, 1
4, 4
6, 1
7, 7
4, 8
2, 3
8, 1
1, 7
3, 1
4, 5
1, 3
2, 3
3, 1
4, 0
3, 5
1, 4
3, 4
1, 1
2, 4
1, 4
1, 1
2, 3
1, 2
1, 3
2, 2
4, 2
2, 1
3, 0
3, 1
2, 2
2, 2
2, 0
2, 4
2, 0
1, 2
4, 1
3, 3
4, 6
1, 1
4, 3
2, 3
3, 1
3, 0
1, 2
3, 1
3, 2
1, 4
3, 1
2, 1
3, 2
1, 2
1, 5
0, 1
3, 3
0, 0
0, 5
4, 1
1, 1
4, 1
1, 1
0, 1
0, 2
0, 0
0, 1
0, 3
3, 1
1, 4
2, 1
3, 4
3, 4
4, 2
2, 6
7, 3
2, 5
2, 7
1, 6
2, 2
2, 2
5, 6
2, 2
3, 2
2, 1
3, 2
1, 1
1, 0
2, 2
0, 0
1, 0
1, 0
1, 1
1, 1
0, 3
0, 4
0, 5
0, 1
1, 0
0, 0
4, 2
2, 0
0, 1
3, 1
3, 1
3, 3
2, 2
1, 1
0, 1
1, 5
1, 2
1, 2
1, 0
1, 1
0, 1
2, 3
2, 1
1, 1
2, 3
3, 0
3, 2
1, 2
0, 1
2, 2
0, 1
0, 0
0, 0
2, 2
0, 0
1, 1
0, 0
0, 1
1, 0
1, 1
2, 1
1, 2
0, 1
0, 1
0, 0
1, 1
0, 1
0, 0
1, 0
1, 1
1, 2
0, 1
4, 0
0, 1
0, 1
1, 0
0, 1
1, 4
0, 1
0, 0
0, 0
1, 0
1, 0
3, 3
1, 0
1, 0
1, 2
0, 1
1, 0
1, 0
0, 1
0, 2
0, 1
0, 1
1, 0
0, 0
2, 1
0, 0
1, 0
0, 0
3, 0
1, 2
0, 1
0, 0
0, 0
1, 1
0, 0
1, 0
2, 1
0, 0
1, 1
0, 0
0, 1
1, 1
0, 0
0, 3
0, 2
0, 2
1, 0
0, 1
1, 0
0, 2
2, 0
2, 0
0, 1
0, 1
0, 0
0, 0
0, 1
1, 1
0, 1
0, 0
1, 1
1, 1
0, 1
1, 2
0, 0
1, 2
0, 0
0, 0
2, 1
1, 0
1, 3
0, 2
0, 1
1, 0
0, 0
1, 0
0, 0
0, 1
1, 0
0, 2
1, 0
0, 0
0, 0
0, 0
0, 1
1, 1
0, 0
1, 0
1, 1
2, 1
1, 0
0, 0
0, 1
0, 0
0, 0
0, 0
0, 0
0, 0
0, 0
1, 0
1, 0
0, 0
0, 0
0, 0
0, 1
2, 1
1, 1
0, 0
0, 1
0, 0
1, 1
0, 0
0, 1
0, 0
0, 0
2, 0
0, 1
0, 0
0, 1
1, 0
1, 1
1, 0
0, 0
1, 0
1, 0
0, 0
0, 0
0, 0
0, 0
0, 0
0, 1
0, 1
0, 0
1, 1
0, 0
0, 0
0, 0
0, 1
0, 0
0, 0
1, 0
1, 0
1, 1
0, 0
0, 1
0, 0
0, 1
0, 0
0, 0
0, 0
0, 0
0, 0
0, 0
0, 0
0, 1
0, 1
0, 0
1, 1
0, 0
0, 0
0, 0
0, 0
0, 0
0, 0
1, 0
0, 0
2, 0
1, 0
0, 0
0, 1
0, 1
1, 1
0, 1
0, 2
0, 1
1, 0
0, 1
0, 0
1, 0
0, 1
0, 1
0, 0
0, 0
0, 0
1, 1
0, 0
1, 0
1, 0
0, 0
0, 1
1, 0
0, 0
0, 0
0, 1
0, 0
0, 0
0, 0
0, 0
0, 0
0, 0
0, 0
0, 0
0, 1
0, 0
1, 0
0, 0
0, 1
0, 1
0, 0
0, 0
0, 0
2, 0
0, 0
0, 1
1, 0
0, 0
0, 0
0, 0
0, 0
1, 0
0, 1
0, 0
0, 0
0, 0
0, 0
0, 0
0, 0
0, 0
0, 0
0, 0
0, 0
0, 0
0, 0
0, 0
1, 0
0, 0
0, 0
0, 0
1, 0
1, 0
0, 0
0, 1
0, 0
1, 0
2, 0
0, 0
0, 0
0, 0
0, 1
0, 1
0, 0
1, 0
0, 0
0, 1
1, 0
0, 0
1, 0
0, 0
0, 1
0, 0
0, 0
0, 0
0, 0
0, 0
0, 0
0, 0
0, 0
0, 1
0, 0
0, 0
0, 0
0, 0
0, 0
0, 0
0, 0
0, 0
0, 0
0, 1
0, 0
0, 0
0, 0
0, 0
0, 0
0, 0
0, 0
0, 0
0, 0
0, 0
0, 0
0, 0
0, 0
0, 0
0, 0
0, 0
0, 0
0, 0
0, 0
0, 0
0, 0
0, 0
0, 0
0, 0
0, 0
0, 0
1, 0
0, 0
0, 0
0, 0
0, 0
0, 0
0, 0
0, 0
0, 0
0, 0
0, 0
0, 0
0, 0
0, 1
0, 0
0, 0
0, 0
0, 0
0, 0
0, 0
0, 0
0, 0
0, 0
0, 0
0, 0
0, 0
0, 0
0, 0
0, 0
0, 0
0, 0
0, 0
0, 0
0, 0
0, 0
0, 0
0, 0
0, 0
0, 0
0, 0
0, 1
0, 0
0, 0
0, 1
0, 1
0, 0
0, 0
0, 0
0, 0
0, 0
0, 0
0, 0
0, 0
0, 0
0, 0
0, 0
0, 0
0, 0
0, 0
0, 0
0, 0
0, 0
0, 0
0, 0
0, 0
0, 0
0, 0
0, 0
0, 0
0, 0
0, 0
0, 0
0, 0
0, 0
0, 0
0, 0
0, 0
0, 0
0, 0
0, 0
0, 0
0, 0
0, 0
0, 0
0, 0
0, 0
0, 0
0, 0
0, 0
0, 0
0, 0
0, 0
0, 0
0, 0
0, 0
0, 0
0, 0
0, 0
0, 0
0, 0
1, 0
0, 0
0, 0
0, 0
0, 0
0, 0
0, 0
0, 0
0, 0
0, 0
0, 0
0, 0
0, 0
0, 0
0, 0
0, 0
0, 0
0, 0
0, 0
0, 0
0, 0
0, 0
0, 0
0, 0
0, 0
0, 0
0, 0
0, 0
0, 0
0, 0
0, 0
0, 0
0, 0
0, 0
0, 0
0, 0
0, 0
0, 0
0, 0
0, 1
0, 0
0, 0
0, 0
0, 0
0, 0
0, 0
0, 0
0, 0
0, 0
0, 0
0, 0
0, 0
0, 0
0, 0
0, 0
0, 0
0, 0
0, 0
0, 0
0, 0
0, 0
0, 0
0, 0
0, 0
0, 0
0, 0
0, 0
0, 0
0, 0
0, 0
0, 0
0, 0
0, 0
0, 0
0, 0
0, 0
0, 0
0, 0
0, 0
0, 0
0, 0
0, 0
0, 0
0, 0
0, 0
0, 0
0, 0
0, 0
0, 0
0, 0
0, 0
0, 0
0, 0
0, 0
0, 0
0, 0
0, 0
0, 0
0, 0
0, 0
0, 0
0, 0
0, 0
0, 0
0, 0
0, 0
0, 0
0, 0
0, 0
0, 0
0, 0
0, 0
0, 0
0, 0
0, 0
0, 0
0, 0
0, 0
0, 0
0, 0
0, 0
0, 0
0, 0
0, 0
0, 0
0, 0
0, 0
0, 0
0, 0
0, 0
0, 0
0, 0
0, 0
0, 0
0, 0
0, 0
0, 0
0, 0
0, 0
0, 0
0, 0
0, 0
0, 0
0, 0
0, 0
0, 0
0, 0
0, 0
0, 0
0, 0
0, 0
0, 0
0, 0
0, 0
0, 0
0, 0
0, 0
0, 0
0, 0
0, 0
0, 0
0, 0
0, 0
0, 0
0, 0
0, 0
0, 0
0, 0
0, 0
0, 0
0, 0
0, 0
0, 0
0, 0
0, 0
0, 0
0, 0
0, 0
0, 0
0, 0
0, 0
0, 0
0, 0
0, 0
0, 0
0, 0
0, 0
0, 0
0, 0
0, 0
0, 0
0, 0
0, 0
0, 0
0, 0
0, 0
0, 0
0, 0
0, 0
0, 0
0, 0
0, 0
0, 0
0, 0
0, 0
0, 0
0, 0
0, 0
0, 0
0, 0
0, 0
0, 0
0, 0
0, 0
0, 0
0, 0
0, 0
0, 0
0, 0
0, 0
0, 0
0, 0
0, 0
0, 0
0, 0
0, 0
0, 0
0, 0
0, 0
0, 0
0, 0
0, 0
0, 0
0, 0
0, 0
0, 0
0, 0
0, 0
0, 0
0, 0
0, 0
0, 0
0, 0
0, 0
0, 0
0, 0
0, 0
0, 0
0, 0
0, 0
0, 0
0, 0
0, 0
0, 0
0, 0
0, 0
0, 0
0, 0
0, 0
0, 0
0, 0
0, 0
0, 0
0, 0
0, 0
0, 0
0, 0
0, 0
0, 0
0, 0
0, 0
0, 0
0, 0
0, 0
0, 0
0, 0
0, 0
0, 0
0, 0
0, 0
0, 0
0, 0
0, 0
0, 0
0, 0
0, 0
0, 0
0, 0
0, 0
0, 0
0, 0
0, 0
0, 0
0, 0
0, 0
0, 0
0, 0
0, 0
0, 0
0, 0
0, 0
0, 0
0, 0
0, 0
0, 0
0, 0
0, 0
0, 0
0, 0
0, 0
0, 0
0, 0
0, 0
0, 0
0, 0
0, 0
0, 0
0, 0
0, 0
0, 0
0, 0
0, 0
0, 0
0, 0
0, 0
0, 0
0, 0
0, 0
0, 0
0, 0
0, 0
0, 0
0, 0
0, 0
0, 0
0, 0
0, 0
0, 0
0, 0
0, 0
0, 0
0, 0
0, 0
0, 0
0, 0
0, 0
0, 0
0, 0
0, 0
0, 0
0, 0
#ENDOFDATA     end of spectrum data