File: host_upload/06-09-2024/ps_0852/dump3/ps__0852shot_2216.msa
#FORMAT      : EMSA/MAS spectral data file
#VERSION     : TC202v2.0 PIXL
#TITLE       : N/A
#DATE        :       Date in the format DD-MMM-YYYY, for example 07-JUL-2010
#TIME        :             The time of day at which the spectrum was recorded, in 24-hour format
#OWNER       : PIXL Flight Model       (PIXL will use this to indicate which instrument took the data.)
#NPOINTS     : 4096     Number of data points in the spectrum (This can be zero for configuration only files)
#NCOLUMNS    : 2     Number of data columns in the spectrum (This can be zero for configuration only files)
#XUNITS      : eV
#YUNITS      : COUNTS
#DATATYPE    : YY
#XPERCHAN    : 7.862, 7.881   eV per channel (separate by commas if more than one detector)
#OFFSET      : 18.5, -22.4         eV of first channel  (separate by commas if more than one detector
#SIGNALTYPE  : XRF
#YP_TEMP     : 2.396
#LIVETIME    : 8.5606, 8.57349   seconds (separate by commas if more than one detector)
#REALTIME    : 10, 10.0   seconds (separate by commas if more than one detector)
#SPECTRUM    : start of spectrum data
0, 0
0, 0
0, 0
0, 0
0, 0
0, 0
0, 0
0, 0
0, 0
0, 0
0, 0
0, 0
0, 0
0, 0
0, 0
0, 0
0, 0
0, 0
0, 0
0, 0
0, 0
0, 0
0, 0
0, 0
0, 0
0, 0
0, 0
0, 0
0, 0
0, 0
0, 0
0, 0
0, 0
0, 1
1, 0
0, 0
0, 0
2, 1
1, 1
0, 1
0, 0
1, 1
1, 2
0, 4
0, 1
1, 1
1, 2
2, 5
2, 6
12, 16
22, 28
31, 40
52, 53
70, 75
71, 79
66, 76
50, 52
42, 40
31, 23
14, 12
5, 6
4, 5
4, 4
3, 9
3, 3
10, 1
8, 3
8, 10
23, 23
53, 40
94, 118
182, 177
300, 286
353, 354
418, 448
405, 446
366, 371
291, 292
217, 210
130, 115
75, 65
43, 37
16, 15
12, 7
7, 2
1, 5
2, 0
1, 1
2, 0
0, 4
0, 1
2, 3
0, 1
1, 0
1, 0
2, 1
2, 3
0, 4
1, 6
3, 5
5, 7
8, 2
7, 4
2, 2
7, 1
1, 6
6, 8
8, 6
14, 17
13, 19
20, 33
32, 28
42, 50
38, 35
45, 60
39, 48
38, 45
33, 38
20, 31
28, 26
19, 25
19, 20
23, 18
16, 18
12, 13
9, 8
14, 15
13, 14
5, 12
9, 10
5, 7
3, 4
1, 5
0, 1
2, 1
2, 2
3, 0
2, 1
1, 3
1, 3
3, 4
1, 2
2, 1
3, 3
1, 2
2, 2
2, 3
1, 1
0, 3
3, 0
2, 4
4, 7
2, 1
7, 10
7, 6
10, 16
16, 17
13, 17
14, 16
12, 14
8, 12
7, 4
7, 5
5, 6
7, 7
1, 5
2, 6
2, 6
5, 9
2, 7
4, 6
3, 3
4, 5
2, 6
4, 5
2, 3
6, 5
6, 3
1, 7
6, 2
1, 3
2, 2
6, 2
3, 2
2, 1
2, 1
5, 2
7, 5
5, 2
12, 5
6, 9
13, 10
9, 10
10, 10
10, 14
10, 14
14, 13
12, 17
8, 11
11, 13
10, 9
13, 8
12, 12
7, 4
8, 6
3, 8
6, 17
4, 16
4, 27
4, 51
5, 64
2, 70
6, 77
3, 73
8, 66
3, 70
7, 43
3, 41
5, 22
4, 13
5, 17
10, 10
14, 11
6, 7
6, 4
7, 14
8, 5
10, 11
10, 12
20, 17
9, 16
18, 15
12, 9
14, 8
16, 12
11, 6
8, 1
13, 8
10, 6
7, 12
10, 6
7, 6
7, 4
8, 8
12, 16
19, 18
20, 30
32, 37
45, 43
61, 53
55, 69
59, 59
56, 58
58, 66
42, 36
36, 31
23, 20
21, 17
11, 16
30, 23
27, 19
32, 38
36, 68
81, 116
160, 198
304, 364
445, 626
784, 980
1173, 1401
1567, 1774
1908, 2263
2293, 2479
2407, 2424
2305, 2362
2112, 2004
1730, 1545
1204, 1149
933, 746
590, 437
321, 252
207, 149
97, 73
53, 43
28, 26
18, 22
19, 13
11, 12
15, 13
10, 18
13, 17
31, 23
28, 60
51, 62
65, 97
111, 121
156, 179
174, 253
260, 300
286, 349
338, 364
332, 367
354, 324
278, 278
263, 224
173, 141
147, 116
94, 58
49, 44
31, 24
20, 21
9, 19
12, 16
5, 14
10, 21
12, 33
9, 56
13, 60
10, 52
16, 66
17, 85
10, 69
8, 64
9, 68
4, 54
15, 49
4, 33
10, 34
13, 16
9, 14
14, 9
8, 9
11, 2
15, 4
17, 3
17, 0
13, 6
16, 5
9, 2
12, 4
8, 7
6, 6
13, 1
11, 4
6, 4
3, 4
9, 7
10, 7
5, 5
4, 4
3, 4
6, 6
3, 7
6, 2
5, 3
6, 8
3, 5
3, 2
0, 8
1, 2
5, 4
5, 2
4, 3
3, 2
5, 6
5, 1
7, 4
3, 5
4, 6
8, 2
6, 3
6, 3
7, 3
5, 5
8, 1
7, 4
6, 3
1, 3
5, 2
3, 0
4, 2
1, 2
3, 5
0, 2
2, 7
1, 10
2, 8
2, 5
2, 11
1, 6
6, 4
3, 6
3, 8
2, 1
5, 2
2, 4
6, 4
4, 4
1, 1
1, 4
2, 7
2, 5
5, 6
2, 4
1, 4
2, 4
2, 3
6, 3
4, 2
3, 4
1, 6
3, 3
4, 2
5, 4
4, 1
0, 1
2, 3
1, 2
3, 5
3, 2
3, 2
1, 2
4, 8
6, 3
1, 3
4, 9
3, 7
3, 5
5, 5
3, 4
1, 3
3, 4
5, 5
1, 4
2, 6
1, 3
6, 2
4, 1
0, 2
4, 0
1, 4
5, 1
3, 3
2, 4
1, 2
3, 3
0, 3
5, 1
3, 2
1, 6
3, 1
5, 2
1, 1
2, 0
2, 0
2, 1
5, 3
2, 1
3, 4
4, 4
2, 2
3, 4
6, 1
3, 4
1, 2
3, 1
1, 1
7, 0
2, 0
3, 1
4, 3
4, 1
4, 1
3, 0
3, 5
4, 1
4, 1
4, 2
5, 3
0, 2
4, 4
6, 1
1, 3
4, 4
2, 2
3, 3
5, 3
5, 2
4, 3
0, 1
3, 3
3, 0
1, 0
0, 3
4, 4
6, 0
1, 5
2, 2
1, 3
2, 2
3, 3
0, 2
2, 5
5, 2
1, 2
2, 0
1, 1
1, 2
0, 1
3, 3
2, 2
2, 4
1, 1
2, 3
1, 3
0, 0
1, 0
3, 1
0, 3
2, 2
1, 2
3, 3
3, 1
3, 4
2, 3
3, 2
1, 3
5, 4
4, 1
3, 3
1, 1
4, 2
3, 2
1, 3
3, 4
2, 4
1, 1
3, 1
3, 5
2, 4
6, 4
2, 5
1, 5
3, 8
3, 5
4, 6
3, 3
1, 7
7, 4
3, 4
2, 1
4, 2
3, 5
2, 1
5, 1
2, 3
1, 1
1, 3
1, 0
2, 0
2, 1
1, 0
2, 1
4, 1
6, 3
8, 3
1, 1
4, 1
3, 1
6, 3
3, 2
3, 2
6, 5
6, 1
3, 0
2, 1
3, 1
3, 1
3, 0
2, 1
2, 2
0, 1
0, 1
0, 0
1, 2
1, 0
1, 0
0, 1
1, 0
2, 1
1, 1
2, 0
1, 2
1, 1
0, 0
2, 1
0, 1
0, 1
1, 3
1, 0
0, 1
0, 1
0, 1
1, 1
0, 1
1, 0
1, 1
1, 2
3, 0
1, 2
0, 2
0, 0
2, 0
3, 0
3, 0
0, 1
1, 1
0, 0
2, 0
0, 1
3, 1
0, 0
1, 0
1, 3
2, 2
1, 1
1, 1
0, 0
0, 1
0, 2
1, 1
0, 1
1, 2
2, 1
1, 1
1, 1
1, 3
0, 1
1, 2
1, 1
0, 4
1, 1
0, 4
2, 3
2, 1
0, 0
0, 0
0, 4
0, 0
3, 1
0, 0
0, 0
0, 1
1, 0
1, 1
1, 0
1, 0
0, 1
0, 0
0, 0
1, 1
2, 1
0, 0
1, 0
1, 0
0, 0
0, 1
0, 1
0, 3
1, 0
0, 2
1, 0
1, 0
0, 0
0, 1
0, 0
0, 1
0, 0
0, 0
0, 0
0, 0
1, 1
1, 1
0, 0
1, 1
0, 1
0, 0
0, 2
0, 0
1, 0
0, 0
0, 0
0, 0
2, 1
0, 0
0, 1
0, 1
0, 0
0, 0
0, 0
0, 0
0, 0
0, 0
0, 0
2, 0
0, 0
1, 2
0, 0
1, 0
0, 0
0, 0
0, 0
0, 1
0, 0
0, 1
0, 1
0, 1
1, 0
0, 1
0, 2
0, 0
0, 0
0, 1
0, 0
0, 0
0, 0
0, 0
1, 0
0, 0
0, 1
0, 0
0, 0
0, 0
0, 0
1, 1
0, 1
0, 0
0, 2
0, 0
1, 0
1, 0
0, 0
0, 0
1, 0
0, 0
1, 0
0, 1
0, 0
0, 1
0, 0
0, 0
0, 2
0, 0
0, 0
1, 0
0, 0
1, 0
0, 0
0, 0
0, 0
0, 0
0, 0
2, 0
0, 0
0, 2
0, 0
2, 0
1, 0
0, 0
0, 0
0, 1
0, 0
0, 1
0, 0
0, 0
0, 0
1, 1
0, 0
1, 0
0, 0
0, 1
0, 0
1, 2
0, 0
0, 0
1, 0
0, 0
0, 0
0, 0
0, 0
0, 1
0, 0
0, 1
0, 0
1, 0
0, 0
0, 2
0, 0
0, 0
0, 0
0, 0
0, 0
0, 0
0, 0
2, 0
0, 0
0, 0
0, 1
0, 0
1, 0
1, 0
1, 2
0, 0
0, 0
1, 0
0, 2
0, 2
0, 0
1, 0
0, 0
0, 0
1, 0
0, 0
0, 0
0, 0
0, 0
0, 0
0, 0
0, 0
0, 0
0, 0
0, 0
0, 0
1, 0
1, 0
0, 0
0, 0
0, 0
0, 0
0, 2
0, 0
0, 0
0, 0
1, 0
0, 1
1, 0
1, 1
1, 0
0, 0
1, 0
0, 0
0, 0
0, 0
0, 1
0, 0
0, 0
1, 0
0, 0
1, 0
1, 0
0, 1
0, 0
1, 0
0, 0
1, 0
0, 0
0, 0
0, 0
0, 0
0, 0
0, 0
0, 0
1, 0
0, 1
0, 1
1, 0
0, 0
0, 0
0, 0
0, 0
0, 0
0, 0
0, 0
0, 0
0, 0
0, 0
0, 0
0, 0
0, 0
0, 0
0, 0
0, 0
0, 0
0, 0
0, 0
0, 0
0, 0
1, 1
0, 0
0, 0
0, 0
0, 0
0, 0
0, 0
0, 0
0, 0
0, 0
0, 0
0, 0
0, 0
0, 0
0, 0
0, 0
0, 0
0, 0
0, 0
0, 0
0, 0
0, 0
0, 0
0, 0
0, 0
0, 0
0, 0
0, 0
0, 0
0, 0
0, 0
0, 0
0, 0
0, 0
0, 0
0, 0
0, 0
1, 0
0, 0
0, 0
0, 0
0, 0
0, 0
0, 0
0, 0
0, 0
0, 0
0, 0
0, 0
0, 0
0, 0
0, 0
0, 0
0, 0
0, 0
0, 0
0, 0
0, 0
0, 0
0, 0
0, 0
0, 0
0, 0
0, 0
0, 0
0, 0
0, 0
0, 0
0, 0
0, 0
0, 0
0, 1
0, 0
0, 0
0, 0
0, 0
0, 0
0, 0
0, 0
0, 0
0, 0
0, 0
0, 0
0, 0
0, 0
0, 0
0, 0
0, 0
0, 0
0, 0
0, 0
0, 0
0, 0
0, 0
0, 0
0, 0
0, 0
0, 0
0, 0
0, 0
0, 0
0, 0
0, 0
0, 0
0, 0
0, 0
0, 0
0, 0
0, 0
0, 0
0, 0
0, 0
0, 0
0, 0
0, 0
0, 0
0, 0
0, 0
0, 0
0, 0
0, 0
0, 0
0, 0
0, 0
0, 0
0, 0
0, 0
0, 0
0, 0
0, 0
0, 0
0, 0
0, 0
0, 0
0, 0
0, 0
0, 0
0, 0
0, 0
0, 0
0, 0
0, 0
0, 0
0, 0
0, 0
0, 0
0, 0
0, 0
0, 0
0, 0
0, 0
0, 0
0, 0
0, 0
0, 0
0, 0
0, 0
0, 0
0, 0
0, 0
0, 0
0, 0
0, 0
0, 0
0, 0
0, 0
0, 1
0, 0
0, 0
0, 0
0, 0
0, 0
0, 0
0, 0
0, 0
0, 0
0, 0
0, 0
0, 0
0, 0
0, 0
0, 0
0, 0
0, 0
0, 0
0, 0
0, 0
0, 0
0, 0
0, 0
0, 0
0, 0
0, 0
0, 0
0, 0
0, 0
0, 0
0, 0
0, 0
0, 0
0, 0
0, 0
0, 0
0, 0
0, 0
0, 0
0, 0
0, 0
0, 0
0, 0
0, 0
0, 0
0, 0
0, 0
0, 0
0, 0
0, 0
0, 0
0, 0
0, 0
0, 0
0, 0
0, 0
0, 0
0, 0
0, 0
0, 0
0, 0
0, 0
0, 0
0, 0
0, 0
0, 0
0, 0
0, 0
0, 0
0, 0
0, 0
0, 0
0, 0
0, 0
0, 0
0, 0
0, 0
0, 0
0, 0
0, 0
0, 0
0, 0
0, 0
0, 0
0, 0
0, 0
0, 0
0, 0
0, 0
0, 0
0, 0
0, 0
0, 0
0, 0
0, 0
0, 0
0, 0
0, 0
0, 0
0, 0
0, 0
0, 0
0, 0
0, 0
0, 0
0, 0
0, 0
0, 0
0, 0
0, 0
0, 0
0, 0
0, 0
0, 0
0, 0
0, 0
0, 0
0, 0
0, 0
0, 0
0, 0
0, 0
0, 0
0, 0
0, 0
0, 0
0, 0
0, 0
0, 0
0, 0
0, 0
0, 0
0, 0
0, 0
0, 0
0, 0
0, 0
0, 0
0, 0
0, 0
0, 0
0, 0
0, 0
0, 0
0, 0
0, 0
0, 0
0, 0
0, 0
0, 0
0, 0
0, 0
0, 0
0, 0
0, 0
0, 0
0, 0
0, 0
0, 0
0, 0
0, 0
0, 0
0, 0
0, 0
0, 0
0, 0
0, 0
0, 0
0, 0
0, 0
0, 0
0, 0
0, 0
0, 0
0, 0
0, 0
0, 0
0, 0
0, 0
0, 0
0, 0
0, 0
0, 0
0, 0
0, 0
0, 0
0, 0
0, 0
0, 0
0, 0
0, 0
0, 0
0, 0
0, 0
0, 0
0, 0
0, 0
0, 0
0, 0
0, 0
0, 0
0, 0
0, 0
0, 0
0, 0
0, 0
0, 0
0, 0
0, 0
0, 0
0, 0
0, 0
0, 0
0, 0
0, 0
0, 0
0, 0
0, 0
0, 0
0, 0
0, 0
0, 0
0, 0
0, 0
0, 0
0, 0
0, 0
0, 0
0, 0
0, 0
0, 0
0, 0
0, 0
0, 0
0, 0
0, 0
0, 0
0, 0
0, 0
0, 0
0, 0
0, 0
0, 0
0, 0
0, 0
0, 0
0, 0
0, 0
0, 0
0, 0
0, 0
0, 0
0, 0
0, 0
0, 0
0, 0
0, 0
0, 0
0, 0
0, 0
0, 0
0, 0
0, 0
0, 0
0, 0
0, 0
0, 0
0, 0
0, 0
0, 0
0, 0
0, 0
0, 0
0, 0
0, 0
0, 0
0, 0
0, 0
0, 0
0, 0
0, 0
0, 0
0, 0
0, 0
0, 0
0, 0
0, 0
0, 0
0, 0
0, 0
0, 0
0, 0
0, 0
0, 0
0, 0
0, 0
0, 0
0, 0
0, 0
0, 0
0, 0
0, 0
0, 0
#ENDOFDATA     end of spectrum data