File: host_upload/06-09-2024/ps_0852/dump3/ps__0852shot_2493.msa
#FORMAT      : EMSA/MAS spectral data file
#VERSION     : TC202v2.0 PIXL
#TITLE       : N/A
#DATE        :       Date in the format DD-MMM-YYYY, for example 07-JUL-2010
#TIME        :             The time of day at which the spectrum was recorded, in 24-hour format
#OWNER       : PIXL Flight Model       (PIXL will use this to indicate which instrument took the data.)
#NPOINTS     : 4096     Number of data points in the spectrum (This can be zero for configuration only files)
#NCOLUMNS    : 2     Number of data columns in the spectrum (This can be zero for configuration only files)
#XUNITS      : eV
#YUNITS      : COUNTS
#DATATYPE    : YY
#XPERCHAN    : 7.862, 7.881   eV per channel (separate by commas if more than one detector)
#OFFSET      : 18.5, -22.4         eV of first channel  (separate by commas if more than one detector
#SIGNALTYPE  : XRF
#YP_TEMP     : 2.492
#LIVETIME    : 8.5514, 8.56613   seconds (separate by commas if more than one detector)
#REALTIME    : 10, 10.0   seconds (separate by commas if more than one detector)
#SPECTRUM    : start of spectrum data
0, 0
0, 0
0, 0
0, 0
0, 0
0, 0
0, 0
0, 0
0, 0
0, 0
0, 0
0, 0
0, 0
0, 0
0, 0
0, 0
0, 0
0, 0
0, 0
0, 0
0, 0
0, 0
0, 0
0, 0
0, 0
0, 0
0, 0
0, 0
0, 0
0, 0
0, 0
0, 0
0, 0
0, 0
0, 0
0, 1
1, 2
1, 0
2, 1
1, 1
1, 0
0, 1
0, 3
1, 5
2, 1
1, 5
2, 1
2, 1
5, 3
9, 18
20, 12
41, 39
64, 61
73, 79
64, 101
76, 77
76, 64
48, 46
25, 29
11, 20
4, 10
6, 4
6, 2
2, 4
3, 2
6, 6
12, 11
5, 5
16, 24
37, 55
70, 86
122, 190
217, 300
310, 383
389, 447
398, 494
338, 434
277, 299
174, 209
113, 116
40, 81
29, 32
18, 13
5, 12
10, 4
5, 8
4, 2
2, 0
3, 3
5, 2
3, 1
1, 3
2, 1
2, 2
1, 5
8, 6
10, 5
6, 5
6, 8
4, 5
7, 9
3, 8
3, 4
3, 11
1, 2
2, 4
7, 8
12, 9
13, 11
19, 17
31, 26
33, 26
53, 43
80, 46
95, 67
108, 56
95, 35
95, 52
85, 41
62, 37
65, 45
98, 39
91, 33
103, 35
117, 23
105, 19
78, 15
71, 25
42, 16
30, 13
20, 3
11, 5
10, 1
6, 3
0, 2
2, 3
2, 3
3, 5
0, 3
1, 1
1, 2
1, 2
1, 1
0, 3
5, 4
0, 3
1, 4
2, 2
2, 2
5, 1
4, 5
3, 5
5, 6
12, 15
17, 12
14, 25
28, 20
17, 17
20, 29
19, 12
20, 16
13, 15
14, 6
8, 6
5, 3
5, 8
1, 7
3, 5
2, 8
6, 6
7, 7
7, 5
5, 6
6, 5
9, 7
5, 7
6, 9
3, 13
3, 14
5, 21
3, 30
3, 19
7, 19
8, 15
4, 13
9, 6
2, 3
7, 13
14, 9
13, 13
18, 17
19, 10
23, 21
37, 11
40, 8
48, 12
32, 12
62, 14
57, 19
52, 14
36, 14
28, 8
21, 9
9, 13
12, 6
10, 6
4, 10
11, 10
9, 12
5, 9
10, 9
6, 5
4, 6
7, 10
1, 8
9, 5
5, 12
7, 8
5, 9
5, 8
5, 8
12, 4
3, 4
6, 10
6, 13
14, 11
14, 15
13, 14
8, 15
12, 18
12, 16
19, 7
5, 14
8, 9
10, 19
13, 9
10, 7
8, 11
6, 7
15, 9
10, 13
20, 13
15, 15
21, 14
27, 22
32, 31
56, 58
46, 59
69, 74
62, 93
67, 87
80, 84
59, 87
58, 79
48, 71
35, 82
27, 69
16, 57
25, 56
14, 51
21, 55
28, 62
44, 77
64, 122
138, 213
238, 390
412, 669
648, 1014
1005, 1477
1277, 2015
1744, 2406
1966, 2581
2157, 2673
2079, 2447
1842, 2138
1475, 1624
1065, 1193
733, 789
505, 456
270, 264
157, 150
90, 73
51, 45
26, 36
17, 28
14, 30
17, 31
12, 55
23, 56
14, 62
19, 73
29, 81
40, 84
73, 100
84, 145
130, 188
176, 231
236, 326
294, 364
295, 383
316, 347
325, 366
297, 287
212, 241
150, 164
125, 111
83, 78
41, 55
27, 25
16, 14
16, 10
16, 8
10, 10
10, 7
13, 11
6, 16
13, 17
12, 23
12, 17
15, 18
14, 9
11, 6
10, 14
5, 17
5, 5
7, 2
6, 6
2, 7
3, 4
4, 4
4, 7
2, 3
4, 4
4, 3
6, 3
4, 7
6, 1
8, 4
6, 2
7, 7
8, 1
12, 5
8, 4
12, 8
4, 8
5, 6
6, 11
9, 4
10, 9
9, 8
6, 9
10, 6
3, 4
6, 9
4, 6
4, 8
4, 9
4, 1
6, 6
5, 5
7, 7
6, 9
6, 4
4, 6
2, 7
5, 8
3, 7
7, 6
1, 3
4, 2
4, 6
5, 6
4, 7
3, 3
7, 5
1, 6
4, 6
1, 4
4, 5
4, 8
4, 2
7, 6
3, 4
3, 3
8, 7
5, 3
6, 4
3, 5
4, 3
7, 2
12, 3
10, 9
14, 2
6, 7
13, 6
5, 5
6, 3
5, 6
6, 5
7, 7
3, 3
9, 3
6, 3
5, 5
2, 5
3, 0
7, 6
4, 8
1, 7
2, 5
2, 7
2, 5
2, 9
2, 10
2, 8
2, 13
2, 12
0, 10
6, 7
6, 9
2, 8
2, 12
2, 4
2, 10
6, 5
3, 6
1, 5
5, 3
3, 3
6, 4
3, 3
4, 5
1, 5
1, 7
5, 6
4, 4
3, 6
3, 4
4, 4
1, 2
3, 7
2, 3
2, 2
3, 2
3, 5
3, 2
2, 1
3, 3
2, 1
1, 7
4, 5
1, 1
6, 0
1, 2
5, 3
1, 2
3, 1
2, 5
2, 3
3, 1
4, 2
2, 2
0, 0
2, 2
4, 2
0, 2
1, 0
3, 3
4, 3
1, 3
0, 4
5, 9
3, 2
0, 4
1, 3
4, 1
2, 6
0, 2
2, 3
3, 2
4, 2
0, 2
2, 3
3, 0
2, 1
1, 5
1, 4
2, 5
2, 6
5, 3
4, 3
5, 5
3, 2
2, 4
2, 3
0, 2
1, 5
1, 3
1, 3
2, 5
1, 4
1, 4
1, 1
1, 3
1, 5
1, 2
0, 4
3, 1
1, 2
3, 3
1, 1
2, 6
1, 1
2, 1
1, 7
1, 2
0, 5
1, 2
1, 2
5, 3
4, 3
0, 3
1, 3
4, 4
2, 2
1, 6
2, 2
1, 2
2, 2
2, 2
2, 2
1, 3
1, 3
1, 1
2, 3
3, 2
3, 4
1, 4
3, 4
2, 5
1, 3
1, 7
1, 5
4, 7
5, 3
3, 7
3, 4
0, 5
1, 3
3, 3
2, 2
3, 3
0, 3
2, 1
2, 3
1, 0
1, 0
1, 2
0, 1
1, 0
3, 1
1, 2
1, 3
1, 2
3, 2
1, 2
3, 3
4, 5
2, 2
2, 0
1, 3
1, 3
4, 2
1, 0
1, 2
0, 2
0, 4
3, 1
1, 2
2, 1
1, 1
0, 1
3, 2
0, 1
3, 2
1, 2
0, 1
0, 1
1, 4
2, 4
0, 2
0, 0
0, 2
2, 0
4, 0
4, 0
2, 2
1, 2
0, 1
0, 0
1, 3
0, 0
0, 0
1, 0
2, 0
1, 2
2, 1
1, 2
2, 2
0, 1
1, 1
0, 1
0, 0
0, 1
0, 1
1, 0
0, 1
0, 0
0, 1
2, 1
0, 1
0, 0
1, 1
0, 1
0, 0
1, 0
0, 2
1, 1
0, 0
1, 0
0, 1
0, 2
0, 1
0, 0
0, 0
0, 1
0, 2
0, 2
0, 0
1, 3
0, 0
0, 1
2, 1
1, 2
0, 0
0, 0
0, 0
0, 0
2, 2
0, 0
0, 3
1, 0
0, 0
0, 1
2, 0
1, 0
0, 0
0, 1
1, 1
0, 0
2, 0
0, 0
1, 1
3, 0
0, 2
0, 0
0, 2
1, 1
2, 0
3, 0
0, 3
1, 1
0, 0
0, 1
1, 0
0, 0
0, 0
0, 0
0, 0
1, 0
1, 1
1, 1
0, 1
0, 1
1, 1
0, 0
1, 1
0, 1
0, 0
1, 0
1, 1
0, 0
1, 0
0, 0
1, 0
0, 0
0, 0
1, 1
1, 0
0, 0
1, 0
1, 0
0, 0
0, 0
1, 2
0, 0
0, 0
1, 0
1, 0
1, 1
0, 0
0, 0
0, 1
0, 0
0, 1
1, 2
1, 0
0, 1
0, 0
0, 0
0, 0
1, 0
0, 0
0, 0
0, 2
0, 1
1, 0
0, 0
0, 0
1, 1
0, 0
0, 0
2, 1
0, 0
0, 0
0, 0
0, 0
0, 0
0, 0
1, 0
0, 1
0, 1
1, 1
0, 0
0, 1
2, 0
0, 1
0, 0
0, 0
0, 0
0, 1
0, 0
1, 1
0, 0
0, 1
1, 1
0, 0
0, 0
0, 0
0, 1
0, 0
0, 1
0, 0
0, 0
0, 0
0, 1
0, 1
1, 0
1, 0
0, 0
0, 0
0, 0
0, 0
0, 0
0, 0
0, 0
0, 1
0, 0
1, 0
1, 1
0, 0
0, 1
0, 1
0, 1
1, 0
0, 0
1, 2
0, 0
0, 1
1, 1
0, 0
0, 0
1, 0
0, 0
0, 0
0, 0
0, 0
0, 0
0, 0
0, 0
1, 0
1, 0
0, 1
0, 1
0, 0
0, 0
0, 2
0, 0
0, 1
1, 0
0, 1
0, 0
0, 1
1, 0
0, 0
0, 1
0, 0
0, 0
0, 0
0, 0
0, 1
0, 0
0, 1
0, 0
2, 0
0, 1
0, 0
0, 0
0, 0
0, 1
0, 0
1, 0
0, 1
1, 0
0, 0
0, 0
0, 0
0, 0
0, 0
1, 0
0, 1
0, 0
0, 0
0, 0
1, 0
0, 0
1, 0
2, 0
1, 0
0, 0
0, 0
0, 0
1, 0
0, 0
0, 0
0, 0
0, 0
0, 1
0, 0
0, 0
0, 0
0, 0
0, 0
0, 0
0, 0
0, 0
0, 0
0, 0
0, 0
0, 0
0, 0
0, 0
0, 0
0, 0
0, 0
0, 1
0, 0
1, 0
0, 0
1, 1
0, 0
0, 0
0, 0
0, 0
0, 0
0, 0
0, 0
0, 0
0, 0
0, 0
0, 0
0, 0
0, 0
0, 0
0, 0
0, 0
1, 0
0, 0
0, 0
0, 0
0, 1
0, 0
0, 0
0, 0
0, 0
0, 0
0, 0
0, 0
0, 0
0, 1
0, 0
0, 0
0, 0
0, 0
0, 0
0, 0
0, 0
0, 0
0, 0
0, 0
0, 0
0, 0
0, 0
0, 0
0, 0
0, 0
0, 0
0, 0
0, 0
0, 0
0, 0
0, 0
0, 0
0, 0
0, 0
0, 0
0, 0
0, 0
0, 0
0, 0
0, 0
0, 1
0, 0
0, 0
0, 0
0, 0
0, 0
0, 0
0, 0
0, 0
0, 0
0, 0
0, 0
0, 0
0, 0
0, 0
1, 0
0, 0
0, 0
0, 0
0, 0
0, 0
0, 0
0, 0
0, 0
0, 0
0, 0
0, 0
0, 0
0, 0
0, 0
0, 0
0, 0
0, 0
0, 0
0, 0
0, 0
0, 0
0, 0
0, 0
0, 0
0, 0
0, 0
0, 0
0, 0
0, 0
0, 0
0, 0
0, 0
0, 0
0, 0
0, 0
0, 0
0, 0
0, 0
0, 1
0, 0
0, 0
0, 0
0, 0
0, 0
0, 0
0, 0
0, 0
0, 0
0, 0
0, 0
0, 0
1, 0
0, 0
0, 0
0, 0
0, 0
0, 0
0, 0
0, 0
0, 0
0, 0
0, 0
0, 0
0, 0
0, 0
0, 0
0, 0
0, 0
0, 0
0, 0
0, 0
0, 0
0, 0
0, 0
0, 0
0, 0
0, 0
0, 0
0, 0
0, 0
0, 0
0, 0
0, 0
0, 0
0, 0
0, 0
0, 0
0, 0
0, 0
0, 0
0, 0
0, 0
0, 0
0, 0
0, 0
0, 0
0, 0
0, 0
0, 0
0, 0
0, 0
0, 0
0, 0
0, 0
0, 0
0, 0
0, 0
0, 0
0, 0
0, 0
0, 0
0, 0
0, 0
0, 0
0, 0
0, 0
0, 0
0, 0
0, 0
0, 0
0, 0
0, 0
0, 0
0, 0
0, 0
0, 0
0, 0
0, 0
0, 0
0, 0
0, 0
0, 0
0, 0
0, 0
0, 0
0, 0
0, 0
0, 0
0, 0
0, 0
0, 0
0, 0
0, 0
0, 0
0, 0
0, 0
0, 0
0, 0
0, 0
0, 0
0, 0
0, 0
0, 0
0, 0
0, 0
0, 0
0, 0
0, 0
0, 0
0, 0
0, 0
0, 0
0, 0
0, 0
0, 0
0, 0
0, 0
0, 0
0, 0
0, 0
0, 0
0, 0
0, 0
0, 0
0, 0
0, 0
0, 0
0, 0
0, 0
0, 0
0, 0
0, 0
0, 0
0, 0
0, 0
0, 0
0, 0
0, 0
0, 0
0, 0
0, 0
0, 0
0, 0
0, 0
0, 0
0, 0
0, 0
0, 0
0, 0
0, 0
0, 0
0, 0
0, 0
0, 0
0, 0
0, 0
0, 0
0, 0
0, 0
0, 0
0, 0
0, 0
0, 0
0, 0
0, 0
0, 0
0, 0
0, 0
0, 0
0, 0
0, 0
0, 0
0, 0
0, 0
0, 0
0, 0
0, 0
0, 0
0, 0
0, 0
0, 0
0, 0
0, 0
0, 0
0, 0
0, 0
0, 0
0, 0
0, 0
0, 0
0, 0
0, 0
0, 0
0, 0
0, 0
0, 0
0, 0
0, 0
0, 0
0, 0
0, 0
0, 0
0, 0
0, 0
0, 0
0, 0
0, 0
0, 0
0, 0
0, 0
0, 0
0, 0
0, 0
0, 0
0, 0
0, 0
0, 0
0, 0
0, 0
0, 0
0, 0
0, 0
0, 0
0, 0
0, 0
0, 0
0, 0
0, 0
0, 0
0, 0
0, 0
0, 0
0, 0
0, 0
0, 0
0, 0
0, 0
0, 0
0, 0
0, 0
0, 0
0, 0
0, 0
0, 0
0, 0
0, 0
0, 0
0, 0
0, 0
0, 0
0, 0
0, 0
0, 0
0, 0
0, 0
0, 0
0, 0
0, 0
0, 0
0, 0
0, 0
0, 0
0, 0
0, 0
0, 0
0, 0
0, 0
0, 0
0, 0
0, 0
0, 0
0, 0
0, 0
0, 0
0, 0
0, 0
0, 0
0, 0
0, 0
0, 0
0, 0
0, 0
0, 0
0, 0
0, 0
0, 0
0, 0
0, 0
0, 0
0, 0
0, 0
0, 0
0, 0
0, 0
0, 0
0, 0
0, 0
0, 0
0, 0
0, 0
0, 0
0, 0
0, 0
0, 0
0, 0
0, 0
0, 0
0, 0
0, 0
0, 0
0, 0
0, 0
0, 0
0, 0
0, 0
0, 0
0, 0
0, 0
0, 0
0, 0
0, 0
0, 0
0, 0
0, 0
0, 0
0, 0
0, 0
0, 0
0, 0
0, 0
0, 0
0, 0
0, 0
0, 0
0, 0
0, 0
0, 0
0, 0
0, 0
0, 0
0, 0
0, 0
0, 0
0, 0
0, 0
0, 0
0, 0
0, 0
0, 0
0, 0
0, 0
0, 0
0, 0
0, 0
0, 0
0, 0
0, 0
0, 0
0, 0
#ENDOFDATA     end of spectrum data