File: host_upload/06-09-2024/ps_0852/dump3/ps__0852shot_2567.msa
#FORMAT      : EMSA/MAS spectral data file
#VERSION     : TC202v2.0 PIXL
#TITLE       : N/A
#DATE        :       Date in the format DD-MMM-YYYY, for example 07-JUL-2010
#TIME        :             The time of day at which the spectrum was recorded, in 24-hour format
#OWNER       : PIXL Flight Model       (PIXL will use this to indicate which instrument took the data.)
#NPOINTS     : 4096     Number of data points in the spectrum (This can be zero for configuration only files)
#NCOLUMNS    : 2     Number of data columns in the spectrum (This can be zero for configuration only files)
#XUNITS      : eV
#YUNITS      : COUNTS
#DATATYPE    : YY
#XPERCHAN    : 7.862, 7.881   eV per channel (separate by commas if more than one detector)
#OFFSET      : 18.5, -22.4         eV of first channel  (separate by commas if more than one detector
#SIGNALTYPE  : XRF
#YP_TEMP     : 2.3
#LIVETIME    : 8.56082, 8.54171   seconds (separate by commas if more than one detector)
#REALTIME    : 10, 10.0   seconds (separate by commas if more than one detector)
#SPECTRUM    : start of spectrum data
0, 0
0, 0
0, 0
0, 0
0, 0
0, 0
0, 0
0, 0
0, 0
0, 0
0, 0
0, 0
0, 0
0, 0
0, 0
0, 0
0, 0
0, 0
0, 0
0, 0
0, 0
0, 0
0, 0
0, 0
0, 0
0, 0
0, 0
0, 0
0, 0
0, 1
0, 0
0, 0
0, 0
0, 1
0, 0
1, 0
1, 1
1, 0
0, 0
2, 1
4, 3
0, 0
0, 0
0, 0
0, 1
0, 2
1, 0
6, 2
10, 4
18, 9
32, 28
40, 33
45, 60
74, 81
95, 80
69, 75
50, 56
41, 50
32, 24
5, 11
10, 7
12, 6
11, 5
19, 9
9, 17
14, 13
9, 7
12, 8
30, 26
43, 50
84, 109
190, 151
290, 265
359, 364
415, 449
455, 450
425, 325
296, 309
206, 200
125, 116
72, 56
37, 29
19, 15
6, 7
7, 2
6, 3
4, 1
3, 1
0, 1
1, 0
1, 1
1, 1
3, 0
1, 1
3, 3
2, 3
5, 3
8, 6
8, 3
5, 9
3, 3
2, 2
2, 4
3, 3
2, 2
2, 2
3, 3
4, 5
6, 6
12, 3
21, 6
34, 13
53, 22
53, 23
66, 20
84, 32
75, 23
71, 22
55, 12
52, 29
38, 16
21, 7
21, 16
27, 15
19, 16
15, 15
16, 15
9, 9
9, 3
11, 5
8, 2
6, 3
6, 4
6, 1
2, 0
0, 4
2, 4
3, 3
6, 3
1, 7
4, 6
5, 8
7, 6
1, 1
4, 2
8, 4
5, 2
1, 3
2, 1
2, 3
6, 3
7, 7
10, 9
9, 12
16, 17
20, 21
25, 20
17, 24
29, 23
29, 17
13, 21
15, 9
9, 11
4, 5
2, 1
3, 4
4, 3
4, 1
4, 4
3, 6
5, 5
4, 8
5, 4
12, 2
9, 6
7, 5
11, 2
3, 5
13, 2
15, 0
18, 0
16, 3
30, 3
37, 2
44, 2
62, 6
45, 2
30, 7
28, 2
26, 3
22, 5
16, 4
10, 4
10, 9
12, 10
16, 13
9, 16
14, 16
18, 18
13, 14
12, 11
13, 7
8, 8
6, 15
5, 13
4, 7
5, 9
4, 2
6, 2
5, 8
4, 8
3, 6
3, 11
5, 10
8, 20
4, 18
5, 19
6, 21
3, 23
5, 32
2, 17
9, 18
8, 19
11, 11
7, 17
9, 17
17, 20
11, 20
8, 33
8, 38
15, 45
14, 39
12, 35
28, 37
14, 29
17, 23
21, 16
22, 18
29, 10
40, 10
28, 10
45, 4
45, 12
43, 7
49, 7
65, 21
89, 24
84, 43
76, 42
90, 72
98, 50
101, 65
82, 57
41, 42
44, 47
40, 29
27, 18
19, 19
17, 14
16, 19
17, 20
26, 27
48, 46
75, 126
132, 181
293, 325
477, 550
732, 915
1138, 1356
1472, 1797
1925, 2105
2136, 2471
2346, 2422
2396, 2233
2113, 1953
1720, 1460
1198, 1038
882, 644
532, 404
349, 248
167, 151
88, 66
57, 35
26, 20
19, 15
11, 15
16, 20
19, 15
16, 17
25, 35
19, 38
29, 48
44, 70
68, 114
106, 131
138, 182
222, 229
258, 278
323, 302
353, 332
375, 321
344, 310
326, 267
260, 228
175, 179
117, 108
93, 67
74, 51
32, 38
20, 12
6, 13
6, 10
6, 10
16, 8
7, 3
11, 12
15, 9
13, 16
7, 7
7, 13
14, 13
11, 6
9, 8
6, 3
8, 4
2, 4
1, 4
8, 2
3, 5
2, 6
1, 4
1, 3
5, 4
3, 1
6, 4
6, 1
3, 5
4, 4
1, 3
5, 6
2, 3
3, 12
4, 2
3, 6
3, 3
6, 5
5, 3
8, 6
9, 10
10, 5
17, 2
13, 10
5, 3
8, 6
13, 7
7, 6
14, 10
4, 8
10, 8
8, 17
6, 13
10, 19
3, 17
4, 13
10, 11
9, 14
15, 6
10, 4
14, 5
8, 6
13, 6
11, 7
14, 3
9, 8
7, 9
5, 12
7, 19
4, 16
1, 14
4, 10
4, 8
1, 8
2, 4
5, 9
3, 7
1, 9
3, 6
3, 0
6, 1
2, 1
6, 2
4, 3
1, 2
2, 1
3, 1
4, 3
2, 7
1, 4
4, 4
2, 2
3, 2
5, 5
6, 3
3, 0
3, 1
4, 5
2, 7
1, 6
3, 4
3, 5
3, 4
6, 5
3, 5
5, 3
6, 1
6, 2
8, 5
9, 4
5, 3
12, 2
13, 5
20, 4
14, 2
14, 11
18, 2
10, 3
9, 8
9, 5
9, 8
5, 10
5, 11
6, 14
6, 13
4, 21
11, 21
6, 15
5, 11
4, 12
2, 1
3, 9
1, 9
4, 6
1, 1
3, 7
2, 2
2, 5
4, 3
2, 3
1, 3
3, 4
3, 4
2, 1
3, 3
3, 4
1, 6
2, 1
4, 1
2, 1
5, 2
3, 3
5, 2
2, 2
3, 1
0, 2
3, 2
1, 2
2, 3
1, 5
0, 1
1, 4
4, 6
4, 2
7, 2
4, 1
4, 0
2, 3
6, 0
5, 3
5, 4
1, 4
7, 1
6, 2
0, 2
2, 2
6, 1
4, 1
3, 0
2, 2
2, 1
3, 1
0, 1
2, 3
2, 2
2, 2
1, 1
2, 5
2, 1
0, 2
2, 1
6, 0
5, 1
1, 2
2, 5
3, 3
0, 7
0, 2
1, 3
2, 2
3, 2
2, 2
2, 6
1, 0
2, 2
1, 2
1, 2
4, 0
1, 4
3, 2
1, 3
5, 2
2, 2
2, 1
5, 1
2, 4
1, 1
4, 1
3, 1
2, 3
0, 6
1, 1
2, 0
3, 2
2, 2
1, 3
2, 2
2, 2
2, 1
3, 3
5, 8
2, 3
2, 2
9, 5
5, 7
2, 3
3, 7
5, 1
3, 2
5, 2
5, 7
0, 1
3, 1
3, 1
6, 0
4, 0
2, 1
5, 0
1, 0
3, 2
1, 0
2, 0
3, 5
1, 3
1, 1
1, 0
1, 3
3, 0
0, 1
2, 3
0, 3
1, 1
4, 1
2, 2
2, 1
2, 1
0, 0
1, 2
0, 1
1, 1
1, 1
0, 1
2, 0
3, 0
0, 1
1, 0
1, 0
1, 0
0, 1
1, 1
0, 0
0, 1
1, 0
2, 1
0, 0
0, 2
0, 1
0, 1
1, 0
1, 0
0, 1
0, 1
0, 0
3, 0
2, 0
0, 1
0, 1
0, 0
2, 2
2, 0
2, 1
2, 0
2, 1
0, 1
1, 1
0, 2
1, 1
0, 1
1, 1
0, 0
0, 2
0, 2
0, 0
0, 0
0, 2
0, 0
1, 0
0, 0
0, 0
3, 0
0, 0
1, 1
3, 0
0, 0
0, 1
1, 0
2, 0
3, 0
1, 0
2, 0
1, 1
0, 3
0, 0
2, 0
0, 1
0, 1
0, 2
1, 1
0, 0
1, 0
0, 1
2, 0
1, 0
0, 0
0, 0
0, 0
0, 0
1, 1
1, 0
0, 1
1, 0
0, 0
1, 0
1, 0
0, 0
1, 1
0, 1
0, 2
2, 1
1, 0
1, 0
0, 2
2, 0
2, 1
1, 0
1, 1
0, 1
1, 0
0, 0
1, 0
1, 1
2, 0
0, 0
0, 0
0, 0
0, 0
0, 2
0, 1
0, 0
0, 2
0, 1
1, 1
1, 0
1, 0
0, 0
1, 1
0, 1
1, 0
0, 0
1, 0
0, 0
0, 0
0, 1
0, 1
0, 0
0, 0
1, 2
0, 0
0, 0
0, 2
1, 0
0, 0
0, 1
0, 1
0, 0
0, 1
3, 1
0, 0
1, 0
1, 1
0, 1
0, 1
2, 1
0, 0
0, 1
1, 1
0, 0
0, 0
0, 0
0, 1
0, 0
1, 0
1, 0
1, 1
0, 0
0, 0
0, 1
1, 0
0, 0
0, 1
0, 0
0, 0
0, 0
0, 0
0, 0
1, 1
0, 0
0, 0
0, 1
0, 1
0, 1
0, 0
0, 0
0, 0
0, 0
0, 1
0, 0
0, 1
0, 0
0, 0
0, 0
0, 0
0, 0
0, 0
0, 0
1, 1
0, 0
0, 0
0, 0
0, 1
0, 0
0, 0
1, 1
0, 0
0, 0
1, 0
1, 1
0, 0
0, 0
1, 0
0, 0
0, 0
0, 0
0, 0
1, 0
0, 0
0, 0
1, 0
3, 0
1, 0
0, 0
0, 0
0, 1
1, 0
0, 0
0, 0
0, 0
0, 1
0, 0
0, 0
0, 0
2, 0
0, 0
0, 0
0, 0
0, 0
0, 1
0, 0
0, 1
0, 0
0, 1
1, 0
1, 0
1, 0
0, 0
0, 1
0, 0
0, 0
0, 1
0, 1
0, 0
0, 0
0, 0
0, 0
0, 0
0, 0
0, 1
0, 0
1, 0
0, 0
0, 0
0, 0
0, 0
0, 0
0, 0
0, 0
0, 0
0, 0
0, 0
0, 0
0, 0
0, 0
0, 0
2, 0
0, 1
0, 1
1, 0
0, 1
0, 0
0, 0
0, 1
0, 0
0, 0
0, 1
1, 0
1, 0
0, 1
0, 0
0, 0
1, 0
0, 1
0, 0
0, 0
0, 0
0, 0
0, 0
0, 1
0, 0
0, 0
0, 0
0, 0
0, 0
0, 0
0, 0
0, 0
0, 0
0, 0
0, 0
0, 0
0, 0
0, 0
0, 0
0, 0
0, 0
0, 0
0, 0
0, 0
0, 0
0, 0
0, 0
0, 0
0, 0
0, 0
0, 0
0, 1
0, 0
0, 0
0, 0
0, 0
0, 0
0, 1
0, 0
0, 0
0, 0
0, 0
0, 0
0, 0
0, 0
0, 0
0, 0
0, 0
0, 0
0, 0
0, 0
0, 0
0, 0
0, 0
0, 0
0, 1
0, 0
0, 0
0, 0
0, 0
0, 0
0, 0
0, 0
0, 0
0, 0
0, 0
0, 0
0, 0
1, 0
0, 0
0, 0
0, 0
0, 0
0, 0
0, 0
0, 0
0, 0
0, 0
0, 0
0, 0
0, 0
0, 0
0, 0
0, 1
0, 0
0, 0
0, 0
0, 0
0, 0
0, 0
0, 0
0, 0
0, 0
0, 0
0, 0
0, 1
0, 0
0, 0
0, 0
0, 0
0, 0
0, 0
0, 0
0, 0
0, 1
0, 0
0, 0
0, 0
0, 0
0, 0
0, 0
0, 0
0, 0
0, 0
0, 0
0, 0
0, 0
0, 0
0, 0
0, 0
0, 0
0, 0
0, 0
0, 0
0, 0
0, 0
0, 0
0, 0
0, 0
0, 0
0, 0
0, 0
0, 0
0, 0
0, 0
0, 0
0, 0
0, 0
0, 0
0, 0
0, 1
0, 0
0, 0
0, 0
0, 0
0, 0
0, 0
0, 0
0, 0
0, 0
0, 0
0, 0
0, 0
0, 0
0, 0
0, 0
0, 0
0, 0
0, 0
0, 0
0, 0
0, 0
0, 0
0, 0
0, 0
0, 0
0, 0
0, 0
0, 0
0, 0
0, 0
0, 0
0, 0
0, 0
0, 0
0, 0
0, 0
0, 0
0, 0
0, 0
0, 0
0, 0
0, 0
0, 0
0, 0
0, 0
0, 0
0, 0
0, 0
0, 0
0, 0
0, 0
0, 0
0, 0
0, 0
0, 0
0, 0
0, 0
0, 0
0, 0
0, 0
0, 0
0, 0
0, 0
0, 0
0, 0
0, 0
0, 0
0, 0
0, 0
0, 0
0, 0
0, 0
0, 0
0, 0
0, 0
0, 0
0, 0
0, 0
0, 0
0, 0
0, 0
0, 0
0, 0
0, 0
0, 0
0, 0
0, 0
0, 0
0, 0
0, 0
0, 0
0, 0
0, 0
0, 0
0, 0
0, 0
0, 0
0, 0
0, 0
0, 0
0, 0
0, 0
0, 0
0, 0
0, 0
0, 0
0, 0
0, 0
0, 0
0, 0
0, 0
0, 0
0, 0
0, 0
0, 0
0, 0
0, 0
0, 0
0, 0
0, 0
0, 0
0, 0
0, 0
0, 0
0, 0
0, 0
0, 0
0, 0
0, 0
0, 0
0, 0
0, 0
0, 0
0, 0
0, 0
0, 0
0, 0
0, 0
0, 0
0, 0
0, 0
0, 0
0, 0
0, 0
0, 0
0, 0
0, 0
0, 0
0, 0
0, 0
0, 0
0, 0
0, 0
0, 0
0, 0
0, 0
0, 0
0, 0
0, 0
0, 0
0, 0
0, 0
0, 0
0, 0
0, 0
0, 0
0, 0
0, 0
0, 0
0, 0
0, 0
0, 0
0, 0
0, 0
0, 0
0, 0
0, 0
0, 0
0, 0
0, 0
0, 0
0, 0
0, 0
0, 0
0, 0
0, 0
0, 0
0, 0
0, 0
0, 0
0, 0
0, 0
0, 0
0, 0
0, 0
0, 0
0, 0
0, 0
0, 0
0, 0
0, 0
0, 0
0, 0
0, 0
0, 0
0, 0
0, 0
0, 0
0, 0
0, 0
0, 0
0, 0
0, 0
0, 0
0, 0
0, 0
0, 0
0, 0
0, 0
0, 0
0, 0
0, 0
0, 0
0, 0
0, 0
0, 0
0, 0
0, 0
0, 0
0, 0
0, 0
0, 0
0, 0
0, 0
0, 0
0, 0
0, 0
0, 0
0, 0
0, 0
0, 0
0, 0
0, 0
0, 0
0, 0
0, 0
0, 0
0, 0
0, 0
0, 0
0, 0
0, 0
0, 0
0, 0
0, 0
0, 0
0, 0
0, 0
0, 0
0, 0
0, 0
0, 0
0, 0
0, 0
0, 0
0, 0
0, 0
0, 0
0, 0
0, 0
0, 0
0, 0
0, 0
0, 0
0, 0
0, 0
0, 0
0, 0
0, 0
0, 0
0, 0
0, 0
0, 0
0, 0
0, 0
0, 0
0, 0
0, 0
0, 0
0, 0
0, 0
0, 0
0, 0
0, 0
0, 0
0, 0
0, 0
0, 0
0, 0
0, 0
0, 0
0, 0
0, 0
0, 0
0, 0
0, 0
0, 0
0, 0
0, 0
0, 0
0, 0
0, 0
0, 0
0, 0
0, 0
0, 0
0, 0
0, 0
0, 0
0, 0
0, 0
0, 0
0, 0
0, 0
0, 0
0, 0
0, 0
0, 0
0, 0
0, 0
0, 0
0, 0
0, 0
0, 0
0, 0
0, 0
0, 0
0, 0
0, 0
0, 0
0, 0
0, 0
0, 0
0, 0
0, 0
0, 0
0, 0
0, 0
0, 0
0, 0
0, 0
0, 0
0, 0
0, 0
0, 0
0, 0
0, 0
0, 0
0, 0
0, 0
0, 0
0, 0
0, 0
0, 0
#ENDOFDATA     end of spectrum data