File: host_upload/06-09-2024/ps_0852/dump3/ps__0852shot_2003.msa
#FORMAT      : EMSA/MAS spectral data file
#VERSION     : TC202v2.0 PIXL
#TITLE       : N/A
#DATE        :       Date in the format DD-MMM-YYYY, for example 07-JUL-2010
#TIME        :             The time of day at which the spectrum was recorded, in 24-hour format
#OWNER       : PIXL Flight Model       (PIXL will use this to indicate which instrument took the data.)
#NPOINTS     : 4096     Number of data points in the spectrum (This can be zero for configuration only files)
#NCOLUMNS    : 2     Number of data columns in the spectrum (This can be zero for configuration only files)
#XUNITS      : eV
#YUNITS      : COUNTS
#DATATYPE    : YY
#XPERCHAN    : 7.862, 7.881   eV per channel (separate by commas if more than one detector)
#OFFSET      : 18.5, -22.4         eV of first channel  (separate by commas if more than one detector
#SIGNALTYPE  : XRF
#YP_TEMP     : 2.235
#LIVETIME    : 8.55289, 8.53437   seconds (separate by commas if more than one detector)
#REALTIME    : 10, 10.0   seconds (separate by commas if more than one detector)
#SPECTRUM    : start of spectrum data
0, 0
0, 0
0, 0
0, 0
0, 0
0, 0
0, 0
0, 0
0, 0
0, 0
0, 0
0, 0
0, 0
0, 0
0, 0
0, 0
0, 0
0, 0
0, 0
0, 0
0, 0
0, 0
0, 0
0, 0
0, 0
0, 0
0, 0
0, 0
0, 0
0, 0
0, 0
0, 0
0, 0
1, 0
0, 0
1, 0
0, 1
0, 0
1, 0
0, 2
2, 1
2, 1
0, 1
1, 0
1, 2
1, 1
1, 2
6, 4
9, 4
14, 12
32, 28
36, 43
45, 59
73, 70
72, 96
78, 74
59, 59
52, 47
35, 22
14, 15
6, 9
8, 9
1, 1
1, 5
1, 0
3, 5
4, 5
8, 17
25, 19
56, 42
84, 113
142, 187
259, 242
334, 361
366, 404
406, 394
366, 383
283, 261
217, 183
138, 117
78, 47
32, 36
22, 21
8, 11
4, 4
3, 1
3, 2
2, 0
1, 3
1, 1
0, 2
0, 2
1, 0
3, 1
4, 4
3, 4
3, 10
6, 6
7, 5
8, 8
6, 2
5, 9
5, 9
2, 8
5, 1
3, 6
7, 4
8, 8
6, 10
12, 9
21, 21
28, 25
21, 34
38, 38
35, 34
34, 50
40, 49
33, 30
22, 36
17, 21
22, 18
23, 23
23, 14
19, 15
23, 21
10, 21
12, 6
9, 5
12, 2
6, 7
2, 8
2, 7
2, 8
3, 4
1, 3
3, 6
3, 7
1, 6
4, 5
1, 5
1, 6
2, 2
1, 10
4, 4
1, 2
5, 1
5, 4
1, 4
2, 3
2, 5
4, 3
5, 9
10, 10
14, 16
10, 36
31, 35
24, 37
30, 40
36, 40
30, 39
18, 24
18, 22
15, 13
11, 9
5, 8
10, 5
18, 4
12, 5
11, 10
12, 3
12, 9
10, 6
14, 11
7, 10
11, 9
6, 6
6, 7
2, 11
5, 7
2, 14
3, 12
7, 10
4, 18
4, 7
3, 8
3, 8
4, 8
3, 6
11, 6
7, 6
7, 9
10, 8
9, 10
14, 7
8, 13
9, 14
12, 23
16, 11
12, 18
15, 9
11, 20
11, 39
14, 34
7, 43
9, 54
8, 65
5, 59
4, 64
6, 63
5, 49
11, 32
10, 39
18, 13
31, 11
23, 10
20, 5
33, 7
17, 8
15, 2
21, 9
13, 5
4, 5
3, 6
15, 11
12, 9
17, 11
20, 10
21, 14
17, 16
14, 22
15, 17
20, 21
15, 18
17, 14
19, 14
10, 17
11, 12
8, 14
15, 12
9, 12
5, 5
11, 10
13, 10
18, 19
14, 16
22, 36
20, 34
37, 44
42, 50
49, 51
41, 68
55, 62
58, 64
55, 63
45, 59
27, 33
43, 24
22, 18
20, 23
31, 14
33, 22
47, 30
68, 49
95, 112
182, 224
282, 337
480, 602
736, 936
1084, 1303
1491, 1801
1833, 2070
2132, 2314
2242, 2361
2232, 2220
1944, 1922
1634, 1435
1337, 1113
868, 766
575, 487
354, 234
201, 124
112, 72
59, 39
32, 16
14, 14
15, 13
16, 11
17, 19
22, 17
17, 23
29, 20
25, 35
36, 48
62, 91
87, 133
141, 150
204, 233
237, 278
304, 321
316, 353
308, 371
310, 308
265, 287
233, 235
171, 138
127, 95
101, 63
50, 37
33, 26
22, 12
10, 6
11, 9
13, 10
7, 7
7, 12
14, 14
13, 10
10, 11
14, 13
12, 15
12, 9
12, 12
13, 5
9, 6
2, 8
6, 3
5, 7
7, 6
4, 2
3, 3
3, 6
2, 2
8, 3
4, 6
5, 5
4, 2
5, 3
7, 8
2, 6
2, 13
7, 11
4, 18
3, 17
6, 15
4, 15
7, 16
2, 19
1, 16
2, 11
8, 8
13, 5
6, 4
6, 4
4, 7
9, 7
11, 3
2, 5
5, 5
6, 9
13, 0
14, 1
13, 1
7, 4
17, 5
7, 4
3, 4
8, 4
5, 4
4, 1
3, 4
4, 4
3, 4
4, 5
3, 4
2, 3
3, 4
6, 4
4, 3
6, 3
2, 1
3, 7
3, 3
5, 1
2, 5
2, 2
3, 2
3, 4
2, 6
3, 2
7, 4
2, 1
9, 4
5, 4
3, 1
6, 4
4, 5
4, 3
4, 7
2, 2
2, 5
4, 5
4, 3
3, 4
4, 6
2, 2
4, 2
3, 4
3, 7
6, 9
5, 0
2, 1
2, 8
1, 1
4, 5
6, 10
2, 4
2, 5
6, 3
5, 3
5, 6
5, 2
2, 1
2, 0
2, 1
3, 4
4, 2
5, 2
4, 0
7, 3
9, 2
5, 7
4, 5
1, 1
6, 4
3, 6
6, 3
1, 8
3, 9
1, 12
2, 12
2, 18
1, 22
2, 17
4, 18
4, 13
3, 12
4, 12
3, 5
1, 2
3, 4
1, 2
1, 3
4, 2
4, 2
0, 8
4, 3
3, 0
4, 1
4, 2
2, 2
2, 4
2, 0
6, 4
3, 3
2, 1
4, 4
4, 5
0, 2
1, 6
1, 1
4, 2
1, 4
2, 3
2, 1
1, 5
2, 3
3, 4
2, 4
0, 2
1, 4
0, 2
1, 2
3, 1
2, 2
2, 2
4, 1
1, 2
2, 2
0, 1
3, 6
1, 1
1, 1
3, 2
0, 3
2, 3
0, 0
5, 2
0, 2
1, 3
3, 2
1, 2
0, 2
1, 4
5, 2
2, 2
1, 1
4, 4
0, 2
0, 5
0, 4
5, 6
4, 2
2, 2
1, 3
1, 3
0, 4
2, 2
0, 3
2, 3
2, 3
2, 3
0, 0
0, 2
1, 1
3, 2
2, 1
2, 2
1, 2
0, 1
0, 1
2, 2
3, 3
3, 2
1, 2
3, 4
0, 3
3, 3
1, 3
1, 7
6, 4
4, 5
1, 8
3, 2
4, 3
1, 2
6, 2
1, 1
2, 2
1, 4
1, 3
2, 0
3, 7
3, 1
1, 2
0, 2
4, 1
2, 1
2, 1
2, 1
3, 0
3, 2
1, 1
1, 2
1, 3
1, 2
1, 0
2, 1
3, 1
3, 2
1, 2
2, 1
0, 0
1, 3
5, 1
3, 2
2, 2
2, 3
0, 0
2, 2
0, 1
0, 0
0, 1
1, 1
2, 1
1, 1
0, 0
1, 0
0, 1
4, 1
2, 2
1, 0
1, 3
4, 1
1, 0
1, 1
1, 1
0, 2
1, 2
1, 2
1, 1
3, 1
1, 1
1, 0
0, 3
3, 4
0, 2
3, 2
0, 0
0, 1
0, 1
0, 1
1, 1
0, 1
3, 3
1, 2
1, 4
2, 1
1, 2
1, 2
0, 1
0, 2
1, 0
1, 3
2, 2
0, 1
0, 1
1, 0
2, 1
0, 0
2, 0
1, 0
2, 1
0, 0
0, 0
1, 0
0, 2
1, 3
0, 0
0, 1
1, 0
1, 0
2, 1
0, 1
0, 0
1, 0
2, 2
1, 0
1, 0
0, 0
1, 2
0, 0
1, 0
0, 1
0, 0
0, 0
0, 0
1, 1
0, 0
2, 1
0, 1
0, 0
0, 1
0, 1
2, 1
0, 0
0, 0
1, 0
0, 0
1, 0
1, 1
0, 2
0, 0
0, 1
0, 1
1, 0
0, 1
0, 0
0, 0
1, 1
0, 2
0, 1
1, 1
0, 0
0, 0
0, 1
0, 0
0, 0
0, 1
0, 0
2, 1
0, 0
0, 0
0, 0
0, 1
0, 0
0, 1
2, 0
0, 1
0, 0
1, 0
0, 1
0, 0
0, 0
0, 0
0, 0
0, 1
0, 1
1, 0
0, 0
0, 1
0, 0
1, 0
1, 0
0, 1
0, 1
2, 2
0, 0
0, 1
0, 0
0, 0
0, 0
0, 0
0, 0
2, 0
1, 0
0, 0
0, 0
0, 1
1, 1
0, 0
0, 0
0, 0
0, 0
0, 0
0, 0
1, 0
0, 0
0, 0
0, 0
0, 0
0, 0
0, 0
1, 0
0, 0
0, 0
0, 0
0, 1
1, 1
1, 0
0, 1
0, 0
0, 1
1, 0
1, 1
0, 0
0, 0
0, 1
0, 1
0, 0
0, 0
0, 1
2, 0
0, 2
0, 0
1, 0
0, 0
0, 0
0, 0
1, 0
0, 0
1, 0
1, 0
0, 0
1, 1
0, 0
1, 2
0, 0
0, 1
2, 0
0, 1
2, 0
0, 0
0, 1
0, 1
0, 0
0, 1
0, 0
1, 1
0, 0
0, 0
0, 0
1, 1
0, 1
0, 0
1, 1
1, 0
0, 0
0, 0
0, 0
0, 0
0, 0
1, 0
0, 1
0, 0
1, 1
0, 0
0, 1
0, 1
0, 0
0, 0
0, 1
0, 0
0, 1
0, 1
0, 0
0, 0
0, 0
0, 0
0, 1
0, 0
0, 0
0, 0
0, 0
0, 0
0, 0
0, 0
0, 0
0, 0
0, 0
0, 0
1, 0
0, 0
0, 0
0, 0
0, 0
0, 1
0, 0
0, 0
1, 0
0, 0
0, 0
0, 0
0, 0
0, 0
0, 0
0, 0
1, 0
0, 0
0, 0
0, 0
0, 1
0, 0
0, 0
0, 0
0, 0
0, 0
0, 0
0, 0
0, 0
0, 0
0, 1
1, 1
0, 0
0, 0
0, 0
0, 1
0, 0
0, 0
0, 0
0, 1
0, 1
0, 0
0, 0
0, 0
0, 0
0, 0
0, 0
0, 0
0, 0
0, 0
0, 0
0, 1
0, 1
0, 1
0, 0
0, 0
0, 0
0, 0
0, 0
0, 0
0, 0
0, 0
0, 0
0, 1
0, 0
0, 0
0, 0
0, 0
0, 0
0, 0
0, 0
0, 0
0, 0
0, 0
0, 0
0, 0
0, 0
0, 0
0, 0
0, 0
1, 0
0, 0
0, 0
0, 0
0, 0
0, 0
0, 0
0, 0
0, 0
0, 0
0, 0
0, 0
0, 0
0, 0
0, 0
0, 0
0, 0
0, 0
0, 0
0, 0
0, 0
0, 0
0, 0
0, 0
0, 0
0, 0
0, 0
0, 0
0, 0
0, 0
0, 0
0, 0
0, 0
0, 0
0, 0
0, 0
0, 0
0, 0
0, 0
0, 0
0, 0
1, 0
0, 0
0, 0
0, 0
0, 0
0, 0
1, 0
0, 0
0, 0
0, 0
0, 0
0, 0
0, 0
0, 0
0, 0
0, 0
0, 0
0, 0
0, 0
0, 0
0, 0
0, 0
0, 0
0, 0
0, 0
0, 0
0, 0
0, 0
0, 0
0, 0
0, 0
0, 0
0, 0
0, 0
0, 0
0, 0
0, 0
0, 0
0, 0
0, 0
0, 0
0, 0
0, 0
0, 0
0, 0
0, 0
0, 0
0, 0
0, 0
0, 0
0, 0
0, 0
0, 0
0, 0
0, 0
0, 0
0, 0
0, 0
0, 0
0, 0
0, 0
0, 0
0, 0
0, 0
0, 0
0, 0
0, 0
0, 0
0, 0
0, 0
0, 0
0, 0
0, 0
0, 0
0, 0
0, 0
0, 0
0, 0
0, 0
0, 0
0, 0
0, 0
0, 0
0, 0
0, 0
0, 0
0, 0
0, 0
0, 0
0, 0
0, 0
0, 0
0, 0
0, 0
0, 0
0, 0
0, 0
0, 0
0, 0
0, 0
0, 0
0, 0
0, 0
0, 0
0, 0
0, 0
0, 0
0, 0
0, 0
0, 0
0, 0
0, 0
0, 0
0, 0
0, 0
0, 0
0, 0
0, 0
0, 0
0, 0
0, 0
0, 0
0, 0
0, 0
0, 0
0, 0
0, 0
0, 0
0, 0
0, 0
0, 0
0, 0
0, 0
0, 0
0, 0
0, 0
0, 0
0, 0
0, 0
0, 0
0, 0
0, 0
0, 0
0, 0
0, 0
0, 0
0, 0
0, 0
0, 0
0, 0
0, 0
0, 0
0, 0
0, 0
0, 0
0, 0
0, 0
0, 0
0, 0
0, 0
0, 0
0, 0
0, 0
0, 0
0, 0
0, 0
0, 0
0, 0
0, 0
0, 0
0, 0
0, 0
0, 0
0, 0
0, 0
0, 0
0, 0
0, 0
0, 0
0, 0
0, 0
0, 0
0, 0
0, 0
0, 0
0, 0
0, 0
0, 0
0, 0
0, 0
0, 0
0, 0
0, 0
0, 0
0, 0
0, 0
0, 0
0, 0
0, 0
0, 0
0, 0
0, 0
0, 0
0, 0
0, 0
0, 0
0, 0
0, 0
0, 0
0, 0
0, 0
0, 0
0, 0
0, 0
0, 0
0, 0
0, 0
0, 0
0, 0
0, 0
0, 0
0, 0
0, 0
0, 0
0, 0
0, 0
0, 0
0, 0
0, 0
0, 0
0, 0
0, 0
0, 0
0, 0
0, 0
0, 0
0, 0
0, 0
0, 0
0, 0
0, 0
0, 0
0, 0
0, 0
0, 0
0, 0
0, 0
0, 0
0, 0
0, 0
0, 0
0, 0
0, 0
0, 0
0, 0
0, 0
0, 0
0, 0
0, 0
0, 0
0, 0
0, 0
0, 0
0, 0
0, 0
0, 0
0, 0
0, 0
0, 0
0, 0
0, 0
0, 0
0, 0
0, 0
0, 0
0, 0
0, 0
0, 0
0, 0
0, 0
0, 0
0, 0
0, 0
0, 0
0, 0
0, 0
0, 0
0, 0
0, 0
0, 0
0, 0
0, 0
0, 0
0, 0
0, 0
0, 0
0, 0
0, 0
0, 0
0, 0
0, 0
0, 0
0, 0
0, 0
0, 0
0, 0
0, 0
0, 0
0, 0
0, 0
0, 0
0, 0
0, 0
0, 0
0, 0
0, 0
0, 0
0, 0
0, 0
0, 0
0, 0
0, 0
0, 0
0, 0
0, 0
0, 0
0, 0
0, 0
0, 0
0, 0
0, 0
0, 0
0, 0
0, 0
0, 0
0, 0
0, 0
0, 0
0, 0
0, 0
0, 0
0, 0
0, 0
0, 0
0, 0
0, 0
0, 0
0, 0
0, 0
0, 0
0, 0
0, 0
0, 0
0, 0
0, 0
0, 0
0, 0
0, 0
0, 0
0, 0
0, 0
0, 0
0, 0
0, 0
0, 0
0, 0
0, 0
0, 0
0, 0
0, 0
0, 0
0, 0
0, 0
0, 0
0, 0
0, 0
0, 0
0, 0
0, 0
0, 0
0, 0
0, 0
0, 0
0, 0
0, 0
0, 0
0, 0
0, 0
0, 0
0, 0
0, 0
0, 0
0, 0
0, 0
0, 0
0, 0
0, 0
0, 0
0, 0
0, 0
0, 0
0, 0
0, 0
0, 0
0, 0
0, 0
0, 0
0, 0
0, 0
0, 0
0, 0
0, 0
0, 0
0, 0
0, 0
#ENDOFDATA     end of spectrum data