File: host_upload/06-09-2024/ps_0852/dump3/ps__0852shot_2090.msa
#FORMAT      : EMSA/MAS spectral data file
#VERSION     : TC202v2.0 PIXL
#TITLE       : N/A
#DATE        :       Date in the format DD-MMM-YYYY, for example 07-JUL-2010
#TIME        :             The time of day at which the spectrum was recorded, in 24-hour format
#OWNER       : PIXL Flight Model       (PIXL will use this to indicate which instrument took the data.)
#NPOINTS     : 4096     Number of data points in the spectrum (This can be zero for configuration only files)
#NCOLUMNS    : 2     Number of data columns in the spectrum (This can be zero for configuration only files)
#XUNITS      : eV
#YUNITS      : COUNTS
#DATATYPE    : YY
#XPERCHAN    : 7.862, 7.881   eV per channel (separate by commas if more than one detector)
#OFFSET      : 18.5, -22.4         eV of first channel  (separate by commas if more than one detector
#SIGNALTYPE  : XRF
#YP_TEMP     : 2.235
#LIVETIME    : 8.59962, 8.58154   seconds (separate by commas if more than one detector)
#REALTIME    : 10, 10.0   seconds (separate by commas if more than one detector)
#SPECTRUM    : start of spectrum data
0, 0
0, 0
0, 0
0, 0
0, 0
0, 0
0, 0
0, 0
0, 0
0, 0
0, 0
0, 0
0, 0
0, 0
0, 0
0, 0
0, 0
0, 0
0, 0
0, 0
0, 0
0, 0
0, 0
0, 0
0, 0
0, 0
0, 0
0, 0
0, 0
0, 0
0, 0
0, 0
0, 0
0, 0
0, 0
1, 1
0, 0
0, 0
0, 1
0, 0
0, 0
2, 4
1, 0
1, 5
1, 4
2, 0
2, 3
3, 2
3, 3
12, 11
22, 31
41, 23
47, 50
74, 63
84, 75
73, 64
54, 52
33, 33
25, 26
19, 14
8, 5
1, 7
3, 3
1, 4
2, 2
7, 3
4, 8
9, 7
26, 15
51, 49
85, 116
179, 184
306, 236
404, 393
419, 424
424, 429
379, 355
335, 253
229, 188
136, 111
60, 62
42, 31
24, 13
12, 11
10, 1
2, 4
2, 2
3, 0
1, 0
2, 0
0, 1
0, 1
4, 3
3, 0
2, 0
3, 4
2, 2
5, 7
1, 4
5, 8
3, 6
4, 3
8, 7
1, 3
1, 3
5, 5
4, 7
4, 3
8, 7
11, 10
14, 14
18, 23
21, 40
31, 33
42, 38
36, 49
40, 32
39, 44
34, 36
23, 30
25, 26
19, 20
18, 20
14, 8
20, 13
20, 17
19, 12
11, 10
14, 5
4, 8
5, 4
8, 8
1, 7
3, 4
0, 4
4, 6
2, 7
4, 8
1, 4
4, 8
3, 3
1, 4
2, 6
3, 3
1, 3
1, 1
2, 3
3, 3
6, 3
3, 6
4, 10
7, 9
8, 14
21, 29
18, 29
29, 33
43, 35
34, 56
37, 44
39, 36
33, 33
17, 29
14, 19
8, 9
5, 4
3, 6
3, 7
3, 7
7, 8
8, 11
4, 9
7, 13
4, 13
5, 5
7, 9
13, 10
2, 6
5, 6
5, 6
8, 5
5, 9
5, 4
5, 8
2, 6
4, 5
2, 7
4, 5
3, 7
2, 5
7, 13
7, 3
5, 8
12, 9
13, 13
12, 14
10, 14
9, 16
17, 21
14, 19
12, 25
28, 31
14, 29
13, 37
13, 39
13, 47
6, 67
12, 59
6, 64
8, 45
8, 38
12, 33
7, 14
11, 8
11, 10
9, 9
9, 11
10, 5
7, 3
7, 7
8, 5
6, 9
15, 7
4, 1
10, 5
17, 6
13, 7
17, 9
29, 13
28, 18
34, 17
45, 12
33, 16
41, 17
28, 15
21, 13
21, 15
20, 6
15, 10
8, 12
14, 4
9, 7
10, 10
6, 9
14, 10
14, 13
21, 34
28, 28
33, 36
43, 60
62, 66
53, 69
65, 66
65, 57
57, 40
44, 45
41, 34
25, 15
19, 26
25, 15
13, 17
22, 26
32, 32
66, 66
89, 107
169, 231
294, 381
510, 590
758, 887
1143, 1304
1575, 1707
2051, 2079
2186, 2272
2340, 2351
2300, 2114
2042, 1817
1697, 1410
1310, 1062
973, 638
660, 453
371, 257
212, 144
110, 76
60, 34
42, 17
23, 11
28, 20
22, 8
23, 20
29, 10
29, 21
40, 24
35, 33
54, 66
65, 87
114, 114
141, 185
208, 182
246, 265
351, 293
318, 354
363, 347
352, 336
305, 265
247, 185
192, 158
137, 107
111, 70
65, 24
25, 11
15, 18
8, 8
8, 8
7, 6
5, 7
13, 9
15, 14
10, 16
12, 18
14, 10
9, 8
14, 14
12, 7
9, 10
1, 9
8, 3
6, 7
4, 2
9, 8
4, 3
2, 3
2, 3
3, 1
2, 4
3, 7
3, 6
1, 5
3, 10
5, 6
4, 8
4, 11
4, 13
4, 15
3, 17
4, 17
7, 12
5, 6
1, 7
12, 10
7, 6
8, 9
5, 6
6, 6
6, 4
5, 4
9, 3
5, 1
6, 4
8, 8
13, 0
12, 5
7, 4
13, 3
5, 7
7, 5
7, 1
9, 7
8, 7
4, 2
10, 5
7, 1
5, 2
6, 2
3, 4
4, 0
5, 7
2, 4
5, 4
5, 4
3, 3
2, 2
5, 8
4, 3
4, 2
2, 2
3, 2
1, 6
2, 7
1, 3
2, 2
3, 5
2, 1
4, 7
5, 7
3, 1
8, 4
1, 2
7, 2
3, 3
2, 3
3, 2
4, 6
5, 2
5, 2
12, 5
5, 3
3, 5
5, 5
3, 4
9, 1
4, 4
6, 8
6, 1
3, 3
8, 1
4, 0
2, 3
1, 4
3, 2
3, 3
6, 1
8, 3
1, 2
4, 3
0, 6
7, 5
2, 3
5, 2
1, 3
3, 3
6, 4
3, 4
1, 4
4, 4
3, 3
3, 5
2, 6
3, 6
3, 9
2, 7
4, 7
3, 12
2, 10
2, 15
3, 11
5, 8
1, 6
1, 8
3, 6
2, 4
4, 8
3, 4
3, 7
5, 3
2, 3
2, 1
4, 1
1, 2
6, 1
1, 1
6, 6
4, 6
2, 4
4, 0
2, 1
5, 3
2, 2
3, 2
4, 3
1, 3
2, 3
2, 0
2, 1
3, 1
2, 1
2, 1
3, 3
1, 2
5, 1
1, 2
1, 4
6, 2
0, 3
2, 4
1, 5
2, 0
1, 2
3, 2
3, 0
1, 0
1, 4
7, 0
2, 1
0, 1
5, 2
4, 2
2, 1
3, 3
3, 0
2, 1
1, 2
3, 4
0, 1
4, 2
1, 2
4, 2
0, 3
1, 4
2, 3
1, 3
1, 1
2, 2
3, 4
1, 4
2, 5
3, 2
2, 2
2, 2
2, 1
0, 4
1, 0
3, 2
2, 2
0, 2
1, 0
3, 1
4, 1
1, 1
0, 0
3, 3
3, 0
1, 1
2, 2
0, 4
1, 1
6, 2
4, 1
3, 1
0, 4
4, 5
4, 5
1, 6
2, 3
7, 3
2, 3
4, 0
1, 7
7, 5
1, 1
4, 3
2, 4
2, 1
2, 1
2, 2
0, 0
1, 0
1, 1
4, 1
4, 2
1, 3
2, 2
1, 2
1, 2
0, 1
0, 1
1, 3
5, 0
1, 1
2, 1
2, 1
1, 3
2, 4
2, 5
2, 0
1, 0
3, 0
1, 1
0, 1
2, 1
0, 0
2, 1
1, 0
0, 4
1, 2
4, 1
1, 2
0, 0
1, 1
2, 1
1, 1
0, 0
0, 0
1, 0
0, 1
1, 1
3, 4
1, 3
0, 1
0, 1
0, 4
0, 0
0, 0
4, 1
0, 0
4, 0
1, 1
0, 1
0, 1
0, 2
2, 1
0, 1
1, 2
0, 0
4, 1
2, 1
0, 3
1, 0
0, 0
1, 1
1, 0
0, 1
1, 1
1, 0
3, 0
0, 1
0, 0
0, 1
1, 0
0, 2
1, 1
2, 0
1, 1
2, 0
0, 0
2, 1
1, 1
0, 1
0, 2
2, 0
0, 1
3, 0
0, 0
3, 0
0, 1
0, 0
0, 0
0, 0
0, 1
1, 2
2, 1
0, 3
0, 0
0, 0
1, 2
1, 1
1, 1
2, 1
0, 0
1, 1
1, 0
1, 0
0, 0
0, 0
0, 0
0, 0
1, 0
1, 1
0, 0
0, 1
1, 0
1, 0
0, 0
0, 1
0, 1
2, 0
1, 0
0, 2
1, 0
0, 0
0, 0
1, 1
2, 0
1, 0
1, 1
0, 0
0, 1
0, 2
0, 0
0, 1
2, 0
1, 0
0, 0
0, 2
0, 0
0, 0
0, 0
1, 1
0, 0
1, 1
0, 1
0, 0
0, 0
0, 3
1, 1
1, 0
0, 0
1, 0
0, 0
1, 1
1, 1
0, 0
0, 0
1, 2
0, 0
1, 0
1, 0
0, 0
0, 0
0, 1
0, 0
1, 0
0, 1
0, 0
0, 0
0, 0
2, 0
0, 1
0, 0
0, 1
0, 1
0, 1
0, 1
0, 0
1, 0
0, 0
0, 0
1, 0
0, 0
0, 1
0, 0
1, 0
0, 0
0, 0
0, 0
0, 2
0, 0
1, 1
0, 0
0, 0
0, 0
0, 0
0, 0
0, 0
0, 0
1, 1
0, 0
0, 0
0, 2
0, 0
0, 0
0, 0
0, 0
0, 2
1, 0
1, 0
0, 0
0, 0
0, 0
1, 0
1, 0
0, 0
0, 1
1, 0
0, 0
0, 1
1, 0
0, 0
2, 0
0, 0
0, 0
0, 0
0, 1
0, 0
0, 0
1, 0
0, 0
0, 1
0, 0
0, 0
0, 0
1, 1
0, 0
1, 1
0, 0
0, 0
0, 0
0, 1
0, 0
0, 0
0, 0
0, 0
0, 1
0, 1
0, 0
0, 0
0, 0
0, 0
0, 0
0, 0
0, 0
0, 0
1, 0
0, 0
1, 0
0, 0
0, 0
1, 1
0, 0
0, 0
0, 0
0, 0
1, 0
0, 0
0, 0
0, 0
0, 0
0, 0
0, 0
0, 0
0, 0
1, 0
0, 0
0, 1
0, 0
0, 0
0, 0
0, 0
0, 0
0, 0
0, 0
0, 0
1, 0
0, 0
0, 0
0, 0
0, 0
0, 0
0, 0
0, 0
0, 2
0, 1
0, 0
0, 0
0, 0
0, 0
0, 0
0, 1
0, 2
0, 0
0, 1
0, 0
1, 0
0, 0
0, 0
0, 0
0, 0
0, 0
0, 0
0, 0
0, 0
0, 0
0, 0
0, 0
1, 0
0, 0
0, 0
0, 0
0, 0
0, 0
0, 0
0, 0
0, 0
0, 0
0, 0
1, 0
0, 0
0, 0
0, 0
0, 0
0, 0
0, 0
0, 0
0, 0
0, 0
0, 0
0, 0
0, 0
0, 0
0, 0
0, 0
0, 0
0, 0
0, 0
0, 0
0, 0
0, 0
0, 0
0, 0
0, 0
0, 0
0, 0
1, 0
0, 0
0, 0
0, 0
0, 0
1, 0
0, 1
0, 0
1, 0
0, 0
0, 0
0, 0
0, 1
0, 0
0, 0
0, 0
0, 0
0, 0
0, 0
0, 0
0, 0
0, 0
0, 0
0, 0
0, 1
0, 0
0, 0
0, 0
0, 0
0, 0
0, 0
0, 0
0, 0
0, 0
0, 0
0, 0
0, 0
0, 0
0, 0
0, 0
0, 0
0, 0
0, 0
0, 0
0, 0
0, 0
0, 0
0, 0
0, 0
0, 0
0, 0
0, 0
0, 1
0, 0
0, 0
0, 0
0, 0
0, 0
0, 0
0, 0
0, 0
0, 0
0, 0
0, 0
0, 0
0, 0
0, 0
0, 0
0, 0
0, 0
0, 0
0, 0
0, 0
0, 0
0, 0
0, 0
0, 0
0, 0
0, 0
0, 0
0, 0
0, 0
0, 0
0, 0
0, 0
0, 0
0, 0
0, 0
0, 0
0, 0
0, 0
0, 0
0, 0
0, 0
0, 0
0, 0
0, 0
0, 0
0, 0
0, 0
0, 0
0, 0
0, 0
0, 0
0, 0
0, 0
0, 0
0, 0
0, 0
0, 0
0, 0
0, 0
0, 0
0, 0
0, 0
0, 0
0, 0
0, 0
0, 0
0, 0
0, 0
0, 0
0, 0
0, 0
0, 0
0, 0
0, 0
0, 0
0, 0
0, 0
0, 0
0, 0
0, 0
0, 0
0, 0
0, 0
0, 0
0, 0
1, 0
0, 0
0, 0
0, 0
0, 0
0, 0
0, 0
0, 0
0, 0
0, 0
0, 0
0, 0
0, 0
0, 0
0, 0
0, 0
0, 0
0, 0
0, 0
0, 0
0, 0
0, 0
0, 0
0, 0
0, 0
0, 0
0, 0
0, 0
0, 0
0, 0
0, 0
0, 0
0, 0
0, 0
0, 0
0, 0
0, 0
0, 0
0, 0
0, 0
0, 0
0, 0
0, 0
0, 0
0, 0
0, 0
0, 0
0, 0
0, 0
0, 0
0, 0
0, 0
0, 0
0, 0
0, 0
0, 0
0, 0
0, 0
0, 0
0, 0
0, 0
0, 0
0, 0
0, 0
0, 0
0, 0
1, 0
0, 0
0, 0
0, 0
0, 0
0, 0
0, 0
0, 0
0, 0
0, 0
0, 0
0, 0
0, 0
0, 0
0, 0
0, 0
0, 0
0, 0
0, 0
0, 0
0, 0
0, 0
0, 0
0, 0
0, 0
0, 0
0, 0
0, 0
0, 0
0, 0
0, 0
0, 0
0, 0
0, 0
0, 0
0, 0
0, 0
0, 0
0, 0
0, 0
0, 0
0, 0
0, 0
0, 0
0, 0
0, 0
0, 0
0, 0
0, 0
0, 0
0, 0
0, 0
0, 0
0, 0
0, 0
0, 0
0, 0
0, 0
0, 0
0, 0
0, 0
0, 0
0, 0
0, 0
0, 0
0, 0
0, 0
0, 0
0, 0
0, 0
0, 0
0, 0
0, 0
0, 0
0, 0
0, 0
0, 0
0, 0
0, 0
0, 0
0, 0
0, 0
0, 0
0, 0
0, 0
0, 0
0, 0
0, 0
0, 0
0, 0
0, 0
0, 0
0, 0
0, 0
0, 0
0, 0
0, 0
0, 0
0, 0
0, 0
0, 0
0, 0
0, 0
0, 0
0, 0
0, 0
0, 0
0, 0
0, 0
0, 0
0, 0
0, 0
0, 0
0, 0
0, 0
0, 0
0, 0
0, 0
0, 0
0, 0
0, 0
0, 0
0, 0
0, 0
0, 0
0, 0
0, 0
0, 0
0, 0
0, 0
0, 0
0, 0
0, 0
0, 0
0, 0
0, 0
0, 0
0, 0
0, 0
0, 0
0, 0
0, 0
0, 0
0, 0
0, 0
0, 0
0, 0
0, 0
0, 0
0, 0
0, 0
0, 0
0, 0
0, 0
0, 0
0, 0
0, 0
0, 0
0, 0
0, 0
0, 0
0, 0
0, 0
0, 0
0, 0
0, 0
0, 0
0, 0
0, 0
0, 0
0, 0
0, 0
0, 0
0, 0
0, 0
0, 0
0, 0
0, 0
0, 0
0, 0
0, 0
0, 0
0, 0
0, 0
0, 0
0, 0
0, 0
0, 0
0, 0
0, 0
0, 0
0, 0
0, 0
0, 0
0, 0
0, 0
0, 0
0, 0
0, 0
0, 0
0, 0
0, 0
0, 0
0, 0
0, 0
0, 0
0, 0
0, 0
0, 0
0, 0
0, 0
0, 0
0, 0
0, 0
0, 0
0, 0
0, 0
0, 0
0, 0
0, 0
0, 0
0, 0
0, 0
0, 0
0, 0
0, 0
0, 0
0, 0
0, 0
0, 0
0, 0
0, 0
0, 0
0, 0
0, 0
0, 0
0, 0
0, 0
0, 0
0, 0
0, 0
0, 0
0, 0
0, 0
0, 0
0, 0
0, 0
0, 0
0, 0
0, 0
0, 0
0, 0
#ENDOFDATA     end of spectrum data