File: host_upload/06-09-2024/ps_0852/dump3/ps__0852shot_2161.msa
#FORMAT      : EMSA/MAS spectral data file
#VERSION     : TC202v2.0 PIXL
#TITLE       : N/A
#DATE        :       Date in the format DD-MMM-YYYY, for example 07-JUL-2010
#TIME        :             The time of day at which the spectrum was recorded, in 24-hour format
#OWNER       : PIXL Flight Model       (PIXL will use this to indicate which instrument took the data.)
#NPOINTS     : 4096     Number of data points in the spectrum (This can be zero for configuration only files)
#NCOLUMNS    : 2     Number of data columns in the spectrum (This can be zero for configuration only files)
#XUNITS      : eV
#YUNITS      : COUNTS
#DATATYPE    : YY
#XPERCHAN    : 7.862, 7.881   eV per channel (separate by commas if more than one detector)
#OFFSET      : 18.5, -22.4         eV of first channel  (separate by commas if more than one detector
#SIGNALTYPE  : XRF
#YP_TEMP     : 2.332
#LIVETIME    : 8.56087, 8.55625   seconds (separate by commas if more than one detector)
#REALTIME    : 10, 10.0   seconds (separate by commas if more than one detector)
#SPECTRUM    : start of spectrum data
0, 0
0, 0
0, 0
0, 0
0, 0
0, 0
0, 0
0, 0
0, 0
0, 0
0, 0
0, 0
0, 0
0, 0
0, 0
0, 0
0, 0
0, 0
0, 0
0, 0
0, 0
0, 0
0, 0
0, 0
0, 0
0, 0
0, 0
1, 1
0, 0
0, 0
0, 0
1, 0
0, 0
0, 0
1, 0
2, 2
1, 1
1, 1
4, 0
3, 1
4, 5
3, 3
0, 4
2, 2
3, 3
2, 1
3, 2
0, 2
5, 5
13, 9
12, 16
25, 31
39, 43
35, 56
45, 54
43, 40
39, 40
29, 24
21, 21
10, 12
8, 10
11, 9
6, 5
4, 3
6, 6
4, 6
7, 3
11, 11
10, 10
35, 41
48, 71
103, 133
173, 200
240, 274
223, 298
237, 303
244, 245
185, 197
145, 137
79, 89
42, 50
18, 23
12, 17
6, 9
7, 5
7, 3
5, 6
1, 5
3, 4
3, 3
7, 6
15, 13
20, 26
56, 44
77, 105
165, 203
249, 254
301, 353
336, 378
377, 386
336, 331
273, 269
174, 203
150, 148
84, 96
65, 51
51, 60
47, 40
55, 50
56, 48
83, 71
101, 116
101, 133
105, 112
107, 100
103, 132
75, 80
80, 100
72, 73
72, 66
42, 47
36, 54
33, 28
35, 38
27, 28
15, 26
14, 22
28, 21
20, 17
11, 15
8, 9
9, 12
9, 4
6, 6
6, 2
4, 6
5, 7
5, 5
2, 9
6, 10
4, 11
5, 5
10, 7
3, 10
2, 5
5, 7
2, 6
2, 5
1, 2
4, 7
5, 6
12, 10
13, 10
10, 17
19, 19
27, 38
31, 29
42, 32
33, 42
29, 48
30, 29
19, 26
14, 10
7, 13
6, 9
5, 10
8, 4
6, 12
4, 10
7, 13
11, 11
4, 4
5, 7
7, 13
4, 8
10, 17
5, 15
4, 8
5, 3
4, 10
0, 8
7, 4
2, 8
3, 6
3, 7
2, 13
6, 5
8, 8
7, 11
6, 12
8, 7
5, 14
11, 12
12, 17
11, 15
15, 10
9, 18
16, 14
17, 16
11, 14
13, 16
17, 13
8, 18
6, 11
5, 9
16, 15
8, 7
5, 19
9, 18
9, 28
6, 29
3, 24
6, 20
5, 22
6, 17
9, 23
9, 13
7, 12
1, 12
7, 10
7, 11
13, 11
9, 14
9, 7
9, 13
8, 12
11, 9
9, 14
15, 16
25, 25
32, 29
36, 41
56, 40
37, 35
38, 38
49, 34
41, 25
28, 21
37, 17
24, 22
18, 10
17, 14
20, 19
13, 13
22, 23
19, 27
19, 34
34, 34
47, 56
58, 75
54, 77
67, 66
60, 67
42, 57
41, 32
39, 38
29, 28
18, 27
12, 21
11, 23
23, 16
31, 37
36, 61
97, 116
170, 203
254, 388
429, 607
692, 951
1111, 1394
1480, 1819
1866, 2254
2161, 2436
2433, 2532
2249, 2313
2037, 2096
1692, 1618
1253, 1142
869, 805
570, 512
357, 271
185, 164
91, 72
65, 43
35, 25
18, 19
13, 11
15, 18
10, 9
15, 13
20, 19
15, 22
24, 49
39, 71
64, 85
103, 132
152, 173
208, 256
258, 277
285, 364
320, 347
365, 350
345, 381
300, 274
221, 192
163, 156
138, 109
81, 65
56, 44
34, 21
14, 21
16, 9
12, 8
10, 1
11, 8
11, 10
8, 14
11, 9
18, 10
19, 13
29, 12
29, 18
41, 12
51, 5
47, 9
51, 4
41, 3
35, 8
28, 4
24, 5
22, 5
13, 2
8, 4
13, 5
5, 4
4, 7
7, 3
6, 4
10, 7
7, 3
14, 1
9, 2
10, 0
6, 2
8, 7
10, 2
4, 4
6, 4
4, 5
10, 8
8, 12
2, 2
3, 7
4, 8
3, 7
5, 6
5, 5
2, 7
3, 4
1, 6
3, 5
1, 4
7, 6
5, 3
3, 5
6, 3
1, 5
4, 3
5, 6
4, 7
4, 5
8, 5
4, 8
5, 4
2, 4
3, 1
6, 2
7, 4
6, 2
7, 7
4, 4
13, 0
7, 3
6, 8
6, 6
6, 4
1, 4
3, 9
5, 3
10, 3
3, 4
1, 0
6, 4
3, 9
8, 10
4, 7
10, 11
6, 4
1, 2
1, 8
3, 5
3, 8
3, 5
8, 7
5, 1
5, 2
5, 6
5, 7
7, 3
7, 5
4, 1
7, 5
3, 5
9, 7
6, 10
4, 6
5, 13
4, 11
2, 15
5, 13
3, 14
4, 15
3, 19
9, 18
4, 13
4, 13
4, 6
10, 6
9, 5
14, 3
12, 8
7, 4
8, 8
6, 5
5, 3
2, 3
3, 3
1, 4
1, 4
2, 4
5, 1
3, 4
3, 3
3, 4
4, 5
5, 5
2, 6
4, 2
2, 4
2, 3
3, 2
5, 3
1, 0
4, 2
2, 3
4, 4
2, 5
4, 7
2, 5
2, 5
4, 4
0, 4
2, 4
3, 3
4, 7
7, 4
7, 6
6, 1
14, 5
10, 0
6, 5
9, 3
14, 6
4, 5
2, 2
10, 4
4, 3
5, 2
2, 2
4, 0
4, 1
0, 4
2, 2
2, 1
1, 4
1, 0
2, 2
0, 0
0, 2
5, 3
2, 3
2, 4
2, 3
3, 2
1, 1
2, 1
1, 4
2, 2
2, 2
2, 0
0, 1
3, 3
3, 0
3, 2
1, 2
3, 2
5, 0
0, 3
1, 6
4, 2
1, 2
3, 3
1, 4
1, 2
3, 0
2, 1
5, 1
4, 1
2, 1
3, 0
4, 1
0, 1
1, 3
2, 1
3, 2
2, 1
2, 2
1, 2
0, 2
1, 5
1, 1
2, 2
0, 1
1, 0
2, 3
1, 3
2, 3
1, 4
1, 2
6, 3
2, 6
3, 4
1, 5
3, 3
4, 2
2, 5
0, 1
1, 4
8, 4
2, 2
3, 1
0, 0
0, 5
0, 2
1, 2
0, 2
3, 2
1, 0
3, 1
0, 1
2, 4
0, 2
0, 1
1, 0
1, 3
2, 2
1, 3
0, 1
3, 3
2, 1
2, 3
2, 5
3, 0
3, 4
1, 0
1, 1
1, 2
0, 2
3, 2
1, 1
1, 0
1, 3
1, 2
3, 2
0, 1
1, 0
0, 0
1, 2
0, 0
0, 2
2, 0
0, 3
4, 0
1, 3
4, 1
1, 1
0, 1
2, 5
1, 0
2, 1
0, 1
0, 3
0, 2
1, 0
1, 1
1, 1
2, 3
0, 3
2, 1
1, 1
1, 1
1, 0
1, 0
1, 1
1, 1
1, 1
0, 1
2, 2
1, 0
1, 0
0, 0
0, 0
1, 0
0, 1
1, 1
0, 2
0, 0
1, 0
0, 0
0, 1
1, 1
2, 1
0, 3
3, 1
1, 0
0, 0
0, 1
0, 2
0, 1
0, 1
0, 2
0, 0
2, 1
0, 0
0, 0
2, 0
2, 1
1, 0
1, 0
0, 0
0, 0
1, 1
1, 1
0, 1
2, 0
1, 0
0, 0
0, 0
0, 0
0, 1
0, 0
0, 0
0, 2
0, 0
0, 0
0, 0
1, 3
0, 0
0, 1
0, 0
1, 0
0, 2
1, 0
0, 0
2, 0
1, 0
0, 0
0, 1
1, 0
0, 1
1, 0
0, 0
1, 1
0, 1
0, 1
0, 1
1, 0
1, 0
0, 1
0, 0
0, 0
1, 0
1, 1
0, 1
0, 0
0, 1
0, 1
0, 0
0, 0
1, 0
0, 0
0, 2
0, 0
0, 0
0, 1
0, 0
0, 0
2, 1
0, 0
0, 0
0, 0
0, 0
1, 0
0, 0
0, 0
0, 0
0, 2
2, 1
0, 1
0, 0
0, 0
0, 0
0, 0
0, 0
0, 0
0, 1
0, 0
0, 1
0, 0
0, 0
0, 0
0, 1
0, 1
0, 0
0, 0
0, 1
0, 0
0, 0
1, 0
0, 1
1, 0
2, 0
2, 0
1, 1
0, 1
0, 0
0, 1
0, 0
0, 0
1, 0
0, 0
0, 0
1, 0
0, 2
0, 0
0, 0
0, 1
0, 0
0, 0
0, 0
0, 0
0, 0
0, 0
0, 0
2, 0
0, 1
0, 0
0, 3
0, 0
0, 0
1, 1
0, 0
1, 1
0, 0
1, 0
0, 0
0, 1
0, 0
0, 0
1, 0
2, 1
0, 2
0, 0
0, 0
1, 0
0, 0
0, 0
0, 0
0, 0
0, 0
1, 0
0, 0
0, 0
0, 0
0, 0
1, 1
1, 1
0, 0
0, 0
0, 0
0, 0
0, 0
0, 0
0, 0
1, 0
0, 0
0, 0
0, 0
0, 0
0, 0
0, 1
0, 0
0, 0
1, 1
1, 1
1, 1
0, 0
1, 0
0, 0
0, 0
0, 0
0, 0
0, 0
0, 0
0, 2
0, 0
0, 0
0, 0
0, 0
0, 0
0, 0
0, 0
0, 0
0, 0
0, 0
0, 0
0, 0
0, 0
0, 0
0, 0
0, 1
0, 0
0, 0
0, 0
0, 0
1, 0
0, 0
0, 0
0, 0
0, 2
0, 1
0, 1
0, 0
0, 0
0, 0
0, 0
0, 0
0, 3
0, 0
1, 0
0, 0
0, 1
0, 0
0, 0
0, 0
0, 0
0, 0
0, 0
1, 0
0, 0
0, 0
0, 0
0, 1
0, 0
0, 0
0, 0
1, 0
0, 0
0, 0
0, 0
0, 0
0, 0
0, 0
0, 0
1, 0
0, 0
0, 0
0, 0
0, 0
1, 0
0, 0
0, 0
1, 0
0, 1
0, 0
0, 0
0, 0
0, 0
0, 0
0, 0
0, 0
0, 0
0, 2
0, 1
0, 0
0, 0
0, 0
0, 0
1, 0
0, 0
0, 0
0, 0
0, 0
0, 0
0, 0
0, 1
0, 0
0, 0
0, 0
0, 0
0, 0
0, 0
0, 0
0, 0
0, 0
0, 0
1, 0
0, 0
0, 0
0, 0
0, 0
0, 0
0, 1
0, 0
0, 0
0, 0
0, 0
0, 0
0, 0
0, 0
0, 0
0, 0
0, 0
0, 0
0, 0
0, 1
0, 0
0, 0
0, 0
0, 0
0, 0
0, 0
0, 0
0, 0
0, 0
1, 0
0, 1
0, 1
0, 0
0, 0
0, 0
0, 0
0, 0
0, 0
1, 0
0, 0
0, 0
0, 0
0, 0
0, 0
0, 0
0, 0
0, 1
0, 0
0, 0
0, 0
0, 0
0, 0
0, 0
0, 0
0, 0
0, 0
0, 0
0, 0
0, 0
0, 0
0, 0
0, 0
0, 0
0, 0
0, 1
0, 0
0, 0
0, 0
0, 0
0, 0
0, 0
0, 0
0, 0
0, 0
0, 0
0, 0
0, 0
0, 0
0, 0
0, 0
0, 0
0, 0
0, 0
0, 0
0, 0
0, 0
0, 0
0, 0
0, 0
0, 0
0, 0
0, 0
0, 0
0, 0
0, 0
0, 0
0, 0
0, 0
0, 0
0, 0
0, 0
0, 0
0, 0
0, 0
0, 0
0, 0
0, 0
0, 0
0, 0
0, 0
0, 0
0, 0
0, 0
0, 0
0, 0
0, 0
0, 0
0, 0
0, 0
0, 0
0, 0
0, 0
0, 0
0, 0
0, 0
0, 0
0, 0
0, 0
0, 0
0, 0
0, 0
0, 0
0, 0
0, 0
0, 0
0, 0
0, 0
0, 0
0, 0
0, 0
0, 0
0, 0
0, 0
0, 0
0, 0
0, 0
0, 0
0, 0
0, 0
0, 0
0, 0
0, 0
0, 0
0, 0
0, 0
0, 0
0, 0
0, 0
0, 0
0, 0
0, 0
0, 0
0, 0
0, 0
0, 0
0, 0
0, 0
0, 0
0, 0
0, 0
0, 0
0, 0
0, 0
0, 0
0, 0
0, 0
0, 0
0, 0
0, 0
0, 0
0, 0
0, 0
0, 0
0, 0
0, 0
0, 0
0, 0
0, 0
0, 0
0, 0
0, 0
0, 0
0, 0
0, 0
0, 0
0, 0
0, 0
0, 0
0, 0
0, 0
0, 0
0, 0
0, 0
0, 0
0, 1
0, 0
0, 0
0, 0
0, 0
0, 0
0, 0
0, 0
0, 0
0, 0
0, 0
0, 0
0, 0
0, 0
0, 0
0, 0
0, 0
0, 0
0, 0
0, 0
0, 0
0, 0
0, 0
0, 0
0, 0
0, 0
0, 0
0, 0
0, 0
0, 0
0, 0
0, 0
0, 0
0, 0
0, 0
0, 0
0, 0
0, 0
0, 0
0, 0
0, 0
0, 0
0, 0
0, 0
0, 0
0, 0
0, 0
0, 0
0, 0
0, 0
0, 0
0, 0
0, 0
0, 0
0, 0
0, 0
0, 0
0, 0
0, 0
0, 0
0, 0
0, 0
0, 0
0, 0
0, 0
0, 0
0, 0
0, 0
0, 0
0, 0
0, 0
0, 0
0, 0
0, 0
0, 0
0, 0
0, 0
0, 0
0, 0
0, 0
0, 0
0, 0
0, 0
0, 0
0, 0
0, 0
0, 0
0, 0
0, 0
0, 0
0, 0
0, 0
0, 0
0, 0
0, 0
0, 0
0, 0
0, 0
0, 0
0, 0
0, 0
0, 0
0, 0
0, 0
0, 0
0, 0
0, 0
0, 0
0, 0
0, 0
0, 0
0, 0
0, 0
0, 0
0, 0
0, 0
0, 0
0, 0
0, 0
0, 0
0, 0
0, 0
0, 0
0, 0
0, 0
0, 0
0, 0
0, 0
0, 0
0, 0
0, 0
0, 0
0, 0
0, 0
0, 0
0, 0
0, 0
0, 0
0, 0
0, 0
0, 0
0, 0
0, 0
0, 0
0, 0
0, 0
0, 0
0, 0
0, 0
0, 0
0, 0
0, 0
0, 0
0, 0
0, 0
0, 0
0, 0
0, 0
0, 0
0, 0
0, 0
0, 0
0, 0
0, 0
0, 0
0, 0
0, 0
0, 0
0, 0
0, 0
0, 0
0, 0
0, 0
0, 0
0, 0
0, 0
0, 0
0, 0
0, 0
0, 0
0, 0
0, 0
0, 0
0, 0
0, 0
0, 0
0, 0
0, 0
0, 0
0, 0
0, 0
0, 0
0, 0
0, 0
0, 0
0, 0
0, 0
0, 0
0, 0
0, 0
0, 0
0, 0
0, 0
0, 0
0, 0
0, 0
0, 0
0, 0
0, 0
0, 0
0, 0
0, 0
0, 0
0, 0
0, 0
0, 0
0, 0
0, 0
0, 0
0, 0
0, 0
0, 0
0, 0
0, 0
0, 0
0, 0
0, 0
0, 0
0, 0
0, 0
0, 0
0, 0
0, 0
0, 0
0, 0
0, 0
0, 0
#ENDOFDATA     end of spectrum data