File: host_upload/06-09-2024/ps_0852/dump3/ps__0852shot_2399.msa
#FORMAT      : EMSA/MAS spectral data file
#VERSION     : TC202v2.0 PIXL
#TITLE       : N/A
#DATE        :       Date in the format DD-MMM-YYYY, for example 07-JUL-2010
#TIME        :             The time of day at which the spectrum was recorded, in 24-hour format
#OWNER       : PIXL Flight Model       (PIXL will use this to indicate which instrument took the data.)
#NPOINTS     : 4096     Number of data points in the spectrum (This can be zero for configuration only files)
#NCOLUMNS    : 2     Number of data columns in the spectrum (This can be zero for configuration only files)
#XUNITS      : eV
#YUNITS      : COUNTS
#DATATYPE    : YY
#XPERCHAN    : 7.862, 7.881   eV per channel (separate by commas if more than one detector)
#OFFSET      : 18.5, -22.4         eV of first channel  (separate by commas if more than one detector
#SIGNALTYPE  : XRF
#YP_TEMP     : 2.428
#LIVETIME    : 8.57316, 8.57173   seconds (separate by commas if more than one detector)
#REALTIME    : 10, 10.0   seconds (separate by commas if more than one detector)
#SPECTRUM    : start of spectrum data
0, 0
0, 0
0, 0
0, 0
0, 0
0, 0
0, 0
0, 0
0, 0
0, 0
0, 0
0, 0
0, 0
0, 0
0, 0
0, 0
0, 0
0, 0
0, 0
0, 0
0, 0
0, 0
0, 0
0, 0
0, 0
0, 0
0, 0
0, 0
0, 0
0, 0
0, 0
0, 0
0, 0
0, 2
0, 0
0, 6
0, 10
1, 18
1, 32
2, 30
0, 44
0, 69
0, 64
0, 46
2, 44
1, 27
2, 14
3, 15
5, 16
10, 17
30, 25
55, 49
60, 71
82, 85
82, 74
98, 83
71, 54
57, 50
28, 22
22, 16
10, 13
3, 7
4, 10
5, 9
4, 4
1, 2
7, 14
6, 14
28, 20
53, 52
99, 88
186, 174
281, 277
448, 350
449, 393
469, 459
384, 340
342, 258
229, 175
139, 109
85, 66
48, 27
24, 29
8, 15
6, 7
4, 5
2, 4
1, 6
2, 1
1, 4
1, 3
1, 8
0, 4
1, 2
3, 3
2, 1
5, 3
4, 3
5, 10
5, 5
10, 6
4, 5
2, 9
4, 9
3, 3
3, 23
4, 35
6, 120
1, 199
12, 377
12, 761
15, 1436
16, 2086
23, 2994
27, 3713
44, 3985
23, 3651
23, 2977
29, 2275
13, 1422
14, 890
16, 426
15, 199
8, 83
11, 39
15, 22
11, 12
8, 9
7, 8
4, 8
5, 4
2, 7
4, 5
6, 1
3, 2
5, 4
9, 0
11, 1
10, 2
4, 4
4, 3
4, 3
0, 0
4, 0
0, 0
3, 2
1, 0
4, 0
4, 4
2, 2
3, 2
8, 2
5, 5
7, 3
9, 7
9, 15
11, 7
12, 10
12, 10
11, 20
10, 10
7, 5
11, 5
12, 1
8, 2
8, 4
15, 1
25, 4
28, 4
41, 2
40, 4
42, 6
41, 7
32, 5
28, 9
8, 20
9, 30
5, 59
8, 63
3, 84
5, 93
1, 106
4, 90
5, 85
4, 65
1, 39
7, 38
4, 17
6, 21
5, 14
7, 13
7, 7
9, 10
12, 11
11, 7
14, 10
11, 13
5, 10
28, 10
29, 12
23, 10
37, 10
56, 7
54, 10
52, 11
74, 4
70, 3
56, 6
51, 7
42, 11
26, 5
17, 10
10, 12
8, 8
9, 9
9, 7
6, 6
7, 5
4, 6
4, 7
9, 6
4, 14
9, 19
12, 29
8, 38
11, 60
9, 65
12, 78
12, 83
13, 93
7, 74
17, 52
13, 43
15, 38
10, 25
13, 15
23, 13
13, 14
11, 4
20, 9
19, 3
16, 7
18, 9
14, 13
13, 19
30, 24
40, 33
30, 33
61, 50
52, 71
60, 74
72, 73
74, 47
54, 39
49, 40
28, 36
30, 19
23, 20
13, 12
15, 15
13, 20
32, 32
50, 48
70, 104
145, 169
297, 353
507, 598
802, 866
1267, 1281
1635, 1669
2143, 2147
2515, 2269
2623, 2343
2553, 2088
2328, 1751
1896, 1430
1431, 1026
982, 664
613, 407
409, 258
209, 119
102, 68
58, 42
27, 24
19, 16
11, 18
16, 18
17, 30
20, 31
18, 38
32, 52
27, 52
38, 84
68, 94
96, 124
172, 175
182, 229
281, 288
346, 330
380, 350
378, 339
384, 324
295, 262
255, 194
177, 165
130, 86
105, 69
54, 41
40, 21
19, 14
11, 5
10, 16
11, 10
11, 14
10, 18
13, 5
9, 15
9, 13
13, 17
10, 11
14, 20
13, 6
12, 10
10, 8
5, 10
3, 6
8, 5
6, 5
6, 1
2, 4
4, 4
5, 5
4, 13
5, 6
9, 13
5, 12
5, 27
10, 29
6, 38
13, 48
14, 57
19, 68
11, 48
15, 53
8, 47
8, 42
7, 29
8, 30
5, 21
6, 11
6, 14
7, 11
6, 11
3, 6
5, 8
6, 5
3, 3
1, 4
3, 3
2, 2
5, 7
4, 7
3, 6
2, 5
3, 9
0, 7
4, 6
3, 4
6, 6
4, 5
4, 4
4, 2
5, 3
7, 5
5, 3
4, 0
7, 5
6, 4
2, 2
8, 5
1, 6
3, 6
5, 8
4, 17
6, 11
3, 9
3, 6
2, 12
2, 7
4, 9
4, 11
6, 5
3, 7
3, 3
2, 4
3, 4
2, 3
2, 2
2, 5
5, 2
3, 14
4, 8
4, 5
7, 12
6, 8
3, 6
3, 9
1, 5
3, 3
4, 10
6, 0
5, 4
5, 4
4, 2
3, 3
3, 4
3, 5
3, 4
2, 5
3, 5
4, 1
2, 1
3, 4
5, 5
0, 2
3, 3
4, 5
3, 0
2, 4
5, 4
3, 4
3, 0
3, 2
6, 4
2, 7
6, 2
7, 0
5, 0
8, 1
9, 3
10, 4
14, 5
24, 5
33, 3
17, 5
15, 3
11, 6
14, 4
15, 3
9, 4
10, 4
4, 7
5, 2
5, 10
1, 10
3, 9
0, 9
5, 11
3, 10
2, 4
3, 4
2, 3
1, 4
2, 1
3, 4
2, 1
2, 0
2, 2
2, 4
2, 3
1, 4
1, 2
2, 2
3, 0
2, 1
1, 0
2, 2
2, 2
2, 2
0, 2
4, 2
5, 3
1, 1
2, 2
2, 4
6, 2
1, 2
2, 1
0, 3
2, 4
0, 6
1, 0
2, 5
1, 2
2, 4
3, 4
2, 0
4, 3
2, 4
1, 4
2, 5
3, 4
2, 2
4, 4
2, 4
2, 4
2, 3
3, 1
4, 5
4, 3
1, 5
6, 2
5, 3
3, 7
5, 5
4, 1
2, 0
5, 4
0, 7
0, 3
2, 2
4, 1
1, 2
2, 3
1, 4
1, 2
1, 1
3, 3
2, 4
2, 4
2, 1
4, 0
0, 3
3, 4
1, 0
3, 4
1, 3
5, 2
3, 1
3, 3
3, 4
1, 2
5, 3
2, 1
4, 5
6, 8
0, 3
3, 2
4, 3
2, 5
2, 2
3, 2
2, 2
1, 0
4, 1
1, 0
1, 2
3, 2
1, 2
3, 0
2, 2
1, 1
2, 3
1, 2
2, 4
2, 1
1, 3
2, 4
2, 3
0, 6
3, 3
2, 4
1, 3
1, 3
0, 3
2, 0
0, 0
3, 0
2, 2
2, 2
0, 1
1, 2
1, 2
1, 0
1, 0
2, 1
2, 1
1, 0
0, 1
3, 0
0, 1
1, 3
3, 0
0, 1
4, 1
2, 1
0, 2
1, 0
0, 0
1, 1
2, 1
0, 2
1, 1
0, 1
5, 0
2, 2
0, 2
1, 0
1, 2
3, 3
1, 0
2, 2
1, 1
4, 2
6, 1
0, 1
2, 1
3, 1
3, 0
1, 0
0, 0
0, 0
2, 1
0, 2
0, 0
0, 1
1, 0
0, 1
1, 2
0, 1
0, 1
0, 0
0, 2
1, 1
2, 0
1, 0
1, 0
0, 1
1, 0
1, 1
0, 1
2, 0
1, 2
0, 0
2, 0
1, 0
1, 1
0, 0
0, 1
1, 1
0, 2
0, 1
1, 1
1, 0
0, 1
2, 1
0, 0
1, 1
0, 1
0, 1
0, 1
0, 0
0, 0
2, 0
0, 0
2, 1
0, 1
0, 0
0, 0
1, 0
1, 1
0, 1
1, 2
0, 0
1, 0
2, 0
0, 1
0, 0
0, 0
2, 1
0, 2
0, 0
1, 0
0, 0
1, 1
2, 1
3, 2
0, 0
0, 0
0, 0
2, 0
1, 1
1, 0
0, 0
0, 1
0, 1
0, 1
0, 0
0, 0
0, 1
0, 1
1, 0
1, 0
0, 1
0, 0
0, 0
0, 0
0, 0
0, 0
2, 0
0, 1
0, 0
2, 1
1, 2
2, 0
1, 0
0, 1
0, 2
0, 0
0, 0
1, 2
1, 0
0, 0
2, 1
1, 1
0, 0
0, 0
0, 1
0, 0
1, 0
1, 0
0, 1
0, 1
0, 0
1, 0
1, 1
0, 0
0, 2
0, 0
1, 0
0, 0
0, 0
1, 0
0, 0
0, 0
0, 0
1, 0
0, 0
0, 0
1, 0
0, 1
0, 0
0, 0
0, 1
0, 0
1, 0
1, 1
0, 0
0, 0
1, 0
0, 0
0, 0
0, 1
0, 0
0, 0
0, 0
0, 0
0, 1
0, 0
0, 0
0, 0
2, 0
1, 0
0, 0
0, 0
0, 1
1, 0
0, 0
1, 0
0, 0
0, 0
0, 0
0, 0
1, 1
0, 0
1, 0
1, 1
1, 0
0, 0
0, 0
0, 1
0, 1
0, 0
1, 0
0, 0
0, 0
1, 1
0, 0
0, 1
0, 1
0, 0
0, 0
1, 0
0, 0
0, 0
0, 0
1, 0
0, 0
0, 0
1, 0
0, 0
0, 0
1, 0
0, 1
0, 0
0, 0
1, 0
0, 0
0, 0
0, 1
0, 0
0, 0
0, 0
0, 1
0, 0
0, 0
1, 0
0, 0
0, 0
0, 0
0, 1
0, 0
0, 0
0, 1
0, 0
1, 1
0, 0
0, 0
1, 0
0, 0
0, 0
0, 0
0, 0
0, 0
0, 0
0, 0
0, 0
0, 1
0, 0
1, 0
0, 0
0, 0
1, 0
0, 0
0, 0
1, 0
0, 2
1, 0
0, 0
0, 0
1, 0
0, 0
0, 0
0, 0
0, 1
0, 0
1, 0
0, 0
0, 0
0, 0
0, 0
0, 0
0, 0
0, 0
0, 0
0, 0
0, 0
0, 0
0, 0
0, 0
0, 0
1, 0
0, 0
0, 0
0, 0
0, 0
0, 0
1, 0
0, 0
0, 0
0, 0
0, 0
0, 0
0, 0
0, 0
0, 0
0, 1
0, 0
0, 0
0, 0
0, 0
0, 0
0, 0
0, 0
0, 0
0, 0
0, 0
0, 0
0, 0
0, 0
0, 0
0, 0
0, 0
0, 0
0, 0
0, 0
0, 0
0, 0
0, 0
0, 0
0, 0
0, 0
0, 0
0, 0
1, 0
0, 0
0, 0
0, 0
0, 0
0, 0
0, 0
0, 0
0, 0
0, 0
0, 0
0, 0
0, 0
0, 0
0, 1
0, 0
0, 0
1, 0
0, 0
0, 0
0, 0
0, 0
0, 0
0, 0
0, 0
0, 0
0, 0
0, 0
0, 0
0, 0
0, 0
0, 0
0, 0
0, 0
0, 0
0, 0
0, 0
0, 0
0, 0
0, 0
0, 0
0, 0
0, 0
0, 0
0, 0
0, 0
0, 0
0, 0
0, 0
0, 0
0, 0
0, 0
0, 0
0, 0
0, 0
0, 0
0, 0
0, 0
0, 0
0, 0
0, 0
0, 0
0, 0
0, 0
0, 0
0, 0
0, 0
0, 0
0, 0
0, 0
0, 0
0, 0
0, 0
0, 0
0, 0
0, 0
0, 0
0, 0
0, 0
0, 0
0, 0
0, 0
1, 0
0, 0
0, 0
0, 0
0, 0
0, 0
0, 0
0, 0
0, 0
0, 0
0, 0
0, 0
0, 0
0, 0
0, 0
0, 0
0, 0
0, 0
0, 0
0, 0
0, 0
0, 0
0, 0
0, 0
0, 0
0, 0
0, 0
0, 0
0, 0
0, 0
0, 0
0, 0
0, 0
0, 0
0, 0
0, 0
0, 0
0, 0
0, 0
0, 0
0, 0
0, 0
0, 0
0, 0
0, 0
0, 0
0, 0
0, 0
0, 0
0, 0
0, 0
0, 0
0, 0
0, 0
0, 0
0, 0
0, 0
0, 0
0, 0
0, 0
0, 0
0, 0
0, 0
0, 0
0, 0
0, 0
0, 0
0, 0
0, 0
0, 0
0, 0
1, 0
0, 0
0, 0
0, 0
0, 0
0, 0
0, 0
0, 0
0, 0
0, 0
0, 0
0, 0
0, 0
0, 0
0, 0
0, 0
0, 0
0, 0
0, 0
0, 0
0, 0
0, 0
0, 0
0, 0
0, 0
0, 0
0, 0
0, 0
0, 0
0, 0
0, 0
0, 0
0, 0
0, 0
0, 0
0, 0
0, 0
0, 0
0, 0
0, 0
0, 0
0, 0
0, 0
0, 0
0, 0
0, 0
0, 0
0, 0
0, 0
0, 0
0, 0
0, 0
0, 0
0, 0
0, 0
0, 0
0, 0
0, 0
0, 0
0, 0
0, 0
0, 0
0, 0
0, 0
0, 0
0, 0
0, 0
0, 0
0, 0
0, 0
0, 0
0, 0
0, 0
0, 0
0, 0
0, 0
0, 0
0, 0
0, 0
0, 0
0, 0
0, 0
0, 0
0, 0
0, 0
0, 0
0, 0
0, 0
0, 0
0, 0
0, 0
0, 0
0, 0
0, 0
0, 0
0, 0
0, 0
0, 0
0, 0
0, 0
0, 0
0, 0
0, 0
0, 0
0, 0
0, 0
0, 0
0, 0
0, 0
0, 0
0, 0
0, 0
0, 0
0, 0
0, 0
0, 0
0, 0
0, 0
0, 0
0, 0
0, 0
0, 0
0, 0
0, 0
0, 0
0, 0
0, 0
0, 0
0, 0
0, 0
0, 0
0, 0
0, 0
0, 0
0, 0
0, 0
0, 0
0, 0
0, 0
0, 0
0, 0
0, 0
0, 0
0, 0
0, 0
0, 0
0, 0
0, 0
0, 0
0, 0
0, 0
0, 0
0, 0
0, 0
0, 0
0, 0
0, 0
0, 0
0, 0
0, 0
0, 0
0, 0
0, 0
0, 0
0, 0
0, 0
0, 0
0, 0
0, 0
0, 0
0, 0
0, 0
0, 0
0, 0
0, 0
0, 0
0, 0
0, 0
0, 0
0, 0
0, 0
0, 0
0, 0
0, 0
0, 0
0, 0
0, 0
0, 0
0, 0
0, 0
0, 0
0, 0
0, 0
0, 0
0, 0
0, 0
0, 0
0, 0
0, 0
0, 0
0, 0
0, 0
0, 0
0, 0
0, 0
0, 0
0, 0
0, 0
0, 0
0, 0
0, 0
0, 0
0, 0
0, 0
0, 0
0, 0
0, 0
0, 0
0, 0
0, 0
0, 0
0, 0
0, 0
0, 0
0, 0
0, 0
0, 0
0, 0
0, 0
0, 0
0, 0
0, 0
0, 0
0, 0
0, 0
0, 0
0, 0
0, 0
0, 0
0, 0
0, 0
0, 0
0, 0
0, 0
0, 0
0, 0
0, 0
0, 0
0, 0
0, 0
0, 0
0, 0
0, 0
0, 0
0, 0
0, 0
0, 0
0, 0
0, 0
0, 0
0, 0
0, 0
0, 0
0, 0
0, 0
0, 0
0, 0
0, 0
0, 0
0, 0
0, 0
0, 0
0, 0
0, 0
0, 0
0, 0
0, 0
0, 0
0, 0
0, 0
0, 0
0, 0
0, 0
0, 0
0, 0
0, 0
0, 0
0, 0
0, 0
#ENDOFDATA     end of spectrum data