File: host_upload/06-09-2024/ps_0852/dump3/ps__0852shot_2045.msa
#FORMAT      : EMSA/MAS spectral data file
#VERSION     : TC202v2.0 PIXL
#TITLE       : N/A
#DATE        :       Date in the format DD-MMM-YYYY, for example 07-JUL-2010
#TIME        :             The time of day at which the spectrum was recorded, in 24-hour format
#OWNER       : PIXL Flight Model       (PIXL will use this to indicate which instrument took the data.)
#NPOINTS     : 4096     Number of data points in the spectrum (This can be zero for configuration only files)
#NCOLUMNS    : 2     Number of data columns in the spectrum (This can be zero for configuration only files)
#XUNITS      : eV
#YUNITS      : COUNTS
#DATATYPE    : YY
#XPERCHAN    : 7.862, 7.881   eV per channel (separate by commas if more than one detector)
#OFFSET      : 18.5, -22.4         eV of first channel  (separate by commas if more than one detector
#SIGNALTYPE  : XRF
#YP_TEMP     : 2.46
#LIVETIME    : 8.56281, 8.56666   seconds (separate by commas if more than one detector)
#REALTIME    : 10, 10.0   seconds (separate by commas if more than one detector)
#SPECTRUM    : start of spectrum data
0, 0
0, 0
0, 0
0, 0
0, 0
0, 0
0, 0
0, 0
0, 0
0, 0
0, 0
0, 0
0, 0
0, 0
0, 0
0, 0
0, 0
0, 0
0, 0
0, 0
0, 0
0, 0
0, 0
0, 0
0, 0
0, 0
0, 0
0, 0
0, 0
0, 0
0, 0
0, 0
0, 0
0, 0
0, 0
1, 1
0, 0
0, 0
0, 1
0, 0
0, 0
1, 1
1, 0
1, 3
0, 0
2, 0
3, 2
2, 4
9, 6
14, 9
35, 23
51, 47
68, 50
90, 74
120, 78
83, 81
74, 69
64, 45
35, 24
14, 6
14, 7
5, 4
4, 4
0, 2
4, 0
2, 1
7, 4
9, 15
26, 27
51, 53
91, 85
171, 194
250, 271
351, 354
406, 387
446, 429
413, 330
294, 294
202, 189
131, 110
67, 55
54, 34
23, 22
8, 2
7, 8
4, 3
3, 1
1, 3
2, 1
1, 1
1, 2
0, 1
0, 1
0, 1
1, 0
0, 1
3, 3
4, 6
5, 7
5, 10
3, 14
6, 9
1, 16
4, 10
2, 16
2, 12
6, 16
7, 19
6, 22
6, 15
14, 12
13, 14
17, 16
28, 35
32, 31
37, 32
32, 34
34, 30
35, 27
30, 13
27, 16
27, 19
22, 22
33, 19
28, 21
28, 7
23, 7
17, 8
18, 9
6, 11
5, 5
6, 1
3, 4
6, 0
3, 0
0, 2
2, 1
4, 3
3, 2
2, 3
2, 4
4, 1
3, 5
1, 2
1, 3
3, 0
0, 3
4, 0
3, 4
4, 1
1, 3
3, 4
8, 2
7, 10
17, 16
16, 22
16, 24
17, 21
15, 18
10, 12
20, 11
13, 3
11, 5
7, 8
8, 5
5, 11
2, 11
4, 13
2, 22
4, 19
4, 37
7, 23
3, 26
9, 22
7, 15
4, 18
4, 10
6, 5
3, 8
9, 4
5, 4
11, 6
14, 2
16, 3
15, 3
13, 3
17, 7
17, 5
15, 1
8, 4
14, 3
9, 13
11, 8
15, 18
15, 8
11, 18
15, 18
23, 17
16, 20
18, 17
21, 13
18, 21
13, 28
9, 25
17, 36
7, 18
14, 27
12, 33
7, 37
4, 27
5, 27
6, 27
6, 10
5, 13
3, 7
9, 6
7, 5
7, 2
10, 4
4, 5
8, 5
9, 2
11, 7
22, 4
33, 7
39, 9
66, 11
69, 13
76, 18
82, 10
96, 15
80, 17
76, 16
63, 8
44, 8
29, 3
14, 17
15, 10
12, 4
10, 10
11, 7
13, 6
8, 11
14, 18
15, 37
26, 26
27, 43
40, 41
52, 63
58, 48
58, 64
56, 67
56, 57
49, 49
49, 39
37, 31
42, 36
20, 21
11, 15
16, 22
31, 27
33, 32
32, 60
87, 105
148, 182
302, 327
437, 556
761, 911
1179, 1348
1564, 1717
2026, 2083
2330, 2486
2510, 2515
2456, 2326
2269, 1985
1810, 1551
1397, 1146
1051, 699
674, 471
405, 253
228, 150
136, 76
51, 37
29, 36
18, 11
12, 19
15, 16
17, 16
12, 21
12, 21
25, 27
34, 30
53, 61
58, 87
82, 131
146, 149
196, 232
249, 261
303, 316
354, 358
355, 358
357, 330
294, 284
254, 240
196, 177
126, 138
113, 124
79, 126
40, 111
19, 101
7, 102
6, 104
7, 69
10, 82
16, 57
17, 51
9, 51
9, 32
13, 16
16, 24
9, 12
16, 9
13, 7
3, 9
10, 8
8, 3
6, 4
4, 4
11, 3
8, 1
13, 4
4, 2
6, 4
3, 3
3, 2
5, 7
5, 4
4, 8
9, 3
3, 6
2, 5
6, 6
4, 10
4, 13
6, 10
4, 13
6, 16
4, 11
8, 14
2, 14
6, 18
2, 13
4, 10
8, 5
8, 14
6, 5
11, 2
8, 4
10, 7
3, 1
8, 4
9, 3
6, 7
9, 4
11, 7
6, 4
7, 4
6, 5
5, 3
6, 4
2, 4
6, 8
9, 8
10, 8
7, 4
5, 5
4, 9
5, 7
3, 8
5, 4
4, 9
5, 9
2, 4
3, 6
0, 4
2, 2
3, 2
4, 4
3, 5
3, 5
2, 2
3, 3
4, 3
3, 4
5, 4
3, 1
2, 3
7, 5
3, 1
4, 7
10, 4
4, 2
8, 3
7, 1
7, 3
8, 2
10, 7
10, 2
12, 8
4, 5
2, 2
4, 3
7, 9
5, 3
5, 4
7, 6
3, 1
3, 4
3, 1
4, 4
1, 3
2, 3
4, 2
3, 2
4, 6
5, 4
6, 5
2, 4
1, 4
2, 1
1, 2
3, 1
3, 4
1, 1
1, 6
3, 5
2, 2
4, 4
4, 5
5, 3
5, 9
3, 8
2, 2
2, 6
3, 5
3, 2
5, 3
9, 2
5, 2
6, 3
6, 5
5, 2
4, 1
2, 3
4, 2
6, 2
5, 1
5, 0
4, 1
3, 3
2, 1
0, 3
2, 4
4, 2
2, 2
0, 0
0, 1
3, 4
2, 1
3, 2
3, 3
2, 2
3, 6
1, 5
2, 0
4, 4
1, 5
1, 9
1, 5
0, 2
1, 3
1, 5
3, 4
4, 4
2, 5
2, 3
3, 4
3, 3
4, 3
5, 3
4, 2
2, 2
3, 1
2, 2
3, 2
3, 3
7, 1
5, 5
8, 4
5, 4
4, 2
8, 2
1, 1
9, 0
2, 2
2, 0
5, 0
1, 3
1, 3
0, 2
2, 3
2, 2
0, 1
2, 1
0, 1
1, 3
0, 0
4, 2
2, 0
1, 2
0, 1
2, 2
0, 1
2, 5
2, 3
2, 1
2, 2
0, 3
2, 0
0, 2
1, 3
3, 2
1, 1
2, 0
6, 0
1, 3
2, 2
5, 2
4, 0
4, 1
6, 2
6, 4
4, 5
6, 10
4, 4
1, 2
3, 2
5, 3
1, 4
5, 1
3, 1
3, 3
1, 0
0, 0
1, 1
0, 2
1, 1
2, 2
0, 1
1, 1
0, 1
4, 0
1, 2
0, 0
1, 3
2, 3
1, 2
2, 3
1, 3
1, 3
3, 2
1, 2
4, 1
0, 3
2, 1
1, 1
0, 1
1, 1
4, 1
0, 0
0, 1
3, 2
1, 2
0, 1
2, 2
0, 1
1, 3
2, 4
3, 1
0, 1
0, 2
2, 3
1, 2
2, 2
2, 2
0, 2
3, 1
1, 3
2, 1
1, 2
1, 1
0, 2
0, 0
0, 2
0, 1
0, 2
1, 1
2, 0
0, 1
1, 0
0, 0
0, 1
1, 1
0, 3
1, 2
0, 1
0, 0
0, 0
0, 0
1, 2
0, 0
0, 2
2, 1
2, 1
0, 1
1, 0
2, 0
3, 0
0, 0
4, 1
0, 2
0, 1
1, 1
2, 3
0, 0
1, 1
0, 1
0, 0
1, 2
0, 0
0, 0
1, 1
1, 0
0, 1
0, 1
0, 0
1, 0
0, 1
0, 3
3, 2
1, 1
2, 0
0, 2
0, 1
0, 1
0, 1
0, 0
0, 0
0, 1
1, 0
0, 1
0, 1
0, 0
0, 1
0, 0
2, 0
3, 2
0, 0
0, 0
0, 1
2, 0
1, 0
1, 0
2, 0
0, 1
0, 0
0, 0
1, 2
1, 0
1, 1
0, 0
0, 0
0, 1
1, 0
2, 0
1, 1
1, 1
1, 0
0, 0
0, 0
1, 0
0, 0
0, 0
0, 1
0, 2
0, 0
0, 0
1, 0
0, 1
0, 1
0, 1
1, 1
0, 0
0, 0
0, 1
1, 0
1, 2
1, 0
0, 0
0, 2
0, 0
1, 1
0, 0
0, 0
0, 0
0, 0
0, 1
0, 1
0, 0
0, 0
1, 0
0, 0
0, 1
0, 0
1, 1
2, 0
1, 0
0, 0
0, 0
0, 0
0, 1
2, 0
0, 0
0, 0
0, 0
0, 1
0, 1
0, 0
0, 0
0, 0
0, 1
1, 0
0, 0
1, 0
0, 0
0, 0
0, 1
0, 1
0, 0
1, 0
0, 0
0, 0
1, 0
0, 0
1, 0
1, 0
0, 0
0, 0
0, 0
0, 0
0, 0
0, 0
0, 1
1, 0
0, 0
1, 1
0, 0
0, 1
0, 0
0, 1
0, 0
0, 1
0, 0
0, 0
0, 1
0, 1
1, 1
0, 0
0, 0
1, 0
0, 1
0, 0
0, 1
0, 0
0, 0
0, 1
0, 2
2, 1
1, 1
0, 0
0, 0
1, 0
0, 0
1, 0
1, 0
0, 0
0, 0
0, 1
0, 0
0, 0
0, 1
0, 0
0, 0
0, 0
1, 0
0, 0
0, 0
0, 0
1, 0
0, 0
0, 0
0, 0
0, 0
0, 0
1, 0
1, 0
0, 1
0, 0
0, 0
0, 0
0, 0
0, 0
0, 0
1, 0
0, 0
0, 0
0, 0
0, 0
1, 0
0, 0
0, 0
0, 0
0, 0
0, 0
0, 1
0, 0
0, 0
0, 0
1, 0
0, 0
0, 0
0, 1
0, 1
0, 0
0, 0
0, 0
0, 0
0, 0
0, 0
0, 0
0, 0
0, 0
0, 0
1, 0
0, 0
1, 0
0, 0
0, 0
0, 1
0, 0
0, 0
0, 1
0, 0
1, 0
0, 0
1, 0
1, 0
0, 0
1, 1
0, 1
0, 0
0, 0
1, 0
0, 1
1, 0
0, 1
0, 0
0, 0
0, 0
0, 0
0, 0
0, 0
0, 0
0, 0
0, 0
0, 0
0, 0
0, 0
1, 1
0, 0
0, 0
0, 0
0, 0
0, 0
0, 0
0, 0
0, 0
0, 0
0, 0
0, 0
0, 0
0, 0
0, 0
0, 0
0, 0
0, 0
1, 0
0, 0
0, 0
0, 0
0, 0
0, 0
0, 0
0, 0
0, 0
0, 0
0, 0
0, 0
1, 0
0, 0
0, 0
0, 1
0, 0
0, 0
0, 0
0, 0
0, 0
0, 0
0, 0
0, 0
0, 0
0, 0
0, 0
0, 0
0, 0
0, 0
0, 0
0, 0
0, 0
0, 0
0, 0
0, 0
0, 0
0, 1
0, 0
0, 0
0, 0
0, 0
0, 0
0, 0
0, 0
0, 0
0, 0
0, 0
0, 1
0, 0
0, 0
0, 0
0, 0
0, 0
0, 0
0, 1
0, 0
0, 0
0, 0
0, 0
0, 0
0, 0
0, 0
0, 0
0, 0
0, 0
0, 0
0, 0
0, 0
0, 0
0, 0
0, 0
0, 0
0, 0
0, 0
0, 1
0, 1
0, 0
0, 0
0, 0
0, 0
0, 0
0, 0
0, 0
0, 0
0, 0
0, 0
0, 0
0, 0
0, 0
0, 0
0, 0
0, 0
0, 0
0, 0
0, 0
0, 0
0, 0
0, 0
0, 0
0, 0
0, 0
0, 0
0, 0
0, 0
0, 0
0, 0
0, 0
0, 0
0, 0
0, 0
0, 0
0, 0
0, 0
0, 0
0, 0
0, 0
0, 0
0, 0
0, 0
0, 0
0, 0
0, 0
0, 0
0, 0
0, 0
0, 0
0, 0
0, 0
0, 0
0, 0
0, 0
0, 0
0, 0
0, 0
0, 0
0, 0
0, 0
0, 0
0, 0
0, 0
0, 0
1, 0
0, 0
0, 0
0, 0
0, 0
0, 0
0, 0
0, 0
0, 0
0, 0
0, 0
0, 0
0, 0
0, 0
0, 0
0, 0
0, 0
0, 0
0, 0
0, 0
0, 0
0, 0
0, 0
0, 0
0, 0
0, 0
0, 0
0, 0
0, 0
0, 0
0, 0
1, 0
0, 0
0, 0
0, 0
0, 0
0, 0
0, 0
0, 0
0, 0
0, 0
0, 0
0, 0
0, 0
0, 0
0, 0
0, 0
0, 0
0, 0
0, 0
0, 0
0, 0
0, 0
0, 0
0, 0
0, 0
0, 0
0, 0
0, 0
0, 0
0, 0
0, 0
0, 0
0, 0
0, 0
0, 0
0, 0
0, 0
0, 0
0, 0
0, 0
0, 0
0, 0
0, 0
0, 0
0, 0
0, 0
0, 0
0, 0
0, 0
0, 0
0, 0
0, 0
0, 0
0, 0
0, 0
0, 0
0, 0
0, 0
0, 0
0, 0
0, 0
0, 0
0, 0
0, 0
0, 0
0, 0
0, 0
0, 0
0, 0
0, 0
0, 0
0, 0
0, 0
0, 0
0, 0
0, 0
0, 0
0, 0
0, 0
0, 0
0, 0
0, 0
0, 0
0, 0
0, 0
0, 0
0, 0
0, 0
0, 0
0, 0
0, 0
0, 0
0, 0
0, 0
0, 0
0, 0
0, 0
0, 0
0, 0
0, 0
0, 0
0, 0
0, 0
0, 0
0, 0
0, 0
0, 0
0, 0
0, 0
0, 0
0, 0
0, 0
0, 0
0, 0
0, 0
0, 0
0, 0
0, 0
0, 0
0, 0
0, 0
0, 0
0, 0
0, 0
0, 0
0, 0
0, 0
0, 0
0, 0
0, 0
0, 0
0, 0
0, 0
0, 0
0, 0
0, 0
0, 0
0, 0
0, 0
0, 0
0, 0
0, 0
0, 0
0, 0
0, 0
0, 0
0, 0
0, 0
0, 0
0, 0
0, 0
0, 0
0, 0
0, 0
0, 0
0, 0
0, 0
0, 0
0, 0
0, 0
0, 0
0, 0
0, 0
0, 0
0, 0
0, 0
0, 0
0, 0
0, 0
0, 0
0, 0
0, 0
0, 0
0, 0
0, 0
0, 0
0, 0
0, 0
0, 0
0, 0
0, 0
0, 0
0, 0
0, 0
0, 0
0, 0
0, 0
0, 0
0, 0
0, 0
0, 0
0, 0
0, 0
0, 0
0, 0
0, 0
0, 0
0, 0
0, 0
0, 0
0, 0
0, 0
0, 0
0, 0
0, 0
0, 0
0, 0
0, 0
0, 0
0, 0
0, 0
0, 0
0, 0
0, 0
0, 0
0, 0
0, 0
0, 0
0, 0
0, 0
0, 0
0, 0
0, 0
0, 0
0, 0
0, 0
0, 0
0, 0
0, 0
0, 0
0, 0
0, 0
0, 0
0, 0
0, 0
0, 0
0, 0
0, 0
0, 0
0, 0
0, 0
0, 0
0, 0
0, 0
0, 0
0, 0
0, 0
0, 0
0, 0
0, 0
0, 0
0, 0
0, 0
0, 0
0, 0
0, 0
0, 0
0, 0
0, 0
0, 0
0, 0
0, 0
0, 0
0, 0
0, 0
0, 0
0, 0
0, 0
0, 0
0, 0
0, 0
0, 0
0, 0
0, 0
0, 0
0, 0
0, 0
0, 0
0, 0
0, 0
0, 0
0, 0
0, 0
0, 0
0, 0
0, 0
0, 0
#ENDOFDATA     end of spectrum data