File: host_upload/06-09-2024/ps_0852/dump3/ps__0852shot_2071.msa
#FORMAT      : EMSA/MAS spectral data file
#VERSION     : TC202v2.0 PIXL
#TITLE       : N/A
#DATE        :       Date in the format DD-MMM-YYYY, for example 07-JUL-2010
#TIME        :             The time of day at which the spectrum was recorded, in 24-hour format
#OWNER       : PIXL Flight Model       (PIXL will use this to indicate which instrument took the data.)
#NPOINTS     : 4096     Number of data points in the spectrum (This can be zero for configuration only files)
#NCOLUMNS    : 2     Number of data columns in the spectrum (This can be zero for configuration only files)
#XUNITS      : eV
#YUNITS      : COUNTS
#DATATYPE    : YY
#XPERCHAN    : 7.862, 7.881   eV per channel (separate by commas if more than one detector)
#OFFSET      : 18.5, -22.4         eV of first channel  (separate by commas if more than one detector
#SIGNALTYPE  : XRF
#YP_TEMP     : 2.428
#LIVETIME    : 8.56215, 8.35712   seconds (separate by commas if more than one detector)
#REALTIME    : 10, 10.0   seconds (separate by commas if more than one detector)
#SPECTRUM    : start of spectrum data
0, 0
0, 0
0, 0
0, 0
0, 0
0, 0
0, 0
0, 0
0, 0
0, 0
0, 0
0, 0
0, 0
0, 0
0, 0
0, 0
0, 0
0, 0
0, 0
0, 0
0, 0
0, 0
0, 0
0, 0
0, 0
0, 0
0, 0
0, 0
0, 0
0, 0
0, 0
0, 0
1, 0
0, 0
0, 0
0, 0
0, 0
0, 0
1, 0
0, 1
1, 1
1, 1
1, 0
3, 1
1, 1
2, 0
2, 1
5, 7
7, 6
19, 12
24, 18
37, 39
61, 42
68, 60
75, 84
81, 68
73, 48
51, 39
32, 26
15, 20
7, 10
4, 5
5, 5
1, 5
3, 1
3, 7
6, 6
11, 9
22, 23
50, 54
93, 104
180, 153
248, 269
351, 329
443, 390
427, 390
373, 325
293, 258
192, 172
129, 102
78, 65
38, 36
11, 21
13, 10
1, 3
1, 1
2, 4
0, 0
1, 3
1, 0
1, 0
2, 1
1, 1
5, 4
3, 3
3, 2
2, 9
2, 4
7, 2
8, 7
5, 6
6, 6
3, 3
4, 2
5, 2
4, 6
10, 5
11, 8
10, 21
12, 22
21, 28
38, 26
50, 42
49, 51
63, 57
70, 68
66, 54
47, 38
41, 50
44, 40
45, 32
31, 24
27, 34
23, 33
23, 21
17, 16
14, 20
10, 15
9, 12
9, 7
9, 6
4, 1
7, 4
3, 1
3, 5
4, 3
2, 2
3, 3
4, 1
2, 4
4, 3
2, 3
5, 4
1, 2
5, 6
5, 2
4, 6
6, 2
5, 3
5, 1
8, 2
6, 7
11, 13
10, 13
17, 12
16, 24
21, 25
21, 25
15, 23
22, 18
17, 17
16, 11
16, 14
7, 4
8, 6
5, 9
9, 9
4, 11
11, 13
10, 11
7, 6
14, 9
6, 8
6, 7
10, 7
7, 5
6, 9
19, 5
10, 7
11, 11
12, 10
11, 7
7, 11
7, 9
11, 9
6, 8
7, 9
11, 8
8, 13
13, 13
16, 18
12, 23
12, 21
19, 11
18, 18
15, 15
14, 20
22, 16
18, 15
14, 15
15, 20
3, 7
8, 11
9, 12
6, 10
15, 10
5, 7
8, 11
11, 3
9, 8
13, 14
2, 7
13, 6
7, 14
7, 11
3, 7
5, 4
7, 7
7, 13
5, 6
9, 9
11, 10
6, 11
9, 13
9, 17
9, 9
19, 14
15, 16
15, 20
14, 17
23, 16
21, 21
19, 21
15, 16
13, 13
18, 23
20, 11
13, 14
18, 13
8, 14
12, 12
15, 17
15, 9
18, 19
26, 22
28, 27
49, 46
45, 40
56, 63
45, 62
72, 73
71, 63
67, 57
62, 47
42, 49
38, 39
39, 34
29, 26
27, 18
17, 24
29, 19
37, 45
42, 53
92, 85
143, 188
308, 364
523, 593
848, 886
1158, 1247
1536, 1699
1976, 2075
2343, 2408
2423, 2371
2356, 2267
2154, 1868
1763, 1528
1400, 1113
956, 730
672, 452
357, 269
240, 114
130, 83
51, 43
38, 36
26, 24
22, 22
17, 11
10, 12
18, 22
20, 24
37, 32
41, 47
50, 57
89, 80
124, 123
140, 150
181, 213
301, 290
309, 301
356, 339
367, 317
350, 333
294, 242
237, 190
194, 158
148, 124
80, 53
64, 48
39, 19
22, 12
7, 11
12, 11
9, 10
10, 10
20, 11
18, 14
19, 14
20, 14
20, 12
14, 11
16, 10
16, 10
9, 4
11, 5
9, 11
10, 6
9, 4
8, 5
3, 6
8, 3
9, 3
10, 4
9, 4
6, 4
10, 3
8, 3
4, 6
7, 7
4, 3
6, 4
4, 5
8, 2
6, 5
7, 7
4, 8
11, 5
7, 6
0, 11
8, 7
5, 11
7, 12
6, 8
2, 10
6, 5
10, 5
6, 8
3, 3
4, 1
9, 6
8, 2
7, 6
10, 8
3, 5
5, 5
7, 10
4, 3
10, 4
5, 7
5, 7
2, 3
7, 6
7, 4
5, 3
5, 3
5, 7
5, 5
3, 6
5, 5
1, 8
5, 5
7, 2
4, 3
3, 5
7, 3
9, 5
3, 6
5, 3
1, 6
1, 5
3, 4
5, 3
3, 5
5, 8
2, 6
6, 5
3, 6
2, 6
1, 4
2, 5
3, 2
5, 6
6, 5
4, 4
4, 4
3, 5
4, 3
5, 4
6, 1
3, 4
2, 1
3, 5
2, 7
2, 2
5, 5
5, 2
1, 4
3, 6
3, 1
2, 2
1, 3
4, 3
1, 4
2, 2
3, 4
5, 5
2, 1
8, 8
5, 5
5, 4
6, 3
2, 2
2, 6
1, 7
5, 4
5, 5
7, 4
5, 4
4, 6
2, 7
5, 2
1, 5
3, 3
0, 5
2, 3
3, 5
1, 3
2, 2
4, 5
2, 1
3, 5
5, 2
4, 1
2, 2
3, 2
3, 3
1, 2
1, 1
6, 3
4, 3
3, 1
5, 0
1, 3
4, 5
1, 2
1, 5
4, 3
2, 0
6, 6
5, 0
6, 1
3, 2
2, 4
2, 2
4, 3
1, 1
4, 2
3, 5
6, 1
1, 4
2, 3
2, 3
5, 1
3, 1
2, 5
3, 2
4, 4
0, 1
2, 2
3, 4
4, 3
2, 3
4, 5
1, 2
2, 1
3, 4
2, 1
3, 4
1, 1
2, 0
1, 0
2, 1
3, 1
1, 1
2, 2
0, 2
3, 0
1, 2
2, 0
0, 1
1, 1
3, 3
2, 7
1, 1
3, 1
2, 2
1, 3
1, 1
2, 1
1, 2
1, 1
4, 3
3, 0
2, 5
1, 0
2, 2
2, 1
2, 3
0, 2
2, 2
1, 1
3, 0
1, 3
4, 1
3, 2
6, 1
2, 3
2, 4
1, 1
4, 5
6, 3
2, 1
5, 2
2, 3
2, 4
4, 6
3, 2
2, 2
4, 2
7, 3
1, 2
1, 3
2, 2
3, 0
1, 2
1, 1
2, 1
3, 2
2, 2
4, 2
3, 0
3, 2
0, 1
1, 0
3, 2
2, 0
0, 5
1, 3
2, 0
4, 3
5, 3
4, 4
1, 1
1, 2
1, 4
1, 0
1, 1
2, 0
3, 2
3, 1
0, 1
0, 0
0, 0
1, 1
1, 0
0, 0
1, 1
2, 0
3, 2
0, 0
2, 0
1, 1
0, 2
1, 2
2, 2
1, 0
0, 2
2, 1
1, 1
0, 2
0, 0
2, 0
0, 1
1, 0
1, 2
0, 0
1, 1
0, 3
1, 0
0, 2
2, 0
1, 0
0, 0
2, 1
0, 1
2, 1
0, 1
2, 0
3, 1
1, 1
1, 1
0, 1
0, 1
2, 1
1, 0
1, 0
0, 0
2, 0
0, 0
0, 2
0, 0
0, 0
1, 0
0, 0
1, 0
1, 1
3, 1
0, 0
0, 2
3, 0
0, 0
2, 1
2, 0
2, 1
0, 1
0, 0
1, 2
0, 2
0, 1
0, 0
0, 2
0, 0
0, 0
1, 0
0, 0
1, 0
0, 0
0, 0
1, 1
1, 0
0, 1
1, 0
3, 0
1, 0
0, 0
3, 2
0, 0
0, 0
2, 0
0, 2
1, 2
0, 0
0, 0
0, 0
1, 1
0, 0
0, 0
2, 0
1, 0
0, 0
1, 0
2, 1
0, 0
0, 2
1, 0
0, 0
1, 1
2, 1
0, 0
1, 1
1, 0
0, 0
2, 0
0, 1
1, 2
0, 0
1, 1
2, 0
1, 1
0, 1
0, 0
0, 0
2, 1
0, 0
0, 0
0, 1
0, 1
0, 0
0, 1
0, 0
2, 1
0, 1
0, 0
0, 0
0, 0
0, 0
0, 1
1, 0
0, 0
0, 0
0, 0
0, 1
1, 1
0, 0
0, 1
2, 0
0, 1
1, 1
0, 0
0, 0
0, 0
0, 0
0, 0
0, 0
0, 0
1, 0
0, 0
1, 0
1, 1
0, 0
0, 0
0, 1
0, 1
0, 0
0, 0
0, 0
0, 2
0, 0
1, 1
0, 1
0, 0
0, 0
0, 0
0, 2
0, 0
2, 1
0, 0
0, 1
0, 1
0, 0
0, 0
1, 0
1, 1
1, 0
1, 0
0, 1
1, 1
1, 0
2, 0
0, 0
0, 0
1, 0
1, 0
0, 0
0, 0
0, 0
0, 0
1, 0
0, 0
1, 0
1, 1
0, 0
0, 1
1, 1
0, 0
0, 0
0, 0
0, 0
0, 0
0, 0
1, 0
0, 0
0, 0
0, 0
1, 0
2, 0
0, 0
0, 0
0, 0
1, 1
0, 0
1, 1
2, 0
0, 0
1, 0
0, 0
0, 0
0, 0
2, 0
2, 0
0, 0
1, 0
2, 1
0, 0
0, 0
0, 0
0, 0
0, 0
1, 0
1, 0
0, 0
0, 0
1, 0
0, 0
0, 0
0, 0
0, 1
0, 0
0, 1
0, 0
0, 0
0, 1
0, 0
0, 0
0, 0
0, 0
0, 0
2, 0
0, 0
0, 0
0, 0
0, 0
0, 0
0, 0
0, 0
0, 0
0, 0
0, 0
0, 0
0, 0
0, 0
0, 1
0, 0
0, 0
0, 0
0, 0
0, 0
0, 3
0, 0
1, 0
0, 0
0, 0
0, 0
0, 0
0, 0
0, 0
0, 0
0, 0
0, 0
0, 0
0, 0
0, 0
0, 0
0, 0
0, 0
0, 0
0, 0
0, 0
0, 0
0, 0
0, 0
0, 0
0, 0
0, 1
0, 0
0, 0
0, 1
0, 0
0, 0
0, 0
0, 0
0, 0
0, 0
0, 0
0, 0
0, 0
0, 0
0, 0
0, 0
0, 0
0, 0
0, 0
0, 0
0, 0
0, 0
0, 0
0, 0
0, 0
1, 0
0, 0
0, 0
0, 0
0, 0
0, 0
0, 0
0, 0
0, 0
0, 0
0, 0
0, 0
1, 0
0, 0
0, 0
0, 0
0, 0
0, 0
0, 0
0, 0
0, 0
0, 0
0, 0
0, 0
0, 0
0, 0
0, 0
0, 0
0, 0
0, 0
0, 0
0, 0
1, 0
0, 0
0, 0
0, 0
0, 0
0, 0
0, 0
0, 0
0, 0
0, 0
0, 0
0, 0
0, 0
0, 0
1, 0
0, 0
0, 0
0, 0
0, 0
0, 0
0, 0
0, 0
0, 0
0, 0
0, 0
0, 0
0, 0
0, 0
0, 0
0, 0
0, 0
0, 0
0, 0
0, 0
0, 0
0, 0
0, 0
0, 0
0, 0
0, 0
0, 0
0, 0
0, 0
0, 0
0, 0
0, 0
0, 0
0, 0
0, 0
0, 0
0, 0
0, 0
0, 0
0, 0
0, 0
0, 0
0, 0
0, 0
0, 0
0, 0
0, 0
0, 0
0, 0
1, 0
0, 0
0, 0
0, 0
0, 0
0, 0
0, 0
0, 0
0, 0
0, 0
0, 0
0, 0
0, 0
0, 0
0, 0
0, 0
0, 0
0, 0
0, 0
0, 0
0, 0
0, 0
0, 0
0, 0
0, 0
0, 0
0, 0
0, 0
0, 0
0, 0
0, 0
0, 0
0, 0
0, 0
0, 0
0, 0
0, 0
0, 0
0, 0
0, 0
0, 0
0, 0
0, 0
0, 0
0, 0
0, 0
0, 0
0, 0
0, 0
0, 0
0, 0
0, 0
0, 0
0, 0
0, 0
0, 0
0, 0
0, 0
0, 0
0, 0
0, 0
0, 0
0, 0
0, 0
0, 0
0, 0
0, 0
0, 0
0, 0
0, 0
0, 0
0, 0
0, 0
0, 0
0, 0
0, 0
0, 0
0, 0
0, 0
0, 0
0, 0
0, 0
0, 0
0, 0
0, 0
0, 0
0, 0
0, 0
0, 0
0, 0
0, 0
0, 0
0, 0
0, 0
0, 0
0, 0
0, 0
0, 0
0, 0
0, 0
0, 0
0, 0
0, 0
0, 0
0, 0
0, 0
0, 0
0, 0
0, 0
0, 0
0, 0
0, 0
0, 0
0, 0
0, 0
0, 0
0, 0
0, 0
0, 0
0, 0
0, 0
0, 0
0, 0
0, 0
0, 0
0, 0
0, 0
0, 0
0, 0
0, 0
0, 0
0, 0
0, 0
0, 0
0, 0
0, 0
0, 0
0, 0
0, 0
0, 0
0, 0
0, 0
0, 0
0, 0
0, 0
0, 0
0, 0
0, 0
0, 0
0, 0
0, 0
0, 0
0, 0
0, 0
0, 0
0, 0
0, 0
0, 0
0, 0
0, 0
0, 0
0, 0
0, 0
0, 0
0, 0
0, 0
0, 0
0, 0
0, 0
0, 0
0, 0
0, 0
0, 0
0, 0
0, 0
0, 0
0, 0
0, 0
0, 0
0, 0
0, 0
0, 0
0, 0
0, 0
0, 0
0, 0
0, 0
0, 0
0, 0
0, 0
0, 0
0, 0
0, 0
0, 0
0, 0
0, 0
0, 0
0, 0
0, 0
0, 0
0, 0
0, 0
0, 0
0, 0
0, 0
0, 0
0, 0
0, 0
0, 0
0, 0
0, 0
0, 0
0, 0
0, 0
0, 0
0, 0
0, 0
0, 0
0, 0
0, 0
0, 0
0, 0
0, 0
0, 0
0, 0
0, 0
0, 0
0, 0
0, 0
0, 0
0, 0
0, 0
0, 0
0, 0
0, 0
0, 0
0, 0
0, 0
0, 0
0, 0
0, 0
0, 0
0, 0
0, 0
0, 0
0, 0
0, 0
0, 0
0, 0
0, 0
0, 0
0, 0
0, 0
0, 0
0, 0
0, 0
0, 0
0, 0
0, 0
0, 0
0, 0
0, 0
0, 0
0, 0
0, 0
0, 0
0, 0
0, 0
0, 0
0, 0
0, 0
0, 0
0, 0
0, 0
0, 0
0, 0
0, 0
0, 0
0, 0
0, 0
0, 0
0, 0
0, 0
0, 0
0, 0
0, 0
0, 0
0, 0
0, 0
0, 0
0, 0
0, 0
0, 0
0, 0
0, 0
0, 0
0, 0
0, 0
0, 0
0, 0
0, 0
0, 0
0, 0
0, 0
0, 0
0, 0
0, 0
0, 0
0, 0
0, 0
0, 0
0, 0
0, 0
0, 0
0, 0
0, 0
0, 0
0, 0
0, 0
0, 0
0, 0
0, 0
0, 0
0, 0
0, 0
0, 0
0, 0
0, 0
0, 0
0, 0
0, 0
0, 0
0, 0
0, 0
0, 0
0, 0
0, 0
0, 0
0, 0
0, 0
0, 0
0, 0
0, 0
0, 0
0, 0
0, 0
0, 0
0, 0
0, 0
0, 0
0, 0
0, 0
0, 0
0, 0
0, 0
0, 0
0, 0
0, 0
0, 0
0, 0
0, 0
0, 0
0, 0
0, 0
#ENDOFDATA     end of spectrum data