File: host_upload/06-09-2024/ps_0852/dump3/ps__0852shot_2314.msa
#FORMAT      : EMSA/MAS spectral data file
#VERSION     : TC202v2.0 PIXL
#TITLE       : N/A
#DATE        :       Date in the format DD-MMM-YYYY, for example 07-JUL-2010
#TIME        :             The time of day at which the spectrum was recorded, in 24-hour format
#OWNER       : PIXL Flight Model       (PIXL will use this to indicate which instrument took the data.)
#NPOINTS     : 4096     Number of data points in the spectrum (This can be zero for configuration only files)
#NCOLUMNS    : 2     Number of data columns in the spectrum (This can be zero for configuration only files)
#XUNITS      : eV
#YUNITS      : COUNTS
#DATATYPE    : YY
#XPERCHAN    : 7.862, 7.881   eV per channel (separate by commas if more than one detector)
#OFFSET      : 18.5, -22.4         eV of first channel  (separate by commas if more than one detector
#SIGNALTYPE  : XRF
#YP_TEMP     : 2.396
#LIVETIME    : 8.55785, 8.55107   seconds (separate by commas if more than one detector)
#REALTIME    : 10, 10.0   seconds (separate by commas if more than one detector)
#SPECTRUM    : start of spectrum data
0, 0
0, 0
0, 0
0, 0
0, 0
0, 0
0, 0
0, 0
0, 0
0, 0
0, 0
0, 0
0, 0
0, 0
0, 0
0, 0
0, 0
0, 0
0, 0
0, 0
0, 0
0, 0
0, 0
0, 0
0, 0
0, 0
0, 0
0, 0
0, 0
0, 0
0, 0
0, 0
0, 0
0, 0
0, 0
0, 0
1, 1
1, 2
0, 1
1, 0
3, 1
2, 0
1, 0
2, 0
2, 1
4, 1
6, 1
4, 2
10, 9
17, 10
27, 30
42, 38
57, 58
73, 80
79, 79
79, 71
54, 55
47, 43
29, 33
18, 18
10, 16
3, 4
2, 4
3, 2
3, 2
2, 2
8, 4
7, 12
16, 18
59, 55
86, 84
183, 155
271, 264
351, 421
398, 426
444, 423
379, 392
312, 283
202, 191
131, 129
72, 78
36, 33
19, 23
11, 8
3, 6
1, 4
1, 2
3, 3
0, 1
4, 1
0, 2
0, 2
1, 2
0, 2
0, 2
3, 6
3, 2
6, 1
7, 7
5, 3
2, 4
2, 2
3, 1
2, 3
0, 0
2, 5
9, 5
7, 3
5, 5
14, 14
12, 24
27, 30
31, 31
50, 35
49, 36
47, 52
56, 39
51, 38
73, 29
72, 32
95, 20
167, 20
229, 22
281, 27
283, 16
266, 16
249, 18
168, 14
133, 12
75, 9
45, 3
28, 2
12, 4
6, 2
4, 1
0, 4
1, 3
6, 1
1, 0
1, 2
0, 3
0, 3
5, 4
0, 2
4, 2
0, 2
3, 4
1, 10
0, 22
4, 16
4, 22
6, 22
6, 33
7, 27
12, 33
17, 35
20, 29
19, 21
14, 29
20, 20
18, 15
10, 18
8, 5
9, 7
2, 0
2, 2
3, 4
8, 2
6, 5
8, 2
6, 3
7, 6
4, 4
7, 6
9, 6
8, 4
5, 5
4, 3
4, 3
3, 11
1, 10
5, 6
6, 8
4, 3
6, 4
6, 9
6, 5
9, 0
11, 7
13, 3
27, 9
28, 8
41, 16
54, 14
66, 15
68, 8
63, 13
91, 16
87, 13
78, 21
67, 9
47, 9
40, 10
18, 12
11, 11
9, 10
8, 4
2, 11
6, 3
3, 9
3, 4
7, 4
5, 10
4, 4
3, 7
8, 10
7, 3
10, 8
8, 9
4, 5
6, 4
5, 7
8, 6
10, 13
4, 15
9, 14
11, 17
7, 21
10, 17
12, 17
8, 19
8, 14
10, 19
8, 16
16, 14
14, 9
4, 9
11, 17
8, 3
11, 5
19, 9
18, 18
19, 12
50, 12
47, 33
74, 35
89, 48
102, 63
132, 80
105, 92
128, 103
112, 110
110, 120
84, 99
70, 112
34, 101
41, 116
30, 76
23, 88
11, 96
24, 75
22, 88
47, 102
87, 129
148, 224
275, 355
466, 557
802, 915
1160, 1352
1593, 1829
2024, 2129
2330, 2406
2421, 2425
2302, 2191
2061, 1882
1744, 1581
1310, 1104
925, 752
625, 485
347, 258
213, 128
124, 60
53, 40
32, 28
22, 12
23, 15
14, 10
15, 20
19, 19
23, 23
23, 31
43, 51
41, 52
65, 84
98, 114
155, 180
199, 228
273, 289
299, 335
358, 384
369, 341
334, 359
320, 298
249, 211
186, 161
121, 119
77, 65
65, 47
35, 22
27, 16
14, 6
14, 4
9, 5
15, 9
22, 11
8, 16
14, 11
17, 14
8, 12
18, 13
9, 13
16, 13
12, 6
4, 6
14, 5
5, 4
5, 3
4, 6
3, 6
3, 3
0, 5
5, 7
2, 2
1, 5
1, 4
2, 4
1, 5
2, 2
6, 6
6, 4
7, 3
8, 7
4, 11
4, 7
3, 2
6, 4
2, 6
10, 5
7, 4
7, 3
3, 7
5, 5
10, 6
6, 2
2, 9
6, 4
3, 1
6, 1
3, 4
5, 2
2, 3
2, 5
2, 1
4, 5
5, 6
4, 4
1, 4
4, 5
1, 3
9, 2
4, 5
5, 3
6, 2
9, 6
4, 7
2, 0
6, 1
7, 4
9, 4
5, 5
9, 0
3, 7
5, 2
8, 6
3, 5
7, 3
5, 8
7, 5
8, 3
16, 3
13, 7
12, 6
21, 2
13, 0
13, 8
6, 4
14, 6
12, 7
7, 2
9, 4
2, 4
11, 9
2, 4
5, 6
4, 15
4, 2
2, 11
3, 13
3, 21
5, 16
4, 16
6, 8
2, 6
2, 4
4, 4
3, 6
3, 3
2, 4
7, 4
6, 2
0, 5
5, 4
3, 4
1, 7
2, 1
2, 7
2, 2
5, 4
1, 0
3, 1
3, 1
2, 3
1, 2
4, 3
2, 1
3, 3
3, 1
4, 3
5, 3
3, 3
7, 4
1, 2
2, 7
2, 1
1, 3
4, 4
0, 2
1, 3
4, 3
2, 1
7, 2
3, 1
1, 4
2, 0
2, 0
6, 3
0, 1
2, 4
6, 4
2, 3
3, 3
0, 5
5, 0
2, 1
2, 4
4, 3
3, 4
3, 6
2, 2
5, 4
2, 1
0, 2
3, 2
3, 3
4, 4
4, 4
2, 4
2, 2
4, 3
0, 1
2, 1
1, 0
0, 6
3, 1
2, 2
3, 2
2, 3
4, 1
9, 2
3, 1
2, 0
4, 3
2, 5
3, 3
2, 5
3, 1
1, 1
3, 4
0, 3
2, 6
1, 2
1, 4
4, 4
2, 5
2, 3
4, 0
2, 2
1, 3
2, 1
7, 1
3, 1
1, 7
2, 4
1, 0
1, 2
3, 4
2, 2
3, 1
2, 3
0, 1
1, 3
0, 0
5, 3
1, 1
2, 6
2, 3
2, 1
7, 2
4, 1
0, 1
3, 2
2, 1
4, 4
3, 0
1, 1
2, 2
2, 4
3, 4
1, 2
2, 5
5, 4
5, 5
2, 3
7, 4
2, 3
4, 5
8, 1
1, 3
2, 1
3, 1
3, 2
0, 1
2, 0
3, 3
1, 1
3, 1
1, 0
5, 0
1, 1
1, 2
0, 2
0, 0
0, 0
2, 1
0, 1
2, 0
2, 1
2, 1
3, 0
3, 3
3, 2
3, 0
1, 0
5, 1
1, 1
5, 4
2, 2
7, 0
2, 2
3, 4
1, 0
0, 2
6, 1
3, 0
1, 0
2, 2
1, 3
0, 0
1, 2
1, 2
0, 1
2, 0
1, 3
3, 0
1, 1
0, 0
3, 2
0, 3
1, 1
0, 2
0, 3
1, 2
2, 1
0, 0
1, 1
0, 0
0, 2
0, 1
1, 1
0, 0
2, 0
2, 0
0, 1
0, 0
1, 1
1, 1
0, 2
0, 1
1, 2
1, 3
0, 1
0, 1
1, 1
0, 1
0, 2
0, 2
3, 1
0, 0
0, 0
1, 2
0, 1
0, 0
1, 2
2, 0
3, 1
0, 0
1, 0
0, 0
1, 0
1, 0
0, 0
2, 0
1, 0
0, 0
1, 0
2, 0
0, 0
1, 2
1, 1
2, 2
0, 0
2, 2
0, 1
0, 0
0, 1
0, 1
0, 2
1, 2
0, 0
0, 1
0, 1
0, 2
0, 1
1, 0
1, 1
1, 1
1, 0
2, 1
1, 2
1, 0
0, 1
1, 0
0, 0
0, 0
0, 0
0, 0
1, 1
1, 1
1, 0
1, 1
1, 0
0, 0
2, 0
1, 1
0, 1
0, 0
0, 0
0, 0
0, 0
0, 0
0, 1
1, 1
0, 0
1, 0
0, 0
1, 0
1, 1
0, 1
0, 2
0, 0
1, 1
1, 1
1, 0
1, 1
0, 1
0, 1
0, 1
1, 0
2, 0
0, 1
0, 0
0, 0
0, 0
0, 0
0, 0
0, 0
1, 0
0, 0
0, 0
0, 0
0, 0
0, 0
0, 1
0, 1
1, 0
1, 0
0, 0
0, 0
1, 0
1, 1
1, 0
1, 0
0, 2
0, 0
1, 1
0, 0
0, 0
0, 1
0, 0
1, 1
0, 0
0, 1
0, 0
0, 0
0, 0
1, 0
1, 0
1, 0
0, 0
0, 1
0, 0
0, 0
0, 0
0, 0
1, 0
0, 0
0, 1
1, 0
1, 0
0, 0
1, 0
0, 1
1, 0
0, 0
0, 0
0, 0
0, 1
0, 0
0, 1
1, 1
1, 0
0, 0
0, 0
0, 0
0, 0
1, 1
1, 0
0, 0
1, 0
0, 0
0, 0
0, 0
0, 0
1, 1
0, 0
0, 1
1, 0
1, 0
2, 0
1, 0
0, 0
0, 0
1, 0
1, 0
0, 1
0, 0
1, 0
0, 0
0, 2
1, 0
0, 0
0, 0
0, 1
0, 0
0, 0
0, 0
0, 0
0, 0
0, 0
0, 0
0, 0
0, 0
0, 1
0, 0
0, 1
0, 0
0, 0
2, 0
0, 1
0, 0
2, 0
0, 0
1, 1
0, 0
0, 0
0, 0
0, 0
2, 0
1, 0
0, 0
0, 0
0, 0
0, 0
0, 0
0, 0
0, 1
0, 0
0, 0
1, 0
0, 0
1, 0
0, 0
0, 0
0, 1
0, 0
0, 0
0, 0
0, 0
0, 0
0, 0
0, 0
0, 0
0, 0
0, 0
2, 0
0, 0
0, 0
0, 0
0, 0
0, 0
0, 0
0, 0
0, 0
0, 1
0, 0
0, 0
0, 0
0, 0
0, 0
0, 1
1, 0
0, 0
0, 0
0, 0
0, 0
0, 0
0, 0
0, 0
0, 0
0, 0
0, 0
0, 0
0, 1
0, 0
0, 0
0, 0
1, 0
0, 0
1, 0
0, 0
0, 0
0, 0
0, 0
0, 0
0, 2
0, 0
0, 0
1, 0
0, 0
0, 0
0, 0
0, 0
0, 0
0, 0
0, 1
0, 0
0, 0
0, 0
0, 0
0, 0
0, 0
0, 0
0, 0
0, 0
0, 0
0, 0
0, 0
0, 0
0, 0
0, 0
0, 1
0, 0
0, 0
0, 0
0, 0
0, 0
0, 0
0, 0
0, 0
0, 0
0, 0
0, 0
0, 0
0, 0
0, 0
0, 0
0, 0
0, 0
0, 0
0, 0
1, 0
0, 2
0, 0
0, 0
0, 0
0, 0
0, 0
0, 0
0, 0
0, 0
0, 0
0, 0
0, 0
0, 0
0, 0
0, 0
0, 0
0, 0
0, 0
0, 0
0, 0
0, 1
0, 0
0, 0
0, 0
0, 0
1, 0
0, 0
0, 0
0, 0
0, 0
0, 0
0, 0
0, 0
0, 0
0, 0
0, 0
0, 0
0, 0
0, 0
0, 0
0, 0
0, 0
0, 0
0, 0
0, 0
0, 0
0, 0
0, 0
0, 0
0, 0
0, 0
0, 0
0, 0
0, 0
0, 0
0, 0
0, 0
0, 0
0, 0
0, 0
0, 0
0, 0
0, 0
0, 0
0, 0
0, 0
0, 0
0, 0
0, 0
0, 0
0, 0
0, 0
0, 0
0, 0
0, 0
0, 0
0, 0
0, 0
0, 0
0, 0
0, 0
0, 0
0, 0
0, 0
0, 0
0, 0
0, 0
0, 0
0, 0
0, 0
0, 0
0, 0
0, 0
0, 0
0, 0
0, 0
0, 0
0, 0
0, 0
0, 0
0, 0
0, 0
0, 0
0, 0
0, 0
0, 0
0, 0
0, 0
0, 0
0, 0
0, 0
0, 0
0, 0
0, 0
0, 0
0, 0
0, 0
0, 0
0, 0
0, 0
0, 0
0, 0
0, 0
0, 0
0, 0
0, 0
0, 0
0, 0
0, 0
0, 0
0, 0
0, 0
0, 0
0, 0
0, 0
0, 0
0, 0
0, 0
0, 0
0, 0
0, 0
0, 0
0, 0
0, 0
0, 0
0, 0
0, 0
0, 0
0, 0
0, 0
0, 0
0, 0
0, 0
0, 0
0, 0
0, 0
0, 0
0, 0
0, 0
0, 0
0, 0
0, 0
0, 0
0, 0
0, 0
0, 0
0, 0
0, 0
0, 0
0, 0
0, 0
0, 0
0, 0
0, 0
0, 0
0, 0
0, 0
0, 0
0, 0
0, 0
0, 0
0, 0
0, 0
0, 0
0, 0
0, 0
0, 0
0, 0
0, 0
0, 0
0, 0
0, 0
0, 0
0, 0
0, 0
0, 0
0, 0
0, 0
0, 0
0, 0
0, 0
0, 0
0, 0
0, 0
0, 0
0, 0
0, 0
0, 0
0, 0
0, 0
0, 0
0, 0
0, 0
0, 0
0, 0
0, 0
0, 0
0, 0
0, 0
0, 0
0, 0
0, 0
0, 0
0, 0
0, 0
0, 0
0, 0
0, 0
0, 0
0, 0
0, 0
0, 0
0, 0
0, 0
0, 0
0, 0
0, 0
0, 0
0, 0
0, 0
0, 0
0, 0
0, 0
0, 0
0, 0
0, 0
0, 0
0, 0
0, 0
0, 0
0, 0
0, 0
0, 0
0, 0
0, 0
0, 0
0, 0
0, 0
0, 0
0, 0
0, 0
0, 0
0, 0
0, 0
0, 0
0, 0
0, 0
0, 0
0, 0
0, 0
0, 0
0, 0
0, 0
0, 0
0, 0
0, 0
0, 0
0, 0
0, 0
0, 0
0, 0
0, 0
0, 0
0, 0
0, 0
0, 0
0, 0
0, 0
0, 0
0, 0
0, 0
0, 0
0, 0
0, 0
0, 0
0, 0
0, 0
0, 0
0, 0
0, 0
0, 0
0, 0
0, 0
0, 0
0, 0
0, 0
0, 0
0, 0
0, 0
0, 0
0, 0
0, 0
0, 0
0, 0
0, 0
0, 0
0, 0
0, 0
0, 0
0, 0
0, 0
0, 0
0, 0
0, 0
0, 0
0, 0
0, 0
0, 0
0, 0
0, 0
0, 0
0, 0
0, 0
0, 0
0, 0
0, 0
0, 0
0, 0
0, 0
0, 0
0, 0
0, 0
0, 0
0, 0
0, 0
0, 0
0, 0
0, 0
0, 0
0, 0
0, 0
0, 0
0, 0
0, 0
0, 0
0, 0
0, 0
0, 0
0, 0
0, 0
0, 0
0, 0
0, 0
0, 0
0, 0
0, 0
0, 0
0, 0
0, 0
0, 0
0, 0
0, 0
0, 0
0, 0
0, 0
0, 0
0, 0
0, 0
0, 0
0, 0
0, 0
0, 0
0, 0
0, 0
0, 0
0, 0
0, 0
0, 0
0, 0
0, 0
0, 0
0, 0
0, 0
0, 0
0, 0
0, 0
0, 0
0, 0
0, 0
0, 0
0, 0
0, 0
0, 0
0, 0
0, 0
0, 0
0, 0
0, 0
0, 0
0, 0
0, 0
0, 0
0, 0
0, 0
0, 0
0, 0
0, 0
0, 0
0, 0
0, 0
0, 0
0, 0
0, 0
0, 0
0, 0
#ENDOFDATA     end of spectrum data