File: host_upload/06-09-2024/ps_0852/dump3/ps__0852shot_2550.msa
#FORMAT      : EMSA/MAS spectral data file
#VERSION     : TC202v2.0 PIXL
#TITLE       : N/A
#DATE        :       Date in the format DD-MMM-YYYY, for example 07-JUL-2010
#TIME        :             The time of day at which the spectrum was recorded, in 24-hour format
#OWNER       : PIXL Flight Model       (PIXL will use this to indicate which instrument took the data.)
#NPOINTS     : 4096     Number of data points in the spectrum (This can be zero for configuration only files)
#NCOLUMNS    : 2     Number of data columns in the spectrum (This can be zero for configuration only files)
#XUNITS      : eV
#YUNITS      : COUNTS
#DATATYPE    : YY
#XPERCHAN    : 7.862, 7.881   eV per channel (separate by commas if more than one detector)
#OFFSET      : 18.5, -22.4         eV of first channel  (separate by commas if more than one detector
#SIGNALTYPE  : XRF
#YP_TEMP     : 2.235
#LIVETIME    : 8.54855, 8.35123   seconds (separate by commas if more than one detector)
#REALTIME    : 10, 10.0   seconds (separate by commas if more than one detector)
#SPECTRUM    : start of spectrum data
0, 0
0, 0
0, 0
0, 0
0, 0
0, 0
0, 0
0, 0
0, 0
0, 0
0, 0
0, 0
0, 0
0, 0
0, 0
0, 0
0, 0
0, 0
0, 0
0, 0
0, 0
0, 0
0, 0
0, 0
0, 0
0, 0
0, 0
0, 0
0, 0
0, 0
0, 0
0, 0
0, 0
0, 0
0, 0
0, 0
0, 2
0, 1
0, 0
1, 1
1, 1
1, 0
1, 0
1, 1
2, 3
3, 0
3, 1
3, 3
4, 9
10, 8
26, 23
49, 33
78, 56
103, 64
112, 62
96, 69
71, 48
48, 35
40, 24
18, 16
14, 7
8, 1
1, 1
6, 9
7, 2
1, 6
9, 1
8, 12
22, 14
56, 41
103, 80
211, 160
289, 238
405, 351
461, 417
466, 401
389, 330
322, 275
208, 180
138, 105
85, 48
32, 24
21, 11
16, 9
10, 5
5, 6
2, 2
1, 3
0, 3
4, 2
1, 2
2, 0
4, 1
0, 0
3, 2
11, 9
9, 13
14, 11
8, 13
13, 11
13, 11
6, 9
6, 12
6, 4
7, 6
3, 1
4, 6
5, 4
8, 3
17, 11
21, 18
24, 20
26, 24
41, 29
39, 44
39, 42
36, 27
32, 24
38, 24
25, 25
17, 25
18, 14
20, 15
21, 24
13, 17
13, 13
8, 12
14, 14
13, 7
6, 5
4, 3
3, 4
6, 0
3, 4
3, 3
1, 2
2, 3
3, 4
1, 3
1, 2
2, 5
7, 1
4, 1
1, 4
4, 1
5, 3
2, 0
5, 1
4, 3
4, 1
5, 1
4, 4
10, 10
12, 9
22, 19
31, 25
36, 15
28, 27
36, 26
23, 27
20, 21
11, 9
12, 7
9, 2
7, 5
0, 4
2, 2
3, 4
7, 5
3, 6
7, 6
12, 12
5, 15
6, 15
3, 36
9, 21
4, 33
3, 33
2, 34
2, 25
6, 28
4, 24
5, 26
1, 15
4, 4
0, 4
5, 6
6, 6
3, 3
2, 14
18, 10
6, 9
15, 11
12, 18
16, 14
15, 35
23, 35
23, 36
24, 42
31, 40
38, 43
46, 24
69, 23
51, 12
63, 5
62, 8
52, 5
38, 2
46, 2
18, 5
21, 3
13, 6
8, 3
11, 2
9, 3
6, 4
12, 5
4, 3
8, 5
5, 5
8, 6
9, 9
11, 3
8, 7
5, 8
9, 5
13, 9
18, 10
19, 16
12, 13
12, 19
12, 9
11, 11
13, 10
9, 14
7, 7
13, 5
12, 8
3, 5
12, 5
5, 5
2, 3
6, 17
13, 8
9, 21
25, 19
26, 23
35, 33
42, 48
64, 46
69, 50
78, 49
68, 61
60, 34
52, 35
31, 33
27, 24
20, 11
22, 14
15, 17
19, 20
21, 20
55, 59
85, 92
169, 182
310, 333
480, 487
774, 824
1247, 1177
1650, 1656
2144, 2033
2523, 2245
2637, 2266
2642, 2098
2243, 1906
1916, 1482
1471, 994
948, 664
633, 377
352, 249
218, 144
147, 71
103, 40
100, 27
120, 22
103, 14
109, 15
89, 11
107, 18
101, 18
99, 30
92, 44
63, 49
85, 84
139, 110
138, 145
201, 257
278, 318
304, 334
342, 361
369, 368
368, 332
333, 286
265, 223
209, 176
140, 119
84, 70
59, 38
44, 34
23, 18
14, 13
5, 12
8, 9
9, 8
7, 8
16, 11
13, 10
11, 11
18, 13
9, 13
17, 6
17, 6
9, 8
11, 5
7, 5
7, 5
8, 3
3, 3
10, 2
4, 4
3, 4
5, 5
2, 6
0, 1
3, 2
0, 5
5, 1
2, 6
1, 5
4, 6
5, 2
4, 8
3, 5
1, 7
7, 3
4, 4
5, 3
3, 4
4, 7
5, 4
6, 6
5, 4
3, 5
5, 7
6, 6
8, 8
4, 5
4, 0
2, 7
5, 6
6, 4
6, 4
3, 4
4, 6
8, 5
3, 7
3, 5
7, 5
3, 7
6, 6
5, 4
3, 6
5, 9
4, 4
1, 6
6, 1
4, 5
3, 0
2, 5
1, 2
2, 7
3, 2
2, 4
2, 4
1, 10
4, 6
1, 1
0, 7
0, 4
6, 5
6, 9
4, 10
4, 18
6, 16
3, 22
5, 19
4, 20
4, 15
3, 10
6, 17
1, 13
5, 15
5, 4
7, 1
6, 5
7, 4
4, 2
8, 3
6, 2
7, 5
6, 2
11, 3
8, 2
14, 2
20, 5
23, 3
23, 1
26, 3
23, 3
27, 3
29, 3
21, 2
24, 1
15, 2
17, 5
10, 0
12, 3
6, 2
5, 1
5, 1
1, 6
5, 4
2, 2
3, 3
2, 0
3, 0
5, 1
2, 3
0, 1
4, 3
2, 1
1, 3
3, 5
3, 2
4, 4
2, 1
2, 6
1, 5
5, 5
2, 5
2, 3
1, 1
7, 6
3, 2
1, 2
0, 2
2, 1
3, 1
3, 1
4, 1
2, 5
3, 1
5, 1
2, 1
3, 6
3, 1
1, 2
1, 3
2, 0
2, 4
3, 3
3, 2
4, 2
2, 3
2, 4
3, 0
6, 1
3, 6
0, 3
3, 4
3, 2
0, 2
1, 2
1, 2
5, 3
2, 0
3, 3
3, 2
1, 0
2, 3
1, 3
0, 4
1, 4
0, 1
1, 5
1, 1
1, 6
1, 5
3, 2
2, 6
1, 3
0, 6
2, 1
1, 2
6, 0
1, 3
1, 1
1, 1
3, 2
0, 2
3, 1
2, 2
1, 1
0, 1
1, 2
1, 1
4, 1
0, 2
3, 1
1, 0
5, 0
0, 2
1, 2
0, 2
0, 1
4, 1
0, 2
3, 1
1, 1
3, 0
1, 3
1, 1
1, 2
4, 2
2, 2
2, 2
3, 3
2, 1
2, 0
2, 3
3, 1
3, 5
7, 3
3, 4
4, 0
2, 4
1, 3
5, 1
1, 1
2, 0
5, 3
1, 0
2, 3
2, 2
4, 1
2, 2
2, 1
1, 3
0, 1
0, 2
1, 0
2, 1
1, 4
2, 1
1, 3
3, 1
2, 1
4, 0
1, 0
2, 2
1, 1
2, 0
4, 2
2, 3
0, 2
0, 1
3, 3
3, 2
2, 1
0, 1
1, 2
1, 0
1, 1
3, 0
1, 2
3, 1
1, 2
0, 1
2, 3
0, 1
0, 1
2, 2
1, 2
0, 0
3, 2
0, 2
0, 2
0, 0
1, 0
2, 0
0, 4
0, 2
0, 1
1, 1
1, 1
1, 2
2, 0
6, 1
2, 1
1, 1
0, 2
6, 3
5, 1
4, 0
0, 1
0, 2
2, 1
1, 1
2, 1
1, 0
1, 2
1, 0
2, 1
0, 1
2, 0
1, 1
0, 2
3, 2
1, 0
0, 0
2, 1
1, 1
2, 0
3, 0
0, 1
0, 0
2, 1
1, 0
2, 1
1, 1
1, 1
1, 0
0, 0
0, 0
0, 2
0, 0
0, 0
0, 0
0, 0
0, 2
1, 1
1, 3
0, 1
2, 1
0, 0
2, 1
2, 0
1, 0
1, 3
1, 1
0, 0
0, 1
1, 1
0, 0
0, 0
0, 1
1, 0
0, 1
1, 2
1, 2
1, 1
0, 1
0, 0
1, 0
0, 1
0, 0
0, 0
0, 0
0, 2
1, 1
1, 0
1, 0
0, 0
0, 0
1, 0
0, 0
0, 2
1, 0
0, 0
0, 0
0, 1
0, 0
3, 1
1, 0
1, 0
0, 0
0, 1
1, 1
0, 3
0, 2
0, 0
0, 1
1, 0
0, 0
0, 0
1, 0
2, 0
1, 0
1, 1
1, 0
1, 1
1, 0
1, 0
0, 0
0, 0
0, 0
1, 1
0, 0
0, 1
1, 0
0, 0
0, 0
0, 0
0, 1
0, 0
0, 1
1, 0
1, 1
0, 0
0, 0
0, 0
0, 0
1, 0
0, 1
0, 0
0, 0
3, 1
0, 0
0, 1
0, 0
2, 0
0, 0
1, 0
0, 0
1, 1
0, 0
0, 0
0, 0
0, 2
0, 0
1, 2
1, 0
0, 1
0, 1
0, 0
0, 0
1, 0
0, 2
0, 0
1, 0
3, 1
0, 0
0, 1
1, 0
1, 0
1, 0
0, 0
0, 0
0, 0
0, 0
0, 0
1, 2
0, 0
0, 0
0, 0
0, 1
0, 0
0, 0
0, 0
0, 1
1, 0
0, 0
0, 0
1, 0
1, 1
0, 0
0, 1
1, 1
0, 1
1, 0
0, 2
0, 1
0, 0
0, 0
0, 0
1, 0
0, 1
0, 2
0, 1
0, 0
0, 1
0, 0
1, 0
0, 1
0, 0
1, 0
0, 0
0, 0
0, 1
0, 0
0, 0
0, 1
0, 2
0, 1
0, 0
0, 0
0, 0
0, 0
0, 0
0, 0
0, 1
0, 0
0, 0
0, 0
0, 0
0, 0
0, 0
0, 0
0, 0
0, 0
0, 0
0, 0
0, 0
0, 0
0, 0
0, 0
0, 0
0, 0
0, 0
0, 0
0, 0
0, 0
0, 0
0, 0
0, 0
0, 0
0, 0
0, 0
0, 1
0, 0
0, 1
0, 0
0, 0
0, 0
0, 0
0, 0
1, 0
0, 0
0, 0
1, 0
0, 0
0, 0
0, 0
0, 0
0, 0
0, 0
0, 0
0, 0
0, 0
0, 0
0, 0
1, 0
0, 0
1, 0
0, 0
0, 0
0, 0
0, 0
0, 0
0, 0
0, 0
0, 0
0, 0
0, 0
0, 0
0, 0
0, 0
0, 0
0, 0
0, 0
0, 0
0, 0
0, 1
0, 0
0, 0
1, 0
0, 0
0, 0
0, 0
1, 0
0, 0
0, 0
0, 1
0, 0
0, 0
0, 0
0, 0
0, 0
0, 0
0, 0
0, 0
0, 0
0, 0
0, 0
0, 0
0, 0
0, 0
0, 0
1, 1
0, 0
0, 0
0, 0
0, 0
0, 0
0, 0
0, 0
0, 0
0, 0
0, 0
0, 0
0, 0
0, 0
0, 0
0, 0
0, 0
0, 0
0, 0
0, 0
0, 0
0, 0
1, 1
0, 0
0, 0
0, 0
0, 0
0, 0
0, 0
0, 0
0, 0
0, 0
0, 0
0, 0
0, 0
0, 0
0, 0
0, 0
0, 0
0, 0
0, 0
0, 0
0, 0
0, 0
0, 0
0, 0
0, 1
0, 0
0, 0
0, 0
0, 0
0, 0
0, 0
0, 0
0, 0
0, 0
0, 0
0, 0
0, 0
1, 0
0, 0
0, 0
0, 0
0, 0
0, 0
0, 0
0, 0
0, 0
0, 0
0, 0
0, 0
0, 0
0, 0
0, 0
1, 0
0, 0
0, 0
0, 0
0, 0
0, 0
0, 0
0, 0
0, 0
0, 0
0, 0
0, 0
0, 0
0, 0
0, 0
0, 0
0, 0
0, 0
0, 0
0, 0
0, 0
0, 0
0, 0
0, 0
0, 0
0, 0
0, 0
0, 0
0, 0
0, 0
0, 0
0, 1
0, 0
0, 0
0, 0
0, 0
0, 0
0, 0
0, 0
0, 0
0, 0
0, 0
0, 0
0, 0
0, 0
0, 0
0, 0
0, 0
0, 0
0, 0
0, 0
0, 0
0, 0
0, 0
0, 0
0, 0
0, 0
0, 0
0, 0
0, 0
0, 0
0, 0
0, 0
0, 0
0, 0
0, 0
0, 0
0, 0
0, 0
0, 0
0, 0
0, 0
0, 0
0, 0
0, 0
0, 0
0, 0
0, 0
0, 0
0, 0
0, 0
0, 0
0, 0
0, 0
0, 0
0, 0
0, 0
0, 0
0, 0
0, 0
0, 0
0, 0
0, 0
0, 0
0, 0
0, 0
0, 0
0, 0
0, 0
0, 0
0, 0
0, 0
0, 0
0, 0
0, 0
0, 0
0, 0
0, 0
0, 0
0, 0
0, 0
0, 0
0, 0
0, 0
0, 0
0, 0
0, 0
0, 0
0, 0
0, 0
0, 0
0, 0
0, 0
0, 0
0, 0
0, 0
0, 0
0, 0
0, 0
0, 0
0, 0
0, 0
0, 0
0, 0
0, 0
0, 0
0, 0
0, 0
0, 0
0, 0
0, 0
0, 0
0, 0
0, 0
0, 0
0, 0
0, 0
0, 0
0, 0
0, 0
0, 0
0, 0
0, 0
0, 0
0, 0
0, 0
0, 0
0, 0
0, 0
0, 0
0, 0
0, 0
0, 0
0, 0
0, 0
0, 0
0, 0
0, 0
0, 0
0, 0
0, 0
0, 0
0, 0
0, 0
0, 0
0, 0
0, 0
0, 0
0, 0
0, 0
0, 0
0, 0
0, 0
0, 0
0, 0
0, 0
0, 0
0, 0
0, 0
0, 0
0, 0
0, 0
0, 0
0, 0
0, 0
0, 0
0, 0
0, 0
0, 0
0, 0
0, 0
0, 0
0, 0
0, 0
0, 0
0, 0
0, 0
0, 0
0, 0
0, 0
0, 0
0, 0
0, 0
0, 0
0, 0
0, 0
0, 0
0, 0
0, 0
0, 0
0, 0
0, 0
0, 0
0, 0
0, 0
0, 0
0, 0
0, 0
0, 0
0, 0
0, 0
0, 0
0, 0
0, 0
0, 0
0, 0
0, 0
0, 0
0, 0
0, 0
0, 0
0, 0
0, 0
0, 0
0, 0
0, 0
0, 0
0, 0
0, 0
0, 0
0, 0
0, 0
0, 0
0, 0
0, 0
0, 0
0, 0
0, 0
0, 0
0, 0
0, 0
0, 0
0, 0
0, 0
0, 0
0, 0
0, 0
0, 0
0, 0
0, 0
0, 0
0, 0
0, 0
0, 0
0, 0
0, 0
0, 0
0, 0
0, 0
0, 0
0, 0
0, 0
0, 0
0, 0
0, 0
0, 0
0, 0
0, 0
0, 0
0, 0
0, 0
0, 0
0, 0
0, 0
0, 0
0, 0
0, 0
0, 0
0, 0
0, 0
0, 0
0, 0
0, 0
0, 0
0, 0
0, 0
0, 0
0, 0
0, 0
0, 0
0, 0
0, 0
0, 0
0, 0
0, 0
0, 0
0, 0
0, 0
0, 0
0, 0
0, 0
0, 0
0, 0
0, 0
0, 0
0, 0
0, 0
0, 0
0, 0
0, 0
0, 0
0, 0
0, 0
0, 0
0, 0
0, 0
0, 0
0, 0
0, 0
0, 0
0, 0
0, 0
0, 0
0, 0
0, 0
0, 0
0, 0
0, 0
0, 0
0, 0
0, 0
0, 0
0, 0
0, 0
0, 0
0, 0
0, 0
0, 0
0, 0
0, 0
0, 0
0, 0
0, 0
0, 0
0, 0
0, 0
0, 0
0, 0
0, 0
0, 0
0, 0
0, 0
0, 0
0, 0
#ENDOFDATA     end of spectrum data