File: host_upload/06-09-2024/ps_0852/dump3/ps__0852shot_2135.msa
#FORMAT      : EMSA/MAS spectral data file
#VERSION     : TC202v2.0 PIXL
#TITLE       : N/A
#DATE        :       Date in the format DD-MMM-YYYY, for example 07-JUL-2010
#TIME        :             The time of day at which the spectrum was recorded, in 24-hour format
#OWNER       : PIXL Flight Model       (PIXL will use this to indicate which instrument took the data.)
#NPOINTS     : 4096     Number of data points in the spectrum (This can be zero for configuration only files)
#NCOLUMNS    : 2     Number of data columns in the spectrum (This can be zero for configuration only files)
#XUNITS      : eV
#YUNITS      : COUNTS
#DATATYPE    : YY
#XPERCHAN    : 7.862, 7.881   eV per channel (separate by commas if more than one detector)
#OFFSET      : 18.5, -22.4         eV of first channel  (separate by commas if more than one detector
#SIGNALTYPE  : XRF
#YP_TEMP     : 2.396
#LIVETIME    : 8.5665, 8.55171   seconds (separate by commas if more than one detector)
#REALTIME    : 10, 10.0   seconds (separate by commas if more than one detector)
#SPECTRUM    : start of spectrum data
0, 0
0, 0
0, 0
0, 0
0, 0
0, 0
0, 0
0, 0
0, 0
0, 0
0, 0
0, 0
0, 0
0, 0
0, 0
0, 0
0, 0
0, 0
0, 0
0, 0
0, 0
0, 0
0, 0
0, 0
0, 0
0, 0
0, 0
0, 0
0, 0
0, 0
0, 0
0, 0
0, 0
0, 0
0, 0
0, 0
0, 0
1, 1
2, 0
1, 0
0, 2
2, 2
0, 1
2, 1
3, 1
0, 0
0, 4
2, 2
9, 3
12, 14
36, 25
43, 40
72, 67
77, 79
98, 87
66, 77
74, 46
43, 38
32, 23
14, 6
8, 10
8, 4
7, 3
4, 4
1, 3
7, 2
4, 4
13, 9
30, 23
46, 46
111, 83
180, 169
295, 258
377, 316
466, 391
462, 399
394, 338
284, 279
206, 191
147, 99
55, 58
39, 33
18, 14
12, 9
7, 4
3, 5
1, 3
2, 1
3, 2
1, 0
2, 0
6, 2
1, 2
2, 2
2, 3
2, 0
1, 4
2, 4
4, 1
5, 3
2, 1
5, 7
4, 5
3, 4
3, 7
4, 6
2, 6
10, 10
15, 12
12, 8
21, 19
36, 28
52, 36
69, 46
70, 55
64, 56
66, 52
68, 42
59, 37
48, 41
57, 34
43, 35
60, 25
66, 27
67, 21
71, 20
48, 9
48, 11
28, 7
17, 5
21, 3
4, 4
8, 4
8, 2
4, 4
4, 1
5, 1
4, 2
2, 0
1, 5
1, 1
2, 2
6, 2
3, 2
3, 2
3, 6
1, 3
4, 5
3, 5
1, 8
5, 16
4, 13
8, 15
12, 21
12, 18
19, 26
11, 21
15, 27
14, 26
12, 19
18, 8
11, 14
7, 10
7, 9
1, 9
5, 6
5, 6
3, 12
8, 9
7, 7
4, 10
5, 6
14, 8
9, 8
7, 5
5, 6
8, 6
7, 7
12, 7
5, 9
10, 9
16, 7
7, 7
7, 12
5, 13
5, 7
15, 4
10, 8
7, 8
15, 8
12, 8
20, 15
18, 14
41, 18
24, 8
28, 18
36, 22
37, 16
29, 36
16, 33
18, 34
25, 31
12, 52
14, 35
10, 35
9, 25
12, 35
10, 20
5, 13
14, 13
6, 5
4, 14
4, 6
5, 5
9, 6
7, 13
14, 6
9, 8
5, 5
9, 5
3, 7
4, 4
10, 12
6, 10
6, 18
8, 7
9, 9
9, 21
11, 18
11, 23
11, 16
9, 17
14, 15
24, 9
13, 11
19, 19
14, 8
11, 9
12, 13
6, 10
9, 16
22, 20
12, 17
17, 16
24, 26
35, 36
44, 32
74, 50
55, 64
95, 72
87, 65
82, 60
80, 62
53, 61
43, 62
38, 54
29, 49
18, 30
9, 32
19, 38
17, 21
23, 41
56, 48
98, 110
170, 209
271, 305
490, 581
772, 877
1187, 1307
1704, 1735
2055, 2003
2321, 2315
2436, 2277
2472, 2110
2192, 1848
1847, 1501
1322, 1015
975, 679
634, 424
375, 239
231, 146
118, 59
56, 42
31, 24
22, 13
28, 17
18, 11
14, 17
24, 17
25, 28
26, 24
32, 42
45, 55
73, 93
100, 131
165, 176
202, 224
229, 284
292, 307
324, 327
375, 331
333, 312
296, 266
265, 208
202, 168
136, 116
86, 63
74, 40
36, 24
25, 13
16, 8
15, 13
22, 11
23, 9
11, 7
15, 8
26, 10
22, 10
13, 12
21, 13
19, 12
17, 10
13, 7
11, 6
17, 9
9, 3
9, 9
6, 4
5, 8
12, 8
6, 8
7, 3
8, 8
6, 8
3, 2
5, 4
2, 3
6, 9
8, 4
3, 3
3, 9
7, 3
4, 7
8, 10
8, 5
10, 5
9, 7
7, 8
4, 5
14, 10
9, 4
9, 7
6, 4
10, 12
10, 9
5, 8
6, 8
5, 5
3, 4
5, 5
7, 5
5, 4
4, 3
3, 5
7, 7
3, 2
2, 6
9, 9
4, 3
5, 8
12, 3
2, 2
5, 11
6, 2
7, 3
9, 4
2, 1
5, 2
5, 6
2, 5
6, 5
8, 7
3, 4
4, 3
4, 4
3, 2
6, 4
5, 6
2, 6
5, 5
7, 2
6, 5
8, 4
2, 8
6, 3
6, 2
10, 11
3, 5
8, 7
7, 3
6, 5
3, 4
5, 4
3, 3
3, 6
4, 3
8, 5
10, 7
6, 3
5, 4
6, 7
2, 6
5, 4
3, 3
7, 4
5, 7
2, 4
4, 3
2, 5
6, 3
5, 2
3, 6
4, 4
0, 7
6, 2
2, 5
3, 2
6, 1
8, 4
2, 5
6, 1
4, 5
3, 4
3, 2
2, 1
3, 4
4, 6
6, 4
7, 3
5, 6
5, 4
2, 1
0, 3
4, 3
4, 6
1, 3
2, 1
3, 3
4, 3
5, 2
6, 0
3, 6
3, 2
5, 6
2, 2
3, 1
3, 1
3, 3
7, 1
7, 3
2, 3
2, 4
5, 3
3, 2
2, 4
2, 5
4, 4
2, 0
3, 6
2, 2
2, 3
4, 5
2, 0
3, 5
1, 1
2, 5
0, 3
1, 5
2, 3
1, 0
4, 3
1, 3
3, 2
1, 1
2, 3
3, 1
4, 0
3, 0
3, 2
3, 4
4, 3
5, 2
2, 1
2, 3
5, 0
1, 3
4, 3
0, 2
4, 2
0, 4
2, 2
0, 4
6, 6
1, 2
0, 5
4, 1
2, 4
1, 5
2, 1
1, 3
4, 2
0, 4
1, 3
2, 4
6, 3
0, 1
1, 3
7, 4
3, 3
1, 5
1, 2
6, 1
0, 0
0, 1
2, 0
4, 0
0, 1
4, 0
2, 2
1, 1
1, 3
2, 1
1, 3
1, 0
2, 3
2, 2
1, 2
4, 4
5, 3
3, 0
2, 3
4, 4
3, 4
6, 2
4, 2
5, 2
6, 2
3, 3
4, 3
2, 2
2, 2
2, 1
4, 1
3, 2
2, 1
1, 3
0, 3
2, 3
3, 0
2, 2
0, 1
1, 2
0, 1
1, 3
3, 2
3, 2
4, 0
4, 3
2, 0
4, 3
1, 0
6, 2
2, 0
2, 4
4, 2
3, 3
1, 2
2, 0
2, 0
0, 0
2, 0
2, 0
2, 1
1, 4
1, 3
3, 3
1, 1
1, 2
1, 4
1, 0
2, 1
1, 2
1, 0
2, 1
2, 1
0, 1
1, 2
2, 0
2, 1
0, 2
1, 1
0, 2
1, 4
1, 0
2, 0
1, 1
2, 2
3, 1
0, 2
2, 1
2, 0
1, 0
2, 0
1, 0
1, 3
0, 1
3, 2
0, 1
0, 1
2, 2
2, 1
2, 0
1, 0
0, 0
3, 0
1, 1
0, 1
2, 1
1, 1
2, 2
0, 2
1, 2
0, 2
1, 2
1, 1
0, 1
0, 0
0, 0
0, 0
0, 1
0, 1
1, 1
0, 2
0, 1
1, 0
2, 1
0, 1
2, 0
1, 0
2, 0
1, 1
0, 0
0, 1
0, 0
1, 0
3, 0
1, 0
2, 1
0, 0
2, 0
0, 0
1, 0
1, 1
0, 1
0, 1
2, 0
0, 1
0, 0
0, 0
0, 0
1, 0
2, 0
1, 0
0, 0
1, 2
0, 2
1, 0
0, 0
0, 0
0, 0
0, 0
0, 1
0, 0
1, 0
0, 0
1, 1
0, 0
0, 0
0, 0
1, 1
0, 0
0, 2
0, 0
1, 1
1, 0
3, 0
0, 0
0, 0
0, 0
0, 2
0, 0
0, 0
0, 1
0, 1
0, 0
0, 0
0, 2
0, 0
1, 0
0, 1
0, 0
1, 0
0, 0
0, 0
0, 0
0, 0
0, 0
1, 0
0, 0
0, 0
0, 0
0, 0
1, 0
0, 0
0, 0
2, 0
0, 0
0, 0
0, 1
0, 0
1, 0
0, 1
0, 0
0, 2
0, 0
0, 0
0, 0
0, 0
0, 0
1, 0
0, 1
0, 1
1, 1
0, 0
0, 1
1, 1
0, 0
0, 0
1, 0
0, 0
0, 0
0, 0
1, 0
0, 0
0, 0
1, 0
0, 0
0, 0
0, 0
0, 0
0, 0
0, 1
0, 1
0, 0
0, 0
0, 1
0, 0
0, 1
0, 0
0, 0
1, 1
0, 0
0, 0
0, 0
0, 1
0, 0
0, 0
0, 3
0, 0
0, 0
0, 0
0, 0
0, 0
0, 0
0, 0
0, 0
0, 0
0, 0
1, 0
0, 0
0, 1
0, 0
1, 1
1, 0
0, 0
0, 0
0, 1
1, 2
0, 0
0, 0
0, 0
0, 1
0, 0
0, 0
1, 0
0, 0
1, 0
0, 0
0, 0
0, 0
0, 1
0, 0
1, 0
0, 0
0, 0
0, 0
0, 0
0, 1
0, 0
0, 0
1, 0
0, 0
0, 0
0, 0
1, 0
0, 0
0, 0
0, 0
0, 0
0, 0
0, 0
1, 0
0, 0
0, 0
0, 0
0, 0
0, 0
0, 0
1, 0
0, 0
0, 0
1, 0
0, 0
0, 0
0, 0
0, 0
0, 0
0, 0
0, 1
0, 0
1, 0
1, 0
1, 0
0, 0
0, 0
0, 1
0, 0
0, 0
1, 1
0, 0
0, 0
0, 0
0, 0
0, 0
1, 0
0, 0
0, 0
0, 0
0, 0
0, 0
0, 0
0, 0
0, 0
0, 0
0, 0
0, 0
0, 0
0, 0
0, 0
0, 0
0, 0
0, 0
0, 0
0, 0
0, 0
0, 1
0, 0
0, 0
1, 0
0, 0
0, 0
0, 0
1, 0
0, 0
0, 0
0, 0
0, 0
0, 0
0, 0
0, 0
0, 0
0, 0
0, 0
0, 0
0, 0
1, 0
0, 0
0, 0
0, 0
0, 0
0, 0
0, 0
0, 0
0, 0
0, 0
0, 0
0, 0
0, 0
0, 0
0, 0
0, 0
1, 0
0, 0
0, 0
0, 0
0, 0
0, 0
0, 0
0, 0
0, 0
0, 0
0, 0
0, 0
1, 0
0, 0
0, 0
0, 0
0, 0
0, 0
0, 0
0, 0
0, 0
0, 0
0, 0
0, 0
0, 0
0, 0
0, 0
1, 0
0, 0
0, 0
0, 0
0, 0
0, 0
0, 0
0, 0
0, 0
0, 0
0, 0
0, 0
0, 0
0, 0
0, 0
0, 0
0, 0
0, 0
0, 0
0, 0
0, 0
0, 0
0, 0
0, 0
0, 0
0, 0
0, 0
0, 0
0, 0
0, 0
0, 0
0, 0
0, 0
0, 0
0, 0
0, 0
0, 0
0, 0
0, 0
0, 0
0, 0
0, 0
0, 0
0, 0
0, 0
0, 0
0, 0
0, 0
0, 0
0, 1
0, 0
0, 0
0, 0
0, 0
0, 0
0, 0
0, 0
0, 0
0, 0
0, 0
0, 0
0, 0
0, 0
0, 0
0, 0
0, 0
0, 0
0, 0
0, 0
0, 0
0, 0
0, 0
0, 0
0, 0
0, 0
0, 0
0, 0
0, 0
0, 0
0, 0
0, 0
0, 0
0, 0
0, 0
0, 0
0, 0
0, 0
0, 0
0, 0
0, 0
0, 0
0, 0
0, 0
0, 0
0, 0
0, 0
0, 0
0, 0
0, 0
0, 0
0, 0
0, 0
0, 0
0, 0
0, 0
0, 0
0, 0
0, 0
0, 0
0, 0
0, 0
0, 0
0, 0
0, 0
0, 0
0, 0
0, 0
0, 0
0, 0
0, 0
0, 0
0, 0
0, 0
0, 0
0, 0
0, 0
0, 0
0, 0
0, 0
0, 0
0, 0
0, 0
0, 0
0, 0
0, 0
0, 0
0, 0
0, 0
0, 0
0, 0
0, 0
0, 0
0, 0
0, 0
0, 0
0, 0
0, 0
0, 0
0, 0
0, 0
0, 0
0, 0
0, 0
0, 0
0, 0
0, 0
0, 0
0, 0
0, 0
0, 0
0, 0
0, 0
0, 0
0, 0
0, 0
0, 0
0, 0
0, 0
0, 0
0, 0
0, 0
0, 0
0, 0
0, 0
0, 0
0, 0
0, 0
0, 0
0, 0
0, 0
0, 0
0, 0
0, 0
0, 0
0, 0
0, 0
0, 0
0, 0
0, 0
0, 0
0, 0
0, 0
0, 0
0, 0
0, 0
0, 0
0, 0
0, 0
0, 0
0, 0
0, 0
0, 0
0, 0
0, 0
0, 0
0, 0
0, 0
0, 0
0, 0
0, 0
0, 0
0, 0
0, 0
0, 0
0, 0
0, 0
0, 0
0, 0
0, 0
0, 0
0, 0
0, 0
0, 0
0, 0
0, 0
0, 0
0, 0
0, 0
0, 0
0, 0
0, 0
0, 0
0, 0
0, 0
0, 0
0, 0
0, 0
0, 0
0, 0
0, 0
0, 0
0, 0
0, 0
0, 0
0, 0
0, 0
0, 0
0, 0
0, 0
0, 0
0, 0
0, 0
0, 0
0, 0
0, 0
0, 0
0, 0
0, 0
0, 0
0, 0
0, 0
0, 0
0, 0
0, 0
0, 0
0, 0
0, 0
0, 0
0, 0
0, 0
0, 0
0, 0
0, 0
0, 0
0, 0
0, 0
0, 0
0, 0
0, 0
0, 0
0, 0
0, 0
0, 0
0, 0
0, 0
0, 0
0, 0
0, 0
0, 0
0, 0
0, 0
0, 0
0, 0
0, 0
0, 0
0, 0
0, 0
0, 0
0, 0
0, 0
0, 0
0, 0
0, 0
0, 0
0, 0
0, 0
0, 0
0, 0
0, 0
0, 0
0, 0
0, 0
0, 0
0, 0
0, 0
0, 0
0, 0
0, 0
0, 0
0, 0
0, 0
0, 0
0, 0
0, 0
0, 0
0, 0
0, 0
0, 0
0, 0
0, 0
0, 0
0, 0
0, 0
0, 0
0, 0
0, 0
0, 0
0, 0
0, 0
0, 0
0, 0
0, 0
0, 0
0, 0
0, 0
0, 0
0, 0
0, 0
0, 0
0, 0
0, 0
0, 0
0, 0
0, 0
0, 0
0, 0
0, 0
0, 0
0, 0
0, 0
0, 0
0, 0
0, 0
0, 0
0, 0
0, 0
0, 0
0, 0
0, 0
0, 0
0, 0
0, 0
0, 0
0, 0
0, 0
0, 0
0, 0
0, 0
0, 0
0, 0
0, 0
0, 0
0, 0
0, 0
0, 0
0, 0
0, 0
0, 0
0, 0
0, 0
0, 0
0, 0
0, 0
0, 0
0, 0
0, 0
0, 0
0, 0
0, 0
0, 0
0, 0
0, 0
0, 0
0, 0
0, 0
0, 0
0, 0
0, 0
0, 0
0, 0
0, 0
0, 0
0, 0
0, 0
0, 0
0, 0
0, 0
0, 0
#ENDOFDATA     end of spectrum data