File: host_upload/06-09-2024/ps_0852/dump3/ps__0852shot_2098.msa
#FORMAT      : EMSA/MAS spectral data file
#VERSION     : TC202v2.0 PIXL
#TITLE       : N/A
#DATE        :       Date in the format DD-MMM-YYYY, for example 07-JUL-2010
#TIME        :             The time of day at which the spectrum was recorded, in 24-hour format
#OWNER       : PIXL Flight Model       (PIXL will use this to indicate which instrument took the data.)
#NPOINTS     : 4096     Number of data points in the spectrum (This can be zero for configuration only files)
#NCOLUMNS    : 2     Number of data columns in the spectrum (This can be zero for configuration only files)
#XUNITS      : eV
#YUNITS      : COUNTS
#DATATYPE    : YY
#XPERCHAN    : 7.862, 7.881   eV per channel (separate by commas if more than one detector)
#OFFSET      : 18.5, -22.4         eV of first channel  (separate by commas if more than one detector
#SIGNALTYPE  : XRF
#YP_TEMP     : 2.3
#LIVETIME    : 8.55981, 8.58295   seconds (separate by commas if more than one detector)
#REALTIME    : 10, 10.0   seconds (separate by commas if more than one detector)
#SPECTRUM    : start of spectrum data
0, 0
0, 0
0, 0
0, 0
0, 0
0, 0
0, 0
0, 0
0, 0
0, 0
0, 0
0, 0
0, 0
0, 0
0, 0
0, 0
0, 0
0, 0
0, 0
0, 0
0, 0
0, 0
0, 0
0, 0
0, 0
0, 0
0, 0
0, 0
0, 0
0, 0
0, 0
0, 0
0, 0
2, 0
0, 1
0, 1
1, 4
1, 1
0, 1
0, 1
0, 3
1, 2
1, 0
3, 3
1, 2
1, 3
2, 4
3, 4
6, 8
11, 15
23, 17
32, 45
69, 56
64, 69
78, 79
61, 77
52, 57
38, 47
30, 29
22, 14
9, 4
5, 2
5, 4
3, 3
2, 2
2, 2
10, 3
17, 9
26, 33
49, 42
86, 80
178, 159
244, 237
347, 351
401, 409
422, 399
349, 329
259, 275
183, 190
113, 122
68, 69
28, 40
12, 19
7, 9
4, 3
3, 0
1, 1
2, 4
0, 2
3, 2
1, 3
7, 0
11, 10
12, 21
32, 32
57, 62
71, 85
127, 119
123, 154
162, 156
142, 133
105, 103
63, 89
50, 41
30, 33
18, 18
19, 18
13, 22
13, 9
15, 16
20, 26
17, 22
20, 20
34, 35
32, 36
39, 26
36, 24
27, 30
29, 25
24, 20
23, 29
22, 20
25, 20
10, 14
12, 16
13, 14
16, 14
10, 7
8, 11
7, 7
7, 4
3, 3
2, 2
2, 3
1, 0
2, 7
0, 2
2, 4
5, 4
2, 3
2, 1
1, 2
0, 3
1, 2
3, 2
2, 1
3, 3
3, 2
4, 4
1, 4
0, 4
5, 10
7, 11
5, 2
11, 15
16, 13
12, 14
11, 25
12, 16
11, 18
8, 9
5, 10
6, 8
7, 10
4, 6
2, 12
1, 4
6, 5
5, 6
6, 11
2, 5
4, 1
4, 6
8, 0
9, 1
3, 2
3, 2
3, 5
0, 2
0, 2
3, 2
2, 3
3, 0
4, 3
4, 8
11, 4
18, 2
31, 3
49, 5
67, 4
98, 4
112, 8
88, 7
85, 5
98, 12
83, 8
70, 19
59, 15
48, 16
58, 12
40, 14
40, 10
46, 7
49, 4
32, 5
30, 2
27, 2
23, 5
14, 9
9, 8
10, 6
6, 5
4, 4
4, 6
9, 6
4, 5
0, 3
9, 4
7, 6
8, 4
4, 9
8, 8
10, 7
7, 9
6, 11
9, 8
13, 6
13, 14
10, 15
16, 9
13, 8
9, 11
13, 9
10, 19
7, 15
7, 21
6, 24
9, 14
8, 21
7, 26
5, 25
4, 23
6, 25
9, 23
12, 39
18, 41
23, 62
29, 81
46, 117
50, 92
52, 97
62, 93
50, 88
43, 58
41, 46
38, 37
19, 32
20, 26
30, 15
25, 18
26, 7
41, 23
59, 62
88, 98
175, 212
279, 365
478, 551
814, 973
1080, 1406
1497, 1752
1879, 2105
2224, 2387
2407, 2356
2310, 2137
2024, 1945
1719, 1521
1314, 1083
887, 762
554, 403
324, 256
184, 139
112, 75
55, 41
30, 20
18, 19
15, 23
4, 10
12, 17
16, 16
17, 17
25, 25
28, 33
41, 48
74, 83
111, 115
150, 168
196, 207
255, 256
310, 292
350, 319
320, 377
315, 304
284, 253
275, 206
176, 148
124, 103
81, 59
44, 43
24, 23
23, 7
10, 10
15, 6
5, 2
12, 7
10, 17
11, 18
14, 18
20, 7
17, 14
15, 10
16, 12
26, 13
22, 12
18, 9
10, 11
9, 9
8, 12
8, 5
5, 10
5, 4
4, 0
6, 5
5, 7
2, 3
6, 7
7, 1
1, 4
3, 2
5, 2
2, 2
1, 5
2, 5
2, 5
1, 1
3, 5
6, 2
6, 7
2, 2
5, 5
2, 7
4, 2
6, 3
4, 5
2, 6
5, 4
2, 3
1, 1
6, 3
5, 5
6, 3
2, 0
1, 2
1, 0
2, 7
3, 3
4, 4
9, 7
3, 2
8, 8
7, 3
5, 3
4, 3
2, 3
2, 5
4, 4
7, 3
7, 3
7, 2
8, 3
2, 4
4, 2
1, 5
3, 4
3, 6
5, 3
9, 3
3, 3
10, 1
7, 1
16, 4
6, 2
11, 5
21, 8
27, 3
18, 5
22, 5
18, 6
23, 6
9, 14
11, 11
11, 12
7, 10
4, 4
3, 16
4, 6
4, 2
6, 4
4, 6
2, 5
0, 3
3, 3
4, 3
2, 2
6, 3
2, 3
2, 5
3, 0
3, 3
1, 3
0, 2
0, 3
2, 3
2, 1
2, 2
2, 2
1, 2
7, 0
3, 2
4, 2
2, 1
1, 0
3, 2
4, 1
3, 4
2, 0
2, 3
1, 1
4, 3
2, 1
3, 2
8, 6
3, 8
3, 1
7, 4
6, 1
6, 3
5, 3
2, 1
7, 1
4, 3
3, 3
1, 0
5, 3
5, 1
3, 1
5, 3
0, 3
2, 5
4, 6
2, 3
5, 1
2, 3
3, 2
0, 0
2, 1
3, 3
4, 5
4, 1
4, 5
3, 2
3, 0
0, 2
3, 0
1, 4
1, 2
2, 2
2, 3
2, 3
3, 1
2, 2
1, 4
0, 1
2, 2
6, 3
1, 2
0, 3
0, 4
0, 1
2, 3
0, 0
0, 1
1, 1
5, 6
1, 4
1, 4
1, 0
1, 7
2, 10
2, 2
0, 8
7, 8
2, 5
1, 6
4, 3
1, 4
3, 6
4, 3
5, 3
1, 1
0, 2
6, 3
1, 1
3, 1
2, 1
3, 0
0, 0
1, 1
2, 2
0, 2
0, 4
0, 1
3, 0
1, 2
1, 2
2, 2
2, 3
1, 2
1, 3
0, 0
3, 2
6, 2
5, 2
1, 0
0, 1
3, 0
1, 1
0, 3
5, 2
3, 1
2, 3
3, 4
3, 3
2, 1
6, 5
5, 5
4, 1
1, 5
2, 2
0, 4
3, 1
4, 2
1, 10
3, 0
4, 2
1, 0
2, 3
1, 0
1, 3
2, 0
1, 1
2, 1
3, 0
1, 1
0, 3
1, 3
0, 2
2, 3
3, 2
2, 0
2, 0
3, 3
3, 1
4, 3
0, 2
2, 1
2, 1
4, 4
0, 1
3, 0
4, 1
1, 0
0, 1
2, 0
4, 1
2, 2
1, 2
1, 3
2, 2
1, 0
2, 1
1, 0
1, 0
2, 0
1, 1
1, 1
4, 3
0, 0
0, 1
2, 3
0, 1
1, 2
1, 2
1, 1
0, 0
1, 1
1, 1
0, 0
3, 1
1, 0
2, 0
1, 0
0, 0
1, 0
1, 1
1, 0
3, 1
0, 0
0, 0
1, 1
0, 1
1, 0
0, 2
0, 1
2, 3
0, 0
0, 0
1, 2
0, 1
0, 0
0, 0
1, 0
0, 1
0, 2
1, 0
1, 1
1, 2
1, 0
0, 1
0, 1
1, 1
1, 0
1, 0
0, 2
0, 0
0, 0
1, 0
0, 0
0, 0
0, 0
0, 1
1, 2
0, 0
0, 0
1, 0
0, 0
0, 0
0, 2
0, 0
0, 0
1, 0
1, 0
1, 0
0, 0
3, 0
0, 0
1, 1
1, 0
0, 1
0, 1
1, 0
0, 0
0, 0
2, 3
1, 1
1, 0
0, 0
0, 0
1, 0
0, 1
0, 0
1, 1
0, 1
0, 1
1, 0
0, 1
0, 0
0, 0
0, 0
1, 1
0, 1
2, 1
2, 1
1, 0
0, 0
2, 0
1, 0
1, 0
3, 0
0, 0
1, 0
0, 0
1, 0
0, 0
0, 0
0, 0
0, 0
1, 2
0, 0
1, 0
0, 0
0, 0
0, 3
0, 0
0, 1
0, 2
0, 0
1, 1
0, 0
0, 1
1, 1
0, 0
1, 0
1, 1
0, 0
0, 0
0, 0
0, 0
0, 0
0, 0
0, 0
1, 0
0, 0
0, 2
0, 0
0, 0
0, 1
0, 0
0, 0
0, 0
0, 0
0, 0
1, 0
0, 0
0, 0
0, 0
0, 0
0, 0
0, 1
1, 0
1, 0
0, 0
0, 0
1, 0
0, 0
0, 0
1, 0
1, 0
0, 1
0, 0
1, 0
0, 0
0, 0
0, 0
1, 0
1, 0
0, 0
0, 0
0, 1
2, 0
0, 0
1, 1
0, 1
0, 0
0, 0
0, 1
1, 0
0, 0
0, 0
0, 0
1, 0
0, 0
0, 0
0, 0
1, 0
2, 0
0, 0
0, 0
0, 0
0, 0
0, 0
1, 0
0, 0
0, 0
1, 0
1, 0
0, 0
0, 0
0, 0
0, 0
0, 1
0, 0
0, 0
0, 0
0, 2
0, 1
0, 0
1, 0
0, 0
0, 0
0, 0
0, 0
0, 0
0, 0
0, 0
0, 0
0, 0
0, 0
0, 0
0, 0
0, 0
0, 0
0, 0
0, 0
0, 0
0, 0
1, 0
0, 0
0, 0
0, 0
1, 0
1, 0
0, 1
0, 0
0, 0
1, 0
0, 0
0, 0
0, 0
0, 0
0, 0
0, 0
0, 0
0, 0
0, 0
0, 0
0, 0
0, 0
1, 0
0, 0
0, 0
1, 0
0, 1
1, 0
0, 0
0, 0
0, 1
0, 0
0, 0
0, 0
0, 0
0, 0
0, 0
1, 0
1, 0
0, 0
0, 0
0, 0
0, 0
0, 0
0, 0
0, 0
0, 1
0, 0
0, 0
0, 0
0, 1
0, 1
0, 0
1, 0
0, 0
0, 0
1, 0
0, 0
0, 0
0, 0
0, 0
1, 0
0, 0
0, 0
0, 0
0, 0
0, 0
0, 0
0, 0
0, 0
0, 0
1, 0
1, 0
0, 0
0, 0
0, 0
0, 0
0, 0
0, 0
0, 0
0, 0
0, 0
0, 0
1, 0
0, 0
0, 0
0, 0
0, 0
0, 0
0, 0
0, 0
0, 0
0, 0
0, 0
0, 0
0, 1
0, 0
0, 0
0, 0
0, 0
0, 0
0, 0
0, 0
0, 0
0, 0
0, 0
0, 0
0, 0
0, 0
0, 0
0, 0
0, 0
0, 0
0, 0
0, 0
1, 0
0, 0
0, 0
0, 0
0, 0
0, 0
0, 0
0, 0
0, 0
0, 0
0, 0
0, 0
0, 0
0, 0
0, 0
0, 0
0, 0
0, 0
0, 0
0, 0
0, 0
0, 0
0, 0
0, 0
0, 0
0, 0
0, 0
0, 0
0, 0
0, 0
0, 0
0, 0
1, 0
0, 0
0, 0
0, 0
0, 0
0, 0
0, 0
0, 0
0, 0
0, 0
0, 0
0, 0
0, 0
0, 0
0, 0
0, 0
0, 0
0, 0
1, 0
0, 0
0, 0
0, 0
0, 0
0, 0
0, 0
0, 0
0, 0
0, 0
0, 0
0, 0
0, 0
0, 0
0, 0
0, 0
0, 0
0, 0
0, 0
0, 0
0, 0
0, 0
0, 0
0, 0
0, 0
0, 0
0, 0
0, 0
0, 0
0, 0
0, 0
0, 0
0, 0
0, 0
0, 0
0, 0
0, 0
0, 0
0, 0
0, 0
0, 0
0, 0
0, 0
0, 0
0, 0
0, 0
0, 0
0, 0
0, 0
0, 0
0, 0
0, 0
0, 0
0, 0
0, 0
0, 0
0, 0
0, 0
0, 0
0, 0
0, 0
0, 0
0, 0
0, 0
0, 0
0, 0
0, 0
0, 0
0, 0
0, 0
0, 0
0, 0
0, 0
0, 0
0, 0
0, 0
0, 0
0, 0
0, 0
0, 0
0, 0
0, 0
0, 0
0, 0
0, 0
0, 0
0, 0
0, 0
0, 0
0, 0
0, 0
0, 0
0, 0
0, 0
0, 0
0, 0
0, 0
0, 0
0, 0
0, 0
0, 0
0, 0
0, 0
0, 0
0, 0
0, 0
0, 0
0, 0
0, 0
0, 0
0, 0
0, 0
0, 0
0, 0
0, 0
0, 0
0, 1
0, 0
0, 0
0, 0
0, 0
0, 0
0, 0
0, 0
0, 0
0, 0
0, 0
0, 0
0, 0
0, 0
0, 0
0, 0
0, 0
0, 0
0, 0
0, 0
0, 0
0, 0
0, 0
0, 0
0, 0
0, 0
0, 0
0, 0
0, 0
0, 0
0, 0
0, 0
0, 0
0, 0
0, 0
0, 0
0, 0
0, 0
0, 0
0, 0
0, 0
0, 0
0, 0
0, 0
0, 0
0, 0
0, 0
0, 0
0, 0
0, 0
0, 0
0, 0
0, 0
0, 0
0, 0
0, 0
0, 0
0, 0
0, 0
0, 0
0, 0
0, 0
0, 0
0, 0
0, 0
0, 0
0, 0
0, 0
0, 0
0, 0
0, 0
0, 0
0, 0
0, 0
0, 0
0, 0
0, 0
0, 0
0, 0
0, 0
0, 0
0, 0
0, 0
0, 0
0, 0
0, 0
0, 0
0, 0
0, 0
0, 0
0, 0
0, 0
0, 0
0, 0
0, 0
0, 0
0, 0
0, 0
0, 0
0, 0
0, 0
0, 0
0, 0
0, 0
0, 0
0, 0
0, 0
0, 0
0, 0
0, 0
0, 0
0, 0
0, 0
0, 0
0, 0
0, 0
0, 0
0, 0
0, 0
0, 0
0, 0
0, 0
0, 0
0, 0
0, 0
0, 0
0, 0
0, 0
0, 0
0, 0
0, 0
0, 0
0, 0
0, 0
0, 0
0, 0
0, 0
0, 0
0, 0
0, 0
0, 0
0, 0
0, 0
0, 0
0, 0
0, 0
0, 0
0, 0
0, 0
0, 0
0, 0
0, 0
0, 0
0, 0
0, 0
0, 0
0, 0
0, 0
0, 0
0, 0
0, 0
0, 0
0, 0
0, 0
0, 0
0, 0
0, 0
0, 0
0, 0
0, 0
0, 0
0, 0
0, 0
0, 0
0, 0
0, 0
0, 0
0, 0
0, 0
0, 0
0, 0
0, 0
0, 0
0, 0
0, 0
0, 0
0, 0
0, 0
0, 0
0, 0
0, 0
0, 0
0, 0
0, 0
0, 0
0, 0
0, 0
0, 0
0, 0
0, 0
0, 0
0, 0
0, 0
0, 0
0, 0
0, 0
0, 0
0, 0
0, 0
0, 0
0, 0
0, 0
0, 0
0, 0
0, 0
0, 0
0, 0
0, 0
0, 0
0, 0
0, 0
0, 0
0, 0
0, 0
0, 0
0, 0
0, 0
0, 0
0, 0
0, 0
0, 0
0, 0
0, 0
0, 0
0, 0
0, 0
0, 0
0, 0
0, 0
0, 0
0, 0
0, 0
0, 0
0, 0
0, 0
0, 0
0, 0
0, 0
0, 0
0, 0
0, 0
0, 0
0, 0
0, 0
0, 0
0, 0
0, 0
0, 0
0, 0
0, 0
#ENDOFDATA     end of spectrum data