File: host_upload/06-09-2024/ps_0852/dump3/ps__0852shot_2182.msa
#FORMAT      : EMSA/MAS spectral data file
#VERSION     : TC202v2.0 PIXL
#TITLE       : N/A
#DATE        :       Date in the format DD-MMM-YYYY, for example 07-JUL-2010
#TIME        :             The time of day at which the spectrum was recorded, in 24-hour format
#OWNER       : PIXL Flight Model       (PIXL will use this to indicate which instrument took the data.)
#NPOINTS     : 4096     Number of data points in the spectrum (This can be zero for configuration only files)
#NCOLUMNS    : 2     Number of data columns in the spectrum (This can be zero for configuration only files)
#XUNITS      : eV
#YUNITS      : COUNTS
#DATATYPE    : YY
#XPERCHAN    : 7.862, 7.881   eV per channel (separate by commas if more than one detector)
#OFFSET      : 18.5, -22.4         eV of first channel  (separate by commas if more than one detector
#SIGNALTYPE  : XRF
#YP_TEMP     : 2.749
#LIVETIME    : 8.55472, 8.56773   seconds (separate by commas if more than one detector)
#REALTIME    : 10, 10.0   seconds (separate by commas if more than one detector)
#SPECTRUM    : start of spectrum data
0, 0
0, 0
0, 0
0, 0
0, 0
0, 0
0, 0
0, 0
0, 0
0, 0
0, 0
0, 0
0, 0
0, 0
0, 0
0, 0
0, 0
0, 0
0, 0
0, 0
0, 0
0, 0
0, 0
0, 0
0, 0
0, 0
0, 0
0, 0
0, 0
0, 0
0, 0
0, 1
0, 0
0, 2
0, 0
0, 2
2, 1
1, 6
0, 7
4, 8
3, 12
1, 15
1, 10
3, 8
1, 11
2, 6
2, 2
3, 7
5, 6
18, 6
20, 20
40, 37
69, 57
64, 77
81, 66
62, 73
66, 60
32, 47
18, 29
20, 15
7, 5
7, 5
8, 4
6, 2
3, 7
6, 7
10, 4
16, 11
24, 35
43, 56
85, 104
187, 177
294, 316
382, 358
451, 419
446, 440
373, 378
322, 295
193, 224
129, 122
81, 69
46, 37
18, 21
11, 8
6, 5
2, 5
5, 1
4, 3
1, 2
0, 1
0, 0
1, 2
3, 3
1, 2
0, 6
0, 6
2, 3
1, 8
6, 9
3, 3
1, 7
0, 1
0, 6
2, 2
3, 7
1, 5
4, 10
7, 21
9, 47
16, 96
22, 178
27, 325
44, 536
40, 712
66, 778
67, 845
72, 752
72, 663
75, 478
59, 295
71, 181
54, 103
41, 57
24, 37
18, 23
23, 13
8, 18
13, 15
9, 5
6, 8
12, 3
15, 6
2, 1
7, 2
6, 3
7, 2
10, 2
12, 1
12, 4
8, 2
8, 1
5, 4
3, 2
0, 4
5, 7
2, 3
2, 2
2, 1
3, 2
7, 8
6, 9
7, 11
22, 20
25, 43
49, 43
54, 78
62, 74
83, 97
84, 68
84, 59
51, 67
43, 41
36, 30
10, 22
14, 22
7, 17
7, 32
9, 32
11, 36
10, 40
19, 38
14, 34
19, 35
13, 18
11, 22
13, 17
3, 19
9, 13
0, 13
0, 9
2, 3
2, 6
3, 8
3, 2
3, 4
4, 9
2, 8
5, 8
5, 2
10, 12
8, 12
11, 10
14, 10
13, 17
13, 15
13, 10
10, 17
15, 11
21, 13
22, 10
35, 13
42, 11
49, 7
64, 9
78, 6
111, 10
87, 5
106, 8
99, 14
62, 8
51, 12
44, 4
27, 3
18, 9
8, 6
13, 4
2, 4
6, 6
8, 7
11, 3
9, 9
15, 2
13, 7
10, 6
13, 8
18, 12
16, 14
25, 24
21, 27
39, 26
38, 25
50, 23
58, 24
49, 19
72, 21
59, 5
59, 17
45, 18
57, 29
43, 25
26, 23
23, 31
20, 26
11, 32
11, 47
17, 41
20, 43
30, 52
35, 76
48, 85
56, 62
65, 85
61, 60
48, 64
49, 55
31, 30
35, 25
30, 19
25, 8
17, 22
15, 18
28, 24
43, 47
93, 95
140, 180
262, 325
414, 589
678, 871
1029, 1214
1476, 1648
1838, 2093
2113, 2280
2267, 2365
2178, 2103
2006, 1799
1600, 1388
1209, 991
836, 752
571, 445
318, 266
210, 136
96, 88
66, 32
29, 31
32, 17
29, 16
30, 31
23, 23
31, 37
40, 23
43, 36
44, 37
65, 70
64, 87
120, 118
159, 162
188, 194
232, 283
309, 300
319, 304
320, 339
353, 304
282, 255
229, 202
180, 138
119, 109
70, 53
49, 53
37, 29
18, 13
4, 7
6, 5
8, 5
7, 8
5, 10
7, 13
17, 14
13, 12
11, 10
4, 15
18, 12
7, 12
6, 8
11, 4
3, 11
3, 8
8, 10
5, 12
7, 12
2, 10
2, 14
2, 16
6, 18
8, 29
8, 19
5, 21
9, 22
13, 18
25, 17
20, 22
34, 8
26, 14
28, 6
35, 8
24, 8
28, 7
21, 7
25, 6
14, 6
15, 9
15, 9
8, 14
7, 14
5, 3
4, 7
1, 8
7, 7
5, 6
2, 9
7, 3
3, 3
7, 6
4, 4
4, 3
5, 3
9, 4
3, 5
5, 5
2, 4
2, 4
1, 3
3, 12
2, 2
4, 2
3, 6
6, 1
4, 9
3, 3
2, 5
5, 4
3, 6
1, 6
8, 7
3, 4
3, 6
2, 5
5, 10
3, 4
5, 8
0, 8
2, 7
5, 6
5, 1
4, 1
1, 2
3, 3
4, 4
0, 3
4, 0
5, 5
6, 5
3, 2
6, 5
0, 5
4, 5
6, 6
4, 3
3, 1
8, 2
5, 1
8, 1
5, 5
4, 2
8, 2
2, 4
0, 4
2, 2
5, 4
7, 6
8, 2
1, 4
2, 3
7, 4
2, 2
1, 6
3, 1
1, 5
0, 5
1, 2
1, 2
2, 1
1, 5
3, 4
1, 4
3, 7
3, 1
4, 7
9, 8
12, 5
5, 2
11, 9
8, 4
15, 3
7, 3
16, 2
13, 3
9, 4
11, 3
6, 3
7, 2
7, 5
5, 3
2, 2
3, 3
0, 3
4, 4
3, 1
2, 1
2, 1
3, 3
0, 2
2, 1
1, 3
2, 2
5, 2
6, 1
1, 0
3, 2
5, 1
0, 4
3, 2
3, 0
3, 2
2, 3
2, 5
3, 2
2, 3
3, 3
1, 2
2, 2
4, 6
0, 4
2, 7
1, 6
1, 2
0, 1
2, 2
0, 2
0, 3
2, 2
1, 5
1, 4
4, 3
3, 2
2, 3
1, 0
0, 5
4, 1
2, 5
3, 3
0, 2
6, 3
3, 1
2, 4
2, 4
5, 3
4, 3
4, 2
3, 4
4, 2
5, 1
3, 3
4, 0
1, 0
6, 3
2, 2
6, 6
1, 0
3, 4
1, 3
1, 2
2, 6
5, 1
2, 2
6, 2
4, 2
3, 3
3, 3
1, 4
2, 1
2, 2
0, 2
1, 2
1, 2
3, 1
4, 0
5, 3
3, 4
3, 1
2, 2
5, 3
4, 4
1, 4
1, 2
2, 4
0, 1
3, 6
1, 7
2, 3
3, 2
4, 2
3, 5
4, 2
0, 4
2, 2
0, 3
0, 0
2, 1
2, 1
3, 0
3, 2
1, 1
1, 0
2, 1
3, 3
1, 2
0, 3
2, 2
6, 5
3, 2
2, 4
2, 1
2, 0
2, 1
1, 1
3, 1
2, 1
1, 1
0, 1
0, 4
0, 3
1, 2
0, 2
0, 1
1, 1
0, 2
2, 0
1, 2
4, 1
2, 0
0, 1
0, 0
2, 1
1, 1
0, 0
2, 1
1, 0
0, 1
1, 4
1, 2
0, 0
2, 1
3, 2
2, 1
1, 1
0, 0
1, 0
0, 2
0, 1
2, 0
0, 1
1, 1
1, 1
3, 0
0, 0
2, 0
0, 0
1, 0
1, 1
1, 0
2, 2
0, 0
0, 0
0, 1
0, 4
1, 1
1, 1
0, 1
0, 2
1, 0
1, 0
1, 1
1, 0
1, 2
0, 1
1, 0
2, 1
1, 1
0, 0
0, 1
0, 0
0, 0
1, 0
1, 1
0, 1
1, 1
0, 1
0, 0
0, 0
0, 2
1, 2
0, 1
0, 0
0, 1
0, 0
2, 0
0, 2
0, 2
1, 0
1, 3
1, 2
1, 0
0, 0
2, 1
2, 0
0, 2
2, 2
0, 0
0, 1
0, 3
0, 1
0, 0
0, 0
0, 0
0, 0
1, 2
1, 0
0, 3
1, 0
1, 1
1, 0
2, 1
0, 2
1, 4
0, 0
0, 0
0, 0
0, 0
0, 1
0, 0
0, 0
0, 1
0, 2
0, 1
0, 1
1, 1
2, 1
1, 0
0, 0
0, 1
0, 0
0, 2
0, 0
0, 0
0, 0
0, 0
0, 0
0, 0
1, 1
1, 0
0, 0
0, 1
0, 0
0, 0
1, 0
2, 0
1, 0
0, 0
0, 0
0, 0
0, 0
0, 0
1, 0
0, 1
2, 0
0, 0
0, 0
0, 1
0, 1
2, 0
0, 1
0, 0
0, 0
0, 1
0, 1
0, 0
0, 0
1, 0
0, 0
1, 0
1, 0
0, 1
0, 0
0, 0
1, 0
0, 1
0, 1
0, 1
1, 1
0, 0
0, 0
1, 0
0, 0
0, 0
0, 0
1, 0
0, 1
0, 0
0, 1
1, 0
0, 0
0, 1
1, 0
1, 0
0, 1
0, 0
1, 0
0, 0
0, 0
0, 1
1, 1
0, 0
0, 0
1, 0
0, 0
2, 0
0, 2
0, 0
0, 0
1, 0
1, 0
0, 0
0, 0
0, 0
0, 1
0, 0
0, 1
2, 0
0, 1
1, 0
1, 1
1, 0
0, 2
0, 0
2, 0
0, 0
2, 0
1, 0
0, 0
0, 0
0, 1
0, 0
0, 0
0, 0
1, 0
0, 0
0, 0
0, 0
0, 0
0, 0
0, 0
0, 0
0, 1
0, 1
0, 0
0, 0
0, 0
0, 0
0, 0
0, 0
0, 0
1, 0
0, 0
0, 0
0, 0
0, 0
0, 0
0, 0
1, 0
0, 0
0, 0
0, 0
1, 0
0, 0
0, 0
0, 0
0, 0
0, 0
0, 0
0, 0
0, 0
0, 0
0, 0
0, 0
0, 0
0, 0
0, 0
0, 1
0, 0
0, 1
0, 1
0, 0
1, 0
0, 0
0, 0
0, 0
1, 0
0, 1
1, 1
0, 0
0, 0
0, 0
0, 0
0, 0
1, 0
0, 0
0, 1
0, 0
0, 0
0, 0
0, 0
0, 0
1, 0
0, 0
0, 0
0, 0
0, 1
0, 0
0, 0
0, 0
0, 0
0, 0
0, 0
0, 0
0, 0
0, 0
0, 0
0, 0
0, 0
0, 0
0, 0
0, 0
0, 0
0, 0
0, 0
0, 0
1, 0
0, 0
0, 0
0, 0
0, 0
0, 0
0, 0
0, 0
0, 0
0, 0
0, 0
0, 0
0, 0
0, 0
0, 0
0, 0
0, 0
0, 0
1, 0
0, 0
0, 0
0, 0
0, 0
0, 0
0, 0
0, 0
0, 0
0, 1
0, 0
0, 1
0, 1
0, 0
0, 0
0, 0
0, 1
0, 0
0, 0
0, 0
0, 0
0, 0
0, 0
0, 0
0, 0
0, 0
0, 0
0, 0
0, 0
0, 0
0, 0
0, 0
0, 0
0, 0
0, 0
0, 0
0, 0
0, 0
0, 0
0, 0
0, 0
0, 0
0, 0
0, 0
0, 0
0, 0
0, 0
1, 0
0, 0
0, 0
0, 0
0, 0
0, 0
0, 1
0, 0
0, 0
0, 0
0, 0
0, 0
1, 0
0, 0
0, 0
0, 0
0, 0
0, 0
0, 0
0, 0
0, 0
0, 0
0, 0
0, 0
0, 0
0, 0
0, 0
0, 0
1, 0
0, 0
0, 0
0, 0
0, 0
0, 0
0, 0
0, 0
0, 0
0, 0
0, 0
0, 0
0, 0
0, 0
0, 0
0, 0
0, 0
0, 0
0, 0
0, 0
0, 0
0, 0
0, 0
0, 0
0, 0
0, 0
0, 0
0, 0
0, 0
0, 0
0, 0
0, 0
0, 0
0, 0
0, 0
0, 0
0, 0
0, 0
0, 0
0, 0
0, 0
0, 0
0, 0
0, 0
0, 0
0, 0
0, 0
0, 0
0, 0
0, 0
0, 0
0, 0
0, 0
0, 0
0, 0
0, 0
0, 0
0, 0
0, 0
0, 0
0, 0
0, 0
0, 0
0, 0
0, 0
0, 0
0, 0
0, 0
0, 1
0, 0
0, 0
0, 0
0, 0
0, 0
0, 0
0, 0
0, 0
0, 0
0, 0
0, 0
0, 0
0, 0
0, 0
0, 0
0, 0
0, 0
0, 0
0, 0
0, 0
0, 0
0, 0
0, 0
0, 0
0, 0
0, 0
0, 0
0, 0
0, 0
0, 0
0, 0
0, 0
0, 0
0, 0
0, 0
0, 0
0, 0
0, 0
0, 0
0, 0
0, 0
0, 0
0, 0
0, 0
0, 0
0, 0
0, 0
0, 0
1, 0
0, 0
0, 0
0, 0
0, 0
0, 0
0, 0
0, 0
0, 0
0, 0
0, 0
0, 0
0, 0
0, 0
0, 0
0, 0
0, 0
0, 0
0, 0
0, 0
0, 0
0, 0
0, 0
0, 0
0, 0
0, 0
0, 0
0, 0
0, 0
0, 0
0, 0
0, 0
0, 0
0, 0
0, 0
0, 0
0, 0
0, 0
0, 0
0, 0
0, 0
0, 0
0, 0
0, 0
0, 0
0, 0
0, 0
0, 0
0, 0
0, 0
0, 0
0, 0
0, 0
0, 0
0, 0
0, 0
0, 0
0, 0
0, 0
0, 0
0, 0
0, 0
0, 0
0, 0
0, 0
0, 0
0, 0
0, 0
0, 0
0, 0
0, 0
0, 0
0, 0
0, 0
0, 0
0, 0
0, 0
0, 0
0, 0
0, 0
0, 0
0, 0
0, 0
0, 0
0, 0
0, 0
0, 0
0, 0
0, 0
0, 0
0, 0
0, 0
0, 0
0, 0
0, 0
0, 0
0, 0
0, 0
0, 0
0, 0
0, 0
0, 0
0, 0
0, 0
0, 0
0, 0
0, 0
0, 0
0, 0
0, 0
0, 0
0, 0
0, 0
0, 0
0, 0
0, 0
0, 0
0, 0
0, 0
0, 0
0, 0
0, 0
0, 0
0, 0
0, 0
0, 0
0, 0
0, 0
0, 0
0, 0
0, 0
0, 0
0, 0
0, 0
0, 0
0, 0
0, 0
0, 0
0, 0
0, 0
0, 0
0, 0
0, 0
0, 0
0, 0
0, 0
0, 0
0, 0
0, 0
0, 0
0, 0
0, 0
0, 0
0, 0
0, 0
0, 0
0, 0
0, 0
0, 0
0, 0
0, 0
0, 0
0, 0
0, 0
0, 0
0, 0
0, 0
0, 0
0, 0
0, 0
0, 0
0, 0
0, 0
0, 0
0, 0
0, 0
0, 0
0, 0
0, 0
0, 0
0, 0
0, 0
0, 0
0, 0
0, 0
0, 0
0, 0
0, 0
0, 0
0, 0
0, 0
0, 0
0, 0
0, 0
0, 0
0, 0
0, 0
0, 0
0, 0
0, 0
0, 0
0, 0
0, 0
0, 0
0, 0
0, 0
0, 0
0, 0
0, 0
0, 0
0, 0
0, 0
0, 0
0, 0
0, 0
0, 0
0, 0
0, 0
0, 0
0, 0
0, 0
0, 0
0, 0
0, 0
0, 0
0, 0
0, 0
0, 0
0, 0
0, 0
0, 0
0, 0
0, 0
0, 0
0, 0
0, 0
0, 0
0, 0
0, 0
0, 0
0, 0
0, 0
0, 0
0, 0
0, 0
0, 0
0, 0
0, 0
0, 0
0, 0
0, 0
0, 0
0, 0
0, 0
0, 0
0, 0
0, 0
0, 0
0, 0
0, 0
#ENDOFDATA     end of spectrum data