File: host_upload/06-09-2024/ps_0852/dump3/ps__0852shot_2153.msa
#FORMAT      : EMSA/MAS spectral data file
#VERSION     : TC202v2.0 PIXL
#TITLE       : N/A
#DATE        :       Date in the format DD-MMM-YYYY, for example 07-JUL-2010
#TIME        :             The time of day at which the spectrum was recorded, in 24-hour format
#OWNER       : PIXL Flight Model       (PIXL will use this to indicate which instrument took the data.)
#NPOINTS     : 4096     Number of data points in the spectrum (This can be zero for configuration only files)
#NCOLUMNS    : 2     Number of data columns in the spectrum (This can be zero for configuration only files)
#XUNITS      : eV
#YUNITS      : COUNTS
#DATATYPE    : YY
#XPERCHAN    : 7.862, 7.881   eV per channel (separate by commas if more than one detector)
#OFFSET      : 18.5, -22.4         eV of first channel  (separate by commas if more than one detector
#SIGNALTYPE  : XRF
#YP_TEMP     : 2.364
#LIVETIME    : 8.54236, 8.54223   seconds (separate by commas if more than one detector)
#REALTIME    : 10, 10.0   seconds (separate by commas if more than one detector)
#SPECTRUM    : start of spectrum data
0, 0
0, 0
0, 0
0, 0
0, 0
0, 0
0, 0
0, 0
0, 0
0, 0
0, 0
0, 0
0, 0
0, 0
0, 0
0, 0
0, 0
0, 0
0, 0
0, 0
0, 0
0, 0
0, 0
0, 0
0, 0
0, 0
0, 0
0, 0
0, 0
0, 0
0, 0
0, 0
0, 0
0, 0
0, 0
0, 0
0, 0
2, 3
1, 1
0, 0
2, 0
2, 2
1, 2
1, 3
2, 0
0, 1
3, 6
4, 2
5, 6
12, 9
19, 13
47, 47
55, 60
71, 70
91, 77
79, 65
59, 68
55, 48
26, 27
16, 10
8, 7
5, 10
4, 5
5, 5
5, 6
1, 1
5, 2
8, 10
23, 28
44, 52
105, 99
173, 166
274, 274
342, 344
414, 418
432, 405
358, 350
324, 264
210, 176
151, 126
96, 68
47, 38
23, 17
7, 20
8, 6
6, 4
3, 1
1, 1
2, 2
2, 0
4, 3
2, 1
2, 3
5, 1
7, 14
11, 15
14, 16
14, 14
15, 22
17, 22
16, 19
8, 22
16, 14
12, 15
5, 11
5, 9
6, 13
8, 21
8, 24
15, 20
17, 22
27, 30
36, 29
41, 29
38, 43
57, 31
46, 43
38, 45
42, 38
34, 20
34, 22
25, 30
30, 26
24, 28
29, 21
14, 20
14, 15
11, 10
11, 6
11, 9
7, 5
4, 3
5, 3
3, 4
2, 2
0, 2
2, 3
5, 3
1, 1
5, 3
1, 2
2, 3
2, 2
5, 1
3, 5
0, 2
4, 3
0, 1
4, 2
6, 3
4, 4
6, 3
3, 8
13, 8
17, 13
16, 18
30, 23
22, 24
18, 20
21, 14
15, 7
13, 12
7, 2
8, 0
5, 8
2, 6
3, 8
10, 4
6, 3
4, 6
6, 4
5, 2
10, 8
7, 9
12, 8
3, 12
8, 8
10, 9
7, 8
1, 8
9, 13
9, 9
12, 6
6, 5
5, 5
4, 3
7, 6
8, 6
10, 7
8, 6
13, 15
8, 12
12, 13
12, 23
24, 15
14, 22
18, 21
26, 28
15, 29
20, 29
11, 20
11, 19
12, 12
20, 11
9, 9
8, 8
8, 6
9, 7
4, 5
11, 13
13, 6
14, 9
9, 15
5, 13
13, 6
14, 11
14, 8
9, 4
16, 13
9, 6
10, 4
9, 6
11, 10
13, 4
14, 8
24, 8
30, 13
34, 17
33, 10
59, 20
53, 26
46, 11
59, 15
51, 19
52, 22
32, 9
30, 16
23, 15
23, 11
16, 10
18, 10
10, 13
13, 19
9, 17
18, 16
18, 18
36, 32
41, 32
40, 59
46, 65
68, 76
51, 57
49, 39
62, 45
49, 47
36, 41
34, 30
26, 24
22, 17
18, 22
22, 16
27, 29
39, 49
99, 107
153, 201
296, 342
479, 614
784, 863
1167, 1250
1553, 1698
2029, 1978
2278, 2255
2459, 2291
2450, 2158
2227, 1899
1738, 1531
1407, 1057
959, 710
671, 431
370, 246
209, 145
113, 91
67, 42
45, 25
55, 22
47, 21
43, 11
47, 21
55, 16
44, 19
54, 37
37, 42
69, 72
99, 86
116, 122
158, 184
245, 242
252, 301
310, 351
400, 382
372, 346
343, 336
328, 274
263, 219
191, 173
143, 116
96, 85
67, 43
39, 18
27, 16
14, 12
7, 11
15, 4
8, 11
11, 11
16, 13
16, 19
17, 9
13, 12
15, 9
8, 13
13, 8
10, 9
10, 8
5, 6
9, 6
6, 6
5, 6
4, 2
5, 3
5, 4
2, 7
0, 2
2, 5
6, 2
7, 6
1, 6
5, 4
6, 3
1, 4
6, 10
5, 4
7, 7
6, 4
5, 9
2, 8
8, 9
10, 4
5, 11
8, 9
6, 10
6, 5
11, 4
6, 5
10, 4
8, 3
5, 6
6, 4
7, 2
6, 6
7, 2
4, 6
5, 5
4, 7
5, 4
5, 10
4, 7
6, 10
3, 8
4, 8
7, 6
1, 6
4, 5
8, 4
7, 3
5, 5
4, 4
5, 2
0, 4
1, 4
7, 2
10, 4
1, 0
3, 5
6, 4
7, 2
4, 5
7, 2
3, 10
6, 6
4, 4
2, 7
6, 12
5, 11
4, 11
3, 10
3, 7
1, 7
4, 6
6, 5
1, 5
5, 6
6, 5
4, 5
4, 6
5, 4
3, 3
3, 5
10, 3
6, 2
5, 4
6, 1
10, 3
6, 3
7, 3
9, 1
4, 5
7, 1
10, 2
5, 4
3, 6
10, 3
10, 4
7, 3
7, 2
7, 0
7, 3
4, 3
1, 1
1, 0
7, 4
1, 3
4, 2
2, 1
2, 5
4, 1
4, 5
2, 2
9, 4
1, 1
3, 2
4, 2
7, 1
3, 4
3, 2
4, 1
1, 3
3, 7
6, 0
5, 2
1, 2
5, 5
3, 4
3, 7
1, 5
3, 1
4, 1
0, 4
3, 2
1, 4
3, 2
2, 2
2, 1
0, 2
4, 4
3, 1
3, 0
0, 2
4, 2
5, 3
2, 3
4, 1
2, 3
2, 2
1, 4
3, 2
4, 4
3, 3
1, 5
4, 3
2, 4
2, 2
4, 1
1, 8
1, 2
3, 3
2, 3
6, 2
2, 2
2, 9
1, 4
2, 3
4, 1
1, 2
5, 0
4, 3
3, 3
2, 0
3, 0
1, 7
1, 1
3, 3
4, 2
5, 2
1, 2
2, 1
3, 1
1, 2
1, 2
0, 1
1, 2
0, 3
0, 1
4, 4
2, 6
4, 1
2, 0
0, 5
2, 2
1, 3
5, 0
2, 1
3, 1
1, 2
5, 3
1, 1
2, 4
2, 2
1, 1
1, 0
1, 2
0, 2
4, 0
0, 1
1, 2
2, 2
0, 1
3, 3
4, 6
1, 5
4, 1
3, 5
3, 7
2, 7
5, 8
3, 2
2, 2
4, 4
6, 1
3, 1
0, 4
3, 2
3, 1
1, 0
0, 1
1, 1
1, 2
0, 2
1, 1
0, 2
2, 0
1, 1
1, 1
0, 0
2, 1
3, 2
1, 1
5, 2
2, 3
3, 2
3, 2
0, 4
1, 1
1, 0
3, 1
3, 1
2, 1
1, 1
2, 2
3, 0
2, 1
0, 1
0, 0
2, 0
1, 1
0, 3
0, 3
0, 0
0, 0
4, 1
1, 1
1, 1
1, 0
1, 1
3, 0
1, 1
1, 3
0, 1
1, 1
0, 0
0, 1
1, 1
3, 0
0, 3
0, 2
2, 1
2, 0
0, 0
1, 1
1, 1
1, 0
1, 0
0, 2
0, 1
1, 1
1, 0
1, 0
0, 0
1, 1
0, 2
0, 1
0, 0
0, 0
3, 1
0, 0
0, 1
0, 1
0, 1
1, 0
0, 0
0, 1
2, 2
0, 0
0, 0
0, 0
2, 1
1, 0
0, 1
1, 0
1, 2
0, 1
1, 0
1, 1
1, 2
0, 0
0, 0
0, 1
1, 0
0, 3
0, 0
0, 1
1, 0
1, 1
3, 3
3, 1
1, 2
2, 2
1, 1
1, 1
0, 0
0, 1
0, 0
2, 0
1, 1
0, 1
0, 0
2, 1
0, 0
1, 0
1, 3
1, 0
0, 0
0, 0
3, 1
0, 0
0, 0
1, 0
1, 0
1, 2
1, 0
0, 1
0, 0
1, 1
0, 1
0, 1
0, 0
0, 0
0, 1
1, 0
1, 1
1, 1
1, 3
0, 0
1, 0
0, 1
0, 2
0, 0
1, 0
0, 0
0, 2
1, 2
2, 1
0, 0
0, 0
0, 1
0, 1
1, 2
0, 0
0, 0
0, 0
0, 0
0, 0
0, 0
0, 0
0, 0
0, 0
0, 1
0, 1
0, 1
0, 1
0, 1
0, 1
1, 0
0, 0
0, 0
0, 1
0, 0
0, 0
1, 0
0, 0
0, 1
1, 0
0, 1
0, 1
0, 0
0, 0
0, 0
0, 1
0, 0
0, 0
0, 0
1, 0
0, 0
1, 1
0, 0
1, 0
0, 1
1, 1
0, 0
1, 0
0, 1
0, 0
1, 0
1, 0
1, 0
0, 0
1, 0
1, 0
0, 0
0, 0
0, 1
1, 0
0, 0
0, 0
0, 0
0, 1
0, 0
0, 0
0, 0
0, 0
0, 0
0, 0
0, 0
0, 0
0, 0
0, 0
0, 1
1, 0
1, 0
0, 0
0, 0
1, 0
0, 0
0, 0
0, 0
0, 0
0, 0
0, 1
0, 0
0, 1
0, 0
1, 0
0, 0
0, 0
0, 0
0, 0
1, 1
0, 0
0, 0
0, 0
0, 0
0, 0
1, 1
1, 0
0, 0
0, 0
0, 0
0, 0
0, 0
0, 1
0, 0
0, 0
1, 0
0, 0
0, 0
0, 0
0, 0
0, 0
0, 0
0, 0
1, 0
0, 0
0, 0
1, 1
1, 0
0, 0
0, 0
1, 1
0, 2
0, 0
0, 2
0, 0
0, 0
0, 0
0, 0
0, 0
0, 0
0, 0
0, 0
1, 0
0, 0
0, 0
0, 0
0, 0
0, 0
0, 0
0, 0
0, 0
0, 0
0, 0
0, 1
0, 0
0, 0
0, 0
0, 0
1, 0
1, 0
0, 0
0, 0
1, 0
0, 0
0, 1
0, 0
0, 0
0, 0
0, 1
0, 0
0, 1
0, 0
0, 1
0, 0
1, 0
0, 0
0, 0
0, 0
1, 0
0, 0
0, 0
0, 0
0, 0
0, 0
0, 1
0, 0
0, 0
0, 0
0, 0
0, 0
1, 0
0, 0
0, 0
0, 0
0, 0
0, 0
0, 0
0, 0
0, 0
0, 0
0, 0
0, 0
1, 0
0, 0
0, 0
0, 0
0, 0
0, 0
0, 1
0, 0
0, 0
0, 0
0, 0
1, 0
0, 0
0, 0
0, 0
0, 0
0, 0
0, 0
0, 0
1, 0
0, 1
0, 0
0, 0
0, 0
0, 0
0, 0
0, 0
0, 0
0, 0
0, 0
0, 0
0, 0
0, 0
0, 0
0, 0
0, 0
0, 0
0, 0
0, 0
0, 0
0, 0
0, 1
0, 0
0, 0
0, 0
0, 0
0, 0
1, 0
0, 0
0, 0
0, 0
0, 0
0, 0
0, 0
0, 0
0, 0
0, 0
0, 0
0, 0
0, 0
0, 0
0, 0
0, 0
0, 0
0, 0
0, 0
0, 0
0, 0
0, 0
0, 1
0, 0
0, 0
0, 0
0, 0
0, 0
0, 0
0, 0
0, 0
1, 0
0, 0
0, 0
0, 0
0, 0
0, 0
0, 0
0, 0
0, 0
0, 0
0, 0
1, 0
0, 0
0, 0
0, 1
0, 0
0, 0
0, 0
0, 0
0, 0
0, 0
0, 0
0, 0
0, 0
0, 0
0, 0
0, 0
0, 0
0, 0
0, 0
0, 0
0, 0
0, 0
0, 0
0, 0
0, 0
0, 0
0, 0
0, 0
0, 0
0, 0
0, 0
0, 0
0, 0
0, 0
0, 0
0, 0
0, 0
0, 0
0, 0
0, 0
0, 0
0, 0
0, 0
0, 0
0, 0
0, 0
0, 0
0, 0
0, 0
0, 0
0, 0
0, 0
0, 0
0, 0
0, 0
0, 0
0, 0
0, 0
0, 0
0, 0
0, 0
0, 0
0, 0
0, 0
0, 0
0, 0
0, 0
0, 0
0, 0
0, 0
0, 0
0, 0
0, 0
0, 0
0, 0
0, 0
0, 0
0, 0
0, 0
0, 0
0, 0
0, 0
0, 0
0, 0
0, 0
0, 0
0, 0
0, 0
0, 0
0, 0
0, 0
0, 0
0, 0
0, 0
0, 0
0, 0
0, 0
0, 0
0, 0
0, 0
0, 0
0, 0
0, 0
0, 0
0, 0
0, 0
0, 0
0, 0
0, 0
0, 0
0, 0
0, 0
0, 0
0, 0
0, 0
0, 0
0, 0
0, 0
0, 0
0, 0
0, 0
0, 0
0, 0
0, 0
0, 0
0, 0
0, 0
0, 0
0, 0
0, 0
0, 0
0, 0
0, 0
0, 0
0, 0
0, 0
0, 0
0, 0
0, 0
0, 0
0, 0
0, 0
0, 0
0, 0
0, 0
0, 0
0, 0
0, 0
0, 0
0, 0
0, 0
0, 0
0, 0
0, 0
0, 0
0, 0
0, 0
0, 0
0, 0
0, 0
0, 0
0, 0
0, 0
0, 0
0, 0
0, 0
0, 0
0, 0
0, 0
0, 0
0, 0
0, 0
0, 0
0, 0
0, 0
0, 0
0, 0
0, 0
0, 0
0, 0
0, 0
0, 0
0, 0
0, 0
0, 0
0, 0
0, 0
0, 0
0, 0
0, 0
0, 0
0, 0
0, 0
0, 0
0, 0
0, 0
0, 0
0, 0
0, 0
0, 0
0, 0
0, 0
0, 0
0, 0
0, 0
0, 0
0, 0
0, 0
0, 0
0, 0
0, 0
0, 0
0, 0
0, 0
0, 0
0, 0
0, 0
0, 0
0, 0
0, 0
0, 0
0, 0
0, 0
0, 0
0, 0
0, 0
0, 0
0, 0
0, 0
0, 0
0, 0
0, 0
0, 0
0, 0
0, 0
0, 0
0, 0
0, 0
0, 0
0, 0
0, 0
0, 0
0, 0
0, 0
0, 0
0, 0
0, 0
0, 0
0, 0
0, 0
0, 0
0, 0
0, 0
0, 0
0, 0
0, 0
0, 0
0, 0
0, 0
0, 0
0, 0
0, 0
0, 0
0, 0
0, 0
0, 0
0, 0
0, 0
0, 0
0, 0
0, 0
0, 0
0, 0
0, 0
0, 0
0, 0
0, 0
0, 0
0, 0
0, 0
0, 0
0, 0
0, 0
0, 0
0, 0
0, 0
0, 0
0, 0
0, 0
0, 0
0, 0
0, 0
0, 0
0, 0
0, 0
0, 0
0, 0
0, 0
0, 0
0, 0
0, 0
0, 0
0, 0
0, 0
0, 0
0, 0
0, 0
0, 0
0, 0
0, 0
0, 0
0, 0
0, 0
0, 0
0, 0
0, 0
0, 0
0, 0
0, 0
0, 0
0, 0
0, 0
0, 0
0, 0
0, 0
0, 0
0, 0
0, 0
0, 0
0, 0
0, 0
0, 0
0, 0
0, 0
0, 0
0, 0
0, 0
0, 0
0, 0
0, 0
0, 0
0, 0
0, 0
0, 0
0, 0
0, 0
0, 0
0, 0
0, 0
0, 0
0, 0
0, 0
0, 0
0, 0
0, 0
0, 0
0, 0
0, 0
0, 0
0, 0
0, 0
0, 0
0, 0
0, 0
0, 0
0, 0
0, 0
0, 0
0, 0
0, 0
0, 0
0, 0
0, 0
0, 0
0, 0
0, 0
0, 0
0, 0
#ENDOFDATA     end of spectrum data