File: host_upload/06-09-2024/ps_0852/dump3/ps__0852shot_2558.msa
#FORMAT      : EMSA/MAS spectral data file
#VERSION     : TC202v2.0 PIXL
#TITLE       : N/A
#DATE        :       Date in the format DD-MMM-YYYY, for example 07-JUL-2010
#TIME        :             The time of day at which the spectrum was recorded, in 24-hour format
#OWNER       : PIXL Flight Model       (PIXL will use this to indicate which instrument took the data.)
#NPOINTS     : 4096     Number of data points in the spectrum (This can be zero for configuration only files)
#NCOLUMNS    : 2     Number of data columns in the spectrum (This can be zero for configuration only files)
#XUNITS      : eV
#YUNITS      : COUNTS
#DATATYPE    : YY
#XPERCHAN    : 7.862, 7.881   eV per channel (separate by commas if more than one detector)
#OFFSET      : 18.5, -22.4         eV of first channel  (separate by commas if more than one detector
#SIGNALTYPE  : XRF
#YP_TEMP     : 2.332
#LIVETIME    : 8.54696, 8.54465   seconds (separate by commas if more than one detector)
#REALTIME    : 10, 10.0   seconds (separate by commas if more than one detector)
#SPECTRUM    : start of spectrum data
0, 0
0, 0
0, 0
0, 0
0, 0
0, 0
0, 0
0, 0
0, 0
0, 0
0, 0
0, 0
0, 0
0, 0
0, 0
0, 0
0, 0
0, 0
0, 0
0, 0
0, 0
0, 0
0, 0
0, 0
0, 0
0, 0
0, 0
0, 0
0, 0
0, 0
0, 0
0, 0
0, 0
0, 0
0, 0
0, 0
1, 0
0, 0
1, 1
1, 1
0, 0
0, 2
2, 1
0, 0
1, 1
1, 0
0, 2
3, 2
5, 11
9, 12
24, 30
46, 43
64, 65
89, 93
84, 83
72, 80
73, 63
41, 44
38, 24
14, 12
6, 7
3, 5
4, 2
1, 1
6, 3
5, 0
13, 3
8, 8
20, 32
41, 57
81, 95
157, 167
248, 300
373, 343
408, 459
418, 458
422, 381
304, 298
214, 204
108, 117
62, 67
35, 33
14, 31
9, 8
2, 3
3, 5
0, 2
2, 2
1, 1
0, 0
0, 0
1, 3
0, 1
0, 2
3, 5
2, 3
2, 0
2, 5
7, 2
2, 3
4, 2
3, 3
2, 2
2, 0
3, 2
2, 1
4, 1
5, 3
5, 8
8, 8
24, 13
34, 22
40, 24
54, 19
65, 28
60, 32
69, 31
58, 26
37, 23
38, 24
26, 25
29, 31
13, 24
17, 19
15, 31
14, 31
11, 21
10, 24
13, 11
7, 11
5, 3
1, 0
0, 0
3, 3
2, 1
3, 2
3, 0
2, 5
1, 2
2, 0
0, 1
1, 0
1, 3
1, 1
3, 2
1, 0
1, 0
1, 1
5, 3
3, 3
5, 4
1, 5
8, 3
7, 4
14, 14
8, 13
17, 9
19, 7
19, 15
11, 10
12, 10
5, 6
4, 4
3, 6
11, 1
6, 4
8, 3
4, 5
3, 2
9, 8
3, 2
5, 10
4, 3
5, 1
4, 5
4, 8
1, 3
4, 4
2, 3
3, 5
2, 2
5, 3
1, 5
3, 4
0, 6
6, 5
2, 4
7, 0
5, 11
11, 17
19, 15
20, 22
25, 28
27, 37
23, 27
21, 28
24, 27
24, 14
12, 18
15, 17
12, 13
7, 12
5, 9
5, 4
8, 7
7, 6
4, 7
7, 7
6, 5
6, 7
4, 3
7, 6
6, 5
3, 3
7, 3
7, 5
7, 4
6, 8
8, 4
7, 4
3, 4
13, 7
20, 10
28, 4
26, 7
30, 10
35, 9
27, 13
25, 6
23, 13
20, 16
26, 12
14, 13
11, 13
12, 20
7, 31
6, 38
7, 35
7, 88
7, 109
4, 128
4, 162
8, 163
7, 155
10, 143
18, 135
26, 105
34, 85
38, 82
54, 85
62, 81
63, 86
57, 50
45, 51
46, 26
37, 32
17, 17
15, 21
17, 14
12, 25
15, 19
27, 30
50, 64
72, 102
150, 195
278, 317
446, 606
827, 925
1192, 1398
1635, 1901
2014, 2266
2277, 2473
2446, 2456
2345, 2308
2108, 2020
1758, 1543
1320, 1200
824, 715
566, 411
358, 257
212, 137
135, 71
64, 26
60, 23
42, 16
35, 15
31, 18
24, 21
20, 16
27, 24
26, 26
24, 40
44, 51
66, 99
112, 138
156, 179
212, 227
281, 308
303, 338
310, 349
329, 376
346, 321
320, 285
264, 248
168, 182
133, 110
107, 81
44, 49
24, 50
23, 36
12, 48
10, 57
8, 53
7, 71
8, 65
12, 54
12, 50
12, 57
14, 36
14, 17
15, 18
11, 20
8, 9
7, 5
2, 7
4, 4
2, 9
5, 3
7, 4
7, 3
6, 2
3, 3
7, 5
5, 3
5, 1
8, 3
7, 4
12, 5
12, 3
13, 2
11, 4
4, 8
16, 3
4, 6
9, 2
2, 6
5, 2
11, 3
7, 3
4, 3
7, 4
8, 4
12, 4
1, 7
4, 2
5, 6
5, 4
4, 8
3, 10
4, 14
1, 19
3, 14
3, 22
3, 25
4, 15
2, 16
11, 23
6, 12
7, 16
2, 8
5, 10
5, 7
1, 7
6, 6
4, 3
2, 1
6, 5
4, 5
3, 4
1, 2
1, 6
4, 4
1, 2
7, 3
7, 3
7, 1
4, 5
10, 2
5, 3
8, 5
20, 2
22, 2
15, 4
18, 4
22, 5
22, 3
16, 2
25, 0
20, 3
12, 3
12, 5
8, 3
4, 2
6, 4
4, 3
6, 4
5, 3
6, 4
3, 4
3, 2
1, 1
1, 3
5, 5
3, 3
6, 1
0, 2
1, 5
1, 2
1, 2
3, 1
3, 5
4, 3
1, 2
3, 8
5, 3
3, 3
0, 15
0, 7
3, 8
3, 11
3, 11
2, 16
1, 12
3, 12
2, 10
7, 12
1, 11
0, 4
2, 3
4, 7
1, 2
5, 2
2, 0
3, 5
4, 8
2, 2
5, 2
9, 4
3, 3
2, 1
5, 3
9, 5
10, 2
11, 2
3, 2
4, 3
2, 0
1, 2
3, 1
5, 1
1, 0
6, 2
0, 5
0, 1
1, 3
3, 3
5, 4
1, 1
2, 2
3, 2
1, 1
4, 3
1, 2
6, 3
0, 3
2, 1
2, 5
2, 1
1, 4
3, 6
1, 2
1, 6
3, 4
2, 3
2, 1
4, 2
2, 1
3, 1
3, 3
1, 1
1, 1
1, 3
3, 2
2, 7
2, 0
0, 2
1, 3
3, 0
6, 1
2, 2
3, 4
3, 1
4, 2
4, 6
10, 1
6, 4
0, 0
3, 2
2, 4
2, 5
4, 5
3, 1
2, 4
0, 1
2, 0
2, 3
4, 2
1, 2
4, 1
0, 1
1, 1
2, 3
4, 2
0, 5
3, 2
4, 3
3, 1
0, 1
0, 3
1, 1
1, 1
5, 2
1, 1
2, 3
3, 2
3, 3
4, 4
3, 6
4, 5
1, 4
0, 2
2, 5
9, 3
5, 2
1, 2
3, 3
1, 2
3, 0
1, 0
3, 3
1, 1
1, 0
0, 2
1, 3
0, 5
1, 0
3, 2
2, 0
3, 0
0, 4
2, 1
1, 0
2, 2
4, 3
0, 2
3, 2
1, 2
3, 2
2, 4
0, 0
6, 0
1, 2
2, 2
0, 1
2, 3
0, 2
0, 2
0, 1
1, 1
0, 4
1, 0
0, 0
3, 1
1, 3
3, 1
1, 0
1, 2
1, 2
0, 1
1, 0
0, 1
0, 0
0, 0
1, 0
1, 2
1, 0
0, 0
2, 2
0, 0
0, 1
0, 0
1, 0
1, 0
1, 0
0, 0
0, 1
2, 0
1, 2
0, 1
1, 1
0, 0
2, 0
0, 0
3, 0
1, 1
2, 0
2, 0
0, 1
0, 0
0, 2
1, 2
2, 0
1, 4
3, 1
1, 1
1, 0
1, 2
1, 0
0, 4
2, 1
1, 1
0, 1
0, 2
0, 0
1, 1
1, 3
1, 1
0, 0
0, 1
0, 0
1, 0
0, 0
1, 1
2, 0
2, 0
0, 0
0, 0
1, 1
0, 0
0, 3
0, 1
2, 0
1, 1
0, 0
1, 2
2, 2
0, 0
0, 1
1, 0
0, 3
0, 0
0, 2
1, 0
0, 0
0, 0
1, 1
0, 0
0, 0
0, 1
1, 1
1, 1
1, 0
0, 1
1, 0
2, 2
0, 0
1, 0
1, 0
1, 0
1, 0
0, 0
0, 0
0, 0
0, 0
1, 0
0, 0
1, 0
0, 0
1, 0
0, 0
0, 0
0, 0
0, 1
1, 1
1, 0
0, 0
1, 1
0, 0
2, 0
1, 1
1, 1
1, 2
0, 2
0, 0
0, 1
1, 0
0, 0
0, 0
2, 0
2, 0
0, 1
0, 0
0, 1
0, 0
1, 0
0, 1
0, 0
0, 0
0, 1
0, 2
0, 0
1, 1
0, 0
1, 0
0, 0
0, 1
0, 0
0, 0
0, 0
1, 1
0, 0
0, 0
1, 0
0, 0
1, 1
0, 0
0, 0
0, 0
0, 1
0, 1
0, 0
0, 0
0, 0
1, 1
0, 0
0, 1
0, 1
0, 0
0, 0
0, 0
0, 0
0, 0
0, 0
0, 0
0, 0
0, 0
0, 0
0, 0
0, 0
0, 0
0, 1
1, 0
0, 0
0, 0
0, 0
1, 1
0, 0
0, 0
0, 0
0, 0
0, 0
0, 1
0, 0
0, 1
0, 0
0, 1
1, 0
0, 0
0, 0
0, 0
0, 0
0, 0
0, 0
0, 0
0, 1
1, 0
0, 0
0, 0
0, 0
0, 1
0, 0
0, 0
0, 0
0, 0
0, 0
0, 0
0, 0
0, 0
0, 1
1, 1
1, 0
0, 0
0, 0
0, 0
0, 0
0, 0
0, 0
0, 0
0, 0
0, 1
0, 0
0, 0
0, 0
0, 1
0, 0
0, 1
2, 1
0, 1
0, 0
0, 2
0, 0
0, 0
1, 0
2, 1
0, 0
0, 1
0, 1
0, 0
0, 0
0, 1
0, 1
0, 0
0, 1
0, 0
0, 0
0, 0
0, 0
0, 0
0, 0
0, 0
0, 0
0, 0
0, 0
0, 0
0, 0
0, 0
0, 0
0, 0
1, 0
0, 0
0, 0
1, 0
0, 0
0, 0
0, 0
0, 0
0, 0
0, 0
0, 0
1, 0
0, 0
0, 0
0, 0
0, 0
0, 0
0, 1
0, 0
0, 0
0, 0
0, 0
0, 0
0, 0
0, 0
0, 0
0, 0
0, 0
0, 0
0, 0
0, 0
0, 0
0, 0
0, 0
0, 0
0, 0
0, 0
0, 0
0, 0
0, 0
0, 0
0, 0
0, 0
0, 0
0, 0
0, 0
0, 0
0, 0
0, 0
0, 0
0, 0
0, 0
0, 0
0, 0
0, 0
0, 0
0, 0
0, 0
0, 1
0, 0
0, 0
0, 0
0, 0
0, 0
0, 0
0, 0
0, 0
0, 0
0, 0
0, 0
0, 0
0, 0
0, 0
0, 0
0, 0
0, 0
0, 0
0, 0
0, 0
0, 0
0, 0
0, 0
0, 0
0, 0
0, 0
1, 0
0, 0
0, 0
0, 0
0, 0
0, 0
0, 0
0, 0
0, 0
0, 0
0, 0
0, 0
0, 0
0, 0
1, 0
0, 0
0, 0
0, 0
0, 0
0, 0
0, 0
0, 0
0, 0
0, 0
0, 0
0, 0
0, 0
0, 0
0, 0
0, 0
0, 0
0, 0
0, 0
0, 0
0, 0
0, 0
0, 0
0, 0
0, 0
0, 0
0, 0
0, 1
0, 0
0, 0
0, 0
0, 0
0, 0
0, 0
0, 0
0, 0
0, 0
0, 0
0, 0
0, 0
0, 0
0, 0
0, 0
0, 0
0, 0
0, 0
0, 0
0, 0
0, 0
0, 0
0, 0
0, 0
0, 0
0, 0
0, 0
0, 0
0, 0
0, 0
0, 0
0, 0
0, 0
0, 0
0, 0
0, 0
0, 0
0, 0
0, 0
0, 0
0, 0
0, 0
0, 0
0, 0
0, 0
0, 0
0, 0
0, 0
0, 0
0, 0
0, 0
0, 0
0, 0
0, 0
0, 0
0, 0
0, 0
0, 0
0, 0
0, 0
0, 0
0, 0
0, 0
0, 0
0, 0
0, 0
0, 0
0, 0
0, 0
0, 0
0, 0
0, 0
0, 0
0, 0
0, 0
0, 0
0, 0
0, 0
0, 0
0, 0
0, 0
0, 0
0, 0
0, 0
0, 0
0, 0
0, 0
0, 0
0, 0
0, 0
0, 0
0, 0
0, 0
0, 0
0, 0
0, 0
0, 0
0, 0
0, 0
0, 0
0, 0
0, 0
0, 0
0, 0
0, 0
0, 0
0, 0
0, 0
0, 0
0, 0
0, 0
0, 0
0, 0
0, 0
0, 0
0, 0
0, 0
0, 0
0, 0
0, 0
0, 0
0, 0
0, 0
0, 0
0, 0
0, 0
0, 0
0, 0
0, 0
0, 0
0, 0
0, 0
0, 0
0, 0
0, 0
0, 0
0, 0
0, 0
0, 0
0, 0
0, 0
0, 0
0, 0
0, 0
0, 0
0, 0
0, 0
0, 0
0, 0
0, 0
0, 0
0, 0
0, 0
0, 0
0, 0
0, 0
0, 0
0, 0
0, 0
0, 0
0, 0
0, 0
0, 0
0, 0
0, 0
0, 0
0, 0
0, 0
0, 0
0, 0
0, 0
0, 0
0, 0
0, 0
0, 0
0, 0
0, 0
0, 0
0, 0
0, 0
0, 0
0, 0
0, 0
0, 0
0, 0
0, 0
0, 0
0, 0
0, 0
0, 0
0, 0
0, 0
0, 0
0, 0
0, 0
0, 0
0, 0
0, 0
0, 0
0, 0
0, 0
0, 0
0, 0
0, 0
0, 0
0, 0
0, 0
0, 0
0, 0
0, 0
0, 0
0, 0
0, 0
0, 0
0, 0
0, 0
0, 0
0, 0
0, 0
0, 0
0, 0
0, 0
0, 0
0, 0
0, 0
0, 0
0, 0
0, 0
0, 0
0, 0
0, 0
0, 0
0, 0
0, 0
0, 0
0, 0
0, 0
0, 0
0, 0
0, 0
0, 0
0, 0
0, 0
0, 0
0, 0
0, 0
0, 0
0, 0
0, 0
0, 0
0, 0
0, 0
0, 0
0, 0
0, 0
0, 0
0, 0
0, 0
0, 0
0, 0
0, 0
0, 0
0, 0
0, 0
0, 0
0, 0
0, 0
0, 0
0, 0
0, 0
0, 0
0, 0
0, 0
0, 0
0, 0
0, 0
0, 0
0, 0
0, 0
0, 0
0, 0
0, 0
0, 0
0, 0
0, 0
0, 0
0, 0
0, 0
0, 0
0, 0
0, 0
0, 0
0, 0
0, 0
0, 0
0, 0
0, 0
0, 0
0, 0
0, 0
0, 0
0, 0
0, 0
0, 0
0, 0
0, 0
0, 0
0, 0
0, 0
0, 0
0, 0
0, 0
0, 0
0, 0
0, 0
0, 0
0, 0
0, 0
0, 0
0, 0
0, 0
0, 0
0, 0
0, 0
0, 0
0, 0
0, 0
0, 0
0, 0
0, 0
0, 0
0, 0
0, 0
0, 0
0, 0
0, 0
0, 0
0, 0
0, 0
0, 0
0, 0
0, 0
0, 0
0, 0
0, 0
0, 0
0, 0
0, 0
0, 0
0, 0
0, 0
0, 0
0, 0
0, 0
0, 0
0, 0
0, 0
0, 0
0, 0
0, 0
0, 0
0, 0
0, 0
0, 0
0, 0
0, 0
0, 0
0, 0
0, 0
0, 0
0, 0
0, 0
0, 0
0, 0
0, 0
0, 0
0, 0
0, 0
0, 0
0, 0
0, 0
0, 0
0, 0
0, 0
0, 0
0, 0
0, 0
0, 0
0, 0
0, 0
0, 0
#ENDOFDATA     end of spectrum data