File: host_upload/06-09-2024/ps_0852/dump3/ps__0852shot_2354.msa
#FORMAT      : EMSA/MAS spectral data file
#VERSION     : TC202v2.0 PIXL
#TITLE       : N/A
#DATE        :       Date in the format DD-MMM-YYYY, for example 07-JUL-2010
#TIME        :             The time of day at which the spectrum was recorded, in 24-hour format
#OWNER       : PIXL Flight Model       (PIXL will use this to indicate which instrument took the data.)
#NPOINTS     : 4096     Number of data points in the spectrum (This can be zero for configuration only files)
#NCOLUMNS    : 2     Number of data columns in the spectrum (This can be zero for configuration only files)
#XUNITS      : eV
#YUNITS      : COUNTS
#DATATYPE    : YY
#XPERCHAN    : 7.862, 7.881   eV per channel (separate by commas if more than one detector)
#OFFSET      : 18.5, -22.4         eV of first channel  (separate by commas if more than one detector
#SIGNALTYPE  : XRF
#YP_TEMP     : 2.267
#LIVETIME    : 8.57467, 8.54937   seconds (separate by commas if more than one detector)
#REALTIME    : 10, 10.0   seconds (separate by commas if more than one detector)
#SPECTRUM    : start of spectrum data
0, 0
0, 0
0, 0
0, 0
0, 0
0, 0
0, 0
0, 0
0, 0
0, 0
0, 0
0, 0
0, 0
0, 0
0, 0
0, 0
0, 0
0, 0
0, 0
0, 0
0, 0
0, 0
0, 0
0, 0
0, 0
0, 0
0, 0
0, 0
0, 0
0, 0
0, 0
0, 0
0, 0
0, 0
0, 2
0, 1
1, 1
0, 1
0, 0
0, 1
1, 1
1, 4
4, 0
3, 2
1, 1
2, 0
0, 3
1, 2
5, 3
5, 14
13, 19
36, 43
37, 62
49, 69
59, 77
57, 61
43, 54
37, 38
16, 23
14, 16
7, 11
4, 4
2, 10
1, 0
1, 12
6, 6
4, 5
8, 14
22, 19
38, 54
91, 122
156, 214
259, 290
288, 447
344, 507
400, 464
331, 440
247, 338
180, 241
90, 127
70, 85
28, 41
18, 13
10, 10
5, 9
2, 0
4, 0
2, 1
1, 1
3, 5
5, 2
1, 6
6, 5
17, 13
15, 26
20, 39
51, 55
53, 85
53, 81
65, 84
58, 58
50, 44
32, 34
26, 27
10, 20
11, 17
14, 12
10, 24
26, 17
27, 26
26, 35
43, 43
49, 49
50, 55
44, 75
63, 63
67, 37
40, 36
35, 33
39, 27
36, 28
26, 21
22, 33
24, 29
26, 26
14, 9
16, 15
12, 11
12, 12
7, 9
10, 4
9, 9
7, 1
2, 4
0, 2
1, 2
1, 1
0, 1
1, 2
2, 3
2, 2
3, 1
1, 3
2, 2
5, 1
1, 3
3, 0
2, 7
2, 3
4, 2
6, 6
0, 3
4, 3
3, 5
5, 13
12, 9
10, 14
12, 14
7, 15
13, 17
2, 27
4, 34
3, 37
5, 65
2, 64
4, 65
2, 56
5, 66
5, 57
2, 46
6, 27
8, 24
10, 14
6, 7
9, 7
15, 7
13, 5
8, 14
10, 10
8, 10
8, 8
3, 1
8, 3
7, 5
9, 6
8, 8
4, 6
2, 3
8, 6
6, 5
8, 8
8, 9
13, 15
10, 15
17, 25
11, 30
15, 19
8, 26
15, 21
18, 27
12, 24
19, 16
11, 11
4, 13
7, 15
10, 7
3, 7
5, 4
7, 10
5, 6
6, 4
6, 4
7, 6
8, 9
7, 6
5, 11
7, 11
5, 5
2, 7
3, 11
3, 3
5, 6
1, 4
10, 12
7, 8
5, 10
10, 13
7, 11
11, 7
5, 10
11, 16
6, 17
13, 8
10, 9
14, 5
8, 9
7, 7
7, 10
3, 5
4, 9
3, 11
8, 5
9, 6
11, 12
8, 17
16, 11
16, 28
31, 56
53, 60
57, 62
42, 64
56, 63
59, 68
57, 45
60, 42
58, 38
72, 22
70, 25
63, 21
76, 18
58, 16
60, 34
76, 69
108, 123
174, 230
245, 378
395, 622
674, 1031
969, 1432
1251, 1961
1587, 2330
1895, 2516
2056, 2630
1959, 2492
1753, 2160
1428, 1580
1098, 1260
772, 763
510, 501
297, 287
139, 143
73, 95
51, 68
19, 50
15, 35
8, 36
7, 46
11, 39
18, 35
19, 48
20, 35
27, 45
37, 62
65, 90
66, 136
120, 184
172, 261
214, 332
264, 355
282, 368
287, 365
278, 343
263, 267
204, 223
159, 182
122, 114
83, 86
50, 42
28, 20
23, 15
16, 5
14, 9
25, 9
22, 5
26, 14
19, 9
21, 15
19, 17
19, 18
13, 18
11, 12
9, 9
18, 8
1, 11
6, 11
3, 10
0, 8
2, 9
5, 9
1, 19
6, 20
1, 15
4, 12
6, 15
8, 12
7, 5
5, 6
9, 9
12, 5
8, 5
4, 3
4, 5
13, 7
3, 9
5, 5
6, 4
10, 12
7, 5
5, 2
12, 6
9, 10
3, 8
4, 4
2, 9
6, 3
8, 4
2, 5
3, 3
3, 6
3, 1
6, 3
5, 5
2, 3
4, 4
3, 3
1, 7
6, 5
6, 10
2, 5
3, 7
5, 3
2, 2
6, 5
4, 5
4, 1
4, 3
4, 7
3, 4
2, 3
3, 4
3, 5
2, 1
3, 3
0, 8
2, 3
3, 9
3, 6
2, 4
1, 6
2, 8
5, 9
5, 14
2, 11
3, 12
1, 10
5, 12
4, 11
4, 8
4, 13
5, 7
0, 3
2, 1
6, 3
2, 5
2, 5
3, 3
9, 5
6, 4
9, 3
12, 2
10, 2
5, 2
12, 6
6, 3
8, 8
6, 7
7, 11
5, 12
6, 8
5, 2
3, 8
3, 4
2, 7
0, 8
2, 7
0, 9
0, 2
3, 8
1, 5
3, 11
3, 11
0, 11
2, 7
2, 8
2, 6
3, 6
2, 9
1, 4
3, 3
2, 3
3, 7
1, 4
3, 3
3, 6
1, 5
3, 6
4, 6
1, 6
2, 2
3, 7
5, 5
4, 2
5, 4
2, 2
2, 3
0, 2
2, 2
1, 1
3, 1
1, 2
4, 1
1, 3
4, 1
3, 0
2, 3
1, 2
2, 3
4, 4
2, 2
1, 1
5, 3
4, 1
5, 1
3, 2
2, 6
0, 3
2, 2
0, 2
1, 3
3, 0
1, 3
0, 5
2, 2
3, 7
2, 3
5, 3
0, 6
2, 4
2, 1
2, 5
3, 6
1, 2
1, 2
2, 4
1, 7
1, 0
2, 2
1, 1
1, 3
0, 2
1, 2
2, 0
3, 3
2, 4
3, 3
3, 3
0, 4
1, 8
2, 2
2, 3
1, 2
1, 2
3, 2
3, 4
2, 4
0, 2
5, 3
3, 3
0, 0
2, 1
3, 1
2, 2
2, 2
3, 3
1, 6
1, 4
5, 4
4, 4
5, 2
4, 1
2, 3
3, 4
3, 6
4, 3
2, 2
2, 2
6, 4
1, 5
2, 3
2, 3
6, 3
2, 7
5, 6
5, 4
4, 1
4, 5
1, 5
0, 6
2, 1
5, 0
1, 2
2, 2
1, 1
5, 2
1, 5
1, 0
1, 1
0, 3
2, 1
0, 2
2, 2
2, 1
1, 1
0, 2
0, 4
2, 3
2, 2
1, 1
3, 2
1, 2
0, 1
1, 4
0, 1
1, 0
0, 2
0, 2
2, 4
0, 0
0, 1
2, 1
0, 1
1, 0
2, 0
2, 4
1, 2
0, 1
0, 2
0, 4
1, 1
1, 2
1, 1
1, 2
0, 1
0, 0
2, 1
1, 4
0, 3
3, 0
1, 0
0, 2
1, 1
1, 2
0, 1
0, 2
0, 0
0, 1
0, 4
1, 4
0, 1
2, 2
0, 1
1, 2
1, 4
0, 1
1, 1
0, 0
1, 0
0, 1
1, 2
0, 0
3, 0
1, 2
2, 1
0, 0
3, 2
1, 0
0, 1
1, 0
1, 0
1, 0
0, 0
3, 1
0, 1
1, 2
0, 0
0, 0
1, 1
0, 1
1, 0
0, 1
1, 2
1, 1
0, 1
1, 0
0, 0
1, 1
0, 1
0, 0
0, 0
0, 0
1, 1
0, 0
1, 1
0, 2
1, 0
0, 0
1, 1
0, 1
0, 0
0, 0
0, 0
0, 0
1, 1
0, 1
0, 1
1, 0
0, 0
0, 1
3, 2
1, 1
0, 0
0, 0
0, 2
2, 1
1, 1
0, 1
1, 2
0, 3
0, 1
1, 0
1, 0
0, 1
0, 0
0, 0
1, 0
1, 0
1, 0
0, 0
0, 1
1, 0
0, 0
0, 0
1, 0
0, 0
1, 1
0, 1
0, 0
0, 0
0, 0
1, 0
1, 0
0, 0
0, 0
0, 0
0, 0
0, 0
0, 1
0, 2
1, 1
0, 1
2, 0
0, 0
0, 0
0, 1
0, 0
1, 0
0, 2
0, 0
0, 0
0, 1
0, 0
0, 0
0, 0
0, 0
1, 0
1, 0
2, 0
1, 0
0, 0
1, 0
1, 0
1, 0
0, 0
1, 1
1, 1
1, 0
0, 0
0, 0
0, 0
1, 0
0, 0
0, 0
0, 0
0, 0
0, 0
0, 0
0, 0
0, 0
0, 0
0, 0
0, 0
1, 0
0, 1
0, 0
0, 0
0, 1
0, 0
0, 0
0, 0
0, 0
1, 0
0, 0
0, 0
0, 0
0, 1
0, 0
0, 1
1, 1
0, 0
1, 0
0, 0
0, 0
0, 0
1, 0
0, 2
0, 0
0, 0
0, 0
0, 0
0, 1
0, 0
0, 1
0, 0
2, 0
0, 0
0, 0
0, 0
1, 0
0, 1
0, 1
0, 1
0, 1
0, 1
0, 2
0, 0
0, 0
0, 0
0, 0
0, 0
0, 1
0, 0
0, 2
0, 0
0, 0
0, 0
0, 1
0, 1
0, 1
0, 0
0, 0
0, 0
0, 0
0, 0
0, 0
0, 0
0, 0
0, 0
0, 0
0, 0
0, 0
1, 0
0, 0
0, 2
0, 0
0, 0
1, 0
0, 0
0, 0
0, 1
0, 0
0, 0
0, 1
1, 0
0, 0
0, 0
1, 0
0, 0
0, 0
0, 0
0, 0
0, 0
0, 0
0, 0
0, 0
0, 0
1, 0
1, 1
1, 0
0, 0
0, 0
0, 0
0, 0
0, 0
1, 0
0, 0
0, 0
1, 1
0, 0
0, 0
0, 0
0, 1
0, 0
0, 1
0, 0
0, 0
0, 0
0, 0
0, 0
0, 0
1, 0
0, 0
0, 1
0, 0
0, 0
0, 0
0, 0
0, 0
0, 0
0, 0
0, 0
0, 0
0, 0
1, 0
0, 0
0, 0
0, 0
0, 0
0, 0
0, 0
0, 0
0, 0
0, 0
0, 0
1, 0
0, 0
0, 0
0, 0
0, 0
0, 0
1, 0
0, 0
0, 0
0, 0
0, 0
0, 0
0, 0
0, 0
0, 0
0, 0
1, 0
0, 0
0, 0
0, 0
0, 0
0, 0
0, 0
0, 0
0, 0
0, 0
0, 0
0, 0
0, 0
0, 0
0, 0
0, 0
0, 0
0, 0
0, 0
0, 0
0, 0
0, 0
0, 0
0, 0
0, 0
0, 0
0, 1
0, 0
0, 0
0, 0
0, 0
0, 0
0, 0
0, 0
0, 0
0, 0
0, 0
0, 0
0, 0
1, 0
0, 0
0, 0
0, 0
0, 0
0, 0
0, 0
0, 0
0, 0
0, 0
0, 0
0, 0
0, 0
0, 0
0, 0
1, 0
0, 0
0, 0
0, 0
0, 0
0, 0
0, 0
0, 0
0, 0
0, 0
0, 0
0, 0
0, 0
0, 0
0, 0
0, 0
0, 0
0, 0
0, 0
0, 0
0, 0
0, 0
0, 0
0, 0
0, 0
0, 0
0, 0
0, 0
0, 0
0, 0
0, 0
0, 0
0, 0
0, 0
0, 0
0, 0
0, 0
0, 0
0, 0
0, 0
0, 0
0, 0
0, 0
0, 0
0, 0
0, 0
0, 0
0, 0
0, 0
0, 0
0, 0
0, 0
0, 0
0, 0
0, 0
0, 0
0, 0
0, 0
0, 0
0, 0
0, 0
0, 0
0, 0
0, 0
0, 0
0, 0
0, 0
0, 0
0, 0
0, 0
0, 0
0, 0
0, 0
0, 0
0, 0
0, 0
0, 0
0, 0
0, 0
0, 0
0, 0
0, 0
0, 0
0, 0
0, 0
0, 0
0, 0
0, 0
0, 0
0, 0
0, 0
0, 0
0, 0
0, 0
0, 0
0, 0
0, 0
0, 0
0, 0
0, 0
0, 0
0, 0
0, 0
0, 0
0, 0
0, 0
0, 0
0, 0
0, 0
0, 0
0, 0
0, 0
0, 0
0, 0
0, 0
0, 0
0, 0
0, 0
0, 1
0, 0
0, 0
0, 0
0, 0
0, 0
0, 0
0, 0
0, 0
0, 0
0, 0
0, 0
0, 0
0, 0
0, 0
0, 0
0, 0
0, 0
0, 0
0, 0
0, 0
0, 0
0, 0
0, 0
0, 0
0, 0
0, 0
0, 0
0, 0
0, 0
0, 0
0, 0
0, 0
0, 0
0, 0
0, 0
0, 0
0, 0
0, 0
0, 0
0, 0
0, 0
0, 0
0, 0
0, 0
0, 0
0, 0
0, 0
0, 0
0, 0
0, 0
0, 0
0, 0
0, 0
0, 0
0, 0
0, 0
0, 0
0, 0
0, 0
0, 0
0, 0
0, 0
0, 0
0, 0
0, 0
0, 0
0, 0
0, 0
0, 0
0, 0
0, 0
0, 0
0, 0
0, 0
0, 0
0, 0
0, 0
0, 0
0, 0
0, 0
0, 0
0, 0
0, 0
0, 0
0, 0
0, 0
0, 0
0, 0
0, 0
0, 0
0, 0
0, 0
0, 0
0, 0
0, 0
0, 0
0, 0
0, 0
0, 0
0, 0
0, 0
0, 0
0, 0
0, 0
0, 0
0, 0
0, 0
0, 0
0, 0
0, 0
0, 0
0, 0
0, 0
0, 0
0, 0
0, 0
0, 0
0, 0
0, 0
0, 0
0, 0
0, 0
0, 0
0, 0
0, 0
0, 0
0, 0
0, 0
0, 0
0, 0
0, 0
0, 0
0, 0
0, 0
0, 0
0, 0
0, 0
0, 0
0, 0
0, 0
0, 0
0, 0
0, 0
0, 0
0, 0
0, 0
0, 0
0, 0
0, 0
0, 0
0, 0
0, 0
0, 0
0, 0
0, 0
0, 0
0, 0
0, 0
0, 0
0, 0
0, 0
0, 0
0, 0
0, 0
0, 0
0, 0
0, 0
0, 0
0, 0
0, 0
0, 0
0, 0
0, 0
0, 0
0, 0
0, 0
0, 0
0, 0
0, 0
0, 0
0, 0
0, 0
0, 0
0, 0
0, 0
0, 0
0, 0
0, 0
0, 0
0, 0
0, 0
0, 0
0, 0
0, 0
0, 0
0, 0
0, 0
0, 0
0, 0
0, 0
0, 0
0, 0
0, 0
0, 0
0, 0
0, 0
0, 0
0, 0
0, 0
0, 0
0, 0
0, 0
0, 0
0, 0
0, 0
0, 0
0, 0
0, 0
0, 0
0, 0
0, 0
0, 0
0, 0
0, 0
0, 0
0, 0
0, 0
0, 0
0, 0
0, 0
0, 0
0, 0
0, 0
0, 0
0, 0
0, 0
0, 0
0, 0
0, 0
0, 0
0, 0
0, 0
0, 0
0, 0
0, 0
0, 0
0, 0
0, 0
0, 0
0, 0
0, 0
0, 0
0, 0
0, 0
0, 0
0, 0
0, 0
0, 0
0, 0
0, 0
0, 0
0, 0
0, 0
0, 0
0, 0
0, 0
0, 0
0, 0
0, 0
0, 0
0, 0
0, 0
0, 0
0, 0
0, 0
0, 0
0, 0
0, 0
0, 0
0, 0
0, 0
0, 0
0, 0
0, 0
#ENDOFDATA     end of spectrum data