File: host_upload/06-09-2024/ps_0852/dump3/ps__0852shot_2240.msa
#FORMAT      : EMSA/MAS spectral data file
#VERSION     : TC202v2.0 PIXL
#TITLE       : N/A
#DATE        :       Date in the format DD-MMM-YYYY, for example 07-JUL-2010
#TIME        :             The time of day at which the spectrum was recorded, in 24-hour format
#OWNER       : PIXL Flight Model       (PIXL will use this to indicate which instrument took the data.)
#NPOINTS     : 4096     Number of data points in the spectrum (This can be zero for configuration only files)
#NCOLUMNS    : 2     Number of data columns in the spectrum (This can be zero for configuration only files)
#XUNITS      : eV
#YUNITS      : COUNTS
#DATATYPE    : YY
#XPERCHAN    : 7.862, 7.881   eV per channel (separate by commas if more than one detector)
#OFFSET      : 18.5, -22.4         eV of first channel  (separate by commas if more than one detector
#SIGNALTYPE  : XRF
#YP_TEMP     : 2.332
#LIVETIME    : 8.55624, 8.52401   seconds (separate by commas if more than one detector)
#REALTIME    : 10, 10.0   seconds (separate by commas if more than one detector)
#SPECTRUM    : start of spectrum data
0, 0
0, 0
0, 0
0, 0
0, 0
0, 0
0, 0
0, 0
0, 0
0, 0
0, 0
0, 0
0, 0
0, 0
0, 0
0, 0
0, 0
0, 0
0, 0
0, 0
0, 0
0, 0
0, 0
0, 0
0, 0
0, 0
0, 0
0, 0
0, 0
0, 0
0, 0
0, 0
0, 1
0, 0
0, 1
0, 0
0, 0
1, 0
1, 0
1, 2
1, 0
4, 1
0, 0
0, 1
1, 1
0, 1
2, 0
2, 3
7, 7
8, 15
31, 32
41, 38
60, 61
80, 67
93, 88
96, 73
66, 60
39, 40
31, 24
12, 16
7, 10
6, 6
4, 2
0, 3
2, 1
4, 2
7, 4
8, 12
29, 19
49, 47
103, 96
166, 179
266, 270
358, 401
413, 399
428, 436
391, 365
314, 292
225, 185
151, 111
64, 63
36, 39
24, 12
14, 6
9, 4
3, 1
2, 1
1, 2
2, 1
0, 0
1, 0
0, 0
1, 0
1, 3
0, 0
0, 3
4, 3
3, 4
4, 1
1, 1
3, 2
0, 3
2, 3
2, 1
1, 2
4, 2
4, 1
6, 1
9, 6
6, 4
11, 7
17, 12
18, 11
24, 17
26, 20
23, 21
29, 24
24, 18
24, 23
18, 21
21, 16
35, 17
27, 25
25, 11
31, 10
22, 14
13, 11
14, 6
11, 5
4, 8
4, 3
3, 2
3, 4
2, 5
2, 2
2, 1
3, 1
1, 0
0, 4
1, 0
3, 1
3, 0
0, 2
3, 0
1, 5
0, 0
1, 3
0, 5
1, 7
2, 12
1, 12
2, 15
8, 18
5, 22
8, 31
13, 25
12, 32
14, 27
17, 16
12, 25
11, 13
11, 10
8, 4
4, 6
2, 2
2, 2
2, 2
3, 2
4, 0
5, 5
6, 2
6, 2
5, 4
1, 3
4, 2
7, 3
4, 4
2, 0
6, 1
15, 0
16, 2
38, 5
33, 2
48, 6
47, 2
68, 0
72, 2
55, 3
48, 5
44, 4
39, 5
24, 6
21, 3
30, 9
13, 12
22, 8
10, 10
17, 13
5, 11
17, 13
24, 16
17, 5
8, 12
10, 5
6, 3
12, 2
4, 5
5, 2
4, 3
5, 11
8, 8
0, 3
4, 8
5, 6
3, 8
3, 8
4, 12
5, 7
5, 12
5, 16
4, 9
4, 10
6, 5
5, 10
2, 9
5, 11
3, 9
4, 7
14, 28
11, 14
16, 14
17, 21
11, 26
19, 23
14, 36
10, 28
21, 24
17, 16
17, 15
18, 10
25, 10
28, 8
49, 9
68, 7
66, 15
84, 27
89, 22
110, 37
135, 51
119, 65
132, 65
80, 48
91, 54
78, 60
47, 43
43, 31
21, 33
30, 16
20, 11
27, 16
38, 11
40, 36
67, 46
110, 100
182, 195
311, 317
515, 588
835, 897
1179, 1274
1537, 1697
2012, 2041
2295, 2257
2485, 2319
2426, 2165
2014, 1808
1718, 1516
1360, 1024
894, 675
587, 412
377, 247
211, 120
126, 66
75, 37
31, 22
20, 18
19, 20
7, 17
9, 11
12, 16
12, 19
25, 25
31, 25
46, 56
83, 97
109, 143
132, 136
202, 214
261, 275
350, 351
374, 352
352, 353
402, 317
336, 227
301, 212
208, 122
138, 89
114, 62
71, 36
33, 27
25, 11
26, 8
12, 10
10, 5
15, 11
18, 7
11, 12
15, 12
20, 11
12, 13
12, 14
13, 12
11, 8
10, 6
10, 4
4, 4
8, 6
7, 1
6, 5
2, 1
3, 3
2, 5
4, 2
3, 1
3, 3
6, 2
5, 2
2, 2
1, 4
2, 2
3, 1
4, 5
4, 8
2, 2
7, 6
6, 3
9, 2
2, 5
2, 5
9, 7
4, 2
2, 3
6, 7
7, 1
7, 3
0, 3
7, 5
4, 7
9, 5
6, 9
2, 3
8, 9
8, 7
9, 8
7, 6
12, 5
10, 8
14, 3
15, 5
12, 6
9, 6
10, 7
20, 6
9, 7
7, 8
6, 8
7, 7
6, 16
7, 9
1, 14
2, 14
4, 6
0, 11
4, 6
5, 4
3, 7
5, 2
2, 4
2, 3
4, 4
3, 3
5, 3
5, 2
6, 4
3, 4
5, 3
5, 3
5, 7
2, 3
7, 4
6, 6
5, 4
6, 5
3, 2
5, 5
1, 0
2, 2
2, 1
0, 2
2, 4
3, 2
1, 1
0, 4
1, 3
5, 3
5, 1
4, 3
5, 3
3, 4
4, 4
3, 1
6, 4
3, 3
6, 6
7, 2
7, 6
9, 5
8, 8
14, 5
4, 7
9, 10
11, 11
10, 5
10, 13
8, 7
8, 13
6, 15
6, 14
2, 16
5, 5
4, 12
2, 9
5, 8
0, 7
3, 3
3, 1
2, 3
2, 3
2, 8
2, 3
4, 5
1, 5
5, 6
2, 1
5, 5
2, 4
4, 2
0, 5
2, 3
2, 2
6, 0
3, 2
4, 1
2, 1
2, 1
2, 5
2, 1
3, 2
2, 3
3, 4
2, 1
3, 3
3, 2
3, 2
0, 3
2, 0
2, 2
3, 1
2, 1
1, 2
4, 2
1, 1
1, 1
2, 1
2, 1
0, 1
3, 1
2, 2
1, 1
0, 4
9, 0
2, 3
1, 0
3, 2
3, 0
3, 1
5, 0
4, 2
6, 1
2, 3
4, 2
2, 3
2, 3
1, 1
0, 8
1, 1
2, 0
3, 2
1, 1
1, 2
1, 5
3, 0
1, 1
3, 3
1, 2
0, 0
2, 1
1, 1
3, 1
4, 2
1, 1
6, 1
2, 4
1, 4
1, 1
2, 6
2, 5
2, 1
2, 4
3, 4
1, 3
3, 3
3, 7
1, 1
4, 3
1, 5
1, 3
2, 4
2, 3
3, 2
6, 0
2, 1
6, 3
4, 2
1, 3
8, 2
2, 1
0, 2
4, 1
2, 3
2, 1
3, 2
3, 2
3, 2
4, 1
0, 0
1, 0
2, 2
1, 2
2, 1
0, 1
1, 4
1, 1
4, 2
3, 0
1, 1
0, 0
3, 3
2, 0
1, 3
0, 4
2, 0
0, 0
0, 2
1, 2
2, 0
2, 1
1, 0
1, 2
2, 0
3, 1
0, 0
0, 0
2, 1
1, 0
2, 0
1, 2
1, 0
3, 0
0, 0
2, 2
0, 3
1, 0
3, 2
2, 0
0, 0
3, 0
0, 2
2, 0
2, 1
0, 1
3, 3
1, 0
0, 1
0, 1
2, 0
0, 1
1, 0
0, 1
1, 0
0, 2
1, 0
0, 0
3, 0
1, 1
1, 1
1, 0
0, 0
0, 0
2, 0
2, 2
0, 0
1, 0
1, 4
0, 1
3, 2
0, 1
0, 0
0, 0
0, 2
2, 0
0, 0
0, 2
2, 0
1, 0
1, 0
1, 1
1, 0
2, 1
1, 1
1, 0
0, 0
1, 0
0, 2
1, 0
1, 0
1, 1
0, 0
0, 1
1, 1
1, 1
0, 0
0, 1
0, 0
0, 0
1, 0
1, 0
1, 1
1, 1
1, 0
0, 1
1, 0
0, 0
0, 0
1, 1
0, 2
0, 1
0, 1
2, 0
0, 0
1, 0
2, 0
0, 2
0, 0
1, 1
0, 0
3, 1
0, 2
0, 1
0, 1
2, 1
0, 1
1, 0
0, 0
0, 0
2, 0
0, 0
0, 1
0, 0
1, 1
1, 1
0, 0
0, 0
1, 0
0, 0
0, 0
0, 0
0, 0
0, 0
2, 0
1, 0
1, 0
1, 0
2, 1
0, 0
1, 0
0, 1
0, 0
0, 1
0, 0
0, 0
0, 0
1, 0
1, 0
1, 0
0, 0
0, 0
0, 0
1, 1
0, 0
0, 1
0, 0
0, 0
0, 0
0, 0
0, 1
0, 1
0, 0
0, 0
3, 0
2, 0
0, 1
2, 0
0, 0
0, 0
1, 1
0, 0
0, 0
1, 0
0, 0
0, 0
0, 2
0, 2
0, 2
0, 0
0, 0
1, 0
0, 0
0, 2
0, 0
0, 1
0, 0
0, 0
0, 0
1, 0
0, 1
0, 1
0, 0
0, 0
0, 0
1, 0
0, 1
0, 0
0, 0
1, 0
0, 0
0, 0
0, 0
1, 0
0, 1
0, 0
1, 0
1, 0
0, 0
0, 0
0, 0
1, 1
0, 0
0, 0
0, 2
0, 0
0, 1
0, 0
0, 0
0, 0
0, 0
0, 0
0, 1
1, 1
1, 0
0, 0
0, 0
0, 0
0, 0
1, 0
1, 2
0, 0
0, 0
1, 0
0, 0
0, 0
0, 0
0, 0
0, 1
0, 0
1, 1
0, 0
0, 0
0, 0
0, 0
1, 0
0, 0
0, 0
0, 1
1, 0
2, 0
0, 1
0, 2
0, 0
0, 0
0, 0
0, 0
1, 1
0, 0
0, 0
0, 0
0, 0
0, 0
0, 0
0, 0
0, 0
1, 0
0, 0
0, 0
0, 1
1, 0
0, 0
1, 0
0, 0
0, 0
0, 0
0, 1
0, 0
1, 0
0, 0
0, 1
0, 0
0, 0
0, 0
1, 1
0, 0
0, 0
0, 0
0, 1
0, 0
0, 0
0, 0
0, 0
0, 0
0, 1
0, 1
0, 0
0, 0
0, 0
1, 0
0, 0
0, 0
0, 0
0, 0
0, 0
0, 0
0, 0
0, 0
0, 0
0, 1
0, 0
0, 0
0, 0
0, 0
0, 1
0, 1
0, 0
0, 0
0, 0
0, 0
0, 0
0, 0
0, 0
0, 0
0, 0
0, 0
0, 0
0, 0
0, 0
0, 0
0, 0
0, 0
0, 0
0, 0
0, 0
0, 0
0, 0
0, 1
0, 0
0, 0
0, 0
0, 0
0, 0
0, 0
0, 0
0, 0
0, 0
0, 0
0, 0
0, 0
0, 0
0, 0
0, 0
0, 0
0, 0
0, 0
0, 1
0, 0
0, 0
0, 0
0, 0
0, 0
0, 0
0, 0
0, 0
0, 0
0, 0
0, 0
0, 0
0, 0
0, 0
0, 0
0, 0
0, 0
0, 0
0, 0
0, 0
0, 0
0, 0
0, 0
0, 0
0, 0
0, 0
0, 0
0, 0
0, 0
0, 0
0, 0
1, 0
0, 0
0, 0
0, 0
0, 0
0, 0
0, 0
0, 0
0, 0
0, 1
1, 0
0, 0
0, 1
0, 0
0, 0
0, 0
0, 0
0, 0
0, 0
0, 0
0, 0
0, 0
0, 0
0, 0
0, 0
0, 0
0, 0
0, 0
0, 0
0, 0
0, 0
0, 0
0, 0
0, 0
0, 0
0, 0
0, 0
0, 0
0, 0
0, 0
0, 0
0, 0
0, 0
0, 0
0, 0
0, 0
0, 0
0, 0
0, 0
0, 0
0, 0
0, 0
0, 0
0, 0
0, 0
0, 0
0, 0
0, 0
0, 0
0, 0
0, 0
0, 0
0, 0
0, 0
0, 0
0, 0
0, 0
0, 0
0, 0
0, 0
0, 0
0, 0
0, 0
0, 0
0, 0
0, 0
0, 1
0, 0
0, 0
0, 0
0, 0
0, 0
0, 0
0, 0
0, 0
0, 0
0, 0
0, 0
0, 0
0, 0
0, 0
0, 0
0, 0
0, 0
0, 0
0, 0
0, 0
0, 0
0, 0
0, 0
0, 0
0, 0
0, 0
0, 0
0, 0
0, 0
0, 0
0, 0
0, 0
0, 0
0, 0
0, 0
0, 0
0, 0
0, 0
0, 0
0, 0
0, 0
0, 0
0, 0
0, 0
0, 0
0, 0
0, 0
0, 0
0, 0
0, 0
0, 0
0, 0
0, 0
0, 0
0, 0
0, 0
0, 0
0, 0
0, 0
0, 0
0, 0
0, 0
0, 0
0, 0
0, 0
0, 0
0, 0
0, 0
0, 0
0, 0
0, 0
0, 0
0, 0
0, 0
0, 0
0, 0
0, 0
0, 0
0, 0
0, 0
0, 0
0, 0
0, 0
0, 0
0, 0
0, 0
0, 0
0, 0
0, 0
0, 0
0, 0
0, 0
0, 0
0, 0
0, 0
0, 0
0, 0
0, 0
0, 0
0, 0
0, 0
0, 0
0, 0
0, 0
0, 0
0, 0
0, 0
0, 0
0, 0
0, 0
0, 0
0, 0
0, 0
0, 0
0, 0
0, 0
0, 0
0, 0
0, 0
0, 0
0, 0
0, 0
0, 0
0, 0
0, 0
0, 0
0, 0
0, 0
0, 0
0, 0
0, 0
0, 0
0, 0
0, 0
0, 0
0, 0
0, 0
0, 0
0, 0
0, 0
0, 0
0, 0
0, 0
0, 0
0, 0
0, 0
0, 0
0, 0
0, 0
0, 0
0, 0
0, 0
0, 0
0, 0
0, 0
0, 0
0, 0
0, 0
0, 0
0, 0
0, 0
0, 0
0, 0
0, 0
0, 0
0, 0
0, 0
0, 0
0, 0
0, 0
0, 0
0, 0
0, 0
0, 0
0, 0
0, 0
0, 0
0, 0
0, 0
0, 0
0, 0
0, 0
0, 0
0, 0
0, 0
0, 0
0, 0
0, 0
0, 0
0, 0
0, 0
0, 0
0, 0
0, 0
0, 0
0, 0
0, 0
0, 0
0, 0
0, 0
0, 0
0, 0
0, 0
0, 0
0, 0
0, 0
0, 0
0, 0
0, 0
0, 0
0, 0
0, 0
0, 0
0, 0
0, 0
0, 0
0, 0
0, 0
0, 0
0, 0
0, 0
0, 0
0, 0
0, 0
0, 0
0, 0
0, 0
0, 0
0, 0
0, 0
0, 0
0, 0
0, 0
0, 0
0, 0
0, 0
0, 0
0, 0
0, 0
0, 0
0, 0
0, 0
0, 0
0, 0
0, 0
0, 0
0, 0
0, 0
0, 0
0, 0
0, 0
0, 0
0, 0
0, 0
0, 0
0, 0
0, 0
0, 0
0, 0
0, 0
0, 0
0, 0
0, 0
0, 0
0, 0
0, 0
0, 0
0, 0
0, 0
0, 0
0, 0
0, 0
0, 0
0, 0
0, 0
0, 0
0, 0
0, 0
0, 0
0, 0
0, 0
0, 0
0, 0
0, 0
0, 0
0, 0
0, 0
0, 0
0, 0
0, 0
0, 0
0, 0
0, 0
0, 0
0, 0
0, 0
0, 0
0, 0
0, 0
0, 0
0, 0
0, 0
0, 0
0, 0
0, 0
0, 0
0, 0
0, 0
0, 0
0, 0
0, 0
0, 0
0, 0
0, 0
0, 0
0, 0
0, 0
0, 0
0, 0
0, 0
0, 0
0, 0
0, 0
0, 0
0, 0
0, 0
0, 0
0, 0
0, 0
0, 0
0, 0
0, 0
0, 0
0, 0
0, 0
0, 0
0, 0
#ENDOFDATA     end of spectrum data