File: host_upload/06-09-2024/ps_0852/dump3/ps__0852shot_2257.msa
#FORMAT      : EMSA/MAS spectral data file
#VERSION     : TC202v2.0 PIXL
#TITLE       : N/A
#DATE        :       Date in the format DD-MMM-YYYY, for example 07-JUL-2010
#TIME        :             The time of day at which the spectrum was recorded, in 24-hour format
#OWNER       : PIXL Flight Model       (PIXL will use this to indicate which instrument took the data.)
#NPOINTS     : 4096     Number of data points in the spectrum (This can be zero for configuration only files)
#NCOLUMNS    : 2     Number of data columns in the spectrum (This can be zero for configuration only files)
#XUNITS      : eV
#YUNITS      : COUNTS
#DATATYPE    : YY
#XPERCHAN    : 7.862, 7.881   eV per channel (separate by commas if more than one detector)
#OFFSET      : 18.5, -22.4         eV of first channel  (separate by commas if more than one detector
#SIGNALTYPE  : XRF
#YP_TEMP     : 2.492
#LIVETIME    : 8.55296, 8.56562   seconds (separate by commas if more than one detector)
#REALTIME    : 10, 10.0   seconds (separate by commas if more than one detector)
#SPECTRUM    : start of spectrum data
0, 0
0, 0
0, 0
0, 0
0, 0
0, 0
0, 0
0, 0
0, 0
0, 0
0, 0
0, 0
0, 0
0, 0
0, 0
0, 0
0, 0
0, 0
0, 0
0, 0
0, 0
0, 0
0, 0
0, 0
0, 0
0, 0
0, 0
0, 0
0, 0
0, 0
0, 0
0, 0
0, 0
0, 0
0, 0
2, 1
0, 0
2, 0
2, 1
0, 2
1, 2
0, 2
6, 2
3, 1
1, 1
2, 2
0, 3
1, 3
5, 8
10, 9
25, 22
37, 29
59, 60
67, 73
79, 67
75, 61
57, 52
51, 39
26, 17
5, 14
9, 6
5, 4
4, 4
4, 0
3, 1
7, 2
4, 6
5, 9
15, 20
41, 46
113, 122
171, 167
301, 271
381, 322
429, 380
467, 437
378, 340
282, 287
203, 182
120, 110
82, 57
52, 36
23, 14
14, 9
5, 7
4, 4
1, 8
1, 3
0, 1
2, 2
3, 0
1, 4
0, 1
2, 3
4, 6
3, 6
7, 2
12, 9
10, 13
13, 10
8, 14
8, 13
6, 12
6, 10
9, 14
4, 11
7, 16
11, 14
12, 24
21, 32
44, 57
47, 94
77, 121
90, 185
131, 192
145, 221
124, 194
115, 180
90, 134
64, 93
51, 44
29, 47
29, 21
17, 20
24, 20
18, 14
19, 10
9, 12
13, 6
6, 5
4, 4
3, 4
2, 6
0, 3
1, 4
2, 1
1, 3
2, 3
1, 4
2, 4
2, 2
5, 1
0, 2
1, 2
1, 0
1, 0
1, 4
4, 6
1, 1
9, 3
10, 5
9, 10
21, 20
24, 23
45, 36
57, 29
61, 58
54, 45
48, 55
59, 37
36, 42
32, 26
16, 16
16, 10
10, 10
5, 8
4, 5
8, 9
11, 8
6, 11
12, 12
17, 5
10, 9
16, 7
18, 10
21, 16
14, 7
10, 11
11, 8
8, 8
13, 7
10, 6
13, 4
10, 3
7, 2
8, 3
12, 3
11, 3
8, 7
11, 6
18, 9
15, 14
16, 8
21, 9
23, 18
15, 14
22, 35
29, 31
24, 24
17, 28
19, 28
26, 31
21, 33
14, 35
12, 37
11, 31
13, 25
6, 26
6, 15
9, 15
8, 16
8, 14
7, 14
12, 9
6, 7
10, 6
13, 5
11, 6
9, 9
8, 6
13, 10
13, 10
7, 10
15, 7
13, 8
15, 10
13, 14
14, 19
27, 25
30, 24
28, 19
28, 19
28, 18
40, 21
24, 18
22, 15
18, 12
15, 14
26, 12
16, 17
15, 10
6, 11
16, 18
14, 27
19, 27
30, 44
25, 44
45, 83
43, 83
58, 85
62, 85
62, 91
62, 67
72, 58
40, 52
43, 40
27, 23
24, 25
22, 17
18, 29
27, 27
43, 39
51, 73
85, 128
155, 212
283, 355
485, 576
765, 912
1144, 1283
1622, 1660
2020, 1997
2372, 2247
2438, 2364
2377, 2156
2086, 1825
1734, 1417
1345, 1002
941, 655
557, 424
362, 252
216, 133
109, 77
72, 43
53, 27
43, 24
43, 23
37, 20
69, 17
75, 18
74, 28
79, 24
88, 46
87, 50
103, 99
125, 97
153, 168
210, 208
272, 262
306, 310
327, 347
354, 293
338, 309
284, 267
243, 207
184, 153
128, 107
96, 69
68, 36
40, 21
19, 11
19, 10
8, 8
9, 8
11, 7
12, 12
12, 13
17, 11
18, 10
11, 12
16, 13
12, 13
15, 6
9, 9
12, 6
2, 13
8, 5
8, 9
3, 3
3, 7
6, 5
3, 3
4, 4
4, 3
8, 4
7, 7
4, 4
6, 6
3, 8
6, 10
7, 8
2, 7
9, 8
5, 10
16, 4
10, 5
7, 4
17, 7
9, 1
16, 7
11, 7
13, 7
15, 6
27, 7
13, 4
10, 7
13, 7
10, 3
5, 3
9, 6
13, 1
6, 2
6, 3
10, 6
5, 9
8, 1
5, 5
2, 5
5, 4
6, 7
15, 5
5, 4
3, 3
6, 4
6, 7
3, 4
13, 5
3, 5
6, 7
4, 4
7, 5
7, 9
4, 2
0, 4
5, 4
4, 11
4, 6
6, 6
7, 1
2, 6
4, 8
2, 4
7, 8
5, 7
5, 15
5, 7
6, 10
8, 12
6, 10
6, 5
6, 5
3, 5
4, 8
2, 4
2, 7
4, 7
5, 6
3, 6
7, 5
5, 6
3, 3
5, 3
5, 2
10, 5
5, 7
4, 9
5, 3
3, 7
6, 3
5, 5
6, 0
8, 3
4, 5
4, 4
3, 5
9, 2
4, 2
3, 7
1, 4
2, 4
3, 3
5, 1
5, 4
3, 2
2, 3
7, 3
5, 3
5, 2
3, 3
3, 2
3, 4
2, 3
2, 4
5, 1
4, 3
5, 4
3, 4
1, 4
1, 1
1, 5
1, 0
4, 2
1, 2
1, 0
1, 4
3, 2
2, 4
2, 3
0, 3
3, 2
3, 2
3, 2
2, 0
0, 0
2, 4
4, 1
5, 2
4, 0
1, 0
11, 1
5, 6
5, 2
6, 3
2, 6
3, 2
6, 1
2, 1
4, 2
4, 5
3, 2
0, 3
2, 2
2, 0
2, 5
1, 2
1, 2
2, 5
4, 1
2, 2
2, 4
2, 1
0, 3
2, 1
4, 3
6, 3
3, 2
1, 2
2, 2
2, 1
1, 3
5, 4
0, 2
0, 3
6, 2
4, 4
3, 1
1, 1
3, 1
1, 0
5, 1
2, 4
3, 1
4, 3
2, 4
1, 2
1, 2
2, 3
2, 1
1, 1
1, 2
3, 5
2, 2
1, 1
5, 0
2, 3
2, 2
3, 4
1, 2
1, 3
1, 1
0, 3
5, 2
1, 3
1, 2
1, 1
0, 3
4, 2
3, 4
2, 5
3, 4
5, 8
2, 9
1, 2
2, 5
6, 7
8, 2
6, 4
3, 3
4, 2
4, 0
3, 4
2, 2
1, 0
2, 3
4, 1
2, 2
1, 1
1, 1
1, 2
1, 3
1, 1
0, 3
3, 2
3, 0
1, 1
2, 1
1, 3
2, 2
1, 0
1, 4
2, 1
1, 5
0, 5
1, 3
1, 0
1, 3
0, 1
4, 3
0, 1
2, 0
0, 3
0, 1
0, 1
1, 2
3, 2
0, 1
2, 1
3, 0
1, 0
0, 2
1, 0
2, 0
2, 2
1, 1
0, 1
4, 0
2, 1
1, 2
0, 2
3, 0
0, 0
2, 0
1, 2
2, 1
1, 0
3, 0
0, 3
1, 1
3, 0
0, 2
0, 0
2, 1
1, 2
1, 1
2, 2
1, 0
1, 0
0, 0
2, 2
0, 0
1, 2
0, 1
0, 0
0, 0
0, 2
1, 0
2, 0
0, 1
0, 1
1, 2
2, 0
0, 1
0, 0
0, 0
1, 0
1, 0
1, 0
0, 2
0, 0
1, 1
0, 0
0, 2
0, 1
1, 1
0, 1
0, 0
0, 0
1, 1
1, 0
2, 0
1, 1
3, 0
0, 0
2, 2
1, 1
1, 0
3, 0
1, 1
1, 1
0, 0
1, 1
0, 2
1, 0
1, 0
1, 2
0, 1
0, 4
0, 1
0, 1
2, 0
0, 1
0, 0
0, 1
2, 1
0, 0
1, 1
0, 1
0, 0
0, 1
0, 0
0, 0
1, 0
0, 1
0, 2
0, 1
0, 1
0, 0
0, 0
1, 1
1, 1
0, 1
1, 0
0, 2
0, 1
1, 0
0, 0
0, 1
0, 0
1, 0
0, 0
0, 0
1, 0
1, 0
0, 1
1, 0
0, 0
0, 0
0, 0
0, 0
2, 0
1, 0
0, 1
0, 0
1, 0
0, 0
1, 0
0, 0
1, 1
1, 0
1, 0
1, 0
0, 0
0, 0
0, 0
0, 0
0, 1
0, 2
0, 0
0, 0
1, 0
0, 0
1, 1
0, 0
1, 1
0, 1
0, 0
0, 0
0, 0
1, 0
0, 0
0, 0
0, 0
1, 1
0, 0
0, 1
0, 1
1, 0
0, 0
0, 1
0, 0
0, 0
0, 0
0, 0
0, 2
0, 0
1, 0
0, 0
0, 0
0, 0
0, 0
0, 1
0, 0
0, 1
0, 0
0, 1
0, 0
0, 0
0, 0
1, 0
1, 0
0, 0
0, 0
1, 0
0, 0
1, 0
1, 1
1, 0
0, 1
1, 0
0, 0
0, 0
3, 0
0, 0
0, 1
0, 0
0, 0
1, 1
0, 0
0, 0
0, 0
2, 0
0, 1
0, 0
0, 1
0, 0
0, 0
1, 1
0, 0
0, 0
1, 0
0, 0
0, 1
2, 1
0, 0
0, 1
0, 0
1, 0
0, 0
0, 0
0, 0
0, 1
0, 1
1, 0
0, 0
0, 0
1, 0
0, 0
0, 0
0, 0
0, 0
0, 0
0, 0
0, 0
2, 0
0, 0
0, 0
1, 0
0, 1
0, 0
0, 0
0, 0
0, 0
0, 0
0, 1
0, 0
0, 0
1, 0
0, 0
0, 0
0, 0
0, 0
0, 0
0, 0
0, 1
0, 0
0, 0
0, 0
0, 0
0, 0
0, 0
1, 0
1, 0
0, 0
0, 0
0, 0
0, 0
0, 1
0, 0
0, 0
0, 1
0, 0
1, 1
1, 0
0, 0
0, 0
0, 0
0, 0
0, 0
0, 0
0, 0
0, 0
0, 0
0, 0
0, 0
0, 0
0, 0
0, 0
0, 0
0, 1
0, 0
0, 0
1, 0
0, 0
0, 0
0, 0
0, 0
0, 0
0, 0
0, 0
0, 0
0, 0
1, 0
0, 0
0, 0
0, 0
0, 0
0, 0
0, 0
0, 0
1, 0
0, 0
0, 0
0, 0
0, 0
0, 0
0, 1
0, 0
0, 0
0, 0
0, 0
0, 0
0, 0
0, 0
0, 0
0, 0
0, 0
0, 0
0, 0
0, 0
0, 0
0, 0
0, 0
0, 0
0, 0
0, 0
0, 0
0, 0
0, 0
0, 0
0, 0
0, 0
0, 0
0, 0
0, 0
0, 0
0, 0
0, 0
0, 0
0, 0
0, 0
0, 0
0, 0
0, 0
0, 0
0, 0
0, 0
1, 1
0, 0
0, 0
0, 0
0, 0
0, 0
0, 0
0, 0
0, 0
0, 0
0, 0
0, 0
0, 0
0, 0
0, 0
1, 0
1, 0
0, 0
0, 0
0, 0
0, 0
0, 0
0, 0
0, 0
0, 0
0, 0
0, 0
0, 0
0, 0
0, 0
1, 0
0, 0
0, 0
0, 0
0, 0
0, 0
0, 0
0, 0
0, 0
0, 0
0, 0
0, 0
0, 0
0, 0
0, 0
0, 0
0, 0
0, 0
0, 0
0, 0
0, 0
0, 0
0, 0
0, 0
0, 0
0, 0
0, 0
0, 0
0, 0
0, 0
0, 0
0, 0
0, 0
0, 0
0, 0
0, 0
0, 0
0, 0
0, 0
0, 0
0, 0
0, 0
0, 0
0, 0
0, 0
0, 0
0, 0
0, 0
0, 0
0, 0
0, 0
0, 0
0, 0
0, 0
0, 0
0, 0
0, 0
0, 0
0, 0
0, 0
0, 0
0, 0
0, 0
0, 0
0, 0
0, 0
0, 0
0, 0
0, 0
0, 0
0, 0
0, 0
0, 0
0, 0
0, 0
0, 0
0, 0
0, 0
0, 0
0, 0
0, 0
0, 0
0, 0
0, 0
0, 0
0, 0
0, 0
0, 0
0, 0
0, 0
0, 0
0, 0
0, 0
0, 0
0, 0
0, 0
0, 0
0, 0
0, 0
0, 0
0, 0
0, 0
0, 0
0, 0
0, 0
0, 0
0, 0
0, 0
0, 0
0, 0
0, 0
0, 0
0, 0
0, 0
0, 0
0, 0
0, 0
0, 0
0, 0
0, 0
0, 0
0, 0
0, 0
0, 0
0, 0
0, 0
0, 0
0, 0
0, 0
0, 0
0, 0
0, 0
0, 0
0, 0
0, 0
0, 0
0, 0
0, 0
0, 0
0, 0
0, 0
0, 0
0, 0
0, 0
0, 0
0, 0
0, 0
0, 0
0, 0
0, 0
0, 0
0, 0
0, 0
0, 0
0, 0
0, 0
0, 0
0, 0
0, 0
0, 0
0, 0
0, 0
0, 0
0, 0
0, 0
0, 0
0, 0
0, 0
0, 0
0, 0
0, 0
0, 0
0, 0
0, 0
0, 0
0, 0
0, 0
0, 0
0, 0
0, 0
0, 0
0, 0
0, 0
0, 0
0, 0
0, 0
0, 0
0, 0
0, 0
0, 0
0, 0
0, 0
0, 0
0, 0
0, 0
0, 0
0, 0
0, 0
0, 0
0, 0
0, 0
0, 0
0, 0
0, 0
0, 0
0, 0
0, 0
0, 0
0, 0
0, 0
0, 0
0, 0
0, 0
0, 0
0, 0
0, 0
0, 0
0, 0
0, 0
0, 0
0, 0
0, 0
0, 0
0, 0
0, 0
0, 0
0, 0
0, 0
0, 0
0, 0
0, 0
0, 0
0, 0
0, 0
0, 0
0, 0
0, 0
0, 0
0, 0
0, 0
0, 0
0, 0
0, 0
0, 0
0, 0
0, 0
0, 0
0, 0
0, 0
0, 0
0, 0
0, 0
0, 0
0, 0
0, 0
0, 0
0, 0
0, 0
0, 0
0, 0
0, 0
0, 0
0, 0
0, 0
0, 0
0, 0
0, 0
0, 0
0, 0
0, 0
0, 0
0, 0
0, 0
0, 0
0, 0
0, 0
0, 0
0, 0
0, 0
0, 0
0, 0
0, 0
0, 0
0, 0
0, 0
0, 0
0, 0
0, 0
0, 0
0, 0
0, 0
0, 0
0, 0
0, 0
0, 0
0, 0
0, 0
0, 0
0, 0
0, 0
0, 0
0, 0
0, 0
0, 0
0, 0
0, 0
0, 0
0, 0
0, 0
0, 0
0, 0
0, 0
0, 0
0, 0
0, 0
0, 0
0, 0
0, 0
0, 0
0, 0
0, 0
0, 0
0, 0
0, 0
0, 0
0, 0
0, 0
0, 0
0, 0
0, 0
0, 0
0, 0
0, 0
0, 0
0, 0
0, 0
0, 0
0, 0
0, 0
0, 0
0, 0
0, 0
0, 0
0, 0
0, 0
0, 0
0, 0
0, 0
0, 0
0, 0
0, 0
0, 0
0, 0
0, 0
0, 0
0, 0
0, 0
0, 0
0, 0
0, 0
0, 0
0, 0
0, 0
0, 0
0, 0
0, 0
0, 0
0, 0
0, 0
0, 0
0, 0
0, 0
0, 0
0, 0
0, 0
0, 0
0, 0
0, 0
0, 0
0, 0
0, 0
0, 0
0, 0
0, 0
0, 0
0, 0
0, 0
0, 0
0, 0
0, 0
0, 0
#ENDOFDATA     end of spectrum data