File: host_upload/06-09-2024/ps_0852/dump3/ps__0852shot_2373.msa
#FORMAT      : EMSA/MAS spectral data file
#VERSION     : TC202v2.0 PIXL
#TITLE       : N/A
#DATE        :       Date in the format DD-MMM-YYYY, for example 07-JUL-2010
#TIME        :             The time of day at which the spectrum was recorded, in 24-hour format
#OWNER       : PIXL Flight Model       (PIXL will use this to indicate which instrument took the data.)
#NPOINTS     : 4096     Number of data points in the spectrum (This can be zero for configuration only files)
#NCOLUMNS    : 2     Number of data columns in the spectrum (This can be zero for configuration only files)
#XUNITS      : eV
#YUNITS      : COUNTS
#DATATYPE    : YY
#XPERCHAN    : 7.862, 7.881   eV per channel (separate by commas if more than one detector)
#OFFSET      : 18.5, -22.4         eV of first channel  (separate by commas if more than one detector
#SIGNALTYPE  : XRF
#YP_TEMP     : 2.267
#LIVETIME    : 8.56967, 8.56177   seconds (separate by commas if more than one detector)
#REALTIME    : 10, 10.0   seconds (separate by commas if more than one detector)
#SPECTRUM    : start of spectrum data
0, 0
0, 0
0, 0
0, 0
0, 0
0, 0
0, 0
0, 0
0, 0
0, 0
0, 0
0, 0
0, 0
0, 0
0, 0
0, 0
0, 0
0, 0
0, 0
0, 0
0, 0
0, 0
0, 0
0, 0
0, 0
0, 0
0, 0
0, 0
0, 0
0, 0
0, 0
0, 0
0, 0
0, 0
0, 0
1, 0
0, 0
0, 1
2, 0
1, 0
0, 1
0, 1
1, 1
1, 1
0, 1
1, 0
1, 2
4, 2
11, 9
12, 9
26, 22
33, 40
72, 52
81, 51
97, 71
82, 76
90, 61
54, 30
19, 17
19, 20
9, 8
6, 2
2, 5
1, 1
3, 3
8, 4
5, 2
8, 11
19, 16
47, 37
102, 83
194, 160
284, 270
387, 323
423, 379
484, 402
391, 331
331, 275
222, 165
162, 109
64, 69
46, 24
20, 15
9, 5
7, 5
5, 0
2, 2
3, 0
2, 3
1, 0
1, 1
1, 0
1, 1
1, 3
2, 2
2, 3
2, 10
2, 2
7, 4
8, 7
5, 5
8, 4
5, 4
5, 0
9, 2
1, 2
3, 4
5, 7
9, 2
9, 10
15, 12
20, 21
28, 16
26, 23
36, 32
28, 25
34, 24
34, 23
14, 26
17, 18
15, 14
15, 17
15, 15
13, 18
8, 7
12, 7
15, 13
6, 16
7, 8
7, 5
4, 3
6, 4
2, 2
1, 0
6, 3
2, 4
3, 0
1, 0
2, 1
1, 2
2, 1
1, 1
3, 1
4, 0
1, 0
4, 3
2, 1
0, 2
3, 3
0, 0
9, 3
5, 2
14, 10
20, 4
17, 11
21, 15
22, 15
26, 26
23, 20
23, 23
17, 18
16, 13
14, 11
5, 8
4, 4
1, 1
4, 7
6, 7
6, 3
3, 7
7, 3
9, 7
4, 11
4, 12
3, 16
3, 18
4, 22
2, 26
3, 32
3, 22
3, 19
1, 18
1, 13
3, 8
3, 8
2, 8
5, 9
6, 5
4, 5
6, 4
13, 9
6, 16
10, 16
7, 18
18, 20
14, 39
19, 31
29, 37
27, 39
54, 42
60, 36
81, 32
86, 39
96, 19
86, 15
103, 10
83, 5
59, 3
45, 2
41, 6
27, 6
13, 4
9, 6
12, 1
7, 3
8, 6
4, 3
8, 4
7, 5
4, 6
8, 3
10, 6
9, 5
11, 9
9, 7
3, 11
6, 11
12, 12
7, 10
10, 17
18, 10
15, 10
13, 6
11, 11
11, 14
15, 13
8, 10
10, 5
10, 7
9, 5
7, 9
10, 11
5, 9
9, 12
18, 9
24, 20
25, 15
32, 38
41, 49
51, 58
49, 70
57, 55
68, 64
49, 36
34, 31
40, 37
24, 27
25, 26
17, 21
18, 13
23, 22
37, 38
44, 46
88, 114
160, 217
315, 352
531, 602
867, 874
1247, 1282
1649, 1685
2079, 2092
2427, 2321
2515, 2313
2570, 2199
2174, 1778
1742, 1457
1403, 1060
980, 740
615, 380
368, 284
226, 144
133, 52
92, 41
72, 32
69, 14
67, 13
71, 11
71, 23
60, 12
87, 22
42, 19
60, 28
67, 55
91, 91
120, 104
152, 165
215, 225
278, 325
356, 330
376, 389
383, 351
339, 315
303, 284
254, 213
219, 181
123, 109
72, 73
64, 33
25, 30
22, 8
11, 14
8, 2
10, 16
11, 6
7, 13
11, 12
10, 10
12, 18
19, 16
16, 19
5, 11
6, 10
9, 14
2, 12
8, 6
7, 3
9, 4
3, 0
2, 6
6, 1
1, 4
4, 7
4, 2
4, 4
2, 1
4, 3
2, 3
5, 1
2, 1
5, 5
3, 6
6, 8
6, 3
6, 3
4, 1
5, 8
8, 4
7, 9
14, 4
7, 6
3, 9
9, 5
7, 8
2, 2
1, 4
6, 9
6, 2
7, 5
8, 5
2, 3
4, 1
7, 3
8, 4
10, 4
7, 2
1, 5
4, 5
6, 4
5, 3
2, 2
8, 4
5, 3
2, 0
5, 0
4, 2
5, 5
5, 2
4, 12
5, 2
3, 6
1, 3
3, 2
6, 1
2, 2
4, 3
2, 6
3, 6
4, 5
7, 4
2, 12
4, 15
3, 12
2, 13
7, 18
2, 33
5, 15
4, 21
6, 17
8, 28
10, 22
5, 16
4, 7
7, 5
5, 9
8, 5
8, 2
10, 2
5, 2
4, 2
6, 3
9, 2
3, 2
5, 1
6, 4
9, 3
13, 2
20, 0
20, 1
15, 3
21, 0
21, 2
19, 5
14, 4
13, 1
12, 4
16, 1
9, 3
3, 3
7, 3
3, 3
1, 1
5, 1
1, 4
2, 1
3, 6
3, 6
2, 1
1, 2
2, 2
4, 2
1, 0
4, 4
0, 2
2, 2
2, 2
3, 2
3, 2
1, 4
2, 8
4, 3
2, 2
4, 1
3, 2
2, 5
2, 2
2, 1
4, 3
2, 1
3, 1
1, 3
3, 5
4, 3
1, 5
2, 2
2, 1
1, 2
4, 2
4, 4
4, 3
4, 3
4, 3
3, 2
4, 3
2, 1
5, 2
1, 2
1, 5
6, 2
3, 5
0, 0
5, 2
2, 1
4, 3
3, 5
0, 2
2, 3
2, 1
2, 2
4, 4
5, 4
2, 5
1, 3
1, 5
0, 0
1, 4
1, 2
7, 3
1, 4
2, 1
3, 6
2, 7
0, 2
2, 3
6, 1
5, 2
1, 1
0, 1
1, 3
3, 2
2, 1
4, 0
2, 1
5, 3
1, 0
3, 0
3, 0
4, 4
2, 2
1, 1
3, 0
2, 4
4, 2
0, 2
2, 3
1, 2
1, 1
2, 2
4, 4
0, 2
1, 0
2, 4
1, 1
4, 3
1, 1
4, 3
3, 1
3, 4
3, 1
3, 2
6, 3
2, 5
5, 3
9, 1
2, 3
5, 6
4, 2
2, 2
3, 1
5, 2
4, 0
2, 1
1, 1
3, 0
3, 1
1, 1
2, 1
2, 2
4, 1
1, 4
2, 1
3, 0
2, 3
2, 1
2, 2
2, 0
2, 1
1, 2
4, 2
0, 1
4, 3
3, 1
1, 2
2, 0
1, 2
0, 0
1, 0
1, 0
2, 0
1, 1
1, 1
1, 1
0, 3
0, 1
1, 2
2, 0
2, 2
4, 2
0, 2
2, 2
0, 2
0, 2
1, 1
1, 1
1, 1
1, 2
1, 0
0, 3
3, 4
4, 2
0, 1
2, 0
0, 1
3, 1
0, 2
1, 0
1, 1
3, 2
2, 0
1, 1
0, 1
1, 4
2, 2
4, 1
1, 1
1, 0
1, 0
2, 1
0, 0
0, 1
1, 1
1, 0
1, 1
3, 1
0, 2
1, 2
2, 1
2, 0
1, 0
3, 0
3, 1
1, 1
1, 0
1, 0
0, 0
1, 0
0, 0
1, 0
1, 2
0, 2
0, 2
1, 2
1, 0
0, 1
3, 1
0, 1
1, 0
1, 1
0, 0
0, 0
0, 1
0, 0
0, 0
0, 0
0, 1
0, 1
1, 1
0, 0
1, 0
0, 0
1, 2
1, 1
0, 0
0, 0
1, 0
0, 1
0, 0
0, 0
1, 0
1, 0
0, 0
0, 0
1, 3
0, 0
0, 0
0, 1
0, 0
0, 0
0, 0
0, 1
0, 0
0, 0
1, 0
0, 0
0, 0
2, 0
1, 0
0, 1
0, 0
0, 0
3, 0
1, 0
0, 1
0, 1
0, 0
0, 0
0, 0
0, 0
1, 0
0, 0
0, 0
1, 0
0, 0
1, 0
0, 0
0, 1
0, 0
0, 0
0, 0
0, 0
0, 0
0, 0
0, 0
2, 0
0, 0
1, 0
0, 1
1, 0
0, 1
0, 0
0, 0
0, 0
3, 0
1, 0
0, 0
0, 0
1, 0
0, 0
0, 1
0, 0
1, 0
1, 0
0, 0
1, 0
0, 1
0, 0
0, 0
0, 0
2, 0
0, 0
0, 1
1, 0
0, 0
0, 1
0, 1
0, 0
0, 1
0, 1
0, 0
1, 1
0, 0
0, 0
0, 0
0, 0
0, 0
0, 1
1, 0
1, 0
0, 0
1, 0
0, 0
0, 0
0, 0
1, 0
0, 0
0, 0
0, 1
0, 2
0, 0
2, 0
0, 0
0, 0
0, 0
0, 0
0, 0
2, 1
0, 0
0, 0
1, 0
0, 0
0, 1
0, 0
1, 1
0, 0
0, 0
0, 0
0, 0
0, 0
0, 2
0, 0
1, 0
1, 1
0, 1
0, 0
0, 0
0, 0
0, 0
1, 0
0, 0
0, 0
0, 1
0, 0
1, 0
0, 0
0, 0
0, 1
0, 0
0, 0
0, 0
0, 0
0, 0
0, 0
1, 0
1, 0
0, 0
0, 1
0, 0
1, 0
0, 0
0, 0
0, 0
0, 0
1, 1
1, 0
0, 0
0, 0
0, 0
0, 0
0, 0
1, 0
1, 0
0, 0
0, 1
0, 0
0, 0
0, 0
0, 0
0, 0
0, 0
1, 0
0, 0
1, 0
0, 0
0, 1
0, 0
0, 0
0, 0
0, 0
0, 0
0, 0
0, 0
0, 0
0, 0
0, 1
0, 0
0, 0
0, 0
0, 0
0, 0
0, 0
1, 0
0, 0
0, 0
0, 0
0, 0
0, 0
0, 0
0, 0
0, 0
0, 1
0, 0
0, 0
0, 0
0, 0
0, 0
0, 0
0, 0
0, 0
0, 0
0, 0
1, 0
0, 0
0, 0
0, 0
0, 0
0, 0
0, 0
0, 0
0, 0
0, 0
0, 0
0, 0
0, 0
0, 0
0, 0
0, 0
0, 0
0, 0
1, 0
1, 0
0, 0
0, 0
0, 0
0, 0
0, 0
0, 0
0, 0
0, 0
0, 0
0, 0
0, 0
0, 1
1, 0
0, 0
1, 0
0, 0
0, 0
0, 0
0, 0
0, 0
0, 0
0, 0
0, 1
0, 0
0, 0
0, 0
0, 0
0, 0
0, 0
0, 0
0, 0
0, 0
0, 0
0, 0
0, 0
0, 0
0, 0
0, 0
0, 0
0, 1
0, 0
0, 0
0, 0
0, 0
0, 0
0, 0
0, 0
0, 0
1, 0
0, 0
0, 0
0, 0
0, 0
1, 0
0, 0
0, 0
0, 0
0, 0
0, 0
0, 0
0, 0
0, 0
0, 0
0, 0
0, 0
0, 0
0, 0
0, 0
0, 0
0, 0
0, 0
0, 0
1, 0
0, 0
0, 0
0, 0
0, 0
0, 0
0, 0
0, 0
0, 0
0, 0
0, 0
0, 0
0, 0
0, 0
0, 0
0, 0
0, 0
0, 0
0, 0
0, 0
0, 0
0, 0
0, 0
0, 0
0, 0
0, 0
0, 0
0, 0
0, 0
0, 0
0, 0
0, 0
0, 0
0, 0
0, 0
0, 0
0, 0
0, 0
0, 0
0, 0
0, 0
0, 0
0, 0
0, 0
0, 0
0, 0
0, 0
0, 0
0, 0
0, 0
0, 0
0, 0
0, 0
0, 0
0, 0
0, 0
0, 0
0, 0
0, 0
0, 0
0, 0
0, 0
0, 0
0, 0
0, 0
0, 0
0, 0
0, 0
0, 0
0, 0
0, 0
0, 0
0, 0
0, 0
0, 0
0, 0
0, 0
0, 0
0, 0
0, 0
0, 0
0, 0
0, 0
0, 0
0, 0
0, 0
0, 0
0, 0
0, 0
0, 0
0, 0
0, 0
0, 0
0, 0
0, 0
0, 0
0, 0
0, 0
0, 0
0, 0
0, 0
0, 0
0, 0
0, 0
0, 0
0, 0
0, 0
0, 0
0, 0
0, 0
0, 0
0, 0
0, 0
0, 0
0, 0
0, 0
0, 0
0, 0
0, 0
0, 0
0, 0
0, 0
0, 0
0, 0
0, 0
0, 0
0, 0
0, 0
0, 0
0, 0
0, 0
0, 0
0, 0
0, 0
0, 0
0, 0
0, 0
0, 0
0, 0
0, 0
0, 0
0, 0
0, 0
0, 0
0, 0
0, 0
0, 0
0, 0
0, 0
0, 0
0, 0
0, 0
0, 0
0, 0
0, 0
0, 0
0, 0
0, 0
0, 0
0, 0
0, 0
0, 0
0, 0
0, 0
0, 0
0, 0
0, 0
0, 0
0, 0
0, 0
0, 0
0, 0
0, 0
0, 0
0, 0
0, 0
0, 0
0, 0
0, 0
0, 0
0, 0
0, 0
0, 0
0, 0
0, 0
0, 0
0, 0
0, 0
0, 0
0, 0
0, 0
0, 0
0, 0
0, 0
0, 0
0, 0
0, 0
0, 0
0, 0
0, 0
0, 0
0, 0
0, 0
0, 0
0, 0
0, 0
0, 0
0, 0
0, 0
0, 0
0, 0
0, 0
0, 0
0, 0
0, 0
0, 0
0, 0
0, 0
0, 0
0, 0
0, 0
0, 0
0, 0
0, 0
0, 0
0, 0
0, 0
0, 0
0, 0
0, 0
0, 0
0, 0
0, 0
0, 0
0, 0
0, 0
0, 0
0, 0
0, 0
0, 0
0, 0
0, 0
0, 0
0, 0
0, 0
0, 0
0, 0
0, 0
0, 0
0, 0
0, 0
0, 0
0, 0
0, 0
0, 0
0, 0
0, 0
0, 0
0, 0
0, 0
0, 0
0, 0
0, 0
0, 0
0, 0
0, 0
0, 0
0, 0
0, 0
0, 0
0, 0
0, 0
0, 0
0, 0
0, 0
0, 0
0, 0
0, 0
0, 0
0, 0
0, 0
0, 0
0, 0
0, 0
0, 0
0, 0
0, 0
0, 0
0, 0
0, 0
0, 0
0, 0
0, 0
0, 0
0, 0
0, 0
0, 0
0, 0
0, 0
0, 0
0, 0
0, 0
0, 0
0, 0
0, 0
0, 0
0, 0
0, 0
0, 0
0, 0
0, 0
0, 0
0, 0
0, 0
0, 0
0, 0
0, 0
0, 0
0, 0
0, 0
0, 0
0, 0
0, 0
0, 0
0, 0
0, 0
0, 0
0, 0
0, 0
0, 0
0, 0
0, 0
0, 0
0, 0
0, 0
0, 0
0, 0
0, 0
0, 0
0, 0
0, 0
0, 0
0, 0
0, 0
0, 0
0, 0
0, 0
0, 0
0, 0
0, 0
0, 0
0, 0
0, 0
0, 0
0, 0
0, 0
0, 0
0, 0
0, 0
0, 0
0, 0
0, 0
0, 0
0, 0
0, 0
0, 0
0, 0
0, 0
0, 0
0, 0
0, 0
0, 0
0, 0
0, 0
0, 0
0, 0
0, 0
0, 0
0, 0
0, 0
0, 0
0, 0
0, 0
0, 0
0, 0
0, 0
0, 0
0, 0
0, 0
0, 0
0, 0
0, 0
0, 0
0, 0
0, 0
#ENDOFDATA     end of spectrum data