File: host_upload/06-09-2024/ps_0852/dump3/ps__0852shot_2190.msa
#FORMAT      : EMSA/MAS spectral data file
#VERSION     : TC202v2.0 PIXL
#TITLE       : N/A
#DATE        :       Date in the format DD-MMM-YYYY, for example 07-JUL-2010
#TIME        :             The time of day at which the spectrum was recorded, in 24-hour format
#OWNER       : PIXL Flight Model       (PIXL will use this to indicate which instrument took the data.)
#NPOINTS     : 4096     Number of data points in the spectrum (This can be zero for configuration only files)
#NCOLUMNS    : 2     Number of data columns in the spectrum (This can be zero for configuration only files)
#XUNITS      : eV
#YUNITS      : COUNTS
#DATATYPE    : YY
#XPERCHAN    : 7.862, 7.881   eV per channel (separate by commas if more than one detector)
#OFFSET      : 18.5, -22.4         eV of first channel  (separate by commas if more than one detector
#SIGNALTYPE  : XRF
#YP_TEMP     : 2.588
#LIVETIME    : 8.53998, 8.50689   seconds (separate by commas if more than one detector)
#REALTIME    : 10, 10.0   seconds (separate by commas if more than one detector)
#SPECTRUM    : start of spectrum data
0, 0
0, 0
0, 0
0, 0
0, 0
0, 0
0, 0
0, 0
0, 0
0, 0
0, 0
0, 0
0, 0
0, 0
0, 0
0, 0
0, 0
0, 0
0, 0
0, 0
0, 0
0, 0
0, 0
0, 0
0, 0
0, 0
0, 0
0, 0
0, 0
0, 0
0, 0
0, 0
1, 0
1, 0
2, 1
1, 0
5, 0
7, 1
12, 1
18, 0
22, 1
35, 3
27, 0
26, 2
20, 0
14, 2
14, 6
6, 3
8, 3
13, 20
25, 35
49, 47
48, 51
85, 81
81, 86
73, 94
58, 67
49, 34
27, 26
17, 14
9, 6
6, 9
6, 4
4, 6
1, 2
3, 3
3, 8
11, 12
25, 14
37, 52
99, 116
165, 161
275, 296
296, 398
395, 467
415, 452
344, 379
274, 307
189, 172
122, 116
62, 78
36, 47
19, 13
11, 3
0, 7
1, 3
4, 5
3, 2
5, 2
4, 0
4, 1
1, 1
4, 3
1, 2
1, 1
1, 1
3, 3
7, 1
6, 5
4, 7
7, 0
13, 1
0, 3
12, 4
5, 0
6, 3
16, 1
47, 3
113, 2
186, 8
394, 11
643, 17
1074, 19
1485, 28
1802, 31
2003, 27
2109, 32
1765, 38
1395, 26
894, 36
570, 17
328, 21
161, 14
76, 14
46, 15
20, 4
17, 18
7, 9
8, 6
5, 8
1, 5
5, 3
2, 2
1, 2
0, 0
1, 3
2, 0
3, 3
2, 2
3, 4
5, 1
2, 1
2, 1
3, 2
3, 2
5, 0
2, 5
2, 4
3, 2
1, 0
4, 3
3, 3
2, 3
9, 13
18, 19
5, 13
17, 16
20, 15
20, 18
16, 26
10, 20
9, 14
9, 8
6, 5
4, 6
1, 1
3, 4
2, 5
4, 3
10, 2
13, 3
18, 1
33, 3
42, 7
51, 4
48, 4
56, 5
74, 3
53, 4
34, 5
35, 2
20, 4
14, 2
14, 6
10, 3
10, 1
10, 5
7, 8
7, 10
10, 5
11, 11
9, 8
9, 12
12, 15
21, 11
14, 10
13, 16
9, 28
9, 39
10, 52
18, 87
15, 95
10, 148
2, 153
7, 159
2, 144
5, 125
3, 89
6, 84
5, 45
6, 25
3, 17
6, 11
5, 7
3, 3
6, 5
5, 7
3, 5
8, 3
4, 9
5, 9
4, 3
4, 10
8, 8
10, 4
10, 10
13, 11
8, 9
21, 14
15, 20
20, 12
22, 18
35, 21
29, 19
26, 11
37, 17
44, 15
35, 8
33, 15
35, 6
33, 14
26, 12
8, 13
22, 12
21, 7
24, 25
26, 35
30, 46
37, 75
56, 57
56, 62
59, 65
53, 61
60, 41
42, 52
37, 38
36, 36
18, 43
15, 62
18, 49
26, 66
25, 87
40, 117
85, 172
147, 279
255, 425
416, 667
677, 982
1058, 1386
1449, 1816
1758, 2292
2027, 2451
2231, 2672
2140, 2341
1957, 2104
1539, 1617
1186, 1164
867, 786
543, 458
333, 300
183, 151
100, 81
54, 42
53, 26
36, 24
48, 16
53, 21
57, 24
87, 18
123, 22
142, 28
156, 37
161, 44
194, 89
193, 139
217, 205
223, 246
287, 309
315, 351
319, 346
306, 360
289, 361
292, 289
215, 239
161, 164
127, 106
75, 74
45, 53
26, 20
22, 13
12, 3
10, 6
3, 3
2, 3
8, 8
15, 16
7, 18
13, 21
13, 18
9, 14
15, 9
16, 11
15, 9
5, 11
3, 7
5, 4
4, 1
4, 1
2, 8
3, 6
4, 6
1, 4
6, 5
6, 1
3, 9
1, 4
0, 5
2, 2
3, 3
3, 5
7, 6
4, 4
10, 3
10, 5
14, 9
22, 6
32, 7
35, 5
48, 5
67, 9
59, 9
53, 4
56, 7
75, 3
66, 2
48, 5
43, 4
30, 3
30, 7
20, 4
11, 2
6, 5
8, 3
5, 5
4, 6
7, 5
5, 3
8, 4
8, 3
3, 5
2, 2
4, 2
5, 3
4, 6
2, 4
2, 7
3, 5
5, 3
2, 4
4, 6
2, 4
8, 2
4, 4
2, 2
8, 6
6, 6
10, 5
13, 3
7, 7
3, 6
4, 13
3, 4
2, 8
6, 10
5, 7
4, 13
3, 7
6, 6
1, 6
3, 6
3, 6
3, 4
1, 5
1, 10
3, 6
3, 6
2, 6
2, 12
2, 12
2, 6
3, 7
3, 5
4, 6
5, 6
1, 2
2, 3
3, 6
1, 4
0, 6
0, 7
6, 5
0, 3
2, 2
1, 4
2, 9
4, 5
1, 5
4, 4
3, 3
0, 4
2, 1
2, 1
6, 8
0, 1
0, 3
0, 5
4, 4
2, 1
2, 2
7, 2
1, 2
2, 1
1, 4
3, 1
6, 3
3, 3
3, 3
0, 4
1, 2
1, 2
0, 1
1, 5
2, 0
2, 10
1, 2
5, 0
4, 4
1, 4
7, 3
9, 0
2, 2
6, 5
8, 5
7, 1
6, 3
9, 1
11, 7
5, 3
9, 2
6, 2
6, 3
5, 4
6, 3
4, 8
2, 1
0, 1
3, 3
1, 5
1, 3
3, 4
3, 1
4, 3
3, 5
2, 4
1, 1
1, 0
1, 3
2, 3
2, 2
1, 1
1, 0
2, 4
2, 2
1, 0
2, 3
1, 3
2, 2
3, 3
0, 0
1, 2
4, 2
3, 1
1, 1
2, 2
4, 2
1, 0
3, 0
5, 5
2, 3
0, 3
0, 2
0, 1
3, 2
1, 2
3, 2
1, 2
1, 4
2, 1
2, 1
0, 5
2, 3
2, 4
1, 2
4, 3
0, 3
1, 5
0, 2
5, 1
2, 1
3, 3
1, 5
3, 3
3, 2
2, 0
3, 2
2, 4
4, 3
5, 4
2, 2
4, 2
2, 1
3, 5
2, 4
6, 4
1, 5
0, 2
1, 1
3, 2
2, 4
3, 0
0, 1
1, 4
0, 1
2, 1
0, 4
1, 0
0, 2
0, 2
3, 3
1, 0
3, 2
2, 1
2, 2
0, 0
1, 2
0, 1
1, 1
2, 0
0, 3
0, 0
3, 3
0, 1
0, 3
0, 3
1, 1
2, 0
2, 2
0, 2
1, 2
3, 2
1, 4
2, 1
2, 2
2, 1
2, 2
0, 0
1, 1
0, 0
0, 2
0, 1
1, 1
3, 1
2, 0
2, 0
1, 3
0, 1
1, 2
1, 1
2, 0
1, 0
1, 1
1, 0
1, 0
0, 1
1, 1
1, 2
1, 0
0, 0
1, 1
0, 1
0, 2
0, 0
0, 0
1, 1
0, 2
0, 2
1, 0
0, 0
0, 1
2, 1
1, 1
0, 3
0, 1
1, 0
1, 4
2, 0
1, 0
0, 2
0, 0
0, 0
0, 0
1, 2
0, 1
0, 1
3, 2
1, 0
1, 0
1, 1
1, 0
1, 0
0, 0
2, 1
1, 0
1, 3
1, 2
0, 1
2, 0
2, 0
2, 0
0, 1
1, 0
1, 2
0, 0
0, 1
0, 1
1, 1
2, 2
0, 0
0, 2
0, 1
1, 1
0, 0
0, 1
1, 0
1, 0
0, 2
0, 0
0, 2
0, 0
0, 0
1, 1
0, 0
2, 0
2, 0
1, 1
0, 1
1, 1
1, 0
1, 0
0, 0
1, 0
1, 2
0, 0
0, 0
1, 0
0, 0
1, 0
2, 1
0, 1
0, 0
2, 0
0, 0
0, 1
1, 1
0, 0
0, 1
0, 0
0, 0
0, 2
0, 0
2, 1
1, 1
0, 0
1, 0
0, 0
1, 0
0, 0
0, 1
0, 0
0, 0
0, 0
1, 0
0, 0
2, 0
1, 0
0, 0
0, 0
0, 1
0, 0
0, 0
0, 0
0, 0
0, 1
0, 0
0, 0
0, 0
0, 0
0, 0
0, 0
0, 0
0, 1
0, 0
0, 0
0, 1
0, 0
1, 0
0, 0
0, 1
0, 0
0, 0
0, 1
0, 0
0, 1
1, 1
0, 0
0, 0
0, 0
0, 0
0, 0
1, 0
0, 0
0, 1
2, 0
0, 0
0, 0
0, 1
0, 1
0, 0
1, 1
0, 3
0, 0
0, 0
0, 0
0, 0
0, 0
1, 0
0, 0
0, 0
0, 0
0, 0
0, 1
0, 1
0, 0
0, 0
0, 1
0, 0
0, 1
1, 1
0, 1
0, 0
0, 1
0, 0
0, 1
0, 2
0, 1
1, 0
0, 0
0, 0
0, 0
0, 0
0, 0
1, 0
0, 0
0, 1
1, 0
1, 0
2, 0
1, 0
0, 1
0, 0
0, 0
1, 0
0, 0
1, 1
0, 1
0, 0
1, 0
0, 0
0, 0
0, 0
1, 1
0, 0
0, 0
0, 0
0, 0
0, 0
1, 1
0, 0
0, 1
0, 0
0, 0
0, 1
1, 0
0, 0
0, 0
0, 0
0, 0
0, 0
0, 1
0, 1
0, 0
0, 1
0, 1
0, 0
0, 0
0, 0
0, 1
0, 0
0, 0
0, 0
0, 0
0, 0
1, 0
0, 0
0, 0
0, 0
1, 0
0, 0
0, 0
0, 0
1, 0
0, 0
0, 0
0, 1
0, 0
0, 0
0, 1
0, 0
0, 0
0, 0
0, 0
0, 0
0, 0
0, 0
0, 1
0, 0
0, 0
1, 0
0, 0
0, 0
0, 0
0, 0
0, 0
0, 0
0, 0
0, 0
0, 0
0, 0
0, 0
0, 0
0, 0
0, 0
0, 0
0, 0
0, 0
0, 0
0, 0
0, 0
1, 0
0, 1
0, 0
0, 0
0, 0
0, 0
0, 0
0, 0
0, 0
0, 0
1, 0
0, 0
0, 0
0, 0
0, 0
0, 0
0, 0
0, 0
0, 0
0, 1
0, 0
0, 0
0, 0
0, 0
0, 0
0, 0
0, 0
0, 0
0, 0
0, 0
0, 0
0, 0
0, 0
0, 0
0, 0
1, 0
0, 0
0, 0
0, 0
0, 0
1, 0
0, 0
0, 0
0, 0
0, 0
0, 0
0, 0
0, 0
0, 0
0, 0
0, 0
0, 0
0, 0
0, 0
0, 0
0, 0
0, 0
0, 0
0, 0
1, 0
0, 0
0, 0
0, 0
0, 0
0, 0
0, 0
0, 0
0, 0
1, 0
0, 1
0, 0
0, 0
0, 0
0, 0
0, 0
0, 0
0, 0
0, 0
0, 0
0, 0
0, 0
0, 0
0, 0
0, 0
0, 0
0, 0
0, 0
0, 0
0, 0
0, 0
0, 0
0, 0
0, 0
0, 0
0, 0
0, 0
0, 0
0, 0
0, 0
0, 0
0, 0
0, 0
0, 0
0, 0
0, 0
0, 0
0, 0
0, 0
0, 0
0, 0
0, 0
0, 0
0, 0
0, 0
0, 0
0, 0
0, 0
0, 0
0, 0
0, 0
0, 0
0, 0
0, 0
0, 0
0, 0
0, 0
0, 0
0, 0
0, 0
0, 0
0, 0
0, 0
1, 0
0, 0
0, 0
0, 0
0, 0
0, 0
0, 0
0, 0
0, 0
0, 1
0, 0
0, 0
0, 0
0, 0
0, 0
0, 0
0, 0
0, 0
0, 0
0, 0
0, 0
0, 0
0, 0
0, 0
1, 0
0, 0
0, 0
0, 0
0, 0
0, 0
0, 0
0, 0
0, 0
0, 0
0, 0
0, 0
0, 0
0, 0
0, 0
0, 0
0, 0
0, 0
0, 0
0, 0
0, 0
0, 0
0, 0
0, 0
0, 0
0, 0
0, 0
0, 0
0, 0
0, 0
0, 0
0, 0
0, 0
0, 0
0, 0
0, 0
0, 0
0, 0
0, 0
0, 0
0, 0
0, 0
0, 0
0, 0
0, 0
0, 0
0, 0
0, 0
0, 0
0, 0
0, 0
0, 0
0, 0
0, 0
0, 0
0, 0
0, 0
0, 0
0, 0
0, 0
0, 0
0, 0
0, 0
0, 0
0, 1
0, 0
0, 0
0, 0
0, 0
0, 0
0, 0
0, 0
0, 0
0, 0
0, 0
0, 0
0, 0
0, 0
0, 0
0, 0
0, 0
0, 0
0, 0
0, 0
0, 0
0, 0
0, 0
0, 0
0, 0
0, 0
0, 0
0, 0
0, 0
0, 0
0, 0
0, 0
0, 0
0, 0
0, 0
0, 0
0, 0
0, 0
0, 0
0, 0
0, 0
0, 0
0, 0
0, 0
0, 0
0, 0
0, 0
0, 0
0, 0
0, 0
0, 0
0, 0
0, 0
0, 0
0, 0
0, 0
0, 0
0, 0
0, 0
0, 0
0, 0
0, 0
0, 0
0, 0
0, 0
0, 0
0, 0
0, 0
0, 0
0, 0
0, 0
0, 0
0, 0
0, 0
0, 0
0, 0
0, 0
0, 0
0, 0
0, 0
0, 0
0, 0
0, 0
0, 0
0, 0
0, 0
0, 0
0, 0
0, 0
0, 0
0, 0
0, 0
0, 0
0, 0
0, 0
0, 0
0, 0
0, 0
0, 0
0, 0
0, 0
0, 0
0, 0
0, 0
0, 0
0, 0
0, 0
0, 0
0, 0
0, 0
0, 0
0, 0
0, 0
0, 0
0, 0
0, 0
0, 0
0, 0
0, 0
0, 0
0, 0
0, 0
0, 0
0, 0
0, 0
0, 0
0, 0
0, 0
0, 0
0, 0
0, 0
0, 0
0, 0
0, 0
0, 0
0, 0
0, 0
0, 0
0, 0
0, 0
0, 0
0, 0
0, 0
0, 0
0, 0
0, 0
0, 0
0, 0
0, 0
0, 0
0, 0
0, 0
0, 0
0, 0
0, 0
0, 0
0, 0
0, 0
0, 0
0, 0
0, 0
0, 0
0, 0
0, 0
0, 0
0, 0
0, 0
0, 0
0, 0
0, 0
0, 0
0, 0
0, 0
0, 0
0, 0
0, 0
0, 0
0, 0
0, 0
0, 0
0, 0
0, 0
0, 0
0, 0
0, 0
0, 0
0, 0
0, 0
0, 0
0, 0
0, 0
0, 0
0, 0
0, 0
0, 0
0, 0
0, 0
0, 0
0, 0
0, 0
0, 0
0, 0
0, 0
0, 0
0, 0
0, 0
0, 0
0, 0
0, 0
0, 0
0, 0
0, 0
0, 0
0, 0
0, 0
0, 0
0, 0
0, 0
0, 0
0, 0
0, 0
0, 0
0, 0
0, 0
0, 0
0, 0
0, 0
0, 0
0, 0
0, 0
0, 0
0, 0
0, 0
0, 0
0, 0
0, 0
0, 0
0, 0
0, 0
0, 0
0, 0
0, 0
0, 0
0, 0
0, 0
0, 0
0, 0
0, 0
0, 0
0, 0
0, 0
0, 0
0, 0
0, 0
0, 0
0, 0
0, 0
0, 0
#ENDOFDATA     end of spectrum data