File: host_upload/06-09-2024/ps_0852/dump3/ps__0852shot_2012.msa
#FORMAT      : EMSA/MAS spectral data file
#VERSION     : TC202v2.0 PIXL
#TITLE       : N/A
#DATE        :       Date in the format DD-MMM-YYYY, for example 07-JUL-2010
#TIME        :             The time of day at which the spectrum was recorded, in 24-hour format
#OWNER       : PIXL Flight Model       (PIXL will use this to indicate which instrument took the data.)
#NPOINTS     : 4096     Number of data points in the spectrum (This can be zero for configuration only files)
#NCOLUMNS    : 2     Number of data columns in the spectrum (This can be zero for configuration only files)
#XUNITS      : eV
#YUNITS      : COUNTS
#DATATYPE    : YY
#XPERCHAN    : 7.862, 7.881   eV per channel (separate by commas if more than one detector)
#OFFSET      : 18.5, -22.4         eV of first channel  (separate by commas if more than one detector
#SIGNALTYPE  : XRF
#YP_TEMP     : 2.396
#LIVETIME    : 8.56993, 8.55719   seconds (separate by commas if more than one detector)
#REALTIME    : 10, 10.0   seconds (separate by commas if more than one detector)
#SPECTRUM    : start of spectrum data
0, 0
0, 0
0, 0
0, 0
0, 0
0, 0
0, 0
0, 0
0, 0
0, 0
0, 0
0, 0
0, 0
0, 0
0, 0
0, 0
0, 0
0, 0
0, 0
0, 0
0, 0
0, 0
0, 0
0, 0
0, 0
0, 0
0, 0
0, 0
0, 0
0, 0
0, 0
0, 0
1, 1
1, 1
0, 1
2, 2
1, 3
0, 0
1, 0
1, 1
3, 0
3, 3
3, 2
2, 0
0, 2
5, 0
3, 1
3, 3
8, 2
8, 6
26, 20
27, 32
47, 41
53, 53
97, 58
52, 47
60, 31
43, 23
17, 30
12, 14
8, 6
6, 7
4, 2
7, 7
4, 1
3, 3
4, 3
7, 10
19, 20
38, 26
85, 65
160, 104
257, 190
304, 260
319, 273
326, 293
323, 213
264, 199
164, 126
95, 69
70, 57
27, 19
27, 19
7, 5
8, 6
3, 4
5, 3
5, 1
2, 0
3, 5
2, 7
7, 9
16, 10
30, 18
66, 60
83, 91
132, 133
172, 166
174, 193
188, 175
172, 174
153, 126
128, 99
92, 61
56, 44
41, 32
29, 24
31, 23
26, 32
35, 35
56, 36
64, 56
83, 60
111, 65
113, 79
112, 50
102, 50
95, 53
65, 45
51, 49
57, 37
37, 19
20, 33
33, 19
33, 25
19, 35
31, 25
12, 15
11, 16
9, 21
9, 16
8, 9
7, 10
0, 10
3, 12
6, 8
4, 7
2, 6
2, 10
8, 4
3, 3
3, 0
3, 2
6, 6
0, 2
3, 2
5, 3
3, 2
2, 3
1, 6
8, 9
13, 14
15, 18
23, 30
32, 27
44, 25
39, 48
50, 37
33, 50
35, 35
24, 26
28, 22
13, 19
11, 3
11, 8
5, 3
4, 5
6, 6
4, 6
9, 8
5, 9
8, 11
10, 7
12, 7
14, 10
16, 8
15, 14
15, 11
9, 10
12, 11
8, 5
12, 7
11, 4
6, 4
7, 4
3, 3
9, 3
2, 6
4, 6
5, 11
6, 9
17, 9
11, 14
7, 14
19, 12
12, 19
17, 27
17, 26
11, 34
22, 15
16, 25
9, 22
11, 21
11, 18
9, 22
5, 21
10, 12
5, 21
11, 11
8, 4
4, 5
12, 12
9, 11
6, 5
3, 6
13, 2
2, 8
8, 8
7, 3
4, 9
6, 11
7, 9
3, 7
3, 6
9, 8
14, 9
11, 9
10, 10
15, 8
19, 9
19, 11
25, 10
16, 13
16, 15
21, 6
13, 7
12, 10
17, 4
10, 7
6, 8
8, 7
11, 8
17, 8
11, 13
24, 21
16, 12
28, 23
45, 36
49, 36
58, 54
62, 61
63, 52
77, 54
60, 39
65, 38
32, 27
32, 24
20, 23
21, 31
22, 14
24, 19
29, 31
50, 53
76, 92
155, 176
264, 297
473, 491
665, 809
1141, 1193
1558, 1545
1948, 1861
2280, 2051
2464, 2018
2393, 1937
2137, 1747
1785, 1322
1393, 991
939, 675
603, 388
372, 235
242, 130
131, 81
96, 54
92, 34
97, 21
75, 20
91, 16
94, 9
91, 27
91, 15
80, 17
80, 35
55, 65
90, 55
114, 85
151, 140
213, 199
281, 271
285, 313
329, 327
380, 320
346, 337
312, 281
256, 213
150, 148
145, 116
101, 63
58, 38
34, 22
22, 19
15, 7
10, 7
8, 7
7, 12
11, 10
14, 7
10, 5
14, 10
13, 12
8, 8
5, 11
12, 10
5, 10
12, 5
9, 6
6, 1
7, 4
0, 6
7, 6
4, 2
8, 1
6, 5
4, 2
6, 5
1, 4
3, 3
1, 2
4, 4
2, 6
3, 5
4, 6
5, 3
4, 5
3, 3
5, 7
5, 7
7, 4
7, 2
3, 4
8, 5
11, 7
6, 5
8, 6
8, 2
9, 2
6, 10
5, 2
5, 1
6, 4
12, 5
7, 8
5, 4
7, 4
6, 3
3, 11
7, 6
6, 9
8, 7
4, 3
6, 3
9, 6
6, 6
4, 4
8, 7
4, 7
6, 13
5, 2
4, 11
6, 8
5, 18
1, 11
2, 12
5, 7
4, 10
9, 8
8, 8
8, 8
6, 14
2, 11
2, 13
3, 12
2, 14
8, 11
2, 16
3, 16
3, 13
5, 19
4, 15
6, 11
2, 9
2, 6
5, 8
6, 6
4, 6
5, 1
10, 1
2, 6
5, 4
3, 5
8, 4
2, 5
2, 4
8, 0
4, 3
9, 2
12, 0
11, 4
13, 2
17, 2
21, 6
14, 5
14, 1
14, 4
17, 3
10, 0
10, 3
5, 3
8, 3
5, 2
6, 3
5, 2
9, 4
2, 2
0, 2
5, 2
3, 3
3, 5
3, 4
2, 1
4, 2
3, 2
2, 2
2, 1
2, 5
6, 7
4, 2
5, 2
4, 2
5, 0
4, 1
2, 0
6, 1
1, 1
0, 6
2, 2
2, 2
5, 1
2, 4
4, 2
4, 1
1, 3
7, 5
5, 1
3, 0
2, 6
3, 4
3, 3
5, 0
3, 3
2, 3
3, 2
2, 4
1, 1
1, 1
2, 2
2, 2
3, 1
4, 2
1, 2
3, 3
0, 1
2, 1
2, 0
0, 1
2, 1
4, 2
4, 1
3, 1
1, 1
2, 1
1, 4
8, 2
3, 3
5, 0
2, 4
2, 1
1, 2
0, 1
0, 2
2, 3
1, 2
3, 0
5, 3
4, 3
2, 2
6, 3
5, 1
5, 2
3, 4
4, 2
5, 1
3, 3
4, 0
1, 1
4, 1
2, 1
2, 1
1, 2
4, 1
1, 1
2, 3
2, 0
0, 3
2, 1
5, 3
3, 0
0, 0
2, 1
1, 2
2, 3
2, 2
1, 1
3, 4
1, 2
5, 0
3, 3
4, 2
3, 0
5, 2
3, 3
4, 4
4, 4
7, 2
4, 3
6, 2
1, 3
1, 3
1, 5
4, 1
2, 2
0, 3
1, 1
2, 3
0, 0
0, 2
2, 2
2, 1
1, 1
1, 3
1, 3
1, 3
1, 3
3, 1
1, 4
1, 2
1, 2
1, 2
3, 1
1, 1
1, 0
3, 1
3, 1
2, 0
2, 1
1, 1
2, 1
1, 1
1, 1
1, 0
0, 3
0, 1
2, 2
2, 1
2, 0
0, 0
3, 0
0, 1
3, 1
1, 3
0, 1
0, 1
0, 1
0, 1
1, 2
0, 2
0, 0
0, 2
1, 1
2, 2
1, 3
1, 0
0, 1
1, 0
2, 1
1, 0
1, 3
0, 1
1, 2
2, 0
0, 1
0, 1
1, 1
2, 1
1, 1
0, 0
0, 0
1, 1
0, 0
0, 1
0, 0
0, 0
0, 3
1, 0
2, 0
1, 0
0, 1
3, 3
2, 1
1, 2
2, 2
0, 3
0, 2
0, 0
0, 1
1, 0
2, 1
0, 2
1, 0
0, 0
0, 0
0, 1
2, 0
2, 0
0, 0
1, 0
2, 0
1, 2
0, 1
1, 1
1, 2
2, 1
1, 2
0, 1
1, 0
1, 1
0, 1
1, 1
1, 0
0, 0
2, 0
1, 0
0, 0
0, 0
1, 0
3, 0
0, 0
1, 0
0, 2
1, 0
0, 0
0, 1
2, 2
1, 1
0, 0
0, 0
0, 0
0, 0
0, 0
0, 0
0, 1
1, 1
1, 0
1, 0
2, 1
0, 0
2, 0
1, 1
0, 1
0, 0
1, 0
1, 2
0, 1
1, 0
0, 0
2, 0
0, 0
1, 1
0, 1
0, 0
0, 0
1, 0
0, 0
0, 1
1, 0
0, 1
1, 1
0, 0
0, 1
1, 0
0, 0
0, 0
0, 0
1, 0
0, 0
0, 1
0, 0
0, 0
0, 1
0, 0
2, 0
1, 0
0, 0
0, 0
2, 0
1, 0
0, 0
0, 1
0, 0
0, 1
0, 0
0, 0
0, 1
1, 0
1, 0
2, 0
0, 0
0, 1
1, 0
0, 0
0, 0
1, 1
0, 0
2, 1
0, 1
2, 1
0, 0
0, 0
0, 0
0, 0
0, 1
0, 1
0, 1
0, 0
0, 0
0, 0
0, 1
0, 0
0, 0
1, 0
0, 1
0, 0
0, 0
1, 1
1, 0
0, 0
1, 1
1, 0
0, 0
0, 0
0, 0
1, 1
1, 1
0, 0
0, 0
0, 0
1, 2
0, 0
0, 0
1, 0
0, 0
0, 0
0, 0
2, 0
1, 0
1, 0
0, 0
1, 0
0, 0
0, 0
0, 0
0, 0
0, 0
1, 0
0, 0
1, 0
0, 1
0, 0
0, 0
0, 0
1, 0
0, 0
0, 1
0, 1
0, 0
0, 1
0, 0
0, 0
1, 0
1, 0
0, 0
0, 0
0, 1
0, 0
0, 0
0, 0
1, 0
0, 0
0, 0
0, 1
0, 0
0, 0
0, 0
1, 0
0, 0
0, 0
1, 0
0, 0
0, 0
1, 0
0, 0
0, 0
0, 0
1, 1
0, 0
0, 1
0, 0
0, 0
0, 0
0, 0
0, 0
0, 1
1, 0
0, 0
0, 1
1, 0
0, 0
0, 0
0, 0
0, 0
0, 0
1, 0
0, 0
0, 1
1, 0
1, 0
0, 0
0, 0
0, 0
1, 0
0, 0
0, 0
0, 0
0, 1
0, 0
0, 1
0, 0
1, 0
0, 0
0, 0
0, 0
0, 0
0, 0
0, 0
0, 0
0, 0
0, 0
0, 0
0, 0
0, 0
0, 0
1, 0
0, 0
1, 0
0, 0
0, 0
0, 0
1, 0
0, 0
0, 0
0, 0
0, 0
0, 0
0, 0
0, 0
0, 0
0, 0
0, 0
0, 1
0, 0
0, 0
0, 0
0, 0
2, 0
0, 0
0, 0
0, 0
0, 0
0, 1
0, 0
0, 0
0, 0
0, 0
0, 0
0, 0
0, 0
0, 0
0, 1
0, 0
0, 0
0, 0
0, 1
0, 0
0, 0
0, 0
0, 0
1, 1
0, 0
0, 0
1, 0
0, 0
0, 0
0, 0
0, 0
0, 0
0, 0
0, 0
0, 1
0, 0
0, 0
0, 0
0, 0
0, 0
0, 0
0, 0
0, 0
0, 0
1, 0
0, 0
0, 0
0, 0
0, 0
0, 0
0, 0
0, 0
0, 0
0, 0
0, 0
0, 0
0, 0
0, 0
0, 0
0, 0
0, 0
0, 0
0, 0
0, 0
0, 0
1, 0
0, 0
0, 0
0, 0
0, 0
0, 0
0, 0
0, 0
0, 0
0, 0
0, 0
0, 0
0, 0
0, 0
0, 0
0, 0
0, 0
0, 0
0, 0
1, 0
0, 0
0, 0
0, 0
0, 0
0, 0
0, 0
0, 0
0, 0
0, 0
0, 0
0, 0
0, 0
0, 0
0, 0
0, 0
0, 0
0, 0
0, 0
0, 0
0, 0
0, 0
0, 0
0, 0
0, 0
0, 0
0, 0
0, 0
0, 0
0, 0
0, 0
0, 0
0, 0
0, 0
0, 0
0, 0
0, 0
0, 0
0, 0
0, 0
0, 0
0, 0
0, 0
0, 0
0, 0
0, 0
0, 0
0, 0
0, 0
0, 0
0, 0
0, 0
0, 0
0, 0
0, 0
0, 0
0, 0
0, 0
0, 0
0, 0
0, 0
0, 0
0, 0
0, 0
0, 0
0, 0
0, 0
0, 0
0, 0
0, 0
0, 0
0, 0
0, 0
0, 0
0, 0
0, 0
0, 0
0, 0
0, 0
0, 0
0, 0
0, 0
0, 0
0, 0
0, 0
0, 0
0, 0
0, 0
0, 0
0, 0
0, 0
0, 0
0, 0
0, 0
0, 0
0, 0
0, 0
0, 0
0, 0
0, 0
0, 0
0, 0
0, 0
0, 0
0, 0
0, 0
0, 0
0, 0
0, 0
0, 0
0, 0
0, 0
0, 0
0, 0
0, 0
0, 0
0, 0
0, 0
0, 0
0, 0
0, 0
0, 0
0, 0
0, 0
0, 0
0, 0
0, 0
0, 0
0, 0
0, 0
0, 0
0, 0
0, 0
0, 0
0, 0
0, 0
0, 0
0, 0
0, 0
0, 0
0, 0
0, 0
0, 0
0, 0
0, 0
0, 0
0, 0
0, 0
0, 0
0, 0
0, 0
0, 0
0, 0
0, 0
0, 0
0, 0
0, 0
0, 0
0, 0
0, 0
0, 0
0, 0
0, 0
0, 0
0, 0
0, 0
0, 0
0, 0
0, 0
0, 0
0, 0
0, 0
0, 0
0, 0
0, 0
0, 0
0, 0
0, 0
0, 0
0, 0
0, 0
0, 0
0, 0
0, 0
0, 0
0, 0
0, 0
0, 0
0, 0
0, 0
0, 0
0, 0
0, 0
0, 0
0, 0
0, 0
0, 0
0, 0
0, 0
0, 0
0, 0
0, 0
0, 0
0, 0
0, 0
0, 0
0, 0
0, 0
0, 0
0, 0
0, 0
0, 0
0, 0
0, 0
0, 0
0, 0
0, 0
0, 0
0, 0
0, 0
0, 0
0, 0
0, 0
0, 0
0, 0
0, 0
0, 0
0, 0
0, 0
0, 0
0, 0
0, 0
0, 0
0, 0
0, 0
0, 0
0, 0
0, 0
0, 0
0, 0
0, 0
0, 0
0, 0
0, 0
0, 0
0, 0
0, 0
0, 0
0, 0
0, 0
0, 0
0, 0
0, 0
0, 0
0, 0
0, 0
0, 0
0, 0
0, 0
0, 0
0, 0
0, 0
0, 0
0, 0
0, 0
0, 0
0, 0
0, 0
0, 0
0, 0
0, 0
0, 0
0, 0
0, 0
0, 0
0, 0
0, 0
0, 0
0, 0
0, 0
0, 0
0, 0
0, 0
0, 0
0, 0
0, 0
0, 0
0, 0
0, 0
0, 0
0, 0
0, 0
0, 0
0, 0
0, 0
0, 0
0, 0
0, 0
0, 0
0, 0
0, 0
0, 0
0, 0
0, 0
0, 0
0, 0
0, 0
0, 0
0, 0
0, 0
0, 0
0, 0
0, 0
0, 0
0, 0
0, 0
0, 0
0, 0
0, 0
0, 0
0, 0
0, 0
0, 0
0, 0
0, 0
0, 0
0, 0
0, 0
0, 0
0, 0
0, 0
0, 0
0, 0
0, 0
0, 0
0, 0
0, 0
0, 0
0, 0
0, 0
0, 0
0, 0
0, 0
0, 0
0, 0
0, 0
0, 0
0, 0
0, 0
0, 0
0, 0
0, 0
0, 0
0, 0
0, 0
0, 0
0, 0
0, 0
0, 0
0, 0
0, 0
0, 0
0, 0
0, 0
0, 0
0, 0
0, 0
0, 0
0, 0
0, 0
0, 0
0, 0
0, 0
0, 0
0, 0
0, 0
0, 0
0, 0
0, 0
0, 0
#ENDOFDATA     end of spectrum data