File: host_upload/06-09-2024/ps_0852/dump3/ps__0852shot_2203.msa
#FORMAT      : EMSA/MAS spectral data file
#VERSION     : TC202v2.0 PIXL
#TITLE       : N/A
#DATE        :       Date in the format DD-MMM-YYYY, for example 07-JUL-2010
#TIME        :             The time of day at which the spectrum was recorded, in 24-hour format
#OWNER       : PIXL Flight Model       (PIXL will use this to indicate which instrument took the data.)
#NPOINTS     : 4096     Number of data points in the spectrum (This can be zero for configuration only files)
#NCOLUMNS    : 2     Number of data columns in the spectrum (This can be zero for configuration only files)
#XUNITS      : eV
#YUNITS      : COUNTS
#DATATYPE    : YY
#XPERCHAN    : 7.862, 7.881   eV per channel (separate by commas if more than one detector)
#OFFSET      : 18.5, -22.4         eV of first channel  (separate by commas if more than one detector
#SIGNALTYPE  : XRF
#YP_TEMP     : 2.139
#LIVETIME    : 8.57205, 8.55744   seconds (separate by commas if more than one detector)
#REALTIME    : 10, 10.0   seconds (separate by commas if more than one detector)
#SPECTRUM    : start of spectrum data
0, 0
0, 0
0, 0
0, 0
0, 0
0, 0
0, 0
0, 0
0, 0
0, 0
0, 0
0, 0
0, 0
0, 0
0, 0
0, 0
0, 0
0, 0
0, 0
0, 0
0, 0
0, 0
0, 0
0, 0
0, 0
0, 0
0, 0
0, 0
0, 0
0, 0
0, 0
1, 0
0, 0
0, 0
0, 0
1, 0
2, 0
0, 0
0, 1
0, 0
0, 1
0, 1
1, 2
1, 1
0, 1
1, 1
1, 3
2, 2
6, 9
11, 18
21, 17
39, 46
61, 62
100, 76
94, 79
84, 77
63, 68
46, 55
28, 17
13, 16
14, 8
6, 7
7, 7
5, 4
3, 3
2, 2
5, 6
23, 6
24, 27
44, 46
87, 108
177, 178
256, 315
397, 364
413, 416
423, 449
349, 349
318, 307
206, 204
133, 104
73, 65
40, 43
22, 20
8, 12
4, 2
1, 2
3, 2
2, 2
1, 1
1, 1
0, 0
1, 1
1, 3
0, 1
3, 1
3, 6
3, 5
1, 2
4, 2
2, 4
5, 3
4, 6
3, 5
3, 1
2, 2
4, 3
4, 3
5, 2
8, 12
13, 16
12, 17
24, 32
26, 38
31, 37
37, 44
41, 48
46, 53
37, 50
34, 31
29, 44
19, 39
22, 32
17, 16
19, 15
16, 21
11, 9
10, 15
10, 12
10, 9
10, 9
1, 3
6, 4
10, 5
2, 3
2, 5
1, 1
2, 2
5, 1
5, 2
0, 7
1, 2
0, 4
1, 2
4, 3
2, 3
2, 3
2, 1
1, 0
4, 2
4, 2
2, 1
1, 3
4, 4
6, 4
10, 4
15, 11
17, 12
11, 16
7, 14
5, 8
9, 8
10, 5
6, 5
8, 5
12, 4
1, 0
4, 5
10, 3
16, 4
12, 2
10, 1
9, 4
9, 3
9, 2
9, 6
5, 3
4, 3
2, 3
5, 4
4, 4
7, 3
2, 2
3, 2
6, 1
7, 4
13, 3
10, 7
30, 1
44, 8
63, 7
83, 16
97, 7
127, 9
116, 13
116, 18
112, 17
76, 14
80, 17
42, 15
30, 7
17, 19
17, 12
12, 6
9, 9
11, 4
9, 11
5, 2
7, 7
8, 5
3, 5
6, 13
7, 14
8, 9
4, 10
4, 11
3, 10
3, 4
7, 10
5, 16
8, 11
2, 9
5, 8
11, 9
14, 4
11, 9
11, 7
9, 8
9, 13
15, 12
13, 13
10, 23
15, 20
13, 25
12, 27
14, 29
5, 32
9, 39
9, 31
8, 47
6, 34
8, 35
4, 32
6, 44
11, 42
13, 50
24, 39
24, 53
24, 49
39, 59
42, 60
68, 77
65, 73
61, 71
46, 61
48, 41
42, 36
22, 29
25, 22
24, 29
16, 11
31, 28
36, 37
62, 46
83, 107
168, 202
293, 363
460, 628
748, 977
1134, 1449
1502, 1734
1851, 2275
2272, 2389
2325, 2577
2282, 2386
2094, 1977
1767, 1575
1366, 1117
865, 760
555, 448
379, 278
208, 156
117, 99
59, 68
44, 74
34, 56
23, 63
25, 64
13, 54
15, 44
17, 44
22, 37
25, 52
38, 67
78, 77
90, 139
130, 162
204, 267
248, 301
301, 334
294, 376
345, 329
343, 321
288, 267
246, 224
180, 162
139, 102
99, 73
49, 55
27, 16
25, 12
22, 11
27, 15
17, 11
23, 11
10, 19
16, 9
19, 16
14, 9
15, 13
11, 18
7, 15
8, 9
8, 8
9, 9
8, 8
5, 3
5, 3
2, 4
2, 2
2, 3
1, 2
10, 3
6, 3
4, 5
6, 8
5, 5
7, 8
11, 5
3, 8
6, 11
6, 6
9, 11
6, 13
11, 8
4, 11
4, 9
5, 7
1, 6
3, 9
6, 0
5, 7
9, 7
5, 3
6, 3
9, 6
4, 9
3, 8
6, 8
3, 4
6, 7
4, 5
1, 8
2, 8
1, 7
2, 5
2, 6
4, 7
5, 5
2, 7
1, 7
7, 2
5, 3
3, 4
3, 3
7, 3
1, 5
4, 1
8, 1
14, 3
9, 5
8, 3
12, 6
3, 4
7, 3
6, 2
7, 3
9, 3
6, 3
5, 4
3, 2
6, 5
4, 6
5, 4
7, 9
7, 10
9, 8
7, 11
7, 8
7, 13
7, 5
1, 11
6, 5
5, 5
5, 4
10, 6
3, 3
2, 7
4, 6
3, 2
4, 3
2, 4
5, 2
4, 3
7, 1
3, 2
1, 6
2, 0
1, 4
8, 2
2, 0
5, 5
7, 2
3, 2
3, 2
2, 4
4, 6
3, 1
1, 1
1, 5
1, 1
1, 4
2, 2
3, 6
4, 3
4, 5
3, 3
4, 6
4, 4
1, 6
4, 4
1, 1
0, 2
0, 6
3, 1
2, 3
1, 3
1, 3
3, 8
2, 2
2, 3
8, 4
4, 5
9, 6
2, 2
7, 5
4, 3
7, 4
4, 2
2, 2
3, 1
3, 5
1, 4
1, 4
0, 8
2, 3
2, 2
4, 2
1, 1
1, 2
3, 0
4, 1
1, 4
2, 2
4, 1
2, 2
2, 2
3, 3
2, 1
1, 3
3, 1
3, 2
2, 0
6, 3
1, 2
2, 1
2, 2
0, 0
3, 2
3, 1
2, 4
3, 1
4, 1
3, 3
3, 4
2, 2
1, 1
7, 0
1, 3
1, 1
3, 2
3, 2
3, 2
1, 1
2, 4
3, 1
1, 2
1, 1
3, 2
2, 2
3, 1
1, 0
2, 2
1, 3
1, 2
3, 3
2, 2
4, 0
2, 3
0, 2
1, 2
1, 2
2, 1
5, 2
1, 3
4, 1
2, 3
0, 2
5, 4
4, 0
2, 2
4, 0
2, 2
4, 4
1, 3
3, 4
2, 3
3, 4
6, 3
1, 5
1, 7
1, 11
3, 2
2, 5
3, 4
3, 4
1, 5
4, 2
4, 3
1, 2
2, 3
2, 1
1, 1
1, 3
2, 2
3, 2
0, 2
1, 2
3, 6
2, 1
4, 1
0, 2
1, 1
1, 3
0, 1
1, 2
2, 2
2, 2
0, 3
3, 2
2, 3
0, 1
2, 1
2, 1
4, 4
1, 2
1, 2
4, 0
1, 2
1, 1
1, 0
3, 0
2, 4
2, 2
1, 1
0, 1
1, 1
0, 0
0, 0
0, 1
0, 1
1, 0
1, 3
2, 1
1, 1
1, 2
1, 0
0, 1
0, 0
0, 1
1, 1
0, 0
2, 0
3, 0
0, 2
0, 0
1, 2
1, 2
1, 0
0, 0
0, 1
2, 0
0, 0
0, 0
1, 1
1, 0
1, 0
2, 3
0, 1
1, 1
1, 0
2, 2
0, 1
0, 0
0, 2
2, 1
0, 1
0, 0
0, 0
0, 2
0, 0
0, 0
1, 4
1, 0
0, 2
0, 1
1, 0
0, 0
1, 1
0, 0
0, 3
2, 0
0, 3
0, 0
1, 1
1, 0
1, 1
0, 1
1, 2
1, 0
0, 1
1, 1
1, 2
0, 0
0, 0
2, 0
1, 1
0, 0
2, 1
1, 1
0, 0
0, 1
1, 1
1, 0
0, 1
0, 0
0, 0
0, 0
1, 2
1, 0
0, 2
2, 1
0, 0
0, 2
2, 0
0, 1
0, 0
0, 1
1, 0
1, 1
0, 3
0, 2
1, 1
0, 0
0, 0
0, 0
1, 0
0, 2
1, 0
0, 0
0, 0
0, 0
0, 0
0, 0
0, 0
1, 2
0, 0
2, 1
2, 1
0, 0
1, 0
0, 0
0, 0
0, 1
2, 0
0, 1
1, 0
0, 1
0, 0
0, 0
1, 0
0, 0
0, 1
0, 0
0, 0
0, 0
0, 0
0, 0
0, 2
2, 0
0, 1
1, 0
0, 0
0, 0
0, 0
0, 1
1, 1
2, 1
0, 0
1, 1
4, 0
1, 0
1, 0
0, 0
0, 0
0, 0
0, 0
0, 0
1, 0
0, 0
0, 0
0, 0
0, 1
0, 1
1, 0
0, 1
1, 0
2, 0
0, 1
1, 0
0, 2
1, 0
0, 0
0, 0
0, 0
0, 1
1, 0
0, 0
0, 0
1, 1
0, 1
0, 0
1, 0
1, 0
1, 0
0, 0
0, 0
0, 0
0, 1
0, 0
2, 0
0, 1
0, 1
1, 1
0, 0
1, 0
0, 0
1, 0
0, 0
0, 0
0, 0
0, 0
0, 0
0, 0
0, 1
0, 0
0, 0
0, 0
0, 0
1, 0
0, 0
0, 2
0, 0
1, 0
0, 0
0, 0
0, 1
0, 0
1, 1
1, 0
0, 0
1, 0
0, 0
1, 0
0, 0
0, 0
0, 0
0, 0
0, 0
0, 1
1, 0
1, 1
0, 0
0, 0
0, 0
0, 0
1, 0
0, 0
0, 0
0, 0
0, 0
0, 0
0, 0
1, 0
0, 0
0, 0
0, 1
0, 0
0, 0
0, 0
0, 0
0, 0
0, 1
0, 0
0, 0
0, 0
0, 0
0, 0
0, 0
0, 0
0, 0
0, 2
0, 1
0, 0
1, 0
0, 0
0, 0
1, 0
0, 0
1, 0
0, 2
0, 0
0, 0
0, 0
1, 0
0, 0
0, 0
0, 0
1, 0
0, 0
0, 0
0, 1
0, 0
0, 0
0, 1
0, 1
0, 0
0, 0
0, 0
0, 0
0, 0
0, 0
0, 0
0, 0
0, 0
0, 1
0, 0
0, 0
1, 0
1, 0
0, 1
0, 0
0, 0
0, 0
0, 1
0, 0
0, 0
0, 0
0, 0
0, 0
0, 0
0, 0
0, 0
0, 0
0, 0
0, 0
0, 0
0, 0
0, 0
0, 0
0, 0
0, 0
0, 0
0, 0
0, 0
0, 0
0, 0
0, 0
0, 0
0, 0
0, 0
0, 0
0, 0
0, 0
0, 0
0, 0
0, 0
0, 0
0, 0
0, 0
0, 0
0, 0
0, 0
0, 0
0, 0
0, 0
0, 0
1, 0
0, 0
0, 0
0, 0
0, 0
0, 0
0, 0
0, 0
0, 0
0, 0
0, 0
0, 0
0, 0
0, 0
0, 0
0, 0
0, 0
0, 0
0, 0
0, 0
0, 0
0, 0
0, 0
0, 0
0, 0
0, 0
0, 0
0, 0
0, 0
0, 0
0, 0
0, 0
0, 0
0, 0
0, 0
0, 0
0, 0
0, 0
0, 0
0, 0
1, 0
0, 0
0, 0
0, 0
0, 0
0, 0
0, 0
0, 0
0, 0
0, 0
0, 0
0, 0
0, 0
0, 0
0, 0
0, 0
0, 0
0, 0
0, 1
0, 0
0, 0
0, 0
0, 0
0, 0
0, 0
0, 0
0, 0
0, 0
0, 0
0, 0
0, 0
0, 0
0, 0
0, 0
0, 0
0, 0
0, 0
0, 0
0, 0
0, 0
0, 0
0, 0
0, 0
0, 0
0, 0
0, 0
0, 0
0, 0
0, 0
0, 0
0, 0
0, 0
0, 0
0, 0
0, 0
0, 0
0, 0
0, 0
0, 0
0, 0
0, 0
0, 0
0, 0
0, 0
0, 0
0, 0
0, 0
0, 0
0, 0
0, 0
0, 0
0, 0
0, 0
0, 0
0, 0
0, 0
0, 0
0, 0
0, 0
0, 0
0, 0
0, 0
0, 0
0, 0
0, 0
0, 0
0, 0
0, 0
0, 0
0, 0
0, 0
0, 0
0, 0
0, 0
0, 0
0, 0
0, 0
0, 0
0, 0
0, 0
0, 0
0, 0
0, 0
0, 0
0, 0
0, 0
0, 0
0, 0
0, 0
0, 0
0, 0
0, 0
0, 0
0, 0
0, 0
0, 0
0, 0
0, 0
0, 0
0, 0
0, 0
0, 0
0, 0
0, 0
0, 0
0, 0
0, 0
0, 0
0, 0
0, 0
0, 0
0, 0
0, 0
0, 0
0, 0
0, 0
0, 0
0, 0
0, 0
0, 0
0, 0
0, 0
0, 0
0, 0
0, 0
0, 0
0, 0
0, 0
0, 0
0, 0
0, 0
0, 0
0, 0
0, 0
0, 0
0, 0
0, 0
0, 0
0, 0
0, 0
0, 0
0, 0
0, 0
0, 0
0, 0
0, 0
0, 0
0, 0
0, 0
0, 0
0, 0
0, 0
0, 0
0, 0
0, 0
0, 0
0, 0
0, 0
0, 0
0, 0
0, 0
0, 0
0, 0
0, 0
0, 0
0, 0
0, 0
0, 0
0, 0
0, 0
0, 0
0, 0
0, 0
0, 0
0, 0
0, 0
0, 0
0, 0
0, 0
0, 0
0, 0
0, 0
0, 0
0, 0
0, 0
0, 0
0, 0
0, 0
0, 0
0, 0
0, 0
0, 0
0, 0
0, 0
0, 0
0, 0
0, 0
0, 0
0, 0
0, 0
0, 0
0, 0
0, 0
0, 0
0, 0
0, 0
0, 0
0, 0
0, 0
0, 0
0, 0
0, 0
0, 0
0, 0
0, 0
0, 0
0, 0
0, 0
0, 0
0, 0
0, 0
0, 0
0, 0
0, 0
0, 0
0, 0
0, 0
0, 0
0, 0
0, 0
0, 0
0, 0
0, 0
0, 0
0, 0
0, 0
0, 0
0, 0
0, 0
0, 0
0, 0
0, 0
0, 0
0, 0
0, 0
0, 0
0, 0
0, 0
0, 0
0, 0
0, 0
0, 0
0, 0
0, 0
0, 0
0, 0
0, 0
0, 0
0, 0
0, 0
0, 0
0, 0
0, 0
0, 0
0, 0
0, 0
0, 0
0, 0
0, 0
0, 0
0, 0
0, 0
0, 0
0, 0
0, 0
0, 0
0, 0
0, 0
0, 0
0, 0
0, 0
0, 0
0, 0
0, 0
0, 0
0, 0
0, 0
0, 0
0, 0
0, 0
0, 0
0, 0
0, 0
0, 0
0, 0
0, 0
0, 0
0, 0
0, 0
0, 0
0, 0
0, 0
0, 0
0, 0
0, 0
0, 0
0, 0
0, 0
0, 0
0, 0
0, 0
0, 0
0, 0
0, 0
0, 0
0, 0
0, 0
0, 0
0, 0
0, 0
0, 0
0, 0
0, 0
0, 0
0, 0
0, 0
0, 0
0, 0
0, 0
0, 0
0, 0
0, 0
0, 0
0, 0
0, 0
0, 0
0, 0
0, 0
0, 0
0, 0
0, 0
0, 0
0, 0
0, 0
0, 0
0, 0
0, 0
0, 0
0, 0
0, 0
0, 0
0, 0
0, 0
0, 0
0, 0
0, 0
0, 0
0, 0
0, 0
0, 0
0, 0
0, 0
0, 0
0, 0
0, 0
0, 0
0, 0
0, 0
0, 0
0, 0
0, 0
0, 0
0, 0
0, 0
0, 0
0, 0
0, 0
0, 0
0, 0
0, 0
#ENDOFDATA     end of spectrum data