File: host_upload/06-09-2024/ps_0852/dump3/ps__0852shot_2375.msa
#FORMAT      : EMSA/MAS spectral data file
#VERSION     : TC202v2.0 PIXL
#TITLE       : N/A
#DATE        :       Date in the format DD-MMM-YYYY, for example 07-JUL-2010
#TIME        :             The time of day at which the spectrum was recorded, in 24-hour format
#OWNER       : PIXL Flight Model       (PIXL will use this to indicate which instrument took the data.)
#NPOINTS     : 4096     Number of data points in the spectrum (This can be zero for configuration only files)
#NCOLUMNS    : 2     Number of data columns in the spectrum (This can be zero for configuration only files)
#XUNITS      : eV
#YUNITS      : COUNTS
#DATATYPE    : YY
#XPERCHAN    : 7.862, 7.881   eV per channel (separate by commas if more than one detector)
#OFFSET      : 18.5, -22.4         eV of first channel  (separate by commas if more than one detector
#SIGNALTYPE  : XRF
#YP_TEMP     : 2.492
#LIVETIME    : 8.56041, 8.54309   seconds (separate by commas if more than one detector)
#REALTIME    : 10, 10.0   seconds (separate by commas if more than one detector)
#SPECTRUM    : start of spectrum data
0, 0
0, 0
0, 0
0, 0
0, 0
0, 0
0, 0
0, 0
0, 0
0, 0
0, 0
0, 0
0, 0
0, 0
0, 0
0, 0
0, 0
0, 0
0, 0
0, 0
0, 0
0, 0
0, 0
0, 0
0, 0
0, 0
0, 0
0, 0
0, 0
0, 0
0, 0
0, 0
0, 1
0, 0
0, 0
0, 1
0, 1
1, 0
0, 1
3, 1
0, 4
1, 2
4, 2
3, 2
3, 3
1, 2
0, 3
3, 0
7, 5
12, 9
19, 15
25, 19
48, 45
53, 48
74, 49
66, 67
50, 34
28, 27
22, 21
10, 13
5, 3
5, 6
6, 5
6, 5
4, 1
4, 6
3, 7
10, 11
32, 31
51, 51
108, 111
197, 194
339, 296
413, 373
516, 407
507, 440
457, 425
344, 281
233, 190
187, 121
66, 61
48, 46
32, 21
11, 13
7, 7
10, 3
5, 2
3, 3
4, 3
3, 2
2, 2
4, 1
3, 0
3, 4
4, 1
5, 2
6, 6
6, 9
3, 15
8, 10
8, 7
5, 6
8, 8
6, 6
5, 3
6, 9
6, 7
12, 10
23, 21
31, 26
47, 39
55, 69
70, 66
72, 80
85, 72
86, 70
64, 74
40, 63
42, 40
41, 48
34, 49
34, 39
21, 29
25, 31
19, 16
16, 22
18, 10
9, 10
14, 9
8, 9
8, 10
3, 3
4, 4
1, 3
4, 4
2, 2
5, 1
2, 4
4, 4
4, 2
3, 2
4, 2
4, 3
7, 4
15, 2
9, 3
12, 2
17, 4
17, 3
24, 4
26, 7
40, 16
40, 38
70, 45
97, 81
119, 111
152, 112
169, 120
135, 136
130, 119
114, 90
60, 52
44, 48
28, 36
16, 20
12, 7
12, 6
11, 11
12, 12
15, 14
27, 23
21, 25
21, 20
17, 19
21, 16
9, 11
8, 3
9, 2
5, 6
4, 7
7, 4
3, 2
4, 3
3, 4
7, 3
5, 5
7, 3
4, 8
7, 8
11, 11
13, 15
8, 18
19, 18
11, 13
18, 17
15, 23
18, 18
16, 24
11, 9
11, 14
19, 16
14, 14
13, 10
8, 7
3, 8
4, 5
5, 7
2, 6
7, 5
7, 3
8, 7
9, 9
6, 6
4, 4
8, 8
3, 7
5, 3
6, 4
4, 6
5, 4
2, 8
11, 10
8, 8
12, 7
12, 18
20, 26
25, 35
36, 42
41, 58
39, 54
50, 63
42, 52
45, 46
27, 53
35, 53
26, 30
18, 20
16, 19
12, 11
16, 9
12, 9
11, 5
10, 10
13, 15
15, 18
21, 22
29, 23
33, 36
46, 57
60, 54
67, 68
73, 78
74, 54
63, 48
34, 26
42, 43
27, 26
24, 18
20, 19
10, 18
19, 23
29, 28
51, 56
95, 86
141, 166
274, 321
456, 565
776, 822
1188, 1247
1612, 1619
2030, 2060
2313, 2245
2474, 2213
2412, 2148
2128, 1814
1729, 1415
1359, 1033
952, 698
586, 449
369, 293
194, 155
121, 96
63, 62
42, 40
24, 31
25, 25
21, 15
46, 10
28, 21
44, 16
75, 31
96, 39
106, 59
149, 63
198, 130
236, 160
306, 240
348, 260
359, 278
391, 337
414, 346
359, 302
334, 251
304, 181
209, 151
139, 103
93, 70
49, 37
34, 19
18, 10
12, 6
16, 5
9, 5
12, 11
11, 11
20, 9
16, 9
13, 11
15, 15
15, 13
6, 10
13, 13
8, 18
12, 7
3, 9
4, 5
6, 3
3, 9
5, 7
7, 5
2, 3
9, 3
5, 4
4, 1
7, 4
11, 6
6, 2
9, 2
4, 3
11, 6
9, 5
3, 4
7, 7
8, 3
6, 4
3, 7
8, 4
7, 4
4, 5
5, 3
8, 2
5, 3
5, 7
3, 5
7, 7
7, 5
3, 1
7, 2
5, 3
6, 1
4, 9
2, 5
3, 5
3, 3
5, 3
8, 4
8, 5
6, 6
2, 7
4, 5
5, 7
5, 6
1, 10
4, 3
8, 2
6, 2
8, 5
3, 2
5, 9
4, 5
4, 5
2, 0
1, 3
3, 1
6, 4
2, 2
3, 1
3, 2
2, 2
2, 2
2, 3
3, 6
3, 4
1, 1
3, 2
4, 3
4, 3
4, 2
6, 2
5, 3
10, 3
6, 2
5, 4
3, 2
10, 4
9, 4
10, 3
12, 4
7, 2
7, 0
8, 2
4, 5
5, 3
4, 4
4, 6
4, 2
2, 4
4, 5
1, 6
2, 3
5, 2
5, 4
2, 3
3, 6
5, 5
7, 2
4, 4
2, 2
3, 8
1, 1
4, 6
5, 1
3, 3
2, 3
3, 1
1, 1
4, 6
3, 2
12, 4
8, 8
10, 2
5, 7
11, 5
7, 3
7, 6
8, 3
10, 5
7, 5
18, 1
15, 1
10, 3
7, 4
4, 1
7, 3
7, 4
9, 6
8, 3
5, 5
6, 3
4, 3
2, 6
5, 3
5, 6
1, 5
2, 4
5, 5
3, 5
5, 2
3, 4
3, 2
1, 1
1, 5
4, 3
2, 1
2, 1
2, 3
6, 5
2, 1
1, 0
6, 1
2, 3
1, 3
1, 1
5, 2
5, 3
3, 2
3, 2
1, 3
7, 0
1, 2
2, 2
2, 2
2, 2
3, 4
1, 0
2, 4
2, 0
2, 1
2, 1
2, 0
1, 2
3, 3
2, 2
1, 5
0, 0
1, 2
2, 3
0, 1
1, 1
0, 0
0, 3
1, 3
1, 1
1, 1
0, 1
0, 2
1, 2
1, 0
1, 1
2, 1
2, 3
1, 2
6, 2
2, 1
3, 3
4, 1
2, 1
1, 0
2, 6
2, 7
2, 0
1, 3
3, 0
1, 3
2, 0
1, 3
5, 4
3, 4
3, 5
5, 1
5, 2
6, 3
3, 9
2, 3
3, 5
5, 0
0, 7
3, 0
4, 6
0, 2
2, 2
1, 2
1, 3
1, 1
0, 3
0, 1
2, 4
2, 0
1, 2
1, 1
2, 1
2, 1
1, 2
2, 2
5, 1
1, 0
2, 4
3, 0
1, 0
6, 2
1, 0
3, 2
1, 1
0, 1
1, 4
1, 1
3, 0
1, 2
0, 1
4, 1
1, 0
3, 1
0, 0
2, 3
1, 2
1, 3
0, 1
1, 0
3, 0
1, 1
3, 0
2, 0
1, 2
0, 0
2, 1
1, 0
1, 2
1, 0
0, 0
1, 1
0, 0
1, 1
1, 0
1, 0
0, 0
1, 1
1, 0
0, 2
1, 1
1, 0
2, 1
1, 0
1, 1
0, 1
1, 1
2, 1
2, 0
0, 2
2, 0
1, 0
6, 0
0, 0
1, 0
3, 1
1, 0
1, 1
2, 1
0, 1
1, 1
1, 0
2, 1
2, 1
1, 0
0, 2
0, 0
1, 1
3, 0
0, 0
0, 1
1, 0
1, 1
0, 0
0, 0
1, 1
1, 1
1, 1
1, 0
1, 0
2, 0
0, 0
0, 1
0, 1
1, 1
0, 0
1, 0
2, 0
0, 0
0, 2
2, 0
1, 1
1, 2
1, 1
0, 1
0, 1
0, 1
1, 0
1, 0
0, 1
0, 1
2, 0
1, 0
0, 1
1, 1
1, 1
1, 2
0, 0
2, 2
1, 1
0, 0
0, 0
1, 0
0, 0
0, 0
1, 2
0, 0
0, 0
0, 1
0, 0
0, 1
0, 1
2, 0
2, 2
0, 1
0, 1
0, 0
0, 0
0, 0
0, 0
0, 2
0, 0
1, 0
0, 0
2, 2
1, 0
0, 1
0, 0
0, 0
0, 0
0, 0
0, 0
0, 2
0, 0
1, 0
0, 0
0, 1
0, 0
1, 0
0, 0
1, 0
0, 0
1, 1
0, 1
0, 0
2, 0
0, 0
0, 1
0, 0
0, 1
1, 0
0, 0
0, 0
0, 0
0, 1
0, 0
0, 1
0, 0
0, 0
0, 1
1, 0
0, 1
0, 0
1, 1
0, 0
0, 0
0, 1
0, 1
1, 1
0, 0
0, 0
0, 0
1, 1
0, 0
0, 0
0, 0
0, 0
1, 0
0, 0
0, 0
0, 2
0, 0
0, 0
0, 0
0, 0
0, 0
0, 0
0, 0
0, 0
0, 0
1, 0
0, 0
0, 0
0, 0
2, 1
0, 1
0, 0
1, 0
0, 0
0, 0
0, 0
0, 0
0, 0
1, 0
1, 0
0, 1
1, 0
0, 0
1, 0
0, 0
0, 0
0, 0
0, 0
0, 0
0, 1
0, 1
0, 0
0, 0
0, 1
0, 1
0, 0
0, 0
0, 2
0, 0
1, 0
0, 0
1, 1
1, 0
1, 0
0, 1
0, 0
2, 0
0, 0
0, 0
0, 0
0, 1
1, 0
0, 2
2, 0
0, 1
0, 0
1, 1
0, 0
0, 0
1, 0
0, 0
1, 0
0, 0
0, 0
0, 0
0, 0
0, 1
0, 0
0, 0
0, 0
0, 0
0, 0
1, 0
0, 0
1, 0
0, 0
0, 0
0, 0
1, 0
0, 0
0, 0
0, 0
0, 0
0, 0
1, 0
0, 0
0, 0
1, 0
0, 1
1, 1
1, 0
0, 0
2, 0
1, 0
0, 0
0, 0
0, 0
0, 0
0, 0
0, 0
1, 0
0, 0
1, 0
0, 1
0, 0
0, 0
0, 0
0, 0
0, 0
0, 0
0, 0
0, 0
0, 0
0, 0
1, 0
0, 0
0, 0
0, 0
0, 0
0, 0
0, 2
0, 0
0, 2
0, 0
0, 0
0, 0
0, 0
0, 0
0, 0
0, 0
1, 0
0, 0
1, 0
0, 0
0, 0
0, 0
1, 0
0, 0
0, 0
0, 0
0, 0
0, 0
1, 0
0, 0
0, 0
0, 0
0, 0
0, 0
0, 0
0, 0
0, 0
0, 0
0, 0
0, 0
1, 0
0, 0
0, 0
0, 0
0, 0
0, 0
0, 0
0, 0
0, 0
0, 0
0, 0
0, 0
0, 0
0, 0
0, 0
0, 0
0, 0
0, 0
0, 0
0, 0
0, 1
0, 0
0, 0
0, 0
0, 0
0, 0
0, 0
1, 0
0, 0
0, 0
0, 1
0, 0
0, 0
0, 0
0, 0
0, 0
0, 0
0, 0
0, 0
0, 1
0, 0
0, 0
0, 0
0, 0
1, 0
0, 0
0, 0
0, 0
0, 0
0, 0
0, 0
0, 0
0, 0
0, 0
0, 0
0, 0
0, 0
0, 0
0, 0
0, 0
0, 0
0, 0
0, 0
0, 0
0, 0
0, 0
0, 0
0, 0
0, 0
0, 0
0, 0
0, 0
0, 0
0, 0
0, 0
0, 0
0, 0
0, 0
0, 0
0, 0
0, 0
0, 0
0, 0
0, 0
0, 0
0, 0
0, 0
0, 0
0, 0
0, 0
0, 0
0, 0
0, 0
0, 0
0, 0
0, 0
0, 0
0, 0
0, 0
0, 0
0, 0
0, 0
0, 0
0, 0
0, 0
0, 0
0, 0
0, 0
0, 0
0, 0
0, 0
0, 0
0, 0
0, 0
0, 0
0, 0
0, 0
0, 0
0, 0
0, 0
0, 0
0, 0
0, 0
0, 0
0, 0
0, 0
0, 0
0, 0
0, 0
0, 0
0, 0
0, 0
0, 0
0, 0
0, 0
0, 0
0, 0
0, 0
0, 0
0, 0
0, 0
0, 0
0, 0
0, 0
0, 0
0, 0
0, 0
0, 0
0, 0
0, 0
0, 0
0, 0
0, 0
0, 0
0, 0
0, 0
0, 0
0, 0
0, 0
0, 0
0, 0
0, 0
1, 0
0, 0
0, 0
0, 0
0, 0
0, 0
0, 0
0, 0
0, 0
0, 0
0, 0
0, 0
0, 0
0, 0
0, 0
0, 0
0, 0
0, 0
0, 0
0, 0
0, 0
0, 0
0, 0
0, 0
0, 0
0, 0
0, 0
0, 0
0, 0
0, 0
0, 0
0, 0
0, 0
0, 0
0, 0
0, 0
0, 0
0, 0
0, 0
0, 0
0, 0
0, 0
0, 0
0, 0
0, 0
0, 0
0, 0
0, 0
0, 0
0, 0
0, 0
0, 0
0, 0
0, 0
0, 0
0, 0
0, 0
0, 0
0, 0
0, 0
0, 0
0, 0
0, 0
0, 0
0, 0
0, 0
0, 0
0, 0
0, 0
0, 0
0, 0
0, 0
0, 0
0, 0
0, 0
0, 0
0, 0
0, 0
0, 0
0, 0
0, 0
0, 0
0, 0
0, 0
0, 0
0, 0
0, 0
0, 0
0, 0
0, 0
0, 0
0, 0
0, 0
0, 0
0, 0
0, 0
0, 0
0, 0
0, 0
0, 0
0, 0
0, 0
0, 0
0, 0
0, 0
0, 0
0, 0
0, 0
0, 0
0, 0
0, 0
0, 0
0, 0
0, 0
0, 0
0, 0
0, 0
0, 0
0, 0
0, 0
0, 0
0, 0
0, 0
0, 0
0, 0
0, 0
0, 0
0, 0
0, 0
0, 0
0, 0
0, 0
0, 0
0, 0
0, 0
0, 0
0, 0
0, 0
0, 0
0, 0
0, 0
0, 0
0, 0
0, 0
0, 0
0, 0
0, 0
0, 0
0, 0
0, 0
0, 0
0, 0
0, 0
0, 0
0, 0
0, 0
0, 0
0, 0
0, 0
0, 0
0, 0
0, 0
0, 0
0, 0
0, 0
0, 0
0, 0
0, 0
0, 0
0, 0
0, 0
0, 0
0, 0
0, 0
0, 0
0, 0
0, 0
0, 0
0, 0
0, 0
0, 0
0, 0
0, 0
0, 0
0, 0
0, 0
0, 0
0, 0
0, 0
0, 0
0, 0
0, 0
0, 0
0, 0
0, 0
0, 0
0, 0
0, 0
0, 0
0, 0
0, 0
0, 0
0, 0
0, 0
0, 0
0, 0
0, 0
0, 0
0, 0
0, 0
0, 0
0, 0
0, 0
0, 0
0, 0
0, 0
0, 0
0, 0
0, 0
0, 0
0, 0
0, 0
0, 0
0, 0
0, 0
0, 0
0, 0
0, 0
0, 0
0, 0
0, 0
0, 0
0, 0
0, 0
0, 0
0, 0
0, 0
0, 0
0, 0
0, 0
0, 0
0, 0
0, 0
0, 0
0, 0
0, 0
0, 0
0, 0
0, 0
0, 0
0, 0
0, 0
0, 0
0, 0
0, 0
0, 0
0, 0
0, 0
0, 0
0, 0
0, 0
0, 0
0, 0
0, 0
0, 0
0, 0
0, 0
0, 0
0, 0
0, 0
0, 0
0, 0
0, 0
0, 0
0, 0
0, 0
0, 0
0, 0
0, 0
0, 0
0, 0
0, 0
0, 0
0, 0
0, 0
0, 0
0, 0
#ENDOFDATA     end of spectrum data