File: host_upload/06-09-2024/ps_0852/dump3/ps__0852shot_2442.msa
#FORMAT      : EMSA/MAS spectral data file
#VERSION     : TC202v2.0 PIXL
#TITLE       : N/A
#DATE        :       Date in the format DD-MMM-YYYY, for example 07-JUL-2010
#TIME        :             The time of day at which the spectrum was recorded, in 24-hour format
#OWNER       : PIXL Flight Model       (PIXL will use this to indicate which instrument took the data.)
#NPOINTS     : 4096     Number of data points in the spectrum (This can be zero for configuration only files)
#NCOLUMNS    : 2     Number of data columns in the spectrum (This can be zero for configuration only files)
#XUNITS      : eV
#YUNITS      : COUNTS
#DATATYPE    : YY
#XPERCHAN    : 7.862, 7.881   eV per channel (separate by commas if more than one detector)
#OFFSET      : 18.5, -22.4         eV of first channel  (separate by commas if more than one detector
#SIGNALTYPE  : XRF
#YP_TEMP     : 2.524
#LIVETIME    : 8.54114, 8.55087   seconds (separate by commas if more than one detector)
#REALTIME    : 10, 10.0   seconds (separate by commas if more than one detector)
#SPECTRUM    : start of spectrum data
0, 0
0, 0
0, 0
0, 0
0, 0
0, 0
0, 0
0, 0
0, 0
0, 0
0, 0
0, 0
0, 0
0, 0
0, 0
0, 0
0, 0
0, 0
0, 0
0, 0
0, 0
0, 0
0, 0
0, 0
0, 0
0, 0
0, 0
0, 0
0, 0
0, 0
0, 0
0, 0
0, 0
0, 1
0, 0
1, 3
1, 3
1, 7
0, 9
0, 18
0, 27
1, 24
1, 28
0, 23
3, 15
0, 9
1, 4
2, 9
4, 6
14, 11
15, 31
48, 42
56, 47
66, 75
77, 72
87, 93
68, 78
52, 48
31, 20
21, 14
9, 12
2, 6
4, 1
1, 2
5, 4
3, 9
6, 14
9, 8
26, 20
43, 67
90, 106
166, 177
243, 293
365, 373
429, 426
399, 442
356, 405
299, 314
214, 181
116, 136
72, 70
33, 37
22, 22
12, 9
2, 6
2, 3
0, 4
2, 1
2, 4
0, 2
4, 1
0, 4
2, 2
3, 2
1, 0
1, 4
3, 1
2, 3
1, 3
4, 3
1, 4
7, 5
3, 5
0, 3
2, 7
6, 9
5, 26
7, 39
14, 102
16, 195
13, 419
28, 731
34, 1027
41, 1406
49, 1736
50, 1881
41, 1749
44, 1448
26, 1051
36, 613
23, 396
27, 204
15, 91
21, 64
15, 26
13, 15
15, 9
8, 18
6, 7
10, 4
4, 3
3, 2
2, 5
4, 0
3, 3
0, 1
0, 4
3, 0
3, 1
0, 0
1, 0
2, 1
3, 1
2, 1
4, 2
4, 3
0, 0
1, 1
4, 3
3, 1
5, 3
4, 5
4, 4
5, 9
7, 7
12, 8
13, 11
11, 18
15, 21
6, 20
10, 16
8, 11
9, 5
2, 4
2, 15
4, 5
3, 8
8, 20
4, 18
9, 19
8, 27
4, 18
7, 26
8, 17
6, 17
6, 9
10, 6
4, 5
5, 4
3, 3
2, 3
3, 6
1, 5
5, 5
4, 6
3, 4
6, 5
4, 4
7, 5
1, 8
4, 4
7, 9
5, 15
7, 13
9, 6
14, 18
9, 9
11, 11
14, 25
11, 21
13, 15
17, 19
10, 12
6, 11
7, 4
10, 7
4, 6
2, 8
3, 11
4, 5
3, 4
5, 4
5, 4
7, 7
4, 9
8, 5
3, 7
1, 5
4, 7
8, 3
6, 4
10, 10
9, 5
3, 8
8, 10
6, 9
14, 14
8, 12
11, 13
8, 11
11, 12
15, 12
15, 19
11, 14
13, 11
5, 7
6, 8
9, 5
8, 5
7, 2
6, 8
4, 6
5, 4
12, 7
16, 12
15, 20
21, 27
30, 33
42, 58
43, 59
58, 55
63, 46
53, 59
55, 50
33, 32
29, 43
19, 15
26, 17
16, 14
10, 25
14, 17
37, 20
46, 54
77, 87
159, 214
272, 370
447, 580
722, 906
1110, 1337
1533, 1810
1884, 2200
2202, 2406
2382, 2533
2336, 2263
2107, 2007
1743, 1599
1350, 1156
905, 753
551, 511
323, 257
195, 148
92, 86
62, 61
32, 30
20, 35
28, 36
12, 31
19, 29
17, 28
18, 29
18, 32
35, 38
42, 52
77, 99
91, 105
140, 166
219, 257
273, 301
324, 353
319, 385
362, 399
340, 326
321, 247
218, 233
172, 167
131, 98
90, 62
52, 40
28, 17
21, 21
10, 13
11, 12
4, 8
4, 13
10, 11
7, 11
8, 14
12, 15
10, 13
14, 14
6, 12
6, 15
8, 7
4, 11
7, 7
6, 2
4, 1
2, 5
2, 1
3, 3
6, 5
4, 1
2, 0
4, 3
1, 8
8, 5
4, 6
4, 4
8, 1
13, 3
11, 4
12, 5
12, 3
22, 2
23, 6
16, 6
13, 5
14, 3
8, 4
7, 7
11, 6
2, 4
10, 6
7, 5
3, 5
5, 5
4, 6
6, 4
4, 4
3, 2
1, 2
5, 2
2, 5
4, 5
5, 3
3, 3
0, 7
5, 2
3, 4
3, 1
3, 2
5, 5
0, 5
5, 4
4, 1
9, 0
3, 3
4, 2
1, 6
2, 6
2, 3
4, 7
5, 1
3, 7
3, 6
3, 8
3, 7
4, 6
1, 5
4, 10
4, 3
6, 3
4, 1
4, 3
6, 5
2, 2
8, 4
5, 1
8, 4
6, 7
1, 4
3, 5
9, 10
4, 8
4, 2
3, 2
1, 8
3, 5
2, 6
4, 2
2, 5
4, 3
1, 2
1, 2
1, 2
3, 1
6, 3
3, 3
0, 5
4, 1
1, 2
0, 6
2, 1
1, 0
2, 4
2, 2
1, 0
1, 0
7, 1
1, 6
0, 1
3, 0
3, 2
3, 5
3, 2
2, 2
1, 5
5, 5
2, 2
2, 4
2, 2
2, 2
7, 2
3, 0
1, 3
2, 3
2, 4
5, 4
6, 2
2, 0
4, 1
3, 2
5, 3
4, 3
2, 4
5, 7
9, 5
2, 9
9, 6
1, 7
6, 8
5, 6
1, 9
3, 7
1, 1
2, 4
5, 7
1, 4
4, 5
0, 1
2, 2
2, 1
3, 1
2, 3
4, 1
2, 3
3, 2
1, 0
2, 2
4, 1
2, 2
2, 3
1, 4
0, 3
2, 2
3, 2
2, 1
1, 2
0, 2
1, 5
2, 3
2, 2
1, 4
2, 2
0, 1
4, 2
3, 2
1, 2
1, 0
2, 1
2, 4
0, 1
2, 6
2, 1
3, 3
0, 2
2, 0
2, 5
1, 1
3, 0
2, 1
4, 2
3, 1
0, 1
4, 4
1, 2
3, 3
3, 1
1, 1
0, 1
1, 2
2, 1
2, 2
2, 4
1, 3
1, 2
0, 0
1, 3
3, 1
2, 0
1, 2
3, 3
2, 3
2, 3
1, 3
1, 2
2, 4
0, 1
3, 1
2, 1
5, 6
1, 5
3, 1
8, 5
8, 6
3, 2
4, 3
3, 1
1, 1
0, 3
1, 2
0, 1
2, 4
2, 2
1, 1
0, 2
1, 2
2, 1
2, 0
0, 0
2, 0
0, 2
2, 0
0, 1
2, 1
3, 4
2, 7
1, 0
5, 3
4, 4
3, 5
3, 1
2, 2
2, 0
1, 3
2, 3
0, 1
1, 2
3, 2
3, 0
1, 1
1, 0
0, 1
0, 3
1, 0
2, 0
1, 0
3, 2
0, 0
3, 0
2, 0
2, 0
2, 1
1, 2
0, 0
1, 2
0, 1
0, 2
0, 3
1, 1
1, 0
1, 1
1, 1
0, 0
0, 1
0, 0
1, 1
0, 0
0, 0
0, 1
2, 0
0, 1
2, 1
1, 1
1, 1
1, 1
1, 1
0, 1
0, 1
2, 0
1, 1
1, 1
2, 1
1, 1
2, 0
2, 0
0, 2
1, 0
1, 1
1, 1
1, 0
2, 0
1, 0
0, 0
1, 3
1, 3
0, 0
0, 0
0, 1
2, 0
2, 0
1, 1
0, 1
1, 0
0, 1
0, 1
0, 1
0, 2
0, 0
0, 1
0, 0
0, 0
0, 0
0, 0
0, 1
0, 1
0, 0
1, 0
0, 0
0, 0
1, 1
0, 1
0, 0
1, 0
0, 0
0, 1
0, 0
0, 1
0, 1
0, 1
0, 3
0, 0
0, 0
0, 3
1, 0
1, 0
0, 1
0, 1
0, 0
0, 0
0, 1
1, 2
0, 0
0, 0
1, 0
0, 1
0, 0
2, 0
2, 1
0, 0
0, 1
1, 0
1, 0
0, 1
0, 1
0, 0
1, 0
0, 0
0, 2
0, 0
0, 0
0, 3
0, 0
0, 0
0, 2
0, 3
1, 0
0, 0
0, 1
0, 2
0, 0
0, 1
0, 0
0, 0
2, 0
0, 1
0, 0
0, 2
0, 1
0, 0
0, 0
1, 0
0, 1
0, 0
0, 0
0, 0
0, 0
0, 1
1, 0
1, 0
0, 2
0, 0
0, 1
0, 0
1, 0
2, 0
0, 0
0, 0
0, 1
0, 0
0, 0
1, 0
0, 0
1, 0
0, 0
0, 3
1, 0
1, 0
0, 1
1, 0
0, 0
0, 0
0, 0
0, 0
0, 0
1, 1
0, 0
1, 0
0, 1
0, 0
0, 0
0, 0
0, 2
0, 1
0, 0
1, 0
0, 0
1, 0
0, 0
0, 1
0, 0
0, 0
0, 0
0, 0
0, 0
2, 0
0, 0
0, 0
0, 0
0, 1
0, 0
0, 1
0, 0
1, 1
0, 1
0, 0
0, 0
0, 1
1, 0
0, 0
0, 0
0, 0
0, 0
0, 0
0, 0
0, 1
0, 0
0, 0
1, 0
0, 0
0, 0
0, 0
0, 0
0, 0
0, 1
0, 1
0, 0
0, 0
0, 0
0, 1
0, 0
0, 0
0, 1
0, 0
0, 1
0, 0
0, 0
0, 0
0, 0
0, 0
0, 0
0, 0
0, 0
0, 0
0, 0
0, 0
0, 0
0, 0
0, 0
0, 0
0, 0
0, 0
0, 0
0, 0
0, 0
0, 0
0, 0
0, 0
0, 0
0, 0
0, 0
0, 0
0, 0
0, 0
1, 0
0, 0
0, 0
0, 0
0, 1
0, 0
0, 0
0, 0
0, 1
0, 0
0, 0
0, 0
0, 0
0, 0
0, 0
0, 0
0, 0
0, 1
0, 0
0, 1
0, 0
1, 0
0, 0
1, 0
0, 0
0, 0
0, 0
0, 0
0, 0
0, 0
0, 0
0, 0
0, 0
1, 0
0, 0
0, 0
0, 0
0, 1
0, 0
0, 1
0, 0
0, 0
0, 0
0, 0
1, 0
0, 0
0, 0
0, 1
0, 0
0, 0
0, 0
0, 0
0, 0
0, 0
0, 1
0, 0
0, 0
0, 0
1, 0
0, 0
0, 0
0, 0
0, 0
0, 0
0, 0
0, 0
0, 0
0, 0
0, 0
0, 0
0, 0
0, 0
0, 0
0, 0
0, 0
0, 0
0, 0
0, 0
0, 1
0, 1
0, 0
0, 0
0, 0
0, 0
0, 0
0, 1
0, 0
0, 0
1, 0
0, 0
0, 0
0, 1
0, 0
0, 0
0, 0
0, 0
0, 0
0, 0
0, 0
0, 0
0, 0
0, 0
0, 0
1, 0
0, 0
0, 0
0, 0
0, 0
0, 0
0, 0
0, 0
0, 0
0, 0
0, 0
0, 0
0, 0
0, 0
0, 0
0, 0
0, 0
0, 0
0, 0
0, 0
0, 0
1, 0
0, 0
0, 0
0, 1
0, 0
1, 0
1, 0
0, 0
0, 0
0, 0
0, 0
0, 0
0, 0
0, 0
0, 0
0, 0
0, 0
0, 0
0, 0
0, 0
0, 0
0, 0
0, 0
0, 0
0, 0
0, 0
0, 0
0, 0
0, 0
0, 0
0, 0
0, 0
0, 0
0, 0
0, 0
0, 0
0, 0
0, 0
0, 0
0, 0
0, 0
0, 0
0, 0
0, 0
0, 0
0, 0
0, 0
0, 1
0, 0
0, 0
0, 0
0, 0
0, 0
0, 0
0, 0
0, 0
0, 0
0, 0
0, 0
0, 0
0, 0
0, 0
0, 0
0, 0
0, 0
0, 0
1, 0
0, 0
0, 0
0, 0
0, 0
0, 0
0, 0
0, 0
0, 0
0, 0
0, 0
0, 0
0, 0
0, 0
0, 0
0, 0
0, 0
0, 0
0, 0
0, 0
0, 0
0, 0
0, 0
0, 0
0, 0
0, 0
0, 0
0, 0
0, 0
0, 0
0, 0
0, 0
0, 0
0, 0
0, 0
0, 0
0, 0
0, 0
0, 0
0, 0
0, 0
0, 0
0, 0
0, 0
0, 0
0, 0
0, 0
0, 0
0, 0
0, 0
0, 0
0, 0
0, 0
0, 0
0, 0
0, 0
0, 0
0, 0
0, 0
0, 0
0, 0
0, 0
0, 0
0, 0
0, 0
0, 0
0, 0
0, 0
0, 0
0, 0
0, 0
0, 0
0, 0
0, 0
0, 0
0, 0
0, 0
0, 0
0, 0
0, 0
0, 0
0, 0
0, 0
0, 0
0, 0
0, 0
0, 0
0, 0
0, 0
0, 0
0, 0
0, 0
0, 0
0, 0
0, 0
0, 0
0, 0
0, 0
0, 0
0, 0
0, 0
0, 0
0, 0
0, 0
0, 0
0, 0
0, 0
0, 0
0, 0
0, 0
0, 0
0, 0
0, 0
0, 0
0, 0
0, 0
0, 0
0, 0
0, 0
0, 0
0, 0
0, 0
0, 0
0, 0
0, 0
0, 0
0, 0
0, 0
0, 0
0, 0
0, 0
0, 0
0, 0
0, 0
0, 0
0, 0
0, 0
0, 0
0, 0
0, 0
0, 0
0, 0
0, 0
0, 0
0, 0
0, 0
0, 0
0, 0
0, 0
0, 0
0, 0
0, 0
0, 0
0, 0
0, 0
0, 0
0, 0
0, 0
0, 0
0, 0
0, 0
0, 0
0, 0
0, 0
0, 0
0, 0
0, 0
0, 0
0, 0
0, 0
0, 0
0, 0
0, 0
0, 0
0, 0
0, 0
0, 0
0, 0
0, 0
0, 0
0, 0
0, 0
0, 0
0, 0
0, 0
0, 0
0, 0
0, 0
0, 0
0, 0
0, 0
0, 0
0, 0
0, 0
0, 0
0, 0
0, 0
0, 0
0, 0
0, 0
0, 0
0, 0
0, 0
0, 0
0, 0
0, 0
0, 0
0, 0
0, 0
0, 0
0, 0
0, 0
0, 0
0, 0
0, 0
0, 0
0, 0
0, 0
0, 0
0, 0
0, 0
0, 0
0, 0
0, 0
0, 0
0, 0
0, 0
0, 0
0, 0
0, 0
0, 0
0, 0
0, 0
0, 0
0, 0
0, 0
0, 0
0, 0
0, 0
0, 0
0, 0
0, 0
0, 0
0, 0
0, 0
0, 0
0, 0
0, 0
0, 0
0, 0
0, 0
0, 0
0, 0
0, 0
0, 0
0, 0
0, 0
0, 0
0, 0
0, 0
0, 0
0, 0
0, 0
0, 0
0, 0
0, 0
0, 0
0, 0
0, 0
0, 0
0, 0
0, 0
0, 0
0, 0
0, 0
0, 0
0, 0
0, 0
0, 0
0, 0
0, 0
0, 0
0, 0
0, 0
0, 0
0, 0
0, 0
0, 0
0, 0
0, 0
0, 0
0, 0
0, 0
0, 0
0, 0
0, 0
0, 0
0, 0
0, 0
0, 0
0, 0
0, 0
0, 0
0, 0
0, 0
0, 0
0, 0
0, 0
0, 0
0, 0
0, 0
0, 0
0, 0
0, 0
0, 0
0, 0
0, 0
0, 0
0, 0
0, 0
0, 0
0, 0
0, 0
0, 0
0, 0
0, 0
0, 0
0, 0
0, 0
0, 0
0, 0
0, 0
#ENDOFDATA     end of spectrum data