File: host_upload/06-09-2024/ps_0852/dump3/ps__0852shot_2368.msa
#FORMAT      : EMSA/MAS spectral data file
#VERSION     : TC202v2.0 PIXL
#TITLE       : N/A
#DATE        :       Date in the format DD-MMM-YYYY, for example 07-JUL-2010
#TIME        :             The time of day at which the spectrum was recorded, in 24-hour format
#OWNER       : PIXL Flight Model       (PIXL will use this to indicate which instrument took the data.)
#NPOINTS     : 4096     Number of data points in the spectrum (This can be zero for configuration only files)
#NCOLUMNS    : 2     Number of data columns in the spectrum (This can be zero for configuration only files)
#XUNITS      : eV
#YUNITS      : COUNTS
#DATATYPE    : YY
#XPERCHAN    : 7.862, 7.881   eV per channel (separate by commas if more than one detector)
#OFFSET      : 18.5, -22.4         eV of first channel  (separate by commas if more than one detector
#SIGNALTYPE  : XRF
#YP_TEMP     : 2.3
#LIVETIME    : 8.55416, 8.5575   seconds (separate by commas if more than one detector)
#REALTIME    : 10, 10.0   seconds (separate by commas if more than one detector)
#SPECTRUM    : start of spectrum data
0, 0
0, 0
0, 0
0, 0
0, 0
0, 0
0, 0
0, 0
0, 0
0, 0
0, 0
0, 0
0, 0
0, 0
0, 0
0, 0
0, 0
0, 0
0, 0
0, 0
0, 0
0, 0
0, 0
0, 0
0, 0
0, 0
0, 0
0, 0
0, 0
0, 0
0, 0
0, 0
0, 0
0, 0
0, 0
0, 0
2, 0
1, 2
3, 2
1, 1
4, 3
8, 2
3, 1
4, 2
2, 1
2, 3
1, 3
6, 3
8, 6
14, 10
23, 15
50, 34
58, 57
80, 66
84, 61
90, 69
80, 51
43, 40
27, 21
20, 12
7, 3
8, 6
3, 1
2, 6
4, 4
6, 3
4, 10
6, 6
28, 22
56, 55
116, 77
163, 170
302, 256
394, 367
439, 396
458, 401
387, 373
322, 270
194, 201
142, 98
87, 59
39, 29
25, 13
13, 12
6, 6
2, 2
1, 0
1, 1
1, 1
2, 0
1, 2
2, 1
0, 1
0, 1
2, 2
4, 2
8, 4
2, 7
3, 4
8, 5
6, 2
5, 4
5, 4
2, 2
3, 2
2, 0
8, 3
7, 9
11, 5
35, 23
46, 19
73, 26
106, 59
147, 58
165, 68
217, 83
239, 74
166, 77
126, 50
103, 51
73, 48
44, 51
31, 24
21, 26
17, 18
8, 21
17, 19
9, 12
12, 5
5, 8
6, 6
3, 3
3, 2
2, 2
2, 1
4, 1
1, 1
2, 4
2, 3
5, 2
2, 3
2, 1
3, 4
1, 4
2, 5
3, 3
1, 2
1, 1
2, 1
4, 2
2, 9
4, 2
10, 8
6, 13
12, 15
15, 23
18, 14
26, 18
22, 17
24, 15
25, 11
18, 8
13, 3
9, 7
6, 2
10, 3
3, 3
6, 4
4, 2
10, 7
8, 3
17, 4
21, 9
28, 3
43, 7
46, 4
47, 0
54, 2
42, 3
38, 3
30, 3
27, 5
33, 7
20, 6
13, 4
8, 0
10, 2
9, 6
11, 5
8, 9
10, 8
12, 14
7, 9
12, 10
12, 21
13, 18
6, 24
13, 39
26, 33
15, 52
11, 69
10, 83
16, 94
7, 116
7, 84
2, 91
2, 64
5, 46
4, 36
10, 33
6, 15
5, 14
7, 15
6, 11
5, 6
7, 9
9, 5
3, 7
4, 4
6, 8
6, 5
5, 13
9, 5
7, 14
10, 10
9, 17
13, 13
30, 14
28, 25
42, 23
33, 28
54, 29
45, 34
40, 27
53, 20
39, 21
59, 15
47, 13
53, 17
49, 7
38, 7
23, 6
32, 9
24, 8
21, 7
27, 23
32, 33
44, 38
47, 55
64, 68
67, 66
64, 62
76, 55
69, 64
51, 43
55, 31
35, 32
27, 24
20, 29
22, 31
27, 43
28, 54
51, 82
92, 139
150, 217
301, 369
459, 552
797, 897
1182, 1304
1672, 1836
2003, 2044
2348, 2302
2481, 2345
2428, 2248
2318, 1871
1799, 1581
1365, 1117
941, 750
646, 459
375, 289
186, 163
103, 95
52, 61
35, 28
25, 18
34, 17
34, 20
39, 18
50, 20
70, 20
88, 27
104, 22
121, 51
111, 84
144, 131
199, 166
220, 246
303, 249
311, 342
390, 368
345, 370
369, 331
335, 253
251, 214
226, 149
141, 104
104, 68
59, 40
30, 12
21, 10
15, 3
7, 6
6, 11
12, 10
13, 7
12, 17
12, 11
12, 12
24, 14
17, 9
12, 7
15, 16
5, 10
6, 6
7, 2
9, 5
6, 3
5, 5
2, 3
3, 3
3, 2
2, 3
4, 2
6, 6
5, 10
3, 5
5, 2
5, 5
3, 2
6, 5
5, 8
9, 7
8, 4
14, 2
23, 2
21, 4
19, 4
24, 10
51, 4
67, 4
71, 6
77, 3
80, 3
67, 4
68, 5
63, 6
56, 3
41, 8
31, 8
24, 6
14, 5
5, 9
10, 5
5, 5
6, 8
3, 3
4, 4
5, 7
7, 6
7, 4
5, 5
4, 2
3, 5
2, 3
5, 2
3, 5
3, 4
2, 5
0, 2
6, 7
3, 3
1, 2
5, 4
2, 2
4, 2
3, 0
3, 2
6, 3
4, 1
2, 2
2, 3
4, 5
5, 0
1, 5
4, 4
3, 2
4, 5
6, 3
3, 5
1, 9
0, 2
3, 6
3, 1
2, 2
2, 6
2, 7
9, 9
5, 3
3, 10
0, 8
6, 5
4, 7
5, 5
3, 5
2, 6
3, 4
1, 3
3, 5
2, 5
7, 1
4, 4
3, 5
3, 4
1, 5
4, 7
6, 8
2, 2
1, 1
5, 3
1, 3
2, 6
4, 7
5, 3
2, 6
4, 2
1, 3
6, 2
4, 5
4, 5
1, 4
4, 2
2, 2
5, 3
0, 4
3, 3
0, 3
2, 3
3, 2
3, 2
2, 5
1, 2
4, 0
1, 2
3, 3
1, 1
4, 3
1, 4
4, 4
2, 7
2, 2
4, 3
4, 7
2, 6
4, 5
6, 3
7, 1
5, 4
3, 4
9, 7
7, 4
3, 2
5, 1
8, 6
3, 1
6, 2
6, 5
6, 2
4, 4
3, 1
2, 4
5, 3
6, 1
4, 2
1, 0
5, 2
2, 3
3, 2
3, 1
2, 1
2, 1
0, 4
4, 1
2, 0
0, 1
0, 1
3, 0
2, 1
0, 1
2, 0
2, 1
2, 2
0, 1
1, 2
0, 3
4, 1
0, 3
3, 1
1, 6
2, 0
4, 2
4, 2
4, 1
2, 2
5, 1
2, 2
2, 1
1, 1
0, 4
1, 1
3, 1
0, 0
3, 1
3, 1
1, 1
1, 1
2, 2
3, 4
3, 4
5, 3
5, 2
2, 2
8, 1
0, 2
4, 1
1, 1
4, 4
5, 2
7, 2
2, 5
1, 6
6, 3
3, 5
1, 2
5, 2
3, 6
2, 2
6, 3
2, 3
3, 5
5, 4
2, 3
2, 3
2, 2
1, 6
1, 5
3, 0
2, 1
3, 5
0, 3
2, 2
2, 2
3, 1
5, 1
0, 0
3, 2
1, 2
1, 2
4, 2
1, 1
2, 2
2, 0
3, 2
0, 2
1, 2
1, 2
1, 1
4, 1
1, 3
0, 0
0, 2
2, 0
2, 0
5, 0
1, 1
1, 0
5, 1
2, 1
3, 1
3, 1
0, 1
1, 1
0, 1
3, 0
2, 0
2, 1
0, 1
4, 1
1, 2
2, 1
1, 1
1, 1
2, 0
3, 2
0, 1
2, 1
0, 0
0, 0
2, 2
0, 0
1, 1
0, 1
0, 0
0, 1
1, 0
2, 1
0, 1
2, 0
2, 2
1, 1
0, 1
1, 1
0, 1
1, 1
2, 1
0, 0
2, 0
1, 0
0, 1
1, 0
1, 0
2, 0
1, 1
1, 1
1, 1
0, 1
0, 0
0, 1
2, 0
2, 0
0, 1
0, 0
1, 0
1, 1
3, 0
1, 0
2, 1
1, 2
1, 1
0, 0
3, 1
0, 0
0, 0
2, 1
1, 0
1, 1
2, 0
0, 0
1, 0
1, 0
1, 0
3, 0
1, 1
2, 0
1, 0
0, 1
0, 0
0, 1
0, 1
0, 0
1, 0
0, 1
1, 0
1, 0
0, 0
0, 1
0, 0
0, 1
1, 0
0, 0
0, 0
0, 0
1, 0
1, 0
1, 0
1, 1
2, 0
0, 1
0, 0
0, 0
1, 0
1, 1
0, 0
0, 0
0, 0
0, 1
1, 0
0, 0
0, 0
0, 0
2, 0
0, 0
1, 0
0, 0
0, 0
2, 0
1, 2
0, 1
1, 0
0, 1
1, 0
0, 0
0, 0
0, 0
0, 1
0, 0
0, 1
0, 0
1, 0
0, 0
0, 0
1, 0
0, 0
1, 2
1, 0
0, 0
0, 1
0, 1
0, 1
0, 0
0, 0
1, 0
0, 0
0, 0
0, 0
0, 0
0, 0
0, 0
1, 0
0, 0
1, 0
0, 1
1, 0
1, 0
0, 0
0, 1
0, 0
2, 1
0, 1
0, 0
0, 1
0, 1
1, 0
1, 2
0, 0
1, 0
1, 1
0, 0
0, 1
0, 0
0, 0
0, 0
0, 0
0, 0
0, 0
0, 0
0, 0
0, 0
0, 0
1, 0
0, 0
0, 0
0, 0
1, 0
0, 0
1, 1
0, 1
1, 0
0, 0
0, 0
0, 0
1, 1
0, 0
0, 1
0, 0
1, 0
1, 0
0, 1
0, 1
1, 2
1, 0
0, 0
0, 0
0, 1
0, 1
0, 0
0, 0
0, 0
2, 0
1, 0
1, 0
0, 0
1, 0
0, 0
0, 0
0, 1
0, 0
0, 1
1, 0
0, 0
0, 0
0, 0
0, 0
0, 0
0, 1
0, 0
0, 0
0, 0
0, 0
0, 0
0, 0
0, 0
0, 0
0, 0
0, 0
1, 0
0, 0
0, 0
0, 0
1, 0
0, 0
1, 0
0, 0
0, 0
0, 1
0, 1
1, 1
0, 1
0, 0
0, 0
0, 0
0, 0
0, 0
0, 0
0, 0
0, 0
0, 0
0, 0
0, 0
0, 0
0, 0
0, 0
0, 0
0, 0
0, 0
0, 0
0, 0
0, 0
0, 1
0, 0
0, 0
0, 1
0, 0
0, 0
0, 0
1, 0
0, 0
1, 0
0, 0
0, 0
0, 0
0, 1
0, 1
0, 0
0, 0
1, 0
0, 0
0, 0
0, 0
0, 0
0, 0
1, 0
0, 0
0, 0
0, 0
1, 0
0, 0
0, 0
0, 0
0, 0
0, 0
0, 0
0, 0
0, 0
0, 0
0, 0
0, 0
0, 0
0, 0
0, 1
0, 0
0, 0
0, 1
0, 1
0, 0
0, 0
0, 0
0, 0
0, 0
1, 0
0, 0
0, 0
0, 0
0, 0
0, 0
0, 0
0, 0
0, 0
0, 0
0, 0
0, 0
0, 0
0, 0
1, 0
0, 0
0, 0
0, 1
1, 0
0, 0
0, 0
0, 0
0, 0
0, 0
0, 0
0, 0
0, 0
1, 0
0, 0
0, 0
1, 0
0, 0
0, 0
0, 0
1, 0
0, 0
0, 0
0, 0
0, 0
0, 0
0, 0
0, 0
0, 0
0, 0
0, 0
0, 0
0, 0
0, 0
0, 0
0, 1
0, 0
0, 0
0, 0
0, 0
0, 0
0, 0
0, 0
0, 0
0, 0
0, 0
0, 0
0, 0
0, 0
0, 0
0, 0
0, 0
0, 0
0, 0
0, 1
0, 0
0, 0
0, 0
0, 0
0, 0
0, 0
0, 0
0, 0
0, 0
0, 0
1, 0
0, 0
0, 0
0, 0
0, 0
0, 0
0, 0
0, 0
0, 0
0, 0
0, 0
0, 0
0, 0
0, 0
0, 0
0, 0
0, 0
0, 0
0, 1
0, 0
0, 0
0, 0
0, 0
0, 0
0, 0
0, 0
0, 0
0, 0
0, 0
0, 0
0, 0
0, 0
0, 0
0, 0
0, 0
0, 0
0, 0
0, 0
0, 0
0, 0
0, 0
0, 0
0, 0
0, 0
0, 0
0, 0
0, 0
0, 0
0, 0
0, 0
0, 0
0, 0
0, 0
0, 0
0, 0
0, 0
0, 0
0, 0
0, 0
0, 0
0, 0
0, 0
0, 0
0, 0
0, 0
0, 0
0, 0
0, 0
0, 0
0, 0
0, 0
0, 0
0, 0
0, 0
0, 0
0, 0
0, 0
0, 0
0, 0
0, 0
0, 0
0, 0
0, 0
0, 0
0, 0
0, 0
0, 0
0, 0
0, 0
0, 0
0, 0
0, 0
0, 0
0, 0
0, 0
0, 0
0, 0
0, 0
0, 0
0, 0
0, 0
0, 0
0, 0
0, 0
0, 0
0, 0
0, 0
0, 0
0, 0
0, 0
0, 0
0, 0
0, 0
0, 0
0, 0
0, 0
0, 0
0, 0
0, 0
0, 0
0, 0
0, 0
0, 0
0, 0
0, 0
0, 0
0, 0
0, 0
0, 0
0, 0
0, 0
0, 0
0, 0
0, 0
0, 0
0, 0
0, 0
0, 0
0, 0
0, 0
0, 0
0, 0
0, 0
0, 0
0, 0
0, 0
0, 0
0, 0
0, 0
0, 0
0, 0
0, 0
0, 0
0, 0
0, 0
0, 0
0, 0
0, 0
0, 0
0, 0
0, 0
0, 0
0, 0
0, 0
0, 0
0, 0
0, 0
0, 0
1, 0
0, 0
0, 0
0, 0
0, 0
0, 0
0, 0
0, 0
0, 0
0, 0
0, 0
0, 0
0, 0
0, 0
0, 0
0, 0
0, 0
0, 0
0, 0
0, 0
0, 0
0, 0
0, 0
0, 0
0, 0
0, 0
0, 0
0, 0
0, 0
0, 0
0, 0
0, 0
0, 0
0, 0
0, 0
0, 0
0, 0
0, 0
0, 0
0, 0
0, 0
0, 0
0, 0
0, 0
0, 0
0, 0
0, 0
1, 0
0, 0
0, 0
0, 0
0, 0
0, 0
0, 0
0, 0
0, 0
0, 0
0, 0
0, 0
0, 0
0, 0
0, 0
0, 0
0, 0
0, 0
0, 0
0, 0
0, 0
0, 0
0, 0
0, 0
0, 0
0, 0
0, 0
0, 0
0, 0
0, 0
0, 0
0, 0
0, 0
0, 0
0, 0
0, 0
0, 0
0, 0
0, 0
0, 0
0, 0
0, 0
0, 0
0, 0
0, 0
0, 0
0, 0
0, 0
0, 0
0, 0
0, 0
0, 0
0, 0
0, 0
0, 0
0, 0
0, 0
0, 0
0, 0
0, 0
0, 0
0, 0
0, 0
0, 0
0, 0
0, 0
0, 0
0, 0
0, 0
0, 0
0, 0
0, 0
0, 0
0, 0
0, 0
0, 0
0, 0
0, 0
0, 0
0, 0
0, 0
0, 0
0, 0
0, 0
0, 0
0, 0
0, 0
0, 0
0, 0
0, 0
0, 0
0, 0
0, 0
0, 0
0, 0
0, 0
0, 0
0, 0
0, 0
0, 0
0, 0
0, 0
0, 0
0, 0
0, 0
0, 0
0, 0
0, 0
0, 0
0, 0
0, 0
0, 0
0, 0
0, 0
0, 0
0, 0
0, 0
0, 0
0, 0
0, 0
0, 0
0, 0
0, 0
0, 0
0, 0
0, 0
0, 0
0, 0
0, 0
0, 0
0, 0
0, 0
0, 0
0, 0
0, 0
0, 0
0, 0
0, 0
0, 0
0, 0
0, 0
0, 0
0, 0
0, 0
0, 0
0, 0
0, 0
0, 0
0, 0
0, 0
0, 0
0, 0
0, 0
0, 0
0, 0
0, 0
0, 0
0, 0
0, 0
0, 0
0, 0
0, 0
0, 0
0, 0
#ENDOFDATA     end of spectrum data