File: host_upload/06-09-2024/ps_0852/dump3/ps__0852shot_2055.msa
#FORMAT      : EMSA/MAS spectral data file
#VERSION     : TC202v2.0 PIXL
#TITLE       : N/A
#DATE        :       Date in the format DD-MMM-YYYY, for example 07-JUL-2010
#TIME        :             The time of day at which the spectrum was recorded, in 24-hour format
#OWNER       : PIXL Flight Model       (PIXL will use this to indicate which instrument took the data.)
#NPOINTS     : 4096     Number of data points in the spectrum (This can be zero for configuration only files)
#NCOLUMNS    : 2     Number of data columns in the spectrum (This can be zero for configuration only files)
#XUNITS      : eV
#YUNITS      : COUNTS
#DATATYPE    : YY
#XPERCHAN    : 7.862, 7.881   eV per channel (separate by commas if more than one detector)
#OFFSET      : 18.5, -22.4         eV of first channel  (separate by commas if more than one detector
#SIGNALTYPE  : XRF
#YP_TEMP     : 2.524
#LIVETIME    : 8.53877, 8.54231   seconds (separate by commas if more than one detector)
#REALTIME    : 10, 10.0   seconds (separate by commas if more than one detector)
#SPECTRUM    : start of spectrum data
0, 0
0, 0
0, 0
0, 0
0, 0
0, 0
0, 0
0, 0
0, 0
0, 0
0, 0
0, 0
0, 0
0, 0
0, 0
0, 0
0, 0
0, 0
0, 0
0, 0
0, 0
0, 0
0, 0
0, 0
0, 0
0, 0
0, 0
0, 0
0, 0
0, 0
0, 0
0, 0
0, 0
0, 1
0, 0
0, 0
0, 0
1, 0
0, 0
0, 0
2, 1
0, 1
1, 1
3, 1
1, 1
0, 0
1, 3
4, 3
4, 1
12, 12
24, 22
37, 38
47, 64
73, 90
68, 89
75, 70
50, 57
38, 43
32, 37
16, 8
12, 6
5, 4
6, 3
2, 3
6, 5
2, 5
7, 7
5, 12
27, 22
44, 51
95, 112
176, 187
277, 278
320, 344
401, 397
407, 396
383, 349
277, 310
195, 201
120, 123
74, 64
34, 43
21, 21
9, 15
7, 4
1, 1
2, 1
3, 2
0, 0
2, 0
0, 0
2, 1
0, 1
1, 3
1, 4
1, 1
2, 8
4, 3
7, 2
5, 5
5, 9
3, 5
5, 10
1, 8
7, 14
4, 12
3, 24
6, 24
5, 28
7, 38
18, 39
22, 28
16, 37
37, 33
37, 33
40, 36
42, 43
38, 48
31, 29
20, 24
21, 24
18, 13
17, 23
14, 19
20, 28
12, 21
15, 8
12, 7
9, 12
8, 7
7, 7
2, 2
3, 2
2, 2
4, 2
0, 2
2, 2
1, 3
5, 5
2, 1
3, 2
2, 3
0, 3
2, 2
4, 2
3, 2
3, 1
1, 1
3, 3
3, 0
7, 3
4, 2
9, 10
12, 11
9, 15
14, 18
25, 19
24, 23
21, 17
25, 28
17, 21
4, 23
8, 16
7, 24
6, 16
3, 11
3, 12
6, 13
5, 4
7, 6
7, 5
9, 3
3, 4
5, 3
4, 8
5, 3
2, 4
5, 3
9, 6
1, 8
6, 8
5, 2
3, 5
5, 3
2, 3
1, 4
5, 4
5, 5
8, 3
4, 9
9, 9
6, 8
8, 12
16, 9
16, 8
8, 11
5, 15
9, 14
15, 14
12, 18
12, 7
12, 8
12, 9
10, 9
9, 5
3, 5
8, 8
3, 18
4, 13
3, 27
5, 37
7, 28
6, 47
4, 49
10, 45
7, 35
6, 26
3, 26
3, 20
9, 13
2, 9
8, 14
5, 11
6, 13
9, 12
9, 11
11, 12
14, 25
17, 20
12, 23
16, 22
16, 19
13, 16
22, 12
19, 11
12, 9
22, 9
19, 7
18, 9
24, 12
22, 10
36, 5
36, 11
33, 10
36, 12
48, 19
29, 31
53, 36
43, 62
65, 63
65, 64
73, 53
54, 58
53, 51
33, 40
36, 27
34, 21
33, 28
26, 25
19, 26
25, 23
41, 46
53, 53
79, 108
153, 231
265, 372
453, 620
759, 956
1130, 1324
1509, 1757
1866, 2133
2185, 2354
2262, 2375
2375, 2312
2059, 1990
1617, 1517
1270, 1134
906, 743
589, 465
419, 257
181, 141
132, 93
72, 37
34, 20
21, 22
12, 19
23, 17
15, 9
14, 11
14, 18
33, 33
35, 32
46, 55
67, 86
117, 124
154, 172
199, 236
261, 296
307, 321
332, 324
337, 350
312, 317
293, 278
251, 237
190, 163
141, 122
70, 70
50, 40
25, 34
18, 17
15, 16
8, 8
6, 20
13, 19
14, 26
14, 29
15, 30
10, 30
17, 34
8, 28
6, 44
7, 36
10, 38
3, 35
8, 31
9, 23
6, 26
15, 10
14, 10
12, 7
13, 7
10, 7
12, 5
9, 4
9, 8
9, 4
11, 6
5, 5
6, 2
2, 4
7, 5
5, 9
3, 7
4, 8
5, 10
6, 6
4, 10
5, 3
4, 4
7, 2
3, 7
6, 5
7, 4
7, 8
4, 8
3, 9
5, 6
6, 6
3, 4
1, 4
2, 7
0, 4
6, 1
7, 8
5, 4
3, 4
3, 2
5, 9
7, 4
9, 3
4, 6
7, 3
6, 2
9, 2
7, 3
3, 6
3, 6
3, 2
1, 6
7, 4
7, 4
6, 2
11, 2
8, 4
1, 6
3, 4
6, 8
2, 9
3, 10
4, 8
1, 5
3, 10
2, 4
4, 5
4, 7
3, 5
5, 2
1, 4
2, 3
3, 9
4, 4
4, 2
3, 4
5, 0
4, 2
1, 5
6, 4
0, 4
1, 2
3, 3
1, 4
5, 4
4, 2
4, 4
1, 0
6, 2
1, 4
1, 4
2, 3
5, 3
6, 0
6, 1
2, 2
3, 4
3, 5
5, 3
2, 5
3, 3
1, 3
5, 6
1, 3
3, 5
3, 4
4, 1
5, 5
10, 2
3, 2
3, 1
5, 2
6, 5
3, 1
3, 3
2, 3
1, 4
3, 3
2, 1
2, 1
3, 5
2, 2
2, 4
1, 2
2, 7
1, 5
3, 0
3, 3
3, 2
4, 3
2, 7
5, 2
3, 5
1, 1
2, 3
6, 2
2, 8
7, 3
3, 2
4, 2
3, 4
2, 3
6, 3
3, 1
3, 2
2, 3
0, 0
5, 3
2, 4
3, 2
3, 4
6, 6
6, 2
3, 2
2, 6
3, 0
2, 2
1, 1
1, 3
4, 1
3, 1
2, 1
3, 2
2, 0
2, 2
3, 0
1, 2
2, 0
3, 2
0, 1
2, 2
2, 0
2, 2
2, 1
0, 2
2, 2
6, 0
5, 2
1, 1
1, 2
1, 3
2, 0
1, 1
0, 0
0, 2
0, 0
1, 1
0, 2
0, 2
2, 1
2, 4
3, 3
0, 2
6, 3
3, 0
3, 3
1, 5
4, 4
1, 0
0, 0
2, 3
4, 1
5, 1
5, 2
6, 1
0, 0
2, 5
2, 0
3, 2
4, 4
2, 2
2, 2
7, 7
3, 6
4, 2
8, 2
6, 2
3, 0
5, 4
4, 5
5, 4
5, 3
2, 2
1, 3
1, 2
4, 1
2, 3
1, 5
0, 0
1, 3
1, 1
2, 0
6, 1
3, 1
3, 1
0, 0
1, 3
3, 1
3, 1
4, 0
7, 0
2, 1
2, 4
0, 2
3, 1
2, 0
4, 2
3, 2
1, 0
1, 0
0, 3
4, 3
0, 0
2, 0
1, 1
0, 0
1, 4
5, 2
0, 0
1, 1
2, 0
0, 1
2, 1
0, 3
3, 0
2, 2
1, 4
2, 0
2, 0
0, 1
1, 2
1, 2
1, 2
1, 0
0, 0
0, 0
1, 2
2, 1
1, 0
2, 0
0, 2
0, 0
3, 2
2, 1
4, 0
0, 0
0, 0
0, 2
1, 1
2, 0
1, 1
0, 1
1, 1
0, 0
0, 1
1, 0
1, 2
2, 2
1, 1
2, 1
2, 1
2, 0
3, 0
2, 2
1, 0
0, 2
1, 0
2, 0
0, 0
0, 0
2, 1
0, 1
2, 1
0, 2
1, 0
2, 1
0, 0
1, 3
1, 0
1, 2
0, 0
2, 0
1, 0
0, 0
0, 0
0, 1
1, 0
0, 1
0, 0
1, 0
2, 3
2, 1
1, 1
1, 0
1, 0
0, 0
1, 0
0, 0
1, 0
0, 0
1, 0
0, 1
1, 0
0, 0
1, 1
0, 1
0, 0
0, 0
1, 1
2, 0
2, 0
0, 1
1, 1
1, 0
1, 0
2, 1
1, 2
2, 1
0, 0
0, 0
0, 3
0, 0
0, 0
0, 0
0, 0
1, 0
1, 0
0, 0
1, 0
1, 0
0, 0
0, 2
1, 1
0, 0
1, 0
0, 1
1, 0
1, 0
0, 0
0, 0
1, 0
1, 0
0, 0
1, 0
1, 0
0, 0
1, 0
1, 0
0, 0
0, 0
0, 2
0, 0
0, 0
1, 0
0, 0
1, 1
0, 0
1, 0
0, 0
0, 0
0, 0
0, 0
0, 0
0, 0
0, 0
0, 0
0, 1
0, 0
1, 0
0, 0
0, 0
0, 0
0, 1
0, 0
1, 0
0, 0
0, 2
0, 0
0, 1
0, 0
0, 1
1, 0
1, 0
0, 0
0, 2
1, 0
1, 0
0, 0
0, 1
0, 0
0, 0
0, 0
0, 0
0, 0
0, 0
0, 0
0, 1
1, 1
0, 0
0, 0
0, 0
0, 0
0, 0
0, 0
0, 0
0, 0
0, 0
0, 1
0, 0
0, 0
0, 0
0, 0
1, 0
0, 0
1, 2
0, 0
0, 0
1, 0
0, 0
0, 0
1, 0
0, 0
1, 0
0, 0
0, 0
0, 0
1, 0
0, 0
0, 0
0, 0
0, 0
1, 3
0, 0
0, 0
0, 0
0, 2
0, 0
0, 0
0, 0
0, 0
0, 0
1, 0
0, 0
0, 0
0, 0
0, 0
0, 0
0, 0
0, 0
1, 0
0, 0
0, 0
0, 0
0, 2
0, 0
0, 0
0, 0
0, 0
0, 0
0, 0
0, 1
0, 0
1, 0
0, 0
0, 0
0, 0
1, 0
0, 0
0, 0
0, 0
0, 0
0, 0
1, 0
0, 0
0, 1
1, 0
0, 0
0, 0
0, 0
0, 0
1, 0
0, 1
0, 0
0, 1
1, 0
0, 1
0, 0
0, 0
0, 0
0, 1
0, 0
0, 0
0, 0
0, 0
0, 0
0, 0
0, 0
1, 0
0, 0
0, 0
0, 0
0, 0
0, 0
0, 0
0, 0
1, 0
0, 0
0, 0
0, 0
0, 0
0, 0
0, 0
0, 0
0, 0
0, 0
0, 0
0, 1
0, 0
0, 0
0, 0
0, 0
0, 0
0, 0
1, 0
0, 0
0, 0
0, 0
0, 1
0, 0
0, 1
0, 0
1, 1
0, 0
0, 0
0, 0
0, 0
0, 0
0, 0
1, 0
0, 0
0, 0
0, 0
0, 0
0, 0
0, 1
0, 0
0, 0
0, 0
0, 0
0, 0
0, 0
0, 0
0, 0
0, 0
0, 0
0, 0
0, 0
0, 0
0, 0
0, 0
0, 0
0, 0
0, 1
0, 0
0, 0
0, 0
0, 0
0, 0
0, 0
0, 0
0, 0
0, 0
0, 0
0, 0
0, 0
0, 0
0, 0
0, 0
0, 0
0, 0
0, 0
0, 0
0, 0
0, 0
0, 0
0, 0
0, 0
0, 0
1, 0
0, 0
0, 0
0, 0
1, 0
0, 0
0, 0
0, 0
0, 0
0, 0
0, 0
0, 0
0, 0
0, 0
0, 0
0, 0
0, 0
0, 0
0, 0
0, 0
0, 0
0, 0
0, 0
0, 0
0, 0
0, 1
0, 0
0, 0
0, 0
0, 0
0, 0
0, 0
0, 0
0, 0
0, 0
0, 0
0, 0
0, 0
0, 0
0, 0
0, 0
0, 0
0, 0
0, 0
0, 0
0, 0
0, 0
0, 0
0, 0
0, 0
0, 0
0, 0
0, 0
0, 0
0, 0
0, 0
0, 0
0, 0
0, 0
0, 0
0, 0
0, 0
0, 0
0, 0
0, 0
0, 0
0, 0
1, 0
0, 0
0, 0
0, 0
0, 0
0, 0
0, 0
0, 0
0, 0
0, 0
0, 0
0, 0
0, 0
0, 0
0, 0
0, 0
0, 0
0, 0
0, 0
0, 0
0, 0
0, 0
0, 0
0, 0
0, 0
0, 0
0, 0
0, 0
0, 0
0, 0
0, 0
0, 0
0, 0
0, 0
0, 0
0, 0
0, 0
0, 0
0, 0
0, 0
0, 0
0, 0
0, 0
0, 0
0, 0
0, 0
0, 0
0, 0
0, 0
0, 0
0, 0
0, 0
0, 0
0, 0
0, 1
0, 0
0, 0
0, 0
0, 0
0, 0
0, 0
0, 0
0, 0
0, 0
0, 0
0, 0
0, 0
0, 0
0, 0
0, 0
0, 0
0, 0
0, 0
0, 0
0, 0
0, 0
0, 0
0, 0
0, 0
0, 0
0, 0
0, 0
0, 0
0, 0
0, 0
0, 0
0, 0
0, 0
0, 0
0, 0
0, 0
0, 0
0, 0
0, 0
0, 0
0, 0
0, 0
0, 0
0, 0
0, 0
0, 0
0, 0
0, 0
0, 0
0, 0
0, 0
0, 0
0, 0
0, 0
0, 0
0, 0
0, 0
0, 0
0, 0
0, 0
0, 0
0, 0
0, 0
0, 0
0, 0
0, 0
0, 0
0, 0
0, 0
0, 0
0, 0
0, 0
0, 0
0, 0
0, 0
0, 0
0, 0
0, 0
0, 0
0, 0
0, 0
0, 0
0, 0
0, 0
0, 0
0, 0
0, 0
0, 0
0, 0
0, 0
0, 0
0, 0
0, 0
0, 0
0, 0
0, 0
0, 0
0, 0
0, 0
0, 0
0, 0
0, 0
0, 0
0, 0
0, 0
0, 0
0, 0
0, 0
0, 0
0, 0
0, 0
0, 0
0, 0
0, 0
0, 0
0, 0
0, 0
0, 0
0, 0
0, 0
0, 0
0, 0
0, 0
0, 0
0, 0
0, 0
0, 0
0, 0
0, 0
0, 0
0, 0
0, 0
0, 0
0, 0
0, 0
0, 0
0, 0
0, 0
0, 0
0, 0
0, 0
0, 0
0, 0
0, 0
0, 0
0, 0
0, 0
0, 0
0, 0
0, 0
0, 0
0, 0
0, 0
0, 0
0, 0
0, 0
0, 0
0, 0
0, 0
0, 0
0, 0
0, 0
0, 0
0, 0
0, 0
0, 0
0, 0
0, 0
0, 0
0, 0
0, 0
0, 0
0, 0
0, 0
0, 0
0, 0
0, 0
0, 0
0, 0
0, 0
0, 0
0, 0
0, 0
0, 0
0, 0
0, 0
0, 0
0, 0
0, 0
0, 0
0, 0
0, 0
0, 0
0, 0
0, 0
0, 0
0, 0
0, 0
0, 0
0, 0
0, 0
0, 0
0, 0
0, 0
0, 0
0, 0
0, 0
0, 0
0, 0
0, 0
0, 0
0, 0
0, 0
0, 0
0, 0
0, 0
0, 0
0, 0
0, 0
0, 0
0, 0
0, 0
0, 0
0, 0
0, 0
0, 0
0, 0
0, 0
0, 0
0, 0
0, 0
0, 0
0, 0
0, 0
0, 0
0, 0
0, 0
0, 0
0, 0
0, 0
0, 0
0, 0
0, 0
0, 0
0, 0
0, 0
0, 0
0, 0
0, 0
0, 0
0, 0
0, 0
0, 0
0, 0
0, 0
0, 0
0, 0
0, 0
0, 0
0, 0
0, 0
0, 0
0, 0
0, 0
0, 0
0, 0
0, 0
0, 0
0, 0
0, 0
0, 0
0, 0
0, 0
0, 0
0, 0
0, 0
0, 0
0, 0
0, 0
0, 0
0, 0
0, 0
0, 0
0, 0
0, 0
0, 0
0, 0
0, 0
0, 0
#ENDOFDATA     end of spectrum data