File: host_upload/06-09-2024/ps_0852/dump3/ps__0852shot_2154.msa
#FORMAT      : EMSA/MAS spectral data file
#VERSION     : TC202v2.0 PIXL
#TITLE       : N/A
#DATE        :       Date in the format DD-MMM-YYYY, for example 07-JUL-2010
#TIME        :             The time of day at which the spectrum was recorded, in 24-hour format
#OWNER       : PIXL Flight Model       (PIXL will use this to indicate which instrument took the data.)
#NPOINTS     : 4096     Number of data points in the spectrum (This can be zero for configuration only files)
#NCOLUMNS    : 2     Number of data columns in the spectrum (This can be zero for configuration only files)
#XUNITS      : eV
#YUNITS      : COUNTS
#DATATYPE    : YY
#XPERCHAN    : 7.862, 7.881   eV per channel (separate by commas if more than one detector)
#OFFSET      : 18.5, -22.4         eV of first channel  (separate by commas if more than one detector
#SIGNALTYPE  : XRF
#YP_TEMP     : 2.46
#LIVETIME    : 8.54349, 8.5404   seconds (separate by commas if more than one detector)
#REALTIME    : 10, 10.0   seconds (separate by commas if more than one detector)
#SPECTRUM    : start of spectrum data
0, 0
0, 0
0, 0
0, 0
0, 0
0, 0
0, 0
0, 0
0, 0
0, 0
0, 0
0, 0
0, 0
0, 0
0, 0
0, 0
0, 0
0, 0
0, 0
0, 0
0, 0
0, 0
0, 0
0, 0
0, 0
0, 0
0, 0
0, 0
0, 0
0, 0
0, 0
0, 0
0, 0
0, 0
0, 1
0, 0
1, 0
0, 1
0, 0
2, 0
1, 1
0, 2
2, 0
0, 0
3, 1
0, 0
1, 3
4, 8
6, 5
15, 15
21, 26
48, 40
46, 57
91, 55
78, 69
107, 69
85, 64
48, 28
27, 21
11, 13
9, 6
1, 6
6, 1
2, 7
3, 4
4, 2
5, 7
8, 4
23, 20
46, 46
85, 97
163, 156
255, 255
353, 334
427, 394
412, 387
380, 325
312, 264
215, 177
109, 115
66, 63
39, 29
17, 13
12, 8
2, 2
6, 4
7, 1
3, 0
3, 1
1, 0
0, 0
1, 1
4, 4
5, 4
6, 5
12, 10
17, 19
14, 16
32, 31
17, 29
22, 19
20, 15
15, 16
10, 10
8, 5
8, 13
8, 5
7, 8
4, 3
16, 15
9, 15
15, 17
19, 19
31, 26
29, 41
29, 35
29, 27
31, 24
20, 29
22, 21
18, 19
26, 11
14, 19
22, 14
14, 15
16, 12
14, 13
10, 8
9, 7
10, 3
7, 5
4, 5
2, 5
5, 3
0, 3
2, 7
7, 4
2, 3
2, 4
1, 4
3, 2
4, 2
2, 4
1, 3
8, 3
4, 2
5, 3
11, 5
15, 2
18, 1
34, 6
33, 2
55, 0
46, 5
42, 16
54, 11
33, 12
22, 15
36, 17
26, 7
18, 12
12, 10
6, 5
4, 12
4, 9
4, 5
4, 3
4, 3
6, 8
4, 7
3, 6
2, 7
6, 3
5, 7
7, 6
7, 13
8, 7
7, 12
3, 14
2, 13
3, 8
5, 2
4, 6
4, 6
5, 2
2, 3
7, 3
3, 2
5, 4
9, 7
6, 7
9, 4
11, 13
10, 16
14, 19
11, 13
21, 18
14, 24
11, 32
9, 33
17, 27
8, 21
10, 27
10, 16
7, 12
5, 7
6, 6
7, 7
8, 4
11, 5
6, 5
6, 3
9, 6
8, 10
11, 2
7, 5
10, 5
14, 8
21, 4
14, 12
18, 8
17, 2
14, 6
27, 9
23, 13
43, 4
48, 12
58, 10
68, 9
80, 13
88, 15
83, 5
99, 8
65, 12
61, 16
30, 10
22, 7
18, 10
16, 7
13, 8
19, 6
10, 8
6, 6
14, 12
6, 15
17, 23
30, 29
30, 34
44, 33
54, 56
52, 65
57, 62
49, 58
68, 41
49, 44
34, 28
33, 24
27, 24
22, 8
16, 20
20, 23
36, 26
49, 46
77, 101
152, 199
266, 333
463, 581
733, 896
1203, 1263
1584, 1744
1951, 2069
2295, 2252
2380, 2204
2384, 2183
2001, 1899
1764, 1460
1383, 1057
937, 708
626, 446
366, 260
199, 147
112, 61
65, 47
41, 34
39, 11
37, 18
39, 22
41, 14
40, 22
39, 18
54, 25
46, 35
69, 57
77, 75
120, 138
150, 164
211, 251
278, 302
304, 346
337, 358
370, 401
348, 389
300, 283
262, 252
227, 186
154, 144
91, 96
70, 69
42, 50
27, 22
16, 16
15, 11
11, 14
8, 16
6, 14
11, 7
11, 14
13, 11
13, 18
21, 13
6, 17
15, 11
6, 12
6, 12
4, 8
6, 6
5, 3
3, 3
4, 8
8, 7
3, 7
6, 2
2, 3
3, 5
4, 3
2, 4
2, 6
2, 3
8, 3
5, 3
3, 1
2, 4
1, 4
2, 6
10, 8
6, 7
6, 6
2, 6
2, 6
3, 10
8, 4
6, 7
2, 4
3, 2
4, 5
5, 8
7, 7
6, 1
3, 6
8, 4
6, 2
4, 5
4, 2
5, 5
5, 3
5, 1
5, 5
4, 3
9, 4
7, 8
2, 4
3, 3
3, 5
6, 4
4, 4
0, 5
4, 7
2, 2
4, 1
5, 9
8, 9
10, 3
6, 4
3, 3
4, 2
2, 7
7, 5
6, 2
6, 8
7, 9
4, 6
3, 15
2, 15
5, 20
6, 22
2, 17
7, 13
2, 24
3, 16
3, 22
5, 5
3, 3
2, 7
3, 5
3, 9
4, 5
2, 3
7, 5
4, 7
8, 4
6, 4
4, 2
5, 4
2, 6
2, 1
4, 4
5, 2
6, 5
5, 1
4, 7
10, 2
7, 4
2, 1
10, 3
2, 2
3, 4
5, 3
3, 2
1, 1
2, 5
3, 4
6, 3
5, 2
6, 3
8, 2
6, 4
6, 2
8, 0
3, 3
8, 2
5, 0
4, 2
2, 2
2, 3
2, 3
2, 2
4, 4
1, 2
2, 3
2, 2
2, 2
2, 3
6, 2
1, 3
5, 3
4, 3
1, 2
5, 1
2, 0
6, 0
6, 1
2, 3
4, 3
1, 0
1, 4
3, 4
3, 6
3, 3
0, 1
0, 4
3, 5
1, 3
1, 1
2, 4
3, 1
2, 2
2, 3
3, 0
0, 1
6, 1
1, 0
4, 6
4, 1
2, 0
1, 3
1, 2
1, 1
1, 1
0, 1
3, 4
2, 6
0, 1
0, 4
3, 3
4, 5
0, 3
1, 4
1, 3
1, 1
2, 1
2, 4
3, 0
0, 2
4, 5
2, 5
1, 1
3, 2
4, 1
1, 0
5, 3
3, 2
4, 0
2, 3
0, 2
3, 1
1, 0
1, 1
3, 2
6, 1
2, 1
2, 1
0, 6
3, 0
3, 3
1, 5
1, 2
3, 1
1, 5
1, 0
2, 1
3, 3
5, 2
0, 1
2, 1
1, 3
1, 2
3, 4
3, 3
2, 1
3, 2
4, 0
2, 6
8, 5
9, 2
6, 1
1, 3
3, 2
3, 2
1, 3
1, 4
3, 0
0, 2
0, 3
0, 1
1, 0
3, 2
1, 1
3, 3
1, 0
1, 1
0, 2
1, 2
2, 1
1, 1
1, 1
1, 3
2, 0
2, 0
3, 2
4, 2
0, 5
3, 2
2, 3
0, 1
3, 4
2, 2
4, 2
0, 2
2, 0
1, 0
1, 2
2, 0
0, 2
2, 1
1, 1
1, 1
1, 1
0, 0
1, 0
2, 0
3, 1
1, 1
3, 0
3, 1
0, 4
0, 2
1, 4
1, 0
0, 2
1, 3
2, 1
3, 0
1, 1
1, 2
1, 1
1, 0
1, 3
3, 2
1, 1
2, 0
1, 1
2, 1
1, 1
1, 1
2, 1
0, 0
2, 2
0, 1
1, 0
1, 1
5, 0
1, 1
1, 0
2, 1
2, 1
1, 1
2, 0
0, 0
1, 0
0, 1
0, 2
0, 0
1, 0
1, 2
2, 1
3, 2
0, 0
0, 1
0, 1
0, 0
2, 2
0, 2
0, 0
1, 0
0, 0
1, 0
2, 0
0, 0
2, 0
0, 1
1, 1
0, 0
0, 1
2, 0
1, 0
0, 2
2, 1
1, 0
1, 0
1, 1
0, 1
0, 0
0, 1
1, 0
1, 2
0, 0
1, 1
0, 0
1, 0
0, 0
1, 1
0, 0
0, 1
1, 1
1, 0
1, 1
0, 1
0, 2
1, 0
1, 0
0, 1
0, 0
2, 2
2, 0
0, 1
1, 0
1, 0
1, 0
2, 0
0, 0
0, 1
0, 3
0, 2
0, 1
0, 0
0, 2
0, 1
1, 1
1, 0
0, 1
0, 1
0, 0
1, 0
0, 1
1, 2
0, 0
0, 0
1, 0
1, 1
1, 0
0, 1
0, 0
0, 0
0, 0
1, 0
0, 1
0, 1
1, 0
0, 0
0, 0
0, 1
0, 0
1, 1
0, 0
1, 0
0, 1
0, 0
0, 0
0, 0
0, 0
0, 0
0, 0
1, 0
0, 0
0, 0
0, 0
0, 0
0, 0
0, 0
0, 0
1, 0
0, 2
0, 0
0, 1
1, 0
0, 0
1, 0
0, 1
1, 0
1, 1
0, 0
2, 0
1, 0
1, 0
2, 0
0, 1
0, 0
0, 0
0, 0
1, 0
0, 1
0, 0
0, 1
0, 2
0, 0
0, 0
0, 0
0, 0
0, 0
0, 0
0, 0
0, 0
0, 2
0, 0
0, 0
0, 1
0, 0
1, 0
0, 0
0, 1
0, 1
0, 0
0, 0
0, 1
0, 0
0, 0
0, 0
0, 0
0, 1
1, 0
0, 1
0, 1
0, 1
0, 1
0, 0
0, 0
1, 0
1, 1
0, 0
0, 0
0, 0
1, 1
0, 0
0, 2
0, 0
1, 0
0, 0
0, 0
1, 0
0, 0
0, 0
0, 0
0, 0
1, 1
0, 2
0, 0
0, 0
1, 0
0, 0
0, 0
0, 0
0, 0
0, 1
0, 0
0, 2
0, 0
0, 0
0, 1
0, 0
0, 1
0, 0
0, 0
0, 0
0, 0
0, 0
0, 0
0, 0
0, 0
0, 0
1, 0
0, 0
0, 0
0, 0
0, 1
0, 1
0, 0
0, 0
0, 0
0, 0
0, 0
1, 0
0, 1
0, 0
0, 1
0, 0
1, 1
0, 0
0, 0
0, 1
0, 0
0, 0
0, 0
0, 0
0, 0
0, 0
0, 0
0, 0
0, 0
0, 0
0, 0
0, 1
0, 0
0, 0
0, 0
0, 0
0, 0
0, 0
0, 0
0, 0
0, 0
0, 0
0, 0
0, 0
0, 0
0, 0
0, 0
1, 0
0, 0
0, 0
2, 0
0, 0
0, 0
0, 0
0, 0
0, 0
0, 0
0, 0
0, 0
0, 1
0, 0
0, 0
0, 0
0, 0
0, 0
0, 0
0, 0
0, 0
0, 0
0, 0
0, 0
0, 0
0, 0
0, 0
0, 0
0, 0
0, 0
0, 0
0, 0
0, 0
0, 0
0, 0
0, 0
0, 0
0, 0
0, 0
0, 0
0, 0
0, 1
0, 0
0, 0
0, 0
0, 0
0, 0
0, 0
0, 0
0, 0
0, 0
1, 0
0, 0
0, 0
0, 0
0, 0
0, 0
0, 0
0, 0
0, 0
0, 0
1, 0
0, 0
0, 0
0, 0
0, 0
0, 0
0, 0
0, 0
0, 0
0, 0
0, 0
0, 0
0, 0
0, 0
0, 1
0, 0
0, 0
0, 0
0, 0
0, 0
0, 0
0, 0
0, 0
0, 0
0, 0
0, 0
0, 0
0, 0
0, 0
0, 0
0, 0
0, 0
0, 0
0, 0
0, 0
0, 0
0, 0
0, 0
0, 0
0, 0
0, 0
0, 0
0, 0
0, 0
0, 0
0, 0
0, 0
0, 0
0, 0
0, 0
0, 0
0, 0
0, 0
0, 0
0, 0
0, 0
0, 0
0, 0
0, 0
0, 0
0, 0
0, 0
0, 0
0, 0
0, 0
0, 0
0, 0
0, 0
0, 0
0, 0
0, 0
0, 0
0, 0
0, 0
0, 0
0, 0
0, 0
0, 0
0, 0
0, 0
0, 0
0, 0
0, 0
0, 0
0, 0
0, 0
0, 0
0, 0
0, 0
0, 0
0, 0
0, 0
0, 0
0, 0
0, 0
0, 0
0, 0
0, 0
0, 0
0, 0
0, 0
0, 0
0, 0
0, 0
0, 0
0, 0
0, 0
0, 0
0, 0
0, 0
0, 0
0, 0
0, 0
0, 0
0, 0
0, 0
0, 0
0, 0
0, 0
0, 0
0, 0
0, 0
0, 0
0, 0
0, 0
0, 0
0, 0
0, 0
0, 0
0, 0
0, 0
0, 0
0, 0
0, 0
0, 0
0, 0
0, 0
0, 0
0, 0
0, 0
0, 0
0, 0
0, 0
0, 0
0, 0
0, 0
0, 0
0, 0
0, 0
0, 0
0, 0
0, 0
0, 0
0, 0
0, 0
0, 0
0, 0
0, 0
0, 0
0, 0
0, 0
0, 0
0, 0
0, 0
0, 0
0, 0
0, 0
0, 0
0, 0
0, 0
0, 0
0, 0
0, 0
0, 0
0, 0
0, 0
0, 0
0, 0
0, 0
0, 0
0, 0
0, 0
0, 0
0, 0
0, 0
0, 0
0, 0
0, 0
0, 0
0, 0
0, 0
0, 0
0, 0
0, 0
0, 0
0, 0
0, 0
0, 0
0, 0
0, 0
0, 0
0, 0
0, 0
0, 0
0, 0
0, 0
0, 0
0, 0
0, 0
0, 0
0, 0
0, 0
0, 0
0, 0
0, 0
0, 0
0, 0
0, 0
0, 0
0, 0
0, 0
0, 0
0, 0
0, 0
0, 0
0, 0
0, 0
0, 0
0, 0
0, 0
0, 0
0, 0
0, 0
0, 0
0, 0
0, 0
0, 0
0, 0
0, 0
0, 0
0, 0
0, 0
0, 0
0, 0
0, 0
0, 0
0, 0
0, 0
0, 0
0, 0
0, 0
0, 0
0, 0
0, 0
0, 0
0, 0
0, 0
0, 0
0, 0
0, 0
0, 0
0, 0
0, 0
0, 0
0, 0
0, 0
0, 0
0, 0
0, 0
0, 0
0, 0
0, 0
0, 0
0, 0
0, 0
0, 0
0, 0
0, 0
0, 0
0, 0
0, 0
0, 0
0, 0
0, 0
0, 0
0, 0
0, 0
0, 0
0, 0
0, 0
0, 0
0, 0
0, 0
0, 0
0, 0
0, 0
0, 0
0, 0
0, 0
0, 0
0, 0
0, 0
0, 0
0, 0
0, 0
0, 0
0, 0
0, 0
0, 0
0, 0
0, 0
0, 0
0, 0
0, 0
0, 0
0, 0
0, 0
0, 0
0, 0
0, 0
0, 0
0, 0
0, 0
0, 0
0, 0
0, 0
0, 0
0, 0
0, 0
0, 0
0, 0
0, 0
0, 0
0, 0
0, 0
0, 0
0, 0
0, 0
0, 0
0, 0
0, 0
0, 0
0, 0
0, 0
0, 0
0, 0
0, 0
0, 0
0, 0
0, 0
0, 0
0, 0
0, 0
0, 0
0, 0
0, 0
0, 0
0, 0
0, 0
0, 0
0, 0
0, 0
0, 0
0, 0
0, 0
0, 0
0, 0
0, 0
0, 0
0, 0
0, 0
0, 0
0, 0
0, 0
0, 0
0, 0
0, 0
0, 0
0, 0
0, 0
0, 0
0, 0
0, 0
0, 0
0, 0
0, 0
0, 0
0, 0
0, 0
0, 0
0, 0
0, 0
0, 0
0, 0
0, 0
0, 0
0, 0
0, 0
0, 0
0, 0
0, 0
0, 0
0, 0
0, 0
0, 0
0, 0
0, 0
0, 0
0, 0
0, 0
0, 0
0, 0
0, 0
0, 0
0, 0
0, 0
0, 0
0, 0
0, 0
#ENDOFDATA     end of spectrum data