File: host_upload/06-09-2024/ps_0852/dump3/ps__0852shot_2155.msa
#FORMAT      : EMSA/MAS spectral data file
#VERSION     : TC202v2.0 PIXL
#TITLE       : N/A
#DATE        :       Date in the format DD-MMM-YYYY, for example 07-JUL-2010
#TIME        :             The time of day at which the spectrum was recorded, in 24-hour format
#OWNER       : PIXL Flight Model       (PIXL will use this to indicate which instrument took the data.)
#NPOINTS     : 4096     Number of data points in the spectrum (This can be zero for configuration only files)
#NCOLUMNS    : 2     Number of data columns in the spectrum (This can be zero for configuration only files)
#XUNITS      : eV
#YUNITS      : COUNTS
#DATATYPE    : YY
#XPERCHAN    : 7.862, 7.881   eV per channel (separate by commas if more than one detector)
#OFFSET      : 18.5, -22.4         eV of first channel  (separate by commas if more than one detector
#SIGNALTYPE  : XRF
#YP_TEMP     : 2.46
#LIVETIME    : 8.5727, 8.5894   seconds (separate by commas if more than one detector)
#REALTIME    : 10, 10.0   seconds (separate by commas if more than one detector)
#SPECTRUM    : start of spectrum data
0, 0
0, 0
0, 0
0, 0
0, 0
0, 0
0, 0
0, 0
0, 0
0, 0
0, 0
0, 0
0, 0
0, 0
0, 0
0, 0
0, 0
0, 0
0, 0
0, 0
0, 0
0, 0
0, 0
0, 0
0, 0
0, 0
0, 0
0, 0
0, 0
0, 0
0, 0
0, 1
1, 0
0, 0
0, 0
0, 1
0, 1
1, 1
1, 0
0, 0
1, 0
1, 2
0, 2
0, 1
1, 0
2, 1
2, 2
4, 2
5, 13
10, 14
18, 11
38, 45
50, 54
82, 73
81, 72
73, 77
65, 66
44, 42
29, 19
17, 17
8, 8
4, 5
7, 3
6, 7
5, 5
1, 7
5, 6
10, 11
16, 18
45, 44
96, 101
178, 170
276, 261
357, 347
379, 398
373, 415
394, 376
283, 280
203, 203
122, 121
69, 59
33, 40
25, 17
10, 11
4, 3
2, 4
2, 1
1, 3
2, 1
0, 1
5, 1
1, 0
4, 5
9, 12
15, 27
16, 38
51, 37
50, 62
59, 58
59, 73
59, 60
41, 39
35, 37
15, 25
13, 17
14, 16
8, 8
8, 14
16, 13
11, 15
17, 25
24, 21
33, 28
23, 28
40, 42
35, 33
30, 48
39, 29
26, 28
28, 14
28, 18
13, 21
14, 21
16, 17
12, 10
13, 12
16, 15
9, 12
10, 6
4, 7
5, 1
4, 6
2, 3
6, 2
3, 4
1, 0
1, 1
3, 0
1, 3
2, 2
7, 3
3, 5
1, 4
4, 3
2, 2
7, 3
9, 4
11, 5
23, 2
40, 0
52, 7
51, 2
68, 9
50, 6
67, 6
47, 11
34, 9
27, 14
33, 19
16, 10
14, 11
14, 8
7, 7
7, 6
5, 3
1, 2
3, 5
5, 5
3, 6
2, 4
6, 3
7, 2
4, 5
1, 11
3, 4
4, 7
4, 9
4, 5
6, 5
8, 7
8, 7
4, 6
3, 4
2, 7
4, 4
2, 2
3, 2
1, 8
8, 6
9, 12
6, 12
8, 7
10, 10
12, 14
9, 10
14, 11
10, 21
12, 23
17, 23
8, 24
20, 30
17, 27
11, 23
8, 23
12, 22
8, 30
10, 17
10, 12
4, 15
4, 4
13, 4
5, 7
4, 11
4, 7
10, 10
11, 7
9, 6
10, 13
7, 7
4, 9
8, 8
9, 8
18, 8
20, 7
35, 9
40, 9
47, 10
43, 13
46, 16
65, 15
50, 11
60, 17
25, 12
34, 16
22, 12
19, 14
14, 19
15, 25
15, 29
12, 38
16, 31
13, 33
6, 33
13, 37
15, 48
21, 42
28, 54
26, 55
38, 53
47, 52
61, 66
68, 54
76, 60
64, 59
57, 35
59, 34
42, 29
48, 25
72, 18
94, 25
112, 19
97, 32
137, 39
188, 126
245, 160
361, 372
497, 601
744, 881
1091, 1300
1469, 1747
1881, 2022
2265, 2362
2352, 2352
2273, 2356
2047, 1868
1717, 1544
1267, 1076
829, 742
600, 479
352, 265
215, 151
103, 85
53, 35
29, 22
18, 27
16, 13
24, 8
14, 15
24, 14
21, 30
23, 24
31, 26
56, 51
73, 96
104, 129
144, 174
192, 246
282, 295
313, 370
339, 370
332, 366
325, 386
303, 287
242, 252
202, 172
119, 136
107, 71
56, 57
39, 29
18, 22
22, 10
9, 6
9, 12
10, 10
12, 8
16, 13
17, 13
15, 11
9, 22
9, 16
9, 19
12, 9
3, 9
9, 10
13, 19
10, 6
7, 8
10, 10
3, 7
9, 3
9, 6
4, 2
7, 6
10, 3
2, 6
9, 5
7, 4
10, 3
2, 9
1, 4
2, 5
3, 10
2, 4
6, 8
6, 7
12, 6
4, 8
8, 10
7, 9
5, 8
4, 5
10, 5
7, 4
11, 7
11, 10
20, 4
14, 5
18, 5
23, 6
20, 4
18, 3
20, 2
20, 1
19, 3
12, 5
3, 2
7, 7
6, 6
4, 3
5, 4
6, 5
3, 6
5, 3
4, 7
9, 5
3, 4
7, 3
3, 5
6, 2
7, 5
6, 1
6, 2
2, 4
2, 6
9, 5
6, 5
5, 2
5, 7
4, 5
4, 3
3, 4
6, 10
2, 10
8, 8
3, 10
1, 7
3, 7
3, 9
1, 8
12, 9
4, 5
2, 6
4, 6
5, 3
2, 5
5, 4
4, 8
2, 3
4, 5
2, 2
2, 2
3, 4
5, 3
4, 2
4, 4
1, 3
3, 3
3, 4
2, 2
3, 3
5, 4
1, 2
3, 2
5, 2
1, 2
8, 2
3, 3
4, 3
7, 3
2, 2
2, 2
0, 2
2, 3
2, 4
3, 3
3, 4
5, 0
1, 0
4, 1
2, 4
6, 3
2, 3
4, 2
4, 0
6, 2
8, 3
0, 5
5, 7
4, 4
3, 2
4, 1
3, 3
4, 1
4, 2
1, 1
3, 3
0, 3
6, 0
3, 3
2, 3
4, 3
2, 3
3, 3
5, 5
2, 3
1, 1
3, 1
5, 4
1, 4
6, 6
2, 6
5, 5
3, 0
3, 4
0, 0
2, 5
0, 3
1, 3
1, 3
1, 2
2, 2
2, 6
0, 1
0, 2
1, 2
2, 2
1, 5
2, 1
1, 2
4, 7
1, 4
1, 5
2, 3
2, 4
0, 0
2, 2
1, 5
0, 3
1, 1
5, 0
2, 6
2, 2
1, 2
1, 3
0, 5
2, 5
2, 6
2, 4
5, 2
5, 3
0, 5
3, 2
2, 0
1, 1
2, 3
3, 1
1, 4
5, 1
2, 2
1, 1
3, 2
5, 1
3, 3
1, 2
3, 1
1, 0
2, 0
2, 4
2, 2
6, 1
2, 1
4, 0
3, 1
3, 3
0, 3
4, 3
5, 4
0, 4
5, 4
6, 2
4, 4
5, 1
4, 4
4, 3
1, 7
2, 6
4, 5
2, 4
6, 4
3, 2
2, 1
2, 1
0, 0
0, 5
0, 0
0, 3
1, 0
1, 0
3, 1
1, 1
3, 2
2, 0
1, 3
4, 1
2, 3
3, 2
1, 4
5, 0
0, 3
1, 3
1, 0
2, 3
2, 2
0, 2
4, 2
3, 1
2, 0
1, 0
1, 3
0, 0
3, 0
1, 2
2, 1
1, 2
1, 2
2, 3
1, 1
0, 0
0, 3
3, 0
1, 2
0, 0
2, 1
1, 0
2, 1
1, 1
3, 1
1, 0
1, 1
1, 0
2, 0
1, 2
0, 0
1, 0
1, 2
3, 1
0, 0
1, 2
2, 0
2, 1
3, 1
1, 1
0, 0
0, 1
1, 1
1, 1
0, 0
2, 1
1, 1
0, 1
1, 1
1, 2
1, 3
3, 1
1, 1
2, 0
2, 0
0, 0
0, 2
0, 0
1, 0
1, 0
0, 2
3, 1
1, 1
0, 0
1, 0
0, 1
0, 0
0, 0
1, 2
0, 2
2, 1
0, 1
1, 0
1, 1
0, 0
0, 1
0, 2
0, 2
0, 2
2, 0
1, 0
1, 0
1, 3
4, 1
0, 0
1, 0
0, 2
0, 1
1, 1
0, 1
1, 0
1, 0
1, 1
1, 0
0, 0
3, 0
0, 0
0, 0
2, 1
0, 0
0, 1
1, 1
0, 0
0, 0
0, 0
0, 0
1, 0
0, 1
0, 1
0, 0
2, 1
0, 2
1, 2
0, 0
2, 0
0, 0
3, 1
0, 1
1, 1
1, 0
0, 0
0, 1
0, 1
0, 1
0, 0
2, 0
0, 0
0, 0
0, 0
0, 0
0, 2
0, 0
2, 0
0, 1
1, 0
0, 0
1, 0
0, 0
1, 0
0, 0
0, 0
0, 0
1, 1
0, 1
0, 0
0, 0
0, 0
0, 0
0, 0
0, 2
0, 0
1, 0
0, 0
0, 1
1, 1
0, 1
0, 1
0, 0
0, 0
0, 0
0, 0
0, 1
0, 0
0, 0
0, 0
0, 0
0, 1
0, 0
0, 0
0, 0
0, 0
0, 0
1, 1
0, 0
0, 1
0, 0
0, 1
0, 2
0, 0
0, 1
1, 0
0, 0
0, 1
0, 0
0, 0
1, 0
0, 1
0, 0
0, 0
0, 0
0, 0
0, 1
0, 0
0, 0
0, 0
1, 1
1, 0
0, 0
0, 0
3, 1
0, 2
1, 0
0, 1
1, 0
0, 0
0, 0
0, 0
0, 0
0, 0
0, 0
0, 1
0, 0
0, 0
0, 0
0, 0
0, 1
0, 0
1, 2
0, 0
0, 0
0, 0
0, 1
0, 0
2, 1
1, 0
0, 1
0, 0
1, 0
0, 1
1, 0
0, 0
0, 0
0, 0
1, 0
1, 0
0, 0
0, 0
0, 0
0, 1
0, 0
0, 0
0, 0
0, 0
0, 0
1, 0
1, 0
0, 0
0, 2
0, 0
0, 0
0, 0
0, 0
0, 0
0, 0
0, 1
0, 0
0, 0
0, 0
0, 0
0, 0
0, 0
1, 1
0, 0
0, 0
0, 0
0, 1
0, 0
0, 0
0, 0
0, 0
0, 0
0, 0
0, 0
0, 0
1, 0
0, 0
0, 0
0, 0
0, 0
0, 0
0, 0
0, 0
0, 0
0, 0
0, 0
0, 0
0, 0
0, 1
1, 0
0, 1
1, 0
0, 0
0, 0
0, 1
1, 0
0, 0
1, 0
0, 0
0, 0
0, 0
0, 0
0, 0
0, 0
0, 0
1, 0
1, 0
0, 0
0, 0
0, 0
0, 0
0, 0
1, 0
0, 0
0, 0
0, 0
1, 1
0, 0
0, 0
0, 0
0, 0
0, 0
0, 0
0, 0
1, 0
0, 0
0, 0
0, 0
0, 1
0, 0
0, 0
0, 0
1, 0
0, 0
0, 0
0, 0
0, 0
0, 0
0, 0
0, 0
0, 0
0, 0
0, 0
0, 0
0, 0
0, 0
0, 0
0, 0
0, 0
0, 0
0, 0
0, 0
0, 0
0, 0
0, 0
0, 0
0, 0
0, 0
0, 0
0, 1
0, 0
0, 0
0, 0
0, 0
0, 0
0, 0
0, 0
0, 0
0, 0
0, 0
0, 0
0, 0
0, 0
0, 0
0, 0
0, 0
0, 0
0, 0
0, 0
0, 0
0, 0
1, 0
0, 0
0, 0
0, 0
0, 0
0, 0
0, 0
0, 0
0, 0
0, 0
0, 0
0, 0
0, 0
0, 0
0, 0
0, 0
0, 0
0, 0
0, 0
1, 0
0, 0
0, 0
0, 0
0, 0
0, 1
0, 0
0, 0
0, 0
0, 0
0, 0
0, 0
0, 0
0, 0
0, 0
0, 0
0, 0
0, 0
0, 0
0, 0
0, 0
0, 0
0, 0
0, 0
0, 0
0, 0
0, 0
0, 0
0, 0
0, 0
0, 0
0, 0
0, 0
0, 0
0, 0
0, 0
0, 0
0, 0
0, 0
0, 0
0, 0
0, 0
0, 0
0, 0
0, 0
0, 0
0, 0
0, 0
0, 0
0, 0
0, 0
0, 0
0, 0
0, 0
0, 0
0, 0
0, 0
0, 0
0, 0
0, 0
0, 0
0, 0
0, 0
0, 1
0, 0
0, 0
0, 0
0, 0
1, 0
0, 0
0, 0
0, 0
0, 0
0, 0
0, 0
0, 0
0, 0
0, 0
0, 0
0, 0
0, 0
0, 0
0, 1
0, 0
0, 0
0, 0
0, 0
0, 0
0, 0
0, 0
0, 0
0, 0
0, 0
0, 0
0, 0
0, 0
0, 0
0, 0
0, 0
0, 0
0, 0
0, 0
0, 0
0, 0
0, 0
0, 0
0, 0
0, 0
0, 0
0, 0
0, 0
0, 0
0, 0
0, 0
0, 0
0, 0
0, 0
0, 0
0, 0
0, 0
0, 0
0, 0
0, 0
0, 0
0, 0
0, 0
0, 0
0, 0
0, 0
0, 0
0, 0
0, 0
0, 0
0, 0
0, 0
0, 0
0, 0
0, 0
0, 0
0, 0
0, 0
0, 0
0, 0
0, 0
0, 0
0, 0
0, 0
0, 0
0, 0
0, 0
0, 0
0, 0
0, 0
0, 0
0, 0
0, 0
0, 0
0, 0
0, 0
0, 0
0, 0
0, 0
0, 0
0, 0
0, 0
0, 0
0, 0
0, 0
0, 0
0, 0
0, 0
0, 0
0, 0
0, 0
0, 0
0, 0
0, 0
0, 0
0, 0
0, 0
0, 0
0, 0
0, 0
0, 0
0, 0
0, 0
0, 0
0, 0
0, 0
0, 0
0, 0
0, 0
0, 0
0, 0
0, 0
0, 0
0, 0
0, 0
0, 0
0, 0
0, 0
0, 0
0, 0
0, 0
0, 0
0, 0
0, 0
0, 0
0, 0
0, 0
0, 0
0, 0
0, 0
0, 0
0, 0
0, 0
0, 0
0, 0
0, 0
0, 0
0, 0
0, 0
0, 0
0, 0
0, 0
0, 0
0, 0
0, 0
0, 0
0, 0
0, 0
0, 0
0, 0
0, 0
0, 0
0, 0
0, 0
0, 0
0, 0
0, 0
0, 0
0, 0
0, 0
0, 0
0, 0
0, 0
0, 0
0, 0
0, 0
0, 0
0, 0
0, 0
0, 0
0, 0
0, 0
0, 0
0, 0
0, 0
0, 0
0, 0
0, 0
0, 0
0, 0
0, 0
0, 0
0, 0
0, 0
0, 0
0, 0
0, 0
0, 0
0, 0
0, 0
0, 0
0, 0
0, 0
0, 0
0, 0
0, 0
0, 0
0, 0
0, 0
0, 0
0, 0
0, 0
0, 0
0, 0
0, 0
0, 0
0, 0
0, 0
0, 0
0, 0
0, 0
0, 0
0, 0
0, 0
0, 0
0, 0
0, 0
0, 0
0, 0
0, 0
0, 0
0, 0
0, 0
0, 0
0, 0
0, 0
0, 0
0, 0
0, 0
0, 0
0, 0
0, 0
0, 0
0, 0
0, 0
0, 0
0, 0
0, 0
0, 0
0, 0
0, 0
0, 0
0, 0
0, 0
0, 0
0, 0
0, 0
0, 0
0, 0
0, 0
0, 0
0, 0
0, 0
0, 0
0, 0
0, 0
0, 0
0, 0
0, 0
0, 0
0, 0
0, 0
0, 0
0, 0
0, 0
0, 0
0, 0
0, 0
0, 0
0, 0
0, 0
0, 0
0, 0
0, 0
0, 0
0, 0
0, 0
0, 0
0, 0
0, 0
0, 0
0, 0
0, 0
0, 0
0, 0
0, 0
0, 0
0, 0
0, 0
0, 0
0, 0
0, 0
0, 0
0, 0
0, 0
0, 0
0, 0
0, 0
0, 0
0, 0
0, 0
0, 0
0, 0
0, 0
0, 0
0, 0
0, 0
0, 0
0, 0
0, 0
0, 0
0, 0
#ENDOFDATA     end of spectrum data