File: host_upload/06-09-2024/ps_0852/dump3/ps__0852shot_2438.msa
#FORMAT      : EMSA/MAS spectral data file
#VERSION     : TC202v2.0 PIXL
#TITLE       : N/A
#DATE        :       Date in the format DD-MMM-YYYY, for example 07-JUL-2010
#TIME        :             The time of day at which the spectrum was recorded, in 24-hour format
#OWNER       : PIXL Flight Model       (PIXL will use this to indicate which instrument took the data.)
#NPOINTS     : 4096     Number of data points in the spectrum (This can be zero for configuration only files)
#NCOLUMNS    : 2     Number of data columns in the spectrum (This can be zero for configuration only files)
#XUNITS      : eV
#YUNITS      : COUNTS
#DATATYPE    : YY
#XPERCHAN    : 7.862, 7.881   eV per channel (separate by commas if more than one detector)
#OFFSET      : 18.5, -22.4         eV of first channel  (separate by commas if more than one detector
#SIGNALTYPE  : XRF
#YP_TEMP     : 2.267
#LIVETIME    : 8.564, 8.55202   seconds (separate by commas if more than one detector)
#REALTIME    : 10, 10.0   seconds (separate by commas if more than one detector)
#SPECTRUM    : start of spectrum data
0, 0
0, 0
0, 0
0, 0
0, 0
0, 0
0, 0
0, 0
0, 0
0, 0
0, 0
0, 0
0, 0
0, 0
0, 0
0, 0
0, 0
0, 0
0, 0
0, 0
0, 0
0, 0
0, 0
0, 0
0, 0
0, 0
0, 0
0, 0
0, 0
0, 0
0, 1
0, 0
0, 0
0, 0
1, 1
0, 0
0, 0
1, 0
2, 1
0, 1
2, 1
1, 2
3, 2
2, 2
1, 2
1, 0
1, 3
3, 3
6, 4
20, 19
23, 19
60, 38
77, 51
68, 72
82, 81
88, 75
74, 60
51, 38
29, 18
12, 10
19, 2
2, 9
2, 1
6, 2
3, 1
4, 5
6, 5
11, 11
20, 24
40, 38
129, 91
183, 169
285, 283
387, 344
480, 387
435, 410
375, 360
309, 277
232, 177
128, 119
78, 62
36, 36
30, 16
12, 11
5, 5
2, 3
1, 5
0, 0
5, 2
4, 1
0, 1
2, 0
4, 1
1, 1
1, 2
1, 3
4, 2
2, 2
6, 8
5, 2
1, 7
5, 2
2, 5
0, 4
3, 1
1, 5
2, 2
4, 9
16, 8
11, 10
27, 35
23, 30
39, 46
47, 38
42, 75
41, 75
55, 76
50, 53
45, 61
34, 37
31, 37
27, 34
21, 21
20, 29
15, 11
9, 15
10, 9
10, 12
9, 6
7, 6
6, 5
9, 6
3, 4
7, 2
7, 1
4, 1
3, 0
4, 1
3, 1
4, 3
1, 0
1, 4
2, 2
4, 3
2, 1
1, 1
3, 1
1, 1
2, 2
4, 3
5, 3
8, 5
11, 7
22, 18
22, 17
41, 27
49, 36
38, 45
44, 40
43, 39
23, 22
20, 23
14, 13
11, 8
6, 4
6, 9
10, 9
12, 11
12, 3
11, 6
19, 12
20, 7
17, 6
28, 15
23, 3
37, 5
31, 4
27, 4
35, 6
34, 1
19, 4
12, 1
10, 2
11, 0
6, 3
7, 2
9, 2
10, 8
9, 3
4, 10
6, 12
8, 9
10, 6
17, 14
13, 11
13, 18
11, 15
14, 20
23, 31
11, 31
10, 41
14, 47
12, 46
6, 57
10, 64
4, 65
8, 37
8, 36
6, 22
7, 23
5, 11
3, 6
12, 12
9, 2
6, 3
5, 11
4, 6
3, 7
6, 6
8, 5
9, 3
6, 7
10, 8
4, 8
7, 10
13, 8
11, 6
10, 20
21, 16
24, 14
24, 17
19, 25
31, 13
29, 9
39, 17
45, 15
38, 7
42, 7
38, 7
22, 7
28, 5
13, 7
22, 3
13, 15
21, 14
25, 20
35, 29
44, 46
42, 40
53, 57
58, 52
48, 55
57, 43
64, 54
55, 29
49, 33
32, 25
27, 20
22, 23
29, 27
28, 36
33, 51
42, 68
98, 129
151, 200
227, 315
445, 549
753, 881
1141, 1235
1557, 1567
2031, 2024
2261, 2208
2380, 2283
2427, 2188
2101, 1784
1695, 1482
1277, 1078
864, 759
526, 422
329, 275
177, 150
91, 84
43, 43
24, 28
19, 26
18, 16
16, 30
37, 19
34, 22
41, 16
49, 25
61, 39
82, 59
93, 89
153, 124
160, 183
220, 215
258, 253
309, 307
350, 340
333, 392
372, 339
272, 242
243, 190
168, 155
135, 99
80, 55
58, 36
32, 27
18, 13
9, 12
12, 6
7, 8
11, 6
7, 6
14, 11
9, 12
24, 18
14, 17
9, 13
12, 7
14, 6
8, 8
7, 7
4, 3
6, 1
6, 2
5, 3
4, 2
6, 2
5, 6
5, 2
9, 1
12, 9
6, 5
12, 5
14, 5
9, 5
10, 3
2, 7
8, 6
6, 9
4, 10
10, 8
9, 1
18, 6
16, 7
19, 10
28, 10
27, 5
36, 6
37, 11
29, 9
42, 16
35, 12
38, 12
30, 16
18, 18
20, 15
14, 21
5, 16
10, 16
13, 11
7, 13
3, 11
6, 2
2, 3
0, 4
2, 2
3, 3
1, 5
0, 4
3, 4
6, 8
7, 2
2, 3
5, 3
2, 3
4, 0
6, 0
3, 1
4, 7
2, 6
5, 6
6, 5
3, 1
3, 4
5, 1
4, 3
3, 4
4, 1
1, 3
4, 0
6, 5
5, 5
3, 8
0, 8
9, 4
7, 3
5, 4
8, 6
5, 6
7, 5
8, 6
5, 3
4, 4
3, 4
3, 4
3, 1
6, 2
4, 7
4, 0
2, 3
3, 5
6, 2
6, 4
5, 4
4, 2
2, 1
4, 2
2, 5
1, 1
2, 2
1, 4
3, 4
4, 6
2, 0
1, 2
3, 4
5, 2
2, 4
3, 0
1, 3
3, 2
5, 1
3, 2
3, 3
2, 2
6, 2
6, 2
3, 4
6, 5
5, 2
7, 1
4, 2
9, 2
4, 0
5, 0
5, 1
0, 1
1, 2
2, 4
6, 3
4, 4
2, 4
2, 6
3, 3
0, 10
0, 1
3, 6
1, 9
2, 3
6, 7
1, 8
4, 3
2, 3
5, 6
6, 3
5, 2
4, 2
6, 1
7, 0
5, 0
2, 3
1, 1
1, 2
3, 1
3, 1
2, 5
2, 3
5, 1
3, 3
2, 3
1, 3
2, 0
0, 3
4, 2
3, 1
2, 3
3, 1
2, 0
4, 2
4, 4
3, 4
3, 3
6, 0
1, 3
2, 0
1, 1
5, 3
4, 0
1, 1
3, 0
2, 2
3, 1
3, 1
1, 2
3, 1
4, 2
3, 4
2, 0
2, 2
3, 1
0, 0
3, 3
3, 3
3, 0
6, 5
3, 4
0, 3
3, 3
2, 8
6, 4
2, 2
1, 2
3, 2
2, 1
2, 4
1, 1
2, 0
4, 0
2, 4
2, 3
0, 1
2, 4
2, 2
4, 3
1, 3
2, 2
3, 4
6, 7
3, 8
4, 4
3, 4
4, 4
5, 3
1, 1
3, 5
2, 0
1, 2
0, 0
0, 2
1, 3
2, 2
0, 3
0, 1
2, 2
2, 1
2, 2
0, 3
1, 2
1, 2
2, 0
3, 4
1, 3
2, 2
1, 3
0, 6
2, 3
2, 1
1, 2
4, 1
2, 1
0, 0
1, 2
0, 1
3, 0
3, 2
1, 2
0, 0
1, 1
1, 3
0, 1
1, 2
2, 4
2, 0
1, 2
2, 0
1, 2
2, 0
0, 1
3, 0
2, 0
1, 0
2, 1
1, 0
2, 1
3, 1
1, 1
1, 1
1, 1
2, 0
2, 2
2, 2
2, 1
2, 1
1, 3
0, 1
0, 0
0, 1
3, 0
0, 0
2, 1
2, 0
1, 2
1, 1
0, 1
0, 0
0, 2
1, 0
1, 0
1, 2
0, 3
2, 2
0, 3
1, 0
0, 0
2, 0
0, 0
0, 0
0, 1
0, 0
2, 1
0, 0
1, 1
2, 1
0, 1
2, 1
1, 0
0, 1
1, 2
0, 0
1, 1
0, 0
0, 1
0, 0
0, 1
0, 1
1, 0
0, 2
3, 0
0, 1
1, 0
1, 0
0, 0
2, 1
0, 0
0, 0
1, 1
3, 1
0, 0
2, 0
1, 0
0, 1
2, 0
1, 1
0, 0
0, 0
0, 0
0, 1
0, 0
1, 0
0, 0
2, 1
2, 1
0, 2
2, 0
0, 1
2, 1
0, 1
1, 1
0, 2
0, 1
2, 1
2, 0
1, 1
0, 0
1, 2
1, 0
1, 0
0, 0
0, 0
0, 0
0, 0
0, 0
0, 0
0, 1
1, 0
1, 0
0, 1
2, 0
1, 0
0, 1
0, 2
1, 0
1, 0
1, 0
0, 0
0, 0
3, 0
1, 0
0, 0
0, 0
0, 0
0, 2
1, 0
0, 0
1, 0
2, 0
0, 0
1, 0
0, 0
0, 1
1, 0
0, 0
0, 2
1, 0
0, 1
0, 0
0, 0
1, 0
0, 0
0, 0
0, 0
0, 0
0, 0
1, 0
0, 1
1, 1
0, 1
0, 0
0, 1
0, 0
0, 0
1, 1
0, 1
0, 0
0, 2
1, 0
0, 1
0, 0
0, 1
1, 0
0, 1
0, 0
0, 1
0, 0
0, 1
0, 0
0, 0
0, 0
0, 0
0, 0
0, 0
0, 1
0, 1
0, 0
1, 0
0, 0
0, 1
0, 1
0, 0
0, 0
1, 0
0, 0
0, 0
0, 0
1, 0
0, 0
0, 0
0, 1
0, 0
1, 0
0, 0
0, 0
1, 1
0, 0
1, 0
1, 0
0, 0
0, 0
0, 0
0, 1
0, 0
0, 0
0, 0
0, 0
0, 1
0, 1
1, 0
1, 0
0, 2
0, 0
0, 0
0, 0
0, 0
0, 0
1, 0
0, 0
0, 0
0, 0
0, 0
0, 0
0, 0
0, 0
0, 0
0, 0
0, 0
1, 0
0, 0
0, 0
0, 0
0, 1
1, 0
0, 0
0, 0
0, 0
0, 0
0, 0
0, 0
0, 0
0, 0
0, 0
0, 0
0, 0
1, 0
0, 0
0, 0
0, 0
0, 0
0, 0
1, 1
0, 0
0, 0
0, 0
0, 0
1, 0
1, 0
1, 0
0, 1
0, 0
1, 0
0, 0
0, 0
0, 0
0, 0
0, 0
0, 0
0, 0
1, 0
1, 1
1, 0
0, 0
0, 0
0, 1
0, 0
1, 0
0, 0
0, 0
0, 0
0, 0
0, 0
0, 0
0, 0
0, 0
0, 0
0, 1
0, 0
0, 0
0, 0
0, 0
0, 0
0, 0
0, 0
0, 0
0, 0
0, 0
0, 0
0, 0
0, 0
0, 0
0, 0
0, 0
0, 0
0, 0
0, 0
0, 0
0, 0
0, 0
0, 0
0, 0
0, 0
0, 0
0, 0
0, 0
0, 0
0, 0
0, 0
0, 0
0, 0
1, 0
0, 0
0, 0
0, 0
0, 0
0, 0
0, 0
0, 0
1, 0
0, 0
0, 0
0, 0
0, 0
0, 0
0, 0
0, 0
0, 0
0, 0
0, 0
0, 0
1, 0
0, 0
0, 0
0, 0
0, 0
0, 0
0, 0
0, 0
0, 0
0, 0
0, 0
0, 0
0, 0
0, 0
0, 0
0, 0
0, 0
0, 0
0, 0
0, 0
0, 0
0, 0
0, 0
0, 0
0, 0
0, 0
0, 0
0, 0
0, 0
0, 0
0, 0
0, 0
0, 0
0, 0
0, 0
0, 0
0, 0
0, 0
0, 0
0, 0
0, 0
0, 0
0, 0
0, 0
0, 0
0, 0
0, 0
0, 1
0, 0
0, 0
0, 0
0, 0
0, 0
0, 0
0, 0
0, 0
0, 0
0, 0
0, 0
0, 0
0, 0
0, 0
0, 0
0, 0
0, 0
0, 0
0, 0
0, 0
0, 0
0, 0
0, 0
0, 0
0, 0
0, 0
0, 0
0, 0
0, 0
0, 0
0, 0
0, 0
0, 0
0, 0
0, 0
0, 0
0, 0
0, 0
0, 0
0, 0
0, 0
0, 0
0, 0
0, 0
0, 0
0, 0
0, 0
0, 0
0, 0
0, 0
0, 0
0, 0
0, 0
0, 0
0, 0
0, 0
0, 0
0, 0
0, 0
0, 0
0, 0
0, 0
0, 0
0, 0
0, 0
0, 0
0, 0
0, 0
0, 0
0, 0
0, 0
0, 0
0, 0
0, 0
0, 0
0, 0
0, 0
0, 0
0, 0
0, 0
0, 0
0, 0
0, 0
0, 0
0, 0
0, 0
0, 0
0, 0
0, 0
0, 0
0, 0
0, 0
0, 0
0, 0
0, 0
0, 0
0, 0
0, 0
0, 0
0, 0
0, 0
0, 0
0, 0
0, 0
0, 0
0, 0
0, 0
0, 0
0, 0
0, 0
0, 0
0, 0
0, 0
0, 0
0, 0
0, 0
0, 0
0, 0
0, 0
0, 0
0, 0
0, 0
0, 0
0, 0
0, 0
0, 0
0, 0
0, 0
0, 0
0, 0
0, 0
0, 0
0, 0
0, 0
0, 0
0, 0
0, 0
0, 0
0, 0
0, 0
0, 0
0, 0
0, 0
0, 0
0, 0
0, 0
0, 0
0, 0
0, 0
0, 0
0, 0
0, 0
0, 0
0, 0
0, 0
0, 0
0, 0
0, 0
0, 0
0, 0
0, 0
0, 0
0, 0
0, 0
0, 0
0, 0
0, 0
0, 0
0, 0
0, 0
0, 0
0, 0
0, 0
0, 0
0, 0
0, 0
0, 0
0, 0
0, 0
0, 0
0, 0
0, 0
0, 0
0, 0
0, 0
0, 0
0, 0
0, 0
0, 0
0, 0
0, 0
0, 0
0, 0
0, 0
0, 0
0, 0
0, 0
0, 0
0, 0
0, 0
0, 0
0, 0
0, 0
0, 0
0, 0
0, 0
0, 0
0, 0
0, 0
0, 0
0, 0
0, 0
0, 0
0, 0
0, 0
0, 0
0, 0
0, 0
0, 0
0, 0
0, 0
0, 0
0, 0
0, 0
0, 0
0, 0
0, 0
0, 0
0, 0
0, 0
0, 0
0, 0
0, 0
0, 0
0, 0
0, 0
0, 0
0, 0
0, 0
0, 0
0, 0
0, 0
0, 0
0, 0
0, 0
0, 0
0, 0
0, 0
0, 0
0, 0
0, 0
0, 0
0, 0
0, 0
0, 0
0, 0
0, 0
0, 0
0, 0
0, 0
0, 0
0, 0
0, 0
0, 0
0, 0
0, 0
0, 0
0, 0
0, 0
0, 0
0, 0
0, 0
0, 0
0, 0
0, 0
0, 0
0, 0
0, 0
0, 0
0, 0
0, 0
0, 0
0, 0
0, 0
0, 0
0, 0
0, 0
0, 0
0, 0
0, 0
0, 0
0, 0
0, 0
0, 0
0, 0
0, 0
0, 0
0, 0
0, 0
0, 0
0, 0
0, 0
0, 0
0, 0
0, 0
0, 0
0, 0
0, 0
0, 0
0, 0
0, 0
0, 0
0, 0
0, 0
0, 0
0, 0
0, 0
0, 0
0, 0
0, 0
0, 0
0, 0
0, 0
0, 0
0, 0
0, 0
0, 0
0, 0
0, 0
0, 0
0, 0
0, 0
0, 0
0, 0
0, 0
0, 0
0, 0
0, 0
0, 0
0, 0
0, 0
0, 0
0, 0
0, 0
0, 0
0, 0
0, 0
0, 0
0, 0
0, 0
0, 0
0, 0
0, 0
0, 0
0, 0
0, 0
0, 0
0, 0
0, 0
0, 0
0, 0
0, 0
0, 0
0, 0
0, 0
0, 0
0, 0
0, 0
0, 0
0, 0
0, 0
0, 0
0, 0
0, 0
0, 0
0, 0
0, 0
0, 0
0, 0
0, 0
0, 0
0, 0
0, 0
0, 0
0, 0
0, 0
0, 0
0, 0
#ENDOFDATA     end of spectrum data