File: host_upload/06-09-2024/ps_0852/dump3/ps__0852shot_2292.msa
#FORMAT      : EMSA/MAS spectral data file
#VERSION     : TC202v2.0 PIXL
#TITLE       : N/A
#DATE        :       Date in the format DD-MMM-YYYY, for example 07-JUL-2010
#TIME        :             The time of day at which the spectrum was recorded, in 24-hour format
#OWNER       : PIXL Flight Model       (PIXL will use this to indicate which instrument took the data.)
#NPOINTS     : 4096     Number of data points in the spectrum (This can be zero for configuration only files)
#NCOLUMNS    : 2     Number of data columns in the spectrum (This can be zero for configuration only files)
#XUNITS      : eV
#YUNITS      : COUNTS
#DATATYPE    : YY
#XPERCHAN    : 7.862, 7.881   eV per channel (separate by commas if more than one detector)
#OFFSET      : 18.5, -22.4         eV of first channel  (separate by commas if more than one detector
#SIGNALTYPE  : XRF
#YP_TEMP     : 2.396
#LIVETIME    : 8.55018, 8.56367   seconds (separate by commas if more than one detector)
#REALTIME    : 10, 10.0   seconds (separate by commas if more than one detector)
#SPECTRUM    : start of spectrum data
0, 0
0, 0
0, 0
0, 0
0, 0
0, 0
0, 0
0, 0
0, 0
0, 0
0, 0
0, 0
0, 0
0, 0
0, 0
0, 0
0, 0
0, 0
0, 0
0, 0
0, 0
0, 0
0, 0
0, 0
0, 0
0, 0
0, 0
0, 0
0, 0
0, 0
1, 0
0, 0
0, 2
0, 0
0, 1
0, 1
0, 0
0, 0
2, 0
0, 0
2, 3
3, 1
1, 0
1, 1
1, 3
1, 1
2, 2
2, 5
5, 7
10, 7
8, 15
27, 42
50, 69
56, 70
52, 75
56, 72
42, 60
43, 36
22, 30
12, 13
6, 8
9, 6
3, 5
4, 9
1, 10
5, 2
6, 10
6, 10
23, 17
40, 54
86, 84
131, 138
186, 296
268, 370
306, 412
360, 401
275, 350
193, 273
182, 178
87, 108
42, 67
29, 28
28, 19
12, 21
6, 6
4, 2
3, 4
3, 1
1, 2
3, 1
7, 3
7, 10
12, 17
25, 29
44, 62
77, 83
120, 134
137, 171
164, 186
181, 206
157, 168
111, 146
101, 96
55, 74
36, 42
33, 36
17, 32
15, 21
17, 23
25, 28
28, 38
48, 34
42, 51
59, 63
55, 71
39, 74
37, 56
38, 48
36, 44
26, 33
24, 28
26, 30
25, 24
7, 18
17, 9
17, 18
11, 12
10, 10
11, 14
6, 11
3, 4
12, 6
1, 2
7, 7
3, 2
3, 3
3, 2
3, 4
4, 6
2, 7
0, 4
3, 4
0, 3
2, 4
1, 1
1, 1
1, 4
4, 6
1, 1
2, 3
6, 5
6, 9
15, 21
17, 27
25, 35
42, 43
50, 45
54, 61
44, 64
52, 40
22, 28
25, 21
18, 18
14, 17
7, 5
8, 9
4, 8
5, 7
10, 12
13, 7
7, 17
12, 10
12, 7
9, 9
10, 11
8, 5
7, 5
9, 4
5, 2
5, 5
1, 3
7, 3
4, 8
3, 3
1, 4
1, 3
4, 3
7, 5
7, 8
9, 9
10, 12
10, 21
14, 15
14, 33
10, 19
14, 26
18, 19
17, 20
13, 28
13, 16
9, 22
9, 16
11, 14
8, 16
11, 17
3, 15
11, 24
7, 24
6, 31
3, 33
9, 45
4, 48
5, 39
4, 45
6, 39
3, 31
5, 20
8, 13
7, 11
3, 11
4, 4
9, 11
7, 5
3, 5
5, 9
14, 14
10, 17
12, 12
14, 27
25, 19
28, 24
22, 18
24, 18
22, 10
20, 15
21, 7
17, 7
11, 10
5, 5
7, 6
8, 8
8, 5
4, 13
8, 8
12, 14
12, 31
22, 35
36, 39
32, 54
50, 56
58, 72
58, 60
64, 53
41, 54
42, 42
25, 33
22, 22
24, 14
19, 16
18, 21
23, 23
18, 37
41, 59
81, 108
148, 209
253, 408
436, 645
739, 956
1014, 1457
1430, 1797
1792, 2240
2160, 2499
2159, 2564
2175, 2402
1954, 2053
1706, 1599
1306, 1190
990, 766
651, 493
398, 274
236, 155
135, 98
84, 64
38, 36
20, 18
23, 18
13, 18
16, 21
12, 22
14, 19
27, 28
26, 31
37, 53
75, 83
90, 130
130, 174
183, 248
226, 312
280, 342
323, 386
367, 381
275, 319
233, 301
208, 225
186, 146
113, 108
83, 68
46, 41
31, 19
17, 20
9, 21
5, 23
3, 16
6, 19
6, 20
9, 28
13, 30
19, 46
20, 32
20, 27
27, 22
34, 14
30, 20
25, 9
13, 11
17, 12
19, 5
18, 3
10, 6
6, 5
7, 4
4, 4
4, 2
4, 1
2, 5
3, 2
3, 3
4, 6
4, 6
2, 10
2, 5
3, 3
4, 6
5, 3
5, 7
6, 7
3, 7
5, 8
5, 5
2, 3
8, 6
3, 4
1, 5
6, 5
6, 9
5, 2
3, 4
2, 6
2, 2
5, 4
2, 5
2, 4
3, 9
2, 6
6, 8
7, 5
4, 5
2, 2
4, 7
2, 3
3, 4
1, 3
5, 2
2, 7
3, 2
3, 4
6, 3
4, 3
3, 6
2, 3
4, 2
2, 8
6, 5
2, 5
5, 9
1, 6
2, 6
3, 11
3, 13
2, 7
2, 12
0, 9
3, 8
0, 6
0, 3
1, 2
2, 3
2, 6
0, 4
6, 4
3, 1
6, 2
2, 6
1, 3
2, 5
2, 0
4, 2
2, 6
2, 4
1, 8
3, 4
5, 3
4, 7
5, 7
1, 1
7, 2
3, 10
4, 6
3, 8
8, 9
1, 4
2, 5
1, 6
3, 7
3, 7
3, 7
0, 5
2, 4
6, 4
2, 4
5, 8
4, 7
3, 4
1, 11
1, 7
0, 10
1, 12
3, 17
5, 12
4, 11
5, 10
0, 10
2, 8
3, 12
2, 8
0, 5
1, 7
1, 3
0, 7
2, 1
3, 3
6, 2
6, 2
5, 1
6, 3
1, 6
7, 1
5, 2
10, 2
5, 1
8, 6
9, 4
10, 2
11, 1
9, 2
10, 3
8, 3
6, 0
0, 7
4, 4
4, 3
3, 1
3, 2
4, 2
3, 1
5, 3
2, 2
2, 4
2, 4
2, 3
3, 1
6, 2
3, 6
3, 0
0, 1
0, 1
2, 1
4, 3
0, 2
5, 1
0, 2
1, 3
2, 10
3, 4
1, 2
1, 3
1, 2
0, 8
3, 4
2, 2
3, 0
3, 1
2, 1
0, 2
2, 1
2, 4
1, 1
5, 0
3, 0
3, 0
2, 0
2, 1
0, 3
1, 2
1, 3
0, 1
2, 3
1, 7
2, 3
2, 2
2, 3
1, 1
2, 4
0, 0
2, 3
3, 2
2, 7
2, 5
0, 0
1, 1
1, 3
0, 4
1, 4
3, 1
3, 1
0, 4
0, 5
1, 4
4, 5
1, 5
4, 4
5, 6
3, 5
2, 7
2, 4
3, 4
6, 2
0, 4
4, 1
3, 3
3, 7
1, 1
3, 2
2, 4
1, 4
1, 3
2, 2
3, 2
2, 1
1, 3
0, 4
2, 4
1, 2
2, 2
7, 2
2, 3
1, 0
2, 1
1, 1
2, 3
1, 3
2, 0
0, 4
0, 2
3, 4
1, 1
4, 1
1, 0
1, 1
2, 0
1, 0
0, 0
1, 0
4, 0
1, 1
1, 1
2, 2
1, 1
1, 2
2, 1
2, 1
1, 0
0, 0
0, 2
1, 1
0, 1
2, 1
1, 1
2, 0
2, 3
0, 2
2, 1
2, 1
1, 1
0, 0
2, 1
2, 1
1, 1
0, 2
1, 0
0, 1
0, 2
1, 1
1, 1
0, 0
0, 2
0, 0
0, 0
0, 1
0, 0
1, 1
2, 0
2, 0
0, 0
0, 0
3, 3
0, 0
1, 1
0, 0
1, 1
1, 0
1, 1
2, 1
0, 0
1, 1
1, 1
1, 1
0, 0
2, 1
0, 0
2, 0
1, 0
3, 1
0, 2
1, 0
0, 1
0, 1
0, 0
1, 0
0, 0
0, 2
1, 0
0, 0
0, 0
1, 0
0, 0
0, 2
0, 1
1, 1
0, 0
1, 2
0, 1
0, 0
0, 0
0, 1
2, 1
0, 2
0, 1
0, 0
1, 1
0, 0
2, 0
0, 1
0, 2
1, 2
1, 0
0, 1
2, 1
0, 1
0, 0
0, 1
0, 1
0, 1
0, 2
0, 0
0, 0
0, 0
0, 1
1, 0
0, 1
0, 1
1, 0
0, 2
0, 1
0, 0
2, 0
1, 0
0, 1
0, 1
0, 0
0, 1
0, 0
0, 0
0, 1
0, 1
0, 0
0, 0
0, 1
0, 2
0, 1
0, 0
0, 0
0, 0
0, 1
0, 0
0, 1
0, 0
0, 0
0, 0
0, 0
0, 0
1, 0
0, 1
0, 0
0, 0
0, 0
0, 1
0, 0
0, 0
0, 1
0, 0
1, 0
1, 0
0, 1
1, 1
1, 0
0, 0
1, 0
0, 1
0, 0
1, 0
0, 0
0, 0
1, 0
0, 1
0, 0
0, 0
1, 0
0, 0
1, 0
0, 1
0, 0
0, 0
1, 0
0, 0
0, 0
0, 0
0, 1
0, 0
0, 0
0, 0
0, 1
0, 0
1, 0
0, 1
0, 1
0, 0
0, 0
0, 1
0, 0
0, 0
1, 0
0, 0
0, 0
0, 0
0, 0
0, 0
0, 0
0, 0
0, 0
0, 0
0, 0
0, 0
1, 0
1, 1
0, 0
2, 1
0, 0
0, 0
0, 1
1, 0
0, 0
1, 0
0, 0
0, 0
0, 1
2, 1
0, 1
0, 0
1, 0
0, 0
0, 0
1, 0
0, 0
0, 0
1, 0
0, 0
0, 1
0, 0
0, 0
1, 0
0, 0
0, 1
1, 0
0, 0
0, 1
0, 0
0, 0
0, 0
0, 1
0, 0
0, 0
0, 0
0, 0
0, 0
0, 0
0, 0
0, 1
0, 0
0, 0
1, 0
0, 0
0, 1
0, 0
0, 0
0, 0
1, 1
0, 0
0, 0
0, 0
0, 0
1, 0
0, 0
0, 0
0, 0
0, 0
0, 0
0, 0
0, 0
0, 0
1, 0
0, 1
0, 0
0, 0
0, 0
0, 0
0, 0
0, 0
0, 0
0, 0
1, 0
0, 0
0, 0
0, 1
0, 0
0, 0
0, 0
0, 0
1, 1
0, 0
1, 0
0, 0
0, 0
0, 0
0, 0
0, 0
0, 0
0, 0
0, 0
0, 0
0, 0
0, 0
0, 0
1, 0
0, 0
0, 0
0, 0
0, 0
0, 0
0, 0
0, 0
0, 0
0, 0
0, 0
0, 0
0, 0
0, 0
0, 0
0, 0
1, 0
0, 0
0, 0
0, 0
0, 0
0, 0
0, 0
1, 0
0, 0
0, 0
0, 0
0, 0
0, 0
1, 0
0, 0
0, 0
0, 0
0, 0
0, 0
0, 0
0, 0
0, 0
0, 0
0, 0
0, 0
0, 0
0, 0
0, 0
0, 0
0, 0
0, 0
0, 0
0, 0
0, 0
0, 0
0, 0
0, 0
0, 0
0, 0
0, 0
0, 0
0, 0
0, 0
0, 0
0, 0
0, 0
0, 0
0, 0
0, 0
0, 0
0, 0
0, 0
0, 0
0, 0
0, 1
0, 0
0, 0
0, 0
0, 0
0, 0
0, 0
0, 0
0, 0
0, 0
0, 0
0, 0
0, 0
0, 0
0, 0
0, 0
0, 1
0, 0
0, 0
0, 0
0, 0
0, 0
0, 0
0, 0
0, 0
0, 0
0, 0
0, 0
0, 0
0, 0
0, 0
0, 0
0, 0
0, 0
0, 0
0, 1
0, 0
0, 0
0, 0
0, 0
0, 0
0, 0
0, 0
0, 0
0, 0
0, 0
0, 0
0, 0
0, 0
0, 0
0, 0
0, 0
0, 0
0, 0
0, 0
0, 0
0, 0
0, 0
0, 0
0, 0
0, 0
0, 0
0, 0
0, 0
0, 0
0, 0
0, 0
0, 0
0, 0
0, 0
0, 0
0, 0
0, 0
0, 0
0, 0
0, 0
0, 0
0, 0
0, 0
0, 0
0, 0
0, 0
0, 0
0, 0
0, 0
0, 0
0, 0
0, 0
0, 0
0, 0
0, 0
0, 0
0, 0
0, 0
0, 0
0, 0
0, 0
0, 0
0, 0
0, 0
0, 0
0, 0
0, 0
0, 0
0, 0
0, 0
0, 0
0, 0
0, 0
0, 0
0, 0
0, 0
0, 0
0, 0
0, 0
0, 0
0, 0
0, 0
0, 0
0, 0
0, 0
0, 0
0, 0
0, 0
0, 0
0, 0
0, 0
0, 0
0, 0
0, 0
0, 0
0, 0
0, 0
0, 0
0, 0
0, 0
0, 0
0, 0
0, 0
0, 0
0, 0
0, 0
0, 0
0, 0
0, 0
0, 0
0, 0
0, 0
0, 0
0, 0
0, 0
0, 0
0, 0
0, 0
0, 0
0, 0
0, 0
0, 0
0, 0
0, 0
0, 0
0, 0
0, 0
0, 0
0, 0
0, 0
0, 0
0, 0
0, 0
0, 0
0, 0
0, 0
0, 0
0, 0
0, 0
0, 0
0, 0
0, 0
0, 0
0, 0
0, 0
0, 0
0, 0
0, 0
0, 0
0, 0
0, 0
0, 0
0, 0
0, 0
0, 0
0, 0
0, 0
0, 0
0, 0
0, 0
0, 0
0, 0
0, 0
0, 0
0, 0
0, 0
0, 0
0, 0
0, 0
0, 0
0, 0
0, 0
0, 0
0, 0
0, 0
0, 0
0, 0
0, 0
0, 0
0, 0
0, 0
0, 0
0, 0
0, 0
0, 0
0, 0
0, 0
0, 0
0, 0
0, 0
0, 0
0, 0
0, 0
0, 0
0, 0
0, 0
0, 0
0, 0
0, 0
0, 0
0, 0
0, 0
0, 0
0, 0
0, 0
0, 0
0, 0
0, 0
0, 0
0, 0
0, 0
0, 0
0, 0
0, 0
0, 0
0, 0
0, 0
0, 0
0, 0
0, 0
0, 0
0, 0
0, 0
0, 0
0, 0
0, 0
0, 0
0, 0
0, 0
0, 0
0, 0
0, 0
0, 0
0, 0
0, 0
0, 0
0, 0
0, 0
0, 0
0, 0
0, 0
0, 0
0, 0
0, 0
0, 0
0, 0
0, 0
0, 0
0, 0
0, 0
0, 0
0, 0
0, 0
0, 0
0, 0
0, 0
0, 0
0, 0
0, 0
0, 0
0, 0
0, 0
0, 0
0, 0
0, 0
0, 0
0, 0
0, 0
0, 0
0, 0
0, 0
0, 0
0, 0
0, 0
0, 0
0, 0
0, 0
0, 0
0, 0
0, 0
0, 0
0, 0
0, 0
0, 0
0, 0
0, 0
0, 0
0, 0
0, 0
0, 0
0, 0
0, 0
0, 0
0, 0
0, 0
0, 0
0, 0
0, 0
0, 0
0, 0
0, 0
0, 0
0, 0
0, 0
0, 0
0, 0
0, 0
0, 0
0, 0
0, 0
0, 0
0, 0
0, 0
0, 0
0, 0
0, 0
0, 0
0, 0
0, 0
0, 0
0, 0
0, 0
0, 0
0, 0
0, 0
0, 0
0, 0
0, 0
0, 0
0, 0
0, 0
0, 0
0, 0
0, 0
0, 0
0, 0
0, 0
0, 0
0, 0
0, 0
0, 0
0, 0
0, 0
0, 0
0, 0
0, 0
0, 0
0, 0
0, 0
0, 0
0, 0
0, 0
0, 0
0, 0
0, 0
0, 0
0, 0
0, 0
0, 0
0, 0
0, 0
0, 0
0, 0
0, 0
0, 0
0, 0
0, 0
0, 0
0, 0
0, 0
0, 0
0, 0
0, 0
0, 0
0, 0
0, 0
0, 0
#ENDOFDATA     end of spectrum data