File: host_upload/06-09-2024/ps_0852/dump3/ps__0852shot_2475.msa
#FORMAT      : EMSA/MAS spectral data file
#VERSION     : TC202v2.0 PIXL
#TITLE       : N/A
#DATE        :       Date in the format DD-MMM-YYYY, for example 07-JUL-2010
#TIME        :             The time of day at which the spectrum was recorded, in 24-hour format
#OWNER       : PIXL Flight Model       (PIXL will use this to indicate which instrument took the data.)
#NPOINTS     : 4096     Number of data points in the spectrum (This can be zero for configuration only files)
#NCOLUMNS    : 2     Number of data columns in the spectrum (This can be zero for configuration only files)
#XUNITS      : eV
#YUNITS      : COUNTS
#DATATYPE    : YY
#XPERCHAN    : 7.862, 7.881   eV per channel (separate by commas if more than one detector)
#OFFSET      : 18.5, -22.4         eV of first channel  (separate by commas if more than one detector
#SIGNALTYPE  : XRF
#YP_TEMP     : 2.267
#LIVETIME    : 8.55506, 8.55573   seconds (separate by commas if more than one detector)
#REALTIME    : 10, 10.0   seconds (separate by commas if more than one detector)
#SPECTRUM    : start of spectrum data
0, 0
0, 0
0, 0
0, 0
0, 0
0, 0
0, 0
0, 0
0, 0
0, 0
0, 0
0, 0
0, 0
0, 0
0, 0
0, 0
0, 0
0, 0
0, 0
0, 0
0, 0
0, 0
0, 0
0, 0
0, 0
0, 0
0, 0
0, 0
0, 0
0, 0
0, 0
0, 0
0, 0
0, 0
0, 2
1, 0
0, 0
1, 1
0, 0
1, 0
0, 1
1, 0
0, 1
5, 0
2, 4
2, 1
4, 1
3, 3
6, 3
6, 10
20, 23
22, 35
35, 47
72, 68
69, 70
77, 56
63, 42
37, 38
17, 22
17, 9
8, 6
5, 3
8, 6
6, 3
7, 7
8, 5
9, 8
10, 14
17, 29
36, 46
91, 97
180, 165
247, 281
356, 367
448, 405
435, 458
388, 410
299, 275
201, 171
124, 131
60, 69
35, 43
23, 16
8, 7
5, 9
3, 6
5, 3
2, 2
2, 4
2, 1
3, 3
2, 1
3, 7
15, 7
17, 25
31, 41
52, 50
69, 84
82, 89
98, 98
93, 95
61, 64
31, 48
40, 28
20, 27
20, 12
6, 11
20, 15
19, 25
22, 28
32, 43
48, 53
56, 46
58, 51
75, 53
63, 56
69, 45
74, 45
76, 28
76, 29
83, 32
73, 41
60, 22
41, 23
44, 28
25, 22
22, 16
13, 15
16, 14
9, 12
8, 2
3, 4
6, 6
2, 4
7, 1
6, 4
3, 0
3, 2
6, 4
2, 4
4, 0
3, 2
2, 1
1, 2
1, 5
3, 2
1, 4
4, 3
2, 6
6, 1
4, 8
11, 13
16, 24
20, 32
39, 53
57, 62
66, 72
72, 111
80, 84
61, 69
53, 54
44, 28
28, 36
10, 15
6, 9
5, 8
6, 8
15, 5
16, 11
15, 11
15, 11
13, 17
15, 18
8, 9
10, 7
3, 9
12, 8
9, 6
5, 3
3, 5
5, 8
7, 5
2, 5
1, 4
2, 3
2, 5
6, 9
5, 6
7, 4
8, 5
13, 12
5, 10
13, 7
9, 15
7, 23
16, 20
11, 13
13, 11
10, 15
15, 16
7, 18
9, 12
12, 15
7, 7
8, 6
7, 10
8, 8
2, 4
5, 5
6, 5
4, 7
6, 2
3, 9
10, 9
3, 1
5, 3
6, 4
9, 6
7, 3
12, 4
4, 3
9, 7
8, 7
6, 8
12, 9
16, 8
21, 12
19, 13
34, 18
31, 19
45, 17
37, 16
44, 20
49, 16
40, 15
54, 6
41, 10
54, 8
36, 7
48, 8
40, 7
16, 9
17, 13
17, 10
15, 17
21, 20
16, 35
28, 34
50, 54
58, 76
53, 77
42, 71
48, 79
45, 72
40, 91
38, 64
36, 72
24, 65
18, 63
12, 60
16, 60
30, 77
37, 72
63, 111
157, 207
259, 313
420, 616
748, 945
1034, 1372
1389, 1732
1795, 2257
2147, 2472
2257, 2523
2080, 2260
1916, 2026
1641, 1506
1196, 1101
826, 706
538, 448
326, 242
174, 139
86, 87
47, 64
28, 34
17, 31
9, 25
13, 25
14, 29
19, 16
17, 23
22, 30
24, 28
48, 74
76, 73
97, 119
148, 194
183, 240
224, 279
280, 301
311, 357
310, 373
299, 322
302, 313
235, 227
161, 172
110, 102
89, 82
47, 64
23, 37
14, 19
16, 27
9, 8
9, 12
14, 13
10, 13
10, 14
15, 10
13, 18
16, 14
12, 9
14, 8
2, 8
7, 15
8, 6
7, 11
6, 6
5, 6
10, 8
2, 8
8, 7
4, 10
5, 11
2, 6
5, 9
2, 9
3, 9
5, 7
2, 3
7, 4
3, 5
4, 5
3, 1
3, 6
3, 5
3, 5
4, 5
5, 5
6, 8
3, 5
5, 13
6, 12
11, 12
9, 12
12, 15
11, 21
16, 23
12, 18
11, 19
4, 14
7, 10
4, 7
9, 10
11, 13
6, 8
6, 9
2, 9
6, 4
5, 4
8, 1
3, 1
5, 5
2, 3
3, 1
2, 3
7, 6
5, 2
1, 6
4, 1
7, 3
2, 7
7, 4
1, 1
3, 3
2, 4
5, 0
5, 1
3, 3
3, 5
8, 3
3, 5
4, 3
2, 6
2, 4
3, 1
3, 2
2, 5
3, 7
5, 4
5, 9
2, 2
4, 8
0, 4
5, 1
4, 3
2, 4
3, 1
5, 2
6, 4
5, 4
3, 3
2, 3
1, 1
3, 4
3, 3
3, 2
0, 2
2, 5
2, 2
1, 4
4, 6
5, 4
0, 6
4, 5
0, 3
3, 8
1, 4
1, 2
3, 1
3, 1
2, 4
1, 2
2, 2
2, 3
2, 5
5, 3
1, 1
1, 3
4, 5
4, 2
8, 0
0, 3
6, 2
0, 4
4, 2
1, 5
0, 5
2, 5
1, 1
2, 1
4, 4
3, 6
4, 2
4, 0
5, 1
1, 1
4, 4
2, 2
3, 2
5, 4
2, 3
2, 0
0, 5
0, 3
1, 1
2, 4
1, 3
1, 2
0, 3
2, 5
3, 2
2, 3
6, 5
0, 3
4, 5
3, 2
5, 6
4, 3
2, 2
2, 2
4, 3
0, 3
3, 1
3, 2
4, 3
3, 1
2, 0
5, 2
1, 1
1, 2
3, 1
3, 1
2, 1
2, 1
4, 1
1, 3
1, 4
2, 3
5, 2
3, 3
1, 3
2, 2
4, 1
4, 0
1, 3
1, 2
3, 0
2, 1
1, 1
1, 5
2, 1
2, 4
2, 2
2, 5
0, 2
1, 1
1, 1
0, 0
0, 1
2, 1
1, 2
2, 3
4, 2
1, 1
0, 3
3, 0
3, 1
1, 0
1, 3
0, 4
0, 1
4, 1
2, 2
3, 3
0, 3
1, 4
0, 3
2, 4
2, 3
5, 5
4, 7
1, 2
4, 3
6, 2
8, 2
4, 8
0, 5
0, 2
2, 1
0, 1
3, 1
2, 2
4, 0
0, 3
0, 3
2, 1
2, 1
2, 2
1, 0
0, 1
3, 1
3, 1
0, 0
1, 1
0, 2
0, 0
4, 1
2, 2
2, 0
3, 2
2, 4
1, 0
1, 2
4, 2
4, 1
0, 3
4, 0
2, 1
0, 1
0, 1
1, 1
2, 1
1, 2
1, 1
2, 0
1, 2
1, 1
3, 0
1, 3
0, 1
0, 1
0, 2
0, 0
2, 2
1, 1
4, 0
1, 1
4, 0
1, 1
3, 4
1, 2
0, 2
0, 1
0, 1
2, 0
0, 1
1, 1
1, 2
0, 1
1, 1
0, 2
0, 1
1, 0
2, 2
0, 1
0, 1
1, 2
0, 1
2, 2
2, 0
1, 2
0, 0
0, 0
2, 0
1, 1
0, 0
1, 0
0, 1
0, 0
1, 0
0, 0
2, 0
1, 0
1, 2
1, 1
0, 1
0, 0
1, 2
1, 0
2, 0
2, 0
0, 0
0, 0
0, 2
0, 0
1, 1
3, 0
0, 1
1, 0
1, 0
1, 0
1, 1
2, 0
0, 2
2, 0
1, 0
1, 0
2, 0
0, 0
1, 1
1, 0
2, 0
0, 0
2, 0
0, 3
1, 0
0, 1
0, 0
1, 1
2, 0
0, 0
0, 0
0, 1
0, 0
1, 1
0, 0
1, 1
1, 0
0, 0
1, 2
0, 0
2, 1
1, 0
1, 1
0, 0
0, 2
0, 1
0, 0
0, 0
0, 0
0, 2
2, 1
0, 0
1, 1
0, 3
0, 1
0, 0
0, 1
1, 2
0, 0
0, 1
1, 0
0, 0
0, 1
0, 0
0, 0
0, 0
2, 0
0, 0
1, 0
0, 0
0, 1
0, 0
0, 1
1, 0
1, 0
0, 1
0, 1
0, 0
1, 1
0, 0
0, 0
1, 1
1, 1
0, 0
0, 1
0, 1
0, 0
0, 0
0, 0
0, 2
0, 2
0, 0
0, 0
1, 0
0, 0
1, 0
0, 0
0, 0
0, 1
0, 0
0, 0
0, 0
0, 0
0, 0
0, 0
0, 0
0, 0
0, 0
0, 0
0, 1
0, 1
0, 1
0, 0
0, 0
0, 0
1, 2
0, 0
0, 0
0, 2
0, 0
0, 0
0, 0
0, 0
1, 0
0, 1
0, 1
1, 1
0, 1
1, 0
0, 0
0, 0
0, 0
0, 1
0, 0
0, 0
0, 0
0, 0
0, 0
0, 0
0, 0
1, 1
1, 0
0, 0
0, 0
2, 0
1, 1
0, 0
0, 0
0, 0
0, 0
0, 0
0, 0
0, 0
0, 0
1, 0
0, 0
0, 2
0, 0
1, 0
0, 1
0, 0
0, 0
0, 0
0, 0
0, 0
0, 0
1, 0
0, 0
0, 0
0, 0
1, 0
0, 0
1, 0
0, 0
0, 2
0, 1
0, 1
1, 0
1, 0
0, 0
0, 0
0, 0
0, 0
1, 0
1, 0
1, 0
0, 0
0, 1
0, 0
0, 0
0, 1
0, 0
0, 0
0, 0
0, 0
0, 0
0, 1
1, 0
0, 0
0, 0
0, 0
0, 0
1, 0
0, 0
0, 0
0, 0
0, 1
0, 0
1, 0
0, 0
0, 0
1, 0
0, 0
1, 0
0, 0
0, 0
0, 0
0, 1
0, 1
0, 0
0, 0
0, 0
0, 0
0, 0
1, 0
0, 0
0, 0
0, 0
0, 0
0, 0
0, 0
0, 0
0, 0
0, 0
0, 0
0, 0
0, 0
0, 0
0, 0
0, 0
0, 0
0, 0
0, 0
0, 0
0, 0
0, 0
0, 1
0, 1
0, 0
0, 0
0, 0
0, 0
0, 0
0, 0
0, 0
0, 0
0, 0
0, 0
0, 0
0, 0
0, 0
0, 1
0, 0
0, 0
0, 0
0, 0
0, 0
0, 0
0, 0
0, 0
0, 1
0, 0
0, 0
0, 0
0, 0
1, 0
0, 0
0, 0
0, 0
0, 0
0, 0
0, 0
0, 0
0, 0
0, 0
0, 0
1, 0
0, 0
0, 0
0, 0
0, 0
0, 0
0, 1
0, 0
0, 0
0, 0
0, 0
0, 0
0, 0
0, 0
0, 0
0, 0
0, 0
0, 0
0, 0
0, 0
1, 0
0, 0
0, 0
0, 0
0, 0
0, 0
0, 0
0, 0
0, 0
0, 0
0, 0
0, 0
0, 0
0, 0
0, 0
0, 0
0, 1
0, 0
0, 0
0, 0
0, 0
0, 0
0, 0
0, 0
0, 0
0, 0
0, 0
0, 0
0, 0
0, 0
0, 0
0, 0
0, 0
0, 0
0, 0
0, 0
0, 0
0, 0
1, 0
0, 0
0, 0
0, 0
0, 0
0, 0
0, 0
0, 0
0, 0
0, 0
0, 0
0, 0
0, 0
0, 0
0, 0
0, 0
0, 0
0, 0
0, 0
0, 0
0, 0
0, 0
0, 0
0, 0
0, 0
0, 0
0, 0
0, 0
0, 0
0, 1
0, 0
0, 0
0, 0
0, 0
0, 0
0, 0
0, 0
0, 0
0, 0
0, 0
0, 0
0, 0
0, 0
0, 0
0, 0
0, 0
0, 0
0, 0
0, 0
0, 0
0, 0
0, 0
0, 0
0, 0
0, 0
0, 0
0, 0
0, 0
0, 0
0, 0
0, 0
0, 0
0, 0
0, 0
0, 0
0, 0
0, 0
0, 0
0, 0
0, 0
0, 0
0, 0
0, 0
0, 0
0, 0
0, 0
0, 0
0, 0
0, 0
0, 0
0, 0
0, 0
0, 0
0, 0
0, 0
0, 0
0, 0
0, 0
0, 0
0, 0
0, 0
0, 0
0, 0
0, 0
0, 0
0, 0
0, 0
0, 0
0, 0
0, 0
0, 0
0, 0
0, 0
0, 0
0, 0
0, 0
0, 0
0, 0
0, 0
0, 0
0, 0
0, 0
0, 0
0, 0
0, 0
0, 0
0, 0
0, 0
0, 0
0, 0
0, 0
0, 0
0, 0
0, 0
0, 0
0, 0
0, 0
0, 0
0, 0
0, 0
0, 0
0, 0
0, 0
0, 0
0, 0
0, 0
0, 0
0, 0
0, 0
0, 0
0, 0
0, 0
0, 0
0, 0
0, 0
0, 0
0, 0
0, 0
0, 0
0, 0
0, 0
0, 0
0, 0
0, 0
0, 0
0, 0
0, 0
0, 0
0, 0
0, 0
0, 0
0, 0
0, 0
0, 0
0, 0
0, 0
0, 0
0, 0
0, 0
0, 0
0, 0
0, 0
0, 0
0, 0
0, 0
0, 0
0, 0
0, 0
0, 0
0, 0
0, 0
0, 0
0, 0
0, 0
0, 0
0, 0
0, 0
0, 0
0, 0
0, 0
0, 0
0, 0
0, 0
0, 0
0, 0
0, 0
0, 0
0, 0
0, 0
0, 0
0, 0
0, 0
0, 0
0, 0
0, 0
0, 0
0, 0
0, 0
0, 0
0, 0
0, 0
0, 0
0, 0
0, 0
0, 0
0, 0
0, 0
0, 0
0, 0
0, 0
0, 0
0, 0
0, 0
0, 0
0, 0
0, 0
0, 0
0, 0
0, 0
0, 0
0, 0
0, 0
0, 0
0, 0
0, 0
0, 0
0, 0
0, 0
0, 0
0, 0
0, 0
0, 0
0, 0
0, 0
0, 0
0, 0
0, 0
0, 0
0, 0
0, 0
0, 0
0, 0
0, 0
0, 0
0, 0
0, 0
0, 0
0, 0
0, 0
0, 0
0, 0
0, 0
0, 0
0, 0
0, 0
0, 0
0, 0
0, 0
0, 0
0, 0
0, 0
0, 0
0, 0
0, 0
0, 0
0, 0
0, 0
0, 0
0, 0
0, 0
0, 0
0, 0
0, 0
0, 0
0, 0
0, 0
0, 0
0, 0
0, 0
0, 0
0, 0
0, 0
0, 0
0, 0
0, 0
0, 0
0, 0
0, 0
0, 0
0, 0
0, 0
0, 0
0, 0
0, 0
0, 0
0, 0
0, 0
0, 0
0, 0
0, 0
0, 0
0, 0
0, 0
0, 0
0, 0
0, 0
0, 0
0, 0
0, 0
0, 0
0, 0
0, 0
0, 0
0, 0
0, 0
0, 0
0, 0
0, 0
0, 0
0, 0
0, 0
0, 0
0, 0
0, 0
0, 0
0, 0
0, 0
0, 0
0, 0
0, 0
0, 0
0, 0
0, 0
0, 0
0, 0
0, 0
0, 0
0, 0
0, 0
0, 0
0, 0
0, 0
0, 0
0, 0
0, 0
0, 0
0, 0
0, 0
0, 0
0, 0
0, 0
0, 0
0, 0
0, 0
0, 0
0, 0
0, 0
0, 0
0, 0
0, 0
0, 0
0, 0
0, 0
0, 0
0, 0
0, 0
0, 0
0, 0
0, 0
0, 0
0, 0
0, 0
#ENDOFDATA     end of spectrum data