File: host_upload/06-09-2024/ps_0852/dump3/ps__0852shot_2235.msa
#FORMAT      : EMSA/MAS spectral data file
#VERSION     : TC202v2.0 PIXL
#TITLE       : N/A
#DATE        :       Date in the format DD-MMM-YYYY, for example 07-JUL-2010
#TIME        :             The time of day at which the spectrum was recorded, in 24-hour format
#OWNER       : PIXL Flight Model       (PIXL will use this to indicate which instrument took the data.)
#NPOINTS     : 4096     Number of data points in the spectrum (This can be zero for configuration only files)
#NCOLUMNS    : 2     Number of data columns in the spectrum (This can be zero for configuration only files)
#XUNITS      : eV
#YUNITS      : COUNTS
#DATATYPE    : YY
#XPERCHAN    : 7.862, 7.881   eV per channel (separate by commas if more than one detector)
#OFFSET      : 18.5, -22.4         eV of first channel  (separate by commas if more than one detector
#SIGNALTYPE  : XRF
#YP_TEMP     : 2.428
#LIVETIME    : 8.51871, 8.53274   seconds (separate by commas if more than one detector)
#REALTIME    : 10, 10.0   seconds (separate by commas if more than one detector)
#SPECTRUM    : start of spectrum data
0, 0
0, 0
0, 0
0, 0
0, 0
0, 0
0, 0
0, 0
0, 0
0, 0
0, 0
0, 0
0, 0
0, 0
0, 0
0, 0
0, 0
0, 0
0, 0
0, 0
0, 0
0, 0
0, 0
0, 0
0, 0
0, 0
0, 0
0, 0
0, 0
0, 0
0, 0
0, 0
0, 0
0, 0
0, 0
2, 1
2, 0
1, 1
2, 1
1, 0
2, 2
1, 0
1, 0
1, 2
2, 2
0, 1
1, 1
5, 2
5, 8
13, 7
18, 21
45, 33
57, 61
69, 75
92, 79
91, 66
64, 47
45, 35
29, 28
22, 14
8, 10
5, 6
6, 5
5, 2
7, 4
4, 7
9, 3
17, 11
26, 18
62, 41
84, 102
184, 145
288, 231
386, 372
406, 389
465, 431
404, 382
296, 271
230, 183
132, 114
71, 66
49, 34
20, 17
11, 7
2, 4
3, 2
1, 6
4, 5
1, 3
2, 5
0, 1
1, 3
1, 2
3, 2
1, 3
2, 2
1, 4
3, 0
3, 7
3, 4
4, 3
2, 2
6, 4
6, 6
2, 2
2, 2
3, 5
10, 6
8, 10
17, 17
14, 21
31, 30
29, 27
43, 42
53, 41
45, 45
63, 32
36, 28
27, 27
35, 17
39, 15
21, 20
19, 15
15, 18
27, 18
19, 19
12, 10
11, 12
5, 6
9, 4
8, 4
4, 3
6, 5
8, 1
3, 2
3, 4
0, 5
1, 6
6, 1
4, 4
4, 7
6, 3
5, 0
2, 1
2, 1
4, 2
2, 3
1, 5
4, 1
0, 2
4, 6
3, 6
9, 9
9, 15
15, 20
19, 10
16, 10
17, 13
26, 19
24, 15
20, 18
19, 11
8, 9
8, 3
2, 3
3, 2
4, 0
4, 3
5, 2
5, 6
2, 6
5, 4
3, 4
3, 3
7, 4
6, 4
6, 3
3, 4
3, 4
4, 6
9, 3
7, 3
13, 3
14, 7
18, 1
21, 10
26, 2
24, 8
12, 3
19, 8
10, 4
6, 11
15, 11
11, 10
14, 18
14, 13
9, 9
8, 13
17, 13
23, 9
15, 14
17, 5
4, 7
5, 12
10, 13
8, 9
6, 13
2, 16
7, 17
3, 24
4, 35
8, 34
2, 46
9, 35
4, 36
4, 23
4, 23
5, 19
4, 10
5, 17
5, 14
5, 7
11, 9
7, 10
3, 12
14, 9
10, 13
8, 10
12, 13
7, 10
11, 16
17, 10
17, 12
16, 9
12, 13
15, 10
11, 7
18, 8
11, 12
15, 3
14, 7
18, 7
28, 4
22, 11
33, 12
33, 22
46, 27
56, 33
66, 44
62, 49
80, 62
80, 63
66, 57
60, 43
37, 49
32, 35
27, 18
18, 18
20, 17
11, 14
17, 14
20, 29
55, 52
86, 120
161, 186
285, 345
472, 551
752, 875
1177, 1356
1552, 1751
1987, 1999
2319, 2374
2487, 2267
2440, 2187
2214, 1908
1895, 1570
1398, 995
944, 720
644, 435
366, 272
189, 147
103, 80
54, 50
39, 20
23, 20
14, 17
29, 18
12, 14
13, 16
22, 21
32, 24
33, 42
43, 40
73, 71
87, 131
159, 177
212, 247
254, 314
324, 315
348, 358
357, 340
336, 320
325, 269
258, 202
215, 168
145, 106
90, 68
69, 28
34, 29
14, 24
18, 10
13, 7
6, 18
7, 15
11, 21
10, 25
10, 30
18, 36
7, 44
13, 37
12, 45
10, 45
14, 41
10, 28
8, 22
11, 22
8, 12
9, 9
13, 6
14, 3
6, 5
8, 6
7, 3
11, 4
7, 3
11, 4
2, 3
9, 0
8, 2
6, 0
8, 1
3, 2
5, 7
5, 4
4, 3
4, 3
2, 7
4, 7
8, 2
5, 8
7, 7
9, 8
6, 6
9, 9
7, 7
8, 10
4, 8
7, 4
5, 14
6, 7
6, 9
9, 9
4, 8
4, 5
11, 4
8, 9
11, 10
4, 4
15, 3
13, 8
11, 3
18, 5
16, 6
13, 4
10, 3
7, 3
9, 3
7, 9
4, 6
9, 3
3, 2
10, 5
5, 5
1, 5
4, 9
3, 5
3, 3
3, 7
3, 7
0, 2
0, 7
2, 15
2, 2
2, 2
5, 3
2, 11
2, 4
3, 6
4, 6
3, 13
2, 7
4, 8
2, 10
3, 17
4, 13
7, 18
4, 22
6, 16
5, 22
8, 13
6, 12
6, 5
13, 6
10, 8
6, 6
9, 4
12, 3
5, 5
11, 2
7, 5
8, 5
3, 2
2, 4
7, 7
7, 6
2, 3
5, 3
0, 3
4, 2
4, 8
4, 3
2, 4
6, 5
7, 7
5, 1
6, 5
4, 3
3, 7
2, 6
1, 2
1, 2
0, 5
4, 3
3, 3
2, 4
2, 0
2, 4
3, 4
3, 0
4, 3
3, 2
1, 4
0, 1
4, 2
2, 3
3, 0
1, 5
2, 3
2, 0
4, 2
2, 2
1, 1
7, 1
2, 0
1, 0
1, 2
0, 1
0, 2
2, 1
1, 3
1, 2
4, 4
3, 4
2, 1
4, 1
3, 0
5, 2
4, 6
5, 0
5, 3
3, 3
5, 0
4, 1
1, 2
2, 3
4, 3
1, 3
2, 3
1, 1
4, 1
6, 0
7, 1
1, 3
2, 2
4, 4
4, 0
5, 2
4, 1
4, 3
1, 7
4, 1
1, 7
2, 1
3, 5
0, 7
3, 3
4, 1
1, 6
1, 8
5, 5
2, 5
4, 1
4, 6
0, 4
2, 3
1, 1
1, 2
1, 0
3, 4
0, 3
0, 0
0, 1
2, 3
3, 5
0, 4
3, 3
0, 2
1, 3
4, 2
4, 0
6, 0
1, 2
1, 0
0, 4
2, 0
1, 3
3, 1
1, 0
1, 3
5, 2
7, 3
4, 5
4, 12
5, 4
4, 1
6, 4
5, 3
3, 2
4, 0
2, 3
1, 2
1, 0
3, 1
2, 0
1, 1
0, 1
5, 3
2, 1
2, 1
1, 1
2, 5
3, 1
3, 0
2, 1
1, 0
2, 2
2, 1
1, 2
2, 2
4, 0
1, 2
5, 1
5, 0
0, 1
3, 1
1, 1
0, 1
1, 0
3, 3
0, 0
2, 0
0, 1
0, 0
1, 1
1, 3
1, 1
1, 0
1, 0
0, 2
0, 2
3, 0
1, 1
1, 2
1, 0
0, 3
0, 1
2, 3
1, 1
1, 0
0, 0
1, 2
2, 1
1, 2
1, 2
1, 0
0, 1
0, 0
0, 2
0, 6
1, 1
2, 0
1, 0
1, 1
0, 0
1, 2
1, 0
3, 0
0, 0
0, 0
0, 1
0, 2
0, 0
0, 1
0, 1
2, 3
2, 0
1, 1
0, 0
1, 0
0, 1
0, 1
0, 0
0, 3
1, 2
3, 1
0, 0
1, 0
0, 0
2, 1
1, 3
1, 0
0, 1
2, 1
3, 1
0, 1
2, 0
0, 0
1, 0
0, 0
0, 0
0, 0
0, 1
0, 1
0, 0
0, 1
0, 0
0, 0
2, 1
0, 0
0, 0
1, 0
0, 0
1, 1
1, 1
0, 1
0, 0
0, 0
0, 0
1, 0
0, 0
0, 0
1, 0
1, 1
0, 0
0, 1
0, 0
0, 1
0, 1
1, 1
0, 1
0, 0
0, 0
0, 1
0, 0
0, 1
1, 1
0, 0
1, 0
1, 0
0, 1
1, 1
1, 0
0, 0
1, 1
0, 0
1, 0
0, 1
0, 2
0, 0
1, 1
0, 0
0, 1
1, 0
0, 0
0, 0
0, 1
0, 1
0, 1
0, 0
0, 0
0, 2
1, 0
1, 0
1, 0
0, 0
0, 0
1, 0
0, 0
0, 0
0, 0
0, 0
0, 0
0, 1
3, 0
0, 0
0, 0
0, 0
0, 0
1, 1
2, 1
1, 0
0, 0
2, 0
0, 0
0, 0
0, 0
1, 0
1, 1
2, 0
1, 0
0, 0
0, 2
0, 0
0, 0
1, 1
0, 0
0, 0
0, 0
0, 1
0, 0
0, 0
0, 0
0, 0
0, 0
0, 1
1, 0
0, 0
0, 0
0, 0
0, 0
0, 0
1, 1
0, 0
0, 0
1, 0
0, 1
0, 0
0, 0
0, 0
0, 0
1, 0
0, 0
0, 0
1, 0
0, 0
1, 1
0, 0
0, 0
1, 1
0, 0
1, 0
0, 1
1, 1
1, 1
0, 0
0, 0
0, 0
0, 0
0, 1
0, 0
0, 1
0, 0
0, 1
0, 0
0, 0
0, 0
0, 1
1, 1
0, 1
0, 1
0, 0
0, 0
0, 1
1, 0
0, 0
1, 0
0, 0
0, 0
1, 1
0, 0
1, 1
0, 1
0, 0
0, 0
0, 1
1, 1
1, 0
1, 0
0, 1
0, 0
0, 1
0, 0
0, 0
0, 0
0, 0
1, 0
0, 0
0, 0
0, 0
0, 0
1, 0
1, 1
0, 0
0, 0
0, 0
0, 0
0, 0
0, 0
0, 0
0, 0
0, 0
0, 1
0, 0
0, 0
0, 0
0, 1
0, 0
0, 0
0, 0
0, 0
0, 1
0, 0
0, 0
0, 0
0, 1
0, 1
0, 0
0, 0
1, 0
0, 0
0, 1
0, 0
0, 0
0, 1
0, 1
0, 0
0, 0
0, 0
0, 0
0, 0
2, 0
0, 0
0, 0
0, 0
0, 0
1, 0
0, 0
0, 0
0, 0
0, 0
0, 0
0, 0
0, 1
0, 0
0, 0
1, 0
0, 0
0, 0
0, 0
0, 0
0, 1
0, 0
0, 0
0, 0
0, 0
0, 0
0, 0
0, 0
0, 0
0, 0
0, 0
0, 0
0, 0
0, 0
0, 0
0, 0
0, 0
0, 1
1, 0
0, 0
0, 0
0, 0
0, 0
1, 0
0, 0
0, 0
0, 0
1, 0
0, 0
0, 0
1, 0
0, 0
0, 0
0, 0
0, 0
0, 0
0, 0
0, 0
0, 0
0, 0
0, 0
0, 0
0, 0
0, 0
0, 0
0, 0
0, 0
0, 0
0, 0
1, 0
0, 0
0, 0
1, 0
0, 0
0, 0
0, 0
1, 0
0, 0
0, 0
0, 0
0, 0
0, 0
0, 0
0, 0
0, 1
0, 0
0, 0
0, 0
0, 0
0, 0
0, 0
0, 0
0, 0
0, 0
0, 0
0, 0
0, 0
0, 0
0, 0
0, 0
0, 0
1, 0
0, 0
0, 0
0, 0
0, 0
0, 0
0, 0
0, 0
0, 0
0, 0
0, 0
0, 1
0, 0
0, 0
0, 0
0, 0
0, 0
0, 0
0, 0
0, 0
0, 0
0, 0
0, 0
0, 0
0, 0
0, 0
0, 0
0, 0
0, 0
0, 0
0, 0
0, 0
0, 0
0, 0
0, 0
0, 0
0, 0
0, 0
0, 0
0, 0
0, 0
0, 0
0, 0
0, 0
0, 0
0, 0
0, 0
0, 0
0, 0
0, 0
0, 0
0, 0
0, 0
0, 0
0, 0
0, 0
0, 0
0, 0
0, 0
0, 0
0, 0
0, 0
0, 0
0, 0
0, 0
0, 0
0, 0
0, 0
0, 0
0, 0
0, 0
0, 0
0, 0
0, 0
0, 0
0, 0
0, 0
0, 0
0, 0
0, 0
0, 0
0, 0
0, 0
0, 0
0, 0
0, 0
0, 0
0, 0
0, 0
0, 0
0, 0
0, 0
0, 0
0, 0
0, 0
0, 0
0, 0
0, 0
0, 0
0, 0
0, 0
0, 0
0, 0
0, 0
1, 0
0, 0
0, 0
0, 0
0, 0
0, 0
0, 0
0, 0
0, 0
0, 0
0, 0
0, 0
0, 0
0, 0
0, 0
0, 0
0, 0
0, 0
0, 0
0, 0
0, 0
0, 0
0, 0
0, 0
0, 0
0, 0
0, 0
0, 0
0, 0
0, 0
0, 0
0, 0
0, 0
0, 0
0, 0
0, 0
0, 0
0, 0
0, 0
0, 0
0, 0
0, 0
0, 0
0, 0
0, 0
0, 0
0, 0
0, 0
0, 0
0, 0
0, 0
0, 0
0, 0
0, 0
0, 0
0, 0
0, 0
0, 0
0, 0
0, 0
0, 0
0, 0
0, 0
0, 0
0, 0
0, 0
0, 0
0, 0
0, 0
0, 0
0, 0
0, 0
0, 0
0, 0
0, 0
0, 0
0, 0
0, 0
0, 0
0, 0
0, 0
0, 0
0, 0
0, 0
0, 0
0, 0
0, 0
0, 0
0, 0
0, 0
0, 0
0, 0
0, 0
0, 0
0, 0
0, 0
0, 0
0, 0
0, 0
0, 0
0, 0
0, 0
0, 0
0, 0
0, 0
0, 0
0, 0
0, 0
0, 0
0, 0
0, 0
0, 0
0, 0
0, 0
0, 0
0, 0
0, 0
0, 0
0, 0
0, 0
0, 0
0, 0
0, 0
0, 0
0, 0
0, 0
0, 0
0, 0
0, 0
0, 0
0, 0
0, 0
0, 0
0, 0
0, 0
0, 0
0, 0
0, 0
0, 0
0, 0
0, 0
0, 0
0, 0
0, 0
0, 0
0, 0
0, 0
0, 0
0, 0
0, 0
0, 0
0, 0
0, 0
0, 0
0, 0
0, 0
0, 0
0, 0
0, 0
0, 0
0, 0
0, 0
0, 0
0, 0
0, 0
0, 0
0, 0
0, 0
0, 0
0, 0
0, 0
0, 0
0, 0
0, 0
0, 0
0, 0
0, 0
0, 0
0, 0
0, 0
0, 0
0, 0
0, 0
0, 0
0, 0
0, 0
0, 0
0, 0
0, 0
0, 0
0, 0
0, 0
0, 0
0, 0
0, 0
0, 0
0, 0
0, 0
0, 0
0, 0
0, 0
0, 0
0, 0
0, 0
0, 0
0, 0
0, 0
0, 0
0, 0
0, 0
0, 0
0, 0
0, 0
0, 0
0, 0
0, 0
0, 0
0, 0
0, 0
0, 0
0, 0
0, 0
0, 0
0, 0
0, 0
0, 0
0, 0
0, 0
0, 0
0, 0
0, 0
0, 0
0, 0
0, 0
0, 0
0, 0
0, 0
0, 0
0, 0
0, 0
0, 0
0, 0
0, 0
0, 0
0, 0
0, 0
0, 0
0, 0
0, 0
0, 0
0, 0
0, 0
0, 0
0, 0
0, 0
0, 0
0, 0
0, 0
0, 0
0, 0
0, 0
0, 0
0, 0
0, 0
0, 0
0, 0
0, 0
0, 0
0, 0
0, 0
0, 0
0, 0
0, 0
0, 0
0, 0
0, 0
0, 0
0, 0
0, 0
0, 0
0, 0
0, 0
0, 0
0, 0
0, 0
0, 0
0, 0
0, 0
0, 0
0, 0
0, 0
#ENDOFDATA     end of spectrum data