File: host_upload/06-09-2024/ps_0852/dump3/ps__0852shot_2559.msa
#FORMAT      : EMSA/MAS spectral data file
#VERSION     : TC202v2.0 PIXL
#TITLE       : N/A
#DATE        :       Date in the format DD-MMM-YYYY, for example 07-JUL-2010
#TIME        :             The time of day at which the spectrum was recorded, in 24-hour format
#OWNER       : PIXL Flight Model       (PIXL will use this to indicate which instrument took the data.)
#NPOINTS     : 4096     Number of data points in the spectrum (This can be zero for configuration only files)
#NCOLUMNS    : 2     Number of data columns in the spectrum (This can be zero for configuration only files)
#XUNITS      : eV
#YUNITS      : COUNTS
#DATATYPE    : YY
#XPERCHAN    : 7.862, 7.881   eV per channel (separate by commas if more than one detector)
#OFFSET      : 18.5, -22.4         eV of first channel  (separate by commas if more than one detector
#SIGNALTYPE  : XRF
#YP_TEMP     : 2.011
#LIVETIME    : 8.55554, 8.54542   seconds (separate by commas if more than one detector)
#REALTIME    : 10, 10.0   seconds (separate by commas if more than one detector)
#SPECTRUM    : start of spectrum data
0, 0
0, 0
0, 0
0, 0
0, 0
0, 0
0, 0
0, 0
0, 0
0, 0
0, 0
0, 0
0, 0
0, 0
0, 0
0, 0
0, 0
0, 0
0, 0
0, 0
0, 0
0, 0
0, 0
0, 0
0, 0
0, 0
0, 0
0, 0
0, 0
0, 0
0, 1
0, 0
0, 0
0, 0
0, 0
0, 0
2, 1
1, 0
1, 0
0, 3
3, 2
2, 0
3, 0
2, 2
2, 1
1, 0
2, 3
4, 6
7, 5
16, 11
24, 30
47, 44
61, 53
73, 82
101, 78
91, 90
80, 59
42, 40
26, 24
17, 13
12, 2
4, 7
4, 0
3, 0
5, 1
3, 4
6, 7
14, 10
21, 29
51, 41
106, 97
191, 163
293, 245
428, 357
487, 373
484, 371
388, 367
290, 248
233, 164
135, 101
74, 68
45, 29
21, 15
9, 7
9, 5
2, 4
4, 1
4, 3
2, 1
1, 0
0, 1
1, 0
0, 3
2, 2
3, 1
3, 5
2, 0
0, 2
4, 3
5, 3
5, 5
0, 4
3, 3
1, 0
5, 2
7, 0
4, 4
9, 6
11, 9
31, 8
49, 14
66, 14
136, 20
149, 27
163, 29
164, 32
164, 36
137, 29
100, 26
65, 21
53, 24
46, 22
27, 28
29, 24
14, 20
18, 22
17, 17
7, 13
12, 9
8, 5
10, 4
3, 7
3, 3
1, 2
1, 3
3, 2
2, 2
0, 1
3, 1
2, 1
3, 6
1, 2
1, 4
3, 1
2, 3
3, 0
4, 0
4, 2
7, 4
4, 2
20, 2
20, 3
19, 3
28, 9
21, 9
27, 19
14, 11
26, 11
26, 21
35, 11
30, 9
32, 9
32, 3
36, 1
31, 2
24, 3
28, 6
14, 4
12, 2
7, 1
6, 4
8, 5
6, 1
5, 4
0, 6
2, 4
2, 3
6, 4
6, 5
3, 5
7, 3
2, 3
5, 5
2, 3
6, 2
2, 4
8, 9
3, 9
4, 4
12, 10
4, 17
11, 13
8, 22
12, 26
11, 19
7, 25
14, 26
14, 14
14, 24
18, 10
23, 21
11, 17
6, 10
12, 5
7, 9
10, 8
4, 1
8, 1
5, 5
11, 4
9, 5
8, 8
6, 4
6, 8
5, 5
7, 4
9, 6
9, 7
6, 5
5, 5
16, 8
8, 7
22, 9
16, 6
25, 10
21, 4
23, 11
34, 8
38, 8
32, 9
17, 8
19, 12
17, 11
27, 16
13, 14
16, 24
12, 16
17, 22
10, 42
7, 42
10, 64
11, 75
8, 95
13, 74
18, 95
24, 68
32, 64
37, 69
47, 74
55, 93
56, 70
66, 62
70, 61
62, 44
41, 48
37, 35
30, 13
22, 18
19, 15
21, 11
27, 25
36, 25
49, 51
98, 102
161, 181
352, 313
534, 520
777, 855
1232, 1245
1705, 1694
2042, 2069
2519, 2226
2624, 2321
2553, 2186
2285, 1854
1866, 1488
1416, 1050
974, 697
626, 423
406, 234
200, 105
103, 83
63, 46
68, 30
34, 18
22, 15
29, 18
20, 12
23, 23
23, 23
31, 38
30, 46
42, 41
54, 81
110, 136
156, 161
218, 228
267, 296
343, 309
362, 368
362, 328
364, 331
319, 247
263, 196
219, 154
136, 111
110, 76
68, 34
27, 37
25, 23
10, 18
7, 31
8, 33
8, 31
7, 29
14, 22
12, 29
15, 23
15, 17
22, 19
22, 8
15, 14
14, 11
8, 5
4, 4
8, 3
9, 5
3, 1
7, 4
10, 4
5, 4
5, 3
6, 5
4, 8
7, 3
7, 3
9, 11
10, 6
18, 5
18, 4
7, 6
14, 5
15, 4
10, 5
8, 3
9, 4
14, 3
7, 4
11, 7
9, 6
8, 8
7, 7
7, 7
7, 4
4, 4
9, 6
6, 10
3, 6
3, 6
3, 7
3, 13
10, 15
4, 5
6, 5
3, 12
9, 10
2, 13
6, 12
2, 5
4, 6
6, 6
2, 4
7, 6
4, 5
4, 5
7, 4
3, 4
3, 2
2, 6
2, 2
5, 4
3, 3
4, 3
11, 5
8, 2
4, 3
9, 4
7, 5
5, 4
10, 4
8, 1
5, 3
17, 3
9, 6
12, 3
13, 1
10, 3
16, 4
7, 1
13, 4
15, 5
8, 5
7, 8
6, 7
7, 5
6, 3
10, 7
6, 6
2, 5
4, 5
5, 5
6, 5
8, 2
8, 5
5, 3
5, 2
2, 1
2, 5
4, 2
4, 0
6, 5
6, 4
3, 1
2, 6
3, 5
1, 5
2, 4
3, 2
0, 4
5, 7
1, 6
6, 3
1, 5
1, 7
4, 8
2, 7
1, 10
4, 8
6, 2
1, 1
5, 3
6, 5
4, 1
5, 2
5, 1
6, 2
5, 3
4, 1
7, 4
3, 2
5, 3
2, 3
5, 3
4, 1
1, 2
6, 2
2, 4
2, 1
4, 4
6, 0
5, 1
5, 5
0, 4
4, 7
4, 4
5, 1
1, 0
5, 1
3, 1
1, 5
4, 0
2, 3
3, 1
2, 4
1, 3
0, 1
4, 1
5, 1
1, 7
1, 2
1, 1
2, 1
4, 2
2, 5
1, 0
2, 4
4, 4
1, 2
1, 3
0, 4
5, 7
5, 3
5, 1
3, 1
2, 1
4, 0
3, 1
1, 4
2, 1
1, 3
5, 1
6, 0
4, 0
4, 2
3, 0
2, 1
4, 1
2, 1
2, 1
1, 2
1, 2
4, 3
1, 5
0, 3
4, 1
1, 1
1, 1
2, 1
1, 3
3, 4
2, 3
4, 1
1, 0
1, 3
0, 4
0, 2
2, 2
3, 1
0, 2
2, 0
4, 0
0, 0
1, 4
1, 1
2, 3
1, 2
3, 3
2, 1
3, 7
1, 1
5, 4
1, 3
2, 8
4, 4
5, 4
2, 2
4, 0
6, 0
0, 0
2, 1
2, 1
3, 1
5, 3
1, 1
0, 2
2, 2
2, 4
3, 4
0, 3
0, 3
4, 0
0, 2
3, 1
4, 4
2, 0
2, 2
1, 2
1, 1
0, 0
1, 0
4, 3
1, 1
1, 1
2, 0
2, 0
3, 0
1, 1
0, 0
1, 3
1, 1
3, 0
1, 1
2, 1
1, 1
2, 0
1, 4
0, 0
0, 0
1, 1
2, 1
2, 0
1, 1
1, 0
1, 1
3, 0
3, 2
1, 0
1, 1
1, 2
3, 2
0, 0
1, 1
2, 2
0, 2
3, 1
2, 2
1, 1
1, 2
1, 1
1, 0
2, 0
0, 0
1, 4
0, 1
0, 0
1, 1
2, 2
1, 0
0, 1
1, 0
1, 0
1, 0
0, 2
0, 3
0, 1
1, 2
0, 2
1, 0
1, 0
0, 1
0, 1
1, 0
1, 0
1, 0
0, 0
0, 0
1, 0
1, 1
0, 0
1, 1
0, 0
1, 3
1, 1
1, 0
0, 1
0, 0
0, 0
1, 1
0, 1
0, 0
1, 2
2, 0
1, 2
1, 1
0, 1
2, 0
0, 1
0, 1
0, 0
2, 1
0, 0
0, 0
0, 2
2, 1
2, 1
1, 0
1, 0
0, 0
0, 0
0, 1
1, 1
0, 1
2, 0
0, 0
0, 0
0, 0
1, 2
1, 1
1, 1
0, 1
0, 1
0, 0
1, 0
1, 1
1, 0
0, 0
1, 0
1, 0
0, 2
0, 0
0, 1
0, 1
0, 2
2, 3
1, 0
0, 0
0, 1
0, 0
0, 0
0, 1
0, 0
0, 0
2, 0
0, 0
0, 0
0, 0
1, 0
0, 0
0, 0
0, 0
0, 0
2, 1
0, 1
1, 0
1, 0
0, 1
0, 0
0, 1
0, 1
1, 0
1, 0
1, 0
1, 0
0, 0
0, 0
0, 1
1, 0
0, 0
0, 2
0, 1
0, 0
0, 1
0, 0
0, 0
0, 0
1, 1
0, 0
1, 1
0, 0
0, 0
0, 0
0, 0
2, 0
1, 0
0, 0
0, 0
0, 0
1, 0
0, 0
0, 1
0, 0
0, 1
0, 0
0, 1
0, 0
1, 0
0, 0
0, 1
0, 2
1, 0
0, 1
0, 1
0, 0
1, 1
0, 0
1, 0
1, 1
0, 0
0, 1
1, 1
0, 0
0, 0
3, 0
0, 0
0, 0
1, 0
0, 0
0, 1
0, 0
0, 0
0, 1
0, 0
1, 1
0, 1
0, 0
0, 0
1, 0
0, 1
0, 1
0, 0
0, 0
0, 0
1, 1
0, 0
1, 0
0, 1
0, 0
0, 0
1, 0
0, 0
1, 1
0, 0
0, 0
0, 0
0, 1
0, 1
0, 0
0, 0
2, 0
1, 1
0, 0
1, 2
0, 0
0, 1
0, 0
0, 0
0, 0
1, 0
0, 0
1, 0
0, 0
0, 0
1, 0
0, 0
0, 0
0, 0
0, 0
0, 1
1, 0
0, 0
0, 0
0, 0
0, 0
0, 0
0, 0
0, 1
0, 0
0, 0
0, 0
1, 0
0, 0
0, 0
0, 0
0, 0
0, 0
0, 0
0, 0
0, 0
0, 2
0, 0
0, 1
0, 0
0, 0
0, 0
0, 0
0, 0
0, 0
1, 0
0, 0
0, 0
0, 0
0, 0
0, 1
0, 0
0, 0
0, 0
0, 0
1, 0
0, 0
0, 0
0, 0
0, 0
0, 0
0, 0
1, 0
0, 0
0, 0
0, 0
0, 0
0, 0
0, 0
0, 0
0, 0
0, 0
0, 0
0, 0
0, 0
0, 1
0, 0
0, 0
0, 0
0, 0
0, 0
0, 1
0, 0
0, 0
0, 0
0, 0
0, 0
0, 0
0, 0
0, 0
0, 0
0, 0
0, 0
0, 0
0, 0
0, 0
0, 0
0, 0
0, 1
0, 0
0, 0
0, 0
0, 1
0, 0
0, 0
1, 0
1, 0
0, 0
0, 0
0, 0
0, 0
0, 0
0, 0
0, 0
0, 0
0, 0
0, 0
0, 0
0, 0
0, 0
0, 0
0, 0
0, 0
1, 0
0, 0
0, 0
0, 0
1, 0
0, 0
0, 0
0, 0
0, 0
0, 0
0, 0
0, 0
0, 0
0, 0
0, 0
0, 0
0, 0
0, 0
0, 0
0, 0
0, 0
0, 0
0, 0
0, 0
0, 0
0, 0
0, 0
0, 0
0, 0
0, 0
0, 0
0, 0
0, 0
0, 0
0, 0
0, 0
0, 0
0, 0
0, 0
0, 0
0, 0
0, 0
0, 0
0, 0
0, 0
0, 0
0, 0
0, 0
0, 0
0, 0
0, 0
0, 0
0, 0
0, 0
1, 0
0, 0
0, 0
0, 0
0, 0
0, 0
0, 0
0, 0
0, 0
0, 0
0, 0
0, 0
0, 0
0, 0
0, 0
0, 0
0, 0
0, 0
0, 0
0, 0
0, 0
0, 0
0, 0
0, 0
0, 0
1, 0
0, 0
0, 0
0, 0
0, 0
0, 0
0, 0
0, 0
0, 0
0, 0
0, 0
0, 0
0, 0
0, 0
0, 0
0, 0
0, 0
0, 0
0, 0
0, 0
0, 0
0, 0
0, 0
0, 0
0, 0
0, 0
0, 0
0, 0
0, 0
0, 0
0, 0
0, 0
0, 0
0, 0
0, 0
0, 0
0, 0
0, 0
0, 0
0, 0
0, 0
0, 0
0, 0
0, 0
0, 0
0, 0
0, 0
0, 0
0, 0
0, 0
0, 0
0, 0
0, 0
0, 0
0, 0
0, 0
0, 0
0, 0
0, 0
0, 0
0, 0
0, 0
0, 0
0, 0
0, 0
0, 0
0, 0
0, 0
0, 0
0, 0
0, 0
0, 0
0, 0
0, 0
0, 0
0, 0
0, 0
0, 0
0, 0
0, 0
0, 0
0, 0
0, 0
0, 0
0, 0
0, 0
0, 0
0, 0
0, 0
0, 0
0, 0
0, 0
0, 0
0, 0
0, 0
0, 0
0, 0
0, 0
0, 0
0, 0
0, 0
0, 0
0, 0
0, 0
0, 0
0, 0
0, 0
0, 0
0, 0
0, 0
0, 0
0, 0
0, 0
0, 0
0, 0
0, 0
0, 0
0, 0
0, 0
0, 0
0, 0
0, 0
0, 0
0, 0
0, 0
0, 0
0, 0
0, 0
0, 0
0, 0
0, 0
0, 0
0, 0
0, 0
0, 0
0, 0
0, 0
0, 0
0, 0
0, 0
0, 0
0, 0
0, 0
0, 0
0, 0
0, 0
0, 0
0, 0
0, 0
0, 0
0, 0
0, 0
0, 0
0, 0
0, 0
0, 0
0, 0
0, 0
0, 0
0, 0
0, 0
0, 0
0, 0
0, 0
0, 0
0, 0
0, 0
0, 0
0, 0
0, 0
0, 0
0, 0
0, 0
0, 0
0, 0
0, 0
0, 0
0, 0
0, 0
0, 0
0, 0
0, 0
0, 0
0, 0
0, 0
0, 0
0, 0
0, 0
0, 0
0, 0
0, 0
0, 0
0, 0
0, 0
0, 0
0, 0
0, 0
0, 0
0, 0
0, 0
0, 0
0, 0
0, 0
0, 0
0, 0
0, 0
0, 0
0, 0
0, 0
0, 0
0, 0
0, 0
0, 0
0, 0
0, 0
0, 0
0, 0
0, 0
0, 0
0, 0
0, 0
0, 0
0, 0
0, 0
0, 0
0, 0
0, 0
0, 0
0, 0
0, 0
0, 0
0, 0
0, 0
0, 0
0, 0
0, 0
0, 0
0, 0
0, 0
0, 0
0, 0
0, 0
0, 0
0, 0
0, 0
0, 0
0, 0
0, 0
0, 0
0, 0
0, 0
0, 0
0, 0
0, 0
0, 0
0, 0
0, 0
0, 0
0, 0
0, 0
0, 0
0, 0
0, 0
0, 0
0, 0
0, 0
0, 0
0, 0
0, 0
0, 0
0, 0
0, 0
0, 0
0, 0
0, 0
0, 0
0, 0
0, 0
0, 0
0, 0
0, 0
0, 0
0, 0
0, 0
0, 0
0, 0
0, 0
0, 0
0, 0
0, 0
0, 0
0, 0
0, 0
0, 0
0, 0
0, 0
0, 0
0, 0
0, 0
0, 0
0, 0
0, 0
0, 0
0, 0
0, 0
0, 0
0, 0
0, 0
0, 0
0, 0
0, 0
0, 0
0, 0
0, 0
0, 0
0, 0
0, 0
0, 0
0, 0
0, 0
0, 0
0, 0
0, 0
0, 0
0, 0
0, 0
0, 0
0, 0
0, 0
0, 0
0, 0
0, 0
0, 0
0, 0
0, 0
0, 0
0, 0
0, 0
0, 0
0, 0
0, 0
0, 0
0, 0
0, 0
0, 0
0, 0
0, 0
0, 0
0, 0
0, 0
0, 0
0, 0
#ENDOFDATA     end of spectrum data