File: host_upload/06-09-2024/ps_0852/dump3/ps__0852shot_2251.msa
#FORMAT      : EMSA/MAS spectral data file
#VERSION     : TC202v2.0 PIXL
#TITLE       : N/A
#DATE        :       Date in the format DD-MMM-YYYY, for example 07-JUL-2010
#TIME        :             The time of day at which the spectrum was recorded, in 24-hour format
#OWNER       : PIXL Flight Model       (PIXL will use this to indicate which instrument took the data.)
#NPOINTS     : 4096     Number of data points in the spectrum (This can be zero for configuration only files)
#NCOLUMNS    : 2     Number of data columns in the spectrum (This can be zero for configuration only files)
#XUNITS      : eV
#YUNITS      : COUNTS
#DATATYPE    : YY
#XPERCHAN    : 7.862, 7.881   eV per channel (separate by commas if more than one detector)
#OFFSET      : 18.5, -22.4         eV of first channel  (separate by commas if more than one detector
#SIGNALTYPE  : XRF
#YP_TEMP     : 2.46
#LIVETIME    : 8.55148, 8.57957   seconds (separate by commas if more than one detector)
#REALTIME    : 10, 10.0   seconds (separate by commas if more than one detector)
#SPECTRUM    : start of spectrum data
0, 0
0, 0
0, 0
0, 0
0, 0
0, 0
0, 0
0, 0
0, 0
0, 0
0, 0
0, 0
0, 0
0, 0
0, 0
0, 0
0, 0
0, 0
0, 0
0, 0
0, 0
0, 0
0, 0
0, 0
0, 0
0, 0
0, 0
0, 0
0, 0
0, 0
0, 0
0, 0
0, 0
1, 1
0, 0
0, 1
0, 0
0, 0
0, 0
0, 3
0, 1
1, 0
0, 1
1, 1
1, 0
0, 3
3, 1
1, 3
5, 9
15, 7
21, 19
39, 31
70, 56
93, 75
82, 88
88, 80
54, 70
33, 45
34, 23
16, 14
9, 5
6, 10
5, 5
3, 7
5, 5
2, 7
7, 3
12, 8
16, 17
48, 60
93, 104
183, 160
296, 291
385, 381
441, 421
463, 426
422, 324
309, 278
217, 179
104, 123
92, 68
37, 34
22, 14
9, 6
11, 8
4, 0
3, 1
1, 0
3, 1
0, 4
0, 2
1, 0
1, 0
2, 0
4, 1
4, 3
4, 1
3, 7
2, 4
4, 3
4, 3
4, 2
3, 5
4, 7
2, 1
7, 2
4, 1
4, 10
10, 6
8, 14
10, 18
23, 14
30, 20
34, 25
31, 36
44, 24
32, 28
29, 29
27, 27
18, 21
18, 26
22, 21
18, 14
15, 14
12, 14
12, 10
13, 16
15, 10
10, 8
7, 4
8, 5
11, 4
3, 1
3, 1
1, 0
3, 1
0, 0
2, 2
0, 1
3, 1
3, 3
2, 2
1, 1
2, 3
2, 2
7, 0
6, 1
19, 2
21, 1
26, 1
23, 0
39, 1
45, 4
45, 4
46, 12
43, 14
45, 9
40, 18
28, 21
23, 11
14, 9
9, 9
8, 4
6, 1
3, 2
2, 3
5, 4
4, 3
6, 4
3, 3
2, 5
3, 2
4, 4
5, 3
3, 3
2, 1
3, 1
3, 4
4, 6
3, 1
3, 6
5, 2
2, 3
3, 2
3, 3
3, 4
4, 2
4, 7
5, 8
5, 13
1, 11
9, 11
9, 9
11, 13
13, 21
14, 14
7, 11
13, 15
10, 18
17, 14
8, 15
3, 14
12, 4
6, 4
9, 4
5, 6
4, 5
9, 6
7, 2
2, 12
2, 4
9, 5
8, 6
5, 9
3, 11
3, 8
5, 6
4, 7
4, 4
8, 3
7, 6
7, 5
10, 2
14, 6
15, 11
16, 14
14, 13
22, 11
27, 17
19, 15
26, 16
23, 22
24, 12
28, 16
16, 19
19, 8
15, 10
10, 13
8, 3
9, 16
11, 6
12, 8
12, 12
13, 11
14, 16
25, 18
32, 35
39, 41
61, 48
68, 50
67, 56
78, 65
78, 66
88, 40
70, 29
61, 26
63, 23
41, 19
48, 15
24, 15
32, 20
29, 33
38, 46
91, 86
146, 213
290, 338
507, 609
808, 940
1219, 1277
1716, 1768
2060, 2187
2347, 2322
2522, 2362
2602, 2227
2247, 1970
1895, 1483
1391, 1040
1015, 743
658, 458
391, 243
201, 135
130, 64
72, 55
31, 28
18, 23
13, 18
16, 14
24, 19
11, 18
23, 18
26, 26
47, 38
72, 39
84, 84
126, 123
173, 145
232, 257
263, 260
341, 332
362, 397
404, 326
415, 333
335, 272
260, 227
202, 156
150, 82
79, 69
66, 43
31, 26
13, 7
13, 8
13, 2
7, 9
13, 6
9, 8
13, 10
11, 9
13, 11
18, 14
9, 5
8, 11
7, 5
4, 7
8, 11
1, 3
2, 4
3, 2
2, 5
2, 2
3, 4
9, 2
1, 4
7, 5
3, 7
1, 7
3, 5
1, 6
8, 5
6, 5
2, 6
2, 8
5, 4
2, 8
3, 17
7, 15
5, 16
3, 21
7, 15
5, 13
4, 17
7, 17
7, 6
3, 8
5, 8
7, 6
4, 2
2, 3
3, 3
2, 4
8, 3
3, 4
4, 2
4, 6
2, 2
2, 3
7, 3
1, 5
2, 5
3, 4
0, 3
5, 4
3, 8
7, 1
9, 7
5, 2
6, 3
14, 1
13, 2
17, 5
25, 4
29, 4
18, 3
25, 2
21, 5
19, 2
17, 6
13, 3
13, 0
3, 3
8, 1
1, 4
5, 1
2, 1
4, 2
3, 3
5, 6
5, 1
6, 4
3, 0
7, 4
9, 3
8, 5
1, 2
4, 3
10, 0
7, 5
4, 7
4, 2
6, 3
0, 4
2, 4
2, 5
2, 3
0, 4
6, 5
1, 2
3, 1
1, 1
1, 5
0, 3
3, 1
3, 0
4, 4
6, 0
2, 4
2, 1
6, 4
4, 4
5, 3
2, 4
5, 3
1, 2
5, 0
4, 0
1, 1
3, 3
4, 2
2, 2
2, 0
4, 1
2, 4
6, 3
4, 2
3, 3
3, 3
5, 1
2, 1
5, 2
2, 6
2, 1
3, 2
8, 1
5, 2
8, 5
4, 0
5, 1
5, 3
5, 2
2, 5
5, 1
5, 3
7, 2
1, 3
5, 4
4, 11
3, 0
7, 1
1, 1
4, 0
2, 5
5, 4
2, 4
2, 3
1, 0
2, 3
4, 1
5, 3
2, 1
2, 4
6, 4
2, 2
1, 3
0, 3
4, 2
4, 2
2, 3
2, 4
0, 5
3, 0
2, 1
4, 1
1, 3
2, 3
2, 1
3, 1
1, 2
1, 2
3, 3
3, 1
3, 1
1, 2
2, 1
3, 5
1, 2
0, 6
2, 2
3, 3
5, 1
2, 1
3, 0
3, 3
2, 4
2, 4
5, 1
2, 1
2, 0
3, 2
2, 3
1, 0
4, 1
3, 2
5, 2
1, 3
3, 3
1, 0
3, 1
2, 2
3, 0
2, 2
1, 1
2, 1
1, 1
3, 3
1, 4
3, 3
4, 2
5, 6
3, 0
1, 4
4, 6
1, 2
9, 3
11, 4
5, 9
6, 3
5, 4
7, 3
10, 5
4, 1
9, 2
2, 1
1, 2
3, 2
4, 1
2, 4
1, 1
1, 3
1, 3
0, 2
1, 0
1, 3
1, 2
3, 5
0, 1
0, 5
0, 2
0, 3
2, 1
1, 0
2, 3
2, 2
2, 0
2, 1
0, 0
1, 1
1, 1
3, 1
2, 1
0, 2
0, 1
1, 1
1, 1
0, 3
2, 0
2, 1
1, 4
0, 3
0, 0
2, 1
1, 0
1, 2
4, 2
0, 2
3, 2
1, 2
1, 0
0, 1
0, 2
1, 0
1, 2
2, 1
3, 1
1, 0
1, 1
0, 0
0, 0
3, 0
2, 4
0, 1
0, 1
1, 1
1, 2
0, 1
2, 1
0, 0
0, 1
2, 1
0, 1
2, 0
2, 1
0, 0
1, 0
3, 1
0, 1
0, 1
1, 0
3, 0
3, 0
0, 0
1, 0
0, 0
3, 1
0, 0
2, 1
1, 0
0, 2
1, 0
2, 0
0, 0
0, 0
0, 1
0, 1
1, 0
0, 0
0, 0
1, 0
1, 1
0, 2
0, 0
2, 0
4, 1
1, 1
2, 1
1, 0
2, 1
0, 0
0, 1
3, 0
1, 1
0, 4
0, 0
0, 0
0, 1
1, 1
0, 0
0, 0
1, 3
0, 1
0, 0
0, 0
0, 0
3, 0
1, 0
4, 0
0, 0
0, 0
0, 1
1, 0
0, 0
2, 0
0, 2
1, 0
1, 0
0, 1
0, 0
1, 1
0, 1
2, 1
0, 0
0, 1
0, 0
0, 0
0, 1
1, 1
0, 0
0, 0
0, 0
0, 1
0, 0
1, 0
0, 1
0, 0
1, 0
0, 0
1, 0
1, 0
1, 0
1, 0
1, 1
1, 1
0, 0
1, 0
0, 0
0, 0
0, 0
0, 0
0, 0
0, 0
1, 0
0, 1
0, 0
0, 0
0, 1
0, 1
1, 0
0, 1
0, 1
0, 1
0, 0
0, 0
0, 0
1, 1
0, 0
0, 1
0, 3
0, 0
0, 0
1, 3
1, 0
0, 0
0, 0
0, 0
0, 0
0, 0
0, 0
0, 1
1, 0
0, 0
0, 0
0, 0
0, 0
0, 0
0, 0
0, 1
1, 0
1, 0
0, 0
0, 1
0, 1
1, 0
0, 0
0, 0
1, 0
0, 0
0, 0
0, 1
0, 2
0, 0
0, 1
0, 0
0, 0
0, 0
0, 0
0, 1
0, 0
0, 0
0, 1
0, 0
1, 0
0, 1
0, 0
1, 0
0, 1
0, 0
0, 0
1, 0
0, 1
0, 0
0, 0
0, 0
0, 1
0, 1
1, 1
0, 0
0, 0
0, 0
0, 0
0, 0
1, 0
0, 0
0, 0
0, 0
0, 0
0, 0
0, 1
0, 1
0, 0
0, 0
1, 0
0, 0
1, 0
0, 0
0, 0
0, 0
2, 0
0, 0
1, 0
0, 0
0, 1
0, 1
0, 0
0, 1
0, 1
0, 0
0, 0
0, 0
0, 0
0, 1
1, 1
1, 0
0, 0
0, 0
1, 0
0, 1
0, 0
0, 0
0, 0
0, 0
0, 0
0, 0
0, 0
0, 0
1, 0
0, 0
0, 0
0, 0
0, 0
0, 0
0, 0
0, 0
0, 0
0, 0
0, 0
0, 1
0, 0
0, 0
0, 0
0, 0
0, 0
0, 1
0, 0
0, 0
0, 1
0, 0
0, 0
0, 0
0, 0
1, 0
0, 0
0, 0
0, 0
0, 2
0, 0
0, 0
0, 0
0, 0
0, 0
0, 0
0, 0
0, 0
0, 0
0, 0
0, 0
0, 0
0, 0
0, 0
1, 0
0, 0
0, 0
1, 0
0, 0
0, 0
0, 1
0, 0
0, 0
0, 0
1, 0
0, 0
0, 0
0, 0
0, 0
0, 0
0, 0
0, 0
0, 0
0, 0
0, 0
0, 0
0, 0
0, 0
0, 0
0, 0
0, 0
0, 0
0, 0
0, 1
0, 0
0, 0
0, 0
0, 0
0, 0
0, 0
0, 0
0, 0
0, 0
0, 0
0, 0
0, 0
0, 0
0, 0
0, 0
0, 0
0, 0
0, 0
0, 0
0, 0
0, 2
0, 0
0, 0
0, 0
0, 0
0, 0
0, 0
0, 0
0, 0
0, 0
0, 0
0, 0
0, 0
0, 0
0, 0
0, 0
0, 0
0, 0
0, 0
0, 0
0, 0
0, 0
0, 0
0, 0
0, 0
0, 0
0, 0
0, 0
0, 0
0, 0
0, 0
0, 0
0, 0
1, 0
0, 0
0, 0
1, 0
0, 0
0, 0
0, 0
0, 0
0, 0
1, 0
0, 0
0, 0
0, 0
0, 0
0, 0
1, 0
0, 1
0, 0
0, 0
0, 0
0, 0
0, 0
0, 0
0, 0
0, 0
0, 0
0, 0
0, 0
0, 0
0, 0
0, 0
0, 0
0, 1
0, 0
0, 0
0, 0
0, 0
0, 0
0, 0
0, 0
0, 0
0, 0
0, 0
0, 0
0, 0
0, 0
0, 0
0, 0
0, 0
0, 0
0, 0
0, 0
0, 0
0, 0
0, 0
0, 0
0, 0
0, 0
0, 0
0, 0
0, 0
0, 0
0, 0
0, 0
0, 0
0, 0
0, 0
0, 0
0, 0
0, 0
0, 0
0, 0
0, 0
0, 0
0, 0
0, 0
0, 0
0, 0
0, 0
0, 0
0, 0
0, 0
0, 0
0, 0
0, 0
0, 0
0, 0
0, 0
0, 0
0, 0
0, 0
0, 0
0, 0
0, 0
0, 0
0, 0
0, 0
0, 0
0, 0
0, 0
0, 0
0, 0
0, 0
0, 0
0, 0
0, 0
0, 0
0, 0
0, 0
0, 0
0, 0
0, 0
0, 0
0, 0
0, 0
0, 0
0, 0
0, 0
0, 0
0, 0
0, 0
0, 0
0, 0
0, 0
0, 0
0, 0
0, 0
0, 0
0, 0
0, 0
0, 0
0, 0
0, 0
0, 0
0, 0
0, 0
0, 0
0, 0
0, 0
0, 0
0, 0
0, 0
0, 0
0, 0
0, 0
0, 0
0, 0
0, 0
0, 0
0, 0
0, 0
0, 0
0, 0
0, 0
0, 0
0, 0
0, 0
0, 0
0, 0
0, 0
0, 0
0, 0
0, 0
0, 0
0, 0
0, 0
0, 0
0, 0
0, 0
0, 0
0, 0
0, 0
0, 0
0, 0
0, 0
0, 0
0, 0
0, 0
0, 0
0, 0
0, 0
0, 0
0, 0
0, 0
1, 0
0, 0
0, 0
0, 0
0, 0
0, 0
0, 0
0, 0
0, 0
0, 0
0, 0
0, 0
0, 0
0, 0
0, 0
0, 0
0, 0
0, 0
0, 0
0, 0
0, 0
0, 0
0, 0
0, 0
0, 0
0, 0
0, 0
0, 0
0, 0
0, 0
0, 0
0, 0
0, 0
0, 0
0, 0
0, 0
0, 0
0, 0
0, 0
0, 0
0, 0
0, 0
0, 0
0, 0
0, 0
0, 0
0, 0
0, 0
0, 0
0, 0
0, 0
0, 0
0, 0
0, 0
0, 0
0, 0
0, 0
0, 0
0, 0
0, 0
0, 0
0, 0
0, 0
0, 0
0, 0
0, 0
0, 0
0, 0
0, 0
0, 0
0, 0
0, 0
0, 0
0, 0
0, 0
0, 0
0, 0
0, 0
0, 0
0, 0
0, 0
0, 0
0, 0
0, 0
0, 0
0, 0
0, 0
0, 0
0, 0
0, 0
0, 0
0, 0
0, 0
0, 0
0, 0
0, 0
0, 0
0, 0
0, 0
0, 0
0, 0
0, 0
0, 0
0, 0
0, 0
0, 0
0, 0
0, 0
0, 0
0, 0
0, 0
0, 0
0, 0
0, 0
0, 0
0, 0
0, 0
0, 0
0, 0
0, 0
0, 0
0, 0
0, 0
0, 0
0, 0
0, 0
0, 0
0, 0
0, 0
0, 0
0, 0
0, 0
0, 0
0, 0
0, 0
0, 0
0, 0
0, 0
0, 0
0, 0
0, 0
0, 0
0, 0
0, 0
0, 0
0, 0
0, 0
0, 0
0, 0
0, 0
0, 0
0, 0
0, 0
0, 0
0, 0
0, 0
0, 0
0, 0
0, 0
0, 0
0, 0
0, 0
0, 0
0, 0
0, 0
0, 0
0, 0
0, 0
0, 0
0, 0
0, 0
0, 0
0, 0
0, 0
0, 0
0, 0
0, 0
0, 0
0, 0
0, 0
0, 0
0, 0
0, 0
0, 0
0, 0
0, 0
0, 0
0, 0
0, 0
0, 0
0, 0
0, 0
0, 0
0, 0
0, 0
0, 0
0, 0
0, 0
0, 0
0, 0
0, 0
0, 0
0, 0
0, 0
0, 0
0, 0
0, 0
0, 0
0, 0
0, 0
0, 0
0, 0
0, 0
#ENDOFDATA     end of spectrum data