File: host_upload/06-09-2024/ps_0852/dump3/ps__0852shot_2031.msa
#FORMAT      : EMSA/MAS spectral data file
#VERSION     : TC202v2.0 PIXL
#TITLE       : N/A
#DATE        :       Date in the format DD-MMM-YYYY, for example 07-JUL-2010
#TIME        :             The time of day at which the spectrum was recorded, in 24-hour format
#OWNER       : PIXL Flight Model       (PIXL will use this to indicate which instrument took the data.)
#NPOINTS     : 4096     Number of data points in the spectrum (This can be zero for configuration only files)
#NCOLUMNS    : 2     Number of data columns in the spectrum (This can be zero for configuration only files)
#XUNITS      : eV
#YUNITS      : COUNTS
#DATATYPE    : YY
#XPERCHAN    : 7.862, 7.881   eV per channel (separate by commas if more than one detector)
#OFFSET      : 18.5, -22.4         eV of first channel  (separate by commas if more than one detector
#SIGNALTYPE  : XRF
#YP_TEMP     : 2.556
#LIVETIME    : 8.55665, 8.56448   seconds (separate by commas if more than one detector)
#REALTIME    : 10, 10.0   seconds (separate by commas if more than one detector)
#SPECTRUM    : start of spectrum data
0, 0
0, 0
0, 0
0, 0
0, 0
0, 0
0, 0
0, 0
0, 0
0, 0
0, 0
0, 0
0, 0
0, 0
0, 0
0, 0
0, 0
0, 0
0, 0
0, 0
0, 0
0, 0
0, 0
0, 0
0, 0
0, 0
0, 0
0, 0
0, 0
0, 0
0, 0
0, 0
1, 0
0, 0
0, 0
0, 0
0, 0
0, 0
0, 1
2, 0
0, 0
1, 0
1, 1
1, 1
4, 3
2, 2
4, 0
6, 2
2, 7
10, 21
26, 31
44, 42
54, 70
64, 65
85, 78
88, 64
68, 64
51, 34
22, 25
23, 10
9, 8
9, 8
4, 2
3, 4
2, 2
4, 5
6, 5
10, 8
18, 21
50, 44
83, 93
165, 152
239, 273
327, 370
398, 418
428, 398
330, 350
316, 294
201, 207
130, 115
62, 70
36, 30
29, 15
7, 12
5, 4
1, 5
0, 2
2, 1
2, 0
3, 2
2, 2
2, 1
2, 1
2, 0
5, 4
6, 6
5, 6
6, 6
8, 6
9, 14
7, 8
8, 4
5, 0
7, 4
4, 5
5, 0
4, 5
5, 9
7, 4
12, 6
17, 18
21, 21
27, 24
38, 40
55, 44
50, 37
89, 32
96, 26
73, 26
83, 26
66, 21
80, 17
83, 8
64, 13
61, 14
45, 18
44, 13
32, 11
24, 7
13, 6
12, 7
10, 2
2, 1
4, 4
3, 1
5, 4
5, 1
0, 4
2, 4
2, 1
2, 2
3, 1
2, 3
7, 3
7, 0
4, 4
3, 0
9, 0
10, 1
6, 4
6, 5
9, 3
8, 5
9, 11
7, 11
14, 12
8, 14
10, 11
19, 13
14, 16
12, 15
9, 12
6, 7
10, 4
1, 0
3, 6
4, 2
2, 5
0, 3
4, 5
0, 6
5, 4
6, 5
3, 1
3, 4
3, 4
3, 3
3, 5
2, 1
1, 5
4, 3
0, 1
3, 4
5, 3
5, 0
1, 1
5, 1
6, 4
6, 6
6, 8
5, 11
3, 6
6, 6
13, 11
7, 2
12, 15
7, 11
13, 13
14, 13
11, 17
12, 14
5, 16
12, 16
7, 7
3, 2
14, 0
8, 6
7, 8
14, 4
22, 8
34, 15
22, 4
38, 11
38, 4
44, 17
23, 7
32, 8
24, 3
10, 5
12, 8
8, 5
9, 11
11, 7
8, 7
7, 14
12, 25
13, 27
13, 27
23, 31
19, 37
21, 47
28, 32
52, 25
62, 24
60, 29
76, 15
62, 9
69, 8
56, 7
76, 9
32, 9
24, 6
23, 8
19, 12
27, 20
26, 32
36, 28
40, 53
56, 61
64, 80
89, 107
83, 103
69, 101
53, 56
57, 50
37, 29
22, 29
17, 24
15, 26
18, 18
16, 23
39, 21
47, 64
89, 105
173, 184
282, 337
455, 573
775, 923
1145, 1299
1518, 1862
1845, 2154
2230, 2441
2273, 2489
2195, 2350
2061, 2026
1644, 1561
1312, 1199
903, 773
564, 474
338, 293
211, 137
112, 95
63, 40
53, 29
35, 27
29, 26
21, 13
16, 14
17, 15
18, 20
35, 31
38, 34
70, 51
72, 79
123, 126
158, 166
214, 247
274, 307
316, 345
360, 360
381, 376
362, 360
299, 264
207, 237
189, 152
126, 92
87, 77
51, 41
39, 20
17, 11
14, 10
7, 11
5, 10
14, 12
15, 13
13, 16
26, 16
25, 19
25, 10
31, 12
31, 16
33, 7
31, 7
16, 10
11, 5
23, 1
10, 3
14, 3
6, 5
4, 2
3, 3
3, 3
4, 4
2, 4
3, 3
6, 3
1, 5
4, 4
2, 2
6, 3
5, 3
4, 1
4, 4
7, 6
4, 2
8, 4
6, 3
2, 3
4, 4
3, 4
3, 5
9, 8
7, 11
4, 3
4, 6
3, 8
10, 3
6, 1
5, 4
2, 5
4, 2
2, 5
3, 3
3, 2
7, 3
4, 5
2, 6
3, 4
2, 4
1, 2
4, 2
1, 5
2, 3
4, 3
0, 3
6, 5
1, 3
3, 4
4, 4
2, 4
7, 3
3, 2
2, 2
4, 1
2, 4
3, 1
1, 2
2, 4
2, 4
4, 4
1, 5
1, 5
3, 3
2, 4
5, 5
2, 2
3, 3
7, 2
4, 7
4, 2
4, 4
3, 4
6, 3
5, 4
5, 4
3, 7
3, 5
8, 5
5, 4
4, 3
2, 5
6, 6
7, 3
3, 3
3, 4
2, 3
4, 4
1, 3
2, 5
8, 2
4, 3
4, 3
4, 2
4, 0
5, 3
2, 6
6, 4
2, 3
9, 2
2, 8
3, 5
5, 4
1, 5
7, 3
2, 3
5, 3
0, 3
4, 3
8, 3
3, 2
4, 6
0, 3
5, 4
3, 3
2, 3
2, 1
4, 2
2, 6
4, 6
4, 2
2, 4
2, 1
6, 1
1, 2
3, 1
5, 2
3, 2
3, 1
3, 3
0, 2
1, 4
2, 1
5, 8
0, 3
1, 0
3, 3
4, 1
2, 2
3, 2
2, 2
2, 3
1, 2
0, 2
3, 2
1, 3
3, 3
2, 0
1, 2
2, 1
2, 1
1, 4
3, 1
0, 1
4, 2
1, 1
5, 2
3, 0
3, 6
3, 0
4, 2
4, 1
4, 4
1, 2
4, 2
3, 1
0, 3
2, 7
3, 4
4, 4
5, 10
3, 2
2, 0
2, 5
3, 3
5, 2
1, 2
4, 2
2, 2
3, 3
3, 1
1, 0
1, 1
4, 0
1, 3
4, 2
2, 3
2, 4
1, 2
1, 1
4, 1
2, 1
2, 3
0, 1
0, 3
0, 3
2, 1
2, 3
0, 0
2, 4
1, 1
0, 1
2, 0
1, 4
2, 3
2, 1
3, 2
1, 3
4, 3
2, 4
2, 3
5, 7
4, 4
2, 7
4, 4
3, 5
1, 4
1, 5
1, 3
1, 1
0, 6
1, 1
0, 0
0, 2
1, 1
1, 0
1, 1
1, 5
1, 2
2, 3
0, 3
0, 2
1, 5
1, 3
3, 0
1, 1
1, 1
0, 3
0, 1
1, 3
1, 2
5, 2
0, 3
1, 2
0, 3
0, 6
3, 2
0, 2
0, 0
1, 1
1, 2
0, 0
3, 0
1, 0
2, 1
0, 0
0, 2
1, 4
2, 0
0, 1
1, 0
0, 2
0, 1
0, 2
0, 0
0, 0
1, 0
2, 0
0, 1
1, 2
0, 1
1, 1
1, 3
0, 0
1, 0
0, 1
0, 1
1, 0
2, 1
0, 1
0, 2
2, 1
1, 2
1, 2
0, 1
1, 0
0, 2
2, 1
0, 1
1, 0
0, 1
1, 1
0, 1
0, 1
2, 1
1, 1
0, 0
1, 0
2, 0
0, 1
0, 1
0, 1
1, 1
2, 1
0, 0
1, 1
0, 0
2, 3
0, 1
1, 0
1, 2
0, 2
0, 0
2, 0
3, 0
0, 1
0, 0
1, 3
0, 0
1, 2
1, 1
1, 1
2, 0
0, 1
0, 0
0, 0
3, 1
0, 3
2, 1
0, 1
0, 1
0, 0
0, 0
1, 0
0, 1
0, 0
0, 0
1, 2
0, 0
1, 0
0, 2
0, 0
1, 0
1, 2
0, 1
0, 1
2, 0
0, 0
0, 2
0, 0
2, 1
1, 1
0, 1
0, 0
0, 0
0, 1
1, 0
0, 0
1, 0
1, 0
0, 0
1, 0
0, 0
0, 0
1, 0
0, 0
0, 0
0, 0
0, 0
0, 1
0, 1
0, 2
0, 0
1, 2
0, 0
0, 0
0, 0
0, 0
0, 0
1, 0
0, 1
0, 0
1, 0
0, 0
0, 0
1, 0
0, 1
0, 0
0, 0
0, 0
0, 0
0, 1
0, 0
1, 2
0, 1
0, 1
0, 0
0, 0
0, 2
0, 0
0, 1
0, 0
1, 0
0, 1
0, 1
1, 3
0, 0
0, 1
0, 0
0, 1
0, 0
0, 0
0, 1
0, 0
0, 0
0, 0
1, 0
0, 0
0, 0
1, 1
0, 0
0, 1
1, 1
0, 0
1, 0
0, 0
0, 0
0, 0
0, 0
0, 0
0, 0
1, 1
1, 0
0, 0
0, 0
0, 0
1, 1
0, 0
0, 1
0, 0
0, 0
2, 0
0, 0
0, 0
0, 0
1, 0
1, 1
1, 0
0, 0
0, 0
0, 0
0, 1
0, 0
0, 0
0, 1
0, 0
1, 0
0, 2
0, 0
0, 0
2, 0
0, 0
0, 1
1, 1
0, 0
0, 0
0, 1
0, 0
1, 1
0, 1
1, 0
0, 0
0, 0
0, 0
0, 0
0, 0
1, 0
0, 0
0, 0
1, 0
0, 0
0, 0
0, 0
0, 0
0, 1
1, 0
0, 0
0, 0
0, 0
0, 0
0, 0
0, 0
0, 0
0, 0
0, 0
1, 0
0, 0
2, 0
0, 0
0, 1
0, 0
0, 0
1, 0
0, 0
0, 1
0, 0
1, 0
0, 0
0, 1
1, 0
0, 0
0, 0
0, 0
0, 0
2, 0
0, 0
1, 0
1, 0
0, 0
1, 0
0, 1
1, 0
0, 0
0, 0
1, 0
0, 1
0, 0
0, 0
0, 1
1, 0
0, 0
0, 0
0, 0
0, 0
0, 1
0, 0
0, 0
0, 0
0, 0
0, 0
0, 0
0, 0
0, 0
0, 0
1, 0
0, 0
0, 0
0, 1
0, 0
1, 0
0, 0
0, 0
0, 0
0, 0
1, 0
0, 0
0, 0
0, 0
0, 0
0, 0
0, 0
0, 0
0, 0
0, 0
0, 0
0, 0
0, 0
0, 0
0, 0
0, 0
0, 0
0, 0
0, 0
0, 0
0, 0
0, 0
0, 0
0, 0
0, 0
1, 0
0, 0
0, 1
0, 1
0, 0
0, 0
0, 0
0, 0
0, 1
0, 0
0, 0
0, 0
0, 0
0, 0
0, 0
0, 0
0, 0
0, 0
0, 0
0, 0
0, 0
0, 0
0, 0
0, 0
0, 0
0, 0
0, 0
0, 0
0, 0
0, 0
0, 0
0, 1
0, 0
0, 0
0, 0
0, 0
1, 0
0, 1
0, 0
0, 0
0, 0
0, 0
0, 0
0, 0
0, 0
0, 0
0, 0
0, 0
0, 0
0, 0
0, 0
0, 0
0, 0
0, 0
0, 0
0, 0
0, 0
0, 0
0, 1
0, 0
0, 0
0, 0
0, 0
0, 0
0, 0
0, 0
0, 0
0, 0
0, 0
0, 0
0, 0
0, 0
0, 0
0, 0
0, 0
0, 0
0, 0
0, 0
0, 0
0, 0
0, 0
0, 0
0, 0
1, 0
0, 0
0, 0
0, 0
0, 0
0, 0
0, 0
0, 0
0, 0
0, 0
1, 0
0, 0
0, 0
0, 0
0, 0
0, 0
0, 0
0, 0
0, 0
0, 0
0, 0
0, 0
0, 0
0, 0
0, 0
0, 0
0, 0
0, 0
1, 0
0, 0
0, 0
0, 0
0, 0
0, 0
0, 1
1, 0
0, 0
0, 0
0, 0
0, 0
0, 0
0, 0
0, 0
0, 0
0, 0
0, 0
0, 0
0, 0
0, 0
0, 0
0, 0
0, 0
0, 0
0, 0
0, 0
0, 0
0, 0
0, 0
0, 0
0, 0
0, 0
0, 0
0, 0
0, 0
0, 0
0, 0
0, 0
0, 0
0, 0
0, 0
0, 0
0, 0
0, 0
0, 0
0, 1
0, 0
0, 0
0, 0
0, 0
0, 0
0, 0
0, 0
0, 0
0, 0
0, 0
0, 0
0, 0
0, 0
0, 0
0, 0
0, 0
0, 0
0, 0
0, 0
0, 0
0, 0
0, 0
0, 0
0, 0
0, 0
0, 0
0, 0
0, 0
0, 0
0, 0
0, 0
0, 0
0, 0
0, 0
0, 0
0, 0
0, 0
0, 0
0, 0
0, 0
0, 0
0, 0
0, 0
0, 0
0, 0
0, 0
0, 0
0, 0
0, 0
0, 0
0, 0
0, 0
0, 0
0, 0
0, 0
0, 0
0, 0
0, 0
0, 0
0, 0
0, 0
0, 0
0, 0
0, 0
0, 0
0, 0
0, 0
0, 0
0, 0
0, 0
0, 0
0, 0
0, 0
0, 0
0, 0
0, 0
0, 0
0, 0
0, 0
0, 0
0, 0
0, 0
0, 0
0, 0
0, 0
0, 0
0, 0
0, 0
0, 0
0, 0
0, 0
0, 0
0, 0
0, 0
0, 0
0, 0
0, 0
0, 0
0, 0
0, 0
0, 0
0, 0
0, 0
0, 0
0, 0
0, 0
0, 0
0, 0
0, 0
0, 0
0, 0
0, 0
0, 0
0, 0
0, 0
0, 0
0, 0
0, 0
0, 0
0, 0
0, 0
0, 0
0, 0
0, 0
0, 0
0, 0
0, 0
0, 0
0, 0
0, 0
0, 0
0, 0
0, 0
0, 0
0, 0
0, 0
0, 0
0, 0
0, 0
0, 0
0, 0
0, 0
0, 0
0, 0
0, 0
0, 0
0, 0
0, 0
0, 0
0, 0
0, 0
0, 0
0, 0
0, 0
0, 0
0, 0
0, 0
0, 0
0, 0
0, 0
0, 0
0, 0
0, 0
0, 0
0, 0
0, 0
0, 0
0, 0
0, 0
0, 0
0, 0
0, 0
0, 0
0, 0
0, 0
0, 0
0, 0
0, 0
0, 0
0, 0
0, 0
0, 0
0, 0
0, 0
0, 0
0, 0
0, 0
0, 0
0, 0
0, 0
0, 0
0, 0
0, 0
0, 0
0, 0
0, 0
0, 0
0, 0
0, 0
0, 0
0, 0
0, 0
0, 0
0, 0
0, 0
0, 0
0, 0
0, 0
0, 0
0, 0
0, 0
0, 0
0, 0
0, 0
0, 0
0, 0
0, 0
0, 0
0, 0
0, 0
0, 0
0, 0
0, 0
0, 0
0, 0
0, 0
0, 0
0, 0
0, 0
0, 0
0, 0
0, 0
0, 0
0, 0
0, 0
0, 0
0, 0
0, 0
0, 0
0, 0
0, 0
0, 0
0, 0
0, 0
0, 0
0, 0
0, 0
0, 0
0, 0
0, 0
0, 0
0, 0
0, 0
0, 0
0, 0
0, 0
0, 0
0, 0
0, 0
0, 0
0, 0
0, 0
0, 0
0, 0
0, 0
0, 0
0, 0
0, 0
0, 0
0, 0
0, 0
0, 0
0, 0
0, 0
0, 0
0, 0
0, 0
0, 0
0, 0
0, 0
0, 0
0, 0
0, 0
0, 0
0, 0
0, 0
0, 0
0, 0
0, 0
0, 0
0, 0
0, 0
0, 0
0, 0
0, 0
0, 0
0, 0
0, 0
0, 0
0, 0
#ENDOFDATA     end of spectrum data