File: host_upload/06-09-2024/ps_0852/dump3/ps__0852shot_2170.msa
#FORMAT      : EMSA/MAS spectral data file
#VERSION     : TC202v2.0 PIXL
#TITLE       : N/A
#DATE        :       Date in the format DD-MMM-YYYY, for example 07-JUL-2010
#TIME        :             The time of day at which the spectrum was recorded, in 24-hour format
#OWNER       : PIXL Flight Model       (PIXL will use this to indicate which instrument took the data.)
#NPOINTS     : 4096     Number of data points in the spectrum (This can be zero for configuration only files)
#NCOLUMNS    : 2     Number of data columns in the spectrum (This can be zero for configuration only files)
#XUNITS      : eV
#YUNITS      : COUNTS
#DATATYPE    : YY
#XPERCHAN    : 7.862, 7.881   eV per channel (separate by commas if more than one detector)
#OFFSET      : 18.5, -22.4         eV of first channel  (separate by commas if more than one detector
#SIGNALTYPE  : XRF
#YP_TEMP     : 2.428
#LIVETIME    : 8.5592, 8.55054   seconds (separate by commas if more than one detector)
#REALTIME    : 10, 10.0   seconds (separate by commas if more than one detector)
#SPECTRUM    : start of spectrum data
0, 0
0, 0
0, 0
0, 0
0, 0
0, 0
0, 0
0, 0
0, 0
0, 0
0, 0
0, 0
0, 0
0, 0
0, 0
0, 0
0, 0
0, 0
0, 0
0, 0
0, 0
0, 0
0, 0
0, 0
0, 0
0, 0
0, 0
0, 0
0, 0
0, 0
0, 0
0, 0
0, 0
0, 1
0, 0
0, 0
1, 1
1, 1
0, 1
3, 1
0, 2
2, 0
2, 0
0, 1
0, 3
0, 1
1, 2
1, 5
7, 9
9, 14
16, 21
40, 26
69, 60
63, 71
68, 82
74, 73
74, 66
43, 31
38, 21
18, 11
6, 10
4, 6
2, 3
1, 3
8, 4
5, 4
4, 7
7, 14
32, 22
36, 28
79, 87
158, 152
246, 243
352, 286
356, 369
348, 378
317, 286
247, 248
183, 174
122, 99
65, 60
37, 31
10, 15
5, 9
5, 7
2, 2
3, 2
3, 4
2, 3
2, 2
1, 3
6, 8
10, 17
21, 32
37, 87
56, 116
78, 166
119, 184
138, 240
106, 199
106, 215
95, 188
54, 115
50, 80
35, 43
12, 41
12, 32
10, 30
17, 19
15, 22
22, 31
18, 29
26, 41
30, 50
36, 56
33, 47
27, 44
30, 42
30, 29
32, 34
24, 25
20, 19
18, 21
17, 23
22, 18
20, 13
14, 16
11, 8
9, 5
10, 5
7, 5
3, 6
3, 4
2, 2
2, 0
1, 0
1, 4
0, 3
2, 2
1, 1
3, 1
2, 3
1, 4
2, 0
4, 1
4, 0
1, 2
2, 2
5, 5
4, 5
4, 10
3, 11
10, 17
9, 23
14, 37
14, 51
30, 59
24, 63
28, 62
33, 40
14, 58
8, 49
10, 36
12, 39
5, 26
0, 42
5, 43
2, 25
8, 29
2, 23
5, 17
6, 19
3, 7
6, 8
7, 5
6, 8
3, 5
4, 4
4, 4
2, 5
1, 4
1, 2
2, 4
3, 4
1, 1
4, 3
4, 6
5, 6
8, 1
3, 4
7, 9
11, 12
13, 12
12, 9
8, 7
12, 12
12, 12
16, 13
16, 13
10, 13
6, 13
6, 8
11, 6
7, 8
2, 7
2, 6
6, 4
4, 5
4, 7
3, 12
6, 10
5, 16
11, 15
6, 20
4, 20
2, 8
10, 16
3, 8
3, 13
4, 8
6, 6
3, 5
7, 8
6, 9
8, 14
15, 12
22, 16
19, 28
29, 16
42, 18
50, 23
64, 10
82, 22
71, 12
74, 9
49, 10
52, 7
45, 7
35, 10
26, 10
20, 5
14, 10
15, 7
7, 6
19, 15
17, 19
30, 25
46, 38
52, 42
76, 48
85, 51
91, 65
85, 53
64, 49
70, 24
43, 38
39, 17
42, 16
45, 13
19, 20
24, 22
27, 22
48, 56
78, 97
130, 193
259, 360
409, 594
688, 936
1075, 1299
1450, 1780
1876, 2014
2076, 2381
2258, 2333
2194, 2167
1894, 1939
1541, 1478
1254, 1113
869, 740
583, 454
340, 257
206, 145
92, 75
42, 35
38, 21
13, 10
16, 13
12, 14
12, 11
17, 14
14, 26
32, 23
35, 42
62, 61
74, 81
120, 101
152, 157
215, 223
240, 243
306, 317
329, 369
316, 373
339, 339
288, 259
233, 218
199, 136
134, 92
82, 62
64, 42
33, 27
19, 7
7, 5
8, 9
7, 13
5, 13
10, 8
10, 10
14, 10
10, 7
13, 18
13, 16
9, 7
9, 6
9, 5
7, 8
4, 8
2, 2
6, 7
3, 6
0, 4
3, 6
3, 12
4, 6
7, 11
5, 10
8, 6
5, 11
11, 8
5, 9
6, 13
8, 7
6, 6
4, 4
9, 4
6, 5
4, 8
2, 6
4, 6
4, 2
8, 9
7, 4
2, 4
7, 6
6, 7
8, 6
4, 5
3, 3
7, 3
8, 5
11, 3
9, 3
11, 9
12, 4
13, 2
7, 3
1, 4
9, 9
4, 5
8, 0
4, 8
8, 1
9, 8
5, 4
18, 2
8, 4
10, 2
16, 3
15, 5
20, 7
17, 5
23, 6
22, 4
19, 7
7, 7
15, 12
8, 7
5, 12
6, 6
2, 8
5, 4
4, 4
2, 1
3, 6
6, 3
4, 8
4, 9
4, 5
10, 4
2, 5
3, 4
1, 1
9, 2
10, 2
6, 1
9, 4
8, 4
9, 2
4, 5
6, 6
5, 4
5, 3
5, 7
6, 10
1, 6
3, 3
2, 5
2, 2
3, 4
3, 6
4, 6
5, 2
2, 4
2, 4
3, 3
3, 2
1, 3
1, 4
2, 5
3, 5
1, 1
4, 8
0, 1
1, 4
2, 2
1, 5
2, 7
2, 4
0, 3
1, 2
2, 4
2, 5
7, 4
5, 2
1, 1
3, 1
4, 2
1, 4
2, 3
2, 5
4, 0
2, 4
1, 7
1, 2
4, 1
5, 2
1, 0
4, 6
2, 2
3, 2
1, 1
5, 3
7, 2
4, 1
9, 2
3, 4
3, 7
4, 5
3, 4
10, 3
7, 3
4, 2
6, 2
3, 4
4, 2
3, 0
3, 1
2, 2
2, 2
2, 1
2, 3
2, 0
1, 5
0, 3
3, 1
0, 4
0, 4
2, 1
2, 0
2, 3
3, 4
0, 2
1, 3
0, 2
1, 2
2, 3
1, 1
2, 6
3, 3
1, 4
0, 5
2, 2
0, 4
3, 2
1, 2
3, 4
0, 5
1, 2
1, 4
2, 3
1, 2
2, 2
1, 3
7, 2
0, 4
0, 1
1, 4
3, 3
1, 3
1, 3
4, 6
1, 4
2, 5
4, 3
3, 5
1, 5
4, 3
2, 4
3, 7
2, 2
2, 1
2, 3
0, 3
0, 3
2, 1
2, 2
3, 1
5, 2
3, 0
1, 3
3, 2
2, 3
4, 2
5, 4
2, 4
4, 4
7, 5
3, 4
5, 5
6, 5
5, 5
3, 1
1, 1
2, 2
4, 1
1, 1
2, 0
2, 0
1, 1
1, 0
0, 1
0, 3
2, 0
1, 2
1, 2
1, 2
2, 1
3, 0
0, 0
0, 2
1, 2
2, 2
3, 1
3, 2
4, 4
1, 0
3, 1
3, 1
1, 0
1, 1
1, 1
2, 0
1, 0
0, 2
2, 1
2, 1
0, 0
0, 1
1, 0
0, 1
1, 1
0, 0
3, 0
0, 2
1, 2
2, 1
1, 1
3, 2
0, 3
0, 1
2, 1
1, 0
0, 0
1, 3
1, 2
1, 2
3, 1
1, 1
0, 0
1, 0
1, 2
3, 1
1, 0
0, 0
0, 3
1, 3
0, 1
2, 1
2, 0
2, 1
2, 1
1, 0
1, 2
2, 0
1, 1
2, 0
0, 2
0, 0
0, 1
0, 1
2, 1
0, 2
1, 2
1, 1
0, 2
1, 0
2, 0
0, 2
1, 1
0, 0
3, 1
0, 1
1, 1
0, 1
0, 0
1, 1
0, 0
0, 1
0, 0
0, 0
2, 0
0, 2
0, 0
0, 2
2, 1
2, 1
0, 1
1, 1
1, 2
2, 0
1, 1
0, 2
0, 1
1, 1
0, 0
1, 1
2, 0
1, 0
2, 1
0, 0
0, 1
1, 0
0, 0
1, 0
1, 0
0, 0
0, 1
0, 1
3, 0
0, 0
0, 0
1, 1
0, 1
0, 0
0, 0
0, 0
1, 0
1, 0
1, 1
0, 1
0, 0
0, 0
0, 0
0, 0
0, 1
0, 0
1, 0
0, 0
0, 1
0, 0
1, 0
0, 1
0, 1
0, 0
0, 2
0, 0
0, 1
2, 0
2, 0
0, 1
1, 0
0, 2
0, 0
0, 0
1, 0
2, 0
0, 0
2, 0
0, 0
0, 0
0, 0
0, 0
0, 0
1, 0
0, 0
0, 1
0, 2
0, 2
0, 0
1, 0
0, 0
0, 0
0, 0
0, 0
0, 0
0, 0
0, 0
0, 0
0, 0
0, 0
0, 0
0, 1
0, 0
0, 0
0, 0
1, 1
0, 1
0, 0
0, 0
0, 0
0, 0
0, 1
1, 0
0, 0
0, 0
0, 0
0, 0
0, 0
0, 0
1, 0
0, 0
1, 0
0, 0
0, 0
1, 1
0, 0
0, 0
0, 0
1, 1
0, 0
0, 0
0, 0
0, 0
0, 1
1, 0
0, 0
1, 0
0, 1
0, 0
2, 0
1, 0
0, 0
0, 0
1, 1
0, 1
0, 0
0, 0
0, 0
0, 1
0, 0
0, 1
0, 0
0, 1
0, 0
0, 1
0, 0
0, 1
0, 1
0, 1
0, 0
1, 0
1, 0
0, 0
0, 0
0, 0
0, 0
0, 0
0, 0
1, 0
0, 0
0, 1
0, 0
0, 0
0, 0
0, 3
0, 1
0, 0
0, 1
0, 1
0, 0
0, 0
0, 0
0, 0
1, 1
0, 0
0, 0
0, 0
0, 0
0, 0
0, 0
0, 0
0, 0
0, 0
0, 0
0, 0
0, 0
0, 0
1, 0
0, 1
0, 0
0, 0
0, 0
0, 1
0, 0
0, 0
0, 0
0, 0
0, 0
2, 0
0, 1
0, 2
0, 1
0, 0
0, 0
0, 0
0, 0
0, 0
0, 1
0, 1
0, 0
0, 0
0, 0
0, 1
1, 0
0, 0
0, 0
0, 0
0, 0
0, 0
0, 0
0, 0
0, 0
0, 0
0, 1
0, 0
0, 0
0, 0
0, 1
0, 0
0, 0
0, 0
0, 0
0, 0
1, 1
0, 0
0, 0
0, 0
0, 0
0, 0
0, 0
0, 0
0, 0
0, 0
0, 0
0, 1
0, 0
0, 0
0, 0
0, 0
0, 0
0, 0
0, 0
0, 0
0, 0
0, 0
0, 0
0, 0
0, 0
0, 0
0, 0
0, 0
0, 1
0, 1
0, 0
0, 0
0, 0
0, 0
0, 0
0, 0
0, 0
0, 0
1, 0
0, 0
0, 0
0, 0
1, 0
0, 0
0, 0
1, 0
0, 0
0, 0
0, 0
0, 0
0, 0
0, 0
0, 0
0, 0
0, 0
0, 0
0, 0
0, 0
0, 1
0, 0
0, 0
0, 0
0, 0
0, 0
0, 0
0, 0
0, 0
0, 0
0, 0
0, 0
0, 0
0, 0
0, 0
0, 0
0, 0
0, 0
0, 0
0, 0
0, 0
0, 0
0, 0
0, 0
0, 0
0, 0
0, 0
0, 0
0, 0
0, 0
0, 0
1, 0
0, 0
0, 1
0, 0
0, 0
0, 0
0, 0
0, 0
0, 0
0, 1
0, 0
0, 0
0, 0
0, 0
0, 0
0, 0
0, 0
0, 0
0, 0
0, 0
0, 0
0, 0
0, 0
0, 0
0, 0
0, 0
1, 0
0, 0
0, 0
0, 0
0, 0
0, 0
0, 0
0, 0
0, 0
0, 0
0, 0
0, 0
0, 0
0, 0
0, 0
0, 0
0, 0
0, 0
0, 0
0, 0
0, 0
1, 0
0, 0
0, 0
0, 0
0, 0
0, 0
0, 0
0, 0
0, 0
0, 0
0, 0
0, 0
0, 0
0, 0
0, 0
0, 0
0, 0
0, 0
0, 0
0, 0
0, 0
0, 0
0, 0
0, 0
0, 0
0, 0
0, 0
0, 0
0, 0
0, 0
0, 0
0, 0
0, 0
0, 0
0, 0
0, 0
0, 0
0, 0
0, 0
0, 0
0, 0
0, 0
0, 0
0, 0
0, 0
0, 0
0, 0
0, 0
0, 0
0, 0
0, 0
0, 0
0, 0
0, 0
0, 0
0, 0
0, 0
0, 0
0, 0
0, 0
0, 0
0, 0
0, 0
0, 0
0, 0
0, 0
0, 0
0, 0
0, 0
0, 0
0, 0
0, 0
0, 0
0, 0
0, 0
0, 0
0, 0
0, 0
0, 0
0, 0
0, 0
0, 0
0, 0
0, 0
0, 0
0, 0
0, 0
0, 0
0, 0
0, 0
0, 0
0, 0
0, 0
0, 0
0, 0
0, 0
0, 0
0, 0
0, 0
0, 0
0, 0
0, 0
0, 0
0, 0
0, 0
0, 0
0, 0
0, 0
0, 0
0, 0
0, 0
0, 0
0, 0
0, 0
0, 0
0, 0
0, 0
0, 0
0, 0
0, 0
0, 0
0, 0
0, 0
0, 0
0, 0
0, 0
0, 0
0, 0
0, 0
0, 0
0, 0
0, 0
0, 0
0, 0
0, 0
0, 0
0, 0
0, 0
0, 0
0, 0
0, 0
0, 0
0, 0
0, 0
0, 0
0, 0
0, 0
0, 0
0, 0
0, 0
0, 0
0, 0
0, 0
0, 0
0, 0
0, 0
0, 0
0, 0
0, 0
0, 0
0, 0
0, 0
0, 0
0, 0
0, 0
0, 0
0, 0
0, 0
0, 0
0, 0
0, 0
0, 0
0, 0
0, 0
0, 0
0, 0
0, 0
0, 0
0, 0
0, 0
0, 0
0, 0
0, 0
0, 0
0, 0
0, 0
0, 0
0, 0
0, 0
0, 0
0, 0
0, 0
0, 0
0, 0
0, 0
0, 0
0, 0
0, 0
0, 0
0, 0
0, 0
0, 0
0, 0
0, 0
0, 0
0, 0
0, 0
0, 0
0, 0
0, 0
0, 0
0, 0
0, 0
0, 0
0, 0
0, 0
0, 0
0, 0
0, 0
0, 0
0, 0
0, 0
0, 0
0, 0
0, 0
0, 0
0, 0
0, 0
0, 0
0, 0
0, 0
0, 0
0, 0
0, 0
0, 0
0, 0
0, 0
0, 0
0, 0
0, 0
0, 0
0, 0
0, 0
0, 0
0, 0
0, 0
0, 0
0, 0
0, 0
0, 0
0, 0
0, 0
0, 0
0, 0
0, 0
0, 0
0, 0
0, 0
0, 0
0, 0
0, 0
0, 0
0, 0
0, 0
0, 0
0, 0
0, 0
0, 0
0, 0
0, 0
0, 0
0, 0
0, 0
0, 0
0, 0
0, 0
0, 0
0, 0
0, 0
0, 0
0, 0
0, 0
0, 0
0, 0
0, 0
0, 0
0, 0
0, 0
0, 0
0, 0
0, 0
0, 0
0, 0
0, 0
0, 0
0, 0
0, 0
0, 0
0, 0
0, 0
0, 0
0, 0
0, 0
0, 0
0, 0
0, 0
0, 0
0, 0
0, 0
0, 0
0, 0
0, 0
0, 0
0, 0
0, 0
0, 0
0, 0
0, 0
0, 0
0, 0
0, 0
0, 0
0, 0
0, 0
0, 0
0, 0
0, 0
0, 0
0, 0
0, 0
0, 0
0, 0
0, 0
0, 0
0, 0
0, 0
0, 0
0, 0
0, 0
0, 0
0, 0
0, 0
0, 0
0, 0
0, 0
0, 0
0, 0
0, 0
0, 0
#ENDOFDATA     end of spectrum data