File: host_upload/06-09-2024/ps_0852/dump3/ps__0852shot_2024.msa
#FORMAT      : EMSA/MAS spectral data file
#VERSION     : TC202v2.0 PIXL
#TITLE       : N/A
#DATE        :       Date in the format DD-MMM-YYYY, for example 07-JUL-2010
#TIME        :             The time of day at which the spectrum was recorded, in 24-hour format
#OWNER       : PIXL Flight Model       (PIXL will use this to indicate which instrument took the data.)
#NPOINTS     : 4096     Number of data points in the spectrum (This can be zero for configuration only files)
#NCOLUMNS    : 2     Number of data columns in the spectrum (This can be zero for configuration only files)
#XUNITS      : eV
#YUNITS      : COUNTS
#DATATYPE    : YY
#XPERCHAN    : 7.862, 7.881   eV per channel (separate by commas if more than one detector)
#OFFSET      : 18.5, -22.4         eV of first channel  (separate by commas if more than one detector
#SIGNALTYPE  : XRF
#YP_TEMP     : 2.396
#LIVETIME    : 8.54822, 8.5754   seconds (separate by commas if more than one detector)
#REALTIME    : 10, 10.0   seconds (separate by commas if more than one detector)
#SPECTRUM    : start of spectrum data
0, 0
0, 0
0, 0
0, 0
0, 0
0, 0
0, 0
0, 0
0, 0
0, 0
0, 0
0, 0
0, 0
0, 0
0, 0
0, 0
0, 0
0, 0
0, 0
0, 0
0, 0
0, 0
0, 0
0, 0
0, 0
0, 0
0, 0
0, 0
0, 0
0, 0
0, 0
0, 0
0, 0
0, 0
0, 3
1, 0
1, 0
0, 0
0, 0
3, 0
1, 0
1, 2
0, 0
3, 1
0, 2
1, 2
0, 4
0, 3
4, 11
7, 9
11, 32
22, 51
35, 87
53, 98
57, 76
52, 85
41, 77
25, 53
27, 30
13, 20
7, 7
1, 6
1, 2
3, 3
5, 1
2, 5
7, 4
6, 13
19, 26
38, 45
71, 124
131, 220
186, 302
276, 402
295, 480
331, 467
259, 428
198, 351
146, 228
92, 157
65, 76
31, 29
13, 19
7, 14
3, 10
1, 5
1, 0
2, 3
2, 4
0, 2
1, 2
1, 5
1, 0
0, 0
4, 1
1, 2
3, 4
2, 2
1, 3
3, 3
8, 2
2, 6
4, 2
2, 6
3, 3
3, 1
5, 3
1, 4
5, 8
4, 13
11, 11
15, 21
19, 37
31, 30
22, 36
22, 43
35, 40
29, 37
20, 32
19, 31
24, 25
27, 27
20, 18
12, 15
17, 20
12, 17
13, 14
9, 13
8, 12
3, 3
7, 5
3, 6
3, 4
1, 6
1, 3
1, 2
0, 2
1, 3
2, 2
0, 4
0, 0
1, 1
2, 4
0, 2
1, 2
1, 5
1, 4
2, 5
1, 9
0, 7
4, 12
3, 13
5, 21
2, 25
6, 28
10, 29
7, 31
10, 25
10, 14
14, 25
8, 11
3, 7
7, 8
2, 3
4, 1
3, 3
4, 6
9, 3
5, 6
4, 5
4, 3
4, 6
3, 3
5, 4
4, 4
6, 4
0, 2
3, 4
7, 1
4, 2
2, 2
6, 4
3, 5
2, 3
6, 8
5, 4
4, 5
4, 5
1, 6
3, 5
13, 6
5, 8
3, 16
5, 17
6, 12
7, 12
11, 15
6, 21
10, 13
8, 12
10, 12
4, 17
5, 11
6, 8
7, 6
2, 4
5, 8
6, 7
5, 6
9, 5
4, 8
5, 6
2, 6
3, 10
8, 3
10, 10
5, 5
8, 1
4, 7
5, 10
3, 4
7, 3
3, 8
8, 2
4, 10
6, 4
7, 17
11, 9
8, 10
10, 20
14, 14
7, 13
10, 20
8, 15
10, 16
4, 11
6, 14
4, 16
6, 8
7, 11
7, 3
12, 17
14, 13
18, 13
16, 10
23, 24
25, 38
33, 52
43, 65
46, 70
39, 64
45, 87
51, 76
46, 84
28, 49
34, 52
31, 58
20, 46
15, 45
13, 41
26, 51
17, 51
39, 87
69, 135
121, 226
226, 389
378, 701
561, 1023
892, 1469
1162, 1929
1421, 2372
1651, 2721
1737, 2697
1734, 2463
1629, 2159
1360, 1650
1036, 1250
721, 867
458, 516
284, 306
143, 203
84, 94
42, 67
23, 31
20, 25
18, 21
8, 17
7, 20
16, 17
13, 32
18, 32
29, 35
39, 68
42, 82
78, 135
115, 187
157, 260
205, 297
228, 360
254, 421
247, 370
269, 386
248, 298
201, 272
125, 183
92, 112
67, 56
53, 38
19, 20
12, 15
10, 11
10, 13
15, 7
11, 3
8, 8
5, 9
7, 13
7, 18
11, 16
13, 11
9, 13
5, 9
4, 7
2, 5
5, 8
5, 4
3, 4
1, 4
5, 6
3, 7
2, 6
4, 4
2, 3
5, 5
4, 5
6, 3
0, 4
1, 0
3, 4
3, 5
2, 8
9, 3
11, 7
8, 4
9, 4
8, 9
8, 5
13, 8
16, 10
11, 5
12, 8
14, 10
9, 8
11, 8
14, 12
12, 9
8, 3
11, 5
6, 7
3, 6
7, 8
5, 6
3, 8
5, 5
5, 19
3, 16
1, 6
3, 22
1, 20
3, 17
3, 18
5, 22
1, 19
1, 13
2, 14
1, 11
2, 6
0, 1
5, 11
2, 4
5, 3
3, 4
0, 4
3, 9
1, 5
0, 3
3, 1
8, 3
2, 4
1, 2
1, 3
4, 3
1, 2
3, 6
2, 5
3, 6
2, 2
1, 4
2, 3
2, 7
3, 4
4, 5
0, 4
4, 3
1, 3
1, 1
1, 4
3, 4
3, 4
1, 4
3, 6
7, 1
0, 5
2, 3
2, 3
2, 8
4, 2
3, 8
3, 6
1, 6
3, 3
1, 8
3, 5
1, 6
2, 3
1, 2
3, 3
1, 7
4, 5
3, 8
1, 8
5, 6
4, 5
7, 7
2, 5
1, 6
2, 3
2, 4
2, 5
0, 8
2, 1
3, 6
0, 3
7, 6
2, 3
3, 3
1, 1
1, 5
3, 4
2, 2
3, 1
3, 3
4, 1
1, 0
2, 0
2, 2
1, 4
1, 3
3, 1
3, 3
1, 4
1, 3
3, 4
0, 3
0, 1
4, 2
2, 4
3, 4
2, 3
1, 2
0, 4
1, 7
2, 8
0, 3
2, 3
0, 8
1, 7
2, 5
2, 4
1, 7
1, 7
2, 1
1, 5
1, 5
2, 13
0, 3
3, 4
1, 0
2, 0
3, 4
1, 3
2, 1
2, 4
2, 2
2, 2
2, 2
2, 1
2, 1
0, 3
5, 4
1, 1
1, 0
2, 2
2, 2
1, 1
2, 1
4, 2
2, 4
2, 4
2, 1
0, 2
0, 3
3, 5
4, 2
1, 1
0, 0
0, 1
3, 1
3, 3
0, 1
0, 0
3, 1
1, 3
2, 4
0, 1
4, 1
2, 0
0, 1
0, 1
1, 1
1, 2
0, 1
0, 1
0, 1
1, 1
3, 1
1, 4
0, 3
0, 2
6, 4
2, 1
3, 2
4, 2
3, 5
3, 2
5, 2
4, 2
4, 3
8, 0
2, 0
4, 3
2, 2
2, 2
2, 3
1, 1
1, 3
1, 0
1, 2
2, 1
1, 1
1, 1
0, 1
0, 2
0, 2
1, 1
0, 2
3, 0
0, 3
2, 0
1, 3
1, 1
3, 2
2, 3
0, 3
1, 0
0, 1
0, 1
1, 0
0, 3
1, 0
0, 4
1, 1
1, 1
0, 0
2, 2
2, 2
0, 0
0, 1
0, 0
0, 1
2, 1
0, 4
2, 0
5, 0
0, 0
1, 3
0, 1
3, 2
3, 2
0, 1
1, 1
1, 1
1, 1
0, 3
0, 3
0, 1
0, 1
0, 0
3, 1
1, 3
1, 2
0, 2
1, 0
1, 3
1, 0
3, 1
2, 0
1, 1
0, 2
0, 1
0, 0
1, 2
1, 0
1, 1
1, 0
0, 1
1, 0
1, 0
1, 0
0, 0
1, 1
2, 0
1, 0
0, 3
1, 1
1, 0
0, 2
0, 0
1, 0
0, 0
0, 0
0, 1
1, 0
0, 0
0, 0
0, 0
2, 1
0, 0
1, 0
1, 1
0, 1
3, 1
2, 0
1, 1
0, 1
0, 1
0, 1
0, 0
1, 0
0, 1
0, 0
0, 2
0, 0
1, 0
0, 1
1, 0
2, 0
0, 1
0, 0
0, 0
0, 0
0, 1
1, 1
0, 2
0, 1
0, 0
0, 1
1, 0
1, 1
1, 0
0, 1
0, 0
2, 0
1, 1
1, 2
0, 0
0, 2
0, 0
0, 1
2, 0
0, 1
1, 0
0, 2
0, 0
1, 0
0, 0
1, 0
0, 0
1, 2
0, 0
0, 0
1, 0
0, 0
0, 1
0, 1
0, 1
0, 1
0, 1
1, 1
0, 0
1, 0
0, 0
0, 0
0, 1
0, 0
0, 0
1, 0
0, 0
2, 0
0, 0
0, 2
0, 1
0, 0
1, 1
0, 1
1, 0
1, 0
0, 0
0, 0
0, 1
1, 1
0, 2
0, 0
0, 0
0, 0
1, 1
0, 0
0, 0
2, 0
0, 1
0, 0
1, 1
0, 0
0, 0
0, 0
0, 0
0, 0
0, 1
0, 1
0, 1
1, 0
0, 0
0, 0
2, 1
0, 0
0, 1
0, 1
1, 0
0, 0
0, 1
0, 1
0, 1
0, 0
0, 0
0, 0
0, 1
0, 0
0, 2
0, 0
0, 0
0, 0
0, 0
0, 0
0, 0
0, 0
0, 0
0, 0
0, 0
0, 0
0, 1
0, 1
0, 1
0, 1
0, 0
0, 0
0, 0
0, 0
1, 0
2, 0
0, 0
0, 0
0, 0
1, 0
0, 1
0, 2
0, 1
0, 0
0, 0
0, 1
0, 0
0, 2
0, 1
0, 0
1, 0
0, 0
0, 0
0, 0
0, 0
0, 1
0, 0
1, 0
0, 0
0, 0
0, 1
0, 1
0, 1
0, 0
0, 0
0, 0
0, 0
0, 0
1, 0
0, 0
0, 1
0, 0
0, 0
0, 0
0, 0
0, 0
0, 0
0, 0
0, 0
0, 1
0, 0
0, 0
0, 0
0, 0
0, 0
0, 0
0, 0
0, 0
0, 2
0, 0
0, 0
0, 0
0, 0
0, 0
0, 0
0, 0
0, 0
0, 0
0, 0
0, 0
0, 0
0, 0
0, 0
0, 0
0, 0
0, 0
0, 0
0, 0
0, 0
0, 0
0, 0
1, 0
0, 0
0, 0
0, 0
0, 0
0, 0
0, 0
0, 0
0, 0
0, 0
0, 0
0, 0
0, 0
0, 0
0, 0
0, 0
0, 0
0, 0
0, 0
0, 1
0, 0
0, 0
0, 0
0, 0
0, 0
0, 0
0, 1
0, 0
0, 0
0, 0
1, 1
0, 0
0, 0
0, 0
0, 0
0, 0
0, 0
0, 0
0, 0
0, 0
0, 0
0, 0
0, 0
0, 0
0, 0
0, 0
0, 0
0, 0
0, 0
0, 0
0, 0
0, 0
0, 0
0, 0
0, 0
0, 0
0, 0
0, 0
0, 0
0, 0
0, 0
0, 0
0, 0
0, 0
0, 0
0, 0
0, 0
0, 0
0, 0
0, 0
0, 0
0, 0
0, 0
0, 0
0, 0
0, 0
0, 0
0, 0
0, 0
0, 0
0, 0
0, 0
0, 0
0, 0
0, 0
0, 0
0, 0
0, 0
0, 0
0, 0
0, 0
0, 0
0, 0
0, 0
0, 0
0, 0
0, 0
0, 0
0, 0
0, 0
0, 1
0, 0
0, 0
0, 0
0, 0
0, 0
0, 0
0, 0
0, 0
0, 0
0, 0
0, 0
0, 0
0, 0
0, 0
0, 0
0, 0
0, 0
0, 0
0, 0
0, 0
0, 0
0, 0
0, 0
0, 0
0, 0
0, 0
0, 0
0, 0
0, 0
0, 0
0, 0
0, 0
0, 0
0, 0
0, 0
0, 0
0, 0
0, 0
0, 0
0, 0
0, 0
0, 0
0, 0
0, 0
0, 0
0, 0
0, 0
0, 0
0, 0
0, 0
0, 0
0, 0
0, 0
0, 0
0, 0
0, 0
0, 0
0, 0
0, 0
0, 0
1, 0
0, 0
0, 0
0, 0
0, 0
0, 0
0, 0
0, 0
0, 0
0, 0
0, 0
0, 0
0, 0
0, 0
0, 0
0, 0
0, 0
0, 0
0, 0
0, 0
0, 0
0, 0
0, 0
0, 0
0, 0
0, 0
0, 0
0, 0
0, 0
0, 0
0, 0
0, 0
0, 0
0, 0
0, 0
0, 0
0, 0
0, 0
0, 0
0, 0
0, 0
0, 0
0, 0
0, 0
0, 0
0, 0
0, 0
0, 0
0, 0
0, 0
0, 0
0, 0
0, 0
0, 0
0, 0
0, 0
0, 0
0, 0
0, 0
0, 0
0, 0
0, 0
0, 0
0, 0
0, 0
0, 0
0, 0
0, 0
0, 0
0, 0
0, 0
0, 0
1, 0
0, 0
0, 0
0, 0
0, 0
0, 0
0, 0
0, 0
0, 0
0, 0
0, 0
0, 0
0, 0
0, 0
0, 0
0, 0
0, 0
0, 0
0, 0
0, 0
0, 0
0, 0
0, 0
0, 0
0, 0
0, 0
0, 0
0, 0
0, 0
0, 0
0, 0
0, 0
0, 0
0, 0
0, 0
0, 0
0, 0
0, 0
0, 0
0, 0
0, 0
0, 0
0, 0
0, 0
0, 0
0, 0
0, 0
0, 0
0, 0
0, 0
0, 0
0, 0
0, 0
0, 0
0, 0
0, 0
0, 0
0, 0
0, 0
0, 0
0, 0
0, 0
1, 0
0, 0
0, 0
0, 0
0, 0
0, 0
0, 0
0, 0
0, 0
0, 0
0, 0
0, 0
0, 0
0, 0
0, 0
0, 0
0, 0
0, 0
0, 0
0, 0
0, 0
0, 0
0, 0
0, 0
0, 0
0, 0
0, 0
0, 0
0, 0
0, 0
0, 0
0, 0
0, 0
0, 0
0, 0
0, 0
0, 0
0, 0
0, 0
0, 0
0, 0
0, 0
0, 0
0, 0
0, 0
0, 0
0, 0
0, 0
0, 0
0, 0
0, 0
0, 0
0, 0
0, 0
0, 0
0, 0
0, 0
0, 0
0, 0
0, 0
0, 0
0, 0
0, 0
0, 0
0, 0
0, 0
0, 0
0, 0
0, 0
0, 0
0, 0
0, 0
0, 0
0, 0
0, 0
0, 0
0, 0
0, 0
0, 0
0, 0
0, 0
0, 0
0, 0
0, 0
0, 0
0, 0
0, 0
0, 0
0, 0
0, 0
0, 0
0, 0
0, 0
0, 0
0, 0
0, 0
0, 0
0, 0
0, 0
0, 0
0, 0
0, 0
0, 0
0, 0
0, 0
0, 0
0, 0
0, 0
0, 0
0, 0
0, 0
0, 0
0, 0
0, 0
0, 0
0, 0
0, 0
0, 0
0, 0
0, 0
0, 0
0, 0
0, 0
0, 0
0, 0
0, 0
0, 0
0, 0
0, 0
0, 0
0, 0
0, 0
0, 0
0, 0
0, 0
0, 0
0, 0
0, 0
0, 0
0, 0
0, 0
0, 0
0, 0
0, 0
0, 0
0, 0
0, 0
0, 0
0, 0
0, 0
0, 0
0, 0
0, 0
0, 0
0, 0
0, 0
0, 0
0, 0
0, 0
0, 0
0, 0
0, 0
0, 0
0, 0
0, 0
0, 0
0, 0
0, 0
0, 0
0, 0
0, 0
0, 0
0, 0
0, 0
0, 0
0, 0
0, 0
0, 0
0, 0
0, 0
0, 0
0, 0
0, 0
0, 0
0, 0
0, 0
0, 0
0, 0
0, 0
0, 0
0, 0
0, 0
0, 0
0, 0
0, 0
0, 0
0, 0
0, 0
0, 0
0, 0
0, 0
0, 0
0, 0
0, 0
0, 0
0, 0
0, 0
#ENDOFDATA     end of spectrum data