File: host_upload/06-09-2024/ps_0852/dump3/ps__0852shot_2508.msa
#FORMAT      : EMSA/MAS spectral data file
#VERSION     : TC202v2.0 PIXL
#TITLE       : N/A
#DATE        :       Date in the format DD-MMM-YYYY, for example 07-JUL-2010
#TIME        :             The time of day at which the spectrum was recorded, in 24-hour format
#OWNER       : PIXL Flight Model       (PIXL will use this to indicate which instrument took the data.)
#NPOINTS     : 4096     Number of data points in the spectrum (This can be zero for configuration only files)
#NCOLUMNS    : 2     Number of data columns in the spectrum (This can be zero for configuration only files)
#XUNITS      : eV
#YUNITS      : COUNTS
#DATATYPE    : YY
#XPERCHAN    : 7.862, 7.881   eV per channel (separate by commas if more than one detector)
#OFFSET      : 18.5, -22.4         eV of first channel  (separate by commas if more than one detector
#SIGNALTYPE  : XRF
#YP_TEMP     : 2.171
#LIVETIME    : 8.56738, 8.54664   seconds (separate by commas if more than one detector)
#REALTIME    : 10, 10.0   seconds (separate by commas if more than one detector)
#SPECTRUM    : start of spectrum data
0, 0
0, 0
0, 0
0, 0
0, 0
0, 0
0, 0
0, 0
0, 0
0, 0
0, 0
0, 0
0, 0
0, 0
0, 0
0, 0
0, 0
0, 0
0, 0
0, 0
0, 0
0, 0
0, 0
0, 0
0, 0
0, 0
0, 0
0, 0
0, 0
0, 0
0, 0
0, 0
0, 0
1, 1
0, 0
0, 1
0, 1
0, 0
0, 0
1, 1
0, 2
0, 0
1, 1
0, 3
2, 0
1, 1
2, 1
0, 4
5, 6
12, 13
27, 25
33, 23
43, 57
74, 54
73, 65
64, 51
55, 29
36, 32
27, 24
18, 13
9, 4
3, 13
8, 4
4, 3
2, 5
6, 4
5, 6
12, 14
20, 29
42, 56
98, 96
149, 184
264, 323
336, 395
423, 438
423, 440
340, 418
296, 297
205, 200
114, 110
72, 68
39, 38
21, 24
13, 14
4, 8
4, 7
11, 6
2, 3
4, 6
3, 5
6, 5
12, 4
5, 13
11, 22
29, 43
48, 60
62, 78
104, 116
134, 119
119, 121
109, 100
95, 89
73, 50
47, 46
27, 23
20, 15
15, 19
22, 12
29, 16
25, 27
34, 47
39, 48
48, 59
57, 63
82, 71
72, 60
67, 43
82, 49
59, 28
64, 35
70, 33
47, 36
41, 39
30, 30
35, 32
20, 23
19, 17
23, 21
4, 22
7, 15
4, 11
10, 7
3, 5
4, 2
0, 4
3, 1
5, 1
6, 3
3, 2
4, 3
3, 4
3, 2
4, 1
2, 3
0, 2
3, 2
4, 1
1, 4
4, 7
8, 7
10, 15
25, 16
26, 41
50, 67
77, 85
103, 112
108, 143
132, 164
133, 154
109, 136
84, 107
70, 70
48, 46
35, 25
18, 17
21, 9
10, 13
11, 8
17, 17
21, 22
26, 23
17, 27
21, 32
17, 20
17, 19
17, 11
8, 9
6, 10
5, 8
3, 4
6, 8
2, 5
1, 4
0, 5
2, 3
4, 2
2, 3
4, 5
5, 7
9, 5
14, 12
7, 8
14, 11
15, 16
10, 16
12, 20
9, 17
8, 17
16, 19
8, 14
8, 10
15, 13
10, 10
5, 3
6, 10
4, 6
8, 8
4, 6
4, 1
3, 7
4, 11
6, 1
5, 4
4, 10
7, 6
8, 4
9, 4
6, 7
9, 7
8, 3
7, 7
8, 5
3, 4
9, 5
3, 15
17, 11
21, 13
14, 16
26, 13
33, 26
25, 25
36, 29
33, 25
27, 15
23, 10
34, 15
26, 4
39, 10
37, 9
27, 9
26, 9
22, 7
18, 2
15, 13
19, 18
23, 29
21, 35
42, 40
56, 42
66, 65
49, 61
65, 70
53, 63
54, 53
50, 48
38, 50
25, 48
23, 38
23, 38
22, 39
10, 40
19, 30
40, 57
77, 103
117, 175
223, 305
432, 566
672, 852
966, 1337
1364, 1797
1653, 2062
1984, 2287
2106, 2393
2066, 2170
1832, 1805
1540, 1489
1137, 1044
798, 715
526, 472
288, 252
166, 140
91, 72
40, 56
25, 21
10, 25
12, 20
12, 17
20, 19
18, 16
31, 25
30, 26
38, 33
49, 56
93, 92
116, 118
150, 174
206, 235
242, 287
284, 328
337, 316
301, 355
283, 308
284, 261
213, 203
160, 150
115, 91
85, 71
45, 47
29, 30
10, 18
16, 17
13, 13
9, 9
5, 13
9, 19
16, 17
17, 13
15, 11
15, 12
12, 15
10, 7
12, 10
12, 9
11, 6
4, 9
5, 5
5, 0
4, 8
2, 3
6, 6
9, 4
7, 5
2, 7
8, 8
6, 3
12, 7
7, 4
4, 4
5, 10
7, 5
3, 3
3, 6
5, 4
3, 4
6, 8
1, 10
1, 2
6, 4
4, 9
8, 9
6, 13
5, 12
9, 15
8, 14
10, 12
8, 17
5, 21
6, 15
11, 11
6, 11
4, 13
7, 10
7, 8
2, 7
4, 5
3, 9
7, 7
5, 5
6, 4
6, 9
5, 10
11, 2
1, 6
6, 5
5, 1
4, 3
1, 4
4, 6
5, 4
3, 3
8, 2
4, 2
0, 5
0, 4
6, 5
2, 5
4, 4
2, 4
4, 4
4, 4
1, 1
0, 5
1, 3
2, 2
3, 2
1, 3
2, 3
8, 1
1, 4
1, 3
3, 3
4, 5
4, 3
2, 7
2, 6
2, 2
7, 5
3, 7
1, 5
4, 5
2, 1
4, 1
3, 7
2, 6
2, 4
3, 2
2, 3
5, 3
4, 3
3, 1
1, 6
3, 4
4, 7
4, 4
4, 6
3, 7
0, 3
3, 5
4, 5
4, 5
1, 4
2, 2
3, 3
3, 4
6, 3
5, 3
5, 4
9, 2
2, 3
2, 5
3, 5
5, 5
1, 5
4, 4
5, 5
2, 5
4, 4
4, 0
1, 3
0, 1
4, 2
10, 2
4, 2
3, 1
4, 4
3, 5
3, 1
4, 0
8, 2
4, 3
5, 6
4, 2
2, 3
10, 2
5, 2
7, 2
3, 3
2, 1
2, 2
2, 4
0, 2
2, 3
3, 3
1, 1
4, 5
4, 3
5, 4
3, 9
3, 1
3, 2
2, 4
2, 2
5, 0
5, 3
2, 3
1, 6
3, 4
3, 2
2, 1
3, 2
4, 3
3, 2
4, 2
2, 3
2, 5
4, 2
1, 4
3, 2
3, 3
1, 1
2, 2
2, 3
4, 3
2, 4
3, 2
4, 1
3, 3
1, 4
4, 2
4, 2
1, 1
1, 0
2, 1
2, 0
5, 1
1, 0
2, 5
1, 4
1, 1
3, 4
3, 1
1, 0
2, 7
3, 4
0, 3
2, 4
1, 3
3, 2
2, 5
2, 2
5, 3
1, 2
4, 3
2, 0
1, 2
5, 1
2, 2
2, 1
2, 1
3, 3
2, 2
6, 4
3, 9
5, 7
4, 6
4, 6
3, 4
4, 3
3, 4
3, 1
5, 2
2, 2
1, 2
1, 2
1, 2
0, 2
0, 2
1, 1
0, 1
1, 4
2, 1
1, 1
1, 3
3, 1
3, 2
3, 2
0, 2
0, 1
1, 0
4, 3
2, 2
1, 2
1, 3
3, 3
2, 3
3, 0
1, 3
3, 3
1, 3
2, 2
1, 0
0, 1
1, 2
1, 0
1, 0
1, 0
2, 1
3, 2
1, 0
3, 2
0, 3
0, 2
1, 3
2, 2
1, 2
0, 1
0, 1
0, 3
1, 3
1, 0
0, 2
1, 1
0, 1
3, 2
0, 0
2, 0
3, 1
0, 0
1, 0
2, 1
0, 2
1, 1
0, 1
1, 2
1, 0
0, 0
2, 2
0, 0
0, 2
1, 2
0, 0
2, 4
1, 0
2, 0
3, 1
0, 0
2, 1
1, 1
1, 1
0, 1
3, 2
0, 1
0, 0
0, 0
1, 0
3, 0
1, 1
0, 1
2, 0
0, 0
0, 0
1, 0
1, 0
0, 1
2, 0
0, 0
0, 0
0, 0
0, 0
0, 0
1, 1
0, 1
1, 0
0, 1
0, 1
1, 1
0, 0
2, 0
0, 0
1, 0
0, 0
1, 1
0, 0
0, 0
0, 0
0, 1
0, 0
0, 1
1, 0
1, 1
3, 0
2, 1
0, 0
0, 1
0, 1
1, 0
0, 0
0, 1
1, 0
0, 2
0, 0
1, 0
0, 0
2, 0
0, 0
1, 1
2, 1
1, 1
0, 0
1, 0
0, 0
0, 0
0, 0
0, 1
1, 1
0, 0
0, 1
1, 0
0, 0
0, 0
0, 0
0, 0
0, 0
1, 1
2, 0
0, 0
0, 1
0, 0
2, 0
0, 0
0, 0
0, 0
0, 0
0, 0
0, 0
0, 0
0, 0
0, 0
1, 0
0, 1
0, 0
0, 2
0, 0
0, 0
1, 0
1, 0
1, 0
0, 0
0, 2
0, 2
0, 1
1, 0
1, 0
0, 0
0, 0
1, 0
0, 0
1, 1
0, 0
1, 0
0, 1
0, 0
0, 0
1, 0
1, 0
0, 1
1, 0
0, 0
1, 1
1, 0
0, 2
0, 1
0, 0
0, 0
0, 0
1, 0
0, 0
0, 0
1, 0
0, 0
0, 1
0, 0
1, 0
0, 0
0, 1
0, 0
0, 0
0, 0
0, 0
0, 0
0, 0
0, 0
0, 0
2, 1
0, 0
0, 0
1, 0
0, 1
0, 0
0, 0
0, 0
1, 0
1, 0
1, 0
0, 1
1, 0
0, 0
0, 1
0, 0
0, 2
0, 0
0, 0
0, 0
0, 0
1, 0
1, 1
1, 0
0, 0
2, 0
0, 0
0, 1
0, 0
0, 0
0, 0
0, 1
0, 2
0, 2
0, 0
1, 0
0, 1
0, 0
0, 0
0, 0
0, 0
0, 0
0, 0
0, 0
0, 0
0, 0
0, 1
0, 0
0, 0
0, 0
1, 0
1, 1
1, 0
0, 0
0, 0
0, 1
0, 0
0, 0
0, 0
0, 0
0, 0
0, 0
1, 0
0, 0
0, 0
0, 0
0, 0
0, 0
0, 0
0, 0
0, 0
0, 0
0, 0
0, 1
0, 0
0, 0
0, 0
0, 0
0, 0
0, 0
0, 0
0, 0
1, 1
0, 0
0, 0
0, 0
0, 0
1, 0
0, 0
1, 0
0, 1
0, 0
0, 0
0, 0
0, 0
0, 1
0, 0
0, 0
0, 0
0, 0
0, 0
0, 0
0, 0
0, 0
0, 1
0, 0
0, 0
0, 0
0, 0
0, 0
0, 0
0, 0
0, 0
0, 0
0, 0
0, 0
0, 0
0, 0
0, 1
0, 0
0, 0
0, 0
0, 0
0, 0
0, 0
0, 0
1, 1
0, 1
0, 0
0, 0
0, 0
0, 0
0, 0
0, 0
0, 0
0, 0
0, 0
0, 0
0, 0
0, 1
0, 0
0, 0
0, 0
0, 0
0, 0
0, 0
0, 0
0, 0
0, 0
0, 0
0, 0
0, 0
0, 0
0, 1
0, 0
0, 0
0, 0
0, 0
0, 0
0, 0
0, 0
0, 0
0, 0
0, 0
0, 1
0, 0
0, 0
0, 0
0, 1
0, 0
1, 0
0, 0
1, 1
0, 0
0, 0
0, 0
0, 0
0, 0
0, 0
0, 0
0, 1
0, 0
0, 0
0, 0
0, 0
0, 0
0, 0
0, 0
0, 0
0, 0
0, 0
0, 0
0, 0
0, 0
0, 0
0, 0
0, 1
0, 0
0, 0
0, 0
0, 0
0, 0
0, 0
0, 0
0, 1
0, 0
0, 0
0, 0
0, 0
0, 0
0, 0
0, 0
0, 0
0, 0
0, 0
0, 0
0, 0
1, 0
0, 0
0, 0
0, 0
0, 0
0, 0
0, 0
0, 0
0, 0
0, 0
0, 0
0, 0
0, 0
0, 0
0, 0
0, 0
0, 0
0, 0
0, 0
0, 0
0, 0
0, 0
0, 0
0, 0
0, 0
0, 0
0, 0
0, 0
0, 0
0, 0
0, 0
0, 0
0, 0
0, 0
0, 0
0, 0
0, 0
0, 0
0, 0
0, 0
0, 0
0, 0
0, 0
0, 0
0, 0
0, 0
0, 0
0, 0
0, 0
0, 0
0, 0
0, 0
0, 0
0, 0
0, 0
0, 0
0, 0
0, 0
0, 0
0, 0
0, 0
0, 0
0, 0
0, 0
0, 0
0, 0
0, 0
0, 0
0, 0
0, 0
0, 0
0, 0
0, 0
0, 0
0, 0
0, 0
0, 0
0, 0
0, 0
0, 0
0, 0
0, 0
0, 0
0, 0
0, 0
0, 0
0, 0
0, 0
0, 0
0, 0
0, 0
0, 0
0, 0
0, 0
0, 0
0, 0
0, 0
0, 0
0, 0
0, 0
0, 0
0, 0
0, 0
0, 0
0, 0
0, 0
1, 0
0, 0
0, 0
0, 0
0, 0
0, 0
0, 0
0, 0
0, 0
0, 0
0, 0
0, 0
0, 0
0, 0
0, 0
0, 0
0, 0
0, 0
0, 0
0, 0
0, 0
0, 0
0, 0
0, 0
0, 0
0, 0
0, 0
0, 0
0, 0
0, 0
0, 0
0, 0
0, 0
0, 0
0, 0
0, 0
0, 0
0, 0
0, 0
0, 0
0, 0
0, 0
0, 0
0, 0
0, 0
0, 0
0, 0
0, 0
0, 0
0, 0
0, 0
0, 0
0, 0
0, 0
0, 0
0, 0
0, 0
0, 0
0, 0
0, 0
0, 0
0, 0
0, 0
0, 0
0, 0
0, 0
0, 0
0, 0
0, 0
0, 0
0, 0
0, 0
0, 0
0, 0
0, 0
0, 0
0, 0
0, 0
0, 0
0, 0
0, 0
0, 0
0, 0
0, 0
0, 0
0, 0
0, 0
0, 0
0, 0
0, 0
0, 0
0, 0
0, 0
0, 0
0, 0
0, 0
0, 0
0, 0
0, 0
0, 0
0, 0
0, 0
0, 0
0, 0
0, 0
0, 0
0, 0
0, 0
0, 0
0, 0
0, 0
0, 0
0, 0
0, 0
0, 0
0, 0
0, 0
0, 0
0, 0
0, 0
0, 0
0, 0
0, 0
0, 0
0, 0
0, 0
0, 0
0, 0
0, 0
0, 0
0, 0
0, 0
0, 0
0, 0
0, 0
0, 0
0, 0
0, 0
0, 0
0, 0
0, 0
0, 0
0, 0
0, 0
0, 0
0, 0
0, 0
0, 0
0, 0
0, 0
0, 0
0, 0
0, 0
0, 0
0, 0
0, 0
0, 0
0, 0
0, 0
0, 0
0, 0
0, 0
0, 0
0, 0
0, 0
0, 0
0, 0
0, 0
0, 0
0, 0
0, 0
0, 0
0, 0
0, 0
0, 0
0, 0
0, 0
0, 0
0, 0
0, 0
0, 0
0, 0
0, 0
0, 0
0, 0
0, 0
0, 0
0, 0
0, 0
0, 0
0, 0
0, 0
0, 0
0, 0
0, 0
0, 0
0, 0
0, 0
0, 0
0, 0
0, 0
0, 0
0, 0
0, 0
0, 0
0, 0
0, 0
0, 0
0, 0
0, 0
0, 0
0, 0
0, 0
0, 0
0, 0
0, 0
0, 0
0, 0
0, 0
0, 0
0, 0
0, 0
0, 0
0, 0
0, 0
0, 0
0, 0
0, 0
0, 0
0, 0
0, 0
0, 0
0, 0
0, 0
0, 0
0, 0
0, 0
0, 0
0, 0
0, 0
0, 0
0, 0
0, 0
0, 0
0, 0
0, 0
0, 0
0, 0
0, 0
0, 0
0, 0
0, 0
0, 0
0, 0
0, 0
0, 0
0, 0
0, 0
0, 0
0, 0
0, 0
0, 0
0, 0
0, 0
0, 0
0, 0
0, 0
0, 0
0, 0
0, 0
#ENDOFDATA     end of spectrum data