File: host_upload/06-09-2024/ps_0852/dump3/ps__0852shot_2108.msa
#FORMAT      : EMSA/MAS spectral data file
#VERSION     : TC202v2.0 PIXL
#TITLE       : N/A
#DATE        :       Date in the format DD-MMM-YYYY, for example 07-JUL-2010
#TIME        :             The time of day at which the spectrum was recorded, in 24-hour format
#OWNER       : PIXL Flight Model       (PIXL will use this to indicate which instrument took the data.)
#NPOINTS     : 4096     Number of data points in the spectrum (This can be zero for configuration only files)
#NCOLUMNS    : 2     Number of data columns in the spectrum (This can be zero for configuration only files)
#XUNITS      : eV
#YUNITS      : COUNTS
#DATATYPE    : YY
#XPERCHAN    : 7.862, 7.881   eV per channel (separate by commas if more than one detector)
#OFFSET      : 18.5, -22.4         eV of first channel  (separate by commas if more than one detector
#SIGNALTYPE  : XRF
#YP_TEMP     : 2.364
#LIVETIME    : 8.53397, 8.52802   seconds (separate by commas if more than one detector)
#REALTIME    : 10, 10.0   seconds (separate by commas if more than one detector)
#SPECTRUM    : start of spectrum data
0, 0
0, 0
0, 0
0, 0
0, 0
0, 0
0, 0
0, 0
0, 0
0, 0
0, 0
0, 0
0, 0
0, 0
0, 0
0, 0
0, 0
0, 0
0, 0
0, 0
0, 0
0, 0
0, 0
0, 0
0, 0
0, 0
0, 0
0, 0
0, 0
0, 0
0, 0
0, 0
1, 1
0, 0
1, 2
0, 2
1, 1
1, 4
3, 0
0, 1
2, 4
2, 2
1, 2
1, 1
1, 3
0, 0
2, 5
0, 1
1, 7
9, 10
14, 16
27, 32
36, 40
46, 54
57, 53
47, 65
38, 46
44, 27
14, 16
9, 12
3, 9
1, 4
6, 1
1, 7
3, 1
3, 3
2, 4
5, 12
15, 16
27, 41
61, 77
111, 124
166, 185
241, 255
264, 327
236, 311
258, 285
183, 212
132, 159
96, 95
51, 51
36, 30
14, 12
8, 8
4, 6
5, 6
3, 4
4, 6
4, 3
2, 2
5, 3
7, 4
14, 13
21, 23
43, 43
98, 83
104, 109
154, 144
172, 164
138, 162
128, 144
122, 128
103, 81
57, 69
50, 34
28, 32
18, 31
36, 36
45, 48
61, 85
67, 99
80, 113
110, 127
122, 156
105, 145
64, 127
79, 94
60, 76
60, 60
39, 48
34, 50
29, 28
28, 34
19, 27
22, 25
17, 23
15, 23
16, 21
10, 9
9, 7
3, 13
7, 13
7, 5
6, 5
4, 5
1, 6
1, 10
1, 5
4, 10
8, 7
14, 9
7, 10
18, 17
8, 8
9, 2
6, 4
2, 5
6, 3
2, 1
3, 2
8, 5
6, 5
14, 11
24, 30
32, 30
34, 38
51, 44
48, 41
40, 49
19, 31
30, 27
24, 13
15, 16
12, 7
1, 10
7, 7
5, 8
5, 8
8, 1
6, 5
7, 9
11, 12
7, 7
8, 8
5, 3
7, 7
14, 6
7, 3
7, 4
3, 3
5, 2
6, 2
7, 5
5, 5
3, 3
8, 7
4, 3
4, 5
4, 5
14, 12
8, 6
9, 11
8, 9
12, 21
14, 16
12, 18
16, 18
15, 18
15, 12
15, 20
14, 14
9, 24
14, 13
8, 9
4, 10
4, 12
3, 24
8, 14
4, 21
11, 30
5, 25
6, 28
5, 32
0, 30
10, 29
4, 15
9, 10
4, 8
8, 10
4, 8
8, 12
3, 2
9, 5
6, 11
7, 7
11, 10
10, 17
18, 12
12, 13
25, 22
25, 27
31, 30
53, 31
67, 41
58, 39
52, 38
62, 28
42, 23
55, 24
46, 16
35, 15
16, 10
18, 11
19, 14
23, 34
22, 30
34, 28
41, 46
46, 72
56, 61
75, 80
82, 62
72, 65
73, 51
41, 55
37, 31
28, 19
23, 22
18, 22
15, 15
16, 26
31, 46
51, 58
83, 120
148, 233
276, 404
465, 629
723, 984
1116, 1556
1571, 1892
1951, 2316
2292, 2560
2350, 2760
2304, 2406
1980, 2072
1692, 1673
1347, 1247
963, 833
559, 557
323, 336
195, 152
107, 68
60, 40
34, 21
23, 17
21, 15
12, 13
14, 18
15, 15
20, 22
28, 37
38, 47
42, 63
64, 92
96, 114
164, 176
211, 211
247, 270
312, 366
361, 373
321, 379
312, 323
290, 272
265, 243
184, 170
127, 118
78, 66
55, 37
30, 28
15, 16
12, 11
6, 10
7, 5
8, 7
9, 10
13, 7
15, 12
16, 12
33, 8
31, 14
32, 15
43, 9
45, 7
58, 7
66, 4
60, 6
58, 5
38, 2
34, 2
20, 8
15, 3
12, 5
8, 3
9, 5
10, 5
4, 4
14, 2
5, 1
11, 4
9, 7
13, 3
12, 3
4, 2
6, 3
5, 8
5, 5
5, 4
7, 3
6, 9
4, 7
2, 3
8, 4
9, 4
5, 3
6, 5
5, 2
4, 1
3, 4
8, 5
3, 4
6, 5
2, 3
4, 7
3, 4
3, 4
3, 2
7, 5
1, 3
5, 12
3, 3
4, 3
6, 2
10, 3
3, 5
4, 0
4, 1
3, 3
4, 3
7, 3
10, 3
12, 4
12, 3
8, 4
5, 5
3, 4
4, 3
5, 5
5, 5
5, 0
3, 2
4, 4
2, 6
2, 3
3, 7
4, 8
4, 7
4, 16
6, 12
6, 8
3, 6
2, 5
5, 10
0, 5
3, 2
1, 1
4, 9
5, 4
4, 5
4, 2
3, 3
3, 7
4, 4
6, 5
3, 8
5, 9
6, 6
4, 7
3, 13
3, 12
3, 14
4, 11
4, 12
7, 15
6, 13
5, 12
8, 10
5, 9
6, 8
7, 1
9, 7
8, 3
5, 5
3, 3
5, 5
2, 0
4, 4
6, 5
2, 7
3, 5
2, 2
2, 6
3, 5
1, 6
4, 4
3, 7
3, 3
4, 5
6, 4
4, 2
2, 2
4, 4
1, 1
4, 3
3, 1
4, 0
3, 4
2, 4
4, 4
3, 8
1, 0
3, 3
6, 6
4, 1
2, 2
4, 7
5, 4
11, 1
11, 5
8, 2
11, 5
6, 1
8, 3
2, 0
4, 2
6, 6
2, 3
6, 4
3, 1
3, 4
2, 1
4, 2
1, 2
1, 2
3, 3
3, 1
5, 2
1, 3
3, 3
2, 0
0, 2
2, 1
1, 4
2, 3
2, 3
1, 2
1, 3
2, 1
1, 5
0, 2
0, 3
1, 2
0, 0
0, 1
2, 3
1, 4
3, 1
0, 1
0, 1
0, 2
2, 1
2, 3
0, 1
3, 1
1, 3
3, 2
3, 2
5, 2
1, 2
2, 2
3, 2
3, 0
2, 1
1, 2
1, 0
3, 2
0, 1
3, 1
3, 2
1, 1
2, 1
1, 4
3, 0
0, 2
3, 1
3, 2
1, 1
2, 6
5, 1
3, 2
4, 5
3, 7
5, 3
4, 5
5, 6
5, 5
4, 2
1, 5
1, 2
1, 5
4, 0
2, 1
2, 2
4, 1
2, 0
0, 1
1, 1
1, 0
3, 1
3, 0
0, 3
3, 2
0, 1
0, 1
3, 0
2, 2
1, 0
0, 2
2, 3
1, 2
1, 1
1, 1
0, 1
3, 2
5, 1
2, 1
2, 1
1, 0
0, 0
3, 0
3, 1
2, 3
3, 1
1, 0
0, 2
1, 0
2, 2
0, 2
1, 1
2, 2
0, 3
1, 2
2, 1
2, 1
1, 4
1, 0
1, 2
1, 3
1, 1
0, 2
0, 0
1, 1
0, 0
1, 1
1, 2
1, 0
1, 0
2, 0
0, 2
3, 2
0, 0
1, 1
0, 0
1, 1
1, 2
3, 2
1, 1
1, 1
0, 1
1, 1
0, 0
1, 0
1, 1
0, 0
0, 2
0, 0
0, 1
1, 0
0, 0
0, 3
1, 2
1, 0
1, 0
0, 1
0, 0
0, 0
1, 0
0, 0
0, 1
0, 0
0, 0
0, 2
2, 1
1, 0
0, 2
1, 0
0, 1
0, 0
1, 0
1, 0
1, 1
1, 0
2, 1
0, 0
0, 0
0, 0
0, 0
1, 1
0, 0
1, 0
3, 0
0, 0
0, 1
0, 0
0, 0
0, 0
1, 0
1, 0
0, 1
1, 0
0, 0
0, 0
1, 0
1, 0
0, 0
2, 0
0, 1
0, 1
0, 1
0, 2
0, 0
0, 2
1, 0
1, 0
3, 1
0, 0
0, 1
0, 0
0, 4
0, 0
0, 0
0, 2
0, 1
0, 0
0, 0
3, 1
0, 0
0, 0
0, 1
0, 1
1, 0
1, 0
0, 0
0, 0
1, 1
0, 0
1, 0
2, 1
0, 0
1, 0
0, 0
0, 0
0, 0
2, 0
0, 0
1, 0
0, 0
0, 0
0, 0
0, 0
0, 0
0, 0
1, 1
0, 1
0, 1
1, 0
0, 0
1, 0
0, 0
0, 0
0, 0
0, 0
0, 1
0, 0
0, 0
1, 0
0, 0
0, 0
0, 1
0, 0
0, 1
0, 0
0, 3
0, 0
0, 1
0, 2
0, 0
1, 0
0, 0
0, 0
0, 0
0, 0
1, 0
0, 0
0, 1
0, 0
0, 1
0, 0
0, 1
0, 1
0, 0
0, 0
0, 0
0, 0
0, 0
0, 0
0, 0
0, 0
0, 0
0, 0
0, 0
0, 0
1, 0
0, 0
1, 1
0, 0
1, 1
1, 0
0, 0
0, 0
0, 0
0, 0
0, 0
0, 0
0, 0
0, 0
0, 0
1, 0
0, 0
0, 1
0, 0
0, 1
0, 0
0, 0
0, 2
0, 0
0, 0
0, 0
1, 0
0, 0
0, 0
0, 1
1, 0
0, 1
0, 0
1, 0
0, 0
0, 0
0, 0
0, 0
0, 0
2, 0
0, 1
0, 0
0, 1
0, 0
0, 0
0, 0
0, 0
0, 0
1, 0
1, 0
0, 1
1, 0
0, 0
0, 0
1, 0
0, 1
0, 0
0, 0
0, 0
0, 0
0, 0
0, 0
0, 0
0, 0
0, 1
0, 0
0, 0
0, 0
0, 1
0, 0
0, 1
1, 0
0, 0
1, 0
0, 0
0, 0
0, 0
1, 1
0, 1
0, 0
0, 0
0, 1
1, 1
0, 0
0, 0
0, 0
0, 0
0, 0
0, 0
0, 0
0, 0
0, 0
0, 0
0, 0
0, 0
0, 0
1, 0
0, 0
0, 0
0, 0
1, 0
0, 0
0, 0
0, 0
0, 0
0, 0
0, 0
0, 0
0, 0
0, 0
0, 1
0, 0
0, 0
0, 0
0, 0
0, 0
0, 0
0, 0
0, 0
0, 0
0, 0
0, 0
1, 0
0, 0
0, 0
0, 0
0, 0
0, 0
0, 0
0, 0
0, 0
0, 0
0, 0
0, 0
0, 0
0, 0
0, 0
0, 0
0, 0
0, 0
0, 0
0, 0
0, 0
0, 0
0, 0
0, 0
0, 0
0, 0
0, 0
0, 0
0, 0
0, 0
0, 0
0, 0
0, 0
0, 0
0, 0
0, 0
0, 0
0, 0
0, 0
1, 0
0, 0
0, 0
0, 0
0, 0
0, 0
0, 0
0, 0
0, 0
0, 0
0, 0
0, 0
1, 0
0, 0
0, 0
0, 0
0, 0
0, 0
0, 0
0, 0
0, 0
0, 0
0, 0
0, 0
0, 0
0, 0
0, 0
0, 0
0, 0
0, 0
0, 0
0, 0
0, 0
0, 0
0, 0
0, 0
0, 0
0, 0
0, 0
0, 0
0, 0
0, 0
0, 0
0, 0
0, 0
0, 0
0, 0
0, 0
0, 0
0, 0
0, 0
0, 0
0, 0
0, 0
0, 0
0, 0
0, 0
0, 0
0, 0
0, 0
0, 0
0, 0
0, 0
0, 0
0, 0
0, 0
0, 0
0, 0
0, 0
0, 0
0, 0
0, 0
0, 0
0, 0
0, 0
0, 0
0, 0
0, 0
0, 0
0, 0
0, 0
0, 0
0, 0
0, 0
0, 0
0, 0
0, 0
0, 0
0, 0
0, 0
0, 0
0, 0
0, 0
0, 0
0, 1
0, 0
0, 0
0, 0
0, 0
0, 0
0, 0
0, 0
0, 0
0, 0
0, 0
0, 0
0, 0
0, 0
0, 0
0, 0
0, 0
0, 0
0, 0
0, 0
0, 0
0, 0
0, 0
0, 0
0, 0
0, 0
0, 0
0, 0
0, 0
0, 0
0, 0
0, 0
0, 0
0, 0
0, 0
0, 0
0, 0
0, 0
0, 0
0, 0
0, 0
0, 0
0, 0
0, 0
0, 0
0, 0
0, 0
0, 0
0, 0
0, 0
0, 0
0, 0
0, 0
0, 0
0, 0
0, 0
0, 0
0, 0
0, 0
0, 0
0, 0
0, 0
0, 0
0, 0
0, 0
0, 0
0, 0
0, 0
0, 0
0, 0
0, 0
0, 0
0, 0
0, 0
0, 0
0, 0
0, 0
0, 0
0, 0
0, 0
0, 0
0, 0
0, 0
0, 0
0, 0
0, 0
0, 0
0, 0
0, 0
0, 0
0, 0
0, 0
0, 0
0, 0
0, 0
0, 0
0, 0
0, 0
0, 0
0, 0
0, 0
0, 0
0, 0
0, 0
0, 0
0, 0
0, 0
0, 0
0, 0
0, 0
0, 0
0, 0
0, 0
0, 0
0, 0
0, 0
0, 0
0, 0
0, 0
0, 0
0, 0
0, 0
0, 0
0, 0
0, 0
0, 0
0, 0
0, 0
0, 0
0, 0
0, 0
0, 0
0, 0
0, 0
0, 0
0, 0
0, 0
0, 0
0, 0
0, 0
0, 0
0, 0
0, 0
0, 0
0, 0
0, 0
0, 0
0, 0
0, 0
0, 0
0, 0
0, 0
0, 0
0, 0
0, 0
0, 0
0, 0
0, 0
0, 0
0, 0
0, 0
0, 0
0, 0
0, 0
0, 0
0, 0
0, 0
0, 0
0, 0
0, 0
0, 0
0, 0
0, 0
0, 0
0, 0
0, 0
0, 0
0, 0
0, 0
0, 0
0, 0
0, 0
0, 0
0, 0
0, 0
0, 0
0, 0
0, 0
0, 0
0, 0
0, 0
0, 0
0, 0
0, 0
0, 0
0, 0
0, 0
0, 0
0, 0
0, 0
0, 0
0, 0
0, 0
0, 0
0, 0
0, 0
0, 0
0, 0
0, 0
0, 0
0, 0
0, 0
0, 0
0, 0
0, 0
0, 0
0, 0
0, 0
0, 0
0, 0
0, 0
0, 0
0, 0
0, 0
0, 0
0, 0
0, 0
0, 0
0, 0
0, 0
0, 0
0, 0
0, 0
0, 0
0, 0
0, 0
0, 0
0, 0
0, 0
0, 0
0, 0
0, 0
0, 0
0, 0
0, 0
0, 0
0, 0
0, 0
0, 0
0, 0
0, 0
0, 0
0, 0
0, 0
0, 0
0, 0
0, 0
0, 0
0, 0
0, 0
0, 0
0, 0
0, 0
0, 0
0, 0
0, 0
0, 0
0, 0
0, 0
0, 0
0, 0
0, 0
0, 0
0, 0
0, 0
0, 0
0, 0
0, 0
0, 0
0, 0
0, 0
0, 0
0, 0
0, 0
0, 0
0, 0
0, 0
0, 0
0, 0
0, 0
0, 0
0, 0
0, 0
0, 0
0, 0
0, 0
0, 0
0, 0
0, 0
0, 0
0, 0
0, 0
0, 0
0, 0
0, 0
0, 0
0, 0
0, 0
0, 0
0, 0
0, 0
0, 0
0, 0
0, 0
0, 0
0, 0
0, 0
0, 0
0, 0
0, 0
0, 0
0, 0
0, 0
0, 0
0, 0
0, 0
0, 0
0, 0
0, 0
0, 0
0, 0
0, 0
0, 0
0, 0
0, 0
0, 0
0, 0
0, 0
0, 0
0, 0
#ENDOFDATA     end of spectrum data