File: host_upload/06-09-2024/ps_0852/dump3/ps__0852shot_2074.msa
#FORMAT      : EMSA/MAS spectral data file
#VERSION     : TC202v2.0 PIXL
#TITLE       : N/A
#DATE        :       Date in the format DD-MMM-YYYY, for example 07-JUL-2010
#TIME        :             The time of day at which the spectrum was recorded, in 24-hour format
#OWNER       : PIXL Flight Model       (PIXL will use this to indicate which instrument took the data.)
#NPOINTS     : 4096     Number of data points in the spectrum (This can be zero for configuration only files)
#NCOLUMNS    : 2     Number of data columns in the spectrum (This can be zero for configuration only files)
#XUNITS      : eV
#YUNITS      : COUNTS
#DATATYPE    : YY
#XPERCHAN    : 7.862, 7.881   eV per channel (separate by commas if more than one detector)
#OFFSET      : 18.5, -22.4         eV of first channel  (separate by commas if more than one detector
#SIGNALTYPE  : XRF
#YP_TEMP     : 2.364
#LIVETIME    : 8.54146, 8.56773   seconds (separate by commas if more than one detector)
#REALTIME    : 10, 10.0   seconds (separate by commas if more than one detector)
#SPECTRUM    : start of spectrum data
0, 0
0, 0
0, 0
0, 0
0, 0
0, 0
0, 0
0, 0
0, 0
0, 0
0, 0
0, 0
0, 0
0, 0
0, 0
0, 0
0, 0
0, 0
0, 0
0, 0
0, 0
0, 0
0, 0
0, 0
0, 0
0, 0
0, 0
0, 0
0, 0
0, 0
0, 0
1, 0
0, 0
0, 0
0, 0
0, 0
0, 0
1, 0
2, 0
2, 0
2, 0
2, 0
3, 5
0, 4
1, 8
2, 1
3, 4
4, 0
4, 5
12, 8
26, 28
43, 26
64, 54
80, 65
82, 68
88, 68
74, 53
46, 43
18, 21
16, 25
9, 7
3, 5
2, 5
2, 0
3, 5
3, 5
6, 10
14, 10
28, 26
55, 42
98, 89
154, 170
259, 270
379, 288
407, 360
476, 346
413, 314
306, 250
257, 179
157, 129
61, 64
31, 35
28, 16
14, 12
6, 5
1, 4
2, 3
2, 4
0, 1
1, 0
2, 3
2, 0
2, 1
0, 4
3, 3
2, 4
3, 6
9, 5
5, 9
7, 7
10, 5
10, 4
8, 6
8, 4
5, 2
4, 12
9, 4
10, 8
16, 16
14, 16
25, 24
37, 35
41, 44
77, 62
72, 67
90, 56
60, 73
64, 57
63, 63
57, 53
60, 49
39, 45
38, 31
29, 21
28, 21
21, 19
22, 9
16, 18
11, 13
14, 7
11, 12
3, 5
4, 7
4, 2
1, 7
2, 2
4, 4
5, 2
1, 3
0, 4
4, 1
3, 5
4, 4
7, 0
5, 1
6, 2
4, 3
3, 0
9, 5
8, 2
5, 6
7, 7
10, 5
22, 15
19, 14
14, 19
30, 16
24, 23
32, 24
17, 24
21, 19
12, 10
15, 12
10, 11
7, 13
10, 9
6, 5
5, 8
8, 6
9, 6
11, 7
7, 12
6, 7
10, 7
6, 5
9, 7
7, 7
13, 5
10, 12
14, 9
9, 3
11, 10
6, 10
5, 8
8, 5
8, 7
6, 6
12, 10
8, 6
11, 8
9, 14
15, 20
19, 11
17, 22
25, 9
16, 16
27, 14
16, 12
14, 21
26, 18
25, 21
15, 17
21, 12
11, 15
14, 7
12, 11
9, 10
9, 12
11, 10
6, 8
13, 8
4, 11
10, 8
8, 9
15, 7
10, 5
9, 10
10, 8
6, 4
9, 9
8, 9
10, 6
10, 7
13, 11
19, 8
19, 16
17, 22
10, 16
18, 14
22, 24
24, 29
26, 28
27, 31
25, 20
13, 23
20, 26
14, 18
17, 17
11, 13
18, 9
25, 14
25, 11
22, 12
25, 15
31, 22
32, 29
41, 33
50, 33
48, 41
63, 59
76, 59
72, 71
75, 57
52, 44
54, 38
43, 34
24, 29
27, 15
28, 15
25, 24
24, 24
24, 63
51, 64
90, 101
154, 205
293, 328
574, 516
817, 867
1211, 1254
1656, 1686
2046, 1957
2456, 2224
2585, 2150
2488, 2147
2234, 1822
1898, 1422
1423, 1030
990, 694
615, 459
372, 250
221, 135
123, 74
68, 42
53, 29
33, 21
26, 20
19, 15
30, 17
22, 12
31, 24
35, 22
54, 42
80, 69
98, 91
153, 112
202, 169
237, 224
284, 257
339, 326
394, 341
392, 360
367, 285
342, 253
286, 180
216, 158
137, 98
110, 75
53, 45
28, 22
29, 19
14, 4
12, 17
9, 11
7, 7
16, 12
15, 12
17, 13
14, 15
12, 10
16, 12
14, 12
10, 7
8, 9
8, 7
8, 3
4, 5
7, 6
7, 3
4, 5
3, 6
13, 2
10, 3
6, 5
6, 6
6, 4
7, 2
4, 2
4, 5
5, 4
5, 5
8, 4
4, 9
8, 8
8, 8
9, 6
7, 9
6, 4
6, 6
14, 7
5, 7
8, 4
7, 4
8, 5
6, 4
5, 6
3, 7
3, 3
2, 9
11, 10
9, 1
5, 11
2, 7
3, 7
6, 6
5, 4
8, 5
7, 2
8, 7
7, 3
8, 4
4, 4
6, 3
1, 3
4, 3
5, 3
4, 5
7, 1
7, 1
3, 7
6, 7
1, 5
3, 2
4, 8
5, 4
9, 4
4, 5
9, 4
9, 7
13, 5
3, 4
4, 6
4, 3
4, 8
7, 6
7, 10
4, 8
6, 1
8, 2
9, 3
4, 3
3, 4
6, 1
5, 5
6, 3
3, 7
2, 3
4, 5
5, 1
6, 5
4, 2
2, 2
7, 7
5, 5
3, 1
4, 5
3, 2
2, 1
6, 6
5, 5
4, 4
0, 5
4, 3
4, 4
4, 3
2, 1
1, 3
3, 7
4, 6
3, 1
4, 4
2, 5
8, 1
3, 3
5, 5
2, 6
2, 2
7, 2
1, 5
7, 6
3, 2
8, 0
3, 3
4, 7
8, 4
1, 3
4, 3
3, 6
4, 1
4, 0
3, 5
4, 2
5, 2
1, 2
6, 1
6, 5
3, 5
4, 4
1, 6
2, 3
1, 2
5, 0
7, 2
6, 2
1, 3
2, 3
3, 3
2, 3
5, 2
3, 4
2, 0
4, 1
3, 3
1, 3
3, 2
6, 2
3, 5
0, 2
4, 1
1, 1
3, 1
7, 2
1, 2
2, 0
4, 2
1, 5
7, 4
6, 4
4, 1
4, 3
5, 2
4, 4
3, 2
5, 6
4, 2
3, 0
0, 1
3, 4
3, 1
1, 1
2, 2
4, 2
1, 2
2, 9
4, 1
2, 2
4, 4
1, 3
1, 2
2, 3
0, 7
0, 0
3, 2
2, 2
1, 4
2, 3
2, 1
3, 0
3, 0
2, 3
3, 1
0, 4
4, 2
4, 4
1, 2
3, 3
1, 6
2, 1
2, 1
5, 2
4, 5
3, 6
6, 2
5, 5
1, 1
2, 2
2, 3
3, 0
1, 3
4, 4
3, 4
3, 3
5, 1
6, 4
8, 4
0, 2
6, 6
3, 1
3, 1
6, 5
2, 6
1, 1
2, 2
1, 1
1, 0
2, 0
0, 0
1, 3
0, 1
0, 1
3, 0
0, 3
2, 2
3, 2
1, 1
2, 2
2, 2
0, 2
1, 3
1, 2
0, 2
1, 1
2, 2
2, 2
1, 1
1, 1
2, 1
2, 0
1, 2
5, 0
1, 2
2, 3
1, 2
3, 0
0, 0
4, 1
3, 1
2, 1
5, 1
0, 1
1, 0
0, 1
1, 0
1, 2
1, 0
2, 2
0, 1
0, 0
2, 1
1, 0
0, 0
2, 2
0, 0
0, 1
0, 1
2, 0
1, 1
0, 1
2, 2
1, 1
0, 0
2, 0
1, 3
2, 0
0, 2
1, 0
1, 0
0, 0
2, 0
1, 0
1, 1
1, 0
1, 0
1, 2
0, 2
3, 2
0, 3
3, 1
0, 0
1, 0
6, 1
2, 0
1, 0
0, 0
1, 1
1, 0
0, 2
1, 3
0, 2
0, 1
0, 0
1, 0
0, 3
0, 0
0, 1
1, 1
0, 0
0, 1
0, 0
0, 0
0, 0
2, 0
3, 1
0, 0
1, 0
0, 2
0, 1
1, 0
1, 0
2, 1
3, 1
0, 0
0, 0
1, 0
1, 0
1, 0
2, 1
2, 0
0, 1
0, 0
0, 0
0, 0
0, 2
1, 0
0, 0
0, 0
0, 0
0, 0
1, 2
0, 1
1, 0
2, 0
0, 0
1, 0
1, 0
0, 0
0, 1
1, 0
0, 1
0, 1
0, 2
0, 0
0, 0
0, 0
1, 0
1, 0
0, 0
2, 0
0, 0
0, 0
1, 1
1, 0
0, 0
0, 0
0, 0
1, 0
0, 0
0, 0
0, 0
0, 1
1, 0
0, 0
0, 1
0, 1
0, 0
1, 0
0, 0
0, 0
0, 0
0, 1
2, 0
0, 0
0, 2
0, 1
0, 2
1, 1
1, 0
0, 0
0, 0
1, 0
0, 0
0, 0
0, 0
0, 0
0, 1
0, 0
0, 2
0, 0
0, 0
0, 1
0, 0
0, 0
0, 0
1, 0
2, 0
1, 0
0, 0
0, 0
0, 1
1, 0
0, 0
0, 0
1, 0
0, 0
0, 0
0, 1
0, 0
0, 0
1, 0
0, 0
2, 0
0, 0
0, 0
0, 0
1, 0
0, 0
0, 0
0, 0
2, 0
0, 1
1, 0
0, 0
0, 0
0, 0
0, 0
0, 0
1, 1
0, 0
0, 1
0, 0
0, 0
1, 0
1, 0
0, 0
0, 1
0, 1
0, 1
0, 0
0, 0
0, 0
0, 0
0, 1
0, 0
0, 0
2, 0
0, 1
2, 0
0, 1
0, 0
0, 0
0, 0
1, 0
1, 1
0, 1
0, 0
0, 0
0, 0
0, 0
0, 0
0, 0
0, 0
0, 0
0, 0
0, 0
0, 0
0, 0
0, 0
0, 1
1, 0
0, 0
0, 0
0, 1
0, 0
0, 0
0, 0
0, 0
0, 0
0, 0
0, 0
0, 0
1, 0
0, 0
0, 0
0, 1
0, 0
0, 0
0, 0
0, 1
0, 0
0, 2
1, 0
0, 0
0, 0
1, 0
0, 0
0, 1
0, 0
0, 0
0, 0
0, 0
0, 1
0, 0
0, 0
0, 1
0, 0
0, 0
0, 0
0, 0
0, 0
1, 0
1, 0
0, 0
0, 0
0, 0
0, 0
0, 0
0, 0
1, 1
1, 0
0, 0
0, 0
0, 0
0, 0
0, 0
0, 0
0, 0
0, 0
0, 0
0, 0
0, 0
1, 0
0, 0
0, 0
0, 0
0, 1
0, 0
0, 1
0, 0
0, 0
0, 0
0, 0
0, 0
0, 0
0, 0
0, 0
0, 0
0, 0
0, 0
0, 0
0, 0
0, 0
0, 0
0, 0
0, 0
0, 0
0, 0
1, 0
0, 0
0, 0
0, 0
0, 0
0, 0
1, 0
0, 0
1, 0
0, 0
0, 0
0, 0
0, 0
0, 0
0, 0
0, 0
0, 0
0, 0
0, 0
0, 1
0, 0
0, 1
0, 0
0, 0
0, 0
0, 0
1, 0
0, 0
0, 0
0, 0
0, 0
0, 0
0, 0
0, 0
0, 0
0, 0
0, 0
0, 0
0, 0
0, 0
0, 0
0, 1
0, 0
0, 0
0, 0
0, 0
0, 0
0, 0
0, 0
0, 0
0, 0
0, 0
0, 0
0, 0
0, 0
0, 0
0, 0
0, 0
0, 0
0, 0
0, 0
0, 0
0, 0
0, 0
0, 0
0, 0
0, 0
0, 0
0, 0
0, 0
0, 0
0, 0
0, 0
0, 0
0, 0
0, 0
0, 0
0, 0
0, 0
0, 0
0, 1
0, 0
0, 0
0, 0
0, 0
0, 0
0, 0
0, 0
0, 0
0, 0
0, 0
0, 0
0, 0
0, 0
0, 0
0, 0
0, 0
0, 0
0, 0
0, 0
0, 0
0, 0
0, 0
0, 0
0, 0
0, 0
0, 0
0, 0
0, 0
0, 0
0, 0
0, 0
0, 0
0, 0
0, 0
0, 0
0, 0
0, 0
0, 0
0, 0
0, 0
0, 0
0, 0
0, 0
0, 0
0, 0
0, 0
0, 0
0, 0
0, 0
0, 0
0, 0
0, 0
0, 0
0, 0
0, 0
0, 0
0, 0
0, 0
0, 0
0, 0
0, 0
0, 0
0, 0
0, 0
0, 0
0, 0
0, 0
0, 0
0, 0
0, 0
0, 0
0, 0
0, 0
0, 0
0, 0
0, 0
0, 0
0, 0
0, 0
0, 0
0, 0
0, 0
0, 0
0, 0
0, 0
0, 0
0, 0
0, 0
0, 0
0, 0
0, 0
0, 0
0, 0
0, 0
0, 0
0, 0
0, 0
0, 0
0, 0
0, 0
0, 0
0, 0
0, 0
0, 0
0, 0
0, 0
0, 0
0, 0
0, 0
0, 0
0, 0
0, 0
0, 0
0, 0
0, 0
0, 0
0, 0
0, 0
0, 0
0, 0
0, 0
0, 0
0, 0
0, 0
0, 0
0, 0
0, 0
0, 0
0, 0
0, 0
0, 0
0, 0
0, 0
0, 0
0, 0
0, 0
0, 0
0, 0
0, 0
0, 0
0, 0
0, 0
0, 0
0, 0
0, 0
0, 0
0, 0
0, 0
0, 0
0, 0
0, 0
0, 0
0, 0
0, 0
0, 0
0, 0
0, 0
0, 0
0, 0
0, 0
0, 0
0, 0
0, 0
0, 0
0, 0
0, 0
0, 0
0, 0
0, 0
0, 0
0, 0
0, 0
0, 0
0, 0
0, 0
0, 0
0, 0
0, 0
0, 0
0, 0
0, 0
0, 0
0, 0
0, 0
0, 0
0, 0
0, 0
0, 0
0, 0
0, 0
0, 0
0, 0
0, 0
0, 0
0, 0
0, 0
0, 0
0, 0
0, 0
0, 0
0, 0
0, 0
0, 0
0, 0
0, 0
0, 0
0, 0
0, 0
0, 0
0, 0
0, 0
0, 0
0, 0
0, 0
0, 0
0, 0
0, 0
0, 0
0, 0
0, 0
0, 0
0, 0
0, 0
0, 0
0, 0
0, 0
0, 0
0, 0
0, 0
0, 0
0, 0
0, 0
0, 0
0, 0
0, 0
0, 0
0, 0
0, 0
0, 0
0, 0
0, 0
0, 0
0, 0
0, 0
0, 0
0, 0
0, 0
0, 0
0, 0
0, 0
0, 0
0, 0
0, 0
0, 0
0, 0
0, 0
0, 0
0, 0
0, 0
0, 0
0, 0
0, 0
0, 0
0, 0
0, 0
0, 0
0, 0
0, 0
0, 0
0, 0
0, 0
0, 0
0, 0
0, 0
0, 0
0, 0
0, 0
0, 0
0, 0
0, 0
0, 0
0, 0
0, 0
0, 0
0, 0
0, 0
0, 0
0, 0
0, 0
0, 0
0, 0
0, 0
0, 0
0, 0
0, 0
0, 0
0, 0
0, 0
0, 0
0, 0
0, 0
0, 0
0, 0
0, 0
0, 0
0, 0
0, 0
0, 0
0, 0
0, 0
0, 0
0, 0
0, 0
0, 0
0, 0
0, 0
0, 0
0, 0
0, 0
0, 0
0, 0
0, 0
0, 0
0, 0
0, 0
0, 0
0, 0
0, 0
0, 0
0, 0
0, 0
0, 0
0, 0
0, 0
0, 0
0, 0
0, 0
0, 0
0, 0
0, 0
0, 0
0, 0
0, 0
0, 0
0, 0
0, 0
0, 0
0, 0
0, 0
0, 0
0, 0
0, 0
0, 0
0, 0
0, 0
0, 0
0, 0
0, 0
0, 0
0, 0
0, 0
0, 0
0, 0
0, 0
0, 0
0, 0
0, 0
0, 0
0, 0
0, 0
0, 0
0, 0
0, 0
0, 0
0, 0
0, 0
0, 0
0, 0
0, 0
0, 0
#ENDOFDATA     end of spectrum data