File: host_upload/06-09-2024/ps_0852/dump3/ps__0852shot_2357.msa
#FORMAT      : EMSA/MAS spectral data file
#VERSION     : TC202v2.0 PIXL
#TITLE       : N/A
#DATE        :       Date in the format DD-MMM-YYYY, for example 07-JUL-2010
#TIME        :             The time of day at which the spectrum was recorded, in 24-hour format
#OWNER       : PIXL Flight Model       (PIXL will use this to indicate which instrument took the data.)
#NPOINTS     : 4096     Number of data points in the spectrum (This can be zero for configuration only files)
#NCOLUMNS    : 2     Number of data columns in the spectrum (This can be zero for configuration only files)
#XUNITS      : eV
#YUNITS      : COUNTS
#DATATYPE    : YY
#XPERCHAN    : 7.862, 7.881   eV per channel (separate by commas if more than one detector)
#OFFSET      : 18.5, -22.4         eV of first channel  (separate by commas if more than one detector
#SIGNALTYPE  : XRF
#YP_TEMP     : 2.62
#LIVETIME    : 8.56989, 8.55674   seconds (separate by commas if more than one detector)
#REALTIME    : 10, 10.0   seconds (separate by commas if more than one detector)
#SPECTRUM    : start of spectrum data
0, 0
0, 0
0, 0
0, 0
0, 0
0, 0
0, 0
0, 0
0, 0
0, 0
0, 0
0, 0
0, 0
0, 0
0, 0
0, 0
0, 0
0, 0
0, 0
0, 0
0, 0
0, 0
0, 0
0, 0
0, 0
0, 0
0, 0
0, 0
0, 0
0, 0
0, 0
0, 0
0, 0
0, 0
0, 0
1, 0
1, 0
1, 0
1, 1
3, 0
2, 2
1, 0
0, 0
0, 0
2, 3
0, 2
3, 1
5, 2
7, 3
12, 6
26, 23
43, 33
49, 61
73, 65
72, 84
72, 52
67, 47
37, 31
29, 18
14, 10
9, 9
7, 3
3, 7
2, 2
1, 2
5, 3
6, 5
12, 18
26, 20
47, 43
92, 79
181, 131
303, 219
333, 310
425, 369
430, 374
375, 335
287, 249
218, 178
110, 106
73, 54
38, 26
19, 18
9, 12
8, 5
2, 3
0, 1
1, 1
3, 3
2, 0
3, 0
3, 1
5, 5
9, 5
8, 10
8, 10
16, 17
24, 20
24, 34
32, 20
29, 23
22, 17
11, 16
9, 14
7, 6
8, 8
6, 4
11, 5
14, 11
14, 8
22, 22
25, 31
34, 31
33, 33
40, 58
38, 49
52, 39
33, 36
33, 32
23, 31
31, 24
29, 15
14, 20
16, 18
27, 12
16, 16
11, 11
12, 13
12, 6
7, 9
7, 4
6, 7
2, 3
3, 5
3, 4
0, 3
4, 5
1, 6
3, 3
3, 8
6, 3
4, 4
2, 3
6, 3
3, 2
2, 2
3, 0
1, 1
1, 6
4, 1
1, 0
8, 2
10, 5
10, 8
8, 9
21, 18
19, 13
16, 16
24, 16
17, 11
11, 10
7, 9
10, 7
6, 8
7, 7
3, 5
6, 9
7, 6
8, 8
2, 4
7, 4
5, 7
5, 4
5, 9
7, 6
7, 2
2, 5
6, 9
4, 9
3, 10
7, 12
7, 11
6, 10
2, 6
4, 5
2, 5
6, 6
4, 6
4, 5
6, 12
4, 2
11, 9
18, 9
5, 8
6, 9
9, 15
17, 14
16, 18
14, 23
10, 21
15, 20
15, 28
13, 34
11, 42
7, 40
13, 44
9, 54
13, 40
9, 26
13, 25
6, 23
10, 17
8, 11
7, 9
8, 10
10, 9
11, 4
8, 7
8, 4
5, 4
7, 9
7, 3
10, 6
9, 3
12, 9
11, 10
30, 11
22, 7
21, 15
22, 11
28, 10
23, 13
25, 13
14, 15
13, 16
10, 11
7, 13
4, 7
7, 10
3, 10
6, 12
4, 6
14, 12
9, 16
12, 19
22, 20
22, 24
37, 53
45, 47
63, 53
58, 88
60, 63
63, 58
55, 66
35, 51
34, 38
29, 35
24, 58
19, 62
32, 93
34, 102
49, 121
70, 169
108, 214
172, 296
316, 424
471, 649
829, 947
1250, 1308
1572, 1758
2094, 2122
2235, 2355
2530, 2534
2340, 2252
2094, 1943
1730, 1404
1407, 983
895, 686
651, 430
386, 239
168, 138
111, 65
63, 48
36, 30
23, 12
18, 21
12, 14
15, 9
16, 24
18, 11
30, 22
21, 43
44, 58
63, 80
100, 125
130, 182
202, 217
262, 299
309, 312
339, 338
340, 349
333, 308
301, 275
264, 210
226, 159
147, 92
101, 57
58, 31
27, 16
36, 16
27, 4
18, 10
20, 9
14, 10
13, 9
11, 11
13, 19
11, 15
15, 17
15, 17
15, 19
7, 10
3, 12
5, 5
8, 9
11, 8
9, 7
4, 7
6, 6
10, 7
4, 7
6, 4
1, 6
4, 8
4, 7
4, 8
5, 8
6, 9
3, 4
5, 9
3, 11
3, 12
5, 21
9, 10
2, 9
6, 9
4, 12
4, 11
6, 6
8, 9
7, 11
2, 10
6, 5
10, 2
6, 6
10, 4
7, 5
5, 2
4, 6
8, 2
5, 2
7, 2
4, 1
9, 1
5, 1
12, 4
4, 1
6, 7
10, 4
9, 5
6, 2
4, 9
5, 4
2, 0
1, 3
4, 5
2, 3
1, 3
3, 3
6, 2
3, 4
7, 5
3, 4
0, 4
4, 11
4, 5
3, 3
2, 4
1, 3
3, 1
5, 1
3, 5
0, 6
5, 2
2, 1
5, 1
7, 2
3, 3
5, 0
4, 4
5, 3
3, 3
5, 1
7, 3
5, 3
6, 5
5, 4
8, 5
6, 6
3, 3
1, 6
7, 3
6, 4
3, 2
12, 3
6, 2
6, 4
10, 3
7, 5
1, 3
3, 4
6, 2
3, 4
2, 4
2, 2
2, 4
2, 3
3, 2
1, 5
5, 2
4, 2
3, 1
5, 1
0, 4
5, 6
4, 3
2, 12
5, 6
3, 7
6, 2
5, 7
3, 8
3, 4
2, 4
3, 4
4, 2
4, 5
2, 3
4, 4
3, 2
3, 3
3, 4
1, 2
2, 1
2, 4
2, 3
3, 4
1, 4
1, 0
2, 6
3, 2
3, 4
1, 5
1, 2
3, 1
4, 6
5, 3
1, 1
0, 2
2, 1
5, 2
2, 6
1, 3
2, 3
6, 1
2, 2
4, 2
7, 2
4, 0
3, 1
1, 2
2, 0
1, 1
4, 1
4, 0
0, 6
5, 4
1, 2
0, 1
5, 2
1, 0
2, 0
1, 2
0, 1
1, 1
1, 2
1, 2
1, 4
2, 2
1, 1
1, 2
2, 2
1, 1
3, 6
0, 4
1, 5
3, 3
3, 1
2, 2
2, 2
3, 2
1, 3
1, 3
5, 3
1, 3
3, 0
2, 2
2, 2
1, 2
0, 2
3, 2
0, 1
2, 5
1, 4
4, 2
3, 1
3, 1
3, 1
0, 0
2, 3
2, 3
3, 0
3, 5
1, 2
0, 1
3, 1
1, 4
4, 3
1, 7
3, 5
4, 3
7, 6
4, 1
1, 6
4, 5
1, 6
1, 3
2, 3
6, 5
2, 3
6, 4
4, 3
0, 1
3, 2
1, 1
0, 2
1, 1
2, 0
3, 1
2, 0
1, 2
2, 1
4, 3
2, 3
3, 2
1, 2
3, 2
1, 2
5, 1
4, 3
3, 2
1, 4
1, 3
3, 1
1, 1
3, 1
0, 0
3, 2
3, 0
3, 1
0, 0
1, 1
2, 0
1, 1
0, 0
2, 2
2, 3
2, 1
0, 0
1, 1
0, 1
2, 2
2, 1
0, 2
1, 0
3, 0
1, 0
1, 0
0, 2
0, 2
1, 0
0, 0
0, 2
0, 2
0, 2
3, 0
1, 0
1, 3
1, 2
0, 0
1, 1
0, 0
2, 0
2, 0
1, 1
0, 2
0, 1
2, 0
1, 0
0, 0
1, 1
1, 1
0, 0
0, 1
0, 3
1, 0
1, 0
2, 0
0, 1
1, 0
0, 0
2, 1
1, 0
2, 2
0, 0
3, 1
0, 2
0, 0
3, 0
4, 0
0, 0
1, 2
2, 2
0, 1
3, 2
0, 2
1, 0
1, 1
1, 0
0, 0
0, 1
0, 0
1, 0
0, 0
1, 0
0, 1
0, 0
1, 1
0, 0
2, 1
0, 0
0, 0
0, 3
1, 2
0, 2
0, 1
0, 0
0, 0
0, 2
0, 1
2, 1
0, 0
0, 0
1, 1
2, 0
0, 1
2, 0
0, 1
2, 0
1, 0
0, 1
2, 0
0, 0
1, 1
0, 0
0, 1
1, 0
0, 0
0, 0
1, 0
0, 0
1, 1
1, 0
0, 0
0, 0
0, 1
0, 0
2, 0
0, 0
1, 0
0, 0
0, 0
2, 0
2, 0
1, 0
0, 0
0, 1
1, 0
0, 1
1, 0
0, 1
1, 0
0, 0
0, 1
1, 0
1, 0
0, 0
1, 0
0, 0
0, 0
0, 2
1, 0
0, 0
1, 0
0, 0
0, 0
1, 1
0, 0
0, 0
0, 0
0, 0
0, 0
0, 0
0, 1
0, 0
0, 1
2, 0
1, 0
0, 0
0, 0
0, 0
0, 1
0, 0
0, 0
0, 0
1, 1
0, 1
0, 0
1, 0
1, 0
0, 0
0, 0
0, 0
0, 0
0, 0
0, 0
0, 0
0, 0
1, 1
1, 0
0, 0
0, 1
0, 1
1, 0
1, 0
0, 0
1, 1
0, 0
0, 0
0, 1
0, 0
0, 2
0, 0
1, 0
0, 0
0, 1
0, 0
0, 1
0, 0
1, 1
0, 0
1, 0
0, 0
0, 0
0, 0
2, 0
1, 1
0, 0
1, 0
0, 0
0, 0
0, 1
0, 0
0, 0
0, 1
1, 2
0, 0
0, 0
0, 0
1, 0
0, 1
0, 0
0, 0
1, 0
2, 0
1, 1
0, 0
0, 0
1, 0
0, 0
0, 0
1, 0
0, 0
0, 0
0, 0
0, 0
0, 0
0, 1
0, 1
0, 0
1, 0
0, 2
0, 0
0, 0
0, 0
0, 1
0, 0
0, 0
1, 0
0, 0
1, 0
0, 0
0, 0
0, 0
0, 0
0, 0
0, 0
0, 0
0, 0
1, 0
0, 0
0, 0
1, 0
2, 0
0, 0
0, 0
0, 0
0, 1
0, 0
0, 0
0, 0
0, 0
0, 0
0, 0
0, 0
0, 0
0, 0
0, 0
2, 0
0, 0
0, 0
0, 0
0, 0
0, 0
0, 0
0, 0
0, 0
0, 0
0, 0
0, 0
0, 0
0, 0
0, 0
0, 0
0, 0
0, 0
0, 0
0, 0
0, 1
0, 0
0, 0
0, 0
0, 1
0, 0
0, 0
0, 0
0, 0
0, 0
0, 0
0, 0
0, 0
0, 0
0, 0
0, 0
0, 1
0, 0
0, 0
0, 0
0, 0
0, 0
0, 0
0, 0
0, 0
0, 0
0, 0
0, 0
0, 0
0, 0
0, 0
0, 0
1, 0
0, 0
0, 0
1, 0
0, 0
1, 0
0, 0
0, 0
0, 0
0, 0
0, 0
0, 0
0, 0
0, 0
0, 0
0, 0
0, 0
0, 0
0, 0
0, 0
0, 0
0, 0
0, 0
0, 0
0, 0
0, 0
0, 0
0, 0
0, 0
0, 0
0, 0
0, 0
0, 0
0, 0
0, 0
0, 0
0, 0
0, 0
0, 0
0, 0
0, 0
0, 0
0, 0
0, 0
0, 0
0, 0
0, 0
0, 0
0, 0
0, 0
0, 0
0, 0
0, 0
0, 0
0, 0
0, 0
0, 0
0, 0
0, 0
0, 0
0, 0
0, 0
0, 0
0, 0
0, 0
0, 0
0, 0
0, 0
0, 0
0, 0
0, 0
0, 0
0, 0
0, 0
0, 0
0, 0
0, 0
0, 0
0, 0
0, 0
1, 0
0, 0
0, 0
0, 0
0, 0
0, 0
0, 0
0, 0
0, 0
0, 0
0, 0
0, 0
0, 0
0, 0
0, 0
0, 0
0, 0
0, 0
0, 0
0, 0
0, 0
0, 0
0, 0
0, 0
0, 0
0, 0
0, 0
0, 0
0, 0
0, 0
0, 0
0, 0
0, 0
0, 0
0, 0
0, 0
0, 0
0, 0
0, 0
0, 0
0, 0
0, 0
0, 0
0, 0
0, 0
0, 0
0, 0
0, 0
0, 0
0, 0
0, 0
0, 0
0, 0
0, 0
0, 0
0, 0
0, 0
0, 0
0, 0
0, 0
1, 0
0, 0
0, 0
0, 0
0, 0
0, 0
0, 0
0, 0
0, 0
0, 0
0, 0
0, 0
0, 0
0, 0
0, 0
0, 0
0, 0
0, 0
0, 0
0, 0
0, 0
0, 0
0, 0
0, 0
0, 0
0, 0
0, 0
0, 0
0, 0
0, 0
0, 0
0, 0
0, 0
0, 0
0, 0
0, 0
0, 0
0, 0
0, 0
0, 0
0, 0
0, 0
0, 0
0, 0
0, 0
0, 0
0, 0
0, 0
0, 0
0, 0
0, 0
0, 0
0, 0
0, 0
0, 0
0, 0
0, 0
0, 0
0, 0
0, 0
0, 0
0, 0
0, 0
0, 0
0, 0
0, 0
0, 0
0, 0
0, 0
0, 0
0, 0
0, 0
0, 0
0, 0
0, 0
0, 0
0, 0
0, 0
0, 0
0, 0
0, 0
0, 0
0, 0
0, 0
0, 0
0, 0
0, 0
0, 0
0, 0
0, 0
0, 0
0, 0
0, 0
0, 0
0, 0
0, 0
0, 0
0, 0
0, 0
0, 0
0, 0
0, 0
0, 0
0, 0
0, 0
0, 0
0, 0
0, 0
0, 0
0, 0
0, 0
0, 0
0, 0
0, 0
0, 0
0, 0
0, 0
0, 0
0, 0
0, 0
0, 0
0, 0
0, 0
0, 0
0, 0
0, 0
0, 0
0, 0
0, 0
0, 0
0, 0
0, 0
0, 0
0, 0
0, 0
0, 0
0, 0
0, 0
0, 0
0, 0
0, 0
0, 0
0, 0
0, 0
0, 0
0, 0
0, 0
0, 0
0, 0
0, 0
0, 0
0, 0
0, 0
0, 0
0, 0
0, 0
0, 0
0, 0
0, 0
0, 0
0, 0
0, 0
0, 0
0, 0
0, 0
0, 0
0, 0
0, 0
0, 0
0, 0
0, 0
0, 0
0, 0
0, 0
0, 0
0, 0
0, 0
0, 0
0, 0
0, 0
0, 0
0, 0
0, 0
0, 0
0, 0
0, 0
0, 0
0, 0
0, 0
0, 0
0, 0
0, 0
0, 0
0, 0
0, 0
0, 0
0, 0
0, 0
0, 0
0, 0
0, 0
0, 0
0, 0
0, 0
0, 0
0, 0
0, 0
0, 0
0, 0
0, 0
0, 0
0, 0
0, 0
0, 0
0, 0
0, 0
0, 0
0, 0
0, 0
0, 0
0, 0
0, 0
0, 0
0, 0
0, 0
0, 0
0, 0
0, 0
0, 0
0, 0
0, 0
0, 0
0, 0
0, 0
0, 0
0, 0
0, 0
0, 0
0, 0
0, 0
0, 0
0, 0
0, 0
0, 0
0, 0
0, 0
0, 0
0, 0
0, 0
0, 0
0, 0
0, 0
0, 0
0, 0
0, 0
0, 0
0, 0
0, 0
0, 0
0, 0
0, 0
0, 0
0, 0
0, 0
0, 0
0, 0
0, 0
0, 0
0, 0
0, 0
0, 0
0, 0
0, 0
0, 0
0, 0
0, 0
0, 0
0, 0
0, 0
0, 0
0, 0
0, 0
0, 0
0, 0
0, 0
0, 0
0, 0
0, 0
0, 0
0, 0
0, 0
0, 0
0, 0
0, 0
0, 0
0, 0
0, 0
0, 0
0, 0
0, 0
0, 0
0, 0
0, 0
0, 0
0, 0
0, 0
0, 0
0, 0
0, 0
0, 0
0, 0
0, 0
0, 0
0, 0
0, 0
0, 0
#ENDOFDATA     end of spectrum data