File: host_upload/06-09-2024/ps_0852/dump3/ps__0852shot_2540.msa
#FORMAT      : EMSA/MAS spectral data file
#VERSION     : TC202v2.0 PIXL
#TITLE       : N/A
#DATE        :       Date in the format DD-MMM-YYYY, for example 07-JUL-2010
#TIME        :             The time of day at which the spectrum was recorded, in 24-hour format
#OWNER       : PIXL Flight Model       (PIXL will use this to indicate which instrument took the data.)
#NPOINTS     : 4096     Number of data points in the spectrum (This can be zero for configuration only files)
#NCOLUMNS    : 2     Number of data columns in the spectrum (This can be zero for configuration only files)
#XUNITS      : eV
#YUNITS      : COUNTS
#DATATYPE    : YY
#XPERCHAN    : 7.862, 7.881   eV per channel (separate by commas if more than one detector)
#OFFSET      : 18.5, -22.4         eV of first channel  (separate by commas if more than one detector
#SIGNALTYPE  : XRF
#YP_TEMP     : 2.428
#LIVETIME    : 8.555, 8.56543   seconds (separate by commas if more than one detector)
#REALTIME    : 10, 10.0   seconds (separate by commas if more than one detector)
#SPECTRUM    : start of spectrum data
0, 0
0, 0
0, 0
0, 0
0, 0
0, 0
0, 0
0, 0
0, 0
0, 0
0, 0
0, 0
0, 0
0, 0
0, 0
0, 0
0, 0
0, 0
0, 0
0, 0
0, 0
0, 0
0, 0
0, 0
0, 0
0, 0
0, 0
0, 0
0, 0
0, 1
0, 0
0, 0
0, 0
0, 0
0, 2
0, 1
0, 5
0, 4
0, 6
2, 11
1, 12
2, 30
1, 23
0, 24
1, 15
1, 11
1, 10
1, 7
8, 11
6, 20
24, 32
39, 48
58, 59
69, 97
85, 78
82, 72
60, 52
30, 43
23, 36
16, 14
7, 9
6, 7
4, 5
2, 8
4, 4
3, 3
4, 4
12, 13
18, 16
46, 54
103, 86
157, 162
283, 274
331, 378
423, 437
439, 468
400, 431
306, 322
213, 213
101, 111
56, 77
42, 36
24, 18
10, 7
4, 5
2, 3
2, 5
2, 3
2, 4
1, 3
0, 2
0, 3
3, 5
1, 2
2, 4
1, 4
3, 6
1, 1
1, 1
4, 2
3, 2
3, 8
1, 1
1, 5
0, 3
4, 8
4, 12
7, 37
8, 81
12, 200
20, 347
22, 614
28, 1003
32, 1389
47, 1619
28, 1707
34, 1613
31, 1273
30, 932
24, 639
23, 340
24, 175
15, 95
28, 39
22, 32
10, 19
13, 12
13, 9
13, 7
2, 4
5, 6
3, 3
6, 3
3, 1
1, 4
1, 1
1, 3
1, 4
2, 7
3, 1
3, 0
2, 1
1, 4
2, 0
3, 1
1, 1
2, 2
1, 2
2, 2
1, 3
3, 3
1, 5
5, 2
4, 9
7, 14
14, 15
13, 10
21, 23
19, 23
12, 12
14, 10
10, 9
6, 8
7, 6
4, 13
2, 12
7, 26
2, 23
8, 36
7, 45
9, 50
10, 43
16, 51
7, 26
2, 37
2, 15
4, 14
3, 8
2, 7
1, 6
1, 2
2, 2
0, 3
4, 6
3, 2
0, 4
6, 0
5, 4
3, 5
1, 5
5, 6
7, 10
8, 9
8, 9
10, 10
13, 9
8, 15
8, 14
12, 16
13, 11
8, 9
9, 12
9, 15
9, 5
5, 7
5, 8
5, 5
5, 4
5, 6
4, 6
3, 7
7, 4
10, 6
4, 4
3, 4
3, 8
3, 4
4, 5
3, 6
9, 4
8, 2
6, 6
1, 4
11, 16
8, 8
9, 8
6, 19
13, 19
6, 13
10, 15
15, 16
11, 14
11, 11
10, 9
7, 12
8, 5
7, 8
11, 5
13, 9
8, 4
7, 5
5, 8
7, 5
4, 9
15, 15
13, 19
31, 29
34, 40
43, 49
53, 53
65, 52
63, 60
49, 61
39, 40
41, 33
30, 39
23, 23
17, 16
13, 10
12, 9
18, 34
29, 30
33, 53
79, 94
141, 205
277, 348
450, 566
742, 987
1067, 1413
1544, 1867
1914, 2237
2241, 2461
2459, 2542
2326, 2302
2046, 1976
1681, 1563
1265, 1141
893, 768
561, 467
325, 287
178, 155
123, 85
61, 71
44, 50
16, 37
26, 43
22, 31
19, 34
16, 38
22, 32
23, 28
23, 39
46, 70
76, 87
108, 128
139, 178
221, 240
267, 275
288, 326
327, 418
368, 378
363, 352
335, 251
241, 202
187, 154
113, 85
70, 65
74, 44
17, 18
19, 15
14, 14
6, 8
15, 10
11, 8
8, 12
6, 12
12, 18
11, 10
16, 18
14, 9
8, 17
12, 13
5, 8
9, 8
7, 7
6, 3
4, 6
3, 5
5, 4
7, 2
7, 3
9, 5
2, 3
3, 2
2, 1
6, 2
8, 7
9, 2
8, 8
11, 7
15, 7
13, 4
13, 7
26, 3
24, 5
18, 6
26, 5
22, 8
11, 6
20, 9
15, 6
5, 1
10, 6
7, 5
3, 4
3, 7
7, 3
2, 3
1, 5
7, 4
3, 4
1, 5
1, 4
7, 4
3, 4
4, 2
1, 7
6, 7
2, 1
2, 2
1, 5
4, 2
4, 4
3, 3
4, 3
5, 7
2, 3
2, 5
2, 3
6, 3
1, 3
7, 11
5, 7
1, 7
3, 5
1, 5
3, 4
10, 5
1, 3
2, 6
6, 7
3, 5
7, 4
1, 6
4, 2
10, 4
8, 5
9, 5
7, 6
4, 6
6, 2
7, 4
2, 4
1, 7
3, 3
3, 7
2, 2
3, 3
3, 4
3, 1
1, 3
3, 5
1, 3
6, 3
2, 3
5, 4
2, 4
3, 3
2, 2
2, 3
4, 2
2, 3
1, 5
0, 4
1, 4
3, 3
1, 2
8, 3
1, 3
7, 2
0, 0
1, 1
0, 2
5, 1
2, 3
2, 1
3, 1
4, 1
0, 4
4, 4
3, 1
3, 5
3, 1
4, 3
2, 1
2, 5
5, 3
7, 5
1, 0
3, 3
4, 5
5, 2
5, 6
6, 8
5, 4
3, 5
4, 6
7, 11
2, 9
4, 4
3, 9
3, 4
3, 8
2, 8
0, 7
3, 6
1, 5
1, 4
0, 0
2, 4
4, 3
3, 4
1, 2
5, 3
0, 2
2, 2
0, 0
2, 1
1, 2
0, 1
1, 4
0, 6
1, 4
0, 2
4, 2
2, 2
2, 0
2, 2
3, 0
6, 1
4, 1
4, 5
3, 1
2, 1
0, 2
0, 1
0, 0
2, 1
1, 1
2, 2
1, 5
4, 3
1, 3
0, 5
2, 3
2, 3
2, 6
1, 7
2, 4
1, 4
2, 4
1, 5
1, 2
2, 4
4, 3
3, 3
3, 4
1, 3
4, 4
2, 3
2, 1
3, 2
0, 2
1, 4
2, 1
0, 8
2, 2
1, 1
0, 2
3, 4
1, 2
2, 4
3, 1
2, 1
1, 3
3, 2
2, 2
2, 4
2, 3
2, 5
1, 5
4, 3
1, 5
7, 3
4, 4
2, 4
4, 0
4, 1
0, 1
4, 3
3, 2
2, 3
1, 0
1, 2
2, 0
1, 1
3, 1
1, 1
0, 3
2, 3
0, 2
0, 0
0, 3
1, 2
3, 1
1, 2
2, 2
1, 3
2, 1
1, 3
2, 2
2, 2
1, 6
0, 3
1, 2
4, 0
2, 0
1, 1
0, 1
1, 0
1, 0
0, 3
0, 2
0, 1
0, 0
3, 0
2, 1
3, 0
1, 0
2, 0
0, 2
1, 1
0, 2
0, 1
1, 1
0, 1
0, 1
0, 0
0, 1
1, 1
1, 0
2, 2
0, 2
2, 3
1, 2
1, 1
1, 0
0, 1
0, 0
0, 1
2, 2
0, 1
2, 1
2, 0
2, 1
0, 1
0, 0
1, 3
2, 0
2, 1
2, 0
0, 1
0, 1
1, 1
0, 1
2, 0
0, 1
0, 1
0, 1
2, 0
1, 0
1, 0
1, 0
0, 0
0, 1
1, 1
2, 1
1, 0
0, 2
1, 1
1, 0
1, 0
2, 2
0, 1
0, 1
0, 2
1, 0
0, 0
1, 0
1, 0
0, 0
0, 3
0, 1
1, 0
0, 0
0, 3
0, 0
1, 0
0, 1
1, 0
1, 1
0, 0
2, 0
0, 2
1, 0
2, 0
0, 0
0, 1
0, 0
1, 0
0, 1
0, 2
0, 0
0, 1
2, 1
0, 1
1, 2
0, 1
1, 1
1, 0
3, 0
0, 0
1, 0
0, 2
0, 0
2, 0
0, 0
0, 1
2, 1
0, 0
0, 1
0, 0
1, 0
0, 0
1, 0
1, 2
0, 0
0, 0
0, 1
0, 0
1, 0
1, 0
0, 1
0, 1
0, 2
0, 0
0, 0
0, 1
0, 3
1, 0
0, 0
0, 0
1, 0
0, 0
0, 1
0, 0
1, 0
0, 0
0, 0
0, 0
1, 1
0, 1
5, 0
1, 1
0, 0
0, 0
0, 1
0, 0
0, 1
0, 2
1, 0
0, 0
0, 1
0, 2
1, 1
1, 0
0, 0
1, 0
2, 0
0, 0
0, 0
0, 0
0, 0
0, 0
0, 0
2, 0
0, 0
0, 0
1, 0
1, 0
0, 0
0, 1
0, 1
0, 1
1, 0
0, 1
0, 0
0, 0
0, 2
0, 0
0, 0
0, 1
1, 0
0, 0
0, 0
0, 0
0, 0
0, 0
0, 0
0, 1
0, 0
0, 0
0, 0
0, 1
0, 0
0, 0
0, 0
0, 0
0, 1
0, 0
1, 2
0, 0
0, 0
0, 0
2, 0
1, 0
2, 0
0, 1
0, 0
0, 0
0, 1
0, 0
0, 0
0, 1
0, 0
0, 0
1, 0
0, 0
1, 0
0, 0
1, 0
0, 0
0, 0
0, 1
1, 0
0, 2
0, 0
0, 0
0, 0
0, 0
0, 1
0, 0
0, 2
0, 0
0, 0
1, 0
0, 0
0, 0
0, 0
0, 0
0, 0
0, 0
0, 0
1, 0
0, 0
0, 0
0, 0
0, 0
0, 0
0, 0
0, 1
0, 0
0, 0
0, 0
0, 0
0, 0
0, 0
0, 0
0, 1
0, 0
0, 0
0, 0
0, 0
0, 0
1, 1
0, 0
0, 0
0, 0
0, 0
0, 0
0, 0
0, 0
0, 0
0, 1
1, 1
1, 0
0, 1
0, 0
0, 0
0, 0
0, 1
0, 1
0, 0
1, 0
0, 0
0, 0
0, 0
0, 0
0, 0
0, 0
0, 0
1, 0
0, 0
0, 0
0, 1
0, 0
0, 0
0, 0
0, 0
0, 0
0, 0
0, 0
0, 0
0, 1
0, 0
0, 0
0, 0
0, 0
0, 0
0, 0
1, 0
1, 0
0, 0
0, 0
0, 0
0, 0
0, 0
0, 0
0, 0
0, 1
0, 0
0, 0
0, 0
0, 0
0, 1
0, 0
0, 0
1, 0
0, 0
0, 0
0, 0
0, 0
0, 0
0, 0
0, 0
0, 0
0, 0
0, 0
1, 0
0, 0
0, 0
0, 1
0, 0
0, 0
0, 0
0, 0
0, 0
0, 0
0, 0
0, 0
0, 0
0, 0
0, 1
0, 0
0, 0
0, 0
0, 0
0, 0
0, 0
0, 0
0, 0
0, 0
0, 0
1, 0
0, 0
0, 0
0, 0
0, 0
0, 0
0, 0
0, 0
0, 0
0, 0
0, 0
0, 0
0, 0
0, 0
0, 0
0, 0
0, 0
0, 0
0, 0
0, 0
0, 0
0, 0
0, 0
0, 1
0, 0
0, 0
0, 0
0, 0
0, 0
0, 0
0, 0
0, 0
0, 0
0, 0
0, 0
0, 0
0, 0
0, 0
0, 0
0, 0
0, 0
1, 0
0, 0
0, 0
0, 0
0, 0
0, 0
0, 0
0, 0
0, 0
0, 0
0, 0
0, 0
0, 0
0, 0
0, 0
0, 0
0, 0
0, 0
0, 0
0, 0
0, 0
0, 0
0, 0
0, 0
0, 0
0, 0
0, 0
0, 0
0, 0
0, 0
0, 0
0, 0
0, 0
0, 0
0, 0
0, 0
0, 0
0, 0
0, 0
0, 0
0, 0
0, 0
0, 0
0, 0
0, 0
0, 0
0, 0
0, 0
0, 0
0, 0
0, 0
0, 0
0, 0
0, 0
0, 0
0, 0
0, 0
0, 0
0, 0
0, 0
0, 0
0, 0
0, 0
0, 0
0, 0
0, 0
0, 0
0, 0
0, 0
0, 0
0, 0
0, 0
0, 0
0, 0
0, 0
0, 0
0, 0
0, 0
0, 0
0, 0
0, 0
0, 0
0, 0
0, 0
0, 0
0, 0
0, 0
0, 0
0, 0
0, 0
0, 0
0, 0
0, 0
0, 0
0, 0
0, 0
0, 0
0, 0
0, 0
0, 0
0, 0
0, 0
0, 0
0, 0
0, 0
0, 0
0, 0
0, 0
0, 0
0, 0
0, 0
0, 0
0, 0
0, 0
0, 0
0, 0
0, 0
0, 0
0, 0
0, 0
0, 0
0, 0
0, 0
0, 0
0, 0
0, 0
0, 0
0, 0
0, 0
0, 0
0, 0
0, 0
0, 0
0, 0
0, 0
0, 0
0, 0
0, 0
0, 0
0, 0
0, 0
0, 0
0, 0
0, 0
0, 0
0, 0
0, 0
0, 0
0, 0
0, 0
0, 0
0, 0
0, 0
0, 0
0, 0
0, 0
0, 0
0, 0
0, 0
0, 0
0, 0
0, 0
0, 0
0, 0
0, 0
0, 0
0, 0
0, 0
0, 0
0, 0
0, 0
0, 0
0, 0
0, 0
0, 0
0, 0
0, 0
0, 0
0, 0
0, 0
0, 0
0, 0
0, 0
0, 0
0, 0
0, 0
0, 0
0, 0
0, 0
0, 0
0, 0
0, 0
0, 0
0, 0
0, 0
0, 0
0, 0
0, 0
0, 0
0, 0
0, 0
0, 0
0, 0
0, 0
0, 0
0, 0
0, 0
0, 0
0, 0
0, 0
0, 0
0, 0
0, 0
0, 0
0, 0
0, 0
0, 0
0, 0
0, 0
0, 0
0, 0
0, 0
0, 0
0, 0
0, 0
0, 0
0, 0
0, 0
0, 0
0, 0
0, 0
0, 0
0, 0
0, 0
0, 0
0, 0
0, 0
0, 0
0, 0
0, 0
0, 0
0, 0
0, 0
0, 0
0, 0
0, 0
0, 0
0, 0
0, 0
0, 0
0, 0
0, 0
0, 0
0, 0
0, 0
0, 0
0, 0
0, 0
0, 0
0, 0
0, 0
0, 0
0, 0
0, 0
0, 0
0, 0
0, 0
0, 0
0, 0
0, 0
0, 0
0, 0
0, 0
0, 0
0, 0
0, 0
0, 0
0, 0
0, 0
0, 0
0, 0
0, 0
0, 0
0, 0
0, 0
0, 0
0, 0
0, 0
0, 0
0, 0
0, 0
0, 0
0, 0
0, 0
0, 0
0, 0
0, 0
0, 0
0, 0
0, 0
0, 0
0, 0
0, 0
0, 0
0, 0
0, 0
0, 0
0, 0
0, 0
0, 0
0, 0
0, 0
0, 0
0, 0
0, 0
0, 0
0, 0
0, 0
0, 0
0, 0
0, 0
0, 0
0, 0
0, 0
0, 0
0, 0
0, 0
0, 0
0, 0
0, 0
0, 0
0, 0
0, 0
0, 0
0, 0
0, 0
0, 0
0, 0
0, 0
0, 0
0, 0
0, 0
0, 0
0, 0
0, 0
0, 0
0, 0
0, 0
0, 0
0, 0
0, 0
0, 0
0, 0
0, 0
0, 0
0, 0
0, 0
0, 0
0, 0
0, 0
0, 0
0, 0
0, 0
0, 0
0, 0
0, 0
0, 0
0, 0
0, 0
0, 0
0, 0
0, 0
0, 0
0, 0
0, 0
0, 0
0, 0
0, 0
0, 0
0, 0
0, 0
0, 0
#ENDOFDATA     end of spectrum data