File: host_upload/06-09-2024/ps_0852/dump3/ps__0852shot_2149.msa
#FORMAT      : EMSA/MAS spectral data file
#VERSION     : TC202v2.0 PIXL
#TITLE       : N/A
#DATE        :       Date in the format DD-MMM-YYYY, for example 07-JUL-2010
#TIME        :             The time of day at which the spectrum was recorded, in 24-hour format
#OWNER       : PIXL Flight Model       (PIXL will use this to indicate which instrument took the data.)
#NPOINTS     : 4096     Number of data points in the spectrum (This can be zero for configuration only files)
#NCOLUMNS    : 2     Number of data columns in the spectrum (This can be zero for configuration only files)
#XUNITS      : eV
#YUNITS      : COUNTS
#DATATYPE    : YY
#XPERCHAN    : 7.862, 7.881   eV per channel (separate by commas if more than one detector)
#OFFSET      : 18.5, -22.4         eV of first channel  (separate by commas if more than one detector
#SIGNALTYPE  : XRF
#YP_TEMP     : 2.652
#LIVETIME    : 8.58518, 8.55314   seconds (separate by commas if more than one detector)
#REALTIME    : 10, 10.0   seconds (separate by commas if more than one detector)
#SPECTRUM    : start of spectrum data
0, 0
0, 0
0, 0
0, 0
0, 0
0, 0
0, 0
0, 0
0, 0
0, 0
0, 0
0, 0
0, 0
0, 0
0, 0
0, 0
0, 0
0, 0
0, 0
0, 0
0, 0
0, 0
0, 0
0, 0
0, 0
0, 0
0, 0
0, 0
0, 0
0, 0
0, 0
0, 0
0, 0
0, 1
0, 0
1, 0
0, 0
0, 1
0, 1
1, 0
0, 0
1, 2
0, 1
2, 0
1, 3
1, 2
4, 4
2, 1
7, 1
11, 14
25, 21
36, 38
62, 57
79, 71
92, 85
71, 70
57, 74
49, 40
36, 28
13, 10
14, 4
5, 4
5, 2
3, 3
1, 2
2, 3
3, 4
7, 10
20, 29
64, 61
88, 95
164, 170
267, 268
399, 358
466, 387
443, 390
392, 363
324, 301
227, 185
163, 108
73, 63
44, 30
31, 22
10, 10
6, 8
4, 3
2, 2
2, 2
2, 5
3, 4
0, 2
1, 1
1, 0
0, 0
4, 3
8, 3
5, 3
3, 7
5, 9
6, 5
6, 4
7, 3
2, 4
2, 1
2, 1
3, 2
6, 5
4, 4
7, 7
15, 12
22, 18
26, 23
22, 34
32, 36
36, 37
41, 42
42, 34
27, 27
31, 24
29, 28
28, 27
15, 19
23, 18
22, 14
19, 18
10, 7
21, 17
5, 6
6, 8
10, 6
6, 7
4, 2
1, 4
2, 2
2, 4
9, 2
3, 3
4, 2
3, 2
0, 4
2, 4
7, 4
4, 4
3, 2
2, 3
1, 1
2, 4
0, 4
2, 3
5, 2
2, 3
10, 8
14, 9
23, 19
28, 22
44, 39
45, 43
54, 51
53, 53
50, 40
47, 29
17, 26
19, 11
20, 7
6, 4
5, 5
9, 3
2, 5
8, 14
15, 11
6, 9
10, 9
13, 18
11, 18
6, 12
8, 9
8, 16
0, 13
4, 10
4, 6
8, 13
7, 3
1, 5
2, 5
3, 0
2, 3
4, 3
6, 2
6, 3
9, 11
8, 10
18, 8
14, 10
16, 16
12, 19
16, 23
13, 29
18, 43
14, 34
18, 26
6, 19
10, 21
8, 25
5, 24
10, 23
5, 24
7, 29
9, 25
4, 22
7, 12
8, 11
4, 19
9, 5
6, 6
1, 11
5, 13
11, 13
3, 15
6, 12
4, 16
9, 8
4, 7
6, 13
8, 6
13, 3
6, 7
9, 16
21, 8
13, 18
29, 17
32, 16
34, 15
29, 17
27, 9
30, 19
31, 7
31, 9
29, 11
17, 12
18, 16
12, 11
12, 12
14, 14
13, 21
19, 26
19, 24
24, 27
28, 31
50, 49
57, 52
58, 70
57, 61
79, 67
64, 42
56, 52
39, 28
41, 31
24, 24
19, 19
14, 14
26, 15
27, 33
52, 44
84, 104
171, 213
283, 335
468, 587
721, 884
1119, 1167
1511, 1746
1894, 2016
2164, 2273
2371, 2303
2294, 2210
2096, 1796
1767, 1458
1307, 1038
916, 758
570, 426
349, 252
192, 152
106, 81
68, 38
40, 21
20, 21
15, 13
13, 11
10, 13
10, 17
19, 27
26, 19
30, 40
45, 55
62, 79
93, 116
127, 180
213, 236
241, 269
289, 323
349, 344
334, 361
335, 315
307, 287
261, 234
176, 161
121, 130
82, 73
58, 42
37, 29
36, 12
22, 14
13, 16
11, 13
7, 15
10, 12
12, 13
14, 10
11, 12
15, 12
11, 17
9, 17
18, 13
13, 9
11, 8
6, 8
4, 2
5, 7
4, 8
1, 8
4, 3
3, 1
7, 7
5, 6
3, 3
3, 1
4, 6
6, 4
1, 4
7, 8
7, 5
4, 8
7, 6
8, 7
7, 5
2, 11
7, 13
6, 7
11, 12
6, 7
3, 11
5, 3
4, 6
3, 6
2, 5
2, 6
4, 8
6, 4
4, 5
5, 2
6, 8
3, 4
4, 6
5, 4
6, 3
5, 4
3, 0
5, 7
6, 5
13, 3
6, 8
2, 4
7, 5
5, 6
5, 3
7, 4
6, 6
4, 5
1, 2
2, 2
6, 5
2, 3
1, 4
3, 3
5, 6
5, 7
5, 18
4, 6
5, 8
4, 14
3, 18
7, 14
4, 16
3, 13
5, 10
5, 17
6, 5
6, 2
5, 6
2, 5
3, 8
6, 7
6, 4
2, 9
2, 5
3, 5
2, 2
5, 2
3, 6
2, 4
3, 2
8, 6
2, 5
2, 5
2, 5
4, 1
4, 4
2, 2
0, 4
5, 7
9, 4
1, 5
0, 3
3, 2
4, 5
2, 3
1, 5
4, 3
4, 1
3, 3
7, 3
1, 6
4, 3
8, 2
3, 2
1, 3
7, 1
4, 2
6, 4
1, 3
4, 2
3, 5
4, 1
5, 2
0, 2
5, 5
6, 1
4, 3
3, 1
3, 3
4, 2
1, 1
2, 3
1, 0
2, 0
2, 3
1, 3
1, 3
3, 2
3, 4
3, 2
7, 3
4, 4
2, 1
3, 3
2, 2
2, 1
6, 1
6, 3
5, 1
4, 1
2, 3
4, 1
4, 6
3, 5
3, 4
2, 2
4, 2
3, 3
1, 3
4, 3
3, 4
0, 6
3, 1
1, 3
2, 1
1, 4
0, 1
1, 3
0, 1
2, 2
5, 3
0, 1
3, 3
0, 2
1, 1
0, 5
3, 5
1, 2
0, 4
0, 4
0, 1
4, 2
0, 1
4, 2
1, 2
4, 1
3, 2
3, 1
2, 2
0, 1
6, 1
1, 2
2, 2
2, 2
0, 4
1, 2
1, 2
2, 2
3, 2
3, 2
3, 3
2, 2
4, 2
1, 4
6, 2
2, 1
5, 1
2, 2
6, 1
1, 0
1, 3
2, 3
3, 3
1, 1
1, 4
1, 4
4, 4
2, 2
3, 5
4, 3
4, 4
2, 1
3, 4
0, 3
1, 0
2, 1
2, 2
2, 3
4, 2
0, 1
2, 4
2, 4
1, 2
1, 1
0, 1
1, 0
1, 2
0, 2
0, 0
0, 0
2, 1
1, 3
1, 1
0, 3
1, 2
0, 3
1, 0
0, 2
2, 5
4, 0
4, 1
4, 0
5, 2
4, 1
1, 0
0, 1
1, 1
3, 1
1, 1
2, 2
1, 0
1, 2
4, 0
1, 1
0, 1
3, 3
0, 0
1, 1
0, 0
0, 1
1, 1
2, 0
1, 2
0, 1
1, 1
2, 0
0, 2
0, 3
1, 3
0, 2
0, 0
3, 1
1, 0
0, 0
1, 3
1, 1
0, 0
0, 0
0, 0
1, 1
1, 1
1, 0
2, 1
2, 1
1, 2
0, 2
1, 0
0, 0
1, 3
0, 1
0, 0
2, 0
3, 2
0, 0
0, 0
1, 1
0, 1
2, 0
2, 1
0, 2
1, 1
2, 0
1, 0
3, 0
1, 0
0, 1
1, 0
3, 0
0, 0
0, 0
0, 1
2, 1
0, 4
0, 1
0, 0
2, 0
1, 1
1, 0
0, 1
0, 1
1, 0
0, 1
0, 1
0, 1
0, 0
0, 0
0, 1
1, 0
0, 0
0, 1
0, 1
0, 1
1, 0
0, 1
0, 1
0, 1
2, 0
1, 2
1, 1
0, 0
0, 0
0, 0
1, 1
1, 0
1, 0
0, 0
0, 0
0, 0
0, 0
0, 0
0, 0
1, 0
0, 2
0, 0
0, 0
0, 0
1, 1
0, 1
0, 0
0, 1
0, 1
0, 1
0, 0
0, 0
1, 1
0, 0
1, 0
0, 0
1, 0
0, 0
2, 0
2, 0
1, 0
0, 0
0, 0
0, 0
1, 1
2, 1
0, 1
0, 1
0, 1
1, 0
0, 1
1, 0
0, 1
0, 0
0, 0
1, 0
1, 0
2, 1
0, 0
1, 0
0, 0
1, 0
1, 1
0, 1
0, 0
1, 0
0, 0
0, 1
0, 0
1, 1
0, 2
0, 0
0, 0
2, 0
1, 2
0, 0
0, 1
1, 1
2, 0
0, 1
0, 0
0, 0
1, 0
0, 0
0, 0
0, 2
1, 0
1, 0
0, 0
0, 1
0, 0
3, 0
0, 0
2, 0
1, 0
1, 0
0, 0
1, 0
0, 1
0, 2
0, 0
1, 0
0, 0
0, 0
0, 0
0, 0
0, 0
0, 1
0, 1
0, 0
0, 0
0, 0
0, 1
0, 0
0, 0
0, 0
0, 1
0, 0
0, 0
0, 0
0, 0
0, 0
0, 1
0, 1
0, 0
0, 1
0, 0
0, 0
0, 0
0, 1
0, 0
0, 0
0, 0
0, 0
0, 0
0, 0
0, 0
0, 0
0, 0
0, 0
1, 0
0, 1
0, 1
0, 0
0, 0
0, 0
0, 0
1, 0
0, 0
0, 0
0, 0
0, 0
0, 0
0, 0
0, 0
0, 0
0, 0
0, 0
0, 0
0, 0
1, 1
0, 1
0, 0
0, 0
0, 0
0, 0
0, 0
0, 0
0, 0
0, 0
1, 1
0, 1
0, 0
0, 0
1, 0
0, 0
0, 0
0, 0
1, 0
0, 0
0, 0
0, 0
0, 1
1, 0
1, 0
0, 0
0, 0
0, 2
1, 0
0, 0
0, 0
0, 0
0, 0
0, 1
0, 0
1, 1
0, 0
0, 0
0, 1
1, 0
1, 0
0, 0
0, 0
0, 0
0, 0
0, 0
0, 1
1, 0
0, 0
0, 0
0, 0
0, 0
0, 0
0, 0
0, 0
0, 0
0, 0
0, 0
0, 0
0, 0
0, 0
0, 0
0, 0
1, 0
0, 0
0, 0
0, 0
0, 0
0, 0
0, 0
1, 0
1, 0
0, 0
1, 0
0, 0
0, 0
0, 0
1, 0
1, 0
0, 0
0, 0
0, 0
0, 0
0, 0
0, 0
0, 0
0, 0
0, 0
0, 0
0, 0
1, 0
0, 0
0, 0
0, 0
0, 0
0, 0
0, 0
0, 0
0, 0
0, 0
0, 0
0, 0
0, 0
0, 0
0, 0
0, 0
0, 0
0, 0
0, 0
0, 0
0, 0
0, 0
0, 0
0, 0
0, 0
0, 0
1, 0
0, 1
0, 0
0, 0
0, 0
0, 0
0, 0
0, 0
0, 0
0, 1
0, 0
0, 0
0, 0
0, 0
0, 0
0, 0
0, 0
0, 0
0, 0
0, 0
0, 0
1, 0
0, 0
0, 0
0, 0
0, 0
0, 0
0, 0
0, 0
0, 0
0, 0
0, 0
0, 0
0, 0
0, 1
0, 0
0, 0
0, 0
0, 1
0, 0
0, 0
0, 0
0, 0
0, 0
0, 0
0, 0
0, 0
0, 0
0, 0
0, 0
0, 0
0, 0
0, 0
0, 0
0, 0
0, 0
0, 0
0, 0
0, 0
0, 0
0, 0
0, 0
0, 0
0, 0
0, 0
0, 0
0, 0
0, 0
0, 0
0, 0
0, 0
0, 0
0, 0
0, 0
0, 0
0, 0
0, 0
0, 0
0, 0
0, 0
0, 0
0, 0
0, 0
0, 0
0, 0
0, 0
0, 0
0, 0
0, 0
0, 0
0, 0
0, 0
0, 0
0, 0
0, 0
0, 0
0, 0
0, 0
0, 0
0, 0
0, 0
0, 0
0, 0
0, 0
0, 0
0, 0
0, 0
0, 0
0, 0
0, 0
0, 0
0, 0
0, 0
0, 0
0, 0
0, 0
0, 0
0, 0
0, 0
0, 0
0, 0
0, 0
0, 0
0, 0
0, 0
0, 0
0, 0
0, 0
0, 0
0, 0
0, 0
0, 0
0, 0
0, 0
0, 0
0, 0
0, 0
0, 0
0, 0
0, 0
0, 0
0, 0
0, 0
0, 0
0, 0
0, 0
0, 0
0, 0
0, 0
0, 0
0, 0
0, 0
0, 0
0, 0
0, 0
0, 0
0, 0
0, 0
0, 0
0, 0
0, 0
0, 0
0, 0
0, 0
0, 0
0, 0
0, 0
0, 0
0, 0
0, 0
0, 0
0, 0
0, 0
0, 0
0, 0
0, 0
0, 0
0, 0
0, 0
0, 0
0, 0
0, 0
0, 0
0, 0
0, 0
0, 0
0, 0
0, 0
0, 0
0, 0
0, 0
0, 0
0, 0
0, 0
0, 0
0, 0
0, 0
0, 0
0, 0
0, 0
0, 0
0, 0
0, 0
0, 0
0, 0
0, 0
0, 0
0, 0
0, 0
0, 0
0, 0
0, 0
0, 0
0, 0
0, 0
0, 0
0, 0
0, 0
0, 0
0, 0
0, 0
0, 0
0, 0
0, 0
0, 0
0, 0
0, 0
0, 0
0, 0
0, 0
0, 0
0, 0
0, 0
0, 0
0, 0
0, 0
0, 0
0, 0
0, 0
0, 0
0, 0
0, 0
0, 0
0, 0
0, 0
0, 0
0, 0
0, 0
0, 0
0, 0
0, 0
0, 0
0, 0
0, 0
0, 0
0, 0
0, 0
0, 0
0, 0
0, 0
0, 0
0, 0
0, 0
0, 0
0, 0
0, 0
0, 0
0, 0
0, 0
0, 0
0, 0
0, 0
0, 0
0, 0
0, 0
0, 0
0, 0
0, 0
0, 0
0, 0
0, 0
0, 0
0, 0
0, 0
0, 0
0, 0
0, 0
0, 0
0, 0
0, 0
0, 0
0, 0
0, 0
0, 0
0, 0
0, 0
0, 0
0, 0
0, 0
0, 0
0, 0
0, 0
0, 0
0, 0
0, 0
0, 0
0, 0
0, 0
0, 0
0, 0
0, 0
0, 0
0, 0
0, 0
0, 0
0, 0
0, 0
0, 0
0, 0
0, 0
0, 0
0, 0
0, 0
0, 0
0, 0
0, 0
0, 0
0, 0
0, 0
0, 0
0, 0
0, 0
0, 0
0, 0
0, 0
0, 0
0, 0
0, 0
0, 0
0, 0
0, 0
0, 0
0, 0
0, 0
0, 0
0, 0
0, 0
0, 0
0, 0
0, 0
0, 0
0, 0
0, 0
0, 0
0, 0
0, 0
0, 0
0, 0
0, 0
0, 0
0, 0
0, 0
0, 0
0, 0
0, 0
0, 0
0, 0
0, 0
0, 0
0, 0
0, 0
0, 0
0, 0
0, 0
0, 0
0, 0
0, 0
0, 0
0, 0
0, 0
0, 0
0, 0
0, 0
0, 0
0, 0
0, 0
0, 0
0, 0
0, 0
0, 0
0, 0
0, 0
0, 0
0, 0
0, 0
0, 0
0, 0
0, 0
0, 0
0, 0
0, 0
0, 0
0, 0
0, 0
0, 0
0, 0
0, 0
0, 0
0, 0
0, 0
0, 0
0, 0
0, 0
0, 0
0, 0
0, 0
0, 0
0, 0
0, 0
0, 0
0, 0
0, 0
0, 0
0, 0
0, 0
0, 0
0, 0
0, 0
#ENDOFDATA     end of spectrum data