File: host_upload/06-09-2024/ps_0852/dump3/ps__0852shot_2534.msa
#FORMAT      : EMSA/MAS spectral data file
#VERSION     : TC202v2.0 PIXL
#TITLE       : N/A
#DATE        :       Date in the format DD-MMM-YYYY, for example 07-JUL-2010
#TIME        :             The time of day at which the spectrum was recorded, in 24-hour format
#OWNER       : PIXL Flight Model       (PIXL will use this to indicate which instrument took the data.)
#NPOINTS     : 4096     Number of data points in the spectrum (This can be zero for configuration only files)
#NCOLUMNS    : 2     Number of data columns in the spectrum (This can be zero for configuration only files)
#XUNITS      : eV
#YUNITS      : COUNTS
#DATATYPE    : YY
#XPERCHAN    : 7.862, 7.881   eV per channel (separate by commas if more than one detector)
#OFFSET      : 18.5, -22.4         eV of first channel  (separate by commas if more than one detector
#SIGNALTYPE  : XRF
#YP_TEMP     : 2.332
#LIVETIME    : 8.56205, 8.55898   seconds (separate by commas if more than one detector)
#REALTIME    : 10, 10.0   seconds (separate by commas if more than one detector)
#SPECTRUM    : start of spectrum data
0, 0
0, 0
0, 0
0, 0
0, 0
0, 0
0, 0
0, 0
0, 0
0, 0
0, 0
0, 0
0, 0
0, 0
0, 0
0, 0
0, 0
0, 0
0, 0
0, 0
0, 0
0, 0
0, 0
0, 0
0, 0
0, 0
0, 0
0, 0
0, 0
0, 0
0, 0
0, 0
1, 0
0, 0
1, 0
0, 1
0, 2
1, 3
3, 1
0, 0
0, 0
1, 1
2, 1
1, 1
0, 1
2, 0
1, 1
1, 3
5, 3
13, 13
24, 27
35, 34
58, 55
75, 83
67, 81
79, 63
54, 60
34, 37
27, 24
16, 11
5, 8
5, 5
4, 2
2, 3
4, 2
3, 5
2, 11
5, 7
34, 21
44, 48
92, 101
171, 168
233, 272
335, 343
397, 419
419, 398
349, 352
271, 248
217, 203
133, 103
75, 64
32, 33
17, 15
8, 12
6, 4
5, 2
5, 4
2, 4
3, 3
0, 2
1, 3
3, 0
11, 5
10, 20
25, 21
51, 45
70, 53
90, 94
101, 109
109, 101
96, 84
67, 82
51, 60
37, 23
23, 16
23, 26
15, 11
11, 11
15, 15
23, 23
31, 27
46, 49
48, 52
64, 54
75, 58
74, 63
55, 62
37, 38
36, 34
34, 22
26, 18
22, 18
26, 27
23, 24
25, 19
21, 13
18, 14
12, 13
7, 10
12, 7
10, 2
2, 6
4, 5
3, 5
2, 0
1, 3
1, 4
5, 0
3, 7
4, 1
2, 3
1, 4
3, 2
2, 2
3, 4
1, 3
3, 2
5, 3
1, 2
2, 7
4, 3
1, 7
6, 3
11, 12
11, 15
16, 14
15, 17
23, 13
17, 17
21, 22
14, 10
8, 12
8, 9
5, 7
5, 8
7, 11
2, 10
2, 3
2, 5
3, 7
3, 3
2, 9
4, 9
8, 7
3, 6
4, 4
10, 9
5, 2
4, 6
3, 6
4, 8
4, 3
2, 5
6, 6
4, 4
5, 5
1, 4
8, 6
8, 8
4, 8
3, 13
4, 9
13, 7
8, 21
8, 16
8, 21
11, 11
14, 10
13, 19
13, 23
19, 21
15, 11
7, 14
10, 16
11, 18
6, 15
13, 11
8, 15
15, 17
11, 10
9, 6
4, 10
2, 5
9, 5
5, 9
12, 6
6, 4
9, 2
7, 9
7, 6
5, 3
9, 5
3, 3
7, 8
8, 6
9, 13
18, 2
14, 17
13, 9
8, 15
13, 19
16, 18
11, 25
12, 27
14, 40
15, 23
4, 24
6, 16
5, 22
4, 15
12, 16
5, 8
6, 8
8, 18
12, 15
16, 34
22, 38
40, 53
49, 39
56, 65
62, 64
73, 64
55, 55
52, 57
50, 52
35, 47
23, 62
15, 73
19, 109
21, 127
26, 166
31, 228
52, 252
90, 295
151, 388
298, 490
483, 717
761, 1027
1049, 1517
1500, 1919
1836, 2316
2217, 2516
2398, 2575
2309, 2282
2015, 2065
1691, 1635
1208, 1109
848, 760
604, 441
347, 285
189, 156
121, 71
59, 39
31, 20
23, 18
9, 14
12, 20
14, 15
19, 16
16, 25
15, 27
37, 31
43, 62
66, 76
106, 123
133, 192
189, 235
254, 281
309, 342
342, 363
353, 351
351, 345
280, 322
282, 229
187, 151
146, 116
93, 70
79, 36
49, 34
50, 9
25, 12
25, 8
16, 14
18, 10
21, 10
22, 14
15, 11
12, 10
12, 16
15, 9
21, 12
13, 9
7, 12
8, 17
7, 10
3, 10
6, 8
1, 9
4, 5
7, 9
4, 11
5, 5
1, 7
2, 3
6, 3
6, 3
5, 4
2, 4
5, 5
8, 5
4, 6
10, 11
7, 4
3, 6
3, 3
9, 6
6, 6
7, 3
2, 6
7, 9
4, 10
5, 10
5, 7
4, 4
2, 3
4, 2
6, 6
3, 5
2, 7
6, 4
6, 5
1, 7
0, 4
2, 5
3, 1
6, 10
5, 5
3, 7
6, 3
3, 4
5, 2
5, 1
9, 4
5, 2
4, 7
5, 1
8, 3
4, 4
2, 1
3, 2
2, 3
3, 2
1, 3
1, 9
1, 0
1, 8
3, 4
2, 3
2, 1
3, 5
3, 3
5, 3
4, 5
2, 5
6, 0
5, 6
7, 6
6, 1
7, 4
12, 6
7, 5
5, 3
4, 3
2, 5
4, 6
8, 7
1, 3
2, 2
3, 4
7, 3
5, 4
2, 4
2, 3
2, 3
3, 3
4, 4
5, 3
6, 3
3, 5
3, 4
1, 3
5, 1
3, 3
5, 1
1, 3
4, 5
5, 1
4, 5
4, 3
1, 3
2, 3
3, 2
4, 2
6, 4
4, 3
3, 3
3, 2
5, 8
2, 6
4, 1
3, 3
1, 2
4, 4
4, 2
3, 3
3, 2
2, 6
1, 4
1, 2
3, 3
3, 4
2, 6
1, 7
1, 7
1, 5
4, 3
2, 3
1, 2
2, 4
3, 5
2, 5
3, 4
2, 2
0, 4
1, 3
2, 5
3, 8
2, 4
1, 5
2, 4
5, 4
5, 0
4, 1
5, 7
1, 3
7, 7
5, 2
5, 2
2, 2
1, 2
4, 2
1, 1
1, 2
7, 2
1, 1
1, 2
2, 0
2, 0
3, 2
5, 2
1, 1
2, 1
3, 2
1, 1
3, 2
0, 2
3, 0
2, 4
3, 2
5, 2
1, 6
1, 4
1, 4
4, 4
3, 0
3, 3
3, 5
2, 1
1, 3
1, 5
3, 5
0, 2
0, 0
2, 2
2, 3
2, 3
1, 7
1, 3
1, 2
2, 4
3, 2
3, 3
1, 3
1, 4
3, 0
1, 4
0, 6
4, 3
1, 1
2, 4
1, 2
2, 4
3, 2
3, 5
2, 2
1, 4
2, 7
1, 3
4, 2
2, 0
1, 5
0, 3
3, 8
7, 6
4, 2
1, 4
4, 4
3, 2
1, 5
2, 2
4, 0
2, 2
1, 1
2, 1
2, 2
1, 1
2, 1
0, 1
1, 4
3, 0
2, 1
0, 0
1, 1
1, 0
3, 1
2, 1
2, 2
3, 0
1, 4
4, 2
4, 1
2, 4
0, 0
4, 2
4, 2
2, 1
2, 2
0, 1
2, 1
1, 0
4, 1
2, 0
2, 3
2, 1
1, 2
1, 2
0, 2
2, 0
1, 3
1, 2
0, 0
1, 2
2, 0
0, 0
1, 1
1, 1
0, 2
1, 1
0, 0
1, 0
3, 0
1, 3
0, 1
0, 0
0, 1
0, 1
1, 3
0, 1
2, 1
0, 5
1, 3
0, 0
0, 1
1, 1
0, 2
1, 0
1, 3
2, 3
0, 2
3, 0
1, 0
0, 0
2, 2
0, 0
2, 1
0, 0
0, 0
2, 1
1, 0
0, 0
0, 0
0, 0
1, 1
0, 1
0, 0
0, 0
1, 2
1, 1
0, 0
2, 0
1, 1
0, 0
0, 0
0, 1
0, 1
0, 1
1, 0
1, 3
2, 3
1, 1
0, 1
1, 1
1, 0
2, 3
1, 0
0, 0
0, 2
0, 1
0, 0
0, 1
3, 0
1, 0
0, 1
0, 1
1, 0
0, 0
0, 1
1, 1
2, 0
0, 0
0, 1
0, 0
0, 2
0, 1
1, 1
0, 0
1, 1
1, 2
0, 1
1, 0
1, 1
0, 0
0, 0
1, 1
1, 0
1, 0
0, 0
0, 0
0, 0
0, 0
0, 1
0, 1
0, 0
1, 0
2, 0
0, 1
2, 0
0, 0
1, 0
1, 0
0, 0
2, 0
0, 0
0, 0
0, 0
0, 3
0, 0
0, 0
0, 1
0, 0
0, 0
2, 0
0, 0
1, 1
0, 0
0, 0
0, 1
0, 1
1, 0
1, 0
0, 0
1, 0
0, 0
0, 1
0, 0
0, 0
0, 0
0, 0
1, 0
0, 0
0, 0
0, 1
1, 0
0, 0
0, 0
1, 0
0, 0
0, 0
0, 1
0, 0
2, 0
0, 0
1, 0
0, 0
0, 0
0, 0
1, 0
0, 0
0, 1
0, 0
0, 0
0, 0
0, 0
2, 0
0, 1
0, 0
1, 0
0, 0
0, 0
0, 0
0, 1
0, 2
0, 0
0, 0
0, 0
0, 1
0, 1
1, 0
0, 0
1, 0
0, 0
1, 0
1, 0
0, 1
0, 1
0, 1
0, 0
0, 0
0, 0
1, 2
0, 0
0, 0
0, 0
0, 0
0, 0
0, 0
1, 0
0, 0
0, 0
0, 0
0, 0
2, 0
0, 2
1, 1
0, 0
0, 0
0, 0
0, 0
1, 0
0, 0
1, 0
0, 1
0, 0
0, 0
0, 0
2, 0
0, 0
1, 1
2, 0
0, 0
0, 1
0, 0
0, 0
0, 0
0, 0
0, 0
0, 0
0, 0
0, 0
0, 0
0, 1
0, 0
0, 0
0, 1
1, 1
0, 0
0, 1
0, 0
1, 0
0, 0
0, 0
0, 1
0, 0
0, 1
0, 0
0, 0
0, 1
1, 0
0, 0
0, 0
0, 0
0, 0
0, 0
0, 1
0, 0
0, 0
0, 1
0, 1
0, 0
0, 0
1, 0
0, 0
0, 0
0, 0
0, 0
0, 2
0, 0
0, 0
0, 0
0, 0
0, 1
0, 0
0, 0
0, 0
0, 2
0, 0
0, 1
1, 0
0, 0
0, 0
0, 0
0, 0
0, 0
1, 0
0, 0
0, 0
0, 1
0, 0
0, 0
0, 0
0, 0
0, 0
0, 0
0, 0
0, 0
0, 0
0, 1
0, 0
0, 0
0, 0
0, 0
0, 0
0, 0
0, 0
0, 0
0, 0
0, 1
1, 0
1, 0
0, 0
0, 0
0, 0
0, 0
0, 0
0, 0
0, 1
0, 1
0, 0
0, 0
0, 0
0, 0
0, 0
0, 0
0, 0
0, 0
0, 0
0, 0
0, 0
0, 0
0, 1
0, 0
0, 0
0, 0
0, 0
0, 0
0, 0
0, 0
0, 0
0, 0
0, 0
0, 0
0, 0
0, 1
1, 0
0, 0
0, 0
0, 0
0, 0
0, 0
0, 0
0, 0
0, 0
0, 0
0, 0
0, 0
0, 0
0, 0
0, 0
0, 0
0, 0
0, 0
0, 0
0, 0
0, 0
0, 0
0, 0
0, 0
0, 0
0, 1
0, 0
0, 0
0, 0
0, 0
0, 0
0, 0
0, 0
0, 0
0, 0
0, 0
0, 0
0, 0
0, 0
0, 0
0, 0
0, 0
0, 0
0, 0
0, 0
0, 0
1, 0
1, 0
0, 0
0, 0
0, 0
0, 0
0, 0
0, 0
0, 0
0, 0
0, 0
1, 0
0, 0
0, 0
0, 0
0, 0
0, 0
0, 0
0, 0
0, 0
0, 0
0, 0
0, 0
0, 0
0, 0
0, 0
0, 0
0, 0
0, 0
0, 0
0, 0
0, 0
0, 0
0, 0
0, 0
0, 0
0, 0
0, 0
0, 0
0, 0
0, 0
0, 0
0, 0
0, 0
0, 0
0, 0
0, 0
0, 0
0, 0
0, 0
0, 0
0, 0
0, 0
0, 0
0, 0
0, 0
0, 0
0, 0
0, 0
0, 0
0, 0
0, 0
0, 0
0, 1
0, 0
0, 0
0, 0
0, 0
0, 0
0, 0
0, 0
0, 0
0, 0
0, 0
0, 0
0, 0
0, 0
0, 0
0, 0
1, 0
0, 0
0, 0
0, 0
0, 0
0, 0
0, 0
0, 0
0, 0
0, 0
0, 0
0, 0
0, 0
0, 0
0, 0
0, 0
0, 0
0, 0
0, 0
0, 0
0, 0
0, 0
0, 0
0, 0
0, 0
0, 0
0, 0
0, 0
0, 0
0, 0
0, 0
0, 0
0, 0
0, 0
0, 0
0, 0
0, 0
0, 0
0, 0
0, 0
0, 0
0, 0
0, 0
0, 0
0, 0
0, 0
0, 0
0, 0
0, 0
0, 0
0, 0
0, 0
0, 0
0, 0
0, 0
0, 0
0, 0
0, 0
0, 0
0, 0
0, 0
0, 0
0, 0
0, 0
0, 0
0, 0
0, 1
0, 0
0, 0
0, 0
0, 0
0, 1
0, 0
0, 0
0, 0
0, 0
0, 0
0, 0
0, 0
0, 0
0, 0
0, 0
0, 0
0, 0
0, 0
0, 0
0, 0
0, 0
0, 0
0, 0
0, 0
0, 0
0, 0
0, 0
0, 0
0, 0
0, 0
0, 0
0, 0
1, 0
0, 0
0, 0
0, 0
0, 0
0, 0
0, 0
0, 0
0, 0
0, 0
0, 0
0, 0
0, 0
0, 0
0, 0
0, 0
0, 0
0, 0
0, 0
0, 0
0, 0
0, 0
0, 0
0, 0
0, 0
0, 0
0, 0
0, 0
0, 0
0, 0
0, 0
0, 0
0, 0
0, 0
0, 0
0, 0
0, 0
0, 0
0, 0
0, 0
0, 0
0, 0
0, 0
0, 0
0, 0
0, 0
0, 0
0, 0
0, 0
0, 0
0, 0
0, 0
0, 0
0, 0
0, 0
0, 0
0, 0
0, 0
0, 0
0, 0
0, 0
0, 0
0, 0
0, 0
0, 0
0, 0
0, 0
0, 0
0, 0
0, 0
0, 0
0, 0
0, 0
0, 0
0, 0
0, 0
0, 0
0, 0
0, 0
0, 0
0, 0
0, 0
0, 0
0, 0
0, 0
0, 0
0, 0
0, 0
0, 0
0, 0
0, 0
0, 0
0, 0
0, 0
0, 0
0, 0
0, 0
0, 0
0, 0
0, 0
0, 0
0, 0
0, 0
0, 0
0, 0
0, 0
0, 0
0, 0
0, 0
0, 0
0, 0
0, 0
0, 0
0, 0
0, 0
0, 0
0, 0
0, 0
0, 0
0, 0
0, 0
0, 0
0, 0
0, 0
0, 0
0, 0
0, 0
0, 0
0, 0
0, 0
0, 0
0, 0
0, 0
0, 0
0, 0
0, 0
0, 0
0, 0
0, 0
0, 0
0, 0
0, 0
0, 0
0, 0
0, 0
0, 0
0, 0
0, 0
0, 0
0, 0
0, 0
0, 0
0, 0
0, 0
0, 0
0, 0
0, 0
0, 0
0, 0
0, 0
0, 0
0, 0
0, 0
0, 0
0, 0
0, 0
0, 0
0, 0
0, 0
0, 0
0, 0
0, 0
0, 0
0, 0
0, 0
0, 0
0, 0
0, 0
0, 0
0, 0
0, 0
0, 0
0, 0
0, 0
0, 0
0, 0
0, 0
0, 0
0, 0
0, 0
0, 0
0, 0
0, 0
0, 0
0, 0
0, 0
0, 0
0, 0
0, 0
0, 0
0, 0
0, 0
0, 0
0, 0
0, 0
0, 0
0, 0
0, 0
0, 0
#ENDOFDATA     end of spectrum data