File: host_upload/06-09-2024/ps_0852/dump3/ps__0852shot_2413.msa
#FORMAT      : EMSA/MAS spectral data file
#VERSION     : TC202v2.0 PIXL
#TITLE       : N/A
#DATE        :       Date in the format DD-MMM-YYYY, for example 07-JUL-2010
#TIME        :             The time of day at which the spectrum was recorded, in 24-hour format
#OWNER       : PIXL Flight Model       (PIXL will use this to indicate which instrument took the data.)
#NPOINTS     : 4096     Number of data points in the spectrum (This can be zero for configuration only files)
#NCOLUMNS    : 2     Number of data columns in the spectrum (This can be zero for configuration only files)
#XUNITS      : eV
#YUNITS      : COUNTS
#DATATYPE    : YY
#XPERCHAN    : 7.862, 7.881   eV per channel (separate by commas if more than one detector)
#OFFSET      : 18.5, -22.4         eV of first channel  (separate by commas if more than one detector
#SIGNALTYPE  : XRF
#YP_TEMP     : 2.267
#LIVETIME    : 8.53558, 8.52578   seconds (separate by commas if more than one detector)
#REALTIME    : 10, 10.0   seconds (separate by commas if more than one detector)
#SPECTRUM    : start of spectrum data
0, 0
0, 0
0, 0
0, 0
0, 0
0, 0
0, 0
0, 0
0, 0
0, 0
0, 0
0, 0
0, 0
0, 0
0, 0
0, 0
0, 0
0, 0
0, 0
0, 0
0, 0
0, 0
0, 0
0, 0
0, 0
0, 0
0, 0
0, 0
0, 0
0, 0
0, 0
0, 0
0, 0
0, 0
1, 1
0, 1
0, 0
0, 0
0, 0
0, 3
2, 3
1, 1
0, 0
0, 0
0, 2
2, 3
3, 0
1, 0
10, 5
9, 15
35, 21
25, 29
50, 44
85, 60
81, 57
85, 48
70, 54
38, 36
31, 9
19, 5
7, 8
5, 4
3, 0
5, 4
10, 0
8, 3
8, 6
11, 6
23, 34
49, 42
109, 78
185, 179
283, 238
407, 322
490, 372
472, 378
403, 299
322, 239
270, 161
133, 94
89, 57
48, 30
16, 12
13, 7
13, 7
10, 7
11, 10
5, 5
8, 6
4, 6
6, 0
2, 2
2, 3
1, 2
2, 2
6, 3
5, 2
3, 4
10, 7
2, 4
5, 2
4, 2
6, 2
6, 2
7, 3
6, 2
9, 5
13, 8
15, 16
27, 26
30, 26
52, 31
54, 53
54, 50
68, 47
53, 44
60, 47
50, 39
48, 16
34, 29
26, 25
24, 25
22, 24
23, 14
23, 15
19, 16
15, 26
8, 6
13, 13
9, 3
6, 6
4, 1
4, 2
5, 1
1, 3
1, 2
2, 3
4, 2
2, 4
6, 3
2, 3
4, 1
0, 2
2, 2
0, 0
2, 1
1, 0
1, 1
2, 1
4, 1
0, 5
4, 6
9, 11
12, 14
18, 10
12, 12
24, 30
25, 24
32, 19
26, 25
19, 17
10, 9
12, 6
11, 5
7, 2
2, 7
4, 3
4, 5
0, 4
5, 4
4, 9
6, 5
9, 8
3, 8
6, 3
4, 3
6, 5
5, 5
2, 6
2, 3
9, 4
1, 3
1, 3
6, 7
4, 2
4, 1
1, 3
6, 0
8, 3
12, 4
4, 7
9, 8
13, 7
11, 9
15, 6
8, 5
17, 15
13, 8
9, 10
12, 11
22, 10
13, 16
13, 16
5, 7
6, 4
9, 5
6, 7
4, 7
7, 11
9, 6
7, 9
6, 12
7, 17
5, 13
4, 31
12, 19
6, 29
4, 38
6, 40
6, 29
4, 28
6, 32
8, 16
4, 15
18, 13
18, 10
21, 9
25, 9
32, 13
43, 8
29, 13
35, 9
45, 14
47, 7
37, 12
33, 3
14, 5
23, 8
12, 15
16, 5
14, 9
8, 8
13, 8
8, 10
18, 11
25, 16
35, 37
42, 35
50, 40
62, 44
70, 60
64, 44
69, 47
61, 39
55, 36
48, 25
28, 19
25, 17
16, 14
20, 16
24, 18
38, 30
52, 56
93, 96
151, 183
321, 338
520, 558
840, 828
1225, 1235
1666, 1606
2148, 2037
2438, 2161
2634, 2184
2432, 2068
2193, 1755
1858, 1465
1325, 1015
987, 691
656, 427
362, 247
213, 134
110, 46
52, 41
33, 35
24, 15
14, 20
12, 17
18, 25
17, 30
19, 29
27, 27
41, 41
49, 73
76, 83
73, 89
158, 167
232, 227
268, 272
306, 326
361, 360
383, 317
357, 295
338, 235
259, 213
207, 171
112, 128
101, 59
73, 36
39, 33
26, 24
20, 10
12, 9
9, 13
14, 8
9, 7
16, 9
10, 13
11, 15
20, 17
7, 9
16, 5
10, 13
11, 12
11, 10
9, 6
7, 3
5, 3
11, 8
14, 3
15, 8
7, 3
7, 1
8, 4
10, 6
15, 6
9, 2
9, 3
11, 1
11, 5
2, 2
3, 4
5, 4
7, 6
7, 7
4, 7
7, 7
6, 2
7, 5
6, 8
5, 10
5, 4
3, 10
8, 9
4, 10
7, 12
4, 6
4, 12
6, 3
3, 7
11, 4
7, 8
4, 5
8, 4
5, 4
5, 11
11, 8
9, 7
16, 5
15, 3
16, 6
16, 4
16, 4
13, 1
10, 3
16, 7
16, 8
8, 5
9, 4
8, 1
8, 4
10, 4
9, 5
6, 1
5, 3
12, 2
7, 3
6, 3
5, 6
7, 10
2, 3
4, 2
6, 1
4, 1
5, 6
7, 1
4, 6
2, 6
7, 3
7, 7
0, 11
1, 12
4, 18
3, 18
2, 17
5, 24
3, 25
5, 23
7, 14
4, 18
4, 14
5, 14
5, 8
8, 13
14, 11
10, 3
4, 3
9, 6
16, 8
8, 4
6, 3
7, 0
4, 4
4, 6
2, 4
4, 1
3, 5
3, 4
3, 2
3, 3
3, 3
2, 0
3, 2
2, 6
1, 3
3, 4
1, 2
2, 4
4, 3
3, 2
3, 4
5, 6
0, 3
1, 0
2, 1
1, 1
6, 0
5, 1
1, 1
1, 0
2, 1
1, 3
3, 3
2, 3
2, 2
3, 2
1, 1
4, 4
2, 2
5, 2
7, 1
5, 3
6, 2
2, 1
9, 2
3, 1
5, 2
4, 2
4, 2
2, 1
3, 2
3, 1
3, 4
6, 2
3, 5
2, 3
3, 5
2, 3
0, 2
1, 3
2, 1
1, 3
2, 3
2, 1
2, 1
2, 1
2, 1
3, 3
5, 2
5, 1
3, 3
0, 3
3, 2
1, 3
2, 2
3, 1
6, 3
1, 2
4, 3
1, 0
2, 1
1, 3
4, 6
0, 4
1, 7
4, 3
4, 5
4, 5
1, 6
4, 3
5, 5
1, 7
0, 2
2, 5
0, 1
2, 4
2, 2
1, 3
1, 0
0, 1
3, 1
3, 0
2, 1
2, 0
2, 0
2, 2
1, 2
2, 1
1, 3
0, 1
1, 3
1, 0
2, 1
2, 1
3, 0
0, 0
1, 2
2, 5
3, 1
6, 5
3, 5
4, 6
4, 3
6, 5
5, 6
12, 3
7, 1
5, 2
5, 1
3, 1
4, 3
5, 1
2, 1
0, 2
3, 1
1, 1
3, 2
0, 3
0, 0
1, 1
3, 0
1, 3
0, 1
1, 1
0, 0
3, 1
1, 5
2, 0
3, 2
1, 0
4, 1
3, 1
1, 4
2, 1
3, 1
1, 2
2, 1
2, 1
3, 1
0, 1
0, 0
1, 1
1, 1
1, 0
2, 3
0, 1
2, 0
0, 0
1, 2
1, 2
1, 1
1, 1
1, 0
3, 1
0, 0
0, 1
2, 3
1, 1
0, 0
0, 3
0, 0
2, 1
2, 1
1, 0
1, 2
1, 1
0, 3
0, 0
2, 1
1, 3
0, 3
3, 2
1, 0
1, 2
1, 3
1, 0
2, 1
2, 0
0, 0
1, 1
1, 3
2, 2
0, 1
3, 2
2, 1
3, 1
1, 0
0, 0
0, 1
0, 0
0, 1
3, 2
2, 1
1, 0
3, 1
1, 0
0, 1
0, 0
1, 1
0, 0
0, 0
1, 2
0, 0
1, 1
0, 1
0, 1
2, 0
3, 1
0, 1
2, 2
0, 3
1, 0
1, 0
0, 1
0, 0
0, 1
2, 0
0, 0
1, 1
1, 0
0, 1
0, 0
0, 1
0, 0
0, 2
1, 2
0, 0
0, 0
0, 1
0, 0
1, 1
0, 1
1, 0
1, 0
1, 0
0, 0
0, 0
0, 0
1, 0
2, 0
1, 0
0, 1
0, 0
0, 1
1, 0
1, 1
0, 0
0, 0
0, 0
0, 0
0, 2
0, 0
0, 0
0, 0
0, 0
0, 0
0, 0
1, 0
0, 1
1, 0
0, 0
0, 2
2, 0
1, 0
2, 0
0, 0
0, 0
0, 0
0, 1
0, 0
0, 1
0, 0
0, 0
1, 1
1, 1
1, 1
0, 1
0, 1
1, 0
0, 0
0, 0
0, 0
1, 0
0, 0
0, 0
0, 0
1, 1
1, 1
1, 1
0, 0
1, 1
0, 0
1, 0
0, 0
0, 0
0, 1
0, 0
1, 0
0, 0
0, 0
0, 0
0, 0
0, 1
0, 1
0, 1
0, 0
0, 0
0, 0
0, 1
0, 0
0, 0
1, 0
1, 2
0, 0
0, 0
0, 0
0, 0
0, 0
1, 0
0, 3
0, 0
0, 1
0, 0
0, 0
0, 0
0, 0
2, 2
0, 0
0, 0
0, 0
0, 0
1, 1
0, 0
0, 0
0, 0
0, 0
0, 0
0, 0
1, 0
0, 0
0, 0
1, 1
0, 0
0, 0
0, 0
0, 0
1, 0
0, 1
0, 1
1, 1
0, 0
0, 0
0, 0
0, 0
0, 1
0, 0
0, 1
0, 1
0, 0
0, 1
0, 0
0, 0
1, 0
0, 0
2, 0
0, 1
0, 0
1, 1
0, 0
0, 0
0, 1
1, 0
0, 0
1, 0
0, 0
0, 0
0, 0
0, 0
0, 0
0, 1
0, 0
0, 0
0, 1
0, 0
0, 0
0, 0
1, 0
1, 0
0, 1
0, 1
1, 0
0, 0
0, 0
0, 0
0, 0
0, 1
2, 0
0, 0
0, 0
0, 0
0, 0
0, 0
0, 0
0, 0
0, 0
0, 0
0, 0
0, 0
0, 0
0, 0
1, 0
0, 0
0, 0
0, 1
0, 0
0, 0
0, 0
0, 0
0, 0
0, 0
0, 0
0, 0
0, 0
0, 0
0, 0
1, 0
0, 0
0, 0
0, 0
0, 1
0, 0
0, 0
0, 0
0, 0
0, 0
0, 0
0, 0
0, 0
1, 1
0, 0
1, 0
0, 1
0, 0
0, 0
0, 0
0, 0
0, 0
0, 0
0, 0
0, 0
1, 0
0, 2
0, 1
0, 0
0, 0
3, 0
0, 0
0, 0
0, 0
0, 0
0, 0
0, 0
0, 0
0, 0
0, 0
0, 0
0, 0
0, 0
0, 0
0, 0
0, 0
0, 0
0, 0
0, 0
0, 0
0, 0
0, 0
0, 1
0, 0
1, 0
0, 0
0, 0
0, 0
0, 0
1, 0
0, 0
0, 0
0, 0
0, 0
0, 0
0, 0
0, 0
1, 0
0, 0
0, 0
0, 0
0, 0
0, 0
0, 0
0, 0
0, 0
0, 1
0, 0
0, 0
0, 0
1, 0
0, 0
0, 0
0, 0
0, 0
0, 0
0, 0
0, 0
0, 0
0, 0
0, 0
0, 1
0, 0
0, 0
0, 0
0, 0
0, 0
0, 0
0, 0
1, 0
0, 0
0, 0
0, 0
0, 0
0, 0
0, 0
0, 0
0, 0
0, 0
0, 0
0, 0
0, 0
0, 0
0, 0
0, 0
0, 0
0, 0
0, 0
0, 0
0, 0
0, 0
0, 0
0, 0
0, 0
0, 0
0, 0
0, 0
0, 0
0, 0
0, 0
0, 0
0, 0
0, 0
0, 0
0, 0
0, 0
0, 0
0, 0
0, 0
0, 0
0, 0
0, 0
0, 0
0, 0
0, 0
0, 0
0, 1
0, 0
0, 0
0, 0
0, 0
0, 0
0, 0
0, 0
0, 0
0, 0
0, 0
0, 0
0, 0
0, 0
0, 0
0, 0
0, 0
0, 0
0, 0
0, 0
0, 0
0, 0
1, 0
0, 0
0, 0
0, 0
0, 0
0, 0
0, 0
0, 0
0, 0
0, 0
0, 0
0, 0
0, 0
0, 0
0, 0
0, 0
0, 0
0, 0
0, 0
0, 0
0, 0
0, 0
0, 0
0, 0
0, 0
0, 0
0, 0
0, 0
0, 0
0, 0
0, 0
0, 0
0, 0
0, 0
0, 0
0, 0
0, 0
0, 0
0, 0
0, 0
0, 0
0, 0
0, 0
0, 0
0, 0
0, 0
0, 0
0, 0
0, 0
0, 0
0, 0
0, 0
0, 0
0, 0
0, 0
0, 0
0, 0
0, 0
0, 0
0, 0
0, 0
0, 0
0, 0
0, 0
0, 0
0, 0
0, 0
0, 0
0, 0
0, 0
0, 0
0, 0
0, 0
0, 0
0, 0
0, 0
0, 0
0, 0
0, 0
0, 0
0, 0
0, 0
0, 0
0, 0
0, 0
0, 0
0, 0
0, 0
0, 0
0, 0
0, 0
0, 0
0, 0
0, 0
0, 0
0, 0
0, 0
0, 0
0, 0
0, 0
0, 0
0, 0
0, 0
0, 0
0, 0
0, 0
0, 0
0, 0
0, 0
0, 0
0, 0
0, 0
0, 0
0, 0
0, 0
0, 0
0, 0
0, 0
0, 0
0, 0
0, 0
0, 0
0, 0
0, 0
0, 0
0, 0
0, 0
0, 0
0, 0
0, 0
0, 0
0, 0
0, 0
0, 0
0, 0
0, 0
0, 0
0, 0
0, 0
0, 0
0, 0
0, 0
0, 0
0, 0
0, 0
0, 0
0, 0
0, 0
0, 0
0, 0
0, 0
0, 0
0, 0
0, 0
0, 0
0, 0
0, 0
0, 0
0, 0
0, 0
0, 0
0, 0
0, 0
0, 0
0, 0
0, 0
0, 0
0, 0
0, 0
0, 0
0, 0
0, 0
0, 0
0, 0
0, 0
0, 0
0, 0
0, 0
0, 0
0, 0
0, 0
0, 0
0, 0
0, 0
0, 0
0, 0
0, 0
0, 0
0, 0
0, 0
0, 0
0, 0
0, 0
0, 0
0, 0
0, 0
0, 0
0, 0
0, 0
0, 0
0, 0
0, 0
0, 0
0, 0
0, 0
0, 0
0, 0
0, 0
0, 0
0, 0
0, 0
0, 0
0, 0
0, 0
0, 0
0, 0
0, 0
0, 0
0, 0
0, 0
0, 0
0, 0
0, 0
0, 0
0, 0
0, 0
0, 0
0, 0
0, 0
0, 0
0, 0
0, 0
0, 0
0, 0
0, 0
0, 0
0, 0
0, 0
0, 0
0, 0
0, 0
0, 0
0, 0
0, 0
0, 0
0, 0
0, 0
0, 0
0, 0
0, 0
0, 0
0, 0
0, 0
0, 0
0, 0
0, 0
0, 0
0, 0
0, 0
0, 0
0, 0
0, 0
0, 0
0, 0
0, 0
0, 0
0, 0
0, 0
0, 0
0, 0
0, 0
0, 0
0, 0
0, 0
0, 0
0, 0
0, 0
0, 0
0, 0
0, 0
0, 0
0, 0
0, 0
0, 0
0, 0
0, 0
0, 0
0, 0
0, 0
0, 0
0, 0
0, 0
0, 0
0, 0
0, 0
0, 0
0, 0
0, 0
0, 0
0, 0
0, 0
0, 0
0, 0
0, 0
0, 0
0, 0
0, 0
0, 0
0, 0
0, 0
0, 0
0, 0
0, 0
0, 0
0, 0
0, 0
0, 0
0, 0
0, 0
0, 0
0, 0
0, 0
0, 0
0, 0
0, 0
0, 0
0, 0
0, 0
0, 0
0, 0
0, 0
0, 0
0, 0
0, 0
#ENDOFDATA     end of spectrum data