File: host_upload/06-09-2024/ps_0852/dump3/ps__0852shot_2222.msa
#FORMAT      : EMSA/MAS spectral data file
#VERSION     : TC202v2.0 PIXL
#TITLE       : N/A
#DATE        :       Date in the format DD-MMM-YYYY, for example 07-JUL-2010
#TIME        :             The time of day at which the spectrum was recorded, in 24-hour format
#OWNER       : PIXL Flight Model       (PIXL will use this to indicate which instrument took the data.)
#NPOINTS     : 4096     Number of data points in the spectrum (This can be zero for configuration only files)
#NCOLUMNS    : 2     Number of data columns in the spectrum (This can be zero for configuration only files)
#XUNITS      : eV
#YUNITS      : COUNTS
#DATATYPE    : YY
#XPERCHAN    : 7.862, 7.881   eV per channel (separate by commas if more than one detector)
#OFFSET      : 18.5, -22.4         eV of first channel  (separate by commas if more than one detector
#SIGNALTYPE  : XRF
#YP_TEMP     : 2.588
#LIVETIME    : 8.54274, 8.58088   seconds (separate by commas if more than one detector)
#REALTIME    : 10, 10.0   seconds (separate by commas if more than one detector)
#SPECTRUM    : start of spectrum data
0, 0
0, 0
0, 0
0, 0
0, 0
0, 0
0, 0
0, 0
0, 0
0, 0
0, 0
0, 0
0, 0
0, 0
0, 0
0, 0
0, 0
0, 0
0, 0
0, 0
0, 0
0, 0
0, 0
0, 0
0, 0
0, 0
0, 0
0, 0
0, 0
0, 0
0, 0
0, 0
0, 0
0, 1
0, 3
1, 2
1, 15
0, 7
0, 35
0, 34
0, 46
1, 55
1, 65
1, 45
0, 45
0, 24
1, 18
3, 11
8, 10
8, 18
21, 24
46, 57
79, 59
74, 78
86, 84
85, 73
67, 61
46, 54
35, 30
13, 17
12, 9
5, 7
4, 6
1, 5
4, 6
3, 10
10, 9
7, 9
26, 25
44, 56
87, 121
185, 171
288, 317
324, 361
411, 408
453, 432
399, 368
288, 258
226, 189
123, 105
81, 82
42, 31
26, 20
6, 5
3, 5
3, 6
0, 4
1, 5
1, 4
4, 5
0, 3
0, 2
2, 4
0, 5
1, 2
4, 3
2, 3
2, 7
1, 6
0, 7
2, 9
2, 15
1, 20
4, 22
3, 24
3, 17
4, 32
7, 84
7, 211
6, 456
14, 855
18, 1505
23, 2231
32, 3066
22, 3650
20, 3859
21, 3731
23, 2997
21, 2115
11, 1366
16, 836
13, 387
12, 184
21, 91
13, 43
13, 21
8, 19
10, 10
4, 15
9, 4
4, 2
7, 1
9, 1
3, 2
5, 1
1, 3
5, 0
5, 0
3, 2
3, 2
1, 4
3, 2
2, 2
5, 4
1, 3
1, 0
1, 2
2, 0
2, 0
1, 5
3, 2
3, 3
4, 4
6, 5
9, 6
8, 13
14, 16
15, 15
15, 12
8, 8
9, 11
5, 9
9, 3
2, 1
2, 2
3, 4
3, 3
6, 5
7, 0
2, 3
2, 4
5, 8
3, 11
6, 7
8, 9
3, 10
2, 16
6, 20
11, 14
17, 12
9, 33
4, 24
4, 14
4, 9
8, 10
5, 9
8, 7
4, 2
5, 1
4, 9
12, 6
6, 6
11, 10
10, 13
7, 9
15, 15
17, 12
11, 9
15, 15
14, 12
15, 12
16, 12
22, 7
26, 13
34, 16
23, 14
32, 15
22, 22
26, 14
11, 17
8, 15
9, 15
13, 16
5, 10
1, 7
6, 9
3, 7
2, 3
5, 5
7, 4
4, 7
4, 6
6, 19
9, 18
5, 27
6, 36
11, 43
13, 55
11, 63
12, 74
14, 56
13, 51
17, 37
6, 24
7, 17
11, 17
11, 8
4, 11
8, 10
13, 8
10, 19
8, 17
4, 17
14, 38
8, 33
14, 43
27, 47
26, 39
41, 63
56, 69
57, 79
51, 54
66, 63
53, 47
40, 40
30, 35
33, 21
21, 16
10, 9
14, 11
21, 32
22, 30
48, 50
77, 103
135, 190
281, 336
467, 543
767, 878
1113, 1231
1506, 1728
2016, 2111
2245, 2304
2324, 2323
2418, 2127
2138, 1856
1718, 1458
1364, 1044
858, 725
609, 434
360, 280
192, 128
108, 87
56, 33
41, 25
17, 15
12, 16
16, 21
11, 27
17, 33
14, 52
20, 49
27, 81
41, 77
83, 97
110, 130
146, 203
209, 240
226, 287
334, 326
324, 340
347, 348
331, 333
298, 264
222, 191
210, 171
123, 130
104, 88
41, 59
28, 55
13, 57
7, 57
5, 53
6, 48
7, 47
8, 35
7, 36
10, 30
19, 19
16, 15
16, 13
15, 19
8, 16
9, 6
4, 12
4, 4
5, 7
5, 4
6, 5
1, 3
6, 6
3, 1
2, 3
4, 3
1, 7
4, 8
3, 6
5, 12
5, 21
1, 18
4, 27
5, 30
5, 30
10, 30
9, 53
5, 40
6, 48
5, 36
2, 35
5, 23
7, 28
5, 27
4, 21
3, 21
7, 15
2, 17
5, 10
5, 6
6, 14
10, 4
7, 4
8, 6
6, 5
11, 4
4, 2
4, 4
3, 0
7, 3
5, 5
4, 2
3, 3
6, 7
5, 6
2, 6
5, 2
3, 4
6, 5
4, 2
2, 2
3, 8
1, 6
1, 6
4, 6
4, 6
2, 14
5, 12
3, 7
5, 14
7, 17
0, 8
3, 9
1, 10
6, 3
2, 0
6, 4
6, 2
3, 2
6, 6
3, 4
3, 7
4, 3
9, 1
9, 3
11, 5
12, 6
9, 7
13, 4
10, 13
7, 6
5, 7
3, 9
2, 5
3, 7
5, 6
1, 6
3, 4
1, 7
2, 6
1, 2
2, 7
5, 1
2, 4
2, 5
2, 1
3, 5
2, 3
4, 3
1, 3
1, 4
2, 3
4, 1
5, 4
7, 1
3, 2
2, 1
7, 2
8, 4
5, 4
12, 1
9, 3
8, 4
12, 2
14, 3
7, 3
13, 1
10, 1
9, 2
17, 2
6, 3
5, 6
6, 7
5, 3
8, 5
6, 4
12, 2
6, 4
2, 7
4, 5
4, 11
4, 3
1, 5
1, 6
0, 3
2, 0
3, 4
2, 2
0, 1
1, 2
2, 3
2, 2
1, 2
0, 2
1, 2
3, 4
3, 3
0, 0
0, 2
2, 1
3, 2
2, 1
1, 0
1, 1
3, 2
2, 2
1, 5
2, 3
2, 2
1, 4
3, 4
1, 3
1, 2
3, 3
2, 0
1, 0
3, 2
2, 2
0, 1
3, 2
2, 2
3, 1
0, 2
4, 1
1, 1
1, 1
1, 1
1, 1
4, 1
1, 2
1, 2
2, 1
0, 0
3, 0
2, 1
2, 3
1, 4
0, 0
1, 4
1, 4
0, 2
4, 3
6, 2
3, 3
1, 0
2, 2
3, 2
0, 5
1, 3
1, 2
2, 0
1, 4
1, 3
3, 1
1, 0
1, 1
3, 1
2, 2
1, 2
3, 4
2, 3
1, 3
0, 3
5, 3
3, 3
5, 3
7, 3
10, 3
6, 4
0, 2
5, 2
10, 0
1, 0
2, 5
0, 1
4, 1
2, 1
4, 0
2, 1
1, 3
1, 1
2, 0
1, 0
1, 2
5, 2
2, 1
0, 0
0, 1
1, 2
4, 2
2, 2
2, 3
2, 3
1, 0
3, 2
3, 1
0, 4
4, 2
0, 1
2, 0
3, 3
0, 1
0, 0
0, 2
1, 0
4, 0
0, 2
1, 0
0, 1
3, 1
0, 2
1, 2
3, 0
2, 2
4, 0
0, 2
3, 1
1, 1
0, 2
1, 0
0, 0
2, 0
2, 2
1, 1
1, 2
0, 0
2, 2
0, 2
2, 0
0, 0
2, 1
2, 1
2, 0
2, 0
0, 0
1, 1
0, 0
3, 0
1, 0
1, 1
2, 0
0, 0
3, 1
1, 0
0, 0
0, 0
1, 1
0, 2
0, 2
2, 0
0, 0
0, 1
0, 1
1, 1
1, 0
1, 2
0, 2
0, 3
2, 0
0, 0
2, 0
2, 2
1, 0
2, 0
0, 0
1, 1
1, 0
0, 1
1, 0
1, 2
0, 0
1, 2
0, 1
0, 2
3, 2
0, 0
0, 0
0, 1
0, 0
1, 1
1, 0
0, 1
1, 1
0, 1
0, 0
2, 0
0, 2
0, 1
0, 0
1, 0
0, 1
1, 1
0, 1
0, 0
0, 0
0, 1
1, 1
0, 2
1, 0
1, 1
0, 0
0, 0
0, 0
0, 0
0, 0
2, 1
0, 0
2, 0
0, 2
1, 0
1, 0
1, 0
1, 2
0, 0
2, 0
0, 0
0, 0
0, 0
0, 0
0, 0
0, 0
0, 0
0, 1
0, 1
0, 0
0, 0
0, 0
1, 1
0, 0
0, 0
1, 0
0, 0
0, 0
0, 0
0, 1
0, 1
1, 0
1, 0
0, 0
0, 0
1, 0
1, 0
0, 0
0, 2
1, 1
0, 0
0, 0
0, 1
0, 0
0, 0
0, 1
0, 1
3, 0
1, 0
0, 1
0, 0
1, 0
0, 1
0, 0
0, 0
0, 0
1, 0
0, 2
0, 0
1, 0
1, 0
0, 0
0, 0
0, 0
0, 0
0, 0
0, 1
0, 0
1, 1
1, 0
0, 0
0, 0
0, 1
1, 1
0, 0
0, 0
0, 0
1, 2
0, 0
0, 0
0, 0
0, 0
0, 0
0, 0
1, 0
0, 0
1, 0
0, 0
0, 0
0, 0
0, 0
0, 0
0, 1
0, 0
0, 0
1, 1
0, 0
0, 0
0, 0
0, 1
0, 0
0, 1
0, 0
0, 0
1, 1
0, 1
1, 0
0, 0
0, 1
0, 0
1, 0
0, 0
0, 0
1, 2
1, 0
1, 0
1, 1
0, 0
0, 1
0, 0
0, 0
0, 0
0, 0
1, 0
1, 0
0, 0
0, 1
1, 0
0, 0
0, 0
0, 0
0, 0
0, 0
0, 0
0, 0
0, 0
0, 0
1, 0
0, 0
0, 0
0, 0
0, 0
0, 0
0, 0
1, 0
0, 0
0, 1
0, 1
0, 0
0, 0
0, 0
0, 1
0, 0
0, 0
0, 0
0, 3
0, 0
0, 0
1, 0
0, 0
0, 1
0, 0
0, 1
0, 0
0, 0
0, 0
0, 0
0, 1
0, 0
0, 0
1, 0
0, 0
2, 1
0, 0
0, 0
0, 0
0, 0
2, 0
0, 0
0, 0
0, 0
0, 0
1, 0
0, 0
0, 0
0, 0
0, 0
0, 0
0, 0
0, 0
1, 0
0, 0
0, 0
0, 0
0, 0
1, 0
0, 0
0, 0
0, 0
0, 0
0, 0
0, 0
0, 0
0, 0
0, 0
0, 0
0, 0
0, 1
0, 0
0, 0
0, 0
0, 0
0, 0
0, 0
0, 0
0, 0
0, 0
0, 0
0, 0
0, 0
0, 1
0, 0
0, 0
0, 0
0, 1
0, 0
0, 0
0, 0
0, 0
0, 0
0, 0
0, 0
0, 0
0, 0
0, 0
1, 0
0, 0
0, 0
0, 0
0, 0
0, 0
0, 0
0, 0
0, 0
0, 0
0, 0
0, 0
0, 0
0, 0
0, 0
0, 0
0, 0
0, 0
0, 0
0, 0
0, 0
0, 0
0, 0
1, 1
0, 0
0, 0
0, 0
0, 0
0, 0
0, 0
0, 0
0, 0
0, 0
0, 0
0, 0
0, 0
0, 0
0, 0
0, 0
0, 0
0, 0
0, 1
0, 0
0, 0
0, 0
0, 0
0, 0
0, 0
0, 0
0, 0
0, 0
0, 0
0, 0
0, 0
0, 0
0, 0
0, 0
0, 0
0, 0
0, 0
0, 0
0, 0
0, 0
0, 0
0, 0
0, 0
0, 0
0, 0
0, 0
0, 0
0, 0
0, 0
0, 0
0, 0
0, 0
0, 0
0, 0
0, 0
0, 0
0, 0
0, 0
0, 0
0, 0
0, 0
0, 0
0, 0
0, 0
0, 0
0, 0
0, 0
0, 0
0, 1
0, 0
0, 0
0, 0
0, 0
0, 0
0, 0
0, 0
0, 0
0, 0
0, 0
0, 0
1, 0
0, 0
0, 0
0, 0
0, 0
0, 0
0, 0
0, 0
0, 0
0, 0
0, 0
0, 0
0, 0
0, 0
0, 0
0, 0
0, 0
0, 0
0, 0
0, 0
0, 0
0, 0
0, 0
0, 0
0, 0
0, 0
0, 0
0, 0
0, 0
0, 0
0, 0
0, 0
0, 0
0, 0
0, 0
0, 0
0, 0
0, 0
0, 0
0, 0
0, 0
0, 0
0, 0
0, 0
0, 0
0, 0
0, 0
0, 0
0, 0
0, 0
0, 0
0, 0
0, 0
0, 0
0, 0
0, 0
0, 0
0, 0
0, 0
0, 0
0, 0
0, 0
0, 0
0, 0
0, 0
0, 0
0, 0
0, 0
0, 0
0, 0
0, 0
0, 0
0, 0
0, 0
0, 0
0, 0
0, 0
0, 0
0, 0
0, 0
0, 0
0, 0
0, 0
0, 0
0, 0
0, 0
0, 0
0, 0
0, 0
0, 0
0, 0
0, 0
0, 0
0, 0
0, 0
0, 0
0, 0
0, 0
0, 0
0, 0
0, 0
0, 0
0, 0
0, 0
0, 0
0, 0
0, 0
0, 0
0, 0
0, 0
0, 0
0, 0
0, 0
0, 0
0, 0
0, 0
0, 0
0, 0
0, 0
0, 0
0, 0
0, 0
0, 0
0, 0
0, 0
0, 0
0, 0
0, 0
0, 0
0, 0
0, 0
0, 0
0, 0
0, 0
0, 0
0, 0
0, 0
0, 0
0, 0
0, 0
0, 0
0, 0
0, 0
0, 0
0, 0
0, 0
0, 0
0, 0
0, 0
0, 0
0, 0
0, 0
0, 0
0, 0
0, 0
0, 0
0, 0
0, 0
0, 0
0, 0
0, 0
0, 0
0, 0
0, 0
0, 0
0, 0
0, 0
0, 0
0, 0
0, 0
0, 0
0, 0
0, 0
0, 0
0, 0
0, 0
0, 0
0, 0
0, 0
0, 0
0, 0
0, 0
0, 0
0, 0
0, 0
0, 0
0, 0
0, 0
0, 0
0, 0
0, 0
0, 0
0, 0
0, 0
0, 0
0, 0
0, 0
0, 0
0, 0
0, 0
0, 0
0, 0
0, 0
0, 0
0, 0
0, 0
0, 0
0, 0
0, 0
0, 0
0, 0
0, 0
0, 0
0, 0
0, 0
0, 0
0, 0
0, 0
0, 0
0, 0
0, 0
0, 0
0, 0
0, 0
0, 0
0, 0
0, 0
0, 0
0, 0
0, 0
0, 0
0, 0
0, 0
0, 0
0, 0
0, 0
0, 0
0, 0
0, 0
0, 0
0, 0
0, 0
0, 0
0, 0
0, 0
0, 0
0, 0
0, 0
0, 0
0, 0
0, 0
0, 0
0, 0
0, 0
0, 0
0, 0
0, 0
0, 0
0, 0
0, 0
0, 0
0, 0
0, 0
0, 0
0, 0
0, 0
0, 0
0, 0
0, 0
0, 0
0, 0
0, 0
0, 0
0, 0
0, 0
0, 0
0, 0
0, 0
0, 0
0, 0
0, 0
0, 0
0, 0
0, 0
0, 0
0, 0
0, 0
0, 0
0, 0
0, 0
0, 0
0, 0
0, 0
0, 0
0, 0
0, 0
0, 0
0, 0
0, 0
0, 0
0, 0
0, 0
0, 0
0, 0
0, 0
0, 0
0, 0
0, 0
0, 0
0, 0
0, 0
0, 0
0, 0
0, 0
0, 0
0, 0
0, 0
0, 0
0, 0
0, 0
0, 0
0, 0
0, 0
0, 0
0, 0
0, 0
0, 0
0, 0
0, 0
0, 0
0, 0
0, 0
0, 0
0, 0
0, 0
0, 0
0, 0
0, 0
0, 0
0, 0
0, 0
0, 0
0, 0
0, 0
0, 0
0, 0
#ENDOFDATA     end of spectrum data