File: host_upload/06-09-2024/ps_0852/dump3/ps__0852shot_2333.msa
#FORMAT      : EMSA/MAS spectral data file
#VERSION     : TC202v2.0 PIXL
#TITLE       : N/A
#DATE        :       Date in the format DD-MMM-YYYY, for example 07-JUL-2010
#TIME        :             The time of day at which the spectrum was recorded, in 24-hour format
#OWNER       : PIXL Flight Model       (PIXL will use this to indicate which instrument took the data.)
#NPOINTS     : 4096     Number of data points in the spectrum (This can be zero for configuration only files)
#NCOLUMNS    : 2     Number of data columns in the spectrum (This can be zero for configuration only files)
#XUNITS      : eV
#YUNITS      : COUNTS
#DATATYPE    : YY
#XPERCHAN    : 7.862, 7.881   eV per channel (separate by commas if more than one detector)
#OFFSET      : 18.5, -22.4         eV of first channel  (separate by commas if more than one detector
#SIGNALTYPE  : XRF
#YP_TEMP     : 2.364
#LIVETIME    : 8.56015, 8.53857   seconds (separate by commas if more than one detector)
#REALTIME    : 10, 10.0   seconds (separate by commas if more than one detector)
#SPECTRUM    : start of spectrum data
0, 0
0, 0
0, 0
0, 0
0, 0
0, 0
0, 0
0, 0
0, 0
0, 0
0, 0
0, 0
0, 0
0, 0
0, 0
0, 0
0, 0
0, 0
0, 0
0, 0
0, 0
0, 0
0, 0
0, 0
0, 0
0, 0
0, 0
0, 0
0, 0
0, 0
0, 0
0, 0
1, 0
2, 0
0, 0
1, 0
0, 0
1, 1
1, 1
0, 2
1, 1
0, 1
0, 0
1, 2
6, 1
2, 2
3, 0
3, 1
16, 7
16, 15
22, 22
50, 53
66, 59
79, 69
90, 58
88, 73
58, 52
44, 48
21, 23
12, 16
3, 5
2, 2
3, 3
2, 4
0, 4
3, 1
5, 4
15, 5
27, 27
45, 43
103, 103
166, 183
293, 270
389, 336
433, 450
429, 421
387, 340
281, 294
207, 206
108, 102
81, 76
39, 29
18, 21
12, 5
7, 4
0, 4
1, 0
2, 2
1, 1
6, 1
2, 2
3, 1
6, 1
3, 11
13, 11
37, 32
34, 33
54, 57
62, 55
69, 56
51, 46
65, 38
21, 26
32, 18
21, 13
11, 10
11, 7
9, 5
20, 6
12, 14
16, 16
45, 19
25, 25
26, 33
40, 37
26, 36
37, 23
34, 30
23, 25
27, 23
17, 21
23, 16
7, 19
18, 15
18, 15
13, 12
6, 13
9, 8
2, 10
6, 4
7, 6
3, 3
2, 1
0, 1
2, 2
1, 3
2, 3
1, 3
3, 2
6, 1
6, 5
2, 2
3, 4
6, 3
2, 2
3, 2
3, 1
5, 4
6, 2
3, 2
5, 3
6, 3
15, 2
17, 7
13, 8
17, 10
25, 20
24, 17
15, 11
10, 16
11, 11
5, 10
10, 12
7, 8
6, 7
6, 9
2, 11
6, 6
3, 4
2, 9
4, 9
5, 7
3, 6
7, 7
9, 10
4, 13
7, 15
13, 17
6, 31
6, 36
8, 23
3, 22
8, 12
5, 13
5, 11
2, 7
3, 7
4, 5
9, 5
6, 4
7, 6
7, 10
11, 13
11, 12
8, 14
10, 17
17, 18
19, 23
20, 21
16, 32
20, 40
16, 34
19, 31
14, 26
22, 28
17, 31
17, 19
11, 21
16, 14
13, 8
11, 5
8, 17
15, 5
12, 8
11, 11
7, 7
3, 10
5, 9
7, 12
8, 11
8, 8
6, 2
6, 8
14, 9
16, 8
10, 11
20, 17
23, 24
12, 15
20, 23
28, 17
26, 17
25, 11
19, 13
13, 12
13, 10
15, 10
10, 17
12, 18
10, 15
4, 13
14, 19
6, 17
20, 26
19, 36
28, 28
31, 45
48, 48
36, 59
51, 71
48, 64
50, 69
64, 59
52, 48
57, 46
70, 32
55, 22
64, 19
82, 21
84, 10
121, 27
153, 29
162, 55
207, 109
246, 192
367, 370
566, 565
831, 937
1177, 1352
1606, 1761
2041, 2194
2389, 2355
2550, 2386
2428, 2146
2187, 1946
1765, 1545
1367, 1049
934, 657
595, 428
366, 267
188, 132
106, 60
61, 36
32, 21
20, 21
24, 16
21, 19
15, 19
21, 22
23, 21
25, 29
30, 30
36, 54
79, 102
101, 121
152, 157
191, 247
262, 307
310, 341
384, 381
375, 376
330, 312
291, 254
244, 220
191, 178
139, 107
94, 78
62, 44
41, 30
14, 13
16, 9
11, 8
15, 11
8, 6
13, 11
13, 12
18, 12
12, 18
17, 11
18, 13
12, 6
18, 15
6, 4
3, 8
12, 5
6, 8
1, 4
7, 7
4, 5
7, 5
7, 5
10, 4
5, 4
6, 3
4, 3
10, 6
5, 4
6, 2
7, 3
5, 3
7, 5
6, 3
6, 5
7, 4
12, 5
7, 9
9, 5
6, 6
5, 6
13, 8
6, 8
9, 5
12, 12
20, 9
13, 2
13, 6
18, 4
38, 5
21, 2
29, 5
29, 4
18, 6
17, 2
14, 4
10, 9
14, 3
12, 5
11, 6
4, 8
5, 2
7, 3
8, 3
4, 5
7, 6
4, 4
3, 2
3, 3
3, 2
3, 6
4, 2
5, 6
1, 1
3, 2
4, 5
5, 3
6, 4
3, 5
4, 1
4, 2
4, 9
3, 7
1, 2
3, 6
3, 7
7, 2
1, 4
3, 4
7, 5
1, 6
3, 12
2, 3
2, 4
2, 7
3, 6
4, 3
3, 2
6, 5
2, 9
6, 7
3, 6
5, 6
6, 2
5, 7
4, 5
5, 7
5, 2
2, 3
2, 4
3, 2
2, 3
7, 8
5, 3
1, 5
2, 3
4, 4
1, 3
4, 3
5, 5
3, 2
3, 3
0, 2
3, 2
1, 6
3, 2
3, 2
2, 5
1, 1
4, 4
4, 6
9, 2
3, 7
2, 2
1, 3
4, 0
4, 1
3, 3
1, 2
5, 5
5, 6
4, 0
4, 4
4, 3
3, 0
5, 3
2, 2
3, 2
6, 4
3, 3
0, 2
6, 3
5, 1
1, 1
2, 3
6, 3
2, 2
5, 3
3, 2
3, 2
3, 4
3, 1
2, 3
3, 2
1, 0
2, 6
1, 2
4, 2
1, 3
3, 2
2, 2
3, 4
2, 3
3, 2
1, 0
3, 1
1, 3
0, 3
1, 2
1, 1
2, 3
2, 4
1, 0
3, 6
1, 1
1, 3
3, 3
0, 2
3, 5
1, 1
4, 1
3, 0
4, 2
3, 3
2, 4
6, 0
3, 2
2, 3
2, 3
5, 1
2, 3
3, 1
1, 3
1, 1
2, 2
1, 3
3, 2
1, 1
2, 3
0, 2
0, 2
2, 3
6, 1
6, 2
4, 1
1, 3
0, 2
2, 4
4, 1
1, 0
0, 2
2, 1
1, 2
3, 0
6, 2
6, 0
4, 1
2, 1
2, 2
7, 2
3, 1
2, 4
4, 4
4, 6
6, 5
5, 6
3, 6
6, 3
1, 4
2, 3
1, 2
4, 1
6, 1
3, 1
0, 3
0, 0
1, 2
0, 0
2, 2
1, 1
1, 1
1, 0
0, 3
4, 2
1, 2
1, 1
1, 4
1, 0
0, 1
1, 3
3, 4
3, 5
2, 1
0, 0
1, 1
5, 1
6, 1
3, 3
1, 2
2, 1
2, 1
1, 1
3, 0
4, 2
2, 1
4, 1
2, 4
0, 0
1, 1
1, 2
0, 1
0, 1
1, 1
0, 2
0, 2
0, 1
2, 1
1, 0
1, 0
0, 0
2, 0
1, 1
0, 0
1, 1
1, 2
0, 0
1, 0
2, 0
3, 0
1, 1
1, 0
2, 0
3, 0
2, 0
0, 2
0, 2
1, 0
1, 1
0, 1
1, 0
1, 1
1, 1
0, 0
2, 0
0, 0
3, 0
0, 0
0, 1
0, 1
3, 0
1, 1
0, 1
0, 1
3, 0
0, 0
0, 0
2, 1
0, 0
1, 0
0, 2
2, 2
0, 3
3, 0
2, 4
1, 0
1, 0
1, 0
2, 1
0, 0
0, 0
0, 1
1, 0
1, 2
0, 2
0, 1
0, 0
0, 0
0, 0
1, 0
0, 0
2, 1
1, 0
0, 0
0, 0
0, 1
0, 1
1, 2
0, 0
0, 0
0, 1
0, 1
1, 0
0, 2
1, 2
0, 2
0, 1
0, 0
0, 2
0, 0
0, 0
0, 1
0, 1
0, 1
0, 0
1, 4
0, 2
0, 1
1, 1
0, 0
0, 0
0, 1
0, 0
0, 1
2, 1
0, 0
1, 0
0, 0
0, 0
2, 0
0, 1
1, 1
0, 0
1, 0
0, 0
1, 1
0, 0
0, 0
0, 1
0, 0
0, 1
1, 0
0, 0
0, 0
0, 0
0, 0
0, 0
1, 1
1, 1
1, 1
1, 1
0, 1
1, 0
0, 0
0, 0
0, 1
0, 0
2, 0
0, 0
0, 1
2, 0
0, 0
0, 0
0, 0
1, 1
0, 0
1, 0
0, 1
0, 1
0, 0
1, 0
2, 0
1, 0
0, 0
0, 0
0, 0
1, 0
0, 3
0, 0
0, 0
1, 1
0, 2
1, 0
0, 0
0, 0
0, 0
0, 0
0, 0
0, 0
0, 1
0, 0
0, 1
0, 0
1, 0
0, 1
0, 0
0, 2
0, 0
0, 1
0, 1
0, 0
0, 0
0, 0
0, 0
1, 0
0, 0
0, 1
0, 0
0, 1
0, 0
2, 0
0, 0
0, 0
1, 1
0, 0
0, 1
0, 0
1, 0
2, 0
1, 0
1, 0
1, 0
2, 0
0, 0
0, 0
0, 0
1, 1
0, 0
0, 0
1, 1
1, 0
0, 1
0, 1
0, 0
1, 1
0, 1
1, 0
0, 0
0, 0
0, 0
0, 0
0, 1
0, 0
0, 0
1, 1
0, 2
0, 1
0, 0
0, 1
0, 0
0, 0
0, 0
0, 0
0, 0
0, 0
0, 0
0, 0
0, 0
0, 0
1, 0
0, 0
0, 0
0, 0
1, 0
0, 0
1, 0
0, 0
0, 0
0, 0
0, 0
0, 0
0, 1
0, 0
0, 0
0, 0
0, 0
0, 0
0, 0
1, 0
0, 1
0, 0
0, 0
0, 2
0, 0
1, 0
0, 0
0, 0
0, 1
1, 0
1, 0
1, 0
0, 0
0, 0
0, 0
0, 1
0, 0
0, 0
3, 0
0, 0
0, 0
0, 0
0, 0
0, 0
0, 0
0, 0
0, 0
1, 0
0, 0
0, 0
0, 0
0, 0
0, 0
0, 0
0, 0
0, 0
0, 0
0, 0
0, 0
0, 0
0, 0
0, 0
0, 0
0, 0
0, 0
0, 0
0, 1
0, 0
0, 0
0, 0
0, 0
0, 0
0, 1
0, 0
0, 1
0, 0
0, 0
0, 0
0, 1
0, 0
0, 0
1, 0
0, 0
0, 0
0, 0
0, 1
0, 0
2, 0
1, 0
0, 0
0, 0
0, 0
0, 0
0, 0
0, 0
0, 0
0, 0
0, 0
0, 0
0, 1
0, 0
0, 0
0, 0
0, 0
0, 0
0, 0
0, 0
0, 0
0, 0
0, 0
0, 0
0, 0
0, 0
0, 0
0, 0
0, 0
0, 0
0, 0
0, 0
0, 0
0, 0
0, 0
0, 0
1, 0
0, 0
0, 0
0, 0
0, 0
0, 0
0, 0
0, 0
1, 0
0, 0
0, 0
0, 0
0, 0
0, 0
0, 0
0, 0
0, 0
0, 0
0, 0
0, 0
0, 0
0, 0
0, 0
0, 0
0, 0
0, 0
0, 0
0, 0
0, 0
0, 0
0, 0
0, 0
0, 0
0, 0
0, 0
0, 0
0, 0
0, 0
0, 0
0, 0
0, 0
0, 0
0, 0
0, 0
0, 0
0, 0
0, 0
0, 0
0, 0
0, 0
0, 0
0, 0
0, 0
0, 0
0, 0
0, 0
0, 0
0, 0
0, 0
0, 0
0, 0
0, 0
0, 0
0, 0
0, 0
0, 0
0, 0
0, 0
0, 0
0, 0
0, 0
0, 0
0, 0
0, 0
0, 0
0, 0
1, 0
0, 0
0, 0
0, 0
0, 0
0, 0
0, 0
0, 0
0, 0
0, 0
0, 0
0, 0
0, 0
0, 0
0, 0
0, 0
0, 0
0, 0
0, 0
0, 0
0, 0
0, 0
0, 0
0, 0
0, 0
0, 0
0, 0
0, 0
0, 0
0, 0
0, 0
0, 0
0, 0
0, 0
0, 0
0, 0
0, 0
0, 0
0, 0
0, 0
0, 0
0, 0
0, 0
0, 0
0, 0
0, 0
0, 0
0, 0
0, 0
0, 0
0, 0
0, 0
0, 0
0, 0
0, 0
0, 0
0, 1
0, 0
0, 0
0, 0
0, 0
0, 0
0, 0
0, 0
0, 0
0, 0
0, 0
0, 0
0, 0
0, 0
0, 0
0, 0
0, 0
0, 0
0, 0
0, 0
0, 0
0, 0
0, 0
0, 0
0, 0
0, 0
0, 0
0, 0
0, 0
0, 0
0, 0
0, 0
0, 0
0, 0
0, 0
0, 0
0, 0
0, 0
0, 0
0, 0
0, 0
0, 0
0, 0
0, 0
0, 0
0, 0
0, 0
0, 0
0, 0
0, 0
0, 0
0, 0
0, 0
0, 0
0, 0
0, 0
0, 0
0, 0
0, 0
0, 0
0, 0
0, 0
0, 0
0, 0
0, 0
0, 0
0, 0
0, 0
0, 0
0, 0
0, 0
0, 0
0, 0
0, 0
0, 0
0, 0
0, 0
0, 0
0, 0
0, 0
0, 0
0, 0
0, 0
0, 0
0, 0
0, 0
0, 0
0, 0
0, 0
0, 0
0, 0
0, 0
0, 0
0, 0
0, 0
0, 0
0, 0
0, 0
0, 0
0, 0
0, 0
0, 0
0, 0
0, 0
0, 0
0, 0
0, 0
0, 0
0, 0
0, 0
0, 0
0, 0
0, 0
0, 0
0, 0
0, 0
0, 0
0, 0
0, 0
0, 0
0, 0
0, 0
0, 0
0, 0
0, 0
0, 0
0, 0
0, 0
0, 0
0, 0
0, 0
0, 0
0, 0
0, 0
0, 0
0, 0
0, 0
0, 0
0, 0
0, 0
0, 0
0, 0
0, 0
0, 0
0, 0
0, 0
0, 0
0, 0
0, 0
0, 0
0, 0
0, 0
0, 0
0, 0
0, 0
0, 0
0, 0
0, 0
0, 0
0, 0
0, 0
0, 0
0, 0
0, 0
0, 0
0, 0
0, 0
0, 0
0, 0
0, 0
0, 0
0, 0
0, 0
0, 0
0, 0
0, 0
0, 0
0, 0
0, 0
0, 0
0, 0
0, 0
0, 0
0, 0
0, 0
0, 0
0, 0
0, 0
0, 0
0, 0
0, 0
0, 0
0, 0
0, 0
0, 0
0, 0
0, 0
0, 0
0, 0
0, 0
0, 0
0, 0
0, 0
0, 0
0, 0
0, 0
0, 0
0, 0
0, 0
0, 0
0, 0
0, 0
0, 0
0, 0
0, 0
0, 0
0, 0
0, 0
0, 0
0, 0
0, 0
0, 0
0, 0
0, 0
0, 0
0, 0
0, 0
0, 0
0, 0
0, 0
0, 0
0, 0
0, 0
0, 0
0, 0
0, 0
0, 0
0, 0
0, 0
0, 0
0, 0
0, 0
0, 0
0, 0
0, 0
0, 0
0, 0
0, 0
0, 0
0, 0
0, 0
0, 0
0, 0
0, 0
0, 0
0, 0
0, 0
0, 0
0, 0
0, 0
0, 0
0, 0
0, 0
0, 0
0, 0
0, 0
0, 0
0, 0
0, 0
0, 0
0, 0
0, 0
0, 0
0, 0
0, 0
0, 0
0, 0
0, 0
0, 0
0, 0
0, 0
0, 0
0, 0
0, 0
0, 0
#ENDOFDATA     end of spectrum data