File: host_upload/06-09-2024/ps_0852/dump3/ps__0852shot_2486.msa
#FORMAT      : EMSA/MAS spectral data file
#VERSION     : TC202v2.0 PIXL
#TITLE       : N/A
#DATE        :       Date in the format DD-MMM-YYYY, for example 07-JUL-2010
#TIME        :             The time of day at which the spectrum was recorded, in 24-hour format
#OWNER       : PIXL Flight Model       (PIXL will use this to indicate which instrument took the data.)
#NPOINTS     : 4096     Number of data points in the spectrum (This can be zero for configuration only files)
#NCOLUMNS    : 2     Number of data columns in the spectrum (This can be zero for configuration only files)
#XUNITS      : eV
#YUNITS      : COUNTS
#DATATYPE    : YY
#XPERCHAN    : 7.862, 7.881   eV per channel (separate by commas if more than one detector)
#OFFSET      : 18.5, -22.4         eV of first channel  (separate by commas if more than one detector
#SIGNALTYPE  : XRF
#YP_TEMP     : 2.588
#LIVETIME    : 8.55849, 8.56662   seconds (separate by commas if more than one detector)
#REALTIME    : 10, 10.0   seconds (separate by commas if more than one detector)
#SPECTRUM    : start of spectrum data
0, 0
0, 0
0, 0
0, 0
0, 0
0, 0
0, 0
0, 0
0, 0
0, 0
0, 0
0, 0
0, 0
0, 0
0, 0
0, 0
0, 0
0, 0
0, 0
0, 0
0, 0
0, 0
0, 0
0, 0
0, 0
0, 0
0, 0
0, 0
0, 0
0, 0
0, 1
0, 0
0, 0
0, 0
0, 0
0, 0
1, 0
1, 1
0, 2
2, 0
1, 5
1, 1
1, 3
4, 2
1, 0
2, 1
3, 2
3, 1
3, 3
10, 7
20, 9
47, 23
47, 27
65, 35
57, 46
53, 44
48, 36
32, 27
22, 12
14, 10
10, 3
2, 3
2, 3
4, 3
3, 2
7, 3
6, 5
13, 8
23, 9
43, 41
88, 64
184, 117
257, 181
373, 257
417, 288
433, 302
346, 255
304, 202
189, 135
140, 90
66, 53
34, 29
12, 14
20, 6
7, 3
4, 4
4, 2
2, 5
2, 0
2, 1
1, 1
2, 2
5, 2
9, 5
5, 4
6, 6
12, 3
6, 5
15, 14
13, 6
12, 13
13, 7
4, 4
7, 10
9, 7
7, 8
12, 4
13, 25
31, 24
41, 41
63, 35
75, 74
93, 76
104, 80
110, 83
85, 71
82, 90
76, 57
65, 59
47, 37
32, 29
40, 36
30, 24
27, 24
28, 28
20, 16
20, 16
10, 17
12, 12
14, 12
10, 7
9, 7
7, 5
2, 1
5, 2
6, 2
8, 4
10, 1
9, 1
8, 1
3, 2
6, 7
4, 2
3, 2
0, 1
2, 1
5, 3
4, 2
2, 6
12, 5
8, 8
20, 14
21, 20
47, 20
69, 49
93, 68
124, 73
147, 99
133, 88
99, 72
87, 72
80, 30
49, 34
27, 21
16, 7
25, 9
32, 11
34, 8
29, 9
58, 13
41, 17
50, 15
50, 17
38, 14
30, 18
38, 9
16, 15
14, 7
18, 8
11, 7
8, 4
13, 8
11, 6
10, 5
12, 4
7, 9
5, 7
9, 8
5, 3
9, 10
11, 9
18, 10
14, 13
16, 15
16, 18
16, 9
21, 11
20, 11
35, 21
22, 11
30, 9
44, 12
54, 12
77, 12
93, 4
91, 8
92, 9
103, 7
81, 7
58, 8
65, 3
35, 6
31, 8
10, 9
13, 3
9, 13
10, 7
5, 11
8, 8
5, 4
7, 13
11, 8
10, 13
7, 15
16, 24
22, 31
37, 43
35, 45
61, 57
68, 55
64, 67
65, 63
77, 55
58, 41
48, 33
36, 22
21, 14
17, 16
10, 8
16, 9
10, 7
11, 12
9, 8
16, 9
23, 12
26, 11
24, 26
51, 43
60, 46
73, 59
77, 49
77, 63
77, 58
79, 53
53, 39
52, 35
27, 24
26, 18
20, 21
17, 21
23, 16
35, 28
47, 53
93, 63
155, 168
273, 291
538, 497
828, 823
1217, 1112
1641, 1465
2128, 1827
2431, 2056
2685, 2030
2536, 1981
2326, 1680
1890, 1275
1314, 932
954, 623
627, 378
368, 214
198, 107
99, 63
55, 28
32, 23
24, 10
25, 8
21, 10
22, 12
22, 10
26, 18
38, 20
30, 35
50, 42
77, 76
108, 98
159, 133
206, 204
277, 241
329, 283
385, 292
382, 305
369, 275
327, 222
262, 203
202, 138
149, 98
92, 60
49, 43
33, 20
22, 9
14, 13
6, 11
7, 9
7, 4
12, 11
16, 11
16, 8
9, 15
12, 15
14, 10
13, 9
13, 8
12, 8
9, 7
9, 12
4, 6
3, 2
6, 3
3, 3
3, 2
6, 4
4, 4
5, 3
8, 2
5, 6
12, 9
12, 5
11, 2
15, 7
25, 6
31, 6
22, 8
23, 6
18, 10
28, 7
23, 9
20, 4
20, 6
16, 4
10, 5
7, 3
14, 2
6, 5
9, 4
10, 1
2, 4
3, 3
6, 2
9, 2
8, 7
4, 5
7, 5
3, 2
5, 3
4, 3
3, 2
7, 3
2, 7
4, 2
7, 6
5, 4
5, 3
5, 4
3, 2
6, 1
8, 3
3, 6
7, 4
5, 2
1, 0
2, 3
4, 5
3, 4
4, 3
5, 4
2, 7
6, 3
3, 2
3, 4
5, 5
6, 1
3, 4
3, 1
5, 6
2, 4
9, 1
2, 5
2, 6
5, 3
7, 1
4, 4
5, 2
3, 0
9, 3
5, 4
1, 3
6, 1
8, 4
11, 4
2, 1
5, 4
7, 3
10, 1
5, 1
10, 2
4, 1
4, 4
6, 1
5, 1
4, 1
6, 4
4, 4
6, 5
1, 1
3, 4
6, 5
5, 2
5, 1
5, 4
1, 0
4, 2
3, 2
4, 1
5, 0
2, 5
4, 3
4, 2
3, 1
5, 1
5, 1
6, 3
6, 1
7, 3
1, 1
5, 1
3, 1
3, 4
5, 1
3, 2
1, 2
2, 1
6, 3
5, 3
2, 5
5, 3
5, 0
4, 3
6, 1
3, 1
3, 3
3, 3
2, 3
3, 4
6, 2
6, 3
3, 2
1, 3
4, 2
2, 1
4, 9
3, 5
3, 2
0, 0
0, 1
2, 1
3, 1
0, 2
1, 7
1, 1
1, 3
2, 3
2, 6
4, 5
3, 5
5, 2
1, 1
1, 3
2, 4
3, 0
3, 1
1, 1
1, 2
3, 2
2, 2
2, 1
4, 3
2, 4
2, 3
0, 4
2, 4
0, 3
3, 5
2, 2
4, 3
3, 1
2, 3
3, 2
3, 1
3, 3
5, 2
5, 0
1, 4
3, 1
5, 3
2, 1
0, 2
6, 1
2, 1
3, 1
3, 1
2, 5
1, 3
2, 1
4, 1
0, 4
4, 3
2, 1
4, 1
1, 2
3, 3
6, 0
0, 4
3, 3
3, 2
4, 3
3, 1
5, 1
7, 3
10, 3
4, 0
4, 3
2, 3
4, 0
5, 4
4, 1
4, 5
6, 0
0, 2
4, 3
1, 0
2, 4
1, 1
1, 0
1, 1
3, 0
1, 3
2, 4
2, 1
2, 1
1, 2
2, 1
1, 1
5, 1
1, 0
1, 2
3, 3
1, 3
4, 1
0, 1
1, 0
2, 1
4, 5
0, 3
0, 0
0, 3
2, 3
4, 2
1, 1
0, 5
0, 0
2, 1
1, 1
1, 0
3, 1
1, 1
0, 2
2, 0
0, 1
1, 1
0, 0
0, 0
1, 0
0, 0
0, 0
0, 3
2, 2
2, 1
0, 0
1, 0
3, 1
1, 3
0, 0
1, 2
0, 2
2, 1
0, 0
3, 1
0, 1
3, 1
2, 1
3, 1
2, 0
0, 0
3, 0
0, 0
2, 1
2, 1
0, 0
3, 0
0, 0
0, 0
1, 0
2, 0
0, 0
1, 1
0, 0
1, 2
0, 0
1, 0
1, 0
1, 1
0, 0
2, 0
1, 1
1, 0
1, 3
1, 0
0, 0
1, 0
0, 3
1, 3
1, 0
0, 0
0, 0
2, 0
1, 1
0, 1
1, 0
1, 0
2, 2
2, 2
2, 1
1, 0
0, 0
0, 0
0, 1
0, 0
1, 0
0, 0
0, 0
0, 1
0, 1
0, 2
0, 1
0, 1
2, 0
0, 0
4, 1
1, 0
0, 0
0, 0
1, 2
0, 0
0, 0
1, 0
0, 0
0, 0
0, 0
2, 2
0, 1
0, 1
1, 1
0, 2
0, 1
0, 1
1, 1
0, 0
2, 0
1, 0
1, 0
1, 0
1, 0
1, 0
3, 1
1, 0
0, 2
0, 1
0, 1
1, 0
0, 1
0, 0
1, 1
0, 0
1, 0
0, 1
1, 0
1, 0
0, 0
1, 0
0, 1
0, 1
0, 0
0, 0
0, 1
0, 0
0, 1
1, 0
1, 0
0, 0
0, 1
2, 0
0, 1
0, 0
1, 0
1, 0
0, 0
0, 0
0, 1
0, 0
0, 0
0, 0
0, 0
0, 0
0, 0
0, 0
1, 1
1, 0
0, 0
1, 0
0, 0
1, 1
0, 0
0, 0
0, 0
0, 0
0, 0
0, 0
1, 0
1, 1
1, 0
0, 0
1, 0
0, 0
0, 1
0, 0
0, 0
0, 0
0, 0
0, 0
0, 0
0, 0
0, 0
1, 0
0, 0
0, 1
0, 0
0, 0
0, 0
0, 2
0, 0
0, 0
0, 0
0, 0
0, 0
0, 0
0, 0
0, 0
0, 0
1, 0
0, 0
1, 1
0, 0
0, 0
1, 0
0, 0
1, 0
0, 0
0, 0
0, 0
0, 2
0, 1
1, 0
0, 0
0, 0
0, 0
0, 0
0, 0
1, 0
0, 0
0, 0
0, 0
0, 1
0, 0
0, 1
0, 0
0, 1
0, 0
0, 1
1, 0
0, 0
0, 0
0, 0
0, 0
0, 0
0, 0
0, 1
0, 0
0, 0
0, 0
1, 0
0, 1
0, 0
1, 0
1, 0
0, 0
0, 0
0, 0
0, 0
0, 0
0, 0
0, 0
0, 0
0, 0
0, 0
0, 0
0, 0
0, 0
0, 0
0, 0
0, 0
0, 0
0, 0
0, 0
0, 0
0, 0
0, 0
1, 0
0, 0
0, 2
0, 2
0, 0
1, 0
0, 0
0, 0
1, 0
1, 0
0, 0
1, 0
0, 0
0, 0
1, 0
0, 0
0, 0
1, 0
0, 0
0, 0
0, 0
0, 0
0, 0
0, 0
0, 0
0, 0
0, 0
0, 0
0, 1
0, 0
0, 0
0, 0
0, 0
0, 0
0, 0
0, 0
1, 0
0, 0
0, 0
0, 0
1, 0
0, 0
0, 0
0, 0
0, 0
0, 0
0, 0
0, 0
0, 0
0, 0
0, 0
0, 0
1, 0
0, 0
0, 0
0, 0
0, 0
0, 0
0, 0
0, 0
0, 0
0, 0
0, 0
0, 0
0, 0
0, 0
0, 0
0, 0
0, 0
0, 0
0, 0
0, 0
0, 0
0, 0
0, 0
0, 0
0, 0
0, 0
0, 0
0, 0
0, 0
0, 0
0, 0
0, 0
0, 0
0, 0
0, 0
0, 0
0, 0
0, 0
0, 0
0, 0
0, 1
0, 0
0, 0
0, 0
0, 0
0, 0
0, 0
0, 0
0, 0
0, 0
0, 0
0, 1
0, 0
0, 0
0, 0
0, 0
0, 0
0, 0
0, 0
1, 0
0, 0
0, 0
0, 0
0, 0
0, 1
0, 0
0, 0
0, 0
0, 0
0, 0
0, 0
0, 0
0, 0
0, 0
0, 0
1, 0
0, 0
0, 0
0, 0
0, 0
0, 0
0, 0
0, 0
0, 0
0, 0
0, 0
0, 0
0, 0
0, 0
0, 0
0, 0
0, 0
0, 0
0, 0
0, 0
0, 0
0, 0
0, 0
0, 0
0, 0
0, 0
0, 0
0, 0
0, 0
0, 0
0, 0
0, 0
0, 0
0, 0
0, 0
0, 0
0, 0
0, 0
0, 0
0, 0
0, 0
0, 0
0, 0
0, 0
0, 0
0, 0
0, 0
0, 0
0, 0
0, 0
0, 0
0, 0
0, 0
0, 0
0, 0
0, 0
0, 0
0, 0
0, 0
0, 0
0, 0
0, 0
0, 0
0, 0
0, 0
0, 0
0, 0
0, 0
0, 0
0, 0
0, 0
0, 0
0, 0
0, 0
0, 0
0, 0
0, 0
0, 0
0, 0
0, 0
0, 0
0, 0
0, 0
0, 0
0, 0
0, 0
0, 0
0, 0
0, 0
0, 0
0, 0
0, 0
0, 0
0, 0
0, 0
0, 0
0, 0
0, 0
0, 0
0, 0
0, 0
0, 0
0, 0
0, 0
0, 0
0, 0
0, 0
0, 0
0, 0
0, 0
0, 0
0, 0
0, 0
0, 0
0, 0
0, 0
0, 0
0, 0
0, 0
0, 0
0, 0
0, 0
0, 0
0, 0
0, 0
0, 0
0, 0
0, 0
0, 0
0, 0
0, 0
0, 0
0, 0
0, 0
0, 0
0, 0
0, 0
0, 0
0, 0
0, 0
0, 0
0, 0
0, 0
0, 0
0, 0
0, 0
0, 0
0, 0
0, 0
0, 0
0, 0
0, 0
0, 0
0, 0
0, 0
0, 0
0, 0
0, 0
0, 0
0, 0
0, 0
0, 0
0, 0
0, 0
0, 0
0, 0
0, 0
0, 0
0, 0
0, 0
0, 0
0, 0
0, 0
0, 0
0, 0
0, 0
0, 0
0, 0
0, 0
0, 0
0, 0
0, 0
0, 0
0, 0
0, 0
0, 0
0, 0
0, 0
0, 0
0, 0
0, 0
0, 0
0, 0
0, 0
0, 0
0, 0
0, 0
0, 0
0, 0
0, 0
0, 0
0, 0
0, 0
0, 0
0, 0
0, 0
0, 0
0, 0
0, 0
0, 0
0, 0
0, 0
0, 0
0, 0
0, 0
0, 0
0, 0
0, 0
0, 0
0, 0
0, 0
0, 0
0, 0
0, 0
0, 0
0, 0
0, 0
0, 0
0, 0
0, 0
0, 0
0, 0
0, 0
0, 0
0, 0
0, 0
0, 0
0, 0
0, 0
0, 0
0, 0
0, 0
0, 0
0, 0
0, 0
0, 0
0, 0
0, 0
0, 0
0, 0
0, 0
0, 0
0, 0
0, 0
0, 0
0, 0
0, 0
0, 0
0, 0
0, 0
0, 0
0, 0
0, 0
0, 0
0, 0
0, 0
0, 0
0, 0
0, 0
0, 0
0, 0
0, 0
0, 0
0, 0
0, 0
0, 0
0, 0
0, 0
0, 0
0, 0
0, 0
0, 0
0, 0
0, 0
0, 0
0, 0
0, 0
0, 0
0, 0
0, 0
0, 0
0, 0
0, 0
0, 0
0, 0
0, 0
0, 0
0, 0
0, 0
0, 0
0, 0
0, 0
0, 0
0, 0
0, 0
0, 0
0, 0
0, 0
0, 0
0, 0
0, 0
0, 0
0, 0
0, 0
0, 0
0, 0
0, 0
0, 0
0, 0
0, 0
0, 0
0, 0
0, 0
0, 0
0, 0
0, 0
0, 0
0, 0
0, 0
0, 0
0, 0
0, 0
0, 0
0, 0
0, 0
0, 0
0, 0
0, 0
0, 0
0, 0
0, 0
0, 0
0, 0
0, 0
0, 0
0, 0
0, 0
0, 0
0, 0
0, 0
0, 0
0, 0
0, 0
0, 0
0, 0
0, 0
0, 0
0, 0
0, 0
0, 0
0, 0
0, 0
0, 0
0, 0
0, 0
0, 0
0, 0
0, 0
0, 0
0, 0
0, 0
0, 0
0, 0
0, 0
0, 0
0, 0
0, 0
0, 0
0, 0
0, 0
0, 0
0, 0
0, 0
0, 0
0, 0
0, 0
0, 0
0, 0
0, 0
0, 0
0, 0
0, 0
0, 0
#ENDOFDATA     end of spectrum data