File: host_upload/06-09-2024/ps_0852/dump3/ps__0852shot_2306.msa
#FORMAT      : EMSA/MAS spectral data file
#VERSION     : TC202v2.0 PIXL
#TITLE       : N/A
#DATE        :       Date in the format DD-MMM-YYYY, for example 07-JUL-2010
#TIME        :             The time of day at which the spectrum was recorded, in 24-hour format
#OWNER       : PIXL Flight Model       (PIXL will use this to indicate which instrument took the data.)
#NPOINTS     : 4096     Number of data points in the spectrum (This can be zero for configuration only files)
#NCOLUMNS    : 2     Number of data columns in the spectrum (This can be zero for configuration only files)
#XUNITS      : eV
#YUNITS      : COUNTS
#DATATYPE    : YY
#XPERCHAN    : 7.862, 7.881   eV per channel (separate by commas if more than one detector)
#OFFSET      : 18.5, -22.4         eV of first channel  (separate by commas if more than one detector
#SIGNALTYPE  : XRF
#YP_TEMP     : 2.235
#LIVETIME    : 8.55769, 8.56562   seconds (separate by commas if more than one detector)
#REALTIME    : 10, 10.0   seconds (separate by commas if more than one detector)
#SPECTRUM    : start of spectrum data
0, 0
0, 0
0, 0
0, 0
0, 0
0, 0
0, 0
0, 0
0, 0
0, 0
0, 0
0, 0
0, 0
0, 0
0, 0
0, 0
0, 0
0, 0
0, 0
0, 0
0, 0
0, 0
0, 0
0, 0
0, 0
0, 0
0, 0
0, 0
0, 0
0, 0
0, 0
0, 0
0, 0
1, 0
0, 0
0, 0
0, 0
2, 1
0, 1
1, 1
0, 2
1, 2
4, 0
2, 0
3, 3
0, 2
2, 5
4, 1
6, 9
8, 11
16, 34
38, 45
31, 61
61, 77
70, 75
70, 78
43, 58
52, 38
34, 25
14, 11
5, 10
5, 8
6, 6
2, 10
8, 7
5, 8
4, 7
12, 7
23, 18
49, 60
85, 96
147, 200
270, 318
342, 398
400, 470
418, 460
393, 427
280, 312
178, 213
127, 135
80, 77
46, 38
19, 15
4, 10
8, 7
1, 3
0, 2
4, 1
1, 5
2, 4
1, 1
0, 1
0, 4
1, 2
5, 1
5, 2
1, 1
5, 3
5, 7
4, 6
6, 3
1, 4
6, 2
5, 0
2, 1
4, 5
7, 8
9, 8
17, 12
12, 23
20, 19
27, 43
38, 41
40, 40
36, 43
41, 35
47, 37
37, 44
24, 21
26, 22
28, 26
25, 31
27, 17
22, 15
14, 13
14, 22
6, 14
9, 22
8, 14
9, 9
3, 5
6, 5
5, 6
2, 3
7, 6
2, 2
3, 2
1, 0
3, 2
5, 1
0, 0
1, 5
1, 4
1, 4
3, 2
5, 1
4, 1
1, 2
7, 4
3, 2
13, 7
15, 11
21, 17
21, 11
33, 20
39, 42
47, 43
42, 49
34, 45
32, 26
26, 24
21, 22
17, 14
25, 7
16, 4
32, 5
38, 5
32, 6
32, 7
37, 3
21, 7
18, 9
23, 7
14, 8
13, 9
4, 7
3, 10
8, 5
4, 9
7, 2
4, 8
5, 3
6, 6
5, 1
2, 1
5, 3
3, 2
4, 3
3, 6
8, 3
7, 8
5, 8
7, 8
10, 14
7, 16
11, 16
20, 17
5, 17
10, 20
16, 15
11, 17
6, 15
9, 9
7, 11
16, 7
12, 9
8, 5
11, 6
12, 5
12, 5
18, 8
14, 8
13, 5
14, 12
16, 21
9, 23
8, 25
17, 43
11, 32
20, 29
8, 42
8, 24
4, 20
6, 12
7, 13
6, 11
12, 14
21, 17
13, 14
15, 11
24, 14
29, 18
19, 9
14, 12
22, 10
10, 8
18, 4
12, 8
10, 8
9, 5
12, 9
6, 5
8, 7
10, 10
14, 15
11, 28
26, 24
34, 43
35, 52
61, 62
53, 58
52, 73
65, 62
44, 40
38, 55
35, 33
22, 27
13, 16
15, 10
16, 17
20, 23
23, 23
38, 59
69, 101
135, 213
237, 365
404, 619
662, 959
1089, 1394
1372, 1861
1699, 2186
1926, 2565
2155, 2546
2093, 2391
1828, 2047
1609, 1611
1145, 1161
857, 724
528, 437
306, 259
170, 139
99, 73
64, 39
32, 20
30, 20
16, 17
18, 22
19, 13
18, 17
24, 22
25, 32
35, 40
47, 67
55, 93
85, 133
127, 200
170, 255
221, 304
307, 357
318, 375
326, 360
293, 329
297, 296
225, 234
183, 154
106, 113
88, 82
39, 41
27, 32
13, 9
6, 15
4, 7
8, 7
4, 7
7, 13
9, 6
10, 15
13, 7
12, 17
7, 8
9, 22
15, 12
11, 7
7, 18
7, 12
5, 13
7, 8
7, 14
13, 8
6, 2
15, 4
14, 4
12, 5
18, 4
25, 9
29, 2
19, 8
23, 4
17, 10
12, 4
9, 3
6, 9
7, 6
5, 17
4, 9
8, 10
6, 6
6, 6
8, 10
4, 7
10, 6
6, 5
7, 14
4, 4
4, 4
3, 9
3, 3
5, 4
19, 6
6, 5
10, 3
8, 6
7, 6
3, 6
8, 6
3, 7
2, 5
5, 6
3, 4
1, 2
1, 7
1, 3
2, 7
2, 5
5, 7
1, 3
5, 6
5, 3
5, 6
2, 5
3, 4
4, 5
7, 6
7, 6
5, 3
2, 3
2, 5
2, 2
2, 2
3, 8
6, 3
0, 2
1, 5
1, 7
3, 4
0, 7
8, 4
4, 4
9, 5
8, 1
2, 0
3, 3
5, 4
9, 4
2, 6
8, 5
4, 4
7, 3
5, 5
5, 3
1, 6
3, 4
3, 3
2, 2
4, 3
6, 2
5, 3
6, 4
0, 5
4, 1
4, 1
4, 3
5, 1
5, 2
5, 2
2, 2
4, 5
5, 2
5, 3
5, 2
3, 4
4, 1
8, 3
3, 1
5, 6
8, 3
6, 3
6, 3
11, 5
9, 4
5, 7
2, 3
2, 3
5, 3
3, 1
2, 4
4, 3
4, 3
4, 0
5, 1
4, 3
2, 6
3, 2
3, 6
3, 1
1, 3
2, 2
1, 3
0, 4
0, 5
4, 4
2, 3
2, 4
1, 6
2, 1
2, 3
1, 11
2, 5
1, 5
1, 3
1, 7
3, 4
4, 6
0, 6
4, 6
1, 3
4, 6
2, 4
0, 4
5, 2
0, 2
3, 0
1, 2
2, 4
0, 4
0, 2
5, 2
1, 3
2, 3
2, 5
2, 3
1, 5
1, 1
2, 5
3, 1
0, 3
2, 1
3, 1
1, 3
0, 2
1, 7
1, 1
1, 3
2, 4
1, 3
3, 2
2, 4
2, 4
4, 3
2, 4
1, 0
3, 0
2, 2
1, 1
2, 0
3, 2
2, 0
1, 1
3, 1
2, 5
0, 5
0, 1
1, 5
3, 5
2, 1
2, 3
0, 0
1, 1
0, 5
0, 1
0, 2
1, 5
2, 1
1, 5
3, 2
1, 1
0, 5
0, 9
0, 3
6, 5
4, 3
3, 3
7, 5
7, 8
0, 4
5, 11
3, 5
3, 4
2, 3
2, 1
3, 1
2, 0
1, 0
3, 1
1, 0
4, 0
0, 1
0, 2
0, 1
2, 1
2, 0
1, 2
3, 1
0, 5
3, 0
1, 0
0, 1
1, 1
0, 1
2, 2
1, 3
1, 1
0, 1
2, 0
1, 0
1, 0
0, 1
2, 0
3, 1
0, 1
2, 1
1, 0
0, 0
0, 3
3, 1
0, 1
1, 1
1, 1
1, 2
1, 0
1, 2
0, 1
2, 1
1, 0
2, 0
0, 3
1, 1
2, 2
0, 0
1, 0
1, 2
3, 0
1, 0
0, 0
2, 1
2, 0
1, 3
1, 0
1, 1
1, 0
2, 0
0, 0
0, 0
1, 1
1, 1
3, 0
0, 0
1, 0
0, 1
0, 0
0, 1
1, 2
1, 3
2, 0
1, 1
1, 2
4, 1
2, 0
0, 2
1, 3
3, 0
0, 1
0, 1
1, 4
0, 0
0, 0
1, 0
1, 0
0, 2
0, 1
1, 3
0, 1
0, 1
2, 2
0, 1
2, 1
1, 2
0, 0
2, 0
1, 1
1, 0
0, 0
0, 4
0, 2
0, 0
1, 1
0, 3
1, 0
0, 1
0, 0
1, 2
0, 1
2, 0
1, 1
0, 1
2, 0
2, 0
0, 0
0, 1
0, 1
1, 0
0, 4
0, 0
1, 0
1, 1
1, 0
0, 0
1, 0
1, 0
1, 0
0, 0
0, 0
0, 0
0, 0
0, 0
0, 0
0, 0
0, 0
0, 1
2, 0
0, 0
0, 1
1, 0
1, 0
0, 1
0, 1
0, 1
0, 1
0, 1
1, 1
0, 1
1, 0
0, 0
0, 0
0, 0
0, 0
0, 0
0, 0
0, 0
1, 2
0, 0
0, 0
1, 0
0, 0
0, 0
0, 1
0, 0
0, 0
0, 1
0, 1
0, 0
1, 1
0, 1
0, 0
0, 0
0, 0
1, 0
0, 0
0, 0
2, 1
0, 1
0, 0
0, 1
1, 0
0, 0
0, 1
0, 1
0, 0
0, 1
0, 0
0, 0
0, 1
0, 0
0, 1
0, 1
0, 0
0, 0
0, 0
0, 0
0, 0
1, 0
0, 0
0, 0
1, 0
0, 0
0, 1
1, 0
0, 0
1, 0
0, 0
0, 1
0, 1
0, 0
0, 0
0, 1
0, 0
1, 0
0, 0
0, 2
0, 0
0, 0
0, 0
0, 0
0, 0
0, 0
0, 0
0, 0
0, 0
1, 0
0, 0
1, 0
1, 0
0, 0
1, 0
1, 0
0, 0
0, 1
0, 0
0, 1
1, 0
0, 2
1, 0
0, 0
0, 0
0, 0
0, 1
0, 0
0, 0
0, 0
0, 0
0, 0
2, 1
0, 0
0, 1
0, 0
0, 0
0, 0
0, 0
0, 0
1, 1
0, 0
0, 0
0, 0
0, 1
0, 0
0, 0
0, 0
0, 0
0, 0
0, 0
1, 0
1, 0
0, 0
0, 2
0, 0
0, 0
0, 0
0, 1
0, 0
0, 0
1, 2
0, 0
0, 0
0, 0
2, 0
0, 0
0, 0
0, 0
0, 0
0, 0
0, 1
0, 0
0, 0
0, 0
0, 0
0, 0
0, 1
0, 0
0, 0
0, 0
0, 0
0, 0
0, 0
0, 0
0, 0
0, 0
0, 0
1, 0
0, 0
1, 0
0, 0
0, 1
1, 0
0, 0
0, 0
0, 0
1, 0
0, 0
0, 0
0, 0
2, 0
0, 0
1, 0
0, 0
0, 0
0, 0
0, 0
0, 0
0, 0
0, 0
0, 0
0, 0
0, 0
0, 0
0, 0
0, 0
0, 0
0, 0
0, 0
0, 0
0, 0
0, 0
0, 0
0, 1
0, 1
1, 0
0, 0
0, 1
0, 0
0, 0
0, 0
1, 0
0, 0
0, 0
0, 2
0, 0
0, 0
1, 0
0, 0
0, 0
0, 0
0, 0
1, 0
0, 0
0, 0
0, 0
0, 0
0, 0
0, 0
0, 0
0, 0
0, 0
0, 0
0, 0
0, 0
0, 0
0, 0
0, 0
0, 1
0, 0
0, 0
0, 0
0, 0
0, 0
0, 0
0, 0
0, 0
0, 0
0, 0
0, 0
0, 0
0, 0
0, 0
0, 0
0, 0
0, 0
0, 0
0, 0
0, 0
0, 0
0, 0
0, 0
0, 0
0, 0
0, 0
0, 0
0, 0
0, 0
0, 0
0, 0
0, 0
0, 0
0, 0
0, 0
0, 0
0, 0
0, 0
0, 0
0, 0
0, 0
0, 0
0, 0
0, 0
0, 0
0, 0
0, 0
0, 0
0, 0
0, 0
0, 0
0, 0
0, 0
0, 0
0, 1
0, 0
0, 0
0, 0
0, 0
0, 0
0, 0
0, 0
0, 0
0, 0
0, 0
0, 0
0, 0
0, 0
0, 0
0, 0
0, 0
0, 0
0, 0
0, 0
0, 0
0, 0
0, 0
0, 0
0, 0
0, 0
0, 0
0, 0
0, 0
0, 0
0, 0
0, 0
0, 0
0, 0
0, 0
0, 0
0, 0
0, 0
0, 0
0, 0
0, 0
0, 0
0, 0
0, 0
0, 0
0, 0
0, 0
0, 0
0, 0
0, 0
0, 0
0, 0
0, 0
0, 0
0, 0
0, 0
0, 0
0, 0
0, 0
0, 0
0, 0
0, 0
0, 0
0, 0
0, 0
0, 0
0, 0
0, 0
0, 1
0, 0
0, 0
0, 0
0, 0
0, 0
0, 0
0, 0
0, 0
0, 0
0, 0
0, 0
0, 0
0, 0
0, 0
0, 0
0, 0
0, 0
0, 0
0, 0
0, 0
0, 0
0, 0
0, 0
0, 0
0, 0
0, 0
0, 0
0, 0
0, 0
0, 0
0, 0
0, 0
0, 0
0, 0
0, 0
0, 0
0, 0
0, 0
0, 0
0, 0
0, 0
0, 0
0, 0
0, 0
0, 0
0, 0
0, 0
0, 0
0, 0
0, 0
0, 0
0, 0
0, 0
0, 0
0, 0
0, 0
0, 0
0, 0
0, 0
1, 0
0, 0
0, 0
0, 0
0, 0
0, 0
0, 0
0, 0
0, 0
0, 0
0, 0
0, 0
0, 0
0, 0
0, 0
0, 0
0, 0
0, 0
0, 0
0, 0
0, 0
0, 0
0, 0
0, 0
0, 0
0, 0
0, 0
0, 0
0, 0
0, 0
0, 0
0, 0
0, 0
0, 0
0, 0
0, 0
0, 0
0, 0
0, 0
0, 0
0, 0
0, 0
0, 0
0, 0
0, 0
0, 0
0, 0
0, 0
0, 0
0, 0
0, 0
0, 0
0, 0
0, 0
0, 0
0, 0
0, 0
0, 0
0, 0
0, 0
0, 0
0, 0
0, 0
0, 0
0, 0
0, 0
0, 0
0, 0
0, 0
0, 0
0, 0
0, 0
0, 0
0, 0
0, 0
0, 0
0, 0
0, 0
0, 0
0, 0
0, 0
0, 0
0, 0
0, 0
0, 0
0, 0
0, 0
0, 0
0, 0
0, 0
0, 0
0, 0
0, 0
0, 0
0, 0
0, 0
0, 0
0, 0
0, 0
0, 0
0, 0
0, 0
0, 0
0, 0
0, 0
0, 0
0, 0
0, 0
0, 0
0, 0
0, 0
0, 0
0, 0
0, 0
0, 0
0, 0
0, 0
0, 0
0, 0
0, 0
0, 0
0, 0
0, 0
0, 0
0, 0
0, 0
0, 0
0, 0
0, 0
0, 0
0, 0
0, 0
0, 0
0, 0
0, 0
0, 0
0, 0
0, 0
0, 0
0, 0
0, 0
0, 0
0, 0
0, 0
0, 0
0, 0
0, 0
0, 0
0, 0
0, 0
0, 0
0, 0
0, 0
0, 0
0, 0
0, 0
0, 0
0, 0
0, 0
0, 0
0, 0
0, 0
0, 0
0, 0
0, 0
0, 0
0, 0
0, 0
0, 0
0, 0
0, 0
0, 0
0, 0
0, 0
0, 0
0, 0
0, 0
0, 0
0, 0
0, 0
0, 0
0, 0
0, 0
0, 0
0, 0
0, 0
0, 0
0, 0
0, 0
0, 0
0, 0
0, 0
0, 0
0, 0
0, 0
0, 0
0, 0
0, 0
0, 0
0, 0
0, 0
0, 0
0, 0
0, 0
0, 0
0, 0
0, 0
0, 0
0, 0
0, 0
0, 0
0, 0
0, 0
0, 0
0, 0
0, 0
0, 0
0, 0
0, 0
0, 0
0, 0
0, 0
0, 0
0, 0
0, 0
0, 0
0, 0
0, 0
0, 0
0, 0
0, 0
0, 0
0, 0
0, 0
0, 0
0, 0
0, 0
0, 0
0, 0
0, 0
0, 0
0, 0
0, 0
0, 0
0, 0
0, 0
0, 0
0, 0
0, 0
0, 0
0, 0
0, 0
0, 0
0, 0
0, 0
#ENDOFDATA     end of spectrum data