File: host_upload/06-09-2024/ps_0852/dump3/ps__0852shot_2142.msa
#FORMAT      : EMSA/MAS spectral data file
#VERSION     : TC202v2.0 PIXL
#TITLE       : N/A
#DATE        :       Date in the format DD-MMM-YYYY, for example 07-JUL-2010
#TIME        :             The time of day at which the spectrum was recorded, in 24-hour format
#OWNER       : PIXL Flight Model       (PIXL will use this to indicate which instrument took the data.)
#NPOINTS     : 4096     Number of data points in the spectrum (This can be zero for configuration only files)
#NCOLUMNS    : 2     Number of data columns in the spectrum (This can be zero for configuration only files)
#XUNITS      : eV
#YUNITS      : COUNTS
#DATATYPE    : YY
#XPERCHAN    : 7.862, 7.881   eV per channel (separate by commas if more than one detector)
#OFFSET      : 18.5, -22.4         eV of first channel  (separate by commas if more than one detector
#SIGNALTYPE  : XRF
#YP_TEMP     : 2.524
#LIVETIME    : 8.55929, 8.56589   seconds (separate by commas if more than one detector)
#REALTIME    : 10, 10.0   seconds (separate by commas if more than one detector)
#SPECTRUM    : start of spectrum data
0, 0
0, 0
0, 0
0, 0
0, 0
0, 0
0, 0
0, 0
0, 0
0, 0
0, 0
0, 0
0, 0
0, 0
0, 0
0, 0
0, 0
0, 0
0, 0
0, 0
0, 0
0, 0
0, 0
0, 0
0, 0
0, 0
0, 0
0, 0
0, 0
0, 0
0, 0
0, 0
0, 0
0, 0
0, 0
0, 0
0, 0
1, 0
1, 1
0, 0
3, 0
2, 1
0, 0
2, 1
2, 1
1, 0
1, 0
4, 2
2, 9
13, 10
15, 23
33, 32
50, 49
65, 67
67, 68
75, 65
58, 39
29, 31
28, 27
11, 7
7, 7
7, 5
5, 3
2, 3
7, 7
7, 1
9, 6
19, 11
25, 28
46, 47
103, 106
164, 192
260, 264
336, 349
387, 400
416, 440
382, 361
276, 301
181, 191
117, 125
76, 76
47, 33
19, 22
9, 11
7, 10
3, 6
2, 2
0, 1
3, 3
3, 2
3, 2
0, 2
2, 0
3, 2
3, 1
3, 3
6, 3
4, 2
3, 7
7, 4
4, 3
2, 9
5, 4
3, 6
5, 2
4, 8
9, 6
11, 9
9, 25
27, 22
41, 35
37, 55
48, 59
41, 54
71, 56
70, 62
70, 45
37, 47
39, 32
37, 22
38, 29
20, 19
15, 27
24, 33
17, 18
13, 26
13, 20
10, 12
11, 20
4, 19
9, 15
5, 12
3, 7
5, 5
4, 3
7, 3
3, 3
6, 3
2, 3
5, 2
3, 3
2, 0
6, 1
8, 2
1, 2
5, 4
2, 2
3, 2
6, 1
14, 3
11, 2
23, 12
29, 14
29, 20
50, 31
51, 39
52, 37
54, 49
46, 44
35, 32
36, 22
26, 20
15, 8
17, 12
16, 10
12, 6
17, 5
17, 5
21, 5
16, 6
26, 4
19, 9
11, 17
17, 10
11, 9
17, 5
14, 4
12, 5
13, 5
9, 2
10, 5
6, 2
11, 2
11, 7
4, 1
10, 3
7, 3
10, 8
12, 6
6, 4
3, 9
6, 8
12, 12
10, 10
11, 19
14, 19
11, 14
11, 12
20, 9
30, 6
22, 6
38, 9
38, 13
65, 9
70, 8
67, 3
71, 4
87, 5
64, 4
54, 8
57, 8
30, 15
17, 16
10, 30
17, 39
6, 41
11, 48
3, 64
6, 60
6, 61
4, 62
5, 45
5, 34
6, 29
11, 22
9, 23
18, 16
16, 24
16, 18
11, 17
26, 21
17, 19
23, 24
21, 15
18, 11
22, 11
15, 13
18, 8
17, 10
11, 9
18, 9
19, 4
14, 6
15, 9
23, 17
20, 18
27, 29
30, 37
49, 40
57, 69
60, 67
69, 54
48, 77
58, 40
47, 42
41, 25
28, 29
19, 13
17, 24
18, 19
12, 20
28, 26
35, 51
87, 114
131, 174
241, 343
458, 594
738, 982
1050, 1366
1534, 1787
1811, 2060
2234, 2389
2207, 2436
2226, 2310
1993, 1979
1681, 1491
1309, 1084
861, 768
606, 482
341, 275
212, 125
102, 72
64, 52
32, 25
24, 25
20, 15
17, 11
16, 12
23, 20
17, 16
33, 21
38, 32
44, 47
78, 87
80, 123
133, 169
198, 257
263, 273
301, 313
357, 358
303, 359
333, 309
295, 295
219, 209
178, 163
133, 134
95, 83
59, 56
35, 36
28, 23
15, 13
11, 7
7, 4
12, 14
12, 4
11, 13
10, 13
11, 21
14, 15
8, 25
9, 11
6, 10
7, 17
6, 14
1, 11
4, 10
4, 10
7, 5
4, 7
6, 8
7, 6
5, 1
9, 6
4, 8
10, 5
14, 6
13, 12
13, 7
12, 7
22, 4
12, 12
25, 13
21, 6
19, 7
29, 6
16, 6
16, 11
8, 6
13, 10
10, 8
7, 8
7, 5
10, 8
7, 5
5, 6
8, 5
7, 3
7, 0
5, 1
2, 3
4, 6
5, 5
4, 5
4, 0
3, 4
4, 1
3, 7
4, 2
2, 5
2, 3
5, 6
5, 4
3, 4
4, 3
3, 5
2, 8
3, 4
7, 6
3, 2
7, 3
8, 2
3, 4
5, 6
5, 4
3, 3
8, 5
1, 2
2, 5
4, 5
2, 4
3, 1
2, 7
2, 6
4, 6
4, 3
5, 5
7, 5
0, 5
2, 9
1, 3
6, 1
3, 8
7, 3
7, 5
2, 5
8, 4
3, 5
6, 8
8, 5
11, 5
1, 2
3, 1
8, 2
2, 5
3, 6
3, 6
2, 6
2, 0
2, 1
3, 2
1, 4
0, 1
3, 2
2, 3
2, 3
1, 5
2, 4
1, 3
5, 1
3, 3
5, 2
1, 3
2, 4
2, 3
3, 3
2, 2
1, 4
1, 3
1, 6
5, 7
1, 2
5, 3
1, 0
6, 1
4, 4
3, 5
4, 3
3, 2
0, 1
4, 1
4, 1
3, 1
1, 4
4, 3
1, 2
4, 3
0, 2
3, 7
2, 0
1, 2
2, 4
0, 1
3, 2
3, 4
2, 2
7, 4
2, 4
0, 3
3, 7
2, 3
0, 2
3, 2
2, 0
3, 2
2, 7
0, 3
4, 1
4, 2
4, 7
4, 2
3, 4
3, 3
1, 2
3, 1
3, 1
2, 1
1, 3
1, 3
1, 2
3, 0
0, 1
1, 5
0, 1
0, 5
1, 1
2, 4
0, 1
0, 2
1, 4
2, 1
0, 4
1, 3
2, 3
4, 4
0, 1
1, 4
2, 2
2, 1
1, 4
4, 2
3, 2
5, 2
0, 1
2, 2
2, 1
2, 2
1, 4
1, 2
1, 1
0, 1
6, 0
5, 3
3, 1
2, 1
4, 0
4, 2
2, 1
0, 2
3, 2
0, 4
2, 2
2, 1
2, 0
4, 1
2, 1
2, 2
3, 1
3, 2
2, 4
2, 4
5, 1
5, 4
7, 3
5, 4
7, 5
2, 2
2, 4
3, 5
1, 5
2, 0
0, 2
4, 0
1, 2
1, 2
1, 5
2, 0
1, 4
2, 2
4, 1
3, 1
0, 0
1, 1
1, 3
1, 2
2, 3
1, 1
2, 0
3, 3
2, 1
2, 1
0, 0
1, 3
1, 3
2, 1
3, 0
1, 2
2, 2
1, 0
2, 0
3, 2
1, 1
1, 2
0, 2
1, 3
3, 0
1, 0
1, 0
1, 0
1, 0
1, 1
3, 0
1, 0
1, 2
2, 1
0, 1
0, 2
1, 1
1, 2
1, 1
0, 3
1, 1
0, 0
0, 0
0, 0
2, 0
0, 1
1, 0
0, 0
0, 1
2, 3
0, 1
0, 1
2, 0
1, 2
1, 0
0, 0
3, 0
0, 1
1, 0
0, 2
2, 0
0, 0
0, 0
1, 0
0, 0
0, 0
3, 2
0, 0
1, 0
2, 1
2, 0
0, 1
1, 0
1, 0
0, 1
1, 1
0, 0
0, 0
0, 1
3, 0
0, 1
1, 1
1, 0
0, 2
1, 1
0, 0
2, 0
0, 0
1, 1
1, 0
1, 0
0, 1
0, 1
0, 1
2, 1
1, 0
2, 0
1, 2
1, 1
0, 1
1, 0
0, 1
0, 0
0, 0
0, 0
0, 0
0, 1
1, 0
1, 0
0, 0
0, 1
0, 0
0, 0
0, 1
0, 1
1, 1
0, 1
1, 0
0, 0
0, 2
1, 0
0, 0
0, 0
1, 0
0, 0
0, 1
1, 0
1, 1
2, 1
0, 0
1, 0
1, 0
0, 0
1, 1
0, 0
0, 0
0, 0
0, 0
2, 0
0, 0
0, 0
0, 0
0, 1
0, 0
0, 0
0, 0
1, 0
1, 0
0, 1
1, 2
0, 0
1, 0
0, 2
0, 1
0, 0
2, 1
0, 0
0, 1
0, 1
1, 0
1, 0
0, 0
0, 0
0, 0
1, 1
1, 0
0, 0
0, 0
0, 1
1, 0
0, 0
0, 1
0, 0
0, 0
1, 0
0, 0
0, 0
1, 0
1, 0
0, 0
1, 0
0, 1
1, 1
0, 1
1, 0
0, 0
0, 0
0, 0
0, 2
0, 1
1, 0
1, 1
0, 1
0, 0
2, 0
0, 0
0, 1
1, 1
0, 0
1, 0
0, 0
0, 0
0, 0
0, 0
0, 0
0, 0
0, 0
0, 0
0, 0
0, 0
1, 0
0, 0
0, 0
0, 0
0, 1
0, 2
0, 0
2, 1
0, 0
1, 0
1, 0
0, 1
0, 0
0, 0
0, 0
1, 0
0, 1
0, 2
0, 0
0, 0
0, 0
0, 0
0, 0
0, 0
1, 1
0, 0
0, 0
0, 0
0, 0
0, 1
0, 0
0, 0
0, 0
1, 0
0, 0
0, 0
0, 0
0, 0
0, 0
1, 0
0, 1
0, 0
0, 1
1, 0
0, 0
1, 0
0, 0
0, 0
0, 0
0, 1
0, 0
0, 0
0, 1
0, 0
0, 0
0, 1
0, 0
1, 0
1, 0
0, 0
0, 0
0, 0
0, 0
1, 0
0, 1
1, 0
0, 0
0, 0
0, 0
0, 0
0, 1
0, 0
0, 0
0, 0
0, 0
0, 0
0, 1
0, 0
0, 0
0, 0
0, 0
0, 0
1, 0
0, 0
0, 0
0, 0
1, 2
1, 0
0, 0
0, 0
0, 1
0, 0
0, 1
1, 0
0, 0
0, 0
0, 1
0, 1
0, 0
0, 0
0, 0
0, 0
0, 1
0, 0
0, 0
1, 0
0, 0
0, 0
0, 0
0, 0
0, 0
0, 0
0, 0
0, 0
0, 0
0, 0
0, 0
0, 0
0, 0
0, 1
0, 0
0, 0
0, 0
0, 0
0, 0
0, 0
0, 0
0, 0
0, 0
1, 0
0, 0
0, 0
0, 1
0, 0
0, 0
0, 0
0, 1
0, 0
0, 0
0, 0
0, 0
0, 0
0, 0
0, 0
0, 0
0, 0
0, 0
0, 0
0, 0
0, 0
0, 0
0, 0
0, 0
0, 0
0, 0
0, 1
0, 0
0, 0
0, 0
0, 0
0, 0
0, 0
0, 0
0, 0
0, 0
0, 0
0, 0
0, 0
0, 0
1, 0
0, 0
0, 0
0, 0
0, 0
0, 0
0, 0
0, 0
0, 0
0, 0
0, 0
0, 0
0, 0
0, 0
0, 0
0, 0
0, 0
0, 0
0, 0
0, 0
0, 0
0, 0
0, 0
0, 0
0, 0
0, 0
0, 0
0, 0
0, 0
0, 0
0, 0
0, 0
0, 0
0, 0
0, 0
0, 0
0, 0
0, 0
0, 0
0, 0
0, 0
0, 0
0, 0
0, 0
0, 0
0, 0
0, 0
1, 0
0, 0
0, 0
0, 0
0, 0
0, 0
0, 1
0, 0
0, 0
0, 0
0, 0
0, 0
0, 0
0, 0
0, 0
1, 0
0, 0
0, 0
0, 0
0, 0
0, 0
0, 0
0, 0
0, 0
0, 0
0, 0
0, 0
0, 0
0, 0
0, 0
1, 0
0, 0
0, 0
0, 0
0, 0
0, 0
0, 0
0, 0
0, 0
0, 0
0, 0
0, 0
0, 0
0, 0
0, 0
0, 0
0, 0
0, 0
0, 0
0, 0
0, 0
0, 0
0, 0
0, 0
0, 0
0, 0
0, 0
0, 0
0, 0
0, 0
0, 0
0, 0
0, 0
0, 0
0, 0
0, 0
0, 0
0, 0
0, 0
0, 0
0, 0
0, 0
0, 0
0, 0
0, 0
0, 0
0, 0
0, 0
0, 0
0, 0
0, 0
0, 0
0, 0
0, 0
0, 0
0, 0
0, 0
0, 0
0, 0
0, 0
0, 0
0, 0
0, 0
0, 0
0, 0
0, 0
0, 0
0, 0
1, 0
0, 0
0, 0
0, 0
0, 0
0, 0
0, 0
0, 0
0, 0
0, 0
0, 0
0, 0
0, 0
0, 0
0, 0
0, 0
0, 0
0, 0
0, 0
0, 0
0, 0
0, 0
0, 0
0, 0
0, 0
0, 0
0, 0
0, 0
0, 0
0, 0
0, 0
0, 0
0, 0
0, 0
0, 0
0, 0
0, 0
0, 0
0, 0
0, 0
0, 0
0, 0
0, 0
0, 0
0, 0
0, 0
0, 0
0, 0
0, 0
0, 0
0, 0
0, 0
0, 0
0, 0
0, 0
0, 0
0, 0
0, 0
0, 0
0, 0
0, 0
0, 0
0, 0
0, 0
0, 0
0, 0
0, 0
0, 0
0, 0
0, 0
0, 0
0, 0
0, 0
0, 0
0, 0
0, 0
0, 0
0, 0
0, 0
0, 0
0, 0
0, 0
0, 0
0, 0
0, 0
0, 0
0, 0
0, 0
0, 0
0, 0
0, 0
0, 0
0, 0
0, 0
0, 0
0, 0
0, 0
0, 0
0, 0
0, 0
0, 0
0, 0
0, 0
0, 0
0, 0
0, 0
0, 0
0, 0
0, 0
0, 0
0, 0
0, 0
0, 0
0, 0
0, 0
0, 0
0, 0
0, 0
0, 0
0, 0
0, 0
0, 0
0, 0
0, 0
0, 0
0, 0
0, 0
0, 0
0, 0
0, 0
0, 0
0, 0
0, 0
0, 0
0, 0
0, 0
0, 0
0, 0
0, 0
0, 0
0, 0
0, 0
0, 0
0, 0
0, 0
0, 0
0, 0
0, 0
0, 0
0, 0
0, 0
0, 0
0, 0
0, 0
0, 0
0, 0
0, 0
0, 0
0, 0
0, 0
0, 0
0, 0
0, 0
0, 0
0, 0
0, 0
0, 0
0, 0
0, 0
0, 0
0, 0
0, 0
0, 0
0, 0
0, 0
0, 0
0, 0
0, 0
0, 0
0, 0
0, 0
0, 0
0, 0
0, 0
0, 0
0, 0
0, 0
0, 0
0, 0
0, 0
0, 0
0, 0
0, 0
0, 0
0, 0
0, 0
0, 0
0, 0
0, 0
0, 0
0, 0
0, 0
0, 0
0, 0
0, 0
0, 0
0, 0
0, 0
0, 0
0, 0
0, 0
0, 0
0, 0
0, 0
0, 0
0, 0
0, 0
0, 0
0, 0
0, 0
0, 0
0, 0
0, 0
0, 0
0, 0
0, 0
0, 0
0, 0
0, 0
0, 0
0, 0
0, 0
0, 0
0, 0
0, 0
0, 0
0, 0
0, 0
0, 0
0, 0
0, 0
0, 0
0, 0
0, 0
0, 0
0, 0
0, 0
0, 0
0, 0
0, 0
0, 0
0, 0
0, 0
0, 0
0, 0
0, 0
0, 0
0, 0
0, 0
0, 0
0, 0
0, 0
0, 0
0, 0
0, 0
0, 0
0, 0
0, 0
0, 0
0, 0
0, 0
0, 0
0, 0
0, 0
0, 0
0, 0
0, 0
0, 0
0, 0
0, 0
0, 0
0, 0
#ENDOFDATA     end of spectrum data