File: host_upload/06-09-2024/ps_0852/dump3/ps__0852shot_2049.msa
#FORMAT      : EMSA/MAS spectral data file
#VERSION     : TC202v2.0 PIXL
#TITLE       : N/A
#DATE        :       Date in the format DD-MMM-YYYY, for example 07-JUL-2010
#TIME        :             The time of day at which the spectrum was recorded, in 24-hour format
#OWNER       : PIXL Flight Model       (PIXL will use this to indicate which instrument took the data.)
#NPOINTS     : 4096     Number of data points in the spectrum (This can be zero for configuration only files)
#NCOLUMNS    : 2     Number of data columns in the spectrum (This can be zero for configuration only files)
#XUNITS      : eV
#YUNITS      : COUNTS
#DATATYPE    : YY
#XPERCHAN    : 7.862, 7.881   eV per channel (separate by commas if more than one detector)
#OFFSET      : 18.5, -22.4         eV of first channel  (separate by commas if more than one detector
#SIGNALTYPE  : XRF
#YP_TEMP     : 2.332
#LIVETIME    : 8.56346, 8.60147   seconds (separate by commas if more than one detector)
#REALTIME    : 10, 10.0   seconds (separate by commas if more than one detector)
#SPECTRUM    : start of spectrum data
0, 0
0, 0
0, 0
0, 0
0, 0
0, 0
0, 0
0, 0
0, 0
0, 0
0, 0
0, 0
0, 0
0, 0
0, 0
0, 0
0, 0
0, 0
0, 0
0, 0
0, 0
0, 0
0, 0
0, 0
0, 0
0, 0
0, 0
0, 0
0, 0
0, 0
0, 0
0, 0
2, 0
0, 0
1, 1
0, 0
1, 3
0, 4
1, 7
1, 8
0, 9
0, 13
1, 17
2, 12
3, 12
1, 10
1, 4
2, 4
4, 7
11, 16
21, 23
44, 47
66, 63
86, 68
83, 75
81, 67
63, 53
51, 33
29, 23
19, 11
14, 7
6, 3
4, 3
3, 7
3, 4
1, 4
9, 5
15, 13
29, 22
38, 52
107, 107
182, 195
259, 308
365, 341
445, 429
425, 372
384, 329
346, 302
230, 207
117, 114
68, 69
48, 38
25, 20
12, 12
7, 8
2, 1
3, 1
1, 1
0, 0
0, 4
1, 3
0, 1
2, 3
2, 2
2, 1
2, 0
2, 5
4, 10
1, 6
2, 1
3, 6
2, 7
8, 9
2, 12
1, 12
3, 21
3, 22
2, 57
4, 68
5, 156
13, 276
15, 420
20, 620
31, 811
30, 931
22, 986
21, 899
26, 766
17, 590
18, 364
21, 212
17, 105
12, 59
12, 35
9, 21
11, 6
8, 5
12, 13
6, 2
4, 7
8, 5
4, 3
4, 6
3, 3
5, 1
1, 3
2, 2
1, 3
3, 1
1, 6
1, 5
0, 1
2, 1
2, 1
0, 1
3, 1
2, 1
0, 2
2, 2
2, 1
6, 1
4, 1
6, 4
8, 3
12, 11
10, 18
13, 9
15, 15
10, 10
16, 15
8, 7
11, 13
6, 8
7, 6
2, 5
2, 3
2, 2
6, 5
1, 2
5, 8
4, 6
3, 6
4, 7
8, 7
4, 6
6, 15
7, 8
11, 12
4, 6
14, 10
13, 10
9, 11
6, 9
5, 10
5, 8
4, 10
5, 7
5, 8
9, 7
2, 5
6, 4
9, 4
11, 9
7, 8
16, 10
8, 6
18, 17
20, 11
16, 10
26, 9
34, 9
38, 13
36, 10
33, 15
27, 6
24, 20
20, 22
23, 16
11, 12
9, 13
12, 12
10, 8
7, 8
7, 5
3, 8
6, 2
3, 4
5, 6
7, 1
2, 1
3, 4
5, 7
3, 4
5, 12
13, 13
11, 11
11, 16
14, 11
16, 26
26, 24
22, 14
10, 17
15, 15
11, 18
15, 15
4, 11
9, 15
11, 15
13, 9
15, 7
25, 24
18, 22
16, 28
19, 42
29, 51
40, 67
39, 83
36, 66
33, 99
62, 87
58, 86
56, 63
56, 71
62, 49
48, 52
34, 29
33, 23
16, 16
27, 18
21, 14
20, 23
20, 35
49, 68
68, 85
148, 205
284, 355
476, 602
792, 895
1131, 1316
1551, 1718
2022, 2098
2193, 2265
2413, 2489
2291, 2275
2092, 1912
1701, 1563
1334, 1117
888, 733
603, 454
383, 259
192, 125
110, 78
58, 37
25, 19
16, 20
13, 20
15, 21
11, 20
13, 32
13, 25
18, 42
32, 41
70, 48
68, 94
113, 128
128, 164
200, 227
240, 268
287, 350
372, 327
353, 364
358, 329
308, 276
259, 230
214, 159
105, 127
78, 89
63, 47
33, 40
20, 46
14, 54
5, 46
2, 33
7, 37
13, 28
8, 23
13, 25
9, 18
7, 20
9, 18
7, 14
3, 12
6, 8
4, 4
5, 4
5, 2
5, 4
1, 4
3, 2
5, 5
1, 6
6, 3
1, 7
1, 5
4, 5
0, 5
5, 6
4, 5
5, 7
3, 6
3, 2
4, 8
0, 13
2, 19
4, 14
2, 26
2, 33
4, 42
16, 44
2, 42
8, 29
6, 34
4, 41
5, 30
13, 22
9, 18
11, 12
17, 8
8, 5
6, 4
11, 3
13, 6
18, 1
11, 4
3, 3
5, 6
7, 6
2, 6
6, 4
2, 8
8, 3
3, 5
1, 2
2, 2
2, 3
3, 3
3, 5
9, 4
3, 4
8, 1
1, 7
4, 5
0, 8
2, 10
4, 9
1, 8
3, 8
2, 9
3, 4
5, 6
2, 5
5, 6
2, 6
4, 3
1, 3
8, 5
6, 2
5, 3
7, 4
2, 2
6, 3
10, 4
12, 1
14, 4
17, 0
3, 3
6, 6
11, 4
10, 3
8, 6
7, 4
8, 4
3, 4
3, 5
7, 5
4, 2
5, 4
1, 7
2, 1
3, 5
3, 1
3, 6
4, 2
3, 2
1, 0
0, 3
2, 0
3, 3
0, 5
3, 4
3, 7
2, 1
2, 6
3, 0
1, 2
4, 0
3, 1
3, 2
5, 3
5, 1
2, 1
8, 2
5, 3
8, 2
5, 3
6, 7
7, 3
6, 4
6, 1
4, 1
11, 2
6, 2
8, 1
7, 3
5, 0
3, 1
4, 2
5, 3
2, 1
2, 0
2, 1
2, 3
1, 4
3, 2
0, 3
1, 5
4, 2
1, 1
3, 5
1, 3
3, 3
2, 1
1, 1
3, 2
3, 3
5, 3
1, 1
2, 3
2, 0
2, 5
3, 3
3, 4
1, 0
2, 3
0, 6
1, 4
0, 2
0, 4
2, 2
3, 5
1, 11
1, 3
2, 5
3, 2
3, 2
1, 3
0, 4
1, 1
4, 2
2, 1
1, 1
2, 2
1, 4
4, 3
1, 3
4, 4
3, 1
1, 1
2, 0
0, 2
2, 0
0, 2
1, 1
0, 4
2, 0
0, 1
3, 2
0, 3
4, 2
0, 4
1, 2
2, 1
3, 2
2, 0
1, 4
0, 4
1, 1
2, 0
0, 5
2, 1
2, 1
1, 1
1, 0
4, 0
6, 0
3, 1
1, 2
4, 2
6, 4
6, 4
6, 5
4, 3
4, 3
1, 10
2, 3
2, 6
3, 2
4, 0
2, 1
3, 2
3, 2
1, 3
1, 2
1, 2
1, 2
1, 1
2, 3
1, 2
2, 4
1, 3
3, 2
2, 2
1, 2
2, 1
3, 1
1, 1
3, 1
1, 0
2, 1
2, 0
0, 2
0, 1
2, 1
2, 1
1, 2
3, 1
3, 1
3, 4
1, 1
1, 1
2, 2
2, 2
2, 1
2, 1
1, 2
3, 1
2, 3
0, 4
1, 4
0, 1
1, 1
2, 7
1, 2
1, 1
1, 1
0, 3
0, 1
0, 4
0, 5
1, 1
0, 4
0, 6
0, 1
0, 0
0, 0
1, 0
1, 2
0, 1
2, 1
1, 0
0, 0
1, 1
2, 0
1, 0
0, 0
1, 2
0, 3
2, 1
1, 0
2, 0
1, 1
1, 0
0, 1
3, 0
0, 0
0, 1
2, 3
1, 0
2, 0
3, 1
1, 0
2, 0
0, 0
2, 1
1, 1
0, 0
0, 0
0, 0
3, 0
1, 0
1, 0
2, 0
1, 1
2, 0
0, 0
1, 1
1, 1
0, 0
0, 1
0, 1
1, 0
0, 0
0, 0
1, 0
0, 0
0, 1
1, 0
0, 0
0, 0
0, 0
0, 0
1, 2
2, 2
1, 0
1, 0
1, 0
1, 1
2, 1
1, 1
2, 0
0, 0
1, 0
0, 1
0, 0
0, 0
2, 0
2, 0
3, 0
0, 0
1, 1
1, 1
0, 0
0, 0
0, 0
1, 1
0, 0
0, 1
0, 1
1, 0
0, 0
1, 0
1, 2
0, 0
1, 0
0, 0
0, 1
0, 0
1, 1
0, 1
1, 0
0, 0
0, 0
0, 0
0, 0
1, 1
1, 0
0, 0
0, 1
0, 0
0, 1
0, 0
1, 1
0, 1
0, 0
0, 0
1, 0
0, 0
0, 1
1, 0
0, 0
1, 1
1, 0
0, 0
1, 0
1, 1
0, 0
0, 0
0, 0
1, 2
1, 1
0, 0
0, 0
0, 0
0, 0
0, 0
0, 0
0, 2
1, 1
0, 0
0, 0
0, 0
0, 0
0, 0
0, 1
1, 1
1, 0
0, 1
0, 0
1, 0
1, 1
0, 0
0, 0
0, 0
0, 0
1, 0
1, 1
0, 0
0, 0
1, 0
0, 0
0, 0
0, 0
1, 1
1, 0
1, 0
0, 0
2, 2
0, 1
0, 0
1, 1
0, 0
0, 1
0, 0
0, 1
0, 0
0, 1
0, 1
0, 0
0, 0
0, 1
0, 1
0, 0
0, 0
0, 0
1, 0
0, 0
0, 1
0, 0
1, 0
0, 0
0, 0
0, 1
0, 0
0, 2
1, 0
1, 0
1, 0
0, 0
1, 0
0, 0
0, 0
0, 1
0, 1
0, 1
0, 0
1, 0
1, 0
0, 0
0, 0
0, 1
0, 0
0, 0
0, 0
0, 0
1, 0
0, 0
0, 0
0, 0
0, 0
1, 0
1, 0
0, 1
0, 0
1, 0
0, 0
0, 0
0, 1
0, 0
1, 0
0, 0
0, 0
0, 0
0, 0
0, 0
0, 0
1, 0
0, 0
0, 0
1, 0
0, 0
0, 0
0, 0
0, 0
0, 0
0, 0
0, 1
0, 0
0, 0
1, 0
0, 0
1, 0
0, 0
0, 0
0, 1
1, 0
0, 1
0, 0
0, 0
0, 1
0, 0
0, 0
0, 0
0, 0
0, 0
0, 0
0, 0
0, 0
0, 0
0, 0
0, 0
0, 0
1, 1
0, 0
0, 0
1, 0
0, 0
0, 0
0, 0
0, 0
0, 0
0, 0
0, 1
0, 0
0, 0
0, 0
0, 0
1, 0
0, 0
0, 0
0, 1
0, 0
0, 0
0, 0
0, 0
0, 0
0, 0
0, 0
0, 1
0, 0
0, 0
0, 0
0, 1
0, 1
0, 0
0, 0
0, 0
0, 0
0, 0
0, 0
0, 0
0, 0
0, 0
1, 0
0, 0
0, 0
0, 0
0, 0
0, 0
0, 0
0, 0
0, 0
0, 0
1, 0
0, 0
0, 0
0, 0
0, 0
0, 0
0, 0
0, 0
0, 0
0, 0
0, 0
0, 0
0, 0
0, 0
0, 0
0, 0
0, 0
0, 0
0, 0
0, 0
0, 0
0, 0
0, 0
0, 0
0, 0
0, 0
0, 0
0, 0
0, 0
0, 0
0, 0
0, 0
0, 0
0, 1
0, 0
0, 0
0, 0
0, 0
0, 0
0, 0
0, 0
0, 0
0, 0
0, 0
0, 0
0, 0
0, 0
0, 0
0, 0
0, 0
0, 0
0, 0
1, 0
0, 0
0, 0
0, 0
0, 0
0, 0
0, 0
0, 0
0, 0
0, 0
1, 0
0, 0
0, 0
0, 0
0, 0
0, 0
0, 0
0, 0
0, 0
0, 0
0, 0
0, 0
0, 0
0, 0
0, 0
0, 0
0, 0
0, 0
0, 0
0, 0
0, 0
0, 0
0, 0
0, 0
0, 0
0, 0
0, 0
0, 0
0, 0
0, 0
0, 0
0, 0
0, 0
0, 0
0, 0
0, 0
0, 0
0, 0
0, 0
0, 0
0, 0
0, 0
0, 0
0, 0
0, 0
0, 0
0, 0
0, 0
0, 0
0, 0
0, 0
0, 0
0, 0
0, 0
0, 0
0, 0
0, 0
0, 0
0, 0
0, 0
0, 0
0, 0
0, 0
0, 0
0, 0
0, 0
0, 0
0, 0
0, 0
0, 0
0, 0
0, 0
0, 0
0, 0
0, 0
0, 0
0, 0
0, 0
0, 0
0, 0
0, 0
0, 0
0, 0
0, 0
0, 0
0, 0
0, 0
0, 0
0, 0
0, 0
0, 0
0, 0
0, 0
0, 0
0, 0
0, 0
0, 0
0, 0
0, 0
0, 0
0, 0
0, 0
0, 0
0, 0
0, 0
0, 0
0, 0
0, 0
0, 0
0, 0
0, 0
0, 0
0, 0
0, 0
0, 0
0, 0
0, 0
0, 0
0, 0
0, 0
0, 0
0, 0
0, 0
0, 0
0, 0
0, 0
0, 0
0, 0
0, 0
0, 0
0, 0
0, 0
0, 0
0, 0
0, 0
0, 0
0, 0
0, 0
0, 0
0, 0
0, 0
0, 0
0, 0
0, 0
0, 0
0, 0
0, 0
0, 0
0, 0
0, 0
0, 0
0, 0
0, 0
0, 0
0, 0
0, 0
0, 0
0, 0
0, 0
0, 0
0, 0
0, 0
0, 0
0, 0
0, 0
0, 0
0, 0
0, 0
0, 0
0, 0
0, 0
0, 0
0, 0
0, 0
0, 0
0, 0
0, 0
0, 0
0, 0
0, 0
0, 0
0, 0
0, 0
0, 0
0, 0
0, 0
0, 0
0, 0
0, 0
0, 0
0, 0
0, 0
0, 0
0, 0
0, 0
0, 0
0, 0
0, 0
0, 0
0, 0
0, 0
0, 0
0, 0
0, 0
0, 0
0, 0
0, 0
0, 0
0, 0
0, 0
0, 0
0, 0
0, 0
0, 0
0, 0
0, 0
0, 0
0, 0
0, 0
0, 0
0, 0
0, 0
0, 0
0, 0
0, 0
0, 0
0, 0
0, 0
0, 0
0, 0
0, 0
0, 0
0, 0
0, 0
0, 0
0, 0
0, 0
0, 0
0, 0
0, 0
0, 0
0, 0
0, 0
0, 0
0, 0
0, 0
0, 0
0, 0
0, 0
0, 0
0, 0
0, 0
0, 0
0, 0
0, 0
0, 0
0, 0
0, 0
0, 0
0, 0
0, 0
0, 0
0, 0
0, 0
0, 0
0, 0
0, 0
0, 0
0, 0
0, 0
0, 0
0, 0
0, 0
0, 0
0, 0
0, 0
0, 0
0, 0
0, 0
0, 0
0, 0
0, 0
0, 0
0, 0
0, 0
0, 0
0, 0
0, 0
0, 0
0, 0
0, 0
0, 0
0, 0
0, 0
0, 0
0, 0
0, 0
0, 0
0, 0
0, 0
0, 0
0, 0
0, 0
0, 0
0, 0
0, 0
0, 0
0, 0
0, 0
0, 0
0, 0
0, 0
0, 0
0, 0
0, 0
0, 0
0, 0
0, 0
0, 0
0, 0
0, 0
0, 0
0, 0
0, 0
0, 0
0, 0
0, 0
0, 0
0, 0
0, 0
0, 0
0, 0
0, 0
0, 0
0, 0
0, 0
0, 0
0, 0
0, 0
0, 0
0, 0
0, 0
0, 0
0, 0
0, 0
0, 0
0, 0
0, 0
0, 0
0, 0
0, 0
0, 0
0, 0
0, 0
0, 0
0, 0
0, 0
0, 0
0, 0
0, 0
0, 0
0, 0
0, 0
0, 0
0, 0
0, 0
0, 0
0, 0
0, 0
0, 0
0, 0
0, 0
0, 0
0, 0
0, 0
0, 0
0, 0
0, 0
0, 0
0, 0
0, 0
0, 0
#ENDOFDATA     end of spectrum data