File: host_upload/06-09-2024/ps_0852/dump3/ps__0852shot_2152.msa
#FORMAT      : EMSA/MAS spectral data file
#VERSION     : TC202v2.0 PIXL
#TITLE       : N/A
#DATE        :       Date in the format DD-MMM-YYYY, for example 07-JUL-2010
#TIME        :             The time of day at which the spectrum was recorded, in 24-hour format
#OWNER       : PIXL Flight Model       (PIXL will use this to indicate which instrument took the data.)
#NPOINTS     : 4096     Number of data points in the spectrum (This can be zero for configuration only files)
#NCOLUMNS    : 2     Number of data columns in the spectrum (This can be zero for configuration only files)
#XUNITS      : eV
#YUNITS      : COUNTS
#DATATYPE    : YY
#XPERCHAN    : 7.862, 7.881   eV per channel (separate by commas if more than one detector)
#OFFSET      : 18.5, -22.4         eV of first channel  (separate by commas if more than one detector
#SIGNALTYPE  : XRF
#YP_TEMP     : 2.556
#LIVETIME    : 8.5693, 8.54591   seconds (separate by commas if more than one detector)
#REALTIME    : 10, 10.0   seconds (separate by commas if more than one detector)
#SPECTRUM    : start of spectrum data
0, 0
0, 0
0, 0
0, 0
0, 0
0, 0
0, 0
0, 0
0, 0
0, 0
0, 0
0, 0
0, 0
0, 0
0, 0
0, 0
0, 0
0, 0
0, 0
0, 0
0, 0
0, 0
0, 0
0, 0
0, 0
0, 0
0, 0
0, 0
0, 0
0, 0
0, 0
0, 0
0, 0
0, 0
0, 1
1, 1
0, 0
0, 1
0, 1
3, 1
1, 1
0, 2
2, 0
3, 3
1, 0
0, 2
3, 2
3, 0
5, 7
11, 12
22, 18
46, 35
58, 53
79, 68
87, 77
76, 66
64, 38
51, 38
32, 26
16, 15
11, 10
8, 5
4, 1
7, 3
9, 5
12, 8
14, 7
9, 6
24, 17
43, 50
105, 98
179, 156
281, 235
374, 324
453, 385
455, 370
361, 347
302, 274
226, 182
141, 115
84, 61
41, 31
19, 18
10, 8
6, 3
1, 5
3, 1
2, 2
1, 2
5, 3
3, 4
0, 0
0, 0
3, 1
3, 3
5, 6
11, 12
10, 10
14, 11
14, 9
18, 12
8, 10
5, 6
8, 9
7, 8
6, 23
5, 17
6, 25
9, 12
15, 17
16, 28
41, 38
32, 41
42, 41
39, 44
49, 53
44, 44
43, 44
26, 26
39, 29
29, 29
26, 20
27, 23
23, 17
24, 19
21, 18
14, 12
13, 9
10, 8
6, 11
8, 7
7, 5
5, 2
5, 3
2, 5
3, 4
2, 2
3, 1
2, 0
5, 3
1, 4
3, 3
6, 1
3, 2
5, 0
1, 5
2, 2
0, 1
6, 4
2, 2
5, 4
5, 3
12, 10
15, 5
24, 13
20, 17
22, 17
15, 17
21, 19
15, 12
20, 13
20, 5
11, 4
5, 3
5, 4
5, 4
6, 3
3, 4
7, 7
12, 4
5, 10
4, 4
2, 9
6, 8
8, 9
7, 9
5, 16
7, 16
11, 20
8, 14
7, 16
10, 10
9, 14
8, 6
4, 8
8, 3
3, 5
6, 5
6, 6
8, 6
12, 8
12, 10
10, 17
9, 14
8, 19
14, 14
23, 15
18, 16
14, 22
14, 23
11, 19
15, 8
10, 12
13, 14
12, 6
6, 5
12, 2
8, 4
9, 4
6, 4
7, 6
6, 8
11, 11
12, 10
12, 9
6, 3
10, 6
13, 5
16, 3
10, 16
14, 5
18, 12
16, 7
15, 5
13, 12
23, 11
31, 10
32, 15
55, 19
60, 14
45, 13
61, 19
53, 12
52, 12
50, 9
35, 7
46, 9
29, 8
30, 9
29, 9
28, 6
15, 7
25, 4
13, 10
13, 17
15, 23
25, 31
37, 34
53, 47
49, 52
72, 53
56, 73
57, 56
54, 46
49, 41
36, 39
23, 45
29, 26
26, 32
21, 20
28, 36
31, 34
48, 49
87, 100
144, 190
285, 318
486, 586
784, 850
1202, 1219
1657, 1583
1991, 1949
2419, 2153
2503, 2252
2530, 2068
2147, 1764
1924, 1409
1425, 1034
1008, 718
600, 414
416, 233
247, 147
140, 82
73, 31
46, 38
47, 30
43, 20
34, 17
34, 22
44, 13
37, 14
47, 28
48, 38
64, 54
77, 85
103, 137
160, 148
202, 226
271, 261
348, 313
402, 329
415, 347
388, 307
319, 293
258, 218
221, 161
127, 98
115, 67
63, 27
40, 19
16, 17
12, 12
16, 11
8, 6
6, 16
10, 11
12, 15
13, 10
15, 10
17, 11
22, 11
6, 12
11, 6
8, 3
15, 7
7, 8
6, 6
7, 7
8, 4
2, 5
4, 5
2, 2
4, 5
8, 4
6, 5
4, 5
2, 1
4, 3
6, 5
1, 3
5, 1
8, 3
6, 4
2, 5
8, 4
7, 7
12, 4
2, 8
7, 4
4, 4
6, 8
3, 8
8, 10
7, 9
13, 5
6, 9
1, 11
10, 13
5, 4
1, 11
9, 4
7, 4
3, 2
5, 3
9, 3
8, 11
6, 1
5, 3
6, 7
2, 9
4, 2
5, 3
3, 3
2, 1
3, 3
8, 4
5, 2
7, 4
3, 6
5, 3
4, 3
7, 3
10, 7
5, 4
4, 5
2, 5
2, 2
2, 3
1, 2
6, 8
1, 5
4, 7
1, 4
4, 7
2, 7
4, 14
3, 13
6, 10
5, 11
5, 5
5, 10
8, 4
3, 8
1, 7
5, 4
5, 6
4, 6
2, 3
3, 3
5, 3
3, 2
3, 3
4, 4
10, 2
3, 2
2, 4
12, 5
3, 3
10, 2
9, 3
6, 2
7, 5
9, 4
3, 6
3, 3
7, 1
5, 3
2, 2
1, 2
3, 1
1, 0
8, 4
5, 1
3, 3
6, 1
6, 4
4, 5
3, 3
9, 1
5, 6
3, 7
3, 1
1, 0
6, 3
4, 1
4, 3
2, 5
2, 4
2, 3
1, 3
3, 1
4, 1
3, 0
1, 0
3, 2
2, 1
6, 2
0, 2
3, 2
2, 4
2, 2
1, 2
2, 1
1, 3
6, 2
3, 3
2, 1
2, 2
1, 2
1, 2
5, 0
2, 1
2, 3
2, 0
2, 1
2, 4
1, 4
3, 2
3, 2
4, 2
2, 2
4, 0
2, 0
4, 0
3, 1
1, 2
1, 3
4, 3
2, 4
5, 4
4, 7
0, 4
2, 5
3, 1
2, 0
4, 2
2, 3
3, 4
2, 1
2, 0
2, 1
2, 5
3, 4
1, 3
0, 4
5, 4
0, 1
4, 0
6, 1
5, 0
3, 3
5, 1
2, 4
2, 2
10, 1
5, 1
1, 0
3, 2
2, 2
0, 2
3, 3
3, 0
3, 3
3, 3
3, 1
5, 0
3, 0
2, 2
2, 0
3, 4
2, 1
1, 0
0, 1
1, 3
2, 1
2, 2
3, 4
2, 2
0, 1
0, 0
4, 0
3, 4
4, 5
3, 3
4, 1
5, 4
1, 2
3, 3
3, 3
1, 2
3, 6
2, 0
1, 1
0, 1
0, 1
2, 1
0, 3
3, 1
0, 1
0, 0
1, 0
3, 1
1, 1
2, 4
0, 1
2, 1
3, 0
3, 5
3, 1
1, 1
2, 1
2, 1
1, 1
1, 2
4, 2
2, 3
3, 4
1, 2
2, 0
1, 1
2, 0
4, 1
0, 0
0, 2
0, 0
2, 1
0, 0
1, 0
1, 0
3, 1
0, 1
2, 1
2, 1
1, 1
2, 0
1, 1
1, 2
1, 1
0, 1
0, 1
1, 0
2, 1
2, 0
1, 1
0, 2
0, 0
3, 0
0, 0
1, 0
1, 1
2, 1
1, 2
1, 1
1, 3
1, 4
2, 0
0, 2
1, 1
2, 1
2, 1
0, 1
1, 1
1, 1
4, 0
1, 1
2, 0
2, 0
0, 1
0, 1
3, 0
2, 0
2, 2
1, 2
2, 1
1, 0
1, 0
0, 0
2, 1
0, 1
1, 0
2, 1
0, 0
1, 1
0, 1
2, 1
1, 4
2, 0
0, 0
0, 0
0, 0
1, 0
0, 0
0, 0
0, 1
0, 0
1, 1
1, 0
0, 0
2, 0
1, 1
1, 1
1, 2
0, 0
1, 2
1, 1
0, 0
1, 0
1, 0
1, 2
0, 0
0, 0
0, 1
2, 1
0, 0
0, 0
0, 0
1, 0
4, 0
0, 1
1, 0
0, 0
0, 0
0, 0
0, 0
0, 0
2, 1
0, 1
0, 1
0, 1
0, 0
0, 1
0, 1
1, 1
4, 0
1, 0
1, 0
0, 0
0, 1
2, 0
1, 1
0, 0
1, 1
1, 1
0, 0
0, 1
0, 0
0, 0
0, 0
2, 0
2, 0
0, 0
0, 3
0, 0
0, 0
2, 0
1, 0
1, 0
0, 1
0, 0
3, 0
0, 0
0, 0
0, 2
0, 0
3, 0
1, 0
0, 1
0, 0
1, 0
1, 0
0, 0
0, 0
0, 0
0, 0
0, 1
0, 0
0, 0
0, 0
0, 0
1, 0
0, 0
0, 0
0, 0
0, 0
1, 1
0, 0
0, 0
0, 0
0, 1
1, 1
3, 2
0, 1
0, 0
0, 0
0, 0
0, 0
1, 1
0, 1
0, 1
0, 0
0, 0
0, 0
0, 0
0, 0
0, 0
0, 0
0, 0
0, 0
0, 0
0, 0
0, 1
0, 0
0, 0
0, 0
0, 0
0, 1
0, 0
0, 0
2, 1
0, 0
0, 0
0, 0
0, 0
1, 1
0, 0
0, 0
1, 0
0, 0
0, 0
0, 0
0, 1
0, 0
0, 0
0, 0
1, 1
0, 0
0, 0
2, 0
0, 0
0, 1
0, 1
0, 0
0, 1
1, 0
0, 0
0, 0
0, 0
0, 0
0, 1
0, 0
1, 0
1, 1
0, 0
0, 0
0, 0
0, 1
0, 0
1, 1
0, 1
0, 0
0, 0
0, 0
0, 1
0, 0
0, 0
0, 1
0, 0
0, 0
0, 0
2, 0
0, 0
0, 0
0, 0
0, 0
0, 0
0, 0
0, 0
1, 0
0, 0
0, 0
0, 0
0, 0
0, 2
1, 0
0, 0
0, 0
0, 0
0, 0
0, 0
0, 0
0, 0
0, 1
0, 0
0, 1
1, 1
2, 0
0, 0
0, 1
0, 0
2, 0
0, 0
0, 0
0, 0
0, 0
0, 0
1, 0
0, 0
0, 0
0, 0
0, 0
0, 0
0, 0
0, 0
0, 0
0, 0
0, 0
0, 0
0, 0
0, 0
0, 0
0, 0
0, 0
0, 0
0, 0
0, 0
0, 0
0, 0
0, 0
0, 0
0, 0
0, 0
0, 0
1, 0
0, 0
0, 0
0, 0
0, 0
0, 0
0, 0
0, 0
0, 0
0, 1
1, 0
0, 0
0, 1
0, 0
0, 0
0, 0
0, 0
0, 0
1, 0
0, 0
1, 0
0, 0
0, 0
0, 0
0, 0
0, 0
0, 0
0, 0
0, 0
0, 0
0, 0
1, 0
0, 0
0, 0
0, 0
0, 1
1, 0
0, 0
0, 0
0, 0
0, 1
0, 0
0, 0
0, 0
0, 0
0, 0
0, 0
0, 0
0, 0
0, 0
0, 0
0, 0
0, 0
0, 0
0, 0
0, 0
0, 1
0, 0
0, 0
0, 0
0, 0
0, 0
0, 0
0, 0
0, 0
0, 0
0, 0
0, 0
0, 0
0, 0
0, 0
0, 0
0, 0
0, 0
0, 0
0, 0
0, 0
0, 0
0, 0
0, 0
0, 0
0, 0
0, 0
0, 0
0, 0
0, 0
0, 0
0, 0
0, 0
0, 0
0, 1
0, 0
0, 0
0, 0
0, 0
0, 0
0, 0
0, 0
0, 0
0, 0
0, 0
0, 0
0, 0
0, 0
0, 0
0, 0
0, 0
0, 0
0, 0
0, 0
1, 0
0, 0
0, 0
0, 0
1, 0
0, 0
0, 0
0, 0
0, 0
0, 0
0, 0
0, 0
0, 0
0, 0
0, 0
0, 0
0, 0
0, 0
0, 0
0, 0
0, 1
0, 0
0, 0
0, 0
0, 0
0, 0
0, 0
0, 0
0, 0
0, 0
0, 0
0, 0
0, 0
0, 0
0, 0
0, 0
0, 0
0, 0
0, 0
0, 0
0, 0
0, 0
0, 0
0, 0
0, 0
0, 0
0, 0
0, 0
0, 0
0, 0
0, 0
0, 0
0, 0
0, 0
0, 0
0, 0
0, 0
0, 0
0, 0
0, 0
0, 0
0, 0
0, 0
0, 0
0, 0
0, 0
0, 0
0, 0
0, 0
0, 0
0, 0
0, 0
0, 0
0, 0
0, 0
0, 0
0, 0
0, 0
0, 0
0, 0
0, 0
0, 0
1, 0
0, 0
0, 0
0, 0
0, 0
0, 0
0, 0
0, 0
0, 0
0, 0
0, 0
0, 0
0, 0
0, 0
0, 0
0, 0
0, 0
0, 0
0, 0
0, 0
0, 0
0, 0
0, 0
0, 0
0, 0
0, 0
0, 0
0, 0
0, 0
0, 0
0, 0
0, 0
0, 0
0, 0
0, 0
0, 0
0, 0
0, 0
0, 0
0, 0
0, 0
0, 0
0, 0
0, 0
0, 0
0, 0
0, 0
0, 0
0, 0
0, 0
0, 0
0, 0
0, 0
0, 0
0, 0
0, 0
0, 0
0, 0
0, 0
0, 0
0, 0
0, 0
0, 0
0, 0
0, 0
0, 0
0, 0
0, 0
0, 0
0, 0
0, 0
0, 0
0, 0
0, 0
0, 0
0, 0
0, 0
0, 0
0, 0
0, 0
0, 0
0, 0
0, 0
0, 0
0, 0
0, 0
0, 0
0, 0
0, 0
0, 0
0, 0
0, 0
0, 0
0, 0
0, 0
0, 0
0, 0
0, 0
0, 0
0, 0
0, 0
0, 0
0, 0
0, 0
0, 0
0, 0
0, 0
0, 0
1, 0
0, 0
0, 0
0, 0
0, 0
0, 0
0, 0
0, 0
0, 0
0, 0
0, 0
0, 0
0, 0
0, 0
0, 0
0, 0
0, 0
0, 0
0, 0
0, 0
0, 0
0, 0
0, 0
0, 0
0, 0
0, 0
0, 0
0, 0
0, 0
0, 0
0, 0
0, 0
0, 0
0, 0
0, 0
0, 0
0, 0
0, 0
0, 0
0, 0
0, 0
0, 0
0, 0
0, 0
0, 0
0, 0
0, 0
0, 0
0, 0
0, 0
0, 0
0, 0
0, 0
0, 0
0, 0
0, 0
0, 0
0, 0
0, 0
0, 0
0, 0
0, 0
0, 0
0, 0
0, 0
0, 0
0, 0
0, 0
0, 0
0, 0
0, 0
0, 0
0, 0
0, 0
0, 0
0, 0
0, 0
0, 0
0, 0
0, 0
0, 0
0, 0
0, 0
0, 0
0, 0
0, 0
0, 0
0, 0
0, 0
0, 0
0, 0
0, 0
0, 0
0, 0
0, 0
0, 0
0, 0
0, 0
0, 0
0, 0
0, 0
0, 0
0, 0
0, 0
0, 0
0, 0
0, 0
0, 0
0, 0
0, 0
0, 0
0, 0
0, 0
0, 0
0, 0
0, 0
0, 0
0, 0
0, 0
0, 0
0, 0
0, 0
0, 0
0, 0
0, 0
0, 0
0, 0
0, 0
0, 0
0, 0
0, 0
0, 0
0, 0
0, 0
0, 0
0, 0
0, 0
0, 0
0, 0
0, 0
0, 0
0, 0
0, 0
0, 0
0, 0
0, 0
0, 0
0, 0
0, 0
0, 0
0, 0
0, 0
0, 0
0, 0
0, 0
0, 0
0, 0
0, 0
0, 0
0, 0
0, 0
0, 0
0, 0
0, 0
0, 0
0, 0
0, 0
0, 0
0, 0
0, 0
0, 0
0, 0
0, 0
0, 0
0, 0
#ENDOFDATA     end of spectrum data