File: host_upload/06-09-2024/ps_0852/dump3/ps__0852shot_2372.msa
#FORMAT      : EMSA/MAS spectral data file
#VERSION     : TC202v2.0 PIXL
#TITLE       : N/A
#DATE        :       Date in the format DD-MMM-YYYY, for example 07-JUL-2010
#TIME        :             The time of day at which the spectrum was recorded, in 24-hour format
#OWNER       : PIXL Flight Model       (PIXL will use this to indicate which instrument took the data.)
#NPOINTS     : 4096     Number of data points in the spectrum (This can be zero for configuration only files)
#NCOLUMNS    : 2     Number of data columns in the spectrum (This can be zero for configuration only files)
#XUNITS      : eV
#YUNITS      : COUNTS
#DATATYPE    : YY
#XPERCHAN    : 7.862, 7.881   eV per channel (separate by commas if more than one detector)
#OFFSET      : 18.5, -22.4         eV of first channel  (separate by commas if more than one detector
#SIGNALTYPE  : XRF
#YP_TEMP     : 2.203
#LIVETIME    : 8.57553, 8.56803   seconds (separate by commas if more than one detector)
#REALTIME    : 10, 10.0   seconds (separate by commas if more than one detector)
#SPECTRUM    : start of spectrum data
0, 0
0, 0
0, 0
0, 0
0, 0
0, 0
0, 0
0, 0
0, 0
0, 0
0, 0
0, 0
0, 0
0, 0
0, 0
0, 0
0, 0
0, 0
0, 0
0, 0
0, 0
0, 0
0, 0
0, 0
0, 0
0, 0
0, 0
0, 0
0, 0
0, 0
0, 0
0, 0
0, 0
0, 0
0, 1
0, 1
0, 1
0, 3
1, 0
1, 0
1, 0
1, 0
1, 1
0, 0
1, 2
2, 1
3, 5
3, 3
11, 8
15, 6
26, 15
51, 33
65, 55
80, 71
101, 81
89, 87
78, 75
54, 38
25, 22
18, 14
15, 7
9, 3
4, 4
7, 3
3, 3
7, 4
5, 2
10, 9
25, 24
65, 44
97, 85
184, 174
285, 233
403, 323
482, 381
466, 382
425, 324
309, 256
215, 174
132, 103
72, 69
36, 26
14, 14
4, 9
3, 4
2, 1
2, 3
1, 1
0, 0
0, 0
0, 0
1, 1
0, 1
0, 0
1, 6
2, 3
5, 2
0, 3
4, 0
2, 3
4, 1
1, 2
2, 5
0, 2
1, 1
3, 1
1, 5
6, 6
6, 5
5, 1
12, 10
12, 15
18, 23
21, 24
21, 20
25, 24
31, 27
15, 28
20, 26
12, 30
18, 23
18, 27
17, 24
6, 27
13, 17
15, 15
10, 8
9, 12
6, 4
7, 5
9, 5
3, 2
2, 2
1, 2
0, 3
6, 4
3, 0
1, 1
2, 1
2, 1
3, 1
0, 2
1, 2
1, 1
2, 2
1, 1
1, 1
2, 1
0, 0
3, 2
4, 2
7, 3
7, 6
13, 4
17, 8
14, 21
17, 11
21, 15
16, 25
15, 17
20, 12
13, 5
9, 8
2, 11
11, 6
3, 5
3, 4
0, 2
3, 5
7, 6
3, 3
9, 2
4, 2
2, 6
7, 8
2, 11
1, 6
5, 7
2, 11
0, 6
4, 6
3, 4
4, 6
5, 3
4, 6
5, 1
8, 2
4, 3
8, 3
5, 7
10, 6
14, 13
11, 16
6, 25
12, 31
11, 35
18, 46
20, 51
32, 43
37, 47
68, 49
75, 31
71, 35
98, 14
100, 13
81, 9
78, 8
75, 3
56, 5
35, 4
18, 6
17, 7
11, 9
3, 8
9, 3
6, 2
4, 11
6, 4
7, 6
5, 7
6, 6
14, 4
3, 6
8, 5
7, 8
10, 7
13, 13
13, 8
14, 9
16, 13
10, 15
29, 8
13, 13
7, 12
11, 6
10, 6
4, 8
3, 7
6, 8
4, 9
3, 13
4, 6
11, 8
14, 14
14, 7
14, 23
32, 31
38, 30
51, 48
45, 64
68, 51
68, 57
75, 44
54, 58
39, 40
32, 30
26, 17
21, 16
19, 15
14, 21
23, 23
23, 30
46, 57
83, 91
149, 184
294, 355
507, 557
811, 900
1210, 1285
1617, 1655
2039, 2033
2450, 2227
2593, 2302
2475, 2166
2191, 1884
1799, 1425
1389, 973
972, 677
602, 393
381, 216
225, 137
155, 69
105, 41
105, 34
105, 11
104, 12
125, 13
111, 9
114, 14
108, 14
105, 27
100, 38
82, 46
98, 96
134, 128
167, 145
233, 234
265, 288
314, 311
382, 330
389, 368
377, 307
317, 270
277, 203
206, 152
144, 109
81, 57
54, 49
31, 24
24, 15
12, 8
7, 12
4, 15
10, 10
15, 18
15, 23
14, 22
11, 19
13, 19
15, 12
8, 17
7, 7
3, 7
11, 9
2, 4
7, 2
3, 6
3, 4
1, 4
2, 2
6, 3
9, 5
0, 5
3, 4
2, 10
3, 3
5, 1
7, 5
3, 3
7, 3
5, 3
8, 3
2, 5
7, 3
3, 5
3, 2
6, 5
10, 5
5, 4
3, 2
9, 3
7, 11
9, 6
7, 4
9, 5
16, 7
12, 0
11, 3
7, 5
6, 1
13, 1
11, 5
10, 5
7, 3
9, 2
5, 5
9, 2
3, 6
2, 4
9, 3
5, 5
5, 3
4, 2
4, 4
3, 4
3, 7
1, 2
2, 1
0, 3
2, 4
4, 4
7, 3
7, 4
5, 4
1, 2
3, 7
4, 7
2, 10
3, 5
1, 10
4, 15
4, 17
4, 24
2, 20
2, 26
4, 24
3, 23
2, 27
2, 22
4, 15
4, 23
5, 12
10, 7
5, 9
8, 5
5, 4
6, 2
4, 9
4, 2
8, 4
3, 4
8, 0
8, 3
14, 3
15, 3
13, 5
19, 6
14, 4
20, 1
13, 3
15, 1
13, 2
16, 2
7, 3
8, 0
11, 4
7, 3
10, 1
7, 4
4, 2
5, 2
2, 0
1, 3
5, 2
2, 1
5, 2
3, 4
3, 1
0, 2
3, 4
1, 0
1, 3
4, 3
3, 2
1, 3
2, 3
4, 1
0, 3
1, 1
5, 3
3, 9
3, 2
3, 1
3, 4
8, 3
2, 3
4, 2
2, 2
2, 3
1, 2
2, 1
3, 3
5, 0
1, 5
4, 3
2, 1
3, 7
2, 3
3, 1
0, 1
1, 4
3, 2
1, 1
5, 3
4, 3
2, 1
2, 2
4, 2
0, 1
0, 5
4, 0
3, 0
1, 1
1, 4
0, 6
3, 2
1, 7
6, 4
3, 1
2, 6
2, 0
5, 10
1, 5
0, 6
1, 3
0, 2
0, 6
0, 3
3, 1
3, 0
2, 2
0, 3
1, 1
3, 3
1, 1
1, 3
0, 2
1, 3
2, 1
1, 0
6, 3
2, 1
0, 1
2, 2
1, 1
1, 1
0, 2
0, 3
1, 1
1, 4
1, 1
4, 2
1, 0
4, 0
2, 2
4, 1
3, 0
0, 4
0, 0
2, 3
0, 4
2, 3
2, 1
2, 1
2, 0
3, 1
5, 3
2, 1
2, 1
3, 3
3, 3
4, 5
9, 3
5, 5
7, 3
5, 3
2, 1
3, 5
1, 5
4, 2
2, 3
2, 3
1, 1
2, 0
1, 1
4, 0
2, 3
1, 2
1, 2
2, 1
1, 1
2, 0
0, 2
0, 2
2, 1
2, 2
2, 0
2, 2
1, 1
2, 1
3, 3
3, 2
2, 2
3, 2
2, 2
2, 2
1, 1
3, 5
1, 2
2, 2
1, 0
1, 2
0, 1
0, 1
2, 1
4, 1
1, 3
0, 1
2, 1
1, 1
0, 0
0, 4
4, 2
1, 3
1, 1
2, 2
1, 0
0, 1
3, 1
0, 0
2, 0
2, 1
1, 1
1, 2
0, 1
2, 1
1, 0
2, 2
2, 2
2, 0
2, 1
3, 2
2, 0
2, 0
0, 1
0, 1
1, 0
2, 1
1, 2
0, 0
3, 0
2, 0
1, 0
1, 4
0, 2
1, 3
0, 1
1, 0
0, 1
0, 1
0, 2
0, 0
1, 1
3, 1
0, 0
0, 0
1, 0
0, 0
0, 0
0, 1
0, 0
6, 1
1, 0
2, 0
1, 1
0, 1
1, 1
0, 0
0, 2
1, 0
0, 2
0, 0
2, 0
3, 0
0, 1
1, 1
0, 3
1, 0
0, 0
1, 1
1, 0
0, 1
1, 0
0, 0
0, 0
0, 1
0, 0
0, 0
2, 1
0, 3
0, 1
1, 0
1, 3
0, 1
0, 0
2, 1
0, 0
0, 2
1, 0
0, 0
0, 1
0, 0
1, 0
0, 0
0, 0
0, 2
1, 2
0, 1
2, 0
0, 1
1, 0
0, 1
0, 0
1, 1
0, 0
0, 0
0, 1
0, 0
0, 1
2, 0
0, 2
0, 0
0, 0
0, 2
1, 0
1, 0
0, 1
0, 0
0, 0
0, 1
0, 0
2, 0
0, 0
0, 0
0, 0
0, 0
0, 0
0, 1
2, 0
0, 1
0, 0
0, 2
0, 0
0, 0
0, 0
0, 0
0, 0
1, 0
0, 0
0, 0
0, 0
0, 1
1, 0
0, 0
1, 0
0, 0
1, 0
0, 0
0, 1
1, 0
0, 0
0, 0
0, 0
1, 0
0, 0
0, 0
0, 0
0, 0
0, 0
0, 1
1, 0
0, 0
2, 1
0, 0
1, 0
1, 0
0, 0
0, 0
0, 0
0, 0
1, 0
1, 0
0, 0
0, 0
0, 0
1, 0
0, 0
1, 0
0, 1
0, 0
0, 0
0, 0
0, 0
0, 0
1, 0
0, 1
1, 0
0, 1
0, 0
0, 0
0, 0
1, 0
1, 0
0, 0
1, 0
0, 0
0, 0
0, 0
0, 1
1, 0
2, 1
0, 0
1, 0
0, 0
1, 0
0, 0
1, 2
0, 0
0, 0
1, 0
0, 0
2, 0
0, 0
0, 1
0, 0
0, 0
0, 0
0, 0
0, 1
2, 1
0, 0
0, 0
0, 0
0, 0
0, 0
0, 1
0, 0
0, 0
0, 0
0, 0
0, 1
0, 0
1, 0
0, 0
1, 0
0, 0
0, 0
0, 0
0, 0
2, 0
0, 0
0, 0
0, 0
0, 0
0, 0
0, 0
0, 0
1, 1
0, 0
0, 0
1, 0
0, 0
0, 0
0, 0
0, 0
0, 1
0, 0
0, 0
0, 0
0, 0
0, 0
0, 0
0, 0
0, 0
0, 0
0, 0
0, 0
1, 0
0, 1
0, 0
1, 1
0, 0
1, 0
2, 0
0, 0
0, 0
0, 0
0, 0
1, 0
0, 1
0, 0
0, 1
1, 0
0, 0
0, 0
0, 0
0, 0
0, 0
0, 1
0, 0
0, 0
0, 0
0, 0
0, 0
0, 0
0, 0
0, 0
0, 0
0, 0
0, 0
0, 0
1, 0
0, 0
0, 0
0, 0
0, 0
1, 0
0, 0
0, 0
0, 0
0, 0
0, 0
0, 0
0, 0
0, 0
0, 1
0, 0
0, 0
0, 0
0, 0
0, 0
0, 0
0, 0
0, 0
0, 0
0, 0
1, 0
0, 0
0, 0
0, 0
0, 0
0, 0
0, 0
0, 0
0, 0
0, 0
0, 0
0, 0
0, 0
2, 0
0, 0
0, 0
0, 0
0, 0
0, 0
0, 0
0, 0
0, 0
0, 1
0, 0
0, 0
0, 0
0, 0
0, 0
0, 0
0, 0
0, 0
0, 0
0, 0
0, 0
0, 0
0, 0
0, 0
0, 0
0, 0
0, 0
0, 0
0, 0
0, 0
0, 1
0, 0
0, 0
0, 0
0, 0
0, 0
0, 0
0, 0
0, 0
0, 0
0, 0
0, 0
0, 0
0, 0
0, 0
0, 0
0, 0
0, 0
0, 0
0, 0
0, 0
0, 0
0, 0
0, 0
0, 0
0, 0
0, 0
0, 0
0, 0
0, 0
0, 0
0, 0
0, 0
0, 0
0, 0
0, 0
0, 0
0, 0
0, 0
0, 0
0, 0
0, 0
1, 0
0, 0
0, 0
0, 0
0, 0
0, 0
0, 0
0, 0
0, 0
0, 0
0, 0
0, 0
0, 0
0, 0
0, 0
0, 0
0, 0
0, 0
0, 0
0, 0
0, 0
0, 0
0, 0
0, 0
0, 0
0, 0
0, 0
0, 0
0, 0
1, 0
0, 0
0, 0
0, 0
0, 0
0, 0
0, 0
0, 0
0, 0
0, 0
0, 0
0, 0
0, 0
0, 0
0, 0
0, 0
0, 0
0, 0
0, 0
0, 0
0, 0
0, 0
0, 0
0, 0
0, 0
0, 0
0, 0
0, 0
0, 0
0, 0
0, 0
0, 0
0, 0
0, 0
0, 0
0, 0
0, 0
0, 0
0, 0
1, 0
0, 0
0, 0
0, 0
0, 0
0, 0
0, 0
0, 0
1, 0
0, 0
0, 0
0, 0
0, 0
0, 0
0, 0
0, 0
0, 0
0, 0
0, 0
0, 0
0, 0
0, 0
0, 0
0, 0
0, 0
0, 0
0, 0
0, 0
0, 0
0, 0
0, 0
0, 0
0, 0
0, 0
0, 0
0, 0
0, 0
0, 0
0, 0
0, 0
0, 0
0, 0
0, 0
0, 0
0, 0
0, 0
0, 0
0, 0
0, 0
0, 0
0, 0
0, 0
0, 0
0, 0
0, 0
0, 0
0, 0
0, 0
0, 0
0, 0
0, 0
0, 0
0, 0
0, 0
0, 0
0, 0
0, 0
0, 0
0, 0
0, 0
0, 0
0, 0
0, 0
0, 0
0, 0
0, 0
0, 0
0, 0
0, 0
0, 0
0, 0
0, 0
0, 0
0, 0
0, 0
0, 0
0, 0
0, 0
0, 0
0, 0
0, 0
0, 0
0, 0
0, 0
0, 0
0, 0
0, 0
0, 0
0, 0
0, 0
0, 0
0, 0
0, 0
0, 0
0, 0
0, 0
0, 0
0, 0
0, 0
0, 0
0, 0
0, 0
0, 0
0, 0
0, 0
0, 0
0, 0
0, 0
0, 0
0, 0
0, 0
0, 0
0, 0
0, 0
0, 0
0, 0
0, 0
0, 0
0, 0
0, 0
0, 0
0, 0
0, 0
0, 0
0, 0
0, 0
0, 0
0, 0
0, 0
0, 0
0, 0
0, 0
0, 0
0, 0
0, 0
0, 0
0, 0
0, 0
0, 0
0, 0
0, 0
0, 0
0, 0
0, 0
0, 0
0, 0
0, 0
0, 0
0, 0
0, 0
0, 0
0, 0
0, 0
0, 0
0, 0
0, 0
0, 0
0, 0
0, 0
0, 0
0, 0
0, 0
0, 0
0, 0
0, 0
0, 0
0, 0
0, 0
0, 0
0, 0
0, 0
0, 0
0, 0
0, 0
0, 0
0, 0
0, 0
0, 0
0, 0
0, 0
0, 0
0, 0
0, 0
0, 0
0, 0
0, 0
0, 0
0, 0
0, 0
0, 0
0, 0
0, 0
0, 0
0, 0
0, 0
0, 0
0, 0
0, 0
0, 0
0, 0
0, 0
0, 0
0, 0
0, 0
0, 0
0, 0
0, 0
0, 0
0, 0
0, 0
0, 0
0, 0
0, 0
0, 0
0, 0
0, 0
0, 0
0, 0
0, 0
0, 0
0, 0
0, 0
0, 0
0, 0
0, 0
0, 0
0, 0
0, 0
0, 0
0, 0
0, 0
0, 0
0, 0
0, 0
0, 0
0, 0
0, 0
0, 0
0, 0
0, 0
0, 0
0, 0
0, 0
0, 0
0, 0
0, 0
0, 0
0, 0
0, 0
0, 0
0, 0
0, 0
0, 0
0, 0
0, 0
0, 0
0, 0
0, 0
0, 0
0, 0
0, 0
0, 0
0, 0
0, 0
0, 0
0, 0
0, 0
0, 0
0, 0
0, 0
0, 0
0, 0
0, 0
0, 0
0, 0
0, 0
0, 0
0, 0
0, 0
0, 0
0, 0
0, 0
0, 0
0, 0
0, 0
0, 0
0, 0
#ENDOFDATA     end of spectrum data