File: host_upload/06-09-2024/ps_0852/dump3/ps__0852shot_2416.msa
#FORMAT      : EMSA/MAS spectral data file
#VERSION     : TC202v2.0 PIXL
#TITLE       : N/A
#DATE        :       Date in the format DD-MMM-YYYY, for example 07-JUL-2010
#TIME        :             The time of day at which the spectrum was recorded, in 24-hour format
#OWNER       : PIXL Flight Model       (PIXL will use this to indicate which instrument took the data.)
#NPOINTS     : 4096     Number of data points in the spectrum (This can be zero for configuration only files)
#NCOLUMNS    : 2     Number of data columns in the spectrum (This can be zero for configuration only files)
#XUNITS      : eV
#YUNITS      : COUNTS
#DATATYPE    : YY
#XPERCHAN    : 7.862, 7.881   eV per channel (separate by commas if more than one detector)
#OFFSET      : 18.5, -22.4         eV of first channel  (separate by commas if more than one detector
#SIGNALTYPE  : XRF
#YP_TEMP     : 2.332
#LIVETIME    : 8.57166, 8.54258   seconds (separate by commas if more than one detector)
#REALTIME    : 10, 10.0   seconds (separate by commas if more than one detector)
#SPECTRUM    : start of spectrum data
0, 0
0, 0
0, 0
0, 0
0, 0
0, 0
0, 0
0, 0
0, 0
0, 0
0, 0
0, 0
0, 0
0, 0
0, 0
0, 0
0, 0
0, 0
0, 0
0, 0
0, 0
0, 0
0, 0
0, 0
0, 0
0, 0
0, 0
0, 0
0, 0
0, 0
0, 0
0, 0
0, 1
1, 0
0, 0
1, 0
0, 1
1, 0
0, 0
1, 0
0, 2
0, 0
1, 0
2, 1
1, 1
2, 0
1, 1
2, 3
5, 8
11, 21
23, 22
41, 35
62, 62
78, 83
92, 77
89, 64
68, 54
49, 44
36, 19
16, 20
15, 12
12, 5
2, 5
2, 5
5, 1
8, 6
7, 6
17, 8
18, 21
41, 51
98, 87
170, 171
281, 275
384, 365
444, 437
442, 470
417, 373
304, 258
209, 177
118, 125
82, 63
47, 30
20, 22
12, 9
6, 7
2, 3
2, 2
0, 1
3, 1
0, 0
1, 0
1, 0
1, 1
3, 1
3, 1
2, 1
1, 5
2, 3
1, 3
4, 6
3, 3
5, 1
6, 2
2, 2
4, 2
2, 2
2, 3
2, 3
6, 3
12, 3
7, 9
18, 14
28, 15
29, 27
32, 22
36, 32
47, 27
38, 12
26, 21
32, 20
21, 20
14, 20
18, 24
26, 10
17, 25
13, 21
12, 16
10, 7
7, 11
6, 3
8, 5
6, 6
4, 3
3, 4
5, 1
5, 1
2, 2
4, 6
2, 2
4, 5
3, 4
5, 3
2, 0
6, 1
3, 3
1, 2
1, 1
2, 2
2, 2
1, 3
2, 3
5, 3
8, 9
11, 9
12, 11
15, 19
27, 20
13, 19
18, 31
24, 23
12, 14
13, 8
9, 5
6, 8
4, 4
2, 3
4, 2
3, 3
4, 3
3, 3
3, 1
6, 5
6, 5
5, 3
6, 3
5, 3
8, 0
3, 2
9, 2
9, 3
14, 2
17, 1
24, 1
29, 1
44, 2
39, 2
28, 2
45, 2
39, 3
26, 5
12, 5
14, 6
11, 9
6, 8
11, 11
12, 8
10, 15
12, 12
8, 10
16, 10
12, 7
5, 6
12, 9
7, 6
5, 5
9, 4
2, 2
3, 7
9, 5
5, 5
2, 7
2, 11
2, 18
8, 18
6, 20
3, 26
4, 28
3, 35
6, 31
2, 31
7, 28
4, 15
5, 16
9, 16
5, 14
11, 18
8, 20
10, 29
13, 46
17, 41
21, 47
11, 42
18, 47
20, 50
23, 30
19, 33
19, 16
32, 12
30, 12
23, 8
40, 11
26, 6
49, 9
44, 13
51, 21
56, 15
90, 26
89, 35
94, 63
86, 56
85, 64
92, 58
76, 54
64, 43
46, 38
34, 29
30, 23
19, 18
10, 11
15, 14
15, 17
20, 31
32, 51
83, 101
158, 157
297, 334
489, 591
747, 911
1116, 1264
1573, 1715
1960, 2153
2306, 2345
2356, 2405
2334, 2307
2113, 1919
1742, 1466
1289, 1051
891, 726
584, 423
315, 242
173, 140
93, 82
52, 35
27, 31
10, 31
18, 17
16, 20
11, 18
18, 27
21, 29
23, 29
25, 40
40, 50
81, 96
104, 124
140, 169
197, 220
274, 326
358, 328
315, 370
361, 370
363, 340
317, 244
224, 215
217, 185
151, 98
83, 69
47, 39
27, 24
24, 12
9, 4
9, 5
7, 12
7, 12
6, 12
8, 11
11, 8
12, 7
10, 8
13, 17
8, 7
14, 12
7, 12
13, 8
7, 2
3, 3
3, 4
9, 3
3, 5
3, 1
1, 3
4, 2
4, 7
4, 0
1, 7
3, 2
4, 1
3, 4
6, 5
5, 1
2, 6
2, 7
7, 9
4, 4
7, 3
3, 4
4, 3
5, 6
6, 7
5, 8
6, 5
5, 3
4, 5
5, 3
3, 11
6, 7
5, 10
4, 11
3, 12
4, 21
3, 15
9, 12
6, 15
6, 16
5, 15
13, 7
8, 12
9, 6
13, 7
13, 5
14, 3
8, 5
10, 10
10, 9
12, 12
9, 12
3, 9
6, 13
2, 5
1, 12
1, 16
2, 14
3, 6
5, 6
4, 6
4, 2
2, 2
5, 3
3, 1
4, 1
1, 4
2, 5
1, 1
2, 0
4, 1
7, 2
4, 0
3, 1
2, 2
2, 3
0, 2
2, 5
2, 1
3, 4
2, 2
2, 2
2, 3
1, 0
3, 0
2, 2
9, 4
1, 7
2, 5
7, 8
7, 6
8, 3
11, 5
9, 4
13, 3
23, 3
19, 5
18, 3
24, 8
16, 2
16, 2
10, 5
12, 10
9, 8
17, 13
8, 4
7, 9
10, 11
8, 11
0, 12
8, 13
6, 16
4, 16
3, 6
2, 6
0, 3
3, 3
2, 4
6, 5
3, 3
3, 2
1, 3
4, 3
4, 3
4, 5
1, 7
4, 3
3, 2
3, 2
3, 1
3, 1
1, 2
2, 1
1, 4
1, 2
1, 0
3, 1
1, 1
4, 1
3, 2
1, 2
2, 3
4, 3
6, 1
2, 0
0, 0
3, 3
3, 3
5, 4
3, 2
7, 3
5, 0
4, 1
2, 0
2, 2
4, 1
2, 2
1, 1
3, 2
8, 1
3, 0
2, 3
3, 1
5, 2
4, 3
3, 0
5, 2
1, 3
1, 2
2, 4
1, 2
1, 0
1, 2
0, 0
3, 2
1, 3
1, 6
3, 3
2, 2
0, 2
1, 1
3, 3
2, 5
2, 1
1, 2
3, 1
3, 2
1, 2
0, 3
0, 2
1, 4
2, 2
1, 4
1, 1
2, 2
2, 4
3, 4
1, 2
1, 2
0, 1
3, 2
2, 1
1, 1
2, 1
2, 3
5, 2
3, 3
4, 1
0, 1
2, 1
3, 0
3, 3
0, 2
2, 2
2, 2
9, 4
3, 3
3, 2
4, 2
5, 3
5, 7
2, 3
6, 1
5, 5
4, 0
5, 4
4, 4
1, 3
4, 1
3, 0
2, 1
3, 0
1, 1
2, 2
5, 2
1, 1
1, 1
1, 1
2, 1
0, 1
2, 2
1, 2
0, 2
0, 3
2, 1
2, 3
1, 1
2, 1
3, 2
2, 1
0, 2
1, 0
1, 1
0, 3
1, 1
1, 0
0, 2
0, 0
0, 2
2, 1
0, 3
0, 0
1, 1
4, 1
1, 1
3, 1
1, 0
0, 1
2, 1
0, 0
1, 2
2, 2
1, 0
0, 2
2, 1
1, 1
1, 2
2, 0
4, 0
1, 1
0, 2
0, 0
1, 0
0, 2
4, 2
1, 0
0, 2
1, 1
0, 0
1, 1
2, 2
0, 0
0, 1
1, 1
0, 0
0, 1
1, 0
0, 1
1, 1
2, 2
0, 0
2, 2
0, 0
0, 0
1, 1
2, 0
1, 0
0, 0
1, 2
2, 0
1, 1
1, 3
0, 0
1, 0
0, 0
1, 0
0, 1
0, 2
0, 0
0, 0
1, 0
0, 0
0, 0
0, 3
0, 0
1, 1
0, 2
1, 0
0, 1
0, 0
1, 0
0, 1
0, 1
1, 1
0, 0
0, 0
0, 0
1, 0
1, 1
1, 0
1, 0
3, 0
0, 0
0, 1
0, 0
0, 0
1, 0
0, 0
1, 1
0, 1
1, 1
2, 0
0, 1
0, 1
0, 1
1, 0
1, 0
0, 0
2, 0
1, 0
0, 1
2, 2
0, 0
0, 1
0, 0
1, 0
0, 0
0, 0
0, 1
0, 0
1, 0
0, 0
0, 0
1, 0
0, 1
0, 0
1, 1
0, 1
0, 1
0, 0
0, 0
0, 0
0, 0
1, 0
0, 1
0, 1
0, 0
0, 0
0, 0
1, 1
1, 0
0, 0
1, 1
0, 0
0, 0
0, 0
0, 0
0, 2
1, 0
1, 0
0, 0
0, 0
0, 0
1, 0
0, 0
2, 0
0, 0
0, 0
0, 1
0, 0
0, 0
0, 2
0, 0
2, 0
0, 0
0, 0
1, 0
0, 0
1, 1
0, 1
1, 0
0, 1
0, 1
0, 0
0, 0
0, 1
0, 2
0, 0
0, 0
0, 1
1, 0
0, 0
0, 1
0, 0
1, 2
1, 0
0, 0
1, 0
0, 0
0, 0
0, 0
0, 0
0, 0
0, 0
0, 0
1, 0
1, 1
0, 0
0, 0
0, 0
0, 0
0, 0
0, 0
0, 0
0, 1
1, 0
0, 0
0, 0
1, 0
0, 1
0, 0
0, 0
0, 0
0, 0
1, 0
0, 0
0, 0
1, 0
0, 0
0, 0
0, 0
0, 1
0, 0
0, 0
0, 0
0, 1
1, 0
0, 0
1, 0
0, 1
0, 1
0, 0
0, 0
0, 0
0, 0
0, 1
0, 0
0, 0
0, 1
0, 0
1, 0
1, 0
0, 0
0, 1
1, 0
0, 0
1, 0
0, 0
0, 0
0, 1
0, 0
1, 1
0, 0
0, 1
0, 0
0, 0
0, 1
0, 0
0, 0
0, 0
0, 0
0, 0
0, 1
0, 0
0, 0
0, 0
0, 0
0, 0
0, 0
1, 0
0, 0
2, 0
0, 0
0, 0
0, 0
0, 0
0, 0
0, 0
0, 0
0, 0
0, 0
1, 0
0, 0
0, 0
0, 0
0, 0
0, 0
0, 0
0, 1
0, 1
0, 0
0, 0
0, 0
0, 0
0, 0
0, 1
0, 0
0, 0
0, 0
0, 0
0, 0
0, 0
0, 1
0, 0
0, 0
0, 0
1, 0
0, 0
0, 0
0, 0
0, 0
1, 0
0, 0
0, 0
0, 0
0, 0
0, 0
0, 0
0, 0
0, 0
0, 0
0, 0
0, 0
1, 0
0, 0
0, 0
1, 0
0, 0
0, 0
0, 0
0, 0
0, 0
0, 0
0, 0
0, 0
0, 0
0, 0
0, 0
0, 0
0, 0
0, 0
0, 0
0, 0
0, 0
0, 0
0, 0
0, 0
0, 0
0, 0
0, 0
0, 0
0, 0
0, 0
0, 0
0, 0
0, 0
0, 0
1, 0
0, 0
0, 0
0, 0
0, 0
0, 0
0, 1
0, 1
0, 0
0, 0
0, 0
0, 0
0, 0
0, 0
0, 0
0, 1
0, 0
0, 0
0, 0
0, 0
0, 0
0, 0
0, 0
0, 0
0, 0
0, 0
0, 0
0, 0
0, 0
0, 0
0, 0
0, 0
0, 0
0, 0
1, 0
0, 0
0, 0
0, 0
0, 0
0, 0
0, 0
0, 0
0, 0
0, 0
0, 0
0, 0
0, 0
0, 0
0, 0
0, 0
0, 0
0, 0
0, 0
0, 0
0, 0
0, 0
0, 0
0, 0
0, 0
0, 0
0, 0
0, 0
0, 0
0, 0
0, 0
0, 0
0, 0
0, 0
0, 0
0, 0
0, 0
0, 0
0, 0
0, 0
0, 0
0, 0
0, 0
0, 0
0, 0
0, 0
0, 0
0, 0
0, 0
0, 0
0, 0
0, 0
0, 0
0, 0
0, 0
0, 0
0, 0
0, 0
0, 0
0, 0
0, 0
0, 0
0, 0
0, 0
0, 0
0, 0
0, 0
0, 0
0, 0
0, 0
0, 0
0, 0
0, 0
0, 0
0, 0
0, 0
0, 0
0, 0
0, 0
0, 0
0, 0
0, 0
0, 0
0, 0
0, 0
0, 0
0, 0
0, 0
0, 0
0, 0
0, 0
0, 0
0, 0
0, 0
0, 0
0, 0
0, 0
0, 0
0, 0
0, 0
0, 0
0, 0
0, 0
0, 0
0, 0
0, 0
0, 0
0, 0
0, 0
0, 0
0, 0
0, 0
0, 0
0, 0
0, 0
0, 0
0, 0
0, 0
0, 0
0, 0
0, 0
0, 0
0, 0
0, 0
0, 0
0, 0
0, 0
0, 0
0, 0
0, 0
0, 0
0, 0
0, 0
0, 0
0, 0
0, 0
0, 0
0, 0
0, 0
0, 0
0, 0
0, 0
0, 0
0, 0
0, 0
0, 0
0, 0
0, 0
0, 0
0, 0
0, 0
0, 0
0, 0
0, 0
0, 0
0, 0
0, 0
0, 0
0, 0
0, 0
0, 0
0, 0
0, 0
0, 0
0, 0
0, 0
0, 0
0, 0
0, 0
0, 0
0, 0
0, 0
0, 0
0, 0
0, 0
0, 0
0, 0
0, 0
0, 0
0, 0
0, 0
0, 0
0, 0
0, 0
0, 0
0, 0
0, 0
0, 0
0, 0
0, 0
0, 0
0, 0
0, 0
0, 0
0, 0
0, 0
0, 0
0, 0
0, 0
0, 0
0, 0
0, 0
0, 0
0, 0
0, 0
0, 0
0, 0
0, 0
0, 0
0, 0
0, 0
0, 0
0, 0
0, 0
0, 0
0, 0
0, 0
0, 0
0, 0
0, 0
0, 0
0, 0
0, 0
0, 0
0, 0
0, 0
0, 0
0, 0
0, 0
0, 0
0, 0
0, 0
0, 0
0, 0
0, 0
0, 0
0, 0
0, 0
0, 0
0, 0
0, 0
0, 0
0, 0
0, 0
0, 0
0, 0
0, 0
0, 0
0, 0
0, 0
0, 0
0, 0
0, 0
0, 0
0, 0
0, 0
0, 0
0, 0
0, 0
0, 0
0, 0
0, 0
0, 0
0, 0
0, 0
0, 0
0, 0
0, 0
0, 0
0, 0
0, 0
0, 0
0, 0
0, 0
0, 0
0, 0
0, 0
0, 0
0, 0
0, 0
0, 0
0, 0
0, 0
0, 0
0, 0
0, 0
0, 0
0, 0
0, 0
0, 0
0, 0
0, 0
0, 0
0, 0
0, 0
0, 0
0, 0
0, 0
0, 0
0, 0
0, 0
0, 0
0, 0
0, 0
0, 0
0, 0
0, 0
0, 0
0, 0
0, 0
0, 0
0, 0
0, 0
0, 0
0, 0
0, 0
0, 0
0, 0
0, 0
0, 0
0, 0
0, 0
0, 0
0, 0
0, 0
0, 0
0, 0
0, 0
0, 0
0, 0
0, 0
0, 0
0, 0
0, 0
0, 0
0, 0
0, 0
0, 0
0, 0
0, 0
0, 0
0, 0
0, 0
0, 0
0, 0
0, 0
0, 0
0, 0
0, 0
0, 0
0, 0
0, 0
0, 0
0, 0
0, 0
0, 0
0, 0
0, 0
0, 0
0, 0
0, 0
0, 0
0, 0
0, 0
0, 0
0, 0
0, 0
0, 0
0, 0
0, 0
0, 0
0, 0
0, 0
0, 0
0, 0
0, 0
0, 0
0, 0
0, 0
0, 0
0, 0
0, 0
0, 0
0, 0
0, 0
0, 0
0, 0
0, 0
0, 0
0, 0
0, 0
0, 0
0, 0
0, 0
0, 0
0, 0
0, 0
0, 0
0, 0
0, 0
0, 0
#ENDOFDATA     end of spectrum data