File: host_upload/06-09-2024/ps_0852/dump3/ps__0852shot_2288.msa
#FORMAT      : EMSA/MAS spectral data file
#VERSION     : TC202v2.0 PIXL
#TITLE       : N/A
#DATE        :       Date in the format DD-MMM-YYYY, for example 07-JUL-2010
#TIME        :             The time of day at which the spectrum was recorded, in 24-hour format
#OWNER       : PIXL Flight Model       (PIXL will use this to indicate which instrument took the data.)
#NPOINTS     : 4096     Number of data points in the spectrum (This can be zero for configuration only files)
#NCOLUMNS    : 2     Number of data columns in the spectrum (This can be zero for configuration only files)
#XUNITS      : eV
#YUNITS      : COUNTS
#DATATYPE    : YY
#XPERCHAN    : 7.862, 7.881   eV per channel (separate by commas if more than one detector)
#OFFSET      : 18.5, -22.4         eV of first channel  (separate by commas if more than one detector
#SIGNALTYPE  : XRF
#YP_TEMP     : 2.46
#LIVETIME    : 8.57486, 8.56363   seconds (separate by commas if more than one detector)
#REALTIME    : 10, 10.0   seconds (separate by commas if more than one detector)
#SPECTRUM    : start of spectrum data
0, 0
0, 0
0, 0
0, 0
0, 0
0, 0
0, 0
0, 0
0, 0
0, 0
0, 0
0, 0
0, 0
0, 0
0, 0
0, 0
0, 0
0, 0
0, 0
0, 0
0, 0
0, 0
0, 0
0, 0
0, 0
0, 0
0, 0
0, 1
0, 0
0, 0
0, 0
0, 0
0, 0
1, 0
1, 0
0, 0
3, 1
0, 0
1, 0
2, 6
1, 3
2, 1
2, 5
3, 4
3, 1
2, 2
1, 1
6, 6
5, 4
6, 4
16, 22
16, 36
35, 43
44, 53
53, 46
36, 60
31, 34
30, 29
14, 14
6, 10
4, 6
5, 4
5, 7
3, 4
7, 7
8, 4
4, 9
11, 13
8, 18
33, 29
58, 45
97, 99
164, 166
210, 209
215, 249
239, 254
191, 228
175, 164
120, 126
83, 74
36, 41
24, 20
16, 12
8, 9
7, 9
6, 3
6, 8
7, 2
4, 6
4, 4
5, 16
17, 14
37, 37
80, 62
126, 145
235, 276
315, 377
432, 440
471, 543
479, 535
469, 513
359, 394
251, 267
189, 184
98, 133
69, 71
60, 47
46, 47
56, 63
61, 69
81, 81
95, 107
89, 121
99, 136
115, 134
104, 96
78, 126
90, 81
67, 64
50, 72
37, 50
40, 64
40, 42
31, 49
35, 28
27, 24
30, 27
15, 12
26, 14
11, 15
13, 6
15, 11
4, 5
6, 5
4, 4
10, 7
3, 1
3, 5
10, 5
8, 7
8, 12
7, 9
13, 6
10, 15
6, 5
4, 8
6, 4
4, 6
2, 4
4, 3
7, 7
6, 4
8, 12
19, 23
22, 20
25, 20
46, 31
32, 36
34, 32
24, 31
28, 23
20, 12
17, 10
15, 8
8, 6
2, 8
7, 7
8, 7
10, 5
6, 9
8, 9
8, 14
8, 2
10, 3
5, 7
7, 6
6, 5
7, 5
5, 4
6, 5
2, 9
6, 5
1, 4
1, 7
3, 9
5, 3
6, 8
3, 8
6, 8
8, 7
14, 9
14, 7
15, 11
12, 16
10, 12
18, 18
20, 15
18, 20
10, 8
14, 8
22, 15
12, 19
10, 13
12, 4
8, 11
7, 15
6, 10
10, 12
5, 25
7, 21
6, 21
8, 24
5, 24
4, 21
2, 26
3, 15
6, 15
8, 15
7, 12
7, 6
11, 13
9, 10
7, 9
3, 6
10, 9
5, 15
18, 14
14, 13
22, 22
22, 30
18, 26
31, 35
40, 28
45, 21
39, 34
39, 25
34, 29
34, 18
35, 24
23, 12
13, 15
19, 16
9, 6
15, 12
18, 23
22, 22
30, 31
35, 43
37, 45
48, 77
43, 62
55, 57
44, 55
56, 52
41, 33
31, 33
27, 19
22, 26
13, 17
14, 17
17, 21
21, 32
55, 54
95, 107
151, 190
257, 386
460, 609
758, 942
1080, 1392
1525, 1886
1779, 2276
2104, 2575
2305, 2564
2280, 2330
2003, 2033
1626, 1656
1233, 1224
894, 799
565, 450
290, 254
200, 160
110, 86
53, 51
26, 21
11, 13
12, 13
13, 13
18, 15
11, 22
9, 18
23, 28
23, 52
45, 54
59, 81
89, 107
163, 213
186, 251
269, 291
297, 375
347, 344
332, 367
312, 353
239, 282
231, 227
177, 140
123, 107
85, 70
67, 51
26, 27
7, 12
13, 9
4, 11
9, 8
15, 8
8, 13
10, 11
10, 13
26, 14
24, 12
22, 16
36, 5
41, 7
42, 10
48, 8
47, 9
54, 5
34, 5
34, 4
21, 7
21, 2
14, 3
15, 5
13, 5
8, 5
4, 8
9, 2
3, 3
3, 3
9, 2
12, 7
8, 7
7, 4
7, 8
7, 10
4, 4
6, 2
5, 4
5, 7
4, 8
9, 2
8, 4
8, 3
3, 6
5, 8
2, 3
6, 6
6, 3
5, 2
9, 3
6, 3
4, 5
5, 7
3, 3
5, 8
5, 4
3, 3
7, 7
2, 4
2, 6
8, 4
3, 7
7, 7
5, 9
3, 3
1, 1
6, 6
7, 2
7, 8
7, 1
4, 4
8, 2
7, 4
5, 5
7, 3
10, 5
5, 3
5, 2
3, 6
1, 2
4, 2
5, 6
3, 4
6, 10
3, 7
6, 5
9, 5
7, 9
3, 11
5, 5
2, 7
3, 3
4, 7
3, 4
0, 5
3, 7
3, 7
3, 7
9, 3
8, 6
4, 3
9, 4
6, 6
7, 7
3, 9
5, 8
10, 4
5, 14
7, 16
8, 20
5, 16
1, 17
4, 14
12, 11
8, 17
5, 8
8, 11
5, 10
7, 5
6, 7
7, 2
3, 3
6, 2
5, 5
4, 4
2, 2
6, 4
5, 2
2, 3
3, 2
0, 6
0, 3
3, 4
2, 9
2, 1
7, 4
1, 4
4, 3
1, 4
3, 0
7, 2
1, 6
3, 0
2, 3
3, 4
0, 7
1, 1
4, 2
4, 2
2, 6
0, 3
8, 6
3, 3
3, 4
10, 6
7, 1
3, 4
4, 5
6, 1
5, 2
13, 2
10, 3
8, 3
7, 3
5, 4
3, 1
3, 0
1, 2
2, 0
3, 2
1, 1
1, 3
3, 3
2, 1
1, 1
1, 3
1, 1
2, 3
2, 1
1, 3
2, 5
2, 4
2, 2
1, 3
3, 2
2, 1
3, 0
4, 1
4, 2
2, 0
2, 3
4, 2
4, 2
4, 2
0, 6
3, 1
1, 1
2, 0
2, 1
4, 0
1, 0
1, 2
4, 3
2, 2
1, 1
1, 4
4, 3
3, 1
1, 1
2, 0
2, 1
0, 0
1, 1
5, 1
3, 1
3, 2
4, 1
2, 2
1, 4
0, 0
2, 0
3, 0
2, 5
1, 1
6, 3
1, 1
2, 4
1, 5
1, 4
3, 2
3, 5
2, 3
5, 5
2, 1
2, 6
3, 5
4, 4
6, 3
4, 8
4, 2
1, 1
4, 0
3, 3
2, 0
2, 1
2, 0
2, 5
1, 0
1, 2
0, 2
1, 5
1, 4
0, 0
4, 2
3, 1
1, 2
2, 4
1, 3
0, 2
1, 1
2, 1
3, 4
2, 3
5, 0
1, 3
0, 0
4, 0
2, 1
2, 2
1, 2
1, 0
1, 4
3, 1
0, 0
1, 2
3, 0
0, 2
0, 2
1, 1
2, 4
1, 2
1, 2
0, 1
0, 2
0, 0
1, 0
3, 3
1, 1
2, 3
0, 2
1, 0
2, 2
1, 0
0, 1
2, 0
0, 1
1, 1
0, 1
0, 1
1, 1
2, 2
1, 1
1, 0
0, 0
0, 1
1, 2
2, 0
2, 0
1, 0
4, 0
1, 0
0, 0
0, 0
2, 1
2, 1
0, 2
0, 0
1, 1
1, 1
1, 0
1, 0
0, 0
0, 1
0, 0
1, 0
0, 1
0, 0
3, 2
0, 0
1, 0
2, 1
2, 0
0, 1
2, 0
1, 0
0, 0
1, 0
1, 0
0, 0
0, 0
2, 1
1, 0
0, 0
0, 1
0, 0
0, 0
0, 0
0, 0
3, 1
0, 1
1, 2
0, 1
2, 1
0, 2
1, 0
0, 0
0, 2
0, 1
1, 1
0, 0
0, 0
0, 1
2, 0
0, 0
0, 0
1, 1
0, 1
0, 1
1, 0
1, 0
0, 1
0, 1
1, 0
0, 1
2, 0
0, 0
0, 0
1, 0
0, 0
0, 0
0, 1
0, 0
0, 1
2, 0
0, 0
0, 4
0, 0
0, 0
1, 0
2, 0
2, 0
0, 0
0, 0
1, 1
1, 0
0, 0
0, 0
0, 0
1, 0
1, 0
1, 0
1, 1
1, 1
0, 0
1, 0
0, 1
1, 1
0, 0
0, 0
0, 0
0, 0
0, 1
1, 0
0, 0
1, 1
0, 0
0, 0
0, 0
0, 0
1, 0
0, 0
0, 0
1, 0
0, 0
1, 0
0, 0
1, 0
1, 0
0, 0
0, 0
0, 1
0, 0
0, 0
0, 0
0, 0
0, 0
0, 0
2, 0
0, 0
0, 0
0, 0
0, 1
2, 0
0, 0
0, 1
0, 0
0, 0
1, 0
1, 0
0, 0
0, 2
0, 0
1, 0
0, 0
0, 0
0, 0
0, 0
0, 0
0, 0
0, 0
0, 1
0, 1
0, 0
0, 2
0, 0
0, 1
1, 1
1, 1
1, 1
0, 0
0, 0
0, 0
0, 0
0, 1
0, 0
0, 1
0, 0
0, 0
0, 0
0, 0
0, 1
0, 0
0, 0
0, 0
0, 0
0, 1
0, 1
0, 0
1, 2
0, 0
0, 1
0, 0
0, 0
0, 0
0, 0
0, 1
0, 0
0, 0
0, 1
2, 0
0, 0
1, 1
0, 0
0, 0
1, 0
0, 1
0, 0
0, 0
0, 0
1, 0
0, 0
0, 1
1, 1
0, 2
0, 0
0, 0
0, 0
0, 0
0, 0
0, 0
0, 0
0, 0
0, 0
0, 1
0, 1
0, 1
0, 0
0, 0
0, 1
0, 0
0, 0
0, 0
0, 0
0, 2
0, 0
1, 1
0, 0
0, 0
1, 0
0, 0
0, 0
0, 0
0, 0
0, 0
2, 1
0, 0
0, 0
1, 0
0, 0
0, 0
0, 0
0, 0
0, 0
0, 0
0, 0
0, 0
1, 0
0, 0
0, 0
0, 0
0, 0
0, 0
0, 0
0, 0
0, 0
0, 0
0, 0
0, 0
0, 0
0, 0
0, 1
0, 0
0, 0
0, 0
0, 0
0, 0
0, 0
0, 0
0, 0
0, 0
0, 0
0, 0
0, 0
0, 0
0, 1
0, 0
0, 0
0, 0
0, 0
0, 1
0, 0
0, 0
0, 0
0, 0
0, 0
0, 0
0, 0
0, 0
0, 0
0, 1
0, 0
0, 0
0, 0
0, 0
0, 0
0, 0
0, 0
0, 0
0, 0
1, 0
0, 0
0, 0
0, 0
0, 0
0, 0
0, 0
0, 0
0, 0
0, 0
0, 0
0, 0
0, 0
0, 0
0, 0
0, 0
0, 0
0, 0
0, 0
0, 0
0, 1
0, 0
0, 0
0, 0
0, 0
0, 0
0, 0
0, 0
0, 0
0, 0
0, 0
0, 0
0, 0
0, 0
0, 0
1, 0
0, 0
0, 0
0, 0
0, 0
0, 0
1, 0
0, 0
0, 0
0, 0
0, 0
0, 0
1, 0
0, 0
0, 0
0, 0
0, 0
0, 0
0, 0
0, 0
0, 0
0, 0
0, 0
0, 0
0, 0
0, 0
0, 0
0, 0
0, 0
0, 0
0, 0
0, 0
0, 0
0, 0
0, 1
0, 0
0, 0
0, 0
0, 0
0, 0
0, 0
0, 0
0, 0
0, 0
0, 0
0, 0
0, 0
0, 0
0, 0
0, 0
0, 0
0, 0
0, 0
0, 0
0, 0
0, 0
0, 0
0, 0
0, 0
0, 0
0, 0
0, 0
0, 0
0, 0
0, 0
0, 0
0, 0
0, 0
0, 0
0, 0
0, 0
0, 0
0, 0
0, 0
0, 0
0, 0
0, 0
0, 0
0, 0
0, 0
0, 0
0, 0
0, 0
0, 0
0, 0
0, 0
0, 0
0, 0
0, 0
0, 0
0, 0
0, 0
0, 0
0, 0
0, 0
0, 0
0, 0
0, 0
0, 0
0, 0
0, 0
0, 0
0, 0
0, 0
0, 0
0, 0
0, 0
0, 0
0, 0
0, 0
0, 0
0, 0
0, 0
0, 0
0, 0
0, 0
0, 0
0, 0
0, 0
0, 0
0, 0
0, 0
0, 0
0, 0
0, 0
0, 0
0, 0
0, 0
0, 0
0, 0
0, 0
0, 0
0, 0
0, 0
0, 0
0, 0
0, 0
0, 0
0, 0
0, 0
0, 0
0, 0
0, 0
0, 0
0, 0
0, 0
0, 0
0, 1
0, 0
0, 0
0, 0
0, 0
0, 0
0, 0
0, 0
0, 0
0, 0
0, 0
0, 0
0, 0
0, 0
0, 0
0, 0
0, 0
0, 0
0, 0
0, 0
0, 0
0, 0
0, 0
0, 0
0, 0
0, 0
0, 0
0, 0
0, 0
0, 0
0, 0
0, 0
0, 0
0, 0
0, 0
0, 0
0, 0
0, 0
0, 0
0, 0
0, 0
0, 0
0, 0
0, 0
0, 0
0, 0
0, 0
0, 0
0, 0
0, 0
0, 0
0, 0
0, 0
0, 0
0, 0
0, 0
0, 0
0, 0
0, 0
0, 0
0, 0
0, 0
0, 0
0, 0
0, 0
0, 0
0, 0
0, 0
0, 0
0, 0
0, 0
0, 0
0, 0
0, 0
0, 0
0, 0
0, 0
0, 0
0, 0
0, 0
0, 0
0, 0
0, 0
0, 0
0, 0
0, 0
0, 0
0, 0
0, 0
0, 0
0, 0
0, 0
0, 0
0, 0
0, 0
0, 0
0, 0
0, 0
0, 0
0, 0
0, 0
0, 0
0, 0
0, 0
0, 0
0, 0
0, 0
0, 0
0, 0
0, 0
0, 0
0, 0
0, 0
0, 0
0, 0
0, 0
0, 0
0, 0
0, 0
0, 0
0, 0
0, 0
0, 0
0, 0
0, 0
0, 0
0, 0
0, 0
0, 0
0, 0
0, 0
0, 0
0, 0
0, 0
0, 0
0, 0
0, 0
0, 0
0, 0
0, 0
0, 0
0, 0
0, 0
0, 0
0, 0
0, 0
0, 0
0, 0
0, 0
0, 0
0, 0
0, 0
0, 0
0, 0
0, 0
0, 0
0, 0
0, 0
0, 0
0, 0
0, 0
0, 0
0, 0
0, 0
0, 0
0, 0
0, 0
0, 0
0, 0
0, 0
0, 0
0, 0
0, 0
0, 0
0, 0
0, 0
0, 0
0, 0
0, 0
0, 0
0, 0
0, 0
0, 0
0, 0
0, 0
0, 0
0, 0
0, 0
0, 0
0, 0
0, 0
0, 0
0, 0
0, 0
0, 0
0, 0
0, 0
0, 0
0, 0
0, 0
0, 0
0, 0
0, 0
0, 0
0, 0
0, 0
0, 0
0, 0
0, 0
0, 0
0, 0
0, 0
0, 0
0, 0
0, 0
0, 0
0, 0
0, 0
0, 0
0, 0
0, 0
0, 0
0, 0
0, 0
0, 0
0, 0
0, 0
0, 0
0, 0
0, 0
0, 0
0, 0
0, 0
0, 0
0, 0
0, 0
0, 0
0, 0
0, 0
0, 0
0, 0
0, 0
0, 0
0, 0
0, 0
0, 0
0, 0
0, 0
0, 0
0, 0
0, 0
0, 0
0, 0
0, 0
0, 0
0, 0
0, 0
0, 0
0, 0
0, 0
0, 0
0, 0
0, 0
0, 0
0, 0
0, 0
#ENDOFDATA     end of spectrum data