File: host_upload/06-09-2024/ps_0852/dump3/ps__0852shot_2502.msa
#FORMAT      : EMSA/MAS spectral data file
#VERSION     : TC202v2.0 PIXL
#TITLE       : N/A
#DATE        :       Date in the format DD-MMM-YYYY, for example 07-JUL-2010
#TIME        :             The time of day at which the spectrum was recorded, in 24-hour format
#OWNER       : PIXL Flight Model       (PIXL will use this to indicate which instrument took the data.)
#NPOINTS     : 4096     Number of data points in the spectrum (This can be zero for configuration only files)
#NCOLUMNS    : 2     Number of data columns in the spectrum (This can be zero for configuration only files)
#XUNITS      : eV
#YUNITS      : COUNTS
#DATATYPE    : YY
#XPERCHAN    : 7.862, 7.881   eV per channel (separate by commas if more than one detector)
#OFFSET      : 18.5, -22.4         eV of first channel  (separate by commas if more than one detector
#SIGNALTYPE  : XRF
#YP_TEMP     : 2.364
#LIVETIME    : 8.54791, 8.54158   seconds (separate by commas if more than one detector)
#REALTIME    : 10, 10.0   seconds (separate by commas if more than one detector)
#SPECTRUM    : start of spectrum data
0, 0
0, 0
0, 0
0, 0
0, 0
0, 0
0, 0
0, 0
0, 0
0, 0
0, 0
0, 0
0, 0
0, 0
0, 0
0, 0
0, 0
0, 0
0, 0
0, 0
0, 0
0, 0
0, 0
0, 0
0, 0
0, 0
0, 0
0, 0
0, 0
0, 0
0, 0
0, 0
0, 0
0, 0
0, 0
0, 1
1, 0
0, 1
1, 0
2, 1
0, 2
0, 2
0, 1
1, 2
0, 3
2, 2
1, 1
1, 3
5, 5
7, 9
23, 20
51, 37
50, 46
74, 62
62, 51
61, 73
42, 69
40, 31
27, 21
14, 16
9, 5
12, 5
5, 5
6, 2
6, 3
6, 2
10, 5
6, 8
23, 24
41, 35
88, 75
131, 144
217, 251
335, 344
368, 370
374, 392
350, 320
244, 231
175, 184
117, 90
63, 50
37, 34
24, 18
11, 8
2, 5
3, 4
3, 4
3, 2
0, 0
1, 2
2, 2
2, 1
2, 2
3, 1
2, 0
1, 3
3, 4
4, 4
1, 3
1, 0
2, 5
2, 2
3, 4
5, 4
1, 3
5, 1
8, 7
13, 7
10, 11
24, 11
20, 16
22, 21
35, 25
34, 33
59, 49
36, 44
46, 51
42, 27
43, 26
31, 24
43, 24
42, 34
53, 26
63, 17
62, 21
54, 18
52, 13
34, 11
34, 12
39, 7
17, 7
12, 12
9, 4
4, 7
4, 2
2, 1
1, 2
5, 1
1, 2
2, 2
2, 2
3, 0
0, 2
6, 3
1, 2
3, 2
1, 2
2, 3
2, 1
4, 1
2, 1
7, 5
9, 5
6, 8
10, 20
11, 18
19, 12
16, 20
14, 17
16, 20
15, 11
17, 11
15, 6
5, 3
7, 5
11, 2
4, 3
5, 6
6, 2
5, 4
5, 6
6, 4
5, 8
3, 5
5, 5
5, 6
3, 6
6, 8
5, 8
5, 13
3, 12
7, 13
4, 18
5, 15
6, 21
7, 11
10, 16
13, 20
22, 20
32, 44
30, 56
49, 36
50, 51
45, 42
43, 49
29, 33
42, 26
30, 30
24, 27
20, 25
10, 18
17, 20
17, 21
9, 27
8, 20
5, 16
10, 14
11, 11
14, 17
15, 14
15, 11
12, 20
16, 10
7, 14
5, 11
7, 8
10, 7
8, 8
10, 5
7, 10
12, 12
26, 22
21, 32
58, 64
99, 97
172, 176
281, 276
372, 405
497, 522
595, 573
653, 636
637, 540
531, 463
455, 396
356, 235
247, 170
170, 91
91, 57
56, 32
43, 16
25, 23
26, 21
23, 16
23, 20
34, 20
37, 36
33, 43
78, 77
77, 93
131, 114
138, 136
142, 155
159, 162
127, 172
154, 170
110, 149
99, 137
58, 104
40, 107
40, 84
26, 70
28, 66
42, 84
68, 127
143, 179
222, 324
444, 552
670, 897
1029, 1224
1373, 1568
1736, 1925
1978, 2133
2181, 2195
2082, 1965
1854, 1737
1564, 1282
1168, 964
813, 636
511, 392
315, 242
171, 129
93, 38
57, 38
30, 32
16, 33
20, 18
10, 21
9, 30
14, 30
9, 29
24, 29
31, 53
46, 47
73, 87
87, 136
140, 157
194, 199
249, 227
282, 314
309, 354
321, 315
312, 275
289, 224
224, 175
187, 154
126, 85
78, 62
50, 30
34, 20
18, 13
10, 9
13, 12
8, 5
9, 5
12, 10
7, 12
11, 14
9, 16
11, 10
10, 13
10, 6
15, 12
9, 11
11, 9
2, 3
3, 5
9, 2
2, 5
3, 7
1, 3
2, 4
6, 7
5, 2
4, 3
2, 6
2, 1
5, 6
3, 7
7, 7
6, 4
3, 2
4, 2
7, 2
8, 3
5, 3
5, 5
11, 6
2, 3
5, 1
7, 8
8, 3
8, 2
10, 2
4, 3
4, 1
6, 5
4, 5
4, 7
7, 8
1, 5
2, 6
3, 2
5, 7
3, 5
4, 4
6, 3
5, 4
2, 4
5, 4
6, 5
1, 3
4, 6
9, 8
4, 7
1, 5
5, 2
5, 4
0, 3
4, 2
2, 3
2, 5
2, 2
1, 7
3, 1
2, 3
2, 8
3, 6
6, 5
3, 4
1, 1
2, 3
5, 4
2, 5
2, 5
3, 2
6, 2
1, 4
3, 3
4, 9
1, 10
2, 12
3, 9
4, 4
4, 4
3, 4
3, 5
2, 6
5, 5
2, 4
1, 6
3, 5
3, 3
4, 2
1, 4
8, 3
1, 2
0, 1
3, 2
3, 1
3, 4
3, 2
3, 5
0, 1
4, 2
3, 4
2, 4
3, 3
0, 4
1, 5
2, 4
4, 2
0, 1
3, 2
1, 5
2, 2
1, 1
1, 4
2, 5
4, 1
4, 7
3, 4
4, 8
2, 1
2, 6
3, 2
2, 4
3, 1
2, 2
1, 4
2, 4
1, 2
3, 3
3, 2
0, 5
6, 1
1, 0
6, 2
2, 1
2, 1
1, 2
5, 1
2, 2
0, 2
4, 3
1, 1
2, 4
3, 4
1, 1
2, 4
2, 3
1, 2
1, 0
3, 5
2, 1
3, 0
2, 6
4, 1
3, 3
5, 2
2, 1
4, 1
2, 1
2, 1
0, 4
2, 2
2, 2
3, 0
1, 3
1, 4
3, 2
1, 1
0, 1
0, 0
2, 4
2, 2
2, 1
1, 1
3, 4
2, 3
7, 2
3, 7
5, 6
2, 6
7, 4
3, 2
3, 2
3, 2
4, 6
2, 1
2, 4
4, 3
1, 3
2, 4
1, 3
1, 2
0, 6
4, 4
2, 1
1, 2
1, 3
1, 0
2, 1
3, 2
1, 2
4, 1
5, 0
4, 0
2, 0
2, 1
2, 2
1, 1
0, 3
4, 2
2, 1
2, 1
1, 1
2, 3
2, 5
5, 1
3, 1
2, 4
5, 2
6, 5
2, 3
2, 6
3, 0
0, 2
4, 3
2, 1
3, 2
4, 2
2, 0
2, 1
2, 3
2, 0
0, 1
1, 0
1, 1
2, 3
2, 0
0, 1
1, 0
3, 1
2, 2
1, 0
2, 0
0, 2
2, 5
1, 2
4, 1
2, 1
0, 1
0, 1
0, 5
0, 0
0, 2
0, 0
2, 2
0, 1
0, 0
1, 0
2, 0
2, 0
0, 2
1, 1
0, 0
0, 0
1, 1
1, 0
2, 2
2, 1
0, 0
0, 0
2, 0
0, 2
1, 0
1, 0
0, 2
0, 1
1, 0
1, 1
1, 2
0, 0
1, 1
0, 1
0, 2
1, 2
1, 0
0, 0
5, 2
0, 1
0, 2
0, 0
0, 1
0, 0
0, 0
1, 2
1, 1
1, 0
2, 2
0, 0
2, 3
1, 2
0, 0
1, 0
1, 3
0, 0
1, 2
1, 0
2, 0
0, 0
0, 3
1, 1
2, 0
0, 1
0, 1
0, 1
2, 1
0, 1
2, 0
0, 0
1, 1
2, 0
0, 1
0, 3
1, 1
1, 1
0, 1
1, 1
0, 0
0, 0
2, 0
0, 2
1, 0
0, 0
0, 1
0, 1
0, 2
0, 1
1, 0
2, 1
0, 0
0, 1
0, 0
1, 0
1, 0
1, 0
0, 0
0, 1
0, 1
1, 1
0, 0
0, 0
1, 0
0, 0
0, 1
0, 0
0, 0
0, 1
0, 0
0, 1
0, 0
0, 1
0, 0
1, 0
1, 0
2, 0
0, 0
0, 0
2, 0
1, 0
1, 0
1, 0
0, 0
0, 0
0, 0
0, 1
0, 0
0, 0
1, 1
0, 1
0, 0
0, 0
1, 0
0, 2
0, 1
2, 0
0, 0
0, 1
0, 1
0, 0
0, 1
0, 0
1, 0
1, 0
0, 0
1, 0
0, 0
0, 0
0, 0
0, 1
0, 0
0, 1
0, 0
1, 0
0, 0
0, 0
0, 1
0, 0
0, 0
0, 1
0, 0
0, 1
1, 1
1, 0
0, 0
1, 1
0, 0
0, 1
1, 0
0, 2
0, 0
0, 1
0, 0
0, 0
0, 0
0, 1
1, 1
0, 0
0, 1
1, 0
0, 0
0, 0
0, 0
0, 0
0, 0
0, 0
0, 1
0, 0
0, 0
0, 0
1, 0
0, 1
0, 0
0, 0
0, 0
0, 1
0, 0
0, 0
0, 0
0, 0
2, 0
0, 0
0, 0
0, 0
0, 0
0, 0
0, 0
1, 0
0, 0
0, 1
1, 0
0, 0
0, 0
0, 0
0, 0
2, 0
0, 0
2, 0
1, 0
0, 0
0, 0
0, 0
0, 0
0, 0
0, 0
1, 0
0, 0
0, 0
0, 0
0, 0
1, 0
1, 0
0, 1
0, 0
0, 0
0, 1
2, 0
0, 0
0, 1
0, 0
0, 0
1, 0
0, 0
0, 0
0, 0
0, 0
0, 0
1, 0
0, 0
0, 0
0, 0
0, 0
0, 1
0, 0
0, 0
0, 0
0, 0
1, 0
0, 0
0, 0
0, 0
0, 0
0, 0
0, 0
0, 0
0, 0
0, 1
0, 0
0, 0
0, 0
0, 0
0, 0
0, 0
0, 0
0, 0
0, 0
0, 0
0, 0
0, 0
0, 0
0, 0
0, 0
0, 0
0, 2
0, 0
2, 0
0, 1
0, 0
0, 0
0, 0
0, 0
0, 0
0, 0
0, 0
0, 0
0, 0
0, 0
0, 0
0, 0
0, 0
0, 0
0, 0
0, 0
0, 0
0, 0
1, 0
1, 0
0, 0
0, 0
0, 0
0, 0
0, 0
0, 0
0, 0
0, 0
0, 1
0, 0
0, 0
0, 0
0, 0
0, 0
0, 0
0, 0
0, 0
0, 0
0, 0
0, 0
0, 0
0, 0
0, 1
0, 0
1, 0
0, 0
0, 0
0, 0
0, 0
0, 0
0, 0
0, 0
0, 0
0, 0
0, 0
0, 0
0, 0
0, 0
0, 0
0, 0
0, 0
0, 0
0, 0
0, 0
0, 0
0, 0
1, 0
0, 0
0, 0
0, 0
0, 0
0, 1
0, 0
0, 0
0, 0
0, 0
0, 0
0, 0
0, 0
0, 0
0, 0
1, 0
0, 0
0, 0
0, 0
0, 0
0, 0
0, 0
0, 0
0, 0
0, 0
0, 0
0, 0
0, 0
0, 0
0, 0
0, 0
0, 0
0, 0
0, 0
0, 0
0, 0
0, 0
0, 0
0, 0
0, 0
0, 0
0, 0
0, 0
0, 0
0, 0
0, 0
0, 0
0, 0
0, 0
0, 0
0, 0
0, 0
0, 0
0, 0
0, 0
0, 0
0, 0
0, 0
0, 0
0, 0
0, 0
0, 0
0, 0
0, 0
0, 0
0, 0
0, 0
0, 0
0, 0
0, 0
0, 0
0, 0
0, 0
0, 0
0, 0
0, 0
0, 1
0, 0
0, 0
0, 0
0, 0
0, 0
0, 0
0, 0
0, 0
0, 0
0, 0
0, 0
0, 0
0, 0
0, 0
0, 0
0, 0
0, 0
0, 0
0, 0
0, 0
0, 0
0, 0
0, 0
0, 0
0, 0
0, 0
0, 0
0, 0
0, 0
0, 0
0, 0
0, 0
0, 0
0, 0
0, 0
0, 0
0, 0
0, 0
0, 0
0, 0
0, 0
0, 0
0, 0
0, 0
0, 0
0, 0
0, 0
0, 0
0, 0
0, 0
0, 0
0, 0
0, 0
0, 0
0, 0
0, 0
0, 0
0, 0
0, 0
0, 0
0, 0
0, 0
0, 0
0, 0
0, 0
0, 0
0, 0
0, 0
0, 0
0, 0
0, 0
0, 0
0, 0
0, 0
0, 1
0, 0
0, 0
0, 0
0, 0
0, 0
0, 0
0, 0
0, 0
0, 0
0, 0
0, 0
0, 0
0, 0
0, 0
0, 0
0, 0
0, 0
0, 0
0, 0
0, 0
0, 0
0, 0
0, 0
0, 0
0, 0
0, 0
0, 0
0, 0
0, 0
0, 0
0, 0
0, 0
0, 0
0, 0
0, 0
0, 0
0, 0
0, 0
0, 0
0, 0
0, 0
0, 0
0, 0
0, 0
0, 0
0, 0
0, 0
0, 0
0, 0
0, 0
0, 0
0, 0
0, 0
0, 0
0, 0
0, 0
0, 0
0, 0
0, 0
0, 0
0, 0
0, 0
0, 0
0, 0
0, 0
0, 0
0, 0
0, 0
0, 0
0, 0
0, 0
0, 0
0, 0
0, 0
0, 0
0, 0
0, 0
0, 0
0, 0
0, 0
0, 0
0, 0
0, 0
0, 0
0, 0
0, 0
0, 0
0, 0
0, 0
0, 0
0, 0
0, 0
0, 0
0, 0
0, 0
0, 0
0, 0
0, 0
0, 0
0, 0
0, 0
0, 0
0, 0
0, 0
0, 0
0, 0
0, 0
0, 0
0, 0
0, 0
0, 0
0, 0
0, 0
0, 0
0, 0
0, 0
0, 0
0, 0
0, 0
0, 0
0, 0
0, 0
0, 0
0, 0
0, 0
0, 0
0, 0
0, 0
0, 0
0, 0
0, 0
0, 0
0, 0
0, 0
0, 0
0, 0
0, 0
0, 0
0, 0
0, 0
0, 0
0, 0
0, 0
0, 0
0, 0
0, 0
0, 0
0, 0
0, 0
0, 0
0, 0
0, 0
0, 0
0, 0
0, 0
0, 0
0, 0
0, 0
0, 0
0, 0
0, 0
0, 0
0, 0
0, 0
0, 0
0, 0
0, 0
0, 0
0, 0
0, 0
0, 0
0, 0
0, 0
0, 0
0, 0
0, 0
0, 0
0, 0
0, 0
0, 0
0, 0
0, 0
0, 0
0, 0
0, 0
0, 0
0, 0
0, 0
0, 0
0, 0
0, 0
0, 0
0, 0
0, 0
0, 0
0, 0
0, 0
0, 0
0, 0
0, 0
0, 0
0, 0
0, 0
0, 0
0, 0
0, 0
0, 0
0, 0
0, 0
0, 0
0, 0
0, 0
0, 0
0, 0
0, 0
0, 0
0, 0
0, 0
0, 0
0, 0
0, 0
0, 0
0, 0
0, 0
0, 0
0, 0
0, 0
0, 0
0, 0
0, 0
0, 0
0, 0
0, 0
0, 0
0, 0
0, 0
0, 0
0, 0
0, 0
0, 0
0, 0
0, 0
0, 0
0, 0
0, 0
0, 0
0, 0
0, 0
0, 0
0, 0
0, 0
0, 0
0, 0
0, 0
0, 0
0, 0
0, 0
0, 0
0, 0
0, 0
0, 0
0, 0
0, 0
0, 0
0, 0
0, 0
0, 0
0, 0
0, 0
0, 0
0, 0
0, 0
0, 0
0, 0
0, 0
0, 0
0, 0
0, 0
0, 0
0, 0
0, 0
0, 0
0, 0
0, 0
0, 0
0, 0
0, 0
0, 0
0, 0
0, 0
#ENDOFDATA     end of spectrum data