File: host_upload/06-09-2024/ps_0852/dump3/ps__0852shot_2575.msa
#FORMAT      : EMSA/MAS spectral data file
#VERSION     : TC202v2.0 PIXL
#TITLE       : N/A
#DATE        :       Date in the format DD-MMM-YYYY, for example 07-JUL-2010
#TIME        :             The time of day at which the spectrum was recorded, in 24-hour format
#OWNER       : PIXL Flight Model       (PIXL will use this to indicate which instrument took the data.)
#NPOINTS     : 4096     Number of data points in the spectrum (This can be zero for configuration only files)
#NCOLUMNS    : 2     Number of data columns in the spectrum (This can be zero for configuration only files)
#XUNITS      : eV
#YUNITS      : COUNTS
#DATATYPE    : YY
#XPERCHAN    : 7.862, 7.881   eV per channel (separate by commas if more than one detector)
#OFFSET      : 18.5, -22.4         eV of first channel  (separate by commas if more than one detector
#SIGNALTYPE  : XRF
#YP_TEMP     : 2.171
#LIVETIME    : 8.54917, 8.59341   seconds (separate by commas if more than one detector)
#REALTIME    : 10, 10.0   seconds (separate by commas if more than one detector)
#SPECTRUM    : start of spectrum data
0, 0
0, 0
0, 0
0, 0
0, 0
0, 0
0, 0
0, 0
0, 0
0, 0
0, 0
0, 0
0, 0
0, 0
0, 0
0, 0
0, 0
0, 0
0, 0
0, 0
0, 0
0, 0
0, 0
0, 0
0, 0
0, 0
0, 0
0, 0
0, 0
0, 0
0, 0
0, 0
0, 0
0, 1
1, 1
0, 1
0, 1
1, 2
0, 4
0, 9
2, 14
0, 14
2, 13
1, 15
3, 3
1, 2
1, 4
2, 3
3, 5
8, 8
18, 22
32, 37
50, 65
70, 65
72, 80
68, 78
58, 47
41, 30
28, 23
16, 15
12, 3
3, 5
5, 3
1, 5
2, 4
5, 4
5, 5
8, 6
26, 17
39, 46
102, 88
198, 166
290, 294
360, 370
392, 426
455, 434
364, 376
295, 279
205, 191
132, 121
77, 57
38, 32
18, 19
7, 13
10, 3
2, 0
2, 1
0, 3
1, 4
0, 1
1, 2
2, 1
1, 1
0, 1
3, 1
4, 2
3, 7
8, 2
1, 6
3, 11
4, 7
1, 4
6, 6
1, 11
3, 13
0, 13
6, 19
8, 36
12, 57
17, 130
29, 244
35, 356
39, 515
52, 701
33, 771
54, 773
38, 693
38, 618
25, 384
26, 261
17, 164
22, 84
24, 42
17, 30
17, 28
13, 18
9, 13
15, 12
5, 9
6, 7
4, 5
7, 3
5, 3
3, 3
5, 2
3, 3
5, 2
4, 3
7, 1
7, 5
5, 2
4, 1
0, 1
0, 3
1, 2
1, 0
1, 3
0, 4
2, 2
1, 3
1, 0
5, 4
4, 4
4, 3
10, 9
7, 14
15, 13
11, 9
16, 13
20, 10
12, 6
14, 6
12, 6
6, 5
9, 6
6, 2
8, 5
12, 4
18, 3
11, 2
13, 5
5, 1
11, 6
7, 5
8, 10
6, 14
5, 18
4, 26
6, 28
4, 33
5, 23
13, 24
11, 26
5, 29
6, 10
5, 16
5, 5
3, 11
3, 6
2, 9
9, 7
8, 6
15, 10
8, 11
5, 14
10, 18
11, 17
13, 16
12, 13
13, 12
16, 14
20, 16
23, 6
28, 4
39, 5
44, 3
42, 9
30, 5
23, 11
24, 9
24, 7
15, 9
14, 6
15, 12
6, 8
3, 6
6, 8
9, 6
7, 8
3, 8
5, 12
9, 15
5, 23
5, 14
5, 16
10, 26
12, 36
14, 41
6, 25
9, 37
18, 32
20, 15
19, 21
22, 20
22, 16
31, 10
48, 8
36, 6
54, 5
56, 6
52, 8
46, 12
35, 13
28, 9
27, 13
24, 18
31, 23
45, 42
38, 59
71, 52
68, 64
62, 45
55, 69
49, 39
44, 41
35, 33
24, 21
27, 15
17, 23
17, 13
18, 15
23, 33
44, 45
98, 96
135, 172
288, 367
519, 613
745, 959
1129, 1331
1621, 1797
2041, 2156
2303, 2322
2440, 2477
2388, 2164
2057, 1913
1733, 1532
1322, 1123
907, 759
551, 405
343, 236
186, 131
99, 71
54, 37
30, 25
19, 12
11, 18
8, 10
17, 14
15, 23
27, 27
27, 28
27, 43
47, 57
59, 76
104, 163
154, 182
205, 236
234, 310
310, 329
368, 357
346, 331
345, 347
300, 285
277, 210
181, 162
146, 121
84, 63
54, 35
22, 29
20, 11
15, 10
7, 8
8, 7
5, 9
18, 13
13, 12
14, 11
9, 19
12, 13
8, 19
16, 11
11, 10
6, 8
6, 10
8, 9
6, 7
10, 5
4, 4
2, 2
5, 4
3, 6
6, 6
1, 5
4, 6
4, 2
7, 9
7, 9
2, 15
5, 15
8, 24
12, 19
10, 18
9, 25
7, 13
5, 9
7, 15
7, 12
3, 9
9, 8
8, 5
7, 5
6, 6
6, 5
3, 7
0, 3
4, 5
4, 5
4, 6
0, 6
3, 6
4, 3
3, 6
6, 3
2, 2
2, 2
2, 4
2, 3
5, 2
3, 2
4, 3
9, 4
5, 4
7, 2
4, 9
4, 6
4, 4
5, 2
6, 9
6, 6
3, 6
7, 9
6, 5
6, 7
5, 4
5, 3
4, 7
5, 4
7, 6
6, 4
6, 3
2, 6
4, 10
2, 5
1, 6
4, 4
3, 2
7, 4
6, 7
5, 3
4, 4
3, 4
6, 5
7, 5
3, 6
5, 6
4, 3
5, 4
8, 3
6, 8
1, 5
1, 5
4, 5
3, 3
4, 2
3, 3
4, 2
1, 3
6, 2
4, 2
2, 4
7, 3
7, 5
3, 6
6, 4
5, 8
3, 4
1, 6
6, 3
5, 2
4, 4
5, 5
6, 2
4, 4
7, 2
1, 4
4, 4
6, 2
8, 4
2, 4
3, 4
6, 2
12, 4
2, 3
9, 1
8, 3
6, 4
8, 6
6, 4
8, 2
7, 3
4, 4
6, 1
3, 6
5, 7
3, 6
4, 3
4, 3
4, 8
3, 4
2, 6
4, 2
2, 4
3, 3
1, 3
1, 3
3, 5
5, 0
5, 1
1, 4
0, 2
2, 1
4, 3
2, 1
7, 2
2, 0
2, 4
4, 2
3, 2
5, 2
1, 3
5, 0
5, 2
5, 0
5, 2
1, 1
3, 1
4, 2
1, 3
1, 2
2, 0
4, 2
2, 2
2, 3
2, 0
1, 3
1, 1
1, 2
2, 1
2, 2
3, 3
3, 3
1, 0
1, 0
2, 0
0, 3
1, 1
0, 4
3, 1
2, 2
5, 2
1, 3
1, 3
0, 4
1, 4
2, 1
3, 1
0, 2
3, 2
0, 2
3, 1
3, 1
3, 5
1, 1
3, 3
2, 2
4, 1
3, 3
1, 2
2, 1
2, 0
2, 4
4, 3
3, 1
3, 3
2, 2
1, 0
5, 5
1, 1
2, 2
2, 3
1, 2
9, 6
5, 3
7, 2
7, 5
1, 4
5, 7
4, 4
4, 3
0, 2
3, 1
1, 4
1, 1
4, 1
0, 0
1, 2
1, 1
1, 2
0, 4
1, 2
1, 1
0, 1
0, 1
1, 1
2, 4
1, 0
2, 3
1, 1
0, 2
0, 1
0, 1
0, 2
2, 1
2, 3
0, 0
1, 2
0, 1
2, 1
0, 0
0, 0
2, 1
0, 0
0, 1
1, 0
1, 1
1, 1
1, 1
1, 0
2, 0
2, 0
0, 1
1, 0
2, 1
0, 3
2, 0
0, 1
1, 1
1, 2
2, 2
2, 2
0, 0
3, 1
1, 0
0, 0
2, 2
0, 1
1, 1
2, 1
1, 2
0, 0
1, 1
1, 0
2, 2
1, 4
1, 1
2, 2
0, 1
3, 1
1, 1
0, 0
0, 0
1, 0
0, 3
2, 2
0, 1
1, 1
2, 2
1, 2
1, 0
0, 0
1, 1
0, 1
1, 0
0, 0
0, 0
2, 2
0, 1
0, 1
0, 0
1, 1
1, 1
0, 0
0, 1
0, 2
1, 1
0, 2
0, 0
0, 0
1, 1
0, 0
0, 0
0, 0
1, 0
0, 0
0, 1
0, 0
0, 1
0, 0
0, 1
0, 0
0, 0
1, 0
0, 0
2, 0
1, 0
0, 1
1, 0
1, 1
0, 0
0, 0
0, 1
1, 0
2, 2
0, 1
0, 1
2, 0
0, 0
1, 0
1, 0
0, 1
1, 1
6, 1
0, 0
2, 0
0, 1
0, 0
1, 1
0, 0
3, 0
0, 0
0, 0
0, 1
1, 0
1, 0
0, 1
0, 0
0, 0
1, 0
0, 1
0, 0
0, 0
0, 0
0, 0
2, 0
0, 1
0, 1
0, 0
0, 1
0, 1
0, 1
2, 1
1, 2
2, 0
1, 1
0, 0
0, 0
0, 0
0, 0
0, 0
0, 0
0, 1
0, 1
1, 2
0, 1
0, 0
1, 0
0, 0
0, 0
1, 1
0, 0
1, 0
0, 0
0, 1
1, 2
0, 2
0, 0
0, 0
1, 0
0, 1
0, 0
0, 0
1, 1
0, 0
0, 1
1, 0
0, 0
0, 0
0, 1
0, 0
1, 0
0, 0
0, 0
0, 0
0, 0
1, 0
0, 1
0, 0
0, 0
0, 1
0, 0
1, 0
0, 1
0, 0
0, 1
0, 1
0, 0
0, 0
0, 0
0, 0
0, 0
1, 1
1, 0
0, 0
0, 0
0, 1
0, 0
0, 0
0, 2
0, 0
0, 1
0, 0
0, 0
0, 0
0, 0
0, 0
1, 0
1, 1
0, 0
0, 0
1, 0
0, 0
1, 0
0, 0
0, 0
0, 0
0, 0
1, 0
0, 0
0, 0
0, 0
1, 0
0, 1
0, 0
0, 0
0, 1
0, 1
0, 1
0, 0
0, 0
1, 0
0, 0
1, 0
0, 0
0, 0
0, 2
0, 0
0, 0
0, 1
1, 0
0, 0
0, 0
1, 0
0, 0
0, 1
0, 0
0, 0
0, 0
0, 0
0, 0
0, 0
0, 0
0, 0
0, 0
1, 0
0, 0
0, 1
1, 0
0, 0
0, 0
0, 0
0, 0
0, 0
0, 0
0, 1
0, 0
0, 0
0, 0
0, 0
0, 0
0, 0
0, 0
0, 0
0, 0
2, 0
1, 0
0, 0
1, 1
0, 0
1, 0
1, 0
1, 0
0, 0
0, 0
0, 0
0, 0
0, 0
0, 0
0, 1
0, 0
0, 0
0, 0
0, 0
0, 0
0, 0
0, 0
1, 0
0, 0
0, 0
0, 0
0, 0
0, 0
0, 0
0, 0
0, 0
0, 0
0, 0
0, 0
0, 0
0, 0
0, 0
0, 0
0, 0
0, 0
0, 0
0, 0
0, 0
0, 0
1, 0
0, 0
0, 0
0, 0
0, 0
0, 0
0, 0
0, 0
0, 0
0, 0
0, 0
0, 0
0, 0
0, 0
0, 0
0, 0
0, 0
1, 0
0, 0
0, 0
0, 0
0, 0
0, 0
0, 0
0, 0
0, 0
0, 0
0, 1
0, 0
0, 0
0, 0
0, 0
0, 0
0, 0
0, 0
0, 0
1, 0
0, 0
0, 0
0, 0
1, 0
0, 0
0, 0
0, 0
0, 0
0, 0
0, 0
0, 1
0, 0
0, 0
0, 0
0, 0
0, 0
0, 0
0, 0
0, 0
0, 0
0, 0
0, 0
0, 1
0, 0
0, 0
0, 0
0, 0
0, 0
0, 0
0, 0
0, 0
0, 0
0, 0
0, 0
0, 0
0, 0
0, 0
0, 0
0, 0
0, 0
0, 0
0, 0
0, 0
0, 0
0, 0
0, 0
0, 0
0, 0
0, 0
0, 0
0, 0
0, 0
0, 1
0, 0
0, 0
0, 0
0, 0
0, 0
0, 0
0, 0
0, 0
0, 0
0, 0
0, 0
0, 0
0, 0
0, 0
0, 0
0, 0
0, 0
0, 0
0, 0
0, 0
0, 0
0, 0
0, 0
0, 0
0, 0
0, 0
0, 0
0, 0
0, 0
0, 0
0, 0
0, 0
0, 0
0, 0
0, 0
0, 0
0, 0
0, 0
0, 0
0, 0
0, 0
0, 0
0, 0
0, 0
0, 0
0, 0
0, 0
0, 0
0, 0
0, 0
0, 0
0, 0
0, 0
0, 0
0, 0
0, 0
0, 0
0, 0
0, 0
0, 0
0, 0
0, 0
0, 0
0, 0
0, 0
0, 0
0, 0
0, 0
0, 0
0, 0
0, 0
0, 0
0, 0
0, 0
0, 0
0, 0
0, 0
0, 0
0, 0
0, 0
0, 0
0, 0
0, 0
0, 0
0, 0
0, 0
0, 0
0, 0
0, 0
0, 0
0, 0
0, 0
0, 0
0, 0
0, 0
0, 0
0, 0
0, 0
0, 0
0, 0
0, 0
0, 0
0, 0
0, 0
0, 0
0, 0
0, 0
0, 0
0, 0
0, 0
0, 0
0, 0
0, 0
0, 0
0, 0
0, 0
0, 0
0, 0
0, 0
0, 0
0, 0
0, 0
0, 0
0, 0
0, 0
0, 0
0, 0
0, 0
0, 0
0, 0
0, 0
1, 0
0, 0
0, 0
0, 0
0, 0
0, 0
0, 0
0, 0
0, 0
0, 0
0, 0
0, 0
0, 0
0, 0
0, 0
0, 0
0, 0
0, 0
0, 0
0, 0
0, 0
0, 0
0, 0
0, 0
0, 0
0, 0
0, 0
0, 0
0, 0
0, 0
0, 0
0, 0
0, 0
0, 0
0, 0
0, 0
0, 0
0, 0
0, 0
0, 0
0, 0
0, 0
0, 0
0, 0
0, 0
0, 0
0, 0
0, 0
0, 0
0, 0
0, 0
0, 0
0, 0
0, 0
0, 0
0, 0
0, 0
0, 0
0, 0
0, 0
0, 0
0, 0
0, 0
0, 0
0, 0
0, 0
0, 0
0, 0
0, 0
0, 0
0, 0
0, 0
0, 0
0, 0
0, 0
0, 0
0, 0
0, 0
0, 0
0, 0
0, 0
0, 0
0, 0
0, 0
0, 0
0, 0
0, 0
0, 0
0, 0
0, 0
0, 0
0, 0
0, 0
0, 0
0, 0
0, 0
0, 0
0, 0
0, 0
0, 0
0, 0
0, 0
0, 0
0, 0
0, 0
0, 0
0, 0
0, 0
0, 0
0, 0
0, 0
0, 0
0, 0
0, 0
0, 0
0, 0
0, 0
0, 0
0, 0
0, 0
0, 0
0, 0
0, 0
0, 0
0, 0
0, 0
0, 0
0, 0
0, 0
0, 0
0, 0
0, 0
0, 0
0, 0
0, 0
0, 0
0, 0
0, 0
0, 0
0, 0
0, 0
0, 0
0, 0
0, 0
0, 0
0, 0
0, 0
0, 0
0, 0
0, 0
0, 0
0, 0
0, 0
0, 0
0, 0
0, 0
0, 0
0, 0
0, 0
0, 0
0, 0
0, 0
0, 0
0, 0
0, 0
0, 0
0, 0
0, 0
0, 0
0, 0
0, 0
0, 0
0, 0
0, 0
0, 0
0, 0
0, 0
0, 0
0, 0
0, 0
0, 0
0, 0
0, 0
0, 0
0, 0
0, 0
0, 0
0, 0
0, 0
0, 0
0, 0
0, 0
0, 0
0, 0
0, 0
0, 0
0, 0
0, 0
0, 0
0, 0
0, 0
0, 0
0, 0
0, 0
0, 0
0, 0
0, 0
0, 0
0, 0
0, 0
0, 0
0, 0
0, 0
0, 0
0, 0
0, 0
0, 0
0, 0
0, 0
0, 0
0, 0
0, 0
0, 0
0, 0
0, 0
0, 0
0, 0
0, 0
0, 0
0, 0
0, 0
0, 0
0, 0
0, 0
0, 0
0, 0
0, 0
0, 0
0, 0
0, 0
0, 0
0, 0
0, 0
0, 0
0, 0
0, 0
0, 0
0, 0
#ENDOFDATA     end of spectrum data