File: host_upload/06-09-2024/ps_0852/dump3/ps__0852shot_2067.msa
#FORMAT      : EMSA/MAS spectral data file
#VERSION     : TC202v2.0 PIXL
#TITLE       : N/A
#DATE        :       Date in the format DD-MMM-YYYY, for example 07-JUL-2010
#TIME        :             The time of day at which the spectrum was recorded, in 24-hour format
#OWNER       : PIXL Flight Model       (PIXL will use this to indicate which instrument took the data.)
#NPOINTS     : 4096     Number of data points in the spectrum (This can be zero for configuration only files)
#NCOLUMNS    : 2     Number of data columns in the spectrum (This can be zero for configuration only files)
#XUNITS      : eV
#YUNITS      : COUNTS
#DATATYPE    : YY
#XPERCHAN    : 7.862, 7.881   eV per channel (separate by commas if more than one detector)
#OFFSET      : 18.5, -22.4         eV of first channel  (separate by commas if more than one detector
#SIGNALTYPE  : XRF
#YP_TEMP     : 2.492
#LIVETIME    : 8.55888, 8.56828   seconds (separate by commas if more than one detector)
#REALTIME    : 10, 10.0   seconds (separate by commas if more than one detector)
#SPECTRUM    : start of spectrum data
0, 0
0, 0
0, 0
0, 0
0, 0
0, 0
0, 0
0, 0
0, 0
0, 0
0, 0
0, 0
0, 0
0, 0
0, 0
0, 0
0, 0
0, 0
0, 0
0, 0
0, 0
0, 0
0, 0
0, 0
0, 0
0, 0
0, 0
0, 0
0, 0
0, 0
0, 0
0, 0
0, 0
0, 1
0, 1
0, 2
0, 1
3, 1
1, 1
0, 1
0, 3
0, 1
2, 1
2, 3
0, 2
2, 3
3, 4
4, 2
8, 6
7, 8
34, 25
37, 34
54, 64
65, 67
75, 82
69, 59
66, 57
37, 35
28, 26
11, 12
12, 12
4, 2
2, 0
4, 4
6, 5
6, 6
6, 5
9, 17
24, 28
44, 51
86, 107
198, 191
280, 290
343, 375
405, 459
423, 470
355, 369
287, 271
167, 204
137, 122
56, 67
38, 52
27, 21
15, 15
13, 12
13, 3
8, 8
4, 1
5, 5
5, 0
8, 3
2, 1
3, 1
4, 1
5, 1
4, 6
7, 4
4, 5
6, 1
2, 7
7, 3
3, 5
5, 1
1, 2
3, 9
3, 10
3, 9
7, 11
12, 25
16, 32
23, 69
35, 106
34, 125
39, 153
53, 211
33, 198
38, 170
42, 158
35, 150
35, 103
28, 69
23, 35
23, 20
23, 18
18, 25
11, 13
9, 13
12, 13
7, 7
10, 10
8, 6
6, 4
3, 1
5, 3
2, 3
4, 1
1, 2
2, 4
2, 3
5, 4
2, 3
2, 4
6, 6
4, 6
8, 8
1, 3
1, 7
1, 8
0, 7
4, 5
8, 9
12, 20
27, 33
41, 44
34, 43
53, 87
65, 89
84, 108
78, 102
58, 79
55, 77
44, 38
31, 27
20, 19
6, 13
2, 11
13, 12
20, 7
10, 7
18, 12
17, 14
19, 14
19, 21
13, 10
21, 10
16, 9
5, 4
3, 7
6, 2
3, 2
2, 2
4, 3
4, 1
5, 3
1, 5
4, 0
4, 6
5, 6
7, 6
5, 4
13, 11
12, 16
9, 6
10, 10
16, 12
19, 8
14, 16
10, 16
13, 6
11, 8
12, 8
19, 13
7, 4
6, 9
5, 11
3, 9
8, 6
5, 4
1, 8
8, 12
5, 7
10, 3
7, 13
9, 13
2, 19
7, 20
4, 30
5, 22
2, 16
8, 23
3, 21
2, 12
5, 8
8, 13
11, 9
10, 12
10, 10
15, 22
12, 16
17, 31
12, 30
13, 21
20, 15
11, 17
8, 27
17, 22
10, 27
5, 19
8, 18
17, 15
21, 16
22, 11
19, 10
22, 18
11, 12
20, 21
23, 26
26, 44
42, 51
45, 54
58, 70
41, 65
56, 67
57, 42
52, 43
36, 29
21, 14
20, 16
29, 18
26, 25
42, 16
46, 34
71, 59
104, 102
184, 185
315, 327
513, 587
754, 866
1089, 1280
1462, 1651
1816, 2050
2062, 2414
2202, 2440
2210, 2250
2020, 1917
1642, 1519
1277, 1105
917, 796
554, 438
346, 290
205, 160
134, 83
62, 38
43, 28
22, 19
13, 19
11, 13
17, 18
18, 33
18, 26
23, 28
27, 35
47, 54
73, 95
101, 121
148, 179
187, 227
257, 279
294, 323
331, 353
326, 364
302, 322
284, 261
225, 203
190, 157
139, 115
90, 78
58, 49
33, 19
12, 14
15, 15
13, 3
5, 9
6, 14
8, 5
11, 15
11, 12
8, 12
19, 8
14, 13
11, 11
11, 9
11, 8
9, 5
2, 4
6, 4
5, 5
7, 0
8, 1
2, 3
4, 4
2, 6
6, 4
2, 4
3, 5
1, 7
6, 7
7, 10
3, 8
6, 5
0, 4
2, 9
4, 12
3, 10
6, 11
3, 9
6, 11
10, 6
13, 15
9, 3
11, 10
19, 6
16, 4
10, 2
10, 3
11, 4
9, 3
6, 4
6, 2
5, 4
6, 2
4, 9
3, 12
2, 6
2, 4
5, 8
1, 7
1, 6
3, 7
3, 5
5, 3
3, 4
7, 6
2, 4
1, 3
6, 3
8, 6
8, 5
7, 1
14, 4
11, 5
18, 4
16, 6
16, 3
17, 4
4, 2
16, 3
10, 4
9, 5
13, 2
8, 5
9, 2
9, 2
6, 2
9, 4
7, 3
6, 4
10, 6
6, 5
8, 2
3, 2
5, 4
4, 5
4, 6
1, 2
5, 1
4, 9
3, 8
4, 8
5, 6
5, 7
7, 9
1, 8
5, 1
5, 3
2, 3
3, 8
2, 3
2, 2
2, 5
4, 5
3, 1
6, 4
2, 2
4, 7
3, 6
7, 9
1, 7
2, 15
1, 9
2, 17
3, 12
3, 13
2, 17
4, 16
0, 19
0, 17
3, 22
3, 12
2, 7
2, 7
3, 11
3, 6
3, 3
1, 4
2, 1
3, 1
1, 3
2, 5
2, 2
1, 4
3, 4
2, 1
6, 2
2, 4
3, 2
2, 2
3, 2
1, 4
2, 2
2, 4
1, 2
3, 2
3, 8
3, 2
2, 5
2, 3
0, 1
4, 2
1, 5
2, 5
1, 1
1, 2
1, 4
4, 4
4, 1
1, 3
6, 4
1, 1
3, 3
1, 4
2, 1
1, 1
4, 0
2, 3
5, 2
4, 3
0, 1
2, 2
3, 0
1, 3
3, 6
4, 4
1, 2
4, 2
3, 2
1, 1
1, 6
1, 2
0, 4
8, 1
5, 2
3, 3
7, 4
2, 4
6, 4
2, 8
2, 2
1, 3
2, 5
3, 1
3, 3
1, 2
3, 1
0, 4
8, 3
0, 1
1, 4
5, 3
3, 1
3, 2
3, 1
0, 2
0, 4
2, 2
4, 1
3, 1
1, 2
0, 4
2, 3
1, 4
2, 3
3, 2
0, 2
4, 0
2, 4
1, 5
0, 5
9, 7
1, 1
3, 1
4, 1
2, 6
5, 4
7, 6
0, 6
4, 1
1, 5
1, 4
0, 4
3, 4
2, 3
2, 4
1, 2
1, 2
3, 1
1, 0
2, 1
1, 0
2, 1
1, 3
1, 0
4, 1
2, 2
0, 3
4, 0
1, 2
1, 2
2, 2
2, 1
1, 3
0, 3
3, 4
1, 2
2, 4
2, 2
3, 7
2, 2
0, 3
1, 2
2, 1
1, 0
1, 3
3, 1
2, 1
0, 2
1, 1
2, 0
3, 1
0, 0
2, 5
1, 2
1, 1
0, 1
2, 1
2, 1
1, 5
2, 1
0, 2
1, 2
2, 1
0, 2
0, 0
1, 1
1, 3
1, 1
0, 2
0, 1
2, 2
1, 2
3, 0
0, 0
0, 0
1, 2
1, 0
0, 1
2, 0
2, 1
1, 1
1, 3
0, 0
1, 1
0, 1
0, 1
0, 0
0, 0
1, 0
3, 1
0, 2
1, 1
1, 0
1, 1
1, 1
0, 3
2, 2
1, 0
1, 0
2, 0
0, 1
0, 0
1, 0
0, 0
3, 0
0, 2
1, 0
2, 1
1, 1
0, 1
1, 1
0, 1
1, 0
0, 2
0, 1
1, 1
0, 1
0, 2
0, 3
0, 0
1, 0
0, 0
0, 0
0, 1
1, 0
2, 0
2, 0
1, 2
1, 0
1, 3
2, 1
0, 1
1, 0
0, 1
2, 1
1, 0
0, 1
1, 0
0, 0
0, 0
0, 0
1, 2
2, 0
0, 1
1, 0
0, 1
0, 0
1, 1
2, 0
0, 2
0, 0
2, 1
1, 2
1, 1
1, 0
1, 1
0, 0
2, 0
0, 0
0, 1
0, 0
0, 0
0, 1
1, 0
0, 0
1, 2
0, 0
0, 0
1, 0
0, 0
0, 0
1, 1
1, 0
1, 0
0, 0
0, 0
0, 0
1, 1
0, 1
0, 0
0, 0
0, 1
0, 0
0, 1
2, 0
0, 1
0, 0
0, 0
0, 0
0, 0
0, 0
0, 0
0, 0
0, 0
0, 0
0, 0
0, 0
0, 0
0, 0
1, 0
2, 0
1, 0
0, 1
0, 1
0, 2
0, 0
0, 2
0, 0
0, 1
0, 0
1, 0
0, 0
1, 0
1, 0
0, 0
0, 0
0, 0
0, 0
3, 0
0, 1
0, 0
0, 1
0, 0
2, 0
0, 0
0, 0
1, 0
1, 0
0, 0
0, 0
1, 0
1, 0
0, 0
0, 0
0, 0
0, 0
0, 0
0, 0
0, 0
0, 0
0, 1
0, 1
0, 1
0, 1
0, 0
0, 0
1, 1
0, 0
0, 0
0, 0
0, 0
0, 0
0, 0
0, 0
0, 1
0, 0
0, 1
0, 0
0, 0
1, 0
0, 1
0, 0
0, 1
0, 0
0, 0
1, 0
0, 0
0, 0
0, 0
0, 0
0, 0
0, 0
0, 0
1, 0
0, 0
0, 2
0, 0
0, 0
0, 0
0, 1
0, 0
0, 0
0, 0
0, 1
0, 0
0, 0
1, 0
0, 1
0, 0
0, 0
1, 0
0, 1
0, 0
0, 0
0, 1
1, 0
0, 0
0, 0
0, 0
1, 1
0, 1
0, 0
0, 1
0, 0
0, 0
0, 0
0, 0
0, 0
0, 0
0, 0
0, 0
0, 0
0, 1
0, 0
0, 0
0, 0
0, 0
0, 0
0, 0
0, 0
0, 0
0, 0
0, 0
2, 0
0, 0
0, 0
0, 0
0, 0
0, 0
0, 0
0, 0
0, 0
0, 0
0, 0
0, 0
0, 0
0, 0
0, 0
0, 0
0, 0
1, 0
0, 0
0, 0
0, 0
0, 0
0, 0
0, 0
0, 1
0, 0
0, 0
0, 0
0, 0
0, 0
0, 0
0, 0
0, 0
0, 0
0, 0
0, 0
1, 0
0, 0
0, 0
0, 0
0, 0
0, 0
0, 0
0, 0
0, 0
0, 0
0, 0
1, 0
0, 0
0, 0
0, 0
0, 0
0, 0
0, 0
0, 0
0, 0
0, 0
0, 0
0, 0
0, 1
0, 0
0, 0
0, 0
0, 0
0, 0
0, 0
0, 0
0, 0
0, 0
0, 0
0, 0
0, 0
0, 0
0, 0
0, 0
0, 0
0, 0
0, 0
0, 0
0, 0
0, 0
0, 0
0, 0
0, 0
0, 0
0, 0
0, 0
0, 0
0, 0
0, 0
0, 0
1, 0
0, 0
0, 0
0, 0
0, 0
0, 0
0, 0
0, 0
0, 0
0, 0
0, 0
0, 0
0, 0
0, 0
0, 0
0, 0
0, 0
0, 0
0, 0
0, 0
0, 0
0, 0
0, 0
0, 0
0, 0
0, 0
0, 0
0, 0
0, 0
0, 0
0, 0
0, 0
0, 0
0, 0
0, 0
0, 0
0, 0
0, 0
0, 0
0, 0
0, 0
0, 0
0, 0
0, 0
0, 0
0, 0
0, 0
0, 0
0, 0
0, 0
0, 0
0, 0
0, 0
0, 0
0, 0
0, 0
0, 0
0, 0
1, 0
0, 0
0, 0
0, 1
1, 0
0, 0
0, 0
0, 0
0, 0
0, 0
0, 0
0, 0
0, 0
0, 0
0, 0
0, 0
0, 0
0, 0
0, 0
0, 0
0, 0
0, 0
0, 0
0, 0
0, 0
0, 0
0, 0
0, 0
0, 0
0, 0
0, 0
0, 0
0, 0
0, 0
0, 0
0, 0
0, 0
0, 0
0, 0
0, 0
0, 0
0, 0
0, 0
0, 0
0, 0
0, 0
0, 0
0, 0
0, 0
0, 0
0, 0
0, 0
0, 0
0, 0
0, 0
0, 0
0, 0
0, 0
0, 0
0, 0
0, 0
0, 0
0, 0
0, 0
0, 0
0, 0
0, 0
0, 0
0, 0
0, 0
0, 0
0, 0
0, 0
0, 0
0, 0
0, 0
0, 0
0, 0
0, 0
0, 0
0, 0
0, 0
0, 0
0, 0
0, 0
0, 0
0, 0
0, 0
0, 0
0, 0
0, 0
0, 0
0, 0
0, 0
0, 0
0, 0
0, 0
0, 0
0, 0
0, 0
0, 0
0, 0
0, 0
0, 0
0, 0
0, 0
0, 0
0, 0
0, 0
0, 0
0, 0
0, 0
0, 0
0, 0
0, 0
0, 0
0, 0
0, 0
0, 0
0, 0
0, 0
0, 0
0, 0
0, 0
0, 0
0, 0
0, 0
0, 0
0, 0
0, 0
0, 0
0, 0
0, 0
0, 0
0, 0
0, 0
0, 0
0, 0
0, 0
0, 0
0, 0
0, 0
0, 0
0, 0
0, 0
0, 0
0, 0
0, 0
0, 0
0, 0
0, 0
0, 0
0, 0
0, 0
0, 0
0, 0
0, 0
0, 0
0, 0
0, 0
0, 0
0, 0
0, 0
0, 0
0, 0
0, 0
0, 0
0, 0
0, 0
0, 0
0, 0
0, 0
0, 0
0, 0
0, 0
0, 0
0, 0
0, 0
0, 0
0, 0
0, 0
0, 0
0, 0
0, 0
0, 0
0, 0
0, 0
0, 0
0, 0
0, 0
0, 0
0, 0
0, 0
0, 0
0, 0
0, 0
0, 0
0, 0
0, 0
0, 0
0, 0
0, 0
0, 0
0, 0
0, 0
0, 0
0, 0
0, 0
0, 0
0, 0
0, 0
0, 0
0, 0
0, 0
0, 0
0, 0
0, 0
0, 0
0, 0
0, 0
0, 0
0, 0
0, 0
0, 0
0, 0
0, 0
0, 0
0, 0
0, 0
0, 0
0, 0
0, 0
0, 0
0, 0
0, 0
0, 0
0, 0
0, 0
0, 0
0, 0
0, 0
0, 0
0, 0
0, 0
0, 0
0, 0
0, 0
0, 0
0, 0
0, 0
0, 0
0, 0
0, 0
0, 0
0, 0
0, 0
0, 0
0, 0
0, 0
0, 0
0, 0
0, 0
0, 0
0, 0
0, 0
0, 0
0, 0
0, 0
0, 0
0, 0
0, 0
0, 0
0, 0
0, 0
0, 0
0, 0
0, 0
0, 0
0, 0
0, 0
0, 0
0, 0
0, 0
0, 0
0, 0
0, 0
0, 0
0, 0
0, 0
0, 0
0, 0
0, 0
0, 0
0, 0
0, 0
0, 0
0, 0
0, 0
0, 0
0, 0
0, 0
0, 0
0, 0
0, 0
0, 0
0, 0
0, 0
0, 0
0, 0
0, 0
0, 0
0, 0
0, 0
0, 0
0, 0
0, 0
0, 0
0, 0
0, 0
0, 0
0, 0
0, 0
0, 0
0, 0
0, 0
0, 0
0, 0
0, 0
0, 0
0, 0
0, 0
0, 0
0, 0
0, 0
0, 0
0, 0
0, 0
0, 0
0, 0
0, 0
0, 0
0, 0
0, 0
0, 0
0, 0
0, 0
0, 0
0, 0
0, 0
0, 0
0, 0
0, 0
0, 0
0, 0
0, 0
0, 0
#ENDOFDATA     end of spectrum data