File: host_upload/06-09-2024/ps_0852/dump3/ps__0852shot_2498.msa
#FORMAT      : EMSA/MAS spectral data file
#VERSION     : TC202v2.0 PIXL
#TITLE       : N/A
#DATE        :       Date in the format DD-MMM-YYYY, for example 07-JUL-2010
#TIME        :             The time of day at which the spectrum was recorded, in 24-hour format
#OWNER       : PIXL Flight Model       (PIXL will use this to indicate which instrument took the data.)
#NPOINTS     : 4096     Number of data points in the spectrum (This can be zero for configuration only files)
#NCOLUMNS    : 2     Number of data columns in the spectrum (This can be zero for configuration only files)
#XUNITS      : eV
#YUNITS      : COUNTS
#DATATYPE    : YY
#XPERCHAN    : 7.862, 7.881   eV per channel (separate by commas if more than one detector)
#OFFSET      : 18.5, -22.4         eV of first channel  (separate by commas if more than one detector
#SIGNALTYPE  : XRF
#YP_TEMP     : 2.267
#LIVETIME    : 8.55637, 8.56623   seconds (separate by commas if more than one detector)
#REALTIME    : 10, 10.0   seconds (separate by commas if more than one detector)
#SPECTRUM    : start of spectrum data
0, 0
0, 0
0, 0
0, 0
0, 0
0, 0
0, 0
0, 0
0, 0
0, 0
0, 0
0, 0
0, 0
0, 0
0, 0
0, 0
0, 0
0, 0
0, 0
0, 0
0, 0
0, 0
0, 0
0, 0
0, 0
0, 0
0, 0
0, 0
0, 0
0, 0
0, 0
0, 0
0, 1
0, 0
2, 0
0, 0
1, 0
1, 1
0, 1
3, 1
5, 3
1, 1
1, 2
3, 1
3, 3
2, 0
4, 1
2, 0
8, 2
6, 11
21, 31
33, 39
44, 51
69, 60
68, 72
80, 61
46, 63
41, 26
25, 19
24, 12
7, 7
6, 8
6, 3
5, 7
3, 6
5, 3
8, 8
14, 7
22, 24
44, 53
104, 89
170, 195
302, 273
403, 378
483, 451
500, 415
417, 403
334, 266
218, 203
123, 117
79, 55
44, 38
17, 16
17, 6
6, 8
6, 4
2, 0
3, 3
2, 3
4, 1
0, 2
2, 1
4, 1
3, 1
4, 2
4, 2
0, 3
1, 4
6, 4
7, 4
6, 5
3, 5
6, 7
6, 1
4, 2
8, 5
4, 10
17, 14
20, 22
39, 28
48, 44
44, 52
64, 53
60, 55
53, 53
59, 44
56, 39
47, 38
28, 38
31, 33
28, 21
19, 30
19, 33
24, 20
18, 22
13, 19
22, 16
10, 12
10, 6
10, 9
3, 7
7, 4
4, 2
2, 5
1, 2
2, 3
3, 2
2, 2
1, 3
2, 2
3, 2
0, 2
4, 2
2, 3
3, 2
1, 5
3, 1
2, 2
2, 4
2, 4
8, 6
9, 7
13, 17
24, 20
38, 26
47, 28
53, 28
53, 37
47, 48
50, 29
46, 27
34, 22
25, 15
17, 9
18, 8
22, 4
25, 4
42, 9
48, 6
49, 5
46, 4
34, 6
37, 6
23, 2
16, 4
11, 5
16, 3
10, 3
7, 3
4, 4
9, 2
8, 6
3, 6
6, 6
3, 5
9, 2
8, 4
11, 3
7, 3
9, 7
14, 13
5, 7
11, 8
14, 16
12, 19
7, 15
23, 13
11, 11
14, 18
14, 10
11, 19
5, 8
10, 9
9, 6
7, 5
8, 5
9, 7
4, 6
2, 6
10, 5
6, 9
7, 6
7, 5
6, 2
5, 2
3, 8
9, 4
6, 4
5, 4
9, 4
3, 6
2, 10
5, 2
2, 5
6, 3
14, 11
12, 16
12, 21
17, 18
17, 14
14, 20
18, 17
19, 19
15, 9
21, 11
26, 1
15, 13
6, 5
11, 9
7, 4
6, 7
7, 3
10, 10
13, 8
17, 17
25, 12
27, 23
45, 35
43, 47
63, 50
76, 62
68, 65
66, 49
54, 47
56, 38
34, 25
24, 21
23, 14
20, 13
21, 13
16, 19
25, 39
44, 73
95, 94
164, 183
307, 321
448, 518
734, 878
1128, 1296
1558, 1673
1930, 2055
2401, 2282
2390, 2335
2430, 2234
2112, 1845
1807, 1415
1351, 1102
910, 657
539, 427
309, 221
202, 123
115, 55
48, 36
25, 19
17, 11
16, 21
12, 14
6, 20
16, 20
21, 24
23, 19
31, 30
52, 46
59, 87
109, 110
138, 168
198, 228
252, 294
308, 359
401, 335
372, 332
305, 317
324, 266
236, 194
183, 155
147, 104
72, 67
57, 47
35, 20
14, 11
17, 8
11, 8
10, 6
8, 11
10, 11
8, 9
11, 10
8, 17
8, 14
11, 11
10, 12
13, 12
15, 13
10, 7
7, 9
10, 7
12, 5
12, 2
11, 1
16, 5
22, 1
14, 5
15, 6
22, 8
18, 4
21, 8
15, 3
15, 4
17, 7
10, 9
8, 6
10, 6
12, 13
9, 2
14, 7
15, 5
15, 6
17, 7
17, 8
17, 8
13, 6
15, 6
11, 3
10, 3
10, 2
12, 3
5, 6
5, 4
4, 4
5, 3
5, 3
3, 3
0, 4
5, 4
3, 6
5, 3
7, 3
4, 1
5, 3
5, 1
4, 4
6, 2
2, 2
1, 4
2, 4
4, 7
0, 2
3, 5
5, 4
4, 5
1, 1
4, 4
3, 2
2, 4
1, 4
2, 0
1, 4
3, 4
6, 9
2, 5
1, 3
3, 11
6, 8
2, 12
4, 29
1, 26
6, 32
4, 25
3, 30
1, 32
3, 39
2, 27
1, 17
4, 12
3, 6
5, 9
6, 12
6, 12
4, 4
4, 2
5, 3
3, 2
0, 6
2, 2
6, 3
6, 4
2, 3
5, 3
3, 0
1, 1
3, 1
3, 6
3, 3
1, 1
1, 5
8, 1
0, 1
5, 2
3, 3
0, 1
3, 2
4, 3
5, 2
1, 1
5, 2
6, 4
3, 4
4, 1
3, 1
7, 1
3, 4
3, 6
6, 4
1, 3
1, 0
5, 1
3, 2
2, 5
5, 3
2, 2
3, 4
2, 5
1, 3
3, 3
1, 5
5, 3
1, 2
3, 4
3, 1
1, 5
1, 2
2, 1
1, 1
3, 1
5, 4
1, 2
1, 3
3, 1
2, 2
4, 6
5, 1
0, 1
2, 2
5, 3
2, 3
2, 1
2, 4
2, 2
3, 3
1, 1
0, 3
2, 1
1, 3
1, 1
2, 3
1, 2
3, 3
2, 1
5, 1
3, 3
3, 1
2, 1
2, 0
2, 2
5, 4
6, 5
5, 1
7, 1
8, 1
4, 0
3, 2
3, 2
3, 4
6, 4
1, 2
5, 2
1, 2
4, 1
2, 3
4, 0
1, 0
3, 5
0, 1
0, 1
2, 4
2, 1
1, 2
5, 4
1, 1
3, 2
1, 0
1, 2
4, 0
2, 2
2, 2
2, 0
0, 2
2, 1
5, 1
2, 3
0, 2
0, 1
1, 2
2, 0
1, 4
3, 1
2, 4
4, 2
6, 5
3, 2
7, 3
4, 3
4, 6
5, 7
3, 2
7, 7
4, 2
6, 5
3, 2
5, 0
3, 3
0, 2
2, 1
1, 3
0, 0
2, 1
2, 3
1, 1
1, 0
1, 0
4, 2
2, 3
3, 2
2, 2
1, 1
2, 3
1, 2
0, 3
1, 2
2, 3
4, 2
0, 2
1, 2
1, 1
1, 3
0, 1
0, 5
2, 0
0, 3
2, 1
0, 1
1, 2
4, 0
1, 2
2, 2
1, 1
2, 2
2, 1
1, 2
2, 2
0, 1
2, 1
1, 0
0, 0
2, 2
1, 1
0, 1
2, 2
1, 1
1, 0
1, 0
1, 0
1, 0
0, 1
2, 0
1, 0
0, 3
0, 0
0, 1
0, 2
0, 0
0, 0
1, 1
1, 2
0, 0
0, 0
0, 2
2, 0
1, 1
1, 1
3, 1
1, 2
1, 0
1, 2
0, 0
1, 0
3, 1
1, 3
0, 0
2, 0
0, 1
0, 0
1, 1
3, 1
1, 0
0, 0
1, 0
1, 2
0, 0
2, 1
0, 0
1, 0
1, 0
1, 2
2, 0
1, 1
2, 0
4, 1
0, 0
1, 2
1, 1
0, 0
0, 1
0, 1
0, 0
2, 0
0, 0
0, 0
1, 0
0, 1
1, 1
0, 0
0, 1
0, 0
0, 1
0, 1
1, 1
0, 0
0, 0
0, 0
0, 0
1, 0
1, 0
0, 0
0, 0
3, 0
0, 1
0, 0
0, 0
0, 1
0, 0
0, 0
0, 0
1, 1
1, 1
0, 0
1, 0
0, 0
1, 0
1, 0
0, 0
0, 1
0, 0
0, 0
2, 0
0, 0
3, 0
0, 1
1, 0
1, 0
0, 0
0, 1
0, 0
0, 1
0, 0
1, 0
1, 0
1, 0
0, 2
0, 1
0, 2
0, 0
0, 0
1, 1
0, 1
0, 0
0, 1
0, 0
1, 1
0, 0
0, 0
0, 0
1, 0
0, 0
0, 1
0, 0
0, 0
0, 0
0, 0
0, 2
0, 0
0, 1
0, 0
2, 0
1, 0
0, 0
1, 0
2, 0
0, 0
0, 0
1, 0
0, 0
0, 1
0, 0
2, 0
1, 0
0, 0
0, 0
0, 0
0, 0
0, 2
0, 1
0, 0
0, 0
1, 0
0, 1
0, 1
0, 0
0, 0
0, 1
1, 0
0, 0
1, 0
0, 0
0, 0
0, 0
0, 0
0, 0
2, 0
0, 0
0, 1
1, 0
1, 0
0, 0
1, 0
0, 1
0, 2
0, 0
0, 0
0, 2
0, 0
0, 0
0, 0
0, 0
0, 0
0, 0
0, 0
0, 0
0, 0
0, 0
0, 0
0, 1
1, 0
0, 0
0, 0
1, 0
0, 0
1, 0
0, 0
0, 0
0, 0
1, 1
0, 0
1, 0
0, 1
0, 2
1, 0
0, 0
0, 0
1, 0
1, 0
1, 0
0, 0
1, 0
0, 0
0, 0
0, 0
0, 0
0, 0
0, 0
0, 0
0, 0
0, 1
0, 0
0, 0
0, 0
0, 0
0, 0
0, 0
0, 0
0, 0
0, 1
0, 0
0, 0
0, 0
0, 0
0, 0
0, 0
0, 0
0, 0
0, 0
0, 0
0, 1
0, 0
0, 0
1, 0
1, 0
1, 0
0, 0
0, 0
0, 0
0, 0
0, 0
0, 0
0, 0
1, 1
0, 0
0, 0
0, 0
0, 0
1, 0
0, 0
0, 0
0, 0
0, 0
0, 0
0, 0
0, 0
0, 0
0, 0
0, 0
0, 0
0, 0
0, 1
0, 0
1, 0
0, 1
0, 0
1, 0
0, 0
0, 1
0, 0
2, 0
0, 0
1, 0
0, 0
0, 0
0, 0
0, 0
0, 0
1, 0
0, 0
0, 0
0, 0
0, 0
1, 0
0, 0
0, 0
0, 0
0, 0
0, 1
0, 0
1, 0
0, 1
0, 0
0, 0
0, 0
1, 0
0, 0
0, 0
1, 1
0, 0
0, 0
0, 0
0, 0
0, 0
0, 0
0, 0
0, 0
0, 0
0, 0
0, 0
0, 0
0, 1
1, 0
0, 0
0, 0
0, 0
0, 0
0, 0
0, 0
0, 0
0, 0
0, 0
0, 0
0, 0
0, 0
0, 0
0, 0
0, 0
0, 0
0, 0
0, 0
0, 0
0, 0
0, 0
0, 0
0, 0
0, 0
0, 0
0, 0
0, 1
0, 0
0, 0
0, 0
1, 0
0, 0
0, 0
0, 0
0, 0
0, 0
0, 0
0, 0
0, 0
0, 0
0, 0
0, 0
0, 0
0, 0
0, 0
0, 0
0, 0
1, 0
0, 0
0, 0
0, 0
0, 0
0, 0
0, 0
0, 0
0, 0
0, 0
0, 0
0, 0
1, 0
0, 0
0, 0
0, 0
0, 0
0, 0
0, 0
0, 0
0, 0
0, 0
0, 0
0, 0
0, 0
0, 0
0, 0
0, 0
0, 0
0, 0
0, 0
0, 0
0, 0
0, 0
0, 0
0, 0
0, 0
0, 0
0, 0
0, 0
0, 0
0, 0
0, 0
0, 0
0, 0
0, 0
0, 0
0, 0
0, 0
0, 0
0, 0
0, 0
0, 1
1, 0
0, 0
0, 0
0, 0
0, 0
0, 0
0, 0
0, 0
0, 0
0, 0
0, 0
0, 0
0, 0
0, 0
0, 0
0, 0
0, 0
0, 0
0, 0
0, 0
0, 0
0, 0
0, 0
0, 0
0, 0
0, 0
0, 0
0, 0
0, 0
0, 0
0, 0
0, 0
0, 0
0, 0
0, 0
0, 0
0, 0
0, 0
0, 0
0, 0
0, 0
0, 0
0, 0
0, 0
0, 0
0, 0
0, 0
0, 0
0, 0
0, 0
0, 0
0, 0
0, 0
0, 0
0, 0
0, 0
0, 0
0, 0
0, 0
0, 0
0, 0
0, 0
0, 0
0, 0
0, 0
0, 0
0, 0
0, 0
0, 0
0, 0
0, 0
0, 0
0, 0
0, 0
0, 0
0, 0
0, 0
0, 0
0, 0
0, 0
0, 0
0, 0
0, 0
0, 0
0, 0
0, 0
0, 0
0, 0
0, 0
0, 0
0, 0
0, 0
0, 0
0, 0
0, 0
0, 0
0, 0
0, 0
0, 0
0, 0
0, 0
0, 0
0, 0
0, 0
0, 0
0, 0
0, 0
0, 0
0, 0
0, 0
0, 0
0, 0
0, 0
0, 0
0, 0
0, 0
0, 0
0, 0
0, 0
0, 0
0, 0
0, 0
0, 0
0, 0
0, 0
0, 0
0, 0
0, 0
0, 0
0, 0
0, 0
0, 0
0, 0
0, 0
0, 0
0, 0
0, 0
0, 0
0, 0
0, 0
0, 0
0, 0
0, 0
0, 0
0, 0
0, 0
0, 0
0, 0
0, 0
0, 0
0, 0
0, 0
0, 0
0, 0
0, 0
0, 0
0, 0
0, 0
0, 0
0, 0
0, 0
0, 0
0, 0
0, 0
0, 0
0, 0
0, 0
0, 0
0, 0
0, 0
0, 0
0, 0
0, 0
0, 0
0, 0
0, 0
0, 0
0, 0
0, 0
0, 0
0, 0
0, 0
0, 0
0, 0
0, 0
0, 0
0, 0
0, 0
0, 0
0, 0
0, 0
0, 0
0, 0
0, 0
0, 0
0, 0
0, 0
0, 0
0, 0
0, 0
0, 0
0, 0
0, 0
0, 0
0, 0
0, 0
0, 0
0, 0
0, 0
0, 0
0, 0
0, 0
0, 0
0, 0
0, 0
0, 0
0, 0
0, 0
0, 0
0, 0
0, 0
0, 0
0, 0
0, 0
0, 0
0, 0
0, 0
0, 0
0, 0
0, 0
0, 0
0, 0
0, 0
0, 0
0, 0
0, 0
0, 0
0, 0
0, 0
0, 0
0, 0
0, 0
0, 0
0, 0
0, 0
0, 0
0, 0
0, 0
0, 0
0, 0
0, 0
0, 0
0, 0
0, 0
0, 0
0, 0
0, 0
0, 0
0, 0
0, 0
0, 0
0, 0
0, 0
0, 0
0, 0
0, 0
0, 0
0, 0
0, 0
0, 0
0, 0
0, 0
0, 0
0, 0
0, 0
0, 0
0, 0
0, 0
0, 0
0, 0
0, 0
0, 0
0, 0
0, 0
0, 0
0, 0
0, 0
0, 0
0, 0
0, 0
0, 0
0, 0
0, 0
0, 0
0, 0
0, 0
0, 0
0, 0
0, 0
0, 0
0, 0
0, 0
0, 0
0, 0
0, 0
0, 0
0, 0
0, 0
0, 0
0, 0
0, 0
0, 0
0, 0
0, 0
0, 0
0, 0
0, 0
0, 0
0, 0
0, 0
0, 0
0, 0
0, 0
0, 0
0, 0
0, 0
0, 0
0, 0
0, 0
0, 0
0, 0
0, 0
0, 0
0, 0
0, 0
0, 0
0, 0
0, 0
0, 0
0, 0
0, 0
#ENDOFDATA     end of spectrum data