File: host_upload/06-09-2024/ps_0852/dump3/ps__0852shot_2484.msa
#FORMAT      : EMSA/MAS spectral data file
#VERSION     : TC202v2.0 PIXL
#TITLE       : N/A
#DATE        :       Date in the format DD-MMM-YYYY, for example 07-JUL-2010
#TIME        :             The time of day at which the spectrum was recorded, in 24-hour format
#OWNER       : PIXL Flight Model       (PIXL will use this to indicate which instrument took the data.)
#NPOINTS     : 4096     Number of data points in the spectrum (This can be zero for configuration only files)
#NCOLUMNS    : 2     Number of data columns in the spectrum (This can be zero for configuration only files)
#XUNITS      : eV
#YUNITS      : COUNTS
#DATATYPE    : YY
#XPERCHAN    : 7.862, 7.881   eV per channel (separate by commas if more than one detector)
#OFFSET      : 18.5, -22.4         eV of first channel  (separate by commas if more than one detector
#SIGNALTYPE  : XRF
#YP_TEMP     : 2.332
#LIVETIME    : 8.56292, 8.36737   seconds (separate by commas if more than one detector)
#REALTIME    : 10, 10.0   seconds (separate by commas if more than one detector)
#SPECTRUM    : start of spectrum data
0, 0
0, 0
0, 0
0, 0
0, 0
0, 0
0, 0
0, 0
0, 0
0, 0
0, 0
0, 0
0, 0
0, 0
0, 0
0, 0
0, 0
0, 0
0, 0
0, 0
0, 0
0, 0
0, 0
0, 0
0, 0
0, 0
0, 0
0, 0
0, 0
0, 0
0, 0
0, 0
0, 0
1, 0
0, 0
0, 0
0, 2
0, 0
2, 1
0, 0
3, 1
3, 0
1, 0
0, 1
0, 1
3, 2
1, 2
1, 4
3, 5
11, 14
24, 23
32, 38
56, 64
64, 68
77, 61
59, 73
54, 68
30, 35
20, 30
12, 22
9, 8
4, 9
3, 2
4, 3
5, 8
4, 12
6, 6
9, 2
21, 21
44, 63
94, 80
155, 179
250, 298
341, 403
416, 470
402, 458
376, 419
281, 310
180, 222
127, 154
70, 82
44, 36
12, 23
10, 11
7, 6
1, 2
2, 3
2, 3
3, 1
3, 2
1, 0
3, 1
1, 4
1, 2
3, 3
1, 2
3, 6
5, 6
6, 3
6, 0
6, 1
3, 8
3, 4
3, 1
2, 4
1, 4
9, 4
7, 7
13, 21
17, 28
32, 24
43, 31
48, 50
50, 51
47, 50
44, 59
47, 35
39, 35
27, 37
35, 30
23, 31
17, 26
29, 26
17, 20
14, 28
13, 14
7, 21
10, 13
11, 18
11, 7
8, 6
2, 4
3, 3
5, 1
2, 1
6, 4
0, 2
1, 2
1, 3
1, 2
1, 1
0, 1
2, 2
1, 2
4, 3
3, 2
2, 2
3, 1
3, 4
1, 4
5, 11
10, 10
11, 11
21, 26
36, 34
46, 45
50, 59
51, 59
57, 51
34, 56
41, 33
25, 30
36, 11
22, 9
47, 5
57, 8
57, 7
75, 11
71, 9
73, 10
57, 3
57, 12
37, 11
19, 12
16, 5
6, 5
6, 5
4, 5
4, 3
6, 7
8, 3
3, 6
4, 6
3, 7
5, 1
2, 1
3, 7
10, 9
6, 8
9, 13
16, 11
20, 14
19, 23
13, 19
30, 19
18, 24
18, 24
13, 19
17, 18
20, 9
8, 12
9, 19
4, 7
9, 6
3, 5
10, 8
7, 8
6, 7
6, 5
6, 7
8, 6
10, 4
5, 5
10, 6
1, 6
4, 12
6, 5
3, 15
5, 11
3, 15
6, 10
8, 14
13, 17
14, 17
18, 23
29, 43
39, 51
51, 50
71, 84
82, 92
87, 89
84, 82
92, 73
86, 71
59, 38
61, 30
36, 18
22, 22
13, 11
14, 11
16, 7
12, 16
8, 16
7, 13
24, 17
25, 24
28, 37
38, 41
66, 63
65, 81
54, 92
74, 88
61, 78
57, 59
44, 51
57, 46
39, 34
24, 27
16, 27
12, 18
18, 18
25, 34
34, 52
85, 98
124, 184
243, 360
422, 594
771, 936
1032, 1320
1434, 1861
1878, 2209
2200, 2562
2246, 2603
2151, 2318
1943, 1998
1628, 1621
1175, 1176
867, 772
546, 471
360, 273
154, 150
74, 80
51, 32
27, 28
26, 16
15, 16
23, 14
8, 21
12, 22
17, 18
22, 24
27, 46
56, 65
69, 66
103, 119
168, 180
193, 234
223, 292
297, 354
341, 384
335, 380
323, 359
277, 341
213, 226
167, 159
144, 108
79, 79
52, 42
29, 26
16, 19
9, 7
6, 9
6, 15
6, 6
6, 12
9, 16
19, 13
21, 14
12, 23
15, 17
11, 10
8, 19
8, 20
3, 13
8, 15
7, 13
8, 7
13, 10
21, 6
31, 3
30, 9
41, 6
38, 2
45, 8
55, 2
49, 1
58, 4
49, 1
24, 4
32, 2
18, 11
19, 13
12, 15
9, 13
9, 8
5, 6
7, 13
3, 15
7, 10
4, 7
6, 11
5, 6
3, 7
2, 4
4, 7
10, 10
1, 6
7, 5
3, 3
3, 2
3, 7
3, 2
1, 6
2, 6
3, 5
3, 9
4, 2
5, 6
2, 3
3, 6
6, 5
3, 5
2, 4
4, 3
3, 5
4, 3
3, 1
10, 6
5, 3
5, 5
7, 6
8, 6
4, 3
4, 3
5, 3
6, 4
4, 5
3, 2
4, 2
4, 7
3, 5
4, 5
3, 8
5, 5
6, 3
5, 5
2, 5
11, 5
8, 3
3, 3
7, 2
6, 6
6, 4
12, 7
10, 5
7, 2
8, 4
6, 2
6, 2
3, 2
3, 3
5, 6
1, 6
3, 2
3, 2
2, 5
2, 2
4, 8
2, 4
5, 2
2, 7
1, 4
4, 1
4, 4
1, 2
6, 0
3, 1
5, 2
2, 3
3, 3
1, 4
3, 1
2, 0
1, 3
2, 3
2, 2
0, 1
3, 1
5, 4
3, 1
4, 1
1, 4
5, 2
2, 4
4, 2
2, 3
2, 2
4, 11
4, 6
2, 2
3, 1
1, 4
1, 2
3, 3
2, 1
2, 2
2, 3
2, 3
2, 1
0, 3
2, 4
3, 2
2, 6
1, 4
1, 5
3, 4
2, 4
0, 8
3, 2
0, 3
3, 6
0, 2
2, 5
1, 2
4, 5
4, 6
4, 5
3, 6
4, 5
3, 1
0, 3
3, 1
6, 1
6, 2
1, 1
3, 3
3, 2
3, 5
2, 4
0, 5
2, 6
4, 6
1, 4
1, 2
1, 3
0, 1
2, 3
1, 2
3, 1
3, 5
2, 1
2, 4
3, 1
1, 0
2, 3
3, 1
2, 0
0, 4
2, 1
5, 3
2, 3
1, 2
4, 1
1, 2
1, 0
1, 1
2, 2
1, 1
0, 2
1, 3
3, 2
0, 1
2, 3
2, 2
2, 1
3, 3
4, 0
0, 2
1, 2
2, 1
2, 2
1, 1
0, 2
1, 3
1, 5
1, 3
1, 7
3, 4
7, 4
3, 3
3, 6
5, 7
5, 7
6, 6
6, 4
6, 7
8, 3
5, 3
5, 3
4, 5
6, 2
4, 2
0, 3
1, 1
2, 1
3, 1
2, 0
4, 1
1, 0
2, 1
0, 4
1, 2
2, 3
3, 4
2, 2
2, 0
3, 3
1, 3
2, 0
1, 2
2, 1
3, 2
3, 1
1, 2
2, 4
1, 0
1, 1
2, 1
2, 1
3, 1
1, 0
1, 0
0, 1
0, 1
1, 1
1, 1
0, 0
0, 1
1, 2
0, 1
3, 0
0, 2
2, 0
4, 2
1, 2
0, 2
0, 0
2, 2
0, 3
1, 0
0, 0
3, 1
0, 0
2, 1
2, 0
3, 1
1, 1
0, 1
0, 0
2, 0
0, 0
0, 1
2, 2
1, 2
0, 0
3, 1
1, 1
2, 1
2, 0
2, 0
2, 2
0, 1
2, 0
3, 3
1, 2
1, 0
0, 0
0, 0
0, 1
1, 0
2, 1
1, 0
0, 0
3, 0
1, 1
2, 0
0, 1
1, 0
1, 1
0, 0
0, 1
0, 0
3, 1
1, 2
0, 1
1, 1
2, 0
0, 0
2, 0
0, 0
1, 1
0, 1
0, 0
2, 1
0, 1
0, 0
1, 2
0, 1
0, 0
0, 1
0, 0
0, 2
1, 0
1, 0
1, 1
0, 1
0, 0
0, 0
0, 1
0, 0
1, 1
0, 1
1, 0
1, 1
0, 1
1, 1
1, 0
2, 0
0, 0
1, 0
0, 1
0, 0
0, 1
1, 2
0, 1
2, 1
0, 0
0, 1
0, 0
3, 0
0, 0
1, 1
1, 0
0, 1
0, 0
0, 0
0, 1
0, 2
0, 1
0, 0
0, 0
0, 0
0, 1
0, 0
2, 1
0, 0
1, 0
0, 1
1, 1
1, 0
1, 1
0, 0
2, 0
1, 0
2, 0
1, 1
0, 1
0, 0
1, 0
0, 0
0, 0
0, 1
0, 0
1, 0
0, 0
0, 0
0, 0
1, 1
0, 0
0, 1
1, 0
1, 0
0, 0
0, 0
0, 0
0, 1
0, 0
0, 0
0, 0
0, 0
0, 0
0, 0
0, 0
0, 1
1, 1
0, 0
0, 0
0, 1
0, 0
1, 0
0, 0
0, 0
0, 0
0, 1
2, 0
0, 0
0, 0
0, 0
0, 0
0, 0
1, 0
0, 0
0, 0
2, 0
0, 1
0, 0
0, 1
0, 0
0, 0
1, 0
0, 1
0, 0
0, 0
0, 0
0, 1
0, 1
0, 0
0, 0
1, 0
0, 0
0, 1
0, 0
0, 0
1, 1
0, 0
0, 0
0, 0
0, 1
1, 1
0, 0
0, 0
1, 0
0, 0
0, 0
0, 0
0, 1
0, 0
1, 0
0, 0
0, 1
1, 0
0, 0
1, 0
1, 0
0, 1
2, 0
0, 0
0, 0
0, 0
0, 1
1, 0
1, 0
0, 1
0, 0
0, 0
0, 0
0, 0
0, 1
0, 0
0, 0
0, 0
1, 1
1, 0
1, 0
2, 0
0, 0
0, 0
0, 0
0, 0
0, 0
0, 0
0, 1
0, 1
0, 1
0, 0
0, 1
0, 0
0, 1
1, 1
0, 0
0, 1
0, 0
0, 0
0, 0
0, 0
0, 0
0, 0
0, 0
0, 0
0, 0
1, 0
0, 0
0, 0
0, 2
0, 0
0, 0
0, 0
0, 0
1, 0
1, 0
0, 0
0, 0
0, 0
0, 0
0, 1
0, 0
0, 0
0, 0
0, 0
0, 0
0, 0
0, 0
0, 1
0, 0
0, 0
0, 0
0, 0
0, 0
0, 1
0, 0
0, 0
0, 1
0, 0
0, 1
0, 0
0, 0
0, 0
0, 1
0, 0
0, 0
0, 1
0, 0
0, 0
0, 0
0, 1
0, 0
0, 0
0, 0
0, 0
0, 0
0, 0
0, 0
0, 0
0, 0
0, 0
0, 0
0, 0
0, 1
0, 0
0, 0
0, 0
0, 0
0, 0
0, 0
0, 0
1, 0
0, 0
0, 0
0, 0
0, 0
0, 0
0, 0
0, 0
0, 0
0, 0
0, 0
0, 0
0, 0
1, 0
0, 0
0, 1
0, 0
0, 0
0, 0
0, 0
0, 0
0, 0
1, 0
0, 0
0, 0
0, 0
0, 0
0, 0
0, 0
0, 0
0, 0
0, 0
0, 0
0, 0
0, 0
0, 0
0, 0
0, 1
0, 0
1, 0
0, 0
0, 0
0, 0
0, 0
0, 0
0, 0
0, 0
0, 0
0, 0
0, 0
0, 0
0, 0
0, 0
0, 0
0, 0
0, 0
0, 0
0, 0
0, 0
0, 0
0, 0
0, 0
0, 0
0, 0
0, 0
0, 0
0, 0
0, 0
0, 0
0, 0
0, 0
0, 0
0, 0
0, 0
0, 0
0, 0
0, 0
0, 0
0, 0
0, 0
0, 0
0, 0
0, 0
0, 0
0, 0
0, 0
0, 1
0, 0
0, 0
0, 0
0, 0
0, 0
0, 0
0, 0
0, 0
0, 0
0, 0
0, 0
0, 0
0, 0
0, 0
0, 0
0, 0
0, 0
0, 0
0, 0
0, 0
0, 0
0, 0
0, 0
0, 0
0, 0
0, 0
0, 0
0, 0
0, 0
0, 0
0, 0
0, 0
0, 0
0, 1
0, 0
0, 0
0, 0
0, 0
0, 0
0, 0
0, 0
0, 0
0, 0
0, 0
0, 0
0, 0
0, 0
0, 0
0, 0
0, 0
0, 0
0, 0
0, 0
0, 0
0, 0
0, 0
0, 0
0, 0
0, 0
0, 0
0, 0
0, 0
0, 0
0, 0
0, 0
0, 0
0, 0
0, 0
0, 0
0, 0
0, 0
0, 0
0, 0
0, 0
0, 0
0, 0
0, 0
0, 0
0, 0
0, 0
0, 0
0, 0
0, 0
0, 0
0, 0
0, 0
0, 0
0, 0
0, 0
0, 0
0, 0
0, 0
0, 0
0, 0
0, 0
0, 0
0, 0
0, 0
0, 0
0, 0
0, 0
0, 0
0, 0
0, 0
0, 0
0, 0
0, 0
0, 0
0, 0
0, 0
0, 0
0, 0
0, 0
0, 0
0, 0
0, 0
0, 0
0, 0
0, 0
0, 0
0, 0
0, 0
0, 0
0, 0
0, 0
0, 0
0, 0
0, 0
0, 0
0, 0
0, 0
0, 0
0, 0
0, 0
0, 0
0, 0
0, 0
0, 0
0, 0
0, 0
0, 0
0, 0
0, 0
0, 0
0, 0
0, 0
0, 0
0, 0
0, 0
0, 0
0, 0
0, 0
0, 0
0, 0
0, 0
0, 0
0, 0
0, 0
0, 0
0, 0
0, 0
0, 0
0, 0
0, 0
0, 0
0, 0
0, 0
0, 0
0, 0
0, 0
0, 0
0, 0
0, 0
0, 0
0, 0
0, 0
0, 0
0, 0
0, 0
0, 0
0, 0
0, 0
0, 0
0, 0
0, 0
0, 0
0, 0
0, 0
0, 0
0, 0
0, 0
0, 0
0, 0
0, 0
0, 0
0, 0
0, 0
0, 0
0, 0
0, 0
0, 0
0, 0
0, 0
0, 0
0, 0
0, 0
0, 0
0, 0
0, 0
0, 0
0, 0
0, 0
0, 0
0, 0
0, 0
0, 0
0, 0
0, 0
0, 0
0, 0
0, 0
0, 0
0, 0
0, 0
0, 0
0, 0
0, 0
0, 0
0, 0
0, 0
0, 0
0, 0
0, 0
0, 0
0, 0
0, 0
0, 0
0, 0
0, 0
0, 0
0, 0
0, 0
0, 0
0, 0
0, 0
0, 0
0, 0
0, 0
0, 0
0, 0
0, 0
0, 0
0, 0
0, 0
0, 0
0, 0
0, 0
0, 0
0, 0
0, 0
0, 0
0, 0
0, 0
0, 0
0, 0
0, 0
0, 0
0, 0
0, 0
0, 0
0, 0
0, 0
0, 0
0, 0
0, 0
0, 0
0, 0
0, 0
0, 0
0, 0
0, 0
0, 0
0, 0
0, 0
0, 0
0, 0
0, 0
0, 0
0, 0
0, 0
0, 0
0, 0
0, 0
0, 0
0, 0
0, 0
0, 0
0, 0
0, 0
0, 0
0, 0
0, 0
0, 0
0, 0
0, 0
0, 0
0, 0
0, 0
0, 0
0, 0
0, 0
0, 0
0, 0
0, 0
0, 0
0, 0
0, 0
0, 0
0, 0
0, 0
0, 0
0, 0
0, 0
0, 0
0, 0
0, 0
0, 0
0, 0
0, 0
0, 0
0, 0
0, 0
0, 0
0, 0
0, 0
0, 0
0, 0
0, 0
0, 0
0, 0
0, 0
0, 0
0, 0
0, 0
0, 0
0, 0
0, 0
0, 0
0, 0
0, 0
0, 0
0, 0
0, 0
0, 0
0, 0
0, 0
0, 0
0, 0
0, 0
0, 0
0, 0
0, 0
0, 0
0, 0
#ENDOFDATA     end of spectrum data