File: host_upload/06-09-2024/ps_0852/dump3/ps__0852shot_2449.msa
#FORMAT      : EMSA/MAS spectral data file
#VERSION     : TC202v2.0 PIXL
#TITLE       : N/A
#DATE        :       Date in the format DD-MMM-YYYY, for example 07-JUL-2010
#TIME        :             The time of day at which the spectrum was recorded, in 24-hour format
#OWNER       : PIXL Flight Model       (PIXL will use this to indicate which instrument took the data.)
#NPOINTS     : 4096     Number of data points in the spectrum (This can be zero for configuration only files)
#NCOLUMNS    : 2     Number of data columns in the spectrum (This can be zero for configuration only files)
#XUNITS      : eV
#YUNITS      : COUNTS
#DATATYPE    : YY
#XPERCHAN    : 7.862, 7.881   eV per channel (separate by commas if more than one detector)
#OFFSET      : 18.5, -22.4         eV of first channel  (separate by commas if more than one detector
#SIGNALTYPE  : XRF
#YP_TEMP     : 2.364
#LIVETIME    : 8.55516, 8.57595   seconds (separate by commas if more than one detector)
#REALTIME    : 10, 10.0   seconds (separate by commas if more than one detector)
#SPECTRUM    : start of spectrum data
0, 0
0, 0
0, 0
0, 0
0, 0
0, 0
0, 0
0, 0
0, 0
0, 0
0, 0
0, 0
0, 0
0, 0
0, 0
0, 0
0, 0
0, 0
0, 0
0, 0
0, 0
0, 0
0, 0
0, 0
0, 0
0, 0
0, 0
0, 1
0, 0
0, 0
0, 0
0, 0
0, 0
0, 0
0, 1
0, 0
2, 0
0, 2
3, 1
3, 1
0, 0
1, 2
0, 1
1, 2
2, 3
0, 3
1, 2
3, 3
4, 2
8, 9
18, 21
31, 31
44, 54
74, 70
84, 60
63, 68
51, 63
39, 49
26, 27
11, 14
6, 8
5, 5
7, 2
2, 1
5, 5
2, 5
5, 3
6, 15
21, 13
44, 49
96, 108
174, 162
270, 282
338, 350
448, 415
395, 459
363, 370
253, 287
209, 173
131, 125
67, 54
42, 37
17, 17
12, 12
4, 6
2, 5
2, 5
3, 1
4, 0
6, 2
1, 5
0, 8
8, 11
11, 14
25, 20
40, 33
34, 38
57, 54
60, 71
65, 64
60, 49
55, 46
42, 28
32, 23
21, 13
12, 11
21, 11
17, 12
12, 16
25, 19
25, 23
48, 40
47, 31
63, 55
64, 48
62, 42
48, 44
45, 38
34, 34
38, 30
24, 25
20, 25
29, 29
16, 31
24, 11
13, 18
21, 13
13, 14
13, 16
8, 10
5, 3
6, 6
1, 4
3, 2
5, 2
1, 5
5, 1
3, 1
0, 5
1, 0
6, 3
2, 1
4, 1
1, 1
3, 3
1, 5
3, 2
2, 1
1, 3
2, 1
1, 1
3, 2
5, 4
6, 4
11, 9
12, 11
9, 12
21, 12
19, 16
14, 9
7, 7
14, 10
10, 5
13, 4
14, 2
9, 7
7, 9
2, 6
3, 6
8, 9
2, 6
1, 7
4, 5
8, 8
5, 5
9, 5
3, 5
4, 7
5, 2
4, 5
3, 7
2, 6
3, 5
6, 2
3, 9
4, 3
3, 3
1, 6
6, 3
9, 8
7, 6
5, 11
11, 12
12, 17
9, 9
7, 25
16, 14
17, 19
15, 21
14, 21
9, 16
9, 14
12, 11
14, 4
5, 11
13, 22
9, 13
11, 12
5, 12
15, 14
9, 9
6, 8
4, 2
5, 8
3, 10
7, 5
9, 5
3, 6
6, 7
6, 7
7, 6
7, 5
9, 5
7, 8
5, 6
5, 5
6, 11
15, 10
11, 14
18, 15
7, 21
7, 18
14, 24
18, 5
10, 31
9, 24
6, 15
9, 13
3, 12
7, 10
8, 12
7, 18
5, 14
11, 7
9, 18
17, 20
14, 33
23, 41
31, 55
52, 50
62, 67
51, 54
55, 50
50, 71
51, 57
33, 49
40, 61
20, 96
23, 111
15, 129
28, 176
38, 220
53, 248
107, 290
149, 365
276, 453
442, 727
774, 1056
1136, 1384
1568, 1872
1896, 2281
2170, 2445
2420, 2522
2313, 2327
2097, 2097
1697, 1645
1278, 1176
881, 695
571, 458
347, 285
171, 137
107, 70
54, 49
28, 21
14, 14
15, 10
15, 14
14, 17
12, 10
19, 20
27, 25
30, 40
37, 56
66, 90
104, 106
145, 168
223, 219
252, 339
288, 378
296, 333
354, 380
335, 340
288, 291
276, 220
208, 165
147, 113
121, 79
57, 42
36, 13
31, 13
37, 11
35, 6
27, 7
23, 10
15, 9
11, 12
14, 11
15, 17
17, 15
15, 16
14, 16
8, 11
9, 7
8, 11
8, 12
9, 7
5, 10
9, 6
1, 4
4, 11
7, 10
4, 2
1, 5
5, 5
3, 3
6, 1
2, 6
6, 2
6, 3
9, 8
1, 5
6, 5
6, 5
6, 6
5, 6
4, 2
5, 7
6, 7
9, 5
8, 6
7, 9
8, 1
5, 2
6, 6
1, 10
4, 5
4, 8
4, 3
2, 2
3, 6
2, 6
4, 0
1, 2
6, 1
6, 6
6, 6
5, 3
5, 6
8, 6
8, 4
5, 9
4, 5
2, 10
8, 4
7, 2
7, 4
3, 4
7, 6
6, 2
3, 3
4, 4
6, 2
3, 3
1, 3
4, 4
5, 2
2, 1
4, 2
2, 2
5, 4
7, 1
4, 4
2, 4
4, 3
2, 6
4, 0
5, 2
3, 1
7, 0
8, 4
4, 2
3, 8
6, 5
2, 1
2, 7
1, 1
7, 3
6, 3
2, 2
4, 2
2, 4
5, 7
6, 4
4, 5
2, 2
7, 3
5, 4
3, 1
1, 4
6, 2
3, 0
4, 4
3, 4
3, 3
1, 3
0, 3
1, 3
0, 5
1, 4
2, 4
1, 3
1, 5
2, 2
4, 2
3, 3
4, 5
1, 4
0, 5
4, 3
4, 2
5, 2
6, 1
2, 2
4, 2
2, 5
1, 7
1, 3
3, 4
3, 4
6, 1
3, 7
2, 3
0, 2
1, 4
2, 3
3, 3
3, 4
3, 2
2, 6
3, 2
0, 3
3, 3
1, 0
3, 4
1, 5
3, 5
1, 3
2, 4
5, 3
7, 6
1, 3
6, 2
3, 1
5, 3
3, 5
4, 3
3, 5
5, 1
2, 1
3, 2
1, 2
3, 0
2, 2
1, 0
2, 3
2, 4
0, 0
4, 1
1, 2
2, 5
1, 1
0, 2
2, 1
2, 4
2, 1
1, 0
3, 6
2, 1
2, 1
0, 4
0, 2
1, 4
4, 4
2, 2
2, 4
1, 1
3, 3
4, 3
1, 0
0, 1
1, 2
3, 1
5, 2
1, 3
1, 2
1, 2
3, 1
1, 3
3, 1
3, 3
2, 2
2, 6
1, 1
0, 4
1, 2
0, 3
1, 2
1, 2
3, 2
2, 5
2, 1
0, 3
3, 5
4, 2
2, 3
2, 2
2, 5
2, 4
1, 9
5, 1
1, 6
2, 7
4, 3
0, 7
3, 5
2, 4
1, 2
4, 0
0, 1
4, 3
1, 3
2, 3
0, 3
0, 0
4, 0
1, 1
1, 0
3, 0
0, 2
0, 1
1, 3
1, 1
1, 0
2, 0
2, 2
0, 0
2, 0
5, 3
1, 3
0, 3
0, 3
2, 3
2, 1
3, 0
2, 1
2, 2
1, 3
5, 3
3, 0
3, 1
6, 1
2, 1
1, 1
2, 5
1, 0
0, 1
3, 1
1, 1
2, 1
2, 2
0, 0
2, 1
2, 1
2, 0
0, 1
1, 1
0, 0
0, 1
0, 1
0, 2
1, 0
2, 2
1, 2
2, 1
0, 0
0, 2
0, 3
0, 3
0, 1
2, 0
1, 1
1, 2
3, 3
0, 0
0, 1
1, 0
0, 0
3, 0
0, 2
0, 0
2, 0
0, 3
0, 1
0, 1
0, 0
1, 1
1, 0
0, 0
1, 0
0, 1
0, 0
0, 2
2, 0
0, 1
1, 0
0, 0
1, 1
0, 0
0, 0
1, 1
0, 0
0, 1
1, 0
2, 0
2, 2
0, 2
0, 1
1, 1
1, 1
1, 1
1, 0
0, 2
1, 0
1, 0
0, 1
0, 1
1, 1
1, 1
2, 0
0, 1
0, 0
0, 1
1, 2
0, 1
0, 2
1, 0
0, 0
1, 0
0, 1
0, 0
0, 0
0, 1
0, 2
0, 2
0, 1
0, 0
0, 0
1, 0
0, 1
1, 0
1, 0
2, 1
0, 1
0, 1
0, 1
0, 0
1, 0
1, 1
0, 0
0, 1
0, 0
0, 0
1, 3
1, 0
1, 1
0, 2
1, 0
0, 0
0, 0
0, 1
1, 1
1, 1
1, 1
1, 0
2, 1
0, 0
0, 1
1, 0
0, 1
1, 0
1, 0
1, 2
1, 0
1, 0
0, 0
0, 0
0, 0
0, 0
0, 0
1, 1
1, 0
0, 0
0, 0
1, 1
0, 1
0, 1
1, 0
1, 0
1, 0
1, 0
0, 0
0, 0
1, 0
0, 0
1, 0
0, 0
0, 1
0, 0
1, 0
0, 0
2, 0
0, 0
0, 0
1, 1
0, 0
0, 0
0, 0
0, 0
0, 0
1, 0
0, 0
0, 0
0, 0
0, 0
1, 1
0, 0
0, 0
0, 0
0, 0
0, 0
0, 0
0, 0
0, 0
1, 1
0, 0
0, 2
0, 0
1, 0
2, 0
0, 1
0, 0
0, 0
2, 0
1, 0
0, 0
0, 0
0, 1
0, 0
0, 1
0, 0
1, 1
0, 0
1, 0
0, 0
1, 0
0, 0
0, 0
2, 1
0, 0
0, 2
1, 1
0, 0
0, 0
1, 0
0, 0
0, 0
0, 0
0, 0
0, 0
0, 0
0, 1
0, 0
1, 0
1, 1
1, 0
1, 0
1, 0
0, 0
0, 0
0, 0
0, 0
0, 0
0, 0
0, 0
0, 0
0, 0
0, 0
0, 0
1, 0
0, 0
0, 0
1, 0
0, 0
0, 0
0, 0
0, 0
1, 0
0, 0
0, 0
0, 0
0, 0
0, 0
0, 1
0, 0
0, 1
0, 0
0, 0
0, 0
0, 0
0, 0
0, 0
0, 1
0, 1
1, 0
0, 0
0, 0
0, 1
0, 0
0, 0
0, 0
1, 0
0, 0
0, 0
0, 1
0, 0
0, 1
0, 0
0, 0
0, 1
0, 0
1, 0
0, 0
0, 0
0, 0
0, 0
0, 0
0, 0
0, 0
0, 1
0, 0
0, 0
0, 0
0, 0
0, 0
0, 0
0, 0
0, 0
1, 0
0, 0
0, 0
1, 0
0, 0
0, 0
0, 0
0, 0
0, 0
0, 0
0, 0
0, 0
0, 0
0, 0
0, 0
0, 0
0, 0
0, 0
0, 1
0, 0
0, 0
0, 0
0, 0
0, 0
0, 0
0, 0
0, 0
0, 0
0, 0
0, 0
0, 0
0, 0
1, 0
0, 0
0, 0
0, 0
0, 0
0, 0
0, 0
0, 0
0, 0
0, 0
0, 1
0, 0
0, 0
1, 0
0, 0
0, 0
0, 0
0, 0
0, 0
0, 0
0, 0
0, 0
0, 0
0, 0
0, 0
0, 0
0, 1
0, 0
0, 0
0, 0
0, 0
0, 0
0, 0
0, 0
0, 0
0, 0
1, 0
0, 0
0, 0
0, 0
0, 0
0, 0
0, 0
0, 0
0, 0
0, 0
0, 0
0, 0
0, 0
0, 0
0, 0
1, 0
0, 0
0, 0
0, 0
0, 0
0, 0
0, 0
0, 0
0, 0
0, 0
0, 0
0, 0
0, 0
0, 1
0, 0
0, 0
0, 0
0, 0
0, 0
0, 0
0, 0
0, 0
0, 0
0, 0
1, 0
0, 0
0, 0
1, 0
0, 0
0, 0
0, 0
0, 0
0, 0
0, 0
0, 0
0, 0
0, 0
0, 0
0, 0
0, 0
0, 0
0, 0
0, 0
0, 0
0, 0
0, 0
0, 0
0, 0
0, 0
0, 0
0, 0
0, 0
0, 0
0, 0
0, 0
0, 0
0, 0
0, 0
0, 0
0, 0
0, 0
0, 0
0, 0
0, 0
0, 0
0, 0
0, 0
0, 0
0, 0
0, 0
0, 0
0, 0
0, 0
0, 0
0, 0
0, 0
0, 0
0, 0
0, 0
0, 0
0, 0
0, 0
0, 0
0, 0
0, 0
0, 0
0, 0
0, 0
0, 0
0, 0
0, 0
0, 0
0, 0
0, 0
0, 0
0, 0
0, 0
0, 0
0, 0
0, 0
0, 0
0, 0
0, 0
0, 0
0, 0
0, 0
0, 0
0, 0
0, 0
0, 0
0, 0
0, 0
0, 0
0, 0
0, 0
0, 0
0, 0
0, 0
0, 0
0, 0
0, 0
0, 0
0, 0
0, 0
0, 0
0, 0
0, 0
0, 0
0, 0
0, 0
0, 0
0, 0
0, 0
0, 0
0, 0
0, 0
0, 0
0, 0
0, 0
0, 0
0, 0
0, 0
0, 0
0, 0
0, 0
0, 0
0, 0
0, 0
0, 0
0, 0
0, 0
0, 0
0, 0
0, 0
0, 0
0, 0
0, 0
0, 0
0, 0
0, 0
0, 0
0, 0
0, 0
0, 0
0, 0
0, 0
0, 0
0, 0
0, 0
0, 0
0, 0
0, 0
0, 0
0, 0
0, 0
0, 0
0, 0
0, 0
0, 0
0, 0
0, 0
0, 0
0, 0
0, 0
0, 0
0, 0
0, 0
0, 0
0, 0
0, 0
0, 0
0, 0
0, 0
0, 0
0, 0
0, 0
0, 0
0, 0
0, 0
0, 0
0, 0
0, 0
0, 0
0, 0
0, 0
0, 0
0, 0
0, 0
0, 0
0, 0
0, 0
0, 0
0, 0
0, 0
0, 0
0, 0
0, 0
0, 0
0, 0
0, 0
0, 0
0, 0
0, 0
0, 0
0, 0
0, 0
0, 0
0, 0
0, 0
0, 0
0, 0
0, 0
0, 0
0, 0
0, 0
0, 0
0, 0
0, 0
0, 0
0, 0
0, 0
0, 0
0, 0
0, 0
0, 0
0, 0
0, 0
0, 0
0, 0
0, 0
0, 0
0, 0
0, 0
0, 0
0, 0
0, 0
0, 0
0, 0
0, 0
0, 0
0, 0
0, 0
0, 0
0, 0
0, 0
0, 0
0, 0
0, 0
0, 0
0, 0
0, 0
0, 0
0, 0
0, 0
0, 0
0, 0
0, 0
0, 0
0, 0
0, 0
0, 0
0, 0
0, 0
0, 0
0, 0
0, 0
0, 0
0, 0
0, 0
0, 0
0, 0
0, 0
0, 0
0, 0
0, 0
0, 0
0, 0
0, 0
0, 0
0, 0
0, 0
0, 0
0, 0
0, 0
0, 0
0, 0
0, 0
0, 0
0, 0
0, 0
0, 0
0, 0
0, 0
0, 0
0, 0
0, 0
0, 0
0, 0
0, 0
0, 0
0, 0
0, 0
0, 0
0, 0
0, 0
0, 0
0, 0
0, 0
0, 0
0, 0
0, 0
0, 0
0, 0
0, 0
0, 0
0, 0
0, 0
0, 0
0, 0
0, 0
0, 0
0, 0
0, 0
0, 0
0, 0
0, 0
0, 0
0, 0
0, 0
0, 0
0, 0
0, 0
0, 0
0, 0
0, 0
0, 0
0, 0
0, 0
0, 0
0, 0
0, 0
0, 0
0, 0
0, 0
0, 0
0, 0
0, 0
0, 0
0, 0
0, 0
0, 0
0, 0
0, 0
0, 0
0, 0
0, 0
0, 0
0, 0
0, 0
0, 0
0, 0
0, 0
0, 0
0, 0
0, 0
0, 0
0, 0
0, 0
0, 0
0, 0
0, 0
0, 0
0, 0
0, 0
0, 0
0, 0
0, 0
0, 0
0, 0
0, 0
0, 0
0, 0
0, 0
0, 0
0, 0
0, 0
#ENDOFDATA     end of spectrum data