File: host_upload/06-09-2024/ps_0852/dump3/ps__0852shot_2309.msa
#FORMAT      : EMSA/MAS spectral data file
#VERSION     : TC202v2.0 PIXL
#TITLE       : N/A
#DATE        :       Date in the format DD-MMM-YYYY, for example 07-JUL-2010
#TIME        :             The time of day at which the spectrum was recorded, in 24-hour format
#OWNER       : PIXL Flight Model       (PIXL will use this to indicate which instrument took the data.)
#NPOINTS     : 4096     Number of data points in the spectrum (This can be zero for configuration only files)
#NCOLUMNS    : 2     Number of data columns in the spectrum (This can be zero for configuration only files)
#XUNITS      : eV
#YUNITS      : COUNTS
#DATATYPE    : YY
#XPERCHAN    : 7.862, 7.881   eV per channel (separate by commas if more than one detector)
#OFFSET      : 18.5, -22.4         eV of first channel  (separate by commas if more than one detector
#SIGNALTYPE  : XRF
#YP_TEMP     : 2.3
#LIVETIME    : 8.55904, 8.5526   seconds (separate by commas if more than one detector)
#REALTIME    : 10, 10.0   seconds (separate by commas if more than one detector)
#SPECTRUM    : start of spectrum data
0, 0
0, 0
0, 0
0, 0
0, 0
0, 0
0, 0
0, 0
0, 0
0, 0
0, 0
0, 0
0, 0
0, 0
0, 0
0, 0
0, 0
0, 0
0, 0
0, 0
0, 0
0, 0
0, 0
0, 0
0, 0
0, 0
0, 0
0, 0
0, 0
0, 0
0, 0
0, 0
0, 0
0, 1
1, 0
1, 0
1, 3
1, 0
0, 1
2, 2
0, 2
3, 2
2, 2
3, 3
2, 1
3, 3
2, 3
3, 2
9, 2
16, 5
12, 5
34, 22
42, 33
46, 49
47, 41
52, 34
49, 34
34, 20
16, 11
13, 9
11, 2
6, 7
5, 6
6, 4
5, 5
3, 4
13, 5
12, 7
13, 20
44, 33
81, 79
171, 132
265, 202
329, 278
375, 269
383, 324
386, 277
299, 198
194, 130
103, 66
52, 40
49, 26
21, 12
7, 7
12, 7
6, 5
4, 10
6, 5
4, 5
5, 1
2, 6
5, 6
13, 8
19, 19
37, 35
60, 65
89, 75
130, 130
147, 130
136, 121
147, 108
115, 92
77, 48
35, 45
39, 32
24, 20
19, 26
25, 23
32, 16
30, 39
55, 43
83, 67
91, 95
111, 96
116, 111
130, 130
133, 115
87, 84
83, 59
48, 57
55, 44
46, 32
21, 31
24, 22
26, 22
21, 20
14, 28
20, 20
12, 15
17, 14
9, 6
11, 8
6, 10
6, 4
7, 4
5, 2
8, 8
3, 2
2, 5
4, 8
4, 6
6, 1
4, 6
6, 5
7, 2
6, 2
3, 5
8, 3
13, 7
7, 5
17, 14
39, 25
52, 45
81, 67
147, 119
164, 151
191, 175
211, 156
217, 189
199, 128
163, 101
102, 72
64, 72
48, 31
25, 15
19, 9
17, 8
19, 16
24, 23
33, 30
23, 31
29, 28
39, 28
25, 24
18, 13
19, 15
14, 13
14, 12
12, 9
6, 6
9, 5
9, 6
6, 7
6, 2
6, 7
7, 5
3, 4
6, 6
8, 8
7, 15
9, 4
12, 11
18, 8
17, 13
20, 17
18, 14
18, 15
16, 12
22, 13
25, 12
31, 9
42, 9
47, 9
50, 7
61, 13
64, 8
63, 3
55, 8
41, 9
30, 8
35, 10
25, 16
11, 11
11, 10
10, 12
10, 13
6, 20
7, 19
7, 11
11, 11
13, 13
6, 6
0, 11
7, 21
6, 5
13, 8
16, 18
18, 19
17, 17
22, 28
27, 19
31, 22
30, 24
22, 23
13, 23
14, 8
9, 8
12, 4
11, 4
5, 8
10, 7
10, 6
15, 7
10, 8
17, 13
18, 10
29, 40
31, 30
55, 35
65, 51
66, 65
75, 51
67, 56
63, 42
53, 33
33, 44
36, 28
28, 27
17, 21
19, 22
15, 31
28, 40
44, 51
83, 104
156, 180
289, 300
513, 543
775, 792
1188, 1187
1582, 1574
1988, 1836
2316, 2013
2500, 2126
2442, 2003
2136, 1685
1833, 1365
1394, 952
918, 593
607, 368
366, 249
213, 143
121, 73
58, 44
30, 25
25, 28
9, 20
19, 31
16, 28
23, 33
22, 42
36, 32
29, 45
59, 47
90, 72
130, 126
184, 152
233, 206
282, 255
332, 287
360, 326
389, 312
336, 322
315, 244
233, 180
188, 157
146, 101
83, 49
52, 37
42, 18
22, 11
22, 9
14, 13
13, 6
12, 6
21, 19
14, 4
15, 6
18, 10
17, 14
13, 7
14, 8
15, 9
10, 5
9, 3
2, 8
5, 5
6, 4
2, 4
2, 3
8, 5
3, 5
7, 3
2, 3
5, 5
3, 3
7, 2
7, 5
4, 1
10, 3
3, 8
10, 6
9, 5
6, 4
3, 8
9, 4
7, 3
10, 2
7, 6
7, 5
5, 1
5, 7
6, 11
2, 3
5, 11
3, 4
2, 8
4, 3
4, 4
6, 5
2, 4
10, 7
7, 7
7, 10
5, 3
4, 3
4, 7
4, 4
8, 2
6, 4
8, 5
7, 4
6, 0
2, 3
7, 4
8, 4
6, 5
12, 5
8, 3
7, 4
11, 1
3, 3
6, 1
2, 4
5, 1
6, 3
9, 2
4, 4
7, 3
5, 1
5, 2
5, 2
3, 2
4, 2
7, 4
4, 2
2, 6
3, 0
3, 3
3, 1
3, 4
2, 2
7, 2
5, 2
2, 2
4, 3
3, 1
5, 2
12, 4
9, 3
12, 5
4, 4
6, 1
3, 3
7, 4
6, 7
5, 10
5, 7
3, 11
3, 17
5, 15
3, 18
4, 9
5, 20
3, 11
5, 18
2, 9
4, 14
2, 9
2, 6
1, 6
6, 4
3, 4
2, 2
3, 6
3, 5
3, 5
5, 7
2, 5
2, 3
1, 6
4, 1
3, 2
3, 3
4, 3
3, 0
7, 1
1, 3
3, 4
4, 1
2, 2
3, 1
2, 1
4, 2
1, 2
1, 2
3, 2
3, 1
6, 1
1, 1
3, 3
3, 3
1, 3
1, 2
2, 3
6, 1
3, 2
3, 4
3, 5
1, 1
3, 2
2, 4
3, 2
4, 1
4, 2
4, 3
4, 1
3, 4
6, 6
0, 1
2, 4
0, 1
2, 1
3, 0
4, 5
1, 2
5, 1
3, 0
2, 0
1, 1
2, 3
5, 2
2, 2
3, 0
2, 1
5, 1
5, 4
4, 1
1, 4
3, 3
2, 0
2, 6
5, 0
1, 4
0, 4
1, 2
4, 1
2, 3
5, 2
0, 1
2, 1
1, 2
4, 0
4, 3
0, 0
3, 2
4, 2
4, 2
0, 3
3, 2
1, 3
1, 2
8, 2
3, 2
1, 6
1, 1
3, 2
1, 2
1, 3
5, 5
1, 1
4, 1
2, 3
2, 6
3, 2
3, 0
5, 1
5, 4
5, 2
3, 2
6, 4
0, 2
7, 5
3, 1
3, 0
3, 3
5, 4
3, 3
3, 1
5, 1
2, 3
2, 3
2, 1
1, 0
3, 0
3, 2
2, 1
1, 3
0, 2
2, 0
1, 2
1, 1
1, 0
1, 2
2, 2
0, 1
3, 0
1, 1
0, 2
0, 1
1, 1
4, 2
1, 5
1, 3
2, 1
1, 0
2, 1
1, 1
0, 2
3, 1
2, 1
1, 0
1, 2
0, 0
2, 0
1, 4
0, 0
0, 2
0, 1
1, 2
0, 1
2, 1
2, 1
0, 1
0, 0
0, 1
1, 2
5, 1
1, 0
3, 0
0, 0
4, 1
0, 0
2, 0
1, 2
1, 1
2, 1
1, 0
1, 0
0, 2
0, 0
1, 1
0, 0
1, 1
3, 0
1, 2
0, 1
0, 2
1, 0
0, 1
1, 0
3, 0
1, 1
3, 0
0, 1
1, 0
1, 0
1, 1
0, 0
0, 1
0, 0
1, 1
1, 0
0, 2
1, 0
4, 0
0, 0
2, 0
0, 1
1, 1
2, 0
1, 1
1, 0
1, 1
3, 0
1, 0
0, 0
1, 0
1, 1
0, 1
1, 0
0, 0
0, 0
0, 1
0, 0
2, 0
0, 0
2, 1
1, 1
0, 0
0, 0
1, 1
1, 0
0, 0
0, 1
1, 0
0, 1
0, 1
1, 0
0, 0
1, 1
0, 0
0, 0
0, 0
0, 0
0, 1
0, 0
1, 0
0, 1
0, 0
0, 0
0, 0
1, 1
1, 1
1, 0
0, 0
1, 0
0, 1
0, 0
0, 1
1, 0
0, 0
0, 1
2, 1
0, 0
0, 0
0, 1
2, 0
0, 0
0, 1
0, 0
0, 0
0, 0
0, 0
0, 1
0, 0
0, 1
0, 0
0, 0
1, 1
0, 0
0, 0
0, 1
0, 0
1, 0
0, 0
1, 1
0, 1
2, 0
0, 0
0, 0
0, 0
0, 1
0, 0
0, 0
0, 0
0, 0
0, 0
0, 0
0, 0
1, 0
0, 0
0, 0
0, 0
1, 0
0, 0
0, 1
0, 0
0, 0
0, 2
1, 0
0, 1
0, 0
1, 0
0, 1
0, 1
0, 0
0, 0
1, 1
0, 0
1, 0
0, 0
0, 0
0, 0
0, 0
0, 0
1, 1
0, 0
0, 0
0, 0
0, 0
0, 0
1, 1
0, 0
0, 0
1, 0
0, 0
0, 0
0, 1
0, 1
0, 0
0, 0
0, 0
0, 0
0, 0
0, 0
0, 0
0, 0
0, 0
0, 1
0, 1
0, 0
0, 0
0, 1
0, 0
1, 1
1, 0
1, 0
1, 0
0, 0
0, 0
0, 0
0, 1
1, 0
0, 1
0, 0
0, 0
1, 0
0, 0
0, 0
0, 1
2, 0
0, 1
0, 0
1, 0
1, 0
1, 0
0, 0
0, 0
0, 0
0, 0
0, 0
0, 1
1, 0
0, 0
0, 0
0, 0
0, 0
0, 0
0, 0
0, 0
0, 0
0, 0
0, 0
0, 0
0, 1
0, 1
0, 0
0, 0
0, 1
1, 0
0, 0
0, 0
0, 0
0, 0
0, 0
0, 0
0, 2
0, 1
0, 0
0, 1
0, 0
0, 0
0, 0
0, 0
0, 1
2, 0
0, 0
0, 1
0, 0
0, 0
0, 0
0, 0
0, 0
0, 0
0, 0
0, 0
0, 0
0, 0
0, 0
0, 0
0, 0
0, 0
0, 0
0, 1
0, 0
0, 0
1, 0
0, 0
0, 0
0, 0
0, 0
0, 0
0, 0
0, 1
0, 0
0, 0
0, 0
0, 0
0, 0
0, 0
0, 0
0, 1
0, 1
0, 0
0, 0
0, 0
0, 0
0, 0
0, 0
1, 0
1, 0
1, 0
0, 0
0, 0
0, 0
0, 0
0, 0
0, 0
0, 0
0, 0
0, 0
0, 0
0, 0
1, 0
0, 0
0, 0
0, 0
0, 0
0, 0
0, 0
0, 0
0, 0
0, 0
0, 0
0, 0
0, 0
0, 0
0, 0
0, 0
0, 0
0, 1
0, 0
0, 0
0, 0
0, 0
0, 0
0, 0
0, 0
0, 0
0, 0
0, 0
0, 0
0, 0
0, 0
0, 0
0, 0
0, 0
0, 0
0, 0
0, 0
0, 0
0, 0
0, 0
0, 0
0, 0
0, 0
0, 0
0, 0
0, 0
0, 0
0, 0
0, 0
0, 0
0, 0
0, 0
0, 0
0, 0
0, 0
0, 0
0, 0
0, 0
0, 1
0, 0
0, 0
0, 0
0, 0
1, 0
0, 0
0, 0
0, 0
0, 0
0, 0
0, 0
0, 0
0, 0
0, 0
0, 0
0, 0
0, 0
0, 1
0, 0
0, 0
0, 0
0, 0
0, 0
0, 0
0, 1
0, 0
0, 0
0, 0
0, 0
0, 0
0, 0
0, 0
0, 0
0, 0
0, 0
0, 0
0, 0
0, 0
0, 0
0, 0
0, 0
0, 0
0, 0
0, 0
0, 0
0, 0
0, 0
0, 0
0, 0
0, 0
0, 0
0, 0
0, 0
0, 0
0, 0
0, 0
0, 0
0, 0
0, 0
0, 0
0, 0
0, 0
0, 0
0, 0
0, 0
0, 0
0, 0
0, 0
0, 0
0, 0
0, 0
0, 0
0, 0
0, 0
0, 0
0, 0
0, 0
0, 0
0, 0
0, 0
0, 0
0, 0
0, 0
0, 0
0, 0
0, 0
0, 0
0, 0
0, 0
0, 0
0, 0
0, 0
0, 0
0, 0
0, 0
0, 0
0, 0
0, 0
0, 0
0, 0
0, 0
0, 0
0, 0
0, 0
0, 0
0, 0
0, 0
0, 0
0, 0
0, 0
0, 0
0, 0
0, 0
0, 0
0, 0
0, 0
0, 0
0, 0
0, 0
0, 0
0, 0
0, 0
0, 0
0, 0
0, 0
0, 0
0, 0
0, 0
0, 0
0, 0
0, 0
0, 0
0, 0
0, 0
0, 0
0, 0
0, 0
0, 0
0, 0
0, 0
0, 0
0, 0
0, 0
0, 0
0, 0
0, 0
0, 0
0, 0
0, 0
0, 0
0, 0
0, 0
0, 0
0, 0
0, 0
0, 0
0, 0
0, 0
0, 0
0, 0
0, 0
0, 0
0, 0
0, 0
0, 0
0, 0
0, 0
0, 0
0, 0
0, 0
0, 0
0, 0
0, 0
0, 0
0, 0
0, 0
0, 0
0, 0
0, 0
0, 0
0, 0
0, 0
0, 0
0, 0
0, 0
0, 0
0, 0
0, 0
0, 0
0, 0
0, 0
0, 0
0, 0
0, 0
0, 0
0, 0
0, 0
0, 0
0, 0
0, 0
0, 0
0, 0
0, 0
0, 0
0, 0
0, 0
0, 0
0, 0
0, 0
0, 0
0, 0
0, 0
0, 0
0, 0
0, 0
0, 0
0, 0
0, 0
0, 0
0, 0
0, 0
0, 0
0, 0
0, 0
0, 0
0, 0
0, 0
0, 0
0, 0
0, 0
0, 0
0, 0
0, 0
0, 0
0, 0
0, 0
0, 0
0, 0
0, 0
0, 0
0, 0
0, 0
0, 0
0, 0
0, 0
0, 0
0, 0
0, 0
0, 0
0, 0
0, 0
0, 0
0, 0
0, 0
0, 0
0, 0
0, 0
0, 0
0, 0
0, 0
0, 0
0, 0
0, 0
0, 0
0, 0
0, 0
0, 0
0, 0
0, 0
0, 0
0, 0
0, 0
0, 0
0, 0
0, 0
0, 0
0, 0
0, 0
0, 0
0, 0
0, 0
0, 0
0, 0
0, 0
0, 0
0, 0
0, 0
0, 0
0, 0
0, 0
0, 0
0, 0
0, 0
0, 0
0, 0
0, 0
0, 0
0, 0
0, 0
0, 0
0, 0
0, 0
0, 0
0, 0
0, 0
0, 0
0, 0
0, 0
0, 0
0, 0
0, 0
0, 0
0, 0
0, 0
0, 0
0, 0
0, 0
0, 0
0, 0
0, 0
0, 0
0, 0
0, 0
0, 0
0, 0
0, 0
0, 0
0, 0
0, 0
0, 0
0, 0
0, 0
0, 0
0, 0
0, 0
0, 0
0, 0
0, 0
0, 0
0, 0
0, 0
0, 0
0, 0
0, 0
0, 0
0, 0
0, 0
0, 0
0, 0
0, 0
0, 0
0, 0
0, 0
0, 0
0, 0
0, 0
0, 0
0, 0
0, 0
0, 0
0, 0
0, 0
0, 0
0, 0
0, 0
0, 0
0, 0
0, 0
0, 0
0, 0
0, 0
0, 0
0, 0
0, 0
0, 0
0, 0
0, 0
0, 0
0, 0
0, 0
0, 0
0, 0
0, 0
0, 0
0, 0
0, 0
0, 0
0, 0
0, 0
0, 0
0, 0
0, 0
0, 0
0, 0
0, 0
0, 0
0, 0
0, 0
0, 0
0, 0
0, 0
0, 0
0, 0
0, 0
#ENDOFDATA     end of spectrum data