File: host_upload/06-09-2024/ps_0852/dump3/ps__0852shot_2431.msa
#FORMAT      : EMSA/MAS spectral data file
#VERSION     : TC202v2.0 PIXL
#TITLE       : N/A
#DATE        :       Date in the format DD-MMM-YYYY, for example 07-JUL-2010
#TIME        :             The time of day at which the spectrum was recorded, in 24-hour format
#OWNER       : PIXL Flight Model       (PIXL will use this to indicate which instrument took the data.)
#NPOINTS     : 4096     Number of data points in the spectrum (This can be zero for configuration only files)
#NCOLUMNS    : 2     Number of data columns in the spectrum (This can be zero for configuration only files)
#XUNITS      : eV
#YUNITS      : COUNTS
#DATATYPE    : YY
#XPERCHAN    : 7.862, 7.881   eV per channel (separate by commas if more than one detector)
#OFFSET      : 18.5, -22.4         eV of first channel  (separate by commas if more than one detector
#SIGNALTYPE  : XRF
#YP_TEMP     : 2.524
#LIVETIME    : 8.54777, 8.56048   seconds (separate by commas if more than one detector)
#REALTIME    : 10, 10.0   seconds (separate by commas if more than one detector)
#SPECTRUM    : start of spectrum data
0, 0
0, 0
0, 0
0, 0
0, 0
0, 0
0, 0
0, 0
0, 0
0, 0
0, 0
0, 0
0, 0
0, 0
0, 0
0, 0
0, 0
0, 0
0, 0
0, 0
0, 0
0, 0
0, 0
0, 0
0, 0
0, 0
0, 0
0, 0
0, 0
0, 0
0, 0
0, 0
0, 0
0, 0
0, 0
2, 1
2, 1
0, 0
0, 0
0, 0
2, 2
1, 3
1, 0
3, 1
1, 1
1, 0
2, 1
2, 4
6, 4
13, 11
19, 15
29, 28
59, 41
64, 52
67, 60
62, 45
56, 26
32, 26
31, 18
19, 12
4, 7
6, 5
7, 7
10, 2
8, 5
6, 6
6, 10
10, 12
25, 22
60, 49
119, 78
179, 152
336, 257
473, 358
521, 405
501, 373
461, 369
334, 277
264, 177
154, 118
86, 50
40, 28
15, 15
14, 9
5, 8
6, 11
8, 4
3, 1
2, 4
4, 0
1, 0
3, 1
0, 4
2, 0
5, 3
8, 1
10, 7
15, 11
17, 6
19, 11
14, 11
18, 8
13, 5
7, 4
2, 3
7, 1
10, 5
21, 11
29, 16
37, 31
51, 45
63, 48
66, 57
87, 60
97, 65
71, 50
71, 55
57, 32
34, 35
35, 23
30, 27
31, 22
30, 26
22, 15
27, 26
24, 16
14, 11
19, 5
13, 11
12, 10
9, 5
5, 4
6, 3
2, 2
2, 3
1, 4
5, 3
3, 1
4, 2
4, 1
6, 2
4, 1
1, 4
2, 1
5, 2
9, 1
8, 3
6, 1
6, 2
13, 2
17, 8
26, 14
37, 37
80, 48
100, 76
145, 131
177, 142
173, 176
167, 181
163, 141
122, 99
83, 70
53, 51
26, 30
33, 18
20, 14
16, 9
13, 13
19, 13
30, 23
19, 21
35, 24
22, 18
16, 15
15, 17
13, 14
11, 8
11, 8
10, 5
5, 10
6, 10
3, 11
3, 4
1, 13
4, 7
3, 14
4, 16
7, 31
7, 40
8, 42
7, 71
11, 80
12, 72
16, 74
20, 70
14, 53
13, 49
20, 31
13, 25
14, 19
13, 9
14, 9
10, 6
6, 8
13, 9
7, 4
9, 6
7, 4
7, 4
6, 7
7, 2
8, 6
10, 3
5, 2
12, 6
7, 9
4, 2
7, 5
8, 4
7, 4
1, 6
5, 4
8, 7
6, 9
10, 15
14, 9
13, 18
19, 28
27, 23
33, 38
34, 35
34, 25
27, 38
41, 22
32, 21
20, 14
17, 5
31, 6
15, 11
20, 4
11, 9
13, 7
9, 7
17, 9
18, 13
12, 24
32, 30
34, 40
60, 56
56, 51
73, 45
71, 63
80, 56
55, 45
58, 40
44, 30
35, 28
24, 18
21, 20
15, 25
25, 19
23, 22
44, 40
89, 73
161, 155
282, 259
465, 466
770, 756
1160, 1093
1583, 1461
1978, 1838
2250, 2057
2418, 2109
2351, 1895
2114, 1660
1748, 1341
1331, 953
891, 666
617, 371
370, 228
193, 142
92, 72
70, 40
49, 26
46, 21
32, 10
29, 16
37, 12
40, 15
34, 21
46, 16
41, 28
54, 38
88, 73
108, 103
168, 146
209, 174
306, 256
303, 253
360, 263
382, 279
373, 278
295, 256
251, 156
179, 126
131, 78
76, 58
62, 30
39, 25
14, 10
17, 7
5, 6
12, 7
11, 5
11, 12
14, 18
20, 28
20, 25
15, 33
14, 40
21, 36
5, 40
11, 55
5, 47
4, 41
13, 41
8, 28
9, 36
4, 14
7, 12
4, 10
8, 7
6, 5
6, 2
6, 2
5, 2
5, 3
7, 2
1, 3
3, 4
4, 1
4, 3
8, 5
1, 1
2, 7
7, 9
5, 4
6, 6
2, 2
4, 5
6, 3
1, 5
7, 5
6, 2
6, 2
2, 2
4, 4
3, 5
5, 0
7, 3
4, 3
1, 2
4, 2
4, 4
4, 3
5, 5
2, 3
5, 4
3, 8
5, 7
1, 2
3, 2
5, 5
3, 4
4, 2
7, 4
7, 3
4, 4
4, 4
2, 3
4, 5
7, 2
3, 2
2, 4
2, 8
7, 7
4, 5
3, 2
1, 3
5, 3
8, 2
2, 3
3, 4
3, 1
3, 4
3, 2
10, 0
5, 4
6, 1
3, 5
5, 2
7, 4
8, 1
7, 2
7, 6
9, 1
9, 4
8, 8
4, 2
8, 3
6, 2
5, 5
4, 4
5, 2
4, 3
3, 4
5, 5
2, 1
5, 3
2, 6
6, 5
8, 5
5, 2
3, 4
2, 2
5, 1
6, 3
3, 4
1, 2
5, 2
2, 3
5, 2
2, 3
5, 3
4, 1
4, 7
2, 4
0, 4
2, 1
5, 3
6, 7
3, 2
6, 3
3, 1
2, 5
4, 8
5, 3
3, 4
10, 5
3, 3
8, 5
9, 9
8, 1
6, 5
5, 5
7, 5
4, 7
6, 5
9, 7
11, 4
9, 5
5, 3
11, 5
7, 4
10, 1
5, 2
4, 4
3, 3
3, 2
1, 1
2, 2
2, 4
2, 5
2, 0
3, 3
3, 1
1, 2
2, 1
2, 3
4, 0
2, 0
2, 3
3, 0
4, 1
2, 0
3, 1
1, 3
1, 3
1, 2
4, 2
7, 1
1, 7
3, 4
3, 2
2, 1
2, 2
4, 5
0, 2
0, 3
6, 6
2, 4
3, 4
2, 4
3, 5
1, 4
2, 2
3, 2
2, 3
3, 7
1, 3
3, 2
1, 2
2, 2
2, 3
1, 1
1, 4
4, 5
6, 2
1, 2
4, 1
5, 2
6, 2
3, 1
3, 2
4, 5
4, 2
1, 0
1, 4
3, 5
6, 1
1, 0
3, 1
4, 1
3, 1
2, 0
3, 1
2, 3
1, 2
3, 3
1, 4
5, 7
7, 3
8, 3
3, 2
5, 3
2, 2
2, 2
5, 1
4, 1
3, 0
2, 1
2, 1
4, 1
0, 0
0, 1
0, 2
2, 0
1, 1
2, 2
1, 2
0, 1
3, 1
1, 2
0, 1
2, 2
4, 0
0, 1
1, 2
2, 2
1, 1
3, 2
4, 3
1, 2
2, 1
3, 3
1, 1
4, 0
1, 2
1, 3
2, 2
1, 0
0, 3
2, 0
3, 1
2, 2
1, 0
0, 0
0, 3
2, 0
1, 0
1, 2
0, 0
0, 0
0, 1
0, 3
2, 0
1, 1
1, 2
2, 1
0, 0
0, 2
1, 2
0, 1
0, 1
0, 3
1, 0
0, 0
0, 1
0, 1
3, 0
0, 0
1, 0
1, 0
0, 1
2, 2
0, 1
0, 2
3, 1
0, 0
0, 0
0, 0
2, 1
3, 2
4, 2
2, 0
0, 0
4, 0
0, 0
1, 2
1, 0
2, 1
1, 1
1, 0
0, 1
1, 0
0, 0
1, 0
1, 1
1, 1
2, 0
0, 1
1, 0
0, 1
1, 0
1, 0
2, 0
0, 0
1, 2
1, 1
2, 0
0, 1
1, 0
0, 0
0, 0
0, 0
1, 1
1, 0
0, 1
1, 1
0, 0
1, 1
1, 0
0, 1
1, 0
0, 0
0, 0
0, 0
0, 0
0, 2
1, 0
1, 1
1, 0
2, 0
1, 2
0, 0
2, 1
1, 0
1, 0
0, 1
0, 0
1, 0
0, 0
0, 0
3, 2
0, 3
0, 1
0, 0
0, 0
0, 1
0, 0
1, 0
2, 0
1, 0
0, 0
1, 0
1, 2
1, 0
0, 0
0, 0
1, 1
1, 0
0, 0
0, 0
0, 1
0, 0
4, 0
0, 1
2, 0
0, 0
1, 2
0, 0
0, 2
0, 1
1, 0
0, 0
0, 1
0, 0
1, 0
0, 0
0, 1
0, 0
0, 0
1, 0
0, 1
0, 0
1, 0
0, 0
1, 0
0, 0
0, 0
0, 0
0, 0
0, 0
0, 0
0, 0
2, 1
1, 2
0, 0
0, 0
0, 0
0, 1
2, 0
0, 1
0, 0
0, 0
0, 1
0, 0
1, 0
0, 0
0, 0
0, 1
1, 1
0, 0
0, 0
0, 0
1, 0
0, 0
0, 0
0, 0
0, 0
0, 0
0, 0
1, 2
0, 0
0, 1
0, 0
1, 1
0, 1
0, 0
0, 1
0, 0
0, 0
0, 1
0, 0
1, 0
1, 0
0, 0
0, 1
0, 1
0, 0
1, 0
0, 0
0, 0
0, 0
0, 1
1, 0
2, 0
1, 1
0, 1
0, 1
0, 0
1, 0
0, 0
0, 1
1, 1
0, 0
2, 0
1, 0
0, 0
1, 0
0, 0
0, 1
1, 0
0, 1
0, 0
0, 0
0, 0
0, 0
0, 0
0, 0
0, 0
0, 0
2, 0
0, 1
0, 0
0, 0
0, 0
0, 0
0, 0
0, 1
0, 0
0, 0
0, 0
0, 0
0, 0
0, 0
1, 1
0, 0
0, 0
0, 2
1, 0
0, 0
1, 0
1, 0
0, 0
0, 0
0, 0
0, 0
0, 0
0, 0
0, 0
0, 0
0, 0
0, 0
0, 0
1, 1
0, 0
0, 0
0, 0
1, 0
1, 0
0, 0
0, 0
0, 0
1, 0
1, 0
0, 0
0, 0
0, 0
0, 0
1, 0
2, 0
0, 0
0, 0
0, 0
0, 0
0, 0
0, 0
1, 0
0, 0
0, 0
0, 2
0, 0
0, 0
0, 0
0, 0
0, 0
0, 0
0, 0
0, 0
1, 1
0, 0
0, 0
0, 0
0, 0
0, 0
0, 0
0, 0
0, 0
1, 0
0, 1
0, 0
0, 0
0, 0
1, 0
1, 0
0, 0
0, 0
0, 0
0, 0
0, 0
0, 0
0, 0
0, 0
0, 0
0, 0
0, 0
0, 0
0, 0
0, 0
0, 0
0, 0
0, 1
0, 0
0, 0
0, 0
2, 0
0, 0
0, 0
0, 0
0, 1
0, 0
0, 0
0, 0
0, 0
0, 0
0, 0
0, 0
0, 0
0, 0
0, 0
0, 0
0, 0
0, 0
0, 0
0, 0
0, 0
0, 0
0, 0
0, 0
0, 0
0, 0
0, 0
0, 0
0, 0
0, 0
0, 0
0, 0
0, 1
0, 0
0, 0
0, 0
0, 0
0, 0
0, 0
0, 0
0, 0
0, 0
0, 0
0, 0
0, 0
0, 0
0, 0
0, 0
0, 0
0, 0
0, 0
0, 0
0, 0
0, 1
0, 0
0, 0
0, 0
0, 0
0, 0
0, 0
0, 0
0, 0
0, 0
0, 0
0, 0
0, 0
0, 0
0, 0
0, 0
0, 0
0, 0
0, 0
0, 0
0, 0
0, 0
0, 0
0, 0
0, 0
0, 0
0, 0
0, 0
0, 0
0, 0
0, 0
0, 0
0, 0
0, 0
0, 0
0, 0
0, 0
0, 0
0, 0
0, 0
0, 0
0, 0
0, 0
0, 0
0, 0
0, 0
0, 0
0, 0
0, 0
0, 0
0, 0
0, 0
0, 0
0, 0
0, 0
0, 0
0, 0
0, 0
0, 0
0, 0
0, 0
0, 0
0, 0
0, 0
0, 0
0, 0
0, 0
0, 0
0, 0
0, 0
0, 0
0, 0
0, 0
0, 0
0, 0
0, 0
0, 0
0, 0
0, 0
0, 0
0, 0
0, 0
0, 0
0, 0
0, 0
0, 0
0, 0
0, 0
0, 0
0, 0
0, 0
0, 0
0, 0
0, 0
0, 0
0, 0
0, 0
0, 0
0, 0
0, 0
0, 0
0, 0
0, 0
0, 0
0, 0
0, 0
0, 0
0, 0
0, 0
0, 0
0, 0
0, 0
0, 0
0, 0
0, 0
0, 0
0, 0
0, 0
0, 0
0, 0
0, 0
0, 0
0, 0
0, 0
0, 0
0, 0
0, 0
0, 0
0, 0
0, 0
0, 0
0, 0
0, 0
0, 0
0, 0
0, 0
0, 0
0, 0
0, 0
0, 0
0, 0
0, 0
0, 0
0, 0
0, 0
0, 0
0, 0
0, 0
0, 0
0, 0
0, 0
0, 0
0, 0
0, 0
0, 0
0, 0
0, 0
0, 0
0, 0
0, 0
0, 0
0, 0
0, 0
0, 0
0, 0
0, 0
0, 0
0, 0
0, 0
0, 0
0, 0
0, 0
0, 0
0, 0
0, 0
0, 0
0, 0
0, 0
0, 0
0, 0
0, 0
0, 0
0, 0
0, 0
0, 0
0, 0
0, 0
0, 0
0, 0
0, 0
0, 0
0, 0
0, 0
0, 0
0, 0
0, 0
0, 0
0, 0
0, 0
0, 0
0, 0
0, 0
0, 0
0, 0
0, 0
0, 0
0, 0
0, 0
0, 0
0, 0
0, 0
0, 0
0, 0
0, 0
0, 0
0, 0
0, 0
0, 0
0, 0
0, 0
0, 0
0, 0
0, 0
0, 0
0, 0
0, 0
0, 0
0, 0
0, 0
0, 0
0, 0
0, 0
0, 0
0, 0
0, 0
0, 0
0, 0
0, 0
0, 0
0, 0
0, 0
0, 0
0, 0
0, 0
0, 0
0, 0
0, 0
0, 0
0, 0
0, 0
0, 0
0, 0
0, 0
0, 0
0, 0
0, 0
0, 0
0, 0
0, 0
0, 0
0, 0
0, 0
0, 0
0, 0
0, 0
0, 0
0, 0
0, 0
0, 0
0, 0
0, 0
0, 0
0, 0
0, 0
0, 0
0, 0
0, 0
0, 0
0, 0
0, 0
0, 0
0, 0
0, 0
0, 0
0, 0
0, 0
0, 0
0, 0
0, 0
0, 0
0, 0
0, 0
0, 0
0, 0
0, 0
0, 0
0, 0
0, 0
0, 0
0, 0
0, 0
0, 0
0, 0
0, 0
0, 0
0, 0
0, 0
0, 0
0, 0
0, 0
0, 0
0, 0
0, 0
0, 0
0, 0
0, 0
0, 0
0, 0
0, 0
0, 0
0, 0
0, 0
0, 0
0, 0
0, 0
0, 0
0, 0
0, 0
0, 0
0, 0
0, 0
0, 0
0, 0
0, 0
0, 0
0, 0
0, 0
0, 0
0, 0
0, 0
0, 0
0, 0
0, 0
0, 0
0, 0
0, 0
0, 0
0, 0
0, 0
0, 0
0, 0
0, 0
0, 0
0, 0
0, 0
0, 0
0, 0
0, 0
0, 0
0, 0
0, 0
0, 0
0, 0
0, 0
0, 0
0, 0
0, 0
0, 0
0, 0
0, 0
0, 0
0, 0
0, 0
0, 0
0, 0
0, 0
0, 0
0, 0
0, 0
0, 0
0, 0
0, 0
0, 0
0, 0
0, 0
0, 0
0, 0
0, 0
0, 0
0, 0
0, 0
0, 0
0, 0
0, 0
0, 0
0, 0
0, 0
#ENDOFDATA     end of spectrum data