File: host_upload/06-09-2024/ps_0852/dump3/ps__0852shot_2140.msa
#FORMAT      : EMSA/MAS spectral data file
#VERSION     : TC202v2.0 PIXL
#TITLE       : N/A
#DATE        :       Date in the format DD-MMM-YYYY, for example 07-JUL-2010
#TIME        :             The time of day at which the spectrum was recorded, in 24-hour format
#OWNER       : PIXL Flight Model       (PIXL will use this to indicate which instrument took the data.)
#NPOINTS     : 4096     Number of data points in the spectrum (This can be zero for configuration only files)
#NCOLUMNS    : 2     Number of data columns in the spectrum (This can be zero for configuration only files)
#XUNITS      : eV
#YUNITS      : COUNTS
#DATATYPE    : YY
#XPERCHAN    : 7.862, 7.881   eV per channel (separate by commas if more than one detector)
#OFFSET      : 18.5, -22.4         eV of first channel  (separate by commas if more than one detector
#SIGNALTYPE  : XRF
#YP_TEMP     : 2.524
#LIVETIME    : 8.56139, 8.5766   seconds (separate by commas if more than one detector)
#REALTIME    : 10, 10.0   seconds (separate by commas if more than one detector)
#SPECTRUM    : start of spectrum data
0, 0
0, 0
0, 0
0, 0
0, 0
0, 0
0, 0
0, 0
0, 0
0, 0
0, 0
0, 0
0, 0
0, 0
0, 0
0, 0
0, 0
0, 0
0, 0
0, 0
0, 0
0, 0
0, 0
0, 0
0, 0
0, 0
0, 0
0, 0
0, 0
0, 0
0, 0
0, 0
0, 1
2, 2
0, 1
1, 1
0, 0
0, 1
2, 2
3, 0
5, 1
5, 4
2, 5
7, 3
2, 1
4, 0
1, 3
3, 2
10, 5
10, 7
19, 11
27, 29
31, 35
53, 43
59, 55
61, 47
49, 29
31, 12
26, 22
10, 10
11, 8
4, 3
7, 7
4, 2
2, 4
5, 3
8, 10
13, 12
12, 19
42, 43
76, 73
115, 141
237, 212
291, 257
350, 314
359, 284
343, 278
246, 207
175, 155
126, 83
64, 52
42, 29
20, 19
11, 16
14, 7
15, 7
12, 9
6, 6
8, 5
4, 7
1, 3
2, 6
17, 15
21, 26
40, 44
55, 56
100, 80
130, 136
143, 146
154, 124
121, 96
118, 109
88, 92
64, 47
42, 38
27, 31
27, 22
27, 28
36, 26
37, 42
93, 54
117, 76
149, 83
232, 114
236, 121
235, 117
218, 102
183, 77
137, 77
106, 48
73, 41
60, 28
34, 28
31, 27
19, 18
22, 20
20, 13
11, 12
10, 15
6, 13
9, 9
4, 5
10, 3
3, 7
4, 2
0, 1
5, 5
0, 5
3, 5
4, 4
8, 4
3, 3
5, 3
1, 7
5, 2
5, 2
6, 4
4, 2
11, 3
10, 4
20, 13
19, 20
40, 39
62, 63
86, 102
109, 112
161, 143
157, 146
162, 125
152, 139
90, 92
70, 66
57, 43
33, 28
24, 15
13, 11
9, 9
11, 9
22, 21
26, 24
14, 21
26, 27
27, 28
21, 22
25, 20
11, 15
15, 12
11, 8
6, 10
4, 6
7, 8
6, 3
4, 4
7, 5
4, 7
7, 8
5, 4
5, 8
6, 5
11, 11
13, 16
8, 13
13, 16
13, 14
19, 7
17, 14
15, 16
21, 13
28, 10
32, 16
29, 14
41, 9
40, 12
58, 8
45, 10
46, 8
44, 3
41, 0
37, 6
26, 9
18, 6
14, 15
14, 5
8, 11
8, 20
9, 19
7, 13
5, 19
3, 16
7, 14
13, 8
3, 13
3, 11
5, 12
9, 4
10, 23
17, 14
9, 12
18, 14
31, 18
14, 20
16, 21
15, 16
18, 13
18, 15
11, 16
2, 11
7, 5
3, 6
8, 4
8, 9
6, 6
11, 14
16, 8
9, 21
23, 18
32, 23
33, 49
54, 59
70, 64
63, 74
70, 61
72, 61
70, 65
54, 56
41, 26
29, 29
35, 27
22, 27
24, 26
13, 41
22, 29
41, 57
111, 98
173, 184
272, 325
464, 563
819, 886
1175, 1268
1642, 1573
2011, 1899
2232, 2264
2517, 2194
2339, 2008
2193, 1880
1776, 1452
1414, 1045
902, 656
635, 415
380, 223
223, 131
116, 68
64, 46
42, 30
23, 24
16, 30
20, 35
14, 34
12, 31
14, 35
27, 37
45, 45
56, 63
75, 90
121, 113
125, 174
226, 197
263, 266
292, 302
294, 335
355, 313
346, 295
344, 250
267, 199
213, 142
150, 112
89, 66
67, 36
40, 25
32, 16
13, 3
13, 6
17, 13
10, 6
16, 10
17, 12
8, 5
15, 11
20, 14
10, 12
16, 7
12, 7
4, 8
11, 6
5, 6
2, 2
5, 6
3, 6
2, 10
1, 2
2, 4
4, 4
1, 3
7, 2
5, 0
5, 3
3, 4
9, 4
10, 2
7, 2
6, 3
8, 3
4, 7
1, 9
3, 5
6, 9
7, 7
3, 4
5, 5
4, 7
5, 6
6, 5
5, 5
4, 5
3, 3
4, 4
6, 5
5, 4
5, 4
6, 2
5, 3
6, 7
8, 2
14, 6
6, 1
5, 4
7, 2
4, 0
6, 6
6, 5
5, 8
7, 5
10, 4
7, 1
4, 3
6, 2
11, 3
6, 8
11, 6
6, 7
9, 2
3, 3
5, 3
3, 5
6, 2
7, 5
4, 2
8, 4
2, 2
7, 2
4, 2
4, 4
4, 5
2, 9
5, 6
4, 7
3, 4
3, 1
3, 5
6, 1
4, 1
5, 2
7, 5
3, 2
1, 1
4, 1
7, 1
6, 4
7, 1
13, 1
7, 3
5, 5
12, 3
3, 2
2, 6
5, 12
9, 15
8, 15
4, 14
3, 22
2, 22
4, 15
5, 13
2, 13
7, 14
2, 12
3, 7
2, 12
2, 6
4, 6
5, 10
7, 4
0, 2
1, 1
1, 6
3, 3
4, 3
4, 2
3, 4
3, 2
2, 1
3, 0
1, 2
1, 1
3, 1
3, 3
2, 0
2, 1
0, 3
5, 0
2, 2
1, 3
1, 0
3, 5
1, 3
3, 3
1, 4
4, 1
5, 2
4, 1
2, 0
0, 0
4, 1
3, 0
2, 4
1, 2
3, 3
2, 1
1, 3
3, 0
2, 4
1, 3
2, 2
2, 2
1, 1
3, 0
2, 2
1, 5
0, 2
2, 4
1, 1
5, 0
1, 3
5, 1
1, 4
4, 2
0, 1
3, 2
4, 3
0, 2
1, 4
3, 2
5, 0
2, 0
2, 1
1, 3
4, 1
5, 3
0, 5
4, 1
1, 3
3, 2
3, 1
4, 2
3, 1
8, 3
5, 1
1, 3
4, 4
4, 1
4, 3
1, 1
2, 1
1, 2
1, 2
3, 3
3, 1
0, 2
1, 2
2, 3
1, 2
3, 4
1, 3
4, 1
1, 3
0, 3
0, 1
1, 2
4, 2
1, 2
2, 1
1, 3
1, 2
1, 0
3, 3
2, 2
4, 3
5, 3
6, 0
5, 3
4, 6
6, 3
5, 6
3, 3
2, 4
3, 3
3, 2
1, 1
5, 1
2, 6
2, 0
1, 2
2, 3
1, 0
1, 1
1, 1
3, 3
1, 0
1, 0
0, 2
3, 0
3, 4
4, 3
4, 2
3, 1
0, 3
1, 5
2, 2
1, 1
1, 2
1, 3
6, 1
3, 0
3, 4
2, 2
1, 1
2, 2
1, 1
2, 0
1, 1
2, 1
1, 1
1, 0
1, 2
0, 0
4, 1
2, 2
0, 1
1, 1
2, 0
1, 1
1, 0
0, 0
0, 0
1, 1
1, 1
1, 1
1, 0
2, 1
2, 0
1, 1
1, 1
0, 1
0, 3
1, 1
1, 0
0, 0
2, 0
1, 1
2, 0
0, 0
0, 0
1, 0
1, 1
2, 0
0, 0
0, 2
1, 2
1, 0
1, 0
1, 0
1, 0
1, 0
2, 0
1, 0
1, 1
0, 1
0, 0
1, 1
3, 1
1, 1
1, 0
1, 2
0, 0
0, 0
0, 1
0, 0
4, 0
0, 1
1, 0
1, 0
3, 1
1, 1
0, 0
2, 2
0, 0
1, 1
1, 0
0, 0
0, 2
0, 0
0, 1
0, 0
0, 0
0, 0
0, 1
1, 0
1, 0
0, 0
0, 1
1, 0
0, 0
0, 3
1, 2
2, 0
0, 1
0, 0
1, 2
0, 1
1, 1
0, 2
0, 1
1, 1
1, 0
2, 0
0, 1
0, 0
0, 2
0, 0
0, 1
0, 0
0, 0
1, 0
0, 1
1, 0
1, 0
0, 4
1, 1
1, 0
1, 0
0, 1
2, 1
0, 1
1, 0
1, 0
0, 0
0, 1
1, 3
0, 0
0, 0
0, 1
1, 0
1, 0
1, 0
0, 0
0, 1
0, 0
0, 0
1, 0
0, 0
0, 2
1, 2
0, 0
1, 0
0, 0
0, 1
0, 0
0, 0
0, 0
0, 1
1, 0
0, 0
1, 0
0, 0
0, 0
1, 0
0, 0
1, 1
1, 0
0, 0
0, 0
0, 0
0, 0
0, 0
0, 0
1, 0
1, 0
0, 0
0, 0
0, 0
1, 0
1, 0
1, 1
0, 0
1, 1
0, 0
0, 0
0, 0
0, 0
0, 0
0, 0
2, 0
0, 1
1, 1
0, 0
0, 0
0, 0
0, 1
0, 0
0, 0
1, 0
0, 0
0, 0
0, 0
0, 0
0, 0
0, 0
1, 0
1, 0
0, 0
0, 0
0, 0
0, 0
0, 1
0, 0
1, 0
0, 0
1, 0
0, 0
1, 0
0, 0
0, 0
1, 0
0, 0
0, 0
0, 0
0, 0
0, 0
0, 0
0, 0
0, 0
0, 0
0, 0
0, 1
0, 0
0, 1
0, 0
1, 0
0, 2
1, 1
1, 0
0, 1
0, 0
0, 0
0, 1
0, 0
0, 0
0, 0
0, 1
0, 1
0, 1
0, 0
0, 1
2, 0
0, 0
0, 0
0, 0
0, 0
0, 0
0, 0
0, 0
0, 0
0, 0
0, 0
0, 0
0, 1
0, 0
0, 0
0, 0
0, 0
1, 0
0, 0
0, 0
0, 1
0, 0
0, 0
0, 0
0, 0
1, 1
0, 0
0, 0
0, 0
0, 1
0, 1
0, 0
0, 0
0, 0
0, 0
0, 0
1, 0
0, 0
0, 0
1, 1
0, 0
1, 1
0, 0
0, 0
0, 0
0, 0
0, 0
0, 0
0, 0
0, 0
0, 0
0, 0
0, 0
1, 0
1, 0
0, 0
0, 0
0, 0
0, 0
0, 0
0, 0
0, 0
0, 0
0, 0
1, 0
0, 0
0, 0
0, 0
0, 0
0, 0
0, 0
0, 0
0, 0
0, 0
0, 0
0, 0
0, 0
0, 0
0, 0
0, 0
0, 0
0, 0
0, 0
0, 0
0, 0
0, 0
0, 0
0, 0
0, 0
0, 0
0, 0
0, 0
0, 0
0, 0
0, 0
0, 0
0, 0
0, 0
0, 0
0, 0
0, 0
0, 0
0, 0
0, 0
0, 0
0, 0
0, 0
0, 0
0, 0
0, 0
0, 0
0, 0
1, 0
0, 0
0, 0
0, 0
1, 0
0, 0
0, 0
0, 0
0, 0
0, 0
0, 0
0, 0
0, 0
0, 0
0, 0
0, 0
0, 0
0, 0
0, 0
1, 0
0, 0
0, 0
0, 0
0, 0
0, 0
0, 1
0, 0
0, 0
0, 0
0, 0
0, 0
0, 0
0, 0
0, 0
0, 0
0, 0
0, 0
0, 0
0, 0
0, 0
0, 0
0, 0
0, 0
0, 0
0, 1
0, 1
0, 0
0, 0
0, 0
0, 0
0, 0
0, 0
0, 0
0, 0
0, 0
0, 0
0, 0
0, 0
0, 0
0, 0
0, 0
0, 0
0, 0
0, 0
0, 0
0, 0
0, 0
0, 0
0, 0
0, 0
0, 0
0, 0
0, 0
0, 0
0, 0
0, 0
0, 0
0, 0
0, 0
0, 0
0, 0
0, 0
0, 0
0, 0
0, 0
0, 0
0, 0
0, 0
0, 0
0, 0
0, 0
0, 0
0, 0
0, 0
0, 0
0, 0
0, 0
0, 0
0, 0
0, 0
0, 0
0, 0
0, 0
0, 0
0, 0
0, 0
0, 0
0, 0
0, 1
0, 0
0, 0
0, 0
0, 0
0, 0
0, 0
0, 0
0, 0
0, 0
0, 0
0, 0
0, 0
0, 0
0, 0
0, 0
0, 0
0, 0
0, 0
0, 0
0, 0
0, 0
0, 0
0, 0
0, 0
1, 0
0, 0
0, 0
0, 0
0, 0
0, 0
0, 0
0, 0
0, 0
0, 0
0, 0
0, 0
0, 0
0, 0
0, 0
0, 0
0, 0
0, 0
0, 0
0, 0
0, 0
0, 0
0, 0
0, 0
0, 0
0, 0
0, 0
0, 0
0, 0
0, 0
0, 0
0, 0
0, 0
0, 0
0, 0
0, 0
0, 0
0, 0
0, 0
0, 0
0, 0
0, 0
0, 0
0, 0
0, 0
0, 0
0, 0
0, 0
0, 0
0, 0
0, 0
0, 0
0, 0
0, 0
0, 0
0, 0
0, 0
0, 0
0, 0
0, 0
0, 0
0, 0
0, 0
0, 0
0, 0
0, 0
0, 0
0, 0
0, 0
0, 0
0, 0
0, 0
0, 0
0, 0
0, 0
0, 0
0, 0
0, 0
0, 0
0, 0
0, 0
0, 0
0, 0
0, 0
0, 0
0, 0
0, 0
0, 0
0, 0
0, 0
0, 0
0, 0
0, 0
0, 0
0, 0
0, 0
0, 0
0, 0
0, 0
0, 0
0, 0
0, 0
0, 0
0, 0
0, 0
0, 0
0, 0
0, 0
0, 0
0, 0
0, 0
0, 0
0, 0
0, 0
0, 0
0, 0
0, 0
0, 0
0, 0
0, 0
0, 0
0, 0
0, 0
0, 0
0, 0
0, 0
0, 0
0, 0
0, 0
0, 0
0, 0
0, 0
0, 0
0, 0
0, 0
0, 0
0, 0
0, 0
0, 0
0, 0
0, 0
0, 0
0, 0
0, 0
0, 0
0, 0
0, 0
0, 0
0, 0
0, 0
0, 0
0, 0
0, 0
0, 0
0, 0
0, 0
0, 0
0, 0
0, 0
0, 0
0, 0
0, 0
0, 0
0, 0
0, 0
0, 0
0, 0
0, 0
0, 0
0, 0
0, 0
0, 0
0, 0
0, 0
0, 0
0, 0
0, 0
0, 0
0, 0
0, 0
0, 0
0, 0
0, 0
0, 0
0, 0
0, 0
0, 0
0, 0
0, 0
0, 0
0, 0
0, 0
0, 0
0, 0
0, 0
0, 0
0, 0
0, 0
0, 0
0, 0
0, 0
0, 0
0, 0
0, 0
0, 0
0, 0
0, 0
0, 0
0, 0
0, 0
0, 0
0, 0
0, 0
0, 0
0, 0
0, 0
0, 0
0, 0
0, 0
0, 0
0, 0
0, 0
0, 0
0, 0
0, 0
0, 0
0, 0
0, 0
0, 0
0, 0
0, 0
0, 0
0, 0
0, 0
0, 0
0, 0
0, 0
0, 0
0, 0
0, 0
0, 0
0, 0
0, 0
0, 0
0, 0
0, 0
0, 0
0, 0
0, 0
0, 0
0, 0
0, 0
0, 0
0, 0
0, 0
0, 0
0, 0
0, 0
0, 0
0, 0
0, 0
0, 0
0, 0
0, 0
0, 0
0, 0
0, 0
0, 0
0, 0
0, 0
0, 0
0, 0
0, 0
0, 0
0, 0
0, 0
0, 0
0, 0
0, 0
0, 0
0, 0
0, 0
0, 0
0, 0
0, 0
0, 0
0, 0
0, 0
0, 0
0, 0
0, 0
0, 0
0, 0
0, 0
0, 0
0, 0
0, 0
0, 0
0, 0
0, 0
0, 0
0, 0
0, 0
0, 0
0, 0
0, 0
0, 0
0, 0
#ENDOFDATA     end of spectrum data