File: host_upload/06-09-2024/ps_0852/dump3/ps__0852shot_2568.msa
#FORMAT      : EMSA/MAS spectral data file
#VERSION     : TC202v2.0 PIXL
#TITLE       : N/A
#DATE        :       Date in the format DD-MMM-YYYY, for example 07-JUL-2010
#TIME        :             The time of day at which the spectrum was recorded, in 24-hour format
#OWNER       : PIXL Flight Model       (PIXL will use this to indicate which instrument took the data.)
#NPOINTS     : 4096     Number of data points in the spectrum (This can be zero for configuration only files)
#NCOLUMNS    : 2     Number of data columns in the spectrum (This can be zero for configuration only files)
#XUNITS      : eV
#YUNITS      : COUNTS
#DATATYPE    : YY
#XPERCHAN    : 7.862, 7.881   eV per channel (separate by commas if more than one detector)
#OFFSET      : 18.5, -22.4         eV of first channel  (separate by commas if more than one detector
#SIGNALTYPE  : XRF
#YP_TEMP     : 2.235
#LIVETIME    : 8.53077, 8.54351   seconds (separate by commas if more than one detector)
#REALTIME    : 10, 10.0   seconds (separate by commas if more than one detector)
#SPECTRUM    : start of spectrum data
0, 0
0, 0
0, 0
0, 0
0, 0
0, 0
0, 0
0, 0
0, 0
0, 0
0, 0
0, 0
0, 0
0, 0
0, 0
0, 0
0, 0
0, 0
0, 0
0, 0
0, 0
0, 0
0, 0
0, 0
0, 0
0, 0
0, 0
0, 0
0, 0
0, 0
0, 0
0, 0
0, 1
1, 0
1, 0
0, 1
0, 0
1, 0
0, 0
1, 0
2, 0
1, 2
1, 0
0, 0
0, 0
1, 2
1, 3
2, 7
5, 13
10, 10
36, 28
44, 36
53, 53
87, 72
100, 76
78, 80
69, 51
55, 43
28, 32
18, 9
8, 6
7, 3
1, 2
2, 3
4, 4
7, 4
5, 7
13, 11
30, 14
53, 47
110, 83
195, 168
263, 264
407, 322
478, 388
486, 370
433, 345
300, 285
236, 181
110, 112
66, 54
45, 29
12, 14
11, 10
8, 4
3, 1
1, 2
2, 0
0, 1
0, 0
0, 0
1, 2
2, 1
3, 3
4, 0
5, 1
4, 4
8, 8
6, 8
5, 7
11, 4
11, 6
5, 3
7, 5
6, 2
2, 4
5, 4
6, 5
8, 8
7, 6
18, 6
27, 19
43, 21
37, 22
48, 24
54, 26
43, 25
43, 22
39, 14
23, 19
26, 17
36, 18
22, 14
35, 11
26, 12
24, 12
15, 11
21, 9
13, 5
9, 4
6, 2
4, 3
3, 2
3, 3
0, 3
1, 2
1, 1
1, 3
1, 5
2, 4
2, 4
3, 2
3, 4
4, 2
0, 1
1, 4
0, 4
2, 0
2, 0
3, 4
1, 1
1, 3
8, 5
3, 3
5, 3
14, 13
18, 16
26, 16
18, 15
24, 10
9, 12
11, 5
6, 6
4, 4
7, 4
4, 0
3, 3
3, 1
4, 2
3, 3
3, 3
18, 5
15, 6
9, 2
13, 4
10, 5
7, 6
13, 1
15, 3
17, 7
27, 3
39, 1
44, 2
68, 2
75, 2
65, 2
79, 3
83, 5
64, 3
61, 6
43, 4
21, 3
25, 7
22, 6
16, 5
14, 14
14, 12
10, 19
17, 12
18, 12
6, 11
13, 17
9, 15
8, 11
4, 10
6, 11
4, 9
7, 11
5, 8
4, 5
3, 7
5, 8
4, 5
4, 10
8, 11
6, 6
3, 11
5, 10
2, 10
3, 10
7, 8
3, 10
4, 7
3, 4
4, 15
10, 12
12, 15
10, 12
11, 15
16, 9
18, 16
22, 15
9, 13
26, 13
31, 12
25, 11
34, 5
39, 7
41, 8
51, 12
43, 5
74, 7
51, 9
87, 7
89, 15
118, 17
164, 31
153, 34
163, 45
161, 59
149, 66
124, 61
106, 54
81, 48
63, 41
35, 27
31, 23
25, 18
15, 17
18, 10
14, 16
22, 30
49, 57
88, 81
154, 159
292, 336
543, 536
837, 906
1208, 1278
1725, 1660
2109, 1995
2479, 2291
2539, 2355
2454, 2179
2179, 1857
1833, 1482
1404, 1015
948, 667
606, 419
359, 235
196, 125
107, 63
54, 37
35, 24
27, 19
20, 14
14, 21
14, 15
16, 18
21, 27
24, 27
30, 37
56, 55
66, 84
109, 106
160, 151
216, 215
266, 270
335, 324
355, 354
352, 331
350, 296
333, 261
283, 189
205, 146
168, 115
99, 59
65, 40
41, 22
33, 13
16, 4
13, 8
13, 11
3, 8
12, 6
15, 13
11, 14
14, 12
15, 13
14, 16
13, 14
9, 8
6, 7
5, 2
4, 4
4, 9
2, 2
3, 7
2, 4
5, 3
4, 3
5, 5
2, 3
2, 4
3, 5
7, 4
2, 2
3, 1
2, 3
2, 3
2, 2
7, 6
1, 7
3, 8
4, 6
4, 6
4, 3
9, 4
4, 1
8, 7
7, 4
11, 2
14, 7
7, 9
11, 8
8, 6
4, 14
4, 16
7, 10
3, 14
5, 19
11, 21
11, 19
14, 25
19, 17
18, 14
19, 15
15, 13
18, 11
18, 8
20, 8
25, 6
18, 5
11, 11
13, 17
15, 12
5, 25
5, 18
2, 25
3, 14
2, 22
3, 18
1, 11
3, 13
4, 7
5, 5
3, 3
2, 5
4, 4
3, 4
4, 2
5, 5
2, 2
2, 4
2, 2
3, 3
0, 5
3, 3
3, 4
3, 1
2, 4
5, 4
3, 3
1, 1
2, 0
6, 2
4, 5
1, 5
2, 1
1, 5
3, 3
5, 4
3, 6
3, 0
2, 2
3, 4
5, 6
2, 4
7, 3
5, 3
2, 2
6, 4
2, 3
7, 7
4, 2
9, 9
11, 2
6, 6
13, 6
7, 9
14, 10
8, 16
10, 15
10, 27
10, 13
5, 16
6, 19
6, 14
7, 11
2, 12
6, 8
4, 8
3, 6
2, 3
3, 2
1, 4
0, 2
2, 2
4, 1
5, 5
1, 4
5, 2
2, 4
1, 4
2, 4
1, 2
2, 2
4, 3
3, 2
1, 2
2, 2
5, 1
0, 5
3, 1
4, 1
3, 1
1, 2
2, 3
1, 1
3, 5
4, 3
4, 0
4, 1
5, 4
4, 2
4, 0
5, 3
4, 2
6, 1
3, 2
2, 1
3, 2
3, 2
1, 1
2, 1
4, 1
2, 2
2, 3
4, 2
2, 2
3, 3
2, 4
1, 2
8, 2
6, 0
2, 4
5, 2
3, 3
1, 2
0, 0
2, 3
2, 2
3, 4
1, 5
1, 5
2, 1
2, 3
3, 2
1, 0
2, 4
0, 2
3, 0
3, 2
4, 2
0, 0
4, 3
1, 0
3, 0
0, 0
1, 0
5, 3
0, 2
4, 1
1, 2
0, 1
3, 2
0, 1
2, 2
3, 2
0, 0
2, 0
0, 1
5, 1
2, 2
5, 2
2, 2
3, 7
2, 1
4, 4
5, 3
3, 4
4, 4
4, 0
6, 5
1, 3
6, 2
4, 1
5, 6
6, 3
1, 0
1, 3
4, 1
3, 0
1, 1
2, 1
4, 0
5, 0
2, 1
4, 0
2, 1
2, 1
1, 0
0, 2
0, 1
1, 1
2, 1
2, 3
2, 1
3, 4
4, 4
2, 4
1, 0
3, 3
3, 0
2, 2
2, 0
1, 0
2, 0
2, 0
3, 0
0, 1
1, 1
1, 0
0, 1
1, 1
0, 2
1, 1
3, 2
0, 4
1, 2
1, 1
0, 0
2, 2
0, 2
2, 0
1, 0
3, 0
1, 3
2, 2
1, 1
2, 1
1, 0
2, 1
1, 0
0, 0
0, 0
1, 1
3, 0
0, 2
1, 2
0, 0
1, 0
1, 1
1, 1
0, 2
0, 0
2, 1
3, 1
1, 5
0, 0
2, 0
1, 1
2, 0
1, 0
2, 1
1, 3
0, 0
1, 0
1, 0
0, 2
1, 0
2, 2
0, 0
1, 0
2, 2
1, 0
0, 0
1, 0
0, 2
0, 1
1, 0
0, 3
1, 0
0, 1
0, 0
0, 1
1, 0
1, 2
0, 1
0, 0
2, 1
0, 4
0, 1
0, 0
0, 0
1, 1
1, 1
1, 0
0, 0
0, 2
0, 2
0, 1
1, 0
2, 0
1, 0
0, 0
0, 0
1, 0
0, 0
2, 0
1, 0
0, 0
0, 1
0, 0
1, 2
0, 0
2, 0
1, 1
0, 0
1, 0
0, 1
0, 0
0, 0
0, 1
0, 2
0, 1
0, 0
0, 0
1, 0
0, 0
2, 0
0, 2
0, 0
0, 1
0, 0
1, 0
1, 0
0, 1
0, 0
0, 0
1, 0
0, 0
0, 1
0, 1
0, 1
0, 0
0, 0
1, 0
0, 0
0, 0
0, 0
1, 0
0, 0
0, 0
0, 1
0, 1
0, 0
0, 0
0, 0
0, 1
0, 0
0, 1
0, 2
1, 0
3, 0
1, 0
0, 1
1, 0
1, 0
0, 0
0, 0
0, 0
0, 1
0, 0
0, 0
0, 1
0, 0
0, 0
0, 0
1, 0
0, 0
0, 0
0, 0
0, 0
0, 0
0, 0
1, 2
0, 0
0, 1
0, 1
0, 0
0, 0
1, 0
2, 0
0, 0
0, 0
0, 0
0, 0
0, 0
0, 0
0, 0
1, 0
0, 0
1, 0
0, 0
0, 1
0, 2
0, 0
0, 0
0, 1
0, 0
0, 0
0, 0
0, 0
1, 1
0, 0
1, 0
0, 0
0, 0
0, 0
1, 1
2, 0
0, 0
0, 0
1, 0
0, 0
1, 0
0, 0
0, 0
1, 0
1, 0
0, 0
0, 0
1, 1
1, 0
0, 0
0, 0
0, 1
1, 0
0, 0
0, 0
0, 0
0, 0
1, 0
0, 0
0, 2
0, 0
0, 1
0, 0
0, 0
0, 0
0, 0
0, 0
0, 0
0, 0
1, 0
1, 0
0, 0
0, 0
0, 0
0, 1
0, 1
0, 0
0, 0
0, 1
0, 0
0, 0
0, 0
0, 0
0, 0
0, 0
0, 0
0, 0
0, 0
0, 0
0, 0
0, 1
0, 0
0, 1
0, 0
0, 0
1, 0
0, 0
0, 0
0, 0
0, 0
0, 3
0, 0
0, 0
0, 0
0, 0
0, 0
0, 0
0, 1
0, 0
0, 0
0, 1
0, 0
0, 1
0, 1
0, 0
0, 0
0, 1
0, 0
1, 0
0, 0
0, 0
0, 0
0, 0
0, 0
0, 0
0, 0
0, 0
0, 0
0, 0
0, 0
0, 0
0, 0
0, 0
0, 0
0, 0
0, 0
0, 1
0, 1
0, 0
0, 0
0, 0
0, 0
0, 0
0, 0
0, 0
0, 1
0, 0
0, 0
0, 0
0, 0
0, 0
0, 0
0, 0
0, 0
0, 0
0, 1
0, 0
0, 0
0, 0
0, 0
0, 0
0, 0
0, 0
0, 0
0, 0
0, 0
0, 0
0, 0
0, 0
0, 0
0, 0
0, 0
1, 0
0, 0
0, 0
0, 0
0, 0
0, 0
0, 0
0, 0
0, 0
0, 0
0, 0
0, 0
0, 0
0, 0
0, 0
0, 0
0, 0
0, 0
0, 0
0, 0
0, 0
0, 0
0, 0
0, 0
0, 0
0, 0
0, 0
0, 0
0, 0
0, 0
0, 0
0, 0
0, 0
0, 0
0, 0
1, 0
0, 0
0, 0
0, 0
0, 0
0, 0
0, 0
0, 0
0, 0
0, 0
0, 0
0, 0
0, 0
0, 0
0, 0
0, 0
0, 0
0, 0
0, 0
0, 0
0, 0
0, 0
0, 0
0, 0
0, 0
0, 0
0, 0
0, 0
0, 0
0, 0
0, 0
0, 0
0, 0
0, 0
0, 0
0, 1
0, 0
0, 0
0, 0
0, 0
0, 0
0, 0
0, 0
0, 0
0, 0
0, 0
0, 0
0, 0
0, 0
0, 0
0, 0
0, 0
0, 0
0, 0
0, 0
0, 0
0, 0
0, 0
0, 0
0, 0
0, 0
0, 0
0, 0
0, 0
0, 0
0, 0
0, 0
0, 0
0, 0
0, 0
0, 0
0, 0
0, 0
0, 0
0, 0
0, 0
0, 0
0, 0
0, 0
0, 0
0, 0
0, 0
0, 0
0, 0
0, 0
0, 0
0, 0
0, 0
0, 0
0, 0
0, 0
0, 0
0, 0
0, 0
0, 0
0, 0
0, 0
0, 0
0, 0
0, 0
0, 0
0, 0
0, 0
0, 0
0, 0
0, 0
0, 0
0, 0
0, 0
0, 0
0, 0
0, 0
0, 0
0, 0
0, 0
0, 0
0, 0
0, 0
0, 0
0, 0
0, 0
1, 0
0, 0
0, 0
0, 0
0, 0
0, 0
0, 0
0, 0
0, 0
0, 0
0, 0
0, 0
0, 0
0, 0
0, 0
0, 0
0, 0
0, 0
0, 0
0, 0
0, 0
0, 0
0, 0
0, 0
0, 0
0, 0
0, 0
0, 0
0, 0
0, 0
0, 0
0, 0
0, 0
0, 0
0, 0
0, 0
0, 0
0, 0
0, 0
0, 0
0, 0
0, 0
0, 0
0, 0
0, 0
0, 0
0, 0
0, 0
0, 0
0, 0
0, 0
0, 0
0, 0
0, 0
0, 0
0, 0
0, 0
0, 0
0, 0
0, 0
0, 0
0, 0
0, 0
0, 0
0, 0
0, 0
0, 0
0, 0
0, 0
0, 0
0, 0
0, 0
0, 0
0, 0
0, 0
0, 0
0, 0
0, 0
0, 0
0, 0
0, 0
0, 0
0, 0
0, 0
0, 0
0, 0
0, 0
0, 0
0, 0
0, 0
0, 0
0, 0
0, 0
0, 0
0, 0
0, 0
0, 0
0, 0
0, 0
0, 0
0, 0
0, 0
0, 0
0, 0
0, 0
0, 0
0, 0
0, 0
0, 0
0, 0
0, 0
0, 0
0, 0
0, 0
0, 0
0, 0
0, 0
0, 0
0, 0
0, 0
0, 0
0, 0
0, 0
0, 0
0, 0
0, 0
0, 0
0, 0
0, 0
0, 0
0, 0
0, 0
0, 0
0, 0
0, 0
0, 0
0, 0
0, 0
0, 0
0, 0
0, 0
0, 0
0, 0
0, 0
0, 0
0, 0
0, 0
0, 0
0, 0
0, 0
0, 0
0, 0
0, 0
0, 0
0, 0
0, 0
0, 0
0, 0
0, 0
0, 0
0, 0
0, 0
0, 0
0, 0
0, 0
0, 0
0, 0
0, 0
0, 0
0, 0
0, 0
0, 0
0, 0
0, 0
0, 0
0, 0
0, 0
0, 0
0, 0
0, 0
0, 0
0, 0
0, 0
0, 0
0, 0
0, 0
0, 0
0, 0
0, 0
0, 0
0, 0
0, 0
0, 0
0, 0
0, 0
0, 0
0, 0
0, 0
0, 0
0, 0
0, 0
0, 0
0, 0
0, 0
0, 0
0, 0
0, 0
0, 0
0, 0
0, 0
0, 0
0, 0
0, 0
0, 0
0, 0
0, 0
0, 0
0, 0
0, 0
0, 0
0, 0
0, 0
0, 0
0, 0
0, 0
0, 0
0, 0
0, 0
0, 0
0, 0
0, 0
0, 0
0, 0
0, 0
0, 0
0, 0
0, 0
0, 0
0, 0
0, 0
0, 0
0, 0
0, 0
0, 0
0, 0
0, 0
0, 0
0, 0
0, 0
0, 0
0, 0
0, 0
0, 0
0, 0
0, 0
0, 0
0, 0
0, 0
0, 0
0, 0
0, 0
0, 0
0, 0
0, 0
0, 0
0, 0
0, 0
0, 0
0, 0
0, 0
0, 0
0, 0
0, 0
0, 0
0, 0
0, 0
0, 0
0, 0
0, 0
0, 0
0, 0
0, 0
0, 0
0, 0
0, 0
0, 0
0, 0
0, 0
0, 0
0, 0
0, 0
0, 0
#ENDOFDATA     end of spectrum data