File: host_upload/06-09-2024/ps_0852/dump3/ps__0852shot_2299.msa
#FORMAT      : EMSA/MAS spectral data file
#VERSION     : TC202v2.0 PIXL
#TITLE       : N/A
#DATE        :       Date in the format DD-MMM-YYYY, for example 07-JUL-2010
#TIME        :             The time of day at which the spectrum was recorded, in 24-hour format
#OWNER       : PIXL Flight Model       (PIXL will use this to indicate which instrument took the data.)
#NPOINTS     : 4096     Number of data points in the spectrum (This can be zero for configuration only files)
#NCOLUMNS    : 2     Number of data columns in the spectrum (This can be zero for configuration only files)
#XUNITS      : eV
#YUNITS      : COUNTS
#DATATYPE    : YY
#XPERCHAN    : 7.862, 7.881   eV per channel (separate by commas if more than one detector)
#OFFSET      : 18.5, -22.4         eV of first channel  (separate by commas if more than one detector
#SIGNALTYPE  : XRF
#YP_TEMP     : 2.364
#LIVETIME    : 8.53765, 8.56208   seconds (separate by commas if more than one detector)
#REALTIME    : 10, 10.0   seconds (separate by commas if more than one detector)
#SPECTRUM    : start of spectrum data
0, 0
0, 0
0, 0
0, 0
0, 0
0, 0
0, 0
0, 0
0, 0
0, 0
0, 0
0, 0
0, 0
0, 0
0, 0
0, 0
0, 0
0, 0
0, 0
0, 0
0, 0
0, 0
0, 0
0, 0
0, 0
0, 0
0, 0
0, 0
0, 1
0, 0
0, 0
0, 0
0, 0
1, 0
0, 1
0, 0
2, 0
0, 0
1, 1
1, 0
2, 1
3, 1
1, 1
0, 1
0, 0
1, 3
5, 3
3, 6
11, 2
16, 6
35, 17
38, 34
58, 50
71, 59
88, 64
83, 52
68, 44
42, 41
23, 13
18, 15
9, 1
3, 2
4, 5
3, 3
6, 4
3, 4
6, 3
10, 9
21, 26
50, 56
89, 92
204, 138
279, 243
397, 318
460, 356
468, 378
397, 318
344, 243
229, 173
148, 108
87, 50
35, 34
22, 17
6, 5
6, 3
4, 2
7, 3
2, 0
4, 3
3, 0
2, 1
5, 2
1, 4
1, 1
9, 5
8, 4
10, 11
15, 14
17, 11
17, 20
10, 17
8, 6
8, 11
11, 10
9, 2
4, 3
5, 4
7, 12
12, 15
11, 24
21, 18
24, 17
44, 28
47, 26
55, 52
49, 38
55, 41
59, 31
43, 32
38, 27
34, 25
48, 21
30, 26
25, 25
14, 12
14, 17
14, 14
11, 6
13, 10
11, 14
6, 4
5, 5
1, 3
7, 3
3, 1
3, 2
3, 2
2, 2
3, 2
6, 4
2, 8
3, 6
7, 7
2, 8
4, 4
3, 8
5, 4
3, 7
6, 8
9, 3
7, 8
20, 16
28, 15
43, 34
69, 49
102, 54
108, 75
118, 74
133, 95
110, 69
97, 54
73, 39
39, 20
31, 14
21, 7
11, 3
14, 12
20, 9
15, 15
18, 21
20, 16
28, 10
13, 15
28, 12
33, 10
29, 15
23, 7
37, 7
29, 7
21, 7
28, 3
19, 4
20, 3
11, 7
11, 5
8, 3
10, 4
13, 8
18, 4
13, 4
8, 10
26, 14
22, 11
15, 7
21, 13
20, 11
26, 7
19, 12
16, 10
15, 14
21, 13
10, 8
16, 13
19, 9
17, 6
11, 3
7, 9
5, 7
6, 12
4, 4
5, 6
8, 5
3, 7
13, 4
8, 7
7, 5
5, 7
8, 9
6, 10
2, 5
5, 12
4, 7
4, 6
12, 6
15, 12
7, 5
9, 13
19, 10
27, 15
24, 14
23, 13
27, 20
29, 27
25, 17
31, 11
24, 11
33, 8
30, 10
31, 4
28, 10
14, 13
19, 8
16, 21
16, 15
15, 16
21, 13
28, 34
45, 42
48, 45
46, 61
60, 46
73, 52
85, 53
59, 40
54, 34
45, 45
36, 39
29, 29
29, 33
29, 26
26, 38
39, 29
46, 53
83, 101
166, 167
260, 289
519, 487
751, 815
1112, 1040
1602, 1496
2049, 1742
2292, 1940
2502, 1927
2411, 1830
2160, 1564
1774, 1219
1179, 887
946, 610
583, 347
393, 194
187, 125
123, 79
76, 39
27, 30
18, 20
21, 24
15, 35
16, 30
21, 20
12, 16
18, 23
29, 30
49, 34
78, 87
97, 105
162, 150
196, 168
256, 255
293, 315
352, 309
352, 294
383, 292
324, 245
252, 190
197, 141
115, 93
85, 62
50, 30
32, 19
17, 16
11, 14
5, 8
11, 3
11, 7
9, 14
8, 10
14, 6
11, 5
13, 12
13, 8
13, 5
10, 9
14, 5
9, 5
5, 3
6, 2
6, 3
7, 3
2, 1
4, 1
4, 2
6, 3
7, 5
2, 4
7, 2
2, 5
8, 3
7, 3
6, 5
4, 7
3, 2
4, 1
5, 7
10, 2
6, 7
11, 7
8, 7
6, 7
8, 14
6, 12
16, 9
10, 9
4, 9
6, 6
12, 12
7, 6
9, 3
14, 5
7, 7
13, 5
7, 4
12, 6
5, 1
7, 3
5, 4
5, 2
5, 4
3, 7
1, 3
2, 3
7, 4
5, 5
7, 0
5, 1
8, 6
6, 3
6, 2
8, 6
1, 5
8, 0
1, 2
4, 6
6, 1
5, 1
3, 2
5, 6
3, 2
5, 6
3, 4
7, 1
2, 5
2, 4
5, 4
5, 4
5, 1
4, 9
7, 2
1, 6
4, 3
2, 3
2, 4
6, 6
4, 4
5, 6
5, 8
3, 7
6, 3
9, 1
5, 3
2, 1
7, 9
5, 4
3, 3
4, 2
2, 2
2, 3
3, 6
1, 5
5, 1
3, 4
1, 2
4, 2
5, 5
3, 6
2, 2
3, 2
4, 4
2, 5
5, 2
3, 3
2, 5
2, 2
2, 4
2, 4
4, 6
4, 0
5, 2
3, 1
2, 1
6, 4
4, 2
3, 0
4, 5
4, 1
4, 5
3, 4
1, 6
2, 1
2, 6
0, 1
7, 0
2, 3
2, 4
3, 0
4, 5
2, 3
0, 0
3, 4
0, 0
0, 2
6, 0
0, 2
1, 1
2, 2
1, 2
3, 4
5, 4
5, 4
4, 2
4, 1
6, 0
2, 3
6, 3
2, 0
9, 2
2, 1
0, 5
2, 1
4, 2
0, 2
2, 2
0, 5
1, 1
4, 1
0, 1
2, 3
3, 4
3, 1
1, 1
0, 0
2, 1
3, 4
5, 2
6, 2
3, 3
2, 4
1, 2
3, 3
2, 3
5, 1
2, 3
3, 3
3, 1
1, 1
2, 1
1, 2
2, 0
4, 1
4, 2
2, 5
0, 1
2, 2
1, 4
1, 2
1, 1
3, 1
2, 1
3, 1
0, 0
1, 5
3, 1
4, 3
3, 1
3, 1
3, 5
3, 5
1, 0
2, 0
2, 0
2, 1
2, 2
1, 0
2, 5
3, 5
5, 0
3, 3
3, 2
1, 4
6, 3
4, 3
4, 4
3, 5
4, 1
3, 5
6, 7
4, 4
4, 2
5, 1
3, 1
0, 3
4, 0
2, 1
1, 2
3, 0
3, 0
0, 1
1, 1
1, 2
1, 2
0, 3
0, 3
0, 1
1, 3
1, 2
2, 0
0, 2
1, 2
1, 3
1, 1
2, 0
1, 2
1, 0
3, 0
1, 0
2, 1
2, 4
1, 1
1, 1
3, 0
4, 0
0, 0
1, 0
0, 0
1, 2
1, 1
4, 0
1, 0
1, 1
3, 1
2, 0
0, 0
0, 0
1, 2
0, 0
0, 0
5, 1
5, 1
2, 0
1, 1
2, 1
1, 0
0, 0
2, 2
0, 0
0, 1
0, 0
0, 0
1, 0
1, 1
0, 0
1, 1
1, 2
3, 1
2, 2
1, 0
0, 0
0, 1
0, 2
1, 2
1, 0
1, 1
0, 1
0, 0
2, 0
1, 1
0, 2
0, 1
0, 1
0, 0
0, 1
2, 0
1, 0
1, 1
1, 0
0, 0
0, 1
2, 0
0, 1
1, 1
0, 2
1, 0
1, 0
0, 1
0, 0
0, 1
0, 0
1, 0
0, 1
2, 1
2, 0
0, 2
0, 0
0, 0
1, 1
0, 0
2, 0
1, 0
3, 1
1, 0
0, 1
0, 1
0, 0
1, 1
0, 0
0, 0
1, 1
0, 1
0, 1
1, 0
0, 1
0, 0
2, 0
1, 0
0, 0
2, 1
1, 0
0, 0
2, 0
0, 0
0, 1
0, 1
1, 0
0, 1
1, 1
0, 0
0, 0
0, 1
0, 2
0, 1
0, 1
1, 2
1, 2
0, 0
1, 0
0, 0
0, 0
0, 1
0, 0
0, 0
1, 0
1, 0
0, 0
0, 0
0, 0
1, 0
2, 0
1, 0
0, 1
0, 0
1, 0
0, 1
1, 0
2, 1
0, 0
2, 0
0, 0
2, 0
0, 0
2, 0
0, 0
0, 0
1, 0
0, 0
0, 0
1, 0
0, 0
0, 2
0, 0
0, 1
0, 0
0, 0
1, 1
1, 0
0, 0
1, 0
0, 0
0, 1
1, 0
2, 1
1, 1
1, 0
1, 0
1, 0
1, 1
0, 1
0, 1
1, 0
0, 1
1, 0
1, 0
0, 0
2, 0
0, 0
0, 0
1, 0
0, 0
0, 0
0, 0
0, 0
0, 0
0, 1
0, 0
0, 0
1, 0
0, 0
0, 2
0, 1
0, 0
0, 0
0, 0
0, 0
1, 0
1, 0
0, 0
0, 0
0, 0
0, 0
0, 1
0, 1
1, 0
1, 0
0, 0
0, 2
0, 0
0, 0
0, 0
0, 1
0, 0
0, 0
0, 2
1, 1
1, 1
0, 0
0, 0
1, 0
0, 0
0, 1
0, 0
1, 1
0, 0
0, 0
0, 2
0, 1
0, 1
0, 0
0, 1
0, 0
0, 1
0, 0
1, 0
0, 0
0, 1
0, 0
0, 0
2, 0
0, 0
0, 1
1, 0
0, 1
0, 0
1, 0
1, 0
1, 0
0, 0
0, 0
0, 0
0, 0
0, 0
1, 0
0, 0
0, 0
0, 0
0, 0
0, 0
0, 0
1, 0
0, 2
0, 0
0, 0
0, 0
0, 0
0, 0
0, 0
0, 0
0, 0
0, 0
0, 0
0, 0
0, 0
0, 0
0, 0
1, 0
2, 0
1, 0
0, 0
0, 0
0, 1
0, 1
0, 0
2, 1
0, 0
0, 0
0, 0
0, 0
0, 0
0, 0
0, 0
0, 0
0, 0
0, 0
1, 0
0, 0
0, 0
0, 0
1, 0
1, 0
0, 0
0, 0
0, 0
0, 0
0, 0
0, 0
0, 0
0, 0
0, 0
1, 0
0, 0
0, 0
0, 0
0, 0
0, 0
0, 0
0, 1
0, 0
0, 0
0, 0
0, 0
0, 0
0, 0
0, 0
0, 0
0, 0
0, 0
0, 0
0, 0
0, 0
0, 0
0, 0
0, 0
0, 0
0, 0
0, 0
0, 0
0, 0
0, 0
0, 0
0, 0
0, 0
0, 0
0, 0
0, 0
0, 0
0, 0
0, 0
0, 0
1, 0
0, 0
0, 0
0, 0
0, 0
0, 0
0, 1
0, 0
0, 0
0, 0
0, 0
0, 0
0, 0
0, 0
0, 0
0, 0
0, 0
0, 0
0, 0
0, 0
0, 0
0, 0
0, 0
0, 0
0, 0
0, 0
0, 0
0, 0
0, 0
0, 0
0, 0
0, 0
0, 0
0, 0
0, 0
0, 0
0, 0
0, 0
0, 0
0, 0
0, 0
0, 0
0, 0
0, 0
0, 0
0, 0
1, 0
0, 0
0, 0
0, 0
0, 0
0, 0
0, 0
0, 0
0, 0
0, 0
0, 0
0, 0
0, 0
0, 0
0, 0
0, 0
0, 0
0, 0
0, 0
0, 0
0, 0
0, 0
0, 0
0, 0
0, 0
0, 0
0, 0
0, 0
0, 0
0, 0
0, 0
0, 0
0, 0
0, 0
0, 0
0, 0
0, 0
0, 0
0, 0
0, 0
0, 0
0, 0
0, 0
0, 0
0, 0
0, 0
0, 0
0, 0
0, 0
0, 0
0, 0
0, 0
0, 0
0, 0
0, 0
0, 0
0, 0
0, 0
0, 0
0, 0
0, 0
0, 0
0, 0
0, 1
0, 0
0, 0
0, 0
0, 0
0, 0
0, 0
0, 0
0, 0
0, 0
0, 0
0, 0
0, 0
0, 0
0, 0
0, 0
0, 0
0, 0
0, 0
0, 0
0, 0
0, 0
0, 0
0, 0
0, 0
0, 0
0, 0
0, 0
1, 0
0, 0
0, 0
0, 0
0, 0
0, 0
0, 0
0, 0
0, 0
0, 0
0, 0
0, 0
0, 0
0, 0
0, 0
0, 0
0, 0
0, 0
0, 0
0, 0
0, 0
0, 0
0, 0
0, 0
0, 0
0, 0
0, 0
0, 0
0, 0
0, 0
0, 0
0, 0
0, 0
0, 0
0, 0
0, 0
0, 0
0, 0
0, 0
0, 0
0, 0
0, 0
0, 0
0, 0
0, 0
0, 0
0, 0
0, 0
0, 0
0, 0
0, 0
0, 0
0, 0
0, 0
0, 0
0, 0
0, 0
0, 0
0, 0
0, 0
0, 0
0, 0
0, 0
0, 0
0, 0
0, 0
0, 0
0, 0
0, 0
0, 0
0, 0
0, 0
0, 0
0, 0
0, 0
0, 0
0, 0
0, 0
0, 0
0, 0
0, 0
0, 0
0, 0
0, 0
0, 0
0, 0
0, 0
0, 0
0, 0
0, 1
0, 0
0, 0
0, 0
0, 0
0, 0
0, 0
0, 0
0, 0
0, 0
0, 0
0, 0
0, 0
0, 0
0, 0
0, 0
0, 0
0, 0
0, 0
0, 0
0, 0
0, 0
0, 0
0, 0
0, 0
0, 0
0, 0
0, 0
0, 0
0, 0
0, 0
0, 0
0, 0
0, 0
0, 0
0, 0
0, 0
0, 0
0, 0
0, 0
0, 0
0, 0
0, 0
0, 0
0, 0
0, 0
0, 0
0, 0
0, 0
0, 0
0, 0
0, 0
0, 0
0, 0
0, 0
0, 0
0, 0
0, 0
0, 0
0, 0
0, 0
0, 0
0, 0
0, 0
0, 0
0, 0
0, 0
0, 0
0, 0
0, 0
0, 0
0, 0
0, 0
0, 0
0, 0
0, 0
0, 0
0, 0
0, 0
0, 0
0, 0
0, 0
0, 0
0, 0
0, 0
0, 0
0, 0
0, 0
0, 0
0, 0
0, 0
0, 0
0, 0
0, 0
0, 0
0, 0
0, 0
0, 0
0, 0
0, 0
0, 0
0, 0
0, 0
0, 0
0, 0
0, 0
0, 0
0, 0
0, 0
0, 0
0, 0
0, 0
0, 0
0, 0
0, 0
0, 0
0, 0
0, 0
0, 0
0, 0
0, 0
0, 0
0, 0
0, 0
0, 0
0, 0
0, 0
0, 0
0, 0
0, 0
0, 0
0, 0
0, 0
0, 0
0, 0
0, 0
0, 0
0, 0
0, 0
0, 0
0, 0
0, 0
0, 0
0, 0
0, 0
0, 0
0, 0
0, 0
0, 0
0, 0
0, 0
0, 0
0, 0
0, 0
0, 0
0, 0
0, 0
0, 0
0, 0
0, 0
0, 0
0, 0
0, 0
0, 0
0, 0
0, 0
0, 0
0, 0
0, 0
0, 0
0, 0
0, 0
0, 0
0, 0
0, 0
0, 0
0, 0
0, 0
0, 0
0, 0
0, 0
0, 0
0, 0
0, 0
0, 0
0, 0
0, 0
0, 0
0, 0
0, 0
0, 0
0, 0
0, 0
0, 0
0, 0
0, 0
0, 0
0, 0
0, 0
0, 0
0, 0
0, 0
0, 0
0, 0
0, 0
0, 0
0, 0
0, 0
0, 0
0, 0
0, 0
0, 0
0, 0
0, 0
0, 0
#ENDOFDATA     end of spectrum data