File: host_upload/06-09-2024/ps_0852/dump3/ps__0852shot_2243.msa
#FORMAT      : EMSA/MAS spectral data file
#VERSION     : TC202v2.0 PIXL
#TITLE       : N/A
#DATE        :       Date in the format DD-MMM-YYYY, for example 07-JUL-2010
#TIME        :             The time of day at which the spectrum was recorded, in 24-hour format
#OWNER       : PIXL Flight Model       (PIXL will use this to indicate which instrument took the data.)
#NPOINTS     : 4096     Number of data points in the spectrum (This can be zero for configuration only files)
#NCOLUMNS    : 2     Number of data columns in the spectrum (This can be zero for configuration only files)
#XUNITS      : eV
#YUNITS      : COUNTS
#DATATYPE    : YY
#XPERCHAN    : 7.862, 7.881   eV per channel (separate by commas if more than one detector)
#OFFSET      : 18.5, -22.4         eV of first channel  (separate by commas if more than one detector
#SIGNALTYPE  : XRF
#YP_TEMP     : 2.267
#LIVETIME    : 8.5797, 8.57314   seconds (separate by commas if more than one detector)
#REALTIME    : 10, 10.0   seconds (separate by commas if more than one detector)
#SPECTRUM    : start of spectrum data
0, 0
0, 0
0, 0
0, 0
0, 0
0, 0
0, 0
0, 0
0, 0
0, 0
0, 0
0, 0
0, 0
0, 0
0, 0
0, 0
0, 0
0, 0
0, 0
0, 0
0, 0
0, 0
0, 0
0, 0
0, 0
0, 0
0, 0
0, 0
0, 0
0, 0
0, 0
0, 0
0, 2
0, 0
0, 0
1, 1
0, 0
0, 4
0, 0
2, 0
0, 1
2, 0
0, 0
1, 2
1, 2
0, 1
2, 2
3, 0
6, 5
11, 11
21, 25
26, 43
35, 58
51, 48
72, 83
78, 71
63, 65
30, 39
17, 26
15, 11
9, 6
7, 1
2, 1
2, 5
4, 5
6, 3
2, 8
6, 11
13, 24
35, 71
96, 125
145, 200
242, 313
339, 378
398, 478
409, 489
346, 414
283, 266
192, 215
113, 120
59, 68
28, 42
19, 19
8, 10
6, 7
4, 4
3, 7
4, 4
3, 3
3, 2
1, 0
3, 3
2, 2
0, 1
1, 3
1, 4
5, 7
7, 5
8, 5
4, 3
6, 7
6, 17
4, 16
5, 15
6, 15
1, 17
4, 23
17, 39
22, 35
14, 32
30, 43
35, 50
44, 60
48, 63
48, 57
47, 66
43, 53
34, 47
25, 31
28, 36
23, 28
27, 32
16, 15
25, 23
16, 19
16, 22
15, 13
14, 5
5, 9
8, 7
5, 3
0, 3
8, 2
5, 1
2, 2
3, 4
2, 6
4, 3
1, 1
1, 6
3, 3
2, 0
3, 1
1, 2
3, 1
3, 0
2, 6
1, 1
2, 4
4, 2
5, 4
3, 11
9, 10
6, 9
25, 13
18, 23
17, 25
23, 29
23, 20
19, 18
13, 26
10, 18
9, 5
6, 4
5, 6
3, 6
3, 3
2, 6
5, 5
7, 3
5, 6
4, 9
5, 7
7, 4
7, 5
3, 3
3, 12
3, 5
1, 3
4, 2
6, 7
4, 7
4, 5
2, 2
2, 4
5, 5
3, 6
2, 6
2, 7
8, 7
8, 12
10, 19
4, 15
7, 15
11, 22
10, 16
14, 14
17, 10
15, 16
17, 18
11, 15
9, 10
5, 15
6, 8
4, 7
1, 5
5, 11
5, 10
7, 10
4, 11
9, 6
4, 18
6, 8
7, 18
5, 10
4, 9
0, 18
5, 12
3, 11
3, 7
4, 8
4, 3
9, 9
8, 10
5, 14
9, 10
12, 12
14, 12
18, 18
22, 18
33, 21
30, 15
31, 10
37, 11
51, 13
50, 6
41, 7
37, 10
32, 9
29, 10
21, 7
23, 11
11, 8
12, 10
16, 16
25, 19
24, 37
33, 36
41, 57
51, 54
49, 61
67, 70
67, 57
49, 48
50, 38
31, 30
22, 24
19, 21
23, 21
22, 34
13, 56
29, 73
46, 125
77, 173
151, 291
260, 466
432, 735
697, 1102
1091, 1528
1424, 2002
1805, 2306
2100, 2582
2209, 2614
2187, 2444
1979, 2022
1583, 1609
1296, 1155
843, 790
511, 472
341, 254
180, 143
121, 69
52, 44
36, 24
20, 17
14, 13
21, 15
20, 19
21, 18
26, 24
24, 28
33, 37
33, 59
65, 88
98, 144
129, 189
185, 245
213, 299
302, 382
328, 344
329, 354
316, 324
322, 310
256, 217
160, 159
128, 99
73, 78
51, 53
34, 22
15, 13
12, 12
8, 4
10, 11
11, 11
19, 11
12, 14
19, 17
20, 16
16, 17
22, 17
22, 19
25, 10
21, 11
18, 9
8, 7
5, 3
10, 4
4, 7
6, 5
5, 1
2, 3
5, 3
3, 4
1, 3
4, 1
3, 4
7, 8
3, 3
6, 8
4, 10
7, 4
7, 6
4, 5
6, 4
10, 3
7, 8
5, 4
5, 4
4, 5
5, 12
4, 2
6, 4
5, 10
8, 8
4, 5
1, 3
4, 1
0, 5
1, 3
4, 3
3, 6
2, 7
7, 2
4, 3
3, 4
5, 5
6, 5
2, 3
5, 9
6, 9
3, 3
5, 4
7, 10
5, 3
4, 14
9, 12
10, 17
12, 22
10, 22
17, 27
17, 30
21, 30
21, 20
19, 27
22, 25
20, 13
26, 16
21, 8
18, 5
14, 2
5, 10
8, 5
7, 2
7, 4
7, 2
4, 4
2, 6
2, 4
4, 2
6, 1
2, 1
3, 1
5, 0
1, 3
2, 4
4, 3
6, 1
3, 5
1, 4
2, 0
6, 3
3, 3
4, 2
6, 7
0, 7
4, 3
4, 2
2, 6
1, 1
4, 4
2, 2
1, 3
1, 2
3, 2
1, 2
4, 4
7, 2
1, 1
3, 3
2, 4
4, 1
1, 0
2, 0
3, 0
2, 1
3, 4
1, 1
3, 1
3, 0
0, 4
2, 1
3, 0
2, 4
3, 3
1, 6
8, 4
2, 2
1, 4
1, 5
3, 2
3, 4
3, 3
4, 5
2, 4
2, 3
3, 3
3, 5
2, 0
0, 3
3, 4
3, 3
2, 2
5, 3
5, 5
3, 2
7, 2
4, 1
10, 1
9, 3
9, 3
8, 3
6, 5
6, 1
4, 2
3, 0
6, 5
5, 2
1, 6
2, 2
1, 2
1, 1
1, 5
4, 4
3, 5
0, 6
4, 6
2, 9
2, 5
3, 7
1, 7
4, 4
4, 3
3, 5
1, 5
2, 4
2, 6
3, 2
2, 4
0, 3
1, 1
2, 3
2, 2
0, 3
2, 2
1, 4
0, 2
1, 0
0, 0
2, 2
1, 4
0, 3
1, 2
0, 1
2, 1
3, 2
0, 1
1, 4
0, 1
1, 1
0, 2
0, 3
1, 2
1, 1
1, 0
0, 2
2, 0
0, 1
4, 3
2, 3
3, 1
0, 3
4, 1
2, 3
2, 2
1, 7
1, 3
1, 4
4, 5
5, 10
0, 7
3, 3
3, 3
3, 1
4, 5
3, 0
1, 3
5, 4
4, 4
3, 1
2, 1
1, 3
2, 2
3, 1
4, 1
2, 1
2, 4
2, 0
2, 2
2, 2
1, 0
3, 2
1, 1
1, 4
1, 0
1, 2
0, 7
3, 8
2, 2
0, 2
4, 2
0, 2
3, 0
9, 2
4, 1
2, 0
1, 0
2, 1
0, 2
2, 1
1, 2
2, 2
2, 1
1, 1
0, 1
1, 3
0, 1
2, 0
2, 2
1, 4
2, 0
1, 2
0, 0
1, 3
2, 0
1, 0
1, 2
0, 1
1, 0
3, 2
0, 0
3, 2
0, 0
2, 1
1, 0
1, 2
0, 0
1, 0
1, 0
1, 0
0, 1
0, 1
3, 0
1, 1
0, 1
0, 1
0, 2
1, 2
1, 0
1, 3
1, 0
0, 0
0, 0
1, 0
0, 1
0, 1
0, 1
3, 0
0, 0
2, 1
0, 1
0, 2
0, 1
0, 0
0, 1
0, 0
0, 0
1, 3
1, 0
0, 0
2, 1
0, 1
0, 0
0, 1
1, 0
0, 2
0, 0
1, 2
1, 0
1, 3
1, 1
0, 1
0, 1
0, 0
0, 0
0, 0
0, 0
0, 1
0, 1
0, 0
0, 0
3, 1
0, 1
1, 0
0, 0
1, 1
1, 0
1, 0
0, 1
1, 0
1, 2
0, 0
0, 0
0, 1
0, 1
1, 3
0, 0
2, 0
0, 1
0, 0
0, 0
0, 0
1, 0
0, 1
2, 2
0, 0
0, 0
0, 1
1, 3
0, 3
1, 0
0, 1
1, 0
0, 2
1, 1
0, 1
0, 0
1, 1
1, 0
1, 0
0, 0
1, 1
0, 0
0, 0
1, 2
0, 0
0, 1
0, 1
0, 0
2, 1
0, 0
0, 0
0, 0
1, 0
0, 1
0, 0
1, 1
0, 0
0, 0
0, 0
0, 1
1, 1
3, 0
0, 1
0, 1
0, 2
0, 0
0, 0
0, 1
1, 0
0, 0
0, 0
1, 1
1, 0
2, 0
2, 0
0, 1
0, 2
0, 0
0, 0
0, 0
0, 0
1, 0
0, 1
0, 0
0, 0
0, 0
0, 0
0, 0
0, 1
0, 1
0, 0
0, 0
0, 2
0, 0
0, 0
0, 2
0, 0
0, 1
0, 0
0, 0
0, 0
0, 0
0, 0
1, 0
1, 1
0, 0
0, 0
0, 1
0, 0
0, 0
0, 0
0, 0
0, 0
0, 0
0, 0
1, 0
0, 1
0, 0
0, 0
0, 0
1, 0
0, 0
0, 0
0, 0
0, 0
0, 0
0, 0
1, 0
0, 0
0, 0
1, 1
0, 0
0, 1
0, 0
0, 0
0, 0
0, 0
0, 0
0, 2
0, 0
1, 1
0, 0
0, 0
0, 0
0, 0
0, 0
0, 0
0, 1
0, 0
0, 0
0, 0
0, 1
1, 0
0, 0
0, 0
0, 0
0, 0
0, 0
0, 0
0, 0
1, 1
0, 0
0, 1
0, 0
0, 0
0, 1
0, 0
0, 0
0, 1
0, 0
0, 0
0, 0
0, 0
0, 0
0, 0
0, 0
0, 0
1, 0
0, 0
0, 0
0, 0
0, 0
0, 0
0, 0
0, 0
0, 1
0, 0
0, 0
1, 0
0, 0
0, 0
0, 0
0, 0
0, 0
1, 0
0, 0
0, 0
0, 0
0, 0
0, 1
0, 2
0, 0
0, 0
0, 0
0, 0
0, 0
0, 0
0, 0
0, 1
0, 1
0, 0
0, 1
0, 0
0, 0
0, 0
0, 0
0, 0
0, 1
0, 0
0, 0
0, 0
0, 0
0, 0
0, 0
0, 0
0, 0
0, 0
0, 2
0, 0
0, 0
0, 0
0, 0
1, 0
0, 0
0, 0
0, 0
0, 0
0, 0
0, 0
0, 0
0, 0
0, 0
0, 0
0, 0
0, 0
0, 0
0, 0
0, 0
0, 0
0, 0
0, 0
0, 0
0, 0
0, 0
0, 0
0, 0
0, 0
0, 0
0, 0
0, 0
0, 0
0, 0
0, 0
0, 1
0, 0
0, 0
0, 0
0, 0
0, 0
0, 0
0, 0
0, 0
1, 0
0, 0
0, 0
0, 0
0, 0
0, 0
0, 0
0, 0
1, 0
0, 0
0, 0
0, 0
0, 0
0, 0
0, 0
0, 0
0, 0
0, 0
0, 0
0, 0
0, 0
0, 0
0, 0
0, 0
0, 0
0, 0
0, 1
0, 0
0, 0
0, 0
0, 0
0, 0
0, 0
0, 1
0, 0
0, 0
0, 0
0, 0
0, 0
0, 0
0, 0
0, 0
0, 0
0, 0
0, 0
0, 0
0, 0
0, 0
0, 0
0, 0
0, 0
0, 0
0, 0
0, 0
0, 0
0, 0
0, 0
0, 0
0, 0
0, 0
0, 0
0, 0
0, 0
0, 0
0, 0
0, 0
0, 0
0, 0
0, 0
0, 0
0, 0
0, 0
0, 0
0, 0
0, 0
0, 0
0, 0
0, 0
0, 0
0, 0
0, 0
0, 0
0, 0
0, 0
0, 0
0, 0
0, 0
0, 0
0, 0
0, 0
0, 0
0, 0
0, 0
0, 0
0, 0
0, 0
0, 0
0, 0
0, 0
0, 0
0, 0
0, 0
0, 0
0, 0
0, 0
0, 0
0, 0
0, 0
0, 0
0, 0
0, 0
0, 0
0, 0
0, 0
0, 0
0, 0
0, 0
0, 0
0, 0
0, 0
0, 0
0, 0
0, 0
0, 0
0, 0
0, 0
0, 0
0, 0
0, 0
0, 0
0, 0
0, 0
0, 0
0, 0
0, 0
0, 0
0, 0
0, 0
0, 0
0, 0
0, 0
0, 0
0, 0
0, 0
0, 0
0, 0
0, 0
0, 0
0, 0
0, 0
0, 0
0, 0
0, 0
0, 0
0, 0
0, 0
0, 0
0, 0
0, 0
0, 0
0, 0
0, 0
0, 0
0, 0
0, 0
0, 0
0, 0
0, 0
0, 0
0, 0
0, 0
0, 0
0, 0
0, 0
0, 0
0, 0
0, 0
0, 0
0, 0
0, 0
0, 0
0, 0
0, 0
0, 0
0, 0
0, 0
0, 0
0, 0
0, 0
0, 0
0, 0
0, 0
0, 0
0, 0
0, 0
0, 0
0, 0
0, 0
0, 0
0, 0
0, 0
0, 0
0, 0
0, 0
0, 0
0, 0
0, 0
0, 0
0, 0
0, 0
0, 0
0, 0
0, 0
0, 0
0, 0
0, 0
0, 0
0, 0
0, 0
0, 0
0, 0
0, 0
0, 0
0, 0
0, 0
0, 0
0, 0
0, 0
0, 0
0, 0
0, 0
0, 0
0, 0
0, 0
0, 0
0, 0
0, 0
0, 0
0, 0
0, 0
0, 0
0, 0
0, 0
0, 0
0, 0
0, 0
0, 0
0, 0
0, 0
0, 0
0, 0
0, 0
0, 0
0, 0
0, 0
0, 0
0, 0
0, 0
0, 0
0, 0
0, 0
0, 0
0, 0
0, 0
0, 0
0, 0
0, 0
0, 0
0, 0
0, 0
0, 0
0, 0
0, 0
0, 0
0, 0
0, 0
0, 0
0, 0
0, 0
0, 0
0, 0
0, 0
0, 0
0, 0
0, 0
0, 0
0, 0
0, 0
0, 0
0, 0
0, 0
0, 0
0, 0
0, 0
0, 0
0, 0
0, 0
0, 0
0, 0
0, 0
0, 0
0, 0
0, 0
0, 0
0, 0
0, 0
0, 0
0, 0
0, 0
0, 0
0, 0
0, 0
0, 0
0, 0
0, 0
0, 0
0, 0
0, 0
0, 0
0, 0
0, 0
0, 0
0, 0
0, 0
0, 0
0, 0
0, 0
0, 0
0, 0
0, 0
0, 0
0, 0
0, 0
0, 0
0, 0
0, 0
0, 0
0, 0
0, 0
0, 0
0, 0
0, 0
0, 0
0, 0
0, 0
0, 0
0, 0
0, 0
0, 0
0, 0
0, 0
0, 0
0, 0
0, 0
0, 0
0, 0
0, 0
0, 0
0, 0
0, 0
0, 0
0, 0
0, 0
0, 0
0, 0
0, 0
0, 0
0, 0
0, 0
0, 0
0, 0
0, 0
0, 0
0, 0
0, 0
0, 0
0, 0
0, 0
0, 0
0, 0
0, 0
0, 0
0, 0
0, 0
0, 0
0, 0
0, 0
0, 0
0, 0
0, 0
0, 0
0, 0
0, 0
0, 0
0, 0
0, 0
0, 0
0, 0
0, 0
0, 0
0, 0
0, 0
0, 0
0, 0
0, 0
0, 0
0, 0
0, 0
0, 0
0, 0
0, 0
0, 0
0, 0
0, 0
0, 0
0, 0
0, 0
0, 0
0, 0
0, 0
0, 0
0, 0
0, 0
0, 0
0, 0
0, 0
0, 0
0, 0
0, 0
0, 0
0, 0
0, 0
0, 0
0, 0
#ENDOFDATA     end of spectrum data