File: host_upload/06-09-2024/ps_0852/dump3/ps__0852shot_2285.msa
#FORMAT      : EMSA/MAS spectral data file
#VERSION     : TC202v2.0 PIXL
#TITLE       : N/A
#DATE        :       Date in the format DD-MMM-YYYY, for example 07-JUL-2010
#TIME        :             The time of day at which the spectrum was recorded, in 24-hour format
#OWNER       : PIXL Flight Model       (PIXL will use this to indicate which instrument took the data.)
#NPOINTS     : 4096     Number of data points in the spectrum (This can be zero for configuration only files)
#NCOLUMNS    : 2     Number of data columns in the spectrum (This can be zero for configuration only files)
#XUNITS      : eV
#YUNITS      : COUNTS
#DATATYPE    : YY
#XPERCHAN    : 7.862, 7.881   eV per channel (separate by commas if more than one detector)
#OFFSET      : 18.5, -22.4         eV of first channel  (separate by commas if more than one detector
#SIGNALTYPE  : XRF
#YP_TEMP     : 2.332
#LIVETIME    : 8.54297, 8.52211   seconds (separate by commas if more than one detector)
#REALTIME    : 10, 10.0   seconds (separate by commas if more than one detector)
#SPECTRUM    : start of spectrum data
0, 0
0, 0
0, 0
0, 0
0, 0
0, 0
0, 0
0, 0
0, 0
0, 0
0, 0
0, 0
0, 0
0, 0
0, 0
0, 0
0, 0
0, 0
0, 0
0, 0
0, 0
0, 0
0, 0
0, 0
0, 0
0, 0
0, 0
0, 0
0, 0
0, 0
1, 1
0, 0
0, 0
1, 1
0, 0
0, 0
0, 0
0, 2
2, 1
0, 3
2, 0
2, 3
1, 1
1, 2
1, 4
0, 0
1, 2
3, 2
8, 7
11, 13
22, 28
49, 48
54, 60
73, 93
62, 88
67, 67
56, 68
27, 50
29, 26
16, 12
9, 4
3, 6
1, 5
3, 5
2, 3
4, 4
7, 3
7, 8
11, 17
45, 37
76, 84
121, 170
212, 260
256, 351
305, 392
328, 410
311, 350
231, 256
166, 185
99, 117
50, 49
32, 32
13, 20
9, 17
1, 8
4, 3
3, 3
1, 1
2, 1
4, 1
9, 8
11, 11
23, 29
35, 46
95, 91
122, 159
239, 212
271, 334
285, 319
347, 319
300, 310
225, 211
166, 175
122, 106
78, 77
44, 46
35, 40
25, 34
25, 42
43, 32
39, 64
44, 56
63, 61
65, 70
56, 57
64, 62
52, 44
45, 36
39, 32
39, 31
35, 22
32, 19
28, 16
20, 24
20, 20
18, 26
14, 8
13, 21
8, 6
4, 12
5, 4
4, 7
8, 5
4, 3
2, 3
5, 6
3, 6
12, 8
9, 15
4, 7
11, 20
12, 12
9, 12
10, 10
6, 7
2, 12
5, 4
6, 4
8, 5
5, 3
4, 4
10, 6
10, 8
9, 17
27, 22
21, 21
30, 32
30, 40
17, 23
32, 24
32, 15
10, 18
8, 9
9, 5
8, 5
1, 2
1, 3
5, 2
8, 4
7, 9
5, 6
5, 13
7, 2
5, 7
7, 3
5, 6
7, 6
6, 3
5, 3
6, 8
6, 5
6, 6
3, 7
7, 3
4, 6
2, 9
4, 3
2, 9
4, 7
11, 15
6, 6
5, 11
4, 15
11, 7
5, 14
14, 18
16, 13
11, 16
15, 13
12, 18
10, 13
10, 8
5, 15
5, 6
5, 11
6, 9
5, 6
6, 9
9, 6
6, 14
4, 14
8, 21
11, 10
3, 8
6, 9
7, 7
6, 4
7, 9
6, 6
7, 3
4, 7
8, 6
2, 13
7, 6
6, 9
4, 10
10, 10
7, 13
21, 21
26, 17
17, 7
19, 28
20, 15
25, 14
28, 14
24, 15
24, 8
20, 13
20, 8
15, 3
17, 13
21, 13
29, 13
35, 19
67, 22
86, 27
102, 32
136, 39
145, 54
134, 82
134, 66
168, 61
117, 70
97, 50
71, 49
53, 27
37, 25
27, 26
23, 23
19, 18
17, 26
28, 39
34, 54
78, 96
132, 206
231, 346
420, 585
712, 1010
1049, 1443
1408, 1874
1685, 2289
2097, 2474
2154, 2576
2108, 2324
1884, 2057
1515, 1622
1183, 1155
858, 732
492, 492
289, 256
178, 144
94, 74
50, 54
26, 18
21, 17
16, 17
10, 13
10, 17
15, 12
18, 21
20, 29
32, 36
30, 47
49, 87
93, 126
138, 189
184, 228
257, 306
300, 335
306, 330
312, 364
305, 364
249, 297
238, 248
179, 161
119, 108
91, 77
54, 46
34, 30
20, 23
11, 18
10, 7
10, 13
4, 7
7, 18
16, 14
15, 21
20, 18
12, 15
15, 20
12, 12
12, 12
14, 13
21, 4
17, 6
17, 3
12, 5
7, 4
7, 4
2, 5
9, 5
6, 3
6, 6
5, 3
4, 4
1, 1
2, 4
6, 1
4, 1
2, 9
8, 3
4, 6
5, 3
6, 3
6, 3
6, 5
9, 5
4, 5
2, 6
4, 4
5, 8
3, 4
10, 6
7, 7
5, 6
4, 7
4, 5
6, 5
6, 2
3, 0
8, 7
4, 5
4, 7
6, 6
4, 4
5, 9
4, 2
4, 4
6, 8
1, 6
8, 2
2, 6
6, 7
2, 6
2, 1
3, 2
4, 4
6, 3
4, 4
4, 3
1, 5
2, 4
6, 5
2, 0
4, 4
4, 4
2, 3
3, 7
4, 2
3, 3
4, 5
5, 10
5, 4
3, 3
6, 4
3, 2
10, 8
5, 4
11, 2
10, 7
5, 3
11, 5
5, 2
6, 5
6, 4
9, 5
6, 3
1, 5
4, 1
2, 3
6, 3
3, 3
1, 2
5, 1
3, 3
3, 4
3, 4
4, 8
2, 7
0, 6
8, 5
3, 7
4, 8
3, 6
4, 6
4, 5
3, 1
2, 5
2, 2
4, 4
3, 4
5, 2
0, 1
5, 4
2, 8
2, 5
2, 5
3, 2
1, 4
3, 1
2, 5
1, 3
4, 3
2, 5
4, 2
5, 3
2, 5
2, 3
3, 5
3, 6
1, 6
1, 3
1, 2
4, 1
4, 5
1, 0
3, 1
1, 1
4, 3
2, 4
3, 3
1, 3
0, 2
2, 3
0, 0
0, 4
3, 0
8, 5
3, 1
2, 3
5, 1
5, 4
4, 2
5, 6
2, 2
2, 2
1, 5
2, 2
3, 3
5, 3
2, 4
1, 0
2, 3
4, 1
4, 2
1, 5
5, 2
2, 0
1, 1
4, 0
2, 4
2, 1
3, 1
4, 1
4, 1
6, 4
6, 3
4, 3
2, 5
4, 6
5, 1
3, 2
6, 7
6, 4
3, 1
3, 1
1, 3
2, 3
0, 1
2, 4
2, 1
2, 6
0, 0
0, 1
2, 0
5, 7
3, 3
0, 3
5, 2
4, 0
4, 1
0, 2
0, 4
6, 0
2, 2
3, 1
0, 1
5, 0
1, 0
3, 1
0, 0
4, 2
1, 5
2, 4
1, 2
1, 3
3, 3
2, 6
1, 1
0, 2
2, 5
3, 9
3, 3
2, 5
1, 3
2, 5
1, 2
1, 4
1, 3
1, 1
1, 5
2, 3
0, 3
4, 2
1, 3
1, 1
2, 0
2, 1
0, 2
1, 2
1, 0
2, 3
1, 0
1, 4
1, 0
2, 2
0, 1
1, 5
0, 1
3, 2
2, 2
1, 2
2, 4
1, 1
3, 4
0, 2
0, 2
5, 1
0, 2
0, 1
0, 1
1, 2
2, 1
1, 0
3, 1
1, 1
1, 2
1, 2
0, 1
1, 1
1, 2
0, 3
1, 2
3, 0
1, 1
0, 0
0, 0
1, 4
2, 1
0, 1
1, 4
0, 1
0, 0
2, 2
1, 2
1, 0
2, 1
0, 0
2, 0
1, 0
1, 0
0, 0
0, 1
0, 0
0, 0
1, 0
2, 0
1, 0
1, 1
0, 0
0, 0
2, 0
0, 2
1, 0
0, 2
0, 0
1, 1
2, 1
0, 0
1, 0
0, 0
0, 0
0, 0
0, 1
1, 1
0, 0
1, 1
0, 0
0, 0
0, 1
0, 2
2, 0
1, 0
0, 2
0, 0
3, 0
3, 0
0, 0
0, 1
1, 1
0, 0
0, 1
0, 0
1, 2
0, 0
1, 0
0, 1
0, 0
2, 1
2, 0
0, 0
1, 3
0, 2
2, 1
1, 1
0, 0
2, 1
0, 0
0, 0
2, 1
2, 2
0, 2
0, 0
1, 2
1, 0
0, 1
3, 0
1, 0
0, 0
0, 0
0, 0
0, 1
2, 0
0, 1
0, 0
0, 0
0, 0
0, 1
0, 0
2, 1
0, 1
0, 1
1, 0
0, 0
0, 0
1, 2
1, 1
0, 0
0, 0
0, 2
0, 3
0, 0
0, 1
0, 1
1, 0
0, 0
0, 1
0, 2
1, 1
0, 1
1, 2
0, 0
0, 0
0, 0
1, 0
0, 0
1, 1
0, 0
0, 0
0, 0
0, 0
0, 0
0, 0
0, 1
1, 1
0, 1
0, 0
0, 0
0, 0
1, 0
0, 1
1, 0
1, 0
0, 0
0, 0
0, 0
0, 1
0, 0
0, 0
0, 0
1, 0
0, 0
0, 2
0, 1
0, 2
0, 0
0, 0
0, 0
1, 1
0, 0
1, 0
0, 1
0, 0
0, 1
0, 0
1, 1
0, 1
0, 0
0, 0
1, 2
0, 0
0, 0
0, 1
0, 1
0, 1
1, 1
0, 0
1, 0
0, 1
1, 0
1, 0
0, 0
0, 0
0, 0
0, 0
0, 0
0, 0
0, 0
0, 0
1, 1
1, 0
0, 1
0, 0
0, 1
1, 0
0, 0
0, 0
0, 1
1, 0
1, 1
0, 0
0, 1
0, 0
0, 0
1, 0
0, 1
1, 2
0, 0
0, 0
0, 0
0, 0
0, 0
0, 0
0, 1
1, 0
1, 0
0, 0
0, 0
0, 0
0, 0
0, 0
0, 1
0, 0
0, 0
0, 1
0, 0
0, 0
1, 0
1, 0
0, 0
0, 0
0, 0
0, 0
0, 1
0, 0
0, 0
0, 0
0, 0
0, 0
0, 0
0, 0
0, 0
1, 0
1, 0
1, 0
1, 0
0, 0
0, 0
0, 0
0, 0
0, 0
0, 0
0, 0
1, 0
0, 0
0, 0
0, 1
0, 0
0, 0
0, 0
0, 0
0, 0
1, 1
0, 1
1, 0
0, 2
0, 1
1, 0
0, 0
0, 0
0, 0
0, 0
0, 0
1, 0
0, 0
0, 1
0, 0
1, 0
0, 0
0, 0
0, 0
0, 1
0, 0
0, 0
0, 0
0, 0
0, 1
0, 0
1, 1
0, 0
0, 0
0, 0
0, 0
0, 0
0, 0
0, 0
0, 0
0, 0
0, 0
1, 0
0, 0
0, 0
0, 0
0, 0
0, 0
0, 0
0, 0
0, 0
0, 0
0, 0
0, 0
0, 0
0, 0
0, 1
0, 0
0, 0
0, 0
0, 0
0, 0
0, 0
0, 0
0, 0
0, 0
0, 0
0, 0
1, 0
0, 0
0, 0
0, 0
0, 0
0, 0
0, 0
0, 0
0, 0
0, 0
0, 0
0, 1
0, 0
0, 0
0, 0
0, 0
0, 0
0, 0
0, 0
0, 0
0, 0
0, 0
0, 0
0, 0
0, 0
0, 0
0, 0
0, 0
0, 0
0, 0
0, 0
0, 0
0, 0
0, 0
0, 0
0, 0
0, 0
0, 0
0, 0
0, 0
0, 0
0, 0
0, 0
0, 0
0, 0
0, 0
0, 0
0, 0
0, 0
0, 0
0, 0
0, 0
0, 0
0, 0
0, 0
0, 0
0, 0
0, 0
0, 0
0, 0
0, 0
0, 0
0, 1
0, 0
0, 0
0, 0
0, 0
0, 0
0, 0
0, 0
0, 0
0, 0
0, 0
0, 0
0, 0
0, 0
0, 0
0, 0
0, 1
0, 0
0, 0
0, 0
0, 0
0, 0
0, 0
0, 0
0, 0
0, 0
0, 0
0, 0
0, 0
0, 0
0, 0
0, 0
0, 0
0, 0
0, 0
0, 0
0, 0
0, 0
0, 0
0, 0
0, 0
0, 0
0, 0
0, 0
0, 0
0, 0
0, 0
0, 0
0, 0
0, 0
0, 0
0, 0
0, 0
0, 0
0, 0
0, 0
0, 0
0, 0
0, 0
0, 0
0, 0
0, 0
0, 0
0, 0
0, 0
0, 0
0, 0
0, 0
0, 0
0, 0
0, 0
0, 0
0, 0
0, 0
0, 0
0, 0
0, 0
0, 0
0, 0
0, 0
0, 0
0, 0
0, 0
0, 0
0, 1
0, 0
0, 0
0, 0
0, 0
0, 0
0, 0
0, 0
0, 0
0, 0
0, 0
0, 0
0, 0
0, 0
0, 0
0, 0
0, 0
0, 0
0, 0
0, 0
0, 0
0, 0
0, 0
0, 0
0, 0
0, 0
0, 0
0, 0
0, 0
0, 0
0, 0
0, 0
0, 0
0, 0
0, 0
0, 0
0, 0
1, 0
0, 0
0, 0
0, 0
0, 0
0, 0
0, 0
0, 0
0, 0
0, 0
0, 0
0, 0
0, 0
0, 0
0, 0
0, 0
0, 0
0, 0
0, 0
0, 0
0, 0
0, 0
0, 0
0, 0
0, 0
0, 0
0, 0
0, 0
0, 0
0, 0
0, 0
0, 0
0, 0
0, 0
0, 0
0, 0
0, 0
0, 0
0, 0
0, 0
0, 0
0, 0
0, 0
0, 0
0, 0
0, 0
0, 0
0, 0
0, 0
0, 0
0, 0
0, 0
0, 0
0, 0
0, 0
0, 0
0, 0
0, 0
0, 0
0, 0
0, 0
0, 0
0, 0
0, 0
0, 0
0, 0
0, 0
0, 0
0, 0
0, 0
0, 0
0, 0
0, 0
0, 0
0, 0
0, 0
0, 0
0, 0
0, 0
0, 0
0, 0
0, 0
0, 0
0, 0
0, 0
0, 0
0, 0
0, 0
0, 0
0, 0
0, 0
0, 0
0, 0
0, 0
0, 0
0, 0
0, 0
0, 0
0, 0
0, 0
0, 0
0, 0
0, 0
0, 0
0, 0
0, 0
0, 0
0, 0
0, 0
0, 0
0, 0
0, 0
0, 0
0, 0
0, 0
0, 0
0, 0
0, 0
0, 0
0, 0
0, 0
0, 0
0, 0
0, 0
0, 0
0, 0
0, 0
0, 0
0, 0
0, 0
0, 0
0, 0
0, 0
0, 0
0, 0
0, 0
0, 0
0, 0
0, 0
0, 0
0, 0
0, 0
0, 0
0, 0
0, 0
0, 0
0, 0
0, 0
0, 0
0, 0
0, 0
0, 0
0, 0
0, 0
0, 0
0, 0
0, 0
0, 0
0, 0
0, 0
0, 0
0, 0
0, 0
0, 0
0, 0
0, 0
0, 0
0, 0
0, 0
0, 0
0, 0
0, 0
0, 0
0, 0
0, 0
0, 0
0, 0
0, 0
0, 0
0, 0
0, 0
0, 0
0, 0
0, 0
0, 0
0, 0
0, 0
0, 0
0, 0
0, 0
0, 0
0, 0
0, 0
0, 0
0, 0
0, 0
0, 0
0, 0
0, 0
0, 0
0, 0
0, 0
0, 0
0, 0
0, 0
0, 0
0, 0
0, 0
0, 0
0, 0
0, 0
0, 0
0, 0
0, 0
0, 0
0, 0
0, 0
0, 0
0, 0
0, 0
0, 0
0, 0
0, 0
0, 0
0, 0
0, 0
0, 0
0, 0
0, 0
0, 0
0, 0
0, 0
0, 0
0, 0
0, 0
0, 0
0, 0
0, 0
0, 0
0, 0
0, 0
0, 0
0, 0
0, 0
0, 0
0, 0
0, 0
0, 0
0, 0
0, 0
0, 0
0, 0
0, 0
0, 0
0, 0
0, 0
0, 0
0, 0
0, 0
0, 0
0, 0
0, 0
0, 0
0, 0
0, 0
0, 0
0, 0
0, 0
#ENDOFDATA     end of spectrum data