File: host_upload/06-09-2024/ps_0852/dump3/ps__0852shot_2006.msa
#FORMAT      : EMSA/MAS spectral data file
#VERSION     : TC202v2.0 PIXL
#TITLE       : N/A
#DATE        :       Date in the format DD-MMM-YYYY, for example 07-JUL-2010
#TIME        :             The time of day at which the spectrum was recorded, in 24-hour format
#OWNER       : PIXL Flight Model       (PIXL will use this to indicate which instrument took the data.)
#NPOINTS     : 4096     Number of data points in the spectrum (This can be zero for configuration only files)
#NCOLUMNS    : 2     Number of data columns in the spectrum (This can be zero for configuration only files)
#XUNITS      : eV
#YUNITS      : COUNTS
#DATATYPE    : YY
#XPERCHAN    : 7.862, 7.881   eV per channel (separate by commas if more than one detector)
#OFFSET      : 18.5, -22.4         eV of first channel  (separate by commas if more than one detector
#SIGNALTYPE  : XRF
#YP_TEMP     : 2.332
#LIVETIME    : 8.54545, 8.53255   seconds (separate by commas if more than one detector)
#REALTIME    : 10, 10.0   seconds (separate by commas if more than one detector)
#SPECTRUM    : start of spectrum data
0, 0
0, 0
0, 0
0, 0
0, 0
0, 0
0, 0
0, 0
0, 0
0, 0
0, 0
0, 0
0, 0
0, 0
0, 0
0, 0
0, 0
0, 0
0, 0
0, 0
0, 0
0, 0
0, 0
0, 0
0, 0
0, 0
0, 0
0, 0
0, 0
0, 1
0, 0
0, 0
1, 0
0, 0
0, 0
0, 0
0, 1
1, 2
0, 1
1, 0
3, 3
3, 1
4, 2
2, 2
3, 1
3, 1
2, 0
6, 3
5, 10
16, 14
28, 25
44, 46
58, 59
68, 61
71, 87
63, 66
67, 46
50, 45
17, 31
20, 11
15, 9
3, 8
2, 6
4, 3
2, 3
6, 4
8, 5
6, 9
18, 26
43, 57
78, 89
161, 180
245, 278
328, 361
376, 413
388, 436
340, 367
290, 279
169, 175
116, 123
73, 63
33, 33
20, 12
10, 7
14, 11
6, 4
3, 8
8, 2
7, 6
5, 2
6, 1
2, 1
3, 1
3, 2
6, 4
4, 1
5, 9
8, 10
11, 8
13, 9
5, 10
10, 6
4, 4
3, 4
5, 6
7, 8
13, 7
13, 9
17, 10
28, 20
63, 24
79, 44
108, 59
138, 57
179, 77
173, 77
181, 70
120, 58
109, 65
91, 53
55, 46
56, 48
42, 54
29, 62
30, 27
22, 23
17, 20
11, 19
11, 15
14, 10
5, 3
4, 3
6, 3
1, 1
0, 2
2, 4
4, 1
4, 8
0, 3
4, 0
2, 2
4, 8
3, 2
2, 2
3, 4
3, 1
1, 3
6, 4
2, 3
7, 6
2, 8
8, 11
8, 12
13, 14
17, 26
17, 24
34, 37
26, 26
30, 33
20, 23
15, 19
8, 10
12, 9
21, 6
10, 9
7, 7
2, 6
9, 2
7, 4
11, 7
7, 9
10, 4
11, 10
8, 3
12, 4
9, 7
13, 4
15, 6
11, 6
7, 7
8, 10
5, 12
8, 4
8, 10
7, 6
4, 7
9, 11
5, 11
6, 13
16, 11
15, 8
17, 16
21, 17
23, 15
25, 20
28, 15
22, 26
37, 15
16, 24
35, 15
26, 15
18, 16
23, 9
12, 17
8, 13
13, 12
7, 6
13, 16
9, 10
9, 13
12, 13
15, 13
23, 7
8, 11
14, 6
3, 13
12, 4
8, 8
5, 9
6, 14
8, 12
12, 4
9, 6
16, 9
13, 17
9, 11
20, 19
23, 20
14, 20
23, 24
24, 34
16, 28
21, 25
20, 36
20, 27
19, 26
12, 25
8, 31
14, 23
10, 28
10, 27
19, 18
13, 23
10, 21
19, 15
13, 20
33, 43
40, 37
53, 58
47, 52
60, 72
66, 64
67, 81
45, 62
59, 32
41, 38
25, 27
14, 22
26, 25
17, 25
16, 29
35, 42
39, 77
84, 131
150, 227
295, 397
450, 612
736, 984
1066, 1438
1468, 1873
1852, 2234
2243, 2482
2412, 2458
2313, 2286
2084, 2109
1674, 1607
1350, 1184
897, 770
615, 501
364, 303
218, 170
96, 93
60, 54
38, 35
17, 14
28, 27
26, 24
19, 25
25, 15
28, 28
27, 36
37, 42
63, 48
70, 89
94, 128
147, 156
203, 242
266, 301
315, 319
367, 362
359, 368
355, 343
313, 270
264, 216
202, 141
147, 117
86, 76
52, 38
35, 27
23, 21
18, 10
8, 5
12, 11
13, 10
13, 15
15, 26
11, 17
11, 15
16, 20
22, 19
16, 11
20, 11
11, 13
7, 6
9, 11
6, 6
9, 5
5, 5
7, 3
5, 3
0, 8
7, 7
4, 13
5, 10
5, 7
7, 4
7, 6
2, 3
8, 5
2, 7
11, 10
9, 6
9, 9
5, 10
4, 7
3, 4
7, 4
3, 9
9, 6
3, 8
2, 3
10, 4
7, 4
9, 8
3, 9
10, 8
10, 7
5, 3
10, 8
4, 4
4, 6
4, 7
4, 5
4, 7
3, 4
5, 6
7, 2
4, 1
9, 9
3, 12
4, 9
1, 3
8, 8
3, 9
2, 4
2, 5
5, 6
4, 5
7, 5
8, 3
3, 4
1, 3
2, 5
7, 3
3, 6
8, 11
8, 5
5, 5
12, 5
7, 8
5, 4
5, 2
5, 5
6, 2
4, 2
6, 7
7, 4
6, 1
6, 1
1, 10
5, 2
1, 4
8, 5
4, 2
0, 3
7, 4
5, 3
5, 2
1, 2
6, 6
3, 4
2, 2
1, 3
3, 4
2, 7
2, 5
3, 3
4, 4
1, 9
2, 7
2, 3
3, 3
4, 4
3, 5
8, 5
6, 4
6, 4
3, 6
7, 7
6, 5
5, 4
5, 8
5, 4
5, 4
4, 1
9, 4
4, 4
7, 2
6, 2
4, 2
1, 4
4, 4
3, 4
2, 3
8, 4
0, 3
2, 1
3, 1
2, 6
5, 4
4, 1
5, 4
3, 5
2, 5
5, 0
1, 2
4, 5
3, 4
0, 7
5, 5
1, 4
4, 1
2, 10
3, 4
2, 7
2, 6
1, 1
1, 3
1, 4
1, 3
2, 2
3, 3
3, 0
0, 3
3, 4
4, 1
3, 2
1, 1
2, 2
3, 4
4, 2
4, 2
1, 3
1, 2
3, 0
3, 2
1, 3
0, 1
3, 2
3, 2
1, 2
3, 3
4, 2
1, 3
4, 3
0, 4
3, 1
0, 3
2, 4
0, 4
2, 0
2, 3
4, 1
4, 3
1, 4
2, 2
3, 4
7, 4
2, 1
1, 1
4, 1
4, 1
5, 2
2, 1
1, 2
2, 0
5, 1
5, 2
0, 3
2, 1
3, 2
1, 2
2, 1
2, 1
0, 2
0, 1
1, 2
0, 0
0, 3
4, 5
0, 0
1, 1
1, 2
1, 1
2, 2
4, 5
1, 4
6, 2
2, 3
4, 6
4, 5
4, 7
5, 4
6, 7
6, 2
2, 6
3, 3
2, 5
0, 3
4, 1
3, 3
1, 0
1, 1
2, 6
3, 0
4, 2
1, 2
3, 0
0, 3
1, 2
2, 1
2, 1
0, 3
0, 3
2, 4
0, 4
4, 1
1, 1
0, 3
6, 2
3, 3
0, 5
6, 1
0, 2
1, 6
1, 1
2, 1
2, 2
1, 0
2, 1
0, 3
0, 1
1, 1
0, 2
2, 2
2, 1
2, 2
3, 1
0, 0
1, 1
0, 0
0, 0
0, 0
0, 1
0, 2
2, 1
0, 2
1, 2
0, 2
1, 1
2, 0
0, 3
3, 1
0, 1
0, 0
1, 1
0, 2
0, 0
0, 0
2, 1
4, 0
0, 1
1, 0
2, 2
2, 0
2, 0
1, 3
0, 0
0, 1
3, 0
0, 0
1, 0
0, 2
2, 0
0, 1
0, 0
0, 0
0, 2
1, 0
1, 0
1, 0
1, 0
1, 0
0, 1
0, 1
0, 3
0, 1
1, 1
0, 3
1, 0
1, 2
2, 1
3, 0
2, 0
0, 1
0, 1
1, 0
1, 3
1, 1
1, 1
0, 2
2, 0
3, 1
1, 2
2, 0
2, 0
1, 1
3, 0
0, 0
1, 0
1, 2
1, 1
0, 0
2, 0
3, 0
0, 0
0, 1
1, 2
0, 1
0, 1
1, 0
0, 2
0, 1
1, 0
1, 0
0, 0
0, 0
0, 1
1, 1
1, 0
3, 0
0, 1
0, 0
1, 1
0, 1
1, 0
0, 1
0, 0
2, 1
1, 0
0, 1
1, 1
0, 1
0, 0
0, 2
1, 0
1, 1
2, 0
0, 1
0, 0
1, 1
0, 0
0, 1
0, 0
1, 0
0, 0
0, 2
0, 1
1, 0
0, 0
0, 2
0, 0
0, 1
1, 2
1, 0
0, 0
0, 1
0, 3
0, 0
0, 1
0, 0
1, 0
1, 0
0, 1
0, 0
0, 0
1, 0
0, 0
0, 0
0, 2
0, 0
0, 0
0, 0
0, 0
2, 0
0, 0
1, 0
0, 0
1, 2
0, 0
2, 0
0, 0
0, 0
0, 0
1, 0
0, 1
0, 0
1, 0
0, 0
0, 0
0, 0
1, 0
0, 0
1, 0
0, 0
1, 1
1, 0
1, 0
0, 0
0, 0
0, 1
3, 0
0, 0
1, 0
2, 0
0, 1
1, 0
0, 0
0, 1
1, 0
0, 0
0, 0
0, 1
1, 0
0, 1
0, 0
0, 1
0, 0
0, 0
1, 0
0, 3
0, 0
1, 1
0, 0
1, 1
0, 0
0, 0
0, 0
0, 0
0, 0
0, 1
1, 0
1, 0
1, 0
2, 0
0, 1
0, 1
0, 0
0, 1
0, 0
0, 0
0, 1
0, 0
1, 1
1, 0
0, 0
0, 0
0, 0
0, 0
0, 0
1, 0
0, 0
0, 0
0, 1
0, 0
0, 0
2, 0
0, 0
0, 0
0, 1
0, 2
0, 0
0, 0
0, 0
0, 0
0, 0
0, 0
0, 0
0, 0
0, 0
0, 0
0, 0
0, 0
0, 0
0, 0
0, 0
0, 0
0, 0
0, 0
0, 0
1, 1
0, 0
0, 0
0, 0
0, 0
0, 0
0, 0
0, 0
0, 0
1, 0
1, 0
0, 0
0, 0
0, 0
1, 0
0, 0
0, 1
0, 0
0, 0
1, 0
0, 0
0, 0
0, 1
0, 0
0, 0
0, 0
0, 0
0, 0
0, 0
1, 0
0, 0
0, 0
0, 0
0, 0
0, 0
0, 0
0, 0
0, 0
0, 0
0, 1
0, 0
0, 0
0, 0
0, 0
0, 0
0, 0
0, 0
0, 0
0, 0
0, 0
0, 0
0, 0
0, 0
0, 0
0, 0
0, 0
0, 0
0, 0
0, 0
0, 0
0, 0
0, 0
0, 0
0, 0
0, 0
0, 0
0, 1
0, 0
0, 0
0, 0
0, 0
0, 0
0, 0
0, 0
0, 0
0, 0
0, 0
0, 0
0, 0
0, 0
0, 0
0, 0
0, 0
0, 0
0, 0
0, 0
0, 0
0, 0
0, 0
0, 0
0, 0
0, 0
0, 0
0, 0
0, 0
0, 0
0, 0
0, 0
0, 0
1, 0
0, 0
0, 0
0, 0
0, 0
0, 0
0, 2
0, 0
0, 0
0, 0
0, 0
0, 0
0, 0
0, 0
0, 0
0, 0
0, 0
0, 0
0, 0
0, 0
0, 0
0, 0
0, 0
0, 0
0, 0
0, 0
0, 0
0, 0
0, 0
0, 0
0, 1
0, 0
0, 0
0, 0
0, 0
0, 0
0, 0
0, 0
0, 0
0, 0
1, 0
0, 0
0, 0
0, 0
0, 0
0, 0
0, 0
0, 0
0, 0
0, 0
0, 0
0, 0
0, 0
0, 0
0, 0
0, 0
0, 0
0, 0
1, 1
0, 0
0, 0
0, 0
0, 0
0, 1
0, 0
0, 0
0, 0
0, 0
0, 0
0, 0
0, 0
0, 0
0, 0
0, 0
0, 0
0, 0
0, 0
0, 0
0, 0
0, 0
0, 0
0, 0
0, 0
0, 0
0, 0
0, 0
0, 0
0, 0
0, 0
0, 0
0, 0
0, 0
0, 0
0, 0
0, 0
1, 0
0, 0
0, 0
0, 0
0, 0
0, 0
0, 0
0, 0
0, 0
0, 0
0, 0
0, 0
0, 0
0, 0
0, 0
0, 0
0, 0
0, 0
0, 0
0, 0
0, 0
0, 0
0, 0
0, 0
0, 0
0, 0
0, 0
0, 0
0, 0
0, 0
0, 0
0, 0
0, 0
0, 0
0, 0
0, 1
0, 0
0, 0
0, 0
0, 0
0, 0
0, 0
0, 0
0, 0
0, 0
0, 0
0, 0
0, 0
0, 0
0, 0
0, 0
0, 0
0, 0
0, 0
0, 0
0, 0
0, 0
0, 0
0, 0
0, 0
0, 0
0, 0
0, 0
0, 0
0, 0
0, 0
0, 0
0, 0
0, 0
0, 0
0, 0
0, 0
0, 0
0, 0
0, 0
0, 0
0, 0
0, 0
0, 0
0, 0
0, 0
0, 0
0, 0
0, 0
0, 0
0, 0
0, 0
0, 0
0, 0
0, 0
0, 0
0, 0
0, 0
0, 0
0, 0
0, 0
0, 0
0, 0
0, 0
0, 0
0, 0
0, 0
0, 0
0, 0
0, 0
0, 0
0, 0
0, 0
0, 0
0, 0
0, 0
0, 0
0, 0
0, 0
0, 0
0, 0
0, 0
0, 0
0, 0
0, 0
0, 0
0, 0
0, 0
0, 0
0, 0
0, 0
0, 0
0, 0
0, 0
0, 0
0, 0
0, 0
0, 0
0, 0
0, 0
0, 0
0, 0
0, 0
0, 0
0, 0
0, 0
0, 0
0, 0
0, 0
0, 0
0, 0
0, 0
0, 0
0, 0
0, 0
0, 0
0, 0
0, 0
0, 0
0, 0
0, 0
0, 0
0, 0
0, 0
0, 0
0, 0
0, 0
0, 0
0, 0
0, 0
0, 0
0, 0
0, 0
0, 0
0, 0
0, 0
0, 0
0, 0
0, 0
0, 0
0, 0
0, 0
0, 0
0, 0
0, 0
0, 0
0, 0
0, 0
0, 0
0, 0
0, 0
0, 0
0, 0
0, 0
0, 0
0, 0
0, 0
0, 0
0, 0
0, 0
0, 0
0, 0
0, 0
0, 0
0, 0
0, 0
0, 0
0, 0
0, 0
0, 0
0, 0
0, 0
0, 0
0, 0
0, 0
0, 0
0, 0
0, 0
0, 0
0, 0
0, 0
0, 0
0, 0
0, 0
0, 0
0, 0
0, 0
0, 0
0, 0
0, 0
0, 0
0, 0
0, 0
0, 0
0, 0
0, 0
0, 0
0, 0
0, 0
0, 0
0, 0
0, 0
0, 0
0, 0
0, 0
0, 0
0, 0
0, 0
0, 0
0, 0
0, 0
0, 0
0, 0
0, 0
0, 0
0, 0
0, 0
0, 0
0, 0
0, 0
0, 0
0, 0
0, 0
0, 0
0, 0
0, 0
0, 0
0, 0
0, 0
0, 0
0, 0
0, 0
0, 0
0, 0
0, 0
0, 0
0, 0
0, 0
0, 0
0, 0
0, 0
0, 0
0, 0
0, 0
0, 0
0, 0
0, 0
0, 0
0, 0
0, 0
0, 0
0, 0
0, 0
0, 0
0, 0
0, 0
0, 0
0, 0
0, 0
0, 0
0, 0
0, 0
0, 0
0, 0
0, 0
0, 0
0, 0
0, 0
0, 0
0, 0
0, 0
0, 0
0, 0
0, 0
0, 0
0, 0
0, 0
0, 0
0, 0
0, 0
0, 0
0, 0
0, 0
0, 0
0, 0
0, 0
0, 0
0, 0
0, 0
0, 0
0, 0
0, 0
0, 0
0, 0
0, 0
0, 0
0, 0
#ENDOFDATA     end of spectrum data