File: host_upload/06-09-2024/ps_0852/dump3/ps__0852shot_2377.msa
#FORMAT      : EMSA/MAS spectral data file
#VERSION     : TC202v2.0 PIXL
#TITLE       : N/A
#DATE        :       Date in the format DD-MMM-YYYY, for example 07-JUL-2010
#TIME        :             The time of day at which the spectrum was recorded, in 24-hour format
#OWNER       : PIXL Flight Model       (PIXL will use this to indicate which instrument took the data.)
#NPOINTS     : 4096     Number of data points in the spectrum (This can be zero for configuration only files)
#NCOLUMNS    : 2     Number of data columns in the spectrum (This can be zero for configuration only files)
#XUNITS      : eV
#YUNITS      : COUNTS
#DATATYPE    : YY
#XPERCHAN    : 7.862, 7.881   eV per channel (separate by commas if more than one detector)
#OFFSET      : 18.5, -22.4         eV of first channel  (separate by commas if more than one detector
#SIGNALTYPE  : XRF
#YP_TEMP     : 2.396
#LIVETIME    : 8.55983, 8.54813   seconds (separate by commas if more than one detector)
#REALTIME    : 10, 10.0   seconds (separate by commas if more than one detector)
#SPECTRUM    : start of spectrum data
0, 0
0, 0
0, 0
0, 0
0, 0
0, 0
0, 0
0, 0
0, 0
0, 0
0, 0
0, 0
0, 0
0, 0
0, 0
0, 0
0, 0
0, 0
0, 0
0, 0
0, 0
0, 0
0, 0
0, 0
0, 0
0, 0
0, 0
0, 0
0, 0
0, 0
0, 0
0, 0
0, 0
0, 0
0, 0
0, 0
0, 0
0, 1
0, 1
1, 1
1, 0
2, 1
0, 0
2, 0
1, 2
1, 0
2, 1
3, 0
9, 7
3, 20
28, 21
48, 52
68, 71
92, 97
105, 84
84, 85
65, 56
52, 38
25, 26
24, 14
5, 4
1, 2
4, 4
1, 2
3, 2
4, 4
3, 3
17, 17
19, 36
46, 50
105, 111
170, 168
277, 277
398, 401
429, 418
507, 483
382, 380
293, 302
228, 210
140, 111
76, 71
53, 36
12, 21
15, 11
5, 9
4, 7
2, 1
2, 1
2, 1
0, 1
1, 2
1, 1
0, 1
1, 0
0, 2
0, 2
2, 3
1, 0
2, 2
0, 4
2, 2
2, 2
6, 1
4, 2
4, 1
6, 1
6, 0
1, 5
7, 4
2, 4
9, 9
12, 8
15, 17
28, 21
26, 31
27, 21
21, 25
26, 21
14, 25
20, 18
16, 10
16, 15
11, 14
9, 13
11, 16
11, 10
19, 9
11, 10
8, 6
4, 3
4, 3
4, 1
3, 0
2, 0
2, 1
6, 1
3, 0
1, 1
2, 1
2, 1
1, 0
0, 3
1, 1
1, 3
3, 3
2, 2
2, 2
4, 1
3, 0
6, 1
7, 2
10, 3
7, 6
12, 8
13, 11
23, 8
24, 15
19, 12
15, 20
18, 13
21, 8
10, 7
3, 7
3, 4
2, 2
4, 2
1, 2
2, 3
2, 3
3, 6
6, 1
2, 7
3, 4
5, 2
5, 4
1, 1
7, 3
2, 4
3, 1
4, 4
4, 2
5, 4
4, 1
2, 4
2, 0
0, 4
4, 5
4, 2
3, 8
5, 3
7, 7
5, 9
14, 12
13, 4
12, 9
5, 7
10, 15
9, 13
17, 14
14, 13
16, 11
6, 9
11, 11
3, 8
6, 6
2, 6
5, 4
8, 7
5, 5
4, 1
6, 9
2, 8
9, 5
6, 4
5, 9
3, 1
5, 10
3, 6
3, 5
11, 4
10, 7
7, 4
4, 7
4, 4
9, 16
12, 12
10, 5
7, 12
18, 11
14, 13
12, 24
11, 18
7, 13
12, 9
5, 12
6, 5
10, 10
10, 5
9, 3
10, 11
6, 13
5, 9
8, 6
10, 12
17, 22
26, 11
28, 33
23, 43
50, 48
73, 56
81, 80
81, 46
86, 49
98, 35
79, 43
70, 31
64, 26
48, 19
26, 13
28, 24
27, 20
30, 25
58, 57
73, 120
166, 201
273, 420
462, 609
804, 1006
1135, 1465
1578, 1818
2004, 2305
2365, 2449
2484, 2475
2441, 2323
2181, 1963
1768, 1591
1299, 1157
933, 731
628, 457
375, 265
192, 144
121, 66
52, 34
37, 24
20, 13
10, 12
13, 15
15, 15
15, 14
18, 18
22, 25
28, 34
38, 47
51, 96
98, 120
150, 190
201, 234
282, 319
314, 348
333, 349
338, 372
382, 333
286, 299
235, 216
177, 149
132, 86
76, 67
59, 28
29, 33
18, 13
17, 10
10, 7
9, 4
14, 10
12, 6
9, 15
23, 12
15, 15
10, 13
12, 10
8, 15
16, 13
10, 8
7, 5
4, 10
4, 5
2, 4
5, 0
8, 2
3, 4
4, 6
5, 1
3, 6
4, 1
4, 2
2, 5
2, 6
1, 5
2, 10
6, 8
7, 9
1, 4
7, 10
7, 18
4, 9
8, 21
7, 17
8, 21
5, 21
3, 18
2, 11
6, 14
2, 17
5, 5
7, 6
5, 3
3, 7
6, 8
3, 3
5, 6
6, 6
2, 4
1, 2
3, 5
2, 2
5, 3
4, 4
4, 1
3, 5
3, 1
9, 2
6, 5
5, 5
3, 1
8, 2
10, 3
10, 5
17, 7
14, 4
22, 5
23, 6
26, 7
26, 2
22, 3
17, 3
17, 7
10, 2
11, 0
7, 1
8, 4
4, 2
7, 7
6, 2
4, 0
6, 5
4, 5
5, 5
8, 4
5, 4
11, 4
13, 5
6, 3
5, 4
5, 5
3, 3
6, 6
5, 1
3, 0
5, 3
3, 6
3, 4
2, 2
5, 3
2, 0
2, 3
3, 2
2, 2
3, 4
3, 3
5, 4
4, 4
5, 3
5, 4
4, 4
1, 5
3, 4
1, 0
4, 2
5, 1
2, 7
0, 2
2, 2
5, 1
3, 3
7, 3
1, 2
2, 1
4, 2
3, 3
4, 1
2, 2
2, 3
3, 3
4, 4
2, 1
2, 1
3, 1
2, 2
1, 2
4, 1
1, 3
0, 2
3, 2
3, 1
6, 2
8, 3
5, 6
3, 2
5, 2
10, 4
5, 2
5, 3
5, 4
4, 2
7, 4
8, 3
5, 3
3, 0
5, 0
1, 1
1, 2
1, 1
2, 1
3, 1
1, 5
2, 1
2, 3
2, 2
1, 2
4, 0
2, 2
1, 4
0, 0
3, 1
2, 0
3, 2
3, 1
0, 1
4, 3
2, 1
6, 2
0, 2
1, 4
1, 1
1, 2
1, 1
4, 0
1, 1
2, 1
3, 0
0, 1
0, 3
2, 4
2, 3
1, 0
1, 2
2, 3
1, 4
1, 0
0, 1
2, 2
0, 1
0, 2
0, 3
0, 2
1, 2
0, 2
3, 1
4, 1
0, 1
1, 4
2, 1
1, 2
1, 5
1, 6
2, 3
3, 0
3, 1
5, 1
0, 2
2, 1
3, 3
1, 2
1, 2
0, 5
5, 2
3, 5
6, 2
3, 6
2, 7
7, 7
4, 4
6, 6
7, 4
12, 4
9, 7
10, 5
5, 3
8, 1
5, 0
5, 1
6, 1
3, 3
4, 4
3, 4
2, 0
0, 1
1, 1
1, 2
1, 2
2, 1
1, 4
1, 6
0, 0
0, 1
1, 3
2, 2
4, 2
1, 5
1, 3
0, 2
3, 3
0, 4
2, 2
2, 4
1, 1
0, 0
1, 2
0, 2
2, 1
0, 0
3, 0
1, 1
0, 1
0, 0
1, 0
3, 1
2, 4
0, 0
0, 0
3, 3
4, 0
0, 1
1, 0
0, 4
1, 1
1, 1
2, 3
3, 1
3, 2
1, 3
2, 1
1, 1
0, 1
0, 2
1, 1
0, 1
1, 1
2, 0
0, 3
0, 1
1, 2
2, 2
1, 1
1, 0
0, 0
0, 2
1, 2
0, 0
0, 1
0, 1
1, 1
2, 1
1, 1
1, 2
3, 0
2, 0
1, 0
0, 3
2, 2
0, 1
0, 0
0, 0
1, 0
1, 1
1, 2
1, 1
2, 0
0, 1
0, 2
2, 0
0, 0
0, 1
0, 1
1, 0
1, 1
0, 1
0, 1
1, 0
1, 1
0, 0
1, 2
0, 0
1, 1
1, 1
0, 0
1, 1
2, 0
0, 0
0, 0
1, 1
1, 0
0, 1
0, 2
0, 0
1, 0
0, 0
0, 0
1, 0
0, 0
0, 0
2, 0
2, 0
1, 1
0, 0
1, 1
1, 0
0, 1
1, 1
1, 1
0, 0
0, 1
1, 2
2, 1
1, 0
2, 1
1, 1
1, 0
0, 1
1, 0
1, 0
2, 0
2, 1
0, 0
1, 0
0, 1
0, 0
0, 2
0, 0
0, 1
0, 2
1, 1
0, 0
0, 0
1, 1
1, 1
1, 1
0, 0
0, 0
1, 1
1, 0
0, 0
0, 1
2, 1
0, 0
1, 1
1, 1
0, 2
1, 1
1, 0
0, 0
1, 1
0, 1
0, 0
0, 1
0, 1
0, 1
0, 0
0, 1
0, 0
0, 1
0, 1
0, 1
0, 0
1, 0
0, 0
1, 0
0, 0
0, 0
0, 0
0, 0
0, 0
0, 1
0, 0
0, 0
0, 1
1, 0
0, 0
0, 0
0, 2
0, 1
0, 0
1, 0
1, 0
0, 0
0, 0
0, 0
0, 1
1, 0
1, 1
0, 0
1, 0
0, 0
1, 0
0, 0
0, 1
1, 2
0, 1
0, 0
0, 1
0, 0
0, 0
0, 0
0, 0
0, 0
0, 1
0, 0
0, 0
0, 0
1, 0
0, 0
0, 1
0, 0
0, 0
1, 0
1, 0
1, 0
1, 0
0, 0
0, 0
0, 0
0, 1
0, 0
1, 0
1, 0
0, 1
0, 0
0, 2
0, 0
2, 0
1, 1
0, 0
0, 0
1, 1
0, 1
0, 0
0, 0
0, 0
0, 1
0, 0
0, 0
0, 0
0, 1
0, 0
0, 1
0, 0
1, 0
0, 0
0, 0
0, 1
1, 0
0, 0
1, 0
0, 0
0, 0
0, 0
0, 0
1, 0
0, 0
0, 0
0, 0
0, 0
1, 0
0, 0
0, 0
0, 0
0, 0
0, 0
0, 0
0, 0
0, 0
0, 0
0, 0
0, 0
0, 0
0, 0
0, 2
0, 0
0, 0
0, 0
1, 0
0, 0
0, 0
0, 0
2, 0
0, 1
2, 0
1, 1
0, 0
0, 0
0, 1
0, 0
0, 0
2, 0
1, 1
0, 0
0, 0
0, 1
0, 0
0, 0
0, 0
0, 0
0, 0
0, 0
0, 0
0, 0
0, 0
0, 0
0, 0
0, 0
0, 0
0, 0
0, 0
0, 0
1, 0
0, 0
0, 0
0, 0
0, 0
0, 0
0, 0
0, 0
1, 0
0, 0
0, 0
0, 0
0, 0
0, 0
0, 0
0, 0
0, 0
0, 0
0, 0
0, 0
0, 0
0, 0
0, 0
1, 0
0, 0
0, 0
0, 0
0, 1
0, 0
0, 0
0, 0
1, 0
0, 0
0, 0
0, 0
0, 0
0, 0
0, 0
0, 0
0, 0
0, 0
0, 0
0, 0
0, 0
0, 0
1, 0
0, 0
0, 0
2, 1
0, 0
0, 0
0, 0
0, 0
0, 0
0, 0
0, 0
1, 0
0, 0
0, 0
0, 0
0, 0
0, 0
0, 0
0, 0
0, 0
0, 0
0, 0
0, 0
0, 0
0, 0
0, 0
0, 0
0, 0
0, 0
0, 0
0, 0
0, 0
0, 1
0, 0
1, 0
0, 0
0, 0
0, 0
0, 0
0, 0
0, 0
0, 0
0, 0
0, 0
0, 0
0, 0
0, 0
0, 0
1, 0
0, 0
0, 0
0, 0
0, 0
0, 0
0, 0
0, 0
0, 0
0, 0
0, 0
0, 0
0, 0
0, 0
0, 0
0, 0
0, 0
0, 0
0, 0
0, 0
0, 0
0, 0
0, 0
0, 0
0, 0
0, 0
0, 0
0, 0
0, 0
0, 0
0, 0
0, 0
0, 0
0, 1
0, 0
0, 0
0, 0
0, 0
0, 0
0, 0
0, 0
0, 0
0, 0
0, 0
0, 0
0, 0
0, 0
0, 0
0, 0
0, 0
0, 0
0, 0
0, 0
0, 0
0, 0
0, 0
0, 0
0, 0
0, 0
0, 0
0, 0
0, 0
0, 0
0, 0
0, 0
0, 0
0, 0
0, 0
0, 0
0, 0
0, 0
0, 0
0, 0
0, 0
0, 0
0, 0
0, 0
0, 0
0, 0
0, 0
0, 0
0, 0
0, 0
0, 0
0, 0
0, 0
0, 0
0, 0
0, 0
0, 0
0, 0
0, 0
0, 0
0, 0
0, 0
0, 0
0, 0
0, 0
0, 0
0, 0
0, 0
0, 0
0, 0
0, 0
0, 0
0, 0
0, 0
0, 0
0, 0
0, 0
0, 1
0, 0
0, 0
0, 0
0, 0
0, 0
0, 0
0, 0
0, 0
0, 0
0, 0
0, 0
0, 0
0, 0
0, 0
0, 0
0, 0
0, 0
0, 0
0, 0
0, 0
0, 0
0, 0
0, 0
0, 0
0, 0
0, 0
0, 0
0, 0
0, 0
0, 0
0, 0
0, 0
0, 0
0, 0
0, 0
0, 0
0, 0
0, 0
0, 0
0, 0
0, 0
0, 0
0, 0
0, 0
0, 0
0, 0
0, 0
0, 0
0, 0
0, 0
0, 0
0, 0
0, 0
0, 0
0, 0
0, 0
0, 0
0, 0
0, 0
0, 0
0, 0
0, 0
0, 0
0, 0
0, 0
0, 0
0, 0
0, 0
0, 0
0, 0
0, 0
0, 0
0, 0
0, 0
0, 0
0, 0
0, 0
0, 0
0, 0
0, 0
0, 0
0, 0
0, 0
0, 0
0, 0
0, 0
0, 0
0, 0
0, 0
0, 0
0, 0
0, 0
0, 0
0, 0
0, 0
0, 0
0, 0
0, 0
0, 0
0, 0
0, 0
0, 0
0, 0
0, 0
0, 0
0, 0
0, 0
0, 0
0, 0
0, 0
0, 0
0, 0
0, 0
0, 0
0, 0
0, 0
0, 0
0, 0
0, 0
0, 0
0, 0
0, 0
0, 0
0, 0
0, 0
0, 0
0, 0
0, 0
0, 0
0, 0
0, 0
0, 0
0, 0
0, 0
0, 0
0, 0
0, 0
0, 0
0, 0
0, 0
0, 0
0, 0
0, 0
0, 0
0, 0
0, 0
0, 0
0, 0
0, 0
0, 0
0, 0
0, 0
0, 0
0, 0
0, 0
0, 0
0, 0
0, 0
0, 0
0, 0
0, 0
0, 0
0, 0
0, 0
0, 0
0, 0
0, 0
0, 0
0, 0
0, 0
0, 0
0, 0
0, 0
0, 0
0, 0
0, 0
0, 0
0, 0
0, 0
0, 0
0, 0
0, 0
0, 0
0, 0
0, 0
0, 0
0, 0
0, 0
0, 0
0, 0
0, 0
0, 0
0, 0
0, 0
0, 0
0, 0
0, 0
0, 0
0, 0
0, 0
0, 0
0, 0
0, 0
0, 0
0, 0
0, 0
0, 0
0, 0
0, 0
0, 0
0, 0
0, 0
0, 0
0, 0
0, 0
0, 0
0, 0
0, 0
0, 0
0, 0
0, 0
0, 0
0, 0
0, 0
0, 0
0, 0
0, 0
0, 0
0, 0
0, 0
0, 0
0, 0
0, 0
0, 0
0, 0
0, 0
0, 0
0, 0
0, 0
0, 0
0, 0
0, 0
0, 0
0, 0
0, 0
0, 0
0, 0
0, 0
0, 0
0, 0
0, 0
0, 0
0, 0
0, 0
0, 0
0, 0
0, 0
0, 0
0, 0
0, 0
0, 0
0, 0
0, 0
0, 0
0, 0
0, 0
0, 0
0, 0
0, 0
0, 0
0, 0
0, 0
0, 0
0, 0
0, 0
0, 0
0, 0
0, 0
#ENDOFDATA     end of spectrum data