File: host_upload/06-09-2024/ps_0852/dump3/ps__0852shot_2507.msa
#FORMAT      : EMSA/MAS spectral data file
#VERSION     : TC202v2.0 PIXL
#TITLE       : N/A
#DATE        :       Date in the format DD-MMM-YYYY, for example 07-JUL-2010
#TIME        :             The time of day at which the spectrum was recorded, in 24-hour format
#OWNER       : PIXL Flight Model       (PIXL will use this to indicate which instrument took the data.)
#NPOINTS     : 4096     Number of data points in the spectrum (This can be zero for configuration only files)
#NCOLUMNS    : 2     Number of data columns in the spectrum (This can be zero for configuration only files)
#XUNITS      : eV
#YUNITS      : COUNTS
#DATATYPE    : YY
#XPERCHAN    : 7.862, 7.881   eV per channel (separate by commas if more than one detector)
#OFFSET      : 18.5, -22.4         eV of first channel  (separate by commas if more than one detector
#SIGNALTYPE  : XRF
#YP_TEMP     : 2.3
#LIVETIME    : 8.54996, 8.55046   seconds (separate by commas if more than one detector)
#REALTIME    : 10, 10.0   seconds (separate by commas if more than one detector)
#SPECTRUM    : start of spectrum data
0, 0
0, 0
0, 0
0, 0
0, 0
0, 0
0, 0
0, 0
0, 0
0, 0
0, 0
0, 0
0, 0
0, 0
0, 0
0, 0
0, 0
0, 0
0, 0
0, 0
0, 0
0, 0
0, 0
0, 0
0, 0
0, 0
0, 0
0, 0
0, 0
0, 0
0, 0
0, 0
0, 0
0, 0
0, 1
1, 0
1, 0
0, 0
0, 1
0, 2
0, 1
0, 0
0, 3
3, 1
0, 1
3, 2
3, 1
2, 4
4, 5
18, 10
19, 20
40, 30
82, 33
77, 68
87, 78
69, 77
51, 58
42, 35
25, 16
14, 18
10, 7
3, 6
7, 1
0, 5
5, 4
5, 4
1, 4
11, 8
23, 19
55, 53
105, 98
190, 197
274, 257
361, 321
440, 392
462, 401
425, 314
303, 242
234, 172
130, 102
74, 52
41, 26
18, 11
8, 7
7, 3
5, 2
1, 3
4, 3
2, 1
0, 2
0, 5
2, 2
3, 1
6, 7
8, 6
19, 18
21, 18
24, 22
29, 32
33, 33
29, 22
27, 25
21, 15
15, 6
7, 7
8, 8
8, 5
9, 10
13, 9
16, 13
31, 20
26, 35
33, 42
44, 35
57, 35
69, 47
56, 45
60, 41
75, 34
66, 30
59, 33
53, 55
54, 55
35, 45
35, 56
21, 48
17, 38
16, 38
9, 21
7, 22
2, 14
8, 4
5, 4
1, 1
3, 3
3, 3
4, 1
2, 0
4, 3
3, 2
3, 0
3, 2
6, 2
4, 2
4, 2
1, 1
1, 4
2, 5
0, 0
1, 0
5, 2
4, 7
7, 6
6, 11
16, 18
15, 8
16, 22
14, 29
14, 19
17, 13
13, 16
12, 9
7, 11
5, 4
4, 9
2, 0
3, 5
7, 6
4, 7
6, 5
1, 3
5, 4
3, 8
5, 5
4, 9
9, 10
10, 4
3, 13
2, 19
5, 11
3, 11
5, 10
5, 6
3, 5
1, 4
3, 3
6, 7
5, 3
11, 7
6, 4
10, 9
7, 3
13, 9
10, 10
12, 5
14, 10
16, 9
14, 11
16, 12
12, 17
18, 15
8, 11
18, 11
5, 6
12, 4
5, 4
10, 3
4, 6
2, 6
7, 2
7, 7
8, 7
4, 7
7, 4
8, 8
4, 7
5, 5
10, 5
4, 4
4, 8
8, 8
13, 7
6, 5
9, 5
5, 4
9, 5
14, 11
11, 11
18, 17
13, 14
18, 5
16, 19
18, 13
21, 13
23, 8
36, 8
46, 8
55, 7
42, 8
38, 7
32, 5
22, 7
20, 16
15, 12
16, 22
22, 26
37, 28
30, 43
46, 47
63, 65
69, 65
70, 75
64, 61
63, 60
46, 53
35, 46
36, 47
38, 46
16, 45
20, 34
30, 37
51, 35
54, 75
90, 93
171, 163
325, 309
453, 499
786, 878
1126, 1237
1700, 1611
2055, 2031
2398, 2252
2607, 2217
2424, 2064
2180, 1731
1802, 1385
1330, 965
952, 633
602, 425
368, 225
192, 117
92, 68
46, 41
32, 27
22, 20
11, 23
14, 20
19, 21
22, 23
13, 16
32, 29
41, 36
60, 55
61, 61
118, 138
163, 155
213, 231
279, 291
275, 333
403, 328
333, 343
338, 319
326, 269
252, 239
204, 145
156, 97
82, 80
51, 40
38, 34
23, 27
11, 12
7, 16
6, 9
3, 10
11, 9
13, 8
16, 10
17, 10
15, 16
12, 8
12, 5
11, 8
9, 3
8, 8
9, 6
8, 5
2, 7
5, 2
4, 5
3, 1
2, 3
3, 2
1, 10
5, 6
3, 0
4, 5
5, 3
7, 3
7, 4
8, 4
2, 1
5, 3
4, 3
2, 4
8, 5
4, 7
4, 5
4, 11
1, 7
5, 15
5, 7
7, 9
3, 9
5, 16
9, 18
4, 18
9, 21
4, 13
4, 14
3, 10
3, 14
9, 6
3, 4
9, 7
2, 4
2, 4
3, 2
3, 5
4, 4
5, 2
5, 5
4, 3
10, 4
2, 3
5, 1
3, 3
6, 1
6, 4
5, 3
2, 9
4, 3
8, 1
5, 1
7, 2
6, 0
5, 1
5, 0
5, 5
2, 4
4, 4
3, 2
5, 3
5, 4
6, 3
4, 2
5, 4
3, 4
5, 4
2, 2
5, 5
3, 4
6, 3
7, 4
6, 6
8, 2
5, 3
6, 3
2, 3
2, 2
6, 4
6, 2
3, 8
3, 0
3, 2
3, 1
3, 3
3, 4
4, 1
0, 1
2, 1
3, 2
3, 5
5, 2
1, 2
4, 2
2, 2
7, 0
3, 4
4, 5
5, 4
5, 6
3, 7
5, 4
1, 2
2, 3
1, 3
6, 2
5, 6
4, 0
1, 2
2, 1
3, 5
8, 3
3, 2
2, 1
5, 2
10, 2
6, 1
3, 2
1, 8
3, 1
0, 2
3, 2
1, 4
6, 0
1, 1
5, 1
3, 1
4, 2
4, 3
4, 3
3, 2
2, 2
5, 3
1, 3
2, 1
1, 4
2, 3
1, 1
1, 2
3, 1
2, 1
1, 4
5, 1
5, 1
3, 2
3, 0
3, 4
2, 3
1, 3
4, 4
4, 4
1, 1
1, 2
1, 2
5, 1
5, 0
2, 2
3, 0
4, 0
3, 1
1, 3
1, 2
1, 3
3, 3
2, 1
4, 1
5, 1
3, 0
5, 3
2, 2
3, 0
3, 1
5, 0
0, 2
3, 1
1, 2
4, 2
3, 1
2, 4
2, 2
1, 2
1, 1
1, 2
1, 2
1, 1
4, 4
1, 2
2, 0
4, 0
4, 1
3, 0
0, 2
1, 1
3, 3
3, 1
2, 3
2, 1
1, 0
3, 0
0, 2
2, 1
2, 3
3, 0
2, 0
2, 2
2, 0
3, 3
4, 0
2, 4
3, 3
5, 4
5, 6
5, 2
4, 1
3, 2
2, 3
4, 3
5, 1
3, 2
2, 2
2, 1
2, 0
1, 7
2, 2
1, 1
3, 3
3, 3
4, 0
1, 1
0, 3
3, 0
1, 1
1, 1
1, 0
4, 1
1, 3
2, 1
2, 1
1, 1
3, 1
3, 0
1, 1
3, 1
1, 1
2, 2
3, 0
1, 0
3, 0
0, 3
0, 1
1, 0
1, 0
0, 0
1, 0
2, 2
1, 2
2, 0
1, 1
1, 2
3, 2
2, 0
2, 2
2, 2
1, 4
0, 0
1, 2
1, 0
2, 1
1, 3
1, 1
1, 1
0, 1
2, 1
3, 1
1, 0
0, 1
1, 0
0, 1
2, 1
3, 3
0, 0
0, 0
0, 3
1, 1
0, 3
1, 0
0, 1
3, 3
2, 0
1, 2
1, 1
0, 1
2, 0
0, 0
0, 1
2, 0
0, 1
0, 3
2, 0
1, 1
0, 0
0, 0
1, 0
1, 0
0, 0
0, 3
0, 0
0, 0
2, 1
0, 0
0, 1
1, 0
0, 0
0, 1
1, 0
0, 0
1, 1
2, 0
1, 0
2, 1
0, 0
1, 0
1, 2
0, 1
1, 1
0, 0
1, 2
2, 1
0, 0
0, 0
0, 1
1, 0
0, 0
0, 2
0, 1
2, 1
1, 0
0, 2
0, 0
0, 1
0, 1
0, 1
1, 1
0, 1
0, 0
0, 0
0, 1
0, 0
0, 0
0, 0
1, 0
0, 0
0, 1
0, 0
0, 1
1, 0
0, 0
2, 1
0, 1
0, 0
2, 0
0, 0
0, 1
1, 1
1, 1
0, 1
0, 2
0, 0
0, 0
1, 0
1, 1
0, 0
1, 1
0, 0
0, 0
0, 1
0, 0
0, 1
1, 2
0, 0
1, 1
1, 0
2, 0
1, 0
0, 0
0, 0
0, 0
0, 0
0, 0
0, 0
0, 1
1, 1
0, 0
0, 0
0, 0
0, 0
0, 0
0, 0
0, 0
0, 0
1, 0
0, 0
0, 0
1, 0
0, 1
0, 0
0, 0
0, 1
0, 1
0, 0
0, 1
0, 0
1, 1
0, 1
0, 0
0, 1
0, 0
0, 1
0, 0
0, 2
0, 0
0, 0
0, 0
0, 0
0, 0
0, 0
0, 0
0, 1
0, 0
0, 0
0, 0
0, 0
1, 0
1, 0
1, 0
0, 0
1, 0
0, 0
0, 1
1, 0
0, 0
0, 0
1, 0
1, 1
1, 0
0, 0
0, 0
0, 0
1, 0
0, 0
2, 0
0, 0
0, 1
0, 0
1, 1
0, 0
3, 0
0, 0
0, 0
0, 0
0, 0
1, 1
0, 0
1, 0
0, 1
0, 0
0, 0
0, 0
1, 1
0, 0
0, 0
0, 0
1, 0
0, 0
0, 0
0, 0
1, 0
0, 0
0, 0
0, 0
0, 0
0, 0
1, 0
0, 0
0, 0
0, 0
0, 0
0, 0
1, 0
0, 0
0, 0
0, 1
0, 0
0, 0
1, 1
0, 0
0, 0
0, 0
0, 1
0, 0
0, 0
0, 1
0, 0
0, 0
0, 0
0, 0
1, 0
0, 0
0, 0
0, 0
0, 0
1, 1
0, 0
0, 0
0, 1
0, 0
0, 1
0, 0
0, 0
1, 0
1, 0
0, 0
1, 0
0, 0
0, 0
0, 0
2, 0
0, 0
0, 0
0, 1
1, 0
0, 0
0, 1
0, 0
0, 0
0, 0
1, 0
0, 0
1, 0
0, 0
0, 1
0, 0
0, 0
1, 0
0, 0
0, 0
1, 0
0, 0
0, 0
1, 0
0, 0
0, 0
0, 0
0, 0
0, 0
0, 0
0, 0
0, 1
0, 0
0, 0
0, 0
0, 0
0, 0
0, 0
0, 0
0, 0
0, 0
0, 0
0, 0
0, 0
0, 0
0, 0
1, 0
0, 0
0, 0
0, 0
0, 0
0, 0
0, 0
0, 0
0, 0
0, 0
0, 0
0, 0
0, 0
0, 0
0, 0
0, 0
0, 0
0, 0
0, 0
0, 0
0, 0
0, 1
0, 0
0, 0
0, 0
0, 0
0, 0
0, 1
0, 0
0, 0
0, 0
0, 0
0, 1
0, 0
0, 0
0, 0
0, 0
0, 0
0, 0
0, 0
0, 0
0, 0
0, 0
0, 0
0, 0
0, 0
0, 0
0, 0
0, 0
0, 0
0, 0
0, 0
0, 0
0, 0
0, 0
0, 0
0, 0
0, 0
0, 0
0, 0
0, 0
0, 0
0, 0
0, 0
0, 0
0, 0
0, 0
0, 0
0, 0
0, 0
0, 0
0, 0
0, 0
0, 0
0, 0
0, 0
0, 0
0, 0
0, 0
0, 0
0, 0
0, 1
0, 0
0, 0
0, 0
0, 0
0, 0
0, 0
0, 0
0, 0
0, 0
0, 0
0, 0
0, 0
0, 0
0, 0
0, 0
0, 0
0, 0
0, 0
0, 0
0, 0
0, 0
0, 0
0, 0
0, 0
0, 0
0, 0
0, 0
0, 0
0, 0
0, 0
0, 0
0, 0
0, 0
0, 0
0, 0
0, 0
0, 0
0, 0
0, 0
0, 0
0, 0
0, 0
0, 0
0, 0
0, 0
0, 0
0, 0
0, 0
0, 0
0, 0
0, 0
0, 0
0, 0
0, 0
0, 0
0, 0
0, 0
0, 0
0, 0
0, 0
0, 0
0, 0
0, 0
0, 0
0, 0
0, 0
0, 0
0, 0
0, 0
0, 0
0, 0
0, 0
0, 0
0, 0
0, 0
0, 0
0, 0
0, 0
0, 0
0, 0
0, 0
0, 0
0, 0
0, 0
0, 0
0, 0
0, 0
0, 0
0, 0
0, 0
0, 0
0, 0
0, 0
0, 0
0, 0
0, 0
0, 0
0, 0
0, 0
0, 0
0, 0
0, 0
0, 0
0, 0
0, 0
0, 0
0, 0
0, 0
0, 0
0, 0
0, 0
0, 0
0, 0
0, 0
0, 0
0, 0
0, 0
0, 0
0, 0
0, 0
0, 0
0, 0
0, 0
0, 0
0, 0
0, 0
0, 0
0, 0
0, 0
0, 0
0, 0
0, 0
0, 0
0, 0
0, 0
0, 0
0, 0
0, 0
0, 0
0, 0
0, 0
0, 0
0, 0
0, 0
0, 0
0, 0
0, 0
0, 0
0, 0
0, 0
0, 0
0, 0
0, 0
0, 0
0, 0
0, 0
0, 0
0, 0
0, 0
0, 0
0, 0
0, 0
0, 0
0, 0
0, 0
0, 0
0, 0
0, 0
0, 0
0, 0
0, 0
0, 0
0, 0
0, 0
0, 0
0, 0
0, 0
0, 0
0, 0
0, 0
0, 0
0, 0
0, 0
0, 0
0, 0
0, 0
0, 0
0, 0
0, 0
0, 0
0, 0
0, 0
0, 0
0, 0
0, 0
0, 0
0, 0
0, 0
0, 0
0, 0
0, 0
0, 0
0, 0
0, 0
0, 0
0, 0
0, 0
0, 0
0, 0
0, 0
0, 0
0, 0
0, 0
0, 0
0, 0
0, 0
0, 0
0, 0
0, 0
0, 0
0, 0
0, 0
0, 0
0, 0
0, 0
0, 0
0, 0
0, 0
0, 0
0, 0
0, 0
0, 0
0, 0
0, 0
0, 0
0, 0
0, 0
0, 0
0, 0
0, 0
0, 0
0, 0
0, 0
0, 0
0, 0
0, 0
0, 0
0, 0
0, 0
0, 0
0, 0
0, 0
0, 0
0, 0
0, 0
0, 0
0, 0
0, 0
0, 0
0, 0
0, 0
0, 0
0, 0
0, 0
0, 0
0, 0
0, 0
0, 0
0, 0
0, 0
0, 0
0, 0
0, 0
0, 0
0, 0
0, 0
0, 0
0, 0
0, 0
0, 0
0, 0
0, 0
0, 0
0, 0
0, 0
0, 0
0, 0
0, 0
0, 0
0, 0
0, 0
0, 0
0, 0
0, 0
0, 0
0, 0
0, 0
0, 0
0, 0
0, 0
0, 0
0, 0
0, 0
0, 0
0, 0
0, 0
0, 0
0, 0
0, 0
0, 0
0, 0
0, 0
0, 0
0, 0
0, 0
0, 0
0, 0
0, 0
0, 0
0, 0
0, 0
0, 0
0, 0
0, 0
0, 0
0, 0
0, 0
0, 0
0, 0
0, 0
0, 0
0, 0
0, 0
0, 0
0, 0
0, 0
0, 0
0, 0
0, 0
0, 0
0, 0
0, 0
0, 0
0, 0
0, 0
0, 0
0, 0
0, 0
0, 0
0, 0
0, 0
0, 0
0, 0
0, 0
0, 0
0, 0
0, 0
0, 0
0, 0
0, 0
0, 0
0, 0
0, 0
0, 0
0, 0
0, 0
0, 0
0, 0
0, 0
0, 0
0, 0
0, 0
0, 0
0, 0
0, 0
0, 0
0, 0
0, 0
0, 0
0, 0
0, 0
#ENDOFDATA     end of spectrum data