File: host_upload/06-09-2024/ps_0852/dump3/ps__0852shot_2360.msa
#FORMAT      : EMSA/MAS spectral data file
#VERSION     : TC202v2.0 PIXL
#TITLE       : N/A
#DATE        :       Date in the format DD-MMM-YYYY, for example 07-JUL-2010
#TIME        :             The time of day at which the spectrum was recorded, in 24-hour format
#OWNER       : PIXL Flight Model       (PIXL will use this to indicate which instrument took the data.)
#NPOINTS     : 4096     Number of data points in the spectrum (This can be zero for configuration only files)
#NCOLUMNS    : 2     Number of data columns in the spectrum (This can be zero for configuration only files)
#XUNITS      : eV
#YUNITS      : COUNTS
#DATATYPE    : YY
#XPERCHAN    : 7.862, 7.881   eV per channel (separate by commas if more than one detector)
#OFFSET      : 18.5, -22.4         eV of first channel  (separate by commas if more than one detector
#SIGNALTYPE  : XRF
#YP_TEMP     : 2.332
#LIVETIME    : 8.55716, 8.54958   seconds (separate by commas if more than one detector)
#REALTIME    : 10, 10.0   seconds (separate by commas if more than one detector)
#SPECTRUM    : start of spectrum data
0, 0
0, 0
0, 0
0, 0
0, 0
0, 0
0, 0
0, 0
0, 0
0, 0
0, 0
0, 0
0, 0
0, 0
0, 0
0, 0
0, 0
0, 0
0, 0
0, 0
0, 0
0, 0
0, 0
0, 0
0, 0
0, 0
0, 0
0, 0
0, 0
0, 0
0, 0
0, 0
0, 0
0, 0
0, 0
0, 2
0, 3
0, 4
0, 7
1, 8
1, 18
2, 12
0, 16
0, 10
3, 17
0, 6
1, 5
3, 7
7, 10
10, 14
22, 18
36, 48
55, 72
90, 82
95, 103
71, 84
59, 68
47, 35
26, 23
21, 14
11, 7
3, 3
4, 1
3, 2
5, 7
1, 5
2, 2
15, 17
24, 28
48, 59
92, 107
181, 202
241, 271
354, 405
414, 428
416, 437
380, 354
270, 285
223, 197
107, 125
78, 60
35, 32
21, 26
8, 10
3, 7
6, 6
1, 1
0, 2
2, 4
2, 2
0, 3
0, 2
3, 0
1, 3
2, 2
1, 1
2, 0
4, 4
3, 7
2, 3
4, 4
2, 8
1, 3
6, 1
3, 10
1, 7
5, 9
8, 25
7, 63
10, 138
14, 242
16, 445
41, 642
41, 905
45, 1022
47, 1098
48, 999
43, 865
34, 576
35, 342
25, 232
23, 127
23, 58
17, 32
23, 24
19, 19
18, 13
15, 14
11, 10
8, 7
7, 5
4, 5
9, 2
9, 6
14, 1
13, 3
14, 1
10, 3
15, 1
10, 4
12, 4
3, 1
8, 1
9, 4
4, 2
3, 3
2, 3
0, 1
1, 2
1, 2
2, 5
3, 5
9, 10
12, 13
25, 16
18, 23
17, 19
20, 17
29, 19
20, 26
13, 14
18, 8
10, 11
8, 14
7, 14
3, 14
6, 13
8, 13
3, 20
7, 23
5, 24
5, 24
2, 21
5, 13
9, 13
9, 9
13, 12
9, 9
12, 20
17, 10
29, 9
21, 3
13, 3
16, 5
13, 5
10, 5
9, 11
5, 13
7, 15
1, 8
16, 15
9, 10
9, 14
9, 18
14, 21
8, 19
17, 15
11, 25
23, 12
35, 18
37, 13
53, 12
77, 8
107, 13
126, 9
121, 4
141, 11
113, 7
123, 8
105, 1
81, 6
44, 4
37, 3
30, 7
19, 9
6, 4
6, 7
9, 9
12, 4
9, 6
8, 4
9, 6
3, 6
14, 6
8, 5
15, 10
14, 13
8, 14
14, 15
20, 16
12, 16
16, 15
19, 9
12, 13
19, 15
12, 14
12, 7
9, 12
6, 7
7, 12
5, 17
8, 9
13, 10
9, 9
13, 18
23, 22
28, 25
43, 38
50, 53
62, 54
84, 67
71, 74
57, 69
44, 52
39, 51
44, 48
30, 34
25, 24
28, 16
11, 15
18, 21
21, 39
33, 68
87, 114
181, 209
279, 349
445, 558
742, 999
1074, 1294
1570, 1818
1952, 2175
2331, 2437
2442, 2499
2396, 2337
2043, 1922
1697, 1631
1364, 1096
892, 723
587, 448
349, 248
216, 165
112, 86
60, 48
42, 28
16, 20
21, 14
16, 25
22, 27
17, 36
26, 37
23, 44
31, 54
55, 82
56, 91
108, 146
153, 180
180, 236
262, 293
277, 369
363, 356
320, 351
322, 326
277, 283
271, 231
193, 147
126, 80
87, 65
55, 38
25, 20
21, 13
11, 3
11, 3
7, 10
2, 3
10, 10
10, 18
14, 11
22, 18
26, 12
10, 9
15, 5
8, 10
5, 4
5, 8
7, 8
4, 8
0, 1
7, 5
3, 13
6, 8
3, 5
5, 4
6, 16
6, 15
6, 19
9, 21
17, 15
11, 14
20, 13
31, 10
36, 12
37, 9
37, 8
32, 7
25, 5
28, 5
29, 6
20, 4
20, 14
12, 8
11, 13
10, 11
8, 14
9, 7
5, 11
4, 13
9, 10
1, 5
1, 6
5, 5
10, 6
3, 5
3, 4
5, 6
2, 4
1, 3
1, 8
3, 7
1, 6
3, 2
2, 4
5, 3
5, 0
6, 4
5, 3
6, 8
1, 4
3, 6
6, 9
2, 9
4, 7
2, 10
2, 6
2, 4
4, 1
3, 6
3, 10
1, 4
1, 6
4, 9
2, 5
5, 3
2, 14
2, 4
2, 7
1, 6
1, 7
4, 4
2, 7
8, 1
5, 3
8, 6
3, 5
2, 1
4, 2
9, 1
5, 2
10, 0
4, 0
8, 0
7, 4
8, 6
5, 5
5, 7
9, 2
4, 2
4, 5
4, 3
3, 2
3, 6
4, 1
3, 3
2, 5
2, 2
2, 0
3, 5
0, 0
3, 6
4, 2
1, 4
2, 4
3, 9
2, 3
5, 5
3, 6
4, 4
3, 5
10, 3
6, 5
8, 9
11, 10
14, 6
13, 6
21, 5
14, 10
12, 8
7, 2
14, 2
7, 7
8, 1
5, 4
5, 3
3, 3
3, 2
5, 5
2, 2
3, 0
3, 1
6, 1
4, 6
2, 5
2, 5
1, 5
1, 1
2, 4
0, 4
5, 3
1, 2
1, 4
1, 1
1, 3
3, 4
1, 0
2, 6
1, 4
0, 1
2, 2
1, 1
3, 2
0, 3
1, 2
1, 5
3, 2
5, 4
3, 3
1, 3
2, 2
1, 2
0, 3
0, 0
2, 4
0, 0
0, 2
2, 1
2, 1
5, 5
1, 1
3, 0
2, 2
3, 3
1, 0
1, 1
4, 3
1, 2
1, 0
4, 3
5, 4
4, 2
2, 1
4, 5
0, 3
6, 1
5, 0
3, 1
4, 4
1, 5
3, 3
1, 2
2, 1
4, 1
0, 0
3, 1
2, 4
1, 2
1, 0
0, 2
3, 1
3, 2
1, 3
2, 2
5, 2
3, 3
0, 1
2, 3
1, 2
1, 2
5, 2
4, 5
2, 5
1, 3
6, 3
4, 6
3, 3
4, 6
2, 0
4, 3
1, 1
4, 3
1, 0
1, 3
2, 2
4, 2
2, 2
0, 1
3, 2
0, 2
4, 1
4, 3
0, 3
0, 1
2, 2
0, 3
2, 2
1, 1
1, 0
0, 1
1, 1
2, 4
4, 1
0, 5
1, 1
2, 2
1, 2
0, 0
2, 1
1, 3
0, 0
2, 0
0, 1
0, 0
0, 3
1, 0
1, 1
0, 2
4, 1
1, 1
0, 1
0, 1
2, 1
1, 1
1, 2
1, 1
2, 0
0, 0
3, 0
0, 1
2, 0
1, 0
1, 3
2, 1
1, 0
1, 1
3, 1
0, 0
0, 0
1, 3
1, 0
0, 1
0, 2
0, 0
2, 0
0, 2
0, 1
1, 2
2, 0
1, 1
1, 0
2, 0
1, 1
2, 0
0, 1
0, 0
2, 0
1, 1
1, 1
0, 0
1, 0
1, 1
0, 0
0, 0
1, 2
0, 0
0, 0
0, 0
0, 0
1, 1
0, 3
0, 1
3, 1
1, 0
1, 0
0, 2
2, 0
0, 0
1, 2
2, 0
1, 1
0, 1
1, 0
1, 1
0, 1
0, 0
1, 2
1, 2
1, 0
0, 1
1, 0
0, 1
1, 1
1, 1
1, 0
0, 2
0, 0
1, 1
0, 1
0, 0
0, 2
0, 1
0, 0
1, 0
1, 1
0, 0
3, 1
0, 0
1, 2
1, 1
1, 1
1, 1
0, 0
1, 1
1, 0
1, 0
0, 0
0, 0
0, 2
1, 1
0, 2
2, 0
1, 0
0, 0
1, 0
1, 1
0, 1
0, 0
0, 1
0, 0
0, 0
1, 0
0, 0
1, 1
0, 0
0, 1
0, 1
1, 0
1, 0
1, 2
0, 0
0, 0
0, 1
1, 0
0, 0
1, 1
1, 0
0, 0
1, 1
0, 1
1, 2
0, 0
0, 0
0, 0
1, 0
1, 0
0, 0
1, 0
0, 0
0, 0
1, 0
0, 0
1, 0
0, 0
0, 2
0, 0
2, 0
1, 0
0, 0
0, 0
1, 0
0, 0
0, 0
0, 0
0, 1
0, 0
0, 0
0, 0
1, 1
0, 0
1, 1
0, 1
0, 1
0, 0
0, 0
1, 0
0, 0
0, 0
0, 0
1, 0
0, 0
0, 1
0, 0
0, 1
0, 0
0, 0
0, 0
0, 0
0, 0
0, 0
0, 0
0, 0
1, 0
0, 0
0, 0
1, 0
0, 0
1, 0
0, 1
1, 0
0, 0
0, 0
0, 0
0, 0
0, 0
0, 1
0, 0
2, 0
0, 0
0, 0
1, 0
0, 0
0, 0
0, 0
0, 1
0, 0
0, 0
0, 0
0, 0
3, 1
1, 1
1, 1
0, 2
0, 1
0, 0
0, 0
0, 0
0, 0
0, 0
0, 1
0, 0
0, 0
0, 0
0, 0
0, 1
0, 0
0, 1
0, 2
0, 0
0, 0
0, 0
1, 0
0, 0
0, 0
0, 0
0, 0
0, 1
0, 0
0, 0
0, 0
0, 2
1, 0
0, 0
0, 1
0, 0
0, 0
0, 0
0, 0
0, 0
0, 1
0, 0
0, 1
0, 0
0, 0
0, 0
0, 0
1, 0
0, 1
1, 0
0, 0
0, 0
0, 0
0, 0
0, 0
0, 0
0, 0
1, 0
0, 0
0, 0
0, 0
0, 0
0, 1
1, 1
1, 0
0, 0
1, 0
0, 0
0, 0
0, 0
1, 0
0, 1
1, 0
0, 0
0, 0
0, 0
0, 0
0, 0
0, 0
0, 0
0, 0
0, 0
0, 0
0, 0
0, 0
0, 0
0, 0
0, 0
0, 0
0, 0
0, 0
0, 0
0, 0
0, 0
1, 0
0, 0
0, 0
0, 0
0, 0
0, 0
0, 0
0, 0
0, 0
0, 0
0, 0
0, 0
0, 0
0, 0
0, 1
0, 0
0, 0
0, 0
0, 0
0, 0
0, 1
0, 0
0, 0
0, 0
0, 0
0, 0
0, 0
0, 0
0, 0
0, 0
0, 0
0, 0
0, 0
0, 0
0, 0
0, 0
0, 0
0, 0
0, 0
0, 0
0, 0
0, 0
0, 0
0, 0
0, 0
0, 0
0, 0
0, 0
1, 0
0, 0
0, 0
0, 0
1, 0
1, 0
0, 0
0, 0
0, 0
0, 0
0, 0
0, 0
0, 0
0, 1
0, 0
0, 0
0, 0
0, 0
0, 0
0, 0
0, 0
0, 0
0, 0
0, 0
0, 0
0, 0
0, 0
0, 0
0, 0
0, 0
0, 0
0, 0
0, 0
0, 0
0, 0
0, 0
0, 0
0, 0
0, 0
0, 0
0, 0
0, 0
0, 0
0, 0
0, 0
0, 0
0, 0
0, 0
0, 0
0, 0
0, 0
0, 0
0, 0
0, 0
0, 0
0, 0
0, 0
0, 0
0, 0
0, 0
0, 0
0, 0
0, 0
0, 0
0, 0
0, 0
0, 0
0, 0
0, 0
0, 0
0, 0
0, 0
0, 0
0, 0
0, 0
0, 0
0, 0
0, 0
0, 0
0, 0
0, 0
0, 0
0, 0
0, 0
0, 0
0, 0
0, 0
0, 0
0, 0
0, 0
0, 0
0, 0
0, 0
0, 0
0, 0
0, 0
0, 0
0, 0
0, 0
0, 0
0, 0
0, 0
0, 0
0, 0
1, 0
0, 0
0, 0
0, 0
0, 0
0, 0
0, 0
0, 0
0, 0
0, 0
0, 0
0, 0
0, 0
0, 0
0, 0
0, 0
0, 0
0, 0
0, 0
0, 0
0, 0
0, 0
0, 0
0, 0
0, 0
0, 0
0, 0
0, 0
0, 0
0, 0
0, 0
0, 0
0, 0
0, 0
0, 0
0, 0
0, 0
0, 0
0, 0
0, 0
0, 0
0, 0
0, 0
0, 0
0, 0
0, 0
0, 0
0, 0
0, 0
0, 0
0, 0
0, 0
0, 0
0, 0
0, 0
0, 0
0, 0
0, 0
0, 0
0, 0
0, 0
0, 0
0, 0
0, 0
0, 0
0, 0
0, 0
0, 0
0, 0
0, 0
0, 0
0, 0
0, 0
0, 0
0, 0
0, 0
0, 0
0, 0
0, 0
0, 0
0, 0
0, 0
0, 0
0, 0
0, 0
0, 0
0, 0
0, 0
0, 0
0, 0
0, 0
0, 0
0, 0
0, 0
0, 0
0, 0
0, 0
0, 0
0, 0
0, 0
0, 0
0, 0
0, 0
0, 0
0, 0
0, 0
0, 0
0, 0
0, 0
0, 0
0, 0
0, 0
0, 0
0, 0
0, 0
0, 0
0, 0
0, 0
0, 0
0, 0
0, 0
0, 0
0, 0
0, 0
0, 0
0, 0
0, 0
0, 0
0, 0
0, 0
0, 0
0, 0
0, 0
0, 0
0, 0
0, 0
0, 0
0, 0
0, 0
0, 0
0, 0
0, 0
0, 0
0, 0
0, 0
0, 0
0, 0
0, 0
0, 0
0, 0
0, 0
0, 0
0, 0
0, 0
0, 0
0, 0
0, 0
0, 0
0, 0
0, 0
0, 0
0, 0
0, 0
0, 0
0, 0
0, 0
0, 0
0, 0
0, 0
0, 0
0, 0
0, 0
0, 0
0, 0
0, 0
0, 0
0, 0
0, 0
0, 0
0, 0
0, 0
0, 0
0, 0
0, 0
0, 0
0, 0
0, 0
0, 0
0, 0
0, 0
0, 0
0, 0
0, 0
0, 0
0, 0
0, 0
0, 0
0, 0
0, 0
0, 0
0, 0
0, 0
0, 0
0, 0
0, 0
0, 0
0, 0
0, 0
0, 0
0, 0
0, 0
0, 0
0, 0
0, 0
0, 0
0, 0
0, 0
0, 0
0, 0
0, 0
0, 0
0, 0
0, 0
0, 0
0, 0
0, 0
0, 0
0, 0
0, 0
0, 0
0, 0
0, 0
0, 0
0, 0
0, 0
0, 0
0, 0
0, 0
0, 0
0, 0
0, 0
0, 0
0, 0
0, 0
0, 0
0, 0
0, 0
0, 0
0, 0
0, 0
0, 0
0, 0
0, 0
0, 0
0, 0
0, 0
0, 0
0, 0
0, 0
0, 0
0, 0
0, 0
0, 0
0, 0
0, 0
0, 0
0, 0
0, 0
0, 0
0, 0
0, 0
0, 0
0, 0
0, 0
0, 0
0, 0
0, 0
0, 0
0, 0
0, 0
0, 0
0, 0
0, 0
0, 0
0, 0
0, 0
0, 0
0, 0
0, 0
0, 0
0, 0
0, 0
0, 0
0, 0
0, 0
0, 0
0, 0
0, 0
0, 0
0, 0
0, 0
0, 0
0, 0
0, 0
0, 0
0, 0
0, 0
0, 0
0, 0
0, 0
0, 0
0, 0
0, 0
0, 0
0, 0
0, 0
0, 0
0, 0
0, 0
0, 0
0, 0
0, 0
0, 0
0, 0
0, 0
#ENDOFDATA     end of spectrum data