File: host_upload/06-09-2024/ps_0852/dump3/ps__0852shot_2219.msa
#FORMAT      : EMSA/MAS spectral data file
#VERSION     : TC202v2.0 PIXL
#TITLE       : N/A
#DATE        :       Date in the format DD-MMM-YYYY, for example 07-JUL-2010
#TIME        :             The time of day at which the spectrum was recorded, in 24-hour format
#OWNER       : PIXL Flight Model       (PIXL will use this to indicate which instrument took the data.)
#NPOINTS     : 4096     Number of data points in the spectrum (This can be zero for configuration only files)
#NCOLUMNS    : 2     Number of data columns in the spectrum (This can be zero for configuration only files)
#XUNITS      : eV
#YUNITS      : COUNTS
#DATATYPE    : YY
#XPERCHAN    : 7.862, 7.881   eV per channel (separate by commas if more than one detector)
#OFFSET      : 18.5, -22.4         eV of first channel  (separate by commas if more than one detector
#SIGNALTYPE  : XRF
#YP_TEMP     : 2.428
#LIVETIME    : 8.55652, 8.36658   seconds (separate by commas if more than one detector)
#REALTIME    : 10, 10.0   seconds (separate by commas if more than one detector)
#SPECTRUM    : start of spectrum data
0, 0
0, 0
0, 0
0, 0
0, 0
0, 0
0, 0
0, 0
0, 0
0, 0
0, 0
0, 0
0, 0
0, 0
0, 0
0, 0
0, 0
0, 0
0, 0
0, 0
0, 0
0, 0
0, 0
0, 0
0, 0
0, 0
0, 0
0, 0
0, 0
0, 0
1, 1
0, 0
0, 1
0, 1
1, 0
0, 3
0, 2
0, 5
2, 7
0, 10
1, 5
0, 9
1, 9
1, 9
2, 6
4, 7
0, 7
7, 1
7, 5
17, 13
19, 33
33, 38
71, 54
80, 72
95, 70
77, 64
79, 49
42, 39
36, 28
21, 14
8, 4
5, 2
3, 7
0, 3
3, 1
2, 2
6, 4
9, 6
18, 20
57, 47
83, 94
194, 180
300, 273
384, 366
428, 377
472, 414
379, 390
310, 252
220, 191
140, 122
68, 67
31, 40
19, 15
9, 17
1, 2
1, 5
2, 4
0, 1
0, 3
1, 1
0, 0
2, 0
2, 1
1, 3
2, 2
2, 2
5, 5
2, 3
4, 5
2, 3
7, 2
2, 3
3, 5
2, 2
3, 6
1, 4
7, 17
10, 21
14, 60
10, 108
26, 199
25, 310
28, 451
38, 593
45, 665
48, 654
35, 630
23, 473
30, 372
29, 228
23, 138
19, 83
14, 51
21, 25
8, 29
15, 12
19, 7
7, 7
7, 7
8, 7
6, 7
4, 3
9, 6
3, 5
7, 3
7, 3
15, 1
17, 0
18, 2
11, 2
4, 1
4, 0
2, 4
6, 4
3, 3
4, 2
4, 3
4, 1
2, 1
3, 1
3, 3
2, 6
6, 4
11, 6
10, 3
9, 10
14, 19
15, 8
10, 8
11, 12
11, 6
17, 5
8, 3
8, 2
1, 6
4, 5
4, 2
6, 4
4, 2
5, 10
6, 6
6, 6
6, 3
7, 6
5, 8
1, 3
3, 11
3, 4
2, 6
1, 10
6, 10
0, 2
3, 3
7, 9
7, 1
3, 3
6, 1
7, 1
4, 7
10, 14
7, 8
7, 10
5, 10
7, 11
15, 9
14, 12
23, 20
21, 21
23, 10
31, 11
45, 11
68, 11
86, 8
101, 2
105, 3
124, 7
141, 5
135, 4
97, 6
86, 5
81, 4
42, 4
24, 5
19, 4
7, 6
10, 6
9, 4
7, 6
1, 12
6, 9
5, 14
3, 22
8, 37
4, 38
1, 58
8, 59
11, 53
6, 55
12, 50
10, 55
13, 44
14, 23
9, 26
11, 19
9, 12
6, 10
10, 8
6, 7
11, 10
8, 4
7, 5
6, 9
8, 7
8, 16
9, 17
22, 24
25, 24
37, 41
63, 37
63, 54
52, 46
63, 53
70, 55
66, 44
45, 34
40, 21
22, 21
23, 20
17, 17
12, 20
19, 14
22, 32
45, 46
87, 95
149, 189
286, 354
492, 606
832, 878
1182, 1336
1677, 1733
2015, 2038
2390, 2246
2521, 2453
2431, 2125
2074, 1829
1785, 1497
1379, 1054
926, 733
610, 430
334, 219
210, 130
118, 74
50, 42
29, 26
23, 15
19, 14
14, 16
16, 18
17, 21
21, 24
27, 31
37, 37
58, 48
60, 79
94, 109
160, 181
203, 247
252, 248
327, 321
373, 328
406, 351
366, 337
301, 258
289, 189
207, 157
155, 93
101, 77
46, 41
40, 28
19, 20
18, 9
4, 4
4, 6
11, 14
6, 10
9, 12
9, 12
15, 15
18, 9
10, 15
14, 10
12, 13
8, 5
5, 3
3, 5
3, 4
7, 4
4, 5
3, 3
7, 5
1, 6
3, 5
3, 8
2, 5
4, 22
14, 23
12, 31
20, 36
11, 28
19, 39
25, 36
30, 38
31, 38
27, 24
25, 15
22, 16
34, 23
14, 12
8, 10
13, 10
5, 6
4, 7
4, 6
4, 3
7, 5
9, 5
4, 6
4, 5
1, 3
2, 2
2, 3
2, 3
0, 5
8, 2
4, 8
0, 7
2, 5
4, 5
4, 2
4, 4
9, 4
7, 6
4, 5
4, 7
10, 3
11, 2
5, 2
8, 3
8, 3
7, 0
5, 3
9, 3
4, 3
6, 6
9, 10
4, 2
3, 6
5, 6
4, 1
4, 7
6, 5
4, 3
5, 5
3, 6
5, 8
2, 5
5, 7
3, 6
1, 4
3, 7
2, 5
1, 9
6, 3
2, 5
5, 2
7, 4
2, 2
3, 1
8, 4
2, 8
8, 3
5, 2
6, 3
9, 5
3, 6
6, 2
3, 3
5, 7
7, 2
4, 3
3, 4
3, 5
3, 10
6, 2
3, 8
6, 12
8, 7
8, 5
4, 0
6, 2
4, 5
0, 0
3, 6
5, 3
3, 0
3, 2
3, 3
3, 6
6, 6
3, 3
3, 2
3, 1
8, 3
3, 5
7, 1
4, 5
7, 5
5, 4
4, 6
4, 3
3, 5
6, 9
7, 4
1, 7
5, 12
5, 6
3, 4
3, 5
6, 6
1, 2
3, 1
3, 2
2, 4
1, 2
3, 2
4, 2
3, 0
6, 1
1, 4
1, 0
1, 1
1, 4
0, 1
2, 2
2, 3
2, 4
2, 0
2, 4
0, 6
1, 1
1, 5
2, 0
2, 3
4, 5
1, 1
0, 2
1, 1
2, 1
2, 1
1, 2
3, 1
0, 1
3, 2
1, 2
4, 2
4, 5
3, 1
1, 5
2, 3
1, 6
0, 7
2, 9
1, 6
2, 4
2, 4
3, 7
3, 5
0, 8
0, 3
1, 2
2, 3
3, 1
3, 1
2, 1
3, 4
1, 4
1, 4
2, 1
5, 1
4, 0
1, 0
1, 1
3, 2
1, 2
2, 1
2, 1
2, 1
2, 2
2, 1
2, 3
2, 1
2, 3
2, 2
3, 2
0, 3
1, 1
3, 2
1, 5
6, 1
5, 2
7, 4
4, 1
2, 1
7, 1
7, 8
4, 7
2, 1
3, 3
4, 1
3, 0
4, 1
3, 5
2, 2
2, 2
2, 2
1, 0
0, 1
1, 2
1, 0
4, 4
2, 2
2, 1
1, 1
0, 2
2, 2
3, 4
0, 1
3, 3
5, 3
2, 0
0, 4
2, 2
2, 0
0, 3
1, 1
2, 2
0, 0
1, 0
2, 0
0, 1
0, 1
2, 1
1, 2
2, 1
0, 1
1, 1
2, 0
1, 0
4, 0
1, 0
1, 0
1, 0
0, 1
1, 0
2, 4
3, 0
1, 1
1, 0
2, 2
1, 2
0, 0
0, 2
1, 0
1, 0
0, 0
3, 0
1, 1
2, 3
0, 2
1, 1
1, 0
2, 2
2, 0
1, 3
0, 0
1, 1
4, 1
1, 1
1, 1
0, 0
1, 4
5, 2
1, 1
0, 0
0, 1
0, 0
1, 1
0, 1
1, 1
1, 0
1, 0
1, 1
2, 0
1, 0
0, 0
0, 0
0, 0
1, 1
0, 0
0, 0
1, 1
0, 2
1, 1
0, 0
2, 0
0, 0
1, 1
0, 1
0, 0
0, 0
0, 0
2, 0
1, 0
0, 0
0, 0
1, 0
2, 0
1, 0
2, 0
0, 1
0, 0
1, 1
0, 0
0, 0
2, 1
0, 0
0, 2
2, 0
1, 1
0, 0
2, 1
2, 0
1, 1
2, 1
1, 0
1, 0
2, 0
1, 0
1, 0
1, 0
0, 0
0, 1
1, 0
1, 0
1, 0
0, 1
1, 2
0, 0
0, 0
1, 0
0, 0
0, 1
1, 0
0, 0
0, 1
0, 0
1, 0
0, 1
0, 0
0, 0
0, 0
0, 0
4, 0
0, 1
1, 1
1, 0
2, 0
0, 1
0, 2
0, 1
0, 0
1, 1
0, 0
0, 0
1, 0
0, 0
0, 0
0, 0
0, 0
1, 1
0, 1
0, 1
0, 0
0, 0
0, 2
0, 0
0, 0
1, 0
0, 0
0, 0
0, 0
0, 0
0, 1
0, 0
1, 0
0, 1
1, 3
0, 0
0, 0
0, 1
0, 0
0, 0
1, 1
0, 3
0, 0
1, 1
1, 0
0, 0
0, 0
0, 1
0, 0
0, 0
0, 0
0, 0
1, 0
0, 0
0, 0
0, 0
0, 2
0, 0
0, 0
2, 0
0, 0
0, 0
1, 0
0, 0
0, 0
0, 0
0, 0
0, 1
0, 0
0, 1
1, 0
1, 0
0, 0
0, 1
0, 0
0, 0
0, 0
0, 0
0, 0
0, 0
0, 0
0, 0
0, 0
0, 0
0, 0
1, 1
1, 2
1, 1
0, 0
0, 1
0, 1
0, 0
0, 0
1, 0
0, 0
1, 0
0, 0
0, 0
0, 0
0, 0
0, 0
0, 0
0, 0
1, 1
0, 0
0, 0
0, 1
0, 0
0, 0
0, 0
0, 0
0, 0
0, 0
0, 0
0, 0
0, 0
0, 0
0, 0
1, 0
0, 0
0, 0
1, 0
0, 0
1, 0
0, 0
0, 0
0, 0
0, 0
0, 0
0, 0
1, 1
0, 0
0, 0
0, 0
0, 0
0, 0
0, 0
0, 0
0, 0
0, 0
0, 1
0, 0
0, 0
0, 1
0, 2
0, 0
1, 1
0, 0
0, 0
0, 0
0, 0
1, 1
0, 0
0, 0
0, 0
0, 0
0, 0
1, 0
0, 0
0, 0
0, 0
0, 0
0, 0
0, 0
0, 0
0, 0
0, 0
0, 0
0, 0
0, 0
0, 0
0, 0
0, 0
0, 0
0, 0
0, 0
1, 0
0, 0
1, 0
0, 0
0, 0
0, 0
0, 0
0, 0
0, 0
3, 0
0, 0
0, 0
0, 0
0, 0
0, 0
0, 0
0, 0
0, 0
1, 0
0, 0
1, 0
0, 0
0, 0
0, 0
0, 0
0, 0
0, 0
0, 0
0, 0
0, 0
0, 0
0, 0
0, 0
0, 0
0, 0
1, 0
0, 0
0, 0
0, 0
0, 0
0, 0
0, 0
0, 0
0, 0
0, 0
0, 0
0, 0
0, 0
0, 0
0, 0
0, 0
0, 0
0, 0
0, 1
0, 0
0, 0
0, 0
0, 0
0, 0
0, 0
0, 0
0, 0
0, 0
0, 0
0, 0
0, 0
0, 0
0, 0
0, 0
0, 0
0, 0
0, 0
0, 0
0, 0
0, 0
0, 0
0, 0
0, 1
0, 0
0, 0
0, 0
0, 0
0, 0
0, 0
0, 0
0, 0
0, 0
0, 0
0, 0
0, 0
0, 0
0, 0
0, 0
0, 0
0, 0
0, 1
0, 0
0, 0
0, 0
0, 0
0, 0
1, 0
0, 0
0, 0
0, 1
0, 0
0, 0
0, 0
0, 0
0, 0
0, 0
0, 0
0, 0
0, 0
1, 0
0, 0
0, 0
0, 0
0, 0
0, 0
0, 0
0, 0
0, 0
0, 0
1, 0
0, 0
0, 0
0, 0
0, 0
0, 0
0, 0
0, 0
0, 0
0, 0
0, 0
0, 0
0, 0
0, 0
0, 0
0, 0
0, 0
0, 0
0, 0
0, 0
0, 0
0, 0
0, 0
0, 0
0, 0
0, 0
0, 0
0, 0
0, 0
0, 0
0, 0
0, 0
0, 0
0, 0
0, 0
0, 0
1, 0
0, 0
0, 0
0, 0
0, 0
0, 0
0, 0
0, 0
0, 0
0, 0
0, 0
0, 0
0, 0
0, 0
0, 0
0, 0
0, 0
0, 0
0, 0
0, 0
0, 0
0, 0
0, 0
0, 0
0, 0
0, 0
0, 0
0, 0
0, 0
0, 0
0, 0
0, 0
0, 0
0, 0
0, 0
0, 0
0, 0
0, 0
0, 0
0, 0
0, 0
0, 0
0, 0
0, 0
0, 0
0, 0
0, 0
0, 0
0, 0
0, 0
0, 0
0, 0
0, 0
0, 0
0, 0
0, 0
0, 0
0, 0
0, 0
0, 0
0, 0
0, 0
0, 0
0, 0
0, 0
0, 0
0, 0
0, 0
0, 0
0, 0
0, 0
0, 0
0, 0
0, 0
0, 0
0, 0
0, 0
0, 0
0, 0
0, 0
0, 0
0, 0
0, 0
0, 0
0, 0
0, 0
0, 0
0, 0
0, 0
0, 0
0, 0
0, 0
0, 0
0, 0
0, 0
0, 0
0, 0
0, 0
0, 0
0, 0
0, 0
0, 0
0, 0
0, 0
0, 0
0, 0
0, 0
0, 0
0, 0
0, 0
0, 0
0, 0
0, 0
0, 0
0, 0
0, 0
0, 0
0, 0
0, 0
0, 0
0, 0
0, 0
0, 0
0, 0
0, 0
0, 0
0, 0
0, 0
0, 0
0, 0
0, 0
0, 0
0, 0
0, 0
0, 0
0, 0
0, 0
0, 0
0, 0
0, 0
0, 0
0, 0
0, 0
0, 0
0, 0
0, 0
0, 0
0, 0
0, 0
0, 0
0, 0
0, 0
0, 0
0, 0
0, 0
0, 0
0, 0
0, 0
0, 0
0, 0
0, 0
0, 0
0, 0
0, 0
0, 0
0, 0
0, 0
0, 0
0, 0
0, 0
0, 0
0, 0
0, 0
0, 0
0, 0
0, 0
0, 0
0, 0
0, 0
0, 0
0, 0
0, 0
0, 0
0, 0
0, 0
0, 0
0, 0
0, 0
0, 0
0, 0
0, 0
0, 0
0, 0
0, 0
0, 0
0, 0
0, 0
0, 0
0, 0
0, 0
0, 0
0, 0
0, 0
0, 0
0, 0
0, 0
0, 0
0, 0
0, 0
0, 0
0, 0
0, 0
0, 0
0, 0
0, 0
0, 0
0, 0
0, 0
0, 0
0, 0
0, 0
0, 0
0, 0
0, 0
0, 0
0, 0
0, 0
0, 0
0, 0
0, 0
0, 0
0, 0
0, 0
0, 0
0, 0
0, 0
0, 0
0, 0
0, 0
0, 0
0, 0
0, 0
0, 0
0, 0
0, 0
0, 0
0, 0
0, 0
0, 0
0, 0
0, 0
0, 0
0, 0
0, 0
0, 0
0, 0
0, 0
0, 0
0, 0
0, 0
0, 0
0, 0
0, 0
0, 0
0, 0
0, 0
0, 0
0, 0
0, 0
0, 0
0, 0
0, 0
0, 0
0, 0
0, 0
0, 0
0, 0
0, 0
0, 0
0, 0
0, 0
0, 0
0, 0
0, 0
0, 0
0, 0
0, 0
0, 0
0, 0
0, 0
0, 0
0, 0
0, 0
0, 0
0, 0
0, 0
0, 0
0, 0
0, 0
0, 0
0, 0
0, 0
0, 0
0, 0
0, 0
0, 0
0, 0
0, 0
0, 0
0, 0
0, 0
0, 0
0, 0
0, 0
0, 0
0, 0
0, 0
0, 0
0, 0
0, 0
0, 0
0, 0
0, 0
0, 0
0, 0
0, 0
0, 0
0, 0
#ENDOFDATA     end of spectrum data