File: host_upload/06-09-2024/ps_0852/dump3/ps__0852shot_2272.msa
#FORMAT      : EMSA/MAS spectral data file
#VERSION     : TC202v2.0 PIXL
#TITLE       : N/A
#DATE        :       Date in the format DD-MMM-YYYY, for example 07-JUL-2010
#TIME        :             The time of day at which the spectrum was recorded, in 24-hour format
#OWNER       : PIXL Flight Model       (PIXL will use this to indicate which instrument took the data.)
#NPOINTS     : 4096     Number of data points in the spectrum (This can be zero for configuration only files)
#NCOLUMNS    : 2     Number of data columns in the spectrum (This can be zero for configuration only files)
#XUNITS      : eV
#YUNITS      : COUNTS
#DATATYPE    : YY
#XPERCHAN    : 7.862, 7.881   eV per channel (separate by commas if more than one detector)
#OFFSET      : 18.5, -22.4         eV of first channel  (separate by commas if more than one detector
#SIGNALTYPE  : XRF
#YP_TEMP     : 2.235
#LIVETIME    : 8.56283, 8.56698   seconds (separate by commas if more than one detector)
#REALTIME    : 10, 10.0   seconds (separate by commas if more than one detector)
#SPECTRUM    : start of spectrum data
0, 0
0, 0
0, 0
0, 0
0, 0
0, 0
0, 0
0, 0
0, 0
0, 0
0, 0
0, 0
0, 0
0, 0
0, 0
0, 0
0, 0
0, 0
0, 0
0, 0
0, 0
0, 0
0, 0
0, 0
0, 0
0, 0
0, 0
0, 0
0, 0
0, 0
0, 0
0, 0
0, 0
0, 0
0, 0
1, 1
0, 0
0, 3
1, 1
2, 2
0, 2
0, 0
0, 2
3, 2
1, 3
2, 2
5, 0
2, 3
5, 5
15, 8
19, 14
28, 39
53, 45
78, 52
80, 58
66, 46
57, 55
39, 43
28, 27
19, 14
10, 7
5, 7
4, 3
2, 5
5, 2
12, 3
6, 4
9, 6
18, 17
51, 38
112, 81
164, 156
251, 238
363, 342
431, 405
454, 360
412, 339
325, 275
226, 175
144, 104
70, 44
43, 32
14, 14
10, 11
3, 6
2, 1
1, 3
4, 3
0, 2
4, 3
0, 5
6, 6
6, 15
18, 15
15, 36
41, 45
66, 55
104, 64
80, 88
82, 105
72, 72
76, 47
54, 58
26, 34
35, 16
17, 18
18, 16
15, 18
19, 19
29, 28
29, 33
43, 41
50, 48
64, 54
73, 36
61, 47
68, 49
69, 43
42, 39
38, 33
40, 28
26, 18
26, 29
20, 29
23, 14
10, 20
15, 15
12, 5
7, 14
12, 9
5, 7
6, 4
5, 2
5, 5
4, 7
3, 3
3, 4
3, 8
4, 5
3, 3
2, 4
2, 2
2, 3
1, 2
2, 2
2, 0
1, 3
2, 3
2, 0
1, 2
6, 3
0, 5
7, 3
7, 11
6, 9
23, 15
14, 14
10, 20
14, 17
14, 13
15, 21
10, 26
11, 45
7, 44
11, 72
7, 60
8, 63
5, 66
5, 68
6, 43
8, 36
6, 30
7, 14
13, 5
13, 8
7, 4
5, 7
3, 7
6, 6
8, 5
1, 8
6, 4
5, 8
4, 4
6, 4
6, 1
0, 6
3, 4
3, 8
9, 7
9, 6
9, 4
10, 7
9, 7
10, 10
15, 12
14, 8
10, 14
17, 20
12, 14
13, 14
7, 13
14, 17
5, 14
11, 11
10, 20
6, 12
5, 14
6, 8
6, 15
7, 15
6, 5
5, 4
4, 6
5, 7
14, 3
9, 3
5, 8
4, 4
7, 8
6, 12
11, 12
6, 10
6, 3
7, 7
9, 8
10, 4
16, 2
15, 12
10, 12
9, 12
12, 14
14, 11
11, 10
12, 5
8, 5
4, 10
6, 11
11, 6
4, 9
7, 4
14, 9
8, 9
10, 17
10, 11
19, 17
31, 35
41, 32
36, 44
49, 50
55, 41
66, 59
70, 49
81, 43
83, 38
72, 24
84, 27
109, 14
75, 26
89, 14
105, 30
76, 22
94, 53
111, 86
202, 205
291, 315
468, 525
743, 811
1133, 1293
1545, 1541
2005, 1963
2151, 2198
2377, 2218
2322, 2140
2094, 1832
1641, 1404
1261, 1105
876, 676
586, 413
327, 232
203, 139
99, 85
58, 45
36, 32
20, 24
17, 23
9, 19
13, 19
20, 13
22, 21
24, 34
26, 33
44, 57
70, 92
112, 97
148, 153
191, 230
255, 252
322, 321
331, 348
350, 326
309, 302
305, 239
237, 216
174, 156
122, 101
83, 62
51, 37
33, 25
21, 16
14, 12
5, 10
12, 8
16, 17
14, 13
12, 12
11, 9
16, 7
9, 15
12, 17
20, 9
9, 10
6, 10
9, 3
7, 6
1, 5
4, 11
7, 8
4, 20
0, 17
2, 20
5, 14
6, 17
4, 13
8, 13
3, 16
3, 15
12, 7
9, 8
5, 7
7, 5
7, 10
6, 5
14, 9
4, 9
6, 13
6, 1
8, 5
10, 13
6, 7
12, 9
6, 3
6, 4
6, 5
9, 7
12, 3
11, 5
7, 3
11, 5
5, 5
6, 4
9, 4
7, 1
5, 6
10, 3
5, 1
7, 3
7, 1
3, 5
3, 8
2, 4
5, 4
3, 2
4, 4
3, 4
7, 3
3, 4
7, 7
4, 6
2, 4
5, 6
5, 0
4, 6
5, 7
4, 0
1, 4
3, 4
8, 4
3, 3
5, 2
0, 4
4, 2
6, 2
1, 4
3, 4
4, 3
3, 3
2, 3
4, 7
5, 8
7, 3
7, 2
6, 5
8, 4
8, 1
9, 3
14, 4
13, 4
14, 4
15, 6
18, 3
20, 1
13, 3
22, 4
16, 2
16, 3
7, 2
12, 2
6, 2
9, 1
6, 2
1, 4
4, 4
4, 5
5, 6
3, 6
1, 8
2, 3
0, 4
4, 13
1, 9
4, 12
4, 11
9, 10
3, 11
7, 9
1, 8
9, 7
5, 7
1, 7
3, 2
3, 8
5, 5
2, 7
5, 7
5, 6
3, 6
5, 3
7, 9
2, 6
2, 4
4, 0
1, 2
5, 3
7, 3
3, 1
5, 1
4, 1
3, 4
4, 2
2, 2
3, 3
5, 5
3, 3
0, 1
7, 1
1, 1
2, 2
3, 0
0, 1
1, 0
0, 5
4, 4
1, 2
3, 2
2, 2
2, 4
2, 0
1, 1
4, 4
2, 1
2, 1
2, 3
1, 3
2, 2
2, 1
3, 3
1, 0
2, 1
2, 1
3, 3
0, 2
1, 6
5, 3
3, 2
2, 5
1, 0
7, 3
2, 1
3, 0
1, 1
2, 1
2, 3
1, 1
0, 1
2, 1
2, 10
1, 3
0, 3
2, 3
1, 1
3, 2
3, 1
2, 5
7, 1
2, 3
3, 4
2, 3
9, 1
9, 2
3, 3
2, 0
3, 0
3, 3
2, 2
4, 1
3, 4
4, 6
3, 1
3, 3
1, 1
5, 5
3, 8
1, 4
2, 6
0, 3
0, 4
4, 5
6, 4
4, 4
2, 1
4, 3
6, 5
4, 3
3, 5
2, 0
1, 3
4, 3
3, 1
3, 1
1, 1
0, 1
3, 1
1, 3
1, 0
2, 3
1, 2
0, 1
3, 1
0, 5
1, 1
2, 0
4, 1
1, 5
3, 2
2, 1
0, 0
2, 1
1, 0
2, 3
4, 3
2, 1
1, 2
1, 1
0, 3
2, 1
0, 1
1, 2
1, 2
3, 2
2, 0
2, 3
2, 0
1, 0
2, 1
1, 0
0, 1
0, 3
2, 2
0, 0
1, 0
2, 1
4, 2
2, 0
2, 0
0, 1
1, 2
3, 0
1, 2
2, 1
3, 2
2, 1
1, 1
0, 3
0, 2
1, 1
0, 0
0, 1
3, 0
0, 3
0, 1
0, 0
1, 3
2, 2
0, 0
1, 0
1, 1
2, 0
0, 0
0, 0
0, 1
1, 0
0, 0
2, 0
1, 1
0, 0
0, 0
1, 2
2, 1
0, 0
2, 0
3, 1
1, 0
2, 2
1, 0
0, 3
1, 1
2, 0
1, 0
0, 0
0, 2
0, 0
1, 1
0, 1
0, 1
1, 2
0, 0
2, 2
1, 1
0, 0
1, 1
2, 0
1, 1
0, 0
0, 1
0, 1
0, 0
2, 3
0, 2
0, 3
0, 0
0, 0
0, 0
0, 0
2, 0
0, 0
0, 1
0, 1
2, 0
0, 1
1, 1
2, 0
1, 1
0, 1
1, 0
0, 0
1, 0
1, 1
1, 2
0, 0
0, 0
0, 0
1, 2
0, 0
0, 0
0, 1
0, 0
0, 0
0, 0
0, 1
2, 0
1, 1
1, 0
2, 0
0, 0
0, 0
1, 1
1, 0
0, 0
0, 0
0, 0
1, 0
1, 0
1, 0
1, 1
0, 0
0, 1
0, 2
0, 0
1, 0
2, 1
0, 0
0, 1
0, 0
0, 3
1, 0
0, 2
0, 0
0, 0
1, 2
0, 0
1, 2
0, 1
0, 0
0, 0
0, 1
0, 1
0, 0
0, 2
1, 0
0, 0
0, 0
0, 0
0, 1
0, 0
0, 1
0, 0
0, 0
0, 0
0, 0
1, 0
0, 0
0, 1
0, 0
1, 0
0, 1
0, 0
0, 0
0, 0
1, 0
0, 0
0, 1
1, 0
1, 1
0, 0
0, 1
0, 0
0, 1
0, 0
0, 1
1, 0
0, 1
0, 0
0, 1
0, 1
0, 0
0, 0
0, 1
0, 0
0, 0
0, 0
0, 0
1, 0
0, 0
0, 0
0, 0
0, 0
0, 0
0, 0
0, 1
0, 1
1, 0
0, 0
0, 1
0, 0
0, 1
0, 0
0, 0
0, 0
1, 1
1, 0
0, 0
1, 1
0, 0
0, 0
0, 1
0, 0
0, 0
0, 0
0, 1
0, 0
0, 0
0, 0
0, 1
0, 0
0, 0
0, 1
1, 0
0, 0
0, 0
0, 0
0, 0
0, 0
0, 0
0, 0
0, 0
0, 0
0, 0
0, 0
0, 0
0, 0
0, 0
0, 0
0, 0
0, 0
0, 1
0, 0
0, 0
1, 0
0, 0
0, 0
0, 0
0, 0
0, 1
0, 0
0, 0
0, 0
0, 0
0, 0
0, 0
1, 0
1, 0
0, 0
0, 0
0, 0
0, 0
0, 0
1, 0
0, 0
0, 0
0, 0
0, 0
0, 0
0, 0
0, 0
0, 0
0, 0
0, 0
1, 0
0, 0
0, 0
0, 0
0, 0
0, 0
0, 0
0, 0
0, 0
0, 0
0, 0
0, 0
0, 0
0, 0
0, 0
0, 0
0, 0
0, 0
1, 0
0, 0
0, 0
0, 0
0, 0
0, 0
1, 0
0, 0
0, 0
0, 0
0, 0
0, 0
0, 0
0, 0
0, 0
0, 0
0, 0
0, 0
0, 0
0, 0
0, 0
0, 0
0, 0
1, 1
0, 0
0, 0
1, 0
0, 1
0, 0
1, 1
0, 0
0, 0
0, 0
0, 0
0, 0
1, 0
0, 0
0, 0
0, 0
0, 0
0, 0
0, 0
0, 0
0, 0
0, 1
0, 0
0, 0
0, 0
1, 0
0, 0
0, 0
0, 0
0, 0
0, 1
0, 0
0, 0
0, 0
0, 0
0, 0
0, 0
0, 0
0, 0
0, 0
0, 0
0, 0
1, 0
0, 0
0, 0
0, 0
0, 0
0, 0
0, 0
0, 0
0, 0
0, 0
0, 0
0, 0
0, 0
0, 0
0, 0
0, 0
0, 0
0, 0
0, 0
0, 0
0, 0
1, 0
0, 0
0, 0
0, 1
0, 0
0, 0
0, 0
0, 0
0, 0
0, 0
0, 0
0, 0
0, 0
0, 0
0, 0
0, 0
0, 0
0, 0
0, 0
1, 0
0, 0
0, 0
0, 0
0, 0
0, 0
0, 0
0, 0
0, 0
0, 0
0, 0
0, 0
0, 0
0, 0
0, 0
0, 0
0, 0
0, 0
0, 0
0, 0
0, 0
1, 0
0, 0
0, 0
0, 0
0, 1
0, 0
0, 0
0, 0
0, 0
0, 0
0, 0
0, 0
0, 0
0, 0
0, 0
0, 0
0, 0
0, 0
0, 0
0, 0
0, 0
0, 0
0, 0
0, 0
0, 0
0, 0
0, 0
0, 0
0, 0
0, 0
0, 0
0, 0
0, 0
0, 0
0, 0
0, 0
0, 0
0, 0
0, 0
0, 0
0, 0
0, 0
0, 0
0, 0
0, 0
0, 0
0, 0
0, 0
0, 0
0, 0
0, 0
0, 0
0, 0
0, 0
0, 0
0, 0
0, 0
0, 0
0, 0
0, 0
0, 0
0, 0
0, 0
0, 0
0, 0
0, 0
0, 0
0, 0
0, 0
0, 0
0, 0
0, 0
0, 0
0, 0
0, 0
0, 0
0, 0
0, 0
0, 0
0, 0
0, 0
0, 0
0, 0
0, 0
0, 0
0, 0
0, 0
0, 0
0, 0
0, 0
0, 0
0, 0
0, 0
0, 0
0, 0
0, 0
0, 0
0, 0
0, 0
0, 0
0, 0
0, 0
0, 0
0, 0
0, 0
0, 0
0, 0
0, 0
0, 0
0, 0
0, 0
0, 0
0, 0
0, 0
0, 0
0, 0
0, 0
0, 0
0, 0
0, 0
0, 0
0, 0
0, 0
0, 0
0, 0
0, 0
0, 0
0, 0
0, 0
0, 0
0, 0
0, 0
0, 0
0, 0
0, 0
0, 0
0, 0
0, 0
0, 0
0, 0
0, 0
0, 0
0, 0
0, 0
0, 0
0, 0
0, 0
0, 0
0, 0
0, 0
0, 0
0, 0
0, 0
0, 0
0, 0
0, 0
0, 0
0, 0
0, 0
0, 0
0, 0
0, 0
0, 0
0, 0
0, 0
0, 0
0, 0
0, 0
0, 0
0, 0
0, 0
0, 0
0, 0
0, 0
0, 0
0, 0
0, 0
0, 0
0, 0
0, 0
0, 0
0, 0
0, 0
0, 0
0, 0
0, 0
0, 0
0, 0
0, 0
0, 0
0, 0
0, 0
0, 0
0, 0
0, 0
0, 0
0, 0
0, 0
0, 0
0, 0
0, 0
0, 0
0, 0
0, 0
0, 0
0, 0
0, 0
0, 0
0, 0
0, 0
0, 0
0, 0
0, 0
0, 0
0, 0
0, 0
0, 0
0, 0
0, 0
0, 0
0, 0
0, 0
0, 0
0, 0
0, 0
0, 0
0, 0
0, 0
0, 0
0, 0
0, 0
0, 0
0, 0
0, 0
0, 0
0, 0
0, 0
0, 0
0, 0
0, 0
0, 0
0, 0
0, 0
0, 0
0, 0
0, 0
0, 0
0, 0
0, 0
0, 0
0, 0
0, 0
0, 0
0, 0
0, 0
0, 0
0, 0
0, 0
0, 0
0, 0
0, 0
0, 0
0, 0
0, 0
0, 0
0, 0
0, 0
0, 0
0, 0
0, 0
0, 0
0, 0
0, 0
0, 0
0, 0
0, 0
0, 0
0, 0
0, 0
0, 0
0, 0
0, 0
0, 0
0, 0
0, 0
0, 0
0, 0
0, 0
0, 0
0, 0
0, 0
0, 0
0, 0
0, 0
0, 0
0, 0
0, 0
0, 0
0, 0
0, 0
0, 0
0, 0
0, 0
0, 0
0, 0
0, 0
0, 0
0, 0
0, 0
0, 0
0, 0
0, 0
0, 0
0, 0
0, 0
0, 0
0, 0
0, 0
0, 0
0, 0
0, 0
0, 0
0, 0
0, 0
0, 0
0, 0
0, 0
0, 0
0, 0
0, 0
0, 0
0, 0
0, 0
0, 0
0, 0
0, 0
0, 0
0, 0
0, 0
0, 0
0, 0
0, 0
0, 0
0, 0
0, 0
0, 0
0, 0
0, 0
0, 0
0, 0
0, 0
0, 0
0, 0
0, 0
0, 0
0, 0
0, 0
0, 0
0, 0
0, 0
0, 0
0, 0
0, 0
0, 0
#ENDOFDATA     end of spectrum data