File: host_upload/06-09-2024/ps_0852/dump3/ps__0852shot_2296.msa
#FORMAT      : EMSA/MAS spectral data file
#VERSION     : TC202v2.0 PIXL
#TITLE       : N/A
#DATE        :       Date in the format DD-MMM-YYYY, for example 07-JUL-2010
#TIME        :             The time of day at which the spectrum was recorded, in 24-hour format
#OWNER       : PIXL Flight Model       (PIXL will use this to indicate which instrument took the data.)
#NPOINTS     : 4096     Number of data points in the spectrum (This can be zero for configuration only files)
#NCOLUMNS    : 2     Number of data columns in the spectrum (This can be zero for configuration only files)
#XUNITS      : eV
#YUNITS      : COUNTS
#DATATYPE    : YY
#XPERCHAN    : 7.862, 7.881   eV per channel (separate by commas if more than one detector)
#OFFSET      : 18.5, -22.4         eV of first channel  (separate by commas if more than one detector
#SIGNALTYPE  : XRF
#YP_TEMP     : 2.3
#LIVETIME    : 8.53407, 8.52504   seconds (separate by commas if more than one detector)
#REALTIME    : 10, 10.0   seconds (separate by commas if more than one detector)
#SPECTRUM    : start of spectrum data
0, 0
0, 0
0, 0
0, 0
0, 0
0, 0
0, 0
0, 0
0, 0
0, 0
0, 0
0, 0
0, 0
0, 0
0, 0
0, 0
0, 0
0, 0
0, 0
0, 0
0, 0
0, 0
0, 0
0, 0
0, 0
0, 0
0, 0
0, 0
0, 0
0, 0
0, 0
0, 0
0, 0
0, 0
0, 1
0, 0
0, 1
0, 0
0, 1
0, 2
2, 1
1, 0
2, 1
0, 1
4, 2
1, 0
2, 1
3, 3
7, 5
15, 13
28, 26
47, 36
66, 51
70, 68
74, 104
87, 75
66, 60
54, 33
31, 32
12, 9
10, 6
5, 6
2, 7
3, 3
1, 1
5, 2
7, 7
11, 8
22, 18
40, 44
88, 93
164, 186
253, 246
355, 358
403, 387
419, 404
396, 355
293, 250
228, 172
136, 90
68, 72
36, 35
12, 17
11, 9
3, 4
2, 4
1, 1
4, 1
2, 2
1, 0
2, 1
2, 2
2, 0
4, 2
5, 8
11, 14
10, 17
16, 27
28, 26
30, 24
26, 33
18, 19
12, 8
10, 13
10, 16
3, 14
8, 9
6, 9
15, 19
11, 13
26, 26
25, 25
21, 32
45, 43
50, 34
39, 38
42, 32
41, 31
25, 26
28, 31
29, 25
25, 20
19, 34
19, 20
20, 16
14, 18
9, 8
8, 9
9, 13
8, 9
13, 5
2, 2
6, 4
3, 5
2, 1
1, 4
0, 1
2, 3
0, 1
3, 2
1, 6
3, 1
3, 4
6, 4
3, 4
1, 4
1, 2
3, 4
2, 4
7, 0
8, 5
7, 6
10, 11
20, 11
13, 11
20, 22
19, 18
30, 22
24, 29
27, 15
27, 13
15, 10
10, 11
5, 2
5, 3
7, 4
4, 6
4, 2
5, 2
3, 5
5, 3
8, 4
7, 5
5, 9
3, 9
3, 8
10, 9
5, 9
4, 12
7, 8
9, 10
8, 9
4, 7
5, 5
4, 2
3, 4
2, 7
5, 2
5, 7
7, 3
7, 9
13, 11
19, 10
19, 18
16, 18
14, 14
13, 30
16, 39
17, 20
13, 26
10, 28
18, 17
17, 15
12, 12
10, 9
5, 7
5, 7
5, 6
8, 7
9, 7
7, 2
12, 7
6, 6
6, 3
9, 8
12, 11
10, 9
10, 6
10, 4
16, 11
14, 8
14, 5
10, 8
16, 4
16, 6
24, 6
30, 10
36, 10
55, 13
58, 23
61, 13
55, 18
55, 16
54, 19
29, 14
29, 13
20, 14
29, 10
24, 17
10, 9
13, 12
19, 12
13, 7
16, 14
17, 16
19, 25
38, 31
37, 31
37, 44
71, 74
61, 57
71, 60
48, 46
51, 46
46, 45
38, 31
23, 28
26, 27
16, 14
12, 14
18, 22
33, 43
50, 58
98, 110
167, 191
313, 352
514, 591
819, 853
1223, 1335
1620, 1791
2093, 2068
2300, 2424
2440, 2363
2512, 2159
2156, 1896
1789, 1531
1317, 974
892, 727
623, 461
410, 254
237, 143
114, 78
72, 54
57, 29
48, 23
41, 19
52, 22
68, 17
56, 17
48, 16
44, 30
64, 32
63, 45
91, 87
127, 119
170, 171
211, 231
250, 283
318, 363
346, 365
356, 395
351, 374
323, 284
246, 243
195, 190
126, 113
96, 67
60, 53
38, 27
19, 13
5, 12
14, 13
12, 9
10, 20
11, 10
20, 8
11, 8
23, 16
17, 12
16, 16
13, 14
9, 17
10, 7
8, 6
7, 7
2, 4
6, 5
4, 2
3, 9
2, 4
3, 5
3, 2
5, 5
2, 4
2, 5
4, 4
1, 5
2, 4
0, 5
3, 5
4, 4
0, 3
2, 8
3, 6
4, 10
5, 7
4, 7
0, 6
6, 7
8, 5
5, 9
8, 7
7, 7
10, 6
5, 11
8, 2
3, 3
3, 2
3, 8
4, 1
7, 4
6, 1
3, 5
2, 7
4, 7
5, 2
5, 5
2, 4
3, 8
6, 3
5, 5
2, 1
3, 5
2, 1
2, 5
4, 4
3, 6
6, 9
4, 3
7, 4
4, 2
6, 3
7, 4
1, 7
4, 5
6, 6
6, 7
6, 7
4, 8
4, 2
3, 13
5, 7
5, 9
9, 15
7, 9
5, 10
5, 7
3, 14
8, 18
1, 12
4, 8
3, 5
1, 5
9, 4
9, 9
1, 4
6, 3
3, 4
5, 5
11, 2
4, 4
4, 2
4, 6
7, 3
8, 1
17, 4
12, 5
15, 3
8, 3
14, 2
8, 1
8, 6
3, 1
13, 2
9, 1
3, 3
5, 3
5, 2
4, 4
5, 3
3, 4
7, 2
5, 3
6, 5
11, 2
3, 7
4, 1
1, 4
5, 4
5, 3
2, 3
3, 3
1, 4
6, 0
4, 4
4, 1
1, 2
1, 4
2, 4
2, 3
4, 2
4, 3
2, 4
1, 3
4, 3
4, 2
1, 2
0, 0
5, 10
1, 5
0, 1
9, 0
2, 1
2, 4
1, 1
3, 4
2, 2
1, 6
1, 2
1, 4
4, 4
4, 2
0, 3
5, 1
2, 3
3, 4
3, 3
1, 2
3, 1
0, 3
0, 2
3, 2
0, 3
3, 5
4, 3
2, 3
2, 2
3, 2
1, 1
3, 3
6, 3
4, 3
3, 1
2, 2
4, 0
5, 1
1, 5
5, 2
2, 1
2, 5
1, 3
3, 0
2, 3
4, 1
2, 1
3, 0
1, 2
3, 1
2, 4
3, 2
2, 1
2, 2
8, 3
1, 1
0, 3
5, 1
4, 0
2, 2
4, 2
5, 1
2, 1
1, 2
3, 2
2, 1
1, 1
1, 3
1, 1
6, 3
1, 3
3, 2
0, 3
0, 1
2, 0
0, 1
4, 4
0, 0
2, 4
5, 5
3, 3
5, 7
4, 4
3, 8
1, 6
7, 5
3, 5
3, 4
5, 4
3, 2
4, 4
3, 0
1, 3
3, 1
2, 3
3, 0
0, 1
2, 1
1, 1
1, 1
2, 3
1, 0
1, 2
0, 1
2, 5
0, 0
0, 3
3, 0
1, 4
4, 0
2, 3
1, 1
1, 4
5, 3
3, 1
1, 3
1, 2
1, 0
1, 6
0, 0
1, 0
0, 2
0, 3
0, 4
1, 2
1, 2
0, 2
1, 1
2, 1
1, 2
0, 1
2, 0
1, 2
2, 1
0, 1
0, 2
2, 3
2, 3
2, 2
0, 2
3, 2
4, 1
1, 2
2, 0
1, 2
1, 0
0, 0
2, 1
2, 1
0, 2
2, 1
1, 2
2, 0
1, 0
1, 0
3, 0
1, 0
0, 2
0, 0
0, 0
0, 1
1, 0
1, 0
3, 2
1, 1
3, 1
1, 2
2, 2
0, 0
2, 0
1, 0
1, 0
0, 2
0, 0
0, 0
0, 0
2, 1
0, 0
1, 0
0, 0
0, 1
0, 0
1, 2
1, 0
2, 2
1, 0
2, 1
0, 0
0, 0
0, 1
0, 1
0, 0
2, 2
0, 0
1, 0
1, 1
0, 2
1, 0
0, 0
1, 1
0, 1
1, 0
1, 1
0, 0
1, 0
1, 3
0, 0
0, 0
1, 1
0, 2
0, 1
0, 0
0, 1
1, 0
0, 1
1, 2
2, 0
0, 2
0, 0
3, 0
0, 0
0, 0
1, 0
0, 0
0, 0
0, 1
1, 1
0, 2
1, 0
0, 0
1, 0
0, 1
1, 0
1, 1
0, 0
0, 1
0, 1
1, 0
0, 0
0, 0
0, 0
1, 1
0, 0
0, 0
1, 0
2, 0
1, 1
2, 0
0, 0
0, 0
0, 2
0, 1
2, 0
0, 2
1, 0
0, 0
0, 0
0, 0
4, 0
0, 0
0, 1
0, 1
1, 0
0, 1
0, 0
0, 0
0, 0
0, 1
1, 0
0, 0
1, 1
0, 0
1, 0
0, 1
1, 0
1, 0
0, 1
0, 0
0, 0
0, 0
0, 0
1, 0
0, 0
0, 0
0, 0
0, 0
0, 1
0, 1
0, 0
1, 0
0, 0
1, 0
0, 0
0, 0
1, 0
1, 0
0, 0
1, 1
1, 1
0, 1
1, 0
0, 0
0, 0
0, 0
1, 1
0, 0
0, 0
0, 0
0, 0
1, 0
0, 0
0, 0
0, 0
0, 0
1, 0
1, 0
0, 1
0, 1
0, 1
1, 0
0, 0
0, 0
2, 0
2, 0
1, 1
0, 2
0, 0
0, 0
0, 0
0, 0
0, 0
0, 0
0, 0
1, 0
0, 0
1, 0
0, 0
0, 0
0, 0
0, 0
0, 0
2, 0
0, 0
0, 1
0, 0
0, 0
1, 0
0, 1
0, 1
0, 0
0, 0
0, 0
1, 0
0, 0
0, 0
0, 1
1, 0
0, 0
0, 0
0, 1
0, 0
0, 0
0, 0
0, 0
0, 0
0, 0
0, 0
0, 0
0, 0
0, 0
1, 0
0, 0
0, 0
1, 0
0, 0
0, 0
1, 0
1, 0
0, 1
0, 0
0, 0
0, 0
0, 0
0, 0
0, 0
1, 0
0, 0
0, 1
0, 0
0, 0
0, 0
0, 0
0, 0
0, 1
0, 0
0, 0
0, 0
0, 0
0, 0
0, 0
0, 0
0, 0
0, 0
0, 0
0, 0
0, 0
0, 1
0, 0
0, 0
0, 0
1, 0
0, 0
0, 1
1, 0
0, 0
0, 0
0, 0
0, 0
0, 0
0, 0
0, 0
0, 0
1, 0
0, 0
0, 0
0, 0
0, 1
1, 0
0, 0
0, 0
0, 0
0, 1
0, 0
0, 0
0, 1
0, 0
0, 0
0, 0
0, 0
0, 0
0, 0
0, 0
0, 0
0, 0
0, 0
0, 0
0, 0
0, 0
0, 0
0, 0
0, 0
0, 0
0, 0
0, 0
0, 0
0, 0
1, 0
0, 0
0, 0
0, 0
0, 0
0, 0
0, 0
0, 0
0, 0
0, 0
0, 0
1, 1
0, 0
0, 0
0, 0
0, 0
0, 0
0, 0
0, 0
0, 0
0, 0
0, 0
0, 0
0, 0
0, 0
0, 0
0, 0
0, 0
0, 0
0, 0
0, 0
0, 0
0, 0
0, 0
0, 0
0, 0
1, 0
0, 0
0, 0
0, 0
0, 0
0, 0
0, 0
0, 0
0, 0
0, 0
0, 0
1, 0
0, 0
0, 0
0, 0
0, 0
0, 0
0, 0
0, 0
0, 0
0, 0
0, 0
0, 0
0, 0
0, 0
0, 1
0, 0
0, 0
0, 0
0, 0
0, 0
0, 0
1, 0
0, 0
0, 0
0, 0
0, 0
0, 0
0, 0
0, 0
0, 0
0, 0
0, 0
0, 0
0, 0
0, 0
0, 0
0, 0
0, 0
0, 0
0, 0
0, 0
0, 0
0, 0
0, 0
0, 0
0, 0
0, 0
0, 0
0, 0
0, 0
0, 0
0, 0
0, 0
0, 0
0, 0
0, 0
0, 0
0, 0
0, 0
0, 0
0, 0
0, 0
0, 0
0, 0
0, 0
0, 0
0, 0
0, 0
0, 0
0, 0
0, 0
0, 0
0, 0
0, 0
0, 0
0, 0
0, 0
0, 0
0, 0
0, 0
0, 0
0, 0
0, 0
0, 0
0, 0
0, 0
0, 0
0, 0
0, 0
0, 0
0, 0
0, 0
0, 0
0, 0
0, 0
0, 0
0, 0
0, 0
0, 0
1, 0
0, 0
0, 0
0, 0
0, 0
0, 0
0, 0
0, 0
0, 0
0, 0
0, 0
0, 0
0, 0
0, 0
0, 0
0, 0
0, 0
0, 0
0, 0
0, 0
0, 0
0, 0
0, 0
0, 0
0, 0
0, 0
0, 0
0, 0
0, 0
0, 0
0, 0
0, 0
0, 0
0, 0
0, 0
0, 0
0, 0
0, 0
0, 0
0, 0
0, 0
0, 0
0, 0
0, 0
0, 0
0, 0
0, 0
0, 0
0, 0
0, 0
0, 0
0, 0
0, 0
0, 0
0, 0
0, 0
0, 0
0, 0
0, 0
0, 0
0, 0
0, 0
0, 0
0, 0
0, 0
0, 0
0, 0
0, 0
0, 0
0, 0
0, 0
0, 0
0, 0
0, 0
0, 0
0, 0
0, 0
0, 0
0, 0
0, 0
0, 0
0, 0
0, 0
0, 0
0, 0
0, 0
0, 0
0, 0
0, 0
0, 0
0, 0
0, 0
0, 0
0, 0
0, 0
0, 0
0, 0
0, 0
0, 0
0, 0
0, 0
0, 0
0, 0
0, 0
0, 0
0, 0
0, 0
0, 0
0, 0
0, 0
0, 0
0, 0
0, 0
0, 0
0, 0
0, 0
0, 0
0, 0
0, 0
0, 0
0, 0
0, 0
0, 0
0, 0
0, 0
0, 0
0, 0
0, 0
0, 0
0, 0
0, 0
0, 0
0, 0
0, 0
0, 0
0, 0
0, 0
0, 0
0, 0
0, 0
0, 0
0, 0
0, 0
0, 0
0, 0
0, 0
0, 0
0, 0
0, 0
0, 0
0, 0
0, 0
0, 0
0, 0
0, 0
0, 0
0, 0
0, 0
0, 0
0, 0
0, 0
0, 0
0, 0
0, 0
0, 0
0, 0
0, 0
0, 0
0, 0
0, 0
0, 0
0, 0
0, 0
0, 0
0, 0
0, 0
0, 0
0, 0
0, 0
0, 0
0, 0
0, 0
0, 0
0, 0
0, 0
0, 0
0, 0
0, 0
0, 0
0, 0
0, 0
0, 0
0, 0
0, 0
0, 0
0, 0
0, 0
0, 0
0, 0
0, 0
0, 0
0, 0
0, 0
0, 0
0, 0
0, 0
0, 0
0, 0
0, 0
0, 0
0, 0
0, 0
0, 0
0, 0
0, 0
0, 0
0, 0
0, 0
0, 0
0, 0
0, 0
0, 0
0, 0
0, 0
0, 0
0, 0
0, 0
0, 0
0, 0
0, 0
0, 0
0, 0
0, 0
0, 0
0, 0
0, 0
0, 0
0, 0
0, 0
0, 0
0, 0
0, 0
0, 0
0, 0
0, 0
0, 0
0, 0
0, 0
0, 0
0, 0
0, 0
0, 0
0, 0
0, 0
0, 0
0, 0
0, 0
0, 0
0, 0
0, 0
0, 0
0, 0
0, 0
0, 0
0, 0
0, 0
0, 0
0, 0
0, 0
0, 0
0, 0
0, 0
0, 0
0, 0
0, 0
0, 0
0, 0
0, 0
0, 0
0, 0
0, 0
0, 0
0, 0
0, 0
0, 0
0, 0
0, 0
0, 0
0, 0
0, 0
0, 0
0, 0
0, 0
0, 0
0, 0
0, 0
0, 0
0, 0
0, 0
0, 0
0, 0
0, 0
0, 0
0, 0
0, 0
0, 0
#ENDOFDATA     end of spectrum data