File: host_upload/06-09-2024/ps_0852/dump3/ps__0852shot_2528.msa
#FORMAT      : EMSA/MAS spectral data file
#VERSION     : TC202v2.0 PIXL
#TITLE       : N/A
#DATE        :       Date in the format DD-MMM-YYYY, for example 07-JUL-2010
#TIME        :             The time of day at which the spectrum was recorded, in 24-hour format
#OWNER       : PIXL Flight Model       (PIXL will use this to indicate which instrument took the data.)
#NPOINTS     : 4096     Number of data points in the spectrum (This can be zero for configuration only files)
#NCOLUMNS    : 2     Number of data columns in the spectrum (This can be zero for configuration only files)
#XUNITS      : eV
#YUNITS      : COUNTS
#DATATYPE    : YY
#XPERCHAN    : 7.862, 7.881   eV per channel (separate by commas if more than one detector)
#OFFSET      : 18.5, -22.4         eV of first channel  (separate by commas if more than one detector
#SIGNALTYPE  : XRF
#YP_TEMP     : 2.396
#LIVETIME    : 8.54978, 8.55157   seconds (separate by commas if more than one detector)
#REALTIME    : 10, 10.0   seconds (separate by commas if more than one detector)
#SPECTRUM    : start of spectrum data
0, 0
0, 0
0, 0
0, 0
0, 0
0, 0
0, 0
0, 0
0, 0
0, 0
0, 0
0, 0
0, 0
0, 0
0, 0
0, 0
0, 0
0, 0
0, 0
0, 0
0, 0
0, 0
0, 0
0, 0
0, 0
0, 0
1, 0
0, 0
0, 0
0, 0
0, 0
0, 0
0, 0
0, 0
0, 1
1, 1
2, 0
1, 0
2, 1
0, 1
0, 0
2, 2
0, 0
3, 3
2, 0
2, 0
0, 0
3, 2
5, 6
12, 9
30, 17
34, 37
63, 54
66, 69
78, 67
77, 65
51, 47
56, 31
17, 16
10, 12
11, 5
8, 7
1, 4
8, 4
7, 5
5, 3
8, 6
14, 12
13, 26
53, 48
102, 99
199, 197
287, 249
347, 323
430, 417
480, 395
394, 329
321, 231
240, 188
124, 108
79, 59
37, 23
23, 14
8, 8
4, 4
5, 2
2, 1
3, 3
1, 5
1, 1
3, 6
3, 5
6, 8
14, 8
20, 14
41, 24
59, 45
81, 45
94, 89
98, 59
100, 62
68, 61
45, 36
29, 18
29, 12
18, 13
17, 9
15, 7
15, 17
19, 12
32, 21
33, 33
41, 29
48, 48
43, 36
44, 43
39, 45
35, 30
30, 30
24, 30
26, 21
20, 19
15, 19
25, 13
18, 16
13, 8
12, 13
12, 13
4, 11
11, 2
4, 10
5, 2
3, 2
2, 4
4, 2
1, 2
1, 1
3, 2
1, 3
1, 6
4, 4
2, 3
4, 3
1, 3
3, 5
1, 4
2, 2
7, 2
4, 3
9, 2
7, 6
11, 11
20, 20
45, 32
66, 44
100, 65
112, 82
112, 75
141, 85
129, 79
82, 52
58, 37
37, 24
18, 13
18, 18
16, 14
7, 15
20, 16
9, 18
11, 18
25, 11
21, 11
13, 18
19, 24
9, 12
16, 7
13, 6
6, 7
4, 9
4, 8
9, 2
9, 7
3, 1
3, 4
5, 5
4, 1
5, 9
6, 4
9, 6
6, 8
15, 8
14, 8
17, 17
11, 10
14, 11
19, 11
16, 12
20, 16
21, 17
11, 14
11, 12
9, 9
14, 7
6, 5
2, 7
8, 4
6, 7
5, 7
5, 8
6, 4
12, 8
7, 8
7, 6
1, 7
4, 6
8, 2
7, 5
7, 3
9, 5
8, 5
6, 7
10, 8
8, 7
7, 11
7, 18
6, 45
13, 39
17, 40
18, 50
16, 49
23, 51
27, 48
24, 40
14, 35
19, 22
13, 14
10, 18
11, 14
9, 16
3, 11
7, 15
9, 13
13, 15
15, 23
19, 23
20, 23
26, 36
30, 41
49, 50
61, 57
67, 67
71, 54
61, 48
69, 56
48, 42
31, 33
27, 27
15, 18
27, 22
18, 38
19, 29
24, 47
46, 73
87, 137
146, 207
292, 338
460, 547
781, 877
1137, 1132
1595, 1613
1956, 1911
2380, 2228
2465, 2179
2352, 2010
2134, 1711
1750, 1387
1253, 948
941, 638
612, 402
325, 222
177, 117
89, 65
48, 27
26, 32
22, 12
21, 13
9, 13
13, 9
13, 21
22, 18
26, 30
28, 32
50, 53
67, 76
96, 95
154, 153
174, 219
261, 276
300, 301
359, 328
351, 345
373, 269
324, 244
266, 178
192, 137
131, 104
84, 62
50, 30
35, 18
17, 18
11, 20
13, 17
12, 20
13, 25
12, 35
9, 32
12, 44
12, 31
13, 21
16, 30
17, 20
14, 16
5, 9
9, 1
9, 4
10, 7
4, 5
7, 2
4, 3
8, 2
4, 3
3, 1
1, 3
6, 6
3, 2
5, 2
6, 5
9, 5
4, 1
6, 5
11, 2
7, 5
11, 1
15, 5
19, 9
10, 3
8, 6
20, 1
22, 6
14, 4
13, 6
10, 7
14, 6
10, 4
6, 5
7, 9
6, 5
4, 8
3, 3
5, 4
3, 5
2, 8
4, 9
3, 10
8, 7
4, 8
5, 9
2, 15
3, 11
9, 7
10, 5
2, 7
6, 3
5, 3
2, 5
4, 5
7, 6
8, 2
3, 6
10, 2
6, 7
2, 2
4, 3
6, 4
3, 4
2, 2
6, 2
4, 6
4, 3
1, 4
1, 1
1, 3
4, 7
1, 1
5, 5
10, 2
8, 3
5, 4
3, 2
3, 1
7, 1
3, 4
7, 7
4, 3
5, 3
2, 2
8, 1
5, 4
2, 3
8, 1
2, 3
3, 2
0, 2
6, 8
1, 5
0, 2
6, 3
1, 6
2, 3
4, 3
5, 7
2, 8
3, 8
3, 7
4, 12
1, 1
1, 5
2, 5
5, 4
4, 2
3, 2
3, 3
0, 4
2, 2
6, 4
9, 1
5, 2
10, 1
8, 5
5, 4
3, 1
3, 2
8, 4
10, 4
5, 3
3, 2
6, 5
2, 5
2, 0
3, 2
7, 5
5, 4
4, 0
2, 1
0, 4
3, 3
4, 8
1, 5
2, 6
2, 4
3, 5
0, 3
7, 5
5, 2
3, 2
1, 4
3, 4
5, 6
3, 3
0, 3
4, 0
2, 5
6, 2
2, 2
4, 5
0, 2
1, 2
5, 1
2, 1
5, 3
1, 1
2, 3
5, 1
1, 3
0, 2
2, 3
2, 1
2, 5
2, 2
2, 3
1, 3
4, 2
4, 3
3, 1
3, 1
2, 1
1, 2
2, 0
4, 3
3, 2
4, 3
7, 2
1, 1
3, 2
2, 2
3, 1
1, 5
4, 2
4, 5
7, 0
2, 3
3, 0
5, 2
0, 3
1, 3
3, 3
1, 1
1, 1
2, 3
2, 3
2, 3
3, 2
3, 0
3, 2
2, 2
1, 1
4, 4
6, 2
4, 0
1, 1
2, 1
0, 0
0, 1
2, 3
4, 4
2, 3
0, 4
2, 6
3, 0
0, 3
3, 1
4, 5
3, 1
3, 2
6, 2
6, 1
3, 2
4, 0
4, 1
5, 3
2, 1
3, 2
3, 1
0, 3
1, 2
2, 0
0, 0
2, 3
1, 3
1, 2
5, 2
0, 3
2, 3
4, 3
5, 4
0, 2
1, 0
6, 2
5, 2
1, 2
0, 0
0, 3
2, 4
3, 1
2, 1
1, 0
1, 0
2, 2
1, 1
2, 0
1, 2
0, 3
1, 0
1, 3
2, 0
1, 0
2, 4
4, 2
1, 2
3, 3
0, 0
4, 2
0, 1
0, 0
2, 0
0, 1
0, 2
0, 0
0, 0
1, 2
0, 2
1, 0
1, 1
1, 0
4, 1
3, 0
0, 1
0, 1
2, 2
0, 0
2, 2
0, 3
0, 1
2, 2
1, 1
1, 1
0, 2
1, 1
0, 0
2, 1
0, 2
3, 0
0, 1
3, 1
0, 0
0, 2
1, 0
2, 0
1, 0
1, 4
0, 1
1, 1
0, 0
1, 1
3, 0
0, 0
0, 1
1, 0
0, 1
0, 4
1, 0
4, 0
0, 1
0, 0
1, 0
0, 1
2, 1
1, 0
0, 0
0, 1
0, 0
1, 0
0, 1
2, 0
1, 0
3, 1
0, 1
1, 0
1, 1
0, 3
0, 2
0, 0
2, 0
1, 0
1, 1
0, 0
0, 0
1, 1
0, 1
2, 1
1, 0
0, 0
0, 2
1, 1
0, 1
1, 0
1, 1
2, 1
2, 0
1, 0
2, 0
0, 0
0, 0
1, 0
1, 1
0, 0
0, 0
1, 0
0, 1
0, 1
1, 2
0, 0
0, 1
0, 0
1, 0
0, 0
1, 1
1, 0
0, 0
0, 0
1, 0
1, 0
1, 0
0, 0
0, 0
0, 1
1, 0
0, 0
0, 0
0, 0
1, 0
0, 1
0, 1
0, 0
0, 0
0, 0
0, 0
1, 1
1, 1
1, 2
4, 1
0, 0
2, 1
1, 0
1, 0
0, 0
1, 0
0, 0
0, 0
0, 2
1, 0
1, 1
0, 1
0, 0
2, 0
0, 0
1, 0
0, 0
0, 0
0, 0
1, 0
1, 1
0, 0
0, 0
1, 1
2, 0
1, 0
0, 0
0, 0
0, 2
0, 2
0, 1
1, 0
0, 0
0, 0
0, 2
0, 0
0, 0
1, 0
0, 0
1, 0
0, 0
0, 0
0, 0
0, 0
1, 0
0, 0
1, 0
0, 0
1, 0
1, 1
0, 0
0, 0
0, 1
0, 0
1, 0
0, 1
0, 1
0, 0
0, 0
0, 0
0, 0
0, 1
0, 2
1, 2
0, 0
0, 0
0, 0
0, 0
0, 0
0, 0
1, 0
0, 0
0, 0
0, 1
0, 0
0, 0
0, 0
0, 0
1, 1
0, 0
0, 0
0, 1
0, 0
1, 0
0, 0
0, 0
0, 0
0, 0
2, 0
1, 0
0, 0
2, 0
0, 0
1, 0
0, 0
1, 0
0, 0
0, 0
0, 1
0, 0
0, 0
1, 0
0, 0
0, 0
0, 0
0, 0
0, 0
0, 0
0, 0
0, 0
0, 0
1, 1
0, 0
0, 0
0, 0
0, 1
0, 0
0, 0
0, 0
0, 0
0, 0
0, 1
0, 0
0, 0
0, 0
0, 0
0, 0
0, 0
0, 0
0, 0
0, 0
0, 0
1, 0
0, 0
0, 0
0, 2
0, 0
0, 0
1, 0
0, 0
0, 0
0, 0
0, 0
0, 0
1, 0
0, 0
0, 0
0, 0
1, 0
0, 0
0, 0
1, 0
0, 0
0, 0
0, 0
0, 0
0, 0
0, 1
0, 0
0, 0
0, 0
0, 0
0, 0
0, 0
0, 0
0, 0
0, 0
0, 0
0, 0
1, 0
0, 0
0, 0
1, 1
0, 0
0, 0
0, 0
0, 0
0, 0
0, 0
0, 0
0, 0
0, 0
0, 0
1, 0
0, 0
0, 0
0, 1
0, 0
0, 0
0, 0
0, 0
0, 0
0, 0
0, 0
0, 0
0, 0
1, 0
0, 0
0, 0
0, 1
0, 0
0, 0
0, 0
0, 0
0, 0
0, 0
0, 0
0, 0
0, 0
0, 0
0, 0
1, 0
0, 0
0, 0
0, 0
0, 0
0, 0
0, 0
0, 0
0, 0
0, 0
0, 0
0, 0
0, 0
0, 0
0, 1
0, 0
0, 0
0, 0
0, 0
0, 0
0, 0
0, 0
0, 0
0, 0
0, 0
0, 0
0, 0
0, 0
0, 0
0, 0
0, 0
0, 0
0, 0
0, 0
0, 0
0, 0
0, 0
0, 0
0, 0
0, 0
0, 0
0, 0
0, 0
0, 0
0, 0
0, 0
0, 0
0, 0
0, 0
0, 0
0, 0
0, 0
0, 0
0, 0
0, 0
0, 0
0, 0
0, 0
0, 0
0, 0
0, 0
0, 0
0, 0
0, 0
0, 0
0, 0
0, 0
0, 0
0, 0
0, 0
0, 0
0, 0
0, 0
0, 0
0, 0
0, 0
0, 0
0, 0
0, 0
0, 0
0, 0
0, 0
0, 0
0, 0
0, 0
0, 0
0, 0
0, 0
0, 0
0, 0
0, 0
0, 0
0, 0
0, 0
0, 0
0, 0
0, 0
0, 0
0, 0
0, 0
0, 0
0, 0
0, 0
0, 0
0, 0
0, 0
0, 0
0, 0
0, 0
0, 0
0, 0
0, 0
0, 0
0, 0
0, 0
0, 0
0, 0
0, 0
0, 0
0, 0
0, 0
0, 0
0, 0
0, 0
0, 0
0, 0
0, 0
0, 0
0, 0
0, 0
0, 0
0, 0
0, 0
0, 0
0, 0
0, 0
0, 0
0, 0
1, 0
0, 0
0, 0
0, 0
0, 0
0, 0
0, 0
0, 0
0, 0
0, 0
0, 0
0, 0
0, 0
0, 0
0, 0
0, 0
0, 0
0, 0
0, 0
0, 0
0, 0
0, 0
0, 0
0, 0
0, 0
0, 0
0, 0
0, 0
0, 0
0, 0
0, 0
0, 0
0, 0
0, 0
0, 0
0, 0
0, 0
0, 0
0, 0
0, 0
0, 0
0, 0
0, 0
0, 0
0, 0
0, 0
0, 0
0, 0
0, 0
0, 0
0, 0
0, 0
0, 0
0, 0
0, 0
0, 0
0, 0
0, 0
0, 0
0, 0
0, 0
0, 0
0, 0
0, 0
0, 0
0, 0
0, 0
0, 0
0, 0
0, 0
0, 0
0, 0
0, 0
0, 0
0, 0
0, 0
0, 0
0, 0
0, 0
0, 0
0, 0
0, 0
0, 0
0, 0
0, 0
0, 0
0, 0
0, 0
0, 0
0, 0
0, 0
0, 0
0, 0
0, 0
0, 0
0, 0
0, 0
0, 0
0, 0
0, 0
0, 0
0, 0
0, 0
0, 0
0, 0
0, 0
0, 0
0, 0
0, 0
0, 0
0, 0
0, 0
0, 0
0, 0
0, 0
0, 0
0, 0
0, 0
0, 0
0, 0
0, 0
0, 0
0, 0
0, 0
0, 0
0, 0
0, 0
0, 0
0, 0
0, 0
0, 0
0, 0
0, 0
0, 0
0, 0
0, 0
0, 0
0, 0
0, 0
0, 0
0, 0
0, 0
0, 0
0, 0
0, 0
0, 0
0, 0
0, 0
0, 0
0, 0
0, 0
0, 0
0, 0
0, 0
0, 0
0, 0
0, 0
0, 0
0, 0
0, 0
0, 0
0, 0
0, 0
0, 0
0, 0
0, 0
0, 0
0, 0
0, 0
0, 0
0, 0
0, 0
0, 0
0, 0
0, 0
0, 0
0, 0
0, 0
0, 0
0, 0
0, 0
0, 0
0, 0
0, 0
0, 0
0, 0
0, 0
0, 0
0, 0
0, 0
0, 0
0, 0
0, 0
0, 0
0, 0
0, 0
0, 0
0, 0
0, 0
0, 0
0, 0
0, 0
0, 0
0, 0
0, 0
0, 0
0, 0
0, 0
0, 0
0, 0
0, 0
0, 0
0, 0
0, 0
0, 0
0, 0
0, 0
0, 0
0, 0
0, 0
0, 0
0, 0
0, 0
0, 0
0, 0
0, 0
0, 0
0, 0
0, 0
0, 0
0, 0
0, 0
0, 0
0, 0
0, 0
0, 0
0, 0
0, 0
0, 0
0, 0
0, 0
0, 0
0, 0
0, 0
0, 0
0, 0
0, 0
0, 0
0, 0
0, 0
0, 0
0, 0
0, 0
0, 0
0, 0
0, 0
0, 0
0, 0
0, 0
0, 0
0, 0
0, 0
0, 0
0, 0
0, 0
0, 0
0, 0
0, 0
0, 0
0, 0
0, 0
0, 0
0, 0
0, 0
0, 0
0, 0
0, 0
0, 0
0, 0
0, 0
0, 0
0, 0
0, 0
0, 0
0, 0
0, 0
0, 0
0, 0
0, 0
0, 0
0, 0
0, 0
0, 0
0, 0
0, 0
0, 0
#ENDOFDATA     end of spectrum data