File: host_upload/06-09-2024/ps_0852/dump3/ps__0852shot_2395.msa
#FORMAT      : EMSA/MAS spectral data file
#VERSION     : TC202v2.0 PIXL
#TITLE       : N/A
#DATE        :       Date in the format DD-MMM-YYYY, for example 07-JUL-2010
#TIME        :             The time of day at which the spectrum was recorded, in 24-hour format
#OWNER       : PIXL Flight Model       (PIXL will use this to indicate which instrument took the data.)
#NPOINTS     : 4096     Number of data points in the spectrum (This can be zero for configuration only files)
#NCOLUMNS    : 2     Number of data columns in the spectrum (This can be zero for configuration only files)
#XUNITS      : eV
#YUNITS      : COUNTS
#DATATYPE    : YY
#XPERCHAN    : 7.862, 7.881   eV per channel (separate by commas if more than one detector)
#OFFSET      : 18.5, -22.4         eV of first channel  (separate by commas if more than one detector
#SIGNALTYPE  : XRF
#YP_TEMP     : 2.396
#LIVETIME    : 8.56917, 8.55612   seconds (separate by commas if more than one detector)
#REALTIME    : 10, 10.0   seconds (separate by commas if more than one detector)
#SPECTRUM    : start of spectrum data
0, 0
0, 0
0, 0
0, 0
0, 0
0, 0
0, 0
0, 0
0, 0
0, 0
0, 0
0, 0
0, 0
0, 0
0, 0
0, 0
0, 0
0, 0
0, 0
0, 0
0, 0
0, 0
0, 0
0, 0
0, 0
0, 0
0, 0
0, 0
0, 0
0, 0
0, 0
0, 0
0, 1
0, 0
0, 1
0, 0
0, 0
0, 1
2, 1
0, 0
0, 0
1, 3
0, 0
2, 2
0, 2
1, 1
1, 0
4, 3
5, 6
11, 8
17, 25
39, 48
55, 67
70, 72
68, 85
71, 80
57, 52
44, 42
18, 25
12, 10
11, 8
10, 3
2, 6
1, 2
1, 3
0, 2
10, 2
15, 9
21, 27
36, 44
85, 101
174, 165
257, 294
345, 374
396, 449
412, 451
336, 427
284, 302
193, 169
114, 120
70, 71
32, 39
22, 22
8, 8
4, 3
4, 4
3, 4
2, 3
2, 3
0, 1
1, 0
0, 1
1, 4
3, 1
1, 1
4, 7
3, 6
7, 4
4, 8
6, 7
3, 6
4, 2
6, 3
2, 5
9, 0
5, 5
6, 8
8, 8
11, 11
16, 18
26, 23
36, 32
39, 58
42, 52
48, 78
56, 56
50, 63
41, 46
31, 49
31, 23
19, 38
26, 29
28, 22
22, 23
21, 9
18, 18
17, 13
11, 8
10, 7
15, 4
4, 6
5, 4
4, 4
1, 2
4, 1
5, 2
1, 2
3, 4
0, 5
4, 3
1, 2
0, 3
4, 3
4, 2
3, 1
1, 4
1, 3
2, 4
3, 3
7, 3
4, 2
4, 5
8, 6
6, 16
12, 18
8, 21
19, 23
15, 17
13, 26
21, 33
13, 18
9, 13
14, 12
8, 4
6, 8
5, 10
0, 8
3, 8
5, 6
3, 6
3, 6
6, 7
8, 3
5, 9
7, 12
7, 14
0, 9
7, 12
4, 12
5, 9
8, 7
4, 9
5, 10
6, 10
12, 9
11, 7
2, 8
10, 5
10, 6
9, 3
11, 12
14, 15
10, 10
11, 12
16, 7
19, 18
12, 12
16, 12
16, 12
13, 11
13, 5
13, 9
10, 10
8, 8
6, 9
4, 9
8, 12
3, 8
5, 6
4, 6
9, 8
8, 8
6, 8
7, 12
10, 6
8, 6
8, 9
8, 13
13, 7
12, 13
5, 19
4, 19
12, 24
11, 18
5, 24
9, 28
4, 29
8, 31
11, 25
15, 26
16, 42
17, 38
26, 25
16, 23
7, 14
16, 25
16, 22
12, 14
13, 13
10, 4
17, 12
23, 11
14, 16
19, 11
24, 15
23, 22
21, 35
41, 44
48, 57
61, 75
64, 48
73, 63
62, 44
47, 53
42, 37
31, 29
30, 20
17, 16
19, 27
15, 17
27, 18
31, 35
34, 62
87, 105
139, 210
276, 398
477, 643
779, 1035
1085, 1394
1494, 1973
1876, 2290
2238, 2550
2324, 2728
2238, 2479
2032, 2097
1750, 1667
1280, 1163
939, 752
565, 512
330, 261
192, 163
98, 82
55, 54
28, 32
16, 24
23, 22
14, 31
13, 19
17, 34
14, 20
30, 30
38, 57
57, 53
67, 96
104, 105
150, 182
188, 235
276, 280
308, 340
345, 385
361, 368
331, 338
309, 325
235, 230
206, 170
129, 111
94, 66
40, 48
34, 30
23, 20
20, 14
8, 10
9, 13
12, 4
20, 3
17, 6
19, 16
11, 20
18, 16
16, 13
6, 10
12, 8
4, 9
4, 5
6, 4
7, 3
5, 7
10, 0
4, 4
3, 3
2, 4
1, 5
4, 5
7, 8
9, 9
0, 4
5, 4
3, 10
3, 8
5, 3
2, 7
4, 7
6, 6
8, 10
7, 5
6, 7
1, 5
7, 7
7, 9
8, 10
7, 8
11, 9
8, 6
4, 8
5, 3
4, 7
6, 5
5, 6
1, 4
2, 4
4, 4
1, 3
2, 7
6, 2
8, 4
6, 3
6, 4
9, 0
5, 7
2, 2
3, 2
1, 5
6, 0
2, 2
2, 4
2, 2
1, 6
4, 8
5, 4
3, 6
5, 6
2, 4
2, 4
7, 5
2, 2
5, 5
7, 12
6, 9
5, 7
6, 8
8, 9
4, 11
7, 11
4, 8
6, 16
5, 9
6, 5
7, 7
4, 5
2, 10
1, 8
2, 3
2, 3
4, 6
2, 5
5, 5
3, 2
6, 3
3, 7
1, 5
5, 6
4, 5
1, 3
2, 3
2, 3
5, 4
6, 4
1, 3
8, 1
1, 5
4, 5
6, 4
4, 4
7, 2
8, 1
8, 5
3, 4
7, 3
4, 2
3, 8
4, 7
7, 7
2, 9
6, 9
2, 7
3, 9
3, 15
4, 9
1, 7
4, 11
3, 11
4, 8
1, 9
1, 8
1, 6
0, 4
2, 4
3, 4
4, 5
1, 1
2, 4
1, 6
4, 4
4, 3
5, 1
0, 1
3, 3
1, 3
2, 4
3, 1
1, 4
1, 3
1, 3
2, 2
4, 5
3, 4
2, 2
5, 2
1, 5
4, 2
0, 2
1, 2
3, 0
3, 3
1, 0
2, 3
5, 0
2, 3
3, 2
4, 5
1, 4
4, 3
4, 2
4, 3
3, 3
4, 1
6, 5
0, 1
2, 0
2, 3
1, 3
3, 0
5, 5
5, 0
1, 3
1, 2
0, 2
4, 5
2, 4
4, 4
3, 4
2, 2
3, 4
1, 3
0, 3
1, 2
3, 2
2, 4
1, 4
5, 3
2, 2
2, 1
2, 1
1, 2
3, 0
1, 3
2, 2
2, 3
3, 0
3, 3
1, 5
0, 1
7, 2
2, 2
4, 2
0, 3
4, 4
2, 2
3, 4
3, 3
2, 2
5, 2
2, 2
3, 2
4, 3
1, 2
7, 5
0, 3
5, 0
3, 7
5, 4
3, 6
0, 3
9, 5
2, 3
5, 5
3, 4
5, 2
2, 5
1, 0
4, 6
2, 3
3, 1
0, 2
1, 2
1, 0
0, 1
2, 0
1, 0
0, 2
1, 1
1, 6
1, 2
3, 4
0, 0
0, 2
0, 1
3, 2
1, 2
2, 1
2, 2
1, 2
3, 5
4, 1
1, 1
2, 0
0, 1
2, 3
2, 2
1, 1
1, 3
1, 0
1, 2
0, 2
0, 0
3, 1
1, 1
4, 3
1, 4
0, 5
2, 1
0, 1
3, 1
0, 3
1, 0
0, 0
0, 2
0, 0
1, 0
3, 1
1, 1
2, 0
1, 0
1, 1
3, 1
1, 3
2, 1
1, 0
0, 0
2, 0
1, 1
0, 1
1, 0
3, 1
0, 1
0, 2
1, 0
1, 0
0, 2
1, 2
1, 4
0, 1
0, 0
0, 0
0, 1
1, 1
0, 0
1, 1
0, 2
1, 0
1, 0
1, 1
2, 0
0, 1
0, 1
0, 0
0, 0
2, 0
0, 0
1, 2
0, 1
0, 1
0, 1
0, 1
0, 1
0, 1
1, 1
2, 1
0, 2
2, 0
0, 0
1, 0
1, 1
2, 1
2, 1
0, 0
0, 0
2, 1
2, 1
0, 0
2, 0
0, 1
1, 0
0, 0
1, 0
0, 0
2, 0
2, 0
0, 0
2, 0
0, 0
3, 0
2, 1
0, 1
1, 0
0, 2
0, 1
0, 1
0, 0
0, 1
1, 0
1, 2
1, 0
0, 0
1, 2
1, 0
1, 0
0, 1
0, 1
0, 1
1, 0
0, 0
0, 1
0, 0
0, 1
0, 0
0, 0
1, 0
0, 2
0, 2
0, 0
1, 1
0, 0
0, 1
0, 0
1, 0
0, 0
0, 0
0, 0
1, 0
0, 0
1, 0
1, 1
0, 0
0, 0
2, 0
0, 0
1, 2
0, 0
0, 2
0, 1
1, 2
1, 0
0, 1
0, 0
0, 1
0, 1
0, 0
0, 2
0, 0
1, 1
0, 1
0, 0
0, 1
0, 0
0, 1
1, 0
0, 1
0, 0
0, 0
0, 0
0, 2
0, 0
0, 1
1, 0
0, 0
1, 1
0, 0
0, 0
0, 0
1, 1
0, 1
0, 0
0, 0
0, 0
1, 0
0, 0
0, 0
1, 0
0, 0
0, 0
0, 1
1, 0
0, 1
0, 0
1, 1
0, 1
1, 0
0, 0
0, 1
1, 0
0, 0
1, 0
1, 0
1, 0
0, 0
0, 0
0, 0
0, 1
0, 1
0, 0
0, 0
0, 0
0, 0
0, 1
0, 1
0, 0
0, 0
0, 1
0, 0
0, 0
0, 0
0, 0
0, 0
0, 0
1, 0
1, 0
0, 2
0, 0
0, 0
0, 0
0, 0
0, 1
0, 0
0, 0
0, 0
0, 0
0, 0
0, 0
0, 1
0, 0
0, 0
0, 0
0, 0
0, 0
0, 0
0, 0
0, 0
0, 0
0, 1
0, 0
0, 0
0, 0
0, 0
0, 0
0, 0
0, 2
0, 0
0, 0
0, 0
0, 0
0, 0
0, 1
0, 0
0, 0
0, 0
0, 0
0, 1
0, 0
0, 0
0, 2
0, 0
0, 0
0, 0
0, 1
1, 0
1, 1
0, 1
0, 0
0, 0
0, 0
0, 0
0, 1
0, 0
0, 0
0, 0
1, 0
0, 0
0, 0
0, 0
0, 0
1, 0
0, 0
0, 0
0, 0
1, 0
1, 0
1, 0
0, 0
0, 0
0, 1
0, 0
0, 0
0, 0
0, 0
0, 0
0, 0
0, 1
0, 0
0, 0
0, 0
0, 0
0, 0
0, 0
0, 0
0, 0
0, 0
0, 0
0, 0
0, 0
0, 0
0, 0
0, 0
0, 0
0, 0
1, 0
0, 0
0, 0
0, 0
0, 0
0, 0
0, 0
0, 1
0, 0
0, 1
0, 0
0, 0
0, 0
0, 0
0, 0
0, 0
1, 0
0, 0
1, 0
0, 0
0, 1
0, 0
0, 0
0, 0
0, 0
0, 0
0, 0
0, 0
0, 0
0, 0
0, 0
0, 0
0, 0
1, 0
0, 0
0, 0
0, 0
0, 0
0, 0
0, 0
0, 0
0, 0
0, 0
0, 0
0, 0
0, 0
0, 0
0, 0
0, 0
0, 0
0, 0
0, 0
0, 0
0, 0
0, 0
0, 0
0, 0
0, 0
0, 0
0, 1
0, 0
0, 0
0, 0
0, 0
0, 0
0, 0
0, 0
0, 0
0, 0
0, 0
0, 0
0, 0
0, 0
0, 0
0, 0
0, 0
0, 0
0, 0
0, 0
0, 0
0, 0
0, 0
0, 0
0, 0
0, 0
0, 0
0, 0
0, 0
0, 0
0, 0
0, 0
0, 0
0, 0
0, 0
0, 0
0, 0
0, 0
0, 0
0, 0
0, 0
0, 0
0, 0
0, 0
0, 0
0, 0
0, 0
0, 0
0, 0
0, 0
0, 0
0, 0
0, 0
0, 2
0, 0
0, 0
1, 0
0, 0
0, 0
0, 0
0, 0
0, 0
0, 0
0, 0
0, 0
0, 0
0, 0
0, 0
0, 0
0, 0
0, 0
0, 0
0, 0
0, 0
0, 0
0, 0
0, 0
0, 0
0, 0
0, 0
0, 0
0, 0
0, 0
0, 0
0, 0
0, 0
0, 0
0, 0
0, 0
0, 0
0, 0
0, 0
0, 0
0, 0
0, 0
0, 0
0, 0
0, 0
0, 0
0, 0
0, 0
0, 0
0, 0
0, 0
0, 0
0, 0
0, 0
0, 1
0, 0
0, 0
0, 0
0, 0
0, 0
0, 0
0, 0
0, 0
0, 0
0, 0
0, 0
0, 0
0, 0
0, 0
0, 0
0, 0
0, 0
0, 0
0, 0
0, 0
0, 0
0, 0
0, 0
0, 0
0, 0
0, 0
0, 0
0, 0
0, 0
0, 0
0, 0
0, 0
0, 0
0, 0
0, 0
0, 0
0, 0
0, 0
0, 0
0, 0
0, 0
0, 0
0, 0
0, 0
0, 0
0, 0
0, 0
0, 0
0, 0
0, 0
0, 0
0, 0
0, 0
0, 0
0, 0
0, 0
0, 0
0, 0
0, 0
0, 1
0, 0
0, 0
0, 0
0, 0
0, 0
0, 0
0, 0
0, 0
0, 0
0, 0
0, 0
0, 0
0, 0
0, 0
0, 0
0, 0
0, 0
0, 0
0, 0
0, 0
0, 0
0, 0
0, 0
0, 0
0, 0
0, 0
0, 0
0, 0
0, 0
0, 0
0, 0
0, 0
0, 0
0, 0
0, 0
0, 0
0, 0
0, 0
0, 0
0, 0
0, 0
0, 0
0, 0
0, 0
0, 0
0, 0
0, 0
0, 0
0, 0
0, 0
0, 0
0, 0
0, 0
0, 0
0, 0
0, 0
0, 0
0, 0
0, 0
0, 0
0, 0
0, 0
0, 0
0, 0
0, 0
0, 0
0, 0
0, 0
0, 0
0, 0
0, 0
0, 0
0, 0
0, 0
0, 0
0, 0
0, 0
0, 0
0, 0
0, 0
0, 0
0, 0
0, 0
0, 0
0, 0
0, 0
0, 0
0, 0
0, 0
0, 0
0, 0
0, 0
0, 0
0, 0
0, 0
0, 0
0, 0
0, 0
0, 0
0, 0
0, 0
0, 0
0, 0
0, 0
0, 0
0, 0
0, 0
0, 0
0, 0
0, 0
0, 0
0, 0
0, 0
0, 0
0, 0
0, 0
0, 0
0, 0
0, 0
0, 0
0, 0
0, 0
0, 0
0, 0
0, 0
0, 0
0, 0
0, 0
0, 0
0, 0
0, 0
0, 0
0, 0
0, 0
0, 0
0, 0
0, 0
0, 0
0, 0
0, 0
0, 0
0, 0
0, 0
0, 0
0, 0
0, 0
0, 0
0, 0
0, 0
0, 0
0, 0
0, 0
0, 0
0, 0
0, 0
0, 0
0, 0
0, 0
0, 0
0, 0
0, 0
0, 0
0, 0
0, 0
0, 0
0, 0
0, 0
0, 0
0, 0
0, 0
0, 0
0, 0
0, 0
0, 0
0, 0
0, 0
0, 0
0, 0
0, 0
0, 0
0, 0
0, 0
0, 0
0, 0
0, 0
0, 0
0, 0
0, 0
0, 0
0, 0
0, 0
0, 0
0, 0
0, 0
0, 0
0, 0
0, 0
0, 0
0, 0
0, 0
0, 0
0, 0
0, 0
0, 0
0, 0
0, 0
0, 0
0, 0
0, 0
0, 0
0, 0
0, 0
0, 0
0, 0
0, 0
0, 0
0, 0
0, 0
0, 0
0, 0
0, 0
0, 0
0, 0
0, 0
0, 0
0, 0
0, 0
0, 0
0, 0
0, 0
0, 0
0, 0
0, 0
0, 0
0, 0
0, 0
0, 0
0, 0
0, 0
0, 0
0, 0
0, 0
0, 0
0, 0
#ENDOFDATA     end of spectrum data