File: host_upload/06-09-2024/ps_0852/dump3/ps__0852shot_2194.msa
#FORMAT      : EMSA/MAS spectral data file
#VERSION     : TC202v2.0 PIXL
#TITLE       : N/A
#DATE        :       Date in the format DD-MMM-YYYY, for example 07-JUL-2010
#TIME        :             The time of day at which the spectrum was recorded, in 24-hour format
#OWNER       : PIXL Flight Model       (PIXL will use this to indicate which instrument took the data.)
#NPOINTS     : 4096     Number of data points in the spectrum (This can be zero for configuration only files)
#NCOLUMNS    : 2     Number of data columns in the spectrum (This can be zero for configuration only files)
#XUNITS      : eV
#YUNITS      : COUNTS
#DATATYPE    : YY
#XPERCHAN    : 7.862, 7.881   eV per channel (separate by commas if more than one detector)
#OFFSET      : 18.5, -22.4         eV of first channel  (separate by commas if more than one detector
#SIGNALTYPE  : XRF
#YP_TEMP     : 1.979
#LIVETIME    : 8.57436, 8.55352   seconds (separate by commas if more than one detector)
#REALTIME    : 10, 10.0   seconds (separate by commas if more than one detector)
#SPECTRUM    : start of spectrum data
0, 0
0, 0
0, 0
0, 0
0, 0
0, 0
0, 0
0, 0
0, 0
0, 0
0, 0
0, 0
0, 0
0, 0
0, 0
0, 0
0, 0
0, 0
0, 0
0, 0
0, 0
0, 0
0, 0
0, 0
0, 0
0, 0
0, 0
0, 0
0, 0
0, 0
0, 0
0, 0
0, 0
0, 0
0, 0
0, 0
0, 0
1, 0
1, 0
4, 1
1, 3
2, 3
2, 1
0, 2
3, 1
1, 1
3, 4
2, 5
7, 6
15, 11
27, 21
51, 34
51, 48
74, 44
91, 71
70, 55
79, 53
54, 35
29, 14
18, 12
13, 10
5, 7
8, 6
8, 3
7, 0
5, 5
5, 6
9, 5
22, 19
43, 41
106, 107
186, 137
294, 239
378, 337
439, 381
440, 339
425, 326
301, 250
218, 163
151, 108
76, 55
37, 22
24, 22
8, 9
9, 4
5, 3
3, 4
2, 3
1, 2
2, 2
0, 2
2, 0
3, 2
4, 2
0, 1
5, 3
4, 5
5, 3
5, 8
2, 5
5, 4
3, 3
2, 2
9, 3
5, 1
6, 3
6, 4
13, 3
10, 10
14, 15
16, 21
28, 28
42, 47
43, 76
42, 71
40, 71
49, 91
44, 90
35, 81
33, 93
35, 83
29, 72
23, 75
18, 53
22, 38
16, 30
11, 11
15, 13
7, 14
2, 7
11, 3
5, 7
1, 2
1, 3
3, 3
1, 1
4, 4
3, 0
1, 4
3, 1
4, 1
0, 2
2, 2
1, 5
2, 1
1, 2
2, 2
4, 2
1, 3
5, 2
8, 3
13, 10
13, 8
16, 6
15, 14
37, 12
24, 20
35, 23
28, 20
20, 13
31, 11
15, 5
11, 11
9, 5
8, 10
7, 3
6, 7
3, 8
8, 5
2, 8
8, 4
5, 6
3, 6
6, 8
5, 2
5, 3
6, 4
7, 5
4, 12
3, 9
8, 5
6, 2
4, 6
7, 5
3, 4
4, 6
3, 5
4, 5
8, 10
8, 8
13, 9
12, 10
12, 16
16, 16
13, 14
16, 16
19, 33
29, 34
29, 26
27, 20
36, 20
28, 17
37, 11
44, 8
36, 10
32, 11
26, 5
18, 8
20, 5
13, 5
11, 12
9, 7
7, 11
7, 11
12, 9
12, 9
10, 12
6, 11
9, 4
11, 8
8, 9
6, 11
9, 6
11, 4
10, 8
5, 9
10, 12
19, 12
16, 16
22, 18
26, 16
35, 25
27, 18
19, 22
25, 29
21, 32
24, 28
21, 29
14, 24
9, 26
13, 18
15, 28
8, 16
16, 17
8, 25
33, 25
28, 27
48, 33
56, 51
64, 56
67, 56
82, 50
57, 44
51, 51
50, 41
35, 28
35, 21
17, 25
13, 23
24, 13
26, 29
33, 31
44, 48
96, 91
165, 193
341, 310
516, 514
847, 820
1285, 1201
1660, 1573
2148, 1912
2404, 2123
2596, 2100
2570, 2014
2311, 1817
1857, 1365
1431, 939
1016, 656
639, 423
407, 223
220, 140
114, 78
76, 45
60, 30
61, 15
85, 19
68, 13
79, 21
77, 19
79, 26
81, 25
70, 31
94, 39
93, 78
133, 107
181, 149
213, 217
297, 270
312, 327
387, 323
393, 339
340, 278
364, 262
276, 174
217, 150
149, 93
112, 59
49, 41
28, 34
19, 12
10, 15
15, 9
12, 10
8, 16
9, 11
13, 28
15, 25
19, 24
14, 6
11, 10
17, 15
14, 9
8, 6
9, 12
5, 6
3, 5
2, 2
1, 7
3, 4
5, 2
6, 2
2, 7
6, 5
3, 10
3, 7
3, 2
7, 4
4, 5
4, 5
10, 7
2, 1
7, 8
7, 5
3, 8
4, 3
7, 5
9, 5
5, 6
8, 3
5, 7
8, 4
5, 5
7, 12
9, 10
13, 7
10, 6
5, 5
11, 5
10, 5
14, 2
15, 4
7, 2
7, 0
7, 4
8, 6
5, 5
8, 6
5, 5
7, 5
5, 4
11, 1
3, 2
9, 0
10, 2
4, 3
6, 4
4, 5
4, 3
5, 5
5, 5
3, 4
6, 3
4, 5
3, 4
5, 4
5, 3
5, 3
2, 4
2, 6
8, 15
7, 6
2, 5
7, 14
2, 12
3, 19
5, 14
1, 8
5, 15
7, 14
3, 12
3, 8
8, 9
4, 3
2, 7
4, 3
5, 4
5, 5
6, 1
3, 4
4, 2
9, 3
2, 3
5, 5
7, 5
4, 2
7, 2
8, 4
10, 3
6, 2
5, 4
4, 5
6, 4
10, 2
5, 4
8, 3
3, 2
4, 4
4, 4
3, 0
6, 1
4, 1
2, 3
3, 4
2, 0
4, 5
6, 3
4, 2
1, 3
9, 1
7, 1
5, 4
3, 1
5, 1
5, 3
2, 1
1, 4
5, 2
3, 2
2, 1
3, 2
4, 4
5, 0
2, 0
2, 0
2, 2
3, 0
1, 1
4, 1
1, 3
2, 2
3, 1
4, 1
2, 0
5, 1
3, 2
2, 2
5, 3
5, 3
2, 1
2, 2
6, 3
3, 2
6, 3
0, 1
2, 2
5, 1
1, 6
4, 3
1, 1
2, 0
1, 1
3, 3
1, 4
4, 7
0, 10
4, 5
2, 5
3, 3
3, 3
3, 6
1, 7
0, 6
2, 5
2, 2
1, 3
0, 2
2, 2
2, 2
0, 2
3, 3
2, 0
1, 1
4, 4
1, 3
1, 2
3, 1
2, 2
6, 2
1, 3
1, 2
2, 2
3, 1
4, 2
0, 1
3, 5
3, 0
1, 2
2, 1
2, 3
6, 1
2, 2
3, 2
6, 2
2, 2
0, 3
1, 2
4, 3
2, 2
3, 3
4, 3
4, 2
1, 5
1, 1
2, 2
1, 4
3, 1
3, 3
2, 5
5, 4
3, 2
4, 5
6, 1
6, 2
2, 4
1, 3
8, 4
5, 2
3, 2
2, 0
6, 0
2, 1
5, 3
0, 1
0, 0
0, 0
0, 0
0, 1
3, 2
2, 0
1, 3
0, 0
3, 1
3, 1
4, 1
0, 2
1, 0
2, 0
0, 1
1, 2
3, 0
4, 2
1, 3
5, 1
2, 1
3, 2
2, 2
1, 3
4, 1
0, 1
1, 2
1, 2
0, 0
1, 2
1, 1
1, 0
1, 3
1, 3
0, 1
1, 2
0, 0
1, 1
1, 1
2, 1
0, 0
5, 1
3, 0
1, 0
3, 0
2, 2
0, 0
1, 1
2, 1
0, 0
1, 0
3, 0
1, 0
3, 1
1, 0
1, 0
1, 1
1, 0
1, 0
1, 0
2, 0
1, 1
1, 0
1, 0
2, 0
1, 3
2, 0
1, 2
0, 0
2, 2
1, 1
0, 1
1, 0
1, 2
0, 0
1, 1
0, 1
2, 2
1, 1
1, 2
1, 2
2, 0
2, 0
3, 0
0, 0
0, 1
1, 0
2, 0
0, 0
0, 0
1, 0
4, 1
1, 1
0, 0
0, 0
0, 0
1, 0
1, 1
2, 0
0, 0
1, 1
1, 0
1, 2
1, 1
0, 1
0, 1
3, 1
1, 0
2, 0
1, 0
0, 1
0, 2
0, 0
0, 1
0, 0
2, 0
1, 0
0, 0
0, 0
0, 0
0, 1
2, 0
3, 1
0, 1
0, 2
0, 1
0, 0
0, 0
1, 0
3, 1
0, 0
0, 1
1, 1
0, 0
2, 1
1, 0
1, 0
0, 0
0, 1
0, 0
1, 0
1, 0
0, 0
1, 0
1, 1
1, 0
0, 1
0, 0
0, 0
0, 0
3, 0
1, 0
1, 1
0, 0
0, 2
1, 1
0, 0
0, 0
0, 1
1, 1
1, 1
0, 0
1, 0
0, 1
0, 0
0, 1
0, 0
2, 0
0, 0
1, 0
0, 0
0, 0
0, 0
0, 0
0, 0
0, 0
1, 0
0, 0
0, 0
1, 0
0, 1
0, 0
0, 0
0, 0
0, 1
1, 0
0, 0
0, 0
0, 0
0, 1
0, 2
0, 0
0, 0
0, 0
2, 0
0, 0
0, 0
1, 0
0, 0
0, 0
0, 0
0, 1
0, 0
2, 0
0, 0
0, 1
0, 0
0, 1
1, 0
0, 0
1, 1
1, 0
0, 1
0, 0
2, 0
0, 0
0, 0
0, 1
1, 0
0, 0
0, 1
1, 0
1, 0
0, 0
0, 0
0, 1
1, 0
0, 0
1, 0
1, 0
0, 0
0, 0
0, 0
0, 1
0, 0
0, 0
1, 0
0, 0
1, 0
0, 0
1, 0
0, 1
0, 0
0, 0
0, 0
0, 1
0, 1
0, 0
0, 0
0, 1
0, 0
0, 0
0, 0
0, 0
0, 0
0, 0
0, 0
0, 1
0, 0
0, 0
1, 0
0, 0
0, 0
0, 0
1, 0
0, 0
0, 0
0, 0
0, 0
0, 0
0, 1
0, 0
1, 0
0, 0
1, 0
0, 0
0, 0
0, 0
1, 0
0, 0
0, 0
1, 0
0, 0
0, 0
0, 0
0, 1
0, 0
0, 0
0, 0
0, 0
0, 0
0, 0
0, 0
0, 0
1, 0
0, 0
0, 0
1, 1
0, 0
0, 0
0, 1
0, 0
1, 0
0, 0
0, 0
0, 0
0, 0
0, 0
1, 0
0, 0
0, 0
1, 0
1, 0
0, 0
0, 0
0, 0
1, 0
0, 0
0, 0
0, 0
0, 0
0, 0
0, 0
0, 0
0, 0
0, 0
1, 0
0, 0
0, 0
0, 0
0, 0
0, 0
0, 0
0, 0
0, 0
0, 0
0, 0
0, 0
0, 0
1, 0
0, 0
0, 0
0, 0
0, 0
0, 0
0, 0
0, 0
0, 0
0, 0
1, 0
0, 0
0, 0
0, 0
0, 0
1, 0
0, 0
0, 0
0, 0
0, 0
0, 0
0, 0
0, 0
0, 0
0, 0
0, 0
0, 0
1, 0
0, 0
0, 0
0, 0
0, 0
0, 0
1, 0
0, 0
0, 0
0, 0
0, 0
0, 0
0, 0
0, 0
0, 0
0, 0
0, 0
0, 0
0, 0
0, 0
0, 0
0, 0
0, 0
0, 0
0, 0
0, 0
0, 0
0, 0
0, 0
0, 0
0, 0
0, 0
0, 0
0, 0
0, 0
0, 0
0, 0
0, 0
0, 0
0, 0
0, 0
0, 0
0, 0
0, 0
1, 0
0, 0
0, 0
0, 1
0, 0
0, 0
0, 0
0, 0
0, 0
0, 0
0, 0
0, 0
0, 0
0, 0
0, 0
0, 0
0, 0
0, 0
0, 0
0, 0
0, 0
0, 0
0, 0
0, 0
0, 0
0, 0
0, 0
0, 0
0, 0
0, 0
0, 0
0, 0
0, 0
0, 0
0, 0
0, 1
0, 0
0, 0
0, 0
0, 0
0, 0
0, 0
0, 0
0, 0
0, 0
0, 0
0, 0
0, 0
0, 0
0, 0
0, 0
0, 0
0, 0
0, 0
0, 0
0, 0
0, 0
0, 0
0, 0
0, 0
0, 0
0, 0
0, 0
0, 0
0, 0
0, 0
0, 0
0, 0
0, 0
0, 0
0, 0
0, 0
0, 0
0, 0
0, 0
0, 0
0, 0
0, 0
0, 0
0, 1
0, 0
0, 0
0, 0
0, 0
0, 0
0, 0
0, 0
0, 0
0, 0
0, 0
0, 0
0, 0
0, 0
0, 0
0, 0
0, 0
0, 0
0, 0
0, 0
0, 0
0, 0
0, 0
0, 0
0, 0
0, 0
0, 0
0, 0
0, 0
0, 0
0, 0
0, 0
0, 0
0, 0
0, 0
0, 0
0, 0
0, 0
0, 0
0, 0
0, 0
0, 0
0, 0
0, 0
0, 0
0, 0
0, 0
0, 0
0, 0
0, 0
0, 0
0, 0
0, 0
0, 0
0, 0
0, 0
0, 0
0, 0
0, 0
0, 0
0, 0
0, 0
0, 0
0, 0
0, 0
0, 0
0, 0
0, 0
0, 0
0, 0
0, 0
0, 0
0, 0
0, 0
0, 0
0, 0
0, 0
0, 0
0, 0
0, 0
0, 0
0, 0
0, 0
0, 0
0, 0
0, 0
0, 0
0, 0
0, 0
0, 0
0, 0
0, 0
0, 0
0, 0
0, 0
0, 0
0, 0
0, 0
0, 0
0, 0
0, 0
0, 0
0, 0
0, 0
0, 0
0, 0
0, 0
0, 0
0, 0
0, 0
0, 0
0, 0
0, 0
0, 0
0, 0
0, 0
0, 0
0, 0
0, 0
0, 0
0, 0
0, 0
0, 0
0, 0
0, 0
0, 0
0, 0
0, 0
0, 0
0, 0
0, 0
0, 0
0, 0
0, 0
0, 0
0, 0
0, 0
0, 0
0, 0
0, 0
0, 0
0, 0
0, 0
0, 0
0, 0
0, 0
0, 0
0, 0
0, 0
0, 0
0, 0
0, 0
0, 0
0, 0
0, 0
0, 0
0, 0
0, 0
0, 0
0, 0
0, 0
0, 0
0, 0
0, 0
0, 0
0, 0
0, 0
0, 0
0, 0
0, 0
0, 0
0, 0
0, 0
0, 0
0, 0
0, 0
0, 0
0, 0
0, 0
0, 0
0, 0
0, 0
0, 0
0, 0
0, 0
0, 0
0, 0
0, 0
0, 0
0, 0
0, 0
0, 0
0, 0
0, 0
0, 0
0, 0
0, 0
0, 0
0, 0
0, 0
0, 0
0, 0
0, 0
0, 0
0, 0
0, 0
0, 0
0, 0
0, 0
0, 0
0, 0
0, 0
0, 0
0, 0
0, 0
0, 0
0, 0
0, 0
0, 0
0, 0
0, 0
0, 0
0, 0
0, 0
0, 0
0, 0
0, 0
0, 0
0, 0
0, 0
0, 0
0, 0
0, 0
0, 0
0, 0
0, 0
0, 0
0, 0
0, 0
0, 0
0, 0
0, 0
0, 0
0, 0
0, 0
0, 0
0, 0
0, 0
0, 0
0, 0
0, 0
0, 0
0, 0
0, 0
0, 0
0, 0
0, 0
0, 0
0, 0
0, 0
0, 0
0, 0
0, 0
0, 0
0, 0
0, 0
0, 0
0, 0
0, 0
0, 0
0, 0
0, 0
0, 0
0, 0
0, 0
0, 0
0, 0
0, 0
0, 0
0, 0
0, 0
0, 0
0, 0
0, 0
0, 0
0, 0
0, 0
0, 0
0, 0
0, 0
0, 0
0, 0
0, 0
0, 0
0, 0
0, 0
0, 0
0, 0
0, 0
0, 0
0, 0
0, 0
0, 0
0, 0
0, 0
0, 0
0, 0
0, 0
0, 0
0, 0
0, 0
0, 0
0, 0
0, 0
0, 0
0, 0
0, 0
0, 0
0, 0
0, 0
0, 0
0, 0
0, 0
0, 0
#ENDOFDATA     end of spectrum data