File: host_upload/06-09-2024/ps_0852/dump3/ps__0852shot_2334.msa
#FORMAT      : EMSA/MAS spectral data file
#VERSION     : TC202v2.0 PIXL
#TITLE       : N/A
#DATE        :       Date in the format DD-MMM-YYYY, for example 07-JUL-2010
#TIME        :             The time of day at which the spectrum was recorded, in 24-hour format
#OWNER       : PIXL Flight Model       (PIXL will use this to indicate which instrument took the data.)
#NPOINTS     : 4096     Number of data points in the spectrum (This can be zero for configuration only files)
#NCOLUMNS    : 2     Number of data columns in the spectrum (This can be zero for configuration only files)
#XUNITS      : eV
#YUNITS      : COUNTS
#DATATYPE    : YY
#XPERCHAN    : 7.862, 7.881   eV per channel (separate by commas if more than one detector)
#OFFSET      : 18.5, -22.4         eV of first channel  (separate by commas if more than one detector
#SIGNALTYPE  : XRF
#YP_TEMP     : 2.364
#LIVETIME    : 8.52701, 8.56506   seconds (separate by commas if more than one detector)
#REALTIME    : 10, 10.0   seconds (separate by commas if more than one detector)
#SPECTRUM    : start of spectrum data
0, 0
0, 0
0, 0
0, 0
0, 0
0, 0
0, 0
0, 0
0, 0
0, 0
0, 0
0, 0
0, 0
0, 0
0, 0
0, 0
0, 0
0, 0
0, 0
0, 0
0, 0
0, 0
0, 0
0, 0
0, 0
0, 0
0, 0
0, 0
0, 0
0, 0
0, 0
0, 0
0, 0
0, 0
0, 1
1, 0
0, 0
0, 0
2, 1
0, 2
0, 1
0, 0
1, 1
2, 2
1, 0
1, 3
2, 0
1, 2
3, 6
16, 16
21, 28
40, 34
56, 70
87, 75
85, 83
83, 78
61, 63
42, 44
20, 29
13, 18
7, 9
3, 2
4, 6
1, 5
0, 4
2, 5
3, 3
11, 11
21, 24
44, 54
78, 100
182, 174
246, 285
322, 353
350, 405
407, 444
353, 383
248, 242
181, 189
125, 137
74, 62
32, 34
15, 15
6, 13
3, 4
3, 4
3, 1
3, 3
3, 2
2, 3
1, 2
1, 3
5, 3
2, 5
14, 12
12, 15
27, 25
22, 43
42, 36
45, 53
46, 35
31, 23
20, 23
17, 24
6, 4
7, 6
1, 1
4, 7
9, 11
14, 14
23, 28
23, 22
34, 28
30, 40
25, 37
26, 41
24, 37
33, 46
32, 26
21, 23
28, 16
24, 17
21, 20
16, 20
17, 21
14, 16
10, 15
10, 7
10, 15
9, 9
8, 8
3, 3
3, 4
5, 6
3, 1
1, 4
6, 4
4, 1
3, 0
6, 3
0, 4
1, 2
0, 1
1, 5
5, 2
2, 3
1, 2
2, 1
2, 2
3, 4
2, 1
5, 3
3, 4
7, 7
9, 5
15, 16
12, 5
25, 6
11, 15
9, 12
11, 10
6, 9
6, 3
5, 2
4, 5
4, 0
6, 1
3, 3
6, 5
6, 5
7, 4
4, 8
5, 3
8, 4
3, 7
3, 8
1, 8
7, 7
7, 11
7, 7
3, 3
1, 3
6, 4
10, 9
4, 5
7, 3
3, 6
2, 7
2, 6
6, 10
6, 3
12, 4
11, 12
12, 13
7, 13
18, 18
17, 28
10, 33
14, 42
10, 34
21, 54
11, 49
10, 74
8, 88
8, 56
6, 62
7, 46
8, 30
5, 25
3, 15
8, 19
3, 18
8, 14
5, 18
9, 12
7, 7
5, 12
11, 11
6, 11
3, 5
6, 7
4, 4
4, 7
9, 5
5, 9
12, 10
12, 17
13, 7
13, 9
13, 12
19, 21
14, 14
8, 8
10, 9
17, 15
16, 12
12, 12
7, 11
15, 10
8, 11
10, 19
17, 13
15, 27
6, 35
17, 30
13, 36
37, 38
45, 66
47, 55
58, 82
64, 64
68, 72
69, 59
58, 54
71, 74
68, 36
72, 24
98, 13
142, 18
155, 19
169, 22
216, 26
249, 69
243, 102
298, 193
406, 363
562, 661
786, 961
1148, 1416
1534, 1816
1977, 2267
2272, 2474
2374, 2520
2324, 2412
2110, 2070
1694, 1522
1246, 1115
903, 770
598, 493
351, 262
219, 176
92, 91
59, 35
30, 27
11, 26
12, 17
19, 16
13, 16
12, 22
20, 30
30, 13
29, 47
49, 57
71, 111
108, 117
128, 180
214, 245
233, 313
335, 328
311, 354
337, 376
343, 358
277, 287
238, 213
178, 163
143, 107
81, 63
63, 38
39, 29
14, 21
7, 3
20, 6
11, 6
9, 11
13, 11
14, 21
15, 20
11, 8
18, 11
25, 14
24, 16
10, 13
14, 11
14, 13
8, 4
6, 4
11, 4
13, 5
11, 3
9, 2
7, 2
12, 4
6, 2
6, 7
5, 4
3, 6
11, 4
3, 4
3, 4
9, 10
4, 4
1, 6
6, 8
6, 6
2, 5
5, 4
6, 8
9, 10
8, 9
5, 7
7, 7
12, 7
11, 7
15, 6
17, 4
17, 6
17, 2
21, 3
27, 1
28, 8
23, 5
13, 5
27, 2
10, 4
9, 5
9, 5
9, 5
4, 4
8, 1
4, 3
5, 1
4, 4
5, 2
5, 3
2, 3
4, 3
2, 1
7, 8
7, 3
4, 5
4, 5
4, 4
2, 3
4, 0
4, 5
3, 6
2, 5
5, 3
5, 3
4, 10
3, 4
4, 8
5, 8
2, 6
3, 4
5, 7
5, 3
5, 8
4, 6
6, 2
3, 3
4, 5
4, 2
5, 2
3, 4
6, 1
5, 6
5, 3
3, 4
5, 2
2, 4
3, 2
7, 8
2, 5
1, 5
1, 3
6, 0
7, 4
2, 4
3, 3
1, 3
5, 2
3, 3
6, 2
2, 2
4, 2
8, 2
1, 2
0, 3
1, 7
5, 7
5, 4
6, 5
4, 4
3, 5
0, 9
2, 6
2, 12
1, 7
2, 11
2, 4
6, 2
5, 4
3, 2
5, 2
3, 7
5, 3
6, 1
3, 3
5, 6
4, 0
2, 0
1, 3
6, 2
0, 2
3, 3
6, 1
1, 1
2, 3
5, 1
5, 3
2, 4
4, 2
1, 3
3, 2
4, 0
4, 0
3, 3
1, 0
3, 1
3, 4
2, 2
3, 4
3, 2
2, 2
0, 1
2, 1
0, 1
1, 1
3, 3
0, 3
0, 2
4, 3
3, 1
1, 2
2, 1
1, 3
0, 0
4, 4
3, 5
5, 2
0, 3
7, 5
3, 5
3, 6
4, 2
1, 4
2, 3
2, 3
1, 3
2, 3
0, 2
3, 3
1, 3
2, 4
2, 0
4, 3
1, 2
2, 4
1, 3
2, 2
0, 5
1, 2
2, 1
5, 0
6, 2
5, 0
1, 0
1, 4
3, 1
2, 3
5, 2
2, 0
3, 3
1, 0
6, 2
0, 0
1, 4
1, 2
3, 2
2, 1
1, 3
1, 6
2, 3
1, 0
3, 2
4, 2
1, 6
2, 4
6, 5
6, 5
2, 5
1, 5
4, 4
9, 4
1, 5
2, 4
3, 3
3, 4
7, 3
3, 1
3, 3
3, 2
1, 1
1, 1
2, 2
1, 0
4, 1
2, 2
1, 3
1, 1
1, 3
0, 3
2, 2
0, 2
3, 2
0, 0
1, 0
0, 4
2, 3
1, 2
2, 2
3, 2
2, 0
0, 2
1, 2
1, 2
2, 2
2, 1
1, 1
1, 0
3, 2
0, 1
1, 3
0, 2
0, 1
0, 3
0, 3
2, 2
2, 3
0, 1
0, 2
1, 0
0, 3
2, 0
3, 6
0, 2
2, 1
1, 0
0, 6
2, 0
0, 2
4, 1
2, 1
3, 1
1, 3
2, 0
2, 2
1, 1
1, 1
1, 1
2, 0
1, 1
2, 1
0, 0
1, 1
0, 0
0, 0
2, 0
1, 0
1, 0
0, 1
2, 0
3, 0
1, 0
1, 2
0, 1
0, 1
0, 0
0, 2
0, 1
2, 2
2, 2
0, 1
0, 1
0, 1
1, 0
0, 2
0, 0
2, 0
0, 3
0, 0
1, 1
0, 1
1, 2
1, 0
1, 0
3, 2
0, 0
0, 1
0, 1
0, 1
1, 1
0, 0
2, 0
1, 2
1, 0
1, 1
0, 1
0, 1
0, 0
1, 1
1, 2
0, 0
1, 1
0, 0
2, 1
2, 0
1, 0
2, 0
0, 2
1, 1
1, 1
3, 0
0, 0
1, 0
1, 0
2, 0
0, 0
1, 1
0, 0
1, 0
1, 1
0, 0
1, 0
0, 0
1, 1
0, 1
0, 1
2, 1
0, 0
0, 0
0, 1
0, 1
0, 1
0, 0
1, 0
0, 1
3, 0
1, 0
1, 0
3, 0
0, 0
0, 1
0, 0
0, 1
1, 1
0, 1
1, 0
1, 1
0, 0
0, 1
1, 0
0, 0
0, 0
0, 0
0, 0
0, 0
0, 0
1, 1
0, 0
0, 0
0, 0
1, 2
0, 0
0, 1
1, 0
0, 0
1, 0
0, 0
0, 0
0, 0
0, 0
1, 0
1, 0
1, 1
0, 0
0, 0
0, 0
0, 1
0, 1
0, 0
0, 1
1, 0
0, 0
1, 0
0, 0
0, 1
0, 0
1, 0
0, 1
0, 1
0, 0
0, 2
1, 1
1, 0
0, 0
0, 0
0, 0
0, 1
0, 0
0, 0
0, 1
0, 0
0, 0
0, 0
0, 0
1, 0
0, 0
1, 0
0, 1
0, 0
0, 1
0, 0
0, 0
1, 1
0, 0
0, 0
2, 1
0, 1
0, 0
0, 0
0, 0
0, 0
0, 0
0, 0
0, 0
0, 0
0, 0
0, 2
0, 0
0, 0
1, 0
2, 0
0, 0
0, 1
0, 0
0, 1
1, 0
0, 0
0, 1
0, 0
1, 0
0, 0
0, 0
0, 1
0, 1
0, 0
0, 0
1, 1
0, 0
2, 0
0, 0
0, 0
0, 0
0, 0
0, 0
0, 1
0, 0
1, 0
1, 0
0, 0
0, 0
1, 0
0, 1
1, 0
0, 0
0, 0
0, 0
0, 0
0, 0
0, 0
0, 0
0, 0
0, 0
0, 0
0, 0
0, 0
0, 0
1, 0
1, 0
0, 0
0, 0
0, 0
0, 0
0, 0
0, 0
0, 0
0, 0
0, 0
0, 0
0, 0
0, 0
0, 0
0, 0
0, 0
0, 0
1, 0
1, 0
0, 0
1, 1
0, 0
1, 0
0, 0
0, 0
0, 0
0, 0
0, 0
0, 0
0, 0
1, 0
0, 0
0, 0
0, 0
0, 1
0, 0
0, 0
0, 0
0, 0
0, 0
0, 0
0, 0
0, 0
0, 0
0, 0
0, 0
0, 0
0, 0
0, 2
0, 0
0, 0
0, 0
0, 0
0, 0
0, 0
0, 0
0, 0
0, 0
0, 0
0, 0
0, 0
0, 0
0, 1
0, 0
0, 0
0, 0
0, 0
0, 0
0, 0
0, 0
0, 0
0, 0
0, 0
0, 1
0, 0
0, 0
0, 0
0, 0
0, 0
0, 0
0, 0
0, 0
0, 0
0, 0
0, 0
0, 0
0, 0
0, 0
0, 0
0, 0
0, 0
0, 0
0, 0
0, 0
0, 0
0, 0
0, 0
0, 0
0, 0
0, 0
0, 0
0, 0
0, 0
0, 0
0, 0
0, 0
0, 0
0, 0
0, 0
0, 1
0, 0
0, 0
0, 0
0, 0
0, 0
0, 0
0, 0
0, 0
0, 0
0, 0
0, 0
0, 0
0, 0
0, 0
0, 1
0, 0
0, 0
0, 0
0, 0
0, 0
0, 0
0, 0
0, 0
0, 0
0, 0
0, 0
0, 0
0, 0
0, 0
0, 0
0, 0
0, 0
0, 0
1, 0
0, 0
0, 0
0, 0
0, 0
0, 0
0, 0
0, 0
0, 0
0, 0
0, 0
0, 0
0, 0
0, 0
0, 0
0, 0
0, 0
0, 0
0, 0
0, 0
0, 0
0, 0
0, 0
0, 0
0, 0
0, 0
0, 0
0, 0
0, 0
0, 0
0, 0
0, 0
1, 0
0, 0
0, 0
0, 0
0, 0
0, 0
0, 0
0, 0
0, 0
0, 0
0, 0
0, 0
0, 0
0, 0
0, 0
0, 0
0, 0
0, 0
0, 0
0, 0
0, 0
0, 0
0, 0
0, 0
0, 0
0, 0
0, 0
0, 0
0, 0
0, 0
0, 0
0, 0
0, 0
0, 0
0, 0
0, 0
0, 0
0, 0
0, 0
0, 0
0, 0
0, 0
0, 0
0, 0
0, 0
0, 0
0, 0
0, 0
0, 0
0, 0
0, 0
0, 0
0, 0
0, 0
0, 0
0, 0
0, 0
0, 0
0, 0
0, 0
0, 0
0, 0
0, 0
0, 0
0, 0
0, 0
0, 0
0, 0
0, 0
0, 0
0, 0
0, 0
0, 0
0, 0
0, 0
0, 0
0, 0
0, 0
0, 0
0, 0
0, 0
0, 0
0, 0
0, 0
0, 0
0, 0
0, 0
0, 0
0, 0
0, 0
0, 0
0, 0
0, 0
0, 0
0, 0
0, 0
0, 0
0, 0
0, 0
0, 0
0, 0
0, 0
0, 0
0, 0
0, 0
0, 0
0, 0
0, 0
0, 0
0, 0
0, 0
0, 0
0, 0
0, 0
0, 0
0, 0
0, 0
0, 0
0, 0
0, 0
0, 0
0, 0
0, 0
0, 0
0, 0
0, 0
0, 0
0, 0
0, 0
0, 0
0, 0
0, 0
0, 0
0, 0
0, 0
0, 0
0, 0
0, 0
0, 0
0, 0
0, 0
0, 0
0, 0
0, 0
0, 0
0, 0
0, 0
0, 0
0, 0
0, 0
0, 0
0, 0
0, 0
0, 0
0, 0
0, 0
0, 0
0, 0
0, 0
0, 0
0, 0
0, 0
0, 0
0, 0
0, 0
0, 0
0, 0
0, 0
0, 0
0, 0
0, 0
0, 0
0, 0
0, 0
0, 0
0, 0
0, 0
0, 0
0, 0
0, 0
0, 0
0, 0
0, 0
0, 0
0, 0
0, 0
0, 0
0, 0
0, 0
0, 0
0, 0
0, 0
0, 0
0, 0
0, 0
0, 0
0, 0
0, 0
0, 0
0, 0
0, 0
0, 0
0, 0
0, 0
0, 0
0, 0
0, 0
0, 0
0, 0
0, 0
0, 0
0, 0
0, 0
0, 0
0, 0
0, 0
0, 0
0, 0
0, 0
0, 0
0, 0
0, 0
0, 0
0, 0
0, 0
0, 0
0, 0
0, 0
0, 0
0, 0
0, 0
0, 0
0, 0
0, 0
0, 0
0, 0
0, 0
0, 0
0, 0
0, 0
0, 0
0, 0
0, 0
0, 0
0, 0
0, 0
0, 0
0, 0
0, 0
0, 0
0, 0
0, 0
0, 0
0, 0
0, 0
0, 0
0, 0
0, 0
0, 0
0, 0
0, 0
0, 0
0, 0
0, 0
0, 0
0, 0
0, 0
0, 0
0, 0
0, 0
0, 0
0, 0
0, 0
0, 0
0, 0
0, 0
0, 0
0, 0
0, 0
0, 0
0, 0
0, 0
0, 0
0, 0
0, 0
0, 0
0, 0
0, 0
0, 0
0, 0
0, 0
0, 0
0, 0
0, 0
0, 0
0, 0
0, 0
0, 0
0, 0
0, 0
0, 0
0, 0
0, 0
0, 0
0, 0
0, 0
0, 0
0, 0
0, 0
0, 0
0, 0
0, 0
0, 0
0, 0
0, 0
0, 0
0, 0
0, 0
0, 0
0, 0
0, 0
0, 0
0, 0
0, 0
0, 0
0, 0
0, 0
0, 0
0, 0
0, 0
0, 0
0, 0
0, 0
0, 0
0, 0
0, 0
0, 0
0, 0
0, 0
0, 0
0, 0
0, 0
0, 0
0, 0
0, 0
0, 0
0, 0
0, 0
0, 0
0, 0
0, 0
#ENDOFDATA     end of spectrum data