File: host_upload/06-09-2024/ps_0852/dump3/ps__0852shot_2284.msa
#FORMAT      : EMSA/MAS spectral data file
#VERSION     : TC202v2.0 PIXL
#TITLE       : N/A
#DATE        :       Date in the format DD-MMM-YYYY, for example 07-JUL-2010
#TIME        :             The time of day at which the spectrum was recorded, in 24-hour format
#OWNER       : PIXL Flight Model       (PIXL will use this to indicate which instrument took the data.)
#NPOINTS     : 4096     Number of data points in the spectrum (This can be zero for configuration only files)
#NCOLUMNS    : 2     Number of data columns in the spectrum (This can be zero for configuration only files)
#XUNITS      : eV
#YUNITS      : COUNTS
#DATATYPE    : YY
#XPERCHAN    : 7.862, 7.881   eV per channel (separate by commas if more than one detector)
#OFFSET      : 18.5, -22.4         eV of first channel  (separate by commas if more than one detector
#SIGNALTYPE  : XRF
#YP_TEMP     : 2.492
#LIVETIME    : 8.56822, 8.5382   seconds (separate by commas if more than one detector)
#REALTIME    : 10, 10.0   seconds (separate by commas if more than one detector)
#SPECTRUM    : start of spectrum data
0, 0
0, 0
0, 0
0, 0
0, 0
0, 0
0, 0
0, 0
0, 0
0, 0
0, 0
0, 0
0, 0
0, 0
0, 0
0, 0
0, 0
0, 0
0, 0
0, 0
0, 0
0, 0
0, 0
0, 0
0, 0
0, 0
0, 0
0, 0
0, 0
0, 0
0, 0
0, 0
0, 0
1, 0
2, 1
0, 0
0, 1
2, 0
1, 1
0, 1
0, 1
2, 2
2, 0
1, 0
2, 4
1, 0
5, 1
2, 4
9, 4
14, 5
24, 25
44, 35
62, 64
66, 71
72, 85
64, 71
55, 70
50, 33
31, 30
19, 11
12, 9
6, 4
4, 3
4, 3
3, 3
5, 3
7, 9
5, 9
13, 19
46, 52
95, 87
150, 168
235, 286
315, 363
384, 430
351, 431
354, 380
226, 292
210, 179
107, 114
66, 60
42, 32
20, 12
12, 7
2, 4
5, 5
3, 6
1, 4
2, 4
5, 3
6, 10
9, 10
13, 16
41, 27
72, 71
106, 134
125, 189
199, 213
243, 275
235, 275
228, 236
179, 209
163, 136
89, 95
74, 57
37, 38
31, 48
26, 28
29, 30
39, 37
42, 37
38, 39
41, 49
37, 53
50, 65
52, 51
39, 34
38, 31
12, 43
27, 22
23, 19
19, 28
20, 29
17, 25
30, 26
17, 19
8, 14
15, 12
9, 14
9, 11
12, 10
1, 3
2, 3
3, 6
2, 2
2, 1
1, 5
4, 7
4, 7
3, 11
3, 8
8, 8
6, 13
4, 10
5, 5
6, 9
4, 2
0, 6
7, 2
4, 7
5, 8
9, 14
16, 19
27, 39
55, 59
53, 87
85, 115
78, 104
87, 93
68, 85
58, 64
54, 40
22, 30
17, 8
12, 6
4, 7
3, 7
15, 15
11, 13
9, 15
13, 12
10, 13
22, 10
20, 11
10, 8
19, 13
24, 4
17, 8
24, 1
17, 1
13, 5
10, 7
16, 3
9, 4
10, 8
3, 5
3, 8
8, 11
8, 8
10, 8
10, 19
9, 9
7, 17
7, 14
8, 17
13, 11
16, 11
8, 13
11, 14
18, 9
12, 12
12, 9
1, 8
8, 4
5, 9
10, 6
4, 3
2, 6
4, 4
8, 9
11, 4
11, 11
8, 5
5, 10
10, 8
3, 8
5, 13
11, 10
2, 8
6, 12
3, 9
8, 11
6, 10
10, 13
9, 10
5, 7
15, 9
10, 26
12, 21
12, 17
18, 21
13, 24
15, 16
15, 16
19, 18
9, 8
14, 11
3, 5
8, 13
9, 9
12, 3
26, 13
36, 12
40, 12
91, 19
94, 24
101, 27
101, 33
117, 46
142, 68
126, 66
113, 70
90, 49
71, 53
57, 41
42, 30
33, 23
31, 22
31, 17
12, 10
11, 20
14, 33
48, 45
68, 91
136, 157
208, 335
392, 576
690, 893
989, 1279
1292, 1701
1742, 2035
2028, 2284
2112, 2261
2039, 2187
1814, 1878
1476, 1443
1129, 1125
858, 692
517, 468
296, 250
160, 118
107, 85
54, 47
31, 25
16, 14
24, 19
8, 18
14, 20
15, 19
16, 23
12, 36
26, 43
36, 56
64, 69
74, 121
125, 141
151, 225
223, 275
271, 328
285, 323
292, 350
263, 326
253, 249
207, 215
179, 146
132, 92
99, 62
58, 44
29, 27
26, 34
17, 35
13, 21
7, 33
8, 29
8, 35
4, 30
11, 25
10, 25
2, 20
13, 13
6, 10
10, 15
7, 8
4, 7
3, 1
3, 5
4, 3
5, 2
6, 7
4, 6
7, 7
3, 5
1, 4
0, 6
1, 2
5, 2
4, 3
2, 2
2, 5
4, 4
6, 4
2, 5
5, 6
5, 4
4, 7
9, 3
6, 3
5, 6
6, 6
7, 11
11, 2
10, 8
14, 4
15, 5
14, 3
15, 2
18, 5
12, 5
6, 2
7, 2
10, 1
4, 2
6, 7
5, 7
4, 4
7, 1
7, 5
7, 7
3, 4
4, 6
5, 3
4, 3
2, 7
5, 7
5, 5
5, 9
1, 8
3, 3
4, 9
3, 11
3, 10
1, 8
0, 15
2, 4
1, 6
1, 5
1, 11
3, 5
4, 4
1, 8
2, 7
8, 4
2, 2
1, 6
6, 5
6, 5
6, 1
8, 6
4, 5
8, 4
8, 8
3, 3
4, 5
6, 4
3, 5
6, 5
1, 3
4, 3
5, 4
5, 1
3, 1
3, 1
0, 4
1, 5
9, 6
9, 6
6, 6
5, 5
4, 5
5, 7
14, 4
7, 4
1, 6
8, 3
5, 4
6, 9
4, 3
3, 6
6, 6
7, 12
2, 7
1, 9
2, 12
6, 10
3, 7
1, 3
6, 9
1, 4
0, 7
5, 5
4, 5
2, 6
2, 4
5, 8
3, 3
2, 6
4, 4
1, 3
2, 8
1, 5
2, 4
2, 12
2, 5
1, 3
0, 6
2, 3
1, 6
2, 5
2, 4
4, 6
5, 8
4, 3
1, 1
4, 5
2, 1
2, 3
0, 4
3, 1
0, 0
2, 3
1, 2
8, 2
5, 0
4, 5
1, 2
2, 2
3, 2
2, 1
3, 1
0, 1
1, 4
3, 4
2, 3
2, 5
4, 4
3, 1
1, 3
2, 2
1, 2
2, 0
3, 4
1, 3
3, 2
2, 0
4, 3
4, 1
4, 0
3, 6
4, 2
4, 4
7, 3
3, 8
3, 4
4, 3
2, 2
2, 5
7, 3
2, 1
0, 4
1, 2
3, 4
2, 3
4, 1
3, 2
2, 3
1, 0
3, 5
1, 0
1, 0
1, 2
1, 1
1, 1
1, 2
2, 4
4, 2
1, 3
0, 1
3, 3
2, 2
2, 3
6, 3
6, 2
0, 2
2, 4
1, 1
2, 6
4, 2
3, 5
2, 1
1, 7
3, 8
3, 0
0, 2
3, 4
4, 5
1, 2
0, 1
1, 3
5, 1
2, 4
0, 2
1, 2
1, 1
2, 0
2, 1
0, 0
1, 2
2, 3
0, 1
3, 1
1, 2
0, 2
1, 0
2, 1
0, 2
2, 3
1, 3
1, 5
1, 2
1, 2
1, 3
1, 2
0, 0
3, 1
3, 2
0, 3
2, 2
0, 1
0, 2
1, 2
2, 0
1, 1
0, 2
1, 4
0, 0
0, 2
2, 1
0, 3
0, 0
2, 1
3, 1
0, 0
4, 1
1, 0
1, 2
2, 1
1, 1
0, 1
2, 1
1, 0
3, 1
0, 1
0, 0
0, 1
1, 2
1, 1
1, 1
1, 1
0, 1
1, 0
2, 0
2, 2
2, 0
1, 1
0, 2
1, 0
1, 0
5, 3
2, 0
0, 1
1, 3
0, 0
0, 1
0, 3
2, 4
0, 0
2, 0
2, 0
2, 0
2, 1
1, 0
0, 0
0, 2
2, 1
1, 2
1, 1
0, 1
1, 0
1, 1
2, 1
0, 0
1, 1
1, 1
1, 0
0, 1
0, 1
0, 0
0, 3
0, 0
0, 1
0, 0
0, 1
1, 0
0, 0
1, 0
0, 1
0, 1
1, 1
1, 1
0, 0
1, 0
1, 1
1, 1
1, 0
1, 0
0, 0
0, 3
0, 1
0, 1
2, 0
1, 0
1, 1
0, 0
0, 1
2, 0
0, 0
2, 2
0, 1
1, 0
2, 0
0, 1
0, 0
0, 3
0, 0
0, 1
0, 0
0, 0
0, 2
1, 0
1, 0
1, 1
0, 1
0, 1
0, 0
0, 1
0, 1
0, 1
0, 0
0, 0
0, 0
0, 0
0, 0
1, 0
0, 1
1, 0
1, 0
0, 0
1, 1
0, 0
0, 1
0, 1
0, 0
0, 1
0, 0
1, 0
0, 0
1, 0
1, 1
0, 0
0, 2
0, 0
0, 0
0, 0
0, 0
0, 0
0, 0
0, 0
0, 1
0, 0
1, 0
1, 0
0, 0
0, 0
0, 0
0, 0
2, 0
1, 0
1, 0
0, 0
0, 0
0, 0
0, 0
0, 0
1, 0
0, 1
0, 1
0, 1
0, 1
0, 1
0, 0
0, 0
0, 2
0, 0
0, 0
0, 0
0, 0
1, 0
0, 1
1, 2
0, 0
0, 0
0, 0
0, 0
1, 1
0, 0
0, 0
0, 0
0, 0
0, 0
1, 0
0, 0
0, 1
0, 0
0, 0
0, 1
0, 0
0, 1
0, 1
0, 0
0, 0
0, 0
0, 1
0, 0
0, 0
0, 2
0, 0
0, 0
0, 1
0, 0
0, 0
0, 1
0, 0
0, 0
0, 1
0, 0
0, 0
0, 0
0, 0
0, 0
0, 0
0, 0
0, 0
1, 0
0, 0
1, 1
0, 0
0, 0
0, 0
0, 0
0, 0
1, 1
0, 0
0, 0
0, 0
1, 1
0, 0
0, 0
0, 0
0, 0
1, 0
0, 0
0, 1
0, 0
0, 0
0, 0
0, 0
0, 0
0, 0
0, 0
0, 0
0, 1
0, 0
0, 0
0, 1
0, 0
0, 0
0, 0
0, 0
0, 0
0, 1
0, 0
0, 0
0, 0
0, 0
0, 0
0, 0
0, 0
0, 1
0, 1
0, 0
1, 0
0, 0
1, 0
0, 0
0, 0
0, 0
0, 1
0, 0
0, 0
0, 0
0, 0
0, 0
0, 1
0, 0
1, 0
0, 0
0, 0
0, 1
0, 0
0, 0
0, 0
0, 0
0, 1
0, 1
0, 0
0, 0
0, 0
0, 0
0, 0
0, 0
0, 0
1, 0
0, 1
0, 0
0, 0
0, 0
1, 0
0, 0
0, 0
0, 0
0, 0
1, 0
0, 0
0, 0
0, 0
0, 0
0, 0
0, 0
0, 0
0, 0
0, 0
0, 0
0, 0
0, 0
0, 0
0, 0
0, 1
0, 0
0, 0
0, 0
0, 0
0, 1
0, 0
0, 0
0, 1
0, 0
0, 0
0, 0
0, 0
0, 0
0, 0
0, 0
0, 0
0, 0
0, 0
0, 0
0, 0
0, 0
0, 0
0, 0
0, 0
0, 0
0, 0
0, 0
0, 0
0, 0
0, 0
0, 0
0, 0
0, 0
1, 0
0, 0
0, 0
0, 0
0, 0
0, 0
0, 0
0, 0
0, 0
0, 0
0, 0
0, 1
0, 0
0, 0
0, 0
0, 0
0, 0
0, 0
0, 0
0, 0
0, 0
0, 0
0, 0
0, 0
1, 0
0, 0
0, 0
0, 0
0, 0
0, 0
0, 0
0, 0
0, 0
0, 0
0, 0
0, 0
0, 0
0, 0
0, 0
0, 0
0, 0
0, 0
0, 1
0, 0
0, 0
0, 0
0, 0
0, 0
0, 1
0, 0
0, 0
0, 0
0, 0
0, 0
0, 0
0, 0
0, 0
0, 0
0, 0
0, 0
0, 0
0, 0
0, 0
0, 0
0, 0
0, 0
0, 0
0, 0
0, 0
0, 0
0, 0
0, 0
0, 0
0, 0
0, 0
0, 0
0, 0
0, 0
0, 0
0, 0
0, 0
0, 0
0, 0
0, 1
0, 0
0, 0
0, 0
0, 0
0, 0
0, 0
0, 0
0, 0
0, 0
0, 0
0, 0
0, 0
0, 0
0, 0
0, 0
0, 0
0, 0
0, 0
0, 0
0, 0
0, 0
0, 0
0, 0
0, 0
0, 0
0, 0
0, 0
1, 0
0, 0
0, 0
0, 0
0, 0
0, 0
0, 0
0, 0
0, 0
0, 0
0, 0
0, 0
0, 0
0, 0
0, 0
0, 0
0, 0
0, 0
0, 0
0, 0
0, 0
0, 0
0, 0
0, 0
0, 0
0, 0
0, 0
0, 0
0, 0
0, 0
0, 0
0, 0
0, 0
0, 0
0, 0
0, 0
0, 0
0, 0
0, 0
0, 0
0, 0
0, 0
0, 0
0, 0
0, 0
0, 0
0, 0
0, 0
0, 0
0, 0
0, 0
0, 0
0, 0
0, 0
0, 0
0, 0
0, 0
0, 0
0, 0
0, 0
0, 0
0, 0
0, 0
0, 0
0, 0
0, 0
0, 0
0, 0
0, 0
0, 0
0, 0
0, 0
0, 0
0, 0
0, 0
0, 0
0, 0
0, 0
0, 0
0, 0
0, 0
0, 0
0, 0
0, 0
0, 0
0, 0
0, 0
0, 0
0, 0
0, 0
0, 0
0, 0
0, 0
0, 0
0, 0
0, 0
0, 0
0, 0
0, 0
0, 0
0, 0
0, 0
0, 0
0, 0
0, 0
0, 0
0, 0
0, 0
0, 0
0, 0
0, 0
0, 0
0, 0
0, 0
0, 0
0, 0
0, 0
0, 0
0, 0
0, 0
0, 0
0, 0
0, 0
0, 0
0, 0
0, 0
0, 0
0, 0
0, 0
0, 0
0, 0
0, 0
0, 0
0, 0
0, 0
0, 0
0, 0
0, 0
0, 0
0, 0
0, 0
0, 0
0, 0
0, 0
0, 0
0, 0
0, 0
0, 0
0, 0
0, 0
0, 0
0, 0
0, 0
0, 0
0, 0
0, 0
0, 0
0, 0
0, 0
0, 0
0, 0
0, 0
0, 0
0, 0
0, 0
0, 0
0, 0
0, 0
0, 0
0, 0
0, 0
0, 0
0, 0
0, 0
0, 0
0, 0
0, 0
0, 0
0, 0
0, 0
0, 0
0, 0
0, 0
0, 0
0, 0
0, 0
0, 0
0, 0
0, 0
0, 0
0, 0
0, 0
0, 0
0, 0
0, 0
0, 0
0, 0
0, 0
0, 0
0, 0
0, 0
0, 0
0, 0
0, 0
0, 0
0, 0
0, 0
0, 0
0, 0
0, 0
0, 0
0, 0
0, 0
0, 0
0, 0
0, 0
0, 0
0, 0
0, 0
0, 0
0, 0
0, 0
0, 0
0, 0
0, 0
0, 0
0, 0
0, 0
0, 0
0, 0
0, 0
0, 0
0, 0
0, 0
0, 0
0, 0
0, 0
0, 0
0, 0
0, 0
0, 0
0, 0
0, 0
0, 0
0, 0
0, 0
0, 0
0, 0
0, 0
0, 0
0, 0
0, 0
0, 0
0, 0
0, 0
0, 0
0, 0
0, 0
0, 0
0, 0
0, 0
0, 0
0, 0
0, 0
0, 0
0, 0
0, 0
0, 0
0, 0
0, 0
0, 0
0, 0
0, 0
0, 0
0, 0
0, 0
0, 0
0, 0
0, 0
0, 0
0, 0
0, 0
0, 0
0, 0
0, 0
0, 0
0, 0
0, 0
0, 0
0, 0
0, 0
0, 0
0, 0
0, 0
0, 0
0, 0
0, 0
0, 0
0, 0
0, 0
0, 0
0, 0
0, 0
0, 0
0, 0
0, 0
0, 0
0, 0
0, 0
0, 0
0, 0
0, 0
0, 0
0, 0
0, 0
#ENDOFDATA     end of spectrum data