File: host_upload/06-09-2024/ps_0852/dump3/ps__0852shot_2532.msa
#FORMAT      : EMSA/MAS spectral data file
#VERSION     : TC202v2.0 PIXL
#TITLE       : N/A
#DATE        :       Date in the format DD-MMM-YYYY, for example 07-JUL-2010
#TIME        :             The time of day at which the spectrum was recorded, in 24-hour format
#OWNER       : PIXL Flight Model       (PIXL will use this to indicate which instrument took the data.)
#NPOINTS     : 4096     Number of data points in the spectrum (This can be zero for configuration only files)
#NCOLUMNS    : 2     Number of data columns in the spectrum (This can be zero for configuration only files)
#XUNITS      : eV
#YUNITS      : COUNTS
#DATATYPE    : YY
#XPERCHAN    : 7.862, 7.881   eV per channel (separate by commas if more than one detector)
#OFFSET      : 18.5, -22.4         eV of first channel  (separate by commas if more than one detector
#SIGNALTYPE  : XRF
#YP_TEMP     : 2.171
#LIVETIME    : 8.54546, 8.51402   seconds (separate by commas if more than one detector)
#REALTIME    : 10, 10.0   seconds (separate by commas if more than one detector)
#SPECTRUM    : start of spectrum data
0, 0
0, 0
0, 0
0, 0
0, 0
0, 0
0, 0
0, 0
0, 0
0, 0
0, 0
0, 0
0, 0
0, 0
0, 0
0, 0
0, 0
0, 0
0, 0
0, 0
0, 0
0, 0
0, 0
0, 0
0, 0
0, 0
0, 0
0, 0
0, 0
0, 0
0, 0
0, 0
0, 0
0, 0
0, 0
0, 0
0, 1
0, 0
1, 0
2, 1
4, 0
1, 1
1, 1
2, 0
3, 0
2, 1
5, 0
3, 4
5, 8
9, 11
25, 24
33, 34
43, 64
65, 72
82, 65
74, 71
51, 63
43, 33
30, 24
15, 16
8, 8
1, 5
4, 2
3, 4
3, 6
7, 3
3, 1
12, 10
28, 24
47, 43
109, 110
156, 180
281, 290
353, 366
379, 426
450, 429
412, 411
315, 273
212, 229
123, 112
67, 63
39, 27
16, 20
8, 8
3, 3
4, 3
3, 0
0, 3
3, 3
0, 2
1, 1
3, 3
10, 5
6, 5
13, 15
32, 28
34, 42
66, 58
64, 69
58, 58
52, 54
44, 34
37, 33
35, 14
16, 14
9, 14
9, 11
12, 12
10, 15
24, 14
20, 21
37, 23
46, 30
49, 37
51, 45
53, 46
59, 36
46, 43
31, 24
24, 29
21, 29
23, 29
26, 15
33, 24
21, 20
12, 19
13, 15
14, 10
8, 12
7, 9
4, 4
4, 5
5, 2
2, 6
1, 1
4, 0
2, 3
3, 3
0, 0
1, 1
1, 3
2, 0
4, 2
2, 3
2, 3
2, 1
1, 0
1, 1
2, 1
2, 4
5, 1
2, 8
2, 4
7, 5
5, 4
8, 10
9, 7
12, 9
14, 11
12, 14
4, 9
7, 16
6, 8
2, 15
3, 20
9, 22
3, 13
3, 22
2, 10
3, 9
10, 13
9, 7
28, 4
19, 4
30, 6
45, 9
30, 2
33, 6
31, 3
12, 5
12, 2
6, 3
12, 6
3, 3
6, 5
1, 8
6, 2
6, 8
3, 6
3, 4
10, 5
7, 13
6, 8
13, 7
12, 14
12, 22
13, 19
16, 26
10, 12
14, 12
14, 7
17, 7
15, 6
8, 6
10, 7
8, 6
5, 5
6, 4
5, 6
5, 7
7, 5
6, 4
6, 4
6, 2
6, 7
3, 0
4, 6
11, 4
2, 9
5, 4
3, 6
3, 7
3, 2
7, 6
4, 7
10, 11
5, 11
9, 11
9, 16
16, 18
10, 8
10, 5
8, 13
5, 14
11, 9
11, 11
7, 5
12, 6
6, 10
3, 6
10, 8
9, 10
7, 11
9, 13
7, 28
17, 25
21, 39
33, 26
49, 55
53, 41
70, 60
58, 68
56, 69
44, 54
50, 39
41, 34
26, 28
37, 19
36, 14
27, 20
35, 12
42, 30
52, 58
81, 127
169, 209
259, 358
467, 563
772, 888
1119, 1294
1621, 1766
1917, 2169
2365, 2359
2494, 2550
2438, 2264
2089, 2013
1685, 1517
1320, 1084
873, 735
567, 422
369, 262
173, 138
113, 79
40, 49
22, 34
24, 47
18, 49
15, 61
15, 33
23, 43
17, 26
27, 38
30, 58
48, 69
71, 102
97, 128
143, 185
227, 237
236, 282
333, 343
355, 360
347, 365
333, 328
293, 309
240, 215
209, 163
116, 106
80, 74
48, 39
29, 23
14, 21
12, 15
4, 9
9, 12
14, 11
9, 2
16, 17
11, 16
16, 12
12, 13
12, 14
12, 8
15, 11
11, 9
10, 3
7, 4
6, 0
2, 7
3, 5
4, 9
1, 5
3, 5
6, 9
9, 5
3, 1
2, 6
6, 4
2, 3
5, 3
5, 6
6, 4
10, 6
11, 6
13, 4
10, 3
12, 5
10, 4
9, 4
24, 3
15, 5
24, 4
28, 3
30, 6
21, 5
20, 6
12, 9
8, 3
14, 6
16, 3
5, 6
4, 10
3, 11
2, 5
1, 8
5, 3
6, 8
4, 10
3, 10
4, 8
2, 9
6, 8
7, 6
3, 5
3, 3
3, 5
4, 5
2, 3
5, 0
2, 4
4, 5
5, 6
4, 6
2, 4
3, 1
3, 5
2, 4
3, 3
3, 4
4, 1
3, 4
6, 3
4, 3
4, 1
6, 3
4, 6
4, 3
6, 4
6, 2
2, 3
4, 5
5, 6
6, 2
3, 0
1, 4
5, 4
3, 7
5, 5
4, 0
7, 3
7, 3
5, 1
2, 5
1, 3
3, 4
7, 6
5, 6
3, 8
4, 9
4, 17
5, 11
3, 17
1, 12
2, 15
0, 12
5, 11
4, 17
3, 6
3, 12
3, 5
3, 5
2, 1
5, 6
4, 5
4, 4
4, 0
3, 6
2, 1
3, 3
2, 6
3, 2
1, 0
1, 3
0, 3
3, 3
2, 2
1, 2
4, 1
3, 2
0, 2
3, 3
3, 4
3, 1
0, 5
0, 3
1, 1
2, 3
3, 1
2, 2
4, 3
2, 1
6, 1
1, 4
3, 2
4, 4
1, 2
2, 3
1, 3
4, 1
3, 1
5, 2
1, 2
2, 2
2, 3
6, 2
0, 2
4, 4
0, 2
2, 1
3, 3
0, 3
4, 3
2, 3
0, 6
0, 5
1, 4
2, 5
5, 4
2, 3
2, 8
2, 6
3, 6
1, 3
0, 5
1, 6
3, 2
0, 3
1, 5
0, 4
0, 2
3, 4
3, 3
1, 3
4, 3
0, 2
2, 2
3, 4
2, 3
1, 4
2, 1
1, 1
1, 0
4, 2
4, 1
2, 0
4, 1
2, 1
5, 2
2, 3
2, 0
2, 2
5, 0
3, 1
7, 3
3, 2
4, 2
5, 0
7, 1
11, 1
5, 5
6, 1
2, 0
2, 0
3, 2
1, 3
4, 5
2, 2
4, 0
1, 1
2, 1
4, 2
2, 5
1, 5
3, 5
5, 7
7, 2
1, 4
2, 2
2, 3
5, 2
2, 2
2, 2
2, 1
0, 2
1, 2
0, 1
2, 1
2, 3
0, 3
0, 1
1, 1
1, 1
2, 1
1, 6
2, 1
1, 1
1, 3
0, 1
4, 1
2, 2
3, 2
2, 1
2, 0
2, 1
1, 0
2, 1
1, 1
0, 0
0, 1
0, 0
4, 0
2, 3
0, 1
1, 2
1, 2
0, 0
1, 0
2, 1
0, 1
0, 0
0, 0
2, 1
1, 0
4, 4
2, 2
2, 4
1, 1
1, 3
1, 1
3, 0
0, 2
0, 4
0, 1
2, 1
2, 0
0, 0
1, 2
1, 5
0, 1
1, 2
0, 0
0, 2
1, 1
0, 0
2, 0
0, 1
1, 1
0, 0
0, 3
0, 0
2, 1
1, 0
1, 1
0, 1
2, 0
1, 1
0, 1
2, 0
0, 2
2, 0
2, 0
0, 1
1, 0
0, 1
0, 0
0, 0
1, 1
1, 0
0, 1
1, 0
0, 0
0, 0
0, 1
0, 1
0, 0
0, 1
0, 0
0, 2
2, 2
1, 1
1, 2
0, 0
0, 0
3, 0
0, 0
0, 0
0, 0
0, 1
2, 1
0, 0
2, 2
0, 0
0, 1
0, 1
1, 2
0, 0
0, 1
1, 1
0, 0
0, 2
0, 1
0, 1
0, 0
0, 0
0, 1
0, 0
0, 0
0, 0
0, 0
0, 0
1, 0
0, 1
0, 0
0, 1
0, 0
0, 0
1, 0
1, 0
0, 0
0, 1
0, 0
1, 1
0, 1
1, 0
0, 1
1, 1
0, 0
1, 0
1, 1
1, 0
1, 1
0, 1
0, 1
1, 0
0, 0
1, 0
0, 0
1, 0
0, 0
2, 0
0, 0
0, 0
2, 1
0, 2
0, 1
0, 0
0, 0
0, 0
0, 1
0, 0
0, 0
0, 1
0, 1
1, 0
1, 2
0, 2
0, 1
0, 1
1, 0
0, 0
0, 0
0, 0
0, 1
0, 1
0, 0
0, 0
0, 0
0, 0
1, 0
0, 0
0, 0
0, 1
0, 0
0, 0
1, 0
3, 0
0, 1
1, 0
0, 1
1, 1
0, 0
0, 0
0, 0
1, 1
0, 0
1, 0
0, 1
1, 1
0, 0
0, 0
0, 1
0, 0
0, 0
0, 0
1, 0
0, 0
0, 0
1, 0
0, 0
0, 0
0, 1
1, 0
0, 0
0, 1
1, 1
0, 0
1, 0
0, 0
0, 0
1, 1
0, 1
0, 0
0, 0
0, 0
0, 0
1, 0
0, 0
0, 0
2, 0
0, 0
1, 0
2, 0
1, 1
0, 0
0, 0
0, 0
1, 0
0, 0
0, 0
1, 0
0, 0
0, 1
1, 1
0, 0
1, 1
0, 1
0, 0
0, 0
0, 0
0, 0
0, 0
0, 0
0, 0
0, 0
0, 0
0, 0
0, 0
0, 0
0, 0
0, 0
1, 1
0, 0
0, 0
0, 0
0, 0
1, 0
0, 0
0, 0
0, 1
0, 0
0, 0
0, 0
0, 0
0, 0
0, 0
0, 0
0, 0
0, 0
0, 0
0, 0
0, 0
0, 2
0, 1
0, 1
0, 0
0, 0
0, 0
0, 0
0, 2
0, 0
0, 0
0, 1
0, 0
1, 1
1, 1
0, 0
0, 1
0, 1
0, 0
0, 0
0, 0
0, 0
0, 0
0, 0
1, 0
0, 0
0, 1
0, 0
0, 0
0, 0
0, 1
0, 1
0, 0
1, 0
0, 0
0, 0
1, 0
0, 0
0, 0
0, 0
0, 0
0, 0
0, 0
0, 0
0, 0
0, 0
0, 0
0, 0
0, 0
0, 0
0, 0
0, 0
0, 0
0, 0
0, 0
0, 0
0, 0
0, 0
0, 0
0, 0
0, 0
0, 0
0, 0
0, 0
0, 0
0, 0
0, 0
0, 0
0, 0
0, 0
0, 0
0, 0
0, 0
0, 0
1, 0
0, 0
0, 0
0, 0
0, 0
0, 0
0, 0
0, 0
0, 0
0, 0
0, 0
0, 0
0, 0
0, 1
0, 0
0, 0
0, 0
0, 0
0, 0
0, 0
0, 0
0, 0
0, 0
0, 0
0, 0
0, 0
0, 0
0, 0
0, 0
0, 0
0, 0
0, 0
0, 0
0, 0
0, 0
0, 0
0, 0
0, 0
0, 0
0, 1
0, 0
0, 0
0, 0
0, 0
0, 0
0, 0
0, 0
0, 0
0, 0
0, 0
0, 0
0, 0
0, 1
0, 0
0, 0
0, 0
0, 0
0, 0
0, 0
0, 0
0, 0
0, 0
0, 0
0, 0
0, 0
0, 0
0, 0
1, 0
0, 0
0, 0
0, 0
0, 0
0, 0
0, 0
0, 0
0, 0
0, 0
0, 0
0, 0
0, 0
0, 0
0, 0
0, 0
0, 0
0, 0
0, 0
0, 0
0, 0
0, 0
0, 0
0, 0
0, 0
0, 0
0, 0
0, 0
0, 0
0, 0
0, 0
0, 0
0, 0
0, 0
0, 0
0, 0
0, 0
0, 0
0, 0
0, 0
0, 0
0, 0
0, 0
0, 0
0, 0
0, 0
0, 0
0, 0
0, 0
0, 0
0, 0
0, 1
0, 0
0, 0
0, 0
0, 0
0, 0
0, 0
0, 0
0, 0
0, 0
0, 0
0, 0
0, 0
0, 0
0, 0
0, 0
0, 0
0, 0
0, 0
0, 0
0, 0
0, 0
0, 0
0, 0
0, 0
0, 0
0, 0
0, 0
0, 0
0, 0
0, 0
0, 0
0, 0
0, 0
0, 0
0, 0
0, 0
0, 0
0, 0
0, 0
0, 0
0, 0
0, 0
0, 0
0, 0
0, 0
0, 0
0, 0
0, 0
0, 0
0, 0
0, 0
0, 0
0, 0
0, 0
0, 0
0, 0
0, 0
0, 0
0, 0
0, 0
0, 0
0, 0
0, 0
0, 0
0, 0
0, 0
0, 0
0, 0
0, 0
0, 0
0, 0
0, 0
0, 0
0, 0
0, 0
0, 0
0, 0
0, 0
0, 0
0, 0
0, 0
0, 0
0, 0
0, 0
0, 0
0, 0
0, 0
0, 0
0, 0
0, 0
0, 0
0, 0
0, 0
0, 0
0, 0
0, 0
0, 0
0, 0
0, 0
0, 0
0, 0
0, 0
0, 0
0, 0
0, 0
0, 0
0, 0
0, 0
0, 0
0, 0
0, 0
0, 0
0, 0
0, 0
0, 0
0, 0
0, 0
0, 0
0, 0
0, 0
0, 0
0, 0
0, 0
0, 0
0, 0
0, 0
0, 0
0, 0
0, 0
0, 0
0, 0
0, 0
0, 0
0, 0
0, 0
0, 0
0, 0
0, 0
0, 0
0, 0
0, 0
0, 0
0, 0
0, 0
0, 0
0, 0
0, 0
0, 0
0, 0
0, 0
0, 0
0, 0
0, 0
0, 0
0, 0
0, 0
0, 0
0, 0
0, 0
0, 0
0, 0
0, 0
0, 0
0, 0
0, 0
0, 0
0, 0
0, 0
0, 0
0, 0
0, 0
0, 0
0, 0
0, 0
0, 0
0, 0
0, 0
0, 0
0, 0
0, 0
0, 0
0, 0
0, 0
0, 0
0, 0
0, 0
0, 0
0, 0
0, 0
0, 0
0, 0
0, 0
0, 0
0, 0
0, 0
0, 0
0, 0
0, 0
0, 0
0, 0
0, 0
0, 0
0, 0
0, 0
0, 0
0, 0
0, 0
0, 0
0, 0
0, 0
0, 0
0, 0
0, 0
0, 0
0, 0
0, 0
0, 0
0, 0
0, 0
0, 0
0, 0
0, 0
0, 0
0, 0
0, 0
0, 0
0, 0
0, 0
0, 0
0, 0
0, 0
0, 0
0, 0
0, 0
0, 0
0, 0
0, 0
0, 0
0, 0
0, 0
0, 0
0, 0
0, 0
0, 0
0, 0
0, 0
0, 0
0, 0
0, 0
0, 0
0, 0
0, 0
0, 0
0, 0
0, 0
0, 0
0, 0
0, 0
0, 0
0, 0
0, 0
0, 0
0, 0
0, 0
0, 0
0, 0
0, 0
0, 0
0, 0
0, 0
0, 0
0, 0
0, 0
0, 0
0, 0
0, 0
0, 0
0, 0
0, 0
0, 0
0, 0
0, 0
0, 0
0, 0
0, 0
0, 0
0, 0
0, 0
0, 0
0, 0
0, 0
0, 0
0, 0
0, 0
0, 0
0, 0
0, 0
0, 0
0, 0
0, 0
0, 0
0, 0
0, 0
0, 0
0, 0
0, 0
0, 0
0, 0
0, 0
0, 0
0, 0
0, 0
0, 0
0, 0
0, 0
0, 0
0, 0
0, 0
0, 0
0, 0
0, 0
0, 0
0, 0
0, 0
0, 0
0, 0
0, 0
0, 0
0, 0
0, 0
0, 0
0, 0
0, 0
0, 0
0, 0
#ENDOFDATA     end of spectrum data