File: host_upload/06-09-2024/ps_0852/dump3/ps__0852shot_2327.msa
#FORMAT      : EMSA/MAS spectral data file
#VERSION     : TC202v2.0 PIXL
#TITLE       : N/A
#DATE        :       Date in the format DD-MMM-YYYY, for example 07-JUL-2010
#TIME        :             The time of day at which the spectrum was recorded, in 24-hour format
#OWNER       : PIXL Flight Model       (PIXL will use this to indicate which instrument took the data.)
#NPOINTS     : 4096     Number of data points in the spectrum (This can be zero for configuration only files)
#NCOLUMNS    : 2     Number of data columns in the spectrum (This can be zero for configuration only files)
#XUNITS      : eV
#YUNITS      : COUNTS
#DATATYPE    : YY
#XPERCHAN    : 7.862, 7.881   eV per channel (separate by commas if more than one detector)
#OFFSET      : 18.5, -22.4         eV of first channel  (separate by commas if more than one detector
#SIGNALTYPE  : XRF
#YP_TEMP     : 2.332
#LIVETIME    : 8.57899, 8.5589   seconds (separate by commas if more than one detector)
#REALTIME    : 10, 10.0   seconds (separate by commas if more than one detector)
#SPECTRUM    : start of spectrum data
0, 0
0, 0
0, 0
0, 0
0, 0
0, 0
0, 0
0, 0
0, 0
0, 0
0, 0
0, 0
0, 0
0, 0
0, 0
0, 0
0, 0
0, 0
0, 0
0, 0
0, 0
0, 0
0, 0
0, 0
0, 0
0, 0
0, 0
0, 0
0, 0
0, 0
0, 0
0, 0
0, 0
1, 0
0, 0
0, 1
2, 0
1, 0
4, 4
1, 0
0, 0
1, 1
1, 1
1, 1
0, 2
0, 0
1, 5
6, 1
6, 3
15, 13
21, 23
37, 45
75, 54
85, 75
93, 65
95, 72
67, 55
45, 32
36, 23
11, 9
12, 12
4, 4
2, 2
4, 1
5, 4
3, 4
8, 9
8, 6
24, 24
41, 53
104, 95
184, 173
272, 274
371, 385
451, 410
418, 451
417, 406
306, 295
206, 189
129, 152
71, 62
47, 38
18, 12
5, 7
7, 5
2, 3
1, 1
3, 2
1, 4
1, 1
2, 2
2, 0
3, 1
1, 1
3, 2
1, 2
2, 3
1, 5
6, 1
5, 3
5, 3
4, 2
1, 4
4, 1
2, 3
6, 2
5, 3
4, 2
4, 3
9, 11
13, 17
15, 16
35, 14
27, 21
48, 34
45, 21
49, 25
33, 19
36, 26
27, 15
24, 21
12, 15
18, 20
15, 16
13, 5
15, 18
9, 8
13, 14
9, 12
4, 8
5, 3
1, 5
5, 3
5, 0
2, 1
0, 6
2, 5
4, 3
3, 3
6, 2
4, 1
3, 2
1, 3
0, 1
0, 3
1, 1
3, 2
4, 0
5, 3
13, 4
16, 3
22, 6
25, 6
32, 8
24, 19
36, 13
35, 22
31, 22
28, 10
27, 9
17, 20
13, 7
16, 7
5, 8
2, 7
6, 4
1, 4
2, 5
5, 5
5, 4
4, 7
5, 6
4, 5
9, 4
7, 1
7, 4
6, 1
3, 4
1, 5
3, 5
3, 1
8, 6
4, 6
2, 1
3, 3
4, 3
6, 5
3, 2
0, 6
5, 5
6, 5
12, 9
8, 10
10, 10
8, 12
15, 13
13, 16
17, 14
12, 15
18, 19
17, 13
12, 8
10, 12
7, 6
10, 13
5, 7
7, 8
5, 8
2, 7
7, 2
5, 7
10, 9
8, 7
7, 10
11, 8
5, 8
3, 12
3, 18
8, 13
7, 24
4, 12
5, 17
10, 16
5, 10
2, 11
2, 5
17, 12
13, 7
12, 10
20, 15
25, 12
23, 18
24, 17
20, 18
34, 12
28, 13
18, 24
20, 30
24, 22
21, 30
14, 33
9, 27
10, 34
19, 29
9, 38
23, 40
24, 45
44, 49
42, 54
60, 48
61, 55
76, 61
68, 52
59, 50
53, 45
29, 30
16, 30
26, 12
13, 17
23, 19
22, 12
30, 37
55, 63
73, 99
159, 189
257, 377
474, 618
805, 907
1101, 1327
1599, 1902
2004, 2184
2304, 2391
2444, 2471
2445, 2284
2206, 1937
1645, 1502
1266, 1125
910, 747
586, 434
336, 238
169, 150
93, 81
54, 35
23, 20
23, 14
14, 21
6, 13
13, 13
14, 13
17, 24
22, 27
38, 36
47, 70
78, 81
101, 116
164, 182
193, 221
302, 317
297, 330
387, 392
389, 348
316, 324
281, 252
270, 202
204, 187
157, 117
100, 65
53, 37
43, 12
17, 14
22, 16
13, 9
14, 10
9, 8
12, 16
15, 16
14, 16
20, 10
14, 13
11, 11
8, 12
4, 10
7, 8
13, 8
6, 4
2, 5
5, 3
4, 4
4, 13
6, 2
7, 4
1, 7
4, 3
4, 2
0, 5
5, 1
2, 4
5, 7
1, 6
7, 7
4, 4
6, 6
2, 11
4, 8
6, 10
3, 8
6, 11
8, 8
5, 10
5, 7
7, 9
5, 5
3, 7
2, 6
7, 5
6, 6
2, 3
3, 8
5, 4
11, 5
3, 4
3, 2
4, 4
4, 3
6, 1
8, 2
3, 3
11, 5
6, 5
9, 6
8, 6
7, 2
9, 12
5, 5
3, 1
5, 4
0, 5
3, 3
8, 2
2, 7
3, 6
3, 6
3, 12
5, 6
6, 8
8, 17
2, 14
5, 5
8, 23
2, 17
5, 25
2, 24
4, 18
2, 18
2, 11
0, 14
3, 8
0, 11
6, 5
5, 5
5, 4
5, 3
3, 5
5, 5
4, 5
1, 7
3, 4
4, 3
4, 4
2, 3
3, 6
3, 8
5, 4
1, 6
5, 5
4, 5
2, 7
2, 6
1, 3
0, 2
1, 4
4, 2
2, 4
4, 5
3, 1
2, 3
2, 4
7, 3
1, 2
4, 5
0, 5
2, 2
3, 4
1, 2
1, 5
3, 2
3, 6
6, 1
4, 5
2, 3
3, 2
0, 1
5, 2
8, 7
5, 2
6, 6
5, 2
0, 4
4, 2
5, 1
4, 3
4, 1
3, 5
0, 4
4, 2
3, 3
2, 1
4, 2
2, 3
6, 4
2, 2
4, 5
5, 0
5, 4
4, 3
3, 2
2, 4
3, 6
4, 1
3, 6
5, 6
3, 4
5, 3
6, 4
2, 5
7, 3
3, 4
0, 1
2, 2
1, 2
2, 3
1, 1
2, 3
2, 5
2, 2
5, 7
0, 4
6, 5
3, 5
3, 3
0, 2
1, 4
3, 4
0, 3
1, 5
1, 4
1, 1
2, 3
2, 3
2, 1
3, 1
3, 4
0, 3
2, 2
2, 2
3, 3
3, 3
3, 1
0, 6
0, 1
1, 2
0, 4
0, 2
1, 3
3, 2
1, 2
2, 2
2, 0
2, 1
1, 2
0, 2
1, 2
5, 5
4, 4
0, 0
2, 4
4, 0
2, 5
1, 2
6, 1
2, 3
2, 0
3, 1
4, 0
2, 1
2, 1
4, 3
4, 3
3, 5
3, 4
3, 4
6, 3
5, 5
2, 5
0, 1
4, 7
7, 7
4, 2
3, 2
3, 3
0, 3
1, 2
1, 0
3, 2
1, 2
2, 1
1, 0
1, 0
0, 3
3, 1
1, 0
0, 2
2, 4
0, 1
2, 0
1, 6
2, 1
6, 3
0, 1
3, 3
4, 2
3, 2
2, 1
3, 2
2, 2
2, 3
1, 0
2, 2
1, 1
2, 1
3, 1
6, 2
1, 2
1, 0
0, 2
1, 1
2, 1
0, 0
1, 3
1, 0
0, 0
1, 1
0, 1
1, 1
0, 3
0, 1
1, 0
1, 1
1, 1
1, 1
0, 1
0, 3
5, 1
0, 4
0, 2
2, 1
0, 0
1, 3
2, 2
2, 0
1, 0
0, 2
4, 4
2, 1
1, 0
0, 1
0, 0
0, 0
0, 1
2, 0
0, 0
0, 0
2, 1
2, 0
0, 0
1, 1
0, 1
1, 2
0, 3
1, 2
0, 0
1, 1
2, 1
1, 3
1, 2
1, 0
1, 0
1, 0
0, 1
0, 0
0, 0
0, 0
0, 2
0, 0
0, 2
1, 0
0, 0
0, 0
1, 0
1, 2
0, 1
0, 1
1, 0
1, 0
0, 0
0, 0
1, 0
0, 1
0, 1
0, 1
1, 1
1, 0
0, 2
0, 1
0, 1
1, 0
0, 1
0, 0
0, 2
2, 0
0, 0
0, 0
0, 0
0, 0
0, 0
0, 2
0, 1
0, 1
1, 0
3, 1
1, 0
0, 0
0, 0
0, 1
0, 0
1, 2
1, 0
0, 0
0, 2
0, 0
0, 0
1, 2
0, 0
0, 2
0, 2
0, 1
1, 2
1, 0
1, 0
0, 0
0, 0
1, 0
0, 0
1, 0
0, 0
0, 1
0, 0
0, 0
0, 0
0, 0
0, 1
0, 1
0, 0
0, 0
0, 0
1, 0
0, 2
2, 1
1, 0
0, 0
0, 0
0, 0
1, 0
0, 0
0, 0
0, 0
0, 0
1, 0
0, 0
0, 1
1, 0
0, 0
0, 0
0, 1
1, 0
0, 0
0, 0
1, 0
0, 1
0, 0
0, 0
1, 0
0, 0
0, 0
0, 0
1, 0
0, 0
1, 1
0, 0
2, 1
1, 0
0, 1
0, 0
0, 0
1, 0
0, 0
0, 0
0, 0
0, 0
0, 0
0, 0
0, 0
0, 0
0, 0
1, 0
0, 1
0, 0
0, 0
0, 1
0, 1
0, 0
0, 0
0, 0
0, 0
0, 0
1, 1
0, 0
0, 0
0, 0
0, 0
0, 0
0, 0
0, 0
0, 0
0, 0
1, 0
0, 0
1, 0
0, 0
0, 0
0, 0
0, 0
0, 0
0, 0
0, 0
0, 0
0, 0
2, 0
0, 0
0, 0
0, 0
0, 0
0, 0
0, 0
0, 1
0, 0
0, 0
0, 0
0, 0
0, 2
0, 0
0, 3
0, 0
0, 1
0, 1
1, 0
0, 2
0, 0
0, 0
0, 0
0, 0
0, 0
0, 1
0, 0
0, 0
0, 0
1, 0
1, 0
0, 2
0, 1
0, 0
0, 0
0, 0
0, 1
0, 0
0, 1
0, 0
1, 1
0, 1
1, 0
0, 1
0, 0
0, 0
0, 2
0, 0
1, 0
0, 0
0, 0
0, 0
0, 0
0, 0
0, 0
0, 0
0, 0
1, 1
0, 0
1, 0
1, 0
0, 1
0, 0
0, 1
2, 0
0, 0
0, 0
0, 0
0, 1
0, 0
0, 0
0, 0
0, 0
0, 0
0, 0
0, 0
0, 1
0, 0
0, 1
0, 0
0, 0
0, 1
0, 0
0, 0
0, 0
0, 0
0, 0
0, 1
0, 0
0, 0
0, 0
0, 0
0, 0
0, 0
1, 0
0, 0
0, 0
0, 0
0, 0
0, 1
0, 0
0, 0
0, 0
0, 0
0, 0
0, 1
0, 0
0, 0
0, 0
0, 0
0, 1
0, 0
0, 0
1, 0
0, 0
0, 0
0, 0
0, 0
0, 0
0, 0
0, 0
0, 0
0, 0
0, 0
0, 0
0, 0
0, 0
0, 0
0, 0
0, 0
0, 0
1, 0
0, 1
0, 1
0, 0
0, 0
0, 0
0, 0
0, 0
0, 0
0, 0
0, 0
0, 0
0, 0
0, 0
0, 0
0, 0
0, 0
0, 0
0, 0
0, 0
0, 0
0, 0
0, 0
0, 0
0, 0
0, 0
0, 0
0, 0
0, 0
0, 0
0, 0
0, 0
0, 0
0, 0
0, 0
0, 0
0, 0
0, 0
0, 0
0, 0
0, 0
0, 0
0, 1
0, 0
0, 0
0, 0
0, 0
0, 0
0, 0
0, 0
0, 0
0, 0
0, 0
0, 0
0, 0
0, 0
0, 0
0, 0
0, 0
1, 0
0, 0
0, 0
0, 0
0, 0
0, 0
0, 0
0, 0
0, 0
0, 0
0, 0
0, 0
0, 0
0, 0
0, 0
0, 0
0, 0
0, 0
0, 0
0, 0
0, 0
0, 0
0, 0
0, 0
0, 0
0, 0
1, 0
0, 0
0, 0
0, 0
0, 0
0, 0
0, 0
0, 0
0, 0
0, 0
0, 0
1, 0
0, 0
0, 0
0, 0
0, 0
0, 0
0, 0
0, 0
0, 0
0, 0
0, 0
0, 0
0, 0
0, 0
0, 0
0, 0
0, 0
0, 0
0, 0
0, 0
0, 0
0, 0
0, 0
0, 0
0, 0
0, 0
0, 0
0, 0
0, 0
0, 0
0, 0
0, 0
0, 0
0, 0
0, 0
0, 0
0, 0
0, 0
0, 0
0, 0
0, 0
0, 0
0, 0
0, 0
0, 0
0, 0
0, 0
0, 0
0, 0
0, 0
0, 0
0, 0
0, 0
0, 0
0, 0
0, 0
0, 0
0, 0
0, 0
0, 0
0, 0
0, 0
0, 0
0, 0
0, 0
0, 0
0, 0
0, 0
0, 0
0, 0
0, 0
0, 0
0, 0
0, 0
0, 0
0, 0
0, 0
0, 0
0, 0
0, 0
0, 0
0, 0
0, 0
0, 0
0, 0
0, 0
0, 0
0, 0
0, 0
0, 0
0, 0
0, 0
0, 0
0, 0
0, 0
0, 0
0, 0
0, 0
0, 0
0, 0
0, 0
0, 0
0, 0
0, 0
0, 0
0, 0
0, 0
0, 0
0, 0
0, 0
0, 0
0, 0
0, 0
0, 0
0, 0
0, 0
0, 0
0, 0
0, 0
0, 0
0, 0
0, 0
0, 0
0, 0
0, 0
0, 0
0, 0
0, 0
0, 0
0, 0
0, 0
0, 0
0, 0
0, 0
0, 0
0, 0
0, 0
0, 0
0, 0
0, 0
0, 0
0, 0
0, 0
0, 0
0, 0
0, 0
0, 0
0, 0
0, 0
0, 0
0, 0
0, 0
0, 0
0, 0
0, 0
0, 0
0, 0
0, 0
0, 0
0, 0
0, 0
0, 0
0, 0
0, 0
0, 0
0, 0
0, 0
0, 0
0, 0
0, 0
0, 0
0, 0
0, 0
0, 0
0, 0
0, 0
0, 0
0, 0
0, 0
0, 0
0, 0
0, 0
0, 0
0, 0
0, 0
0, 0
0, 0
0, 0
0, 0
0, 0
0, 0
0, 0
0, 0
0, 0
0, 0
0, 0
0, 0
0, 0
0, 0
0, 0
0, 0
0, 0
0, 0
0, 0
0, 0
0, 0
0, 0
0, 0
0, 0
0, 0
0, 0
0, 0
0, 0
0, 0
0, 0
0, 0
0, 0
0, 0
0, 0
0, 0
0, 0
0, 0
0, 0
0, 0
0, 0
0, 0
0, 0
0, 0
0, 0
0, 0
0, 0
0, 0
0, 0
0, 0
0, 0
0, 0
0, 0
0, 0
0, 0
0, 0
0, 0
0, 0
0, 0
0, 0
0, 0
0, 0
0, 0
0, 0
0, 0
0, 0
0, 0
0, 0
0, 0
0, 0
0, 0
0, 0
0, 0
0, 0
0, 0
0, 0
0, 0
0, 0
0, 0
0, 0
0, 0
0, 0
0, 0
0, 0
0, 0
0, 0
0, 0
0, 0
0, 0
0, 0
0, 0
0, 0
0, 0
0, 0
0, 0
0, 0
0, 0
0, 0
0, 0
0, 0
0, 0
0, 0
0, 0
0, 0
0, 0
0, 0
0, 0
0, 0
0, 0
0, 0
0, 0
0, 0
0, 0
0, 0
0, 0
0, 0
0, 0
0, 0
0, 0
0, 0
0, 0
0, 0
0, 0
0, 0
0, 0
0, 0
0, 0
0, 0
0, 0
0, 0
0, 0
0, 0
0, 0
0, 0
0, 0
0, 0
0, 0
0, 0
0, 0
0, 0
0, 0
0, 0
0, 0
0, 0
0, 0
0, 0
0, 0
0, 0
0, 0
0, 0
0, 0
0, 0
0, 0
0, 0
0, 0
0, 0
0, 0
0, 0
#ENDOFDATA     end of spectrum data