File: host_upload/06-09-2024/ps_0852/dump3/ps__0852shot_2412.msa
#FORMAT      : EMSA/MAS spectral data file
#VERSION     : TC202v2.0 PIXL
#TITLE       : N/A
#DATE        :       Date in the format DD-MMM-YYYY, for example 07-JUL-2010
#TIME        :             The time of day at which the spectrum was recorded, in 24-hour format
#OWNER       : PIXL Flight Model       (PIXL will use this to indicate which instrument took the data.)
#NPOINTS     : 4096     Number of data points in the spectrum (This can be zero for configuration only files)
#NCOLUMNS    : 2     Number of data columns in the spectrum (This can be zero for configuration only files)
#XUNITS      : eV
#YUNITS      : COUNTS
#DATATYPE    : YY
#XPERCHAN    : 7.862, 7.881   eV per channel (separate by commas if more than one detector)
#OFFSET      : 18.5, -22.4         eV of first channel  (separate by commas if more than one detector
#SIGNALTYPE  : XRF
#YP_TEMP     : 2.46
#LIVETIME    : 8.55755, 8.54122   seconds (separate by commas if more than one detector)
#REALTIME    : 10, 10.0   seconds (separate by commas if more than one detector)
#SPECTRUM    : start of spectrum data
0, 0
0, 0
0, 0
0, 0
0, 0
0, 0
0, 0
0, 0
0, 0
0, 0
0, 0
0, 0
0, 0
0, 0
0, 0
0, 0
0, 0
0, 0
0, 0
0, 0
0, 0
0, 0
0, 0
0, 0
0, 0
0, 0
0, 0
0, 0
0, 0
0, 0
1, 0
0, 0
0, 0
0, 0
0, 1
0, 0
0, 0
2, 0
0, 0
1, 4
0, 0
1, 1
0, 2
1, 2
2, 4
1, 1
0, 2
3, 4
5, 9
11, 8
30, 21
44, 24
61, 45
76, 50
84, 62
93, 52
66, 42
44, 30
38, 20
21, 13
9, 11
2, 6
5, 5
4, 5
7, 7
8, 3
6, 5
5, 6
17, 20
41, 49
110, 76
170, 152
267, 212
394, 336
435, 359
467, 319
403, 349
330, 239
237, 177
136, 95
82, 52
36, 27
20, 14
8, 7
1, 6
6, 2
1, 1
2, 1
2, 1
3, 3
0, 2
2, 4
2, 4
2, 0
4, 1
10, 2
7, 1
11, 4
17, 9
5, 6
13, 5
9, 9
7, 5
7, 2
4, 5
10, 3
9, 4
17, 6
17, 19
30, 24
44, 37
62, 46
61, 57
71, 65
87, 60
66, 50
51, 59
58, 48
54, 33
31, 47
49, 37
26, 36
30, 28
29, 26
21, 21
13, 14
19, 10
15, 18
12, 12
10, 7
8, 5
3, 5
6, 5
2, 3
1, 3
1, 2
6, 1
1, 5
2, 2
1, 3
3, 5
2, 5
3, 1
2, 5
1, 2
3, 3
1, 1
0, 1
0, 2
6, 1
4, 3
3, 4
6, 8
6, 9
9, 16
14, 14
13, 20
22, 21
20, 25
14, 26
12, 25
15, 14
8, 14
9, 15
3, 6
6, 6
6, 2
2, 5
5, 1
3, 0
9, 7
2, 5
6, 2
9, 5
7, 11
2, 12
4, 12
5, 16
5, 9
5, 10
4, 8
1, 5
3, 7
7, 1
3, 3
3, 4
1, 2
7, 3
7, 7
8, 5
7, 10
5, 17
12, 15
10, 10
19, 12
11, 11
17, 10
13, 16
13, 10
14, 14
15, 14
14, 12
10, 9
8, 6
8, 11
5, 8
4, 3
10, 13
5, 12
9, 5
6, 18
10, 17
12, 11
9, 19
8, 23
6, 23
13, 35
9, 32
14, 39
10, 46
6, 19
17, 24
15, 22
12, 16
17, 16
24, 10
25, 16
27, 14
36, 28
36, 24
46, 27
51, 17
38, 23
41, 21
36, 13
30, 11
25, 10
23, 9
19, 11
15, 3
15, 12
10, 5
13, 15
18, 6
22, 18
27, 14
27, 28
39, 45
52, 37
55, 34
79, 62
76, 53
64, 65
67, 45
55, 24
40, 30
33, 26
19, 17
24, 8
20, 12
21, 23
29, 28
39, 34
90, 94
165, 191
291, 320
519, 521
866, 809
1291, 1205
1712, 1549
2198, 1952
2504, 2139
2675, 2139
2503, 2075
2357, 1709
1946, 1332
1455, 965
997, 673
648, 418
404, 251
199, 141
126, 67
73, 29
30, 20
22, 15
20, 17
13, 11
17, 11
17, 18
30, 17
30, 38
39, 34
41, 52
72, 75
107, 101
168, 169
217, 203
261, 241
354, 320
361, 357
367, 314
354, 298
366, 257
262, 203
195, 151
133, 101
105, 88
62, 45
39, 35
31, 18
19, 12
11, 7
16, 10
15, 8
18, 11
15, 17
21, 17
23, 20
16, 21
18, 17
20, 9
13, 12
12, 11
11, 10
5, 6
6, 5
3, 3
7, 3
7, 3
5, 3
11, 5
4, 3
6, 5
8, 2
7, 2
6, 3
11, 2
6, 1
7, 2
5, 6
8, 7
11, 3
8, 2
6, 4
6, 3
8, 3
5, 6
8, 5
7, 8
9, 8
3, 5
6, 8
2, 5
4, 6
8, 2
4, 4
8, 6
6, 4
3, 4
11, 4
11, 2
13, 5
11, 1
6, 3
5, 3
6, 8
6, 2
5, 4
4, 2
7, 4
4, 7
2, 5
4, 4
5, 3
7, 3
5, 4
11, 4
9, 2
3, 7
9, 1
4, 4
7, 4
9, 7
4, 9
8, 5
4, 6
9, 4
10, 2
9, 2
8, 5
10, 4
1, 5
12, 5
7, 4
11, 5
4, 3
13, 3
3, 1
10, 3
7, 8
8, 6
3, 2
4, 2
4, 5
4, 4
3, 3
1, 3
9, 10
5, 9
2, 2
5, 7
5, 4
5, 3
6, 2
8, 3
5, 6
3, 4
9, 2
4, 4
4, 6
6, 3
3, 2
2, 3
5, 0
3, 4
2, 3
2, 4
5, 6
1, 3
5, 3
1, 7
4, 6
5, 6
5, 4
3, 6
5, 11
4, 5
4, 9
0, 2
4, 8
3, 5
4, 5
4, 3
2, 8
4, 5
4, 3
5, 1
1, 2
1, 4
4, 1
2, 1
3, 3
4, 0
5, 2
3, 5
4, 2
3, 2
7, 2
6, 1
4, 4
7, 1
7, 1
9, 1
5, 3
4, 2
3, 0
8, 2
3, 3
2, 5
2, 2
4, 3
1, 0
2, 2
1, 2
0, 1
4, 4
6, 2
1, 1
2, 1
2, 5
2, 2
0, 1
6, 2
3, 1
2, 1
2, 1
3, 0
3, 2
1, 0
3, 2
2, 1
1, 1
2, 1
5, 1
6, 3
4, 3
4, 2
5, 2
1, 1
1, 0
5, 2
2, 0
3, 1
2, 3
0, 6
1, 1
1, 1
1, 0
3, 1
2, 3
2, 0
5, 2
0, 0
1, 0
1, 1
1, 4
1, 2
1, 1
2, 0
0, 3
3, 2
3, 3
4, 1
2, 1
5, 1
2, 3
2, 1
4, 0
4, 3
0, 2
1, 4
4, 2
2, 4
5, 3
1, 0
4, 2
12, 1
6, 2
4, 7
4, 3
6, 4
2, 7
8, 3
7, 3
2, 6
2, 1
3, 1
6, 0
1, 1
2, 1
4, 0
4, 2
3, 1
1, 2
2, 0
4, 1
0, 1
1, 0
3, 2
2, 1
0, 1
1, 1
1, 1
0, 1
6, 2
2, 2
1, 3
2, 3
1, 4
0, 2
2, 0
1, 3
1, 1
1, 1
1, 0
1, 1
2, 0
2, 2
2, 2
1, 1
1, 0
4, 1
3, 3
0, 2
2, 2
2, 2
1, 3
0, 1
0, 2
0, 1
1, 1
1, 0
1, 0
1, 2
0, 0
1, 0
1, 0
0, 0
2, 1
1, 1
2, 2
1, 2
2, 2
3, 1
0, 2
1, 2
0, 0
1, 1
1, 1
1, 1
2, 0
1, 1
3, 1
0, 1
0, 0
0, 0
1, 1
1, 1
2, 0
0, 1
2, 2
0, 2
4, 1
2, 1
1, 0
0, 1
0, 0
1, 1
2, 1
0, 0
1, 2
1, 1
2, 0
0, 0
3, 1
0, 0
0, 0
1, 1
0, 5
1, 0
0, 0
1, 2
0, 1
1, 3
0, 1
1, 1
1, 0
2, 0
1, 1
0, 0
0, 0
0, 2
1, 0
1, 1
0, 0
0, 0
1, 0
2, 0
0, 0
0, 0
0, 0
2, 1
0, 1
2, 2
0, 1
0, 0
0, 0
1, 0
0, 1
0, 1
1, 0
0, 0
1, 1
1, 0
1, 2
0, 0
0, 0
0, 1
0, 0
0, 1
1, 3
0, 0
1, 0
0, 1
0, 0
1, 0
1, 1
0, 1
0, 1
0, 2
0, 1
0, 0
1, 0
1, 0
1, 0
0, 1
0, 0
0, 1
1, 0
1, 1
0, 0
1, 0
0, 0
0, 0
0, 1
0, 0
0, 0
1, 0
0, 0
0, 0
0, 0
0, 0
1, 0
0, 0
0, 0
0, 2
0, 0
0, 2
3, 0
0, 0
0, 0
0, 0
0, 0
0, 1
0, 1
1, 0
0, 0
0, 0
0, 0
1, 1
0, 1
0, 0
0, 0
0, 0
1, 0
0, 0
0, 0
0, 3
1, 0
0, 1
0, 0
0, 0
0, 0
0, 1
0, 0
0, 1
0, 0
0, 1
0, 1
0, 0
1, 0
0, 1
0, 1
0, 0
1, 0
0, 1
0, 0
0, 0
0, 0
0, 0
0, 2
0, 0
3, 0
0, 0
0, 0
0, 1
0, 1
0, 0
1, 0
1, 0
1, 0
0, 0
0, 1
1, 1
0, 0
0, 0
0, 0
0, 0
0, 0
0, 1
2, 0
0, 0
0, 0
0, 0
0, 0
0, 1
0, 0
2, 1
0, 0
0, 0
0, 0
0, 1
0, 0
0, 2
0, 0
0, 0
0, 0
0, 0
0, 0
0, 0
0, 0
0, 0
1, 2
0, 0
0, 0
0, 0
0, 2
0, 0
0, 0
0, 1
0, 1
0, 1
1, 0
1, 0
0, 0
0, 0
0, 0
0, 1
1, 1
0, 1
0, 0
0, 0
0, 0
0, 0
0, 0
0, 0
0, 0
0, 1
1, 0
0, 0
0, 0
0, 0
0, 0
0, 0
0, 0
0, 0
0, 0
0, 0
1, 0
0, 0
0, 0
0, 0
0, 0
0, 0
0, 0
0, 1
0, 0
0, 0
1, 0
0, 0
0, 1
0, 0
1, 0
0, 0
1, 0
0, 1
1, 0
0, 0
0, 1
0, 0
0, 1
0, 0
0, 1
0, 0
2, 0
0, 1
0, 0
0, 0
0, 0
0, 1
0, 0
0, 0
1, 0
0, 0
0, 0
0, 0
0, 0
1, 0
0, 0
0, 0
0, 0
0, 0
0, 0
0, 0
0, 0
0, 0
0, 0
0, 0
0, 0
0, 0
0, 0
0, 0
1, 0
0, 0
0, 0
0, 0
0, 0
0, 0
0, 0
0, 0
0, 0
1, 0
1, 0
1, 0
0, 0
0, 0
1, 0
0, 1
0, 0
0, 0
0, 0
0, 0
0, 0
0, 0
0, 0
0, 0
0, 0
0, 0
0, 1
1, 0
0, 0
0, 0
0, 0
0, 0
0, 0
0, 0
0, 0
0, 0
0, 0
0, 0
0, 0
0, 0
0, 0
0, 0
0, 0
0, 0
0, 0
0, 0
0, 0
0, 0
0, 0
0, 0
0, 0
0, 0
0, 0
0, 0
0, 0
0, 0
0, 0
0, 0
0, 0
0, 0
0, 0
0, 0
0, 0
0, 0
0, 0
0, 0
0, 0
0, 0
0, 0
0, 0
0, 0
0, 0
0, 0
0, 0
0, 0
0, 0
0, 0
0, 1
0, 0
0, 0
0, 0
0, 0
0, 0
0, 0
0, 0
0, 0
0, 0
0, 0
0, 0
0, 0
0, 0
0, 0
0, 0
0, 0
1, 0
0, 1
0, 0
0, 0
0, 0
0, 0
0, 0
0, 0
0, 0
0, 0
0, 0
0, 0
0, 0
0, 0
0, 0
0, 0
0, 0
0, 0
0, 0
0, 0
0, 0
0, 0
0, 0
0, 0
0, 0
0, 0
0, 0
0, 0
0, 0
0, 0
0, 0
0, 0
0, 0
0, 0
0, 0
0, 0
0, 0
0, 0
0, 0
0, 0
0, 0
0, 0
0, 0
0, 0
0, 0
1, 0
0, 0
0, 0
0, 0
0, 0
0, 0
0, 0
0, 0
0, 0
0, 0
0, 0
0, 0
0, 0
0, 0
0, 0
0, 0
0, 0
0, 0
0, 0
0, 0
0, 0
0, 0
0, 0
0, 0
0, 0
0, 0
0, 0
0, 0
0, 0
0, 0
0, 0
0, 0
0, 0
0, 0
0, 0
0, 0
0, 0
0, 0
0, 0
0, 0
0, 0
0, 0
0, 0
0, 0
0, 0
0, 0
0, 1
0, 0
0, 0
0, 0
0, 0
0, 0
0, 0
0, 0
0, 0
1, 0
0, 0
0, 0
0, 0
0, 0
0, 0
0, 0
0, 0
0, 0
0, 0
0, 0
0, 0
0, 0
0, 0
0, 0
0, 0
0, 0
0, 0
0, 0
0, 0
0, 0
0, 0
0, 0
0, 0
0, 0
0, 0
0, 0
0, 0
0, 0
0, 0
0, 0
0, 0
0, 0
0, 0
0, 0
0, 0
0, 0
0, 0
0, 0
0, 0
0, 0
0, 0
0, 0
0, 0
0, 0
0, 0
0, 0
0, 0
0, 0
0, 0
0, 0
0, 0
0, 0
0, 0
0, 0
0, 0
0, 0
0, 0
0, 0
0, 0
0, 0
0, 0
0, 0
0, 0
0, 0
0, 0
0, 0
0, 0
0, 0
0, 0
0, 0
0, 0
0, 0
0, 0
0, 0
0, 0
0, 0
0, 0
0, 0
0, 0
0, 0
0, 0
0, 0
0, 0
0, 0
0, 0
0, 0
0, 0
0, 0
0, 0
0, 0
0, 0
0, 0
0, 0
0, 0
0, 0
0, 0
0, 0
0, 0
0, 0
0, 0
0, 0
0, 0
0, 0
0, 0
0, 0
0, 0
0, 0
0, 0
0, 0
0, 0
0, 0
0, 0
0, 0
0, 0
0, 0
0, 0
0, 0
0, 0
0, 0
0, 0
0, 0
0, 0
0, 0
0, 0
0, 0
0, 0
0, 0
0, 0
0, 0
0, 0
0, 0
0, 0
0, 0
0, 0
0, 0
0, 0
0, 0
0, 0
0, 0
0, 0
0, 0
0, 0
0, 0
0, 0
0, 0
0, 0
0, 0
0, 0
0, 0
0, 0
0, 0
0, 0
0, 0
0, 0
0, 0
0, 0
0, 0
0, 0
0, 0
0, 0
0, 0
0, 0
0, 0
0, 0
0, 0
0, 0
0, 0
0, 0
0, 0
0, 0
0, 0
0, 0
0, 0
0, 0
0, 0
0, 0
0, 0
0, 0
0, 0
0, 0
0, 0
0, 0
0, 0
0, 0
0, 0
0, 0
0, 0
0, 0
0, 0
0, 0
0, 0
0, 0
0, 0
0, 0
0, 0
0, 0
0, 0
0, 0
0, 0
0, 0
0, 0
0, 0
0, 0
0, 0
0, 0
0, 0
0, 0
0, 0
0, 0
0, 0
0, 0
0, 0
0, 0
0, 0
0, 0
0, 0
0, 0
0, 0
0, 0
0, 0
0, 0
0, 0
0, 0
0, 0
0, 0
0, 0
0, 0
0, 0
0, 0
0, 0
0, 0
0, 0
0, 0
0, 0
0, 0
0, 0
0, 0
0, 0
0, 0
0, 0
0, 0
0, 0
0, 0
0, 0
0, 0
0, 0
0, 0
0, 0
0, 0
0, 0
0, 0
0, 0
0, 0
0, 0
0, 0
0, 0
0, 0
0, 0
0, 0
0, 0
0, 0
0, 0
0, 0
0, 0
0, 0
0, 0
0, 0
0, 0
0, 0
0, 0
0, 0
0, 0
0, 0
0, 0
0, 0
0, 0
0, 0
0, 0
0, 0
#ENDOFDATA     end of spectrum data