File: host_upload/06-09-2024/ps_0852/dump3/ps__0852shot_2359.msa
#FORMAT      : EMSA/MAS spectral data file
#VERSION     : TC202v2.0 PIXL
#TITLE       : N/A
#DATE        :       Date in the format DD-MMM-YYYY, for example 07-JUL-2010
#TIME        :             The time of day at which the spectrum was recorded, in 24-hour format
#OWNER       : PIXL Flight Model       (PIXL will use this to indicate which instrument took the data.)
#NPOINTS     : 4096     Number of data points in the spectrum (This can be zero for configuration only files)
#NCOLUMNS    : 2     Number of data columns in the spectrum (This can be zero for configuration only files)
#XUNITS      : eV
#YUNITS      : COUNTS
#DATATYPE    : YY
#XPERCHAN    : 7.862, 7.881   eV per channel (separate by commas if more than one detector)
#OFFSET      : 18.5, -22.4         eV of first channel  (separate by commas if more than one detector
#SIGNALTYPE  : XRF
#YP_TEMP     : 2.3
#LIVETIME    : 8.55549, 8.53388   seconds (separate by commas if more than one detector)
#REALTIME    : 10, 10.0   seconds (separate by commas if more than one detector)
#SPECTRUM    : start of spectrum data
0, 0
0, 0
0, 0
0, 0
0, 0
0, 0
0, 0
0, 0
0, 0
0, 0
0, 0
0, 0
0, 0
0, 0
0, 0
0, 0
0, 0
0, 0
0, 0
0, 0
0, 0
0, 0
0, 0
0, 0
0, 0
0, 0
0, 0
0, 0
0, 0
0, 0
0, 0
1, 0
0, 0
0, 0
0, 0
1, 1
1, 0
0, 1
1, 1
2, 1
0, 0
1, 0
1, 1
2, 0
0, 2
2, 1
2, 1
3, 1
9, 4
15, 11
22, 27
33, 40
61, 67
78, 69
58, 90
87, 87
63, 64
45, 49
27, 16
16, 11
8, 7
5, 4
5, 8
2, 3
1, 10
2, 3
3, 3
10, 8
21, 20
34, 49
106, 108
149, 181
256, 265
348, 385
427, 411
403, 417
347, 367
310, 282
191, 181
127, 144
86, 61
30, 39
16, 18
11, 5
6, 4
2, 2
2, 5
1, 3
1, 3
1, 3
0, 3
1, 1
1, 3
0, 1
3, 5
5, 2
4, 4
8, 4
8, 9
9, 7
5, 6
10, 7
3, 7
4, 4
2, 5
4, 10
5, 2
12, 7
6, 12
15, 15
27, 26
25, 27
31, 42
47, 56
38, 73
49, 62
46, 57
41, 62
40, 51
23, 41
18, 48
20, 31
22, 24
22, 25
12, 31
10, 15
10, 13
9, 10
8, 6
10, 5
2, 6
4, 6
4, 7
1, 4
5, 4
9, 5
8, 4
14, 6
12, 5
12, 4
5, 6
3, 4
7, 3
3, 2
2, 4
3, 5
3, 6
4, 3
3, 3
6, 0
6, 4
3, 5
5, 6
8, 9
13, 7
10, 15
19, 19
16, 15
24, 13
15, 17
15, 17
11, 10
9, 13
2, 13
7, 5
6, 14
4, 11
5, 15
8, 17
7, 18
13, 17
3, 10
6, 15
5, 12
6, 13
10, 5
20, 9
22, 9
22, 10
30, 12
30, 22
31, 23
29, 19
23, 13
14, 15
11, 18
7, 11
2, 6
8, 8
13, 9
9, 13
9, 17
14, 13
14, 12
7, 21
10, 20
12, 18
22, 9
6, 22
16, 29
29, 23
40, 27
61, 30
79, 33
83, 36
107, 42
109, 46
100, 33
118, 39
77, 30
50, 26
48, 26
19, 11
30, 9
13, 13
10, 8
7, 9
11, 3
9, 5
7, 4
7, 6
11, 5
12, 13
14, 13
7, 8
11, 10
22, 13
14, 12
19, 22
26, 12
23, 13
22, 21
13, 8
13, 13
17, 9
13, 5
16, 17
6, 16
9, 12
10, 10
7, 11
12, 8
4, 12
12, 16
16, 18
25, 15
26, 26
29, 52
61, 53
64, 62
56, 60
58, 62
68, 74
58, 51
57, 46
39, 50
32, 36
18, 36
21, 35
15, 29
22, 35
24, 40
48, 61
88, 113
143, 223
261, 329
474, 642
806, 986
1122, 1420
1500, 1898
1868, 2316
2222, 2454
2303, 2568
2264, 2404
1978, 2032
1626, 1643
1284, 1094
907, 699
593, 477
353, 293
210, 134
100, 76
46, 39
33, 29
17, 9
18, 14
15, 28
16, 7
17, 14
22, 16
26, 20
34, 42
43, 60
71, 93
101, 132
158, 176
200, 212
233, 311
277, 357
315, 370
305, 376
309, 324
279, 296
238, 235
204, 156
145, 120
75, 70
51, 47
42, 24
21, 19
9, 10
8, 9
9, 13
13, 11
12, 6
12, 13
20, 14
16, 13
8, 11
4, 13
10, 13
16, 11
8, 8
7, 6
12, 9
6, 11
2, 7
5, 4
4, 9
2, 5
7, 9
1, 8
4, 10
5, 13
12, 13
7, 15
13, 14
10, 10
14, 10
14, 16
18, 12
25, 8
26, 7
30, 13
32, 10
24, 8
28, 8
12, 7
11, 11
15, 6
12, 11
9, 6
11, 9
6, 4
7, 4
2, 11
6, 4
9, 5
5, 3
3, 6
7, 1
3, 3
4, 6
5, 5
4, 4
4, 7
2, 2
4, 6
4, 2
4, 2
4, 3
7, 2
6, 1
5, 4
4, 8
3, 5
5, 3
2, 3
3, 7
10, 6
3, 2
6, 4
7, 2
3, 5
5, 7
8, 4
3, 7
4, 5
4, 4
5, 2
8, 3
2, 3
5, 3
6, 6
3, 9
6, 1
3, 6
5, 5
3, 6
4, 6
2, 8
5, 1
2, 2
1, 5
7, 5
5, 2
4, 6
2, 5
11, 4
7, 5
9, 1
5, 7
5, 2
11, 5
6, 1
5, 4
9, 3
7, 3
4, 5
6, 5
1, 3
7, 0
3, 3
2, 3
3, 10
5, 4
4, 5
9, 3
6, 5
2, 4
3, 7
3, 2
2, 4
3, 7
4, 5
0, 4
4, 3
7, 4
6, 2
7, 12
6, 6
8, 11
10, 6
11, 4
10, 4
8, 5
11, 5
9, 7
4, 4
4, 4
7, 5
3, 2
2, 1
1, 1
3, 4
3, 2
2, 2
4, 4
5, 4
1, 1
4, 2
2, 7
1, 3
2, 3
3, 7
1, 0
1, 2
3, 2
2, 1
1, 3
3, 3
2, 3
2, 2
3, 5
4, 2
2, 2
2, 0
3, 2
3, 1
4, 3
2, 2
2, 2
1, 2
3, 0
2, 0
3, 5
2, 6
1, 1
0, 1
2, 4
3, 4
5, 1
2, 3
1, 0
5, 3
2, 2
1, 1
1, 1
2, 1
1, 0
1, 3
2, 2
0, 3
3, 3
3, 4
2, 1
3, 7
1, 2
2, 3
1, 3
1, 0
0, 1
4, 1
6, 2
4, 0
1, 1
1, 3
0, 1
3, 2
1, 4
3, 4
0, 1
2, 2
3, 4
0, 4
1, 0
2, 1
2, 4
2, 4
1, 2
0, 3
0, 1
2, 2
1, 0
2, 2
3, 3
1, 2
5, 5
1, 5
2, 3
5, 3
3, 2
3, 3
3, 5
3, 2
4, 2
7, 3
1, 1
0, 5
2, 2
3, 5
2, 0
1, 2
3, 2
2, 0
2, 2
0, 3
0, 0
0, 0
0, 4
1, 2
3, 2
0, 0
0, 2
2, 2
2, 5
0, 2
1, 2
2, 2
2, 1
2, 4
2, 1
1, 0
1, 0
0, 2
1, 1
3, 1
1, 2
3, 2
3, 0
0, 2
3, 1
1, 1
1, 3
0, 1
1, 1
0, 2
0, 1
1, 1
0, 1
0, 3
0, 1
1, 0
0, 1
1, 0
2, 1
2, 2
0, 2
0, 3
1, 0
1, 2
1, 1
1, 2
1, 1
2, 0
2, 2
2, 0
0, 0
0, 0
0, 0
3, 0
1, 1
1, 0
2, 3
1, 0
1, 2
0, 0
0, 2
2, 1
2, 1
5, 0
2, 0
2, 0
0, 1
0, 0
0, 1
1, 0
1, 1
0, 1
0, 1
5, 1
3, 1
1, 1
0, 0
1, 0
0, 0
0, 2
0, 1
0, 0
0, 0
2, 2
0, 0
0, 0
1, 0
1, 0
0, 0
0, 0
1, 1
0, 1
0, 0
0, 0
0, 0
1, 0
0, 0
0, 0
0, 1
0, 0
0, 1
0, 1
0, 1
0, 0
0, 0
1, 0
1, 1
0, 1
1, 0
0, 0
0, 1
1, 0
1, 1
0, 1
0, 3
1, 2
0, 0
2, 1
0, 1
0, 0
0, 0
2, 1
0, 0
0, 0
1, 1
1, 0
1, 2
1, 0
0, 0
0, 0
0, 0
0, 1
1, 1
1, 0
0, 2
0, 0
3, 0
0, 1
0, 0
2, 0
1, 1
1, 0
1, 0
0, 1
0, 0
0, 0
1, 2
0, 0
0, 0
0, 0
0, 0
0, 1
0, 2
1, 1
0, 1
0, 0
1, 1
0, 1
0, 1
2, 0
0, 1
2, 0
0, 0
0, 0
0, 0
0, 0
2, 1
0, 0
0, 1
0, 0
1, 1
0, 1
0, 2
1, 0
1, 0
1, 0
0, 1
0, 0
1, 1
0, 1
0, 0
0, 2
1, 0
1, 0
0, 2
0, 0
0, 0
0, 0
0, 0
0, 1
0, 0
1, 2
0, 0
1, 0
0, 1
0, 0
2, 0
0, 0
0, 0
0, 0
0, 0
0, 0
0, 1
0, 0
0, 0
0, 0
0, 0
1, 0
0, 0
0, 0
0, 0
0, 0
0, 0
0, 0
0, 0
0, 1
0, 0
1, 0
0, 0
0, 1
0, 0
1, 0
0, 0
0, 0
2, 1
1, 1
1, 0
0, 1
1, 1
0, 0
0, 0
0, 0
0, 0
0, 0
0, 0
0, 0
0, 0
1, 0
0, 0
0, 0
0, 0
1, 0
0, 0
0, 0
0, 0
0, 0
1, 0
0, 1
0, 0
0, 0
1, 0
0, 0
1, 1
1, 1
1, 1
0, 1
1, 0
0, 0
0, 0
1, 0
2, 0
0, 0
0, 1
0, 0
1, 0
0, 1
1, 0
0, 0
0, 0
0, 0
0, 0
0, 1
0, 0
1, 0
0, 0
0, 0
0, 0
0, 0
0, 0
0, 0
0, 0
0, 1
0, 0
0, 0
0, 0
0, 0
1, 0
0, 1
0, 0
0, 0
0, 0
0, 0
0, 1
0, 0
0, 1
0, 0
1, 0
0, 0
0, 0
0, 1
0, 0
0, 0
0, 0
0, 0
0, 1
0, 0
0, 0
0, 0
0, 0
0, 0
0, 0
0, 0
0, 0
0, 0
0, 0
0, 0
0, 0
1, 0
0, 1
0, 0
0, 0
0, 0
0, 0
0, 0
0, 0
0, 0
0, 1
0, 0
0, 0
0, 0
0, 0
0, 0
0, 0
0, 0
0, 0
0, 0
0, 0
0, 0
0, 0
1, 0
0, 0
0, 0
0, 0
1, 0
0, 0
0, 0
0, 0
0, 0
0, 0
0, 0
0, 0
0, 0
0, 0
0, 0
0, 0
0, 0
1, 0
0, 0
0, 1
0, 0
0, 0
0, 0
0, 0
0, 0
0, 0
0, 0
0, 0
1, 0
0, 0
0, 0
0, 0
0, 0
0, 0
0, 0
0, 0
0, 0
0, 0
0, 0
0, 0
0, 0
0, 0
1, 0
0, 0
0, 0
0, 0
0, 0
0, 0
0, 0
0, 0
0, 0
0, 0
0, 0
0, 0
0, 0
0, 0
0, 0
0, 0
0, 0
0, 0
0, 0
0, 0
0, 0
0, 0
0, 0
0, 0
0, 0
0, 0
0, 0
0, 0
0, 0
0, 0
0, 0
0, 0
0, 0
0, 0
0, 0
0, 0
0, 0
0, 0
0, 0
0, 0
0, 0
0, 0
0, 0
0, 0
0, 0
0, 0
0, 0
0, 0
0, 0
0, 0
0, 0
0, 0
0, 0
0, 0
0, 0
0, 0
0, 0
0, 0
0, 0
0, 0
0, 0
0, 0
0, 0
0, 0
0, 0
0, 0
0, 0
0, 0
0, 0
0, 0
0, 0
0, 0
0, 0
0, 0
1, 0
0, 0
0, 0
0, 0
0, 0
0, 0
0, 0
0, 0
0, 0
0, 0
0, 0
0, 0
0, 0
0, 0
0, 0
0, 0
0, 0
0, 0
0, 0
0, 0
0, 0
0, 0
0, 0
0, 0
0, 0
0, 0
0, 0
0, 0
0, 0
0, 0
0, 0
0, 0
0, 0
0, 0
0, 0
0, 0
0, 0
0, 0
0, 0
0, 0
0, 0
0, 0
0, 0
0, 0
0, 0
0, 0
0, 0
0, 0
0, 0
0, 0
0, 0
0, 0
0, 0
0, 0
0, 0
0, 0
0, 0
0, 0
0, 0
0, 0
0, 0
0, 0
0, 0
0, 0
0, 0
0, 0
0, 0
0, 0
0, 0
0, 0
0, 0
0, 0
0, 0
0, 0
0, 0
0, 0
0, 0
0, 0
0, 0
0, 0
0, 0
0, 0
0, 0
0, 0
0, 0
0, 1
0, 0
0, 0
0, 0
0, 0
0, 0
0, 0
0, 0
0, 0
0, 0
0, 0
0, 0
0, 0
0, 0
0, 0
0, 0
0, 0
0, 0
0, 0
0, 0
0, 0
0, 0
0, 0
0, 0
0, 0
0, 0
0, 0
0, 0
0, 0
0, 0
0, 0
0, 0
0, 0
0, 0
0, 0
0, 0
0, 0
0, 0
0, 0
0, 0
0, 0
0, 0
0, 0
0, 0
0, 0
0, 0
0, 0
0, 0
0, 0
0, 0
0, 0
0, 0
0, 0
0, 0
0, 0
0, 0
0, 0
0, 0
0, 0
0, 0
0, 0
0, 0
0, 0
0, 0
0, 0
0, 0
0, 0
0, 0
0, 0
0, 0
0, 0
0, 0
0, 0
0, 0
0, 0
0, 0
0, 0
0, 0
0, 0
0, 0
0, 0
0, 0
0, 0
0, 0
0, 0
0, 0
0, 0
0, 0
0, 0
0, 0
0, 0
0, 0
0, 0
0, 0
0, 0
0, 0
0, 0
0, 0
0, 0
0, 0
0, 0
0, 0
0, 0
0, 0
0, 0
0, 0
0, 0
0, 0
0, 0
0, 0
0, 0
0, 0
0, 0
0, 0
0, 0
0, 0
0, 0
0, 0
0, 0
0, 0
0, 0
0, 0
0, 0
0, 0
0, 0
0, 0
0, 0
0, 0
0, 0
0, 0
0, 0
0, 0
0, 0
0, 0
0, 0
0, 0
0, 0
0, 0
0, 0
0, 0
0, 0
0, 0
0, 0
0, 0
0, 0
0, 0
0, 0
0, 0
0, 0
0, 0
0, 0
0, 0
0, 0
0, 0
0, 0
0, 0
0, 0
0, 0
0, 0
0, 0
0, 0
0, 0
0, 0
0, 0
0, 0
0, 0
0, 0
0, 0
0, 0
0, 0
0, 0
0, 0
0, 0
0, 0
0, 0
0, 0
0, 0
0, 0
0, 0
0, 0
0, 0
0, 0
0, 0
0, 0
0, 0
0, 0
0, 0
0, 0
0, 0
0, 0
0, 0
0, 0
0, 0
0, 0
0, 0
0, 0
0, 0
0, 0
0, 0
0, 0
0, 0
0, 0
0, 0
0, 0
0, 0
0, 0
0, 0
0, 0
0, 0
0, 0
0, 0
0, 0
0, 0
0, 0
0, 0
0, 0
0, 0
0, 0
0, 0
0, 0
0, 0
0, 0
0, 0
0, 0
0, 0
0, 0
0, 0
0, 0
0, 0
0, 0
0, 0
0, 0
0, 0
0, 0
0, 0
0, 0
0, 0
0, 0
0, 0
0, 0
0, 0
0, 0
0, 0
0, 0
0, 0
0, 0
0, 0
0, 0
0, 0
0, 0
0, 0
0, 0
0, 0
0, 0
0, 0
0, 0
0, 0
0, 0
0, 0
0, 0
0, 0
0, 0
0, 0
0, 0
0, 0
0, 0
0, 0
0, 0
0, 0
#ENDOFDATA     end of spectrum data