File: host_upload/06-09-2024/ps_0852/dump3/ps__0852shot_2396.msa
#FORMAT      : EMSA/MAS spectral data file
#VERSION     : TC202v2.0 PIXL
#TITLE       : N/A
#DATE        :       Date in the format DD-MMM-YYYY, for example 07-JUL-2010
#TIME        :             The time of day at which the spectrum was recorded, in 24-hour format
#OWNER       : PIXL Flight Model       (PIXL will use this to indicate which instrument took the data.)
#NPOINTS     : 4096     Number of data points in the spectrum (This can be zero for configuration only files)
#NCOLUMNS    : 2     Number of data columns in the spectrum (This can be zero for configuration only files)
#XUNITS      : eV
#YUNITS      : COUNTS
#DATATYPE    : YY
#XPERCHAN    : 7.862, 7.881   eV per channel (separate by commas if more than one detector)
#OFFSET      : 18.5, -22.4         eV of first channel  (separate by commas if more than one detector
#SIGNALTYPE  : XRF
#YP_TEMP     : 2.396
#LIVETIME    : 8.57474, 8.55967   seconds (separate by commas if more than one detector)
#REALTIME    : 10, 10.0   seconds (separate by commas if more than one detector)
#SPECTRUM    : start of spectrum data
0, 0
0, 0
0, 0
0, 0
0, 0
0, 0
0, 0
0, 0
0, 0
0, 0
0, 0
0, 0
0, 0
0, 0
0, 0
0, 0
0, 0
0, 0
0, 0
0, 0
0, 0
0, 0
0, 0
0, 0
0, 0
0, 0
0, 0
0, 0
0, 0
0, 0
0, 0
0, 0
0, 0
0, 0
0, 1
0, 0
1, 1
2, 0
0, 0
0, 0
1, 1
2, 2
2, 2
0, 1
1, 1
1, 3
2, 3
3, 4
7, 7
18, 14
27, 26
21, 42
55, 62
64, 78
67, 68
68, 81
45, 41
37, 44
28, 28
9, 17
7, 10
4, 5
1, 2
1, 4
2, 4
1, 4
4, 10
3, 9
21, 25
50, 50
99, 104
159, 177
235, 283
351, 347
426, 458
373, 461
355, 384
249, 323
189, 202
122, 138
71, 59
27, 45
21, 20
7, 10
5, 11
4, 3
3, 2
1, 0
2, 1
2, 3
2, 1
1, 0
1, 1
4, 1
4, 0
4, 5
5, 2
1, 10
4, 7
6, 9
3, 7
4, 8
1, 8
3, 7
3, 2
3, 10
4, 7
1, 11
14, 24
15, 23
32, 41
44, 55
43, 55
69, 73
53, 80
47, 72
52, 51
55, 69
27, 32
33, 30
25, 37
37, 17
18, 22
28, 13
26, 16
16, 17
8, 16
10, 12
19, 19
7, 6
5, 8
3, 7
5, 7
2, 4
2, 1
4, 3
3, 2
1, 2
1, 1
1, 5
3, 5
1, 3
2, 4
3, 4
5, 1
4, 1
2, 2
2, 3
2, 1
1, 5
2, 1
2, 1
3, 7
6, 5
12, 8
9, 12
10, 14
16, 9
11, 15
16, 13
9, 8
6, 7
4, 8
3, 4
2, 1
0, 3
0, 5
3, 6
2, 5
2, 4
5, 6
4, 4
3, 3
3, 3
5, 2
4, 7
4, 5
5, 6
5, 4
9, 4
16, 4
16, 3
19, 6
16, 7
15, 3
16, 4
10, 7
9, 5
8, 4
10, 5
14, 9
15, 11
4, 13
8, 4
13, 12
16, 12
16, 20
14, 17
10, 9
6, 15
9, 13
10, 7
11, 12
5, 5
7, 9
14, 4
9, 9
9, 8
7, 7
9, 7
6, 4
4, 3
5, 4
5, 7
10, 10
8, 3
5, 10
6, 9
8, 12
4, 21
5, 33
2, 40
8, 54
3, 47
7, 63
6, 58
7, 49
6, 38
16, 34
7, 19
13, 29
13, 18
15, 25
22, 13
11, 9
10, 10
12, 10
9, 8
11, 10
6, 4
11, 7
9, 5
12, 8
11, 14
15, 16
21, 32
29, 34
45, 41
44, 61
61, 64
57, 65
52, 72
67, 42
45, 48
42, 35
21, 39
21, 26
19, 18
17, 16
12, 14
16, 24
22, 31
46, 72
87, 97
125, 241
281, 381
439, 678
721, 1080
1087, 1455
1478, 1966
1895, 2375
2200, 2658
2363, 2820
2163, 2460
1978, 2086
1684, 1592
1199, 1172
895, 762
548, 514
330, 288
198, 158
102, 92
53, 52
33, 31
19, 26
17, 21
10, 15
13, 25
11, 18
24, 20
22, 24
37, 33
43, 54
70, 84
104, 137
140, 192
202, 238
236, 307
310, 348
332, 423
351, 379
327, 374
307, 305
237, 274
170, 163
130, 90
87, 61
60, 54
21, 23
13, 18
15, 4
8, 3
7, 3
7, 10
5, 9
11, 6
12, 7
17, 17
14, 10
9, 18
10, 10
12, 15
14, 12
8, 7
3, 11
1, 7
4, 6
2, 6
1, 6
5, 6
1, 3
2, 7
4, 4
1, 7
3, 6
3, 6
2, 8
4, 16
3, 14
6, 19
2, 13
5, 11
2, 19
5, 11
3, 7
3, 15
4, 9
6, 6
4, 6
5, 7
4, 7
1, 6
4, 5
3, 5
4, 7
3, 6
5, 4
5, 3
3, 2
2, 5
3, 1
5, 3
3, 3
7, 5
4, 3
5, 2
2, 3
4, 7
1, 6
4, 3
5, 1
3, 3
2, 3
2, 6
2, 2
2, 3
3, 7
3, 4
5, 4
2, 2
1, 4
1, 3
0, 4
1, 5
2, 5
3, 10
6, 5
5, 8
1, 15
2, 17
3, 13
6, 20
1, 24
1, 20
2, 31
2, 31
2, 24
5, 14
2, 15
8, 12
2, 12
1, 7
3, 5
3, 6
2, 3
4, 4
5, 4
3, 3
2, 1
1, 4
0, 5
2, 4
5, 2
4, 3
6, 2
3, 2
5, 1
2, 4
6, 1
8, 2
18, 3
10, 4
20, 0
12, 7
19, 2
17, 0
14, 3
15, 4
17, 0
12, 1
12, 3
7, 5
7, 5
1, 2
4, 2
5, 2
3, 3
2, 1
1, 4
2, 2
3, 4
1, 3
2, 4
2, 6
2, 6
3, 13
2, 5
3, 5
4, 4
0, 4
1, 9
0, 5
2, 8
1, 7
2, 5
0, 4
4, 9
2, 2
2, 1
5, 3
0, 5
3, 3
3, 2
2, 3
1, 4
4, 5
3, 3
2, 3
2, 2
3, 2
0, 2
2, 4
1, 2
2, 5
0, 5
2, 2
1, 3
3, 3
2, 0
4, 3
1, 3
1, 3
4, 3
1, 3
2, 2
3, 3
3, 2
5, 2
3, 2
4, 2
0, 5
0, 2
3, 5
2, 1
2, 3
2, 4
3, 3
2, 2
3, 2
1, 2
3, 2
1, 2
2, 5
0, 3
2, 7
2, 10
0, 4
3, 4
1, 7
2, 7
2, 6
0, 1
0, 4
2, 2
2, 1
1, 2
4, 3
4, 2
2, 1
4, 2
3, 1
6, 4
2, 2
4, 1
4, 2
4, 2
3, 1
3, 1
6, 3
5, 4
8, 1
6, 0
4, 1
2, 2
3, 2
3, 2
1, 1
2, 1
5, 1
3, 5
2, 5
1, 5
3, 4
4, 4
3, 5
3, 6
4, 5
3, 1
3, 1
4, 2
4, 4
2, 2
5, 3
4, 1
0, 0
0, 1
1, 3
2, 1
2, 0
0, 4
1, 2
1, 1
1, 3
0, 1
1, 2
2, 1
0, 4
3, 3
1, 8
3, 2
3, 2
0, 1
3, 2
0, 1
1, 8
2, 2
2, 2
2, 1
0, 0
2, 2
0, 1
2, 1
1, 0
1, 0
0, 0
1, 1
1, 2
0, 0
0, 2
0, 0
1, 1
1, 2
0, 0
1, 1
2, 2
0, 0
1, 1
0, 0
1, 1
0, 1
0, 2
0, 0
2, 1
1, 1
2, 0
0, 4
4, 2
2, 1
0, 2
1, 1
1, 0
0, 2
0, 0
0, 1
3, 0
0, 1
0, 2
1, 2
1, 1
1, 0
1, 1
1, 1
3, 1
0, 0
0, 0
1, 3
0, 0
0, 1
2, 2
0, 0
1, 1
0, 3
0, 1
0, 0
1, 0
0, 1
1, 1
0, 1
1, 2
0, 1
0, 0
2, 0
1, 0
0, 0
3, 0
0, 0
3, 0
0, 0
2, 0
1, 1
0, 1
1, 1
0, 1
1, 0
0, 1
0, 1
0, 1
1, 0
1, 0
2, 3
1, 2
0, 1
0, 0
1, 0
0, 1
0, 0
0, 4
0, 0
1, 0
0, 1
2, 2
1, 0
0, 0
0, 1
0, 1
1, 1
0, 0
0, 1
0, 1
1, 0
1, 0
1, 0
0, 0
1, 0
0, 0
1, 0
0, 0
0, 0
0, 0
0, 0
0, 0
0, 0
0, 0
0, 0
0, 0
1, 0
0, 0
0, 1
0, 0
1, 1
2, 1
0, 1
0, 0
0, 0
0, 0
2, 0
0, 0
0, 0
0, 2
0, 0
0, 2
1, 1
0, 0
1, 0
1, 0
0, 0
1, 0
0, 0
0, 0
0, 0
0, 1
0, 0
1, 1
2, 1
1, 0
0, 0
0, 0
1, 0
0, 0
1, 0
0, 1
0, 1
3, 0
0, 1
0, 0
1, 0
0, 0
0, 0
1, 1
0, 0
0, 0
0, 0
0, 0
1, 0
0, 0
3, 1
0, 0
0, 0
1, 0
0, 0
0, 0
0, 0
1, 1
0, 0
0, 0
0, 0
0, 0
0, 0
0, 0
1, 0
0, 0
0, 1
1, 0
0, 0
1, 0
0, 0
3, 0
0, 0
1, 0
0, 0
1, 0
0, 1
1, 0
0, 0
0, 0
0, 0
1, 0
0, 1
0, 0
0, 1
0, 0
0, 1
0, 0
0, 1
0, 0
0, 1
0, 0
0, 0
0, 0
0, 0
0, 1
0, 0
0, 0
0, 0
2, 0
0, 0
0, 0
1, 0
0, 0
1, 0
0, 0
1, 0
0, 0
0, 0
0, 0
1, 0
0, 0
0, 0
0, 0
0, 0
0, 0
0, 1
0, 0
0, 1
1, 0
0, 0
0, 0
0, 0
0, 1
1, 0
0, 0
1, 0
0, 0
0, 0
0, 0
0, 1
0, 0
0, 0
0, 1
0, 0
0, 0
0, 0
0, 0
0, 0
0, 1
0, 0
0, 0
0, 0
0, 0
0, 0
0, 0
0, 0
0, 0
0, 0
0, 0
0, 0
0, 0
0, 0
0, 0
1, 0
1, 0
0, 0
1, 0
0, 0
0, 0
0, 0
1, 1
1, 1
1, 0
0, 0
0, 0
0, 0
0, 1
0, 0
1, 0
1, 0
0, 0
0, 0
0, 0
0, 0
0, 0
0, 0
0, 0
0, 0
0, 0
0, 0
0, 0
0, 0
0, 0
0, 0
0, 0
1, 0
0, 0
1, 0
0, 0
1, 0
0, 0
0, 0
0, 0
0, 0
0, 0
0, 0
0, 0
0, 0
0, 0
1, 0
0, 0
0, 0
1, 0
0, 0
0, 0
1, 0
0, 1
0, 0
0, 0
0, 0
0, 0
0, 0
0, 0
0, 0
0, 0
0, 0
0, 0
0, 0
0, 0
0, 0
0, 0
0, 0
0, 0
0, 0
0, 0
0, 1
1, 0
0, 0
1, 0
0, 0
0, 0
0, 0
0, 0
0, 0
0, 0
0, 0
0, 0
0, 0
1, 0
0, 0
0, 0
0, 0
0, 0
0, 0
0, 0
0, 0
0, 0
0, 0
0, 0
0, 0
0, 0
0, 1
0, 0
0, 0
0, 0
0, 0
0, 0
0, 0
0, 0
0, 0
0, 0
0, 0
0, 0
0, 0
0, 0
0, 0
0, 0
0, 0
0, 0
0, 0
0, 0
0, 0
0, 0
0, 0
0, 0
0, 0
0, 0
0, 0
0, 0
0, 0
0, 0
0, 0
0, 0
0, 0
0, 0
0, 0
0, 0
0, 0
0, 0
0, 0
0, 0
0, 0
0, 0
0, 0
0, 0
0, 1
0, 0
0, 0
0, 0
0, 0
0, 0
0, 0
0, 0
0, 0
0, 0
0, 0
0, 0
0, 0
0, 0
0, 0
0, 0
0, 0
0, 0
0, 0
0, 0
0, 0
0, 0
0, 0
0, 0
0, 0
0, 0
0, 0
0, 0
0, 0
0, 0
0, 0
0, 0
0, 0
0, 0
0, 0
0, 0
0, 0
0, 0
0, 0
0, 0
0, 0
0, 0
0, 0
0, 0
0, 0
0, 0
0, 0
0, 0
0, 0
0, 0
0, 0
0, 0
0, 0
0, 0
0, 0
0, 0
0, 0
0, 0
0, 0
0, 0
0, 0
0, 0
0, 0
0, 0
0, 0
0, 0
0, 0
0, 0
0, 0
0, 0
0, 0
0, 0
0, 0
0, 0
0, 0
0, 0
0, 0
0, 0
0, 0
0, 0
0, 0
0, 0
0, 0
0, 0
0, 0
0, 0
0, 0
0, 0
0, 0
0, 0
0, 0
0, 0
0, 0
0, 0
0, 0
0, 0
0, 0
0, 0
0, 0
0, 0
0, 0
0, 0
0, 0
0, 0
0, 0
0, 0
0, 0
0, 0
0, 0
0, 0
0, 0
0, 0
0, 0
0, 0
0, 0
0, 0
0, 0
0, 0
0, 0
0, 0
0, 0
0, 0
0, 0
0, 0
0, 0
0, 0
0, 0
0, 0
0, 0
0, 0
0, 0
0, 0
0, 0
0, 0
0, 0
0, 0
0, 0
0, 0
0, 0
0, 0
0, 0
0, 0
0, 0
0, 0
0, 0
0, 0
0, 0
0, 0
0, 0
0, 0
0, 0
0, 0
0, 0
0, 0
0, 0
0, 0
0, 0
0, 0
0, 0
0, 0
0, 0
0, 0
0, 0
0, 0
0, 0
0, 0
0, 0
0, 0
0, 0
0, 0
0, 0
0, 0
0, 0
0, 0
0, 0
0, 0
0, 0
0, 0
0, 0
0, 0
0, 0
0, 0
0, 0
0, 0
0, 0
0, 0
0, 0
0, 0
0, 0
0, 0
0, 0
0, 0
0, 0
0, 0
0, 0
0, 0
0, 0
0, 0
0, 0
0, 0
0, 0
0, 0
0, 0
0, 0
0, 0
0, 0
0, 0
0, 0
0, 0
0, 0
0, 0
0, 0
0, 0
0, 0
0, 0
0, 0
0, 0
0, 0
0, 0
0, 0
0, 0
0, 0
0, 0
0, 0
0, 0
0, 0
0, 0
0, 0
0, 0
0, 0
0, 0
0, 0
0, 0
0, 0
0, 0
0, 0
0, 0
0, 0
0, 0
0, 0
0, 0
0, 0
0, 0
0, 0
0, 0
0, 0
0, 0
0, 0
0, 0
0, 0
0, 0
0, 0
0, 0
0, 0
0, 0
0, 0
0, 0
0, 0
0, 0
0, 0
0, 0
0, 0
0, 0
0, 0
0, 0
0, 0
0, 0
0, 0
0, 0
0, 0
0, 0
0, 0
0, 0
0, 0
0, 0
0, 0
0, 0
0, 0
0, 0
0, 0
0, 0
0, 0
0, 0
0, 0
0, 0
0, 0
0, 0
0, 0
0, 0
0, 0
0, 0
0, 0
0, 0
0, 0
0, 0
0, 0
0, 0
0, 0
0, 0
0, 0
0, 0
0, 0
0, 0
0, 0
0, 0
0, 0
0, 0
0, 0
0, 0
0, 0
0, 0
0, 0
0, 0
0, 0
0, 0
0, 0
0, 0
0, 0
0, 0
0, 0
0, 0
0, 0
0, 0
0, 0
0, 0
0, 0
0, 0
0, 0
0, 0
0, 0
0, 0
0, 0
0, 0
0, 0
0, 0
0, 0
0, 0
0, 0
0, 0
0, 0
0, 0
0, 0
0, 0
0, 0
0, 0
0, 0
0, 0
0, 0
0, 0
0, 0
0, 0
0, 0
0, 0
0, 0
0, 0
0, 0
0, 0
0, 0
0, 0
0, 0
0, 0
0, 0
0, 0
0, 0
0, 0
0, 0
0, 0
0, 0
0, 0
0, 0
0, 0
0, 0
0, 0
0, 0
0, 0
#ENDOFDATA     end of spectrum data