File: host_upload/06-09-2024/ps_0852/dump3/ps__0852shot_2183.msa
#FORMAT      : EMSA/MAS spectral data file
#VERSION     : TC202v2.0 PIXL
#TITLE       : N/A
#DATE        :       Date in the format DD-MMM-YYYY, for example 07-JUL-2010
#TIME        :             The time of day at which the spectrum was recorded, in 24-hour format
#OWNER       : PIXL Flight Model       (PIXL will use this to indicate which instrument took the data.)
#NPOINTS     : 4096     Number of data points in the spectrum (This can be zero for configuration only files)
#NCOLUMNS    : 2     Number of data columns in the spectrum (This can be zero for configuration only files)
#XUNITS      : eV
#YUNITS      : COUNTS
#DATATYPE    : YY
#XPERCHAN    : 7.862, 7.881   eV per channel (separate by commas if more than one detector)
#OFFSET      : 18.5, -22.4         eV of first channel  (separate by commas if more than one detector
#SIGNALTYPE  : XRF
#YP_TEMP     : 2.46
#LIVETIME    : 8.56031, 8.3635   seconds (separate by commas if more than one detector)
#REALTIME    : 10, 10.0   seconds (separate by commas if more than one detector)
#SPECTRUM    : start of spectrum data
0, 0
0, 0
0, 0
0, 0
0, 0
0, 0
0, 0
0, 0
0, 0
0, 0
0, 0
0, 0
0, 0
0, 0
0, 0
0, 0
0, 0
0, 0
0, 0
0, 0
0, 0
0, 0
0, 0
0, 0
0, 0
0, 0
0, 0
0, 0
0, 0
0, 0
0, 1
0, 0
0, 1
0, 1
0, 0
1, 1
0, 2
1, 9
1, 17
2, 19
3, 29
1, 26
3, 28
2, 25
3, 27
3, 12
2, 14
5, 8
7, 6
12, 18
20, 24
42, 42
62, 57
66, 66
61, 83
81, 67
77, 54
48, 46
28, 24
25, 23
10, 8
10, 6
3, 5
5, 6
1, 3
7, 6
8, 9
16, 10
23, 19
34, 49
100, 112
172, 185
270, 259
343, 344
356, 434
423, 393
389, 404
271, 285
203, 202
132, 103
67, 59
36, 33
15, 14
18, 8
4, 2
5, 5
1, 7
4, 7
0, 4
1, 4
2, 4
0, 2
1, 2
2, 2
2, 5
1, 4
1, 8
6, 2
4, 9
4, 9
4, 5
6, 4
3, 5
3, 5
3, 7
1, 10
7, 28
6, 50
8, 127
21, 308
43, 571
57, 979
80, 1510
115, 2001
121, 2437
133, 2516
128, 2427
116, 1880
105, 1409
76, 915
61, 514
51, 292
36, 162
29, 72
19, 33
10, 17
13, 11
14, 9
7, 9
6, 2
3, 3
2, 4
1, 1
3, 9
5, 0
3, 0
1, 0
1, 2
2, 0
1, 3
1, 3
3, 1
1, 4
0, 0
2, 1
1, 1
2, 1
2, 2
0, 0
1, 6
5, 4
10, 11
9, 8
16, 11
14, 16
24, 34
30, 32
32, 40
18, 28
30, 29
17, 25
15, 15
9, 12
12, 8
10, 9
13, 9
9, 8
17, 9
25, 12
38, 14
34, 11
52, 14
47, 18
41, 14
34, 11
31, 24
18, 21
19, 21
9, 16
5, 16
5, 14
3, 6
5, 10
2, 5
4, 4
1, 4
0, 5
4, 12
3, 6
7, 8
8, 13
9, 10
9, 11
9, 6
17, 10
13, 8
14, 7
14, 15
8, 14
14, 12
12, 18
10, 9
15, 7
17, 7
15, 12
13, 5
10, 4
13, 6
5, 1
9, 4
10, 2
9, 8
10, 3
8, 7
4, 6
9, 8
4, 4
6, 6
8, 3
14, 4
19, 8
16, 8
13, 5
20, 8
26, 11
25, 17
21, 11
25, 14
27, 19
31, 15
28, 19
29, 9
29, 24
35, 13
27, 13
34, 13
33, 14
34, 25
25, 13
29, 25
12, 21
17, 24
10, 26
11, 19
13, 30
21, 36
26, 38
34, 32
46, 62
51, 56
52, 55
53, 54
61, 51
42, 47
41, 39
32, 23
28, 25
25, 16
14, 18
16, 15
14, 21
18, 23
52, 58
88, 94
172, 207
290, 362
501, 641
766, 881
1122, 1248
1626, 1712
1898, 2023
2310, 2380
2436, 2409
2257, 2212
2092, 1831
1735, 1477
1312, 1118
959, 746
593, 445
402, 263
238, 145
126, 93
79, 50
45, 46
49, 27
45, 22
45, 35
47, 36
41, 55
44, 49
35, 69
47, 83
55, 101
84, 129
126, 129
145, 198
193, 256
274, 293
294, 348
315, 352
352, 352
327, 327
289, 282
230, 238
182, 168
111, 103
82, 75
55, 29
31, 23
22, 12
10, 5
12, 8
12, 7
10, 17
8, 6
10, 11
9, 15
6, 11
15, 6
9, 9
9, 13
9, 10
11, 6
6, 5
5, 7
4, 5
1, 9
3, 4
4, 3
3, 3
2, 6
4, 4
5, 6
10, 7
8, 6
10, 5
13, 7
16, 5
10, 9
16, 8
13, 12
22, 8
13, 19
8, 14
10, 13
12, 13
14, 12
8, 15
11, 18
3, 12
8, 22
6, 25
3, 23
4, 24
6, 21
1, 16
3, 11
5, 13
3, 12
4, 12
6, 5
2, 5
3, 5
4, 7
7, 6
3, 5
5, 1
6, 2
4, 5
3, 5
4, 3
6, 3
2, 2
3, 4
3, 0
1, 4
1, 2
2, 3
2, 5
3, 6
5, 7
4, 5
4, 4
4, 12
4, 11
3, 6
3, 8
2, 6
14, 7
6, 5
7, 9
12, 0
13, 3
7, 3
11, 4
11, 8
9, 2
15, 5
16, 2
11, 7
3, 1
6, 3
6, 3
3, 4
9, 3
5, 4
8, 3
3, 3
3, 2
1, 2
5, 6
3, 3
3, 5
3, 2
4, 2
3, 2
2, 6
1, 2
5, 1
4, 5
5, 3
4, 2
4, 3
6, 2
4, 0
1, 1
1, 3
0, 2
3, 2
5, 1
2, 3
2, 2
2, 1
4, 2
1, 2
7, 4
3, 2
2, 1
1, 2
2, 4
4, 1
2, 2
1, 4
4, 3
4, 3
8, 2
1, 1
5, 2
2, 4
5, 0
2, 3
11, 3
4, 3
4, 1
6, 5
3, 4
9, 4
4, 2
2, 8
4, 5
3, 4
5, 6
7, 3
3, 3
4, 5
6, 4
2, 5
3, 4
0, 5
2, 2
3, 3
1, 1
3, 5
3, 2
2, 1
2, 1
2, 4
1, 0
0, 3
2, 2
2, 2
4, 2
2, 2
1, 4
0, 0
3, 0
0, 3
4, 3
1, 1
1, 6
4, 4
3, 1
2, 3
0, 2
4, 2
4, 2
0, 1
2, 1
1, 5
2, 1
4, 2
2, 3
3, 0
1, 4
3, 2
2, 4
1, 1
4, 0
4, 1
6, 4
3, 2
3, 3
2, 3
2, 2
2, 1
2, 9
6, 3
2, 2
2, 4
3, 3
3, 3
3, 1
2, 7
1, 2
3, 0
2, 2
1, 5
2, 0
1, 2
1, 0
1, 2
1, 2
1, 2
3, 5
3, 0
2, 5
3, 3
2, 4
1, 3
5, 2
4, 3
1, 3
2, 3
3, 1
3, 3
2, 3
1, 1
4, 6
7, 1
4, 2
3, 3
1, 1
0, 2
1, 4
3, 2
1, 3
1, 0
0, 1
2, 2
0, 3
2, 1
1, 2
3, 2
1, 1
3, 2
1, 2
2, 3
2, 2
1, 1
2, 10
4, 1
3, 2
5, 2
0, 4
3, 1
2, 3
3, 1
2, 1
0, 1
0, 0
1, 3
0, 2
1, 0
1, 3
0, 2
0, 2
0, 1
1, 0
1, 2
2, 2
2, 2
1, 2
0, 1
1, 2
0, 1
0, 2
2, 1
0, 0
0, 1
0, 0
0, 0
1, 0
2, 2
2, 1
0, 0
0, 1
0, 1
1, 0
1, 1
2, 1
1, 0
0, 1
1, 0
0, 2
0, 2
2, 1
1, 0
0, 0
1, 2
1, 1
0, 0
2, 1
1, 2
3, 2
0, 1
0, 1
0, 2
1, 0
2, 1
2, 2
0, 0
1, 0
1, 0
2, 0
1, 3
0, 1
2, 0
0, 0
2, 1
2, 1
0, 1
0, 0
0, 0
0, 2
0, 0
0, 0
0, 0
1, 1
2, 2
0, 1
1, 1
0, 1
0, 1
0, 0
0, 2
1, 0
1, 0
0, 2
0, 1
1, 0
0, 1
0, 1
0, 0
0, 2
0, 1
1, 0
0, 0
1, 1
1, 0
0, 0
0, 2
0, 0
1, 0
1, 0
3, 0
0, 0
0, 0
2, 0
0, 0
0, 0
3, 1
1, 1
0, 2
3, 1
2, 1
0, 0
0, 0
0, 1
1, 0
0, 0
2, 0
1, 0
1, 0
0, 0
1, 2
0, 0
1, 1
1, 1
0, 0
0, 0
0, 0
0, 1
0, 0
2, 1
1, 0
0, 1
0, 1
0, 1
0, 1
1, 0
0, 0
0, 1
0, 0
0, 2
0, 0
0, 0
0, 1
0, 0
0, 1
0, 0
0, 0
0, 0
0, 0
0, 0
0, 0
0, 1
0, 0
0, 0
0, 1
1, 0
0, 0
0, 0
0, 2
0, 0
1, 0
1, 1
0, 0
0, 1
0, 0
1, 0
0, 1
0, 1
0, 0
0, 0
0, 0
0, 0
0, 0
2, 0
0, 1
0, 0
0, 0
0, 0
0, 0
0, 1
0, 0
0, 0
0, 1
0, 0
0, 0
0, 0
0, 0
0, 0
2, 0
0, 1
0, 1
0, 1
0, 0
1, 0
0, 0
0, 1
0, 1
0, 0
0, 0
0, 0
1, 0
0, 1
0, 0
0, 1
1, 0
1, 0
0, 1
0, 1
0, 1
0, 0
0, 1
0, 0
0, 0
0, 0
0, 0
0, 3
2, 0
0, 0
2, 0
0, 0
0, 0
1, 0
0, 1
0, 1
0, 0
0, 0
1, 1
0, 1
0, 0
0, 0
0, 0
1, 0
0, 0
0, 1
0, 0
0, 0
1, 0
0, 1
0, 1
1, 0
0, 0
0, 0
0, 0
0, 0
0, 1
0, 0
0, 0
0, 0
0, 0
0, 0
0, 0
1, 0
0, 1
0, 0
0, 0
0, 0
0, 0
0, 0
1, 0
1, 0
0, 0
0, 0
0, 0
0, 0
0, 0
0, 0
0, 0
0, 0
0, 0
0, 0
0, 0
0, 0
0, 0
0, 0
0, 0
0, 0
0, 0
2, 1
0, 1
0, 0
0, 0
1, 0
0, 0
0, 0
0, 0
0, 0
0, 0
0, 0
0, 1
0, 0
0, 0
0, 1
0, 0
1, 0
1, 0
0, 0
0, 0
0, 0
0, 0
0, 0
0, 0
0, 0
0, 0
1, 0
0, 0
0, 0
0, 0
0, 0
0, 0
0, 1
0, 0
0, 0
0, 0
1, 0
0, 0
0, 0
0, 0
0, 0
0, 0
0, 0
0, 0
0, 0
0, 0
0, 0
0, 0
0, 0
0, 0
0, 0
0, 0
0, 0
0, 0
0, 0
0, 0
0, 0
0, 0
0, 0
0, 0
0, 0
0, 0
0, 0
0, 0
0, 0
0, 0
0, 0
0, 0
0, 0
0, 0
0, 0
0, 0
0, 0
0, 0
0, 0
0, 0
0, 0
0, 0
0, 0
0, 0
0, 0
0, 0
0, 0
0, 0
0, 0
0, 0
0, 0
0, 0
0, 0
0, 0
0, 0
0, 0
0, 0
0, 0
0, 0
0, 0
0, 0
0, 0
0, 0
0, 0
0, 0
0, 0
0, 0
0, 0
0, 0
0, 0
0, 0
0, 0
0, 0
0, 0
0, 0
0, 0
0, 0
0, 0
0, 0
0, 0
0, 0
1, 0
0, 0
0, 0
0, 0
0, 0
0, 0
1, 0
0, 0
0, 0
0, 0
0, 0
0, 0
1, 0
0, 0
0, 1
0, 0
0, 0
0, 0
0, 0
1, 0
0, 0
0, 0
0, 1
0, 0
0, 0
0, 0
0, 0
0, 0
0, 0
0, 0
0, 0
0, 0
0, 0
0, 0
0, 0
0, 0
0, 0
0, 0
0, 0
0, 0
0, 0
0, 0
0, 0
0, 0
0, 0
0, 0
0, 0
0, 1
0, 0
0, 0
0, 0
0, 0
0, 0
0, 0
0, 0
0, 0
0, 0
0, 0
0, 0
0, 0
0, 0
0, 0
0, 0
0, 0
0, 0
0, 0
0, 0
0, 0
0, 0
0, 0
0, 0
0, 0
0, 0
0, 0
0, 0
0, 0
0, 0
0, 0
0, 0
0, 0
0, 0
0, 0
0, 0
0, 0
0, 0
0, 0
0, 0
0, 0
0, 0
0, 0
0, 0
0, 0
0, 0
0, 0
0, 0
0, 0
0, 0
0, 0
0, 0
0, 0
0, 0
0, 0
0, 0
0, 0
0, 0
0, 0
0, 0
0, 0
0, 0
0, 0
0, 0
0, 0
0, 0
0, 0
0, 0
0, 0
0, 0
0, 0
0, 0
0, 0
0, 0
0, 0
0, 0
0, 0
0, 0
0, 0
0, 0
0, 1
0, 0
0, 0
0, 0
0, 0
0, 0
0, 0
0, 0
0, 0
0, 0
0, 0
0, 0
0, 0
0, 0
0, 0
0, 0
0, 0
0, 0
0, 0
0, 0
0, 0
0, 0
0, 0
0, 0
0, 0
0, 0
0, 0
0, 0
0, 0
0, 0
0, 0
0, 0
0, 0
0, 0
0, 0
0, 0
0, 0
0, 0
0, 0
0, 0
0, 0
0, 0
0, 0
0, 0
0, 0
0, 0
0, 0
0, 0
0, 0
0, 0
0, 0
0, 0
0, 0
0, 0
0, 0
0, 0
0, 0
0, 0
0, 0
0, 0
0, 0
0, 0
0, 0
0, 0
0, 0
0, 0
0, 0
0, 0
0, 0
0, 0
0, 0
0, 0
0, 0
0, 0
0, 0
0, 0
0, 0
0, 0
0, 0
0, 0
0, 0
0, 0
0, 0
0, 0
0, 0
0, 0
0, 0
0, 0
0, 0
0, 0
0, 0
0, 0
0, 0
0, 0
0, 0
0, 0
0, 0
0, 0
0, 0
0, 0
0, 0
0, 0
0, 0
0, 0
0, 0
0, 0
0, 0
0, 0
0, 0
0, 0
0, 0
0, 0
0, 0
0, 0
0, 0
0, 0
0, 0
0, 0
0, 0
0, 0
0, 0
0, 0
0, 0
0, 0
0, 0
0, 0
0, 0
0, 0
0, 0
0, 0
0, 0
0, 0
0, 0
0, 0
0, 0
0, 0
0, 0
0, 0
0, 0
0, 0
0, 0
0, 0
0, 0
0, 0
0, 0
0, 0
0, 0
0, 0
0, 0
0, 0
0, 0
0, 0
0, 0
0, 0
0, 0
0, 0
0, 0
0, 0
0, 0
0, 0
0, 0
0, 0
0, 0
0, 0
0, 0
0, 0
0, 0
0, 0
0, 0
0, 0
0, 0
0, 0
0, 0
0, 0
0, 0
0, 0
0, 0
0, 0
0, 0
0, 0
0, 0
0, 0
0, 0
0, 0
0, 0
0, 0
0, 0
0, 0
0, 0
0, 0
0, 0
0, 0
0, 0
0, 0
0, 0
0, 0
0, 0
0, 0
0, 0
0, 0
0, 0
0, 0
0, 0
0, 0
0, 0
0, 0
0, 0
0, 0
0, 0
0, 0
0, 0
0, 0
0, 0
0, 0
0, 0
0, 0
0, 0
0, 0
0, 0
0, 0
0, 0
0, 0
0, 0
0, 0
0, 0
0, 0
0, 0
0, 0
0, 0
0, 0
0, 0
0, 0
0, 0
0, 0
0, 0
0, 0
0, 0
0, 0
0, 0
0, 0
0, 0
0, 0
0, 0
0, 0
0, 0
0, 0
0, 0
0, 0
0, 0
0, 0
0, 0
0, 0
0, 0
0, 0
0, 0
0, 0
0, 0
0, 0
0, 0
0, 0
0, 0
0, 0
0, 0
0, 0
0, 0
0, 0
0, 0
0, 0
0, 0
0, 0
0, 0
#ENDOFDATA     end of spectrum data