File: host_upload/06-09-2024/ps_0852/dump3/ps__0852shot_2476.msa
#FORMAT      : EMSA/MAS spectral data file
#VERSION     : TC202v2.0 PIXL
#TITLE       : N/A
#DATE        :       Date in the format DD-MMM-YYYY, for example 07-JUL-2010
#TIME        :             The time of day at which the spectrum was recorded, in 24-hour format
#OWNER       : PIXL Flight Model       (PIXL will use this to indicate which instrument took the data.)
#NPOINTS     : 4096     Number of data points in the spectrum (This can be zero for configuration only files)
#NCOLUMNS    : 2     Number of data columns in the spectrum (This can be zero for configuration only files)
#XUNITS      : eV
#YUNITS      : COUNTS
#DATATYPE    : YY
#XPERCHAN    : 7.862, 7.881   eV per channel (separate by commas if more than one detector)
#OFFSET      : 18.5, -22.4         eV of first channel  (separate by commas if more than one detector
#SIGNALTYPE  : XRF
#YP_TEMP     : 2.46
#LIVETIME    : 8.55906, 8.55545   seconds (separate by commas if more than one detector)
#REALTIME    : 10, 10.0   seconds (separate by commas if more than one detector)
#SPECTRUM    : start of spectrum data
0, 0
0, 0
0, 0
0, 0
0, 0
0, 0
0, 0
0, 0
0, 0
0, 0
0, 0
0, 0
0, 0
0, 0
0, 0
0, 0
0, 0
0, 0
0, 0
0, 0
0, 0
0, 0
0, 0
0, 0
0, 0
0, 0
0, 0
0, 0
0, 0
0, 0
0, 0
0, 0
0, 0
0, 0
0, 0
0, 0
0, 1
1, 0
2, 0
1, 0
1, 2
1, 1
0, 1
0, 2
3, 1
3, 0
3, 3
2, 2
10, 8
12, 11
17, 18
43, 33
71, 50
65, 64
83, 80
56, 64
55, 41
56, 31
30, 14
11, 17
9, 5
1, 5
7, 4
4, 5
4, 10
2, 3
3, 6
8, 9
14, 21
48, 47
114, 85
177, 167
271, 261
342, 330
417, 408
443, 391
418, 366
302, 287
206, 165
113, 125
78, 69
42, 31
22, 11
12, 4
3, 4
4, 1
5, 4
1, 2
4, 0
0, 0
3, 3
5, 3
1, 2
4, 5
5, 8
13, 12
20, 23
16, 21
25, 29
31, 27
16, 19
22, 23
17, 14
7, 12
9, 9
5, 11
7, 8
12, 15
13, 12
15, 21
22, 25
36, 38
39, 35
50, 46
48, 43
59, 39
81, 45
90, 28
84, 29
109, 29
105, 21
88, 23
62, 25
58, 39
32, 21
20, 27
17, 22
12, 17
11, 24
8, 8
3, 2
3, 2
3, 2
4, 1
0, 3
4, 3
2, 3
2, 0
2, 0
2, 2
1, 2
3, 5
1, 2
2, 1
3, 1
3, 0
4, 1
0, 1
2, 3
1, 4
3, 2
6, 10
4, 3
7, 7
13, 15
13, 10
12, 18
15, 10
13, 10
15, 12
8, 12
17, 9
7, 7
5, 6
2, 3
3, 2
5, 1
1, 1
7, 3
7, 3
6, 4
4, 3
5, 4
1, 7
6, 3
4, 3
6, 2
4, 9
2, 5
4, 7
2, 6
5, 1
3, 4
1, 5
5, 1
4, 5
2, 4
15, 3
11, 10
4, 4
7, 4
7, 5
7, 8
11, 10
10, 10
15, 12
10, 18
15, 23
21, 11
14, 12
13, 13
7, 10
9, 3
8, 6
8, 9
7, 5
8, 5
3, 7
6, 7
5, 2
7, 4
6, 5
11, 4
6, 9
10, 2
5, 5
7, 3
3, 5
1, 4
10, 4
4, 6
4, 5
2, 6
6, 5
4, 6
9, 4
14, 10
19, 7
16, 11
19, 12
21, 17
18, 10
33, 8
34, 14
47, 20
43, 6
51, 8
61, 9
63, 8
44, 8
53, 9
32, 10
24, 4
18, 16
28, 10
18, 26
23, 33
37, 38
38, 46
49, 74
77, 63
54, 79
59, 77
50, 69
38, 86
31, 75
23, 76
30, 64
24, 69
18, 50
23, 44
29, 66
47, 63
80, 102
154, 197
303, 327
477, 595
789, 930
1194, 1285
1537, 1697
2070, 2062
2375, 2333
2432, 2454
2356, 2236
2184, 1910
1752, 1573
1293, 1020
905, 710
603, 449
355, 259
203, 151
85, 71
47, 52
34, 40
9, 35
13, 25
11, 21
12, 27
25, 22
17, 30
25, 24
28, 37
37, 69
55, 99
94, 131
159, 151
213, 195
268, 276
280, 345
352, 345
383, 360
345, 329
329, 266
261, 244
176, 155
127, 121
97, 84
57, 53
26, 40
21, 23
10, 10
8, 12
5, 17
9, 7
13, 14
12, 11
10, 15
10, 12
18, 13
15, 8
12, 14
11, 6
11, 7
5, 5
6, 11
7, 5
7, 6
3, 10
5, 6
4, 6
5, 10
5, 5
4, 7
6, 8
3, 4
3, 2
5, 5
7, 4
5, 6
2, 1
4, 2
3, 3
4, 1
4, 3
2, 1
3, 3
4, 7
2, 8
5, 10
7, 13
7, 9
9, 17
4, 19
10, 18
7, 28
10, 17
6, 27
12, 26
15, 14
9, 15
9, 7
4, 11
7, 9
4, 5
8, 7
3, 4
3, 6
3, 6
4, 5
2, 2
8, 2
1, 2
4, 3
8, 3
2, 0
4, 4
2, 2
0, 4
6, 4
1, 2
4, 5
6, 2
6, 6
4, 3
2, 3
8, 5
7, 6
4, 2
2, 5
7, 4
4, 4
4, 6
4, 0
4, 3
2, 5
3, 2
5, 2
3, 1
1, 3
2, 3
5, 4
0, 1
2, 4
8, 1
5, 5
4, 5
5, 4
1, 0
1, 4
4, 4
2, 1
2, 2
1, 0
1, 2
4, 5
3, 2
4, 7
1, 4
2, 4
4, 1
4, 2
2, 4
1, 2
2, 3
0, 1
1, 1
4, 1
6, 2
2, 2
5, 2
1, 2
6, 4
0, 3
6, 1
6, 1
5, 3
1, 5
2, 3
3, 4
1, 0
3, 3
5, 3
3, 1
1, 2
2, 5
3, 1
3, 1
1, 1
3, 1
2, 2
2, 4
5, 4
1, 4
3, 2
5, 1
0, 3
2, 2
0, 8
6, 3
2, 2
4, 4
3, 0
3, 1
1, 1
0, 3
3, 3
2, 2
1, 4
4, 2
1, 4
2, 4
3, 2
5, 4
6, 3
3, 3
4, 0
5, 3
6, 3
2, 3
2, 1
2, 4
5, 1
3, 0
2, 2
2, 2
0, 5
1, 4
1, 0
3, 2
1, 1
1, 1
3, 0
3, 1
4, 4
2, 0
4, 3
2, 0
2, 2
3, 3
2, 2
6, 4
4, 2
4, 1
1, 1
3, 3
3, 2
2, 0
2, 0
2, 2
1, 3
2, 1
1, 0
4, 1
3, 3
4, 1
2, 1
2, 1
1, 1
1, 4
3, 3
2, 0
2, 2
2, 4
0, 1
2, 0
2, 2
1, 0
1, 4
4, 0
2, 3
0, 1
2, 3
1, 2
2, 2
0, 1
1, 1
0, 0
1, 0
2, 5
6, 5
1, 4
0, 1
1, 3
3, 4
1, 2
2, 2
2, 2
4, 1
3, 3
1, 5
2, 1
4, 0
3, 1
0, 4
0, 1
2, 0
2, 1
0, 1
1, 2
1, 2
2, 2
0, 0
2, 1
1, 2
1, 1
0, 1
3, 2
0, 1
1, 2
1, 1
3, 2
2, 2
1, 3
2, 2
2, 0
3, 2
0, 2
3, 0
0, 2
0, 1
0, 0
2, 3
1, 2
0, 3
2, 1
2, 1
2, 2
2, 0
3, 0
1, 1
1, 1
1, 3
2, 2
3, 2
2, 1
1, 1
1, 4
3, 1
0, 1
1, 1
0, 3
0, 2
1, 0
1, 1
3, 1
3, 1
4, 1
1, 0
2, 3
1, 4
1, 1
3, 3
0, 3
2, 0
1, 2
1, 1
1, 0
0, 2
1, 2
1, 0
1, 3
2, 0
1, 0
1, 0
1, 1
0, 0
0, 0
1, 2
1, 0
1, 1
0, 1
0, 0
1, 1
2, 0
0, 0
2, 1
0, 1
3, 2
0, 1
1, 1
0, 0
1, 1
0, 1
3, 0
2, 1
0, 0
0, 1
0, 0
0, 1
0, 0
0, 0
3, 0
1, 0
0, 0
2, 1
2, 2
0, 1
1, 1
1, 0
0, 0
1, 0
2, 1
1, 1
0, 1
2, 1
1, 0
1, 0
1, 1
1, 1
0, 1
0, 0
1, 0
0, 0
0, 0
0, 0
0, 0
0, 1
1, 1
0, 1
0, 2
0, 1
0, 1
1, 3
0, 0
0, 1
0, 0
2, 1
1, 0
0, 0
1, 0
0, 2
0, 0
2, 1
0, 1
1, 1
1, 0
1, 0
0, 1
0, 0
0, 0
1, 1
0, 0
1, 0
1, 0
2, 1
0, 1
0, 0
0, 0
0, 2
0, 0
0, 0
1, 1
1, 0
0, 0
0, 1
4, 0
0, 0
1, 0
1, 1
0, 0
0, 0
1, 0
0, 0
0, 0
0, 0
0, 0
1, 0
0, 0
0, 0
0, 0
0, 1
0, 1
0, 0
0, 0
0, 1
0, 0
1, 0
0, 0
0, 1
0, 1
0, 0
0, 1
0, 0
0, 0
0, 0
0, 1
0, 1
0, 0
0, 1
0, 0
0, 0
0, 0
0, 1
1, 0
1, 0
0, 1
0, 2
0, 0
0, 0
1, 1
0, 0
2, 0
0, 0
0, 1
0, 0
0, 0
0, 0
0, 1
0, 0
0, 0
0, 0
0, 0
0, 0
0, 1
0, 0
2, 1
1, 0
0, 0
0, 1
0, 1
0, 0
0, 0
0, 0
1, 2
0, 0
0, 0
0, 1
0, 0
0, 0
1, 0
0, 1
1, 0
0, 0
1, 1
0, 0
0, 1
0, 0
0, 0
0, 0
1, 0
0, 0
0, 1
1, 0
1, 0
1, 0
0, 0
0, 1
0, 0
1, 1
0, 0
0, 0
0, 1
1, 0
0, 0
0, 0
0, 1
0, 1
0, 0
0, 0
0, 0
0, 1
0, 0
0, 0
0, 0
0, 0
0, 0
0, 0
0, 0
0, 0
0, 0
0, 0
0, 0
0, 0
0, 0
0, 0
0, 0
0, 0
0, 0
0, 0
0, 0
0, 0
0, 1
0, 1
0, 0
0, 0
0, 0
0, 0
0, 0
0, 0
0, 0
0, 1
0, 2
0, 0
0, 0
0, 0
0, 0
0, 0
1, 0
0, 0
0, 0
0, 0
0, 0
0, 0
0, 1
0, 0
0, 0
0, 0
0, 0
0, 0
1, 0
0, 1
0, 0
0, 0
0, 0
0, 0
0, 0
1, 0
1, 0
0, 0
0, 0
0, 0
0, 0
0, 0
0, 0
0, 1
0, 0
0, 0
0, 0
0, 0
0, 0
0, 0
0, 0
0, 0
0, 0
0, 0
0, 0
0, 1
0, 0
0, 0
0, 0
0, 0
0, 0
0, 0
0, 0
0, 0
0, 0
0, 0
0, 0
0, 0
0, 0
0, 0
0, 0
1, 0
0, 0
0, 0
0, 0
0, 0
0, 0
0, 0
0, 0
0, 0
0, 0
0, 0
0, 0
0, 1
0, 0
0, 0
0, 0
0, 0
0, 0
0, 0
0, 0
0, 0
0, 0
0, 0
0, 0
0, 0
1, 0
0, 0
0, 0
0, 0
0, 0
0, 1
0, 0
0, 0
0, 0
0, 0
0, 0
0, 0
0, 0
0, 0
0, 0
0, 0
0, 0
0, 0
0, 0
0, 0
0, 0
0, 0
0, 0
0, 0
0, 0
0, 0
0, 0
0, 0
1, 0
0, 0
0, 0
0, 0
0, 0
0, 0
0, 0
0, 0
0, 0
0, 0
0, 0
0, 0
0, 0
0, 0
0, 0
0, 0
0, 0
0, 0
0, 0
0, 0
0, 0
0, 0
0, 0
0, 0
0, 0
0, 0
0, 0
0, 0
0, 0
0, 0
0, 0
0, 0
0, 1
0, 0
0, 0
0, 0
0, 0
0, 0
0, 0
0, 0
0, 0
0, 0
0, 0
0, 0
0, 0
0, 0
0, 0
0, 0
0, 0
0, 1
0, 0
0, 0
0, 0
0, 0
0, 0
0, 0
0, 0
0, 0
0, 0
0, 0
0, 0
0, 0
0, 0
0, 0
0, 0
0, 0
0, 0
0, 0
0, 0
0, 0
0, 0
0, 0
0, 0
0, 0
0, 0
0, 0
0, 0
0, 0
0, 0
0, 0
0, 0
0, 0
0, 0
0, 0
0, 0
0, 0
0, 0
0, 0
0, 0
0, 0
0, 0
0, 0
0, 0
0, 0
0, 0
0, 0
0, 0
0, 0
0, 0
0, 0
0, 0
0, 0
0, 0
0, 0
0, 0
0, 0
0, 0
0, 0
0, 0
0, 0
0, 0
0, 0
0, 0
0, 0
0, 0
0, 0
0, 0
0, 0
0, 0
0, 0
0, 0
0, 0
0, 0
0, 0
0, 0
0, 0
0, 0
0, 0
0, 0
0, 0
0, 0
0, 0
0, 0
0, 0
0, 0
0, 0
0, 0
0, 0
0, 0
0, 0
0, 0
0, 0
0, 0
0, 0
0, 0
0, 0
0, 0
0, 0
0, 0
0, 0
0, 0
0, 0
0, 0
0, 0
0, 0
0, 0
0, 0
0, 0
0, 0
0, 0
0, 0
0, 0
0, 0
0, 0
0, 0
0, 0
0, 0
0, 0
0, 0
0, 0
0, 0
0, 0
0, 0
0, 0
0, 0
0, 0
0, 0
0, 0
0, 0
0, 0
0, 0
0, 0
0, 0
0, 0
0, 0
0, 0
0, 0
0, 0
0, 0
0, 0
0, 0
0, 0
0, 0
0, 0
0, 0
0, 0
0, 0
0, 0
0, 0
0, 0
0, 0
0, 0
0, 0
0, 0
0, 0
0, 0
0, 0
0, 0
0, 0
0, 0
0, 0
0, 0
0, 0
0, 0
0, 0
0, 0
0, 0
0, 0
0, 0
0, 0
0, 0
0, 0
0, 0
0, 0
0, 0
0, 0
0, 0
0, 0
0, 0
0, 0
0, 0
0, 0
0, 0
0, 0
0, 0
0, 0
0, 0
0, 0
0, 0
0, 0
0, 0
0, 0
0, 0
0, 0
0, 0
0, 0
0, 0
0, 0
0, 0
0, 0
0, 0
0, 0
0, 0
0, 0
0, 0
0, 0
0, 0
0, 0
0, 0
0, 0
0, 0
0, 0
0, 0
0, 0
0, 0
0, 0
0, 0
0, 0
0, 0
0, 0
0, 0
0, 0
0, 0
0, 0
0, 0
0, 0
0, 0
0, 0
0, 0
0, 0
0, 0
0, 0
0, 0
0, 0
0, 0
0, 0
0, 0
0, 0
0, 0
0, 0
0, 0
0, 0
0, 0
0, 0
0, 0
0, 0
0, 0
0, 0
0, 0
0, 0
0, 0
0, 0
0, 0
0, 0
0, 0
0, 0
0, 0
0, 0
0, 0
0, 0
0, 0
0, 0
0, 0
0, 0
0, 0
0, 0
0, 0
0, 0
0, 0
0, 0
0, 0
0, 0
0, 0
0, 0
0, 0
0, 0
0, 0
0, 0
0, 0
0, 0
0, 0
0, 0
0, 0
0, 0
0, 0
0, 0
0, 0
0, 0
0, 0
0, 0
0, 0
0, 0
0, 0
0, 0
0, 0
0, 0
0, 0
0, 0
0, 0
0, 0
0, 0
0, 0
0, 0
0, 0
0, 0
0, 0
0, 0
0, 0
0, 0
0, 0
0, 0
0, 0
0, 0
0, 0
0, 0
0, 0
0, 0
0, 0
0, 0
0, 0
0, 0
0, 0
0, 0
0, 0
0, 0
0, 0
0, 0
0, 0
0, 0
0, 0
0, 0
0, 0
0, 0
0, 0
0, 0
0, 0
0, 0
0, 0
0, 0
0, 0
0, 0
0, 0
0, 0
0, 0
0, 0
0, 0
0, 0
0, 0
0, 0
0, 0
0, 0
#ENDOFDATA     end of spectrum data