File: host_upload/06-09-2024/ps_0852/dump3/ps__0852shot_2349.msa
#FORMAT      : EMSA/MAS spectral data file
#VERSION     : TC202v2.0 PIXL
#TITLE       : N/A
#DATE        :       Date in the format DD-MMM-YYYY, for example 07-JUL-2010
#TIME        :             The time of day at which the spectrum was recorded, in 24-hour format
#OWNER       : PIXL Flight Model       (PIXL will use this to indicate which instrument took the data.)
#NPOINTS     : 4096     Number of data points in the spectrum (This can be zero for configuration only files)
#NCOLUMNS    : 2     Number of data columns in the spectrum (This can be zero for configuration only files)
#XUNITS      : eV
#YUNITS      : COUNTS
#DATATYPE    : YY
#XPERCHAN    : 7.862, 7.881   eV per channel (separate by commas if more than one detector)
#OFFSET      : 18.5, -22.4         eV of first channel  (separate by commas if more than one detector
#SIGNALTYPE  : XRF
#YP_TEMP     : 2.364
#LIVETIME    : 8.56756, 8.54988   seconds (separate by commas if more than one detector)
#REALTIME    : 10, 10.0   seconds (separate by commas if more than one detector)
#SPECTRUM    : start of spectrum data
0, 0
0, 0
0, 0
0, 0
0, 0
0, 0
0, 0
0, 0
0, 0
0, 0
0, 0
0, 0
0, 0
0, 0
0, 0
0, 0
0, 0
0, 0
0, 0
0, 0
0, 0
0, 0
0, 0
0, 0
0, 0
0, 0
0, 0
0, 0
0, 0
0, 0
0, 0
0, 0
1, 0
0, 0
0, 2
0, 0
0, 2
1, 2
1, 1
2, 2
0, 2
1, 0
2, 0
3, 1
0, 2
1, 1
3, 2
4, 4
5, 7
14, 12
22, 31
50, 38
45, 57
79, 77
63, 78
67, 78
66, 51
45, 38
23, 18
9, 16
9, 10
5, 3
6, 1
3, 5
6, 3
6, 3
9, 9
17, 12
26, 21
45, 51
99, 103
184, 190
333, 300
383, 398
437, 425
437, 448
409, 401
310, 305
196, 206
142, 140
66, 46
34, 40
22, 19
6, 9
3, 10
2, 3
1, 1
2, 1
3, 1
0, 1
3, 1
1, 1
1, 4
5, 3
5, 8
11, 15
10, 17
10, 22
18, 37
16, 25
16, 16
20, 21
8, 13
4, 6
8, 5
7, 4
9, 6
11, 10
13, 9
17, 21
19, 26
37, 46
38, 37
47, 40
50, 45
46, 46
39, 44
35, 31
33, 36
26, 36
32, 21
24, 28
23, 21
13, 16
11, 22
9, 14
8, 12
15, 7
3, 9
6, 7
2, 5
7, 1
4, 3
3, 3
3, 2
3, 1
2, 1
5, 4
2, 2
3, 3
5, 0
3, 3
2, 3
6, 4
3, 5
7, 4
6, 1
9, 3
10, 0
15, 1
15, 5
8, 6
9, 8
15, 25
15, 21
23, 28
33, 44
29, 40
34, 43
39, 34
29, 41
21, 31
18, 35
11, 36
3, 50
9, 41
4, 41
5, 26
5, 30
8, 32
8, 12
12, 11
5, 8
4, 11
4, 8
9, 10
3, 3
2, 5
3, 8
4, 4
4, 4
8, 2
0, 4
4, 6
2, 2
2, 2
5, 5
3, 3
9, 6
14, 17
14, 9
18, 5
11, 12
11, 10
22, 16
17, 16
21, 9
16, 13
15, 16
15, 12
5, 11
4, 8
8, 13
5, 3
7, 14
6, 7
7, 2
5, 3
6, 14
6, 15
5, 24
6, 28
7, 23
5, 40
4, 38
6, 28
6, 36
6, 23
5, 14
4, 16
4, 11
5, 10
5, 13
6, 13
4, 23
7, 23
8, 27
20, 32
11, 37
12, 37
20, 29
15, 26
16, 20
25, 24
19, 30
16, 8
15, 17
11, 15
7, 25
3, 26
4, 20
3, 21
7, 19
10, 16
11, 19
17, 28
33, 36
33, 37
44, 53
58, 59
68, 67
69, 53
64, 58
52, 40
54, 32
44, 38
34, 23
45, 18
31, 14
29, 15
26, 16
26, 34
54, 56
76, 99
169, 205
256, 327
480, 612
788, 936
1100, 1354
1489, 1839
1894, 2165
2260, 2382
2369, 2475
2324, 2306
2149, 1986
1705, 1508
1350, 1053
967, 741
623, 469
360, 242
206, 145
121, 65
54, 40
48, 25
20, 25
24, 10
28, 18
21, 13
23, 18
34, 19
34, 24
63, 38
101, 65
103, 95
160, 114
196, 169
244, 223
303, 300
317, 360
351, 359
362, 369
340, 382
319, 258
281, 221
174, 167
144, 95
82, 63
59, 45
37, 28
13, 17
12, 10
7, 4
7, 6
7, 6
12, 12
14, 12
17, 12
9, 17
11, 10
16, 12
9, 16
9, 9
20, 10
9, 7
10, 7
7, 6
4, 10
4, 9
2, 9
6, 7
3, 7
3, 9
1, 7
3, 11
6, 5
5, 9
1, 9
10, 5
4, 5
3, 8
4, 11
4, 11
5, 11
4, 6
3, 9
6, 5
3, 11
6, 9
5, 8
7, 4
6, 2
5, 7
2, 3
4, 4
6, 5
7, 5
8, 7
4, 11
12, 8
9, 10
16, 12
14, 6
16, 3
7, 7
9, 5
14, 1
14, 2
10, 4
10, 4
6, 6
3, 5
7, 2
7, 3
4, 7
1, 5
5, 2
4, 6
5, 10
4, 3
5, 11
4, 5
3, 1
3, 4
3, 1
3, 4
3, 6
6, 4
2, 5
3, 7
5, 11
5, 16
5, 17
2, 11
7, 17
6, 12
6, 17
5, 23
10, 12
10, 20
15, 9
7, 14
20, 4
22, 5
14, 5
23, 2
20, 6
11, 1
14, 4
13, 4
8, 2
7, 6
1, 2
3, 0
5, 2
2, 2
3, 2
1, 4
4, 5
2, 5
5, 0
6, 6
2, 7
1, 7
4, 7
5, 6
4, 6
4, 8
2, 7
1, 6
4, 5
4, 5
4, 5
2, 6
4, 9
2, 3
3, 7
3, 5
5, 2
9, 5
6, 3
5, 2
7, 7
11, 2
6, 3
7, 5
5, 5
6, 4
6, 5
4, 0
6, 3
5, 5
3, 5
5, 2
0, 2
1, 0
5, 6
5, 1
3, 5
4, 1
2, 6
4, 4
3, 2
10, 1
0, 4
2, 2
4, 5
3, 1
0, 1
3, 2
1, 3
6, 1
3, 2
4, 0
1, 3
3, 3
1, 3
1, 0
2, 1
3, 0
2, 2
0, 2
1, 1
6, 1
2, 0
1, 1
1, 1
0, 1
2, 4
3, 1
4, 4
5, 2
1, 2
1, 3
1, 3
1, 3
2, 2
1, 4
1, 1
6, 4
1, 4
4, 5
2, 1
4, 0
3, 9
4, 3
2, 0
1, 6
2, 4
4, 10
3, 4
6, 3
3, 0
0, 0
1, 2
7, 1
1, 5
1, 2
2, 7
3, 2
1, 5
1, 0
3, 1
2, 1
1, 1
0, 2
1, 0
4, 3
0, 3
3, 2
1, 3
7, 2
2, 1
2, 3
1, 2
0, 0
6, 1
4, 3
2, 5
6, 1
1, 4
7, 3
1, 3
4, 3
4, 2
6, 5
4, 2
4, 4
7, 2
3, 6
5, 5
2, 5
3, 2
3, 2
4, 0
2, 3
2, 3
2, 0
1, 2
2, 0
2, 2
2, 1
3, 0
1, 3
2, 4
2, 1
2, 3
1, 2
2, 6
1, 4
1, 2
2, 0
2, 0
3, 2
1, 3
3, 2
0, 1
1, 1
0, 3
2, 2
0, 1
2, 1
4, 1
1, 5
1, 0
0, 1
0, 1
0, 2
0, 1
5, 0
0, 1
1, 1
3, 1
2, 1
1, 5
2, 1
2, 3
1, 2
0, 0
3, 0
3, 1
2, 0
3, 1
1, 0
1, 1
3, 1
2, 0
0, 0
1, 0
0, 2
1, 0
2, 0
0, 0
1, 2
0, 0
0, 2
0, 1
1, 2
1, 1
0, 0
1, 4
1, 1
0, 1
3, 1
0, 0
0, 2
0, 1
0, 1
0, 0
1, 1
1, 1
0, 0
3, 0
1, 1
0, 0
0, 1
1, 0
1, 1
0, 0
0, 2
1, 1
0, 0
1, 0
0, 1
1, 2
1, 1
1, 0
0, 1
0, 0
1, 2
1, 1
1, 2
1, 1
0, 0
1, 1
1, 1
1, 1
0, 1
0, 3
0, 0
0, 1
0, 0
1, 1
0, 1
0, 0
0, 0
1, 0
0, 1
0, 0
1, 1
3, 0
1, 2
0, 0
2, 0
1, 0
0, 1
0, 1
0, 1
0, 0
0, 1
0, 1
1, 1
0, 1
1, 0
2, 2
1, 1
1, 0
0, 1
0, 1
0, 0
0, 0
0, 2
0, 0
2, 1
0, 0
2, 1
2, 0
0, 0
0, 1
0, 1
0, 0
0, 0
2, 0
0, 1
0, 1
1, 1
0, 2
0, 0
2, 0
0, 0
0, 0
0, 0
0, 1
0, 0
0, 0
0, 1
0, 1
1, 0
0, 0
1, 0
1, 0
0, 0
1, 0
0, 0
0, 0
0, 0
1, 1
1, 0
0, 0
0, 0
0, 0
1, 0
1, 0
0, 0
0, 0
0, 1
0, 0
0, 0
0, 0
1, 0
0, 0
1, 0
1, 0
0, 0
0, 0
0, 2
1, 0
0, 0
0, 0
0, 0
0, 1
1, 1
0, 0
0, 1
0, 0
0, 0
0, 0
0, 0
0, 0
2, 0
1, 0
0, 0
0, 0
1, 0
0, 0
0, 0
0, 0
1, 0
0, 0
0, 0
0, 1
0, 1
0, 0
0, 0
0, 0
0, 1
0, 0
0, 0
0, 0
0, 0
0, 0
0, 2
1, 1
0, 1
1, 0
0, 0
0, 0
1, 1
1, 0
0, 0
0, 0
1, 0
1, 0
0, 1
0, 0
0, 0
0, 0
0, 1
0, 2
2, 0
0, 0
0, 0
0, 0
0, 0
0, 0
0, 0
0, 0
0, 1
1, 0
0, 0
0, 0
0, 0
0, 0
0, 1
0, 0
0, 1
0, 0
0, 0
0, 0
0, 1
1, 0
0, 0
0, 1
0, 0
0, 0
1, 0
1, 0
0, 0
0, 0
0, 0
0, 0
0, 0
0, 0
0, 1
0, 0
0, 1
0, 0
0, 0
0, 0
0, 0
0, 0
0, 0
0, 0
0, 0
0, 1
0, 0
0, 0
0, 1
0, 0
0, 0
0, 0
0, 0
0, 0
0, 1
0, 0
0, 0
0, 0
1, 0
0, 0
0, 0
0, 0
0, 0
0, 0
1, 0
0, 0
0, 0
0, 0
0, 1
0, 0
0, 0
0, 0
0, 0
0, 0
0, 0
0, 0
0, 0
0, 0
0, 0
0, 0
1, 0
0, 0
0, 0
0, 0
0, 0
0, 0
0, 0
0, 1
0, 0
0, 0
0, 0
0, 0
0, 0
0, 0
0, 0
0, 0
0, 0
0, 0
0, 0
0, 0
0, 0
0, 0
0, 1
0, 1
0, 0
0, 1
0, 0
0, 0
0, 0
0, 0
0, 0
1, 0
0, 0
0, 0
0, 0
0, 0
0, 0
0, 0
0, 0
0, 0
0, 0
0, 0
0, 0
0, 0
0, 0
0, 0
0, 0
0, 0
0, 0
0, 0
0, 0
0, 0
0, 0
0, 0
0, 0
0, 0
1, 0
0, 0
0, 0
0, 0
0, 1
0, 0
0, 0
0, 0
0, 0
0, 1
0, 0
0, 0
0, 0
0, 0
0, 0
0, 0
0, 0
0, 0
0, 0
0, 0
0, 1
0, 0
0, 0
0, 0
0, 0
0, 0
0, 0
0, 0
1, 0
0, 0
0, 0
0, 0
0, 0
0, 0
0, 0
0, 0
0, 0
0, 0
0, 0
0, 0
0, 0
0, 0
0, 0
0, 0
0, 0
0, 0
0, 0
0, 0
0, 1
0, 0
1, 0
0, 0
0, 0
0, 0
0, 1
0, 0
0, 0
0, 1
0, 0
0, 0
0, 0
0, 0
0, 0
0, 0
0, 0
0, 0
0, 0
0, 0
0, 0
0, 0
0, 0
0, 0
0, 0
0, 0
0, 0
0, 0
0, 0
0, 0
0, 0
0, 0
0, 0
0, 0
0, 0
0, 0
0, 0
0, 0
0, 0
0, 0
0, 0
0, 0
0, 0
0, 0
0, 0
0, 0
0, 0
0, 0
0, 0
0, 0
0, 0
0, 0
0, 0
0, 0
0, 0
0, 0
0, 0
0, 0
0, 0
0, 0
0, 0
0, 0
0, 0
0, 0
0, 0
0, 0
0, 0
0, 0
0, 0
0, 0
0, 0
0, 0
0, 0
0, 0
0, 0
0, 0
0, 0
0, 1
0, 0
0, 0
0, 0
0, 0
0, 0
0, 0
0, 0
0, 0
0, 0
0, 0
0, 0
0, 0
0, 0
0, 0
0, 0
0, 0
0, 0
0, 0
0, 0
0, 0
0, 0
0, 0
0, 0
0, 0
0, 0
0, 0
0, 0
0, 0
0, 0
0, 0
0, 0
0, 0
0, 0
0, 0
0, 0
0, 0
0, 0
0, 0
0, 0
0, 0
0, 0
0, 0
0, 0
0, 0
0, 0
0, 0
0, 0
0, 0
0, 0
0, 0
0, 0
0, 0
0, 0
0, 0
0, 0
0, 0
0, 0
0, 0
0, 0
0, 0
0, 0
0, 0
0, 0
0, 0
0, 0
0, 0
0, 0
0, 0
0, 0
0, 0
0, 0
0, 0
0, 0
0, 0
0, 0
0, 0
0, 0
0, 0
0, 0
0, 0
0, 0
0, 0
0, 0
0, 0
0, 0
0, 0
0, 0
0, 0
0, 0
0, 0
0, 0
0, 0
0, 0
0, 0
0, 0
0, 0
0, 0
0, 0
0, 0
0, 0
0, 0
0, 0
0, 0
0, 0
0, 0
0, 0
0, 0
0, 0
0, 0
0, 0
0, 0
0, 0
0, 0
0, 0
0, 0
0, 0
0, 0
0, 0
0, 0
0, 0
0, 0
0, 0
0, 0
0, 0
0, 0
0, 0
0, 0
0, 0
0, 0
0, 0
0, 0
0, 0
0, 0
0, 0
0, 0
0, 0
0, 0
0, 0
0, 0
0, 0
0, 0
0, 0
0, 0
0, 0
0, 0
0, 0
0, 0
0, 0
0, 0
0, 0
0, 0
0, 0
0, 0
0, 0
0, 0
0, 0
0, 0
0, 0
0, 0
0, 0
0, 0
0, 0
0, 0
0, 0
0, 0
0, 0
0, 0
0, 0
0, 0
0, 0
0, 0
0, 0
0, 0
0, 0
0, 0
0, 0
0, 0
0, 0
0, 0
0, 0
0, 0
0, 0
0, 0
0, 0
0, 0
0, 0
0, 0
0, 0
0, 0
0, 0
0, 0
0, 0
0, 0
0, 0
0, 0
0, 0
0, 0
0, 0
0, 0
0, 0
0, 0
0, 0
0, 0
0, 0
0, 0
0, 0
0, 0
0, 0
0, 0
0, 0
0, 0
0, 0
0, 0
0, 0
0, 0
0, 0
0, 0
0, 0
0, 0
0, 0
0, 0
0, 0
0, 0
0, 0
0, 0
0, 0
0, 0
0, 0
0, 0
0, 0
0, 0
0, 0
0, 0
0, 0
0, 0
0, 0
0, 0
0, 0
0, 0
0, 0
0, 0
0, 0
0, 0
0, 0
0, 0
0, 0
0, 0
0, 0
0, 0
0, 0
0, 0
0, 0
0, 0
0, 0
0, 0
0, 0
0, 0
0, 0
0, 0
0, 0
0, 0
0, 0
0, 0
0, 0
0, 0
0, 0
0, 0
0, 0
0, 0
0, 0
0, 0
0, 0
0, 0
0, 0
0, 0
0, 0
0, 0
0, 0
0, 0
0, 0
0, 0
0, 0
0, 0
0, 0
0, 0
0, 0
0, 0
0, 0
0, 0
0, 0
0, 0
0, 0
0, 0
0, 0
0, 0
0, 0
0, 0
0, 0
0, 0
0, 0
0, 0
0, 0
0, 0
0, 0
0, 0
0, 0
#ENDOFDATA     end of spectrum data