File: host_upload/06-09-2024/ps_0852/dump3/ps__0852shot_2409.msa
#FORMAT      : EMSA/MAS spectral data file
#VERSION     : TC202v2.0 PIXL
#TITLE       : N/A
#DATE        :       Date in the format DD-MMM-YYYY, for example 07-JUL-2010
#TIME        :             The time of day at which the spectrum was recorded, in 24-hour format
#OWNER       : PIXL Flight Model       (PIXL will use this to indicate which instrument took the data.)
#NPOINTS     : 4096     Number of data points in the spectrum (This can be zero for configuration only files)
#NCOLUMNS    : 2     Number of data columns in the spectrum (This can be zero for configuration only files)
#XUNITS      : eV
#YUNITS      : COUNTS
#DATATYPE    : YY
#XPERCHAN    : 7.862, 7.881   eV per channel (separate by commas if more than one detector)
#OFFSET      : 18.5, -22.4         eV of first channel  (separate by commas if more than one detector
#SIGNALTYPE  : XRF
#YP_TEMP     : 2.107
#LIVETIME    : 8.5751, 8.57953   seconds (separate by commas if more than one detector)
#REALTIME    : 10, 10.0   seconds (separate by commas if more than one detector)
#SPECTRUM    : start of spectrum data
0, 0
0, 0
0, 0
0, 0
0, 0
0, 0
0, 0
0, 0
0, 0
0, 0
0, 0
0, 0
0, 0
0, 0
0, 0
0, 0
0, 0
0, 0
0, 0
0, 0
0, 0
0, 0
0, 0
0, 0
0, 0
0, 0
0, 0
0, 0
0, 0
0, 0
0, 0
0, 0
0, 0
0, 0
0, 0
0, 0
1, 1
0, 0
1, 2
0, 1
3, 5
0, 3
3, 0
2, 2
1, 1
0, 1
2, 0
3, 3
3, 2
19, 11
18, 30
29, 36
62, 49
75, 78
74, 85
63, 72
56, 53
38, 39
22, 26
12, 17
8, 6
1, 3
3, 3
1, 2
3, 1
4, 6
2, 2
5, 14
19, 13
42, 57
112, 103
155, 201
259, 281
368, 394
394, 443
406, 466
382, 433
322, 286
190, 224
139, 151
62, 75
36, 43
15, 24
8, 9
1, 3
1, 3
3, 1
3, 1
0, 1
0, 1
3, 0
2, 0
0, 1
0, 4
1, 0
5, 3
3, 4
7, 8
3, 4
6, 8
3, 2
4, 6
4, 2
5, 4
3, 6
2, 3
7, 13
10, 9
11, 20
18, 24
22, 36
34, 63
47, 70
42, 72
41, 67
58, 76
44, 63
36, 60
30, 34
18, 48
17, 25
21, 35
19, 23
9, 15
6, 22
20, 15
17, 11
11, 11
11, 11
5, 7
13, 2
3, 3
2, 3
1, 3
1, 3
1, 5
3, 3
1, 1
1, 2
1, 4
1, 3
0, 1
2, 2
1, 2
2, 3
1, 0
2, 2
1, 3
1, 5
3, 6
0, 1
3, 2
2, 6
6, 7
7, 11
7, 15
16, 13
11, 12
9, 15
12, 7
14, 8
9, 6
9, 3
7, 4
9, 8
5, 3
2, 2
4, 3
6, 2
5, 4
0, 5
3, 5
4, 2
2, 4
6, 1
7, 6
10, 7
8, 5
5, 7
15, 11
16, 5
18, 4
22, 4
19, 4
21, 6
21, 7
14, 4
8, 3
6, 11
7, 8
8, 11
7, 5
7, 12
5, 10
11, 13
9, 15
12, 12
18, 16
8, 11
19, 14
12, 18
16, 11
5, 8
7, 10
4, 10
6, 6
9, 8
7, 5
2, 3
5, 7
8, 7
5, 5
5, 9
8, 12
4, 9
4, 7
6, 12
3, 14
2, 33
7, 26
2, 38
2, 47
2, 45
8, 64
13, 73
7, 48
9, 51
9, 49
15, 36
15, 34
17, 23
18, 23
15, 18
24, 9
21, 13
17, 6
33, 12
41, 7
28, 13
28, 6
28, 11
33, 6
35, 6
24, 15
22, 15
37, 16
18, 29
40, 42
47, 45
34, 44
59, 68
54, 65
53, 69
50, 50
36, 40
36, 36
22, 29
18, 21
15, 19
12, 10
13, 22
25, 28
29, 58
67, 130
129, 209
262, 378
404, 577
727, 991
1044, 1393
1470, 1913
1736, 2318
2175, 2564
2289, 2599
2222, 2405
1871, 2101
1648, 1643
1159, 1178
850, 728
525, 490
315, 260
179, 136
91, 95
41, 43
29, 23
8, 19
16, 20
12, 18
15, 15
16, 13
9, 17
19, 27
27, 40
48, 55
84, 74
99, 124
140, 162
183, 223
226, 303
277, 361
334, 411
349, 387
347, 346
275, 282
230, 239
156, 167
129, 102
79, 66
56, 40
34, 21
22, 12
13, 5
4, 8
10, 9
7, 11
9, 10
15, 14
19, 11
8, 17
10, 19
20, 13
13, 14
12, 12
3, 6
6, 5
9, 9
6, 4
5, 4
7, 6
5, 3
5, 1
3, 3
4, 2
2, 1
1, 6
5, 10
3, 11
4, 9
4, 9
2, 3
3, 10
2, 9
5, 6
4, 9
4, 9
4, 5
3, 6
4, 6
3, 5
1, 3
6, 5
6, 10
5, 9
5, 4
2, 5
2, 3
3, 6
6, 3
4, 5
4, 3
0, 3
3, 3
3, 1
7, 2
1, 6
4, 1
2, 6
7, 2
3, 4
6, 2
5, 5
5, 4
4, 6
0, 6
3, 1
6, 2
5, 4
5, 6
3, 4
7, 5
1, 3
0, 9
3, 4
3, 4
2, 4
5, 4
2, 4
2, 9
0, 11
2, 10
6, 10
5, 11
4, 17
3, 11
0, 16
3, 20
2, 11
2, 17
4, 13
2, 10
7, 10
4, 10
3, 5
2, 2
5, 5
5, 4
3, 5
5, 0
5, 1
3, 5
4, 2
5, 2
4, 8
4, 3
5, 2
2, 5
2, 5
6, 1
8, 1
1, 2
6, 2
13, 7
13, 5
18, 3
20, 3
18, 0
13, 4
24, 3
22, 2
14, 2
9, 3
15, 2
5, 4
6, 3
3, 4
3, 2
3, 1
4, 2
5, 8
3, 2
5, 3
3, 6
2, 2
1, 8
2, 5
4, 1
1, 7
2, 7
3, 3
1, 9
3, 5
1, 7
2, 9
3, 8
4, 6
4, 9
3, 3
3, 8
1, 4
2, 5
3, 4
0, 3
1, 2
2, 5
2, 4
0, 1
5, 2
1, 1
2, 5
2, 2
1, 3
3, 3
3, 2
0, 2
1, 2
6, 5
2, 1
2, 2
3, 2
3, 1
1, 4
0, 2
1, 0
2, 2
2, 2
1, 2
3, 3
4, 6
4, 0
1, 2
7, 3
1, 2
3, 2
0, 2
3, 0
2, 2
4, 2
0, 3
4, 2
2, 5
4, 4
1, 6
3, 10
1, 1
2, 5
1, 2
2, 7
1, 6
0, 3
0, 4
0, 8
2, 4
2, 5
0, 5
2, 3
2, 2
1, 1
3, 3
4, 2
3, 1
6, 2
4, 1
2, 1
2, 4
3, 4
3, 0
5, 0
4, 0
4, 2
1, 4
5, 1
4, 1
5, 1
5, 1
1, 3
3, 1
1, 3
1, 3
1, 3
4, 2
2, 6
6, 3
3, 9
4, 3
3, 7
2, 6
5, 8
5, 4
6, 0
4, 1
7, 3
3, 4
2, 3
1, 1
3, 1
5, 1
0, 3
2, 2
2, 2
0, 0
1, 1
1, 3
1, 1
1, 1
0, 2
0, 1
4, 5
1, 2
1, 1
2, 1
1, 1
2, 1
2, 2
0, 2
1, 1
1, 3
3, 1
1, 0
0, 1
1, 0
0, 1
1, 2
0, 2
1, 0
2, 0
0, 0
0, 2
0, 1
0, 1
2, 2
3, 0
2, 0
2, 1
0, 0
0, 2
2, 1
0, 0
3, 1
4, 1
1, 0
2, 1
1, 1
0, 1
0, 1
0, 0
1, 1
0, 0
1, 0
0, 0
1, 1
0, 1
2, 1
3, 1
2, 2
1, 3
2, 1
0, 1
1, 0
1, 0
0, 1
1, 0
1, 1
1, 1
0, 2
3, 0
1, 1
1, 2
2, 2
1, 1
0, 0
1, 0
1, 2
0, 0
0, 1
0, 1
0, 0
0, 0
2, 0
1, 1
0, 1
0, 1
1, 0
1, 0
0, 1
0, 0
0, 1
1, 2
0, 1
0, 0
2, 0
0, 1
0, 1
0, 1
0, 2
1, 2
0, 2
0, 1
0, 0
1, 0
0, 0
2, 0
1, 0
0, 1
0, 0
0, 1
0, 1
0, 0
2, 0
0, 0
2, 0
1, 0
0, 1
1, 0
0, 1
0, 0
4, 0
0, 0
1, 1
1, 0
1, 1
0, 3
0, 0
0, 1
0, 2
2, 1
1, 1
0, 0
1, 0
0, 0
0, 0
1, 0
0, 0
0, 0
0, 0
0, 2
1, 1
0, 0
2, 0
0, 0
1, 0
0, 1
0, 0
1, 0
0, 0
0, 1
0, 1
0, 1
0, 1
1, 0
1, 2
0, 0
1, 0
1, 0
0, 1
0, 0
1, 0
0, 0
1, 0
0, 1
0, 0
0, 0
0, 0
0, 0
0, 0
1, 0
1, 1
1, 1
0, 0
0, 0
0, 1
0, 1
0, 0
0, 0
0, 1
0, 0
0, 0
0, 0
1, 0
1, 0
0, 0
1, 1
3, 0
0, 0
0, 1
0, 0
1, 0
1, 0
0, 0
0, 0
0, 0
0, 0
0, 0
0, 0
0, 0
0, 1
0, 0
1, 0
1, 0
0, 0
0, 0
0, 0
0, 0
0, 0
1, 0
1, 0
1, 0
0, 0
0, 1
0, 0
1, 0
1, 0
0, 0
1, 0
0, 0
0, 1
0, 0
0, 1
0, 1
0, 0
0, 0
1, 1
2, 0
0, 1
0, 0
0, 0
0, 1
1, 0
0, 1
0, 0
0, 0
0, 1
0, 0
0, 1
0, 0
0, 0
0, 2
0, 0
0, 0
0, 0
1, 0
0, 0
0, 0
1, 0
1, 1
0, 0
0, 2
1, 1
0, 0
0, 0
2, 0
1, 0
1, 0
0, 0
0, 1
0, 0
0, 0
0, 0
0, 0
0, 0
0, 0
0, 0
0, 0
0, 0
0, 0
0, 0
0, 0
0, 0
0, 1
0, 0
0, 0
0, 0
0, 0
0, 0
0, 1
0, 0
0, 0
0, 0
0, 0
0, 0
1, 0
0, 1
0, 0
0, 0
0, 0
0, 1
0, 0
0, 0
0, 0
0, 0
0, 0
0, 0
1, 0
1, 0
0, 0
0, 0
1, 1
1, 1
0, 0
0, 0
0, 0
0, 0
0, 0
0, 0
1, 0
0, 0
0, 0
0, 0
0, 0
0, 1
0, 0
0, 0
0, 0
0, 0
0, 0
1, 0
0, 0
0, 0
1, 0
0, 0
0, 0
0, 0
0, 0
0, 0
0, 0
0, 0
1, 0
0, 0
0, 1
0, 0
0, 0
0, 0
0, 0
0, 0
0, 0
0, 0
0, 0
0, 0
0, 0
0, 0
0, 0
0, 0
0, 0
0, 0
0, 0
0, 0
0, 0
0, 0
0, 0
0, 0
0, 0
0, 0
0, 0
0, 0
0, 0
0, 0
0, 0
0, 0
0, 0
0, 0
0, 0
0, 0
0, 0
0, 0
0, 0
0, 0
0, 0
0, 0
0, 0
0, 0
0, 0
0, 0
0, 0
0, 0
0, 0
0, 0
0, 0
0, 0
0, 0
0, 0
0, 0
0, 0
0, 0
0, 0
0, 0
0, 0
0, 0
0, 0
0, 0
0, 0
0, 0
0, 0
1, 0
0, 0
0, 0
1, 0
0, 0
0, 0
0, 0
0, 0
0, 0
0, 0
0, 0
0, 0
0, 0
0, 0
0, 0
0, 0
2, 1
0, 0
0, 0
0, 0
0, 0
0, 0
0, 0
0, 0
0, 0
0, 0
0, 0
0, 0
1, 0
0, 0
0, 0
0, 0
1, 0
0, 0
0, 0
0, 0
0, 0
0, 0
0, 0
0, 0
0, 0
0, 0
0, 0
0, 0
0, 0
0, 0
0, 0
0, 0
0, 0
0, 0
0, 0
0, 0
0, 0
0, 0
0, 0
0, 0
0, 0
0, 0
0, 0
0, 0
0, 0
0, 0
0, 0
0, 0
0, 0
0, 0
0, 0
0, 0
0, 0
0, 0
0, 0
0, 0
0, 0
0, 0
0, 0
0, 0
0, 0
0, 0
0, 0
0, 0
0, 0
0, 0
0, 0
0, 0
0, 0
0, 0
0, 0
0, 0
0, 0
0, 0
0, 0
0, 0
0, 0
0, 0
0, 0
0, 0
0, 0
0, 0
0, 0
0, 0
0, 0
0, 0
0, 0
0, 0
0, 0
0, 0
0, 0
0, 0
0, 0
0, 0
0, 0
0, 0
0, 0
0, 0
0, 0
0, 0
0, 0
0, 0
0, 0
0, 0
0, 0
0, 0
0, 0
0, 0
0, 0
0, 0
0, 0
0, 0
0, 0
0, 0
0, 0
0, 0
0, 0
0, 0
0, 0
0, 0
0, 0
0, 0
0, 0
0, 0
0, 0
0, 0
0, 0
0, 0
0, 0
0, 0
0, 0
0, 0
0, 0
0, 0
0, 0
0, 0
0, 0
0, 0
0, 0
0, 0
0, 0
0, 0
0, 0
0, 0
0, 0
0, 0
0, 0
0, 0
0, 0
0, 0
0, 0
0, 0
0, 0
0, 0
0, 0
0, 1
0, 0
0, 0
0, 0
0, 0
0, 0
0, 0
0, 0
0, 0
0, 0
0, 0
0, 0
0, 0
0, 0
0, 0
0, 0
0, 0
0, 0
0, 0
0, 0
0, 0
0, 0
0, 0
0, 0
0, 0
0, 0
0, 0
0, 0
0, 0
0, 0
0, 0
0, 0
0, 0
0, 0
0, 0
0, 0
0, 0
0, 0
0, 0
0, 0
0, 0
0, 0
0, 0
0, 0
0, 0
0, 0
0, 0
0, 0
0, 0
0, 0
0, 0
0, 0
0, 0
0, 0
0, 0
0, 0
0, 0
0, 0
0, 0
0, 0
0, 0
0, 0
0, 0
0, 0
0, 0
0, 0
0, 0
0, 0
0, 0
0, 0
0, 0
0, 0
0, 0
0, 0
0, 0
0, 0
0, 0
0, 0
0, 0
0, 0
0, 0
0, 0
0, 0
0, 0
0, 0
0, 0
0, 0
0, 0
0, 0
0, 0
0, 0
0, 0
0, 0
0, 0
0, 0
0, 0
0, 0
0, 0
0, 0
0, 0
0, 0
0, 0
0, 0
0, 0
0, 0
0, 0
0, 0
0, 0
0, 0
0, 0
0, 0
0, 0
0, 0
0, 0
0, 0
0, 0
0, 0
0, 0
0, 0
0, 0
0, 0
0, 0
0, 0
0, 0
0, 0
0, 0
0, 0
0, 0
0, 0
0, 0
0, 0
0, 0
0, 0
0, 0
0, 0
0, 0
0, 0
0, 0
0, 0
0, 0
0, 0
0, 0
0, 0
0, 0
0, 0
0, 0
0, 0
0, 0
0, 0
0, 0
0, 0
0, 0
0, 0
0, 0
0, 0
0, 0
0, 0
0, 0
0, 0
0, 0
0, 0
0, 0
0, 0
0, 0
0, 0
0, 0
0, 0
0, 0
0, 0
0, 0
0, 0
0, 0
0, 0
0, 0
0, 0
0, 0
0, 0
0, 0
0, 0
0, 0
0, 0
0, 0
0, 0
0, 0
0, 0
0, 0
0, 0
0, 0
0, 0
0, 0
0, 0
0, 0
0, 0
0, 0
0, 0
0, 0
0, 0
0, 0
0, 0
0, 0
0, 0
0, 0
0, 0
0, 0
0, 0
0, 0
0, 0
0, 0
0, 0
0, 0
0, 0
0, 0
0, 0
0, 0
0, 0
0, 0
0, 0
0, 0
0, 0
0, 0
0, 0
0, 0
0, 0
0, 0
0, 0
0, 0
0, 0
0, 0
0, 0
0, 0
0, 0
0, 0
0, 0
0, 0
0, 0
0, 0
0, 0
0, 0
0, 0
0, 0
0, 0
0, 0
0, 0
0, 0
0, 0
#ENDOFDATA     end of spectrum data