File: host_upload/06-09-2024/ps_0852/dump3/ps__0852shot_2007.msa
#FORMAT      : EMSA/MAS spectral data file
#VERSION     : TC202v2.0 PIXL
#TITLE       : N/A
#DATE        :       Date in the format DD-MMM-YYYY, for example 07-JUL-2010
#TIME        :             The time of day at which the spectrum was recorded, in 24-hour format
#OWNER       : PIXL Flight Model       (PIXL will use this to indicate which instrument took the data.)
#NPOINTS     : 4096     Number of data points in the spectrum (This can be zero for configuration only files)
#NCOLUMNS    : 2     Number of data columns in the spectrum (This can be zero for configuration only files)
#XUNITS      : eV
#YUNITS      : COUNTS
#DATATYPE    : YY
#XPERCHAN    : 7.862, 7.881   eV per channel (separate by commas if more than one detector)
#OFFSET      : 18.5, -22.4         eV of first channel  (separate by commas if more than one detector
#SIGNALTYPE  : XRF
#YP_TEMP     : 2.364
#LIVETIME    : 8.56995, 8.55802   seconds (separate by commas if more than one detector)
#REALTIME    : 10, 10.0   seconds (separate by commas if more than one detector)
#SPECTRUM    : start of spectrum data
0, 0
0, 0
0, 0
0, 0
0, 0
0, 0
0, 0
0, 0
0, 0
0, 0
0, 0
0, 0
0, 0
0, 0
0, 0
0, 0
0, 0
0, 0
0, 0
0, 0
0, 0
0, 0
0, 0
0, 0
0, 0
0, 0
0, 0
0, 0
0, 0
0, 0
0, 0
0, 0
0, 0
0, 0
0, 0
0, 0
0, 0
0, 0
1, 0
0, 2
1, 3
3, 0
2, 1
3, 0
1, 0
0, 0
2, 1
4, 0
8, 4
9, 12
26, 29
27, 45
42, 62
65, 71
59, 64
80, 83
56, 61
35, 41
20, 25
21, 18
6, 12
4, 6
6, 3
3, 8
7, 7
4, 7
10, 6
16, 15
16, 34
33, 40
83, 122
154, 174
212, 294
323, 375
355, 421
375, 433
316, 382
286, 312
172, 233
107, 117
62, 67
39, 34
16, 22
11, 14
9, 10
5, 7
8, 6
3, 4
5, 6
0, 3
1, 3
1, 5
3, 3
2, 2
5, 2
3, 2
4, 3
6, 5
5, 9
4, 4
8, 3
5, 2
1, 3
4, 3
3, 3
6, 4
10, 6
11, 11
13, 23
19, 31
38, 35
43, 49
47, 58
56, 60
63, 68
79, 53
59, 51
69, 43
47, 43
35, 35
35, 21
33, 34
23, 18
26, 18
15, 19
24, 23
13, 19
12, 13
17, 12
12, 2
3, 4
1, 5
2, 4
0, 3
3, 0
6, 4
2, 1
6, 0
2, 2
2, 2
3, 5
1, 3
5, 5
3, 5
4, 1
1, 3
1, 3
2, 2
5, 8
8, 9
0, 7
2, 11
6, 18
4, 13
19, 19
12, 21
18, 29
20, 24
17, 26
15, 26
21, 26
15, 17
6, 8
7, 2
7, 10
3, 4
6, 7
3, 4
3, 6
3, 9
8, 1
5, 8
10, 10
8, 10
16, 9
15, 8
10, 5
13, 3
20, 6
17, 2
15, 6
12, 6
16, 3
7, 7
12, 3
7, 6
10, 5
13, 9
12, 13
11, 12
14, 12
12, 14
12, 14
13, 20
11, 23
12, 23
18, 18
18, 23
15, 25
22, 31
19, 26
13, 30
16, 32
7, 34
10, 45
13, 20
5, 22
10, 24
11, 15
11, 14
15, 10
14, 14
10, 7
4, 11
13, 13
7, 9
14, 10
6, 5
7, 7
4, 11
7, 12
9, 3
5, 10
12, 9
13, 6
14, 17
10, 9
12, 12
20, 13
7, 16
13, 18
19, 17
16, 13
15, 12
23, 13
25, 12
30, 9
31, 12
48, 15
22, 7
29, 14
38, 11
36, 9
28, 19
12, 22
32, 26
28, 28
47, 31
47, 55
35, 59
43, 66
47, 69
55, 55
43, 46
34, 40
23, 31
19, 22
26, 22
8, 14
14, 16
17, 18
20, 37
54, 56
79, 112
135, 204
246, 370
412, 645
632, 991
969, 1422
1358, 1884
1698, 2259
1919, 2539
2045, 2535
2087, 2421
1796, 2195
1523, 1667
1193, 1251
853, 840
546, 511
331, 295
185, 180
118, 92
34, 57
44, 21
25, 29
11, 22
23, 21
13, 21
12, 13
18, 26
27, 35
32, 47
37, 59
65, 83
88, 135
118, 176
177, 227
228, 311
283, 373
302, 375
327, 360
300, 345
275, 288
245, 245
177, 170
136, 121
79, 69
55, 40
35, 25
19, 19
17, 12
9, 5
5, 7
7, 8
8, 9
11, 13
14, 21
11, 16
16, 19
8, 17
8, 11
7, 8
15, 10
8, 11
7, 7
3, 4
3, 4
4, 6
2, 3
4, 3
3, 1
4, 3
6, 1
5, 5
5, 5
6, 4
5, 6
3, 5
3, 9
2, 5
3, 7
3, 8
1, 4
8, 2
5, 3
6, 5
8, 12
8, 5
8, 7
12, 4
9, 6
17, 5
17, 8
14, 3
11, 2
14, 6
21, 6
20, 11
14, 11
14, 12
8, 12
6, 4
8, 9
10, 12
7, 13
6, 8
5, 10
3, 10
1, 11
5, 4
4, 1
6, 3
3, 9
2, 6
3, 6
3, 9
2, 5
2, 5
3, 6
3, 5
3, 6
2, 8
4, 7
3, 5
3, 5
2, 5
2, 3
3, 3
8, 3
3, 7
3, 2
4, 4
6, 6
5, 5
4, 7
2, 9
4, 3
1, 7
0, 6
4, 8
0, 8
1, 7
4, 2
2, 6
3, 4
4, 4
1, 6
5, 3
3, 4
2, 5
6, 3
1, 6
3, 2
4, 9
4, 8
3, 1
2, 6
1, 7
2, 1
3, 3
4, 1
3, 0
4, 4
5, 6
3, 4
2, 6
5, 8
2, 5
4, 3
3, 2
3, 4
4, 7
7, 9
1, 6
4, 4
3, 12
5, 7
2, 6
4, 6
5, 5
6, 5
5, 5
4, 3
5, 5
5, 0
3, 5
1, 1
1, 2
1, 1
2, 2
1, 4
3, 5
2, 2
3, 2
6, 2
6, 1
3, 3
3, 2
3, 4
2, 2
2, 2
4, 1
4, 3
1, 3
3, 2
2, 3
3, 2
2, 2
1, 1
2, 2
2, 3
4, 3
0, 3
3, 5
3, 2
3, 2
4, 0
3, 1
1, 3
4, 3
2, 2
4, 2
0, 3
3, 0
5, 0
2, 4
3, 0
1, 2
1, 2
1, 0
2, 2
0, 1
4, 2
1, 5
4, 2
4, 2
5, 3
4, 0
0, 2
1, 0
2, 3
1, 4
2, 3
3, 1
3, 2
2, 0
0, 1
1, 2
3, 4
2, 3
1, 3
2, 0
1, 3
2, 2
0, 4
4, 2
1, 2
0, 2
1, 2
2, 2
0, 3
1, 2
0, 1
2, 3
3, 2
0, 2
3, 1
0, 0
2, 4
2, 1
4, 5
0, 3
4, 3
3, 2
2, 5
1, 4
0, 1
3, 4
2, 2
0, 1
4, 1
10, 3
3, 7
2, 7
3, 3
3, 5
3, 4
2, 1
5, 2
2, 2
2, 3
2, 0
2, 1
0, 1
0, 0
0, 0
0, 3
0, 3
0, 1
3, 2
0, 1
2, 0
2, 0
3, 3
1, 4
0, 1
0, 1
3, 2
0, 4
3, 2
0, 3
2, 1
1, 0
2, 1
1, 1
2, 1
3, 1
3, 4
0, 4
1, 1
1, 3
1, 1
1, 4
2, 0
1, 1
4, 0
4, 2
2, 3
0, 2
0, 1
0, 1
0, 4
2, 2
0, 1
2, 1
3, 0
2, 1
1, 2
2, 0
3, 0
0, 1
2, 1
0, 0
1, 2
0, 1
0, 2
0, 1
2, 2
1, 0
2, 1
3, 0
0, 3
0, 0
1, 1
2, 1
0, 2
0, 2
0, 1
1, 1
0, 1
0, 0
0, 2
0, 0
2, 0
0, 1
1, 0
0, 3
0, 0
1, 0
1, 0
0, 0
0, 4
0, 0
0, 1
0, 2
2, 2
0, 0
3, 0
0, 1
1, 0
0, 0
1, 0
1, 0
1, 0
0, 0
2, 1
0, 0
0, 0
1, 2
0, 1
0, 0
0, 1
0, 0
1, 0
0, 0
0, 0
0, 0
0, 3
0, 0
1, 0
0, 1
1, 1
0, 1
0, 0
0, 1
1, 0
2, 1
1, 0
0, 0
1, 1
2, 2
0, 1
3, 0
2, 0
1, 1
0, 0
0, 0
0, 1
0, 2
0, 1
1, 1
0, 0
0, 1
0, 0
1, 0
0, 1
2, 0
0, 0
2, 0
0, 0
2, 1
0, 0
1, 0
0, 0
1, 0
2, 0
0, 0
1, 1
0, 0
1, 0
0, 0
0, 1
1, 1
1, 0
0, 0
0, 0
0, 1
0, 0
0, 0
0, 0
2, 0
1, 1
0, 0
1, 0
0, 0
0, 0
1, 0
0, 0
0, 1
0, 0
0, 0
0, 0
0, 0
0, 0
0, 0
1, 0
2, 1
0, 0
0, 0
0, 0
0, 0
1, 0
1, 1
1, 0
2, 0
1, 1
0, 0
0, 0
0, 0
0, 0
1, 1
1, 0
0, 0
0, 0
0, 0
0, 0
0, 0
0, 0
0, 1
0, 0
1, 0
0, 0
0, 0
0, 1
0, 0
0, 0
0, 0
2, 0
0, 0
0, 0
0, 1
0, 0
0, 0
0, 1
1, 0
0, 1
0, 0
0, 0
0, 0
0, 0
0, 0
0, 0
0, 1
0, 1
0, 0
1, 1
0, 0
0, 0
0, 0
0, 1
0, 0
0, 0
1, 0
1, 0
2, 0
1, 0
0, 0
0, 1
1, 0
1, 0
1, 0
0, 0
2, 0
0, 0
0, 0
2, 0
1, 1
0, 0
0, 0
0, 0
1, 0
0, 2
0, 0
0, 0
0, 0
0, 0
0, 0
0, 0
0, 0
0, 1
0, 2
0, 0
0, 0
1, 0
0, 0
0, 0
0, 1
0, 0
0, 1
0, 0
0, 0
0, 0
0, 0
0, 0
0, 0
0, 0
0, 0
0, 0
0, 0
0, 0
0, 0
0, 0
0, 0
0, 0
0, 0
0, 0
0, 0
0, 0
0, 0
0, 0
0, 0
0, 0
0, 0
0, 1
1, 0
0, 0
0, 0
1, 0
0, 0
0, 0
0, 0
0, 0
0, 0
1, 0
0, 0
0, 1
0, 0
0, 0
1, 0
0, 0
0, 0
0, 0
0, 0
0, 0
0, 0
0, 1
0, 0
0, 0
0, 0
0, 0
0, 0
0, 0
0, 0
0, 0
0, 0
0, 0
0, 1
0, 0
0, 0
0, 0
0, 0
0, 0
0, 0
0, 0
1, 0
0, 0
0, 0
0, 0
0, 0
0, 0
1, 0
0, 0
0, 0
0, 0
0, 0
0, 1
1, 0
0, 0
0, 0
0, 1
0, 0
0, 0
0, 0
0, 1
0, 0
0, 0
0, 0
0, 0
0, 0
0, 0
0, 0
0, 0
0, 0
0, 0
0, 0
0, 0
0, 0
0, 0
0, 0
0, 0
0, 0
0, 0
0, 0
0, 0
0, 0
0, 0
0, 0
0, 0
0, 0
0, 0
0, 0
0, 0
0, 0
1, 0
0, 0
0, 0
0, 0
0, 1
0, 0
0, 0
0, 0
0, 0
0, 0
0, 0
0, 0
0, 0
0, 0
0, 0
0, 0
0, 0
0, 0
0, 0
0, 0
0, 0
0, 0
0, 0
0, 0
0, 0
0, 0
0, 0
0, 0
0, 0
0, 0
0, 0
0, 0
0, 0
0, 0
0, 0
0, 0
0, 0
0, 0
0, 0
0, 0
0, 0
0, 0
0, 0
0, 0
0, 0
0, 0
0, 0
0, 0
0, 0
0, 0
0, 0
0, 0
0, 0
0, 0
0, 0
0, 0
0, 0
0, 0
0, 0
0, 0
0, 0
0, 0
0, 0
0, 0
0, 0
0, 0
0, 0
0, 0
0, 0
0, 0
0, 0
0, 0
0, 0
0, 0
0, 0
0, 0
0, 0
0, 0
0, 0
0, 0
0, 0
0, 0
0, 0
0, 0
0, 0
0, 0
0, 0
0, 0
0, 0
0, 0
0, 0
0, 0
0, 0
0, 0
0, 0
0, 0
0, 0
0, 0
0, 0
0, 0
0, 0
0, 0
0, 0
0, 0
0, 0
0, 0
0, 0
0, 0
0, 0
0, 0
0, 0
0, 0
0, 0
0, 0
0, 0
0, 0
0, 0
0, 0
0, 0
0, 0
0, 0
0, 0
0, 0
0, 0
0, 0
0, 0
0, 0
0, 0
0, 0
0, 0
0, 0
0, 0
0, 0
0, 0
0, 0
0, 0
0, 0
0, 0
0, 0
0, 0
0, 0
0, 0
0, 0
0, 0
0, 0
0, 0
0, 0
0, 0
0, 0
0, 0
0, 0
0, 0
0, 0
0, 0
0, 0
0, 0
0, 0
0, 0
0, 0
0, 0
0, 0
0, 0
0, 0
0, 0
0, 0
0, 0
0, 0
0, 0
0, 0
0, 0
0, 0
0, 0
0, 0
0, 0
0, 0
0, 0
0, 0
0, 0
0, 0
0, 0
0, 0
0, 0
0, 0
0, 0
0, 0
0, 0
0, 0
0, 0
0, 0
0, 0
0, 0
0, 0
0, 0
0, 0
0, 0
0, 0
0, 0
0, 0
0, 0
0, 0
0, 0
0, 0
0, 0
0, 0
0, 0
0, 0
0, 0
0, 0
0, 0
0, 0
0, 0
0, 0
0, 0
0, 0
0, 0
0, 0
0, 0
0, 0
0, 0
0, 0
0, 0
0, 0
0, 0
0, 0
0, 0
0, 0
0, 0
0, 0
0, 0
0, 0
0, 0
0, 0
0, 0
0, 0
0, 0
0, 0
0, 0
0, 0
0, 0
0, 0
0, 0
0, 0
0, 0
0, 0
0, 0
0, 0
0, 0
0, 0
0, 0
0, 0
0, 0
0, 0
0, 0
0, 0
0, 0
0, 0
0, 0
0, 0
0, 0
0, 0
0, 0
0, 0
0, 0
0, 0
0, 0
0, 0
0, 0
0, 0
0, 0
0, 0
0, 0
0, 0
0, 0
0, 0
0, 0
0, 0
0, 0
0, 0
0, 0
0, 0
0, 0
0, 0
0, 0
0, 0
0, 0
0, 0
0, 0
0, 0
0, 0
0, 0
0, 0
0, 0
0, 0
0, 0
0, 0
0, 0
0, 0
0, 0
0, 0
0, 0
0, 0
0, 0
0, 0
0, 0
0, 0
0, 0
0, 0
0, 0
0, 0
0, 0
0, 0
0, 0
0, 0
0, 0
0, 0
0, 0
0, 0
0, 0
0, 0
0, 0
0, 0
0, 0
0, 0
0, 0
0, 0
0, 0
0, 0
0, 0
0, 0
0, 0
0, 0
0, 0
0, 0
0, 0
0, 0
0, 0
0, 0
0, 0
0, 0
0, 0
0, 0
0, 0
0, 0
0, 0
0, 0
0, 0
0, 0
0, 0
0, 0
0, 0
0, 0
0, 0
0, 0
0, 0
0, 0
0, 0
0, 0
0, 0
0, 0
0, 0
0, 0
0, 0
0, 0
0, 0
0, 0
0, 0
0, 0
0, 0
0, 0
0, 0
0, 0
0, 0
0, 0
0, 0
0, 0
0, 0
0, 0
0, 0
0, 0
0, 0
0, 0
0, 0
0, 0
0, 0
0, 0
0, 0
0, 0
0, 0
0, 0
0, 0
0, 0
0, 0
0, 0
0, 0
0, 0
0, 0
0, 0
0, 0
0, 0
0, 0
0, 0
0, 0
0, 0
0, 0
0, 0
0, 0
0, 0
0, 0
0, 0
0, 0
0, 0
0, 0
0, 0
0, 0
0, 0
0, 0
0, 0
0, 0
0, 0
0, 0
0, 0
0, 0
0, 0
0, 0
0, 0
0, 0
0, 0
0, 0
0, 0
0, 0
0, 0
0, 0
0, 0
#ENDOFDATA     end of spectrum data