File: host_upload/06-09-2024/ps_0852/dump3/ps__0852shot_2117.msa
#FORMAT      : EMSA/MAS spectral data file
#VERSION     : TC202v2.0 PIXL
#TITLE       : N/A
#DATE        :       Date in the format DD-MMM-YYYY, for example 07-JUL-2010
#TIME        :             The time of day at which the spectrum was recorded, in 24-hour format
#OWNER       : PIXL Flight Model       (PIXL will use this to indicate which instrument took the data.)
#NPOINTS     : 4096     Number of data points in the spectrum (This can be zero for configuration only files)
#NCOLUMNS    : 2     Number of data columns in the spectrum (This can be zero for configuration only files)
#XUNITS      : eV
#YUNITS      : COUNTS
#DATATYPE    : YY
#XPERCHAN    : 7.862, 7.881   eV per channel (separate by commas if more than one detector)
#OFFSET      : 18.5, -22.4         eV of first channel  (separate by commas if more than one detector
#SIGNALTYPE  : XRF
#YP_TEMP     : 2.267
#LIVETIME    : 8.54916, 8.58969   seconds (separate by commas if more than one detector)
#REALTIME    : 10, 10.0   seconds (separate by commas if more than one detector)
#SPECTRUM    : start of spectrum data
0, 0
0, 0
0, 0
0, 0
0, 0
0, 0
0, 0
0, 0
0, 0
0, 0
0, 0
0, 0
0, 0
0, 0
0, 0
0, 0
0, 0
0, 0
0, 0
0, 0
0, 0
0, 0
0, 0
0, 0
0, 0
0, 0
0, 0
0, 0
0, 0
0, 0
0, 0
0, 0
0, 0
1, 0
0, 0
2, 1
1, 0
1, 2
1, 1
3, 0
0, 0
3, 2
1, 3
2, 3
1, 1
2, 2
3, 2
4, 2
9, 11
13, 13
25, 19
36, 41
60, 66
72, 69
87, 89
74, 61
61, 59
49, 41
31, 25
15, 18
11, 8
4, 2
2, 4
2, 5
2, 3
2, 5
6, 5
6, 13
32, 20
51, 38
102, 97
188, 171
252, 246
364, 320
400, 401
386, 423
370, 382
301, 265
212, 192
120, 150
60, 57
34, 47
18, 16
10, 8
8, 3
3, 5
3, 2
1, 1
2, 2
2, 2
0, 2
3, 3
5, 7
7, 9
8, 17
20, 19
22, 46
31, 38
45, 60
54, 54
42, 41
31, 38
33, 24
21, 17
15, 9
10, 12
6, 9
15, 9
18, 9
19, 15
24, 21
31, 27
39, 31
43, 35
62, 31
46, 34
45, 37
41, 31
41, 21
14, 20
27, 17
27, 29
14, 19
21, 21
24, 19
14, 13
8, 14
9, 14
7, 4
6, 5
1, 6
5, 2
3, 3
7, 2
2, 2
1, 3
1, 1
4, 2
1, 1
1, 2
5, 2
1, 4
4, 1
6, 5
1, 2
4, 1
11, 2
16, 1
24, 4
43, 1
66, 3
62, 3
92, 7
67, 6
75, 12
72, 10
43, 21
43, 9
23, 12
19, 11
12, 9
4, 6
4, 6
1, 3
4, 3
2, 4
3, 8
3, 1
2, 7
2, 4
2, 7
4, 5
6, 4
6, 7
3, 9
8, 12
4, 6
2, 13
2, 4
7, 12
7, 13
7, 7
1, 7
4, 6
3, 10
7, 6
5, 3
2, 6
10, 12
6, 4
10, 8
8, 17
8, 10
13, 21
9, 13
24, 14
16, 21
14, 20
16, 25
14, 19
14, 22
12, 8
14, 10
7, 7
8, 9
8, 10
2, 4
5, 5
6, 6
9, 4
12, 9
3, 9
5, 5
6, 9
9, 5
13, 10
23, 17
24, 11
32, 10
35, 6
47, 4
66, 12
71, 6
114, 6
100, 5
114, 8
116, 8
130, 8
147, 11
101, 17
107, 25
81, 17
77, 11
46, 9
31, 16
30, 16
18, 12
15, 11
16, 16
8, 11
10, 13
10, 13
13, 18
9, 14
10, 18
14, 20
17, 29
38, 37
58, 38
50, 48
61, 62
55, 76
65, 51
43, 40
38, 35
36, 27
23, 14
25, 17
21, 24
22, 22
19, 15
29, 26
46, 56
85, 90
175, 198
282, 360
455, 586
717, 900
1057, 1302
1480, 1749
2006, 2179
2202, 2366
2368, 2354
2209, 2197
2124, 1874
1705, 1485
1288, 1101
887, 738
577, 417
386, 252
189, 135
99, 81
56, 64
40, 27
26, 22
22, 16
19, 10
15, 23
19, 22
19, 22
31, 28
37, 50
50, 67
78, 66
114, 121
146, 165
242, 192
253, 301
318, 363
378, 394
387, 388
347, 358
324, 297
256, 264
202, 190
154, 137
78, 103
58, 60
45, 54
24, 43
7, 29
8, 21
6, 8
4, 19
13, 11
10, 25
18, 14
11, 24
14, 14
16, 17
16, 23
9, 12
11, 10
10, 8
8, 7
3, 5
3, 4
3, 3
1, 6
4, 4
4, 1
4, 4
2, 4
2, 5
4, 7
6, 5
6, 3
3, 7
4, 4
6, 3
6, 5
7, 2
5, 5
8, 6
7, 6
4, 5
5, 2
9, 8
4, 10
9, 9
3, 5
3, 5
4, 7
3, 9
6, 3
1, 5
4, 7
5, 3
4, 4
4, 5
2, 6
9, 3
6, 2
5, 7
6, 4
2, 1
4, 2
4, 6
3, 2
3, 5
4, 5
6, 6
11, 5
7, 11
9, 7
8, 2
9, 3
3, 5
9, 8
11, 5
4, 5
6, 5
10, 5
6, 3
8, 6
5, 4
4, 5
5, 8
2, 5
3, 2
3, 7
4, 8
0, 10
1, 11
4, 14
1, 18
2, 10
3, 9
3, 13
3, 5
2, 7
4, 9
1, 9
5, 4
4, 4
1, 7
6, 3
4, 6
2, 3
4, 5
3, 7
5, 8
1, 8
1, 9
1, 3
4, 5
1, 4
4, 2
4, 2
4, 1
7, 4
1, 2
2, 1
4, 3
2, 2
3, 2
6, 3
7, 2
2, 4
3, 6
4, 2
4, 5
4, 1
5, 1
5, 2
10, 4
9, 0
3, 2
3, 6
7, 2
5, 0
3, 3
1, 0
3, 3
2, 3
1, 5
1, 5
1, 1
1, 2
2, 2
2, 5
1, 3
3, 5
1, 1
3, 1
4, 2
4, 6
2, 2
4, 3
4, 3
2, 1
2, 3
0, 4
3, 5
2, 2
3, 3
2, 3
1, 3
2, 2
3, 2
1, 2
7, 1
1, 1
0, 5
0, 3
1, 2
4, 1
1, 6
8, 4
3, 4
2, 2
2, 6
6, 3
1, 0
3, 5
2, 2
3, 2
2, 4
3, 3
6, 5
0, 1
3, 3
1, 2
4, 3
2, 5
3, 3
2, 2
4, 5
2, 1
2, 2
2, 3
1, 2
3, 3
1, 1
3, 3
2, 3
2, 2
2, 2
2, 5
1, 2
0, 2
5, 2
3, 1
4, 0
1, 2
3, 1
2, 1
1, 1
3, 2
9, 3
4, 2
0, 2
1, 0
1, 3
3, 1
4, 4
4, 2
1, 2
8, 3
2, 1
3, 1
3, 2
2, 2
5, 2
0, 3
1, 5
4, 1
2, 4
3, 2
5, 3
1, 2
4, 4
5, 3
3, 4
4, 2
0, 3
2, 3
5, 5
2, 3
3, 3
0, 4
1, 0
2, 0
2, 3
2, 0
1, 0
2, 3
1, 0
0, 0
0, 1
0, 1
2, 2
0, 1
1, 1
1, 0
5, 1
2, 1
0, 3
1, 7
0, 5
2, 2
0, 1
2, 1
1, 1
4, 2
1, 1
3, 1
3, 1
0, 1
4, 1
1, 2
0, 2
4, 0
2, 2
1, 0
1, 1
1, 0
1, 2
1, 1
1, 4
1, 3
1, 1
1, 0
5, 1
1, 1
2, 0
2, 0
1, 4
1, 1
1, 0
1, 0
1, 3
1, 0
0, 0
0, 1
3, 1
0, 2
1, 1
1, 1
1, 0
0, 1
2, 1
3, 4
2, 0
0, 1
1, 1
0, 3
0, 1
0, 0
1, 1
0, 2
1, 1
0, 1
2, 2
0, 2
0, 0
2, 1
1, 0
1, 0
1, 1
0, 1
1, 0
1, 0
2, 1
1, 0
1, 1
0, 0
0, 0
0, 1
0, 0
0, 0
1, 1
1, 0
1, 1
0, 0
1, 0
1, 0
0, 0
1, 3
1, 0
1, 0
0, 0
2, 0
1, 0
1, 0
0, 2
1, 1
0, 0
0, 0
0, 1
0, 0
0, 1
1, 1
0, 0
1, 4
1, 0
0, 1
1, 0
0, 0
1, 0
1, 0
1, 0
1, 0
0, 0
0, 0
0, 0
1, 0
0, 0
0, 0
0, 0
1, 0
1, 1
1, 0
0, 1
0, 0
0, 1
0, 0
1, 0
1, 0
0, 2
0, 0
0, 0
0, 0
0, 0
0, 1
1, 0
0, 1
1, 0
0, 0
0, 0
1, 1
0, 1
0, 0
0, 0
1, 1
1, 1
1, 0
1, 0
1, 0
1, 0
0, 1
0, 0
0, 0
0, 0
1, 0
3, 0
0, 2
0, 0
0, 0
1, 0
0, 0
0, 0
0, 0
0, 0
0, 0
0, 0
0, 1
0, 0
0, 1
0, 1
0, 1
0, 0
0, 0
0, 2
0, 0
0, 0
0, 0
0, 0
0, 0
0, 0
1, 1
0, 1
1, 1
0, 1
0, 1
0, 0
0, 0
0, 1
0, 0
0, 1
1, 0
0, 0
0, 0
0, 0
0, 0
0, 0
1, 0
0, 0
0, 0
0, 0
0, 1
0, 0
0, 0
0, 0
0, 0
0, 0
0, 0
1, 1
1, 0
0, 0
0, 0
0, 0
0, 0
1, 0
1, 0
0, 0
0, 0
0, 0
0, 0
0, 1
1, 1
0, 1
2, 0
0, 0
0, 0
0, 0
2, 1
1, 0
0, 0
0, 0
2, 0
0, 1
0, 0
0, 0
0, 0
0, 0
0, 1
0, 1
0, 0
0, 1
0, 1
0, 0
0, 0
0, 1
0, 0
0, 0
1, 2
0, 0
0, 0
0, 1
1, 0
0, 0
1, 1
0, 0
0, 0
0, 2
0, 1
0, 0
0, 0
0, 0
0, 0
0, 1
0, 1
0, 0
1, 1
1, 1
0, 0
0, 0
0, 0
0, 0
0, 1
0, 0
0, 0
0, 0
0, 0
0, 1
1, 0
0, 0
0, 0
0, 0
0, 0
0, 0
0, 0
0, 0
0, 0
0, 0
0, 0
0, 0
1, 0
0, 0
0, 0
0, 0
0, 0
1, 0
0, 0
1, 2
1, 1
0, 0
0, 0
0, 1
0, 0
0, 0
1, 1
0, 0
0, 0
0, 0
0, 0
0, 0
0, 0
0, 0
1, 1
0, 0
0, 0
0, 0
0, 0
0, 0
0, 0
0, 0
0, 0
0, 0
0, 0
0, 0
0, 0
0, 0
0, 0
0, 1
0, 0
0, 0
0, 0
0, 0
0, 0
0, 0
0, 0
0, 0
0, 0
0, 0
0, 0
0, 0
0, 0
1, 0
0, 0
1, 0
0, 0
0, 0
0, 0
0, 0
0, 0
0, 0
0, 0
0, 0
0, 0
1, 0
0, 0
0, 0
0, 0
0, 0
0, 0
0, 0
0, 0
1, 0
0, 1
0, 0
0, 0
0, 0
0, 0
0, 0
0, 0
0, 0
0, 0
0, 0
0, 0
0, 0
0, 0
0, 0
0, 0
0, 0
0, 0
0, 0
0, 0
0, 0
0, 0
0, 0
0, 0
0, 0
0, 0
0, 0
0, 0
0, 0
0, 0
0, 0
0, 0
0, 0
0, 0
0, 0
0, 0
0, 0
0, 0
0, 0
0, 0
0, 0
0, 0
0, 0
0, 0
0, 0
0, 0
0, 0
0, 0
0, 0
0, 0
0, 0
0, 0
0, 0
1, 0
0, 0
0, 0
0, 0
0, 0
0, 0
0, 0
0, 0
0, 0
0, 0
1, 0
0, 0
0, 0
0, 0
0, 0
0, 0
0, 0
0, 0
0, 0
0, 0
0, 0
0, 0
0, 0
0, 0
0, 0
0, 0
0, 0
1, 0
0, 0
0, 0
0, 0
0, 0
0, 0
0, 0
0, 0
0, 0
0, 0
0, 0
0, 0
0, 0
0, 0
0, 0
0, 0
0, 0
1, 0
0, 0
0, 0
0, 0
0, 0
0, 0
0, 0
0, 0
0, 0
0, 0
0, 0
0, 0
0, 0
0, 0
0, 0
0, 0
0, 0
0, 0
0, 0
0, 0
0, 0
0, 0
0, 0
0, 0
0, 0
0, 0
0, 0
0, 0
0, 0
0, 0
0, 0
0, 0
0, 0
0, 0
0, 0
0, 0
0, 0
0, 0
0, 0
0, 0
0, 0
0, 0
0, 0
0, 0
0, 0
0, 0
0, 0
0, 0
0, 0
0, 0
0, 0
0, 0
0, 0
0, 0
0, 0
0, 0
0, 0
0, 0
0, 0
0, 0
0, 0
0, 0
0, 0
0, 0
0, 0
0, 0
0, 0
0, 0
0, 0
0, 0
0, 0
0, 0
0, 0
0, 0
0, 0
0, 0
0, 1
0, 0
0, 0
0, 0
0, 0
0, 0
0, 0
0, 0
0, 0
0, 0
0, 0
0, 0
0, 0
0, 0
0, 0
0, 0
0, 0
0, 0
0, 0
0, 0
0, 0
0, 0
0, 0
0, 0
0, 0
0, 0
0, 0
0, 0
0, 0
0, 0
0, 0
0, 0
0, 0
0, 0
0, 0
0, 0
0, 0
0, 0
0, 0
0, 0
0, 0
0, 0
0, 0
0, 0
0, 0
0, 0
1, 0
0, 0
0, 0
0, 0
0, 0
0, 0
0, 0
0, 0
0, 0
0, 0
0, 0
0, 0
0, 0
0, 0
0, 0
0, 0
0, 0
0, 0
0, 0
0, 0
0, 0
0, 0
0, 0
0, 0
0, 0
0, 0
0, 0
0, 0
0, 0
0, 0
0, 0
0, 0
0, 0
0, 0
0, 0
0, 0
0, 0
0, 0
0, 0
0, 0
0, 0
0, 0
0, 0
0, 0
0, 0
0, 0
0, 0
0, 0
0, 0
0, 0
0, 0
0, 0
0, 0
0, 0
0, 0
0, 0
0, 0
0, 0
0, 0
0, 0
0, 0
0, 0
0, 0
0, 0
0, 0
0, 0
0, 0
0, 0
0, 0
0, 0
0, 0
0, 0
0, 0
0, 0
0, 0
0, 0
0, 0
0, 0
0, 0
0, 0
0, 0
0, 0
0, 0
0, 0
0, 0
0, 0
0, 0
0, 0
0, 0
0, 0
0, 0
0, 0
0, 0
0, 0
0, 0
0, 0
0, 0
0, 0
0, 0
0, 0
0, 0
0, 0
0, 0
0, 0
0, 0
0, 0
0, 0
0, 0
0, 0
0, 0
0, 0
0, 0
0, 0
0, 0
0, 0
0, 0
0, 0
0, 0
0, 0
0, 0
0, 0
0, 0
0, 0
0, 0
0, 0
0, 0
0, 0
0, 0
0, 0
0, 0
0, 0
0, 0
0, 0
0, 0
0, 0
0, 0
0, 0
0, 0
0, 0
0, 0
0, 0
0, 0
0, 0
0, 0
0, 0
0, 0
0, 0
0, 0
0, 0
0, 0
0, 0
0, 0
0, 0
0, 0
0, 0
0, 0
0, 0
0, 0
0, 0
0, 0
0, 0
0, 0
0, 0
0, 0
0, 0
0, 0
0, 0
0, 0
0, 0
0, 0
0, 0
0, 0
0, 0
0, 0
0, 0
0, 0
0, 0
0, 0
0, 0
0, 0
0, 0
0, 0
0, 0
0, 0
0, 0
0, 0
0, 0
0, 0
0, 0
0, 0
0, 0
0, 0
0, 0
0, 0
0, 0
0, 0
0, 0
0, 0
0, 0
0, 0
0, 0
0, 0
0, 0
0, 0
0, 0
0, 0
0, 0
0, 0
0, 0
0, 0
0, 0
0, 0
0, 0
0, 0
0, 0
0, 0
0, 0
0, 0
0, 0
0, 0
0, 0
0, 0
0, 0
0, 0
0, 0
0, 0
0, 0
0, 0
#ENDOFDATA     end of spectrum data