File: host_upload/06-09-2024/ps_0852/dump3/ps__0852shot_2174.msa
#FORMAT      : EMSA/MAS spectral data file
#VERSION     : TC202v2.0 PIXL
#TITLE       : N/A
#DATE        :       Date in the format DD-MMM-YYYY, for example 07-JUL-2010
#TIME        :             The time of day at which the spectrum was recorded, in 24-hour format
#OWNER       : PIXL Flight Model       (PIXL will use this to indicate which instrument took the data.)
#NPOINTS     : 4096     Number of data points in the spectrum (This can be zero for configuration only files)
#NCOLUMNS    : 2     Number of data columns in the spectrum (This can be zero for configuration only files)
#XUNITS      : eV
#YUNITS      : COUNTS
#DATATYPE    : YY
#XPERCHAN    : 7.862, 7.881   eV per channel (separate by commas if more than one detector)
#OFFSET      : 18.5, -22.4         eV of first channel  (separate by commas if more than one detector
#SIGNALTYPE  : XRF
#YP_TEMP     : 2.235
#LIVETIME    : 8.55632, 8.37787   seconds (separate by commas if more than one detector)
#REALTIME    : 10, 10.0   seconds (separate by commas if more than one detector)
#SPECTRUM    : start of spectrum data
0, 0
0, 0
0, 0
0, 0
0, 0
0, 0
0, 0
0, 0
0, 0
0, 0
0, 0
0, 0
0, 0
0, 0
0, 0
0, 0
0, 0
0, 0
0, 0
0, 0
0, 0
0, 0
0, 0
0, 0
0, 0
0, 0
0, 0
0, 0
0, 0
0, 0
0, 0
0, 1
1, 0
0, 0
0, 1
0, 0
1, 0
0, 0
0, 0
1, 2
1, 2
1, 2
3, 2
3, 1
1, 1
1, 2
0, 1
2, 0
6, 5
5, 11
18, 27
22, 40
40, 58
42, 55
63, 63
56, 68
46, 58
21, 38
16, 25
5, 14
7, 8
4, 7
2, 6
3, 4
0, 4
8, 4
5, 3
9, 16
17, 25
25, 53
54, 105
109, 178
167, 244
215, 351
277, 431
278, 403
285, 358
180, 287
139, 168
88, 127
49, 69
33, 32
18, 18
11, 10
7, 4
4, 8
0, 7
1, 4
6, 1
1, 4
3, 7
7, 7
11, 18
11, 23
30, 46
63, 86
65, 128
105, 168
104, 153
103, 211
111, 141
93, 109
53, 98
45, 66
33, 45
22, 21
19, 24
16, 20
14, 19
20, 26
22, 32
43, 46
35, 55
32, 51
37, 59
55, 63
37, 46
32, 37
29, 40
25, 31
23, 32
17, 15
28, 20
16, 18
8, 25
16, 14
13, 9
13, 10
6, 7
6, 11
9, 7
5, 6
8, 4
3, 5
0, 2
4, 2
1, 1
1, 3
0, 0
4, 6
2, 1
0, 5
4, 3
2, 3
1, 2
3, 2
1, 2
3, 3
1, 4
2, 1
1, 4
1, 5
2, 10
6, 8
6, 12
8, 13
7, 7
7, 14
11, 12
8, 12
6, 14
6, 6
4, 11
2, 4
2, 3
3, 1
1, 6
1, 5
2, 3
4, 6
1, 2
4, 6
2, 4
5, 6
4, 2
4, 2
2, 3
5, 2
4, 1
1, 4
1, 8
3, 3
2, 2
2, 6
4, 2
3, 5
7, 6
10, 7
19, 2
35, 7
35, 4
34, 7
40, 4
31, 15
38, 11
35, 14
33, 11
20, 20
21, 18
22, 19
18, 12
17, 17
13, 11
13, 7
15, 10
9, 9
8, 7
9, 8
3, 13
4, 5
3, 6
1, 4
4, 3
5, 7
5, 6
7, 3
7, 7
3, 5
4, 7
1, 6
3, 2
3, 10
4, 9
4, 3
4, 8
10, 9
5, 7
9, 6
11, 17
13, 15
11, 18
14, 14
6, 9
13, 9
10, 5
6, 11
8, 15
11, 4
4, 6
7, 5
13, 14
13, 10
12, 18
14, 26
15, 25
12, 38
26, 47
22, 82
34, 78
42, 76
48, 93
49, 77
40, 72
44, 61
30, 58
19, 46
15, 28
14, 16
21, 20
21, 20
18, 20
27, 33
37, 68
62, 112
110, 224
197, 396
339, 626
543, 1093
742, 1490
1013, 2037
1495, 2408
1505, 2670
1629, 2662
1617, 2667
1484, 2092
1209, 1720
911, 1237
650, 860
416, 516
256, 284
114, 173
56, 99
45, 59
25, 49
12, 44
11, 35
11, 42
18, 39
16, 43
20, 33
11, 33
28, 39
32, 75
51, 105
83, 126
120, 202
160, 240
185, 320
222, 384
250, 375
261, 439
270, 353
208, 299
169, 234
124, 180
91, 102
74, 74
49, 40
27, 25
12, 17
9, 9
6, 5
10, 8
7, 8
7, 12
10, 11
11, 18
17, 17
12, 17
17, 13
10, 19
9, 15
12, 17
9, 22
11, 9
6, 13
7, 15
5, 7
3, 5
4, 8
2, 10
1, 6
3, 7
1, 3
3, 6
4, 6
0, 7
4, 8
5, 4
0, 6
3, 5
4, 4
4, 1
2, 7
6, 7
2, 7
5, 6
3, 9
5, 8
6, 10
5, 5
5, 6
2, 5
4, 6
0, 3
2, 7
2, 2
2, 6
5, 4
2, 2
2, 4
3, 4
2, 2
2, 7
3, 4
1, 6
0, 6
5, 9
0, 6
3, 6
0, 1
3, 7
4, 3
1, 9
5, 5
4, 2
4, 2
1, 2
2, 5
5, 6
3, 4
5, 5
5, 4
8, 3
8, 4
9, 4
5, 5
11, 5
15, 3
6, 4
15, 6
11, 9
10, 9
7, 4
7, 3
4, 11
7, 9
4, 8
1, 6
7, 10
2, 11
5, 6
0, 6
2, 4
1, 3
2, 2
3, 7
1, 1
3, 6
3, 6
2, 5
3, 3
1, 4
3, 4
2, 5
1, 3
1, 4
2, 3
2, 3
2, 4
5, 7
4, 4
7, 8
4, 4
4, 4
1, 15
8, 10
5, 11
6, 5
6, 6
6, 7
7, 6
4, 10
1, 9
5, 4
2, 6
2, 5
6, 4
2, 4
2, 2
1, 2
2, 3
2, 2
1, 2
4, 3
2, 4
4, 5
2, 3
3, 3
1, 6
1, 3
4, 3
2, 3
2, 2
1, 3
1, 2
3, 5
1, 2
0, 0
4, 2
1, 2
0, 2
0, 4
0, 0
0, 1
1, 5
1, 5
1, 7
1, 4
2, 6
3, 2
2, 5
1, 3
1, 4
2, 5
3, 1
2, 4
1, 4
4, 2
2, 3
1, 3
2, 4
7, 2
2, 4
2, 3
1, 3
1, 3
1, 2
0, 1
3, 2
2, 6
3, 4
3, 4
3, 5
3, 5
1, 1
1, 1
3, 3
0, 4
1, 9
3, 4
0, 1
3, 3
2, 3
0, 5
2, 5
2, 2
3, 5
1, 2
2, 2
1, 4
1, 3
0, 0
0, 2
0, 0
2, 3
2, 0
1, 5
1, 2
1, 2
0, 2
3, 3
1, 1
1, 0
0, 2
0, 3
1, 2
1, 1
3, 2
3, 1
1, 5
0, 3
1, 2
3, 0
2, 3
0, 1
1, 6
3, 3
2, 5
1, 5
2, 2
2, 5
2, 3
6, 6
2, 3
0, 6
2, 2
2, 4
1, 4
2, 1
1, 2
2, 2
1, 2
1, 0
1, 0
1, 3
0, 2
3, 1
1, 2
1, 4
2, 1
0, 2
2, 1
0, 2
2, 2
3, 0
1, 3
2, 3
0, 3
2, 1
1, 5
1, 0
0, 2
1, 1
1, 3
2, 0
2, 6
1, 1
2, 2
1, 1
2, 1
1, 0
3, 2
1, 2
1, 1
1, 1
1, 2
1, 1
3, 2
1, 2
1, 1
3, 3
0, 2
2, 2
1, 1
1, 3
3, 0
0, 0
0, 0
1, 1
1, 0
1, 0
0, 1
3, 0
2, 0
1, 2
0, 0
0, 5
2, 0
0, 0
0, 0
1, 0
1, 1
1, 1
0, 1
1, 1
2, 0
0, 1
1, 2
1, 0
1, 1
0, 1
0, 0
0, 0
0, 0
1, 3
1, 1
0, 2
0, 2
0, 0
1, 3
0, 1
1, 1
1, 2
1, 0
0, 0
0, 0
0, 0
1, 1
0, 2
1, 0
0, 0
1, 1
0, 0
0, 1
0, 0
0, 2
0, 0
1, 0
0, 0
0, 3
1, 2
0, 1
0, 2
0, 0
0, 0
2, 0
0, 1
0, 0
0, 1
0, 0
1, 1
1, 1
0, 1
0, 0
0, 2
1, 0
0, 0
2, 2
0, 0
0, 0
1, 0
0, 1
1, 0
0, 0
0, 0
0, 1
0, 2
1, 0
0, 2
0, 0
1, 1
0, 0
0, 1
0, 0
0, 0
1, 0
1, 2
0, 0
0, 0
1, 0
1, 1
0, 0
2, 0
0, 2
1, 0
1, 0
0, 1
0, 2
0, 0
0, 1
1, 0
0, 1
0, 1
0, 0
0, 0
0, 0
1, 1
1, 1
1, 0
0, 0
1, 0
1, 1
0, 2
0, 1
0, 0
0, 0
0, 2
0, 0
1, 0
0, 1
1, 1
0, 0
0, 1
0, 1
0, 0
0, 0
1, 1
0, 1
0, 0
1, 0
0, 0
0, 1
0, 0
1, 0
1, 0
0, 0
0, 0
0, 0
0, 0
0, 1
0, 0
0, 1
1, 0
2, 0
0, 1
0, 0
2, 0
2, 0
0, 1
0, 1
0, 0
0, 1
0, 0
0, 1
0, 0
0, 1
0, 0
0, 0
0, 0
0, 1
0, 0
0, 0
1, 0
0, 1
0, 0
0, 0
0, 0
0, 0
0, 1
1, 0
0, 0
0, 0
0, 0
0, 0
1, 0
2, 0
0, 0
0, 1
2, 0
0, 0
0, 0
0, 1
0, 0
0, 0
0, 1
0, 0
0, 0
0, 1
0, 1
0, 1
1, 0
0, 0
2, 0
0, 1
0, 1
0, 0
0, 1
0, 0
1, 2
0, 0
0, 0
1, 0
0, 0
0, 0
0, 1
0, 0
0, 0
0, 0
1, 0
1, 0
0, 0
0, 0
0, 0
0, 0
0, 0
0, 1
0, 1
1, 1
0, 1
1, 0
0, 0
0, 0
0, 0
1, 1
0, 0
1, 0
0, 0
0, 0
0, 0
0, 0
0, 0
0, 0
1, 0
0, 0
0, 0
0, 0
0, 1
0, 0
0, 1
0, 0
1, 0
0, 0
0, 0
0, 0
0, 0
0, 1
0, 1
0, 0
0, 1
0, 0
0, 1
0, 0
1, 0
0, 0
0, 0
0, 0
0, 0
1, 0
0, 0
0, 0
0, 0
0, 0
0, 0
0, 0
0, 0
0, 0
0, 0
0, 1
0, 0
0, 0
0, 0
0, 0
0, 0
0, 0
0, 0
0, 1
0, 0
1, 0
0, 0
0, 0
0, 1
0, 0
0, 0
0, 0
0, 0
0, 0
0, 0
0, 0
0, 0
0, 0
0, 0
0, 2
0, 0
0, 0
0, 1
0, 0
0, 0
0, 1
0, 0
0, 0
0, 0
0, 0
0, 0
0, 0
0, 0
0, 1
0, 0
0, 0
0, 0
0, 0
0, 0
0, 0
0, 0
0, 0
0, 0
0, 0
0, 0
1, 0
0, 0
0, 0
0, 0
0, 0
0, 0
0, 0
0, 0
0, 0
0, 0
0, 1
0, 0
0, 0
0, 0
1, 0
0, 0
0, 0
0, 0
0, 0
0, 0
0, 0
0, 0
0, 0
0, 0
0, 0
0, 0
0, 0
0, 0
0, 0
0, 1
0, 0
0, 0
0, 0
0, 0
0, 0
0, 0
0, 0
0, 0
0, 0
0, 0
0, 0
0, 0
0, 0
0, 0
0, 0
0, 0
0, 0
0, 0
0, 0
0, 0
0, 0
0, 0
0, 0
1, 0
0, 0
0, 0
0, 0
0, 0
0, 0
1, 0
0, 0
0, 0
0, 0
0, 0
0, 0
0, 0
0, 0
0, 0
0, 0
0, 0
0, 0
0, 0
0, 0
0, 0
0, 0
0, 0
0, 0
0, 0
0, 0
0, 0
0, 0
0, 0
0, 0
0, 0
0, 0
0, 0
0, 0
0, 0
0, 0
0, 0
0, 0
0, 0
0, 0
0, 0
0, 0
0, 0
0, 0
0, 0
0, 0
0, 0
0, 0
0, 0
0, 0
0, 0
0, 0
0, 0
0, 0
0, 0
0, 0
0, 0
0, 0
0, 0
0, 0
0, 0
0, 0
0, 0
0, 0
0, 0
0, 0
0, 0
0, 0
0, 0
0, 0
0, 0
0, 0
0, 0
0, 0
0, 0
0, 0
0, 0
0, 0
0, 0
0, 0
0, 0
0, 0
0, 0
0, 0
0, 0
0, 0
0, 0
0, 0
0, 0
0, 0
0, 0
0, 0
0, 0
0, 0
0, 0
0, 0
0, 0
0, 0
0, 0
0, 0
0, 0
0, 0
0, 0
0, 0
0, 0
0, 0
0, 0
0, 0
0, 0
0, 0
0, 0
0, 0
0, 0
0, 0
0, 0
0, 0
0, 0
0, 0
0, 0
0, 0
0, 0
0, 0
0, 0
0, 0
0, 0
0, 0
0, 0
0, 0
0, 0
0, 0
0, 0
0, 0
0, 0
0, 0
0, 0
1, 0
0, 0
0, 0
0, 0
0, 0
0, 0
0, 0
0, 0
0, 0
0, 0
0, 0
0, 0
0, 0
0, 0
0, 0
0, 0
0, 0
0, 0
0, 0
0, 0
0, 0
0, 0
0, 0
0, 0
0, 0
0, 0
0, 0
0, 0
0, 0
0, 0
0, 0
0, 0
0, 0
0, 0
0, 0
0, 0
0, 0
0, 0
0, 0
0, 0
0, 0
0, 0
0, 0
0, 0
0, 0
0, 0
0, 0
0, 0
0, 0
0, 0
0, 0
0, 0
0, 0
0, 0
0, 0
0, 0
0, 0
0, 0
0, 0
0, 0
0, 0
0, 0
0, 0
0, 0
0, 0
0, 0
0, 0
0, 0
0, 0
0, 0
0, 0
0, 0
0, 0
0, 0
0, 0
0, 0
0, 0
0, 0
0, 0
0, 0
0, 0
0, 0
0, 0
0, 0
0, 0
0, 0
0, 0
0, 0
0, 0
0, 0
0, 0
0, 0
0, 0
0, 0
0, 0
0, 0
0, 0
0, 0
0, 0
0, 0
0, 0
0, 0
0, 0
0, 0
0, 0
0, 0
0, 0
0, 0
0, 0
0, 0
0, 0
0, 0
0, 0
0, 0
0, 0
0, 0
0, 0
0, 0
0, 0
0, 0
0, 0
0, 0
0, 0
0, 0
0, 0
0, 0
0, 0
0, 0
0, 0
0, 0
0, 0
0, 0
0, 0
0, 0
0, 0
0, 0
0, 0
0, 0
0, 0
0, 0
0, 0
0, 0
0, 0
0, 0
0, 0
0, 0
0, 0
0, 0
0, 0
0, 0
0, 0
0, 0
0, 0
0, 0
0, 0
0, 0
0, 0
0, 0
0, 0
0, 0
0, 0
0, 0
0, 0
0, 0
0, 0
0, 0
0, 0
0, 0
0, 0
0, 0
0, 0
0, 0
0, 0
0, 0
0, 0
0, 0
0, 0
0, 0
0, 0
0, 0
0, 0
0, 0
0, 0
0, 0
0, 0
0, 0
0, 0
0, 0
0, 0
0, 0
0, 0
0, 0
0, 0
0, 0
0, 0
0, 0
0, 0
0, 0
0, 0
0, 0
0, 0
0, 0
0, 0
0, 0
0, 0
0, 0
0, 0
0, 0
0, 0
0, 0
0, 0
0, 0
0, 0
0, 0
0, 0
0, 0
0, 0
0, 0
0, 0
0, 0
0, 0
0, 0
0, 0
0, 0
0, 0
0, 0
0, 0
0, 0
0, 0
0, 0
0, 0
0, 0
0, 0
0, 0
0, 0
0, 0
0, 0
0, 0
0, 0
0, 0
0, 0
0, 0
0, 0
0, 0
0, 0
0, 0
0, 0
0, 0
0, 0
0, 0
0, 0
0, 0
0, 0
0, 0
0, 0
0, 0
0, 0
0, 0
0, 0
0, 0
#ENDOFDATA     end of spectrum data