File: host_upload/06-09-2024/ps_0852/dump3/ps__0852shot_2322.msa
#FORMAT      : EMSA/MAS spectral data file
#VERSION     : TC202v2.0 PIXL
#TITLE       : N/A
#DATE        :       Date in the format DD-MMM-YYYY, for example 07-JUL-2010
#TIME        :             The time of day at which the spectrum was recorded, in 24-hour format
#OWNER       : PIXL Flight Model       (PIXL will use this to indicate which instrument took the data.)
#NPOINTS     : 4096     Number of data points in the spectrum (This can be zero for configuration only files)
#NCOLUMNS    : 2     Number of data columns in the spectrum (This can be zero for configuration only files)
#XUNITS      : eV
#YUNITS      : COUNTS
#DATATYPE    : YY
#XPERCHAN    : 7.862, 7.881   eV per channel (separate by commas if more than one detector)
#OFFSET      : 18.5, -22.4         eV of first channel  (separate by commas if more than one detector
#SIGNALTYPE  : XRF
#YP_TEMP     : 2.139
#LIVETIME    : 8.58195, 8.5687   seconds (separate by commas if more than one detector)
#REALTIME    : 10, 10.0   seconds (separate by commas if more than one detector)
#SPECTRUM    : start of spectrum data
0, 0
0, 0
0, 0
0, 0
0, 0
0, 0
0, 0
0, 0
0, 0
0, 0
0, 0
0, 0
0, 0
0, 0
0, 0
0, 0
0, 0
0, 0
0, 0
0, 0
0, 0
0, 0
0, 0
0, 0
0, 0
0, 0
0, 0
0, 0
0, 0
0, 0
0, 0
0, 0
0, 0
0, 0
0, 1
1, 2
0, 0
0, 0
2, 0
0, 0
1, 0
0, 2
0, 1
0, 3
0, 1
3, 1
3, 3
2, 5
5, 5
12, 13
22, 27
41, 45
48, 50
73, 74
68, 80
78, 83
60, 56
40, 48
22, 21
12, 14
4, 14
3, 7
2, 4
0, 5
1, 2
3, 6
4, 5
5, 9
23, 26
45, 48
88, 111
149, 177
252, 308
358, 372
413, 449
423, 443
357, 367
288, 288
189, 233
135, 130
78, 65
32, 50
17, 17
6, 13
8, 5
1, 4
0, 1
1, 2
0, 2
1, 3
0, 1
1, 1
3, 1
1, 3
1, 3
3, 5
3, 4
2, 9
2, 1
3, 4
1, 5
3, 2
1, 3
2, 4
5, 3
4, 6
8, 7
11, 13
16, 15
25, 15
25, 39
35, 27
44, 28
44, 38
54, 38
39, 46
47, 37
41, 34
48, 26
36, 12
22, 19
32, 25
24, 20
24, 17
21, 22
11, 19
14, 23
7, 16
6, 7
5, 5
5, 5
4, 5
1, 3
3, 1
4, 3
2, 0
3, 2
1, 4
3, 1
2, 2
2, 10
4, 6
1, 3
2, 2
0, 2
5, 4
4, 7
5, 0
3, 5
2, 3
12, 5
8, 8
11, 16
26, 22
43, 43
53, 41
70, 66
56, 63
50, 55
52, 55
42, 38
43, 14
18, 20
26, 8
28, 6
33, 7
40, 6
48, 8
39, 8
43, 13
34, 6
33, 10
21, 7
21, 7
11, 6
6, 7
5, 7
3, 7
2, 9
6, 10
6, 8
5, 5
4, 3
5, 6
4, 4
2, 9
3, 5
7, 10
3, 8
9, 4
13, 14
19, 9
13, 21
18, 16
17, 15
10, 19
10, 24
9, 19
20, 16
15, 15
10, 13
14, 12
11, 13
8, 6
8, 7
6, 5
12, 7
6, 8
9, 7
11, 11
11, 8
11, 6
4, 1
16, 7
5, 2
8, 11
4, 13
6, 12
11, 4
7, 12
6, 11
5, 10
9, 11
10, 18
15, 22
27, 24
30, 30
32, 42
48, 65
56, 87
63, 61
52, 69
71, 53
50, 41
32, 28
38, 28
26, 21
29, 14
15, 17
12, 9
14, 7
15, 12
9, 16
6, 23
10, 26
18, 23
36, 35
20, 53
45, 55
56, 75
67, 84
66, 93
63, 77
65, 83
49, 53
39, 55
23, 44
21, 31
21, 37
13, 31
23, 34
26, 38
40, 70
70, 102
104, 192
249, 391
440, 581
754, 930
1075, 1357
1384, 1811
1851, 2098
2056, 2443
2264, 2518
2200, 2337
1977, 1968
1558, 1582
1180, 1062
814, 692
575, 449
340, 252
186, 143
99, 77
60, 40
33, 22
19, 17
12, 9
16, 24
17, 21
15, 27
19, 36
24, 31
27, 49
39, 59
79, 103
108, 162
158, 183
202, 228
233, 308
272, 357
335, 341
290, 379
294, 313
262, 265
233, 221
154, 148
124, 93
76, 64
46, 40
25, 16
20, 15
8, 11
7, 4
9, 7
7, 11
7, 10
8, 12
19, 18
12, 19
10, 10
7, 9
10, 16
12, 19
10, 12
7, 15
11, 13
6, 14
12, 9
12, 8
20, 8
21, 11
22, 6
29, 2
33, 3
36, 7
23, 12
21, 2
21, 5
26, 3
25, 5
15, 3
9, 5
7, 1
5, 7
10, 8
7, 6
10, 14
12, 13
6, 7
7, 9
7, 11
5, 11
6, 10
6, 10
8, 4
7, 10
1, 3
3, 5
2, 6
3, 5
3, 4
2, 7
7, 2
3, 8
5, 3
4, 5
3, 2
0, 2
0, 3
3, 2
3, 5
1, 7
3, 3
2, 2
5, 5
1, 1
7, 5
9, 4
3, 2
9, 3
3, 1
5, 6
1, 0
5, 4
5, 2
6, 3
10, 4
3, 3
2, 5
4, 2
5, 5
6, 5
3, 4
3, 5
6, 5
3, 7
2, 1
4, 2
5, 6
8, 5
3, 6
7, 5
4, 2
6, 6
4, 2
5, 4
8, 5
8, 2
3, 4
6, 3
1, 3
4, 7
5, 2
3, 4
3, 4
1, 2
4, 2
2, 1
2, 2
4, 3
4, 4
1, 4
4, 1
4, 2
4, 2
3, 2
5, 3
2, 3
2, 4
2, 5
2, 2
4, 4
3, 4
1, 4
4, 3
4, 5
1, 2
4, 5
3, 4
3, 3
3, 4
2, 5
4, 4
3, 6
2, 2
5, 3
5, 4
8, 4
1, 3
2, 5
3, 3
3, 1
2, 6
0, 3
1, 2
3, 2
2, 4
2, 1
2, 3
4, 3
1, 0
2, 4
2, 2
3, 5
2, 1
2, 4
1, 4
1, 2
7, 13
3, 5
3, 3
1, 0
2, 4
0, 1
2, 6
2, 1
3, 6
2, 0
1, 4
1, 4
0, 3
3, 3
1, 2
0, 2
2, 2
4, 3
0, 3
2, 3
5, 1
1, 5
1, 3
2, 4
3, 4
0, 3
0, 3
0, 6
1, 3
5, 4
0, 2
1, 2
0, 2
2, 1
2, 3
0, 1
3, 2
3, 2
2, 0
0, 2
0, 4
3, 0
1, 5
3, 1
1, 1
3, 1
2, 5
6, 4
2, 2
2, 0
4, 3
0, 3
0, 1
2, 1
2, 2
2, 3
2, 3
2, 1
3, 2
0, 4
3, 1
1, 0
2, 4
4, 3
4, 0
2, 3
3, 3
2, 1
1, 2
4, 2
4, 1
0, 3
3, 3
4, 4
5, 8
3, 5
2, 2
2, 3
0, 6
3, 4
2, 5
2, 3
6, 5
5, 6
3, 1
2, 2
1, 0
1, 3
4, 2
0, 0
1, 1
2, 8
1, 0
2, 2
3, 0
1, 3
1, 2
0, 3
3, 1
0, 1
1, 4
0, 1
1, 1
3, 4
4, 2
1, 3
2, 2
0, 3
2, 1
4, 1
3, 1
1, 2
3, 1
1, 0
1, 2
0, 1
2, 1
1, 1
1, 0
1, 1
1, 2
2, 1
0, 4
2, 0
1, 0
2, 1
0, 2
4, 1
1, 3
1, 2
1, 0
2, 0
2, 1
0, 1
0, 1
1, 0
0, 0
1, 1
0, 0
2, 0
0, 1
1, 0
1, 1
0, 0
1, 2
2, 1
1, 1
0, 1
3, 1
0, 0
0, 0
0, 0
1, 1
1, 1
3, 0
0, 0
1, 1
0, 2
1, 0
1, 0
0, 0
0, 1
0, 1
0, 2
0, 0
2, 1
0, 0
0, 0
0, 0
0, 2
2, 1
0, 1
1, 2
2, 0
1, 0
0, 0
1, 1
0, 0
0, 2
0, 0
0, 3
1, 0
0, 0
0, 2
0, 1
0, 0
0, 2
0, 0
0, 0
0, 1
0, 0
0, 1
1, 3
1, 0
1, 1
0, 0
1, 0
0, 1
0, 1
0, 0
0, 0
0, 1
1, 0
1, 0
0, 3
1, 0
1, 0
2, 0
0, 0
1, 0
0, 0
0, 1
3, 1
0, 1
0, 0
0, 0
1, 0
1, 0
0, 1
1, 0
0, 0
0, 1
0, 0
0, 0
1, 1
0, 1
0, 0
0, 0
0, 0
0, 0
1, 0
1, 1
0, 0
0, 0
2, 0
1, 0
0, 1
1, 0
1, 1
0, 0
1, 1
0, 1
1, 1
0, 0
0, 1
2, 0
0, 0
1, 0
0, 0
0, 1
0, 0
0, 1
1, 0
1, 0
0, 0
0, 0
0, 0
0, 0
0, 1
0, 1
0, 1
0, 0
2, 0
0, 1
1, 1
0, 0
0, 0
0, 0
0, 1
0, 0
0, 0
0, 0
0, 0
1, 1
0, 0
0, 0
0, 1
0, 0
0, 1
1, 0
0, 0
0, 0
0, 0
0, 0
1, 0
0, 0
1, 0
0, 1
0, 0
0, 0
0, 0
0, 0
0, 1
0, 0
0, 0
0, 1
0, 0
0, 1
0, 0
0, 1
0, 0
1, 0
0, 0
0, 0
0, 1
0, 0
0, 0
0, 0
0, 0
0, 0
0, 0
0, 0
0, 0
0, 0
0, 0
0, 1
0, 0
0, 2
0, 0
1, 0
0, 0
0, 1
0, 0
0, 0
0, 0
0, 2
0, 0
0, 0
0, 0
1, 1
0, 0
0, 0
0, 0
0, 0
0, 0
0, 0
1, 1
0, 0
0, 0
0, 0
0, 0
0, 0
0, 0
0, 0
0, 0
0, 0
0, 0
0, 0
0, 0
1, 0
0, 0
0, 0
0, 0
0, 0
0, 0
0, 1
0, 0
1, 0
0, 0
1, 0
0, 0
0, 0
0, 0
0, 0
0, 0
0, 0
0, 1
1, 0
0, 0
1, 0
0, 0
0, 0
0, 0
0, 0
0, 0
0, 0
0, 0
0, 0
0, 0
0, 0
0, 0
0, 0
1, 0
0, 0
1, 0
0, 0
0, 0
0, 0
0, 0
1, 0
0, 0
0, 1
0, 0
0, 0
0, 0
0, 0
0, 0
0, 0
0, 0
1, 0
0, 0
0, 0
0, 0
0, 0
0, 0
0, 0
0, 0
1, 1
0, 0
0, 0
0, 0
0, 0
0, 0
0, 0
0, 0
0, 0
1, 0
0, 0
0, 0
0, 0
0, 0
0, 0
0, 0
0, 0
0, 0
0, 0
0, 0
0, 0
0, 0
0, 0
0, 0
0, 0
0, 1
0, 0
0, 0
0, 0
0, 0
0, 0
0, 0
0, 0
0, 0
0, 0
0, 0
0, 0
0, 1
0, 0
0, 0
0, 0
0, 0
0, 0
0, 0
0, 1
0, 0
0, 0
0, 0
0, 0
0, 0
0, 0
0, 0
0, 0
1, 0
0, 0
0, 0
0, 0
0, 0
0, 0
0, 0
1, 0
0, 0
0, 0
0, 0
0, 0
0, 0
0, 0
0, 0
0, 0
0, 0
0, 0
0, 0
0, 0
0, 0
0, 0
0, 0
0, 0
0, 1
0, 0
0, 0
0, 0
0, 0
0, 0
0, 0
0, 0
0, 0
0, 0
0, 0
0, 0
0, 0
0, 0
1, 0
0, 0
0, 0
0, 0
0, 0
0, 0
0, 0
0, 0
0, 0
0, 0
0, 0
0, 0
0, 0
0, 0
0, 0
0, 0
0, 0
0, 0
0, 0
0, 1
0, 0
0, 0
0, 0
0, 0
0, 0
0, 0
0, 0
0, 0
0, 0
0, 0
0, 0
0, 0
0, 0
0, 0
0, 0
0, 0
0, 0
0, 0
0, 0
0, 0
0, 0
0, 0
0, 0
0, 0
0, 0
0, 0
0, 0
0, 0
0, 0
0, 0
0, 0
0, 0
0, 0
0, 0
0, 0
0, 0
0, 0
0, 0
0, 0
0, 0
0, 0
0, 0
0, 0
0, 0
0, 0
0, 0
0, 0
0, 0
0, 0
0, 0
0, 0
0, 0
0, 0
0, 0
0, 0
0, 0
0, 0
0, 0
0, 0
0, 0
0, 0
0, 0
0, 0
0, 0
0, 0
0, 0
0, 0
0, 0
0, 0
0, 0
0, 0
0, 0
0, 0
0, 0
0, 0
0, 0
0, 0
0, 0
0, 0
0, 0
0, 0
0, 0
0, 0
0, 0
0, 0
0, 0
0, 0
0, 0
0, 0
0, 0
0, 0
0, 0
0, 0
0, 0
0, 0
0, 0
0, 0
0, 0
0, 0
0, 0
0, 0
0, 0
0, 0
0, 0
0, 0
0, 0
0, 0
0, 0
0, 0
0, 0
0, 0
0, 0
0, 0
0, 0
0, 0
0, 0
0, 0
0, 0
0, 0
0, 0
0, 0
0, 0
0, 0
0, 0
0, 0
0, 0
0, 0
0, 0
0, 0
0, 0
0, 0
0, 0
0, 0
0, 0
0, 0
0, 0
0, 0
0, 0
0, 0
0, 0
0, 0
0, 0
0, 0
0, 0
0, 0
0, 0
0, 0
0, 0
0, 0
0, 0
0, 0
0, 0
0, 0
0, 0
0, 0
0, 0
0, 0
0, 0
0, 0
0, 0
0, 0
0, 0
0, 0
0, 0
0, 0
0, 0
0, 0
0, 0
0, 0
0, 0
0, 0
0, 0
0, 0
0, 0
0, 0
0, 0
0, 0
0, 0
0, 0
0, 0
0, 0
0, 0
0, 0
0, 0
0, 0
0, 0
0, 0
0, 0
0, 0
0, 0
0, 0
0, 0
0, 0
0, 0
0, 0
0, 0
0, 0
0, 0
0, 0
0, 0
0, 0
0, 0
0, 0
0, 0
0, 0
0, 0
0, 0
0, 0
0, 0
0, 0
0, 0
0, 0
0, 0
0, 0
0, 0
0, 0
0, 0
0, 0
0, 0
0, 0
0, 0
0, 0
0, 0
0, 0
0, 0
0, 0
0, 0
0, 0
0, 0
0, 0
0, 0
0, 0
0, 0
0, 0
0, 0
0, 0
0, 0
0, 0
0, 0
0, 0
0, 0
0, 0
0, 0
0, 0
0, 0
0, 0
0, 0
0, 0
0, 0
0, 0
0, 0
0, 0
0, 0
0, 0
0, 0
0, 0
0, 0
0, 0
0, 0
0, 0
0, 0
0, 0
0, 0
0, 0
0, 0
0, 0
0, 0
0, 0
0, 0
0, 0
0, 0
0, 0
0, 0
0, 0
0, 0
0, 0
0, 0
0, 0
0, 0
0, 0
0, 0
0, 0
0, 0
0, 0
0, 0
0, 0
0, 0
0, 0
0, 0
0, 0
0, 0
0, 0
0, 0
0, 0
0, 0
0, 0
0, 0
0, 0
0, 0
0, 0
0, 0
0, 0
0, 0
0, 0
0, 0
0, 0
0, 0
0, 0
0, 0
0, 0
0, 0
0, 0
0, 0
0, 0
0, 0
0, 0
0, 0
0, 0
0, 0
0, 0
0, 0
0, 0
0, 0
0, 0
0, 0
0, 0
0, 0
0, 0
0, 0
0, 0
0, 0
0, 0
0, 0
0, 0
0, 0
0, 0
0, 0
0, 0
0, 0
0, 0
0, 0
0, 0
0, 0
0, 0
0, 0
0, 0
0, 0
0, 0
0, 0
0, 0
0, 0
0, 0
0, 0
0, 0
0, 0
0, 0
0, 0
0, 0
0, 0
0, 0
0, 0
0, 0
0, 0
0, 0
0, 0
0, 0
0, 0
0, 0
0, 0
0, 0
0, 0
0, 0
0, 0
0, 0
0, 0
0, 0
0, 0
0, 0
0, 0
0, 0
0, 0
#ENDOFDATA     end of spectrum data