File: host_upload/06-09-2024/ps_0852/dump3/ps__0852shot_2533.msa
#FORMAT      : EMSA/MAS spectral data file
#VERSION     : TC202v2.0 PIXL
#TITLE       : N/A
#DATE        :       Date in the format DD-MMM-YYYY, for example 07-JUL-2010
#TIME        :             The time of day at which the spectrum was recorded, in 24-hour format
#OWNER       : PIXL Flight Model       (PIXL will use this to indicate which instrument took the data.)
#NPOINTS     : 4096     Number of data points in the spectrum (This can be zero for configuration only files)
#NCOLUMNS    : 2     Number of data columns in the spectrum (This can be zero for configuration only files)
#XUNITS      : eV
#YUNITS      : COUNTS
#DATATYPE    : YY
#XPERCHAN    : 7.862, 7.881   eV per channel (separate by commas if more than one detector)
#OFFSET      : 18.5, -22.4         eV of first channel  (separate by commas if more than one detector
#SIGNALTYPE  : XRF
#YP_TEMP     : 2.203
#LIVETIME    : 8.55839, 8.55984   seconds (separate by commas if more than one detector)
#REALTIME    : 10, 10.0   seconds (separate by commas if more than one detector)
#SPECTRUM    : start of spectrum data
0, 0
0, 0
0, 0
0, 0
0, 0
0, 0
0, 0
0, 0
0, 0
0, 0
0, 0
0, 0
0, 0
0, 0
0, 0
0, 0
0, 0
0, 0
0, 0
0, 0
0, 0
0, 0
0, 0
0, 0
0, 0
0, 0
0, 0
0, 0
0, 0
0, 0
0, 0
0, 0
0, 0
0, 0
0, 0
0, 1
1, 0
2, 0
0, 0
1, 1
0, 1
2, 2
1, 1
1, 3
0, 3
0, 4
1, 1
3, 4
10, 5
13, 12
24, 21
43, 42
62, 53
79, 61
87, 86
54, 45
79, 50
48, 35
21, 23
19, 18
11, 8
5, 4
4, 6
3, 2
3, 6
8, 4
7, 9
10, 11
25, 22
67, 52
86, 107
175, 165
250, 272
381, 362
433, 438
426, 427
423, 363
340, 290
218, 206
112, 116
62, 61
39, 28
15, 19
4, 5
6, 3
2, 6
3, 1
2, 2
2, 1
2, 1
0, 3
3, 0
2, 1
1, 2
6, 5
8, 2
10, 13
10, 16
14, 22
7, 9
20, 14
10, 8
9, 7
6, 1
6, 3
4, 5
9, 7
13, 6
9, 13
22, 20
33, 25
26, 25
30, 43
44, 36
61, 42
53, 48
49, 35
30, 33
40, 23
36, 27
24, 26
22, 20
21, 21
20, 23
21, 18
16, 14
13, 11
12, 12
5, 5
4, 8
4, 5
7, 3
5, 4
5, 2
2, 3
0, 2
2, 4
1, 6
4, 1
0, 3
2, 1
2, 0
2, 1
2, 2
1, 4
2, 0
3, 2
1, 3
4, 1
0, 0
1, 1
2, 2
3, 6
6, 2
7, 4
8, 9
11, 4
12, 12
17, 13
13, 7
12, 8
13, 10
12, 7
7, 13
10, 5
7, 4
2, 2
4, 5
2, 9
7, 0
7, 5
6, 7
9, 2
10, 7
10, 4
14, 7
10, 5
19, 3
11, 8
8, 3
5, 5
2, 2
2, 4
5, 7
6, 2
4, 3
5, 2
3, 2
6, 2
3, 6
7, 8
5, 10
12, 10
7, 13
8, 16
11, 12
17, 19
18, 15
13, 12
10, 26
15, 11
19, 19
11, 10
2, 9
6, 13
6, 5
7, 5
8, 8
6, 6
6, 4
9, 4
9, 7
5, 2
3, 6
11, 4
7, 7
5, 6
4, 6
5, 4
4, 6
4, 3
9, 5
2, 3
4, 9
5, 8
4, 5
11, 11
12, 10
11, 14
9, 16
13, 13
15, 6
10, 11
9, 13
12, 4
7, 11
6, 8
9, 10
8, 9
8, 4
9, 6
6, 5
9, 11
9, 9
12, 16
21, 19
29, 31
31, 38
42, 61
53, 67
52, 73
63, 64
60, 52
65, 58
39, 48
33, 41
24, 49
22, 44
20, 49
17, 63
21, 69
36, 76
44, 142
87, 158
138, 252
283, 347
477, 607
794, 907
1130, 1302
1554, 1785
2016, 2063
2317, 2317
2472, 2329
2395, 2173
2119, 1884
1743, 1411
1375, 1051
917, 731
578, 434
345, 235
182, 110
104, 81
46, 34
24, 22
20, 18
11, 14
14, 14
17, 14
17, 14
16, 21
29, 26
26, 47
40, 56
70, 93
115, 126
158, 176
184, 213
273, 271
287, 353
404, 355
356, 363
339, 339
267, 292
275, 228
196, 151
149, 86
87, 61
44, 38
40, 29
15, 12
16, 10
14, 8
13, 10
9, 8
12, 12
11, 8
11, 10
8, 9
11, 14
10, 17
11, 8
11, 8
8, 9
7, 7
5, 5
6, 2
4, 5
2, 1
8, 3
4, 6
6, 0
0, 2
2, 3
3, 0
2, 7
5, 7
11, 2
3, 1
4, 2
7, 3
2, 8
6, 2
4, 3
7, 7
6, 6
12, 7
6, 8
13, 8
11, 6
10, 5
19, 4
10, 5
12, 1
5, 4
8, 5
10, 2
4, 3
4, 2
1, 4
7, 9
6, 7
3, 4
5, 6
3, 5
5, 5
5, 7
5, 8
4, 7
2, 5
3, 6
3, 6
3, 6
3, 5
4, 4
1, 2
2, 2
3, 3
3, 4
5, 2
4, 6
2, 4
1, 5
0, 1
2, 2
5, 3
1, 2
3, 7
1, 2
4, 3
6, 2
3, 4
2, 7
6, 4
5, 10
2, 7
1, 3
4, 2
5, 6
3, 4
0, 9
7, 2
0, 4
5, 3
3, 5
4, 2
4, 1
6, 4
6, 1
6, 3
7, 3
8, 6
5, 2
4, 6
4, 4
6, 5
5, 1
2, 2
4, 3
2, 3
1, 6
1, 6
6, 7
0, 1
1, 5
1, 8
3, 1
4, 2
5, 4
4, 4
3, 1
2, 5
1, 3
1, 2
1, 2
0, 4
2, 4
3, 3
1, 5
4, 1
2, 0
7, 2
4, 1
2, 3
1, 1
7, 4
2, 2
1, 1
0, 3
2, 2
0, 2
5, 1
5, 3
2, 1
5, 2
2, 3
3, 2
1, 5
1, 2
1, 1
3, 2
3, 1
2, 1
1, 2
7, 2
5, 6
4, 3
4, 1
5, 7
2, 2
5, 3
6, 5
5, 3
2, 2
3, 3
3, 1
4, 0
3, 5
3, 3
5, 1
2, 2
3, 4
2, 2
5, 0
5, 1
0, 1
1, 5
1, 2
3, 3
4, 4
3, 2
3, 5
5, 1
1, 1
3, 1
1, 3
3, 1
2, 3
3, 2
1, 4
7, 1
6, 3
0, 2
3, 1
2, 2
2, 1
6, 1
0, 1
0, 2
2, 3
1, 1
3, 0
2, 2
1, 2
2, 1
2, 1
2, 2
1, 0
2, 1
2, 0
4, 2
4, 1
2, 2
3, 2
0, 2
2, 2
4, 1
2, 2
5, 3
4, 4
3, 2
5, 1
4, 3
2, 0
1, 4
0, 3
1, 0
4, 2
1, 2
3, 2
6, 2
2, 6
8, 2
6, 6
3, 2
6, 1
3, 2
1, 3
2, 2
5, 3
3, 7
2, 4
1, 2
1, 1
2, 1
0, 1
3, 0
1, 3
0, 3
0, 1
1, 0
1, 1
0, 0
2, 1
2, 0
1, 2
2, 1
0, 4
0, 1
4, 2
2, 5
2, 3
3, 0
3, 1
1, 2
1, 4
0, 0
2, 1
4, 2
3, 1
3, 0
1, 2
1, 3
1, 1
1, 2
2, 0
3, 0
0, 2
0, 1
0, 1
0, 0
1, 3
0, 0
2, 1
1, 0
0, 3
0, 2
1, 0
2, 2
1, 0
0, 0
1, 1
1, 2
0, 1
0, 0
1, 0
0, 0
0, 1
2, 1
1, 1
0, 0
0, 0
1, 0
0, 1
1, 0
0, 0
3, 2
1, 1
1, 0
1, 4
0, 1
0, 0
1, 1
1, 0
2, 1
0, 1
1, 0
1, 1
1, 1
0, 1
2, 0
1, 0
1, 1
1, 1
1, 1
2, 1
0, 0
3, 0
2, 2
0, 0
0, 1
1, 1
1, 1
0, 1
2, 0
0, 1
2, 0
2, 1
1, 0
1, 1
0, 0
1, 0
0, 1
1, 1
0, 1
1, 0
1, 2
0, 0
2, 1
0, 0
1, 0
0, 0
2, 1
2, 1
0, 1
0, 0
3, 0
0, 2
0, 0
0, 1
1, 2
0, 0
0, 1
0, 1
0, 0
1, 2
0, 0
0, 0
1, 0
1, 0
0, 1
1, 0
1, 1
0, 1
1, 0
1, 1
0, 1
0, 0
0, 1
0, 1
0, 1
0, 1
0, 1
0, 1
1, 1
0, 1
0, 0
2, 2
0, 0
0, 1
1, 0
0, 0
0, 1
1, 1
0, 0
0, 1
0, 0
0, 2
0, 0
1, 0
1, 0
0, 0
0, 0
0, 1
0, 0
0, 0
0, 1
0, 0
0, 0
0, 1
1, 0
0, 2
0, 2
0, 0
1, 0
1, 1
0, 1
0, 0
1, 0
1, 0
0, 0
0, 0
0, 0
0, 1
0, 0
0, 0
0, 0
0, 0
1, 0
2, 0
0, 0
1, 1
1, 0
1, 0
0, 0
1, 1
0, 0
2, 0
0, 1
0, 0
1, 0
0, 0
2, 0
0, 1
0, 0
0, 0
0, 0
2, 0
1, 0
0, 0
0, 0
0, 0
0, 1
0, 0
0, 0
0, 0
1, 0
1, 0
0, 1
0, 0
0, 1
0, 1
1, 0
1, 0
0, 0
0, 0
0, 1
1, 0
0, 1
0, 1
0, 1
0, 0
0, 0
2, 0
0, 1
0, 0
0, 0
0, 0
0, 3
1, 0
0, 0
0, 0
0, 0
0, 0
2, 0
0, 0
0, 0
0, 0
1, 0
0, 0
0, 0
1, 0
0, 0
0, 0
0, 0
1, 0
0, 0
1, 0
1, 0
0, 0
0, 0
0, 0
1, 0
0, 0
0, 0
0, 0
0, 0
0, 1
0, 0
0, 0
0, 0
0, 0
0, 0
0, 0
0, 0
0, 0
0, 0
0, 1
0, 0
0, 0
0, 0
0, 0
0, 0
0, 0
1, 0
0, 0
0, 0
0, 1
0, 0
0, 0
0, 0
0, 0
0, 1
1, 0
0, 0
0, 0
0, 0
0, 0
0, 1
0, 0
0, 0
2, 0
0, 0
2, 1
0, 0
0, 0
0, 0
1, 0
0, 0
0, 0
0, 0
0, 0
0, 1
0, 0
0, 0
0, 0
0, 0
0, 0
0, 0
1, 0
0, 0
0, 0
0, 0
0, 0
0, 1
1, 0
0, 0
0, 0
0, 0
1, 0
0, 0
0, 0
0, 0
0, 0
0, 0
0, 0
0, 0
0, 0
0, 0
0, 0
0, 0
0, 0
0, 0
0, 0
0, 0
0, 0
0, 0
0, 0
0, 0
0, 0
0, 0
0, 0
1, 0
0, 0
0, 0
0, 0
0, 0
0, 0
0, 0
0, 0
0, 0
0, 0
0, 0
0, 0
0, 0
0, 0
0, 0
0, 0
0, 0
0, 0
0, 0
0, 0
0, 0
0, 0
0, 0
0, 0
0, 0
0, 1
0, 0
0, 0
0, 0
0, 0
0, 0
0, 0
0, 0
0, 0
0, 0
0, 0
0, 0
0, 0
0, 0
0, 0
0, 0
0, 0
0, 0
0, 0
0, 0
0, 0
0, 0
0, 0
0, 0
0, 0
0, 0
0, 0
0, 0
0, 0
0, 0
0, 0
0, 0
0, 0
0, 0
0, 0
0, 0
0, 0
0, 0
0, 0
0, 0
0, 0
0, 0
0, 0
0, 0
0, 0
0, 0
0, 0
0, 0
0, 0
0, 0
0, 0
0, 0
0, 0
0, 0
0, 0
0, 0
0, 0
0, 0
0, 0
0, 0
0, 0
0, 0
0, 0
0, 0
0, 0
0, 0
0, 0
0, 0
0, 0
0, 0
0, 0
0, 0
0, 0
0, 0
0, 0
0, 0
0, 0
0, 0
0, 1
0, 0
0, 0
0, 0
0, 0
1, 0
0, 0
0, 0
0, 0
0, 0
1, 0
0, 0
0, 0
0, 0
0, 0
0, 0
0, 0
0, 0
0, 0
0, 0
1, 0
0, 0
0, 0
1, 0
0, 0
0, 0
0, 0
0, 0
0, 0
0, 0
0, 0
0, 0
0, 0
0, 0
0, 0
0, 0
0, 0
0, 0
0, 0
0, 0
0, 0
0, 0
0, 0
0, 0
0, 0
0, 0
0, 0
0, 0
0, 0
0, 0
0, 0
0, 0
0, 0
0, 0
0, 0
0, 0
0, 0
0, 0
0, 0
0, 0
0, 0
0, 0
0, 0
0, 0
0, 0
0, 0
0, 0
0, 0
0, 0
0, 0
0, 0
0, 0
0, 0
0, 0
0, 0
0, 0
0, 0
0, 0
0, 0
0, 0
0, 0
0, 0
0, 0
0, 0
0, 0
0, 0
0, 0
0, 0
0, 0
0, 0
0, 0
0, 0
0, 0
0, 0
0, 0
0, 0
0, 0
0, 0
0, 0
0, 0
0, 0
0, 0
0, 0
0, 0
0, 0
0, 0
0, 0
0, 0
0, 0
0, 0
0, 0
0, 0
0, 0
0, 0
0, 0
0, 0
0, 0
0, 0
0, 0
0, 0
0, 0
0, 0
0, 0
0, 0
0, 0
0, 0
0, 0
0, 0
0, 0
0, 0
0, 0
0, 0
0, 0
0, 0
0, 0
0, 0
0, 0
0, 0
0, 0
0, 0
0, 0
0, 0
0, 0
0, 0
0, 0
0, 0
0, 0
0, 0
0, 0
0, 0
0, 0
0, 0
0, 0
0, 0
0, 0
0, 0
0, 0
0, 0
0, 0
0, 0
0, 0
0, 0
0, 0
0, 0
0, 0
0, 0
0, 0
0, 0
0, 0
0, 0
0, 0
0, 0
0, 0
0, 0
0, 0
0, 0
0, 0
0, 0
0, 0
0, 0
0, 0
0, 0
0, 0
0, 0
0, 0
0, 0
0, 0
0, 0
0, 0
0, 0
0, 0
0, 0
0, 0
0, 0
0, 0
0, 0
0, 0
0, 0
0, 0
0, 0
0, 0
0, 0
0, 0
0, 0
0, 0
0, 0
0, 0
0, 0
0, 0
0, 0
0, 0
0, 0
0, 0
0, 0
0, 0
0, 0
0, 0
0, 0
0, 0
0, 0
0, 0
0, 0
0, 0
0, 0
0, 0
0, 0
0, 0
0, 0
0, 0
0, 0
0, 0
0, 0
0, 0
0, 0
0, 0
0, 0
0, 0
0, 0
0, 0
0, 0
0, 0
0, 0
0, 0
0, 0
0, 0
0, 0
0, 0
0, 0
0, 0
0, 0
0, 0
0, 0
0, 0
0, 0
0, 0
0, 0
0, 0
0, 0
0, 0
0, 0
0, 0
0, 0
0, 0
0, 0
0, 0
0, 0
0, 0
0, 0
0, 0
0, 0
0, 0
0, 0
0, 0
0, 0
0, 0
0, 0
0, 0
0, 0
0, 0
0, 0
0, 0
0, 0
0, 0
0, 0
0, 0
0, 0
0, 0
0, 0
0, 0
0, 0
0, 0
0, 0
0, 0
0, 0
0, 0
0, 0
0, 0
0, 0
0, 0
0, 0
0, 0
0, 0
0, 0
0, 0
0, 0
0, 0
0, 0
0, 0
0, 0
0, 0
0, 0
0, 0
0, 0
0, 0
0, 0
0, 0
0, 0
0, 0
0, 0
0, 0
0, 0
0, 0
0, 0
0, 0
0, 0
0, 0
0, 0
0, 0
0, 0
0, 0
0, 0
0, 0
0, 0
0, 0
0, 0
0, 0
0, 0
0, 0
0, 0
0, 0
0, 0
0, 0
0, 0
0, 0
0, 0
0, 0
0, 0
0, 0
0, 0
0, 0
0, 0
0, 0
0, 0
0, 0
0, 0
0, 0
0, 0
0, 0
0, 0
0, 0
0, 0
0, 0
#ENDOFDATA     end of spectrum data