File: host_upload/06-09-2024/ps_0852/dump3/ps__0852shot_2123.msa
#FORMAT      : EMSA/MAS spectral data file
#VERSION     : TC202v2.0 PIXL
#TITLE       : N/A
#DATE        :       Date in the format DD-MMM-YYYY, for example 07-JUL-2010
#TIME        :             The time of day at which the spectrum was recorded, in 24-hour format
#OWNER       : PIXL Flight Model       (PIXL will use this to indicate which instrument took the data.)
#NPOINTS     : 4096     Number of data points in the spectrum (This can be zero for configuration only files)
#NCOLUMNS    : 2     Number of data columns in the spectrum (This can be zero for configuration only files)
#XUNITS      : eV
#YUNITS      : COUNTS
#DATATYPE    : YY
#XPERCHAN    : 7.862, 7.881   eV per channel (separate by commas if more than one detector)
#OFFSET      : 18.5, -22.4         eV of first channel  (separate by commas if more than one detector
#SIGNALTYPE  : XRF
#YP_TEMP     : 2.716
#LIVETIME    : 8.54778, 8.36899   seconds (separate by commas if more than one detector)
#REALTIME    : 10, 10.0   seconds (separate by commas if more than one detector)
#SPECTRUM    : start of spectrum data
0, 0
0, 0
0, 0
0, 0
0, 0
0, 0
0, 0
0, 0
0, 0
0, 0
0, 0
0, 0
0, 0
0, 0
0, 0
0, 0
0, 0
0, 0
0, 0
0, 0
0, 0
0, 0
0, 0
0, 0
0, 0
0, 0
0, 0
0, 0
0, 0
0, 0
0, 0
0, 0
1, 0
0, 0
0, 1
0, 1
0, 0
0, 0
0, 0
3, 1
0, 1
0, 3
2, 1
2, 1
2, 1
2, 0
3, 3
2, 3
7, 7
18, 17
21, 17
32, 40
54, 55
73, 66
83, 77
63, 52
51, 67
42, 42
26, 16
14, 13
7, 6
7, 6
3, 6
1, 3
9, 1
2, 5
6, 7
13, 16
15, 23
36, 45
85, 97
175, 185
242, 312
359, 406
408, 449
382, 448
348, 441
306, 303
204, 188
113, 125
60, 75
30, 43
16, 24
12, 9
5, 6
4, 1
2, 3
1, 1
0, 0
1, 1
0, 2
1, 4
2, 0
0, 1
2, 2
6, 4
7, 1
12, 5
1, 8
9, 4
11, 11
7, 11
4, 3
4, 6
4, 5
5, 5
1, 4
2, 8
8, 9
17, 19
13, 24
25, 22
38, 45
40, 40
47, 42
38, 50
44, 50
41, 37
29, 51
38, 25
23, 21
26, 31
24, 20
24, 22
19, 17
21, 14
15, 13
14, 14
11, 4
5, 10
8, 3
7, 6
2, 2
2, 2
2, 0
2, 1
3, 0
2, 4
2, 3
3, 3
1, 3
1, 2
1, 3
3, 2
1, 2
1, 4
2, 2
3, 3
2, 4
8, 4
7, 8
16, 13
30, 32
40, 50
56, 57
43, 80
95, 97
97, 90
91, 99
78, 78
61, 64
45, 35
29, 40
26, 21
17, 14
6, 14
10, 12
9, 8
14, 16
11, 17
12, 27
15, 24
17, 15
12, 22
12, 20
15, 23
10, 9
5, 15
3, 12
1, 9
4, 12
3, 9
2, 12
3, 0
9, 5
6, 4
14, 7
10, 9
9, 4
15, 10
21, 11
20, 16
17, 19
25, 11
19, 10
20, 17
20, 23
11, 23
19, 19
15, 26
9, 19
10, 28
11, 17
6, 29
11, 11
6, 26
11, 21
6, 18
11, 13
10, 19
9, 18
11, 11
5, 7
10, 12
9, 3
6, 10
7, 9
6, 5
6, 8
7, 7
9, 11
10, 10
6, 7
3, 10
9, 9
5, 7
8, 12
11, 13
11, 21
32, 12
23, 19
25, 19
32, 24
24, 20
28, 8
16, 16
16, 9
16, 7
11, 9
12, 12
8, 11
11, 12
5, 10
10, 15
12, 17
15, 24
28, 29
33, 58
36, 48
38, 56
56, 78
44, 57
67, 59
48, 38
42, 41
31, 36
29, 22
30, 18
17, 20
30, 19
27, 29
24, 37
50, 59
77, 99
165, 197
260, 347
451, 587
676, 937
1036, 1303
1333, 1745
1714, 1971
1995, 2297
2052, 2371
2147, 2236
1839, 1825
1496, 1472
1151, 1106
792, 680
528, 453
302, 279
205, 170
123, 76
71, 35
39, 34
21, 24
13, 18
16, 19
17, 16
11, 14
22, 14
28, 22
28, 30
40, 47
65, 91
77, 109
129, 185
163, 233
231, 305
285, 310
294, 361
334, 381
334, 288
280, 303
216, 247
171, 149
87, 104
74, 74
64, 73
35, 24
25, 18
7, 16
11, 16
8, 10
11, 18
8, 12
8, 13
9, 10
13, 10
8, 13
8, 12
10, 15
12, 16
12, 14
10, 6
6, 7
7, 6
5, 3
2, 6
4, 5
2, 4
9, 6
5, 3
4, 1
1, 2
6, 3
3, 6
1, 5
4, 6
2, 2
6, 17
5, 8
6, 4
4, 10
3, 9
4, 8
4, 12
6, 3
11, 8
10, 12
6, 6
15, 7
4, 9
7, 7
7, 9
3, 5
3, 10
4, 1
4, 6
5, 8
5, 7
1, 5
3, 3
4, 4
14, 4
4, 7
3, 8
4, 4
5, 4
3, 4
6, 4
3, 7
2, 10
8, 8
7, 8
5, 3
7, 4
7, 5
5, 3
6, 5
3, 7
0, 4
6, 4
5, 3
2, 5
4, 3
5, 4
6, 3
3, 11
3, 7
1, 6
2, 8
4, 8
3, 8
2, 9
4, 8
4, 6
4, 9
0, 10
4, 10
1, 7
5, 10
5, 5
2, 4
5, 6
2, 4
3, 4
4, 2
3, 5
5, 4
7, 10
8, 3
3, 6
7, 6
6, 7
11, 1
8, 2
5, 6
7, 7
8, 5
6, 5
5, 4
6, 4
9, 3
3, 6
7, 7
3, 5
2, 3
2, 3
4, 6
1, 3
5, 3
2, 2
4, 2
2, 3
1, 3
4, 2
1, 4
2, 6
4, 5
2, 2
2, 4
3, 7
2, 6
3, 2
3, 2
5, 2
3, 5
4, 5
2, 0
1, 1
5, 3
2, 3
3, 2
3, 1
0, 4
0, 3
2, 2
2, 3
4, 0
2, 3
3, 3
6, 3
2, 6
2, 3
3, 2
2, 3
5, 4
2, 3
0, 3
10, 2
4, 2
2, 3
4, 0
2, 4
2, 5
4, 1
2, 0
3, 4
4, 6
3, 2
3, 1
2, 2
1, 3
1, 4
1, 4
2, 1
3, 6
4, 2
5, 3
0, 5
2, 1
2, 2
1, 4
2, 3
4, 1
2, 2
2, 2
2, 2
0, 0
1, 2
3, 2
2, 2
3, 2
1, 4
2, 3
1, 0
1, 1
4, 3
2, 1
4, 1
1, 3
2, 1
1, 3
3, 3
0, 2
3, 0
3, 2
2, 4
3, 6
2, 5
2, 2
2, 4
1, 2
3, 2
1, 0
1, 2
1, 3
2, 2
5, 4
4, 2
3, 3
2, 4
5, 2
1, 2
4, 1
1, 1
4, 2
3, 2
1, 2
2, 4
1, 3
3, 4
1, 7
4, 2
4, 1
4, 3
3, 3
1, 5
0, 6
4, 0
3, 2
0, 5
0, 3
2, 0
1, 3
0, 3
2, 0
1, 1
1, 5
1, 3
4, 2
1, 2
1, 0
1, 0
1, 5
1, 7
2, 0
1, 5
1, 1
2, 2
3, 1
2, 1
3, 0
0, 0
2, 2
2, 2
4, 0
1, 0
1, 0
1, 3
0, 2
3, 0
0, 2
1, 0
1, 2
2, 2
0, 1
2, 1
1, 3
0, 0
1, 0
1, 0
4, 0
0, 0
0, 3
0, 2
1, 0
1, 2
1, 1
3, 0
1, 1
2, 2
3, 1
1, 2
1, 1
1, 0
1, 2
2, 1
0, 1
3, 1
1, 1
1, 1
1, 1
1, 1
1, 0
1, 0
1, 0
0, 2
1, 0
0, 1
0, 3
2, 1
0, 0
1, 1
1, 2
2, 2
2, 0
1, 4
0, 1
0, 2
0, 1
0, 1
0, 2
1, 0
0, 0
0, 0
1, 1
2, 0
1, 0
1, 0
0, 1
2, 1
2, 1
2, 2
0, 0
0, 1
0, 0
1, 1
0, 0
0, 0
0, 1
0, 0
0, 0
3, 0
1, 1
0, 0
1, 0
2, 0
0, 0
0, 0
1, 0
0, 1
1, 0
0, 2
0, 0
1, 0
0, 0
0, 2
0, 0
1, 0
0, 0
0, 1
0, 0
2, 2
0, 0
0, 2
1, 0
1, 1
0, 0
1, 0
1, 0
0, 0
0, 1
0, 2
1, 0
1, 0
0, 0
1, 0
2, 0
1, 0
0, 0
0, 1
0, 0
0, 0
1, 0
0, 1
0, 1
1, 0
0, 0
1, 0
0, 0
0, 0
0, 1
0, 0
0, 0
0, 0
1, 1
0, 1
0, 0
0, 0
0, 0
1, 0
1, 1
0, 0
1, 0
1, 0
0, 0
0, 0
0, 0
0, 0
0, 1
1, 0
0, 1
0, 0
0, 0
0, 1
0, 0
0, 1
0, 1
1, 0
0, 0
0, 0
1, 0
0, 0
1, 1
0, 0
0, 0
0, 0
0, 0
0, 0
0, 2
0, 0
0, 0
0, 1
0, 0
0, 0
0, 0
0, 0
0, 0
0, 0
0, 0
0, 1
0, 0
0, 0
1, 0
0, 1
0, 3
1, 0
0, 0
0, 0
0, 1
0, 0
1, 0
0, 1
0, 0
0, 0
1, 0
1, 0
0, 1
0, 0
0, 0
0, 0
0, 1
1, 0
0, 0
1, 1
1, 0
0, 1
0, 0
0, 1
0, 1
0, 0
0, 0
1, 1
1, 0
0, 0
0, 0
0, 1
1, 1
0, 0
0, 1
0, 0
0, 0
0, 0
0, 0
0, 1
0, 0
0, 1
0, 0
0, 0
0, 0
1, 1
0, 0
1, 0
1, 0
0, 0
0, 1
0, 0
0, 0
0, 1
0, 0
0, 0
1, 1
0, 0
0, 0
0, 0
1, 0
0, 0
1, 0
0, 0
1, 0
0, 0
1, 0
0, 0
0, 1
0, 0
0, 0
0, 0
0, 0
0, 0
0, 0
1, 0
0, 0
0, 1
0, 0
0, 0
0, 0
0, 0
0, 0
0, 1
0, 0
0, 0
0, 0
0, 1
1, 0
0, 1
0, 0
0, 0
0, 0
1, 1
0, 0
1, 0
0, 0
0, 1
0, 0
0, 0
0, 0
0, 1
0, 1
0, 0
0, 0
1, 0
0, 0
0, 0
0, 0
0, 0
0, 0
0, 0
0, 0
0, 0
0, 0
0, 0
0, 0
0, 0
1, 1
0, 1
0, 0
0, 0
0, 0
0, 0
0, 0
0, 0
0, 0
0, 0
0, 0
0, 0
0, 0
0, 0
0, 0
1, 0
0, 0
0, 0
0, 0
0, 0
0, 0
0, 0
0, 0
0, 0
0, 0
1, 0
0, 0
1, 0
0, 0
0, 0
0, 0
0, 1
0, 0
0, 0
0, 0
0, 0
0, 0
0, 0
0, 0
0, 1
0, 0
0, 0
0, 0
0, 0
0, 0
0, 0
0, 0
0, 0
0, 0
0, 0
0, 0
0, 0
0, 0
0, 0
0, 0
0, 0
0, 0
0, 0
0, 0
0, 0
0, 0
1, 0
0, 0
0, 0
0, 0
1, 0
0, 0
0, 0
0, 0
0, 0
0, 0
0, 0
0, 0
0, 0
0, 0
0, 0
0, 0
0, 0
0, 0
0, 0
0, 0
0, 0
0, 0
0, 0
0, 0
0, 0
0, 0
0, 0
0, 0
0, 0
0, 0
0, 0
0, 0
0, 0
0, 0
0, 0
0, 0
0, 0
0, 0
0, 0
0, 0
0, 0
0, 0
0, 0
0, 0
0, 0
0, 0
0, 0
1, 0
0, 0
0, 0
0, 0
0, 0
0, 0
0, 0
0, 0
0, 0
0, 0
0, 0
0, 0
0, 0
0, 0
0, 0
0, 0
0, 0
0, 0
0, 0
0, 0
0, 0
0, 0
0, 0
0, 0
0, 0
0, 0
0, 0
0, 0
0, 0
0, 0
0, 0
0, 0
0, 0
0, 0
0, 0
0, 0
0, 0
0, 0
0, 0
0, 0
0, 0
0, 0
0, 0
0, 0
0, 0
0, 0
0, 0
0, 0
0, 0
0, 0
0, 0
0, 0
0, 0
0, 0
0, 0
0, 0
0, 0
0, 0
0, 0
0, 0
0, 0
0, 0
0, 0
0, 0
0, 0
0, 0
0, 0
0, 0
0, 0
0, 0
0, 0
0, 0
0, 0
0, 0
0, 0
0, 0
0, 0
0, 0
0, 0
0, 0
0, 0
0, 0
0, 0
0, 0
0, 0
0, 0
0, 0
0, 0
0, 0
0, 0
0, 0
0, 0
0, 0
0, 0
1, 0
0, 0
0, 0
0, 0
0, 0
0, 0
0, 0
0, 0
0, 0
0, 0
0, 0
0, 0
0, 0
0, 0
0, 0
0, 0
0, 0
0, 0
0, 0
0, 0
0, 0
0, 0
0, 0
0, 0
0, 0
0, 0
0, 0
0, 0
0, 0
0, 0
0, 0
0, 0
0, 0
0, 0
0, 0
0, 0
0, 0
0, 0
0, 0
0, 0
0, 0
0, 0
0, 0
0, 0
0, 0
0, 0
0, 0
0, 0
0, 0
0, 0
0, 0
0, 0
0, 0
0, 0
0, 0
0, 0
0, 0
0, 0
0, 0
0, 0
0, 0
0, 0
0, 0
0, 0
0, 0
0, 0
0, 0
0, 0
0, 0
0, 0
0, 0
0, 0
0, 0
0, 0
0, 0
0, 0
0, 0
0, 0
0, 0
0, 0
0, 0
0, 0
0, 0
0, 0
0, 0
0, 0
0, 0
0, 0
0, 0
0, 0
0, 0
0, 0
0, 0
0, 0
0, 0
0, 0
0, 0
0, 0
0, 0
0, 0
0, 0
0, 0
0, 0
0, 0
0, 0
0, 0
0, 0
0, 0
0, 0
0, 0
0, 0
0, 0
0, 0
0, 0
0, 0
0, 0
0, 0
0, 0
0, 0
0, 0
0, 0
0, 0
0, 0
0, 0
0, 0
0, 0
0, 0
0, 0
0, 0
0, 0
0, 0
0, 0
0, 0
0, 0
0, 0
0, 0
0, 0
0, 0
0, 0
0, 0
0, 0
0, 0
0, 0
0, 0
0, 0
0, 0
0, 0
0, 0
0, 0
0, 0
0, 0
0, 0
0, 0
0, 0
0, 0
0, 0
0, 0
0, 0
0, 0
0, 0
0, 0
0, 0
0, 0
0, 0
0, 0
0, 0
0, 0
0, 0
0, 0
0, 0
0, 0
0, 0
0, 0
0, 0
0, 0
0, 0
0, 0
0, 0
0, 0
0, 0
0, 0
0, 0
0, 0
0, 0
0, 0
0, 0
0, 0
0, 0
0, 0
0, 0
0, 0
0, 0
0, 0
0, 0
0, 0
0, 0
0, 0
0, 0
0, 0
0, 0
0, 0
0, 0
0, 0
0, 0
0, 0
0, 0
0, 0
0, 0
0, 0
0, 0
0, 0
0, 0
0, 0
0, 0
0, 0
0, 0
0, 0
0, 0
0, 0
0, 0
0, 0
0, 0
0, 0
0, 0
0, 0
0, 0
0, 0
0, 0
0, 0
0, 0
0, 0
0, 0
0, 0
0, 0
0, 0
0, 0
0, 0
0, 0
0, 0
0, 0
0, 0
0, 0
0, 0
0, 0
0, 0
0, 0
0, 0
0, 0
0, 0
0, 0
0, 0
0, 0
0, 0
0, 0
0, 0
0, 0
0, 0
0, 0
0, 0
0, 0
0, 0
0, 0
0, 0
0, 0
0, 0
0, 0
0, 0
0, 0
0, 0
0, 0
0, 0
0, 0
0, 0
0, 0
0, 0
0, 0
0, 0
0, 0
0, 0
0, 0
0, 0
0, 0
0, 0
0, 0
0, 0
0, 0
0, 0
0, 0
0, 0
0, 0
#ENDOFDATA     end of spectrum data