File: host_upload/06-09-2024/ps_0852/dump3/ps__0852shot_2414.msa
#FORMAT      : EMSA/MAS spectral data file
#VERSION     : TC202v2.0 PIXL
#TITLE       : N/A
#DATE        :       Date in the format DD-MMM-YYYY, for example 07-JUL-2010
#TIME        :             The time of day at which the spectrum was recorded, in 24-hour format
#OWNER       : PIXL Flight Model       (PIXL will use this to indicate which instrument took the data.)
#NPOINTS     : 4096     Number of data points in the spectrum (This can be zero for configuration only files)
#NCOLUMNS    : 2     Number of data columns in the spectrum (This can be zero for configuration only files)
#XUNITS      : eV
#YUNITS      : COUNTS
#DATATYPE    : YY
#XPERCHAN    : 7.862, 7.881   eV per channel (separate by commas if more than one detector)
#OFFSET      : 18.5, -22.4         eV of first channel  (separate by commas if more than one detector
#SIGNALTYPE  : XRF
#YP_TEMP     : 2.492
#LIVETIME    : 8.56529, 8.54039   seconds (separate by commas if more than one detector)
#REALTIME    : 10, 10.0   seconds (separate by commas if more than one detector)
#SPECTRUM    : start of spectrum data
0, 0
0, 0
0, 0
0, 0
0, 0
0, 0
0, 0
0, 0
0, 0
0, 0
0, 0
0, 0
0, 0
0, 0
0, 0
0, 0
0, 0
0, 0
0, 0
0, 0
0, 0
0, 0
0, 0
0, 0
0, 0
0, 0
0, 0
0, 0
0, 0
0, 0
0, 0
0, 0
0, 0
0, 0
0, 2
2, 0
0, 1
0, 0
0, 0
2, 0
0, 2
1, 0
3, 1
3, 0
0, 1
2, 2
1, 2
6, 5
4, 3
18, 12
21, 20
49, 31
67, 51
81, 66
87, 71
101, 48
63, 55
47, 38
37, 29
15, 14
3, 7
1, 3
1, 4
6, 3
2, 1
13, 2
9, 4
3, 11
24, 16
39, 53
110, 98
190, 167
284, 276
385, 349
480, 432
507, 396
429, 346
339, 245
230, 169
126, 125
85, 49
37, 28
17, 19
14, 5
10, 3
4, 4
3, 1
4, 4
3, 1
1, 2
3, 1
1, 2
1, 2
4, 1
1, 0
1, 4
5, 5
4, 4
8, 10
5, 2
3, 3
4, 5
5, 5
1, 7
3, 3
3, 4
6, 5
9, 4
14, 6
19, 17
17, 20
29, 27
30, 22
60, 34
53, 53
60, 44
46, 33
35, 42
33, 27
31, 20
31, 15
26, 22
25, 14
18, 16
33, 15
22, 15
13, 10
19, 9
12, 8
8, 2
8, 5
7, 3
2, 5
5, 2
4, 0
7, 1
2, 5
1, 3
2, 1
3, 3
5, 3
3, 3
2, 2
3, 0
0, 1
4, 2
3, 2
2, 3
3, 2
2, 1
2, 2
5, 1
7, 3
5, 8
13, 6
10, 13
15, 20
18, 17
9, 15
18, 15
7, 10
9, 14
4, 9
5, 6
1, 4
3, 2
5, 1
4, 8
8, 6
2, 6
2, 2
6, 9
7, 3
5, 1
11, 4
4, 3
6, 4
7, 3
13, 1
12, 1
12, 0
22, 3
26, 3
36, 3
28, 4
37, 3
31, 0
36, 3
44, 4
22, 4
23, 4
14, 10
14, 2
13, 6
13, 10
9, 6
15, 14
13, 6
15, 9
16, 19
13, 13
16, 10
5, 13
7, 17
7, 13
8, 16
7, 10
3, 9
4, 10
5, 13
2, 9
4, 6
3, 7
5, 8
3, 2
4, 5
6, 7
7, 9
8, 13
4, 8
5, 9
6, 7
6, 11
5, 6
9, 8
10, 8
9, 9
12, 13
9, 13
9, 13
20, 15
14, 11
14, 8
17, 11
25, 9
22, 4
29, 7
27, 8
29, 5
23, 8
41, 8
32, 4
44, 2
38, 9
60, 14
63, 8
89, 29
95, 32
110, 44
100, 46
89, 61
88, 42
83, 51
52, 48
47, 25
30, 29
27, 17
20, 11
16, 12
21, 12
18, 16
32, 28
43, 50
88, 100
161, 181
291, 293
462, 510
797, 861
1239, 1250
1696, 1616
2070, 1905
2370, 2163
2583, 2208
2475, 2064
2254, 1813
1802, 1379
1302, 963
944, 634
617, 394
351, 235
206, 130
115, 84
60, 65
23, 55
23, 71
16, 66
13, 76
16, 98
12, 79
22, 71
19, 72
32, 75
40, 80
75, 96
108, 127
148, 188
217, 213
280, 259
346, 289
388, 353
377, 289
367, 296
322, 237
251, 211
204, 138
137, 107
109, 61
57, 34
43, 16
12, 16
22, 6
15, 2
11, 7
15, 7
13, 8
15, 11
16, 14
10, 11
20, 19
11, 11
13, 7
9, 4
14, 11
8, 6
10, 8
8, 3
4, 4
6, 3
8, 1
5, 2
5, 2
4, 4
2, 2
2, 3
7, 3
4, 3
8, 5
3, 4
4, 5
1, 3
8, 5
9, 2
4, 4
4, 8
4, 5
7, 7
4, 3
6, 10
3, 4
4, 11
9, 4
7, 7
5, 5
8, 7
4, 15
4, 6
5, 11
8, 16
9, 16
6, 12
7, 16
7, 15
12, 16
7, 14
6, 11
7, 7
14, 5
13, 7
13, 7
16, 0
13, 4
10, 8
14, 9
13, 13
6, 7
10, 9
10, 7
4, 10
3, 7
3, 10
4, 13
3, 7
1, 7
8, 7
1, 5
1, 4
0, 7
1, 6
3, 4
3, 4
3, 5
5, 1
1, 1
3, 3
1, 3
2, 6
3, 3
2, 2
8, 8
1, 11
4, 1
2, 7
1, 7
4, 13
3, 11
3, 8
2, 7
4, 9
3, 11
2, 8
6, 4
5, 4
6, 2
3, 3
3, 6
7, 4
8, 4
1, 3
11, 6
7, 3
5, 9
2, 1
11, 4
3, 5
7, 1
8, 3
2, 6
2, 8
3, 10
6, 4
5, 7
5, 6
7, 11
10, 4
2, 11
5, 18
7, 8
3, 7
4, 2
2, 8
2, 6
3, 4
4, 3
4, 3
1, 3
3, 3
2, 5
3, 5
3, 5
3, 1
3, 0
2, 4
7, 3
3, 4
2, 6
0, 2
2, 0
4, 2
3, 0
5, 1
2, 3
2, 4
1, 3
3, 3
3, 3
1, 4
4, 3
6, 1
0, 1
3, 2
3, 2
3, 4
2, 2
2, 1
2, 1
1, 1
2, 1
4, 3
4, 1
4, 2
8, 2
5, 0
3, 2
8, 0
6, 1
3, 0
3, 5
4, 3
8, 1
3, 1
2, 2
2, 3
9, 0
4, 1
4, 2
4, 3
3, 2
2, 3
0, 3
1, 3
1, 1
5, 3
3, 2
2, 4
3, 4
1, 3
3, 5
2, 2
3, 9
0, 4
3, 4
1, 0
1, 5
1, 5
0, 2
3, 2
3, 2
4, 3
3, 3
4, 2
7, 1
3, 3
1, 1
0, 4
1, 2
5, 1
1, 2
1, 1
0, 1
2, 1
3, 1
4, 3
2, 0
2, 2
1, 7
3, 1
0, 4
3, 3
2, 5
6, 7
4, 3
2, 5
4, 0
7, 5
8, 1
3, 2
1, 6
4, 1
8, 1
2, 4
1, 1
6, 2
3, 1
2, 0
2, 0
4, 5
4, 1
3, 0
1, 2
1, 2
1, 0
1, 3
2, 3
2, 1
2, 1
0, 1
3, 1
4, 3
2, 0
1, 1
3, 3
4, 1
0, 1
2, 4
2, 3
1, 2
0, 0
1, 0
4, 1
1, 1
2, 0
4, 0
0, 0
3, 0
0, 0
1, 2
1, 2
0, 0
0, 0
0, 0
0, 2
3, 1
3, 2
1, 3
3, 3
2, 3
0, 4
0, 0
2, 1
1, 2
1, 2
2, 2
3, 2
1, 3
2, 1
1, 0
2, 0
2, 0
0, 0
0, 2
2, 1
1, 1
1, 0
1, 1
3, 0
0, 1
0, 2
1, 1
0, 1
1, 0
1, 0
2, 2
0, 0
2, 1
0, 0
1, 1
1, 1
0, 0
0, 1
0, 0
0, 0
2, 1
1, 0
0, 2
1, 0
1, 0
1, 0
0, 0
1, 0
3, 0
2, 0
2, 0
1, 0
0, 0
3, 0
2, 0
0, 1
3, 0
0, 3
3, 0
2, 0
0, 0
0, 3
0, 1
1, 1
0, 0
1, 0
1, 0
0, 2
0, 0
1, 0
1, 0
1, 0
0, 0
0, 0
0, 1
0, 0
0, 1
0, 0
0, 1
0, 0
1, 0
0, 0
1, 0
1, 1
0, 0
0, 3
1, 0
1, 0
1, 0
0, 2
0, 0
0, 1
2, 1
1, 0
0, 0
1, 0
1, 0
1, 0
1, 0
0, 1
2, 0
1, 0
1, 0
0, 0
1, 0
1, 0
0, 1
0, 0
0, 0
0, 0
1, 0
1, 0
0, 1
0, 0
1, 0
1, 0
0, 0
0, 1
1, 0
0, 1
0, 0
1, 1
0, 0
1, 0
0, 1
0, 0
0, 0
0, 0
0, 0
1, 0
0, 1
1, 0
1, 0
0, 0
1, 0
1, 0
0, 0
0, 0
0, 0
2, 0
0, 0
2, 1
0, 0
1, 0
0, 0
0, 0
1, 0
0, 0
0, 0
1, 0
0, 0
0, 1
0, 1
0, 0
0, 1
0, 0
0, 0
0, 0
0, 0
0, 0
0, 2
0, 0
0, 1
0, 1
1, 0
1, 0
0, 0
0, 0
1, 0
0, 0
0, 0
1, 0
0, 0
0, 0
0, 0
1, 0
1, 1
1, 0
0, 0
0, 0
0, 0
0, 0
0, 1
0, 0
0, 0
0, 0
0, 0
1, 0
0, 1
1, 0
0, 0
0, 0
0, 0
0, 0
0, 1
1, 0
0, 0
0, 1
1, 0
1, 0
1, 1
0, 0
0, 0
0, 0
0, 0
0, 0
0, 0
0, 1
0, 1
1, 0
2, 0
0, 0
0, 0
0, 0
0, 1
1, 0
1, 0
1, 0
0, 0
0, 0
0, 0
1, 0
0, 0
0, 0
0, 0
0, 0
0, 0
0, 0
0, 0
0, 0
0, 0
0, 0
0, 0
0, 0
0, 0
1, 0
0, 0
0, 0
0, 0
0, 1
0, 0
0, 0
0, 0
0, 0
0, 0
0, 1
0, 0
1, 0
2, 0
0, 0
0, 0
0, 0
1, 0
0, 0
0, 0
0, 0
0, 1
0, 0
1, 2
0, 0
0, 0
0, 0
0, 0
1, 0
0, 0
0, 0
0, 0
0, 0
0, 0
0, 0
0, 2
0, 0
0, 0
0, 0
0, 1
0, 0
1, 0
0, 0
0, 0
0, 0
0, 0
0, 0
0, 1
0, 0
0, 0
0, 0
0, 0
0, 0
0, 0
0, 0
0, 0
0, 0
0, 0
0, 0
0, 0
0, 0
0, 0
0, 0
0, 0
0, 0
0, 0
0, 0
0, 0
0, 0
0, 0
0, 1
0, 0
0, 0
0, 0
0, 0
0, 0
0, 0
0, 1
0, 0
0, 0
0, 0
0, 0
0, 0
0, 0
0, 0
0, 0
0, 0
0, 0
0, 0
0, 0
0, 0
0, 0
0, 0
0, 0
0, 0
0, 0
1, 0
0, 0
0, 0
0, 0
0, 0
0, 0
0, 0
0, 0
0, 0
0, 0
0, 0
0, 0
0, 0
0, 0
0, 0
0, 0
0, 0
0, 0
0, 0
0, 0
1, 0
0, 0
0, 0
0, 0
0, 0
0, 0
0, 0
0, 0
0, 0
0, 0
0, 0
0, 0
0, 0
0, 0
0, 0
0, 0
0, 0
1, 0
0, 0
0, 0
0, 0
0, 1
0, 0
0, 0
0, 0
0, 0
0, 0
0, 0
0, 0
0, 0
0, 0
0, 0
0, 0
0, 0
0, 0
0, 0
0, 0
0, 0
0, 0
0, 0
0, 0
0, 0
0, 0
0, 0
0, 0
0, 0
0, 0
0, 0
0, 0
0, 0
0, 0
0, 0
0, 0
0, 0
0, 0
0, 0
0, 0
0, 0
0, 0
0, 0
0, 0
0, 0
0, 0
0, 0
0, 0
0, 0
0, 0
0, 0
0, 0
1, 0
0, 0
0, 0
0, 0
0, 0
0, 0
0, 0
0, 0
0, 0
0, 0
0, 0
0, 0
0, 0
0, 0
0, 0
0, 0
0, 0
0, 0
1, 0
0, 0
0, 0
0, 0
0, 0
0, 0
0, 0
0, 0
0, 0
0, 0
0, 0
0, 0
0, 0
0, 0
0, 0
0, 0
0, 0
0, 0
0, 0
0, 0
0, 0
0, 0
0, 0
0, 0
0, 0
0, 0
0, 0
0, 0
0, 0
0, 0
0, 0
0, 0
0, 0
0, 0
0, 0
0, 0
0, 0
0, 0
0, 0
0, 0
0, 0
0, 0
0, 0
0, 0
0, 0
0, 0
0, 0
0, 0
0, 0
0, 0
0, 0
0, 0
0, 0
0, 0
0, 0
0, 0
0, 0
0, 0
0, 0
0, 0
0, 0
0, 0
0, 0
0, 0
0, 0
0, 0
0, 0
0, 0
0, 0
0, 0
0, 0
0, 0
0, 0
0, 0
0, 0
0, 0
0, 0
0, 0
0, 0
0, 0
0, 0
0, 0
0, 0
0, 0
0, 0
0, 0
0, 0
0, 0
0, 0
0, 0
0, 0
0, 0
0, 0
0, 0
0, 0
0, 0
0, 0
0, 0
0, 0
0, 0
0, 0
0, 0
0, 0
0, 0
0, 0
0, 0
0, 0
0, 0
0, 0
0, 0
0, 0
0, 0
0, 0
0, 0
0, 0
0, 0
0, 0
0, 0
0, 0
0, 0
0, 0
0, 0
0, 0
0, 0
0, 0
0, 0
0, 0
0, 0
0, 0
0, 0
0, 0
0, 0
0, 0
0, 0
0, 0
0, 0
0, 0
0, 0
0, 0
0, 0
0, 0
0, 0
0, 0
0, 0
0, 0
0, 0
0, 0
0, 0
0, 0
0, 0
0, 0
0, 0
0, 0
0, 0
0, 0
0, 0
0, 0
0, 0
0, 0
0, 0
0, 0
0, 0
0, 0
0, 0
0, 0
0, 0
0, 0
0, 0
0, 0
0, 0
0, 0
0, 0
0, 0
0, 0
0, 0
0, 0
0, 0
0, 0
0, 0
0, 0
0, 0
0, 0
0, 0
0, 0
0, 0
0, 0
0, 0
0, 0
0, 0
0, 0
0, 0
0, 0
0, 0
0, 0
0, 0
0, 0
0, 0
0, 0
0, 0
0, 0
0, 0
0, 0
0, 0
0, 0
0, 0
0, 0
0, 0
0, 0
0, 0
0, 0
0, 0
0, 0
0, 0
0, 0
0, 0
0, 0
0, 0
0, 0
0, 0
0, 0
0, 0
0, 0
0, 0
0, 0
0, 0
0, 0
0, 0
0, 0
0, 0
0, 0
0, 0
0, 0
0, 0
0, 0
0, 0
0, 0
0, 0
0, 0
0, 0
0, 0
0, 0
0, 0
0, 0
0, 0
0, 0
0, 0
0, 0
0, 0
0, 0
0, 0
0, 0
0, 0
0, 0
0, 0
0, 0
0, 0
0, 0
0, 0
0, 0
0, 0
0, 0
0, 0
0, 0
0, 0
0, 0
0, 0
0, 0
0, 0
0, 0
0, 0
0, 0
0, 0
0, 0
0, 0
0, 0
0, 0
0, 0
0, 0
0, 0
0, 0
0, 0
0, 0
0, 0
0, 0
0, 0
0, 0
0, 0
0, 0
0, 0
0, 0
0, 0
0, 0
0, 0
0, 0
0, 0
0, 0
0, 0
0, 0
0, 0
0, 0
0, 0
0, 0
0, 0
0, 0
0, 0
0, 0
0, 0
0, 0
0, 0
0, 0
0, 0
0, 0
0, 0
0, 0
0, 0
0, 0
0, 0
0, 0
0, 0
0, 0
0, 0
0, 0
0, 0
0, 0
0, 0
0, 0
0, 0
0, 0
0, 0
0, 0
0, 0
0, 0
0, 0
0, 0
0, 0
0, 0
0, 0
#ENDOFDATA     end of spectrum data