File: host_upload/06-09-2024/ps_0852/dump3/ps__0852shot_2525.msa
#FORMAT      : EMSA/MAS spectral data file
#VERSION     : TC202v2.0 PIXL
#TITLE       : N/A
#DATE        :       Date in the format DD-MMM-YYYY, for example 07-JUL-2010
#TIME        :             The time of day at which the spectrum was recorded, in 24-hour format
#OWNER       : PIXL Flight Model       (PIXL will use this to indicate which instrument took the data.)
#NPOINTS     : 4096     Number of data points in the spectrum (This can be zero for configuration only files)
#NCOLUMNS    : 2     Number of data columns in the spectrum (This can be zero for configuration only files)
#XUNITS      : eV
#YUNITS      : COUNTS
#DATATYPE    : YY
#XPERCHAN    : 7.862, 7.881   eV per channel (separate by commas if more than one detector)
#OFFSET      : 18.5, -22.4         eV of first channel  (separate by commas if more than one detector
#SIGNALTYPE  : XRF
#YP_TEMP     : 2.267
#LIVETIME    : 8.5672, 8.5469   seconds (separate by commas if more than one detector)
#REALTIME    : 10, 10.0   seconds (separate by commas if more than one detector)
#SPECTRUM    : start of spectrum data
0, 0
0, 0
0, 0
0, 0
0, 0
0, 0
0, 0
0, 0
0, 0
0, 0
0, 0
0, 0
0, 0
0, 0
0, 0
0, 0
0, 0
0, 0
0, 0
0, 0
0, 0
0, 0
0, 0
0, 0
0, 0
0, 0
0, 0
0, 0
0, 0
0, 0
0, 0
0, 0
0, 0
0, 1
0, 1
0, 0
1, 0
2, 2
1, 0
1, 1
2, 1
0, 1
2, 1
0, 2
2, 0
1, 1
0, 1
1, 3
6, 6
17, 7
23, 21
36, 41
56, 64
77, 92
80, 109
79, 74
61, 54
44, 52
32, 25
13, 17
10, 5
9, 6
5, 2
4, 6
2, 5
4, 4
7, 12
11, 10
18, 27
50, 39
102, 119
163, 164
275, 283
328, 383
410, 436
414, 428
371, 365
288, 299
193, 190
125, 106
70, 57
43, 42
19, 23
4, 11
3, 7
5, 5
1, 1
1, 1
1, 0
0, 0
0, 2
3, 2
2, 1
6, 3
5, 5
20, 11
23, 32
43, 43
38, 36
28, 32
31, 38
42, 27
25, 19
18, 16
21, 12
12, 7
10, 8
11, 3
17, 9
16, 10
29, 10
17, 18
32, 26
29, 36
40, 32
26, 24
35, 19
34, 34
21, 21
23, 23
18, 17
14, 16
16, 13
14, 14
9, 11
11, 13
14, 10
5, 5
3, 6
4, 2
3, 4
6, 7
6, 2
1, 1
5, 6
2, 3
3, 0
0, 1
3, 0
2, 2
3, 5
2, 2
1, 1
2, 1
1, 1
4, 0
2, 1
0, 2
2, 4
2, 2
1, 2
6, 1
1, 4
7, 5
6, 13
11, 12
19, 13
15, 11
15, 14
12, 13
10, 12
3, 11
12, 8
1, 4
7, 5
1, 3
2, 1
2, 3
0, 2
2, 5
3, 1
0, 3
11, 5
4, 4
2, 4
6, 7
8, 2
9, 4
4, 2
3, 5
1, 1
1, 0
3, 4
1, 3
2, 4
3, 1
2, 3
1, 2
3, 4
6, 5
6, 8
12, 10
3, 18
16, 12
9, 8
11, 15
10, 10
11, 10
14, 12
9, 14
10, 13
8, 7
9, 6
7, 9
8, 10
8, 4
4, 6
4, 5
1, 8
7, 9
7, 19
11, 10
6, 9
2, 7
12, 8
3, 9
8, 4
5, 4
0, 3
7, 5
5, 2
6, 3
5, 4
7, 0
9, 6
9, 6
15, 11
18, 14
41, 13
45, 22
62, 21
69, 26
93, 31
99, 18
100, 22
90, 19
76, 22
55, 18
33, 14
30, 7
19, 11
14, 9
12, 3
6, 15
21, 12
31, 15
34, 32
46, 38
54, 49
88, 68
105, 54
97, 59
101, 68
81, 59
62, 33
53, 27
49, 25
41, 17
28, 16
26, 21
21, 29
32, 32
40, 56
79, 103
140, 170
250, 341
506, 627
725, 951
1122, 1433
1627, 1843
1974, 2165
2253, 2344
2475, 2428
2326, 2318
2055, 1950
1677, 1555
1239, 1156
848, 737
600, 450
330, 239
162, 125
90, 65
58, 39
28, 23
26, 16
26, 20
20, 18
16, 15
13, 14
17, 16
23, 23
35, 37
50, 54
63, 71
101, 150
140, 174
228, 208
239, 278
317, 367
322, 374
344, 344
309, 353
293, 277
263, 186
162, 152
137, 102
78, 57
48, 38
27, 15
22, 18
11, 9
3, 7
4, 7
11, 8
15, 10
11, 9
11, 16
15, 13
22, 14
12, 6
12, 10
6, 14
9, 7
9, 10
5, 2
2, 9
5, 3
3, 7
8, 6
1, 4
3, 6
8, 8
3, 5
10, 14
6, 11
5, 14
7, 14
10, 10
9, 8
12, 7
11, 6
5, 7
6, 5
14, 1
8, 4
10, 6
5, 10
3, 4
4, 8
6, 2
7, 3
4, 2
3, 5
4, 1
8, 5
9, 9
4, 6
6, 2
6, 8
12, 5
7, 5
13, 3
8, 4
7, 4
9, 3
3, 2
5, 2
5, 5
6, 2
7, 6
8, 1
10, 1
6, 5
12, 5
14, 3
22, 2
37, 5
17, 1
22, 2
23, 8
17, 5
21, 5
21, 9
22, 6
14, 8
6, 8
11, 6
11, 6
9, 7
10, 9
3, 4
2, 4
8, 3
7, 8
1, 2
6, 3
7, 2
3, 4
5, 2
2, 0
6, 5
2, 3
1, 3
4, 4
5, 3
3, 5
1, 2
4, 4
2, 3
5, 14
2, 9
1, 4
4, 2
6, 7
3, 3
3, 7
1, 4
3, 4
2, 3
3, 4
1, 8
2, 7
3, 5
2, 2
2, 0
1, 0
1, 6
1, 4
2, 2
2, 3
5, 2
1, 4
3, 3
4, 2
5, 2
0, 5
1, 2
3, 0
3, 5
5, 2
1, 2
4, 6
3, 4
2, 2
2, 1
0, 3
4, 2
5, 0
0, 5
2, 2
2, 2
0, 4
3, 1
2, 2
2, 2
4, 1
2, 5
3, 2
4, 3
1, 3
1, 4
3, 1
6, 1
9, 2
7, 2
7, 3
6, 2
9, 1
9, 2
3, 2
6, 1
5, 4
2, 3
1, 3
3, 0
2, 1
3, 3
5, 7
4, 5
4, 2
2, 2
0, 3
1, 2
0, 1
6, 2
1, 2
1, 1
4, 1
1, 4
1, 3
2, 2
1, 5
4, 3
2, 4
2, 2
3, 6
3, 3
2, 4
3, 5
2, 4
3, 3
2, 1
2, 2
2, 5
1, 5
1, 2
2, 4
4, 0
1, 0
2, 1
1, 2
0, 4
0, 1
0, 2
3, 1
1, 3
0, 1
4, 1
1, 2
3, 2
3, 3
2, 1
3, 6
1, 6
3, 4
2, 6
1, 2
3, 4
3, 3
3, 4
1, 2
0, 3
4, 3
1, 1
3, 1
1, 2
1, 3
2, 8
2, 3
1, 4
2, 5
4, 4
5, 4
2, 3
3, 3
2, 5
2, 6
2, 3
1, 4
4, 2
1, 0
1, 3
0, 0
1, 1
0, 1
2, 2
0, 0
1, 0
0, 1
1, 2
0, 0
2, 2
3, 0
0, 2
0, 2
1, 4
3, 3
0, 1
2, 4
0, 4
2, 1
3, 2
3, 3
1, 1
0, 0
0, 2
2, 1
2, 2
6, 0
3, 0
2, 2
0, 2
0, 2
2, 2
0, 1
0, 1
1, 0
1, 0
1, 1
1, 1
1, 1
2, 2
0, 2
0, 1
2, 0
1, 1
0, 0
1, 3
0, 3
0, 0
1, 2
2, 3
2, 1
0, 0
1, 2
1, 2
0, 2
2, 0
1, 0
0, 2
1, 3
0, 3
0, 1
1, 1
1, 1
2, 1
2, 0
0, 0
0, 1
1, 1
0, 1
0, 2
1, 0
0, 3
1, 1
0, 1
1, 1
0, 0
0, 1
0, 0
0, 1
0, 0
0, 1
1, 0
0, 1
0, 0
2, 0
0, 2
2, 0
2, 0
2, 0
2, 1
2, 0
3, 1
0, 0
0, 1
0, 0
0, 0
0, 1
2, 0
1, 1
0, 1
1, 1
0, 2
1, 2
0, 1
0, 2
1, 1
1, 3
0, 0
0, 1
1, 1
2, 0
0, 2
1, 0
0, 1
2, 0
0, 1
0, 3
0, 1
0, 1
0, 0
0, 0
0, 0
0, 0
0, 1
0, 0
0, 1
0, 0
0, 1
0, 1
0, 0
0, 0
0, 0
0, 0
1, 1
0, 0
0, 1
0, 1
0, 0
0, 0
2, 0
0, 0
0, 0
0, 0
1, 0
1, 1
1, 0
1, 0
1, 2
0, 0
2, 1
0, 1
0, 0
0, 0
1, 0
0, 0
0, 1
0, 1
0, 2
1, 0
1, 0
0, 1
0, 4
0, 0
0, 0
2, 0
0, 0
1, 1
0, 2
0, 1
1, 1
0, 1
0, 1
2, 0
0, 2
0, 0
0, 0
0, 1
0, 1
0, 1
1, 0
0, 2
0, 1
0, 1
1, 0
1, 0
0, 2
0, 0
0, 0
0, 0
0, 0
0, 2
0, 0
0, 0
1, 0
0, 0
0, 1
1, 0
0, 0
2, 1
0, 0
0, 0
0, 0
0, 1
0, 0
0, 2
0, 2
0, 2
0, 1
0, 2
0, 0
0, 0
0, 0
0, 1
0, 0
1, 0
0, 0
1, 1
0, 0
0, 0
2, 0
0, 0
0, 0
0, 0
0, 0
0, 0
1, 1
0, 1
1, 0
1, 1
1, 0
0, 0
0, 1
0, 0
1, 1
1, 0
0, 1
0, 0
0, 0
0, 1
0, 0
2, 1
1, 0
0, 0
0, 0
0, 2
0, 0
0, 1
0, 0
0, 0
0, 1
0, 0
0, 0
0, 0
0, 0
0, 0
0, 0
2, 0
0, 0
0, 0
0, 1
0, 0
0, 2
0, 0
0, 0
1, 0
0, 0
0, 0
0, 0
0, 1
0, 0
0, 0
0, 0
0, 0
0, 1
0, 0
1, 0
1, 0
0, 0
0, 0
0, 0
0, 0
0, 1
0, 0
0, 0
0, 0
0, 0
0, 0
0, 0
0, 0
0, 0
0, 0
0, 0
0, 0
1, 0
0, 0
0, 1
0, 0
0, 1
0, 0
0, 0
0, 1
0, 0
0, 0
0, 0
0, 0
0, 0
1, 0
0, 1
0, 1
0, 0
0, 0
0, 0
0, 1
1, 0
0, 0
0, 1
0, 0
0, 0
0, 0
0, 0
0, 0
0, 0
0, 1
0, 0
0, 0
0, 0
0, 0
0, 0
0, 0
0, 0
0, 0
0, 0
0, 0
0, 0
0, 0
0, 0
0, 0
1, 0
0, 0
0, 0
0, 0
0, 0
0, 0
0, 0
0, 0
0, 0
0, 0
0, 0
0, 0
0, 1
0, 0
0, 0
0, 0
0, 0
0, 0
0, 0
0, 0
0, 0
0, 0
0, 1
0, 0
0, 0
0, 0
0, 0
0, 0
0, 0
0, 0
0, 0
0, 0
0, 0
0, 0
0, 0
0, 0
0, 0
0, 0
0, 0
0, 0
0, 0
0, 0
0, 0
0, 0
0, 0
0, 0
0, 0
0, 0
0, 0
0, 0
0, 0
0, 0
0, 0
0, 0
0, 0
0, 0
0, 0
0, 0
0, 0
0, 0
0, 0
0, 0
0, 0
0, 0
0, 0
0, 0
0, 0
0, 0
0, 0
0, 0
0, 0
0, 0
0, 0
0, 0
0, 0
0, 0
0, 0
0, 0
0, 0
0, 0
0, 0
0, 0
0, 0
0, 0
0, 0
0, 0
0, 0
0, 0
0, 0
0, 0
0, 0
0, 0
0, 0
0, 0
0, 0
0, 0
0, 0
0, 0
0, 0
0, 0
0, 0
0, 0
0, 0
0, 0
1, 0
0, 0
0, 0
0, 0
0, 0
0, 0
0, 0
0, 0
0, 0
0, 0
0, 0
0, 0
0, 0
0, 0
0, 0
0, 0
0, 0
0, 0
0, 1
0, 0
0, 0
0, 0
0, 0
0, 0
0, 0
0, 0
0, 0
0, 0
0, 0
0, 0
0, 0
0, 0
0, 0
0, 0
0, 0
0, 0
0, 0
0, 0
0, 0
0, 0
0, 0
0, 0
0, 0
0, 0
0, 0
0, 0
0, 0
0, 0
0, 0
0, 0
0, 0
0, 0
0, 0
0, 0
0, 0
0, 0
0, 0
0, 0
0, 0
0, 0
0, 0
0, 0
0, 0
0, 0
0, 0
0, 0
0, 0
0, 0
0, 0
0, 0
0, 0
0, 0
0, 0
0, 0
0, 0
0, 0
0, 0
0, 0
0, 0
0, 0
0, 0
0, 0
0, 0
0, 0
0, 0
0, 0
0, 0
0, 0
0, 0
0, 0
0, 0
0, 0
0, 0
0, 0
0, 0
0, 0
0, 0
0, 0
0, 0
0, 0
0, 0
0, 0
0, 0
0, 0
0, 0
0, 0
0, 0
0, 0
0, 0
0, 0
0, 0
0, 0
0, 0
0, 0
0, 0
0, 0
0, 0
0, 0
0, 0
0, 0
0, 0
0, 0
0, 0
0, 0
0, 0
0, 0
0, 0
0, 0
0, 0
0, 0
0, 0
0, 0
0, 0
0, 0
0, 0
0, 0
0, 0
0, 0
0, 0
0, 0
0, 0
0, 0
0, 0
0, 0
0, 0
0, 0
0, 0
0, 0
0, 0
0, 0
0, 0
0, 0
0, 0
0, 0
0, 0
0, 0
0, 0
0, 0
0, 0
0, 0
0, 0
0, 0
0, 0
0, 0
0, 0
0, 0
0, 0
0, 0
0, 0
0, 0
0, 0
0, 0
0, 0
0, 0
0, 0
0, 0
0, 0
0, 0
0, 0
0, 0
0, 0
0, 0
0, 0
0, 0
0, 0
0, 0
0, 0
0, 0
0, 0
0, 0
0, 0
0, 0
0, 0
0, 0
0, 0
0, 0
0, 0
0, 0
0, 0
0, 0
0, 0
0, 0
0, 0
0, 0
0, 0
0, 0
0, 0
0, 0
0, 0
0, 0
0, 0
0, 0
0, 0
0, 0
0, 0
0, 0
0, 0
0, 0
0, 0
0, 0
0, 0
0, 0
0, 0
0, 0
0, 0
0, 0
0, 0
0, 0
0, 0
0, 0
0, 0
0, 0
0, 0
0, 0
0, 0
0, 0
0, 0
0, 0
0, 0
0, 0
0, 0
0, 0
0, 0
0, 0
0, 0
0, 0
0, 0
0, 0
0, 0
0, 0
0, 0
0, 0
0, 0
0, 0
0, 0
0, 0
0, 0
0, 0
0, 0
0, 0
0, 0
0, 0
0, 0
0, 0
0, 0
0, 0
0, 0
0, 0
0, 0
0, 0
0, 0
0, 0
0, 0
0, 0
0, 0
0, 0
0, 0
0, 0
0, 0
0, 0
0, 0
0, 0
0, 0
0, 0
0, 0
0, 0
0, 0
0, 0
0, 0
0, 0
0, 0
0, 0
0, 0
0, 0
0, 0
0, 0
0, 0
0, 0
0, 0
0, 0
0, 0
0, 0
0, 0
0, 0
0, 0
0, 0
0, 0
0, 0
0, 0
0, 0
0, 0
0, 0
0, 0
0, 0
0, 0
0, 0
0, 0
0, 0
0, 0
0, 0
0, 0
0, 0
0, 0
0, 0
0, 0
0, 0
0, 0
0, 0
0, 0
0, 0
0, 0
0, 0
0, 0
0, 0
0, 0
0, 0
0, 0
0, 0
0, 0
0, 0
0, 0
0, 0
0, 0
0, 0
0, 0
0, 0
0, 0
0, 0
0, 0
0, 0
0, 0
0, 0
0, 0
0, 0
0, 0
0, 0
0, 0
0, 0
0, 0
0, 0
0, 0
0, 0
0, 0
0, 0
0, 0
0, 0
0, 0
0, 0
0, 0
0, 0
0, 0
0, 0
0, 0
#ENDOFDATA     end of spectrum data