File: host_upload/06-09-2024/ps_0852/dump3/ps__0852shot_2047.msa
#FORMAT      : EMSA/MAS spectral data file
#VERSION     : TC202v2.0 PIXL
#TITLE       : N/A
#DATE        :       Date in the format DD-MMM-YYYY, for example 07-JUL-2010
#TIME        :             The time of day at which the spectrum was recorded, in 24-hour format
#OWNER       : PIXL Flight Model       (PIXL will use this to indicate which instrument took the data.)
#NPOINTS     : 4096     Number of data points in the spectrum (This can be zero for configuration only files)
#NCOLUMNS    : 2     Number of data columns in the spectrum (This can be zero for configuration only files)
#XUNITS      : eV
#YUNITS      : COUNTS
#DATATYPE    : YY
#XPERCHAN    : 7.862, 7.881   eV per channel (separate by commas if more than one detector)
#OFFSET      : 18.5, -22.4         eV of first channel  (separate by commas if more than one detector
#SIGNALTYPE  : XRF
#YP_TEMP     : 2.171
#LIVETIME    : 8.56734, 8.56649   seconds (separate by commas if more than one detector)
#REALTIME    : 10, 10.0   seconds (separate by commas if more than one detector)
#SPECTRUM    : start of spectrum data
0, 0
0, 0
0, 0
0, 0
0, 0
0, 0
0, 0
0, 0
0, 0
0, 0
0, 0
0, 0
0, 0
0, 0
0, 0
0, 0
0, 0
0, 0
0, 0
0, 0
0, 0
0, 0
0, 0
0, 0
0, 0
0, 0
0, 0
0, 0
0, 0
0, 0
0, 0
0, 0
1, 0
0, 1
0, 0
1, 0
0, 2
1, 0
1, 0
0, 2
1, 0
2, 2
1, 1
1, 1
3, 2
1, 0
5, 1
5, 6
10, 5
12, 9
34, 16
52, 32
68, 65
76, 85
91, 102
73, 78
78, 51
44, 40
35, 25
22, 17
9, 8
2, 5
6, 2
3, 2
7, 5
2, 5
5, 10
9, 11
28, 18
60, 52
93, 86
197, 171
263, 280
392, 344
417, 382
433, 397
409, 354
297, 294
243, 193
129, 143
78, 61
43, 29
23, 15
7, 8
5, 2
3, 2
2, 0
3, 3
2, 2
3, 0
2, 1
0, 1
2, 1
0, 1
0, 2
0, 3
2, 5
3, 1
3, 8
2, 12
3, 12
0, 19
3, 33
1, 23
4, 22
3, 24
3, 28
6, 15
5, 11
10, 13
7, 10
12, 12
29, 20
25, 35
36, 31
30, 19
39, 25
27, 23
25, 20
20, 24
19, 18
12, 14
23, 13
11, 18
13, 23
13, 8
8, 15
9, 12
9, 8
4, 10
9, 6
1, 2
3, 1
4, 0
3, 2
2, 4
3, 2
3, 2
2, 3
1, 2
2, 1
0, 0
0, 3
2, 2
3, 1
1, 0
0, 2
1, 2
1, 0
1, 4
4, 3
1, 2
4, 7
5, 6
10, 10
16, 13
15, 24
15, 13
20, 13
18, 22
14, 14
5, 7
4, 6
5, 3
5, 5
4, 3
1, 3
7, 4
1, 5
3, 5
5, 5
3, 7
6, 4
9, 6
8, 5
4, 4
8, 6
12, 3
8, 3
8, 1
6, 0
9, 4
11, 1
4, 5
6, 2
6, 4
4, 1
2, 6
6, 6
6, 2
10, 6
8, 8
12, 12
8, 9
23, 14
17, 7
6, 9
13, 9
18, 11
11, 19
4, 21
5, 15
8, 21
11, 25
2, 32
2, 48
4, 64
4, 68
3, 49
3, 44
3, 46
6, 37
6, 20
3, 13
6, 6
5, 8
5, 9
4, 5
5, 6
2, 7
15, 4
18, 4
24, 5
17, 6
26, 4
47, 10
65, 7
73, 9
66, 11
81, 11
76, 18
54, 13
44, 10
26, 10
27, 10
22, 6
12, 11
12, 11
10, 8
4, 5
4, 10
7, 10
10, 11
9, 15
14, 21
21, 34
31, 40
33, 39
37, 62
49, 60
56, 61
51, 66
54, 53
53, 48
52, 45
38, 24
35, 24
17, 22
20, 13
15, 13
14, 18
41, 30
38, 55
94, 109
160, 198
312, 338
501, 606
824, 862
1203, 1255
1619, 1683
2025, 2072
2327, 2318
2504, 2486
2419, 2201
2221, 1891
1811, 1542
1368, 1126
963, 753
632, 422
388, 295
213, 129
121, 67
72, 43
45, 17
28, 16
24, 18
7, 15
12, 17
15, 19
26, 23
15, 23
31, 45
55, 62
61, 77
92, 117
150, 172
197, 222
249, 254
291, 329
368, 328
373, 357
312, 300
278, 291
248, 257
177, 176
136, 167
95, 156
55, 146
37, 172
16, 206
15, 178
8, 170
5, 155
7, 135
11, 132
11, 95
9, 64
15, 59
18, 41
20, 26
12, 17
9, 11
13, 10
10, 8
4, 11
5, 4
3, 4
2, 7
9, 3
3, 5
3, 2
2, 4
3, 1
0, 3
4, 3
5, 4
4, 8
1, 7
3, 5
1, 6
0, 7
4, 9
8, 9
8, 11
2, 17
2, 16
2, 20
6, 18
6, 16
4, 12
5, 15
6, 19
4, 17
9, 7
10, 12
6, 5
5, 2
3, 4
8, 5
7, 5
10, 2
14, 5
9, 4
14, 4
12, 2
10, 1
10, 2
7, 3
5, 3
4, 5
1, 5
3, 2
3, 8
8, 9
7, 5
5, 4
1, 4
7, 4
3, 7
3, 10
1, 5
3, 6
6, 3
3, 4
1, 3
1, 4
2, 4
0, 6
2, 0
2, 5
4, 8
4, 3
4, 2
3, 2
5, 3
3, 5
0, 3
5, 3
5, 6
7, 3
6, 1
10, 2
10, 2
6, 4
9, 3
6, 1
14, 3
8, 4
15, 7
6, 6
5, 10
11, 11
7, 6
3, 9
1, 10
2, 5
1, 5
3, 7
2, 6
4, 7
2, 2
1, 1
2, 3
2, 3
0, 4
2, 3
3, 2
2, 4
6, 3
3, 3
3, 6
1, 0
5, 0
1, 0
2, 2
0, 1
1, 4
1, 2
5, 4
3, 1
5, 4
4, 6
3, 3
2, 5
4, 3
2, 4
2, 1
6, 1
9, 8
7, 1
5, 1
5, 1
4, 2
3, 2
5, 0
7, 0
5, 1
5, 1
1, 1
3, 0
1, 3
1, 4
1, 1
1, 2
1, 4
4, 4
2, 4
2, 0
1, 3
2, 1
0, 4
2, 3
1, 5
3, 2
2, 4
2, 5
2, 5
1, 6
4, 7
3, 2
2, 5
2, 7
2, 11
2, 5
0, 3
1, 6
1, 4
1, 3
3, 8
3, 0
4, 1
6, 3
2, 5
2, 0
5, 1
3, 2
3, 1
6, 0
4, 1
6, 1
5, 1
3, 3
3, 1
3, 1
3, 3
0, 0
2, 1
1, 1
1, 0
1, 1
2, 0
0, 0
2, 0
3, 0
0, 0
1, 2
0, 1
2, 2
2, 1
2, 1
0, 1
1, 2
1, 2
1, 2
2, 3
1, 1
1, 1
6, 3
3, 0
2, 2
2, 0
3, 0
1, 3
1, 1
2, 0
3, 1
1, 2
4, 3
3, 2
4, 5
5, 3
5, 6
4, 2
4, 1
7, 5
5, 1
1, 2
0, 6
6, 0
1, 2
1, 3
2, 1
5, 2
1, 0
1, 0
1, 0
1, 3
2, 0
2, 0
0, 1
1, 1
1, 0
2, 1
0, 1
1, 1
4, 2
1, 1
0, 0
3, 2
2, 3
1, 0
2, 0
2, 5
3, 2
2, 3
0, 0
0, 1
1, 4
1, 2
2, 2
1, 3
1, 1
1, 2
0, 0
1, 0
2, 1
1, 0
1, 1
3, 2
1, 2
1, 1
0, 1
2, 2
0, 3
1, 1
0, 3
0, 1
3, 1
1, 0
3, 1
0, 2
1, 2
2, 1
2, 1
0, 1
0, 0
1, 1
0, 0
0, 1
1, 1
3, 1
1, 1
1, 2
1, 0
1, 1
1, 1
0, 0
2, 0
0, 1
0, 1
0, 3
1, 1
1, 0
2, 0
0, 1
0, 1
0, 1
0, 2
3, 1
1, 0
2, 1
2, 2
0, 0
0, 0
1, 0
2, 1
1, 0
2, 4
0, 3
0, 1
1, 2
1, 0
1, 0
0, 0
0, 0
1, 0
1, 0
0, 0
0, 0
0, 1
1, 1
0, 1
1, 2
0, 0
1, 2
0, 0
0, 0
1, 0
2, 2
2, 1
0, 1
0, 0
2, 2
1, 2
0, 1
1, 2
1, 0
1, 0
2, 0
1, 0
0, 0
0, 1
0, 1
1, 0
0, 0
0, 0
1, 0
1, 0
1, 0
0, 0
0, 1
0, 0
2, 0
1, 2
0, 0
0, 1
0, 0
1, 0
0, 1
0, 0
1, 0
0, 1
2, 0
1, 1
2, 0
0, 1
0, 0
2, 0
1, 0
0, 1
0, 0
0, 0
0, 0
0, 0
2, 0
0, 2
1, 0
0, 1
1, 0
0, 0
0, 1
0, 0
1, 0
1, 0
0, 2
0, 0
0, 0
1, 1
1, 0
0, 0
0, 0
0, 1
0, 1
1, 0
0, 0
0, 1
0, 0
1, 0
2, 2
0, 0
1, 0
0, 0
1, 0
1, 0
0, 1
1, 1
1, 0
0, 0
1, 0
0, 0
0, 2
0, 0
0, 1
1, 0
1, 0
1, 0
0, 0
0, 0
0, 1
0, 1
0, 1
0, 1
0, 0
1, 0
0, 0
0, 0
0, 0
0, 0
0, 0
0, 0
0, 0
1, 0
0, 0
0, 0
2, 0
1, 0
0, 0
0, 0
1, 0
0, 0
0, 0
0, 0
1, 0
0, 0
0, 1
1, 0
0, 0
0, 0
1, 0
1, 1
0, 1
0, 0
0, 0
1, 0
0, 0
1, 0
0, 0
0, 1
0, 0
0, 4
1, 0
1, 0
0, 0
2, 0
0, 0
0, 0
0, 1
2, 0
1, 0
0, 0
1, 0
0, 1
0, 0
0, 0
0, 0
1, 0
1, 0
0, 0
1, 0
0, 0
0, 0
0, 1
0, 0
0, 0
0, 0
1, 0
0, 0
0, 0
0, 0
0, 0
0, 0
0, 0
0, 0
0, 0
0, 0
0, 0
0, 0
0, 0
0, 0
0, 0
0, 0
0, 0
0, 0
0, 0
0, 1
0, 1
0, 0
0, 0
0, 0
0, 0
0, 0
0, 0
0, 1
0, 0
0, 0
0, 0
0, 0
0, 0
1, 1
0, 0
0, 0
0, 0
0, 1
0, 0
0, 0
0, 0
0, 0
1, 0
0, 0
0, 1
0, 1
0, 0
1, 0
0, 0
1, 0
0, 0
0, 0
0, 0
0, 0
1, 0
0, 0
0, 0
0, 0
0, 0
0, 0
0, 0
0, 0
0, 0
0, 0
1, 0
1, 0
0, 0
0, 0
0, 0
0, 0
0, 0
0, 0
0, 0
0, 0
1, 0
1, 1
0, 0
0, 0
0, 0
0, 0
0, 0
0, 1
0, 0
0, 0
0, 0
0, 0
0, 0
0, 0
0, 0
0, 0
0, 0
0, 0
0, 0
0, 0
0, 0
1, 0
0, 0
0, 0
0, 0
0, 0
0, 0
0, 1
0, 0
0, 0
0, 0
0, 0
0, 0
0, 0
0, 0
0, 0
0, 0
0, 0
0, 0
0, 0
0, 0
0, 0
0, 0
0, 0
0, 0
0, 0
0, 0
0, 0
0, 0
0, 0
0, 0
0, 0
0, 0
0, 0
0, 0
0, 0
0, 0
0, 0
0, 0
0, 0
1, 0
0, 0
0, 0
0, 0
0, 0
0, 0
0, 0
0, 0
0, 0
0, 0
0, 0
0, 0
0, 0
0, 0
0, 0
0, 0
0, 0
0, 0
0, 0
0, 0
0, 0
0, 0
0, 0
0, 0
0, 0
0, 0
0, 0
0, 0
0, 0
0, 0
0, 0
0, 0
0, 0
0, 0
0, 0
0, 0
0, 0
0, 0
0, 0
0, 0
0, 0
0, 0
0, 0
0, 0
0, 0
0, 0
0, 0
0, 0
0, 0
0, 0
0, 0
0, 0
0, 0
0, 1
0, 0
0, 0
0, 0
0, 0
0, 0
0, 0
0, 0
0, 0
0, 0
0, 0
0, 0
0, 0
0, 0
1, 0
0, 0
0, 0
0, 0
0, 0
0, 0
0, 0
0, 0
0, 0
0, 0
0, 0
0, 0
0, 0
0, 0
0, 0
0, 0
0, 0
0, 0
0, 0
0, 0
0, 0
0, 0
0, 0
0, 0
0, 0
0, 0
0, 0
0, 0
0, 0
0, 1
0, 0
0, 0
0, 0
0, 0
0, 0
0, 0
0, 0
0, 0
0, 0
0, 0
0, 0
0, 0
0, 0
0, 0
0, 0
0, 0
0, 0
0, 0
0, 0
0, 0
0, 0
0, 0
0, 0
0, 0
0, 0
0, 0
0, 0
0, 0
0, 0
0, 0
0, 0
0, 0
0, 0
0, 0
0, 0
0, 0
0, 0
0, 0
0, 0
0, 0
0, 0
0, 0
0, 0
0, 0
0, 0
0, 0
0, 0
0, 0
0, 0
0, 0
0, 0
0, 0
0, 0
0, 0
0, 0
0, 0
0, 0
0, 0
0, 0
0, 0
0, 0
0, 0
0, 0
0, 0
0, 0
0, 0
0, 0
0, 0
0, 0
0, 0
0, 0
0, 0
0, 0
0, 0
0, 0
0, 0
0, 0
0, 0
0, 0
0, 0
0, 0
0, 0
0, 0
0, 0
0, 0
0, 0
0, 0
0, 0
0, 0
0, 0
0, 0
0, 0
0, 0
0, 0
0, 0
0, 0
0, 0
0, 0
0, 0
0, 0
0, 0
0, 0
0, 0
0, 0
0, 0
0, 0
0, 0
0, 0
0, 0
0, 0
0, 0
0, 0
0, 0
0, 0
0, 0
0, 0
0, 0
0, 0
0, 0
0, 0
0, 0
0, 0
0, 0
0, 0
0, 0
0, 0
0, 0
0, 0
0, 0
0, 0
0, 0
0, 0
0, 0
0, 0
0, 0
0, 0
0, 0
0, 0
0, 0
0, 0
0, 0
0, 0
0, 0
0, 0
0, 0
0, 0
0, 0
0, 0
0, 0
0, 0
0, 0
0, 0
0, 0
0, 0
0, 0
0, 0
0, 0
0, 0
0, 0
0, 0
0, 0
0, 0
0, 0
0, 0
0, 0
0, 0
0, 0
0, 0
0, 0
0, 0
0, 0
0, 0
0, 0
0, 0
0, 0
0, 0
0, 0
0, 0
0, 0
0, 0
0, 0
0, 0
0, 0
0, 0
0, 0
0, 0
0, 0
0, 0
0, 0
0, 0
0, 0
0, 0
0, 0
0, 0
0, 0
0, 0
0, 0
0, 0
0, 0
0, 0
0, 0
0, 0
0, 0
0, 0
0, 0
0, 0
0, 0
0, 0
0, 0
0, 0
0, 0
0, 0
0, 0
0, 0
0, 0
0, 0
0, 0
0, 0
0, 0
0, 0
0, 0
0, 0
0, 0
0, 0
0, 0
0, 0
0, 0
0, 0
0, 0
0, 0
0, 0
0, 0
0, 0
0, 0
0, 0
0, 0
0, 0
0, 0
0, 0
0, 0
0, 0
0, 0
0, 0
0, 0
0, 0
0, 0
0, 0
0, 0
0, 0
0, 0
0, 0
0, 0
0, 0
0, 0
0, 0
0, 0
0, 0
0, 0
0, 0
0, 0
0, 0
0, 0
0, 0
0, 0
0, 0
0, 0
0, 0
0, 0
0, 0
0, 0
0, 0
0, 0
0, 0
0, 0
0, 0
0, 0
0, 0
0, 0
0, 0
0, 0
0, 0
0, 0
0, 0
0, 0
0, 0
0, 0
0, 0
0, 0
0, 0
0, 0
0, 0
0, 0
0, 0
0, 0
0, 0
0, 0
0, 0
0, 0
0, 0
0, 0
0, 0
0, 0
0, 0
0, 0
0, 0
0, 0
0, 0
0, 0
0, 0
0, 0
0, 0
0, 0
0, 0
0, 0
0, 0
0, 0
0, 0
0, 0
0, 0
0, 0
#ENDOFDATA     end of spectrum data