File: host_upload/06-09-2024/ps_0852/dump3/ps__0852shot_2361.msa
#FORMAT      : EMSA/MAS spectral data file
#VERSION     : TC202v2.0 PIXL
#TITLE       : N/A
#DATE        :       Date in the format DD-MMM-YYYY, for example 07-JUL-2010
#TIME        :             The time of day at which the spectrum was recorded, in 24-hour format
#OWNER       : PIXL Flight Model       (PIXL will use this to indicate which instrument took the data.)
#NPOINTS     : 4096     Number of data points in the spectrum (This can be zero for configuration only files)
#NCOLUMNS    : 2     Number of data columns in the spectrum (This can be zero for configuration only files)
#XUNITS      : eV
#YUNITS      : COUNTS
#DATATYPE    : YY
#XPERCHAN    : 7.862, 7.881   eV per channel (separate by commas if more than one detector)
#OFFSET      : 18.5, -22.4         eV of first channel  (separate by commas if more than one detector
#SIGNALTYPE  : XRF
#YP_TEMP     : 2.364
#LIVETIME    : 8.54406, 8.57341   seconds (separate by commas if more than one detector)
#REALTIME    : 10, 10.0   seconds (separate by commas if more than one detector)
#SPECTRUM    : start of spectrum data
0, 0
0, 0
0, 0
0, 0
0, 0
0, 0
0, 0
0, 0
0, 0
0, 0
0, 0
0, 0
0, 0
0, 0
0, 0
0, 0
0, 0
0, 0
0, 0
0, 0
0, 0
0, 0
0, 0
0, 0
0, 0
0, 0
0, 0
0, 0
0, 0
0, 0
0, 0
0, 0
0, 0
0, 1
0, 0
1, 4
1, 4
1, 19
1, 32
0, 35
1, 50
1, 62
0, 56
2, 54
5, 37
1, 26
3, 11
3, 10
4, 8
5, 14
24, 24
38, 44
46, 57
77, 99
74, 75
72, 83
63, 45
52, 28
28, 22
17, 18
3, 11
5, 11
1, 10
2, 12
4, 4
4, 14
2, 13
12, 16
20, 27
51, 65
108, 112
140, 232
258, 281
326, 400
428, 416
411, 437
330, 374
288, 293
180, 217
104, 112
70, 71
28, 41
16, 20
16, 15
5, 7
1, 4
4, 4
1, 6
1, 8
3, 3
1, 2
0, 4
2, 5
1, 3
1, 3
0, 4
2, 4
4, 2
6, 4
1, 4
3, 1
4, 9
3, 6
3, 7
2, 8
1, 13
4, 36
8, 110
6, 220
13, 489
11, 970
19, 1645
43, 2608
39, 3520
54, 4245
46, 4384
51, 4088
51, 3392
46, 2437
32, 1569
19, 887
21, 470
31, 217
21, 101
17, 32
20, 24
17, 11
13, 14
8, 4
6, 9
8, 4
4, 3
3, 5
7, 3
4, 7
2, 7
8, 1
2, 5
3, 2
3, 1
3, 1
1, 3
4, 2
0, 2
2, 3
1, 1
2, 1
1, 2
4, 4
5, 4
4, 6
5, 3
3, 4
12, 9
7, 14
13, 13
19, 11
17, 20
17, 20
23, 16
17, 12
12, 13
12, 7
8, 5
5, 6
2, 6
3, 7
3, 12
10, 7
8, 4
13, 9
9, 17
9, 17
7, 20
9, 19
10, 21
4, 19
6, 13
6, 15
5, 20
4, 12
4, 10
3, 10
5, 8
3, 3
0, 6
3, 5
3, 11
2, 13
7, 12
9, 11
13, 15
9, 4
7, 14
17, 15
19, 18
16, 9
16, 19
23, 14
18, 12
11, 10
18, 11
17, 10
22, 7
13, 5
17, 3
21, 1
22, 4
14, 5
13, 3
9, 4
16, 9
6, 6
11, 5
5, 10
8, 5
6, 10
8, 9
7, 6
10, 4
18, 8
18, 6
13, 9
27, 11
34, 16
33, 33
33, 33
35, 37
41, 48
48, 51
45, 62
51, 48
35, 32
27, 41
27, 31
14, 25
18, 18
12, 10
12, 9
2, 7
8, 10
2, 5
3, 10
10, 12
7, 18
23, 16
25, 30
31, 42
37, 51
46, 65
67, 62
50, 71
66, 65
63, 43
38, 38
28, 32
20, 20
27, 20
11, 20
28, 9
14, 22
28, 28
38, 39
73, 114
121, 189
268, 345
462, 624
677, 947
1111, 1419
1415, 1874
1830, 2171
2188, 2517
2196, 2526
2224, 2401
1996, 1983
1682, 1553
1180, 1147
892, 768
562, 452
346, 239
180, 151
108, 84
73, 49
52, 39
43, 34
27, 38
29, 51
21, 60
40, 57
35, 79
27, 71
37, 101
42, 106
61, 122
96, 171
147, 210
170, 265
233, 319
291, 324
314, 386
324, 389
312, 353
259, 267
226, 235
179, 179
93, 126
85, 63
49, 40
16, 20
14, 9
12, 12
9, 7
7, 6
5, 11
6, 10
7, 12
15, 14
11, 11
17, 17
9, 10
11, 11
8, 6
8, 11
6, 6
5, 4
5, 1
3, 8
3, 3
6, 11
2, 4
4, 4
4, 3
1, 3
7, 3
8, 6
3, 2
5, 7
15, 3
10, 2
9, 2
12, 7
13, 6
9, 2
13, 6
9, 5
9, 8
10, 10
17, 11
9, 8
10, 19
7, 20
3, 25
4, 14
1, 20
3, 20
4, 23
5, 17
3, 13
3, 9
4, 7
3, 9
2, 4
3, 5
6, 3
2, 2
1, 5
1, 7
2, 2
6, 0
3, 4
3, 6
3, 3
2, 3
2, 5
2, 6
2, 2
4, 5
3, 2
5, 4
2, 10
2, 10
3, 6
1, 13
7, 11
2, 13
2, 19
2, 13
5, 9
4, 11
5, 8
5, 9
8, 4
9, 3
14, 6
12, 6
10, 6
13, 4
12, 3
6, 6
10, 5
9, 3
9, 3
1, 3
5, 6
4, 5
5, 6
4, 3
7, 4
4, 2
4, 4
4, 4
3, 1
5, 2
5, 3
3, 2
3, 2
3, 5
1, 1
0, 4
0, 4
1, 0
2, 2
2, 4
1, 2
4, 2
4, 1
2, 4
2, 3
3, 5
3, 3
6, 2
3, 3
2, 4
1, 1
3, 1
2, 0
1, 3
1, 2
3, 2
3, 1
6, 2
1, 2
4, 4
8, 1
2, 3
8, 5
2, 4
5, 5
3, 1
2, 1
3, 5
7, 5
6, 4
9, 4
7, 8
8, 1
5, 9
7, 10
5, 4
2, 8
3, 6
6, 9
2, 6
5, 5
1, 0
1, 2
2, 2
2, 2
3, 7
2, 6
1, 7
1, 5
1, 6
0, 1
1, 4
3, 2
3, 2
2, 2
1, 3
4, 2
2, 3
2, 1
1, 2
1, 1
2, 2
1, 1
3, 3
1, 1
4, 2
1, 3
3, 3
3, 1
2, 4
3, 2
2, 2
3, 2
2, 1
2, 0
1, 1
1, 2
4, 2
5, 2
1, 1
2, 2
1, 2
4, 2
5, 1
2, 5
1, 4
3, 2
1, 5
1, 1
2, 1
2, 4
3, 3
2, 5
2, 4
3, 2
4, 2
1, 2
2, 3
4, 2
0, 4
2, 1
0, 3
3, 2
2, 1
1, 2
1, 2
2, 1
2, 2
1, 3
3, 2
0, 4
2, 2
1, 0
5, 3
3, 6
3, 5
5, 4
5, 2
4, 5
4, 4
1, 7
3, 2
4, 6
2, 3
3, 4
3, 4
1, 3
1, 3
1, 4
2, 1
2, 2
2, 3
3, 1
2, 4
2, 0
0, 3
1, 4
3, 1
1, 4
2, 2
2, 1
0, 4
2, 2
1, 2
4, 2
0, 5
2, 3
1, 5
0, 2
3, 1
5, 2
2, 1
1, 2
2, 0
3, 2
1, 4
0, 1
2, 2
1, 0
1, 1
2, 1
1, 2
0, 1
1, 3
0, 1
1, 2
0, 2
3, 4
1, 1
1, 0
1, 1
1, 0
0, 0
2, 0
0, 0
1, 0
2, 2
1, 0
1, 1
2, 1
3, 0
0, 2
1, 2
0, 0
0, 1
1, 1
0, 1
0, 1
1, 1
0, 1
0, 1
0, 2
0, 3
1, 1
0, 1
1, 1
3, 0
1, 0
3, 2
2, 1
1, 0
1, 1
1, 0
3, 1
0, 0
2, 1
0, 0
1, 1
0, 1
1, 3
1, 0
0, 1
0, 2
2, 0
0, 0
0, 0
1, 1
1, 1
1, 2
1, 1
0, 2
0, 1
0, 0
0, 0
0, 0
1, 0
1, 5
2, 0
1, 0
1, 1
1, 0
0, 0
0, 1
0, 1
1, 0
1, 0
1, 1
1, 1
1, 0
0, 0
0, 0
1, 0
1, 1
0, 0
0, 0
0, 1
2, 0
0, 0
1, 0
1, 0
0, 1
3, 0
1, 1
1, 2
0, 1
0, 2
3, 1
0, 0
0, 2
0, 0
2, 0
3, 1
0, 0
1, 0
0, 0
0, 0
1, 1
0, 0
0, 0
0, 0
3, 0
0, 0
1, 0
0, 0
2, 0
0, 1
0, 0
0, 0
0, 0
0, 0
1, 0
1, 0
1, 0
1, 0
0, 1
0, 1
2, 0
1, 1
0, 1
1, 2
0, 1
0, 0
0, 1
1, 0
0, 0
0, 0
0, 1
0, 0
0, 0
1, 0
0, 0
0, 1
0, 0
2, 0
0, 0
0, 1
1, 0
1, 0
2, 0
0, 0
0, 0
0, 1
0, 0
0, 2
0, 0
0, 0
0, 0
0, 0
0, 0
0, 1
1, 0
1, 1
0, 0
0, 2
0, 0
0, 0
0, 0
0, 0
0, 0
0, 0
1, 0
0, 0
0, 0
0, 0
1, 0
0, 0
0, 0
1, 0
0, 0
0, 0
1, 0
0, 0
0, 0
0, 1
0, 0
0, 0
0, 0
0, 0
0, 2
0, 0
0, 0
0, 0
0, 2
0, 0
0, 0
0, 0
0, 0
2, 2
0, 0
0, 0
1, 0
0, 0
0, 0
0, 0
0, 0
1, 1
1, 1
0, 0
0, 0
0, 0
0, 0
0, 0
0, 0
0, 1
0, 1
0, 1
1, 1
0, 1
0, 1
0, 0
0, 0
0, 0
0, 0
0, 0
0, 1
0, 0
0, 0
0, 0
0, 0
0, 0
0, 0
0, 0
0, 2
0, 0
1, 0
0, 0
0, 0
0, 0
0, 0
0, 0
0, 0
0, 0
0, 0
0, 0
0, 0
0, 1
0, 0
0, 1
0, 0
1, 0
1, 0
0, 0
0, 0
0, 0
1, 0
0, 0
0, 0
0, 0
0, 0
1, 0
0, 0
0, 0
0, 0
0, 1
0, 0
1, 0
0, 0
0, 0
0, 0
0, 0
0, 0
0, 0
0, 0
0, 0
0, 0
0, 0
0, 0
0, 1
0, 0
0, 1
1, 0
0, 1
0, 0
0, 1
0, 0
0, 0
0, 0
0, 1
0, 0
0, 0
0, 0
1, 0
0, 0
0, 0
0, 0
0, 0
0, 0
1, 1
0, 0
0, 0
0, 0
0, 0
0, 0
0, 0
0, 0
0, 0
0, 0
0, 0
0, 0
0, 0
0, 0
0, 0
0, 0
1, 0
0, 0
0, 0
0, 0
0, 0
0, 0
0, 1
0, 1
0, 0
0, 0
1, 0
0, 0
0, 0
0, 0
0, 0
1, 0
0, 0
0, 0
0, 0
0, 0
0, 0
0, 0
0, 0
0, 0
0, 0
0, 0
0, 0
0, 0
0, 0
0, 0
0, 0
0, 0
0, 0
0, 0
0, 0
0, 0
0, 0
0, 0
0, 0
1, 0
0, 0
0, 0
0, 0
0, 0
0, 0
0, 0
0, 0
0, 0
0, 0
0, 0
0, 0
0, 0
0, 0
0, 0
0, 0
0, 0
0, 0
0, 0
0, 0
0, 0
0, 0
0, 0
0, 0
0, 0
0, 0
0, 0
1, 0
0, 0
0, 0
0, 0
0, 0
0, 0
0, 0
0, 0
0, 0
0, 0
0, 0
0, 0
0, 0
0, 0
0, 0
0, 0
0, 0
0, 0
0, 0
0, 0
0, 0
0, 0
0, 0
0, 0
0, 0
0, 0
0, 0
0, 0
0, 0
0, 0
0, 0
0, 0
0, 0
0, 0
0, 0
0, 0
0, 0
0, 0
0, 0
0, 0
0, 0
0, 0
0, 0
0, 0
0, 0
0, 0
0, 0
0, 0
0, 0
0, 0
0, 0
0, 0
0, 0
0, 0
0, 0
0, 0
0, 0
0, 0
0, 0
0, 0
0, 0
0, 0
0, 0
0, 0
0, 0
0, 0
0, 0
0, 0
0, 0
0, 0
0, 0
0, 0
0, 0
0, 0
0, 0
0, 0
0, 0
0, 0
0, 0
0, 0
0, 0
0, 0
0, 0
0, 0
0, 0
0, 0
0, 0
0, 0
0, 0
0, 0
0, 0
0, 0
0, 0
0, 0
0, 0
0, 0
0, 0
0, 0
0, 0
0, 0
0, 0
0, 0
0, 0
0, 0
0, 0
0, 0
0, 0
0, 0
0, 0
0, 0
0, 0
0, 0
0, 0
0, 0
0, 0
0, 0
0, 0
0, 0
0, 0
0, 0
0, 0
0, 0
0, 0
0, 0
0, 0
0, 0
0, 0
0, 0
0, 0
0, 0
0, 0
0, 0
0, 0
0, 0
0, 0
0, 0
0, 0
0, 0
0, 0
0, 0
0, 0
0, 0
0, 0
0, 0
0, 0
0, 0
0, 0
0, 0
0, 0
0, 0
0, 0
0, 0
0, 0
0, 0
0, 0
0, 0
0, 0
0, 0
0, 0
0, 0
0, 0
0, 0
0, 0
0, 0
0, 0
0, 0
0, 0
0, 0
0, 0
0, 0
0, 0
0, 0
0, 0
0, 0
0, 0
0, 0
0, 0
0, 0
0, 0
0, 0
0, 0
0, 0
0, 0
0, 0
0, 0
0, 0
0, 0
0, 0
0, 0
0, 0
0, 0
0, 0
0, 0
0, 0
0, 0
0, 0
0, 0
0, 0
0, 0
0, 0
0, 0
0, 0
0, 0
0, 0
0, 0
0, 0
0, 0
0, 0
0, 0
0, 0
0, 0
0, 0
0, 0
0, 0
0, 0
0, 0
0, 0
0, 0
0, 0
0, 0
0, 0
0, 0
0, 0
0, 0
0, 0
0, 0
0, 0
0, 0
0, 0
0, 0
0, 0
0, 0
0, 0
0, 0
0, 0
0, 0
0, 0
0, 0
0, 0
0, 0
0, 0
0, 0
0, 0
0, 0
0, 0
0, 0
0, 0
0, 0
0, 0
0, 0
0, 0
0, 0
0, 0
0, 0
0, 0
0, 0
0, 0
0, 0
0, 0
0, 0
0, 0
0, 0
0, 0
0, 0
0, 0
0, 0
0, 0
0, 0
0, 0
0, 0
0, 0
0, 0
0, 0
0, 0
0, 0
0, 0
0, 0
0, 0
0, 0
0, 0
0, 0
0, 0
0, 0
0, 0
0, 0
0, 0
0, 0
0, 0
0, 0
0, 0
0, 0
0, 0
0, 0
0, 0
0, 0
0, 0
0, 0
0, 0
0, 0
0, 0
0, 0
0, 0
0, 0
0, 0
0, 0
0, 0
0, 0
0, 0
0, 0
0, 0
0, 0
0, 0
0, 0
0, 0
0, 0
0, 0
0, 0
0, 0
0, 0
0, 0
0, 0
0, 0
0, 0
0, 0
0, 0
0, 0
0, 0
0, 0
0, 0
0, 0
0, 0
0, 0
0, 0
0, 0
0, 0
0, 0
0, 0
0, 0
0, 0
0, 0
0, 0
0, 0
0, 0
0, 0
0, 0
0, 0
0, 0
0, 0
0, 0
0, 0
0, 0
0, 0
0, 0
0, 0
0, 0
0, 0
0, 0
0, 0
0, 0
0, 0
0, 0
0, 0
0, 0
0, 0
0, 0
0, 0
0, 0
0, 0
0, 0
0, 0
0, 0
0, 0
0, 0
0, 0
0, 0
0, 0
0, 0
0, 0
0, 0
0, 0
0, 0
0, 0
0, 0
0, 0
0, 0
0, 0
0, 0
0, 0
0, 0
0, 0
0, 0
0, 0
0, 0
0, 0
0, 0
0, 0
0, 0
0, 0
0, 0
0, 0
0, 0
0, 0
0, 0
0, 0
#ENDOFDATA     end of spectrum data