File: host_upload/06-09-2024/ps_0852/dump3/ps__0852shot_2557.msa
#FORMAT      : EMSA/MAS spectral data file
#VERSION     : TC202v2.0 PIXL
#TITLE       : N/A
#DATE        :       Date in the format DD-MMM-YYYY, for example 07-JUL-2010
#TIME        :             The time of day at which the spectrum was recorded, in 24-hour format
#OWNER       : PIXL Flight Model       (PIXL will use this to indicate which instrument took the data.)
#NPOINTS     : 4096     Number of data points in the spectrum (This can be zero for configuration only files)
#NCOLUMNS    : 2     Number of data columns in the spectrum (This can be zero for configuration only files)
#XUNITS      : eV
#YUNITS      : COUNTS
#DATATYPE    : YY
#XPERCHAN    : 7.862, 7.881   eV per channel (separate by commas if more than one detector)
#OFFSET      : 18.5, -22.4         eV of first channel  (separate by commas if more than one detector
#SIGNALTYPE  : XRF
#YP_TEMP     : 2.332
#LIVETIME    : 8.55553, 8.54614   seconds (separate by commas if more than one detector)
#REALTIME    : 10, 10.0   seconds (separate by commas if more than one detector)
#SPECTRUM    : start of spectrum data
0, 0
0, 0
0, 0
0, 0
0, 0
0, 0
0, 0
0, 0
0, 0
0, 0
0, 0
0, 0
0, 0
0, 0
0, 0
0, 0
0, 0
0, 0
0, 0
0, 0
0, 0
0, 0
0, 0
0, 0
0, 0
0, 0
0, 0
0, 0
0, 0
0, 0
0, 0
0, 0
0, 0
0, 0
0, 0
0, 0
0, 0
0, 1
0, 1
0, 0
1, 4
1, 3
0, 2
1, 3
1, 4
2, 4
1, 2
1, 3
7, 4
13, 11
22, 27
37, 52
57, 65
86, 86
82, 93
75, 89
58, 59
25, 43
20, 38
11, 16
12, 5
5, 4
2, 2
3, 4
2, 3
4, 4
9, 11
11, 8
14, 19
45, 46
98, 110
174, 171
283, 265
375, 398
439, 457
431, 460
382, 381
292, 267
190, 214
142, 117
77, 61
32, 38
20, 21
6, 5
3, 5
3, 6
1, 2
0, 0
1, 1
1, 1
0, 1
1, 0
1, 2
1, 2
1, 2
1, 0
2, 3
5, 3
3, 5
2, 3
2, 2
1, 1
1, 0
1, 2
2, 3
5, 2
6, 3
7, 7
9, 6
16, 26
16, 31
27, 56
39, 98
46, 133
56, 139
58, 168
52, 171
58, 134
37, 111
34, 86
38, 62
31, 31
21, 37
18, 29
23, 15
19, 27
13, 26
14, 13
14, 12
7, 9
5, 7
4, 2
2, 2
2, 1
4, 1
0, 3
2, 0
4, 2
1, 0
0, 0
1, 1
0, 1
3, 0
2, 3
1, 2
0, 1
2, 2
1, 3
1, 0
2, 3
5, 3
4, 3
6, 0
5, 4
15, 9
16, 6
14, 20
12, 10
10, 21
9, 15
5, 11
8, 9
5, 8
3, 5
5, 5
4, 3
4, 6
1, 7
3, 4
3, 1
4, 8
2, 1
2, 10
7, 9
4, 3
6, 13
1, 1
4, 3
3, 3
3, 5
4, 3
7, 3
2, 4
3, 3
5, 4
2, 2
4, 5
11, 2
15, 5
32, 11
28, 15
29, 17
55, 22
60, 19
58, 23
56, 30
55, 21
39, 20
23, 11
26, 14
16, 15
20, 7
9, 6
9, 2
3, 7
8, 3
6, 5
4, 2
3, 4
5, 5
1, 1
2, 7
7, 3
2, 7
2, 5
5, 7
2, 7
11, 3
6, 6
7, 7
7, 12
12, 26
19, 29
24, 35
20, 39
31, 41
35, 49
20, 46
28, 26
12, 21
26, 29
12, 20
8, 22
10, 12
11, 13
13, 19
7, 21
11, 38
24, 35
17, 53
24, 62
35, 75
27, 73
38, 74
27, 75
31, 62
40, 62
37, 57
50, 56
64, 81
60, 60
57, 67
54, 52
52, 47
41, 29
29, 39
30, 20
25, 12
15, 11
16, 19
18, 19
31, 32
34, 48
83, 91
138, 170
257, 351
502, 590
793, 990
1136, 1387
1508, 1902
1875, 2219
2135, 2552
2346, 2575
2284, 2432
2071, 2093
1730, 1577
1222, 1112
889, 732
557, 402
335, 258
188, 153
99, 77
59, 71
35, 37
23, 16
24, 27
22, 24
24, 27
18, 36
17, 39
12, 36
31, 43
52, 56
73, 87
104, 136
138, 180
194, 241
231, 300
293, 314
303, 385
362, 389
351, 325
282, 295
248, 211
169, 171
131, 102
87, 71
68, 47
37, 31
26, 29
28, 33
19, 38
22, 35
23, 52
30, 34
29, 45
25, 37
19, 27
25, 31
18, 15
11, 14
21, 14
4, 5
10, 6
6, 5
3, 7
7, 3
3, 1
1, 6
2, 6
5, 6
8, 1
4, 3
6, 4
4, 4
2, 2
8, 5
9, 1
10, 2
7, 3
8, 2
9, 7
6, 5
6, 7
3, 5
5, 3
5, 6
6, 4
7, 6
9, 7
5, 3
5, 7
4, 3
7, 5
3, 4
2, 9
4, 5
5, 10
7, 6
2, 6
12, 11
0, 11
4, 13
4, 12
3, 8
6, 12
5, 6
7, 11
4, 7
2, 5
5, 6
3, 1
3, 12
4, 4
3, 7
1, 2
2, 4
3, 1
3, 2
3, 4
4, 5
5, 3
4, 2
3, 4
5, 2
8, 5
3, 6
12, 4
1, 4
9, 0
11, 8
15, 0
10, 6
10, 4
7, 8
14, 7
9, 8
16, 9
10, 5
5, 3
8, 3
3, 4
5, 5
7, 6
3, 6
6, 3
5, 4
3, 3
2, 7
4, 4
1, 1
6, 6
3, 1
1, 2
5, 1
2, 6
3, 3
2, 4
7, 2
3, 1
0, 3
1, 2
3, 0
3, 2
6, 4
5, 3
4, 6
3, 9
6, 10
2, 6
11, 5
9, 14
4, 10
10, 5
11, 8
7, 10
8, 5
4, 2
4, 4
5, 3
4, 3
4, 3
2, 5
1, 3
1, 3
5, 3
7, 3
10, 6
3, 4
5, 2
4, 2
4, 3
4, 6
9, 4
3, 9
4, 5
3, 1
6, 4
2, 6
5, 2
3, 2
1, 4
3, 2
1, 1
4, 4
5, 2
2, 2
4, 1
2, 2
3, 3
0, 1
3, 2
1, 1
0, 0
2, 3
2, 0
5, 1
4, 3
1, 2
1, 0
1, 5
3, 7
1, 2
5, 1
0, 2
4, 0
0, 3
1, 3
2, 4
0, 1
1, 0
5, 2
2, 1
3, 2
0, 2
5, 1
1, 3
2, 2
6, 5
4, 1
2, 3
6, 6
7, 4
4, 6
3, 5
5, 3
0, 2
4, 5
6, 2
3, 4
3, 3
1, 6
3, 4
2, 3
3, 3
4, 2
0, 1
2, 2
3, 6
2, 2
3, 1
3, 3
1, 2
0, 0
0, 3
3, 2
1, 4
2, 3
4, 2
0, 2
2, 1
1, 2
1, 1
2, 2
2, 3
2, 3
2, 4
1, 7
3, 3
2, 2
2, 3
0, 5
2, 5
8, 4
2, 4
1, 4
1, 5
2, 0
0, 2
2, 0
2, 0
2, 1
5, 1
3, 3
1, 4
2, 0
0, 1
2, 2
1, 1
3, 1
3, 0
0, 2
1, 1
1, 2
3, 1
2, 2
1, 2
2, 1
1, 2
0, 2
3, 2
2, 2
4, 1
3, 1
2, 1
2, 0
1, 1
4, 0
0, 1
0, 2
0, 1
3, 0
2, 0
0, 0
1, 2
1, 1
0, 0
0, 1
2, 0
0, 0
1, 1
1, 1
2, 0
0, 1
1, 1
1, 0
1, 1
1, 2
0, 0
0, 4
1, 1
1, 2
1, 2
2, 0
0, 2
2, 1
0, 0
1, 3
1, 0
1, 1
0, 0
2, 1
2, 1
1, 2
0, 0
2, 1
1, 1
3, 2
2, 1
1, 1
0, 3
0, 0
2, 2
2, 3
0, 1
0, 2
2, 2
0, 1
1, 0
2, 0
0, 1
1, 0
0, 0
0, 0
1, 0
1, 0
3, 0
1, 2
0, 2
0, 3
2, 0
1, 1
1, 1
0, 0
1, 1
0, 0
0, 1
0, 0
2, 0
2, 1
1, 2
0, 1
1, 1
0, 0
3, 0
2, 2
0, 0
0, 0
2, 0
0, 0
0, 0
0, 0
0, 1
0, 1
0, 0
0, 0
0, 0
0, 0
1, 0
1, 1
1, 0
1, 0
0, 0
1, 0
0, 0
1, 0
3, 2
2, 2
0, 0
1, 0
1, 1
0, 0
0, 1
1, 0
0, 1
0, 1
1, 1
0, 0
1, 1
0, 0
1, 0
0, 1
2, 0
2, 0
0, 0
1, 0
0, 0
0, 0
0, 2
1, 1
1, 0
0, 1
0, 1
0, 0
1, 0
0, 1
0, 0
2, 1
1, 0
0, 0
0, 0
2, 1
0, 0
0, 0
1, 0
2, 1
0, 0
0, 0
0, 1
0, 0
1, 3
0, 0
0, 1
0, 0
0, 0
1, 1
0, 0
1, 0
0, 0
1, 1
1, 0
2, 1
0, 0
0, 0
0, 0
1, 0
0, 0
0, 0
1, 0
0, 2
1, 0
0, 1
0, 0
0, 0
1, 0
0, 0
1, 0
1, 1
1, 0
2, 1
0, 0
2, 0
1, 0
0, 0
0, 0
1, 0
0, 0
1, 2
0, 1
0, 0
0, 0
0, 0
0, 0
0, 0
0, 0
1, 0
0, 0
0, 0
0, 1
1, 0
0, 0
0, 0
0, 0
1, 2
0, 0
0, 0
0, 0
0, 0
0, 0
0, 2
0, 0
0, 0
0, 0
0, 1
0, 0
1, 1
0, 0
1, 0
0, 0
3, 1
0, 2
1, 0
0, 1
0, 1
1, 1
0, 0
0, 0
0, 1
0, 0
0, 0
0, 1
0, 0
0, 0
1, 1
0, 0
0, 0
0, 0
0, 0
0, 1
0, 0
0, 0
0, 0
0, 1
2, 0
0, 1
0, 0
0, 0
1, 0
0, 0
0, 0
0, 0
0, 0
1, 0
0, 0
0, 0
0, 0
0, 0
0, 0
0, 0
0, 0
1, 0
0, 1
0, 0
1, 0
0, 0
0, 1
0, 0
0, 0
0, 1
1, 0
0, 1
2, 0
0, 0
0, 1
0, 0
0, 1
0, 1
0, 0
0, 0
1, 0
0, 0
0, 1
0, 0
0, 0
0, 1
0, 0
0, 1
0, 0
1, 0
1, 0
1, 0
1, 0
0, 0
0, 0
0, 0
0, 0
0, 0
0, 1
0, 0
0, 0
0, 0
0, 0
0, 0
0, 0
0, 0
0, 0
0, 0
0, 0
0, 0
0, 0
0, 0
0, 0
0, 0
2, 0
0, 0
0, 0
0, 0
0, 0
0, 1
0, 0
0, 0
0, 0
0, 0
0, 0
0, 0
0, 2
0, 0
0, 0
0, 0
0, 0
0, 0
0, 0
0, 0
0, 0
0, 1
0, 0
0, 0
0, 0
0, 0
0, 0
1, 0
0, 0
0, 0
0, 0
0, 0
0, 0
0, 0
0, 0
0, 0
0, 0
0, 0
0, 0
0, 0
0, 0
0, 0
0, 0
0, 0
0, 0
0, 0
0, 0
0, 0
0, 0
0, 0
0, 0
0, 0
0, 0
0, 0
0, 0
1, 0
0, 0
0, 0
0, 0
0, 0
0, 0
0, 0
0, 0
0, 0
0, 0
0, 0
0, 0
0, 0
0, 0
0, 0
0, 0
0, 0
0, 0
0, 0
0, 0
0, 0
0, 0
0, 1
0, 1
0, 0
0, 0
0, 0
0, 0
0, 0
0, 0
0, 0
0, 0
0, 0
0, 0
1, 0
0, 0
0, 0
0, 0
0, 0
0, 0
0, 0
0, 0
0, 0
0, 0
0, 0
0, 0
0, 0
0, 0
0, 0
0, 0
0, 0
0, 0
0, 0
0, 0
0, 0
0, 0
0, 0
0, 0
0, 0
0, 0
0, 0
0, 0
0, 0
0, 0
0, 0
0, 0
0, 0
0, 0
0, 0
0, 0
0, 0
0, 0
0, 0
0, 0
0, 0
0, 0
0, 0
0, 0
0, 0
0, 0
0, 0
0, 0
0, 0
0, 0
0, 0
0, 0
0, 0
0, 0
0, 0
0, 0
0, 0
0, 0
0, 0
0, 0
0, 0
0, 0
0, 0
0, 0
0, 0
0, 0
0, 0
0, 0
0, 0
0, 0
0, 0
0, 0
0, 0
0, 0
0, 0
0, 0
0, 0
0, 0
0, 0
0, 0
0, 0
0, 0
0, 0
0, 0
0, 0
0, 0
0, 0
0, 0
0, 0
0, 0
0, 0
0, 0
0, 0
0, 0
0, 0
0, 0
0, 0
0, 0
0, 0
0, 0
0, 0
0, 0
0, 0
0, 0
0, 0
0, 0
0, 0
0, 0
0, 0
0, 0
0, 0
0, 0
0, 0
0, 0
0, 0
0, 0
0, 0
0, 0
0, 0
0, 0
0, 0
0, 0
0, 0
0, 0
0, 0
0, 0
0, 0
0, 0
0, 0
0, 0
0, 0
0, 0
0, 0
0, 0
0, 0
0, 0
0, 0
0, 0
0, 0
0, 0
0, 0
0, 0
0, 0
0, 0
0, 0
0, 0
0, 0
0, 0
0, 0
0, 0
0, 0
0, 0
0, 0
0, 0
0, 0
0, 0
0, 0
0, 0
0, 0
0, 0
0, 0
0, 0
0, 0
0, 0
0, 0
0, 0
0, 0
0, 0
0, 0
0, 0
0, 0
0, 0
0, 0
0, 0
0, 0
0, 0
0, 0
0, 0
0, 0
0, 0
0, 0
0, 0
0, 0
0, 0
0, 0
0, 0
0, 0
0, 0
0, 0
0, 0
0, 0
0, 0
0, 0
0, 0
0, 0
0, 0
0, 0
0, 0
0, 0
0, 0
0, 0
0, 0
0, 0
0, 0
0, 0
0, 0
0, 0
0, 0
0, 0
0, 0
0, 0
0, 0
0, 0
0, 0
0, 0
0, 0
0, 0
0, 0
0, 0
0, 0
0, 0
0, 0
0, 0
0, 0
0, 0
0, 0
0, 0
0, 0
0, 0
0, 0
0, 0
0, 0
0, 0
0, 0
0, 0
0, 0
0, 0
0, 0
0, 0
0, 0
0, 0
0, 0
0, 0
0, 0
0, 0
0, 0
0, 0
0, 0
0, 0
0, 0
0, 0
0, 0
0, 0
0, 0
0, 0
0, 0
0, 0
0, 0
0, 0
0, 0
0, 0
0, 0
0, 0
0, 0
0, 0
0, 0
0, 0
0, 0
0, 0
0, 0
0, 0
0, 0
0, 0
0, 0
0, 0
0, 0
0, 0
0, 0
0, 0
0, 0
0, 0
0, 0
0, 0
0, 0
0, 0
0, 0
0, 0
0, 0
0, 0
0, 0
0, 0
0, 0
0, 0
0, 0
0, 0
0, 0
0, 0
0, 0
0, 0
0, 0
0, 0
0, 0
0, 0
0, 0
0, 0
0, 0
0, 0
0, 0
0, 0
0, 0
0, 0
0, 0
0, 0
0, 0
0, 0
0, 0
0, 0
0, 0
0, 0
0, 0
0, 0
0, 0
0, 0
0, 0
0, 0
0, 0
0, 0
0, 0
0, 0
0, 0
0, 0
0, 0
0, 0
0, 0
0, 0
0, 0
0, 0
0, 0
0, 0
0, 0
0, 0
0, 0
0, 0
0, 0
0, 0
0, 0
0, 0
0, 0
0, 0
0, 0
0, 0
0, 0
0, 0
0, 0
0, 0
0, 0
0, 0
0, 0
0, 0
0, 0
0, 0
0, 0
0, 0
0, 0
0, 0
0, 0
0, 0
0, 0
0, 0
0, 0
0, 0
0, 0
0, 0
0, 0
0, 0
0, 0
0, 0
0, 0
0, 0
0, 0
0, 0
0, 0
0, 0
0, 0
0, 0
0, 0
0, 0
0, 0
0, 0
0, 0
0, 0
0, 0
0, 0
0, 0
#ENDOFDATA     end of spectrum data