File: host_upload/06-09-2024/ps_0852/dump3/ps__0852shot_2044.msa
#FORMAT      : EMSA/MAS spectral data file
#VERSION     : TC202v2.0 PIXL
#TITLE       : N/A
#DATE        :       Date in the format DD-MMM-YYYY, for example 07-JUL-2010
#TIME        :             The time of day at which the spectrum was recorded, in 24-hour format
#OWNER       : PIXL Flight Model       (PIXL will use this to indicate which instrument took the data.)
#NPOINTS     : 4096     Number of data points in the spectrum (This can be zero for configuration only files)
#NCOLUMNS    : 2     Number of data columns in the spectrum (This can be zero for configuration only files)
#XUNITS      : eV
#YUNITS      : COUNTS
#DATATYPE    : YY
#XPERCHAN    : 7.862, 7.881   eV per channel (separate by commas if more than one detector)
#OFFSET      : 18.5, -22.4         eV of first channel  (separate by commas if more than one detector
#SIGNALTYPE  : XRF
#YP_TEMP     : 2.364
#LIVETIME    : 8.55717, 8.56295   seconds (separate by commas if more than one detector)
#REALTIME    : 10, 10.0   seconds (separate by commas if more than one detector)
#SPECTRUM    : start of spectrum data
0, 0
0, 0
0, 0
0, 0
0, 0
0, 0
0, 0
0, 0
0, 0
0, 0
0, 0
0, 0
0, 0
0, 0
0, 0
0, 0
0, 0
0, 0
0, 0
0, 0
0, 0
0, 0
0, 0
0, 0
0, 0
0, 0
0, 0
0, 0
0, 0
0, 0
0, 0
0, 0
0, 1
0, 1
0, 0
1, 2
1, 0
0, 1
0, 1
0, 4
1, 0
2, 1
1, 3
0, 3
0, 0
0, 2
1, 0
7, 5
4, 7
20, 11
23, 29
40, 28
58, 60
70, 76
86, 74
95, 67
65, 64
46, 34
26, 26
23, 22
10, 7
3, 6
2, 2
1, 6
2, 4
5, 2
8, 10
17, 8
23, 24
50, 46
84, 79
155, 180
272, 258
339, 345
401, 382
475, 438
370, 353
297, 277
193, 197
153, 121
85, 59
35, 39
23, 10
16, 8
3, 4
3, 5
4, 4
5, 5
2, 1
1, 2
0, 1
0, 3
2, 1
1, 2
1, 4
1, 2
5, 2
2, 6
5, 11
4, 3
3, 8
4, 6
2, 15
10, 8
0, 15
2, 30
6, 40
4, 44
4, 30
12, 47
16, 69
30, 95
24, 127
29, 137
37, 124
35, 160
29, 162
37, 118
22, 113
27, 71
24, 67
22, 44
17, 33
14, 24
12, 9
16, 17
14, 20
9, 15
13, 12
5, 7
8, 3
3, 7
6, 1
1, 1
7, 1
3, 3
2, 0
3, 1
6, 0
4, 1
3, 4
2, 3
1, 1
3, 2
2, 0
1, 4
1, 2
4, 1
3, 1
3, 2
6, 2
3, 6
5, 6
10, 5
13, 24
20, 16
18, 18
20, 25
12, 20
20, 13
21, 18
13, 11
11, 7
8, 8
5, 9
3, 12
6, 19
5, 13
5, 29
6, 23
10, 20
7, 24
7, 32
7, 16
7, 19
7, 14
10, 14
5, 8
9, 6
11, 6
15, 6
17, 7
14, 1
14, 3
14, 3
13, 3
17, 8
9, 3
12, 6
13, 5
15, 5
10, 8
13, 11
11, 11
23, 15
28, 13
26, 13
32, 20
38, 11
43, 15
57, 10
72, 13
63, 17
79, 9
60, 10
52, 8
39, 14
53, 14
29, 10
21, 8
20, 14
9, 5
11, 4
8, 11
7, 8
8, 4
7, 4
5, 14
7, 4
6, 6
4, 5
10, 6
6, 8
15, 13
14, 6
10, 9
24, 13
28, 11
31, 17
43, 17
40, 16
29, 17
37, 17
32, 13
23, 16
20, 13
23, 11
9, 12
19, 19
27, 12
34, 16
31, 15
40, 20
42, 36
39, 28
41, 34
43, 45
42, 59
45, 53
48, 73
66, 62
52, 63
56, 55
53, 52
40, 46
33, 35
30, 20
30, 26
20, 19
19, 23
18, 24
26, 37
51, 53
80, 116
145, 199
306, 354
446, 609
707, 900
1053, 1333
1448, 1769
1843, 2099
2164, 2430
2262, 2457
2226, 2345
2065, 1934
1674, 1465
1239, 1094
937, 745
595, 481
339, 299
185, 140
96, 59
69, 36
33, 28
21, 24
20, 19
13, 22
8, 30
12, 23
13, 30
22, 44
25, 55
35, 59
63, 75
81, 138
141, 191
193, 197
262, 297
300, 342
337, 383
364, 360
343, 329
304, 271
239, 214
206, 153
114, 124
84, 74
59, 44
38, 33
21, 28
14, 25
8, 23
9, 22
12, 23
7, 16
12, 21
11, 24
13, 25
10, 27
13, 20
7, 18
10, 13
7, 10
15, 10
11, 12
8, 3
9, 4
6, 7
9, 3
7, 0
5, 6
7, 4
5, 3
3, 4
4, 7
4, 6
2, 4
2, 6
1, 9
5, 4
3, 5
5, 7
1, 8
3, 10
7, 8
6, 9
2, 8
2, 15
5, 18
6, 15
7, 13
14, 20
11, 23
8, 14
1, 7
4, 7
6, 4
2, 8
6, 4
5, 3
4, 3
10, 3
6, 2
3, 4
11, 7
9, 3
7, 5
7, 1
6, 8
3, 5
8, 7
5, 8
5, 6
1, 6
6, 7
4, 4
4, 7
12, 4
3, 6
4, 6
2, 7
4, 7
4, 3
7, 4
3, 6
5, 2
0, 8
6, 5
4, 6
4, 7
3, 3
3, 7
6, 11
3, 8
3, 5
4, 6
4, 4
8, 3
3, 9
7, 7
8, 4
9, 3
4, 3
3, 2
7, 3
6, 8
11, 1
2, 2
4, 5
3, 4
8, 3
4, 2
6, 5
5, 2
6, 3
1, 2
7, 1
1, 3
3, 1
0, 2
1, 2
4, 5
5, 3
5, 5
1, 10
4, 7
4, 6
4, 3
8, 2
5, 10
3, 8
1, 4
1, 6
3, 5
3, 3
3, 6
1, 6
4, 8
2, 6
2, 3
2, 1
3, 7
8, 4
2, 1
5, 5
4, 4
14, 7
6, 1
4, 6
8, 2
5, 1
3, 2
4, 2
2, 3
4, 2
0, 1
2, 2
2, 0
5, 2
7, 6
2, 1
2, 3
4, 2
2, 5
5, 2
1, 3
2, 4
5, 2
5, 3
2, 2
4, 0
3, 0
4, 4
5, 3
4, 1
1, 3
5, 4
4, 1
2, 4
1, 1
1, 4
1, 4
4, 0
2, 1
2, 1
3, 2
5, 1
4, 5
3, 3
3, 1
7, 1
2, 1
2, 0
4, 2
2, 1
2, 0
3, 4
1, 4
0, 2
3, 2
2, 7
4, 2
3, 4
3, 6
0, 2
2, 3
4, 2
2, 5
3, 4
3, 2
3, 3
4, 2
0, 1
2, 0
1, 2
5, 0
0, 4
0, 1
2, 0
2, 0
2, 3
1, 3
4, 2
0, 0
4, 1
0, 1
1, 1
1, 1
0, 2
3, 1
1, 0
2, 1
0, 3
3, 0
1, 2
1, 4
2, 2
2, 5
2, 5
5, 4
2, 4
5, 8
1, 6
1, 3
3, 11
5, 3
1, 0
5, 3
1, 3
4, 2
2, 3
3, 3
2, 7
1, 1
0, 2
1, 2
1, 4
2, 0
2, 0
2, 2
3, 0
1, 1
4, 0
2, 1
3, 1
2, 2
2, 0
1, 2
1, 2
0, 2
3, 1
0, 1
0, 2
1, 2
2, 2
0, 4
1, 1
0, 2
1, 1
0, 1
0, 0
2, 1
1, 4
3, 2
1, 0
0, 0
1, 0
1, 2
0, 0
2, 1
0, 0
1, 2
2, 2
0, 0
0, 3
1, 3
0, 2
0, 2
0, 3
1, 1
1, 0
1, 2
0, 1
0, 1
1, 3
2, 2
2, 0
3, 1
0, 0
0, 3
1, 0
1, 0
0, 0
1, 2
1, 2
1, 1
1, 0
1, 1
0, 0
0, 1
1, 2
0, 0
1, 2
1, 0
0, 1
0, 0
1, 3
0, 1
2, 0
1, 1
2, 0
0, 0
3, 4
0, 1
0, 2
1, 2
0, 2
2, 1
0, 0
0, 0
1, 0
1, 3
1, 1
2, 0
0, 0
0, 0
0, 0
0, 3
0, 0
0, 0
1, 0
0, 0
1, 2
1, 1
1, 0
0, 0
1, 1
0, 0
3, 0
0, 0
1, 0
1, 0
0, 1
1, 0
0, 0
1, 0
0, 0
1, 0
0, 1
2, 0
0, 1
0, 1
0, 1
0, 0
0, 0
0, 0
0, 0
0, 0
1, 0
0, 0
1, 0
0, 0
1, 0
0, 0
1, 0
0, 1
0, 0
0, 0
0, 0
2, 0
0, 0
0, 0
1, 0
0, 1
1, 1
2, 0
1, 0
1, 0
0, 0
1, 0
0, 0
0, 0
0, 0
0, 0
0, 1
0, 0
0, 3
0, 0
1, 3
0, 1
1, 0
0, 0
0, 0
0, 0
0, 1
0, 2
0, 0
0, 0
0, 0
1, 1
0, 0
0, 1
1, 0
0, 0
0, 1
1, 0
0, 0
1, 0
1, 1
0, 0
0, 0
0, 0
1, 0
0, 1
1, 0
1, 1
0, 0
1, 0
0, 0
1, 0
0, 1
0, 0
0, 0
0, 1
0, 0
0, 0
1, 1
2, 0
0, 0
0, 0
1, 0
0, 1
1, 0
0, 0
0, 0
0, 0
0, 0
0, 0
1, 0
0, 0
1, 0
0, 0
0, 0
0, 0
0, 0
0, 1
0, 1
0, 0
1, 0
0, 1
0, 3
0, 1
0, 0
0, 0
0, 0
1, 1
0, 0
2, 0
0, 0
0, 0
0, 0
0, 0
1, 1
0, 0
1, 1
0, 0
1, 0
1, 0
1, 0
0, 0
0, 0
0, 0
1, 0
0, 1
0, 0
0, 0
0, 0
0, 1
0, 0
0, 1
0, 0
0, 0
0, 1
1, 0
0, 0
0, 0
0, 0
0, 0
0, 0
1, 0
1, 0
0, 0
1, 0
0, 0
0, 0
0, 0
0, 0
0, 0
0, 0
0, 0
0, 0
0, 0
0, 0
1, 1
0, 0
0, 0
1, 0
0, 0
0, 0
0, 0
0, 1
0, 0
0, 1
0, 0
0, 0
0, 0
0, 0
0, 0
0, 0
0, 0
0, 0
0, 1
0, 0
0, 0
0, 0
0, 0
0, 0
0, 0
0, 0
0, 0
1, 0
0, 0
1, 0
0, 2
1, 0
0, 0
0, 0
0, 0
0, 0
0, 0
0, 0
1, 0
0, 0
0, 0
0, 1
0, 0
0, 0
0, 0
0, 0
0, 0
0, 0
0, 1
0, 0
0, 0
0, 0
0, 0
0, 0
0, 0
0, 0
0, 0
0, 0
0, 1
0, 0
0, 0
0, 0
0, 0
0, 1
0, 0
0, 0
0, 0
0, 0
0, 0
0, 0
0, 1
0, 1
0, 0
0, 0
1, 0
0, 0
0, 0
0, 0
0, 0
0, 0
0, 0
0, 0
0, 0
0, 0
0, 0
0, 0
0, 0
1, 0
0, 0
0, 0
0, 0
0, 0
0, 0
0, 0
0, 0
0, 0
0, 0
0, 0
0, 0
0, 0
0, 0
0, 0
0, 0
0, 0
0, 0
0, 0
0, 0
0, 0
0, 0
0, 0
0, 1
0, 1
0, 0
0, 0
0, 0
0, 0
1, 0
0, 0
0, 0
0, 0
0, 0
0, 0
0, 0
0, 0
0, 0
0, 0
0, 0
0, 0
0, 0
0, 0
0, 0
0, 0
0, 0
0, 0
0, 0
0, 0
0, 0
0, 0
0, 0
0, 0
0, 0
0, 0
0, 0
0, 0
0, 0
0, 0
0, 0
0, 0
0, 0
0, 0
0, 0
0, 0
0, 0
0, 0
0, 1
0, 0
0, 0
0, 0
0, 0
0, 0
0, 0
0, 0
0, 0
0, 0
0, 0
0, 0
0, 0
0, 0
0, 0
0, 0
0, 0
0, 0
0, 0
0, 0
0, 1
0, 0
0, 0
0, 0
0, 0
0, 0
0, 0
0, 0
0, 0
0, 0
0, 0
0, 0
0, 0
0, 0
0, 0
0, 0
0, 1
0, 0
0, 0
0, 0
0, 0
0, 0
0, 0
0, 0
0, 0
0, 0
0, 0
0, 0
0, 0
0, 0
0, 0
0, 0
0, 0
0, 0
0, 0
0, 0
0, 0
0, 0
0, 0
0, 0
0, 0
0, 0
0, 0
0, 0
0, 1
0, 0
0, 0
0, 0
0, 0
0, 0
0, 0
0, 0
0, 0
0, 0
0, 0
0, 0
0, 0
0, 0
0, 0
0, 0
0, 0
0, 0
0, 0
0, 0
0, 0
0, 0
0, 0
0, 0
0, 0
0, 0
0, 0
0, 0
0, 0
0, 0
0, 0
0, 0
0, 0
0, 0
0, 0
0, 0
0, 0
0, 0
0, 0
0, 0
0, 0
0, 0
0, 0
0, 0
0, 0
0, 0
0, 0
0, 0
0, 0
0, 0
0, 0
0, 0
0, 0
0, 0
0, 0
0, 0
0, 0
0, 0
0, 0
0, 0
0, 0
0, 0
0, 0
0, 0
0, 0
0, 0
0, 0
0, 0
0, 0
0, 0
0, 0
0, 0
0, 0
0, 0
0, 0
0, 0
0, 0
0, 0
0, 0
0, 0
0, 0
0, 0
0, 0
0, 0
0, 0
0, 0
0, 0
0, 0
0, 0
0, 0
0, 0
0, 0
0, 0
0, 0
0, 0
0, 0
0, 0
0, 0
0, 0
0, 0
0, 0
0, 0
0, 0
0, 0
0, 0
0, 0
0, 0
0, 0
0, 0
0, 0
0, 0
0, 0
0, 0
0, 0
0, 0
0, 0
0, 0
0, 0
0, 0
0, 0
0, 0
0, 0
0, 0
0, 0
0, 0
0, 0
0, 0
0, 0
0, 0
0, 0
0, 0
0, 0
0, 0
0, 0
0, 0
0, 0
0, 0
0, 0
0, 0
0, 0
0, 0
0, 0
0, 0
0, 0
0, 0
0, 0
0, 0
0, 0
0, 0
0, 0
0, 0
0, 0
0, 0
0, 0
0, 0
0, 0
0, 0
0, 0
0, 0
0, 0
0, 0
0, 0
0, 0
0, 0
0, 0
0, 0
0, 0
0, 0
0, 0
0, 0
0, 0
0, 0
0, 0
0, 0
0, 0
0, 0
0, 0
0, 0
0, 0
0, 0
0, 0
0, 0
0, 0
0, 0
0, 0
0, 0
0, 0
0, 0
0, 0
0, 0
0, 0
0, 0
0, 0
0, 0
0, 0
0, 0
0, 0
0, 0
0, 0
0, 0
0, 0
0, 0
0, 0
0, 0
0, 0
0, 0
0, 0
0, 0
0, 0
0, 0
0, 0
0, 0
0, 0
0, 0
0, 0
0, 0
0, 0
0, 0
0, 0
0, 0
0, 0
0, 0
0, 0
0, 0
0, 0
0, 0
0, 0
0, 0
0, 0
0, 0
0, 0
0, 0
0, 0
0, 0
0, 0
0, 0
0, 0
0, 0
0, 0
0, 0
0, 0
0, 0
0, 0
0, 0
0, 0
0, 0
0, 0
0, 0
0, 0
0, 0
0, 0
0, 0
0, 0
0, 0
0, 0
0, 0
0, 0
0, 0
0, 0
0, 0
0, 0
0, 0
0, 0
0, 0
0, 0
0, 0
0, 0
0, 0
0, 0
0, 0
0, 0
0, 0
0, 0
0, 0
0, 0
0, 0
0, 0
0, 0
0, 0
0, 0
0, 0
0, 0
0, 0
0, 0
0, 0
0, 0
0, 0
0, 0
0, 0
0, 0
0, 0
0, 0
0, 0
0, 0
0, 0
0, 0
0, 0
0, 0
0, 0
0, 0
0, 0
0, 0
0, 0
0, 0
0, 0
0, 0
0, 0
0, 0
0, 0
0, 0
0, 0
0, 0
0, 0
0, 0
0, 0
0, 0
0, 0
0, 0
0, 0
0, 0
0, 0
0, 0
0, 0
0, 0
0, 0
#ENDOFDATA     end of spectrum data