File: host_upload/06-09-2024/ps_0852/dump3/ps__0852shot_2387.msa
#FORMAT      : EMSA/MAS spectral data file
#VERSION     : TC202v2.0 PIXL
#TITLE       : N/A
#DATE        :       Date in the format DD-MMM-YYYY, for example 07-JUL-2010
#TIME        :             The time of day at which the spectrum was recorded, in 24-hour format
#OWNER       : PIXL Flight Model       (PIXL will use this to indicate which instrument took the data.)
#NPOINTS     : 4096     Number of data points in the spectrum (This can be zero for configuration only files)
#NCOLUMNS    : 2     Number of data columns in the spectrum (This can be zero for configuration only files)
#XUNITS      : eV
#YUNITS      : COUNTS
#DATATYPE    : YY
#XPERCHAN    : 7.862, 7.881   eV per channel (separate by commas if more than one detector)
#OFFSET      : 18.5, -22.4         eV of first channel  (separate by commas if more than one detector
#SIGNALTYPE  : XRF
#YP_TEMP     : 2.364
#LIVETIME    : 8.54624, 8.57013   seconds (separate by commas if more than one detector)
#REALTIME    : 10, 10.0   seconds (separate by commas if more than one detector)
#SPECTRUM    : start of spectrum data
0, 0
0, 0
0, 0
0, 0
0, 0
0, 0
0, 0
0, 0
0, 0
0, 0
0, 0
0, 0
0, 0
0, 0
0, 0
0, 0
0, 0
0, 0
0, 0
0, 0
0, 0
0, 0
0, 0
0, 0
0, 0
0, 0
0, 0
0, 0
0, 0
0, 0
0, 0
0, 0
0, 0
0, 1
0, 0
0, 0
0, 0
0, 1
2, 0
0, 1
1, 0
1, 1
0, 0
1, 0
2, 0
0, 1
1, 2
4, 2
7, 7
13, 9
26, 32
38, 43
63, 72
63, 74
102, 83
73, 87
69, 69
44, 40
20, 17
16, 15
6, 7
2, 3
2, 6
4, 6
6, 8
4, 4
5, 10
11, 8
16, 20
46, 48
101, 92
169, 170
254, 263
345, 342
422, 440
453, 451
367, 354
292, 254
207, 206
142, 114
63, 77
38, 41
19, 16
9, 4
9, 3
3, 2
5, 4
4, 2
1, 4
0, 2
1, 4
1, 5
0, 0
2, 1
0, 2
2, 1
4, 5
4, 1
3, 3
2, 2
2, 2
5, 2
3, 3
2, 1
0, 1
1, 5
2, 4
2, 4
6, 5
10, 5
10, 15
19, 19
11, 22
25, 29
31, 33
34, 28
37, 18
31, 24
21, 18
29, 21
22, 15
25, 14
36, 19
32, 16
35, 11
28, 13
29, 8
18, 8
13, 8
11, 3
5, 3
4, 4
1, 2
1, 1
4, 2
2, 1
4, 1
2, 2
6, 2
2, 3
3, 3
4, 2
5, 5
1, 3
4, 2
1, 1
0, 1
1, 3
0, 2
3, 4
4, 3
1, 6
4, 6
11, 12
7, 18
15, 14
16, 21
16, 24
13, 17
19, 18
15, 15
9, 15
10, 9
4, 6
4, 6
3, 5
4, 4
1, 5
5, 6
6, 5
4, 5
7, 5
4, 9
6, 4
3, 3
7, 7
4, 1
6, 4
13, 2
18, 5
36, 1
42, 3
68, 5
104, 2
100, 4
90, 3
104, 3
86, 7
64, 2
47, 5
40, 5
43, 12
27, 5
25, 11
16, 10
19, 11
11, 14
13, 15
8, 10
13, 14
12, 12
9, 15
12, 7
8, 9
4, 3
6, 5
4, 3
7, 5
5, 6
3, 4
1, 8
8, 2
2, 9
2, 9
4, 7
6, 14
5, 9
4, 10
4, 21
3, 11
12, 10
6, 16
4, 8
4, 11
10, 2
11, 4
11, 6
9, 12
12, 20
14, 15
11, 17
15, 34
18, 22
23, 27
12, 18
15, 17
32, 20
22, 26
36, 19
22, 22
45, 12
67, 7
83, 14
87, 7
114, 13
118, 20
140, 37
180, 48
150, 47
153, 64
155, 68
127, 56
101, 53
82, 50
65, 36
40, 33
28, 30
22, 18
25, 13
24, 12
18, 31
36, 26
48, 45
77, 104
145, 189
274, 352
474, 560
803, 919
1120, 1317
1608, 1812
2035, 2140
2314, 2457
2400, 2543
2268, 2358
2122, 1966
1738, 1562
1326, 1098
886, 755
568, 460
332, 272
190, 136
94, 68
46, 34
34, 18
17, 13
8, 16
6, 17
17, 23
21, 23
22, 16
29, 42
23, 37
52, 54
84, 84
93, 127
128, 179
193, 263
311, 306
312, 365
348, 420
377, 371
377, 334
297, 289
271, 242
208, 160
130, 104
103, 67
66, 40
34, 29
30, 13
11, 8
14, 5
14, 13
8, 15
11, 13
22, 10
13, 17
6, 12
14, 11
17, 19
9, 14
6, 14
7, 8
7, 2
3, 3
3, 5
3, 4
3, 4
6, 4
4, 6
0, 7
3, 4
2, 3
4, 2
2, 2
3, 3
2, 2
2, 6
2, 2
4, 4
1, 1
5, 6
1, 3
6, 4
8, 4
1, 3
4, 3
9, 7
6, 6
6, 7
5, 5
3, 6
4, 4
5, 10
3, 11
4, 12
3, 7
5, 12
9, 19
7, 10
6, 16
8, 16
12, 23
13, 14
10, 14
14, 6
21, 13
13, 5
26, 5
17, 11
25, 3
19, 14
14, 18
9, 13
16, 19
10, 16
5, 19
8, 18
2, 25
4, 18
4, 25
1, 18
3, 11
1, 12
5, 9
4, 7
3, 6
3, 8
7, 0
3, 1
4, 1
3, 7
6, 3
2, 6
2, 1
0, 3
3, 0
3, 1
3, 3
2, 2
1, 2
5, 5
3, 2
4, 5
3, 2
4, 2
2, 2
5, 0
4, 5
3, 5
2, 4
5, 4
1, 5
0, 1
5, 3
2, 5
5, 3
4, 1
5, 5
5, 2
8, 4
4, 5
4, 5
3, 0
6, 6
7, 3
8, 2
10, 6
11, 11
7, 11
11, 18
11, 15
7, 17
7, 19
7, 26
11, 29
6, 15
4, 17
6, 17
6, 9
6, 10
1, 9
3, 9
3, 3
3, 11
3, 4
1, 3
1, 6
1, 6
3, 8
2, 5
2, 5
3, 4
1, 5
3, 5
2, 5
3, 7
4, 3
1, 4
4, 1
3, 0
2, 5
2, 1
4, 3
3, 3
2, 4
5, 7
2, 3
2, 5
3, 3
5, 4
2, 0
2, 4
2, 1
2, 1
4, 2
3, 3
0, 0
2, 0
5, 0
4, 7
4, 0
2, 2
2, 1
4, 1
2, 1
5, 1
3, 1
7, 2
4, 1
4, 1
4, 2
5, 1
2, 2
2, 3
0, 0
3, 2
1, 5
5, 1
2, 2
1, 3
1, 6
4, 2
1, 4
2, 1
3, 1
1, 3
1, 1
2, 3
0, 0
3, 1
3, 4
1, 2
2, 0
1, 1
2, 3
3, 2
0, 3
6, 2
0, 2
3, 0
1, 7
2, 4
1, 8
1, 6
1, 1
1, 0
1, 4
1, 3
2, 4
2, 1
1, 6
2, 2
0, 3
0, 1
2, 4
1, 1
6, 5
3, 6
3, 2
4, 8
2, 4
1, 2
6, 5
2, 4
8, 0
8, 4
1, 4
6, 2
4, 0
1, 2
3, 2
3, 0
4, 2
3, 1
4, 1
3, 0
1, 0
2, 5
3, 4
0, 1
0, 2
1, 1
2, 3
2, 1
1, 0
0, 2
1, 0
2, 0
0, 1
2, 1
3, 3
0, 2
0, 0
2, 4
1, 2
1, 0
0, 2
0, 6
1, 2
0, 1
2, 1
1, 2
1, 3
3, 0
1, 1
1, 2
0, 1
3, 3
5, 0
0, 1
1, 1
3, 1
1, 0
1, 0
0, 2
0, 2
1, 1
1, 0
1, 3
0, 1
2, 3
0, 1
3, 0
0, 0
3, 1
0, 0
2, 0
3, 2
1, 1
0, 1
0, 0
2, 1
0, 3
1, 0
1, 1
2, 0
1, 0
0, 2
0, 0
2, 1
0, 0
0, 0
0, 1
1, 0
1, 0
2, 0
0, 0
2, 1
3, 1
0, 0
0, 1
1, 1
0, 0
0, 1
1, 2
1, 1
0, 0
0, 0
0, 3
1, 0
1, 2
1, 0
0, 0
2, 0
0, 0
1, 0
0, 1
0, 1
0, 1
1, 0
0, 3
0, 0
1, 1
1, 1
0, 2
0, 1
0, 3
3, 0
0, 0
3, 3
1, 0
0, 0
2, 0
0, 2
0, 0
2, 1
2, 0
1, 0
0, 0
2, 0
1, 0
2, 1
0, 1
0, 0
1, 0
1, 2
0, 0
0, 0
0, 1
0, 1
0, 1
1, 1
0, 1
1, 1
2, 0
0, 1
1, 1
2, 0
1, 2
0, 0
0, 2
0, 0
1, 0
0, 0
0, 1
1, 0
1, 0
0, 0
1, 0
1, 0
0, 1
0, 0
1, 0
1, 0
0, 0
0, 1
1, 0
1, 1
0, 2
0, 0
0, 0
1, 0
0, 0
2, 0
0, 0
0, 1
0, 1
1, 0
0, 1
0, 0
0, 2
1, 0
0, 0
1, 1
0, 1
1, 0
0, 1
0, 0
0, 0
1, 0
0, 0
0, 1
0, 0
0, 0
1, 0
1, 0
0, 1
0, 0
0, 0
0, 0
1, 0
0, 1
0, 0
0, 0
0, 0
0, 0
0, 0
0, 1
0, 0
0, 0
0, 0
0, 0
0, 1
0, 0
0, 1
0, 0
0, 0
1, 0
0, 0
1, 0
0, 0
0, 0
0, 0
0, 1
0, 0
0, 0
0, 0
0, 3
2, 0
0, 0
0, 1
0, 0
0, 0
0, 0
0, 0
1, 1
0, 0
1, 0
0, 0
0, 0
0, 0
0, 0
0, 0
0, 1
0, 0
0, 0
0, 0
0, 0
1, 0
0, 1
0, 0
2, 1
0, 0
0, 0
0, 0
1, 0
0, 0
1, 1
0, 0
0, 1
1, 1
1, 1
1, 0
0, 0
2, 1
0, 0
0, 0
0, 0
1, 0
0, 0
0, 0
1, 0
0, 0
0, 0
0, 0
1, 0
0, 1
0, 0
0, 0
1, 1
0, 0
0, 0
0, 1
0, 0
0, 0
0, 1
0, 0
0, 0
0, 0
0, 0
0, 0
0, 0
0, 0
0, 0
0, 0
0, 0
0, 0
0, 0
0, 0
1, 0
0, 0
0, 0
0, 0
0, 0
0, 0
0, 0
0, 0
0, 0
0, 2
0, 0
0, 0
0, 0
0, 0
0, 2
1, 0
0, 0
0, 1
0, 0
0, 0
0, 0
1, 0
1, 0
0, 0
0, 0
0, 0
1, 0
0, 0
0, 0
0, 0
0, 0
1, 0
0, 0
0, 0
0, 0
0, 0
0, 0
0, 0
0, 0
0, 0
0, 0
0, 0
0, 0
0, 1
0, 0
2, 1
0, 0
0, 0
0, 0
0, 1
0, 0
0, 1
0, 0
0, 0
0, 0
0, 0
0, 0
0, 0
0, 0
0, 0
0, 1
0, 0
0, 0
0, 0
0, 0
0, 0
0, 0
0, 0
0, 0
0, 0
1, 0
0, 0
1, 0
0, 0
0, 0
0, 0
0, 1
0, 0
0, 0
0, 0
0, 0
0, 0
0, 0
0, 0
0, 0
0, 0
0, 0
0, 0
0, 0
0, 0
0, 0
0, 0
0, 0
0, 0
0, 0
0, 0
0, 0
0, 0
0, 0
0, 0
0, 0
0, 0
0, 0
0, 1
0, 0
0, 0
0, 0
0, 0
0, 0
1, 0
0, 1
0, 0
0, 1
0, 0
0, 0
0, 0
0, 1
0, 2
0, 0
0, 0
0, 0
0, 0
0, 0
0, 0
0, 0
0, 0
0, 0
0, 0
0, 0
0, 0
0, 0
0, 1
0, 0
0, 0
0, 0
0, 0
0, 0
0, 0
0, 0
0, 0
0, 0
0, 0
0, 0
0, 0
0, 0
0, 0
0, 0
0, 0
0, 0
0, 0
0, 0
0, 0
0, 0
0, 0
0, 0
0, 0
0, 0
0, 0
0, 0
0, 1
0, 0
0, 0
0, 0
0, 0
0, 0
0, 0
0, 0
0, 0
0, 0
0, 0
0, 0
0, 0
0, 0
0, 0
0, 0
0, 0
0, 0
0, 0
0, 0
0, 0
0, 0
0, 0
0, 0
0, 0
0, 0
0, 0
0, 0
0, 0
0, 0
0, 0
0, 0
0, 0
0, 0
0, 0
0, 0
0, 0
0, 0
0, 0
0, 0
0, 0
0, 0
0, 0
0, 0
0, 0
0, 0
0, 0
0, 0
0, 0
0, 0
0, 0
0, 0
0, 0
0, 0
0, 0
0, 0
0, 0
0, 0
0, 0
0, 0
0, 0
0, 0
0, 0
0, 0
0, 0
0, 0
0, 0
0, 0
0, 0
0, 0
0, 0
0, 0
0, 0
0, 0
0, 0
0, 0
0, 0
0, 0
0, 0
0, 0
0, 0
0, 0
0, 0
0, 0
0, 0
0, 0
0, 0
0, 0
0, 0
0, 0
0, 0
0, 0
0, 0
0, 0
0, 0
0, 0
0, 0
0, 0
0, 0
0, 0
0, 0
0, 0
0, 0
0, 0
0, 0
0, 0
0, 0
0, 0
0, 0
0, 0
0, 0
0, 0
0, 0
0, 0
0, 0
0, 0
0, 0
0, 0
0, 0
0, 0
0, 0
0, 0
0, 0
0, 0
0, 0
0, 0
0, 0
0, 0
0, 0
0, 0
0, 0
0, 0
0, 0
0, 0
0, 0
0, 0
0, 0
0, 0
0, 0
0, 0
0, 0
0, 0
0, 0
0, 0
0, 0
0, 0
0, 0
0, 0
0, 0
0, 0
0, 0
0, 0
0, 0
0, 0
0, 0
0, 0
0, 0
0, 0
0, 0
0, 0
0, 0
0, 0
0, 0
0, 0
0, 0
0, 0
0, 0
0, 0
0, 0
0, 0
0, 0
0, 0
0, 0
0, 0
0, 0
0, 0
0, 0
0, 0
0, 0
0, 0
0, 0
0, 0
0, 0
0, 0
0, 0
0, 0
0, 0
0, 0
0, 0
0, 0
0, 0
0, 0
0, 0
0, 0
0, 0
0, 0
0, 0
0, 0
0, 0
0, 0
0, 0
0, 0
0, 0
0, 0
0, 0
0, 0
0, 0
0, 0
0, 0
0, 0
0, 0
0, 0
0, 0
0, 0
0, 0
0, 0
0, 0
0, 0
0, 0
0, 0
0, 0
0, 0
0, 0
0, 0
0, 0
0, 0
0, 0
0, 0
0, 0
0, 0
0, 0
0, 0
0, 0
0, 0
0, 0
0, 0
0, 0
0, 0
0, 0
0, 0
0, 0
0, 0
0, 0
0, 0
0, 0
0, 0
0, 0
0, 0
0, 0
0, 0
0, 0
0, 0
0, 0
0, 0
0, 0
0, 0
0, 0
0, 0
0, 0
0, 0
0, 0
0, 0
0, 0
0, 0
0, 0
0, 0
0, 0
0, 0
0, 0
0, 0
0, 0
0, 0
0, 0
0, 0
0, 0
0, 0
0, 0
0, 0
0, 0
0, 0
0, 0
0, 0
0, 0
0, 0
0, 0
0, 0
0, 0
0, 0
0, 0
0, 0
0, 0
0, 0
0, 0
0, 0
0, 0
0, 0
0, 0
0, 0
0, 0
0, 0
0, 0
0, 0
0, 0
0, 0
0, 0
0, 0
0, 0
0, 0
0, 0
0, 0
0, 0
0, 0
0, 0
0, 0
0, 0
0, 0
0, 0
0, 0
0, 0
0, 0
0, 0
0, 0
0, 0
0, 0
0, 0
0, 0
0, 0
0, 0
0, 0
0, 0
0, 0
0, 0
0, 0
0, 0
0, 0
0, 0
0, 0
0, 0
0, 0
0, 0
0, 0
0, 0
0, 0
0, 0
0, 0
0, 0
0, 0
0, 0
0, 0
0, 0
0, 0
0, 0
0, 0
0, 0
0, 0
0, 0
0, 0
0, 0
0, 0
0, 0
0, 0
0, 0
0, 0
0, 0
0, 0
0, 0
0, 0
#ENDOFDATA     end of spectrum data