File: host_upload/06-09-2024/ps_0852/dump3/ps__0852shot_2148.msa
#FORMAT      : EMSA/MAS spectral data file
#VERSION     : TC202v2.0 PIXL
#TITLE       : N/A
#DATE        :       Date in the format DD-MMM-YYYY, for example 07-JUL-2010
#TIME        :             The time of day at which the spectrum was recorded, in 24-hour format
#OWNER       : PIXL Flight Model       (PIXL will use this to indicate which instrument took the data.)
#NPOINTS     : 4096     Number of data points in the spectrum (This can be zero for configuration only files)
#NCOLUMNS    : 2     Number of data columns in the spectrum (This can be zero for configuration only files)
#XUNITS      : eV
#YUNITS      : COUNTS
#DATATYPE    : YY
#XPERCHAN    : 7.862, 7.881   eV per channel (separate by commas if more than one detector)
#OFFSET      : 18.5, -22.4         eV of first channel  (separate by commas if more than one detector
#SIGNALTYPE  : XRF
#YP_TEMP     : 2.332
#LIVETIME    : 8.57504, 8.35628   seconds (separate by commas if more than one detector)
#REALTIME    : 10, 10.0   seconds (separate by commas if more than one detector)
#SPECTRUM    : start of spectrum data
0, 0
0, 0
0, 0
0, 0
0, 0
0, 0
0, 0
0, 0
0, 0
0, 0
0, 0
0, 0
0, 0
0, 0
0, 0
0, 0
0, 0
0, 0
0, 0
0, 0
0, 0
0, 0
0, 0
0, 0
0, 0
0, 0
0, 0
0, 0
0, 0
0, 0
0, 0
0, 0
0, 0
0, 0
0, 0
0, 0
1, 1
1, 0
0, 1
0, 1
2, 1
0, 0
2, 0
1, 0
1, 1
1, 1
4, 4
4, 2
5, 7
14, 13
35, 23
39, 41
60, 65
76, 74
77, 67
78, 69
74, 65
49, 39
27, 28
14, 15
13, 8
0, 2
2, 3
5, 2
5, 8
4, 4
6, 9
12, 9
26, 28
53, 43
94, 103
177, 176
252, 234
369, 359
407, 420
429, 410
393, 346
263, 286
182, 200
128, 111
71, 75
39, 38
19, 15
8, 9
9, 7
2, 3
2, 3
0, 1
2, 1
0, 3
3, 1
0, 1
1, 0
3, 2
2, 1
1, 3
4, 0
4, 3
5, 4
0, 1
4, 2
6, 2
1, 3
4, 4
0, 0
1, 4
6, 5
3, 6
6, 10
5, 10
13, 12
11, 12
15, 22
22, 25
24, 26
34, 28
29, 25
33, 30
25, 27
22, 18
23, 20
26, 20
29, 15
8, 24
15, 14
12, 19
10, 9
10, 13
2, 5
5, 6
7, 5
1, 2
3, 2
4, 1
2, 3
0, 5
2, 3
3, 2
1, 3
1, 2
4, 0
3, 5
0, 3
0, 1
2, 1
1, 1
2, 0
3, 2
0, 4
6, 1
11, 5
13, 4
17, 9
14, 11
23, 10
26, 24
29, 20
22, 21
29, 19
21, 19
15, 9
13, 18
12, 6
5, 0
6, 2
1, 4
4, 3
4, 6
6, 2
9, 4
11, 4
4, 5
8, 5
7, 4
6, 8
6, 3
3, 2
5, 6
3, 8
3, 7
3, 1
4, 1
4, 3
6, 4
3, 6
3, 2
3, 2
4, 7
12, 6
3, 8
13, 3
8, 15
5, 12
9, 9
11, 23
9, 15
11, 24
13, 18
9, 19
12, 20
13, 20
10, 13
10, 10
6, 7
7, 9
11, 8
2, 7
4, 7
5, 9
7, 3
6, 8
6, 9
5, 6
4, 10
6, 3
7, 9
6, 12
2, 3
7, 10
6, 12
4, 9
6, 5
11, 13
0, 7
7, 11
11, 9
14, 13
11, 7
24, 14
22, 18
34, 14
20, 15
39, 22
41, 9
42, 12
41, 13
31, 12
29, 12
25, 18
20, 21
10, 22
10, 17
10, 24
17, 20
15, 17
25, 27
31, 24
35, 39
38, 47
36, 53
62, 62
50, 65
55, 53
47, 63
51, 39
38, 36
18, 19
24, 23
21, 14
16, 19
25, 20
29, 39
43, 53
85, 91
165, 171
285, 349
467, 532
844, 831
1151, 1295
1621, 1693
2066, 2021
2233, 2267
2412, 2294
2355, 2192
2105, 1842
1841, 1478
1403, 1035
899, 693
612, 430
374, 239
199, 154
106, 78
58, 42
27, 19
19, 18
20, 12
10, 11
11, 14
12, 14
21, 20
28, 29
38, 41
49, 61
77, 80
86, 127
160, 153
185, 217
262, 288
316, 351
353, 342
375, 383
338, 324
310, 263
254, 217
187, 147
133, 105
99, 76
59, 33
47, 14
34, 17
19, 5
15, 10
23, 7
16, 9
17, 13
21, 10
24, 8
13, 10
13, 15
16, 17
15, 14
14, 11
9, 13
9, 10
6, 4
6, 5
4, 5
2, 6
3, 3
2, 1
5, 2
4, 4
2, 4
1, 2
2, 9
5, 5
7, 3
3, 3
4, 5
3, 4
4, 7
1, 8
3, 5
4, 9
9, 12
8, 7
1, 7
7, 15
11, 5
9, 6
7, 8
4, 9
6, 2
2, 4
6, 4
2, 2
2, 6
2, 4
4, 5
4, 2
4, 2
1, 3
2, 6
3, 8
5, 2
1, 9
5, 5
7, 4
10, 5
4, 7
7, 5
9, 5
10, 3
8, 5
6, 6
5, 2
4, 4
4, 3
4, 0
4, 4
3, 3
0, 8
1, 4
2, 10
6, 4
4, 19
5, 16
5, 21
5, 23
2, 20
2, 24
5, 19
3, 25
2, 14
0, 11
6, 12
3, 9
4, 10
4, 4
2, 7
3, 2
4, 2
3, 2
6, 4
0, 4
2, 5
3, 5
4, 6
5, 5
1, 4
0, 2
2, 4
5, 1
2, 3
4, 4
5, 0
2, 1
7, 5
2, 3
1, 1
1, 2
2, 3
2, 4
1, 1
2, 3
1, 5
4, 3
5, 1
3, 7
5, 3
7, 2
4, 5
0, 5
3, 2
2, 1
3, 0
4, 2
3, 5
5, 3
4, 3
6, 4
2, 3
5, 2
5, 2
2, 6
1, 0
5, 4
6, 1
5, 2
2, 1
3, 1
3, 3
1, 2
1, 3
3, 4
4, 1
1, 2
6, 1
1, 1
3, 0
1, 3
2, 6
1, 1
4, 1
3, 4
7, 7
9, 5
4, 7
4, 4
5, 4
4, 3
2, 1
4, 3
3, 6
4, 4
1, 2
0, 3
5, 4
2, 2
0, 2
1, 1
0, 1
1, 4
6, 6
1, 1
3, 4
0, 0
2, 5
2, 3
3, 4
1, 7
3, 3
4, 1
3, 3
2, 6
1, 1
3, 9
2, 3
1, 2
1, 2
1, 3
2, 4
1, 3
0, 3
0, 0
3, 2
4, 1
3, 4
1, 1
2, 5
4, 1
0, 3
2, 1
3, 3
4, 5
2, 1
2, 5
5, 3
2, 0
5, 3
5, 0
3, 1
6, 3
8, 2
1, 3
4, 2
1, 4
3, 3
8, 1
3, 4
8, 3
3, 2
3, 5
3, 3
3, 1
4, 7
3, 5
3, 5
1, 2
6, 3
3, 5
4, 1
3, 4
9, 2
3, 6
4, 4
3, 1
2, 2
6, 2
1, 4
4, 1
2, 0
2, 1
0, 0
2, 1
1, 3
0, 2
2, 2
1, 0
1, 0
3, 2
1, 0
3, 1
2, 1
0, 0
1, 1
0, 2
2, 3
2, 1
4, 1
1, 5
0, 2
0, 1
2, 3
3, 0
1, 0
0, 0
2, 1
0, 1
3, 1
1, 1
0, 0
0, 2
2, 1
0, 2
1, 2
0, 0
0, 2
1, 0
0, 0
0, 2
5, 0
2, 0
1, 2
1, 1
0, 2
1, 0
0, 0
0, 1
0, 2
2, 2
0, 1
2, 2
0, 1
0, 1
1, 0
1, 2
2, 0
1, 3
2, 0
1, 0
3, 1
1, 0
0, 0
2, 0
1, 0
1, 0
1, 0
1, 0
0, 1
2, 1
2, 2
0, 3
1, 0
1, 0
2, 0
2, 0
1, 0
1, 0
5, 0
0, 1
1, 0
0, 0
0, 0
0, 1
1, 1
1, 0
0, 1
0, 0
1, 0
3, 0
0, 0
0, 1
0, 0
0, 0
1, 0
0, 4
0, 0
0, 0
0, 1
2, 1
0, 1
2, 0
1, 2
2, 0
4, 0
1, 1
2, 1
0, 1
0, 0
1, 1
1, 1
1, 0
0, 0
0, 0
2, 1
1, 0
1, 1
0, 0
0, 0
0, 0
2, 0
0, 0
0, 0
1, 1
1, 0
1, 1
2, 0
1, 0
0, 0
1, 0
1, 2
0, 0
0, 0
0, 0
1, 1
0, 1
0, 0
0, 0
1, 0
1, 1
1, 0
1, 0
0, 0
0, 0
0, 0
2, 0
0, 0
0, 1
1, 1
1, 1
0, 0
1, 1
1, 0
0, 0
1, 0
0, 0
1, 0
1, 0
0, 0
4, 0
0, 0
0, 0
0, 1
0, 0
1, 0
0, 0
0, 1
0, 0
0, 0
0, 0
0, 0
0, 0
1, 0
0, 1
0, 0
0, 0
0, 0
1, 0
0, 1
0, 0
1, 0
0, 0
0, 1
2, 1
0, 1
1, 0
0, 0
0, 1
1, 1
0, 0
0, 1
2, 0
0, 0
0, 0
0, 0
0, 0
0, 0
0, 0
0, 0
0, 0
0, 0
0, 0
1, 0
0, 0
0, 1
0, 1
0, 0
1, 1
0, 0
0, 0
0, 0
1, 0
1, 0
0, 0
0, 0
0, 0
1, 0
0, 0
0, 0
1, 0
0, 0
1, 1
0, 1
0, 0
0, 0
0, 0
0, 0
0, 0
0, 1
1, 1
0, 1
0, 0
0, 0
0, 0
0, 1
0, 1
0, 0
1, 0
2, 0
0, 0
1, 0
0, 0
0, 0
0, 0
0, 1
0, 0
0, 0
0, 1
0, 0
0, 0
0, 0
2, 0
1, 1
0, 0
0, 0
2, 0
1, 0
0, 0
0, 0
0, 0
1, 1
0, 1
0, 0
0, 0
1, 0
0, 0
0, 0
0, 0
0, 1
0, 0
0, 0
0, 1
0, 0
0, 0
0, 0
0, 0
0, 0
0, 0
0, 0
1, 1
0, 0
0, 0
1, 0
0, 0
0, 0
0, 0
0, 0
0, 0
0, 0
0, 0
0, 0
0, 0
0, 0
0, 0
0, 0
0, 0
0, 0
0, 0
0, 1
0, 0
1, 0
0, 0
0, 0
0, 0
1, 0
0, 0
0, 0
0, 0
0, 1
0, 1
0, 1
0, 0
0, 1
0, 0
0, 0
0, 0
0, 0
0, 0
0, 0
0, 0
0, 0
0, 0
1, 0
0, 0
0, 0
0, 0
0, 1
0, 0
0, 0
0, 0
0, 0
1, 0
0, 0
0, 0
0, 0
0, 0
0, 0
0, 0
0, 1
0, 0
0, 0
0, 0
0, 0
0, 0
0, 0
0, 0
0, 0
0, 0
0, 0
0, 0
0, 0
0, 0
0, 0
0, 0
0, 0
0, 0
0, 0
0, 0
0, 0
0, 0
0, 0
0, 0
0, 1
0, 0
0, 0
0, 0
0, 0
0, 0
0, 0
0, 0
0, 0
0, 0
0, 0
0, 0
0, 0
0, 0
1, 0
0, 0
0, 0
0, 0
0, 0
0, 0
0, 0
0, 0
0, 0
0, 0
0, 0
0, 0
0, 0
0, 0
0, 0
0, 0
0, 0
0, 0
0, 0
0, 0
0, 0
0, 0
0, 0
0, 0
0, 0
0, 0
0, 0
0, 0
0, 0
0, 0
0, 0
0, 0
0, 0
0, 0
0, 0
0, 0
0, 0
0, 0
0, 0
0, 0
0, 0
0, 0
0, 0
0, 0
0, 0
0, 0
0, 0
0, 0
0, 0
0, 0
0, 0
0, 0
0, 0
0, 0
0, 0
0, 0
0, 0
0, 0
0, 0
0, 0
0, 0
0, 0
0, 0
0, 0
0, 0
0, 0
0, 0
0, 0
0, 0
0, 0
0, 0
0, 0
0, 0
0, 0
0, 0
0, 0
0, 0
0, 0
0, 0
0, 0
0, 0
0, 0
0, 0
0, 0
0, 0
0, 0
0, 0
0, 0
0, 0
0, 0
0, 1
0, 0
0, 0
0, 0
0, 0
0, 0
0, 0
0, 0
0, 0
0, 0
0, 0
0, 0
0, 0
0, 0
0, 0
0, 0
0, 0
0, 0
0, 0
0, 0
0, 0
0, 0
0, 0
0, 0
0, 0
0, 0
0, 0
0, 0
1, 0
0, 0
0, 0
0, 0
0, 0
0, 0
0, 0
0, 0
0, 0
0, 0
0, 0
0, 0
0, 0
0, 0
0, 0
0, 0
0, 0
0, 0
0, 0
0, 0
0, 0
0, 0
0, 0
0, 0
0, 0
0, 0
0, 0
0, 0
0, 0
0, 0
0, 0
0, 0
0, 0
0, 0
0, 0
0, 0
0, 0
0, 0
0, 0
0, 0
0, 0
0, 0
0, 0
0, 0
0, 0
0, 0
0, 0
0, 0
0, 0
0, 0
0, 0
0, 0
0, 0
0, 0
0, 0
0, 0
0, 0
0, 0
0, 0
0, 0
0, 0
0, 0
0, 0
0, 0
0, 0
0, 0
0, 0
0, 0
0, 0
0, 0
0, 0
0, 0
0, 0
0, 0
0, 0
0, 0
0, 0
0, 0
0, 0
0, 0
0, 0
0, 0
0, 0
0, 0
0, 0
0, 0
0, 0
0, 0
0, 0
0, 0
0, 0
0, 0
0, 0
0, 0
0, 0
0, 0
0, 0
0, 0
0, 0
0, 0
0, 0
0, 0
0, 0
0, 0
0, 0
0, 0
0, 0
0, 0
0, 0
0, 0
0, 0
0, 0
0, 0
0, 0
0, 0
0, 0
0, 0
0, 0
0, 0
0, 0
0, 0
0, 0
0, 0
0, 0
0, 0
0, 0
0, 0
0, 0
0, 0
0, 0
0, 0
0, 0
0, 0
0, 0
0, 0
0, 0
0, 0
0, 0
0, 0
0, 0
0, 0
0, 0
0, 0
0, 0
0, 0
0, 0
0, 0
0, 0
0, 0
0, 0
0, 0
0, 0
0, 0
0, 0
0, 0
0, 0
0, 0
0, 0
0, 0
0, 0
0, 0
0, 0
0, 0
0, 0
0, 0
0, 0
0, 0
0, 0
0, 0
0, 0
0, 0
0, 0
0, 0
0, 0
0, 0
0, 0
0, 0
0, 0
0, 0
0, 0
0, 0
0, 0
0, 0
0, 0
0, 0
0, 0
0, 0
0, 0
0, 0
0, 0
0, 0
0, 0
0, 0
0, 0
0, 0
0, 0
0, 0
0, 0
0, 0
0, 0
0, 0
0, 0
0, 0
0, 0
0, 0
0, 0
0, 0
0, 0
0, 0
0, 0
0, 0
0, 0
0, 0
0, 0
0, 0
0, 0
0, 0
0, 0
0, 0
0, 0
0, 0
0, 0
0, 0
0, 0
0, 0
0, 0
0, 0
0, 0
0, 0
0, 0
0, 0
0, 0
0, 0
0, 0
0, 0
0, 0
0, 0
0, 0
0, 0
0, 0
0, 0
0, 0
0, 0
0, 0
0, 0
0, 0
0, 0
0, 0
0, 0
0, 0
0, 0
0, 0
0, 0
0, 0
0, 0
0, 0
0, 0
0, 0
0, 0
0, 0
0, 0
0, 0
0, 0
0, 0
0, 0
0, 0
0, 0
0, 0
0, 0
0, 0
0, 0
0, 0
0, 0
0, 0
0, 0
0, 0
0, 0
0, 0
0, 0
0, 0
0, 0
0, 0
0, 0
0, 0
0, 0
0, 0
0, 0
0, 0
0, 0
0, 0
0, 0
0, 0
0, 0
0, 0
0, 0
0, 0
0, 0
0, 0
0, 0
0, 0
0, 0
0, 0
0, 0
0, 0
0, 0
0, 0
0, 0
0, 0
0, 0
0, 0
0, 0
0, 0
0, 0
0, 0
0, 0
0, 0
0, 0
0, 0
0, 0
0, 0
0, 0
#ENDOFDATA     end of spectrum data