File: host_upload/06-09-2024/ps_0852/dump3/ps__0852shot_2041.msa
#FORMAT      : EMSA/MAS spectral data file
#VERSION     : TC202v2.0 PIXL
#TITLE       : N/A
#DATE        :       Date in the format DD-MMM-YYYY, for example 07-JUL-2010
#TIME        :             The time of day at which the spectrum was recorded, in 24-hour format
#OWNER       : PIXL Flight Model       (PIXL will use this to indicate which instrument took the data.)
#NPOINTS     : 4096     Number of data points in the spectrum (This can be zero for configuration only files)
#NCOLUMNS    : 2     Number of data columns in the spectrum (This can be zero for configuration only files)
#XUNITS      : eV
#YUNITS      : COUNTS
#DATATYPE    : YY
#XPERCHAN    : 7.862, 7.881   eV per channel (separate by commas if more than one detector)
#OFFSET      : 18.5, -22.4         eV of first channel  (separate by commas if more than one detector
#SIGNALTYPE  : XRF
#YP_TEMP     : 2.46
#LIVETIME    : 8.56967, 8.54693   seconds (separate by commas if more than one detector)
#REALTIME    : 10, 10.0   seconds (separate by commas if more than one detector)
#SPECTRUM    : start of spectrum data
0, 0
0, 0
0, 0
0, 0
0, 0
0, 0
0, 0
0, 0
0, 0
0, 0
0, 0
0, 0
0, 0
0, 0
0, 0
0, 0
0, 0
0, 0
0, 0
0, 0
0, 0
0, 0
0, 0
0, 0
0, 0
0, 0
0, 0
0, 0
0, 0
0, 0
0, 0
0, 0
0, 0
0, 0
0, 0
0, 0
1, 1
1, 1
0, 0
0, 0
0, 2
0, 1
3, 1
0, 0
0, 1
2, 3
1, 2
1, 2
8, 7
13, 9
36, 29
33, 37
55, 58
68, 80
102, 69
107, 67
56, 64
44, 41
29, 18
27, 19
13, 6
2, 2
4, 1
7, 3
3, 5
5, 6
3, 6
15, 13
31, 17
61, 47
88, 111
191, 169
283, 274
404, 356
400, 389
438, 417
398, 343
333, 282
204, 163
135, 135
83, 75
50, 41
15, 22
7, 9
4, 7
3, 6
2, 1
4, 1
1, 0
1, 2
4, 1
1, 1
2, 1
2, 3
3, 2
8, 2
4, 7
10, 6
11, 5
8, 9
2, 8
6, 3
4, 5
5, 9
4, 4
2, 8
10, 8
7, 7
13, 20
13, 16
24, 28
21, 39
35, 45
53, 49
41, 53
49, 71
48, 50
47, 54
33, 44
33, 42
17, 27
27, 28
18, 21
19, 22
19, 14
12, 16
11, 11
12, 14
11, 9
7, 7
7, 0
4, 2
5, 1
2, 4
6, 3
5, 2
8, 1
2, 1
9, 1
5, 2
3, 3
7, 4
5, 3
4, 7
3, 1
4, 3
2, 3
2, 5
2, 1
3, 3
5, 4
7, 2
15, 7
12, 9
10, 16
11, 17
17, 11
13, 8
27, 13
25, 16
28, 8
22, 13
39, 3
36, 4
45, 6
39, 2
37, 4
20, 8
20, 7
17, 5
8, 4
9, 2
4, 6
8, 6
9, 10
7, 6
5, 9
7, 2
2, 12
4, 7
7, 11
7, 19
8, 7
4, 6
4, 3
4, 8
3, 3
5, 5
8, 2
9, 12
15, 5
15, 13
14, 18
14, 17
24, 14
22, 20
31, 17
31, 23
33, 26
42, 13
36, 7
41, 8
34, 14
25, 8
19, 8
21, 8
9, 14
13, 15
14, 3
8, 10
7, 7
6, 8
7, 10
15, 3
9, 5
14, 10
11, 9
9, 7
7, 6
9, 6
6, 5
18, 14
12, 3
14, 14
14, 11
12, 13
13, 13
11, 14
28, 21
18, 35
26, 24
23, 31
15, 21
28, 18
15, 15
13, 11
13, 14
14, 7
10, 16
18, 14
14, 7
9, 14
14, 17
20, 12
13, 29
28, 30
35, 43
41, 42
49, 61
57, 52
65, 63
52, 64
58, 60
52, 52
43, 38
40, 33
29, 19
28, 21
19, 16
22, 15
24, 26
42, 34
54, 66
80, 108
160, 198
277, 348
472, 587
769, 881
1133, 1283
1552, 1701
1972, 2082
2278, 2247
2415, 2323
2338, 2216
2068, 1863
1747, 1423
1393, 1050
968, 759
655, 440
386, 252
221, 141
128, 94
65, 41
34, 33
22, 22
12, 19
20, 14
18, 17
18, 24
11, 33
17, 27
38, 31
46, 63
69, 95
124, 118
141, 157
191, 201
256, 273
344, 341
335, 318
351, 325
342, 304
346, 239
274, 199
222, 157
171, 91
113, 67
63, 32
37, 24
24, 21
20, 8
21, 8
13, 4
12, 9
9, 10
17, 16
16, 10
11, 13
15, 13
10, 6
13, 10
13, 8
11, 6
11, 8
9, 10
12, 9
10, 6
9, 1
8, 4
3, 5
8, 2
10, 4
7, 5
7, 1
5, 3
5, 2
8, 2
8, 6
7, 6
13, 3
8, 4
5, 7
7, 6
2, 2
4, 7
6, 7
3, 3
10, 4
6, 11
8, 3
9, 5
3, 8
7, 4
7, 3
8, 3
6, 3
3, 3
3, 3
6, 3
6, 3
5, 5
6, 6
3, 3
8, 6
3, 3
6, 1
3, 7
9, 2
9, 3
5, 5
5, 5
5, 8
8, 1
9, 7
8, 10
3, 5
7, 5
3, 4
10, 5
12, 4
12, 5
14, 4
15, 1
11, 5
6, 7
9, 2
3, 1
6, 3
5, 1
4, 3
5, 5
2, 5
4, 2
10, 2
4, 8
6, 3
5, 6
5, 2
7, 5
5, 3
4, 4
3, 8
5, 3
4, 3
2, 6
5, 4
5, 4
1, 5
4, 4
2, 7
3, 3
4, 4
7, 2
7, 5
5, 4
4, 6
5, 4
3, 2
5, 6
2, 7
3, 9
6, 8
4, 12
5, 10
3, 7
2, 9
7, 8
3, 4
7, 6
6, 3
4, 3
5, 2
4, 3
6, 2
4, 5
4, 4
6, 5
2, 3
4, 7
2, 4
2, 7
2, 3
2, 4
3, 2
2, 1
3, 4
2, 4
4, 3
4, 3
2, 3
3, 4
3, 3
4, 5
8, 1
6, 6
9, 1
3, 5
3, 2
6, 1
2, 2
2, 2
0, 4
2, 1
2, 0
4, 2
4, 1
4, 4
9, 1
1, 1
1, 3
2, 1
4, 1
2, 2
2, 1
5, 2
3, 0
2, 2
1, 1
2, 2
2, 0
1, 4
3, 1
1, 4
3, 3
3, 1
4, 1
5, 2
3, 2
6, 1
5, 0
4, 2
2, 3
1, 2
4, 3
4, 4
2, 3
1, 3
2, 4
2, 3
4, 1
1, 3
3, 4
0, 2
4, 1
4, 1
4, 3
3, 3
5, 2
3, 4
6, 1
0, 1
1, 4
1, 2
1, 2
0, 5
5, 5
2, 1
3, 2
4, 3
1, 0
5, 1
0, 3
0, 1
2, 4
1, 5
3, 2
2, 4
1, 1
0, 0
1, 3
1, 0
5, 0
4, 1
3, 1
5, 1
2, 4
4, 2
2, 3
3, 4
5, 5
3, 4
2, 8
3, 3
8, 6
4, 5
5, 5
2, 3
3, 3
3, 7
3, 0
1, 2
1, 3
1, 2
0, 3
2, 4
3, 0
2, 1
0, 2
0, 2
1, 1
1, 1
2, 3
1, 2
0, 3
2, 3
2, 1
4, 1
1, 3
2, 3
1, 1
3, 3
3, 1
1, 0
0, 0
1, 2
0, 0
5, 0
1, 1
2, 0
0, 0
0, 4
3, 0
1, 2
0, 0
1, 1
1, 0
0, 1
3, 2
3, 1
2, 1
0, 2
1, 2
0, 0
0, 2
1, 1
2, 1
1, 1
0, 0
5, 1
1, 1
1, 2
0, 1
1, 0
1, 0
3, 0
2, 0
0, 1
1, 1
2, 0
1, 2
2, 0
0, 2
3, 1
2, 0
0, 0
2, 0
2, 0
2, 0
0, 0
4, 0
1, 0
0, 0
1, 0
1, 1
0, 1
1, 0
1, 1
0, 3
0, 0
0, 2
0, 0
2, 0
1, 2
1, 0
2, 1
2, 1
0, 0
1, 0
2, 1
0, 2
1, 0
0, 1
0, 0
3, 0
1, 0
0, 0
0, 0
0, 1
0, 0
0, 0
1, 0
2, 0
1, 0
2, 0
1, 0
0, 0
1, 2
0, 0
0, 1
3, 2
1, 1
1, 0
0, 1
1, 0
0, 0
0, 2
1, 0
0, 1
0, 1
0, 0
0, 1
0, 3
0, 1
0, 0
0, 0
0, 1
1, 1
1, 0
0, 0
0, 1
2, 1
0, 0
0, 2
0, 0
0, 1
0, 0
0, 0
0, 0
1, 1
1, 0
0, 0
0, 1
2, 0
1, 0
0, 0
1, 0
0, 0
0, 1
0, 0
3, 0
0, 0
1, 0
0, 1
1, 1
0, 0
2, 1
0, 1
0, 0
0, 0
0, 0
0, 1
2, 0
0, 1
0, 0
0, 1
0, 1
0, 0
1, 0
0, 1
0, 0
0, 0
0, 0
0, 0
1, 0
1, 0
0, 0
0, 0
0, 0
0, 1
0, 0
1, 1
1, 0
0, 0
0, 0
0, 1
1, 0
0, 0
0, 0
0, 0
2, 1
0, 0
1, 0
0, 0
0, 2
0, 0
0, 0
0, 1
0, 0
0, 0
1, 1
1, 0
0, 0
0, 0
0, 0
1, 0
0, 0
1, 0
0, 0
0, 0
0, 0
0, 1
0, 0
0, 0
0, 0
0, 0
0, 1
0, 0
0, 0
0, 0
0, 0
0, 0
0, 1
0, 0
1, 0
0, 0
0, 1
0, 0
0, 1
0, 0
1, 0
0, 0
1, 1
0, 0
0, 0
0, 0
0, 0
1, 0
0, 0
1, 0
0, 0
1, 1
0, 0
0, 0
0, 0
0, 0
0, 1
0, 0
2, 0
0, 0
1, 0
1, 0
1, 0
0, 2
1, 0
0, 0
0, 1
0, 0
0, 1
0, 1
1, 0
0, 0
0, 0
0, 0
0, 2
0, 1
0, 0
0, 0
0, 1
0, 0
0, 0
0, 0
0, 0
0, 0
0, 0
0, 0
0, 0
0, 0
0, 0
1, 0
0, 0
1, 0
0, 0
0, 1
1, 0
0, 0
1, 1
0, 1
0, 0
0, 0
0, 0
0, 0
0, 0
0, 0
0, 0
0, 0
0, 0
0, 0
0, 0
2, 0
0, 0
0, 1
0, 0
1, 0
1, 0
0, 0
0, 0
0, 0
0, 0
0, 0
0, 1
0, 0
0, 0
0, 0
0, 0
0, 0
0, 0
0, 0
0, 0
0, 0
0, 0
0, 0
0, 0
0, 0
0, 0
0, 0
0, 0
0, 0
0, 1
0, 0
0, 0
0, 0
0, 0
0, 0
0, 0
0, 0
0, 0
0, 0
0, 0
0, 0
0, 0
0, 0
0, 0
0, 0
0, 0
0, 1
0, 0
0, 0
0, 0
0, 0
0, 0
0, 0
0, 1
0, 0
0, 0
0, 0
0, 0
0, 0
0, 0
0, 1
0, 0
0, 0
0, 0
1, 0
0, 0
0, 0
0, 0
0, 0
0, 0
0, 0
0, 0
0, 0
0, 0
0, 0
0, 0
0, 0
0, 0
0, 0
0, 0
0, 1
0, 0
0, 0
0, 0
0, 0
0, 0
0, 0
0, 0
0, 0
0, 0
1, 0
0, 0
0, 0
0, 0
0, 0
0, 0
0, 0
0, 0
0, 0
0, 0
0, 0
0, 0
0, 0
0, 0
0, 0
0, 0
1, 0
0, 0
0, 0
1, 0
0, 0
0, 0
0, 0
0, 0
0, 0
0, 0
0, 0
0, 0
0, 0
0, 0
0, 0
0, 0
0, 0
0, 0
0, 0
0, 0
0, 0
0, 0
0, 0
1, 0
0, 0
0, 0
0, 0
0, 0
0, 0
0, 0
0, 0
0, 0
0, 1
0, 0
0, 0
0, 0
0, 0
0, 0
0, 0
0, 0
0, 0
0, 0
0, 0
0, 0
0, 0
0, 0
0, 0
0, 0
0, 0
0, 0
0, 0
0, 0
0, 0
0, 0
0, 0
0, 0
0, 0
0, 0
0, 0
0, 0
0, 0
0, 0
0, 0
0, 0
0, 0
0, 0
0, 0
0, 0
0, 0
0, 0
0, 0
0, 0
0, 0
0, 0
0, 0
0, 0
0, 0
0, 0
0, 0
0, 0
0, 0
0, 0
0, 0
0, 0
0, 0
0, 0
0, 0
0, 0
0, 0
0, 0
0, 0
0, 0
0, 0
0, 0
0, 0
0, 0
0, 0
0, 0
0, 0
0, 0
0, 0
0, 0
0, 0
0, 0
0, 0
0, 0
0, 0
0, 0
0, 0
0, 0
0, 0
0, 0
0, 0
0, 0
0, 0
0, 0
0, 0
0, 0
0, 0
0, 0
0, 0
0, 0
0, 0
0, 0
0, 0
0, 0
0, 0
0, 0
0, 0
0, 0
0, 0
0, 0
0, 0
0, 0
0, 0
0, 0
0, 0
0, 0
0, 0
0, 0
0, 0
0, 0
0, 0
0, 0
0, 0
0, 0
0, 0
0, 0
0, 0
0, 0
0, 0
0, 0
0, 0
0, 0
0, 0
0, 0
0, 0
0, 0
0, 0
0, 0
0, 0
0, 0
0, 0
0, 0
0, 0
0, 0
0, 0
0, 0
0, 0
0, 0
0, 0
0, 0
0, 0
0, 0
0, 0
0, 0
0, 0
0, 0
0, 0
0, 0
0, 0
0, 0
0, 0
0, 0
0, 0
0, 0
0, 0
0, 0
0, 0
0, 0
0, 0
0, 0
0, 0
0, 0
0, 0
0, 0
0, 0
0, 0
0, 0
0, 0
0, 0
0, 0
0, 0
0, 0
0, 0
0, 0
0, 0
0, 0
0, 0
0, 0
0, 0
0, 0
0, 0
0, 0
0, 0
0, 0
0, 0
0, 0
0, 0
0, 0
0, 0
0, 0
0, 0
0, 0
0, 0
0, 0
0, 0
0, 0
0, 0
0, 0
0, 0
0, 0
0, 0
0, 0
0, 0
0, 0
0, 0
0, 0
0, 0
0, 0
0, 0
0, 0
0, 0
0, 0
0, 0
0, 0
0, 0
0, 0
0, 0
0, 0
0, 0
0, 0
0, 0
0, 0
0, 0
0, 0
0, 0
0, 0
0, 0
0, 0
0, 0
0, 0
0, 0
0, 0
0, 0
0, 0
0, 0
0, 0
0, 0
0, 0
0, 0
0, 0
0, 0
0, 0
0, 0
0, 0
0, 0
0, 0
0, 0
0, 0
0, 0
0, 0
0, 0
0, 0
0, 0
0, 0
0, 0
0, 0
0, 0
0, 0
0, 0
0, 0
0, 0
0, 0
0, 0
0, 0
0, 0
0, 0
0, 0
0, 0
0, 0
0, 0
0, 0
0, 0
0, 0
0, 0
0, 0
0, 0
0, 0
0, 0
0, 0
0, 0
0, 0
0, 0
0, 0
0, 0
0, 0
0, 0
0, 0
0, 0
0, 0
0, 0
0, 0
0, 0
0, 0
0, 0
0, 0
0, 0
0, 0
0, 0
0, 0
0, 0
0, 0
0, 0
0, 0
0, 0
0, 0
0, 0
0, 0
0, 0
0, 0
0, 0
0, 0
0, 0
0, 0
0, 0
0, 0
0, 0
0, 0
0, 0
0, 0
0, 0
0, 0
0, 0
0, 0
0, 0
0, 0
0, 0
0, 0
0, 0
0, 0
0, 0
0, 0
0, 0
0, 0
0, 0
0, 0
0, 0
0, 0
0, 0
0, 0
0, 0
0, 0
0, 0
0, 0
0, 0
0, 0
0, 0
0, 0
0, 0
0, 0
0, 0
0, 0
0, 0
0, 0
0, 0
0, 0
0, 0
0, 0
0, 0
0, 0
0, 0
0, 0
0, 0
0, 0
0, 0
0, 0
0, 0
0, 0
0, 0
0, 0
0, 0
0, 0
0, 0
0, 0
0, 0
0, 0
0, 0
0, 0
0, 0
0, 0
0, 0
#ENDOFDATA     end of spectrum data