File: host_upload/06-09-2024/ps_0852/dump3/ps__0852shot_2141.msa
#FORMAT      : EMSA/MAS spectral data file
#VERSION     : TC202v2.0 PIXL
#TITLE       : N/A
#DATE        :       Date in the format DD-MMM-YYYY, for example 07-JUL-2010
#TIME        :             The time of day at which the spectrum was recorded, in 24-hour format
#OWNER       : PIXL Flight Model       (PIXL will use this to indicate which instrument took the data.)
#NPOINTS     : 4096     Number of data points in the spectrum (This can be zero for configuration only files)
#NCOLUMNS    : 2     Number of data columns in the spectrum (This can be zero for configuration only files)
#XUNITS      : eV
#YUNITS      : COUNTS
#DATATYPE    : YY
#XPERCHAN    : 7.862, 7.881   eV per channel (separate by commas if more than one detector)
#OFFSET      : 18.5, -22.4         eV of first channel  (separate by commas if more than one detector
#SIGNALTYPE  : XRF
#YP_TEMP     : 2.684
#LIVETIME    : 8.55318, 8.57341   seconds (separate by commas if more than one detector)
#REALTIME    : 10, 10.0   seconds (separate by commas if more than one detector)
#SPECTRUM    : start of spectrum data
0, 0
0, 0
0, 0
0, 0
0, 0
0, 0
0, 0
0, 0
0, 0
0, 0
0, 0
0, 0
0, 0
0, 0
0, 0
0, 0
0, 0
0, 0
0, 0
0, 0
0, 0
0, 0
0, 0
0, 0
0, 0
0, 0
0, 0
0, 0
0, 0
0, 0
0, 0
0, 0
0, 0
0, 0
1, 0
2, 1
0, 0
0, 5
0, 3
0, 1
2, 1
1, 3
3, 3
1, 2
0, 2
2, 2
1, 2
4, 0
4, 4
5, 9
14, 10
24, 17
45, 31
58, 55
60, 46
52, 41
53, 42
32, 19
26, 9
13, 10
10, 3
3, 3
7, 5
7, 4
7, 2
3, 8
6, 5
9, 10
24, 15
52, 34
73, 70
164, 132
262, 189
343, 244
375, 312
432, 291
339, 276
249, 193
207, 157
128, 90
81, 33
54, 33
30, 16
9, 5
6, 7
7, 3
8, 3
3, 2
4, 6
3, 4
4, 2
6, 5
7, 5
11, 6
16, 15
33, 18
46, 39
42, 42
65, 60
53, 57
70, 41
47, 38
37, 30
27, 13
23, 16
14, 2
13, 15
17, 12
23, 31
29, 32
50, 36
54, 59
75, 63
83, 105
93, 93
85, 97
89, 94
64, 50
63, 74
41, 38
31, 31
39, 28
37, 25
24, 17
21, 20
21, 19
22, 13
8, 17
16, 20
5, 6
7, 4
10, 3
5, 5
13, 5
10, 2
3, 4
9, 3
5, 1
11, 4
9, 6
12, 3
0, 1
3, 5
4, 1
2, 3
4, 3
3, 4
4, 4
9, 6
10, 5
17, 15
35, 22
49, 30
100, 67
136, 114
192, 144
236, 167
229, 163
237, 178
201, 127
162, 116
119, 76
92, 45
47, 30
23, 23
22, 10
11, 8
20, 24
26, 18
33, 21
36, 29
29, 28
38, 40
34, 25
23, 16
15, 6
23, 15
23, 12
15, 6
21, 5
26, 4
17, 4
16, 6
15, 5
9, 4
5, 11
8, 6
6, 7
7, 7
13, 9
9, 5
8, 14
15, 18
12, 7
13, 12
26, 13
18, 6
22, 8
27, 11
38, 11
40, 11
40, 9
46, 9
73, 10
75, 11
88, 15
73, 8
77, 14
79, 13
67, 15
51, 8
35, 8
29, 12
19, 20
12, 23
11, 25
11, 29
5, 25
9, 41
5, 18
7, 27
5, 19
6, 20
11, 20
13, 23
21, 22
17, 23
20, 26
30, 26
38, 32
34, 35
29, 33
40, 30
32, 33
23, 13
19, 22
7, 9
7, 11
11, 2
6, 8
12, 3
16, 6
8, 6
13, 10
18, 11
26, 15
24, 37
41, 35
64, 31
62, 59
65, 64
65, 38
81, 51
45, 54
64, 30
43, 29
23, 23
18, 20
19, 13
26, 16
18, 22
24, 33
57, 51
77, 71
147, 161
275, 290
485, 449
789, 713
1109, 1044
1522, 1388
1922, 1726
2199, 1866
2458, 1916
2423, 1876
2118, 1592
1736, 1209
1357, 932
952, 606
558, 364
349, 222
194, 109
112, 68
66, 23
32, 12
25, 19
27, 18
19, 32
8, 28
16, 17
21, 12
44, 28
30, 25
44, 62
71, 66
112, 87
152, 136
179, 185
228, 223
306, 283
332, 282
328, 291
316, 290
274, 213
251, 180
190, 152
126, 95
91, 64
66, 45
28, 29
20, 16
22, 4
5, 7
7, 6
10, 8
12, 5
14, 12
13, 10
12, 16
16, 9
11, 17
13, 12
8, 7
9, 11
8, 9
5, 7
8, 8
3, 10
4, 5
4, 3
2, 1
5, 2
6, 1
3, 6
8, 3
6, 5
10, 3
4, 4
4, 4
7, 5
18, 4
17, 10
11, 0
12, 5
21, 8
20, 12
26, 5
16, 8
13, 9
10, 8
6, 4
10, 4
6, 4
1, 3
12, 7
6, 2
5, 7
5, 1
5, 1
2, 5
3, 7
4, 7
9, 5
7, 6
4, 1
5, 2
4, 5
10, 7
5, 4
1, 3
5, 5
8, 5
10, 0
3, 7
4, 3
5, 4
5, 1
3, 2
3, 0
2, 3
5, 2
3, 1
4, 4
5, 6
6, 2
5, 5
4, 2
3, 4
7, 1
4, 7
2, 6
5, 1
3, 1
6, 4
3, 2
2, 2
6, 1
3, 2
3, 5
4, 5
4, 2
2, 6
4, 5
4, 3
6, 4
3, 4
7, 1
5, 3
4, 3
6, 1
7, 4
9, 2
2, 4
14, 2
7, 2
7, 3
6, 5
5, 4
4, 6
4, 5
4, 6
3, 10
4, 7
3, 3
1, 8
2, 6
3, 5
1, 8
2, 6
3, 2
2, 5
4, 6
4, 5
3, 4
0, 2
4, 4
1, 4
3, 0
0, 2
2, 3
5, 1
6, 1
6, 5
3, 2
2, 1
2, 2
1, 2
3, 3
5, 3
2, 4
0, 1
6, 2
4, 4
2, 4
6, 1
5, 1
2, 3
5, 3
1, 1
0, 3
1, 5
4, 1
2, 0
0, 1
4, 2
4, 2
4, 1
0, 4
0, 1
0, 0
4, 0
1, 2
3, 4
2, 1
6, 3
0, 1
4, 0
1, 3
0, 4
4, 1
0, 1
1, 4
3, 5
1, 3
2, 3
1, 0
3, 2
3, 4
4, 3
4, 2
3, 1
0, 4
3, 1
0, 2
1, 1
2, 4
3, 5
2, 2
5, 5
1, 5
0, 6
3, 0
0, 3
4, 5
5, 2
0, 1
4, 3
2, 2
0, 3
3, 2
2, 1
0, 0
2, 2
4, 2
1, 5
6, 1
0, 2
1, 1
2, 3
1, 0
2, 2
2, 0
5, 2
3, 1
1, 1
1, 2
1, 3
1, 1
3, 2
5, 3
2, 1
4, 1
1, 4
3, 1
1, 0
4, 4
6, 2
0, 4
6, 4
2, 1
5, 1
2, 1
4, 1
4, 2
8, 2
4, 0
7, 2
8, 2
6, 1
6, 0
3, 1
5, 4
0, 1
4, 0
3, 2
1, 1
1, 1
2, 1
1, 4
2, 3
0, 3
1, 0
1, 1
2, 1
1, 2
0, 3
1, 2
1, 2
1, 0
1, 4
2, 0
2, 2
3, 2
2, 2
2, 0
1, 1
3, 1
2, 2
3, 0
2, 2
1, 0
0, 2
1, 2
3, 1
2, 1
1, 0
1, 3
3, 1
1, 0
0, 0
2, 1
1, 1
1, 0
1, 0
1, 2
0, 0
0, 0
2, 3
1, 2
0, 1
3, 2
0, 0
1, 1
2, 1
0, 0
1, 1
1, 1
2, 1
1, 0
2, 1
0, 1
1, 1
1, 2
1, 0
2, 0
1, 0
1, 2
1, 0
0, 0
1, 2
0, 0
1, 0
0, 2
0, 0
2, 1
0, 0
1, 2
0, 1
1, 1
1, 2
2, 1
3, 1
0, 1
1, 0
0, 1
0, 0
2, 2
3, 0
2, 0
1, 0
1, 0
0, 0
0, 0
0, 0
1, 0
1, 0
0, 1
0, 0
0, 0
1, 1
2, 0
1, 1
1, 3
0, 1
1, 1
1, 1
1, 1
0, 0
1, 0
1, 2
0, 1
3, 0
1, 1
0, 0
0, 3
3, 0
0, 1
0, 1
0, 0
1, 0
0, 0
2, 0
1, 0
1, 1
2, 1
0, 0
0, 0
1, 0
0, 0
0, 0
1, 0
0, 0
1, 0
1, 0
0, 0
0, 0
0, 0
0, 1
0, 0
2, 0
0, 0
1, 0
0, 0
0, 0
0, 1
1, 0
0, 2
2, 0
0, 1
0, 0
0, 0
0, 0
0, 1
1, 0
0, 0
0, 0
0, 0
0, 0
0, 0
0, 0
0, 0
0, 1
1, 1
1, 0
0, 1
0, 0
0, 1
0, 0
0, 0
1, 0
0, 1
0, 1
0, 0
1, 2
1, 0
0, 0
0, 0
0, 0
0, 0
1, 1
2, 1
0, 1
0, 1
1, 0
0, 0
0, 0
1, 0
2, 0
0, 0
2, 0
2, 0
2, 0
1, 0
0, 1
0, 0
0, 0
1, 0
0, 0
0, 1
0, 0
0, 0
0, 2
0, 0
0, 0
0, 1
2, 0
0, 0
0, 1
0, 0
0, 0
0, 0
0, 0
0, 2
0, 0
0, 0
0, 0
0, 0
0, 1
0, 0
0, 0
1, 1
0, 1
0, 0
0, 1
0, 0
0, 0
0, 1
0, 0
1, 0
1, 0
1, 0
0, 1
0, 0
0, 0
0, 0
0, 0
0, 0
1, 0
0, 0
0, 0
0, 0
0, 0
0, 0
0, 0
0, 0
1, 0
0, 0
0, 0
0, 1
0, 1
0, 1
0, 0
1, 0
0, 0
0, 0
0, 0
0, 0
1, 0
0, 0
0, 1
0, 0
1, 0
0, 0
0, 1
1, 0
0, 0
1, 0
0, 0
0, 0
0, 0
0, 0
0, 1
0, 1
0, 0
0, 0
0, 0
0, 0
0, 0
0, 0
0, 0
0, 0
1, 0
0, 1
0, 0
0, 0
0, 0
1, 0
2, 0
0, 0
0, 0
1, 0
0, 0
0, 0
0, 0
0, 0
0, 0
0, 0
0, 0
1, 1
1, 0
0, 0
2, 0
1, 0
1, 0
1, 0
0, 0
0, 1
0, 1
0, 0
2, 0
0, 0
0, 0
1, 0
0, 0
0, 0
0, 0
0, 0
0, 0
1, 0
0, 0
0, 0
1, 0
0, 0
0, 0
0, 0
0, 0
0, 0
0, 0
0, 1
0, 0
0, 0
0, 0
0, 0
0, 0
0, 0
0, 2
0, 1
0, 0
0, 0
0, 0
0, 0
0, 0
0, 0
0, 1
0, 0
0, 0
0, 0
0, 0
0, 0
0, 0
0, 0
0, 0
1, 0
0, 0
0, 0
0, 0
0, 0
0, 0
0, 0
0, 0
0, 0
0, 0
0, 0
0, 1
0, 0
0, 0
1, 0
0, 0
0, 0
0, 0
0, 0
0, 0
0, 0
0, 0
0, 0
1, 0
0, 0
0, 0
0, 0
0, 0
0, 0
0, 0
0, 0
0, 0
0, 0
0, 0
1, 0
1, 0
1, 0
1, 0
0, 0
0, 0
0, 0
2, 0
0, 0
0, 0
0, 0
0, 0
0, 0
0, 0
0, 0
0, 0
0, 0
0, 0
0, 0
0, 0
0, 0
0, 0
0, 0
0, 0
0, 1
0, 0
0, 0
0, 0
0, 0
0, 0
0, 0
0, 0
0, 0
0, 0
0, 0
0, 0
0, 0
0, 0
0, 0
0, 0
0, 0
0, 0
0, 0
0, 0
0, 0
0, 0
0, 0
0, 0
0, 0
0, 0
0, 0
0, 0
0, 0
0, 0
0, 0
0, 0
0, 0
0, 0
0, 0
0, 0
1, 0
0, 0
0, 0
0, 0
0, 0
0, 0
0, 0
0, 0
0, 0
0, 0
0, 0
0, 0
0, 0
0, 0
0, 0
0, 0
0, 0
0, 0
0, 0
1, 0
0, 0
0, 0
0, 0
0, 0
0, 0
0, 0
0, 0
0, 0
0, 0
0, 0
0, 0
0, 0
0, 0
0, 0
0, 0
0, 0
0, 0
0, 0
0, 0
0, 0
0, 0
0, 0
0, 0
0, 0
0, 0
0, 0
0, 0
0, 0
0, 0
0, 0
0, 0
0, 0
0, 0
0, 0
0, 0
0, 0
0, 0
0, 0
0, 0
0, 0
0, 0
0, 0
0, 0
0, 0
0, 0
0, 0
0, 0
0, 0
0, 0
0, 0
0, 0
0, 0
0, 0
0, 0
0, 0
0, 0
0, 0
0, 1
0, 0
0, 0
0, 0
0, 0
0, 0
0, 0
0, 0
0, 0
0, 0
0, 0
0, 0
0, 0
0, 0
0, 0
0, 0
0, 0
0, 0
0, 0
0, 0
0, 0
0, 0
0, 0
0, 0
0, 0
0, 0
0, 0
0, 0
0, 0
0, 0
0, 0
0, 0
0, 0
0, 0
0, 0
0, 0
0, 0
0, 0
0, 0
0, 0
0, 0
0, 0
0, 0
0, 0
0, 0
0, 0
0, 0
0, 0
0, 0
0, 0
0, 0
0, 0
0, 0
0, 0
0, 0
0, 0
0, 0
0, 0
0, 0
0, 0
0, 0
0, 0
0, 0
0, 0
0, 0
0, 0
0, 0
0, 0
0, 0
0, 0
0, 0
0, 0
0, 0
0, 0
0, 0
0, 0
0, 0
0, 0
0, 0
0, 0
0, 0
0, 0
0, 0
0, 0
0, 0
0, 0
0, 0
0, 0
0, 0
0, 0
0, 0
0, 0
0, 0
0, 0
0, 0
0, 0
0, 0
0, 0
0, 0
0, 0
0, 0
0, 0
0, 0
0, 0
0, 0
0, 0
0, 0
0, 0
0, 0
0, 0
0, 0
0, 0
0, 0
0, 0
0, 0
0, 0
0, 0
0, 0
0, 0
0, 0
0, 0
0, 0
0, 0
0, 0
0, 0
0, 0
0, 0
0, 0
0, 0
0, 0
0, 0
0, 0
0, 0
0, 0
0, 0
0, 0
0, 0
0, 0
0, 0
0, 0
0, 0
0, 0
0, 0
0, 0
0, 0
0, 0
0, 0
0, 0
0, 0
0, 0
0, 0
0, 0
0, 0
0, 0
0, 0
0, 0
0, 0
0, 0
0, 0
0, 0
0, 0
0, 0
0, 0
0, 0
0, 0
0, 0
0, 0
0, 0
0, 0
0, 0
0, 0
0, 0
0, 0
0, 0
0, 0
0, 0
0, 0
0, 0
0, 0
0, 0
0, 0
0, 0
0, 0
0, 0
0, 0
0, 0
0, 0
0, 0
0, 0
0, 0
0, 0
0, 0
0, 0
0, 0
0, 0
0, 0
0, 0
0, 0
0, 0
0, 0
0, 0
0, 0
0, 0
0, 0
0, 0
0, 0
0, 0
0, 0
0, 0
0, 0
0, 0
0, 0
0, 0
0, 0
0, 0
0, 0
0, 0
0, 0
0, 0
0, 0
0, 0
0, 0
0, 0
0, 0
0, 0
0, 0
0, 0
0, 0
0, 0
0, 0
0, 0
0, 0
0, 0
0, 0
0, 0
0, 0
0, 0
0, 0
0, 0
0, 0
0, 0
0, 0
0, 0
0, 0
0, 0
0, 0
0, 0
0, 0
0, 0
0, 0
0, 0
0, 0
0, 0
0, 0
0, 0
0, 0
0, 0
0, 0
0, 0
0, 0
0, 0
0, 0
0, 0
0, 0
0, 0
0, 0
0, 0
0, 0
0, 0
0, 0
0, 0
0, 0
0, 0
0, 0
0, 0
0, 0
0, 0
0, 0
0, 0
0, 0
0, 0
0, 0
0, 0
0, 0
0, 0
0, 0
0, 0
0, 0
0, 0
0, 0
0, 0
0, 0
0, 0
0, 0
#ENDOFDATA     end of spectrum data