File: host_upload/06-09-2024/ps_0852/dump3/ps__0852shot_2336.msa
#FORMAT      : EMSA/MAS spectral data file
#VERSION     : TC202v2.0 PIXL
#TITLE       : N/A
#DATE        :       Date in the format DD-MMM-YYYY, for example 07-JUL-2010
#TIME        :             The time of day at which the spectrum was recorded, in 24-hour format
#OWNER       : PIXL Flight Model       (PIXL will use this to indicate which instrument took the data.)
#NPOINTS     : 4096     Number of data points in the spectrum (This can be zero for configuration only files)
#NCOLUMNS    : 2     Number of data columns in the spectrum (This can be zero for configuration only files)
#XUNITS      : eV
#YUNITS      : COUNTS
#DATATYPE    : YY
#XPERCHAN    : 7.862, 7.881   eV per channel (separate by commas if more than one detector)
#OFFSET      : 18.5, -22.4         eV of first channel  (separate by commas if more than one detector
#SIGNALTYPE  : XRF
#YP_TEMP     : 2.46
#LIVETIME    : 8.55681, 8.54348   seconds (separate by commas if more than one detector)
#REALTIME    : 10, 10.0   seconds (separate by commas if more than one detector)
#SPECTRUM    : start of spectrum data
0, 0
0, 0
0, 0
0, 0
0, 0
0, 0
0, 0
0, 0
0, 0
0, 0
0, 0
0, 0
0, 0
0, 0
0, 0
0, 0
0, 0
0, 0
0, 0
0, 0
0, 0
0, 0
0, 0
0, 0
0, 0
0, 0
0, 0
0, 0
0, 0
0, 0
0, 0
0, 0
0, 0
0, 0
0, 0
1, 1
1, 0
1, 3
1, 0
1, 1
0, 2
0, 2
2, 0
3, 0
1, 2
1, 1
1, 1
0, 5
6, 7
13, 12
30, 26
34, 39
54, 61
61, 83
64, 82
72, 79
50, 40
34, 39
21, 37
12, 21
7, 13
0, 9
4, 6
6, 3
3, 4
3, 4
8, 11
8, 8
23, 26
38, 53
89, 110
147, 189
205, 297
300, 368
346, 429
361, 462
346, 384
233, 299
144, 199
103, 151
49, 59
39, 36
17, 19
5, 6
7, 2
5, 1
3, 1
2, 2
3, 0
4, 1
2, 2
2, 9
7, 12
20, 18
36, 37
52, 64
71, 90
89, 115
145, 132
109, 119
113, 98
98, 83
56, 61
39, 45
25, 32
19, 20
17, 15
16, 14
23, 14
16, 19
18, 35
22, 34
37, 38
48, 46
33, 46
45, 53
38, 42
35, 39
36, 40
39, 38
22, 30
14, 29
15, 21
13, 18
10, 21
13, 17
8, 18
13, 15
11, 6
2, 7
8, 10
3, 4
6, 7
2, 3
2, 1
3, 2
5, 6
1, 3
5, 5
2, 1
0, 4
2, 3
1, 6
0, 1
2, 0
2, 2
1, 2
2, 1
4, 2
3, 3
3, 4
4, 5
9, 7
8, 4
10, 19
14, 24
16, 19
23, 22
17, 26
10, 16
7, 16
5, 8
4, 2
6, 4
0, 2
6, 3
2, 7
2, 4
4, 6
4, 5
5, 5
7, 6
3, 6
4, 5
5, 6
3, 10
2, 6
5, 2
5, 7
7, 9
5, 7
2, 4
4, 2
6, 1
5, 3
1, 3
1, 8
9, 10
3, 5
6, 3
5, 6
9, 14
13, 12
4, 7
9, 18
6, 15
12, 22
9, 27
12, 30
11, 18
16, 20
13, 14
9, 7
8, 10
7, 17
10, 28
6, 25
4, 58
2, 57
3, 84
4, 77
9, 80
10, 67
6, 66
9, 55
8, 41
10, 33
3, 29
2, 8
8, 9
3, 8
8, 12
9, 6
3, 8
5, 8
12, 10
19, 12
17, 8
18, 12
20, 14
30, 10
29, 19
24, 11
17, 12
21, 7
11, 13
10, 9
16, 8
11, 8
6, 5
8, 4
10, 6
9, 9
11, 9
9, 26
15, 26
23, 26
40, 45
38, 50
55, 56
50, 78
39, 60
44, 61
39, 45
35, 41
28, 34
26, 26
16, 19
28, 14
14, 20
19, 29
30, 32
45, 39
75, 103
123, 227
261, 373
434, 657
722, 1023
1047, 1483
1487, 1928
1813, 2431
2172, 2613
2325, 2703
2380, 2470
2083, 2127
1820, 1692
1474, 1175
1073, 810
699, 530
462, 284
288, 146
197, 94
103, 55
65, 27
37, 22
23, 19
14, 13
19, 16
13, 18
11, 29
20, 29
21, 45
39, 64
42, 89
96, 134
145, 189
174, 258
263, 301
311, 356
279, 385
324, 404
350, 363
269, 262
237, 222
162, 166
121, 88
68, 83
48, 36
30, 31
21, 20
10, 10
10, 23
9, 22
6, 29
8, 31
12, 39
13, 35
14, 37
7, 41
13, 27
16, 38
14, 22
9, 23
7, 12
5, 9
3, 7
3, 10
6, 3
3, 2
2, 3
2, 5
1, 2
4, 6
2, 2
2, 2
3, 2
2, 5
3, 4
4, 4
4, 2
6, 5
3, 3
8, 5
5, 4
1, 6
3, 6
7, 4
10, 7
6, 7
3, 9
3, 10
7, 9
5, 6
4, 2
5, 6
3, 4
3, 5
1, 4
3, 4
4, 5
6, 3
4, 4
2, 3
0, 4
2, 2
5, 3
2, 3
5, 4
6, 2
2, 7
4, 4
5, 2
6, 7
8, 3
7, 5
6, 0
4, 2
2, 4
6, 3
2, 1
7, 6
2, 4
0, 2
3, 2
2, 8
3, 8
4, 5
3, 6
3, 5
1, 7
1, 11
3, 5
1, 3
2, 2
2, 3
3, 4
3, 4
2, 2
4, 3
4, 6
2, 1
3, 2
3, 3
4, 3
3, 6
3, 3
2, 2
2, 6
2, 3
1, 3
4, 3
3, 2
4, 8
2, 10
1, 7
5, 4
2, 7
2, 9
1, 7
4, 12
4, 11
2, 17
1, 8
1, 11
1, 15
0, 12
2, 4
1, 10
2, 2
3, 6
3, 0
1, 3
2, 0
3, 4
3, 4
3, 3
1, 4
4, 1
3, 3
3, 3
4, 6
1, 1
2, 4
3, 5
6, 1
3, 3
2, 3
5, 2
4, 3
4, 2
0, 1
3, 0
4, 4
5, 6
4, 1
6, 0
9, 3
9, 1
12, 3
13, 6
9, 4
12, 2
11, 1
9, 1
5, 6
13, 3
3, 1
8, 2
11, 1
8, 1
3, 2
2, 1
2, 3
2, 0
2, 4
1, 3
1, 2
0, 2
2, 2
1, 2
2, 0
3, 2
0, 2
4, 2
0, 4
1, 3
1, 7
6, 3
1, 3
2, 2
0, 7
2, 4
1, 3
4, 1
0, 4
1, 3
2, 1
0, 4
0, 1
1, 1
1, 0
1, 0
0, 1
1, 3
2, 3
4, 3
3, 4
3, 2
3, 0
2, 4
3, 3
2, 3
0, 4
2, 1
1, 1
0, 0
2, 1
3, 2
2, 3
2, 5
2, 3
3, 2
1, 0
1, 3
2, 3
3, 4
2, 3
0, 2
2, 3
2, 1
2, 1
1, 5
3, 3
4, 3
1, 4
0, 3
3, 3
2, 3
1, 8
5, 0
4, 3
5, 9
3, 2
4, 3
4, 3
5, 7
4, 2
1, 1
2, 6
3, 1
4, 3
1, 1
2, 2
2, 0
1, 1
1, 0
2, 1
3, 1
4, 2
2, 2
3, 5
0, 2
2, 3
2, 1
1, 2
2, 1
0, 1
1, 1
2, 0
1, 3
1, 5
0, 0
1, 3
0, 1
1, 1
0, 2
0, 1
0, 2
1, 3
3, 2
1, 2
3, 0
0, 1
0, 3
0, 0
0, 1
0, 1
1, 2
1, 3
1, 2
1, 0
4, 1
1, 4
1, 0
0, 1
0, 3
1, 2
0, 1
1, 0
1, 2
1, 2
0, 2
1, 1
0, 0
0, 1
1, 1
2, 1
1, 0
2, 1
3, 2
3, 3
1, 0
0, 1
1, 0
1, 0
0, 2
0, 0
0, 0
0, 0
0, 0
1, 0
1, 1
1, 3
0, 0
3, 1
0, 1
0, 1
0, 0
1, 0
0, 0
0, 0
2, 0
1, 1
0, 0
0, 0
0, 0
2, 1
2, 0
0, 0
2, 0
0, 2
0, 0
4, 0
0, 1
0, 1
0, 1
0, 1
0, 1
1, 0
0, 0
1, 0
0, 0
0, 0
1, 0
0, 1
0, 0
0, 0
0, 1
1, 0
0, 1
0, 0
0, 3
1, 0
0, 1
1, 0
0, 1
0, 2
0, 0
0, 0
1, 1
0, 1
1, 0
0, 0
0, 0
0, 0
0, 0
0, 0
1, 2
0, 1
0, 0
0, 0
0, 0
0, 0
2, 0
0, 1
0, 0
1, 0
0, 1
0, 0
0, 1
1, 0
0, 2
0, 0
0, 1
0, 0
0, 0
0, 0
0, 0
1, 1
2, 0
0, 2
0, 0
0, 0
0, 1
1, 0
1, 2
0, 0
0, 0
0, 1
0, 0
0, 0
1, 0
1, 0
0, 1
0, 0
0, 1
0, 1
1, 1
0, 1
0, 1
0, 0
0, 0
0, 0
0, 0
1, 1
0, 0
0, 1
0, 0
0, 0
1, 2
0, 0
0, 0
0, 0
1, 0
0, 0
0, 0
0, 1
0, 0
0, 1
0, 0
1, 1
1, 2
0, 0
0, 0
0, 2
0, 0
0, 0
0, 2
0, 0
0, 0
0, 1
1, 0
0, 0
0, 1
0, 0
0, 0
0, 0
0, 0
0, 0
1, 0
0, 0
1, 0
0, 0
2, 1
1, 0
0, 0
0, 0
0, 1
0, 1
0, 1
0, 1
1, 1
1, 1
0, 1
0, 2
1, 0
0, 0
0, 0
0, 0
0, 0
1, 0
0, 1
1, 0
1, 0
1, 0
0, 0
0, 0
0, 0
1, 0
0, 0
0, 0
0, 0
0, 1
2, 0
1, 0
0, 0
0, 0
0, 0
0, 0
0, 0
0, 1
0, 1
0, 0
1, 2
1, 1
0, 0
0, 1
0, 0
0, 0
0, 0
0, 0
0, 0
1, 1
1, 0
0, 0
0, 0
0, 0
0, 0
0, 0
1, 0
1, 0
0, 0
1, 1
0, 0
0, 0
0, 0
0, 0
1, 0
1, 0
0, 1
0, 1
0, 0
0, 0
0, 0
0, 0
0, 1
0, 0
0, 0
0, 0
0, 0
0, 0
0, 0
0, 0
1, 0
0, 0
0, 0
0, 0
0, 0
1, 0
0, 0
0, 1
0, 0
1, 0
0, 0
0, 0
0, 0
1, 1
1, 0
0, 1
0, 0
0, 0
0, 0
0, 0
0, 0
0, 0
0, 0
0, 0
0, 0
0, 0
0, 0
0, 0
0, 0
0, 1
0, 0
1, 0
0, 0
0, 1
0, 0
0, 0
0, 0
0, 0
0, 0
0, 0
0, 0
1, 0
0, 0
0, 0
0, 0
0, 0
0, 0
0, 0
0, 0
0, 0
0, 0
0, 0
1, 0
0, 0
1, 1
0, 0
0, 0
0, 0
0, 0
0, 0
0, 0
0, 0
0, 0
0, 0
0, 0
0, 1
0, 0
0, 0
0, 0
0, 0
0, 0
0, 0
0, 0
0, 0
0, 0
0, 0
0, 2
0, 0
0, 0
0, 0
0, 0
0, 0
0, 0
0, 0
0, 0
0, 0
0, 0
0, 0
0, 1
1, 0
0, 0
0, 0
0, 0
0, 0
0, 0
0, 0
0, 0
0, 0
0, 0
0, 0
0, 0
0, 0
0, 0
0, 0
0, 0
0, 0
0, 0
0, 0
0, 0
0, 0
0, 0
0, 0
0, 0
1, 1
0, 0
0, 0
0, 0
0, 0
1, 0
0, 0
0, 0
0, 0
0, 0
0, 0
0, 0
0, 0
0, 0
0, 0
0, 0
0, 0
0, 0
0, 0
0, 0
0, 0
0, 0
0, 0
0, 0
0, 0
0, 0
0, 0
0, 0
0, 0
0, 0
0, 0
0, 0
0, 0
0, 0
0, 0
0, 0
0, 0
0, 0
0, 0
0, 0
0, 0
0, 0
0, 0
0, 0
0, 0
0, 0
0, 0
0, 0
0, 0
0, 0
0, 0
0, 0
0, 0
0, 0
0, 0
0, 0
0, 0
0, 0
0, 0
0, 0
0, 0
1, 0
0, 0
0, 0
0, 0
0, 0
0, 0
0, 0
0, 0
0, 0
0, 0
0, 0
0, 0
0, 0
0, 0
0, 0
0, 0
0, 0
0, 0
0, 0
0, 0
0, 0
0, 0
0, 0
0, 0
0, 0
0, 0
0, 0
0, 0
0, 0
0, 0
0, 0
0, 0
0, 0
0, 0
0, 0
0, 1
0, 0
0, 0
0, 0
0, 0
0, 0
0, 0
0, 0
0, 0
0, 0
0, 0
0, 0
0, 0
0, 0
0, 0
0, 0
0, 0
0, 0
0, 0
0, 0
0, 0
0, 0
0, 0
0, 0
0, 0
0, 0
0, 0
0, 0
0, 0
0, 0
0, 0
0, 0
0, 0
0, 0
0, 0
0, 0
0, 0
0, 0
0, 0
0, 0
0, 0
0, 0
0, 0
0, 0
0, 0
0, 0
0, 0
0, 0
0, 0
0, 0
0, 0
0, 0
0, 0
0, 0
0, 0
0, 0
0, 0
0, 0
0, 0
0, 0
0, 0
0, 0
0, 0
0, 0
0, 0
0, 0
0, 0
0, 0
0, 0
0, 0
0, 0
0, 0
0, 0
0, 0
0, 0
0, 0
0, 0
0, 0
0, 0
0, 0
0, 0
0, 0
0, 0
0, 0
0, 0
0, 0
0, 0
0, 0
0, 0
0, 0
0, 0
0, 0
0, 0
0, 0
0, 0
0, 0
0, 0
0, 0
0, 0
0, 0
0, 0
0, 0
0, 0
0, 0
0, 0
0, 0
0, 0
0, 0
0, 0
0, 0
0, 0
0, 0
0, 0
0, 0
0, 0
0, 0
0, 0
0, 0
0, 0
0, 0
0, 0
0, 0
0, 0
0, 0
0, 0
0, 0
0, 0
0, 0
0, 0
0, 0
0, 0
0, 0
0, 0
0, 0
0, 0
0, 0
0, 0
0, 0
0, 0
0, 0
0, 0
0, 0
0, 0
0, 0
0, 0
0, 0
0, 0
0, 0
0, 0
0, 0
0, 0
0, 0
0, 0
0, 0
0, 0
0, 0
0, 0
0, 0
0, 0
0, 0
0, 0
0, 0
0, 0
0, 0
0, 0
0, 0
0, 0
0, 0
0, 0
0, 0
0, 0
0, 0
0, 0
0, 0
0, 0
0, 0
0, 0
0, 0
0, 0
0, 0
0, 0
0, 0
0, 0
0, 0
0, 0
0, 0
0, 0
0, 0
0, 0
0, 0
0, 0
0, 0
0, 0
0, 0
0, 0
0, 0
0, 0
0, 0
0, 0
0, 0
0, 0
0, 0
0, 0
0, 0
0, 0
0, 0
0, 0
0, 0
0, 0
0, 0
0, 0
0, 0
0, 0
0, 0
0, 0
0, 0
0, 0
0, 0
0, 0
0, 0
0, 0
0, 0
0, 0
0, 0
0, 0
0, 0
0, 0
0, 0
0, 0
0, 0
0, 0
0, 0
0, 0
0, 0
0, 0
0, 0
0, 0
0, 0
0, 0
0, 0
0, 0
0, 0
0, 0
0, 0
0, 0
0, 0
0, 0
0, 0
0, 0
0, 0
0, 0
0, 0
0, 0
0, 0
0, 0
0, 0
0, 0
0, 0
0, 0
0, 0
0, 0
0, 0
0, 0
0, 0
0, 0
0, 0
0, 0
0, 0
0, 0
0, 0
0, 0
0, 0
0, 0
0, 0
0, 0
0, 0
0, 0
0, 0
0, 0
0, 0
0, 0
0, 0
0, 0
0, 0
0, 0
0, 0
0, 0
0, 0
0, 0
0, 0
0, 0
0, 0
0, 0
0, 0
0, 0
0, 0
0, 0
0, 0
0, 0
0, 0
0, 0
0, 0
0, 0
0, 0
0, 0
0, 0
0, 0
0, 0
0, 0
0, 0
0, 0
0, 0
0, 0
0, 0
#ENDOFDATA     end of spectrum data