File: host_upload/06-09-2024/ps_0852/dump3/ps__0852shot_2363.msa
#FORMAT      : EMSA/MAS spectral data file
#VERSION     : TC202v2.0 PIXL
#TITLE       : N/A
#DATE        :       Date in the format DD-MMM-YYYY, for example 07-JUL-2010
#TIME        :             The time of day at which the spectrum was recorded, in 24-hour format
#OWNER       : PIXL Flight Model       (PIXL will use this to indicate which instrument took the data.)
#NPOINTS     : 4096     Number of data points in the spectrum (This can be zero for configuration only files)
#NCOLUMNS    : 2     Number of data columns in the spectrum (This can be zero for configuration only files)
#XUNITS      : eV
#YUNITS      : COUNTS
#DATATYPE    : YY
#XPERCHAN    : 7.862, 7.881   eV per channel (separate by commas if more than one detector)
#OFFSET      : 18.5, -22.4         eV of first channel  (separate by commas if more than one detector
#SIGNALTYPE  : XRF
#YP_TEMP     : 2.011
#LIVETIME    : 8.56577, 8.55665   seconds (separate by commas if more than one detector)
#REALTIME    : 10, 10.0   seconds (separate by commas if more than one detector)
#SPECTRUM    : start of spectrum data
0, 0
0, 0
0, 0
0, 0
0, 0
0, 0
0, 0
0, 0
0, 0
0, 0
0, 0
0, 0
0, 0
0, 0
0, 0
0, 0
0, 0
0, 0
0, 0
0, 0
0, 0
0, 0
0, 0
0, 0
0, 0
0, 0
0, 0
0, 0
0, 0
0, 0
0, 0
0, 0
0, 0
0, 0
0, 2
0, 0
2, 1
0, 2
0, 10
0, 8
0, 17
1, 20
2, 13
2, 11
1, 19
1, 12
3, 5
3, 6
1, 5
13, 18
29, 25
32, 44
34, 70
70, 87
106, 87
91, 98
68, 75
38, 53
25, 25
15, 17
8, 12
3, 4
3, 2
4, 2
8, 2
1, 7
6, 7
5, 14
26, 25
52, 52
90, 109
187, 191
246, 305
339, 421
382, 506
426, 471
393, 415
286, 330
186, 209
132, 146
72, 88
43, 52
17, 15
9, 9
6, 8
2, 2
1, 3
3, 3
3, 3
1, 1
0, 4
1, 1
0, 4
1, 3
1, 1
0, 7
4, 3
1, 3
2, 4
0, 5
2, 4
4, 4
2, 5
1, 3
5, 5
2, 10
7, 13
6, 31
8, 59
14, 157
27, 256
34, 443
39, 740
64, 973
62, 1174
67, 1275
58, 1195
54, 958
40, 659
28, 494
33, 259
25, 154
27, 94
16, 33
13, 38
14, 16
12, 20
8, 15
10, 9
5, 5
3, 1
2, 4
1, 1
3, 5
1, 1
2, 3
1, 3
3, 3
1, 2
0, 1
0, 1
1, 0
2, 3
3, 3
1, 2
1, 2
3, 3
2, 1
5, 2
2, 2
3, 3
0, 3
6, 3
2, 7
6, 14
11, 8
15, 9
16, 15
10, 11
11, 8
12, 10
9, 12
5, 6
2, 4
3, 14
1, 18
5, 29
4, 39
3, 52
8, 65
3, 56
9, 68
9, 54
14, 46
6, 29
8, 26
7, 10
14, 12
4, 8
5, 8
5, 4
3, 7
5, 3
4, 4
5, 4
5, 2
6, 2
2, 6
7, 4
1, 9
4, 6
5, 8
11, 6
12, 9
9, 13
13, 16
10, 11
10, 20
18, 16
9, 15
8, 12
7, 23
7, 18
7, 25
4, 25
3, 11
5, 11
8, 13
4, 6
1, 3
8, 13
6, 10
5, 7
4, 8
6, 7
9, 6
4, 5
4, 4
3, 6
7, 10
4, 7
3, 6
5, 10
5, 4
6, 13
8, 13
7, 14
7, 18
8, 14
22, 8
11, 12
15, 12
14, 13
21, 10
5, 11
9, 9
9, 7
14, 7
12, 4
7, 3
11, 2
10, 10
5, 8
11, 8
11, 21
14, 23
22, 27
33, 38
44, 52
53, 51
48, 65
41, 67
58, 57
46, 44
38, 31
30, 33
30, 19
19, 20
11, 23
16, 19
19, 24
30, 24
51, 52
87, 103
127, 223
255, 386
454, 626
722, 934
1046, 1391
1497, 1873
1892, 2465
2121, 2524
2360, 2650
2272, 2358
1943, 2053
1672, 1629
1300, 1209
836, 803
558, 470
349, 294
180, 150
110, 105
53, 70
42, 51
28, 42
31, 45
23, 31
19, 40
22, 32
17, 40
32, 44
31, 46
54, 55
64, 72
113, 132
158, 176
197, 239
239, 284
313, 369
326, 370
339, 385
327, 378
306, 288
222, 245
174, 183
136, 108
91, 56
53, 30
35, 19
14, 13
8, 7
5, 7
11, 7
6, 13
6, 6
8, 14
11, 14
9, 15
9, 16
14, 15
12, 10
8, 18
8, 14
4, 10
5, 4
7, 4
4, 2
4, 4
1, 2
3, 1
3, 0
1, 3
4, 6
3, 1
6, 1
2, 2
8, 6
13, 4
10, 9
8, 6
14, 5
22, 4
19, 7
38, 3
26, 5
27, 1
24, 7
23, 8
24, 7
26, 5
21, 9
12, 9
4, 7
8, 5
7, 5
3, 4
8, 5
4, 7
1, 2
7, 3
6, 1
3, 2
1, 7
2, 3
9, 2
3, 4
1, 2
4, 4
1, 6
4, 9
5, 3
4, 1
2, 4
4, 1
3, 5
2, 2
3, 6
4, 2
2, 0
7, 6
1, 7
3, 8
3, 5
4, 3
1, 6
1, 7
2, 8
4, 6
5, 6
1, 5
6, 4
5, 5
7, 5
0, 4
7, 2
1, 3
0, 12
5, 6
5, 7
2, 5
7, 4
9, 6
6, 8
4, 5
3, 3
1, 2
2, 4
1, 3
4, 4
5, 3
2, 2
1, 2
4, 4
4, 3
1, 0
3, 2
3, 3
2, 2
3, 5
1, 1
3, 3
3, 3
2, 1
5, 5
2, 2
4, 0
4, 4
4, 1
3, 1
3, 4
0, 1
2, 6
0, 4
1, 2
2, 1
0, 4
1, 4
0, 3
2, 3
0, 1
0, 2
0, 1
5, 5
2, 0
4, 2
5, 3
7, 5
6, 7
3, 6
3, 3
4, 2
3, 6
9, 3
2, 6
5, 7
1, 7
6, 5
3, 10
3, 9
4, 5
3, 6
3, 11
3, 3
0, 8
3, 10
1, 5
0, 4
2, 9
2, 4
5, 3
2, 3
3, 1
2, 3
0, 2
1, 3
2, 6
1, 3
0, 1
2, 2
2, 3
1, 2
3, 2
2, 1
3, 1
2, 5
1, 1
1, 2
2, 3
1, 0
1, 2
1, 1
1, 4
4, 0
7, 2
4, 1
3, 3
0, 3
0, 3
1, 3
4, 1
4, 1
2, 2
3, 0
3, 8
2, 3
3, 2
1, 2
2, 3
4, 2
2, 3
1, 3
3, 1
0, 3
7, 3
4, 5
2, 2
2, 3
3, 1
1, 1
3, 2
2, 5
4, 3
0, 2
5, 2
1, 0
2, 1
1, 4
1, 2
3, 2
1, 0
1, 3
0, 2
0, 4
0, 1
2, 2
5, 1
0, 1
4, 2
4, 2
4, 5
3, 2
4, 9
5, 5
4, 1
6, 2
6, 2
2, 4
3, 3
2, 2
3, 1
1, 1
2, 0
2, 0
1, 1
0, 1
1, 0
0, 3
2, 2
3, 1
3, 1
2, 2
1, 1
0, 0
1, 6
0, 4
0, 8
3, 1
0, 1
1, 6
2, 0
2, 3
2, 2
2, 2
4, 3
0, 4
3, 1
0, 2
1, 1
2, 2
2, 5
4, 1
2, 0
1, 2
2, 1
2, 0
0, 1
0, 3
0, 0
0, 0
0, 3
4, 0
0, 1
0, 3
1, 1
1, 0
0, 2
0, 0
0, 0
3, 0
0, 0
0, 1
2, 1
1, 3
0, 0
3, 4
1, 1
0, 2
1, 0
1, 2
1, 1
2, 2
1, 0
0, 2
0, 1
1, 0
3, 0
0, 1
0, 0
2, 0
1, 0
2, 2
1, 5
0, 2
1, 1
1, 1
0, 3
2, 1
1, 3
0, 0
2, 0
3, 4
1, 0
0, 0
1, 1
0, 0
0, 0
1, 2
0, 0
1, 0
1, 0
1, 0
0, 1
1, 0
1, 0
0, 1
0, 0
0, 1
0, 0
0, 0
0, 0
1, 0
0, 1
0, 0
0, 0
2, 2
0, 1
0, 0
2, 2
0, 0
0, 0
1, 1
1, 1
1, 2
0, 0
0, 0
0, 1
1, 0
1, 1
0, 1
0, 2
1, 0
1, 0
2, 1
0, 0
1, 0
0, 0
0, 0
1, 2
0, 0
0, 0
1, 0
1, 1
0, 0
1, 0
0, 0
1, 1
0, 0
0, 3
0, 2
1, 1
1, 1
1, 0
1, 0
0, 0
0, 0
1, 0
0, 0
0, 0
1, 0
1, 1
0, 0
0, 0
0, 0
0, 0
1, 0
0, 1
2, 0
0, 0
0, 0
0, 1
0, 1
0, 1
0, 0
0, 1
0, 0
0, 0
0, 0
2, 0
0, 1
0, 0
0, 0
0, 0
0, 1
0, 2
2, 0
1, 2
0, 1
0, 0
1, 0
0, 0
1, 0
2, 0
1, 0
0, 0
1, 0
0, 0
1, 0
0, 0
0, 0
1, 0
1, 0
0, 0
0, 0
0, 0
0, 1
0, 1
0, 0
1, 0
0, 0
0, 0
0, 0
0, 1
0, 0
0, 1
0, 0
0, 2
0, 0
0, 0
0, 0
0, 0
0, 1
1, 0
0, 0
0, 0
0, 0
0, 1
0, 2
0, 0
0, 0
0, 0
0, 0
1, 0
0, 3
0, 0
0, 1
0, 0
0, 0
0, 0
0, 0
0, 1
1, 0
0, 1
0, 0
0, 1
0, 0
0, 0
1, 1
0, 2
0, 0
0, 0
0, 0
0, 1
0, 1
0, 1
0, 0
0, 0
0, 0
1, 0
0, 0
0, 0
0, 0
0, 0
0, 1
0, 2
1, 0
0, 0
1, 0
1, 0
0, 0
0, 0
0, 0
0, 1
0, 0
0, 0
0, 0
0, 0
0, 0
0, 0
0, 1
0, 0
0, 0
0, 0
0, 0
0, 0
0, 0
0, 0
0, 0
1, 1
0, 0
0, 0
0, 0
1, 0
0, 0
0, 0
0, 1
1, 0
0, 0
0, 0
1, 0
0, 0
0, 0
0, 1
0, 0
0, 0
0, 0
0, 0
0, 0
1, 0
0, 0
0, 0
2, 0
0, 0
0, 0
0, 0
2, 0
0, 1
0, 0
0, 0
0, 0
1, 0
0, 0
0, 0
0, 0
0, 0
0, 0
0, 0
0, 0
0, 1
0, 0
1, 0
0, 0
0, 0
0, 0
0, 0
1, 0
0, 0
0, 0
0, 0
0, 0
0, 0
0, 0
0, 0
0, 0
0, 0
0, 1
0, 0
0, 0
0, 0
0, 0
0, 0
0, 0
0, 0
0, 0
0, 0
0, 0
0, 0
0, 0
0, 0
0, 0
0, 0
0, 0
0, 0
0, 0
0, 0
0, 0
0, 0
0, 0
0, 0
0, 0
0, 0
0, 0
0, 0
0, 0
0, 0
0, 0
0, 0
0, 0
0, 0
0, 0
0, 0
0, 0
1, 0
0, 0
0, 0
0, 0
0, 0
0, 0
1, 0
0, 0
0, 0
0, 0
0, 0
0, 0
0, 1
0, 0
0, 0
0, 0
0, 0
0, 0
0, 0
0, 0
0, 0
0, 0
0, 0
0, 0
0, 0
0, 0
0, 0
0, 0
0, 0
0, 0
0, 0
0, 0
0, 1
0, 0
0, 0
0, 0
0, 0
0, 0
0, 0
0, 0
0, 0
0, 0
0, 0
0, 0
0, 0
0, 0
0, 0
1, 0
0, 0
0, 0
0, 0
0, 0
0, 0
0, 0
0, 0
0, 1
0, 0
0, 0
0, 0
0, 0
0, 0
0, 0
0, 0
0, 0
0, 0
0, 0
0, 0
0, 0
0, 0
0, 0
0, 0
0, 0
0, 0
0, 0
0, 0
0, 0
0, 0
0, 0
0, 0
0, 0
0, 0
0, 0
0, 0
0, 0
0, 1
0, 0
0, 0
0, 0
0, 0
0, 0
0, 0
0, 0
0, 0
0, 0
0, 0
0, 0
0, 0
0, 0
0, 0
0, 0
0, 0
0, 0
0, 0
0, 0
0, 0
0, 0
0, 0
0, 0
1, 0
0, 0
0, 0
0, 0
1, 0
0, 0
0, 0
0, 0
0, 0
0, 0
0, 0
0, 0
0, 0
0, 0
0, 0
0, 0
0, 0
0, 0
0, 0
0, 0
0, 0
0, 0
0, 0
0, 0
0, 0
0, 0
0, 0
0, 0
0, 0
0, 0
0, 0
0, 0
0, 0
0, 0
0, 0
0, 0
0, 0
0, 0
0, 0
0, 0
0, 0
0, 0
0, 0
0, 0
0, 0
0, 0
0, 0
0, 0
0, 0
0, 0
0, 0
0, 0
0, 0
0, 0
0, 0
0, 0
0, 0
0, 0
0, 0
0, 0
0, 0
0, 0
0, 0
0, 0
0, 0
0, 0
0, 0
0, 0
0, 0
0, 0
0, 0
0, 0
0, 0
0, 0
0, 0
0, 0
0, 0
0, 0
0, 0
0, 0
0, 0
0, 0
0, 0
0, 0
0, 0
0, 0
0, 0
0, 0
0, 0
0, 0
0, 0
0, 0
0, 0
0, 0
0, 0
0, 0
0, 0
0, 0
0, 0
0, 0
0, 0
0, 0
0, 0
0, 0
0, 0
0, 0
0, 0
0, 0
0, 0
0, 0
0, 0
0, 0
0, 0
0, 0
0, 0
0, 0
0, 0
0, 0
0, 0
0, 0
0, 0
0, 0
0, 0
0, 0
0, 0
0, 0
0, 0
0, 0
0, 0
0, 0
0, 0
0, 0
0, 0
0, 0
0, 0
0, 0
0, 0
0, 0
0, 0
0, 0
0, 0
0, 0
0, 0
0, 0
0, 0
0, 0
0, 0
0, 0
0, 0
0, 0
0, 0
0, 0
0, 0
0, 0
0, 0
0, 0
0, 0
0, 0
0, 0
0, 0
0, 0
0, 0
0, 0
0, 0
0, 0
0, 0
0, 0
0, 0
0, 0
0, 0
0, 0
0, 0
0, 0
0, 0
0, 0
0, 0
0, 0
0, 0
0, 0
0, 0
0, 0
0, 0
0, 0
0, 0
0, 0
0, 0
0, 0
0, 0
0, 0
0, 0
0, 0
0, 0
0, 0
0, 0
0, 0
0, 0
0, 0
0, 0
0, 0
0, 0
0, 0
0, 0
0, 0
0, 0
0, 0
0, 0
0, 0
0, 0
0, 0
0, 0
0, 0
0, 0
0, 0
0, 0
0, 0
0, 0
0, 0
0, 0
0, 0
0, 0
0, 0
0, 0
0, 0
0, 0
0, 0
0, 0
0, 0
0, 0
0, 0
0, 0
0, 0
0, 0
0, 0
0, 0
0, 0
0, 0
0, 0
0, 0
0, 0
0, 0
0, 0
0, 0
0, 0
0, 0
0, 0
0, 0
0, 0
0, 0
0, 0
0, 0
0, 0
0, 0
0, 0
0, 0
0, 0
0, 0
0, 0
0, 0
0, 0
0, 0
0, 0
0, 0
0, 0
0, 0
0, 0
0, 0
0, 0
0, 0
0, 0
0, 0
0, 0
0, 0
0, 0
0, 0
0, 0
0, 0
0, 0
0, 0
0, 0
0, 0
0, 0
0, 0
0, 0
0, 0
0, 0
0, 0
0, 0
0, 0
0, 0
0, 0
0, 0
0, 0
0, 0
0, 0
0, 0
0, 0
0, 0
0, 0
0, 0
0, 0
0, 0
0, 0
0, 0
0, 0
0, 0
0, 0
0, 0
0, 0
0, 0
0, 0
0, 0
0, 0
0, 0
0, 0
0, 0
0, 0
0, 0
0, 0
0, 0
0, 0
0, 0
0, 0
0, 0
0, 0
0, 0
0, 0
0, 0
0, 0
0, 0
0, 0
0, 0
0, 0
0, 0
0, 0
0, 0
0, 0
0, 0
#ENDOFDATA     end of spectrum data