File: host_upload/06-09-2024/ps_0852/dump3/ps__0852shot_2230.msa
#FORMAT      : EMSA/MAS spectral data file
#VERSION     : TC202v2.0 PIXL
#TITLE       : N/A
#DATE        :       Date in the format DD-MMM-YYYY, for example 07-JUL-2010
#TIME        :             The time of day at which the spectrum was recorded, in 24-hour format
#OWNER       : PIXL Flight Model       (PIXL will use this to indicate which instrument took the data.)
#NPOINTS     : 4096     Number of data points in the spectrum (This can be zero for configuration only files)
#NCOLUMNS    : 2     Number of data columns in the spectrum (This can be zero for configuration only files)
#XUNITS      : eV
#YUNITS      : COUNTS
#DATATYPE    : YY
#XPERCHAN    : 7.862, 7.881   eV per channel (separate by commas if more than one detector)
#OFFSET      : 18.5, -22.4         eV of first channel  (separate by commas if more than one detector
#SIGNALTYPE  : XRF
#YP_TEMP     : 2.364
#LIVETIME    : 8.55557, 8.55098   seconds (separate by commas if more than one detector)
#REALTIME    : 10, 10.0   seconds (separate by commas if more than one detector)
#SPECTRUM    : start of spectrum data
0, 0
0, 0
0, 0
0, 0
0, 0
0, 0
0, 0
0, 0
0, 0
0, 0
0, 0
0, 0
0, 0
0, 0
0, 0
0, 0
0, 0
0, 0
0, 0
0, 0
0, 0
0, 0
0, 0
0, 0
0, 0
0, 0
0, 0
0, 0
0, 0
0, 0
0, 0
0, 0
0, 0
0, 0
0, 0
0, 0
0, 1
1, 3
1, 9
1, 8
0, 12
1, 13
0, 6
2, 6
1, 5
3, 1
3, 4
5, 4
6, 5
9, 11
13, 22
31, 35
44, 49
60, 57
60, 73
50, 66
43, 46
44, 44
33, 13
9, 13
9, 9
4, 2
4, 1
4, 4
5, 5
1, 6
4, 4
9, 11
15, 27
48, 53
103, 102
172, 176
287, 274
365, 384
380, 402
445, 412
366, 404
282, 314
207, 177
141, 118
60, 64
41, 41
18, 8
7, 9
4, 1
1, 2
0, 3
2, 3
0, 6
1, 6
1, 3
2, 4
1, 2
2, 1
3, 4
2, 3
4, 4
10, 5
2, 9
3, 4
1, 11
6, 5
5, 3
6, 5
3, 6
4, 4
3, 15
14, 28
10, 63
22, 123
29, 219
35, 372
27, 452
49, 653
52, 733
53, 736
50, 717
39, 545
33, 386
25, 245
25, 157
27, 82
17, 45
14, 34
17, 20
17, 17
8, 18
8, 5
8, 7
5, 8
6, 6
5, 7
5, 1
6, 4
3, 2
6, 2
8, 2
8, 3
8, 3
14, 7
4, 1
8, 2
7, 1
1, 1
3, 1
2, 3
1, 2
2, 2
2, 4
5, 2
5, 1
2, 4
6, 1
10, 9
5, 14
11, 15
5, 13
14, 16
16, 11
15, 10
13, 12
12, 8
5, 7
3, 6
2, 2
2, 4
2, 6
5, 7
2, 10
3, 3
6, 2
5, 2
4, 9
3, 9
3, 10
5, 12
3, 12
7, 11
13, 20
12, 28
8, 22
14, 16
10, 13
20, 12
18, 9
10, 7
8, 1
14, 10
4, 9
6, 5
9, 7
6, 8
9, 3
5, 10
5, 9
12, 13
14, 19
9, 20
23, 16
32, 16
39, 11
45, 11
46, 8
66, 11
78, 8
88, 8
104, 6
75, 4
66, 7
57, 8
38, 4
44, 4
26, 5
17, 3
13, 5
9, 3
7, 10
6, 8
6, 13
3, 16
10, 21
2, 33
11, 33
6, 53
8, 51
10, 52
9, 60
10, 46
8, 46
11, 40
14, 40
20, 20
11, 17
24, 14
9, 17
18, 15
13, 5
17, 6
12, 7
9, 4
5, 8
15, 8
10, 9
8, 10
5, 15
14, 23
10, 21
36, 42
57, 46
46, 46
66, 67
51, 60
48, 62
42, 38
46, 45
39, 31
29, 16
13, 17
20, 19
17, 15
20, 18
25, 28
42, 61
94, 98
142, 181
291, 298
455, 611
715, 882
1136, 1293
1464, 1704
1945, 2148
2332, 2298
2393, 2322
2278, 2246
2055, 1949
1776, 1515
1276, 1053
911, 676
564, 426
326, 278
214, 130
108, 71
48, 38
23, 34
21, 22
16, 22
14, 20
9, 16
15, 28
20, 19
16, 26
18, 28
39, 65
62, 84
96, 116
155, 175
190, 210
261, 291
290, 307
341, 352
394, 363
307, 330
301, 260
226, 199
204, 146
131, 101
99, 67
44, 42
30, 27
18, 14
8, 12
10, 8
7, 7
7, 10
6, 8
12, 4
14, 22
15, 5
10, 16
17, 11
10, 16
7, 6
8, 7
10, 12
9, 7
7, 5
4, 4
5, 6
4, 3
4, 3
2, 6
1, 7
5, 6
4, 14
4, 15
4, 28
6, 24
7, 29
14, 27
14, 19
20, 35
15, 32
30, 20
12, 15
24, 20
15, 19
18, 15
13, 7
9, 3
5, 7
8, 4
7, 10
6, 5
5, 6
5, 5
4, 0
9, 2
2, 4
10, 4
5, 3
3, 6
7, 7
0, 2
2, 6
2, 6
2, 7
2, 4
3, 3
3, 6
4, 2
3, 3
3, 3
3, 3
4, 3
5, 1
4, 1
6, 11
3, 4
2, 1
5, 7
5, 2
3, 5
5, 9
4, 4
4, 3
4, 8
0, 3
0, 7
3, 7
2, 6
4, 9
8, 13
4, 13
6, 10
0, 12
2, 13
2, 5
3, 6
4, 8
7, 4
1, 3
1, 3
3, 9
1, 4
6, 5
8, 2
3, 2
3, 6
3, 5
3, 2
7, 0
7, 4
3, 1
4, 5
4, 3
4, 0
6, 4
3, 1
3, 3
4, 3
10, 1
9, 0
15, 3
10, 6
5, 1
9, 1
8, 6
11, 3
7, 1
11, 4
7, 2
2, 3
4, 3
3, 1
3, 2
2, 5
3, 3
2, 0
0, 3
6, 3
4, 6
2, 3
2, 6
10, 4
4, 5
6, 5
5, 7
5, 6
4, 6
6, 4
5, 8
2, 6
2, 9
1, 8
2, 8
4, 6
1, 5
3, 3
2, 2
3, 2
0, 2
1, 1
1, 2
1, 0
1, 1
3, 1
1, 2
0, 4
2, 3
2, 4
3, 1
1, 2
2, 1
2, 3
6, 0
3, 2
1, 1
2, 3
3, 2
3, 0
1, 5
2, 1
2, 2
1, 1
2, 1
5, 0
0, 1
3, 1
1, 6
2, 6
0, 1
2, 2
4, 3
0, 5
3, 1
2, 3
0, 2
2, 2
3, 3
1, 5
0, 4
0, 5
1, 6
2, 7
1, 7
1, 1
2, 4
5, 3
3, 8
4, 2
1, 3
4, 4
3, 3
2, 1
3, 1
3, 1
4, 2
3, 1
4, 0
4, 1
3, 1
4, 1
5, 1
3, 1
4, 2
2, 0
4, 1
7, 1
2, 4
4, 0
1, 0
0, 1
4, 0
2, 2
3, 3
4, 4
4, 4
3, 7
3, 2
4, 3
4, 1
6, 1
6, 2
9, 5
3, 4
5, 4
3, 3
4, 3
2, 4
2, 3
7, 0
2, 2
4, 3
6, 3
0, 0
1, 4
2, 1
0, 0
0, 2
0, 1
1, 2
0, 2
2, 0
0, 1
0, 3
2, 2
0, 3
2, 1
0, 3
1, 3
3, 0
2, 1
3, 0
0, 2
1, 1
1, 0
1, 3
1, 1
3, 2
2, 0
0, 2
0, 2
1, 1
1, 0
1, 1
0, 0
1, 1
1, 0
1, 2
0, 1
1, 2
0, 2
1, 1
1, 1
3, 3
0, 1
1, 0
5, 1
0, 0
0, 0
2, 1
1, 2
0, 0
1, 0
1, 0
1, 0
1, 0
3, 1
0, 0
1, 1
0, 2
0, 1
1, 1
0, 2
1, 1
0, 0
0, 1
0, 2
1, 2
3, 0
0, 1
2, 1
0, 2
0, 0
1, 1
1, 0
1, 0
0, 1
0, 0
1, 0
0, 0
1, 0
0, 2
1, 0
1, 2
0, 0
1, 1
1, 1
0, 0
0, 0
0, 1
1, 1
2, 0
0, 0
1, 0
1, 1
0, 2
0, 1
0, 1
0, 0
0, 1
1, 1
1, 3
0, 1
0, 0
1, 1
1, 0
2, 0
0, 1
0, 0
0, 1
0, 0
0, 1
1, 0
0, 0
0, 1
1, 1
0, 0
0, 1
0, 0
2, 1
0, 0
0, 1
2, 0
0, 0
0, 1
0, 1
0, 0
0, 0
0, 0
0, 0
0, 0
0, 0
0, 1
0, 0
0, 0
1, 0
0, 0
0, 1
0, 0
0, 1
0, 0
0, 1
0, 0
0, 1
1, 0
1, 0
0, 0
0, 1
0, 0
1, 0
0, 0
1, 0
0, 0
0, 0
0, 3
0, 0
1, 0
1, 0
0, 0
0, 0
0, 1
0, 0
0, 1
1, 1
0, 0
0, 0
2, 0
0, 0
0, 0
0, 0
1, 1
1, 0
3, 1
1, 0
0, 1
0, 1
0, 0
1, 0
0, 0
0, 0
0, 0
0, 0
0, 0
0, 0
1, 0
0, 1
0, 0
0, 1
1, 0
0, 0
0, 0
0, 0
1, 0
0, 0
0, 0
0, 1
0, 1
0, 0
0, 0
0, 0
1, 0
0, 0
0, 0
0, 0
0, 0
0, 0
0, 0
0, 1
0, 0
0, 0
1, 0
0, 0
0, 0
1, 0
0, 0
0, 0
0, 0
0, 0
0, 1
1, 0
0, 0
0, 1
1, 0
0, 0
0, 0
0, 0
1, 0
0, 0
0, 0
0, 0
0, 0
0, 0
0, 0
2, 0
0, 0
1, 0
0, 1
2, 0
0, 0
0, 0
1, 1
0, 1
1, 0
0, 0
0, 1
1, 0
1, 1
0, 1
0, 0
0, 0
0, 0
0, 1
0, 0
0, 0
0, 0
2, 1
0, 2
1, 0
0, 0
0, 0
0, 1
0, 0
0, 0
1, 0
0, 0
0, 0
0, 1
0, 0
0, 0
0, 0
0, 0
0, 0
0, 0
0, 0
0, 1
0, 0
0, 0
0, 0
0, 0
1, 0
0, 0
0, 0
0, 0
0, 0
0, 0
0, 0
1, 0
0, 0
0, 1
0, 0
0, 0
0, 0
0, 1
0, 0
0, 0
0, 0
0, 0
0, 0
0, 2
0, 0
0, 0
0, 0
0, 0
0, 0
0, 0
1, 0
0, 0
0, 0
0, 0
0, 0
0, 0
0, 0
0, 1
0, 0
0, 0
0, 0
0, 0
0, 0
1, 0
0, 0
0, 0
0, 0
0, 0
0, 0
0, 0
0, 0
0, 0
0, 0
0, 0
0, 0
0, 0
0, 0
1, 0
0, 0
0, 0
0, 0
0, 0
0, 0
0, 0
0, 0
0, 0
1, 0
0, 0
0, 0
0, 0
0, 1
0, 0
0, 0
0, 1
0, 0
0, 0
0, 0
0, 0
0, 0
0, 0
0, 0
0, 0
0, 0
0, 0
0, 0
0, 0
0, 0
0, 0
0, 0
0, 0
0, 0
0, 0
0, 1
0, 0
0, 0
0, 0
0, 0
0, 0
0, 0
0, 0
0, 0
0, 0
0, 0
0, 0
0, 0
0, 0
0, 0
0, 0
0, 0
0, 0
0, 0
0, 0
0, 0
0, 1
0, 0
0, 1
0, 0
0, 0
0, 0
0, 0
0, 0
0, 0
0, 0
0, 0
0, 0
0, 0
0, 0
0, 0
0, 1
0, 0
0, 0
0, 0
0, 0
0, 0
1, 0
0, 0
0, 0
0, 0
0, 1
0, 0
0, 0
0, 0
0, 0
0, 0
0, 0
0, 0
0, 0
0, 0
0, 0
0, 0
0, 0
0, 0
0, 0
0, 0
0, 0
0, 0
0, 0
0, 0
0, 0
0, 0
0, 0
0, 0
0, 0
0, 0
0, 0
0, 0
0, 0
0, 0
0, 0
0, 0
0, 0
0, 0
0, 0
0, 0
0, 0
0, 0
0, 0
0, 0
0, 0
0, 0
0, 0
0, 0
0, 0
0, 0
0, 0
0, 0
0, 0
0, 0
0, 0
0, 0
0, 0
0, 0
0, 0
0, 0
0, 0
0, 0
0, 0
0, 0
0, 0
0, 0
0, 0
0, 0
0, 0
0, 0
0, 0
0, 0
0, 0
0, 0
0, 0
0, 0
0, 0
0, 0
0, 0
0, 0
0, 0
0, 0
0, 0
0, 0
0, 0
0, 0
0, 0
0, 0
0, 0
0, 0
0, 0
0, 0
0, 0
0, 0
0, 0
0, 0
0, 0
0, 0
0, 0
0, 0
0, 0
0, 0
0, 0
0, 0
0, 0
0, 0
0, 0
0, 0
0, 0
0, 0
0, 0
0, 0
0, 0
0, 0
0, 0
0, 0
0, 0
0, 0
0, 0
0, 0
0, 0
0, 0
0, 0
0, 0
0, 0
0, 0
0, 0
0, 0
0, 0
0, 0
0, 0
0, 0
0, 0
0, 0
0, 0
0, 0
0, 0
0, 0
0, 0
0, 0
0, 0
0, 0
0, 0
0, 0
0, 0
0, 0
0, 0
0, 0
0, 0
0, 0
0, 0
0, 0
0, 0
0, 0
0, 0
0, 0
0, 0
0, 0
0, 0
0, 0
0, 0
0, 0
0, 0
0, 0
0, 0
0, 0
0, 0
0, 0
0, 0
0, 0
0, 0
0, 0
0, 0
0, 0
0, 0
0, 0
0, 0
0, 0
0, 0
0, 0
0, 0
0, 0
0, 0
0, 0
0, 0
0, 0
0, 0
0, 0
0, 0
0, 0
0, 0
0, 0
0, 0
0, 0
0, 0
0, 0
0, 0
0, 0
0, 0
0, 0
0, 0
0, 0
0, 0
0, 0
0, 0
0, 0
0, 0
0, 0
0, 0
0, 0
0, 0
0, 0
0, 0
0, 0
0, 0
0, 0
0, 0
0, 0
0, 0
0, 0
0, 0
0, 0
0, 0
0, 0
0, 0
0, 0
0, 0
0, 0
0, 0
0, 0
0, 0
0, 0
0, 0
0, 0
0, 0
0, 0
0, 0
0, 0
0, 0
0, 0
0, 0
0, 0
0, 0
0, 0
0, 0
0, 0
0, 0
0, 0
0, 0
0, 0
0, 0
0, 0
0, 0
0, 0
0, 0
0, 0
0, 0
0, 0
0, 0
0, 0
0, 0
0, 0
0, 0
0, 0
0, 0
0, 0
0, 0
0, 0
0, 0
0, 0
0, 0
0, 0
0, 0
0, 0
0, 0
0, 0
0, 0
0, 0
0, 0
0, 0
0, 0
0, 0
0, 0
0, 0
0, 0
0, 0
0, 0
0, 0
0, 0
0, 0
0, 0
0, 0
0, 0
0, 0
0, 0
0, 0
0, 0
0, 0
0, 0
0, 0
0, 0
0, 0
0, 0
0, 0
0, 0
0, 0
0, 0
0, 0
0, 0
0, 0
0, 0
0, 0
0, 0
0, 0
0, 0
0, 0
0, 0
0, 0
0, 0
0, 0
0, 0
0, 0
0, 0
0, 0
0, 0
0, 0
0, 0
0, 0
0, 0
0, 0
0, 0
0, 0
0, 0
0, 0
0, 0
0, 0
0, 0
0, 0
0, 0
0, 0
0, 0
0, 0
0, 0
0, 0
0, 0
0, 0
0, 0
0, 0
0, 0
0, 0
0, 0
0, 0
0, 0
0, 0
0, 0
0, 0
0, 0
0, 0
0, 0
0, 0
0, 0
0, 0
0, 0
0, 0
0, 0
0, 0
0, 0
0, 0
0, 0
0, 0
0, 0
0, 0
0, 0
0, 0
0, 0
0, 0
0, 0
0, 0
0, 0
0, 0
0, 0
0, 0
0, 0
0, 0
0, 0
0, 0
0, 0
0, 0
0, 0
0, 0
0, 0
0, 0
0, 0
0, 0
0, 0
0, 0
0, 0
0, 0
0, 0
0, 0
0, 0
0, 0
0, 0
0, 0
0, 0
0, 0
#ENDOFDATA     end of spectrum data