File: host_upload/06-09-2024/ps_0852/dump3/ps__0852shot_2035.msa
#FORMAT      : EMSA/MAS spectral data file
#VERSION     : TC202v2.0 PIXL
#TITLE       : N/A
#DATE        :       Date in the format DD-MMM-YYYY, for example 07-JUL-2010
#TIME        :             The time of day at which the spectrum was recorded, in 24-hour format
#OWNER       : PIXL Flight Model       (PIXL will use this to indicate which instrument took the data.)
#NPOINTS     : 4096     Number of data points in the spectrum (This can be zero for configuration only files)
#NCOLUMNS    : 2     Number of data columns in the spectrum (This can be zero for configuration only files)
#XUNITS      : eV
#YUNITS      : COUNTS
#DATATYPE    : YY
#XPERCHAN    : 7.862, 7.881   eV per channel (separate by commas if more than one detector)
#OFFSET      : 18.5, -22.4         eV of first channel  (separate by commas if more than one detector
#SIGNALTYPE  : XRF
#YP_TEMP     : 2.3
#LIVETIME    : 8.55599, 8.55957   seconds (separate by commas if more than one detector)
#REALTIME    : 10, 10.0   seconds (separate by commas if more than one detector)
#SPECTRUM    : start of spectrum data
0, 0
0, 0
0, 0
0, 0
0, 0
0, 0
0, 0
0, 0
0, 0
0, 0
0, 0
0, 0
0, 0
0, 0
0, 0
0, 0
0, 0
0, 0
0, 0
0, 0
0, 0
0, 0
0, 0
0, 0
0, 0
0, 0
0, 0
0, 0
0, 0
0, 0
0, 0
0, 0
0, 0
1, 0
1, 0
0, 0
0, 0
0, 0
3, 0
1, 1
0, 0
2, 1
0, 2
0, 3
1, 2
3, 0
3, 5
3, 3
9, 10
18, 11
17, 22
39, 29
45, 52
64, 56
72, 64
75, 43
58, 44
52, 29
29, 23
20, 10
8, 3
3, 5
4, 4
3, 6
8, 4
4, 4
7, 4
5, 7
26, 23
41, 54
104, 85
166, 156
257, 234
349, 332
451, 374
456, 370
374, 347
294, 266
212, 157
113, 95
66, 57
45, 32
30, 19
10, 10
13, 9
11, 6
6, 8
5, 3
4, 6
4, 2
4, 2
2, 1
3, 2
1, 2
2, 2
4, 4
3, 4
4, 1
1, 6
4, 0
5, 8
7, 4
3, 2
1, 6
3, 3
6, 7
5, 6
15, 8
10, 12
21, 30
27, 35
39, 33
45, 63
52, 75
64, 53
63, 42
55, 45
51, 42
44, 42
56, 38
56, 26
30, 23
18, 20
35, 23
22, 20
21, 11
22, 8
9, 7
15, 11
11, 10
8, 5
3, 8
7, 6
6, 3
4, 2
1, 1
2, 2
1, 0
3, 4
2, 4
2, 1
5, 1
2, 5
5, 1
1, 1
0, 1
1, 6
2, 4
5, 5
6, 14
0, 13
2, 18
6, 25
6, 27
11, 35
17, 23
27, 36
23, 31
19, 17
23, 21
15, 11
9, 13
5, 13
7, 4
5, 5
2, 2
1, 2
7, 4
6, 6
7, 3
2, 6
3, 6
1, 7
3, 4
9, 7
5, 4
8, 10
5, 10
3, 8
2, 11
2, 8
7, 10
7, 9
3, 5
5, 5
7, 3
4, 6
9, 4
10, 2
8, 3
6, 8
8, 7
16, 3
19, 11
8, 12
16, 10
12, 11
17, 13
19, 12
16, 15
15, 12
11, 12
11, 8
7, 5
5, 7
8, 4
6, 7
3, 4
12, 3
1, 8
7, 9
5, 10
12, 8
7, 8
7, 12
4, 12
6, 4
7, 6
7, 8
5, 7
5, 5
4, 13
12, 7
6, 8
1, 17
6, 18
13, 12
10, 11
11, 16
16, 20
16, 18
12, 21
17, 22
21, 34
20, 36
25, 21
32, 37
45, 24
69, 20
79, 15
105, 16
100, 15
119, 12
124, 18
105, 24
106, 26
84, 32
90, 28
88, 45
86, 42
59, 65
67, 52
54, 42
53, 52
38, 31
29, 34
32, 21
24, 25
20, 21
19, 11
19, 17
35, 35
48, 67
94, 94
169, 206
293, 284
518, 595
768, 909
1057, 1222
1541, 1602
2039, 1971
2329, 2228
2518, 2272
2407, 2108
2141, 1752
1754, 1435
1304, 1069
952, 708
581, 409
378, 264
212, 137
117, 75
58, 47
41, 27
11, 18
17, 14
17, 15
11, 12
18, 21
20, 36
20, 37
39, 43
53, 54
87, 97
94, 120
148, 168
194, 217
259, 290
290, 294
371, 319
368, 298
336, 310
313, 242
268, 215
199, 147
152, 106
99, 55
58, 37
38, 21
16, 16
9, 7
10, 12
10, 11
10, 15
12, 18
11, 11
9, 9
15, 5
12, 10
9, 11
16, 15
7, 8
11, 4
7, 5
4, 5
12, 2
8, 2
4, 4
9, 3
3, 3
2, 4
7, 3
3, 4
2, 2
7, 2
11, 4
10, 2
4, 4
4, 2
5, 5
6, 4
6, 7
6, 1
5, 7
6, 4
5, 5
4, 4
5, 9
4, 4
3, 9
7, 2
6, 5
5, 4
3, 4
4, 7
4, 9
7, 8
3, 2
4, 6
7, 1
1, 4
4, 6
4, 5
5, 6
5, 1
5, 8
6, 6
8, 7
5, 8
4, 10
5, 4
3, 7
3, 8
1, 8
1, 10
4, 8
5, 9
3, 5
2, 14
5, 3
8, 3
8, 0
11, 2
12, 2
7, 5
9, 4
15, 4
10, 2
15, 1
7, 1
4, 2
6, 3
7, 2
6, 1
3, 4
4, 2
3, 0
1, 5
1, 6
5, 3
4, 3
1, 7
6, 7
2, 4
2, 8
5, 1
6, 2
3, 0
3, 5
3, 4
4, 3
2, 3
4, 2
2, 5
4, 6
4, 9
3, 6
3, 9
4, 9
4, 13
8, 7
5, 7
5, 11
5, 10
2, 11
3, 6
3, 11
4, 4
8, 2
7, 8
4, 5
4, 6
2, 5
2, 4
2, 4
2, 8
2, 2
6, 1
3, 5
2, 1
2, 8
3, 4
3, 1
4, 2
3, 3
3, 2
3, 4
2, 3
1, 5
2, 4
2, 4
1, 2
2, 3
1, 2
3, 0
3, 5
1, 2
4, 1
4, 1
1, 0
1, 0
7, 2
5, 3
1, 6
1, 4
1, 2
0, 3
2, 5
1, 4
3, 4
4, 3
5, 0
3, 3
3, 1
3, 4
0, 2
3, 2
1, 6
6, 1
2, 0
5, 2
6, 5
2, 0
5, 6
5, 5
9, 4
11, 1
4, 5
8, 1
3, 3
5, 2
3, 4
3, 5
5, 1
5, 1
1, 2
2, 1
1, 2
0, 0
1, 0
1, 3
2, 1
0, 2
2, 1
2, 2
0, 2
2, 1
1, 0
3, 2
2, 2
2, 0
1, 4
3, 2
1, 0
0, 1
0, 3
0, 1
2, 1
1, 2
1, 2
3, 1
1, 2
2, 1
3, 2
4, 2
1, 1
2, 0
1, 2
0, 0
2, 0
2, 3
3, 5
3, 2
5, 1
5, 1
8, 2
1, 3
3, 1
5, 3
8, 0
6, 2
8, 2
4, 5
1, 4
5, 3
3, 0
4, 1
2, 1
1, 2
2, 0
2, 5
1, 2
2, 3
3, 1
0, 2
2, 1
2, 2
2, 0
4, 3
2, 0
5, 1
0, 2
1, 3
1, 1
6, 1
1, 1
1, 0
1, 1
2, 1
0, 4
1, 2
2, 2
4, 0
1, 2
2, 2
3, 2
1, 1
5, 3
2, 1
3, 0
2, 2
0, 0
1, 2
0, 1
3, 2
0, 0
1, 0
4, 1
3, 1
0, 2
0, 2
1, 0
1, 0
2, 2
6, 0
1, 0
3, 2
0, 1
3, 4
0, 0
1, 1
1, 2
0, 0
0, 0
1, 0
3, 0
0, 0
2, 2
1, 0
0, 0
2, 2
0, 0
0, 0
0, 0
1, 0
0, 0
1, 0
2, 0
0, 0
0, 1
0, 2
0, 2
1, 0
1, 1
0, 0
0, 1
0, 1
1, 2
0, 0
2, 0
1, 0
2, 0
1, 0
0, 0
0, 0
0, 0
0, 1
0, 0
2, 0
1, 2
0, 0
0, 0
1, 1
0, 0
1, 0
0, 1
1, 0
0, 1
0, 1
0, 0
0, 0
1, 0
0, 0
1, 0
0, 0
1, 3
1, 0
0, 0
0, 1
0, 0
0, 0
0, 0
0, 1
2, 1
0, 0
0, 2
1, 1
0, 0
1, 0
1, 0
1, 0
0, 0
0, 1
1, 0
0, 0
0, 0
0, 1
0, 0
1, 0
1, 0
0, 0
0, 1
0, 1
1, 1
1, 0
0, 0
0, 0
0, 1
0, 0
0, 0
0, 0
0, 0
1, 1
0, 1
0, 0
1, 0
0, 0
1, 1
0, 0
0, 3
1, 0
0, 0
0, 1
0, 1
2, 1
0, 0
1, 0
0, 0
1, 1
0, 1
0, 2
1, 0
1, 0
0, 0
0, 0
0, 0
2, 0
1, 0
0, 0
1, 1
0, 0
0, 0
0, 2
1, 0
1, 0
0, 0
0, 0
0, 0
0, 0
3, 0
0, 0
0, 1
0, 1
0, 0
0, 0
0, 0
0, 1
0, 1
2, 0
0, 0
0, 0
0, 0
0, 0
0, 0
0, 0
0, 0
0, 1
0, 0
0, 0
0, 0
1, 0
1, 0
0, 0
1, 1
1, 0
0, 0
1, 0
0, 0
0, 0
0, 0
0, 2
0, 0
1, 2
1, 0
0, 0
1, 0
0, 0
1, 1
0, 0
1, 0
0, 0
1, 0
0, 0
0, 0
0, 0
0, 0
0, 0
1, 1
0, 0
0, 0
0, 1
1, 0
2, 0
0, 0
0, 0
0, 0
0, 0
0, 0
0, 0
0, 0
0, 0
1, 0
1, 1
0, 1
0, 0
0, 0
0, 0
0, 1
0, 0
0, 0
0, 0
1, 0
0, 0
0, 0
0, 0
0, 0
0, 0
1, 0
0, 0
0, 0
0, 1
0, 1
0, 0
0, 0
0, 0
0, 0
0, 0
1, 1
0, 0
0, 1
0, 1
2, 0
0, 0
0, 0
0, 0
2, 1
0, 0
1, 0
0, 0
0, 0
0, 0
0, 0
0, 0
0, 1
0, 0
0, 1
0, 0
0, 0
0, 0
0, 0
1, 0
1, 0
0, 0
0, 0
0, 0
0, 1
0, 0
0, 0
0, 0
0, 1
0, 0
0, 0
1, 0
0, 0
0, 0
0, 1
0, 0
0, 0
0, 0
0, 0
0, 0
0, 1
0, 1
0, 1
0, 0
0, 0
0, 0
0, 0
0, 0
0, 0
0, 0
0, 0
0, 0
0, 0
0, 0
0, 0
0, 0
0, 1
1, 0
1, 0
0, 0
1, 0
0, 0
0, 0
0, 0
0, 0
0, 0
0, 0
0, 0
0, 0
0, 0
2, 0
0, 0
0, 0
0, 1
1, 0
0, 0
0, 0
0, 0
0, 0
0, 0
0, 0
0, 0
1, 0
0, 0
0, 0
0, 0
0, 0
0, 0
0, 0
0, 0
0, 0
0, 0
0, 0
0, 0
0, 1
0, 0
0, 0
0, 0
0, 0
0, 0
0, 0
0, 0
0, 0
1, 0
0, 0
0, 0
0, 0
0, 0
0, 0
0, 0
0, 0
0, 0
0, 0
0, 0
0, 0
0, 0
0, 0
0, 0
0, 0
0, 0
1, 0
0, 0
0, 0
0, 0
0, 0
0, 0
0, 0
0, 0
0, 0
0, 0
0, 0
0, 0
0, 0
0, 0
0, 0
0, 0
0, 0
0, 0
0, 0
0, 0
1, 0
0, 1
0, 0
0, 0
1, 0
0, 0
0, 0
0, 0
0, 0
0, 0
0, 0
0, 0
0, 0
0, 0
0, 0
0, 0
0, 0
0, 0
0, 0
0, 0
0, 0
0, 0
0, 0
0, 0
0, 0
0, 0
0, 0
0, 0
0, 0
0, 0
0, 0
0, 0
0, 0
0, 0
1, 0
0, 0
0, 0
0, 0
0, 0
0, 0
0, 0
0, 0
0, 0
0, 0
1, 0
0, 0
0, 0
0, 0
0, 0
0, 0
0, 0
0, 0
0, 0
0, 0
0, 0
0, 0
0, 0
0, 0
0, 0
0, 0
0, 0
0, 0
0, 0
0, 0
0, 0
0, 1
0, 0
0, 0
0, 0
0, 0
0, 0
0, 0
0, 0
0, 0
0, 0
0, 0
0, 0
0, 0
0, 0
0, 0
0, 0
0, 0
0, 0
0, 0
0, 0
0, 0
0, 0
0, 0
0, 0
0, 0
0, 0
0, 0
0, 0
0, 0
0, 0
0, 0
0, 0
0, 0
0, 0
0, 0
0, 0
0, 0
0, 0
0, 0
0, 0
0, 0
0, 0
0, 0
0, 0
0, 0
0, 0
0, 0
0, 0
0, 0
0, 0
0, 0
0, 0
0, 0
0, 0
0, 0
0, 0
0, 0
0, 0
0, 0
0, 0
0, 0
0, 0
0, 0
0, 0
0, 0
0, 0
0, 0
0, 0
0, 0
0, 0
0, 0
0, 0
0, 0
0, 0
0, 0
0, 0
0, 0
0, 0
0, 0
0, 0
0, 0
0, 0
0, 0
0, 0
0, 0
0, 0
0, 0
0, 0
0, 0
0, 0
0, 0
0, 0
0, 0
0, 0
0, 0
0, 0
0, 0
0, 0
0, 0
0, 0
0, 0
0, 0
0, 0
0, 0
0, 0
0, 0
0, 0
0, 0
0, 0
0, 0
0, 0
0, 0
0, 0
0, 0
0, 0
0, 0
0, 0
0, 0
0, 0
0, 0
0, 0
0, 0
0, 0
0, 0
0, 0
0, 0
0, 0
0, 0
0, 0
0, 0
0, 0
0, 0
0, 0
0, 0
0, 0
0, 0
0, 0
0, 0
0, 0
0, 0
0, 0
0, 0
0, 0
0, 0
0, 0
0, 0
0, 0
0, 0
0, 0
0, 0
0, 0
0, 0
0, 0
0, 0
0, 0
0, 0
0, 0
0, 0
0, 0
0, 0
0, 0
0, 0
0, 0
0, 0
0, 0
0, 0
0, 0
0, 0
0, 0
0, 0
0, 0
0, 0
0, 0
0, 0
0, 0
0, 0
0, 0
0, 0
0, 0
0, 0
0, 0
0, 0
0, 0
0, 0
0, 0
0, 0
0, 0
0, 0
0, 0
0, 0
0, 0
0, 0
0, 0
0, 0
0, 0
0, 0
0, 0
0, 0
0, 0
0, 0
0, 0
0, 0
0, 0
0, 0
0, 0
0, 0
0, 0
0, 0
0, 0
0, 0
0, 0
0, 0
0, 0
0, 0
0, 0
0, 0
0, 0
0, 0
0, 0
0, 0
0, 0
0, 0
0, 0
0, 0
0, 0
0, 0
0, 0
0, 0
0, 0
0, 0
0, 0
0, 0
0, 0
0, 0
0, 0
0, 0
0, 0
0, 0
0, 0
0, 0
0, 0
0, 0
0, 0
0, 0
0, 0
0, 0
0, 0
0, 0
0, 0
0, 0
0, 0
0, 0
0, 0
0, 0
0, 0
0, 0
0, 0
0, 0
0, 0
0, 0
0, 0
0, 0
0, 0
0, 0
0, 0
0, 0
0, 0
0, 0
0, 0
0, 0
0, 0
0, 0
0, 0
0, 0
0, 0
0, 0
0, 0
0, 0
0, 0
0, 0
0, 0
0, 0
0, 0
0, 0
0, 0
0, 0
0, 0
0, 0
0, 0
0, 0
0, 0
0, 0
0, 0
0, 0
0, 0
0, 0
0, 0
0, 0
0, 0
0, 0
0, 0
0, 0
0, 0
0, 0
0, 0
0, 0
0, 0
0, 0
0, 0
0, 0
0, 0
0, 0
0, 0
0, 0
0, 0
0, 0
0, 0
0, 0
0, 0
0, 0
0, 0
0, 0
0, 0
0, 0
0, 0
0, 0
0, 0
0, 0
0, 0
0, 0
0, 0
0, 0
0, 0
0, 0
0, 0
0, 0
0, 0
0, 0
0, 0
0, 0
#ENDOFDATA     end of spectrum data