File: host_upload/06-09-2024/ps_0852/dump3/ps__0852shot_2025.msa
#FORMAT      : EMSA/MAS spectral data file
#VERSION     : TC202v2.0 PIXL
#TITLE       : N/A
#DATE        :       Date in the format DD-MMM-YYYY, for example 07-JUL-2010
#TIME        :             The time of day at which the spectrum was recorded, in 24-hour format
#OWNER       : PIXL Flight Model       (PIXL will use this to indicate which instrument took the data.)
#NPOINTS     : 4096     Number of data points in the spectrum (This can be zero for configuration only files)
#NCOLUMNS    : 2     Number of data columns in the spectrum (This can be zero for configuration only files)
#XUNITS      : eV
#YUNITS      : COUNTS
#DATATYPE    : YY
#XPERCHAN    : 7.862, 7.881   eV per channel (separate by commas if more than one detector)
#OFFSET      : 18.5, -22.4         eV of first channel  (separate by commas if more than one detector
#SIGNALTYPE  : XRF
#YP_TEMP     : 2.428
#LIVETIME    : 8.5581, 8.56648   seconds (separate by commas if more than one detector)
#REALTIME    : 10, 10.0   seconds (separate by commas if more than one detector)
#SPECTRUM    : start of spectrum data
0, 0
0, 0
0, 0
0, 0
0, 0
0, 0
0, 0
0, 0
0, 0
0, 0
0, 0
0, 0
0, 0
0, 0
0, 0
0, 0
0, 0
0, 0
0, 0
0, 0
0, 0
0, 0
0, 0
0, 0
0, 0
0, 0
0, 0
0, 0
0, 0
0, 0
0, 0
0, 0
0, 1
0, 0
0, 0
0, 0
0, 0
1, 0
0, 1
0, 0
0, 1
3, 1
3, 0
1, 2
1, 0
0, 2
2, 3
6, 4
7, 10
10, 12
33, 17
44, 40
62, 53
61, 79
84, 84
72, 66
49, 60
31, 35
21, 24
15, 16
13, 8
9, 5
4, 3
5, 6
1, 5
4, 4
11, 11
13, 16
23, 29
47, 48
102, 99
179, 169
233, 271
333, 353
377, 417
374, 414
370, 378
275, 286
206, 192
151, 116
84, 83
37, 30
23, 21
11, 7
3, 3
7, 3
0, 2
2, 1
2, 3
2, 0
2, 0
1, 0
2, 1
2, 0
1, 1
5, 2
5, 6
9, 2
2, 4
2, 1
3, 4
6, 5
4, 1
5, 2
1, 0
2, 5
4, 6
8, 8
10, 9
17, 15
23, 23
38, 42
39, 46
51, 49
73, 57
61, 63
66, 52
47, 58
48, 37
42, 30
28, 33
24, 29
18, 26
16, 17
18, 9
24, 6
12, 13
19, 14
10, 13
6, 5
8, 7
3, 4
9, 1
4, 1
5, 4
4, 3
4, 2
4, 1
1, 1
1, 5
5, 1
4, 5
2, 0
0, 4
0, 2
3, 3
0, 2
3, 8
2, 23
2, 22
1, 45
1, 55
3, 90
12, 80
8, 96
11, 89
10, 83
16, 70
18, 44
12, 32
12, 20
3, 18
10, 10
6, 5
4, 4
5, 7
10, 2
9, 6
9, 5
12, 1
12, 2
20, 5
14, 8
11, 5
8, 6
5, 3
8, 3
5, 4
5, 6
5, 6
5, 2
8, 2
6, 4
15, 5
14, 3
20, 2
16, 4
5, 2
17, 6
19, 4
15, 9
13, 14
7, 13
7, 6
9, 12
14, 10
19, 16
12, 15
15, 8
14, 8
13, 10
12, 11
11, 3
10, 11
13, 4
4, 4
8, 3
3, 2
2, 9
9, 6
6, 13
9, 10
4, 5
6, 7
3, 3
3, 6
4, 9
4, 6
8, 6
6, 11
10, 6
6, 9
7, 12
8, 7
8, 9
6, 2
11, 11
7, 14
11, 13
8, 20
8, 19
10, 26
13, 29
12, 41
9, 23
11, 42
17, 26
20, 33
21, 30
26, 17
27, 15
27, 20
27, 22
44, 20
48, 27
50, 28
66, 33
68, 40
59, 52
68, 62
79, 57
58, 64
77, 64
42, 61
47, 55
44, 30
24, 21
30, 19
25, 18
25, 22
24, 30
34, 42
53, 62
91, 120
134, 226
284, 359
483, 584
672, 951
1128, 1377
1533, 1716
2024, 2144
2108, 2318
2238, 2482
2274, 2254
1986, 1861
1696, 1496
1393, 1064
920, 696
625, 445
399, 266
218, 149
106, 96
49, 44
44, 25
18, 23
13, 21
13, 22
17, 22
15, 18
12, 26
29, 36
23, 40
32, 53
77, 87
105, 122
169, 196
196, 253
251, 271
256, 329
338, 341
362, 354
329, 356
279, 277
256, 219
194, 157
117, 117
101, 69
59, 35
44, 33
23, 29
11, 6
19, 11
16, 12
20, 7
12, 14
13, 12
18, 11
20, 12
12, 19
15, 11
9, 7
9, 11
7, 11
6, 9
4, 8
7, 4
4, 9
4, 4
4, 5
2, 5
1, 3
1, 1
5, 3
4, 5
1, 4
2, 4
3, 6
5, 5
9, 2
7, 4
7, 6
11, 9
8, 4
10, 9
8, 9
10, 9
8, 16
8, 11
10, 8
5, 12
8, 8
7, 12
7, 4
5, 4
11, 8
3, 5
5, 4
5, 7
8, 11
10, 7
4, 2
6, 5
6, 7
7, 6
8, 13
4, 13
3, 11
11, 12
4, 14
9, 12
5, 11
6, 3
7, 10
9, 9
4, 6
4, 11
3, 7
6, 2
4, 3
4, 3
6, 2
3, 4
3, 4
7, 5
6, 6
4, 2
6, 7
9, 1
7, 7
5, 3
7, 8
12, 3
7, 10
8, 8
9, 12
8, 12
3, 14
4, 15
3, 8
3, 17
2, 14
3, 13
3, 13
3, 6
3, 5
3, 6
5, 2
3, 2
5, 2
4, 1
4, 6
4, 5
2, 2
4, 1
1, 1
6, 2
3, 2
2, 4
11, 4
7, 5
4, 3
2, 3
2, 2
7, 2
1, 5
3, 2
4, 2
2, 2
3, 3
2, 1
4, 0
5, 2
2, 3
2, 1
1, 2
5, 5
4, 2
4, 2
1, 1
3, 3
4, 0
1, 1
3, 4
1, 0
2, 3
2, 5
4, 5
1, 2
1, 1
1, 7
2, 2
1, 4
4, 1
1, 2
6, 1
1, 5
3, 2
2, 1
1, 3
3, 1
3, 1
0, 3
1, 2
2, 3
1, 3
3, 1
3, 2
2, 3
5, 5
3, 2
3, 3
2, 6
1, 2
3, 5
6, 4
1, 3
1, 6
2, 5
1, 5
3, 4
4, 3
1, 3
6, 2
5, 1
2, 2
2, 2
5, 3
5, 2
7, 3
2, 5
3, 2
1, 7
4, 3
1, 1
2, 1
4, 3
2, 4
2, 4
2, 5
1, 3
5, 1
2, 4
3, 1
1, 1
2, 1
2, 4
3, 6
9, 1
3, 6
4, 6
0, 1
7, 2
0, 1
2, 2
2, 6
2, 1
3, 1
3, 1
2, 4
1, 1
2, 6
1, 3
3, 0
3, 2
1, 0
2, 1
2, 4
1, 2
1, 1
4, 1
2, 0
1, 1
4, 3
4, 1
2, 1
2, 6
3, 0
2, 3
0, 2
7, 7
2, 4
1, 5
8, 3
5, 1
4, 3
3, 5
5, 5
2, 3
4, 3
2, 1
3, 1
3, 0
1, 1
1, 2
1, 2
1, 1
2, 3
1, 2
2, 2
2, 1
1, 2
0, 0
0, 1
3, 2
3, 2
0, 1
2, 2
1, 1
2, 1
5, 1
3, 1
0, 4
2, 2
3, 4
3, 0
2, 3
2, 3
0, 1
1, 2
3, 1
1, 3
6, 1
0, 1
3, 3
1, 2
1, 3
2, 1
1, 0
2, 2
2, 1
0, 3
1, 2
1, 0
0, 0
0, 1
0, 2
4, 1
1, 1
2, 1
0, 2
0, 1
1, 0
0, 2
1, 0
1, 0
0, 0
2, 1
0, 2
0, 0
0, 1
1, 1
0, 1
0, 0
0, 3
1, 0
1, 0
2, 1
1, 2
0, 0
2, 2
0, 1
0, 1
0, 1
0, 0
1, 1
1, 0
2, 2
2, 1
1, 0
1, 1
0, 1
2, 0
1, 2
2, 2
0, 1
2, 1
1, 1
1, 4
2, 0
1, 0
2, 0
0, 1
0, 0
2, 0
0, 0
0, 0
3, 1
0, 1
0, 2
1, 0
1, 1
0, 0
1, 1
1, 0
0, 0
0, 1
0, 0
0, 0
0, 0
0, 0
1, 0
2, 0
0, 0
0, 1
1, 1
0, 2
0, 1
0, 3
0, 0
0, 0
0, 0
2, 1
1, 1
0, 1
0, 0
0, 0
3, 2
0, 0
1, 0
0, 0
0, 0
0, 0
0, 0
0, 0
2, 2
2, 0
0, 0
0, 0
2, 0
0, 0
1, 1
2, 0
2, 1
0, 0
1, 0
1, 0
0, 2
0, 1
0, 0
0, 0
0, 0
0, 1
1, 0
1, 0
0, 0
0, 0
0, 0
1, 1
0, 0
0, 1
0, 0
1, 0
0, 0
1, 1
0, 0
0, 1
0, 0
1, 0
0, 0
0, 0
0, 0
0, 0
0, 1
0, 0
1, 2
0, 0
0, 0
1, 0
0, 1
0, 2
0, 0
0, 0
0, 1
0, 1
1, 0
0, 1
0, 0
0, 1
0, 1
0, 0
0, 0
0, 0
0, 1
0, 0
0, 0
0, 0
0, 0
0, 1
0, 0
0, 0
0, 0
1, 0
0, 0
1, 0
0, 0
0, 0
0, 0
1, 1
1, 0
0, 1
0, 1
0, 0
0, 0
1, 0
0, 0
0, 0
0, 0
1, 1
0, 0
0, 0
0, 1
1, 0
0, 0
0, 0
0, 0
0, 1
0, 0
1, 0
1, 0
0, 0
0, 1
1, 0
0, 0
0, 0
0, 1
0, 1
1, 0
1, 0
0, 0
0, 0
0, 1
0, 0
0, 1
0, 0
0, 0
0, 0
0, 0
0, 0
0, 0
0, 0
2, 0
0, 0
0, 1
0, 0
0, 0
0, 0
0, 0
1, 0
0, 1
0, 0
0, 0
1, 0
0, 0
0, 0
1, 0
0, 0
0, 0
0, 0
0, 0
0, 0
0, 0
0, 0
0, 1
0, 0
0, 0
0, 0
0, 0
0, 0
0, 0
1, 0
0, 0
0, 1
0, 0
0, 0
0, 0
0, 0
0, 0
0, 0
1, 0
0, 0
0, 0
0, 0
0, 0
0, 0
0, 0
0, 0
0, 0
0, 0
0, 3
0, 0
0, 0
0, 0
0, 0
0, 0
0, 0
0, 0
0, 0
1, 0
0, 0
0, 0
0, 0
0, 0
0, 0
0, 0
0, 1
0, 0
0, 0
0, 0
0, 0
0, 0
0, 0
0, 0
0, 1
0, 0
1, 0
0, 0
0, 0
0, 0
0, 0
1, 0
0, 2
0, 0
0, 0
0, 0
0, 0
0, 0
0, 0
0, 0
0, 0
0, 0
1, 0
0, 0
0, 0
0, 0
0, 0
0, 0
0, 0
0, 0
0, 0
0, 0
0, 0
0, 0
0, 0
0, 0
0, 0
0, 0
0, 0
0, 0
0, 0
0, 0
0, 1
0, 0
0, 0
0, 0
0, 0
0, 0
0, 0
0, 0
0, 0
0, 0
0, 0
0, 0
0, 0
0, 0
0, 0
0, 0
0, 0
0, 0
0, 0
0, 0
0, 0
0, 0
0, 0
0, 0
0, 0
0, 0
0, 0
1, 0
0, 0
0, 1
0, 0
0, 0
0, 0
0, 0
0, 0
0, 0
0, 0
0, 0
0, 0
0, 0
0, 0
0, 0
0, 0
0, 0
0, 0
0, 0
0, 0
0, 0
0, 0
0, 0
0, 0
0, 0
0, 0
0, 0
0, 0
0, 0
0, 0
0, 0
0, 0
0, 0
0, 0
0, 0
0, 0
0, 0
0, 0
0, 0
0, 0
0, 0
0, 0
0, 0
0, 1
0, 0
0, 0
0, 0
1, 0
0, 0
0, 0
0, 0
0, 0
0, 0
0, 0
0, 0
0, 0
0, 0
0, 0
0, 0
0, 0
0, 0
0, 0
0, 0
0, 0
1, 0
0, 0
0, 0
0, 0
0, 0
0, 0
0, 0
0, 0
0, 0
0, 0
0, 0
0, 0
0, 0
0, 0
0, 0
0, 0
0, 0
0, 0
0, 0
0, 0
0, 0
0, 0
0, 0
0, 0
0, 0
0, 0
0, 0
0, 0
0, 0
0, 0
0, 0
0, 0
0, 0
0, 0
0, 0
0, 0
0, 0
0, 0
0, 0
0, 0
0, 0
0, 0
0, 0
0, 0
0, 0
0, 0
0, 0
0, 0
0, 0
0, 0
1, 0
1, 0
0, 0
0, 0
0, 0
0, 0
0, 0
0, 0
0, 0
0, 0
0, 0
0, 0
0, 0
0, 0
0, 0
0, 0
0, 0
0, 0
0, 0
0, 0
0, 0
0, 0
0, 0
0, 0
0, 0
0, 0
0, 0
0, 0
0, 0
0, 0
0, 0
0, 0
0, 0
0, 0
0, 0
0, 0
0, 0
0, 0
0, 0
0, 0
0, 0
0, 0
0, 0
0, 0
0, 0
0, 0
0, 0
0, 0
0, 0
0, 0
0, 0
0, 0
0, 0
0, 0
0, 0
0, 0
0, 0
0, 0
0, 0
0, 0
0, 0
0, 0
0, 0
0, 0
0, 0
0, 0
0, 0
0, 0
0, 0
0, 0
0, 0
0, 0
0, 0
0, 0
0, 0
0, 0
0, 0
0, 0
0, 0
0, 0
0, 0
0, 0
0, 0
0, 0
0, 0
0, 0
0, 0
0, 0
0, 0
0, 0
0, 0
0, 0
0, 0
0, 0
0, 0
0, 0
0, 0
0, 0
0, 0
0, 0
0, 0
0, 0
0, 0
0, 0
0, 0
0, 0
0, 0
0, 0
0, 0
0, 0
0, 0
0, 0
0, 0
0, 0
0, 0
0, 0
0, 0
0, 0
0, 0
0, 0
0, 0
0, 0
0, 0
0, 0
0, 0
0, 0
0, 0
0, 0
0, 0
0, 0
0, 0
0, 0
0, 0
0, 0
0, 0
0, 0
0, 0
0, 0
0, 0
0, 0
0, 0
0, 0
0, 0
0, 0
0, 0
0, 0
0, 0
0, 0
0, 0
0, 0
0, 0
0, 0
0, 0
0, 0
0, 0
0, 0
0, 0
0, 0
0, 0
0, 0
0, 0
0, 0
0, 0
0, 0
0, 0
0, 0
0, 0
0, 0
0, 0
0, 0
0, 0
0, 0
0, 0
0, 0
0, 0
0, 0
0, 0
0, 0
0, 0
0, 0
0, 0
0, 0
0, 0
0, 0
0, 0
0, 0
0, 0
0, 0
0, 0
0, 0
0, 0
0, 0
0, 0
0, 0
0, 0
0, 0
0, 0
0, 0
0, 0
0, 0
0, 0
0, 0
0, 0
0, 0
0, 0
0, 0
0, 0
0, 0
0, 0
0, 0
0, 0
0, 0
0, 0
0, 0
0, 0
0, 0
0, 0
0, 0
0, 0
0, 0
0, 0
0, 0
0, 0
0, 0
0, 0
0, 0
0, 0
0, 0
0, 0
0, 0
0, 0
0, 0
0, 0
0, 0
0, 0
0, 0
0, 0
0, 0
0, 0
0, 0
0, 0
0, 0
0, 0
0, 0
0, 0
0, 0
0, 0
0, 0
0, 0
0, 0
0, 0
0, 0
0, 0
0, 0
0, 0
0, 0
0, 0
0, 0
0, 0
0, 0
0, 0
0, 0
0, 0
0, 0
0, 0
0, 0
0, 0
0, 0
0, 0
0, 0
0, 0
0, 0
0, 0
0, 0
0, 0
0, 0
0, 0
0, 0
0, 0
0, 0
0, 0
0, 0
0, 0
0, 0
0, 0
0, 0
0, 0
0, 0
0, 0
0, 0
0, 0
0, 0
0, 0
0, 0
0, 0
0, 0
0, 0
0, 0
0, 0
0, 0
0, 0
0, 0
0, 0
0, 0
0, 0
0, 0
0, 0
0, 0
0, 0
0, 0
0, 0
0, 0
0, 0
0, 0
0, 0
#ENDOFDATA     end of spectrum data