File: host_upload/06-09-2024/ps_0852/dump3/ps__0852shot_2342.msa
#FORMAT      : EMSA/MAS spectral data file
#VERSION     : TC202v2.0 PIXL
#TITLE       : N/A
#DATE        :       Date in the format DD-MMM-YYYY, for example 07-JUL-2010
#TIME        :             The time of day at which the spectrum was recorded, in 24-hour format
#OWNER       : PIXL Flight Model       (PIXL will use this to indicate which instrument took the data.)
#NPOINTS     : 4096     Number of data points in the spectrum (This can be zero for configuration only files)
#NCOLUMNS    : 2     Number of data columns in the spectrum (This can be zero for configuration only files)
#XUNITS      : eV
#YUNITS      : COUNTS
#DATATYPE    : YY
#XPERCHAN    : 7.862, 7.881   eV per channel (separate by commas if more than one detector)
#OFFSET      : 18.5, -22.4         eV of first channel  (separate by commas if more than one detector
#SIGNALTYPE  : XRF
#YP_TEMP     : 2.332
#LIVETIME    : 8.5596, 8.34101   seconds (separate by commas if more than one detector)
#REALTIME    : 10, 10.0   seconds (separate by commas if more than one detector)
#SPECTRUM    : start of spectrum data
0, 0
0, 0
0, 0
0, 0
0, 0
0, 0
0, 0
0, 0
0, 0
0, 0
0, 0
0, 0
0, 0
0, 0
0, 0
0, 0
0, 0
0, 0
0, 0
0, 0
0, 0
0, 0
0, 0
0, 0
0, 0
0, 0
0, 0
0, 0
0, 0
0, 0
1, 0
0, 0
0, 0
0, 0
0, 0
1, 0
1, 1
1, 1
0, 3
6, 0
0, 2
2, 6
0, 1
5, 0
5, 2
2, 4
2, 5
1, 3
7, 9
17, 12
13, 34
36, 34
62, 60
79, 74
59, 67
80, 69
64, 63
45, 38
31, 24
11, 22
8, 5
5, 4
3, 4
5, 5
6, 2
2, 4
3, 6
15, 8
21, 18
25, 40
64, 85
145, 153
221, 274
293, 310
328, 412
317, 381
303, 331
230, 259
157, 166
96, 104
73, 58
28, 43
20, 14
11, 7
4, 7
6, 8
5, 4
3, 1
2, 1
4, 3
5, 6
11, 8
25, 27
51, 46
79, 72
125, 145
201, 210
281, 292
295, 310
300, 333
315, 294
214, 208
163, 164
112, 109
72, 69
51, 43
30, 38
33, 38
34, 27
39, 37
40, 35
58, 39
79, 62
75, 61
87, 56
101, 51
93, 54
82, 39
60, 36
38, 23
30, 18
29, 17
20, 20
27, 15
16, 25
15, 13
16, 15
13, 6
10, 12
6, 11
4, 4
5, 4
4, 2
6, 4
0, 5
5, 4
6, 5
3, 3
7, 3
5, 6
6, 8
7, 1
5, 1
7, 3
3, 4
2, 4
7, 5
4, 1
2, 2
0, 1
1, 7
7, 4
1, 8
13, 10
22, 24
18, 23
22, 27
30, 32
24, 25
15, 25
15, 16
13, 11
7, 8
5, 4
3, 3
1, 3
3, 4
4, 7
4, 3
9, 4
14, 7
9, 6
7, 10
10, 7
15, 4
12, 3
12, 3
18, 2
19, 6
17, 4
15, 3
13, 5
11, 4
13, 5
9, 1
12, 8
6, 11
10, 9
6, 12
5, 6
7, 12
11, 11
13, 12
13, 15
16, 15
15, 16
10, 7
13, 12
13, 13
14, 7
10, 7
11, 8
5, 3
2, 8
5, 5
9, 8
4, 10
10, 11
8, 10
6, 9
4, 9
10, 10
10, 10
11, 12
12, 9
7, 5
10, 10
4, 9
2, 4
2, 8
6, 4
10, 5
8, 14
7, 9
11, 10
8, 8
11, 13
12, 21
12, 8
15, 18
20, 19
20, 13
22, 22
27, 20
21, 22
27, 11
18, 20
20, 18
14, 18
12, 13
14, 20
14, 8
18, 19
36, 28
43, 25
80, 39
103, 44
107, 41
118, 59
135, 52
150, 55
132, 58
122, 65
97, 49
73, 52
40, 34
39, 28
23, 18
23, 20
17, 15
14, 23
33, 29
48, 54
71, 104
148, 168
270, 353
473, 578
723, 899
1084, 1394
1463, 1780
1865, 2134
2115, 2401
2409, 2461
2244, 2141
2097, 1919
1720, 1479
1293, 1008
886, 701
581, 435
324, 262
193, 156
99, 71
47, 36
19, 28
19, 16
13, 8
8, 9
12, 19
17, 18
15, 20
27, 24
30, 46
35, 61
85, 76
73, 126
142, 172
165, 257
261, 297
298, 312
323, 353
322, 380
347, 345
345, 258
261, 233
178, 121
150, 80
89, 70
62, 30
36, 22
19, 12
10, 7
6, 6
11, 7
14, 6
10, 8
8, 10
14, 15
10, 17
21, 19
11, 9
23, 10
21, 9
19, 5
29, 6
12, 8
25, 5
17, 6
19, 6
13, 5
9, 4
5, 2
3, 6
6, 7
4, 3
8, 3
7, 2
9, 3
6, 3
4, 5
3, 5
4, 5
5, 2
4, 7
3, 5
7, 7
8, 5
6, 6
3, 8
9, 2
8, 5
5, 5
8, 3
5, 6
3, 12
5, 5
6, 4
4, 3
5, 8
5, 3
6, 4
2, 2
4, 4
6, 7
4, 11
2, 6
4, 4
1, 7
5, 5
3, 7
4, 5
4, 4
5, 8
9, 1
4, 4
5, 4
3, 6
4, 3
8, 2
5, 6
5, 6
8, 4
5, 6
5, 4
6, 3
4, 5
3, 3
4, 4
2, 7
4, 1
3, 6
3, 4
5, 1
2, 6
4, 3
3, 2
8, 2
6, 3
13, 2
6, 4
14, 6
7, 3
7, 7
5, 3
1, 2
9, 3
4, 2
3, 5
5, 3
6, 1
7, 6
11, 5
2, 4
4, 6
6, 3
5, 5
6, 5
3, 4
3, 9
1, 6
3, 6
4, 5
4, 11
5, 4
9, 5
8, 6
6, 9
5, 5
3, 3
7, 2
1, 4
7, 5
2, 5
2, 4
3, 3
4, 7
3, 5
2, 5
3, 6
1, 1
4, 1
2, 4
6, 1
5, 6
2, 1
4, 2
2, 4
3, 3
3, 2
2, 2
2, 2
5, 3
2, 1
4, 4
0, 2
1, 4
1, 1
2, 3
0, 2
2, 4
3, 2
5, 4
4, 3
7, 1
5, 3
3, 2
6, 4
6, 1
3, 0
4, 3
3, 4
3, 2
3, 1
2, 2
4, 7
1, 6
1, 3
5, 3
6, 4
1, 1
2, 1
2, 4
2, 1
3, 3
2, 2
2, 2
2, 2
6, 4
1, 0
0, 5
6, 3
3, 4
3, 0
2, 5
7, 1
7, 4
5, 4
4, 2
4, 2
6, 2
7, 1
4, 1
7, 3
7, 1
4, 3
1, 2
0, 2
2, 4
1, 0
2, 5
0, 2
2, 1
3, 2
3, 0
3, 2
1, 0
4, 0
4, 2
2, 0
2, 0
2, 1
1, 2
0, 3
6, 2
3, 5
1, 0
3, 0
0, 5
2, 2
0, 2
2, 3
2, 1
2, 2
1, 0
0, 2
3, 2
2, 1
1, 2
3, 3
5, 1
2, 2
6, 4
5, 3
4, 4
6, 4
4, 4
5, 6
1, 2
1, 1
4, 1
1, 5
0, 2
0, 1
1, 1
1, 1
1, 0
1, 0
2, 2
2, 2
1, 0
2, 2
2, 2
0, 1
0, 2
1, 3
0, 3
4, 2
2, 1
0, 1
3, 4
2, 2
4, 5
3, 0
2, 1
2, 1
1, 2
3, 1
3, 0
0, 0
0, 2
0, 0
3, 1
0, 1
1, 1
4, 0
1, 1
0, 1
2, 2
2, 3
0, 0
3, 0
1, 0
0, 0
2, 2
1, 2
2, 2
1, 1
1, 2
2, 1
3, 2
2, 0
1, 0
0, 2
3, 1
1, 0
1, 1
0, 1
2, 1
0, 3
1, 0
2, 0
1, 1
0, 0
0, 0
1, 0
1, 0
1, 2
0, 1
0, 0
1, 2
1, 0
2, 1
1, 0
1, 1
1, 2
0, 3
1, 1
0, 0
2, 2
1, 1
0, 0
0, 2
0, 0
1, 2
2, 0
0, 2
0, 1
0, 1
1, 0
0, 0
1, 1
1, 0
0, 3
1, 1
1, 0
2, 0
1, 0
1, 0
2, 0
1, 0
1, 0
3, 0
1, 2
2, 0
0, 3
1, 1
1, 0
0, 0
0, 0
0, 1
0, 0
2, 0
0, 0
3, 1
0, 1
0, 0
1, 0
1, 0
0, 1
0, 0
1, 1
1, 0
1, 1
1, 0
2, 1
1, 0
0, 1
0, 2
1, 2
0, 0
0, 0
0, 0
0, 1
0, 1
2, 1
2, 0
0, 1
1, 1
0, 0
0, 0
0, 2
0, 2
0, 0
0, 1
1, 0
0, 0
0, 0
0, 0
0, 0
1, 1
0, 1
0, 1
0, 0
0, 0
0, 1
0, 0
0, 0
0, 0
0, 1
0, 0
0, 1
0, 1
2, 0
0, 0
2, 1
0, 2
0, 1
0, 1
1, 0
1, 0
1, 0
0, 0
1, 0
1, 0
0, 0
0, 0
0, 0
0, 3
1, 1
0, 0
0, 1
0, 0
0, 1
0, 0
0, 0
0, 0
1, 0
0, 0
0, 0
0, 0
1, 1
0, 0
0, 0
1, 0
0, 1
1, 0
1, 0
1, 0
0, 0
0, 0
0, 0
0, 0
1, 1
1, 0
0, 0
0, 0
0, 1
0, 1
0, 0
0, 0
1, 0
0, 0
0, 2
0, 0
0, 0
0, 0
1, 2
1, 0
0, 0
1, 0
1, 0
0, 1
1, 0
1, 0
0, 0
0, 0
0, 0
1, 0
1, 0
0, 0
0, 0
0, 0
0, 2
1, 0
0, 1
0, 0
0, 1
0, 1
0, 0
1, 0
0, 0
0, 0
0, 1
1, 0
0, 0
0, 1
1, 0
0, 0
0, 0
0, 0
0, 0
0, 0
0, 0
1, 0
0, 0
0, 0
0, 0
0, 0
0, 0
0, 1
1, 0
1, 0
0, 0
0, 0
0, 0
1, 0
0, 1
1, 0
0, 0
0, 0
1, 0
0, 0
0, 0
0, 0
0, 0
1, 0
0, 2
0, 0
1, 0
0, 0
0, 0
0, 0
0, 0
0, 1
0, 0
0, 0
0, 0
0, 0
0, 0
0, 0
1, 0
1, 0
1, 0
0, 0
0, 0
0, 0
0, 0
1, 0
0, 0
0, 0
0, 0
0, 0
0, 2
1, 1
1, 0
0, 0
0, 0
1, 0
1, 0
0, 0
0, 0
1, 0
1, 0
0, 0
0, 0
0, 0
1, 0
0, 0
0, 0
0, 0
0, 0
0, 0
0, 0
0, 0
0, 0
0, 0
0, 0
0, 0
0, 0
0, 0
0, 0
0, 0
0, 0
0, 0
0, 0
0, 0
0, 0
0, 0
0, 0
0, 0
0, 0
0, 0
0, 0
0, 0
0, 0
0, 0
0, 0
0, 0
0, 0
0, 0
0, 0
0, 0
0, 0
0, 0
0, 0
0, 0
0, 0
0, 0
0, 0
0, 0
0, 0
0, 0
0, 0
0, 0
0, 0
0, 0
0, 0
0, 0
0, 0
0, 0
0, 1
0, 0
0, 0
0, 0
0, 0
0, 0
0, 0
0, 0
0, 0
0, 0
0, 0
0, 0
0, 0
0, 0
0, 0
0, 0
0, 0
0, 0
0, 0
0, 0
0, 0
0, 0
0, 0
0, 0
0, 0
0, 0
0, 0
0, 0
0, 0
0, 0
0, 0
0, 0
0, 0
0, 0
0, 0
0, 0
0, 0
0, 0
0, 0
0, 0
0, 0
1, 0
0, 0
0, 1
0, 0
1, 0
0, 0
0, 0
0, 0
0, 0
0, 0
0, 0
0, 0
0, 0
0, 0
0, 0
0, 1
0, 0
0, 0
0, 0
0, 0
0, 0
0, 0
0, 0
0, 0
0, 0
0, 0
0, 0
0, 0
0, 0
0, 0
0, 0
0, 0
0, 0
0, 0
0, 0
0, 0
0, 0
0, 0
0, 0
0, 0
0, 0
0, 0
0, 0
0, 0
0, 0
0, 0
0, 0
0, 0
0, 0
0, 0
0, 0
0, 0
0, 0
0, 0
0, 0
0, 0
0, 0
0, 0
0, 0
1, 0
0, 0
0, 0
0, 0
0, 0
0, 0
0, 0
0, 0
0, 0
0, 0
0, 0
0, 0
0, 0
0, 0
0, 0
0, 0
0, 0
0, 0
0, 1
0, 0
0, 1
0, 0
0, 0
0, 0
0, 0
0, 0
0, 0
0, 0
0, 0
0, 1
0, 0
0, 0
0, 0
0, 0
0, 0
0, 0
0, 0
0, 0
0, 0
0, 0
0, 0
0, 0
0, 0
0, 0
0, 0
0, 0
0, 0
0, 0
0, 0
0, 0
0, 0
0, 0
0, 0
0, 0
0, 0
0, 0
0, 0
0, 0
0, 0
0, 0
0, 0
0, 0
0, 0
0, 0
0, 0
0, 0
0, 0
0, 0
0, 0
0, 0
0, 0
0, 0
0, 0
0, 0
0, 0
0, 0
0, 0
0, 0
0, 0
0, 0
0, 0
0, 0
0, 0
0, 0
0, 0
0, 0
0, 0
0, 0
0, 0
0, 0
0, 0
0, 0
0, 0
0, 0
0, 0
0, 0
0, 0
0, 0
0, 0
0, 0
0, 0
1, 0
0, 0
0, 0
0, 0
0, 0
0, 0
0, 0
0, 0
0, 0
0, 0
0, 0
0, 0
0, 0
0, 0
0, 0
0, 0
0, 0
0, 0
0, 0
0, 0
0, 0
0, 0
0, 0
0, 0
0, 0
0, 0
0, 0
0, 0
0, 0
0, 0
0, 0
0, 0
0, 0
0, 0
0, 0
0, 0
0, 0
0, 0
0, 0
0, 0
0, 0
0, 0
0, 0
0, 0
0, 0
0, 0
0, 0
0, 0
0, 0
0, 0
0, 0
0, 0
0, 0
0, 0
0, 0
0, 0
0, 0
0, 0
0, 0
0, 0
0, 0
0, 0
0, 0
0, 0
0, 0
0, 0
0, 0
0, 0
0, 0
0, 0
0, 0
0, 0
0, 0
0, 0
0, 0
0, 0
0, 0
0, 0
0, 0
0, 0
0, 0
0, 0
0, 0
0, 0
0, 0
0, 0
0, 0
0, 0
0, 0
0, 0
0, 0
0, 0
0, 0
0, 0
0, 0
0, 0
0, 0
0, 0
0, 0
0, 0
0, 0
0, 0
0, 0
0, 0
0, 0
0, 0
0, 0
0, 0
0, 0
0, 0
0, 0
0, 0
0, 0
0, 0
0, 0
0, 0
0, 0
0, 0
0, 0
0, 0
0, 0
0, 0
0, 0
0, 0
0, 0
0, 0
0, 0
0, 0
0, 0
0, 0
0, 0
0, 0
0, 0
0, 0
0, 0
0, 0
0, 0
0, 0
0, 0
0, 0
0, 0
0, 0
0, 0
0, 0
0, 0
0, 0
0, 0
0, 0
0, 0
0, 0
0, 0
0, 0
0, 0
0, 0
0, 0
0, 0
0, 0
0, 0
0, 0
0, 0
0, 0
0, 0
0, 0
0, 0
0, 0
0, 0
0, 0
0, 0
0, 0
0, 0
0, 0
0, 0
0, 0
0, 0
0, 0
0, 0
0, 0
0, 0
0, 0
0, 0
0, 0
0, 0
0, 0
0, 0
0, 0
0, 0
0, 0
0, 0
0, 0
0, 0
0, 0
0, 0
0, 0
0, 0
0, 0
0, 0
0, 0
0, 0
0, 0
0, 0
0, 0
0, 0
0, 0
0, 0
0, 0
0, 0
0, 0
0, 0
0, 0
0, 0
0, 0
0, 0
0, 0
0, 0
0, 0
0, 0
0, 0
0, 0
0, 0
0, 0
0, 0
0, 0
0, 0
0, 0
0, 0
0, 0
0, 0
0, 0
0, 0
0, 0
0, 0
0, 0
0, 0
0, 0
0, 0
0, 0
0, 0
0, 0
0, 0
0, 0
0, 0
0, 0
0, 0
0, 0
0, 0
0, 0
#ENDOFDATA     end of spectrum data