File: host_upload/06-09-2024/ps_0852/dump3/ps__0852shot_2085.msa
#FORMAT      : EMSA/MAS spectral data file
#VERSION     : TC202v2.0 PIXL
#TITLE       : N/A
#DATE        :       Date in the format DD-MMM-YYYY, for example 07-JUL-2010
#TIME        :             The time of day at which the spectrum was recorded, in 24-hour format
#OWNER       : PIXL Flight Model       (PIXL will use this to indicate which instrument took the data.)
#NPOINTS     : 4096     Number of data points in the spectrum (This can be zero for configuration only files)
#NCOLUMNS    : 2     Number of data columns in the spectrum (This can be zero for configuration only files)
#XUNITS      : eV
#YUNITS      : COUNTS
#DATATYPE    : YY
#XPERCHAN    : 7.862, 7.881   eV per channel (separate by commas if more than one detector)
#OFFSET      : 18.5, -22.4         eV of first channel  (separate by commas if more than one detector
#SIGNALTYPE  : XRF
#YP_TEMP     : 2.46
#LIVETIME    : 8.55711, 8.57754   seconds (separate by commas if more than one detector)
#REALTIME    : 10, 10.0   seconds (separate by commas if more than one detector)
#SPECTRUM    : start of spectrum data
0, 0
0, 0
0, 0
0, 0
0, 0
0, 0
0, 0
0, 0
0, 0
0, 0
0, 0
0, 0
0, 0
0, 0
0, 0
0, 0
0, 0
0, 0
0, 0
0, 0
0, 0
0, 0
0, 0
0, 0
0, 0
0, 0
0, 0
0, 0
0, 0
0, 0
0, 0
0, 0
0, 0
0, 1
1, 0
2, 1
0, 0
0, 0
1, 0
1, 0
2, 2
3, 2
0, 2
0, 0
1, 3
1, 2
1, 1
5, 2
7, 6
7, 8
20, 27
49, 41
56, 79
81, 79
101, 93
71, 84
57, 70
67, 44
39, 18
21, 12
10, 10
2, 10
4, 5
0, 3
3, 4
2, 6
2, 3
7, 9
21, 21
47, 59
95, 117
183, 176
270, 291
304, 383
400, 454
430, 416
368, 421
281, 289
210, 208
109, 148
61, 68
35, 36
13, 10
5, 8
8, 5
1, 8
1, 2
1, 1
3, 1
1, 6
1, 0
0, 1
0, 0
0, 2
0, 1
4, 2
1, 2
3, 0
1, 1
3, 0
3, 2
1, 3
3, 2
2, 1
0, 1
2, 1
3, 5
3, 4
3, 1
3, 3
13, 11
21, 7
21, 16
33, 16
24, 21
34, 20
36, 24
25, 26
22, 24
17, 22
18, 20
10, 16
22, 20
14, 9
11, 7
20, 12
12, 10
8, 9
7, 8
2, 7
4, 2
3, 6
7, 3
2, 2
1, 0
1, 1
2, 1
3, 1
1, 1
3, 2
1, 1
0, 3
0, 0
0, 1
2, 4
0, 1
2, 3
2, 1
3, 0
4, 2
1, 3
2, 11
5, 3
6, 12
12, 9
12, 9
13, 11
10, 15
18, 17
14, 14
11, 12
8, 5
7, 7
6, 1
5, 2
0, 0
3, 3
2, 1
3, 0
3, 4
10, 4
9, 4
20, 5
29, 4
36, 4
34, 3
34, 1
39, 3
31, 4
28, 2
23, 2
24, 3
18, 4
18, 5
16, 4
19, 0
16, 8
14, 1
12, 6
9, 4
5, 3
11, 9
7, 7
12, 12
11, 17
15, 13
3, 13
8, 31
11, 38
9, 41
8, 57
8, 62
9, 68
14, 76
3, 69
4, 63
7, 51
4, 23
6, 17
5, 13
2, 10
4, 5
5, 6
2, 5
4, 8
4, 10
4, 6
3, 14
5, 19
4, 13
4, 14
6, 4
1, 10
3, 10
4, 4
5, 7
14, 14
12, 6
9, 16
11, 8
19, 14
12, 15
24, 6
36, 6
38, 8
43, 8
67, 9
72, 5
60, 5
70, 6
68, 7
66, 8
63, 9
40, 7
42, 20
36, 12
45, 31
47, 28
59, 34
75, 83
51, 69
62, 53
47, 78
41, 53
42, 35
27, 24
19, 27
19, 26
15, 17
14, 14
11, 34
23, 33
45, 57
67, 108
144, 191
250, 411
460, 621
728, 1028
1073, 1357
1513, 1810
1827, 2258
2139, 2486
2245, 2485
2141, 2349
2053, 2056
1637, 1567
1343, 1178
884, 822
602, 523
372, 313
190, 178
119, 93
50, 66
36, 29
18, 25
20, 15
25, 10
18, 15
15, 8
28, 18
29, 26
42, 39
47, 64
72, 75
107, 127
152, 166
217, 224
236, 304
304, 320
331, 392
313, 373
355, 363
272, 279
259, 225
188, 141
133, 108
100, 71
54, 44
25, 24
18, 18
17, 4
10, 13
6, 5
7, 15
8, 9
9, 12
19, 9
14, 9
13, 16
9, 6
7, 5
12, 8
9, 9
7, 8
3, 5
5, 5
8, 8
4, 1
2, 6
4, 4
4, 5
2, 4
3, 6
1, 4
1, 1
3, 2
1, 3
1, 3
7, 1
4, 6
4, 4
0, 2
7, 4
6, 5
11, 3
5, 6
11, 6
15, 7
22, 3
25, 5
38, 4
42, 5
51, 2
46, 9
46, 8
24, 6
46, 5
23, 12
21, 14
10, 16
16, 6
6, 20
8, 18
6, 21
7, 16
6, 20
7, 8
2, 16
5, 3
10, 7
4, 8
2, 8
3, 5
3, 4
4, 1
1, 5
4, 9
2, 4
2, 8
2, 1
4, 7
2, 3
4, 0
5, 4
1, 6
6, 2
6, 6
1, 3
3, 4
2, 4
5, 3
4, 3
4, 3
1, 2
1, 5
4, 0
3, 4
2, 4
5, 4
4, 4
2, 3
4, 2
2, 5
3, 5
2, 4
2, 8
3, 1
3, 3
2, 5
2, 0
2, 4
5, 3
3, 3
4, 7
3, 5
3, 1
5, 4
1, 6
2, 3
2, 5
6, 5
4, 4
3, 5
5, 8
5, 4
3, 2
4, 6
6, 2
4, 5
3, 6
5, 4
3, 7
1, 12
2, 14
4, 10
4, 23
7, 9
2, 12
2, 11
1, 8
2, 16
3, 10
2, 4
3, 6
4, 4
1, 3
2, 3
1, 0
0, 2
4, 1
3, 5
2, 2
3, 1
5, 3
2, 2
3, 5
1, 4
1, 5
2, 2
3, 5
4, 3
1, 3
3, 6
5, 3
2, 1
4, 2
3, 5
6, 5
6, 3
4, 2
4, 3
2, 5
4, 0
4, 1
5, 2
5, 1
7, 2
7, 0
6, 1
4, 2
1, 1
4, 0
2, 2
1, 1
2, 1
5, 1
0, 0
3, 1
2, 4
3, 1
0, 0
1, 2
3, 2
2, 0
1, 3
1, 0
4, 0
2, 3
1, 3
1, 4
1, 2
1, 5
1, 3
1, 0
0, 2
2, 1
3, 2
0, 5
2, 2
0, 2
2, 1
3, 2
3, 1
1, 2
1, 0
2, 1
2, 2
0, 2
3, 2
1, 6
1, 3
2, 1
2, 2
2, 2
2, 0
3, 0
1, 5
1, 2
3, 0
0, 1
0, 3
2, 3
2, 4
2, 5
1, 4
6, 1
1, 1
4, 7
6, 5
3, 5
1, 7
5, 3
2, 5
4, 0
2, 3
3, 5
4, 3
3, 1
6, 1
4, 3
1, 3
3, 6
1, 2
1, 4
0, 3
0, 2
1, 2
0, 0
2, 0
0, 2
0, 2
2, 6
0, 1
1, 2
3, 0
0, 1
0, 2
2, 3
1, 2
1, 2
1, 0
2, 1
1, 1
4, 2
3, 2
1, 1
1, 0
1, 2
1, 3
1, 2
0, 0
1, 0
2, 4
1, 0
0, 1
0, 0
1, 1
1, 0
1, 0
3, 1
0, 0
3, 3
3, 1
0, 0
1, 0
1, 1
1, 2
0, 2
1, 2
1, 0
3, 2
1, 2
3, 1
2, 1
1, 0
0, 1
4, 3
0, 0
3, 0
1, 1
2, 0
1, 0
0, 1
1, 1
1, 0
1, 1
1, 0
0, 0
1, 0
1, 0
0, 1
2, 0
0, 0
0, 0
2, 0
1, 0
0, 1
0, 1
1, 0
3, 1
0, 1
1, 1
0, 1
0, 0
0, 1
1, 0
0, 0
0, 3
0, 0
2, 1
0, 1
1, 3
0, 0
1, 0
0, 0
1, 1
1, 0
0, 0
0, 1
0, 0
1, 0
2, 0
0, 0
0, 2
0, 0
1, 0
0, 1
0, 2
0, 0
1, 0
0, 1
1, 1
0, 0
1, 1
0, 0
0, 1
1, 0
0, 1
1, 0
0, 0
0, 0
1, 0
0, 0
1, 1
0, 0
0, 0
0, 1
0, 1
2, 1
0, 0
0, 2
1, 1
1, 0
0, 1
0, 0
0, 0
0, 1
0, 0
0, 1
0, 0
0, 1
0, 0
0, 0
0, 0
1, 0
0, 1
0, 0
1, 0
0, 0
1, 0
0, 1
0, 0
0, 0
0, 0
0, 1
1, 1
0, 1
1, 1
0, 0
1, 0
0, 0
0, 0
0, 2
1, 1
0, 1
0, 0
1, 0
0, 0
0, 0
0, 0
0, 0
2, 0
0, 1
1, 0
0, 1
0, 0
0, 0
0, 1
0, 1
1, 0
1, 0
0, 0
0, 0
0, 0
0, 0
0, 0
0, 1
0, 0
0, 1
0, 1
0, 0
0, 1
0, 0
1, 0
0, 0
0, 0
0, 0
0, 1
0, 0
0, 0
1, 1
0, 0
0, 0
0, 0
1, 1
0, 0
0, 0
0, 0
1, 1
0, 0
1, 1
1, 0
1, 0
0, 0
0, 0
0, 0
0, 0
0, 0
0, 0
0, 1
0, 0
1, 0
1, 0
0, 0
0, 0
0, 0
0, 0
0, 2
0, 0
0, 0
0, 0
0, 0
0, 0
0, 0
1, 0
1, 0
0, 0
1, 0
2, 0
0, 0
1, 0
1, 1
0, 0
0, 0
0, 0
0, 0
3, 1
0, 0
1, 0
0, 0
2, 0
0, 0
0, 1
0, 0
0, 0
1, 0
0, 0
0, 0
0, 0
0, 0
0, 2
1, 1
0, 0
0, 0
0, 0
0, 1
1, 0
0, 0
0, 0
0, 0
0, 0
0, 0
0, 0
1, 0
0, 1
0, 0
0, 0
0, 1
0, 0
0, 0
0, 1
0, 0
0, 0
0, 0
0, 0
0, 0
0, 0
0, 1
0, 0
0, 0
0, 0
0, 0
0, 0
0, 0
0, 0
0, 0
0, 0
0, 0
0, 0
0, 0
0, 1
0, 1
0, 0
0, 0
0, 1
0, 0
1, 0
0, 0
0, 0
0, 0
0, 0
0, 0
0, 0
0, 0
0, 0
0, 0
0, 1
0, 1
0, 0
0, 0
0, 0
0, 0
1, 0
0, 0
0, 0
0, 0
0, 0
0, 0
0, 0
0, 0
0, 0
0, 0
0, 0
0, 0
0, 0
0, 0
0, 0
0, 0
0, 0
1, 0
0, 0
0, 1
0, 0
0, 0
0, 0
0, 0
0, 0
0, 0
0, 0
0, 0
0, 0
0, 0
0, 0
0, 0
0, 0
0, 0
0, 0
0, 0
0, 0
0, 0
0, 0
0, 0
0, 0
0, 0
0, 0
0, 0
0, 0
0, 0
0, 0
0, 0
0, 0
0, 0
0, 0
0, 0
0, 0
0, 0
0, 0
0, 0
0, 0
0, 0
0, 0
0, 0
0, 0
0, 0
0, 0
0, 0
0, 0
0, 0
0, 0
0, 0
0, 0
0, 0
0, 0
0, 0
0, 0
0, 0
0, 0
0, 0
0, 1
0, 0
1, 0
0, 0
0, 0
0, 0
0, 0
0, 0
0, 0
0, 0
0, 0
0, 0
0, 0
0, 0
0, 0
0, 0
0, 0
0, 0
0, 0
0, 0
0, 0
0, 0
0, 0
0, 1
0, 0
0, 0
0, 0
0, 0
0, 0
0, 0
0, 0
0, 0
0, 0
0, 0
0, 0
0, 0
0, 0
0, 0
0, 0
0, 0
0, 0
0, 0
0, 0
0, 0
0, 0
0, 0
0, 0
0, 0
0, 0
0, 0
0, 0
0, 0
0, 0
0, 0
0, 0
0, 0
0, 0
0, 0
0, 0
0, 0
0, 0
0, 1
0, 0
0, 0
0, 0
0, 0
0, 0
0, 0
0, 0
0, 0
0, 0
0, 0
0, 0
0, 0
0, 0
0, 0
0, 0
0, 0
0, 0
0, 0
0, 0
0, 0
0, 0
0, 0
0, 0
0, 0
0, 0
0, 0
0, 0
0, 0
0, 0
0, 0
0, 0
0, 0
0, 0
0, 0
0, 0
0, 0
0, 0
0, 0
0, 0
0, 0
0, 0
0, 0
0, 0
0, 0
0, 0
0, 0
0, 0
0, 0
0, 0
0, 0
0, 0
0, 0
0, 0
0, 0
0, 0
0, 0
0, 0
0, 0
0, 0
0, 0
0, 0
0, 0
0, 0
0, 0
0, 0
0, 0
0, 0
0, 0
0, 0
0, 0
0, 0
0, 0
0, 0
0, 0
0, 0
0, 0
0, 0
0, 0
0, 0
0, 0
0, 0
0, 0
0, 0
0, 0
0, 0
0, 0
0, 0
0, 0
0, 0
0, 0
0, 0
0, 0
0, 0
0, 0
0, 0
0, 0
0, 0
0, 0
0, 0
0, 0
0, 0
0, 0
0, 0
0, 0
0, 0
0, 0
0, 0
0, 0
0, 0
0, 0
0, 0
0, 0
0, 0
0, 0
0, 0
0, 0
0, 0
0, 0
0, 0
0, 0
0, 0
0, 0
0, 0
0, 0
0, 0
0, 0
0, 0
0, 0
0, 0
0, 0
0, 0
0, 0
0, 0
0, 0
0, 0
0, 0
0, 0
0, 0
0, 0
0, 0
0, 0
0, 0
0, 0
0, 0
0, 0
0, 0
0, 0
0, 0
0, 0
0, 0
0, 0
0, 0
0, 0
0, 0
0, 0
0, 0
0, 0
0, 0
0, 0
0, 0
0, 0
0, 0
0, 0
0, 0
0, 0
0, 0
0, 0
0, 0
0, 0
0, 0
0, 0
0, 0
0, 0
0, 0
0, 0
0, 0
0, 0
0, 0
0, 0
0, 0
0, 0
0, 0
0, 0
0, 0
0, 0
0, 0
0, 0
0, 0
0, 0
0, 0
0, 0
0, 0
0, 0
0, 0
0, 0
0, 0
0, 0
0, 0
0, 0
0, 0
0, 0
0, 0
0, 0
0, 0
0, 0
0, 0
0, 0
0, 0
0, 0
0, 0
0, 0
0, 0
0, 0
0, 0
0, 0
0, 0
0, 0
0, 0
0, 0
0, 0
0, 0
0, 0
0, 0
0, 0
0, 0
0, 0
0, 0
0, 0
0, 0
0, 0
0, 0
0, 0
0, 0
0, 0
0, 0
0, 0
0, 0
0, 0
0, 0
0, 0
0, 0
0, 0
0, 0
0, 0
0, 0
0, 0
0, 0
0, 0
0, 0
0, 0
0, 0
0, 0
0, 0
0, 0
0, 0
0, 0
0, 0
0, 0
0, 0
0, 0
0, 0
0, 0
0, 0
0, 0
0, 0
0, 0
0, 0
0, 0
0, 0
0, 0
0, 0
0, 0
0, 0
0, 0
0, 0
0, 0
0, 0
0, 0
0, 0
0, 0
0, 0
0, 0
0, 0
0, 0
0, 0
0, 0
0, 0
0, 0
0, 0
0, 0
0, 0
0, 0
0, 0
0, 0
0, 0
0, 0
0, 0
0, 0
0, 0
0, 0
0, 0
0, 0
0, 0
0, 0
0, 0
0, 0
0, 0
0, 0
0, 0
0, 0
0, 0
0, 0
0, 0
0, 0
0, 0
0, 0
0, 0
0, 0
0, 0
0, 0
0, 0
0, 0
0, 0
0, 0
0, 0
0, 0
0, 0
0, 0
0, 0
0, 0
0, 0
0, 0
0, 0
0, 0
0, 0
0, 0
0, 0
0, 0
0, 0
0, 0
0, 0
0, 0
0, 0
0, 0
0, 0
0, 0
0, 0
0, 0
0, 0
0, 0
0, 0
0, 0
0, 0
0, 0
0, 0
0, 0
#ENDOFDATA     end of spectrum data