File: host_upload/06-09-2024/ps_0852/dump3/ps__0852shot_2033.msa
#FORMAT      : EMSA/MAS spectral data file
#VERSION     : TC202v2.0 PIXL
#TITLE       : N/A
#DATE        :       Date in the format DD-MMM-YYYY, for example 07-JUL-2010
#TIME        :             The time of day at which the spectrum was recorded, in 24-hour format
#OWNER       : PIXL Flight Model       (PIXL will use this to indicate which instrument took the data.)
#NPOINTS     : 4096     Number of data points in the spectrum (This can be zero for configuration only files)
#NCOLUMNS    : 2     Number of data columns in the spectrum (This can be zero for configuration only files)
#XUNITS      : eV
#YUNITS      : COUNTS
#DATATYPE    : YY
#XPERCHAN    : 7.862, 7.881   eV per channel (separate by commas if more than one detector)
#OFFSET      : 18.5, -22.4         eV of first channel  (separate by commas if more than one detector
#SIGNALTYPE  : XRF
#YP_TEMP     : 2.524
#LIVETIME    : 8.59691, 8.56502   seconds (separate by commas if more than one detector)
#REALTIME    : 10, 10.0   seconds (separate by commas if more than one detector)
#SPECTRUM    : start of spectrum data
0, 0
0, 0
0, 0
0, 0
0, 0
0, 0
0, 0
0, 0
0, 0
0, 0
0, 0
0, 0
0, 0
0, 0
0, 0
0, 0
0, 0
0, 0
0, 0
0, 0
0, 0
0, 0
0, 0
0, 0
0, 0
0, 0
0, 0
0, 0
0, 0
0, 0
0, 0
0, 0
0, 0
0, 0
0, 0
0, 0
3, 1
2, 1
1, 4
1, 0
1, 0
2, 0
2, 0
1, 0
0, 1
3, 2
2, 2
4, 4
13, 14
12, 8
15, 19
36, 37
68, 58
75, 79
72, 59
74, 57
68, 62
47, 30
31, 30
19, 13
6, 11
5, 3
4, 7
3, 4
5, 4
4, 0
4, 5
10, 7
19, 22
47, 46
102, 111
162, 181
266, 291
370, 364
416, 412
430, 402
391, 349
317, 238
198, 184
136, 113
77, 74
47, 31
24, 18
14, 7
6, 7
6, 2
1, 2
2, 2
1, 3
1, 1
2, 2
2, 0
1, 0
1, 2
3, 3
3, 3
4, 4
7, 8
3, 6
8, 4
4, 5
5, 10
8, 4
11, 3
4, 5
6, 5
14, 2
12, 14
12, 11
19, 11
24, 25
32, 25
37, 35
40, 51
44, 43
46, 47
38, 25
46, 27
62, 22
64, 21
91, 26
109, 24
147, 11
161, 23
188, 10
182, 14
142, 18
101, 10
52, 6
49, 4
17, 8
6, 3
8, 11
4, 2
5, 2
5, 1
1, 1
6, 3
0, 1
1, 2
1, 3
2, 3
0, 6
4, 1
5, 4
3, 7
2, 2
3, 4
2, 0
1, 2
3, 5
4, 4
6, 3
8, 3
11, 11
10, 15
15, 13
11, 16
10, 10
13, 14
12, 8
10, 8
9, 3
2, 6
0, 2
3, 2
2, 4
3, 5
3, 2
1, 4
3, 4
8, 5
13, 3
4, 1
5, 6
4, 4
7, 5
5, 3
8, 8
8, 5
10, 3
8, 1
7, 2
17, 3
20, 2
25, 1
18, 1
24, 4
19, 4
12, 4
12, 14
6, 15
21, 14
9, 12
7, 16
10, 12
13, 15
9, 18
9, 10
17, 16
7, 13
7, 13
11, 14
8, 10
9, 8
5, 3
6, 7
9, 6
8, 5
6, 7
3, 5
3, 9
8, 5
9, 6
11, 5
5, 7
2, 10
9, 12
4, 8
7, 8
2, 14
4, 14
8, 9
6, 8
7, 6
5, 13
11, 8
12, 17
19, 16
23, 21
15, 16
16, 20
14, 18
24, 16
18, 11
16, 12
26, 9
23, 5
18, 6
20, 8
22, 8
32, 3
33, 10
60, 15
58, 18
89, 28
94, 32
116, 30
98, 52
116, 65
100, 68
105, 62
70, 43
65, 54
53, 40
29, 30
31, 27
15, 16
21, 18
17, 21
15, 29
20, 31
34, 46
84, 113
149, 219
267, 353
458, 600
762, 931
1125, 1395
1491, 1750
1874, 2099
2235, 2402
2403, 2412
2378, 2323
2075, 1964
1739, 1520
1321, 1227
972, 811
621, 492
349, 277
200, 142
110, 98
62, 48
30, 25
19, 21
13, 16
17, 18
15, 20
20, 12
26, 24
26, 16
36, 48
49, 58
75, 103
92, 126
146, 173
185, 245
271, 298
300, 352
336, 341
389, 385
337, 294
290, 300
270, 210
187, 168
146, 97
81, 61
46, 40
44, 23
21, 16
18, 15
14, 9
7, 22
9, 13
8, 11
14, 18
14, 12
10, 22
11, 7
11, 12
6, 11
13, 9
6, 11
6, 4
10, 5
4, 5
5, 1
4, 3
2, 4
3, 6
4, 8
2, 6
3, 4
4, 4
3, 4
4, 3
4, 2
6, 7
2, 1
5, 4
3, 4
4, 3
2, 3
5, 4
5, 3
9, 2
3, 5
7, 5
8, 4
1, 6
9, 6
6, 5
2, 0
5, 7
9, 8
6, 7
2, 5
7, 5
8, 10
9, 4
8, 7
7, 6
4, 9
7, 12
17, 8
12, 7
8, 6
11, 5
14, 2
11, 6
5, 3
9, 8
8, 9
1, 9
3, 5
3, 5
6, 5
2, 5
3, 7
1, 5
0, 11
2, 4
3, 2
3, 2
1, 0
3, 2
3, 4
3, 1
4, 5
4, 2
3, 5
2, 3
4, 3
4, 2
2, 2
2, 1
0, 2
3, 0
5, 2
2, 2
1, 1
3, 3
0, 7
4, 5
4, 4
3, 1
3, 1
4, 8
0, 7
5, 3
2, 2
2, 3
4, 4
0, 1
3, 4
5, 3
2, 4
3, 9
4, 5
6, 6
2, 4
5, 4
6, 3
2, 2
3, 3
5, 2
7, 3
3, 6
3, 7
3, 6
3, 6
5, 9
2, 9
5, 12
1, 9
4, 11
2, 17
0, 13
2, 9
2, 16
1, 15
3, 9
2, 8
2, 5
1, 2
4, 4
3, 3
0, 1
2, 2
2, 2
1, 3
7, 0
5, 4
3, 5
3, 7
1, 6
2, 7
2, 1
2, 0
2, 2
2, 4
1, 5
5, 1
3, 4
4, 3
4, 0
1, 3
2, 4
2, 4
3, 2
1, 3
2, 1
2, 3
0, 2
4, 1
1, 2
2, 3
2, 1
4, 2
2, 3
0, 4
2, 2
1, 1
1, 4
1, 1
2, 2
3, 0
5, 2
6, 2
1, 2
5, 1
3, 2
2, 3
3, 4
5, 1
3, 2
3, 3
6, 5
4, 4
5, 1
4, 4
0, 2
3, 2
0, 1
1, 4
5, 2
4, 3
1, 0
1, 6
3, 1
3, 4
4, 2
1, 1
6, 1
3, 4
2, 3
2, 4
1, 4
3, 0
2, 1
1, 3
4, 1
4, 3
4, 0
2, 0
0, 3
0, 2
3, 2
2, 3
2, 1
2, 3
1, 0
3, 3
3, 0
4, 3
5, 4
0, 4
3, 2
2, 3
4, 7
4, 4
2, 5
5, 3
5, 7
7, 3
4, 2
7, 7
5, 3
7, 5
5, 2
1, 2
5, 4
0, 1
1, 2
0, 1
2, 1
2, 3
1, 0
3, 3
2, 0
5, 1
0, 1
0, 0
3, 3
3, 1
1, 1
1, 0
3, 3
1, 2
1, 2
2, 1
0, 4
1, 3
1, 2
3, 1
1, 1
2, 0
2, 3
3, 1
2, 1
1, 0
0, 0
0, 0
1, 1
0, 1
0, 1
2, 0
1, 1
1, 2
1, 1
0, 0
1, 0
2, 1
1, 2
0, 0
1, 0
1, 1
2, 0
1, 3
1, 3
1, 0
2, 0
2, 1
2, 0
2, 0
0, 0
0, 4
0, 1
0, 1
3, 4
2, 0
2, 0
0, 0
3, 1
1, 3
0, 1
0, 1
5, 0
0, 0
1, 2
0, 2
2, 4
1, 0
2, 0
0, 0
0, 1
1, 1
1, 0
0, 0
0, 1
2, 0
0, 1
1, 0
0, 0
1, 0
3, 0
0, 1
0, 1
2, 1
1, 1
2, 0
2, 2
2, 0
0, 2
3, 0
0, 0
0, 0
1, 1
0, 0
1, 0
0, 1
0, 1
3, 0
2, 0
1, 0
0, 0
0, 2
0, 0
1, 0
1, 1
0, 0
0, 1
2, 0
1, 2
0, 0
1, 3
1, 1
1, 1
1, 1
1, 1
1, 0
0, 1
1, 0
0, 2
0, 0
1, 0
0, 1
0, 1
0, 1
1, 0
1, 1
0, 0
0, 0
0, 0
1, 0
0, 0
0, 0
0, 0
0, 1
0, 0
0, 1
1, 2
0, 0
1, 1
0, 0
1, 0
0, 0
0, 0
0, 0
1, 0
0, 1
1, 0
0, 1
1, 0
0, 1
0, 0
1, 0
1, 2
1, 1
1, 0
1, 2
0, 0
0, 1
1, 1
0, 0
0, 0
0, 1
0, 0
0, 0
0, 0
0, 0
1, 0
0, 0
1, 0
0, 1
0, 0
0, 0
0, 1
1, 0
0, 0
0, 0
1, 0
0, 0
1, 1
0, 0
0, 1
0, 0
1, 0
0, 0
0, 0
0, 0
0, 1
0, 0
0, 0
1, 0
0, 0
0, 1
1, 0
0, 0
0, 0
1, 0
1, 1
0, 0
0, 0
0, 0
0, 0
0, 1
0, 0
0, 1
0, 1
1, 0
0, 0
1, 1
0, 0
1, 0
0, 0
0, 0
0, 0
0, 0
0, 0
0, 0
0, 0
0, 0
0, 0
0, 1
1, 0
0, 0
0, 0
0, 1
1, 0
0, 0
0, 0
0, 0
1, 1
0, 0
1, 0
1, 1
2, 0
0, 1
0, 0
0, 0
0, 0
0, 0
0, 0
1, 0
0, 0
1, 1
0, 0
0, 0
2, 1
0, 0
1, 0
0, 0
0, 0
1, 0
1, 0
0, 0
0, 0
1, 0
0, 0
0, 0
0, 0
1, 0
1, 0
0, 0
1, 0
0, 1
0, 0
1, 0
0, 1
0, 0
1, 0
0, 0
0, 0
0, 0
0, 0
0, 1
1, 0
0, 0
0, 0
1, 1
0, 0
1, 0
0, 0
0, 0
0, 0
0, 0
0, 0
0, 0
0, 0
1, 0
0, 0
0, 1
0, 1
0, 1
0, 0
0, 0
0, 0
0, 0
0, 0
0, 1
0, 0
1, 0
0, 0
0, 0
0, 0
0, 0
0, 0
0, 0
0, 0
1, 0
0, 0
2, 0
0, 0
1, 0
0, 0
0, 0
0, 0
0, 0
0, 0
0, 0
0, 0
1, 0
0, 0
0, 0
0, 0
0, 0
0, 0
0, 0
0, 1
0, 0
0, 1
0, 1
0, 0
0, 0
0, 0
0, 0
0, 0
0, 0
0, 0
0, 0
0, 0
0, 0
0, 0
0, 0
0, 0
0, 0
0, 0
0, 1
0, 0
0, 0
0, 0
0, 0
0, 0
0, 0
0, 0
0, 0
0, 0
0, 0
0, 0
0, 0
0, 0
1, 0
0, 0
0, 0
0, 0
0, 0
2, 0
0, 1
0, 0
0, 0
0, 0
0, 0
0, 0
0, 0
0, 0
0, 0
0, 0
0, 0
0, 0
0, 0
0, 0
0, 0
0, 0
0, 0
0, 0
0, 0
0, 0
0, 0
0, 0
0, 0
0, 0
0, 0
0, 0
0, 0
0, 0
0, 0
0, 0
0, 0
0, 0
0, 0
0, 0
0, 0
0, 0
0, 0
0, 0
0, 1
0, 0
0, 0
0, 0
0, 0
0, 0
0, 0
0, 0
0, 0
0, 0
0, 0
0, 0
0, 0
0, 0
0, 0
0, 0
0, 0
0, 0
0, 0
0, 0
0, 0
0, 0
0, 0
0, 0
0, 0
0, 0
0, 0
0, 0
0, 0
0, 0
0, 0
0, 0
0, 0
0, 0
0, 0
0, 0
0, 0
0, 0
0, 0
0, 0
0, 0
0, 0
0, 0
0, 0
0, 0
0, 0
0, 0
0, 0
0, 0
0, 0
0, 0
0, 0
0, 0
0, 0
0, 0
0, 0
0, 1
0, 0
0, 0
0, 0
0, 0
0, 0
0, 0
0, 0
0, 0
0, 0
0, 0
0, 0
0, 0
0, 0
0, 0
0, 0
0, 0
0, 0
0, 0
0, 0
0, 0
0, 0
0, 0
0, 0
0, 0
0, 0
0, 0
0, 0
0, 0
0, 0
0, 0
0, 0
0, 0
0, 0
0, 0
0, 0
0, 0
0, 0
0, 0
0, 0
0, 0
0, 0
0, 0
0, 0
0, 0
0, 0
0, 0
0, 0
0, 0
0, 0
0, 0
0, 0
0, 0
0, 0
0, 0
0, 0
0, 0
0, 0
0, 0
0, 0
0, 0
0, 0
0, 0
0, 0
0, 0
0, 0
0, 0
0, 0
0, 0
0, 0
0, 0
0, 0
0, 0
0, 0
0, 0
0, 0
0, 0
0, 0
0, 0
0, 0
0, 0
0, 0
0, 0
0, 0
0, 0
0, 0
0, 0
0, 0
0, 0
0, 0
0, 0
0, 0
0, 0
0, 0
0, 0
0, 0
0, 0
0, 0
0, 0
0, 0
0, 0
0, 0
0, 0
0, 0
0, 0
0, 0
0, 0
0, 0
0, 0
0, 0
0, 0
0, 0
0, 0
0, 0
0, 0
0, 0
0, 0
0, 0
0, 0
0, 0
0, 0
0, 0
0, 0
0, 0
0, 0
0, 0
0, 0
0, 0
0, 0
0, 0
0, 0
0, 0
0, 0
0, 0
0, 0
0, 0
0, 0
0, 0
0, 0
0, 0
0, 0
0, 0
0, 0
0, 0
0, 0
0, 0
0, 0
0, 0
0, 0
0, 0
0, 0
0, 0
0, 0
0, 0
0, 0
0, 0
0, 0
0, 0
0, 0
0, 0
0, 0
0, 0
0, 0
0, 0
0, 0
0, 0
0, 0
0, 0
0, 0
0, 0
0, 0
0, 0
0, 0
0, 0
0, 0
0, 0
0, 0
0, 0
0, 0
0, 0
0, 0
0, 0
0, 0
0, 0
0, 0
0, 0
0, 0
0, 0
0, 0
0, 0
0, 0
0, 0
0, 0
0, 0
0, 0
0, 0
0, 0
0, 0
0, 0
0, 0
0, 0
0, 0
0, 0
0, 0
0, 0
0, 0
0, 0
0, 0
0, 0
0, 0
0, 0
0, 0
0, 0
0, 0
0, 0
0, 0
0, 0
0, 0
0, 0
0, 0
0, 0
0, 0
0, 0
0, 0
0, 0
0, 0
0, 0
0, 0
0, 0
0, 0
0, 0
0, 0
0, 0
0, 0
0, 0
0, 0
0, 0
0, 0
0, 0
0, 0
0, 0
0, 0
0, 0
0, 0
0, 0
0, 0
0, 0
0, 0
0, 0
0, 0
0, 0
0, 0
0, 0
0, 0
0, 0
0, 0
0, 0
0, 0
0, 0
0, 0
0, 0
0, 0
0, 0
0, 0
0, 0
0, 0
0, 0
0, 0
0, 0
0, 0
0, 0
0, 0
0, 0
0, 0
0, 0
0, 0
0, 0
0, 0
0, 0
0, 0
0, 0
0, 0
0, 0
0, 0
0, 0
0, 0
0, 0
0, 0
0, 0
0, 0
0, 0
0, 0
0, 0
0, 0
0, 0
0, 0
0, 0
0, 0
0, 0
0, 0
0, 0
0, 0
0, 0
0, 0
0, 0
0, 0
0, 0
0, 0
0, 0
0, 0
0, 0
0, 0
0, 0
0, 0
0, 0
0, 0
0, 0
0, 0
0, 0
0, 0
0, 0
0, 0
0, 0
0, 0
0, 0
0, 0
0, 0
0, 0
0, 0
0, 0
0, 0
0, 0
0, 0
0, 0
0, 0
0, 0
0, 0
0, 0
0, 0
0, 0
0, 0
0, 0
0, 0
0, 0
0, 0
0, 0
0, 0
0, 0
0, 0
0, 0
0, 0
0, 0
0, 0
0, 0
#ENDOFDATA     end of spectrum data