File: host_upload/06-09-2024/ps_0852/dump3/ps__0852shot_2341.msa
#FORMAT      : EMSA/MAS spectral data file
#VERSION     : TC202v2.0 PIXL
#TITLE       : N/A
#DATE        :       Date in the format DD-MMM-YYYY, for example 07-JUL-2010
#TIME        :             The time of day at which the spectrum was recorded, in 24-hour format
#OWNER       : PIXL Flight Model       (PIXL will use this to indicate which instrument took the data.)
#NPOINTS     : 4096     Number of data points in the spectrum (This can be zero for configuration only files)
#NCOLUMNS    : 2     Number of data columns in the spectrum (This can be zero for configuration only files)
#XUNITS      : eV
#YUNITS      : COUNTS
#DATATYPE    : YY
#XPERCHAN    : 7.862, 7.881   eV per channel (separate by commas if more than one detector)
#OFFSET      : 18.5, -22.4         eV of first channel  (separate by commas if more than one detector
#SIGNALTYPE  : XRF
#YP_TEMP     : 2.203
#LIVETIME    : 8.59626, 8.56147   seconds (separate by commas if more than one detector)
#REALTIME    : 10, 10.0   seconds (separate by commas if more than one detector)
#SPECTRUM    : start of spectrum data
0, 0
0, 0
0, 0
0, 0
0, 0
0, 0
0, 0
0, 0
0, 0
0, 0
0, 0
0, 0
0, 0
0, 0
0, 0
0, 0
0, 0
0, 0
0, 0
0, 0
0, 0
0, 0
0, 0
0, 0
0, 0
0, 0
0, 0
0, 0
0, 0
0, 0
0, 0
0, 0
0, 1
0, 0
0, 1
0, 1
2, 4
0, 1
1, 2
1, 4
1, 2
2, 3
4, 0
3, 2
0, 0
2, 3
3, 3
3, 4
7, 8
14, 17
25, 20
37, 34
51, 50
62, 69
56, 65
54, 56
53, 38
26, 36
32, 16
8, 15
7, 6
8, 6
3, 2
4, 0
7, 5
1, 5
6, 2
5, 13
12, 17
26, 25
52, 51
110, 99
152, 147
216, 187
219, 245
254, 262
203, 203
175, 162
126, 107
57, 57
51, 34
22, 17
11, 8
7, 6
6, 10
5, 9
7, 6
5, 6
4, 8
2, 5
17, 6
20, 30
44, 57
83, 117
192, 248
324, 339
499, 504
608, 683
785, 804
771, 824
649, 719
543, 545
411, 416
264, 263
181, 179
116, 121
78, 86
73, 72
76, 72
93, 85
81, 80
117, 101
142, 114
116, 130
111, 107
124, 105
93, 83
68, 60
56, 53
47, 39
43, 45
29, 38
33, 29
24, 40
28, 21
24, 24
16, 19
17, 19
18, 15
14, 15
5, 9
6, 10
6, 8
5, 4
6, 7
3, 3
4, 8
12, 7
9, 7
20, 26
20, 25
16, 17
28, 19
19, 20
20, 20
14, 10
11, 9
4, 7
3, 3
5, 6
3, 5
7, 12
10, 17
6, 23
19, 31
17, 30
28, 47
31, 45
22, 41
23, 28
13, 23
17, 19
10, 11
7, 13
0, 5
4, 8
4, 6
4, 5
5, 7
6, 6
5, 5
5, 8
10, 11
9, 4
12, 7
12, 5
20, 6
26, 8
22, 6
22, 3
21, 1
28, 4
19, 6
12, 3
4, 4
8, 10
11, 7
5, 6
5, 7
6, 13
7, 9
6, 15
15, 21
9, 16
12, 12
17, 19
9, 14
18, 18
16, 17
18, 14
11, 16
12, 11
11, 8
8, 9
5, 9
6, 15
14, 12
3, 13
8, 25
8, 19
6, 20
5, 29
8, 24
4, 13
6, 9
3, 9
9, 11
6, 9
4, 10
12, 11
9, 6
6, 11
5, 11
9, 6
11, 5
11, 19
12, 12
16, 22
13, 26
31, 21
20, 32
30, 36
37, 32
30, 32
41, 44
40, 32
31, 45
43, 35
33, 23
23, 27
17, 27
22, 25
11, 22
12, 22
9, 16
21, 24
34, 31
39, 38
47, 49
64, 56
62, 62
64, 61
77, 37
33, 51
38, 36
32, 39
27, 18
20, 25
17, 15
20, 16
24, 19
27, 40
44, 52
72, 102
154, 193
238, 322
409, 564
646, 870
1049, 1288
1373, 1763
1793, 2091
2004, 2258
2131, 2319
2150, 2226
1875, 1831
1616, 1456
1145, 1023
849, 694
496, 399
325, 239
191, 133
101, 76
49, 44
29, 37
22, 18
13, 10
17, 15
14, 9
14, 21
23, 18
19, 28
24, 41
35, 53
62, 85
100, 117
146, 167
184, 239
249, 269
302, 346
314, 314
337, 309
333, 309
281, 230
211, 223
158, 152
131, 91
78, 64
50, 39
28, 25
19, 15
11, 13
11, 8
11, 4
3, 7
11, 9
17, 13
18, 13
16, 9
25, 12
26, 15
29, 9
41, 13
37, 15
40, 5
42, 8
51, 10
45, 6
38, 7
23, 7
15, 2
23, 5
13, 4
10, 3
10, 4
5, 4
9, 4
6, 8
4, 2
10, 4
7, 4
5, 2
7, 7
11, 4
4, 4
6, 5
9, 6
5, 4
4, 6
5, 6
6, 7
13, 6
2, 5
6, 6
5, 5
7, 6
3, 2
3, 2
4, 4
6, 5
6, 6
5, 4
3, 2
4, 6
4, 4
4, 8
6, 7
3, 6
5, 4
9, 4
6, 5
8, 8
5, 4
4, 3
7, 5
4, 5
5, 3
3, 4
6, 4
4, 3
13, 3
6, 3
14, 4
10, 6
9, 8
6, 10
9, 9
0, 6
2, 7
6, 4
2, 12
3, 5
3, 4
4, 3
3, 7
5, 9
4, 8
3, 3
4, 5
3, 10
3, 2
5, 7
8, 4
5, 4
5, 2
4, 7
2, 4
2, 0
8, 3
7, 4
6, 5
6, 2
8, 3
3, 2
5, 6
8, 9
5, 8
1, 14
3, 11
4, 18
1, 11
5, 15
2, 11
4, 16
8, 14
6, 13
7, 10
3, 6
7, 3
4, 4
6, 2
6, 2
8, 5
9, 5
4, 1
1, 2
1, 4
3, 2
7, 3
3, 1
1, 5
2, 3
2, 5
3, 3
0, 3
2, 8
6, 5
4, 5
5, 2
2, 4
5, 3
2, 1
1, 3
0, 3
2, 4
3, 2
4, 5
7, 1
2, 3
5, 2
5, 0
4, 4
3, 1
2, 5
5, 4
6, 2
6, 2
14, 3
5, 0
9, 5
9, 2
8, 2
8, 3
6, 3
8, 1
4, 1
5, 2
5, 1
5, 4
2, 4
3, 4
4, 1
2, 3
5, 1
5, 2
1, 1
3, 3
0, 4
3, 0
2, 0
2, 2
3, 2
2, 3
0, 1
0, 2
1, 0
2, 2
0, 4
4, 1
1, 2
1, 0
1, 1
4, 2
2, 0
2, 2
3, 3
0, 0
4, 2
3, 3
3, 3
1, 2
7, 1
1, 4
2, 5
1, 2
0, 3
2, 2
0, 4
2, 2
2, 0
3, 3
1, 2
1, 4
1, 0
4, 1
3, 1
0, 0
2, 1
3, 1
3, 5
3, 2
0, 2
2, 1
3, 0
2, 0
0, 4
0, 2
1, 1
3, 0
1, 1
1, 1
5, 8
2, 4
4, 4
2, 7
1, 4
4, 2
4, 3
1, 5
1, 1
3, 2
1, 2
3, 1
1, 2
1, 1
0, 3
3, 0
3, 1
2, 1
0, 2
1, 4
2, 2
3, 1
2, 0
4, 0
3, 0
2, 4
0, 2
2, 3
0, 1
1, 3
3, 2
2, 2
5, 5
2, 1
1, 0
1, 0
3, 2
0, 1
0, 1
1, 1
1, 1
0, 1
0, 5
2, 3
1, 0
0, 2
1, 2
2, 1
2, 0
1, 0
2, 2
2, 1
3, 2
3, 1
4, 1
2, 2
0, 3
1, 0
1, 2
0, 2
0, 3
0, 4
0, 3
1, 1
2, 0
1, 1
1, 1
0, 1
0, 4
0, 0
2, 1
1, 0
2, 0
2, 2
0, 1
0, 1
0, 1
0, 2
3, 2
1, 0
2, 0
1, 1
0, 0
0, 0
0, 1
0, 1
0, 0
1, 2
2, 0
2, 1
0, 0
0, 1
2, 1
1, 0
0, 2
2, 0
1, 0
1, 0
0, 0
1, 0
0, 1
1, 0
0, 3
1, 1
1, 0
0, 1
1, 0
2, 2
2, 0
1, 0
0, 0
1, 0
1, 0
3, 1
0, 0
0, 0
0, 1
0, 1
0, 1
0, 0
0, 0
0, 0
0, 0
1, 0
1, 2
0, 4
1, 0
0, 0
0, 1
2, 1
2, 0
2, 0
0, 0
1, 1
0, 0
1, 0
0, 1
0, 0
0, 1
0, 1
0, 1
2, 0
1, 0
1, 1
1, 0
0, 1
0, 0
0, 0
1, 0
0, 0
0, 1
1, 0
0, 0
0, 0
0, 0
1, 0
0, 3
0, 2
0, 1
0, 0
1, 0
0, 2
0, 0
0, 2
0, 1
1, 2
1, 0
1, 3
0, 0
0, 1
0, 0
0, 1
0, 0
1, 0
3, 1
0, 1
0, 0
0, 0
0, 0
0, 0
0, 0
0, 0
0, 0
0, 0
0, 0
0, 0
0, 2
0, 0
0, 1
0, 1
1, 0
0, 0
0, 0
0, 0
0, 0
0, 1
0, 0
0, 0
0, 0
0, 0
0, 0
1, 0
0, 0
0, 0
0, 0
0, 1
0, 1
0, 1
1, 0
1, 1
1, 0
1, 0
0, 2
1, 1
0, 0
0, 0
0, 0
0, 0
0, 1
1, 0
0, 1
1, 0
0, 1
1, 0
0, 0
0, 0
0, 0
0, 0
0, 0
0, 0
0, 0
1, 0
0, 0
0, 0
0, 0
0, 0
0, 0
0, 2
0, 2
0, 0
1, 0
2, 0
0, 1
0, 0
0, 2
0, 0
0, 0
0, 0
0, 1
0, 0
0, 1
0, 0
1, 0
0, 0
0, 1
0, 0
0, 0
0, 0
0, 0
0, 0
0, 1
0, 0
0, 0
0, 0
0, 0
0, 0
0, 0
0, 0
1, 0
0, 0
0, 0
0, 0
0, 0
0, 0
0, 0
0, 0
0, 0
0, 0
0, 0
0, 1
0, 0
0, 0
0, 1
0, 0
1, 1
0, 0
0, 0
0, 1
0, 0
0, 0
0, 0
0, 0
0, 0
0, 0
0, 0
0, 0
0, 0
0, 0
0, 0
0, 0
1, 1
0, 0
0, 0
0, 0
0, 0
0, 0
0, 0
0, 1
0, 1
0, 0
0, 0
0, 0
0, 0
0, 2
0, 0
0, 0
0, 1
0, 1
0, 0
0, 1
0, 0
0, 0
0, 0
0, 0
0, 0
0, 0
0, 0
0, 0
0, 0
0, 0
0, 0
0, 1
0, 1
0, 0
0, 0
0, 0
0, 0
0, 0
0, 0
0, 1
0, 0
0, 0
0, 0
0, 0
0, 0
0, 0
0, 1
0, 0
0, 0
0, 0
0, 0
1, 0
0, 0
0, 0
0, 0
0, 0
0, 0
0, 1
0, 0
0, 0
0, 0
0, 0
0, 0
0, 0
0, 0
0, 0
0, 0
0, 0
0, 1
0, 0
0, 0
0, 0
0, 1
0, 0
0, 1
0, 0
0, 0
0, 0
0, 0
0, 0
0, 0
0, 0
0, 0
0, 0
0, 0
0, 0
0, 0
1, 0
0, 0
0, 0
0, 0
0, 0
0, 0
0, 0
0, 0
0, 0
0, 0
0, 0
0, 0
0, 0
0, 0
0, 0
0, 0
0, 0
0, 0
0, 0
0, 0
0, 0
0, 0
0, 0
0, 0
0, 0
1, 0
0, 0
0, 0
0, 0
1, 0
0, 0
0, 0
0, 0
0, 0
0, 1
0, 0
0, 0
0, 0
0, 0
0, 0
0, 0
0, 0
0, 0
0, 0
0, 0
0, 0
0, 0
0, 0
0, 0
0, 0
0, 0
0, 0
0, 0
0, 0
0, 0
0, 0
0, 0
0, 0
0, 0
0, 0
0, 0
0, 0
0, 0
0, 0
0, 0
0, 0
0, 0
0, 0
0, 0
0, 0
0, 0
0, 0
0, 0
0, 0
0, 0
0, 0
0, 0
0, 0
0, 0
0, 0
0, 0
0, 0
0, 0
0, 0
0, 0
0, 0
0, 0
0, 0
0, 0
0, 0
0, 0
0, 0
0, 0
0, 0
0, 0
0, 0
0, 0
0, 0
0, 0
0, 0
0, 0
0, 0
0, 0
0, 0
0, 0
0, 0
0, 0
0, 0
0, 0
0, 0
0, 0
0, 0
0, 0
0, 0
0, 0
0, 0
0, 0
0, 0
0, 0
0, 0
0, 0
0, 0
0, 0
0, 0
0, 0
0, 0
0, 0
0, 0
0, 0
0, 0
0, 0
0, 0
0, 0
0, 0
0, 0
0, 0
0, 0
0, 0
0, 0
0, 0
0, 0
0, 0
0, 0
0, 0
0, 0
0, 0
0, 0
0, 0
0, 0
0, 0
0, 0
0, 0
0, 0
0, 0
0, 0
0, 0
0, 0
0, 0
0, 0
0, 0
0, 0
0, 0
0, 0
0, 0
0, 0
0, 0
0, 0
0, 0
0, 0
0, 0
0, 0
0, 0
0, 0
0, 0
0, 0
0, 0
0, 0
0, 0
0, 0
0, 0
0, 0
0, 0
0, 0
0, 0
0, 0
0, 0
0, 0
0, 0
0, 0
0, 0
0, 0
0, 0
0, 0
0, 0
0, 0
0, 0
0, 0
0, 0
0, 0
0, 0
0, 0
0, 0
0, 0
0, 0
0, 0
0, 0
0, 0
0, 0
0, 0
0, 0
0, 0
0, 0
0, 0
0, 0
0, 0
0, 0
0, 0
0, 0
0, 0
0, 0
0, 0
0, 0
0, 0
0, 0
0, 0
0, 0
0, 0
0, 0
0, 0
0, 0
0, 0
0, 0
0, 0
0, 0
0, 0
0, 0
0, 0
0, 0
0, 0
0, 0
0, 0
0, 0
0, 0
0, 0
0, 0
0, 0
0, 0
0, 0
0, 0
0, 0
0, 0
0, 0
0, 0
0, 0
0, 0
0, 0
0, 0
0, 0
0, 0
0, 0
0, 0
0, 0
0, 0
0, 0
0, 0
0, 0
0, 0
0, 0
0, 0
0, 0
0, 0
0, 0
0, 0
0, 0
0, 0
0, 0
0, 0
0, 0
0, 0
0, 0
0, 0
0, 0
0, 0
0, 0
0, 0
0, 0
0, 0
0, 0
0, 0
0, 0
0, 0
0, 0
0, 0
0, 0
0, 0
0, 0
0, 0
0, 0
0, 0
0, 0
0, 0
0, 0
0, 0
0, 0
0, 0
0, 0
0, 0
0, 0
0, 0
0, 0
0, 0
0, 0
0, 0
0, 0
0, 0
0, 0
0, 0
0, 0
0, 0
0, 0
0, 0
0, 0
0, 0
0, 0
0, 0
0, 0
0, 0
0, 0
0, 0
0, 0
0, 0
0, 0
0, 0
0, 0
0, 0
0, 0
0, 0
0, 0
0, 0
0, 0
0, 0
0, 0
0, 0
0, 0
0, 0
0, 0
0, 0
0, 0
0, 0
0, 0
0, 0
0, 0
0, 0
0, 0
0, 0
0, 0
0, 0
0, 0
0, 0
0, 0
0, 0
0, 0
0, 0
0, 0
0, 0
0, 0
0, 0
0, 0
0, 0
0, 0
0, 0
0, 0
0, 0
0, 0
0, 0
0, 0
0, 0
0, 0
0, 0
0, 0
0, 0
0, 0
0, 0
0, 0
0, 0
0, 0
0, 0
0, 0
0, 0
0, 0
0, 0
0, 0
0, 0
0, 0
0, 0
0, 0
0, 0
0, 0
0, 0
0, 0
0, 0
0, 0
0, 0
0, 0
0, 0
0, 0
0, 0
0, 0
0, 0
0, 0
0, 0
0, 0
0, 0
0, 0
0, 0
0, 0
0, 0
0, 0
0, 0
0, 0
0, 0
0, 0
0, 0
0, 0
0, 0
0, 0
0, 0
0, 0
0, 0
0, 0
0, 0
0, 0
0, 0
0, 0
0, 0
0, 0
0, 0
0, 0
0, 0
#ENDOFDATA     end of spectrum data