File: host_upload/06-09-2024/ps_0852/dump3/ps__0852shot_2527.msa
#FORMAT      : EMSA/MAS spectral data file
#VERSION     : TC202v2.0 PIXL
#TITLE       : N/A
#DATE        :       Date in the format DD-MMM-YYYY, for example 07-JUL-2010
#TIME        :             The time of day at which the spectrum was recorded, in 24-hour format
#OWNER       : PIXL Flight Model       (PIXL will use this to indicate which instrument took the data.)
#NPOINTS     : 4096     Number of data points in the spectrum (This can be zero for configuration only files)
#NCOLUMNS    : 2     Number of data columns in the spectrum (This can be zero for configuration only files)
#XUNITS      : eV
#YUNITS      : COUNTS
#DATATYPE    : YY
#XPERCHAN    : 7.862, 7.881   eV per channel (separate by commas if more than one detector)
#OFFSET      : 18.5, -22.4         eV of first channel  (separate by commas if more than one detector
#SIGNALTYPE  : XRF
#YP_TEMP     : 2.396
#LIVETIME    : 8.55145, 8.54484   seconds (separate by commas if more than one detector)
#REALTIME    : 10, 10.0   seconds (separate by commas if more than one detector)
#SPECTRUM    : start of spectrum data
0, 0
0, 0
0, 0
0, 0
0, 0
0, 0
0, 0
0, 0
0, 0
0, 0
0, 0
0, 0
0, 0
0, 0
0, 0
0, 0
0, 0
0, 0
0, 0
0, 0
0, 0
0, 0
0, 0
0, 0
0, 0
0, 0
0, 0
0, 0
0, 0
0, 1
0, 0
0, 0
0, 0
0, 1
0, 0
0, 1
0, 0
1, 0
0, 2
0, 1
1, 1
2, 0
1, 0
1, 0
3, 0
2, 2
3, 1
2, 3
11, 5
11, 13
15, 21
41, 49
63, 53
71, 64
74, 74
73, 52
53, 56
52, 39
24, 21
15, 11
8, 8
4, 7
6, 4
10, 3
6, 2
6, 3
13, 4
9, 10
29, 35
44, 37
96, 93
192, 191
287, 289
409, 322
480, 433
514, 468
419, 374
340, 305
260, 192
130, 121
72, 63
37, 28
25, 18
11, 10
4, 6
4, 4
3, 3
3, 4
4, 3
3, 1
3, 0
7, 4
8, 17
23, 11
33, 31
45, 38
48, 63
91, 83
105, 76
102, 94
104, 91
79, 61
76, 45
39, 38
24, 14
21, 15
25, 18
16, 15
23, 17
25, 22
37, 34
45, 40
32, 36
61, 43
44, 64
62, 43
48, 42
57, 27
38, 35
31, 28
20, 21
20, 27
21, 25
17, 20
20, 17
7, 13
16, 12
11, 5
8, 6
7, 4
3, 2
9, 5
5, 1
2, 2
2, 6
4, 4
4, 0
4, 4
3, 1
2, 2
1, 2
5, 2
2, 1
5, 4
5, 2
2, 5
10, 3
9, 1
12, 4
15, 12
20, 16
25, 20
43, 46
60, 61
86, 102
149, 120
166, 162
190, 161
192, 159
150, 139
120, 89
87, 63
54, 65
24, 33
21, 27
8, 19
11, 26
16, 19
23, 20
24, 29
28, 17
24, 25
19, 23
26, 18
25, 11
12, 5
12, 8
5, 5
2, 5
3, 6
2, 5
2, 2
6, 3
5, 4
2, 4
5, 6
17, 8
4, 4
9, 11
12, 16
17, 12
16, 19
11, 35
11, 39
11, 30
14, 41
12, 22
16, 37
10, 27
14, 24
7, 14
8, 14
5, 13
11, 8
5, 5
5, 3
10, 7
9, 4
3, 3
3, 6
8, 4
8, 11
6, 6
12, 12
5, 11
6, 11
10, 12
4, 4
12, 4
10, 8
4, 4
6, 7
1, 13
6, 13
15, 14
12, 21
14, 28
13, 42
28, 52
20, 55
27, 59
28, 53
22, 33
19, 33
11, 21
11, 10
7, 14
7, 18
7, 9
11, 18
5, 19
5, 9
4, 18
15, 16
9, 26
14, 21
26, 32
37, 34
47, 59
40, 60
57, 53
64, 48
64, 43
59, 48
34, 46
41, 28
33, 20
28, 29
16, 17
16, 19
21, 19
21, 29
35, 49
85, 87
165, 174
268, 314
452, 546
784, 807
1097, 1190
1448, 1501
1833, 1831
2177, 2135
2247, 2125
2203, 2051
2139, 1726
1609, 1294
1256, 953
844, 637
537, 342
330, 203
204, 105
94, 57
53, 38
25, 16
23, 18
14, 12
17, 13
14, 19
9, 15
25, 18
16, 28
24, 44
45, 52
67, 65
81, 124
139, 161
182, 187
269, 234
306, 321
326, 306
331, 309
345, 284
285, 232
210, 166
161, 123
118, 80
73, 46
40, 30
23, 22
14, 12
10, 7
9, 1
2, 3
5, 13
9, 6
10, 9
10, 14
12, 10
11, 11
13, 8
16, 14
15, 10
11, 10
7, 6
5, 6
12, 3
1, 2
7, 10
4, 2
2, 3
4, 4
4, 1
4, 6
6, 5
3, 5
5, 5
4, 6
3, 5
3, 10
3, 5
1, 8
4, 8
4, 10
4, 7
3, 5
5, 6
11, 9
6, 1
10, 4
10, 5
6, 9
9, 8
6, 12
6, 10
5, 13
5, 14
3, 8
4, 12
6, 18
3, 12
0, 20
6, 12
5, 13
3, 8
4, 8
2, 5
8, 7
5, 4
8, 8
10, 4
6, 3
10, 5
6, 2
6, 4
12, 2
17, 2
6, 3
11, 4
9, 1
7, 2
0, 3
5, 2
4, 1
6, 3
4, 3
1, 1
2, 6
2, 4
2, 10
4, 4
4, 0
5, 5
2, 3
9, 2
5, 3
3, 5
5, 4
2, 2
4, 2
2, 2
3, 1
5, 5
6, 4
3, 1
6, 4
3, 1
8, 3
4, 1
6, 2
5, 6
4, 4
8, 5
1, 6
4, 2
6, 3
4, 7
3, 8
2, 7
5, 3
5, 14
4, 7
2, 12
3, 10
4, 3
7, 5
3, 7
4, 6
2, 5
5, 3
3, 7
1, 4
4, 6
5, 4
0, 3
4, 0
4, 4
9, 1
5, 1
9, 1
8, 2
10, 0
12, 3
11, 1
9, 4
10, 1
5, 0
4, 2
3, 1
2, 0
3, 4
2, 1
4, 5
1, 6
4, 3
2, 2
0, 5
3, 6
3, 4
5, 6
3, 3
0, 3
2, 3
5, 5
3, 3
6, 3
4, 1
4, 2
0, 4
3, 3
4, 2
2, 2
2, 4
5, 2
5, 1
3, 2
2, 1
5, 5
1, 1
4, 1
2, 1
0, 2
3, 1
1, 3
0, 4
3, 2
3, 1
2, 6
3, 6
2, 3
2, 3
2, 2
3, 1
5, 3
5, 3
2, 2
2, 7
2, 3
1, 2
2, 4
3, 3
2, 0
4, 1
4, 0
3, 5
7, 1
4, 2
4, 2
6, 1
3, 0
4, 3
6, 1
3, 1
3, 2
1, 2
2, 0
1, 3
1, 4
2, 2
2, 2
5, 6
2, 2
1, 0
0, 1
3, 5
1, 2
3, 3
2, 1
1, 4
0, 1
3, 2
2, 1
3, 1
2, 4
4, 2
0, 1
5, 2
2, 3
1, 2
1, 0
4, 5
6, 2
3, 4
6, 3
5, 5
5, 4
2, 2
4, 3
3, 2
2, 3
4, 4
2, 3
3, 0
2, 2
0, 1
0, 0
2, 2
2, 1
1, 0
1, 2
0, 4
0, 1
1, 1
1, 2
1, 3
1, 2
3, 1
5, 3
1, 3
1, 3
4, 5
3, 2
2, 1
4, 3
1, 2
2, 1
0, 0
0, 2
3, 1
2, 1
1, 3
2, 0
0, 1
3, 2
0, 1
0, 1
2, 1
2, 1
1, 1
3, 1
1, 1
0, 3
4, 1
0, 2
0, 0
1, 1
1, 1
2, 2
0, 0
1, 1
0, 1
0, 0
1, 0
2, 0
2, 0
2, 0
1, 0
1, 1
0, 0
1, 0
1, 0
1, 1
0, 1
1, 0
0, 0
1, 1
1, 0
0, 2
0, 1
0, 1
0, 4
2, 1
1, 1
1, 0
0, 0
0, 0
2, 1
2, 0
1, 0
0, 1
0, 1
0, 1
0, 0
2, 0
0, 0
2, 0
1, 1
1, 0
1, 1
1, 0
0, 0
0, 0
1, 0
1, 0
0, 0
1, 0
0, 0
2, 3
1, 1
3, 0
3, 0
2, 0
5, 2
1, 0
2, 0
0, 0
0, 0
0, 1
0, 0
2, 0
1, 0
0, 0
0, 0
1, 0
1, 1
0, 0
0, 0
0, 0
0, 0
0, 2
2, 1
1, 1
0, 0
1, 1
0, 0
2, 1
0, 0
0, 0
0, 0
0, 1
1, 0
1, 0
0, 2
0, 0
1, 0
0, 0
0, 0
1, 2
1, 1
0, 0
2, 0
0, 1
0, 0
0, 0
1, 0
1, 0
0, 1
1, 0
0, 0
0, 0
2, 1
1, 1
0, 1
0, 0
0, 0
1, 0
0, 0
0, 1
1, 1
1, 0
0, 0
1, 0
0, 0
0, 2
0, 0
0, 0
0, 2
0, 0
1, 0
0, 0
0, 1
0, 1
1, 1
0, 1
1, 0
0, 0
0, 0
0, 0
0, 0
0, 0
0, 0
0, 0
0, 0
0, 1
1, 1
1, 1
1, 0
0, 0
0, 0
0, 0
0, 1
0, 0
0, 1
0, 0
1, 2
0, 3
0, 0
0, 0
0, 0
0, 1
0, 0
0, 1
0, 0
1, 0
0, 0
0, 0
1, 0
0, 0
1, 0
0, 0
0, 0
0, 0
0, 0
0, 0
1, 0
0, 1
0, 0
0, 0
1, 0
1, 0
0, 0
0, 1
0, 0
1, 0
1, 0
0, 0
0, 0
1, 0
0, 0
1, 0
0, 0
1, 0
0, 0
0, 2
0, 1
0, 0
0, 0
1, 1
1, 1
0, 0
0, 0
0, 1
0, 0
0, 0
1, 0
1, 0
0, 0
1, 0
1, 0
0, 1
1, 0
2, 2
0, 0
0, 0
0, 1
1, 0
0, 0
1, 1
1, 1
1, 1
0, 0
0, 0
0, 0
0, 0
1, 0
0, 0
0, 0
0, 0
1, 0
0, 0
0, 0
0, 0
1, 0
0, 1
0, 0
0, 0
0, 0
0, 0
0, 0
0, 0
0, 0
0, 1
0, 0
0, 0
0, 0
0, 0
0, 1
0, 0
2, 0
0, 0
0, 0
0, 0
0, 0
0, 0
0, 0
0, 0
0, 0
1, 0
1, 0
0, 0
0, 0
1, 1
1, 0
1, 0
0, 0
1, 1
0, 1
1, 1
2, 0
0, 0
0, 0
0, 0
0, 0
0, 0
0, 1
0, 0
1, 0
1, 0
0, 0
0, 0
0, 0
0, 0
0, 0
0, 1
0, 0
0, 0
0, 0
1, 0
0, 0
0, 0
0, 1
0, 0
0, 0
0, 0
0, 0
0, 0
0, 0
0, 1
0, 0
0, 0
0, 0
0, 0
0, 0
1, 0
0, 0
0, 1
0, 0
0, 0
0, 0
0, 0
0, 0
0, 0
0, 0
0, 0
0, 0
0, 0
0, 0
0, 1
0, 0
0, 0
0, 0
0, 0
0, 0
0, 0
0, 0
1, 0
0, 0
0, 0
0, 0
0, 0
0, 0
0, 0
0, 0
0, 0
0, 0
0, 0
0, 0
0, 0
0, 0
0, 0
0, 0
0, 0
0, 0
0, 0
0, 0
0, 0
0, 0
0, 0
0, 0
0, 0
0, 0
0, 0
0, 0
0, 0
0, 0
0, 0
0, 0
0, 0
1, 0
0, 0
0, 0
0, 0
0, 0
0, 1
0, 0
0, 0
0, 0
0, 0
0, 0
0, 0
0, 0
0, 0
0, 0
0, 0
0, 0
1, 0
0, 0
0, 0
0, 0
0, 0
0, 0
0, 0
0, 0
0, 0
0, 0
0, 0
0, 0
0, 0
0, 0
0, 0
0, 0
0, 0
0, 0
0, 0
0, 0
0, 0
0, 0
0, 0
1, 0
0, 0
0, 0
0, 1
0, 0
0, 0
0, 0
0, 0
0, 0
0, 0
0, 0
0, 0
0, 1
0, 0
0, 0
0, 0
0, 0
0, 0
0, 0
0, 0
0, 0
0, 0
0, 0
0, 0
0, 0
0, 0
0, 0
0, 0
0, 0
0, 0
0, 0
0, 0
0, 0
0, 0
0, 0
0, 0
0, 0
0, 1
0, 0
0, 0
0, 0
0, 0
0, 0
0, 0
0, 0
0, 0
0, 0
0, 0
0, 0
1, 0
0, 0
0, 0
0, 0
0, 0
0, 0
0, 0
0, 0
0, 0
0, 0
0, 0
0, 0
0, 0
0, 0
0, 0
0, 0
0, 0
0, 0
0, 0
0, 0
0, 0
0, 0
0, 0
0, 0
0, 0
0, 0
0, 0
0, 0
0, 0
0, 0
0, 0
0, 0
0, 0
0, 0
0, 0
0, 0
0, 0
0, 0
0, 0
0, 0
0, 0
0, 0
0, 0
0, 0
0, 0
0, 0
0, 0
0, 0
0, 0
0, 0
0, 0
0, 0
0, 0
0, 0
0, 0
0, 0
0, 0
0, 0
0, 0
0, 0
0, 0
0, 0
0, 0
0, 0
0, 0
0, 0
0, 0
0, 0
0, 0
0, 0
0, 0
0, 0
0, 0
0, 0
0, 0
0, 0
0, 0
0, 0
0, 0
0, 0
0, 0
0, 0
0, 0
0, 0
0, 0
0, 0
0, 0
0, 0
0, 0
0, 0
0, 0
0, 0
0, 0
0, 0
0, 0
0, 0
0, 0
0, 0
0, 0
0, 0
0, 0
0, 0
0, 0
0, 0
0, 0
0, 0
0, 0
0, 0
0, 0
0, 0
0, 0
0, 0
0, 0
0, 0
0, 0
0, 0
0, 0
0, 0
0, 0
0, 0
0, 0
0, 0
0, 0
0, 0
0, 0
0, 0
0, 0
0, 0
0, 0
0, 0
0, 0
0, 0
0, 0
0, 0
0, 0
0, 0
0, 0
0, 0
0, 0
0, 0
0, 0
0, 0
0, 0
0, 0
0, 0
0, 0
0, 0
0, 0
0, 0
0, 0
0, 0
0, 0
0, 0
0, 0
0, 0
0, 0
0, 0
0, 0
0, 0
0, 0
0, 0
0, 0
0, 0
0, 0
0, 0
0, 0
0, 0
0, 0
0, 0
0, 0
0, 0
0, 0
0, 0
0, 0
0, 0
0, 0
0, 0
0, 0
0, 0
0, 0
0, 0
0, 0
0, 0
0, 0
0, 0
0, 0
0, 0
0, 0
0, 0
0, 0
0, 0
0, 0
0, 0
0, 0
0, 0
0, 0
0, 0
0, 0
0, 0
0, 0
0, 0
0, 0
0, 0
0, 0
0, 0
0, 0
0, 0
0, 0
0, 0
0, 0
0, 0
0, 0
0, 0
0, 0
0, 0
0, 0
0, 0
0, 0
0, 0
0, 0
0, 0
0, 0
0, 0
0, 0
0, 0
0, 0
0, 0
0, 0
0, 0
0, 0
0, 0
0, 0
0, 0
0, 0
0, 0
0, 0
0, 0
0, 0
0, 0
0, 0
0, 0
0, 0
0, 0
0, 0
0, 0
0, 0
0, 0
0, 0
0, 0
0, 0
0, 0
0, 0
0, 0
0, 0
0, 0
0, 0
0, 0
0, 0
0, 0
0, 0
0, 0
0, 0
0, 0
0, 0
0, 0
0, 0
0, 0
0, 0
0, 0
0, 0
0, 0
0, 0
0, 0
0, 0
0, 0
0, 0
0, 0
0, 0
0, 0
0, 0
0, 0
0, 0
0, 0
0, 0
0, 0
0, 0
0, 0
0, 0
0, 0
0, 0
0, 0
0, 0
0, 0
0, 0
0, 0
0, 0
0, 0
0, 0
0, 0
0, 0
0, 0
0, 0
0, 0
0, 0
0, 0
0, 0
0, 0
0, 0
0, 0
0, 0
0, 0
0, 0
0, 0
0, 0
0, 0
0, 0
0, 0
0, 0
0, 0
0, 0
0, 0
0, 0
0, 0
0, 0
0, 0
0, 0
0, 0
0, 0
0, 0
0, 0
#ENDOFDATA     end of spectrum data