File: host_upload/06-09-2024/ps_0852/dump3/ps__0852shot_2000.msa
#FORMAT      : EMSA/MAS spectral data file
#VERSION     : TC202v2.0 PIXL
#TITLE       : N/A
#DATE        :       Date in the format DD-MMM-YYYY, for example 07-JUL-2010
#TIME        :             The time of day at which the spectrum was recorded, in 24-hour format
#OWNER       : PIXL Flight Model       (PIXL will use this to indicate which instrument took the data.)
#NPOINTS     : 4096     Number of data points in the spectrum (This can be zero for configuration only files)
#NCOLUMNS    : 2     Number of data columns in the spectrum (This can be zero for configuration only files)
#XUNITS      : eV
#YUNITS      : COUNTS
#DATATYPE    : YY
#XPERCHAN    : 7.862, 7.881   eV per channel (separate by commas if more than one detector)
#OFFSET      : 18.5, -22.4         eV of first channel  (separate by commas if more than one detector
#SIGNALTYPE  : XRF
#YP_TEMP     : 2.396
#LIVETIME    : 8.54756, 8.35674   seconds (separate by commas if more than one detector)
#REALTIME    : 10, 10.0   seconds (separate by commas if more than one detector)
#SPECTRUM    : start of spectrum data
0, 0
0, 0
0, 0
0, 0
0, 0
0, 0
0, 0
0, 0
0, 0
0, 0
0, 0
0, 0
0, 0
0, 0
0, 0
0, 0
0, 0
0, 0
0, 0
0, 0
0, 0
0, 0
0, 0
0, 0
0, 0
0, 0
0, 0
0, 0
0, 0
0, 0
0, 0
0, 0
0, 0
1, 0
1, 0
0, 0
0, 0
0, 0
0, 1
1, 0
0, 0
0, 1
0, 2
0, 0
2, 2
2, 1
2, 2
2, 4
9, 7
5, 14
18, 25
33, 43
43, 56
58, 66
67, 97
65, 68
56, 50
26, 45
17, 23
12, 12
8, 7
5, 6
4, 3
6, 1
1, 2
3, 4
1, 7
6, 10
16, 28
45, 40
66, 92
125, 180
207, 276
268, 293
326, 425
351, 421
314, 333
197, 289
157, 206
106, 98
54, 64
33, 34
22, 20
10, 10
8, 4
1, 3
2, 1
2, 4
1, 0
0, 0
1, 1
2, 2
7, 1
6, 8
7, 8
13, 13
25, 21
28, 19
24, 30
24, 36
21, 37
22, 19
15, 23
17, 14
9, 11
9, 8
7, 12
8, 5
4, 11
12, 12
12, 19
16, 28
17, 47
30, 42
30, 64
35, 56
46, 65
34, 62
34, 49
16, 30
24, 33
14, 18
14, 27
22, 21
21, 19
15, 20
10, 14
16, 9
10, 2
4, 5
2, 5
1, 2
1, 2
3, 4
3, 2
1, 2
2, 10
0, 3
2, 4
6, 4
1, 5
1, 4
1, 4
1, 0
1, 1
1, 3
2, 4
1, 1
3, 3
0, 2
3, 5
6, 12
4, 8
8, 11
11, 15
13, 14
14, 21
19, 13
22, 19
14, 16
14, 10
9, 9
13, 13
6, 12
8, 7
10, 3
5, 5
6, 7
6, 8
8, 8
5, 3
5, 6
3, 7
6, 7
5, 6
3, 11
6, 9
10, 8
11, 19
14, 12
8, 13
10, 14
5, 8
4, 9
5, 13
8, 7
8, 10
12, 9
4, 6
5, 10
7, 11
11, 18
6, 28
7, 25
11, 29
9, 27
11, 13
15, 20
16, 20
10, 19
10, 20
12, 23
11, 22
10, 28
7, 30
6, 25
6, 26
7, 29
8, 28
8, 19
5, 22
12, 14
9, 13
9, 15
5, 8
8, 8
15, 5
6, 7
11, 8
8, 2
6, 8
5, 6
8, 6
5, 9
12, 11
16, 9
9, 13
17, 14
26, 14
22, 16
19, 22
17, 26
23, 16
8, 14
14, 17
7, 6
8, 11
8, 24
10, 13
4, 3
9, 14
3, 12
11, 13
9, 14
11, 15
17, 28
27, 27
33, 39
33, 47
43, 62
47, 57
59, 55
49, 64
48, 62
38, 45
23, 26
34, 25
17, 30
26, 20
17, 31
21, 39
40, 35
46, 89
72, 133
126, 237
218, 359
366, 640
610, 999
841, 1389
1193, 1892
1552, 2177
1722, 2401
1777, 2494
1842, 2310
1585, 1948
1359, 1547
1034, 1160
768, 700
503, 487
287, 283
165, 151
81, 87
44, 38
30, 26
23, 24
20, 25
22, 13
10, 17
13, 12
22, 29
22, 30
27, 32
43, 49
53, 81
81, 138
90, 162
169, 242
217, 282
236, 341
298, 377
287, 377
262, 320
250, 283
207, 203
162, 147
113, 91
74, 74
51, 37
29, 19
19, 18
10, 9
9, 7
15, 12
13, 13
11, 6
7, 25
15, 15
9, 11
9, 15
13, 13
12, 19
8, 7
6, 9
8, 5
11, 6
9, 3
6, 5
4, 2
5, 4
2, 4
7, 6
4, 3
4, 9
6, 4
4, 8
4, 9
5, 5
5, 11
3, 9
7, 6
8, 13
7, 10
6, 20
8, 9
3, 13
4, 10
2, 12
5, 12
3, 8
4, 6
2, 7
4, 3
6, 2
2, 8
1, 8
3, 5
3, 8
5, 10
1, 9
1, 10
2, 10
2, 6
6, 7
2, 6
5, 7
2, 2
3, 4
2, 8
4, 2
5, 3
0, 9
6, 4
3, 4
4, 1
3, 3
1, 6
5, 5
4, 7
4, 2
4, 3
2, 2
8, 4
4, 4
5, 6
2, 3
1, 3
3, 8
4, 7
2, 6
3, 3
5, 5
2, 5
3, 3
1, 2
7, 2
2, 6
2, 2
4, 7
2, 6
2, 5
2, 2
4, 4
5, 1
2, 3
3, 3
7, 3
7, 5
4, 7
4, 5
6, 3
1, 4
3, 1
4, 6
4, 6
0, 6
4, 1
4, 5
0, 4
3, 3
1, 2
5, 4
2, 6
5, 2
1, 4
2, 3
4, 7
1, 2
4, 3
3, 6
1, 5
2, 4
2, 5
3, 7
0, 5
5, 2
2, 7
1, 10
1, 15
2, 5
7, 15
4, 10
2, 15
3, 9
4, 10
1, 9
1, 9
1, 5
3, 5
2, 4
0, 3
1, 3
1, 5
2, 1
3, 3
4, 5
3, 4
2, 1
1, 2
0, 4
0, 6
3, 3
1, 0
1, 3
2, 0
1, 5
5, 1
0, 5
3, 6
0, 3
2, 2
3, 4
2, 6
2, 4
0, 4
4, 4
2, 2
0, 2
2, 2
2, 2
1, 3
0, 2
0, 2
1, 0
2, 1
1, 1
2, 3
2, 1
3, 0
2, 2
2, 2
1, 3
0, 2
3, 3
1, 3
0, 6
1, 1
3, 2
1, 3
0, 4
3, 2
2, 2
3, 2
0, 3
1, 4
2, 2
0, 2
1, 1
0, 2
0, 4
2, 6
0, 2
2, 2
3, 3
1, 6
2, 5
1, 2
1, 1
2, 1
1, 0
1, 3
2, 4
2, 1
1, 3
1, 2
0, 3
4, 1
0, 4
3, 1
2, 2
2, 2
1, 3
2, 3
5, 2
0, 5
0, 2
2, 4
2, 2
2, 7
2, 3
1, 2
2, 2
1, 10
2, 5
3, 8
2, 4
2, 4
1, 2
2, 5
3, 2
3, 1
2, 2
3, 1
1, 0
2, 1
0, 0
0, 0
3, 1
0, 2
5, 2
1, 0
0, 2
0, 3
2, 1
2, 2
0, 3
2, 0
0, 1
0, 0
0, 2
1, 3
1, 0
1, 2
4, 1
0, 4
0, 1
0, 1
2, 1
1, 2
3, 0
1, 1
0, 2
0, 0
1, 1
1, 0
1, 1
0, 0
0, 1
0, 2
3, 1
0, 1
1, 0
0, 1
0, 1
0, 2
1, 3
2, 1
0, 4
0, 0
1, 0
1, 2
2, 1
0, 1
1, 2
0, 0
1, 1
1, 1
0, 0
0, 2
1, 1
1, 3
1, 0
1, 0
1, 1
0, 0
1, 4
0, 0
0, 1
1, 0
1, 1
1, 0
1, 1
2, 0
1, 2
0, 1
1, 2
2, 4
1, 1
1, 3
1, 0
0, 0
1, 1
0, 0
1, 0
3, 2
2, 3
1, 1
1, 0
0, 2
1, 1
1, 0
0, 0
0, 0
0, 0
0, 0
0, 0
0, 1
0, 0
3, 1
1, 2
0, 1
0, 1
0, 0
1, 1
2, 1
0, 0
1, 0
0, 1
1, 1
0, 0
1, 1
2, 0
1, 0
1, 1
0, 0
0, 0
1, 0
0, 0
1, 0
1, 3
2, 0
0, 0
0, 0
0, 0
0, 1
0, 0
0, 0
0, 0
1, 0
1, 0
1, 0
0, 0
0, 0
1, 0
0, 0
0, 0
0, 0
0, 1
0, 1
0, 2
0, 1
1, 1
1, 0
0, 0
0, 0
1, 1
0, 1
0, 0
0, 1
0, 2
0, 0
1, 1
0, 1
2, 0
0, 0
0, 2
2, 0
1, 0
0, 0
0, 0
0, 0
0, 0
0, 0
0, 0
0, 0
1, 0
4, 0
0, 1
1, 0
1, 1
2, 1
0, 1
1, 0
2, 1
0, 1
0, 0
1, 1
0, 1
0, 0
0, 1
0, 1
2, 1
0, 1
1, 1
0, 1
0, 0
0, 1
1, 0
0, 0
0, 0
0, 0
1, 1
0, 2
1, 0
0, 1
0, 0
0, 0
0, 0
0, 0
0, 1
0, 0
0, 0
0, 0
0, 0
0, 1
0, 0
0, 0
2, 0
0, 0
0, 1
0, 1
0, 1
0, 1
1, 0
0, 0
0, 0
0, 1
0, 0
0, 0
0, 1
0, 1
0, 1
1, 1
0, 0
1, 0
0, 0
0, 0
0, 0
0, 0
0, 0
0, 0
0, 1
0, 0
0, 0
0, 0
0, 2
0, 0
0, 0
0, 0
1, 0
0, 0
0, 1
1, 0
0, 0
1, 0
0, 1
0, 1
1, 1
0, 0
0, 0
0, 1
0, 0
0, 1
0, 0
0, 2
0, 0
0, 0
0, 0
0, 0
0, 1
0, 0
1, 1
0, 0
0, 0
1, 0
0, 1
0, 0
0, 0
0, 0
0, 0
1, 0
1, 0
0, 0
1, 0
1, 0
1, 0
0, 1
0, 1
0, 1
0, 0
0, 0
0, 0
0, 0
0, 0
0, 1
1, 0
1, 0
0, 0
0, 0
0, 0
0, 0
0, 0
0, 0
0, 0
0, 0
0, 0
0, 0
0, 0
0, 0
0, 0
0, 0
0, 1
0, 0
1, 0
0, 0
1, 0
0, 0
0, 1
0, 0
0, 1
0, 0
0, 0
1, 0
0, 0
1, 0
0, 1
0, 1
0, 0
0, 1
0, 0
0, 0
0, 1
0, 0
0, 0
0, 0
0, 0
0, 0
1, 1
0, 0
0, 1
0, 0
0, 0
0, 0
2, 0
0, 0
0, 1
0, 0
0, 0
0, 0
0, 0
0, 0
0, 1
0, 0
0, 0
0, 0
0, 0
0, 0
0, 0
0, 1
0, 0
1, 0
0, 0
0, 0
0, 0
0, 0
0, 0
0, 0
0, 0
0, 0
0, 0
0, 0
0, 0
0, 0
0, 0
0, 0
0, 0
1, 0
0, 0
0, 0
0, 0
0, 0
0, 1
0, 0
0, 0
0, 0
0, 0
1, 0
0, 0
0, 0
0, 0
0, 0
0, 0
0, 0
0, 0
0, 0
0, 0
0, 0
0, 0
0, 0
0, 0
0, 0
0, 0
0, 0
0, 0
0, 0
0, 0
0, 0
0, 0
0, 0
0, 0
0, 0
0, 0
0, 0
0, 1
0, 0
0, 0
0, 0
0, 0
0, 0
0, 0
0, 0
0, 0
0, 1
0, 0
0, 0
0, 0
0, 0
0, 0
0, 0
0, 0
0, 0
0, 0
0, 0
0, 0
0, 0
0, 0
0, 0
0, 0
0, 0
0, 0
0, 0
0, 0
0, 0
0, 0
0, 0
0, 0
0, 0
0, 0
0, 1
0, 0
0, 0
0, 0
0, 0
0, 0
0, 0
0, 0
0, 0
0, 0
0, 0
0, 0
0, 0
0, 0
0, 0
0, 0
0, 0
0, 0
0, 0
0, 0
0, 0
0, 0
0, 0
0, 0
0, 0
0, 0
0, 0
0, 0
0, 0
0, 0
0, 0
0, 0
0, 0
0, 0
0, 0
0, 0
0, 0
0, 0
0, 0
0, 0
0, 0
0, 0
0, 0
0, 0
0, 0
0, 0
0, 0
0, 0
0, 0
0, 0
0, 0
0, 0
0, 0
0, 0
0, 0
0, 0
0, 0
0, 0
0, 0
0, 0
0, 0
0, 0
0, 0
0, 0
0, 0
0, 0
0, 0
0, 0
0, 0
0, 0
0, 0
0, 0
0, 0
0, 0
0, 0
0, 1
0, 0
0, 0
0, 0
0, 0
0, 0
0, 0
0, 0
0, 0
0, 0
0, 0
0, 0
0, 0
0, 0
0, 0
0, 0
0, 0
0, 0
0, 0
0, 0
0, 0
0, 0
0, 0
0, 0
0, 0
0, 0
0, 0
0, 0
0, 0
0, 0
0, 0
0, 0
0, 0
0, 0
0, 0
0, 0
0, 0
0, 0
0, 0
0, 0
0, 0
0, 0
0, 0
0, 0
0, 0
0, 0
0, 0
0, 0
0, 0
0, 0
0, 0
0, 0
0, 0
0, 0
0, 0
0, 0
0, 0
0, 0
0, 0
0, 0
0, 0
0, 0
0, 0
0, 0
0, 0
0, 0
0, 0
0, 0
0, 0
0, 0
0, 0
0, 0
0, 0
0, 0
0, 0
0, 0
0, 0
0, 0
0, 0
0, 0
0, 0
0, 0
0, 0
0, 0
0, 0
0, 0
0, 0
0, 0
0, 0
0, 0
0, 0
0, 0
0, 0
0, 0
0, 0
0, 0
0, 0
0, 0
0, 0
0, 0
0, 0
0, 0
0, 0
0, 0
0, 0
0, 0
0, 0
0, 0
0, 0
0, 0
0, 0
0, 0
0, 0
0, 0
0, 0
0, 0
0, 0
0, 0
0, 0
0, 0
0, 0
0, 0
0, 0
0, 0
0, 0
0, 0
0, 0
0, 0
0, 0
0, 0
0, 0
0, 0
0, 0
0, 0
0, 0
0, 0
0, 0
0, 0
0, 0
0, 0
0, 0
0, 0
0, 0
0, 0
0, 0
0, 0
0, 0
0, 0
0, 0
0, 0
0, 0
0, 0
0, 0
0, 0
0, 0
0, 0
0, 0
0, 0
0, 0
0, 0
0, 0
0, 0
0, 0
0, 0
0, 0
0, 0
0, 0
0, 0
0, 0
0, 0
0, 0
0, 0
0, 0
0, 0
0, 0
0, 0
0, 0
0, 0
0, 0
0, 0
0, 0
0, 0
0, 0
0, 0
0, 0
0, 0
0, 0
0, 0
0, 0
0, 0
0, 0
0, 0
0, 0
0, 0
0, 0
0, 0
0, 0
0, 0
0, 0
0, 0
0, 0
0, 0
0, 0
0, 0
0, 0
0, 0
0, 0
0, 0
0, 0
0, 0
0, 0
0, 0
0, 0
0, 0
0, 0
0, 0
0, 0
0, 0
0, 0
0, 0
0, 0
0, 0
0, 0
0, 0
0, 0
0, 0
0, 0
0, 0
0, 0
0, 0
0, 0
0, 0
0, 0
0, 0
0, 0
0, 0
0, 0
0, 0
0, 0
0, 0
0, 0
0, 0
0, 0
0, 0
0, 0
0, 0
0, 0
0, 0
0, 0
0, 0
0, 0
0, 0
0, 0
0, 0
0, 0
0, 0
0, 0
0, 0
0, 0
0, 0
0, 0
0, 0
0, 0
0, 0
0, 0
0, 0
0, 0
0, 0
0, 0
0, 0
0, 0
0, 0
0, 0
0, 0
0, 0
0, 0
0, 0
0, 0
0, 0
0, 0
0, 0
0, 0
0, 0
0, 0
0, 0
0, 0
0, 0
0, 0
0, 0
0, 0
0, 0
0, 0
0, 0
0, 0
0, 0
0, 0
0, 0
0, 0
0, 0
0, 0
0, 0
0, 0
0, 0
0, 0
#ENDOFDATA     end of spectrum data