File: host_upload/06-09-2024/ps_0852/dump3/ps__0852shot_2087.msa
#FORMAT      : EMSA/MAS spectral data file
#VERSION     : TC202v2.0 PIXL
#TITLE       : N/A
#DATE        :       Date in the format DD-MMM-YYYY, for example 07-JUL-2010
#TIME        :             The time of day at which the spectrum was recorded, in 24-hour format
#OWNER       : PIXL Flight Model       (PIXL will use this to indicate which instrument took the data.)
#NPOINTS     : 4096     Number of data points in the spectrum (This can be zero for configuration only files)
#NCOLUMNS    : 2     Number of data columns in the spectrum (This can be zero for configuration only files)
#XUNITS      : eV
#YUNITS      : COUNTS
#DATATYPE    : YY
#XPERCHAN    : 7.862, 7.881   eV per channel (separate by commas if more than one detector)
#OFFSET      : 18.5, -22.4         eV of first channel  (separate by commas if more than one detector
#SIGNALTYPE  : XRF
#YP_TEMP     : 2.428
#LIVETIME    : 8.55785, 8.5531   seconds (separate by commas if more than one detector)
#REALTIME    : 10, 10.0   seconds (separate by commas if more than one detector)
#SPECTRUM    : start of spectrum data
0, 0
0, 0
0, 0
0, 0
0, 0
0, 0
0, 0
0, 0
0, 0
0, 0
0, 0
0, 0
0, 0
0, 0
0, 0
0, 0
0, 0
0, 0
0, 0
0, 0
0, 0
0, 0
0, 0
0, 0
0, 0
0, 0
0, 0
0, 0
0, 0
0, 0
0, 0
0, 0
0, 0
0, 0
0, 0
0, 0
2, 1
2, 1
7, 0
10, 2
11, 1
16, 4
9, 2
12, 4
11, 1
5, 4
4, 2
5, 6
12, 9
12, 15
26, 24
35, 43
50, 56
82, 77
78, 60
70, 71
65, 51
33, 35
33, 14
13, 18
5, 12
4, 5
4, 2
3, 3
4, 4
7, 4
6, 4
3, 11
30, 15
48, 59
77, 99
179, 154
242, 267
323, 344
406, 423
395, 426
363, 327
240, 271
199, 205
121, 140
70, 66
35, 34
21, 20
12, 15
5, 6
7, 4
7, 4
3, 5
5, 2
4, 2
4, 0
3, 1
0, 1
0, 2
1, 1
2, 3
2, 1
0, 3
2, 4
1, 4
3, 5
3, 3
1, 3
2, 3
2, 5
5, 2
9, 7
27, 14
36, 14
113, 27
181, 64
335, 75
477, 129
624, 166
802, 196
848, 198
800, 200
679, 177
513, 130
371, 87
224, 69
129, 55
63, 36
54, 23
19, 15
13, 13
16, 12
10, 9
8, 17
5, 8
3, 6
6, 4
3, 5
3, 1
2, 2
3, 2
0, 3
2, 5
0, 1
2, 3
1, 2
1, 3
2, 3
1, 3
2, 2
0, 0
1, 1
1, 2
1, 0
5, 3
2, 3
2, 4
6, 8
11, 6
5, 12
13, 12
9, 16
14, 20
14, 21
20, 20
9, 10
10, 8
6, 5
2, 8
4, 7
6, 7
14, 7
13, 8
27, 14
32, 12
46, 25
32, 16
47, 26
31, 12
43, 18
29, 10
28, 6
24, 4
21, 6
19, 5
22, 3
18, 4
5, 4
6, 3
14, 3
3, 4
6, 5
9, 7
5, 5
10, 10
9, 4
11, 6
11, 9
14, 6
14, 9
11, 13
20, 24
21, 14
12, 21
22, 21
15, 28
18, 19
5, 30
9, 33
4, 17
4, 18
6, 18
3, 15
4, 12
5, 6
3, 5
5, 9
7, 3
6, 7
2, 1
5, 6
4, 8
4, 6
6, 8
3, 11
9, 11
7, 22
8, 28
14, 28
11, 35
12, 19
12, 24
18, 30
11, 27
17, 33
14, 19
11, 17
18, 8
7, 11
22, 10
20, 10
22, 11
28, 7
22, 6
21, 2
28, 5
20, 6
14, 9
23, 10
19, 18
23, 25
26, 30
38, 41
43, 46
51, 71
53, 52
55, 77
61, 48
51, 51
44, 32
35, 29
29, 21
25, 20
18, 21
20, 18
23, 28
18, 44
47, 49
78, 114
143, 214
283, 361
500, 661
742, 938
1065, 1430
1405, 1855
1893, 2197
2145, 2484
2257, 2453
2275, 2381
1958, 2077
1610, 1598
1239, 1126
863, 765
553, 470
349, 266
214, 180
107, 83
83, 63
54, 46
34, 35
38, 31
35, 26
44, 23
43, 16
53, 29
42, 46
73, 46
75, 67
98, 83
138, 137
158, 169
179, 228
226, 309
358, 340
302, 352
352, 341
336, 353
295, 282
239, 234
209, 155
133, 114
87, 54
40, 42
36, 30
16, 24
13, 9
11, 9
8, 9
7, 18
4, 8
11, 10
11, 17
15, 8
8, 11
10, 14
11, 12
5, 14
7, 9
13, 9
7, 10
7, 2
3, 5
5, 4
4, 6
3, 3
4, 2
4, 6
8, 4
5, 9
7, 2
5, 10
3, 9
11, 6
8, 6
0, 12
4, 8
9, 3
4, 9
11, 16
7, 5
9, 9
7, 8
8, 13
10, 11
16, 6
24, 6
16, 6
30, 7
24, 3
18, 8
26, 6
18, 4
18, 4
11, 2
7, 3
10, 2
3, 5
5, 4
8, 5
4, 4
2, 0
4, 4
4, 1
3, 1
5, 4
1, 6
4, 7
5, 5
6, 6
5, 4
4, 6
1, 4
1, 4
3, 4
5, 3
3, 1
2, 5
4, 1
7, 7
4, 5
6, 5
3, 7
5, 8
6, 13
4, 4
4, 10
2, 8
2, 10
6, 7
7, 8
8, 7
7, 5
6, 7
4, 7
3, 10
1, 11
3, 5
1, 4
4, 4
1, 6
1, 1
3, 6
3, 6
4, 3
0, 2
5, 4
5, 5
6, 1
2, 3
2, 1
2, 0
2, 0
2, 4
1, 3
2, 1
3, 2
1, 1
3, 3
4, 5
3, 2
2, 3
6, 2
4, 4
1, 3
4, 2
2, 1
0, 1
2, 3
4, 2
3, 2
1, 3
1, 3
1, 2
4, 1
3, 4
1, 2
2, 5
2, 4
5, 4
1, 4
1, 7
5, 4
2, 0
1, 1
6, 8
3, 4
2, 7
5, 8
3, 4
2, 5
1, 3
6, 7
7, 4
8, 4
6, 2
3, 4
6, 1
5, 1
4, 3
2, 3
2, 2
2, 6
2, 4
4, 3
2, 2
1, 1
2, 1
4, 0
6, 1
0, 0
4, 4
0, 2
0, 3
1, 2
1, 1
1, 1
1, 1
1, 1
2, 2
1, 5
1, 1
2, 0
2, 3
0, 2
3, 1
4, 0
2, 4
2, 4
3, 1
2, 0
2, 2
1, 0
3, 2
1, 2
2, 1
2, 1
1, 5
1, 2
0, 3
3, 4
2, 3
2, 3
3, 4
4, 3
3, 1
4, 1
1, 3
1, 2
4, 4
2, 4
3, 4
2, 2
2, 2
4, 1
3, 4
1, 1
4, 4
3, 4
3, 0
2, 0
1, 1
4, 2
2, 2
3, 0
0, 2
2, 1
2, 1
2, 3
1, 2
1, 3
5, 2
3, 4
1, 2
1, 2
4, 4
3, 3
7, 4
3, 8
5, 5
2, 5
1, 3
5, 2
2, 1
0, 0
1, 1
5, 3
3, 1
1, 1
3, 1
0, 1
2, 1
2, 0
1, 0
3, 0
0, 3
1, 3
0, 1
3, 3
1, 2
1, 1
2, 3
1, 3
0, 6
1, 0
3, 0
2, 0
1, 2
2, 3
0, 3
3, 2
1, 1
1, 3
0, 0
3, 4
6, 0
0, 0
1, 3
1, 0
2, 1
0, 2
0, 1
0, 2
1, 1
2, 2
0, 1
2, 1
1, 2
0, 1
0, 1
1, 3
0, 0
3, 0
0, 1
1, 1
0, 1
2, 0
1, 0
4, 0
3, 1
2, 0
2, 0
2, 0
0, 0
2, 1
0, 0
1, 1
0, 0
0, 1
3, 2
2, 3
1, 2
1, 1
2, 1
2, 1
0, 1
2, 0
1, 0
2, 1
0, 2
0, 1
0, 2
1, 3
0, 0
1, 1
1, 2
2, 2
1, 2
2, 1
3, 1
0, 0
0, 1
1, 1
0, 0
1, 1
1, 1
0, 1
0, 0
0, 0
0, 2
3, 0
0, 0
2, 1
1, 0
0, 0
2, 0
2, 1
2, 0
1, 0
2, 1
1, 0
2, 1
0, 1
0, 1
0, 0
0, 0
1, 1
0, 1
2, 0
0, 1
0, 1
1, 0
0, 0
0, 1
2, 2
1, 2
1, 1
0, 0
0, 0
0, 0
1, 1
0, 0
0, 0
0, 1
0, 1
1, 0
0, 2
0, 0
0, 3
0, 1
1, 0
0, 0
0, 0
0, 0
1, 0
1, 1
0, 3
0, 0
1, 1
0, 0
0, 0
0, 0
0, 1
1, 0
0, 1
1, 1
0, 0
0, 0
0, 1
0, 0
1, 0
0, 0
0, 1
1, 1
0, 0
0, 0
1, 1
1, 0
0, 0
0, 0
2, 0
0, 0
0, 0
0, 0
1, 0
0, 1
0, 1
0, 0
0, 1
1, 1
0, 0
1, 1
0, 0
0, 0
0, 0
0, 0
1, 1
0, 0
0, 1
0, 0
0, 0
1, 0
0, 1
0, 0
0, 0
1, 0
0, 0
0, 0
0, 0
0, 0
0, 0
1, 1
0, 0
0, 0
1, 0
0, 0
0, 0
0, 0
0, 1
0, 0
0, 0
0, 0
0, 1
0, 0
0, 0
0, 0
1, 0
0, 0
0, 1
1, 1
2, 0
0, 3
0, 0
0, 0
0, 0
0, 0
0, 0
0, 0
0, 0
0, 0
0, 1
0, 0
0, 1
0, 0
1, 1
1, 0
0, 0
0, 0
0, 0
0, 0
0, 0
0, 0
0, 0
0, 0
0, 0
0, 1
0, 1
0, 0
0, 1
0, 0
0, 0
1, 0
0, 1
0, 2
0, 0
0, 0
0, 0
1, 0
0, 0
1, 0
1, 0
0, 0
0, 0
1, 0
1, 1
1, 0
1, 1
0, 0
0, 0
0, 0
0, 0
0, 0
0, 0
0, 0
0, 0
0, 0
0, 0
0, 1
0, 1
0, 0
0, 1
0, 0
0, 0
0, 0
0, 1
0, 0
0, 0
0, 0
0, 1
0, 0
0, 0
0, 0
0, 0
0, 0
1, 1
0, 0
0, 0
0, 0
0, 0
0, 0
0, 0
0, 0
0, 0
0, 0
0, 0
0, 0
0, 0
0, 0
0, 1
0, 0
0, 0
0, 0
0, 0
0, 0
1, 0
0, 1
0, 0
0, 0
2, 0
0, 0
0, 2
0, 0
0, 0
0, 0
0, 0
0, 0
0, 0
1, 0
0, 0
0, 0
0, 0
0, 0
0, 0
0, 0
0, 0
0, 0
0, 1
0, 0
0, 1
0, 0
1, 0
0, 1
0, 0
0, 0
0, 0
0, 0
0, 0
0, 0
0, 0
0, 0
0, 0
1, 0
0, 0
0, 0
0, 0
0, 0
1, 0
0, 1
0, 0
0, 0
0, 0
0, 0
0, 0
0, 0
0, 0
1, 0
0, 0
0, 0
0, 0
0, 0
0, 0
0, 0
0, 0
0, 0
0, 0
0, 0
0, 1
1, 0
0, 0
0, 0
0, 0
0, 0
0, 0
0, 0
0, 0
0, 0
0, 0
0, 0
0, 0
0, 0
0, 0
0, 0
0, 0
0, 0
0, 0
0, 0
0, 0
0, 0
0, 0
0, 1
0, 0
0, 0
0, 0
0, 0
0, 0
0, 0
0, 0
0, 1
0, 0
0, 0
0, 0
0, 0
0, 0
0, 0
0, 0
0, 0
0, 0
0, 0
0, 0
0, 0
1, 2
0, 0
0, 0
0, 0
0, 0
0, 0
0, 0
0, 0
0, 0
0, 0
1, 0
0, 0
0, 0
0, 1
0, 0
0, 0
0, 0
0, 0
0, 0
1, 0
0, 0
0, 0
0, 0
0, 0
0, 0
0, 0
0, 0
0, 0
0, 0
0, 0
0, 0
0, 0
0, 0
0, 0
0, 0
0, 0
0, 0
0, 0
0, 0
0, 0
0, 0
0, 0
0, 0
0, 0
0, 0
0, 0
0, 0
0, 0
0, 0
0, 0
0, 0
0, 0
0, 0
0, 0
0, 0
0, 0
0, 0
0, 0
0, 0
1, 0
0, 0
0, 0
0, 0
0, 0
0, 0
0, 0
0, 0
0, 0
0, 0
0, 0
0, 0
0, 0
0, 0
0, 0
0, 0
0, 0
0, 0
0, 0
0, 0
0, 0
0, 0
0, 1
0, 0
0, 0
0, 0
0, 0
0, 0
0, 0
0, 0
0, 0
0, 0
0, 0
0, 0
0, 0
0, 0
0, 0
0, 0
0, 0
0, 0
0, 0
0, 0
0, 0
0, 0
0, 0
0, 0
0, 0
0, 0
0, 0
0, 0
0, 0
0, 0
0, 0
0, 0
0, 0
0, 0
0, 0
0, 0
0, 0
0, 0
0, 0
0, 0
0, 0
0, 0
0, 0
0, 0
0, 0
0, 0
0, 0
0, 0
0, 0
0, 0
0, 0
0, 0
1, 0
0, 0
0, 0
0, 0
0, 0
0, 0
0, 0
0, 0
0, 0
0, 0
0, 0
0, 0
0, 0
0, 0
0, 0
0, 0
0, 0
0, 0
0, 0
0, 0
0, 0
0, 0
0, 0
0, 0
0, 0
0, 0
0, 0
0, 0
0, 0
0, 0
0, 0
0, 0
0, 0
0, 0
0, 0
0, 0
0, 0
0, 0
0, 0
0, 0
0, 0
0, 0
0, 0
0, 0
0, 0
0, 0
0, 0
0, 0
0, 0
0, 0
0, 0
0, 0
0, 0
0, 0
0, 0
0, 0
0, 0
0, 0
0, 0
0, 0
0, 0
0, 0
0, 0
0, 0
0, 0
0, 0
0, 0
0, 0
0, 0
0, 0
0, 0
0, 0
0, 0
0, 0
0, 0
0, 0
0, 0
0, 0
0, 0
0, 0
0, 0
0, 0
0, 0
0, 0
0, 0
0, 0
0, 0
0, 0
0, 0
0, 0
0, 0
0, 0
0, 0
0, 0
0, 0
0, 0
0, 0
0, 0
0, 0
0, 0
0, 0
0, 0
0, 0
0, 0
0, 0
0, 0
0, 0
0, 0
0, 0
0, 0
0, 0
0, 0
0, 0
0, 0
0, 0
0, 0
0, 0
0, 0
0, 0
0, 0
0, 0
0, 0
0, 0
0, 0
0, 0
0, 0
0, 0
0, 0
0, 0
0, 0
0, 0
0, 0
0, 0
0, 0
0, 0
0, 0
0, 0
0, 0
0, 0
0, 0
0, 0
0, 0
0, 0
0, 0
0, 0
0, 0
0, 0
0, 0
0, 0
0, 0
0, 0
0, 0
0, 0
0, 0
0, 0
0, 0
0, 0
0, 0
0, 0
0, 0
0, 0
0, 0
0, 0
0, 0
0, 0
0, 0
0, 0
0, 0
0, 0
0, 0
0, 0
0, 0
0, 0
0, 0
0, 0
0, 0
0, 0
0, 0
0, 0
0, 0
0, 0
0, 0
0, 0
0, 0
0, 0
0, 0
0, 0
0, 0
0, 0
0, 0
0, 0
0, 0
0, 0
0, 0
0, 0
0, 0
0, 0
0, 0
0, 0
0, 0
0, 0
0, 0
0, 0
0, 0
0, 0
0, 0
0, 0
0, 0
0, 0
0, 0
0, 0
0, 0
0, 0
0, 0
0, 0
0, 0
0, 0
0, 0
0, 0
0, 0
0, 0
0, 0
0, 0
0, 0
0, 0
0, 0
0, 0
0, 0
0, 0
0, 0
0, 0
0, 0
0, 0
0, 0
0, 0
0, 0
0, 0
0, 0
0, 0
0, 0
0, 0
0, 0
0, 0
0, 0
0, 0
0, 0
0, 0
0, 0
0, 0
0, 0
0, 0
0, 0
0, 0
0, 0
0, 0
0, 0
0, 0
0, 0
0, 0
0, 0
0, 0
0, 0
0, 0
0, 0
0, 0
0, 0
0, 0
0, 0
0, 0
#ENDOFDATA     end of spectrum data