File: host_upload/06-09-2024/ps_0852/dump3/ps__0852shot_2005.msa
#FORMAT      : EMSA/MAS spectral data file
#VERSION     : TC202v2.0 PIXL
#TITLE       : N/A
#DATE        :       Date in the format DD-MMM-YYYY, for example 07-JUL-2010
#TIME        :             The time of day at which the spectrum was recorded, in 24-hour format
#OWNER       : PIXL Flight Model       (PIXL will use this to indicate which instrument took the data.)
#NPOINTS     : 4096     Number of data points in the spectrum (This can be zero for configuration only files)
#NCOLUMNS    : 2     Number of data columns in the spectrum (This can be zero for configuration only files)
#XUNITS      : eV
#YUNITS      : COUNTS
#DATATYPE    : YY
#XPERCHAN    : 7.862, 7.881   eV per channel (separate by commas if more than one detector)
#OFFSET      : 18.5, -22.4         eV of first channel  (separate by commas if more than one detector
#SIGNALTYPE  : XRF
#YP_TEMP     : 2.492
#LIVETIME    : 8.53377, 8.52464   seconds (separate by commas if more than one detector)
#REALTIME    : 10, 10.0   seconds (separate by commas if more than one detector)
#SPECTRUM    : start of spectrum data
0, 0
0, 0
0, 0
0, 0
0, 0
0, 0
0, 0
0, 0
0, 0
0, 0
0, 0
0, 0
0, 0
0, 0
0, 0
0, 0
0, 0
0, 0
0, 0
0, 0
0, 0
0, 0
0, 0
0, 0
0, 0
0, 0
0, 0
0, 0
0, 0
0, 0
0, 0
0, 0
0, 0
0, 2
0, 0
2, 0
2, 0
1, 1
0, 1
1, 0
0, 1
0, 2
3, 1
0, 2
1, 0
2, 0
2, 2
2, 2
7, 6
8, 10
34, 22
40, 38
52, 67
72, 59
75, 82
71, 67
52, 61
41, 36
33, 19
27, 13
2, 9
4, 9
4, 2
5, 2
7, 4
3, 3
9, 7
9, 10
29, 27
53, 52
111, 104
188, 178
258, 275
372, 368
438, 382
387, 392
421, 383
334, 297
208, 214
131, 97
87, 70
40, 33
27, 17
9, 5
6, 7
3, 2
1, 1
2, 1
0, 1
1, 1
0, 1
3, 1
2, 1
2, 0
2, 6
7, 3
8, 6
4, 6
11, 11
7, 5
11, 6
4, 11
9, 5
8, 7
5, 1
7, 6
9, 13
8, 10
20, 15
19, 17
35, 29
38, 34
59, 50
68, 44
81, 54
93, 49
87, 63
81, 53
53, 47
51, 44
36, 48
36, 37
24, 41
24, 27
25, 16
12, 8
15, 23
11, 13
12, 6
6, 7
7, 8
4, 5
3, 6
4, 2
5, 2
1, 1
2, 6
3, 1
0, 3
6, 4
2, 4
3, 1
1, 1
6, 2
2, 3
4, 3
8, 1
3, 6
2, 6
3, 1
6, 4
5, 9
8, 8
10, 7
9, 14
15, 16
19, 18
19, 21
27, 19
23, 15
17, 8
9, 8
6, 9
8, 11
3, 4
2, 6
7, 3
11, 3
9, 7
6, 4
14, 4
10, 5
5, 6
11, 4
11, 5
9, 8
8, 3
7, 7
6, 7
7, 13
14, 15
6, 9
4, 8
10, 6
1, 4
4, 7
5, 6
7, 13
9, 6
2, 9
13, 10
12, 12
13, 10
11, 10
27, 12
19, 7
21, 16
23, 13
28, 16
28, 13
18, 19
18, 7
21, 14
9, 5
7, 5
11, 9
9, 7
13, 5
8, 6
13, 10
10, 6
12, 9
17, 12
20, 6
18, 12
17, 13
11, 8
12, 5
13, 9
5, 7
5, 4
7, 6
9, 14
12, 8
7, 8
10, 9
11, 8
21, 8
23, 19
22, 17
14, 19
12, 16
14, 31
16, 21
14, 18
7, 31
15, 27
15, 32
7, 43
12, 19
5, 19
4, 30
8, 17
13, 17
20, 27
13, 39
25, 35
29, 38
62, 52
57, 72
70, 68
70, 58
52, 58
54, 46
39, 38
35, 25
25, 14
26, 17
20, 20
17, 20
25, 23
32, 39
49, 76
88, 109
152, 175
294, 347
485, 612
791, 938
1137, 1257
1564, 1695
1980, 2021
2235, 2235
2459, 2431
2359, 2205
2094, 1903
1796, 1456
1348, 1043
982, 715
616, 452
372, 258
238, 139
116, 79
69, 53
43, 26
24, 13
20, 16
21, 18
13, 16
17, 19
21, 16
37, 25
27, 45
60, 58
71, 80
105, 113
146, 157
211, 234
287, 291
313, 325
330, 340
400, 315
370, 313
337, 291
286, 204
216, 160
160, 83
82, 81
66, 41
46, 25
28, 17
17, 10
16, 6
17, 9
6, 9
7, 8
15, 11
15, 10
13, 15
19, 9
31, 11
17, 8
13, 12
16, 8
20, 11
11, 3
12, 6
14, 5
12, 2
8, 4
10, 6
3, 8
6, 12
2, 9
8, 8
7, 3
6, 3
9, 6
5, 8
6, 4
4, 1
6, 7
4, 8
7, 4
7, 6
7, 7
8, 7
7, 1
21, 6
5, 8
5, 4
7, 8
8, 7
6, 4
10, 2
5, 6
9, 4
15, 6
8, 2
17, 3
13, 6
13, 6
12, 6
13, 2
15, 8
13, 3
6, 4
6, 4
13, 6
6, 2
5, 4
6, 7
7, 7
6, 3
3, 3
7, 4
1, 3
3, 4
7, 2
3, 3
3, 7
5, 10
6, 6
3, 7
7, 9
2, 5
9, 8
5, 8
3, 6
7, 5
4, 4
8, 4
6, 1
7, 5
5, 3
7, 4
5, 3
6, 5
5, 5
4, 2
5, 5
6, 5
6, 2
3, 6
6, 4
4, 6
2, 3
2, 6
2, 7
1, 9
3, 7
8, 8
4, 7
8, 10
5, 13
1, 6
3, 8
3, 3
0, 6
5, 3
1, 5
2, 4
6, 4
4, 4
4, 6
4, 5
4, 1
4, 2
5, 8
2, 4
2, 4
3, 5
8, 7
3, 4
5, 4
1, 3
6, 7
2, 6
1, 4
2, 3
5, 7
3, 1
0, 3
5, 3
4, 2
2, 1
3, 3
4, 2
4, 4
3, 1
2, 0
4, 4
3, 3
5, 2
2, 2
3, 1
1, 2
0, 1
2, 2
5, 7
6, 7
6, 1
3, 5
2, 4
4, 2
4, 5
1, 1
1, 2
4, 5
3, 0
4, 2
4, 3
2, 2
2, 4
4, 0
3, 0
2, 2
2, 1
0, 3
2, 1
3, 1
3, 2
3, 3
2, 3
0, 1
3, 3
3, 2
5, 2
4, 1
0, 3
5, 3
3, 2
5, 1
2, 5
1, 5
3, 1
2, 3
4, 3
3, 4
1, 2
2, 2
2, 0
1, 4
1, 0
3, 5
0, 2
1, 2
0, 0
2, 1
1, 1
0, 2
1, 1
3, 3
0, 4
0, 4
2, 1
2, 6
3, 1
5, 1
3, 2
1, 1
2, 3
2, 3
0, 3
1, 1
2, 1
3, 1
5, 1
2, 3
4, 2
3, 4
4, 5
2, 3
3, 3
4, 0
3, 0
3, 1
2, 1
6, 8
4, 4
2, 4
5, 3
5, 1
5, 6
1, 1
5, 0
6, 4
3, 1
2, 2
2, 1
3, 1
1, 3
0, 1
2, 3
1, 6
1, 1
0, 2
1, 0
0, 6
0, 3
0, 1
1, 6
2, 1
2, 4
1, 1
3, 6
3, 2
3, 5
2, 2
2, 1
3, 0
3, 1
4, 0
3, 2
0, 0
0, 3
0, 0
0, 3
5, 3
2, 1
3, 1
1, 0
1, 0
2, 0
2, 1
2, 1
1, 0
2, 1
0, 1
1, 0
1, 1
2, 1
0, 2
0, 0
1, 0
0, 1
1, 1
0, 1
3, 1
1, 0
1, 0
1, 0
1, 0
2, 1
1, 2
1, 1
0, 0
3, 1
0, 0
0, 2
0, 1
0, 2
1, 1
1, 1
2, 1
0, 2
0, 1
2, 0
0, 3
0, 1
0, 0
2, 1
1, 0
0, 0
0, 2
0, 1
2, 2
1, 1
0, 1
0, 1
0, 0
0, 2
1, 2
1, 1
2, 2
1, 0
1, 2
0, 1
1, 1
2, 0
1, 0
0, 1
1, 0
1, 2
0, 2
1, 1
2, 1
1, 0
1, 0
1, 0
1, 1
1, 0
2, 1
0, 0
0, 1
0, 1
0, 0
0, 1
1, 0
3, 0
0, 0
1, 1
1, 0
0, 1
0, 0
0, 0
1, 0
1, 0
1, 1
1, 1
0, 0
0, 0
1, 0
0, 0
0, 0
1, 0
0, 0
0, 0
0, 0
1, 0
1, 0
0, 3
0, 0
0, 0
0, 1
0, 0
0, 0
0, 0
1, 0
0, 0
0, 1
1, 0
0, 0
0, 0
0, 1
0, 1
0, 1
0, 0
0, 1
1, 0
0, 1
0, 1
1, 1
0, 2
0, 1
0, 0
0, 1
0, 1
1, 0
0, 0
0, 1
0, 0
0, 1
0, 0
1, 1
2, 0
0, 0
1, 1
1, 1
2, 0
0, 0
3, 0
0, 2
1, 0
0, 0
0, 1
0, 1
0, 0
1, 1
2, 1
0, 0
0, 2
0, 0
1, 0
1, 0
0, 0
0, 0
0, 0
0, 0
0, 0
0, 0
0, 0
0, 0
1, 0
0, 0
0, 0
0, 0
0, 2
0, 0
1, 1
1, 0
1, 0
0, 0
1, 0
1, 0
0, 1
0, 0
0, 0
0, 0
0, 0
0, 0
0, 1
1, 0
0, 0
1, 1
1, 0
1, 0
0, 0
0, 1
0, 0
1, 0
0, 0
0, 0
0, 0
0, 0
0, 0
0, 0
1, 0
0, 0
1, 0
0, 0
0, 1
0, 0
0, 0
0, 0
0, 0
0, 1
0, 1
0, 0
0, 0
3, 1
0, 0
1, 0
0, 1
1, 0
0, 0
0, 0
0, 1
1, 0
0, 0
0, 0
0, 0
0, 0
0, 0
0, 0
0, 1
0, 0
0, 1
0, 1
0, 0
0, 0
1, 0
1, 0
1, 0
0, 0
0, 0
1, 0
0, 0
0, 1
0, 1
0, 1
0, 0
0, 0
0, 0
0, 0
0, 0
0, 0
0, 0
0, 0
0, 0
0, 0
0, 2
0, 0
0, 0
0, 0
0, 0
0, 0
1, 0
0, 0
0, 0
0, 1
0, 0
0, 0
0, 0
0, 0
0, 0
0, 0
1, 1
0, 0
0, 0
0, 0
0, 0
0, 1
2, 0
0, 0
0, 0
0, 0
0, 0
0, 0
0, 0
0, 1
0, 0
0, 1
0, 0
0, 0
0, 0
0, 0
0, 0
0, 0
1, 0
0, 0
0, 0
0, 0
1, 0
0, 0
0, 0
0, 0
0, 0
0, 0
0, 0
0, 0
0, 0
0, 0
0, 0
0, 0
0, 0
0, 0
0, 0
0, 0
0, 0
0, 0
0, 0
0, 0
0, 0
0, 0
0, 0
0, 0
0, 0
0, 0
0, 0
0, 0
0, 0
0, 0
0, 0
0, 0
0, 0
0, 0
0, 0
0, 0
0, 0
0, 0
0, 0
0, 0
0, 0
0, 0
0, 0
0, 0
0, 0
0, 0
0, 0
0, 0
0, 0
0, 0
0, 0
0, 0
0, 0
0, 0
0, 0
0, 0
0, 0
0, 0
0, 0
0, 0
0, 0
0, 0
0, 0
0, 1
0, 0
0, 0
0, 0
0, 0
0, 0
0, 0
0, 0
0, 0
0, 0
0, 0
0, 0
0, 0
0, 0
0, 0
0, 0
0, 0
0, 0
0, 0
0, 0
0, 0
0, 0
0, 0
0, 0
0, 0
0, 0
0, 0
0, 0
0, 0
0, 0
0, 0
0, 0
0, 0
0, 0
0, 0
0, 0
0, 0
0, 0
0, 0
0, 0
0, 0
0, 0
0, 0
0, 0
0, 0
0, 0
0, 1
0, 0
0, 0
0, 0
0, 0
0, 0
0, 0
0, 0
0, 0
0, 0
0, 0
0, 1
0, 0
0, 0
0, 0
0, 0
0, 0
0, 0
0, 0
0, 0
0, 0
0, 0
0, 0
0, 0
0, 0
0, 0
0, 0
0, 0
0, 0
0, 0
0, 0
0, 0
0, 0
0, 1
0, 0
0, 0
0, 0
0, 0
0, 0
0, 0
0, 0
0, 0
0, 0
0, 0
0, 0
0, 0
0, 0
0, 0
0, 0
0, 0
0, 0
0, 0
0, 0
0, 0
0, 0
0, 0
0, 0
0, 0
0, 0
0, 0
0, 0
0, 0
0, 0
0, 0
0, 0
0, 0
0, 0
0, 0
0, 0
0, 0
0, 0
0, 0
0, 0
0, 0
0, 0
0, 0
0, 0
0, 0
0, 0
0, 0
0, 0
0, 0
0, 0
0, 0
0, 0
0, 0
0, 0
0, 0
0, 0
0, 0
0, 0
0, 0
0, 0
0, 0
0, 0
0, 0
0, 0
0, 0
0, 0
0, 0
0, 0
0, 0
0, 0
0, 0
0, 0
0, 0
0, 0
0, 0
0, 0
0, 0
0, 0
0, 0
0, 0
0, 0
0, 0
0, 0
0, 0
0, 0
0, 0
0, 0
0, 0
0, 0
0, 0
0, 0
0, 0
0, 0
0, 0
0, 0
0, 0
0, 0
0, 0
0, 0
0, 0
0, 0
0, 0
0, 0
0, 0
0, 0
0, 0
0, 0
0, 0
0, 0
0, 0
0, 0
0, 0
0, 0
0, 0
0, 0
0, 0
0, 0
0, 0
0, 0
0, 0
0, 0
0, 0
0, 0
0, 0
0, 0
0, 0
0, 0
0, 0
0, 0
0, 0
0, 0
0, 0
0, 0
0, 0
0, 0
0, 0
0, 0
0, 0
0, 0
0, 0
0, 0
0, 0
0, 0
0, 0
0, 0
0, 0
0, 0
0, 0
0, 0
0, 0
0, 0
0, 0
0, 0
0, 0
0, 0
0, 0
0, 0
0, 0
0, 0
0, 0
0, 0
0, 0
0, 0
0, 0
0, 0
0, 0
0, 0
0, 0
0, 0
0, 0
0, 0
0, 0
0, 0
0, 0
0, 0
0, 0
0, 0
0, 0
0, 0
0, 0
0, 0
0, 0
0, 0
0, 0
0, 0
0, 0
0, 0
0, 0
0, 0
0, 0
0, 0
0, 0
0, 0
0, 0
0, 0
0, 0
0, 0
0, 0
0, 0
0, 0
0, 0
0, 0
0, 0
0, 0
0, 0
0, 0
0, 0
0, 0
0, 0
0, 0
0, 0
0, 0
0, 0
0, 0
0, 0
0, 0
0, 0
0, 0
0, 0
0, 0
0, 0
0, 0
0, 0
0, 0
0, 0
0, 0
0, 0
0, 0
0, 0
0, 0
0, 0
0, 0
0, 0
0, 0
0, 0
0, 0
0, 0
0, 0
0, 0
0, 0
0, 0
0, 0
0, 0
0, 0
0, 0
0, 0
0, 0
0, 0
0, 0
0, 0
0, 0
0, 0
0, 0
0, 0
0, 0
0, 0
0, 0
0, 0
0, 0
0, 0
0, 0
0, 0
0, 0
0, 0
0, 0
0, 0
0, 0
0, 0
0, 0
0, 0
0, 0
0, 0
0, 0
0, 0
0, 0
0, 0
0, 0
0, 0
0, 0
0, 0
0, 0
0, 0
0, 0
0, 0
0, 0
0, 0
0, 0
0, 0
0, 0
0, 0
0, 0
0, 0
0, 0
0, 0
0, 0
0, 0
0, 0
0, 0
0, 0
0, 0
0, 0
0, 0
0, 0
0, 0
0, 0
0, 0
0, 0
0, 0
0, 0
0, 0
0, 0
0, 0
0, 0
0, 0
0, 0
0, 0
0, 0
0, 0
0, 0
0, 0
0, 0
0, 0
0, 0
0, 0
0, 0
0, 0
0, 0
0, 0
0, 0
0, 0
0, 0
0, 0
0, 0
0, 0
0, 0
0, 0
0, 0
0, 0
0, 0
0, 0
0, 0
0, 0
0, 0
0, 0
0, 0
0, 0
0, 0
0, 0
0, 0
0, 0
0, 0
0, 0
#ENDOFDATA     end of spectrum data