File: host_upload/06-09-2024/ps_0852/dump3/ps__0852shot_2402.msa
#FORMAT      : EMSA/MAS spectral data file
#VERSION     : TC202v2.0 PIXL
#TITLE       : N/A
#DATE        :       Date in the format DD-MMM-YYYY, for example 07-JUL-2010
#TIME        :             The time of day at which the spectrum was recorded, in 24-hour format
#OWNER       : PIXL Flight Model       (PIXL will use this to indicate which instrument took the data.)
#NPOINTS     : 4096     Number of data points in the spectrum (This can be zero for configuration only files)
#NCOLUMNS    : 2     Number of data columns in the spectrum (This can be zero for configuration only files)
#XUNITS      : eV
#YUNITS      : COUNTS
#DATATYPE    : YY
#XPERCHAN    : 7.862, 7.881   eV per channel (separate by commas if more than one detector)
#OFFSET      : 18.5, -22.4         eV of first channel  (separate by commas if more than one detector
#SIGNALTYPE  : XRF
#YP_TEMP     : 2.3
#LIVETIME    : 8.55662, 8.54817   seconds (separate by commas if more than one detector)
#REALTIME    : 10, 10.0   seconds (separate by commas if more than one detector)
#SPECTRUM    : start of spectrum data
0, 0
0, 0
0, 0
0, 0
0, 0
0, 0
0, 0
0, 0
0, 0
0, 0
0, 0
0, 0
0, 0
0, 0
0, 0
0, 0
0, 0
0, 0
0, 0
0, 0
0, 0
0, 0
0, 0
0, 0
0, 0
0, 0
0, 0
0, 0
0, 0
0, 0
0, 0
0, 0
0, 0
0, 0
0, 0
1, 2
0, 0
1, 0
1, 0
2, 0
1, 0
1, 0
0, 1
1, 1
2, 3
0, 3
0, 2
2, 1
4, 7
13, 18
24, 21
46, 43
62, 57
77, 84
96, 91
82, 87
75, 73
59, 47
26, 27
18, 13
6, 8
4, 3
3, 5
1, 5
4, 5
2, 4
1, 10
11, 9
20, 26
54, 44
90, 100
174, 216
285, 276
378, 345
444, 401
425, 418
388, 386
306, 296
208, 197
138, 120
57, 76
35, 29
23, 20
11, 10
5, 8
1, 4
5, 2
1, 4
0, 2
0, 0
1, 0
1, 3
1, 1
2, 0
4, 1
1, 1
4, 1
4, 4
6, 6
2, 4
3, 7
3, 7
6, 5
3, 9
3, 9
7, 5
6, 4
6, 8
12, 11
14, 6
13, 16
31, 22
28, 36
34, 36
39, 42
59, 47
63, 41
41, 48
48, 43
37, 41
18, 25
21, 18
26, 22
23, 25
15, 19
12, 7
13, 17
13, 15
9, 6
10, 9
7, 6
4, 1
5, 3
0, 5
4, 1
1, 2
0, 3
3, 2
0, 1
1, 3
0, 2
1, 3
2, 3
1, 1
2, 4
1, 3
2, 2
3, 3
4, 2
4, 5
6, 4
8, 4
9, 7
9, 11
15, 15
19, 29
23, 32
20, 22
27, 17
27, 24
25, 13
8, 12
4, 8
9, 9
8, 2
1, 2
1, 10
6, 8
5, 6
12, 10
4, 9
4, 7
7, 12
5, 4
8, 6
13, 8
16, 8
17, 6
13, 3
11, 6
13, 7
14, 3
10, 8
15, 4
11, 5
9, 6
6, 7
15, 9
10, 2
7, 5
15, 3
17, 2
7, 12
13, 12
11, 15
16, 12
15, 13
10, 14
18, 9
19, 13
17, 9
15, 14
12, 16
6, 10
3, 11
15, 10
4, 15
4, 9
2, 11
2, 14
9, 8
5, 8
7, 10
4, 7
6, 9
7, 5
4, 6
7, 7
4, 7
6, 5
4, 5
5, 8
9, 9
10, 8
9, 13
11, 6
8, 7
18, 14
21, 11
24, 16
17, 21
25, 18
25, 12
18, 10
8, 13
10, 13
9, 9
8, 11
10, 15
7, 14
10, 14
12, 23
9, 19
17, 31
13, 39
22, 42
21, 52
45, 56
42, 77
61, 61
66, 75
62, 65
59, 74
54, 51
42, 48
25, 35
28, 28
18, 16
15, 25
15, 23
14, 23
20, 28
41, 55
76, 98
145, 176
284, 296
460, 599
733, 860
1136, 1384
1581, 1692
2039, 2162
2285, 2342
2489, 2493
2395, 2222
2160, 1973
1819, 1478
1316, 1044
1017, 764
619, 490
348, 233
196, 141
108, 94
56, 40
30, 31
18, 21
18, 17
17, 21
13, 20
19, 10
26, 21
21, 29
29, 40
50, 59
73, 80
109, 117
166, 165
188, 224
261, 275
313, 351
333, 355
376, 393
356, 328
339, 289
256, 199
224, 155
134, 118
95, 85
50, 55
29, 38
7, 37
7, 28
7, 27
8, 29
7, 20
8, 21
11, 17
17, 14
9, 16
8, 11
13, 21
11, 7
13, 12
5, 7
8, 5
7, 8
10, 5
4, 3
8, 5
6, 5
4, 3
3, 0
3, 5
1, 4
5, 6
3, 2
3, 7
4, 6
4, 6
5, 7
5, 8
2, 7
5, 7
6, 12
4, 8
8, 15
2, 14
7, 12
3, 24
3, 23
7, 28
8, 23
7, 19
5, 16
6, 13
15, 17
6, 9
10, 13
4, 8
11, 6
6, 3
4, 4
7, 3
5, 3
4, 4
12, 2
3, 3
8, 5
7, 4
13, 3
5, 1
5, 5
4, 4
7, 5
6, 2
1, 3
5, 4
6, 4
4, 4
3, 5
6, 3
6, 7
12, 3
2, 7
1, 3
5, 9
3, 6
1, 12
3, 8
2, 2
2, 3
4, 4
6, 4
4, 6
3, 6
3, 4
4, 7
6, 9
7, 2
8, 3
3, 4
3, 5
4, 6
7, 4
10, 4
4, 8
8, 7
9, 8
3, 7
9, 5
7, 5
5, 3
2, 8
4, 2
4, 3
5, 5
2, 4
3, 2
6, 3
6, 4
4, 3
2, 5
3, 3
0, 2
5, 0
4, 1
5, 6
0, 3
3, 5
3, 2
2, 0
3, 1
0, 1
0, 1
5, 2
1, 1
3, 3
2, 4
2, 3
2, 3
0, 2
2, 4
4, 2
4, 1
3, 2
4, 2
2, 1
5, 2
5, 4
6, 2
6, 2
11, 1
8, 4
4, 0
6, 2
3, 2
3, 2
2, 2
6, 1
4, 5
5, 1
3, 3
1, 3
2, 2
3, 5
5, 3
3, 4
2, 1
1, 4
1, 2
0, 1
2, 2
2, 5
2, 1
4, 0
1, 2
5, 1
3, 3
2, 0
1, 0
2, 0
2, 5
2, 4
4, 3
3, 4
2, 2
1, 2
4, 2
2, 2
5, 2
1, 0
4, 2
3, 6
3, 2
5, 3
3, 2
3, 3
5, 2
1, 2
4, 1
1, 1
3, 1
4, 3
1, 3
3, 3
4, 4
4, 1
2, 2
1, 4
1, 3
0, 1
1, 4
0, 3
3, 4
2, 2
4, 2
2, 0
1, 0
1, 3
2, 4
1, 3
0, 1
4, 3
2, 1
2, 1
1, 3
1, 3
2, 3
1, 0
1, 2
5, 2
0, 3
1, 5
1, 3
1, 0
2, 2
2, 0
4, 4
1, 2
5, 3
5, 4
7, 3
7, 0
7, 3
3, 4
3, 4
3, 2
2, 1
4, 2
4, 1
3, 1
5, 2
1, 0
3, 1
1, 3
1, 2
1, 2
0, 2
0, 2
2, 1
2, 0
0, 1
1, 1
0, 1
2, 2
2, 0
2, 2
2, 3
1, 3
2, 3
1, 2
4, 1
4, 1
5, 3
3, 0
1, 3
1, 0
3, 1
4, 1
1, 1
1, 1
0, 1
2, 2
1, 0
1, 1
0, 1
3, 1
1, 3
1, 3
2, 0
1, 1
2, 0
1, 2
1, 3
1, 3
0, 2
0, 0
2, 0
1, 1
2, 1
0, 3
0, 0
2, 1
1, 2
0, 3
1, 1
3, 0
0, 0
1, 1
4, 0
2, 0
0, 0
0, 0
2, 2
2, 0
0, 1
1, 1
3, 1
3, 0
1, 0
0, 0
1, 1
0, 0
1, 0
0, 1
0, 1
0, 1
1, 1
2, 0
1, 1
2, 1
1, 0
1, 1
0, 1
2, 0
0, 1
3, 0
1, 0
1, 0
1, 2
0, 0
1, 0
1, 1
0, 0
3, 1
0, 0
0, 0
0, 1
0, 0
0, 0
0, 1
0, 1
1, 0
0, 1
0, 2
1, 1
0, 0
0, 0
2, 0
0, 1
0, 1
0, 0
1, 0
1, 0
1, 1
0, 0
0, 0
0, 3
0, 0
1, 1
0, 0
0, 0
1, 0
1, 0
0, 1
0, 1
0, 1
1, 0
2, 0
2, 0
0, 1
1, 0
0, 0
1, 0
0, 0
0, 0
0, 1
1, 1
0, 1
0, 0
0, 0
1, 1
1, 0
0, 0
1, 3
0, 0
0, 1
0, 0
2, 2
0, 1
0, 1
1, 0
0, 3
0, 0
0, 1
0, 1
0, 1
0, 0
0, 0
0, 0
0, 0
0, 0
2, 0
0, 0
0, 0
0, 0
0, 2
0, 0
1, 0
0, 0
1, 1
1, 2
0, 0
1, 0
1, 1
0, 0
0, 1
2, 0
0, 0
2, 3
0, 0
1, 0
1, 0
1, 0
0, 0
0, 0
0, 0
0, 0
0, 2
0, 1
0, 0
1, 0
0, 0
0, 0
0, 0
1, 0
0, 0
0, 0
0, 0
0, 0
1, 1
0, 0
1, 0
0, 0
0, 1
0, 0
0, 0
0, 0
0, 0
0, 0
0, 0
0, 0
0, 0
1, 0
1, 0
0, 1
0, 1
0, 1
0, 0
0, 0
0, 0
0, 1
0, 0
0, 1
0, 0
1, 0
0, 0
1, 1
0, 0
1, 0
1, 0
1, 0
0, 0
1, 0
0, 1
1, 0
2, 2
1, 0
0, 0
0, 0
0, 1
0, 0
1, 1
0, 0
0, 0
0, 1
0, 1
1, 0
1, 0
0, 0
0, 0
0, 1
0, 0
0, 1
1, 0
0, 0
0, 1
0, 0
0, 0
1, 0
0, 1
0, 0
0, 1
0, 0
0, 1
0, 0
0, 0
0, 0
0, 0
0, 0
0, 0
0, 0
0, 0
1, 0
0, 0
0, 0
0, 0
0, 0
0, 0
1, 0
0, 0
0, 0
1, 1
0, 0
0, 0
0, 0
0, 0
0, 0
0, 0
0, 0
0, 0
0, 0
0, 0
0, 0
0, 0
0, 0
0, 1
0, 0
0, 0
0, 0
0, 0
0, 0
1, 0
0, 0
0, 0
0, 0
0, 0
1, 0
0, 0
0, 0
0, 0
0, 0
0, 0
0, 0
1, 0
0, 0
0, 0
0, 0
0, 0
0, 0
0, 0
0, 0
0, 0
0, 0
0, 0
0, 0
0, 0
0, 0
0, 0
0, 0
0, 0
0, 0
0, 0
0, 0
1, 0
0, 0
0, 1
0, 0
0, 0
0, 0
0, 0
1, 0
0, 0
0, 0
0, 0
0, 0
0, 0
0, 0
0, 0
0, 0
0, 0
0, 0
0, 0
0, 0
0, 1
0, 0
0, 0
0, 0
0, 0
0, 0
0, 0
0, 0
0, 0
0, 0
0, 0
0, 0
0, 1
0, 0
0, 0
0, 0
0, 0
0, 0
0, 0
0, 0
0, 1
0, 0
0, 0
0, 0
0, 0
0, 0
0, 0
0, 0
0, 0
0, 0
0, 0
0, 0
0, 0
0, 0
0, 0
0, 0
0, 0
0, 0
0, 0
0, 0
0, 0
0, 0
0, 1
1, 0
0, 0
0, 0
0, 0
0, 0
0, 0
0, 1
0, 0
0, 0
0, 0
0, 0
0, 0
0, 0
0, 0
0, 1
0, 0
0, 0
0, 0
0, 0
0, 0
0, 0
0, 0
0, 0
0, 0
0, 1
0, 0
0, 0
0, 0
0, 0
0, 0
0, 0
0, 0
0, 0
0, 0
0, 0
0, 0
0, 0
0, 0
1, 0
0, 0
0, 0
0, 0
0, 0
0, 0
0, 1
0, 0
0, 0
0, 0
0, 0
0, 0
0, 0
0, 0
0, 0
0, 0
0, 0
0, 0
0, 0
0, 0
0, 0
0, 0
0, 0
0, 0
0, 0
0, 0
0, 0
0, 0
0, 0
0, 0
0, 0
0, 0
0, 0
0, 0
0, 0
0, 0
0, 0
0, 0
0, 0
0, 0
0, 0
0, 0
0, 0
0, 0
0, 0
0, 0
0, 0
0, 0
0, 0
0, 0
0, 0
0, 0
0, 0
0, 0
0, 0
0, 0
0, 0
0, 0
0, 0
0, 0
0, 0
0, 0
0, 0
0, 0
0, 0
0, 0
0, 0
0, 0
0, 0
0, 0
0, 0
0, 0
0, 0
0, 0
0, 0
0, 0
0, 0
0, 0
0, 0
0, 0
0, 0
0, 0
0, 0
0, 0
0, 0
0, 0
0, 0
0, 0
0, 0
0, 0
0, 0
0, 0
0, 0
0, 0
0, 0
0, 0
0, 0
0, 0
0, 0
0, 0
0, 0
0, 0
0, 0
0, 0
0, 0
0, 0
0, 0
0, 0
0, 0
0, 0
0, 0
0, 0
0, 0
0, 0
0, 0
0, 0
0, 0
0, 0
0, 0
0, 0
0, 0
0, 0
0, 0
0, 0
0, 0
0, 0
0, 0
0, 0
0, 0
0, 0
0, 0
0, 0
0, 0
0, 0
0, 0
0, 0
0, 0
0, 0
0, 0
0, 0
0, 0
0, 0
0, 0
0, 0
0, 0
0, 0
0, 0
0, 0
0, 0
0, 0
0, 0
0, 0
0, 0
0, 0
0, 0
0, 0
0, 0
0, 0
0, 0
0, 0
0, 0
0, 0
0, 0
0, 0
0, 0
0, 0
0, 0
0, 0
0, 0
0, 0
0, 1
0, 0
0, 0
0, 0
0, 0
0, 0
0, 0
0, 0
0, 0
0, 0
0, 0
0, 0
0, 0
0, 0
0, 0
0, 0
0, 0
0, 0
0, 0
0, 0
0, 0
0, 0
0, 0
0, 0
0, 0
0, 0
0, 0
0, 0
0, 0
0, 0
0, 0
0, 0
0, 0
0, 0
0, 0
0, 0
0, 0
0, 0
0, 0
0, 0
0, 0
0, 0
0, 0
0, 0
0, 0
0, 0
0, 0
0, 0
0, 0
0, 0
0, 0
0, 0
0, 0
0, 0
0, 0
0, 0
0, 0
0, 0
0, 0
0, 0
0, 0
0, 0
0, 0
0, 0
0, 0
0, 0
0, 0
0, 0
0, 0
0, 0
0, 0
0, 0
0, 0
0, 0
0, 0
0, 0
0, 0
0, 0
0, 0
0, 0
0, 0
0, 0
0, 0
0, 0
0, 0
0, 0
0, 0
0, 0
0, 0
0, 0
0, 0
0, 0
0, 0
0, 0
0, 0
0, 0
0, 0
0, 0
0, 0
0, 0
0, 0
0, 0
0, 0
0, 0
0, 0
0, 0
0, 0
0, 0
0, 0
0, 0
0, 0
0, 0
0, 0
0, 0
0, 0
0, 0
0, 0
0, 0
0, 0
0, 0
0, 0
0, 0
0, 0
0, 0
0, 0
0, 0
0, 0
0, 0
0, 0
0, 0
0, 0
0, 0
0, 0
0, 0
0, 0
0, 0
0, 0
0, 0
0, 0
0, 0
0, 0
0, 0
0, 0
0, 0
0, 0
0, 0
0, 0
0, 0
0, 0
0, 0
0, 0
0, 0
0, 0
0, 0
0, 0
0, 0
0, 0
0, 0
0, 0
0, 0
0, 0
0, 0
0, 0
0, 0
0, 0
0, 0
0, 0
0, 0
0, 0
0, 0
0, 0
0, 0
0, 0
0, 0
0, 0
0, 0
0, 0
0, 0
0, 0
0, 0
0, 0
0, 0
0, 0
0, 0
0, 0
0, 0
0, 0
0, 0
0, 0
0, 0
0, 0
0, 0
0, 0
0, 0
0, 0
0, 0
0, 0
0, 0
0, 0
0, 0
0, 0
0, 0
0, 0
0, 0
0, 0
0, 0
0, 0
0, 0
0, 0
0, 0
0, 0
0, 0
#ENDOFDATA     end of spectrum data