File: host_upload/06-09-2024/ps_0852/dump3/ps__0852shot_2328.msa
#FORMAT      : EMSA/MAS spectral data file
#VERSION     : TC202v2.0 PIXL
#TITLE       : N/A
#DATE        :       Date in the format DD-MMM-YYYY, for example 07-JUL-2010
#TIME        :             The time of day at which the spectrum was recorded, in 24-hour format
#OWNER       : PIXL Flight Model       (PIXL will use this to indicate which instrument took the data.)
#NPOINTS     : 4096     Number of data points in the spectrum (This can be zero for configuration only files)
#NCOLUMNS    : 2     Number of data columns in the spectrum (This can be zero for configuration only files)
#XUNITS      : eV
#YUNITS      : COUNTS
#DATATYPE    : YY
#XPERCHAN    : 7.862, 7.881   eV per channel (separate by commas if more than one detector)
#OFFSET      : 18.5, -22.4         eV of first channel  (separate by commas if more than one detector
#SIGNALTYPE  : XRF
#YP_TEMP     : 2.332
#LIVETIME    : 8.57972, 8.55791   seconds (separate by commas if more than one detector)
#REALTIME    : 10, 10.0   seconds (separate by commas if more than one detector)
#SPECTRUM    : start of spectrum data
0, 0
0, 0
0, 0
0, 0
0, 0
0, 0
0, 0
0, 0
0, 0
0, 0
0, 0
0, 0
0, 0
0, 0
0, 0
0, 0
0, 0
0, 0
0, 0
0, 0
0, 0
0, 0
0, 0
0, 0
0, 0
0, 0
0, 0
0, 0
0, 0
0, 0
0, 0
0, 0
0, 0
0, 0
0, 1
0, 0
0, 1
0, 1
0, 2
1, 0
2, 0
3, 2
3, 1
1, 2
0, 0
1, 1
3, 5
5, 3
6, 3
9, 11
28, 24
44, 41
56, 50
77, 55
89, 67
80, 46
63, 59
54, 35
31, 14
10, 20
7, 4
2, 5
6, 3
3, 3
3, 3
1, 3
6, 6
10, 7
29, 22
43, 45
90, 102
162, 160
290, 257
350, 359
421, 380
469, 369
401, 338
287, 250
219, 167
133, 98
69, 48
46, 35
18, 15
15, 13
7, 5
2, 2
6, 1
1, 4
2, 1
5, 1
1, 0
3, 0
1, 1
3, 2
5, 3
9, 10
12, 9
16, 20
25, 24
27, 12
23, 13
22, 11
14, 14
14, 3
5, 4
2, 6
7, 1
9, 5
10, 4
12, 16
26, 17
34, 22
31, 35
52, 34
59, 32
74, 34
72, 30
71, 29
80, 30
51, 26
64, 23
45, 19
42, 21
23, 22
28, 17
18, 19
21, 9
7, 13
8, 12
4, 7
5, 3
6, 4
7, 5
2, 1
1, 0
2, 1
6, 4
0, 3
3, 0
1, 4
2, 4
0, 4
1, 2
2, 2
1, 6
1, 3
3, 4
2, 1
5, 6
4, 6
8, 4
16, 11
27, 17
28, 25
40, 31
45, 42
66, 51
66, 42
72, 46
64, 46
41, 29
30, 25
25, 23
10, 6
10, 5
6, 3
5, 8
6, 4
5, 7
4, 9
10, 10
12, 7
7, 9
10, 14
15, 11
10, 5
7, 8
8, 6
15, 7
8, 1
7, 3
6, 1
4, 2
6, 5
1, 3
4, 3
4, 2
5, 3
5, 6
11, 5
11, 5
15, 7
16, 9
16, 14
14, 11
8, 9
17, 9
20, 16
21, 14
15, 13
15, 15
12, 11
10, 7
7, 7
12, 5
9, 9
7, 8
5, 5
7, 7
12, 9
6, 10
13, 7
7, 11
9, 7
5, 9
1, 12
8, 11
7, 11
6, 19
5, 20
9, 14
8, 7
8, 10
5, 17
7, 9
12, 13
12, 15
16, 17
19, 19
21, 10
16, 20
37, 13
29, 17
35, 13
42, 16
47, 8
43, 13
39, 11
46, 17
25, 17
29, 16
25, 12
19, 20
22, 23
24, 27
17, 29
30, 27
38, 37
48, 43
48, 51
62, 51
48, 64
62, 85
51, 62
43, 47
27, 56
30, 67
29, 38
17, 40
23, 43
16, 29
33, 36
52, 62
81, 70
161, 184
257, 324
454, 571
778, 865
1123, 1223
1630, 1672
2033, 1986
2245, 2155
2601, 2264
2350, 2012
2152, 1733
1759, 1326
1297, 996
957, 680
541, 427
332, 266
203, 120
125, 90
58, 48
39, 34
29, 23
19, 15
15, 16
19, 14
12, 16
20, 20
17, 18
34, 40
40, 62
82, 72
101, 110
157, 174
195, 226
229, 263
340, 349
359, 314
387, 313
347, 297
305, 268
242, 214
183, 173
132, 92
86, 73
57, 48
39, 29
21, 18
14, 11
10, 4
14, 9
13, 12
10, 14
17, 15
12, 13
13, 11
12, 9
13, 12
13, 15
16, 11
8, 8
9, 7
5, 4
7, 6
5, 4
1, 4
6, 7
2, 3
5, 6
1, 3
2, 2
5, 5
3, 2
6, 5
7, 4
2, 7
8, 8
1, 2
4, 7
6, 3
2, 4
6, 5
4, 5
6, 8
6, 9
3, 7
7, 8
8, 16
9, 7
7, 16
8, 12
11, 9
10, 15
12, 10
14, 12
11, 9
6, 7
7, 6
5, 5
4, 9
8, 7
3, 1
8, 7
7, 8
10, 2
3, 2
4, 5
11, 3
4, 3
8, 3
6, 2
2, 4
6, 6
8, 7
1, 8
4, 5
3, 2
7, 3
3, 4
2, 1
5, 3
8, 4
8, 9
3, 4
4, 4
4, 10
5, 19
1, 13
5, 7
5, 9
6, 7
1, 17
4, 5
6, 6
1, 3
4, 7
5, 4
2, 3
2, 6
1, 2
2, 2
0, 5
1, 2
3, 4
3, 3
6, 5
3, 7
1, 4
2, 1
7, 4
4, 5
3, 2
6, 3
2, 3
2, 2
3, 7
5, 2
2, 2
3, 2
4, 0
2, 3
1, 4
0, 1
2, 2
4, 0
3, 2
1, 2
7, 2
0, 3
6, 3
3, 5
0, 3
3, 2
2, 1
3, 0
3, 1
5, 4
3, 2
3, 4
2, 4
2, 2
0, 2
2, 4
3, 2
1, 0
1, 0
6, 2
5, 2
1, 0
2, 4
3, 3
5, 0
4, 2
8, 3
3, 1
5, 2
0, 0
3, 1
5, 1
2, 3
3, 4
2, 3
1, 3
8, 4
3, 2
4, 4
2, 2
4, 2
4, 1
1, 5
1, 2
2, 1
3, 1
3, 3
3, 6
0, 2
1, 3
3, 4
1, 2
0, 4
3, 2
3, 2
2, 2
0, 3
6, 2
3, 1
1, 0
1, 1
2, 4
2, 0
1, 2
5, 2
2, 2
1, 2
3, 4
3, 2
1, 4
4, 2
3, 0
4, 0
4, 0
3, 0
1, 0
2, 3
1, 2
3, 2
1, 3
1, 3
0, 2
3, 3
3, 2
6, 1
3, 2
0, 2
1, 5
3, 3
2, 1
3, 1
1, 3
3, 2
4, 2
1, 3
2, 0
5, 2
0, 1
1, 2
3, 1
2, 2
1, 4
2, 1
1, 1
0, 2
2, 4
1, 1
2, 3
5, 4
2, 4
3, 6
6, 4
1, 5
2, 2
2, 6
5, 3
9, 1
7, 5
3, 3
5, 2
2, 0
4, 1
1, 0
2, 5
3, 0
4, 3
3, 1
0, 1
1, 1
2, 0
2, 0
4, 1
3, 1
1, 0
1, 3
1, 0
3, 3
1, 2
2, 0
2, 3
1, 2
1, 2
0, 2
2, 2
1, 2
0, 1
2, 0
2, 2
0, 1
4, 2
1, 0
1, 1
0, 0
2, 0
0, 1
1, 1
1, 1
0, 0
0, 1
0, 1
2, 0
1, 0
1, 1
2, 0
1, 0
1, 1
1, 1
1, 1
1, 2
1, 0
2, 0
1, 0
1, 0
1, 0
3, 1
2, 1
1, 0
1, 3
0, 1
0, 2
1, 1
0, 1
1, 0
1, 0
0, 0
2, 1
0, 1
0, 4
2, 0
2, 0
2, 2
1, 2
0, 1
1, 0
0, 0
0, 1
1, 3
2, 1
2, 2
0, 0
0, 0
0, 1
0, 0
0, 1
1, 0
0, 1
1, 2
0, 1
2, 1
0, 0
1, 0
2, 0
0, 0
1, 1
0, 2
0, 1
0, 2
1, 0
0, 0
1, 1
3, 0
0, 1
0, 0
2, 0
0, 0
1, 0
0, 1
1, 0
0, 0
0, 3
0, 1
0, 1
0, 0
0, 0
1, 2
0, 1
0, 0
1, 1
1, 0
0, 0
0, 0
0, 0
0, 0
0, 0
1, 0
1, 1
0, 0
0, 2
2, 0
2, 0
0, 1
1, 2
0, 1
3, 0
0, 0
0, 0
1, 0
0, 0
0, 0
0, 0
1, 0
1, 0
0, 1
1, 1
0, 0
0, 2
1, 0
0, 1
0, 0
0, 0
1, 0
0, 0
0, 0
0, 0
0, 1
0, 0
0, 1
3, 0
0, 1
0, 0
0, 0
1, 0
1, 1
1, 0
0, 0
0, 0
0, 2
0, 0
0, 0
0, 0
0, 0
0, 1
0, 0
1, 0
0, 0
1, 1
0, 2
2, 1
0, 0
0, 1
0, 0
0, 0
2, 0
0, 0
0, 1
1, 0
0, 0
1, 1
0, 0
1, 1
1, 0
1, 1
0, 0
0, 1
1, 0
0, 0
1, 1
0, 0
3, 0
0, 0
2, 0
0, 0
0, 0
1, 1
0, 1
0, 0
0, 0
0, 0
0, 0
1, 0
0, 0
1, 0
0, 0
0, 0
0, 0
0, 0
0, 0
1, 0
0, 0
1, 1
0, 0
0, 0
0, 0
0, 0
0, 0
0, 1
1, 1
0, 0
0, 0
0, 0
0, 0
0, 1
0, 0
0, 0
0, 0
2, 1
0, 1
0, 0
2, 1
0, 0
0, 0
1, 0
0, 0
0, 0
1, 0
0, 0
0, 1
0, 1
0, 0
0, 0
0, 0
0, 0
0, 0
0, 0
0, 0
0, 0
0, 0
0, 0
0, 0
1, 0
0, 1
0, 0
0, 0
0, 1
0, 1
1, 0
2, 0
0, 0
0, 0
0, 0
0, 0
0, 1
0, 0
0, 0
0, 0
0, 0
0, 0
0, 0
0, 0
1, 2
0, 0
0, 1
0, 0
0, 0
0, 0
0, 0
0, 0
0, 0
0, 0
0, 0
1, 0
0, 0
0, 0
0, 0
0, 0
0, 0
1, 0
1, 0
0, 0
0, 0
0, 0
0, 0
1, 0
0, 0
0, 0
0, 0
0, 0
0, 0
0, 0
0, 1
0, 1
0, 0
0, 0
0, 0
0, 0
0, 0
0, 0
0, 0
0, 1
0, 0
0, 1
0, 0
0, 0
0, 0
0, 0
0, 0
1, 1
0, 0
0, 0
0, 0
0, 0
0, 0
0, 0
0, 0
0, 0
1, 0
0, 0
0, 0
1, 0
0, 0
0, 0
0, 0
0, 0
0, 0
0, 0
0, 0
0, 0
0, 0
0, 0
0, 0
0, 1
0, 0
0, 0
0, 0
0, 0
0, 0
0, 0
0, 0
0, 0
0, 0
0, 0
0, 0
0, 0
0, 1
0, 0
0, 0
0, 0
0, 0
0, 0
0, 0
0, 0
0, 0
0, 0
0, 0
0, 0
0, 0
0, 0
0, 0
0, 0
0, 0
0, 0
0, 0
0, 0
0, 0
0, 0
0, 0
0, 0
0, 0
0, 0
0, 0
0, 0
0, 0
0, 0
0, 0
0, 0
0, 0
0, 0
0, 0
0, 0
0, 0
0, 0
0, 0
0, 0
0, 0
0, 0
0, 0
0, 0
0, 0
0, 0
0, 0
0, 0
0, 0
0, 0
0, 0
0, 0
0, 0
0, 0
0, 0
0, 0
0, 0
0, 0
0, 0
0, 0
0, 0
0, 0
0, 0
0, 0
0, 0
0, 0
0, 0
0, 0
0, 0
0, 0
0, 0
0, 0
0, 0
0, 0
0, 0
0, 0
0, 0
0, 0
0, 0
0, 0
0, 0
0, 0
0, 0
0, 0
0, 0
0, 0
0, 0
0, 0
0, 0
0, 0
0, 0
0, 0
0, 0
0, 0
0, 0
0, 0
0, 0
0, 0
0, 0
0, 0
0, 0
0, 0
0, 0
0, 0
0, 0
0, 0
0, 0
0, 0
0, 0
0, 0
0, 0
0, 0
0, 0
0, 0
0, 0
0, 0
0, 0
0, 0
0, 0
0, 0
0, 0
0, 0
0, 0
0, 0
0, 0
0, 0
0, 0
0, 0
0, 0
0, 0
0, 0
0, 0
0, 0
0, 0
0, 0
0, 0
0, 0
0, 0
0, 0
0, 0
0, 0
0, 0
0, 0
0, 0
0, 0
0, 0
0, 0
0, 0
0, 0
0, 0
0, 0
1, 0
0, 0
0, 0
0, 0
0, 0
0, 0
0, 0
0, 0
0, 0
0, 0
0, 0
0, 0
0, 0
0, 0
0, 0
0, 0
0, 0
0, 0
0, 0
0, 0
0, 0
0, 0
0, 0
0, 0
0, 0
0, 0
0, 0
0, 0
0, 0
0, 0
0, 0
0, 0
0, 0
0, 0
0, 0
0, 0
0, 0
0, 0
0, 0
0, 0
0, 0
0, 0
0, 0
0, 0
0, 0
0, 0
0, 0
0, 0
0, 0
0, 0
0, 0
0, 0
0, 0
0, 0
0, 0
0, 0
0, 0
0, 0
0, 0
0, 0
0, 0
0, 0
0, 0
0, 0
0, 0
0, 0
0, 0
0, 0
1, 0
0, 0
0, 0
0, 0
0, 0
0, 0
0, 0
0, 0
0, 0
0, 0
0, 0
0, 0
0, 0
0, 0
0, 0
0, 0
0, 0
0, 0
0, 0
0, 0
0, 0
0, 0
0, 0
0, 0
0, 0
0, 0
0, 0
0, 0
0, 0
0, 0
0, 0
0, 0
0, 0
0, 0
0, 0
0, 0
0, 0
0, 0
0, 0
0, 0
0, 0
0, 0
0, 0
0, 0
0, 0
0, 0
0, 0
0, 0
0, 0
0, 0
0, 0
0, 0
0, 0
0, 0
0, 0
0, 0
0, 0
0, 0
0, 0
0, 0
0, 0
0, 0
0, 0
0, 0
0, 0
0, 0
0, 0
0, 0
0, 0
0, 0
0, 0
0, 0
0, 0
0, 0
0, 0
0, 0
0, 0
0, 0
0, 0
0, 0
0, 0
0, 0
0, 0
0, 0
0, 0
0, 0
0, 0
0, 0
0, 0
0, 0
0, 0
0, 0
0, 0
0, 0
0, 0
0, 0
0, 0
0, 0
0, 0
0, 0
0, 0
0, 0
0, 0
0, 0
0, 0
0, 0
0, 0
0, 0
0, 0
0, 0
0, 0
0, 0
0, 0
0, 0
0, 0
0, 0
0, 0
0, 0
0, 0
0, 0
0, 0
0, 0
0, 0
0, 0
0, 0
0, 0
0, 0
0, 0
0, 0
0, 0
0, 0
0, 0
0, 0
0, 0
0, 0
0, 0
0, 0
0, 0
0, 0
0, 0
0, 0
0, 0
0, 0
0, 0
0, 0
0, 0
0, 0
0, 0
0, 0
0, 0
0, 0
0, 0
0, 0
0, 0
0, 0
0, 0
0, 0
0, 0
0, 0
0, 0
0, 0
0, 0
0, 0
0, 0
0, 0
0, 0
0, 0
0, 0
0, 0
0, 0
0, 0
0, 0
0, 0
0, 0
0, 0
0, 0
0, 0
0, 0
0, 0
0, 0
0, 0
0, 0
0, 0
0, 0
0, 0
0, 0
0, 0
0, 0
0, 0
0, 0
0, 0
0, 0
0, 0
0, 0
0, 0
0, 0
0, 0
0, 0
0, 0
0, 0
0, 0
0, 0
0, 0
0, 0
0, 0
0, 0
0, 0
0, 0
0, 0
0, 0
0, 0
0, 0
0, 0
0, 0
0, 0
0, 0
0, 0
0, 0
0, 0
0, 0
0, 0
0, 0
0, 0
0, 0
0, 0
0, 0
0, 0
0, 0
0, 0
0, 0
0, 0
0, 0
0, 0
0, 0
0, 0
#ENDOFDATA     end of spectrum data