File: host_upload/06-09-2024/ps_0852/dump3/ps__0852shot_2192.msa
#FORMAT      : EMSA/MAS spectral data file
#VERSION     : TC202v2.0 PIXL
#TITLE       : N/A
#DATE        :       Date in the format DD-MMM-YYYY, for example 07-JUL-2010
#TIME        :             The time of day at which the spectrum was recorded, in 24-hour format
#OWNER       : PIXL Flight Model       (PIXL will use this to indicate which instrument took the data.)
#NPOINTS     : 4096     Number of data points in the spectrum (This can be zero for configuration only files)
#NCOLUMNS    : 2     Number of data columns in the spectrum (This can be zero for configuration only files)
#XUNITS      : eV
#YUNITS      : COUNTS
#DATATYPE    : YY
#XPERCHAN    : 7.862, 7.881   eV per channel (separate by commas if more than one detector)
#OFFSET      : 18.5, -22.4         eV of first channel  (separate by commas if more than one detector
#SIGNALTYPE  : XRF
#YP_TEMP     : 2.524
#LIVETIME    : 8.54887, 8.57403   seconds (separate by commas if more than one detector)
#REALTIME    : 10, 10.0   seconds (separate by commas if more than one detector)
#SPECTRUM    : start of spectrum data
0, 0
0, 0
0, 0
0, 0
0, 0
0, 0
0, 0
0, 0
0, 0
0, 0
0, 0
0, 0
0, 0
0, 0
0, 0
0, 0
0, 0
0, 0
0, 0
0, 0
0, 0
0, 0
0, 0
0, 0
0, 0
0, 0
0, 0
0, 0
0, 0
0, 0
0, 0
0, 0
0, 0
1, 1
0, 0
0, 0
1, 2
3, 0
2, 0
1, 2
1, 2
5, 3
6, 7
5, 3
0, 6
1, 4
1, 1
2, 4
6, 6
20, 8
30, 18
39, 40
39, 61
83, 64
89, 79
88, 73
86, 54
40, 48
32, 23
21, 14
3, 5
4, 2
7, 5
4, 3
3, 4
2, 6
4, 6
6, 3
19, 18
42, 36
118, 95
182, 145
293, 247
387, 317
448, 370
432, 402
379, 350
338, 291
199, 139
145, 107
70, 56
47, 33
22, 11
7, 9
7, 6
3, 1
0, 3
5, 1
0, 3
2, 0
2, 0
2, 2
3, 1
2, 2
5, 3
8, 4
4, 4
10, 11
12, 8
10, 3
9, 3
15, 4
11, 8
5, 10
4, 4
3, 8
4, 11
13, 9
20, 20
34, 35
68, 67
91, 124
144, 174
183, 189
257, 256
243, 241
216, 255
219, 170
173, 154
109, 107
70, 52
48, 39
29, 29
35, 19
27, 11
21, 15
16, 10
12, 10
11, 10
9, 6
4, 3
4, 9
7, 5
3, 5
5, 4
4, 1
6, 2
3, 2
1, 2
1, 0
2, 2
4, 1
2, 2
6, 6
3, 2
2, 1
4, 4
2, 5
4, 3
7, 6
6, 5
6, 3
16, 11
14, 13
26, 10
36, 17
19, 27
39, 19
32, 25
29, 18
16, 13
17, 15
9, 11
11, 10
6, 7
5, 5
4, 6
6, 6
7, 9
5, 5
5, 7
6, 8
8, 9
13, 4
17, 7
17, 7
17, 8
24, 5
19, 13
19, 12
12, 7
11, 9
13, 7
5, 7
14, 4
12, 8
9, 7
13, 9
15, 7
20, 12
11, 10
11, 14
24, 9
23, 10
19, 13
23, 15
23, 19
32, 23
20, 25
13, 23
21, 26
16, 34
15, 22
20, 29
12, 45
11, 35
3, 43
12, 23
9, 22
7, 17
10, 14
5, 16
8, 11
7, 14
10, 7
9, 9
9, 4
6, 11
6, 10
7, 8
9, 2
8, 4
10, 10
4, 15
13, 14
8, 17
20, 12
21, 19
34, 16
33, 27
35, 26
34, 12
26, 22
31, 37
22, 22
30, 19
17, 11
22, 16
14, 18
21, 15
13, 6
14, 11
16, 14
23, 16
24, 12
26, 24
34, 42
45, 52
51, 51
57, 65
61, 55
69, 60
75, 52
58, 59
62, 36
46, 37
37, 26
20, 19
21, 26
22, 23
16, 34
42, 44
62, 63
92, 99
184, 187
284, 324
529, 515
841, 903
1266, 1134
1598, 1664
1995, 1958
2337, 2151
2542, 2225
2553, 2058
2234, 1803
1874, 1376
1335, 987
1002, 695
645, 428
399, 251
228, 131
131, 80
67, 54
47, 36
39, 25
36, 27
34, 23
36, 22
55, 16
47, 30
59, 36
74, 37
82, 56
90, 82
144, 116
158, 151
220, 245
290, 266
309, 287
378, 342
368, 310
365, 310
309, 236
274, 216
203, 138
151, 115
99, 84
63, 37
32, 27
19, 10
9, 9
13, 9
6, 3
9, 10
13, 9
10, 20
16, 15
17, 8
13, 15
14, 17
10, 8
15, 10
15, 11
14, 4
11, 7
10, 4
4, 8
7, 5
5, 1
6, 5
6, 6
6, 9
3, 3
3, 4
5, 6
2, 4
2, 8
2, 5
3, 8
9, 9
6, 11
6, 7
4, 11
8, 6
11, 8
2, 5
18, 5
12, 3
18, 11
15, 8
13, 10
26, 3
17, 3
14, 4
16, 4
12, 8
12, 3
18, 4
6, 4
5, 2
6, 2
7, 5
8, 2
3, 4
8, 6
8, 7
7, 1
11, 4
2, 2
5, 7
4, 5
8, 3
2, 4
3, 2
7, 2
8, 5
6, 4
4, 1
3, 3
5, 3
6, 4
3, 7
7, 4
5, 7
5, 8
5, 5
4, 6
2, 7
4, 4
7, 6
4, 10
4, 6
4, 4
4, 5
9, 6
7, 3
2, 5
4, 5
5, 7
4, 5
8, 7
3, 7
3, 7
2, 7
6, 7
4, 9
1, 7
4, 7
5, 5
3, 2
5, 0
3, 4
8, 3
1, 3
3, 2
5, 4
8, 6
3, 5
6, 2
9, 1
4, 2
7, 1
2, 4
3, 7
4, 0
4, 5
4, 1
3, 2
8, 5
3, 4
3, 1
4, 4
5, 2
1, 3
4, 6
2, 2
7, 3
5, 5
7, 2
3, 5
5, 0
5, 2
3, 2
1, 4
5, 1
1, 1
3, 1
2, 0
4, 0
4, 2
2, 4
3, 1
4, 2
2, 4
4, 4
4, 2
4, 2
0, 5
3, 2
0, 2
1, 3
2, 2
4, 3
1, 3
4, 4
0, 2
6, 2
1, 1
2, 2
3, 1
1, 3
1, 3
3, 1
3, 5
3, 1
3, 2
3, 3
2, 2
4, 0
1, 3
5, 0
4, 0
7, 2
1, 0
1, 5
4, 1
0, 4
0, 2
1, 3
0, 1
2, 1
4, 2
0, 2
2, 3
2, 2
3, 1
1, 3
4, 0
1, 5
1, 2
4, 4
1, 2
2, 3
2, 5
3, 2
2, 6
2, 3
4, 3
3, 6
3, 3
2, 1
2, 1
2, 3
3, 2
2, 1
3, 2
3, 3
2, 0
1, 3
1, 0
1, 2
5, 2
4, 2
3, 1
2, 1
2, 3
0, 1
2, 0
0, 4
2, 2
1, 2
2, 0
2, 5
2, 4
4, 3
2, 3
2, 1
4, 6
2, 4
4, 3
4, 6
4, 2
5, 5
0, 2
3, 1
7, 4
3, 6
2, 5
2, 1
3, 2
2, 3
1, 2
2, 2
1, 2
3, 1
0, 1
1, 1
4, 1
0, 1
1, 2
2, 2
3, 2
0, 0
2, 2
3, 2
0, 0
1, 3
1, 2
4, 3
1, 0
2, 0
3, 3
2, 1
3, 2
2, 0
0, 4
2, 2
2, 1
2, 2
0, 3
2, 1
3, 0
4, 2
0, 0
0, 1
2, 0
2, 0
0, 6
3, 0
3, 2
2, 2
2, 0
0, 0
2, 2
1, 1
2, 0
1, 2
0, 1
0, 0
1, 0
4, 1
1, 0
2, 0
0, 0
1, 0
1, 1
3, 4
3, 3
2, 1
0, 1
2, 1
0, 0
0, 1
1, 3
0, 1
1, 2
0, 1
0, 0
1, 2
0, 0
1, 1
1, 2
1, 0
1, 0
0, 2
0, 2
1, 1
0, 0
0, 0
0, 0
1, 1
1, 1
0, 0
2, 0
0, 1
1, 0
1, 1
0, 0
2, 0
0, 1
1, 1
1, 0
1, 0
0, 0
3, 0
1, 1
1, 3
1, 0
1, 0
1, 0
1, 1
0, 1
1, 0
0, 0
0, 1
3, 2
0, 0
1, 0
0, 3
0, 0
0, 3
0, 0
1, 0
0, 0
1, 1
0, 0
0, 0
0, 0
0, 0
0, 0
0, 2
0, 0
1, 0
0, 1
0, 0
0, 1
1, 1
0, 1
0, 0
1, 1
1, 3
1, 0
3, 0
0, 0
0, 0
0, 0
0, 0
0, 0
1, 1
0, 0
0, 1
3, 0
0, 0
0, 0
0, 0
0, 0
0, 0
0, 0
2, 0
1, 1
0, 0
0, 0
1, 0
0, 0
0, 1
1, 1
1, 0
0, 0
0, 0
0, 0
0, 1
1, 0
0, 0
0, 0
0, 0
1, 0
0, 1
0, 1
1, 2
0, 0
1, 0
0, 0
0, 0
0, 1
0, 0
0, 0
1, 1
0, 1
0, 1
1, 0
1, 0
0, 0
0, 0
1, 0
0, 0
0, 1
0, 0
0, 1
1, 0
1, 0
0, 0
1, 1
0, 1
0, 1
0, 0
0, 0
0, 2
0, 0
1, 0
0, 0
1, 1
0, 0
0, 0
0, 0
0, 0
2, 0
0, 0
0, 0
0, 1
0, 1
0, 0
1, 0
1, 0
0, 0
1, 0
1, 1
0, 0
0, 0
0, 0
0, 0
0, 0
0, 1
0, 0
0, 0
0, 1
1, 0
1, 0
0, 0
0, 0
1, 0
0, 0
1, 0
0, 0
0, 0
0, 0
0, 0
0, 0
0, 0
0, 0
0, 1
0, 1
1, 1
2, 0
0, 0
1, 2
0, 0
1, 0
0, 1
1, 0
0, 0
0, 0
1, 1
1, 0
0, 0
0, 0
0, 1
0, 0
0, 0
0, 0
0, 0
0, 0
0, 0
0, 1
0, 0
0, 0
1, 0
0, 0
0, 0
0, 0
0, 0
0, 0
0, 1
1, 0
0, 0
0, 0
0, 0
0, 0
0, 0
1, 0
1, 0
0, 0
0, 1
0, 0
0, 0
0, 0
0, 0
0, 1
0, 0
0, 0
0, 0
0, 1
0, 0
0, 0
0, 0
0, 0
0, 1
0, 0
0, 0
0, 0
0, 0
0, 0
0, 0
0, 0
0, 0
0, 0
0, 0
0, 0
0, 0
1, 0
0, 0
0, 0
1, 0
1, 0
0, 0
0, 0
1, 0
1, 0
0, 0
0, 0
0, 0
0, 0
0, 0
0, 0
0, 0
0, 0
0, 0
0, 1
0, 0
0, 0
0, 0
0, 0
0, 0
0, 0
0, 0
0, 0
0, 0
1, 0
0, 0
0, 0
0, 0
0, 0
0, 1
0, 0
0, 0
0, 0
0, 0
1, 0
0, 0
0, 0
0, 0
0, 0
0, 1
0, 0
0, 0
1, 0
0, 0
0, 0
0, 1
0, 0
0, 0
0, 0
0, 0
0, 0
0, 0
0, 0
0, 0
0, 0
0, 0
0, 0
0, 0
0, 0
0, 0
0, 1
0, 0
0, 0
0, 0
0, 0
0, 0
0, 0
0, 0
0, 0
0, 0
0, 0
0, 0
0, 0
0, 0
0, 0
0, 0
0, 0
0, 0
0, 0
0, 0
0, 0
0, 0
0, 0
0, 0
0, 0
0, 0
0, 0
0, 0
0, 0
0, 0
0, 0
0, 0
0, 0
0, 0
0, 0
0, 0
0, 0
0, 0
0, 0
0, 0
0, 0
0, 0
0, 0
0, 0
0, 1
0, 0
0, 0
0, 0
0, 0
0, 0
0, 0
0, 0
0, 0
0, 0
0, 0
0, 0
0, 0
0, 0
0, 0
0, 0
0, 0
0, 0
0, 0
0, 0
0, 0
0, 0
0, 0
0, 0
0, 0
0, 0
0, 0
0, 0
0, 0
0, 0
0, 0
0, 0
0, 0
0, 0
0, 0
0, 0
0, 0
0, 0
0, 0
0, 0
0, 0
0, 0
0, 0
0, 0
0, 0
0, 0
0, 0
0, 0
0, 0
0, 0
0, 0
0, 0
0, 0
0, 0
0, 0
0, 0
0, 0
0, 0
0, 0
0, 0
0, 0
0, 0
0, 0
0, 0
0, 0
0, 0
0, 0
0, 0
0, 0
0, 0
0, 0
0, 0
0, 0
0, 0
0, 0
0, 0
0, 0
0, 0
0, 0
0, 0
0, 0
0, 0
0, 0
0, 0
0, 0
0, 0
0, 0
0, 0
0, 0
0, 0
0, 0
0, 0
0, 0
0, 0
0, 0
0, 0
0, 0
0, 0
0, 0
0, 0
0, 0
0, 0
0, 0
0, 0
0, 0
0, 0
0, 0
0, 0
0, 0
0, 0
0, 0
0, 0
0, 0
0, 0
0, 0
0, 0
0, 0
0, 0
0, 0
0, 0
0, 0
0, 0
0, 0
0, 0
0, 0
0, 0
0, 0
0, 0
0, 0
0, 0
0, 0
0, 0
0, 0
0, 0
0, 0
0, 0
0, 0
0, 0
0, 0
0, 0
0, 0
0, 0
0, 0
0, 0
0, 0
0, 0
0, 0
0, 0
0, 0
0, 0
0, 0
0, 0
0, 0
0, 0
1, 0
0, 0
0, 0
0, 0
0, 0
0, 0
0, 0
0, 0
0, 0
0, 0
0, 0
0, 0
0, 0
0, 0
0, 0
0, 0
0, 0
0, 0
0, 0
0, 0
0, 0
0, 0
0, 0
0, 0
0, 0
0, 0
0, 0
0, 0
0, 0
0, 0
0, 0
0, 0
0, 0
0, 0
0, 0
0, 0
0, 0
0, 0
0, 0
0, 0
0, 0
0, 0
0, 0
0, 0
0, 0
0, 0
0, 0
0, 0
0, 0
0, 0
0, 0
0, 0
0, 0
0, 0
0, 0
0, 0
0, 0
0, 0
0, 0
0, 0
0, 0
0, 0
0, 0
0, 0
0, 0
0, 0
0, 0
0, 0
0, 0
0, 0
0, 0
0, 0
0, 0
0, 0
0, 0
0, 0
0, 0
0, 0
0, 0
0, 0
0, 0
0, 0
0, 0
0, 0
0, 0
0, 0
0, 0
0, 0
0, 0
0, 0
0, 0
0, 0
0, 0
0, 0
0, 0
0, 0
0, 0
0, 0
0, 0
0, 0
0, 0
0, 0
0, 0
0, 0
0, 0
0, 0
0, 0
0, 0
0, 0
0, 0
0, 0
0, 0
0, 0
0, 0
0, 0
0, 0
0, 0
0, 0
0, 0
0, 0
0, 0
0, 0
0, 0
0, 0
0, 0
0, 0
0, 0
0, 0
0, 0
0, 0
0, 0
0, 0
0, 0
0, 0
0, 0
0, 0
0, 0
0, 0
0, 0
0, 0
0, 0
0, 0
0, 0
0, 0
0, 0
0, 0
0, 0
0, 0
0, 0
0, 0
0, 0
0, 0
0, 0
0, 0
0, 0
0, 0
0, 0
0, 0
0, 0
0, 0
0, 0
0, 0
0, 0
0, 0
0, 0
0, 0
0, 0
0, 0
0, 0
0, 0
0, 0
0, 0
0, 0
0, 0
0, 0
0, 0
0, 0
0, 0
0, 0
0, 0
0, 0
0, 0
0, 0
0, 0
0, 0
0, 0
0, 0
0, 0
0, 0
0, 0
0, 0
0, 0
0, 0
0, 0
0, 0
0, 0
0, 0
0, 0
0, 0
0, 0
0, 0
0, 0
0, 0
0, 0
0, 0
0, 0
0, 0
0, 0
0, 0
0, 0
0, 0
0, 0
0, 0
0, 0
0, 0
0, 0
0, 0
0, 0
0, 0
0, 0
0, 0
0, 0
0, 0
0, 0
0, 0
0, 0
0, 0
0, 0
0, 0
0, 0
0, 0
0, 0
0, 0
0, 0
0, 0
0, 0
0, 0
0, 0
0, 0
0, 0
0, 0
0, 0
0, 0
0, 0
0, 0
0, 0
#ENDOFDATA     end of spectrum data