File: host_upload/06-09-2024/ps_0852/dump3/ps__0852shot_2496.msa
#FORMAT      : EMSA/MAS spectral data file
#VERSION     : TC202v2.0 PIXL
#TITLE       : N/A
#DATE        :       Date in the format DD-MMM-YYYY, for example 07-JUL-2010
#TIME        :             The time of day at which the spectrum was recorded, in 24-hour format
#OWNER       : PIXL Flight Model       (PIXL will use this to indicate which instrument took the data.)
#NPOINTS     : 4096     Number of data points in the spectrum (This can be zero for configuration only files)
#NCOLUMNS    : 2     Number of data columns in the spectrum (This can be zero for configuration only files)
#XUNITS      : eV
#YUNITS      : COUNTS
#DATATYPE    : YY
#XPERCHAN    : 7.862, 7.881   eV per channel (separate by commas if more than one detector)
#OFFSET      : 18.5, -22.4         eV of first channel  (separate by commas if more than one detector
#SIGNALTYPE  : XRF
#YP_TEMP     : 2.107
#LIVETIME    : 8.56679, 8.53996   seconds (separate by commas if more than one detector)
#REALTIME    : 10, 10.0   seconds (separate by commas if more than one detector)
#SPECTRUM    : start of spectrum data
0, 0
0, 0
0, 0
0, 0
0, 0
0, 0
0, 0
0, 0
0, 0
0, 0
0, 0
0, 0
0, 0
0, 0
0, 0
0, 0
0, 0
0, 0
0, 0
0, 0
0, 0
0, 0
0, 0
0, 0
0, 0
0, 0
0, 0
0, 0
0, 0
0, 0
0, 0
0, 0
0, 0
0, 0
0, 0
0, 1
1, 0
0, 0
0, 2
0, 1
0, 1
1, 2
3, 1
0, 2
0, 2
2, 2
2, 3
5, 3
3, 3
13, 14
15, 18
23, 31
50, 54
45, 70
56, 51
65, 56
40, 42
36, 28
15, 12
9, 5
9, 7
3, 4
3, 9
3, 3
2, 3
5, 5
4, 1
6, 7
23, 32
48, 52
94, 105
175, 205
278, 302
343, 391
453, 459
443, 474
377, 369
284, 307
186, 202
97, 135
80, 69
37, 33
15, 25
6, 11
5, 8
5, 9
5, 3
3, 3
3, 0
2, 2
1, 3
1, 3
4, 4
1, 5
5, 7
12, 5
9, 11
12, 12
19, 20
17, 13
13, 12
10, 7
7, 9
8, 7
5, 8
4, 10
6, 11
13, 14
26, 26
42, 32
51, 41
67, 75
59, 81
86, 79
85, 83
87, 76
60, 66
66, 47
38, 34
36, 44
32, 36
30, 28
22, 35
23, 33
22, 24
20, 24
21, 18
14, 11
14, 18
12, 11
10, 8
10, 4
4, 6
11, 4
5, 2
5, 5
4, 3
2, 2
0, 1
2, 4
2, 6
1, 5
4, 1
2, 2
2, 3
1, 3
2, 1
4, 2
4, 7
11, 8
13, 13
41, 30
52, 57
71, 103
105, 163
176, 207
233, 231
212, 274
203, 272
204, 210
141, 181
108, 149
70, 99
43, 71
25, 71
16, 71
17, 61
21, 74
24, 59
27, 51
27, 66
31, 30
33, 39
26, 34
18, 22
20, 16
9, 15
8, 8
9, 7
5, 8
6, 5
4, 3
6, 5
4, 0
8, 7
4, 6
8, 6
8, 11
9, 9
19, 12
9, 17
16, 13
7, 26
16, 15
21, 21
17, 16
17, 12
27, 14
25, 18
15, 11
25, 14
30, 14
36, 5
35, 9
26, 12
25, 11
19, 6
16, 12
22, 5
14, 7
16, 9
13, 4
10, 9
5, 8
10, 7
4, 9
7, 0
3, 8
3, 10
4, 7
6, 11
9, 6
11, 10
11, 13
15, 11
18, 26
28, 39
37, 50
51, 58
64, 63
71, 59
48, 57
52, 54
62, 46
51, 31
28, 20
13, 17
21, 13
12, 16
17, 4
10, 11
20, 9
22, 11
21, 16
24, 20
42, 28
46, 29
54, 47
69, 57
84, 77
67, 64
70, 86
74, 58
67, 41
43, 53
49, 35
36, 29
18, 22
18, 25
18, 15
25, 17
23, 32
39, 55
53, 89
137, 161
239, 324
378, 529
650, 894
1039, 1320
1293, 1630
1641, 2124
1927, 2214
2035, 2259
1947, 2174
1734, 1844
1472, 1400
1055, 1030
753, 652
498, 424
280, 238
156, 123
80, 83
45, 44
22, 29
18, 18
17, 19
22, 16
16, 26
11, 12
27, 22
31, 19
40, 30
42, 51
52, 85
94, 118
109, 164
171, 240
216, 293
249, 317
299, 314
311, 363
295, 298
274, 258
227, 218
163, 171
104, 114
84, 68
42, 36
33, 16
25, 13
6, 12
6, 6
7, 5
5, 4
10, 14
13, 13
10, 14
8, 17
10, 16
13, 15
10, 11
11, 8
12, 15
9, 4
4, 8
5, 6
6, 16
2, 7
7, 12
5, 18
3, 13
11, 21
9, 9
6, 5
1, 4
3, 5
4, 3
2, 3
6, 4
3, 6
6, 5
3, 3
7, 6
10, 3
8, 3
6, 7
9, 6
22, 8
14, 10
16, 8
13, 5
18, 2
14, 5
15, 3
10, 4
16, 5
10, 6
5, 6
7, 6
2, 3
5, 7
6, 3
5, 7
2, 8
3, 11
8, 8
5, 9
6, 8
2, 6
4, 4
2, 3
4, 4
6, 2
7, 5
5, 4
2, 4
3, 6
0, 4
5, 2
3, 4
3, 1
7, 2
4, 3
2, 6
9, 1
12, 3
2, 3
6, 4
14, 6
11, 4
4, 3
5, 6
12, 2
6, 6
6, 5
3, 2
7, 9
4, 5
5, 9
2, 5
3, 5
4, 6
2, 9
2, 5
6, 3
0, 3
5, 2
7, 1
4, 3
4, 0
6, 7
3, 3
5, 6
3, 1
10, 3
8, 3
6, 2
7, 2
6, 2
9, 4
3, 4
9, 4
3, 2
4, 7
4, 8
6, 4
5, 1
5, 10
5, 5
4, 4
3, 8
4, 8
3, 6
3, 10
2, 5
1, 5
1, 8
6, 12
3, 5
0, 7
4, 7
5, 7
3, 7
5, 7
2, 4
4, 6
2, 4
5, 3
3, 2
4, 5
3, 1
1, 2
1, 2
5, 3
1, 2
3, 4
1, 5
2, 4
0, 2
1, 1
4, 2
1, 5
1, 3
3, 4
2, 5
1, 2
1, 4
1, 6
0, 7
2, 3
3, 0
2, 3
6, 2
1, 6
1, 0
2, 1
4, 3
1, 6
0, 1
1, 0
1, 2
1, 5
1, 3
0, 0
3, 4
5, 6
4, 2
2, 4
1, 3
4, 10
3, 5
3, 4
10, 4
4, 1
2, 2
1, 0
1, 7
5, 2
0, 3
3, 5
3, 3
2, 4
2, 3
2, 1
1, 3
1, 3
3, 3
2, 1
3, 1
2, 2
1, 3
1, 5
3, 2
3, 2
0, 0
2, 1
2, 3
4, 3
4, 0
4, 2
2, 3
0, 3
2, 2
1, 0
2, 4
2, 1
2, 2
4, 6
5, 1
1, 1
0, 5
1, 4
1, 2
1, 3
2, 3
6, 3
3, 0
0, 5
1, 2
2, 5
1, 4
2, 5
3, 3
5, 1
5, 2
0, 5
2, 5
4, 2
0, 0
2, 2
1, 1
2, 4
2, 2
4, 0
2, 1
0, 2
1, 2
0, 1
2, 1
1, 2
3, 2
0, 0
0, 2
4, 3
0, 0
2, 2
1, 3
0, 1
1, 3
2, 2
1, 3
3, 4
2, 0
2, 1
2, 2
2, 2
1, 2
0, 1
1, 1
3, 1
0, 1
2, 0
0, 1
1, 1
0, 0
1, 1
0, 1
1, 1
1, 1
0, 1
1, 0
3, 1
2, 1
1, 1
1, 2
2, 1
1, 0
2, 2
4, 2
0, 3
1, 2
1, 3
1, 1
1, 0
0, 1
2, 0
1, 2
1, 1
0, 1
1, 1
0, 1
0, 0
2, 0
1, 2
1, 1
1, 1
1, 1
1, 1
2, 1
0, 1
0, 1
1, 1
1, 0
0, 1
1, 1
0, 0
0, 2
0, 1
0, 1
1, 3
2, 1
0, 0
1, 1
2, 0
0, 0
1, 0
2, 2
0, 0
0, 0
2, 1
1, 1
0, 2
1, 2
0, 1
1, 2
2, 0
0, 2
0, 1
0, 1
1, 0
0, 2
0, 4
2, 1
0, 1
1, 0
1, 1
1, 0
1, 2
1, 2
0, 0
0, 1
1, 2
0, 3
0, 2
0, 1
0, 0
1, 1
0, 0
0, 1
0, 0
0, 1
0, 2
0, 0
2, 0
0, 1
0, 1
1, 0
0, 0
0, 1
0, 1
0, 0
0, 0
1, 0
1, 0
0, 1
0, 1
0, 1
0, 0
0, 0
0, 0
0, 0
0, 1
1, 0
0, 2
0, 1
1, 0
0, 0
0, 0
1, 0
0, 1
0, 0
0, 0
1, 0
0, 0
0, 0
1, 0
2, 0
1, 0
1, 1
0, 0
0, 0
0, 0
0, 3
0, 0
2, 0
0, 0
0, 0
1, 0
0, 0
1, 1
1, 1
0, 0
0, 0
0, 1
0, 1
1, 1
0, 0
0, 0
1, 0
0, 0
0, 0
1, 0
0, 0
0, 0
1, 0
0, 1
1, 0
0, 0
1, 0
0, 0
0, 0
0, 0
0, 0
0, 1
0, 0
0, 2
1, 1
0, 0
0, 0
0, 1
0, 0
0, 0
0, 1
0, 1
0, 0
0, 0
0, 0
0, 0
1, 0
0, 0
0, 0
1, 0
0, 0
0, 0
0, 0
0, 0
0, 0
0, 0
1, 0
0, 0
0, 0
0, 0
1, 0
0, 0
1, 0
0, 0
0, 0
0, 0
1, 1
0, 0
0, 0
0, 1
1, 0
1, 0
0, 0
0, 0
0, 0
1, 0
0, 0
0, 0
1, 0
0, 0
0, 0
0, 0
0, 0
0, 0
0, 1
0, 1
0, 0
1, 0
0, 0
1, 0
0, 0
0, 0
0, 0
0, 0
0, 1
0, 0
0, 1
1, 0
0, 0
0, 0
0, 1
1, 0
0, 0
1, 0
0, 0
1, 0
0, 0
0, 0
0, 0
0, 0
0, 0
0, 0
0, 0
0, 0
0, 0
1, 1
0, 0
1, 0
0, 0
0, 1
0, 0
0, 0
0, 0
1, 0
0, 0
1, 0
0, 1
1, 0
0, 0
0, 0
0, 0
0, 0
2, 0
0, 0
0, 0
0, 0
1, 0
0, 0
0, 0
1, 0
1, 0
0, 0
0, 0
1, 0
0, 0
1, 0
0, 0
2, 0
0, 0
0, 0
0, 0
0, 0
0, 0
0, 0
0, 0
0, 0
0, 0
0, 0
0, 0
0, 0
0, 0
0, 0
0, 0
0, 0
0, 0
0, 0
0, 0
1, 0
1, 0
0, 0
0, 0
0, 1
0, 0
0, 0
0, 0
0, 0
0, 0
1, 0
0, 0
0, 0
0, 0
0, 0
0, 0
0, 0
0, 0
0, 0
0, 0
0, 0
0, 0
0, 0
0, 0
0, 0
0, 0
0, 0
0, 0
0, 0
1, 0
0, 0
0, 0
0, 0
0, 0
0, 0
0, 0
0, 0
0, 0
0, 0
0, 0
0, 0
0, 0
0, 0
0, 0
0, 0
0, 0
0, 0
0, 0
0, 0
0, 0
0, 0
0, 0
0, 1
0, 0
0, 0
0, 0
0, 0
0, 0
0, 0
0, 0
0, 0
0, 0
0, 0
0, 0
0, 0
0, 0
0, 0
0, 0
0, 0
0, 0
0, 0
0, 0
0, 0
0, 0
0, 0
1, 0
0, 0
0, 0
0, 0
0, 0
0, 0
0, 0
0, 0
0, 0
0, 0
0, 0
0, 0
0, 0
0, 0
0, 0
0, 0
0, 0
0, 0
0, 0
0, 0
0, 0
0, 0
0, 0
0, 0
0, 0
0, 0
0, 0
0, 1
0, 0
0, 0
0, 0
0, 0
0, 0
0, 0
0, 0
0, 0
0, 0
0, 0
0, 0
1, 0
0, 0
0, 0
0, 0
0, 0
0, 0
0, 0
0, 0
0, 0
0, 0
0, 0
0, 0
0, 0
0, 0
0, 0
0, 0
0, 0
0, 0
0, 0
0, 0
0, 0
0, 0
0, 0
0, 0
0, 0
0, 0
0, 0
0, 0
0, 0
0, 0
0, 0
0, 0
0, 0
0, 0
0, 0
0, 0
0, 0
0, 0
0, 0
0, 0
0, 0
0, 0
0, 0
0, 0
0, 0
0, 0
0, 0
0, 0
0, 0
0, 0
0, 0
0, 0
0, 0
0, 0
0, 0
0, 0
0, 0
0, 0
0, 0
0, 0
0, 0
0, 0
0, 0
0, 0
0, 0
0, 0
0, 0
0, 0
0, 0
0, 0
0, 0
0, 0
0, 0
0, 0
0, 0
0, 0
0, 0
0, 0
0, 0
0, 0
0, 0
0, 0
0, 0
0, 0
0, 0
0, 0
0, 0
0, 0
0, 0
0, 0
0, 0
0, 0
0, 0
0, 0
0, 0
0, 0
0, 0
0, 0
0, 0
0, 0
0, 0
0, 0
0, 0
0, 0
0, 0
0, 0
0, 0
0, 0
0, 0
0, 0
0, 0
0, 0
0, 0
0, 0
0, 0
0, 0
0, 0
0, 0
0, 0
0, 0
0, 0
0, 0
0, 0
0, 0
0, 0
0, 0
0, 0
0, 0
0, 0
0, 0
0, 0
0, 0
0, 0
0, 0
0, 0
0, 0
0, 0
0, 0
0, 0
0, 0
0, 0
0, 0
0, 0
0, 0
0, 0
0, 0
0, 0
0, 0
0, 0
0, 0
0, 0
0, 0
0, 0
0, 0
0, 0
0, 0
0, 0
0, 0
0, 0
0, 0
0, 0
0, 0
0, 0
0, 0
0, 0
0, 0
0, 0
0, 0
0, 0
0, 0
0, 0
0, 0
0, 0
0, 0
0, 0
0, 0
0, 0
0, 0
0, 0
0, 0
0, 0
0, 0
0, 0
0, 0
0, 0
0, 0
0, 0
0, 0
0, 0
0, 0
0, 0
0, 0
0, 0
0, 0
0, 0
0, 0
0, 0
0, 0
0, 0
0, 0
0, 0
0, 0
0, 0
0, 0
0, 0
0, 0
0, 0
0, 0
0, 0
0, 0
0, 0
0, 0
0, 0
0, 0
0, 0
0, 0
0, 0
0, 0
0, 0
0, 0
0, 0
0, 0
0, 0
0, 0
0, 0
0, 0
0, 0
0, 0
0, 0
0, 0
0, 0
0, 0
0, 0
0, 0
0, 0
0, 0
0, 0
0, 0
0, 0
0, 0
0, 0
0, 0
0, 0
0, 0
0, 0
0, 0
0, 0
0, 0
0, 0
0, 0
0, 0
0, 0
0, 0
0, 0
0, 0
0, 0
0, 0
0, 0
0, 0
0, 0
0, 0
0, 0
0, 0
0, 0
0, 0
0, 0
0, 0
0, 0
0, 0
0, 0
0, 0
0, 0
0, 0
0, 0
0, 0
0, 0
0, 0
0, 0
0, 0
0, 0
0, 0
0, 0
0, 0
0, 0
0, 0
0, 0
0, 0
0, 0
0, 0
0, 0
0, 0
0, 0
0, 0
0, 0
0, 0
0, 0
0, 0
0, 0
0, 0
0, 0
0, 0
0, 0
0, 0
0, 0
0, 0
0, 0
0, 0
0, 0
0, 0
0, 0
0, 0
0, 0
0, 0
0, 0
0, 0
0, 0
0, 0
0, 0
0, 0
0, 0
0, 0
0, 0
0, 0
0, 0
0, 0
0, 0
0, 0
0, 0
0, 0
0, 0
0, 0
0, 0
0, 0
0, 0
0, 0
0, 0
0, 0
0, 0
0, 0
0, 0
0, 0
0, 0
0, 0
0, 0
0, 0
0, 0
0, 0
0, 0
0, 0
0, 0
0, 0
0, 0
0, 0
0, 0
0, 0
0, 0
0, 0
0, 0
0, 0
0, 0
0, 0
0, 0
0, 0
0, 0
0, 0
0, 0
0, 0
0, 0
0, 0
0, 0
0, 0
0, 0
0, 0
#ENDOFDATA     end of spectrum data