File: host_upload/06-09-2024/ps_0852/dump3/ps__0852shot_2535.msa
#FORMAT      : EMSA/MAS spectral data file
#VERSION     : TC202v2.0 PIXL
#TITLE       : N/A
#DATE        :       Date in the format DD-MMM-YYYY, for example 07-JUL-2010
#TIME        :             The time of day at which the spectrum was recorded, in 24-hour format
#OWNER       : PIXL Flight Model       (PIXL will use this to indicate which instrument took the data.)
#NPOINTS     : 4096     Number of data points in the spectrum (This can be zero for configuration only files)
#NCOLUMNS    : 2     Number of data columns in the spectrum (This can be zero for configuration only files)
#XUNITS      : eV
#YUNITS      : COUNTS
#DATATYPE    : YY
#XPERCHAN    : 7.862, 7.881   eV per channel (separate by commas if more than one detector)
#OFFSET      : 18.5, -22.4         eV of first channel  (separate by commas if more than one detector
#SIGNALTYPE  : XRF
#YP_TEMP     : 2.3
#LIVETIME    : 8.54871, 8.55627   seconds (separate by commas if more than one detector)
#REALTIME    : 10, 10.0   seconds (separate by commas if more than one detector)
#SPECTRUM    : start of spectrum data
0, 0
0, 0
0, 0
0, 0
0, 0
0, 0
0, 0
0, 0
0, 0
0, 0
0, 0
0, 0
0, 0
0, 0
0, 0
0, 0
0, 0
0, 0
0, 0
0, 0
0, 0
0, 0
0, 0
0, 0
0, 0
0, 0
0, 0
0, 0
0, 0
0, 1
0, 0
0, 0
0, 0
0, 0
0, 0
0, 1
1, 0
1, 2
0, 1
0, 0
1, 3
2, 0
0, 2
3, 2
4, 2
1, 1
2, 2
5, 4
2, 2
13, 15
23, 17
36, 32
64, 54
72, 58
71, 53
72, 59
58, 56
34, 36
29, 20
16, 16
9, 5
3, 4
3, 1
2, 0
1, 3
4, 6
7, 4
12, 7
26, 11
49, 36
104, 82
178, 145
251, 179
371, 285
398, 299
392, 340
352, 267
253, 203
192, 138
122, 91
82, 47
32, 29
23, 15
21, 8
11, 4
9, 7
5, 8
5, 7
4, 4
8, 4
5, 3
10, 8
13, 6
23, 21
44, 44
72, 75
111, 85
130, 133
161, 161
155, 162
143, 129
129, 106
75, 74
52, 36
35, 45
27, 27
16, 18
26, 15
29, 21
25, 26
33, 42
47, 40
54, 56
60, 65
76, 55
48, 67
65, 42
54, 45
49, 51
39, 31
30, 31
28, 24
23, 25
17, 22
16, 13
13, 11
18, 16
11, 8
16, 8
9, 9
7, 10
7, 4
3, 5
3, 0
0, 0
4, 5
4, 3
2, 5
3, 5
3, 9
3, 3
5, 3
5, 5
4, 6
2, 4
3, 4
1, 4
1, 2
1, 5
4, 2
2, 0
6, 3
21, 11
15, 18
20, 11
22, 23
30, 20
39, 27
27, 18
29, 17
29, 20
16, 10
12, 15
10, 15
7, 16
3, 9
1, 9
4, 11
6, 16
10, 18
5, 15
12, 7
7, 16
12, 10
6, 10
4, 4
5, 10
13, 9
8, 10
6, 7
3, 8
4, 8
3, 9
4, 4
8, 6
4, 9
6, 6
6, 2
2, 5
4, 8
4, 9
10, 18
7, 8
17, 11
9, 21
13, 12
13, 8
9, 12
18, 17
17, 10
13, 18
14, 16
19, 16
8, 22
10, 26
10, 27
8, 22
8, 19
7, 19
4, 11
9, 11
12, 14
9, 6
13, 12
15, 13
13, 4
9, 7
9, 7
3, 5
7, 5
9, 8
8, 7
11, 8
11, 9
9, 7
13, 4
15, 11
19, 12
29, 12
24, 24
26, 32
36, 31
12, 28
20, 48
16, 41
16, 44
13, 31
9, 35
9, 35
10, 22
13, 21
8, 19
6, 11
7, 13
12, 15
19, 22
40, 26
33, 41
70, 53
55, 47
67, 65
62, 58
65, 52
49, 53
46, 38
40, 38
26, 30
21, 27
23, 15
15, 30
30, 38
38, 46
61, 66
87, 124
161, 194
319, 300
531, 538
847, 803
1204, 1179
1642, 1581
2098, 1905
2282, 2080
2545, 2134
2407, 2018
2192, 1656
1823, 1258
1428, 974
1023, 653
650, 410
430, 219
227, 103
130, 60
65, 30
35, 16
18, 15
22, 15
21, 9
29, 17
22, 12
27, 18
27, 27
40, 40
50, 60
71, 75
102, 111
152, 170
203, 214
236, 252
307, 293
354, 310
367, 325
320, 323
303, 266
237, 172
206, 152
131, 80
74, 61
54, 46
35, 24
19, 13
7, 17
4, 12
16, 14
7, 5
10, 9
13, 16
13, 10
14, 16
18, 8
13, 12
11, 8
13, 11
10, 12
8, 4
7, 10
5, 4
7, 6
6, 8
0, 8
6, 7
4, 7
2, 5
4, 5
4, 5
6, 3
14, 6
6, 2
9, 5
6, 5
9, 5
10, 6
8, 7
8, 3
8, 5
8, 7
5, 7
3, 11
5, 5
7, 4
10, 5
5, 6
9, 8
5, 8
6, 4
3, 5
8, 4
6, 2
0, 1
5, 3
4, 3
2, 7
5, 3
5, 1
1, 4
2, 9
3, 9
9, 5
5, 3
4, 0
3, 5
8, 2
6, 6
5, 3
5, 4
1, 2
6, 2
4, 4
2, 2
4, 1
5, 4
2, 1
3, 5
2, 2
4, 4
4, 6
4, 4
7, 2
6, 5
3, 4
4, 2
5, 4
8, 2
11, 2
11, 4
15, 4
13, 3
13, 5
6, 7
9, 3
12, 6
7, 3
11, 4
17, 1
9, 5
4, 5
11, 3
6, 9
8, 3
7, 3
10, 6
8, 4
7, 2
12, 4
7, 1
8, 2
15, 1
9, 3
8, 1
6, 1
12, 1
6, 5
6, 4
5, 2
5, 4
2, 2
1, 2
3, 6
6, 3
6, 5
4, 4
6, 4
4, 0
6, 4
5, 1
3, 1
7, 0
5, 5
3, 1
6, 4
3, 4
1, 0
3, 4
7, 3
3, 3
7, 2
4, 4
2, 3
1, 2
1, 4
1, 5
0, 0
5, 3
6, 2
3, 3
1, 4
4, 3
4, 2
2, 3
2, 1
2, 1
2, 1
5, 5
1, 5
1, 6
2, 3
1, 4
4, 0
6, 6
1, 13
3, 9
0, 6
3, 6
2, 5
3, 3
2, 7
1, 3
0, 2
1, 2
0, 0
2, 4
2, 2
1, 1
2, 2
4, 2
2, 3
2, 4
3, 3
1, 1
4, 3
1, 2
1, 2
1, 1
3, 0
4, 5
1, 1
1, 2
3, 6
1, 1
4, 1
2, 1
3, 0
1, 2
2, 2
4, 6
1, 2
4, 8
3, 2
1, 3
4, 1
3, 1
0, 1
1, 2
1, 1
3, 1
2, 1
1, 2
1, 2
1, 0
5, 3
0, 5
2, 3
1, 4
2, 1
4, 2
0, 7
0, 7
1, 4
2, 4
2, 3
3, 3
1, 3
2, 3
1, 3
1, 4
3, 1
2, 1
3, 2
5, 3
2, 5
5, 3
6, 3
4, 3
7, 3
6, 2
5, 3
5, 2
3, 2
4, 3
4, 1
2, 3
3, 0
3, 2
4, 1
2, 1
1, 0
3, 2
2, 0
4, 1
0, 3
1, 0
3, 1
3, 1
1, 1
1, 2
1, 1
3, 2
2, 3
1, 2
5, 2
1, 1
1, 3
1, 0
2, 2
2, 1
2, 0
2, 1
3, 0
2, 0
1, 0
1, 1
2, 1
3, 0
0, 0
1, 0
1, 0
1, 5
2, 1
2, 1
0, 1
0, 1
1, 0
1, 3
0, 1
0, 1
3, 0
0, 1
2, 0
1, 1
0, 1
1, 2
0, 1
1, 0
2, 1
2, 0
2, 1
2, 0
2, 1
1, 0
1, 0
4, 3
1, 0
0, 2
2, 0
0, 2
1, 0
1, 0
1, 2
0, 1
0, 0
0, 1
0, 0
1, 0
2, 3
1, 0
0, 1
2, 0
0, 2
1, 1
1, 0
1, 0
0, 1
0, 1
1, 0
1, 0
1, 1
0, 1
1, 1
1, 1
2, 1
0, 3
0, 0
0, 3
1, 1
0, 0
1, 0
1, 2
0, 0
0, 1
0, 0
1, 0
0, 0
2, 0
0, 0
2, 1
0, 0
0, 0
2, 2
0, 0
0, 0
0, 0
0, 0
0, 0
0, 0
0, 1
1, 0
0, 1
0, 0
1, 3
0, 1
2, 0
0, 0
0, 0
1, 2
0, 0
0, 1
0, 0
0, 1
0, 0
0, 1
0, 1
0, 1
0, 0
0, 0
1, 1
1, 1
1, 0
1, 0
1, 0
1, 0
0, 0
0, 0
0, 1
0, 0
0, 0
1, 0
2, 2
2, 1
0, 0
1, 0
0, 0
0, 0
0, 1
1, 0
0, 0
0, 1
1, 0
0, 0
0, 0
0, 0
3, 1
0, 0
1, 1
0, 0
1, 0
0, 0
0, 0
1, 1
0, 0
0, 0
0, 0
0, 0
0, 0
0, 0
1, 0
0, 0
0, 0
0, 0
1, 0
0, 1
0, 0
0, 0
0, 0
0, 1
0, 1
0, 0
0, 0
0, 0
0, 0
0, 2
0, 0
1, 0
0, 0
0, 0
0, 0
0, 0
1, 3
0, 1
1, 0
1, 1
0, 0
0, 1
1, 0
0, 0
0, 0
0, 0
1, 0
1, 1
1, 0
0, 0
0, 0
1, 0
1, 0
0, 0
0, 0
0, 0
0, 0
0, 0
0, 0
0, 0
0, 0
0, 1
1, 0
0, 0
0, 0
0, 0
0, 0
0, 0
0, 1
1, 0
0, 0
0, 0
1, 0
0, 1
0, 0
0, 1
1, 1
1, 0
0, 0
0, 0
0, 1
3, 0
0, 0
0, 0
2, 1
1, 0
1, 0
0, 0
0, 0
0, 0
0, 0
0, 0
0, 1
0, 0
1, 0
0, 0
0, 0
0, 0
0, 0
0, 0
0, 1
0, 0
0, 0
0, 0
0, 0
1, 0
0, 0
0, 0
0, 0
0, 1
0, 0
0, 0
1, 0
0, 0
1, 0
0, 0
0, 0
1, 0
0, 0
0, 0
0, 0
0, 0
0, 0
1, 0
1, 0
0, 0
0, 0
2, 0
0, 0
0, 0
0, 0
0, 1
0, 0
0, 0
0, 0
0, 0
0, 0
0, 0
0, 0
1, 1
0, 0
1, 0
0, 0
1, 0
0, 0
0, 0
0, 0
0, 1
0, 0
0, 0
0, 0
0, 0
0, 0
0, 0
0, 1
0, 0
0, 0
0, 0
0, 0
0, 0
0, 0
0, 0
0, 0
1, 1
0, 0
1, 0
0, 1
0, 0
0, 0
0, 0
0, 0
0, 0
0, 0
0, 0
0, 0
0, 0
0, 0
0, 0
0, 0
0, 0
0, 0
0, 0
0, 0
0, 0
0, 0
0, 0
0, 0
0, 0
0, 0
0, 0
0, 0
0, 0
0, 1
0, 0
0, 0
0, 0
0, 0
0, 0
0, 0
0, 0
0, 0
0, 0
0, 0
0, 0
0, 0
0, 0
0, 0
0, 0
0, 0
0, 0
0, 0
0, 0
0, 0
0, 0
0, 0
0, 0
0, 0
0, 0
0, 0
0, 0
0, 0
0, 0
0, 0
0, 0
0, 0
0, 0
0, 0
0, 0
0, 0
0, 1
0, 0
0, 0
0, 0
0, 0
0, 0
0, 0
0, 0
0, 0
0, 0
0, 0
0, 0
0, 0
0, 0
0, 0
0, 0
0, 0
0, 0
0, 0
0, 0
0, 0
0, 0
0, 0
0, 0
0, 0
0, 0
0, 0
0, 0
0, 0
0, 0
0, 0
0, 0
0, 0
0, 0
0, 0
1, 0
0, 0
0, 0
0, 0
0, 0
0, 0
0, 0
0, 0
0, 0
0, 0
0, 0
0, 0
0, 0
0, 0
0, 0
0, 0
0, 0
0, 0
0, 0
0, 0
0, 0
0, 0
0, 0
0, 0
0, 0
0, 0
0, 1
0, 0
0, 0
0, 0
0, 0
0, 0
0, 0
0, 0
0, 0
0, 0
0, 0
0, 0
0, 0
0, 0
0, 0
0, 0
1, 0
0, 0
0, 0
0, 0
0, 0
0, 0
0, 0
0, 0
0, 0
0, 0
0, 0
0, 0
0, 0
0, 0
0, 0
0, 0
0, 0
0, 0
0, 0
0, 0
0, 0
0, 0
0, 0
0, 0
0, 0
0, 0
0, 0
0, 0
0, 0
0, 0
0, 0
0, 0
0, 0
0, 0
0, 0
0, 0
0, 0
0, 0
0, 0
0, 0
0, 0
0, 0
0, 0
0, 0
0, 0
0, 0
0, 0
0, 0
0, 0
0, 0
0, 0
0, 0
0, 0
0, 0
0, 0
0, 0
0, 0
0, 0
0, 0
0, 0
0, 0
0, 0
0, 0
0, 0
0, 0
0, 0
0, 0
0, 0
0, 0
0, 0
0, 0
0, 0
0, 0
0, 0
0, 0
0, 0
1, 0
0, 0
0, 0
0, 0
0, 0
0, 0
0, 0
0, 0
0, 0
0, 0
0, 0
0, 0
0, 0
0, 0
0, 0
0, 0
0, 0
0, 0
0, 0
0, 0
0, 0
0, 0
0, 0
0, 0
0, 0
0, 0
0, 0
0, 0
0, 0
0, 0
0, 0
0, 0
0, 0
0, 0
0, 0
0, 0
0, 0
0, 0
0, 0
0, 0
0, 0
0, 0
0, 0
0, 0
0, 0
0, 0
0, 0
0, 0
0, 0
0, 0
0, 0
0, 0
0, 0
0, 0
0, 0
0, 0
0, 0
0, 0
0, 0
0, 0
0, 0
0, 0
0, 0
0, 0
0, 0
0, 0
0, 0
0, 0
0, 0
0, 0
0, 0
0, 0
0, 0
0, 0
0, 0
0, 0
0, 0
0, 0
0, 0
0, 0
0, 0
0, 0
0, 0
0, 0
0, 0
0, 0
0, 0
0, 0
0, 0
0, 0
0, 0
0, 0
0, 0
0, 0
0, 0
0, 0
0, 0
0, 0
0, 0
0, 0
0, 0
0, 0
0, 0
0, 0
0, 0
0, 0
0, 0
0, 0
0, 0
0, 0
0, 0
0, 0
0, 0
0, 0
0, 0
0, 0
0, 0
0, 0
0, 0
0, 0
0, 0
0, 0
0, 0
0, 0
0, 0
0, 0
0, 0
0, 0
0, 0
0, 0
0, 0
0, 0
0, 0
0, 0
0, 0
0, 0
0, 0
0, 0
0, 0
0, 0
0, 0
0, 0
0, 0
0, 0
0, 0
0, 0
0, 0
0, 0
0, 0
0, 0
0, 0
0, 0
0, 0
0, 0
0, 0
0, 0
0, 0
0, 0
0, 0
0, 0
0, 0
0, 0
0, 0
0, 0
0, 0
0, 0
0, 0
0, 0
0, 0
0, 0
0, 0
0, 0
0, 0
0, 0
0, 0
0, 0
0, 0
0, 0
0, 0
0, 0
0, 0
0, 0
0, 0
0, 0
0, 0
0, 0
0, 0
0, 0
0, 0
0, 0
0, 0
0, 0
0, 0
0, 0
0, 0
0, 0
0, 0
0, 0
0, 0
0, 0
0, 0
0, 0
0, 0
0, 0
0, 0
0, 0
0, 0
0, 0
0, 0
0, 0
0, 0
0, 0
0, 0
0, 0
0, 0
0, 0
0, 0
0, 0
0, 0
0, 0
0, 0
0, 0
0, 0
0, 0
0, 0
0, 0
0, 0
0, 0
0, 0
0, 0
0, 0
0, 0
0, 0
0, 0
0, 0
0, 0
0, 0
0, 0
0, 0
0, 0
0, 0
0, 0
0, 0
0, 0
0, 0
0, 0
0, 0
0, 0
0, 0
0, 0
0, 0
0, 0
0, 0
0, 0
0, 0
0, 0
0, 0
0, 0
0, 0
0, 0
0, 0
0, 0
0, 0
0, 0
0, 0
0, 0
0, 0
0, 0
0, 0
0, 0
0, 0
0, 0
0, 0
0, 0
0, 0
#ENDOFDATA     end of spectrum data