File: host_upload/06-09-2024/ps_0852/dump3/ps__0852shot_2563.msa
#FORMAT      : EMSA/MAS spectral data file
#VERSION     : TC202v2.0 PIXL
#TITLE       : N/A
#DATE        :       Date in the format DD-MMM-YYYY, for example 07-JUL-2010
#TIME        :             The time of day at which the spectrum was recorded, in 24-hour format
#OWNER       : PIXL Flight Model       (PIXL will use this to indicate which instrument took the data.)
#NPOINTS     : 4096     Number of data points in the spectrum (This can be zero for configuration only files)
#NCOLUMNS    : 2     Number of data columns in the spectrum (This can be zero for configuration only files)
#XUNITS      : eV
#YUNITS      : COUNTS
#DATATYPE    : YY
#XPERCHAN    : 7.862, 7.881   eV per channel (separate by commas if more than one detector)
#OFFSET      : 18.5, -22.4         eV of first channel  (separate by commas if more than one detector
#SIGNALTYPE  : XRF
#YP_TEMP     : 2.203
#LIVETIME    : 8.51465, 8.54811   seconds (separate by commas if more than one detector)
#REALTIME    : 10, 10.0   seconds (separate by commas if more than one detector)
#SPECTRUM    : start of spectrum data
0, 0
0, 0
0, 0
0, 0
0, 0
0, 0
0, 0
0, 0
0, 0
0, 0
0, 0
0, 0
0, 0
0, 0
0, 0
0, 0
0, 0
0, 0
0, 0
0, 0
0, 0
0, 0
0, 0
0, 0
0, 0
0, 0
0, 0
0, 0
0, 0
0, 0
0, 0
0, 0
0, 0
0, 0
1, 0
0, 1
2, 0
1, 0
4, 2
2, 1
3, 1
1, 0
3, 0
7, 1
3, 0
3, 2
1, 2
3, 1
2, 4
10, 9
15, 17
36, 29
38, 62
60, 66
91, 68
68, 68
47, 29
33, 28
15, 26
16, 17
10, 12
14, 12
18, 20
21, 25
19, 30
15, 16
19, 24
14, 25
18, 25
46, 52
113, 97
168, 182
283, 263
364, 369
484, 426
465, 430
396, 368
275, 281
217, 182
107, 102
84, 60
35, 33
34, 22
19, 17
18, 11
15, 15
12, 23
14, 12
16, 9
12, 14
5, 6
7, 3
8, 6
5, 3
3, 3
8, 3
10, 3
13, 6
15, 5
16, 9
14, 9
16, 7
6, 9
4, 8
6, 5
9, 12
6, 12
23, 13
43, 30
45, 43
60, 63
69, 56
85, 86
96, 67
110, 87
91, 69
72, 58
71, 50
49, 48
61, 46
53, 41
45, 36
44, 18
35, 24
37, 19
30, 21
31, 19
21, 10
15, 10
16, 5
10, 7
3, 4
7, 5
3, 4
4, 3
7, 3
4, 11
13, 12
11, 18
19, 20
23, 17
34, 22
32, 28
23, 17
22, 18
14, 15
7, 5
8, 4
3, 6
6, 7
6, 10
12, 18
16, 19
17, 30
34, 29
48, 41
63, 33
54, 48
51, 51
48, 38
40, 36
36, 21
17, 14
12, 9
8, 7
8, 5
6, 8
2, 12
14, 8
10, 6
6, 6
9, 18
6, 6
15, 5
5, 11
9, 10
7, 4
6, 8
10, 5
10, 3
18, 4
10, 8
40, 6
42, 7
32, 4
46, 12
65, 7
69, 7
64, 20
43, 30
49, 19
36, 23
31, 15
35, 19
33, 12
43, 22
33, 18
35, 22
32, 13
31, 17
20, 19
13, 10
9, 10
12, 7
12, 5
9, 7
15, 6
14, 8
15, 5
16, 9
4, 11
13, 11
11, 7
6, 7
10, 14
10, 6
15, 10
7, 11
5, 9
5, 13
8, 5
10, 9
6, 8
12, 16
9, 10
13, 14
18, 12
17, 15
14, 11
16, 18
12, 12
11, 13
13, 19
27, 13
22, 12
27, 18
19, 11
24, 8
21, 14
21, 8
29, 8
29, 10
44, 5
45, 9
54, 7
86, 23
77, 29
85, 38
96, 44
103, 77
110, 49
88, 59
75, 52
61, 44
47, 36
44, 25
29, 22
22, 19
13, 14
15, 12
23, 18
18, 38
37, 55
60, 99
146, 180
271, 341
454, 505
753, 846
1095, 1264
1534, 1582
1868, 1921
2193, 2201
2315, 2263
2226, 2005
1904, 1809
1655, 1363
1213, 935
834, 632
518, 415
319, 223
163, 113
84, 69
51, 40
40, 20
24, 17
20, 15
14, 15
18, 11
21, 16
28, 17
26, 19
27, 28
48, 50
70, 62
122, 110
138, 163
187, 216
259, 252
323, 307
336, 323
375, 317
317, 266
305, 266
232, 171
173, 123
107, 86
79, 61
41, 37
37, 21
23, 16
21, 5
16, 5
11, 7
10, 12
11, 16
20, 19
12, 13
17, 19
15, 20
17, 12
18, 13
13, 15
13, 7
9, 12
10, 8
7, 5
6, 5
8, 4
5, 6
5, 5
11, 4
1, 8
6, 2
7, 3
3, 5
9, 2
3, 3
5, 4
6, 5
6, 3
11, 5
4, 3
6, 3
6, 1
3, 7
7, 6
8, 2
6, 4
10, 5
5, 12
8, 11
11, 1
6, 11
5, 2
11, 8
11, 9
11, 14
13, 5
9, 4
6, 11
8, 6
11, 6
8, 8
6, 3
11, 10
15, 8
12, 1
16, 5
13, 4
11, 8
18, 7
8, 6
10, 5
9, 13
14, 5
7, 6
6, 9
7, 11
6, 13
6, 13
8, 12
7, 13
5, 9
8, 5
4, 6
4, 4
2, 8
10, 7
8, 5
4, 1
7, 3
7, 7
2, 6
5, 5
7, 0
6, 0
4, 3
4, 5
5, 4
5, 3
5, 4
3, 11
3, 3
2, 3
2, 5
2, 4
8, 0
0, 0
2, 4
4, 2
4, 3
3, 3
4, 2
1, 2
4, 3
3, 3
4, 4
3, 6
1, 4
2, 4
5, 1
7, 5
3, 2
5, 2
1, 7
11, 4
7, 6
6, 7
3, 6
6, 2
6, 6
7, 12
4, 5
4, 6
6, 8
5, 6
5, 7
5, 9
5, 2
4, 7
8, 6
4, 5
1, 3
2, 6
3, 1
1, 2
6, 6
4, 2
3, 1
5, 1
3, 2
3, 8
2, 3
4, 5
5, 3
1, 3
4, 4
3, 6
4, 2
1, 3
3, 4
3, 2
4, 1
2, 4
3, 1
2, 6
3, 0
2, 6
4, 2
2, 3
2, 2
4, 1
2, 2
2, 2
3, 4
3, 5
1, 0
1, 3
3, 1
1, 3
1, 4
2, 6
2, 2
4, 2
1, 5
2, 3
1, 5
2, 1
2, 5
1, 0
5, 5
1, 3
1, 1
3, 1
0, 1
0, 6
3, 1
2, 0
3, 4
2, 1
1, 2
4, 3
5, 1
0, 1
9, 3
3, 2
4, 0
3, 2
6, 1
3, 1
2, 1
2, 7
7, 1
5, 0
5, 1
3, 3
3, 2
3, 1
1, 1
1, 1
1, 2
1, 1
3, 4
3, 4
0, 1
2, 2
2, 0
0, 2
1, 2
0, 1
1, 3
3, 2
1, 3
1, 0
2, 0
4, 5
4, 2
2, 1
3, 2
4, 5
4, 1
5, 2
4, 2
5, 3
3, 5
5, 5
6, 5
6, 1
1, 2
3, 0
2, 0
2, 0
2, 3
0, 1
0, 1
1, 1
2, 3
1, 1
0, 0
3, 1
1, 3
1, 1
0, 0
1, 4
6, 2
1, 0
1, 4
0, 2
0, 2
1, 2
1, 1
2, 0
2, 1
3, 2
2, 2
1, 1
2, 6
3, 2
2, 1
2, 4
0, 3
0, 2
0, 0
1, 2
0, 1
0, 2
0, 1
1, 3
1, 4
2, 1
1, 2
0, 1
3, 1
0, 2
1, 2
2, 1
1, 3
0, 1
3, 0
0, 0
4, 0
2, 1
1, 0
2, 1
1, 1
1, 1
0, 2
5, 2
3, 2
3, 0
1, 1
0, 1
0, 0
0, 1
2, 1
2, 0
2, 2
2, 0
0, 0
0, 1
0, 1
1, 1
0, 1
0, 0
1, 0
0, 2
1, 0
0, 1
2, 0
0, 1
0, 1
2, 0
1, 2
1, 2
2, 0
0, 3
0, 0
1, 2
2, 0
0, 0
0, 1
0, 0
1, 1
0, 0
0, 2
0, 0
0, 0
0, 1
0, 0
0, 1
0, 0
0, 0
0, 2
0, 0
1, 1
0, 0
2, 0
0, 0
1, 1
0, 2
0, 0
2, 0
0, 0
1, 1
1, 1
0, 1
0, 0
1, 1
1, 0
0, 0
0, 1
2, 3
1, 0
0, 0
0, 0
0, 0
1, 0
0, 1
1, 0
2, 0
0, 0
1, 0
1, 0
0, 0
0, 1
1, 1
0, 0
0, 1
0, 1
1, 1
0, 1
0, 2
0, 0
0, 0
0, 0
1, 0
1, 0
1, 1
0, 0
0, 1
0, 1
0, 1
0, 1
0, 0
0, 0
0, 0
0, 1
1, 2
1, 0
0, 0
0, 0
0, 0
2, 0
1, 0
0, 0
0, 0
0, 0
1, 0
0, 0
0, 1
1, 0
0, 0
0, 1
0, 0
0, 0
0, 0
0, 1
0, 0
2, 0
0, 0
1, 0
0, 0
0, 0
0, 0
0, 0
1, 0
0, 0
0, 0
0, 0
0, 0
0, 1
0, 0
0, 0
0, 1
1, 0
0, 0
0, 0
0, 1
0, 3
0, 0
2, 0
0, 0
0, 1
1, 1
0, 0
0, 1
0, 0
1, 0
0, 0
0, 1
0, 0
0, 0
0, 0
0, 0
0, 2
1, 0
0, 1
0, 0
0, 1
0, 0
0, 0
0, 0
1, 0
1, 0
0, 0
0, 0
0, 1
1, 1
0, 0
0, 0
0, 0
2, 0
0, 0
0, 0
0, 0
1, 0
1, 0
0, 1
1, 0
0, 2
0, 0
1, 1
0, 1
0, 1
0, 0
0, 0
1, 1
0, 0
0, 0
0, 0
0, 1
0, 0
0, 0
0, 0
1, 1
0, 0
1, 0
0, 0
0, 0
1, 0
1, 0
1, 0
0, 0
0, 0
0, 0
0, 0
0, 0
0, 0
0, 0
1, 0
1, 0
0, 0
0, 1
0, 0
0, 0
1, 0
0, 0
0, 0
0, 0
0, 0
0, 0
0, 0
0, 0
0, 0
1, 0
0, 0
0, 0
0, 0
0, 0
1, 0
0, 0
0, 0
0, 1
0, 0
0, 0
0, 0
0, 0
0, 0
2, 0
0, 0
0, 0
0, 0
0, 1
1, 0
1, 0
0, 0
0, 1
2, 1
0, 0
1, 0
0, 0
0, 0
0, 1
0, 0
0, 0
0, 0
0, 0
0, 0
0, 0
0, 0
0, 0
0, 0
0, 0
0, 0
1, 0
0, 0
0, 0
0, 0
0, 0
0, 0
0, 0
0, 0
0, 0
0, 0
0, 0
0, 0
0, 0
0, 0
0, 0
0, 0
0, 0
0, 0
0, 0
1, 0
0, 0
0, 0
0, 0
0, 1
1, 0
0, 0
0, 0
0, 0
0, 0
0, 0
0, 0
0, 0
0, 0
0, 0
0, 0
0, 0
0, 0
0, 0
0, 0
0, 0
0, 0
0, 0
0, 0
0, 0
0, 0
0, 0
0, 0
1, 0
0, 0
0, 0
0, 0
0, 0
0, 0
0, 0
0, 0
0, 0
0, 0
0, 0
0, 0
0, 0
0, 0
0, 0
0, 0
0, 0
0, 0
0, 0
0, 0
0, 0
0, 0
0, 0
0, 0
1, 0
1, 0
0, 0
0, 0
0, 0
0, 0
0, 0
0, 0
0, 0
0, 0
0, 0
0, 0
0, 0
0, 0
0, 0
0, 0
0, 0
0, 0
0, 0
0, 0
0, 1
0, 0
0, 0
0, 0
0, 0
1, 0
0, 0
0, 0
0, 0
0, 0
0, 0
0, 0
0, 0
0, 0
0, 0
0, 0
0, 0
0, 0
0, 0
0, 0
0, 0
0, 0
0, 0
0, 0
0, 0
0, 0
0, 0
0, 0
0, 0
0, 0
0, 0
0, 0
0, 0
0, 0
0, 0
0, 0
0, 0
0, 0
0, 0
0, 0
0, 0
0, 0
0, 0
0, 0
0, 0
0, 0
0, 0
0, 0
0, 0
0, 0
0, 0
0, 0
0, 0
0, 0
0, 0
0, 0
0, 0
0, 0
0, 0
0, 0
0, 0
0, 0
0, 0
0, 0
0, 0
0, 0
0, 0
0, 0
0, 0
0, 0
0, 0
0, 0
0, 0
0, 0
0, 0
1, 0
0, 0
0, 0
0, 0
0, 0
0, 0
0, 0
0, 0
0, 0
0, 0
0, 0
0, 0
0, 0
0, 0
0, 0
0, 0
0, 0
0, 0
0, 0
0, 0
0, 0
0, 0
0, 0
0, 0
0, 0
0, 0
0, 0
0, 0
0, 0
0, 0
0, 0
0, 0
0, 0
0, 0
0, 0
0, 0
0, 0
0, 0
0, 0
0, 0
0, 0
0, 0
0, 0
0, 0
0, 0
0, 0
0, 0
0, 0
0, 0
0, 0
0, 0
0, 0
0, 0
0, 0
0, 0
0, 0
0, 0
0, 0
0, 0
0, 0
0, 0
0, 0
0, 0
0, 0
0, 0
0, 0
0, 0
0, 0
0, 0
0, 0
0, 0
0, 0
0, 0
0, 0
0, 0
0, 0
0, 0
0, 0
0, 0
0, 0
0, 0
0, 0
0, 0
0, 0
0, 0
0, 0
0, 0
0, 0
0, 0
0, 0
0, 0
0, 0
0, 0
0, 0
0, 0
0, 0
0, 0
0, 0
0, 0
0, 0
0, 0
0, 0
0, 0
0, 0
0, 0
0, 0
0, 0
0, 0
0, 0
0, 0
0, 0
0, 0
0, 0
0, 0
0, 0
0, 0
0, 0
0, 0
0, 0
0, 0
0, 0
0, 0
0, 0
0, 0
0, 0
0, 0
0, 0
0, 0
0, 0
0, 0
0, 0
0, 0
0, 0
0, 0
0, 0
0, 0
0, 0
0, 0
0, 0
0, 0
0, 0
0, 0
0, 0
0, 0
0, 0
0, 0
0, 0
0, 0
0, 0
0, 0
0, 0
0, 0
0, 0
0, 0
0, 0
0, 0
0, 0
0, 0
0, 0
0, 0
0, 0
0, 0
0, 0
0, 0
0, 0
0, 0
0, 0
0, 0
0, 0
0, 0
0, 0
0, 0
0, 0
0, 0
0, 0
0, 0
0, 0
0, 0
0, 0
0, 0
0, 0
0, 0
0, 0
0, 0
0, 0
0, 0
0, 0
0, 0
0, 0
0, 0
0, 0
0, 0
0, 0
0, 0
0, 0
0, 0
0, 0
0, 0
0, 0
0, 0
0, 0
0, 0
0, 0
0, 0
0, 0
0, 0
0, 0
0, 0
0, 0
0, 0
0, 0
0, 0
0, 0
0, 0
0, 0
0, 0
0, 0
0, 0
0, 0
0, 0
0, 0
0, 0
0, 0
0, 0
0, 0
0, 0
0, 0
0, 0
0, 0
0, 0
0, 0
0, 0
0, 0
0, 0
0, 0
0, 0
0, 0
0, 0
0, 0
0, 0
0, 0
0, 0
0, 0
0, 0
0, 0
0, 0
0, 0
0, 0
0, 0
0, 0
0, 0
0, 0
0, 0
0, 0
0, 0
0, 0
0, 0
0, 0
0, 0
0, 0
0, 0
0, 0
0, 0
0, 0
0, 0
0, 0
0, 0
0, 0
0, 0
0, 0
0, 0
0, 0
0, 0
0, 0
0, 0
0, 0
0, 0
0, 0
0, 0
0, 0
0, 0
0, 0
0, 0
0, 0
0, 0
0, 0
0, 0
0, 0
0, 0
0, 0
0, 0
0, 0
0, 0
0, 0
0, 0
0, 0
0, 0
0, 0
0, 0
0, 0
0, 0
0, 0
0, 0
0, 0
0, 0
0, 0
0, 0
0, 0
0, 0
0, 0
0, 0
0, 0
0, 0
0, 0
0, 0
0, 0
0, 0
0, 0
0, 0
0, 0
0, 0
0, 0
0, 0
0, 0
0, 0
0, 0
#ENDOFDATA     end of spectrum data