File: host_upload/06-09-2024/ps_0852/dump3/ps__0852shot_2046.msa
#FORMAT      : EMSA/MAS spectral data file
#VERSION     : TC202v2.0 PIXL
#TITLE       : N/A
#DATE        :       Date in the format DD-MMM-YYYY, for example 07-JUL-2010
#TIME        :             The time of day at which the spectrum was recorded, in 24-hour format
#OWNER       : PIXL Flight Model       (PIXL will use this to indicate which instrument took the data.)
#NPOINTS     : 4096     Number of data points in the spectrum (This can be zero for configuration only files)
#NCOLUMNS    : 2     Number of data columns in the spectrum (This can be zero for configuration only files)
#XUNITS      : eV
#YUNITS      : COUNTS
#DATATYPE    : YY
#XPERCHAN    : 7.862, 7.881   eV per channel (separate by commas if more than one detector)
#OFFSET      : 18.5, -22.4         eV of first channel  (separate by commas if more than one detector
#SIGNALTYPE  : XRF
#YP_TEMP     : 2.46
#LIVETIME    : 8.5615, 8.5369   seconds (separate by commas if more than one detector)
#REALTIME    : 10, 10.0   seconds (separate by commas if more than one detector)
#SPECTRUM    : start of spectrum data
0, 0
0, 0
0, 0
0, 0
0, 0
0, 0
0, 0
0, 0
0, 0
0, 0
0, 0
0, 0
0, 0
0, 0
0, 0
0, 0
0, 0
0, 0
0, 0
0, 0
0, 0
0, 0
0, 0
0, 0
0, 0
0, 0
0, 0
0, 0
0, 0
0, 0
0, 1
0, 0
0, 0
1, 1
1, 0
0, 0
0, 1
1, 0
0, 0
0, 0
1, 0
0, 2
0, 4
1, 0
0, 0
3, 1
0, 0
3, 2
5, 4
14, 21
21, 21
47, 43
58, 54
82, 70
97, 70
78, 81
78, 47
43, 47
28, 36
11, 17
12, 11
7, 5
2, 3
6, 2
1, 2
4, 5
7, 5
6, 6
26, 32
47, 49
94, 100
181, 163
266, 279
331, 387
400, 398
406, 379
397, 342
301, 304
209, 223
123, 124
90, 85
40, 39
13, 15
15, 6
4, 5
2, 7
2, 1
1, 2
2, 0
2, 3
0, 1
2, 1
1, 2
2, 0
0, 2
1, 3
2, 1
2, 6
3, 5
3, 10
2, 12
2, 13
3, 10
5, 9
5, 17
6, 19
11, 16
18, 9
18, 10
19, 13
31, 14
31, 17
45, 25
47, 45
55, 46
56, 47
61, 41
50, 39
51, 31
46, 27
27, 38
25, 29
18, 23
20, 33
29, 30
11, 30
14, 27
15, 29
8, 18
9, 12
5, 7
3, 10
1, 2
3, 1
6, 1
2, 2
1, 2
2, 2
3, 0
2, 0
0, 1
1, 1
2, 1
0, 1
2, 3
1, 2
1, 4
0, 0
2, 4
6, 1
4, 4
2, 6
8, 8
5, 7
10, 17
8, 20
13, 17
15, 16
15, 15
14, 9
11, 6
5, 5
8, 6
6, 7
4, 5
2, 4
2, 15
2, 10
11, 14
7, 23
2, 24
7, 21
3, 20
3, 16
2, 14
7, 7
3, 7
7, 6
8, 6
6, 4
3, 9
6, 8
1, 1
8, 3
12, 2
8, 4
4, 4
11, 8
12, 2
14, 10
12, 6
12, 10
17, 9
18, 11
15, 15
27, 16
23, 16
19, 14
25, 17
23, 16
17, 15
9, 22
17, 19
12, 21
9, 17
8, 30
7, 43
7, 28
7, 32
1, 25
5, 29
9, 16
5, 17
9, 8
10, 7
3, 9
4, 9
9, 6
9, 7
8, 3
6, 5
11, 7
23, 4
15, 11
30, 12
57, 11
67, 8
80, 15
101, 22
98, 19
77, 22
72, 10
63, 19
51, 11
34, 10
14, 16
9, 12
7, 6
9, 11
10, 7
10, 11
8, 13
10, 17
13, 26
12, 24
12, 28
26, 34
28, 49
57, 59
65, 76
51, 65
58, 70
62, 65
44, 33
35, 34
41, 36
32, 15
17, 16
30, 26
30, 20
24, 31
23, 38
48, 58
90, 99
157, 223
305, 369
496, 668
759, 977
1159, 1369
1538, 1783
1927, 2222
2164, 2480
2414, 2551
2228, 2333
2066, 2107
1814, 1636
1316, 1249
942, 803
599, 449
343, 273
215, 156
121, 87
62, 54
38, 30
23, 17
14, 8
11, 11
23, 8
14, 17
20, 24
24, 29
33, 34
43, 66
65, 77
95, 117
140, 177
237, 257
233, 297
307, 359
362, 363
377, 367
328, 356
295, 313
238, 284
183, 205
125, 159
79, 154
62, 119
44, 110
18, 125
10, 113
6, 90
4, 72
3, 77
6, 66
10, 48
9, 34
14, 23
12, 29
16, 14
7, 16
10, 8
5, 7
11, 3
10, 9
9, 0
4, 8
6, 4
13, 9
7, 4
3, 3
1, 6
6, 3
3, 2
6, 3
5, 4
6, 5
5, 3
4, 2
6, 4
6, 3
5, 7
6, 4
10, 5
4, 9
4, 5
8, 11
8, 10
6, 11
4, 3
3, 9
2, 10
4, 5
4, 5
2, 3
6, 3
2, 7
2, 7
3, 4
3, 3
8, 8
7, 2
7, 6
7, 3
5, 4
9, 4
6, 3
2, 5
5, 8
4, 3
3, 10
3, 4
4, 9
4, 9
5, 10
2, 11
6, 18
5, 7
4, 7
3, 9
1, 7
6, 5
4, 5
2, 3
3, 5
3, 11
3, 6
3, 5
4, 7
4, 4
6, 4
2, 4
2, 3
9, 8
4, 2
3, 2
3, 2
3, 6
4, 4
2, 2
4, 3
4, 3
7, 7
8, 6
4, 9
8, 5
6, 7
8, 2
4, 5
4, 6
4, 5
3, 8
4, 9
6, 5
2, 5
6, 5
6, 2
2, 7
5, 5
2, 6
2, 5
1, 6
5, 3
2, 2
1, 4
3, 4
2, 2
2, 5
1, 2
2, 0
3, 1
2, 3
0, 3
3, 2
5, 2
3, 3
4, 5
3, 1
4, 6
3, 4
0, 1
6, 3
3, 6
1, 3
2, 5
4, 2
5, 5
4, 3
4, 3
6, 5
3, 4
2, 5
11, 6
2, 6
6, 2
4, 3
5, 2
2, 4
1, 2
7, 3
6, 3
1, 1
2, 2
1, 1
5, 5
5, 4
2, 3
3, 3
1, 1
3, 1
2, 2
1, 3
3, 6
1, 4
3, 2
2, 6
6, 2
2, 2
0, 5
0, 5
1, 8
3, 4
1, 5
2, 6
0, 1
2, 4
1, 1
5, 5
1, 4
2, 1
4, 4
1, 2
2, 1
4, 1
2, 2
0, 2
1, 2
6, 2
2, 0
3, 1
4, 3
5, 3
2, 1
1, 2
1, 1
1, 3
5, 2
1, 0
4, 5
2, 1
1, 1
0, 1
2, 0
1, 2
1, 0
2, 5
0, 3
2, 2
1, 4
2, 1
0, 4
2, 1
1, 1
5, 2
3, 0
2, 4
1, 1
2, 5
1, 2
4, 2
0, 1
4, 2
1, 3
0, 1
2, 3
3, 1
2, 6
2, 4
3, 3
7, 4
3, 1
5, 1
7, 2
7, 5
0, 2
6, 3
3, 3
4, 0
1, 3
1, 4
2, 3
1, 1
0, 5
1, 3
1, 3
3, 1
0, 1
0, 1
2, 1
2, 1
0, 0
1, 2
1, 0
0, 4
4, 0
1, 0
1, 0
0, 3
2, 2
1, 1
3, 2
2, 1
1, 2
1, 1
2, 1
1, 2
0, 3
3, 0
0, 3
0, 2
0, 1
1, 0
1, 5
0, 1
1, 3
1, 4
0, 0
1, 2
1, 2
2, 2
1, 2
1, 5
0, 2
2, 2
5, 1
0, 2
0, 1
2, 2
0, 0
2, 1
0, 3
0, 2
1, 1
1, 0
1, 2
2, 0
1, 0
0, 0
2, 2
1, 0
1, 1
0, 1
5, 0
0, 1
0, 0
2, 0
0, 0
0, 0
1, 0
0, 0
2, 1
2, 1
0, 0
0, 3
0, 1
0, 0
1, 1
1, 0
2, 1
1, 2
1, 0
0, 1
0, 0
0, 0
1, 1
1, 2
3, 0
0, 2
0, 0
1, 0
0, 0
3, 2
0, 0
0, 0
0, 1
0, 1
0, 0
0, 0
1, 1
0, 0
0, 0
1, 1
2, 3
1, 2
1, 1
0, 0
1, 1
0, 1
1, 0
2, 0
1, 0
0, 2
0, 2
1, 1
1, 2
1, 1
0, 1
2, 3
0, 0
0, 1
0, 1
2, 0
1, 0
1, 1
1, 0
1, 1
0, 0
0, 0
1, 2
0, 0
1, 2
1, 1
0, 0
0, 0
0, 0
1, 0
0, 3
0, 0
0, 0
0, 3
0, 1
1, 0
0, 0
0, 0
0, 1
1, 2
0, 0
0, 1
0, 0
0, 1
0, 0
0, 0
0, 0
0, 0
0, 0
0, 0
0, 0
0, 0
0, 1
1, 2
0, 1
0, 1
0, 0
0, 0
0, 2
1, 0
0, 0
1, 1
0, 0
0, 1
0, 1
0, 0
0, 1
0, 0
0, 1
0, 0
0, 0
0, 0
0, 2
0, 0
0, 0
2, 0
0, 0
0, 2
1, 2
1, 0
0, 0
1, 3
0, 0
0, 0
0, 0
0, 1
0, 0
0, 0
0, 2
0, 1
0, 0
0, 1
0, 0
0, 0
0, 0
1, 0
0, 1
0, 0
1, 0
0, 0
1, 0
0, 0
0, 1
0, 0
0, 1
1, 0
0, 0
0, 0
0, 0
1, 0
0, 0
0, 0
0, 1
1, 0
1, 0
0, 0
0, 0
0, 0
0, 0
0, 2
0, 0
0, 0
1, 1
0, 1
0, 0
2, 0
0, 2
0, 0
0, 0
0, 0
0, 0
1, 0
0, 0
0, 0
0, 0
0, 1
1, 0
1, 0
1, 1
0, 0
1, 0
0, 0
1, 0
0, 0
0, 1
1, 0
0, 0
0, 0
0, 0
0, 1
1, 0
1, 0
0, 0
0, 0
0, 0
0, 0
0, 0
0, 0
1, 0
0, 0
0, 1
0, 0
0, 0
0, 0
0, 0
0, 0
0, 0
0, 0
0, 0
0, 0
0, 0
0, 0
1, 0
0, 0
0, 0
0, 0
0, 0
0, 0
1, 0
0, 0
0, 0
0, 0
0, 0
0, 1
0, 0
1, 0
0, 1
0, 0
0, 0
0, 1
0, 1
0, 0
0, 0
0, 0
0, 0
0, 1
1, 1
0, 1
0, 0
0, 0
0, 0
0, 0
0, 0
1, 0
0, 0
0, 0
0, 0
0, 0
3, 1
0, 0
0, 0
0, 0
0, 0
0, 0
0, 0
0, 0
0, 0
0, 0
0, 0
0, 0
0, 0
0, 0
0, 0
0, 0
0, 0
0, 0
0, 0
1, 0
0, 0
0, 0
0, 0
0, 0
0, 0
0, 0
0, 0
0, 0
0, 0
0, 0
0, 0
0, 1
0, 0
0, 0
0, 0
0, 0
0, 0
1, 0
0, 0
1, 0
1, 0
0, 0
0, 0
0, 0
0, 0
0, 0
0, 0
0, 0
0, 0
0, 0
0, 0
0, 0
1, 0
0, 0
0, 1
1, 0
0, 0
0, 0
0, 0
0, 0
0, 0
1, 0
0, 0
0, 0
0, 0
0, 0
0, 0
0, 0
0, 0
0, 0
0, 0
0, 0
0, 0
0, 0
0, 0
0, 0
0, 0
0, 0
0, 0
0, 0
0, 0
0, 0
0, 0
0, 0
0, 0
0, 0
0, 0
0, 0
0, 0
0, 0
0, 0
0, 0
0, 0
0, 0
0, 0
0, 0
0, 0
0, 0
1, 0
1, 0
0, 0
0, 0
0, 0
0, 1
0, 0
0, 0
0, 0
0, 0
0, 0
0, 0
0, 0
0, 0
0, 0
0, 0
0, 0
0, 0
0, 0
0, 0
0, 0
0, 0
0, 0
0, 0
0, 0
0, 0
0, 0
0, 0
0, 0
0, 0
0, 0
0, 0
0, 0
0, 0
0, 0
0, 0
0, 0
0, 0
0, 0
0, 0
0, 0
0, 0
0, 0
1, 0
0, 0
0, 0
0, 0
0, 0
0, 0
0, 0
0, 0
0, 0
0, 0
0, 0
0, 0
0, 0
0, 0
0, 0
0, 0
0, 0
0, 0
0, 0
0, 0
0, 0
0, 0
0, 0
0, 0
0, 0
0, 0
0, 0
0, 0
0, 0
0, 0
0, 0
0, 0
0, 0
0, 0
0, 0
0, 0
0, 0
0, 0
0, 0
0, 0
0, 0
0, 0
0, 0
0, 0
0, 0
0, 0
0, 0
0, 0
0, 0
0, 0
0, 0
0, 0
0, 0
0, 0
0, 0
0, 0
0, 0
0, 0
0, 0
0, 0
0, 0
0, 0
0, 0
0, 0
0, 0
0, 0
0, 0
0, 0
0, 0
0, 0
0, 0
0, 0
0, 0
0, 0
0, 0
0, 0
0, 0
0, 0
0, 0
0, 0
0, 0
0, 0
0, 0
0, 0
0, 0
0, 0
0, 0
0, 0
0, 0
0, 0
0, 0
0, 0
0, 0
0, 0
0, 0
0, 0
0, 0
0, 0
0, 0
0, 0
0, 0
0, 0
0, 0
0, 0
0, 0
0, 0
0, 0
0, 0
0, 0
0, 0
0, 0
0, 0
0, 0
0, 0
0, 0
0, 0
0, 0
0, 0
0, 0
0, 0
0, 0
0, 0
0, 0
0, 0
0, 0
0, 0
0, 0
0, 0
0, 0
0, 0
0, 0
0, 0
0, 0
0, 0
0, 0
0, 0
0, 0
0, 0
0, 0
0, 0
0, 0
0, 0
0, 0
0, 0
0, 0
0, 0
0, 0
0, 0
0, 0
0, 0
0, 0
0, 0
0, 0
0, 0
0, 0
0, 0
0, 0
0, 0
0, 0
0, 0
0, 0
0, 0
0, 0
0, 0
0, 0
0, 0
0, 0
0, 0
0, 0
0, 0
0, 0
0, 0
0, 0
0, 0
0, 0
0, 0
0, 0
0, 0
0, 0
0, 0
0, 0
0, 0
0, 0
0, 0
0, 0
0, 0
0, 0
0, 0
0, 0
0, 0
0, 0
0, 0
0, 0
0, 0
0, 0
0, 0
0, 0
0, 0
0, 0
0, 0
0, 0
0, 0
0, 0
0, 0
0, 0
0, 0
0, 0
0, 0
0, 0
0, 0
0, 0
0, 0
0, 0
0, 0
0, 0
0, 0
0, 0
0, 0
0, 0
0, 0
0, 0
0, 0
0, 0
0, 0
0, 0
0, 0
0, 0
0, 0
0, 0
0, 0
0, 0
0, 0
0, 0
0, 0
0, 0
0, 0
0, 0
0, 0
0, 0
0, 0
0, 0
0, 0
0, 0
0, 0
0, 0
0, 0
0, 0
0, 0
0, 0
0, 0
0, 0
0, 0
0, 0
0, 0
0, 0
0, 0
0, 0
0, 0
0, 0
0, 0
0, 0
0, 0
0, 0
0, 0
0, 0
0, 0
0, 0
0, 0
0, 0
0, 0
0, 0
0, 0
0, 0
0, 0
0, 0
0, 0
0, 0
0, 0
0, 0
0, 0
0, 0
0, 0
0, 0
0, 0
0, 0
0, 0
0, 0
0, 0
0, 0
0, 0
0, 0
0, 0
0, 0
0, 0
0, 0
0, 0
0, 0
0, 0
0, 0
0, 0
0, 0
0, 0
0, 0
0, 0
0, 0
0, 0
0, 0
0, 0
0, 0
0, 0
0, 0
0, 0
0, 0
0, 0
0, 0
0, 0
0, 0
0, 0
0, 0
0, 0
0, 0
0, 0
0, 0
0, 0
0, 0
0, 0
0, 0
0, 0
0, 0
0, 0
0, 0
0, 0
0, 0
0, 0
0, 0
0, 0
0, 0
0, 0
0, 0
0, 0
0, 0
0, 0
0, 0
0, 0
0, 0
0, 0
0, 0
0, 0
0, 0
0, 0
0, 0
0, 0
0, 0
0, 0
0, 0
0, 0
0, 0
0, 0
0, 0
0, 0
0, 0
#ENDOFDATA     end of spectrum data