File: host_upload/06-09-2024/ps_0852/dump3/ps__0852shot_2447.msa
#FORMAT      : EMSA/MAS spectral data file
#VERSION     : TC202v2.0 PIXL
#TITLE       : N/A
#DATE        :       Date in the format DD-MMM-YYYY, for example 07-JUL-2010
#TIME        :             The time of day at which the spectrum was recorded, in 24-hour format
#OWNER       : PIXL Flight Model       (PIXL will use this to indicate which instrument took the data.)
#NPOINTS     : 4096     Number of data points in the spectrum (This can be zero for configuration only files)
#NCOLUMNS    : 2     Number of data columns in the spectrum (This can be zero for configuration only files)
#XUNITS      : eV
#YUNITS      : COUNTS
#DATATYPE    : YY
#XPERCHAN    : 7.862, 7.881   eV per channel (separate by commas if more than one detector)
#OFFSET      : 18.5, -22.4         eV of first channel  (separate by commas if more than one detector
#SIGNALTYPE  : XRF
#YP_TEMP     : 2.428
#LIVETIME    : 8.55736, 8.55917   seconds (separate by commas if more than one detector)
#REALTIME    : 10, 10.0   seconds (separate by commas if more than one detector)
#SPECTRUM    : start of spectrum data
0, 0
0, 0
0, 0
0, 0
0, 0
0, 0
0, 0
0, 0
0, 0
0, 0
0, 0
0, 0
0, 0
0, 0
0, 0
0, 0
0, 0
0, 0
0, 0
0, 0
0, 0
0, 0
0, 0
0, 0
0, 0
0, 0
0, 0
0, 0
0, 0
1, 0
0, 0
0, 0
0, 0
1, 0
2, 0
0, 0
0, 2
1, 0
1, 1
2, 3
1, 1
5, 1
1, 0
3, 2
1, 0
1, 1
1, 0
5, 2
4, 5
13, 13
17, 20
38, 40
58, 47
71, 61
83, 61
97, 55
78, 55
56, 34
25, 30
14, 11
8, 3
8, 2
5, 4
3, 2
5, 3
5, 1
3, 3
8, 9
26, 16
46, 32
88, 86
184, 131
251, 220
365, 302
449, 338
472, 361
345, 297
290, 208
195, 132
146, 82
63, 59
32, 26
28, 13
6, 9
2, 4
3, 0
5, 2
4, 0
4, 3
2, 2
4, 1
5, 1
9, 3
12, 7
26, 14
34, 31
46, 43
75, 50
83, 65
75, 53
80, 40
66, 40
47, 29
19, 24
13, 17
14, 12
10, 13
7, 12
19, 14
19, 13
30, 30
38, 53
39, 51
46, 49
51, 65
55, 78
57, 46
52, 66
41, 46
36, 42
26, 40
24, 31
24, 31
22, 34
19, 23
15, 23
15, 15
13, 10
13, 14
12, 7
6, 4
2, 6
7, 2
2, 5
5, 6
8, 1
5, 3
6, 2
7, 1
1, 3
6, 3
3, 5
9, 4
4, 5
6, 2
0, 4
4, 3
4, 3
5, 2
4, 3
6, 6
6, 5
12, 5
10, 12
27, 20
19, 17
29, 15
31, 18
28, 20
21, 25
19, 16
14, 13
10, 7
5, 8
9, 6
3, 7
9, 9
7, 4
4, 7
10, 5
2, 8
8, 7
12, 8
5, 4
8, 9
8, 9
7, 9
18, 15
21, 17
18, 14
18, 12
20, 15
18, 11
18, 10
12, 16
9, 7
14, 4
4, 8
9, 4
12, 9
13, 16
9, 13
9, 17
22, 15
21, 14
14, 25
24, 15
27, 14
23, 10
19, 27
23, 19
13, 16
19, 18
17, 10
20, 21
18, 19
14, 9
15, 18
12, 6
13, 14
14, 10
13, 19
9, 13
11, 4
14, 7
15, 7
21, 6
12, 8
13, 9
12, 6
14, 8
8, 10
10, 10
7, 7
16, 9
20, 9
15, 20
9, 17
35, 14
23, 21
24, 18
41, 25
16, 19
19, 21
9, 22
13, 26
7, 17
7, 15
11, 19
12, 10
17, 5
9, 16
14, 13
14, 14
24, 21
27, 23
35, 23
38, 21
54, 46
49, 52
75, 47
89, 49
69, 54
51, 51
53, 34
40, 48
36, 30
23, 18
18, 25
19, 15
37, 28
32, 36
34, 41
107, 80
170, 168
285, 309
531, 532
824, 782
1211, 1172
1723, 1495
2200, 1819
2408, 2087
2722, 2142
2590, 1901
2280, 1806
1896, 1302
1415, 963
939, 631
647, 362
398, 241
207, 111
125, 70
64, 32
35, 27
37, 20
33, 15
33, 22
32, 17
36, 19
44, 22
34, 27
45, 31
39, 52
90, 92
120, 121
170, 164
222, 225
318, 252
343, 318
381, 296
393, 313
363, 286
354, 245
282, 176
194, 139
141, 90
107, 53
47, 26
38, 21
16, 19
19, 7
15, 6
18, 10
11, 8
11, 9
17, 12
15, 14
18, 13
6, 13
8, 18
14, 10
12, 13
15, 7
8, 4
7, 12
10, 4
9, 2
4, 10
5, 4
6, 6
6, 3
1, 3
4, 0
7, 3
8, 5
1, 4
6, 3
9, 8
5, 5
6, 4
7, 10
8, 8
10, 2
7, 7
9, 7
7, 4
13, 6
11, 8
13, 6
8, 8
4, 6
6, 5
11, 8
10, 7
8, 8
4, 6
6, 3
6, 4
4, 8
4, 5
2, 5
4, 3
7, 3
6, 2
9, 3
3, 4
7, 6
7, 9
5, 4
7, 5
2, 3
1, 3
4, 3
6, 5
3, 4
1, 2
3, 1
4, 2
7, 4
2, 7
3, 4
9, 4
6, 5
8, 5
6, 4
5, 4
1, 5
4, 4
1, 4
7, 5
5, 7
8, 2
9, 2
7, 4
3, 4
4, 4
4, 3
6, 4
7, 11
4, 1
11, 1
6, 1
7, 3
7, 10
3, 7
4, 4
7, 10
3, 3
2, 4
2, 3
12, 2
7, 5
8, 8
17, 5
14, 3
18, 3
8, 2
10, 1
9, 1
7, 4
8, 6
10, 5
8, 3
5, 2
8, 4
4, 3
7, 1
7, 4
5, 4
10, 3
3, 5
5, 4
4, 1
7, 1
9, 3
4, 5
2, 3
3, 5
2, 2
5, 1
7, 3
3, 1
0, 5
4, 6
2, 3
2, 1
6, 2
3, 1
3, 0
4, 3
6, 2
7, 2
5, 3
1, 3
1, 2
4, 1
1, 2
5, 4
6, 3
5, 1
2, 5
5, 6
1, 2
4, 1
2, 1
2, 4
1, 2
2, 4
1, 5
4, 2
4, 1
3, 0
6, 2
3, 1
6, 4
2, 3
6, 1
6, 3
6, 5
3, 2
3, 1
1, 2
1, 3
0, 3
5, 2
2, 4
1, 1
7, 1
1, 2
3, 2
6, 1
2, 0
4, 4
3, 5
5, 5
1, 5
0, 3
1, 4
1, 0
1, 4
2, 5
1, 3
2, 2
1, 0
2, 3
5, 4
1, 2
3, 1
3, 5
2, 2
4, 2
1, 3
2, 2
1, 0
1, 1
2, 1
2, 3
1, 1
1, 3
2, 2
0, 0
2, 1
4, 2
1, 2
2, 0
0, 1
1, 2
5, 1
1, 1
0, 1
2, 0
2, 1
2, 5
1, 2
3, 4
1, 2
4, 3
3, 4
3, 4
7, 2
2, 5
6, 1
8, 2
7, 5
3, 1
8, 1
7, 2
4, 3
1, 4
1, 2
2, 2
3, 0
1, 3
3, 1
6, 0
1, 0
2, 2
3, 3
0, 3
1, 1
0, 5
0, 3
4, 0
2, 3
3, 3
2, 1
1, 3
3, 1
1, 0
1, 2
7, 3
1, 2
1, 2
3, 4
0, 3
1, 2
1, 1
3, 2
0, 2
1, 0
1, 0
1, 2
1, 0
3, 2
1, 1
3, 1
2, 3
4, 1
0, 0
0, 1
2, 4
1, 0
0, 2
2, 6
1, 1
1, 0
1, 0
2, 1
1, 0
2, 1
2, 0
2, 1
1, 0
3, 1
3, 0
5, 3
2, 1
1, 1
3, 0
3, 2
1, 1
0, 0
1, 1
1, 2
3, 0
3, 1
0, 0
2, 1
1, 3
2, 0
0, 0
1, 2
0, 0
1, 1
2, 2
1, 1
0, 1
1, 0
2, 0
1, 0
2, 1
0, 0
1, 0
0, 0
1, 1
3, 0
0, 1
2, 0
1, 0
0, 0
0, 1
3, 0
0, 1
1, 1
0, 0
2, 0
2, 0
0, 0
0, 0
0, 1
0, 2
0, 1
1, 2
2, 0
1, 1
1, 1
0, 0
1, 2
0, 0
1, 0
0, 0
1, 2
1, 0
1, 0
0, 0
0, 0
0, 0
3, 0
0, 1
1, 0
0, 0
1, 0
1, 2
0, 1
1, 0
1, 0
1, 0
0, 0
1, 0
0, 0
0, 0
0, 0
2, 0
1, 0
0, 1
1, 1
0, 2
0, 0
0, 1
0, 0
0, 1
1, 0
0, 0
0, 0
0, 0
1, 0
0, 1
0, 0
1, 0
1, 0
0, 1
0, 0
0, 0
2, 0
0, 0
3, 0
0, 0
0, 0
0, 0
1, 0
2, 0
0, 0
0, 0
0, 0
1, 0
1, 0
0, 1
0, 0
0, 0
0, 0
0, 0
1, 1
0, 0
0, 0
0, 0
0, 0
0, 0
1, 1
0, 0
0, 0
0, 0
0, 0
0, 0
0, 0
0, 0
1, 1
1, 0
1, 1
2, 0
0, 0
0, 0
0, 0
0, 1
2, 0
1, 0
0, 1
0, 2
0, 0
0, 1
0, 0
0, 0
0, 0
1, 1
0, 0
0, 0
0, 0
2, 0
0, 1
0, 0
1, 0
0, 0
0, 0
0, 1
2, 0
0, 0
0, 0
1, 0
1, 0
0, 0
1, 0
0, 0
0, 0
0, 0
1, 0
0, 1
0, 0
0, 1
0, 1
1, 1
0, 0
0, 0
0, 0
1, 0
2, 0
0, 2
0, 0
1, 0
0, 0
0, 0
1, 1
1, 0
0, 0
1, 0
0, 0
1, 1
0, 0
0, 0
0, 0
0, 0
0, 0
0, 0
0, 1
0, 0
0, 0
0, 0
0, 0
0, 0
0, 0
0, 0
1, 3
0, 0
1, 0
0, 0
1, 0
0, 0
0, 0
0, 0
0, 0
0, 0
1, 0
0, 0
0, 0
0, 0
0, 0
0, 0
1, 0
1, 1
0, 0
0, 0
1, 0
0, 0
1, 0
0, 0
0, 1
0, 0
0, 0
0, 0
0, 0
0, 0
0, 0
0, 0
0, 0
0, 0
0, 0
0, 0
0, 0
2, 0
0, 1
0, 0
0, 0
0, 0
0, 0
0, 0
1, 0
1, 0
0, 0
0, 0
0, 0
0, 2
0, 0
0, 0
0, 1
0, 1
0, 0
0, 0
0, 0
0, 0
0, 0
0, 0
0, 0
0, 0
0, 0
0, 0
0, 1
0, 0
0, 0
0, 0
0, 0
0, 1
0, 0
0, 0
0, 0
0, 0
0, 0
0, 0
0, 0
0, 0
0, 0
0, 0
0, 0
0, 0
0, 0
0, 1
0, 0
0, 0
0, 0
0, 0
0, 0
0, 0
1, 0
0, 0
0, 1
0, 0
1, 0
0, 0
1, 0
0, 0
0, 0
0, 0
0, 0
1, 0
0, 0
0, 0
0, 0
0, 0
0, 0
0, 0
0, 0
0, 0
0, 0
0, 0
0, 1
0, 0
0, 0
0, 0
0, 1
0, 0
0, 0
0, 0
0, 0
1, 0
0, 0
0, 0
0, 0
0, 0
0, 0
0, 0
0, 0
0, 0
0, 0
0, 0
0, 0
0, 0
0, 0
0, 0
0, 0
0, 0
0, 0
0, 0
0, 0
0, 0
0, 0
0, 0
0, 0
0, 0
0, 0
0, 0
0, 0
0, 0
0, 0
0, 0
0, 0
0, 0
0, 0
0, 0
0, 0
0, 0
0, 0
0, 0
0, 0
0, 0
0, 0
0, 0
0, 0
0, 0
0, 0
0, 0
0, 0
0, 0
0, 0
0, 0
0, 0
0, 0
0, 0
0, 0
0, 0
0, 0
0, 0
0, 0
0, 0
0, 0
0, 0
0, 0
0, 0
0, 0
0, 0
0, 0
0, 0
0, 0
0, 0
0, 0
0, 0
0, 0
0, 0
0, 0
0, 0
0, 0
0, 0
0, 0
0, 0
0, 0
0, 0
0, 0
0, 0
0, 0
0, 0
0, 0
0, 0
0, 0
0, 0
0, 0
0, 0
0, 0
0, 0
0, 0
0, 0
0, 0
0, 0
0, 0
0, 0
0, 0
0, 0
0, 0
0, 0
0, 0
0, 0
0, 0
0, 0
0, 0
0, 0
0, 0
0, 0
0, 0
0, 1
0, 0
0, 0
0, 0
0, 0
0, 0
0, 0
0, 0
0, 0
0, 0
0, 0
0, 0
0, 0
0, 0
0, 0
0, 0
0, 0
0, 0
0, 0
0, 0
0, 0
0, 0
0, 0
0, 0
0, 0
0, 0
0, 0
0, 0
0, 0
0, 0
0, 0
0, 0
0, 0
0, 0
0, 0
0, 0
0, 0
0, 0
0, 0
0, 0
0, 0
0, 0
0, 0
0, 0
0, 0
0, 0
0, 0
0, 0
0, 0
0, 0
0, 0
0, 0
0, 0
0, 0
0, 0
0, 0
0, 0
0, 0
0, 0
0, 0
0, 0
0, 0
0, 0
0, 0
0, 0
0, 0
0, 0
0, 0
0, 0
0, 0
0, 0
0, 0
0, 0
0, 0
0, 0
0, 0
0, 0
0, 0
0, 0
0, 0
0, 0
0, 0
0, 0
0, 0
0, 0
0, 0
0, 0
0, 0
0, 0
0, 0
0, 0
0, 0
0, 0
0, 0
0, 0
0, 0
0, 0
0, 0
0, 0
0, 0
0, 0
0, 0
0, 0
0, 0
0, 0
0, 0
0, 0
0, 0
0, 0
0, 0
0, 0
0, 0
0, 0
0, 0
0, 0
0, 0
0, 0
0, 0
0, 0
0, 0
0, 0
0, 0
0, 0
0, 0
0, 0
0, 0
0, 0
0, 0
0, 0
0, 0
0, 0
0, 0
0, 0
0, 0
0, 0
0, 0
0, 0
0, 0
0, 0
0, 0
0, 0
0, 0
0, 0
0, 0
0, 0
0, 0
0, 0
0, 0
0, 0
0, 0
0, 0
0, 0
0, 0
0, 0
0, 0
0, 0
0, 0
0, 0
0, 0
0, 0
0, 0
0, 0
0, 0
0, 0
0, 0
0, 0
0, 0
0, 0
0, 0
0, 0
0, 0
0, 0
0, 0
0, 0
0, 0
0, 0
0, 0
0, 0
0, 0
0, 0
0, 0
0, 0
0, 0
0, 0
0, 0
0, 0
0, 0
0, 0
0, 0
0, 0
0, 0
0, 0
0, 0
0, 0
0, 0
0, 0
0, 0
0, 0
0, 0
0, 0
0, 0
0, 0
0, 0
0, 0
0, 0
0, 0
0, 0
0, 0
0, 0
0, 0
0, 0
0, 0
0, 0
0, 0
0, 0
0, 0
0, 0
0, 0
0, 0
0, 0
0, 0
0, 0
0, 0
0, 0
0, 0
0, 0
0, 0
0, 0
0, 0
0, 0
0, 0
0, 0
0, 0
0, 0
0, 0
0, 0
0, 0
0, 0
0, 0
0, 0
0, 0
0, 0
0, 0
0, 0
0, 0
0, 0
0, 0
0, 0
0, 0
0, 0
0, 0
0, 0
0, 0
0, 0
0, 0
0, 0
0, 0
0, 0
0, 0
0, 0
0, 0
0, 0
0, 0
0, 0
0, 0
0, 0
0, 0
0, 0
0, 0
0, 0
0, 0
0, 0
0, 0
0, 0
0, 0
0, 0
0, 0
0, 0
0, 0
0, 0
0, 0
0, 0
0, 0
0, 0
0, 0
0, 0
0, 0
0, 0
0, 0
0, 0
0, 0
0, 0
0, 0
0, 0
0, 0
0, 0
0, 0
0, 0
0, 0
0, 0
0, 0
0, 0
0, 0
0, 0
0, 0
0, 0
0, 0
0, 0
0, 0
0, 0
0, 0
0, 0
0, 0
0, 0
0, 0
0, 0
0, 0
0, 0
0, 0
0, 0
0, 0
0, 0
0, 0
#ENDOFDATA     end of spectrum data