File: host_upload/06-09-2024/ps_0852/dump3/ps__0852shot_2119.msa
#FORMAT      : EMSA/MAS spectral data file
#VERSION     : TC202v2.0 PIXL
#TITLE       : N/A
#DATE        :       Date in the format DD-MMM-YYYY, for example 07-JUL-2010
#TIME        :             The time of day at which the spectrum was recorded, in 24-hour format
#OWNER       : PIXL Flight Model       (PIXL will use this to indicate which instrument took the data.)
#NPOINTS     : 4096     Number of data points in the spectrum (This can be zero for configuration only files)
#NCOLUMNS    : 2     Number of data columns in the spectrum (This can be zero for configuration only files)
#XUNITS      : eV
#YUNITS      : COUNTS
#DATATYPE    : YY
#XPERCHAN    : 7.862, 7.881   eV per channel (separate by commas if more than one detector)
#OFFSET      : 18.5, -22.4         eV of first channel  (separate by commas if more than one detector
#SIGNALTYPE  : XRF
#YP_TEMP     : 2.588
#LIVETIME    : 8.55441, 8.57333   seconds (separate by commas if more than one detector)
#REALTIME    : 10, 10.0   seconds (separate by commas if more than one detector)
#SPECTRUM    : start of spectrum data
0, 0
0, 0
0, 0
0, 0
0, 0
0, 0
0, 0
0, 0
0, 0
0, 0
0, 0
0, 0
0, 0
0, 0
0, 0
0, 0
0, 0
0, 0
0, 0
0, 0
0, 0
0, 0
0, 0
0, 0
0, 0
0, 0
0, 0
0, 0
0, 0
0, 0
0, 0
0, 0
0, 0
1, 0
1, 0
0, 0
0, 0
0, 0
0, 2
1, 0
0, 2
1, 1
2, 1
1, 2
0, 2
1, 2
1, 1
6, 5
8, 10
20, 11
27, 27
47, 36
48, 63
88, 79
90, 64
71, 57
66, 62
45, 35
26, 14
22, 12
11, 6
4, 4
4, 5
1, 2
5, 3
4, 3
10, 8
10, 11
23, 14
53, 65
120, 85
164, 184
262, 263
363, 372
429, 379
391, 406
399, 343
274, 267
206, 195
129, 112
77, 81
26, 34
29, 23
15, 9
5, 3
3, 4
4, 1
1, 2
0, 2
1, 1
2, 1
2, 0
1, 0
1, 2
3, 4
3, 10
5, 5
6, 14
6, 16
18, 10
10, 6
3, 6
11, 15
8, 8
4, 13
5, 13
7, 18
5, 24
8, 16
16, 29
9, 25
33, 24
21, 42
46, 43
44, 48
45, 47
54, 51
55, 40
34, 47
42, 38
49, 32
33, 36
36, 21
29, 19
22, 19
14, 20
24, 8
9, 13
12, 5
10, 6
3, 4
4, 1
6, 2
1, 0
3, 1
2, 1
3, 0
1, 3
3, 1
3, 0
3, 2
4, 0
2, 3
5, 4
3, 4
3, 4
10, 4
6, 2
1, 1
4, 3
7, 8
8, 8
16, 6
11, 9
26, 12
23, 11
24, 24
29, 32
26, 20
22, 21
24, 17
15, 12
19, 9
7, 4
5, 5
3, 13
2, 2
8, 10
8, 7
9, 7
5, 6
5, 6
5, 6
5, 6
4, 14
12, 8
7, 10
9, 11
17, 11
6, 8
5, 7
11, 16
5, 8
7, 7
3, 3
8, 2
8, 7
9, 6
8, 11
6, 9
15, 9
13, 17
13, 13
18, 15
19, 19
17, 31
16, 30
25, 39
16, 31
19, 27
17, 22
12, 24
15, 15
6, 15
8, 13
6, 12
9, 6
8, 5
5, 14
6, 4
7, 11
13, 6
9, 9
7, 8
14, 11
13, 9
14, 4
17, 9
13, 6
20, 6
11, 8
20, 4
16, 4
19, 2
22, 11
26, 15
36, 9
61, 10
57, 20
77, 15
73, 23
66, 31
63, 19
70, 20
38, 16
47, 11
32, 13
29, 9
19, 14
19, 12
16, 11
24, 12
20, 7
14, 17
15, 11
19, 25
22, 25
33, 49
40, 41
49, 64
58, 60
51, 69
68, 60
55, 56
53, 37
26, 30
26, 27
19, 25
33, 23
24, 17
31, 26
33, 30
44, 60
71, 90
156, 194
265, 380
477, 550
791, 878
1144, 1321
1604, 1747
1910, 2050
2216, 2342
2444, 2349
2319, 2181
2182, 1934
1722, 1508
1328, 1090
940, 726
634, 438
394, 272
216, 148
124, 86
65, 46
44, 19
28, 24
30, 17
27, 24
29, 29
28, 29
31, 24
36, 19
47, 38
52, 72
77, 72
100, 115
149, 180
224, 229
284, 290
274, 365
349, 367
394, 393
343, 342
285, 296
264, 225
204, 171
143, 115
102, 53
60, 46
41, 21
28, 18
17, 10
12, 11
10, 9
17, 8
6, 8
10, 12
21, 15
14, 14
13, 13
16, 14
16, 7
13, 9
7, 8
10, 5
10, 3
7, 9
7, 3
2, 5
2, 4
4, 3
3, 8
5, 4
2, 3
3, 3
2, 3
2, 8
4, 7
5, 1
3, 4
6, 5
2, 5
5, 11
4, 5
8, 2
2, 4
5, 3
5, 5
10, 12
11, 7
6, 3
4, 7
4, 8
7, 5
8, 7
12, 7
3, 8
6, 8
5, 6
8, 1
7, 4
6, 4
6, 6
6, 3
4, 10
2, 7
6, 3
6, 5
7, 2
1, 4
7, 2
5, 5
6, 4
4, 4
4, 3
4, 5
4, 3
5, 3
0, 7
7, 6
7, 6
2, 3
5, 1
0, 6
1, 5
4, 4
5, 5
5, 7
3, 3
4, 6
5, 6
2, 16
9, 8
2, 8
9, 8
7, 10
3, 16
1, 20
8, 11
4, 12
4, 7
5, 6
3, 2
8, 5
2, 5
5, 7
5, 7
7, 3
4, 4
3, 4
6, 3
6, 3
2, 2
5, 0
2, 3
4, 8
3, 3
2, 5
7, 4
2, 4
3, 3
2, 4
3, 7
2, 5
2, 1
1, 3
1, 5
2, 2
1, 4
5, 0
2, 3
7, 1
6, 0
4, 1
4, 1
9, 7
6, 2
2, 1
11, 3
3, 4
8, 1
4, 3
7, 2
4, 2
1, 2
7, 2
2, 1
6, 3
4, 0
3, 6
1, 2
4, 2
2, 4
2, 4
1, 2
1, 2
1, 2
2, 2
1, 3
5, 2
2, 4
4, 3
3, 0
4, 3
3, 5
0, 0
4, 3
5, 6
2, 2
3, 6
6, 4
2, 2
3, 2
2, 1
0, 1
1, 0
1, 3
1, 4
3, 3
1, 0
3, 2
2, 1
2, 4
1, 5
1, 3
3, 2
1, 1
1, 2
1, 2
0, 8
2, 4
3, 2
0, 0
5, 1
0, 2
3, 5
1, 3
1, 4
3, 3
3, 3
2, 3
1, 4
2, 3
2, 5
3, 2
0, 3
2, 1
3, 3
3, 1
2, 2
1, 1
2, 1
6, 2
4, 3
3, 4
2, 0
2, 3
3, 2
2, 1
4, 2
3, 1
7, 1
1, 0
2, 0
2, 2
0, 0
0, 1
0, 1
3, 1
1, 2
4, 3
3, 2
2, 2
1, 3
2, 0
1, 2
3, 2
3, 3
5, 6
4, 2
2, 1
3, 7
5, 5
6, 5
4, 6
4, 3
2, 1
2, 1
2, 4
4, 0
1, 4
2, 2
2, 0
1, 0
1, 1
0, 3
0, 1
0, 2
0, 2
3, 6
2, 5
1, 5
0, 1
0, 1
2, 3
1, 7
1, 0
0, 1
1, 0
4, 4
2, 3
4, 0
2, 3
2, 5
3, 0
1, 0
0, 5
1, 5
1, 1
1, 2
2, 0
1, 2
1, 1
3, 3
5, 1
0, 2
1, 0
2, 2
0, 1
2, 0
1, 1
1, 2
2, 4
1, 2
1, 0
0, 1
1, 0
0, 1
0, 3
0, 1
0, 3
2, 1
0, 2
1, 2
3, 3
1, 0
1, 2
0, 0
2, 1
3, 1
0, 2
1, 0
2, 4
0, 0
3, 0
2, 0
1, 1
0, 1
0, 1
0, 2
0, 0
0, 1
1, 0
1, 1
2, 0
1, 0
1, 2
1, 1
0, 1
0, 2
0, 0
0, 0
0, 1
1, 1
0, 0
1, 0
1, 1
0, 0
1, 1
0, 1
0, 0
2, 1
2, 1
0, 1
0, 0
2, 1
0, 1
0, 0
1, 1
1, 2
2, 3
3, 2
0, 0
0, 0
0, 1
0, 1
0, 0
1, 2
1, 1
1, 2
0, 0
1, 0
1, 0
0, 0
0, 1
0, 0
0, 2
0, 2
2, 0
0, 0
0, 1
0, 0
0, 0
0, 0
1, 1
1, 1
0, 0
0, 1
0, 1
1, 1
0, 0
0, 0
0, 1
2, 0
0, 0
1, 0
0, 2
0, 0
1, 0
1, 0
0, 0
0, 0
0, 2
2, 1
1, 0
0, 0
1, 0
0, 0
0, 0
1, 1
2, 0
0, 0
1, 1
0, 0
0, 0
0, 1
1, 1
0, 0
0, 0
0, 1
1, 0
2, 1
1, 0
0, 0
0, 0
0, 0
0, 0
0, 1
0, 0
2, 0
1, 0
0, 0
0, 0
0, 0
0, 0
0, 1
2, 0
1, 0
1, 0
0, 0
0, 1
0, 0
0, 0
1, 1
0, 0
2, 0
0, 0
1, 0
0, 0
0, 0
1, 0
1, 0
0, 2
2, 0
0, 0
0, 0
0, 0
0, 0
1, 0
1, 0
0, 1
0, 0
0, 0
0, 0
0, 0
0, 0
0, 0
0, 0
0, 0
0, 0
0, 0
0, 0
0, 0
0, 0
0, 0
0, 1
0, 0
0, 1
1, 0
0, 0
0, 1
0, 0
0, 0
0, 0
0, 0
0, 0
0, 1
0, 0
0, 0
0, 0
0, 1
1, 1
0, 0
0, 0
1, 0
0, 0
1, 1
0, 0
0, 0
1, 0
0, 1
0, 1
2, 1
0, 0
0, 0
0, 0
0, 1
1, 0
1, 0
0, 1
0, 0
1, 0
0, 1
0, 0
0, 0
0, 0
0, 0
0, 0
1, 2
0, 0
1, 0
0, 0
0, 0
1, 0
0, 0
1, 0
0, 0
0, 0
0, 0
0, 0
1, 0
0, 0
1, 0
0, 0
0, 0
0, 0
0, 1
0, 0
0, 1
0, 0
0, 0
0, 0
0, 0
0, 1
0, 0
0, 0
0, 0
0, 0
0, 0
1, 0
0, 0
0, 0
0, 0
0, 0
1, 0
0, 1
0, 0
1, 2
0, 0
0, 0
0, 0
0, 0
1, 0
0, 0
0, 0
0, 0
0, 0
0, 0
0, 0
0, 1
0, 0
0, 0
0, 0
0, 0
0, 0
0, 0
0, 0
0, 0
0, 0
0, 0
0, 0
0, 0
0, 0
0, 0
0, 1
0, 0
0, 0
0, 0
0, 0
0, 0
0, 0
0, 0
0, 0
0, 0
0, 0
0, 0
0, 0
0, 0
0, 0
0, 0
0, 0
0, 0
0, 0
0, 0
0, 0
0, 0
0, 0
0, 0
0, 0
0, 0
0, 0
0, 0
0, 0
0, 0
0, 0
0, 0
0, 0
0, 0
0, 0
0, 0
0, 0
1, 0
0, 0
0, 0
0, 0
0, 0
0, 0
0, 0
0, 0
0, 0
0, 0
1, 0
0, 0
0, 0
1, 0
1, 0
0, 0
0, 0
0, 0
0, 0
0, 0
0, 0
0, 0
0, 0
0, 0
0, 0
0, 0
0, 0
0, 0
0, 0
0, 0
0, 0
0, 0
0, 0
0, 0
0, 0
0, 0
0, 0
0, 0
1, 0
0, 0
0, 0
0, 0
0, 0
0, 0
0, 0
0, 0
0, 0
0, 0
0, 0
0, 0
0, 0
0, 0
0, 0
0, 0
0, 0
0, 0
0, 0
0, 0
0, 0
0, 0
0, 0
0, 0
0, 0
0, 0
0, 0
0, 0
0, 0
0, 0
0, 0
0, 0
0, 0
0, 0
0, 0
0, 0
0, 0
0, 0
0, 0
0, 0
0, 0
0, 0
0, 0
0, 0
0, 0
0, 0
0, 0
0, 0
0, 0
0, 0
0, 0
0, 0
0, 0
0, 0
0, 0
0, 0
0, 0
0, 0
0, 0
0, 0
0, 0
0, 0
0, 0
0, 0
0, 0
0, 0
0, 0
0, 0
0, 0
0, 0
0, 0
0, 0
0, 0
0, 0
0, 0
0, 0
0, 0
0, 0
0, 0
0, 0
0, 0
0, 0
0, 0
0, 0
0, 0
0, 0
0, 0
0, 0
0, 0
0, 0
0, 0
0, 0
0, 0
0, 0
0, 0
0, 0
0, 0
0, 0
0, 0
0, 0
0, 0
0, 0
0, 0
0, 0
0, 0
0, 0
0, 0
0, 0
0, 0
0, 0
0, 0
0, 0
0, 0
0, 0
0, 0
0, 0
0, 0
0, 0
0, 0
0, 0
0, 0
0, 0
0, 0
0, 0
0, 0
0, 0
0, 0
0, 0
0, 0
0, 0
0, 0
0, 0
0, 0
0, 0
0, 0
0, 0
0, 0
0, 0
0, 0
0, 0
0, 0
0, 0
0, 0
0, 0
0, 0
0, 0
0, 0
0, 0
0, 0
0, 0
0, 0
0, 0
0, 0
0, 0
0, 0
0, 0
0, 0
0, 0
0, 0
0, 0
0, 0
0, 0
0, 0
0, 0
0, 0
0, 0
0, 0
0, 0
0, 0
0, 0
0, 0
0, 0
0, 0
0, 0
0, 0
0, 0
0, 0
0, 0
0, 0
0, 0
0, 0
0, 0
0, 0
0, 0
0, 0
0, 0
0, 0
0, 0
0, 0
0, 0
0, 0
0, 0
0, 0
0, 0
0, 0
0, 0
0, 0
0, 0
0, 0
0, 0
0, 0
0, 0
0, 0
0, 0
0, 0
0, 0
0, 0
0, 0
0, 0
0, 0
0, 0
0, 0
0, 0
0, 0
0, 0
0, 0
0, 0
0, 0
0, 0
0, 0
0, 0
0, 0
0, 0
0, 0
0, 0
0, 0
0, 0
0, 0
0, 0
0, 0
0, 0
0, 0
0, 0
0, 0
0, 0
0, 0
0, 0
0, 0
0, 0
0, 0
0, 0
0, 0
0, 0
0, 0
0, 0
0, 0
0, 0
0, 0
0, 0
0, 0
0, 0
0, 0
0, 0
0, 0
0, 0
0, 0
0, 0
0, 0
0, 0
0, 0
0, 0
0, 0
0, 0
0, 0
0, 0
0, 0
0, 0
0, 0
0, 0
0, 0
0, 0
0, 0
0, 0
0, 0
0, 0
0, 0
0, 0
0, 0
0, 0
0, 0
0, 0
0, 0
0, 0
0, 0
0, 0
0, 0
0, 0
0, 0
0, 0
0, 0
0, 0
0, 0
0, 0
0, 0
0, 0
0, 0
0, 0
0, 0
0, 0
0, 0
0, 0
0, 0
0, 0
0, 0
0, 0
0, 0
0, 0
0, 0
0, 0
0, 0
0, 0
0, 0
0, 0
0, 0
0, 0
0, 0
0, 0
0, 0
0, 0
0, 0
0, 0
0, 0
0, 0
0, 0
0, 0
0, 0
0, 0
0, 0
0, 0
0, 0
0, 0
0, 0
0, 0
0, 0
0, 0
0, 0
0, 0
0, 0
0, 0
0, 0
0, 0
0, 0
0, 0
0, 0
0, 0
0, 0
0, 0
0, 0
0, 0
0, 0
0, 0
0, 0
0, 0
0, 0
0, 0
0, 0
0, 0
0, 0
0, 0
0, 0
0, 0
0, 0
0, 0
0, 0
0, 0
0, 0
0, 0
0, 0
0, 0
0, 0
0, 0
0, 0
0, 0
0, 0
0, 0
0, 0
0, 0
0, 0
0, 0
0, 0
0, 0
0, 0
0, 0
0, 0
0, 0
0, 0
0, 0
0, 0
0, 0
0, 0
0, 0
0, 0
0, 0
0, 0
0, 0
0, 0
0, 0
0, 0
0, 0
0, 0
0, 0
0, 0
0, 0
0, 0
0, 0
0, 0
0, 0
0, 0
0, 0
0, 0
0, 0
0, 0
0, 0
0, 0
0, 0
0, 0
0, 0
0, 0
#ENDOFDATA     end of spectrum data