File: host_upload/06-09-2024/ps_0852/dump3/ps__0852shot_2337.msa
#FORMAT      : EMSA/MAS spectral data file
#VERSION     : TC202v2.0 PIXL
#TITLE       : N/A
#DATE        :       Date in the format DD-MMM-YYYY, for example 07-JUL-2010
#TIME        :             The time of day at which the spectrum was recorded, in 24-hour format
#OWNER       : PIXL Flight Model       (PIXL will use this to indicate which instrument took the data.)
#NPOINTS     : 4096     Number of data points in the spectrum (This can be zero for configuration only files)
#NCOLUMNS    : 2     Number of data columns in the spectrum (This can be zero for configuration only files)
#XUNITS      : eV
#YUNITS      : COUNTS
#DATATYPE    : YY
#XPERCHAN    : 7.862, 7.881   eV per channel (separate by commas if more than one detector)
#OFFSET      : 18.5, -22.4         eV of first channel  (separate by commas if more than one detector
#SIGNALTYPE  : XRF
#YP_TEMP     : 2.364
#LIVETIME    : 8.5694, 8.54634   seconds (separate by commas if more than one detector)
#REALTIME    : 10, 10.0   seconds (separate by commas if more than one detector)
#SPECTRUM    : start of spectrum data
0, 0
0, 0
0, 0
0, 0
0, 0
0, 0
0, 0
0, 0
0, 0
0, 0
0, 0
0, 0
0, 0
0, 0
0, 0
0, 0
0, 0
0, 0
0, 0
0, 0
0, 0
0, 0
0, 0
0, 0
0, 0
0, 0
0, 0
0, 0
0, 0
0, 0
0, 1
0, 1
0, 0
0, 0
1, 1
0, 0
1, 0
2, 1
3, 1
1, 2
2, 2
1, 1
1, 3
1, 1
0, 4
2, 4
3, 6
4, 3
8, 6
7, 5
16, 24
40, 30
29, 49
63, 64
67, 63
81, 63
55, 63
35, 36
21, 20
12, 16
14, 9
8, 3
4, 5
6, 4
6, 3
3, 5
5, 4
6, 8
13, 20
43, 39
83, 63
128, 154
222, 199
238, 253
309, 379
337, 334
331, 292
200, 223
156, 148
84, 75
64, 59
26, 26
14, 11
6, 11
6, 3
4, 6
2, 2
3, 3
2, 3
8, 4
1, 1
14, 17
21, 28
50, 65
99, 111
149, 171
265, 273
287, 360
350, 394
337, 380
331, 362
242, 259
194, 169
108, 120
85, 88
65, 66
47, 37
34, 45
35, 42
43, 43
55, 60
65, 75
71, 60
85, 92
97, 95
78, 83
66, 62
51, 66
42, 38
46, 38
26, 36
17, 19
21, 27
24, 36
18, 22
23, 17
16, 12
13, 15
13, 9
8, 11
7, 8
9, 4
4, 6
4, 4
2, 1
3, 2
5, 4
6, 5
4, 15
10, 10
13, 10
10, 4
5, 10
9, 6
10, 2
2, 7
5, 5
2, 4
2, 3
3, 6
2, 3
7, 7
4, 8
11, 6
13, 10
19, 16
19, 10
11, 23
19, 17
12, 14
18, 16
13, 9
9, 8
4, 6
6, 3
4, 3
3, 3
2, 2
2, 1
4, 3
5, 3
9, 7
6, 5
2, 4
8, 5
5, 9
6, 8
4, 3
7, 10
1, 6
3, 4
5, 4
7, 10
1, 7
2, 4
6, 10
12, 14
6, 13
9, 17
10, 15
5, 22
11, 19
15, 18
18, 21
8, 20
11, 22
15, 30
15, 21
18, 23
9, 20
15, 11
14, 18
11, 7
9, 9
6, 16
6, 12
6, 24
8, 29
7, 41
6, 59
7, 66
6, 54
5, 56
8, 53
5, 41
8, 34
7, 26
5, 17
7, 10
5, 10
7, 4
7, 8
8, 5
9, 8
8, 7
10, 13
15, 7
14, 11
22, 10
24, 16
12, 10
28, 10
19, 15
15, 7
12, 8
13, 16
12, 15
8, 5
10, 7
9, 6
7, 9
5, 12
14, 16
12, 13
21, 21
10, 23
35, 33
24, 40
47, 53
67, 73
70, 68
54, 76
67, 72
48, 56
45, 46
37, 21
27, 20
12, 19
10, 21
15, 20
17, 20
33, 36
46, 60
69, 88
154, 198
260, 357
473, 622
761, 921
1090, 1367
1533, 1811
1936, 2200
2232, 2399
2343, 2508
2377, 2215
2142, 1943
1807, 1577
1360, 1145
981, 741
641, 429
442, 294
253, 119
122, 80
74, 47
33, 20
36, 23
22, 12
21, 17
23, 16
20, 9
11, 15
22, 31
33, 38
44, 77
54, 84
108, 103
148, 157
194, 220
245, 276
315, 329
302, 340
355, 357
367, 331
288, 243
212, 217
168, 145
122, 100
81, 71
50, 42
27, 28
21, 17
16, 9
8, 11
6, 13
3, 6
9, 26
12, 14
11, 28
7, 28
12, 22
18, 16
10, 17
17, 10
17, 10
17, 10
14, 4
12, 5
19, 2
13, 12
20, 4
24, 0
18, 4
22, 2
13, 4
14, 4
7, 9
7, 3
7, 3
11, 8
5, 2
6, 2
3, 6
3, 10
4, 3
3, 4
10, 9
2, 5
1, 7
5, 8
3, 6
8, 12
6, 17
3, 20
5, 18
5, 15
8, 15
6, 10
3, 12
8, 14
3, 11
2, 8
4, 11
3, 3
4, 3
3, 3
3, 7
12, 4
9, 3
4, 4
1, 3
11, 8
9, 1
9, 6
3, 2
10, 3
2, 2
5, 3
3, 6
3, 7
4, 3
2, 4
3, 5
3, 6
3, 3
2, 3
6, 9
2, 3
7, 8
1, 3
7, 1
1, 3
4, 5
3, 8
5, 6
1, 4
5, 2
1, 5
5, 3
4, 4
6, 2
3, 5
4, 4
2, 3
7, 6
2, 2
3, 2
2, 0
1, 1
12, 3
6, 4
5, 5
3, 3
3, 7
7, 6
4, 3
2, 7
2, 10
6, 6
4, 9
4, 8
5, 13
3, 13
2, 8
6, 8
4, 8
4, 3
5, 7
3, 8
2, 1
5, 6
6, 5
2, 6
1, 2
2, 3
0, 1
4, 6
2, 4
6, 2
3, 2
3, 5
6, 3
1, 1
3, 3
1, 2
0, 1
2, 6
1, 3
2, 5
1, 2
4, 2
4, 4
0, 4
3, 1
5, 2
2, 3
3, 4
5, 4
5, 5
4, 2
10, 1
6, 0
4, 2
10, 2
6, 2
5, 1
7, 1
11, 1
4, 0
5, 2
3, 3
5, 1
1, 0
2, 3
5, 4
3, 2
2, 0
2, 2
3, 2
2, 2
4, 3
4, 1
0, 4
1, 1
3, 2
4, 3
2, 4
1, 1
1, 2
2, 4
0, 3
8, 5
3, 3
2, 3
1, 2
2, 2
0, 1
0, 5
2, 6
3, 1
0, 0
3, 1
1, 3
2, 2
5, 1
1, 3
1, 0
1, 1
2, 1
3, 0
4, 5
1, 0
4, 3
1, 0
2, 0
1, 2
3, 2
3, 4
3, 2
0, 0
0, 2
2, 2
1, 0
1, 1
4, 1
2, 3
2, 1
2, 1
3, 1
0, 2
0, 2
2, 1
1, 3
2, 1
4, 3
1, 1
1, 2
3, 2
2, 4
1, 0
2, 4
3, 4
5, 4
1, 5
3, 6
3, 4
3, 3
4, 6
9, 1
1, 1
2, 1
5, 3
2, 2
3, 2
2, 1
1, 1
3, 0
3, 2
1, 0
1, 1
2, 1
1, 1
0, 0
3, 2
5, 0
1, 0
2, 1
2, 3
3, 1
2, 2
4, 3
3, 3
8, 2
2, 2
4, 0
0, 2
3, 3
0, 0
1, 3
1, 0
1, 0
1, 1
1, 0
1, 0
1, 0
1, 1
0, 4
2, 1
0, 2
0, 0
1, 0
2, 0
1, 1
1, 1
2, 2
3, 3
2, 1
0, 1
0, 2
0, 3
2, 1
0, 1
0, 0
0, 1
1, 0
0, 4
0, 1
2, 1
2, 1
1, 2
0, 1
0, 1
0, 0
3, 0
2, 0
0, 0
0, 1
1, 0
1, 0
1, 3
1, 0
0, 0
0, 0
1, 0
1, 2
1, 1
0, 0
1, 2
0, 3
0, 0
2, 0
0, 0
0, 0
3, 1
0, 0
1, 4
1, 0
1, 0
2, 1
0, 0
0, 1
1, 1
0, 1
2, 0
1, 1
0, 0
2, 1
0, 0
0, 0
0, 1
1, 0
1, 1
1, 1
1, 1
1, 0
0, 3
1, 0
3, 1
0, 0
1, 0
0, 0
2, 0
1, 4
2, 0
0, 3
2, 2
1, 2
1, 0
1, 1
2, 4
0, 1
0, 0
0, 0
0, 1
1, 1
1, 1
0, 1
0, 1
1, 1
0, 1
0, 0
1, 0
0, 1
1, 0
1, 1
1, 0
0, 1
0, 1
0, 1
0, 1
1, 0
0, 0
0, 1
0, 0
0, 0
0, 0
1, 1
2, 1
1, 2
0, 0
0, 1
0, 1
1, 1
0, 0
0, 0
2, 0
0, 0
1, 1
0, 0
0, 1
1, 0
0, 1
0, 0
0, 0
1, 0
1, 2
0, 0
0, 0
0, 0
0, 0
0, 1
0, 0
0, 0
0, 1
0, 0
1, 1
0, 0
0, 0
0, 0
0, 1
1, 0
1, 0
0, 0
0, 0
0, 0
1, 1
0, 1
0, 0
0, 0
1, 0
0, 0
0, 0
1, 0
0, 1
0, 0
0, 0
0, 0
1, 0
0, 0
0, 0
0, 0
0, 0
0, 0
0, 1
0, 2
1, 0
1, 0
0, 1
2, 0
1, 1
0, 0
1, 0
1, 0
0, 0
1, 0
0, 0
0, 1
0, 0
1, 0
1, 0
1, 1
0, 0
0, 1
1, 1
0, 2
0, 0
0, 1
0, 0
0, 0
0, 1
0, 0
0, 0
0, 0
0, 0
0, 0
0, 0
1, 0
0, 0
1, 0
0, 0
0, 1
1, 0
1, 0
0, 0
0, 0
0, 0
0, 1
1, 0
0, 0
0, 1
0, 0
0, 1
0, 0
0, 0
0, 0
0, 0
0, 0
0, 0
0, 0
0, 0
0, 1
0, 0
0, 1
0, 0
0, 0
0, 0
0, 1
0, 0
0, 0
0, 0
1, 0
0, 0
0, 0
0, 0
0, 1
0, 0
0, 0
0, 0
0, 0
0, 0
0, 0
0, 0
0, 1
0, 0
0, 0
0, 0
0, 0
0, 0
0, 0
0, 0
0, 0
0, 0
0, 1
0, 1
1, 0
0, 0
0, 1
0, 0
0, 0
0, 1
0, 0
0, 0
1, 0
0, 0
0, 0
0, 0
0, 0
1, 1
0, 0
0, 0
0, 0
0, 0
1, 0
0, 1
0, 0
0, 0
0, 0
0, 0
0, 0
0, 0
0, 0
0, 0
0, 0
0, 0
0, 0
0, 0
0, 0
0, 0
1, 0
1, 0
0, 0
0, 0
0, 0
0, 0
0, 0
0, 0
0, 0
0, 0
0, 0
0, 0
0, 1
0, 0
1, 0
0, 0
0, 0
0, 0
0, 0
0, 0
0, 0
0, 0
1, 0
0, 0
0, 0
0, 0
0, 0
0, 0
0, 0
0, 0
0, 0
0, 0
0, 0
0, 0
0, 0
0, 0
0, 0
0, 0
0, 0
0, 0
0, 0
0, 0
0, 0
0, 0
0, 0
0, 0
0, 0
0, 0
0, 0
0, 0
0, 0
1, 0
0, 0
0, 0
0, 0
0, 0
0, 0
0, 0
0, 0
0, 0
0, 0
0, 0
0, 0
0, 0
0, 0
1, 0
0, 0
0, 0
0, 0
0, 0
0, 0
0, 0
0, 0
0, 0
0, 0
0, 0
0, 0
0, 0
0, 0
0, 0
1, 0
0, 0
0, 0
0, 0
0, 0
0, 0
1, 0
0, 0
0, 0
0, 0
0, 0
0, 0
0, 0
0, 0
0, 0
0, 0
0, 0
0, 0
0, 0
0, 0
0, 0
0, 0
0, 0
0, 0
0, 0
0, 0
0, 0
0, 0
0, 0
0, 0
0, 0
0, 0
0, 0
0, 0
0, 1
0, 0
0, 0
0, 0
0, 0
0, 0
0, 0
0, 0
0, 0
0, 0
0, 0
0, 0
0, 0
0, 0
0, 0
0, 0
0, 0
0, 0
0, 0
0, 0
0, 0
0, 0
0, 0
0, 0
0, 0
0, 0
0, 0
0, 0
0, 0
0, 0
0, 0
0, 0
0, 0
0, 0
0, 0
0, 0
0, 0
0, 0
0, 0
0, 0
0, 0
0, 0
0, 0
0, 0
0, 0
0, 0
0, 0
0, 0
0, 0
0, 0
0, 0
0, 0
0, 0
0, 0
0, 0
0, 0
0, 0
0, 0
0, 0
0, 0
0, 0
0, 0
0, 0
0, 0
0, 0
0, 0
0, 0
0, 0
0, 0
0, 0
0, 0
0, 0
0, 0
0, 0
0, 0
0, 0
0, 0
0, 0
0, 0
0, 0
0, 0
0, 0
0, 0
0, 0
0, 0
0, 0
0, 0
0, 0
0, 0
0, 0
0, 0
0, 0
0, 0
0, 0
0, 0
0, 0
0, 0
0, 0
0, 0
0, 0
0, 0
0, 0
0, 0
0, 0
0, 0
0, 0
0, 0
0, 0
0, 0
0, 0
0, 0
0, 0
0, 0
0, 0
0, 0
0, 0
0, 0
0, 0
0, 0
0, 0
0, 0
0, 0
0, 0
0, 0
0, 0
0, 0
0, 0
0, 0
0, 0
0, 0
0, 0
0, 0
0, 0
0, 0
0, 0
0, 0
0, 0
0, 0
0, 0
0, 0
0, 0
0, 0
0, 0
0, 0
0, 0
0, 0
0, 0
0, 0
0, 0
0, 0
0, 0
0, 0
0, 0
0, 0
0, 0
0, 0
0, 0
0, 0
0, 0
0, 0
0, 0
0, 0
0, 0
0, 0
0, 0
0, 0
0, 0
0, 0
0, 0
0, 0
0, 0
0, 0
0, 0
0, 0
0, 0
0, 0
0, 0
0, 0
0, 0
0, 0
0, 0
0, 0
0, 0
0, 0
0, 0
0, 0
0, 0
0, 0
0, 0
0, 0
0, 0
0, 0
0, 0
0, 0
0, 0
0, 0
0, 0
0, 0
0, 0
0, 0
0, 0
0, 0
0, 0
0, 0
0, 0
0, 0
0, 0
0, 0
0, 0
0, 0
0, 0
0, 0
0, 0
0, 0
0, 0
0, 0
0, 0
0, 0
0, 0
0, 0
0, 0
0, 0
0, 0
0, 0
0, 0
0, 0
0, 0
0, 0
0, 0
0, 0
0, 0
0, 0
0, 0
0, 0
0, 0
0, 0
0, 0
0, 0
0, 0
0, 0
0, 0
0, 0
0, 0
0, 0
0, 0
0, 0
0, 0
0, 0
0, 0
0, 0
0, 0
0, 0
0, 0
0, 0
0, 0
0, 0
0, 0
0, 0
0, 0
0, 0
0, 0
0, 0
0, 0
0, 0
0, 0
0, 0
0, 0
0, 0
0, 0
0, 0
0, 0
0, 0
0, 0
0, 0
0, 0
0, 0
0, 0
0, 0
0, 0
0, 0
0, 0
0, 0
0, 0
0, 0
0, 0
0, 0
0, 0
0, 0
0, 0
0, 0
0, 0
0, 0
0, 0
0, 0
0, 0
0, 0
0, 0
0, 0
0, 0
0, 0
0, 0
0, 0
0, 0
0, 0
0, 0
0, 0
0, 0
0, 0
0, 0
0, 0
0, 0
0, 0
0, 0
0, 0
0, 0
0, 0
0, 0
0, 0
0, 0
0, 0
0, 0
0, 0
0, 0
0, 0
0, 0
0, 0
0, 0
0, 0
0, 0
0, 0
0, 0
0, 0
0, 0
0, 0
0, 0
0, 0
0, 0
0, 0
0, 0
0, 0
0, 0
0, 0
0, 0
0, 0
0, 0
0, 0
0, 0
0, 0
0, 0
0, 0
0, 0
0, 0
0, 0
0, 0
0, 0
0, 0
0, 0
0, 0
0, 0
0, 0
0, 0
0, 0
0, 0
0, 0
0, 0
0, 0
0, 0
0, 0
0, 0
0, 0
0, 0
0, 0
0, 0
0, 0
0, 0
0, 0
#ENDOFDATA     end of spectrum data