File: host_upload/06-09-2024/ps_0852/dump3/ps__0852shot_2458.msa
#FORMAT      : EMSA/MAS spectral data file
#VERSION     : TC202v2.0 PIXL
#TITLE       : N/A
#DATE        :       Date in the format DD-MMM-YYYY, for example 07-JUL-2010
#TIME        :             The time of day at which the spectrum was recorded, in 24-hour format
#OWNER       : PIXL Flight Model       (PIXL will use this to indicate which instrument took the data.)
#NPOINTS     : 4096     Number of data points in the spectrum (This can be zero for configuration only files)
#NCOLUMNS    : 2     Number of data columns in the spectrum (This can be zero for configuration only files)
#XUNITS      : eV
#YUNITS      : COUNTS
#DATATYPE    : YY
#XPERCHAN    : 7.862, 7.881   eV per channel (separate by commas if more than one detector)
#OFFSET      : 18.5, -22.4         eV of first channel  (separate by commas if more than one detector
#SIGNALTYPE  : XRF
#YP_TEMP     : 2.235
#LIVETIME    : 8.54539, 8.54694   seconds (separate by commas if more than one detector)
#REALTIME    : 10, 10.0   seconds (separate by commas if more than one detector)
#SPECTRUM    : start of spectrum data
0, 0
0, 0
0, 0
0, 0
0, 0
0, 0
0, 0
0, 0
0, 0
0, 0
0, 0
0, 0
0, 0
0, 0
0, 0
0, 0
0, 0
0, 0
0, 0
0, 0
0, 0
0, 0
0, 0
0, 0
0, 0
0, 0
0, 0
0, 0
0, 0
0, 0
0, 0
0, 0
0, 0
0, 1
1, 1
0, 1
0, 0
0, 1
0, 0
1, 1
1, 0
1, 2
1, 1
1, 1
0, 0
2, 1
0, 3
4, 2
9, 3
18, 15
19, 25
43, 45
54, 63
69, 84
73, 100
80, 77
61, 72
49, 44
27, 20
16, 13
8, 10
6, 6
5, 2
0, 1
3, 2
1, 5
4, 4
13, 5
22, 28
47, 43
109, 99
204, 187
234, 292
359, 416
411, 463
391, 463
336, 379
307, 289
206, 198
111, 127
74, 75
37, 44
18, 18
15, 8
6, 5
1, 0
7, 3
1, 0
2, 2
2, 1
2, 1
1, 3
3, 3
2, 4
10, 7
8, 13
13, 10
16, 25
29, 25
30, 24
21, 10
21, 17
20, 8
9, 10
7, 11
8, 0
11, 5
9, 5
16, 4
14, 8
22, 21
26, 25
18, 29
31, 25
32, 35
23, 30
27, 28
20, 31
21, 21
18, 15
11, 23
20, 15
13, 18
15, 12
9, 9
15, 14
13, 14
8, 11
6, 9
7, 8
8, 4
4, 6
5, 8
3, 4
1, 0
1, 1
4, 2
0, 1
4, 4
3, 1
2, 1
2, 1
2, 1
3, 2
0, 2
2, 4
1, 3
1, 1
3, 0
0, 1
3, 3
2, 0
2, 2
6, 6
9, 12
10, 14
11, 20
19, 18
9, 21
13, 8
10, 13
3, 9
5, 7
4, 2
2, 4
3, 3
1, 2
3, 4
3, 1
1, 2
1, 1
2, 4
3, 5
8, 6
0, 3
4, 2
1, 2
4, 3
3, 1
5, 3
5, 1
2, 2
2, 4
0, 3
1, 5
4, 3
2, 2
4, 8
13, 7
2, 3
4, 6
9, 6
6, 14
11, 13
4, 14
11, 13
10, 16
9, 15
8, 12
11, 11
14, 8
4, 8
9, 8
9, 5
3, 10
8, 4
2, 3
5, 5
5, 8
8, 8
11, 8
4, 6
8, 6
5, 8
1, 5
6, 2
3, 4
2, 8
10, 4
5, 6
3, 6
4, 3
12, 5
4, 10
14, 5
14, 12
20, 14
26, 7
39, 14
53, 10
75, 17
91, 15
103, 12
99, 15
98, 11
94, 6
83, 5
63, 7
49, 7
31, 8
21, 9
12, 7
12, 12
15, 8
12, 17
33, 12
29, 26
43, 38
66, 63
70, 59
87, 53
83, 62
107, 50
86, 46
70, 46
60, 34
35, 20
39, 14
32, 9
27, 17
22, 22
40, 36
35, 56
69, 93
132, 171
244, 422
465, 584
715, 903
1108, 1376
1511, 1771
1885, 2242
2190, 2569
2269, 2560
2266, 2291
1989, 1983
1671, 1588
1181, 1149
898, 770
547, 465
288, 244
197, 148
102, 74
52, 38
25, 17
23, 18
17, 12
10, 14
18, 16
17, 18
12, 14
20, 36
33, 37
46, 58
47, 72
69, 116
161, 177
173, 219
256, 307
300, 345
354, 367
332, 385
332, 321
289, 272
216, 246
179, 180
138, 88
80, 62
44, 32
26, 32
13, 15
12, 17
8, 5
6, 8
7, 5
9, 22
4, 15
11, 10
14, 17
16, 12
11, 9
10, 10
10, 11
14, 8
8, 6
2, 5
4, 5
1, 6
1, 6
4, 8
4, 5
4, 9
3, 10
3, 16
2, 8
5, 17
13, 5
10, 10
12, 6
14, 3
16, 5
14, 5
6, 6
9, 2
5, 2
5, 8
5, 6
9, 5
6, 9
7, 5
4, 4
7, 2
6, 5
4, 5
7, 1
5, 6
3, 2
5, 6
8, 4
5, 7
6, 1
5, 1
6, 1
5, 4
5, 4
4, 0
5, 4
5, 3
6, 2
5, 6
6, 7
8, 2
9, 4
12, 6
10, 1
24, 4
27, 5
19, 6
26, 7
27, 7
22, 3
30, 6
31, 8
18, 7
20, 20
15, 4
8, 7
5, 10
3, 9
1, 7
1, 7
1, 6
2, 4
5, 3
4, 5
4, 3
3, 2
4, 5
6, 3
7, 0
7, 6
3, 1
5, 2
4, 1
2, 5
4, 7
1, 4
5, 3
7, 3
2, 4
6, 6
1, 6
3, 10
1, 8
0, 4
2, 6
1, 4
1, 4
1, 3
1, 2
4, 3
1, 4
3, 5
2, 5
2, 2
3, 4
3, 3
2, 4
2, 4
3, 3
6, 3
3, 6
2, 3
2, 1
3, 2
4, 3
0, 2
5, 3
4, 5
1, 3
2, 4
1, 1
1, 3
2, 0
0, 0
1, 3
4, 0
3, 2
2, 3
1, 1
5, 2
4, 6
2, 1
0, 3
3, 0
2, 3
4, 2
1, 2
3, 3
5, 2
1, 4
1, 1
8, 1
3, 1
4, 2
11, 3
9, 2
8, 2
4, 2
7, 4
5, 0
6, 3
6, 2
3, 5
0, 2
2, 1
0, 6
2, 2
3, 5
4, 4
2, 2
1, 3
3, 1
0, 2
2, 2
1, 4
1, 3
2, 2
6, 2
3, 1
1, 2
2, 2
1, 3
2, 3
2, 2
3, 5
1, 3
1, 3
2, 3
3, 6
1, 2
2, 10
4, 0
2, 6
2, 5
3, 2
1, 0
1, 1
3, 3
2, 3
2, 3
2, 0
0, 0
2, 3
2, 1
1, 6
5, 1
1, 1
1, 3
1, 1
2, 1
1, 2
3, 2
4, 5
2, 2
1, 4
6, 2
0, 6
3, 4
2, 2
1, 3
0, 7
1, 2
1, 3
1, 3
3, 3
2, 3
1, 1
3, 2
2, 4
0, 3
1, 3
2, 3
4, 0
10, 1
2, 6
2, 3
3, 11
6, 5
2, 2
2, 3
0, 2
1, 2
2, 2
1, 2
0, 1
1, 1
0, 0
2, 1
2, 0
1, 3
2, 2
4, 3
1, 1
4, 2
2, 2
3, 2
1, 3
3, 2
2, 2
3, 0
0, 4
3, 2
4, 3
1, 2
1, 1
2, 0
2, 1
0, 2
4, 1
1, 0
1, 0
1, 2
1, 0
1, 4
1, 3
0, 0
2, 0
3, 1
1, 0
1, 0
1, 1
1, 0
1, 0
1, 0
1, 0
0, 1
0, 1
0, 1
0, 3
0, 1
0, 1
3, 2
1, 1
1, 0
0, 0
1, 1
2, 2
3, 1
0, 2
1, 0
0, 1
0, 2
0, 0
0, 0
0, 1
0, 4
1, 1
1, 0
2, 1
1, 0
1, 1
0, 0
1, 1
0, 0
0, 4
1, 0
0, 2
0, 0
0, 1
0, 2
3, 0
2, 2
3, 0
0, 1
1, 0
2, 1
1, 1
0, 0
1, 3
0, 0
2, 0
0, 1
0, 0
1, 2
1, 4
2, 1
0, 0
1, 1
1, 0
0, 1
0, 0
0, 0
2, 0
1, 0
1, 1
0, 0
0, 1
0, 1
0, 2
0, 0
0, 1
0, 1
0, 1
1, 0
0, 1
1, 3
0, 2
0, 1
2, 1
2, 0
0, 0
0, 1
1, 0
0, 0
1, 0
0, 0
0, 0
0, 0
0, 0
1, 0
0, 0
1, 1
2, 0
0, 0
0, 2
0, 0
0, 0
1, 0
0, 0
0, 1
0, 0
1, 2
1, 1
0, 0
0, 1
0, 0
0, 0
2, 0
0, 1
0, 0
1, 1
1, 1
2, 0
1, 1
1, 1
0, 0
1, 0
2, 2
0, 0
0, 1
0, 0
1, 0
0, 1
0, 0
0, 0
0, 0
0, 0
0, 0
0, 0
1, 0
0, 0
0, 0
0, 0
1, 0
0, 0
3, 0
2, 0
0, 1
0, 2
1, 0
0, 0
0, 0
0, 0
0, 0
1, 0
1, 0
0, 1
0, 0
0, 0
1, 0
0, 0
0, 0
1, 0
0, 0
1, 0
0, 1
0, 0
1, 1
0, 0
0, 0
0, 1
0, 0
0, 0
0, 0
0, 0
0, 0
0, 0
0, 0
0, 0
0, 1
1, 1
1, 1
0, 0
0, 0
0, 0
1, 0
1, 0
0, 0
1, 0
0, 0
0, 0
0, 2
0, 0
0, 0
0, 0
0, 0
1, 0
0, 0
0, 1
0, 0
0, 0
0, 0
0, 0
0, 0
0, 1
0, 0
1, 1
0, 0
1, 1
0, 0
0, 0
0, 0
1, 0
1, 2
0, 0
0, 1
0, 0
0, 0
0, 1
0, 0
2, 0
0, 0
0, 1
0, 0
0, 0
0, 0
0, 0
0, 0
0, 0
1, 0
0, 0
0, 0
0, 0
0, 1
1, 0
0, 1
0, 0
1, 0
0, 0
0, 1
0, 0
1, 0
0, 0
0, 0
0, 0
1, 0
0, 0
0, 0
0, 0
0, 0
0, 0
0, 0
0, 0
0, 0
0, 0
0, 0
0, 0
0, 0
0, 0
0, 0
0, 0
0, 0
0, 0
0, 0
0, 1
0, 1
0, 0
0, 0
0, 1
0, 0
0, 0
0, 0
0, 0
0, 0
0, 1
0, 0
0, 0
0, 0
0, 0
0, 0
0, 0
0, 0
0, 0
0, 1
0, 0
0, 0
0, 0
0, 0
0, 0
0, 0
0, 0
0, 0
0, 0
1, 0
0, 0
0, 0
0, 0
0, 0
0, 0
0, 0
0, 0
0, 0
0, 0
0, 0
0, 0
0, 0
0, 0
0, 1
0, 0
1, 0
0, 0
0, 0
0, 0
0, 0
0, 0
0, 0
0, 0
1, 0
0, 0
0, 0
0, 0
0, 0
0, 0
0, 0
0, 0
0, 0
0, 0
0, 0
0, 0
0, 0
0, 0
0, 0
0, 0
1, 0
0, 0
0, 0
0, 0
0, 0
0, 1
0, 0
0, 0
0, 0
0, 0
0, 0
0, 0
0, 0
0, 0
0, 0
0, 0
0, 0
0, 0
0, 0
0, 0
0, 0
0, 0
0, 0
0, 0
0, 0
0, 0
0, 0
0, 0
0, 0
0, 0
0, 0
0, 0
0, 0
0, 0
0, 0
0, 0
0, 0
0, 0
0, 0
1, 0
0, 0
0, 0
0, 0
0, 0
0, 0
0, 1
0, 0
0, 0
0, 0
0, 0
0, 0
0, 0
0, 0
0, 0
0, 0
0, 0
0, 0
0, 0
0, 0
0, 0
0, 0
0, 0
1, 0
0, 0
0, 0
0, 0
0, 0
0, 0
0, 0
0, 0
0, 0
0, 0
0, 0
0, 0
0, 0
0, 0
0, 0
0, 0
0, 0
0, 0
0, 0
0, 0
0, 0
0, 0
0, 0
0, 0
0, 0
0, 0
0, 0
0, 0
0, 0
0, 0
0, 0
0, 0
0, 0
0, 0
0, 0
0, 0
0, 0
0, 0
0, 0
0, 1
0, 0
0, 0
0, 0
0, 0
0, 0
0, 0
0, 0
0, 0
0, 0
0, 0
0, 0
0, 0
0, 0
0, 0
0, 0
0, 0
0, 0
0, 0
0, 0
0, 0
0, 0
0, 0
0, 0
0, 0
0, 0
0, 0
0, 0
0, 0
0, 0
0, 0
0, 0
0, 0
0, 0
0, 0
0, 0
0, 0
0, 0
0, 0
0, 0
0, 0
0, 0
0, 0
0, 0
0, 0
0, 0
0, 0
0, 0
0, 0
0, 0
0, 0
0, 0
0, 0
0, 0
0, 0
0, 0
0, 0
0, 0
0, 0
0, 0
0, 0
0, 0
0, 0
0, 0
0, 0
0, 0
0, 0
0, 0
0, 0
0, 0
0, 0
0, 0
0, 0
0, 0
0, 0
0, 0
0, 0
0, 0
0, 0
0, 0
0, 0
0, 0
0, 0
0, 0
0, 0
0, 0
0, 0
0, 0
0, 0
0, 0
0, 0
0, 0
0, 0
0, 0
0, 0
0, 0
0, 0
0, 0
0, 0
0, 0
0, 0
0, 0
0, 0
0, 0
0, 0
0, 0
0, 0
0, 0
0, 0
0, 0
0, 0
0, 0
0, 0
0, 0
0, 0
0, 0
0, 0
0, 0
0, 0
0, 0
0, 0
0, 0
0, 0
0, 0
0, 0
0, 0
0, 0
0, 0
0, 0
0, 0
0, 0
0, 0
0, 0
0, 0
0, 0
0, 0
0, 0
0, 0
0, 0
0, 0
0, 0
0, 0
0, 0
0, 0
0, 0
0, 0
0, 0
0, 0
0, 0
0, 0
0, 0
0, 0
0, 0
0, 0
0, 0
0, 0
0, 0
0, 0
0, 0
0, 0
0, 0
0, 0
0, 0
0, 0
0, 0
0, 0
0, 0
0, 0
0, 0
0, 0
0, 0
0, 0
0, 0
0, 0
0, 0
0, 0
0, 0
0, 0
0, 0
0, 0
0, 0
0, 0
0, 0
0, 0
0, 0
0, 0
0, 0
0, 0
0, 0
0, 0
0, 0
0, 0
0, 0
0, 0
0, 0
0, 0
0, 0
0, 0
0, 0
0, 0
0, 0
0, 0
0, 0
0, 0
0, 0
0, 0
0, 0
0, 0
0, 0
0, 0
0, 0
0, 0
0, 0
0, 0
0, 0
0, 0
0, 0
0, 0
0, 0
0, 0
0, 0
0, 0
0, 0
0, 0
0, 0
0, 0
0, 0
0, 0
0, 0
0, 0
0, 0
0, 0
0, 0
0, 0
0, 0
0, 0
0, 0
0, 0
0, 0
0, 0
0, 0
0, 0
0, 0
0, 0
0, 0
0, 0
0, 0
0, 0
0, 0
0, 0
0, 0
0, 0
0, 0
0, 0
0, 0
0, 0
0, 0
0, 0
0, 0
0, 0
0, 0
0, 0
0, 0
0, 0
0, 0
0, 0
0, 0
0, 0
0, 0
0, 0
0, 0
0, 0
0, 0
0, 0
0, 0
0, 0
0, 0
0, 0
0, 0
0, 0
0, 0
0, 0
0, 0
0, 0
0, 0
0, 0
0, 0
0, 0
0, 0
0, 0
0, 0
0, 0
0, 0
0, 0
0, 0
0, 0
0, 0
0, 0
0, 0
0, 0
0, 0
0, 0
0, 0
0, 0
0, 0
0, 0
0, 0
0, 0
0, 0
0, 0
0, 0
0, 0
0, 0
0, 0
0, 0
0, 0
0, 0
0, 0
0, 0
0, 0
0, 0
0, 0
0, 0
0, 0
0, 0
0, 0
0, 0
0, 0
0, 0
0, 0
0, 0
0, 0
0, 0
0, 0
0, 0
0, 0
0, 0
0, 0
0, 0
0, 0
0, 0
0, 0
0, 0
0, 0
0, 0
0, 0
0, 0
0, 0
0, 0
0, 0
0, 0
0, 0
#ENDOFDATA     end of spectrum data