File: host_upload/06-09-2024/ps_0852/dump3/ps__0852shot_2523.msa
#FORMAT      : EMSA/MAS spectral data file
#VERSION     : TC202v2.0 PIXL
#TITLE       : N/A
#DATE        :       Date in the format DD-MMM-YYYY, for example 07-JUL-2010
#TIME        :             The time of day at which the spectrum was recorded, in 24-hour format
#OWNER       : PIXL Flight Model       (PIXL will use this to indicate which instrument took the data.)
#NPOINTS     : 4096     Number of data points in the spectrum (This can be zero for configuration only files)
#NCOLUMNS    : 2     Number of data columns in the spectrum (This can be zero for configuration only files)
#XUNITS      : eV
#YUNITS      : COUNTS
#DATATYPE    : YY
#XPERCHAN    : 7.862, 7.881   eV per channel (separate by commas if more than one detector)
#OFFSET      : 18.5, -22.4         eV of first channel  (separate by commas if more than one detector
#SIGNALTYPE  : XRF
#YP_TEMP     : 2.364
#LIVETIME    : 8.5415, 8.54807   seconds (separate by commas if more than one detector)
#REALTIME    : 10, 10.0   seconds (separate by commas if more than one detector)
#SPECTRUM    : start of spectrum data
0, 0
0, 0
0, 0
0, 0
0, 0
0, 0
0, 0
0, 0
0, 0
0, 0
0, 0
0, 0
0, 0
0, 0
0, 0
0, 0
0, 0
0, 0
0, 0
0, 0
0, 0
0, 0
0, 0
0, 0
0, 0
0, 0
0, 0
0, 0
0, 0
0, 0
0, 0
0, 0
0, 0
0, 0
0, 0
1, 1
0, 1
0, 1
0, 0
0, 1
0, 2
0, 2
0, 1
0, 0
1, 0
4, 0
2, 3
3, 2
13, 5
14, 14
24, 16
37, 41
71, 59
93, 70
81, 72
84, 69
59, 65
49, 36
33, 31
9, 15
5, 8
3, 2
3, 5
3, 1
2, 6
4, 4
6, 5
11, 5
24, 11
45, 44
96, 90
167, 172
287, 273
401, 361
436, 413
477, 400
386, 343
286, 245
205, 156
141, 114
86, 73
37, 43
26, 16
12, 5
7, 0
1, 1
0, 3
0, 1
0, 0
0, 1
1, 1
2, 1
2, 1
2, 3
5, 6
8, 5
9, 12
15, 12
18, 14
13, 11
15, 9
18, 6
13, 6
9, 5
7, 3
8, 3
5, 5
11, 5
3, 3
9, 9
11, 7
18, 17
14, 16
26, 21
27, 23
25, 23
35, 22
27, 23
24, 24
19, 18
20, 12
18, 10
15, 11
11, 13
12, 13
16, 13
6, 9
7, 7
11, 3
6, 7
4, 5
5, 5
4, 4
3, 2
2, 4
3, 4
2, 0
1, 2
1, 3
0, 1
0, 0
0, 2
2, 0
1, 3
3, 2
1, 3
0, 0
2, 0
1, 2
3, 3
2, 3
5, 5
0, 6
9, 7
13, 8
15, 14
17, 16
22, 20
18, 15
20, 11
15, 14
9, 9
2, 5
8, 8
2, 0
2, 2
5, 6
1, 0
4, 3
2, 7
5, 5
1, 3
0, 3
5, 5
5, 5
7, 5
2, 6
2, 4
4, 1
4, 1
5, 2
2, 1
4, 1
4, 1
1, 0
0, 4
4, 5
4, 6
3, 3
3, 8
10, 6
10, 7
10, 5
10, 9
11, 12
17, 5
15, 8
21, 14
14, 9
11, 4
6, 9
17, 3
9, 7
5, 7
8, 10
7, 3
3, 1
7, 6
4, 7
6, 5
5, 2
2, 3
6, 4
3, 1
4, 2
7, 1
6, 6
4, 6
4, 3
8, 5
1, 3
3, 1
7, 6
8, 9
11, 6
12, 5
20, 10
28, 6
54, 7
71, 11
73, 10
95, 10
126, 11
139, 11
113, 11
118, 7
95, 6
72, 3
38, 4
37, 6
18, 4
12, 4
19, 5
14, 14
23, 13
28, 20
42, 26
57, 27
64, 43
99, 43
102, 53
125, 60
106, 54
85, 44
81, 32
90, 37
47, 17
55, 20
31, 12
27, 13
25, 18
30, 25
33, 39
79, 94
152, 150
284, 299
493, 504
783, 834
1234, 1246
1659, 1573
2136, 1924
2438, 2170
2578, 2239
2528, 2028
2244, 1759
1787, 1395
1387, 989
967, 611
586, 421
332, 215
196, 124
99, 64
46, 39
42, 25
21, 11
16, 10
22, 9
23, 11
6, 10
20, 13
26, 17
31, 34
38, 39
70, 76
99, 116
156, 153
209, 180
241, 225
324, 321
350, 336
411, 311
346, 305
297, 259
258, 214
178, 126
130, 100
81, 71
61, 29
34, 18
22, 15
13, 9
8, 7
3, 7
10, 10
7, 7
9, 8
15, 7
10, 12
15, 13
11, 11
11, 13
16, 5
5, 5
8, 5
5, 6
9, 7
3, 1
7, 4
7, 7
6, 4
3, 5
4, 7
4, 8
7, 13
6, 8
10, 6
6, 6
11, 9
13, 6
13, 7
8, 5
9, 4
12, 4
10, 4
8, 1
1, 3
10, 2
3, 6
9, 4
8, 8
5, 1
3, 3
1, 5
5, 6
12, 3
8, 0
6, 4
7, 2
6, 2
10, 4
8, 2
4, 2
8, 3
5, 7
8, 2
7, 3
8, 2
5, 1
2, 1
6, 4
5, 7
7, 1
12, 5
12, 5
19, 7
22, 2
26, 8
28, 4
17, 3
22, 9
21, 10
25, 9
19, 12
19, 10
16, 7
10, 12
3, 11
5, 6
5, 5
3, 8
3, 4
5, 0
2, 4
6, 3
5, 6
4, 3
5, 4
2, 4
5, 3
3, 1
5, 3
3, 4
3, 2
4, 2
3, 1
3, 3
2, 4
3, 1
1, 4
3, 2
4, 3
2, 6
2, 4
6, 4
2, 2
3, 2
2, 3
1, 0
4, 3
1, 4
4, 0
2, 1
2, 2
4, 3
4, 4
3, 1
3, 0
5, 1
2, 1
2, 2
3, 1
1, 1
4, 2
2, 3
4, 3
0, 4
2, 6
4, 5
2, 3
4, 2
1, 0
3, 3
1, 4
4, 2
4, 1
4, 3
1, 0
3, 3
2, 2
1, 3
2, 2
5, 4
4, 0
2, 0
5, 0
3, 2
0, 1
2, 2
2, 0
6, 3
7, 0
7, 1
8, 2
6, 5
9, 4
13, 0
7, 2
8, 1
7, 3
12, 2
2, 2
3, 3
5, 0
3, 1
0, 4
2, 6
5, 0
1, 0
1, 0
3, 3
1, 1
5, 3
3, 1
0, 2
0, 2
2, 2
4, 1
2, 2
1, 4
4, 1
1, 2
3, 0
2, 1
5, 3
0, 2
1, 2
1, 3
1, 7
0, 5
4, 2
3, 3
2, 5
6, 3
3, 1
5, 2
4, 1
3, 3
0, 0
1, 5
1, 0
0, 1
2, 0
0, 1
4, 1
2, 1
1, 3
0, 4
1, 2
2, 3
3, 3
2, 4
0, 3
2, 4
2, 1
1, 2
0, 2
4, 0
1, 3
3, 2
0, 4
0, 2
3, 3
2, 2
0, 2
5, 2
2, 0
2, 2
2, 6
4, 3
7, 8
8, 2
4, 4
3, 5
4, 3
4, 6
5, 3
1, 4
4, 2
3, 5
2, 0
2, 1
0, 1
1, 2
1, 1
1, 2
1, 4
1, 1
0, 0
1, 1
3, 0
2, 3
2, 1
4, 0
0, 2
2, 2
2, 1
3, 4
1, 1
2, 1
3, 3
3, 3
2, 1
0, 1
2, 3
1, 4
1, 1
0, 1
1, 0
2, 0
2, 2
1, 2
1, 1
1, 1
0, 2
0, 0
1, 0
0, 1
0, 1
1, 0
2, 1
1, 1
0, 0
1, 0
1, 0
0, 0
1, 0
0, 2
1, 1
2, 1
1, 0
0, 2
2, 0
1, 1
1, 1
1, 1
0, 0
1, 0
1, 0
1, 0
3, 1
2, 2
0, 0
1, 0
2, 1
0, 0
1, 0
1, 1
0, 1
0, 0
0, 0
0, 1
0, 2
0, 1
0, 0
0, 1
2, 1
0, 0
0, 1
0, 0
1, 0
1, 0
1, 0
1, 1
4, 0
0, 0
0, 0
2, 2
2, 0
0, 1
0, 0
2, 0
1, 0
0, 1
0, 1
0, 0
1, 1
0, 0
3, 0
1, 1
0, 0
0, 0
1, 0
0, 2
1, 0
2, 0
1, 0
2, 0
0, 0
0, 0
1, 0
1, 1
0, 0
0, 1
1, 0
1, 0
2, 0
0, 1
0, 0
0, 1
2, 0
0, 0
1, 0
0, 3
0, 0
0, 0
0, 0
0, 0
0, 0
0, 0
0, 0
1, 0
1, 0
0, 0
0, 1
0, 0
0, 0
0, 0
1, 0
0, 0
1, 0
0, 1
2, 1
0, 1
1, 0
1, 1
0, 0
1, 1
2, 1
2, 0
0, 1
0, 1
1, 0
0, 1
0, 0
0, 0
0, 0
0, 1
0, 0
1, 0
0, 0
2, 1
1, 0
1, 2
1, 1
0, 3
1, 0
0, 0
0, 0
1, 1
0, 0
1, 1
0, 1
0, 0
0, 0
0, 1
1, 0
0, 0
1, 2
0, 0
1, 0
1, 0
0, 0
0, 0
0, 0
1, 0
0, 2
0, 0
0, 1
3, 0
0, 1
0, 0
0, 0
0, 1
0, 0
0, 0
2, 0
0, 0
0, 0
0, 1
0, 1
0, 0
0, 0
0, 1
1, 0
1, 0
0, 1
0, 1
1, 1
0, 0
0, 1
1, 0
0, 0
0, 1
0, 0
0, 0
0, 2
0, 0
1, 0
0, 1
0, 0
0, 0
0, 0
0, 0
0, 0
0, 0
0, 0
0, 1
0, 0
0, 1
0, 1
0, 0
0, 0
1, 0
0, 0
0, 0
1, 0
0, 0
0, 1
0, 0
0, 0
0, 0
1, 0
1, 1
0, 0
0, 0
0, 0
0, 0
0, 0
0, 0
0, 1
0, 0
1, 0
0, 0
0, 1
0, 0
0, 0
0, 1
0, 0
0, 0
0, 0
0, 0
0, 1
1, 1
0, 0
1, 0
0, 0
0, 0
1, 0
0, 0
0, 0
0, 0
0, 0
0, 1
0, 0
0, 0
0, 0
0, 0
0, 0
0, 0
0, 0
1, 1
0, 0
1, 0
0, 0
0, 0
0, 0
0, 1
0, 0
0, 1
0, 0
0, 1
0, 0
0, 0
0, 0
0, 0
0, 0
0, 0
1, 0
0, 1
0, 0
0, 0
0, 0
0, 0
0, 0
0, 0
0, 0
0, 0
0, 0
1, 0
0, 0
0, 0
0, 0
0, 0
0, 0
0, 0
0, 0
0, 0
0, 0
0, 0
0, 0
1, 0
0, 0
0, 0
0, 0
0, 0
0, 0
0, 0
1, 0
0, 0
0, 0
0, 0
0, 1
0, 0
0, 0
0, 1
0, 0
0, 0
0, 0
0, 0
0, 0
0, 0
0, 0
0, 0
0, 0
0, 0
0, 0
0, 0
0, 0
1, 0
1, 0
0, 0
0, 0
0, 0
0, 0
0, 0
0, 0
0, 0
1, 0
0, 0
0, 0
0, 0
0, 0
0, 0
0, 0
0, 0
0, 0
0, 0
0, 0
0, 0
0, 0
0, 0
0, 0
1, 0
0, 0
0, 1
0, 0
0, 0
0, 1
0, 1
1, 0
0, 0
1, 0
0, 0
0, 0
0, 0
0, 0
0, 0
0, 0
0, 1
0, 0
0, 0
0, 0
0, 0
0, 0
0, 0
0, 0
0, 0
0, 0
0, 1
0, 0
0, 0
0, 0
0, 0
0, 0
0, 0
0, 1
0, 0
0, 0
0, 0
0, 0
0, 0
0, 0
0, 0
0, 0
0, 0
0, 0
0, 0
0, 0
0, 0
0, 0
0, 0
0, 0
0, 0
0, 0
0, 0
0, 0
0, 0
0, 0
0, 0
0, 0
0, 0
0, 0
0, 0
0, 0
0, 0
0, 0
0, 0
0, 0
0, 0
0, 1
0, 0
0, 0
0, 0
0, 0
0, 0
0, 0
0, 0
0, 0
0, 0
0, 0
0, 0
0, 0
0, 0
0, 0
0, 0
0, 0
0, 0
0, 0
0, 0
0, 0
0, 0
0, 0
0, 0
0, 0
0, 0
0, 0
0, 0
0, 0
0, 0
0, 0
0, 0
0, 0
0, 0
0, 0
0, 0
0, 0
0, 0
0, 0
0, 0
0, 0
0, 0
0, 0
0, 0
0, 0
0, 0
0, 0
0, 0
0, 0
0, 0
0, 0
0, 0
0, 0
0, 0
0, 0
0, 0
0, 0
0, 0
0, 0
0, 0
0, 0
0, 0
0, 0
0, 0
0, 0
0, 0
0, 0
0, 0
0, 0
0, 0
0, 0
0, 0
0, 0
0, 0
0, 0
0, 0
0, 0
0, 0
0, 0
0, 0
0, 0
0, 0
0, 0
0, 0
0, 0
0, 0
0, 0
0, 0
0, 0
0, 0
0, 0
0, 0
0, 0
0, 0
0, 0
0, 0
0, 0
0, 0
0, 0
0, 0
0, 0
0, 0
0, 0
0, 0
0, 0
0, 0
0, 0
0, 0
0, 0
0, 0
0, 0
0, 0
0, 0
0, 0
0, 0
0, 0
0, 0
0, 0
0, 0
0, 0
0, 0
0, 0
0, 0
0, 0
0, 0
0, 0
0, 0
0, 0
0, 0
0, 0
0, 0
0, 0
0, 0
0, 0
0, 0
0, 0
0, 0
0, 0
0, 0
0, 0
0, 0
0, 0
0, 0
0, 0
0, 0
0, 0
0, 0
0, 0
0, 0
0, 0
0, 0
0, 0
0, 0
0, 0
0, 0
0, 0
0, 0
0, 0
0, 0
0, 0
0, 0
0, 0
0, 0
0, 0
0, 0
0, 0
0, 0
0, 0
0, 0
0, 0
0, 0
0, 0
0, 0
0, 0
0, 0
0, 0
0, 0
0, 0
0, 0
0, 0
0, 0
0, 0
0, 0
0, 0
0, 0
0, 0
0, 0
0, 0
0, 0
0, 0
0, 0
0, 0
0, 0
0, 0
0, 0
0, 0
0, 0
0, 0
0, 0
0, 0
0, 0
0, 0
0, 0
0, 0
0, 0
0, 0
0, 0
0, 0
0, 0
0, 0
0, 0
0, 0
0, 0
0, 0
0, 0
0, 0
0, 0
0, 0
0, 0
0, 0
0, 0
0, 0
0, 0
0, 0
0, 0
0, 0
0, 0
0, 0
0, 0
0, 0
0, 0
0, 0
0, 0
0, 0
0, 0
0, 0
0, 0
0, 0
0, 0
0, 0
0, 0
0, 0
0, 0
0, 0
0, 0
0, 0
0, 0
0, 0
0, 0
0, 0
0, 0
0, 0
0, 0
0, 0
0, 0
0, 0
0, 0
0, 0
0, 0
0, 0
0, 0
0, 0
0, 0
0, 0
0, 0
0, 0
0, 0
0, 0
0, 0
0, 0
0, 0
0, 0
0, 0
0, 0
0, 0
0, 0
0, 0
0, 0
0, 0
0, 0
0, 0
0, 0
0, 0
0, 0
0, 0
0, 0
0, 0
0, 0
0, 0
0, 0
0, 0
0, 0
0, 0
0, 0
0, 0
0, 0
0, 0
0, 0
0, 0
0, 0
0, 0
0, 0
0, 0
0, 0
0, 0
0, 0
0, 0
0, 0
0, 0
0, 0
0, 0
0, 0
0, 0
0, 0
0, 0
0, 0
0, 0
0, 0
0, 0
0, 0
0, 0
0, 0
0, 0
0, 0
0, 0
0, 0
0, 0
0, 0
0, 0
0, 0
0, 0
0, 0
0, 0
0, 0
0, 0
0, 0
0, 0
0, 0
0, 0
0, 0
0, 0
0, 0
0, 0
0, 0
0, 0
0, 0
0, 0
0, 0
0, 0
0, 0
0, 0
0, 0
0, 0
0, 0
0, 0
0, 0
0, 0
0, 0
0, 0
0, 0
0, 0
0, 0
0, 0
0, 0
0, 0
0, 0
0, 0
0, 0
0, 0
0, 0
0, 0
0, 0
0, 0
0, 0
0, 0
0, 0
0, 0
#ENDOFDATA     end of spectrum data