File: host_upload/06-09-2024/ps_0852/dump3/ps__0852shot_2547.msa
#FORMAT      : EMSA/MAS spectral data file
#VERSION     : TC202v2.0 PIXL
#TITLE       : N/A
#DATE        :       Date in the format DD-MMM-YYYY, for example 07-JUL-2010
#TIME        :             The time of day at which the spectrum was recorded, in 24-hour format
#OWNER       : PIXL Flight Model       (PIXL will use this to indicate which instrument took the data.)
#NPOINTS     : 4096     Number of data points in the spectrum (This can be zero for configuration only files)
#NCOLUMNS    : 2     Number of data columns in the spectrum (This can be zero for configuration only files)
#XUNITS      : eV
#YUNITS      : COUNTS
#DATATYPE    : YY
#XPERCHAN    : 7.862, 7.881   eV per channel (separate by commas if more than one detector)
#OFFSET      : 18.5, -22.4         eV of first channel  (separate by commas if more than one detector
#SIGNALTYPE  : XRF
#YP_TEMP     : 2.428
#LIVETIME    : 8.6037, 8.59768   seconds (separate by commas if more than one detector)
#REALTIME    : 10, 10.0   seconds (separate by commas if more than one detector)
#SPECTRUM    : start of spectrum data
0, 0
0, 0
0, 0
0, 0
0, 0
0, 0
0, 0
0, 0
0, 0
0, 0
0, 0
0, 0
0, 0
0, 0
0, 0
0, 0
0, 0
0, 0
0, 0
0, 0
0, 0
0, 0
0, 0
0, 0
0, 0
0, 0
0, 0
0, 0
0, 0
0, 1
0, 0
0, 0
0, 0
0, 0
0, 0
0, 0
3, 0
1, 0
0, 2
1, 2
0, 2
0, 2
1, 3
1, 2
0, 1
2, 3
6, 1
3, 2
9, 6
10, 9
28, 22
30, 43
57, 44
63, 63
90, 56
69, 45
47, 42
53, 27
22, 23
16, 13
15, 9
7, 5
1, 1
4, 8
5, 3
5, 5
6, 6
13, 14
16, 26
53, 49
91, 107
199, 188
331, 305
428, 378
497, 484
473, 482
458, 405
339, 314
232, 228
148, 118
76, 89
43, 35
25, 20
22, 14
9, 8
6, 1
4, 3
2, 3
2, 2
2, 3
0, 1
0, 1
2, 5
2, 6
5, 7
9, 5
13, 6
16, 13
15, 12
8, 17
14, 26
9, 16
6, 23
4, 18
6, 20
6, 27
3, 22
4, 18
10, 25
22, 35
22, 21
36, 29
45, 40
44, 47
51, 54
49, 57
52, 45
34, 47
23, 37
33, 20
26, 42
19, 18
15, 15
18, 20
18, 15
13, 16
9, 13
12, 14
10, 5
8, 10
8, 5
7, 2
3, 6
5, 4
7, 1
5, 0
2, 5
1, 3
2, 2
2, 1
0, 1
2, 1
2, 4
6, 4
1, 1
2, 1
2, 3
4, 1
5, 4
12, 8
18, 13
35, 32
57, 74
117, 109
149, 186
224, 196
289, 296
332, 258
306, 253
261, 236
209, 174
146, 116
96, 83
57, 53
32, 28
24, 21
19, 24
25, 25
33, 28
40, 44
59, 43
43, 49
39, 38
40, 29
48, 32
27, 23
31, 15
23, 7
19, 9
13, 4
13, 4
3, 3
6, 3
5, 5
4, 2
5, 6
7, 4
6, 7
5, 9
10, 10
15, 8
15, 21
14, 16
17, 18
13, 9
17, 20
18, 18
20, 21
23, 23
19, 21
23, 22
22, 31
14, 30
18, 35
7, 33
12, 28
11, 38
6, 33
12, 21
8, 21
7, 15
9, 21
13, 10
9, 12
16, 8
14, 11
23, 10
25, 1
18, 5
15, 10
16, 1
11, 7
11, 8
7, 14
14, 12
9, 17
21, 19
28, 25
18, 19
42, 24
37, 36
40, 32
26, 17
25, 26
35, 16
28, 10
34, 14
28, 12
9, 6
23, 8
13, 13
14, 12
15, 15
12, 18
16, 18
23, 26
49, 32
38, 64
35, 53
59, 76
70, 77
84, 71
63, 70
97, 49
77, 25
64, 25
52, 21
46, 11
46, 22
35, 14
53, 28
35, 31
53, 53
74, 96
106, 161
246, 292
362, 487
592, 714
901, 1071
1224, 1422
1561, 1664
1738, 1921
1916, 1927
1892, 1828
1734, 1576
1282, 1199
1062, 816
701, 572
441, 329
255, 179
141, 114
77, 56
42, 37
34, 27
23, 18
21, 16
29, 10
30, 24
35, 9
33, 22
33, 24
55, 29
51, 46
74, 71
122, 99
129, 149
188, 185
233, 242
258, 285
241, 280
292, 270
263, 247
260, 212
205, 183
171, 129
109, 85
69, 60
47, 32
27, 19
11, 12
12, 7
5, 4
3, 7
13, 8
15, 9
12, 10
7, 10
20, 15
11, 12
20, 5
8, 13
14, 7
8, 9
13, 8
7, 6
3, 4
4, 4
3, 5
9, 8
5, 2
7, 4
2, 10
4, 5
5, 4
6, 6
7, 2
5, 1
3, 5
2, 10
6, 6
3, 2
7, 8
8, 6
9, 9
6, 7
8, 1
5, 6
8, 11
5, 6
12, 4
16, 4
11, 5
12, 3
11, 2
15, 6
12, 3
14, 3
13, 4
9, 3
9, 5
3, 7
3, 1
11, 6
6, 6
8, 5
6, 7
4, 6
2, 10
8, 6
4, 10
6, 4
5, 9
2, 9
8, 5
8, 4
5, 9
5, 3
6, 3
6, 4
0, 6
6, 2
3, 4
2, 4
5, 3
4, 7
3, 3
5, 4
6, 4
3, 8
4, 6
3, 5
4, 4
6, 5
3, 7
6, 5
1, 4
1, 4
1, 9
5, 5
2, 3
4, 4
5, 4
3, 4
3, 11
3, 1
3, 0
1, 3
3, 7
4, 6
3, 3
5, 7
5, 6
4, 2
3, 4
3, 6
5, 8
5, 3
3, 3
2, 7
3, 4
2, 4
3, 3
7, 2
4, 4
7, 4
5, 4
6, 4
4, 6
7, 4
2, 7
4, 4
2, 6
2, 5
3, 4
6, 2
4, 4
3, 7
2, 10
2, 6
3, 7
5, 8
3, 7
4, 2
3, 3
3, 4
4, 1
4, 1
6, 4
1, 3
4, 5
2, 0
1, 0
1, 4
4, 3
4, 2
1, 4
4, 5
5, 6
1, 0
4, 3
2, 4
2, 3
4, 0
7, 3
7, 5
7, 1
6, 6
2, 5
5, 6
2, 2
1, 3
4, 4
1, 7
3, 6
2, 6
1, 4
3, 1
2, 1
1, 7
2, 2
4, 3
6, 1
4, 1
2, 1
1, 1
1, 2
2, 0
6, 3
0, 5
3, 2
5, 1
4, 4
2, 2
2, 3
0, 2
2, 5
2, 1
2, 2
2, 1
4, 0
0, 2
2, 7
3, 0
0, 3
2, 2
2, 2
1, 0
1, 3
1, 2
3, 2
2, 2
2, 4
3, 3
1, 2
1, 2
3, 2
1, 3
0, 3
0, 1
3, 1
3, 1
1, 1
3, 3
2, 0
4, 3
2, 4
5, 3
3, 3
3, 3
1, 4
4, 5
0, 0
0, 1
1, 3
4, 1
2, 0
1, 1
2, 4
2, 4
3, 5
7, 4
3, 5
3, 2
4, 5
4, 3
5, 2
1, 3
3, 1
4, 1
4, 0
1, 2
3, 2
2, 1
2, 4
3, 0
1, 0
1, 1
0, 2
1, 5
3, 3
0, 3
2, 0
1, 1
2, 3
3, 2
1, 2
2, 2
1, 2
2, 0
0, 1
4, 0
2, 3
1, 0
2, 3
1, 4
1, 2
2, 2
3, 1
2, 1
3, 1
4, 2
0, 0
0, 2
0, 2
1, 0
0, 0
4, 0
1, 1
3, 1
3, 0
2, 0
2, 0
0, 2
0, 1
1, 3
0, 1
1, 2
0, 4
3, 0
4, 2
2, 0
2, 1
1, 0
0, 3
1, 1
0, 2
2, 2
0, 1
3, 0
3, 1
0, 0
0, 1
0, 2
0, 2
1, 0
2, 1
1, 1
1, 0
0, 0
0, 0
1, 2
0, 1
2, 0
0, 1
3, 0
1, 0
2, 1
0, 0
2, 4
0, 0
0, 2
1, 0
2, 0
1, 0
0, 1
1, 0
0, 2
1, 1
1, 3
1, 1
1, 0
0, 1
0, 2
0, 0
0, 1
0, 1
0, 1
0, 2
0, 0
0, 1
1, 0
1, 1
0, 1
3, 0
0, 0
1, 1
0, 0
1, 0
0, 1
1, 0
0, 1
0, 0
0, 0
0, 0
1, 1
0, 0
0, 3
0, 0
0, 0
1, 1
0, 0
0, 1
0, 1
0, 0
1, 0
0, 0
0, 0
4, 0
1, 0
2, 1
0, 0
1, 2
0, 4
0, 0
0, 1
1, 0
0, 0
1, 1
1, 0
0, 0
3, 0
0, 1
0, 1
0, 0
0, 0
0, 1
1, 0
0, 0
0, 0
1, 3
0, 1
0, 0
1, 0
1, 0
1, 0
0, 1
0, 0
0, 0
0, 1
0, 0
0, 1
0, 0
0, 1
0, 0
2, 0
0, 1
0, 0
0, 0
0, 1
0, 0
0, 0
0, 2
1, 0
0, 1
0, 0
0, 1
0, 0
0, 0
1, 0
1, 0
0, 0
0, 1
0, 1
0, 1
0, 0
1, 0
0, 0
0, 0
0, 1
2, 0
0, 0
0, 0
0, 0
0, 0
0, 1
0, 0
0, 0
0, 1
0, 1
0, 1
0, 0
1, 0
1, 0
0, 0
0, 0
0, 1
0, 0
1, 0
0, 1
2, 0
1, 0
0, 0
1, 0
1, 0
0, 0
0, 0
0, 0
0, 0
0, 0
0, 0
0, 1
0, 0
1, 0
1, 0
0, 0
0, 0
0, 1
1, 0
0, 0
0, 0
0, 1
0, 0
0, 0
0, 0
0, 0
0, 0
0, 0
1, 0
1, 0
0, 1
0, 1
0, 1
0, 1
0, 0
0, 1
0, 0
0, 2
0, 1
0, 0
0, 0
0, 0
1, 0
0, 1
1, 0
0, 1
0, 0
0, 0
0, 0
0, 1
0, 1
0, 0
0, 0
0, 1
0, 0
0, 0
1, 0
0, 0
1, 0
0, 1
0, 0
0, 1
1, 1
1, 0
0, 0
0, 0
0, 1
0, 0
0, 1
0, 0
0, 0
1, 0
0, 1
0, 0
0, 0
0, 0
0, 0
0, 0
0, 0
0, 0
0, 0
0, 0
0, 0
0, 0
0, 0
0, 0
0, 0
0, 0
0, 0
0, 0
0, 0
0, 0
0, 0
0, 0
0, 0
0, 1
1, 0
0, 0
0, 0
0, 0
0, 0
0, 0
0, 0
0, 0
0, 0
0, 0
0, 0
0, 0
0, 0
0, 0
0, 0
0, 0
0, 0
0, 0
0, 0
1, 0
0, 0
0, 0
0, 0
0, 0
0, 0
1, 0
0, 0
0, 1
0, 0
0, 0
0, 1
0, 0
0, 0
0, 0
1, 0
0, 0
0, 0
0, 0
0, 0
0, 0
0, 0
0, 0
0, 0
0, 0
0, 0
0, 0
0, 0
0, 0
0, 0
0, 0
0, 0
0, 0
0, 0
0, 0
0, 0
0, 0
0, 0
0, 0
0, 0
0, 0
0, 0
0, 0
0, 0
0, 0
0, 0
0, 0
0, 1
0, 0
0, 0
0, 0
0, 0
0, 0
0, 0
0, 0
0, 0
0, 0
0, 0
0, 0
0, 0
0, 0
0, 0
0, 0
0, 0
0, 0
0, 0
0, 0
0, 0
0, 0
0, 0
0, 0
0, 0
1, 0
0, 0
0, 0
1, 0
0, 0
0, 0
0, 0
0, 0
0, 0
0, 0
0, 0
0, 0
0, 0
0, 0
0, 0
0, 0
0, 0
0, 0
0, 0
0, 0
0, 0
0, 0
0, 0
0, 0
0, 1
0, 0
0, 0
0, 0
0, 0
0, 0
0, 0
0, 0
0, 0
0, 0
0, 0
0, 0
0, 0
0, 0
0, 0
0, 0
0, 0
0, 0
0, 0
0, 0
0, 0
0, 0
0, 0
0, 0
0, 0
0, 0
0, 0
0, 0
0, 0
0, 0
0, 0
0, 0
0, 0
0, 0
0, 0
0, 0
0, 0
0, 0
0, 0
0, 0
0, 0
0, 0
0, 1
0, 0
0, 0
0, 0
0, 0
0, 0
0, 0
0, 0
0, 0
0, 0
0, 0
0, 0
0, 0
0, 0
0, 0
0, 0
0, 0
0, 0
0, 0
0, 0
0, 0
0, 0
0, 0
0, 0
0, 0
0, 0
0, 0
0, 0
0, 0
0, 0
0, 0
0, 0
0, 0
0, 0
1, 0
0, 0
0, 0
0, 0
0, 0
0, 0
0, 0
0, 0
0, 0
0, 0
0, 0
0, 0
0, 0
0, 0
0, 0
0, 0
0, 0
0, 0
0, 0
0, 0
0, 0
0, 0
0, 0
0, 0
0, 0
0, 0
0, 0
0, 0
0, 0
0, 0
0, 0
0, 0
0, 0
0, 0
0, 0
0, 0
0, 0
0, 0
0, 0
0, 0
0, 0
0, 0
0, 0
0, 0
0, 0
0, 0
0, 0
0, 0
0, 0
0, 0
0, 0
0, 0
0, 0
0, 0
0, 0
0, 0
0, 0
0, 0
0, 0
0, 0
0, 0
0, 0
0, 0
0, 0
0, 0
0, 0
0, 0
0, 0
0, 0
0, 0
0, 0
0, 0
0, 0
0, 0
0, 0
0, 0
0, 0
0, 0
0, 0
0, 0
0, 0
0, 0
0, 0
0, 0
0, 0
0, 0
0, 0
0, 0
0, 0
0, 0
0, 0
0, 0
0, 0
0, 0
0, 0
0, 0
0, 0
0, 0
0, 0
0, 0
0, 0
0, 0
0, 0
0, 0
0, 0
0, 0
0, 0
0, 0
0, 0
0, 0
0, 0
0, 0
0, 0
0, 0
0, 0
0, 0
0, 0
0, 0
0, 0
0, 0
0, 0
0, 0
0, 0
0, 0
0, 0
0, 0
0, 0
0, 0
0, 0
0, 0
0, 0
0, 0
0, 0
0, 0
0, 0
0, 0
0, 0
0, 0
0, 0
0, 0
0, 0
0, 0
0, 0
0, 0
0, 0
0, 0
0, 0
0, 0
0, 0
0, 0
0, 0
0, 0
0, 0
0, 0
0, 0
0, 0
0, 0
0, 0
0, 0
0, 0
0, 0
0, 0
0, 0
0, 0
0, 0
0, 0
0, 0
0, 0
0, 0
0, 0
0, 0
0, 0
0, 0
0, 0
0, 0
0, 0
0, 0
0, 0
0, 0
0, 0
0, 0
0, 0
0, 0
0, 0
0, 0
0, 0
0, 0
0, 0
0, 0
0, 0
0, 0
0, 0
0, 0
0, 0
0, 0
0, 0
0, 0
0, 0
0, 0
0, 0
0, 0
0, 0
0, 0
0, 0
0, 0
0, 0
0, 0
0, 0
0, 0
0, 0
0, 0
0, 0
0, 0
0, 0
0, 0
0, 0
0, 0
0, 0
0, 0
0, 0
0, 0
0, 0
0, 0
0, 0
0, 0
0, 0
0, 0
0, 0
0, 0
0, 0
0, 0
0, 0
0, 0
0, 0
0, 0
0, 0
0, 0
0, 0
0, 0
0, 0
0, 0
0, 0
0, 0
0, 0
0, 0
0, 0
0, 0
0, 0
0, 0
0, 0
0, 0
0, 0
0, 0
0, 0
0, 0
0, 0
0, 0
0, 0
0, 0
0, 0
0, 0
0, 0
0, 0
0, 0
0, 0
0, 0
0, 0
0, 0
0, 0
0, 0
0, 0
0, 0
0, 0
0, 0
0, 0
0, 0
0, 0
0, 0
0, 0
0, 0
0, 0
0, 0
0, 0
0, 0
0, 0
0, 0
0, 0
0, 0
0, 0
0, 0
0, 0
0, 0
0, 0
0, 0
0, 0
0, 0
0, 0
0, 0
0, 0
0, 0
0, 0
0, 0
0, 0
0, 0
0, 0
0, 0
0, 0
0, 0
0, 0
0, 0
0, 0
0, 0
0, 0
0, 0
0, 0
0, 0
0, 0
0, 0
0, 0
0, 0
#ENDOFDATA     end of spectrum data