File: host_upload/06-09-2024/ps_0852/dump3/ps__0852shot_2102.msa
#FORMAT      : EMSA/MAS spectral data file
#VERSION     : TC202v2.0 PIXL
#TITLE       : N/A
#DATE        :       Date in the format DD-MMM-YYYY, for example 07-JUL-2010
#TIME        :             The time of day at which the spectrum was recorded, in 24-hour format
#OWNER       : PIXL Flight Model       (PIXL will use this to indicate which instrument took the data.)
#NPOINTS     : 4096     Number of data points in the spectrum (This can be zero for configuration only files)
#NCOLUMNS    : 2     Number of data columns in the spectrum (This can be zero for configuration only files)
#XUNITS      : eV
#YUNITS      : COUNTS
#DATATYPE    : YY
#XPERCHAN    : 7.862, 7.881   eV per channel (separate by commas if more than one detector)
#OFFSET      : 18.5, -22.4         eV of first channel  (separate by commas if more than one detector
#SIGNALTYPE  : XRF
#YP_TEMP     : 2.3
#LIVETIME    : 8.53373, 8.55658   seconds (separate by commas if more than one detector)
#REALTIME    : 10, 10.0   seconds (separate by commas if more than one detector)
#SPECTRUM    : start of spectrum data
0, 0
0, 0
0, 0
0, 0
0, 0
0, 0
0, 0
0, 0
0, 0
0, 0
0, 0
0, 0
0, 0
0, 0
0, 0
0, 0
0, 0
0, 0
0, 0
0, 0
0, 0
0, 0
0, 0
0, 0
0, 0
0, 0
0, 0
0, 0
0, 0
0, 0
0, 0
0, 1
1, 0
0, 0
0, 0
0, 0
0, 0
1, 0
1, 1
1, 2
2, 3
0, 4
1, 1
1, 3
1, 0
2, 0
2, 0
3, 4
7, 6
10, 17
24, 33
37, 46
56, 69
63, 78
75, 88
81, 81
64, 42
42, 37
29, 23
20, 15
10, 6
4, 5
2, 3
4, 4
4, 5
5, 1
6, 8
11, 11
23, 21
47, 49
96, 106
172, 195
266, 279
327, 376
389, 453
390, 423
326, 406
272, 283
203, 184
132, 134
55, 78
37, 45
20, 14
11, 8
3, 5
2, 6
2, 3
3, 0
1, 0
0, 2
1, 1
1, 1
0, 1
4, 6
4, 6
14, 11
11, 13
14, 22
35, 24
29, 34
23, 28
14, 35
8, 17
7, 7
4, 5
5, 6
3, 7
9, 13
14, 7
9, 7
23, 15
23, 26
24, 35
19, 31
32, 46
32, 31
39, 43
34, 26
25, 25
28, 20
27, 21
22, 15
12, 13
10, 17
17, 11
16, 18
19, 16
8, 11
6, 2
10, 10
2, 3
3, 3
5, 4
4, 5
1, 5
1, 0
2, 2
1, 0
2, 4
1, 4
1, 0
2, 1
0, 3
0, 1
3, 2
4, 0
3, 2
0, 2
1, 5
1, 2
3, 0
4, 5
5, 5
5, 6
8, 8
9, 16
11, 9
16, 14
16, 17
11, 9
9, 8
7, 4
4, 7
2, 3
2, 3
3, 2
5, 0
2, 2
3, 2
2, 3
2, 3
4, 3
2, 2
5, 2
2, 3
3, 4
2, 8
2, 2
0, 2
6, 5
2, 2
3, 5
3, 0
3, 4
4, 3
2, 6
2, 5
6, 6
2, 3
2, 3
5, 6
10, 14
10, 11
9, 11
6, 9
4, 11
13, 7
16, 22
13, 18
9, 11
7, 10
10, 14
7, 5
7, 9
6, 4
6, 6
2, 4
5, 6
10, 5
2, 2
2, 5
5, 3
4, 3
6, 4
7, 4
4, 4
5, 6
1, 3
4, 2
4, 5
1, 2
5, 5
6, 10
8, 5
4, 7
11, 8
17, 4
22, 6
37, 16
40, 16
67, 13
85, 6
87, 7
93, 13
103, 12
92, 11
73, 9
58, 7
42, 6
20, 2
19, 10
14, 11
12, 9
18, 11
23, 13
24, 23
37, 24
46, 43
72, 46
67, 54
89, 72
96, 52
101, 55
98, 52
65, 32
71, 33
59, 23
39, 17
34, 23
31, 17
23, 26
24, 36
36, 54
85, 115
140, 210
260, 357
480, 599
729, 981
1119, 1415
1403, 1809
1920, 2196
2107, 2429
2300, 2578
2192, 2269
2018, 1981
1637, 1530
1251, 1090
880, 715
590, 434
336, 254
211, 147
110, 79
62, 40
30, 29
16, 22
9, 19
11, 17
7, 11
9, 8
19, 13
18, 32
29, 33
45, 55
69, 75
95, 140
121, 166
176, 225
208, 285
316, 369
319, 371
341, 378
318, 323
312, 264
258, 205
175, 174
142, 112
80, 65
50, 32
33, 36
12, 12
13, 13
2, 8
3, 7
8, 11
10, 7
13, 11
15, 9
9, 16
13, 14
6, 8
8, 6
8, 10
8, 4
8, 6
6, 3
4, 6
4, 4
7, 4
4, 6
2, 6
2, 9
1, 9
4, 8
6, 12
4, 11
15, 4
10, 21
16, 9
6, 10
8, 4
12, 7
3, 6
4, 4
4, 6
6, 6
7, 8
6, 4
6, 4
3, 6
2, 10
2, 2
8, 9
3, 6
2, 6
10, 5
4, 2
7, 3
12, 2
11, 3
17, 4
8, 4
7, 4
5, 4
6, 4
9, 4
3, 5
4, 4
6, 6
7, 9
10, 8
4, 3
5, 5
9, 6
17, 2
10, 2
14, 2
26, 7
24, 6
26, 11
22, 8
26, 5
17, 11
18, 8
15, 10
15, 6
8, 12
13, 9
6, 8
4, 9
6, 11
8, 2
6, 5
6, 3
3, 1
4, 5
4, 3
3, 2
6, 8
5, 5
1, 4
3, 2
6, 2
4, 4
3, 6
2, 4
4, 6
3, 3
3, 2
2, 7
2, 5
4, 7
2, 4
5, 1
1, 4
2, 7
1, 7
3, 1
2, 4
2, 4
1, 1
5, 4
2, 0
1, 4
6, 0
2, 6
2, 4
2, 3
5, 5
2, 3
7, 1
1, 1
1, 3
1, 1
3, 2
7, 4
4, 3
2, 1
1, 2
2, 2
3, 0
3, 4
2, 6
4, 3
1, 2
4, 2
3, 3
1, 2
3, 4
2, 2
2, 4
5, 3
2, 2
1, 3
0, 3
1, 4
1, 4
1, 0
4, 3
3, 3
4, 3
5, 8
9, 4
2, 1
9, 2
6, 2
6, 3
4, 2
10, 4
5, 4
8, 4
4, 1
3, 2
6, 5
3, 1
3, 3
4, 4
3, 3
3, 1
1, 2
2, 4
3, 5
1, 1
0, 2
6, 2
0, 1
0, 2
2, 5
4, 0
2, 6
0, 3
1, 4
1, 4
1, 1
1, 0
0, 1
0, 5
2, 4
2, 3
2, 2
1, 1
1, 5
1, 6
1, 2
3, 2
2, 2
2, 1
2, 2
1, 3
0, 2
1, 0
2, 0
2, 2
0, 3
3, 6
1, 1
3, 0
1, 2
2, 4
0, 3
1, 5
2, 2
1, 2
3, 2
3, 4
3, 5
1, 8
5, 1
2, 3
4, 1
3, 2
1, 1
2, 2
2, 1
2, 1
0, 3
1, 3
0, 2
5, 3
1, 5
4, 5
1, 4
5, 3
5, 4
2, 4
4, 5
6, 3
1, 2
1, 0
2, 1
0, 2
2, 1
2, 4
1, 2
2, 4
0, 2
1, 5
0, 1
0, 0
1, 2
3, 1
1, 1
5, 3
3, 2
1, 0
3, 0
0, 0
3, 0
1, 1
3, 5
1, 1
3, 0
1, 1
3, 2
4, 1
3, 3
1, 1
1, 3
0, 1
3, 2
0, 3
0, 1
0, 0
2, 2
1, 1
1, 3
1, 1
2, 0
0, 2
5, 3
0, 0
0, 0
0, 1
2, 2
1, 3
1, 2
1, 0
0, 1
1, 0
0, 0
2, 3
0, 2
1, 1
0, 0
1, 0
1, 0
1, 0
2, 2
1, 1
1, 0
1, 1
0, 0
1, 1
0, 1
0, 1
0, 1
1, 1
1, 0
0, 0
1, 0
1, 1
0, 0
1, 1
0, 2
1, 1
1, 0
0, 0
4, 1
1, 1
1, 0
1, 3
0, 3
0, 1
0, 0
0, 0
2, 0
1, 1
1, 0
0, 1
0, 0
0, 0
0, 1
0, 0
0, 1
0, 0
0, 1
0, 1
0, 0
2, 1
0, 0
0, 0
0, 2
0, 3
0, 1
0, 2
0, 0
2, 2
1, 2
0, 0
0, 1
2, 0
3, 0
1, 1
1, 1
1, 1
0, 0
1, 1
0, 0
1, 0
0, 1
1, 2
0, 1
0, 0
1, 1
2, 1
1, 2
0, 1
0, 0
1, 0
2, 0
1, 0
1, 0
0, 0
0, 1
0, 0
0, 0
0, 0
0, 1
2, 0
1, 0
1, 2
0, 1
0, 0
1, 1
0, 0
1, 0
0, 1
0, 0
0, 1
0, 0
1, 0
1, 0
0, 0
0, 1
1, 0
0, 0
1, 0
0, 0
1, 0
0, 1
0, 0
0, 0
2, 0
0, 1
0, 0
0, 0
0, 0
2, 0
1, 0
1, 0
0, 0
1, 0
1, 1
1, 0
0, 0
3, 0
0, 0
1, 0
1, 1
0, 0
1, 0
0, 0
0, 0
2, 0
0, 1
0, 0
0, 1
0, 0
0, 0
0, 0
0, 0
0, 0
0, 0
0, 1
0, 0
0, 1
0, 0
2, 0
0, 0
0, 0
0, 0
0, 1
0, 0
1, 0
0, 0
0, 1
0, 0
0, 0
0, 0
0, 0
1, 1
0, 0
0, 0
0, 0
0, 0
0, 0
0, 0
0, 1
0, 0
0, 0
0, 0
0, 0
0, 0
0, 0
0, 0
0, 0
0, 1
0, 0
0, 1
0, 1
0, 0
0, 1
0, 0
0, 1
1, 0
0, 0
0, 0
0, 1
0, 0
1, 1
0, 3
0, 1
1, 0
2, 0
0, 1
0, 1
0, 1
1, 1
0, 1
0, 0
0, 0
0, 0
0, 0
0, 0
0, 0
0, 0
0, 1
0, 1
0, 0
0, 1
0, 1
0, 1
0, 0
0, 0
0, 0
0, 0
0, 0
0, 0
0, 0
1, 0
0, 0
0, 0
0, 0
1, 0
0, 0
0, 0
1, 0
0, 0
0, 0
0, 1
0, 0
0, 1
0, 0
0, 0
0, 0
0, 0
2, 0
1, 0
0, 0
0, 0
0, 0
1, 0
0, 0
0, 0
1, 0
1, 0
0, 0
0, 0
0, 0
0, 0
0, 0
0, 0
1, 0
0, 0
0, 0
0, 0
0, 0
0, 0
1, 0
0, 0
0, 0
0, 1
0, 1
0, 0
0, 0
0, 0
0, 0
0, 1
1, 0
0, 0
0, 0
0, 0
0, 0
0, 0
0, 0
1, 0
0, 0
0, 0
0, 0
0, 0
0, 0
0, 0
0, 0
0, 0
0, 0
0, 0
0, 0
0, 1
0, 0
0, 0
0, 0
0, 0
0, 0
0, 0
0, 0
0, 1
0, 0
0, 1
0, 0
0, 0
0, 0
0, 0
0, 0
0, 0
0, 1
0, 0
0, 1
0, 0
0, 0
0, 0
0, 0
0, 0
0, 0
0, 0
0, 0
0, 0
0, 0
0, 0
0, 0
0, 0
0, 0
0, 0
0, 0
0, 0
0, 0
0, 0
0, 0
0, 0
0, 0
0, 0
0, 0
0, 0
0, 0
0, 0
0, 0
0, 0
0, 0
0, 0
0, 0
0, 0
0, 0
0, 0
1, 0
0, 0
0, 0
0, 0
0, 0
0, 0
0, 0
0, 0
0, 0
0, 0
0, 0
0, 0
0, 0
0, 1
0, 0
0, 0
0, 0
0, 0
0, 0
0, 0
1, 0
0, 0
0, 0
0, 0
0, 0
0, 0
0, 0
0, 0
0, 0
0, 0
0, 0
0, 0
0, 0
0, 0
0, 0
0, 0
0, 1
0, 0
0, 0
0, 0
0, 0
0, 0
0, 0
0, 0
0, 0
0, 0
0, 0
0, 0
0, 0
0, 0
0, 0
0, 0
0, 0
0, 0
0, 0
0, 0
0, 0
0, 0
0, 0
0, 0
0, 0
0, 0
0, 0
0, 0
0, 0
0, 0
0, 0
0, 0
0, 0
0, 0
0, 0
0, 0
0, 0
0, 0
0, 0
0, 0
0, 0
0, 0
0, 0
0, 0
0, 0
0, 0
0, 0
0, 0
0, 0
0, 0
0, 0
0, 0
0, 0
0, 0
0, 0
0, 0
0, 0
0, 0
0, 0
0, 0
0, 0
0, 0
0, 0
0, 0
0, 0
0, 1
0, 0
0, 0
0, 0
0, 0
0, 0
0, 0
0, 0
0, 0
0, 0
0, 0
0, 0
0, 0
0, 0
0, 0
0, 0
0, 0
0, 0
0, 0
0, 0
0, 0
0, 0
0, 0
0, 0
0, 0
0, 0
0, 0
0, 0
0, 0
0, 0
0, 0
0, 0
0, 0
0, 0
0, 0
0, 0
0, 0
0, 0
0, 0
0, 0
0, 0
0, 0
0, 0
0, 0
0, 0
0, 0
0, 0
0, 0
0, 0
0, 0
0, 0
0, 0
0, 0
0, 0
0, 0
0, 0
0, 0
0, 0
0, 0
0, 0
0, 0
0, 0
0, 0
0, 0
0, 0
0, 0
0, 0
0, 0
0, 0
0, 0
0, 0
0, 0
0, 0
0, 0
0, 0
0, 0
0, 0
0, 0
0, 0
0, 0
0, 0
0, 0
0, 0
0, 0
0, 0
0, 0
0, 0
0, 0
0, 0
0, 0
0, 0
0, 0
0, 0
0, 0
0, 0
0, 0
0, 0
0, 0
0, 0
0, 0
0, 0
0, 0
0, 0
0, 0
0, 0
0, 0
0, 0
0, 0
0, 0
0, 0
0, 0
0, 0
0, 0
0, 0
0, 0
0, 0
0, 0
0, 0
0, 0
0, 0
0, 0
0, 0
0, 0
0, 0
0, 0
0, 0
0, 0
0, 0
0, 0
0, 0
0, 0
0, 0
0, 0
0, 0
0, 0
0, 0
0, 0
0, 0
0, 0
0, 0
0, 0
0, 0
0, 0
0, 0
0, 0
0, 0
0, 0
0, 0
0, 0
0, 0
0, 0
0, 0
0, 0
0, 0
0, 0
0, 0
0, 0
0, 0
0, 0
0, 0
0, 0
0, 0
0, 0
0, 0
0, 0
0, 0
0, 0
0, 0
0, 0
0, 0
0, 0
0, 0
0, 0
0, 0
0, 0
0, 0
0, 0
0, 0
0, 0
0, 0
0, 0
0, 0
0, 0
0, 0
0, 0
0, 0
0, 0
0, 0
0, 0
0, 0
0, 0
0, 0
0, 0
0, 0
0, 0
0, 0
0, 0
0, 0
0, 0
0, 0
0, 0
0, 0
0, 0
0, 0
0, 0
0, 0
0, 0
0, 0
0, 0
0, 0
0, 0
0, 0
0, 0
0, 0
0, 0
0, 0
0, 0
0, 0
0, 0
0, 0
0, 0
0, 0
0, 0
0, 0
0, 0
0, 0
0, 0
0, 0
0, 0
0, 0
0, 0
0, 0
0, 0
0, 0
0, 0
0, 0
0, 0
0, 0
0, 0
0, 0
0, 0
0, 0
0, 0
0, 0
0, 0
0, 0
0, 0
0, 0
0, 0
0, 0
0, 0
0, 0
0, 0
0, 0
0, 0
0, 0
0, 0
0, 0
0, 0
0, 0
0, 0
0, 0
0, 0
0, 0
0, 0
0, 0
0, 0
0, 0
0, 0
0, 0
0, 0
0, 0
0, 0
0, 0
0, 0
0, 0
0, 0
0, 0
0, 0
0, 0
0, 0
0, 0
0, 0
0, 0
0, 0
0, 0
0, 0
0, 0
0, 0
0, 0
0, 0
0, 0
0, 0
0, 0
0, 0
0, 0
0, 0
0, 0
0, 0
0, 0
0, 0
0, 0
0, 0
0, 0
0, 0
0, 0
0, 0
0, 0
0, 0
0, 0
0, 0
0, 0
0, 0
0, 0
0, 0
0, 0
0, 0
0, 0
0, 0
0, 0
0, 0
0, 0
0, 0
0, 0
#ENDOFDATA     end of spectrum data