File: host_upload/06-09-2024/ps_0852/dump3/ps__0852shot_2082.msa
#FORMAT      : EMSA/MAS spectral data file
#VERSION     : TC202v2.0 PIXL
#TITLE       : N/A
#DATE        :       Date in the format DD-MMM-YYYY, for example 07-JUL-2010
#TIME        :             The time of day at which the spectrum was recorded, in 24-hour format
#OWNER       : PIXL Flight Model       (PIXL will use this to indicate which instrument took the data.)
#NPOINTS     : 4096     Number of data points in the spectrum (This can be zero for configuration only files)
#NCOLUMNS    : 2     Number of data columns in the spectrum (This can be zero for configuration only files)
#XUNITS      : eV
#YUNITS      : COUNTS
#DATATYPE    : YY
#XPERCHAN    : 7.862, 7.881   eV per channel (separate by commas if more than one detector)
#OFFSET      : 18.5, -22.4         eV of first channel  (separate by commas if more than one detector
#SIGNALTYPE  : XRF
#YP_TEMP     : 2.652
#LIVETIME    : 8.57117, 8.54804   seconds (separate by commas if more than one detector)
#REALTIME    : 10, 10.0   seconds (separate by commas if more than one detector)
#SPECTRUM    : start of spectrum data
0, 0
0, 0
0, 0
0, 0
0, 0
0, 0
0, 0
0, 0
0, 0
0, 0
0, 0
0, 0
0, 0
0, 0
0, 0
0, 0
0, 0
0, 0
0, 0
0, 0
0, 0
0, 0
0, 0
0, 0
0, 0
0, 0
0, 0
0, 0
0, 0
0, 0
0, 0
0, 1
0, 0
1, 0
1, 0
0, 0
0, 2
5, 0
2, 2
5, 1
5, 0
5, 0
12, 0
8, 0
2, 1
4, 0
5, 0
1, 2
10, 8
9, 18
27, 20
51, 41
53, 56
89, 62
87, 64
82, 65
56, 62
53, 49
33, 30
18, 11
11, 10
2, 0
3, 3
2, 0
1, 2
4, 5
6, 4
9, 15
18, 23
59, 42
111, 81
161, 150
265, 284
364, 344
408, 385
416, 385
368, 341
269, 250
190, 190
139, 92
67, 62
44, 34
30, 17
11, 4
6, 10
1, 2
3, 2
5, 3
2, 1
3, 0
0, 1
3, 0
1, 2
2, 1
6, 3
9, 7
19, 8
7, 10
19, 10
22, 3
9, 10
11, 6
7, 6
10, 4
2, 2
6, 4
6, 3
14, 6
33, 3
44, 3
96, 10
191, 19
277, 15
425, 21
516, 37
591, 24
622, 22
502, 35
378, 21
293, 15
184, 9
113, 11
63, 15
30, 13
28, 11
12, 8
14, 12
13, 9
8, 8
8, 5
4, 5
1, 4
3, 3
5, 7
2, 2
2, 2
3, 3
4, 1
4, 2
3, 0
1, 3
5, 2
0, 2
2, 2
3, 2
0, 0
1, 4
3, 5
2, 1
4, 3
4, 2
5, 3
3, 10
9, 9
8, 5
16, 15
14, 17
18, 19
20, 16
19, 20
14, 11
12, 6
12, 6
2, 3
2, 1
6, 3
2, 1
5, 1
3, 3
7, 3
15, 5
23, 3
30, 3
45, 9
61, 4
81, 4
73, 6
97, 2
89, 0
65, 3
60, 6
47, 3
22, 3
14, 6
8, 5
5, 5
4, 4
7, 3
9, 5
7, 5
7, 3
8, 8
11, 11
11, 11
12, 11
8, 16
14, 39
12, 42
16, 44
10, 81
7, 99
14, 148
7, 155
8, 158
5, 144
5, 123
2, 110
4, 80
4, 49
6, 33
7, 21
6, 18
5, 13
4, 5
11, 6
5, 0
4, 5
3, 4
3, 1
3, 5
6, 12
5, 5
4, 6
7, 4
7, 7
6, 4
5, 8
15, 18
22, 18
19, 14
17, 6
28, 11
30, 2
27, 12
48, 9
47, 7
60, 5
41, 2
64, 9
68, 3
44, 4
42, 7
32, 6
19, 11
20, 16
32, 24
32, 25
34, 26
45, 44
57, 49
64, 62
65, 56
57, 55
57, 42
42, 36
29, 30
29, 23
20, 27
17, 29
17, 30
19, 41
17, 40
44, 86
74, 106
166, 211
268, 343
489, 584
724, 846
1179, 1268
1588, 1697
1956, 1981
2325, 2221
2414, 2270
2426, 2106
2173, 1888
1754, 1439
1368, 1000
986, 686
626, 450
384, 265
233, 137
109, 74
61, 39
40, 25
26, 16
27, 16
38, 16
56, 8
77, 14
90, 26
125, 31
142, 31
183, 66
223, 76
214, 125
253, 149
244, 220
284, 277
377, 313
402, 331
385, 374
405, 307
324, 260
235, 229
229, 144
148, 106
73, 67
49, 37
30, 27
18, 20
11, 10
5, 7
4, 7
5, 11
10, 12
9, 9
12, 16
11, 4
11, 11
10, 13
10, 11
9, 16
10, 4
5, 4
10, 4
2, 6
2, 2
4, 3
5, 4
5, 2
5, 2
2, 3
2, 4
6, 5
4, 4
3, 1
2, 1
5, 2
5, 3
1, 5
5, 4
6, 5
7, 4
10, 5
7, 5
19, 1
24, 2
29, 8
44, 1
52, 9
72, 4
92, 2
103, 3
94, 7
92, 2
90, 3
78, 6
77, 2
56, 4
39, 3
34, 4
26, 4
11, 3
7, 6
5, 2
8, 2
2, 7
8, 4
3, 4
5, 4
4, 2
1, 3
4, 1
5, 4
3, 3
4, 3
4, 6
4, 1
3, 5
4, 3
3, 3
1, 4
2, 4
1, 11
4, 5
2, 0
5, 6
6, 2
3, 6
9, 8
4, 6
5, 10
1, 7
4, 3
3, 7
3, 8
1, 5
5, 5
3, 4
2, 6
1, 7
5, 4
1, 4
0, 8
4, 6
3, 10
2, 7
6, 7
3, 9
1, 11
3, 1
4, 5
5, 5
1, 6
2, 3
3, 3
2, 3
3, 7
3, 2
3, 6
4, 4
2, 1
3, 3
1, 3
4, 8
4, 1
1, 2
4, 5
4, 4
1, 5
5, 6
3, 2
2, 1
5, 1
2, 4
3, 1
4, 4
3, 1
3, 4
2, 3
5, 3
6, 4
1, 5
4, 1
2, 5
5, 1
1, 4
1, 2
2, 1
1, 1
0, 4
0, 3
3, 1
3, 3
4, 0
3, 3
3, 2
5, 1
4, 3
4, 5
0, 3
8, 9
3, 4
4, 4
5, 5
8, 5
5, 1
6, 2
6, 2
2, 6
9, 4
7, 5
9, 1
8, 6
10, 0
5, 3
8, 2
4, 3
4, 6
3, 1
2, 3
6, 1
6, 0
3, 4
3, 1
2, 1
1, 1
3, 2
2, 3
0, 1
1, 2
2, 3
1, 2
1, 2
3, 3
3, 3
3, 2
0, 1
0, 6
1, 4
0, 0
1, 2
3, 3
4, 2
2, 0
0, 2
3, 2
0, 0
1, 3
2, 0
2, 0
4, 2
0, 1
1, 3
1, 1
1, 2
1, 1
2, 0
2, 1
1, 1
3, 0
2, 1
2, 5
3, 2
1, 0
2, 2
0, 2
4, 2
3, 2
4, 3
4, 0
2, 1
4, 2
2, 0
6, 2
2, 2
3, 4
2, 2
1, 4
0, 6
3, 5
8, 1
6, 2
3, 2
7, 7
3, 9
2, 2
5, 2
1, 6
2, 3
1, 1
4, 2
2, 1
1, 3
1, 3
1, 0
3, 0
3, 2
4, 1
2, 1
0, 1
4, 0
1, 3
0, 2
1, 2
2, 0
1, 0
3, 1
2, 0
1, 1
2, 4
2, 3
1, 0
0, 4
4, 0
2, 1
4, 2
3, 4
0, 1
3, 1
2, 1
2, 0
0, 1
4, 0
0, 0
1, 0
2, 1
2, 2
2, 1
2, 3
0, 0
1, 3
2, 3
2, 1
0, 2
0, 1
0, 1
1, 0
1, 2
0, 0
1, 2
1, 0
1, 2
3, 2
1, 1
1, 0
1, 0
0, 2
1, 0
0, 2
0, 1
3, 2
1, 3
1, 0
1, 0
0, 1
1, 2
0, 1
0, 0
3, 1
2, 3
1, 1
0, 0
0, 0
1, 0
1, 0
3, 0
0, 0
2, 2
0, 1
1, 0
0, 0
1, 0
1, 0
0, 0
0, 0
0, 0
0, 1
0, 0
0, 0
0, 0
1, 0
0, 1
3, 2
1, 0
2, 2
2, 2
1, 1
1, 1
1, 1
2, 1
1, 0
1, 0
0, 1
2, 0
0, 0
0, 0
0, 0
1, 1
0, 1
1, 0
0, 1
0, 0
1, 1
0, 0
1, 2
2, 0
1, 1
1, 0
0, 0
0, 1
1, 0
1, 0
1, 0
0, 0
1, 2
0, 0
0, 1
0, 0
0, 3
0, 1
1, 0
0, 2
0, 1
2, 1
0, 1
0, 0
1, 1
0, 0
1, 1
1, 0
0, 0
0, 0
0, 1
0, 0
0, 0
0, 0
0, 0
0, 2
1, 1
1, 0
0, 1
0, 0
0, 0
0, 0
0, 1
0, 1
0, 0
0, 0
0, 1
1, 1
0, 0
1, 0
1, 0
0, 0
1, 1
0, 0
0, 0
1, 0
0, 0
1, 0
0, 0
0, 1
2, 1
0, 0
0, 0
1, 0
0, 0
1, 0
0, 0
0, 2
0, 1
0, 0
1, 0
0, 0
0, 0
0, 1
0, 0
0, 1
1, 0
0, 0
0, 1
0, 0
0, 0
2, 0
0, 0
1, 0
0, 0
0, 0
0, 0
0, 0
0, 2
0, 1
1, 0
0, 0
0, 1
0, 0
0, 0
0, 0
0, 0
1, 0
0, 0
1, 0
0, 0
1, 0
0, 0
0, 0
0, 0
1, 0
0, 0
0, 0
0, 1
0, 1
0, 0
0, 0
1, 0
0, 0
0, 0
2, 0
0, 0
1, 1
0, 0
0, 0
0, 0
0, 2
1, 0
0, 0
0, 0
0, 0
0, 0
0, 1
1, 0
0, 0
0, 0
0, 1
0, 0
0, 0
0, 2
0, 1
1, 0
0, 0
0, 0
0, 0
0, 1
0, 0
1, 0
1, 0
1, 0
0, 0
1, 0
0, 0
0, 1
1, 2
0, 0
0, 1
0, 0
1, 0
0, 2
0, 0
1, 0
0, 0
1, 0
0, 0
0, 0
2, 1
0, 0
0, 0
0, 0
1, 1
0, 0
0, 0
0, 0
0, 0
0, 0
0, 0
0, 0
0, 0
1, 0
0, 0
0, 0
1, 0
0, 0
0, 0
0, 0
0, 0
1, 0
1, 0
0, 0
0, 2
0, 0
0, 0
1, 0
0, 0
0, 0
0, 0
0, 0
1, 0
1, 0
1, 0
0, 1
1, 1
0, 0
1, 0
0, 0
0, 0
1, 0
0, 0
0, 0
0, 0
0, 0
0, 0
0, 0
1, 0
0, 0
0, 0
0, 0
0, 0
0, 0
0, 0
0, 0
0, 0
0, 0
0, 1
0, 0
1, 0
0, 1
0, 0
0, 0
0, 0
0, 0
1, 0
0, 0
0, 0
0, 0
0, 0
0, 0
0, 0
0, 0
0, 0
0, 0
0, 0
0, 0
1, 0
0, 0
0, 1
0, 0
0, 1
0, 0
1, 0
0, 0
0, 0
0, 0
0, 0
0, 0
0, 0
0, 0
0, 0
1, 0
0, 1
1, 0
0, 0
0, 0
0, 0
0, 0
0, 0
0, 0
0, 0
0, 0
0, 0
0, 0
0, 0
0, 0
0, 0
0, 0
0, 0
0, 0
0, 0
0, 1
0, 0
0, 0
0, 0
0, 0
0, 0
0, 0
0, 0
0, 0
0, 0
0, 0
1, 0
0, 0
0, 0
0, 0
0, 0
0, 0
0, 0
0, 0
0, 0
0, 0
0, 0
0, 0
0, 0
0, 0
0, 0
0, 0
0, 0
0, 0
0, 0
0, 0
0, 0
0, 0
0, 0
0, 0
0, 0
0, 0
0, 0
0, 0
0, 0
0, 0
0, 0
0, 0
0, 0
0, 0
0, 0
0, 0
0, 0
0, 0
0, 0
0, 0
0, 0
0, 0
0, 0
0, 0
0, 0
0, 0
0, 0
0, 0
0, 0
0, 0
0, 0
0, 0
0, 0
0, 0
0, 0
0, 0
0, 0
0, 0
0, 0
0, 1
0, 0
0, 0
0, 0
0, 0
0, 0
0, 0
0, 0
0, 0
0, 0
0, 0
0, 0
0, 0
0, 0
0, 0
0, 0
0, 0
0, 0
0, 0
0, 0
0, 0
0, 0
0, 0
0, 0
0, 0
0, 0
0, 0
0, 0
0, 0
0, 0
0, 0
0, 0
0, 0
0, 0
0, 0
0, 0
0, 0
0, 0
0, 0
0, 0
0, 0
0, 0
0, 0
0, 0
0, 0
0, 0
0, 0
0, 0
0, 0
0, 0
0, 0
0, 0
0, 0
0, 0
0, 0
0, 0
0, 0
0, 0
0, 0
0, 0
0, 0
0, 0
0, 0
0, 0
0, 0
0, 0
0, 0
0, 0
0, 0
0, 0
0, 0
0, 0
0, 0
0, 0
0, 0
0, 0
0, 0
0, 0
0, 0
0, 0
0, 0
0, 0
0, 0
0, 0
0, 0
0, 0
0, 0
0, 0
0, 0
0, 0
0, 0
0, 0
0, 0
0, 0
0, 0
0, 0
0, 0
0, 0
0, 0
0, 0
0, 0
0, 0
0, 0
0, 0
0, 0
0, 0
0, 0
0, 0
0, 0
0, 0
0, 0
0, 0
0, 0
0, 0
0, 0
0, 0
0, 0
0, 0
0, 0
0, 0
0, 0
0, 0
0, 0
0, 0
0, 0
0, 0
0, 0
0, 0
0, 0
0, 0
0, 0
0, 0
0, 0
0, 0
0, 0
0, 0
0, 0
0, 0
0, 0
0, 0
0, 0
0, 0
0, 0
0, 0
0, 0
0, 0
0, 0
0, 0
0, 0
0, 0
0, 0
0, 0
0, 0
0, 0
0, 0
0, 0
0, 0
0, 0
0, 0
0, 0
0, 0
0, 0
0, 0
0, 0
0, 0
0, 0
0, 0
0, 0
0, 0
0, 0
0, 0
0, 0
0, 0
0, 0
0, 0
0, 0
0, 0
0, 0
0, 0
0, 0
0, 0
0, 0
0, 0
0, 0
0, 0
0, 0
0, 0
0, 0
0, 0
0, 0
0, 0
0, 0
0, 0
0, 0
0, 0
0, 0
0, 0
0, 0
0, 0
0, 0
0, 0
0, 0
0, 0
0, 0
0, 0
0, 0
0, 0
0, 0
0, 0
0, 0
0, 0
0, 0
0, 0
0, 0
0, 0
0, 0
0, 0
0, 0
0, 0
0, 0
0, 0
0, 0
0, 0
0, 0
0, 0
0, 0
0, 0
0, 0
0, 0
0, 0
0, 0
0, 0
0, 0
0, 0
0, 0
0, 0
0, 0
0, 0
0, 0
0, 0
0, 0
0, 0
0, 0
0, 0
0, 0
0, 0
0, 0
0, 0
0, 0
0, 0
0, 0
0, 0
0, 0
0, 0
0, 0
0, 0
0, 0
0, 0
0, 0
0, 0
0, 0
0, 0
0, 0
0, 0
0, 0
0, 0
0, 0
0, 0
0, 0
0, 0
0, 0
0, 0
0, 0
0, 0
0, 0
0, 0
0, 0
0, 0
0, 0
0, 0
0, 0
0, 0
0, 0
0, 0
0, 0
0, 0
0, 0
0, 0
0, 0
0, 0
0, 0
0, 0
0, 0
0, 0
0, 0
0, 0
0, 0
0, 0
0, 0
0, 0
0, 0
0, 0
0, 0
0, 0
0, 0
0, 0
0, 0
0, 0
0, 0
0, 0
0, 0
0, 0
0, 0
0, 0
0, 0
0, 0
0, 0
0, 0
0, 0
0, 0
0, 0
0, 0
0, 0
0, 0
0, 0
0, 0
0, 0
0, 0
0, 0
0, 0
0, 0
0, 0
0, 0
0, 0
0, 0
0, 0
0, 0
0, 0
0, 0
0, 0
0, 0
0, 0
0, 0
0, 0
0, 0
0, 0
0, 0
0, 0
0, 0
0, 0
0, 0
0, 0
0, 0
0, 0
0, 0
0, 0
0, 0
0, 0
0, 0
#ENDOFDATA     end of spectrum data