File: host_upload/06-09-2024/ps_0852/dump3/ps__0852shot_2524.msa
#FORMAT      : EMSA/MAS spectral data file
#VERSION     : TC202v2.0 PIXL
#TITLE       : N/A
#DATE        :       Date in the format DD-MMM-YYYY, for example 07-JUL-2010
#TIME        :             The time of day at which the spectrum was recorded, in 24-hour format
#OWNER       : PIXL Flight Model       (PIXL will use this to indicate which instrument took the data.)
#NPOINTS     : 4096     Number of data points in the spectrum (This can be zero for configuration only files)
#NCOLUMNS    : 2     Number of data columns in the spectrum (This can be zero for configuration only files)
#XUNITS      : eV
#YUNITS      : COUNTS
#DATATYPE    : YY
#XPERCHAN    : 7.862, 7.881   eV per channel (separate by commas if more than one detector)
#OFFSET      : 18.5, -22.4         eV of first channel  (separate by commas if more than one detector
#SIGNALTYPE  : XRF
#YP_TEMP     : 2.364
#LIVETIME    : 8.5446, 8.53877   seconds (separate by commas if more than one detector)
#REALTIME    : 10, 10.0   seconds (separate by commas if more than one detector)
#SPECTRUM    : start of spectrum data
0, 0
0, 0
0, 0
0, 0
0, 0
0, 0
0, 0
0, 0
0, 0
0, 0
0, 0
0, 0
0, 0
0, 0
0, 0
0, 0
0, 0
0, 0
0, 0
0, 0
0, 0
0, 0
0, 0
0, 0
0, 0
0, 0
0, 0
0, 0
0, 0
0, 0
0, 0
0, 0
0, 0
0, 0
0, 0
1, 0
0, 0
1, 0
0, 0
0, 0
0, 0
2, 0
2, 1
1, 0
1, 1
0, 3
3, 3
4, 3
1, 4
8, 11
24, 29
41, 50
65, 49
78, 81
67, 68
72, 80
64, 71
49, 36
33, 22
18, 13
12, 3
2, 6
3, 3
7, 3
2, 9
6, 6
5, 5
10, 14
20, 23
46, 57
106, 88
180, 182
272, 281
339, 394
411, 455
446, 434
380, 334
274, 294
219, 185
128, 110
55, 66
34, 44
19, 16
5, 8
5, 3
1, 3
5, 2
2, 0
1, 2
0, 1
1, 1
1, 0
4, 3
2, 2
1, 3
4, 1
5, 4
3, 4
6, 11
11, 8
6, 7
4, 7
10, 4
11, 4
7, 6
10, 5
11, 3
8, 4
8, 3
9, 11
15, 15
14, 9
31, 22
33, 38
38, 19
30, 23
29, 29
27, 30
24, 28
20, 19
20, 18
15, 24
14, 12
12, 15
11, 9
10, 23
11, 6
10, 9
9, 6
3, 8
4, 4
4, 2
3, 3
2, 4
0, 1
2, 1
2, 1
2, 1
1, 1
2, 1
2, 2
0, 2
1, 2
2, 2
2, 3
3, 4
2, 2
1, 0
2, 0
3, 1
3, 1
3, 3
3, 6
6, 4
11, 17
14, 12
11, 11
16, 17
22, 11
21, 10
8, 12
10, 11
11, 4
5, 6
3, 4
2, 3
3, 3
4, 5
3, 0
1, 6
7, 6
6, 2
3, 5
5, 4
2, 5
5, 5
2, 1
1, 3
1, 1
2, 2
5, 3
2, 1
1, 3
3, 2
7, 2
0, 5
5, 4
5, 5
4, 5
7, 8
7, 11
9, 4
10, 10
8, 8
16, 12
12, 11
14, 10
11, 20
13, 11
15, 10
8, 13
11, 11
5, 11
8, 7
4, 2
3, 2
4, 3
5, 3
0, 4
5, 4
5, 10
5, 6
8, 6
6, 8
4, 4
3, 2
1, 4
5, 4
2, 1
4, 2
4, 4
4, 4
4, 8
8, 4
12, 8
17, 3
18, 13
28, 10
43, 18
47, 7
82, 9
98, 12
105, 8
119, 4
123, 5
115, 7
76, 13
79, 7
47, 6
21, 5
19, 7
15, 3
16, 11
5, 9
19, 18
18, 27
40, 23
61, 35
69, 35
102, 66
88, 51
95, 43
103, 50
84, 44
89, 43
56, 11
57, 22
40, 18
39, 21
35, 17
27, 17
27, 28
49, 42
86, 106
149, 192
273, 351
459, 594
813, 932
1151, 1369
1592, 1780
2022, 2134
2302, 2507
2510, 2411
2364, 2281
2048, 1913
1767, 1489
1266, 1048
864, 730
534, 433
319, 230
175, 144
95, 76
50, 26
29, 25
17, 13
9, 18
16, 10
14, 19
11, 14
14, 20
18, 23
33, 32
43, 44
65, 70
98, 128
141, 186
204, 222
265, 269
310, 361
355, 346
319, 358
352, 363
274, 263
227, 206
192, 164
135, 98
78, 71
49, 35
38, 33
13, 16
20, 7
3, 6
4, 3
5, 6
8, 8
13, 8
7, 15
15, 10
14, 17
10, 7
12, 6
8, 7
7, 13
9, 6
4, 7
6, 7
4, 7
5, 5
6, 5
2, 11
7, 6
5, 10
3, 7
7, 9
6, 13
5, 11
6, 12
12, 8
15, 8
9, 6
3, 4
6, 2
8, 1
7, 4
4, 2
8, 6
4, 5
3, 3
7, 5
8, 6
5, 6
2, 7
6, 3
5, 4
9, 6
11, 5
6, 0
13, 1
5, 4
11, 4
11, 6
11, 2
11, 3
9, 5
9, 3
2, 1
4, 0
8, 5
5, 8
7, 3
5, 4
10, 5
11, 3
16, 5
9, 0
23, 4
28, 2
29, 3
23, 3
30, 5
38, 7
23, 8
18, 16
9, 11
13, 12
12, 13
14, 13
10, 7
4, 6
4, 6
6, 5
6, 1
4, 4
3, 3
1, 1
4, 7
5, 1
6, 1
7, 2
6, 3
4, 4
4, 2
5, 6
9, 3
3, 4
4, 4
5, 7
3, 4
2, 0
6, 8
2, 6
0, 5
2, 8
6, 5
4, 5
2, 3
1, 4
1, 4
3, 2
2, 1
7, 5
3, 1
6, 5
3, 6
4, 3
7, 7
2, 2
3, 1
4, 1
0, 3
1, 2
3, 3
6, 2
1, 5
4, 4
0, 2
2, 5
3, 4
3, 1
1, 2
1, 3
5, 2
2, 5
3, 3
4, 3
1, 2
5, 2
2, 4
3, 2
5, 1
2, 2
1, 1
4, 3
5, 3
1, 5
2, 4
3, 2
3, 1
2, 1
5, 5
2, 2
5, 2
7, 3
6, 2
7, 2
3, 2
4, 3
10, 4
9, 2
5, 2
6, 2
6, 5
7, 3
4, 1
1, 2
2, 2
3, 3
2, 0
2, 2
1, 1
3, 1
2, 3
2, 2
2, 2
3, 1
0, 3
2, 3
2, 2
3, 1
1, 4
2, 4
1, 1
2, 2
0, 6
2, 2
1, 2
2, 4
4, 3
3, 6
2, 2
2, 7
0, 4
4, 8
0, 4
1, 4
2, 3
1, 3
2, 1
1, 5
1, 1
1, 3
3, 2
5, 1
1, 4
0, 2
3, 0
3, 1
1, 3
6, 2
2, 2
3, 3
1, 4
1, 1
2, 1
3, 4
0, 6
3, 5
2, 6
4, 3
4, 4
3, 1
1, 1
2, 2
1, 1
3, 1
3, 3
2, 3
4, 1
4, 4
2, 5
4, 3
5, 4
4, 5
2, 4
5, 2
0, 9
3, 2
1, 2
3, 4
2, 0
1, 1
4, 2
0, 5
0, 1
1, 2
3, 1
1, 2
1, 0
1, 1
0, 0
2, 2
4, 0
2, 3
3, 0
2, 1
0, 2
2, 3
2, 2
2, 2
1, 5
5, 1
2, 1
2, 1
3, 1
0, 0
0, 2
1, 1
0, 1
0, 0
1, 0
1, 1
3, 2
0, 0
0, 1
2, 1
1, 1
0, 0
1, 1
2, 0
0, 1
0, 1
0, 0
1, 1
0, 0
0, 1
0, 0
1, 1
3, 2
1, 0
0, 0
0, 2
3, 3
1, 1
1, 1
1, 1
1, 2
0, 1
0, 0
1, 1
0, 0
0, 0
1, 1
0, 0
1, 1
0, 1
0, 1
1, 1
1, 0
1, 1
2, 0
0, 0
2, 4
1, 2
2, 0
2, 1
0, 1
1, 2
2, 1
0, 0
0, 1
1, 1
0, 0
0, 3
2, 0
2, 2
3, 1
1, 1
1, 0
1, 1
0, 1
2, 1
1, 2
0, 1
0, 0
1, 0
3, 0
0, 0
2, 1
0, 1
0, 0
0, 0
1, 1
2, 1
0, 0
1, 2
1, 0
1, 0
1, 0
0, 1
0, 0
1, 1
1, 0
1, 0
0, 0
0, 0
0, 0
1, 0
0, 2
0, 1
0, 1
0, 2
0, 1
1, 2
1, 2
2, 0
1, 0
2, 0
0, 0
0, 0
0, 0
0, 0
2, 0
0, 0
1, 0
0, 1
1, 0
0, 0
1, 2
0, 0
0, 1
0, 0
0, 0
0, 0
1, 1
0, 0
0, 0
0, 0
0, 0
1, 0
1, 0
1, 0
1, 0
0, 2
0, 0
0, 0
0, 1
0, 1
0, 0
0, 0
0, 0
0, 1
1, 0
1, 0
0, 0
1, 2
1, 0
0, 1
1, 0
1, 0
0, 0
0, 3
0, 0
0, 1
0, 1
0, 0
3, 1
0, 0
1, 1
1, 1
1, 0
0, 0
0, 0
1, 0
1, 1
0, 0
0, 2
0, 0
1, 0
0, 0
1, 2
0, 0
0, 0
0, 0
0, 0
0, 0
0, 0
0, 0
0, 0
0, 0
0, 1
0, 0
0, 1
0, 1
1, 1
1, 0
0, 0
2, 1
0, 0
0, 0
0, 0
0, 0
0, 0
1, 0
0, 0
0, 1
0, 0
1, 0
0, 0
0, 1
0, 0
0, 0
0, 0
1, 1
0, 0
1, 0
0, 0
0, 0
0, 0
0, 0
0, 1
0, 0
2, 0
0, 0
0, 0
1, 1
1, 0
0, 1
0, 1
0, 0
0, 0
1, 1
0, 0
0, 0
1, 1
0, 2
0, 0
1, 0
0, 0
0, 0
0, 0
0, 1
0, 0
0, 0
1, 1
0, 1
1, 0
0, 0
1, 0
0, 0
0, 1
0, 0
0, 0
0, 1
1, 0
1, 0
0, 1
0, 0
0, 2
0, 0
0, 0
0, 0
0, 1
0, 0
0, 1
0, 0
0, 0
1, 0
0, 0
1, 0
0, 0
0, 0
0, 0
0, 0
0, 0
0, 0
0, 0
0, 1
0, 0
0, 0
0, 0
0, 0
0, 0
0, 0
0, 0
0, 0
0, 1
0, 1
0, 0
0, 0
0, 1
0, 0
0, 0
0, 0
0, 1
0, 0
0, 0
0, 0
1, 0
0, 0
0, 0
0, 0
0, 0
0, 0
0, 1
0, 0
0, 0
0, 0
0, 0
0, 0
0, 0
0, 0
0, 0
0, 0
0, 0
0, 0
0, 0
0, 0
0, 0
0, 0
0, 0
0, 0
0, 0
0, 0
0, 0
0, 0
0, 0
0, 0
0, 0
0, 1
1, 0
0, 0
0, 0
0, 0
0, 0
0, 0
0, 0
0, 0
0, 0
0, 0
0, 0
1, 1
0, 0
0, 0
0, 0
0, 1
0, 0
0, 0
0, 0
0, 0
0, 0
0, 0
0, 0
1, 0
0, 0
0, 0
0, 0
0, 0
0, 0
0, 0
0, 0
0, 0
0, 1
0, 0
0, 0
0, 0
0, 0
0, 0
0, 0
0, 0
0, 0
0, 0
0, 0
0, 0
0, 0
1, 0
0, 0
0, 0
0, 0
0, 0
0, 0
0, 0
0, 0
0, 0
0, 0
0, 0
0, 0
0, 0
0, 0
0, 0
0, 0
0, 0
0, 0
0, 0
1, 0
0, 0
0, 0
0, 0
0, 0
0, 0
0, 0
0, 0
0, 0
0, 0
0, 0
0, 0
0, 1
1, 0
0, 0
0, 0
0, 0
0, 0
0, 0
0, 0
0, 0
0, 0
0, 0
0, 0
0, 0
0, 0
0, 0
0, 0
0, 0
0, 0
0, 0
0, 0
0, 0
0, 0
0, 0
0, 0
0, 0
0, 0
0, 0
0, 0
0, 0
0, 0
0, 0
0, 0
0, 0
0, 0
0, 0
0, 0
0, 0
0, 0
0, 0
0, 0
0, 0
0, 0
0, 0
0, 0
0, 0
0, 0
0, 0
0, 0
0, 0
0, 0
0, 0
0, 0
0, 0
0, 0
0, 0
0, 0
0, 0
0, 0
0, 0
1, 0
0, 0
0, 0
0, 0
0, 0
0, 0
0, 0
0, 0
0, 0
0, 0
0, 0
0, 0
0, 0
0, 0
0, 0
0, 0
0, 0
0, 0
0, 0
0, 0
0, 0
0, 0
0, 0
0, 0
0, 0
0, 0
0, 0
0, 0
0, 0
0, 0
0, 0
0, 0
0, 0
0, 0
0, 0
0, 0
0, 0
0, 0
0, 0
0, 0
0, 0
0, 0
0, 0
0, 0
0, 0
0, 0
0, 0
0, 0
0, 0
0, 0
0, 0
0, 0
0, 0
0, 0
0, 0
0, 0
0, 0
0, 0
0, 0
0, 0
0, 0
0, 0
0, 0
0, 0
0, 0
0, 0
0, 0
0, 0
0, 0
0, 0
0, 0
0, 0
0, 0
0, 0
0, 0
0, 0
0, 0
0, 0
0, 0
0, 0
0, 0
0, 0
0, 0
0, 0
0, 0
0, 0
0, 0
0, 0
0, 0
0, 0
0, 0
0, 0
0, 0
0, 0
0, 0
0, 0
0, 0
0, 0
0, 0
0, 0
0, 0
0, 0
0, 0
0, 0
0, 0
0, 0
0, 0
0, 0
0, 0
0, 0
0, 0
0, 0
0, 0
0, 0
0, 0
0, 0
0, 0
0, 0
0, 0
0, 0
0, 0
0, 0
0, 0
0, 0
0, 0
0, 0
0, 0
0, 0
0, 0
0, 0
0, 0
0, 0
0, 0
0, 0
0, 0
0, 0
0, 0
0, 0
0, 0
0, 0
0, 0
0, 0
0, 0
0, 0
0, 0
0, 0
0, 0
0, 0
0, 0
0, 0
0, 0
0, 0
0, 0
0, 0
0, 0
0, 0
0, 0
0, 0
0, 0
0, 0
0, 0
0, 0
0, 0
0, 0
0, 0
0, 0
0, 0
0, 0
0, 0
0, 0
0, 0
0, 0
0, 0
0, 0
0, 0
0, 0
0, 0
0, 0
0, 0
0, 0
0, 0
0, 0
0, 0
0, 0
0, 0
0, 0
0, 0
0, 0
0, 0
0, 0
0, 0
0, 0
0, 0
0, 0
0, 0
0, 0
0, 0
0, 0
0, 0
0, 0
0, 0
0, 0
0, 0
0, 0
0, 0
0, 0
0, 0
0, 0
0, 0
0, 0
0, 0
0, 0
0, 0
0, 0
0, 0
0, 0
0, 0
0, 0
0, 0
0, 0
0, 0
0, 0
0, 0
0, 0
0, 0
0, 0
0, 0
0, 0
0, 0
0, 0
0, 0
0, 0
0, 0
0, 0
0, 0
0, 0
0, 0
0, 0
0, 0
0, 0
0, 0
0, 0
0, 0
0, 0
0, 0
0, 0
0, 0
0, 0
0, 0
0, 0
0, 0
0, 0
0, 0
0, 0
0, 0
0, 0
0, 0
0, 0
0, 0
0, 0
0, 0
0, 0
0, 0
0, 0
0, 0
0, 0
0, 0
0, 0
0, 0
0, 0
0, 0
0, 0
0, 0
0, 0
0, 0
0, 0
0, 0
0, 0
0, 0
0, 0
0, 0
0, 0
0, 0
0, 0
0, 0
0, 0
0, 0
0, 0
0, 0
0, 0
0, 0
0, 0
0, 0
0, 0
0, 0
0, 0
0, 0
0, 0
0, 0
0, 0
0, 0
0, 0
0, 0
0, 0
0, 0
0, 0
0, 0
0, 0
0, 0
0, 0
0, 0
0, 0
0, 0
0, 0
0, 0
0, 0
0, 0
0, 0
0, 0
0, 0
0, 0
0, 0
0, 0
0, 0
0, 0
0, 0
0, 0
0, 0
0, 0
0, 0
0, 0
0, 0
0, 0
0, 0
0, 0
0, 0
0, 0
0, 0
0, 0
0, 0
0, 0
0, 0
#ENDOFDATA     end of spectrum data