File: host_upload/06-09-2024/ps_0852/dump3/ps__0852shot_2451.msa
#FORMAT      : EMSA/MAS spectral data file
#VERSION     : TC202v2.0 PIXL
#TITLE       : N/A
#DATE        :       Date in the format DD-MMM-YYYY, for example 07-JUL-2010
#TIME        :             The time of day at which the spectrum was recorded, in 24-hour format
#OWNER       : PIXL Flight Model       (PIXL will use this to indicate which instrument took the data.)
#NPOINTS     : 4096     Number of data points in the spectrum (This can be zero for configuration only files)
#NCOLUMNS    : 2     Number of data columns in the spectrum (This can be zero for configuration only files)
#XUNITS      : eV
#YUNITS      : COUNTS
#DATATYPE    : YY
#XPERCHAN    : 7.862, 7.881   eV per channel (separate by commas if more than one detector)
#OFFSET      : 18.5, -22.4         eV of first channel  (separate by commas if more than one detector
#SIGNALTYPE  : XRF
#YP_TEMP     : 2.267
#LIVETIME    : 8.56415, 8.55665   seconds (separate by commas if more than one detector)
#REALTIME    : 10, 10.0   seconds (separate by commas if more than one detector)
#SPECTRUM    : start of spectrum data
0, 0
0, 0
0, 0
0, 0
0, 0
0, 0
0, 0
0, 0
0, 0
0, 0
0, 0
0, 0
0, 0
0, 0
0, 0
0, 0
0, 0
0, 0
0, 0
0, 0
0, 0
0, 0
0, 0
0, 0
0, 0
0, 0
0, 0
0, 0
0, 0
0, 0
0, 0
0, 0
0, 0
0, 0
0, 1
1, 0
0, 1
1, 0
0, 2
1, 0
1, 1
2, 2
5, 2
0, 0
1, 2
3, 2
2, 4
2, 5
5, 5
11, 12
16, 26
39, 46
49, 60
68, 63
70, 60
69, 67
44, 44
39, 47
25, 16
9, 11
3, 8
3, 5
4, 3
7, 3
4, 1
7, 8
3, 7
13, 14
23, 17
49, 50
83, 90
163, 213
235, 276
364, 361
377, 442
413, 464
379, 382
268, 308
189, 202
118, 136
59, 78
37, 29
20, 24
8, 7
5, 5
1, 4
3, 3
0, 3
2, 1
1, 2
5, 3
3, 4
9, 9
10, 9
18, 22
35, 22
44, 49
55, 63
75, 85
96, 84
68, 74
57, 37
33, 28
30, 21
10, 16
10, 10
14, 9
15, 13
17, 15
20, 18
21, 23
29, 31
43, 32
43, 44
53, 50
37, 40
47, 45
39, 40
34, 32
26, 32
25, 21
24, 21
22, 18
17, 22
19, 16
16, 7
13, 7
10, 13
11, 7
7, 5
9, 3
4, 4
9, 5
4, 4
4, 4
0, 2
3, 2
2, 2
2, 3
1, 2
2, 2
2, 1
3, 5
2, 4
2, 2
7, 1
3, 4
3, 4
1, 2
5, 6
3, 3
5, 3
4, 4
8, 2
5, 7
9, 8
10, 10
7, 8
13, 10
11, 11
3, 10
4, 9
3, 9
6, 13
2, 23
3, 24
1, 18
3, 21
7, 27
7, 16
7, 12
17, 3
17, 9
29, 3
22, 3
39, 6
28, 1
36, 4
34, 3
17, 1
18, 1
13, 2
6, 1
7, 5
3, 1
4, 0
3, 5
11, 7
5, 6
12, 4
6, 5
9, 11
8, 6
7, 10
10, 13
19, 8
20, 7
17, 19
19, 17
21, 14
20, 10
22, 10
11, 10
16, 9
7, 7
9, 5
4, 3
6, 4
4, 9
4, 7
2, 12
6, 6
7, 6
4, 5
6, 6
4, 7
5, 5
7, 4
1, 7
5, 2
7, 7
8, 8
8, 4
14, 3
5, 2
12, 11
11, 10
14, 15
13, 15
17, 11
10, 11
16, 6
8, 9
9, 10
11, 9
11, 15
11, 4
4, 6
4, 7
7, 11
7, 12
7, 8
6, 10
11, 16
8, 21
18, 16
18, 33
36, 35
45, 56
50, 56
69, 56
46, 60
70, 72
65, 48
59, 36
38, 27
38, 26
33, 13
31, 16
34, 18
42, 16
30, 26
45, 57
91, 88
156, 195
265, 360
469, 603
710, 944
1104, 1343
1522, 1732
1919, 2139
2227, 2376
2388, 2343
2241, 2292
2129, 1876
1560, 1546
1266, 1121
854, 653
548, 413
307, 271
183, 142
81, 106
49, 69
37, 52
24, 72
18, 64
19, 68
14, 80
14, 64
11, 58
22, 52
22, 45
37, 85
48, 111
97, 138
147, 188
200, 210
229, 293
296, 307
334, 364
323, 375
305, 347
288, 287
239, 221
185, 178
121, 106
79, 76
47, 42
24, 24
17, 13
11, 13
9, 11
8, 10
6, 15
18, 12
17, 15
17, 15
15, 15
12, 18
8, 5
9, 4
9, 7
13, 5
12, 5
5, 8
2, 3
3, 3
5, 3
5, 8
1, 7
2, 4
3, 4
3, 7
1, 11
3, 0
5, 4
7, 8
6, 2
4, 1
2, 4
8, 1
10, 5
5, 4
11, 3
16, 3
6, 2
21, 2
16, 6
27, 7
17, 4
17, 1
25, 7
16, 9
13, 4
13, 1
13, 6
9, 3
7, 3
3, 7
0, 6
6, 3
4, 7
6, 6
3, 6
5, 12
5, 11
7, 8
3, 7
4, 7
5, 6
6, 3
3, 8
7, 3
3, 11
5, 4
3, 8
3, 3
1, 4
1, 2
1, 4
4, 4
4, 5
2, 2
4, 4
4, 4
2, 4
3, 4
5, 4
4, 1
8, 3
2, 1
1, 3
9, 4
4, 2
9, 5
4, 5
5, 5
10, 3
12, 4
5, 2
5, 3
8, 6
8, 3
4, 2
1, 7
3, 3
7, 2
5, 2
6, 3
8, 5
7, 5
6, 4
7, 11
3, 6
5, 11
5, 15
4, 13
3, 17
2, 19
4, 24
2, 21
4, 19
2, 11
2, 9
4, 11
2, 9
0, 9
3, 5
2, 6
3, 5
4, 7
3, 5
2, 4
1, 3
5, 7
4, 4
3, 4
4, 3
1, 3
2, 1
1, 3
2, 0
4, 2
4, 2
4, 4
4, 2
8, 3
4, 5
1, 1
2, 2
2, 4
6, 0
3, 3
3, 6
1, 3
2, 4
2, 2
3, 3
1, 3
5, 1
1, 4
3, 2
7, 2
7, 4
5, 5
3, 2
2, 3
2, 3
4, 2
3, 2
5, 5
5, 6
1, 2
3, 3
1, 2
4, 4
2, 1
2, 5
2, 5
1, 4
2, 3
1, 4
1, 1
1, 4
0, 1
4, 2
2, 1
3, 2
1, 2
4, 4
0, 3
2, 0
2, 1
2, 2
3, 4
0, 5
2, 4
1, 2
1, 5
2, 1
3, 2
3, 1
3, 3
1, 2
4, 2
1, 2
1, 2
1, 4
4, 1
2, 2
2, 4
3, 2
5, 1
9, 1
6, 2
4, 4
4, 4
6, 2
3, 0
5, 0
6, 1
6, 1
5, 1
3, 6
3, 2
4, 0
6, 4
3, 1
4, 2
5, 2
1, 2
8, 2
4, 1
2, 2
5, 3
3, 0
1, 5
2, 4
0, 3
2, 1
5, 2
3, 5
4, 6
5, 5
4, 6
4, 4
2, 4
1, 3
1, 1
1, 1
4, 3
2, 1
0, 0
1, 2
3, 3
3, 4
1, 0
2, 3
4, 3
0, 2
2, 0
1, 3
1, 0
2, 1
2, 1
2, 0
2, 0
1, 0
2, 0
2, 2
3, 1
0, 2
1, 3
2, 2
0, 0
4, 2
2, 0
1, 0
3, 1
2, 0
0, 3
3, 3
1, 0
0, 1
1, 1
0, 0
0, 0
4, 1
1, 3
0, 1
2, 0
1, 0
5, 3
1, 0
5, 3
0, 0
0, 0
0, 1
0, 0
0, 3
0, 0
3, 1
3, 2
1, 0
1, 5
0, 0
0, 3
1, 2
1, 2
1, 3
0, 0
0, 0
2, 2
0, 1
0, 0
2, 2
0, 0
0, 2
0, 0
3, 0
0, 3
0, 1
0, 1
2, 2
1, 1
0, 0
1, 0
0, 1
2, 0
2, 1
0, 1
2, 0
0, 1
2, 2
0, 1
0, 0
0, 0
1, 0
1, 0
0, 1
1, 1
0, 0
2, 0
0, 1
1, 2
2, 2
0, 0
3, 1
1, 1
0, 1
0, 0
0, 1
0, 0
1, 0
0, 0
2, 0
0, 0
1, 0
1, 0
0, 0
0, 1
1, 1
1, 1
1, 1
1, 0
0, 0
1, 0
0, 0
2, 0
0, 0
0, 1
0, 1
0, 1
1, 1
0, 0
0, 0
0, 2
1, 0
2, 0
0, 1
0, 1
0, 2
0, 1
0, 0
0, 2
0, 0
1, 2
0, 0
0, 0
0, 0
1, 0
1, 0
0, 1
0, 0
0, 1
1, 0
0, 0
0, 0
0, 0
0, 0
1, 1
0, 0
1, 0
0, 0
0, 0
0, 0
1, 1
1, 0
0, 0
0, 0
1, 0
0, 0
1, 0
0, 0
0, 0
0, 1
0, 0
0, 0
0, 2
1, 0
0, 0
0, 0
0, 0
0, 0
0, 0
0, 0
0, 0
0, 0
3, 0
0, 1
0, 0
1, 1
1, 0
2, 0
0, 0
0, 0
0, 1
0, 1
0, 0
0, 2
1, 1
0, 0
0, 1
0, 1
1, 1
0, 1
0, 0
0, 0
0, 0
0, 0
1, 0
0, 0
1, 0
0, 0
0, 0
0, 0
1, 0
0, 0
0, 0
0, 0
0, 0
0, 0
0, 0
0, 0
0, 0
0, 0
1, 0
0, 0
0, 1
1, 0
0, 1
0, 0
0, 0
0, 0
0, 0
1, 1
0, 0
2, 0
0, 0
0, 0
0, 0
0, 2
0, 1
0, 0
0, 1
0, 0
1, 0
1, 2
1, 0
0, 0
0, 0
1, 0
0, 0
0, 1
0, 0
0, 0
0, 0
0, 0
0, 0
0, 0
0, 1
1, 0
0, 0
0, 0
0, 0
0, 1
0, 0
0, 0
0, 0
0, 1
0, 1
0, 1
0, 0
0, 0
0, 0
0, 0
0, 0
0, 0
0, 0
0, 0
1, 1
1, 0
1, 0
0, 0
0, 0
1, 0
0, 0
0, 0
0, 0
0, 0
0, 0
1, 0
1, 0
0, 0
0, 0
1, 0
0, 0
0, 0
0, 0
0, 0
0, 0
0, 0
0, 1
0, 0
0, 0
0, 0
0, 0
0, 0
0, 0
0, 1
0, 1
0, 0
0, 0
0, 0
0, 0
0, 0
0, 0
1, 0
0, 0
0, 0
0, 0
0, 0
0, 1
0, 0
1, 0
0, 0
0, 0
0, 0
0, 0
0, 0
0, 0
0, 0
0, 0
0, 0
0, 0
0, 1
0, 0
0, 0
0, 0
0, 1
0, 0
0, 0
0, 0
0, 0
0, 0
0, 0
0, 0
0, 0
0, 0
1, 0
0, 0
0, 0
0, 0
0, 0
0, 0
0, 0
0, 0
0, 1
0, 0
0, 0
0, 0
0, 0
0, 0
0, 0
0, 0
0, 0
0, 0
0, 0
0, 0
0, 0
0, 0
0, 0
0, 0
0, 0
0, 0
0, 0
0, 0
0, 0
0, 0
0, 0
1, 0
0, 0
0, 0
0, 0
1, 0
1, 0
0, 0
0, 0
0, 0
0, 0
1, 0
0, 0
0, 0
0, 0
0, 0
0, 1
0, 0
0, 0
0, 0
0, 0
0, 0
0, 0
0, 0
0, 0
1, 0
0, 0
0, 0
0, 0
0, 0
0, 0
0, 0
0, 0
0, 0
0, 1
0, 0
0, 0
0, 1
1, 0
0, 0
0, 0
0, 0
1, 0
0, 0
0, 0
0, 0
0, 0
0, 1
0, 0
0, 0
0, 0
0, 1
0, 0
0, 0
0, 0
0, 0
0, 0
0, 0
0, 0
0, 0
0, 0
0, 0
0, 0
0, 0
0, 0
0, 0
0, 0
0, 0
0, 0
0, 0
0, 0
0, 0
0, 0
0, 0
0, 0
0, 0
0, 0
0, 0
0, 0
0, 0
0, 0
0, 0
0, 0
0, 0
0, 0
0, 0
0, 0
0, 0
0, 0
0, 0
0, 0
0, 0
0, 0
0, 0
0, 0
0, 0
0, 0
0, 1
0, 0
0, 0
0, 0
0, 0
0, 0
0, 0
0, 0
0, 0
0, 0
0, 0
0, 0
0, 0
0, 0
0, 0
0, 0
0, 0
0, 0
0, 0
0, 0
0, 0
0, 0
0, 0
0, 0
0, 0
0, 0
0, 0
0, 0
0, 0
0, 0
0, 0
0, 0
0, 0
0, 0
0, 0
0, 0
0, 0
0, 0
0, 0
0, 0
0, 0
0, 0
0, 0
0, 0
0, 0
0, 0
0, 0
0, 0
0, 0
0, 0
0, 0
0, 0
0, 0
0, 0
0, 0
0, 0
0, 0
0, 0
0, 0
0, 0
0, 0
0, 0
0, 0
0, 0
0, 0
0, 0
0, 0
0, 0
0, 0
0, 0
0, 0
0, 0
0, 0
0, 0
0, 0
0, 0
0, 0
0, 0
0, 0
0, 0
0, 0
0, 0
0, 0
0, 0
0, 0
0, 0
0, 0
0, 0
0, 0
0, 0
0, 0
0, 0
0, 0
0, 0
0, 0
0, 0
0, 0
0, 0
0, 0
0, 0
0, 0
0, 0
0, 0
0, 0
0, 0
0, 0
0, 0
0, 0
0, 0
0, 0
0, 0
0, 0
0, 0
0, 0
0, 0
0, 0
0, 0
0, 0
0, 0
0, 0
0, 0
0, 0
0, 0
0, 0
0, 0
0, 0
0, 0
0, 0
0, 0
0, 0
0, 0
0, 0
0, 0
0, 0
0, 0
0, 0
0, 0
0, 0
0, 0
0, 0
0, 0
0, 0
0, 0
0, 0
0, 0
0, 0
0, 0
0, 0
0, 0
0, 0
0, 0
0, 0
0, 0
0, 0
0, 0
0, 0
0, 0
0, 0
0, 0
0, 0
0, 0
0, 0
0, 0
0, 0
0, 0
0, 0
0, 0
0, 0
0, 0
0, 0
0, 0
0, 0
0, 0
0, 0
0, 0
0, 0
0, 0
0, 0
0, 0
0, 0
0, 0
0, 0
0, 0
0, 0
0, 0
0, 0
0, 0
0, 0
0, 0
0, 0
0, 0
0, 0
0, 0
0, 0
0, 0
0, 0
0, 0
0, 0
0, 0
0, 0
0, 0
0, 0
0, 0
0, 0
0, 0
0, 0
0, 0
0, 0
0, 0
0, 0
0, 0
0, 0
0, 0
0, 0
0, 0
0, 0
0, 0
0, 0
0, 0
0, 0
0, 0
0, 0
0, 0
0, 0
0, 0
0, 0
0, 0
0, 0
0, 0
0, 0
0, 0
0, 0
0, 0
0, 0
0, 0
0, 0
0, 0
0, 0
0, 0
0, 0
0, 0
0, 0
0, 0
0, 0
0, 0
0, 0
0, 0
0, 0
0, 0
0, 0
0, 0
0, 0
0, 0
0, 0
0, 0
0, 0
0, 0
0, 0
0, 0
0, 0
0, 0
0, 0
0, 0
0, 0
0, 0
0, 0
0, 0
0, 0
0, 0
0, 0
0, 0
0, 0
0, 0
0, 0
0, 0
0, 0
0, 0
0, 0
0, 0
0, 0
0, 0
0, 0
0, 0
0, 0
0, 0
0, 0
0, 0
0, 0
0, 0
0, 0
0, 0
0, 0
0, 0
0, 0
0, 0
0, 0
0, 0
0, 0
0, 0
0, 0
0, 0
0, 0
0, 0
0, 0
0, 0
0, 0
0, 0
0, 0
0, 0
0, 0
0, 0
0, 0
0, 0
0, 0
0, 0
0, 0
0, 0
0, 0
0, 0
0, 0
0, 0
0, 0
0, 0
0, 0
0, 0
0, 0
0, 0
0, 0
0, 0
0, 0
0, 0
0, 0
0, 0
0, 0
0, 0
0, 0
0, 0
0, 0
0, 0
0, 0
0, 0
0, 0
0, 0
0, 0
0, 0
0, 0
0, 0
0, 0
0, 0
0, 0
#ENDOFDATA     end of spectrum data