File: host_upload/06-09-2024/ps_0852/dump3/ps__0852shot_2571.msa
#FORMAT      : EMSA/MAS spectral data file
#VERSION     : TC202v2.0 PIXL
#TITLE       : N/A
#DATE        :       Date in the format DD-MMM-YYYY, for example 07-JUL-2010
#TIME        :             The time of day at which the spectrum was recorded, in 24-hour format
#OWNER       : PIXL Flight Model       (PIXL will use this to indicate which instrument took the data.)
#NPOINTS     : 4096     Number of data points in the spectrum (This can be zero for configuration only files)
#NCOLUMNS    : 2     Number of data columns in the spectrum (This can be zero for configuration only files)
#XUNITS      : eV
#YUNITS      : COUNTS
#DATATYPE    : YY
#XPERCHAN    : 7.862, 7.881   eV per channel (separate by commas if more than one detector)
#OFFSET      : 18.5, -22.4         eV of first channel  (separate by commas if more than one detector
#SIGNALTYPE  : XRF
#YP_TEMP     : 2.46
#LIVETIME    : 8.56097, 8.56555   seconds (separate by commas if more than one detector)
#REALTIME    : 10, 10.0   seconds (separate by commas if more than one detector)
#SPECTRUM    : start of spectrum data
0, 0
0, 0
0, 0
0, 0
0, 0
0, 0
0, 0
0, 0
0, 0
0, 0
0, 0
0, 0
0, 0
0, 0
0, 0
0, 0
0, 0
0, 0
0, 0
0, 0
0, 0
0, 0
0, 0
0, 0
0, 0
0, 0
0, 0
0, 0
0, 0
0, 0
0, 0
0, 0
0, 1
0, 0
0, 0
2, 0
1, 0
2, 0
1, 0
0, 1
0, 2
2, 3
1, 2
1, 1
2, 2
1, 3
3, 0
3, 6
9, 5
12, 8
24, 27
49, 31
43, 53
78, 67
88, 75
63, 69
49, 55
38, 49
24, 25
20, 11
6, 5
5, 4
5, 2
3, 2
6, 3
3, 4
5, 4
9, 6
14, 24
45, 47
119, 89
178, 172
271, 287
368, 399
421, 436
420, 432
385, 378
281, 266
213, 176
128, 109
71, 50
27, 27
23, 13
10, 2
6, 1
3, 3
1, 2
2, 2
2, 3
0, 0
2, 1
1, 1
0, 1
1, 1
7, 2
6, 1
9, 4
4, 2
10, 7
11, 7
7, 5
11, 7
3, 1
4, 3
3, 4
7, 4
11, 7
7, 12
13, 13
21, 10
19, 25
41, 33
41, 41
61, 52
56, 45
47, 56
42, 70
43, 41
45, 48
33, 37
25, 37
23, 32
25, 14
23, 22
18, 24
19, 17
10, 19
10, 14
10, 13
3, 2
3, 7
6, 6
4, 2
4, 3
3, 5
5, 3
0, 1
1, 1
3, 2
2, 1
2, 2
4, 4
4, 0
3, 2
3, 1
5, 1
2, 1
2, 6
2, 3
2, 5
3, 5
2, 6
6, 6
8, 16
9, 21
8, 17
16, 23
17, 24
18, 21
17, 26
8, 13
8, 14
5, 10
3, 8
3, 9
2, 4
2, 2
5, 1
5, 2
3, 9
6, 3
5, 6
4, 4
8, 2
6, 7
4, 8
4, 9
5, 7
7, 2
6, 9
6, 12
5, 12
5, 6
1, 3
7, 5
5, 7
5, 3
5, 5
7, 5
5, 5
4, 9
16, 10
11, 7
19, 9
13, 16
17, 13
14, 16
16, 19
10, 19
15, 14
16, 18
16, 12
10, 8
10, 15
9, 8
5, 10
10, 11
6, 18
5, 9
4, 28
5, 23
4, 38
6, 36
3, 41
7, 29
10, 32
8, 28
7, 37
11, 18
13, 14
13, 20
12, 15
9, 14
15, 13
7, 11
10, 10
15, 12
19, 17
24, 26
29, 31
38, 48
30, 22
30, 41
26, 22
27, 15
25, 21
15, 18
8, 15
20, 13
13, 9
15, 12
13, 13
22, 5
21, 10
22, 12
40, 24
38, 34
39, 44
55, 47
51, 51
74, 69
70, 60
60, 58
70, 46
56, 37
39, 26
25, 22
23, 26
26, 23
15, 22
24, 30
24, 22
45, 46
87, 97
156, 215
278, 354
520, 587
829, 972
1106, 1397
1667, 1804
2050, 2158
2430, 2493
2415, 2466
2463, 2347
2229, 2046
1800, 1494
1379, 1088
945, 709
617, 432
311, 293
202, 105
109, 66
60, 34
32, 24
15, 20
22, 19
17, 20
11, 14
28, 17
22, 25
27, 34
39, 40
65, 64
82, 88
118, 139
136, 159
235, 244
247, 274
326, 308
384, 354
354, 362
380, 366
296, 325
274, 218
193, 160
134, 120
101, 62
58, 44
24, 17
13, 14
10, 7
7, 12
13, 18
11, 18
15, 20
16, 31
16, 29
16, 29
20, 33
15, 29
14, 28
12, 24
14, 37
3, 31
7, 14
11, 18
4, 10
5, 10
6, 12
10, 4
5, 7
6, 6
10, 9
15, 2
7, 2
9, 4
7, 1
6, 7
7, 2
7, 6
7, 5
9, 5
6, 5
5, 5
11, 6
9, 5
5, 1
6, 4
9, 7
6, 7
6, 7
9, 4
4, 7
6, 6
3, 5
0, 0
5, 9
2, 3
5, 2
4, 4
6, 6
9, 4
9, 4
6, 8
3, 2
5, 1
7, 3
5, 2
8, 5
5, 3
4, 6
3, 6
4, 3
9, 2
7, 4
1, 5
4, 7
6, 3
7, 3
4, 4
7, 4
5, 10
4, 4
2, 7
7, 5
6, 4
3, 6
5, 5
11, 2
7, 8
12, 5
10, 3
11, 3
8, 2
4, 3
7, 1
6, 3
14, 0
6, 2
3, 2
8, 4
4, 2
3, 5
3, 4
1, 2
2, 4
0, 4
5, 5
1, 4
1, 3
6, 5
4, 8
2, 7
10, 4
5, 1
5, 6
2, 2
4, 4
7, 3
1, 4
2, 5
4, 5
8, 4
3, 9
1, 1
7, 4
4, 5
2, 1
4, 4
2, 4
3, 6
4, 5
2, 5
2, 3
1, 10
1, 8
2, 11
2, 11
1, 11
1, 7
3, 5
3, 9
1, 1
4, 2
2, 10
2, 5
2, 3
3, 3
2, 2
2, 3
3, 3
5, 0
4, 4
0, 3
3, 5
1, 6
4, 0
1, 2
6, 4
3, 3
5, 1
5, 2
6, 1
2, 3
3, 1
4, 1
2, 4
2, 3
1, 0
3, 7
1, 3
1, 2
1, 2
2, 2
2, 0
3, 1
5, 1
5, 1
1, 2
3, 0
2, 0
2, 4
2, 2
4, 4
4, 3
5, 2
4, 3
3, 3
1, 1
2, 1
3, 2
0, 4
3, 3
6, 2
1, 3
3, 0
2, 0
3, 3
6, 3
4, 2
1, 2
3, 3
3, 3
1, 1
4, 1
0, 1
5, 4
1, 1
1, 2
1, 0
0, 0
3, 4
3, 1
2, 2
0, 6
3, 1
0, 5
6, 2
3, 3
0, 1
2, 1
1, 3
1, 1
3, 1
3, 2
2, 1
3, 1
2, 0
7, 5
7, 2
0, 1
4, 1
2, 0
5, 3
3, 1
2, 4
2, 4
3, 6
9, 3
9, 6
4, 5
5, 3
9, 6
3, 2
9, 3
3, 5
3, 7
2, 3
4, 1
1, 1
2, 0
2, 2
4, 4
2, 2
0, 1
3, 1
1, 1
0, 3
1, 0
1, 3
1, 1
0, 3
0, 1
1, 0
3, 4
5, 0
3, 1
4, 1
3, 4
3, 1
1, 2
1, 1
0, 1
1, 2
3, 1
0, 1
0, 3
0, 2
4, 1
0, 0
1, 2
0, 1
2, 1
3, 4
0, 1
1, 2
1, 0
0, 0
1, 3
1, 2
2, 3
1, 0
2, 2
0, 0
2, 1
0, 0
0, 0
0, 1
0, 0
2, 2
1, 2
2, 0
3, 0
3, 2
2, 1
1, 1
1, 1
1, 2
0, 1
1, 1
0, 1
2, 1
0, 0
1, 0
2, 0
0, 1
1, 0
0, 2
0, 0
0, 2
2, 2
3, 0
1, 1
0, 0
0, 2
0, 2
0, 0
0, 1
2, 0
1, 0
3, 1
1, 1
1, 1
0, 1
0, 0
2, 0
0, 0
2, 1
1, 0
0, 1
1, 1
2, 0
0, 3
0, 0
1, 0
0, 2
1, 0
0, 0
0, 1
0, 0
1, 0
2, 1
1, 0
0, 0
0, 1
0, 0
0, 1
1, 0
1, 0
4, 1
0, 0
0, 1
0, 1
1, 1
0, 1
1, 1
1, 0
0, 0
0, 1
0, 0
0, 0
0, 0
0, 0
1, 1
1, 1
1, 0
0, 2
0, 1
1, 2
0, 1
0, 1
3, 0
0, 0
0, 0
0, 0
1, 1
0, 0
0, 0
0, 0
0, 0
1, 0
1, 0
2, 0
0, 1
1, 0
1, 1
0, 0
1, 1
0, 0
0, 1
2, 0
1, 1
0, 0
0, 0
0, 0
0, 1
0, 1
2, 1
0, 1
1, 0
1, 1
1, 0
1, 0
0, 1
0, 0
1, 1
0, 0
0, 0
0, 1
0, 1
0, 1
0, 0
1, 1
0, 0
0, 1
0, 0
0, 0
2, 0
0, 0
2, 0
0, 0
0, 0
0, 0
0, 0
1, 0
0, 0
0, 2
1, 0
0, 0
0, 0
0, 1
1, 0
0, 0
0, 0
0, 0
0, 0
0, 0
0, 0
0, 0
0, 0
0, 0
0, 1
0, 0
0, 1
0, 0
0, 0
0, 0
0, 1
0, 0
0, 0
0, 0
0, 0
0, 0
0, 1
0, 0
0, 0
0, 1
0, 1
1, 0
0, 0
0, 0
1, 0
0, 0
0, 0
0, 1
0, 1
1, 0
0, 0
0, 0
1, 0
0, 0
0, 1
1, 2
1, 0
0, 1
0, 0
0, 1
0, 0
0, 0
1, 1
0, 0
0, 0
1, 1
1, 0
0, 1
0, 0
0, 0
0, 0
2, 0
0, 1
0, 0
0, 0
1, 0
0, 0
1, 0
0, 0
0, 0
0, 1
0, 0
1, 2
0, 0
1, 0
1, 0
0, 0
0, 0
0, 0
0, 0
0, 0
0, 0
0, 0
0, 2
0, 1
0, 0
0, 0
1, 0
0, 0
1, 0
0, 0
2, 0
0, 0
0, 0
1, 0
0, 1
0, 0
0, 0
0, 0
1, 1
0, 0
0, 0
0, 0
0, 0
0, 0
0, 0
0, 0
0, 0
0, 0
0, 1
0, 1
0, 0
0, 0
0, 0
0, 0
1, 0
0, 0
1, 0
0, 0
0, 0
1, 0
0, 0
0, 0
0, 0
0, 0
0, 0
0, 0
0, 0
0, 0
0, 0
0, 0
0, 0
0, 0
0, 0
0, 0
0, 0
0, 0
0, 0
0, 0
1, 0
0, 0
1, 0
0, 1
0, 0
0, 0
0, 0
0, 1
0, 0
0, 0
0, 0
0, 0
0, 0
0, 0
0, 1
0, 0
1, 0
1, 0
0, 0
0, 0
0, 0
1, 0
0, 0
0, 0
0, 0
0, 0
0, 0
0, 0
0, 0
1, 0
0, 0
0, 0
0, 0
0, 0
0, 0
0, 0
0, 0
0, 0
0, 0
0, 0
0, 0
0, 0
0, 0
0, 0
0, 0
0, 0
0, 0
0, 0
0, 0
0, 0
0, 0
0, 0
0, 0
0, 0
0, 0
0, 0
0, 0
0, 0
0, 0
0, 0
0, 0
0, 0
0, 0
0, 0
0, 0
0, 0
0, 0
0, 0
0, 0
0, 0
0, 0
0, 0
0, 0
0, 0
0, 0
0, 0
0, 0
0, 1
0, 0
0, 0
0, 0
0, 0
0, 0
0, 0
0, 0
0, 0
0, 0
0, 0
0, 0
0, 0
0, 0
0, 0
0, 0
0, 0
0, 0
0, 0
0, 0
0, 0
0, 0
0, 0
0, 0
0, 0
0, 0
0, 0
0, 0
0, 0
0, 0
0, 0
0, 0
0, 0
0, 0
0, 0
0, 0
0, 0
0, 0
0, 0
0, 0
0, 0
0, 0
0, 0
0, 0
0, 0
0, 0
0, 0
0, 0
0, 0
0, 0
0, 0
0, 0
0, 0
0, 0
0, 0
0, 0
0, 0
0, 0
0, 0
0, 0
0, 0
0, 0
0, 0
0, 0
0, 0
0, 0
0, 0
0, 0
0, 0
0, 0
0, 0
0, 0
0, 0
1, 0
0, 0
0, 0
0, 0
0, 0
0, 0
0, 0
0, 0
0, 0
0, 0
0, 0
0, 0
0, 0
0, 0
0, 0
0, 0
0, 0
0, 0
0, 0
0, 0
0, 0
0, 0
0, 0
0, 0
0, 0
0, 0
0, 0
0, 0
0, 0
0, 0
0, 0
0, 0
0, 0
0, 0
0, 0
0, 0
0, 0
0, 0
0, 0
0, 0
0, 0
0, 0
0, 0
0, 0
0, 0
0, 0
0, 0
0, 0
0, 0
0, 0
0, 0
0, 0
0, 0
0, 0
0, 0
0, 0
0, 0
0, 0
0, 0
0, 0
0, 0
0, 0
0, 0
0, 0
0, 0
0, 0
0, 0
0, 0
0, 0
0, 0
0, 0
0, 0
0, 0
0, 0
0, 0
0, 0
0, 0
0, 0
0, 0
0, 0
0, 0
0, 0
0, 0
0, 0
0, 0
0, 0
0, 0
0, 0
0, 0
0, 0
0, 0
0, 0
0, 0
0, 0
0, 0
0, 0
0, 0
0, 0
0, 0
0, 0
0, 0
0, 0
0, 0
0, 0
0, 0
0, 0
0, 0
0, 0
0, 0
0, 0
0, 0
0, 0
0, 0
0, 0
0, 0
0, 0
0, 0
0, 0
0, 0
0, 0
0, 0
0, 0
0, 0
0, 0
0, 0
0, 0
0, 0
0, 0
0, 0
0, 0
0, 0
0, 0
0, 0
0, 0
0, 0
0, 0
0, 0
0, 0
0, 0
0, 0
0, 0
0, 0
0, 0
0, 0
0, 0
0, 0
0, 0
0, 0
0, 0
0, 0
0, 0
0, 0
0, 0
0, 0
0, 0
0, 0
0, 0
0, 0
0, 0
0, 0
0, 0
0, 0
0, 0
0, 0
0, 0
0, 0
0, 0
0, 0
0, 0
0, 0
0, 0
0, 0
0, 0
0, 0
0, 0
0, 0
0, 0
0, 0
0, 0
0, 0
0, 0
0, 0
0, 0
0, 0
0, 0
0, 0
0, 0
0, 0
0, 0
0, 0
0, 0
0, 0
0, 0
0, 0
0, 0
0, 0
0, 0
0, 0
0, 0
0, 0
0, 0
0, 0
0, 0
0, 0
0, 0
0, 0
0, 0
0, 0
0, 0
0, 0
0, 0
0, 0
0, 0
0, 0
0, 0
0, 0
0, 0
0, 0
0, 0
0, 0
0, 0
0, 0
0, 0
0, 0
0, 0
0, 0
0, 0
0, 0
0, 0
0, 0
0, 0
0, 0
0, 0
0, 0
0, 0
0, 0
0, 0
0, 0
0, 0
0, 0
0, 0
0, 0
0, 0
0, 0
0, 0
0, 0
0, 0
0, 0
0, 0
0, 0
0, 0
0, 0
0, 0
0, 0
0, 0
0, 0
0, 0
0, 0
0, 0
0, 0
0, 0
0, 0
0, 0
0, 0
0, 0
0, 0
0, 0
0, 0
0, 0
0, 0
0, 0
0, 0
0, 0
0, 0
0, 0
0, 0
0, 0
0, 0
0, 0
0, 0
0, 0
0, 0
0, 0
0, 0
0, 0
0, 0
0, 0
0, 0
0, 0
0, 0
0, 0
0, 0
0, 0
0, 0
0, 0
0, 0
0, 0
0, 0
0, 0
0, 0
0, 0
0, 0
0, 0
0, 0
0, 0
0, 0
0, 0
0, 0
0, 0
0, 0
0, 0
0, 0
0, 0
0, 0
0, 0
0, 0
0, 0
0, 0
0, 0
0, 0
0, 0
0, 0
0, 0
0, 0
0, 0
0, 0
0, 0
0, 0
0, 0
0, 0
0, 0
0, 0
0, 0
0, 0
0, 0
0, 0
0, 0
0, 0
0, 0
0, 0
#ENDOFDATA     end of spectrum data