File: host_upload/06-09-2024/ps_0852/dump3/ps__0852shot_2255.msa
#FORMAT      : EMSA/MAS spectral data file
#VERSION     : TC202v2.0 PIXL
#TITLE       : N/A
#DATE        :       Date in the format DD-MMM-YYYY, for example 07-JUL-2010
#TIME        :             The time of day at which the spectrum was recorded, in 24-hour format
#OWNER       : PIXL Flight Model       (PIXL will use this to indicate which instrument took the data.)
#NPOINTS     : 4096     Number of data points in the spectrum (This can be zero for configuration only files)
#NCOLUMNS    : 2     Number of data columns in the spectrum (This can be zero for configuration only files)
#XUNITS      : eV
#YUNITS      : COUNTS
#DATATYPE    : YY
#XPERCHAN    : 7.862, 7.881   eV per channel (separate by commas if more than one detector)
#OFFSET      : 18.5, -22.4         eV of first channel  (separate by commas if more than one detector
#SIGNALTYPE  : XRF
#YP_TEMP     : 2.235
#LIVETIME    : 8.5587, 8.55606   seconds (separate by commas if more than one detector)
#REALTIME    : 10, 10.0   seconds (separate by commas if more than one detector)
#SPECTRUM    : start of spectrum data
0, 0
0, 0
0, 0
0, 0
0, 0
0, 0
0, 0
0, 0
0, 0
0, 0
0, 0
0, 0
0, 0
0, 0
0, 0
0, 0
0, 0
0, 0
0, 0
0, 0
0, 0
0, 0
0, 0
0, 0
0, 0
0, 0
0, 0
0, 0
0, 0
0, 0
0, 0
0, 0
0, 0
0, 0
0, 0
0, 0
0, 0
1, 0
0, 2
0, 0
2, 1
1, 0
0, 3
1, 1
1, 1
2, 2
1, 0
7, 3
8, 2
17, 18
29, 22
42, 40
74, 48
72, 79
98, 64
100, 61
68, 62
53, 37
25, 25
20, 14
15, 2
6, 4
7, 4
4, 3
4, 4
8, 4
5, 4
11, 10
25, 18
52, 50
86, 80
201, 165
264, 243
387, 314
464, 331
483, 362
410, 319
322, 249
224, 163
122, 103
66, 65
46, 30
26, 19
10, 11
9, 3
2, 0
2, 0
1, 0
0, 2
1, 1
0, 0
1, 1
1, 1
1, 1
4, 0
1, 3
0, 4
4, 3
2, 2
1, 1
0, 2
3, 3
3, 2
1, 4
4, 7
2, 3
1, 0
0, 2
2, 6
14, 13
9, 10
18, 18
16, 30
23, 37
29, 32
34, 37
25, 40
34, 43
29, 35
18, 52
18, 51
16, 38
8, 32
21, 23
13, 28
15, 17
12, 13
10, 15
9, 9
5, 8
7, 0
1, 1
1, 3
4, 0
2, 0
4, 5
3, 1
2, 2
1, 1
0, 0
2, 1
0, 2
4, 0
0, 2
3, 0
2, 1
2, 1
2, 3
2, 2
1, 3
5, 2
4, 5
8, 5
17, 5
16, 6
19, 12
24, 12
19, 14
26, 19
16, 8
19, 8
10, 8
10, 7
6, 3
6, 4
2, 5
4, 1
2, 4
3, 5
6, 7
8, 6
2, 2
4, 6
4, 8
1, 7
2, 7
5, 1
3, 12
0, 6
2, 4
2, 6
10, 7
3, 5
5, 4
0, 3
6, 5
6, 3
4, 5
4, 6
7, 6
5, 8
8, 18
8, 11
13, 19
16, 15
24, 31
13, 35
22, 51
30, 43
33, 42
62, 40
62, 30
60, 25
76, 11
96, 12
79, 8
66, 7
65, 6
45, 5
28, 5
19, 3
14, 5
17, 3
8, 3
7, 5
10, 3
7, 3
5, 9
4, 6
8, 10
6, 3
7, 7
10, 9
10, 9
11, 5
7, 15
5, 8
13, 8
4, 10
10, 15
13, 15
21, 11
21, 7
18, 10
14, 14
13, 29
9, 12
6, 9
5, 12
11, 11
3, 11
8, 9
9, 11
5, 4
14, 14
20, 23
36, 23
51, 36
45, 48
61, 44
62, 42
73, 66
64, 49
56, 45
50, 45
47, 26
27, 28
25, 19
16, 15
11, 27
20, 19
20, 30
55, 43
80, 93
170, 182
287, 309
536, 554
869, 847
1182, 1195
1723, 1630
2053, 2023
2443, 2269
2604, 2235
2477, 2147
2288, 1804
1912, 1453
1408, 1078
1041, 695
630, 420
405, 266
237, 122
138, 69
94, 26
97, 18
69, 17
105, 21
108, 19
116, 14
106, 19
90, 15
97, 19
82, 40
103, 47
78, 71
109, 107
177, 178
215, 205
285, 259
307, 314
369, 338
402, 337
366, 312
351, 260
247, 221
191, 136
162, 101
79, 73
66, 44
36, 19
15, 14
17, 15
8, 9
9, 15
10, 14
8, 21
12, 13
19, 16
12, 16
13, 19
13, 13
10, 12
12, 10
12, 11
3, 8
3, 1
5, 6
6, 1
9, 4
7, 5
0, 1
1, 5
2, 4
1, 2
4, 1
4, 4
3, 6
3, 2
3, 2
2, 0
4, 3
2, 1
3, 0
3, 3
5, 4
5, 6
7, 3
1, 2
7, 7
6, 4
5, 2
5, 7
6, 5
10, 5
6, 2
15, 9
8, 9
14, 4
15, 4
16, 5
16, 3
13, 2
9, 0
14, 5
13, 2
9, 8
4, 4
6, 5
10, 5
5, 7
3, 3
4, 4
8, 9
4, 5
4, 5
7, 3
3, 3
5, 5
6, 3
7, 4
6, 3
5, 2
4, 2
3, 5
1, 2
1, 1
2, 4
2, 10
2, 9
1, 6
1, 16
3, 11
3, 20
1, 16
3, 17
4, 23
1, 22
4, 19
3, 23
4, 19
1, 16
3, 16
6, 8
3, 5
5, 8
2, 7
5, 0
7, 2
10, 2
9, 3
7, 6
9, 3
5, 4
9, 2
11, 5
12, 4
7, 2
7, 1
14, 7
12, 2
14, 5
15, 6
7, 2
11, 5
3, 6
3, 6
6, 3
2, 2
4, 4
4, 4
3, 2
4, 0
6, 1
4, 5
4, 3
2, 2
2, 1
2, 4
6, 0
1, 2
4, 0
4, 1
2, 5
4, 4
5, 4
4, 1
3, 1
5, 2
4, 2
3, 2
2, 0
1, 0
2, 2
1, 6
2, 1
5, 1
1, 4
2, 4
4, 3
0, 1
1, 2
1, 4
1, 4
3, 4
1, 0
3, 2
0, 4
2, 3
2, 4
1, 3
2, 4
3, 3
1, 2
3, 2
4, 3
3, 4
3, 6
5, 0
5, 2
4, 4
1, 4
3, 6
6, 1
2, 0
2, 8
7, 2
1, 3
4, 8
2, 3
0, 6
3, 4
5, 2
3, 1
1, 5
2, 8
2, 7
5, 1
2, 3
5, 3
2, 4
4, 2
2, 5
1, 4
4, 2
2, 2
3, 0
2, 3
1, 2
3, 1
3, 3
2, 2
2, 2
0, 3
4, 2
2, 0
2, 2
2, 1
2, 2
2, 2
0, 0
1, 5
3, 0
2, 2
3, 1
2, 0
1, 3
3, 1
2, 1
6, 3
2, 1
0, 3
1, 3
2, 3
0, 0
4, 1
3, 0
0, 2
6, 3
3, 5
5, 4
5, 6
1, 1
3, 2
4, 3
3, 4
5, 4
7, 4
6, 4
4, 0
1, 5
0, 2
0, 2
3, 3
1, 1
0, 1
1, 1
2, 2
3, 3
0, 1
0, 1
1, 0
2, 1
1, 1
2, 4
0, 2
1, 1
0, 2
2, 2
2, 1
2, 2
4, 1
2, 1
1, 1
0, 4
0, 2
1, 1
0, 0
0, 0
2, 2
3, 0
2, 1
1, 2
2, 0
0, 1
0, 0
0, 0
0, 2
1, 2
0, 1
3, 1
2, 0
0, 1
0, 0
1, 1
2, 1
3, 3
0, 0
2, 0
2, 3
3, 0
1, 0
1, 1
2, 0
0, 0
2, 2
0, 0
1, 0
1, 1
3, 0
3, 2
3, 2
2, 0
2, 0
1, 1
0, 1
3, 0
1, 0
0, 1
2, 1
2, 0
1, 1
0, 1
4, 2
0, 0
0, 0
1, 0
1, 1
2, 1
3, 1
0, 2
1, 1
1, 0
1, 1
0, 0
0, 0
1, 1
1, 1
0, 1
2, 0
1, 0
0, 0
1, 0
2, 2
1, 1
1, 1
1, 2
0, 0
1, 0
0, 1
0, 0
0, 1
1, 1
0, 0
0, 0
0, 1
0, 0
1, 2
1, 1
2, 0
0, 1
0, 0
0, 1
1, 0
0, 2
0, 0
0, 0
1, 0
1, 1
3, 1
1, 0
0, 1
2, 0
0, 2
1, 2
0, 1
4, 1
0, 1
0, 1
1, 2
0, 0
0, 0
2, 1
0, 1
1, 0
0, 1
1, 0
2, 1
0, 1
0, 0
1, 0
1, 0
1, 0
1, 1
0, 0
0, 0
0, 1
0, 0
1, 0
0, 2
0, 1
0, 0
0, 2
1, 0
1, 0
0, 0
0, 2
1, 0
0, 2
1, 1
0, 0
0, 0
0, 0
0, 0
0, 0
0, 1
0, 0
0, 0
1, 0
1, 1
1, 0
0, 0
0, 0
0, 1
0, 0
3, 0
1, 0
2, 0
0, 0
0, 1
0, 0
0, 0
0, 0
0, 1
1, 2
0, 0
2, 1
0, 0
0, 0
1, 0
0, 0
0, 0
0, 1
0, 1
0, 0
0, 0
0, 0
0, 1
1, 0
0, 0
0, 0
1, 0
0, 0
0, 0
1, 0
0, 1
0, 0
0, 0
1, 0
0, 0
1, 0
0, 0
0, 1
0, 0
0, 0
0, 0
0, 0
0, 0
0, 0
0, 0
1, 0
1, 0
0, 0
0, 0
1, 1
1, 1
0, 0
0, 0
0, 0
0, 0
0, 1
1, 0
2, 0
0, 0
0, 0
0, 0
1, 0
0, 2
1, 0
0, 0
0, 0
0, 0
0, 1
0, 2
1, 1
1, 1
1, 1
0, 0
0, 2
0, 1
0, 0
0, 0
0, 1
0, 0
1, 0
0, 0
0, 0
0, 0
1, 0
1, 0
0, 0
0, 0
1, 0
0, 1
0, 0
0, 0
0, 0
0, 0
0, 0
0, 0
1, 0
0, 0
0, 0
0, 0
0, 0
0, 0
0, 0
0, 0
1, 0
0, 1
1, 0
0, 0
0, 0
0, 0
0, 0
0, 0
0, 0
0, 0
0, 0
0, 0
0, 0
0, 1
0, 0
0, 0
0, 1
0, 0
1, 0
0, 0
1, 0
0, 0
0, 0
0, 0
0, 0
0, 1
0, 0
1, 0
0, 0
0, 0
0, 1
0, 0
0, 0
0, 0
0, 0
0, 0
0, 1
0, 0
0, 0
0, 0
0, 0
1, 0
0, 0
0, 0
0, 0
0, 0
0, 0
0, 0
0, 0
0, 0
0, 0
0, 0
0, 0
0, 0
0, 0
0, 0
0, 0
0, 1
0, 0
1, 0
0, 0
0, 0
0, 0
0, 0
0, 0
1, 1
0, 0
0, 0
0, 1
1, 0
0, 0
0, 0
0, 0
0, 0
0, 1
0, 0
0, 0
0, 0
0, 1
0, 0
0, 0
0, 0
0, 0
0, 0
0, 0
0, 0
0, 0
0, 0
0, 0
0, 0
0, 0
0, 0
1, 0
0, 0
0, 0
0, 0
0, 0
0, 0
0, 1
0, 0
0, 0
0, 0
0, 0
0, 0
0, 0
0, 0
0, 0
1, 0
0, 0
0, 0
0, 0
0, 0
0, 0
0, 1
0, 0
0, 0
0, 0
0, 0
0, 0
0, 0
0, 0
0, 0
0, 0
0, 0
0, 0
0, 0
0, 0
0, 0
0, 0
0, 0
0, 0
0, 0
0, 0
0, 0
0, 0
0, 1
0, 0
0, 0
0, 0
0, 0
0, 0
0, 0
0, 0
1, 0
0, 0
0, 0
0, 0
0, 0
1, 0
0, 0
0, 0
0, 0
0, 0
0, 0
0, 0
0, 0
0, 0
0, 0
0, 0
0, 0
0, 0
0, 0
0, 0
0, 0
0, 0
0, 0
0, 0
0, 0
0, 0
0, 0
0, 0
0, 0
0, 0
0, 0
0, 0
0, 0
0, 0
0, 0
0, 0
0, 0
0, 0
0, 0
0, 0
0, 0
0, 0
0, 0
0, 0
0, 0
0, 0
0, 0
0, 0
0, 0
0, 0
0, 0
0, 0
0, 0
0, 0
0, 0
0, 0
0, 0
0, 0
0, 0
0, 0
0, 0
0, 0
0, 0
0, 0
0, 1
0, 0
0, 0
0, 0
0, 0
0, 0
0, 0
0, 0
0, 0
0, 0
0, 0
0, 0
0, 0
0, 0
0, 0
0, 0
0, 0
0, 0
0, 0
0, 0
0, 0
0, 0
0, 0
0, 0
0, 0
0, 0
0, 0
0, 0
0, 0
0, 0
0, 0
0, 0
0, 0
0, 0
0, 0
0, 0
0, 0
0, 0
0, 0
0, 0
0, 0
0, 0
0, 0
0, 0
0, 0
0, 0
0, 0
0, 0
0, 0
0, 0
0, 0
0, 0
0, 0
0, 0
0, 0
0, 0
0, 0
0, 0
0, 0
0, 0
0, 0
0, 0
0, 0
0, 0
0, 0
0, 0
0, 0
0, 0
0, 0
0, 0
0, 0
0, 0
0, 0
0, 0
0, 0
0, 0
0, 0
0, 0
0, 0
0, 0
0, 0
0, 0
0, 0
0, 0
0, 0
0, 0
0, 0
0, 0
0, 0
0, 0
0, 0
0, 0
0, 0
0, 0
0, 0
0, 0
0, 0
0, 0
0, 0
0, 0
1, 0
0, 0
0, 0
0, 0
0, 0
0, 0
0, 0
0, 0
0, 0
0, 0
0, 0
0, 0
0, 0
0, 0
0, 0
0, 0
0, 0
0, 0
0, 0
0, 0
0, 0
0, 0
0, 0
0, 0
0, 0
0, 0
0, 0
0, 0
0, 0
0, 0
0, 0
0, 0
0, 0
0, 0
0, 0
0, 0
0, 0
0, 0
0, 0
0, 0
0, 0
0, 0
0, 0
0, 0
0, 0
0, 0
0, 0
0, 0
0, 0
0, 0
0, 0
0, 0
0, 0
0, 0
0, 0
0, 0
0, 0
0, 0
0, 0
0, 0
0, 0
1, 0
0, 0
0, 0
0, 0
0, 0
0, 0
0, 0
0, 0
0, 0
0, 0
0, 0
0, 0
0, 0
0, 0
0, 0
0, 0
0, 0
0, 0
0, 0
0, 0
0, 0
0, 0
0, 0
0, 0
0, 0
0, 0
0, 0
0, 0
0, 0
0, 0
0, 0
0, 0
0, 0
0, 0
0, 0
0, 0
0, 0
0, 0
0, 0
0, 0
0, 0
0, 0
0, 0
0, 0
0, 0
0, 0
0, 0
0, 0
0, 0
0, 0
0, 0
0, 0
0, 0
0, 0
0, 0
0, 0
0, 0
0, 0
0, 0
0, 0
0, 0
0, 0
0, 0
0, 0
0, 0
0, 0
0, 0
0, 0
0, 0
0, 0
0, 0
0, 0
0, 0
0, 0
0, 0
0, 0
0, 0
0, 0
0, 0
0, 0
0, 0
0, 0
0, 0
0, 0
0, 0
0, 0
0, 0
0, 0
0, 0
0, 0
0, 0
0, 0
0, 0
0, 0
0, 0
0, 0
0, 0
0, 0
0, 0
0, 0
0, 0
0, 0
0, 0
0, 0
0, 0
0, 0
0, 0
0, 0
0, 0
0, 0
0, 0
0, 0
0, 0
0, 0
0, 0
0, 0
0, 0
0, 0
0, 0
0, 0
0, 0
0, 0
0, 0
0, 0
0, 0
0, 0
0, 0
0, 0
0, 0
0, 0
0, 0
0, 0
0, 0
0, 0
0, 0
0, 0
0, 0
0, 0
0, 0
0, 0
0, 0
0, 0
0, 0
0, 0
0, 0
0, 0
0, 0
0, 0
0, 0
0, 0
0, 0
0, 0
0, 0
0, 0
0, 0
0, 0
0, 0
0, 0
0, 0
0, 0
0, 0
0, 0
0, 0
0, 0
0, 0
0, 0
0, 0
0, 0
0, 0
0, 0
0, 0
0, 0
#ENDOFDATA     end of spectrum data