File: host_upload/06-09-2024/ps_0852/dump3/ps__0852shot_2479.msa
#FORMAT      : EMSA/MAS spectral data file
#VERSION     : TC202v2.0 PIXL
#TITLE       : N/A
#DATE        :       Date in the format DD-MMM-YYYY, for example 07-JUL-2010
#TIME        :             The time of day at which the spectrum was recorded, in 24-hour format
#OWNER       : PIXL Flight Model       (PIXL will use this to indicate which instrument took the data.)
#NPOINTS     : 4096     Number of data points in the spectrum (This can be zero for configuration only files)
#NCOLUMNS    : 2     Number of data columns in the spectrum (This can be zero for configuration only files)
#XUNITS      : eV
#YUNITS      : COUNTS
#DATATYPE    : YY
#XPERCHAN    : 7.862, 7.881   eV per channel (separate by commas if more than one detector)
#OFFSET      : 18.5, -22.4         eV of first channel  (separate by commas if more than one detector
#SIGNALTYPE  : XRF
#YP_TEMP     : 2.46
#LIVETIME    : 8.56763, 8.56886   seconds (separate by commas if more than one detector)
#REALTIME    : 10, 10.0   seconds (separate by commas if more than one detector)
#SPECTRUM    : start of spectrum data
0, 0
0, 0
0, 0
0, 0
0, 0
0, 0
0, 0
0, 0
0, 0
0, 0
0, 0
0, 0
0, 0
0, 0
0, 0
0, 0
0, 0
0, 0
0, 0
0, 0
0, 0
0, 0
0, 0
0, 0
0, 0
0, 0
0, 0
0, 0
0, 0
0, 0
0, 0
0, 0
0, 0
0, 0
0, 0
1, 0
1, 0
0, 0
1, 0
0, 0
1, 0
2, 1
1, 0
2, 0
0, 1
2, 1
3, 2
4, 3
5, 8
17, 20
33, 22
54, 42
61, 47
80, 72
75, 74
59, 62
58, 67
53, 54
35, 31
26, 12
10, 8
9, 5
3, 1
4, 1
3, 3
3, 4
4, 8
16, 10
22, 19
41, 43
127, 104
179, 164
269, 257
388, 364
432, 396
418, 378
409, 345
296, 246
197, 161
148, 103
77, 51
39, 23
22, 11
13, 8
5, 3
3, 4
3, 1
3, 2
1, 0
4, 0
1, 2
2, 1
1, 2
1, 1
2, 1
3, 4
5, 2
3, 1
2, 1
6, 2
5, 2
3, 3
1, 3
1, 3
6, 3
4, 2
2, 4
5, 7
3, 3
6, 11
11, 11
10, 13
19, 23
27, 29
25, 29
33, 31
29, 43
26, 30
28, 19
16, 22
18, 20
23, 22
25, 15
20, 15
14, 12
17, 19
10, 6
13, 5
7, 8
9, 8
4, 2
4, 1
5, 5
3, 2
0, 3
2, 4
0, 3
1, 2
1, 2
0, 3
0, 2
1, 3
1, 6
1, 1
6, 3
0, 4
2, 3
6, 4
9, 5
12, 1
13, 1
31, 1
42, 6
33, 9
47, 23
43, 15
47, 29
41, 16
22, 18
21, 10
17, 17
13, 6
16, 6
5, 6
3, 4
4, 2
1, 3
2, 4
7, 0
3, 2
6, 3
7, 8
1, 2
8, 4
5, 2
4, 5
4, 10
3, 4
3, 1
4, 5
6, 3
3, 3
5, 7
2, 3
4, 3
4, 5
2, 5
7, 8
3, 7
7, 6
8, 12
9, 12
11, 11
13, 18
22, 9
15, 13
15, 15
21, 13
13, 20
13, 15
20, 9
15, 13
11, 8
9, 9
10, 11
4, 3
3, 5
6, 3
6, 3
10, 4
4, 8
6, 2
7, 4
7, 11
8, 10
3, 11
11, 11
8, 14
7, 18
5, 9
8, 11
4, 14
7, 12
5, 13
12, 15
6, 11
11, 9
8, 16
21, 12
19, 5
38, 20
25, 14
32, 9
17, 18
33, 17
19, 16
18, 21
19, 20
17, 30
11, 22
11, 33
16, 28
15, 35
12, 29
17, 34
30, 32
43, 33
52, 42
55, 55
56, 63
67, 58
85, 52
71, 49
66, 46
33, 31
46, 30
21, 23
29, 17
20, 25
19, 15
24, 22
36, 24
42, 51
90, 101
176, 192
289, 312
483, 570
817, 916
1198, 1309
1605, 1756
2042, 2131
2348, 2342
2542, 2323
2392, 2225
2163, 1874
1726, 1475
1346, 1075
914, 691
595, 427
361, 242
215, 121
112, 54
47, 41
39, 22
25, 11
17, 13
18, 17
20, 20
16, 20
16, 26
28, 25
39, 33
40, 54
60, 85
92, 120
152, 173
204, 229
256, 280
317, 348
356, 354
350, 353
347, 287
297, 249
272, 235
209, 142
133, 92
108, 60
58, 38
36, 25
23, 13
17, 10
12, 7
18, 10
17, 8
13, 13
15, 14
16, 12
13, 7
14, 20
13, 16
6, 11
12, 10
10, 7
7, 7
7, 5
9, 6
5, 7
2, 6
8, 2
4, 3
6, 2
1, 4
5, 2
2, 3
4, 3
4, 5
2, 8
3, 4
2, 2
4, 5
1, 4
5, 6
5, 12
7, 4
5, 6
10, 9
4, 8
7, 12
10, 8
12, 10
7, 5
6, 8
8, 5
8, 4
1, 6
6, 5
4, 2
6, 4
9, 3
5, 2
3, 6
4, 1
3, 4
4, 2
3, 5
4, 9
2, 8
9, 3
9, 5
8, 8
8, 8
5, 4
8, 5
8, 4
5, 2
10, 10
5, 3
4, 8
2, 5
3, 7
3, 3
2, 2
4, 10
7, 4
6, 5
3, 19
4, 9
8, 14
4, 21
3, 12
4, 18
3, 15
5, 12
4, 6
4, 10
6, 8
5, 6
3, 9
5, 4
5, 5
3, 2
7, 1
6, 5
5, 6
2, 6
1, 4
7, 2
4, 2
5, 6
3, 11
5, 6
1, 6
4, 5
6, 6
2, 2
3, 4
6, 3
3, 5
1, 2
5, 7
5, 7
1, 4
3, 2
4, 2
1, 1
4, 3
2, 2
8, 1
2, 2
2, 3
4, 4
4, 0
1, 5
4, 4
3, 2
2, 2
2, 3
3, 1
4, 0
3, 0
6, 3
3, 2
2, 3
2, 4
6, 1
3, 1
4, 3
3, 0
3, 2
4, 1
2, 5
3, 1
6, 4
3, 2
2, 2
4, 4
4, 1
4, 8
4, 1
5, 0
7, 1
5, 2
4, 2
4, 4
4, 2
0, 3
3, 1
5, 4
3, 2
6, 6
4, 5
2, 5
5, 5
2, 0
2, 5
2, 3
3, 1
5, 3
2, 3
2, 5
2, 3
2, 6
5, 5
5, 4
3, 7
4, 0
0, 3
0, 1
3, 1
3, 5
3, 2
3, 6
3, 3
1, 2
1, 4
1, 1
5, 6
4, 3
3, 2
4, 3
6, 2
5, 6
3, 2
2, 2
1, 2
2, 1
2, 4
1, 2
2, 1
2, 0
2, 2
2, 5
1, 0
4, 4
2, 2
1, 1
0, 1
1, 2
5, 0
1, 0
0, 3
2, 1
3, 0
1, 3
6, 3
3, 2
3, 1
4, 1
2, 0
3, 1
7, 3
3, 3
2, 3
2, 3
2, 1
3, 1
4, 4
1, 5
5, 4
5, 6
2, 6
4, 3
7, 5
3, 7
3, 5
2, 5
3, 2
4, 3
2, 1
1, 5
2, 4
2, 1
3, 0
4, 3
2, 2
1, 4
0, 1
1, 2
4, 0
2, 1
0, 2
0, 4
3, 0
1, 2
1, 1
0, 2
6, 3
4, 1
1, 1
3, 2
2, 1
3, 2
4, 0
3, 2
0, 0
2, 1
1, 1
1, 2
1, 2
0, 3
2, 1
1, 2
1, 1
1, 2
1, 1
0, 1
0, 1
0, 2
1, 1
0, 0
2, 1
2, 0
1, 1
0, 1
1, 1
0, 0
0, 0
3, 0
0, 2
0, 3
1, 2
1, 0
1, 2
0, 1
0, 3
0, 0
2, 1
1, 0
0, 0
0, 4
2, 0
2, 1
2, 2
1, 1
0, 1
0, 1
1, 0
0, 1
0, 0
0, 0
1, 0
2, 1
2, 0
0, 0
0, 1
1, 1
0, 2
0, 2
1, 0
0, 0
2, 1
0, 0
0, 1
0, 0
0, 1
2, 2
0, 0
1, 1
0, 0
0, 0
0, 0
1, 1
0, 0
3, 0
0, 0
2, 1
0, 2
0, 0
1, 1
0, 3
0, 2
0, 2
1, 3
0, 0
0, 0
1, 2
0, 0
1, 1
1, 1
0, 1
0, 0
1, 0
1, 0
0, 0
0, 1
0, 1
1, 0
0, 0
2, 1
1, 0
1, 2
1, 1
0, 0
0, 0
0, 0
0, 1
0, 0
0, 1
2, 2
1, 0
0, 0
0, 1
0, 2
1, 2
2, 1
0, 0
0, 0
1, 1
1, 0
2, 0
1, 1
0, 0
0, 0
0, 0
1, 1
0, 0
0, 2
0, 0
1, 2
1, 0
1, 0
0, 1
2, 0
0, 0
0, 0
0, 0
0, 0
1, 0
0, 0
0, 2
0, 1
1, 1
0, 0
0, 0
0, 0
0, 1
0, 0
1, 0
1, 0
0, 1
0, 1
0, 0
1, 1
1, 0
0, 2
0, 0
0, 1
0, 2
0, 0
0, 1
0, 0
0, 0
0, 0
0, 0
0, 0
0, 0
1, 0
1, 0
0, 1
0, 0
0, 0
0, 0
0, 0
0, 1
0, 0
0, 0
1, 0
1, 0
0, 0
0, 0
0, 0
0, 0
0, 0
0, 0
0, 1
1, 1
0, 0
1, 0
0, 0
1, 0
0, 0
1, 2
0, 0
1, 0
0, 0
0, 0
0, 0
0, 0
0, 0
1, 0
1, 0
0, 1
0, 0
2, 1
0, 0
0, 1
0, 0
0, 0
0, 0
0, 1
1, 1
0, 0
0, 1
0, 0
1, 0
0, 0
0, 1
1, 0
0, 0
0, 0
1, 2
0, 0
0, 1
1, 0
0, 0
0, 2
0, 0
0, 0
0, 0
0, 2
0, 1
0, 0
0, 1
0, 0
2, 1
0, 0
0, 0
0, 0
1, 0
0, 0
0, 0
0, 0
1, 0
0, 0
0, 1
0, 1
1, 2
0, 0
0, 0
0, 0
0, 0
0, 0
1, 0
0, 1
0, 0
0, 0
0, 0
1, 0
0, 0
0, 0
1, 0
0, 0
0, 0
0, 0
0, 0
0, 0
0, 0
0, 0
0, 0
0, 0
0, 0
0, 0
0, 0
0, 0
0, 0
0, 0
0, 0
0, 0
0, 0
0, 0
1, 0
0, 0
0, 0
0, 0
0, 0
0, 0
0, 0
1, 0
0, 0
0, 0
1, 0
0, 2
0, 0
0, 0
0, 0
1, 0
0, 1
0, 0
0, 0
0, 0
0, 0
0, 0
0, 0
0, 0
0, 0
0, 1
1, 0
0, 1
0, 0
0, 0
0, 0
1, 0
0, 0
1, 0
0, 0
0, 0
0, 0
0, 0
0, 0
0, 0
1, 0
0, 0
0, 0
0, 0
0, 0
0, 0
0, 0
0, 0
1, 0
0, 0
0, 0
1, 0
0, 0
0, 0
0, 0
0, 0
0, 0
0, 0
0, 0
0, 0
0, 0
0, 0
0, 1
0, 0
0, 0
0, 0
0, 0
0, 0
0, 0
0, 0
0, 0
0, 0
0, 0
0, 0
0, 0
0, 0
0, 0
0, 0
0, 0
0, 0
0, 0
0, 0
0, 0
0, 0
0, 0
0, 2
0, 0
0, 0
0, 0
1, 0
1, 0
0, 0
0, 0
0, 0
0, 0
0, 0
1, 0
0, 0
0, 0
0, 0
0, 0
0, 0
0, 0
0, 0
0, 0
0, 0
0, 0
0, 0
0, 0
0, 0
0, 0
0, 0
0, 0
0, 0
0, 0
0, 0
0, 0
0, 0
0, 0
0, 0
0, 0
0, 0
0, 0
0, 0
0, 0
0, 0
0, 0
0, 0
0, 0
0, 0
0, 0
0, 0
0, 0
0, 0
1, 0
0, 0
0, 0
0, 0
0, 0
0, 0
0, 0
0, 0
0, 0
0, 0
0, 0
0, 0
0, 0
0, 0
0, 0
0, 0
0, 0
0, 0
0, 0
0, 0
0, 0
0, 0
0, 0
0, 1
0, 0
0, 0
0, 0
0, 0
0, 0
0, 0
0, 0
0, 0
0, 0
0, 0
0, 0
0, 0
0, 0
0, 0
0, 0
0, 0
0, 0
0, 0
0, 0
0, 0
0, 0
0, 0
0, 0
0, 0
0, 0
0, 0
0, 0
0, 0
0, 0
0, 0
0, 0
0, 0
0, 0
0, 0
0, 0
0, 0
0, 0
0, 0
0, 0
0, 0
0, 0
0, 0
0, 0
0, 0
0, 0
0, 0
0, 0
0, 0
0, 0
0, 0
0, 0
0, 0
0, 0
0, 0
0, 0
0, 0
0, 0
0, 0
0, 0
0, 0
0, 0
0, 0
0, 0
0, 0
0, 0
0, 0
0, 0
0, 0
0, 0
0, 0
0, 0
0, 0
0, 0
0, 0
0, 0
0, 0
0, 0
0, 0
0, 0
0, 0
0, 0
0, 0
0, 0
0, 0
0, 0
0, 0
0, 0
0, 0
0, 1
0, 0
0, 0
0, 0
0, 0
0, 0
0, 0
0, 0
0, 0
0, 0
0, 0
0, 0
0, 0
0, 0
0, 0
0, 0
0, 0
0, 0
0, 0
0, 0
0, 0
0, 0
0, 0
0, 0
0, 0
0, 0
0, 0
0, 0
0, 0
0, 0
0, 0
0, 0
0, 0
0, 0
0, 0
0, 0
0, 0
0, 0
0, 0
0, 0
0, 0
0, 0
0, 0
0, 0
0, 0
0, 0
0, 0
0, 0
0, 0
0, 0
0, 0
0, 0
0, 0
0, 0
0, 0
0, 0
0, 0
0, 0
0, 0
0, 0
0, 0
0, 0
0, 0
0, 0
0, 0
0, 0
0, 0
0, 0
0, 0
0, 0
0, 0
0, 0
0, 0
0, 0
0, 0
0, 0
0, 0
0, 0
0, 0
0, 0
0, 0
0, 0
0, 0
0, 0
0, 0
0, 0
0, 0
0, 0
0, 0
0, 0
0, 0
0, 0
0, 0
0, 0
0, 0
0, 0
0, 0
0, 0
0, 0
0, 0
0, 0
0, 0
0, 0
0, 0
0, 0
0, 0
0, 0
0, 0
0, 0
0, 0
0, 0
0, 0
0, 0
0, 0
0, 0
0, 0
0, 0
0, 0
0, 0
0, 0
0, 0
0, 0
0, 0
0, 0
0, 0
0, 0
0, 0
0, 0
0, 0
0, 0
0, 0
0, 0
0, 0
0, 0
0, 0
0, 0
0, 0
0, 0
0, 0
0, 0
0, 0
0, 0
0, 0
0, 0
0, 0
0, 0
0, 0
0, 0
0, 0
0, 0
0, 0
0, 0
0, 0
0, 0
0, 0
0, 0
0, 0
0, 0
0, 0
0, 0
0, 0
0, 0
0, 0
0, 0
0, 0
0, 0
0, 0
0, 0
0, 0
0, 0
0, 0
0, 0
0, 0
0, 0
0, 0
0, 0
0, 0
0, 0
0, 0
0, 0
0, 0
0, 0
0, 0
0, 0
0, 0
0, 0
0, 0
0, 0
0, 0
0, 0
0, 0
0, 0
0, 0
0, 0
0, 0
0, 0
0, 0
0, 0
0, 0
0, 0
0, 0
0, 0
0, 0
0, 0
0, 0
0, 0
0, 0
0, 0
0, 0
0, 0
0, 0
0, 0
0, 0
0, 0
0, 0
0, 0
0, 0
0, 0
0, 0
0, 0
0, 0
0, 0
0, 0
0, 0
0, 0
0, 0
0, 0
0, 0
0, 0
0, 0
0, 0
0, 0
0, 0
0, 0
0, 0
0, 0
0, 0
0, 0
0, 0
0, 0
0, 0
0, 0
0, 0
0, 0
0, 0
0, 0
0, 0
0, 0
0, 0
0, 0
0, 0
0, 0
0, 0
0, 0
0, 0
0, 0
0, 0
0, 0
0, 0
0, 0
0, 0
0, 0
0, 0
0, 0
0, 0
0, 0
0, 0
0, 0
0, 0
0, 0
#ENDOFDATA     end of spectrum data