File: host_upload/06-09-2024/ps_0852/dump3/ps__0852shot_2242.msa
#FORMAT      : EMSA/MAS spectral data file
#VERSION     : TC202v2.0 PIXL
#TITLE       : N/A
#DATE        :       Date in the format DD-MMM-YYYY, for example 07-JUL-2010
#TIME        :             The time of day at which the spectrum was recorded, in 24-hour format
#OWNER       : PIXL Flight Model       (PIXL will use this to indicate which instrument took the data.)
#NPOINTS     : 4096     Number of data points in the spectrum (This can be zero for configuration only files)
#NCOLUMNS    : 2     Number of data columns in the spectrum (This can be zero for configuration only files)
#XUNITS      : eV
#YUNITS      : COUNTS
#DATATYPE    : YY
#XPERCHAN    : 7.862, 7.881   eV per channel (separate by commas if more than one detector)
#OFFSET      : 18.5, -22.4         eV of first channel  (separate by commas if more than one detector
#SIGNALTYPE  : XRF
#YP_TEMP     : 2.267
#LIVETIME    : 8.54195, 8.5283   seconds (separate by commas if more than one detector)
#REALTIME    : 10, 10.0   seconds (separate by commas if more than one detector)
#SPECTRUM    : start of spectrum data
0, 0
0, 0
0, 0
0, 0
0, 0
0, 0
0, 0
0, 0
0, 0
0, 0
0, 0
0, 0
0, 0
0, 0
0, 0
0, 0
0, 0
0, 0
0, 0
0, 0
0, 0
0, 0
0, 0
0, 0
0, 0
0, 0
0, 0
0, 0
0, 0
0, 0
0, 0
0, 0
0, 0
1, 0
1, 1
1, 1
0, 1
0, 1
3, 1
0, 1
1, 4
2, 0
2, 4
2, 1
1, 3
1, 1
0, 2
1, 4
5, 3
9, 10
14, 26
33, 44
60, 51
65, 71
70, 79
72, 56
52, 52
33, 40
25, 24
13, 11
17, 12
8, 9
11, 6
7, 7
9, 8
9, 11
14, 6
9, 9
27, 26
46, 55
113, 102
165, 167
277, 291
374, 345
463, 415
462, 381
402, 371
294, 277
214, 210
154, 112
73, 62
35, 46
30, 19
23, 14
20, 7
18, 20
22, 8
15, 12
15, 10
11, 10
9, 2
5, 3
7, 4
6, 5
10, 7
15, 5
17, 5
23, 9
26, 5
17, 4
19, 9
4, 0
6, 6
6, 4
10, 6
13, 10
8, 5
10, 21
26, 18
30, 29
47, 45
62, 49
64, 67
79, 81
73, 57
72, 62
59, 45
59, 35
47, 36
44, 45
29, 23
34, 29
37, 29
30, 22
19, 22
29, 12
20, 16
13, 17
17, 5
12, 5
6, 4
8, 6
8, 3
2, 2
6, 1
4, 4
8, 8
9, 10
6, 9
12, 11
19, 11
19, 17
27, 12
21, 15
11, 12
10, 7
11, 5
6, 4
2, 8
5, 8
5, 11
11, 7
15, 16
22, 28
34, 27
40, 44
59, 38
47, 52
50, 41
54, 49
49, 22
27, 29
18, 8
9, 13
6, 7
7, 10
7, 5
11, 4
3, 8
3, 9
9, 11
8, 11
13, 8
11, 10
11, 8
8, 4
5, 4
8, 11
9, 2
2, 3
7, 2
3, 5
7, 1
10, 3
7, 7
11, 4
9, 7
9, 9
15, 9
14, 16
28, 10
29, 17
26, 20
20, 26
24, 21
22, 20
14, 24
17, 12
18, 14
20, 12
12, 14
14, 7
11, 7
18, 7
11, 6
6, 7
13, 5
9, 6
13, 6
14, 10
12, 6
16, 5
8, 10
13, 7
11, 6
7, 6
10, 3
7, 4
4, 5
9, 9
2, 5
9, 9
5, 6
5, 5
8, 13
11, 6
8, 21
20, 17
24, 16
28, 21
51, 21
52, 8
42, 8
45, 22
46, 17
45, 11
39, 7
36, 8
28, 6
29, 10
20, 10
21, 10
22, 10
19, 12
15, 14
19, 19
33, 22
25, 45
60, 50
57, 54
73, 57
76, 61
66, 58
61, 56
53, 36
41, 28
38, 15
34, 20
25, 21
26, 15
21, 37
23, 59
56, 108
86, 151
147, 253
271, 435
487, 649
766, 907
1095, 1279
1466, 1660
1776, 1956
2134, 2258
2240, 2211
2192, 2083
2027, 1762
1673, 1409
1321, 1041
934, 672
570, 380
361, 254
201, 127
114, 67
55, 50
27, 20
23, 15
20, 11
11, 13
16, 15
15, 27
18, 21
16, 34
43, 36
50, 60
84, 83
104, 103
139, 166
198, 205
241, 243
295, 328
335, 346
347, 355
368, 300
315, 272
253, 204
183, 140
118, 90
95, 58
42, 24
36, 25
17, 15
10, 8
13, 3
15, 3
9, 7
17, 8
23, 13
9, 14
21, 12
15, 16
22, 10
27, 9
19, 12
16, 12
15, 6
17, 5
6, 4
6, 4
9, 4
7, 7
8, 4
5, 8
4, 8
4, 5
5, 3
3, 3
2, 6
5, 6
8, 9
4, 4
12, 10
6, 5
7, 8
8, 8
9, 7
11, 6
6, 13
6, 8
7, 8
9, 6
6, 6
11, 6
7, 7
5, 6
6, 3
4, 4
5, 9
4, 4
3, 11
5, 1
4, 9
5, 4
4, 2
2, 3
5, 9
3, 1
6, 5
7, 1
5, 2
2, 6
3, 5
7, 4
4, 3
3, 2
10, 9
7, 13
11, 8
7, 13
9, 11
11, 24
12, 18
9, 26
15, 28
17, 29
25, 19
20, 27
21, 20
21, 15
17, 10
11, 14
12, 11
9, 5
7, 5
3, 3
5, 5
5, 3
8, 2
2, 1
2, 1
4, 2
1, 3
1, 7
4, 3
4, 5
4, 5
3, 2
4, 3
6, 2
2, 3
5, 2
5, 7
2, 3
8, 3
5, 3
1, 1
1, 0
2, 0
3, 5
4, 1
3, 3
3, 2
3, 3
3, 5
7, 3
1, 2
5, 2
2, 6
4, 1
2, 4
0, 1
3, 1
6, 5
2, 4
2, 2
5, 1
8, 1
2, 3
3, 0
6, 4
4, 5
4, 3
2, 4
4, 4
3, 1
2, 3
2, 4
0, 4
1, 2
4, 7
1, 5
1, 6
2, 3
1, 4
2, 5
3, 2
1, 3
2, 0
0, 0
3, 3
4, 3
3, 2
2, 2
3, 1
4, 0
8, 1
7, 3
5, 3
10, 1
3, 2
10, 1
6, 3
8, 3
8, 2
4, 4
2, 2
3, 1
3, 1
3, 1
1, 2
2, 3
1, 6
4, 0
1, 2
4, 2
1, 6
4, 2
1, 1
1, 4
0, 3
1, 4
1, 9
3, 4
1, 4
4, 2
1, 8
1, 9
2, 3
5, 4
3, 4
2, 4
2, 1
1, 4
2, 0
4, 1
5, 0
2, 1
1, 1
2, 3
0, 4
2, 3
3, 1
4, 3
1, 2
2, 2
1, 0
1, 1
1, 2
1, 1
3, 4
2, 2
2, 1
0, 1
3, 3
2, 1
2, 1
2, 2
2, 2
4, 3
2, 3
2, 4
0, 4
1, 1
2, 6
2, 4
2, 4
1, 5
1, 1
0, 4
2, 4
1, 2
4, 4
3, 8
4, 3
6, 5
5, 4
5, 4
4, 6
1, 4
4, 1
0, 0
3, 3
2, 0
5, 3
1, 1
1, 0
1, 1
0, 0
0, 3
0, 1
0, 1
2, 1
0, 1
2, 2
3, 4
3, 2
4, 0
3, 7
0, 1
0, 2
1, 3
3, 1
5, 4
0, 4
3, 4
3, 3
2, 1
4, 0
1, 2
2, 0
1, 5
0, 1
1, 0
2, 1
1, 1
2, 1
0, 1
1, 1
0, 1
1, 0
1, 1
0, 0
1, 1
0, 0
2, 1
1, 1
0, 2
0, 1
1, 0
1, 1
1, 1
0, 2
0, 1
1, 2
0, 1
0, 2
2, 2
1, 2
0, 2
1, 0
1, 3
1, 1
0, 1
3, 0
1, 1
2, 1
2, 2
0, 0
2, 1
1, 3
2, 0
0, 2
0, 2
0, 0
2, 1
0, 0
2, 0
1, 0
0, 0
2, 0
1, 2
1, 1
1, 2
0, 0
0, 0
0, 3
1, 0
1, 1
0, 0
3, 1
1, 0
1, 2
1, 1
0, 1
0, 1
1, 2
2, 1
1, 1
1, 0
2, 1
1, 0
0, 3
1, 2
0, 0
0, 0
0, 0
0, 0
0, 1
0, 1
0, 0
3, 0
0, 2
2, 0
2, 1
0, 0
0, 0
1, 1
0, 0
0, 0
0, 1
1, 0
0, 0
1, 2
1, 0
1, 1
0, 0
0, 0
0, 1
0, 1
3, 0
1, 1
0, 0
1, 0
1, 0
0, 0
1, 1
0, 0
0, 0
2, 1
0, 0
0, 0
0, 1
1, 0
0, 1
0, 0
1, 0
0, 1
0, 1
0, 2
0, 0
1, 0
0, 0
0, 0
0, 1
0, 0
0, 1
1, 1
1, 1
0, 0
0, 0
0, 1
1, 0
0, 0
1, 1
1, 0
2, 0
0, 0
0, 0
0, 0
1, 0
0, 0
0, 0
1, 1
1, 2
0, 0
0, 1
1, 0
0, 0
0, 0
2, 0
0, 0
0, 1
0, 0
0, 0
0, 0
0, 0
2, 0
0, 0
1, 0
0, 0
0, 0
1, 0
0, 0
0, 0
1, 0
0, 0
0, 0
0, 0
0, 0
1, 1
0, 0
2, 1
0, 0
1, 1
0, 1
0, 0
0, 0
1, 0
1, 0
0, 0
0, 0
0, 0
0, 0
0, 0
0, 0
0, 1
2, 1
0, 1
2, 1
1, 0
0, 0
0, 0
0, 0
0, 0
0, 0
0, 0
0, 0
0, 0
0, 0
0, 0
0, 0
0, 0
2, 1
0, 0
0, 0
0, 0
0, 0
0, 0
0, 0
1, 0
0, 1
2, 1
1, 1
0, 0
2, 1
0, 1
1, 0
1, 1
0, 0
1, 0
0, 0
0, 0
0, 0
0, 0
0, 0
0, 0
0, 0
0, 0
0, 0
0, 0
0, 0
0, 0
0, 0
0, 0
0, 0
0, 0
0, 0
0, 0
0, 1
0, 1
0, 0
0, 0
1, 2
0, 0
0, 0
0, 0
0, 1
0, 1
0, 1
1, 1
0, 0
0, 0
1, 0
0, 0
0, 0
0, 0
0, 0
1, 0
0, 0
0, 0
0, 0
0, 1
0, 0
0, 0
0, 0
0, 0
0, 0
0, 0
0, 0
1, 1
1, 0
0, 0
0, 0
1, 0
0, 0
0, 1
0, 0
0, 0
1, 0
0, 0
0, 0
0, 0
0, 0
0, 0
0, 0
0, 0
0, 0
0, 0
0, 0
0, 0
0, 0
0, 0
0, 0
0, 1
0, 0
2, 0
0, 0
0, 0
0, 0
0, 1
0, 0
0, 0
1, 0
0, 0
0, 0
0, 0
0, 0
0, 0
0, 1
0, 0
0, 0
0, 0
0, 0
1, 0
0, 0
0, 0
0, 0
1, 0
0, 0
0, 0
0, 0
0, 0
0, 0
0, 0
0, 0
0, 0
0, 0
0, 0
0, 0
0, 0
0, 0
0, 0
0, 0
0, 0
0, 0
0, 0
0, 0
0, 0
0, 0
0, 0
0, 0
0, 0
0, 0
0, 0
0, 0
0, 0
0, 0
0, 0
0, 0
0, 0
0, 0
0, 0
0, 0
1, 0
0, 0
1, 0
0, 0
0, 0
0, 0
0, 0
0, 0
1, 1
0, 0
0, 0
0, 0
0, 0
0, 0
0, 0
0, 0
1, 0
0, 0
0, 0
0, 0
0, 0
0, 0
0, 0
0, 0
0, 0
0, 0
0, 0
0, 0
1, 0
0, 0
0, 0
0, 0
0, 0
0, 0
0, 0
0, 0
0, 0
0, 0
0, 0
0, 0
0, 0
0, 0
0, 0
0, 0
0, 0
0, 0
0, 0
0, 0
0, 0
0, 0
0, 0
0, 0
0, 0
0, 0
0, 0
0, 0
1, 0
0, 0
0, 0
0, 0
0, 0
0, 0
0, 0
0, 0
0, 0
0, 0
0, 0
0, 0
0, 0
0, 0
0, 0
0, 0
0, 0
0, 0
0, 0
0, 0
0, 0
0, 0
0, 0
0, 0
0, 0
0, 0
0, 0
0, 0
1, 0
0, 0
0, 0
0, 0
0, 0
0, 0
0, 0
0, 0
0, 0
0, 0
0, 0
0, 0
0, 0
0, 0
0, 0
0, 0
0, 0
0, 0
0, 0
0, 0
0, 0
0, 0
0, 0
0, 0
0, 0
0, 0
0, 0
0, 0
0, 0
0, 0
0, 0
0, 0
0, 0
0, 0
0, 0
0, 0
0, 0
0, 0
0, 0
0, 0
0, 0
0, 0
0, 0
0, 0
0, 0
0, 0
0, 0
0, 0
0, 0
0, 0
0, 0
0, 0
0, 0
0, 0
0, 0
0, 0
0, 0
0, 0
0, 0
0, 0
0, 0
0, 0
0, 0
0, 0
0, 0
0, 0
0, 0
0, 0
0, 0
0, 0
0, 0
0, 0
0, 0
0, 0
0, 0
0, 0
0, 0
0, 0
0, 0
0, 0
0, 0
0, 0
0, 0
0, 0
0, 0
0, 0
0, 0
0, 0
0, 0
0, 0
0, 0
0, 0
0, 0
0, 0
0, 0
0, 0
0, 0
0, 0
0, 0
0, 0
0, 0
0, 0
0, 0
0, 0
0, 0
0, 0
0, 0
0, 0
0, 0
0, 0
0, 0
0, 0
0, 0
0, 0
0, 0
0, 0
0, 0
0, 0
0, 0
0, 0
0, 0
0, 0
0, 0
0, 0
0, 0
0, 0
0, 0
0, 0
0, 0
0, 0
0, 0
0, 0
0, 0
0, 0
0, 0
0, 0
0, 0
0, 0
0, 0
0, 0
0, 0
0, 0
0, 0
0, 0
0, 0
0, 0
0, 0
0, 0
0, 0
0, 0
0, 0
0, 0
0, 0
0, 0
0, 0
0, 0
0, 0
0, 0
0, 0
0, 0
0, 0
0, 0
0, 0
0, 0
0, 0
0, 0
0, 0
0, 0
0, 0
0, 0
0, 0
0, 0
0, 0
0, 0
0, 0
0, 0
0, 0
0, 0
0, 0
0, 0
0, 0
0, 0
0, 0
0, 0
0, 0
0, 0
0, 0
0, 0
0, 0
0, 0
0, 0
0, 0
0, 0
0, 0
0, 0
0, 0
0, 0
0, 0
0, 0
0, 0
0, 0
0, 0
0, 0
0, 0
0, 0
0, 0
0, 0
0, 0
0, 0
0, 0
0, 0
0, 0
0, 0
0, 0
0, 0
0, 0
0, 0
0, 0
0, 0
0, 0
0, 0
0, 0
0, 0
0, 0
0, 0
0, 0
0, 0
0, 0
0, 0
0, 0
0, 0
0, 0
0, 0
0, 0
0, 0
0, 0
0, 0
0, 0
0, 0
0, 0
0, 0
0, 0
0, 0
0, 0
0, 0
0, 0
0, 0
0, 0
0, 0
0, 0
0, 0
0, 0
0, 0
0, 0
0, 0
0, 0
0, 0
0, 0
0, 0
0, 0
0, 0
0, 0
0, 0
0, 0
0, 0
0, 0
0, 0
0, 0
0, 0
0, 0
0, 0
0, 0
0, 0
0, 0
0, 0
0, 0
0, 0
0, 0
0, 0
0, 0
0, 0
0, 0
0, 0
0, 0
0, 0
0, 0
0, 0
0, 0
0, 0
0, 0
0, 0
0, 0
0, 0
0, 0
0, 0
0, 0
0, 0
0, 0
0, 0
0, 0
0, 0
0, 0
0, 0
0, 0
0, 0
0, 0
0, 0
0, 0
0, 0
0, 0
0, 0
0, 0
0, 0
0, 0
0, 0
0, 0
0, 0
0, 0
0, 0
0, 0
0, 0
0, 0
0, 0
0, 0
0, 0
0, 0
0, 0
0, 0
0, 0
0, 0
0, 0
0, 0
0, 0
0, 0
0, 0
0, 0
0, 0
0, 0
0, 0
0, 0
0, 0
0, 0
0, 0
0, 0
0, 0
0, 0
0, 0
0, 0
0, 0
0, 0
0, 0
#ENDOFDATA     end of spectrum data