File: host_upload/06-09-2024/ps_0852/dump3/ps__0852shot_2040.msa
#FORMAT      : EMSA/MAS spectral data file
#VERSION     : TC202v2.0 PIXL
#TITLE       : N/A
#DATE        :       Date in the format DD-MMM-YYYY, for example 07-JUL-2010
#TIME        :             The time of day at which the spectrum was recorded, in 24-hour format
#OWNER       : PIXL Flight Model       (PIXL will use this to indicate which instrument took the data.)
#NPOINTS     : 4096     Number of data points in the spectrum (This can be zero for configuration only files)
#NCOLUMNS    : 2     Number of data columns in the spectrum (This can be zero for configuration only files)
#XUNITS      : eV
#YUNITS      : COUNTS
#DATATYPE    : YY
#XPERCHAN    : 7.862, 7.881   eV per channel (separate by commas if more than one detector)
#OFFSET      : 18.5, -22.4         eV of first channel  (separate by commas if more than one detector
#SIGNALTYPE  : XRF
#YP_TEMP     : 2.364
#LIVETIME    : 8.56645, 8.54964   seconds (separate by commas if more than one detector)
#REALTIME    : 10, 10.0   seconds (separate by commas if more than one detector)
#SPECTRUM    : start of spectrum data
0, 0
0, 0
0, 0
0, 0
0, 0
0, 0
0, 0
0, 0
0, 0
0, 0
0, 0
0, 0
0, 0
0, 0
0, 0
0, 0
0, 0
0, 0
0, 0
0, 0
0, 0
0, 0
0, 0
0, 0
0, 0
0, 0
0, 0
0, 0
0, 0
0, 1
0, 0
1, 0
1, 0
1, 0
0, 0
1, 1
0, 0
0, 1
1, 0
3, 2
1, 1
2, 2
1, 1
1, 1
2, 4
2, 0
0, 2
1, 1
9, 7
11, 17
21, 25
50, 45
67, 64
78, 73
84, 64
58, 71
62, 46
37, 35
31, 24
19, 10
8, 8
10, 7
3, 5
9, 3
6, 5
4, 5
10, 6
7, 11
31, 27
45, 38
107, 95
146, 174
253, 250
337, 327
401, 394
413, 376
396, 368
284, 295
221, 190
116, 113
71, 85
38, 41
15, 20
6, 13
8, 6
6, 3
3, 1
2, 1
0, 1
0, 3
1, 2
0, 0
2, 1
4, 3
2, 3
4, 4
5, 6
12, 7
7, 8
4, 16
9, 8
8, 7
7, 6
3, 5
2, 4
0, 8
8, 18
7, 14
11, 18
20, 19
28, 31
32, 29
62, 31
52, 46
65, 51
71, 54
73, 45
79, 37
59, 34
48, 32
34, 30
21, 24
19, 20
20, 18
15, 20
16, 16
10, 11
10, 7
12, 14
12, 1
6, 5
11, 2
4, 7
2, 0
4, 4
0, 2
3, 3
4, 4
5, 4
6, 2
4, 1
6, 1
3, 5
1, 2
2, 3
5, 2
0, 5
2, 2
2, 3
3, 6
3, 3
7, 16
7, 12
13, 16
16, 22
20, 16
13, 24
15, 14
21, 18
15, 20
18, 13
7, 10
7, 8
8, 1
7, 5
4, 5
4, 4
4, 5
6, 3
5, 8
5, 5
5, 7
9, 5
5, 10
3, 9
2, 9
4, 7
5, 12
2, 4
5, 7
3, 8
3, 7
1, 4
4, 9
1, 6
7, 2
7, 7
5, 3
7, 4
4, 11
5, 13
7, 8
4, 11
13, 27
12, 21
20, 20
21, 16
20, 22
22, 16
20, 21
18, 19
22, 7
12, 9
13, 7
10, 1
8, 11
9, 10
7, 6
9, 7
20, 4
10, 5
15, 8
10, 6
14, 10
11, 8
19, 4
8, 7
12, 5
5, 6
7, 2
3, 8
9, 9
9, 8
11, 5
5, 15
8, 10
12, 19
16, 30
17, 27
12, 23
17, 22
17, 26
16, 17
19, 16
19, 13
9, 7
12, 13
9, 13
13, 10
11, 9
18, 7
11, 12
17, 17
26, 26
20, 31
28, 31
33, 36
39, 54
50, 72
67, 66
55, 75
46, 66
58, 66
47, 49
45, 42
33, 43
24, 16
20, 12
19, 14
24, 18
18, 25
25, 38
44, 64
92, 118
148, 185
272, 351
512, 560
739, 959
1192, 1308
1500, 1718
1947, 2125
2282, 2304
2422, 2346
2302, 2183
2044, 1925
1781, 1447
1315, 1074
872, 713
610, 473
363, 260
229, 155
114, 77
43, 43
33, 29
19, 14
18, 12
24, 18
11, 12
12, 15
21, 22
27, 43
32, 66
48, 66
73, 97
103, 165
149, 206
214, 252
249, 289
293, 332
359, 364
362, 334
347, 333
344, 297
267, 225
215, 170
177, 102
111, 65
75, 44
51, 22
23, 12
19, 15
21, 5
20, 10
11, 6
13, 11
16, 10
16, 11
20, 13
16, 18
17, 10
21, 9
14, 4
21, 11
10, 5
10, 6
6, 9
12, 11
10, 4
7, 2
6, 2
5, 6
8, 2
8, 0
9, 3
4, 4
1, 5
1, 4
4, 5
6, 5
3, 4
9, 4
1, 7
2, 4
4, 4
4, 5
6, 5
10, 6
8, 7
6, 7
4, 9
5, 6
5, 5
2, 5
3, 6
4, 5
7, 5
10, 2
7, 9
4, 5
4, 2
5, 3
4, 5
2, 6
6, 7
3, 1
2, 3
3, 5
4, 9
3, 8
2, 9
1, 8
2, 3
8, 12
6, 3
7, 6
7, 1
7, 3
4, 5
5, 7
11, 6
5, 2
11, 4
9, 1
13, 1
7, 6
6, 4
9, 2
9, 5
8, 5
4, 6
9, 4
4, 5
5, 1
13, 5
8, 1
6, 5
8, 5
10, 3
8, 7
5, 3
7, 5
5, 3
3, 5
2, 1
4, 3
2, 4
4, 4
2, 1
0, 3
2, 3
0, 5
2, 1
4, 2
3, 5
6, 6
1, 6
3, 1
3, 9
7, 8
4, 10
2, 14
3, 9
5, 11
0, 7
3, 13
3, 8
5, 9
3, 4
7, 9
4, 6
4, 3
4, 2
3, 1
4, 8
3, 5
6, 5
2, 3
3, 4
4, 4
6, 3
4, 8
4, 5
4, 7
0, 8
7, 3
4, 2
1, 0
4, 1
1, 3
3, 4
3, 0
3, 3
2, 0
7, 3
7, 3
3, 2
4, 0
7, 2
3, 1
5, 4
4, 0
4, 4
3, 1
1, 1
2, 2
2, 4
3, 2
4, 2
3, 4
1, 4
2, 6
2, 4
1, 3
2, 4
2, 5
3, 1
2, 3
0, 6
3, 2
4, 1
1, 7
1, 5
3, 3
3, 3
2, 2
2, 4
2, 3
0, 2
4, 0
1, 2
1, 3
2, 3
2, 0
2, 1
4, 6
3, 1
2, 2
0, 3
2, 4
2, 0
1, 2
1, 3
2, 2
0, 2
2, 2
1, 2
1, 2
1, 2
2, 1
0, 2
2, 0
3, 2
2, 0
1, 3
3, 2
1, 1
2, 1
0, 2
1, 2
0, 3
1, 5
1, 2
1, 1
2, 2
2, 0
1, 4
0, 4
3, 2
1, 2
4, 3
1, 3
1, 1
2, 3
2, 1
2, 5
2, 4
4, 4
3, 1
2, 3
4, 0
5, 4
1, 4
4, 6
3, 8
5, 3
1, 3
5, 6
2, 1
4, 2
0, 1
1, 1
2, 1
2, 0
2, 2
0, 1
1, 1
0, 1
3, 1
2, 1
2, 0
2, 1
2, 1
1, 2
4, 2
1, 2
1, 6
2, 3
0, 2
4, 2
0, 2
2, 3
2, 4
2, 0
1, 1
2, 1
3, 2
1, 2
1, 1
3, 3
1, 1
0, 1
0, 2
1, 2
1, 0
0, 2
2, 2
0, 1
3, 1
2, 0
0, 3
0, 0
1, 0
1, 0
0, 1
0, 0
2, 1
1, 1
3, 1
0, 0
1, 1
2, 1
1, 0
1, 1
1, 1
0, 1
0, 1
1, 2
1, 1
0, 1
3, 1
0, 1
0, 1
2, 1
0, 1
1, 1
0, 0
2, 0
0, 0
2, 1
0, 1
1, 2
1, 0
0, 1
1, 0
0, 1
1, 0
2, 2
0, 0
2, 0
2, 2
0, 2
1, 1
2, 0
1, 0
2, 0
0, 1
0, 1
2, 0
1, 1
2, 2
1, 0
0, 1
0, 0
0, 0
1, 1
0, 0
0, 0
0, 0
2, 2
0, 1
2, 1
1, 0
0, 0
1, 1
0, 0
0, 1
0, 0
0, 0
0, 1
0, 1
1, 1
3, 0
0, 1
1, 1
0, 0
1, 0
1, 0
1, 2
2, 1
2, 0
2, 2
1, 1
0, 0
0, 0
0, 0
2, 0
0, 0
0, 1
0, 1
1, 0
0, 0
2, 1
2, 1
0, 1
0, 1
0, 1
1, 1
1, 0
0, 0
0, 0
2, 0
1, 0
0, 1
0, 0
1, 0
0, 1
0, 1
0, 1
0, 0
1, 0
0, 1
0, 0
0, 0
1, 0
1, 0
0, 0
1, 0
1, 1
0, 0
0, 0
0, 0
1, 0
1, 0
1, 0
0, 0
0, 1
2, 1
1, 1
0, 0
0, 1
0, 0
1, 0
0, 0
0, 0
0, 0
1, 0
1, 0
0, 0
0, 0
0, 1
1, 0
0, 0
0, 0
0, 0
0, 0
0, 0
0, 0
0, 0
0, 0
0, 0
0, 0
1, 1
1, 0
1, 0
1, 0
1, 0
0, 1
0, 0
0, 0
2, 0
0, 0
0, 0
0, 0
0, 0
1, 0
1, 0
0, 0
0, 0
0, 0
0, 1
0, 0
0, 0
0, 1
0, 0
0, 1
0, 0
0, 0
0, 0
0, 0
0, 0
0, 0
0, 0
1, 0
0, 0
1, 0
0, 0
0, 0
1, 0
0, 0
0, 0
0, 0
0, 0
0, 1
0, 0
2, 0
1, 0
0, 1
0, 1
1, 1
0, 0
0, 0
0, 1
0, 2
0, 0
1, 1
1, 2
0, 0
0, 0
1, 1
1, 2
0, 0
0, 1
0, 2
1, 0
0, 0
0, 1
0, 0
0, 0
3, 1
0, 0
0, 0
0, 1
0, 1
0, 0
0, 0
0, 0
0, 0
0, 0
1, 0
0, 0
0, 0
0, 1
0, 0
0, 0
0, 0
0, 0
0, 0
0, 0
0, 0
0, 0
0, 0
0, 0
0, 0
0, 1
0, 2
0, 1
0, 0
0, 0
0, 0
0, 1
0, 0
0, 0
0, 0
0, 0
0, 0
0, 0
2, 0
0, 0
0, 0
0, 0
0, 0
0, 1
1, 0
0, 0
0, 1
1, 1
0, 1
1, 0
1, 0
0, 0
0, 0
0, 0
0, 0
0, 0
0, 0
1, 0
0, 0
0, 0
0, 0
0, 0
0, 0
0, 0
0, 0
0, 0
0, 0
0, 0
0, 0
0, 0
0, 0
0, 0
0, 0
0, 0
0, 0
0, 0
0, 0
0, 0
0, 0
0, 0
0, 0
0, 0
0, 0
0, 0
0, 0
0, 0
0, 0
0, 0
0, 0
0, 1
0, 0
0, 0
0, 0
0, 0
0, 0
0, 0
0, 0
1, 0
0, 0
0, 0
0, 0
0, 0
0, 0
0, 0
0, 0
0, 0
0, 0
0, 0
0, 0
0, 0
0, 0
0, 0
0, 0
0, 0
0, 0
0, 0
0, 0
0, 0
0, 0
0, 0
1, 0
0, 0
0, 0
1, 1
0, 0
0, 0
0, 0
0, 0
0, 1
0, 0
0, 0
0, 0
0, 0
0, 0
0, 0
0, 0
0, 0
0, 0
0, 1
0, 0
0, 0
0, 0
0, 0
0, 0
0, 0
0, 0
1, 0
0, 0
0, 0
0, 0
0, 0
0, 0
0, 0
0, 0
0, 0
0, 0
0, 0
0, 0
0, 0
0, 0
0, 0
0, 0
0, 0
0, 0
0, 0
0, 0
0, 0
0, 0
0, 0
0, 0
0, 0
0, 0
0, 0
0, 0
0, 0
0, 0
0, 0
0, 0
0, 0
0, 0
0, 0
0, 0
0, 0
0, 0
0, 0
0, 1
0, 0
0, 0
0, 0
0, 0
0, 0
1, 0
0, 0
0, 0
0, 0
0, 0
0, 0
0, 0
0, 0
0, 0
0, 0
0, 0
0, 0
0, 0
0, 0
0, 0
0, 0
0, 0
0, 0
0, 0
0, 0
1, 0
0, 0
0, 0
0, 1
0, 0
0, 0
0, 0
0, 0
0, 0
0, 0
0, 0
0, 0
0, 0
0, 0
0, 0
0, 0
0, 0
0, 0
0, 0
0, 0
0, 0
0, 0
0, 0
0, 0
0, 0
0, 0
0, 0
0, 0
0, 0
0, 0
0, 0
0, 0
0, 0
0, 0
0, 0
0, 0
0, 0
0, 0
0, 0
0, 0
0, 0
0, 0
0, 0
0, 0
0, 0
0, 0
0, 0
0, 0
0, 0
0, 0
0, 0
0, 0
0, 0
0, 0
0, 0
0, 0
0, 0
0, 0
0, 0
0, 0
0, 0
0, 0
0, 0
0, 0
0, 0
0, 0
0, 0
0, 0
0, 0
0, 0
0, 0
0, 0
0, 0
0, 0
0, 0
0, 0
0, 0
0, 0
0, 0
0, 0
0, 0
0, 0
0, 0
0, 0
0, 0
0, 0
0, 0
0, 0
0, 0
0, 0
0, 0
0, 0
0, 0
0, 0
0, 0
0, 0
0, 0
0, 0
0, 0
0, 0
0, 0
0, 0
0, 0
0, 0
0, 0
0, 0
0, 0
0, 0
0, 0
0, 0
0, 0
0, 0
0, 0
0, 0
0, 0
0, 0
0, 0
0, 0
0, 0
0, 0
0, 0
0, 0
0, 0
0, 0
0, 0
0, 0
0, 0
0, 0
0, 0
0, 0
0, 0
0, 0
0, 0
0, 0
0, 0
0, 0
0, 0
0, 0
0, 0
0, 0
0, 0
0, 0
0, 0
0, 0
0, 0
0, 0
0, 0
0, 0
0, 0
0, 0
0, 0
0, 0
0, 0
0, 0
0, 0
0, 0
0, 0
0, 0
0, 0
0, 0
0, 0
0, 0
0, 0
0, 0
0, 0
0, 0
0, 0
0, 0
0, 0
0, 0
0, 0
0, 0
0, 0
0, 0
0, 0
0, 0
0, 0
0, 0
0, 0
0, 0
0, 0
0, 0
0, 0
0, 0
0, 0
0, 0
0, 0
0, 0
0, 0
0, 0
0, 0
0, 0
0, 0
0, 0
0, 0
0, 0
0, 0
0, 0
0, 0
0, 0
0, 0
0, 0
0, 0
0, 0
0, 0
0, 0
0, 0
0, 0
0, 0
0, 0
0, 0
0, 0
0, 0
0, 0
0, 0
0, 0
0, 0
0, 0
0, 0
0, 0
0, 0
0, 0
0, 0
0, 0
0, 0
0, 0
0, 0
0, 0
0, 0
0, 0
0, 0
0, 0
0, 0
0, 0
0, 0
0, 0
0, 0
0, 0
0, 0
0, 0
0, 0
0, 0
0, 0
0, 0
0, 0
0, 0
0, 0
0, 0
0, 0
0, 0
0, 0
0, 0
0, 0
0, 0
0, 0
0, 0
0, 0
0, 0
0, 0
0, 0
0, 0
0, 0
0, 0
0, 0
0, 0
0, 0
0, 0
0, 0
0, 0
0, 0
0, 0
0, 0
0, 0
0, 0
0, 0
0, 0
0, 0
0, 0
0, 0
0, 0
0, 0
0, 0
0, 0
0, 0
0, 0
0, 0
0, 0
0, 0
0, 0
0, 0
0, 0
0, 0
0, 0
0, 0
0, 0
0, 0
0, 0
0, 0
0, 0
0, 0
0, 0
0, 0
0, 0
0, 0
0, 0
0, 0
0, 0
0, 0
0, 0
0, 0
0, 0
0, 0
0, 0
0, 0
0, 0
0, 0
0, 0
0, 0
0, 0
0, 0
0, 0
0, 0
0, 0
0, 0
0, 0
0, 0
0, 0
0, 0
0, 0
0, 0
0, 0
0, 0
0, 0
0, 0
0, 0
0, 0
0, 0
0, 0
0, 0
0, 0
0, 0
0, 0
0, 0
0, 0
0, 0
0, 0
0, 0
#ENDOFDATA     end of spectrum data