File: host_upload/06-09-2024/ps_0852/dump3/ps__0852shot_2043.msa
#FORMAT      : EMSA/MAS spectral data file
#VERSION     : TC202v2.0 PIXL
#TITLE       : N/A
#DATE        :       Date in the format DD-MMM-YYYY, for example 07-JUL-2010
#TIME        :             The time of day at which the spectrum was recorded, in 24-hour format
#OWNER       : PIXL Flight Model       (PIXL will use this to indicate which instrument took the data.)
#NPOINTS     : 4096     Number of data points in the spectrum (This can be zero for configuration only files)
#NCOLUMNS    : 2     Number of data columns in the spectrum (This can be zero for configuration only files)
#XUNITS      : eV
#YUNITS      : COUNTS
#DATATYPE    : YY
#XPERCHAN    : 7.862, 7.881   eV per channel (separate by commas if more than one detector)
#OFFSET      : 18.5, -22.4         eV of first channel  (separate by commas if more than one detector
#SIGNALTYPE  : XRF
#YP_TEMP     : 2.396
#LIVETIME    : 8.55823, 8.35154   seconds (separate by commas if more than one detector)
#REALTIME    : 10, 10.0   seconds (separate by commas if more than one detector)
#SPECTRUM    : start of spectrum data
0, 0
0, 0
0, 0
0, 0
0, 0
0, 0
0, 0
0, 0
0, 0
0, 0
0, 0
0, 0
0, 0
0, 0
0, 0
0, 0
0, 0
0, 0
0, 0
0, 0
0, 0
0, 0
0, 0
0, 0
0, 0
0, 0
0, 0
0, 0
0, 0
0, 0
0, 1
0, 0
0, 0
0, 1
0, 1
0, 1
1, 1
2, 4
2, 3
1, 13
1, 11
1, 8
4, 15
1, 10
2, 7
3, 2
2, 1
6, 7
7, 11
11, 14
19, 23
34, 45
59, 58
69, 91
71, 74
89, 60
56, 48
46, 49
36, 28
15, 17
5, 10
4, 9
4, 4
4, 1
2, 4
3, 7
2, 3
13, 16
27, 24
38, 44
86, 88
161, 157
256, 240
346, 359
384, 388
416, 426
379, 362
307, 291
213, 191
116, 148
78, 61
43, 38
23, 19
7, 12
3, 6
4, 1
4, 2
1, 2
1, 1
3, 3
1, 1
2, 4
2, 3
2, 5
3, 3
3, 5
3, 6
5, 5
4, 4
3, 12
4, 5
3, 3
5, 9
6, 9
8, 11
0, 17
6, 35
6, 44
12, 63
12, 89
22, 175
22, 249
36, 355
40, 445
48, 510
51, 545
51, 522
42, 474
41, 286
36, 216
26, 107
23, 76
19, 38
13, 22
21, 18
19, 19
13, 10
13, 7
7, 7
9, 12
3, 4
10, 4
4, 2
3, 1
1, 0
2, 2
6, 2
3, 1
1, 0
3, 0
3, 1
3, 2
3, 0
3, 1
2, 4
5, 4
2, 1
2, 3
4, 1
4, 1
3, 3
8, 6
7, 9
6, 4
13, 14
11, 10
11, 16
13, 15
20, 13
24, 15
11, 16
11, 7
13, 12
23, 6
14, 4
19, 4
13, 6
16, 7
10, 4
9, 8
10, 5
10, 11
3, 4
7, 4
3, 8
3, 11
2, 7
5, 5
7, 7
2, 10
5, 8
5, 11
9, 4
2, 8
1, 11
4, 8
9, 7
6, 5
6, 7
10, 5
7, 9
14, 18
10, 17
12, 15
22, 16
11, 13
21, 7
26, 14
45, 15
61, 18
70, 14
69, 17
82, 12
81, 6
75, 9
75, 7
60, 1
56, 8
33, 5
38, 12
15, 10
21, 7
16, 8
9, 14
12, 8
13, 10
10, 8
7, 8
10, 6
4, 7
13, 5
4, 16
5, 6
4, 10
5, 18
6, 25
12, 17
13, 17
15, 22
19, 27
9, 37
16, 24
14, 25
16, 22
21, 19
15, 15
13, 16
18, 9
23, 18
31, 15
32, 8
43, 14
35, 15
68, 17
62, 29
59, 27
58, 33
75, 42
66, 56
52, 48
63, 64
64, 60
59, 61
60, 52
33, 41
40, 33
23, 33
33, 28
26, 16
14, 20
23, 27
20, 33
47, 72
99, 107
151, 195
261, 360
474, 609
771, 899
1106, 1316
1564, 1733
1893, 2089
2239, 2428
2326, 2374
2375, 2186
2063, 1921
1753, 1522
1339, 1048
943, 756
609, 453
364, 255
197, 141
127, 76
64, 51
35, 39
22, 19
15, 26
20, 28
20, 29
14, 26
20, 30
24, 36
39, 46
50, 44
69, 90
108, 126
151, 172
191, 220
228, 298
331, 315
327, 349
333, 338
331, 312
312, 280
224, 199
200, 173
152, 95
93, 67
56, 42
39, 22
16, 24
12, 6
5, 8
7, 5
9, 18
16, 15
12, 13
13, 16
5, 16
13, 24
14, 16
16, 18
7, 19
12, 16
8, 9
9, 4
5, 9
6, 9
6, 5
3, 5
3, 6
4, 5
2, 3
10, 6
9, 8
3, 7
5, 5
1, 4
4, 3
3, 6
3, 7
3, 8
4, 10
6, 15
7, 8
7, 11
6, 11
9, 8
9, 5
7, 8
5, 2
6, 3
3, 6
13, 10
12, 14
12, 12
9, 5
7, 7
7, 3
6, 3
7, 7
8, 5
10, 2
6, 1
5, 2
5, 2
1, 4
1, 4
5, 6
6, 3
5, 2
1, 3
8, 2
3, 8
2, 3
4, 6
2, 1
2, 1
4, 3
3, 1
2, 9
3, 5
4, 4
5, 2
4, 6
5, 5
7, 5
2, 4
4, 10
4, 11
6, 10
6, 15
5, 5
4, 2
7, 10
4, 3
6, 4
6, 3
6, 10
4, 1
9, 1
3, 2
4, 6
8, 5
7, 2
5, 1
10, 1
7, 4
4, 2
3, 8
3, 3
5, 3
3, 2
5, 3
4, 4
3, 4
3, 5
8, 5
4, 1
1, 3
5, 5
2, 2
4, 5
5, 3
1, 9
6, 7
2, 3
5, 5
3, 5
3, 6
4, 6
4, 8
2, 2
4, 3
5, 9
5, 4
4, 3
2, 6
4, 2
4, 0
4, 3
1, 2
0, 2
3, 2
4, 4
5, 0
2, 2
5, 4
3, 1
4, 3
6, 1
1, 3
4, 2
2, 1
2, 1
6, 2
6, 1
2, 1
7, 0
1, 2
3, 5
4, 1
1, 4
2, 4
4, 4
1, 0
3, 3
5, 3
5, 3
3, 0
1, 4
2, 5
2, 1
0, 3
1, 1
4, 4
5, 3
4, 1
3, 1
2, 1
2, 8
2, 3
2, 2
3, 2
6, 2
4, 4
1, 4
3, 1
6, 1
4, 3
3, 2
3, 1
2, 0
6, 6
2, 3
5, 3
5, 2
2, 3
5, 4
3, 2
3, 6
2, 6
0, 5
0, 3
2, 2
1, 2
3, 3
1, 3
1, 3
2, 2
3, 0
1, 4
1, 3
0, 5
1, 0
5, 2
4, 1
5, 3
3, 1
2, 2
3, 1
2, 4
3, 1
2, 5
1, 6
2, 7
3, 0
0, 1
0, 3
3, 2
0, 3
3, 6
0, 2
2, 1
0, 1
0, 4
6, 2
1, 4
4, 5
1, 7
4, 2
0, 8
2, 3
2, 5
4, 8
6, 5
3, 7
6, 3
3, 1
3, 2
6, 1
2, 3
2, 0
2, 1
1, 1
0, 0
3, 1
0, 0
2, 1
1, 2
3, 1
0, 1
2, 0
2, 2
2, 2
1, 0
0, 1
1, 1
1, 2
3, 1
5, 3
0, 0
2, 3
1, 1
1, 0
2, 1
2, 3
1, 2
1, 1
5, 1
4, 2
0, 1
3, 0
1, 0
1, 1
2, 0
0, 1
3, 1
1, 0
2, 0
1, 1
2, 0
0, 0
2, 0
4, 1
0, 1
1, 3
4, 2
0, 0
2, 3
2, 0
1, 1
1, 2
0, 1
0, 1
1, 1
0, 0
2, 1
0, 3
0, 0
2, 1
0, 0
1, 0
2, 2
0, 2
1, 2
1, 0
0, 2
0, 0
0, 0
1, 1
0, 2
1, 0
0, 0
1, 0
0, 0
0, 0
0, 1
0, 0
2, 1
0, 0
2, 0
3, 2
0, 0
0, 0
0, 0
1, 1
0, 1
2, 1
0, 0
2, 1
0, 2
0, 1
1, 1
0, 1
2, 1
1, 0
0, 2
0, 1
1, 3
1, 0
1, 2
1, 1
0, 0
0, 2
0, 0
1, 0
0, 1
1, 0
2, 0
2, 0
1, 0
1, 1
0, 2
0, 2
0, 0
0, 0
3, 0
1, 0
0, 1
1, 0
0, 0
0, 1
0, 0
1, 1
0, 0
1, 1
1, 2
0, 1
0, 2
2, 0
0, 1
1, 0
2, 1
1, 0
3, 0
0, 0
1, 0
0, 1
1, 0
0, 1
0, 0
0, 1
1, 0
2, 1
1, 0
0, 1
1, 0
1, 0
1, 1
0, 0
0, 0
1, 0
0, 0
0, 1
0, 0
0, 0
0, 2
1, 0
0, 2
0, 0
1, 1
2, 1
0, 0
0, 1
0, 1
0, 0
0, 0
1, 1
0, 1
0, 0
0, 1
0, 0
0, 0
0, 1
0, 0
1, 0
0, 1
0, 0
0, 0
0, 0
0, 2
0, 0
0, 1
1, 0
0, 1
0, 0
0, 0
0, 0
0, 0
0, 0
0, 0
0, 0
0, 0
0, 1
0, 0
0, 0
0, 0
0, 3
0, 0
1, 1
1, 0
1, 1
0, 0
0, 0
2, 0
0, 0
0, 0
0, 0
0, 0
0, 0
1, 1
1, 0
0, 0
0, 0
0, 0
0, 1
0, 1
0, 0
0, 2
0, 0
0, 0
0, 0
0, 1
0, 0
0, 0
0, 0
0, 0
0, 0
0, 1
0, 1
0, 0
0, 0
0, 0
1, 0
0, 0
0, 0
0, 0
1, 1
1, 0
0, 0
0, 0
1, 0
1, 0
0, 0
1, 2
0, 0
0, 0
1, 0
0, 1
0, 0
0, 0
0, 0
0, 0
1, 0
0, 0
0, 0
0, 1
0, 1
0, 1
0, 0
1, 0
0, 0
0, 0
0, 1
0, 0
0, 0
0, 0
0, 0
0, 1
1, 0
0, 1
0, 0
0, 0
0, 0
0, 0
0, 0
0, 0
0, 0
0, 0
0, 0
0, 0
0, 0
0, 0
0, 0
0, 0
0, 0
0, 0
0, 0
0, 0
1, 0
0, 0
0, 0
1, 0
1, 0
0, 0
0, 0
1, 0
1, 0
0, 0
0, 1
0, 0
0, 0
0, 0
0, 0
0, 0
1, 0
0, 0
0, 0
0, 0
1, 1
0, 0
0, 0
0, 0
0, 0
0, 0
0, 0
1, 0
0, 0
0, 0
0, 1
0, 0
0, 0
0, 0
0, 1
0, 0
0, 0
0, 0
0, 0
0, 0
0, 0
1, 0
0, 0
0, 0
0, 0
0, 0
0, 0
0, 0
0, 1
0, 0
0, 0
0, 0
0, 0
0, 1
0, 0
0, 1
0, 0
0, 0
0, 1
0, 0
0, 0
0, 0
0, 0
0, 0
1, 0
0, 0
0, 1
0, 0
0, 0
0, 0
0, 0
0, 0
0, 0
0, 0
0, 0
0, 0
0, 0
0, 0
0, 0
0, 0
0, 0
0, 0
0, 0
0, 0
0, 0
0, 0
0, 1
0, 0
0, 0
0, 0
0, 0
0, 0
0, 0
0, 0
0, 0
0, 0
0, 0
0, 0
0, 0
0, 0
0, 0
0, 0
0, 0
0, 0
0, 0
0, 0
1, 0
0, 0
0, 0
0, 0
0, 0
0, 0
0, 0
0, 0
0, 0
0, 0
0, 0
0, 0
0, 0
0, 0
0, 0
0, 0
0, 0
0, 0
0, 0
0, 0
0, 0
0, 0
0, 0
0, 0
0, 0
0, 0
0, 0
0, 0
0, 0
0, 0
0, 0
0, 0
0, 0
0, 0
0, 0
0, 0
0, 0
0, 0
0, 0
0, 0
0, 0
0, 0
0, 0
0, 0
0, 0
0, 0
0, 0
0, 0
0, 0
0, 0
0, 0
0, 0
0, 0
0, 0
0, 0
0, 0
0, 0
0, 0
0, 0
0, 0
0, 0
0, 0
0, 0
0, 0
0, 0
0, 0
0, 0
0, 0
0, 0
0, 0
0, 0
0, 0
0, 0
0, 0
0, 0
0, 0
0, 0
0, 0
0, 0
0, 0
0, 0
0, 0
0, 0
0, 0
0, 0
0, 0
0, 0
0, 0
0, 0
0, 0
0, 0
0, 0
0, 0
0, 0
0, 0
0, 0
0, 0
0, 0
0, 0
0, 0
0, 0
0, 0
0, 0
0, 0
0, 0
0, 0
0, 0
0, 0
0, 0
0, 0
0, 0
0, 0
0, 0
0, 0
0, 0
0, 0
0, 0
0, 0
0, 0
0, 0
0, 0
0, 0
0, 0
0, 0
0, 0
0, 0
0, 0
0, 0
0, 0
0, 0
0, 0
0, 0
0, 0
0, 0
0, 0
0, 0
0, 0
0, 0
0, 0
0, 0
0, 0
0, 0
0, 0
0, 0
0, 0
0, 0
0, 0
0, 0
0, 0
0, 0
0, 0
0, 0
0, 0
0, 0
0, 0
0, 0
0, 0
0, 0
0, 0
0, 0
0, 0
0, 0
0, 0
0, 0
0, 0
0, 0
0, 0
0, 0
0, 0
0, 0
0, 0
0, 0
0, 0
0, 0
0, 0
0, 0
0, 0
0, 0
0, 0
0, 0
0, 0
0, 0
0, 0
0, 0
0, 0
0, 0
0, 0
0, 0
0, 0
0, 0
0, 0
0, 0
0, 0
0, 0
0, 0
0, 0
0, 0
0, 0
0, 0
0, 0
0, 0
0, 0
0, 0
0, 0
0, 0
0, 0
0, 0
0, 0
0, 0
0, 0
0, 0
0, 0
0, 0
0, 0
0, 0
0, 0
0, 0
0, 0
0, 0
0, 0
0, 0
0, 0
0, 0
0, 0
0, 0
0, 0
0, 0
0, 0
0, 0
0, 0
0, 0
0, 0
0, 0
0, 0
0, 0
0, 0
0, 0
0, 0
0, 0
0, 0
0, 0
0, 0
0, 0
0, 0
0, 0
0, 0
0, 0
0, 0
0, 0
0, 0
0, 0
0, 0
0, 0
0, 0
0, 0
0, 0
0, 0
0, 0
0, 0
0, 0
0, 0
0, 0
0, 0
0, 0
0, 0
0, 0
0, 0
0, 0
0, 0
0, 0
0, 0
0, 0
0, 0
0, 0
0, 0
0, 0
0, 0
0, 0
0, 0
0, 0
0, 0
0, 0
0, 0
0, 0
0, 0
0, 0
0, 0
0, 0
0, 0
0, 0
0, 0
0, 0
0, 0
0, 0
0, 0
0, 0
0, 0
0, 0
0, 0
0, 0
0, 0
0, 0
0, 0
0, 0
0, 0
0, 0
0, 0
0, 0
0, 0
0, 0
0, 0
0, 0
0, 0
0, 0
0, 0
0, 0
0, 0
0, 0
0, 0
0, 0
0, 0
0, 0
0, 0
0, 0
0, 0
0, 0
0, 0
0, 0
0, 0
0, 0
0, 0
0, 0
0, 0
0, 0
0, 0
0, 0
0, 0
0, 0
0, 0
0, 0
0, 0
0, 0
0, 0
0, 0
0, 0
0, 0
0, 0
0, 0
0, 0
0, 0
0, 0
0, 0
0, 0
0, 0
0, 0
0, 0
0, 0
0, 0
0, 0
0, 0
0, 0
0, 0
0, 0
0, 0
0, 0
0, 0
0, 0
0, 0
0, 0
0, 0
0, 0
0, 0
0, 0
0, 0
0, 0
0, 0
0, 0
0, 0
0, 0
0, 0
0, 0
0, 0
0, 0
0, 0
0, 0
0, 0
0, 0
0, 0
0, 0
0, 0
0, 0
0, 0
0, 0
0, 0
0, 0
0, 0
0, 0
0, 0
0, 0
0, 0
0, 0
0, 0
0, 0
0, 0
0, 0
0, 0
0, 0
0, 0
0, 0
0, 0
0, 0
0, 0
0, 0
0, 0
0, 0
0, 0
0, 0
0, 0
0, 0
0, 0
0, 0
#ENDOFDATA     end of spectrum data