File: host_upload/06-09-2024/ps_0852/dump3/ps__0852shot_2545.msa
#FORMAT      : EMSA/MAS spectral data file
#VERSION     : TC202v2.0 PIXL
#TITLE       : N/A
#DATE        :       Date in the format DD-MMM-YYYY, for example 07-JUL-2010
#TIME        :             The time of day at which the spectrum was recorded, in 24-hour format
#OWNER       : PIXL Flight Model       (PIXL will use this to indicate which instrument took the data.)
#NPOINTS     : 4096     Number of data points in the spectrum (This can be zero for configuration only files)
#NCOLUMNS    : 2     Number of data columns in the spectrum (This can be zero for configuration only files)
#XUNITS      : eV
#YUNITS      : COUNTS
#DATATYPE    : YY
#XPERCHAN    : 7.862, 7.881   eV per channel (separate by commas if more than one detector)
#OFFSET      : 18.5, -22.4         eV of first channel  (separate by commas if more than one detector
#SIGNALTYPE  : XRF
#YP_TEMP     : 2.139
#LIVETIME    : 8.5526, 8.55228   seconds (separate by commas if more than one detector)
#REALTIME    : 10, 10.0   seconds (separate by commas if more than one detector)
#SPECTRUM    : start of spectrum data
0, 0
0, 0
0, 0
0, 0
0, 0
0, 0
0, 0
0, 0
0, 0
0, 0
0, 0
0, 0
0, 0
0, 0
0, 0
0, 0
0, 0
0, 0
0, 0
0, 0
0, 0
0, 0
0, 0
0, 0
0, 0
0, 0
0, 0
0, 0
0, 0
0, 0
0, 0
0, 0
0, 0
0, 0
0, 0
1, 0
0, 1
0, 2
0, 1
1, 1
2, 1
0, 0
2, 2
1, 2
2, 1
2, 1
1, 3
3, 2
7, 4
14, 8
26, 23
47, 36
63, 53
79, 74
101, 76
81, 71
80, 66
53, 42
28, 26
14, 11
10, 5
6, 4
5, 1
4, 1
4, 3
6, 4
6, 6
5, 9
23, 22
52, 49
107, 106
161, 170
299, 263
357, 340
478, 382
461, 372
425, 347
301, 249
241, 202
135, 117
72, 63
38, 39
15, 12
15, 7
0, 3
4, 2
1, 0
0, 2
2, 1
3, 0
1, 0
2, 1
1, 0
3, 0
2, 1
3, 1
2, 2
1, 3
6, 6
1, 2
7, 3
0, 4
4, 3
0, 3
3, 4
3, 0
2, 8
6, 10
12, 3
15, 14
13, 23
40, 37
41, 51
51, 51
67, 83
66, 86
72, 95
66, 71
50, 74
39, 45
28, 49
19, 31
23, 27
16, 28
16, 23
15, 19
14, 11
8, 8
17, 8
4, 7
6, 2
3, 2
3, 4
4, 3
4, 2
6, 3
3, 2
1, 3
2, 1
2, 1
3, 2
3, 2
1, 2
3, 0
1, 1
3, 4
1, 1
1, 1
1, 3
1, 2
3, 1
8, 5
8, 6
17, 18
21, 18
29, 26
39, 19
33, 35
27, 21
28, 26
24, 16
17, 14
17, 8
12, 5
5, 4
11, 0
13, 5
6, 3
11, 6
13, 6
12, 11
13, 6
15, 7
21, 7
33, 5
33, 6
48, 4
37, 5
39, 2
32, 5
25, 5
15, 2
17, 3
9, 1
12, 3
11, 2
12, 3
9, 6
6, 4
7, 6
12, 7
14, 5
13, 8
16, 6
19, 20
19, 5
16, 12
15, 24
19, 26
11, 48
17, 44
14, 55
12, 71
4, 64
10, 68
5, 76
5, 41
9, 36
4, 33
6, 20
7, 15
2, 9
7, 8
7, 4
7, 7
4, 4
6, 2
5, 3
4, 3
6, 4
5, 3
8, 6
4, 7
5, 7
6, 10
10, 14
9, 9
10, 11
22, 16
26, 14
33, 21
24, 20
28, 12
33, 10
46, 8
40, 12
49, 8
43, 6
41, 8
43, 8
32, 10
26, 2
21, 9
19, 12
15, 20
26, 21
31, 26
35, 31
55, 51
61, 56
60, 66
77, 51
60, 58
52, 39
55, 29
50, 31
46, 33
44, 24
29, 26
23, 29
32, 36
27, 40
50, 75
73, 92
161, 176
280, 359
452, 557
790, 907
1187, 1241
1574, 1665
2049, 1977
2358, 2241
2528, 2252
2420, 2149
2199, 1873
1804, 1377
1310, 1042
868, 689
597, 377
361, 247
163, 143
95, 75
67, 43
33, 29
25, 20
29, 11
26, 15
32, 18
42, 19
41, 16
54, 18
84, 44
67, 62
99, 75
141, 122
182, 157
200, 213
310, 272
343, 356
344, 334
374, 338
346, 313
307, 232
242, 209
173, 164
114, 95
78, 59
52, 39
44, 29
17, 11
4, 7
8, 8
6, 10
5, 7
8, 10
6, 14
18, 12
15, 12
10, 12
16, 14
12, 4
10, 8
6, 5
11, 3
6, 6
2, 6
5, 9
2, 7
5, 2
2, 3
5, 3
7, 0
10, 7
6, 5
8, 1
9, 5
4, 5
6, 4
10, 5
9, 11
2, 8
9, 5
12, 9
6, 3
12, 6
18, 7
15, 11
25, 5
29, 4
46, 6
50, 7
58, 9
38, 10
64, 11
44, 13
45, 12
38, 11
32, 12
10, 9
17, 13
9, 14
10, 10
8, 10
4, 9
4, 11
4, 4
2, 4
6, 2
2, 2
7, 3
5, 5
5, 2
5, 2
4, 5
9, 0
3, 3
2, 3
4, 6
1, 1
3, 1
4, 2
2, 2
4, 4
0, 2
5, 5
2, 3
2, 5
2, 3
2, 7
3, 2
5, 3
3, 5
4, 4
2, 3
5, 4
5, 1
7, 7
5, 3
4, 6
2, 4
1, 5
2, 4
1, 5
1, 9
5, 4
2, 5
3, 7
2, 1
3, 5
7, 3
2, 5
5, 1
4, 3
4, 2
6, 9
3, 6
2, 4
1, 2
4, 4
3, 3
0, 3
6, 5
2, 4
4, 4
2, 3
3, 0
2, 3
3, 3
5, 5
3, 4
3, 3
4, 4
2, 4
5, 3
6, 7
3, 6
7, 6
4, 5
3, 4
2, 3
4, 5
4, 3
11, 2
3, 5
2, 0
6, 1
4, 3
4, 1
6, 1
4, 1
2, 4
5, 2
5, 4
1, 2
7, 4
0, 4
1, 3
1, 2
4, 7
2, 6
4, 4
5, 6
3, 3
3, 3
3, 1
2, 4
3, 6
4, 1
3, 0
4, 3
9, 4
2, 1
7, 2
3, 1
2, 3
3, 0
4, 4
0, 2
3, 1
1, 2
6, 1
3, 3
6, 3
2, 0
0, 1
1, 3
1, 1
2, 4
1, 1
2, 1
1, 5
1, 0
1, 0
1, 3
6, 0
6, 0
2, 1
1, 4
0, 3
3, 2
5, 3
3, 1
1, 0
1, 2
2, 3
1, 4
4, 3
4, 1
4, 5
0, 1
0, 1
2, 1
1, 3
1, 5
3, 6
1, 1
4, 3
4, 3
1, 1
1, 3
3, 0
2, 1
2, 1
5, 1
3, 3
1, 3
1, 0
1, 1
4, 4
3, 2
4, 3
2, 1
2, 2
5, 2
2, 1
3, 0
1, 3
3, 2
3, 4
4, 3
2, 6
3, 2
6, 5
10, 4
6, 3
2, 1
3, 5
2, 2
2, 2
1, 1
3, 2
2, 1
0, 2
1, 1
1, 3
3, 1
1, 0
1, 5
0, 1
1, 2
1, 1
4, 2
4, 1
3, 3
1, 1
2, 2
4, 2
3, 5
1, 5
2, 2
1, 3
3, 3
1, 1
0, 5
0, 2
4, 2
0, 2
2, 0
1, 1
0, 0
3, 1
1, 1
0, 3
1, 3
2, 0
5, 1
2, 0
2, 1
0, 3
3, 1
2, 0
3, 0
2, 2
1, 0
2, 0
2, 1
1, 0
2, 1
0, 1
0, 1
1, 1
0, 0
1, 0
1, 2
1, 1
3, 2
0, 1
0, 2
1, 0
1, 1
1, 0
1, 1
1, 0
0, 2
1, 0
2, 1
2, 1
0, 1
0, 2
2, 2
0, 0
1, 0
0, 0
1, 0
0, 0
0, 2
0, 0
0, 1
1, 2
0, 0
1, 0
0, 1
1, 0
0, 1
0, 0
2, 0
1, 2
1, 1
0, 0
1, 0
4, 1
1, 1
1, 2
1, 1
0, 1
1, 0
1, 1
0, 2
1, 0
1, 1
3, 1
2, 0
0, 0
0, 2
0, 0
0, 0
0, 1
0, 1
1, 1
0, 1
2, 1
1, 1
2, 1
2, 0
1, 0
2, 1
0, 1
0, 0
0, 1
0, 0
1, 1
1, 0
0, 0
0, 0
0, 0
0, 0
0, 1
0, 1
2, 0
0, 0
0, 0
1, 0
0, 0
0, 0
1, 0
1, 0
1, 0
1, 1
2, 0
1, 0
1, 1
0, 1
1, 0
1, 1
0, 0
0, 1
1, 0
1, 0
2, 1
0, 0
0, 0
0, 0
0, 0
0, 1
1, 0
0, 0
0, 1
0, 0
1, 0
1, 0
0, 1
0, 1
0, 1
0, 1
0, 0
1, 0
0, 1
0, 0
1, 0
0, 1
0, 0
1, 0
1, 0
0, 0
0, 1
0, 0
0, 1
0, 0
0, 0
0, 0
2, 0
0, 0
0, 0
0, 0
0, 0
0, 0
1, 0
1, 0
0, 0
0, 0
0, 1
1, 1
0, 1
1, 0
0, 0
1, 0
1, 1
0, 0
0, 0
0, 0
0, 0
1, 0
0, 1
0, 0
0, 1
0, 1
0, 1
0, 0
0, 0
1, 0
0, 0
0, 2
0, 2
0, 0
0, 1
1, 0
0, 0
1, 0
1, 0
0, 0
0, 0
0, 1
1, 0
1, 0
0, 0
0, 1
0, 2
0, 2
1, 0
0, 0
1, 0
0, 0
0, 1
0, 1
0, 0
0, 0
1, 0
0, 1
0, 1
0, 2
0, 1
0, 0
1, 0
0, 1
0, 1
0, 0
0, 1
0, 1
0, 1
0, 0
0, 0
0, 0
0, 0
0, 0
0, 0
0, 0
0, 0
0, 2
0, 1
0, 0
0, 1
0, 1
0, 0
0, 0
0, 0
1, 0
0, 0
0, 1
0, 0
0, 0
0, 0
1, 0
0, 0
0, 0
0, 0
0, 1
0, 1
0, 0
0, 0
1, 0
0, 0
0, 1
0, 1
0, 0
0, 0
1, 0
0, 0
0, 0
0, 0
0, 0
1, 0
0, 0
0, 0
1, 1
0, 0
0, 1
0, 0
1, 1
0, 0
0, 0
0, 0
0, 0
1, 0
0, 0
0, 0
0, 0
0, 0
0, 0
0, 0
0, 0
0, 0
1, 0
0, 0
1, 0
1, 0
0, 0
0, 0
0, 0
0, 0
1, 0
0, 0
0, 0
1, 0
0, 0
0, 0
0, 0
0, 0
0, 0
0, 1
0, 0
0, 0
0, 0
0, 0
0, 0
0, 0
0, 0
0, 0
0, 0
0, 0
0, 0
0, 0
0, 0
0, 0
0, 0
0, 0
0, 0
1, 1
0, 0
0, 0
0, 0
0, 0
0, 1
0, 0
0, 0
0, 0
0, 0
0, 0
1, 0
0, 0
0, 0
1, 0
0, 0
0, 0
1, 0
0, 1
0, 0
0, 0
0, 0
0, 0
0, 1
0, 0
0, 0
1, 0
0, 0
0, 0
0, 0
0, 0
0, 0
0, 0
0, 0
0, 0
0, 0
0, 0
0, 0
0, 0
0, 0
0, 0
0, 0
0, 0
0, 0
0, 0
0, 0
1, 0
0, 0
0, 0
0, 0
0, 0
0, 0
0, 0
0, 0
0, 0
0, 0
0, 0
0, 0
0, 0
0, 0
0, 0
0, 0
0, 0
0, 0
0, 0
0, 0
0, 0
0, 0
0, 0
0, 0
0, 0
0, 0
0, 0
0, 0
0, 0
0, 0
0, 0
0, 0
0, 0
0, 0
0, 0
0, 0
0, 0
0, 0
0, 0
0, 0
0, 0
0, 0
0, 0
0, 0
0, 0
0, 0
0, 0
0, 0
0, 0
0, 1
0, 0
0, 0
0, 0
0, 0
0, 1
0, 0
0, 0
0, 0
0, 0
0, 0
0, 0
0, 0
0, 0
0, 0
0, 0
0, 0
0, 0
0, 0
0, 0
0, 0
0, 0
0, 1
0, 0
0, 0
0, 0
0, 0
0, 0
0, 0
0, 0
0, 0
0, 0
0, 0
0, 0
0, 0
0, 0
0, 0
0, 0
0, 0
0, 0
0, 0
0, 0
0, 0
0, 0
0, 0
0, 0
0, 0
0, 0
0, 0
0, 0
0, 0
0, 0
0, 0
0, 0
0, 0
0, 0
0, 0
0, 0
0, 0
0, 0
0, 0
1, 0
0, 0
0, 0
0, 0
0, 0
0, 0
0, 0
0, 0
0, 0
0, 0
0, 0
0, 0
0, 0
0, 0
0, 0
0, 0
0, 0
0, 0
0, 0
0, 0
0, 0
0, 0
0, 0
0, 0
0, 0
0, 0
0, 0
0, 0
0, 0
0, 0
0, 0
0, 0
0, 0
0, 0
0, 0
0, 0
0, 0
0, 0
0, 0
0, 0
0, 0
0, 0
0, 0
0, 0
0, 0
0, 0
0, 0
0, 0
0, 0
0, 0
0, 0
0, 0
0, 0
0, 0
0, 0
0, 0
0, 0
0, 0
0, 0
0, 0
0, 0
0, 0
0, 0
0, 0
0, 0
0, 0
0, 0
0, 0
0, 0
0, 0
0, 0
0, 0
0, 0
0, 0
0, 0
0, 0
0, 0
0, 0
0, 0
0, 0
0, 0
0, 0
0, 0
0, 0
0, 0
0, 0
0, 0
0, 0
0, 0
0, 0
0, 0
0, 0
0, 0
0, 0
0, 0
0, 0
0, 0
0, 0
0, 0
0, 0
0, 0
0, 0
0, 0
0, 0
0, 0
0, 0
0, 0
0, 0
0, 0
0, 0
0, 0
0, 0
0, 0
0, 0
0, 0
0, 0
0, 0
0, 0
0, 0
0, 0
0, 0
0, 0
0, 0
0, 0
0, 0
0, 0
0, 0
0, 0
0, 0
0, 0
0, 0
0, 0
0, 0
0, 0
0, 0
0, 0
0, 0
0, 0
0, 0
0, 0
0, 0
0, 0
0, 0
0, 0
0, 0
0, 0
0, 0
0, 0
0, 0
0, 0
0, 0
0, 0
0, 0
0, 0
0, 0
0, 0
0, 0
0, 0
0, 0
0, 0
0, 0
0, 0
0, 0
0, 0
0, 0
0, 0
0, 0
0, 0
0, 0
0, 0
0, 0
0, 0
0, 0
0, 0
0, 0
0, 0
0, 0
0, 0
0, 0
0, 0
0, 0
0, 0
0, 0
0, 0
0, 0
0, 0
0, 0
0, 0
0, 0
0, 0
0, 0
0, 0
0, 0
0, 0
0, 0
0, 0
0, 0
0, 0
0, 0
0, 0
0, 0
0, 0
0, 0
0, 0
0, 0
0, 0
0, 0
0, 0
0, 0
0, 0
0, 0
0, 0
0, 0
0, 0
0, 0
0, 0
0, 0
0, 0
0, 0
0, 0
0, 0
0, 0
0, 0
0, 0
0, 0
0, 0
0, 0
0, 0
0, 0
0, 0
0, 0
0, 0
0, 0
0, 0
0, 0
0, 0
0, 0
0, 0
0, 0
0, 0
0, 0
0, 0
0, 0
0, 0
0, 0
0, 0
0, 0
0, 0
0, 0
0, 0
0, 0
0, 0
0, 0
0, 0
0, 0
0, 0
0, 0
0, 0
0, 0
0, 0
0, 0
0, 0
0, 0
0, 0
0, 0
0, 0
0, 0
0, 0
0, 0
0, 0
0, 0
0, 0
0, 0
0, 0
0, 0
0, 0
0, 0
0, 0
0, 0
0, 0
0, 0
0, 0
0, 0
0, 0
0, 0
0, 0
0, 0
0, 0
0, 0
0, 0
0, 0
0, 0
0, 0
0, 0
0, 0
0, 0
0, 0
0, 0
0, 0
0, 0
0, 0
0, 0
0, 0
0, 0
0, 0
0, 0
0, 0
0, 0
0, 0
0, 0
0, 0
0, 0
0, 0
0, 0
#ENDOFDATA     end of spectrum data