File: host_upload/06-09-2024/ps_0852/dump3/ps__0852shot_2145.msa
#FORMAT      : EMSA/MAS spectral data file
#VERSION     : TC202v2.0 PIXL
#TITLE       : N/A
#DATE        :       Date in the format DD-MMM-YYYY, for example 07-JUL-2010
#TIME        :             The time of day at which the spectrum was recorded, in 24-hour format
#OWNER       : PIXL Flight Model       (PIXL will use this to indicate which instrument took the data.)
#NPOINTS     : 4096     Number of data points in the spectrum (This can be zero for configuration only files)
#NCOLUMNS    : 2     Number of data columns in the spectrum (This can be zero for configuration only files)
#XUNITS      : eV
#YUNITS      : COUNTS
#DATATYPE    : YY
#XPERCHAN    : 7.862, 7.881   eV per channel (separate by commas if more than one detector)
#OFFSET      : 18.5, -22.4         eV of first channel  (separate by commas if more than one detector
#SIGNALTYPE  : XRF
#YP_TEMP     : 2.043
#LIVETIME    : 8.56082, 8.56371   seconds (separate by commas if more than one detector)
#REALTIME    : 10, 10.0   seconds (separate by commas if more than one detector)
#SPECTRUM    : start of spectrum data
0, 0
0, 0
0, 0
0, 0
0, 0
0, 0
0, 0
0, 0
0, 0
0, 0
0, 0
0, 0
0, 0
0, 0
0, 0
0, 0
0, 0
0, 0
0, 0
0, 0
0, 0
0, 0
0, 0
0, 0
0, 0
0, 0
0, 0
0, 0
0, 0
0, 0
0, 0
0, 0
0, 0
1, 0
0, 0
0, 0
0, 0
0, 1
1, 0
0, 2
1, 0
1, 0
0, 0
1, 0
1, 1
1, 0
2, 2
7, 2
6, 5
17, 14
24, 30
33, 32
58, 44
52, 72
84, 81
77, 70
65, 58
49, 26
27, 21
7, 12
8, 7
6, 2
6, 3
4, 5
4, 3
5, 7
1, 5
7, 12
22, 18
44, 42
109, 101
179, 173
274, 307
409, 385
460, 437
452, 406
448, 398
338, 263
240, 199
152, 128
70, 86
46, 40
27, 13
20, 9
5, 4
6, 8
6, 6
3, 5
4, 0
1, 2
3, 0
0, 1
1, 3
2, 1
1, 1
3, 3
2, 5
4, 3
2, 4
6, 4
4, 2
1, 5
1, 2
4, 6
2, 5
3, 0
4, 5
3, 7
9, 16
21, 16
19, 25
31, 25
34, 26
44, 33
43, 44
53, 43
44, 50
45, 37
43, 37
52, 29
53, 26
50, 20
48, 13
28, 17
28, 13
19, 16
21, 13
18, 9
9, 9
9, 8
6, 8
4, 4
5, 4
4, 0
1, 1
2, 2
5, 3
4, 2
3, 6
5, 4
1, 2
1, 2
3, 3
2, 5
3, 4
1, 5
5, 6
2, 3
7, 7
16, 11
17, 25
31, 41
57, 51
97, 121
129, 143
169, 187
242, 237
256, 268
258, 226
183, 229
190, 160
123, 117
76, 67
56, 43
36, 28
16, 12
27, 16
17, 21
26, 18
31, 35
30, 39
36, 32
38, 43
37, 21
22, 28
21, 20
13, 13
12, 18
4, 5
8, 11
2, 6
3, 3
4, 4
3, 4
4, 3
5, 3
5, 7
9, 7
9, 10
7, 5
12, 12
12, 12
13, 7
18, 14
9, 18
20, 11
22, 10
21, 17
11, 15
12, 12
11, 12
11, 7
12, 10
9, 8
4, 10
8, 4
14, 3
16, 10
26, 5
21, 4
37, 5
30, 3
36, 9
24, 6
17, 4
16, 4
13, 8
13, 5
11, 4
6, 2
10, 5
6, 7
13, 10
10, 10
12, 11
12, 13
18, 21
13, 22
24, 32
26, 35
29, 31
28, 41
37, 30
36, 33
21, 28
23, 18
26, 20
15, 20
13, 8
18, 21
24, 13
5, 20
16, 17
27, 14
16, 24
24, 25
31, 27
30, 29
52, 52
56, 51
65, 56
47, 61
73, 42
52, 46
49, 30
33, 27
25, 22
17, 18
10, 16
14, 18
16, 20
14, 35
35, 44
62, 83
116, 150
222, 266
389, 424
584, 711
880, 1026
1218, 1351
1502, 1569
1755, 1763
1847, 1800
1885, 1697
1631, 1554
1320, 1165
1024, 863
742, 556
458, 379
279, 202
170, 109
72, 55
36, 32
29, 16
16, 17
9, 21
9, 19
17, 24
18, 30
14, 24
24, 30
30, 41
33, 63
53, 90
64, 94
132, 136
161, 176
236, 253
242, 286
250, 269
279, 312
274, 234
231, 212
178, 190
156, 139
103, 75
63, 41
32, 32
30, 25
8, 8
11, 11
6, 3
6, 6
5, 8
20, 14
7, 14
16, 8
18, 14
13, 23
9, 12
8, 14
14, 5
6, 15
6, 8
6, 6
9, 7
4, 7
5, 8
7, 8
4, 9
3, 4
7, 5
6, 8
4, 9
5, 3
4, 2
8, 7
4, 3
4, 6
4, 3
8, 6
6, 5
9, 11
6, 7
10, 3
7, 10
9, 7
5, 10
10, 12
8, 12
10, 8
15, 11
18, 9
11, 7
14, 8
16, 3
17, 2
9, 8
17, 5
5, 9
11, 5
5, 8
4, 3
8, 1
5, 5
8, 3
7, 2
5, 3
4, 1
6, 4
3, 3
2, 2
5, 5
1, 10
6, 3
2, 5
4, 7
3, 11
4, 9
1, 17
4, 13
5, 15
4, 15
3, 22
3, 23
6, 13
2, 16
3, 20
4, 19
6, 11
4, 8
6, 10
5, 3
4, 4
5, 7
3, 3
5, 5
5, 4
1, 5
3, 3
4, 2
6, 1
3, 2
4, 6
5, 2
3, 2
7, 5
2, 3
4, 2
4, 3
5, 2
3, 1
5, 5
4, 2
3, 3
10, 3
7, 4
4, 4
4, 6
5, 5
6, 7
14, 3
8, 2
5, 6
6, 5
6, 11
3, 9
5, 5
7, 6
7, 7
3, 5
5, 4
6, 6
2, 6
9, 2
2, 5
2, 3
1, 3
3, 2
2, 4
2, 3
4, 7
2, 3
3, 4
1, 4
2, 2
1, 2
2, 0
4, 1
4, 1
2, 6
2, 1
2, 3
1, 6
1, 3
2, 1
3, 3
4, 5
3, 2
6, 5
2, 3
4, 6
1, 3
1, 5
6, 4
5, 2
3, 5
3, 7
1, 4
4, 1
3, 9
2, 4
5, 7
1, 3
4, 7
3, 7
2, 4
4, 4
4, 8
3, 3
3, 4
3, 5
0, 0
2, 3
2, 0
3, 3
2, 2
2, 4
3, 1
3, 4
2, 4
4, 0
1, 4
1, 2
5, 3
2, 2
1, 1
2, 1
6, 2
6, 1
1, 3
4, 2
2, 1
0, 2
1, 2
0, 2
1, 1
2, 0
3, 6
0, 0
3, 1
3, 4
4, 4
4, 1
4, 1
1, 5
4, 2
1, 1
0, 4
5, 3
1, 4
2, 3
3, 2
6, 3
3, 4
1, 1
2, 0
3, 2
3, 0
3, 3
2, 3
4, 2
2, 1
3, 3
0, 2
0, 2
2, 1
0, 3
3, 1
3, 4
1, 4
6, 6
5, 6
4, 3
4, 5
3, 3
2, 3
0, 4
2, 3
2, 1
2, 2
1, 2
1, 0
2, 1
0, 0
1, 3
1, 4
0, 2
1, 2
3, 3
0, 3
0, 2
0, 2
1, 3
1, 3
1, 1
1, 2
0, 4
3, 3
3, 3
3, 2
2, 0
3, 2
2, 1
1, 1
3, 1
0, 1
3, 1
2, 0
0, 4
1, 1
3, 1
0, 1
0, 1
0, 3
0, 2
1, 2
0, 2
1, 3
2, 0
1, 0
0, 2
0, 0
3, 0
0, 1
0, 0
1, 0
1, 0
0, 2
2, 0
1, 0
0, 2
1, 2
1, 3
0, 1
1, 0
1, 1
1, 0
1, 0
1, 1
0, 1
0, 2
0, 2
1, 0
2, 1
0, 1
1, 1
1, 1
0, 0
0, 0
2, 1
0, 0
0, 1
0, 0
1, 0
0, 1
2, 1
1, 2
3, 0
0, 2
1, 1
2, 0
0, 1
1, 1
0, 4
0, 0
1, 1
0, 0
0, 0
0, 1
0, 0
1, 1
0, 1
2, 0
2, 2
0, 0
2, 0
0, 1
0, 0
1, 1
0, 1
2, 1
0, 1
0, 0
0, 2
1, 2
0, 1
2, 0
1, 0
1, 0
0, 0
0, 0
2, 0
0, 0
1, 0
0, 0
0, 1
0, 2
0, 1
0, 0
0, 0
0, 1
0, 0
1, 1
1, 0
0, 0
3, 0
1, 0
0, 1
2, 1
0, 0
1, 1
0, 2
0, 0
0, 0
1, 0
0, 0
0, 1
0, 2
0, 0
1, 0
0, 0
0, 1
0, 2
0, 1
2, 0
0, 0
1, 0
1, 0
1, 1
1, 0
1, 0
0, 1
0, 0
0, 0
0, 1
0, 1
0, 1
0, 0
0, 1
0, 0
0, 0
0, 0
1, 0
0, 1
0, 1
1, 0
1, 1
0, 0
0, 0
1, 0
0, 0
1, 0
0, 1
0, 0
1, 0
1, 1
0, 0
1, 0
0, 0
0, 0
0, 0
0, 0
0, 1
0, 0
0, 1
2, 0
0, 0
1, 0
0, 0
1, 0
1, 0
1, 0
0, 0
1, 0
0, 0
0, 0
0, 0
1, 0
0, 1
0, 1
0, 0
0, 0
0, 0
0, 0
0, 0
1, 1
0, 0
1, 0
0, 0
0, 0
0, 0
0, 0
0, 0
1, 0
0, 3
0, 0
0, 2
0, 0
0, 0
0, 0
0, 0
0, 0
0, 0
0, 0
0, 0
0, 1
0, 0
0, 0
0, 1
1, 0
1, 0
0, 0
0, 0
0, 1
0, 0
0, 0
0, 0
0, 0
0, 0
1, 0
0, 2
0, 2
0, 0
0, 0
0, 0
1, 0
0, 0
0, 0
0, 0
1, 0
0, 0
0, 0
0, 0
0, 0
0, 0
0, 0
2, 0
1, 0
0, 0
0, 0
0, 0
0, 0
0, 0
0, 0
0, 0
0, 0
0, 0
0, 0
0, 0
0, 0
0, 0
0, 1
0, 1
0, 0
0, 0
0, 0
0, 0
0, 0
0, 0
0, 0
0, 0
0, 0
1, 0
0, 0
0, 0
0, 0
0, 0
0, 0
0, 0
0, 0
0, 0
1, 0
1, 0
0, 0
0, 0
1, 0
0, 0
0, 2
0, 0
0, 0
0, 0
0, 0
0, 1
0, 2
0, 0
0, 0
0, 0
0, 0
0, 0
0, 0
0, 0
0, 0
0, 0
0, 0
0, 0
0, 0
0, 0
0, 0
0, 0
0, 0
0, 0
0, 0
0, 2
0, 0
0, 0
0, 0
0, 1
0, 0
0, 0
0, 0
0, 0
0, 0
0, 0
0, 0
0, 0
1, 0
1, 0
0, 0
0, 0
1, 0
0, 0
0, 0
0, 0
0, 0
0, 0
1, 0
0, 0
1, 0
0, 0
0, 0
0, 0
0, 0
0, 0
0, 0
0, 0
1, 0
0, 0
0, 0
0, 0
0, 0
0, 0
0, 0
0, 0
0, 0
1, 0
0, 0
0, 1
0, 1
0, 0
0, 0
0, 0
0, 0
0, 0
0, 0
0, 0
0, 0
0, 0
0, 0
0, 0
0, 0
0, 0
0, 0
0, 0
0, 0
0, 0
0, 0
0, 0
0, 0
1, 0
0, 0
0, 0
0, 0
0, 0
0, 0
0, 0
0, 0
0, 0
0, 0
0, 0
0, 0
0, 0
0, 0
0, 0
0, 0
0, 0
0, 0
0, 0
1, 0
0, 0
0, 0
0, 0
0, 0
0, 0
0, 0
0, 1
0, 0
0, 0
0, 0
0, 0
0, 0
0, 1
0, 0
0, 0
0, 0
0, 0
0, 1
0, 0
0, 0
0, 0
0, 0
0, 0
0, 0
0, 0
0, 0
0, 0
0, 0
0, 0
0, 0
0, 0
0, 0
0, 0
0, 0
0, 0
0, 0
0, 0
0, 0
0, 0
0, 0
0, 0
0, 0
0, 0
0, 0
0, 0
0, 0
0, 0
0, 0
0, 0
0, 0
0, 0
0, 0
0, 0
0, 0
0, 0
0, 0
0, 0
0, 0
0, 0
0, 0
0, 0
0, 0
0, 0
0, 0
0, 0
0, 0
0, 0
0, 0
0, 0
0, 0
0, 0
0, 0
0, 0
0, 0
0, 0
0, 0
0, 0
0, 0
0, 0
0, 0
0, 0
0, 0
0, 0
0, 0
0, 0
0, 0
0, 0
0, 0
0, 0
0, 0
0, 0
0, 0
0, 0
0, 0
0, 0
0, 0
0, 0
0, 0
0, 0
0, 0
0, 0
0, 0
0, 0
0, 0
0, 0
0, 0
0, 0
0, 0
0, 0
0, 0
0, 0
0, 0
0, 0
0, 0
0, 0
0, 0
0, 0
0, 0
0, 0
0, 0
0, 0
0, 0
0, 0
0, 0
0, 0
0, 0
0, 0
0, 0
0, 0
0, 0
0, 0
0, 0
0, 0
0, 0
0, 0
0, 0
0, 0
0, 0
0, 0
0, 0
0, 0
0, 0
0, 0
0, 0
0, 0
0, 0
0, 0
0, 0
0, 0
0, 0
0, 0
0, 0
0, 0
0, 0
0, 0
0, 0
0, 0
0, 0
0, 0
0, 0
0, 0
0, 0
0, 0
0, 0
0, 0
0, 0
0, 0
0, 0
0, 0
0, 0
0, 0
0, 0
0, 0
0, 0
0, 0
0, 0
0, 0
0, 0
0, 0
0, 0
0, 0
0, 0
0, 0
0, 0
0, 0
0, 0
0, 0
0, 0
0, 0
0, 0
0, 0
0, 0
0, 0
0, 0
0, 0
0, 0
0, 0
0, 0
0, 0
0, 0
0, 0
0, 0
0, 0
0, 0
0, 0
0, 0
0, 0
0, 0
0, 0
0, 0
0, 0
0, 0
0, 0
0, 0
0, 0
0, 0
0, 0
0, 0
0, 0
0, 0
0, 0
0, 0
0, 0
0, 0
0, 0
0, 0
0, 0
0, 0
0, 0
0, 0
0, 0
0, 0
0, 0
0, 0
0, 0
0, 0
0, 0
0, 0
0, 0
0, 0
0, 0
0, 0
0, 0
0, 0
0, 0
0, 0
0, 0
0, 0
0, 0
0, 0
0, 0
0, 0
0, 0
0, 0
0, 0
0, 0
0, 0
0, 0
0, 0
0, 0
0, 0
0, 0
0, 0
0, 0
0, 0
0, 0
0, 0
0, 0
0, 0
0, 0
0, 0
0, 0
0, 0
0, 0
0, 0
0, 0
0, 0
0, 0
0, 0
0, 0
0, 0
0, 0
0, 0
0, 0
0, 0
0, 0
0, 0
0, 0
0, 0
0, 0
0, 0
0, 0
0, 0
0, 0
0, 0
0, 0
0, 0
0, 0
0, 0
0, 0
0, 0
0, 0
0, 0
0, 0
0, 0
0, 0
0, 0
0, 0
0, 0
0, 0
0, 0
0, 0
0, 0
0, 0
0, 0
0, 0
0, 0
0, 0
0, 0
0, 0
0, 0
0, 0
0, 0
0, 0
0, 0
0, 0
0, 0
0, 0
0, 0
0, 0
0, 0
0, 0
0, 0
0, 0
0, 0
0, 0
0, 0
0, 0
0, 0
0, 0
0, 0
0, 0
0, 0
0, 0
0, 0
0, 0
0, 0
0, 0
0, 0
0, 0
0, 0
0, 0
0, 0
0, 0
0, 0
0, 0
0, 0
0, 0
0, 0
0, 0
0, 0
0, 0
0, 0
0, 0
0, 0
0, 0
0, 0
0, 0
0, 0
0, 0
0, 0
0, 0
0, 0
0, 0
0, 0
0, 0
0, 0
0, 0
0, 0
0, 0
0, 0
0, 0
0, 0
0, 0
0, 0
0, 0
0, 0
0, 0
0, 0
0, 0
0, 0
0, 0
0, 0
0, 0
0, 0
0, 0
0, 0
0, 0
0, 0
0, 0
0, 0
0, 0
0, 0
0, 0
0, 0
0, 0
0, 0
#ENDOFDATA     end of spectrum data