File: host_upload/06-09-2024/ps_0852/dump3/ps__0852shot_2463.msa
#FORMAT      : EMSA/MAS spectral data file
#VERSION     : TC202v2.0 PIXL
#TITLE       : N/A
#DATE        :       Date in the format DD-MMM-YYYY, for example 07-JUL-2010
#TIME        :             The time of day at which the spectrum was recorded, in 24-hour format
#OWNER       : PIXL Flight Model       (PIXL will use this to indicate which instrument took the data.)
#NPOINTS     : 4096     Number of data points in the spectrum (This can be zero for configuration only files)
#NCOLUMNS    : 2     Number of data columns in the spectrum (This can be zero for configuration only files)
#XUNITS      : eV
#YUNITS      : COUNTS
#DATATYPE    : YY
#XPERCHAN    : 7.862, 7.881   eV per channel (separate by commas if more than one detector)
#OFFSET      : 18.5, -22.4         eV of first channel  (separate by commas if more than one detector
#SIGNALTYPE  : XRF
#YP_TEMP     : 2.46
#LIVETIME    : 8.56581, 8.54834   seconds (separate by commas if more than one detector)
#REALTIME    : 10, 10.0   seconds (separate by commas if more than one detector)
#SPECTRUM    : start of spectrum data
0, 0
0, 0
0, 0
0, 0
0, 0
0, 0
0, 0
0, 0
0, 0
0, 0
0, 0
0, 0
0, 0
0, 0
0, 0
0, 0
0, 0
0, 0
0, 0
0, 0
0, 0
0, 0
0, 0
0, 0
0, 0
0, 0
0, 0
0, 0
0, 0
0, 0
0, 0
0, 0
0, 0
0, 1
2, 0
0, 0
3, 0
1, 0
0, 1
3, 1
4, 0
2, 0
1, 0
3, 2
0, 0
1, 0
2, 2
3, 4
3, 3
14, 13
13, 28
23, 42
42, 59
70, 83
73, 91
80, 67
48, 66
41, 41
13, 26
14, 15
8, 5
6, 1
5, 4
3, 4
4, 6
2, 12
10, 6
8, 8
25, 26
33, 43
64, 96
174, 155
222, 268
338, 337
390, 396
396, 429
336, 331
261, 247
190, 188
117, 120
74, 63
46, 39
21, 17
16, 11
5, 4
2, 4
2, 2
0, 2
2, 1
3, 1
2, 1
2, 4
11, 7
22, 17
39, 40
60, 67
88, 103
130, 122
128, 133
136, 157
133, 103
112, 101
76, 75
51, 48
21, 44
19, 24
17, 16
21, 20
32, 12
46, 20
66, 26
96, 30
136, 37
183, 40
221, 38
205, 48
202, 40
143, 41
107, 28
94, 34
49, 26
44, 25
24, 13
23, 25
16, 23
15, 11
6, 15
10, 15
13, 5
12, 9
10, 3
7, 5
4, 0
1, 2
2, 2
0, 4
4, 1
4, 1
3, 2
2, 7
3, 4
8, 4
4, 4
3, 4
2, 5
4, 2
5, 0
4, 2
4, 4
3, 1
1, 4
7, 5
7, 7
14, 20
23, 31
33, 43
34, 51
39, 50
33, 35
39, 35
35, 38
11, 17
18, 16
10, 9
4, 13
3, 4
3, 5
5, 7
4, 9
7, 13
7, 13
12, 11
21, 9
17, 11
10, 11
12, 8
23, 4
13, 10
22, 8
11, 8
14, 8
10, 6
11, 3
8, 2
6, 3
7, 8
3, 5
7, 6
10, 6
2, 2
6, 7
7, 10
12, 18
7, 15
8, 18
6, 17
16, 12
17, 15
15, 16
8, 9
9, 14
14, 11
10, 8
6, 4
10, 5
7, 3
3, 4
5, 3
7, 6
3, 6
8, 6
2, 4
3, 7
0, 3
9, 8
7, 3
6, 2
4, 7
2, 8
12, 2
5, 5
5, 7
3, 6
6, 7
15, 6
12, 17
13, 12
11, 9
15, 20
24, 13
17, 16
18, 14
18, 10
13, 13
16, 12
12, 13
11, 7
9, 11
13, 12
9, 19
12, 12
18, 11
18, 11
35, 26
63, 17
93, 24
113, 33
130, 48
134, 49
153, 56
162, 43
114, 54
106, 42
91, 54
69, 44
55, 42
27, 27
29, 20
18, 23
20, 13
20, 20
20, 31
35, 50
75, 83
125, 191
291, 343
449, 552
714, 904
1076, 1218
1459, 1770
1859, 1994
2186, 2203
2271, 2402
2230, 2074
2022, 1932
1610, 1398
1259, 1043
849, 683
569, 388
300, 262
178, 127
100, 80
46, 43
33, 22
22, 15
18, 19
17, 13
14, 11
16, 14
31, 24
36, 18
37, 28
53, 56
67, 85
73, 117
135, 158
209, 207
246, 293
267, 364
313, 342
312, 362
320, 321
285, 261
231, 222
162, 145
114, 84
75, 63
42, 32
32, 19
17, 15
11, 10
3, 6
5, 12
6, 9
7, 6
12, 10
10, 12
11, 13
23, 14
7, 10
14, 9
11, 7
10, 7
8, 8
2, 5
5, 4
5, 3
2, 4
12, 6
5, 3
2, 3
3, 3
3, 3
4, 3
1, 1
6, 1
5, 3
3, 5
2, 3
4, 6
7, 2
4, 9
4, 9
5, 8
7, 13
9, 4
8, 6
8, 5
4, 7
5, 7
5, 10
10, 6
8, 6
7, 4
4, 7
2, 5
6, 13
3, 4
3, 4
5, 2
5, 5
4, 2
4, 5
4, 6
7, 7
4, 9
5, 7
9, 4
8, 5
8, 6
9, 4
6, 1
1, 7
7, 3
3, 5
2, 4
6, 5
2, 2
1, 0
5, 1
2, 6
5, 3
4, 3
3, 3
3, 3
5, 3
3, 6
4, 6
4, 1
1, 3
4, 3
0, 7
4, 3
9, 0
7, 5
2, 4
4, 1
9, 3
12, 1
9, 2
12, 5
9, 2
4, 5
8, 4
9, 3
7, 4
3, 6
6, 3
0, 6
2, 5
3, 5
1, 4
3, 0
1, 3
2, 3
6, 0
2, 1
2, 3
3, 4
8, 3
3, 7
1, 3
4, 8
5, 1
2, 3
6, 3
3, 2
5, 6
2, 3
4, 4
1, 4
1, 3
3, 3
1, 4
3, 4
1, 5
3, 5
1, 3
0, 7
0, 3
5, 4
3, 2
2, 4
3, 2
3, 2
3, 3
1, 2
3, 3
5, 4
4, 3
2, 1
2, 1
1, 3
2, 7
2, 1
5, 2
2, 3
3, 4
2, 1
5, 8
2, 1
2, 3
1, 5
5, 5
2, 3
3, 2
2, 2
5, 3
3, 0
4, 1
2, 2
2, 2
4, 3
0, 2
4, 0
8, 2
2, 1
1, 2
4, 3
4, 0
3, 1
5, 1
3, 5
2, 2
4, 3
6, 2
1, 4
3, 3
5, 2
5, 1
5, 2
4, 2
4, 1
6, 2
3, 4
6, 1
3, 1
6, 4
11, 4
7, 3
7, 2
6, 3
10, 3
4, 0
2, 4
1, 1
4, 3
5, 2
4, 6
0, 2
2, 2
6, 2
5, 2
5, 2
1, 7
1, 0
2, 0
1, 0
3, 2
6, 1
0, 3
1, 1
2, 1
3, 2
1, 2
3, 0
4, 2
3, 4
2, 0
2, 2
2, 0
0, 1
3, 4
2, 1
0, 1
1, 0
2, 3
2, 4
1, 1
2, 3
4, 5
9, 2
2, 2
5, 7
5, 3
5, 9
3, 4
5, 2
5, 3
5, 0
1, 1
0, 3
0, 2
2, 2
2, 0
0, 1
1, 1
3, 1
2, 1
3, 2
0, 2
3, 0
1, 2
1, 4
2, 0
0, 5
1, 0
2, 2
0, 2
1, 2
3, 3
3, 4
3, 2
0, 3
2, 3
4, 3
2, 1
0, 2
0, 2
2, 0
2, 1
0, 4
1, 1
3, 0
1, 2
1, 0
4, 1
1, 1
1, 2
2, 0
1, 1
1, 0
3, 0
2, 2
0, 3
1, 2
1, 1
0, 1
0, 2
2, 1
0, 0
0, 1
1, 0
0, 0
2, 0
3, 0
0, 4
0, 0
0, 0
0, 1
0, 2
2, 1
0, 1
1, 0
1, 1
0, 0
1, 2
0, 1
0, 0
0, 0
2, 0
2, 0
0, 1
1, 0
0, 1
2, 2
0, 0
1, 1
2, 1
1, 1
1, 0
1, 1
2, 1
0, 0
0, 0
1, 0
2, 0
1, 0
1, 0
2, 0
2, 0
0, 0
0, 0
1, 3
0, 1
0, 0
0, 2
0, 0
1, 1
1, 1
1, 0
0, 0
1, 2
3, 0
2, 1
1, 0
1, 1
0, 0
0, 0
1, 0
0, 1
3, 1
1, 0
1, 2
0, 0
0, 0
0, 0
1, 0
0, 0
1, 1
0, 1
2, 0
1, 0
0, 0
0, 2
0, 0
1, 1
1, 3
0, 0
1, 0
0, 0
1, 0
0, 1
0, 0
0, 0
0, 0
0, 0
0, 0
0, 2
1, 0
0, 0
0, 0
1, 0
0, 0
0, 0
1, 0
0, 1
0, 0
0, 1
0, 0
2, 0
1, 1
0, 0
0, 1
0, 1
1, 0
0, 1
0, 1
0, 0
0, 0
0, 1
0, 0
0, 1
0, 0
0, 2
1, 2
0, 0
0, 0
0, 0
0, 0
0, 0
0, 1
0, 0
0, 0
0, 1
0, 1
0, 0
0, 0
1, 0
0, 0
1, 0
0, 1
0, 0
0, 0
1, 0
1, 0
0, 1
0, 0
1, 0
2, 0
0, 0
0, 0
0, 0
0, 1
0, 1
0, 0
0, 0
1, 1
1, 1
0, 0
0, 0
0, 0
0, 2
1, 0
1, 0
0, 0
0, 0
1, 0
0, 1
0, 1
0, 1
0, 0
0, 0
0, 0
0, 0
0, 0
0, 0
0, 0
0, 0
0, 1
0, 1
0, 0
0, 0
1, 0
0, 1
0, 0
0, 3
1, 0
1, 0
0, 0
0, 1
0, 0
0, 0
0, 0
0, 0
1, 1
1, 0
0, 0
0, 2
0, 0
0, 0
1, 0
1, 0
0, 0
1, 0
0, 0
0, 2
0, 1
0, 0
1, 0
0, 0
1, 0
0, 0
0, 0
1, 0
0, 0
0, 0
0, 0
0, 0
0, 0
0, 0
0, 0
1, 0
2, 0
1, 0
2, 1
0, 0
0, 0
0, 0
0, 0
0, 0
0, 0
0, 0
0, 1
0, 0
0, 0
0, 0
1, 0
0, 0
0, 0
0, 0
0, 0
1, 0
0, 0
0, 1
0, 0
0, 0
0, 0
0, 0
0, 1
0, 0
0, 0
0, 0
0, 0
0, 0
0, 0
0, 0
0, 1
0, 1
1, 1
0, 0
0, 0
0, 0
0, 1
0, 0
0, 0
0, 1
1, 0
0, 0
0, 0
0, 0
0, 0
0, 0
0, 0
0, 0
0, 0
0, 0
1, 1
0, 0
0, 0
0, 0
0, 0
0, 0
0, 0
0, 0
0, 0
0, 0
0, 0
0, 0
0, 0
0, 0
0, 0
0, 1
0, 0
0, 0
0, 1
0, 0
0, 0
0, 0
0, 0
0, 0
0, 0
0, 0
0, 0
0, 1
0, 0
0, 0
0, 0
0, 1
0, 0
0, 0
0, 0
0, 0
0, 0
0, 0
0, 0
0, 0
0, 1
0, 0
0, 0
0, 0
0, 0
0, 0
0, 0
0, 1
0, 0
0, 0
0, 0
0, 0
0, 0
0, 0
1, 0
0, 0
0, 0
1, 0
0, 0
0, 0
0, 0
0, 0
0, 0
0, 0
0, 0
0, 0
0, 0
0, 0
0, 0
1, 0
0, 1
0, 0
0, 0
0, 0
0, 0
0, 0
0, 0
0, 0
0, 0
0, 0
0, 0
0, 0
0, 0
0, 0
0, 0
0, 0
0, 0
0, 0
0, 0
0, 1
0, 0
0, 0
0, 0
0, 0
0, 0
0, 0
0, 0
0, 0
0, 0
1, 0
0, 0
0, 0
0, 0
0, 0
0, 0
0, 0
0, 0
0, 0
0, 0
0, 0
0, 0
0, 0
0, 0
0, 0
0, 0
0, 0
0, 0
0, 0
0, 0
0, 0
0, 0
0, 0
0, 1
0, 0
0, 0
0, 0
0, 0
0, 0
0, 0
0, 0
0, 0
0, 0
0, 0
0, 0
0, 0
0, 0
0, 0
0, 0
0, 0
0, 0
1, 0
0, 0
0, 0
0, 0
0, 0
0, 0
0, 0
0, 0
0, 0
0, 0
0, 0
0, 0
0, 0
0, 0
0, 0
0, 0
0, 0
0, 0
0, 0
0, 0
0, 0
0, 0
0, 0
0, 0
0, 0
0, 0
0, 0
0, 0
0, 0
0, 0
0, 0
0, 0
0, 0
0, 0
0, 0
0, 0
0, 0
0, 0
0, 0
0, 0
0, 0
1, 0
0, 0
0, 0
0, 0
0, 0
0, 0
0, 0
0, 0
0, 0
0, 0
0, 0
0, 0
0, 0
0, 0
0, 0
0, 0
0, 0
0, 0
0, 0
0, 0
0, 0
0, 0
0, 0
0, 0
0, 0
0, 0
0, 0
0, 0
0, 0
0, 0
0, 0
0, 0
0, 0
0, 0
0, 0
0, 0
0, 0
0, 0
0, 0
0, 0
0, 0
0, 0
0, 0
0, 0
0, 0
0, 0
0, 0
0, 0
0, 0
0, 0
0, 0
0, 0
0, 0
0, 0
0, 0
0, 0
0, 0
0, 0
0, 0
0, 0
0, 0
0, 0
0, 0
0, 0
0, 0
0, 0
0, 0
0, 0
0, 0
0, 0
0, 0
0, 0
0, 0
0, 0
0, 0
0, 0
0, 0
0, 0
0, 0
0, 0
0, 0
0, 0
0, 0
0, 0
0, 0
0, 0
0, 0
0, 0
0, 0
0, 0
0, 0
0, 0
0, 0
0, 0
0, 0
0, 0
0, 0
0, 0
0, 0
0, 0
0, 0
0, 0
0, 0
0, 0
0, 0
0, 0
0, 0
0, 0
0, 0
0, 0
0, 0
0, 0
0, 0
0, 0
0, 0
0, 0
0, 0
0, 0
0, 0
0, 0
0, 0
0, 0
0, 0
0, 0
0, 0
0, 0
0, 0
0, 0
0, 0
0, 0
0, 0
0, 0
0, 0
0, 0
0, 0
0, 0
0, 0
0, 0
0, 0
0, 0
0, 0
0, 0
0, 0
0, 0
0, 0
0, 0
0, 0
0, 0
0, 0
0, 0
0, 0
0, 0
0, 0
0, 0
0, 0
0, 0
0, 0
0, 0
0, 0
0, 0
0, 0
0, 0
0, 0
0, 0
0, 0
0, 0
0, 0
0, 0
0, 0
0, 0
0, 0
0, 0
0, 0
0, 0
0, 0
0, 0
0, 0
0, 0
0, 0
0, 0
0, 0
0, 0
0, 0
0, 0
0, 0
0, 0
0, 0
0, 0
0, 0
0, 0
0, 0
0, 0
0, 0
0, 0
0, 0
0, 0
0, 0
0, 0
0, 0
0, 0
0, 0
0, 0
0, 0
0, 0
0, 0
0, 0
0, 0
0, 0
0, 0
0, 0
0, 0
0, 0
0, 0
0, 0
0, 0
0, 0
0, 0
0, 0
0, 0
0, 0
0, 0
0, 0
0, 0
0, 0
0, 0
0, 0
0, 0
0, 0
0, 0
0, 0
0, 0
0, 0
0, 0
0, 0
0, 0
0, 0
0, 0
0, 0
0, 0
0, 0
0, 0
0, 0
0, 0
0, 0
0, 0
0, 0
0, 0
0, 0
0, 0
0, 0
0, 0
0, 0
0, 0
0, 0
0, 0
0, 0
0, 0
0, 0
0, 0
0, 0
0, 0
0, 0
0, 0
0, 0
0, 0
0, 0
0, 0
0, 0
0, 0
0, 0
0, 0
0, 0
0, 0
0, 0
0, 0
0, 0
0, 0
0, 0
0, 0
0, 0
0, 0
0, 0
0, 0
0, 0
0, 0
0, 0
0, 0
0, 0
0, 0
0, 0
0, 0
0, 0
0, 0
0, 0
0, 0
0, 0
0, 0
0, 0
0, 0
0, 0
0, 0
0, 0
0, 0
0, 0
0, 0
0, 0
0, 0
0, 0
0, 0
0, 0
0, 0
0, 0
0, 0
0, 0
0, 0
0, 0
0, 0
0, 0
#ENDOFDATA     end of spectrum data