File: host_upload/06-09-2024/ps_0852/dump3/ps__0852shot_2391.msa
#FORMAT      : EMSA/MAS spectral data file
#VERSION     : TC202v2.0 PIXL
#TITLE       : N/A
#DATE        :       Date in the format DD-MMM-YYYY, for example 07-JUL-2010
#TIME        :             The time of day at which the spectrum was recorded, in 24-hour format
#OWNER       : PIXL Flight Model       (PIXL will use this to indicate which instrument took the data.)
#NPOINTS     : 4096     Number of data points in the spectrum (This can be zero for configuration only files)
#NCOLUMNS    : 2     Number of data columns in the spectrum (This can be zero for configuration only files)
#XUNITS      : eV
#YUNITS      : COUNTS
#DATATYPE    : YY
#XPERCHAN    : 7.862, 7.881   eV per channel (separate by commas if more than one detector)
#OFFSET      : 18.5, -22.4         eV of first channel  (separate by commas if more than one detector
#SIGNALTYPE  : XRF
#YP_TEMP     : 2.524
#LIVETIME    : 8.56068, 8.53618   seconds (separate by commas if more than one detector)
#REALTIME    : 10, 10.0   seconds (separate by commas if more than one detector)
#SPECTRUM    : start of spectrum data
0, 0
0, 0
0, 0
0, 0
0, 0
0, 0
0, 0
0, 0
0, 0
0, 0
0, 0
0, 0
0, 0
0, 0
0, 0
0, 0
0, 0
0, 0
0, 0
0, 0
0, 0
0, 0
0, 0
0, 0
0, 0
0, 0
0, 0
0, 0
0, 0
0, 0
0, 0
1, 0
0, 0
2, 0
1, 0
0, 0
0, 0
1, 1
1, 0
3, 0
0, 1
2, 1
1, 0
1, 1
2, 0
1, 1
3, 1
2, 1
7, 3
14, 6
26, 18
40, 40
63, 52
87, 74
86, 68
89, 85
77, 49
46, 27
40, 18
19, 19
8, 7
6, 6
3, 2
5, 1
11, 6
8, 4
9, 3
10, 8
23, 23
40, 39
94, 94
206, 173
292, 232
416, 320
397, 386
466, 382
408, 362
314, 237
234, 188
144, 95
72, 55
41, 27
23, 21
11, 6
5, 6
7, 3
3, 1
2, 2
2, 0
4, 0
2, 1
0, 0
2, 4
2, 3
2, 2
2, 5
5, 4
8, 10
19, 13
7, 7
11, 4
8, 7
9, 10
10, 4
4, 6
2, 3
7, 3
5, 5
7, 7
11, 10
17, 15
24, 22
42, 20
39, 27
42, 25
62, 22
55, 21
35, 23
40, 28
28, 21
26, 17
30, 18
32, 20
34, 14
28, 15
30, 9
30, 9
19, 6
20, 9
7, 4
6, 1
3, 6
2, 1
3, 5
5, 4
1, 1
0, 2
1, 6
3, 6
1, 5
3, 2
1, 4
1, 2
3, 0
0, 2
3, 1
1, 2
3, 3
0, 4
2, 3
3, 5
3, 3
5, 5
7, 10
7, 6
20, 13
31, 15
26, 14
27, 22
18, 25
27, 16
13, 5
6, 4
5, 3
6, 4
2, 1
5, 4
5, 3
6, 3
7, 3
8, 5
12, 5
7, 3
13, 7
13, 5
17, 2
8, 3
14, 6
18, 4
25, 4
19, 1
46, 3
63, 3
63, 3
81, 6
97, 4
98, 3
80, 4
64, 11
53, 11
41, 10
38, 10
23, 13
21, 12
16, 11
17, 16
11, 8
8, 16
14, 9
13, 17
17, 13
8, 13
12, 11
10, 12
5, 17
6, 13
3, 16
6, 11
7, 19
4, 4
5, 8
2, 11
6, 5
5, 10
3, 12
2, 11
6, 17
4, 7
9, 9
6, 16
6, 9
3, 7
10, 5
8, 4
9, 10
10, 8
12, 9
8, 12
9, 16
20, 14
24, 11
18, 20
16, 14
19, 6
29, 11
28, 8
30, 9
34, 9
53, 6
49, 5
58, 4
68, 8
75, 7
92, 15
124, 18
124, 16
138, 26
152, 26
149, 40
179, 50
140, 65
103, 49
127, 43
78, 31
59, 45
52, 31
33, 28
29, 13
17, 15
18, 12
23, 16
22, 27
48, 67
89, 91
163, 150
299, 307
492, 552
847, 900
1191, 1265
1807, 1734
2124, 1971
2461, 2195
2534, 2290
2593, 2094
2260, 1726
1875, 1387
1377, 955
974, 683
607, 398
416, 204
223, 126
99, 48
55, 39
42, 20
17, 15
22, 12
16, 15
17, 17
15, 19
16, 16
29, 36
26, 28
54, 56
75, 75
95, 126
151, 164
248, 227
263, 282
333, 323
386, 329
359, 309
372, 286
345, 237
285, 185
229, 139
142, 111
123, 57
60, 36
47, 23
26, 15
13, 8
15, 7
9, 6
16, 7
16, 10
14, 10
11, 17
15, 13
14, 19
11, 12
15, 14
7, 7
5, 7
8, 6
5, 8
3, 2
2, 6
5, 3
3, 3
4, 3
3, 2
3, 3
4, 5
2, 1
2, 1
0, 9
8, 7
3, 3
5, 7
1, 1
2, 6
5, 10
9, 12
9, 10
6, 6
7, 6
5, 4
6, 4
8, 7
9, 7
6, 6
9, 3
5, 9
9, 7
4, 6
7, 14
8, 17
11, 17
5, 14
6, 15
9, 22
12, 21
6, 18
10, 14
10, 18
19, 16
17, 15
18, 6
17, 9
25, 3
18, 10
15, 6
13, 10
18, 13
11, 16
10, 15
9, 12
14, 20
8, 21
3, 17
1, 16
2, 18
3, 15
4, 12
5, 10
4, 6
1, 1
3, 4
5, 5
5, 3
5, 1
3, 4
3, 1
1, 2
1, 7
4, 3
5, 2
2, 4
3, 2
1, 1
4, 4
3, 2
1, 2
2, 6
4, 4
7, 2
3, 2
4, 3
1, 0
4, 4
3, 2
3, 5
2, 4
1, 4
6, 8
1, 6
4, 7
5, 5
4, 3
2, 5
3, 4
3, 2
7, 1
2, 4
7, 7
7, 4
6, 5
4, 9
7, 10
11, 15
9, 9
12, 12
16, 18
6, 14
10, 25
12, 14
10, 15
11, 12
5, 9
1, 4
4, 10
5, 5
2, 9
3, 2
1, 4
1, 0
2, 4
2, 4
2, 5
3, 4
3, 1
0, 2
3, 5
1, 4
4, 4
4, 6
2, 2
4, 3
3, 1
3, 1
1, 3
4, 3
3, 3
4, 3
2, 2
2, 6
2, 1
2, 0
2, 3
3, 1
3, 0
5, 1
1, 0
4, 2
4, 5
5, 1
2, 2
7, 2
2, 0
2, 3
2, 3
5, 3
3, 0
2, 4
9, 2
3, 3
4, 1
3, 1
4, 1
3, 1
2, 4
1, 1
6, 5
1, 1
2, 1
4, 3
0, 2
3, 0
1, 0
1, 4
5, 1
2, 1
2, 5
4, 3
1, 0
1, 1
1, 6
1, 3
3, 3
5, 1
2, 2
2, 1
3, 3
2, 2
3, 1
0, 1
2, 1
4, 2
2, 6
1, 0
1, 3
0, 0
2, 3
1, 5
1, 3
1, 0
0, 3
2, 2
1, 3
2, 1
2, 1
3, 1
3, 1
1, 1
3, 1
6, 3
1, 4
3, 4
2, 0
5, 4
4, 1
6, 2
1, 5
5, 2
2, 5
6, 1
1, 4
2, 6
1, 2
10, 0
3, 1
4, 2
2, 0
4, 0
5, 1
4, 1
4, 1
4, 2
1, 2
4, 3
1, 3
1, 1
0, 0
1, 0
1, 1
1, 0
1, 3
2, 2
2, 2
3, 3
3, 2
2, 0
1, 0
2, 1
0, 0
2, 2
1, 3
1, 1
1, 0
0, 0
1, 0
3, 0
0, 2
2, 1
0, 0
0, 1
0, 2
1, 1
0, 1
2, 1
0, 3
1, 0
0, 4
0, 0
1, 1
1, 0
0, 2
1, 0
2, 1
0, 1
0, 1
0, 0
1, 1
2, 2
0, 1
0, 0
1, 0
1, 0
0, 1
1, 0
0, 0
2, 1
0, 0
0, 0
0, 1
0, 0
3, 0
0, 2
0, 2
0, 1
0, 1
2, 0
1, 1
2, 1
2, 0
0, 2
0, 0
0, 1
0, 0
0, 0
0, 1
0, 1
1, 0
0, 0
0, 3
1, 0
1, 2
1, 1
0, 1
0, 0
0, 0
0, 1
1, 0
1, 0
1, 0
1, 0
0, 0
0, 0
0, 0
0, 0
1, 0
0, 1
2, 1
0, 1
0, 0
1, 0
0, 0
0, 0
0, 2
0, 0
1, 1
1, 0
0, 1
1, 1
0, 0
2, 0
0, 1
0, 0
0, 0
0, 1
1, 2
2, 0
0, 2
0, 1
2, 0
0, 0
1, 0
0, 0
0, 1
0, 0
1, 0
0, 0
0, 0
0, 2
0, 1
2, 0
0, 0
2, 1
0, 1
0, 0
0, 1
0, 0
1, 0
0, 0
0, 0
2, 0
0, 1
0, 0
0, 0
0, 2
0, 1
1, 0
1, 1
0, 0
0, 1
0, 0
0, 0
1, 2
0, 0
1, 2
0, 0
0, 1
0, 0
0, 0
0, 0
0, 0
0, 1
0, 1
0, 0
2, 1
0, 1
1, 1
1, 0
0, 0
0, 0
0, 0
1, 0
1, 0
0, 0
0, 0
1, 1
0, 0
0, 0
0, 0
1, 0
0, 1
1, 0
0, 0
0, 0
0, 0
0, 0
1, 0
1, 1
0, 0
0, 1
0, 1
0, 1
0, 0
1, 0
0, 0
0, 2
0, 0
0, 0
0, 1
0, 0
1, 2
0, 0
0, 0
2, 0
0, 0
0, 0
1, 0
0, 0
0, 1
2, 0
1, 1
0, 0
1, 0
0, 0
1, 0
0, 0
0, 1
2, 0
0, 0
0, 0
0, 0
0, 0
0, 0
0, 1
0, 0
0, 0
0, 0
0, 0
0, 0
0, 0
0, 0
0, 0
1, 0
0, 0
0, 0
1, 1
0, 1
1, 0
1, 0
0, 0
0, 0
1, 1
0, 0
0, 0
1, 0
0, 0
0, 0
1, 1
0, 1
0, 0
0, 0
0, 0
0, 0
0, 0
0, 0
0, 0
0, 0
0, 0
0, 0
0, 1
0, 0
0, 0
1, 1
0, 0
0, 0
0, 0
0, 0
0, 0
0, 0
2, 0
0, 0
1, 0
0, 1
0, 0
0, 1
0, 0
1, 0
1, 0
0, 0
0, 1
0, 0
0, 0
1, 0
0, 0
0, 0
0, 0
0, 0
0, 0
1, 1
0, 0
0, 0
1, 1
0, 0
0, 2
0, 0
0, 0
0, 0
0, 0
0, 1
1, 0
0, 0
1, 0
0, 0
0, 0
0, 1
1, 2
0, 1
0, 0
0, 0
0, 0
0, 0
0, 0
0, 0
1, 0
0, 0
0, 0
0, 0
0, 0
1, 0
0, 0
0, 0
0, 0
0, 1
0, 0
1, 0
0, 0
0, 0
0, 1
0, 0
0, 0
0, 0
0, 0
0, 0
0, 0
0, 0
0, 0
0, 0
0, 0
0, 0
0, 0
0, 0
0, 0
0, 0
0, 0
0, 0
0, 1
0, 0
0, 0
0, 0
0, 0
0, 0
0, 0
0, 0
0, 0
0, 0
0, 0
0, 0
0, 0
0, 0
0, 0
0, 0
0, 0
0, 0
0, 0
0, 0
0, 0
0, 0
0, 0
0, 0
0, 0
0, 0
0, 0
0, 0
0, 0
0, 0
0, 0
0, 0
0, 0
0, 0
0, 0
0, 0
0, 0
0, 0
0, 0
0, 0
0, 0
0, 0
0, 0
0, 0
0, 0
0, 0
0, 0
0, 0
0, 0
0, 1
0, 0
0, 0
0, 0
0, 0
0, 0
0, 0
0, 0
0, 0
0, 0
0, 0
0, 0
0, 0
0, 0
0, 0
0, 0
0, 0
1, 0
0, 1
0, 0
0, 0
0, 0
0, 0
0, 0
0, 0
0, 0
0, 0
0, 0
0, 0
0, 0
0, 0
0, 0
0, 0
0, 0
0, 0
0, 0
0, 0
0, 0
0, 0
0, 0
1, 0
0, 0
0, 0
0, 0
0, 0
0, 0
0, 1
0, 0
0, 0
0, 0
0, 0
0, 0
0, 0
0, 0
0, 0
0, 0
0, 0
0, 0
1, 0
0, 0
0, 0
0, 0
0, 0
0, 0
0, 0
0, 0
0, 0
0, 0
0, 0
0, 0
0, 0
0, 0
0, 0
0, 0
0, 0
0, 0
0, 0
0, 0
0, 0
0, 0
0, 0
0, 0
0, 0
0, 0
0, 0
0, 0
0, 0
0, 0
0, 0
0, 0
0, 0
0, 0
0, 0
0, 0
0, 0
0, 0
0, 0
0, 0
0, 0
0, 0
0, 0
0, 0
0, 0
0, 0
0, 0
0, 0
0, 0
0, 0
0, 0
0, 0
0, 0
0, 0
0, 0
0, 0
0, 0
0, 0
0, 0
0, 0
0, 0
0, 0
0, 0
0, 0
0, 0
0, 0
0, 0
0, 0
0, 0
0, 0
0, 0
0, 0
0, 0
0, 0
0, 0
0, 0
0, 0
0, 0
0, 0
0, 0
0, 0
0, 0
0, 0
0, 0
0, 0
0, 0
0, 0
0, 0
0, 0
0, 0
0, 0
0, 0
0, 0
0, 0
0, 0
0, 0
0, 0
0, 0
0, 0
0, 0
0, 0
0, 0
0, 0
0, 0
0, 0
0, 0
0, 0
0, 0
0, 0
0, 0
0, 0
0, 0
0, 0
0, 0
0, 0
0, 0
0, 0
0, 0
0, 0
0, 0
0, 0
0, 0
0, 0
0, 0
0, 0
0, 0
0, 0
0, 0
0, 0
0, 0
0, 0
0, 0
0, 0
0, 0
0, 0
0, 0
0, 0
0, 0
0, 0
0, 0
0, 0
0, 0
0, 0
0, 0
0, 0
0, 0
0, 0
0, 0
0, 0
0, 0
0, 0
0, 0
0, 0
0, 0
0, 0
0, 0
0, 0
0, 0
0, 0
0, 0
0, 0
0, 0
0, 0
0, 0
0, 0
0, 0
0, 0
0, 0
0, 0
0, 0
0, 0
0, 0
0, 0
0, 0
0, 0
0, 0
0, 0
0, 0
0, 0
0, 0
0, 0
0, 0
0, 0
0, 0
0, 0
0, 0
0, 0
0, 0
0, 0
0, 0
0, 0
0, 0
0, 0
0, 0
0, 0
0, 0
0, 0
0, 0
0, 0
0, 0
0, 0
0, 0
0, 0
0, 0
0, 0
0, 0
0, 0
0, 0
0, 0
0, 0
0, 0
0, 0
0, 0
0, 0
0, 0
0, 0
0, 0
0, 0
0, 0
0, 0
0, 0
0, 0
0, 0
0, 0
0, 0
0, 0
0, 0
0, 0
0, 0
0, 0
0, 0
0, 0
0, 0
0, 0
0, 0
0, 0
0, 0
0, 0
0, 0
0, 0
0, 0
0, 0
0, 0
0, 0
0, 0
0, 0
0, 0
0, 0
0, 0
0, 0
0, 0
0, 0
0, 0
0, 0
0, 0
0, 0
0, 0
0, 0
0, 0
0, 0
0, 0
0, 0
0, 0
0, 0
0, 0
0, 0
0, 0
0, 0
0, 0
0, 0
0, 0
0, 0
0, 0
0, 0
0, 0
0, 0
0, 0
0, 0
0, 0
0, 0
0, 0
0, 0
0, 0
0, 0
0, 0
0, 0
0, 0
0, 0
0, 0
0, 0
0, 0
0, 0
0, 0
0, 0
0, 0
0, 0
0, 0
0, 0
0, 0
0, 0
0, 0
0, 0
0, 0
0, 0
0, 0
0, 0
0, 0
0, 0
0, 0
0, 0
0, 0
0, 0
0, 0
0, 0
0, 0
0, 0
0, 0
0, 0
0, 0
0, 0
0, 0
0, 0
0, 0
0, 0
0, 0
0, 0
0, 0
0, 0
0, 0
0, 0
0, 0
0, 0
0, 0
0, 0
0, 0
0, 0
0, 0
0, 0
0, 0
0, 0
0, 0
0, 0
0, 0
0, 0
0, 0
0, 0
0, 0
0, 0
0, 0
0, 0
0, 0
0, 0
0, 0
0, 0
0, 0
0, 0
0, 0
0, 0
0, 0
#ENDOFDATA     end of spectrum data