File: host_upload/06-09-2024/ps_0852/dump3/ps__0852shot_2471.msa
#FORMAT      : EMSA/MAS spectral data file
#VERSION     : TC202v2.0 PIXL
#TITLE       : N/A
#DATE        :       Date in the format DD-MMM-YYYY, for example 07-JUL-2010
#TIME        :             The time of day at which the spectrum was recorded, in 24-hour format
#OWNER       : PIXL Flight Model       (PIXL will use this to indicate which instrument took the data.)
#NPOINTS     : 4096     Number of data points in the spectrum (This can be zero for configuration only files)
#NCOLUMNS    : 2     Number of data columns in the spectrum (This can be zero for configuration only files)
#XUNITS      : eV
#YUNITS      : COUNTS
#DATATYPE    : YY
#XPERCHAN    : 7.862, 7.881   eV per channel (separate by commas if more than one detector)
#OFFSET      : 18.5, -22.4         eV of first channel  (separate by commas if more than one detector
#SIGNALTYPE  : XRF
#YP_TEMP     : 2.524
#LIVETIME    : 8.55942, 8.54665   seconds (separate by commas if more than one detector)
#REALTIME    : 10, 10.0   seconds (separate by commas if more than one detector)
#SPECTRUM    : start of spectrum data
0, 0
0, 0
0, 0
0, 0
0, 0
0, 0
0, 0
0, 0
0, 0
0, 0
0, 0
0, 0
0, 0
0, 0
0, 0
0, 0
0, 0
0, 0
0, 0
0, 0
0, 0
0, 0
0, 0
0, 0
0, 0
0, 0
0, 0
0, 0
0, 0
0, 0
0, 0
0, 1
0, 0
0, 0
1, 1
0, 0
0, 0
1, 1
0, 0
1, 1
1, 0
0, 0
2, 0
1, 0
1, 1
1, 0
1, 2
2, 1
9, 5
17, 11
24, 18
49, 44
58, 54
62, 66
92, 65
70, 70
73, 44
42, 44
33, 21
17, 9
5, 7
4, 7
6, 5
4, 3
6, 3
6, 1
8, 6
7, 8
18, 18
47, 37
108, 88
155, 157
287, 260
373, 335
423, 411
436, 384
362, 333
293, 232
216, 179
126, 104
74, 51
36, 29
15, 12
6, 7
4, 8
3, 1
2, 1
1, 1
0, 2
2, 2
2, 1
2, 6
1, 0
4, 6
8, 2
11, 15
31, 23
23, 38
34, 27
44, 34
37, 23
22, 18
22, 18
17, 6
14, 8
7, 10
7, 11
6, 5
12, 9
10, 7
21, 9
15, 31
34, 39
41, 38
38, 44
43, 40
20, 43
31, 39
25, 31
30, 19
20, 24
19, 22
14, 22
16, 21
18, 18
16, 14
17, 18
7, 11
4, 8
9, 11
4, 4
3, 0
2, 3
5, 1
3, 0
4, 4
6, 3
2, 1
2, 5
2, 1
2, 1
2, 1
3, 3
6, 1
3, 2
1, 1
3, 2
2, 1
5, 1
4, 6
3, 7
7, 3
4, 6
7, 10
11, 10
8, 7
15, 19
13, 11
18, 19
15, 10
9, 8
6, 7
5, 8
5, 6
2, 3
2, 2
7, 0
3, 1
2, 3
6, 1
3, 3
4, 2
4, 5
2, 4
3, 7
4, 10
3, 6
5, 5
3, 9
5, 9
5, 5
2, 3
3, 5
4, 2
4, 2
4, 4
1, 6
8, 3
8, 7
8, 5
10, 10
6, 8
7, 7
15, 13
10, 20
11, 5
11, 16
12, 30
15, 31
9, 39
12, 43
12, 43
6, 55
14, 55
5, 46
4, 42
4, 45
6, 35
5, 36
8, 28
9, 31
4, 35
4, 23
5, 27
6, 20
6, 16
4, 16
5, 10
6, 10
6, 12
7, 5
4, 5
3, 4
4, 4
6, 10
9, 7
13, 8
11, 12
15, 16
12, 12
19, 18
24, 13
28, 15
16, 17
17, 7
12, 13
12, 15
13, 6
13, 10
9, 11
7, 15
7, 16
14, 19
8, 27
24, 30
18, 39
33, 33
37, 66
53, 66
49, 66
62, 56
76, 73
68, 64
60, 47
62, 43
56, 29
67, 25
72, 7
80, 19
148, 17
120, 19
137, 24
158, 47
228, 87
267, 182
355, 340
553, 562
806, 879
1204, 1263
1581, 1702
2050, 2151
2421, 2352
2540, 2402
2430, 2249
2120, 1941
1706, 1512
1415, 1111
941, 783
599, 433
387, 269
202, 170
110, 76
54, 57
30, 39
14, 20
20, 19
17, 16
7, 14
18, 19
23, 15
21, 30
29, 49
47, 44
62, 87
90, 109
156, 179
190, 225
258, 285
277, 354
359, 404
357, 366
334, 341
253, 297
234, 231
173, 160
120, 112
90, 64
37, 40
46, 15
24, 16
15, 8
8, 13
8, 7
10, 11
8, 12
14, 18
11, 17
8, 20
16, 27
13, 18
9, 13
11, 15
10, 12
11, 6
5, 8
5, 1
10, 8
6, 6
12, 9
6, 4
8, 2
11, 5
11, 5
6, 2
7, 2
8, 3
5, 2
4, 5
3, 5
6, 6
4, 2
0, 5
3, 4
2, 5
9, 8
7, 5
5, 8
5, 6
4, 7
7, 2
6, 7
7, 9
6, 10
10, 10
20, 8
16, 8
15, 3
13, 7
16, 8
18, 2
17, 7
15, 4
12, 3
9, 6
5, 7
7, 4
7, 4
4, 6
1, 3
4, 4
3, 4
3, 3
3, 2
2, 3
9, 6
5, 2
2, 3
5, 5
2, 4
8, 4
3, 5
4, 3
3, 5
1, 10
1, 7
10, 5
4, 5
3, 5
3, 8
0, 8
3, 5
4, 4
5, 4
3, 5
4, 2
0, 4
6, 6
3, 2
3, 2
0, 6
3, 1
4, 5
3, 4
4, 7
4, 5
3, 3
0, 3
0, 1
2, 4
2, 3
5, 2
5, 2
4, 1
4, 4
5, 3
3, 5
4, 4
3, 6
1, 4
5, 5
1, 5
9, 2
3, 3
4, 4
2, 6
1, 4
6, 5
3, 4
3, 3
4, 4
3, 4
5, 6
3, 3
4, 2
2, 3
3, 4
2, 1
8, 3
3, 6
4, 2
2, 5
7, 3
5, 7
1, 0
4, 3
3, 2
3, 2
5, 3
1, 1
2, 1
3, 12
3, 1
5, 3
1, 4
2, 3
2, 1
3, 1
4, 2
4, 0
5, 2
4, 0
9, 3
6, 0
7, 1
0, 2
3, 4
3, 4
12, 0
6, 2
4, 1
4, 2
4, 2
3, 1
4, 2
1, 3
0, 5
3, 0
4, 0
1, 3
4, 2
2, 1
2, 1
0, 3
5, 2
1, 2
4, 4
2, 2
2, 1
4, 2
1, 2
1, 2
1, 2
3, 3
1, 3
3, 5
1, 5
5, 1
1, 3
0, 0
2, 1
1, 4
1, 6
3, 1
2, 2
3, 1
2, 1
2, 1
4, 1
3, 2
0, 0
3, 2
2, 1
2, 0
4, 1
0, 0
1, 4
1, 0
2, 1
5, 2
3, 0
4, 1
3, 1
3, 1
2, 1
2, 3
4, 1
2, 6
1, 1
2, 2
4, 1
1, 2
3, 1
1, 2
1, 2
2, 2
1, 3
2, 5
4, 2
4, 3
5, 5
2, 2
1, 3
4, 5
5, 4
6, 1
1, 5
2, 2
3, 1
6, 5
3, 2
1, 1
2, 4
4, 2
2, 1
4, 2
2, 3
4, 1
2, 1
0, 6
3, 1
1, 4
0, 3
2, 3
3, 0
4, 4
4, 3
4, 5
2, 3
1, 3
2, 1
1, 2
5, 0
3, 2
3, 1
1, 3
0, 2
1, 2
1, 1
1, 2
1, 2
1, 1
0, 1
0, 0
0, 2
1, 2
1, 0
2, 0
1, 0
3, 4
1, 0
1, 1
0, 1
4, 0
1, 2
0, 6
0, 1
0, 2
1, 2
2, 3
2, 3
0, 0
1, 3
2, 2
3, 1
3, 1
3, 0
1, 0
1, 2
1, 0
0, 2
0, 2
1, 2
2, 0
3, 0
1, 1
1, 1
2, 2
4, 0
1, 0
0, 2
0, 0
3, 0
2, 2
2, 1
2, 0
0, 1
3, 1
1, 1
0, 1
2, 0
1, 0
0, 0
1, 0
0, 0
0, 0
0, 0
1, 0
0, 0
1, 0
3, 1
3, 3
2, 0
0, 1
2, 0
0, 0
2, 0
2, 0
1, 1
1, 1
1, 0
0, 1
1, 0
0, 0
0, 1
0, 0
1, 0
1, 1
2, 0
0, 0
2, 0
0, 0
3, 0
1, 1
0, 2
2, 1
0, 0
2, 2
2, 2
0, 0
1, 0
1, 0
1, 0
0, 0
0, 0
0, 1
0, 0
0, 1
0, 0
1, 1
0, 1
1, 1
1, 1
0, 1
0, 0
0, 0
0, 1
1, 1
0, 0
0, 0
0, 1
0, 1
1, 0
0, 0
2, 1
0, 1
1, 0
0, 1
0, 1
1, 0
0, 0
1, 1
0, 1
0, 1
0, 1
0, 0
0, 0
0, 0
2, 1
1, 0
1, 0
1, 0
1, 0
1, 1
1, 1
1, 0
0, 0
0, 0
2, 1
1, 1
0, 0
0, 0
0, 1
0, 0
1, 1
1, 0
0, 0
0, 0
1, 0
1, 0
0, 0
0, 2
1, 0
0, 1
0, 0
1, 0
0, 1
0, 0
2, 0
0, 0
1, 0
1, 0
0, 1
0, 0
1, 0
0, 0
0, 1
1, 0
0, 0
0, 0
0, 0
0, 0
1, 0
0, 1
0, 0
0, 0
0, 0
0, 0
0, 0
0, 0
1, 0
0, 0
0, 0
0, 0
1, 0
1, 1
1, 0
1, 0
0, 0
0, 1
0, 0
0, 0
0, 2
0, 0
1, 0
0, 0
0, 0
1, 0
0, 0
0, 0
1, 1
1, 0
1, 0
1, 0
1, 1
1, 0
2, 0
0, 0
0, 1
0, 0
0, 0
0, 0
1, 0
0, 0
0, 0
1, 0
1, 2
0, 0
0, 0
0, 1
0, 1
0, 0
0, 0
0, 0
0, 0
0, 0
0, 1
0, 0
0, 1
0, 0
0, 2
0, 0
0, 0
1, 0
0, 0
1, 1
0, 0
0, 0
1, 0
0, 0
0, 0
0, 0
0, 0
2, 0
0, 0
0, 0
0, 0
0, 0
1, 0
0, 0
0, 0
0, 0
1, 0
0, 0
0, 1
0, 0
1, 0
0, 0
0, 1
0, 0
0, 0
0, 0
0, 0
0, 1
0, 0
1, 1
0, 0
0, 0
0, 0
0, 1
0, 0
0, 0
0, 0
0, 0
0, 0
1, 0
0, 0
0, 0
0, 0
0, 0
0, 0
0, 0
0, 0
0, 0
0, 0
0, 0
0, 0
0, 0
0, 0
0, 0
0, 0
0, 0
0, 0
0, 0
0, 1
0, 0
0, 0
0, 0
0, 0
0, 1
0, 0
0, 0
1, 0
0, 0
0, 0
0, 0
0, 0
0, 0
0, 0
0, 0
0, 0
0, 0
1, 0
0, 0
0, 0
0, 0
0, 1
0, 0
0, 0
0, 0
0, 0
0, 0
0, 0
0, 0
0, 0
0, 0
0, 0
0, 0
0, 0
0, 0
0, 0
0, 0
0, 0
0, 0
0, 0
0, 0
0, 0
0, 0
0, 0
0, 0
0, 0
0, 0
0, 0
0, 0
0, 0
0, 0
0, 0
0, 0
0, 0
0, 0
0, 0
0, 0
0, 0
0, 0
0, 0
0, 0
0, 0
0, 0
0, 0
0, 0
0, 0
0, 0
0, 0
0, 0
0, 0
0, 0
0, 0
0, 0
0, 0
0, 0
1, 0
0, 0
0, 0
0, 0
0, 0
0, 0
0, 0
0, 0
0, 0
0, 0
0, 0
0, 0
0, 0
0, 0
0, 0
0, 0
0, 0
0, 0
0, 0
0, 0
0, 0
0, 0
0, 0
0, 0
0, 0
0, 0
0, 0
0, 0
0, 0
0, 0
0, 0
0, 0
0, 0
0, 1
0, 0
0, 0
0, 0
0, 0
0, 0
0, 0
0, 0
0, 0
0, 0
0, 0
0, 0
0, 0
0, 0
0, 0
0, 0
0, 0
0, 0
0, 0
0, 0
0, 0
0, 0
0, 0
0, 0
0, 0
0, 0
0, 0
0, 0
0, 0
0, 0
0, 0
0, 0
0, 0
0, 0
0, 0
0, 0
0, 0
0, 0
0, 0
0, 0
0, 0
0, 0
0, 0
0, 0
0, 0
0, 0
0, 0
0, 0
0, 0
0, 0
0, 0
0, 0
0, 0
0, 0
0, 0
0, 0
0, 0
0, 0
0, 0
0, 0
0, 0
0, 0
0, 0
0, 0
0, 0
0, 0
0, 0
0, 0
0, 0
0, 0
0, 0
0, 0
0, 0
0, 0
0, 0
0, 0
0, 0
0, 0
0, 0
0, 0
0, 0
0, 0
0, 0
0, 0
0, 0
0, 0
0, 0
0, 0
0, 0
0, 0
0, 0
0, 0
0, 0
0, 0
0, 0
0, 0
0, 0
0, 0
0, 0
0, 0
0, 0
0, 0
0, 0
0, 0
0, 0
0, 0
0, 0
0, 0
0, 0
0, 0
0, 0
0, 0
0, 0
0, 0
0, 0
0, 0
0, 0
0, 0
0, 0
0, 0
0, 0
0, 0
0, 0
0, 0
0, 0
0, 0
0, 0
0, 0
0, 0
0, 0
0, 0
0, 0
0, 0
0, 0
0, 0
0, 0
0, 0
0, 0
0, 0
0, 0
0, 0
0, 0
0, 0
0, 0
0, 0
0, 0
0, 0
0, 0
0, 0
0, 0
0, 0
0, 0
0, 0
0, 0
0, 0
0, 0
0, 0
0, 0
0, 0
0, 0
0, 0
0, 0
0, 0
0, 0
0, 0
0, 0
0, 0
0, 0
0, 0
0, 0
0, 0
0, 0
0, 0
0, 0
0, 0
0, 0
0, 0
0, 0
0, 0
0, 0
0, 0
0, 0
0, 0
0, 0
0, 0
0, 0
0, 0
0, 0
0, 0
0, 0
0, 0
0, 0
0, 0
0, 0
0, 0
0, 0
0, 0
0, 0
0, 0
0, 0
0, 0
0, 0
0, 0
0, 0
0, 0
0, 0
0, 0
0, 0
0, 0
0, 0
0, 0
0, 0
0, 0
0, 0
0, 0
0, 0
0, 0
0, 0
0, 0
0, 0
0, 0
0, 0
0, 0
0, 0
0, 0
0, 0
0, 0
0, 0
0, 0
0, 0
0, 0
0, 0
0, 0
0, 0
0, 0
0, 0
0, 0
0, 0
0, 0
0, 0
0, 0
0, 0
0, 0
0, 0
0, 0
0, 0
0, 0
0, 0
0, 0
0, 0
0, 0
0, 0
0, 0
0, 0
0, 0
0, 0
0, 0
0, 0
0, 0
0, 0
0, 0
0, 0
0, 0
0, 0
0, 0
0, 0
0, 0
0, 0
0, 0
0, 0
0, 0
0, 0
0, 0
0, 0
0, 0
0, 0
0, 0
0, 0
0, 0
0, 0
0, 0
0, 0
0, 0
0, 0
0, 0
0, 0
0, 0
0, 0
0, 0
0, 0
0, 0
0, 0
0, 0
0, 0
0, 0
0, 0
0, 0
0, 0
0, 0
0, 0
0, 0
0, 0
0, 0
0, 0
0, 0
0, 0
0, 0
0, 0
0, 0
0, 0
0, 0
0, 0
0, 0
0, 0
0, 0
0, 0
0, 0
0, 0
0, 0
0, 0
0, 0
0, 0
0, 0
0, 0
0, 0
0, 0
0, 0
0, 0
0, 0
0, 0
0, 0
0, 0
0, 0
0, 0
0, 0
0, 0
0, 0
0, 0
0, 0
0, 0
0, 0
0, 0
0, 0
0, 0
0, 0
0, 0
0, 0
0, 0
0, 0
0, 0
0, 0
0, 0
0, 0
0, 0
0, 0
0, 0
0, 0
0, 0
0, 0
0, 0
0, 0
0, 0
0, 0
0, 0
0, 0
0, 0
0, 0
0, 0
0, 0
0, 0
0, 0
0, 0
0, 0
0, 0
0, 0
0, 0
0, 0
0, 0
0, 0
0, 0
0, 0
0, 0
0, 0
0, 0
#ENDOFDATA     end of spectrum data