File: host_upload/06-09-2024/ps_0852/dump3/ps__0852shot_2480.msa
#FORMAT      : EMSA/MAS spectral data file
#VERSION     : TC202v2.0 PIXL
#TITLE       : N/A
#DATE        :       Date in the format DD-MMM-YYYY, for example 07-JUL-2010
#TIME        :             The time of day at which the spectrum was recorded, in 24-hour format
#OWNER       : PIXL Flight Model       (PIXL will use this to indicate which instrument took the data.)
#NPOINTS     : 4096     Number of data points in the spectrum (This can be zero for configuration only files)
#NCOLUMNS    : 2     Number of data columns in the spectrum (This can be zero for configuration only files)
#XUNITS      : eV
#YUNITS      : COUNTS
#DATATYPE    : YY
#XPERCHAN    : 7.862, 7.881   eV per channel (separate by commas if more than one detector)
#OFFSET      : 18.5, -22.4         eV of first channel  (separate by commas if more than one detector
#SIGNALTYPE  : XRF
#YP_TEMP     : 2.203
#LIVETIME    : 8.58167, 8.5644   seconds (separate by commas if more than one detector)
#REALTIME    : 10, 10.0   seconds (separate by commas if more than one detector)
#SPECTRUM    : start of spectrum data
0, 0
0, 0
0, 0
0, 0
0, 0
0, 0
0, 0
0, 0
0, 0
0, 0
0, 0
0, 0
0, 0
0, 0
0, 0
0, 0
0, 0
0, 0
0, 0
0, 0
0, 0
0, 0
0, 0
0, 0
0, 0
0, 0
0, 0
0, 0
0, 0
0, 0
0, 0
0, 0
0, 0
0, 0
1, 0
0, 0
0, 1
0, 0
0, 0
0, 2
1, 1
2, 0
2, 1
1, 1
2, 0
2, 1
2, 0
3, 7
11, 7
11, 10
25, 16
36, 32
70, 52
87, 51
88, 79
74, 72
71, 59
51, 32
33, 16
18, 10
9, 7
3, 3
1, 5
4, 6
5, 3
7, 3
10, 5
10, 15
26, 8
38, 46
106, 78
155, 156
309, 235
360, 312
441, 360
483, 384
377, 342
323, 243
183, 174
120, 113
69, 59
37, 24
16, 13
13, 8
7, 6
3, 0
4, 3
4, 2
1, 3
0, 2
0, 0
1, 0
3, 2
2, 2
3, 1
1, 0
4, 2
5, 3
3, 3
3, 2
3, 2
2, 4
2, 6
5, 0
2, 1
3, 2
2, 0
4, 4
3, 5
8, 7
15, 11
18, 11
20, 16
37, 21
31, 28
32, 36
43, 48
34, 32
32, 28
35, 23
28, 28
30, 20
24, 15
17, 18
13, 12
14, 9
17, 7
10, 12
8, 8
5, 8
7, 7
6, 1
3, 0
2, 4
1, 1
1, 3
1, 1
2, 3
4, 0
1, 3
0, 2
5, 2
2, 1
4, 3
2, 4
1, 1
4, 7
2, 4
8, 2
9, 3
11, 5
9, 8
23, 8
31, 5
32, 4
26, 13
30, 18
33, 13
20, 14
18, 17
17, 7
14, 8
11, 5
4, 3
7, 5
4, 3
3, 2
2, 1
5, 4
3, 8
5, 2
6, 3
4, 4
6, 6
5, 3
10, 6
7, 7
5, 4
5, 7
4, 3
3, 4
8, 3
6, 4
2, 6
7, 2
4, 2
3, 4
4, 6
12, 3
2, 9
9, 11
12, 11
19, 15
14, 10
13, 10
13, 25
22, 20
17, 15
13, 22
22, 14
18, 11
13, 8
11, 10
11, 10
10, 3
7, 9
6, 5
8, 5
5, 3
9, 6
12, 4
10, 4
3, 5
9, 6
7, 3
5, 4
8, 8
6, 9
6, 9
9, 9
10, 7
6, 7
8, 8
12, 7
19, 18
21, 23
30, 20
45, 43
53, 38
73, 62
81, 47
80, 49
61, 46
48, 29
51, 32
55, 26
31, 22
24, 18
25, 22
20, 22
18, 23
19, 19
14, 16
21, 24
17, 12
36, 27
43, 27
51, 33
55, 40
74, 45
88, 64
91, 68
88, 40
67, 38
50, 43
60, 35
33, 24
20, 20
17, 15
19, 12
19, 14
30, 22
40, 46
91, 90
159, 178
335, 307
517, 484
797, 871
1234, 1167
1540, 1592
2034, 1968
2351, 2134
2528, 2139
2422, 2025
2179, 1781
1727, 1332
1417, 1059
887, 632
581, 433
344, 229
175, 126
103, 76
59, 50
25, 22
24, 15
14, 17
11, 18
17, 16
10, 11
30, 15
26, 19
31, 40
50, 55
77, 72
111, 110
145, 149
188, 227
279, 278
315, 346
369, 323
360, 326
337, 312
307, 240
266, 208
193, 143
138, 93
101, 64
62, 43
28, 17
23, 14
13, 17
16, 7
11, 4
10, 12
16, 11
17, 9
11, 14
16, 13
22, 19
13, 11
17, 7
10, 9
12, 5
12, 7
14, 7
6, 3
3, 2
10, 4
4, 1
6, 5
10, 4
10, 6
6, 2
2, 5
3, 5
4, 2
4, 5
5, 2
4, 8
3, 4
5, 4
6, 6
2, 9
3, 6
3, 2
6, 4
7, 4
9, 4
10, 7
9, 6
7, 4
3, 5
11, 6
12, 5
6, 3
3, 7
5, 5
3, 2
5, 6
2, 4
4, 10
5, 3
6, 3
3, 5
2, 5
5, 5
8, 10
7, 1
4, 11
13, 4
5, 6
5, 3
3, 3
3, 3
9, 2
6, 7
4, 3
6, 1
4, 7
6, 8
2, 7
1, 6
2, 7
2, 11
4, 13
3, 16
5, 19
2, 19
3, 19
5, 19
3, 25
2, 23
3, 14
3, 16
4, 12
7, 9
6, 11
3, 2
9, 3
6, 1
7, 3
9, 4
10, 1
6, 4
3, 5
8, 6
3, 7
6, 7
4, 9
6, 5
2, 3
7, 6
4, 7
1, 3
5, 11
1, 3
2, 6
1, 0
2, 0
3, 5
4, 2
1, 2
4, 1
3, 2
0, 2
1, 3
2, 3
4, 3
2, 2
3, 2
2, 3
1, 5
1, 3
4, 2
4, 2
4, 2
3, 3
3, 3
2, 3
8, 0
6, 2
3, 0
6, 2
4, 2
0, 3
4, 4
5, 4
2, 0
2, 0
2, 2
4, 1
4, 4
2, 2
2, 5
1, 2
2, 4
5, 1
3, 3
2, 4
6, 5
2, 2
4, 1
7, 1
5, 4
4, 4
8, 4
4, 2
3, 4
6, 2
2, 4
5, 2
4, 0
0, 1
0, 3
1, 1
2, 7
3, 1
3, 3
1, 3
2, 4
1, 1
3, 3
1, 2
2, 0
2, 2
4, 3
2, 0
3, 2
5, 0
2, 1
5, 2
1, 3
3, 4
4, 3
3, 2
3, 1
4, 4
6, 2
1, 2
4, 1
3, 2
0, 1
3, 2
2, 1
1, 0
2, 1
1, 3
2, 2
0, 2
1, 1
3, 2
4, 3
1, 0
0, 7
2, 2
3, 1
2, 1
3, 1
2, 3
1, 1
3, 3
5, 6
1, 1
4, 1
3, 0
1, 1
5, 2
2, 1
7, 1
4, 2
3, 0
4, 1
2, 1
1, 0
2, 1
5, 2
5, 0
2, 4
4, 2
4, 4
4, 1
4, 3
4, 6
5, 4
2, 2
3, 2
2, 3
5, 1
1, 1
3, 0
1, 1
1, 3
5, 1
0, 2
1, 1
1, 0
3, 1
1, 3
0, 1
1, 2
3, 2
0, 0
1, 1
1, 0
1, 1
0, 0
3, 2
2, 1
1, 1
3, 1
5, 1
6, 2
5, 3
1, 5
0, 1
3, 1
0, 1
1, 0
2, 0
1, 1
3, 1
1, 1
1, 0
1, 3
1, 0
1, 0
2, 0
2, 2
0, 1
0, 1
3, 1
0, 1
0, 2
1, 0
0, 1
2, 1
0, 0
2, 1
2, 1
1, 1
1, 2
1, 1
0, 1
0, 3
0, 0
1, 2
1, 0
1, 1
3, 2
0, 1
2, 0
2, 1
0, 0
2, 1
2, 1
0, 1
0, 0
0, 1
0, 0
1, 0
0, 1
0, 0
2, 2
0, 2
1, 0
0, 1
0, 1
2, 1
0, 0
1, 3
0, 1
1, 2
1, 2
0, 2
0, 0
1, 1
1, 3
0, 0
2, 0
2, 1
0, 2
1, 0
0, 1
1, 2
1, 1
2, 0
1, 1
0, 0
0, 1
0, 0
0, 0
3, 0
0, 1
1, 0
0, 0
0, 0
0, 0
1, 0
1, 0
0, 1
0, 0
1, 0
0, 1
0, 0
1, 1
0, 0
0, 1
0, 0
0, 0
0, 1
0, 1
1, 0
1, 0
0, 0
1, 1
0, 0
2, 0
0, 0
1, 1
1, 1
1, 0
0, 0
1, 0
0, 1
1, 0
1, 0
0, 0
0, 2
0, 1
0, 0
0, 0
0, 0
1, 0
1, 0
0, 0
0, 2
0, 1
1, 1
2, 0
1, 1
0, 0
1, 0
1, 0
0, 1
0, 1
0, 0
1, 0
2, 0
0, 0
0, 1
0, 1
0, 0
2, 0
0, 0
0, 0
0, 1
0, 0
0, 0
1, 0
0, 0
2, 0
1, 0
0, 0
0, 0
1, 1
2, 0
0, 0
0, 0
0, 0
1, 0
0, 0
0, 0
1, 0
1, 0
0, 1
0, 1
0, 0
0, 0
0, 0
0, 1
0, 0
0, 1
1, 0
0, 1
0, 1
0, 0
0, 0
0, 1
1, 0
0, 0
0, 0
0, 0
0, 0
0, 0
0, 0
0, 0
0, 0
0, 0
0, 0
1, 0
0, 1
0, 0
0, 1
0, 0
1, 0
0, 0
2, 0
0, 0
0, 0
1, 0
1, 0
0, 1
1, 1
0, 0
0, 0
0, 0
0, 0
0, 1
0, 0
0, 0
0, 0
0, 0
0, 1
0, 0
0, 0
0, 0
0, 0
0, 1
0, 0
0, 1
1, 0
0, 1
0, 0
0, 0
0, 0
1, 0
0, 1
0, 0
0, 1
0, 2
0, 0
0, 1
0, 0
1, 0
0, 0
0, 0
0, 0
1, 1
0, 0
0, 0
1, 0
0, 0
1, 0
0, 0
0, 0
0, 0
0, 1
0, 1
0, 0
0, 0
0, 0
0, 0
1, 1
0, 0
0, 1
1, 1
0, 0
0, 0
0, 0
0, 0
0, 0
0, 0
0, 0
1, 0
0, 0
0, 0
0, 0
0, 0
0, 0
0, 0
0, 0
1, 0
0, 0
1, 0
1, 0
0, 0
0, 0
0, 0
0, 0
0, 0
1, 0
0, 0
0, 0
0, 0
0, 0
0, 0
0, 0
0, 0
0, 0
1, 1
0, 0
0, 0
0, 0
0, 0
0, 1
0, 0
0, 0
0, 0
0, 0
0, 0
0, 0
0, 0
0, 0
0, 0
0, 0
0, 0
0, 0
0, 0
0, 0
1, 0
0, 0
0, 0
0, 0
0, 0
0, 0
0, 0
0, 0
0, 0
0, 0
0, 0
0, 0
0, 0
0, 0
0, 0
0, 0
0, 0
0, 0
0, 0
1, 0
0, 0
1, 0
0, 0
0, 0
0, 0
0, 0
0, 0
0, 0
0, 0
0, 0
0, 0
0, 0
0, 0
0, 0
0, 0
0, 0
0, 0
0, 0
0, 0
0, 0
0, 0
0, 0
0, 0
0, 0
0, 0
0, 0
0, 0
0, 0
0, 0
0, 0
0, 0
0, 0
0, 0
0, 0
0, 0
0, 0
0, 0
0, 0
0, 0
0, 0
0, 0
0, 0
0, 0
0, 0
0, 0
0, 0
0, 0
0, 0
0, 0
0, 0
0, 0
0, 0
0, 0
0, 1
0, 0
0, 0
0, 0
1, 0
0, 0
0, 0
0, 0
0, 0
0, 0
0, 0
0, 0
0, 0
0, 0
0, 0
0, 0
0, 0
0, 0
0, 0
0, 0
0, 0
0, 0
0, 0
0, 0
0, 0
0, 0
0, 0
0, 0
0, 0
0, 0
0, 0
0, 0
0, 0
0, 0
0, 0
0, 0
0, 0
0, 0
0, 0
0, 0
0, 0
0, 0
0, 0
0, 0
0, 0
0, 0
0, 0
0, 0
0, 0
0, 0
0, 0
0, 0
0, 0
0, 0
0, 0
0, 0
0, 0
0, 0
0, 0
0, 0
0, 0
0, 0
0, 0
0, 0
0, 0
0, 0
0, 0
0, 0
0, 0
0, 0
0, 0
0, 0
0, 0
0, 0
0, 0
0, 0
0, 0
0, 0
0, 0
0, 0
0, 0
0, 0
0, 0
0, 0
0, 0
0, 0
0, 0
0, 0
0, 0
0, 0
0, 0
0, 0
0, 0
0, 0
0, 0
0, 0
0, 0
0, 0
0, 0
0, 0
0, 0
0, 0
0, 0
0, 0
0, 0
0, 0
0, 0
0, 0
0, 0
0, 0
0, 0
0, 0
0, 0
0, 0
0, 0
0, 0
0, 0
0, 1
0, 0
0, 0
0, 0
0, 0
0, 0
0, 0
0, 0
0, 0
0, 0
0, 0
0, 0
0, 0
0, 0
0, 0
0, 0
0, 0
0, 0
0, 0
0, 0
0, 0
0, 0
0, 0
0, 0
0, 0
0, 0
0, 0
0, 0
0, 0
0, 0
0, 0
0, 0
0, 0
0, 0
0, 0
0, 0
0, 0
0, 0
0, 0
0, 0
0, 0
0, 0
0, 0
0, 0
0, 0
0, 0
0, 0
0, 0
0, 0
0, 0
0, 0
0, 0
0, 0
0, 0
0, 0
0, 0
0, 0
0, 0
0, 0
0, 0
0, 0
0, 0
0, 0
0, 0
0, 0
0, 0
0, 0
0, 0
0, 0
0, 0
0, 0
0, 0
0, 0
0, 0
0, 0
0, 0
0, 0
0, 0
0, 0
0, 0
0, 0
0, 0
0, 0
0, 0
0, 0
0, 0
0, 0
0, 0
0, 0
0, 0
0, 0
0, 0
0, 0
0, 0
0, 0
0, 0
0, 0
0, 0
0, 0
0, 0
0, 0
0, 0
0, 0
0, 0
0, 0
0, 0
0, 0
0, 0
0, 0
0, 0
0, 0
0, 0
0, 0
0, 0
0, 0
0, 0
0, 0
0, 0
0, 0
0, 0
0, 0
0, 0
0, 0
0, 0
0, 0
0, 0
0, 0
0, 0
0, 0
0, 0
0, 0
0, 0
0, 0
0, 0
0, 0
0, 0
0, 0
0, 0
0, 0
0, 0
0, 0
0, 0
0, 0
0, 0
0, 0
0, 0
0, 0
0, 0
0, 0
0, 0
0, 0
0, 0
0, 0
0, 0
0, 0
0, 0
0, 0
0, 0
0, 0
0, 0
0, 0
0, 0
0, 0
0, 0
0, 0
0, 0
0, 0
0, 0
0, 0
0, 0
0, 0
0, 0
0, 0
0, 0
0, 0
0, 0
0, 0
0, 0
0, 0
0, 0
0, 0
0, 0
0, 0
0, 0
0, 0
0, 0
0, 0
0, 0
0, 0
0, 0
0, 0
0, 0
0, 0
0, 0
0, 0
0, 0
0, 0
0, 0
0, 0
0, 0
0, 0
0, 0
0, 0
0, 0
0, 0
0, 0
0, 0
0, 0
0, 0
0, 0
0, 0
0, 0
0, 0
0, 0
0, 0
0, 0
0, 0
0, 0
0, 0
0, 0
0, 0
0, 0
0, 0
0, 0
0, 0
0, 0
0, 0
0, 0
0, 0
0, 0
0, 0
0, 0
0, 0
0, 0
0, 0
0, 0
0, 0
0, 0
0, 0
0, 0
0, 0
0, 0
0, 0
0, 0
0, 0
0, 0
0, 0
0, 0
0, 0
0, 0
0, 0
0, 0
0, 0
0, 0
0, 0
0, 0
0, 0
0, 0
0, 0
0, 0
0, 0
0, 0
0, 0
0, 0
0, 0
0, 0
0, 0
0, 0
0, 0
0, 0
0, 0
0, 0
0, 0
0, 0
0, 0
0, 0
0, 0
0, 0
0, 0
0, 0
0, 0
0, 0
0, 0
0, 0
0, 0
0, 0
0, 0
0, 0
0, 0
0, 0
0, 0
0, 0
0, 0
0, 0
0, 0
0, 0
0, 0
#ENDOFDATA     end of spectrum data