File: host_upload/06-09-2024/ps_0852/dump3/ps__0852shot_2097.msa
#FORMAT      : EMSA/MAS spectral data file
#VERSION     : TC202v2.0 PIXL
#TITLE       : N/A
#DATE        :       Date in the format DD-MMM-YYYY, for example 07-JUL-2010
#TIME        :             The time of day at which the spectrum was recorded, in 24-hour format
#OWNER       : PIXL Flight Model       (PIXL will use this to indicate which instrument took the data.)
#NPOINTS     : 4096     Number of data points in the spectrum (This can be zero for configuration only files)
#NCOLUMNS    : 2     Number of data columns in the spectrum (This can be zero for configuration only files)
#XUNITS      : eV
#YUNITS      : COUNTS
#DATATYPE    : YY
#XPERCHAN    : 7.862, 7.881   eV per channel (separate by commas if more than one detector)
#OFFSET      : 18.5, -22.4         eV of first channel  (separate by commas if more than one detector
#SIGNALTYPE  : XRF
#YP_TEMP     : 2.524
#LIVETIME    : 8.5608, 8.35233   seconds (separate by commas if more than one detector)
#REALTIME    : 10, 10.0   seconds (separate by commas if more than one detector)
#SPECTRUM    : start of spectrum data
0, 0
0, 0
0, 0
0, 0
0, 0
0, 0
0, 0
0, 0
0, 0
0, 0
0, 0
0, 0
0, 0
0, 0
0, 0
0, 0
0, 0
0, 0
0, 0
0, 0
0, 0
0, 0
0, 0
0, 0
0, 0
0, 0
0, 0
0, 0
0, 0
0, 0
0, 0
0, 1
0, 0
0, 1
0, 2
0, 1
0, 0
1, 0
1, 1
0, 0
0, 1
1, 3
2, 4
2, 2
0, 3
2, 2
2, 2
2, 3
3, 8
8, 8
21, 26
36, 43
48, 51
52, 80
65, 71
65, 87
49, 33
27, 30
20, 19
7, 9
4, 12
3, 3
2, 2
5, 6
3, 3
5, 12
4, 9
7, 15
19, 21
29, 49
82, 71
157, 163
201, 241
311, 316
342, 338
326, 383
299, 346
238, 273
192, 157
106, 110
62, 54
32, 37
18, 17
6, 3
11, 6
4, 1
3, 3
2, 4
4, 3
4, 8
4, 9
14, 11
26, 21
37, 47
79, 83
126, 143
174, 204
243, 242
269, 317
278, 338
287, 269
207, 211
139, 157
95, 106
69, 64
52, 58
29, 26
25, 23
24, 29
26, 23
23, 42
40, 44
45, 58
37, 54
52, 42
45, 51
46, 48
33, 46
34, 27
33, 30
27, 23
35, 18
19, 21
22, 15
21, 21
21, 6
18, 12
13, 14
8, 6
10, 8
4, 6
4, 9
2, 1
1, 5
4, 1
2, 5
3, 3
4, 3
2, 4
3, 2
1, 1
3, 3
3, 5
2, 2
4, 4
1, 4
5, 0
3, 4
2, 1
1, 2
0, 5
2, 5
4, 7
11, 7
8, 10
7, 17
11, 11
11, 12
16, 15
9, 12
8, 11
6, 2
5, 7
4, 5
3, 3
1, 4
4, 4
3, 3
1, 8
5, 3
6, 6
6, 5
4, 5
3, 3
2, 5
2, 4
2, 4
2, 2
2, 3
2, 3
0, 3
4, 4
4, 5
2, 2
8, 3
9, 3
14, 8
26, 5
43, 5
69, 4
77, 3
88, 7
89, 5
86, 7
79, 5
53, 12
59, 17
36, 10
41, 13
36, 13
31, 10
32, 13
28, 2
32, 4
20, 7
23, 8
17, 8
17, 9
11, 10
12, 8
6, 9
9, 9
5, 6
2, 8
6, 6
7, 8
6, 5
6, 5
6, 9
9, 9
9, 8
6, 5
6, 8
2, 4
7, 3
12, 5
10, 12
12, 11
13, 11
8, 10
15, 15
8, 14
11, 10
9, 11
7, 10
12, 9
8, 9
4, 12
5, 8
2, 8
4, 13
6, 8
5, 24
13, 32
14, 42
19, 43
21, 85
41, 81
44, 101
43, 106
44, 95
69, 76
40, 73
48, 65
38, 57
27, 29
29, 25
27, 15
31, 19
21, 15
32, 22
52, 29
57, 42
82, 121
146, 207
265, 344
427, 599
706, 916
1034, 1307
1498, 1732
1800, 2025
2182, 2291
2195, 2326
2273, 2198
1926, 1829
1598, 1477
1279, 1032
874, 653
568, 432
358, 245
211, 139
115, 67
57, 41
30, 16
20, 11
14, 22
10, 8
15, 20
12, 14
18, 23
22, 28
34, 29
46, 53
62, 85
105, 123
128, 163
175, 230
238, 270
307, 343
313, 336
321, 358
369, 324
305, 274
216, 215
175, 148
132, 115
84, 65
53, 48
31, 21
21, 16
15, 10
11, 5
7, 5
10, 4
7, 10
9, 12
8, 13
9, 13
14, 18
29, 9
17, 10
21, 7
26, 6
23, 8
14, 10
11, 3
13, 3
5, 14
7, 2
11, 3
2, 5
5, 5
5, 2
3, 3
3, 2
4, 2
4, 4
4, 4
2, 2
1, 5
5, 3
0, 4
4, 7
2, 0
2, 4
7, 9
5, 6
3, 6
5, 3
3, 3
5, 7
5, 6
2, 1
2, 5
7, 0
1, 2
1, 2
5, 8
0, 5
2, 2
5, 4
1, 2
1, 5
5, 4
1, 7
2, 2
5, 6
1, 7
4, 1
5, 4
4, 3
6, 2
3, 1
2, 2
3, 7
5, 4
2, 3
3, 2
6, 4
3, 1
3, 0
7, 0
5, 4
3, 5
6, 4
4, 3
6, 4
6, 2
8, 3
9, 0
19, 1
15, 5
18, 4
24, 4
13, 6
20, 11
20, 7
13, 7
9, 10
12, 10
5, 14
6, 9
7, 10
3, 6
2, 7
5, 6
2, 3
2, 5
3, 9
6, 3
4, 0
2, 1
5, 2
6, 3
4, 1
3, 4
5, 0
3, 3
3, 5
2, 3
3, 0
2, 2
2, 5
2, 1
0, 3
0, 3
2, 1
4, 2
4, 3
0, 5
1, 1
3, 2
2, 0
1, 4
1, 4
2, 2
3, 3
3, 5
4, 5
3, 3
4, 0
7, 5
5, 3
0, 2
5, 2
4, 4
7, 1
5, 0
4, 3
1, 1
2, 6
6, 1
6, 5
6, 1
9, 2
1, 3
5, 3
4, 3
5, 2
3, 3
4, 2
3, 0
1, 2
2, 3
4, 4
1, 2
1, 3
0, 1
2, 3
2, 1
3, 2
5, 3
0, 1
3, 4
0, 0
3, 4
3, 1
1, 3
4, 0
1, 3
1, 2
2, 3
1, 0
2, 1
3, 0
0, 1
0, 1
3, 4
2, 2
1, 2
4, 5
1, 1
2, 3
0, 5
1, 3
0, 3
2, 6
1, 14
1, 5
1, 5
4, 9
2, 10
0, 5
1, 3
0, 2
3, 5
1, 4
4, 1
2, 3
4, 2
3, 2
2, 2
0, 2
0, 1
3, 1
1, 4
0, 2
1, 2
0, 1
3, 2
2, 2
1, 0
0, 1
3, 1
3, 0
3, 1
2, 1
3, 2
1, 4
0, 3
1, 1
3, 0
2, 1
0, 1
4, 1
2, 1
2, 7
0, 4
3, 6
0, 0
2, 4
6, 1
1, 3
5, 6
1, 3
3, 0
3, 2
2, 1
1, 3
0, 6
2, 1
3, 4
3, 2
2, 1
2, 2
1, 0
1, 6
0, 7
1, 1
0, 3
1, 3
1, 1
4, 1
0, 3
1, 2
0, 2
1, 0
2, 1
1, 4
0, 3
0, 4
3, 2
2, 0
0, 1
2, 1
0, 0
2, 0
1, 3
1, 3
1, 1
2, 1
0, 1
0, 2
1, 1
4, 1
2, 0
1, 2
4, 3
0, 0
0, 0
1, 0
2, 1
0, 2
1, 1
2, 0
0, 0
0, 3
2, 2
0, 3
1, 2
2, 0
1, 1
0, 2
1, 2
0, 1
0, 1
2, 1
2, 0
3, 2
0, 0
0, 2
0, 0
2, 2
2, 0
1, 1
0, 2
0, 0
1, 1
0, 0
0, 0
2, 0
0, 0
0, 0
0, 0
0, 2
0, 1
1, 0
1, 1
1, 0
1, 1
0, 0
0, 0
0, 1
1, 2
2, 0
2, 0
1, 0
0, 2
1, 0
0, 0
1, 1
0, 2
1, 0
2, 1
0, 1
2, 1
0, 0
0, 1
0, 0
1, 1
0, 2
1, 1
0, 0
2, 0
0, 0
1, 1
0, 0
1, 1
0, 1
0, 0
0, 0
0, 0
1, 0
0, 1
3, 1
0, 1
1, 2
0, 0
0, 1
0, 2
0, 1
0, 0
1, 0
1, 2
1, 0
0, 0
1, 0
0, 1
1, 0
2, 0
0, 0
0, 1
1, 1
1, 0
0, 0
1, 2
0, 1
0, 1
0, 0
1, 1
0, 0
0, 0
0, 0
0, 0
0, 1
0, 1
0, 1
0, 1
0, 0
0, 0
0, 1
1, 0
0, 0
0, 1
0, 1
0, 1
0, 0
0, 1
0, 0
0, 1
0, 0
1, 1
0, 0
0, 1
0, 0
0, 1
0, 0
2, 0
0, 0
0, 0
1, 0
1, 0
0, 1
2, 0
1, 0
0, 0
0, 0
0, 0
0, 0
2, 0
0, 0
0, 0
0, 0
0, 0
0, 0
1, 0
0, 0
0, 1
0, 0
1, 0
1, 0
0, 0
0, 1
1, 1
1, 0
1, 0
0, 0
0, 0
1, 0
0, 1
0, 0
0, 0
0, 1
0, 0
1, 1
0, 1
0, 0
0, 0
0, 0
0, 0
0, 0
1, 0
1, 0
1, 0
0, 0
0, 0
0, 0
1, 0
1, 1
0, 0
0, 0
0, 0
0, 0
0, 0
0, 1
0, 0
0, 0
0, 0
1, 2
0, 0
0, 2
0, 0
1, 0
0, 1
0, 0
0, 0
0, 0
1, 0
0, 0
2, 0
0, 0
0, 0
0, 0
0, 0
0, 0
0, 0
0, 0
0, 1
0, 0
0, 1
0, 0
0, 0
0, 0
1, 0
0, 0
0, 0
0, 0
0, 1
0, 0
0, 0
0, 0
1, 0
0, 0
0, 0
0, 0
1, 0
0, 0
0, 0
0, 0
0, 0
0, 0
0, 0
0, 0
0, 0
0, 0
0, 0
0, 0
0, 1
0, 0
0, 0
0, 0
0, 0
0, 0
0, 0
0, 0
0, 0
0, 0
0, 0
0, 1
0, 0
0, 0
0, 0
0, 0
0, 0
1, 0
0, 0
0, 0
0, 0
0, 0
1, 0
0, 0
0, 1
0, 0
2, 1
0, 0
1, 0
2, 0
0, 0
0, 0
0, 1
0, 0
0, 0
0, 0
0, 0
0, 0
0, 0
0, 0
0, 0
0, 0
0, 0
0, 0
0, 0
0, 0
0, 0
0, 0
1, 0
0, 0
0, 0
0, 0
0, 0
0, 0
0, 0
0, 0
0, 0
0, 2
0, 0
2, 0
0, 0
1, 0
0, 1
0, 1
0, 0
0, 0
0, 0
0, 0
0, 0
0, 0
0, 0
1, 0
0, 0
0, 1
0, 0
0, 0
0, 0
0, 0
0, 0
0, 0
0, 0
0, 0
0, 0
0, 0
0, 0
0, 0
0, 0
1, 0
0, 0
0, 0
1, 0
0, 0
0, 0
0, 0
0, 0
0, 0
0, 0
0, 0
0, 0
0, 0
0, 0
0, 0
0, 0
0, 0
1, 0
0, 0
0, 0
0, 0
0, 0
0, 0
0, 0
0, 0
0, 0
0, 0
0, 0
0, 0
0, 0
0, 0
0, 0
0, 0
0, 0
0, 0
0, 0
0, 0
0, 0
0, 0
0, 0
0, 0
0, 0
0, 0
0, 0
0, 0
0, 0
0, 0
0, 0
0, 0
0, 0
0, 0
0, 0
0, 0
0, 0
0, 0
0, 0
0, 0
0, 0
0, 0
0, 0
0, 0
0, 0
0, 0
0, 0
0, 0
0, 0
0, 0
0, 0
0, 0
0, 0
0, 0
0, 0
0, 0
0, 0
0, 0
0, 0
0, 0
0, 0
0, 0
0, 0
0, 0
0, 0
0, 0
0, 0
0, 0
0, 0
0, 0
0, 0
0, 0
0, 0
0, 0
0, 0
0, 0
0, 0
0, 0
0, 0
0, 0
0, 0
0, 0
1, 0
0, 0
0, 0
0, 0
0, 0
0, 0
0, 0
0, 0
0, 0
0, 0
0, 0
0, 0
0, 0
0, 0
0, 0
0, 0
0, 0
0, 0
0, 0
0, 0
0, 0
0, 0
0, 0
0, 0
0, 0
0, 0
0, 0
0, 0
0, 0
0, 0
0, 0
0, 0
0, 0
0, 0
0, 0
0, 0
0, 0
0, 0
0, 1
0, 0
0, 0
0, 0
0, 0
0, 0
0, 0
0, 0
0, 0
0, 0
0, 0
0, 0
0, 0
0, 0
0, 0
0, 0
0, 0
0, 0
0, 0
0, 0
0, 0
0, 0
0, 0
0, 0
0, 0
0, 0
0, 1
0, 0
0, 0
0, 0
0, 0
0, 0
0, 0
0, 0
0, 0
0, 0
0, 0
0, 0
0, 0
0, 0
0, 0
0, 0
0, 0
0, 0
0, 0
0, 0
0, 0
0, 0
0, 0
0, 0
0, 0
0, 0
0, 0
0, 0
0, 0
0, 0
0, 0
0, 0
0, 0
0, 0
0, 0
0, 0
0, 0
0, 0
0, 0
0, 0
0, 0
0, 0
0, 0
0, 0
0, 0
0, 0
0, 0
0, 0
0, 0
0, 0
0, 0
0, 0
0, 0
0, 0
0, 0
0, 0
0, 0
0, 0
0, 0
0, 0
0, 0
0, 0
0, 0
0, 0
0, 0
0, 0
0, 0
0, 0
0, 0
0, 0
0, 0
0, 0
0, 0
0, 0
0, 0
0, 0
0, 0
0, 0
0, 0
0, 0
0, 0
0, 0
0, 0
0, 0
0, 0
0, 0
0, 0
0, 0
0, 0
0, 0
0, 0
0, 0
0, 0
0, 0
0, 0
0, 0
0, 0
0, 0
0, 0
0, 0
0, 0
0, 0
0, 0
0, 0
0, 0
0, 0
0, 0
0, 0
0, 0
0, 0
0, 0
0, 0
0, 0
0, 0
0, 0
0, 0
0, 0
0, 0
0, 0
0, 0
0, 0
0, 0
0, 0
0, 0
0, 0
0, 0
0, 0
0, 0
0, 0
0, 0
0, 0
0, 0
0, 0
0, 0
0, 0
0, 0
0, 0
0, 0
0, 0
0, 0
0, 0
0, 0
0, 0
0, 0
0, 0
0, 0
0, 0
0, 0
0, 0
0, 0
0, 0
0, 0
0, 0
0, 0
0, 0
0, 0
0, 0
0, 0
0, 0
0, 0
0, 0
0, 0
0, 0
0, 0
0, 0
0, 0
0, 0
0, 0
0, 0
0, 0
0, 0
0, 0
0, 0
0, 0
0, 0
0, 0
0, 0
0, 0
0, 0
0, 0
0, 0
0, 0
0, 0
0, 0
0, 0
0, 0
0, 0
0, 0
0, 0
0, 0
0, 0
0, 0
0, 0
0, 0
0, 0
0, 0
0, 0
0, 0
0, 0
0, 0
0, 0
0, 0
0, 0
0, 0
0, 0
0, 0
0, 0
0, 0
0, 0
0, 0
0, 0
0, 0
0, 0
0, 0
0, 0
0, 0
0, 0
0, 0
0, 0
0, 0
0, 0
0, 0
0, 0
0, 0
0, 0
0, 0
0, 0
0, 0
0, 0
0, 0
0, 0
0, 0
0, 0
0, 0
0, 0
0, 0
0, 0
0, 0
0, 0
0, 0
0, 0
0, 0
0, 0
0, 0
0, 0
0, 0
0, 0
0, 0
0, 0
0, 0
0, 0
0, 0
0, 0
0, 0
0, 0
0, 0
0, 0
0, 0
0, 0
0, 0
0, 0
0, 0
0, 0
0, 0
0, 0
0, 0
0, 0
0, 0
0, 0
0, 0
0, 0
0, 0
0, 0
0, 0
0, 0
0, 0
0, 0
0, 0
0, 0
0, 0
0, 0
0, 0
0, 0
0, 0
0, 0
0, 0
0, 0
0, 0
0, 0
#ENDOFDATA     end of spectrum data