File: host_upload/06-09-2024/ps_0852/dump3/ps__0852shot_2151.msa
#FORMAT      : EMSA/MAS spectral data file
#VERSION     : TC202v2.0 PIXL
#TITLE       : N/A
#DATE        :       Date in the format DD-MMM-YYYY, for example 07-JUL-2010
#TIME        :             The time of day at which the spectrum was recorded, in 24-hour format
#OWNER       : PIXL Flight Model       (PIXL will use this to indicate which instrument took the data.)
#NPOINTS     : 4096     Number of data points in the spectrum (This can be zero for configuration only files)
#NCOLUMNS    : 2     Number of data columns in the spectrum (This can be zero for configuration only files)
#XUNITS      : eV
#YUNITS      : COUNTS
#DATATYPE    : YY
#XPERCHAN    : 7.862, 7.881   eV per channel (separate by commas if more than one detector)
#OFFSET      : 18.5, -22.4         eV of first channel  (separate by commas if more than one detector
#SIGNALTYPE  : XRF
#YP_TEMP     : 2.203
#LIVETIME    : 8.53595, 8.55998   seconds (separate by commas if more than one detector)
#REALTIME    : 10, 10.0   seconds (separate by commas if more than one detector)
#SPECTRUM    : start of spectrum data
0, 0
0, 0
0, 0
0, 0
0, 0
0, 0
0, 0
0, 0
0, 0
0, 0
0, 0
0, 0
0, 0
0, 0
0, 0
0, 0
0, 0
0, 0
0, 0
0, 0
0, 0
0, 0
0, 0
0, 0
0, 0
0, 0
0, 0
0, 0
0, 0
1, 0
0, 1
0, 0
0, 0
0, 0
0, 0
1, 0
0, 0
1, 2
1, 1
0, 1
0, 2
2, 1
1, 1
0, 0
2, 4
2, 0
0, 2
4, 1
7, 8
15, 10
14, 13
44, 36
66, 59
89, 62
81, 74
91, 62
79, 49
54, 35
34, 20
13, 20
5, 7
5, 6
5, 3
4, 3
5, 5
5, 6
3, 4
12, 11
16, 27
51, 53
108, 101
161, 171
245, 252
356, 343
441, 403
470, 385
405, 346
295, 262
190, 192
148, 112
81, 65
44, 39
34, 34
11, 5
2, 6
3, 2
2, 1
2, 0
1, 1
0, 1
2, 1
0, 2
1, 3
4, 6
8, 4
5, 7
9, 13
11, 16
17, 18
17, 13
18, 8
14, 9
5, 10
5, 7
12, 6
4, 6
8, 7
10, 10
8, 16
14, 14
30, 28
25, 25
37, 47
52, 41
50, 42
53, 63
53, 39
45, 36
50, 40
54, 25
26, 26
32, 16
19, 26
22, 22
20, 17
18, 18
9, 9
17, 13
8, 8
8, 6
7, 6
9, 7
2, 2
2, 1
4, 4
0, 2
4, 6
5, 1
3, 1
6, 5
2, 6
2, 7
2, 4
4, 7
1, 8
1, 5
2, 2
1, 2
7, 2
1, 3
3, 3
10, 10
12, 17
33, 24
39, 38
55, 38
70, 61
79, 52
60, 48
73, 43
66, 38
41, 29
42, 18
18, 12
16, 6
13, 10
10, 12
7, 4
9, 12
19, 7
14, 10
19, 3
13, 5
28, 12
18, 6
19, 6
20, 5
27, 5
32, 7
25, 8
18, 4
24, 3
13, 1
13, 6
8, 1
12, 2
5, 3
6, 6
6, 3
17, 8
9, 5
11, 10
14, 10
10, 16
25, 18
8, 16
14, 14
18, 12
13, 14
19, 17
10, 12
13, 8
7, 9
5, 4
13, 5
8, 5
9, 1
5, 7
6, 11
9, 4
5, 10
7, 7
4, 5
5, 5
12, 7
5, 4
3, 3
12, 4
9, 6
10, 2
5, 5
4, 6
6, 8
6, 4
13, 7
11, 9
13, 12
23, 18
29, 18
36, 20
29, 18
32, 23
27, 16
48, 13
29, 16
36, 17
27, 15
24, 12
27, 13
16, 10
13, 9
16, 10
14, 17
9, 12
16, 13
15, 27
23, 28
24, 35
31, 50
51, 48
58, 55
61, 66
59, 53
65, 54
38, 43
33, 56
22, 34
19, 38
23, 25
13, 25
21, 42
27, 28
38, 65
79, 97
163, 197
288, 355
467, 536
765, 839
1120, 1300
1508, 1646
1852, 1994
2180, 2230
2318, 2291
2310, 2171
2090, 1889
1703, 1428
1347, 1092
842, 780
548, 433
372, 257
163, 136
112, 69
54, 52
43, 31
29, 36
29, 26
34, 30
36, 23
45, 22
37, 33
40, 29
30, 31
49, 72
68, 76
101, 122
141, 179
184, 223
259, 264
318, 322
313, 342
364, 367
310, 310
261, 236
236, 201
181, 141
140, 111
70, 62
58, 39
25, 24
17, 15
20, 12
6, 8
3, 7
10, 11
11, 5
11, 17
13, 7
16, 16
18, 16
15, 8
10, 15
16, 7
7, 11
10, 6
8, 6
5, 3
6, 4
6, 4
1, 3
4, 11
4, 5
5, 6
2, 3
8, 6
6, 1
4, 10
8, 1
6, 2
8, 2
5, 5
5, 5
6, 2
3, 4
6, 7
5, 5
4, 8
3, 12
5, 11
4, 9
5, 13
9, 11
8, 9
10, 7
5, 10
8, 7
8, 5
9, 9
6, 10
4, 8
6, 7
6, 7
7, 6
8, 2
5, 2
0, 4
5, 5
5, 7
3, 7
2, 6
2, 2
4, 4
2, 2
5, 9
3, 5
6, 7
3, 1
3, 5
4, 4
4, 3
3, 6
2, 7
6, 2
5, 3
4, 6
1, 1
3, 3
2, 4
5, 5
2, 2
0, 1
8, 3
2, 6
7, 3
5, 3
3, 5
3, 3
5, 3
6, 6
4, 6
4, 2
4, 6
3, 0
4, 3
3, 3
5, 5
3, 5
2, 7
5, 4
5, 8
6, 3
6, 2
8, 2
8, 3
9, 2
11, 1
9, 5
5, 2
4, 4
7, 6
6, 2
8, 1
4, 1
5, 2
5, 3
2, 3
4, 3
5, 6
3, 2
2, 1
4, 5
3, 4
3, 2
2, 5
2, 4
2, 1
6, 5
3, 0
0, 3
6, 6
2, 3
5, 6
2, 2
4, 4
2, 5
0, 5
1, 5
4, 1
0, 1
3, 7
1, 6
6, 4
4, 2
3, 3
4, 3
3, 4
2, 4
2, 2
3, 2
4, 1
4, 2
4, 4
1, 2
4, 5
3, 3
4, 6
3, 0
0, 3
1, 0
2, 1
6, 2
1, 2
1, 1
5, 0
4, 0
1, 6
3, 3
3, 3
2, 2
4, 4
1, 0
1, 1
2, 1
1, 3
0, 3
2, 4
0, 1
2, 2
4, 1
1, 4
2, 3
3, 1
2, 2
1, 0
1, 2
2, 2
0, 1
3, 1
3, 5
0, 3
2, 2
2, 5
1, 3
5, 1
4, 1
4, 1
6, 3
1, 5
2, 2
2, 1
3, 3
5, 2
1, 2
1, 2
0, 2
3, 1
2, 1
7, 0
2, 2
2, 2
4, 3
2, 1
2, 0
0, 2
0, 2
5, 3
1, 0
1, 1
1, 2
1, 2
1, 1
0, 4
2, 0
1, 1
0, 1
0, 3
0, 0
2, 1
3, 1
0, 1
2, 1
0, 2
5, 2
3, 7
5, 2
5, 4
4, 5
3, 0
4, 5
0, 3
2, 1
4, 3
1, 1
0, 1
2, 1
0, 2
1, 2
4, 1
1, 1
1, 1
1, 1
2, 0
1, 1
0, 1
0, 0
1, 4
1, 0
1, 4
1, 2
1, 0
1, 0
6, 1
3, 0
1, 3
3, 1
2, 0
1, 1
2, 1
2, 3
2, 1
2, 2
0, 1
2, 1
0, 1
1, 0
1, 1
0, 1
0, 1
0, 1
3, 1
0, 1
4, 0
0, 1
1, 1
0, 2
0, 1
1, 3
2, 1
1, 1
0, 0
0, 2
0, 0
0, 1
0, 2
0, 2
0, 2
0, 2
1, 1
1, 1
1, 0
1, 2
1, 1
0, 1
2, 1
1, 1
0, 1
0, 2
2, 1
1, 1
0, 1
1, 0
2, 2
1, 0
0, 0
0, 0
1, 2
1, 0
0, 2
0, 1
0, 0
2, 2
0, 1
4, 1
1, 0
1, 3
0, 2
0, 0
1, 1
0, 0
1, 0
2, 1
2, 2
0, 0
0, 0
0, 0
0, 1
1, 0
0, 1
0, 0
0, 0
1, 1
0, 0
0, 1
1, 0
1, 1
0, 0
0, 3
0, 0
1, 1
1, 1
0, 1
0, 1
0, 1
2, 0
0, 0
0, 2
1, 0
1, 0
1, 0
0, 1
2, 0
2, 1
2, 0
2, 1
2, 1
0, 0
0, 1
0, 1
0, 0
0, 0
1, 0
3, 0
1, 0
0, 0
0, 0
1, 0
1, 1
0, 0
0, 1
1, 0
1, 1
0, 2
1, 0
2, 0
1, 0
1, 0
1, 0
0, 0
1, 0
1, 0
1, 1
0, 0
1, 0
0, 0
0, 0
2, 1
1, 0
1, 0
1, 0
0, 2
0, 0
0, 3
1, 3
0, 0
0, 1
2, 1
2, 0
1, 1
1, 1
1, 0
0, 0
0, 0
0, 1
0, 0
0, 0
0, 0
0, 0
1, 0
0, 0
0, 0
0, 0
0, 0
0, 0
1, 1
0, 2
0, 0
0, 2
0, 0
0, 1
1, 0
0, 0
0, 1
0, 0
0, 1
0, 0
1, 0
0, 0
0, 1
0, 0
0, 0
1, 0
2, 1
0, 0
0, 0
1, 0
1, 0
0, 0
0, 0
0, 2
1, 0
0, 0
0, 0
0, 1
0, 0
0, 0
0, 0
1, 0
1, 0
1, 0
0, 0
0, 0
0, 0
2, 0
0, 0
0, 1
0, 0
0, 0
0, 1
0, 0
0, 1
1, 0
0, 0
0, 0
0, 0
1, 0
1, 0
0, 0
0, 1
0, 0
0, 0
1, 0
0, 0
0, 0
0, 0
0, 0
2, 0
1, 1
1, 0
0, 1
0, 0
0, 0
0, 0
0, 2
0, 0
0, 1
0, 0
0, 0
1, 0
0, 0
0, 1
1, 0
1, 0
0, 0
0, 0
0, 0
1, 0
1, 0
0, 0
1, 0
1, 0
0, 0
0, 0
0, 0
0, 0
0, 0
0, 0
0, 1
0, 1
0, 0
0, 0
0, 1
0, 0
1, 0
0, 0
0, 0
0, 0
0, 0
0, 0
0, 0
0, 0
0, 0
0, 1
1, 0
0, 0
0, 2
0, 0
0, 0
0, 0
0, 0
0, 0
0, 2
0, 0
0, 0
0, 0
0, 1
1, 0
0, 0
0, 0
0, 1
1, 0
0, 0
0, 0
0, 0
0, 0
0, 0
0, 0
0, 0
0, 0
0, 1
0, 0
0, 0
0, 1
0, 0
0, 0
0, 0
0, 0
0, 1
0, 1
0, 0
0, 1
0, 0
0, 0
0, 0
0, 0
0, 0
0, 0
0, 0
0, 0
0, 0
0, 0
0, 0
0, 0
0, 1
1, 0
0, 0
0, 0
0, 0
0, 0
0, 1
0, 0
0, 0
0, 0
0, 0
0, 0
0, 0
0, 0
0, 0
0, 0
1, 0
0, 0
0, 0
0, 0
0, 0
0, 0
0, 0
0, 0
1, 0
0, 0
0, 0
0, 0
0, 1
1, 0
0, 0
0, 0
0, 0
0, 0
0, 0
0, 0
0, 0
0, 0
0, 0
0, 0
0, 0
0, 0
0, 0
0, 0
0, 0
0, 0
0, 0
1, 0
0, 0
0, 0
0, 0
0, 0
0, 0
0, 0
0, 0
0, 1
0, 0
0, 0
0, 0
0, 0
0, 0
0, 0
0, 0
0, 0
0, 0
0, 0
0, 0
0, 0
1, 0
0, 0
0, 0
0, 0
0, 0
0, 0
0, 0
0, 0
0, 0
0, 0
0, 0
0, 0
0, 0
0, 0
0, 0
0, 0
0, 0
0, 1
0, 0
0, 0
0, 0
0, 0
0, 0
0, 0
0, 0
0, 0
0, 1
0, 0
0, 0
0, 0
0, 0
0, 0
0, 0
0, 0
0, 0
0, 0
0, 1
0, 0
0, 0
0, 0
0, 0
0, 0
0, 0
0, 0
0, 0
0, 0
0, 0
0, 0
0, 0
0, 1
0, 0
0, 0
0, 0
0, 0
0, 0
0, 0
0, 0
0, 0
0, 0
0, 0
0, 0
0, 0
0, 0
0, 0
0, 0
0, 0
0, 0
0, 0
0, 0
0, 0
0, 0
0, 0
0, 0
0, 0
0, 0
0, 0
0, 0
0, 0
0, 0
0, 0
0, 0
0, 0
0, 0
0, 0
0, 0
0, 0
0, 0
0, 0
0, 0
0, 0
0, 0
0, 0
0, 0
0, 0
0, 0
0, 0
0, 0
0, 0
0, 0
0, 0
0, 0
0, 0
0, 0
0, 0
0, 0
0, 0
0, 0
0, 0
0, 0
0, 0
0, 0
0, 0
0, 0
0, 0
0, 0
0, 0
0, 0
0, 0
0, 0
0, 0
0, 0
0, 1
0, 0
0, 0
0, 0
0, 0
0, 0
0, 0
0, 0
0, 0
0, 0
0, 0
0, 0
0, 0
0, 0
0, 0
0, 0
0, 0
0, 0
0, 0
0, 0
0, 0
0, 0
0, 0
0, 0
0, 0
0, 0
0, 0
0, 0
0, 0
0, 0
0, 0
0, 0
0, 0
0, 0
0, 0
0, 0
0, 0
0, 0
0, 0
0, 0
0, 0
0, 0
0, 0
0, 0
0, 0
0, 0
0, 0
0, 0
0, 0
0, 0
0, 0
0, 0
0, 0
0, 0
0, 0
0, 0
0, 0
0, 0
0, 0
0, 0
0, 0
0, 0
0, 0
0, 0
0, 0
0, 0
0, 0
0, 0
0, 0
0, 0
0, 0
0, 0
0, 0
0, 0
0, 0
0, 0
0, 0
0, 0
0, 0
0, 0
0, 0
0, 0
0, 0
0, 0
0, 0
0, 0
0, 0
0, 0
0, 0
0, 0
0, 0
0, 0
0, 0
0, 0
0, 0
0, 0
0, 0
0, 0
0, 0
0, 0
0, 0
0, 0
0, 0
0, 0
0, 0
0, 0
0, 0
0, 0
0, 0
0, 0
0, 0
0, 0
0, 0
0, 0
0, 0
0, 0
0, 0
0, 0
0, 0
0, 0
0, 0
0, 0
0, 0
0, 0
0, 0
0, 0
0, 0
0, 0
0, 0
0, 0
0, 0
0, 0
0, 0
0, 0
0, 0
0, 0
0, 0
0, 0
0, 0
0, 0
0, 0
0, 0
0, 0
0, 0
0, 0
0, 0
0, 0
0, 0
0, 0
0, 0
0, 0
0, 0
0, 0
0, 0
0, 0
0, 0
0, 0
0, 0
0, 0
0, 0
0, 0
0, 0
0, 0
0, 0
0, 0
0, 0
0, 0
0, 0
0, 0
0, 0
0, 0
0, 0
0, 0
0, 0
0, 0
0, 0
0, 0
0, 0
0, 0
0, 0
0, 0
0, 0
0, 0
0, 0
0, 0
0, 0
0, 0
0, 0
0, 0
0, 0
0, 0
0, 0
0, 0
0, 0
0, 0
0, 0
0, 0
0, 0
0, 0
0, 0
0, 0
0, 0
0, 0
0, 0
0, 0
0, 0
0, 0
0, 0
0, 0
0, 0
0, 0
0, 0
0, 0
0, 0
0, 0
0, 0
0, 0
0, 0
0, 0
0, 0
0, 0
0, 0
0, 0
0, 0
0, 0
0, 0
0, 0
0, 0
0, 0
0, 0
0, 0
0, 0
0, 0
0, 0
0, 0
0, 0
0, 0
0, 0
0, 0
0, 0
0, 0
0, 0
0, 0
0, 0
0, 0
0, 0
0, 0
0, 0
0, 0
0, 0
0, 0
0, 0
0, 0
0, 0
0, 0
0, 0
0, 0
0, 0
0, 0
0, 0
0, 0
0, 0
0, 0
0, 0
0, 0
0, 0
0, 0
0, 0
0, 0
0, 0
0, 0
0, 0
0, 0
0, 0
0, 0
0, 0
0, 0
0, 0
0, 0
0, 0
0, 0
0, 0
0, 0
0, 0
0, 0
0, 0
#ENDOFDATA     end of spectrum data