File: host_upload/06-09-2024/ps_0852/dump3/ps__0852shot_2096.msa
#FORMAT      : EMSA/MAS spectral data file
#VERSION     : TC202v2.0 PIXL
#TITLE       : N/A
#DATE        :       Date in the format DD-MMM-YYYY, for example 07-JUL-2010
#TIME        :             The time of day at which the spectrum was recorded, in 24-hour format
#OWNER       : PIXL Flight Model       (PIXL will use this to indicate which instrument took the data.)
#NPOINTS     : 4096     Number of data points in the spectrum (This can be zero for configuration only files)
#NCOLUMNS    : 2     Number of data columns in the spectrum (This can be zero for configuration only files)
#XUNITS      : eV
#YUNITS      : COUNTS
#DATATYPE    : YY
#XPERCHAN    : 7.862, 7.881   eV per channel (separate by commas if more than one detector)
#OFFSET      : 18.5, -22.4         eV of first channel  (separate by commas if more than one detector
#SIGNALTYPE  : XRF
#YP_TEMP     : 2.364
#LIVETIME    : 8.54768, 8.55755   seconds (separate by commas if more than one detector)
#REALTIME    : 10, 10.0   seconds (separate by commas if more than one detector)
#SPECTRUM    : start of spectrum data
0, 0
0, 0
0, 0
0, 0
0, 0
0, 0
0, 0
0, 0
0, 0
0, 0
0, 0
0, 0
0, 0
0, 0
0, 0
0, 0
0, 0
0, 0
0, 0
0, 0
0, 0
0, 0
0, 0
0, 0
0, 0
0, 0
0, 0
0, 0
0, 0
0, 0
0, 0
0, 0
0, 0
0, 1
0, 0
0, 1
2, 1
2, 2
1, 0
1, 1
0, 2
1, 1
1, 4
1, 3
1, 1
1, 1
3, 1
3, 11
4, 11
12, 20
16, 27
35, 30
48, 46
45, 66
75, 68
70, 61
55, 51
43, 34
25, 20
9, 11
5, 8
4, 3
8, 1
2, 3
4, 4
6, 2
6, 7
7, 13
15, 22
40, 37
87, 83
116, 138
183, 237
270, 285
324, 361
303, 341
285, 258
234, 237
163, 174
98, 100
65, 58
38, 37
13, 14
9, 11
4, 2
4, 3
2, 2
5, 3
3, 5
5, 2
8, 9
17, 15
35, 31
55, 65
106, 119
186, 180
245, 310
346, 344
418, 391
434, 428
405, 384
319, 291
227, 216
171, 152
102, 108
57, 60
43, 49
37, 40
37, 38
41, 40
46, 48
46, 40
36, 51
59, 74
53, 51
59, 62
58, 45
38, 54
38, 40
45, 29
29, 36
43, 39
25, 20
24, 22
25, 18
22, 14
13, 20
12, 13
13, 14
5, 10
5, 4
4, 5
3, 6
7, 8
5, 3
1, 3
2, 8
3, 2
6, 2
2, 5
5, 3
2, 5
2, 2
1, 4
1, 4
1, 3
5, 1
2, 3
2, 2
4, 2
1, 1
3, 4
6, 6
7, 7
6, 7
7, 11
12, 11
13, 10
15, 17
6, 7
14, 11
8, 11
4, 6
5, 6
5, 9
7, 5
2, 5
2, 5
3, 8
1, 6
4, 4
4, 5
5, 6
6, 7
4, 7
3, 3
6, 5
4, 6
3, 5
4, 4
3, 7
7, 2
3, 3
2, 3
5, 2
5, 4
12, 6
15, 2
28, 8
23, 7
35, 4
44, 4
37, 9
46, 12
39, 11
30, 17
32, 14
23, 16
24, 16
38, 13
15, 13
27, 14
25, 17
18, 16
14, 22
15, 19
15, 15
10, 16
3, 14
6, 14
6, 13
11, 16
13, 9
16, 6
17, 5
13, 6
12, 8
20, 2
12, 3
10, 11
9, 5
9, 10
5, 9
7, 8
10, 9
13, 6
14, 12
7, 10
7, 7
16, 16
15, 14
10, 9
9, 9
8, 8
11, 13
7, 12
11, 6
8, 11
8, 4
4, 4
5, 2
13, 8
12, 14
8, 21
9, 22
11, 34
22, 40
32, 47
35, 55
50, 63
51, 67
63, 60
51, 51
58, 55
52, 40
37, 25
20, 26
17, 19
23, 15
29, 16
33, 17
52, 40
58, 43
98, 108
186, 170
265, 371
469, 520
755, 860
1025, 1181
1398, 1626
1765, 2019
2026, 2317
2146, 2262
2107, 2149
1843, 1847
1625, 1398
1171, 977
803, 692
529, 443
360, 263
177, 115
96, 64
54, 39
26, 28
15, 13
10, 15
12, 11
15, 8
12, 8
14, 24
30, 30
28, 34
42, 55
63, 52
108, 109
122, 159
185, 200
225, 256
247, 321
312, 346
322, 341
330, 299
295, 264
240, 224
182, 146
123, 89
78, 64
47, 47
34, 20
22, 17
13, 4
8, 7
9, 4
11, 11
13, 6
10, 15
9, 10
16, 15
12, 12
9, 10
9, 5
15, 9
13, 10
8, 3
15, 6
7, 4
7, 6
7, 3
7, 7
5, 2
4, 5
2, 7
3, 4
4, 5
4, 5
2, 3
3, 3
5, 8
1, 7
1, 3
4, 6
5, 7
4, 9
6, 9
6, 15
10, 8
4, 6
4, 3
8, 4
5, 8
6, 5
1, 5
3, 3
4, 2
6, 7
5, 6
0, 1
2, 1
3, 3
3, 6
5, 1
7, 5
3, 2
9, 5
10, 3
8, 6
4, 3
5, 4
7, 5
6, 6
6, 2
5, 3
5, 7
6, 5
5, 5
7, 4
3, 4
5, 1
2, 5
4, 8
4, 5
2, 6
3, 5
4, 2
4, 3
11, 2
3, 4
8, 4
7, 4
6, 3
6, 1
20, 4
10, 1
7, 2
10, 6
10, 4
6, 8
8, 8
3, 9
6, 10
8, 6
8, 5
4, 6
5, 8
6, 4
8, 7
6, 6
5, 6
7, 4
2, 0
6, 2
3, 3
1, 4
4, 3
3, 2
2, 4
5, 2
4, 2
3, 3
1, 2
5, 4
3, 2
4, 4
3, 0
4, 0
4, 2
2, 5
3, 5
3, 2
6, 2
3, 3
6, 3
2, 4
3, 6
4, 7
5, 5
3, 12
4, 9
2, 9
4, 10
4, 7
6, 14
3, 7
4, 12
4, 8
3, 4
7, 6
4, 4
3, 3
1, 4
5, 3
3, 3
7, 5
4, 1
3, 1
0, 1
1, 5
2, 3
4, 3
2, 1
2, 2
2, 1
0, 2
0, 2
1, 3
3, 1
2, 1
5, 2
1, 2
3, 2
2, 4
1, 1
5, 3
3, 2
1, 1
3, 5
1, 1
0, 2
2, 2
3, 1
3, 4
0, 2
4, 3
5, 4
0, 3
2, 1
1, 1
1, 3
1, 3
0, 0
0, 6
1, 3
1, 5
4, 2
0, 1
3, 2
4, 2
1, 6
3, 4
3, 3
0, 6
1, 1
2, 4
0, 3
0, 5
3, 1
1, 4
0, 6
2, 3
2, 4
2, 0
5, 3
0, 2
1, 1
6, 2
5, 4
0, 0
4, 1
2, 2
3, 2
0, 2
0, 0
0, 0
2, 3
1, 2
2, 0
0, 2
1, 1
1, 2
1, 0
2, 3
0, 1
2, 1
1, 1
1, 3
2, 1
2, 2
2, 2
1, 0
3, 4
3, 1
3, 4
3, 4
5, 2
3, 2
2, 5
1, 3
1, 2
1, 2
1, 3
3, 4
3, 4
0, 1
0, 1
1, 3
3, 1
1, 2
3, 0
0, 3
3, 1
1, 0
3, 0
2, 1
1, 2
0, 1
1, 5
0, 1
2, 1
2, 1
4, 4
4, 1
1, 0
3, 0
2, 2
2, 0
1, 2
1, 1
0, 0
0, 0
1, 1
3, 1
1, 2
5, 0
0, 1
0, 1
0, 0
1, 1
2, 1
1, 0
0, 2
1, 3
0, 0
0, 3
0, 1
1, 2
2, 1
1, 1
0, 4
0, 1
0, 1
2, 0
0, 1
1, 2
0, 2
1, 1
1, 3
0, 2
0, 1
2, 2
0, 1
1, 2
0, 1
1, 0
1, 0
2, 0
0, 0
0, 2
1, 0
0, 0
1, 0
2, 1
0, 0
1, 1
1, 0
0, 2
0, 0
3, 1
0, 0
0, 2
1, 1
0, 1
1, 0
1, 1
0, 1
1, 0
1, 1
0, 0
0, 1
0, 0
0, 0
3, 1
1, 2
3, 0
0, 0
0, 1
1, 0
0, 1
1, 1
0, 0
1, 0
1, 0
1, 0
1, 0
0, 0
1, 1
0, 1
2, 1
0, 0
1, 0
2, 1
0, 0
0, 0
0, 0
0, 1
1, 1
0, 0
1, 1
0, 1
0, 0
1, 0
1, 3
0, 0
0, 2
0, 1
0, 0
1, 1
1, 0
2, 0
1, 1
0, 0
0, 0
0, 0
1, 0
0, 0
1, 1
0, 0
0, 0
0, 0
1, 0
0, 0
0, 0
2, 0
0, 0
0, 0
1, 1
1, 0
2, 0
0, 0
1, 0
0, 1
1, 2
0, 0
0, 0
0, 1
0, 0
0, 0
0, 1
0, 0
1, 0
0, 1
0, 0
0, 0
0, 0
0, 1
0, 0
0, 0
0, 0
0, 0
0, 0
0, 0
0, 0
1, 0
0, 2
0, 0
0, 0
0, 0
0, 1
0, 0
1, 0
0, 0
1, 2
0, 0
0, 0
0, 0
0, 0
0, 0
0, 0
0, 0
0, 0
0, 0
0, 0
0, 0
0, 0
0, 0
0, 0
0, 1
1, 1
1, 0
0, 0
1, 0
0, 0
1, 0
0, 0
0, 0
0, 0
0, 1
0, 0
1, 0
0, 0
0, 0
1, 0
0, 0
1, 1
0, 1
0, 0
0, 0
0, 0
0, 0
0, 0
0, 0
0, 0
0, 0
0, 0
0, 0
0, 0
0, 1
0, 1
0, 0
0, 0
0, 0
0, 0
1, 0
1, 1
0, 0
0, 0
0, 0
0, 0
0, 0
0, 2
0, 2
0, 1
0, 0
0, 0
0, 0
0, 0
0, 0
0, 0
0, 0
0, 0
0, 0
0, 1
0, 0
0, 0
0, 0
0, 0
0, 0
2, 0
0, 0
0, 1
0, 0
0, 0
0, 1
0, 0
0, 0
0, 0
0, 0
0, 0
0, 0
0, 1
1, 1
0, 0
0, 0
0, 1
1, 0
0, 0
0, 0
0, 0
0, 0
0, 0
0, 0
0, 0
0, 0
0, 0
0, 0
0, 0
0, 0
0, 0
0, 1
0, 0
0, 0
2, 0
1, 1
0, 0
1, 0
2, 0
0, 0
0, 0
0, 0
0, 0
0, 0
0, 1
0, 0
0, 1
0, 1
0, 0
0, 0
0, 1
0, 2
0, 1
1, 0
0, 0
0, 0
0, 0
0, 1
0, 0
1, 0
0, 1
0, 0
0, 0
0, 0
0, 0
0, 0
0, 1
0, 0
0, 0
0, 0
0, 0
0, 0
1, 0
0, 0
0, 0
0, 0
0, 0
0, 0
0, 0
0, 0
0, 0
0, 0
0, 0
0, 0
0, 0
0, 0
0, 0
0, 0
0, 0
0, 0
0, 0
0, 0
0, 0
0, 1
0, 0
0, 0
0, 0
0, 0
0, 0
0, 0
0, 0
0, 0
0, 0
0, 0
0, 0
0, 1
0, 0
0, 0
0, 1
0, 0
0, 0
0, 0
0, 0
0, 0
0, 0
0, 0
0, 0
0, 1
0, 0
0, 0
0, 0
0, 0
0, 0
0, 0
0, 0
0, 0
0, 0
0, 0
0, 0
0, 0
0, 0
0, 0
0, 0
0, 0
0, 1
0, 0
0, 0
0, 0
0, 0
0, 0
0, 0
0, 0
0, 0
0, 0
0, 0
0, 0
0, 0
0, 0
0, 0
0, 0
0, 0
0, 0
0, 0
0, 0
0, 0
0, 0
0, 0
0, 0
0, 0
0, 0
0, 0
0, 0
0, 0
0, 0
0, 0
0, 0
0, 0
0, 0
0, 0
1, 0
0, 0
0, 0
0, 0
0, 0
0, 0
0, 0
0, 0
0, 0
0, 0
0, 0
0, 0
0, 0
0, 0
0, 0
0, 0
0, 0
0, 0
0, 0
0, 0
0, 0
0, 0
0, 0
0, 0
0, 0
0, 0
0, 0
0, 0
0, 0
0, 0
0, 0
0, 0
0, 0
0, 0
0, 0
0, 0
0, 0
0, 0
0, 0
0, 0
0, 0
0, 0
0, 0
0, 0
0, 0
0, 0
0, 0
0, 0
0, 0
0, 0
0, 0
0, 0
0, 0
0, 0
0, 0
0, 0
0, 0
0, 0
0, 0
0, 0
0, 0
0, 0
0, 0
0, 0
0, 0
0, 0
0, 0
0, 0
0, 0
0, 0
0, 0
0, 0
0, 0
0, 0
0, 0
0, 0
0, 0
0, 0
0, 0
0, 0
0, 0
0, 0
0, 0
0, 0
0, 0
0, 0
0, 0
0, 0
0, 0
0, 0
0, 0
0, 0
0, 0
0, 0
0, 0
0, 0
0, 0
0, 0
0, 0
0, 0
0, 0
0, 0
0, 0
0, 0
0, 0
0, 0
0, 0
0, 0
0, 0
0, 0
0, 0
0, 0
0, 0
0, 0
0, 0
0, 0
0, 0
0, 0
0, 0
0, 0
0, 0
0, 0
0, 0
0, 0
0, 0
0, 0
0, 0
0, 0
0, 0
0, 0
0, 0
1, 0
0, 0
0, 0
0, 0
0, 0
0, 0
0, 0
0, 0
0, 0
0, 0
0, 0
0, 0
0, 0
0, 0
0, 0
0, 0
0, 0
0, 0
0, 0
0, 0
0, 0
0, 0
0, 0
0, 0
0, 0
0, 0
0, 0
0, 0
0, 0
0, 0
0, 0
0, 0
0, 0
0, 0
0, 0
0, 0
0, 0
0, 0
0, 0
0, 0
0, 0
0, 0
0, 0
0, 0
0, 0
0, 0
0, 0
0, 0
0, 0
0, 0
0, 0
0, 0
0, 0
0, 0
0, 0
0, 0
0, 0
0, 0
0, 0
0, 0
0, 0
0, 0
0, 0
0, 0
0, 0
0, 0
0, 0
0, 0
0, 0
0, 0
0, 0
0, 0
0, 0
0, 0
0, 0
0, 0
0, 0
0, 0
0, 0
0, 0
0, 0
0, 0
0, 0
0, 0
0, 0
0, 0
0, 0
0, 0
0, 0
0, 0
0, 0
0, 0
0, 0
0, 0
0, 0
0, 0
0, 0
0, 0
0, 0
0, 0
0, 0
0, 0
0, 0
0, 0
0, 0
0, 0
0, 0
0, 0
0, 0
0, 0
0, 0
0, 0
0, 0
0, 0
0, 0
0, 0
0, 0
0, 0
0, 0
0, 0
0, 0
0, 0
0, 0
0, 0
0, 0
0, 0
0, 0
0, 0
0, 0
0, 0
0, 0
0, 0
0, 0
0, 0
0, 0
0, 0
0, 0
0, 0
0, 0
0, 0
0, 0
0, 0
0, 0
0, 0
0, 0
0, 0
0, 0
0, 0
0, 0
0, 0
0, 0
0, 0
0, 0
0, 0
0, 0
0, 0
0, 0
0, 0
0, 0
0, 0
0, 0
0, 0
0, 0
0, 0
0, 0
0, 0
0, 0
0, 0
0, 0
0, 0
0, 0
0, 0
0, 0
0, 0
0, 0
0, 0
0, 0
0, 0
0, 0
0, 0
0, 0
0, 0
0, 0
0, 0
0, 0
0, 0
0, 0
0, 0
0, 0
0, 0
0, 0
0, 0
0, 0
0, 0
0, 0
0, 0
0, 0
0, 0
0, 0
0, 0
0, 0
0, 0
0, 0
0, 0
0, 0
0, 0
0, 0
0, 0
0, 0
0, 0
0, 0
0, 0
0, 0
0, 0
0, 0
0, 0
0, 0
0, 0
0, 0
0, 0
0, 0
0, 0
0, 0
0, 0
0, 0
0, 0
0, 0
0, 0
0, 0
0, 0
0, 0
0, 0
0, 0
0, 0
0, 0
0, 0
0, 0
0, 0
0, 0
0, 0
0, 0
0, 0
0, 0
0, 0
0, 0
0, 0
0, 0
0, 0
0, 0
0, 0
0, 0
0, 0
0, 0
0, 0
0, 0
0, 0
0, 0
0, 0
0, 0
0, 0
#ENDOFDATA     end of spectrum data