File: host_upload/06-09-2024/ps_0852/dump3/ps__0852shot_2202.msa
#FORMAT      : EMSA/MAS spectral data file
#VERSION     : TC202v2.0 PIXL
#TITLE       : N/A
#DATE        :       Date in the format DD-MMM-YYYY, for example 07-JUL-2010
#TIME        :             The time of day at which the spectrum was recorded, in 24-hour format
#OWNER       : PIXL Flight Model       (PIXL will use this to indicate which instrument took the data.)
#NPOINTS     : 4096     Number of data points in the spectrum (This can be zero for configuration only files)
#NCOLUMNS    : 2     Number of data columns in the spectrum (This can be zero for configuration only files)
#XUNITS      : eV
#YUNITS      : COUNTS
#DATATYPE    : YY
#XPERCHAN    : 7.862, 7.881   eV per channel (separate by commas if more than one detector)
#OFFSET      : 18.5, -22.4         eV of first channel  (separate by commas if more than one detector
#SIGNALTYPE  : XRF
#YP_TEMP     : 2.332
#LIVETIME    : 8.56574, 8.56187   seconds (separate by commas if more than one detector)
#REALTIME    : 10, 10.0   seconds (separate by commas if more than one detector)
#SPECTRUM    : start of spectrum data
0, 0
0, 0
0, 0
0, 0
0, 0
0, 0
0, 0
0, 0
0, 0
0, 0
0, 0
0, 0
0, 0
0, 0
0, 0
0, 0
0, 0
0, 0
0, 0
0, 0
0, 0
0, 0
0, 0
0, 0
0, 0
0, 0
0, 0
0, 0
0, 0
1, 0
0, 0
0, 1
0, 0
1, 0
1, 0
1, 0
0, 1
0, 1
1, 0
0, 1
0, 1
0, 2
0, 0
0, 1
3, 2
1, 1
2, 1
3, 3
2, 3
8, 14
26, 29
38, 33
72, 53
82, 79
81, 78
76, 71
51, 83
37, 51
39, 34
22, 17
13, 4
1, 3
2, 3
4, 4
2, 3
4, 4
5, 7
12, 14
22, 29
43, 53
96, 109
173, 183
266, 263
332, 347
403, 397
457, 400
351, 370
274, 297
205, 192
135, 126
67, 62
35, 41
23, 17
9, 11
6, 6
2, 1
3, 2
1, 4
1, 0
2, 3
1, 2
1, 1
0, 1
0, 0
2, 0
2, 2
2, 0
0, 3
2, 4
3, 3
3, 2
4, 4
3, 3
2, 0
6, 5
1, 2
2, 3
2, 2
5, 2
8, 9
9, 10
22, 23
17, 22
26, 28
25, 37
28, 32
26, 27
17, 27
28, 23
21, 23
19, 18
20, 22
10, 12
16, 15
10, 7
13, 11
18, 14
12, 10
16, 10
6, 7
4, 4
9, 2
4, 1
5, 1
2, 4
1, 3
4, 2
0, 3
5, 2
1, 3
2, 2
2, 2
4, 2
2, 2
2, 1
3, 3
4, 3
2, 2
1, 1
1, 2
1, 0
5, 3
0, 1
6, 8
10, 9
5, 10
12, 12
9, 11
16, 12
11, 4
11, 10
8, 4
4, 5
8, 6
4, 4
13, 2
18, 4
13, 5
21, 8
21, 8
36, 6
27, 7
30, 7
19, 8
16, 3
11, 2
5, 1
6, 2
4, 4
1, 6
5, 5
0, 5
1, 1
5, 4
6, 0
11, 5
7, 1
38, 1
47, 7
64, 4
110, 8
115, 4
164, 10
162, 7
193, 12
169, 15
125, 11
116, 14
74, 13
57, 11
35, 9
20, 3
16, 6
6, 9
10, 7
6, 4
3, 5
5, 4
6, 6
4, 6
5, 5
3, 12
3, 13
4, 10
5, 11
4, 9
4, 12
1, 12
1, 6
2, 10
4, 5
4, 3
6, 4
7, 6
6, 9
8, 8
7, 12
16, 14
13, 13
11, 8
11, 13
9, 10
10, 9
9, 16
9, 22
7, 16
9, 14
9, 14
11, 16
7, 17
8, 9
11, 9
11, 18
19, 18
22, 20
19, 26
37, 35
32, 35
46, 50
41, 61
55, 68
60, 56
52, 52
65, 43
51, 25
30, 32
24, 29
18, 20
25, 16
17, 19
26, 12
35, 34
51, 57
92, 103
157, 204
284, 372
462, 597
737, 951
1182, 1372
1578, 1778
2046, 2136
2295, 2416
2550, 2576
2393, 2393
2058, 1998
1717, 1547
1432, 1144
971, 717
637, 493
363, 281
216, 199
109, 112
58, 77
30, 51
20, 69
18, 66
16, 44
19, 43
10, 45
23, 42
17, 42
33, 45
37, 54
59, 89
102, 124
152, 179
185, 222
244, 301
323, 334
339, 371
358, 317
374, 336
333, 300
274, 219
171, 165
144, 123
97, 73
65, 30
44, 21
32, 21
42, 12
31, 11
29, 3
22, 8
17, 11
17, 10
26, 15
16, 13
23, 13
17, 13
8, 9
10, 7
8, 4
11, 7
9, 3
7, 17
6, 8
11, 1
3, 3
6, 5
2, 3
4, 4
3, 2
5, 3
3, 7
5, 12
4, 9
6, 14
1, 19
9, 10
3, 19
1, 24
5, 12
6, 6
7, 14
8, 2
4, 13
5, 4
2, 2
8, 9
4, 3
5, 7
5, 2
4, 1
2, 4
3, 2
3, 5
5, 6
3, 2
2, 3
3, 7
3, 2
3, 3
2, 2
4, 3
3, 5
2, 4
4, 0
4, 1
6, 5
2, 5
5, 2
7, 4
5, 5
7, 5
5, 6
6, 4
10, 3
6, 8
8, 3
6, 2
7, 6
1, 2
7, 3
6, 4
7, 5
9, 5
6, 1
6, 0
3, 5
3, 4
3, 0
4, 3
5, 7
3, 7
2, 17
6, 9
2, 9
6, 12
2, 12
1, 13
8, 12
1, 10
6, 7
3, 4
6, 4
3, 7
1, 2
5, 2
1, 3
3, 2
1, 2
5, 3
1, 1
6, 2
2, 3
6, 2
4, 0
6, 2
3, 5
5, 2
7, 2
4, 6
2, 4
4, 0
4, 2
4, 2
0, 5
2, 2
1, 2
2, 2
2, 2
2, 4
1, 2
3, 4
3, 2
1, 3
2, 2
3, 4
5, 3
1, 4
3, 3
3, 6
4, 2
4, 1
1, 1
5, 3
6, 3
0, 4
1, 4
4, 2
6, 4
4, 4
1, 8
7, 6
4, 5
5, 5
4, 3
1, 3
5, 5
5, 3
3, 0
0, 6
4, 1
3, 1
2, 2
4, 2
3, 3
3, 4
2, 2
4, 4
1, 1
1, 4
1, 3
1, 1
3, 3
1, 1
7, 3
1, 0
2, 4
2, 4
4, 3
2, 3
2, 2
2, 1
4, 0
1, 2
3, 1
2, 1
3, 7
2, 2
2, 0
2, 1
1, 3
2, 1
3, 1
2, 2
1, 0
1, 1
2, 2
5, 4
2, 0
7, 2
4, 3
3, 4
3, 1
3, 5
4, 4
5, 3
2, 2
1, 4
4, 5
0, 1
4, 5
2, 2
1, 2
2, 0
2, 3
0, 3
3, 1
3, 1
1, 2
1, 2
2, 0
3, 2
1, 2
2, 1
3, 1
3, 4
1, 2
3, 3
6, 2
2, 3
3, 5
1, 2
5, 2
4, 3
3, 2
2, 2
3, 1
2, 5
3, 4
8, 5
5, 4
2, 3
5, 4
2, 3
3, 0
2, 0
5, 1
5, 2
2, 4
1, 1
3, 2
2, 2
0, 0
0, 2
0, 1
1, 1
1, 2
2, 1
3, 3
0, 3
2, 4
2, 3
1, 1
3, 0
1, 3
3, 1
0, 3
3, 0
2, 1
3, 2
5, 1
2, 0
2, 2
2, 2
2, 1
5, 0
1, 0
2, 2
3, 0
0, 2
2, 1
0, 0
2, 2
3, 1
2, 1
2, 0
3, 1
1, 0
1, 1
0, 1
2, 1
0, 1
1, 1
1, 0
2, 3
0, 0
2, 1
0, 3
1, 1
2, 2
0, 4
1, 0
2, 0
2, 0
1, 1
1, 0
0, 0
1, 1
0, 1
0, 1
0, 1
1, 0
1, 0
0, 1
2, 1
4, 1
2, 1
0, 0
1, 0
1, 1
1, 1
1, 1
2, 2
2, 1
1, 3
0, 0
3, 2
2, 0
0, 0
0, 1
0, 0
0, 0
2, 0
0, 1
0, 1
0, 0
1, 0
0, 0
3, 0
0, 1
4, 4
1, 0
0, 2
1, 0
2, 1
1, 0
1, 1
0, 3
1, 0
1, 0
0, 0
3, 3
0, 0
0, 0
1, 0
0, 2
1, 2
0, 1
1, 1
1, 0
0, 0
0, 0
0, 0
0, 1
0, 1
0, 0
3, 1
2, 1
0, 2
1, 1
1, 0
0, 0
0, 1
0, 0
0, 0
0, 1
1, 1
1, 0
0, 1
2, 1
0, 0
0, 1
1, 0
1, 0
0, 0
1, 0
0, 1
0, 0
0, 0
2, 1
0, 0
1, 0
0, 1
0, 0
0, 1
0, 2
0, 0
0, 1
0, 0
0, 0
0, 0
0, 0
0, 0
0, 1
0, 0
1, 1
0, 1
0, 1
1, 0
0, 1
0, 1
0, 0
0, 0
0, 0
1, 0
1, 0
1, 2
3, 0
0, 0
0, 0
0, 0
0, 1
0, 0
1, 0
0, 1
0, 0
0, 0
1, 0
0, 0
0, 1
1, 0
0, 0
0, 0
0, 0
0, 0
0, 0
0, 0
2, 0
0, 0
1, 0
1, 0
0, 0
0, 1
0, 0
0, 0
0, 0
0, 1
0, 1
1, 1
0, 0
0, 0
0, 1
1, 0
1, 0
0, 0
0, 0
0, 0
0, 0
0, 1
1, 1
0, 0
0, 0
1, 0
1, 0
0, 0
0, 0
0, 0
0, 1
0, 0
0, 0
0, 0
0, 2
0, 0
0, 1
0, 1
0, 1
0, 0
0, 0
0, 0
0, 0
1, 1
0, 0
0, 0
1, 0
0, 1
0, 0
1, 0
1, 0
0, 0
0, 0
0, 0
0, 0
0, 2
2, 0
0, 0
0, 1
0, 0
0, 1
0, 0
0, 0
0, 0
0, 1
0, 0
0, 0
1, 0
0, 1
0, 0
0, 0
0, 0
0, 0
0, 1
0, 0
0, 1
0, 0
0, 0
0, 0
0, 1
0, 1
0, 1
0, 0
0, 0
0, 0
0, 0
0, 0
1, 1
0, 0
0, 1
0, 0
1, 1
0, 0
0, 1
0, 0
0, 0
1, 0
0, 0
0, 0
0, 0
0, 0
0, 0
0, 0
1, 0
0, 0
0, 0
1, 0
0, 0
0, 0
0, 0
0, 1
0, 1
0, 0
0, 0
0, 0
0, 1
0, 0
0, 0
0, 0
0, 0
0, 0
0, 0
0, 0
0, 0
1, 0
0, 0
0, 1
0, 0
0, 0
0, 0
0, 0
0, 0
0, 0
0, 0
0, 0
0, 0
0, 0
0, 0
0, 0
0, 1
0, 0
0, 0
0, 0
0, 0
0, 0
0, 0
0, 0
0, 0
0, 0
0, 0
0, 0
0, 0
1, 1
0, 0
0, 0
0, 0
0, 1
0, 0
0, 0
0, 0
0, 0
0, 0
0, 0
0, 0
1, 0
0, 0
0, 0
0, 0
0, 0
0, 0
0, 0
0, 0
0, 0
0, 0
0, 0
0, 0
0, 0
0, 0
0, 0
0, 0
0, 0
0, 0
0, 0
0, 0
0, 0
0, 0
0, 0
0, 1
0, 0
0, 0
0, 0
0, 0
0, 0
0, 0
0, 0
0, 0
0, 0
0, 1
0, 0
0, 0
0, 0
0, 0
0, 0
0, 0
0, 0
0, 0
0, 0
0, 0
0, 0
0, 0
0, 0
0, 0
0, 0
0, 0
0, 0
0, 0
0, 0
0, 0
0, 0
0, 0
0, 0
0, 0
0, 0
0, 0
0, 0
0, 0
0, 0
1, 0
0, 0
0, 0
0, 0
0, 0
0, 0
0, 0
0, 0
0, 0
0, 0
0, 0
0, 0
0, 0
0, 0
0, 0
0, 0
0, 0
0, 0
0, 0
0, 0
0, 0
0, 0
0, 0
0, 0
0, 0
0, 0
0, 0
0, 0
0, 0
0, 0
0, 0
0, 0
0, 0
0, 0
0, 0
0, 0
0, 0
0, 0
0, 0
0, 0
0, 0
0, 0
0, 0
0, 0
0, 0
0, 0
0, 0
0, 0
0, 0
0, 0
0, 0
0, 0
0, 0
0, 0
0, 0
0, 0
0, 0
0, 0
0, 0
0, 0
0, 0
0, 0
0, 0
0, 0
0, 0
0, 0
0, 0
0, 0
0, 0
0, 0
0, 0
0, 0
0, 0
0, 0
0, 0
0, 0
0, 0
0, 1
0, 0
0, 0
0, 0
0, 0
0, 0
0, 0
0, 0
0, 0
0, 0
0, 0
0, 0
0, 0
0, 0
0, 0
0, 0
0, 0
0, 0
0, 0
0, 0
0, 0
0, 0
0, 0
0, 0
0, 0
0, 0
0, 0
0, 0
0, 0
0, 0
0, 0
0, 0
0, 0
0, 0
0, 0
0, 0
0, 0
0, 0
0, 0
0, 0
0, 0
0, 0
0, 0
0, 0
0, 0
0, 0
0, 0
0, 0
0, 0
0, 0
0, 0
0, 0
0, 0
0, 0
0, 0
0, 0
0, 0
0, 0
0, 0
0, 0
0, 0
0, 0
0, 0
0, 0
0, 0
0, 0
0, 0
0, 0
0, 0
0, 0
0, 0
0, 0
0, 0
0, 0
0, 0
0, 0
0, 0
0, 0
0, 0
0, 0
0, 0
0, 0
0, 0
0, 0
0, 0
0, 0
0, 0
0, 0
0, 0
0, 0
0, 0
0, 0
0, 0
0, 0
0, 0
0, 0
0, 0
0, 0
0, 0
0, 0
0, 0
0, 0
0, 0
0, 0
0, 0
0, 0
0, 0
0, 0
0, 0
0, 0
0, 0
0, 0
0, 0
0, 0
0, 0
0, 0
0, 0
0, 0
0, 0
0, 0
0, 0
0, 0
0, 0
0, 0
0, 0
0, 0
0, 0
0, 0
0, 0
0, 0
0, 0
0, 0
0, 0
0, 0
0, 0
0, 0
0, 0
0, 0
0, 0
0, 0
0, 0
0, 0
0, 0
0, 0
0, 0
0, 0
0, 0
0, 0
0, 0
0, 0
0, 0
0, 0
0, 0
0, 0
0, 0
0, 0
0, 0
0, 0
0, 0
0, 0
0, 0
0, 0
0, 0
0, 0
0, 0
0, 0
0, 0
0, 0
0, 0
0, 0
0, 0
0, 0
0, 0
0, 0
0, 0
0, 0
0, 0
0, 0
0, 0
0, 0
0, 0
0, 0
0, 0
0, 0
0, 0
0, 0
0, 0
0, 0
0, 0
0, 0
0, 0
0, 0
0, 0
0, 0
0, 0
0, 0
0, 0
0, 0
0, 0
0, 0
0, 0
0, 0
0, 0
0, 0
0, 0
0, 0
0, 0
0, 0
0, 0
0, 0
0, 0
0, 0
0, 0
0, 0
0, 0
0, 0
0, 0
0, 0
0, 0
0, 0
0, 0
0, 0
0, 0
0, 0
0, 0
0, 0
0, 0
0, 0
0, 0
0, 0
0, 0
0, 0
0, 0
0, 0
0, 0
0, 0
0, 0
0, 0
0, 0
0, 0
0, 0
0, 0
0, 0
0, 0
0, 0
0, 0
0, 0
0, 0
0, 0
0, 0
0, 0
0, 0
0, 0
0, 0
0, 0
0, 0
0, 0
0, 0
0, 0
0, 0
0, 0
0, 0
0, 0
0, 0
0, 0
0, 0
0, 0
0, 0
0, 0
0, 0
0, 0
0, 0
0, 0
0, 0
0, 0
0, 0
0, 0
0, 0
0, 0
0, 0
0, 0
0, 0
0, 0
0, 0
0, 0
0, 0
0, 0
0, 0
0, 0
0, 0
0, 0
0, 0
0, 0
0, 0
0, 0
0, 0
0, 0
0, 0
0, 0
0, 0
0, 0
0, 0
0, 0
0, 0
0, 0
0, 0
0, 0
0, 0
0, 0
0, 0
0, 0
0, 0
0, 0
0, 0
0, 0
0, 0
0, 0
0, 0
0, 0
0, 0
0, 0
0, 0
#ENDOFDATA     end of spectrum data