File: host_upload/06-09-2024/ps_0852/dump3/ps__0852shot_2050.msa
#FORMAT      : EMSA/MAS spectral data file
#VERSION     : TC202v2.0 PIXL
#TITLE       : N/A
#DATE        :       Date in the format DD-MMM-YYYY, for example 07-JUL-2010
#TIME        :             The time of day at which the spectrum was recorded, in 24-hour format
#OWNER       : PIXL Flight Model       (PIXL will use this to indicate which instrument took the data.)
#NPOINTS     : 4096     Number of data points in the spectrum (This can be zero for configuration only files)
#NCOLUMNS    : 2     Number of data columns in the spectrum (This can be zero for configuration only files)
#XUNITS      : eV
#YUNITS      : COUNTS
#DATATYPE    : YY
#XPERCHAN    : 7.862, 7.881   eV per channel (separate by commas if more than one detector)
#OFFSET      : 18.5, -22.4         eV of first channel  (separate by commas if more than one detector
#SIGNALTYPE  : XRF
#YP_TEMP     : 2.3
#LIVETIME    : 8.54887, 8.58235   seconds (separate by commas if more than one detector)
#REALTIME    : 10, 10.0   seconds (separate by commas if more than one detector)
#SPECTRUM    : start of spectrum data
0, 0
0, 0
0, 0
0, 0
0, 0
0, 0
0, 0
0, 0
0, 0
0, 0
0, 0
0, 0
0, 0
0, 0
0, 0
0, 0
0, 0
0, 0
0, 0
0, 0
0, 0
0, 0
0, 0
0, 0
0, 0
0, 0
0, 0
0, 0
0, 1
0, 0
0, 1
0, 0
1, 1
0, 3
0, 2
1, 6
1, 12
2, 12
0, 22
1, 35
0, 46
0, 57
3, 49
3, 30
2, 24
1, 16
0, 12
0, 8
9, 8
11, 12
28, 23
56, 43
49, 49
73, 81
95, 82
74, 88
59, 65
50, 42
34, 33
19, 12
7, 9
7, 9
4, 7
4, 7
2, 7
7, 6
5, 6
7, 17
28, 28
45, 52
82, 90
186, 185
260, 260
371, 339
438, 445
435, 409
389, 324
314, 265
191, 200
140, 123
67, 57
43, 34
27, 28
20, 9
8, 9
5, 6
2, 3
1, 5
2, 4
1, 3
2, 4
3, 3
0, 5
1, 6
1, 4
3, 6
2, 1
3, 8
5, 3
4, 2
1, 8
6, 5
5, 10
7, 9
3, 25
7, 30
1, 62
4, 102
4, 222
8, 397
14, 782
25, 1368
24, 2016
33, 2633
18, 3108
36, 3356
35, 3052
23, 2534
28, 1814
26, 1164
18, 636
24, 387
15, 162
18, 89
18, 42
14, 25
11, 15
14, 14
9, 6
5, 6
7, 3
1, 3
6, 7
6, 2
4, 1
4, 1
5, 0
7, 4
7, 1
9, 1
6, 1
3, 1
0, 3
1, 6
0, 4
4, 3
2, 2
3, 1
1, 2
3, 7
4, 4
4, 5
6, 4
6, 13
7, 11
12, 11
10, 6
21, 14
10, 19
13, 13
13, 9
7, 4
8, 9
9, 3
12, 4
11, 7
12, 2
8, 3
11, 6
6, 5
3, 4
8, 7
8, 3
6, 11
3, 11
1, 11
4, 17
6, 23
2, 18
3, 20
4, 16
5, 25
4, 14
2, 8
1, 5
4, 6
7, 11
9, 6
5, 6
3, 9
5, 7
7, 5
13, 5
13, 8
9, 19
18, 13
14, 14
14, 13
39, 8
25, 19
51, 10
63, 11
66, 6
72, 9
77, 10
80, 8
87, 11
66, 8
39, 6
41, 8
30, 8
19, 5
12, 7
8, 9
11, 10
10, 6
3, 3
7, 4
4, 8
2, 8
3, 7
4, 14
4, 11
9, 27
4, 28
3, 49
12, 51
9, 50
13, 70
26, 77
10, 52
12, 51
13, 30
8, 34
14, 20
12, 24
12, 12
17, 10
19, 19
22, 2
23, 8
39, 10
40, 14
48, 10
36, 19
47, 23
63, 40
52, 46
80, 58
59, 57
63, 64
58, 62
54, 60
60, 52
59, 30
41, 27
34, 17
19, 27
14, 16
22, 16
16, 26
25, 27
49, 62
74, 103
137, 176
263, 316
509, 572
774, 847
1123, 1304
1560, 1696
1910, 2035
2229, 2241
2395, 2293
2290, 2110
2025, 1864
1725, 1541
1351, 1067
897, 785
592, 438
343, 261
201, 136
124, 80
59, 38
35, 29
11, 30
18, 25
8, 32
8, 36
17, 25
19, 51
27, 54
37, 71
45, 84
76, 115
120, 128
139, 192
195, 259
230, 282
287, 325
347, 333
335, 360
352, 329
317, 229
261, 202
192, 151
139, 121
87, 83
39, 47
34, 32
19, 14
10, 15
7, 13
6, 12
12, 12
11, 16
11, 27
5, 29
17, 14
8, 22
15, 21
18, 23
5, 19
4, 13
8, 9
4, 10
3, 7
5, 5
4, 7
4, 7
4, 4
1, 6
6, 6
3, 5
1, 8
6, 8
4, 10
4, 24
6, 28
4, 34
3, 42
5, 39
8, 41
11, 39
9, 42
8, 46
5, 41
10, 33
6, 29
7, 31
4, 20
7, 7
5, 6
9, 9
3, 8
7, 5
2, 7
3, 1
8, 7
4, 6
5, 7
4, 2
3, 4
5, 3
3, 3
5, 4
3, 4
4, 5
4, 5
5, 2
3, 5
6, 6
6, 3
4, 5
4, 1
3, 2
3, 5
2, 5
4, 5
6, 3
8, 7
3, 5
2, 7
6, 6
3, 9
3, 14
2, 17
6, 13
1, 10
0, 6
2, 9
4, 10
3, 5
3, 5
3, 4
6, 6
4, 5
1, 4
4, 5
1, 4
3, 4
5, 8
6, 6
6, 6
2, 8
1, 8
6, 6
3, 9
4, 11
8, 14
3, 5
3, 6
4, 3
1, 3
3, 7
2, 4
3, 5
3, 5
2, 7
3, 3
2, 2
2, 1
2, 1
3, 2
2, 5
6, 4
2, 3
2, 2
3, 6
5, 3
2, 5
3, 6
6, 4
5, 10
8, 2
4, 4
8, 4
4, 3
15, 3
9, 2
11, 3
9, 3
14, 2
13, 1
16, 0
11, 2
13, 3
12, 3
17, 0
7, 3
5, 5
5, 4
5, 8
2, 5
3, 8
2, 15
2, 6
2, 8
5, 4
4, 6
3, 5
2, 4
4, 4
2, 5
1, 8
1, 1
1, 3
5, 2
3, 3
1, 1
1, 0
2, 2
2, 3
0, 1
3, 5
4, 3
1, 3
1, 2
3, 2
2, 2
3, 3
2, 1
3, 2
1, 1
3, 3
2, 6
1, 1
5, 3
2, 4
1, 3
2, 1
4, 5
5, 1
3, 0
1, 3
3, 1
0, 0
2, 3
5, 4
2, 3
2, 3
2, 2
3, 0
1, 1
1, 2
3, 3
2, 6
3, 5
1, 4
4, 1
3, 2
1, 3
5, 2
2, 2
1, 0
2, 5
3, 3
2, 3
1, 0
0, 4
4, 5
2, 3
3, 1
2, 2
0, 4
0, 2
2, 5
0, 3
1, 5
4, 1
1, 3
1, 3
4, 1
1, 4
3, 0
1, 1
5, 3
5, 2
1, 3
2, 6
6, 2
3, 4
3, 8
2, 6
4, 2
3, 4
3, 3
4, 4
5, 1
2, 2
2, 3
1, 0
1, 0
2, 2
2, 2
2, 2
0, 3
0, 1
3, 0
1, 2
1, 1
0, 0
0, 0
2, 3
2, 1
3, 3
4, 2
1, 1
4, 5
1, 1
3, 1
1, 0
2, 0
1, 2
1, 2
3, 1
1, 0
0, 1
2, 0
2, 2
5, 1
1, 1
1, 1
0, 0
1, 1
0, 2
0, 4
0, 0
1, 2
2, 1
0, 0
0, 1
1, 0
1, 0
3, 1
0, 4
1, 0
1, 0
0, 2
0, 2
1, 2
1, 0
2, 1
1, 0
2, 0
1, 0
1, 0
2, 2
2, 3
2, 0
0, 5
1, 1
0, 1
1, 0
2, 0
3, 2
1, 0
2, 0
1, 0
2, 0
0, 0
2, 1
0, 2
1, 2
1, 3
0, 0
1, 0
1, 1
0, 1
1, 1
0, 1
0, 3
0, 2
0, 1
0, 1
2, 1
2, 1
2, 1
0, 1
0, 0
1, 3
3, 0
1, 0
0, 1
0, 0
2, 0
0, 0
2, 0
0, 0
1, 1
0, 2
2, 0
1, 0
0, 1
1, 0
1, 1
0, 1
1, 0
1, 0
1, 0
1, 0
1, 0
0, 1
0, 1
1, 0
0, 0
1, 1
0, 0
0, 0
0, 1
0, 0
0, 0
0, 1
1, 1
0, 0
2, 0
0, 0
2, 1
0, 0
2, 0
0, 3
0, 1
0, 0
1, 0
0, 0
0, 1
1, 1
0, 0
1, 1
1, 1
0, 0
0, 1
1, 1
0, 0
0, 1
0, 0
1, 0
0, 0
0, 0
1, 0
1, 0
1, 0
1, 0
0, 1
0, 0
0, 0
0, 0
1, 0
1, 0
1, 0
1, 1
0, 0
0, 0
1, 0
1, 0
0, 1
0, 0
0, 0
0, 1
0, 0
0, 0
0, 0
1, 0
1, 0
0, 2
0, 0
0, 0
0, 0
0, 0
0, 1
0, 0
0, 0
0, 0
0, 0
0, 0
0, 0
1, 0
1, 1
0, 1
0, 0
0, 0
0, 0
0, 1
0, 1
1, 0
0, 0
0, 0
0, 1
0, 2
0, 0
0, 0
0, 0
0, 0
0, 0
1, 1
0, 0
0, 0
0, 0
1, 0
0, 0
1, 0
0, 0
0, 2
0, 0
0, 0
2, 1
0, 1
0, 0
0, 1
1, 1
1, 0
0, 0
0, 0
1, 0
0, 1
0, 2
0, 0
0, 0
1, 0
0, 0
0, 1
0, 0
1, 0
0, 0
0, 0
0, 0
1, 0
1, 0
0, 0
0, 0
0, 0
0, 0
3, 0
0, 0
0, 1
0, 0
0, 0
1, 0
0, 0
1, 1
1, 1
0, 0
0, 0
0, 0
1, 0
0, 0
0, 1
0, 1
0, 0
0, 0
0, 0
0, 0
1, 0
2, 0
0, 0
0, 1
1, 0
0, 0
0, 0
0, 0
0, 0
0, 0
0, 0
0, 0
0, 0
0, 0
0, 0
0, 0
0, 0
0, 0
0, 0
0, 0
0, 0
0, 0
0, 0
0, 1
0, 0
0, 0
0, 0
0, 0
0, 0
0, 0
0, 1
1, 1
0, 0
0, 0
0, 0
0, 0
1, 0
0, 1
0, 0
0, 0
1, 0
0, 0
0, 0
0, 0
0, 0
1, 2
0, 0
1, 0
0, 0
0, 0
1, 1
0, 0
0, 0
0, 0
0, 0
0, 0
0, 0
0, 0
0, 1
0, 0
0, 0
0, 0
0, 0
0, 0
1, 0
0, 0
0, 0
0, 0
0, 0
0, 0
0, 1
0, 0
0, 0
0, 1
0, 0
0, 0
0, 0
1, 0
0, 0
0, 0
0, 0
0, 0
0, 0
0, 0
0, 0
0, 0
0, 1
0, 0
0, 0
0, 0
0, 0
0, 0
0, 1
0, 0
0, 0
0, 0
0, 0
0, 0
0, 0
0, 0
1, 0
0, 0
0, 0
1, 0
0, 0
0, 0
0, 0
0, 0
0, 0
0, 0
0, 0
0, 0
0, 0
0, 0
0, 0
0, 0
0, 0
0, 0
0, 0
0, 0
0, 0
0, 0
1, 0
0, 0
0, 0
0, 0
0, 0
0, 0
0, 0
0, 0
0, 0
0, 0
0, 0
0, 0
1, 0
0, 0
0, 0
0, 0
0, 0
0, 0
0, 0
0, 0
0, 0
0, 0
0, 1
0, 0
0, 0
0, 0
0, 0
0, 0
0, 0
0, 0
0, 0
0, 0
0, 0
0, 0
0, 0
0, 0
0, 0
0, 0
0, 0
0, 0
0, 0
0, 0
1, 0
0, 0
0, 0
0, 0
0, 0
0, 0
0, 0
0, 0
0, 0
0, 0
0, 0
0, 0
0, 0
0, 0
0, 0
0, 0
0, 0
0, 0
0, 0
0, 0
0, 0
0, 0
0, 0
0, 0
0, 0
0, 0
0, 0
0, 0
0, 0
0, 0
0, 0
0, 0
0, 0
0, 0
0, 0
0, 0
0, 0
0, 0
0, 0
0, 0
0, 0
0, 0
0, 0
0, 0
0, 0
0, 0
0, 0
0, 0
0, 0
0, 0
0, 0
0, 0
0, 0
0, 0
0, 0
0, 0
0, 0
0, 0
0, 0
0, 0
0, 0
0, 0
0, 0
0, 0
0, 0
0, 0
0, 0
0, 0
0, 0
0, 0
0, 0
0, 0
0, 0
0, 0
0, 0
0, 0
0, 0
0, 0
0, 0
0, 0
0, 0
0, 0
0, 0
0, 0
0, 0
0, 0
0, 0
0, 0
0, 0
0, 0
0, 0
0, 0
0, 0
0, 0
0, 0
0, 0
0, 0
0, 0
0, 0
0, 0
0, 0
0, 0
0, 0
0, 0
0, 0
0, 0
0, 0
0, 0
0, 0
0, 0
0, 0
0, 0
0, 0
0, 0
0, 0
0, 0
0, 0
0, 0
0, 0
0, 0
0, 0
0, 0
0, 0
0, 0
0, 0
0, 0
0, 0
0, 0
0, 0
0, 0
0, 0
0, 0
0, 0
0, 0
0, 0
0, 0
0, 0
0, 0
0, 0
0, 0
0, 0
0, 0
0, 0
0, 0
0, 0
0, 0
0, 0
0, 0
0, 0
0, 0
0, 0
0, 0
0, 0
0, 0
0, 0
0, 0
0, 0
0, 0
0, 0
0, 0
0, 0
0, 0
0, 0
0, 0
0, 0
0, 0
0, 0
0, 0
0, 0
0, 0
0, 0
0, 0
0, 0
0, 0
0, 0
0, 0
0, 0
0, 0
0, 0
0, 0
0, 0
0, 0
0, 0
0, 0
0, 0
0, 0
0, 0
0, 0
0, 0
0, 0
0, 0
0, 0
0, 0
0, 0
0, 0
0, 0
0, 0
0, 0
0, 0
0, 0
0, 0
0, 0
0, 0
0, 0
0, 0
0, 0
0, 0
0, 0
0, 0
0, 0
0, 0
0, 0
0, 0
0, 0
0, 0
0, 0
0, 0
0, 0
0, 0
0, 0
0, 0
0, 0
0, 0
0, 0
0, 0
0, 0
0, 0
0, 0
0, 0
0, 0
0, 0
0, 0
0, 0
0, 0
0, 0
0, 0
0, 0
0, 0
0, 0
0, 0
0, 0
0, 0
0, 0
0, 0
0, 0
0, 0
0, 0
0, 0
0, 0
0, 0
0, 0
0, 0
0, 0
0, 0
0, 0
0, 0
0, 0
0, 0
0, 0
0, 0
0, 0
0, 0
0, 0
0, 0
0, 0
0, 0
0, 0
0, 0
0, 0
0, 0
0, 0
0, 0
0, 0
0, 0
0, 0
0, 0
0, 0
0, 0
0, 0
0, 0
0, 0
0, 0
0, 0
0, 0
0, 0
0, 0
0, 0
0, 0
0, 0
0, 0
0, 0
0, 0
0, 0
0, 0
0, 0
0, 0
0, 0
0, 0
0, 0
0, 0
0, 0
0, 0
0, 0
0, 0
0, 0
0, 0
0, 0
0, 0
0, 0
0, 0
0, 0
0, 0
0, 0
0, 0
0, 0
0, 0
0, 0
0, 0
0, 0
0, 0
0, 0
0, 0
0, 0
0, 0
0, 0
0, 0
0, 0
0, 0
0, 0
0, 0
0, 0
0, 0
0, 0
0, 0
0, 0
0, 0
0, 0
0, 0
0, 0
0, 0
0, 0
0, 0
0, 0
0, 0
0, 0
0, 0
0, 0
0, 0
0, 0
0, 0
0, 0
0, 0
0, 0
0, 0
0, 0
0, 0
0, 0
0, 0
0, 0
0, 0
0, 0
0, 0
0, 0
0, 0
0, 0
0, 0
0, 0
0, 0
0, 0
0, 0
0, 0
0, 0
0, 0
0, 0
0, 0
0, 0
0, 0
0, 0
0, 0
0, 0
0, 0
0, 0
0, 0
0, 0
0, 0
0, 0
0, 0
0, 0
0, 0
0, 0
0, 0
#ENDOFDATA     end of spectrum data