File: host_upload/06-09-2024/ps_0852/dump3/ps__0852shot_2487.msa
#FORMAT      : EMSA/MAS spectral data file
#VERSION     : TC202v2.0 PIXL
#TITLE       : N/A
#DATE        :       Date in the format DD-MMM-YYYY, for example 07-JUL-2010
#TIME        :             The time of day at which the spectrum was recorded, in 24-hour format
#OWNER       : PIXL Flight Model       (PIXL will use this to indicate which instrument took the data.)
#NPOINTS     : 4096     Number of data points in the spectrum (This can be zero for configuration only files)
#NCOLUMNS    : 2     Number of data columns in the spectrum (This can be zero for configuration only files)
#XUNITS      : eV
#YUNITS      : COUNTS
#DATATYPE    : YY
#XPERCHAN    : 7.862, 7.881   eV per channel (separate by commas if more than one detector)
#OFFSET      : 18.5, -22.4         eV of first channel  (separate by commas if more than one detector
#SIGNALTYPE  : XRF
#YP_TEMP     : 2.46
#LIVETIME    : 8.55563, 8.55236   seconds (separate by commas if more than one detector)
#REALTIME    : 10, 10.0   seconds (separate by commas if more than one detector)
#SPECTRUM    : start of spectrum data
0, 0
0, 0
0, 0
0, 0
0, 0
0, 0
0, 0
0, 0
0, 0
0, 0
0, 0
0, 0
0, 0
0, 0
0, 0
0, 0
0, 0
0, 0
0, 0
0, 0
0, 0
0, 0
0, 0
0, 0
0, 0
0, 0
0, 1
0, 0
0, 0
0, 0
0, 0
0, 0
0, 0
1, 0
1, 0
0, 0
0, 0
2, 1
1, 0
3, 1
2, 3
3, 3
2, 2
5, 3
3, 2
1, 3
3, 3
2, 3
4, 7
9, 7
11, 14
18, 21
36, 29
52, 39
65, 40
48, 32
49, 33
34, 24
20, 10
9, 12
7, 4
5, 5
6, 5
6, 4
7, 2
4, 8
7, 3
12, 7
26, 17
45, 39
97, 81
161, 149
270, 243
370, 306
394, 347
427, 400
385, 342
310, 247
221, 163
128, 110
68, 47
31, 43
19, 21
11, 12
13, 9
9, 7
3, 6
8, 2
5, 4
5, 2
5, 4
5, 7
8, 7
11, 14
22, 16
40, 27
62, 48
61, 67
87, 76
89, 81
95, 70
55, 49
49, 45
23, 34
19, 24
12, 15
18, 18
16, 25
36, 32
32, 50
48, 66
66, 84
75, 94
89, 106
110, 102
80, 123
70, 92
63, 77
55, 63
49, 45
35, 39
38, 41
38, 35
33, 21
23, 25
14, 22
13, 21
16, 13
13, 14
13, 11
6, 10
7, 12
1, 5
2, 2
2, 3
7, 4
3, 3
7, 5
10, 7
8, 4
4, 7
6, 3
7, 5
4, 7
4, 4
1, 8
2, 7
6, 3
12, 6
8, 7
29, 31
40, 45
101, 91
151, 162
197, 218
296, 347
366, 356
381, 396
384, 382
377, 332
269, 257
177, 195
105, 87
57, 47
40, 32
28, 25
26, 24
26, 31
41, 39
44, 53
42, 61
62, 61
65, 46
43, 43
42, 45
37, 15
15, 25
15, 11
12, 7
11, 2
11, 6
4, 6
5, 4
5, 3
6, 4
15, 6
5, 7
16, 6
11, 12
12, 12
22, 15
17, 21
23, 24
22, 19
26, 27
25, 19
18, 13
32, 12
25, 10
41, 12
45, 10
68, 9
56, 11
53, 10
65, 5
65, 8
44, 6
51, 2
35, 10
31, 5
20, 13
14, 14
7, 11
14, 7
7, 7
5, 8
6, 9
2, 3
8, 8
6, 6
6, 7
7, 9
5, 10
15, 12
18, 20
34, 28
37, 39
46, 51
77, 62
69, 73
75, 69
78, 56
64, 70
53, 59
45, 43
34, 22
29, 20
16, 10
13, 10
17, 7
12, 8
13, 6
11, 7
16, 9
22, 19
29, 20
37, 30
43, 28
58, 62
73, 56
62, 52
70, 60
54, 59
60, 56
65, 47
30, 42
33, 28
17, 20
18, 19
17, 9
16, 23
19, 27
32, 38
68, 87
127, 139
225, 275
374, 443
647, 716
925, 1053
1399, 1338
1601, 1635
1955, 1913
1957, 1949
1971, 1790
1751, 1509
1396, 1199
1051, 852
745, 533
458, 400
265, 211
153, 118
81, 50
63, 19
25, 14
17, 14
20, 15
23, 16
18, 15
19, 12
26, 21
20, 22
29, 30
39, 54
68, 58
90, 114
126, 160
145, 172
223, 225
278, 296
286, 281
284, 283
284, 291
244, 239
210, 157
169, 146
103, 99
71, 63
44, 36
30, 17
22, 7
11, 7
19, 5
12, 7
11, 1
17, 18
12, 6
10, 2
17, 8
13, 9
15, 8
10, 11
11, 7
8, 11
8, 7
8, 0
6, 4
6, 8
1, 3
6, 1
2, 3
3, 2
7, 3
3, 5
3, 2
1, 2
3, 0
3, 4
0, 5
6, 2
2, 4
6, 7
6, 6
9, 4
8, 2
6, 7
6, 3
8, 5
3, 4
4, 4
2, 10
5, 2
7, 3
6, 6
6, 0
5, 6
11, 4
9, 2
6, 2
5, 7
6, 3
7, 3
8, 9
9, 6
9, 8
6, 5
6, 5
3, 7
7, 6
5, 4
7, 5
1, 4
8, 6
3, 9
3, 6
1, 4
6, 2
4, 1
6, 5
5, 4
1, 4
1, 4
4, 3
6, 6
5, 3
6, 2
12, 6
13, 5
5, 9
8, 4
15, 5
20, 2
14, 3
12, 2
6, 5
11, 5
4, 3
9, 4
4, 2
5, 4
2, 1
5, 4
1, 5
5, 3
2, 4
3, 4
3, 5
6, 1
5, 3
6, 6
1, 2
1, 1
1, 3
3, 4
5, 3
7, 1
3, 4
5, 6
1, 3
2, 3
4, 5
4, 6
3, 3
2, 5
6, 3
6, 7
8, 7
6, 5
3, 5
3, 6
4, 6
3, 3
3, 5
6, 6
3, 8
4, 2
4, 4
4, 5
3, 6
1, 3
4, 0
5, 2
3, 3
7, 4
5, 4
5, 4
4, 1
2, 2
6, 3
3, 5
1, 2
1, 3
4, 3
4, 6
4, 2
3, 7
4, 3
4, 0
3, 2
4, 1
3, 4
1, 2
3, 3
2, 7
6, 1
1, 3
3, 4
2, 7
4, 5
4, 2
0, 7
5, 2
4, 5
5, 2
2, 4
1, 3
7, 3
4, 1
4, 1
3, 4
2, 0
0, 1
2, 2
4, 1
4, 1
1, 0
3, 4
6, 1
9, 0
5, 1
3, 1
1, 1
2, 3
2, 4
6, 3
1, 3
2, 2
4, 3
7, 3
1, 1
2, 1
3, 4
1, 3
1, 2
3, 1
4, 0
3, 2
1, 1
1, 3
4, 4
2, 2
1, 1
3, 1
0, 0
1, 3
2, 2
5, 0
2, 2
3, 0
6, 2
1, 3
3, 6
3, 1
3, 0
1, 1
1, 3
2, 1
0, 3
2, 5
2, 2
2, 4
3, 6
3, 5
2, 5
1, 4
1, 3
1, 0
3, 7
1, 3
4, 2
4, 2
3, 5
3, 3
3, 4
4, 5
2, 7
2, 4
4, 4
4, 1
2, 2
5, 1
2, 1
2, 2
3, 3
0, 2
1, 0
1, 1
0, 1
2, 1
0, 1
4, 1
4, 0
2, 0
1, 0
1, 0
1, 0
0, 3
0, 0
0, 2
2, 1
0, 0
0, 2
2, 2
3, 2
2, 0
0, 0
3, 2
3, 1
2, 0
3, 1
2, 0
1, 0
2, 1
0, 2
0, 0
1, 1
0, 1
1, 1
0, 1
1, 1
1, 1
2, 1
1, 2
1, 0
3, 1
1, 1
1, 1
1, 0
0, 0
0, 1
1, 2
0, 0
0, 1
0, 0
1, 0
2, 2
1, 1
2, 3
0, 1
0, 2
0, 1
2, 0
4, 0
1, 1
2, 0
1, 1
2, 0
2, 0
2, 0
1, 0
2, 1
0, 1
3, 0
0, 2
1, 0
1, 0
1, 1
4, 1
2, 2
0, 0
1, 1
0, 3
0, 1
1, 1
2, 0
1, 2
0, 0
2, 0
1, 1
1, 0
0, 0
0, 0
0, 1
3, 1
1, 0
0, 0
0, 0
0, 1
1, 1
1, 1
0, 0
0, 1
3, 0
1, 0
0, 0
0, 0
0, 0
0, 1
1, 0
2, 0
1, 0
1, 0
0, 1
0, 0
1, 0
0, 1
0, 1
0, 2
0, 2
1, 0
0, 0
0, 0
0, 0
1, 0
0, 0
2, 1
0, 1
1, 0
1, 0
0, 0
0, 0
0, 0
0, 0
1, 1
1, 0
2, 0
0, 0
0, 2
1, 0
1, 1
0, 0
1, 1
1, 0
0, 2
0, 1
1, 0
0, 0
0, 0
0, 0
0, 0
1, 0
1, 0
0, 0
1, 0
0, 0
0, 0
0, 0
0, 0
0, 0
1, 1
0, 1
1, 1
0, 0
0, 1
0, 1
1, 0
0, 0
0, 0
0, 0
2, 0
0, 0
1, 1
0, 0
0, 0
1, 1
0, 0
0, 2
0, 0
0, 0
0, 1
0, 0
0, 0
0, 0
0, 0
0, 0
1, 1
0, 0
0, 0
0, 0
0, 2
1, 0
0, 0
0, 0
2, 0
0, 0
0, 0
0, 0
0, 0
0, 0
1, 0
1, 0
1, 0
0, 0
0, 0
2, 0
0, 0
0, 0
0, 0
0, 0
0, 0
0, 0
1, 0
0, 0
0, 0
0, 0
0, 1
1, 0
1, 0
0, 2
0, 0
0, 1
0, 0
2, 0
0, 1
1, 0
0, 0
0, 0
1, 0
0, 1
1, 0
0, 0
0, 0
0, 0
0, 0
0, 0
0, 0
0, 0
0, 0
0, 1
0, 0
0, 0
0, 0
0, 0
0, 0
0, 0
0, 1
1, 0
0, 0
0, 0
1, 0
0, 1
0, 0
3, 2
0, 1
0, 0
0, 0
0, 0
0, 0
0, 0
0, 0
0, 0
0, 0
0, 0
0, 0
0, 0
0, 0
0, 1
0, 0
0, 0
1, 0
0, 0
0, 0
0, 0
1, 0
0, 0
0, 0
1, 0
0, 0
0, 0
1, 0
1, 1
1, 1
0, 0
0, 0
0, 0
0, 0
0, 0
0, 0
0, 0
0, 0
0, 0
0, 0
0, 0
0, 1
0, 0
0, 0
0, 0
0, 0
0, 0
0, 0
1, 1
0, 0
0, 0
0, 0
0, 0
0, 0
0, 0
0, 0
1, 1
1, 0
0, 0
0, 0
0, 0
1, 1
1, 0
1, 0
0, 1
0, 0
0, 0
0, 0
0, 0
0, 0
0, 0
0, 0
0, 0
0, 0
0, 0
0, 0
0, 0
0, 0
0, 0
0, 0
0, 0
0, 0
0, 0
0, 0
0, 0
0, 0
0, 0
0, 0
0, 0
0, 0
0, 0
0, 0
0, 0
0, 0
0, 0
0, 0
0, 0
0, 0
0, 0
0, 0
0, 0
0, 0
0, 0
0, 0
0, 0
0, 0
0, 0
0, 0
0, 0
0, 0
0, 0
0, 0
0, 0
0, 0
1, 0
0, 0
0, 0
0, 0
0, 0
0, 0
0, 0
0, 0
0, 0
0, 0
0, 0
0, 0
0, 0
0, 0
0, 0
0, 1
0, 0
0, 0
0, 0
0, 0
0, 0
0, 0
0, 0
0, 0
0, 0
0, 0
0, 0
0, 0
0, 0
0, 0
0, 0
0, 0
0, 0
0, 0
0, 0
0, 0
0, 0
0, 0
0, 0
0, 1
0, 0
0, 0
0, 0
0, 0
0, 0
0, 0
0, 0
0, 0
0, 0
0, 0
0, 0
0, 0
0, 0
0, 0
0, 0
0, 0
0, 0
0, 0
0, 0
0, 0
0, 0
0, 0
0, 0
0, 0
0, 0
0, 1
0, 0
0, 0
0, 0
0, 0
0, 0
0, 0
0, 0
1, 0
0, 0
0, 0
0, 0
0, 0
0, 0
0, 1
1, 0
0, 0
0, 0
0, 1
0, 0
0, 0
0, 0
0, 0
0, 0
0, 0
0, 0
0, 0
0, 0
0, 0
0, 0
0, 0
0, 0
0, 0
0, 0
0, 0
0, 0
0, 0
0, 0
0, 0
0, 0
0, 0
0, 0
0, 0
0, 0
0, 0
0, 0
0, 0
0, 0
0, 0
0, 0
0, 0
0, 0
0, 0
0, 0
0, 0
0, 0
0, 0
0, 0
0, 0
0, 0
0, 0
0, 0
0, 0
0, 0
0, 0
0, 0
0, 0
0, 0
0, 0
0, 0
0, 0
0, 0
0, 0
0, 0
0, 0
0, 0
0, 0
0, 0
0, 0
0, 0
0, 0
0, 0
0, 0
0, 0
0, 0
0, 0
0, 0
0, 0
0, 0
0, 0
0, 0
0, 0
0, 0
0, 0
0, 0
0, 0
0, 0
0, 0
0, 0
0, 0
0, 0
0, 0
0, 0
0, 0
0, 0
0, 0
0, 0
0, 0
0, 0
0, 0
0, 0
0, 0
0, 0
0, 0
0, 0
0, 0
0, 0
0, 0
0, 0
0, 0
0, 0
0, 0
0, 0
0, 0
0, 0
0, 0
0, 0
0, 0
0, 0
0, 0
0, 0
0, 0
0, 0
0, 0
0, 0
0, 0
0, 0
0, 0
0, 0
0, 0
0, 0
0, 0
0, 0
0, 0
0, 0
0, 0
0, 0
0, 0
0, 0
0, 0
0, 0
0, 0
0, 0
0, 0
0, 0
0, 0
0, 0
0, 0
0, 0
0, 0
0, 0
0, 0
0, 0
0, 0
0, 0
0, 0
0, 0
0, 0
0, 0
0, 0
0, 0
0, 0
0, 0
0, 0
0, 0
0, 0
0, 0
0, 0
0, 0
0, 0
0, 0
0, 0
0, 0
0, 0
0, 0
0, 0
0, 0
0, 0
0, 0
0, 0
0, 0
0, 0
0, 0
0, 0
0, 0
0, 0
0, 0
0, 0
0, 0
0, 0
0, 0
0, 0
0, 0
0, 0
0, 0
0, 0
0, 0
0, 0
0, 0
0, 0
0, 0
0, 0
0, 0
0, 0
0, 0
0, 0
0, 0
0, 0
0, 0
0, 0
0, 0
0, 0
0, 0
0, 0
0, 0
0, 0
0, 0
0, 0
0, 0
0, 0
0, 0
0, 0
0, 0
0, 0
0, 0
0, 0
0, 0
0, 0
0, 0
0, 0
0, 0
0, 0
0, 0
0, 0
0, 0
0, 0
0, 0
0, 0
0, 0
0, 0
0, 0
0, 0
0, 0
0, 0
0, 0
0, 0
0, 0
0, 0
0, 0
0, 0
0, 0
0, 0
0, 0
0, 0
0, 0
0, 0
0, 0
0, 0
0, 0
0, 0
0, 0
0, 0
0, 0
0, 0
0, 0
0, 0
0, 0
0, 0
0, 0
0, 0
0, 0
0, 0
0, 0
0, 0
0, 0
0, 0
0, 0
0, 0
0, 0
0, 0
0, 0
0, 0
0, 0
0, 0
0, 0
0, 0
0, 0
0, 0
0, 0
0, 0
0, 0
0, 0
0, 0
0, 0
0, 0
0, 0
0, 0
0, 0
0, 0
0, 0
0, 0
0, 0
0, 0
0, 0
0, 0
0, 0
0, 0
0, 0
0, 0
0, 0
0, 0
0, 0
0, 0
0, 0
0, 0
0, 0
0, 0
0, 0
0, 0
0, 0
0, 0
0, 0
0, 0
0, 0
0, 0
0, 0
0, 0
0, 0
0, 0
0, 0
0, 0
0, 0
0, 0
0, 0
0, 0
0, 0
0, 0
0, 0
0, 0
0, 0
0, 0
0, 0
0, 0
0, 0
0, 0
0, 0
0, 0
0, 0
0, 0
0, 0
0, 0
0, 0
0, 0
0, 0
0, 0
0, 0
0, 0
0, 0
0, 0
0, 0
0, 0
0, 0
0, 0
0, 0
0, 0
0, 0
0, 0
0, 0
0, 0
0, 0
0, 0
0, 0
0, 0
0, 0
0, 0
0, 0
#ENDOFDATA     end of spectrum data