File: host_upload/06-09-2024/ps_0852/dump3/ps__0852shot_2187.msa
#FORMAT      : EMSA/MAS spectral data file
#VERSION     : TC202v2.0 PIXL
#TITLE       : N/A
#DATE        :       Date in the format DD-MMM-YYYY, for example 07-JUL-2010
#TIME        :             The time of day at which the spectrum was recorded, in 24-hour format
#OWNER       : PIXL Flight Model       (PIXL will use this to indicate which instrument took the data.)
#NPOINTS     : 4096     Number of data points in the spectrum (This can be zero for configuration only files)
#NCOLUMNS    : 2     Number of data columns in the spectrum (This can be zero for configuration only files)
#XUNITS      : eV
#YUNITS      : COUNTS
#DATATYPE    : YY
#XPERCHAN    : 7.862, 7.881   eV per channel (separate by commas if more than one detector)
#OFFSET      : 18.5, -22.4         eV of first channel  (separate by commas if more than one detector
#SIGNALTYPE  : XRF
#YP_TEMP     : 2.428
#LIVETIME    : 8.56907, 8.54811   seconds (separate by commas if more than one detector)
#REALTIME    : 10, 10.0   seconds (separate by commas if more than one detector)
#SPECTRUM    : start of spectrum data
0, 0
0, 0
0, 0
0, 0
0, 0
0, 0
0, 0
0, 0
0, 0
0, 0
0, 0
0, 0
0, 0
0, 0
0, 0
0, 0
0, 0
0, 0
0, 0
0, 0
0, 0
0, 0
0, 0
0, 0
0, 0
0, 0
0, 0
0, 0
0, 0
0, 0
0, 0
0, 0
0, 0
0, 1
0, 0
0, 0
2, 0
1, 1
0, 1
4, 0
2, 1
3, 0
1, 1
2, 1
1, 4
4, 0
0, 2
3, 3
4, 11
11, 9
27, 35
34, 36
46, 69
67, 83
94, 87
68, 105
65, 64
39, 51
24, 32
16, 13
6, 11
5, 6
2, 5
3, 2
4, 5
8, 3
6, 4
11, 9
12, 20
32, 51
94, 102
175, 184
237, 280
306, 422
373, 477
395, 502
337, 402
274, 346
188, 204
117, 126
64, 86
38, 40
14, 22
11, 10
3, 5
1, 6
3, 3
0, 1
3, 0
2, 2
0, 1
1, 2
1, 0
0, 1
1, 1
0, 3
1, 3
3, 1
2, 3
4, 2
2, 3
3, 2
1, 3
3, 1
3, 3
8, 2
10, 4
5, 9
9, 7
23, 5
47, 13
63, 22
101, 30
150, 33
171, 30
196, 42
171, 39
164, 38
137, 35
78, 23
51, 20
35, 18
28, 18
20, 13
18, 9
18, 17
11, 16
14, 11
11, 9
8, 10
3, 7
4, 4
0, 2
0, 4
4, 4
1, 4
0, 3
2, 2
1, 2
3, 0
1, 1
0, 0
1, 1
4, 3
3, 2
0, 1
5, 4
2, 2
2, 2
0, 2
3, 4
0, 5
5, 4
6, 7
10, 16
12, 19
18, 12
15, 20
17, 14
13, 13
11, 9
9, 13
4, 7
2, 2
5, 4
2, 7
2, 6
3, 3
6, 2
11, 6
9, 5
15, 13
19, 3
31, 3
33, 5
36, 6
49, 3
43, 2
42, 5
40, 3
42, 1
20, 2
9, 2
8, 5
9, 4
4, 3
4, 1
3, 7
10, 4
8, 6
5, 8
12, 7
13, 5
8, 13
14, 24
8, 25
12, 19
14, 36
17, 38
10, 62
10, 76
9, 113
3, 117
5, 132
6, 110
1, 94
4, 64
3, 59
3, 29
5, 27
4, 16
4, 9
2, 12
8, 5
9, 11
7, 9
3, 7
4, 10
6, 8
12, 5
6, 13
4, 10
3, 8
8, 13
6, 4
8, 12
5, 17
8, 10
11, 21
21, 13
13, 17
15, 20
27, 17
37, 12
49, 8
53, 7
61, 6
51, 8
63, 6
48, 12
38, 2
31, 7
22, 6
14, 10
19, 15
21, 18
25, 35
27, 37
36, 56
37, 49
54, 63
60, 56
52, 55
44, 53
29, 37
25, 42
22, 31
15, 21
17, 29
14, 31
22, 35
20, 50
43, 83
82, 124
131, 239
233, 383
445, 617
673, 949
1087, 1450
1353, 1757
1778, 2287
1964, 2474
2161, 2608
2146, 2512
1951, 2162
1557, 1752
1178, 1258
874, 860
576, 581
312, 353
168, 186
92, 137
49, 70
30, 46
21, 35
18, 30
24, 19
21, 16
19, 16
45, 21
46, 32
40, 36
57, 40
78, 95
81, 118
136, 166
184, 213
260, 281
299, 367
315, 384
341, 383
273, 366
264, 265
240, 213
170, 156
133, 120
74, 76
58, 51
33, 25
15, 14
11, 8
5, 5
6, 3
8, 10
8, 8
2, 14
15, 17
16, 13
11, 6
10, 10
5, 9
9, 11
0, 10
5, 6
5, 7
3, 4
4, 5
2, 4
5, 3
5, 2
3, 3
4, 5
2, 3
2, 4
4, 3
3, 7
3, 4
8, 3
1, 3
5, 7
5, 6
6, 7
1, 3
9, 3
11, 7
14, 2
14, 4
28, 5
46, 2
49, 5
39, 11
50, 5
53, 2
52, 1
51, 4
45, 1
33, 3
22, 1
22, 4
15, 6
11, 4
6, 8
6, 4
9, 3
2, 4
7, 9
4, 5
3, 1
1, 3
3, 3
4, 4
2, 7
2, 1
2, 2
3, 8
5, 8
0, 6
0, 2
6, 1
4, 2
1, 2
1, 4
2, 2
3, 4
4, 2
4, 4
2, 3
3, 7
3, 4
3, 3
2, 2
2, 5
2, 3
2, 7
3, 3
2, 5
3, 2
4, 5
3, 3
1, 9
3, 10
2, 8
1, 4
2, 3
1, 5
1, 5
3, 11
4, 1
2, 4
3, 4
1, 4
0, 3
3, 4
6, 2
3, 6
1, 4
1, 3
1, 3
6, 2
6, 6
3, 4
2, 6
1, 6
3, 10
4, 7
2, 4
4, 5
3, 3
4, 6
0, 4
2, 4
4, 2
2, 6
2, 7
5, 14
2, 6
1, 3
3, 5
0, 2
3, 3
0, 2
5, 4
1, 6
1, 3
0, 5
1, 5
1, 1
1, 7
3, 0
1, 1
4, 2
4, 1
2, 5
5, 1
2, 0
4, 1
1, 3
1, 4
1, 2
2, 2
3, 2
2, 7
2, 3
2, 5
5, 6
2, 3
2, 1
3, 4
0, 4
2, 2
3, 4
2, 1
3, 2
2, 2
6, 3
5, 2
1, 1
2, 5
5, 4
2, 0
2, 1
3, 1
1, 2
0, 2
3, 3
3, 1
1, 0
2, 3
3, 2
2, 1
1, 3
1, 2
4, 4
3, 2
1, 4
3, 1
1, 2
1, 3
0, 3
1, 2
3, 5
0, 3
4, 1
0, 2
1, 1
3, 2
3, 6
2, 2
1, 4
2, 3
1, 1
2, 1
0, 2
0, 4
0, 3
1, 0
4, 4
2, 2
1, 3
0, 4
1, 0
3, 1
2, 1
1, 1
2, 2
0, 4
2, 2
4, 3
1, 2
5, 0
1, 1
5, 2
1, 2
5, 4
2, 2
6, 2
2, 2
5, 2
2, 7
2, 5
3, 5
4, 5
3, 4
7, 5
1, 6
3, 3
2, 6
3, 6
1, 6
3, 6
0, 1
1, 7
0, 2
2, 3
0, 1
0, 3
1, 2
0, 1
2, 3
0, 1
0, 2
0, 3
1, 5
0, 1
5, 2
1, 2
1, 2
3, 2
1, 1
3, 4
1, 2
1, 2
3, 2
1, 1
0, 3
2, 1
1, 1
2, 1
1, 1
2, 1
1, 1
0, 0
2, 2
0, 1
0, 1
1, 0
1, 1
0, 2
0, 0
1, 1
0, 1
2, 2
0, 1
0, 1
1, 0
1, 2
2, 1
2, 2
0, 1
0, 4
1, 0
2, 2
0, 1
0, 0
1, 1
2, 2
3, 0
1, 2
2, 0
0, 3
0, 2
2, 2
1, 0
0, 1
2, 1
1, 1
0, 1
0, 0
1, 2
1, 1
0, 2
0, 1
0, 1
2, 1
0, 1
0, 2
1, 2
0, 2
0, 1
2, 1
1, 2
3, 0
1, 1
2, 0
0, 1
0, 0
0, 1
0, 0
0, 1
1, 1
1, 1
0, 1
0, 0
0, 0
0, 0
0, 2
1, 1
2, 1
0, 0
4, 3
0, 0
0, 1
1, 0
1, 2
1, 1
1, 0
0, 0
0, 2
1, 0
0, 1
1, 0
1, 0
0, 0
1, 1
0, 0
0, 0
0, 1
0, 0
1, 1
0, 0
0, 1
0, 0
0, 2
2, 0
1, 1
1, 0
2, 0
1, 0
0, 0
0, 1
1, 0
0, 0
0, 0
0, 0
0, 1
1, 0
0, 1
1, 0
1, 0
0, 1
0, 1
0, 0
1, 1
0, 2
0, 1
0, 0
0, 0
0, 1
0, 2
0, 0
0, 0
0, 0
0, 0
0, 0
0, 0
0, 0
1, 0
1, 0
1, 0
1, 0
0, 1
1, 0
0, 0
0, 1
0, 0
1, 0
0, 0
0, 0
1, 0
0, 0
0, 0
0, 0
0, 0
0, 1
0, 1
0, 2
1, 0
1, 0
1, 1
1, 1
0, 1
0, 3
1, 2
0, 0
0, 1
1, 0
0, 0
0, 0
1, 0
0, 0
1, 2
0, 1
0, 1
0, 0
3, 1
0, 1
0, 0
0, 1
0, 0
0, 0
0, 0
1, 2
0, 0
1, 0
0, 0
0, 0
0, 2
0, 0
1, 0
0, 0
0, 0
0, 0
0, 0
0, 0
0, 0
0, 0
0, 0
2, 2
0, 0
0, 0
0, 0
0, 0
0, 0
3, 0
0, 0
1, 0
0, 0
1, 1
0, 0
0, 0
0, 0
1, 0
0, 0
0, 2
0, 0
0, 0
0, 0
0, 0
0, 0
0, 0
0, 0
0, 1
1, 0
0, 0
0, 0
0, 1
0, 0
0, 0
0, 0
0, 1
0, 0
0, 0
2, 0
0, 0
0, 0
0, 0
0, 0
0, 0
1, 0
0, 1
0, 0
0, 0
0, 0
0, 0
0, 0
1, 0
0, 0
0, 0
0, 0
1, 0
0, 2
0, 0
0, 0
0, 0
0, 0
0, 0
0, 0
0, 0
0, 0
1, 0
0, 0
0, 0
0, 0
0, 0
0, 0
0, 1
0, 0
0, 0
0, 0
0, 0
0, 0
0, 0
0, 0
0, 1
1, 0
0, 0
0, 0
0, 0
0, 0
0, 1
1, 0
1, 0
0, 0
0, 0
0, 0
0, 1
0, 0
0, 0
0, 1
0, 0
0, 0
0, 1
0, 0
0, 0
1, 0
0, 0
0, 0
0, 0
0, 0
1, 0
0, 0
0, 0
0, 0
1, 0
0, 0
0, 1
1, 0
0, 0
0, 1
0, 0
0, 0
0, 0
0, 0
0, 0
0, 0
0, 0
0, 0
0, 0
0, 0
0, 0
0, 0
0, 0
1, 0
1, 0
0, 1
0, 0
0, 0
0, 0
0, 0
0, 0
0, 0
0, 0
0, 0
0, 0
0, 0
1, 0
0, 0
1, 0
0, 0
0, 0
0, 0
0, 0
0, 0
0, 1
0, 0
0, 0
0, 0
0, 0
0, 0
0, 0
0, 0
0, 0
0, 0
0, 0
1, 0
0, 0
0, 0
0, 0
0, 1
0, 0
0, 0
0, 0
0, 1
0, 0
0, 0
0, 0
0, 0
0, 0
0, 0
0, 0
0, 0
0, 0
0, 0
0, 0
0, 0
0, 0
0, 0
0, 0
0, 0
0, 0
0, 0
0, 0
0, 0
0, 0
0, 0
0, 0
0, 0
0, 0
0, 0
0, 0
0, 0
0, 0
1, 0
0, 0
0, 0
0, 0
0, 0
0, 0
0, 0
1, 1
0, 0
0, 0
0, 0
0, 0
0, 0
0, 0
0, 0
0, 0
0, 0
0, 0
0, 0
0, 0
0, 0
1, 0
0, 0
0, 0
0, 0
0, 0
0, 0
0, 0
0, 0
0, 0
0, 0
0, 1
0, 0
0, 0
0, 0
0, 0
0, 0
0, 0
0, 0
0, 0
0, 0
0, 0
0, 0
0, 0
0, 0
0, 0
0, 0
0, 0
0, 0
0, 0
0, 0
0, 0
0, 0
0, 0
0, 0
0, 0
0, 0
0, 0
0, 0
0, 0
0, 0
0, 0
0, 0
0, 0
0, 0
0, 0
0, 0
0, 0
0, 0
0, 0
0, 0
0, 0
0, 0
0, 0
0, 0
0, 0
0, 0
0, 0
0, 0
0, 0
0, 0
0, 0
0, 0
0, 0
0, 0
0, 0
0, 0
0, 0
0, 0
0, 0
0, 0
0, 0
0, 0
0, 0
0, 0
0, 0
0, 0
0, 0
0, 0
0, 0
0, 0
0, 0
0, 0
0, 0
0, 0
0, 0
0, 0
0, 0
0, 0
0, 0
0, 0
0, 0
0, 0
0, 0
0, 0
0, 0
0, 0
0, 0
0, 0
0, 0
0, 0
0, 0
0, 0
0, 0
0, 0
0, 0
0, 0
0, 0
0, 0
0, 0
0, 0
0, 0
0, 0
0, 0
0, 0
0, 0
0, 0
0, 0
0, 0
0, 0
0, 0
0, 0
0, 0
0, 0
0, 0
0, 0
0, 0
0, 0
0, 0
0, 0
0, 0
0, 0
0, 0
0, 0
0, 0
0, 0
0, 0
0, 0
0, 0
0, 0
0, 0
0, 0
0, 0
0, 0
0, 0
0, 0
0, 0
0, 0
0, 0
0, 0
0, 0
0, 0
0, 0
0, 0
0, 0
0, 0
0, 0
0, 0
0, 0
0, 0
0, 0
0, 0
0, 0
0, 0
0, 0
0, 0
0, 0
0, 0
0, 0
0, 0
0, 0
0, 0
0, 0
0, 0
0, 0
0, 0
0, 0
0, 0
0, 0
0, 0
0, 0
0, 0
0, 0
0, 0
0, 0
0, 0
0, 0
0, 0
0, 0
0, 0
0, 0
0, 0
0, 0
0, 0
0, 0
0, 0
0, 0
0, 0
0, 0
0, 0
0, 0
0, 0
0, 0
0, 0
0, 0
0, 0
0, 0
0, 0
0, 0
0, 0
0, 0
0, 0
0, 0
0, 0
0, 0
0, 0
0, 0
0, 0
0, 0
0, 0
0, 0
0, 0
0, 0
0, 0
0, 0
0, 0
0, 0
0, 0
0, 0
0, 0
0, 0
0, 0
0, 0
0, 0
0, 0
0, 0
0, 0
0, 0
0, 0
0, 0
0, 0
0, 0
0, 0
0, 0
0, 0
0, 0
0, 0
0, 0
0, 0
0, 0
0, 0
0, 0
0, 0
0, 0
0, 0
0, 0
0, 0
0, 0
0, 0
0, 0
0, 0
0, 0
0, 0
0, 0
0, 0
0, 0
0, 0
0, 0
0, 0
0, 0
0, 0
0, 0
0, 0
0, 0
0, 0
0, 0
0, 0
0, 0
0, 0
0, 0
0, 0
0, 0
0, 0
0, 0
0, 0
0, 0
0, 0
0, 0
0, 0
0, 0
0, 0
0, 0
0, 0
0, 0
0, 0
0, 0
0, 0
0, 0
0, 0
0, 0
0, 0
0, 0
0, 0
0, 0
0, 0
0, 0
0, 0
0, 0
0, 0
0, 0
0, 0
0, 0
0, 0
0, 0
0, 0
0, 0
0, 0
0, 0
0, 0
0, 0
0, 0
0, 0
0, 0
0, 0
0, 0
0, 0
0, 0
0, 0
0, 0
0, 0
0, 0
0, 0
0, 0
0, 0
0, 0
0, 0
0, 0
0, 0
0, 0
0, 0
0, 0
0, 0
0, 0
0, 0
0, 0
0, 0
0, 0
0, 0
0, 0
0, 0
0, 0
0, 0
0, 0
0, 0
0, 0
0, 0
0, 0
0, 0
0, 0
0, 0
0, 0
0, 0
0, 0
0, 0
0, 0
0, 0
0, 0
0, 0
0, 0
0, 0
0, 0
0, 0
0, 0
0, 0
0, 0
0, 0
0, 0
0, 0
0, 0
0, 0
0, 0
0, 0
0, 0
0, 0
#ENDOFDATA     end of spectrum data