File: host_upload/06-09-2024/ps_0852/dump3/ps__0852shot_2078.msa
#FORMAT      : EMSA/MAS spectral data file
#VERSION     : TC202v2.0 PIXL
#TITLE       : N/A
#DATE        :       Date in the format DD-MMM-YYYY, for example 07-JUL-2010
#TIME        :             The time of day at which the spectrum was recorded, in 24-hour format
#OWNER       : PIXL Flight Model       (PIXL will use this to indicate which instrument took the data.)
#NPOINTS     : 4096     Number of data points in the spectrum (This can be zero for configuration only files)
#NCOLUMNS    : 2     Number of data columns in the spectrum (This can be zero for configuration only files)
#XUNITS      : eV
#YUNITS      : COUNTS
#DATATYPE    : YY
#XPERCHAN    : 7.862, 7.881   eV per channel (separate by commas if more than one detector)
#OFFSET      : 18.5, -22.4         eV of first channel  (separate by commas if more than one detector
#SIGNALTYPE  : XRF
#YP_TEMP     : 2.203
#LIVETIME    : 8.56924, 8.55032   seconds (separate by commas if more than one detector)
#REALTIME    : 10, 10.0   seconds (separate by commas if more than one detector)
#SPECTRUM    : start of spectrum data
0, 0
0, 0
0, 0
0, 0
0, 0
0, 0
0, 0
0, 0
0, 0
0, 0
0, 0
0, 0
0, 0
0, 0
0, 0
0, 0
0, 0
0, 0
0, 0
0, 0
0, 0
0, 0
0, 0
0, 0
0, 0
0, 0
0, 0
0, 0
0, 0
0, 0
0, 0
0, 1
0, 0
0, 0
0, 0
0, 0
2, 0
1, 1
2, 0
0, 1
5, 0
2, 1
3, 0
0, 2
2, 2
4, 1
2, 7
3, 1
10, 4
10, 13
20, 26
38, 41
59, 51
69, 77
83, 88
66, 72
78, 68
51, 35
35, 37
17, 23
6, 4
3, 5
3, 4
3, 0
3, 1
3, 8
8, 3
11, 8
20, 26
44, 49
95, 110
155, 164
272, 280
351, 384
416, 419
380, 409
362, 393
289, 272
199, 163
119, 137
62, 60
34, 42
22, 19
13, 9
10, 5
3, 1
4, 1
0, 1
0, 4
1, 1
0, 2
2, 4
0, 3
7, 4
4, 5
5, 6
9, 8
13, 7
17, 4
9, 11
10, 6
8, 5
3, 5
5, 4
3, 3
6, 5
9, 7
12, 10
5, 15
20, 23
21, 17
22, 38
45, 40
55, 56
62, 74
57, 69
69, 97
48, 73
52, 73
47, 86
29, 68
32, 59
29, 56
26, 37
19, 29
15, 21
16, 18
17, 9
12, 12
11, 4
12, 9
9, 3
4, 7
4, 6
2, 1
6, 5
3, 1
1, 4
3, 0
5, 1
4, 0
1, 4
2, 4
5, 4
2, 6
2, 3
4, 4
2, 4
1, 3
4, 3
13, 11
11, 7
15, 10
22, 9
25, 22
22, 22
16, 16
26, 23
30, 16
18, 22
11, 9
19, 14
6, 9
9, 9
6, 9
10, 7
3, 5
6, 8
6, 7
5, 3
2, 8
4, 4
9, 5
7, 8
5, 8
6, 8
7, 10
3, 21
7, 9
7, 9
5, 8
7, 9
5, 13
13, 6
7, 7
7, 6
4, 13
7, 5
5, 13
7, 16
13, 12
13, 20
17, 17
23, 18
16, 16
25, 18
25, 28
27, 25
38, 23
21, 21
30, 17
29, 19
24, 16
15, 7
15, 8
10, 5
12, 6
8, 4
12, 9
11, 6
13, 7
13, 13
9, 9
10, 10
12, 11
5, 12
10, 13
7, 6
7, 13
11, 8
11, 16
3, 9
7, 8
6, 11
9, 14
14, 16
13, 13
16, 18
24, 21
14, 14
28, 25
27, 30
16, 25
17, 29
21, 47
15, 34
26, 33
6, 33
10, 32
11, 30
20, 19
8, 22
14, 19
26, 24
21, 20
24, 27
26, 30
30, 43
39, 47
61, 54
63, 71
55, 68
60, 61
52, 73
40, 43
38, 30
28, 31
37, 29
20, 20
28, 20
25, 20
33, 44
50, 52
106, 116
139, 206
265, 362
483, 652
742, 885
1110, 1343
1543, 1799
1987, 2202
2128, 2395
2321, 2489
2259, 2250
2055, 2047
1720, 1576
1292, 1073
957, 777
593, 503
377, 282
208, 145
101, 94
56, 57
35, 35
32, 39
28, 19
43, 34
33, 22
49, 33
47, 29
49, 33
41, 44
72, 65
83, 103
141, 127
163, 187
184, 229
254, 279
276, 338
321, 344
320, 367
321, 345
319, 263
284, 237
187, 173
144, 122
96, 70
52, 54
37, 23
21, 16
11, 18
10, 11
8, 11
7, 17
9, 14
12, 12
13, 6
19, 14
17, 18
19, 15
12, 12
4, 10
9, 14
10, 7
7, 7
8, 5
12, 6
7, 12
4, 5
4, 4
11, 9
5, 6
7, 4
2, 8
4, 8
3, 11
6, 8
4, 5
5, 4
4, 11
6, 5
6, 3
0, 9
6, 12
8, 7
4, 9
7, 4
5, 10
2, 4
3, 7
8, 11
5, 10
10, 7
10, 9
7, 6
4, 6
3, 6
7, 7
3, 6
4, 5
5, 3
7, 7
7, 5
6, 4
9, 5
4, 4
5, 3
7, 8
8, 5
7, 3
10, 4
7, 4
10, 4
3, 5
3, 4
5, 13
1, 6
3, 10
5, 9
1, 3
2, 5
6, 7
10, 6
5, 2
3, 6
4, 4
3, 2
5, 5
2, 8
4, 6
7, 5
2, 12
2, 4
9, 8
7, 10
8, 6
5, 13
7, 3
8, 4
5, 7
3, 2
6, 5
3, 7
7, 5
6, 3
4, 7
3, 2
1, 4
3, 7
6, 3
5, 6
3, 1
1, 5
3, 2
8, 4
2, 6
5, 3
4, 6
5, 2
3, 4
6, 6
3, 2
6, 1
4, 5
4, 5
5, 7
8, 3
4, 7
1, 7
2, 3
4, 3
3, 4
1, 1
4, 4
4, 5
4, 5
7, 3
2, 3
1, 4
5, 0
3, 0
6, 3
4, 3
5, 5
2, 6
4, 1
2, 1
4, 2
7, 2
3, 5
2, 3
3, 3
0, 9
4, 0
1, 1
4, 1
1, 2
2, 5
2, 2
2, 4
4, 4
2, 1
4, 2
3, 1
0, 2
3, 3
3, 4
5, 1
3, 0
1, 6
3, 0
4, 3
2, 0
5, 3
1, 2
5, 2
1, 1
2, 4
6, 2
1, 3
1, 2
3, 0
5, 4
2, 4
1, 5
3, 3
5, 3
0, 2
0, 1
0, 4
3, 1
4, 2
2, 2
3, 2
5, 0
1, 2
0, 3
3, 6
4, 2
4, 4
2, 5
2, 2
2, 2
2, 5
2, 2
4, 2
4, 2
3, 3
3, 2
0, 2
4, 1
4, 1
3, 2
0, 4
2, 1
3, 1
1, 1
3, 3
1, 3
4, 2
3, 4
1, 1
2, 1
7, 2
0, 1
1, 0
3, 3
1, 4
2, 1
2, 7
2, 0
1, 3
1, 5
4, 3
2, 3
2, 2
2, 2
1, 3
3, 6
3, 3
5, 5
1, 5
3, 4
5, 7
2, 3
2, 7
2, 6
1, 4
2, 2
1, 2
3, 2
4, 0
2, 1
1, 2
1, 1
1, 3
0, 0
0, 3
0, 0
1, 5
2, 1
0, 2
1, 2
1, 2
2, 2
1, 1
2, 2
0, 0
2, 1
3, 4
4, 3
1, 2
0, 2
3, 1
3, 2
1, 2
3, 0
2, 1
2, 2
1, 1
2, 2
1, 1
0, 1
1, 3
0, 0
1, 4
1, 0
2, 0
0, 0
3, 1
1, 2
1, 2
1, 3
0, 2
3, 3
0, 4
3, 1
1, 3
1, 1
1, 3
3, 2
0, 4
0, 2
1, 4
2, 1
3, 2
0, 1
0, 1
2, 0
0, 1
0, 0
2, 3
1, 2
2, 0
1, 1
0, 0
0, 0
0, 0
0, 1
1, 1
0, 0
1, 0
0, 0
0, 4
2, 2
0, 1
1, 2
0, 0
0, 1
0, 0
1, 0
2, 2
0, 1
0, 1
0, 0
2, 2
1, 1
1, 1
0, 0
0, 2
0, 0
0, 1
2, 0
2, 0
1, 1
1, 0
0, 1
1, 0
1, 0
0, 2
0, 0
1, 0
0, 0
0, 0
0, 0
0, 1
1, 0
1, 0
1, 1
0, 0
1, 0
0, 1
0, 0
0, 1
0, 0
1, 1
0, 0
0, 0
0, 0
1, 1
0, 1
0, 1
0, 1
2, 0
0, 1
0, 1
0, 0
0, 0
0, 0
0, 0
0, 1
0, 0
0, 1
1, 0
0, 1
0, 1
0, 0
0, 1
0, 0
2, 0
1, 2
0, 1
1, 0
0, 0
0, 0
0, 2
0, 1
0, 0
1, 2
0, 0
3, 3
0, 0
0, 1
1, 0
1, 0
0, 0
0, 1
1, 0
1, 0
0, 0
0, 0
1, 0
0, 0
0, 0
0, 0
0, 1
0, 0
1, 2
1, 0
0, 0
0, 0
0, 0
0, 0
0, 1
0, 1
0, 0
1, 0
0, 0
1, 0
1, 0
0, 0
0, 1
0, 2
0, 1
0, 0
0, 0
0, 0
1, 1
0, 0
0, 0
0, 0
0, 1
0, 2
1, 2
0, 0
0, 0
0, 1
0, 0
0, 0
1, 0
0, 0
1, 0
0, 0
0, 0
1, 0
0, 0
1, 0
0, 0
0, 0
1, 0
0, 0
0, 0
0, 1
0, 0
0, 0
1, 0
0, 0
1, 0
1, 1
0, 0
0, 0
1, 0
0, 0
0, 0
2, 0
1, 0
0, 0
1, 0
0, 0
1, 0
0, 1
0, 0
0, 0
0, 0
0, 0
0, 0
0, 0
0, 0
0, 0
0, 0
0, 0
1, 1
1, 0
1, 1
1, 0
0, 0
2, 0
2, 0
1, 0
0, 0
2, 1
0, 0
0, 0
0, 0
0, 1
0, 0
0, 1
0, 0
0, 0
0, 0
0, 0
0, 0
0, 0
0, 0
0, 0
1, 0
0, 0
0, 0
0, 0
0, 0
0, 0
0, 0
0, 0
0, 0
0, 0
0, 0
0, 0
0, 0
1, 0
0, 0
0, 1
0, 0
0, 0
0, 0
0, 1
0, 0
0, 0
0, 0
0, 0
0, 0
0, 0
0, 0
1, 0
0, 1
1, 0
0, 1
0, 0
0, 0
0, 0
0, 0
0, 0
0, 0
0, 0
0, 0
0, 0
0, 0
1, 0
0, 0
0, 0
0, 2
0, 0
0, 0
0, 0
0, 0
0, 0
0, 0
0, 1
0, 0
0, 1
0, 0
0, 0
0, 0
0, 0
0, 0
1, 0
0, 0
0, 0
0, 0
0, 0
0, 0
0, 0
0, 0
0, 0
0, 0
0, 0
0, 0
0, 0
0, 0
0, 0
0, 0
0, 0
0, 0
0, 0
0, 0
0, 0
1, 0
0, 0
0, 0
0, 0
0, 0
0, 0
0, 0
0, 0
0, 0
0, 0
0, 0
1, 1
0, 0
0, 0
0, 0
0, 0
0, 0
0, 0
0, 0
0, 0
0, 0
0, 1
0, 0
0, 0
0, 0
0, 0
0, 0
0, 0
0, 0
0, 1
0, 0
0, 0
0, 0
0, 0
0, 0
0, 0
1, 0
0, 0
0, 0
0, 0
0, 0
0, 0
0, 0
0, 0
0, 0
0, 0
0, 1
0, 0
0, 0
0, 0
0, 0
0, 0
0, 0
0, 0
0, 0
0, 1
0, 0
0, 0
0, 0
0, 0
0, 0
0, 0
0, 0
0, 0
0, 0
0, 0
0, 0
0, 0
1, 0
0, 0
0, 0
0, 0
0, 0
0, 1
0, 0
0, 0
0, 0
0, 0
0, 0
0, 0
0, 0
0, 0
0, 0
0, 0
0, 0
0, 0
0, 0
0, 0
0, 0
0, 0
0, 0
0, 0
0, 0
0, 0
0, 0
0, 0
0, 0
0, 0
0, 0
0, 0
0, 0
0, 0
0, 0
0, 1
0, 0
0, 0
0, 0
0, 0
0, 0
0, 0
0, 0
0, 0
0, 0
0, 0
0, 0
0, 0
0, 0
0, 0
0, 0
0, 0
0, 0
0, 0
0, 0
0, 0
0, 0
0, 0
0, 0
0, 0
0, 0
0, 0
0, 0
0, 0
0, 0
0, 0
0, 0
0, 0
0, 0
0, 0
0, 0
0, 0
0, 0
0, 0
0, 0
0, 0
0, 0
0, 0
0, 0
0, 0
0, 0
0, 0
0, 0
0, 0
0, 0
0, 0
0, 0
0, 0
0, 0
0, 0
0, 0
0, 0
0, 0
0, 0
0, 0
0, 0
0, 0
0, 0
0, 0
0, 0
0, 0
0, 0
0, 0
0, 0
0, 0
0, 0
0, 0
0, 0
0, 0
0, 0
0, 0
0, 0
0, 0
0, 0
0, 0
0, 0
0, 0
0, 0
0, 0
0, 0
0, 0
0, 0
0, 0
0, 0
0, 0
0, 0
0, 0
0, 0
0, 0
0, 0
0, 0
0, 0
0, 0
0, 0
0, 0
0, 0
0, 0
0, 0
0, 0
0, 0
0, 0
0, 0
0, 0
0, 0
0, 0
0, 0
0, 0
0, 0
0, 0
0, 0
0, 0
0, 0
0, 0
0, 0
0, 0
0, 0
0, 0
0, 0
0, 0
0, 0
0, 0
0, 0
0, 0
0, 0
0, 0
0, 0
0, 0
0, 0
0, 0
0, 0
0, 0
0, 0
0, 0
0, 0
0, 0
0, 0
0, 0
0, 0
0, 0
0, 0
0, 0
0, 0
0, 0
0, 0
0, 0
0, 0
0, 0
0, 0
0, 0
0, 0
0, 0
0, 0
0, 0
0, 0
0, 0
0, 0
0, 0
0, 0
0, 0
0, 0
0, 0
0, 0
0, 0
0, 0
0, 0
0, 0
0, 0
0, 0
0, 0
0, 0
0, 0
0, 0
0, 0
0, 0
0, 0
0, 0
0, 0
0, 0
0, 0
0, 0
0, 0
0, 0
0, 0
0, 0
0, 0
0, 0
0, 0
0, 0
0, 0
0, 0
0, 0
0, 0
0, 0
0, 0
0, 0
0, 0
0, 0
0, 0
0, 0
0, 0
0, 0
0, 0
0, 0
0, 0
0, 0
0, 0
0, 0
0, 0
0, 0
0, 0
0, 0
0, 0
0, 0
0, 0
0, 0
0, 0
0, 0
0, 0
0, 0
0, 0
0, 0
0, 0
0, 0
0, 0
0, 0
0, 0
0, 0
0, 0
0, 0
0, 0
0, 0
0, 0
0, 0
0, 0
0, 0
0, 0
0, 0
0, 0
0, 0
0, 0
0, 0
0, 0
0, 0
0, 0
0, 0
0, 0
0, 0
0, 0
0, 0
0, 0
0, 0
0, 0
0, 0
0, 0
0, 0
0, 0
0, 0
0, 0
0, 0
0, 0
0, 0
0, 0
0, 0
0, 0
0, 0
0, 0
0, 0
0, 0
0, 0
0, 0
0, 0
0, 0
0, 0
0, 0
0, 0
0, 0
0, 0
0, 0
0, 0
0, 0
0, 0
0, 0
0, 0
0, 0
0, 0
0, 0
0, 0
0, 0
0, 0
0, 0
0, 0
0, 0
0, 0
0, 0
0, 0
0, 0
0, 0
0, 0
0, 0
0, 0
0, 0
0, 0
0, 0
0, 0
0, 0
0, 0
0, 0
0, 0
0, 0
0, 0
0, 0
0, 0
0, 0
0, 0
0, 0
0, 0
0, 0
0, 0
0, 0
0, 0
0, 0
0, 0
0, 0
0, 0
0, 0
0, 0
0, 0
0, 0
0, 0
0, 0
0, 0
0, 0
0, 0
0, 0
0, 0
0, 0
0, 0
0, 0
0, 0
0, 0
0, 0
0, 0
0, 0
0, 0
0, 0
0, 0
0, 0
0, 0
0, 0
0, 0
0, 0
0, 0
0, 0
0, 0
0, 0
0, 0
0, 0
0, 0
0, 0
0, 0
0, 0
0, 0
0, 0
#ENDOFDATA     end of spectrum data