File: host_upload/06-09-2024/ps_0852/dump3/ps__0852shot_2499.msa
#FORMAT      : EMSA/MAS spectral data file
#VERSION     : TC202v2.0 PIXL
#TITLE       : N/A
#DATE        :       Date in the format DD-MMM-YYYY, for example 07-JUL-2010
#TIME        :             The time of day at which the spectrum was recorded, in 24-hour format
#OWNER       : PIXL Flight Model       (PIXL will use this to indicate which instrument took the data.)
#NPOINTS     : 4096     Number of data points in the spectrum (This can be zero for configuration only files)
#NCOLUMNS    : 2     Number of data columns in the spectrum (This can be zero for configuration only files)
#XUNITS      : eV
#YUNITS      : COUNTS
#DATATYPE    : YY
#XPERCHAN    : 7.862, 7.881   eV per channel (separate by commas if more than one detector)
#OFFSET      : 18.5, -22.4         eV of first channel  (separate by commas if more than one detector
#SIGNALTYPE  : XRF
#YP_TEMP     : 2.396
#LIVETIME    : 8.54292, 8.37685   seconds (separate by commas if more than one detector)
#REALTIME    : 10, 10.0   seconds (separate by commas if more than one detector)
#SPECTRUM    : start of spectrum data
0, 0
0, 0
0, 0
0, 0
0, 0
0, 0
0, 0
0, 0
0, 0
0, 0
0, 0
0, 0
0, 0
0, 0
0, 0
0, 0
0, 0
0, 0
0, 0
0, 0
0, 0
0, 0
0, 0
0, 0
0, 0
0, 0
0, 0
0, 0
0, 0
0, 0
0, 0
0, 0
0, 0
0, 0
1, 1
1, 1
0, 0
0, 0
1, 1
0, 2
0, 0
0, 1
1, 1
0, 4
1, 1
0, 3
1, 0
4, 4
3, 6
5, 9
17, 17
23, 49
42, 59
48, 81
49, 55
58, 67
44, 44
32, 42
13, 23
18, 12
8, 8
4, 6
4, 8
7, 5
5, 14
7, 4
4, 10
6, 10
21, 17
46, 57
70, 91
163, 179
271, 270
361, 380
378, 435
426, 402
369, 383
301, 297
197, 183
120, 127
62, 71
37, 41
20, 20
13, 12
5, 10
1, 9
5, 3
3, 2
2, 7
3, 1
3, 2
1, 0
0, 2
2, 3
2, 1
2, 0
3, 2
4, 3
5, 4
8, 4
6, 3
3, 7
1, 4
1, 2
3, 7
8, 5
4, 9
8, 19
17, 25
23, 39
39, 40
28, 48
49, 55
39, 69
50, 58
45, 52
41, 50
38, 22
26, 31
22, 25
28, 22
23, 25
16, 24
20, 26
12, 27
15, 14
9, 13
11, 21
11, 14
4, 14
6, 6
5, 1
3, 8
2, 1
3, 3
1, 0
0, 1
3, 3
4, 0
5, 1
2, 8
3, 3
0, 2
3, 3
2, 0
2, 5
2, 4
4, 2
6, 2
5, 6
13, 9
21, 10
29, 27
39, 44
67, 84
92, 84
105, 140
105, 127
96, 131
107, 90
60, 85
56, 53
35, 29
32, 25
35, 20
26, 10
31, 4
37, 13
36, 20
46, 16
37, 11
31, 16
26, 13
16, 23
21, 7
15, 7
8, 8
8, 7
5, 8
3, 4
6, 7
5, 4
7, 7
10, 4
7, 5
9, 8
10, 16
8, 21
25, 27
32, 30
43, 42
45, 49
48, 47
46, 49
41, 47
19, 33
28, 35
19, 34
17, 14
13, 11
8, 18
6, 19
3, 13
10, 14
3, 12
7, 7
15, 13
10, 17
12, 9
8, 12
16, 11
16, 8
17, 10
7, 13
8, 10
6, 8
6, 8
10, 8
3, 9
8, 13
11, 12
17, 26
25, 36
52, 62
88, 126
141, 172
213, 278
307, 393
386, 517
471, 553
540, 583
522, 577
484, 437
388, 382
281, 278
191, 197
119, 108
90, 49
41, 38
25, 32
20, 17
12, 6
17, 10
12, 14
21, 23
25, 31
42, 50
52, 71
62, 74
83, 109
138, 137
140, 135
135, 138
128, 132
118, 116
85, 81
65, 73
48, 53
35, 39
26, 23
25, 28
27, 38
38, 46
61, 98
124, 165
231, 303
375, 526
629, 815
915, 1206
1271, 1602
1622, 1860
1920, 2223
2104, 2262
1953, 2011
1747, 1742
1473, 1389
1064, 996
813, 637
435, 398
307, 226
167, 119
79, 64
46, 35
20, 16
9, 15
5, 15
14, 18
15, 16
10, 16
18, 27
15, 34
21, 39
30, 42
54, 74
82, 125
135, 177
170, 199
189, 261
271, 320
290, 338
293, 297
304, 278
262, 244
224, 209
168, 145
129, 108
69, 62
54, 47
30, 27
13, 19
10, 9
5, 6
7, 7
9, 11
9, 8
9, 11
11, 18
6, 14
17, 15
10, 17
12, 11
4, 9
9, 8
9, 5
4, 8
11, 2
9, 6
10, 6
12, 3
17, 4
18, 2
26, 3
27, 6
15, 4
22, 3
20, 9
21, 10
11, 7
17, 11
14, 3
6, 11
4, 3
12, 11
4, 9
8, 11
8, 6
16, 5
11, 10
8, 9
6, 3
12, 9
10, 10
10, 2
7, 2
5, 6
4, 4
8, 4
5, 3
4, 4
4, 3
3, 1
1, 3
2, 2
3, 5
2, 2
6, 5
2, 5
2, 3
2, 5
4, 3
7, 1
2, 5
6, 2
8, 5
4, 5
5, 4
5, 6
8, 6
7, 4
7, 4
10, 7
3, 3
6, 3
7, 1
5, 2
3, 3
6, 3
3, 10
6, 7
1, 8
4, 5
2, 0
3, 10
3, 7
0, 10
4, 14
2, 16
2, 9
7, 24
6, 25
3, 29
7, 18
5, 19
5, 14
0, 16
3, 9
3, 8
4, 7
4, 7
7, 1
2, 4
4, 2
3, 4
3, 2
7, 1
5, 1
7, 2
3, 2
2, 3
2, 3
2, 5
4, 1
2, 3
5, 3
5, 1
1, 3
6, 1
1, 3
2, 2
2, 4
3, 3
5, 2
4, 5
4, 1
3, 1
1, 3
5, 2
4, 0
4, 2
1, 6
6, 3
1, 3
5, 2
2, 4
1, 3
5, 1
1, 0
2, 3
3, 2
1, 1
1, 3
2, 3
1, 1
2, 3
1, 2
4, 5
4, 3
1, 4
4, 3
0, 5
5, 2
2, 4
1, 4
2, 0
4, 6
4, 3
1, 3
0, 3
1, 1
2, 3
3, 4
5, 2
3, 2
3, 1
2, 2
5, 2
0, 2
2, 8
4, 1
1, 3
0, 0
3, 0
2, 2
2, 1
1, 3
2, 1
1, 0
1, 3
6, 1
5, 3
2, 1
3, 1
2, 2
2, 1
5, 2
2, 5
4, 2
2, 3
5, 2
4, 3
3, 3
3, 4
1, 5
2, 4
3, 2
7, 2
4, 2
2, 1
4, 0
1, 3
1, 3
1, 2
0, 1
1, 2
3, 1
1, 1
3, 1
4, 4
0, 5
0, 0
0, 2
1, 5
0, 3
2, 2
3, 2
3, 4
2, 5
5, 1
0, 1
2, 2
1, 1
1, 2
3, 2
3, 4
0, 5
2, 2
0, 1
1, 2
2, 3
1, 4
1, 5
4, 6
2, 4
8, 4
4, 1
4, 4
2, 0
3, 3
0, 3
3, 1
4, 2
0, 4
3, 2
0, 2
1, 2
0, 1
0, 0
0, 1
1, 1
0, 1
0, 2
0, 2
1, 2
0, 3
0, 2
1, 0
0, 2
5, 3
2, 0
2, 1
4, 2
2, 3
5, 0
2, 1
2, 0
3, 2
1, 2
2, 2
0, 0
1, 1
2, 2
0, 4
0, 0
2, 1
1, 3
0, 2
0, 0
1, 1
2, 1
2, 2
0, 0
0, 0
1, 0
0, 0
1, 2
2, 1
0, 0
0, 1
0, 0
0, 0
0, 3
3, 1
1, 2
0, 2
0, 0
2, 4
0, 0
0, 0
0, 0
0, 2
1, 2
1, 1
2, 1
0, 1
2, 0
1, 1
2, 0
2, 0
1, 2
1, 0
0, 1
1, 0
1, 0
0, 0
1, 1
0, 0
2, 1
4, 0
2, 0
0, 0
1, 2
1, 0
0, 0
1, 2
0, 0
0, 0
0, 2
0, 0
0, 0
2, 1
1, 0
0, 0
1, 0
3, 1
0, 0
0, 0
0, 0
0, 1
0, 0
1, 0
1, 0
0, 1
0, 0
0, 0
0, 0
0, 1
4, 2
0, 0
0, 0
0, 0
1, 0
0, 0
0, 3
0, 1
0, 0
0, 0
0, 0
2, 0
1, 2
0, 1
0, 2
0, 1
0, 0
0, 0
0, 0
0, 1
2, 1
0, 0
0, 0
2, 4
0, 0
1, 0
0, 3
0, 1
0, 1
0, 0
0, 0
1, 0
1, 0
1, 0
1, 1
0, 0
1, 1
1, 0
0, 0
0, 0
0, 0
2, 0
0, 0
1, 0
0, 0
0, 0
1, 1
2, 0
0, 0
0, 0
1, 0
1, 0
2, 0
1, 0
0, 0
0, 0
0, 0
0, 0
0, 0
0, 1
0, 1
0, 0
0, 0
1, 2
0, 0
1, 0
1, 0
1, 0
0, 0
0, 0
1, 1
0, 0
1, 0
0, 0
0, 2
1, 1
2, 0
0, 0
1, 1
0, 1
0, 0
0, 0
0, 0
1, 0
0, 0
3, 0
0, 0
1, 1
0, 0
0, 0
0, 1
0, 0
0, 0
2, 0
0, 0
0, 0
0, 0
0, 0
0, 0
0, 0
0, 0
1, 0
0, 0
0, 0
0, 0
0, 1
1, 1
0, 1
1, 0
0, 1
0, 0
0, 0
0, 1
0, 0
1, 0
0, 0
1, 0
0, 0
0, 0
0, 1
0, 0
0, 0
0, 0
1, 0
1, 1
0, 0
0, 1
1, 0
1, 2
0, 0
0, 0
0, 0
1, 0
0, 2
2, 0
0, 0
0, 0
0, 0
0, 0
1, 0
0, 0
0, 0
0, 0
1, 0
0, 0
0, 0
0, 0
0, 0
1, 2
1, 0
0, 0
0, 0
0, 0
0, 0
1, 0
0, 0
0, 0
1, 0
0, 0
0, 0
0, 0
0, 0
0, 0
0, 1
0, 1
0, 0
0, 1
0, 0
0, 0
0, 0
0, 1
1, 0
0, 0
0, 0
0, 0
0, 0
0, 0
0, 0
0, 0
0, 0
0, 0
0, 0
0, 0
0, 0
0, 0
0, 0
0, 0
1, 0
0, 1
0, 0
0, 0
0, 0
1, 1
1, 0
0, 0
1, 0
0, 0
1, 0
0, 0
0, 0
0, 0
0, 0
0, 1
0, 0
0, 0
0, 0
0, 0
0, 0
0, 0
0, 0
0, 0
0, 0
0, 0
0, 0
0, 0
0, 0
0, 0
0, 0
0, 1
0, 0
0, 0
0, 0
0, 0
0, 0
0, 0
0, 0
0, 0
0, 0
0, 0
0, 0
0, 0
0, 0
0, 0
0, 0
0, 0
0, 0
0, 0
0, 0
0, 0
0, 0
0, 0
0, 0
0, 1
1, 0
0, 0
0, 0
1, 0
0, 0
0, 0
0, 0
0, 0
0, 0
0, 0
0, 0
0, 0
0, 0
0, 0
0, 0
1, 0
0, 0
0, 0
0, 0
0, 0
0, 0
0, 0
0, 0
0, 0
0, 0
0, 0
0, 0
0, 0
0, 0
0, 0
0, 0
0, 0
0, 0
0, 0
0, 0
0, 0
0, 0
0, 0
0, 0
0, 0
0, 0
0, 0
0, 0
0, 0
0, 0
0, 0
0, 0
0, 0
0, 0
0, 0
0, 0
0, 0
0, 0
0, 0
0, 0
0, 0
0, 0
0, 0
0, 0
0, 0
0, 0
0, 0
0, 0
0, 0
0, 0
0, 0
0, 0
0, 0
0, 0
1, 0
0, 0
0, 0
0, 0
0, 0
0, 0
0, 0
0, 0
0, 0
0, 0
0, 0
0, 0
0, 0
0, 0
0, 0
0, 0
0, 0
0, 0
0, 0
0, 0
0, 0
0, 0
0, 0
0, 0
0, 0
0, 0
0, 0
0, 0
0, 0
0, 0
0, 0
0, 0
0, 0
0, 0
0, 0
0, 0
0, 0
0, 0
0, 0
0, 0
0, 0
0, 0
0, 0
0, 0
0, 0
0, 0
0, 0
0, 0
0, 0
0, 0
0, 0
0, 0
0, 0
0, 0
0, 0
0, 0
0, 0
0, 0
0, 0
0, 0
0, 0
0, 0
0, 0
0, 0
0, 0
0, 0
0, 0
0, 0
0, 0
0, 0
0, 0
0, 0
0, 0
0, 0
0, 0
0, 0
0, 0
0, 0
0, 0
0, 0
0, 0
0, 0
0, 0
0, 0
0, 0
0, 0
0, 0
0, 0
0, 0
0, 0
0, 0
0, 0
0, 0
0, 0
0, 0
0, 0
0, 0
0, 0
0, 0
0, 0
0, 0
0, 0
0, 0
0, 0
0, 0
0, 0
0, 0
0, 0
0, 0
0, 0
0, 0
0, 0
0, 0
0, 0
0, 0
0, 0
0, 0
0, 0
0, 0
0, 0
0, 0
0, 0
0, 0
0, 0
0, 0
0, 0
0, 0
0, 0
0, 0
0, 0
0, 0
0, 0
0, 0
0, 0
0, 0
0, 0
0, 0
0, 0
0, 0
0, 0
0, 0
0, 0
0, 0
0, 0
0, 0
0, 0
0, 0
0, 0
0, 0
0, 0
0, 0
0, 0
0, 0
0, 0
0, 0
0, 0
0, 0
0, 0
0, 0
0, 0
0, 0
0, 0
0, 0
0, 0
0, 0
0, 0
0, 0
0, 0
0, 0
0, 0
0, 0
0, 0
0, 0
0, 0
0, 0
0, 0
0, 0
0, 0
0, 0
0, 0
0, 0
0, 0
0, 0
0, 0
0, 0
0, 0
0, 0
0, 0
0, 0
0, 0
0, 0
0, 0
0, 0
0, 0
0, 0
0, 0
0, 0
0, 0
0, 0
0, 0
0, 0
0, 0
0, 0
0, 0
0, 0
0, 0
0, 0
0, 0
0, 0
0, 0
0, 0
0, 0
0, 0
0, 0
0, 0
0, 0
0, 0
0, 0
0, 0
0, 0
0, 0
0, 0
0, 0
0, 0
0, 0
0, 0
0, 0
0, 0
0, 0
0, 0
0, 0
0, 0
0, 0
0, 0
0, 0
0, 0
0, 0
0, 0
0, 0
0, 0
0, 0
0, 0
0, 0
0, 0
0, 0
0, 0
0, 0
0, 0
0, 0
0, 0
0, 0
0, 0
0, 0
0, 0
0, 0
0, 0
0, 0
0, 0
0, 0
0, 0
0, 0
0, 0
0, 0
0, 0
0, 0
0, 0
0, 0
0, 0
0, 0
0, 0
0, 0
0, 0
0, 0
0, 0
0, 0
0, 0
0, 0
0, 0
0, 0
0, 0
0, 0
0, 0
0, 0
0, 0
0, 0
0, 0
0, 0
0, 0
0, 0
0, 0
0, 0
0, 0
0, 0
0, 0
0, 0
0, 0
0, 0
0, 0
0, 0
0, 0
0, 0
0, 0
0, 0
0, 0
0, 0
0, 0
0, 0
0, 0
0, 0
0, 0
0, 0
0, 0
0, 0
0, 0
0, 0
0, 0
0, 0
0, 0
0, 0
0, 0
0, 0
0, 0
0, 0
0, 0
0, 0
0, 0
0, 0
0, 0
0, 0
0, 0
0, 0
0, 0
0, 0
0, 0
0, 0
0, 0
0, 0
0, 0
0, 0
0, 0
0, 0
0, 0
0, 0
0, 0
0, 0
0, 0
0, 0
0, 0
0, 0
0, 0
0, 0
0, 0
0, 0
0, 0
0, 0
0, 0
0, 0
0, 0
0, 0
0, 0
0, 0
0, 0
0, 0
0, 0
0, 0
0, 0
0, 0
0, 0
0, 0
0, 0
0, 0
0, 0
0, 0
0, 0
0, 0
0, 0
0, 0
0, 0
0, 0
0, 0
0, 0
0, 0
0, 0
0, 0
0, 0
0, 0
0, 0
0, 0
0, 0
0, 0
0, 0
0, 0
0, 0
0, 0
0, 0
0, 0
0, 0
0, 0
#ENDOFDATA     end of spectrum data