File: host_upload/06-09-2024/ps_0852/dump3/ps__0852shot_2210.msa
#FORMAT      : EMSA/MAS spectral data file
#VERSION     : TC202v2.0 PIXL
#TITLE       : N/A
#DATE        :       Date in the format DD-MMM-YYYY, for example 07-JUL-2010
#TIME        :             The time of day at which the spectrum was recorded, in 24-hour format
#OWNER       : PIXL Flight Model       (PIXL will use this to indicate which instrument took the data.)
#NPOINTS     : 4096     Number of data points in the spectrum (This can be zero for configuration only files)
#NCOLUMNS    : 2     Number of data columns in the spectrum (This can be zero for configuration only files)
#XUNITS      : eV
#YUNITS      : COUNTS
#DATATYPE    : YY
#XPERCHAN    : 7.862, 7.881   eV per channel (separate by commas if more than one detector)
#OFFSET      : 18.5, -22.4         eV of first channel  (separate by commas if more than one detector
#SIGNALTYPE  : XRF
#YP_TEMP     : 2.492
#LIVETIME    : 8.54746, 8.37207   seconds (separate by commas if more than one detector)
#REALTIME    : 10, 10.0   seconds (separate by commas if more than one detector)
#SPECTRUM    : start of spectrum data
0, 0
0, 0
0, 0
0, 0
0, 0
0, 0
0, 0
0, 0
0, 0
0, 0
0, 0
0, 0
0, 0
0, 0
0, 0
0, 0
0, 0
0, 0
0, 0
0, 0
0, 0
0, 0
0, 0
0, 0
0, 0
0, 0
0, 0
0, 0
0, 0
0, 0
0, 0
0, 0
1, 0
0, 0
0, 1
0, 1
0, 0
1, 0
0, 0
1, 0
1, 0
0, 1
0, 1
1, 1
2, 2
1, 0
4, 2
4, 5
6, 10
14, 10
25, 24
47, 48
64, 75
85, 70
89, 86
87, 88
67, 51
58, 40
27, 24
14, 19
9, 10
4, 2
7, 3
4, 1
3, 0
1, 1
7, 6
11, 6
21, 18
36, 39
118, 90
178, 170
293, 255
393, 377
416, 391
455, 385
415, 366
293, 287
213, 210
132, 117
73, 71
49, 32
14, 15
13, 12
5, 6
2, 4
5, 2
2, 0
3, 0
0, 0
0, 1
0, 0
1, 1
0, 0
1, 0
3, 0
2, 1
4, 1
5, 4
2, 4
3, 3
2, 0
4, 2
2, 1
2, 1
3, 0
2, 1
2, 2
3, 2
11, 6
12, 5
12, 11
11, 13
16, 14
18, 28
27, 26
25, 8
22, 18
23, 19
19, 19
15, 24
23, 16
12, 12
16, 19
18, 9
15, 10
8, 11
8, 8
4, 8
3, 4
3, 6
2, 4
2, 4
2, 2
4, 0
2, 2
2, 5
2, 2
0, 2
2, 1
0, 2
1, 2
1, 1
0, 2
0, 0
0, 8
1, 5
3, 4
3, 11
1, 11
0, 27
2, 38
4, 33
3, 47
7, 51
25, 55
22, 38
15, 29
15, 32
18, 20
13, 9
7, 8
12, 10
2, 3
4, 4
0, 0
2, 3
1, 4
2, 3
2, 8
4, 5
5, 4
1, 7
5, 2
6, 0
4, 2
2, 3
3, 2
5, 0
6, 3
7, 6
11, 5
13, 3
17, 2
11, 3
20, 2
27, 0
23, 2
24, 5
15, 2
24, 6
22, 3
21, 13
21, 12
22, 10
21, 14
19, 13
29, 13
17, 13
25, 16
26, 13
18, 13
19, 5
21, 8
16, 4
7, 7
12, 2
6, 6
16, 6
8, 6
7, 4
6, 11
13, 5
5, 5
7, 16
8, 7
5, 8
4, 19
7, 11
8, 5
4, 16
4, 12
7, 6
7, 10
6, 2
6, 7
12, 11
10, 13
9, 12
11, 18
8, 16
16, 15
9, 15
19, 19
11, 13
10, 28
9, 8
9, 14
5, 12
9, 17
15, 9
17, 14
28, 16
24, 15
38, 20
49, 29
49, 39
59, 46
71, 74
79, 65
89, 71
74, 56
75, 52
58, 50
52, 39
29, 35
35, 23
39, 19
23, 23
32, 20
51, 20
56, 28
83, 48
140, 107
213, 201
328, 335
579, 573
801, 868
1131, 1296
1506, 1668
2019, 2112
2263, 2321
2470, 2375
2345, 2236
2106, 1943
1768, 1534
1333, 1168
907, 794
614, 446
350, 274
184, 127
111, 60
54, 34
22, 28
21, 30
12, 22
11, 18
16, 17
8, 20
14, 20
24, 24
20, 37
43, 45
76, 87
111, 136
146, 143
192, 229
253, 274
338, 325
328, 322
410, 348
374, 327
319, 260
280, 229
204, 156
150, 105
79, 71
54, 42
41, 15
26, 9
18, 11
15, 4
15, 12
20, 8
18, 9
17, 12
14, 16
16, 11
16, 19
18, 9
10, 11
9, 7
16, 7
10, 8
5, 4
10, 5
6, 4
5, 2
4, 7
3, 6
4, 4
2, 3
2, 2
4, 0
5, 5
4, 3
3, 2
3, 3
3, 6
2, 7
4, 6
4, 3
5, 2
4, 5
3, 4
6, 5
5, 0
3, 7
3, 5
5, 8
4, 5
4, 3
5, 7
5, 4
8, 5
3, 12
3, 3
6, 3
3, 7
4, 4
8, 4
5, 7
5, 8
3, 5
8, 6
7, 4
6, 5
11, 6
8, 8
4, 4
6, 7
5, 7
4, 5
6, 3
3, 12
6, 7
6, 6
1, 5
4, 7
1, 4
2, 5
4, 4
5, 6
3, 1
7, 4
3, 4
4, 4
6, 1
5, 3
3, 3
1, 2
10, 3
2, 4
11, 6
9, 7
4, 4
6, 6
6, 6
6, 6
3, 9
7, 13
5, 7
6, 2
2, 14
4, 8
8, 1
2, 2
2, 5
1, 1
1, 4
3, 0
1, 3
4, 4
6, 0
6, 3
2, 1
4, 3
3, 1
2, 5
3, 3
4, 1
7, 3
4, 1
5, 3
8, 3
2, 5
4, 3
4, 4
10, 7
7, 5
4, 10
3, 8
6, 14
6, 7
9, 8
0, 9
2, 10
7, 7
2, 7
3, 10
4, 2
5, 2
2, 6
9, 2
2, 2
1, 4
3, 3
4, 2
4, 0
4, 2
2, 3
1, 5
3, 4
3, 1
4, 1
2, 1
1, 4
7, 7
0, 4
3, 4
3, 3
3, 1
4, 2
3, 0
2, 2
3, 3
6, 3
3, 3
4, 1
1, 0
3, 3
4, 4
1, 3
2, 1
3, 3
3, 0
2, 1
0, 4
2, 1
4, 3
3, 5
1, 3
3, 0
2, 4
1, 1
4, 5
0, 2
1, 5
8, 6
4, 8
2, 1
1, 4
5, 2
3, 0
7, 1
3, 0
3, 4
1, 1
1, 1
2, 3
4, 5
2, 2
3, 3
1, 2
3, 1
0, 1
2, 4
4, 2
2, 3
4, 2
4, 0
1, 0
4, 3
1, 1
1, 3
2, 1
3, 2
3, 1
2, 1
5, 4
3, 1
0, 3
4, 5
3, 5
2, 8
4, 3
2, 3
4, 5
2, 1
1, 3
2, 4
5, 4
3, 5
2, 3
3, 0
2, 4
5, 3
4, 2
3, 1
5, 3
5, 5
2, 6
4, 2
4, 6
5, 3
3, 4
7, 6
1, 2
6, 5
3, 2
2, 1
2, 2
4, 4
3, 2
4, 2
3, 2
1, 1
5, 1
4, 3
1, 0
0, 0
3, 2
2, 2
0, 3
3, 0
3, 2
3, 4
0, 4
3, 0
3, 3
1, 5
4, 1
3, 1
3, 5
2, 2
1, 1
2, 2
1, 3
0, 1
1, 0
1, 1
2, 0
1, 0
1, 1
0, 1
0, 0
4, 1
1, 0
3, 2
3, 2
1, 0
0, 1
1, 2
1, 2
0, 1
2, 1
1, 1
0, 3
3, 0
0, 0
1, 2
1, 0
3, 0
0, 0
0, 0
1, 1
1, 1
3, 1
0, 2
2, 1
1, 0
0, 1
0, 0
0, 1
0, 1
2, 2
2, 0
1, 1
0, 0
0, 1
0, 4
1, 1
3, 0
1, 1
0, 1
2, 1
0, 0
0, 0
0, 1
1, 0
2, 1
1, 0
0, 1
2, 1
1, 0
0, 0
2, 1
1, 1
1, 3
2, 1
1, 0
1, 1
1, 0
0, 1
1, 1
2, 2
0, 1
1, 0
1, 1
0, 1
0, 1
0, 0
1, 0
0, 3
1, 0
0, 1
2, 0
0, 0
0, 0
0, 1
1, 0
1, 0
1, 0
0, 2
0, 0
0, 0
0, 1
0, 0
1, 1
0, 0
2, 0
1, 1
0, 2
0, 1
0, 1
1, 1
1, 2
0, 0
0, 1
0, 1
0, 0
1, 0
0, 0
0, 0
1, 1
0, 0
0, 2
0, 0
1, 0
0, 2
0, 2
1, 1
1, 0
0, 0
0, 0
0, 0
0, 0
1, 1
0, 1
2, 0
0, 0
0, 1
0, 0
0, 1
0, 0
0, 1
0, 0
0, 0
0, 0
1, 0
1, 0
1, 0
1, 1
0, 0
0, 1
2, 0
0, 1
0, 1
0, 0
1, 0
0, 0
0, 0
2, 0
0, 0
0, 0
1, 0
0, 1
0, 0
0, 0
0, 0
2, 1
0, 0
1, 0
2, 1
0, 0
0, 0
1, 1
0, 0
1, 0
0, 0
0, 0
0, 1
0, 0
0, 1
0, 0
0, 1
0, 0
0, 0
0, 0
0, 0
0, 0
0, 1
0, 0
0, 0
1, 1
0, 0
0, 2
0, 1
0, 0
0, 0
0, 2
0, 0
0, 1
0, 1
0, 1
0, 0
0, 0
1, 0
1, 1
0, 0
1, 0
0, 1
0, 0
0, 0
0, 1
0, 0
1, 0
0, 1
0, 0
0, 0
1, 0
0, 0
2, 0
1, 0
0, 0
0, 0
0, 0
0, 2
2, 0
0, 0
0, 0
0, 0
0, 0
0, 0
1, 0
1, 1
0, 0
0, 0
0, 0
0, 0
1, 0
0, 0
0, 0
0, 0
0, 2
0, 0
0, 0
0, 0
1, 0
0, 1
0, 0
2, 0
0, 0
0, 0
1, 0
1, 0
1, 0
1, 1
1, 0
1, 0
0, 1
0, 0
0, 0
0, 0
0, 0
0, 0
0, 0
0, 0
0, 1
0, 0
0, 0
0, 0
0, 0
0, 0
0, 0
1, 0
0, 0
0, 1
0, 0
0, 0
0, 0
0, 0
0, 0
0, 0
0, 1
1, 0
0, 0
0, 0
0, 0
0, 1
1, 0
1, 0
0, 0
0, 1
0, 0
0, 0
0, 0
0, 1
0, 0
0, 0
0, 0
0, 1
0, 0
0, 1
0, 0
0, 0
0, 0
1, 0
0, 0
0, 0
0, 0
0, 0
0, 0
1, 0
0, 0
0, 0
0, 0
0, 0
1, 0
0, 0
0, 0
0, 0
0, 0
0, 0
0, 0
0, 0
0, 0
0, 0
0, 0
0, 0
2, 1
0, 0
0, 0
0, 0
0, 0
0, 0
0, 0
0, 0
0, 0
0, 0
0, 0
0, 0
0, 0
0, 0
0, 0
0, 0
0, 0
0, 0
0, 1
0, 0
0, 0
0, 0
0, 0
0, 0
0, 0
0, 0
0, 0
0, 0
0, 0
1, 0
0, 0
0, 0
0, 0
0, 0
0, 0
0, 0
0, 0
0, 0
0, 0
0, 0
0, 0
0, 0
0, 1
0, 0
0, 0
0, 0
0, 0
0, 0
0, 0
0, 0
0, 0
0, 0
0, 0
0, 0
1, 0
0, 0
0, 0
0, 0
0, 0
0, 0
1, 0
0, 0
0, 0
0, 0
0, 0
0, 0
0, 0
0, 0
0, 0
0, 0
0, 0
0, 0
0, 0
0, 0
0, 0
0, 0
0, 0
0, 0
0, 0
0, 0
1, 0
0, 0
0, 0
0, 0
0, 0
0, 0
0, 0
0, 0
0, 0
0, 0
0, 0
0, 0
0, 0
0, 0
0, 0
0, 0
0, 0
0, 1
0, 0
0, 0
0, 0
0, 0
0, 0
0, 0
0, 0
0, 0
0, 0
0, 0
0, 0
0, 0
0, 0
0, 0
0, 0
0, 0
0, 0
0, 0
0, 0
0, 0
0, 0
0, 0
0, 0
0, 0
0, 0
0, 0
0, 0
0, 0
0, 0
0, 0
0, 0
0, 0
0, 0
0, 0
0, 0
0, 0
0, 0
0, 0
0, 0
0, 0
0, 0
0, 0
0, 0
0, 0
1, 0
0, 0
0, 0
0, 0
0, 0
0, 0
0, 0
0, 0
0, 0
0, 0
0, 0
0, 0
0, 0
0, 0
0, 0
0, 0
0, 0
0, 0
0, 0
0, 0
0, 0
0, 0
0, 0
0, 0
0, 0
0, 0
0, 0
0, 0
0, 0
0, 0
0, 0
0, 0
0, 0
0, 0
0, 0
0, 0
0, 0
0, 0
0, 0
0, 0
0, 0
0, 0
0, 0
0, 0
0, 0
0, 0
0, 0
0, 0
0, 0
0, 0
0, 0
0, 0
0, 0
0, 0
0, 0
0, 0
0, 0
0, 0
0, 0
0, 0
0, 0
0, 0
0, 0
0, 0
0, 0
0, 0
0, 0
0, 0
0, 0
0, 0
0, 0
0, 0
0, 0
0, 0
0, 0
0, 0
0, 0
0, 0
0, 0
0, 0
0, 0
0, 0
0, 0
0, 0
0, 0
0, 0
0, 0
0, 0
0, 0
0, 0
0, 0
0, 0
0, 0
0, 0
0, 0
0, 0
0, 0
0, 0
0, 0
0, 0
0, 0
0, 0
0, 0
0, 0
0, 0
0, 0
0, 0
0, 0
0, 0
0, 0
0, 0
0, 0
0, 0
0, 0
0, 0
0, 0
0, 0
0, 0
0, 0
0, 0
0, 0
0, 0
0, 0
0, 0
0, 0
0, 0
0, 0
0, 0
0, 0
0, 0
0, 0
0, 0
0, 0
0, 0
0, 0
0, 0
0, 0
0, 0
0, 0
0, 0
0, 0
0, 0
0, 0
0, 0
0, 0
0, 0
0, 0
0, 0
0, 0
0, 0
0, 0
0, 0
0, 0
0, 0
0, 0
0, 0
0, 0
0, 0
0, 0
0, 0
0, 0
0, 0
0, 0
0, 0
0, 0
0, 0
0, 0
0, 0
0, 0
0, 0
0, 0
0, 0
0, 0
0, 0
0, 0
0, 0
0, 0
0, 0
0, 0
0, 0
0, 0
0, 0
0, 0
0, 0
0, 0
0, 0
0, 0
0, 0
0, 0
0, 0
0, 0
0, 0
0, 0
0, 0
0, 0
0, 0
0, 0
0, 0
0, 0
0, 0
0, 0
0, 0
0, 0
0, 0
0, 0
0, 0
0, 0
0, 0
0, 0
0, 0
0, 0
0, 0
0, 0
0, 0
0, 0
0, 0
0, 0
0, 0
0, 0
0, 0
0, 0
0, 0
0, 0
0, 0
0, 0
0, 0
0, 0
0, 0
0, 0
0, 0
0, 0
0, 0
0, 0
0, 0
0, 0
0, 0
0, 0
0, 0
0, 0
0, 0
0, 0
0, 0
0, 0
0, 0
0, 0
0, 0
0, 0
0, 0
0, 0
0, 0
0, 0
0, 0
0, 0
0, 0
0, 0
0, 0
0, 0
0, 0
0, 0
0, 0
0, 0
0, 0
0, 0
0, 0
0, 0
0, 0
0, 0
0, 0
0, 0
0, 0
0, 0
0, 0
0, 0
0, 0
0, 0
0, 0
0, 0
0, 0
0, 0
0, 0
0, 0
0, 0
0, 0
0, 0
0, 0
0, 0
0, 0
0, 0
0, 0
0, 0
0, 0
0, 0
0, 0
0, 0
0, 0
0, 0
0, 0
0, 0
0, 0
0, 0
0, 0
0, 0
0, 0
0, 0
0, 0
0, 0
0, 0
0, 0
0, 0
0, 0
0, 0
0, 0
0, 0
0, 0
0, 0
0, 0
0, 0
0, 0
0, 0
0, 0
0, 0
0, 0
0, 0
0, 0
0, 0
0, 0
0, 0
0, 0
0, 0
0, 0
0, 0
0, 0
0, 0
0, 0
#ENDOFDATA     end of spectrum data