File: host_upload/06-09-2024/ps_0852/dump3/ps__0852shot_2577.msa
#FORMAT      : EMSA/MAS spectral data file
#VERSION     : TC202v2.0 PIXL
#TITLE       : N/A
#DATE        :       Date in the format DD-MMM-YYYY, for example 07-JUL-2010
#TIME        :             The time of day at which the spectrum was recorded, in 24-hour format
#OWNER       : PIXL Flight Model       (PIXL will use this to indicate which instrument took the data.)
#NPOINTS     : 4096     Number of data points in the spectrum (This can be zero for configuration only files)
#NCOLUMNS    : 2     Number of data columns in the spectrum (This can be zero for configuration only files)
#XUNITS      : eV
#YUNITS      : COUNTS
#DATATYPE    : YY
#XPERCHAN    : 7.862, 7.881   eV per channel (separate by commas if more than one detector)
#OFFSET      : 18.5, -22.4         eV of first channel  (separate by commas if more than one detector
#SIGNALTYPE  : XRF
#YP_TEMP     : 2.332
#LIVETIME    : 8.55995, 8.55527   seconds (separate by commas if more than one detector)
#REALTIME    : 10, 10.0   seconds (separate by commas if more than one detector)
#SPECTRUM    : start of spectrum data
0, 0
0, 0
0, 0
0, 0
0, 0
0, 0
0, 0
0, 0
0, 0
0, 0
0, 0
0, 0
0, 0
0, 0
0, 0
0, 0
0, 0
0, 0
0, 0
0, 0
0, 0
0, 0
0, 0
0, 0
0, 0
0, 0
0, 1
0, 0
0, 0
0, 0
0, 0
0, 0
0, 1
0, 0
1, 4
0, 2
0, 7
0, 13
0, 24
2, 22
1, 23
0, 38
0, 43
1, 31
1, 25
1, 7
1, 10
3, 6
9, 3
18, 14
24, 33
38, 38
79, 58
84, 62
94, 78
96, 70
74, 48
52, 36
21, 23
10, 12
6, 6
5, 4
6, 5
2, 3
4, 5
7, 2
6, 3
9, 6
28, 20
42, 48
112, 93
195, 164
301, 277
378, 356
440, 418
466, 416
422, 351
316, 279
217, 207
114, 99
86, 59
34, 26
20, 15
12, 7
5, 3
8, 7
0, 3
0, 4
0, 0
1, 1
1, 1
2, 1
1, 2
1, 3
4, 2
1, 2
5, 2
3, 4
3, 4
5, 4
3, 6
2, 7
7, 6
2, 11
1, 10
1, 18
4, 36
8, 55
6, 124
7, 235
15, 469
19, 774
26, 1193
19, 1700
31, 2023
25, 2139
28, 2094
20, 1638
25, 1287
14, 807
15, 439
17, 224
17, 112
21, 49
20, 27
14, 16
9, 9
11, 6
4, 11
8, 8
2, 3
3, 1
5, 4
2, 0
4, 2
3, 1
2, 0
2, 4
4, 2
3, 1
2, 2
2, 1
2, 3
3, 2
0, 2
1, 1
3, 3
2, 3
4, 2
3, 6
5, 4
8, 1
4, 6
12, 7
10, 5
17, 14
15, 16
15, 14
27, 7
8, 10
12, 10
7, 4
9, 8
13, 4
17, 2
38, 2
72, 1
89, 7
113, 2
124, 6
143, 2
159, 5
124, 6
95, 19
77, 28
62, 58
47, 99
13, 136
9, 209
8, 299
7, 309
3, 358
2, 318
2, 298
6, 215
3, 148
8, 96
4, 61
4, 39
6, 23
7, 13
10, 6
9, 7
14, 9
5, 13
12, 15
12, 11
10, 18
18, 16
16, 13
21, 7
15, 10
20, 3
27, 10
33, 8
17, 4
34, 6
23, 7
19, 11
8, 12
12, 8
6, 9
8, 10
8, 5
6, 9
5, 7
8, 8
3, 10
1, 10
3, 9
8, 3
5, 7
4, 16
8, 17
10, 17
13, 32
14, 36
12, 28
18, 39
13, 35
18, 48
17, 27
16, 28
18, 21
23, 15
21, 7
28, 12
25, 10
37, 9
34, 8
32, 15
23, 12
26, 14
31, 21
13, 34
21, 44
34, 63
32, 89
45, 84
46, 94
59, 91
60, 84
75, 69
47, 71
59, 47
29, 37
21, 35
22, 16
18, 8
18, 18
22, 21
25, 25
48, 54
88, 114
156, 172
264, 363
517, 591
882, 938
1182, 1316
1620, 1713
2136, 2119
2457, 2339
2683, 2378
2665, 2240
2322, 1861
1869, 1404
1474, 1076
987, 682
667, 407
424, 240
208, 136
114, 82
57, 36
38, 29
22, 16
18, 19
8, 20
16, 27
15, 36
21, 34
28, 38
34, 47
39, 57
83, 100
97, 114
168, 186
211, 251
260, 264
320, 318
376, 374
381, 346
350, 320
333, 246
246, 196
194, 143
146, 120
97, 68
59, 41
29, 27
14, 22
11, 18
10, 25
6, 30
15, 34
10, 29
10, 36
14, 33
17, 32
16, 31
15, 20
12, 18
10, 17
8, 11
10, 4
6, 7
7, 5
5, 5
2, 4
2, 2
3, 5
3, 6
3, 3
5, 2
6, 3
9, 6
10, 9
16, 12
11, 21
18, 12
10, 13
17, 31
14, 28
16, 19
17, 34
15, 19
12, 16
10, 21
11, 12
10, 12
5, 10
3, 7
7, 8
5, 5
5, 12
6, 5
5, 12
2, 6
3, 7
7, 13
2, 14
1, 9
2, 15
7, 15
3, 14
1, 18
6, 10
5, 6
1, 4
4, 7
5, 3
2, 5
4, 2
5, 4
5, 4
7, 3
7, 3
5, 2
4, 4
4, 10
2, 12
9, 14
3, 6
5, 10
2, 10
1, 12
5, 16
1, 12
3, 7
4, 10
3, 12
1, 12
4, 4
5, 6
2, 7
3, 6
4, 5
3, 2
2, 4
5, 3
3, 2
5, 5
7, 2
4, 6
6, 5
5, 3
5, 4
2, 6
5, 5
8, 6
4, 5
4, 5
5, 7
4, 6
1, 11
1, 2
4, 6
6, 0
1, 3
2, 5
3, 0
2, 2
1, 11
5, 4
3, 8
2, 8
1, 8
3, 2
0, 8
3, 2
1, 11
7, 7
5, 5
4, 7
4, 7
0, 9
3, 2
3, 4
9, 2
9, 3
11, 3
15, 3
13, 2
13, 2
10, 4
12, 2
14, 6
14, 6
18, 3
8, 4
12, 1
10, 6
5, 4
3, 3
3, 4
8, 6
5, 5
3, 2
2, 4
1, 2
3, 4
3, 6
2, 4
2, 3
3, 3
1, 3
3, 2
1, 2
5, 1
3, 4
3, 2
1, 6
7, 2
1, 4
3, 3
1, 2
2, 3
0, 1
0, 1
3, 3
1, 0
2, 1
2, 0
2, 1
5, 6
3, 4
1, 3
0, 1
3, 7
2, 5
0, 4
0, 3
1, 3
2, 9
4, 7
1, 5
3, 11
2, 6
2, 6
0, 8
3, 4
4, 3
2, 9
0, 5
2, 1
6, 3
4, 2
5, 0
4, 3
6, 2
3, 0
3, 1
4, 0
2, 1
1, 0
4, 4
2, 1
3, 1
2, 4
1, 2
1, 1
2, 2
4, 2
2, 4
0, 0
3, 1
1, 1
1, 0
1, 3
4, 0
0, 3
3, 0
1, 1
4, 0
3, 0
0, 1
4, 2
2, 3
2, 2
4, 3
6, 0
5, 2
2, 4
5, 2
7, 3
4, 3
1, 2
5, 0
5, 0
3, 2
2, 4
1, 1
2, 1
3, 2
2, 0
1, 0
4, 2
0, 3
1, 2
3, 2
2, 0
0, 1
1, 1
3, 0
0, 0
2, 3
3, 4
4, 1
1, 1
4, 4
4, 3
3, 1
4, 0
0, 1
1, 2
4, 4
1, 2
6, 2
2, 3
3, 1
2, 1
3, 0
1, 0
0, 0
0, 2
0, 3
1, 5
1, 1
0, 3
1, 3
1, 1
1, 1
1, 2
1, 1
2, 2
0, 0
2, 0
1, 2
0, 1
1, 2
0, 1
0, 2
0, 2
2, 0
0, 0
2, 2
3, 0
0, 3
0, 1
2, 1
2, 0
0, 1
2, 2
4, 1
0, 1
1, 2
4, 2
1, 1
1, 0
3, 1
0, 3
0, 0
0, 1
0, 0
0, 0
0, 0
0, 1
0, 1
2, 0
2, 2
1, 0
0, 0
1, 1
1, 2
0, 0
0, 0
0, 0
0, 2
1, 0
0, 1
0, 0
0, 0
1, 1
1, 0
0, 2
0, 1
0, 0
1, 1
1, 0
1, 1
0, 1
1, 0
1, 0
0, 0
1, 1
0, 1
0, 0
1, 0
1, 0
0, 1
2, 0
1, 0
1, 0
2, 1
0, 0
1, 1
1, 1
0, 0
1, 0
0, 0
2, 1
0, 0
0, 1
0, 0
2, 0
0, 0
1, 0
0, 0
0, 0
1, 0
0, 0
0, 0
0, 0
0, 0
4, 0
0, 1
2, 0
0, 0
2, 1
0, 0
0, 0
0, 0
1, 0
0, 1
1, 2
1, 1
1, 0
1, 2
1, 0
0, 1
0, 0
0, 1
0, 0
0, 0
0, 0
1, 0
0, 2
1, 0
1, 0
2, 0
0, 1
3, 0
0, 1
1, 1
0, 0
1, 0
0, 0
0, 0
0, 0
0, 0
0, 1
0, 1
0, 0
1, 0
2, 0
1, 0
0, 0
0, 0
0, 0
0, 0
1, 0
1, 1
1, 0
0, 1
0, 2
0, 0
0, 0
0, 0
0, 0
1, 0
1, 0
1, 0
0, 0
1, 0
0, 0
1, 0
0, 0
0, 1
0, 0
1, 0
0, 0
0, 1
0, 1
0, 0
0, 0
0, 0
0, 0
0, 1
0, 0
1, 0
1, 0
1, 0
0, 0
0, 0
3, 0
1, 0
1, 2
1, 0
0, 0
0, 0
1, 0
0, 0
0, 0
0, 0
0, 0
0, 0
0, 0
0, 0
0, 1
0, 1
0, 0
0, 1
0, 1
0, 0
1, 0
0, 0
0, 0
0, 0
1, 0
0, 0
0, 0
0, 0
1, 2
0, 0
1, 0
0, 0
0, 0
0, 0
0, 0
0, 0
0, 1
1, 0
0, 0
0, 0
0, 0
0, 0
0, 0
1, 0
1, 0
0, 0
0, 0
0, 0
0, 0
0, 0
0, 0
0, 1
0, 0
1, 0
0, 0
0, 0
0, 0
0, 1
0, 0
0, 0
0, 0
0, 1
0, 0
0, 0
0, 0
0, 0
0, 1
0, 0
0, 0
0, 1
1, 0
0, 1
0, 0
0, 0
0, 0
0, 0
0, 0
0, 0
0, 0
0, 0
0, 0
0, 0
0, 0
0, 0
0, 1
0, 0
0, 0
1, 0
0, 0
0, 1
0, 0
0, 0
0, 0
0, 0
0, 0
1, 0
1, 0
0, 0
1, 0
0, 0
0, 0
0, 0
0, 0
0, 0
0, 1
0, 0
0, 0
0, 0
0, 0
0, 0
0, 0
0, 0
0, 0
1, 0
1, 0
0, 0
0, 0
0, 0
0, 0
0, 0
0, 0
0, 0
0, 0
0, 0
0, 0
0, 0
0, 0
0, 0
0, 0
0, 0
0, 0
0, 0
0, 0
0, 0
0, 0
0, 0
0, 1
0, 1
0, 0
0, 0
0, 0
0, 0
0, 0
0, 0
0, 0
0, 0
0, 0
0, 0
0, 0
0, 0
0, 0
0, 0
1, 0
0, 0
1, 0
0, 0
0, 0
0, 1
0, 0
0, 0
0, 0
0, 0
0, 0
0, 0
0, 0
0, 0
0, 0
0, 0
0, 0
0, 0
0, 0
0, 0
0, 0
0, 0
0, 0
0, 0
0, 0
0, 0
0, 0
0, 1
0, 0
0, 0
0, 0
0, 0
0, 0
0, 0
0, 0
0, 0
1, 0
0, 0
0, 0
0, 0
0, 0
0, 0
0, 0
0, 0
0, 0
0, 0
0, 0
0, 0
0, 0
0, 0
0, 0
0, 0
0, 0
0, 0
0, 0
0, 0
0, 0
0, 0
0, 0
0, 0
0, 0
0, 0
0, 0
0, 0
0, 0
0, 0
0, 0
0, 0
0, 0
0, 0
0, 0
0, 0
0, 0
0, 0
0, 0
0, 0
0, 0
0, 0
0, 0
0, 0
0, 0
0, 0
0, 0
0, 0
0, 0
0, 0
0, 0
0, 0
0, 0
0, 0
0, 0
0, 0
0, 0
0, 0
0, 0
0, 0
0, 0
0, 0
0, 0
0, 0
0, 0
0, 0
0, 0
0, 0
0, 0
0, 0
0, 0
0, 0
0, 0
0, 0
0, 0
0, 0
0, 0
0, 0
0, 0
0, 0
0, 0
0, 0
0, 0
0, 0
0, 0
0, 0
0, 0
0, 0
0, 0
0, 0
0, 0
0, 0
0, 1
0, 0
0, 0
0, 0
0, 0
0, 0
0, 0
0, 0
0, 0
0, 0
0, 0
0, 0
0, 0
0, 1
0, 0
0, 0
0, 0
0, 0
0, 0
0, 0
0, 0
0, 0
0, 0
0, 0
0, 0
0, 0
0, 0
0, 0
0, 0
0, 0
0, 0
0, 0
0, 0
0, 0
0, 0
0, 0
0, 0
0, 0
0, 0
0, 0
0, 0
0, 0
0, 0
0, 0
0, 0
0, 0
0, 0
0, 0
0, 0
0, 0
0, 0
0, 0
0, 0
0, 0
0, 0
0, 0
0, 0
0, 0
0, 0
0, 0
0, 0
0, 0
0, 0
0, 0
0, 0
0, 0
0, 0
0, 0
0, 0
0, 0
0, 0
0, 0
0, 0
0, 0
0, 0
0, 0
0, 0
0, 0
0, 0
0, 0
0, 0
0, 0
0, 0
0, 0
0, 0
0, 0
0, 0
0, 0
0, 0
0, 0
0, 0
0, 0
0, 0
0, 0
0, 0
0, 0
0, 0
0, 0
0, 0
0, 0
0, 0
0, 0
0, 0
0, 0
0, 0
0, 0
0, 0
0, 0
0, 0
0, 0
0, 0
0, 0
0, 0
0, 0
0, 0
0, 0
0, 0
0, 0
0, 0
0, 0
0, 0
0, 0
0, 0
0, 0
0, 0
0, 0
0, 0
0, 0
0, 0
0, 0
0, 0
0, 0
0, 0
0, 0
0, 0
0, 0
0, 0
0, 0
0, 0
0, 0
0, 0
0, 0
0, 0
0, 0
0, 0
0, 0
0, 0
0, 0
0, 0
0, 0
0, 0
0, 0
0, 0
0, 0
0, 0
0, 0
0, 0
0, 0
0, 0
0, 0
0, 0
0, 0
0, 0
0, 0
0, 0
0, 0
0, 0
0, 0
0, 0
0, 0
0, 0
0, 0
0, 0
0, 0
0, 0
0, 0
0, 0
0, 0
0, 0
0, 0
0, 0
0, 0
0, 0
0, 0
0, 0
0, 0
0, 0
0, 0
0, 0
0, 0
0, 0
0, 0
0, 0
0, 0
0, 0
0, 0
0, 0
0, 0
0, 0
0, 0
0, 0
0, 0
0, 0
0, 0
0, 0
0, 0
0, 0
0, 0
0, 0
0, 0
0, 0
0, 0
0, 0
0, 0
0, 0
0, 0
0, 0
0, 0
0, 0
0, 0
0, 0
0, 0
0, 0
0, 0
0, 0
0, 0
0, 0
0, 0
0, 0
0, 0
0, 0
0, 0
0, 0
0, 0
0, 0
0, 0
0, 0
0, 0
0, 0
0, 0
0, 0
0, 0
0, 0
0, 0
0, 0
0, 0
0, 0
0, 0
0, 0
0, 0
0, 0
0, 0
0, 0
0, 0
0, 0
0, 0
0, 0
0, 0
0, 0
0, 0
0, 0
0, 0
0, 0
0, 0
0, 0
0, 0
0, 0
0, 0
0, 0
0, 0
0, 0
0, 0
0, 0
0, 0
0, 0
0, 0
0, 0
0, 0
0, 0
0, 0
0, 0
0, 0
0, 0
0, 0
0, 0
0, 0
0, 0
0, 0
0, 0
0, 0
0, 0
0, 0
0, 0
0, 0
0, 0
0, 0
0, 0
0, 0
0, 0
0, 0
0, 0
0, 0
0, 0
0, 0
0, 0
0, 0
0, 0
0, 0
0, 0
0, 0
0, 0
0, 0
0, 0
0, 0
0, 0
0, 0
0, 0
0, 0
0, 0
0, 0
0, 0
0, 0
0, 0
#ENDOFDATA     end of spectrum data