File: host_upload/06-09-2024/ps_0852/dump3/ps__0852shot_2028.msa
#FORMAT      : EMSA/MAS spectral data file
#VERSION     : TC202v2.0 PIXL
#TITLE       : N/A
#DATE        :       Date in the format DD-MMM-YYYY, for example 07-JUL-2010
#TIME        :             The time of day at which the spectrum was recorded, in 24-hour format
#OWNER       : PIXL Flight Model       (PIXL will use this to indicate which instrument took the data.)
#NPOINTS     : 4096     Number of data points in the spectrum (This can be zero for configuration only files)
#NCOLUMNS    : 2     Number of data columns in the spectrum (This can be zero for configuration only files)
#XUNITS      : eV
#YUNITS      : COUNTS
#DATATYPE    : YY
#XPERCHAN    : 7.862, 7.881   eV per channel (separate by commas if more than one detector)
#OFFSET      : 18.5, -22.4         eV of first channel  (separate by commas if more than one detector
#SIGNALTYPE  : XRF
#YP_TEMP     : 2.235
#LIVETIME    : 8.55544, 8.56008   seconds (separate by commas if more than one detector)
#REALTIME    : 10, 10.0   seconds (separate by commas if more than one detector)
#SPECTRUM    : start of spectrum data
0, 0
0, 0
0, 0
0, 0
0, 0
0, 0
0, 0
0, 0
0, 0
0, 0
0, 0
0, 0
0, 0
0, 0
0, 0
0, 0
0, 0
0, 0
0, 0
0, 0
0, 0
0, 0
0, 0
0, 0
0, 0
0, 0
0, 0
0, 0
0, 0
0, 0
0, 0
0, 0
0, 0
1, 0
1, 0
0, 3
0, 1
0, 1
0, 5
4, 3
0, 2
0, 1
2, 1
1, 1
0, 2
1, 3
3, 3
2, 1
5, 5
9, 13
21, 25
19, 39
32, 36
53, 54
54, 52
44, 50
41, 49
41, 25
24, 15
7, 11
5, 9
10, 5
5, 5
1, 4
5, 7
7, 7
8, 7
14, 14
25, 22
64, 66
120, 131
238, 237
306, 331
445, 494
500, 520
473, 549
441, 482
353, 393
256, 251
165, 140
96, 108
60, 45
22, 31
25, 19
10, 6
12, 7
8, 3
2, 6
4, 4
11, 2
14, 4
16, 6
17, 8
26, 19
42, 17
58, 37
72, 69
94, 86
110, 78
91, 82
120, 65
71, 53
54, 47
40, 31
26, 22
21, 17
23, 18
23, 22
17, 27
26, 33
28, 43
47, 43
47, 64
60, 41
54, 62
61, 62
48, 51
39, 41
42, 30
61, 30
38, 24
43, 15
39, 29
30, 22
32, 14
25, 15
19, 17
16, 10
11, 10
11, 8
7, 7
4, 6
5, 3
3, 6
5, 4
3, 5
5, 3
3, 4
4, 8
3, 4
4, 5
1, 3
3, 7
2, 1
3, 4
2, 5
1, 4
2, 4
5, 8
14, 18
40, 36
59, 57
93, 115
165, 193
251, 289
349, 370
412, 476
457, 462
424, 461
401, 401
313, 348
238, 225
160, 141
103, 99
53, 38
28, 40
49, 26
39, 40
56, 44
78, 64
93, 71
98, 88
62, 75
71, 65
65, 37
47, 32
44, 29
39, 22
43, 16
44, 23
44, 18
40, 6
38, 8
33, 10
33, 7
26, 9
36, 6
22, 11
21, 18
27, 36
20, 32
19, 35
18, 40
20, 37
24, 38
15, 26
10, 17
11, 13
14, 14
9, 10
12, 5
5, 8
3, 8
14, 4
7, 7
4, 5
5, 7
4, 1
8, 3
6, 6
9, 10
12, 3
6, 3
3, 9
4, 5
7, 6
4, 6
8, 4
5, 4
4, 8
6, 4
3, 9
2, 4
12, 8
7, 20
18, 15
16, 28
27, 42
39, 51
51, 53
36, 38
41, 43
41, 45
37, 33
28, 26
18, 18
22, 10
10, 11
9, 23
11, 13
15, 16
17, 11
22, 25
23, 26
26, 22
26, 36
41, 32
42, 43
36, 33
58, 64
63, 51
52, 77
59, 60
50, 34
24, 40
34, 30
25, 19
17, 19
22, 14
17, 23
14, 15
28, 33
22, 44
57, 76
103, 137
182, 209
288, 408
501, 584
676, 823
990, 1072
1202, 1289
1392, 1478
1587, 1529
1491, 1364
1453, 1226
1148, 953
888, 669
648, 428
445, 309
263, 176
160, 89
100, 52
70, 33
44, 20
33, 14
19, 9
29, 10
14, 13
11, 19
15, 7
22, 14
19, 29
31, 38
51, 58
61, 88
106, 110
119, 150
157, 174
198, 224
216, 239
235, 232
191, 237
204, 156
171, 135
123, 120
92, 72
61, 49
39, 25
23, 25
15, 9
5, 9
9, 15
7, 15
12, 19
7, 15
8, 16
5, 21
5, 19
11, 10
12, 15
8, 12
8, 7
9, 11
9, 13
8, 7
4, 10
5, 10
3, 6
4, 6
5, 6
2, 4
2, 5
4, 6
11, 9
8, 3
6, 14
7, 8
7, 8
10, 6
7, 12
7, 15
17, 8
11, 6
5, 6
14, 6
15, 12
8, 10
4, 12
6, 12
2, 12
4, 11
6, 11
5, 9
11, 10
6, 14
4, 10
9, 13
4, 16
2, 13
7, 7
4, 4
4, 6
6, 4
3, 4
6, 4
6, 10
4, 3
4, 4
10, 3
11, 2
12, 5
6, 2
5, 1
8, 2
8, 6
6, 4
5, 3
6, 5
4, 8
2, 4
8, 8
6, 4
3, 9
6, 8
6, 8
4, 8
8, 5
3, 4
7, 6
2, 4
4, 0
3, 6
5, 4
4, 3
2, 1
5, 2
3, 3
2, 6
0, 4
5, 2
3, 3
7, 3
6, 2
5, 7
3, 5
6, 9
1, 12
2, 5
1, 2
2, 8
8, 3
5, 6
1, 6
2, 7
3, 1
3, 4
3, 2
1, 1
2, 3
7, 0
6, 6
1, 1
4, 0
2, 2
2, 9
8, 5
3, 4
7, 5
9, 4
1, 3
5, 4
5, 3
6, 4
2, 2
5, 5
8, 6
3, 5
3, 8
9, 6
8, 5
9, 6
1, 4
5, 7
7, 2
7, 2
4, 4
3, 4
4, 6
1, 4
5, 3
4, 1
3, 4
3, 3
2, 6
4, 3
8, 4
5, 3
4, 5
2, 4
6, 4
5, 4
5, 1
3, 3
8, 2
2, 1
10, 2
0, 3
1, 2
6, 1
1, 2
3, 3
2, 4
3, 2
3, 5
6, 4
3, 5
3, 2
1, 0
3, 1
1, 5
1, 3
1, 2
4, 2
3, 1
2, 4
3, 5
3, 4
5, 1
0, 3
2, 1
4, 3
1, 3
2, 2
2, 3
1, 4
2, 3
1, 0
1, 4
2, 4
0, 3
1, 4
0, 3
6, 1
1, 3
5, 1
1, 1
0, 2
0, 2
3, 0
3, 0
3, 0
2, 3
3, 1
3, 2
4, 2
3, 2
3, 0
5, 1
2, 2
4, 4
1, 1
5, 2
2, 2
2, 6
9, 3
8, 1
3, 6
3, 0
4, 6
3, 6
5, 6
2, 1
3, 3
1, 5
1, 7
2, 3
2, 2
2, 1
0, 3
4, 6
2, 0
1, 5
1, 1
1, 2
1, 3
0, 1
3, 1
1, 1
1, 4
1, 2
2, 0
2, 2
0, 0
3, 3
3, 0
2, 2
0, 2
1, 1
0, 2
0, 2
4, 0
1, 0
0, 0
1, 2
1, 3
0, 0
0, 1
1, 3
1, 1
0, 2
2, 1
0, 0
1, 2
4, 3
1, 3
3, 0
2, 1
1, 0
4, 1
3, 0
2, 0
0, 0
1, 2
1, 0
3, 2
0, 1
0, 2
1, 1
0, 1
2, 0
1, 1
5, 1
2, 0
1, 4
0, 0
3, 0
0, 0
0, 0
0, 0
1, 1
0, 0
1, 0
1, 0
0, 1
1, 0
2, 2
0, 0
0, 0
1, 1
0, 2
1, 1
0, 0
1, 0
0, 2
0, 1
1, 0
3, 1
0, 1
1, 2
1, 1
2, 0
1, 0
1, 3
0, 0
1, 0
0, 0
2, 0
2, 2
0, 2
1, 1
0, 0
0, 1
1, 1
1, 2
1, 1
0, 1
0, 0
0, 2
1, 1
1, 1
1, 3
0, 1
0, 1
1, 0
0, 0
0, 0
3, 0
2, 0
0, 3
0, 0
0, 0
0, 1
1, 0
0, 0
0, 0
0, 0
0, 1
0, 0
0, 1
0, 1
0, 0
0, 3
0, 0
1, 0
0, 0
1, 1
0, 1
0, 0
0, 3
1, 0
1, 0
0, 0
1, 2
1, 1
1, 1
1, 0
1, 0
2, 0
0, 1
0, 1
0, 0
1, 1
0, 0
0, 0
0, 1
3, 2
0, 2
0, 0
0, 0
2, 0
1, 1
1, 0
0, 0
0, 0
0, 0
1, 1
0, 1
0, 0
0, 0
0, 0
1, 0
0, 0
0, 0
1, 0
1, 0
0, 0
0, 0
1, 0
0, 1
0, 0
0, 0
0, 0
0, 1
0, 1
1, 2
1, 1
0, 0
1, 1
1, 0
1, 0
0, 0
1, 0
1, 0
0, 0
0, 0
0, 0
1, 1
0, 0
0, 1
1, 1
0, 0
0, 1
1, 0
1, 0
0, 0
2, 0
2, 0
0, 0
0, 0
1, 1
0, 0
0, 0
0, 0
0, 0
1, 1
0, 0
1, 0
2, 0
1, 2
0, 0
0, 0
0, 0
1, 1
0, 0
0, 0
1, 0
0, 0
1, 1
2, 1
0, 0
1, 0
0, 0
0, 1
1, 1
1, 1
0, 0
0, 0
0, 0
1, 1
0, 0
0, 0
1, 0
1, 0
0, 0
0, 0
0, 1
1, 0
0, 0
0, 0
0, 0
0, 0
0, 0
0, 0
0, 1
0, 0
1, 1
0, 0
0, 1
0, 1
1, 0
0, 1
0, 0
0, 0
0, 0
2, 0
0, 0
0, 0
0, 1
0, 0
0, 1
0, 0
0, 1
1, 0
0, 0
0, 0
0, 0
1, 0
0, 0
0, 0
0, 0
0, 0
1, 0
0, 1
0, 1
1, 0
0, 0
0, 0
0, 0
0, 0
0, 0
0, 0
0, 0
0, 0
0, 0
0, 0
0, 1
1, 0
0, 0
0, 0
1, 0
0, 0
0, 0
0, 0
0, 0
0, 0
0, 0
0, 0
1, 1
0, 1
0, 0
0, 0
0, 1
0, 0
0, 0
0, 0
0, 0
0, 0
0, 0
0, 0
0, 0
0, 0
0, 0
1, 0
0, 0
2, 0
0, 0
0, 0
0, 0
0, 0
0, 0
0, 1
1, 0
0, 0
0, 0
0, 0
0, 0
1, 1
1, 0
0, 0
1, 0
0, 0
0, 0
0, 0
0, 0
1, 0
0, 0
0, 0
0, 0
0, 0
0, 0
1, 0
1, 0
0, 0
0, 0
0, 0
0, 2
0, 0
0, 1
0, 0
0, 0
0, 0
0, 0
0, 0
0, 0
0, 0
0, 1
0, 0
0, 0
0, 0
0, 0
0, 0
0, 0
0, 0
0, 0
0, 0
0, 0
0, 0
0, 0
0, 1
0, 0
0, 0
0, 0
0, 0
0, 0
0, 0
0, 0
0, 0
0, 0
0, 0
0, 0
0, 0
0, 0
0, 0
0, 0
0, 0
0, 0
0, 0
0, 0
0, 0
0, 0
0, 0
0, 0
0, 0
0, 0
0, 0
0, 0
0, 0
0, 0
0, 0
0, 0
0, 0
0, 0
0, 0
0, 0
0, 1
0, 0
0, 0
0, 0
0, 0
0, 0
0, 0
0, 1
0, 0
0, 0
0, 0
0, 0
0, 0
0, 0
0, 0
0, 0
0, 0
0, 0
0, 0
0, 0
0, 0
0, 0
0, 0
0, 0
0, 0
0, 0
0, 0
0, 0
0, 0
0, 0
0, 0
0, 0
0, 0
0, 1
0, 0
0, 0
0, 0
0, 0
0, 0
1, 0
0, 0
0, 0
0, 0
0, 0
0, 0
0, 0
0, 0
0, 0
0, 0
0, 0
0, 0
0, 0
0, 0
0, 0
0, 0
0, 0
0, 0
0, 0
0, 0
0, 1
0, 0
0, 0
0, 0
0, 0
0, 0
0, 0
0, 0
0, 0
0, 0
0, 0
0, 0
0, 0
0, 0
0, 0
0, 0
0, 0
0, 0
0, 0
0, 1
0, 0
0, 0
0, 0
0, 0
0, 0
0, 0
0, 0
0, 0
0, 0
0, 0
0, 0
0, 0
0, 0
0, 0
0, 0
0, 0
0, 0
0, 0
0, 0
0, 0
0, 0
0, 0
0, 0
0, 0
0, 0
0, 0
0, 0
0, 0
0, 0
0, 0
0, 0
0, 0
0, 0
0, 0
0, 0
0, 0
0, 0
0, 0
0, 0
0, 0
0, 0
0, 0
0, 0
0, 0
0, 0
0, 0
0, 0
0, 0
0, 0
0, 0
0, 0
0, 0
0, 0
0, 0
0, 0
0, 0
0, 0
0, 0
0, 0
0, 0
0, 0
0, 0
0, 0
0, 0
0, 0
0, 0
0, 0
0, 0
0, 0
0, 0
0, 0
0, 0
0, 0
0, 0
0, 0
0, 0
0, 0
0, 0
0, 0
0, 0
0, 0
0, 0
0, 0
0, 0
0, 0
0, 0
0, 0
0, 0
0, 0
0, 0
0, 0
0, 0
0, 0
0, 0
0, 0
0, 0
0, 0
0, 0
0, 0
0, 0
0, 0
0, 0
0, 0
0, 0
0, 0
0, 0
0, 0
0, 0
0, 0
0, 0
0, 0
0, 0
0, 0
0, 0
0, 0
0, 0
0, 0
0, 0
0, 0
0, 0
0, 0
0, 0
0, 0
0, 0
0, 0
0, 0
0, 0
0, 0
0, 0
0, 0
0, 0
0, 0
0, 0
0, 0
0, 0
0, 0
0, 0
0, 0
0, 0
0, 0
0, 0
0, 0
0, 0
0, 0
0, 0
0, 0
0, 0
0, 0
0, 0
0, 0
0, 0
0, 0
0, 0
0, 0
0, 0
0, 0
0, 0
0, 0
0, 0
0, 0
0, 0
0, 0
0, 0
0, 0
0, 0
0, 0
0, 0
0, 0
0, 0
0, 0
0, 0
0, 0
0, 0
0, 0
0, 0
0, 0
0, 0
0, 0
0, 0
0, 0
0, 0
0, 0
0, 0
0, 0
0, 0
0, 0
0, 0
0, 0
0, 0
0, 0
0, 0
0, 0
0, 0
0, 0
0, 0
0, 0
0, 0
0, 0
0, 0
0, 0
0, 0
0, 0
0, 0
0, 0
0, 0
0, 0
0, 0
0, 0
0, 0
0, 0
0, 0
0, 0
0, 0
0, 0
0, 0
0, 0
0, 0
0, 0
0, 0
0, 0
0, 0
0, 0
0, 0
0, 0
0, 0
0, 0
0, 0
0, 0
0, 0
0, 0
0, 0
0, 0
0, 0
0, 0
0, 0
0, 0
0, 0
0, 0
0, 0
0, 0
0, 0
0, 0
0, 0
0, 0
0, 0
0, 0
0, 0
0, 0
0, 0
0, 0
0, 0
0, 0
0, 0
0, 0
0, 0
0, 0
0, 0
0, 0
0, 0
0, 0
0, 0
0, 0
0, 0
0, 0
0, 0
0, 0
0, 0
0, 0
0, 0
0, 0
0, 0
0, 0
0, 0
0, 0
0, 0
0, 0
0, 0
0, 0
0, 0
0, 0
0, 0
0, 0
0, 0
0, 0
0, 0
0, 0
0, 0
0, 0
0, 0
0, 0
0, 0
0, 0
0, 0
0, 0
0, 0
0, 0
0, 0
0, 0
0, 0
0, 0
0, 0
0, 0
0, 0
0, 0
0, 0
0, 0
0, 0
0, 0
0, 0
0, 0
0, 0
0, 0
0, 0
0, 0
0, 0
0, 0
0, 0
0, 0
0, 0
0, 0
0, 0
0, 0
0, 0
0, 0
0, 0
0, 0
0, 0
0, 0
0, 0
0, 0
0, 0
0, 0
0, 0
0, 0
0, 0
0, 0
0, 0
0, 0
0, 0
0, 0
0, 0
0, 0
0, 0
#ENDOFDATA     end of spectrum data