File: host_upload/06-09-2024/ps_0852/dump3/ps__0852shot_2066.msa
#FORMAT      : EMSA/MAS spectral data file
#VERSION     : TC202v2.0 PIXL
#TITLE       : N/A
#DATE        :       Date in the format DD-MMM-YYYY, for example 07-JUL-2010
#TIME        :             The time of day at which the spectrum was recorded, in 24-hour format
#OWNER       : PIXL Flight Model       (PIXL will use this to indicate which instrument took the data.)
#NPOINTS     : 4096     Number of data points in the spectrum (This can be zero for configuration only files)
#NCOLUMNS    : 2     Number of data columns in the spectrum (This can be zero for configuration only files)
#XUNITS      : eV
#YUNITS      : COUNTS
#DATATYPE    : YY
#XPERCHAN    : 7.862, 7.881   eV per channel (separate by commas if more than one detector)
#OFFSET      : 18.5, -22.4         eV of first channel  (separate by commas if more than one detector
#SIGNALTYPE  : XRF
#YP_TEMP     : 2.556
#LIVETIME    : 8.56742, 8.55191   seconds (separate by commas if more than one detector)
#REALTIME    : 10, 10.0   seconds (separate by commas if more than one detector)
#SPECTRUM    : start of spectrum data
0, 0
0, 0
0, 0
0, 0
0, 0
0, 0
0, 0
0, 0
0, 0
0, 0
0, 0
0, 0
0, 0
0, 0
0, 0
0, 0
0, 0
0, 0
0, 0
0, 0
0, 0
0, 0
0, 0
0, 0
0, 0
0, 0
0, 0
0, 0
0, 0
0, 0
0, 0
0, 0
0, 0
0, 1
0, 1
0, 0
1, 1
1, 1
0, 2
2, 0
2, 3
0, 2
1, 3
2, 4
1, 3
1, 0
2, 0
4, 3
4, 8
9, 11
25, 27
24, 38
51, 47
65, 67
56, 75
73, 59
49, 58
36, 36
33, 20
9, 20
7, 6
4, 4
4, 4
7, 3
4, 10
3, 7
6, 8
8, 15
25, 20
45, 48
102, 118
163, 229
246, 332
390, 456
438, 503
417, 517
390, 419
333, 348
207, 259
141, 144
78, 79
43, 41
22, 28
17, 18
13, 13
8, 7
5, 4
7, 4
9, 4
7, 5
5, 2
7, 2
4, 2
8, 4
9, 0
11, 4
9, 3
5, 6
7, 5
5, 4
4, 5
5, 13
2, 11
5, 15
4, 24
5, 27
8, 33
6, 35
6, 30
14, 37
25, 42
44, 48
31, 67
38, 57
51, 42
44, 46
50, 36
26, 45
32, 31
31, 29
25, 23
21, 32
23, 25
20, 22
12, 13
13, 11
21, 15
13, 14
8, 20
16, 9
9, 8
4, 2
2, 2
5, 5
3, 3
1, 7
3, 8
1, 0
3, 2
3, 4
6, 7
1, 4
0, 5
4, 7
2, 4
3, 3
5, 6
1, 4
9, 11
10, 10
19, 23
36, 52
71, 72
102, 152
169, 227
224, 276
229, 336
274, 344
293, 323
252, 279
208, 238
162, 137
87, 93
42, 67
26, 28
11, 33
15, 21
20, 28
26, 42
39, 39
44, 44
53, 42
29, 49
31, 39
27, 29
17, 23
16, 24
19, 8
8, 13
9, 5
3, 4
8, 6
5, 4
4, 6
5, 4
8, 5
8, 5
9, 5
10, 8
15, 13
18, 17
17, 16
13, 22
21, 20
18, 22
14, 14
17, 7
14, 16
10, 12
11, 10
16, 6
7, 7
13, 11
12, 6
12, 8
7, 10
6, 10
9, 10
8, 14
9, 14
9, 16
8, 20
8, 13
3, 12
1, 13
6, 14
5, 17
6, 16
5, 13
5, 12
5, 6
7, 11
5, 9
8, 11
11, 12
15, 29
17, 26
29, 30
37, 45
32, 44
44, 40
37, 53
41, 37
31, 25
27, 25
11, 18
17, 11
17, 8
11, 7
12, 9
9, 13
14, 13
9, 20
18, 27
15, 19
22, 22
37, 31
29, 41
48, 53
37, 54
70, 64
59, 67
48, 66
46, 52
37, 44
28, 26
23, 29
14, 23
16, 18
19, 17
20, 17
25, 24
45, 37
67, 93
109, 154
212, 258
394, 433
566, 726
822, 1012
1101, 1303
1328, 1671
1581, 1867
1748, 1747
1677, 1693
1483, 1508
1237, 1125
921, 864
624, 597
434, 374
225, 188
160, 98
93, 56
59, 35
36, 20
17, 15
24, 15
16, 14
15, 18
15, 16
18, 22
22, 17
19, 28
28, 33
49, 73
74, 97
95, 151
152, 179
179, 217
191, 210
236, 267
249, 278
251, 242
217, 190
159, 198
135, 102
103, 80
71, 48
47, 43
33, 17
19, 13
12, 10
5, 8
8, 8
9, 6
8, 5
11, 7
13, 16
11, 14
9, 9
5, 12
7, 7
9, 11
12, 6
10, 4
15, 7
10, 8
3, 10
5, 11
5, 7
8, 4
8, 4
5, 3
3, 5
4, 6
1, 4
1, 6
1, 6
5, 7
4, 5
5, 15
5, 8
4, 10
5, 12
7, 10
8, 6
5, 9
7, 12
2, 11
9, 8
6, 14
7, 7
4, 11
8, 12
3, 8
7, 9
4, 4
4, 7
5, 5
7, 11
4, 4
2, 6
3, 3
5, 3
7, 4
3, 6
3, 4
6, 4
7, 3
4, 3
4, 3
5, 4
11, 7
4, 3
6, 4
4, 1
4, 5
5, 4
5, 10
8, 3
10, 7
6, 1
7, 8
12, 2
10, 5
5, 10
10, 7
15, 7
14, 5
13, 9
11, 7
9, 8
8, 6
8, 5
11, 7
6, 6
4, 5
11, 1
7, 3
5, 3
3, 2
7, 5
1, 10
2, 3
3, 11
3, 10
4, 9
4, 4
8, 1
6, 6
9, 5
9, 4
7, 4
7, 4
7, 3
8, 6
7, 2
4, 4
3, 5
2, 2
3, 1
1, 3
4, 1
2, 3
4, 4
1, 6
4, 5
2, 2
8, 3
3, 4
3, 3
2, 5
6, 7
2, 7
4, 8
1, 7
4, 3
3, 13
4, 6
4, 9
3, 4
2, 5
5, 9
3, 1
4, 7
2, 4
2, 7
3, 4
3, 3
4, 6
1, 3
1, 5
2, 4
4, 3
1, 1
3, 3
3, 1
6, 2
3, 3
2, 2
2, 4
3, 2
4, 2
4, 3
2, 3
3, 2
4, 1
4, 4
0, 6
3, 2
4, 2
0, 4
3, 2
6, 2
8, 3
0, 2
3, 5
2, 3
1, 5
0, 0
4, 4
3, 4
2, 3
2, 1
3, 3
5, 0
2, 4
4, 1
4, 0
0, 2
3, 3
3, 0
6, 5
3, 2
4, 1
1, 4
3, 1
4, 2
1, 3
0, 3
5, 4
10, 2
3, 3
3, 1
3, 1
5, 4
2, 2
3, 1
5, 1
4, 2
4, 6
1, 2
2, 2
4, 2
3, 3
2, 4
4, 5
2, 5
1, 1
0, 4
4, 0
1, 4
1, 2
3, 2
5, 0
2, 2
1, 2
1, 3
1, 0
0, 5
2, 3
1, 5
1, 5
0, 3
1, 1
0, 5
2, 1
3, 1
4, 2
4, 1
5, 0
4, 2
3, 3
1, 6
1, 5
6, 5
1, 4
1, 1
0, 4
2, 4
2, 0
4, 2
0, 1
1, 3
1, 2
0, 1
2, 2
0, 1
0, 2
3, 4
3, 3
1, 1
0, 4
0, 3
3, 1
0, 2
1, 1
3, 0
0, 2
1, 4
2, 2
1, 2
0, 1
0, 4
0, 2
0, 1
0, 1
0, 2
2, 3
1, 0
0, 2
1, 2
2, 3
0, 1
2, 1
5, 1
1, 0
1, 2
3, 1
0, 1
0, 0
2, 1
1, 1
0, 0
0, 1
1, 1
0, 1
1, 0
1, 0
1, 1
0, 1
1, 1
1, 2
0, 2
1, 0
1, 1
0, 1
0, 3
1, 1
1, 1
0, 2
1, 1
2, 3
0, 1
2, 4
2, 0
0, 2
1, 0
1, 1
0, 0
0, 0
3, 0
0, 2
0, 1
0, 2
0, 1
1, 2
0, 1
1, 1
1, 0
0, 1
1, 1
0, 0
2, 1
0, 1
0, 1
2, 1
0, 1
1, 0
0, 2
1, 0
0, 0
0, 0
0, 2
0, 0
1, 0
0, 2
0, 2
3, 0
0, 1
1, 0
0, 0
2, 0
0, 0
0, 0
0, 0
3, 2
0, 1
0, 0
1, 0
1, 1
0, 0
2, 2
1, 2
0, 0
2, 2
0, 0
1, 0
1, 0
0, 1
0, 2
0, 0
0, 2
0, 1
0, 0
1, 1
0, 0
1, 2
0, 0
0, 0
0, 1
2, 0
0, 1
2, 1
0, 0
0, 0
2, 0
3, 1
0, 2
0, 0
0, 0
1, 0
0, 0
2, 0
0, 0
0, 1
0, 0
0, 0
0, 1
0, 0
0, 0
0, 0
1, 0
2, 0
0, 0
0, 0
0, 0
0, 0
1, 0
0, 0
0, 1
1, 1
0, 0
0, 0
0, 0
0, 0
1, 0
0, 2
0, 0
0, 1
0, 0
1, 0
0, 0
0, 1
1, 0
0, 0
2, 0
1, 0
1, 0
1, 1
0, 1
0, 0
0, 1
1, 0
0, 0
0, 1
0, 1
1, 0
1, 0
1, 0
2, 0
0, 0
0, 0
0, 0
0, 2
0, 0
0, 0
0, 1
0, 1
0, 0
0, 1
0, 1
1, 0
0, 0
0, 0
0, 1
0, 0
1, 0
0, 0
0, 0
0, 0
0, 2
0, 0
0, 0
0, 1
1, 0
0, 0
1, 1
0, 0
0, 0
0, 0
1, 0
0, 0
0, 1
0, 0
0, 1
1, 0
0, 0
0, 0
0, 0
1, 0
0, 0
1, 0
0, 0
0, 1
0, 0
0, 0
0, 0
1, 0
0, 0
1, 1
1, 0
1, 0
1, 0
0, 0
0, 3
0, 0
0, 1
0, 0
0, 0
0, 0
0, 0
0, 0
1, 1
1, 0
0, 0
0, 0
0, 1
0, 0
0, 0
0, 0
0, 0
0, 0
0, 0
0, 0
0, 0
0, 0
0, 0
0, 0
0, 0
0, 0
0, 0
0, 0
0, 0
0, 0
1, 0
0, 0
0, 0
1, 0
0, 1
0, 0
0, 0
0, 0
1, 0
0, 1
0, 0
0, 0
0, 0
1, 0
0, 0
0, 0
1, 0
0, 0
0, 0
0, 0
0, 0
0, 0
1, 0
0, 2
0, 0
1, 1
0, 0
0, 0
0, 0
0, 0
0, 0
0, 1
0, 0
0, 0
0, 0
0, 0
0, 1
0, 0
0, 0
0, 1
0, 0
0, 0
0, 0
0, 0
0, 0
0, 0
0, 0
0, 1
0, 0
0, 0
0, 0
0, 0
0, 1
0, 0
0, 0
0, 0
0, 0
0, 0
0, 0
0, 0
0, 0
0, 0
0, 0
0, 0
0, 0
1, 0
0, 0
1, 0
0, 1
0, 0
0, 0
0, 0
0, 0
0, 0
0, 0
0, 0
0, 0
0, 0
0, 0
0, 0
0, 0
0, 1
0, 0
0, 1
0, 0
0, 0
0, 0
0, 0
0, 0
0, 0
0, 0
0, 0
0, 0
0, 0
0, 0
0, 0
0, 0
0, 0
0, 0
0, 0
0, 0
0, 0
0, 0
0, 0
0, 0
0, 0
0, 0
0, 0
0, 0
0, 0
0, 1
1, 0
0, 1
0, 0
0, 0
0, 0
0, 0
0, 0
0, 0
0, 0
0, 0
0, 0
0, 0
0, 0
0, 0
0, 0
0, 0
0, 0
0, 0
0, 0
1, 0
0, 0
0, 0
0, 0
0, 0
0, 0
0, 0
0, 0
0, 0
0, 0
0, 0
0, 0
0, 0
0, 0
0, 0
0, 0
0, 0
0, 0
0, 0
0, 0
0, 0
0, 0
0, 0
0, 0
0, 0
0, 0
0, 0
0, 0
0, 0
1, 0
0, 0
0, 0
0, 0
0, 0
0, 0
0, 0
0, 0
0, 0
0, 0
0, 0
0, 0
0, 0
0, 0
0, 0
0, 0
0, 0
0, 0
0, 0
0, 0
0, 0
0, 1
0, 0
1, 1
0, 0
0, 0
0, 0
0, 0
0, 0
0, 0
0, 0
0, 0
0, 0
0, 0
0, 0
0, 0
0, 0
0, 0
0, 0
0, 0
0, 0
0, 0
0, 0
0, 0
0, 0
0, 0
0, 0
0, 0
0, 0
0, 0
0, 0
0, 0
0, 0
0, 0
1, 0
0, 0
0, 0
0, 0
0, 0
0, 0
0, 0
0, 0
0, 0
0, 0
0, 0
0, 0
0, 0
0, 0
0, 0
0, 0
0, 0
0, 0
0, 0
0, 0
0, 0
0, 0
0, 0
0, 0
0, 0
0, 0
0, 0
0, 0
0, 0
0, 0
0, 0
0, 0
0, 0
0, 0
0, 0
0, 0
0, 0
0, 0
0, 0
0, 0
0, 0
0, 0
0, 0
0, 0
0, 0
0, 0
0, 0
0, 0
0, 0
0, 0
0, 0
0, 0
0, 0
0, 0
0, 0
0, 0
0, 0
0, 0
0, 0
0, 0
0, 0
0, 0
0, 0
0, 0
0, 0
0, 0
0, 0
0, 0
0, 0
0, 0
0, 0
0, 0
0, 0
0, 0
0, 0
0, 0
0, 0
0, 0
0, 0
0, 0
0, 0
0, 0
0, 0
0, 0
0, 0
0, 0
0, 0
0, 0
0, 0
0, 0
0, 0
0, 0
0, 0
0, 0
0, 0
0, 0
0, 0
0, 0
0, 0
0, 0
0, 0
0, 0
0, 0
0, 0
0, 0
0, 0
0, 0
0, 0
0, 0
0, 0
0, 0
0, 0
0, 0
0, 0
0, 0
0, 0
0, 0
0, 0
0, 0
0, 0
0, 0
0, 0
0, 0
0, 0
0, 0
0, 0
0, 0
0, 0
0, 0
0, 0
0, 0
0, 0
0, 0
0, 0
0, 0
0, 0
0, 0
0, 0
0, 0
0, 0
0, 0
0, 0
0, 0
0, 0
0, 0
0, 0
0, 0
0, 0
0, 0
0, 0
0, 0
0, 0
0, 0
0, 0
0, 0
0, 0
0, 0
0, 0
0, 0
0, 0
0, 0
0, 0
0, 0
0, 0
0, 0
0, 0
0, 0
0, 0
0, 0
0, 0
0, 0
0, 0
0, 0
0, 0
0, 0
0, 0
0, 0
0, 0
0, 0
0, 0
0, 0
0, 0
0, 0
0, 0
0, 0
0, 0
0, 0
0, 0
0, 0
0, 0
0, 0
0, 0
0, 0
0, 0
0, 0
0, 0
0, 0
0, 0
0, 0
0, 0
0, 0
0, 0
0, 0
0, 0
0, 0
0, 0
0, 0
0, 0
0, 0
0, 0
0, 0
0, 0
0, 0
0, 0
0, 0
0, 0
0, 0
0, 0
0, 0
0, 0
0, 0
0, 0
0, 0
0, 0
0, 0
0, 0
0, 0
0, 0
0, 0
0, 0
0, 0
0, 0
0, 0
0, 0
0, 0
0, 0
0, 0
0, 0
0, 0
0, 0
0, 0
0, 0
0, 0
0, 0
0, 0
0, 0
0, 0
0, 0
0, 0
0, 0
0, 0
0, 0
0, 0
0, 0
0, 0
0, 0
0, 0
0, 0
0, 0
0, 0
0, 0
0, 0
0, 0
0, 0
0, 0
0, 0
0, 0
0, 0
0, 0
0, 0
0, 0
0, 0
0, 0
0, 0
0, 0
0, 0
0, 0
0, 0
0, 0
0, 0
0, 0
0, 0
0, 0
0, 0
0, 0
0, 0
0, 0
0, 0
0, 0
0, 0
0, 0
0, 0
0, 0
0, 0
0, 0
0, 0
0, 0
0, 0
0, 0
0, 0
0, 0
0, 0
0, 0
0, 0
0, 0
0, 0
0, 0
0, 0
0, 0
0, 0
0, 0
0, 0
0, 0
0, 0
0, 0
0, 0
0, 0
0, 0
0, 0
0, 0
0, 0
0, 0
0, 0
0, 0
0, 0
0, 0
0, 0
0, 0
0, 0
#ENDOFDATA     end of spectrum data