File: host_upload/06-09-2024/ps_0852/dump3/ps__0852shot_2278.msa
#FORMAT      : EMSA/MAS spectral data file
#VERSION     : TC202v2.0 PIXL
#TITLE       : N/A
#DATE        :       Date in the format DD-MMM-YYYY, for example 07-JUL-2010
#TIME        :             The time of day at which the spectrum was recorded, in 24-hour format
#OWNER       : PIXL Flight Model       (PIXL will use this to indicate which instrument took the data.)
#NPOINTS     : 4096     Number of data points in the spectrum (This can be zero for configuration only files)
#NCOLUMNS    : 2     Number of data columns in the spectrum (This can be zero for configuration only files)
#XUNITS      : eV
#YUNITS      : COUNTS
#DATATYPE    : YY
#XPERCHAN    : 7.862, 7.881   eV per channel (separate by commas if more than one detector)
#OFFSET      : 18.5, -22.4         eV of first channel  (separate by commas if more than one detector
#SIGNALTYPE  : XRF
#YP_TEMP     : 2.396
#LIVETIME    : 8.56577, 8.56529   seconds (separate by commas if more than one detector)
#REALTIME    : 10, 10.0   seconds (separate by commas if more than one detector)
#SPECTRUM    : start of spectrum data
0, 0
0, 0
0, 0
0, 0
0, 0
0, 0
0, 0
0, 0
0, 0
0, 0
0, 0
0, 0
0, 0
0, 0
0, 0
0, 0
0, 0
0, 0
0, 0
0, 0
0, 0
0, 0
0, 0
0, 0
0, 0
0, 0
0, 0
0, 0
0, 0
0, 0
0, 2
0, 1
0, 0
0, 0
0, 0
0, 1
0, 0
1, 1
0, 3
1, 0
3, 2
0, 4
1, 1
0, 2
0, 5
2, 1
5, 1
4, 5
3, 7
11, 17
21, 26
33, 43
56, 70
56, 78
68, 81
58, 87
49, 56
19, 38
21, 33
9, 7
5, 8
3, 3
3, 3
1, 2
10, 6
4, 4
9, 6
8, 10
23, 28
39, 51
88, 117
158, 206
250, 273
297, 402
402, 456
395, 435
369, 400
282, 302
192, 188
120, 124
62, 94
25, 42
24, 21
4, 16
5, 6
8, 4
7, 2
1, 1
3, 4
1, 2
0, 4
2, 5
6, 9
3, 10
10, 23
18, 36
16, 48
35, 80
44, 102
34, 89
30, 74
30, 55
23, 39
17, 30
12, 20
8, 14
8, 15
5, 15
9, 15
14, 32
27, 36
41, 46
46, 45
33, 71
56, 51
49, 54
42, 60
37, 44
33, 37
37, 26
24, 32
20, 21
18, 14
15, 32
21, 17
16, 21
12, 9
16, 10
6, 10
5, 6
5, 5
4, 4
1, 3
5, 0
3, 4
1, 1
1, 5
1, 3
4, 5
1, 2
3, 1
2, 5
2, 3
0, 3
5, 6
8, 1
7, 3
8, 3
6, 1
10, 5
9, 7
7, 6
16, 13
15, 24
23, 36
29, 52
30, 68
39, 74
27, 69
32, 66
16, 64
18, 64
7, 38
6, 38
6, 58
2, 60
3, 45
3, 41
3, 27
5, 16
6, 24
6, 23
8, 16
8, 16
6, 6
5, 7
1, 5
7, 7
2, 7
4, 5
7, 3
4, 3
2, 0
2, 4
3, 2
8, 3
8, 4
15, 2
27, 7
27, 4
39, 8
42, 11
35, 11
34, 11
29, 9
24, 20
24, 9
21, 15
19, 22
11, 4
11, 10
18, 9
8, 7
6, 8
5, 10
6, 6
6, 5
7, 6
2, 16
7, 14
11, 15
5, 29
4, 31
12, 32
5, 45
7, 38
5, 18
6, 22
6, 14
1, 18
4, 16
7, 11
6, 7
6, 15
5, 12
9, 29
10, 29
12, 29
12, 46
14, 39
26, 37
24, 29
18, 46
8, 37
20, 20
14, 33
8, 38
4, 36
11, 61
10, 46
5, 49
10, 41
8, 40
7, 34
7, 36
11, 29
24, 41
27, 45
34, 55
67, 67
54, 58
60, 73
63, 54
61, 55
40, 50
36, 40
34, 26
32, 17
27, 24
19, 21
22, 23
44, 29
45, 61
78, 110
145, 187
243, 362
448, 592
720, 904
985, 1353
1357, 1827
1715, 2205
1923, 2504
2159, 2523
2075, 2351
1903, 1943
1493, 1535
1154, 1155
847, 773
532, 456
338, 279
188, 130
103, 71
53, 35
28, 32
11, 23
11, 13
14, 14
14, 16
18, 22
26, 19
33, 30
41, 49
65, 52
89, 81
129, 105
179, 163
208, 258
238, 314
301, 344
352, 332
330, 358
333, 347
268, 296
214, 203
180, 153
113, 127
91, 67
44, 39
37, 30
17, 22
19, 10
8, 7
9, 15
12, 9
8, 8
13, 15
17, 22
20, 16
15, 15
17, 16
24, 13
9, 14
8, 11
14, 22
7, 6
8, 10
5, 10
4, 9
6, 6
1, 16
2, 4
2, 11
2, 8
3, 4
4, 6
3, 7
6, 11
9, 8
11, 5
6, 8
3, 6
4, 10
5, 7
6, 15
1, 10
3, 13
5, 13
0, 4
4, 6
3, 8
2, 10
7, 9
3, 7
5, 3
2, 7
5, 5
8, 5
8, 8
3, 8
4, 6
8, 7
13, 11
11, 2
10, 3
5, 5
2, 5
6, 2
8, 3
5, 0
5, 2
4, 7
7, 3
2, 7
3, 8
5, 6
2, 5
3, 5
1, 5
2, 3
2, 8
2, 6
2, 3
5, 7
4, 6
3, 4
5, 12
2, 7
2, 6
5, 11
4, 4
5, 9
9, 13
6, 14
6, 18
8, 9
8, 12
13, 13
10, 10
8, 13
13, 11
15, 5
12, 8
16, 7
19, 7
18, 6
18, 3
15, 0
9, 2
6, 5
4, 5
6, 2
4, 6
1, 3
3, 5
2, 6
5, 4
4, 2
7, 5
2, 4
3, 6
2, 6
3, 2
1, 10
2, 5
5, 7
4, 8
2, 14
2, 8
3, 10
1, 5
6, 6
5, 8
0, 2
3, 3
2, 4
6, 5
5, 6
2, 6
2, 3
7, 6
6, 1
5, 2
4, 7
3, 2
6, 5
2, 1
4, 8
0, 5
1, 5
2, 1
5, 5
1, 6
3, 1
3, 7
1, 2
4, 7
2, 6
2, 5
1, 7
3, 5
2, 4
2, 6
2, 4
0, 6
2, 3
4, 2
1, 4
2, 1
2, 3
3, 2
0, 1
4, 1
1, 0
0, 4
1, 6
1, 1
4, 5
0, 2
1, 2
4, 2
2, 3
2, 4
5, 4
4, 3
2, 0
1, 2
2, 1
0, 0
0, 1
1, 3
3, 1
0, 3
2, 3
2, 1
3, 4
3, 6
0, 5
4, 1
2, 2
6, 3
4, 1
6, 4
2, 6
7, 4
2, 3
3, 6
2, 3
3, 5
2, 6
0, 4
0, 3
2, 2
4, 4
5, 3
1, 4
3, 1
3, 0
3, 6
4, 1
0, 1
5, 2
1, 1
2, 1
2, 3
3, 3
1, 3
3, 1
1, 0
1, 3
1, 4
6, 2
1, 3
1, 2
2, 4
2, 3
1, 4
3, 3
0, 2
1, 4
2, 1
1, 4
8, 7
5, 2
3, 8
4, 6
6, 4
4, 1
2, 1
2, 2
1, 1
1, 1
2, 2
2, 0
0, 0
3, 2
2, 3
2, 1
1, 6
1, 4
0, 0
3, 1
1, 3
1, 3
4, 0
1, 3
1, 4
0, 2
3, 5
4, 1
2, 3
4, 3
3, 3
2, 2
2, 1
1, 3
2, 2
2, 0
2, 1
0, 1
1, 1
1, 2
1, 1
0, 1
1, 1
3, 1
0, 2
2, 0
1, 0
5, 4
1, 1
1, 1
0, 1
0, 0
1, 0
2, 1
0, 1
0, 3
0, 0
1, 4
1, 0
0, 1
1, 1
2, 1
1, 1
1, 0
0, 1
2, 1
0, 1
0, 1
0, 0
1, 1
0, 0
1, 0
0, 1
1, 0
1, 1
1, 0
2, 0
0, 0
1, 1
1, 3
1, 0
0, 0
2, 0
0, 0
1, 1
1, 1
0, 2
1, 0
2, 0
3, 0
0, 1
0, 1
0, 0
2, 1
2, 0
1, 2
0, 2
0, 0
0, 0
0, 0
0, 0
0, 1
0, 2
1, 1
0, 2
1, 2
0, 2
1, 0
0, 2
0, 1
1, 1
0, 0
0, 1
0, 1
3, 1
0, 1
0, 1
2, 1
1, 2
1, 1
0, 0
1, 1
0, 0
0, 0
0, 1
0, 1
0, 0
0, 0
1, 2
0, 1
0, 0
0, 1
0, 0
1, 2
0, 0
0, 0
0, 1
0, 0
1, 0
2, 1
0, 0
0, 0
0, 0
0, 0
0, 2
0, 0
0, 0
0, 0
0, 2
0, 2
0, 1
2, 0
1, 0
0, 0
0, 0
1, 0
0, 0
0, 1
0, 0
0, 0
1, 0
0, 0
0, 0
1, 0
2, 0
0, 0
0, 0
0, 0
1, 0
0, 0
0, 0
0, 2
0, 0
1, 1
1, 1
0, 1
0, 0
1, 1
1, 0
0, 0
1, 1
0, 1
0, 1
1, 1
0, 0
0, 1
1, 0
0, 0
1, 1
0, 0
0, 0
0, 0
1, 0
0, 0
0, 0
0, 0
0, 0
0, 0
0, 0
0, 0
0, 0
0, 1
1, 0
1, 0
0, 0
2, 1
0, 0
0, 2
1, 0
1, 0
0, 0
1, 0
0, 0
0, 0
0, 1
0, 0
0, 0
0, 1
0, 0
0, 1
0, 0
0, 0
0, 2
2, 0
0, 0
0, 1
0, 0
1, 0
0, 0
0, 0
0, 1
0, 0
0, 2
1, 0
0, 0
0, 0
0, 1
0, 1
0, 0
0, 0
0, 0
0, 0
0, 1
1, 1
0, 0
0, 0
0, 1
0, 0
0, 0
0, 1
0, 0
1, 0
0, 0
1, 0
1, 1
1, 0
0, 1
1, 0
1, 0
0, 0
1, 0
1, 0
0, 0
1, 0
0, 0
0, 0
0, 0
0, 0
0, 0
1, 0
0, 0
0, 0
0, 0
0, 0
0, 0
0, 0
0, 0
0, 1
0, 0
0, 0
0, 0
0, 0
0, 0
0, 0
0, 0
0, 0
0, 1
0, 0
1, 0
0, 0
0, 0
1, 0
0, 0
0, 0
0, 0
0, 0
0, 0
0, 0
0, 1
0, 0
0, 0
1, 0
0, 0
0, 0
0, 0
0, 0
0, 1
0, 0
0, 0
0, 1
0, 0
0, 0
0, 0
0, 0
0, 2
0, 1
0, 1
0, 1
0, 1
0, 0
0, 0
0, 0
1, 0
1, 0
0, 0
0, 0
0, 0
0, 0
0, 0
0, 0
0, 0
0, 0
0, 0
1, 0
0, 0
0, 0
0, 1
1, 0
0, 0
0, 0
0, 0
0, 0
0, 0
0, 0
0, 0
0, 0
1, 0
0, 0
0, 0
0, 0
0, 0
0, 0
0, 0
0, 0
0, 0
0, 0
0, 0
0, 0
0, 0
0, 0
0, 0
1, 1
0, 0
0, 1
0, 0
0, 0
0, 1
0, 0
0, 0
0, 1
0, 0
0, 0
0, 0
0, 0
0, 0
0, 0
1, 0
0, 0
0, 0
0, 1
0, 0
0, 0
0, 0
0, 0
0, 0
0, 0
0, 0
0, 0
0, 0
0, 0
0, 0
0, 0
0, 0
0, 0
0, 0
1, 0
0, 0
0, 0
0, 0
0, 0
0, 0
0, 0
0, 0
0, 0
0, 0
0, 0
0, 0
0, 0
0, 0
0, 0
0, 0
0, 0
0, 0
1, 0
0, 0
0, 0
0, 0
0, 0
0, 0
0, 0
0, 0
0, 0
0, 0
0, 1
0, 0
0, 0
0, 0
0, 0
0, 0
0, 0
0, 0
0, 0
0, 0
0, 0
0, 0
0, 0
0, 0
0, 0
0, 0
0, 0
0, 0
0, 0
0, 0
0, 0
0, 0
0, 0
0, 0
0, 0
0, 0
0, 0
0, 0
0, 0
0, 0
0, 0
0, 0
0, 0
0, 0
0, 0
0, 0
0, 0
0, 0
0, 0
0, 0
0, 0
0, 1
0, 0
0, 0
0, 0
0, 0
0, 0
0, 0
0, 0
0, 0
0, 0
0, 0
0, 0
0, 0
0, 0
0, 0
0, 0
0, 0
0, 0
0, 0
0, 0
0, 0
0, 0
0, 0
0, 0
0, 0
0, 0
0, 0
0, 0
0, 0
0, 0
1, 0
0, 0
0, 0
0, 0
0, 0
0, 0
0, 0
0, 0
0, 0
0, 0
0, 0
0, 0
0, 0
0, 0
0, 0
0, 0
0, 0
0, 0
0, 0
0, 0
0, 0
0, 0
0, 0
0, 0
0, 0
0, 0
0, 0
0, 0
0, 0
0, 0
0, 0
0, 0
0, 0
0, 0
0, 0
0, 0
0, 0
0, 0
0, 0
0, 0
0, 0
0, 0
0, 0
0, 0
0, 0
0, 0
0, 0
0, 0
0, 0
0, 0
0, 0
0, 0
0, 0
0, 0
0, 0
0, 0
0, 0
0, 0
0, 0
0, 0
0, 0
0, 0
0, 0
0, 0
0, 0
0, 0
0, 0
0, 0
0, 0
0, 0
0, 0
0, 0
0, 0
0, 0
0, 0
0, 0
0, 0
0, 0
0, 0
0, 0
0, 0
0, 0
0, 0
0, 0
0, 0
0, 0
0, 0
0, 0
0, 0
0, 0
0, 0
0, 0
0, 0
0, 0
0, 0
0, 0
0, 0
0, 0
0, 0
0, 0
0, 0
0, 0
0, 0
0, 0
0, 0
0, 0
0, 0
0, 0
0, 0
0, 0
0, 0
0, 0
0, 0
0, 0
0, 0
0, 0
0, 0
0, 0
0, 0
0, 0
0, 0
0, 0
0, 0
0, 0
0, 0
0, 0
0, 0
0, 0
0, 0
0, 0
0, 0
0, 0
0, 0
0, 0
0, 0
0, 0
0, 0
0, 0
0, 0
0, 0
0, 0
0, 0
0, 0
0, 0
0, 0
0, 0
0, 0
0, 0
0, 0
0, 0
0, 0
0, 0
0, 0
0, 0
0, 0
0, 0
0, 0
0, 0
0, 0
0, 0
0, 0
0, 0
0, 0
0, 0
0, 0
0, 0
0, 0
0, 0
0, 0
0, 0
0, 0
0, 0
0, 0
0, 0
0, 0
0, 0
0, 0
0, 0
0, 0
0, 0
0, 0
0, 0
0, 0
0, 0
0, 0
0, 0
0, 0
0, 0
0, 0
0, 0
0, 0
0, 0
0, 0
0, 0
0, 0
0, 0
0, 0
0, 0
0, 0
0, 0
0, 0
0, 0
0, 0
0, 0
0, 0
0, 0
0, 0
0, 0
0, 0
0, 0
0, 0
0, 0
0, 0
0, 0
0, 0
0, 0
0, 0
0, 0
0, 0
0, 0
0, 0
0, 0
0, 0
0, 0
0, 0
0, 0
0, 0
0, 0
0, 0
0, 0
0, 0
0, 0
0, 0
0, 0
0, 0
0, 0
0, 0
0, 0
0, 0
0, 0
0, 0
0, 0
0, 0
0, 0
0, 0
0, 0
0, 0
0, 0
0, 0
0, 0
0, 0
0, 0
0, 0
0, 0
0, 0
0, 0
0, 0
0, 0
0, 0
0, 0
0, 0
0, 0
0, 0
0, 0
0, 0
0, 0
0, 0
0, 0
0, 0
0, 0
0, 0
0, 0
0, 0
0, 0
0, 0
0, 0
0, 0
0, 0
0, 0
0, 0
0, 0
0, 0
0, 0
0, 0
0, 0
0, 0
0, 0
0, 0
0, 0
0, 0
0, 0
0, 0
0, 0
0, 0
0, 0
0, 0
0, 0
0, 0
0, 0
0, 0
0, 0
0, 0
0, 0
0, 0
0, 0
0, 0
0, 0
0, 0
0, 0
0, 0
0, 0
0, 0
0, 0
0, 0
0, 0
0, 0
0, 0
0, 0
0, 0
0, 0
0, 0
0, 0
0, 0
0, 0
0, 0
0, 0
0, 0
0, 0
0, 0
0, 0
0, 0
#ENDOFDATA     end of spectrum data