File: host_upload/06-09-2024/ps_0852/dump3/ps__0852shot_2271.msa
#FORMAT      : EMSA/MAS spectral data file
#VERSION     : TC202v2.0 PIXL
#TITLE       : N/A
#DATE        :       Date in the format DD-MMM-YYYY, for example 07-JUL-2010
#TIME        :             The time of day at which the spectrum was recorded, in 24-hour format
#OWNER       : PIXL Flight Model       (PIXL will use this to indicate which instrument took the data.)
#NPOINTS     : 4096     Number of data points in the spectrum (This can be zero for configuration only files)
#NCOLUMNS    : 2     Number of data columns in the spectrum (This can be zero for configuration only files)
#XUNITS      : eV
#YUNITS      : COUNTS
#DATATYPE    : YY
#XPERCHAN    : 7.862, 7.881   eV per channel (separate by commas if more than one detector)
#OFFSET      : 18.5, -22.4         eV of first channel  (separate by commas if more than one detector
#SIGNALTYPE  : XRF
#YP_TEMP     : 2.428
#LIVETIME    : 8.56567, 8.56473   seconds (separate by commas if more than one detector)
#REALTIME    : 10, 10.0   seconds (separate by commas if more than one detector)
#SPECTRUM    : start of spectrum data
0, 0
0, 0
0, 0
0, 0
0, 0
0, 0
0, 0
0, 0
0, 0
0, 0
0, 0
0, 0
0, 0
0, 0
0, 0
0, 0
0, 0
0, 0
0, 0
0, 0
0, 0
0, 0
0, 0
0, 0
0, 0
0, 0
0, 0
0, 0
0, 0
0, 0
0, 0
0, 0
0, 0
1, 0
0, 0
0, 0
0, 0
0, 0
0, 0
1, 0
0, 0
1, 0
0, 1
0, 0
2, 1
0, 0
3, 0
5, 1
3, 6
13, 4
25, 18
54, 30
61, 37
75, 49
65, 66
84, 52
67, 32
47, 37
40, 21
16, 10
9, 9
10, 2
3, 1
4, 2
3, 6
5, 1
7, 6
16, 6
29, 18
47, 38
116, 76
168, 163
300, 198
411, 254
422, 328
413, 335
426, 308
365, 205
238, 141
126, 92
81, 48
34, 28
23, 13
7, 5
4, 5
2, 6
1, 2
2, 0
1, 1
1, 3
1, 0
2, 1
3, 0
4, 2
2, 3
7, 6
8, 10
9, 11
8, 12
6, 9
14, 14
15, 8
10, 5
5, 6
9, 4
10, 5
1, 4
11, 6
15, 7
12, 11
26, 14
30, 23
24, 29
36, 33
41, 34
52, 27
29, 29
35, 30
37, 22
26, 22
23, 20
26, 18
16, 14
21, 13
17, 9
18, 12
13, 14
12, 13
10, 5
4, 6
9, 4
5, 3
4, 3
0, 1
4, 3
3, 4
6, 1
5, 7
1, 4
3, 2
1, 2
3, 3
0, 3
0, 3
1, 4
2, 0
1, 0
2, 2
1, 2
3, 1
6, 4
2, 3
6, 5
8, 3
15, 8
26, 7
21, 10
16, 11
27, 10
16, 15
18, 10
9, 9
7, 5
5, 5
5, 10
5, 6
3, 10
9, 5
8, 1
7, 3
11, 4
3, 4
4, 5
7, 1
8, 4
9, 5
4, 10
8, 7
6, 9
7, 14
7, 8
7, 5
8, 6
4, 7
7, 3
4, 3
5, 7
9, 4
7, 4
11, 7
3, 8
17, 4
8, 10
10, 11
16, 7
10, 9
13, 8
11, 10
15, 9
15, 13
19, 16
11, 34
10, 21
7, 27
7, 24
10, 27
8, 31
10, 25
12, 16
11, 26
14, 15
10, 14
8, 8
11, 5
8, 10
8, 10
11, 5
5, 2
5, 6
6, 6
9, 1
8, 4
7, 7
22, 3
11, 5
15, 5
25, 7
19, 11
35, 7
27, 16
31, 11
27, 10
25, 4
24, 8
18, 6
14, 6
13, 9
13, 8
5, 7
14, 8
10, 5
12, 4
12, 8
11, 12
19, 17
26, 23
27, 33
37, 44
51, 38
50, 51
67, 40
68, 50
75, 39
54, 31
50, 40
56, 35
32, 32
40, 27
38, 30
46, 49
41, 76
58, 68
113, 98
138, 119
193, 221
333, 348
522, 524
842, 821
1243, 1086
1762, 1509
2112, 1841
2467, 1940
2597, 2008
2504, 1938
2342, 1626
1948, 1334
1457, 920
981, 661
604, 404
391, 211
205, 111
141, 57
54, 40
35, 21
24, 13
16, 6
8, 12
19, 10
15, 13
22, 9
29, 28
37, 42
59, 59
59, 66
102, 107
140, 174
215, 226
271, 248
335, 287
392, 308
395, 300
350, 305
327, 247
263, 173
220, 146
142, 96
100, 54
62, 27
49, 11
21, 16
18, 6
21, 3
15, 5
9, 7
15, 12
20, 11
12, 18
19, 15
13, 15
16, 6
10, 9
15, 8
7, 3
8, 6
7, 8
4, 4
6, 3
3, 2
2, 3
3, 3
4, 4
7, 2
8, 2
6, 2
7, 5
6, 5
6, 6
4, 7
6, 9
6, 6
5, 14
6, 14
9, 7
4, 9
10, 7
10, 16
5, 9
7, 8
10, 6
6, 5
9, 4
5, 3
8, 8
4, 3
7, 7
15, 5
19, 2
17, 2
13, 2
19, 2
16, 2
14, 9
17, 2
13, 5
10, 8
5, 4
6, 5
4, 3
8, 4
6, 1
9, 2
8, 1
2, 4
12, 2
2, 3
8, 2
4, 2
8, 3
2, 2
3, 5
5, 3
3, 6
5, 3
2, 5
3, 1
2, 0
3, 2
2, 3
4, 3
4, 2
9, 5
3, 1
3, 3
4, 2
6, 2
3, 5
3, 2
1, 5
4, 5
8, 2
5, 5
1, 3
5, 3
5, 5
8, 4
3, 6
6, 7
4, 2
3, 4
4, 4
0, 4
2, 4
3, 3
0, 5
1, 3
1, 8
5, 3
6, 2
2, 2
3, 2
1, 2
3, 3
3, 3
4, 2
2, 0
3, 4
5, 5
4, 6
1, 3
2, 3
4, 3
3, 3
1, 3
5, 7
2, 4
4, 6
4, 6
3, 4
3, 8
4, 3
2, 10
5, 3
7, 4
2, 7
6, 5
2, 3
3, 5
3, 3
2, 3
5, 0
4, 2
2, 4
6, 3
2, 2
7, 2
4, 1
5, 2
7, 3
6, 4
4, 4
3, 0
4, 2
6, 2
5, 2
2, 2
6, 1
4, 0
4, 4
2, 4
4, 3
3, 2
5, 2
2, 1
0, 2
2, 0
4, 0
2, 0
0, 3
0, 1
1, 2
0, 1
7, 1
0, 0
3, 6
1, 1
4, 3
2, 1
4, 2
3, 1
1, 1
2, 2
2, 2
2, 3
4, 0
1, 2
0, 1
3, 1
3, 1
2, 2
5, 1
5, 4
4, 3
4, 1
5, 0
3, 3
2, 3
1, 3
1, 5
2, 3
3, 2
1, 1
1, 3
1, 0
0, 0
3, 6
0, 0
4, 2
3, 2
1, 2
3, 3
1, 2
2, 1
1, 0
2, 1
1, 2
4, 4
4, 5
2, 0
3, 4
6, 5
1, 0
1, 0
1, 2
1, 2
2, 1
3, 1
3, 2
2, 0
3, 3
6, 4
3, 2
7, 0
1, 4
6, 5
2, 1
8, 1
6, 7
2, 2
1, 2
2, 1
2, 2
2, 2
0, 0
4, 0
4, 1
1, 1
1, 1
1, 0
2, 3
0, 0
2, 0
3, 3
3, 0
0, 0
1, 1
2, 3
1, 1
1, 0
2, 0
2, 0
3, 1
4, 0
2, 1
3, 6
2, 2
0, 1
2, 1
4, 0
2, 0
2, 2
0, 2
0, 1
1, 0
0, 1
0, 3
0, 1
0, 1
1, 1
0, 0
0, 0
1, 1
2, 2
0, 1
1, 2
0, 1
1, 1
2, 2
1, 1
0, 2
2, 1
0, 1
1, 0
0, 1
1, 2
3, 1
1, 3
1, 0
2, 1
0, 1
4, 0
0, 1
1, 0
2, 1
3, 2
0, 1
1, 0
2, 1
0, 0
2, 1
1, 1
1, 0
3, 0
0, 1
0, 0
0, 0
5, 0
1, 2
1, 1
0, 3
1, 0
2, 0
1, 1
0, 0
0, 0
0, 1
1, 1
0, 3
2, 4
0, 0
1, 0
1, 2
0, 0
0, 0
1, 1
2, 1
2, 0
0, 2
3, 0
1, 3
0, 1
0, 0
0, 1
0, 2
1, 1
0, 1
0, 0
1, 3
0, 0
1, 0
0, 2
1, 1
3, 1
0, 0
0, 1
0, 3
0, 0
0, 0
0, 0
0, 0
1, 0
0, 2
0, 0
1, 0
0, 0
0, 0
0, 0
2, 0
0, 0
0, 0
2, 0
0, 2
0, 1
0, 0
0, 0
1, 2
0, 2
2, 2
0, 0
0, 0
0, 0
1, 0
1, 0
2, 1
1, 0
0, 0
0, 0
0, 1
1, 1
0, 1
0, 1
1, 0
1, 1
1, 0
0, 0
1, 0
0, 0
0, 0
0, 0
0, 1
0, 1
0, 2
0, 0
0, 1
1, 0
0, 0
1, 1
0, 0
0, 2
0, 0
0, 1
0, 0
0, 0
0, 0
0, 1
0, 0
0, 0
0, 0
4, 0
2, 1
2, 1
0, 0
1, 0
1, 0
0, 0
1, 0
1, 1
0, 1
0, 0
0, 0
0, 0
0, 0
1, 0
0, 0
0, 0
0, 2
0, 0
0, 0
0, 0
0, 0
0, 0
0, 1
0, 0
0, 0
1, 1
1, 0
0, 0
0, 0
1, 0
1, 0
0, 2
0, 0
0, 1
0, 1
2, 0
0, 0
0, 0
0, 0
0, 1
0, 0
1, 0
0, 0
0, 0
0, 0
0, 1
0, 0
0, 1
0, 1
0, 0
0, 0
1, 1
0, 0
0, 0
1, 0
0, 0
1, 0
1, 2
1, 0
0, 1
1, 0
0, 0
0, 0
0, 0
0, 0
1, 0
0, 0
1, 0
0, 0
0, 0
0, 1
0, 0
1, 0
0, 0
0, 0
2, 0
0, 1
0, 0
0, 0
1, 1
0, 0
0, 0
0, 0
0, 1
0, 1
0, 0
0, 0
1, 0
0, 0
0, 1
0, 0
0, 0
0, 1
0, 0
0, 0
0, 1
0, 0
0, 0
0, 0
0, 0
0, 0
0, 0
0, 0
0, 0
0, 0
0, 0
0, 0
0, 1
0, 1
0, 0
0, 0
0, 0
0, 0
0, 0
0, 0
0, 0
0, 0
0, 0
0, 0
0, 0
0, 0
0, 0
1, 1
0, 0
0, 0
0, 0
0, 0
0, 0
0, 0
0, 1
0, 0
0, 0
0, 0
0, 0
0, 0
0, 0
0, 0
0, 0
0, 1
0, 0
0, 0
0, 0
1, 0
0, 0
1, 0
0, 1
0, 0
1, 0
0, 0
1, 0
0, 0
0, 0
0, 1
0, 0
0, 0
0, 0
0, 0
0, 0
0, 0
0, 0
0, 0
0, 0
0, 0
0, 0
0, 0
0, 0
0, 0
0, 0
0, 0
0, 1
0, 0
0, 0
0, 0
0, 0
0, 0
0, 0
0, 0
0, 0
0, 0
0, 0
0, 0
0, 0
0, 0
0, 0
0, 0
0, 0
0, 0
0, 0
0, 0
0, 0
1, 0
0, 0
0, 0
0, 0
0, 0
0, 0
0, 0
1, 0
0, 0
0, 0
0, 0
0, 0
0, 0
0, 0
0, 0
0, 0
0, 0
0, 0
0, 0
0, 0
0, 0
0, 0
0, 0
0, 0
0, 0
0, 0
0, 0
0, 0
0, 0
0, 0
0, 0
0, 0
0, 0
0, 0
0, 0
0, 1
0, 0
0, 0
0, 0
0, 0
0, 0
0, 0
0, 0
0, 0
0, 0
0, 0
0, 0
0, 0
0, 0
0, 0
0, 0
0, 0
0, 0
0, 0
0, 0
0, 0
0, 0
0, 0
0, 0
0, 0
0, 0
0, 0
0, 0
0, 0
0, 0
0, 0
0, 0
0, 0
0, 0
0, 0
0, 0
0, 0
0, 0
0, 0
0, 0
0, 0
0, 0
0, 0
0, 0
0, 0
0, 0
0, 0
0, 0
0, 0
0, 0
0, 0
0, 0
0, 0
0, 0
0, 0
0, 0
0, 0
0, 0
0, 0
0, 0
0, 0
0, 0
0, 0
0, 0
0, 0
0, 0
0, 0
0, 0
0, 0
0, 0
0, 0
0, 0
0, 0
0, 0
0, 0
0, 0
0, 0
0, 0
0, 0
0, 0
0, 0
0, 0
0, 0
0, 0
0, 0
0, 0
0, 0
0, 0
0, 0
0, 0
0, 0
0, 0
0, 0
1, 0
0, 0
0, 0
0, 0
0, 0
0, 0
0, 0
0, 0
0, 0
0, 0
0, 0
0, 0
0, 0
0, 0
0, 0
0, 0
0, 0
0, 0
0, 0
0, 0
0, 0
0, 0
0, 0
1, 0
0, 0
0, 0
0, 0
0, 0
0, 0
0, 0
0, 0
0, 0
0, 0
0, 0
0, 0
0, 0
0, 0
0, 0
0, 0
0, 0
0, 0
0, 0
0, 0
0, 0
0, 0
0, 0
0, 0
0, 1
0, 0
0, 0
0, 0
0, 0
0, 0
0, 0
0, 0
0, 0
0, 0
0, 0
0, 0
0, 0
0, 0
0, 0
0, 0
0, 0
0, 0
0, 0
0, 0
0, 0
0, 0
0, 0
0, 0
0, 0
0, 0
0, 0
0, 0
0, 0
0, 0
0, 0
0, 0
0, 0
0, 0
0, 0
0, 0
0, 0
0, 0
0, 0
0, 0
0, 0
0, 0
0, 0
0, 0
0, 0
0, 0
0, 0
0, 0
0, 0
0, 0
0, 0
0, 0
0, 0
0, 0
0, 0
0, 0
0, 0
0, 0
0, 0
0, 0
0, 0
0, 0
0, 0
0, 0
0, 0
0, 0
0, 0
0, 0
0, 0
0, 0
0, 0
0, 0
0, 0
0, 0
0, 0
0, 0
0, 0
0, 0
0, 0
0, 0
0, 0
0, 0
0, 0
0, 0
0, 0
0, 0
0, 0
0, 0
0, 0
0, 0
0, 0
0, 0
0, 0
0, 0
0, 0
0, 0
0, 0
0, 0
0, 0
0, 0
0, 0
0, 0
0, 0
0, 0
0, 0
0, 0
0, 0
0, 0
0, 0
0, 0
0, 0
0, 0
0, 0
0, 0
0, 0
0, 0
0, 0
0, 0
0, 0
0, 0
0, 0
0, 0
0, 0
0, 0
0, 0
0, 0
0, 0
0, 0
0, 0
0, 0
0, 0
0, 0
0, 0
0, 0
0, 0
0, 0
0, 0
0, 0
0, 0
0, 0
0, 0
0, 0
0, 0
0, 0
0, 0
0, 0
0, 0
0, 0
0, 0
0, 0
0, 0
0, 0
0, 0
0, 0
0, 0
0, 0
0, 0
0, 0
0, 0
0, 0
0, 0
0, 0
0, 0
0, 0
0, 0
0, 0
0, 0
0, 0
0, 0
0, 0
0, 0
0, 0
0, 0
0, 0
0, 0
0, 0
0, 0
0, 0
0, 0
0, 0
0, 0
0, 0
0, 0
0, 0
0, 0
0, 0
0, 0
0, 0
0, 0
0, 0
0, 0
0, 0
0, 0
0, 0
0, 0
0, 0
0, 0
0, 0
0, 0
0, 0
0, 0
0, 0
0, 0
0, 0
0, 0
0, 0
0, 0
0, 0
0, 0
0, 0
0, 0
0, 0
0, 0
0, 0
0, 0
0, 0
0, 0
0, 0
0, 0
0, 0
0, 0
0, 0
0, 0
0, 0
0, 0
0, 0
0, 0
0, 0
0, 0
0, 0
0, 0
0, 0
0, 0
0, 0
0, 0
0, 0
0, 0
0, 0
0, 0
0, 0
0, 0
0, 0
0, 0
0, 0
0, 0
0, 0
0, 0
0, 0
0, 0
0, 0
0, 0
0, 0
0, 0
0, 0
0, 0
0, 0
0, 0
0, 0
0, 0
0, 0
0, 0
0, 0
0, 0
0, 0
0, 0
0, 0
0, 0
0, 0
0, 0
0, 0
0, 0
0, 0
0, 0
#ENDOFDATA     end of spectrum data