File: host_upload/06-09-2024/ps_0852/dump3/ps__0852shot_2093.msa
#FORMAT      : EMSA/MAS spectral data file
#VERSION     : TC202v2.0 PIXL
#TITLE       : N/A
#DATE        :       Date in the format DD-MMM-YYYY, for example 07-JUL-2010
#TIME        :             The time of day at which the spectrum was recorded, in 24-hour format
#OWNER       : PIXL Flight Model       (PIXL will use this to indicate which instrument took the data.)
#NPOINTS     : 4096     Number of data points in the spectrum (This can be zero for configuration only files)
#NCOLUMNS    : 2     Number of data columns in the spectrum (This can be zero for configuration only files)
#XUNITS      : eV
#YUNITS      : COUNTS
#DATATYPE    : YY
#XPERCHAN    : 7.862, 7.881   eV per channel (separate by commas if more than one detector)
#OFFSET      : 18.5, -22.4         eV of first channel  (separate by commas if more than one detector
#SIGNALTYPE  : XRF
#YP_TEMP     : 2.364
#LIVETIME    : 8.56238, 8.56128   seconds (separate by commas if more than one detector)
#REALTIME    : 10, 10.0   seconds (separate by commas if more than one detector)
#SPECTRUM    : start of spectrum data
0, 0
0, 0
0, 0
0, 0
0, 0
0, 0
0, 0
0, 0
0, 0
0, 0
0, 0
0, 0
0, 0
0, 0
0, 0
0, 0
0, 0
0, 0
0, 0
0, 0
0, 0
0, 0
0, 0
0, 0
0, 0
0, 0
0, 0
0, 0
0, 0
0, 0
0, 0
0, 0
0, 0
0, 1
0, 0
0, 0
0, 0
1, 0
1, 0
1, 0
2, 1
2, 0
3, 2
0, 1
2, 1
1, 1
2, 1
1, 3
10, 2
13, 15
20, 17
43, 38
51, 57
73, 56
93, 61
81, 53
68, 53
52, 48
35, 20
15, 16
12, 8
5, 1
4, 3
5, 1
2, 1
6, 2
5, 3
6, 10
11, 20
51, 58
98, 83
171, 133
295, 215
356, 286
464, 333
433, 390
406, 309
288, 205
208, 157
129, 96
74, 57
38, 29
26, 19
15, 6
2, 5
4, 1
1, 2
2, 0
1, 2
0, 2
1, 1
2, 0
5, 2
2, 0
3, 2
3, 2
5, 5
7, 8
10, 7
6, 6
9, 13
5, 9
6, 4
2, 6
9, 6
3, 3
7, 5
6, 12
11, 15
21, 14
25, 19
24, 35
49, 45
50, 41
50, 46
49, 57
42, 46
45, 45
50, 41
41, 41
35, 36
37, 30
29, 26
34, 22
27, 20
17, 18
14, 12
12, 14
7, 11
11, 8
8, 10
7, 5
2, 3
4, 4
3, 5
3, 2
2, 1
4, 5
2, 1
1, 2
3, 3
1, 1
3, 3
7, 0
2, 3
2, 1
5, 2
4, 6
5, 8
1, 2
9, 6
11, 10
9, 15
10, 11
23, 12
26, 24
27, 18
24, 23
19, 23
32, 20
34, 22
20, 13
32, 10
20, 7
20, 8
30, 10
34, 4
22, 12
25, 7
13, 5
11, 11
17, 8
14, 7
12, 10
3, 8
11, 9
8, 9
11, 8
9, 14
11, 11
13, 16
10, 12
14, 14
11, 19
8, 8
10, 10
6, 9
5, 7
3, 10
12, 12
17, 10
19, 15
17, 17
13, 17
20, 25
17, 24
25, 18
10, 13
17, 18
14, 18
14, 18
21, 14
22, 13
18, 11
12, 21
17, 19
12, 18
18, 9
13, 9
6, 8
9, 7
18, 14
8, 6
11, 8
12, 8
11, 6
11, 9
17, 4
12, 3
11, 5
11, 10
7, 6
5, 7
16, 5
12, 8
13, 12
20, 18
19, 17
25, 21
32, 21
34, 21
36, 17
26, 24
22, 17
25, 16
20, 14
17, 13
10, 8
15, 6
16, 11
16, 12
11, 15
15, 12
12, 15
19, 12
20, 28
41, 26
38, 48
59, 53
66, 52
78, 50
65, 56
69, 41
56, 55
52, 39
46, 41
39, 27
24, 27
29, 23
27, 22
24, 37
41, 45
67, 63
108, 112
188, 193
306, 339
468, 582
841, 871
1193, 1200
1583, 1653
2069, 2055
2429, 2116
2661, 2230
2478, 2028
2201, 1796
1827, 1376
1431, 1010
966, 710
651, 415
366, 277
205, 136
136, 78
66, 52
40, 34
30, 22
24, 21
18, 14
17, 19
24, 13
23, 22
36, 22
36, 30
42, 38
75, 67
113, 116
161, 172
201, 209
276, 275
317, 320
340, 314
348, 332
363, 300
312, 248
280, 234
184, 145
129, 108
111, 64
59, 40
30, 21
9, 15
14, 13
16, 12
4, 21
9, 11
11, 12
11, 9
17, 16
13, 13
13, 9
14, 16
14, 9
8, 14
14, 13
9, 8
6, 11
11, 5
12, 8
11, 7
16, 9
12, 3
12, 2
13, 2
10, 3
9, 5
8, 2
9, 4
9, 4
6, 4
4, 4
6, 3
7, 6
9, 11
3, 4
14, 7
5, 7
4, 11
7, 10
10, 7
5, 6
11, 6
9, 4
7, 5
7, 4
14, 9
4, 9
5, 4
9, 6
8, 7
6, 8
2, 4
5, 6
6, 12
7, 4
10, 5
7, 2
5, 2
8, 10
7, 3
1, 3
6, 5
7, 5
6, 3
2, 4
1, 4
5, 4
9, 5
3, 5
4, 2
0, 0
9, 4
5, 3
3, 3
2, 3
3, 3
6, 2
5, 2
6, 5
6, 4
9, 4
7, 4
8, 10
7, 5
4, 4
4, 3
4, 4
3, 1
3, 2
5, 1
6, 4
2, 3
5, 3
6, 6
3, 6
7, 3
8, 3
4, 6
1, 2
6, 4
5, 8
4, 2
9, 3
6, 5
4, 0
3, 6
6, 4
6, 3
4, 5
3, 6
4, 6
3, 3
2, 2
2, 1
6, 2
4, 3
6, 4
5, 2
4, 7
8, 3
3, 2
3, 3
3, 2
7, 1
4, 4
4, 4
3, 3
5, 3
5, 3
2, 4
7, 5
6, 3
6, 5
3, 3
4, 4
4, 10
0, 7
1, 6
4, 4
5, 2
2, 3
1, 1
4, 3
1, 2
3, 1
4, 2
3, 4
6, 1
4, 0
6, 6
0, 1
2, 3
3, 2
3, 2
6, 3
2, 2
2, 5
3, 3
2, 1
3, 4
3, 2
0, 4
3, 3
3, 4
2, 1
4, 2
3, 2
3, 4
5, 4
3, 2
3, 1
4, 3
1, 0
5, 1
6, 1
2, 2
1, 4
2, 2
2, 0
1, 3
1, 1
1, 4
3, 0
1, 4
1, 3
2, 0
8, 2
3, 3
1, 1
3, 0
5, 1
4, 1
2, 2
4, 2
4, 4
1, 5
0, 1
1, 1
5, 2
2, 2
3, 1
1, 1
2, 2
2, 4
1, 3
2, 2
2, 0
1, 1
3, 4
2, 3
5, 0
4, 8
4, 1
0, 2
6, 2
6, 1
1, 1
5, 1
1, 3
2, 3
1, 0
4, 2
1, 3
3, 3
1, 2
3, 1
2, 3
3, 1
3, 2
2, 3
2, 1
4, 3
5, 5
2, 7
4, 4
9, 4
4, 4
2, 2
6, 6
2, 1
3, 3
4, 2
2, 1
2, 1
0, 1
1, 3
1, 3
1, 2
0, 0
0, 1
4, 0
2, 0
3, 1
1, 1
3, 1
4, 1
3, 2
1, 2
2, 4
1, 1
3, 1
3, 2
1, 1
5, 3
3, 3
1, 3
2, 2
2, 1
0, 1
3, 0
2, 1
2, 0
2, 0
2, 3
3, 1
0, 1
0, 0
1, 2
1, 3
3, 1
1, 2
0, 0
1, 0
1, 1
3, 0
1, 2
2, 0
0, 1
0, 1
3, 1
0, 2
0, 1
3, 1
0, 1
1, 1
2, 3
1, 2
2, 1
2, 2
1, 0
1, 0
3, 2
1, 3
2, 0
1, 1
1, 1
1, 0
1, 0
1, 3
2, 1
0, 1
0, 1
1, 0
1, 0
0, 0
1, 0
1, 2
0, 1
0, 1
1, 0
1, 0
0, 0
1, 1
1, 0
1, 0
1, 0
0, 0
0, 0
0, 0
1, 0
0, 0
0, 2
0, 0
0, 2
0, 1
4, 1
0, 1
0, 1
2, 0
0, 1
1, 0
1, 0
0, 0
2, 1
0, 3
2, 1
1, 0
2, 0
0, 0
1, 0
1, 0
0, 0
1, 1
0, 0
2, 1
1, 0
0, 0
0, 1
0, 0
0, 2
0, 2
3, 0
1, 1
0, 0
2, 1
1, 0
0, 3
0, 0
0, 0
0, 0
2, 0
0, 1
0, 0
0, 0
3, 0
1, 0
1, 0
0, 0
1, 1
3, 1
0, 0
0, 0
0, 0
1, 0
0, 0
1, 0
0, 1
1, 0
0, 1
0, 0
1, 1
0, 2
0, 1
0, 0
2, 0
0, 0
0, 1
0, 2
0, 0
1, 0
1, 0
0, 1
1, 0
2, 0
1, 0
1, 0
1, 0
1, 0
2, 1
0, 1
0, 0
0, 0
0, 1
1, 0
0, 0
1, 0
0, 0
0, 1
0, 1
2, 0
0, 0
1, 0
0, 0
0, 0
0, 0
0, 0
1, 1
0, 0
1, 0
1, 0
0, 0
0, 0
0, 0
0, 0
0, 0
1, 1
1, 0
0, 1
0, 0
0, 0
0, 0
0, 0
0, 0
0, 0
1, 0
0, 0
1, 0
0, 0
2, 0
0, 0
0, 1
0, 0
0, 0
1, 1
0, 0
0, 0
1, 0
0, 1
0, 0
0, 0
0, 1
0, 0
0, 1
0, 0
0, 1
1, 1
2, 0
0, 0
1, 1
0, 0
0, 1
0, 0
0, 0
0, 1
0, 0
0, 2
2, 1
0, 0
1, 0
0, 0
1, 1
0, 0
1, 1
2, 0
0, 1
1, 0
0, 0
1, 0
0, 0
0, 0
0, 1
0, 0
0, 0
1, 0
1, 0
0, 1
0, 0
1, 0
0, 0
0, 0
0, 0
0, 0
0, 0
0, 0
0, 1
0, 0
0, 0
2, 0
0, 0
0, 0
0, 0
0, 0
0, 0
0, 0
0, 0
0, 0
0, 0
0, 0
0, 0
0, 0
0, 0
0, 0
0, 0
1, 0
0, 0
0, 1
0, 0
1, 0
0, 0
0, 0
1, 0
0, 0
0, 0
0, 0
0, 2
0, 0
1, 0
0, 0
0, 0
0, 0
0, 1
0, 0
0, 0
0, 0
0, 0
0, 1
0, 0
0, 1
0, 1
1, 0
0, 0
0, 0
0, 0
0, 0
0, 0
0, 0
0, 0
0, 0
0, 1
0, 0
0, 0
0, 0
0, 0
0, 0
0, 0
0, 0
0, 0
0, 0
1, 0
0, 0
0, 0
0, 0
0, 2
0, 0
0, 0
0, 0
0, 0
0, 0
1, 0
0, 0
0, 0
1, 0
1, 0
0, 0
0, 0
0, 0
0, 0
0, 1
0, 1
0, 0
0, 0
0, 0
0, 0
0, 0
0, 0
0, 0
0, 0
0, 0
0, 0
0, 0
0, 0
0, 0
0, 0
0, 1
0, 0
0, 0
0, 0
0, 0
0, 0
0, 0
0, 0
0, 0
0, 0
1, 0
0, 0
1, 0
0, 0
0, 0
0, 0
0, 0
0, 0
0, 0
0, 0
0, 0
0, 0
0, 0
0, 0
0, 0
0, 0
0, 0
0, 0
0, 1
0, 0
0, 0
0, 0
0, 0
0, 0
0, 0
0, 0
0, 0
0, 0
0, 0
0, 0
0, 0
0, 0
0, 0
0, 0
0, 0
0, 0
0, 0
0, 0
0, 0
0, 0
0, 0
0, 0
0, 0
0, 0
0, 1
0, 0
0, 0
0, 0
0, 0
0, 0
0, 0
0, 0
0, 0
0, 0
0, 0
0, 0
0, 0
0, 0
0, 0
0, 0
0, 0
0, 0
0, 0
0, 0
0, 0
0, 0
0, 0
0, 0
0, 0
0, 0
0, 0
0, 0
0, 0
0, 0
0, 0
0, 0
0, 0
0, 0
0, 0
0, 0
0, 0
1, 0
0, 0
0, 0
0, 0
0, 0
0, 0
0, 0
0, 0
0, 0
0, 0
0, 0
0, 0
0, 0
0, 0
0, 0
0, 0
0, 0
0, 0
0, 0
0, 0
0, 0
0, 0
0, 0
0, 0
0, 0
0, 0
0, 0
0, 0
0, 0
0, 0
0, 0
0, 0
0, 0
0, 0
0, 0
0, 0
0, 0
0, 0
0, 0
0, 0
0, 0
0, 0
0, 0
0, 0
0, 0
0, 0
0, 0
0, 0
0, 0
0, 0
0, 0
0, 0
0, 0
0, 0
0, 0
0, 0
0, 0
0, 0
0, 0
0, 0
0, 0
0, 0
0, 0
0, 0
0, 1
0, 0
0, 0
0, 0
0, 0
0, 0
0, 0
0, 0
0, 0
0, 0
0, 0
0, 0
0, 0
0, 0
0, 0
0, 0
0, 0
0, 0
0, 0
0, 0
0, 0
0, 0
0, 0
0, 0
0, 0
0, 0
0, 0
0, 0
0, 0
0, 0
0, 0
0, 0
0, 0
0, 0
0, 0
0, 0
0, 0
0, 0
0, 0
0, 0
0, 0
0, 0
0, 0
0, 0
0, 0
0, 0
0, 0
0, 0
0, 0
0, 0
0, 0
0, 0
0, 0
0, 0
0, 0
0, 0
0, 0
0, 0
0, 0
0, 0
0, 0
0, 0
0, 0
0, 0
0, 0
0, 0
0, 0
0, 0
0, 0
0, 0
0, 0
0, 0
0, 0
0, 0
0, 0
0, 0
0, 0
0, 0
0, 0
0, 0
0, 0
0, 0
0, 0
0, 0
0, 0
0, 0
0, 0
0, 0
0, 0
0, 0
0, 0
0, 0
0, 0
0, 0
0, 0
0, 0
0, 0
0, 0
0, 0
0, 0
0, 0
0, 0
0, 0
0, 0
0, 0
0, 0
0, 0
0, 0
0, 0
0, 0
0, 0
0, 0
0, 0
0, 0
0, 0
0, 0
0, 0
0, 0
0, 0
0, 0
0, 0
0, 0
0, 0
0, 0
0, 0
0, 0
0, 0
0, 0
0, 0
0, 0
0, 0
0, 0
0, 0
0, 0
0, 0
0, 0
0, 0
0, 0
0, 0
0, 0
0, 0
0, 0
0, 0
0, 0
0, 0
0, 0
0, 0
0, 0
0, 0
0, 0
0, 0
0, 0
0, 0
0, 0
0, 0
0, 0
0, 0
0, 0
0, 0
0, 0
0, 0
0, 0
0, 0
0, 0
0, 0
0, 0
0, 0
0, 0
0, 0
0, 0
0, 0
0, 0
0, 0
0, 0
0, 0
0, 0
0, 0
0, 0
0, 0
0, 0
0, 0
0, 0
0, 0
0, 0
0, 0
0, 0
0, 0
0, 0
0, 0
0, 0
0, 0
0, 0
0, 0
0, 0
0, 0
0, 0
0, 0
0, 0
0, 0
0, 0
0, 0
0, 0
0, 0
0, 0
0, 0
0, 0
0, 0
0, 0
0, 0
0, 0
0, 0
0, 0
0, 0
0, 0
0, 0
0, 0
0, 0
0, 0
0, 0
0, 0
0, 0
0, 0
0, 0
0, 0
0, 0
0, 0
0, 0
0, 0
0, 0
0, 0
0, 0
0, 0
0, 0
0, 0
0, 0
0, 0
0, 0
0, 0
0, 0
0, 0
0, 0
0, 0
0, 0
0, 0
0, 0
0, 0
0, 0
0, 0
0, 0
0, 0
0, 0
0, 0
0, 0
0, 0
0, 0
0, 0
0, 0
0, 0
0, 0
0, 0
0, 0
0, 0
0, 0
0, 0
0, 0
0, 0
0, 0
0, 0
0, 0
0, 0
0, 0
0, 0
0, 0
0, 0
0, 0
0, 0
0, 0
0, 0
0, 0
0, 0
0, 0
0, 0
0, 0
0, 0
0, 0
0, 0
0, 0
0, 0
0, 0
0, 0
0, 0
0, 0
0, 0
0, 0
0, 0
0, 0
0, 0
0, 0
0, 0
0, 0
#ENDOFDATA     end of spectrum data