File: host_upload/06-09-2024/ps_0852/dump3/ps__0852shot_2011.msa
#FORMAT      : EMSA/MAS spectral data file
#VERSION     : TC202v2.0 PIXL
#TITLE       : N/A
#DATE        :       Date in the format DD-MMM-YYYY, for example 07-JUL-2010
#TIME        :             The time of day at which the spectrum was recorded, in 24-hour format
#OWNER       : PIXL Flight Model       (PIXL will use this to indicate which instrument took the data.)
#NPOINTS     : 4096     Number of data points in the spectrum (This can be zero for configuration only files)
#NCOLUMNS    : 2     Number of data columns in the spectrum (This can be zero for configuration only files)
#XUNITS      : eV
#YUNITS      : COUNTS
#DATATYPE    : YY
#XPERCHAN    : 7.862, 7.881   eV per channel (separate by commas if more than one detector)
#OFFSET      : 18.5, -22.4         eV of first channel  (separate by commas if more than one detector
#SIGNALTYPE  : XRF
#YP_TEMP     : 2.396
#LIVETIME    : 8.56245, 8.56231   seconds (separate by commas if more than one detector)
#REALTIME    : 10, 10.0   seconds (separate by commas if more than one detector)
#SPECTRUM    : start of spectrum data
0, 0
0, 0
0, 0
0, 0
0, 0
0, 0
0, 0
0, 0
0, 0
0, 0
0, 0
0, 0
0, 0
0, 0
0, 0
0, 0
0, 0
0, 0
0, 0
0, 0
0, 0
0, 0
0, 0
0, 0
0, 0
0, 0
0, 0
0, 0
0, 0
0, 0
0, 0
0, 0
0, 0
0, 0
0, 0
2, 0
0, 0
0, 0
1, 0
2, 0
3, 2
3, 2
2, 0
3, 1
2, 1
5, 0
5, 0
6, 2
6, 5
10, 9
17, 18
34, 26
44, 39
50, 55
60, 38
64, 52
57, 28
27, 30
21, 17
13, 10
5, 5
5, 4
3, 1
5, 6
7, 6
5, 5
7, 1
8, 6
19, 14
40, 30
58, 55
119, 124
192, 177
249, 196
284, 256
320, 263
260, 203
195, 171
144, 123
100, 78
62, 50
32, 25
15, 9
12, 7
7, 3
5, 2
4, 6
5, 4
2, 3
5, 3
6, 2
9, 4
6, 11
24, 21
44, 35
60, 47
91, 76
117, 94
111, 134
132, 125
135, 104
93, 106
72, 68
52, 50
28, 33
22, 17
26, 18
28, 25
21, 25
42, 38
52, 44
62, 67
85, 70
92, 83
93, 101
79, 100
83, 103
63, 60
56, 50
53, 48
39, 22
24, 32
35, 33
35, 20
25, 29
22, 18
29, 15
19, 18
13, 13
7, 23
7, 19
8, 20
7, 18
4, 14
4, 7
2, 15
1, 12
2, 3
3, 5
2, 4
1, 1
3, 1
1, 5
4, 2
1, 4
2, 2
3, 3
6, 5
1, 2
4, 3
7, 3
9, 11
9, 15
20, 15
28, 34
24, 47
25, 43
34, 50
50, 36
37, 24
29, 29
28, 24
14, 7
9, 9
8, 3
4, 4
3, 2
8, 5
10, 5
4, 9
5, 6
7, 8
8, 5
10, 5
13, 6
13, 8
15, 6
12, 5
15, 6
17, 8
15, 5
6, 2
11, 7
3, 8
4, 4
7, 6
9, 4
6, 5
6, 5
9, 8
9, 8
12, 11
6, 9
14, 9
14, 12
15, 15
21, 7
21, 17
13, 19
13, 20
18, 21
10, 21
17, 22
4, 17
8, 12
4, 15
5, 10
9, 11
8, 8
11, 9
4, 10
6, 4
10, 7
6, 3
4, 3
8, 5
8, 5
9, 5
4, 8
3, 16
6, 7
10, 10
4, 10
12, 12
12, 9
9, 7
9, 11
13, 10
20, 7
12, 8
17, 23
15, 7
18, 14
12, 13
14, 10
14, 4
15, 10
12, 12
13, 9
14, 4
17, 6
13, 6
14, 9
16, 9
20, 18
27, 24
34, 35
55, 48
51, 61
71, 53
67, 54
93, 56
76, 54
52, 46
46, 36
38, 35
42, 18
20, 17
19, 15
17, 17
26, 17
21, 25
39, 50
110, 77
165, 183
348, 337
556, 548
869, 855
1270, 1267
1781, 1612
2195, 2019
2454, 2213
2657, 2270
2562, 2083
2313, 1875
1942, 1424
1498, 1047
1082, 704
725, 422
428, 263
239, 141
136, 77
59, 42
40, 22
28, 20
16, 12
20, 13
20, 18
23, 20
25, 22
25, 21
33, 41
42, 62
76, 77
98, 120
160, 154
220, 233
286, 271
355, 306
364, 347
384, 327
388, 282
369, 264
293, 196
224, 185
140, 100
103, 51
62, 46
38, 22
19, 19
13, 5
11, 5
11, 6
15, 4
12, 8
8, 6
9, 14
11, 13
27, 13
12, 14
12, 11
10, 4
9, 9
13, 9
8, 4
5, 7
6, 2
6, 3
4, 2
4, 1
3, 2
3, 5
6, 1
3, 5
4, 5
7, 5
2, 3
4, 4
2, 9
1, 2
4, 6
3, 8
5, 2
7, 5
0, 0
7, 3
6, 3
8, 2
4, 5
11, 3
5, 2
7, 4
5, 3
11, 4
6, 3
4, 4
5, 5
3, 1
4, 2
8, 1
12, 4
5, 2
5, 1
6, 3
3, 4
12, 3
2, 7
9, 3
6, 4
8, 6
4, 0
6, 9
12, 6
6, 4
2, 11
2, 5
5, 15
6, 11
5, 13
1, 13
1, 11
3, 19
5, 12
3, 18
5, 10
4, 6
3, 14
0, 14
4, 15
4, 16
4, 18
2, 20
6, 18
5, 34
2, 19
4, 20
4, 14
8, 10
3, 12
6, 8
8, 6
7, 5
3, 5
10, 4
12, 4
5, 5
9, 7
5, 2
8, 2
7, 0
6, 3
5, 2
5, 1
2, 3
7, 2
5, 3
3, 1
4, 3
2, 2
3, 2
3, 5
3, 2
2, 1
5, 1
4, 1
4, 0
3, 1
6, 2
1, 0
8, 3
7, 4
5, 2
1, 1
4, 4
3, 4
4, 3
5, 2
2, 5
1, 4
0, 3
5, 2
4, 4
2, 1
3, 3
1, 2
2, 3
2, 2
4, 3
2, 2
2, 1
3, 1
4, 2
0, 4
1, 2
2, 3
0, 1
1, 1
4, 3
2, 1
3, 1
2, 1
3, 1
2, 0
1, 0
2, 5
5, 3
2, 6
3, 3
3, 2
1, 1
4, 1
3, 4
6, 0
2, 3
1, 1
5, 1
2, 3
0, 4
2, 2
4, 7
3, 2
1, 3
5, 2
3, 2
4, 1
3, 4
2, 0
5, 5
5, 2
2, 3
4, 5
4, 3
3, 3
2, 4
3, 3
3, 3
0, 3
2, 6
1, 1
4, 4
4, 5
3, 0
3, 1
2, 2
2, 5
3, 2
3, 1
3, 3
5, 1
5, 1
2, 1
0, 0
2, 2
0, 1
3, 2
0, 4
4, 2
2, 4
3, 4
2, 3
0, 1
1, 3
3, 1
1, 1
2, 2
5, 1
2, 0
2, 2
1, 2
1, 2
3, 0
2, 6
2, 2
1, 5
3, 2
1, 0
4, 1
5, 2
5, 3
1, 2
6, 2
5, 3
7, 5
4, 3
4, 2
3, 1
3, 5
3, 3
5, 2
6, 2
2, 0
2, 1
3, 0
2, 2
3, 2
0, 1
0, 1
1, 2
1, 2
1, 1
1, 1
3, 0
2, 2
2, 1
2, 1
1, 0
1, 2
2, 3
3, 0
3, 2
0, 1
2, 2
5, 3
2, 3
0, 3
2, 2
0, 2
1, 1
1, 1
1, 1
1, 1
0, 3
2, 2
2, 2
1, 1
1, 1
1, 0
3, 0
0, 1
2, 0
0, 1
1, 1
0, 0
0, 1
3, 0
4, 0
1, 3
0, 2
1, 2
2, 4
2, 0
0, 4
2, 1
0, 0
0, 0
1, 1
1, 2
3, 0
1, 2
1, 1
1, 0
3, 1
0, 1
0, 0
0, 0
0, 1
2, 1
1, 0
1, 0
2, 2
2, 0
0, 0
0, 1
1, 1
3, 1
1, 1
0, 1
2, 0
1, 1
0, 0
0, 1
0, 1
2, 1
1, 1
0, 0
3, 0
0, 1
2, 0
0, 0
0, 2
2, 0
0, 1
0, 1
1, 0
1, 2
0, 1
1, 1
0, 1
2, 1
2, 0
1, 1
0, 0
0, 1
0, 0
0, 0
0, 1
1, 0
1, 0
3, 0
1, 1
0, 1
0, 0
1, 2
0, 2
2, 1
2, 0
1, 1
1, 1
0, 0
0, 0
1, 0
1, 2
0, 0
0, 1
2, 0
2, 1
0, 2
1, 2
0, 1
0, 0
0, 0
1, 0
2, 1
1, 0
1, 0
0, 0
0, 0
2, 0
0, 0
0, 0
1, 0
0, 1
0, 0
1, 0
0, 0
0, 0
1, 0
1, 0
0, 1
0, 1
1, 0
0, 0
0, 0
0, 1
0, 0
0, 0
0, 1
0, 0
1, 0
0, 0
0, 0
0, 2
1, 1
0, 0
0, 0
0, 0
0, 0
1, 0
1, 0
0, 1
0, 0
0, 1
0, 2
0, 0
0, 0
0, 1
1, 0
1, 0
1, 0
1, 0
2, 0
1, 0
0, 0
0, 0
0, 0
0, 0
0, 0
0, 0
1, 1
0, 1
0, 0
1, 0
0, 0
0, 1
0, 1
0, 0
0, 0
0, 0
0, 0
0, 0
0, 2
1, 1
1, 4
0, 0
0, 0
0, 0
0, 0
0, 0
0, 0
0, 0
0, 0
0, 1
0, 1
0, 0
0, 0
0, 1
1, 0
0, 0
0, 1
0, 0
1, 0
0, 1
0, 2
0, 0
0, 0
0, 0
0, 2
0, 0
1, 0
0, 0
0, 0
0, 0
1, 0
0, 0
0, 0
0, 0
0, 2
0, 1
0, 1
2, 1
0, 0
0, 1
0, 0
0, 0
0, 0
0, 0
1, 0
0, 0
2, 1
0, 0
0, 0
3, 0
1, 0
0, 0
0, 1
0, 0
0, 0
0, 0
0, 0
0, 1
0, 0
0, 0
0, 0
1, 0
0, 0
0, 0
0, 0
0, 0
1, 1
0, 0
0, 0
1, 0
1, 0
0, 0
0, 0
0, 0
1, 0
0, 0
0, 1
0, 0
0, 0
0, 0
0, 0
1, 0
0, 0
1, 0
0, 0
1, 0
0, 0
0, 0
0, 0
1, 0
0, 0
0, 0
0, 0
0, 0
0, 0
0, 0
0, 1
0, 0
0, 1
0, 0
0, 0
0, 1
0, 0
0, 0
0, 0
1, 0
1, 0
0, 0
0, 0
0, 0
0, 0
0, 0
1, 0
0, 0
1, 0
0, 0
0, 0
0, 0
0, 1
0, 0
0, 0
0, 1
0, 0
0, 0
0, 0
0, 0
0, 0
0, 0
0, 0
0, 0
0, 0
0, 0
0, 2
1, 0
0, 0
0, 0
0, 1
0, 0
0, 0
0, 0
0, 0
1, 0
0, 0
0, 0
0, 0
0, 0
0, 0
0, 1
0, 0
0, 0
0, 0
0, 0
0, 0
0, 0
0, 0
0, 0
0, 0
0, 0
0, 0
0, 0
0, 0
0, 0
0, 0
0, 0
0, 0
0, 0
0, 0
0, 0
0, 0
0, 0
0, 0
0, 0
0, 0
0, 0
0, 0
1, 0
1, 0
0, 0
0, 0
0, 0
0, 0
0, 0
0, 0
0, 0
0, 0
1, 0
0, 0
1, 0
0, 0
0, 0
0, 0
0, 0
0, 0
0, 0
0, 0
0, 0
0, 0
0, 0
0, 0
0, 0
0, 0
0, 0
1, 0
0, 0
0, 0
0, 0
1, 0
0, 0
0, 0
0, 0
0, 0
1, 0
0, 0
0, 0
0, 0
0, 0
0, 0
0, 0
0, 0
0, 0
1, 0
0, 0
0, 0
0, 0
0, 0
0, 0
0, 0
0, 0
0, 0
0, 0
0, 0
0, 0
0, 0
0, 0
0, 0
0, 0
0, 0
0, 0
0, 0
0, 0
0, 0
0, 0
0, 0
0, 0
0, 0
0, 0
0, 0
0, 0
0, 0
0, 0
0, 0
0, 0
0, 0
0, 0
0, 0
0, 0
0, 0
0, 0
0, 0
0, 0
0, 0
0, 0
0, 0
0, 0
0, 0
0, 0
0, 0
0, 0
0, 0
0, 0
0, 0
0, 0
0, 0
0, 0
0, 0
0, 0
0, 0
0, 0
0, 0
0, 0
0, 0
0, 0
0, 0
0, 0
0, 0
0, 0
0, 0
0, 0
0, 0
0, 0
0, 0
0, 0
0, 0
0, 0
0, 0
0, 0
0, 0
0, 0
0, 0
0, 0
0, 0
0, 0
0, 0
0, 0
0, 0
0, 0
0, 0
0, 0
0, 0
0, 0
0, 0
0, 0
0, 0
0, 0
0, 0
0, 0
0, 0
0, 0
0, 0
0, 0
0, 0
0, 0
0, 0
0, 0
0, 0
0, 0
0, 0
0, 0
0, 0
0, 0
0, 0
0, 0
0, 0
0, 0
0, 0
0, 0
0, 0
0, 0
0, 0
0, 0
1, 0
0, 0
0, 0
0, 0
0, 0
0, 0
0, 0
0, 0
0, 0
0, 0
0, 0
0, 0
0, 0
0, 0
0, 0
0, 0
0, 0
0, 0
0, 0
0, 0
0, 0
0, 0
0, 0
0, 0
0, 0
0, 0
0, 0
0, 0
0, 0
0, 0
0, 0
0, 0
0, 0
0, 0
0, 0
0, 0
0, 0
0, 0
0, 0
0, 0
0, 0
0, 0
0, 0
0, 0
0, 0
0, 0
0, 0
0, 0
0, 0
0, 0
0, 0
0, 0
0, 0
0, 0
0, 0
0, 0
0, 0
0, 0
0, 0
0, 0
0, 0
0, 0
0, 0
0, 0
0, 0
0, 0
0, 0
0, 0
0, 0
0, 0
0, 0
0, 0
0, 0
0, 0
0, 0
0, 0
0, 0
0, 0
0, 0
0, 0
0, 0
0, 0
0, 0
0, 0
0, 0
0, 0
0, 0
0, 0
0, 0
0, 0
0, 0
0, 0
0, 0
0, 0
0, 0
0, 0
0, 0
0, 0
0, 0
0, 0
0, 0
0, 0
0, 0
0, 0
0, 0
0, 0
0, 0
0, 0
0, 0
0, 0
0, 0
0, 0
0, 0
0, 0
0, 0
0, 0
0, 0
0, 0
0, 0
0, 0
0, 0
0, 0
0, 0
0, 0
0, 0
0, 0
0, 0
0, 0
0, 0
0, 0
0, 0
0, 0
0, 0
0, 0
0, 0
0, 0
0, 0
0, 0
0, 0
0, 0
0, 0
0, 0
0, 0
0, 0
0, 0
0, 0
0, 0
0, 0
0, 0
0, 0
0, 0
0, 0
0, 0
0, 0
0, 0
0, 0
0, 0
0, 0
0, 0
0, 0
0, 0
0, 0
0, 0
0, 0
0, 0
0, 0
0, 0
0, 0
0, 0
0, 0
0, 0
0, 0
0, 0
0, 0
0, 0
0, 0
0, 0
0, 0
0, 0
0, 0
0, 0
0, 0
0, 0
0, 0
0, 0
0, 0
0, 0
0, 0
0, 0
0, 0
0, 0
0, 0
0, 0
0, 0
0, 0
0, 0
0, 0
0, 0
0, 0
0, 0
0, 0
0, 0
0, 0
0, 0
0, 0
0, 0
0, 0
0, 0
0, 0
0, 0
0, 0
0, 0
0, 0
0, 0
0, 0
0, 0
0, 0
0, 0
0, 0
0, 0
0, 0
0, 0
0, 0
0, 0
0, 0
0, 0
0, 0
0, 0
0, 0
0, 0
0, 0
0, 0
0, 0
0, 0
0, 0
0, 0
0, 0
0, 0
0, 0
0, 0
0, 0
0, 0
0, 0
0, 0
0, 0
0, 0
0, 0
0, 0
0, 0
0, 0
0, 0
0, 0
0, 0
0, 0
0, 0
0, 0
0, 0
0, 0
0, 0
0, 0
0, 0
0, 0
0, 0
0, 0
0, 0
0, 0
0, 0
0, 0
0, 0
0, 0
0, 0
0, 0
0, 0
0, 0
#ENDOFDATA     end of spectrum data