File: host_upload/06-09-2024/ps_0852/dump3/ps__0852shot_2062.msa
#FORMAT      : EMSA/MAS spectral data file
#VERSION     : TC202v2.0 PIXL
#TITLE       : N/A
#DATE        :       Date in the format DD-MMM-YYYY, for example 07-JUL-2010
#TIME        :             The time of day at which the spectrum was recorded, in 24-hour format
#OWNER       : PIXL Flight Model       (PIXL will use this to indicate which instrument took the data.)
#NPOINTS     : 4096     Number of data points in the spectrum (This can be zero for configuration only files)
#NCOLUMNS    : 2     Number of data columns in the spectrum (This can be zero for configuration only files)
#XUNITS      : eV
#YUNITS      : COUNTS
#DATATYPE    : YY
#XPERCHAN    : 7.862, 7.881   eV per channel (separate by commas if more than one detector)
#OFFSET      : 18.5, -22.4         eV of first channel  (separate by commas if more than one detector
#SIGNALTYPE  : XRF
#YP_TEMP     : 2.171
#LIVETIME    : 8.5649, 8.3597   seconds (separate by commas if more than one detector)
#REALTIME    : 10, 10.0   seconds (separate by commas if more than one detector)
#SPECTRUM    : start of spectrum data
0, 0
0, 0
0, 0
0, 0
0, 0
0, 0
0, 0
0, 0
0, 0
0, 0
0, 0
0, 0
0, 0
0, 0
0, 0
0, 0
0, 0
0, 0
0, 0
0, 0
0, 0
0, 0
0, 0
0, 0
0, 0
0, 0
0, 0
0, 0
0, 0
0, 0
0, 0
0, 0
0, 0
0, 0
0, 0
0, 1
0, 0
0, 1
1, 1
1, 0
1, 0
1, 2
1, 1
2, 0
1, 1
0, 3
0, 1
3, 6
12, 8
12, 15
26, 29
41, 50
57, 63
85, 90
75, 73
70, 72
67, 52
67, 48
24, 18
17, 12
6, 8
4, 6
4, 4
3, 1
2, 7
2, 7
7, 1
8, 10
15, 27
56, 46
101, 88
170, 186
294, 281
357, 375
434, 411
372, 386
367, 363
285, 288
189, 211
132, 134
78, 74
39, 34
26, 11
8, 13
2, 2
1, 2
5, 4
3, 0
3, 2
1, 1
3, 0
0, 1
0, 1
0, 2
1, 1
1, 3
2, 2
3, 6
2, 3
4, 5
2, 5
4, 1
7, 4
4, 7
3, 0
4, 1
7, 4
10, 5
14, 5
12, 8
16, 11
23, 22
21, 22
32, 26
21, 20
31, 36
25, 33
20, 29
22, 19
25, 18
20, 18
26, 13
16, 16
15, 18
19, 15
13, 14
19, 11
11, 7
10, 11
5, 2
9, 5
6, 4
8, 0
2, 4
2, 1
2, 3
2, 3
1, 0
0, 3
2, 2
0, 0
5, 3
3, 0
1, 1
2, 3
1, 2
3, 0
2, 0
0, 4
1, 7
0, 4
2, 6
3, 3
3, 6
5, 14
11, 13
15, 13
16, 16
15, 21
12, 19
11, 13
10, 6
7, 5
6, 1
2, 4
5, 2
3, 1
2, 3
2, 4
2, 4
2, 2
2, 5
4, 8
4, 4
2, 1
2, 3
3, 2
6, 4
6, 5
6, 1
13, 4
15, 1
22, 6
16, 2
14, 4
26, 2
35, 2
23, 3
14, 3
15, 6
13, 4
11, 10
10, 4
12, 10
14, 9
8, 5
13, 7
16, 18
13, 17
16, 13
5, 12
5, 7
3, 12
5, 6
6, 6
6, 4
11, 4
15, 4
17, 3
21, 8
37, 8
36, 5
46, 2
46, 7
36, 5
45, 12
17, 7
23, 12
23, 12
12, 6
10, 7
13, 11
3, 16
10, 22
8, 19
15, 39
10, 48
9, 44
20, 62
12, 60
10, 74
12, 62
8, 67
12, 48
17, 32
15, 36
11, 33
11, 22
14, 11
20, 7
19, 9
11, 6
24, 9
30, 10
43, 17
41, 22
42, 27
55, 41
77, 55
92, 55
82, 59
90, 58
75, 55
63, 56
48, 41
28, 38
26, 21
29, 21
20, 18
22, 17
29, 21
28, 34
46, 53
96, 101
144, 205
263, 356
496, 580
702, 947
1083, 1331
1443, 1831
1879, 2166
2079, 2350
2316, 2445
2367, 2355
2031, 1967
1678, 1554
1296, 1172
916, 798
539, 521
344, 303
179, 156
104, 87
68, 42
31, 23
23, 23
19, 18
18, 12
15, 10
20, 20
16, 23
27, 17
29, 33
42, 54
59, 72
106, 115
129, 168
195, 253
289, 270
305, 342
333, 387
368, 347
325, 347
276, 276
262, 204
177, 163
152, 112
114, 56
54, 43
43, 26
14, 12
21, 2
9, 4
13, 8
25, 13
27, 15
28, 16
45, 12
52, 9
39, 20
49, 10
30, 8
33, 8
21, 4
24, 10
21, 6
6, 4
16, 4
9, 6
6, 0
8, 1
2, 7
2, 4
3, 6
3, 2
3, 4
7, 1
3, 7
2, 2
3, 2
3, 5
2, 5
4, 4
2, 4
11, 9
5, 5
5, 7
4, 1
4, 6
3, 3
12, 5
4, 11
3, 3
4, 4
5, 8
9, 4
5, 4
4, 0
5, 5
9, 6
6, 5
3, 5
6, 8
6, 1
1, 4
6, 5
9, 0
7, 7
9, 4
8, 0
10, 6
9, 6
3, 3
9, 1
2, 12
5, 8
1, 5
4, 9
5, 10
4, 12
2, 6
0, 6
8, 8
3, 8
5, 4
1, 7
6, 2
1, 0
4, 7
3, 1
5, 4
0, 4
4, 1
3, 7
2, 4
4, 2
5, 2
4, 2
2, 4
4, 4
5, 2
1, 2
3, 3
2, 4
2, 2
4, 2
2, 3
3, 3
4, 3
2, 2
2, 1
2, 5
2, 3
5, 1
0, 6
3, 3
3, 4
4, 4
3, 4
7, 7
0, 2
9, 1
4, 4
11, 1
3, 5
6, 1
2, 2
6, 4
8, 9
7, 5
11, 8
5, 7
7, 6
10, 4
3, 7
2, 6
9, 4
3, 6
1, 5
5, 7
2, 4
2, 5
1, 4
5, 6
1, 2
1, 4
2, 2
3, 2
2, 3
3, 3
2, 5
1, 2
1, 3
4, 6
1, 3
1, 3
1, 2
1, 6
1, 2
3, 4
4, 2
2, 3
2, 4
2, 2
1, 2
2, 1
5, 1
4, 4
3, 3
2, 6
2, 5
0, 4
1, 3
2, 3
1, 3
2, 6
4, 0
2, 3
4, 1
1, 3
6, 1
2, 0
0, 0
1, 3
1, 3
2, 2
2, 2
0, 2
4, 0
7, 1
6, 2
7, 0
3, 2
0, 1
3, 3
2, 1
2, 2
4, 1
3, 6
1, 1
2, 2
2, 4
3, 2
3, 3
5, 2
4, 1
0, 0
2, 3
3, 3
2, 3
4, 4
0, 5
1, 5
1, 0
1, 2
2, 2
4, 0
4, 0
3, 2
1, 3
1, 0
2, 0
3, 1
0, 1
4, 3
5, 3
2, 1
2, 5
3, 3
5, 1
3, 1
2, 3
3, 2
2, 2
6, 1
2, 3
2, 2
2, 1
5, 8
1, 2
1, 1
7, 7
4, 4
5, 6
5, 4
0, 8
3, 2
4, 6
4, 7
3, 5
4, 6
2, 2
2, 2
2, 5
0, 0
1, 3
0, 2
1, 5
6, 2
1, 0
3, 0
1, 1
2, 0
1, 1
0, 0
2, 3
1, 1
2, 1
6, 2
0, 0
1, 1
3, 4
2, 3
2, 0
3, 5
1, 3
1, 2
1, 2
0, 1
2, 1
2, 1
1, 0
0, 1
0, 0
1, 0
2, 5
1, 1
4, 1
0, 0
2, 0
1, 1
0, 1
0, 1
1, 1
2, 0
2, 0
0, 2
1, 1
0, 2
0, 1
2, 1
2, 0
1, 3
1, 2
0, 1
0, 1
0, 0
2, 1
0, 1
1, 1
3, 1
0, 0
0, 0
0, 2
1, 0
0, 1
1, 1
0, 0
0, 0
2, 0
0, 0
1, 1
0, 2
3, 1
1, 0
0, 1
0, 0
2, 0
0, 1
1, 0
1, 0
2, 0
0, 0
0, 1
1, 1
0, 0
0, 4
3, 0
0, 1
0, 0
0, 0
0, 0
0, 0
1, 1
1, 0
0, 0
2, 0
0, 0
0, 1
0, 0
0, 1
0, 1
0, 0
1, 0
0, 2
1, 0
0, 2
0, 1
1, 0
1, 1
0, 0
0, 0
0, 1
0, 1
0, 1
1, 1
0, 1
1, 0
1, 0
0, 0
0, 0
0, 0
0, 0
2, 0
0, 0
0, 0
0, 0
0, 0
2, 0
0, 1
0, 1
0, 0
1, 0
0, 1
0, 0
0, 1
0, 0
0, 0
1, 2
0, 0
0, 0
0, 0
1, 0
1, 0
0, 1
1, 1
0, 0
1, 1
1, 0
0, 0
0, 0
1, 0
1, 0
0, 0
0, 1
0, 0
1, 0
1, 0
0, 0
0, 0
0, 0
0, 0
1, 1
0, 0
0, 0
0, 0
1, 0
0, 1
1, 0
0, 2
0, 0
0, 0
0, 0
0, 0
0, 0
0, 0
0, 0
0, 0
1, 2
0, 1
0, 0
0, 0
0, 2
1, 0
0, 1
1, 0
0, 0
0, 0
1, 0
2, 1
0, 1
0, 0
0, 1
0, 0
2, 0
0, 1
0, 1
0, 0
0, 0
0, 0
0, 0
0, 0
0, 0
0, 0
1, 0
0, 2
1, 0
0, 0
0, 0
0, 0
0, 0
0, 0
0, 0
0, 0
0, 0
0, 0
0, 0
0, 0
0, 0
0, 0
0, 0
0, 0
1, 0
0, 0
0, 0
1, 1
0, 2
0, 0
0, 0
2, 0
0, 0
0, 1
0, 0
1, 0
0, 0
0, 0
0, 1
0, 0
1, 0
1, 0
0, 1
0, 0
2, 0
0, 0
0, 0
0, 0
0, 0
0, 0
0, 1
0, 0
0, 1
0, 0
1, 0
1, 0
0, 0
1, 0
0, 0
0, 0
1, 0
1, 0
0, 0
0, 0
0, 0
1, 0
0, 0
0, 0
0, 0
0, 1
0, 0
0, 0
0, 0
0, 0
0, 0
0, 0
0, 0
0, 0
0, 0
0, 0
0, 0
0, 0
1, 0
0, 0
0, 0
0, 0
0, 0
0, 0
0, 0
0, 1
0, 0
0, 0
0, 0
0, 0
0, 0
0, 0
0, 0
0, 0
0, 0
0, 0
1, 0
0, 0
0, 0
0, 0
0, 0
0, 0
0, 0
1, 0
0, 0
2, 0
1, 0
2, 0
0, 0
0, 0
1, 1
0, 1
0, 0
0, 0
0, 0
0, 0
0, 0
0, 0
0, 1
0, 0
0, 0
0, 0
0, 0
0, 0
0, 0
0, 0
0, 0
0, 0
0, 0
0, 0
0, 0
0, 0
0, 0
0, 0
0, 0
0, 0
1, 0
1, 0
0, 0
0, 0
0, 0
0, 0
0, 0
0, 0
0, 0
0, 0
0, 1
0, 0
0, 0
0, 0
0, 0
0, 0
0, 0
0, 0
0, 0
0, 0
0, 0
0, 1
0, 0
0, 0
0, 0
0, 1
0, 0
0, 0
0, 0
0, 0
0, 0
0, 0
0, 0
0, 0
0, 0
0, 1
0, 0
0, 0
0, 0
0, 0
0, 0
0, 0
0, 0
0, 0
0, 0
0, 0
1, 0
0, 1
0, 0
0, 0
0, 0
0, 0
0, 0
0, 0
0, 0
0, 0
0, 0
0, 0
0, 0
0, 0
0, 0
0, 0
0, 0
0, 0
0, 0
0, 0
1, 0
0, 0
0, 0
0, 0
0, 0
0, 0
0, 0
0, 0
0, 0
0, 0
0, 0
0, 0
0, 0
0, 0
0, 0
0, 0
0, 0
0, 0
0, 0
0, 0
0, 0
0, 0
0, 0
0, 0
0, 0
0, 0
1, 0
0, 0
0, 0
0, 0
0, 0
0, 0
0, 0
0, 0
0, 0
0, 0
0, 0
0, 0
0, 0
0, 0
0, 0
0, 0
0, 0
0, 0
0, 0
0, 0
0, 0
0, 0
0, 0
0, 0
0, 0
0, 0
0, 0
0, 0
0, 0
0, 0
0, 0
0, 0
0, 0
0, 0
0, 0
0, 0
0, 0
0, 0
0, 0
0, 0
0, 0
0, 0
0, 0
0, 0
0, 0
0, 0
0, 0
0, 0
0, 0
0, 0
0, 0
0, 0
0, 0
0, 0
0, 0
0, 0
0, 0
0, 0
0, 0
0, 0
0, 0
0, 0
0, 0
0, 0
0, 0
0, 0
0, 0
0, 0
0, 0
0, 0
0, 0
0, 0
0, 0
0, 0
0, 0
0, 0
0, 0
0, 0
0, 0
0, 0
0, 0
0, 0
0, 0
0, 0
0, 0
0, 0
0, 0
0, 0
0, 0
0, 0
0, 0
0, 0
0, 0
0, 0
0, 0
0, 0
0, 0
0, 0
0, 0
0, 0
0, 0
0, 0
0, 0
0, 0
0, 0
0, 0
0, 0
0, 0
0, 0
0, 0
0, 0
0, 0
0, 0
0, 0
0, 0
0, 0
0, 0
0, 0
0, 0
0, 0
0, 0
0, 0
0, 0
0, 0
0, 0
0, 0
0, 0
0, 0
0, 0
0, 0
0, 0
0, 0
0, 0
0, 0
0, 0
0, 0
0, 0
0, 0
0, 0
0, 0
0, 0
0, 0
0, 0
0, 0
0, 0
0, 0
0, 0
0, 0
0, 0
0, 0
0, 0
0, 0
0, 0
0, 0
0, 0
0, 0
0, 0
0, 0
0, 0
0, 0
0, 0
0, 0
0, 0
0, 0
0, 0
0, 0
0, 0
0, 0
0, 0
0, 0
0, 0
0, 0
0, 0
0, 0
0, 0
0, 0
0, 0
0, 0
0, 0
0, 0
0, 0
0, 0
0, 0
0, 0
0, 0
0, 0
0, 0
0, 0
0, 0
0, 0
0, 0
0, 0
0, 0
0, 0
0, 0
0, 0
0, 0
0, 0
0, 0
0, 0
0, 0
0, 0
0, 0
0, 0
0, 0
0, 0
0, 0
0, 0
0, 0
0, 0
0, 0
0, 0
0, 0
0, 0
0, 0
0, 0
0, 0
0, 0
0, 0
0, 0
0, 0
0, 0
0, 0
0, 0
0, 0
0, 0
0, 0
0, 0
0, 0
0, 0
0, 0
0, 0
0, 0
0, 0
0, 0
0, 0
0, 0
0, 0
0, 0
0, 0
0, 0
0, 0
0, 0
0, 0
0, 0
0, 0
0, 0
0, 0
0, 0
0, 0
0, 0
0, 0
0, 0
0, 0
0, 0
0, 0
0, 0
0, 0
0, 0
0, 0
0, 0
0, 0
0, 0
0, 0
0, 0
0, 0
0, 0
0, 0
0, 0
0, 0
0, 0
0, 0
0, 0
0, 0
0, 0
0, 0
0, 0
0, 0
0, 0
0, 0
0, 0
0, 0
0, 0
0, 0
0, 0
0, 0
0, 0
0, 0
0, 0
0, 0
0, 0
0, 0
0, 0
0, 0
0, 0
0, 0
0, 0
0, 0
0, 0
0, 0
0, 0
0, 0
0, 0
0, 0
0, 0
0, 0
0, 0
0, 0
0, 0
0, 0
0, 0
0, 0
0, 0
0, 0
0, 0
0, 0
0, 0
0, 0
0, 0
0, 0
0, 0
0, 0
0, 0
0, 0
0, 0
0, 0
0, 0
0, 0
0, 0
0, 0
0, 0
0, 0
0, 0
0, 0
0, 0
0, 0
0, 0
0, 0
0, 0
0, 0
0, 0
0, 0
0, 0
0, 0
0, 0
0, 0
0, 0
0, 0
0, 0
0, 0
0, 0
0, 0
0, 0
0, 0
0, 0
0, 0
0, 0
0, 0
0, 0
0, 0
0, 0
0, 0
0, 0
0, 0
0, 0
0, 0
0, 0
0, 0
0, 0
0, 0
0, 0
0, 0
0, 0
0, 0
0, 0
0, 0
0, 0
0, 0
0, 0
0, 0
0, 0
0, 0
0, 0
0, 0
0, 0
0, 0
0, 0
#ENDOFDATA     end of spectrum data