File: host_upload/06-09-2024/ps_0852/dump3/ps__0852shot_2397.msa
#FORMAT      : EMSA/MAS spectral data file
#VERSION     : TC202v2.0 PIXL
#TITLE       : N/A
#DATE        :       Date in the format DD-MMM-YYYY, for example 07-JUL-2010
#TIME        :             The time of day at which the spectrum was recorded, in 24-hour format
#OWNER       : PIXL Flight Model       (PIXL will use this to indicate which instrument took the data.)
#NPOINTS     : 4096     Number of data points in the spectrum (This can be zero for configuration only files)
#NCOLUMNS    : 2     Number of data columns in the spectrum (This can be zero for configuration only files)
#XUNITS      : eV
#YUNITS      : COUNTS
#DATATYPE    : YY
#XPERCHAN    : 7.862, 7.881   eV per channel (separate by commas if more than one detector)
#OFFSET      : 18.5, -22.4         eV of first channel  (separate by commas if more than one detector
#SIGNALTYPE  : XRF
#YP_TEMP     : 2.107
#LIVETIME    : 8.57781, 8.56642   seconds (separate by commas if more than one detector)
#REALTIME    : 10, 10.0   seconds (separate by commas if more than one detector)
#SPECTRUM    : start of spectrum data
0, 0
0, 0
0, 0
0, 0
0, 0
0, 0
0, 0
0, 0
0, 0
0, 0
0, 0
0, 0
0, 0
0, 0
0, 0
0, 0
0, 0
0, 0
0, 0
0, 0
0, 0
0, 0
0, 0
0, 0
0, 0
0, 0
0, 0
0, 0
0, 0
0, 0
0, 0
0, 1
0, 0
1, 0
0, 0
0, 2
1, 1
0, 3
1, 3
3, 4
1, 2
2, 9
3, 11
5, 4
1, 7
2, 1
6, 2
2, 3
4, 7
13, 11
25, 18
37, 44
50, 53
50, 78
73, 76
68, 68
57, 54
33, 34
21, 26
9, 21
7, 7
3, 3
1, 1
5, 4
5, 2
3, 5
3, 7
15, 14
14, 31
41, 61
93, 100
161, 206
261, 289
312, 417
378, 436
406, 402
351, 363
302, 307
196, 181
131, 142
63, 77
42, 26
18, 22
8, 6
2, 4
3, 5
3, 2
1, 0
3, 1
0, 0
3, 2
2, 3
2, 1
0, 1
0, 4
1, 2
3, 6
3, 4
4, 14
5, 5
6, 9
9, 4
3, 4
4, 4
4, 7
1, 6
6, 16
8, 23
16, 66
20, 100
23, 186
47, 317
51, 420
56, 527
66, 552
48, 616
40, 556
30, 495
31, 300
27, 187
30, 113
30, 54
29, 40
24, 29
15, 22
12, 17
8, 8
9, 23
9, 6
7, 12
9, 7
5, 3
7, 3
2, 1
4, 4
6, 3
6, 0
12, 1
9, 1
8, 2
4, 2
2, 4
4, 1
1, 2
3, 2
0, 2
1, 2
1, 1
4, 3
3, 3
3, 4
4, 3
7, 8
6, 6
5, 8
6, 15
18, 10
9, 19
16, 11
13, 14
11, 10
10, 14
5, 4
4, 9
4, 6
3, 2
6, 5
4, 3
5, 1
3, 8
6, 6
5, 6
9, 5
6, 5
5, 7
8, 7
7, 14
12, 13
8, 19
18, 18
17, 17
18, 21
23, 22
19, 16
17, 4
20, 5
13, 5
15, 7
7, 6
7, 17
10, 12
9, 4
6, 13
15, 9
9, 16
8, 14
8, 19
15, 20
19, 13
26, 22
35, 14
23, 12
29, 9
47, 8
55, 4
61, 9
77, 7
53, 4
52, 6
41, 12
23, 9
20, 2
17, 12
19, 8
8, 11
3, 11
5, 7
2, 6
9, 12
9, 10
3, 24
7, 39
4, 36
6, 48
7, 50
9, 52
17, 66
9, 56
11, 38
13, 39
10, 24
13, 22
15, 22
18, 11
10, 19
15, 8
13, 8
18, 5
15, 3
17, 2
17, 10
13, 9
11, 18
13, 15
12, 15
24, 34
24, 32
28, 48
42, 58
54, 55
67, 76
50, 59
66, 57
48, 38
40, 39
22, 23
30, 25
25, 16
14, 15
13, 17
19, 14
24, 29
53, 50
72, 90
147, 184
254, 397
501, 624
700, 975
1088, 1434
1474, 1829
1931, 2257
2180, 2416
2285, 2500
2289, 2346
2044, 1962
1661, 1571
1275, 1122
810, 768
567, 459
318, 267
171, 140
99, 68
52, 55
22, 23
17, 21
14, 23
15, 22
12, 10
16, 17
15, 27
26, 26
22, 30
51, 79
56, 79
101, 131
127, 202
199, 216
261, 309
297, 379
313, 342
330, 373
322, 343
297, 310
262, 240
163, 169
144, 112
76, 87
43, 34
30, 19
18, 15
8, 8
7, 5
4, 11
7, 12
11, 7
6, 12
7, 12
11, 21
8, 18
10, 8
8, 12
7, 10
13, 7
7, 9
11, 8
3, 4
2, 3
3, 4
3, 3
3, 3
3, 5
7, 7
4, 12
3, 7
6, 13
5, 11
6, 14
6, 15
11, 18
8, 14
11, 22
14, 21
9, 16
14, 18
8, 16
6, 7
13, 12
8, 5
2, 6
10, 6
3, 2
6, 4
3, 2
4, 7
5, 4
3, 9
5, 7
4, 7
4, 2
5, 5
3, 3
6, 4
3, 3
10, 2
2, 0
2, 1
8, 3
4, 4
5, 3
4, 9
3, 3
6, 1
8, 3
5, 5
4, 3
5, 3
5, 3
2, 2
4, 4
2, 5
2, 2
3, 3
4, 2
1, 1
4, 8
5, 5
3, 3
2, 17
1, 11
3, 8
4, 16
5, 16
2, 19
2, 10
0, 12
4, 14
3, 14
3, 20
3, 14
1, 17
3, 4
6, 8
10, 3
4, 4
1, 6
5, 4
3, 3
5, 3
2, 5
1, 3
4, 3
3, 5
5, 5
3, 5
1, 4
6, 2
5, 4
1, 0
5, 4
5, 3
2, 1
8, 7
5, 3
16, 4
24, 2
17, 2
16, 3
14, 7
13, 4
9, 3
6, 3
11, 1
6, 1
0, 0
2, 2
5, 3
2, 5
1, 1
4, 5
3, 4
4, 5
5, 6
2, 3
5, 6
5, 3
5, 2
4, 6
1, 6
6, 7
2, 7
3, 6
2, 5
2, 6
1, 5
4, 8
2, 8
4, 4
2, 4
5, 4
2, 2
4, 3
0, 1
1, 4
0, 3
1, 1
5, 4
1, 1
4, 2
1, 3
1, 2
6, 1
0, 9
2, 4
1, 4
2, 2
3, 0
3, 1
0, 4
3, 3
4, 3
2, 2
0, 3
2, 1
0, 0
0, 4
2, 5
1, 1
4, 4
0, 2
2, 2
1, 2
0, 4
2, 2
1, 1
2, 1
2, 1
4, 1
1, 2
2, 3
1, 5
3, 4
2, 3
0, 6
1, 3
2, 8
0, 5
1, 6
1, 7
1, 6
5, 2
2, 4
2, 5
0, 2
1, 3
1, 1
5, 5
0, 2
1, 1
3, 0
5, 2
3, 2
0, 3
6, 0
1, 1
4, 2
7, 3
3, 0
1, 1
3, 5
8, 2
3, 1
4, 0
4, 2
2, 2
1, 0
2, 0
1, 1
3, 3
2, 1
1, 6
3, 5
5, 3
7, 2
1, 3
5, 3
3, 4
4, 5
5, 3
2, 0
3, 3
2, 2
2, 3
3, 0
3, 3
0, 2
0, 2
7, 1
0, 0
1, 2
3, 1
1, 2
2, 3
1, 0
1, 2
1, 0
1, 1
3, 2
3, 2
1, 1
0, 1
2, 0
1, 1
3, 1
1, 2
1, 1
1, 1
1, 1
0, 0
1, 2
1, 1
0, 0
2, 1
1, 1
1, 1
1, 2
0, 1
0, 2
3, 1
0, 0
2, 1
1, 2
1, 1
1, 0
1, 0
0, 0
3, 1
0, 2
0, 0
1, 1
0, 0
1, 0
0, 1
0, 1
1, 2
0, 2
1, 1
1, 2
1, 0
2, 1
1, 0
0, 1
0, 2
1, 0
0, 1
1, 0
0, 1
0, 2
0, 1
2, 0
0, 1
2, 1
0, 0
0, 0
2, 0
0, 0
0, 0
0, 1
0, 0
0, 2
1, 2
0, 0
1, 0
2, 2
2, 0
0, 2
0, 0
0, 0
0, 1
0, 1
2, 0
1, 0
0, 0
0, 0
0, 1
1, 1
3, 0
1, 0
0, 0
0, 1
0, 0
0, 1
1, 2
0, 0
1, 0
0, 0
0, 1
0, 0
1, 0
1, 0
0, 0
3, 3
1, 0
0, 0
0, 1
2, 1
0, 1
2, 2
0, 1
1, 0
0, 1
0, 1
0, 1
0, 0
0, 0
1, 0
0, 2
0, 0
0, 0
0, 1
0, 1
0, 0
1, 0
0, 0
1, 0
1, 0
0, 0
0, 1
0, 1
0, 0
0, 0
1, 0
0, 1
0, 0
1, 0
2, 0
2, 1
0, 1
0, 1
0, 0
0, 0
3, 0
0, 0
0, 1
0, 0
0, 1
0, 0
0, 0
2, 0
0, 0
0, 0
0, 0
0, 0
0, 0
0, 0
0, 2
0, 0
0, 0
0, 0
0, 0
0, 1
0, 0
1, 1
0, 1
0, 0
0, 2
0, 0
0, 0
0, 0
0, 0
0, 0
0, 0
0, 1
0, 0
0, 0
0, 0
0, 1
0, 0
0, 0
1, 0
0, 0
0, 0
0, 0
0, 0
0, 0
0, 0
0, 0
0, 0
0, 1
0, 0
0, 0
1, 0
0, 0
0, 0
0, 1
0, 1
0, 0
0, 1
0, 0
0, 1
0, 0
0, 0
1, 0
1, 0
1, 0
0, 1
1, 0
0, 2
1, 0
0, 0
1, 0
2, 0
0, 0
0, 0
0, 0
1, 0
0, 0
0, 1
0, 0
0, 0
0, 0
0, 0
0, 0
0, 2
0, 0
0, 0
0, 0
1, 1
0, 0
1, 0
0, 0
0, 1
0, 1
1, 0
1, 1
0, 0
0, 1
2, 0
0, 0
0, 1
0, 1
0, 0
0, 2
0, 0
0, 0
0, 0
0, 0
0, 0
0, 1
0, 0
0, 0
0, 0
0, 0
0, 0
0, 0
0, 0
0, 0
1, 0
1, 0
0, 0
0, 1
0, 0
0, 0
0, 0
0, 0
0, 0
0, 1
0, 1
0, 0
0, 0
0, 0
0, 0
0, 0
0, 1
0, 0
0, 0
0, 0
0, 0
0, 0
0, 0
0, 0
0, 1
0, 0
0, 0
0, 0
0, 1
0, 0
0, 0
0, 0
0, 0
0, 0
0, 0
0, 0
0, 0
0, 0
0, 0
0, 0
0, 0
0, 0
0, 0
0, 0
0, 0
0, 0
0, 0
0, 1
0, 0
0, 0
0, 0
0, 0
0, 0
0, 0
0, 0
0, 0
1, 0
1, 0
0, 0
0, 0
0, 0
0, 0
0, 0
0, 0
0, 0
0, 0
0, 0
1, 0
0, 0
0, 0
0, 0
0, 0
0, 0
0, 0
0, 0
0, 1
0, 0
0, 0
0, 0
0, 0
0, 0
0, 0
0, 0
0, 0
0, 0
0, 0
0, 0
0, 0
0, 0
0, 0
0, 0
0, 0
0, 0
0, 0
0, 1
0, 0
0, 0
0, 0
0, 0
0, 0
1, 0
0, 0
0, 0
0, 0
0, 1
0, 0
0, 0
0, 0
0, 0
1, 0
0, 0
0, 0
0, 0
0, 0
0, 0
0, 0
0, 0
0, 0
0, 0
0, 0
0, 0
0, 0
0, 0
0, 0
0, 0
0, 0
0, 0
0, 0
0, 0
0, 0
0, 0
0, 0
0, 0
0, 0
0, 0
0, 0
0, 0
0, 0
0, 0
0, 0
0, 0
1, 0
1, 0
0, 0
0, 0
0, 0
0, 0
0, 0
0, 0
0, 0
0, 0
0, 0
0, 0
0, 0
0, 0
0, 0
0, 0
0, 0
0, 0
0, 0
0, 0
0, 0
0, 0
0, 0
0, 0
0, 0
0, 0
0, 0
0, 0
0, 0
0, 0
0, 0
0, 0
0, 0
0, 0
0, 0
0, 0
0, 0
0, 0
0, 0
0, 0
0, 0
0, 0
0, 1
0, 0
0, 0
0, 0
0, 0
0, 0
0, 0
0, 0
0, 0
0, 0
0, 0
0, 0
0, 0
0, 0
0, 0
0, 0
0, 0
0, 0
0, 0
0, 0
0, 0
0, 0
0, 0
0, 0
0, 0
0, 0
0, 0
0, 0
0, 0
0, 0
0, 0
0, 0
0, 0
0, 0
0, 0
0, 0
0, 0
0, 0
0, 0
0, 0
0, 0
0, 0
0, 0
0, 0
0, 0
0, 0
0, 0
0, 0
0, 0
0, 0
0, 0
0, 0
0, 0
0, 0
0, 0
0, 0
0, 0
0, 0
0, 0
0, 0
0, 0
0, 0
0, 0
0, 0
0, 0
0, 0
0, 0
0, 0
0, 0
0, 0
0, 0
0, 0
0, 0
0, 0
0, 0
0, 0
0, 0
0, 0
0, 0
0, 0
0, 0
0, 0
0, 0
0, 0
0, 0
0, 0
0, 0
0, 0
0, 0
0, 0
0, 0
0, 0
0, 0
0, 0
0, 0
0, 0
0, 0
0, 0
0, 0
0, 0
0, 0
0, 0
0, 0
0, 0
0, 0
0, 0
0, 0
0, 0
0, 0
0, 0
0, 0
0, 0
0, 0
0, 0
0, 0
0, 0
0, 0
0, 0
0, 0
0, 0
0, 0
0, 0
0, 0
0, 0
0, 0
0, 0
0, 0
0, 0
0, 0
0, 0
0, 0
0, 0
0, 0
0, 0
0, 0
0, 0
0, 0
0, 0
0, 0
0, 0
0, 0
0, 0
1, 0
0, 0
0, 0
0, 0
0, 0
0, 0
0, 0
0, 0
0, 0
0, 0
0, 0
0, 0
0, 0
0, 0
0, 0
0, 0
0, 0
0, 0
0, 0
0, 0
0, 0
0, 0
0, 0
0, 0
0, 0
0, 0
0, 0
0, 0
0, 0
0, 0
0, 0
0, 0
0, 0
0, 0
0, 0
0, 0
0, 0
0, 0
0, 0
0, 0
0, 0
0, 0
0, 0
0, 0
0, 0
0, 0
0, 0
0, 0
0, 0
0, 0
0, 0
0, 0
0, 0
0, 0
0, 0
0, 0
0, 0
0, 0
0, 0
0, 0
0, 0
0, 0
0, 0
0, 0
0, 0
0, 0
0, 0
0, 0
0, 0
0, 0
0, 0
0, 0
0, 0
0, 0
0, 0
0, 0
0, 0
0, 0
0, 0
0, 0
0, 0
0, 0
0, 0
0, 0
0, 0
0, 0
0, 0
0, 0
0, 0
0, 0
0, 0
0, 0
0, 0
0, 0
0, 0
0, 0
0, 0
0, 0
0, 0
0, 0
0, 0
0, 0
0, 0
0, 0
0, 0
0, 0
0, 0
0, 0
0, 0
0, 0
0, 0
0, 0
0, 0
0, 0
0, 0
0, 0
0, 0
0, 0
0, 0
0, 0
0, 0
0, 0
0, 0
0, 0
0, 0
0, 0
0, 0
0, 0
0, 0
0, 0
0, 0
0, 0
0, 0
0, 0
0, 0
0, 0
0, 0
0, 0
0, 0
0, 0
0, 0
0, 0
0, 0
0, 0
0, 0
0, 0
0, 0
0, 0
0, 0
0, 0
0, 0
0, 0
0, 0
0, 0
0, 0
0, 0
0, 0
0, 0
0, 0
0, 0
0, 0
0, 0
0, 0
0, 0
0, 0
0, 0
0, 0
0, 0
0, 0
0, 0
0, 0
0, 0
0, 0
0, 0
0, 0
0, 0
0, 0
0, 0
0, 0
0, 0
0, 0
0, 0
0, 0
0, 0
0, 0
0, 0
0, 0
0, 0
0, 0
0, 0
0, 0
0, 0
0, 0
0, 0
0, 0
0, 0
0, 0
0, 0
0, 0
0, 0
0, 0
0, 0
0, 0
0, 0
0, 0
0, 0
0, 0
0, 0
0, 0
0, 0
0, 0
0, 0
0, 0
0, 0
0, 0
0, 0
0, 0
0, 0
0, 0
0, 0
0, 0
0, 0
0, 0
0, 0
0, 0
#ENDOFDATA     end of spectrum data