File: host_upload/06-09-2024/ps_0852/dump3/ps__0852shot_2469.msa
#FORMAT      : EMSA/MAS spectral data file
#VERSION     : TC202v2.0 PIXL
#TITLE       : N/A
#DATE        :       Date in the format DD-MMM-YYYY, for example 07-JUL-2010
#TIME        :             The time of day at which the spectrum was recorded, in 24-hour format
#OWNER       : PIXL Flight Model       (PIXL will use this to indicate which instrument took the data.)
#NPOINTS     : 4096     Number of data points in the spectrum (This can be zero for configuration only files)
#NCOLUMNS    : 2     Number of data columns in the spectrum (This can be zero for configuration only files)
#XUNITS      : eV
#YUNITS      : COUNTS
#DATATYPE    : YY
#XPERCHAN    : 7.862, 7.881   eV per channel (separate by commas if more than one detector)
#OFFSET      : 18.5, -22.4         eV of first channel  (separate by commas if more than one detector
#SIGNALTYPE  : XRF
#YP_TEMP     : 2.396
#LIVETIME    : 8.54349, 8.5638   seconds (separate by commas if more than one detector)
#REALTIME    : 10, 10.0   seconds (separate by commas if more than one detector)
#SPECTRUM    : start of spectrum data
0, 0
0, 0
0, 0
0, 0
0, 0
0, 0
0, 0
0, 0
0, 0
0, 0
0, 0
0, 0
0, 0
0, 0
0, 0
0, 0
0, 0
0, 0
0, 0
0, 0
0, 0
0, 0
0, 0
0, 0
0, 0
0, 0
0, 0
0, 0
0, 0
0, 0
0, 0
0, 0
0, 0
0, 0
0, 0
0, 1
1, 0
0, 1
1, 0
3, 1
2, 1
3, 2
0, 4
4, 4
0, 4
2, 2
1, 2
0, 4
2, 9
7, 11
20, 19
22, 45
57, 66
43, 83
67, 91
62, 94
53, 67
32, 51
23, 21
15, 17
6, 11
5, 7
3, 1
2, 3
4, 6
6, 6
6, 3
5, 12
18, 19
36, 55
78, 90
119, 160
186, 263
268, 340
316, 423
336, 427
291, 346
210, 262
194, 175
103, 111
51, 67
21, 23
15, 20
6, 9
7, 5
5, 5
1, 5
5, 3
1, 7
1, 4
3, 0
8, 7
8, 7
22, 31
43, 41
63, 93
96, 128
153, 172
183, 189
140, 177
150, 160
123, 137
94, 109
61, 61
35, 38
26, 39
20, 27
18, 28
21, 24
20, 22
18, 36
27, 40
46, 58
44, 44
64, 71
50, 69
47, 61
51, 54
37, 37
34, 33
19, 32
21, 28
28, 19
21, 16
18, 22
20, 25
11, 14
14, 10
5, 7
10, 11
3, 6
5, 3
4, 0
3, 5
2, 1
2, 3
4, 3
1, 2
3, 2
4, 6
4, 6
6, 10
8, 5
1, 2
6, 3
2, 5
7, 2
4, 4
1, 1
1, 3
3, 7
7, 6
6, 8
13, 8
15, 12
14, 17
6, 19
17, 19
12, 13
12, 16
17, 9
6, 14
3, 5
4, 7
7, 5
3, 1
2, 5
4, 5
3, 2
7, 6
8, 8
7, 6
6, 4
7, 8
5, 8
6, 6
2, 6
3, 13
3, 15
0, 12
3, 5
4, 8
7, 6
2, 8
3, 5
0, 6
4, 5
8, 19
9, 7
5, 14
6, 16
7, 17
13, 18
16, 12
7, 13
13, 22
12, 21
11, 28
16, 25
12, 8
18, 12
10, 16
5, 11
5, 21
7, 18
5, 26
0, 40
4, 52
7, 70
8, 69
4, 79
5, 94
1, 84
4, 73
3, 51
5, 46
9, 33
3, 20
8, 13
6, 15
3, 5
6, 11
13, 6
2, 8
11, 6
13, 5
16, 16
24, 9
20, 13
24, 18
26, 16
42, 14
34, 10
16, 6
27, 7
15, 14
9, 10
8, 11
12, 10
7, 11
5, 8
9, 6
7, 7
5, 11
11, 22
19, 31
14, 26
21, 39
49, 56
45, 72
58, 71
51, 74
59, 66
51, 67
41, 42
41, 32
37, 25
14, 17
19, 21
17, 17
13, 19
31, 38
42, 57
73, 108
120, 200
258, 374
416, 702
676, 1030
968, 1499
1408, 1871
1676, 2264
2081, 2649
2214, 2742
2148, 2557
1968, 2115
1699, 1698
1279, 1223
913, 795
616, 463
412, 314
245, 156
129, 87
68, 45
55, 31
20, 20
18, 25
19, 18
13, 22
17, 20
14, 20
17, 27
34, 37
35, 54
60, 90
116, 129
140, 191
178, 266
224, 354
302, 371
305, 363
306, 363
300, 351
259, 282
229, 242
180, 184
113, 100
78, 84
49, 38
22, 24
23, 14
6, 12
6, 7
7, 16
2, 20
12, 20
15, 22
13, 31
16, 32
13, 23
14, 34
16, 15
5, 14
7, 18
8, 12
2, 7
6, 9
6, 3
8, 3
3, 4
4, 2
5, 2
4, 3
4, 5
3, 1
6, 2
5, 4
1, 4
2, 5
3, 6
6, 4
3, 4
2, 2
4, 6
2, 8
7, 2
6, 8
4, 5
8, 9
6, 11
6, 9
5, 4
5, 7
2, 10
4, 12
2, 11
5, 10
3, 7
4, 10
4, 5
3, 3
7, 8
4, 4
2, 2
5, 2
3, 5
6, 4
3, 10
7, 5
3, 5
8, 4
5, 3
5, 3
6, 5
6, 5
3, 4
6, 4
2, 3
2, 4
2, 6
5, 3
6, 4
4, 6
2, 2
3, 2
1, 12
3, 5
5, 7
5, 7
3, 6
3, 6
5, 6
6, 1
3, 4
7, 3
3, 4
2, 5
2, 3
0, 3
10, 1
6, 5
1, 6
2, 5
4, 8
3, 8
4, 6
6, 3
2, 6
4, 6
2, 2
4, 6
2, 5
1, 7
8, 6
5, 5
6, 13
5, 6
8, 20
5, 13
5, 12
5, 18
3, 12
3, 20
4, 15
5, 12
4, 10
4, 7
4, 9
3, 4
3, 6
6, 7
3, 3
2, 1
0, 1
0, 4
2, 3
1, 2
2, 2
3, 0
1, 1
1, 5
0, 6
3, 1
3, 6
2, 2
2, 3
1, 4
2, 1
4, 3
1, 3
2, 2
2, 1
4, 5
1, 1
9, 3
3, 1
3, 4
5, 2
7, 3
5, 4
7, 2
1, 1
8, 1
5, 2
10, 1
10, 3
6, 1
10, 4
7, 2
3, 1
1, 2
3, 5
6, 2
5, 1
3, 2
4, 4
0, 6
3, 1
3, 1
2, 1
2, 3
5, 1
3, 3
1, 4
4, 1
2, 0
0, 2
1, 4
4, 5
3, 5
0, 1
2, 2
2, 5
3, 4
1, 5
3, 2
1, 3
1, 3
2, 2
5, 1
2, 0
1, 2
1, 1
0, 3
2, 1
3, 5
1, 2
4, 1
2, 2
2, 1
3, 1
0, 1
0, 3
2, 2
0, 2
0, 2
0, 5
4, 4
0, 3
3, 1
1, 5
1, 3
3, 4
4, 3
1, 3
1, 2
1, 0
2, 1
2, 0
3, 1
2, 3
2, 0
3, 3
5, 2
0, 4
1, 0
2, 0
0, 5
1, 3
3, 2
2, 4
2, 2
1, 3
5, 7
4, 3
5, 6
2, 5
0, 7
3, 1
1, 4
2, 3
2, 0
2, 3
2, 2
2, 2
5, 1
2, 0
1, 1
0, 2
2, 1
3, 6
1, 3
0, 3
1, 2
2, 0
2, 1
1, 2
1, 2
1, 1
4, 4
2, 0
1, 2
2, 2
0, 4
2, 3
0, 3
0, 1
2, 1
2, 2
2, 0
0, 2
1, 3
0, 0
1, 2
1, 1
1, 0
0, 3
0, 2
0, 2
0, 0
0, 1
1, 1
1, 1
1, 0
2, 1
0, 1
0, 1
0, 3
0, 0
0, 1
1, 0
1, 3
1, 1
0, 2
0, 0
0, 0
5, 2
1, 2
1, 1
0, 0
1, 1
2, 0
0, 0
1, 0
1, 0
0, 1
0, 2
0, 1
3, 1
0, 0
2, 0
0, 1
1, 2
1, 1
2, 0
1, 0
1, 0
1, 0
3, 0
2, 1
1, 2
0, 0
0, 0
1, 0
1, 0
3, 1
2, 0
0, 0
0, 1
1, 2
1, 0
1, 2
0, 1
0, 0
0, 0
1, 1
1, 1
1, 0
1, 0
0, 0
0, 0
1, 1
0, 0
2, 1
2, 1
2, 1
1, 2
2, 1
3, 2
0, 1
3, 2
0, 1
1, 3
1, 0
0, 1
0, 0
0, 1
0, 1
0, 1
0, 0
0, 0
1, 0
0, 0
0, 0
0, 2
0, 1
2, 0
0, 1
0, 1
0, 1
0, 0
2, 1
0, 0
0, 0
0, 1
0, 0
1, 0
0, 0
0, 0
0, 0
1, 1
0, 1
0, 1
2, 1
0, 0
1, 1
1, 0
1, 1
0, 0
0, 2
0, 0
2, 0
1, 0
0, 1
0, 2
0, 0
0, 0
1, 2
2, 1
0, 0
1, 0
1, 0
0, 0
0, 1
0, 0
1, 0
0, 0
0, 1
0, 0
0, 0
0, 0
0, 0
0, 0
0, 1
0, 0
1, 0
0, 0
0, 0
2, 0
0, 0
0, 0
1, 0
0, 0
0, 1
0, 1
2, 0
1, 0
0, 0
0, 1
0, 2
1, 1
0, 0
1, 0
1, 2
0, 1
1, 1
1, 0
0, 1
0, 1
0, 0
1, 0
0, 1
1, 0
0, 0
0, 0
0, 0
0, 0
0, 0
0, 0
0, 0
0, 0
0, 0
0, 1
0, 0
1, 0
0, 0
0, 1
0, 1
0, 0
1, 0
0, 0
1, 0
0, 0
1, 0
0, 1
0, 1
0, 0
0, 0
0, 0
0, 1
0, 0
0, 0
0, 1
0, 1
0, 0
1, 0
0, 0
0, 0
0, 0
0, 0
1, 0
0, 0
0, 0
0, 1
1, 1
0, 0
0, 0
0, 0
1, 0
0, 0
0, 1
0, 0
0, 0
1, 1
0, 0
0, 0
0, 0
0, 0
0, 0
0, 0
0, 1
0, 0
0, 0
0, 0
0, 1
0, 0
0, 0
0, 0
0, 1
1, 0
0, 0
0, 1
0, 1
0, 0
0, 0
0, 0
0, 0
0, 0
0, 0
0, 0
1, 0
0, 1
0, 0
0, 0
0, 0
0, 0
0, 1
0, 0
0, 0
0, 1
0, 0
0, 0
0, 0
0, 0
0, 0
0, 0
0, 0
0, 0
1, 0
0, 0
0, 0
0, 1
0, 0
0, 0
1, 0
0, 0
0, 0
0, 1
0, 1
0, 0
0, 0
0, 0
0, 0
0, 0
1, 1
0, 0
0, 0
0, 0
0, 0
1, 0
0, 0
0, 0
0, 0
0, 0
0, 0
0, 0
0, 0
0, 0
0, 0
0, 0
0, 0
0, 0
0, 0
0, 0
0, 0
0, 0
0, 1
0, 0
1, 0
0, 0
0, 0
0, 0
0, 0
0, 0
0, 0
0, 0
0, 0
0, 0
0, 0
0, 0
0, 0
2, 0
0, 0
1, 0
0, 0
0, 0
0, 0
0, 0
0, 0
0, 0
0, 0
1, 0
0, 0
0, 0
0, 0
0, 0
0, 0
0, 0
0, 0
0, 0
0, 0
0, 0
0, 0
0, 0
0, 0
0, 0
0, 0
0, 0
0, 0
0, 0
0, 0
0, 0
0, 0
0, 0
0, 0
0, 0
0, 0
0, 0
0, 0
0, 0
0, 0
0, 0
0, 0
0, 0
0, 0
1, 0
0, 0
1, 0
0, 0
0, 0
0, 0
0, 0
0, 0
0, 0
0, 0
0, 0
0, 1
0, 0
0, 0
0, 0
0, 0
0, 0
0, 0
0, 0
0, 0
0, 0
0, 0
0, 0
0, 0
0, 0
0, 0
0, 0
0, 0
0, 0
0, 0
0, 0
0, 0
0, 0
0, 0
0, 0
0, 0
0, 0
0, 0
0, 0
0, 0
0, 0
0, 0
0, 0
0, 0
0, 0
0, 0
0, 0
0, 0
0, 0
0, 0
0, 0
0, 0
0, 0
0, 0
0, 0
0, 0
0, 0
0, 0
0, 0
0, 0
0, 0
0, 0
0, 0
0, 0
0, 0
0, 0
0, 0
0, 0
0, 0
0, 0
0, 0
0, 0
0, 0
0, 0
0, 0
0, 0
0, 0
0, 0
0, 0
0, 0
0, 0
0, 0
0, 0
0, 0
0, 0
0, 0
0, 0
0, 0
0, 0
0, 0
0, 0
0, 0
0, 0
0, 0
0, 0
0, 0
0, 0
0, 0
0, 0
0, 0
0, 0
0, 0
0, 0
0, 0
0, 0
0, 0
0, 0
0, 0
0, 0
0, 0
0, 0
0, 0
0, 0
0, 0
0, 0
0, 0
0, 0
0, 0
0, 0
0, 0
0, 0
0, 0
0, 0
0, 0
0, 0
0, 0
0, 0
0, 0
0, 0
0, 0
0, 0
0, 0
0, 0
0, 0
0, 0
0, 0
0, 0
0, 0
0, 0
0, 0
0, 0
0, 0
0, 0
0, 0
0, 0
0, 0
0, 0
0, 0
0, 0
0, 0
0, 0
0, 0
0, 0
0, 0
0, 0
0, 0
0, 0
0, 0
0, 0
0, 0
0, 0
0, 0
0, 0
0, 0
0, 0
0, 0
0, 0
0, 0
0, 0
0, 0
0, 0
0, 0
0, 0
0, 0
0, 0
0, 0
0, 0
0, 0
0, 0
0, 0
0, 0
0, 0
0, 0
0, 0
0, 0
0, 0
0, 0
0, 0
0, 0
0, 0
0, 0
0, 0
0, 0
0, 0
0, 0
0, 0
0, 0
0, 0
0, 0
0, 0
0, 0
0, 0
0, 0
0, 0
0, 0
0, 0
0, 0
0, 0
0, 0
0, 0
0, 0
0, 0
0, 0
0, 0
0, 0
0, 0
0, 0
0, 0
0, 0
0, 0
0, 0
0, 0
0, 0
0, 0
0, 0
0, 0
0, 0
0, 0
0, 0
0, 0
0, 0
0, 0
0, 0
0, 0
0, 0
0, 0
0, 0
0, 0
0, 0
0, 0
0, 0
0, 0
0, 0
0, 0
0, 0
0, 0
0, 0
0, 0
0, 0
0, 0
0, 0
0, 0
0, 0
0, 0
0, 0
0, 0
0, 0
0, 0
0, 0
0, 0
0, 0
0, 0
0, 0
0, 0
0, 0
0, 0
0, 0
0, 0
0, 0
0, 0
0, 0
0, 0
0, 0
0, 0
0, 0
0, 0
0, 0
0, 0
0, 0
0, 0
0, 0
0, 0
0, 0
0, 0
0, 0
0, 0
0, 0
0, 0
0, 0
0, 0
0, 0
0, 0
0, 0
0, 0
0, 0
0, 0
0, 0
0, 0
0, 0
0, 0
0, 0
0, 0
0, 0
0, 0
0, 0
0, 0
0, 0
0, 0
0, 0
0, 0
0, 0
0, 0
0, 0
0, 0
0, 0
0, 0
0, 0
0, 0
0, 0
0, 0
0, 0
0, 0
0, 0
0, 0
0, 0
0, 0
0, 0
0, 0
0, 0
0, 0
0, 0
0, 0
0, 0
0, 0
0, 0
0, 0
0, 0
0, 0
0, 0
0, 0
0, 0
0, 0
0, 0
0, 0
0, 0
0, 0
0, 0
0, 0
0, 0
0, 0
0, 0
0, 0
0, 0
0, 0
0, 0
0, 0
0, 0
0, 0
0, 0
0, 0
0, 0
0, 0
0, 0
0, 0
0, 0
0, 0
0, 0
0, 0
0, 0
0, 0
0, 0
0, 0
0, 0
0, 0
0, 0
0, 0
0, 0
0, 0
0, 0
0, 0
0, 0
0, 0
0, 0
0, 0
0, 0
0, 0
0, 0
0, 0
0, 0
0, 0
0, 0
0, 0
0, 0
0, 0
0, 0
0, 0
0, 0
0, 0
0, 0
0, 0
0, 0
0, 0
0, 0
0, 0
0, 0
0, 0
0, 0
0, 0
0, 0
0, 0
0, 0
0, 0
0, 0
0, 0
0, 0
0, 0
0, 0
0, 0
0, 0
0, 0
0, 0
0, 0
#ENDOFDATA     end of spectrum data