File: host_upload/06-09-2024/ps_0852/dump3/ps__0852shot_2198.msa
#FORMAT      : EMSA/MAS spectral data file
#VERSION     : TC202v2.0 PIXL
#TITLE       : N/A
#DATE        :       Date in the format DD-MMM-YYYY, for example 07-JUL-2010
#TIME        :             The time of day at which the spectrum was recorded, in 24-hour format
#OWNER       : PIXL Flight Model       (PIXL will use this to indicate which instrument took the data.)
#NPOINTS     : 4096     Number of data points in the spectrum (This can be zero for configuration only files)
#NCOLUMNS    : 2     Number of data columns in the spectrum (This can be zero for configuration only files)
#XUNITS      : eV
#YUNITS      : COUNTS
#DATATYPE    : YY
#XPERCHAN    : 7.862, 7.881   eV per channel (separate by commas if more than one detector)
#OFFSET      : 18.5, -22.4         eV of first channel  (separate by commas if more than one detector
#SIGNALTYPE  : XRF
#YP_TEMP     : 2.3
#LIVETIME    : 8.57663, 8.55181   seconds (separate by commas if more than one detector)
#REALTIME    : 10, 10.0   seconds (separate by commas if more than one detector)
#SPECTRUM    : start of spectrum data
0, 0
0, 0
0, 0
0, 0
0, 0
0, 0
0, 0
0, 0
0, 0
0, 0
0, 0
0, 0
0, 0
0, 0
0, 0
0, 0
0, 0
0, 0
0, 0
0, 0
0, 0
0, 0
0, 0
0, 0
0, 0
0, 0
0, 0
0, 0
0, 0
0, 0
0, 0
0, 0
0, 0
0, 0
0, 0
0, 0
0, 0
1, 0
0, 2
0, 0
0, 0
1, 0
2, 2
2, 3
3, 1
1, 0
1, 4
5, 0
9, 5
9, 7
28, 19
37, 37
53, 61
81, 83
83, 73
77, 65
76, 40
38, 40
31, 19
19, 12
7, 7
7, 2
6, 4
6, 2
3, 2
8, 2
10, 2
11, 8
22, 29
58, 46
96, 92
167, 169
254, 258
367, 316
486, 397
456, 402
433, 357
302, 245
214, 196
144, 136
95, 62
38, 36
20, 14
12, 13
5, 4
1, 1
1, 2
3, 3
3, 1
1, 1
1, 2
1, 0
2, 2
3, 2
3, 2
3, 4
3, 4
4, 1
4, 5
9, 4
4, 2
3, 6
3, 5
4, 3
5, 4
3, 5
2, 6
10, 7
10, 14
17, 14
21, 16
28, 42
41, 35
42, 40
39, 34
41, 43
33, 42
38, 36
26, 35
25, 35
31, 24
29, 26
18, 19
14, 18
15, 25
13, 15
15, 9
14, 10
9, 8
7, 5
4, 3
2, 5
4, 4
7, 2
2, 4
1, 0
5, 2
1, 4
1, 3
5, 0
0, 2
3, 2
3, 5
5, 4
3, 1
12, 2
13, 1
17, 0
24, 1
32, 6
44, 0
39, 3
59, 8
69, 10
40, 8
41, 17
44, 14
30, 17
27, 22
23, 12
18, 10
8, 20
12, 4
6, 9
3, 5
0, 7
1, 2
2, 4
2, 1
1, 3
2, 3
9, 4
4, 2
1, 3
5, 4
6, 5
3, 2
6, 2
6, 3
5, 5
4, 6
11, 3
4, 2
5, 4
2, 11
3, 4
5, 9
7, 4
4, 9
5, 15
9, 21
13, 24
8, 23
10, 12
13, 13
19, 14
11, 19
16, 18
11, 17
12, 12
18, 14
12, 10
9, 8
13, 8
9, 10
6, 3
9, 5
15, 6
9, 9
8, 10
9, 7
7, 6
2, 8
12, 10
7, 11
11, 7
4, 8
7, 5
4, 7
7, 5
7, 10
2, 8
4, 4
7, 12
13, 13
13, 10
18, 9
28, 21
30, 21
35, 18
27, 39
30, 23
25, 18
29, 16
24, 24
22, 12
11, 17
17, 19
20, 12
21, 14
29, 12
25, 13
39, 10
31, 12
17, 17
43, 29
36, 52
53, 32
55, 50
63, 72
80, 60
75, 66
81, 39
71, 42
66, 37
41, 37
41, 22
32, 10
28, 10
27, 15
22, 22
23, 32
40, 63
80, 87
145, 190
311, 345
538, 555
802, 886
1168, 1339
1622, 1648
1944, 2014
2374, 2297
2444, 2357
2517, 2136
2225, 1871
1898, 1464
1426, 1103
954, 760
670, 455
398, 275
222, 150
114, 95
63, 42
41, 29
29, 20
19, 26
16, 19
25, 23
16, 24
28, 29
35, 30
56, 56
71, 61
110, 89
139, 100
186, 169
255, 224
316, 272
345, 317
375, 321
379, 355
364, 325
345, 263
264, 211
206, 153
138, 118
106, 83
65, 39
35, 21
26, 11
12, 6
10, 5
8, 5
9, 9
9, 9
17, 11
14, 14
12, 9
15, 17
13, 7
9, 6
9, 7
15, 5
2, 7
6, 6
4, 3
5, 6
6, 2
2, 4
3, 2
5, 2
5, 3
1, 4
4, 4
4, 6
4, 5
6, 4
5, 6
10, 5
4, 7
8, 6
3, 7
7, 6
5, 8
6, 7
9, 8
10, 9
5, 7
5, 15
5, 10
7, 4
4, 5
5, 3
3, 10
4, 6
5, 5
5, 5
3, 5
7, 6
4, 2
6, 4
7, 5
6, 6
7, 3
0, 7
5, 4
3, 4
5, 7
6, 5
3, 7
5, 6
5, 2
4, 3
2, 2
10, 2
10, 1
9, 2
8, 0
9, 4
17, 1
14, 2
18, 1
10, 5
17, 6
15, 1
11, 2
13, 4
8, 5
9, 0
7, 4
6, 8
3, 4
5, 0
3, 6
4, 1
7, 6
3, 0
3, 3
2, 3
6, 7
7, 8
5, 6
1, 2
2, 5
6, 4
7, 3
7, 1
4, 5
1, 6
4, 6
5, 3
2, 3
3, 3
2, 1
6, 2
1, 2
2, 7
6, 6
5, 2
1, 1
5, 3
5, 7
4, 2
4, 2
4, 1
6, 4
2, 2
3, 1
5, 4
4, 2
7, 1
3, 1
2, 3
3, 2
3, 4
4, 7
4, 7
5, 1
4, 0
3, 5
4, 4
8, 3
6, 3
2, 5
6, 4
2, 2
4, 2
2, 0
3, 4
2, 1
6, 1
5, 2
2, 1
3, 3
9, 4
2, 5
1, 2
4, 5
1, 5
7, 3
7, 4
4, 2
2, 3
5, 4
6, 2
6, 2
4, 3
4, 1
3, 3
3, 4
6, 2
2, 1
3, 2
2, 3
3, 1
3, 3
3, 0
1, 2
4, 0
2, 1
1, 1
7, 4
3, 1
4, 2
6, 3
4, 4
7, 2
1, 2
6, 3
0, 1
6, 2
3, 0
6, 0
5, 3
1, 4
5, 3
1, 1
1, 1
3, 2
1, 2
2, 2
2, 2
0, 0
5, 1
0, 3
2, 3
1, 3
0, 2
2, 3
1, 3
3, 4
1, 3
3, 3
1, 2
5, 2
1, 1
1, 2
2, 3
1, 4
1, 2
1, 1
0, 2
2, 5
1, 1
0, 1
3, 2
4, 0
2, 2
2, 0
2, 6
5, 3
1, 2
2, 4
1, 3
0, 2
1, 3
3, 2
4, 3
4, 4
2, 1
5, 4
8, 2
6, 5
7, 1
6, 5
6, 4
5, 2
2, 4
3, 0
1, 2
2, 3
5, 1
1, 0
2, 2
1, 3
1, 2
2, 2
1, 2
0, 2
2, 2
1, 2
1, 2
2, 4
1, 3
2, 4
1, 0
3, 0
2, 1
2, 5
4, 0
1, 2
1, 3
4, 2
1, 1
1, 0
2, 3
1, 3
1, 0
0, 0
2, 1
1, 1
1, 1
1, 0
2, 1
1, 2
0, 0
0, 2
2, 0
0, 1
2, 4
0, 1
3, 0
1, 2
4, 0
1, 2
0, 3
3, 1
1, 2
0, 2
0, 0
1, 0
2, 1
1, 1
0, 0
1, 0
0, 1
2, 2
2, 1
1, 1
2, 1
0, 2
0, 0
2, 1
1, 0
2, 2
0, 1
2, 1
0, 0
0, 0
1, 0
0, 3
2, 1
1, 2
0, 0
1, 0
2, 0
0, 2
0, 0
0, 3
0, 4
0, 1
1, 0
1, 0
2, 0
1, 0
0, 0
3, 0
1, 0
2, 0
1, 0
2, 0
0, 1
2, 0
0, 0
3, 2
1, 0
2, 2
2, 0
2, 0
1, 0
0, 0
1, 0
1, 1
0, 0
2, 0
0, 0
0, 0
1, 0
2, 0
1, 2
0, 0
0, 3
0, 1
1, 0
0, 0
0, 1
1, 1
1, 1
1, 1
1, 1
0, 3
2, 1
0, 1
1, 2
0, 0
0, 1
0, 0
0, 0
0, 2
0, 0
2, 2
1, 0
1, 0
2, 0
0, 0
0, 1
0, 0
0, 0
0, 0
0, 0
2, 0
0, 0
0, 0
2, 2
1, 1
0, 0
1, 0
0, 1
0, 0
0, 0
2, 0
0, 0
0, 0
1, 1
1, 1
1, 0
1, 1
0, 0
0, 0
0, 0
2, 0
0, 0
0, 1
0, 0
1, 1
0, 1
0, 0
1, 1
0, 0
0, 1
1, 0
0, 0
0, 0
1, 0
0, 0
0, 0
0, 0
0, 0
1, 0
0, 0
0, 0
0, 0
1, 0
0, 0
0, 0
0, 0
2, 1
2, 1
1, 1
0, 0
0, 0
0, 0
0, 0
1, 1
0, 0
0, 0
0, 1
1, 0
0, 0
0, 0
1, 0
0, 0
0, 0
0, 0
0, 0
1, 0
0, 0
0, 0
0, 0
2, 1
0, 1
0, 1
0, 0
2, 0
1, 2
0, 0
1, 0
0, 0
0, 0
0, 0
0, 0
0, 0
0, 0
0, 0
0, 0
1, 0
0, 0
0, 0
0, 0
0, 0
1, 0
1, 0
1, 0
0, 1
0, 0
0, 0
0, 0
1, 0
0, 2
0, 0
0, 2
0, 1
2, 1
0, 0
0, 0
0, 1
1, 0
0, 0
1, 1
0, 0
0, 0
0, 0
2, 0
2, 1
1, 0
1, 1
0, 0
1, 0
0, 0
1, 0
0, 1
0, 0
0, 0
1, 0
0, 0
0, 0
1, 0
0, 0
0, 1
0, 0
1, 0
0, 0
0, 0
2, 0
0, 1
0, 0
0, 0
0, 0
0, 0
1, 1
0, 0
0, 0
0, 0
0, 0
1, 0
0, 0
0, 0
0, 0
0, 0
0, 0
2, 1
1, 0
0, 0
0, 0
0, 0
0, 0
0, 0
0, 0
0, 0
1, 0
0, 0
0, 1
0, 0
0, 0
0, 0
0, 1
2, 0
0, 0
0, 0
0, 0
0, 0
0, 0
1, 0
0, 0
1, 0
0, 0
0, 0
0, 0
0, 0
0, 0
0, 0
0, 0
0, 0
0, 1
0, 0
0, 0
0, 0
0, 0
0, 0
0, 0
0, 0
0, 0
0, 0
0, 0
0, 0
0, 1
0, 0
0, 0
0, 0
1, 0
0, 0
0, 0
0, 0
0, 2
0, 0
0, 0
1, 0
0, 1
0, 0
0, 0
0, 0
0, 0
0, 0
0, 0
0, 1
0, 0
0, 0
0, 0
0, 0
0, 1
0, 1
0, 0
0, 0
0, 0
0, 0
1, 0
0, 0
0, 0
0, 0
0, 0
0, 0
0, 0
0, 0
0, 0
0, 0
0, 0
0, 0
0, 0
0, 0
0, 0
0, 0
0, 0
0, 0
0, 0
0, 0
0, 0
0, 0
0, 0
0, 0
0, 0
0, 0
0, 0
0, 0
0, 0
0, 0
0, 0
0, 0
0, 0
0, 0
0, 0
0, 0
0, 0
0, 0
0, 0
0, 0
0, 0
0, 1
0, 0
0, 0
0, 0
0, 0
0, 0
0, 0
0, 0
0, 0
0, 0
0, 0
0, 0
1, 0
0, 0
0, 0
0, 0
1, 0
0, 0
0, 0
0, 0
0, 0
0, 0
0, 0
0, 0
0, 0
0, 0
0, 0
0, 0
0, 0
0, 0
0, 0
0, 0
0, 0
0, 0
0, 0
0, 0
0, 0
0, 0
0, 0
0, 0
0, 0
0, 0
0, 0
0, 0
0, 0
0, 0
0, 0
0, 0
0, 0
0, 0
0, 0
0, 0
0, 0
0, 0
0, 0
0, 1
0, 0
0, 0
0, 0
0, 0
0, 0
0, 0
0, 0
0, 0
0, 0
0, 0
0, 0
0, 0
0, 0
0, 0
0, 0
0, 0
0, 0
0, 0
0, 0
1, 0
0, 0
0, 0
0, 0
0, 0
0, 0
0, 0
0, 0
0, 0
0, 0
0, 0
0, 0
0, 0
0, 0
0, 0
0, 0
0, 0
0, 0
0, 0
0, 0
0, 0
0, 0
0, 0
0, 0
0, 0
0, 0
0, 0
0, 0
0, 0
0, 0
0, 0
0, 0
0, 0
0, 0
0, 0
0, 0
0, 0
0, 0
0, 0
0, 0
0, 0
0, 0
0, 0
0, 0
0, 0
0, 0
0, 0
0, 0
0, 0
0, 0
0, 0
0, 0
0, 0
0, 0
0, 0
0, 0
0, 0
0, 0
0, 0
0, 0
0, 0
0, 0
0, 0
0, 0
0, 0
0, 0
0, 0
0, 0
0, 0
0, 0
0, 0
0, 0
0, 0
0, 0
0, 0
0, 0
0, 0
0, 0
0, 0
0, 0
0, 0
0, 0
0, 0
0, 0
0, 0
0, 0
0, 0
0, 0
0, 0
0, 0
0, 0
0, 0
0, 0
0, 0
0, 0
0, 0
0, 0
0, 0
0, 0
0, 0
0, 0
0, 0
0, 0
0, 0
0, 0
0, 0
0, 0
0, 0
0, 0
0, 0
0, 0
0, 0
0, 0
0, 0
0, 0
0, 0
0, 0
0, 0
0, 0
0, 0
0, 0
0, 0
0, 0
0, 0
0, 0
0, 0
0, 0
0, 0
0, 0
0, 0
0, 0
0, 0
0, 0
0, 0
0, 0
0, 0
0, 0
0, 0
0, 0
0, 0
0, 0
0, 0
0, 0
0, 0
0, 0
0, 0
0, 0
0, 0
0, 0
0, 0
0, 0
0, 0
0, 0
0, 0
0, 0
0, 0
0, 0
0, 0
0, 0
0, 0
0, 0
0, 0
0, 0
0, 0
0, 0
0, 0
0, 0
0, 0
0, 0
0, 0
0, 0
0, 0
0, 0
0, 0
0, 0
0, 0
0, 0
0, 0
0, 0
0, 0
0, 0
0, 0
0, 0
0, 0
0, 0
0, 0
0, 0
0, 0
0, 0
0, 0
0, 0
0, 0
0, 0
0, 0
0, 0
0, 0
0, 0
0, 0
0, 0
0, 0
0, 0
0, 0
0, 0
0, 0
0, 0
0, 0
0, 0
0, 0
0, 0
0, 0
0, 0
0, 0
0, 0
0, 0
0, 0
0, 0
0, 0
0, 0
0, 0
0, 0
0, 0
0, 0
0, 0
0, 0
0, 0
0, 0
0, 0
0, 0
0, 0
0, 0
0, 0
0, 0
0, 0
0, 0
0, 0
0, 0
0, 0
0, 0
0, 0
0, 0
0, 0
0, 0
0, 0
0, 0
0, 0
0, 0
0, 0
0, 0
0, 0
0, 0
0, 0
0, 0
0, 0
0, 0
0, 0
0, 0
0, 0
0, 0
0, 0
0, 0
0, 0
0, 0
0, 0
0, 0
0, 0
0, 0
0, 0
0, 0
0, 0
0, 0
0, 0
0, 0
0, 0
0, 0
0, 0
0, 0
0, 0
0, 0
0, 0
0, 0
0, 0
0, 0
0, 0
0, 0
0, 0
0, 0
0, 0
0, 0
0, 0
0, 0
0, 0
0, 0
0, 0
0, 0
0, 0
0, 0
0, 0
0, 0
0, 0
0, 0
0, 0
0, 0
0, 0
0, 0
0, 0
0, 0
0, 0
0, 0
0, 0
0, 0
0, 0
0, 0
0, 0
0, 0
0, 0
0, 0
0, 0
0, 0
0, 0
0, 0
0, 0
0, 0
0, 0
0, 0
0, 0
0, 0
0, 0
0, 0
0, 0
0, 0
0, 0
0, 0
0, 0
0, 0
0, 0
#ENDOFDATA     end of spectrum data