File: host_upload/06-09-2024/ps_0852/dump3/ps__0852shot_2169.msa
#FORMAT      : EMSA/MAS spectral data file
#VERSION     : TC202v2.0 PIXL
#TITLE       : N/A
#DATE        :       Date in the format DD-MMM-YYYY, for example 07-JUL-2010
#TIME        :             The time of day at which the spectrum was recorded, in 24-hour format
#OWNER       : PIXL Flight Model       (PIXL will use this to indicate which instrument took the data.)
#NPOINTS     : 4096     Number of data points in the spectrum (This can be zero for configuration only files)
#NCOLUMNS    : 2     Number of data columns in the spectrum (This can be zero for configuration only files)
#XUNITS      : eV
#YUNITS      : COUNTS
#DATATYPE    : YY
#XPERCHAN    : 7.862, 7.881   eV per channel (separate by commas if more than one detector)
#OFFSET      : 18.5, -22.4         eV of first channel  (separate by commas if more than one detector
#SIGNALTYPE  : XRF
#YP_TEMP     : 2.3
#LIVETIME    : 8.54761, 8.5509   seconds (separate by commas if more than one detector)
#REALTIME    : 10, 10.0   seconds (separate by commas if more than one detector)
#SPECTRUM    : start of spectrum data
0, 0
0, 0
0, 0
0, 0
0, 0
0, 0
0, 0
0, 0
0, 0
0, 0
0, 0
0, 0
0, 0
0, 0
0, 0
0, 0
0, 0
0, 0
0, 0
0, 0
0, 0
0, 0
0, 0
0, 0
0, 0
0, 0
0, 0
0, 0
0, 0
0, 0
0, 0
0, 0
1, 0
0, 0
0, 0
1, 1
0, 0
0, 0
0, 0
1, 1
1, 1
0, 1
1, 1
0, 2
1, 0
0, 2
1, 2
3, 2
3, 3
16, 8
25, 23
41, 44
73, 60
89, 69
73, 88
55, 78
65, 65
54, 55
26, 36
19, 15
7, 11
8, 2
9, 3
7, 4
2, 3
3, 4
9, 6
9, 17
17, 24
50, 55
94, 101
161, 175
255, 299
354, 382
396, 448
391, 483
372, 387
300, 322
196, 229
120, 110
84, 69
33, 52
17, 13
10, 9
7, 7
2, 5
3, 2
1, 2
3, 1
0, 1
0, 2
1, 3
0, 1
0, 2
4, 1
0, 2
6, 5
5, 5
8, 10
3, 4
4, 6
3, 5
2, 2
4, 2
2, 5
3, 3
2, 3
0, 2
5, 7
7, 3
8, 10
4, 14
21, 19
14, 20
16, 26
16, 23
29, 22
19, 24
19, 20
19, 19
17, 9
7, 13
13, 16
7, 9
18, 15
9, 5
7, 3
6, 7
6, 2
7, 5
7, 3
3, 2
1, 7
5, 3
1, 2
3, 2
4, 2
1, 1
1, 0
4, 2
0, 4
1, 0
3, 3
2, 1
0, 5
1, 1
1, 2
0, 0
1, 2
2, 1
1, 0
4, 4
0, 2
4, 4
11, 8
11, 10
19, 18
15, 18
13, 10
13, 17
7, 17
13, 9
8, 7
1, 2
1, 3
4, 6
2, 6
4, 2
2, 0
4, 3
4, 4
9, 5
3, 5
8, 7
3, 2
6, 4
3, 1
3, 4
1, 4
7, 6
4, 2
0, 2
5, 2
3, 2
1, 0
2, 3
3, 2
5, 4
6, 4
7, 5
6, 10
5, 6
8, 9
13, 10
9, 11
12, 7
14, 14
11, 12
14, 10
6, 13
12, 11
13, 15
11, 5
10, 4
3, 4
6, 3
3, 6
5, 6
5, 4
5, 3
5, 9
2, 8
6, 1
3, 10
4, 5
5, 4
6, 8
2, 8
5, 4
6, 3
7, 2
5, 3
5, 7
7, 6
9, 11
7, 4
27, 9
26, 7
45, 15
53, 10
74, 10
95, 11
94, 6
119, 8
89, 11
105, 6
87, 11
48, 11
31, 10
32, 5
15, 5
11, 8
15, 11
14, 6
15, 20
18, 21
31, 29
43, 36
57, 65
79, 60
85, 50
95, 59
89, 51
78, 49
86, 47
79, 34
53, 26
39, 9
36, 14
15, 20
22, 15
28, 40
41, 55
70, 89
141, 190
239, 375
397, 599
700, 937
1045, 1324
1405, 1793
1700, 2198
2120, 2326
2291, 2443
2203, 2348
1934, 2009
1662, 1600
1207, 1174
866, 721
570, 456
334, 279
185, 171
104, 68
52, 33
35, 23
20, 19
11, 12
9, 21
11, 16
14, 18
13, 15
22, 24
17, 32
40, 56
59, 91
94, 123
150, 205
188, 227
213, 299
279, 324
325, 378
324, 370
318, 317
276, 266
262, 217
175, 168
124, 106
88, 78
53, 40
24, 20
20, 14
9, 9
5, 3
4, 7
9, 3
4, 13
11, 6
12, 13
5, 14
13, 23
13, 15
11, 7
10, 11
9, 8
4, 3
3, 2
3, 3
2, 3
6, 3
2, 7
5, 13
5, 13
3, 16
6, 8
8, 8
4, 10
9, 12
4, 9
7, 10
9, 8
10, 7
9, 6
8, 5
5, 1
8, 4
9, 2
4, 6
11, 4
5, 1
4, 4
3, 7
5, 4
7, 6
4, 4
4, 7
5, 3
6, 1
13, 1
14, 8
6, 3
5, 2
3, 2
7, 1
2, 7
5, 3
11, 4
10, 2
5, 4
5, 2
4, 3
5, 3
8, 5
12, 7
13, 2
11, 7
15, 2
12, 7
21, 5
22, 8
27, 6
22, 5
27, 5
33, 7
19, 11
11, 12
12, 15
7, 11
10, 8
5, 6
6, 8
4, 1
3, 2
0, 4
3, 5
3, 5
2, 6
5, 4
3, 1
4, 2
1, 1
3, 2
7, 4
7, 9
0, 2
2, 3
10, 3
4, 0
3, 2
3, 5
1, 7
3, 3
5, 6
2, 10
4, 6
1, 6
3, 6
4, 1
2, 1
2, 2
1, 2
3, 3
2, 1
1, 3
3, 2
1, 2
3, 2
4, 2
2, 1
1, 4
2, 2
3, 1
0, 2
2, 1
3, 1
3, 4
2, 2
4, 7
3, 4
3, 2
3, 3
0, 4
1, 4
1, 1
4, 1
3, 4
6, 3
1, 1
0, 3
1, 2
4, 1
1, 0
0, 2
1, 1
0, 1
2, 1
0, 2
0, 4
1, 1
2, 3
1, 4
5, 1
6, 2
2, 2
7, 2
5, 3
10, 2
7, 1
6, 3
7, 1
6, 0
6, 6
3, 4
7, 5
1, 5
0, 5
5, 2
6, 4
6, 1
3, 0
2, 3
2, 3
1, 3
6, 0
0, 2
2, 1
1, 3
3, 0
2, 1
1, 2
2, 2
2, 1
1, 1
1, 2
1, 4
2, 0
1, 5
0, 5
1, 1
3, 3
0, 4
3, 3
1, 2
2, 2
1, 1
3, 2
2, 4
4, 1
3, 2
4, 2
3, 1
2, 3
1, 4
0, 3
3, 1
0, 1
0, 0
2, 1
2, 2
4, 1
1, 5
2, 2
2, 6
0, 1
2, 0
0, 3
0, 4
1, 2
1, 3
1, 4
1, 4
2, 1
1, 5
1, 1
1, 2
1, 2
2, 0
0, 1
2, 5
1, 0
3, 1
2, 3
2, 4
5, 5
1, 1
3, 4
9, 3
1, 4
3, 5
0, 4
3, 2
3, 4
2, 6
0, 2
2, 5
2, 3
0, 3
0, 4
1, 1
1, 0
1, 0
0, 1
1, 1
1, 1
2, 1
0, 1
0, 1
3, 3
1, 1
2, 2
1, 3
5, 2
0, 1
3, 2
3, 5
2, 3
1, 3
2, 0
2, 3
1, 1
1, 0
1, 0
1, 0
0, 4
0, 1
2, 0
1, 2
0, 1
1, 2
1, 3
0, 0
1, 0
0, 1
3, 0
1, 1
1, 3
1, 1
0, 1
0, 1
1, 0
2, 0
0, 4
0, 0
0, 0
1, 1
0, 1
2, 2
3, 3
0, 0
1, 1
1, 1
0, 1
2, 2
0, 1
0, 0
0, 1
1, 1
1, 0
0, 0
0, 3
1, 0
1, 1
3, 1
1, 0
1, 1
1, 1
0, 0
1, 1
1, 1
0, 1
1, 0
1, 0
1, 1
1, 1
2, 0
1, 1
4, 0
0, 1
2, 2
2, 0
1, 0
1, 0
0, 0
0, 1
0, 0
0, 1
1, 1
0, 0
0, 1
1, 0
0, 0
0, 0
1, 0
0, 0
0, 1
0, 0
0, 1
0, 0
1, 4
2, 0
0, 0
0, 1
0, 0
0, 1
0, 3
0, 1
0, 2
0, 0
0, 0
1, 0
1, 0
0, 1
1, 0
0, 1
1, 0
0, 1
1, 1
0, 0
0, 0
0, 2
0, 0
0, 1
1, 0
1, 0
0, 0
0, 0
0, 0
0, 0
1, 0
0, 0
0, 0
1, 3
1, 0
1, 1
1, 1
0, 0
1, 0
0, 0
0, 0
0, 0
0, 2
1, 0
0, 0
0, 1
0, 1
0, 0
0, 1
1, 2
0, 0
0, 1
0, 0
0, 0
1, 0
1, 0
1, 0
0, 0
0, 0
0, 0
1, 1
0, 0
0, 1
0, 1
0, 0
0, 0
0, 2
0, 0
0, 0
0, 2
0, 0
1, 0
0, 0
0, 0
0, 0
0, 0
0, 1
0, 0
0, 0
0, 2
0, 0
0, 0
0, 0
0, 0
0, 2
0, 0
0, 1
0, 0
0, 0
0, 0
0, 1
2, 0
0, 0
1, 0
0, 0
0, 1
0, 1
0, 0
0, 0
0, 0
0, 1
1, 0
0, 0
0, 1
0, 0
0, 1
0, 0
0, 0
0, 0
0, 1
0, 0
0, 0
0, 0
0, 0
0, 0
0, 0
0, 0
0, 0
0, 1
0, 0
0, 0
0, 1
0, 0
2, 0
1, 1
0, 1
0, 0
0, 0
0, 0
1, 0
1, 0
0, 1
0, 0
0, 1
0, 0
0, 2
0, 1
0, 1
0, 0
0, 0
0, 1
1, 0
1, 1
2, 0
0, 0
1, 2
0, 0
0, 0
0, 0
0, 0
1, 1
0, 1
0, 0
0, 0
0, 0
0, 0
0, 0
0, 0
0, 0
0, 0
0, 1
1, 0
1, 0
0, 0
0, 1
0, 1
0, 0
1, 0
0, 0
0, 0
0, 0
0, 0
0, 0
0, 0
0, 0
0, 0
0, 0
0, 0
0, 0
0, 0
0, 0
0, 0
0, 0
0, 0
0, 0
0, 0
0, 0
0, 1
0, 0
0, 0
0, 0
0, 0
1, 0
0, 0
0, 0
0, 0
0, 1
1, 0
0, 1
0, 0
0, 0
0, 0
0, 0
0, 0
2, 0
0, 0
0, 0
0, 0
0, 0
0, 0
0, 0
0, 0
1, 0
0, 0
0, 0
0, 0
0, 0
0, 0
0, 0
0, 0
0, 0
0, 0
0, 0
0, 0
0, 0
0, 0
1, 0
0, 0
0, 1
0, 0
0, 0
0, 1
1, 0
0, 0
0, 0
0, 0
0, 0
1, 0
0, 0
0, 1
0, 0
0, 0
0, 0
0, 0
0, 0
0, 0
0, 0
0, 0
0, 0
0, 0
0, 0
0, 0
0, 0
1, 0
0, 0
0, 0
0, 0
0, 0
0, 0
0, 0
0, 0
0, 0
0, 0
0, 0
1, 0
0, 0
0, 0
0, 0
1, 0
0, 0
0, 0
0, 0
0, 0
0, 0
0, 0
0, 0
0, 0
0, 0
0, 0
0, 0
0, 0
0, 0
0, 0
0, 0
0, 0
0, 0
0, 0
0, 0
0, 0
0, 0
0, 0
0, 0
0, 0
0, 0
0, 0
0, 0
0, 0
0, 0
0, 0
0, 0
0, 0
0, 0
0, 0
0, 0
0, 0
0, 0
0, 0
0, 0
0, 0
0, 0
0, 0
1, 0
0, 0
0, 0
0, 0
0, 0
0, 0
0, 0
0, 0
0, 0
0, 0
0, 0
0, 0
0, 0
0, 0
0, 0
0, 0
1, 0
0, 0
0, 0
0, 0
0, 0
0, 0
0, 0
0, 0
0, 0
0, 0
0, 0
0, 0
0, 0
0, 0
0, 0
0, 0
0, 0
0, 0
0, 1
0, 0
0, 0
0, 0
0, 0
0, 0
0, 0
0, 0
0, 0
0, 0
0, 0
0, 0
0, 0
0, 0
0, 0
0, 0
0, 0
0, 0
0, 0
0, 0
0, 0
0, 0
0, 0
0, 0
0, 0
0, 0
0, 0
0, 0
0, 0
0, 0
0, 0
0, 0
0, 0
0, 0
0, 0
0, 0
0, 0
0, 0
0, 0
0, 0
0, 0
0, 0
0, 0
0, 0
0, 0
0, 0
0, 0
0, 0
0, 0
0, 0
0, 0
0, 0
0, 0
0, 0
0, 0
0, 0
0, 0
0, 0
0, 0
0, 0
0, 0
0, 0
0, 0
0, 0
0, 0
0, 0
0, 0
0, 0
0, 0
0, 0
1, 0
0, 0
0, 0
0, 0
0, 0
0, 0
0, 0
0, 0
0, 0
0, 0
0, 0
0, 0
0, 0
0, 0
0, 0
0, 0
0, 0
0, 0
0, 0
0, 1
0, 0
0, 0
0, 0
0, 0
0, 0
0, 0
0, 0
0, 0
0, 0
0, 0
0, 0
0, 0
0, 0
0, 0
0, 0
0, 0
0, 0
0, 0
0, 0
0, 0
0, 0
0, 0
0, 0
0, 0
0, 0
0, 0
0, 0
0, 0
0, 0
0, 0
0, 0
0, 0
0, 0
0, 0
0, 0
0, 0
0, 0
0, 0
0, 0
0, 0
0, 0
0, 0
0, 0
0, 0
0, 0
0, 0
0, 0
0, 0
0, 0
0, 0
0, 0
0, 0
0, 0
0, 0
0, 0
0, 0
0, 0
0, 0
0, 0
0, 0
0, 0
0, 0
0, 0
0, 0
0, 0
0, 0
0, 0
0, 0
0, 0
0, 0
0, 0
0, 0
0, 0
0, 0
0, 0
0, 0
0, 0
0, 0
0, 0
0, 0
0, 0
0, 0
0, 0
0, 0
0, 0
0, 0
0, 0
0, 0
0, 0
0, 0
0, 0
0, 0
0, 0
0, 0
0, 0
0, 0
0, 0
0, 0
0, 0
0, 0
0, 0
0, 0
0, 0
0, 0
0, 0
0, 0
0, 0
0, 0
0, 0
0, 0
0, 0
0, 0
0, 0
0, 0
0, 0
0, 0
0, 0
0, 0
0, 0
0, 0
0, 0
0, 0
0, 0
0, 0
0, 0
0, 0
0, 0
0, 0
0, 0
0, 0
0, 0
0, 0
0, 0
0, 0
0, 0
0, 0
0, 0
0, 0
0, 0
0, 0
0, 0
0, 0
0, 0
0, 0
0, 0
0, 0
0, 0
0, 0
0, 0
0, 0
0, 0
0, 0
0, 0
0, 0
0, 0
0, 0
0, 0
0, 0
0, 0
0, 0
0, 0
0, 0
0, 0
0, 0
0, 0
0, 0
0, 0
0, 0
0, 0
0, 0
0, 0
0, 0
0, 0
0, 0
0, 0
0, 0
0, 0
0, 0
0, 0
0, 0
0, 0
0, 0
0, 0
0, 0
0, 0
0, 0
0, 0
0, 0
0, 0
0, 0
0, 0
0, 0
0, 0
0, 0
0, 0
0, 0
0, 0
0, 0
0, 0
0, 0
0, 0
0, 0
0, 0
0, 0
0, 0
0, 0
0, 0
0, 0
0, 0
0, 0
0, 0
0, 0
0, 0
0, 0
0, 0
0, 0
0, 0
0, 0
0, 0
0, 0
0, 0
0, 0
0, 0
0, 0
0, 0
0, 0
0, 0
0, 0
0, 0
0, 0
0, 0
0, 0
0, 0
0, 0
0, 0
0, 0
0, 0
0, 0
0, 0
0, 0
0, 0
0, 0
0, 0
0, 0
0, 0
0, 0
0, 0
0, 0
0, 0
0, 0
0, 0
0, 0
0, 0
0, 0
0, 0
0, 0
0, 0
0, 0
0, 0
0, 0
0, 0
0, 0
0, 0
0, 0
0, 0
0, 0
0, 0
0, 0
0, 0
0, 0
0, 0
0, 0
0, 0
0, 0
0, 0
#ENDOFDATA     end of spectrum data