File: host_upload/06-09-2024/ps_0852/dump3/ps__0852shot_2156.msa
#FORMAT      : EMSA/MAS spectral data file
#VERSION     : TC202v2.0 PIXL
#TITLE       : N/A
#DATE        :       Date in the format DD-MMM-YYYY, for example 07-JUL-2010
#TIME        :             The time of day at which the spectrum was recorded, in 24-hour format
#OWNER       : PIXL Flight Model       (PIXL will use this to indicate which instrument took the data.)
#NPOINTS     : 4096     Number of data points in the spectrum (This can be zero for configuration only files)
#NCOLUMNS    : 2     Number of data columns in the spectrum (This can be zero for configuration only files)
#XUNITS      : eV
#YUNITS      : COUNTS
#DATATYPE    : YY
#XPERCHAN    : 7.862, 7.881   eV per channel (separate by commas if more than one detector)
#OFFSET      : 18.5, -22.4         eV of first channel  (separate by commas if more than one detector
#SIGNALTYPE  : XRF
#YP_TEMP     : 2.46
#LIVETIME    : 8.54641, 8.59883   seconds (separate by commas if more than one detector)
#REALTIME    : 10, 10.0   seconds (separate by commas if more than one detector)
#SPECTRUM    : start of spectrum data
0, 0
0, 0
0, 0
0, 0
0, 0
0, 0
0, 0
0, 0
0, 0
0, 0
0, 0
0, 0
0, 0
0, 0
0, 0
0, 0
0, 0
0, 0
0, 0
0, 0
0, 0
0, 0
0, 0
0, 0
0, 0
0, 0
0, 0
0, 0
0, 0
0, 0
0, 0
0, 0
0, 1
0, 0
0, 0
0, 1
2, 0
2, 1
2, 0
1, 5
0, 0
0, 1
1, 1
2, 0
1, 3
2, 1
1, 1
5, 1
4, 7
18, 10
18, 23
22, 36
41, 61
50, 69
54, 66
48, 65
44, 50
36, 44
28, 21
14, 19
6, 5
2, 7
7, 3
2, 4
2, 8
4, 2
2, 4
7, 12
18, 26
26, 56
91, 97
113, 151
173, 253
272, 358
307, 373
351, 314
285, 345
223, 300
161, 196
90, 107
42, 66
28, 35
12, 13
5, 6
6, 5
5, 5
2, 6
1, 0
1, 7
1, 2
0, 2
6, 6
17, 17
25, 34
39, 50
61, 84
90, 118
141, 158
158, 159
142, 184
137, 188
112, 145
88, 102
63, 63
39, 39
27, 29
21, 19
29, 24
28, 25
33, 38
33, 44
32, 46
41, 46
50, 69
49, 62
61, 64
53, 54
36, 44
36, 31
30, 36
22, 23
19, 23
24, 28
18, 19
13, 13
13, 20
11, 16
9, 10
7, 13
4, 4
9, 6
8, 5
3, 3
4, 4
4, 3
5, 4
1, 1
2, 6
8, 3
4, 6
6, 9
3, 7
5, 6
4, 9
4, 5
6, 4
5, 3
1, 0
4, 1
6, 1
6, 5
5, 5
7, 6
12, 13
17, 8
15, 9
15, 12
16, 16
11, 17
10, 13
13, 8
12, 13
4, 10
5, 3
3, 4
6, 6
3, 5
5, 7
4, 3
4, 1
3, 4
5, 6
2, 1
3, 4
5, 10
6, 5
5, 5
3, 2
3, 3
4, 6
6, 8
4, 9
2, 7
4, 1
5, 2
4, 6
3, 2
8, 5
4, 8
4, 10
9, 9
12, 13
13, 19
11, 17
8, 17
12, 15
11, 15
13, 24
10, 24
14, 33
10, 36
10, 23
5, 33
9, 36
10, 42
2, 30
5, 28
9, 17
9, 14
6, 17
6, 6
5, 5
7, 9
11, 10
5, 6
4, 10
5, 7
9, 6
5, 6
4, 6
8, 11
4, 6
7, 7
10, 9
12, 8
15, 4
14, 7
19, 12
9, 10
15, 17
20, 17
24, 16
10, 8
7, 13
7, 11
12, 7
6, 14
10, 19
7, 23
9, 24
11, 32
10, 35
8, 37
9, 47
16, 33
10, 40
30, 45
40, 69
36, 77
50, 66
47, 74
61, 90
63, 64
55, 52
47, 48
37, 37
46, 34
51, 19
74, 12
88, 15
112, 18
120, 30
148, 58
148, 118
225, 212
308, 358
539, 660
695, 954
1029, 1482
1393, 1895
1805, 2372
2054, 2541
2184, 2577
2162, 2404
1908, 2168
1607, 1700
1191, 1163
856, 743
594, 511
339, 263
204, 170
91, 68
49, 52
35, 28
14, 16
19, 13
15, 15
15, 17
16, 18
20, 18
25, 24
26, 40
42, 65
55, 89
96, 124
155, 182
190, 235
235, 336
289, 379
348, 377
345, 386
312, 346
291, 289
217, 218
165, 180
116, 120
93, 75
46, 46
21, 35
23, 11
14, 6
9, 10
8, 4
9, 8
6, 10
18, 16
9, 13
16, 17
12, 23
26, 10
31, 7
30, 12
33, 3
34, 3
40, 7
35, 5
34, 0
18, 1
12, 3
13, 5
17, 7
16, 3
2, 3
6, 4
4, 6
9, 4
8, 0
5, 3
4, 5
4, 5
5, 0
7, 5
6, 2
2, 7
4, 10
4, 5
4, 5
5, 2
3, 8
6, 7
7, 11
7, 8
10, 9
11, 4
15, 4
19, 4
20, 3
17, 4
22, 2
22, 5
17, 4
15, 3
12, 2
17, 3
6, 4
11, 4
7, 5
3, 2
5, 5
1, 4
4, 1
3, 3
7, 5
4, 0
4, 7
5, 2
3, 6
0, 1
4, 6
4, 4
2, 2
3, 3
4, 3
3, 6
4, 5
3, 4
3, 7
2, 7
2, 3
5, 4
3, 2
5, 6
4, 5
2, 4
4, 6
2, 7
2, 4
2, 3
3, 5
4, 2
6, 5
3, 3
1, 3
5, 3
3, 2
6, 2
3, 1
2, 7
2, 2
3, 4
4, 6
3, 3
1, 4
2, 5
4, 2
3, 0
4, 6
2, 6
8, 1
1, 2
2, 3
2, 1
2, 1
6, 4
1, 5
1, 7
4, 2
3, 4
3, 8
1, 9
0, 4
5, 12
2, 16
2, 13
3, 26
3, 23
3, 20
1, 16
3, 23
2, 19
0, 19
1, 20
6, 20
3, 8
1, 9
5, 6
2, 4
4, 7
3, 4
3, 4
4, 1
4, 2
4, 2
6, 14
8, 2
11, 5
7, 5
6, 0
6, 0
3, 1
4, 0
4, 2
6, 1
5, 2
3, 1
4, 5
4, 2
2, 3
1, 5
1, 1
2, 6
0, 3
3, 1
2, 2
1, 7
5, 0
5, 2
1, 3
3, 3
1, 3
2, 0
4, 1
2, 3
0, 2
1, 3
2, 2
1, 4
0, 3
2, 1
4, 1
2, 4
3, 2
1, 4
4, 1
0, 1
1, 1
1, 3
2, 0
2, 1
2, 2
2, 3
1, 3
2, 3
1, 5
1, 3
1, 1
2, 0
3, 2
3, 2
3, 1
3, 1
5, 2
5, 2
0, 5
1, 1
3, 0
2, 3
3, 0
4, 1
1, 1
2, 0
4, 0
2, 5
3, 2
5, 1
2, 4
0, 2
3, 0
4, 2
2, 4
2, 1
2, 0
2, 3
1, 3
2, 2
1, 1
3, 3
1, 3
7, 2
4, 3
4, 9
2, 6
2, 8
2, 5
2, 9
5, 8
0, 8
3, 8
3, 5
1, 3
1, 4
0, 4
0, 0
1, 3
0, 1
0, 3
1, 3
0, 3
1, 1
2, 0
0, 0
3, 2
0, 1
4, 3
0, 1
0, 3
0, 1
1, 2
2, 3
1, 0
0, 3
3, 2
1, 1
2, 2
2, 2
3, 1
0, 1
0, 0
1, 1
0, 0
0, 1
3, 0
3, 4
1, 0
4, 1
0, 0
3, 1
3, 1
4, 0
1, 3
0, 0
2, 1
1, 1
0, 0
1, 0
4, 1
1, 1
1, 1
5, 0
2, 2
3, 3
6, 3
1, 0
0, 0
2, 2
2, 1
1, 1
0, 2
1, 0
1, 1
2, 0
0, 1
2, 1
1, 2
2, 0
1, 0
2, 2
0, 0
0, 0
1, 0
2, 1
3, 1
0, 1
1, 0
1, 1
1, 5
1, 2
0, 0
0, 1
1, 0
1, 0
1, 0
0, 1
0, 2
0, 0
1, 0
1, 1
0, 2
1, 0
2, 0
3, 1
0, 0
1, 0
0, 1
0, 0
1, 2
2, 1
0, 0
0, 2
0, 4
1, 2
1, 1
0, 1
1, 2
0, 0
0, 4
1, 2
0, 1
1, 0
2, 2
1, 0
1, 1
0, 1
0, 1
0, 0
0, 0
0, 0
0, 0
0, 0
0, 1
0, 0
0, 0
1, 3
0, 1
0, 0
0, 0
2, 0
1, 1
1, 1
0, 1
0, 1
0, 0
1, 0
0, 1
1, 1
1, 0
2, 1
0, 0
0, 1
0, 0
0, 0
0, 1
0, 1
0, 0
1, 0
0, 1
0, 0
0, 0
0, 0
0, 0
0, 0
0, 1
1, 3
0, 1
1, 1
0, 0
0, 1
0, 1
2, 0
0, 1
1, 0
0, 1
0, 0
1, 0
1, 0
0, 1
0, 0
0, 2
2, 1
0, 0
0, 0
0, 0
0, 1
0, 2
0, 0
1, 0
0, 0
0, 1
0, 0
0, 0
0, 0
1, 0
0, 0
0, 0
0, 1
1, 1
1, 0
0, 0
0, 1
0, 1
1, 0
1, 0
0, 0
0, 1
0, 0
2, 0
1, 0
0, 0
0, 0
0, 1
0, 0
0, 0
1, 0
0, 0
0, 1
0, 0
0, 0
1, 0
0, 0
0, 2
0, 0
0, 1
0, 1
0, 0
0, 0
1, 0
1, 0
0, 0
0, 2
0, 1
1, 2
0, 0
0, 0
0, 0
0, 0
0, 1
1, 0
0, 0
0, 0
0, 1
0, 0
0, 0
1, 0
0, 1
0, 0
0, 0
0, 0
0, 0
1, 0
1, 0
0, 0
1, 0
0, 0
2, 1
0, 0
0, 0
0, 0
1, 0
1, 0
0, 0
0, 1
0, 1
0, 0
1, 0
0, 2
0, 0
0, 0
0, 1
0, 0
0, 0
0, 0
0, 1
0, 0
0, 0
0, 0
0, 1
0, 0
0, 0
0, 1
0, 0
0, 1
0, 0
1, 0
0, 0
0, 0
0, 0
0, 0
0, 0
0, 0
0, 0
0, 0
0, 0
0, 0
0, 0
1, 0
0, 2
0, 0
0, 0
1, 0
1, 0
0, 0
0, 0
0, 0
0, 1
1, 0
0, 0
0, 0
0, 0
0, 0
0, 0
0, 0
0, 0
0, 0
0, 0
0, 0
0, 1
1, 0
0, 0
0, 1
0, 0
0, 1
0, 1
0, 0
0, 0
0, 0
0, 0
0, 0
0, 0
0, 0
1, 0
0, 0
0, 0
0, 0
0, 0
0, 1
0, 0
0, 0
0, 0
0, 0
0, 0
0, 0
0, 0
0, 0
0, 0
0, 0
0, 0
0, 0
0, 0
0, 0
0, 0
0, 0
0, 0
0, 0
0, 0
0, 0
0, 0
0, 0
0, 0
0, 0
0, 0
1, 0
0, 0
0, 0
1, 0
0, 0
0, 0
1, 0
0, 0
0, 0
0, 0
0, 0
0, 0
0, 0
0, 0
0, 0
0, 0
0, 0
0, 0
0, 0
0, 0
0, 0
0, 0
0, 0
0, 0
0, 0
0, 0
0, 0
0, 0
0, 0
0, 0
0, 0
0, 0
0, 0
0, 2
0, 0
0, 0
0, 0
0, 1
0, 0
0, 0
0, 0
0, 0
0, 0
0, 0
0, 0
0, 0
0, 0
0, 0
0, 0
0, 0
0, 0
0, 0
0, 0
0, 0
0, 0
0, 0
0, 0
0, 0
0, 0
0, 0
0, 0
0, 0
0, 0
0, 0
0, 0
0, 0
0, 0
0, 0
0, 0
0, 0
0, 0
0, 0
0, 0
0, 0
0, 0
0, 0
0, 0
0, 0
0, 0
0, 1
0, 0
0, 0
0, 0
0, 0
0, 0
0, 0
0, 0
0, 0
0, 0
0, 0
0, 0
0, 0
0, 0
0, 0
0, 0
0, 0
0, 0
0, 0
0, 0
0, 0
0, 0
0, 0
0, 0
0, 0
0, 0
0, 0
0, 0
0, 0
0, 0
0, 0
0, 0
0, 0
0, 0
0, 0
0, 0
0, 0
0, 0
0, 0
0, 0
0, 0
0, 0
0, 0
0, 0
0, 0
0, 0
0, 0
0, 0
0, 0
0, 0
0, 1
0, 0
0, 0
0, 0
0, 0
0, 0
0, 0
0, 0
0, 0
0, 0
0, 0
0, 0
0, 0
0, 0
0, 0
0, 0
0, 0
0, 0
0, 0
0, 0
0, 0
0, 0
0, 0
0, 0
0, 0
0, 0
0, 0
0, 0
0, 0
0, 0
0, 0
0, 0
0, 0
0, 0
0, 0
0, 0
0, 0
0, 0
0, 0
0, 0
0, 0
0, 0
0, 0
0, 0
0, 0
0, 0
0, 0
0, 0
0, 0
0, 0
0, 0
0, 0
0, 0
0, 0
0, 0
0, 0
0, 0
0, 0
0, 0
0, 0
0, 0
0, 0
0, 0
0, 0
0, 0
0, 0
0, 0
0, 0
0, 0
0, 0
0, 0
0, 0
0, 0
0, 0
0, 0
0, 0
0, 0
0, 0
0, 0
0, 0
0, 0
0, 0
0, 0
0, 0
0, 0
0, 0
0, 0
0, 0
0, 0
0, 0
0, 0
0, 0
0, 0
0, 0
0, 0
0, 0
0, 0
0, 0
0, 0
0, 0
0, 0
0, 0
0, 0
0, 0
0, 0
0, 0
0, 0
0, 0
0, 0
0, 0
0, 0
0, 0
0, 0
0, 0
0, 0
0, 0
0, 0
0, 0
0, 0
0, 0
0, 0
0, 0
0, 0
0, 0
0, 0
0, 0
0, 0
0, 0
0, 0
0, 0
0, 0
0, 0
0, 0
0, 0
0, 0
0, 0
0, 0
0, 0
0, 0
0, 0
0, 0
0, 0
0, 0
0, 0
0, 0
0, 0
0, 0
0, 0
0, 0
0, 0
0, 0
0, 0
0, 0
0, 0
0, 0
0, 0
0, 0
0, 0
0, 0
0, 0
0, 0
0, 0
0, 0
0, 0
0, 0
0, 0
0, 0
0, 0
0, 0
0, 0
0, 0
0, 0
0, 0
0, 0
0, 0
0, 0
0, 0
0, 0
0, 0
0, 0
0, 0
0, 0
0, 0
0, 0
0, 0
0, 0
0, 0
0, 0
0, 0
0, 0
0, 0
0, 0
0, 0
0, 0
0, 0
0, 0
0, 0
0, 0
0, 0
0, 0
0, 0
0, 0
0, 0
0, 0
0, 0
0, 0
0, 0
0, 0
0, 0
0, 0
0, 0
0, 0
0, 0
0, 0
0, 0
0, 0
0, 0
0, 0
0, 0
0, 0
0, 0
0, 0
0, 0
0, 0
0, 0
0, 0
0, 0
0, 0
0, 0
0, 0
0, 0
0, 0
0, 0
0, 0
0, 0
0, 0
0, 0
0, 0
0, 0
0, 0
0, 0
0, 0
0, 0
0, 0
0, 0
0, 0
0, 0
0, 0
0, 0
0, 0
0, 0
0, 0
0, 0
0, 0
0, 0
0, 0
0, 0
0, 0
0, 0
0, 0
0, 0
0, 0
0, 0
0, 0
0, 0
0, 0
0, 0
0, 0
0, 0
0, 0
0, 0
0, 0
0, 0
0, 0
0, 0
0, 0
0, 0
0, 0
0, 0
0, 0
0, 0
0, 0
0, 0
0, 0
0, 0
0, 0
0, 0
0, 0
0, 0
0, 0
0, 0
0, 0
0, 0
0, 0
0, 0
0, 0
0, 0
0, 0
0, 0
0, 0
0, 0
0, 0
0, 0
0, 0
0, 0
0, 0
0, 0
0, 0
0, 0
0, 0
0, 0
0, 0
0, 0
0, 0
0, 0
0, 0
0, 0
0, 0
0, 0
0, 0
0, 0
0, 0
0, 0
0, 0
0, 0
0, 0
0, 0
0, 0
0, 0
0, 0
0, 0
0, 0
0, 0
0, 0
0, 0
0, 0
0, 0
#ENDOFDATA     end of spectrum data