File: host_upload/06-09-2024/ps_0852/dump3/ps__0852shot_2437.msa
#FORMAT      : EMSA/MAS spectral data file
#VERSION     : TC202v2.0 PIXL
#TITLE       : N/A
#DATE        :       Date in the format DD-MMM-YYYY, for example 07-JUL-2010
#TIME        :             The time of day at which the spectrum was recorded, in 24-hour format
#OWNER       : PIXL Flight Model       (PIXL will use this to indicate which instrument took the data.)
#NPOINTS     : 4096     Number of data points in the spectrum (This can be zero for configuration only files)
#NCOLUMNS    : 2     Number of data columns in the spectrum (This can be zero for configuration only files)
#XUNITS      : eV
#YUNITS      : COUNTS
#DATATYPE    : YY
#XPERCHAN    : 7.862, 7.881   eV per channel (separate by commas if more than one detector)
#OFFSET      : 18.5, -22.4         eV of first channel  (separate by commas if more than one detector
#SIGNALTYPE  : XRF
#YP_TEMP     : 2.3
#LIVETIME    : 8.56045, 8.5533   seconds (separate by commas if more than one detector)
#REALTIME    : 10, 10.0   seconds (separate by commas if more than one detector)
#SPECTRUM    : start of spectrum data
0, 0
0, 0
0, 0
0, 0
0, 0
0, 0
0, 0
0, 0
0, 0
0, 0
0, 0
0, 0
0, 0
0, 0
0, 0
0, 0
0, 0
0, 0
0, 0
0, 0
0, 0
0, 0
0, 0
0, 0
0, 0
0, 0
0, 0
0, 0
0, 0
0, 0
0, 0
0, 0
1, 0
0, 0
1, 0
0, 0
0, 1
0, 0
1, 1
1, 0
0, 3
1, 2
3, 3
1, 0
1, 4
0, 1
2, 1
1, 2
4, 4
14, 7
35, 24
31, 44
70, 59
86, 75
77, 63
67, 56
54, 60
54, 38
34, 27
21, 11
6, 6
2, 5
2, 3
4, 6
5, 2
1, 3
4, 6
15, 7
24, 21
48, 53
107, 103
180, 159
297, 245
412, 346
477, 402
461, 407
401, 349
328, 264
234, 164
149, 100
81, 64
59, 31
17, 19
15, 11
2, 7
7, 5
3, 3
3, 0
2, 3
0, 3
1, 1
2, 0
2, 2
6, 0
1, 1
2, 3
5, 3
4, 7
5, 2
4, 6
7, 1
6, 3
2, 2
7, 2
4, 2
7, 0
2, 4
10, 6
12, 8
22, 17
20, 19
30, 41
30, 50
46, 61
52, 67
52, 87
43, 81
48, 80
28, 50
32, 57
25, 35
25, 27
16, 30
12, 31
13, 16
10, 23
15, 19
9, 18
11, 9
7, 12
8, 7
4, 7
7, 2
2, 3
4, 2
2, 3
4, 3
1, 3
1, 2
1, 2
4, 0
1, 1
1, 1
4, 1
1, 2
0, 1
4, 1
3, 3
1, 2
1, 2
4, 6
8, 7
10, 11
35, 23
34, 25
61, 37
64, 34
71, 57
60, 37
47, 33
54, 33
30, 23
25, 18
16, 13
6, 7
9, 8
8, 11
6, 7
10, 6
10, 9
12, 12
23, 15
24, 9
17, 10
19, 6
37, 8
20, 6
19, 5
27, 3
23, 7
10, 2
13, 1
10, 1
6, 7
11, 7
4, 5
0, 2
6, 5
6, 7
6, 14
8, 15
12, 11
16, 15
17, 18
9, 15
10, 13
16, 22
14, 24
14, 16
8, 29
15, 41
10, 38
9, 38
6, 39
6, 45
13, 49
5, 20
6, 23
10, 30
4, 15
8, 8
8, 6
13, 6
10, 8
12, 2
8, 5
9, 7
2, 2
6, 4
3, 8
2, 8
7, 5
6, 9
5, 1
11, 7
6, 6
12, 6
14, 20
19, 15
19, 16
29, 12
39, 23
42, 11
43, 8
38, 12
37, 5
47, 8
48, 11
56, 7
36, 8
32, 10
30, 8
18, 17
16, 15
25, 15
26, 24
37, 26
35, 37
45, 53
70, 64
82, 56
100, 50
85, 44
102, 31
79, 34
111, 23
115, 34
119, 35
97, 26
93, 26
73, 36
78, 60
79, 65
97, 117
168, 168
265, 332
516, 547
848, 856
1186, 1237
1582, 1637
1960, 1966
2407, 2187
2501, 2238
2451, 2119
2129, 1755
1877, 1371
1361, 990
931, 691
623, 404
380, 247
208, 136
96, 66
52, 32
31, 29
20, 20
23, 15
21, 15
19, 10
31, 16
33, 19
44, 14
49, 28
68, 52
89, 75
127, 126
149, 157
251, 219
285, 262
341, 325
363, 370
395, 317
380, 269
342, 274
236, 209
181, 148
151, 81
92, 67
49, 38
32, 18
26, 12
14, 12
9, 5
8, 9
3, 5
8, 12
8, 12
19, 10
16, 18
11, 14
13, 10
20, 7
10, 4
10, 4
8, 3
6, 2
7, 4
3, 2
10, 0
6, 3
7, 1
4, 5
0, 3
2, 8
8, 2
9, 3
6, 3
3, 4
6, 5
8, 3
1, 6
3, 3
9, 6
10, 5
9, 0
7, 9
7, 3
15, 4
8, 4
21, 5
22, 4
25, 4
29, 3
25, 4
36, 6
26, 3
27, 7
17, 9
19, 11
13, 7
17, 4
4, 4
6, 5
4, 2
6, 5
8, 5
4, 3
3, 5
0, 3
4, 4
10, 8
6, 5
5, 4
7, 8
3, 1
8, 4
2, 0
5, 2
4, 4
2, 3
3, 1
4, 3
1, 2
4, 3
2, 5
6, 2
4, 2
2, 5
2, 4
4, 2
1, 3
2, 4
5, 3
1, 5
2, 0
0, 2
3, 4
5, 3
2, 4
4, 4
1, 6
3, 5
5, 4
1, 8
4, 5
3, 2
4, 0
6, 1
4, 3
3, 2
4, 2
6, 2
2, 0
3, 6
4, 3
3, 2
1, 5
1, 3
7, 6
2, 2
5, 2
10, 1
5, 2
10, 3
5, 2
6, 3
7, 4
5, 5
1, 3
4, 2
3, 5
3, 6
2, 6
3, 6
5, 2
7, 11
2, 4
3, 7
1, 6
3, 6
1, 4
2, 4
2, 5
5, 4
4, 4
5, 2
2, 4
0, 1
2, 7
3, 3
2, 1
4, 8
4, 4
3, 1
1, 3
1, 3
1, 2
2, 2
2, 4
3, 5
4, 4
2, 2
2, 6
4, 6
2, 3
4, 3
0, 3
0, 3
6, 2
1, 4
1, 3
2, 2
1, 2
5, 3
2, 4
3, 1
5, 2
2, 3
4, 0
3, 0
4, 3
2, 2
3, 1
6, 2
1, 0
4, 2
4, 2
2, 4
3, 2
3, 3
1, 3
2, 1
3, 1
4, 2
4, 1
3, 0
2, 0
4, 3
3, 2
3, 1
1, 4
3, 2
7, 1
2, 1
1, 3
3, 1
4, 1
3, 1
0, 1
7, 3
1, 3
1, 3
5, 1
2, 2
6, 0
0, 3
0, 0
1, 3
2, 3
0, 0
1, 5
2, 4
3, 3
1, 3
3, 1
2, 4
2, 2
4, 0
6, 2
2, 4
4, 1
0, 0
2, 2
4, 0
0, 5
5, 3
3, 2
1, 2
2, 2
3, 2
4, 7
1, 2
6, 5
7, 4
4, 2
5, 1
5, 4
5, 4
5, 3
2, 2
3, 1
2, 1
2, 1
2, 1
0, 2
0, 1
5, 2
2, 1
3, 1
2, 2
3, 2
1, 1
2, 2
0, 4
0, 2
3, 2
2, 2
2, 2
1, 0
0, 1
1, 5
2, 3
2, 2
5, 2
0, 2
2, 2
2, 0
2, 0
1, 1
2, 3
2, 2
2, 0
1, 0
0, 1
1, 0
2, 2
2, 1
1, 3
2, 2
0, 1
2, 0
1, 1
2, 1
2, 0
1, 1
2, 0
0, 1
2, 1
1, 2
1, 2
1, 0
2, 2
1, 0
1, 0
2, 1
1, 1
1, 2
1, 1
1, 2
1, 1
2, 1
2, 2
1, 2
1, 0
1, 0
1, 2
0, 0
1, 0
3, 1
1, 0
1, 0
0, 1
2, 0
0, 0
0, 1
1, 0
1, 1
1, 2
0, 1
1, 1
2, 1
1, 0
1, 0
0, 1
1, 2
1, 1
0, 1
0, 1
2, 0
2, 1
1, 1
1, 0
0, 0
0, 1
2, 1
3, 0
1, 1
0, 1
1, 0
0, 0
1, 0
0, 1
0, 3
0, 0
0, 1
0, 1
0, 0
1, 0
1, 0
0, 1
0, 0
1, 0
1, 0
0, 1
2, 0
1, 1
1, 3
0, 0
1, 0
0, 1
0, 1
0, 0
0, 0
1, 1
1, 0
1, 0
0, 2
1, 0
1, 1
0, 0
3, 0
1, 0
1, 0
0, 0
0, 0
0, 1
0, 0
0, 3
1, 1
0, 0
0, 0
1, 0
1, 0
0, 0
1, 1
0, 0
0, 0
0, 0
1, 0
0, 1
1, 0
0, 1
0, 0
2, 1
0, 0
1, 0
0, 0
0, 0
0, 0
2, 1
1, 2
0, 0
0, 0
0, 0
1, 1
0, 0
0, 0
0, 0
0, 0
0, 0
0, 0
0, 1
0, 0
0, 0
0, 1
0, 0
1, 0
1, 0
1, 0
1, 0
0, 0
0, 0
0, 0
0, 1
0, 0
1, 0
0, 0
1, 1
0, 0
0, 0
1, 0
0, 0
0, 1
1, 0
1, 0
0, 0
1, 1
2, 0
0, 1
2, 1
0, 1
0, 0
0, 0
0, 1
1, 0
0, 0
1, 0
1, 0
1, 0
0, 0
0, 1
2, 0
0, 0
0, 0
0, 0
0, 1
0, 0
0, 0
0, 0
0, 0
0, 0
0, 0
1, 0
0, 0
1, 0
0, 1
0, 0
0, 0
1, 0
0, 0
0, 0
1, 0
0, 0
0, 0
0, 0
0, 0
0, 0
0, 0
0, 0
1, 1
0, 1
0, 1
0, 0
0, 1
0, 0
0, 0
0, 0
0, 0
0, 0
0, 0
0, 0
0, 1
0, 0
0, 0
0, 0
1, 0
0, 0
0, 0
0, 0
0, 0
0, 0
0, 0
0, 1
0, 1
0, 0
1, 0
0, 0
0, 0
1, 0
0, 0
1, 1
0, 0
0, 0
0, 0
0, 0
1, 0
1, 0
0, 0
0, 0
0, 0
0, 0
0, 0
0, 0
0, 0
0, 0
0, 0
0, 0
0, 1
0, 0
0, 0
0, 0
0, 0
0, 0
0, 0
0, 0
0, 0
0, 0
0, 0
0, 0
0, 0
0, 1
0, 1
0, 0
0, 0
1, 0
0, 0
0, 0
0, 0
0, 0
0, 0
0, 0
0, 0
0, 2
0, 1
0, 0
0, 0
0, 0
0, 0
0, 0
1, 0
1, 0
0, 1
0, 0
0, 0
0, 0
0, 1
0, 0
0, 0
0, 0
0, 0
1, 0
0, 0
0, 0
0, 0
0, 0
0, 0
0, 1
0, 0
0, 0
0, 0
0, 1
0, 0
0, 0
0, 0
0, 1
0, 0
1, 0
0, 0
0, 0
0, 0
1, 0
0, 0
0, 0
0, 0
0, 0
0, 0
0, 0
0, 0
0, 0
0, 0
0, 0
0, 0
0, 0
0, 0
2, 0
0, 0
0, 0
1, 0
0, 0
0, 0
1, 0
0, 0
0, 0
0, 0
0, 0
0, 0
0, 0
0, 0
0, 0
0, 0
0, 0
0, 0
0, 0
0, 0
0, 0
0, 0
0, 0
0, 0
0, 0
0, 0
0, 1
0, 0
0, 0
0, 0
0, 0
0, 0
0, 1
0, 0
0, 0
0, 0
0, 0
0, 0
0, 0
0, 0
0, 0
0, 0
0, 0
0, 0
0, 0
0, 0
0, 0
0, 0
0, 0
0, 0
0, 0
0, 0
0, 0
0, 0
0, 0
0, 0
1, 0
0, 0
0, 0
0, 0
0, 0
0, 0
0, 0
0, 0
0, 0
0, 0
0, 1
0, 0
0, 0
0, 0
0, 0
0, 1
0, 0
0, 0
0, 0
0, 0
0, 0
0, 0
0, 0
0, 0
0, 0
0, 0
0, 0
0, 0
0, 0
0, 0
0, 0
0, 0
0, 0
0, 0
0, 0
0, 0
1, 0
0, 0
0, 0
0, 0
0, 0
0, 0
0, 0
0, 0
0, 0
0, 0
0, 0
0, 0
0, 0
1, 0
0, 0
0, 0
0, 0
0, 0
0, 0
0, 0
0, 0
0, 0
0, 0
0, 0
0, 0
0, 0
0, 0
0, 0
0, 0
0, 0
0, 0
0, 0
0, 0
0, 0
0, 0
0, 0
0, 0
0, 0
0, 0
0, 0
0, 0
0, 0
0, 0
0, 0
0, 0
0, 0
0, 0
0, 0
0, 0
0, 0
0, 0
0, 0
0, 0
0, 0
0, 0
0, 0
0, 0
0, 0
0, 0
0, 0
0, 0
0, 0
0, 0
0, 0
0, 0
0, 0
0, 0
0, 0
0, 0
0, 0
0, 0
0, 0
0, 0
0, 0
0, 0
0, 0
0, 0
0, 0
0, 0
0, 0
0, 0
0, 0
0, 0
0, 0
0, 0
0, 0
0, 0
0, 0
0, 0
0, 0
0, 0
0, 0
0, 0
0, 0
0, 0
0, 0
0, 0
0, 0
0, 0
0, 0
0, 0
0, 0
0, 0
0, 0
0, 0
0, 0
0, 0
0, 0
0, 0
0, 0
0, 0
0, 0
0, 0
0, 0
0, 0
0, 0
0, 0
0, 0
0, 0
0, 0
0, 0
0, 0
0, 0
0, 0
0, 0
0, 0
0, 0
0, 0
0, 0
0, 0
0, 0
0, 0
0, 0
0, 0
0, 0
0, 0
0, 0
0, 0
0, 0
0, 0
0, 0
0, 0
0, 0
0, 0
0, 0
0, 0
0, 0
0, 0
0, 0
0, 0
0, 0
0, 0
0, 0
0, 0
0, 0
0, 0
0, 0
0, 0
0, 0
0, 0
0, 0
0, 0
0, 0
0, 0
0, 0
0, 0
0, 0
1, 0
0, 0
0, 0
0, 0
0, 0
0, 0
0, 0
0, 0
0, 0
0, 0
0, 0
0, 0
0, 0
0, 0
0, 0
0, 0
0, 0
0, 0
0, 0
0, 0
0, 0
0, 0
0, 0
0, 0
0, 0
0, 0
0, 0
0, 0
0, 0
0, 0
0, 0
0, 0
0, 0
0, 0
0, 0
0, 0
0, 0
0, 0
0, 0
0, 0
0, 0
0, 0
0, 0
0, 0
0, 0
0, 0
0, 0
0, 0
0, 0
0, 0
0, 0
0, 0
0, 0
0, 0
0, 0
0, 0
0, 0
0, 0
0, 0
0, 0
0, 0
0, 0
0, 0
0, 0
0, 0
0, 0
0, 0
0, 0
0, 0
0, 0
0, 0
0, 0
0, 0
0, 0
0, 0
0, 0
0, 0
0, 0
0, 0
0, 0
0, 0
0, 0
0, 0
0, 0
0, 0
0, 0
0, 0
0, 0
0, 0
0, 0
0, 0
0, 0
0, 0
0, 0
0, 0
0, 0
0, 0
0, 0
0, 0
0, 0
0, 0
0, 0
0, 0
0, 0
0, 0
0, 0
0, 0
0, 0
0, 0
0, 0
0, 0
0, 0
0, 0
0, 0
0, 0
0, 0
0, 0
0, 0
0, 0
0, 0
0, 0
0, 0
0, 0
0, 0
0, 0
0, 0
0, 0
0, 0
0, 0
0, 0
0, 0
0, 0
0, 0
0, 0
0, 0
0, 0
0, 0
0, 0
0, 0
0, 0
0, 0
0, 0
0, 0
0, 0
0, 0
0, 0
0, 0
0, 0
0, 0
0, 0
0, 0
0, 0
0, 0
0, 0
0, 0
0, 0
0, 0
0, 0
0, 0
0, 0
0, 0
0, 0
0, 0
0, 0
0, 0
0, 0
0, 0
0, 0
0, 0
0, 0
0, 0
0, 0
0, 0
0, 0
0, 0
0, 0
0, 0
0, 0
0, 0
0, 0
0, 0
0, 0
0, 0
0, 0
0, 0
0, 0
0, 0
0, 0
0, 0
0, 0
0, 0
0, 0
0, 0
0, 0
#ENDOFDATA     end of spectrum data