File: host_upload/06-09-2024/ps_0852/dump3/ps__0852shot_2350.msa
#FORMAT      : EMSA/MAS spectral data file
#VERSION     : TC202v2.0 PIXL
#TITLE       : N/A
#DATE        :       Date in the format DD-MMM-YYYY, for example 07-JUL-2010
#TIME        :             The time of day at which the spectrum was recorded, in 24-hour format
#OWNER       : PIXL Flight Model       (PIXL will use this to indicate which instrument took the data.)
#NPOINTS     : 4096     Number of data points in the spectrum (This can be zero for configuration only files)
#NCOLUMNS    : 2     Number of data columns in the spectrum (This can be zero for configuration only files)
#XUNITS      : eV
#YUNITS      : COUNTS
#DATATYPE    : YY
#XPERCHAN    : 7.862, 7.881   eV per channel (separate by commas if more than one detector)
#OFFSET      : 18.5, -22.4         eV of first channel  (separate by commas if more than one detector
#SIGNALTYPE  : XRF
#YP_TEMP     : 2.107
#LIVETIME    : 8.55615, 8.55023   seconds (separate by commas if more than one detector)
#REALTIME    : 10, 10.0   seconds (separate by commas if more than one detector)
#SPECTRUM    : start of spectrum data
0, 0
0, 0
0, 0
0, 0
0, 0
0, 0
0, 0
0, 0
0, 0
0, 0
0, 0
0, 0
0, 0
0, 0
0, 0
0, 0
0, 0
0, 0
0, 0
0, 0
0, 0
0, 0
0, 0
0, 0
0, 0
0, 0
0, 0
0, 0
0, 0
0, 0
0, 0
0, 0
0, 0
0, 0
1, 0
1, 0
1, 0
0, 1
2, 0
0, 1
0, 2
0, 0
0, 2
1, 2
1, 0
2, 4
1, 2
1, 1
3, 9
11, 12
15, 21
36, 33
55, 67
70, 79
91, 86
80, 83
64, 58
36, 46
26, 26
12, 14
8, 4
5, 4
2, 2
5, 5
5, 5
4, 4
10, 4
11, 9
22, 17
37, 54
89, 118
172, 191
247, 277
369, 392
412, 449
426, 452
385, 382
276, 305
206, 191
150, 115
68, 60
35, 32
15, 22
3, 4
6, 8
4, 5
3, 1
2, 2
0, 1
0, 2
2, 2
2, 0
2, 7
2, 6
6, 17
16, 10
11, 17
22, 37
22, 32
22, 27
20, 30
18, 25
20, 15
7, 7
10, 6
6, 9
3, 3
8, 6
7, 10
13, 8
16, 19
32, 21
31, 33
33, 36
33, 44
29, 37
37, 36
34, 27
14, 24
28, 21
15, 32
19, 10
20, 24
10, 11
16, 17
17, 17
6, 14
12, 5
6, 7
11, 1
1, 5
2, 1
0, 2
4, 3
2, 1
0, 4
1, 3
4, 3
2, 3
3, 4
3, 1
1, 2
1, 1
3, 4
3, 1
1, 3
3, 2
8, 3
3, 1
4, 1
3, 7
5, 7
6, 10
11, 11
21, 20
21, 21
29, 29
26, 36
29, 31
19, 22
27, 28
22, 14
14, 18
8, 14
9, 17
6, 16
2, 13
6, 12
9, 12
7, 8
7, 11
9, 6
4, 10
7, 11
4, 4
4, 5
3, 6
6, 7
3, 2
6, 3
2, 8
5, 5
1, 1
3, 7
8, 3
7, 4
13, 1
5, 6
10, 5
25, 6
10, 9
32, 3
24, 13
20, 12
21, 18
14, 14
13, 12
21, 12
16, 10
10, 13
15, 15
7, 9
5, 2
6, 9
5, 3
6, 6
6, 2
6, 3
6, 5
9, 9
12, 8
10, 9
3, 7
5, 10
5, 19
10, 12
5, 8
4, 8
7, 7
5, 2
8, 8
6, 12
5, 8
10, 28
5, 29
7, 51
11, 45
7, 62
10, 79
9, 84
13, 105
17, 78
8, 53
10, 47
9, 37
3, 27
9, 17
5, 33
11, 30
7, 37
6, 29
9, 27
4, 35
10, 27
13, 40
13, 39
26, 41
30, 43
42, 64
55, 71
55, 65
64, 67
46, 58
52, 42
41, 46
41, 38
29, 25
20, 11
14, 25
18, 30
18, 22
23, 31
37, 49
81, 113
159, 179
254, 363
473, 647
800, 977
1121, 1422
1545, 1818
1915, 2244
2225, 2527
2314, 2466
2323, 2338
2061, 2022
1663, 1490
1279, 1152
880, 806
572, 460
341, 256
202, 156
115, 73
51, 37
34, 19
21, 14
15, 19
13, 10
21, 10
13, 20
19, 19
24, 37
32, 55
50, 65
64, 88
109, 144
135, 184
202, 230
241, 290
311, 365
343, 359
366, 399
349, 339
281, 294
236, 240
183, 163
113, 121
87, 54
45, 30
30, 26
18, 13
10, 6
5, 4
5, 7
9, 10
10, 5
8, 6
5, 11
11, 6
9, 10
10, 13
14, 10
13, 10
11, 4
11, 5
5, 8
10, 5
4, 5
8, 8
4, 7
4, 4
2, 2
5, 9
5, 1
4, 1
6, 5
3, 11
2, 7
7, 8
3, 5
6, 4
3, 3
4, 6
4, 3
5, 7
3, 5
4, 8
5, 3
9, 5
6, 6
6, 5
3, 4
1, 4
6, 8
7, 2
3, 11
6, 8
2, 7
2, 7
5, 13
6, 16
2, 16
4, 9
1, 8
7, 11
4, 2
4, 6
2, 7
4, 3
6, 9
4, 6
3, 7
5, 3
3, 3
4, 5
3, 2
4, 3
5, 3
1, 6
4, 2
8, 4
3, 1
3, 1
5, 3
6, 5
1, 5
4, 2
2, 4
4, 0
6, 2
2, 5
6, 5
3, 4
7, 3
3, 1
5, 4
2, 1
11, 5
7, 1
7, 5
7, 2
4, 8
6, 3
8, 7
4, 7
4, 3
3, 4
4, 1
2, 0
2, 4
4, 6
6, 4
1, 2
2, 3
6, 3
2, 7
5, 12
2, 8
5, 7
4, 10
4, 9
2, 8
2, 11
6, 11
4, 9
2, 9
6, 5
2, 5
1, 5
2, 4
2, 5
5, 2
4, 3
1, 8
4, 4
1, 5
4, 0
3, 1
2, 3
8, 5
9, 3
10, 6
7, 2
6, 2
8, 1
7, 5
7, 0
13, 1
8, 4
8, 3
4, 2
1, 3
1, 4
3, 5
3, 3
1, 8
0, 3
6, 17
1, 7
0, 8
5, 4
3, 9
2, 8
0, 2
1, 4
2, 5
2, 5
1, 3
1, 3
7, 2
8, 2
2, 1
4, 0
2, 3
1, 4
0, 2
1, 2
5, 2
0, 5
2, 1
0, 5
1, 3
2, 1
1, 3
1, 0
1, 5
3, 5
4, 3
2, 5
2, 2
1, 3
4, 3
3, 1
0, 1
2, 2
4, 1
1, 1
2, 2
6, 5
5, 2
2, 4
3, 3
9, 3
4, 2
5, 6
8, 2
2, 1
2, 5
4, 5
8, 3
2, 4
6, 1
2, 2
0, 1
2, 3
1, 1
5, 1
2, 4
1, 1
1, 3
0, 3
0, 4
4, 2
4, 2
3, 3
2, 2
2, 3
1, 2
3, 3
2, 0
1, 3
0, 2
1, 2
3, 2
1, 2
1, 2
2, 3
5, 1
2, 3
2, 5
3, 5
5, 6
2, 3
5, 4
4, 3
7, 5
0, 2
3, 3
5, 1
2, 2
3, 2
2, 4
0, 0
0, 6
1, 1
1, 2
2, 2
4, 1
2, 2
0, 1
0, 1
1, 2
0, 1
0, 0
1, 0
0, 1
3, 2
2, 2
0, 3
4, 2
6, 4
4, 2
3, 3
2, 2
2, 3
1, 0
0, 1
2, 1
2, 3
0, 2
2, 0
2, 1
1, 1
0, 1
1, 1
1, 3
2, 2
0, 1
2, 2
2, 1
3, 3
0, 0
2, 2
2, 2
1, 0
3, 1
4, 0
5, 0
1, 1
3, 1
2, 1
1, 2
0, 1
1, 0
0, 4
2, 0
1, 1
0, 0
1, 0
1, 1
0, 0
0, 5
1, 0
0, 2
1, 1
5, 1
2, 2
0, 0
0, 1
1, 1
1, 2
1, 2
2, 0
0, 0
1, 2
2, 1
1, 2
2, 0
2, 0
0, 0
0, 1
1, 3
1, 0
0, 0
0, 0
2, 3
1, 0
1, 2
2, 0
0, 0
0, 1
1, 0
0, 0
0, 2
1, 0
1, 0
1, 1
0, 0
2, 2
0, 0
1, 0
1, 0
0, 2
1, 1
1, 1
0, 2
0, 0
0, 2
0, 0
0, 0
0, 1
0, 0
1, 0
0, 1
1, 0
0, 0
0, 1
0, 0
1, 0
0, 0
1, 1
0, 1
0, 0
0, 0
0, 0
1, 0
0, 1
0, 2
0, 1
0, 1
0, 0
1, 1
0, 1
2, 0
1, 0
0, 1
1, 0
0, 0
2, 0
0, 0
1, 0
2, 1
1, 0
0, 0
1, 1
0, 0
0, 1
1, 1
0, 0
1, 0
0, 1
1, 1
1, 0
1, 0
0, 0
0, 0
0, 0
0, 0
0, 1
1, 1
0, 1
0, 1
1, 0
0, 1
1, 1
0, 0
0, 1
0, 0
0, 0
0, 0
0, 0
1, 1
1, 1
1, 1
0, 0
0, 0
0, 1
1, 1
0, 0
0, 1
0, 0
0, 0
0, 0
0, 0
0, 0
0, 1
0, 1
0, 0
0, 0
0, 0
0, 0
0, 1
0, 0
1, 2
0, 0
0, 0
0, 0
0, 0
0, 1
0, 1
0, 0
0, 0
0, 0
1, 0
0, 0
0, 1
0, 2
0, 0
0, 1
0, 0
0, 1
0, 0
1, 0
0, 0
0, 0
0, 1
1, 0
1, 0
0, 0
0, 0
0, 0
0, 0
1, 0
0, 1
1, 0
1, 0
1, 0
0, 0
1, 1
0, 0
2, 0
0, 0
0, 1
0, 1
0, 1
2, 0
0, 0
0, 0
0, 1
0, 1
0, 0
1, 0
0, 0
1, 1
0, 0
0, 1
0, 0
0, 0
0, 0
1, 0
0, 0
2, 0
0, 1
0, 0
0, 0
0, 1
1, 0
0, 0
1, 0
0, 0
0, 0
0, 0
0, 0
0, 0
0, 0
0, 0
0, 0
0, 2
0, 0
0, 0
0, 0
0, 0
0, 0
1, 0
0, 0
0, 0
0, 0
1, 0
0, 0
1, 0
0, 0
0, 0
0, 0
0, 2
1, 0
0, 1
0, 0
1, 0
0, 0
0, 0
0, 0
0, 0
0, 0
1, 0
0, 0
0, 0
0, 0
0, 1
0, 0
0, 0
0, 0
0, 1
0, 0
0, 0
0, 1
0, 0
0, 0
1, 0
0, 0
0, 0
1, 0
0, 0
0, 0
0, 0
0, 0
0, 0
0, 0
0, 0
0, 0
0, 0
0, 0
0, 0
1, 1
0, 0
0, 0
0, 0
0, 0
0, 0
0, 0
0, 0
0, 0
0, 0
0, 0
0, 0
0, 0
0, 1
0, 0
0, 0
0, 0
0, 0
0, 0
0, 0
0, 0
0, 0
0, 0
0, 0
0, 2
0, 0
0, 0
0, 0
0, 0
0, 0
0, 0
0, 0
0, 0
0, 0
0, 0
0, 0
0, 0
0, 0
0, 0
0, 0
0, 0
0, 0
0, 0
0, 0
0, 0
0, 0
0, 0
0, 0
0, 0
0, 0
0, 0
1, 0
0, 0
0, 0
0, 0
0, 0
0, 0
0, 0
0, 0
0, 0
0, 0
0, 0
0, 0
0, 0
0, 0
0, 0
0, 0
0, 0
0, 0
0, 0
1, 0
0, 0
0, 0
0, 0
0, 0
0, 0
0, 0
0, 0
0, 0
0, 0
0, 0
0, 0
0, 0
0, 0
0, 0
0, 0
0, 0
0, 0
0, 0
0, 0
0, 0
0, 0
0, 1
0, 0
0, 0
0, 0
0, 0
0, 1
0, 0
0, 0
0, 0
0, 0
0, 0
0, 0
0, 0
0, 0
0, 0
0, 0
0, 0
0, 0
0, 0
0, 0
0, 0
0, 0
0, 0
0, 0
0, 0
0, 0
0, 0
0, 0
0, 0
0, 0
0, 0
0, 0
0, 0
0, 0
0, 0
0, 0
0, 0
0, 0
0, 0
0, 0
0, 0
0, 0
0, 1
0, 0
0, 0
0, 0
0, 0
0, 0
0, 0
0, 0
0, 0
1, 0
0, 0
0, 0
0, 0
0, 0
0, 0
0, 0
0, 0
0, 0
0, 0
0, 0
0, 0
0, 0
0, 0
0, 0
0, 0
0, 0
0, 0
0, 0
0, 0
0, 0
0, 0
0, 0
0, 0
0, 0
0, 0
0, 0
0, 0
0, 0
0, 0
0, 0
0, 0
0, 0
0, 0
0, 0
0, 0
0, 0
0, 0
0, 0
0, 0
0, 0
0, 0
0, 0
0, 0
0, 0
0, 0
0, 0
0, 0
0, 0
0, 0
0, 0
0, 0
0, 0
0, 0
0, 0
0, 0
0, 0
0, 0
0, 0
0, 0
0, 0
0, 0
0, 0
0, 0
0, 0
0, 0
0, 0
0, 0
0, 0
0, 0
0, 0
0, 0
0, 0
0, 0
0, 0
0, 0
0, 0
0, 0
0, 0
0, 0
0, 0
0, 0
0, 0
0, 0
0, 0
0, 0
0, 0
0, 0
0, 0
0, 0
0, 0
0, 0
0, 0
0, 0
0, 0
0, 0
0, 0
0, 0
0, 0
0, 0
0, 0
0, 0
0, 0
0, 0
0, 0
0, 0
0, 0
0, 0
0, 0
0, 0
0, 0
0, 0
0, 0
0, 0
0, 0
0, 0
0, 0
0, 0
0, 0
0, 0
0, 0
0, 0
0, 0
0, 0
0, 0
0, 0
0, 0
0, 0
0, 0
0, 0
0, 0
0, 0
0, 0
0, 0
0, 0
0, 0
0, 0
0, 0
0, 0
0, 0
0, 0
0, 0
0, 0
0, 0
0, 0
0, 0
0, 0
0, 0
0, 0
0, 0
0, 0
0, 0
0, 0
0, 0
0, 0
0, 0
0, 0
0, 0
0, 0
0, 0
0, 0
0, 0
0, 0
0, 0
0, 0
0, 0
0, 0
0, 0
0, 0
0, 0
0, 0
0, 0
0, 0
0, 0
0, 0
0, 0
0, 0
0, 0
0, 0
0, 0
0, 0
0, 0
0, 0
0, 0
0, 0
0, 0
0, 0
0, 0
0, 0
0, 0
0, 0
0, 0
0, 0
0, 0
0, 0
0, 0
0, 0
0, 0
0, 0
0, 0
0, 0
0, 0
0, 0
0, 0
0, 0
0, 0
0, 0
0, 0
0, 0
0, 0
0, 0
0, 0
0, 0
0, 0
0, 0
0, 0
0, 0
0, 0
0, 0
0, 0
0, 0
0, 0
0, 0
0, 0
0, 0
0, 0
0, 0
0, 0
0, 0
0, 0
0, 0
0, 0
0, 0
0, 0
0, 0
0, 0
0, 0
0, 0
0, 0
0, 0
0, 0
0, 0
0, 0
0, 0
0, 0
0, 0
0, 0
0, 0
0, 0
0, 0
0, 0
0, 0
0, 0
0, 0
0, 0
0, 0
0, 0
0, 0
0, 0
0, 0
0, 0
0, 0
0, 0
0, 0
0, 0
0, 0
0, 0
0, 0
0, 0
0, 0
0, 0
0, 0
0, 0
0, 0
0, 0
0, 0
0, 0
0, 0
0, 0
0, 0
0, 0
0, 0
0, 0
0, 0
0, 0
0, 0
0, 0
0, 0
0, 0
0, 0
0, 0
0, 0
0, 0
0, 0
0, 0
0, 0
0, 0
0, 0
0, 0
0, 0
0, 0
0, 0
0, 0
0, 0
0, 0
0, 0
0, 0
0, 0
0, 0
0, 0
0, 0
0, 0
0, 0
0, 0
0, 0
0, 0
0, 0
0, 0
0, 0
0, 0
0, 0
0, 0
0, 0
0, 0
0, 0
0, 0
0, 0
0, 0
0, 0
0, 0
0, 0
0, 0
0, 0
0, 0
0, 0
0, 0
0, 0
0, 0
0, 0
0, 0
0, 0
0, 0
0, 0
0, 0
0, 0
0, 0
0, 0
0, 0
0, 0
0, 0
0, 0
0, 0
#ENDOFDATA     end of spectrum data