File: host_upload/06-09-2024/ps_0852/dump3/ps__0852shot_2057.msa
#FORMAT      : EMSA/MAS spectral data file
#VERSION     : TC202v2.0 PIXL
#TITLE       : N/A
#DATE        :       Date in the format DD-MMM-YYYY, for example 07-JUL-2010
#TIME        :             The time of day at which the spectrum was recorded, in 24-hour format
#OWNER       : PIXL Flight Model       (PIXL will use this to indicate which instrument took the data.)
#NPOINTS     : 4096     Number of data points in the spectrum (This can be zero for configuration only files)
#NCOLUMNS    : 2     Number of data columns in the spectrum (This can be zero for configuration only files)
#XUNITS      : eV
#YUNITS      : COUNTS
#DATATYPE    : YY
#XPERCHAN    : 7.862, 7.881   eV per channel (separate by commas if more than one detector)
#OFFSET      : 18.5, -22.4         eV of first channel  (separate by commas if more than one detector
#SIGNALTYPE  : XRF
#YP_TEMP     : 2.46
#LIVETIME    : 8.5394, 8.53793   seconds (separate by commas if more than one detector)
#REALTIME    : 10, 10.0   seconds (separate by commas if more than one detector)
#SPECTRUM    : start of spectrum data
0, 0
0, 0
0, 0
0, 0
0, 0
0, 0
0, 0
0, 0
0, 0
0, 0
0, 0
0, 0
0, 0
0, 0
0, 0
0, 0
0, 0
0, 0
0, 0
0, 0
0, 0
0, 0
0, 0
0, 0
0, 0
0, 0
0, 0
0, 0
0, 0
0, 0
0, 0
0, 0
0, 0
0, 1
0, 0
1, 0
0, 0
0, 0
0, 1
2, 1
0, 0
1, 1
2, 0
4, 0
2, 1
1, 1
7, 0
2, 0
7, 7
16, 10
24, 26
42, 24
65, 46
77, 65
87, 66
77, 56
64, 53
57, 31
28, 31
19, 9
15, 6
6, 0
0, 0
4, 1
5, 5
3, 6
5, 4
11, 14
18, 20
51, 51
104, 96
176, 165
263, 245
385, 311
419, 382
454, 365
390, 313
290, 242
215, 193
126, 91
72, 58
49, 34
22, 16
11, 12
12, 2
5, 6
2, 3
1, 2
4, 0
0, 0
1, 0
0, 1
2, 0
2, 2
1, 3
1, 3
5, 1
4, 3
6, 2
3, 4
3, 5
5, 7
5, 4
3, 2
5, 3
11, 3
6, 5
11, 9
14, 8
21, 13
26, 16
48, 20
93, 40
134, 29
125, 36
119, 35
121, 38
93, 35
77, 27
54, 33
47, 22
34, 17
26, 14
11, 15
19, 24
19, 13
12, 16
10, 12
15, 5
12, 9
4, 8
4, 5
5, 0
3, 2
1, 1
4, 3
1, 4
2, 3
3, 1
2, 1
1, 3
2, 3
4, 4
1, 3
0, 0
2, 1
6, 1
0, 1
1, 5
4, 4
3, 1
4, 5
10, 8
9, 9
7, 12
11, 15
11, 14
17, 13
13, 23
19, 15
17, 8
16, 15
6, 9
10, 6
3, 9
2, 5
4, 4
5, 7
9, 5
5, 5
4, 3
3, 5
2, 5
5, 8
3, 2
6, 6
5, 6
8, 5
6, 8
6, 6
8, 6
7, 9
4, 6
4, 7
6, 4
6, 2
8, 5
1, 5
7, 5
4, 8
9, 9
8, 4
13, 12
15, 16
7, 13
12, 11
15, 15
20, 13
14, 20
19, 16
19, 16
14, 10
10, 12
10, 11
12, 7
7, 8
7, 9
7, 8
12, 14
10, 16
7, 18
6, 15
5, 20
9, 13
3, 18
10, 13
5, 9
6, 12
8, 6
5, 9
9, 8
5, 7
8, 2
8, 11
8, 10
10, 10
14, 16
17, 15
8, 14
18, 21
19, 26
19, 37
23, 30
19, 50
16, 52
14, 30
20, 41
17, 31
24, 33
15, 15
17, 19
31, 10
26, 13
17, 14
30, 18
43, 25
39, 23
31, 40
33, 50
71, 63
58, 43
67, 61
69, 46
45, 34
47, 34
38, 22
51, 15
22, 14
21, 10
21, 23
20, 15
44, 19
54, 71
85, 121
159, 173
314, 315
493, 483
811, 802
1175, 1197
1627, 1595
1981, 1967
2321, 2099
2491, 2211
2476, 2011
2264, 1810
1796, 1335
1425, 1043
989, 678
633, 446
399, 237
236, 132
129, 81
49, 46
43, 25
28, 13
17, 31
16, 18
18, 11
18, 14
16, 13
23, 20
39, 28
55, 48
83, 77
122, 111
148, 163
234, 200
273, 274
291, 289
355, 306
377, 350
348, 287
297, 261
258, 208
188, 150
127, 88
103, 65
62, 43
46, 21
22, 14
11, 10
17, 10
11, 12
16, 15
13, 15
14, 13
15, 27
18, 17
14, 15
16, 22
15, 17
16, 17
7, 14
5, 16
8, 12
11, 6
6, 6
11, 5
7, 7
6, 3
1, 1
5, 5
5, 2
6, 1
8, 4
5, 2
2, 3
8, 3
7, 4
4, 3
3, 5
3, 7
5, 1
8, 4
6, 5
8, 4
6, 0
7, 2
6, 4
7, 4
5, 5
9, 5
4, 9
4, 2
5, 2
7, 4
7, 6
9, 4
6, 2
8, 8
9, 2
6, 8
8, 6
12, 9
12, 7
5, 2
3, 2
8, 6
13, 3
9, 5
5, 5
5, 4
3, 5
8, 4
8, 3
1, 4
6, 2
6, 5
5, 3
3, 3
5, 2
5, 3
2, 3
1, 7
5, 3
4, 1
7, 2
3, 2
2, 4
3, 4
3, 5
5, 3
5, 5
2, 8
3, 3
3, 4
3, 6
7, 5
5, 4
1, 4
8, 4
7, 2
4, 1
2, 5
2, 5
0, 0
4, 5
3, 4
2, 4
3, 3
2, 6
4, 1
4, 4
2, 2
8, 4
4, 1
7, 4
3, 2
6, 5
3, 2
6, 4
4, 3
5, 1
6, 3
6, 2
6, 1
6, 2
6, 2
1, 2
7, 3
2, 2
4, 3
8, 3
1, 3
2, 4
4, 2
3, 4
2, 2
3, 3
6, 2
3, 3
1, 3
4, 4
3, 4
6, 6
1, 7
2, 2
1, 3
0, 7
1, 7
1, 6
5, 3
0, 4
3, 5
3, 5
6, 2
3, 2
5, 5
3, 2
5, 3
4, 1
3, 1
4, 4
1, 6
5, 7
5, 6
5, 5
3, 6
1, 6
3, 1
2, 7
5, 2
3, 3
1, 1
1, 3
3, 1
2, 1
1, 6
3, 3
4, 1
3, 1
4, 1
3, 2
1, 2
3, 4
4, 2
2, 1
3, 3
5, 2
5, 3
4, 4
4, 3
5, 3
1, 4
5, 3
3, 1
2, 0
5, 2
2, 1
3, 4
3, 3
4, 3
2, 3
1, 0
3, 0
3, 4
0, 0
2, 0
1, 2
2, 2
3, 0
2, 3
0, 0
4, 1
1, 2
1, 2
3, 1
1, 2
1, 1
1, 1
1, 1
2, 3
1, 3
1, 4
2, 1
1, 5
0, 3
2, 5
2, 3
2, 3
1, 1
1, 6
2, 4
5, 0
1, 4
1, 2
3, 4
3, 4
4, 3
1, 4
7, 3
2, 1
2, 4
4, 5
3, 5
7, 1
6, 5
1, 3
1, 1
2, 2
3, 2
1, 1
1, 2
4, 4
2, 1
1, 2
1, 5
1, 6
3, 2
4, 0
2, 1
0, 0
3, 3
3, 0
2, 1
3, 0
4, 1
3, 1
2, 0
0, 0
1, 0
1, 1
4, 1
2, 1
2, 2
2, 0
0, 2
3, 1
4, 0
1, 0
1, 2
2, 0
2, 0
2, 1
2, 2
1, 2
0, 4
1, 4
1, 2
0, 0
1, 0
2, 0
1, 1
1, 1
3, 3
0, 1
0, 0
0, 0
0, 1
1, 0
2, 1
1, 0
1, 2
2, 0
1, 1
0, 0
1, 0
1, 0
0, 2
3, 0
1, 1
0, 2
0, 0
1, 2
2, 0
0, 0
0, 0
2, 2
0, 2
1, 1
0, 0
1, 1
0, 2
1, 0
0, 1
0, 2
3, 1
0, 0
0, 0
2, 0
0, 0
0, 2
1, 0
0, 0
1, 0
1, 1
1, 0
0, 1
2, 0
0, 0
0, 0
1, 0
0, 1
0, 0
0, 1
2, 0
3, 1
0, 0
0, 0
1, 1
1, 0
0, 0
2, 0
0, 1
0, 0
0, 1
2, 2
0, 1
2, 0
1, 1
0, 0
0, 1
0, 1
0, 0
0, 0
1, 1
0, 2
2, 0
0, 0
1, 1
0, 1
1, 0
0, 1
0, 0
1, 1
0, 0
0, 1
0, 2
0, 1
0, 0
0, 0
1, 1
0, 1
1, 0
3, 2
0, 1
2, 2
0, 0
0, 1
0, 0
0, 0
0, 2
0, 0
2, 0
0, 0
0, 0
0, 0
0, 0
1, 0
0, 0
2, 1
1, 0
0, 0
0, 1
0, 0
0, 1
1, 1
0, 0
0, 0
1, 0
0, 0
0, 0
0, 1
0, 0
0, 1
0, 0
0, 1
2, 0
1, 0
1, 0
0, 1
1, 0
0, 1
1, 1
0, 0
0, 0
1, 0
0, 0
0, 0
1, 0
0, 0
0, 0
1, 0
1, 0
0, 0
0, 0
1, 0
0, 0
2, 0
0, 0
0, 1
0, 0
0, 0
3, 0
1, 1
0, 0
1, 1
0, 0
0, 0
0, 0
0, 0
0, 0
0, 0
1, 0
1, 0
0, 0
0, 1
0, 0
0, 0
0, 0
0, 0
0, 0
0, 0
1, 0
0, 1
0, 1
0, 0
0, 0
0, 0
0, 0
0, 0
0, 0
0, 0
0, 2
0, 0
0, 1
0, 1
0, 0
1, 0
2, 0
1, 0
1, 0
0, 0
0, 0
0, 1
1, 1
0, 0
1, 0
0, 0
0, 0
1, 1
0, 0
0, 1
0, 0
0, 0
0, 0
0, 0
0, 0
1, 1
0, 0
0, 1
0, 0
0, 0
0, 0
0, 0
0, 1
1, 0
2, 0
0, 0
0, 0
1, 0
0, 0
0, 0
0, 0
0, 0
0, 0
0, 0
0, 0
0, 0
0, 0
0, 0
0, 0
1, 0
0, 1
0, 0
0, 0
0, 0
0, 1
0, 0
1, 0
0, 0
0, 0
0, 0
0, 0
0, 0
0, 0
0, 1
0, 0
0, 0
0, 0
0, 0
0, 0
0, 1
0, 0
0, 0
1, 0
0, 0
0, 1
0, 0
0, 0
0, 0
0, 0
0, 0
0, 0
0, 0
0, 0
1, 0
1, 2
0, 1
0, 0
0, 0
0, 0
0, 0
0, 0
0, 0
1, 0
0, 0
1, 0
0, 0
0, 0
1, 0
0, 0
0, 0
0, 1
0, 1
0, 0
0, 0
0, 0
0, 0
0, 0
0, 0
1, 0
0, 0
0, 0
0, 0
0, 0
0, 0
0, 0
0, 0
0, 0
0, 0
0, 0
0, 0
0, 0
0, 0
0, 0
0, 0
0, 0
0, 0
0, 0
0, 0
0, 0
1, 0
0, 0
0, 0
0, 0
0, 0
0, 0
0, 0
0, 0
0, 0
0, 0
0, 0
0, 0
0, 0
0, 0
0, 0
0, 0
0, 0
0, 0
0, 0
0, 0
0, 0
0, 0
0, 0
0, 0
0, 0
0, 0
0, 0
0, 0
0, 0
0, 0
0, 0
0, 0
0, 0
0, 0
0, 0
0, 0
0, 1
0, 0
0, 0
0, 0
0, 0
0, 0
0, 0
0, 0
0, 0
0, 0
0, 0
0, 0
0, 0
0, 0
0, 0
0, 0
0, 0
0, 0
0, 0
0, 0
0, 0
0, 0
0, 0
0, 0
0, 0
0, 0
0, 0
0, 0
0, 0
0, 0
0, 0
0, 0
0, 0
0, 0
0, 0
0, 0
0, 0
0, 0
0, 0
0, 0
0, 0
0, 0
1, 0
0, 0
0, 0
0, 0
0, 0
0, 0
0, 0
0, 0
0, 0
0, 0
0, 0
1, 0
0, 0
0, 0
0, 0
0, 0
0, 0
0, 0
0, 0
0, 0
0, 0
0, 0
0, 0
0, 0
0, 0
0, 0
0, 0
0, 0
0, 0
0, 0
0, 0
0, 0
0, 0
0, 0
0, 0
0, 0
0, 0
0, 0
0, 0
0, 0
0, 0
0, 0
0, 0
0, 0
0, 0
0, 0
0, 0
0, 0
0, 0
0, 0
0, 0
0, 0
0, 0
0, 0
0, 0
0, 0
0, 0
0, 0
0, 0
0, 0
0, 0
0, 0
0, 0
0, 0
0, 0
0, 0
0, 0
0, 0
0, 0
0, 0
0, 0
0, 0
0, 1
0, 0
0, 0
0, 0
0, 0
0, 0
0, 0
0, 0
0, 0
0, 0
0, 0
0, 0
0, 0
0, 0
0, 0
0, 0
0, 0
0, 0
0, 0
0, 0
0, 0
0, 0
0, 0
0, 0
0, 0
0, 0
0, 0
0, 0
0, 0
0, 0
0, 0
0, 0
0, 0
0, 0
0, 0
0, 0
0, 0
0, 0
0, 0
0, 0
0, 0
0, 0
0, 0
0, 0
0, 0
0, 0
0, 0
0, 0
0, 0
0, 0
0, 0
0, 0
0, 1
0, 0
0, 0
0, 0
0, 0
0, 0
0, 0
0, 0
0, 0
0, 0
0, 0
0, 0
0, 0
0, 0
0, 0
0, 0
0, 0
0, 0
0, 0
0, 0
0, 0
0, 0
0, 0
0, 0
0, 0
0, 0
0, 0
0, 0
0, 0
0, 0
0, 0
0, 0
0, 0
0, 0
0, 0
0, 0
0, 0
0, 0
0, 0
0, 0
0, 0
0, 0
0, 0
0, 0
0, 0
0, 0
0, 0
0, 0
0, 0
0, 0
0, 0
0, 0
0, 0
0, 0
0, 0
0, 0
0, 0
0, 0
0, 0
0, 0
0, 0
0, 0
0, 0
0, 0
0, 0
0, 0
0, 0
0, 0
0, 0
0, 0
0, 0
0, 0
0, 0
0, 0
0, 0
0, 0
0, 0
0, 0
0, 0
0, 0
0, 0
0, 0
0, 0
0, 0
0, 0
0, 0
0, 0
0, 0
0, 0
0, 0
0, 0
0, 0
0, 0
0, 0
0, 0
0, 0
0, 0
0, 0
0, 0
0, 0
0, 0
0, 0
0, 0
0, 0
0, 0
0, 0
0, 0
0, 0
0, 0
0, 0
0, 0
0, 0
0, 0
0, 0
0, 0
0, 0
0, 0
0, 0
0, 0
0, 0
0, 0
0, 0
0, 0
0, 0
0, 0
0, 0
0, 0
0, 0
0, 0
0, 0
0, 0
0, 0
0, 0
0, 0
0, 0
0, 0
0, 0
0, 0
0, 0
0, 0
0, 0
0, 0
0, 0
0, 0
0, 0
0, 0
0, 0
0, 0
0, 0
0, 0
0, 0
0, 0
0, 0
0, 0
0, 0
0, 0
0, 0
0, 0
0, 0
0, 0
0, 0
0, 0
0, 0
0, 0
0, 0
0, 0
0, 0
0, 0
0, 0
0, 0
0, 0
0, 0
0, 0
0, 0
0, 0
0, 0
0, 0
0, 0
0, 0
0, 0
0, 0
0, 0
0, 0
0, 0
0, 0
0, 0
0, 0
0, 0
0, 0
0, 0
0, 0
0, 0
0, 0
0, 0
0, 0
0, 0
0, 0
0, 0
0, 0
0, 0
0, 0
0, 0
0, 0
0, 0
0, 0
0, 0
0, 0
0, 0
0, 0
0, 0
0, 0
0, 0
0, 0
0, 0
0, 0
0, 0
0, 0
0, 0
0, 0
0, 0
0, 0
0, 0
0, 0
0, 0
0, 0
0, 0
0, 0
0, 0
0, 0
0, 0
0, 0
0, 0
0, 0
0, 0
0, 0
0, 0
0, 0
0, 0
0, 0
0, 0
0, 0
0, 0
0, 0
0, 0
0, 0
0, 0
0, 0
0, 0
0, 0
0, 0
0, 0
0, 0
0, 0
0, 0
0, 0
0, 0
0, 0
0, 0
0, 0
0, 0
0, 0
0, 0
#ENDOFDATA     end of spectrum data