File: host_upload/06-09-2024/ps_0852/dump3/ps__0852shot_2091.msa
#FORMAT      : EMSA/MAS spectral data file
#VERSION     : TC202v2.0 PIXL
#TITLE       : N/A
#DATE        :       Date in the format DD-MMM-YYYY, for example 07-JUL-2010
#TIME        :             The time of day at which the spectrum was recorded, in 24-hour format
#OWNER       : PIXL Flight Model       (PIXL will use this to indicate which instrument took the data.)
#NPOINTS     : 4096     Number of data points in the spectrum (This can be zero for configuration only files)
#NCOLUMNS    : 2     Number of data columns in the spectrum (This can be zero for configuration only files)
#XUNITS      : eV
#YUNITS      : COUNTS
#DATATYPE    : YY
#XPERCHAN    : 7.862, 7.881   eV per channel (separate by commas if more than one detector)
#OFFSET      : 18.5, -22.4         eV of first channel  (separate by commas if more than one detector
#SIGNALTYPE  : XRF
#YP_TEMP     : 2.588
#LIVETIME    : 8.55218, 8.55283   seconds (separate by commas if more than one detector)
#REALTIME    : 10, 10.0   seconds (separate by commas if more than one detector)
#SPECTRUM    : start of spectrum data
0, 0
0, 0
0, 0
0, 0
0, 0
0, 0
0, 0
0, 0
0, 0
0, 0
0, 0
0, 0
0, 0
0, 0
0, 0
0, 0
0, 0
0, 0
0, 0
0, 0
0, 0
0, 0
0, 0
0, 0
0, 0
0, 0
0, 0
0, 0
0, 0
0, 0
0, 0
0, 0
0, 0
0, 0
0, 0
1, 0
1, 0
0, 0
1, 1
1, 1
1, 1
1, 0
0, 0
2, 1
0, 4
0, 1
0, 3
2, 7
6, 5
13, 14
15, 31
40, 32
53, 67
67, 70
89, 87
88, 72
56, 65
37, 37
28, 23
17, 14
11, 4
4, 2
3, 1
1, 2
1, 3
1, 4
4, 7
8, 10
19, 19
49, 50
93, 87
140, 141
223, 283
351, 325
414, 413
418, 393
365, 349
297, 284
197, 197
126, 125
83, 88
35, 41
22, 20
4, 10
7, 4
3, 4
5, 1
3, 2
0, 1
0, 0
2, 0
2, 0
2, 1
1, 1
3, 4
4, 2
2, 2
3, 3
0, 2
5, 6
4, 3
4, 2
2, 5
3, 2
7, 3
1, 4
7, 3
5, 7
3, 5
11, 9
20, 31
25, 27
39, 57
38, 69
41, 72
41, 75
47, 75
43, 71
36, 82
25, 56
24, 45
29, 43
20, 46
16, 37
10, 19
11, 16
20, 15
10, 11
6, 12
7, 8
6, 7
2, 3
3, 4
2, 3
2, 8
1, 5
1, 4
0, 2
4, 2
2, 2
1, 6
1, 3
2, 2
1, 4
4, 2
1, 1
4, 1
3, 3
4, 1
6, 5
3, 5
9, 5
9, 8
11, 10
7, 16
12, 10
20, 22
27, 25
19, 16
22, 18
17, 10
8, 12
10, 11
10, 8
7, 8
6, 2
4, 5
6, 6
6, 7
5, 8
8, 6
6, 4
10, 4
6, 7
3, 5
7, 10
11, 14
7, 32
6, 21
5, 44
3, 28
6, 33
10, 27
7, 31
3, 20
4, 16
3, 14
5, 5
8, 9
4, 9
4, 4
10, 6
8, 10
17, 12
10, 12
10, 7
18, 22
17, 15
14, 25
10, 18
7, 22
7, 25
18, 44
10, 62
8, 50
6, 74
8, 76
4, 62
7, 46
10, 31
15, 37
7, 26
15, 16
7, 12
12, 7
13, 8
10, 14
15, 6
10, 4
10, 5
8, 9
2, 4
12, 1
4, 5
12, 8
8, 13
23, 8
13, 13
20, 20
26, 21
21, 19
20, 12
18, 15
16, 13
14, 15
13, 7
16, 6
8, 12
8, 13
7, 6
6, 4
9, 15
15, 8
9, 8
12, 18
12, 21
20, 35
30, 39
38, 54
53, 55
59, 61
72, 63
64, 53
48, 48
52, 41
34, 36
24, 26
26, 21
18, 21
27, 17
36, 21
53, 40
49, 64
100, 109
165, 213
274, 366
499, 563
762, 915
1114, 1339
1575, 1811
1945, 2127
2125, 2405
2439, 2434
2250, 2245
2092, 1899
1570, 1496
1271, 1086
918, 744
599, 435
342, 278
227, 126
115, 91
59, 31
37, 28
17, 21
15, 15
17, 12
12, 19
15, 21
24, 15
19, 27
30, 47
42, 50
78, 90
93, 142
139, 163
209, 225
262, 276
304, 299
306, 343
353, 374
331, 305
308, 271
219, 229
177, 151
130, 85
85, 72
54, 38
28, 25
13, 17
9, 9
11, 5
8, 6
8, 6
8, 12
11, 13
17, 7
15, 19
10, 11
9, 12
15, 7
9, 5
13, 13
10, 5
8, 6
2, 5
3, 8
6, 0
9, 4
9, 5
4, 4
5, 5
9, 5
3, 7
4, 2
4, 5
6, 10
1, 8
4, 13
3, 14
8, 12
5, 10
4, 22
10, 13
7, 21
3, 11
6, 13
7, 9
2, 8
7, 9
3, 14
8, 8
8, 4
4, 3
6, 3
5, 8
6, 8
6, 5
5, 7
9, 4
5, 7
5, 4
7, 4
6, 6
5, 2
6, 8
13, 1
6, 1
5, 4
3, 0
3, 2
1, 3
5, 2
9, 6
5, 3
5, 5
2, 3
5, 6
3, 4
2, 4
1, 1
2, 2
2, 4
1, 0
6, 5
3, 6
3, 3
5, 5
2, 3
1, 0
9, 6
1, 5
2, 2
4, 1
8, 3
4, 0
3, 3
8, 7
1, 6
3, 5
2, 2
4, 3
1, 1
6, 6
6, 5
5, 3
1, 0
0, 4
3, 6
7, 1
5, 7
3, 4
2, 5
2, 5
6, 5
0, 5
4, 6
2, 2
4, 2
2, 3
1, 3
3, 3
3, 2
2, 5
7, 7
4, 4
1, 1
1, 4
3, 2
7, 9
3, 4
6, 6
3, 6
0, 14
1, 11
3, 11
3, 11
5, 16
0, 14
6, 13
2, 18
3, 3
2, 8
2, 5
2, 6
3, 5
4, 5
2, 5
3, 5
4, 6
3, 1
5, 1
1, 3
1, 2
1, 4
1, 4
4, 1
3, 2
0, 3
4, 2
5, 2
1, 2
1, 3
0, 5
6, 6
5, 2
2, 3
2, 2
0, 3
1, 4
4, 1
1, 3
1, 2
2, 3
2, 1
1, 1
1, 0
3, 6
2, 4
0, 2
3, 2
2, 3
0, 3
3, 0
4, 1
4, 0
0, 3
1, 3
1, 1
1, 4
1, 0
1, 2
1, 1
0, 2
4, 0
2, 1
3, 0
1, 5
5, 0
3, 2
3, 3
5, 3
3, 2
1, 3
0, 1
4, 2
2, 3
1, 4
1, 2
4, 2
2, 6
4, 0
3, 3
0, 4
0, 3
2, 1
1, 2
1, 2
2, 1
0, 2
0, 4
8, 3
0, 4
2, 5
0, 4
1, 2
2, 1
3, 4
1, 3
3, 4
1, 1
1, 2
1, 4
1, 6
0, 2
3, 4
1, 1
1, 1
1, 7
4, 5
2, 0
0, 3
3, 2
6, 8
3, 5
3, 6
5, 3
2, 3
2, 3
4, 2
5, 0
3, 1
6, 3
4, 1
1, 1
1, 2
1, 1
1, 1
0, 1
2, 1
3, 0
3, 1
3, 1
2, 1
4, 1
2, 2
1, 1
2, 2
1, 2
0, 1
4, 1
2, 2
1, 2
1, 3
3, 1
4, 1
1, 2
1, 0
1, 1
2, 3
2, 1
2, 2
2, 1
1, 1
0, 1
0, 1
4, 0
4, 1
2, 2
1, 0
1, 1
1, 0
2, 1
0, 2
1, 1
1, 1
2, 0
5, 1
3, 1
1, 3
1, 4
1, 0
1, 0
1, 2
1, 2
1, 1
0, 2
0, 1
0, 1
2, 1
0, 1
1, 0
0, 0
1, 2
0, 2
1, 1
2, 3
1, 2
0, 1
1, 0
0, 0
0, 0
0, 2
0, 1
1, 2
0, 1
1, 0
1, 0
0, 2
1, 1
1, 2
1, 0
0, 1
0, 3
0, 0
4, 0
2, 1
0, 0
2, 0
0, 0
1, 3
2, 0
1, 1
1, 1
1, 1
0, 1
2, 1
0, 0
1, 0
1, 1
0, 2
1, 2
1, 2
0, 0
1, 1
0, 2
1, 1
1, 0
0, 1
0, 2
1, 1
0, 1
1, 2
0, 0
0, 0
0, 1
0, 0
0, 0
0, 0
0, 0
0, 1
2, 1
0, 1
1, 1
0, 0
1, 0
0, 0
0, 0
0, 0
0, 1
0, 1
2, 0
1, 0
1, 1
0, 0
0, 1
1, 1
0, 0
1, 1
0, 0
1, 0
0, 0
0, 1
0, 1
0, 0
0, 1
1, 0
1, 0
0, 1
0, 0
1, 0
0, 0
2, 0
0, 2
1, 0
0, 0
1, 1
0, 0
0, 0
0, 0
0, 0
0, 0
0, 2
0, 1
0, 0
1, 1
0, 0
0, 1
1, 0
0, 1
0, 0
0, 0
0, 0
0, 0
0, 0
0, 0
0, 0
3, 1
0, 0
3, 0
2, 0
0, 0
0, 1
0, 0
1, 0
1, 0
0, 1
0, 0
0, 0
0, 1
1, 0
0, 1
2, 0
0, 0
0, 0
0, 0
0, 0
1, 1
0, 0
0, 0
1, 0
0, 1
1, 3
0, 0
0, 0
2, 1
0, 0
0, 1
1, 0
0, 0
0, 0
1, 0
0, 0
0, 0
0, 1
0, 0
0, 0
1, 0
0, 0
0, 0
1, 0
0, 0
0, 1
0, 0
0, 1
0, 2
1, 0
0, 0
0, 0
0, 0
0, 0
0, 1
1, 0
0, 0
0, 1
0, 0
1, 0
0, 0
0, 2
0, 2
1, 0
0, 0
1, 0
0, 0
0, 0
0, 0
1, 0
0, 1
0, 0
1, 0
1, 0
0, 0
0, 2
1, 0
0, 0
0, 0
1, 0
0, 1
0, 0
1, 0
0, 1
0, 0
0, 2
0, 0
1, 0
0, 0
1, 0
0, 0
0, 0
0, 0
0, 1
0, 0
0, 0
0, 1
0, 0
0, 0
1, 0
0, 0
0, 0
0, 1
0, 1
0, 0
0, 0
0, 0
0, 0
0, 0
1, 0
0, 0
0, 0
0, 1
0, 0
1, 0
0, 0
0, 0
0, 0
0, 0
1, 1
0, 1
0, 0
0, 0
0, 0
0, 0
0, 1
0, 1
0, 1
0, 0
0, 0
0, 0
0, 0
1, 0
0, 0
0, 0
1, 0
0, 0
0, 0
0, 0
0, 0
0, 0
0, 1
0, 0
0, 0
0, 0
0, 0
0, 0
1, 0
0, 0
0, 0
0, 0
0, 0
0, 0
1, 0
0, 0
0, 0
0, 0
1, 0
0, 0
0, 0
0, 0
0, 0
0, 0
0, 0
0, 0
0, 0
0, 0
0, 0
0, 0
0, 0
0, 0
0, 0
1, 0
0, 0
0, 0
0, 0
0, 0
0, 0
0, 0
0, 0
0, 0
0, 0
0, 0
0, 0
0, 0
0, 1
0, 1
0, 0
0, 0
0, 0
0, 0
0, 0
0, 0
0, 0
0, 0
0, 0
0, 0
0, 0
0, 0
0, 0
0, 0
1, 0
0, 0
0, 0
0, 0
0, 0
0, 0
0, 0
0, 0
0, 0
0, 0
0, 0
0, 0
0, 0
0, 0
0, 0
0, 0
0, 0
0, 0
1, 0
0, 0
0, 0
0, 0
0, 0
0, 0
0, 0
0, 0
0, 0
0, 0
0, 0
0, 0
0, 0
0, 0
0, 0
0, 0
0, 0
0, 0
0, 0
0, 0
0, 0
0, 0
0, 0
0, 0
0, 0
0, 0
0, 0
0, 0
0, 0
0, 0
0, 0
0, 0
0, 0
0, 0
0, 0
0, 0
0, 0
0, 0
0, 0
0, 0
0, 0
0, 0
0, 0
0, 0
0, 0
0, 1
0, 0
0, 0
0, 0
0, 0
0, 0
0, 0
0, 0
0, 0
0, 0
0, 0
0, 0
0, 0
0, 0
0, 0
0, 0
0, 0
0, 0
0, 0
0, 0
0, 0
0, 0
0, 0
0, 0
0, 0
0, 0
0, 0
0, 0
0, 0
0, 0
0, 0
0, 0
0, 0
0, 0
0, 0
0, 0
0, 0
0, 0
0, 0
0, 0
0, 0
0, 0
0, 0
0, 0
0, 0
0, 1
0, 0
0, 0
0, 0
0, 0
0, 0
0, 0
0, 0
0, 0
0, 0
0, 0
0, 0
0, 0
0, 0
0, 0
0, 0
0, 0
0, 0
0, 0
0, 0
0, 0
0, 0
0, 0
0, 0
0, 0
0, 0
0, 0
0, 0
0, 0
0, 0
0, 0
0, 0
0, 0
0, 0
0, 0
0, 0
0, 0
0, 0
0, 0
0, 0
0, 0
0, 0
0, 0
0, 0
0, 0
0, 0
0, 0
0, 0
0, 0
0, 0
0, 0
0, 0
0, 0
0, 0
0, 0
0, 0
0, 0
0, 0
0, 0
0, 0
0, 0
0, 0
0, 0
0, 0
0, 0
0, 0
0, 0
0, 0
0, 0
0, 0
0, 0
0, 0
0, 0
0, 0
0, 0
0, 0
0, 0
0, 0
0, 0
0, 0
0, 0
0, 0
0, 0
0, 0
0, 0
0, 0
0, 0
0, 0
0, 0
0, 0
0, 0
0, 0
0, 0
0, 0
0, 0
0, 0
0, 0
0, 0
0, 0
0, 0
0, 0
0, 0
0, 0
0, 0
0, 0
0, 0
0, 0
0, 0
0, 0
0, 0
0, 0
0, 0
0, 0
0, 0
0, 0
0, 0
0, 0
0, 0
0, 0
0, 0
0, 0
0, 0
0, 0
0, 0
0, 0
0, 0
0, 0
0, 0
0, 0
0, 0
0, 0
0, 0
0, 0
0, 0
0, 0
0, 0
0, 0
0, 0
0, 0
0, 0
0, 0
0, 0
0, 0
0, 0
0, 0
0, 0
0, 0
0, 0
0, 0
0, 0
0, 0
0, 0
0, 0
0, 0
0, 0
0, 0
0, 0
0, 0
0, 0
0, 0
0, 0
0, 0
0, 0
0, 0
0, 0
0, 0
0, 0
0, 0
0, 0
0, 0
0, 0
0, 0
0, 0
0, 0
0, 0
0, 0
0, 0
0, 0
0, 0
0, 0
0, 0
0, 0
0, 0
0, 0
0, 0
0, 0
0, 0
0, 0
0, 0
0, 0
0, 0
0, 0
0, 0
0, 0
0, 0
0, 0
0, 0
0, 0
0, 0
0, 0
0, 0
0, 0
0, 0
0, 0
0, 0
0, 0
0, 0
0, 0
0, 0
0, 0
0, 0
0, 0
0, 0
0, 0
0, 0
0, 0
0, 0
0, 0
0, 0
0, 0
0, 0
0, 0
0, 0
0, 0
0, 0
0, 0
0, 0
0, 0
0, 0
0, 0
0, 0
0, 0
0, 0
0, 0
0, 0
0, 0
0, 0
0, 0
0, 0
0, 0
0, 0
0, 0
0, 0
0, 0
0, 0
0, 0
0, 0
0, 0
0, 0
0, 0
0, 0
0, 0
0, 0
0, 0
0, 0
0, 0
0, 0
0, 0
0, 0
0, 0
0, 0
0, 0
0, 0
0, 0
0, 0
0, 0
0, 0
0, 0
0, 0
0, 0
0, 0
0, 0
0, 0
0, 0
0, 0
0, 0
0, 0
0, 0
0, 0
0, 0
0, 0
0, 0
0, 0
0, 0
0, 0
0, 0
0, 0
0, 0
0, 0
0, 0
0, 0
0, 0
0, 0
0, 0
0, 0
0, 0
0, 0
0, 0
0, 0
0, 0
0, 0
0, 0
0, 0
0, 0
0, 0
0, 0
0, 0
0, 0
0, 0
0, 0
0, 0
0, 0
0, 0
0, 0
0, 0
0, 0
0, 0
0, 0
0, 0
0, 0
0, 0
0, 0
0, 0
0, 0
0, 0
0, 0
0, 0
0, 0
0, 0
0, 0
#ENDOFDATA     end of spectrum data