File: host_upload/06-09-2024/ps_0852/dump3/ps__0852shot_2556.msa
#FORMAT      : EMSA/MAS spectral data file
#VERSION     : TC202v2.0 PIXL
#TITLE       : N/A
#DATE        :       Date in the format DD-MMM-YYYY, for example 07-JUL-2010
#TIME        :             The time of day at which the spectrum was recorded, in 24-hour format
#OWNER       : PIXL Flight Model       (PIXL will use this to indicate which instrument took the data.)
#NPOINTS     : 4096     Number of data points in the spectrum (This can be zero for configuration only files)
#NCOLUMNS    : 2     Number of data columns in the spectrum (This can be zero for configuration only files)
#XUNITS      : eV
#YUNITS      : COUNTS
#DATATYPE    : YY
#XPERCHAN    : 7.862, 7.881   eV per channel (separate by commas if more than one detector)
#OFFSET      : 18.5, -22.4         eV of first channel  (separate by commas if more than one detector
#SIGNALTYPE  : XRF
#YP_TEMP     : 2.267
#LIVETIME    : 8.5562, 8.56505   seconds (separate by commas if more than one detector)
#REALTIME    : 10, 10.0   seconds (separate by commas if more than one detector)
#SPECTRUM    : start of spectrum data
0, 0
0, 0
0, 0
0, 0
0, 0
0, 0
0, 0
0, 0
0, 0
0, 0
0, 0
0, 0
0, 0
0, 0
0, 0
0, 0
0, 0
0, 0
0, 0
0, 0
0, 0
0, 0
0, 0
0, 0
0, 0
0, 0
0, 0
0, 0
0, 0
0, 0
0, 0
0, 0
0, 0
1, 0
0, 0
0, 0
0, 0
0, 0
0, 2
2, 1
1, 3
0, 2
3, 0
2, 4
1, 1
1, 1
2, 2
4, 3
10, 5
6, 8
34, 20
42, 44
61, 61
72, 69
108, 85
78, 70
60, 66
58, 42
20, 29
14, 9
10, 6
6, 4
3, 6
1, 6
3, 4
3, 0
10, 3
8, 11
22, 19
55, 38
91, 116
185, 158
326, 293
382, 338
426, 434
451, 386
373, 343
315, 265
217, 198
133, 131
74, 65
40, 42
17, 13
17, 13
10, 4
6, 4
1, 2
2, 4
0, 2
0, 2
0, 1
0, 1
1, 1
1, 0
1, 2
1, 1
4, 5
4, 2
4, 3
5, 2
1, 2
1, 5
4, 2
4, 2
5, 2
5, 0
8, 6
10, 6
18, 8
19, 17
21, 22
38, 49
48, 65
47, 81
59, 99
74, 66
50, 95
44, 62
45, 51
32, 35
31, 30
21, 19
21, 30
21, 18
12, 20
8, 12
10, 12
8, 9
6, 6
8, 7
3, 6
5, 5
7, 3
1, 3
3, 3
1, 0
1, 1
1, 2
1, 0
5, 0
2, 4
2, 2
0, 3
0, 3
2, 3
2, 3
3, 2
2, 1
2, 0
1, 3
2, 4
3, 3
3, 5
14, 11
21, 14
22, 14
20, 19
33, 11
23, 18
19, 13
16, 11
6, 7
9, 7
2, 4
2, 6
6, 4
8, 4
5, 8
2, 13
5, 2
10, 8
8, 5
7, 7
7, 3
4, 2
5, 1
5, 5
4, 4
5, 7
2, 3
5, 8
4, 6
5, 3
2, 2
1, 2
8, 3
5, 3
11, 3
12, 4
8, 9
6, 8
21, 13
19, 13
27, 13
21, 6
25, 13
21, 19
14, 10
18, 11
15, 12
12, 15
14, 7
5, 4
4, 9
10, 6
5, 6
3, 12
5, 7
6, 6
8, 6
5, 7
4, 3
6, 6
5, 8
3, 4
6, 10
6, 7
4, 14
7, 19
2, 27
8, 36
5, 59
6, 84
11, 118
12, 137
14, 154
12, 127
12, 99
12, 86
14, 56
10, 51
11, 31
13, 24
13, 15
6, 7
22, 9
20, 3
32, 6
50, 6
56, 12
68, 8
74, 13
84, 10
109, 7
98, 25
68, 30
84, 27
73, 32
79, 56
91, 58
76, 45
80, 52
67, 48
59, 45
58, 29
35, 19
32, 21
15, 12
25, 21
15, 13
17, 18
39, 25
40, 54
73, 100
153, 195
278, 320
498, 542
821, 909
1194, 1260
1682, 1785
2062, 2153
2319, 2395
2552, 2473
2463, 2223
2235, 1837
1828, 1484
1352, 985
895, 688
580, 413
328, 239
204, 129
108, 74
49, 36
33, 19
17, 17
12, 18
18, 10
12, 12
17, 16
23, 27
37, 20
34, 25
58, 52
72, 87
80, 110
157, 169
203, 224
281, 283
334, 309
355, 316
369, 368
365, 352
306, 273
278, 199
189, 140
125, 108
98, 58
70, 43
41, 17
41, 12
37, 4
35, 9
65, 10
62, 10
64, 10
68, 10
73, 5
42, 15
42, 14
30, 15
30, 11
21, 10
18, 4
7, 8
8, 5
8, 6
6, 8
7, 3
2, 4
2, 3
3, 7
1, 0
3, 5
4, 2
3, 1
4, 3
0, 1
3, 2
6, 6
4, 3
3, 5
2, 5
5, 3
3, 6
3, 6
4, 3
3, 8
3, 5
6, 1
7, 5
5, 5
4, 6
3, 9
7, 2
5, 4
2, 4
4, 2
7, 1
7, 3
5, 6
11, 1
7, 2
8, 5
10, 0
7, 7
11, 2
13, 3
5, 5
7, 5
10, 3
10, 5
8, 3
5, 8
5, 2
6, 3
7, 1
1, 4
3, 6
4, 2
4, 3
6, 6
4, 2
6, 1
5, 1
2, 3
2, 2
2, 4
4, 3
8, 2
4, 6
2, 4
2, 4
4, 8
4, 4
1, 10
5, 4
8, 3
5, 4
1, 6
1, 4
5, 3
1, 2
3, 2
3, 4
0, 1
0, 7
5, 2
2, 3
1, 2
3, 4
6, 2
8, 2
2, 9
1, 4
2, 0
5, 1
5, 2
2, 2
0, 2
4, 4
2, 3
6, 5
2, 2
5, 1
2, 2
3, 1
2, 3
11, 2
9, 2
15, 3
18, 0
28, 3
25, 3
13, 5
14, 4
24, 5
16, 1
20, 3
13, 3
11, 3
5, 1
5, 1
6, 3
3, 3
6, 3
1, 1
5, 2
2, 5
2, 7
2, 2
1, 5
2, 3
4, 4
2, 6
1, 0
1, 2
5, 3
1, 1
1, 1
2, 4
2, 3
2, 2
2, 1
2, 7
3, 0
3, 1
2, 2
3, 4
0, 1
2, 1
3, 3
2, 3
1, 3
4, 3
2, 3
1, 2
0, 1
1, 0
2, 2
1, 3
3, 1
3, 1
4, 6
2, 3
4, 2
5, 1
2, 3
2, 2
1, 1
3, 3
5, 2
4, 3
2, 1
4, 3
2, 3
2, 3
2, 2
5, 3
2, 5
5, 8
2, 2
1, 8
3, 7
5, 10
7, 2
3, 3
2, 7
5, 3
3, 3
8, 8
5, 4
1, 1
1, 6
1, 1
1, 2
1, 4
1, 2
5, 0
6, 3
1, 3
1, 1
1, 1
6, 2
4, 2
3, 0
1, 3
3, 0
0, 1
2, 1
1, 2
2, 0
0, 1
0, 1
2, 2
1, 1
4, 1
2, 3
2, 5
5, 3
3, 6
6, 3
8, 3
1, 3
4, 5
5, 0
0, 2
2, 2
5, 3
2, 1
1, 2
4, 1
4, 2
0, 2
1, 1
1, 1
2, 0
1, 0
0, 0
0, 1
3, 1
1, 1
2, 0
2, 0
0, 0
5, 2
4, 1
1, 2
2, 2
2, 2
1, 2
3, 4
1, 6
1, 1
3, 1
3, 1
1, 2
2, 2
0, 1
1, 3
3, 1
0, 1
2, 0
0, 0
0, 0
0, 0
1, 0
0, 0
2, 1
1, 0
1, 1
0, 0
1, 1
1, 0
2, 2
2, 2
1, 1
1, 3
0, 0
0, 0
0, 3
0, 0
1, 2
0, 0
2, 0
2, 0
1, 0
1, 1
2, 0
5, 0
0, 0
2, 0
0, 2
0, 0
0, 3
3, 0
0, 0
1, 1
2, 1
2, 4
0, 1
1, 0
0, 0
3, 2
0, 0
1, 1
1, 0
3, 2
1, 2
1, 1
4, 2
0, 0
1, 0
1, 2
0, 3
0, 0
2, 1
2, 1
1, 2
0, 0
1, 1
1, 1
0, 0
0, 1
0, 0
0, 0
0, 1
0, 2
1, 0
1, 0
0, 0
0, 1
0, 1
0, 0
0, 0
1, 0
1, 0
0, 0
0, 0
0, 0
1, 0
0, 0
0, 0
2, 1
0, 1
0, 0
0, 1
1, 0
0, 0
1, 0
1, 1
0, 0
0, 1
0, 0
1, 0
2, 0
2, 0
0, 1
2, 2
0, 1
1, 2
0, 0
1, 0
2, 1
0, 0
0, 1
1, 0
0, 2
2, 0
1, 0
1, 0
0, 1
0, 0
0, 0
0, 0
2, 1
0, 2
1, 0
1, 0
1, 1
0, 0
0, 0
1, 0
0, 0
0, 0
0, 0
0, 0
2, 1
0, 0
0, 0
1, 0
1, 0
0, 0
0, 0
0, 0
0, 0
0, 0
0, 1
0, 0
0, 1
1, 0
0, 1
1, 0
0, 1
1, 0
1, 0
0, 0
0, 0
0, 0
0, 0
0, 0
1, 0
1, 1
1, 1
3, 0
0, 0
1, 1
0, 1
0, 0
3, 0
0, 0
0, 0
0, 0
0, 0
0, 0
0, 0
0, 0
1, 0
0, 0
0, 2
0, 0
0, 0
0, 0
0, 0
1, 0
0, 0
0, 0
0, 0
0, 0
0, 0
0, 0
0, 0
0, 0
0, 0
1, 0
0, 0
0, 0
0, 0
1, 1
0, 1
0, 0
0, 0
1, 1
0, 0
0, 1
0, 0
1, 0
0, 0
0, 0
0, 0
0, 0
0, 0
0, 0
0, 1
0, 1
1, 1
0, 0
0, 0
0, 0
1, 0
0, 0
0, 1
0, 0
1, 0
0, 1
1, 0
1, 0
2, 0
0, 0
0, 0
0, 1
0, 0
0, 0
0, 1
0, 0
0, 0
0, 0
1, 0
0, 0
0, 0
2, 0
1, 0
0, 0
0, 0
0, 0
0, 0
0, 1
0, 0
1, 1
0, 0
0, 0
0, 0
0, 0
0, 1
0, 0
0, 0
0, 0
0, 0
0, 0
0, 0
0, 0
0, 0
0, 0
0, 0
0, 0
0, 0
0, 0
0, 0
0, 0
0, 0
0, 1
0, 0
0, 0
0, 0
0, 0
0, 0
0, 0
0, 0
0, 1
0, 0
0, 0
0, 0
0, 0
0, 0
0, 0
1, 0
2, 1
0, 0
0, 0
0, 0
1, 0
0, 0
2, 0
0, 0
0, 0
0, 0
0, 0
0, 0
0, 0
0, 0
0, 0
0, 0
0, 0
0, 1
0, 1
0, 0
0, 0
0, 0
2, 0
0, 0
1, 1
0, 0
0, 0
0, 0
0, 0
0, 0
0, 0
0, 0
0, 0
0, 0
0, 0
0, 0
0, 0
0, 0
0, 0
0, 0
0, 0
0, 0
0, 0
0, 0
0, 0
0, 0
0, 0
0, 0
0, 0
0, 0
1, 0
1, 0
0, 0
0, 0
0, 0
0, 0
0, 0
0, 0
0, 0
0, 0
0, 0
0, 0
0, 0
0, 0
0, 0
0, 0
0, 0
0, 0
0, 1
0, 1
0, 1
0, 0
0, 0
0, 0
0, 0
0, 0
0, 0
0, 0
0, 0
0, 0
0, 0
0, 0
0, 0
0, 0
1, 0
0, 0
0, 0
0, 0
0, 0
0, 0
0, 0
0, 0
0, 0
0, 0
0, 0
0, 0
0, 0
0, 0
0, 0
0, 0
0, 0
0, 0
0, 0
0, 0
0, 0
0, 0
0, 0
0, 0
0, 0
0, 0
0, 0
0, 0
0, 1
0, 0
0, 0
0, 0
0, 0
0, 0
0, 0
0, 0
0, 0
0, 0
0, 0
0, 0
0, 0
0, 0
0, 0
0, 0
0, 0
0, 0
0, 0
0, 0
0, 0
0, 0
0, 0
0, 0
0, 0
0, 0
0, 0
0, 0
0, 0
0, 0
0, 0
0, 0
0, 0
0, 0
0, 0
0, 0
0, 0
0, 0
0, 0
0, 0
0, 0
0, 0
0, 0
0, 0
0, 0
0, 0
0, 0
0, 0
0, 0
0, 0
0, 0
0, 0
0, 0
0, 0
0, 0
0, 0
0, 0
0, 0
0, 0
0, 0
0, 0
0, 0
0, 0
0, 0
0, 0
0, 0
0, 0
0, 0
0, 0
0, 0
0, 0
0, 0
0, 0
0, 0
0, 0
0, 0
0, 0
0, 0
0, 0
0, 0
0, 0
0, 0
0, 1
0, 0
0, 0
0, 0
0, 0
0, 0
0, 0
0, 0
0, 0
0, 0
0, 0
0, 0
0, 0
0, 0
0, 0
0, 0
0, 0
0, 0
0, 0
0, 0
0, 0
0, 0
0, 0
0, 0
0, 0
0, 0
0, 0
0, 0
0, 0
0, 0
0, 0
0, 0
0, 0
0, 0
0, 0
0, 0
0, 0
0, 0
0, 0
0, 0
0, 0
0, 0
0, 0
0, 0
0, 0
0, 0
0, 0
0, 0
0, 0
0, 0
0, 0
0, 0
0, 0
0, 0
0, 0
0, 0
0, 0
0, 0
0, 0
0, 0
0, 0
0, 0
0, 0
0, 0
0, 0
0, 0
0, 0
0, 0
0, 0
0, 0
0, 0
0, 0
0, 0
0, 0
0, 0
0, 0
0, 0
0, 0
0, 0
0, 0
0, 0
0, 0
0, 0
0, 0
0, 0
0, 0
0, 0
0, 0
0, 0
0, 0
0, 0
0, 0
0, 0
0, 0
0, 0
0, 0
0, 0
0, 0
0, 0
0, 0
0, 0
0, 0
0, 0
0, 0
0, 0
0, 0
0, 0
0, 0
0, 0
0, 0
0, 0
0, 0
0, 0
0, 0
0, 0
0, 0
0, 0
0, 0
0, 0
0, 0
0, 0
0, 0
0, 0
0, 0
0, 0
0, 0
0, 0
0, 0
0, 0
0, 0
0, 0
0, 0
0, 0
0, 0
0, 0
0, 0
0, 0
0, 0
0, 0
0, 0
0, 0
0, 0
0, 0
0, 0
0, 0
0, 0
0, 0
0, 0
0, 0
0, 0
0, 0
0, 0
0, 0
0, 0
0, 0
0, 0
0, 0
0, 0
0, 0
0, 0
0, 0
0, 0
0, 0
0, 0
0, 0
0, 0
0, 0
0, 0
0, 0
0, 0
0, 0
0, 0
0, 0
0, 0
0, 0
0, 0
0, 0
0, 0
0, 0
0, 0
0, 0
0, 0
0, 0
0, 0
0, 0
0, 0
0, 0
0, 0
0, 0
0, 0
0, 0
0, 0
0, 0
0, 0
0, 0
0, 0
0, 0
0, 0
0, 0
0, 0
0, 0
0, 0
0, 0
0, 0
0, 0
0, 0
0, 0
0, 0
0, 0
0, 0
0, 0
0, 0
0, 0
0, 0
0, 0
0, 0
0, 0
0, 0
0, 0
0, 0
0, 0
0, 0
0, 0
0, 0
0, 0
0, 0
0, 0
0, 0
0, 0
0, 0
0, 0
0, 0
0, 0
0, 0
0, 0
0, 0
0, 0
0, 0
0, 0
0, 0
0, 0
0, 0
0, 0
0, 0
0, 0
0, 0
0, 0
0, 0
0, 0
0, 0
0, 0
0, 0
0, 0
0, 0
0, 0
0, 0
0, 0
0, 0
0, 0
0, 0
0, 0
0, 0
0, 0
0, 0
0, 0
0, 0
0, 0
0, 0
0, 0
0, 0
0, 0
0, 0
0, 0
0, 0
0, 0
0, 0
0, 0
0, 0
0, 0
0, 0
0, 0
0, 0
0, 0
0, 0
0, 0
0, 0
0, 0
0, 0
0, 0
0, 0
0, 0
0, 0
0, 0
0, 0
0, 0
0, 0
0, 0
0, 0
0, 0
0, 0
0, 0
0, 0
0, 0
0, 0
0, 0
0, 0
0, 0
0, 0
0, 0
0, 0
0, 0
0, 0
0, 0
0, 0
0, 0
0, 0
0, 0
#ENDOFDATA     end of spectrum data