File: host_upload/06-09-2024/ps_0852/dump3/ps__0852shot_2404.msa
#FORMAT      : EMSA/MAS spectral data file
#VERSION     : TC202v2.0 PIXL
#TITLE       : N/A
#DATE        :       Date in the format DD-MMM-YYYY, for example 07-JUL-2010
#TIME        :             The time of day at which the spectrum was recorded, in 24-hour format
#OWNER       : PIXL Flight Model       (PIXL will use this to indicate which instrument took the data.)
#NPOINTS     : 4096     Number of data points in the spectrum (This can be zero for configuration only files)
#NCOLUMNS    : 2     Number of data columns in the spectrum (This can be zero for configuration only files)
#XUNITS      : eV
#YUNITS      : COUNTS
#DATATYPE    : YY
#XPERCHAN    : 7.862, 7.881   eV per channel (separate by commas if more than one detector)
#OFFSET      : 18.5, -22.4         eV of first channel  (separate by commas if more than one detector
#SIGNALTYPE  : XRF
#YP_TEMP     : 2.3
#LIVETIME    : 8.54413, 8.5438   seconds (separate by commas if more than one detector)
#REALTIME    : 10, 10.0   seconds (separate by commas if more than one detector)
#SPECTRUM    : start of spectrum data
0, 0
0, 0
0, 0
0, 0
0, 0
0, 0
0, 0
0, 0
0, 0
0, 0
0, 0
0, 0
0, 0
0, 0
0, 0
0, 0
0, 0
0, 0
0, 0
0, 0
0, 0
0, 0
0, 0
0, 0
0, 0
0, 0
0, 0
0, 0
1, 0
0, 0
0, 0
0, 0
0, 0
0, 0
0, 0
1, 0
0, 0
0, 0
0, 2
1, 0
2, 0
1, 0
2, 2
0, 3
0, 2
1, 0
2, 1
4, 1
9, 8
8, 14
32, 24
47, 38
74, 50
79, 60
88, 85
82, 69
70, 60
57, 37
26, 25
25, 9
9, 5
1, 5
2, 4
4, 1
2, 1
5, 4
3, 0
15, 11
28, 22
46, 40
123, 98
204, 175
327, 252
413, 338
467, 405
455, 401
421, 384
326, 277
205, 196
124, 109
85, 61
51, 34
18, 18
14, 9
6, 2
3, 4
1, 1
0, 5
1, 1
0, 0
4, 0
1, 1
1, 0
3, 2
2, 3
1, 1
2, 4
5, 8
6, 7
5, 2
2, 5
6, 3
2, 3
3, 3
2, 6
3, 3
3, 7
6, 6
9, 9
17, 13
14, 15
23, 24
36, 33
44, 32
57, 36
62, 59
52, 36
60, 40
45, 28
32, 31
37, 28
17, 31
21, 16
13, 20
21, 10
8, 12
9, 11
8, 9
4, 15
9, 7
8, 6
1, 3
5, 1
5, 1
2, 2
2, 3
2, 2
3, 1
3, 3
1, 1
1, 2
1, 0
3, 0
3, 3
1, 7
3, 4
1, 5
1, 3
11, 6
12, 4
15, 7
20, 4
27, 9
27, 16
22, 10
33, 14
28, 18
38, 30
28, 21
32, 19
21, 20
24, 16
16, 10
11, 8
14, 5
15, 7
11, 4
17, 8
12, 9
11, 7
16, 3
6, 6
10, 5
5, 5
6, 4
13, 6
13, 8
11, 6
19, 7
7, 9
9, 6
21, 7
6, 9
9, 8
10, 6
1, 2
10, 3
2, 2
5, 7
11, 4
11, 3
4, 7
14, 11
8, 12
14, 14
16, 6
21, 12
12, 19
14, 14
15, 13
15, 13
11, 8
6, 12
8, 11
5, 6
5, 8
8, 7
4, 6
8, 3
5, 7
4, 13
6, 13
10, 13
4, 17
8, 12
6, 15
6, 20
3, 17
5, 22
4, 10
4, 10
8, 8
9, 12
8, 9
12, 12
12, 9
15, 11
14, 10
16, 12
23, 18
21, 10
23, 17
25, 12
33, 13
34, 10
61, 7
82, 10
72, 3
98, 10
112, 6
109, 10
108, 14
121, 16
94, 18
77, 23
77, 31
46, 38
44, 39
45, 49
56, 72
65, 74
60, 65
52, 54
55, 37
47, 30
32, 17
27, 17
15, 25
14, 16
16, 21
22, 12
22, 29
52, 52
74, 100
159, 172
309, 305
527, 560
811, 856
1254, 1221
1624, 1699
2056, 1990
2329, 2108
2558, 2289
2416, 2085
2213, 1870
1883, 1462
1400, 957
909, 705
575, 426
376, 219
179, 134
88, 78
53, 43
25, 23
19, 23
10, 37
21, 36
14, 29
14, 36
25, 32
24, 27
31, 29
61, 52
76, 85
108, 96
163, 163
210, 229
270, 235
333, 299
344, 339
331, 362
377, 345
347, 277
273, 208
195, 157
132, 117
100, 67
63, 38
29, 21
17, 16
19, 16
10, 19
8, 7
16, 10
18, 15
27, 19
21, 11
26, 16
22, 10
17, 10
20, 13
10, 12
9, 7
12, 7
7, 8
9, 2
6, 2
9, 4
5, 9
8, 4
3, 4
5, 2
7, 4
3, 2
10, 4
10, 5
5, 3
6, 4
4, 5
6, 4
4, 3
7, 4
5, 7
5, 4
5, 8
4, 10
1, 6
7, 13
9, 8
3, 3
5, 8
11, 9
4, 9
8, 11
6, 12
5, 9
8, 8
5, 7
8, 7
2, 13
4, 5
7, 9
5, 11
8, 14
6, 4
8, 7
7, 7
3, 8
6, 5
6, 1
0, 4
8, 5
6, 3
7, 3
2, 3
2, 3
2, 3
5, 3
5, 2
5, 7
3, 6
1, 4
5, 9
4, 7
4, 6
2, 4
4, 3
3, 7
4, 6
4, 3
2, 4
5, 3
3, 2
4, 4
2, 3
3, 2
1, 6
4, 2
4, 6
4, 1
6, 5
8, 8
6, 5
13, 4
12, 2
8, 3
7, 0
9, 4
6, 4
8, 3
6, 3
2, 5
5, 1
6, 3
5, 5
0, 2
2, 0
3, 1
4, 4
3, 2
2, 7
3, 3
3, 2
1, 4
3, 5
2, 4
1, 12
4, 11
5, 5
5, 16
1, 7
6, 12
2, 16
2, 9
4, 11
4, 6
4, 8
3, 9
3, 2
4, 3
1, 1
2, 5
4, 2
0, 4
1, 2
5, 1
3, 1
4, 1
6, 0
5, 0
4, 4
5, 2
8, 1
5, 3
3, 1
2, 4
3, 3
2, 4
7, 1
3, 1
2, 4
4, 7
3, 2
4, 5
3, 1
2, 2
8, 1
2, 3
4, 0
2, 3
1, 1
5, 2
1, 2
3, 3
6, 2
3, 4
1, 1
4, 2
3, 2
6, 3
3, 3
2, 4
3, 0
6, 2
3, 3
2, 0
3, 3
4, 1
6, 2
2, 2
2, 3
6, 4
5, 2
4, 1
4, 0
1, 4
3, 2
4, 0
4, 2
8, 0
4, 2
5, 2
2, 2
6, 3
6, 0
3, 3
4, 0
2, 0
5, 1
6, 0
7, 1
5, 3
4, 2
4, 1
2, 2
5, 1
1, 4
5, 0
0, 2
3, 3
2, 1
3, 2
5, 2
1, 4
1, 1
4, 0
2, 2
3, 0
3, 3
2, 5
2, 2
2, 3
4, 3
2, 2
3, 3
2, 6
3, 5
1, 1
2, 0
8, 5
4, 3
4, 2
4, 4
5, 3
5, 4
4, 5
5, 3
2, 1
3, 0
3, 2
1, 3
1, 1
1, 2
1, 2
1, 5
3, 1
1, 2
2, 0
2, 1
2, 0
2, 1
1, 3
3, 1
1, 1
1, 1
2, 1
1, 3
0, 3
2, 1
2, 2
4, 1
2, 0
2, 2
2, 1
3, 1
3, 2
1, 1
1, 2
3, 0
1, 1
1, 2
0, 1
2, 1
4, 1
0, 1
1, 1
0, 2
1, 3
1, 6
1, 2
2, 0
2, 0
2, 2
2, 2
2, 0
2, 0
1, 2
0, 1
2, 0
1, 1
2, 1
2, 0
0, 2
1, 0
1, 1
2, 3
0, 2
0, 0
2, 1
3, 2
1, 1
0, 1
0, 1
0, 0
0, 2
0, 2
1, 2
2, 1
1, 1
0, 1
1, 2
0, 0
1, 0
1, 0
1, 0
2, 1
0, 1
0, 1
3, 0
0, 1
2, 1
1, 4
0, 1
0, 2
1, 1
1, 0
1, 0
0, 1
1, 0
0, 0
0, 0
0, 0
0, 0
1, 1
3, 2
0, 0
1, 0
1, 0
0, 0
0, 0
2, 0
1, 0
0, 0
1, 0
1, 0
1, 0
0, 0
0, 2
2, 0
1, 0
0, 0
0, 0
2, 0
1, 0
1, 0
1, 0
0, 0
0, 0
1, 0
1, 1
1, 0
0, 0
3, 0
2, 0
0, 0
2, 0
0, 0
0, 1
0, 0
1, 1
1, 0
0, 1
1, 0
0, 0
1, 1
2, 2
0, 1
0, 0
1, 0
0, 0
0, 0
0, 0
0, 0
1, 0
0, 1
0, 0
0, 0
1, 0
0, 0
2, 0
0, 0
0, 0
1, 0
0, 0
0, 1
0, 0
1, 0
0, 1
2, 2
2, 0
0, 0
1, 1
0, 0
0, 0
1, 1
0, 0
1, 0
0, 0
0, 0
0, 0
0, 1
0, 0
0, 0
0, 0
1, 0
0, 0
0, 0
0, 0
2, 0
0, 0
0, 0
1, 0
0, 0
0, 0
0, 0
1, 1
0, 0
0, 0
0, 1
0, 0
1, 0
0, 0
0, 0
0, 0
1, 0
0, 1
2, 0
0, 0
0, 0
0, 0
0, 0
0, 0
1, 1
1, 1
0, 0
1, 0
0, 0
0, 0
0, 0
1, 0
0, 0
0, 0
0, 0
0, 1
0, 0
0, 0
0, 0
0, 0
0, 0
0, 0
0, 1
0, 1
0, 0
0, 0
0, 2
0, 0
0, 0
1, 0
0, 0
0, 1
1, 0
0, 1
0, 0
0, 0
1, 0
1, 0
1, 0
0, 0
1, 0
0, 0
0, 0
0, 0
0, 1
0, 1
0, 2
0, 0
0, 0
1, 1
1, 0
1, 0
1, 0
1, 0
0, 0
0, 0
0, 0
0, 0
0, 0
1, 1
0, 1
0, 0
0, 0
0, 0
0, 0
1, 0
0, 0
0, 1
0, 0
0, 0
1, 0
0, 0
0, 0
1, 0
0, 0
0, 0
0, 0
1, 0
0, 0
0, 1
0, 0
0, 0
1, 0
0, 0
0, 0
0, 0
0, 0
2, 1
1, 0
1, 0
0, 0
1, 0
0, 0
0, 1
0, 0
1, 0
1, 0
0, 0
0, 0
0, 0
0, 0
0, 0
0, 0
0, 0
0, 0
1, 0
0, 0
0, 0
0, 0
0, 2
0, 0
0, 0
0, 0
0, 0
0, 0
0, 0
0, 1
0, 0
0, 0
0, 0
0, 1
0, 0
0, 0
0, 0
0, 0
0, 0
0, 0
0, 0
0, 0
0, 1
0, 0
0, 0
0, 0
0, 0
0, 0
0, 0
0, 0
0, 0
0, 2
0, 1
0, 0
0, 0
0, 0
0, 0
0, 1
0, 0
0, 1
0, 0
1, 0
0, 0
0, 0
0, 0
0, 0
0, 0
0, 0
0, 0
0, 0
0, 0
0, 0
0, 1
0, 0
0, 0
0, 0
0, 0
0, 0
0, 0
0, 0
0, 0
0, 0
0, 0
0, 0
0, 0
0, 0
0, 0
0, 0
0, 0
0, 0
0, 0
0, 0
0, 0
0, 0
0, 0
0, 0
0, 0
0, 0
0, 0
0, 0
0, 0
0, 0
0, 0
0, 0
0, 0
0, 0
0, 0
0, 0
0, 0
0, 0
0, 0
0, 0
0, 0
0, 0
0, 0
0, 0
0, 0
1, 0
0, 0
0, 0
0, 0
0, 1
0, 0
0, 0
0, 0
0, 0
0, 0
0, 0
0, 0
0, 0
0, 0
0, 0
0, 0
0, 0
0, 0
0, 0
0, 0
1, 0
0, 0
0, 0
0, 0
0, 0
0, 0
0, 0
0, 0
0, 0
0, 0
0, 0
0, 0
0, 0
1, 0
0, 0
0, 0
0, 0
0, 0
0, 0
0, 0
0, 0
0, 0
0, 1
0, 0
0, 0
0, 0
0, 0
0, 1
0, 0
0, 0
0, 0
0, 0
0, 0
0, 0
0, 0
0, 0
0, 0
0, 0
0, 0
0, 0
0, 0
0, 0
0, 0
0, 0
0, 0
0, 0
0, 0
0, 0
0, 0
0, 0
0, 0
0, 0
0, 0
0, 0
0, 0
0, 0
0, 0
0, 0
0, 0
0, 0
0, 0
0, 0
0, 0
0, 0
0, 0
0, 0
0, 0
0, 0
0, 0
0, 0
0, 0
0, 0
0, 0
0, 0
0, 0
0, 0
0, 0
0, 0
0, 0
0, 0
0, 0
0, 0
0, 0
0, 0
0, 0
0, 0
0, 0
0, 0
0, 0
0, 0
0, 0
0, 0
0, 0
0, 0
0, 0
0, 0
0, 0
0, 0
0, 0
0, 0
0, 0
0, 0
0, 0
0, 0
0, 0
0, 0
0, 0
0, 0
0, 0
0, 0
0, 0
0, 0
0, 0
0, 0
0, 0
0, 0
0, 0
0, 0
0, 0
0, 0
0, 0
0, 0
0, 0
0, 0
0, 0
0, 0
0, 0
0, 0
0, 0
0, 0
0, 0
0, 0
0, 0
0, 0
0, 0
0, 0
0, 0
0, 0
0, 0
0, 0
0, 0
0, 0
0, 0
0, 0
0, 0
0, 0
0, 0
0, 0
0, 0
0, 0
0, 0
0, 0
0, 0
0, 0
0, 0
0, 0
0, 0
0, 0
0, 0
0, 0
0, 0
0, 0
0, 0
0, 0
0, 0
0, 1
0, 0
0, 0
0, 0
0, 0
0, 0
0, 0
0, 0
0, 0
0, 0
0, 0
0, 0
0, 0
0, 0
0, 0
0, 0
0, 0
0, 0
0, 0
0, 0
0, 0
0, 0
0, 0
0, 0
0, 0
0, 0
0, 0
0, 0
0, 0
0, 0
0, 0
0, 0
0, 0
0, 0
0, 0
0, 0
0, 0
0, 0
0, 0
0, 0
0, 0
0, 0
0, 0
0, 0
0, 0
0, 0
0, 0
0, 0
0, 0
0, 0
0, 0
0, 0
0, 0
0, 0
0, 0
0, 0
0, 0
0, 0
0, 0
0, 0
0, 0
0, 0
0, 0
0, 0
0, 0
0, 0
0, 0
0, 0
0, 0
0, 0
0, 0
0, 0
0, 0
0, 0
0, 0
0, 0
0, 0
0, 0
0, 0
0, 0
0, 0
0, 0
0, 0
0, 0
0, 0
0, 0
0, 0
0, 0
0, 0
0, 0
0, 0
0, 0
0, 0
0, 0
0, 0
0, 0
0, 0
0, 0
0, 0
0, 0
0, 0
0, 0
0, 0
0, 0
0, 0
0, 0
0, 0
0, 0
0, 0
0, 0
0, 0
0, 0
0, 0
0, 0
0, 0
0, 0
0, 0
0, 0
0, 0
0, 0
0, 0
0, 0
0, 0
0, 0
0, 0
0, 0
0, 0
0, 0
0, 0
0, 0
0, 0
0, 0
0, 0
0, 0
0, 0
0, 0
0, 0
0, 0
0, 0
0, 0
0, 0
0, 0
0, 0
0, 0
0, 0
0, 0
0, 0
0, 0
0, 0
0, 0
0, 0
0, 0
0, 0
0, 0
0, 0
0, 0
0, 0
0, 0
0, 0
0, 0
0, 0
0, 0
0, 0
0, 0
0, 0
0, 0
0, 0
0, 0
0, 0
0, 0
0, 0
0, 0
0, 0
0, 0
0, 0
0, 0
0, 0
0, 0
0, 0
0, 0
0, 0
0, 0
0, 0
0, 0
0, 0
0, 0
0, 0
0, 0
0, 0
0, 0
0, 0
0, 0
0, 0
0, 0
0, 0
0, 0
0, 0
0, 0
0, 0
0, 0
0, 0
0, 0
0, 0
0, 0
0, 0
0, 0
0, 0
0, 0
0, 0
0, 0
0, 0
0, 0
0, 0
0, 0
0, 0
0, 0
0, 0
0, 0
0, 0
0, 0
0, 0
0, 0
0, 0
0, 0
0, 0
0, 0
0, 0
0, 0
0, 0
#ENDOFDATA     end of spectrum data