File: host_upload/06-09-2024/ps_0852/dump3/ps__0852shot_2286.msa
#FORMAT      : EMSA/MAS spectral data file
#VERSION     : TC202v2.0 PIXL
#TITLE       : N/A
#DATE        :       Date in the format DD-MMM-YYYY, for example 07-JUL-2010
#TIME        :             The time of day at which the spectrum was recorded, in 24-hour format
#OWNER       : PIXL Flight Model       (PIXL will use this to indicate which instrument took the data.)
#NPOINTS     : 4096     Number of data points in the spectrum (This can be zero for configuration only files)
#NCOLUMNS    : 2     Number of data columns in the spectrum (This can be zero for configuration only files)
#XUNITS      : eV
#YUNITS      : COUNTS
#DATATYPE    : YY
#XPERCHAN    : 7.862, 7.881   eV per channel (separate by commas if more than one detector)
#OFFSET      : 18.5, -22.4         eV of first channel  (separate by commas if more than one detector
#SIGNALTYPE  : XRF
#YP_TEMP     : 2.107
#LIVETIME    : 8.52153, 8.52513   seconds (separate by commas if more than one detector)
#REALTIME    : 10, 10.0   seconds (separate by commas if more than one detector)
#SPECTRUM    : start of spectrum data
0, 0
0, 0
0, 0
0, 0
0, 0
0, 0
0, 0
0, 0
0, 0
0, 0
0, 0
0, 0
0, 0
0, 0
0, 0
0, 0
0, 0
0, 0
0, 0
0, 0
0, 0
0, 0
0, 0
0, 0
0, 0
0, 0
0, 0
0, 0
0, 0
0, 0
0, 0
0, 0
0, 0
1, 1
2, 0
0, 0
0, 1
2, 5
2, 1
2, 4
5, 2
1, 2
4, 1
4, 0
1, 0
3, 0
2, 1
3, 4
6, 8
8, 17
29, 25
18, 37
46, 45
56, 66
61, 72
73, 87
55, 52
35, 38
21, 24
15, 14
14, 3
7, 4
2, 2
8, 6
6, 4
4, 6
6, 6
6, 8
12, 15
37, 46
76, 77
106, 123
167, 189
231, 258
243, 301
266, 341
215, 270
176, 212
108, 138
74, 82
41, 36
20, 24
15, 19
7, 8
12, 3
6, 2
5, 6
8, 2
2, 3
5, 5
16, 10
10, 21
27, 46
81, 75
122, 164
224, 226
337, 347
456, 493
529, 501
517, 543
455, 462
404, 381
280, 266
164, 173
112, 133
79, 78
57, 61
55, 64
72, 67
78, 85
83, 93
100, 116
113, 111
134, 120
99, 106
81, 107
78, 74
64, 69
48, 57
44, 47
48, 27
32, 37
23, 22
31, 26
27, 22
17, 23
23, 16
17, 9
9, 18
10, 10
3, 6
5, 9
4, 5
5, 2
3, 7
4, 7
3, 10
9, 15
10, 16
14, 20
11, 17
21, 20
21, 21
22, 19
14, 15
10, 12
6, 8
5, 5
2, 5
5, 2
5, 4
5, 10
9, 10
4, 12
12, 14
11, 30
20, 16
18, 19
13, 19
23, 14
8, 13
13, 10
7, 6
7, 14
3, 5
0, 3
4, 6
2, 5
6, 4
6, 4
7, 6
3, 5
9, 3
5, 4
6, 10
9, 6
7, 3
5, 6
5, 2
5, 5
5, 4
4, 2
5, 3
9, 3
4, 5
3, 9
5, 8
4, 6
4, 9
7, 8
8, 9
11, 14
12, 14
11, 12
14, 11
17, 11
14, 18
19, 16
11, 18
12, 7
10, 15
10, 14
10, 16
5, 10
5, 8
7, 8
6, 13
10, 18
6, 29
7, 31
7, 31
3, 26
9, 25
9, 28
5, 30
6, 20
3, 17
5, 10
3, 9
6, 10
5, 9
4, 10
8, 6
7, 5
6, 9
9, 13
9, 7
12, 10
16, 22
32, 24
26, 23
25, 33
46, 37
52, 39
62, 33
54, 30
57, 39
32, 36
41, 33
26, 13
24, 18
13, 8
9, 19
15, 14
17, 17
39, 24
33, 42
46, 32
66, 52
64, 52
57, 61
76, 77
71, 74
48, 50
49, 44
36, 33
26, 30
23, 25
12, 8
25, 12
22, 20
24, 35
38, 61
69, 108
132, 191
276, 355
443, 618
743, 976
1057, 1371
1452, 1827
1856, 2131
2199, 2413
2239, 2481
2256, 2344
1974, 2007
1651, 1512
1240, 1108
877, 752
502, 496
336, 260
194, 141
96, 72
48, 33
31, 20
21, 14
13, 12
19, 12
16, 20
16, 24
22, 19
22, 12
28, 42
35, 61
73, 83
89, 134
131, 205
186, 218
226, 284
309, 333
314, 364
320, 327
327, 322
284, 290
234, 245
171, 148
140, 93
79, 72
49, 30
22, 22
12, 16
9, 14
13, 11
6, 5
9, 9
11, 14
10, 18
21, 15
21, 13
30, 12
36, 9
41, 9
46, 11
54, 7
54, 6
66, 5
50, 4
50, 2
42, 3
36, 2
29, 1
18, 4
12, 5
8, 3
11, 2
9, 5
7, 2
6, 3
10, 3
2, 5
13, 4
10, 2
6, 5
8, 6
10, 1
4, 3
5, 7
6, 3
4, 5
9, 2
4, 3
5, 4
8, 5
2, 7
3, 4
3, 6
2, 2
2, 2
4, 6
4, 3
3, 3
2, 8
4, 6
1, 5
6, 6
1, 5
7, 5
9, 2
7, 8
10, 7
4, 5
12, 4
6, 8
5, 9
7, 2
4, 10
6, 6
7, 4
12, 1
9, 6
10, 3
8, 0
13, 6
7, 4
7, 3
9, 1
9, 4
5, 1
11, 3
4, 4
3, 8
5, 6
5, 6
3, 8
3, 10
3, 6
9, 6
3, 9
3, 12
3, 3
2, 10
4, 9
5, 3
1, 4
2, 7
3, 4
5, 3
4, 6
8, 3
6, 9
7, 2
9, 3
6, 7
5, 3
9, 8
5, 5
3, 10
6, 9
2, 14
3, 12
2, 20
4, 16
5, 18
11, 18
5, 16
8, 9
11, 10
7, 3
11, 5
5, 3
6, 6
3, 3
3, 4
5, 7
3, 2
4, 5
6, 3
3, 3
4, 1
4, 6
3, 3
2, 2
0, 5
5, 3
5, 3
5, 6
1, 8
4, 8
1, 1
3, 2
4, 5
4, 5
1, 4
1, 2
2, 2
3, 2
3, 2
1, 4
5, 6
2, 5
4, 5
7, 4
1, 4
4, 3
7, 3
8, 5
7, 2
6, 1
10, 0
4, 2
10, 3
6, 3
14, 2
6, 1
5, 3
6, 0
4, 4
5, 2
7, 1
3, 2
3, 5
0, 0
4, 1
3, 4
2, 2
3, 3
0, 1
8, 4
1, 5
4, 1
3, 4
1, 1
3, 0
2, 2
4, 1
1, 2
0, 2
0, 3
0, 3
0, 2
5, 0
3, 1
2, 1
2, 6
3, 3
2, 2
4, 3
4, 3
3, 1
1, 3
1, 5
2, 0
2, 2
2, 3
6, 1
1, 0
6, 0
4, 1
2, 2
1, 5
3, 4
5, 4
2, 1
2, 0
4, 0
1, 1
6, 0
2, 1
2, 0
0, 0
3, 2
0, 0
3, 3
1, 0
2, 5
1, 2
3, 4
3, 2
4, 3
0, 3
1, 0
5, 3
3, 2
4, 2
6, 8
3, 2
2, 4
3, 3
3, 2
1, 1
5, 4
3, 1
2, 1
1, 4
1, 2
3, 0
1, 1
0, 0
1, 0
0, 0
2, 1
2, 1
1, 1
0, 1
3, 0
2, 1
2, 2
2, 3
4, 1
2, 3
1, 4
2, 1
2, 3
1, 2
1, 1
2, 2
1, 0
4, 1
3, 1
3, 1
1, 1
1, 1
1, 0
3, 3
1, 2
1, 0
1, 2
0, 0
1, 1
1, 5
0, 3
1, 3
0, 0
1, 2
2, 4
0, 1
1, 1
1, 1
3, 2
1, 2
1, 1
0, 0
1, 2
0, 3
1, 2
1, 1
0, 0
2, 1
1, 2
0, 0
0, 1
0, 2
0, 0
2, 0
1, 0
0, 0
0, 0
0, 1
0, 0
0, 2
1, 1
2, 1
0, 1
1, 0
1, 0
0, 0
1, 2
1, 1
0, 1
1, 2
0, 1
1, 0
0, 0
1, 0
2, 1
1, 2
0, 1
0, 0
1, 1
0, 1
1, 2
1, 1
0, 0
1, 0
1, 1
0, 0
1, 0
4, 1
0, 0
1, 0
1, 0
1, 2
1, 1
0, 1
1, 0
1, 1
1, 0
0, 0
2, 0
0, 0
0, 0
0, 0
0, 0
0, 1
0, 1
1, 0
0, 1
0, 0
0, 1
0, 2
0, 0
0, 1
1, 1
0, 2
1, 0
0, 2
0, 0
0, 1
0, 1
0, 0
0, 0
2, 1
1, 0
0, 0
1, 0
1, 0
0, 0
1, 1
1, 1
0, 1
1, 0
0, 2
1, 3
0, 1
2, 0
0, 1
1, 0
0, 0
1, 0
1, 1
1, 0
0, 0
1, 1
0, 1
1, 0
0, 0
0, 0
0, 2
1, 0
1, 0
1, 1
0, 0
0, 0
0, 0
1, 1
0, 0
0, 1
0, 0
0, 0
0, 0
0, 0
0, 0
1, 1
0, 0
0, 0
0, 0
0, 0
0, 0
1, 0
0, 1
0, 0
0, 2
1, 2
0, 1
0, 0
0, 0
1, 0
0, 1
0, 0
0, 0
0, 0
0, 0
1, 0
2, 0
1, 0
0, 1
0, 0
0, 1
0, 1
0, 0
0, 1
0, 0
0, 0
0, 0
0, 0
1, 0
0, 1
0, 0
0, 0
1, 1
0, 0
0, 0
0, 0
0, 0
1, 0
0, 0
0, 0
1, 0
1, 0
0, 0
0, 1
1, 0
0, 0
0, 0
0, 1
1, 0
0, 2
0, 0
1, 0
0, 1
0, 0
0, 0
0, 0
0, 0
0, 0
0, 0
0, 0
0, 0
0, 1
0, 0
0, 0
0, 0
0, 2
0, 0
0, 0
0, 0
0, 0
0, 0
1, 0
0, 0
0, 0
0, 1
0, 1
1, 0
0, 1
0, 0
0, 0
0, 0
0, 0
2, 0
0, 0
1, 0
0, 0
0, 0
1, 0
1, 0
0, 0
1, 0
0, 0
0, 0
0, 0
0, 0
0, 0
0, 0
0, 0
1, 0
0, 0
0, 0
1, 0
0, 0
0, 1
0, 0
0, 0
0, 0
2, 0
0, 0
1, 0
0, 0
0, 1
0, 0
0, 0
0, 0
0, 0
0, 0
0, 0
0, 0
0, 0
0, 0
0, 1
0, 0
1, 0
0, 0
2, 1
0, 0
0, 0
0, 0
2, 0
2, 0
0, 0
0, 0
0, 1
2, 0
0, 0
0, 0
0, 0
2, 0
0, 0
0, 0
0, 0
0, 0
0, 0
0, 0
0, 0
0, 0
0, 0
0, 0
0, 0
0, 1
0, 1
0, 0
0, 0
0, 0
0, 0
0, 0
0, 0
0, 0
0, 0
0, 0
0, 0
0, 0
0, 0
0, 0
0, 0
0, 0
0, 0
0, 0
0, 0
0, 0
0, 0
0, 0
0, 0
0, 0
0, 0
0, 0
0, 0
1, 0
0, 0
0, 0
0, 0
0, 0
0, 0
0, 0
0, 1
0, 0
0, 0
0, 0
0, 0
0, 0
0, 1
0, 0
0, 0
0, 0
0, 0
0, 0
1, 0
0, 0
0, 0
0, 0
0, 0
0, 0
0, 0
0, 0
0, 0
0, 0
0, 0
0, 0
0, 0
0, 0
0, 0
0, 0
0, 0
0, 0
0, 0
0, 0
0, 0
0, 0
0, 0
0, 0
0, 0
0, 0
0, 0
0, 0
0, 0
0, 0
0, 0
0, 0
0, 0
0, 0
0, 0
0, 0
0, 0
0, 0
0, 0
0, 0
0, 0
0, 0
0, 0
0, 0
0, 1
0, 0
0, 0
0, 0
0, 0
0, 0
0, 1
0, 0
0, 0
0, 0
0, 0
0, 0
0, 0
0, 0
0, 0
0, 0
0, 0
0, 0
1, 0
0, 0
0, 0
0, 0
0, 0
0, 0
0, 0
0, 0
0, 0
0, 0
0, 0
0, 0
0, 0
0, 0
0, 0
0, 0
0, 0
0, 0
0, 0
0, 0
0, 0
0, 0
0, 0
0, 0
0, 0
0, 0
0, 0
0, 0
0, 0
0, 0
0, 0
0, 0
0, 0
0, 0
0, 0
0, 0
0, 0
0, 0
0, 0
0, 0
0, 0
0, 0
0, 0
0, 0
0, 0
0, 0
0, 0
0, 0
0, 0
0, 0
0, 0
0, 0
0, 0
0, 0
0, 0
0, 0
0, 0
0, 0
0, 0
0, 0
0, 0
0, 0
0, 0
0, 0
0, 0
0, 0
0, 0
0, 0
0, 0
0, 0
0, 0
0, 0
0, 0
0, 0
0, 0
0, 0
0, 0
0, 0
0, 0
0, 0
0, 0
0, 0
0, 0
0, 1
0, 0
0, 0
0, 0
0, 0
0, 0
0, 0
0, 0
0, 0
0, 0
0, 0
0, 0
0, 0
0, 0
0, 0
0, 0
0, 0
0, 0
0, 0
0, 0
0, 0
0, 0
0, 0
0, 0
0, 0
0, 0
0, 0
0, 0
0, 0
0, 0
0, 0
0, 0
0, 0
0, 0
0, 0
0, 0
0, 0
0, 0
0, 0
0, 0
0, 0
0, 0
0, 0
0, 0
0, 0
0, 0
0, 0
0, 0
0, 0
0, 0
0, 0
0, 0
0, 0
0, 0
0, 0
0, 0
0, 0
0, 0
0, 0
0, 0
0, 0
0, 0
0, 0
0, 0
0, 0
0, 0
0, 0
0, 0
0, 0
0, 0
0, 0
0, 0
0, 0
0, 0
0, 0
0, 0
0, 0
0, 0
0, 0
0, 0
0, 0
0, 0
0, 0
0, 0
0, 0
0, 0
0, 0
0, 0
0, 0
0, 0
0, 0
0, 0
0, 0
0, 0
0, 0
0, 0
0, 0
1, 0
0, 0
0, 0
0, 0
0, 0
0, 0
0, 0
0, 0
0, 0
0, 0
0, 0
0, 0
0, 0
0, 0
0, 0
0, 0
0, 0
0, 0
0, 0
0, 0
0, 0
0, 0
0, 0
0, 0
0, 0
0, 0
0, 0
0, 0
0, 0
0, 0
0, 0
0, 0
0, 0
0, 0
0, 0
0, 0
0, 0
0, 0
0, 0
0, 0
0, 0
0, 0
0, 0
0, 0
0, 0
0, 0
0, 0
0, 0
0, 0
0, 0
0, 0
0, 0
0, 0
0, 0
0, 0
0, 0
0, 0
0, 0
0, 0
0, 0
0, 0
0, 0
0, 0
0, 0
0, 0
0, 0
0, 0
0, 0
0, 0
0, 0
0, 0
0, 0
0, 0
0, 0
0, 0
0, 0
0, 0
0, 0
0, 0
0, 0
0, 0
0, 0
0, 0
0, 0
0, 0
0, 0
0, 0
0, 0
0, 0
0, 0
0, 0
0, 0
0, 0
0, 0
0, 0
0, 0
0, 0
0, 0
0, 0
0, 0
0, 0
0, 0
0, 0
0, 0
0, 0
0, 0
0, 0
0, 0
0, 0
0, 0
0, 0
0, 0
0, 0
0, 0
0, 0
0, 0
0, 0
0, 0
0, 0
0, 0
0, 0
0, 0
0, 0
0, 0
0, 0
0, 0
0, 0
0, 0
0, 0
0, 0
0, 0
0, 0
0, 0
0, 0
0, 0
0, 0
0, 0
0, 0
0, 0
0, 0
0, 0
0, 0
0, 0
0, 0
0, 0
0, 0
0, 0
0, 0
0, 0
0, 0
0, 0
0, 0
0, 0
0, 0
0, 0
0, 0
0, 0
0, 0
0, 0
0, 0
0, 0
0, 0
0, 0
0, 0
0, 0
0, 0
0, 0
0, 0
0, 0
0, 0
0, 0
0, 0
0, 0
0, 0
0, 0
0, 0
0, 0
0, 0
0, 0
0, 0
0, 0
0, 0
0, 0
0, 0
0, 0
0, 0
0, 0
0, 0
0, 0
0, 0
0, 0
0, 0
0, 0
0, 0
0, 0
0, 0
0, 0
0, 0
0, 0
0, 0
0, 0
#ENDOFDATA     end of spectrum data