File: host_upload/06-09-2024/ps_0852/dump3/ps__0852shot_2574.msa
#FORMAT      : EMSA/MAS spectral data file
#VERSION     : TC202v2.0 PIXL
#TITLE       : N/A
#DATE        :       Date in the format DD-MMM-YYYY, for example 07-JUL-2010
#TIME        :             The time of day at which the spectrum was recorded, in 24-hour format
#OWNER       : PIXL Flight Model       (PIXL will use this to indicate which instrument took the data.)
#NPOINTS     : 4096     Number of data points in the spectrum (This can be zero for configuration only files)
#NCOLUMNS    : 2     Number of data columns in the spectrum (This can be zero for configuration only files)
#XUNITS      : eV
#YUNITS      : COUNTS
#DATATYPE    : YY
#XPERCHAN    : 7.862, 7.881   eV per channel (separate by commas if more than one detector)
#OFFSET      : 18.5, -22.4         eV of first channel  (separate by commas if more than one detector
#SIGNALTYPE  : XRF
#YP_TEMP     : 2.235
#LIVETIME    : 8.54357, 8.56249   seconds (separate by commas if more than one detector)
#REALTIME    : 10, 10.0   seconds (separate by commas if more than one detector)
#SPECTRUM    : start of spectrum data
0, 0
0, 0
0, 0
0, 0
0, 0
0, 0
0, 0
0, 0
0, 0
0, 0
0, 0
0, 0
0, 0
0, 0
0, 0
0, 0
0, 0
0, 0
0, 0
0, 0
0, 0
0, 0
0, 0
0, 0
0, 0
0, 0
0, 0
0, 0
0, 0
0, 0
0, 1
0, 0
0, 0
0, 0
1, 1
0, 0
0, 0
0, 2
0, 1
1, 2
2, 3
0, 2
0, 1
1, 1
2, 0
0, 0
0, 2
3, 4
4, 6
6, 7
24, 23
29, 40
44, 50
60, 71
46, 68
57, 73
47, 62
35, 42
16, 26
13, 7
5, 11
2, 6
8, 1
2, 3
4, 4
5, 4
6, 6
14, 8
20, 25
49, 49
109, 123
168, 182
260, 321
371, 376
378, 481
416, 494
352, 387
296, 322
175, 229
115, 119
64, 65
26, 44
18, 23
10, 12
7, 5
3, 1
3, 2
1, 2
1, 2
1, 2
1, 1
2, 2
1, 0
0, 3
3, 1
1, 1
2, 6
5, 1
4, 6
9, 4
5, 5
10, 10
3, 4
4, 6
3, 9
5, 9
8, 14
12, 19
13, 36
18, 43
28, 87
34, 120
52, 199
48, 233
70, 209
56, 212
50, 229
40, 160
22, 116
31, 84
23, 38
27, 40
18, 32
15, 16
16, 14
12, 19
12, 21
8, 11
10, 10
5, 8
3, 8
6, 6
2, 6
3, 3
2, 2
0, 4
5, 2
3, 0
4, 3
1, 4
2, 3
0, 4
2, 2
0, 2
1, 1
1, 2
4, 1
1, 2
0, 6
1, 1
1, 2
0, 2
4, 5
6, 5
6, 9
13, 10
16, 13
16, 15
9, 14
13, 12
13, 11
4, 9
2, 7
2, 3
3, 4
5, 4
3, 1
6, 6
2, 3
2, 8
7, 3
2, 9
2, 5
4, 4
4, 6
1, 6
4, 8
9, 8
12, 10
10, 14
19, 9
22, 20
20, 7
20, 8
12, 8
22, 5
8, 6
10, 4
12, 6
8, 13
5, 5
10, 8
7, 11
11, 20
11, 12
11, 20
12, 13
13, 24
16, 18
12, 13
23, 15
6, 8
5, 10
8, 10
14, 7
14, 6
15, 7
24, 7
11, 8
17, 11
11, 6
9, 13
9, 6
6, 7
11, 7
4, 8
4, 10
7, 11
4, 16
8, 25
5, 41
7, 49
4, 62
5, 65
9, 55
11, 59
9, 52
6, 44
13, 38
16, 41
16, 25
25, 17
13, 12
11, 15
19, 17
12, 10
23, 8
20, 7
19, 5
25, 8
25, 7
13, 15
16, 7
22, 10
22, 12
20, 22
28, 35
26, 40
46, 63
43, 59
50, 60
56, 83
39, 75
50, 59
48, 41
24, 28
18, 25
18, 17
7, 21
17, 17
17, 17
23, 35
40, 49
89, 106
131, 195
266, 344
456, 645
713, 1010
1030, 1467
1500, 1889
1785, 2372
2122, 2597
2256, 2770
2085, 2498
1924, 2195
1543, 1654
1152, 1185
804, 782
507, 485
303, 244
172, 150
98, 75
37, 55
21, 30
20, 26
10, 21
19, 26
17, 28
13, 13
18, 22
19, 28
30, 46
54, 62
58, 87
87, 134
123, 204
187, 258
238, 325
277, 331
335, 391
351, 381
318, 330
241, 296
231, 259
161, 158
137, 104
83, 63
45, 48
29, 21
12, 12
8, 6
5, 11
5, 6
12, 8
7, 10
17, 17
13, 18
15, 15
12, 9
8, 11
10, 14
7, 12
2, 7
8, 8
4, 5
2, 5
6, 6
3, 1
10, 4
3, 3
3, 2
2, 6
1, 6
5, 7
3, 7
0, 13
4, 12
4, 14
3, 11
5, 9
3, 9
0, 8
6, 4
3, 10
5, 5
6, 8
5, 7
6, 8
6, 7
6, 5
3, 5
4, 7
4, 7
4, 6
6, 5
5, 2
2, 2
4, 5
3, 3
1, 7
3, 9
3, 5
5, 0
3, 3
4, 1
2, 5
4, 3
3, 7
4, 6
4, 7
7, 3
2, 2
5, 2
0, 1
1, 5
3, 5
2, 0
4, 3
6, 2
2, 4
3, 6
1, 5
4, 5
3, 2
2, 3
3, 7
2, 5
0, 10
1, 15
2, 17
2, 8
1, 18
4, 18
2, 24
2, 16
4, 24
0, 13
2, 21
2, 14
3, 14
3, 6
2, 5
2, 5
1, 6
0, 3
5, 0
4, 3
4, 3
2, 3
6, 5
2, 1
4, 4
2, 2
2, 1
4, 1
4, 5
5, 3
0, 4
2, 2
11, 3
8, 3
6, 3
10, 5
15, 5
19, 2
13, 6
11, 2
9, 5
10, 0
11, 1
13, 4
9, 3
8, 3
4, 2
4, 3
1, 1
2, 3
0, 4
6, 3
2, 0
3, 6
6, 5
2, 1
0, 2
1, 6
2, 3
2, 5
0, 2
1, 9
3, 7
2, 9
4, 7
1, 6
2, 5
2, 9
2, 3
1, 2
3, 5
0, 3
0, 3
2, 3
2, 2
2, 2
3, 2
4, 2
6, 4
1, 2
3, 0
3, 7
3, 3
4, 3
0, 1
0, 3
4, 3
1, 4
1, 2
2, 4
1, 4
1, 3
2, 3
1, 2
0, 4
2, 0
2, 4
2, 0
2, 1
0, 2
1, 3
8, 2
2, 1
1, 3
1, 1
1, 3
1, 1
3, 2
0, 3
5, 4
0, 6
1, 3
2, 6
1, 7
0, 8
2, 5
0, 2
1, 4
0, 5
3, 9
2, 6
2, 3
2, 4
0, 1
0, 4
1, 0
2, 3
2, 2
3, 3
6, 2
3, 3
3, 1
3, 2
2, 2
2, 1
4, 6
3, 1
4, 1
2, 1
3, 2
5, 1
3, 1
6, 2
2, 3
2, 1
5, 2
4, 1
2, 0
5, 0
3, 2
2, 3
4, 2
4, 5
4, 3
3, 8
7, 9
2, 6
1, 5
4, 3
5, 1
5, 2
2, 1
1, 2
1, 2
1, 2
0, 3
0, 2
1, 3
1, 0
3, 2
1, 1
2, 3
1, 1
0, 3
2, 3
1, 1
1, 1
0, 1
1, 4
2, 3
1, 1
0, 0
3, 1
2, 2
1, 1
1, 3
3, 2
1, 3
2, 2
2, 2
2, 1
1, 0
1, 0
3, 1
0, 2
3, 0
0, 1
0, 0
1, 1
1, 0
3, 1
2, 0
1, 2
2, 1
0, 0
1, 1
1, 1
1, 0
2, 2
2, 0
0, 1
1, 1
0, 2
2, 1
1, 0
0, 0
1, 0
0, 1
1, 1
0, 1
1, 0
1, 0
0, 3
1, 0
0, 2
0, 1
0, 0
0, 2
1, 3
0, 1
0, 0
1, 1
1, 1
0, 0
1, 0
1, 0
1, 3
2, 1
1, 0
2, 0
0, 4
1, 1
0, 0
0, 0
0, 4
1, 1
0, 0
1, 2
0, 0
2, 1
0, 2
1, 2
1, 0
0, 0
0, 0
1, 3
1, 0
0, 0
2, 0
0, 0
0, 0
2, 0
2, 0
0, 1
2, 2
0, 2
0, 0
0, 0
2, 1
0, 0
0, 3
0, 1
0, 0
1, 4
0, 1
1, 1
4, 0
2, 0
1, 0
1, 2
1, 0
0, 2
1, 1
1, 1
0, 1
1, 1
0, 1
1, 1
1, 0
0, 1
0, 0
1, 1
0, 1
0, 0
0, 0
0, 0
0, 0
0, 0
0, 2
1, 1
1, 1
0, 0
0, 1
0, 0
0, 1
1, 1
0, 0
1, 0
1, 0
0, 0
0, 0
0, 1
1, 0
0, 0
0, 1
1, 0
1, 0
0, 0
0, 0
0, 1
1, 1
0, 0
1, 0
1, 0
0, 0
0, 0
0, 0
0, 0
0, 0
1, 2
0, 2
0, 0
0, 1
0, 0
1, 2
0, 1
0, 0
0, 1
0, 0
0, 0
1, 0
0, 1
0, 0
0, 1
2, 0
1, 1
1, 0
0, 2
0, 0
1, 0
1, 1
0, 0
1, 1
0, 0
0, 0
0, 0
0, 0
1, 2
1, 2
0, 1
1, 1
0, 0
0, 0
1, 0
0, 0
1, 0
0, 0
0, 1
0, 0
0, 0
0, 1
1, 0
0, 0
1, 0
0, 0
0, 1
0, 0
0, 0
1, 0
0, 2
0, 0
0, 0
0, 0
1, 1
1, 0
0, 0
0, 1
2, 0
0, 0
0, 3
0, 0
1, 0
0, 0
0, 1
0, 0
0, 0
0, 0
0, 0
0, 0
1, 1
0, 0
0, 0
0, 0
0, 0
0, 0
0, 1
0, 0
0, 1
0, 1
0, 0
0, 2
0, 0
0, 1
1, 0
0, 0
1, 0
0, 1
0, 0
0, 0
0, 0
0, 0
0, 0
0, 0
0, 0
0, 0
1, 0
0, 0
0, 0
0, 0
0, 0
0, 0
0, 0
0, 0
0, 0
0, 0
0, 0
0, 0
0, 0
0, 1
0, 0
0, 0
1, 0
0, 1
0, 0
0, 1
1, 0
0, 0
0, 1
0, 0
0, 0
0, 2
0, 0
0, 1
0, 1
0, 0
0, 0
0, 0
1, 0
1, 1
0, 0
0, 0
0, 0
0, 0
0, 0
0, 0
0, 0
0, 0
0, 0
0, 0
0, 1
0, 0
0, 0
0, 0
0, 0
0, 0
0, 0
0, 0
0, 0
0, 0
0, 0
0, 0
0, 0
0, 0
0, 0
0, 1
0, 0
0, 0
0, 0
0, 0
0, 0
0, 0
0, 0
0, 0
0, 0
1, 0
0, 0
0, 0
0, 1
0, 0
0, 0
0, 0
1, 0
0, 0
0, 0
0, 0
0, 0
0, 0
0, 0
0, 0
0, 0
0, 0
0, 1
1, 0
0, 0
0, 0
0, 0
0, 0
0, 0
0, 0
0, 0
0, 1
0, 0
0, 0
0, 0
0, 0
0, 0
0, 0
0, 0
0, 0
0, 0
1, 0
0, 0
0, 0
0, 0
0, 0
0, 0
0, 0
0, 0
0, 0
0, 0
0, 0
0, 0
0, 1
0, 0
0, 0
0, 0
0, 0
0, 0
0, 0
0, 0
0, 0
0, 0
0, 0
0, 0
0, 0
0, 0
0, 0
0, 0
0, 0
0, 0
0, 0
0, 0
0, 0
0, 0
0, 0
0, 0
0, 0
0, 0
0, 0
0, 0
0, 0
0, 0
0, 0
0, 0
0, 0
0, 0
0, 0
0, 0
0, 0
0, 0
0, 0
0, 0
0, 0
0, 0
0, 0
0, 0
0, 0
0, 0
0, 0
1, 0
0, 0
0, 0
0, 0
0, 0
0, 0
0, 0
0, 0
0, 0
0, 0
0, 0
0, 0
0, 0
0, 0
0, 0
0, 0
0, 0
0, 0
0, 0
0, 0
0, 0
0, 0
0, 0
0, 0
0, 0
0, 0
0, 0
0, 0
0, 0
0, 0
0, 0
0, 0
0, 0
0, 0
0, 1
0, 0
0, 0
0, 0
0, 0
0, 0
0, 0
0, 0
0, 0
0, 0
0, 0
0, 0
0, 0
0, 0
0, 0
0, 0
0, 0
0, 0
0, 0
0, 0
0, 0
0, 0
0, 0
0, 0
0, 0
0, 0
0, 0
0, 0
0, 0
0, 0
0, 0
0, 0
0, 0
0, 0
0, 0
0, 0
0, 0
0, 0
0, 0
0, 0
0, 0
0, 0
0, 0
0, 0
0, 0
0, 0
0, 0
0, 0
0, 0
0, 0
0, 0
0, 0
0, 0
0, 0
0, 0
0, 0
0, 0
0, 0
0, 0
0, 0
0, 0
0, 0
0, 0
0, 0
0, 0
0, 0
0, 0
0, 0
0, 0
0, 0
0, 0
1, 0
0, 0
0, 0
0, 0
0, 0
0, 0
0, 0
0, 0
0, 0
0, 0
0, 0
0, 0
0, 0
0, 0
0, 0
0, 0
0, 0
0, 0
0, 0
0, 0
0, 0
0, 0
0, 0
0, 0
0, 0
0, 0
0, 0
0, 0
0, 0
0, 0
0, 0
0, 0
0, 0
0, 0
0, 0
0, 0
0, 0
0, 0
0, 0
0, 0
0, 0
0, 0
0, 0
0, 0
0, 0
0, 0
0, 0
0, 0
0, 0
0, 0
0, 0
0, 0
0, 0
0, 0
0, 0
0, 0
0, 0
0, 0
0, 0
0, 0
0, 0
0, 0
0, 0
0, 0
0, 0
0, 0
0, 0
0, 0
0, 0
0, 0
0, 0
0, 0
0, 0
0, 0
0, 0
0, 0
0, 0
0, 0
0, 0
0, 0
0, 0
0, 0
0, 0
0, 0
0, 0
0, 0
0, 0
0, 0
0, 0
0, 0
0, 0
0, 0
0, 0
0, 0
0, 0
0, 0
0, 0
0, 0
0, 0
0, 0
0, 0
0, 0
0, 0
0, 0
0, 0
0, 0
0, 0
0, 0
0, 0
0, 0
0, 0
0, 0
0, 0
0, 0
0, 0
0, 0
0, 0
0, 0
0, 0
0, 0
0, 0
0, 0
0, 0
0, 0
0, 0
0, 0
0, 0
0, 0
0, 0
0, 0
0, 0
0, 0
0, 0
0, 0
0, 0
0, 0
0, 0
0, 0
0, 0
0, 0
0, 0
0, 0
0, 0
0, 0
0, 0
0, 0
0, 0
0, 0
0, 0
0, 0
0, 0
0, 0
0, 0
0, 0
0, 0
0, 0
0, 0
0, 0
0, 0
0, 0
0, 0
0, 0
0, 0
0, 0
0, 0
0, 0
0, 0
0, 0
0, 0
0, 0
0, 0
0, 0
0, 0
0, 0
0, 0
0, 0
0, 0
0, 0
0, 0
0, 0
0, 0
0, 0
0, 0
0, 0
0, 0
0, 0
0, 0
0, 0
0, 0
0, 0
0, 0
0, 0
0, 0
0, 0
0, 0
0, 0
0, 0
0, 0
0, 0
0, 0
0, 0
0, 0
0, 0
0, 0
0, 0
0, 0
0, 0
0, 0
0, 0
0, 0
0, 0
0, 0
0, 0
0, 0
0, 0
0, 0
0, 0
0, 0
0, 0
0, 0
0, 0
0, 0
0, 0
0, 0
0, 0
0, 0
0, 0
0, 0
0, 0
0, 0
0, 0
0, 0
0, 0
0, 0
0, 0
0, 0
0, 0
0, 0
0, 0
0, 0
0, 0
0, 0
0, 0
0, 0
0, 0
0, 0
0, 0
0, 0
0, 0
0, 0
0, 0
0, 0
0, 0
0, 0
0, 0
0, 0
0, 0
0, 0
0, 0
0, 0
0, 0
0, 0
0, 0
0, 0
0, 0
0, 0
0, 0
0, 0
0, 0
0, 0
0, 0
0, 0
0, 0
0, 0
0, 0
0, 0
0, 0
0, 0
0, 0
0, 0
0, 0
0, 0
0, 0
0, 0
0, 0
#ENDOFDATA     end of spectrum data