File: host_upload/06-09-2024/ps_0852/dump3/ps__0852shot_2332.msa
#FORMAT      : EMSA/MAS spectral data file
#VERSION     : TC202v2.0 PIXL
#TITLE       : N/A
#DATE        :       Date in the format DD-MMM-YYYY, for example 07-JUL-2010
#TIME        :             The time of day at which the spectrum was recorded, in 24-hour format
#OWNER       : PIXL Flight Model       (PIXL will use this to indicate which instrument took the data.)
#NPOINTS     : 4096     Number of data points in the spectrum (This can be zero for configuration only files)
#NCOLUMNS    : 2     Number of data columns in the spectrum (This can be zero for configuration only files)
#XUNITS      : eV
#YUNITS      : COUNTS
#DATATYPE    : YY
#XPERCHAN    : 7.862, 7.881   eV per channel (separate by commas if more than one detector)
#OFFSET      : 18.5, -22.4         eV of first channel  (separate by commas if more than one detector
#SIGNALTYPE  : XRF
#YP_TEMP     : 2.428
#LIVETIME    : 8.55344, 8.52717   seconds (separate by commas if more than one detector)
#REALTIME    : 10, 10.0   seconds (separate by commas if more than one detector)
#SPECTRUM    : start of spectrum data
0, 0
0, 0
0, 0
0, 0
0, 0
0, 0
0, 0
0, 0
0, 0
0, 0
0, 0
0, 0
0, 0
0, 0
0, 0
0, 0
0, 0
0, 0
0, 0
0, 0
0, 0
0, 0
0, 0
0, 0
0, 0
0, 0
0, 0
0, 0
0, 0
0, 0
0, 0
0, 0
0, 0
0, 0
0, 1
0, 0
0, 1
2, 0
0, 1
0, 1
0, 1
3, 0
2, 0
1, 0
3, 0
2, 1
1, 1
3, 2
5, 10
16, 11
29, 22
42, 42
72, 73
74, 69
93, 70
82, 80
79, 48
46, 37
34, 19
13, 19
13, 10
8, 1
2, 6
2, 2
1, 2
6, 2
7, 4
7, 6
11, 21
52, 44
101, 85
191, 149
263, 243
328, 308
449, 345
448, 352
407, 329
311, 238
207, 178
125, 99
79, 62
42, 35
25, 15
6, 16
5, 3
0, 6
2, 3
4, 4
3, 2
3, 4
5, 1
3, 3
7, 6
12, 10
20, 26
41, 40
77, 70
77, 69
107, 93
94, 98
95, 68
82, 50
41, 36
28, 38
22, 20
16, 21
6, 8
10, 9
21, 22
23, 14
15, 17
33, 21
29, 27
33, 24
51, 41
35, 31
35, 36
23, 30
28, 21
30, 28
22, 17
19, 26
12, 25
15, 11
21, 10
8, 17
16, 5
7, 5
9, 8
6, 7
7, 5
4, 0
2, 2
3, 3
1, 2
7, 3
1, 6
3, 1
4, 1
4, 5
4, 3
2, 3
4, 4
3, 0
2, 1
1, 2
2, 5
4, 5
0, 1
4, 2
5, 3
8, 1
12, 8
14, 12
18, 16
22, 26
33, 28
25, 21
27, 21
23, 21
22, 19
13, 17
6, 18
12, 5
11, 12
11, 6
6, 5
2, 6
7, 9
7, 6
15, 8
13, 7
9, 4
8, 8
9, 10
6, 9
4, 11
5, 11
2, 18
3, 16
6, 17
3, 8
6, 10
3, 10
2, 3
4, 3
0, 2
9, 6
10, 3
14, 3
7, 15
8, 8
7, 8
16, 11
13, 9
13, 18
7, 17
23, 16
18, 20
19, 18
21, 22
14, 21
14, 16
11, 21
11, 17
7, 13
11, 10
9, 12
12, 3
10, 8
7, 9
10, 9
9, 4
5, 5
10, 10
12, 8
8, 10
8, 4
13, 12
10, 7
12, 8
5, 6
18, 9
13, 7
14, 8
18, 10
25, 12
30, 10
32, 11
40, 18
49, 22
46, 12
50, 17
27, 12
30, 11
18, 8
23, 16
16, 10
6, 5
9, 13
5, 9
14, 22
8, 16
9, 18
21, 28
22, 32
27, 43
54, 50
44, 57
48, 53
75, 53
77, 72
60, 44
56, 41
49, 29
25, 20
31, 21
28, 20
29, 21
40, 10
45, 21
57, 24
82, 58
133, 100
163, 210
276, 327
550, 520
860, 830
1202, 1236
1618, 1625
2134, 1911
2495, 2094
2654, 2150
2501, 2014
2307, 1755
1819, 1334
1404, 958
981, 608
633, 379
365, 215
226, 121
128, 68
70, 34
43, 25
31, 18
35, 11
40, 11
44, 25
41, 18
37, 17
30, 21
58, 32
59, 52
85, 78
119, 123
152, 174
184, 225
275, 256
327, 335
351, 379
342, 345
375, 310
296, 289
261, 217
205, 143
148, 91
102, 76
78, 39
26, 18
23, 11
16, 12
15, 5
13, 15
9, 6
14, 12
7, 18
12, 7
21, 14
14, 10
13, 6
16, 15
12, 12
10, 10
5, 8
9, 9
4, 3
3, 3
1, 7
6, 5
3, 2
6, 5
1, 4
3, 3
7, 10
5, 7
1, 0
4, 6
6, 1
4, 4
6, 3
1, 3
4, 3
2, 2
5, 6
3, 2
10, 8
8, 3
6, 11
9, 6
9, 6
8, 6
11, 7
11, 6
8, 6
8, 10
14, 3
14, 3
11, 2
19, 5
19, 7
11, 4
23, 6
10, 0
6, 5
11, 3
10, 5
9, 4
7, 4
3, 4
6, 1
4, 6
4, 3
6, 9
4, 3
4, 3
6, 2
6, 11
2, 3
4, 3
3, 3
7, 2
5, 3
3, 5
6, 2
4, 2
2, 4
5, 4
4, 5
6, 2
5, 8
6, 10
1, 7
3, 10
5, 9
11, 8
3, 15
4, 8
7, 7
0, 3
7, 7
6, 8
7, 6
6, 7
3, 4
1, 4
5, 7
2, 4
6, 1
3, 2
4, 2
8, 3
6, 5
11, 2
11, 3
10, 2
19, 2
13, 2
10, 1
23, 5
25, 3
15, 2
12, 4
9, 1
9, 2
4, 3
7, 4
10, 4
6, 0
2, 4
3, 5
5, 3
3, 3
5, 2
8, 3
4, 2
5, 4
4, 7
8, 2
4, 2
7, 2
7, 2
3, 2
6, 1
2, 2
3, 3
6, 4
4, 5
5, 3
0, 3
9, 3
1, 5
6, 2
0, 3
7, 3
2, 1
2, 2
1, 6
3, 1
2, 1
1, 5
0, 2
2, 1
2, 3
3, 2
2, 1
3, 1
0, 3
2, 3
0, 2
0, 4
0, 2
1, 0
1, 2
0, 1
2, 0
1, 3
3, 2
5, 1
2, 2
2, 2
2, 3
1, 2
0, 1
1, 0
0, 2
5, 4
1, 1
4, 6
1, 2
0, 4
2, 3
1, 1
2, 3
4, 6
4, 2
3, 3
7, 2
0, 1
2, 4
1, 3
3, 0
2, 3
1, 2
6, 2
1, 1
2, 1
2, 2
6, 1
6, 0
4, 0
4, 2
4, 1
3, 0
1, 2
2, 1
4, 1
1, 4
2, 1
3, 1
4, 1
2, 2
1, 2
1, 1
0, 2
2, 1
1, 3
1, 1
0, 0
5, 1
0, 1
1, 0
2, 2
2, 3
1, 2
2, 1
1, 1
0, 4
3, 1
7, 4
5, 5
3, 4
7, 6
6, 6
5, 6
3, 2
3, 1
3, 4
1, 2
2, 1
1, 3
2, 0
3, 1
3, 0
4, 0
3, 0
3, 3
1, 0
3, 0
0, 2
2, 1
1, 1
2, 0
5, 0
2, 1
0, 3
0, 0
2, 1
0, 0
3, 2
1, 1
2, 2
2, 1
5, 0
2, 2
0, 2
2, 1
3, 1
1, 2
1, 0
1, 2
2, 4
0, 0
3, 1
1, 2
0, 1
0, 0
0, 4
1, 0
0, 1
5, 2
1, 1
0, 1
0, 2
1, 0
1, 1
3, 0
1, 0
2, 3
2, 2
3, 0
1, 3
3, 0
3, 1
0, 0
1, 2
1, 1
2, 0
3, 2
2, 2
4, 1
1, 1
3, 2
0, 1
0, 3
2, 0
1, 0
0, 0
0, 2
3, 0
0, 0
0, 0
2, 1
0, 0
3, 2
0, 0
1, 0
3, 1
1, 0
1, 3
0, 2
2, 0
0, 1
0, 2
2, 0
1, 0
0, 0
1, 0
1, 3
0, 1
0, 0
0, 0
0, 1
2, 0
0, 0
0, 0
0, 1
0, 1
0, 1
0, 2
0, 0
0, 1
2, 1
0, 1
1, 0
0, 0
0, 2
0, 0
2, 0
0, 2
1, 0
0, 2
0, 1
1, 0
0, 0
1, 0
1, 1
0, 0
1, 0
0, 1
0, 0
1, 1
0, 1
0, 1
0, 1
0, 2
1, 1
1, 0
1, 0
1, 2
0, 2
1, 0
2, 2
1, 1
0, 0
1, 0
1, 0
0, 1
1, 1
3, 1
0, 0
1, 1
0, 0
0, 0
0, 0
0, 2
0, 0
0, 0
1, 0
0, 1
0, 0
0, 0
0, 0
0, 0
0, 2
0, 0
0, 0
0, 1
1, 1
0, 0
1, 0
1, 0
0, 0
1, 1
0, 0
0, 0
0, 0
0, 0
1, 2
0, 2
0, 0
0, 1
0, 0
1, 0
0, 2
0, 0
0, 0
0, 1
0, 0
0, 0
0, 1
1, 2
0, 0
0, 0
0, 0
0, 0
0, 1
1, 0
0, 1
0, 0
1, 0
0, 0
0, 0
0, 0
0, 0
1, 0
1, 0
0, 1
0, 0
0, 0
4, 0
0, 0
0, 0
0, 0
0, 0
0, 0
1, 0
1, 0
1, 0
0, 0
0, 1
0, 0
1, 1
0, 2
0, 0
0, 2
0, 0
0, 0
0, 1
0, 2
0, 0
0, 1
1, 0
0, 0
1, 1
2, 0
0, 0
0, 0
0, 0
1, 1
0, 0
0, 0
0, 0
0, 0
0, 0
1, 0
0, 0
0, 1
1, 1
0, 0
0, 0
0, 0
0, 1
0, 0
0, 0
0, 0
0, 0
0, 1
0, 0
0, 0
0, 0
0, 0
0, 0
0, 0
0, 0
0, 0
0, 0
0, 0
0, 0
0, 1
0, 0
0, 0
1, 0
0, 1
0, 0
0, 0
0, 0
0, 0
0, 0
0, 0
0, 0
0, 0
0, 0
0, 0
1, 0
1, 0
1, 0
0, 0
0, 0
0, 1
0, 0
0, 0
1, 0
0, 0
0, 0
1, 0
0, 0
0, 0
0, 0
0, 0
0, 0
0, 0
0, 0
0, 0
0, 1
0, 0
0, 0
0, 0
0, 0
0, 1
0, 0
0, 0
0, 0
1, 0
1, 0
0, 0
0, 1
0, 0
0, 1
0, 0
2, 0
0, 0
0, 1
0, 0
0, 0
0, 0
0, 0
0, 0
0, 0
0, 0
0, 0
0, 0
0, 0
0, 0
0, 0
0, 0
0, 0
0, 0
0, 0
1, 0
0, 0
0, 0
0, 0
0, 0
0, 0
0, 0
1, 0
1, 0
1, 1
0, 0
0, 0
0, 0
0, 0
0, 0
1, 0
0, 0
0, 0
0, 0
0, 0
0, 0
0, 0
0, 0
0, 0
0, 0
0, 0
0, 0
1, 0
0, 0
0, 1
0, 0
0, 0
0, 0
0, 0
0, 0
0, 0
0, 0
0, 0
0, 0
0, 0
0, 0
0, 0
0, 0
0, 0
1, 0
0, 0
0, 0
0, 0
0, 0
0, 0
0, 0
0, 0
0, 0
0, 0
0, 0
0, 0
0, 0
0, 0
0, 0
0, 0
0, 0
0, 0
0, 0
0, 0
0, 0
0, 0
0, 0
0, 0
0, 0
0, 0
0, 0
0, 0
0, 0
0, 0
0, 0
0, 0
0, 0
0, 0
0, 0
0, 0
0, 0
0, 0
0, 0
0, 1
0, 0
0, 0
0, 0
0, 0
0, 0
0, 0
0, 0
0, 0
0, 0
0, 0
0, 0
0, 0
0, 0
0, 0
0, 0
0, 0
0, 0
0, 0
0, 0
0, 0
0, 0
0, 0
0, 0
0, 0
0, 0
0, 0
0, 0
0, 0
0, 0
0, 0
0, 0
0, 0
0, 0
0, 0
0, 0
0, 0
0, 0
0, 0
0, 0
0, 0
0, 0
0, 0
0, 0
0, 0
0, 0
0, 0
0, 0
0, 0
0, 0
0, 0
0, 0
0, 0
0, 0
0, 0
0, 0
0, 0
0, 0
0, 0
0, 1
0, 0
0, 0
0, 0
0, 0
0, 0
0, 0
0, 0
0, 0
0, 0
0, 0
0, 0
0, 0
0, 0
0, 0
0, 0
0, 0
0, 0
0, 0
0, 0
0, 0
0, 0
0, 0
0, 0
0, 0
0, 0
0, 0
0, 0
0, 0
0, 0
0, 0
0, 0
0, 0
0, 0
0, 0
0, 0
0, 0
0, 0
0, 0
0, 0
0, 0
0, 0
0, 0
0, 0
0, 0
0, 0
0, 0
0, 0
0, 0
0, 0
0, 0
0, 0
0, 0
0, 0
0, 0
0, 1
0, 0
0, 0
0, 0
0, 0
0, 0
0, 0
0, 0
0, 0
0, 0
0, 0
0, 0
0, 0
0, 0
0, 0
0, 0
0, 0
0, 0
0, 0
0, 0
0, 0
0, 0
0, 0
0, 0
0, 0
0, 0
0, 0
0, 0
0, 0
0, 0
0, 0
0, 0
0, 0
0, 0
0, 0
0, 0
0, 0
0, 0
0, 0
0, 0
0, 0
0, 0
0, 0
0, 0
0, 0
0, 0
0, 0
0, 0
0, 0
0, 0
0, 0
0, 0
0, 0
0, 0
0, 0
0, 0
0, 0
0, 0
0, 0
0, 0
0, 0
0, 0
0, 0
0, 0
0, 0
0, 0
0, 0
0, 0
0, 0
0, 0
0, 0
0, 0
0, 0
0, 0
0, 0
0, 0
0, 0
0, 0
0, 0
0, 0
0, 0
0, 0
0, 0
0, 0
0, 0
0, 0
0, 0
0, 0
0, 0
0, 0
0, 0
0, 0
0, 0
0, 0
0, 0
0, 0
0, 0
0, 0
0, 0
0, 0
0, 0
0, 0
0, 0
0, 0
0, 0
0, 0
0, 0
0, 0
0, 0
0, 0
0, 0
0, 0
0, 0
0, 0
0, 0
0, 0
0, 0
0, 0
0, 0
0, 0
0, 0
0, 0
0, 0
0, 0
0, 0
0, 0
0, 0
0, 0
0, 0
0, 0
0, 0
0, 0
0, 0
0, 0
0, 0
0, 0
0, 0
0, 0
0, 0
0, 0
0, 0
0, 0
0, 0
0, 0
0, 0
0, 0
0, 0
0, 0
0, 0
0, 0
0, 0
0, 0
0, 0
0, 0
0, 0
0, 0
0, 0
0, 0
0, 0
0, 0
0, 0
0, 0
0, 0
0, 0
0, 0
0, 0
0, 0
0, 0
0, 0
0, 0
0, 0
0, 0
0, 0
0, 0
0, 0
0, 0
0, 0
0, 0
0, 0
0, 0
0, 0
0, 0
0, 0
0, 0
0, 0
0, 0
0, 0
0, 0
0, 0
0, 0
0, 0
0, 0
0, 0
0, 0
0, 0
0, 0
0, 0
0, 0
0, 0
0, 0
0, 0
0, 0
0, 0
0, 0
0, 0
0, 0
0, 0
0, 0
0, 0
0, 0
0, 0
0, 0
0, 0
0, 0
0, 0
0, 0
0, 0
0, 0
0, 0
0, 0
0, 0
0, 0
0, 0
0, 0
0, 0
0, 0
0, 0
0, 0
0, 0
0, 0
0, 0
0, 0
0, 0
0, 0
0, 0
0, 0
0, 0
0, 0
0, 0
0, 0
0, 0
0, 0
0, 0
0, 0
0, 0
0, 0
0, 0
0, 0
0, 0
0, 0
0, 0
0, 0
0, 0
0, 0
0, 0
0, 0
0, 0
0, 0
0, 0
0, 0
0, 0
0, 0
0, 0
0, 0
0, 0
0, 0
0, 0
0, 0
0, 0
0, 0
0, 0
0, 0
0, 0
0, 0
0, 0
0, 0
0, 0
0, 0
0, 0
0, 0
0, 0
0, 0
0, 0
0, 0
0, 0
0, 0
0, 0
0, 0
0, 0
0, 0
0, 0
#ENDOFDATA     end of spectrum data