File: host_upload/06-09-2024/ps_0852/dump3/ps__0852shot_2159.msa
#FORMAT      : EMSA/MAS spectral data file
#VERSION     : TC202v2.0 PIXL
#TITLE       : N/A
#DATE        :       Date in the format DD-MMM-YYYY, for example 07-JUL-2010
#TIME        :             The time of day at which the spectrum was recorded, in 24-hour format
#OWNER       : PIXL Flight Model       (PIXL will use this to indicate which instrument took the data.)
#NPOINTS     : 4096     Number of data points in the spectrum (This can be zero for configuration only files)
#NCOLUMNS    : 2     Number of data columns in the spectrum (This can be zero for configuration only files)
#XUNITS      : eV
#YUNITS      : COUNTS
#DATATYPE    : YY
#XPERCHAN    : 7.862, 7.881   eV per channel (separate by commas if more than one detector)
#OFFSET      : 18.5, -22.4         eV of first channel  (separate by commas if more than one detector
#SIGNALTYPE  : XRF
#YP_TEMP     : 2.364
#LIVETIME    : 8.55954, 8.55638   seconds (separate by commas if more than one detector)
#REALTIME    : 10, 10.0   seconds (separate by commas if more than one detector)
#SPECTRUM    : start of spectrum data
0, 0
0, 0
0, 0
0, 0
0, 0
0, 0
0, 0
0, 0
0, 0
0, 0
0, 0
0, 0
0, 0
0, 0
0, 0
0, 0
0, 0
0, 0
0, 0
0, 0
0, 0
0, 0
0, 0
0, 0
0, 0
0, 0
0, 0
0, 0
0, 0
0, 0
0, 0
0, 0
1, 1
0, 1
0, 1
0, 0
0, 0
2, 0
0, 0
2, 1
1, 5
2, 3
1, 4
2, 1
0, 2
1, 2
1, 1
5, 1
5, 3
6, 13
17, 14
40, 28
49, 41
51, 60
77, 74
57, 63
39, 53
46, 39
18, 27
15, 19
8, 6
5, 4
6, 6
4, 5
5, 6
3, 7
5, 5
3, 7
20, 23
41, 45
87, 86
158, 142
237, 224
357, 294
375, 356
394, 352
328, 340
287, 228
176, 152
148, 100
67, 48
34, 34
22, 11
9, 13
10, 8
4, 5
1, 2
2, 3
3, 3
1, 3
3, 2
4, 9
13, 11
22, 23
48, 40
73, 91
99, 127
141, 148
161, 199
169, 184
145, 177
127, 123
83, 107
65, 70
40, 58
26, 54
19, 61
32, 53
22, 68
33, 70
51, 45
48, 69
51, 69
61, 56
58, 71
53, 71
49, 51
59, 45
42, 37
36, 46
20, 28
20, 24
29, 22
24, 20
31, 21
20, 12
11, 12
10, 18
9, 10
12, 11
6, 9
3, 6
9, 5
5, 4
2, 3
6, 3
1, 2
3, 4
4, 1
2, 2
7, 1
3, 4
2, 3
3, 3
2, 1
5, 3
1, 2
1, 3
2, 1
0, 1
5, 3
7, 6
5, 11
19, 17
17, 17
26, 29
27, 37
40, 37
26, 35
28, 29
21, 23
13, 13
14, 5
3, 5
6, 7
3, 3
2, 5
1, 3
11, 11
3, 12
11, 4
9, 5
7, 8
5, 10
3, 6
11, 4
8, 5
3, 5
6, 7
2, 2
7, 7
3, 5
6, 5
3, 5
3, 4
3, 1
7, 5
9, 1
3, 8
9, 8
6, 6
12, 7
14, 11
17, 9
10, 13
17, 24
14, 10
16, 12
18, 13
11, 17
19, 13
11, 11
6, 11
7, 7
7, 14
11, 8
3, 14
5, 21
9, 21
3, 29
8, 16
6, 43
4, 38
5, 37
6, 33
3, 26
4, 23
7, 20
2, 7
8, 12
6, 7
9, 14
6, 7
12, 12
12, 9
12, 13
15, 10
11, 12
10, 13
20, 14
16, 13
16, 21
17, 13
24, 25
20, 12
14, 13
10, 9
11, 5
8, 8
4, 5
5, 7
10, 9
9, 12
13, 18
16, 21
12, 25
27, 33
34, 46
42, 62
65, 62
67, 91
60, 100
73, 70
55, 69
42, 51
40, 40
26, 23
31, 18
13, 22
19, 17
18, 33
31, 26
52, 51
91, 96
155, 196
309, 339
491, 566
757, 866
1088, 1297
1528, 1754
1959, 2163
2341, 2312
2413, 2400
2363, 2227
2222, 1881
1745, 1464
1441, 1079
993, 718
649, 469
412, 249
213, 127
148, 67
64, 41
37, 18
24, 20
13, 15
19, 9
15, 10
14, 11
15, 22
37, 29
28, 32
55, 50
73, 84
98, 109
156, 188
196, 217
266, 268
322, 299
389, 305
355, 318
374, 296
292, 277
262, 193
213, 121
137, 104
72, 85
59, 31
31, 22
22, 12
12, 7
10, 11
8, 13
6, 6
11, 12
13, 12
14, 19
15, 12
14, 15
16, 16
18, 20
23, 7
12, 4
18, 7
11, 5
13, 4
25, 5
11, 3
17, 4
13, 6
18, 3
9, 2
10, 5
6, 6
8, 8
5, 7
12, 9
6, 8
6, 3
0, 3
4, 3
3, 8
1, 3
3, 1
2, 8
5, 2
3, 7
5, 4
9, 3
6, 11
6, 21
4, 14
8, 13
5, 17
2, 10
2, 9
5, 7
4, 13
3, 10
5, 10
3, 5
2, 4
2, 5
3, 6
5, 2
5, 5
5, 5
9, 3
6, 2
6, 2
4, 4
7, 7
5, 3
6, 2
5, 7
6, 2
5, 5
6, 6
2, 2
1, 4
5, 2
1, 2
4, 3
3, 7
4, 3
2, 4
2, 1
2, 4
5, 7
3, 11
3, 7
1, 8
1, 11
1, 8
1, 3
5, 4
1, 5
2, 5
1, 4
0, 5
1, 4
2, 10
5, 7
6, 1
3, 5
2, 7
3, 1
3, 3
6, 4
6, 5
0, 5
3, 6
4, 5
1, 2
2, 8
3, 6
4, 5
7, 3
4, 1
1, 9
5, 3
6, 5
2, 5
3, 2
6, 9
2, 9
3, 3
4, 4
4, 5
4, 3
6, 1
4, 4
2, 4
4, 4
4, 2
4, 0
7, 1
2, 2
1, 5
1, 2
6, 3
5, 3
4, 3
6, 2
4, 1
8, 2
3, 4
5, 1
3, 1
5, 2
1, 2
1, 1
1, 6
3, 1
4, 1
5, 3
2, 1
1, 3
3, 4
4, 2
3, 4
3, 2
2, 1
6, 3
2, 1
4, 0
6, 2
4, 2
3, 3
6, 3
5, 1
1, 1
6, 2
0, 0
4, 4
3, 0
2, 3
3, 2
1, 2
4, 2
3, 3
0, 2
0, 0
2, 4
0, 1
3, 2
1, 1
0, 4
6, 2
2, 4
3, 4
3, 4
3, 2
1, 1
1, 4
2, 2
1, 5
0, 1
1, 3
4, 2
0, 4
1, 0
1, 6
0, 1
4, 5
3, 2
3, 4
4, 3
0, 2
3, 2
4, 1
2, 2
0, 0
3, 2
6, 3
0, 3
0, 3
1, 2
1, 1
1, 1
2, 3
1, 1
0, 2
3, 2
0, 3
1, 2
1, 2
2, 1
2, 2
1, 0
2, 2
3, 3
1, 0
3, 2
3, 2
5, 5
2, 2
2, 2
3, 4
0, 2
4, 2
4, 2
3, 2
8, 4
5, 5
0, 4
4, 3
3, 3
2, 1
3, 1
2, 2
1, 4
0, 0
4, 1
1, 3
3, 2
2, 2
1, 0
1, 1
1, 1
1, 2
2, 0
1, 2
3, 2
2, 1
3, 3
7, 5
1, 6
5, 8
2, 2
1, 3
0, 2
2, 0
4, 0
2, 2
3, 1
3, 0
3, 2
2, 0
1, 0
0, 0
4, 1
3, 0
2, 1
1, 2
0, 1
2, 2
0, 3
0, 2
1, 1
1, 2
2, 2
0, 1
1, 1
0, 1
0, 0
4, 2
1, 0
1, 2
1, 1
4, 2
3, 3
1, 0
0, 0
1, 0
0, 0
0, 2
3, 0
2, 1
2, 1
1, 0
0, 1
1, 4
1, 0
3, 0
0, 1
0, 0
4, 2
2, 0
1, 0
1, 0
2, 1
0, 0
0, 1
0, 1
1, 1
0, 0
2, 0
1, 0
0, 2
2, 0
0, 1
0, 0
1, 0
1, 0
0, 1
2, 2
0, 1
0, 1
0, 0
1, 0
2, 2
2, 0
2, 2
1, 1
0, 0
0, 1
0, 0
0, 1
1, 2
1, 0
0, 1
0, 2
1, 2
3, 1
0, 1
0, 0
0, 2
1, 1
0, 1
1, 0
0, 1
1, 0
0, 0
0, 1
0, 1
2, 1
0, 0
0, 0
1, 0
1, 1
0, 2
0, 0
1, 0
0, 0
0, 0
1, 1
0, 2
0, 1
0, 1
0, 2
1, 0
0, 0
1, 1
0, 0
0, 0
0, 0
0, 0
0, 0
1, 0
0, 1
0, 0
2, 0
0, 0
1, 1
1, 0
1, 0
0, 1
0, 0
0, 0
1, 0
2, 0
0, 0
1, 1
1, 1
1, 0
0, 0
0, 0
0, 0
1, 0
0, 1
1, 0
1, 0
0, 0
0, 1
0, 1
1, 1
0, 1
2, 1
0, 0
0, 0
0, 0
1, 0
0, 0
1, 0
0, 0
0, 2
0, 0
0, 0
0, 1
1, 1
0, 0
0, 1
0, 0
0, 0
0, 0
0, 1
0, 0
0, 0
0, 1
0, 0
0, 0
1, 1
0, 0
0, 0
0, 0
1, 0
0, 2
0, 0
0, 1
0, 0
0, 0
0, 0
0, 1
0, 0
1, 1
0, 0
0, 0
1, 1
0, 1
0, 0
0, 0
1, 0
1, 0
0, 1
0, 0
0, 0
0, 0
0, 1
0, 0
0, 1
0, 0
0, 0
0, 0
0, 0
0, 0
0, 0
1, 0
0, 0
0, 0
0, 0
0, 0
1, 0
0, 0
0, 0
1, 0
0, 0
0, 0
1, 1
0, 0
0, 0
1, 1
0, 1
0, 0
0, 0
1, 0
1, 1
2, 0
0, 0
0, 0
2, 0
0, 0
0, 0
2, 0
0, 0
0, 0
0, 0
0, 0
0, 1
0, 0
1, 0
0, 0
1, 0
0, 1
0, 0
1, 1
0, 0
1, 0
1, 1
1, 0
0, 0
1, 0
0, 0
0, 0
0, 0
0, 0
0, 0
0, 1
0, 1
0, 0
0, 0
0, 0
0, 0
0, 0
1, 0
1, 0
0, 0
0, 0
0, 0
0, 0
1, 0
0, 0
0, 1
0, 1
0, 0
0, 0
0, 0
0, 0
0, 0
0, 1
0, 0
0, 0
0, 0
0, 0
0, 1
0, 0
0, 0
1, 0
0, 0
0, 0
0, 1
0, 0
0, 0
0, 1
0, 0
1, 0
0, 0
1, 0
0, 0
0, 0
0, 0
0, 0
0, 1
0, 0
0, 1
0, 0
0, 0
0, 0
0, 1
0, 0
0, 0
0, 0
0, 0
0, 0
0, 0
0, 0
0, 0
0, 0
0, 0
0, 0
0, 0
0, 0
0, 0
0, 0
0, 0
0, 0
1, 0
0, 0
0, 0
0, 1
1, 0
0, 0
0, 0
0, 0
0, 1
0, 0
0, 0
0, 0
0, 0
1, 0
0, 0
0, 1
0, 0
0, 0
0, 0
0, 0
0, 0
0, 0
1, 0
0, 0
0, 0
0, 0
0, 0
0, 0
0, 0
0, 0
0, 0
0, 0
0, 0
0, 0
0, 1
0, 0
0, 0
0, 0
0, 0
0, 0
0, 0
0, 0
0, 0
0, 0
0, 0
0, 0
0, 0
0, 0
0, 0
0, 0
0, 0
0, 0
0, 0
0, 0
0, 0
0, 0
0, 0
0, 0
0, 0
0, 0
0, 0
0, 0
0, 0
0, 0
0, 0
0, 0
0, 0
0, 0
0, 0
0, 0
0, 0
0, 0
1, 0
0, 0
0, 0
0, 0
0, 0
0, 0
0, 0
0, 0
0, 0
0, 0
0, 0
0, 0
0, 0
0, 0
1, 0
0, 0
0, 0
0, 0
0, 0
0, 0
0, 0
0, 0
0, 0
0, 0
0, 0
0, 0
0, 0
0, 0
0, 0
0, 0
0, 0
0, 0
0, 1
0, 0
0, 0
0, 0
0, 0
0, 0
0, 0
0, 0
0, 0
0, 0
0, 0
0, 0
0, 0
0, 0
0, 0
0, 0
0, 0
0, 0
0, 0
0, 0
0, 0
0, 0
0, 0
0, 0
0, 0
0, 0
0, 0
0, 0
0, 0
0, 0
0, 0
0, 1
0, 0
0, 0
0, 0
0, 0
0, 0
0, 0
0, 0
0, 0
0, 0
0, 0
0, 0
0, 0
0, 0
0, 0
0, 0
0, 0
0, 0
0, 0
0, 0
0, 0
0, 0
0, 0
0, 0
0, 0
0, 0
0, 0
0, 0
0, 0
0, 0
0, 0
0, 0
0, 0
0, 0
0, 0
0, 0
0, 0
0, 0
0, 0
0, 0
0, 0
0, 0
0, 0
0, 0
0, 0
0, 0
0, 0
0, 0
0, 0
0, 0
0, 0
0, 0
0, 0
0, 0
0, 0
0, 0
0, 0
0, 0
0, 0
0, 0
0, 0
0, 0
0, 0
0, 0
0, 0
0, 0
0, 0
0, 0
0, 0
0, 0
0, 0
0, 0
0, 0
0, 0
0, 0
0, 0
0, 0
0, 0
0, 0
0, 0
0, 0
0, 0
0, 0
0, 0
0, 0
0, 0
0, 0
0, 0
0, 0
0, 0
0, 0
0, 0
0, 0
0, 0
0, 0
0, 0
0, 0
0, 0
0, 0
0, 0
0, 0
0, 0
0, 0
0, 0
0, 0
0, 0
0, 0
0, 0
0, 0
0, 0
0, 0
0, 0
0, 0
0, 0
0, 0
0, 0
0, 0
0, 0
0, 0
0, 0
0, 0
0, 0
0, 0
0, 0
0, 0
0, 0
0, 0
0, 0
0, 0
0, 0
0, 0
0, 0
0, 0
0, 0
0, 0
0, 0
0, 0
0, 0
0, 0
0, 0
0, 0
0, 0
0, 0
0, 0
0, 0
0, 0
0, 0
0, 0
0, 0
0, 0
0, 0
0, 0
0, 0
0, 0
0, 0
0, 0
0, 0
0, 0
0, 0
0, 0
0, 0
0, 0
0, 0
0, 0
0, 0
0, 0
0, 0
0, 0
0, 0
0, 0
0, 0
0, 0
0, 0
0, 0
0, 0
0, 0
0, 0
0, 0
0, 0
0, 0
0, 0
0, 0
0, 0
0, 0
0, 0
0, 0
0, 0
0, 0
0, 0
0, 0
0, 0
0, 0
0, 0
0, 0
0, 0
0, 0
0, 0
0, 0
0, 0
0, 0
0, 0
0, 0
0, 0
0, 0
0, 0
0, 0
0, 0
0, 0
0, 0
0, 0
0, 0
0, 0
0, 0
0, 0
0, 0
0, 0
0, 0
0, 0
0, 0
0, 0
0, 0
0, 0
0, 0
0, 0
0, 0
0, 0
0, 0
0, 0
0, 0
0, 0
0, 0
0, 0
0, 0
0, 0
0, 0
0, 0
0, 0
0, 0
0, 0
0, 0
0, 0
0, 0
0, 0
0, 0
0, 0
0, 0
0, 0
0, 0
0, 0
0, 0
0, 0
0, 0
0, 0
0, 0
0, 0
0, 0
0, 0
0, 0
0, 0
0, 0
0, 0
0, 0
0, 0
0, 0
0, 0
0, 0
0, 0
0, 0
0, 0
0, 0
0, 0
0, 0
0, 0
0, 0
0, 0
0, 0
0, 0
0, 0
0, 0
0, 0
0, 0
0, 0
0, 0
0, 0
0, 0
0, 0
0, 0
0, 0
0, 0
0, 0
0, 0
0, 0
0, 0
0, 0
0, 0
0, 0
0, 0
0, 0
0, 0
0, 0
0, 0
0, 0
0, 0
0, 0
0, 0
0, 0
0, 0
0, 0
0, 0
0, 0
0, 0
0, 0
0, 0
0, 0
0, 0
0, 0
0, 0
0, 0
0, 0
0, 0
0, 0
0, 0
0, 0
0, 0
0, 0
0, 0
0, 0
0, 0
0, 0
0, 0
0, 0
0, 0
0, 0
0, 0
0, 0
#ENDOFDATA     end of spectrum data