File: host_upload/06-09-2024/ps_0852/dump3/ps__0852shot_2100.msa
#FORMAT      : EMSA/MAS spectral data file
#VERSION     : TC202v2.0 PIXL
#TITLE       : N/A
#DATE        :       Date in the format DD-MMM-YYYY, for example 07-JUL-2010
#TIME        :             The time of day at which the spectrum was recorded, in 24-hour format
#OWNER       : PIXL Flight Model       (PIXL will use this to indicate which instrument took the data.)
#NPOINTS     : 4096     Number of data points in the spectrum (This can be zero for configuration only files)
#NCOLUMNS    : 2     Number of data columns in the spectrum (This can be zero for configuration only files)
#XUNITS      : eV
#YUNITS      : COUNTS
#DATATYPE    : YY
#XPERCHAN    : 7.862, 7.881   eV per channel (separate by commas if more than one detector)
#OFFSET      : 18.5, -22.4         eV of first channel  (separate by commas if more than one detector
#SIGNALTYPE  : XRF
#YP_TEMP     : 2.139
#LIVETIME    : 8.56841, 8.55751   seconds (separate by commas if more than one detector)
#REALTIME    : 10, 10.0   seconds (separate by commas if more than one detector)
#SPECTRUM    : start of spectrum data
0, 0
0, 0
0, 0
0, 0
0, 0
0, 0
0, 0
0, 0
0, 0
0, 0
0, 0
0, 0
0, 0
0, 0
0, 0
0, 0
0, 0
0, 0
0, 0
0, 0
0, 0
0, 0
0, 0
0, 0
0, 0
0, 0
0, 0
0, 0
0, 0
0, 0
0, 0
0, 0
0, 0
0, 2
0, 0
0, 1
5, 2
4, 3
2, 1
2, 0
2, 1
1, 4
1, 2
2, 2
4, 1
2, 1
4, 3
3, 0
1, 9
7, 11
16, 21
31, 32
42, 54
58, 43
47, 54
50, 57
42, 51
27, 35
20, 13
10, 7
9, 8
5, 3
2, 4
3, 4
6, 3
6, 3
4, 8
17, 11
13, 12
37, 39
52, 75
118, 142
191, 210
241, 263
339, 248
318, 350
283, 269
230, 204
127, 156
86, 88
54, 51
36, 33
19, 23
18, 10
4, 4
5, 9
5, 5
1, 2
3, 4
9, 5
6, 16
16, 13
24, 32
64, 65
91, 130
155, 224
234, 299
302, 388
363, 470
357, 422
315, 369
241, 299
187, 196
124, 169
73, 92
51, 71
41, 59
38, 47
36, 49
32, 51
55, 50
58, 64
81, 61
88, 77
113, 82
86, 89
92, 64
85, 54
70, 40
51, 42
38, 29
39, 35
25, 47
30, 31
16, 26
22, 21
20, 11
15, 10
19, 19
11, 13
9, 10
9, 4
7, 7
7, 8
4, 1
7, 5
3, 1
5, 6
7, 3
4, 8
4, 6
6, 2
4, 7
3, 2
3, 5
5, 6
5, 7
4, 4
4, 4
8, 8
13, 13
24, 31
34, 50
87, 83
86, 144
145, 163
186, 206
218, 219
220, 230
182, 188
159, 157
94, 146
75, 156
49, 126
33, 121
22, 119
21, 130
31, 99
24, 97
30, 83
41, 70
42, 43
33, 46
28, 31
18, 26
11, 20
17, 11
9, 6
6, 10
2, 11
9, 7
2, 9
4, 8
4, 6
8, 4
5, 8
9, 3
10, 3
19, 10
22, 9
27, 14
29, 11
35, 19
32, 20
39, 16
37, 20
28, 22
29, 27
20, 21
27, 33
17, 32
19, 37
15, 40
11, 28
16, 21
14, 15
19, 18
18, 20
18, 8
14, 8
12, 12
7, 8
13, 6
6, 12
7, 8
9, 10
5, 12
7, 5
9, 3
6, 7
10, 7
5, 4
9, 9
16, 10
15, 16
16, 14
20, 24
33, 33
40, 29
46, 52
35, 42
30, 41
25, 41
36, 34
33, 23
25, 28
7, 25
15, 22
11, 39
5, 28
12, 30
10, 30
16, 27
12, 20
19, 27
20, 20
33, 35
32, 40
52, 49
72, 56
66, 55
80, 66
50, 40
58, 44
52, 39
33, 32
25, 31
22, 31
17, 15
19, 16
21, 18
31, 36
39, 50
78, 98
143, 167
227, 301
416, 540
630, 823
922, 1146
1306, 1551
1605, 1792
1832, 1951
1921, 2131
1866, 1869
1590, 1671
1444, 1186
1107, 984
785, 636
507, 386
304, 237
183, 126
96, 55
49, 42
25, 19
16, 20
17, 16
14, 13
18, 16
15, 16
16, 20
19, 26
38, 41
37, 49
58, 78
98, 100
122, 141
178, 180
196, 233
254, 283
288, 306
317, 298
288, 280
294, 248
236, 163
191, 138
123, 94
95, 58
71, 37
64, 27
67, 20
46, 10
42, 14
43, 8
27, 7
33, 9
42, 10
12, 14
19, 11
15, 18
17, 6
13, 13
18, 7
8, 11
7, 8
5, 7
12, 2
9, 2
6, 7
5, 6
9, 8
4, 11
10, 6
8, 5
7, 8
5, 7
12, 10
10, 1
8, 4
8, 2
10, 5
7, 6
7, 5
13, 2
8, 7
11, 2
15, 4
13, 4
24, 7
17, 6
12, 1
12, 10
20, 11
17, 9
17, 11
9, 15
8, 9
11, 14
12, 10
8, 5
6, 8
7, 14
7, 7
4, 13
3, 8
6, 8
6, 6
2, 8
3, 7
10, 3
6, 7
5, 1
1, 7
2, 6
2, 4
6, 2
7, 1
3, 1
3, 3
6, 2
2, 3
4, 5
3, 6
3, 3
4, 5
4, 6
5, 7
6, 5
8, 4
2, 8
3, 2
2, 7
3, 8
5, 1
4, 6
5, 3
5, 5
5, 4
7, 0
6, 2
5, 4
3, 3
3, 6
2, 3
5, 6
6, 5
4, 7
5, 4
6, 1
1, 2
4, 6
4, 0
6, 4
6, 0
3, 3
3, 5
2, 2
1, 6
8, 6
8, 5
0, 5
2, 9
3, 6
4, 4
0, 3
3, 6
3, 1
1, 3
3, 2
1, 2
5, 4
4, 4
5, 4
1, 4
3, 3
3, 4
1, 1
1, 2
3, 4
2, 5
3, 1
0, 3
3, 4
3, 2
2, 7
1, 6
4, 4
2, 7
1, 5
1, 3
3, 2
0, 2
3, 3
4, 4
1, 1
2, 7
1, 5
3, 1
0, 2
2, 3
2, 3
1, 2
3, 3
2, 7
3, 2
2, 3
6, 4
2, 4
2, 3
0, 2
2, 2
2, 2
4, 0
3, 1
2, 1
3, 3
1, 1
7, 1
2, 1
1, 4
2, 1
3, 2
6, 3
5, 3
3, 1
2, 2
1, 0
4, 1
1, 0
2, 4
5, 5
3, 1
1, 3
3, 4
1, 3
2, 3
1, 3
2, 1
2, 7
2, 5
2, 2
0, 1
1, 3
0, 0
2, 5
2, 3
0, 3
1, 1
2, 2
3, 1
2, 2
0, 0
0, 0
2, 5
1, 2
6, 5
2, 3
0, 5
1, 2
1, 4
2, 2
2, 4
4, 4
0, 3
3, 5
1, 5
3, 5
2, 2
2, 4
2, 5
1, 4
5, 1
2, 2
2, 1
1, 2
3, 1
3, 2
0, 4
1, 5
2, 4
2, 4
5, 0
1, 4
2, 3
6, 6
1, 2
1, 3
2, 5
2, 1
0, 6
1, 1
2, 0
0, 0
0, 2
2, 1
1, 5
0, 2
3, 2
4, 2
1, 0
4, 2
2, 2
1, 0
3, 1
2, 1
0, 0
4, 2
2, 1
0, 0
2, 0
4, 3
1, 5
0, 2
0, 1
2, 2
0, 1
0, 1
1, 4
0, 1
0, 2
1, 0
0, 2
4, 2
2, 0
1, 1
0, 1
1, 0
1, 2
0, 1
1, 0
3, 2
0, 3
1, 0
1, 0
0, 1
2, 0
0, 0
1, 0
0, 2
5, 1
3, 2
2, 0
2, 3
2, 1
0, 0
0, 1
0, 2
1, 1
1, 1
2, 0
3, 1
0, 3
0, 1
1, 1
0, 0
0, 0
0, 2
2, 1
0, 0
0, 1
1, 1
0, 3
1, 0
0, 1
0, 0
1, 0
4, 2
2, 0
2, 0
0, 0
3, 2
0, 1
1, 1
2, 1
1, 0
1, 2
1, 2
0, 0
1, 0
0, 0
1, 2
0, 2
0, 1
2, 0
2, 1
1, 0
0, 0
1, 0
1, 1
1, 1
1, 1
0, 0
3, 0
0, 0
3, 1
0, 1
1, 0
1, 2
0, 1
0, 1
1, 1
0, 0
1, 0
0, 0
1, 0
1, 0
1, 0
0, 0
2, 0
1, 0
0, 0
2, 0
0, 0
1, 2
1, 1
0, 0
0, 0
0, 1
1, 0
0, 0
1, 0
1, 0
0, 1
0, 0
1, 2
0, 0
0, 2
1, 0
1, 2
0, 0
0, 1
1, 0
1, 0
0, 0
0, 0
1, 0
0, 0
1, 0
0, 1
1, 1
0, 2
0, 0
0, 1
0, 0
0, 0
0, 0
2, 0
1, 0
1, 0
1, 0
2, 0
0, 1
1, 0
0, 0
1, 0
0, 1
2, 0
1, 1
0, 0
0, 0
1, 1
0, 1
1, 0
0, 1
0, 1
0, 1
0, 0
1, 0
0, 0
0, 0
1, 0
1, 1
1, 1
0, 0
0, 0
3, 0
0, 0
1, 1
0, 1
1, 0
0, 1
0, 0
1, 0
0, 0
0, 1
0, 0
0, 1
0, 1
1, 0
0, 0
0, 0
0, 0
0, 0
0, 0
0, 1
0, 1
0, 0
1, 0
0, 0
0, 0
1, 0
0, 0
0, 0
0, 1
1, 0
0, 1
0, 0
0, 0
0, 1
1, 0
0, 0
0, 0
0, 0
0, 0
0, 1
0, 0
1, 1
1, 0
0, 0
0, 0
0, 0
2, 0
0, 0
0, 0
0, 1
0, 0
0, 0
0, 1
0, 0
1, 0
0, 0
0, 0
0, 0
0, 1
1, 0
0, 2
0, 0
0, 0
2, 2
0, 0
0, 0
0, 0
0, 0
0, 0
0, 0
0, 0
1, 0
0, 0
0, 0
0, 0
0, 0
0, 0
0, 0
0, 0
0, 0
0, 0
1, 0
0, 0
0, 0
0, 0
0, 0
0, 0
0, 0
0, 0
0, 0
0, 2
0, 0
0, 0
0, 0
0, 0
0, 1
0, 0
0, 0
0, 0
0, 0
0, 0
0, 0
0, 0
1, 0
1, 0
0, 0
0, 0
0, 0
0, 0
0, 0
0, 0
0, 0
0, 0
0, 0
0, 0
0, 0
0, 0
0, 0
1, 0
0, 0
0, 0
0, 0
0, 0
0, 0
0, 0
0, 0
0, 0
0, 0
0, 0
0, 0
0, 0
0, 0
0, 0
0, 0
0, 0
1, 0
0, 0
1, 1
0, 0
0, 0
0, 1
0, 0
0, 0
0, 0
0, 0
0, 0
0, 0
0, 0
0, 0
0, 0
0, 1
0, 1
0, 0
0, 0
0, 1
0, 0
0, 0
0, 0
0, 0
0, 0
0, 0
0, 0
0, 0
0, 1
0, 0
0, 0
0, 0
0, 0
0, 0
0, 0
0, 0
0, 0
0, 0
0, 0
1, 0
0, 0
0, 0
0, 0
1, 1
0, 0
0, 0
0, 0
0, 0
0, 0
0, 0
0, 0
0, 0
0, 0
0, 0
0, 0
0, 0
0, 0
0, 0
0, 0
0, 0
0, 1
0, 0
0, 0
0, 0
0, 0
0, 0
0, 0
0, 0
0, 0
1, 0
0, 0
0, 0
0, 0
0, 0
0, 0
0, 0
0, 0
0, 0
0, 0
0, 0
0, 0
0, 0
0, 0
0, 0
0, 1
0, 0
0, 0
0, 0
0, 0
0, 0
0, 0
0, 0
0, 0
0, 0
0, 0
0, 1
0, 0
0, 0
0, 0
0, 0
0, 0
0, 0
0, 0
0, 0
0, 0
0, 0
0, 0
0, 0
0, 0
0, 0
0, 0
0, 0
0, 0
0, 0
0, 0
0, 0
0, 0
0, 0
1, 0
1, 0
0, 0
0, 0
0, 0
0, 0
0, 0
0, 0
0, 0
0, 0
0, 0
0, 0
0, 0
0, 0
0, 0
0, 0
0, 0
0, 0
0, 0
0, 0
0, 0
0, 0
0, 0
0, 0
0, 0
0, 0
0, 0
0, 0
0, 0
0, 0
0, 0
0, 0
0, 0
0, 0
0, 0
0, 0
0, 0
0, 1
0, 0
0, 0
0, 1
0, 0
0, 0
0, 0
0, 0
0, 0
0, 0
0, 0
1, 0
0, 0
0, 0
0, 0
0, 0
0, 0
0, 0
0, 0
0, 0
0, 0
0, 0
0, 0
0, 1
0, 0
0, 0
0, 0
0, 0
0, 0
0, 0
0, 0
0, 0
0, 0
0, 0
0, 0
0, 0
0, 0
0, 0
0, 0
0, 0
0, 0
0, 0
0, 0
0, 0
0, 0
0, 0
0, 0
0, 0
0, 0
0, 0
0, 0
0, 0
0, 0
0, 0
0, 0
0, 0
0, 0
0, 0
0, 0
0, 0
0, 0
0, 0
0, 0
0, 0
0, 0
0, 0
0, 0
0, 0
0, 0
0, 0
0, 0
0, 0
0, 0
0, 0
0, 0
0, 0
0, 0
0, 0
0, 0
0, 0
0, 0
0, 0
0, 0
0, 0
0, 0
0, 0
0, 0
0, 0
0, 0
0, 0
0, 0
0, 0
0, 0
0, 0
0, 0
0, 0
0, 0
0, 0
0, 0
0, 0
0, 0
0, 0
0, 0
0, 0
0, 0
0, 0
0, 0
0, 0
0, 0
0, 0
0, 0
0, 0
0, 0
0, 0
0, 0
0, 0
0, 0
0, 0
0, 0
0, 0
0, 0
0, 0
0, 0
0, 0
0, 0
0, 0
0, 0
0, 0
0, 0
0, 0
0, 0
0, 0
0, 0
0, 0
0, 0
0, 0
0, 0
0, 0
0, 0
0, 0
0, 0
0, 0
0, 0
0, 0
0, 0
0, 0
0, 0
0, 0
0, 0
0, 0
0, 0
0, 0
0, 0
0, 0
0, 0
0, 0
0, 0
0, 0
0, 0
0, 0
0, 0
0, 0
0, 0
0, 0
0, 0
0, 0
0, 0
0, 0
0, 0
0, 0
0, 0
0, 0
0, 0
0, 0
0, 0
0, 0
0, 0
0, 0
0, 0
0, 0
0, 0
0, 0
0, 0
0, 0
0, 0
0, 0
0, 0
0, 0
0, 0
0, 0
0, 0
0, 0
0, 0
0, 0
0, 0
0, 0
0, 0
0, 0
0, 0
0, 0
0, 0
0, 0
0, 0
0, 0
0, 0
0, 0
0, 0
0, 0
0, 0
0, 0
0, 0
0, 0
0, 0
0, 0
0, 0
0, 0
0, 0
0, 0
0, 0
0, 0
0, 0
0, 0
0, 0
0, 0
0, 0
0, 0
0, 0
0, 0
0, 0
0, 0
0, 0
0, 0
0, 0
0, 0
0, 0
0, 0
0, 0
0, 0
0, 0
0, 0
0, 0
0, 0
0, 0
0, 0
0, 0
0, 0
0, 0
0, 0
0, 0
0, 0
0, 0
0, 0
0, 0
0, 0
0, 0
0, 0
0, 0
0, 0
0, 0
0, 0
0, 0
0, 0
0, 0
0, 0
0, 0
0, 0
0, 0
0, 0
0, 0
0, 0
0, 0
0, 0
0, 0
0, 0
0, 0
0, 0
0, 0
0, 0
0, 0
0, 0
0, 0
0, 0
0, 0
0, 0
0, 0
0, 0
0, 0
0, 0
0, 0
0, 0
0, 0
0, 0
0, 0
0, 0
0, 0
0, 0
0, 0
0, 0
0, 0
0, 0
0, 0
0, 0
0, 0
0, 0
0, 0
0, 0
0, 0
0, 0
0, 0
0, 0
0, 0
0, 0
0, 0
0, 0
0, 0
0, 0
0, 0
0, 0
0, 0
0, 0
0, 0
0, 0
0, 0
0, 0
0, 0
0, 0
0, 0
0, 0
0, 0
0, 0
0, 0
0, 0
0, 0
0, 0
0, 0
0, 0
0, 0
0, 0
0, 0
0, 0
0, 0
0, 0
#ENDOFDATA     end of spectrum data