File: host_upload/06-09-2024/ps_0852/dump3/ps__0852shot_2228.msa
#FORMAT      : EMSA/MAS spectral data file
#VERSION     : TC202v2.0 PIXL
#TITLE       : N/A
#DATE        :       Date in the format DD-MMM-YYYY, for example 07-JUL-2010
#TIME        :             The time of day at which the spectrum was recorded, in 24-hour format
#OWNER       : PIXL Flight Model       (PIXL will use this to indicate which instrument took the data.)
#NPOINTS     : 4096     Number of data points in the spectrum (This can be zero for configuration only files)
#NCOLUMNS    : 2     Number of data columns in the spectrum (This can be zero for configuration only files)
#XUNITS      : eV
#YUNITS      : COUNTS
#DATATYPE    : YY
#XPERCHAN    : 7.862, 7.881   eV per channel (separate by commas if more than one detector)
#OFFSET      : 18.5, -22.4         eV of first channel  (separate by commas if more than one detector
#SIGNALTYPE  : XRF
#YP_TEMP     : 2.3
#LIVETIME    : 8.55503, 8.52593   seconds (separate by commas if more than one detector)
#REALTIME    : 10, 10.0   seconds (separate by commas if more than one detector)
#SPECTRUM    : start of spectrum data
0, 0
0, 0
0, 0
0, 0
0, 0
0, 0
0, 0
0, 0
0, 0
0, 0
0, 0
0, 0
0, 0
0, 0
0, 0
0, 0
0, 0
0, 0
0, 0
0, 0
0, 0
0, 0
0, 0
0, 0
0, 0
0, 0
0, 0
0, 0
0, 0
0, 0
0, 0
0, 0
0, 1
0, 0
0, 2
0, 3
0, 10
1, 28
0, 28
1, 49
2, 59
1, 65
0, 88
0, 61
2, 40
3, 38
2, 18
4, 15
10, 9
13, 23
41, 33
44, 46
90, 65
84, 72
88, 90
92, 69
70, 51
54, 31
24, 32
15, 20
12, 12
5, 10
3, 7
5, 3
5, 4
7, 5
1, 3
12, 15
23, 26
50, 51
103, 83
187, 186
279, 222
385, 344
473, 468
479, 400
411, 361
323, 256
230, 185
133, 110
71, 66
38, 45
17, 24
10, 9
3, 7
4, 2
3, 9
3, 6
0, 4
0, 6
2, 5
0, 2
0, 3
2, 1
3, 2
3, 5
5, 3
0, 5
3, 1
5, 3
5, 7
5, 3
2, 2
2, 14
4, 12
1, 26
5, 51
4, 108
6, 234
11, 530
11, 1004
16, 1818
24, 2818
16, 3771
33, 4372
32, 5083
38, 4524
25, 3753
23, 2806
18, 1822
15, 1063
15, 552
14, 269
14, 115
9, 45
12, 13
12, 19
5, 13
9, 10
9, 5
9, 6
8, 7
9, 5
9, 0
8, 2
3, 1
10, 1
9, 3
13, 0
8, 2
3, 0
3, 2
4, 3
1, 0
5, 3
1, 2
0, 2
1, 1
2, 4
4, 2
6, 5
1, 2
2, 4
9, 6
6, 18
11, 12
11, 16
12, 21
16, 10
16, 10
16, 6
7, 9
10, 7
6, 5
8, 6
15, 2
19, 5
17, 7
24, 5
26, 5
31, 7
26, 4
34, 6
34, 7
12, 5
8, 20
14, 29
11, 32
4, 42
3, 50
4, 64
1, 59
4, 58
1, 69
4, 51
1, 33
2, 21
10, 11
2, 12
7, 13
4, 11
12, 4
10, 2
7, 9
14, 15
7, 11
9, 10
13, 15
20, 10
23, 9
32, 7
44, 13
57, 7
72, 8
73, 3
88, 5
74, 6
74, 4
63, 4
40, 8
30, 4
24, 7
18, 7
14, 8
8, 4
8, 4
6, 4
5, 4
5, 8
5, 7
7, 5
6, 16
10, 24
4, 40
5, 47
7, 54
8, 87
9, 89
5, 100
17, 102
8, 90
13, 77
19, 64
11, 34
17, 33
12, 12
12, 9
16, 7
12, 6
12, 9
12, 5
13, 5
12, 7
15, 16
14, 16
19, 25
22, 45
35, 54
42, 63
49, 52
64, 64
62, 52
46, 56
52, 41
61, 29
30, 35
28, 26
26, 13
15, 15
14, 16
19, 22
28, 28
52, 58
82, 92
146, 189
271, 357
514, 565
804, 924
1243, 1256
1616, 1654
2059, 1957
2360, 2199
2515, 2369
2383, 2150
2183, 1784
1942, 1426
1383, 1050
965, 638
687, 416
401, 263
216, 138
114, 46
74, 29
35, 18
15, 22
20, 16
12, 32
13, 37
14, 40
15, 45
24, 34
25, 61
42, 81
65, 110
107, 127
141, 183
230, 206
257, 288
318, 316
354, 328
383, 327
342, 308
321, 262
248, 215
208, 147
135, 112
92, 72
49, 29
36, 25
26, 14
9, 7
10, 11
7, 7
11, 8
12, 9
5, 14
17, 17
8, 18
12, 11
12, 7
11, 6
11, 8
6, 5
7, 7
1, 6
4, 4
7, 1
5, 5
4, 4
3, 8
5, 10
2, 6
6, 4
3, 13
9, 13
9, 20
8, 29
11, 32
9, 53
11, 49
12, 52
20, 79
14, 68
18, 65
16, 71
9, 61
12, 44
7, 42
8, 18
7, 19
5, 9
9, 12
7, 10
6, 5
4, 5
6, 5
6, 5
5, 0
1, 4
2, 3
4, 1
4, 5
4, 6
4, 2
6, 3
4, 3
6, 4
1, 3
9, 4
4, 3
2, 2
5, 3
7, 2
5, 2
2, 4
4, 3
4, 1
6, 5
5, 15
1, 7
4, 7
3, 11
4, 6
3, 11
2, 19
2, 18
6, 10
2, 7
0, 11
3, 8
1, 8
2, 7
4, 5
4, 1
3, 3
1, 4
5, 5
1, 6
5, 4
3, 5
3, 6
4, 8
5, 9
10, 10
4, 4
9, 9
2, 7
2, 8
6, 7
3, 6
5, 4
3, 2
5, 6
2, 4
1, 3
3, 3
4, 3
1, 2
2, 5
4, 1
1, 3
4, 3
5, 5
0, 1
2, 1
1, 5
3, 4
3, 1
5, 4
2, 3
6, 3
1, 2
4, 3
2, 3
4, 1
7, 3
6, 1
13, 4
10, 3
18, 2
12, 3
17, 1
17, 3
33, 0
24, 3
23, 1
22, 5
29, 1
19, 3
10, 5
9, 9
8, 8
5, 9
2, 9
1, 8
2, 17
4, 7
1, 12
3, 7
3, 8
1, 3
2, 8
4, 4
1, 3
4, 6
3, 5
2, 4
2, 3
5, 3
3, 2
2, 3
4, 3
2, 0
2, 3
4, 0
2, 1
6, 1
1, 4
5, 4
3, 3
1, 1
6, 1
3, 3
2, 2
3, 0
2, 1
2, 2
1, 2
0, 1
1, 0
3, 1
3, 1
3, 4
2, 3
2, 0
0, 3
0, 3
1, 2
0, 2
2, 1
2, 2
0, 5
1, 1
1, 11
3, 5
2, 4
3, 4
4, 3
1, 4
5, 4
5, 0
3, 4
2, 2
1, 2
5, 4
4, 4
2, 1
2, 2
0, 5
3, 5
2, 3
2, 4
3, 2
0, 3
0, 4
3, 0
4, 2
1, 2
3, 3
2, 2
2, 1
2, 1
0, 2
3, 4
0, 2
1, 1
3, 2
5, 4
2, 3
8, 3
4, 0
4, 4
3, 1
4, 2
5, 4
3, 1
1, 2
2, 0
1, 3
3, 3
3, 2
3, 1
0, 1
0, 1
2, 2
1, 0
2, 1
2, 0
1, 2
2, 3
3, 0
0, 4
1, 2
1, 3
2, 1
0, 1
1, 2
1, 1
3, 0
1, 3
1, 3
3, 2
3, 3
1, 2
2, 3
1, 2
0, 1
1, 5
2, 2
3, 1
0, 2
1, 1
1, 0
1, 0
1, 1
0, 0
0, 0
2, 1
0, 1
0, 2
1, 0
1, 0
2, 3
1, 1
2, 1
2, 0
0, 1
0, 1
1, 0
3, 0
3, 1
0, 2
0, 0
0, 0
1, 2
2, 2
0, 0
1, 0
3, 1
0, 2
1, 2
3, 1
7, 1
4, 2
5, 1
3, 0
2, 0
4, 0
0, 0
0, 2
1, 1
0, 2
0, 0
3, 0
2, 0
0, 0
1, 0
0, 1
0, 1
0, 0
0, 0
0, 1
1, 1
0, 0
0, 0
1, 1
1, 1
2, 0
0, 0
1, 0
1, 0
1, 1
1, 1
0, 2
0, 2
0, 2
0, 0
1, 0
2, 2
0, 0
2, 0
0, 4
0, 0
0, 0
0, 1
0, 1
0, 0
0, 1
1, 2
0, 1
0, 0
0, 0
0, 1
0, 0
0, 1
0, 1
2, 3
0, 1
0, 1
0, 1
0, 0
0, 0
0, 1
0, 0
0, 0
1, 0
0, 0
0, 0
2, 1
0, 0
2, 0
2, 0
0, 1
1, 0
1, 1
1, 0
2, 1
1, 0
0, 1
0, 1
0, 0
0, 0
0, 1
0, 3
1, 1
0, 0
0, 0
0, 1
1, 0
0, 1
1, 0
3, 0
0, 1
0, 0
0, 0
1, 0
0, 1
0, 0
1, 0
1, 0
0, 0
1, 0
1, 0
0, 0
1, 0
0, 0
0, 0
0, 0
1, 1
0, 0
0, 0
0, 0
0, 0
0, 1
0, 0
1, 0
1, 1
0, 0
0, 0
1, 0
0, 0
1, 0
0, 0
1, 0
1, 0
1, 0
0, 0
0, 0
0, 0
0, 0
0, 0
0, 0
1, 1
1, 0
0, 0
0, 1
1, 0
0, 0
0, 1
1, 0
0, 1
0, 0
0, 0
0, 0
1, 0
0, 0
0, 1
1, 0
0, 1
0, 0
0, 0
0, 0
0, 0
1, 0
0, 0
0, 1
0, 1
0, 0
0, 0
2, 1
0, 0
1, 0
0, 0
1, 0
0, 0
1, 0
0, 0
0, 0
0, 0
0, 0
1, 0
0, 0
0, 0
1, 0
0, 1
1, 0
0, 0
2, 0
0, 0
0, 0
0, 0
0, 0
0, 0
0, 1
0, 0
0, 1
1, 0
0, 1
1, 0
0, 1
1, 0
0, 2
0, 0
0, 1
0, 0
0, 0
0, 0
1, 0
0, 0
0, 0
0, 0
0, 0
1, 0
0, 2
0, 0
0, 0
0, 1
0, 1
0, 0
0, 0
0, 0
0, 0
0, 1
0, 1
1, 0
0, 0
0, 0
0, 0
0, 0
0, 0
0, 0
0, 0
0, 0
0, 0
0, 0
0, 1
0, 0
0, 0
0, 0
0, 0
0, 0
0, 0
0, 0
0, 0
0, 0
0, 0
1, 1
0, 0
0, 0
0, 0
0, 0
0, 0
0, 1
1, 0
0, 0
0, 0
0, 2
0, 0
0, 0
0, 0
0, 0
0, 0
0, 0
0, 0
1, 0
0, 0
0, 0
0, 0
0, 0
0, 0
0, 0
0, 0
0, 1
0, 0
0, 0
0, 1
0, 0
0, 0
0, 0
0, 0
0, 1
0, 0
0, 0
0, 0
0, 0
0, 0
0, 0
0, 0
0, 0
0, 0
1, 0
0, 0
1, 0
0, 1
0, 0
0, 0
0, 0
0, 0
0, 0
0, 0
1, 1
0, 0
0, 0
0, 0
0, 0
0, 0
0, 0
0, 0
0, 0
0, 0
0, 0
0, 0
0, 0
0, 0
0, 0
0, 0
0, 0
0, 0
0, 0
0, 0
0, 1
0, 0
0, 0
0, 0
0, 0
1, 0
0, 0
0, 0
0, 0
0, 0
1, 0
0, 0
0, 0
0, 0
0, 0
0, 1
0, 0
0, 0
0, 0
0, 0
0, 0
0, 0
0, 0
0, 0
0, 0
0, 0
0, 0
0, 0
0, 1
0, 0
0, 0
0, 0
0, 0
0, 0
0, 0
0, 0
1, 0
0, 0
0, 0
0, 0
0, 0
0, 0
0, 0
0, 0
0, 0
0, 0
0, 0
0, 0
0, 0
0, 0
0, 0
0, 0
0, 0
0, 2
0, 0
0, 0
0, 0
0, 0
0, 0
0, 0
0, 0
0, 0
0, 0
0, 0
0, 0
0, 0
0, 0
0, 0
0, 0
0, 0
0, 0
0, 0
0, 0
0, 0
0, 0
0, 0
0, 0
0, 0
0, 0
0, 0
0, 0
0, 0
0, 0
0, 0
0, 0
0, 0
0, 0
0, 0
0, 0
0, 0
0, 0
0, 0
0, 0
0, 0
0, 0
0, 1
0, 0
0, 0
0, 0
0, 0
0, 0
0, 0
0, 0
0, 0
0, 0
0, 0
0, 0
0, 0
0, 0
0, 0
0, 0
0, 0
0, 0
0, 0
0, 0
0, 0
0, 0
0, 0
0, 0
0, 0
0, 0
0, 0
0, 0
0, 0
0, 0
0, 0
0, 0
0, 0
0, 0
0, 0
0, 0
0, 0
0, 0
0, 0
0, 0
0, 0
0, 0
0, 0
0, 0
0, 0
1, 0
0, 0
0, 0
0, 0
0, 0
0, 0
0, 0
0, 0
0, 0
0, 0
0, 0
0, 0
0, 0
0, 0
0, 0
0, 0
0, 0
0, 0
0, 0
0, 0
0, 0
0, 0
0, 0
0, 0
0, 0
0, 0
0, 0
0, 0
0, 0
0, 0
0, 0
0, 0
0, 0
0, 0
0, 0
0, 0
0, 0
0, 0
0, 0
0, 0
0, 0
0, 0
0, 0
0, 0
0, 0
0, 0
0, 0
0, 0
0, 0
0, 0
0, 0
0, 0
0, 0
0, 0
0, 0
0, 0
0, 0
0, 0
0, 0
0, 0
0, 0
0, 0
0, 0
0, 0
0, 0
0, 0
0, 0
0, 0
0, 0
0, 0
0, 0
0, 0
0, 0
0, 0
0, 0
0, 0
0, 0
0, 0
0, 0
0, 0
0, 0
0, 0
0, 0
0, 0
0, 0
0, 0
0, 0
0, 0
0, 0
0, 0
0, 0
0, 0
0, 0
0, 0
0, 0
0, 0
0, 0
0, 0
0, 0
0, 0
0, 0
0, 0
0, 0
0, 0
0, 0
0, 0
0, 0
0, 0
0, 0
0, 0
0, 0
0, 0
0, 0
0, 0
0, 0
0, 0
0, 0
0, 0
0, 0
0, 0
0, 0
0, 0
0, 0
0, 0
0, 0
0, 0
0, 0
0, 0
0, 0
0, 0
0, 0
0, 0
0, 0
0, 0
0, 0
0, 0
0, 0
0, 0
0, 0
0, 0
0, 0
0, 0
0, 0
0, 0
0, 0
0, 0
0, 0
0, 0
0, 0
0, 0
0, 0
0, 0
0, 0
0, 0
0, 0
0, 0
0, 0
0, 0
0, 0
0, 0
0, 0
0, 0
0, 0
0, 0
0, 0
0, 0
0, 0
0, 0
0, 0
0, 0
0, 0
0, 0
0, 0
0, 0
0, 0
0, 0
0, 0
0, 0
0, 0
0, 0
0, 0
0, 0
0, 0
0, 0
0, 0
0, 0
0, 0
0, 0
0, 0
0, 0
0, 0
0, 0
0, 0
0, 0
0, 0
0, 0
0, 0
0, 0
0, 0
0, 0
0, 0
0, 0
0, 0
0, 0
0, 0
0, 0
0, 0
0, 0
0, 0
0, 0
0, 0
0, 0
0, 0
0, 0
0, 0
0, 0
0, 0
0, 0
0, 0
0, 0
0, 0
0, 0
0, 0
0, 0
0, 0
0, 0
0, 0
0, 0
0, 0
0, 0
0, 0
0, 0
0, 0
0, 0
0, 0
0, 0
0, 0
0, 0
0, 0
0, 0
0, 0
0, 0
0, 0
0, 0
0, 0
0, 0
0, 0
0, 0
0, 0
0, 0
0, 0
0, 0
0, 0
0, 0
0, 0
0, 0
0, 0
0, 0
0, 0
0, 0
0, 0
0, 0
0, 0
0, 0
0, 0
0, 0
0, 0
0, 0
0, 0
0, 0
0, 0
0, 0
0, 0
0, 0
0, 0
0, 0
0, 0
0, 0
0, 0
0, 0
0, 0
0, 0
0, 0
0, 0
0, 0
0, 0
0, 0
0, 0
0, 0
0, 0
0, 0
0, 0
0, 0
0, 0
0, 0
0, 0
0, 0
0, 0
0, 0
0, 0
0, 0
0, 0
0, 0
0, 0
0, 0
0, 0
#ENDOFDATA     end of spectrum data