File: host_upload/06-09-2024/ps_0852/dump3/ps__0852shot_2279.msa
#FORMAT      : EMSA/MAS spectral data file
#VERSION     : TC202v2.0 PIXL
#TITLE       : N/A
#DATE        :       Date in the format DD-MMM-YYYY, for example 07-JUL-2010
#TIME        :             The time of day at which the spectrum was recorded, in 24-hour format
#OWNER       : PIXL Flight Model       (PIXL will use this to indicate which instrument took the data.)
#NPOINTS     : 4096     Number of data points in the spectrum (This can be zero for configuration only files)
#NCOLUMNS    : 2     Number of data columns in the spectrum (This can be zero for configuration only files)
#XUNITS      : eV
#YUNITS      : COUNTS
#DATATYPE    : YY
#XPERCHAN    : 7.862, 7.881   eV per channel (separate by commas if more than one detector)
#OFFSET      : 18.5, -22.4         eV of first channel  (separate by commas if more than one detector
#SIGNALTYPE  : XRF
#YP_TEMP     : 2.62
#LIVETIME    : 8.56861, 8.55996   seconds (separate by commas if more than one detector)
#REALTIME    : 10, 10.0   seconds (separate by commas if more than one detector)
#SPECTRUM    : start of spectrum data
0, 0
0, 0
0, 0
0, 0
0, 0
0, 0
0, 0
0, 0
0, 0
0, 0
0, 0
0, 0
0, 0
0, 0
0, 0
0, 0
0, 0
0, 0
0, 0
0, 0
0, 0
0, 0
0, 0
0, 0
0, 0
0, 0
0, 0
0, 0
0, 0
0, 0
0, 0
0, 0
0, 0
1, 0
0, 0
0, 0
0, 1
0, 0
1, 1
1, 0
0, 1
0, 0
2, 3
2, 2
2, 0
1, 1
2, 2
3, 4
8, 5
14, 8
24, 28
33, 30
58, 46
79, 63
78, 78
80, 71
63, 64
43, 50
26, 23
16, 14
12, 1
4, 1
5, 1
4, 2
2, 1
1, 4
3, 3
12, 11
12, 23
38, 49
92, 82
167, 143
282, 280
337, 352
394, 388
419, 378
352, 344
278, 249
185, 199
136, 108
72, 53
40, 23
18, 24
12, 7
7, 6
5, 2
1, 4
0, 1
2, 1
2, 4
2, 7
0, 4
4, 5
6, 13
12, 29
19, 44
33, 65
27, 85
36, 102
31, 94
42, 83
24, 62
22, 48
9, 26
9, 25
6, 10
5, 12
12, 7
11, 13
15, 21
19, 24
18, 34
30, 30
29, 43
43, 42
41, 33
29, 32
33, 24
36, 31
22, 16
19, 18
14, 7
20, 20
15, 19
17, 16
10, 17
8, 12
12, 18
10, 8
3, 8
3, 8
5, 1
4, 5
3, 4
2, 2
1, 0
2, 0
2, 5
1, 1
5, 3
2, 3
2, 5
3, 1
2, 1
3, 3
3, 1
4, 1
5, 2
4, 1
6, 1
2, 2
6, 7
6, 9
6, 10
11, 19
13, 30
11, 33
19, 47
17, 48
22, 42
9, 20
9, 31
5, 16
4, 28
3, 24
4, 20
6, 21
3, 17
1, 8
5, 12
5, 24
6, 6
10, 7
4, 9
3, 6
3, 3
2, 2
5, 3
5, 2
4, 2
3, 4
1, 4
3, 2
2, 4
2, 4
3, 4
3, 2
5, 6
4, 4
4, 6
11, 9
9, 8
11, 7
9, 10
13, 18
14, 13
18, 8
13, 14
6, 13
13, 10
16, 10
14, 9
13, 4
4, 14
5, 4
4, 6
6, 5
6, 5
3, 7
3, 12
4, 16
4, 18
3, 18
8, 23
1, 15
6, 22
7, 26
7, 14
0, 7
6, 8
6, 8
8, 9
4, 5
6, 8
8, 14
9, 12
16, 20
19, 17
26, 15
38, 24
57, 18
74, 23
77, 20
74, 11
75, 11
49, 12
66, 16
34, 13
27, 8
16, 3
14, 6
5, 12
11, 8
14, 17
21, 10
23, 22
33, 43
35, 33
68, 34
73, 53
93, 53
89, 52
84, 47
98, 38
60, 39
76, 25
47, 26
52, 15
36, 13
28, 13
19, 12
37, 37
44, 55
100, 95
170, 177
307, 286
479, 542
758, 844
1208, 1204
1556, 1564
2066, 1840
2381, 2148
2366, 2177
2279, 2039
2073, 1844
1802, 1400
1384, 1017
931, 676
628, 413
364, 253
199, 135
115, 74
48, 45
31, 19
21, 19
19, 8
12, 11
15, 5
15, 11
26, 10
26, 27
48, 31
61, 59
93, 85
126, 103
176, 170
216, 191
251, 267
339, 289
361, 334
373, 312
339, 308
338, 285
278, 200
172, 114
149, 99
99, 65
57, 33
28, 23
29, 12
15, 7
11, 7
9, 7
9, 9
6, 2
7, 13
16, 13
9, 11
10, 12
13, 11
9, 9
8, 5
7, 8
11, 8
5, 4
3, 2
2, 4
1, 6
5, 9
4, 10
1, 5
6, 11
1, 8
3, 4
5, 10
5, 7
9, 11
4, 13
5, 9
11, 8
6, 5
7, 14
10, 5
5, 4
8, 5
10, 9
2, 1
6, 4
5, 7
1, 6
3, 5
3, 2
5, 5
4, 4
4, 2
12, 5
7, 5
7, 4
9, 7
11, 1
6, 5
11, 4
10, 3
11, 3
11, 0
6, 2
9, 5
8, 3
5, 5
4, 1
5, 5
11, 3
6, 4
12, 4
11, 4
17, 4
16, 2
26, 1
22, 7
32, 4
24, 5
14, 5
14, 6
10, 9
13, 7
5, 11
6, 8
11, 12
11, 6
1, 6
7, 5
7, 11
4, 7
4, 9
9, 13
5, 8
8, 5
3, 3
6, 3
3, 3
10, 5
13, 3
5, 4
12, 6
11, 4
16, 3
10, 2
7, 5
9, 1
9, 7
9, 3
6, 6
7, 4
3, 3
1, 2
5, 0
4, 4
1, 3
2, 5
0, 4
4, 1
2, 5
0, 10
4, 5
2, 3
6, 3
3, 5
3, 5
5, 3
4, 1
2, 4
3, 1
2, 3
3, 4
3, 1
2, 6
3, 2
2, 1
0, 1
2, 1
4, 3
2, 1
2, 1
5, 4
6, 3
1, 6
2, 2
0, 5
5, 4
2, 3
1, 6
0, 3
2, 5
2, 3
2, 4
1, 4
4, 3
4, 4
4, 2
3, 3
4, 4
4, 1
5, 2
3, 2
4, 2
7, 2
6, 4
10, 2
6, 1
3, 5
4, 4
5, 8
2, 3
4, 2
2, 4
3, 4
4, 3
6, 4
2, 2
4, 3
0, 1
2, 0
2, 1
1, 2
0, 1
1, 0
2, 0
2, 2
0, 5
2, 1
2, 1
1, 2
1, 2
2, 3
3, 5
2, 2
3, 1
2, 2
4, 6
2, 0
1, 2
0, 2
3, 4
4, 1
3, 1
2, 1
1, 2
2, 4
4, 1
1, 2
3, 2
2, 5
2, 3
2, 3
2, 3
6, 1
5, 0
1, 1
1, 4
1, 2
2, 1
2, 1
1, 3
1, 1
2, 1
1, 2
1, 4
0, 3
1, 1
4, 4
1, 2
4, 1
2, 3
1, 3
3, 1
2, 3
2, 2
3, 2
4, 3
5, 5
4, 2
2, 1
2, 1
2, 2
3, 3
3, 1
0, 1
4, 4
2, 4
0, 2
2, 2
2, 1
0, 4
1, 1
2, 2
1, 1
0, 2
2, 2
0, 2
0, 1
3, 2
1, 2
0, 1
4, 0
1, 1
2, 2
1, 1
1, 1
3, 0
2, 0
3, 1
5, 1
4, 2
1, 1
2, 4
2, 2
4, 1
0, 0
3, 2
0, 3
0, 0
1, 1
0, 4
0, 5
3, 1
0, 0
0, 0
3, 0
1, 0
1, 3
0, 3
2, 1
1, 1
2, 1
0, 0
3, 3
1, 1
0, 0
0, 1
0, 0
0, 2
0, 1
1, 2
1, 0
3, 1
3, 1
1, 1
1, 1
0, 1
1, 0
1, 1
1, 0
1, 2
0, 0
4, 1
0, 2
0, 1
4, 0
0, 0
0, 0
0, 1
2, 0
1, 0
0, 1
1, 1
1, 0
2, 3
1, 2
1, 0
1, 0
0, 1
2, 1
1, 0
3, 0
0, 0
0, 0
1, 3
1, 0
0, 1
1, 0
2, 1
1, 1
0, 0
0, 2
0, 1
0, 1
1, 1
0, 0
1, 0
2, 1
3, 0
1, 0
0, 0
1, 0
3, 0
0, 0
0, 2
0, 0
1, 1
0, 1
0, 2
1, 0
1, 0
1, 0
0, 1
1, 0
0, 0
0, 1
1, 0
0, 0
0, 1
1, 3
0, 0
1, 0
2, 0
0, 1
0, 2
1, 0
0, 2
0, 3
2, 1
1, 2
0, 0
0, 1
0, 0
1, 1
0, 0
0, 1
0, 1
0, 1
0, 1
0, 0
0, 1
0, 0
0, 1
0, 0
2, 0
0, 0
0, 1
0, 0
1, 1
1, 0
0, 0
1, 0
0, 0
0, 0
0, 1
0, 1
1, 0
0, 0
0, 0
1, 0
1, 0
0, 0
0, 1
1, 1
0, 2
0, 0
0, 0
0, 0
0, 1
0, 0
0, 0
2, 0
0, 1
1, 0
0, 0
1, 0
0, 0
0, 0
0, 0
1, 0
1, 0
0, 0
0, 0
0, 1
0, 1
0, 0
0, 0
2, 0
0, 0
0, 0
1, 1
1, 0
1, 0
0, 0
0, 0
0, 1
0, 0
2, 0
0, 0
0, 0
0, 0
0, 1
0, 1
1, 1
0, 0
0, 0
0, 0
1, 0
0, 1
0, 0
0, 0
0, 0
0, 0
0, 2
1, 0
0, 0
0, 0
1, 1
1, 0
0, 0
0, 1
0, 1
0, 0
0, 0
1, 0
0, 0
0, 0
0, 0
0, 0
1, 0
0, 0
0, 0
0, 1
0, 0
1, 0
0, 1
0, 1
1, 0
0, 2
0, 0
1, 0
0, 0
0, 0
0, 0
0, 1
0, 0
0, 1
0, 1
1, 0
0, 0
0, 0
0, 0
0, 0
1, 0
1, 0
0, 0
0, 1
0, 1
0, 0
0, 0
0, 0
0, 0
0, 0
1, 1
0, 0
0, 0
0, 0
0, 0
0, 0
0, 0
0, 0
0, 0
0, 1
0, 0
0, 1
0, 0
1, 0
0, 0
0, 0
0, 0
0, 0
1, 0
0, 0
1, 0
2, 0
0, 0
0, 0
0, 0
0, 0
0, 0
0, 0
0, 0
0, 0
0, 0
0, 1
0, 1
0, 2
0, 1
0, 0
0, 0
0, 0
0, 0
0, 1
0, 0
0, 2
1, 1
0, 0
0, 0
0, 0
0, 0
0, 0
0, 0
0, 1
0, 0
0, 0
0, 0
0, 0
0, 0
0, 1
0, 0
0, 0
0, 0
0, 0
0, 0
0, 0
0, 0
0, 0
0, 0
0, 0
0, 0
0, 0
0, 0
0, 0
0, 0
0, 0
0, 0
1, 0
0, 0
0, 0
0, 0
0, 0
0, 0
0, 0
0, 0
0, 0
0, 0
0, 0
0, 0
0, 0
0, 0
0, 0
0, 0
0, 0
0, 0
0, 0
0, 0
0, 0
0, 0
0, 0
0, 0
0, 0
0, 0
1, 0
0, 0
0, 0
0, 0
0, 0
0, 0
0, 1
0, 0
0, 0
0, 0
0, 0
0, 0
0, 0
0, 0
0, 0
0, 0
0, 0
0, 0
0, 0
0, 0
0, 0
0, 0
0, 0
0, 0
0, 0
0, 0
0, 0
0, 0
1, 0
0, 0
0, 0
0, 0
0, 1
0, 0
0, 0
0, 0
0, 0
0, 0
0, 0
0, 0
0, 0
0, 0
0, 0
0, 0
0, 0
0, 0
0, 0
0, 0
0, 0
0, 0
0, 0
0, 0
0, 0
0, 0
0, 0
0, 0
0, 0
0, 0
0, 0
0, 0
0, 0
0, 0
0, 0
0, 0
0, 0
0, 0
0, 0
0, 0
0, 0
0, 0
0, 0
0, 0
0, 0
0, 0
0, 0
0, 0
0, 0
0, 0
0, 0
0, 0
0, 0
0, 0
0, 0
0, 0
0, 0
0, 0
0, 0
0, 0
0, 0
0, 0
0, 0
0, 0
0, 0
0, 0
0, 0
0, 0
0, 0
0, 0
0, 0
0, 0
0, 0
0, 0
0, 0
0, 0
0, 0
0, 0
0, 0
0, 0
0, 0
0, 0
0, 0
0, 0
0, 1
0, 0
0, 0
0, 0
0, 0
0, 0
0, 0
0, 0
0, 0
0, 0
0, 0
0, 0
0, 0
0, 0
0, 0
0, 0
0, 0
0, 0
0, 0
0, 0
0, 0
0, 0
0, 0
0, 0
0, 0
0, 0
0, 0
0, 0
0, 0
0, 0
0, 0
0, 0
0, 0
0, 0
0, 0
0, 0
0, 0
0, 0
0, 0
0, 0
0, 0
0, 0
0, 0
0, 0
0, 0
0, 0
0, 0
0, 0
0, 0
0, 0
0, 0
0, 0
0, 0
0, 0
0, 0
0, 0
0, 0
0, 0
0, 0
0, 0
0, 0
0, 0
0, 0
0, 0
0, 0
0, 0
0, 0
0, 0
0, 0
0, 0
0, 0
0, 0
0, 0
0, 0
0, 0
0, 0
0, 0
0, 0
0, 0
0, 0
0, 0
0, 0
0, 0
0, 0
0, 0
0, 0
0, 0
0, 0
0, 0
0, 0
0, 0
0, 0
0, 0
0, 0
0, 0
0, 0
0, 0
0, 0
0, 0
0, 0
0, 0
0, 0
0, 0
0, 0
0, 0
0, 0
0, 0
0, 0
0, 0
0, 0
0, 0
0, 0
0, 0
0, 0
0, 0
0, 0
0, 0
0, 0
0, 0
0, 0
0, 0
0, 0
0, 0
0, 0
0, 0
0, 0
0, 0
0, 0
0, 0
0, 0
0, 0
0, 0
0, 0
0, 0
0, 0
0, 0
0, 0
0, 0
0, 0
0, 0
0, 0
0, 0
0, 0
0, 0
0, 0
0, 0
0, 0
0, 0
0, 0
0, 0
0, 0
0, 0
0, 0
0, 0
0, 0
0, 0
0, 0
0, 0
0, 0
0, 0
0, 0
0, 0
0, 0
0, 0
0, 0
0, 0
0, 0
0, 0
0, 0
0, 0
0, 0
0, 0
0, 0
0, 0
0, 0
0, 0
0, 0
0, 0
0, 0
0, 0
0, 0
0, 0
0, 0
0, 0
0, 0
0, 0
0, 0
0, 0
0, 0
0, 0
0, 0
0, 0
0, 0
0, 0
0, 0
0, 0
0, 0
0, 0
0, 0
0, 0
0, 0
0, 0
0, 0
0, 0
0, 0
0, 0
0, 0
0, 0
0, 0
0, 0
0, 0
0, 0
0, 0
0, 0
0, 0
0, 0
0, 0
0, 0
0, 0
0, 0
0, 0
0, 0
0, 0
0, 0
0, 0
0, 0
0, 0
0, 0
0, 0
0, 0
0, 0
0, 0
0, 0
0, 0
0, 0
0, 0
0, 0
0, 0
0, 0
0, 0
0, 0
0, 0
0, 0
0, 0
0, 0
0, 0
0, 0
0, 0
0, 0
0, 0
0, 0
0, 0
0, 0
0, 0
0, 0
0, 0
0, 0
0, 0
0, 0
0, 0
0, 0
0, 0
0, 0
0, 0
0, 0
0, 0
0, 0
0, 0
0, 0
0, 0
0, 0
0, 0
0, 0
0, 0
0, 0
0, 0
0, 0
0, 0
0, 0
0, 0
0, 0
0, 0
0, 0
0, 0
0, 0
0, 0
0, 0
0, 0
0, 0
0, 0
0, 0
0, 0
0, 0
0, 0
0, 0
0, 0
0, 0
0, 0
0, 0
0, 0
0, 0
0, 0
0, 0
0, 0
0, 0
0, 0
0, 0
0, 0
0, 0
0, 0
0, 0
0, 0
0, 0
0, 0
0, 0
0, 0
0, 0
0, 0
0, 0
0, 0
0, 0
0, 0
0, 0
0, 0
0, 0
0, 0
0, 0
0, 0
0, 0
0, 0
0, 0
0, 0
0, 0
0, 0
0, 0
0, 0
0, 0
0, 0
0, 0
0, 0
#ENDOFDATA     end of spectrum data