File: host_upload/06-09-2024/ps_0852/dump3/ps__0852shot_2068.msa
#FORMAT      : EMSA/MAS spectral data file
#VERSION     : TC202v2.0 PIXL
#TITLE       : N/A
#DATE        :       Date in the format DD-MMM-YYYY, for example 07-JUL-2010
#TIME        :             The time of day at which the spectrum was recorded, in 24-hour format
#OWNER       : PIXL Flight Model       (PIXL will use this to indicate which instrument took the data.)
#NPOINTS     : 4096     Number of data points in the spectrum (This can be zero for configuration only files)
#NCOLUMNS    : 2     Number of data columns in the spectrum (This can be zero for configuration only files)
#XUNITS      : eV
#YUNITS      : COUNTS
#DATATYPE    : YY
#XPERCHAN    : 7.862, 7.881   eV per channel (separate by commas if more than one detector)
#OFFSET      : 18.5, -22.4         eV of first channel  (separate by commas if more than one detector
#SIGNALTYPE  : XRF
#YP_TEMP     : 2.46
#LIVETIME    : 8.54494, 8.56135   seconds (separate by commas if more than one detector)
#REALTIME    : 10, 10.0   seconds (separate by commas if more than one detector)
#SPECTRUM    : start of spectrum data
0, 0
0, 0
0, 0
0, 0
0, 0
0, 0
0, 0
0, 0
0, 0
0, 0
0, 0
0, 0
0, 0
0, 0
0, 0
0, 0
0, 0
0, 0
0, 0
0, 0
0, 0
0, 0
0, 0
0, 0
0, 0
0, 0
0, 0
0, 0
0, 0
0, 0
0, 0
0, 0
0, 1
1, 0
0, 0
0, 1
1, 0
0, 2
1, 4
0, 4
0, 6
1, 3
0, 3
1, 4
0, 3
4, 2
0, 2
5, 8
7, 5
10, 20
21, 27
32, 43
56, 57
68, 67
70, 72
58, 91
57, 53
39, 48
25, 31
14, 18
5, 4
3, 3
5, 5
2, 5
6, 5
6, 6
5, 7
9, 12
25, 28
53, 70
74, 107
142, 190
232, 271
346, 345
386, 470
398, 482
375, 405
292, 326
190, 216
113, 124
69, 79
39, 37
13, 31
16, 8
9, 6
3, 4
1, 1
1, 1
1, 1
2, 0
1, 1
0, 1
1, 1
1, 1
0, 1
3, 3
2, 5
2, 4
2, 5
9, 10
1, 5
5, 9
5, 5
4, 4
5, 3
11, 7
6, 7
13, 18
15, 21
22, 33
24, 54
30, 83
26, 142
42, 170
48, 215
46, 192
41, 205
39, 149
25, 152
26, 115
25, 76
23, 66
15, 42
18, 29
19, 16
11, 22
7, 17
14, 11
12, 22
8, 4
6, 1
2, 5
1, 5
0, 3
0, 3
0, 1
3, 1
1, 2
2, 2
2, 1
1, 6
1, 3
5, 0
1, 3
1, 1
1, 4
3, 3
2, 5
3, 8
0, 8
5, 17
1, 16
3, 12
4, 20
5, 28
9, 31
12, 26
11, 24
9, 16
8, 12
9, 6
11, 7
2, 2
3, 6
8, 2
11, 4
19, 1
19, 2
23, 5
37, 2
35, 6
30, 6
33, 2
26, 5
7, 7
13, 4
8, 2
6, 1
3, 2
9, 1
1, 4
4, 0
4, 4
5, 1
5, 4
5, 2
6, 5
7, 7
6, 4
8, 5
17, 9
26, 10
41, 10
29, 15
31, 7
21, 12
21, 12
22, 13
20, 13
21, 12
8, 14
11, 10
11, 3
7, 6
17, 2
8, 2
15, 9
9, 8
4, 8
4, 7
13, 12
8, 19
12, 17
4, 23
5, 21
3, 31
8, 25
7, 22
4, 18
11, 9
4, 12
3, 16
4, 7
4, 8
7, 16
8, 14
11, 21
6, 21
6, 17
9, 22
13, 35
8, 50
15, 50
8, 59
8, 85
11, 88
9, 75
7, 77
7, 74
7, 70
5, 47
11, 45
14, 23
16, 34
14, 23
24, 20
30, 33
43, 29
43, 61
57, 64
58, 70
72, 56
62, 73
61, 53
47, 44
32, 32
32, 38
26, 47
22, 55
21, 44
21, 41
37, 58
41, 96
82, 117
148, 229
251, 380
459, 612
704, 998
1036, 1403
1442, 1863
1855, 2199
2159, 2448
2204, 2565
2212, 2366
2036, 2119
1658, 1559
1276, 1195
892, 821
577, 476
381, 295
200, 153
119, 79
61, 52
45, 33
21, 20
13, 19
9, 13
10, 32
17, 25
14, 28
26, 32
38, 57
50, 68
68, 85
105, 115
150, 184
194, 243
248, 299
293, 347
324, 403
331, 367
319, 323
296, 275
239, 226
178, 169
137, 102
97, 66
59, 46
41, 29
29, 11
28, 11
17, 9
17, 10
24, 9
13, 9
15, 8
18, 8
8, 9
10, 19
7, 13
14, 8
15, 9
9, 11
5, 7
3, 7
2, 2
2, 6
2, 2
5, 2
1, 8
8, 3
2, 0
4, 5
1, 2
4, 5
5, 7
3, 9
6, 6
4, 5
4, 4
5, 8
6, 6
3, 4
7, 13
6, 4
3, 9
4, 11
4, 8
3, 7
6, 3
4, 8
6, 7
7, 7
6, 4
7, 1
9, 4
5, 2
3, 3
8, 1
7, 4
4, 2
2, 4
0, 6
4, 2
1, 2
3, 5
6, 3
4, 8
4, 5
11, 3
4, 3
5, 2
8, 7
7, 8
6, 7
11, 2
14, 5
10, 4
9, 4
19, 7
10, 3
12, 4
8, 3
10, 6
7, 3
5, 4
6, 4
4, 3
6, 2
6, 3
5, 4
3, 4
9, 4
1, 3
6, 6
5, 2
0, 5
3, 3
2, 1
6, 3
1, 7
4, 4
4, 8
2, 0
4, 9
0, 9
6, 5
1, 3
2, 7
2, 3
3, 5
1, 2
2, 5
3, 0
3, 5
4, 1
1, 0
6, 1
6, 3
2, 6
2, 4
2, 3
1, 3
5, 3
1, 5
3, 10
2, 3
7, 5
1, 8
2, 11
5, 5
0, 4
3, 6
1, 4
7, 3
6, 10
10, 3
4, 4
9, 7
5, 4
6, 0
8, 5
1, 2
6, 5
1, 1
2, 0
4, 3
1, 0
3, 2
3, 4
2, 2
4, 3
3, 1
2, 1
4, 4
0, 3
4, 1
5, 3
1, 5
5, 3
1, 2
4, 5
4, 0
3, 5
3, 4
5, 1
1, 0
2, 3
2, 2
2, 5
3, 0
2, 7
1, 5
0, 5
1, 4
1, 2
3, 1
5, 1
4, 2
5, 3
4, 4
4, 2
5, 2
4, 4
4, 4
2, 1
0, 4
3, 2
0, 3
3, 1
3, 1
4, 2
0, 2
1, 0
4, 0
5, 2
1, 1
1, 2
3, 2
5, 3
3, 2
3, 2
0, 1
3, 1
5, 3
4, 7
2, 1
1, 3
3, 3
2, 0
1, 5
2, 3
1, 2
1, 1
1, 2
1, 0
3, 3
0, 2
3, 2
2, 5
4, 2
1, 5
0, 2
1, 2
2, 0
1, 2
1, 1
2, 1
4, 1
1, 3
3, 0
0, 1
0, 3
4, 2
3, 3
1, 2
0, 1
3, 3
3, 6
2, 7
5, 3
6, 3
2, 3
3, 7
4, 2
3, 3
2, 3
4, 5
4, 1
1, 0
2, 2
5, 4
3, 0
2, 2
1, 3
0, 3
2, 2
1, 1
3, 1
1, 1
2, 4
2, 2
0, 1
2, 0
4, 0
0, 3
0, 2
4, 1
1, 1
4, 2
4, 1
2, 2
2, 3
2, 2
3, 5
2, 2
0, 4
1, 3
1, 0
0, 0
0, 2
1, 1
2, 0
2, 2
3, 0
2, 1
0, 0
1, 2
0, 2
0, 2
4, 1
2, 3
1, 0
0, 1
0, 1
1, 0
1, 2
0, 0
0, 2
2, 1
1, 0
1, 1
2, 0
0, 1
3, 1
2, 1
1, 0
0, 3
1, 0
1, 2
0, 1
2, 1
0, 1
2, 0
1, 0
1, 1
1, 1
1, 0
0, 1
1, 1
0, 0
1, 2
1, 0
1, 3
1, 0
1, 2
0, 1
0, 1
2, 0
0, 1
0, 0
0, 4
1, 2
0, 1
0, 1
0, 2
0, 3
1, 0
0, 0
0, 1
1, 0
0, 0
1, 1
0, 2
0, 2
0, 0
1, 0
0, 0
2, 0
0, 2
1, 1
1, 1
0, 0
1, 0
3, 0
0, 1
0, 1
0, 1
0, 0
0, 1
0, 0
0, 1
0, 0
1, 1
0, 0
0, 0
0, 1
0, 0
1, 1
1, 0
1, 0
1, 1
1, 0
1, 0
0, 1
0, 0
0, 1
0, 0
0, 0
0, 0
1, 0
0, 1
0, 0
1, 1
0, 1
0, 0
0, 0
0, 0
0, 0
1, 0
0, 1
0, 0
0, 1
0, 0
0, 2
0, 0
0, 2
1, 0
0, 0
0, 0
0, 0
0, 0
1, 0
0, 0
0, 0
0, 0
0, 0
2, 0
1, 0
0, 0
1, 0
0, 0
1, 0
0, 0
1, 0
1, 0
0, 0
1, 0
0, 0
0, 0
0, 1
0, 0
1, 0
0, 0
0, 1
0, 0
0, 0
2, 0
0, 0
1, 0
0, 1
0, 1
0, 0
0, 1
0, 0
0, 0
0, 1
0, 0
0, 1
0, 0
1, 0
0, 0
1, 1
0, 0
0, 1
0, 0
0, 0
0, 0
0, 0
0, 0
0, 0
1, 0
0, 1
0, 0
0, 0
0, 0
0, 0
1, 0
0, 0
0, 1
0, 0
0, 0
2, 0
0, 0
0, 1
1, 0
0, 0
0, 0
0, 0
0, 0
0, 0
0, 0
1, 1
0, 0
0, 0
0, 0
0, 0
0, 1
0, 1
0, 0
0, 0
0, 0
2, 0
0, 0
1, 0
0, 1
0, 0
1, 0
0, 1
0, 0
0, 0
1, 0
0, 1
0, 0
1, 1
0, 0
0, 1
0, 0
0, 0
1, 0
1, 0
0, 1
0, 1
0, 1
0, 0
1, 0
0, 0
0, 0
0, 0
0, 0
1, 1
0, 0
0, 0
0, 1
0, 0
0, 0
0, 0
0, 0
0, 0
0, 0
2, 0
1, 0
0, 0
0, 0
0, 0
0, 0
0, 0
0, 0
0, 0
0, 0
0, 0
0, 0
0, 0
0, 0
1, 0
0, 0
0, 0
0, 0
0, 0
0, 0
0, 2
0, 0
0, 0
1, 0
0, 0
0, 0
0, 1
0, 0
0, 0
0, 0
0, 0
0, 0
0, 0
1, 0
0, 0
0, 1
0, 0
0, 0
1, 0
1, 0
0, 0
0, 0
0, 0
0, 0
0, 0
0, 0
0, 0
0, 0
0, 0
0, 0
0, 0
0, 0
0, 0
0, 0
0, 0
0, 0
0, 0
0, 0
1, 0
0, 0
0, 0
0, 0
0, 0
0, 0
0, 0
0, 1
0, 0
0, 0
0, 0
0, 0
0, 0
0, 0
0, 0
0, 0
0, 0
0, 0
0, 0
0, 0
0, 0
0, 0
0, 0
0, 0
0, 0
0, 0
0, 0
0, 0
0, 0
0, 0
0, 0
0, 0
0, 0
0, 0
0, 0
0, 0
0, 0
0, 0
0, 0
0, 0
0, 0
0, 0
0, 0
0, 0
0, 0
0, 0
0, 0
0, 0
0, 0
0, 0
0, 0
0, 0
0, 0
0, 0
0, 0
0, 0
0, 0
0, 0
0, 0
0, 0
0, 0
0, 0
0, 0
0, 0
0, 0
0, 0
0, 0
0, 0
0, 0
0, 0
0, 0
0, 0
0, 0
0, 0
0, 0
0, 0
0, 0
0, 0
0, 0
0, 0
0, 0
0, 0
0, 0
0, 0
0, 0
0, 0
0, 0
0, 0
0, 0
0, 0
0, 0
0, 0
0, 0
0, 0
0, 0
0, 0
0, 0
0, 0
0, 0
0, 0
0, 0
0, 0
0, 0
0, 0
0, 0
0, 0
0, 0
0, 0
0, 0
0, 0
0, 0
0, 0
0, 0
0, 0
0, 0
0, 0
0, 1
0, 0
0, 0
0, 0
0, 0
0, 0
0, 0
0, 0
0, 0
0, 0
0, 0
0, 0
0, 0
0, 0
0, 0
0, 0
0, 0
0, 0
0, 0
0, 0
0, 0
0, 0
0, 0
0, 0
0, 0
0, 0
0, 0
0, 0
0, 1
0, 0
0, 0
0, 0
0, 0
0, 0
0, 0
0, 0
0, 0
0, 0
0, 0
0, 0
0, 0
0, 0
0, 0
0, 0
0, 0
0, 0
0, 0
0, 0
0, 0
0, 0
0, 0
0, 0
0, 0
0, 0
0, 0
0, 0
0, 0
0, 0
0, 0
0, 0
0, 0
0, 0
1, 0
0, 0
0, 0
0, 0
0, 0
0, 0
0, 0
0, 0
0, 0
0, 0
0, 0
0, 0
0, 0
0, 0
0, 0
0, 0
0, 0
0, 0
0, 0
0, 0
0, 0
0, 0
0, 0
0, 0
0, 0
0, 0
0, 0
0, 0
0, 0
0, 0
0, 0
0, 0
0, 0
0, 0
0, 0
0, 0
0, 0
0, 0
0, 0
0, 0
0, 0
0, 0
0, 0
0, 0
0, 0
0, 0
0, 0
0, 0
0, 0
0, 0
0, 0
0, 0
0, 0
0, 0
0, 0
0, 0
0, 0
0, 0
0, 0
0, 0
0, 0
0, 0
0, 0
0, 0
0, 0
0, 0
0, 0
0, 0
0, 0
0, 0
0, 0
0, 0
0, 0
0, 0
0, 0
0, 0
0, 0
0, 0
0, 0
0, 0
0, 0
0, 0
0, 0
0, 0
0, 0
0, 0
0, 0
0, 0
0, 0
0, 0
0, 0
0, 0
0, 0
0, 0
0, 0
0, 0
0, 0
0, 0
0, 0
0, 0
0, 0
0, 0
0, 0
0, 0
0, 0
0, 0
0, 0
0, 0
0, 0
0, 0
0, 0
0, 0
0, 0
0, 0
0, 0
0, 0
0, 0
0, 0
0, 0
0, 0
0, 0
0, 0
0, 0
0, 0
0, 0
0, 0
0, 0
0, 0
0, 0
0, 0
0, 0
0, 0
0, 0
0, 0
0, 0
0, 0
0, 0
0, 0
0, 0
0, 0
0, 0
0, 0
0, 0
0, 0
0, 0
0, 0
0, 0
0, 0
0, 0
0, 0
0, 0
0, 0
0, 0
0, 0
0, 0
0, 0
0, 0
0, 0
0, 0
0, 0
0, 0
0, 0
0, 0
0, 0
0, 0
0, 0
0, 0
0, 0
0, 0
0, 0
0, 0
0, 0
0, 0
0, 0
0, 0
0, 0
0, 0
0, 0
0, 0
0, 0
0, 0
0, 0
0, 0
0, 0
0, 0
0, 0
0, 0
0, 0
0, 0
0, 0
0, 0
0, 0
0, 0
0, 0
0, 0
0, 0
0, 0
0, 0
0, 0
0, 0
0, 0
0, 0
0, 0
0, 0
0, 0
0, 0
0, 0
0, 0
0, 0
0, 0
0, 0
0, 0
0, 0
0, 0
0, 0
0, 0
0, 0
0, 0
0, 0
0, 0
0, 0
0, 0
0, 0
0, 0
0, 0
0, 0
0, 0
0, 0
0, 0
0, 0
0, 0
0, 0
0, 0
0, 0
0, 0
0, 0
0, 0
0, 0
0, 0
0, 0
0, 0
0, 0
0, 0
0, 0
0, 0
0, 0
0, 0
0, 0
0, 0
0, 0
0, 0
0, 0
0, 0
0, 0
0, 0
0, 0
0, 0
0, 0
0, 0
0, 0
0, 0
0, 0
0, 0
0, 0
0, 0
0, 0
0, 0
0, 0
0, 0
0, 0
0, 0
0, 0
0, 0
0, 0
0, 0
0, 0
0, 0
0, 0
0, 0
0, 0
0, 0
0, 0
0, 0
0, 0
0, 0
0, 0
0, 0
0, 0
0, 0
0, 0
0, 0
0, 0
0, 0
0, 0
0, 0
0, 0
0, 0
0, 0
0, 0
0, 0
0, 0
0, 0
0, 0
0, 0
0, 0
0, 0
0, 0
0, 0
0, 0
0, 0
#ENDOFDATA     end of spectrum data