File: host_upload/06-09-2024/ps_0852/dump3/ps__0852shot_2351.msa
#FORMAT      : EMSA/MAS spectral data file
#VERSION     : TC202v2.0 PIXL
#TITLE       : N/A
#DATE        :       Date in the format DD-MMM-YYYY, for example 07-JUL-2010
#TIME        :             The time of day at which the spectrum was recorded, in 24-hour format
#OWNER       : PIXL Flight Model       (PIXL will use this to indicate which instrument took the data.)
#NPOINTS     : 4096     Number of data points in the spectrum (This can be zero for configuration only files)
#NCOLUMNS    : 2     Number of data columns in the spectrum (This can be zero for configuration only files)
#XUNITS      : eV
#YUNITS      : COUNTS
#DATATYPE    : YY
#XPERCHAN    : 7.862, 7.881   eV per channel (separate by commas if more than one detector)
#OFFSET      : 18.5, -22.4         eV of first channel  (separate by commas if more than one detector
#SIGNALTYPE  : XRF
#YP_TEMP     : 2.171
#LIVETIME    : 8.56222, 8.55382   seconds (separate by commas if more than one detector)
#REALTIME    : 10, 10.0   seconds (separate by commas if more than one detector)
#SPECTRUM    : start of spectrum data
0, 0
0, 0
0, 0
0, 0
0, 0
0, 0
0, 0
0, 0
0, 0
0, 0
0, 0
0, 0
0, 0
0, 0
0, 0
0, 0
0, 0
0, 0
0, 0
0, 0
0, 0
0, 0
0, 0
0, 0
0, 0
0, 0
0, 0
0, 0
0, 0
0, 0
0, 0
0, 0
0, 0
0, 0
0, 1
1, 0
0, 0
0, 1
0, 0
0, 3
1, 0
1, 3
2, 1
3, 0
1, 3
2, 1
0, 2
2, 2
2, 4
8, 13
18, 24
42, 44
58, 45
66, 76
81, 80
55, 62
48, 53
36, 38
29, 24
13, 11
6, 5
5, 7
5, 3
0, 6
3, 5
6, 4
2, 3
6, 11
20, 19
38, 50
98, 85
149, 166
260, 227
355, 320
394, 378
416, 410
366, 375
286, 264
182, 169
122, 95
88, 47
23, 42
24, 16
6, 5
2, 4
3, 2
2, 2
0, 1
1, 2
2, 1
2, 2
2, 1
3, 0
13, 2
4, 6
9, 11
12, 15
13, 25
23, 17
20, 29
12, 22
17, 17
10, 12
15, 7
11, 5
1, 8
10, 4
9, 10
13, 17
11, 18
25, 30
31, 32
32, 52
40, 39
50, 51
44, 44
49, 35
49, 41
33, 35
42, 28
31, 31
29, 10
27, 22
7, 23
18, 20
13, 10
7, 13
9, 13
9, 11
9, 7
3, 3
2, 2
2, 8
3, 2
2, 3
2, 3
1, 1
1, 3
2, 2
2, 2
0, 9
2, 5
1, 2
1, 2
4, 2
3, 3
0, 1
3, 1
1, 3
2, 5
6, 1
5, 7
9, 12
11, 18
18, 14
20, 30
28, 33
35, 41
32, 40
23, 37
31, 24
20, 14
16, 10
12, 7
10, 12
10, 2
9, 7
6, 4
3, 5
5, 2
7, 5
10, 9
9, 3
8, 6
4, 8
7, 5
5, 4
4, 8
1, 6
5, 6
3, 5
3, 5
4, 5
2, 4
2, 0
6, 4
6, 3
7, 6
13, 7
8, 8
13, 4
14, 5
26, 9
22, 5
19, 14
22, 12
26, 16
22, 14
17, 10
21, 13
16, 7
14, 13
8, 7
7, 9
4, 6
8, 4
11, 6
10, 1
2, 7
10, 6
4, 6
5, 3
12, 10
6, 5
4, 6
5, 4
8, 2
6, 5
4, 2
8, 6
7, 4
8, 9
11, 6
6, 12
10, 13
5, 32
7, 27
12, 44
14, 60
26, 57
20, 52
16, 48
9, 27
10, 30
3, 31
11, 19
9, 17
14, 14
11, 13
12, 14
13, 17
16, 19
15, 14
15, 28
18, 25
22, 28
35, 50
38, 52
57, 59
51, 65
68, 61
57, 73
52, 58
61, 46
44, 33
38, 40
23, 23
20, 25
17, 18
11, 20
24, 30
24, 40
50, 58
101, 116
139, 185
290, 364
454, 615
792, 908
1150, 1295
1509, 1674
1936, 2163
2193, 2299
2408, 2456
2310, 2163
2066, 1886
1677, 1442
1264, 1045
903, 678
608, 427
312, 254
201, 152
91, 80
50, 59
28, 47
21, 32
7, 35
16, 32
12, 25
13, 34
21, 16
28, 31
20, 47
57, 58
72, 97
105, 109
153, 197
173, 226
275, 291
327, 311
316, 343
369, 358
341, 371
312, 253
253, 185
171, 157
151, 87
73, 62
62, 36
32, 26
25, 12
9, 15
6, 8
1, 8
12, 11
12, 20
8, 25
14, 31
14, 20
8, 18
16, 18
15, 13
10, 12
11, 23
8, 6
5, 5
5, 6
6, 7
4, 9
5, 7
7, 5
6, 3
1, 5
6, 5
0, 5
2, 4
1, 2
1, 2
5, 6
6, 3
5, 3
8, 3
5, 5
2, 5
10, 7
7, 3
13, 3
9, 5
5, 2
4, 3
6, 5
9, 5
8, 2
6, 3
8, 4
8, 5
4, 4
2, 3
2, 5
2, 6
3, 6
5, 4
2, 7
6, 2
3, 7
2, 3
5, 7
5, 6
2, 14
1, 3
4, 6
3, 5
3, 7
5, 6
5, 5
3, 0
4, 3
2, 2
4, 3
6, 3
4, 2
5, 2
5, 3
5, 2
6, 4
8, 5
7, 3
18, 3
9, 9
13, 6
15, 3
15, 6
13, 0
11, 2
7, 1
5, 4
16, 3
4, 3
5, 3
9, 7
8, 6
12, 4
4, 3
6, 6
6, 7
3, 4
7, 1
4, 3
2, 2
3, 3
4, 5
0, 3
1, 4
5, 5
1, 3
3, 10
1, 3
2, 5
1, 2
3, 5
3, 6
5, 5
4, 8
5, 7
3, 7
6, 8
6, 13
6, 4
9, 5
6, 4
9, 8
11, 5
9, 2
12, 1
7, 2
12, 3
4, 3
4, 1
3, 1
5, 2
9, 2
6, 3
8, 3
9, 3
5, 3
5, 2
6, 2
3, 1
3, 2
2, 6
3, 2
1, 3
1, 3
1, 3
2, 0
5, 4
4, 4
3, 4
3, 5
3, 3
3, 9
2, 4
2, 2
0, 4
5, 2
2, 2
4, 3
3, 2
4, 1
3, 9
2, 2
2, 1
2, 4
1, 0
3, 3
5, 4
2, 1
3, 1
3, 4
1, 2
3, 6
6, 2
2, 1
4, 2
2, 2
2, 3
2, 3
0, 0
1, 0
2, 3
0, 2
1, 3
2, 3
0, 2
3, 4
2, 1
4, 1
2, 2
3, 3
3, 0
2, 4
1, 5
3, 4
1, 4
3, 2
3, 3
4, 2
4, 1
2, 1
1, 4
1, 4
2, 3
2, 3
2, 3
1, 2
1, 0
1, 3
0, 2
1, 2
4, 2
4, 2
1, 7
3, 0
2, 1
0, 0
0, 2
3, 4
3, 3
4, 1
1, 2
1, 3
0, 2
4, 2
2, 4
1, 0
1, 3
0, 2
6, 2
2, 2
5, 1
2, 2
4, 2
2, 2
5, 4
4, 2
6, 4
3, 3
3, 0
3, 3
4, 2
2, 2
1, 1
1, 0
1, 1
1, 2
0, 0
0, 1
2, 2
2, 2
2, 1
1, 4
0, 0
1, 0
2, 0
1, 3
3, 0
2, 6
2, 2
3, 2
2, 1
2, 4
2, 1
2, 1
0, 0
0, 2
2, 1
3, 1
1, 0
0, 1
1, 1
1, 2
2, 1
1, 0
0, 2
2, 2
0, 3
2, 1
0, 4
3, 2
4, 3
1, 0
0, 0
1, 1
3, 3
2, 1
1, 1
1, 4
0, 1
1, 0
0, 1
1, 0
1, 1
1, 0
1, 0
2, 2
1, 1
0, 3
1, 0
0, 0
0, 0
0, 0
1, 0
3, 0
1, 0
1, 1
1, 0
1, 0
2, 2
0, 0
0, 0
0, 1
0, 0
0, 1
0, 1
0, 2
2, 1
1, 0
1, 0
0, 1
1, 2
0, 1
1, 1
0, 0
3, 2
1, 0
1, 2
0, 1
0, 0
0, 1
0, 1
0, 0
1, 0
0, 1
0, 0
1, 0
0, 1
0, 0
0, 0
3, 1
1, 0
1, 0
0, 1
0, 0
2, 3
1, 1
1, 0
0, 1
2, 2
0, 1
1, 1
0, 0
0, 2
1, 0
1, 0
0, 1
0, 0
0, 1
0, 0
1, 2
0, 1
0, 0
1, 1
0, 1
0, 0
3, 0
1, 0
0, 1
0, 1
3, 1
0, 3
0, 1
1, 0
2, 0
1, 0
2, 1
0, 2
1, 0
0, 1
1, 1
0, 0
2, 0
0, 0
1, 1
1, 1
0, 0
1, 0
0, 0
0, 0
0, 0
0, 1
0, 0
0, 0
1, 0
0, 0
0, 0
1, 0
1, 0
0, 0
0, 1
0, 0
0, 1
1, 0
2, 0
0, 0
0, 0
0, 0
0, 0
0, 0
1, 0
0, 1
0, 0
1, 0
0, 0
0, 0
0, 0
0, 0
0, 1
0, 0
0, 0
0, 2
0, 0
0, 0
0, 1
0, 0
0, 1
1, 0
1, 0
0, 1
0, 0
0, 1
0, 0
0, 1
0, 0
0, 0
1, 0
0, 0
0, 2
0, 0
1, 0
1, 1
0, 0
0, 0
0, 0
0, 2
0, 0
0, 0
1, 1
0, 0
0, 0
0, 0
0, 0
0, 0
0, 0
0, 0
1, 0
0, 0
0, 0
0, 0
1, 1
0, 0
1, 0
0, 0
0, 0
0, 0
2, 0
0, 0
0, 0
0, 0
0, 0
1, 0
0, 0
0, 0
1, 0
0, 1
1, 0
1, 1
0, 1
0, 1
1, 0
0, 2
0, 0
0, 0
1, 0
0, 1
0, 1
0, 0
0, 0
1, 0
0, 0
0, 0
0, 0
0, 0
0, 1
1, 0
1, 0
0, 0
1, 0
0, 1
0, 0
1, 0
0, 0
0, 2
0, 0
0, 0
0, 0
1, 0
1, 0
0, 0
0, 0
0, 0
0, 0
1, 0
0, 1
0, 0
1, 0
0, 0
0, 0
0, 0
0, 0
0, 0
0, 0
0, 0
0, 0
0, 0
1, 0
0, 0
0, 0
0, 0
0, 0
0, 1
0, 0
0, 0
0, 1
0, 0
0, 0
0, 0
0, 0
0, 0
0, 1
0, 0
0, 0
0, 0
0, 1
0, 1
0, 2
1, 0
0, 0
0, 0
0, 0
0, 0
1, 0
0, 0
0, 0
0, 0
1, 0
0, 0
0, 0
0, 0
1, 0
2, 0
0, 0
0, 0
0, 1
0, 0
0, 0
0, 0
0, 0
1, 0
0, 0
0, 0
0, 0
0, 0
0, 1
1, 0
1, 0
0, 0
0, 0
0, 0
0, 0
0, 0
0, 0
0, 0
0, 0
0, 0
0, 0
0, 0
0, 0
0, 0
0, 0
0, 0
1, 0
0, 0
0, 0
0, 0
0, 0
0, 0
0, 0
0, 0
0, 0
0, 0
0, 0
0, 1
0, 0
1, 0
0, 0
0, 0
0, 0
0, 0
0, 0
0, 0
0, 0
0, 0
0, 0
0, 1
0, 0
0, 0
0, 0
0, 0
0, 0
0, 1
0, 0
0, 0
0, 0
0, 0
0, 0
0, 0
0, 0
0, 0
0, 0
0, 0
0, 0
0, 0
0, 0
0, 0
0, 0
0, 0
0, 0
0, 0
0, 0
0, 0
0, 0
0, 0
0, 0
0, 0
0, 0
0, 0
0, 0
0, 0
0, 0
0, 0
0, 0
0, 0
0, 0
0, 0
0, 0
0, 0
0, 0
0, 0
0, 0
0, 0
0, 0
0, 0
0, 0
0, 0
0, 0
0, 0
0, 0
0, 0
0, 0
0, 0
0, 0
0, 0
0, 0
0, 0
0, 0
0, 0
0, 0
0, 0
0, 0
0, 0
0, 0
0, 0
0, 0
0, 0
0, 0
0, 0
0, 0
0, 0
0, 0
0, 0
0, 0
0, 0
0, 0
0, 0
0, 0
0, 0
0, 0
0, 0
0, 0
0, 0
0, 0
0, 0
0, 0
0, 0
0, 0
0, 0
0, 0
0, 0
0, 0
0, 0
0, 0
0, 0
0, 0
0, 0
0, 0
0, 0
0, 0
0, 0
0, 0
0, 0
0, 0
0, 0
0, 0
0, 0
0, 0
0, 0
0, 0
0, 0
0, 0
0, 0
0, 0
0, 0
0, 0
0, 0
0, 0
0, 0
0, 0
0, 0
0, 0
0, 0
0, 0
0, 0
0, 0
0, 0
0, 0
0, 0
0, 0
0, 0
0, 0
0, 0
0, 0
1, 0
0, 0
0, 0
0, 0
0, 0
0, 0
0, 0
0, 0
0, 0
0, 0
0, 0
0, 0
0, 0
0, 0
0, 0
0, 0
0, 0
0, 0
0, 0
0, 0
0, 0
0, 0
0, 0
0, 0
0, 0
0, 0
0, 0
0, 0
0, 0
0, 0
0, 0
0, 0
0, 0
0, 0
0, 0
0, 0
0, 0
0, 0
0, 0
0, 0
0, 0
0, 0
0, 0
0, 0
0, 0
0, 0
0, 0
0, 0
0, 0
0, 0
0, 0
0, 0
0, 0
0, 0
0, 0
0, 0
0, 0
0, 0
0, 0
0, 0
0, 0
0, 0
0, 0
0, 0
0, 0
0, 0
0, 0
0, 0
0, 0
0, 0
0, 1
0, 0
0, 0
0, 0
0, 0
0, 0
0, 0
0, 0
0, 0
0, 0
0, 0
0, 0
0, 0
0, 0
0, 0
0, 0
0, 0
0, 0
0, 0
0, 0
0, 0
0, 0
0, 0
0, 0
0, 0
0, 0
0, 0
0, 0
0, 0
0, 0
0, 0
0, 0
0, 0
0, 0
0, 0
0, 0
0, 0
0, 0
0, 0
0, 0
0, 0
0, 0
0, 0
0, 0
0, 0
0, 0
0, 0
0, 0
0, 0
0, 0
0, 0
0, 0
0, 0
0, 0
0, 0
0, 0
0, 0
0, 0
0, 0
0, 0
0, 0
0, 0
0, 0
0, 0
0, 0
0, 0
0, 0
0, 0
0, 0
0, 0
0, 0
0, 0
0, 0
0, 0
0, 0
0, 0
0, 0
0, 0
0, 0
0, 0
0, 0
0, 0
0, 0
0, 0
0, 0
0, 0
0, 0
0, 0
0, 0
0, 0
0, 0
0, 0
0, 0
0, 0
0, 0
0, 0
0, 0
0, 0
0, 0
0, 0
0, 0
0, 0
0, 0
0, 0
0, 0
0, 0
0, 0
0, 0
0, 0
0, 0
0, 0
0, 0
0, 0
0, 0
0, 0
0, 0
0, 0
0, 0
0, 0
0, 0
0, 0
0, 0
0, 0
0, 0
0, 0
0, 0
0, 0
0, 0
0, 0
0, 0
0, 0
0, 0
0, 0
0, 0
0, 0
0, 0
0, 0
0, 0
0, 0
0, 0
0, 0
0, 0
0, 0
0, 0
0, 0
0, 0
0, 0
0, 0
0, 0
0, 0
0, 0
0, 0
0, 0
0, 0
0, 0
0, 0
0, 0
0, 0
0, 0
0, 0
0, 0
0, 0
0, 0
0, 0
0, 0
0, 0
0, 0
0, 0
0, 0
0, 0
0, 0
0, 0
0, 0
0, 0
0, 0
0, 0
0, 0
0, 0
0, 0
0, 0
0, 0
0, 0
0, 0
0, 0
0, 0
0, 0
0, 0
0, 0
0, 0
0, 0
0, 0
0, 0
0, 0
0, 0
0, 0
0, 0
0, 0
0, 0
0, 0
0, 0
0, 0
0, 0
0, 0
0, 0
0, 0
0, 0
0, 0
0, 0
0, 0
0, 0
0, 0
0, 0
0, 0
0, 0
0, 0
0, 0
0, 0
0, 0
0, 0
0, 0
0, 0
0, 0
0, 0
0, 0
0, 0
0, 0
0, 0
0, 0
0, 0
0, 0
0, 0
0, 0
0, 0
0, 0
0, 0
0, 0
#ENDOFDATA     end of spectrum data