File: host_upload/06-09-2024/ps_0852/dump3/ps__0852shot_2318.msa
#FORMAT      : EMSA/MAS spectral data file
#VERSION     : TC202v2.0 PIXL
#TITLE       : N/A
#DATE        :       Date in the format DD-MMM-YYYY, for example 07-JUL-2010
#TIME        :             The time of day at which the spectrum was recorded, in 24-hour format
#OWNER       : PIXL Flight Model       (PIXL will use this to indicate which instrument took the data.)
#NPOINTS     : 4096     Number of data points in the spectrum (This can be zero for configuration only files)
#NCOLUMNS    : 2     Number of data columns in the spectrum (This can be zero for configuration only files)
#XUNITS      : eV
#YUNITS      : COUNTS
#DATATYPE    : YY
#XPERCHAN    : 7.862, 7.881   eV per channel (separate by commas if more than one detector)
#OFFSET      : 18.5, -22.4         eV of first channel  (separate by commas if more than one detector
#SIGNALTYPE  : XRF
#YP_TEMP     : 2.332
#LIVETIME    : 8.55424, 8.54517   seconds (separate by commas if more than one detector)
#REALTIME    : 10, 10.0   seconds (separate by commas if more than one detector)
#SPECTRUM    : start of spectrum data
0, 0
0, 0
0, 0
0, 0
0, 0
0, 0
0, 0
0, 0
0, 0
0, 0
0, 0
0, 0
0, 0
0, 0
0, 0
0, 0
0, 0
0, 0
0, 0
0, 0
0, 0
0, 0
0, 0
0, 0
0, 0
0, 0
0, 0
0, 0
0, 0
0, 0
0, 0
0, 0
0, 1
0, 0
0, 1
0, 1
0, 0
3, 4
0, 1
2, 3
1, 2
5, 5
3, 0
6, 1
1, 1
2, 5
2, 2
4, 2
3, 7
6, 6
15, 14
17, 33
38, 39
47, 37
43, 49
43, 45
38, 32
29, 34
23, 18
15, 6
4, 6
3, 4
7, 3
4, 7
7, 5
3, 6
6, 7
6, 11
22, 23
40, 66
102, 100
182, 168
269, 245
319, 372
373, 388
404, 439
364, 349
267, 263
217, 178
106, 120
50, 62
39, 39
25, 23
17, 18
5, 12
8, 4
6, 11
6, 4
3, 4
7, 1
2, 7
4, 7
5, 8
16, 20
25, 29
50, 48
67, 63
76, 77
109, 102
94, 106
81, 84
75, 73
44, 61
36, 41
22, 35
17, 22
18, 20
18, 27
27, 40
41, 57
56, 59
70, 82
87, 82
97, 94
109, 91
96, 84
82, 108
63, 64
64, 61
43, 55
36, 53
28, 35
24, 38
25, 18
23, 18
19, 19
18, 14
15, 12
11, 10
11, 14
10, 12
4, 11
6, 8
5, 3
7, 4
0, 6
7, 3
6, 4
7, 6
5, 4
5, 8
9, 4
8, 8
6, 7
7, 3
5, 1
4, 0
8, 2
5, 8
8, 23
28, 28
44, 65
85, 107
153, 151
209, 248
284, 312
389, 429
410, 442
384, 418
350, 380
248, 245
195, 207
117, 100
74, 76
51, 41
32, 37
28, 34
24, 47
33, 58
49, 56
70, 72
77, 60
58, 60
50, 52
20, 40
23, 28
25, 16
14, 11
8, 14
5, 5
5, 5
4, 4
6, 2
6, 2
5, 4
3, 5
6, 2
12, 6
14, 14
15, 17
15, 18
12, 10
22, 28
17, 24
17, 29
17, 23
18, 15
28, 21
27, 18
39, 12
48, 13
47, 8
63, 10
63, 3
52, 7
54, 3
39, 9
35, 8
41, 9
22, 11
10, 9
8, 9
8, 7
7, 13
5, 5
6, 9
6, 6
10, 11
9, 9
5, 7
4, 10
5, 4
8, 14
4, 10
13, 18
14, 34
22, 38
28, 42
52, 50
69, 56
45, 50
53, 64
38, 46
36, 38
40, 28
27, 22
16, 12
17, 17
17, 9
14, 12
13, 3
18, 9
14, 8
13, 15
20, 15
21, 24
27, 32
40, 39
42, 58
63, 58
63, 47
86, 60
80, 56
58, 60
42, 43
38, 31
44, 11
13, 14
23, 22
19, 14
14, 15
33, 27
33, 39
79, 77
129, 150
219, 288
377, 503
589, 770
881, 1119
1209, 1506
1602, 1696
1818, 1886
1842, 1981
1836, 1852
1639, 1608
1382, 1212
986, 894
649, 615
450, 342
282, 220
145, 104
74, 48
42, 38
33, 30
26, 13
15, 14
18, 8
7, 18
24, 14
29, 24
30, 20
31, 31
50, 53
72, 83
87, 107
128, 169
178, 200
226, 224
276, 289
281, 290
317, 303
289, 310
232, 219
216, 181
154, 145
115, 84
73, 47
56, 32
29, 24
19, 16
15, 9
14, 4
10, 11
23, 11
19, 12
13, 10
14, 18
10, 19
17, 16
21, 8
10, 8
13, 12
4, 5
6, 6
4, 7
5, 2
4, 7
4, 4
3, 4
2, 5
4, 3
1, 4
2, 0
2, 1
1, 3
6, 8
0, 6
4, 7
4, 4
5, 9
3, 3
4, 1
6, 5
4, 7
2, 6
3, 6
5, 4
3, 9
7, 4
6, 5
8, 7
6, 4
4, 5
3, 4
7, 7
7, 4
7, 4
4, 7
3, 3
5, 5
11, 5
7, 3
7, 5
10, 1
9, 3
6, 4
6, 5
7, 4
5, 4
6, 5
7, 2
6, 3
4, 2
3, 1
3, 1
3, 5
1, 4
6, 3
4, 4
3, 5
8, 5
4, 4
5, 6
9, 3
14, 4
8, 3
7, 3
9, 2
7, 3
7, 6
9, 2
4, 1
5, 3
8, 3
8, 3
4, 4
6, 7
6, 3
1, 5
2, 2
2, 5
5, 3
4, 2
5, 2
4, 2
2, 4
3, 5
4, 4
1, 3
4, 2
3, 3
3, 4
5, 6
5, 2
6, 3
1, 3
3, 4
4, 1
1, 5
3, 7
3, 4
4, 5
5, 6
6, 5
8, 8
5, 8
7, 7
4, 3
4, 9
4, 9
7, 0
1, 9
7, 7
5, 7
2, 3
4, 3
4, 6
1, 2
6, 7
3, 2
5, 4
2, 2
4, 2
2, 3
3, 3
2, 9
3, 5
7, 2
4, 4
4, 0
4, 3
4, 5
3, 6
4, 1
4, 3
2, 1
1, 3
6, 0
3, 1
0, 6
3, 1
1, 4
2, 5
5, 3
4, 2
1, 4
1, 4
3, 5
2, 6
3, 2
4, 7
5, 3
0, 2
0, 4
5, 2
1, 0
1, 2
2, 2
0, 3
2, 2
4, 3
6, 4
2, 3
4, 4
2, 2
2, 2
6, 3
3, 2
4, 3
4, 2
2, 3
1, 1
5, 6
2, 1
4, 3
4, 1
8, 4
6, 1
5, 4
5, 1
2, 2
4, 1
6, 2
2, 1
1, 1
0, 1
3, 3
5, 0
1, 3
3, 3
0, 2
1, 6
4, 2
2, 2
3, 2
2, 3
0, 0
1, 4
2, 3
2, 2
0, 2
1, 1
1, 2
0, 0
0, 4
1, 2
2, 3
1, 2
0, 4
1, 5
0, 1
1, 4
0, 1
1, 6
2, 0
4, 3
0, 3
2, 4
6, 2
0, 3
0, 4
6, 3
0, 3
6, 3
4, 2
2, 3
2, 2
1, 0
4, 1
5, 1
2, 2
0, 3
2, 3
3, 0
2, 2
2, 1
1, 2
2, 1
2, 1
0, 2
1, 1
2, 3
2, 1
0, 1
1, 4
2, 1
2, 2
3, 2
2, 2
2, 1
2, 4
2, 2
0, 4
3, 0
1, 3
2, 2
3, 2
3, 2
1, 0
2, 2
1, 2
0, 1
2, 2
1, 3
0, 2
4, 1
0, 1
0, 3
0, 0
1, 1
1, 2
0, 1
1, 1
1, 0
2, 2
0, 1
1, 0
0, 2
0, 2
1, 1
0, 1
0, 1
2, 2
1, 2
0, 0
1, 2
0, 1
0, 0
1, 2
0, 0
1, 0
1, 1
0, 0
1, 0
1, 4
0, 1
1, 0
2, 1
1, 2
1, 0
0, 3
0, 2
2, 0
1, 3
0, 1
0, 1
0, 0
1, 1
0, 1
2, 0
0, 2
0, 1
2, 1
0, 0
1, 2
1, 1
1, 3
1, 0
0, 0
0, 1
0, 0
0, 1
2, 2
0, 1
2, 0
0, 0
0, 1
2, 2
0, 0
0, 0
1, 0
2, 0
1, 0
1, 1
1, 0
0, 0
1, 2
1, 1
4, 0
0, 0
0, 1
1, 0
2, 1
1, 1
1, 1
0, 0
1, 0
2, 0
1, 2
2, 1
1, 1
0, 0
0, 0
2, 0
0, 0
1, 2
0, 0
0, 0
0, 0
2, 0
1, 1
0, 0
0, 0
0, 0
1, 0
1, 1
0, 0
1, 2
0, 0
0, 1
0, 0
0, 0
0, 1
0, 1
0, 0
2, 0
0, 0
0, 1
0, 0
0, 1
1, 1
1, 1
0, 1
0, 1
0, 0
1, 0
0, 0
0, 0
0, 1
0, 1
0, 1
1, 2
0, 0
1, 0
0, 1
1, 0
0, 0
0, 0
0, 0
0, 0
0, 1
1, 1
0, 0
1, 0
1, 0
0, 0
0, 0
1, 0
0, 0
2, 0
0, 0
0, 0
0, 0
0, 1
0, 0
0, 0
0, 2
1, 0
0, 0
0, 0
0, 0
0, 0
0, 0
0, 0
0, 1
0, 0
0, 0
0, 1
1, 0
0, 1
0, 0
0, 0
0, 0
0, 1
0, 0
0, 0
0, 1
0, 0
0, 0
1, 0
0, 0
0, 0
0, 0
0, 0
0, 0
2, 0
0, 1
1, 0
0, 0
1, 0
0, 0
0, 0
0, 0
0, 0
0, 0
0, 1
1, 2
1, 1
0, 0
1, 0
0, 0
0, 1
0, 1
0, 0
0, 0
0, 0
0, 0
0, 1
1, 0
0, 0
0, 0
0, 0
0, 0
0, 0
0, 1
0, 0
2, 0
0, 0
0, 1
0, 0
0, 0
1, 0
1, 1
0, 0
0, 0
0, 0
0, 0
0, 0
1, 0
0, 0
0, 0
0, 0
0, 0
0, 0
0, 0
0, 0
0, 0
0, 0
0, 0
0, 0
0, 0
0, 0
0, 0
0, 0
0, 0
1, 0
0, 0
0, 0
0, 0
0, 0
0, 0
0, 0
1, 0
0, 0
1, 0
0, 1
0, 0
0, 0
0, 0
0, 0
0, 0
1, 1
0, 0
0, 0
1, 0
0, 1
0, 1
1, 0
0, 0
0, 0
1, 0
1, 0
0, 0
0, 0
0, 0
0, 0
0, 0
0, 0
0, 0
0, 0
0, 0
0, 0
1, 0
0, 0
0, 0
0, 0
0, 1
1, 0
0, 0
0, 0
0, 0
0, 0
0, 0
0, 0
0, 0
0, 1
0, 0
0, 0
0, 0
0, 0
0, 0
0, 0
0, 0
0, 0
0, 0
0, 0
0, 0
0, 0
0, 1
1, 0
0, 0
0, 0
0, 0
0, 0
0, 0
0, 0
0, 0
0, 0
0, 0
0, 0
0, 1
0, 0
0, 0
0, 0
0, 0
0, 0
0, 1
0, 0
0, 0
0, 0
1, 0
0, 0
0, 0
0, 0
0, 0
0, 0
0, 0
0, 0
0, 0
0, 0
0, 0
0, 0
0, 0
0, 0
0, 1
0, 0
0, 0
0, 0
0, 0
0, 0
0, 0
0, 0
0, 0
0, 0
0, 0
0, 0
0, 0
0, 0
0, 0
1, 0
0, 0
0, 0
0, 0
0, 0
0, 0
0, 0
0, 0
0, 0
0, 0
0, 0
0, 0
0, 0
0, 0
0, 0
0, 0
0, 0
0, 0
0, 0
0, 0
0, 0
0, 0
0, 0
0, 0
0, 0
0, 0
0, 0
0, 0
0, 1
0, 0
0, 0
0, 0
0, 0
0, 0
0, 0
0, 0
0, 0
0, 0
0, 0
0, 0
0, 0
0, 0
0, 0
0, 0
0, 0
0, 0
0, 0
0, 0
0, 0
0, 0
0, 0
0, 0
0, 0
0, 0
0, 0
0, 0
0, 0
0, 0
0, 0
0, 0
0, 0
0, 0
0, 0
0, 0
0, 0
0, 0
0, 0
0, 0
0, 0
0, 0
0, 0
0, 0
0, 0
0, 0
0, 0
0, 0
0, 0
0, 0
0, 0
0, 0
0, 0
0, 0
0, 0
0, 0
0, 0
0, 0
0, 0
0, 1
0, 0
0, 0
0, 0
0, 0
0, 0
0, 0
0, 0
0, 0
0, 0
0, 0
0, 0
0, 0
0, 0
0, 0
0, 0
0, 0
0, 0
0, 0
0, 0
0, 0
0, 0
0, 0
0, 0
0, 0
0, 0
0, 0
0, 0
0, 0
0, 0
0, 0
0, 0
0, 0
0, 0
0, 0
0, 0
0, 0
0, 0
0, 0
0, 0
0, 0
0, 0
0, 0
0, 0
0, 0
0, 0
0, 0
0, 0
0, 0
0, 0
0, 0
0, 0
0, 0
0, 0
0, 0
0, 0
0, 0
0, 0
0, 0
0, 0
0, 0
0, 0
0, 0
0, 0
0, 0
0, 0
0, 0
0, 0
0, 0
0, 0
0, 0
0, 0
0, 0
0, 0
0, 0
0, 0
0, 0
0, 0
0, 0
0, 0
0, 0
0, 0
0, 0
0, 0
0, 0
0, 0
0, 0
0, 0
0, 0
0, 0
0, 0
0, 0
0, 0
0, 0
0, 0
0, 0
0, 0
0, 0
0, 0
0, 0
0, 0
0, 0
0, 0
0, 0
0, 0
0, 0
0, 0
0, 0
0, 0
0, 0
0, 0
0, 0
0, 0
0, 0
0, 0
0, 0
0, 0
0, 0
0, 0
0, 0
0, 0
0, 0
0, 0
0, 0
0, 0
0, 0
0, 0
0, 0
0, 0
0, 0
0, 0
0, 0
0, 0
0, 0
0, 0
0, 0
0, 0
0, 0
0, 0
0, 0
0, 0
0, 0
0, 0
0, 0
0, 0
0, 0
0, 0
0, 0
0, 0
0, 0
0, 0
0, 0
0, 0
0, 0
0, 0
0, 0
0, 0
0, 0
0, 0
0, 0
0, 0
0, 0
0, 0
0, 0
0, 0
0, 0
0, 0
0, 0
0, 0
0, 0
0, 0
0, 0
0, 0
0, 0
0, 0
0, 0
0, 0
0, 0
0, 0
0, 0
0, 0
0, 0
0, 0
0, 0
0, 0
0, 0
0, 0
0, 0
0, 0
0, 0
0, 0
0, 0
0, 0
0, 0
0, 0
0, 0
0, 0
0, 0
0, 0
0, 0
0, 0
0, 0
0, 0
0, 0
0, 0
0, 0
0, 0
0, 0
0, 0
0, 0
0, 0
0, 0
0, 0
0, 0
0, 0
0, 0
0, 0
0, 0
0, 0
0, 0
0, 0
0, 0
0, 0
0, 0
0, 0
0, 0
0, 0
0, 0
0, 0
0, 0
0, 0
0, 0
0, 0
0, 0
0, 0
0, 0
0, 0
0, 0
0, 0
0, 0
0, 0
0, 0
0, 0
0, 0
0, 0
0, 0
0, 0
0, 0
0, 0
0, 0
0, 0
0, 0
0, 0
0, 0
0, 0
0, 0
0, 0
0, 0
0, 0
0, 0
0, 0
0, 0
0, 0
0, 0
0, 0
0, 0
0, 0
0, 0
0, 0
0, 0
0, 0
0, 0
0, 0
0, 0
0, 0
0, 0
0, 0
0, 0
0, 0
0, 0
0, 0
0, 0
0, 0
0, 0
0, 0
0, 0
0, 0
0, 0
0, 0
0, 0
0, 0
0, 0
0, 0
0, 0
0, 0
0, 0
0, 0
0, 0
0, 0
0, 0
0, 0
0, 0
0, 0
0, 0
0, 0
0, 0
0, 0
0, 0
0, 0
0, 0
0, 0
0, 0
0, 0
0, 0
0, 0
0, 0
0, 0
0, 0
0, 0
0, 0
0, 0
0, 0
0, 0
0, 0
0, 0
0, 0
0, 0
0, 0
0, 0
0, 0
0, 0
0, 0
0, 0
0, 0
0, 0
0, 0
0, 0
0, 0
0, 0
0, 0
#ENDOFDATA     end of spectrum data