File: host_upload/06-09-2024/ps_0852/dump3/ps__0852shot_2537.msa
#FORMAT      : EMSA/MAS spectral data file
#VERSION     : TC202v2.0 PIXL
#TITLE       : N/A
#DATE        :       Date in the format DD-MMM-YYYY, for example 07-JUL-2010
#TIME        :             The time of day at which the spectrum was recorded, in 24-hour format
#OWNER       : PIXL Flight Model       (PIXL will use this to indicate which instrument took the data.)
#NPOINTS     : 4096     Number of data points in the spectrum (This can be zero for configuration only files)
#NCOLUMNS    : 2     Number of data columns in the spectrum (This can be zero for configuration only files)
#XUNITS      : eV
#YUNITS      : COUNTS
#DATATYPE    : YY
#XPERCHAN    : 7.862, 7.881   eV per channel (separate by commas if more than one detector)
#OFFSET      : 18.5, -22.4         eV of first channel  (separate by commas if more than one detector
#SIGNALTYPE  : XRF
#YP_TEMP     : 2.203
#LIVETIME    : 8.55433, 8.56534   seconds (separate by commas if more than one detector)
#REALTIME    : 10, 10.0   seconds (separate by commas if more than one detector)
#SPECTRUM    : start of spectrum data
0, 0
0, 0
0, 0
0, 0
0, 0
0, 0
0, 0
0, 0
0, 0
0, 0
0, 0
0, 0
0, 0
0, 0
0, 0
0, 0
0, 0
0, 0
0, 0
0, 0
0, 0
0, 0
0, 0
0, 0
0, 0
0, 0
0, 0
0, 0
0, 0
0, 0
0, 0
0, 0
0, 0
0, 0
0, 0
0, 0
1, 1
0, 0
1, 0
2, 2
0, 6
2, 3
0, 3
0, 2
2, 3
2, 0
1, 3
1, 4
7, 7
14, 16
19, 25
37, 38
66, 59
69, 88
91, 79
67, 80
65, 68
41, 39
27, 35
19, 15
5, 8
7, 4
0, 5
4, 4
2, 2
4, 0
12, 7
5, 13
21, 24
46, 51
107, 91
188, 191
229, 286
363, 370
383, 435
432, 389
370, 349
293, 270
191, 206
125, 120
72, 69
37, 27
22, 20
9, 6
4, 3
1, 1
3, 2
4, 0
3, 1
1, 6
2, 3
4, 2
2, 1
0, 2
5, 1
6, 8
2, 7
2, 8
6, 11
12, 10
7, 3
3, 7
3, 6
5, 12
3, 2
7, 10
8, 3
8, 12
11, 18
15, 20
19, 47
28, 67
39, 113
53, 150
63, 165
76, 166
65, 158
47, 164
51, 99
32, 84
36, 59
28, 37
35, 35
28, 33
31, 24
23, 15
19, 13
22, 14
10, 11
7, 9
8, 3
7, 6
7, 4
7, 1
6, 6
6, 0
7, 1
10, 4
8, 3
5, 2
5, 3
0, 7
5, 2
6, 3
4, 1
4, 5
1, 4
3, 0
5, 4
4, 4
4, 5
10, 7
8, 12
6, 21
13, 15
17, 19
14, 22
16, 24
19, 26
18, 21
12, 14
17, 6
11, 13
6, 3
9, 6
7, 6
5, 8
10, 15
4, 12
4, 12
3, 9
6, 5
7, 7
5, 6
14, 8
16, 10
27, 5
22, 8
33, 13
37, 5
45, 6
49, 5
35, 7
28, 6
33, 6
22, 5
9, 8
10, 9
11, 9
13, 22
12, 12
14, 20
11, 19
16, 22
18, 21
22, 21
25, 15
17, 19
20, 15
23, 14
29, 12
37, 12
41, 16
57, 7
55, 10
76, 12
77, 9
80, 5
67, 6
53, 8
44, 6
24, 7
28, 8
21, 9
13, 12
11, 5
12, 11
8, 8
10, 5
10, 4
9, 5
8, 6
10, 8
21, 6
10, 9
15, 13
10, 8
19, 15
22, 17
26, 22
19, 32
24, 30
27, 16
19, 19
18, 21
16, 15
14, 17
7, 12
16, 16
10, 12
16, 8
18, 12
15, 11
7, 12
15, 16
26, 25
21, 36
51, 43
47, 59
72, 66
70, 73
72, 57
70, 51
48, 53
51, 47
39, 46
29, 29
24, 33
22, 27
31, 31
20, 36
38, 39
45, 55
78, 83
172, 171
275, 388
519, 609
714, 931
1155, 1294
1597, 1749
1939, 2219
2279, 2455
2485, 2477
2395, 2262
2017, 1957
1775, 1529
1344, 1109
894, 721
576, 434
337, 270
194, 143
88, 66
68, 34
27, 27
25, 19
21, 27
26, 18
18, 21
20, 23
23, 23
18, 31
46, 38
51, 61
83, 81
125, 137
145, 189
213, 234
299, 310
333, 371
344, 363
349, 348
364, 328
289, 284
205, 231
183, 159
129, 82
93, 65
50, 41
28, 24
18, 11
9, 11
9, 7
14, 8
12, 12
12, 8
14, 7
20, 14
20, 14
16, 14
18, 16
13, 15
8, 13
15, 5
6, 11
7, 5
4, 7
6, 4
2, 9
7, 5
3, 5
2, 5
4, 3
5, 9
5, 5
10, 6
4, 9
7, 5
16, 5
15, 6
16, 3
21, 9
19, 9
23, 5
20, 8
18, 7
15, 5
19, 4
17, 4
16, 6
10, 8
8, 6
6, 10
7, 5
2, 7
10, 7
3, 13
7, 9
3, 5
2, 5
9, 5
5, 4
7, 8
3, 4
2, 8
7, 9
2, 5
11, 7
4, 5
6, 3
5, 4
7, 6
5, 4
4, 3
9, 7
7, 4
1, 3
4, 3
2, 7
3, 4
5, 9
5, 1
13, 6
6, 6
9, 6
4, 4
3, 7
6, 3
10, 4
7, 5
5, 4
5, 1
6, 0
2, 6
10, 4
6, 7
3, 3
2, 10
4, 9
3, 3
4, 6
4, 9
2, 8
4, 6
2, 7
4, 6
3, 6
3, 8
8, 3
5, 3
8, 2
6, 1
2, 3
6, 5
6, 6
6, 4
3, 9
4, 5
1, 4
5, 1
4, 4
2, 3
3, 5
7, 1
1, 2
3, 1
3, 3
2, 1
11, 2
4, 4
2, 6
7, 2
4, 1
1, 7
1, 5
4, 3
2, 3
1, 8
8, 6
3, 8
8, 5
9, 4
7, 6
12, 3
4, 4
8, 8
7, 7
5, 5
5, 2
4, 5
1, 5
1, 3
3, 2
5, 1
2, 2
4, 6
2, 0
1, 2
2, 3
1, 1
3, 0
2, 3
1, 1
4, 4
1, 1
1, 8
3, 2
5, 2
2, 1
3, 1
4, 3
2, 2
4, 1
4, 2
2, 4
2, 4
2, 3
4, 1
3, 2
1, 5
2, 2
1, 4
6, 6
2, 3
0, 0
3, 4
2, 0
2, 6
5, 2
7, 6
2, 3
3, 0
0, 1
3, 5
1, 3
1, 0
3, 0
1, 2
4, 1
4, 5
3, 2
1, 2
3, 1
2, 2
1, 2
1, 3
3, 0
2, 1
1, 3
0, 4
4, 4
4, 4
2, 2
3, 1
2, 2
4, 2
2, 2
1, 0
0, 1
1, 1
0, 2
2, 3
3, 4
4, 5
4, 3
1, 1
1, 4
0, 1
1, 1
1, 2
1, 2
2, 4
1, 1
1, 4
1, 2
0, 1
3, 4
0, 1
3, 4
5, 1
6, 3
7, 1
4, 5
2, 1
1, 7
2, 7
4, 4
2, 9
4, 2
1, 5
4, 0
4, 0
2, 3
2, 2
0, 0
1, 2
3, 2
1, 0
0, 0
3, 3
2, 4
0, 0
0, 3
1, 0
2, 1
4, 2
2, 6
3, 4
1, 2
1, 0
2, 3
2, 1
4, 2
1, 2
2, 2
1, 0
3, 1
3, 2
3, 2
2, 2
2, 1
3, 0
0, 0
1, 0
1, 0
1, 5
1, 2
2, 1
1, 0
2, 2
3, 0
1, 0
1, 1
2, 3
3, 1
1, 3
1, 1
0, 0
3, 1
0, 0
2, 3
0, 1
2, 1
2, 0
3, 1
0, 1
1, 0
2, 0
0, 0
2, 2
0, 0
2, 2
1, 0
1, 0
0, 1
2, 1
1, 0
0, 0
0, 2
1, 0
0, 1
0, 0
0, 1
1, 0
0, 4
0, 0
2, 1
0, 1
2, 2
3, 2
1, 0
0, 0
0, 1
0, 1
1, 1
1, 0
1, 0
2, 1
2, 1
2, 2
0, 0
1, 0
0, 0
1, 1
0, 0
0, 0
0, 1
0, 0
2, 1
1, 0
0, 0
0, 1
2, 0
0, 1
1, 0
1, 0
1, 1
1, 0
1, 1
0, 0
0, 1
1, 0
0, 0
0, 1
3, 0
0, 1
0, 0
0, 1
0, 0
0, 0
0, 1
1, 1
0, 0
1, 0
0, 1
0, 0
3, 0
0, 2
0, 0
0, 0
0, 0
0, 2
2, 2
0, 0
0, 2
2, 0
1, 1
0, 1
0, 0
0, 0
2, 0
0, 1
1, 0
0, 0
0, 1
0, 0
0, 2
0, 0
1, 1
0, 1
0, 0
0, 1
0, 1
1, 0
1, 0
0, 0
1, 0
0, 0
0, 1
1, 0
0, 0
0, 1
0, 0
0, 1
2, 0
0, 0
0, 2
1, 0
0, 1
0, 0
1, 0
0, 0
0, 0
0, 0
0, 0
1, 0
0, 0
1, 0
2, 0
1, 0
0, 1
0, 1
0, 0
0, 1
0, 0
1, 0
0, 0
0, 0
0, 0
0, 0
1, 1
0, 0
0, 0
0, 0
1, 0
0, 1
0, 0
0, 0
1, 1
0, 1
0, 0
0, 0
0, 1
0, 0
1, 0
1, 0
1, 0
0, 0
0, 0
0, 0
0, 1
0, 0
0, 1
0, 1
0, 0
0, 0
1, 1
0, 1
0, 1
1, 0
0, 1
1, 1
0, 0
0, 0
1, 0
0, 1
0, 0
1, 0
0, 0
1, 1
0, 0
0, 1
0, 0
0, 0
0, 1
0, 0
0, 0
0, 0
1, 0
0, 0
0, 1
0, 0
0, 0
0, 0
0, 0
0, 0
1, 0
1, 0
0, 0
0, 0
0, 0
0, 0
0, 1
0, 1
0, 0
3, 0
0, 0
1, 0
0, 0
0, 0
0, 1
0, 1
0, 0
0, 0
0, 0
0, 0
0, 0
0, 0
0, 0
0, 0
1, 0
0, 2
0, 1
0, 0
0, 0
0, 0
0, 0
0, 0
0, 0
0, 1
0, 1
0, 0
1, 0
0, 0
0, 0
0, 0
0, 0
0, 1
0, 0
0, 0
0, 0
0, 0
0, 0
0, 0
1, 0
0, 0
0, 0
0, 0
0, 1
0, 0
0, 0
0, 1
0, 0
0, 0
0, 0
0, 0
0, 0
1, 0
0, 0
0, 0
0, 0
0, 0
0, 0
0, 0
0, 0
0, 0
0, 0
0, 0
0, 0
0, 0
0, 0
0, 0
0, 0
0, 0
0, 0
0, 0
0, 0
0, 0
0, 0
0, 0
0, 0
0, 0
0, 0
0, 0
0, 0
0, 0
0, 0
0, 0
0, 0
0, 0
0, 0
0, 0
0, 0
0, 0
0, 0
0, 0
0, 0
0, 0
0, 0
0, 0
1, 0
0, 0
0, 0
0, 0
0, 0
0, 0
0, 0
0, 0
0, 0
0, 0
0, 0
0, 0
0, 0
0, 0
0, 0
0, 0
0, 0
0, 0
0, 0
0, 0
0, 1
0, 0
0, 0
0, 0
0, 0
1, 0
1, 0
0, 0
0, 0
1, 0
0, 0
0, 0
0, 0
0, 0
0, 0
0, 0
1, 0
0, 0
0, 0
0, 0
0, 0
0, 0
0, 0
0, 0
0, 0
0, 1
0, 0
0, 0
0, 0
0, 0
0, 0
0, 0
0, 0
0, 0
0, 0
0, 0
0, 0
0, 0
0, 0
0, 0
0, 0
0, 0
0, 0
1, 0
0, 0
0, 0
0, 0
0, 0
0, 0
0, 1
0, 0
0, 0
1, 0
0, 0
0, 0
0, 0
0, 0
0, 0
0, 0
0, 0
0, 0
0, 0
0, 0
0, 0
0, 0
0, 0
0, 0
0, 0
0, 0
0, 0
0, 0
0, 1
0, 0
0, 0
0, 0
0, 0
0, 0
0, 0
0, 0
0, 0
0, 0
0, 0
0, 0
0, 0
0, 0
0, 0
0, 0
0, 0
0, 0
0, 0
0, 0
0, 0
0, 0
0, 0
0, 0
0, 0
0, 0
0, 0
0, 0
0, 0
0, 0
0, 0
0, 0
0, 0
0, 0
0, 0
0, 0
0, 0
0, 0
0, 0
0, 0
0, 0
0, 0
0, 0
0, 0
0, 0
0, 0
0, 0
0, 0
0, 0
0, 0
0, 0
0, 0
0, 0
0, 0
0, 0
0, 0
0, 0
0, 0
0, 0
0, 0
0, 0
0, 0
0, 0
0, 0
0, 0
0, 0
0, 0
0, 0
0, 0
0, 0
0, 0
0, 0
0, 0
0, 0
0, 0
0, 0
0, 0
0, 0
0, 0
0, 0
0, 0
0, 0
0, 0
0, 0
0, 0
0, 0
0, 0
0, 0
0, 0
0, 0
0, 1
0, 0
0, 0
0, 0
0, 0
0, 0
0, 0
0, 0
0, 0
0, 0
0, 0
0, 0
0, 0
0, 0
0, 0
0, 0
0, 0
0, 0
0, 0
0, 0
0, 0
0, 0
0, 0
0, 0
0, 0
0, 0
0, 0
0, 0
0, 0
0, 0
0, 0
0, 0
0, 0
0, 0
0, 0
0, 0
0, 0
0, 0
0, 0
0, 0
0, 0
0, 0
0, 0
0, 0
0, 0
0, 0
0, 0
0, 0
0, 0
0, 0
0, 0
0, 0
0, 0
0, 0
0, 0
0, 0
0, 0
0, 0
0, 0
0, 0
0, 0
0, 0
0, 0
0, 0
0, 0
0, 0
0, 0
0, 0
0, 0
0, 0
0, 0
0, 0
0, 0
0, 0
0, 0
0, 0
0, 0
0, 0
0, 0
0, 0
0, 0
0, 0
0, 0
0, 0
0, 0
0, 0
0, 0
0, 0
0, 0
0, 0
0, 0
0, 0
0, 0
0, 0
0, 0
0, 0
0, 0
0, 0
0, 0
0, 0
0, 0
0, 0
0, 0
0, 0
0, 0
0, 0
0, 0
0, 0
0, 0
0, 0
0, 0
0, 0
0, 0
0, 0
0, 0
0, 0
0, 0
0, 0
0, 0
0, 0
0, 0
0, 0
0, 0
0, 0
0, 0
0, 0
0, 0
0, 0
0, 0
0, 0
0, 0
0, 0
0, 0
0, 0
0, 0
0, 0
0, 0
0, 0
0, 0
0, 0
0, 0
0, 0
0, 0
0, 0
0, 0
0, 0
0, 0
0, 0
0, 0
0, 0
0, 0
0, 0
0, 0
0, 0
0, 0
0, 0
0, 0
0, 0
0, 0
0, 0
0, 0
0, 0
0, 0
0, 0
0, 0
0, 0
0, 0
0, 0
0, 0
0, 0
0, 0
0, 0
0, 0
0, 0
0, 0
0, 0
0, 0
0, 0
0, 0
0, 0
0, 0
0, 0
0, 0
0, 0
0, 0
0, 0
0, 0
0, 0
0, 0
0, 0
0, 0
0, 0
0, 0
0, 0
0, 0
0, 0
0, 0
0, 0
0, 0
0, 0
0, 0
0, 0
0, 0
0, 0
0, 0
0, 0
0, 0
0, 0
0, 0
0, 0
0, 0
0, 0
0, 0
0, 0
0, 0
0, 0
0, 0
0, 0
0, 0
0, 0
0, 0
0, 0
0, 0
0, 0
0, 0
0, 0
0, 0
0, 0
0, 0
0, 0
0, 0
0, 0
0, 0
0, 0
0, 0
0, 0
0, 0
0, 0
0, 0
0, 0
0, 0
0, 0
0, 0
0, 0
0, 0
0, 0
0, 0
0, 0
0, 0
0, 0
0, 0
0, 0
0, 0
0, 0
0, 0
0, 0
0, 0
0, 0
0, 0
0, 0
0, 0
0, 0
0, 0
0, 0
0, 0
0, 0
0, 0
0, 0
0, 0
0, 0
0, 0
0, 0
0, 0
0, 0
0, 0
0, 0
0, 0
0, 0
0, 0
0, 0
0, 0
0, 0
0, 0
0, 0
0, 0
0, 0
#ENDOFDATA     end of spectrum data