File: host_upload/06-09-2024/ps_0852/dump3/ps__0852shot_2063.msa
#FORMAT      : EMSA/MAS spectral data file
#VERSION     : TC202v2.0 PIXL
#TITLE       : N/A
#DATE        :       Date in the format DD-MMM-YYYY, for example 07-JUL-2010
#TIME        :             The time of day at which the spectrum was recorded, in 24-hour format
#OWNER       : PIXL Flight Model       (PIXL will use this to indicate which instrument took the data.)
#NPOINTS     : 4096     Number of data points in the spectrum (This can be zero for configuration only files)
#NCOLUMNS    : 2     Number of data columns in the spectrum (This can be zero for configuration only files)
#XUNITS      : eV
#YUNITS      : COUNTS
#DATATYPE    : YY
#XPERCHAN    : 7.862, 7.881   eV per channel (separate by commas if more than one detector)
#OFFSET      : 18.5, -22.4         eV of first channel  (separate by commas if more than one detector
#SIGNALTYPE  : XRF
#YP_TEMP     : 2.428
#LIVETIME    : 8.54833, 8.56402   seconds (separate by commas if more than one detector)
#REALTIME    : 10, 10.0   seconds (separate by commas if more than one detector)
#SPECTRUM    : start of spectrum data
0, 0
0, 0
0, 0
0, 0
0, 0
0, 0
0, 0
0, 0
0, 0
0, 0
0, 0
0, 0
0, 0
0, 0
0, 0
0, 0
0, 0
0, 0
0, 0
0, 0
0, 0
0, 0
0, 0
0, 0
0, 0
0, 0
0, 0
0, 0
0, 0
0, 0
0, 0
0, 0
0, 0
0, 1
0, 0
0, 0
0, 0
0, 0
0, 2
0, 0
1, 0
2, 2
1, 0
2, 0
1, 1
0, 1
0, 5
2, 0
5, 2
16, 16
24, 18
35, 40
55, 69
88, 71
79, 71
76, 95
69, 61
39, 39
29, 27
15, 14
9, 6
6, 3
6, 3
1, 4
3, 4
3, 2
4, 3
9, 8
21, 18
46, 40
85, 96
153, 173
271, 275
348, 338
424, 408
449, 428
395, 349
267, 287
202, 176
143, 122
71, 68
37, 28
25, 19
9, 3
4, 4
4, 2
2, 3
1, 1
3, 1
3, 0
2, 1
0, 1
2, 0
0, 1
1, 3
4, 3
5, 1
3, 4
3, 2
4, 12
8, 8
6, 3
4, 3
3, 5
4, 1
5, 6
4, 4
5, 2
10, 4
9, 12
22, 10
16, 14
18, 19
24, 21
28, 22
30, 22
25, 24
21, 17
33, 26
21, 16
9, 30
16, 11
16, 19
8, 13
17, 8
18, 8
12, 12
7, 10
5, 11
7, 2
4, 2
7, 4
6, 4
3, 0
2, 1
0, 2
1, 2
0, 1
3, 1
1, 3
1, 1
1, 2
1, 0
3, 4
1, 1
4, 0
3, 0
2, 2
1, 5
6, 1
2, 1
2, 4
4, 4
7, 11
18, 8
10, 9
9, 12
14, 16
11, 24
14, 10
6, 11
7, 11
4, 1
10, 1
1, 4
3, 6
2, 1
0, 3
4, 3
4, 3
4, 6
5, 2
9, 4
4, 1
6, 7
10, 4
13, 6
11, 1
16, 1
13, 3
9, 5
7, 5
4, 6
8, 3
6, 1
8, 4
9, 5
4, 2
5, 7
2, 8
4, 3
14, 12
7, 4
6, 13
7, 10
12, 11
9, 13
7, 12
22, 13
9, 13
9, 13
10, 9
9, 9
7, 8
11, 9
9, 6
15, 2
22, 5
32, 7
34, 8
54, 6
50, 4
67, 2
74, 4
64, 3
52, 3
53, 3
34, 3
25, 3
23, 6
10, 5
10, 10
7, 8
5, 9
11, 31
6, 37
6, 43
9, 50
10, 62
9, 73
11, 75
14, 89
5, 61
13, 60
10, 32
7, 29
7, 18
7, 12
6, 11
7, 8
11, 5
8, 7
8, 10
11, 19
11, 14
17, 23
22, 34
49, 42
51, 60
61, 54
53, 57
84, 54
62, 64
57, 56
50, 47
37, 32
27, 17
30, 16
12, 9
15, 22
16, 24
30, 30
49, 57
104, 85
149, 190
255, 364
479, 583
798, 927
1147, 1282
1491, 1743
1891, 2105
2225, 2389
2313, 2494
2331, 2398
2104, 2004
1685, 1594
1334, 1208
916, 804
607, 529
364, 309
245, 199
114, 96
79, 57
26, 44
23, 21
14, 18
14, 16
23, 14
14, 16
14, 17
25, 28
35, 39
40, 54
58, 99
112, 128
135, 188
187, 243
222, 321
271, 339
321, 357
378, 368
366, 346
286, 234
226, 217
183, 165
146, 101
87, 70
55, 51
32, 26
16, 10
13, 12
12, 10
17, 7
22, 9
32, 9
35, 9
33, 14
54, 13
61, 13
62, 15
65, 5
54, 17
57, 13
44, 8
38, 6
26, 10
17, 4
21, 2
7, 9
8, 1
6, 3
5, 2
5, 2
7, 1
2, 2
4, 4
2, 0
2, 2
2, 3
2, 4
3, 7
1, 4
1, 4
5, 1
4, 6
8, 5
5, 8
10, 9
7, 3
12, 4
3, 3
3, 3
10, 8
8, 4
3, 2
4, 4
3, 7
5, 2
1, 5
4, 3
1, 3
3, 5
4, 5
2, 4
5, 1
3, 4
4, 2
3, 3
2, 2
6, 9
7, 4
4, 6
3, 8
3, 6
2, 8
2, 6
3, 7
6, 5
6, 4
2, 2
1, 2
8, 0
0, 1
10, 3
4, 3
3, 4
1, 3
8, 2
6, 0
9, 2
5, 1
4, 6
8, 4
6, 4
8, 3
5, 3
6, 1
4, 2
8, 4
5, 1
9, 2
1, 2
5, 1
4, 0
2, 5
0, 3
4, 1
3, 3
0, 3
3, 1
2, 8
4, 9
0, 5
4, 3
3, 4
2, 3
2, 4
2, 3
1, 2
2, 6
5, 1
8, 3
11, 2
7, 4
8, 3
9, 3
6, 1
3, 0
5, 2
3, 4
4, 7
4, 3
3, 3
0, 2
5, 3
5, 3
3, 2
0, 3
7, 1
3, 3
2, 2
3, 1
3, 1
3, 6
3, 0
2, 1
4, 3
0, 4
1, 3
2, 3
2, 2
2, 4
3, 4
3, 2
1, 3
0, 6
3, 5
1, 5
4, 1
3, 4
1, 5
0, 8
2, 6
3, 4
4, 4
4, 2
5, 4
1, 3
4, 0
2, 0
4, 0
1, 2
2, 5
2, 3
1, 2
1, 1
1, 2
0, 2
1, 2
3, 3
1, 3
4, 0
3, 2
4, 1
1, 1
0, 1
2, 1
3, 1
4, 1
4, 2
1, 0
1, 2
1, 1
0, 1
2, 1
4, 3
1, 3
0, 0
3, 2
0, 2
1, 2
1, 1
2, 1
0, 2
3, 4
3, 4
5, 4
4, 1
2, 0
3, 3
3, 3
1, 1
0, 0
3, 1
1, 1
3, 0
2, 0
4, 3
3, 2
2, 4
1, 1
3, 0
2, 0
1, 3
0, 3
3, 4
3, 1
3, 2
0, 0
2, 2
4, 1
0, 4
5, 2
0, 0
3, 5
2, 4
5, 3
3, 4
3, 5
3, 3
5, 4
4, 5
1, 10
5, 4
4, 4
5, 6
4, 7
2, 8
3, 5
2, 2
2, 3
1, 3
0, 2
1, 6
1, 3
1, 1
0, 1
2, 0
0, 4
1, 2
5, 0
0, 2
2, 3
2, 1
2, 1
0, 2
0, 3
2, 2
2, 4
3, 2
1, 1
3, 1
1, 3
1, 3
1, 0
1, 1
0, 1
1, 1
2, 2
4, 1
4, 2
0, 0
1, 3
1, 0
1, 1
3, 0
2, 0
1, 1
1, 1
1, 0
2, 0
0, 2
0, 0
0, 0
1, 3
0, 0
1, 1
1, 0
2, 4
0, 2
0, 2
0, 1
0, 1
1, 2
3, 1
1, 0
0, 1
1, 2
0, 0
0, 0
1, 1
0, 1
1, 0
1, 0
1, 0
0, 1
0, 1
2, 1
2, 0
0, 1
2, 2
0, 1
0, 0
1, 0
0, 0
2, 0
2, 2
0, 1
1, 1
0, 1
0, 1
1, 0
1, 0
3, 1
0, 1
2, 1
2, 2
0, 1
2, 2
1, 1
2, 2
0, 2
0, 0
2, 1
0, 2
0, 1
1, 0
1, 0
1, 0
2, 1
0, 1
1, 3
1, 0
1, 1
1, 3
1, 1
0, 0
1, 0
1, 0
2, 0
0, 0
2, 0
0, 0
0, 0
0, 0
0, 1
0, 1
0, 0
1, 1
0, 0
1, 1
2, 0
0, 1
2, 0
0, 1
1, 2
0, 0
1, 1
3, 0
1, 0
0, 0
1, 0
1, 0
1, 0
1, 2
0, 0
1, 1
0, 0
0, 1
1, 0
0, 0
0, 1
1, 0
0, 0
0, 2
1, 0
1, 0
0, 1
1, 2
0, 0
1, 0
0, 0
0, 1
0, 0
0, 1
0, 0
0, 0
0, 0
1, 0
0, 0
0, 0
0, 0
0, 0
0, 0
0, 0
1, 0
0, 0
0, 0
0, 1
0, 0
0, 2
0, 1
0, 1
0, 0
1, 0
0, 2
0, 0
0, 0
0, 0
0, 0
0, 0
0, 0
0, 0
0, 0
0, 0
1, 0
1, 1
0, 0
1, 0
1, 0
1, 0
1, 0
1, 0
0, 0
0, 0
0, 0
0, 1
1, 0
0, 0
0, 2
0, 0
0, 0
1, 0
0, 0
1, 0
0, 0
1, 0
0, 1
0, 0
0, 0
0, 0
0, 0
0, 0
0, 0
0, 0
0, 0
0, 0
0, 0
0, 0
0, 0
0, 0
0, 0
1, 0
1, 1
0, 0
0, 0
2, 0
1, 0
0, 1
0, 0
0, 0
0, 0
1, 1
0, 0
0, 1
0, 0
0, 0
1, 1
0, 0
1, 1
1, 1
0, 0
1, 1
0, 0
0, 0
0, 0
0, 0
0, 0
0, 0
0, 1
0, 0
0, 1
0, 0
0, 1
0, 0
0, 0
0, 1
0, 0
0, 0
0, 1
0, 0
1, 0
0, 0
0, 0
1, 0
0, 0
1, 0
0, 1
0, 0
1, 0
0, 1
0, 0
0, 0
0, 0
1, 0
0, 1
0, 1
0, 0
0, 0
0, 0
0, 0
0, 0
0, 0
0, 2
0, 3
1, 1
0, 0
0, 0
0, 0
0, 0
0, 0
0, 0
0, 0
0, 0
1, 0
0, 0
1, 1
1, 1
1, 0
0, 0
1, 0
1, 0
0, 0
0, 1
0, 0
0, 0
1, 0
0, 0
0, 0
0, 0
0, 0
0, 0
0, 0
0, 0
0, 0
0, 0
0, 0
1, 0
0, 0
1, 0
0, 1
0, 0
0, 0
0, 0
0, 0
0, 0
0, 0
0, 0
0, 0
0, 0
0, 0
0, 0
0, 0
0, 0
0, 0
0, 0
0, 0
1, 0
0, 0
0, 0
0, 0
0, 0
0, 0
0, 0
0, 0
0, 0
0, 0
0, 0
0, 0
0, 0
0, 0
0, 0
0, 0
0, 0
0, 0
0, 0
0, 0
1, 1
0, 0
1, 0
0, 0
0, 0
0, 0
0, 0
0, 0
0, 0
0, 0
0, 0
0, 0
0, 0
0, 0
0, 0
0, 0
0, 0
0, 0
0, 0
0, 0
1, 0
0, 0
0, 0
0, 0
0, 0
0, 0
0, 0
0, 0
0, 1
1, 0
0, 0
0, 0
0, 0
0, 0
0, 0
0, 0
0, 0
0, 0
0, 0
0, 0
0, 0
0, 0
0, 0
0, 0
0, 0
0, 0
2, 0
0, 0
0, 0
0, 0
0, 0
0, 0
0, 0
0, 0
0, 0
0, 0
0, 0
0, 0
0, 0
0, 0
0, 0
0, 0
0, 0
0, 0
1, 0
0, 0
0, 0
0, 0
0, 0
0, 0
0, 0
0, 0
0, 0
0, 0
1, 0
0, 0
0, 0
0, 0
0, 1
0, 0
0, 0
0, 0
0, 0
0, 0
0, 0
0, 0
0, 0
0, 0
0, 0
0, 0
0, 0
0, 0
0, 0
0, 0
0, 0
0, 0
0, 0
0, 0
0, 0
0, 0
0, 0
0, 0
0, 0
0, 0
0, 0
0, 0
0, 0
0, 0
0, 0
0, 0
0, 0
0, 0
0, 0
0, 0
0, 0
0, 0
0, 0
0, 0
0, 0
0, 0
0, 0
0, 0
0, 0
0, 0
0, 0
0, 0
0, 0
0, 0
0, 0
0, 0
0, 0
0, 0
0, 0
0, 0
0, 0
0, 0
0, 0
0, 0
0, 0
0, 0
0, 0
0, 0
0, 0
0, 0
0, 0
0, 0
0, 0
0, 0
0, 0
0, 0
0, 0
0, 0
0, 0
0, 0
0, 0
0, 0
0, 0
0, 0
0, 0
0, 0
0, 0
0, 0
0, 0
0, 0
0, 0
0, 0
0, 0
0, 0
0, 0
0, 0
0, 0
0, 0
0, 0
0, 0
0, 0
0, 0
0, 0
0, 0
0, 0
0, 0
0, 0
0, 0
0, 0
0, 0
0, 0
0, 0
0, 0
0, 0
0, 0
0, 0
0, 0
0, 0
0, 0
0, 0
0, 0
0, 0
0, 0
0, 0
0, 0
0, 0
0, 0
0, 0
0, 0
0, 0
0, 0
0, 0
0, 0
0, 0
0, 0
0, 0
0, 0
0, 0
0, 0
0, 0
0, 0
0, 0
0, 0
0, 0
0, 0
0, 0
0, 0
0, 0
0, 0
0, 0
0, 0
0, 0
0, 0
0, 0
0, 0
0, 0
0, 0
0, 0
0, 0
0, 0
0, 0
0, 0
0, 0
0, 0
0, 0
0, 0
0, 0
0, 0
0, 0
0, 0
0, 0
0, 0
0, 0
0, 0
0, 0
0, 0
0, 0
0, 0
0, 0
0, 0
0, 0
0, 0
0, 0
0, 0
0, 0
0, 0
0, 0
0, 0
0, 0
0, 0
0, 0
0, 0
0, 0
0, 0
0, 0
0, 0
0, 0
0, 0
0, 0
0, 0
0, 0
0, 0
0, 0
0, 0
0, 0
0, 0
0, 0
0, 0
0, 0
0, 0
0, 0
0, 0
0, 0
0, 0
0, 0
0, 0
0, 0
0, 0
0, 0
0, 0
0, 0
0, 0
0, 0
0, 0
0, 0
0, 0
0, 0
0, 0
0, 0
0, 0
0, 0
0, 0
0, 0
0, 0
0, 0
0, 0
0, 0
0, 0
0, 0
0, 0
0, 0
0, 0
0, 0
0, 0
0, 0
0, 0
0, 0
0, 0
0, 0
0, 0
0, 0
0, 0
0, 0
0, 0
0, 0
0, 0
0, 0
0, 0
0, 0
0, 0
0, 0
0, 0
0, 0
0, 0
0, 0
0, 0
0, 0
0, 0
0, 0
0, 0
0, 0
0, 0
0, 0
0, 0
0, 0
0, 0
0, 0
0, 0
0, 0
0, 0
0, 0
0, 0
0, 0
0, 0
0, 0
0, 0
0, 0
0, 0
0, 0
0, 0
0, 0
0, 0
0, 0
0, 0
0, 0
0, 0
0, 0
0, 0
0, 0
0, 0
0, 0
0, 0
0, 0
0, 0
0, 0
0, 0
0, 0
0, 0
0, 0
0, 0
0, 0
0, 0
0, 0
0, 0
0, 0
0, 0
0, 0
0, 0
0, 0
0, 0
0, 0
0, 0
0, 0
0, 0
0, 0
0, 0
0, 0
0, 0
0, 0
0, 0
0, 0
0, 0
0, 0
0, 0
0, 0
0, 0
0, 0
0, 0
0, 0
0, 0
0, 0
0, 0
0, 0
0, 0
0, 0
0, 0
0, 0
0, 0
0, 0
0, 0
0, 0
0, 0
0, 0
0, 0
0, 0
0, 0
0, 0
0, 0
0, 0
0, 0
0, 0
0, 0
0, 0
0, 0
0, 0
0, 0
0, 0
0, 0
0, 0
0, 0
0, 0
0, 0
0, 0
0, 0
0, 0
0, 0
0, 0
0, 0
0, 0
0, 0
0, 0
0, 0
0, 0
0, 0
0, 0
#ENDOFDATA     end of spectrum data