File: host_upload/06-09-2024/ps_0852/dump3/ps__0852shot_2421.msa
#FORMAT      : EMSA/MAS spectral data file
#VERSION     : TC202v2.0 PIXL
#TITLE       : N/A
#DATE        :       Date in the format DD-MMM-YYYY, for example 07-JUL-2010
#TIME        :             The time of day at which the spectrum was recorded, in 24-hour format
#OWNER       : PIXL Flight Model       (PIXL will use this to indicate which instrument took the data.)
#NPOINTS     : 4096     Number of data points in the spectrum (This can be zero for configuration only files)
#NCOLUMNS    : 2     Number of data columns in the spectrum (This can be zero for configuration only files)
#XUNITS      : eV
#YUNITS      : COUNTS
#DATATYPE    : YY
#XPERCHAN    : 7.862, 7.881   eV per channel (separate by commas if more than one detector)
#OFFSET      : 18.5, -22.4         eV of first channel  (separate by commas if more than one detector
#SIGNALTYPE  : XRF
#YP_TEMP     : 2.364
#LIVETIME    : 8.52198, 8.34663   seconds (separate by commas if more than one detector)
#REALTIME    : 10, 10.0   seconds (separate by commas if more than one detector)
#SPECTRUM    : start of spectrum data
0, 0
0, 0
0, 0
0, 0
0, 0
0, 0
0, 0
0, 0
0, 0
0, 0
0, 0
0, 0
0, 0
0, 0
0, 0
0, 0
0, 0
0, 0
0, 0
0, 0
0, 0
0, 0
0, 0
0, 0
0, 0
0, 0
0, 0
0, 0
0, 0
0, 0
0, 0
0, 0
0, 0
0, 0
0, 0
0, 0
0, 0
0, 0
2, 1
0, 2
0, 2
1, 1
0, 1
1, 0
3, 0
3, 1
2, 2
3, 4
8, 4
10, 9
21, 24
41, 39
64, 59
81, 80
75, 80
85, 65
60, 61
45, 47
25, 26
11, 15
10, 4
7, 7
5, 7
5, 8
8, 8
8, 6
12, 8
9, 22
22, 20
47, 49
80, 104
176, 182
274, 315
370, 413
446, 467
468, 429
398, 423
314, 308
209, 211
153, 102
75, 66
44, 39
16, 24
11, 14
7, 9
10, 4
12, 6
9, 9
10, 9
5, 3
6, 4
5, 2
6, 2
1, 2
1, 1
2, 5
6, 3
6, 7
6, 4
5, 5
9, 3
7, 4
1, 3
3, 3
3, 7
3, 5
8, 14
16, 13
15, 21
30, 30
49, 42
44, 52
55, 67
50, 71
37, 60
54, 72
46, 59
33, 44
32, 31
39, 35
30, 25
22, 24
28, 21
18, 19
18, 16
20, 14
10, 14
11, 12
17, 6
3, 5
9, 5
1, 7
9, 3
3, 3
2, 2
2, 1
4, 8
4, 6
2, 2
7, 8
7, 4
5, 13
5, 5
6, 4
6, 7
3, 2
5, 2
6, 3
2, 2
4, 1
7, 3
5, 4
12, 7
13, 16
25, 18
21, 27
21, 19
32, 33
25, 26
25, 14
15, 14
13, 11
14, 9
7, 5
9, 3
3, 2
3, 5
2, 4
5, 6
3, 4
5, 8
4, 7
3, 8
8, 8
6, 6
7, 7
10, 13
4, 9
4, 8
6, 1
1, 5
2, 3
6, 2
2, 2
4, 6
5, 1
7, 8
5, 8
4, 6
10, 15
17, 18
23, 13
33, 15
37, 18
61, 14
78, 14
89, 17
110, 9
111, 11
107, 15
107, 4
86, 8
94, 9
92, 4
71, 6
68, 6
57, 6
40, 7
29, 7
23, 7
12, 10
9, 9
11, 9
8, 9
6, 4
5, 6
11, 4
9, 4
5, 5
4, 3
13, 5
6, 8
4, 7
5, 10
5, 8
8, 8
9, 16
10, 10
13, 16
13, 7
14, 17
13, 15
21, 19
24, 17
32, 16
23, 9
21, 14
27, 7
15, 15
12, 9
11, 8
10, 7
9, 7
11, 15
13, 12
20, 23
32, 29
34, 38
49, 39
49, 44
49, 58
61, 68
52, 69
54, 51
39, 35
32, 35
35, 22
24, 22
27, 15
25, 16
27, 36
35, 46
56, 63
92, 143
144, 212
279, 370
439, 579
759, 936
1090, 1352
1483, 1668
1908, 2267
2280, 2488
2346, 2445
2364, 2201
2000, 1964
1742, 1497
1261, 1108
841, 693
581, 431
344, 234
187, 115
129, 60
72, 32
27, 25
19, 30
29, 13
12, 10
15, 15
22, 16
13, 32
23, 39
38, 38
38, 48
57, 92
95, 134
133, 183
178, 221
243, 261
285, 316
326, 375
355, 323
315, 331
298, 272
240, 221
180, 136
142, 106
80, 77
62, 35
28, 21
17, 11
11, 4
11, 5
9, 10
9, 10
17, 8
13, 8
20, 15
13, 14
14, 8
17, 13
14, 7
19, 11
9, 7
9, 2
6, 2
7, 1
8, 3
7, 5
3, 2
2, 5
1, 4
3, 4
1, 2
3, 3
9, 3
4, 5
3, 2
4, 4
5, 9
5, 7
6, 8
5, 14
5, 8
8, 13
4, 5
5, 11
7, 10
3, 10
5, 6
4, 17
4, 18
5, 13
6, 11
7, 10
2, 11
4, 12
2, 12
3, 4
5, 4
4, 4
7, 6
3, 8
7, 2
5, 3
4, 3
7, 6
3, 2
6, 2
6, 3
4, 5
7, 5
4, 4
5, 5
3, 10
7, 6
6, 10
9, 6
10, 7
9, 16
10, 11
12, 8
14, 8
14, 11
14, 7
16, 8
22, 8
20, 6
12, 6
18, 2
12, 6
8, 5
18, 5
15, 4
12, 2
8, 3
14, 3
7, 4
8, 0
7, 6
9, 3
9, 1
3, 3
6, 5
10, 0
3, 3
6, 3
7, 3
4, 1
5, 1
5, 4
7, 5
6, 6
3, 4
5, 9
6, 4
3, 1
8, 2
1, 4
5, 6
3, 1
4, 4
2, 2
4, 1
3, 2
6, 3
6, 1
4, 6
5, 3
5, 2
0, 4
2, 3
2, 4
2, 2
1, 0
5, 2
4, 2
2, 4
3, 3
5, 2
3, 1
1, 2
2, 4
0, 4
1, 5
0, 5
2, 2
1, 6
3, 3
2, 2
3, 4
2, 3
0, 3
2, 3
3, 3
0, 0
2, 0
4, 2
1, 4
3, 4
4, 2
4, 3
1, 6
4, 1
2, 0
8, 4
4, 4
7, 3
5, 2
2, 10
10, 1
9, 0
4, 2
8, 3
3, 1
4, 3
1, 4
1, 1
4, 1
1, 1
2, 2
2, 4
4, 5
3, 4
2, 5
3, 5
1, 3
2, 3
0, 4
1, 2
1, 5
1, 3
5, 3
0, 2
1, 5
1, 1
2, 3
4, 2
3, 1
2, 1
1, 1
4, 3
0, 3
2, 4
3, 4
0, 2
1, 1
3, 2
1, 3
2, 1
0, 0
0, 2
3, 3
0, 3
2, 2
3, 3
4, 2
1, 0
1, 2
4, 2
1, 3
1, 3
2, 2
1, 2
3, 5
1, 3
1, 4
1, 5
3, 7
1, 2
0, 3
1, 5
2, 2
3, 3
3, 1
4, 2
3, 1
0, 1
6, 3
3, 3
7, 3
2, 3
1, 6
3, 3
1, 1
5, 5
0, 2
8, 0
1, 5
2, 0
4, 2
3, 1
4, 2
2, 2
0, 4
2, 1
1, 1
1, 2
0, 0
0, 2
2, 0
1, 0
1, 2
0, 3
1, 4
0, 2
3, 3
2, 2
1, 1
2, 3
2, 0
2, 6
1, 2
3, 0
4, 3
0, 1
0, 3
3, 1
3, 0
1, 1
0, 2
2, 0
1, 1
0, 0
1, 0
0, 1
0, 1
0, 0
3, 0
0, 2
1, 1
1, 1
1, 0
1, 2
0, 0
0, 1
1, 1
1, 1
0, 0
2, 1
0, 1
0, 0
0, 0
0, 0
4, 1
1, 0
0, 1
1, 1
1, 4
1, 1
1, 1
1, 0
0, 0
0, 2
0, 1
2, 1
4, 1
1, 1
1, 0
1, 1
2, 1
1, 1
1, 1
3, 2
0, 1
1, 1
1, 0
1, 1
1, 0
0, 0
2, 1
0, 0
0, 1
1, 2
0, 1
0, 2
3, 0
1, 1
2, 1
2, 2
0, 4
1, 0
0, 1
1, 0
1, 1
1, 1
1, 0
0, 0
1, 1
0, 1
0, 0
0, 1
0, 0
2, 1
1, 3
0, 1
0, 0
0, 0
1, 1
1, 0
3, 1
1, 0
1, 0
3, 2
0, 0
0, 2
0, 1
0, 0
1, 1
0, 0
0, 0
1, 1
0, 1
3, 0
0, 0
1, 0
0, 0
0, 0
3, 1
2, 0
0, 0
0, 0
0, 2
0, 2
1, 0
0, 1
1, 0
0, 0
0, 0
2, 1
0, 0
1, 0
1, 1
0, 0
0, 1
1, 0
0, 2
1, 0
0, 0
0, 2
0, 1
0, 0
0, 0
1, 1
0, 1
1, 1
0, 0
1, 0
0, 1
0, 0
0, 0
1, 0
0, 0
0, 0
0, 0
0, 0
0, 0
0, 0
0, 0
0, 0
1, 1
0, 0
1, 1
0, 0
1, 0
1, 0
0, 0
0, 0
1, 0
0, 0
0, 1
0, 0
1, 0
0, 0
0, 0
0, 2
0, 1
0, 2
0, 0
0, 0
1, 0
0, 0
1, 0
0, 1
1, 0
0, 1
0, 0
2, 0
0, 0
0, 0
0, 0
1, 2
0, 0
0, 0
0, 0
0, 0
0, 2
0, 0
0, 1
0, 0
1, 0
0, 0
0, 0
0, 1
0, 0
0, 0
0, 1
0, 0
0, 0
0, 0
0, 1
0, 0
0, 0
0, 0
0, 1
0, 0
0, 0
1, 0
0, 1
0, 0
0, 0
0, 0
0, 0
0, 0
2, 0
0, 0
1, 0
0, 0
0, 1
0, 0
1, 1
1, 2
1, 1
0, 0
0, 1
0, 1
0, 0
0, 0
1, 0
0, 0
0, 0
0, 1
0, 0
1, 1
0, 0
0, 0
0, 1
1, 2
0, 1
0, 0
1, 0
0, 0
1, 0
0, 0
0, 0
1, 0
0, 0
0, 0
0, 0
1, 1
0, 1
0, 0
0, 0
0, 0
0, 0
0, 0
0, 0
0, 0
0, 0
0, 0
0, 0
0, 0
1, 0
0, 0
0, 0
0, 1
0, 0
0, 0
0, 0
0, 0
0, 0
0, 0
0, 0
0, 0
0, 0
0, 0
0, 1
0, 0
0, 0
0, 0
0, 0
0, 2
0, 1
0, 0
0, 0
0, 0
0, 0
0, 1
0, 0
0, 0
0, 0
0, 0
0, 0
0, 0
0, 0
1, 0
0, 0
0, 0
0, 0
0, 0
0, 0
0, 0
0, 0
0, 0
0, 0
0, 0
0, 0
0, 0
0, 0
0, 0
0, 0
0, 0
0, 0
0, 0
0, 0
0, 0
0, 0
0, 0
0, 0
0, 0
0, 0
0, 0
0, 0
0, 0
0, 0
0, 0
0, 0
0, 0
1, 0
0, 0
0, 0
0, 0
0, 0
0, 1
0, 0
0, 0
1, 0
0, 0
0, 0
0, 0
0, 0
0, 0
0, 0
0, 0
0, 0
0, 0
0, 0
0, 0
0, 0
0, 0
0, 0
0, 0
0, 0
0, 0
0, 0
0, 0
0, 1
0, 0
0, 0
0, 0
0, 0
0, 0
0, 0
0, 0
0, 0
0, 0
0, 0
0, 0
0, 0
0, 0
0, 0
0, 0
0, 0
0, 0
0, 0
0, 0
0, 0
0, 0
0, 0
0, 0
0, 0
0, 0
0, 0
0, 0
0, 0
0, 0
0, 0
0, 0
0, 0
0, 0
0, 1
0, 0
0, 0
0, 0
0, 0
0, 0
0, 0
0, 0
0, 0
0, 0
0, 0
0, 0
0, 0
0, 0
0, 0
1, 0
0, 0
0, 0
0, 0
0, 0
0, 0
0, 0
1, 0
0, 1
0, 0
0, 0
0, 0
0, 0
0, 0
0, 0
0, 0
0, 0
0, 0
0, 0
0, 0
0, 0
0, 0
0, 0
0, 0
0, 0
0, 0
0, 0
0, 0
0, 0
0, 0
0, 0
0, 0
0, 0
0, 1
0, 0
0, 0
0, 0
0, 0
0, 0
0, 0
0, 0
0, 0
0, 0
0, 0
0, 0
0, 0
0, 0
0, 0
0, 0
0, 0
0, 0
0, 0
0, 0
0, 0
0, 0
0, 0
0, 0
0, 0
0, 0
0, 0
0, 0
0, 0
0, 0
0, 0
0, 0
0, 0
0, 0
0, 0
0, 0
0, 0
0, 0
0, 0
0, 0
0, 0
0, 0
0, 0
0, 0
0, 0
0, 0
0, 0
0, 0
0, 0
0, 0
0, 0
0, 0
0, 0
0, 0
0, 0
0, 0
0, 0
0, 0
0, 0
0, 0
0, 0
0, 0
0, 0
0, 0
0, 0
0, 0
0, 0
0, 0
0, 0
0, 0
0, 0
0, 0
0, 0
0, 0
0, 0
0, 0
0, 0
0, 0
0, 0
0, 0
0, 0
0, 0
0, 0
0, 0
0, 0
0, 0
0, 0
0, 0
0, 0
0, 0
0, 0
0, 0
0, 0
0, 0
0, 0
0, 0
0, 0
0, 0
0, 0
0, 0
0, 0
0, 0
0, 0
0, 0
0, 0
0, 0
0, 0
0, 0
0, 0
0, 0
0, 0
0, 0
0, 0
0, 0
0, 0
0, 0
0, 0
0, 0
0, 0
0, 0
0, 0
0, 0
0, 0
0, 0
0, 0
0, 0
0, 0
0, 0
0, 0
0, 0
0, 0
0, 0
0, 0
0, 0
0, 0
0, 0
0, 0
0, 0
0, 0
0, 0
0, 0
0, 0
0, 0
0, 0
0, 0
0, 0
0, 0
0, 0
0, 0
0, 0
0, 0
0, 0
0, 0
0, 0
0, 0
0, 0
0, 0
0, 0
0, 0
0, 0
0, 0
0, 0
0, 0
0, 0
0, 0
0, 0
0, 0
0, 0
0, 0
0, 0
0, 0
0, 0
0, 0
0, 0
0, 0
0, 0
0, 0
0, 0
0, 0
0, 0
0, 0
0, 0
0, 0
0, 0
0, 0
0, 0
0, 0
0, 0
0, 0
0, 0
0, 0
0, 0
0, 0
0, 0
0, 0
0, 0
0, 0
0, 0
0, 0
0, 0
0, 0
0, 0
0, 0
0, 0
0, 0
0, 0
0, 0
0, 0
0, 0
0, 0
0, 0
0, 0
0, 0
0, 0
0, 0
0, 0
0, 0
0, 0
0, 0
0, 0
0, 0
0, 0
0, 0
0, 0
0, 0
0, 0
0, 0
0, 0
0, 0
0, 0
0, 0
0, 0
0, 0
0, 0
0, 0
0, 0
0, 0
0, 0
0, 0
0, 0
0, 0
0, 0
0, 0
0, 0
0, 0
0, 0
0, 0
0, 0
0, 0
0, 0
0, 0
0, 0
0, 0
0, 0
0, 0
0, 0
0, 0
0, 0
0, 0
0, 0
0, 0
0, 0
0, 0
0, 0
0, 0
0, 0
0, 0
0, 0
0, 0
0, 0
0, 0
0, 0
0, 0
0, 0
0, 0
0, 0
0, 0
0, 0
0, 0
0, 0
0, 0
0, 0
0, 0
0, 0
0, 0
0, 0
0, 0
0, 0
0, 0
0, 0
0, 0
0, 0
0, 0
0, 0
0, 0
0, 0
0, 0
0, 0
0, 0
0, 0
0, 0
0, 0
0, 0
0, 0
0, 0
0, 0
0, 0
0, 0
0, 0
0, 0
0, 0
0, 0
0, 0
0, 0
0, 0
0, 0
0, 0
0, 0
0, 0
0, 0
0, 0
0, 0
0, 0
0, 0
0, 0
0, 0
0, 0
0, 0
0, 0
0, 0
0, 0
0, 0
0, 0
0, 0
0, 0
0, 0
0, 0
0, 0
0, 0
0, 0
0, 0
0, 0
0, 0
0, 0
0, 0
0, 0
0, 0
0, 0
0, 0
0, 0
0, 0
0, 0
0, 0
0, 0
0, 0
0, 0
0, 0
0, 0
0, 0
#ENDOFDATA     end of spectrum data