File: host_upload/06-09-2024/ps_0852/dump3/ps__0852shot_2356.msa
#FORMAT      : EMSA/MAS spectral data file
#VERSION     : TC202v2.0 PIXL
#TITLE       : N/A
#DATE        :       Date in the format DD-MMM-YYYY, for example 07-JUL-2010
#TIME        :             The time of day at which the spectrum was recorded, in 24-hour format
#OWNER       : PIXL Flight Model       (PIXL will use this to indicate which instrument took the data.)
#NPOINTS     : 4096     Number of data points in the spectrum (This can be zero for configuration only files)
#NCOLUMNS    : 2     Number of data columns in the spectrum (This can be zero for configuration only files)
#XUNITS      : eV
#YUNITS      : COUNTS
#DATATYPE    : YY
#XPERCHAN    : 7.862, 7.881   eV per channel (separate by commas if more than one detector)
#OFFSET      : 18.5, -22.4         eV of first channel  (separate by commas if more than one detector
#SIGNALTYPE  : XRF
#YP_TEMP     : 2.62
#LIVETIME    : 8.5558, 8.56158   seconds (separate by commas if more than one detector)
#REALTIME    : 10, 10.0   seconds (separate by commas if more than one detector)
#SPECTRUM    : start of spectrum data
0, 0
0, 0
0, 0
0, 0
0, 0
0, 0
0, 0
0, 0
0, 0
0, 0
0, 0
0, 0
0, 0
0, 0
0, 0
0, 0
0, 0
0, 0
0, 0
0, 0
0, 0
0, 0
0, 0
0, 0
0, 0
0, 0
0, 0
0, 0
0, 0
0, 0
0, 0
0, 0
0, 0
0, 0
0, 0
0, 1
0, 2
0, 0
2, 0
0, 0
0, 0
2, 0
2, 0
2, 0
2, 0
1, 2
3, 2
2, 1
5, 6
10, 8
24, 19
49, 28
57, 53
67, 49
86, 63
81, 66
57, 46
34, 43
21, 20
7, 10
9, 5
4, 2
4, 3
6, 1
5, 4
1, 2
6, 5
10, 15
25, 24
53, 37
102, 87
178, 164
288, 247
373, 361
475, 380
468, 383
433, 363
331, 261
219, 164
164, 109
66, 57
38, 30
24, 16
11, 10
5, 3
3, 3
1, 5
0, 0
0, 0
1, 1
0, 1
0, 1
3, 2
2, 2
10, 3
8, 7
6, 9
11, 6
13, 15
17, 16
15, 6
8, 13
13, 7
10, 4
6, 2
4, 5
11, 12
11, 3
9, 11
20, 11
21, 18
26, 26
42, 31
50, 34
49, 43
49, 51
43, 47
36, 33
24, 36
25, 30
23, 22
12, 23
17, 19
24, 17
11, 17
15, 7
18, 15
13, 15
9, 5
7, 13
10, 6
1, 3
2, 3
1, 4
2, 3
3, 3
2, 2
2, 5
2, 6
3, 4
1, 3
1, 4
1, 5
2, 5
2, 4
2, 1
0, 1
0, 3
1, 5
1, 2
2, 6
5, 0
7, 2
6, 4
11, 8
7, 7
16, 9
17, 15
16, 13
16, 8
16, 4
6, 5
4, 6
10, 4
3, 5
7, 6
5, 10
6, 6
4, 4
10, 5
5, 9
5, 7
6, 8
5, 5
4, 3
8, 6
10, 7
5, 11
6, 7
5, 7
4, 4
3, 9
3, 7
1, 7
4, 6
1, 4
5, 6
4, 4
1, 3
7, 3
7, 10
9, 6
10, 12
10, 10
11, 7
17, 9
16, 11
11, 9
22, 15
17, 21
14, 20
12, 18
12, 13
8, 18
10, 24
8, 18
11, 15
10, 18
10, 17
10, 20
6, 15
12, 8
4, 7
3, 5
7, 4
6, 4
3, 3
6, 4
10, 6
6, 4
7, 5
5, 10
6, 6
8, 7
14, 5
12, 9
11, 11
20, 8
18, 10
12, 9
18, 15
10, 11
20, 8
18, 9
14, 13
11, 7
15, 3
6, 7
6, 2
9, 8
12, 11
9, 9
10, 15
9, 14
10, 4
27, 23
26, 36
36, 34
42, 49
55, 39
59, 53
61, 52
64, 64
58, 57
50, 43
48, 44
24, 53
29, 60
32, 90
33, 107
34, 140
50, 141
89, 171
106, 220
206, 306
330, 395
490, 620
832, 921
1251, 1260
1604, 1705
2028, 2023
2355, 2220
2510, 2226
2450, 2071
2094, 1762
1790, 1449
1339, 1017
987, 677
607, 386
344, 248
217, 120
116, 67
51, 36
28, 14
15, 12
21, 17
10, 9
16, 15
17, 20
23, 19
27, 28
35, 36
47, 54
79, 77
103, 130
158, 163
187, 216
260, 264
328, 327
366, 340
379, 329
332, 320
317, 269
272, 206
193, 186
153, 86
106, 55
72, 42
39, 21
43, 13
35, 12
26, 5
24, 7
22, 8
20, 11
18, 12
19, 17
15, 17
12, 14
15, 20
11, 10
8, 11
13, 7
5, 11
14, 3
4, 2
4, 4
6, 7
7, 5
1, 6
11, 6
5, 3
1, 4
5, 2
5, 6
6, 7
3, 6
4, 3
6, 3
7, 2
7, 8
3, 6
1, 8
8, 8
6, 8
7, 10
8, 6
11, 3
5, 5
8, 6
7, 3
10, 3
9, 5
13, 3
14, 2
11, 5
9, 4
10, 2
13, 4
10, 4
21, 5
13, 3
13, 8
7, 2
8, 4
9, 2
9, 3
9, 7
6, 3
5, 2
5, 2
6, 2
7, 2
6, 4
8, 2
10, 4
5, 2
6, 2
4, 2
2, 1
7, 3
3, 4
7, 3
1, 2
2, 1
1, 6
1, 7
4, 3
1, 2
4, 3
1, 1
7, 3
4, 4
5, 4
5, 6
2, 3
7, 4
7, 3
6, 5
1, 6
5, 4
4, 2
3, 7
4, 3
1, 4
3, 0
5, 5
6, 1
5, 3
5, 3
8, 1
7, 5
4, 5
3, 6
0, 5
4, 2
2, 1
2, 4
4, 4
6, 4
5, 4
2, 4
3, 3
5, 2
3, 1
5, 2
5, 1
4, 3
1, 7
2, 5
3, 5
4, 3
4, 5
1, 4
3, 4
2, 6
3, 5
3, 5
2, 4
2, 3
3, 4
2, 7
4, 6
4, 3
3, 0
6, 4
4, 3
2, 2
3, 2
4, 4
3, 2
2, 2
2, 4
2, 5
5, 3
2, 0
1, 5
3, 3
3, 2
3, 5
4, 6
4, 2
1, 6
4, 2
7, 6
6, 2
3, 4
5, 1
4, 2
5, 1
2, 0
6, 5
5, 1
6, 2
5, 3
1, 2
5, 2
4, 5
3, 1
6, 1
1, 3
0, 3
5, 3
5, 4
1, 0
3, 4
4, 1
2, 2
2, 1
1, 3
1, 4
2, 3
3, 1
2, 3
4, 0
1, 3
1, 4
0, 1
3, 1
1, 2
3, 1
0, 3
0, 0
3, 5
2, 1
4, 2
1, 4
4, 2
2, 1
3, 2
0, 2
3, 2
1, 1
1, 4
3, 1
2, 4
1, 1
1, 1
1, 3
4, 1
3, 2
3, 0
5, 2
2, 1
4, 3
1, 4
2, 2
1, 0
3, 0
5, 0
1, 1
1, 6
1, 2
1, 2
5, 5
1, 2
2, 2
4, 3
2, 2
2, 1
3, 3
4, 2
5, 3
6, 5
5, 3
3, 0
6, 4
4, 0
3, 1
0, 2
2, 2
3, 3
2, 2
1, 0
3, 4
1, 2
1, 2
0, 3
2, 2
3, 0
2, 0
2, 1
3, 3
1, 0
3, 3
6, 3
2, 0
2, 2
2, 1
2, 0
3, 4
3, 2
4, 2
1, 0
5, 1
1, 1
4, 3
0, 0
1, 1
0, 2
3, 0
1, 3
2, 1
1, 0
2, 0
2, 1
1, 3
2, 2
1, 0
1, 2
0, 0
3, 0
2, 2
0, 0
0, 1
1, 0
0, 0
1, 0
2, 2
2, 1
2, 0
3, 1
1, 1
1, 1
0, 0
2, 1
3, 0
1, 1
2, 1
1, 1
0, 2
0, 2
1, 0
0, 3
0, 0
1, 1
0, 0
1, 1
0, 0
1, 1
0, 0
0, 1
2, 0
0, 0
2, 0
2, 0
1, 1
0, 0
2, 0
1, 0
1, 0
3, 0
1, 0
0, 1
0, 1
0, 0
0, 1
0, 1
0, 0
0, 1
0, 0
1, 0
0, 2
0, 0
1, 0
0, 1
1, 1
1, 0
0, 0
0, 1
0, 1
1, 0
1, 1
1, 2
0, 1
0, 0
0, 2
1, 0
0, 1
0, 0
1, 1
0, 1
1, 1
1, 0
0, 2
1, 0
1, 0
0, 0
1, 1
0, 0
1, 0
1, 0
2, 1
0, 2
0, 0
0, 2
0, 0
0, 1
2, 0
1, 1
0, 0
0, 2
0, 0
0, 0
0, 0
0, 0
2, 0
0, 0
1, 0
0, 0
0, 0
0, 0
1, 1
1, 0
0, 1
1, 1
2, 0
0, 1
0, 1
0, 1
0, 1
1, 0
1, 0
0, 0
0, 0
0, 1
0, 0
1, 1
2, 1
1, 2
1, 0
0, 1
0, 1
0, 0
0, 0
0, 0
0, 0
1, 0
2, 0
2, 0
0, 0
0, 0
0, 0
0, 1
1, 0
1, 0
0, 1
1, 0
1, 1
0, 0
0, 0
0, 1
1, 0
0, 0
0, 0
0, 0
2, 0
0, 0
0, 0
1, 0
0, 0
2, 0
1, 1
0, 0
0, 0
1, 0
0, 2
0, 0
0, 1
0, 1
1, 0
0, 1
0, 0
0, 0
0, 2
0, 0
0, 1
1, 0
0, 0
0, 0
0, 0
0, 0
1, 1
0, 0
0, 0
0, 0
0, 0
0, 0
0, 0
0, 0
0, 1
0, 0
0, 1
0, 1
0, 0
0, 0
0, 0
0, 0
0, 0
0, 0
1, 0
0, 0
0, 2
0, 0
0, 1
0, 0
0, 0
0, 0
1, 1
1, 1
1, 1
0, 0
0, 1
0, 1
0, 2
0, 1
1, 0
1, 1
1, 0
1, 0
2, 0
0, 0
0, 0
0, 0
0, 0
1, 0
0, 0
1, 1
0, 0
1, 0
0, 0
0, 0
0, 0
1, 0
0, 0
1, 1
0, 0
0, 0
0, 0
1, 0
0, 0
0, 0
1, 1
0, 0
0, 0
0, 1
0, 0
0, 0
0, 0
0, 0
0, 0
0, 1
0, 0
0, 0
0, 1
0, 0
0, 0
0, 0
0, 0
0, 0
0, 0
0, 0
0, 0
0, 0
0, 0
0, 0
0, 0
0, 0
0, 0
0, 0
0, 0
0, 0
0, 0
1, 1
0, 1
1, 0
0, 0
1, 0
1, 0
0, 0
0, 0
0, 0
0, 0
0, 0
0, 0
0, 0
0, 0
0, 0
0, 0
0, 0
1, 0
0, 0
0, 0
0, 0
0, 0
0, 0
0, 0
0, 0
0, 0
0, 0
0, 0
0, 0
0, 0
0, 0
0, 0
2, 1
0, 0
0, 0
0, 0
0, 0
0, 0
0, 1
0, 0
0, 0
0, 2
0, 0
0, 0
0, 0
0, 0
0, 0
0, 0
0, 0
1, 0
0, 0
0, 0
0, 0
0, 0
0, 0
0, 1
0, 0
0, 0
0, 0
0, 0
0, 0
0, 0
0, 0
0, 0
0, 0
0, 0
0, 0
0, 0
0, 0
0, 0
0, 0
0, 0
0, 0
0, 0
0, 0
0, 0
0, 1
0, 0
0, 0
0, 0
0, 0
0, 0
0, 0
0, 0
0, 0
0, 1
0, 0
0, 0
0, 0
0, 0
0, 0
0, 0
0, 0
0, 0
0, 0
0, 0
0, 0
0, 0
0, 0
0, 0
0, 0
0, 0
0, 0
0, 0
0, 0
0, 0
0, 0
0, 0
0, 0
0, 0
0, 0
0, 0
0, 0
0, 0
0, 0
0, 0
0, 0
0, 0
0, 0
0, 0
0, 0
0, 0
0, 0
0, 0
0, 0
0, 0
0, 0
0, 0
0, 0
0, 0
0, 0
0, 0
0, 0
0, 0
0, 0
0, 0
0, 1
1, 0
0, 0
0, 0
1, 0
0, 0
0, 0
0, 0
0, 0
0, 0
0, 0
0, 0
0, 0
0, 0
0, 0
0, 0
0, 0
0, 0
0, 0
0, 0
0, 0
0, 0
0, 0
0, 0
0, 0
0, 0
0, 0
0, 0
0, 0
0, 0
0, 0
0, 0
0, 0
0, 0
0, 0
0, 0
0, 0
0, 0
0, 0
0, 0
0, 0
0, 0
0, 0
0, 0
0, 0
0, 0
0, 0
0, 0
0, 0
0, 0
0, 0
0, 0
0, 0
0, 0
0, 0
0, 0
1, 0
0, 0
0, 0
0, 0
0, 0
0, 0
0, 0
0, 0
0, 0
0, 0
0, 0
0, 0
0, 0
0, 0
0, 0
0, 0
0, 0
0, 0
0, 0
0, 0
0, 0
0, 0
0, 0
0, 0
0, 0
0, 0
0, 0
0, 0
0, 0
0, 0
0, 0
0, 0
0, 0
0, 0
0, 0
0, 0
0, 0
0, 0
0, 0
0, 0
0, 0
0, 0
0, 0
0, 0
0, 0
0, 0
0, 0
0, 0
0, 0
0, 0
0, 0
0, 0
0, 0
0, 0
0, 0
0, 0
0, 0
0, 0
0, 0
0, 0
0, 0
0, 0
0, 0
0, 0
0, 0
0, 0
0, 0
0, 0
0, 0
0, 0
0, 0
0, 0
0, 0
0, 0
0, 0
0, 0
0, 0
0, 0
0, 0
0, 0
0, 0
0, 0
0, 0
0, 0
0, 0
0, 0
0, 0
0, 0
0, 0
0, 0
0, 0
0, 0
0, 0
0, 0
0, 0
0, 0
0, 0
0, 0
0, 0
0, 0
0, 0
0, 0
0, 0
0, 0
0, 0
0, 0
0, 0
0, 0
0, 0
0, 0
0, 0
0, 0
0, 0
0, 0
0, 0
0, 0
0, 0
0, 0
0, 0
0, 0
0, 0
0, 0
0, 0
0, 0
0, 0
0, 0
0, 0
0, 0
0, 0
0, 0
0, 0
0, 0
0, 0
0, 0
0, 0
0, 0
0, 0
0, 0
0, 0
0, 0
0, 0
0, 0
0, 0
0, 0
0, 0
0, 0
0, 0
0, 0
0, 0
0, 0
0, 0
0, 0
0, 0
0, 0
0, 0
0, 0
0, 0
0, 0
0, 0
0, 0
0, 0
0, 0
0, 0
0, 0
0, 0
0, 0
0, 0
0, 0
0, 0
0, 0
0, 0
0, 0
0, 0
0, 0
0, 0
0, 0
0, 0
0, 0
0, 0
0, 0
0, 0
0, 0
0, 0
0, 0
0, 0
0, 0
0, 0
0, 0
0, 0
0, 0
0, 0
0, 0
0, 0
0, 0
0, 0
0, 0
0, 0
0, 0
0, 0
0, 0
0, 0
0, 0
0, 0
0, 0
0, 0
0, 0
0, 0
0, 0
0, 0
0, 0
0, 0
0, 0
0, 0
0, 0
0, 0
0, 0
0, 0
0, 0
0, 0
0, 0
0, 0
0, 0
0, 0
0, 0
0, 0
0, 0
0, 0
0, 0
0, 0
0, 0
0, 0
0, 0
0, 0
0, 0
0, 0
0, 0
0, 0
0, 0
0, 0
0, 0
0, 0
0, 0
0, 0
0, 0
0, 0
0, 0
0, 0
0, 0
0, 0
0, 0
0, 0
0, 0
0, 0
0, 0
0, 0
0, 0
0, 0
0, 0
0, 0
0, 0
0, 0
0, 0
0, 0
0, 0
0, 0
0, 0
0, 0
0, 0
0, 0
0, 0
0, 0
0, 0
0, 0
0, 0
0, 0
0, 0
0, 0
0, 0
0, 0
0, 0
0, 0
0, 0
0, 0
0, 0
0, 0
0, 0
0, 0
0, 0
0, 0
0, 0
0, 0
0, 0
0, 0
0, 0
0, 0
0, 0
0, 0
0, 0
0, 0
0, 0
0, 0
0, 0
0, 0
0, 0
0, 0
0, 0
0, 0
0, 0
0, 0
0, 0
0, 0
0, 0
0, 0
0, 0
0, 0
0, 0
0, 0
0, 0
0, 0
0, 0
0, 0
#ENDOFDATA     end of spectrum data