File: host_upload/06-09-2024/ps_0852/dump3/ps__0852shot_2258.msa
#FORMAT      : EMSA/MAS spectral data file
#VERSION     : TC202v2.0 PIXL
#TITLE       : N/A
#DATE        :       Date in the format DD-MMM-YYYY, for example 07-JUL-2010
#TIME        :             The time of day at which the spectrum was recorded, in 24-hour format
#OWNER       : PIXL Flight Model       (PIXL will use this to indicate which instrument took the data.)
#NPOINTS     : 4096     Number of data points in the spectrum (This can be zero for configuration only files)
#NCOLUMNS    : 2     Number of data columns in the spectrum (This can be zero for configuration only files)
#XUNITS      : eV
#YUNITS      : COUNTS
#DATATYPE    : YY
#XPERCHAN    : 7.862, 7.881   eV per channel (separate by commas if more than one detector)
#OFFSET      : 18.5, -22.4         eV of first channel  (separate by commas if more than one detector
#SIGNALTYPE  : XRF
#YP_TEMP     : 2.267
#LIVETIME    : 8.5591, 8.56514   seconds (separate by commas if more than one detector)
#REALTIME    : 10, 10.0   seconds (separate by commas if more than one detector)
#SPECTRUM    : start of spectrum data
0, 0
0, 0
0, 0
0, 0
0, 0
0, 0
0, 0
0, 0
0, 0
0, 0
0, 0
0, 0
0, 0
0, 0
0, 0
0, 0
0, 0
0, 0
0, 0
0, 0
0, 0
0, 0
0, 0
0, 0
0, 0
0, 0
0, 0
0, 0
0, 0
0, 0
0, 0
0, 0
0, 0
0, 0
0, 0
0, 0
0, 0
1, 2
1, 1
5, 0
4, 1
4, 0
6, 0
4, 0
5, 1
1, 3
3, 2
3, 3
6, 3
12, 14
15, 23
45, 41
71, 67
73, 80
90, 92
65, 89
63, 58
62, 55
32, 29
16, 18
12, 6
6, 4
5, 1
8, 2
3, 1
2, 4
5, 5
12, 13
24, 27
44, 44
90, 95
152, 163
256, 296
329, 384
376, 422
420, 431
347, 353
265, 285
170, 178
110, 126
75, 77
34, 40
19, 27
9, 10
12, 2
1, 2
0, 2
2, 1
1, 1
2, 2
3, 1
2, 2
2, 1
4, 0
4, 0
5, 3
7, 3
3, 6
3, 5
3, 7
6, 5
7, 4
5, 8
2, 2
6, 2
5, 7
7, 6
15, 11
33, 5
53, 12
92, 18
173, 18
274, 29
345, 50
428, 54
484, 49
459, 46
415, 52
275, 35
198, 30
125, 24
50, 29
45, 19
24, 16
16, 16
14, 15
16, 15
16, 15
12, 7
6, 11
1, 12
2, 2
6, 1
1, 2
1, 3
3, 3
4, 1
2, 3
2, 4
2, 3
1, 0
5, 3
1, 1
2, 2
4, 1
0, 0
2, 0
1, 1
2, 3
6, 5
3, 5
5, 5
7, 10
11, 13
26, 16
33, 28
33, 24
42, 25
17, 31
18, 22
15, 16
26, 12
9, 7
6, 5
7, 5
7, 9
2, 6
3, 4
12, 5
5, 4
19, 6
17, 8
25, 5
49, 7
50, 7
44, 3
58, 6
52, 4
39, 6
34, 2
22, 5
23, 4
14, 5
7, 3
6, 6
6, 6
3, 4
6, 6
6, 8
7, 8
6, 5
13, 13
9, 17
8, 10
10, 9
15, 21
13, 17
13, 24
15, 49
10, 60
13, 84
15, 99
20, 100
7, 122
8, 125
3, 94
4, 96
3, 67
9, 48
6, 31
9, 23
1, 14
5, 8
8, 9
4, 7
12, 2
7, 5
9, 4
5, 5
8, 4
8, 5
6, 6
4, 2
8, 10
7, 11
7, 11
12, 10
14, 15
13, 16
18, 17
27, 11
28, 18
24, 13
40, 9
45, 16
45, 8
42, 8
35, 11
31, 2
39, 11
33, 9
23, 8
17, 10
15, 21
20, 21
28, 16
28, 33
31, 39
37, 52
62, 56
60, 58
65, 53
54, 55
56, 59
61, 41
33, 33
27, 34
16, 34
13, 30
15, 35
21, 45
28, 67
38, 91
69, 162
135, 217
248, 431
448, 617
754, 1018
1094, 1420
1459, 1824
1877, 2251
2132, 2563
2340, 2623
2229, 2330
1957, 2046
1563, 1596
1262, 1153
875, 797
616, 514
369, 320
178, 193
103, 112
54, 56
38, 43
33, 32
25, 26
39, 15
48, 12
73, 31
74, 20
71, 29
116, 44
112, 63
124, 77
153, 137
213, 210
209, 245
257, 290
278, 364
368, 410
386, 374
339, 354
294, 284
234, 210
182, 135
146, 100
73, 57
47, 47
35, 23
9, 10
11, 10
7, 9
9, 7
4, 12
13, 11
12, 4
8, 11
10, 9
10, 14
12, 13
9, 7
9, 8
6, 4
6, 6
10, 4
2, 10
7, 9
4, 2
4, 2
8, 3
1, 2
8, 7
6, 4
3, 6
4, 5
3, 8
1, 14
3, 8
5, 9
1, 6
6, 8
8, 6
13, 6
12, 3
12, 4
21, 4
26, 3
32, 8
62, 5
62, 5
66, 6
79, 6
76, 7
51, 5
77, 4
53, 3
46, 3
39, 5
26, 5
18, 4
15, 1
11, 2
7, 6
4, 1
4, 7
4, 7
1, 4
5, 3
3, 6
1, 3
6, 7
1, 5
4, 5
4, 6
3, 3
7, 5
1, 2
3, 2
2, 3
3, 4
7, 4
0, 9
2, 2
7, 3
4, 4
2, 5
8, 6
2, 1
3, 3
3, 3
2, 2
6, 2
3, 5
2, 10
3, 2
2, 6
5, 7
2, 5
2, 2
3, 5
2, 8
1, 8
2, 4
2, 13
4, 9
2, 9
3, 8
2, 6
4, 7
2, 7
3, 8
4, 4
1, 4
2, 4
3, 8
0, 2
1, 8
4, 4
2, 6
2, 6
6, 8
3, 5
3, 5
1, 2
1, 6
5, 4
3, 2
3, 5
2, 1
1, 4
3, 5
2, 2
2, 2
6, 6
4, 2
4, 4
5, 4
2, 5
5, 4
5, 2
3, 0
2, 0
1, 3
0, 4
6, 4
2, 1
6, 5
1, 3
1, 4
4, 3
3, 3
4, 2
3, 3
1, 4
1, 2
4, 4
2, 4
2, 2
2, 4
1, 1
2, 2
4, 3
1, 5
4, 6
5, 5
7, 1
3, 3
10, 6
7, 8
5, 5
4, 0
7, 5
2, 5
4, 3
3, 2
5, 1
2, 1
8, 3
5, 2
4, 4
2, 2
2, 4
2, 3
2, 6
2, 1
2, 1
3, 0
1, 2
1, 3
2, 3
1, 7
2, 2
4, 1
1, 1
1, 2
2, 4
3, 1
0, 1
3, 3
1, 2
2, 2
1, 4
2, 1
1, 4
0, 0
1, 1
1, 2
1, 0
3, 2
3, 2
0, 2
3, 1
2, 2
0, 1
2, 2
3, 0
3, 3
4, 0
3, 3
1, 3
1, 1
2, 3
3, 5
2, 5
0, 2
5, 1
1, 1
4, 1
4, 1
1, 0
2, 2
1, 1
5, 0
4, 0
1, 5
5, 2
4, 5
2, 4
4, 3
5, 3
1, 3
7, 4
3, 3
3, 2
6, 5
4, 6
2, 3
3, 1
2, 1
0, 1
0, 4
4, 2
3, 3
1, 5
0, 2
0, 1
1, 5
2, 2
0, 1
3, 4
0, 1
2, 1
2, 3
5, 4
3, 1
3, 0
3, 5
2, 1
0, 1
3, 5
3, 1
2, 1
2, 2
1, 4
1, 1
1, 0
2, 0
0, 0
0, 1
0, 2
1, 1
1, 0
3, 1
0, 2
1, 2
0, 1
1, 0
2, 0
2, 1
3, 0
0, 1
3, 1
2, 0
1, 0
0, 2
2, 3
3, 0
0, 1
2, 0
1, 0
0, 0
1, 1
2, 2
3, 0
0, 2
0, 0
2, 0
0, 2
1, 2
0, 1
0, 1
1, 0
0, 1
0, 1
1, 2
0, 1
1, 0
0, 2
0, 2
0, 1
0, 0
0, 3
0, 1
1, 0
2, 1
0, 2
0, 1
2, 0
0, 1
1, 1
0, 0
0, 1
1, 0
1, 2
2, 0
2, 0
0, 2
2, 0
0, 1
1, 1
3, 1
1, 0
0, 1
1, 3
1, 1
1, 0
0, 1
0, 1
1, 1
0, 1
2, 2
2, 0
0, 2
0, 0
1, 1
0, 0
0, 0
0, 0
0, 2
2, 1
1, 1
0, 1
0, 0
1, 0
1, 0
0, 1
1, 1
0, 1
0, 0
0, 0
0, 1
1, 0
0, 0
1, 0
0, 0
1, 1
1, 1
0, 1
0, 0
1, 0
0, 0
1, 1
0, 0
0, 0
0, 1
1, 0
0, 1
0, 1
0, 0
1, 1
0, 0
0, 2
0, 1
0, 0
1, 1
0, 2
1, 0
2, 0
0, 0
1, 0
0, 0
0, 1
1, 1
1, 0
0, 2
0, 0
0, 0
0, 0
0, 0
0, 0
0, 0
0, 0
0, 0
0, 0
0, 0
1, 1
1, 0
0, 0
1, 0
0, 1
0, 0
0, 0
1, 0
0, 1
0, 0
0, 0
0, 0
1, 0
0, 0
0, 0
0, 0
2, 0
1, 0
0, 0
0, 1
0, 0
0, 0
1, 0
1, 0
2, 0
0, 0
0, 1
0, 1
0, 0
0, 0
0, 1
0, 0
0, 0
0, 0
0, 0
0, 0
0, 0
1, 0
0, 0
0, 1
0, 2
0, 0
0, 1
0, 0
0, 0
1, 0
0, 0
0, 0
1, 0
0, 0
0, 0
0, 0
1, 0
0, 0
0, 2
0, 0
0, 0
0, 1
0, 0
1, 0
1, 0
0, 1
0, 1
0, 0
0, 0
0, 0
0, 0
0, 1
0, 1
0, 0
0, 0
0, 1
1, 1
0, 0
0, 1
0, 0
0, 0
1, 2
1, 0
1, 0
0, 0
1, 1
0, 1
0, 0
1, 0
0, 1
1, 0
0, 0
0, 0
0, 0
0, 0
0, 0
0, 0
0, 1
0, 0
0, 1
1, 0
1, 0
0, 1
0, 0
0, 0
1, 1
0, 0
1, 0
0, 0
0, 0
0, 1
0, 0
0, 1
0, 0
0, 0
0, 0
0, 0
0, 1
1, 0
0, 0
0, 0
0, 0
0, 0
0, 0
1, 0
0, 0
0, 0
0, 0
0, 0
1, 0
0, 0
0, 0
0, 0
0, 0
0, 0
0, 0
0, 0
0, 0
1, 0
0, 0
1, 0
0, 0
0, 1
1, 0
0, 0
0, 0
0, 0
0, 0
0, 1
0, 0
1, 0
0, 0
0, 1
0, 0
0, 0
0, 0
0, 0
0, 0
0, 0
0, 0
0, 0
0, 0
0, 0
0, 0
0, 0
0, 0
0, 1
0, 0
0, 1
0, 0
0, 0
0, 0
0, 0
0, 0
0, 0
0, 0
0, 0
0, 1
0, 0
0, 0
0, 1
0, 1
0, 0
0, 0
0, 0
0, 0
0, 0
0, 0
0, 0
0, 1
0, 1
0, 0
0, 0
0, 0
0, 0
0, 0
0, 0
0, 0
0, 0
0, 0
0, 0
0, 0
0, 0
0, 0
0, 0
0, 0
0, 0
0, 0
0, 0
0, 0
0, 0
0, 0
0, 0
0, 0
0, 0
0, 0
0, 0
0, 0
0, 0
0, 0
0, 0
0, 0
0, 0
0, 0
0, 0
0, 0
0, 0
0, 0
0, 0
0, 0
0, 0
0, 0
0, 0
0, 0
0, 0
0, 0
0, 0
0, 0
0, 0
0, 0
0, 0
0, 0
0, 1
0, 0
0, 0
0, 0
0, 0
0, 0
0, 0
0, 0
0, 0
0, 0
1, 0
0, 0
0, 0
0, 0
0, 0
0, 0
0, 0
0, 0
0, 0
0, 0
0, 0
0, 0
0, 0
0, 0
0, 1
0, 0
0, 0
0, 0
0, 0
0, 0
0, 0
0, 0
0, 0
0, 0
0, 0
0, 0
0, 0
0, 0
0, 0
0, 0
0, 0
1, 0
0, 0
0, 0
0, 0
0, 0
0, 0
0, 0
0, 0
0, 0
0, 0
0, 0
0, 0
0, 0
0, 0
0, 0
0, 0
0, 0
0, 0
0, 0
0, 0
1, 0
0, 0
0, 0
0, 0
0, 0
0, 0
0, 0
0, 0
0, 0
0, 0
0, 0
0, 0
0, 0
0, 0
0, 1
0, 0
0, 0
0, 0
0, 0
0, 0
0, 0
0, 0
0, 0
0, 0
0, 0
0, 0
0, 0
0, 0
0, 0
0, 0
0, 0
0, 0
0, 0
0, 0
0, 0
0, 0
0, 0
0, 0
0, 0
0, 0
0, 0
0, 0
0, 0
0, 0
0, 0
0, 0
0, 0
0, 0
0, 0
0, 0
0, 0
0, 0
0, 0
0, 0
0, 0
0, 0
0, 0
0, 0
0, 0
0, 0
0, 0
0, 0
0, 0
0, 0
0, 0
0, 0
0, 0
0, 0
0, 0
0, 0
0, 0
0, 0
0, 0
0, 0
0, 0
0, 0
0, 0
0, 0
0, 0
0, 0
0, 0
0, 0
0, 0
0, 0
0, 0
0, 0
0, 0
0, 0
0, 0
0, 0
0, 0
0, 0
0, 0
0, 0
0, 0
0, 0
0, 0
0, 0
0, 0
1, 0
0, 0
0, 0
0, 0
0, 0
0, 0
0, 0
0, 0
0, 0
0, 0
0, 0
0, 0
0, 0
0, 0
0, 0
0, 0
0, 0
0, 0
0, 0
0, 0
0, 0
0, 0
0, 0
0, 0
0, 0
0, 0
0, 0
0, 0
0, 0
0, 0
0, 0
0, 0
0, 0
0, 0
0, 0
0, 0
0, 0
0, 0
0, 0
0, 0
0, 0
0, 0
0, 0
0, 0
0, 0
0, 0
0, 0
0, 0
0, 0
0, 0
0, 0
0, 0
0, 0
0, 0
0, 0
0, 0
0, 0
0, 0
0, 0
0, 0
0, 0
0, 0
0, 0
0, 0
0, 0
0, 0
0, 0
0, 0
0, 0
0, 0
0, 0
0, 0
0, 0
0, 0
0, 0
0, 0
0, 0
0, 0
0, 0
0, 0
0, 0
0, 0
0, 0
0, 0
0, 0
0, 0
0, 0
0, 0
0, 0
0, 0
0, 0
0, 0
0, 0
0, 0
0, 0
0, 0
0, 0
0, 0
0, 0
0, 0
0, 0
0, 0
0, 0
0, 0
0, 0
0, 0
0, 0
0, 0
0, 0
0, 0
0, 0
0, 0
0, 0
0, 0
0, 0
0, 0
0, 0
0, 0
0, 0
0, 0
0, 0
0, 0
0, 0
0, 0
0, 0
0, 0
0, 0
0, 0
0, 0
0, 0
0, 0
0, 0
0, 0
0, 0
0, 0
0, 0
0, 0
0, 0
0, 0
0, 0
0, 0
0, 0
0, 0
0, 0
0, 0
0, 0
0, 0
0, 0
0, 0
0, 0
0, 0
0, 0
0, 0
0, 0
0, 0
0, 0
0, 0
0, 0
0, 0
0, 0
0, 0
0, 0
0, 0
0, 0
0, 0
0, 0
0, 0
0, 0
0, 0
0, 0
0, 0
0, 0
0, 0
0, 0
0, 0
0, 0
0, 0
0, 0
0, 0
0, 0
0, 0
0, 0
0, 0
0, 0
0, 0
0, 0
0, 0
0, 0
0, 0
0, 0
0, 0
0, 0
0, 0
0, 0
0, 0
0, 0
0, 0
0, 0
0, 0
0, 0
0, 0
0, 0
0, 0
0, 0
0, 0
0, 0
0, 0
0, 0
0, 0
0, 0
0, 0
0, 0
0, 0
0, 0
0, 0
0, 0
0, 0
0, 0
0, 0
0, 0
0, 0
0, 0
0, 0
0, 0
0, 0
0, 0
0, 0
0, 0
0, 0
0, 0
0, 0
0, 0
0, 0
0, 0
0, 0
0, 0
0, 0
0, 0
0, 0
0, 0
0, 0
0, 0
0, 0
0, 0
0, 0
0, 0
0, 0
0, 0
0, 0
0, 0
0, 0
0, 0
0, 0
#ENDOFDATA     end of spectrum data