File: host_upload/06-09-2024/ps_0852/dump3/ps__0852shot_2053.msa
#FORMAT      : EMSA/MAS spectral data file
#VERSION     : TC202v2.0 PIXL
#TITLE       : N/A
#DATE        :       Date in the format DD-MMM-YYYY, for example 07-JUL-2010
#TIME        :             The time of day at which the spectrum was recorded, in 24-hour format
#OWNER       : PIXL Flight Model       (PIXL will use this to indicate which instrument took the data.)
#NPOINTS     : 4096     Number of data points in the spectrum (This can be zero for configuration only files)
#NCOLUMNS    : 2     Number of data columns in the spectrum (This can be zero for configuration only files)
#XUNITS      : eV
#YUNITS      : COUNTS
#DATATYPE    : YY
#XPERCHAN    : 7.862, 7.881   eV per channel (separate by commas if more than one detector)
#OFFSET      : 18.5, -22.4         eV of first channel  (separate by commas if more than one detector
#SIGNALTYPE  : XRF
#YP_TEMP     : 2.267
#LIVETIME    : 8.54829, 8.53803   seconds (separate by commas if more than one detector)
#REALTIME    : 10, 10.0   seconds (separate by commas if more than one detector)
#SPECTRUM    : start of spectrum data
0, 0
0, 0
0, 0
0, 0
0, 0
0, 0
0, 0
0, 0
0, 0
0, 0
0, 0
0, 0
0, 0
0, 0
0, 0
0, 0
0, 0
0, 0
0, 0
0, 0
0, 0
0, 0
0, 0
0, 0
0, 0
0, 0
0, 0
0, 0
0, 0
0, 0
0, 0
0, 0
0, 0
0, 0
0, 0
1, 0
1, 0
0, 0
2, 0
1, 0
1, 1
1, 0
0, 0
1, 1
0, 0
0, 2
2, 0
4, 6
15, 4
15, 19
28, 22
35, 37
58, 64
84, 82
92, 68
77, 74
72, 44
56, 43
27, 27
19, 15
6, 6
13, 3
6, 4
6, 2
11, 3
5, 4
7, 2
13, 6
18, 20
46, 49
84, 86
182, 168
280, 279
365, 391
438, 380
458, 406
383, 364
327, 270
227, 176
136, 124
78, 68
45, 32
21, 11
7, 3
8, 5
4, 2
1, 3
0, 2
0, 0
0, 1
0, 0
1, 0
3, 1
0, 0
1, 1
2, 1
5, 1
2, 0
2, 5
2, 4
5, 2
4, 3
2, 0
4, 6
3, 1
4, 1
0, 6
1, 3
6, 7
5, 7
10, 12
19, 15
35, 26
23, 32
31, 35
22, 34
27, 34
23, 27
21, 20
18, 29
14, 17
18, 24
11, 12
15, 13
17, 14
3, 11
4, 9
10, 10
11, 10
1, 8
3, 1
3, 2
3, 1
6, 1
0, 5
2, 1
5, 1
4, 1
3, 0
2, 0
2, 1
1, 0
2, 2
1, 1
2, 1
3, 0
4, 0
0, 6
5, 2
0, 4
1, 2
6, 3
7, 6
5, 9
7, 9
12, 16
11, 17
17, 21
15, 17
14, 14
5, 12
10, 6
4, 1
4, 4
5, 2
2, 1
4, 3
3, 0
2, 3
5, 7
8, 3
5, 5
7, 5
6, 4
3, 6
0, 6
3, 3
4, 5
5, 6
1, 8
3, 9
2, 2
3, 4
2, 5
4, 1
1, 4
4, 4
4, 5
3, 7
5, 8
4, 9
10, 12
10, 7
7, 16
16, 24
9, 24
14, 15
13, 23
14, 19
17, 13
11, 13
9, 7
14, 10
10, 7
8, 2
8, 7
9, 2
4, 1
4, 10
9, 4
6, 8
9, 5
8, 4
5, 4
9, 6
10, 5
5, 3
4, 5
10, 9
5, 6
10, 7
5, 12
7, 7
5, 7
8, 9
5, 20
8, 10
9, 21
11, 28
10, 19
16, 20
18, 14
12, 15
9, 15
11, 4
11, 6
4, 7
4, 9
8, 5
13, 13
6, 8
6, 31
3, 15
8, 15
21, 20
17, 32
26, 38
29, 43
52, 67
54, 69
55, 70
74, 59
66, 59
39, 56
39, 39
36, 24
27, 25
19, 16
23, 18
23, 18
23, 19
29, 36
49, 62
102, 113
160, 180
290, 329
502, 581
764, 918
1157, 1253
1606, 1743
2052, 2058
2353, 2284
2409, 2258
2381, 2227
2162, 1842
1820, 1478
1350, 1057
962, 732
642, 447
387, 291
194, 158
109, 75
57, 35
35, 33
18, 18
9, 11
11, 13
16, 14
16, 16
15, 15
26, 27
41, 29
47, 60
66, 61
91, 107
145, 153
243, 197
264, 290
341, 331
349, 339
375, 328
384, 275
347, 263
285, 197
226, 167
200, 103
143, 64
100, 40
63, 18
42, 8
33, 8
13, 4
17, 8
21, 5
17, 10
17, 8
16, 13
11, 13
13, 11
10, 15
11, 6
9, 5
10, 5
9, 8
3, 7
9, 4
4, 3
5, 4
4, 3
3, 4
4, 6
1, 2
2, 2
3, 3
3, 5
7, 2
3, 6
4, 3
5, 4
7, 1
2, 2
4, 4
3, 7
5, 0
5, 1
2, 5
3, 2
3, 4
6, 5
2, 5
7, 10
2, 6
6, 3
4, 7
1, 10
7, 2
4, 3
3, 7
2, 5
1, 6
3, 1
1, 3
0, 3
9, 2
4, 4
5, 6
2, 5
4, 7
4, 6
2, 6
4, 12
3, 11
12, 5
5, 5
6, 8
11, 8
12, 8
11, 7
9, 5
19, 3
13, 3
11, 2
14, 5
14, 1
15, 5
15, 3
8, 4
11, 6
9, 3
5, 5
4, 6
13, 4
5, 5
7, 3
11, 3
7, 0
8, 2
10, 1
11, 4
4, 3
4, 3
6, 3
1, 3
1, 5
7, 6
0, 1
4, 5
1, 6
0, 3
5, 5
9, 3
2, 0
3, 2
2, 3
1, 5
0, 1
1, 8
2, 4
1, 7
2, 9
3, 8
1, 11
3, 17
3, 13
3, 12
3, 9
5, 13
9, 8
2, 5
3, 8
4, 6
3, 4
2, 7
4, 5
1, 4
5, 3
4, 3
4, 2
2, 6
2, 4
1, 1
5, 6
2, 6
2, 2
2, 4
1, 2
1, 4
2, 1
4, 5
1, 3
1, 2
7, 5
2, 5
7, 5
3, 1
3, 2
6, 1
2, 0
9, 2
4, 1
2, 0
1, 4
1, 3
5, 0
5, 1
2, 2
1, 1
0, 2
3, 1
2, 1
6, 1
2, 0
3, 4
3, 2
3, 2
6, 3
1, 3
3, 2
5, 1
5, 4
2, 2
5, 0
3, 0
5, 1
3, 1
5, 2
3, 2
3, 2
4, 3
3, 5
1, 3
2, 4
4, 1
2, 4
2, 1
2, 4
2, 4
1, 5
1, 3
2, 6
3, 1
2, 1
2, 3
4, 1
3, 2
3, 1
2, 5
1, 2
3, 3
2, 1
2, 2
6, 2
0, 4
2, 1
3, 2
1, 3
0, 1
0, 1
2, 3
1, 1
2, 3
1, 1
6, 4
1, 3
2, 4
1, 0
0, 4
2, 2
2, 2
0, 4
0, 2
2, 2
3, 2
1, 0
4, 1
2, 3
3, 3
2, 0
4, 2
3, 6
3, 1
3, 5
5, 2
6, 6
5, 4
3, 3
2, 2
8, 3
4, 0
1, 1
3, 0
0, 0
1, 0
0, 1
2, 1
1, 2
1, 2
0, 3
0, 4
2, 1
0, 1
0, 2
3, 2
1, 2
1, 2
3, 3
1, 2
3, 0
0, 2
4, 0
4, 3
3, 2
2, 1
1, 3
0, 0
4, 2
1, 0
0, 2
1, 0
2, 2
2, 2
1, 0
1, 0
1, 4
3, 2
3, 0
0, 0
1, 0
0, 0
1, 1
0, 1
1, 0
1, 1
2, 0
1, 2
1, 2
1, 1
1, 0
0, 1
1, 1
2, 0
0, 2
1, 0
0, 3
0, 1
3, 0
0, 0
2, 1
0, 1
2, 1
3, 0
1, 3
1, 0
0, 1
1, 0
1, 1
0, 2
1, 2
1, 2
2, 0
0, 1
1, 0
3, 0
2, 1
1, 2
1, 0
1, 1
1, 0
2, 1
0, 2
1, 1
0, 0
0, 0
2, 1
2, 0
0, 0
1, 0
0, 1
0, 1
1, 2
0, 0
2, 0
0, 0
1, 0
0, 0
1, 0
1, 0
0, 1
1, 0
1, 1
1, 0
3, 2
1, 1
0, 1
1, 0
1, 0
0, 2
0, 1
0, 1
1, 0
2, 1
1, 1
0, 1
0, 0
1, 0
1, 0
1, 0
0, 1
0, 0
2, 0
3, 0
0, 0
0, 0
1, 1
0, 1
0, 0
0, 1
0, 2
0, 0
0, 1
1, 1
0, 1
0, 0
0, 1
0, 0
1, 0
2, 1
0, 0
0, 1
0, 0
1, 0
0, 0
0, 0
0, 1
2, 0
0, 1
0, 0
0, 1
0, 2
0, 1
2, 1
1, 0
1, 0
3, 1
1, 3
1, 0
0, 1
0, 2
1, 0
1, 1
1, 0
0, 0
0, 0
0, 0
1, 0
0, 1
1, 0
1, 1
0, 1
0, 0
0, 0
0, 0
0, 0
0, 0
0, 1
0, 0
1, 0
0, 1
1, 0
0, 0
0, 0
0, 0
0, 1
0, 2
0, 1
0, 2
0, 0
1, 0
0, 0
2, 0
0, 0
0, 1
0, 1
0, 0
0, 0
0, 0
1, 0
1, 0
0, 0
1, 0
0, 0
0, 0
0, 0
0, 1
0, 0
2, 1
0, 0
0, 0
0, 0
1, 0
1, 0
0, 1
0, 2
0, 0
0, 0
0, 1
0, 0
0, 1
0, 0
0, 0
0, 1
0, 1
0, 0
0, 0
0, 0
0, 0
0, 0
2, 0
0, 0
0, 0
0, 2
0, 0
2, 1
0, 0
0, 0
0, 1
0, 1
0, 1
0, 0
0, 0
1, 0
0, 0
0, 0
0, 1
1, 0
0, 0
0, 1
0, 0
0, 0
1, 0
0, 0
0, 0
1, 1
0, 0
0, 1
0, 0
1, 0
0, 0
0, 0
0, 0
0, 1
1, 0
1, 0
0, 0
1, 1
0, 0
0, 0
0, 0
0, 0
1, 0
1, 0
0, 0
0, 0
0, 0
0, 0
0, 1
1, 0
1, 0
0, 0
0, 0
0, 0
1, 0
0, 0
0, 0
0, 0
0, 0
0, 0
0, 0
0, 0
0, 0
0, 0
0, 1
0, 0
0, 0
0, 0
0, 0
1, 0
0, 1
0, 0
0, 0
1, 0
0, 0
0, 0
0, 0
0, 0
0, 1
0, 0
0, 0
1, 0
0, 1
0, 0
0, 0
0, 0
0, 0
0, 0
0, 0
0, 0
0, 0
0, 1
0, 0
0, 0
0, 0
0, 0
0, 0
0, 0
0, 1
0, 0
0, 0
1, 1
1, 0
0, 0
0, 0
0, 0
0, 0
0, 0
0, 0
1, 0
0, 0
0, 1
1, 0
1, 0
0, 0
0, 0
0, 0
1, 0
0, 0
0, 0
0, 0
1, 0
0, 0
0, 0
0, 0
0, 0
0, 0
0, 0
0, 0
0, 0
0, 0
0, 0
0, 0
0, 0
1, 0
0, 0
0, 0
0, 0
0, 0
0, 1
0, 0
0, 0
0, 0
0, 0
0, 0
0, 0
0, 0
0, 0
0, 0
0, 0
0, 0
0, 0
0, 0
0, 0
0, 0
1, 0
0, 0
0, 0
0, 0
0, 0
0, 0
0, 0
0, 0
0, 0
0, 0
0, 0
0, 0
0, 0
0, 0
0, 0
0, 0
0, 0
0, 0
0, 1
0, 0
0, 0
0, 0
0, 0
0, 0
0, 0
1, 0
0, 0
0, 0
0, 0
0, 0
0, 0
0, 1
0, 0
0, 0
0, 0
0, 0
0, 0
0, 0
1, 0
0, 0
0, 0
0, 0
0, 0
0, 0
0, 0
0, 0
0, 0
0, 0
0, 0
0, 0
0, 0
0, 0
0, 0
0, 0
0, 0
0, 0
0, 0
0, 0
0, 0
0, 0
0, 0
0, 0
0, 0
0, 0
0, 0
0, 0
0, 0
0, 0
0, 0
0, 0
0, 0
0, 0
0, 0
0, 0
0, 0
0, 0
0, 0
0, 0
0, 0
0, 0
0, 0
0, 0
0, 0
0, 0
0, 0
0, 0
0, 0
0, 0
0, 0
0, 0
0, 0
0, 0
0, 0
0, 0
0, 0
0, 0
0, 0
0, 0
0, 0
0, 0
1, 0
0, 0
0, 0
0, 0
0, 0
0, 0
0, 0
0, 0
0, 0
0, 0
0, 0
0, 0
0, 0
0, 0
0, 0
0, 0
0, 0
0, 0
0, 0
0, 0
0, 0
0, 0
0, 0
0, 0
0, 0
0, 0
0, 0
0, 0
0, 0
0, 0
0, 0
0, 0
0, 0
0, 0
0, 0
0, 0
0, 0
0, 0
0, 0
0, 0
0, 0
0, 0
0, 0
0, 0
0, 0
0, 0
0, 0
0, 0
0, 0
0, 0
0, 0
0, 0
0, 0
0, 0
0, 0
0, 0
0, 0
0, 0
0, 0
0, 0
0, 0
0, 0
0, 0
0, 0
0, 0
0, 0
0, 0
0, 0
0, 0
0, 0
0, 0
0, 0
0, 0
0, 0
0, 0
0, 0
0, 0
0, 0
0, 0
0, 0
0, 0
0, 0
0, 0
0, 0
0, 0
0, 0
0, 0
0, 0
0, 0
0, 0
0, 0
0, 0
0, 0
0, 0
0, 0
0, 0
0, 0
0, 0
0, 0
0, 0
0, 0
0, 0
0, 0
0, 0
0, 0
0, 0
0, 0
0, 0
0, 0
0, 0
0, 0
0, 0
0, 0
0, 0
0, 0
0, 0
0, 0
0, 0
0, 0
0, 0
0, 0
0, 0
0, 0
0, 0
0, 0
0, 0
0, 0
0, 0
0, 0
0, 0
0, 0
0, 0
0, 0
0, 0
0, 0
0, 0
0, 0
0, 0
0, 0
0, 0
0, 0
0, 0
0, 0
0, 0
0, 0
0, 0
0, 0
0, 0
0, 0
0, 0
0, 0
0, 0
0, 0
0, 0
0, 0
0, 0
0, 0
0, 0
0, 0
0, 0
0, 0
0, 0
0, 0
0, 0
0, 0
0, 0
0, 0
0, 0
0, 0
0, 0
0, 0
0, 0
0, 0
0, 0
0, 0
0, 0
0, 0
0, 0
0, 0
0, 0
0, 0
0, 0
0, 0
0, 0
0, 0
0, 0
0, 0
0, 0
0, 0
0, 0
0, 0
0, 0
0, 0
0, 0
0, 0
0, 0
0, 0
0, 0
0, 0
0, 0
0, 0
0, 0
0, 0
0, 0
0, 0
0, 0
0, 0
0, 0
0, 0
0, 0
0, 0
0, 0
0, 0
0, 0
0, 0
0, 0
0, 0
0, 0
0, 0
0, 0
0, 0
0, 0
0, 0
0, 0
0, 0
0, 0
0, 0
0, 0
0, 0
0, 0
0, 0
0, 0
0, 0
0, 0
0, 0
0, 0
0, 0
0, 0
0, 0
0, 0
0, 0
0, 0
0, 0
0, 0
0, 0
0, 0
0, 0
0, 0
0, 0
0, 0
0, 0
0, 0
0, 0
0, 0
0, 0
0, 0
0, 0
0, 0
0, 0
0, 0
0, 0
0, 0
0, 0
0, 0
0, 0
0, 0
0, 0
0, 0
0, 0
0, 0
0, 0
0, 0
0, 0
0, 0
0, 0
0, 0
0, 0
0, 0
0, 0
0, 0
0, 0
0, 0
0, 0
0, 0
0, 0
0, 0
0, 0
0, 0
0, 0
0, 0
0, 0
0, 0
0, 0
0, 0
0, 0
0, 0
0, 0
0, 0
0, 0
0, 0
0, 0
0, 0
0, 0
0, 0
0, 0
0, 0
0, 0
0, 0
0, 0
0, 0
0, 0
0, 0
0, 0
0, 0
0, 0
0, 0
0, 0
0, 0
0, 0
0, 0
0, 0
0, 0
0, 0
0, 0
0, 0
0, 0
0, 0
0, 0
0, 0
0, 0
0, 0
0, 0
0, 0
0, 0
#ENDOFDATA     end of spectrum data