File: host_upload/06-09-2024/ps_0852/dump3/ps__0852shot_2452.msa
#FORMAT      : EMSA/MAS spectral data file
#VERSION     : TC202v2.0 PIXL
#TITLE       : N/A
#DATE        :       Date in the format DD-MMM-YYYY, for example 07-JUL-2010
#TIME        :             The time of day at which the spectrum was recorded, in 24-hour format
#OWNER       : PIXL Flight Model       (PIXL will use this to indicate which instrument took the data.)
#NPOINTS     : 4096     Number of data points in the spectrum (This can be zero for configuration only files)
#NCOLUMNS    : 2     Number of data columns in the spectrum (This can be zero for configuration only files)
#XUNITS      : eV
#YUNITS      : COUNTS
#DATATYPE    : YY
#XPERCHAN    : 7.862, 7.881   eV per channel (separate by commas if more than one detector)
#OFFSET      : 18.5, -22.4         eV of first channel  (separate by commas if more than one detector
#SIGNALTYPE  : XRF
#YP_TEMP     : 2.267
#LIVETIME    : 8.56743, 8.56559   seconds (separate by commas if more than one detector)
#REALTIME    : 10, 10.0   seconds (separate by commas if more than one detector)
#SPECTRUM    : start of spectrum data
0, 0
0, 0
0, 0
0, 0
0, 0
0, 0
0, 0
0, 0
0, 0
0, 0
0, 0
0, 0
0, 0
0, 0
0, 0
0, 0
0, 0
0, 0
0, 0
0, 0
0, 0
0, 0
0, 0
0, 0
0, 0
0, 0
0, 0
0, 0
0, 0
0, 0
0, 0
0, 0
0, 0
0, 1
0, 0
1, 1
1, 0
0, 1
2, 1
0, 1
0, 0
0, 0
0, 1
0, 0
1, 1
0, 3
6, 2
1, 3
7, 1
9, 13
20, 25
34, 50
39, 66
58, 74
63, 89
73, 85
49, 62
32, 44
22, 20
21, 14
7, 6
5, 3
5, 4
0, 3
7, 3
2, 5
7, 4
8, 9
20, 20
43, 50
72, 109
167, 189
265, 305
364, 378
390, 437
409, 415
345, 392
307, 276
185, 214
112, 126
66, 64
34, 31
20, 19
9, 12
4, 5
4, 2
2, 1
3, 0
0, 3
1, 1
2, 3
3, 1
3, 4
7, 8
12, 8
19, 15
38, 30
36, 30
29, 34
43, 41
38, 33
31, 25
13, 13
17, 13
5, 7
6, 5
13, 7
12, 10
15, 11
26, 23
21, 19
36, 39
45, 32
47, 45
61, 41
53, 54
52, 49
44, 27
28, 37
34, 24
23, 28
25, 13
14, 16
21, 18
18, 14
20, 9
22, 17
10, 16
10, 6
8, 7
2, 3
1, 1
3, 2
2, 3
1, 0
4, 2
1, 1
3, 1
0, 1
1, 1
2, 2
1, 2
1, 3
2, 3
2, 0
1, 5
3, 2
1, 2
0, 5
1, 0
1, 1
1, 4
2, 6
4, 10
10, 12
14, 11
10, 6
6, 11
9, 10
8, 12
6, 7
7, 8
7, 10
4, 11
3, 11
3, 12
2, 11
3, 20
5, 13
4, 9
4, 10
5, 12
11, 6
11, 3
5, 8
15, 8
12, 13
18, 9
11, 15
9, 9
7, 19
9, 10
7, 2
1, 7
5, 3
2, 3
5, 5
2, 1
8, 7
4, 10
4, 10
14, 13
8, 11
14, 26
15, 16
18, 22
14, 30
23, 42
23, 26
21, 25
17, 28
18, 17
20, 19
9, 13
12, 10
6, 4
11, 7
7, 8
5, 11
5, 5
10, 9
3, 12
5, 11
5, 14
4, 12
5, 12
3, 12
10, 17
3, 10
5, 7
3, 8
10, 6
6, 8
8, 7
11, 8
6, 6
11, 10
8, 7
12, 15
7, 14
12, 12
17, 16
6, 9
11, 14
12, 12
8, 9
13, 5
9, 8
6, 6
9, 7
9, 4
7, 10
9, 10
9, 15
14, 15
21, 14
27, 33
30, 34
40, 39
48, 57
59, 73
60, 64
59, 62
54, 43
32, 35
22, 30
27, 17
24, 17
21, 14
16, 16
21, 21
25, 23
37, 65
92, 111
164, 215
251, 368
464, 641
764, 1005
1126, 1455
1454, 1896
1921, 2293
2132, 2563
2305, 2570
2284, 2478
1990, 2102
1677, 1600
1238, 1178
866, 790
530, 479
339, 300
188, 173
83, 94
40, 73
28, 73
20, 48
16, 70
10, 71
13, 66
19, 46
22, 54
21, 57
37, 43
48, 59
60, 98
89, 112
136, 185
194, 254
270, 303
285, 307
286, 386
342, 377
326, 362
293, 259
224, 218
179, 172
136, 92
92, 66
46, 40
23, 19
29, 13
25, 9
25, 4
31, 7
30, 13
31, 12
35, 12
32, 13
33, 14
19, 15
24, 10
18, 18
16, 11
16, 3
10, 9
5, 9
6, 3
4, 4
4, 4
6, 4
2, 2
3, 3
8, 4
11, 4
10, 4
8, 3
6, 2
6, 3
8, 5
10, 3
6, 1
4, 5
8, 6
6, 5
4, 5
3, 3
2, 3
10, 4
6, 8
7, 3
9, 1
5, 7
5, 9
5, 8
14, 4
8, 8
11, 2
6, 5
6, 5
1, 1
7, 3
2, 2
1, 9
2, 12
4, 9
6, 6
7, 9
2, 6
1, 2
5, 2
6, 5
2, 1
3, 5
4, 5
4, 8
3, 4
6, 3
1, 5
4, 6
2, 5
5, 4
2, 3
3, 7
3, 4
4, 6
5, 5
1, 9
1, 6
5, 3
0, 15
4, 16
3, 10
3, 11
5, 14
7, 15
9, 15
6, 16
9, 11
7, 6
5, 6
15, 6
7, 7
9, 5
9, 2
7, 1
4, 5
2, 4
6, 2
2, 2
0, 0
3, 10
2, 7
2, 5
3, 9
1, 8
3, 9
3, 4
5, 11
5, 11
4, 6
2, 11
3, 10
1, 13
1, 11
1, 11
3, 8
1, 6
3, 3
4, 4
2, 4
3, 4
2, 2
2, 3
3, 7
1, 4
5, 1
0, 4
3, 4
13, 1
2, 3
5, 5
1, 2
4, 2
4, 1
4, 2
4, 1
3, 1
2, 4
2, 3
4, 7
2, 3
4, 5
4, 4
4, 3
2, 7
4, 3
3, 4
1, 2
2, 2
2, 5
3, 3
1, 4
3, 2
3, 4
5, 0
4, 2
2, 0
1, 1
2, 2
1, 4
7, 2
1, 2
0, 2
5, 3
1, 1
3, 3
3, 3
4, 2
1, 6
1, 3
4, 3
4, 3
0, 2
0, 1
2, 0
4, 7
2, 6
2, 2
2, 9
4, 5
3, 4
2, 2
5, 2
4, 4
3, 3
2, 5
1, 2
3, 1
0, 6
1, 2
1, 6
1, 1
3, 1
2, 2
2, 1
1, 2
1, 1
3, 4
1, 3
6, 5
3, 1
1, 1
3, 1
0, 1
1, 3
0, 1
1, 1
0, 3
2, 1
1, 1
3, 2
3, 2
1, 3
2, 1
6, 4
5, 2
2, 0
2, 1
3, 2
4, 0
0, 0
1, 2
2, 3
1, 1
4, 4
1, 1
2, 2
4, 3
4, 2
2, 1
4, 7
5, 1
4, 9
6, 5
3, 5
4, 8
6, 2
2, 5
2, 4
2, 2
3, 4
1, 0
0, 2
3, 2
1, 4
2, 1
0, 2
1, 4
0, 2
1, 0
1, 1
1, 4
1, 0
1, 0
1, 1
0, 2
2, 3
1, 2
3, 2
3, 1
0, 4
2, 4
1, 1
1, 1
0, 3
0, 2
1, 0
1, 1
1, 4
1, 1
3, 0
0, 1
1, 2
3, 1
0, 2
1, 2
1, 2
1, 1
4, 0
4, 2
1, 2
2, 5
2, 3
1, 0
3, 0
1, 0
3, 2
1, 0
0, 1
1, 1
1, 1
1, 2
1, 1
0, 1
0, 1
1, 2
0, 1
1, 2
1, 0
0, 1
0, 1
1, 1
1, 1
1, 2
0, 2
1, 1
2, 1
0, 2
2, 2
1, 0
1, 0
3, 1
1, 1
0, 2
1, 0
0, 1
2, 1
1, 1
2, 1
1, 0
0, 3
0, 1
0, 1
0, 2
0, 0
0, 0
1, 1
1, 0
2, 1
0, 0
0, 0
0, 0
0, 0
0, 0
1, 3
0, 0
1, 0
0, 2
4, 3
1, 0
0, 0
0, 1
1, 1
1, 0
1, 2
0, 1
0, 2
0, 1
1, 0
0, 1
1, 0
0, 0
1, 1
1, 3
0, 0
1, 1
2, 0
1, 1
0, 0
0, 1
0, 0
1, 1
0, 0
0, 2
2, 0
0, 0
0, 0
0, 1
1, 0
1, 1
0, 0
0, 1
0, 0
2, 0
0, 1
0, 0
1, 1
1, 0
2, 4
0, 1
1, 0
2, 0
1, 0
0, 0
0, 0
0, 0
0, 1
0, 0
0, 1
0, 1
0, 0
0, 0
1, 2
0, 1
0, 1
0, 0
0, 0
1, 0
1, 1
0, 1
2, 0
0, 0
0, 1
1, 0
0, 0
1, 2
2, 0
0, 1
0, 2
0, 0
1, 1
0, 1
1, 1
0, 0
0, 1
0, 0
0, 1
0, 0
1, 0
0, 0
0, 0
0, 1
0, 1
0, 0
0, 1
0, 0
0, 1
0, 0
0, 0
2, 0
0, 0
0, 0
1, 0
1, 0
0, 0
0, 0
0, 0
0, 2
0, 1
0, 0
0, 0
0, 0
0, 0
0, 0
0, 0
0, 0
0, 0
0, 0
0, 0
1, 0
1, 0
0, 0
0, 0
1, 1
0, 0
0, 0
0, 0
0, 0
0, 1
0, 0
0, 0
0, 2
0, 1
0, 0
0, 0
0, 1
0, 1
1, 1
0, 1
0, 1
0, 0
0, 0
1, 1
1, 0
0, 0
0, 1
1, 1
0, 0
0, 1
0, 0
0, 0
0, 0
1, 0
1, 0
0, 2
0, 0
0, 1
1, 1
0, 0
0, 1
1, 0
1, 0
0, 0
0, 0
1, 0
0, 0
0, 0
0, 1
0, 1
0, 0
1, 0
0, 0
0, 0
0, 0
0, 0
1, 0
0, 1
0, 0
0, 0
0, 0
0, 0
0, 0
0, 0
0, 0
0, 1
0, 0
0, 0
0, 1
1, 0
0, 1
0, 0
0, 0
0, 0
0, 0
0, 0
0, 0
0, 1
0, 0
1, 0
0, 0
0, 0
1, 0
0, 0
0, 0
0, 0
0, 0
0, 0
0, 0
0, 0
0, 1
0, 2
0, 0
0, 0
0, 1
1, 0
2, 0
1, 0
0, 0
1, 0
0, 0
1, 0
0, 0
0, 0
0, 0
0, 0
0, 1
0, 0
0, 0
0, 0
0, 0
0, 0
0, 0
0, 1
0, 0
0, 0
0, 2
0, 1
0, 0
0, 0
0, 0
0, 0
0, 1
0, 0
0, 0
1, 0
1, 0
1, 0
0, 0
0, 0
0, 0
0, 0
0, 1
0, 0
0, 0
0, 0
0, 0
0, 0
0, 0
0, 1
0, 0
0, 0
0, 0
0, 0
0, 0
0, 0
0, 0
0, 0
0, 0
0, 0
0, 1
0, 0
0, 0
0, 0
0, 0
0, 0
0, 0
0, 0
0, 0
0, 0
0, 0
1, 0
0, 0
0, 0
0, 0
0, 0
0, 0
0, 0
0, 0
0, 0
0, 0
0, 0
0, 0
0, 0
1, 0
0, 0
0, 0
0, 0
0, 0
0, 0
0, 0
0, 0
0, 0
1, 0
0, 0
0, 0
0, 0
0, 0
0, 0
0, 0
0, 0
0, 0
0, 0
0, 1
0, 0
0, 0
0, 0
0, 0
0, 0
0, 0
0, 0
0, 0
0, 0
0, 0
0, 0
0, 0
0, 0
0, 0
0, 0
0, 0
0, 0
0, 0
0, 0
0, 0
0, 0
0, 1
0, 0
0, 0
0, 0
0, 0
0, 0
0, 0
0, 0
0, 0
0, 0
0, 0
0, 0
0, 0
0, 0
0, 0
0, 0
0, 0
0, 0
0, 0
0, 0
0, 0
0, 0
0, 0
0, 0
0, 0
0, 0
0, 0
0, 0
0, 0
0, 0
0, 0
0, 0
0, 0
0, 0
0, 0
0, 0
0, 0
0, 0
0, 0
0, 0
0, 0
0, 0
0, 0
0, 0
0, 0
0, 0
0, 0
0, 0
0, 0
0, 0
0, 0
0, 0
0, 0
0, 0
0, 0
0, 0
0, 0
0, 0
0, 0
0, 0
0, 0
0, 0
0, 0
0, 0
0, 0
0, 0
0, 0
0, 0
0, 0
0, 0
0, 0
0, 0
0, 0
0, 0
0, 0
0, 0
0, 0
0, 0
0, 0
0, 0
0, 0
0, 0
0, 0
0, 0
0, 0
0, 0
0, 0
0, 0
0, 0
0, 0
0, 0
0, 0
0, 0
0, 0
0, 0
0, 0
0, 0
0, 0
0, 0
0, 0
0, 0
0, 0
0, 0
0, 0
0, 0
0, 0
0, 0
0, 0
0, 0
0, 0
0, 0
0, 0
0, 0
0, 0
0, 0
0, 0
0, 0
0, 0
0, 0
0, 0
0, 0
0, 0
0, 0
0, 0
0, 0
0, 0
0, 0
0, 0
0, 0
0, 0
0, 0
0, 0
0, 0
0, 0
0, 0
0, 0
0, 0
0, 0
0, 0
0, 0
0, 0
0, 0
0, 0
0, 0
0, 0
0, 0
0, 0
0, 0
0, 0
0, 0
0, 0
0, 0
0, 0
0, 0
0, 0
0, 0
0, 0
0, 0
0, 0
0, 0
0, 0
0, 0
0, 0
0, 0
0, 0
0, 0
0, 0
0, 0
0, 0
0, 0
0, 0
0, 0
0, 0
0, 0
0, 0
0, 0
0, 0
0, 0
0, 0
0, 0
0, 0
0, 0
0, 0
0, 0
0, 0
0, 0
0, 0
0, 0
0, 0
0, 0
0, 0
0, 0
0, 0
0, 0
0, 0
0, 0
0, 0
0, 0
0, 0
0, 0
0, 0
0, 0
0, 0
0, 0
0, 0
0, 0
0, 0
0, 0
0, 0
0, 0
0, 0
0, 0
0, 0
0, 0
0, 0
0, 0
0, 0
0, 0
0, 0
0, 0
0, 0
0, 0
0, 0
0, 0
0, 0
0, 0
0, 0
0, 0
0, 0
0, 0
0, 0
0, 0
0, 0
0, 0
0, 0
0, 0
0, 0
0, 0
0, 0
0, 0
0, 0
0, 0
0, 0
0, 0
0, 0
0, 0
0, 0
0, 0
0, 0
0, 0
0, 0
0, 0
0, 0
0, 0
0, 0
0, 0
0, 0
0, 0
0, 0
0, 0
0, 0
0, 0
0, 0
0, 0
0, 0
0, 0
0, 0
0, 0
0, 0
0, 0
0, 0
0, 0
0, 0
0, 0
0, 0
0, 0
0, 0
0, 0
0, 0
0, 0
0, 0
0, 0
0, 0
0, 0
0, 0
0, 0
0, 0
0, 0
0, 0
0, 0
0, 0
0, 0
0, 0
0, 0
0, 0
0, 0
0, 0
0, 0
0, 0
0, 0
0, 0
0, 0
0, 0
0, 0
0, 0
0, 0
0, 0
0, 0
0, 0
0, 0
0, 0
0, 0
0, 0
0, 0
0, 0
0, 0
0, 0
0, 0
0, 0
0, 0
0, 0
0, 0
0, 0
0, 0
0, 0
0, 0
0, 0
0, 0
0, 0
0, 0
0, 0
0, 0
0, 0
0, 0
0, 0
0, 0
0, 0
0, 0
0, 0
0, 0
0, 0
0, 0
0, 0
0, 0
0, 0
0, 0
0, 0
0, 0
0, 0
0, 0
0, 0
0, 0
0, 0
0, 0
0, 0
0, 0
0, 0
0, 0
0, 0
0, 0
0, 0
0, 0
0, 0
0, 0
0, 0
0, 0
0, 0
0, 0
0, 0
0, 0
0, 0
0, 0
0, 0
0, 0
0, 0
0, 0
0, 0
0, 0
0, 0
0, 0
0, 0
0, 0
0, 0
0, 0
0, 0
0, 0
0, 0
0, 0
0, 0
0, 0
0, 0
0, 0
0, 0
#ENDOFDATA     end of spectrum data