File: host_upload/06-09-2024/ps_0852/dump3/ps__0852shot_2227.msa
#FORMAT      : EMSA/MAS spectral data file
#VERSION     : TC202v2.0 PIXL
#TITLE       : N/A
#DATE        :       Date in the format DD-MMM-YYYY, for example 07-JUL-2010
#TIME        :             The time of day at which the spectrum was recorded, in 24-hour format
#OWNER       : PIXL Flight Model       (PIXL will use this to indicate which instrument took the data.)
#NPOINTS     : 4096     Number of data points in the spectrum (This can be zero for configuration only files)
#NCOLUMNS    : 2     Number of data columns in the spectrum (This can be zero for configuration only files)
#XUNITS      : eV
#YUNITS      : COUNTS
#DATATYPE    : YY
#XPERCHAN    : 7.862, 7.881   eV per channel (separate by commas if more than one detector)
#OFFSET      : 18.5, -22.4         eV of first channel  (separate by commas if more than one detector
#SIGNALTYPE  : XRF
#YP_TEMP     : 2.267
#LIVETIME    : 8.5422, 8.52919   seconds (separate by commas if more than one detector)
#REALTIME    : 10, 10.0   seconds (separate by commas if more than one detector)
#SPECTRUM    : start of spectrum data
0, 0
0, 0
0, 0
0, 0
0, 0
0, 0
0, 0
0, 0
0, 0
0, 0
0, 0
0, 0
0, 0
0, 0
0, 0
0, 0
0, 0
0, 0
0, 0
0, 0
0, 0
0, 0
0, 0
0, 0
0, 0
0, 0
0, 0
0, 0
0, 0
0, 0
0, 1
0, 0
0, 0
0, 0
0, 0
0, 3
0, 5
2, 11
0, 20
1, 24
0, 30
0, 60
1, 52
1, 40
0, 24
1, 19
1, 12
2, 11
7, 11
15, 14
30, 29
50, 48
67, 74
71, 82
86, 75
67, 82
68, 72
45, 45
24, 40
10, 17
7, 6
4, 7
2, 6
4, 6
6, 9
4, 8
9, 9
9, 9
30, 20
49, 58
101, 86
175, 185
262, 254
349, 367
431, 440
446, 416
402, 353
319, 263
221, 183
139, 100
73, 75
38, 34
29, 27
12, 15
4, 8
5, 5
3, 6
2, 1
0, 2
1, 4
3, 3
1, 0
3, 1
3, 3
0, 2
5, 4
1, 3
6, 0
2, 9
1, 7
2, 10
0, 12
2, 8
0, 11
5, 12
4, 23
1, 34
3, 68
7, 143
15, 319
13, 625
12, 1116
23, 1680
36, 2307
27, 2779
28, 3002
20, 2834
28, 2355
26, 1605
12, 1078
25, 585
13, 346
9, 166
14, 87
6, 43
18, 24
18, 15
9, 11
6, 13
3, 5
2, 7
6, 3
3, 1
4, 2
1, 5
2, 4
2, 5
4, 2
4, 1
6, 2
3, 3
4, 1
3, 1
1, 3
0, 1
1, 3
5, 2
2, 0
0, 0
4, 1
7, 3
6, 3
11, 4
4, 5
10, 8
13, 13
16, 13
14, 9
16, 12
5, 15
13, 9
6, 8
6, 7
5, 5
11, 5
16, 2
19, 4
27, 2
37, 1
66, 4
51, 5
62, 9
51, 10
47, 10
28, 12
19, 32
24, 32
19, 58
24, 71
15, 102
8, 126
8, 125
12, 113
8, 97
11, 68
6, 42
5, 44
3, 29
10, 16
6, 8
8, 13
9, 15
10, 17
6, 8
9, 9
14, 8
14, 9
13, 13
18, 11
14, 8
20, 11
12, 12
20, 5
16, 7
13, 12
18, 17
20, 15
12, 20
18, 11
8, 6
11, 11
7, 11
3, 16
4, 6
5, 8
6, 9
6, 13
4, 10
5, 9
6, 8
0, 8
4, 11
8, 12
4, 18
5, 24
11, 35
10, 45
15, 40
6, 34
18, 50
14, 50
14, 34
13, 32
15, 27
11, 15
10, 10
16, 7
10, 7
18, 12
20, 10
24, 10
28, 15
14, 14
21, 17
19, 41
22, 39
23, 56
50, 69
47, 66
51, 87
51, 69
61, 75
52, 68
42, 65
42, 43
27, 34
22, 24
23, 19
20, 14
15, 30
21, 26
24, 26
47, 64
102, 91
147, 197
281, 364
456, 629
800, 929
1131, 1346
1560, 1812
1972, 2102
2254, 2487
2460, 2417
2481, 2259
2165, 2056
1785, 1587
1345, 1053
989, 742
660, 430
423, 275
194, 135
118, 71
55, 36
42, 25
21, 19
20, 28
4, 22
7, 21
12, 26
8, 35
30, 47
31, 59
46, 80
71, 99
92, 141
136, 161
206, 240
253, 313
312, 388
343, 363
348, 367
321, 305
308, 277
243, 223
180, 187
126, 107
97, 81
65, 63
35, 46
21, 46
18, 55
6, 48
4, 42
5, 45
9, 42
10, 24
18, 38
12, 21
10, 22
7, 30
6, 7
12, 11
9, 9
9, 5
10, 4
7, 4
1, 2
4, 4
2, 6
4, 2
0, 1
6, 4
3, 3
5, 4
6, 7
4, 13
5, 6
5, 10
3, 14
14, 17
7, 32
7, 34
8, 32
5, 32
5, 27
7, 24
2, 29
4, 15
2, 20
5, 14
7, 21
8, 11
7, 8
3, 9
5, 6
6, 12
7, 6
9, 6
9, 2
4, 5
11, 3
5, 7
7, 4
4, 9
5, 7
3, 8
6, 8
1, 4
1, 6
9, 6
6, 4
1, 3
2, 1
3, 3
6, 3
2, 2
3, 6
3, 7
3, 3
4, 5
3, 8
5, 14
4, 4
1, 6
1, 10
0, 7
2, 13
2, 9
3, 8
5, 12
7, 9
4, 4
1, 3
4, 4
1, 7
3, 2
2, 3
2, 2
4, 4
5, 5
7, 5
6, 4
14, 10
4, 6
6, 7
7, 6
7, 3
8, 5
7, 4
7, 8
4, 7
8, 4
5, 6
5, 6
4, 5
7, 5
4, 5
5, 2
6, 0
2, 4
2, 8
1, 2
2, 1
6, 5
0, 2
1, 8
6, 4
1, 7
3, 1
6, 7
3, 4
3, 9
4, 3
3, 3
3, 7
7, 5
7, 2
7, 2
6, 5
6, 2
9, 4
6, 2
11, 1
16, 3
7, 3
7, 4
11, 2
6, 3
8, 2
9, 3
4, 2
2, 4
4, 3
2, 2
2, 3
4, 0
4, 5
2, 6
4, 4
2, 8
2, 4
2, 2
3, 4
4, 2
1, 2
0, 4
2, 2
4, 2
1, 1
3, 2
1, 5
1, 2
1, 4
3, 3
4, 4
1, 2
2, 2
4, 2
5, 2
6, 1
1, 4
1, 2
2, 4
3, 5
2, 3
3, 3
3, 0
1, 4
0, 1
6, 2
1, 7
2, 0
1, 2
5, 6
1, 2
2, 6
4, 4
2, 4
2, 4
3, 5
1, 3
2, 4
2, 4
3, 3
4, 1
4, 2
3, 3
1, 3
5, 4
2, 2
4, 2
5, 2
7, 1
3, 2
6, 0
2, 3
3, 1
8, 1
2, 3
2, 1
2, 1
3, 2
1, 1
0, 3
2, 5
1, 3
2, 2
1, 0
1, 0
2, 2
1, 2
1, 0
0, 2
5, 0
2, 4
4, 0
3, 1
5, 3
2, 0
4, 3
4, 6
10, 4
9, 6
6, 4
4, 3
7, 4
4, 5
2, 3
2, 2
4, 1
5, 5
0, 0
3, 0
1, 1
2, 2
0, 0
0, 2
0, 2
2, 0
0, 3
2, 1
1, 1
1, 3
3, 3
3, 0
4, 0
1, 2
2, 1
2, 1
2, 1
2, 2
2, 3
2, 2
2, 0
3, 4
4, 2
1, 1
1, 0
1, 1
1, 0
0, 2
1, 4
0, 3
0, 1
1, 1
1, 2
0, 2
1, 1
0, 1
2, 0
2, 2
1, 2
0, 5
1, 0
1, 2
0, 1
1, 0
1, 1
0, 2
2, 1
0, 0
1, 2
0, 2
2, 1
0, 0
2, 1
0, 0
3, 0
1, 2
1, 1
2, 0
1, 1
1, 0
1, 0
0, 0
2, 1
1, 0
0, 0
2, 1
1, 0
0, 1
0, 0
1, 2
0, 1
0, 1
0, 0
1, 1
0, 1
0, 0
3, 0
1, 2
1, 0
0, 0
2, 1
0, 1
0, 2
1, 1
0, 1
1, 1
0, 2
0, 0
0, 0
2, 0
0, 0
0, 1
0, 0
0, 1
0, 1
0, 0
1, 1
3, 0
0, 0
0, 1
2, 0
0, 0
1, 1
1, 0
1, 1
2, 0
0, 0
1, 0
0, 0
4, 0
1, 0
1, 2
1, 0
0, 1
1, 1
0, 0
0, 0
1, 1
2, 2
0, 3
1, 0
0, 0
0, 1
0, 0
1, 0
1, 0
1, 0
0, 0
1, 1
1, 2
0, 0
0, 1
0, 1
2, 0
0, 0
1, 0
0, 2
0, 1
0, 1
0, 2
1, 1
1, 0
0, 0
0, 0
2, 0
0, 1
0, 1
1, 0
0, 1
0, 0
0, 0
0, 0
0, 0
1, 0
0, 0
1, 1
1, 1
0, 0
0, 0
1, 0
1, 0
0, 1
0, 0
0, 0
0, 1
1, 2
0, 0
0, 0
0, 0
1, 1
0, 1
0, 0
0, 0
2, 0
0, 0
0, 1
1, 0
0, 0
0, 0
0, 1
0, 0
0, 1
1, 0
1, 0
0, 0
0, 1
0, 0
1, 0
0, 1
0, 0
0, 0
0, 0
0, 1
0, 0
0, 0
0, 0
1, 2
0, 0
0, 3
1, 0
0, 0
1, 0
0, 1
0, 0
0, 0
0, 0
1, 0
0, 0
2, 0
1, 1
0, 0
1, 0
0, 0
0, 1
0, 0
1, 0
0, 0
0, 0
0, 0
0, 0
0, 0
0, 0
0, 1
0, 0
0, 0
1, 0
1, 1
0, 0
0, 0
0, 1
0, 0
0, 1
0, 1
0, 0
0, 0
1, 0
0, 0
0, 0
0, 0
0, 0
0, 2
1, 0
0, 1
0, 0
0, 0
0, 0
0, 0
0, 0
0, 0
0, 0
0, 0
0, 0
1, 0
1, 0
0, 0
0, 0
0, 1
0, 0
0, 0
0, 1
0, 1
0, 0
0, 0
0, 0
0, 0
0, 0
0, 1
1, 0
1, 0
0, 0
0, 0
1, 0
0, 0
0, 0
0, 0
0, 0
1, 0
0, 0
0, 0
0, 0
0, 0
0, 0
0, 0
0, 0
0, 0
0, 0
0, 0
0, 0
0, 0
0, 0
0, 1
0, 0
0, 1
1, 0
0, 0
0, 1
0, 0
0, 0
0, 0
1, 0
0, 0
0, 0
1, 0
0, 0
1, 0
0, 0
0, 0
1, 0
0, 0
0, 0
0, 0
0, 0
1, 0
1, 0
0, 0
0, 0
0, 0
0, 0
0, 0
0, 0
0, 0
0, 0
0, 0
0, 0
0, 0
0, 0
0, 0
0, 0
0, 0
0, 0
0, 0
1, 0
0, 0
0, 0
1, 0
0, 0
0, 0
0, 0
0, 0
0, 0
1, 0
0, 0
0, 0
0, 0
1, 0
0, 0
0, 1
0, 0
0, 0
0, 0
0, 1
0, 0
0, 0
0, 0
0, 0
0, 0
0, 0
0, 0
0, 0
0, 0
0, 0
1, 0
0, 0
0, 0
0, 0
0, 0
0, 0
0, 0
0, 0
0, 0
0, 1
0, 0
0, 0
0, 0
0, 0
0, 0
0, 0
0, 0
0, 0
0, 0
0, 0
0, 0
0, 0
0, 0
0, 0
0, 0
0, 0
0, 0
0, 0
0, 1
0, 0
0, 0
0, 0
0, 0
0, 0
0, 0
0, 0
0, 0
0, 0
0, 0
0, 0
0, 0
0, 0
0, 0
0, 0
0, 0
0, 0
1, 0
1, 0
0, 0
0, 0
0, 0
0, 0
0, 0
0, 0
0, 1
0, 0
0, 0
0, 0
0, 0
0, 0
0, 0
0, 0
0, 0
0, 0
0, 0
0, 0
0, 0
0, 0
0, 0
0, 0
0, 0
0, 0
0, 0
0, 0
0, 0
0, 0
0, 0
0, 0
0, 0
0, 0
0, 0
0, 0
0, 0
0, 0
0, 0
0, 0
0, 0
0, 0
0, 0
0, 0
0, 0
0, 0
0, 0
0, 0
0, 0
0, 0
1, 0
0, 0
0, 0
0, 0
0, 0
0, 0
0, 0
0, 0
0, 0
0, 0
0, 0
0, 0
0, 0
0, 0
0, 0
0, 0
0, 0
0, 0
0, 0
0, 0
0, 0
0, 0
0, 0
0, 0
0, 0
0, 0
0, 0
0, 0
0, 0
0, 0
0, 0
0, 0
0, 0
0, 0
0, 0
0, 0
0, 0
0, 0
0, 0
0, 0
0, 0
0, 0
0, 0
0, 0
0, 0
0, 0
0, 0
0, 0
0, 0
0, 0
0, 0
0, 0
0, 0
0, 0
0, 0
0, 0
0, 0
0, 0
0, 0
0, 0
0, 0
0, 0
0, 0
0, 0
0, 0
0, 0
0, 0
0, 0
0, 0
0, 0
0, 0
0, 0
0, 0
0, 0
0, 0
0, 0
0, 0
0, 0
0, 0
0, 0
0, 0
0, 0
0, 0
0, 0
0, 0
0, 0
0, 0
0, 0
0, 0
0, 0
0, 0
0, 0
0, 0
0, 0
0, 0
0, 0
0, 0
0, 0
0, 0
0, 0
0, 0
0, 0
0, 0
0, 0
0, 0
0, 0
0, 0
0, 0
0, 0
0, 0
0, 0
0, 0
0, 0
0, 0
0, 0
0, 0
0, 0
0, 0
0, 0
0, 0
0, 0
0, 0
0, 0
0, 0
0, 0
0, 0
0, 0
0, 0
0, 0
0, 0
1, 0
0, 0
0, 0
0, 0
0, 0
0, 0
0, 0
0, 0
0, 0
0, 0
0, 0
0, 0
0, 0
0, 0
0, 0
0, 0
0, 0
0, 0
0, 0
0, 0
0, 0
0, 0
0, 0
0, 0
0, 0
0, 0
0, 0
0, 0
0, 0
0, 0
0, 0
0, 0
0, 0
0, 0
0, 0
0, 0
0, 0
0, 0
0, 0
0, 0
0, 0
0, 0
0, 0
0, 0
0, 0
0, 0
0, 0
0, 0
0, 0
0, 0
0, 0
0, 0
0, 0
0, 0
0, 0
0, 0
0, 0
0, 0
0, 0
0, 0
0, 0
0, 0
0, 0
0, 0
0, 0
0, 0
0, 0
0, 0
0, 0
0, 0
0, 0
0, 0
0, 0
0, 0
0, 0
0, 0
0, 0
0, 0
0, 0
0, 0
0, 0
0, 0
0, 0
0, 0
0, 0
0, 0
0, 0
0, 0
0, 0
0, 0
0, 0
0, 0
0, 0
0, 0
0, 0
0, 0
0, 0
0, 0
0, 0
0, 0
0, 0
0, 0
0, 0
0, 0
0, 0
0, 0
0, 0
0, 0
0, 0
0, 0
0, 0
0, 0
0, 0
0, 0
0, 0
0, 0
0, 0
0, 0
0, 0
0, 0
0, 0
0, 0
0, 0
0, 0
0, 0
0, 0
0, 0
0, 0
0, 0
0, 0
0, 0
0, 0
0, 0
0, 0
0, 0
0, 0
0, 0
0, 0
0, 0
0, 0
0, 0
0, 0
0, 0
0, 0
0, 0
0, 0
0, 0
0, 0
0, 0
0, 0
0, 0
0, 0
0, 0
0, 0
0, 0
0, 0
0, 0
0, 0
0, 0
0, 0
0, 0
0, 0
0, 0
0, 0
0, 0
0, 0
0, 0
0, 0
0, 0
0, 0
0, 0
0, 0
0, 0
0, 0
0, 0
0, 0
0, 0
0, 0
0, 0
0, 0
0, 0
0, 0
0, 0
0, 0
0, 0
0, 0
0, 0
0, 0
0, 0
0, 0
0, 0
0, 0
0, 0
0, 0
0, 0
0, 0
0, 0
0, 0
0, 0
0, 0
0, 0
0, 0
0, 0
0, 0
0, 0
0, 0
0, 0
0, 0
0, 0
0, 0
0, 0
0, 0
0, 0
0, 0
0, 0
0, 0
0, 0
0, 0
0, 0
0, 0
0, 0
0, 0
0, 0
0, 0
0, 0
0, 0
#ENDOFDATA     end of spectrum data