File: host_upload/06-09-2024/ps_0852/dump3/ps__0852shot_2467.msa
#FORMAT      : EMSA/MAS spectral data file
#VERSION     : TC202v2.0 PIXL
#TITLE       : N/A
#DATE        :       Date in the format DD-MMM-YYYY, for example 07-JUL-2010
#TIME        :             The time of day at which the spectrum was recorded, in 24-hour format
#OWNER       : PIXL Flight Model       (PIXL will use this to indicate which instrument took the data.)
#NPOINTS     : 4096     Number of data points in the spectrum (This can be zero for configuration only files)
#NCOLUMNS    : 2     Number of data columns in the spectrum (This can be zero for configuration only files)
#XUNITS      : eV
#YUNITS      : COUNTS
#DATATYPE    : YY
#XPERCHAN    : 7.862, 7.881   eV per channel (separate by commas if more than one detector)
#OFFSET      : 18.5, -22.4         eV of first channel  (separate by commas if more than one detector
#SIGNALTYPE  : XRF
#YP_TEMP     : 2.428
#LIVETIME    : 8.54231, 8.52525   seconds (separate by commas if more than one detector)
#REALTIME    : 10, 10.0   seconds (separate by commas if more than one detector)
#SPECTRUM    : start of spectrum data
0, 0
0, 0
0, 0
0, 0
0, 0
0, 0
0, 0
0, 0
0, 0
0, 0
0, 0
0, 0
0, 0
0, 0
0, 0
0, 0
0, 0
0, 0
0, 0
0, 0
0, 0
0, 0
0, 0
0, 0
0, 0
0, 0
0, 0
0, 0
0, 0
0, 1
0, 0
0, 0
0, 0
0, 0
2, 0
2, 0
1, 0
1, 1
1, 2
2, 4
3, 3
2, 2
0, 0
2, 1
2, 5
2, 1
1, 1
4, 4
7, 6
11, 9
16, 17
31, 33
59, 37
43, 70
66, 75
65, 54
45, 36
39, 32
26, 25
14, 10
6, 12
3, 8
3, 7
5, 8
10, 12
7, 9
6, 4
8, 11
15, 16
23, 37
61, 69
121, 109
182, 195
237, 243
294, 266
293, 298
266, 258
188, 190
141, 137
90, 76
54, 44
21, 30
8, 9
7, 5
5, 9
3, 6
8, 9
6, 4
4, 7
6, 8
8, 7
21, 21
29, 43
78, 68
135, 154
222, 234
348, 382
463, 493
535, 554
554, 576
483, 489
351, 391
272, 260
208, 180
116, 131
68, 83
52, 55
67, 48
49, 48
63, 51
48, 63
94, 83
104, 114
89, 90
86, 93
93, 98
59, 88
54, 60
56, 56
30, 45
33, 45
32, 42
28, 38
21, 30
27, 21
24, 23
25, 17
14, 15
10, 9
10, 9
5, 5
6, 3
7, 3
8, 1
2, 3
3, 8
3, 6
6, 5
8, 10
13, 9
11, 8
10, 7
12, 10
9, 11
8, 10
6, 7
6, 3
8, 5
10, 3
4, 6
5, 9
10, 8
6, 9
19, 21
20, 17
31, 21
36, 34
31, 29
23, 32
29, 22
22, 26
19, 19
15, 11
7, 8
13, 5
9, 3
2, 4
5, 6
2, 9
9, 4
4, 9
11, 9
10, 11
9, 7
11, 13
4, 5
2, 3
5, 1
5, 6
5, 6
4, 3
6, 8
6, 11
6, 10
3, 10
6, 11
7, 14
3, 32
2, 28
8, 58
11, 50
11, 48
13, 62
9, 52
19, 41
12, 47
14, 40
19, 30
14, 25
12, 12
11, 18
8, 12
8, 14
7, 11
8, 10
10, 9
7, 11
6, 10
6, 9
9, 7
14, 7
4, 10
3, 10
5, 11
4, 7
5, 6
7, 6
5, 6
7, 3
6, 10
4, 9
8, 9
7, 9
3, 10
5, 8
11, 15
13, 12
7, 13
15, 14
16, 15
10, 21
14, 12
16, 15
16, 12
11, 10
9, 10
7, 7
11, 9
16, 10
9, 13
10, 11
11, 10
13, 12
12, 12
16, 25
18, 27
29, 25
43, 41
44, 35
40, 52
56, 53
49, 64
67, 53
50, 69
45, 46
34, 39
20, 23
26, 13
15, 21
17, 17
23, 19
31, 25
51, 71
71, 93
122, 190
260, 354
438, 600
775, 926
1125, 1291
1513, 1734
1883, 2245
2079, 2312
2289, 2423
2253, 2231
2006, 1874
1635, 1553
1253, 1086
832, 686
585, 432
330, 232
177, 132
79, 59
65, 36
28, 17
22, 16
17, 15
12, 13
21, 18
21, 17
17, 20
15, 22
29, 42
38, 65
51, 79
94, 132
142, 161
203, 250
263, 287
303, 325
344, 369
370, 315
348, 318
262, 263
238, 214
188, 157
131, 104
84, 58
37, 35
32, 27
9, 7
17, 10
8, 4
9, 5
7, 9
13, 9
20, 11
18, 11
17, 13
12, 8
17, 14
10, 9
7, 11
16, 4
7, 8
8, 6
6, 3
9, 4
9, 2
5, 7
6, 4
6, 5
6, 6
5, 4
8, 6
4, 0
2, 5
2, 3
3, 5
3, 4
7, 4
6, 8
4, 3
6, 4
6, 6
4, 11
3, 7
4, 9
5, 18
4, 12
7, 11
8, 10
7, 6
5, 6
3, 6
2, 8
5, 8
5, 5
2, 3
5, 1
5, 4
7, 2
4, 1
7, 5
5, 3
3, 4
7, 2
5, 4
8, 5
4, 6
9, 2
5, 6
7, 6
3, 4
2, 4
2, 3
6, 4
2, 7
3, 6
6, 6
4, 1
3, 6
2, 4
1, 6
2, 17
0, 9
4, 13
7, 14
5, 16
3, 16
2, 13
3, 19
2, 15
5, 10
6, 9
7, 9
2, 2
2, 5
3, 3
1, 1
6, 7
5, 3
4, 0
3, 5
2, 5
5, 2
3, 0
5, 5
4, 6
5, 3
3, 5
3, 5
6, 4
4, 3
3, 2
3, 4
2, 4
0, 3
6, 4
1, 4
1, 0
3, 3
4, 5
4, 4
1, 2
6, 2
6, 5
3, 1
6, 10
4, 5
6, 4
4, 4
3, 7
3, 5
6, 6
5, 4
4, 8
4, 4
2, 3
2, 4
3, 1
1, 3
3, 2
1, 4
3, 2
1, 3
6, 3
3, 3
3, 1
1, 3
1, 1
2, 2
1, 4
1, 3
4, 1
1, 4
0, 4
2, 1
2, 5
2, 2
0, 4
0, 2
3, 5
1, 3
2, 4
4, 4
3, 4
2, 5
1, 3
1, 2
2, 4
2, 1
6, 1
4, 2
3, 6
4, 4
2, 3
1, 2
5, 1
2, 0
3, 0
2, 1
2, 1
3, 2
1, 6
1, 3
2, 2
2, 2
1, 3
1, 1
2, 0
1, 3
0, 2
2, 5
1, 4
0, 5
1, 1
1, 7
2, 5
1, 4
3, 2
1, 3
1, 5
1, 2
3, 2
3, 4
1, 1
0, 2
2, 2
2, 1
1, 3
1, 3
1, 2
1, 0
2, 1
1, 3
0, 3
1, 1
3, 2
0, 1
2, 0
4, 1
2, 1
1, 0
0, 1
1, 1
1, 1
1, 2
0, 1
2, 0
2, 1
2, 0
1, 1
2, 1
4, 1
2, 2
0, 3
2, 1
1, 5
8, 6
4, 9
5, 3
5, 8
2, 2
3, 6
4, 1
1, 1
2, 3
4, 2
1, 3
3, 2
1, 1
0, 0
1, 2
3, 3
1, 0
2, 3
3, 1
3, 1
1, 2
0, 0
2, 2
2, 1
2, 1
1, 3
5, 0
4, 1
3, 0
1, 3
0, 1
1, 0
1, 1
1, 2
2, 4
3, 2
2, 3
0, 1
2, 0
2, 1
1, 3
0, 0
1, 1
0, 1
2, 2
1, 1
1, 2
1, 1
2, 4
1, 1
2, 2
2, 1
2, 5
1, 1
0, 3
2, 5
1, 1
3, 2
0, 4
3, 4
0, 1
2, 2
0, 1
0, 2
2, 1
0, 0
3, 1
1, 0
0, 0
1, 0
4, 0
0, 1
2, 1
1, 1
1, 1
2, 1
3, 0
0, 1
1, 0
1, 1
1, 0
1, 0
2, 1
1, 0
0, 1
0, 2
0, 0
1, 1
0, 1
0, 0
0, 2
0, 0
3, 0
1, 2
0, 1
1, 0
0, 2
0, 2
1, 1
1, 1
1, 0
0, 1
0, 1
0, 1
1, 1
4, 2
1, 1
1, 0
0, 2
0, 1
0, 1
0, 0
2, 0
1, 1
0, 1
0, 2
0, 0
1, 2
0, 1
1, 0
0, 0
0, 1
2, 0
1, 0
0, 0
2, 0
0, 0
2, 1
0, 0
1, 0
1, 1
2, 1
2, 0
1, 0
2, 0
1, 1
0, 1
0, 0
0, 0
0, 0
0, 2
0, 0
1, 1
0, 0
0, 0
0, 0
0, 1
0, 0
0, 1
0, 0
0, 0
0, 0
0, 0
0, 0
1, 0
1, 1
0, 0
0, 2
0, 0
1, 0
0, 0
1, 1
0, 0
0, 1
0, 1
0, 0
0, 0
0, 0
0, 0
0, 0
0, 1
0, 1
0, 1
0, 0
0, 1
0, 1
0, 0
0, 0
0, 1
0, 0
0, 1
0, 0
1, 0
1, 0
1, 0
0, 0
1, 0
1, 1
0, 0
0, 1
0, 0
0, 2
1, 1
0, 1
1, 0
0, 0
0, 0
0, 1
0, 0
0, 0
0, 1
2, 0
0, 0
0, 0
0, 0
0, 0
1, 0
0, 1
0, 0
0, 0
0, 0
0, 0
1, 1
0, 1
0, 0
0, 0
0, 0
0, 0
0, 0
0, 1
1, 0
0, 0
0, 0
0, 0
0, 0
0, 0
0, 1
1, 1
0, 0
0, 1
0, 0
1, 0
0, 0
0, 0
0, 0
0, 1
0, 1
0, 1
2, 0
0, 0
0, 0
0, 0
0, 0
0, 2
2, 0
0, 0
1, 0
0, 1
0, 2
0, 1
0, 0
0, 0
2, 0
0, 1
3, 0
1, 1
0, 0
0, 0
1, 0
0, 1
0, 2
1, 0
0, 0
1, 0
1, 0
0, 0
1, 0
0, 0
0, 0
0, 1
0, 1
0, 0
0, 1
0, 0
0, 0
1, 1
0, 0
0, 0
0, 0
0, 0
0, 0
0, 0
0, 0
0, 1
0, 0
0, 0
0, 0
0, 0
0, 0
0, 0
0, 0
0, 1
0, 0
0, 0
0, 0
0, 0
0, 0
1, 0
0, 0
0, 0
0, 0
1, 0
0, 0
0, 1
0, 0
0, 0
0, 0
0, 0
0, 0
0, 0
0, 0
1, 1
0, 0
0, 0
0, 0
0, 1
0, 0
0, 0
0, 0
1, 1
0, 1
0, 0
0, 0
0, 0
1, 0
0, 0
0, 0
0, 0
0, 1
1, 0
0, 0
0, 0
0, 0
0, 0
0, 0
0, 1
0, 0
0, 0
0, 0
0, 0
0, 0
0, 0
0, 0
0, 0
0, 0
0, 0
0, 0
0, 0
0, 0
0, 0
0, 0
0, 0
0, 0
0, 0
0, 0
0, 0
1, 0
1, 0
0, 0
0, 0
0, 0
0, 0
0, 1
0, 0
0, 0
0, 0
0, 0
0, 0
0, 0
0, 1
1, 0
0, 0
0, 0
0, 0
0, 0
0, 0
0, 0
0, 0
1, 0
0, 0
0, 0
0, 0
0, 0
0, 0
0, 0
0, 0
0, 0
0, 0
0, 0
0, 0
0, 0
0, 0
0, 0
0, 0
0, 0
0, 0
0, 0
0, 0
0, 0
0, 0
0, 0
0, 0
0, 0
0, 0
0, 0
1, 0
0, 1
0, 0
0, 0
0, 0
0, 0
0, 0
0, 0
0, 0
0, 0
0, 0
0, 0
0, 0
0, 0
0, 0
0, 0
0, 0
0, 0
0, 0
0, 1
0, 0
0, 0
0, 0
0, 0
0, 0
0, 0
0, 0
0, 0
0, 0
0, 0
0, 0
0, 0
0, 0
0, 0
0, 0
0, 0
0, 0
0, 0
0, 0
0, 0
0, 0
0, 2
0, 0
0, 0
0, 0
0, 0
0, 0
0, 0
0, 0
0, 0
0, 0
0, 0
0, 0
0, 0
0, 0
0, 0
0, 0
0, 0
0, 0
0, 0
0, 0
0, 0
0, 0
0, 0
0, 0
0, 0
0, 0
0, 0
0, 1
0, 0
0, 0
0, 0
0, 0
0, 0
0, 0
0, 0
0, 0
0, 0
0, 0
0, 0
0, 0
0, 0
0, 0
0, 0
0, 0
0, 0
0, 0
0, 0
0, 0
0, 0
0, 0
0, 0
0, 0
0, 0
0, 0
0, 0
0, 0
0, 0
0, 0
0, 0
0, 0
0, 0
0, 0
0, 0
0, 1
0, 0
0, 0
0, 0
0, 0
0, 0
0, 0
0, 0
0, 0
0, 0
0, 0
0, 0
0, 0
0, 0
0, 0
0, 0
0, 0
0, 0
0, 0
0, 0
0, 0
0, 0
1, 0
0, 0
0, 0
0, 0
0, 0
0, 0
0, 0
0, 0
0, 1
0, 0
0, 0
0, 0
0, 0
0, 0
0, 0
0, 0
0, 0
0, 0
0, 0
0, 0
0, 0
0, 0
0, 0
0, 0
0, 0
0, 0
0, 0
0, 0
0, 0
0, 0
0, 0
0, 0
0, 0
0, 0
0, 0
0, 0
0, 0
0, 0
0, 0
0, 0
0, 0
0, 0
0, 0
0, 0
0, 0
0, 0
0, 0
0, 0
0, 0
0, 0
0, 0
0, 0
0, 0
0, 0
0, 0
0, 0
0, 0
0, 0
0, 0
0, 0
0, 0
0, 0
0, 0
0, 0
0, 0
0, 0
0, 0
0, 0
0, 0
0, 0
0, 0
0, 0
0, 0
0, 0
0, 0
0, 0
0, 0
0, 0
0, 0
0, 0
0, 0
0, 0
0, 0
0, 0
0, 0
0, 0
0, 0
0, 0
0, 0
0, 0
0, 0
0, 0
0, 0
0, 0
0, 0
0, 0
0, 0
0, 0
0, 0
0, 0
0, 0
0, 0
0, 0
0, 0
0, 0
0, 0
0, 0
0, 0
0, 0
0, 0
0, 0
0, 0
0, 0
0, 0
0, 0
0, 0
0, 0
0, 0
0, 0
0, 0
0, 0
0, 0
0, 0
0, 0
0, 0
0, 0
0, 0
0, 0
0, 0
0, 0
0, 0
0, 0
0, 0
0, 0
0, 0
0, 0
0, 0
0, 0
0, 0
0, 0
0, 0
0, 0
0, 0
0, 0
0, 0
0, 0
0, 0
0, 0
0, 0
0, 0
0, 0
0, 0
0, 0
0, 0
0, 0
0, 0
0, 0
0, 0
0, 0
0, 0
0, 0
0, 0
0, 0
0, 0
0, 0
0, 0
0, 0
0, 0
0, 0
0, 0
0, 0
0, 0
0, 0
0, 0
0, 0
0, 0
0, 0
0, 0
0, 0
0, 0
0, 0
0, 0
0, 0
0, 0
0, 0
0, 0
0, 0
0, 0
0, 0
0, 0
0, 0
0, 0
0, 0
0, 0
0, 0
0, 0
0, 0
0, 0
0, 0
0, 0
0, 0
0, 0
0, 0
0, 0
0, 0
0, 0
0, 0
0, 0
0, 0
0, 0
0, 0
0, 0
0, 0
0, 0
0, 0
0, 0
0, 0
0, 0
0, 0
0, 0
0, 0
0, 0
0, 0
0, 0
0, 0
0, 0
0, 0
0, 0
0, 0
0, 0
0, 0
0, 0
0, 0
0, 0
0, 0
0, 0
0, 0
0, 0
0, 0
0, 0
0, 0
0, 0
0, 0
0, 0
0, 0
0, 0
0, 0
0, 0
0, 0
0, 0
0, 0
0, 0
0, 0
0, 0
0, 0
0, 0
0, 0
0, 0
0, 0
0, 0
0, 0
0, 0
0, 0
0, 0
0, 0
0, 0
0, 0
0, 0
0, 0
0, 0
0, 0
0, 0
0, 0
0, 0
0, 0
0, 0
0, 0
0, 0
0, 0
0, 0
0, 0
0, 0
0, 0
0, 0
0, 0
0, 0
0, 0
0, 0
0, 0
0, 0
0, 0
0, 0
0, 0
0, 0
0, 0
0, 0
0, 0
#ENDOFDATA     end of spectrum data