File: host_upload/06-09-2024/ps_0852/dump3/ps__0852shot_2347.msa
#FORMAT      : EMSA/MAS spectral data file
#VERSION     : TC202v2.0 PIXL
#TITLE       : N/A
#DATE        :       Date in the format DD-MMM-YYYY, for example 07-JUL-2010
#TIME        :             The time of day at which the spectrum was recorded, in 24-hour format
#OWNER       : PIXL Flight Model       (PIXL will use this to indicate which instrument took the data.)
#NPOINTS     : 4096     Number of data points in the spectrum (This can be zero for configuration only files)
#NCOLUMNS    : 2     Number of data columns in the spectrum (This can be zero for configuration only files)
#XUNITS      : eV
#YUNITS      : COUNTS
#DATATYPE    : YY
#XPERCHAN    : 7.862, 7.881   eV per channel (separate by commas if more than one detector)
#OFFSET      : 18.5, -22.4         eV of first channel  (separate by commas if more than one detector
#SIGNALTYPE  : XRF
#YP_TEMP     : 2.203
#LIVETIME    : 8.57169, 8.55611   seconds (separate by commas if more than one detector)
#REALTIME    : 10, 10.0   seconds (separate by commas if more than one detector)
#SPECTRUM    : start of spectrum data
0, 0
0, 0
0, 0
0, 0
0, 0
0, 0
0, 0
0, 0
0, 0
0, 0
0, 0
0, 0
0, 0
0, 0
0, 0
0, 0
0, 0
0, 0
0, 0
0, 0
0, 0
0, 0
0, 0
0, 0
0, 0
0, 0
0, 0
0, 0
0, 0
0, 0
0, 0
0, 0
0, 0
0, 0
1, 0
0, 0
0, 0
1, 0
0, 1
0, 1
0, 0
1, 0
0, 1
2, 2
0, 0
1, 1
2, 2
4, 4
9, 4
14, 15
22, 38
29, 49
58, 71
62, 85
69, 104
75, 82
59, 69
41, 60
22, 33
15, 27
6, 8
2, 6
4, 5
1, 5
2, 5
9, 9
4, 6
12, 12
8, 29
38, 54
90, 115
169, 196
236, 294
351, 425
345, 425
390, 524
338, 449
230, 328
209, 229
101, 142
70, 74
30, 39
14, 21
9, 7
4, 10
3, 3
0, 2
3, 1
2, 1
1, 2
0, 2
1, 0
0, 2
0, 2
1, 3
1, 3
2, 2
4, 2
0, 2
4, 4
5, 1
5, 3
5, 4
3, 4
2, 1
2, 4
7, 4
7, 8
6, 4
5, 7
10, 17
12, 16
18, 23
21, 37
25, 40
22, 42
23, 45
12, 31
21, 22
17, 17
15, 26
10, 19
12, 20
5, 8
13, 13
9, 6
8, 12
12, 8
3, 9
5, 1
4, 2
4, 4
2, 0
0, 3
5, 3
1, 3
2, 2
2, 4
0, 2
1, 1
1, 1
1, 1
2, 1
3, 3
4, 1
0, 1
0, 2
2, 5
2, 0
3, 3
1, 4
5, 6
5, 7
5, 8
9, 11
9, 22
11, 9
17, 16
19, 16
17, 18
10, 15
8, 10
3, 3
6, 6
3, 4
1, 4
2, 2
4, 1
4, 2
3, 5
8, 5
4, 3
7, 4
3, 2
3, 1
2, 6
1, 1
2, 3
2, 5
3, 3
3, 2
1, 3
1, 1
4, 2
0, 9
3, 2
1, 1
5, 4
4, 5
4, 5
6, 7
7, 16
5, 9
10, 12
10, 13
13, 12
18, 11
19, 12
10, 16
4, 14
9, 10
6, 11
8, 14
5, 8
6, 6
5, 3
4, 6
3, 6
3, 6
7, 4
4, 6
3, 3
7, 2
8, 5
6, 3
4, 4
6, 7
1, 2
6, 8
10, 6
6, 4
7, 7
6, 6
5, 4
6, 5
13, 13
21, 11
28, 13
46, 17
54, 13
73, 12
89, 16
103, 9
106, 15
105, 8
88, 10
77, 7
52, 6
46, 7
26, 3
19, 2
10, 6
5, 7
14, 13
22, 13
15, 20
30, 36
30, 42
63, 47
67, 59
76, 52
107, 65
113, 81
81, 60
84, 50
69, 36
38, 30
34, 19
33, 21
20, 31
21, 13
26, 37
44, 81
70, 119
137, 202
240, 384
403, 660
716, 1105
1004, 1524
1391, 1905
1656, 2363
1931, 2619
1997, 2693
2089, 2478
1839, 2165
1544, 1662
1143, 1220
787, 828
535, 500
269, 274
182, 148
75, 76
54, 39
21, 30
20, 17
8, 13
6, 18
9, 19
11, 15
8, 23
17, 26
38, 49
39, 56
69, 72
71, 141
117, 159
159, 258
243, 303
271, 401
306, 352
289, 376
280, 367
278, 326
236, 230
166, 184
116, 102
73, 72
46, 54
24, 29
18, 12
12, 10
6, 9
6, 6
5, 8
9, 12
7, 12
12, 7
10, 16
13, 14
15, 13
7, 13
8, 8
7, 9
5, 8
6, 8
3, 9
2, 3
0, 7
3, 9
1, 8
7, 9
4, 16
2, 12
3, 12
7, 5
4, 10
6, 12
7, 13
8, 12
10, 5
9, 10
5, 8
9, 4
5, 7
11, 2
8, 7
4, 8
9, 4
5, 4
3, 3
6, 9
7, 8
6, 6
3, 6
6, 3
2, 1
7, 0
5, 4
4, 7
11, 5
7, 2
7, 3
8, 5
2, 4
9, 1
2, 3
0, 6
8, 6
6, 4
5, 8
5, 5
9, 6
14, 2
10, 4
18, 3
20, 7
26, 8
20, 2
22, 6
30, 8
23, 6
20, 10
15, 14
14, 13
17, 15
10, 15
9, 7
7, 8
3, 8
2, 9
2, 3
3, 4
3, 4
1, 7
3, 5
2, 8
1, 3
3, 1
1, 4
1, 4
5, 3
3, 4
3, 1
4, 4
3, 3
2, 3
2, 3
0, 12
2, 10
3, 8
2, 7
3, 6
3, 4
6, 7
7, 6
3, 5
3, 3
2, 6
1, 6
1, 3
0, 2
2, 2
3, 2
2, 1
5, 3
2, 1
3, 4
3, 1
2, 4
5, 2
2, 7
4, 5
3, 2
2, 3
2, 3
1, 0
2, 5
0, 4
2, 6
4, 3
0, 0
1, 5
1, 1
0, 5
2, 1
2, 4
0, 1
4, 3
0, 7
1, 3
1, 6
1, 4
4, 3
4, 4
0, 7
5, 2
2, 2
6, 2
3, 3
2, 2
2, 2
7, 2
10, 3
5, 4
6, 3
9, 3
14, 4
6, 3
4, 4
2, 5
4, 5
7, 4
3, 2
3, 4
4, 4
2, 3
1, 4
0, 4
1, 6
1, 3
2, 4
5, 6
1, 2
3, 3
3, 0
0, 5
2, 1
2, 2
1, 2
0, 2
4, 3
1, 0
1, 3
0, 1
1, 4
2, 2
3, 1
2, 6
2, 4
2, 1
0, 2
1, 5
1, 2
1, 5
2, 4
0, 4
1, 4
2, 0
0, 1
1, 0
0, 2
2, 4
1, 4
0, 2
0, 1
1, 2
1, 5
0, 1
1, 1
1, 4
2, 4
0, 3
3, 5
2, 1
0, 2
2, 5
1, 1
4, 5
4, 4
3, 4
2, 1
3, 2
1, 3
1, 2
4, 3
3, 1
0, 1
1, 1
2, 0
4, 6
2, 5
2, 1
1, 14
4, 6
7, 3
2, 3
3, 2
1, 2
2, 2
3, 0
0, 3
2, 2
1, 3
1, 1
5, 0
3, 1
1, 3
0, 1
0, 0
0, 4
0, 2
2, 0
3, 4
1, 2
0, 3
0, 3
0, 3
1, 4
1, 3
0, 2
2, 3
0, 2
0, 1
3, 2
1, 1
1, 2
0, 2
3, 1
0, 2
3, 3
2, 1
1, 0
2, 1
0, 2
2, 1
1, 1
2, 1
1, 5
2, 1
0, 2
0, 0
0, 2
6, 1
3, 0
0, 2
0, 2
1, 1
1, 2
1, 0
1, 1
2, 1
1, 3
2, 1
4, 0
0, 0
1, 1
0, 1
1, 0
0, 3
1, 3
0, 1
1, 0
1, 0
0, 2
0, 2
0, 2
1, 0
2, 0
0, 1
0, 2
0, 2
0, 2
2, 0
0, 1
2, 0
0, 0
0, 1
1, 2
1, 2
1, 1
0, 0
1, 0
2, 0
0, 0
2, 1
1, 2
1, 0
0, 0
1, 0
0, 0
0, 1
3, 2
1, 0
2, 0
0, 0
1, 0
0, 1
0, 3
1, 1
1, 0
0, 1
0, 1
1, 1
0, 0
1, 0
0, 0
0, 2
1, 1
1, 1
0, 0
1, 2
0, 0
0, 1
1, 1
0, 0
0, 1
0, 1
1, 0
0, 0
0, 0
2, 0
0, 0
0, 0
0, 2
0, 2
0, 0
1, 0
0, 0
0, 1
0, 0
2, 1
0, 0
1, 1
0, 0
0, 0
0, 0
1, 0
1, 1
0, 0
2, 0
1, 0
0, 0
0, 1
1, 0
0, 1
1, 0
0, 1
1, 0
0, 0
0, 0
0, 0
0, 1
0, 2
0, 0
1, 0
0, 0
0, 0
1, 2
0, 0
0, 1
0, 0
0, 0
0, 0
1, 1
1, 2
0, 0
0, 0
0, 0
0, 0
1, 0
1, 0
0, 0
2, 0
0, 0
0, 0
0, 0
0, 0
0, 0
0, 0
1, 0
0, 0
0, 0
0, 0
0, 1
0, 0
0, 0
1, 0
2, 0
0, 0
0, 1
0, 0
0, 0
0, 0
0, 1
0, 0
0, 1
0, 0
0, 0
0, 0
0, 0
0, 1
0, 0
1, 0
0, 0
1, 0
0, 0
1, 0
0, 1
0, 0
0, 0
0, 1
0, 1
0, 0
0, 0
0, 0
0, 2
0, 0
0, 0
0, 1
0, 0
1, 0
0, 0
0, 2
0, 0
1, 0
0, 0
1, 1
1, 1
0, 2
1, 1
0, 0
0, 0
1, 0
1, 0
1, 0
0, 0
0, 0
0, 0
0, 0
0, 0
0, 0
0, 0
0, 1
0, 0
0, 1
0, 1
0, 0
0, 1
0, 0
2, 0
0, 0
0, 0
0, 1
0, 1
0, 0
0, 0
1, 0
1, 0
0, 1
0, 0
0, 0
0, 0
0, 0
1, 0
0, 0
0, 0
0, 0
0, 0
0, 0
0, 0
0, 0
0, 0
0, 0
0, 0
0, 0
0, 0
0, 0
0, 0
0, 0
0, 0
0, 1
0, 1
0, 0
0, 0
0, 0
1, 0
0, 0
0, 0
0, 0
0, 0
0, 0
0, 1
0, 0
0, 0
0, 1
0, 1
0, 0
0, 1
0, 0
0, 0
1, 0
0, 0
1, 1
0, 0
1, 0
0, 0
1, 0
0, 0
0, 0
0, 0
0, 0
0, 0
0, 1
0, 0
0, 0
0, 0
0, 1
0, 0
0, 0
0, 0
0, 0
0, 0
0, 0
0, 0
0, 0
0, 0
0, 0
0, 0
0, 1
0, 0
0, 0
0, 0
0, 0
0, 0
0, 0
0, 0
0, 0
0, 0
2, 0
0, 0
0, 0
0, 1
0, 0
0, 0
0, 0
0, 0
0, 0
0, 0
1, 0
0, 0
0, 0
0, 0
0, 0
0, 0
0, 0
0, 0
0, 0
0, 0
0, 0
0, 0
0, 0
0, 0
0, 0
0, 0
0, 0
0, 0
0, 0
0, 0
0, 0
0, 0
0, 0
0, 0
0, 0
0, 0
0, 0
0, 1
0, 0
0, 0
0, 0
0, 0
0, 0
0, 0
0, 0
1, 0
0, 0
0, 0
0, 0
0, 0
0, 0
0, 0
0, 0
0, 0
0, 0
0, 0
0, 0
0, 0
0, 0
0, 0
0, 0
0, 0
0, 0
0, 0
0, 0
0, 0
0, 0
0, 0
0, 0
0, 0
0, 0
0, 0
0, 0
0, 1
0, 0
0, 0
0, 0
0, 0
0, 0
0, 1
0, 0
0, 0
0, 0
0, 0
0, 0
0, 0
0, 0
0, 0
0, 0
0, 0
0, 0
0, 0
0, 0
0, 0
0, 0
0, 0
0, 1
0, 0
0, 0
0, 0
0, 0
0, 0
0, 0
0, 0
0, 0
0, 0
0, 0
0, 0
1, 0
0, 0
0, 0
0, 0
1, 0
0, 0
0, 0
0, 0
0, 0
0, 0
0, 0
0, 0
0, 0
0, 0
0, 0
0, 0
0, 0
0, 0
0, 0
0, 0
0, 0
0, 0
0, 0
0, 0
1, 0
0, 0
0, 0
0, 0
0, 0
0, 0
0, 0
0, 0
0, 0
0, 0
0, 0
0, 0
0, 0
0, 0
0, 0
0, 0
0, 0
0, 0
0, 0
0, 0
0, 0
0, 0
0, 0
0, 0
0, 0
0, 0
0, 0
0, 0
0, 0
0, 0
0, 0
0, 0
0, 0
0, 0
0, 0
0, 0
0, 1
0, 0
0, 0
0, 0
0, 0
0, 0
0, 0
0, 0
0, 0
0, 0
0, 0
0, 0
0, 0
0, 0
0, 0
0, 0
0, 0
0, 0
0, 0
0, 0
0, 0
0, 0
0, 0
0, 0
0, 0
0, 0
0, 0
0, 0
0, 0
0, 0
0, 0
0, 0
0, 0
0, 0
0, 0
0, 0
0, 0
0, 0
0, 0
0, 0
0, 0
0, 0
0, 0
0, 0
0, 0
0, 0
0, 0
0, 0
0, 0
0, 0
0, 0
0, 0
0, 0
0, 0
0, 0
0, 0
0, 0
0, 0
0, 0
0, 0
0, 0
0, 0
0, 0
0, 0
0, 0
0, 0
0, 0
0, 0
0, 0
0, 0
0, 0
0, 0
0, 0
0, 0
0, 0
0, 0
0, 0
0, 0
0, 0
0, 0
0, 0
0, 0
0, 0
0, 0
0, 0
0, 0
0, 0
0, 0
0, 0
0, 0
0, 0
0, 0
0, 0
0, 0
0, 0
0, 0
0, 0
0, 0
0, 0
0, 0
0, 0
0, 0
0, 0
0, 0
0, 0
0, 0
0, 0
0, 0
0, 0
0, 0
0, 0
0, 0
0, 0
0, 0
0, 0
0, 0
0, 0
0, 0
0, 0
0, 0
0, 0
0, 0
0, 0
0, 0
0, 0
0, 0
0, 0
0, 0
0, 0
0, 0
0, 0
0, 0
0, 0
0, 0
0, 0
0, 0
0, 0
0, 0
0, 0
0, 0
0, 0
0, 0
0, 0
0, 0
0, 0
0, 0
0, 0
0, 0
0, 0
0, 0
0, 0
0, 0
0, 0
0, 0
0, 0
0, 0
0, 0
0, 0
0, 0
0, 0
0, 0
0, 0
0, 0
0, 0
0, 0
0, 0
0, 0
0, 0
0, 0
0, 0
0, 0
0, 0
0, 0
0, 0
0, 0
0, 0
0, 0
0, 0
0, 0
0, 0
0, 0
0, 0
0, 0
0, 0
0, 0
0, 0
0, 0
0, 0
0, 0
0, 0
0, 0
0, 0
0, 0
0, 0
0, 0
0, 0
0, 0
0, 0
0, 0
0, 0
0, 0
0, 0
0, 0
0, 0
0, 0
0, 0
0, 0
0, 0
0, 0
0, 0
0, 0
0, 0
0, 0
0, 0
0, 0
0, 0
0, 0
0, 0
0, 0
0, 0
0, 0
0, 0
0, 0
0, 0
0, 0
0, 0
0, 0
0, 0
0, 0
0, 0
0, 0
0, 0
0, 0
0, 0
0, 0
0, 0
0, 0
0, 0
0, 0
0, 0
0, 0
0, 0
0, 0
0, 0
0, 0
0, 0
0, 0
0, 0
0, 0
0, 0
0, 0
0, 0
0, 0
0, 0
0, 0
0, 0
0, 0
0, 0
0, 0
0, 0
0, 0
0, 0
0, 0
0, 0
0, 0
0, 0
0, 0
0, 0
0, 0
0, 0
0, 0
0, 0
0, 0
0, 0
0, 0
0, 0
0, 0
0, 0
0, 0
0, 0
0, 0
0, 0
0, 0
0, 0
0, 0
0, 0
0, 0
0, 0
0, 0
0, 0
0, 0
0, 0
0, 0
0, 0
0, 0
0, 0
0, 0
0, 0
0, 0
0, 0
0, 0
0, 0
0, 0
0, 0
0, 0
0, 0
0, 0
0, 0
0, 0
0, 0
#ENDOFDATA     end of spectrum data