File: host_upload/06-09-2024/ps_0852/dump3/ps__0852shot_2300.msa
#FORMAT      : EMSA/MAS spectral data file
#VERSION     : TC202v2.0 PIXL
#TITLE       : N/A
#DATE        :       Date in the format DD-MMM-YYYY, for example 07-JUL-2010
#TIME        :             The time of day at which the spectrum was recorded, in 24-hour format
#OWNER       : PIXL Flight Model       (PIXL will use this to indicate which instrument took the data.)
#NPOINTS     : 4096     Number of data points in the spectrum (This can be zero for configuration only files)
#NCOLUMNS    : 2     Number of data columns in the spectrum (This can be zero for configuration only files)
#XUNITS      : eV
#YUNITS      : COUNTS
#DATATYPE    : YY
#XPERCHAN    : 7.862, 7.881   eV per channel (separate by commas if more than one detector)
#OFFSET      : 18.5, -22.4         eV of first channel  (separate by commas if more than one detector
#SIGNALTYPE  : XRF
#YP_TEMP     : 2.364
#LIVETIME    : 8.54446, 8.57026   seconds (separate by commas if more than one detector)
#REALTIME    : 10, 10.0   seconds (separate by commas if more than one detector)
#SPECTRUM    : start of spectrum data
0, 0
0, 0
0, 0
0, 0
0, 0
0, 0
0, 0
0, 0
0, 0
0, 0
0, 0
0, 0
0, 0
0, 0
0, 0
0, 0
0, 0
0, 0
0, 0
0, 0
0, 0
0, 0
0, 0
0, 0
0, 0
0, 0
0, 0
0, 0
0, 0
0, 0
0, 0
0, 0
0, 0
0, 0
0, 1
0, 0
0, 0
1, 2
1, 1
2, 0
1, 1
3, 0
2, 0
0, 0
1, 2
1, 1
1, 3
3, 4
3, 3
12, 11
27, 23
40, 56
56, 45
73, 69
81, 81
99, 77
58, 59
49, 37
32, 19
11, 21
5, 11
5, 4
6, 1
9, 0
3, 2
3, 6
6, 7
6, 6
25, 30
54, 56
109, 93
166, 175
283, 237
417, 378
480, 432
458, 404
399, 343
298, 261
256, 181
139, 102
83, 48
43, 37
16, 24
10, 14
13, 8
6, 1
1, 4
1, 1
2, 0
1, 0
2, 1
2, 1
2, 1
3, 1
1, 1
5, 1
6, 2
6, 7
7, 6
7, 6
2, 7
2, 2
2, 3
14, 6
4, 4
8, 6
10, 5
11, 1
10, 12
16, 15
18, 24
30, 20
29, 30
30, 38
45, 45
53, 30
55, 42
43, 39
30, 30
37, 27
22, 21
25, 20
21, 17
26, 18
14, 18
15, 12
13, 16
6, 8
14, 9
4, 4
2, 5
1, 4
4, 1
1, 1
4, 4
3, 6
3, 6
1, 1
1, 1
0, 1
3, 1
1, 4
4, 2
3, 3
3, 6
2, 4
1, 5
3, 4
7, 4
3, 4
11, 11
11, 9
14, 19
30, 16
41, 27
47, 47
56, 45
54, 37
70, 48
53, 44
41, 31
29, 30
26, 18
15, 4
16, 4
6, 8
8, 1
5, 8
6, 8
6, 9
7, 6
19, 14
6, 11
12, 14
6, 10
7, 8
7, 7
11, 10
7, 6
8, 4
4, 5
5, 8
4, 8
3, 8
10, 2
4, 6
2, 2
8, 5
8, 9
6, 9
10, 3
10, 11
13, 9
11, 15
16, 20
15, 19
19, 20
14, 22
13, 24
12, 32
16, 21
12, 32
7, 23
9, 26
8, 20
11, 24
6, 28
9, 21
7, 21
5, 19
5, 16
11, 9
13, 9
4, 10
2, 12
2, 9
5, 14
5, 13
5, 16
0, 7
7, 18
8, 12
9, 14
5, 12
13, 12
9, 10
8, 11
13, 20
14, 15
18, 9
34, 15
19, 9
33, 14
30, 12
25, 12
23, 12
21, 11
12, 12
25, 6
15, 14
17, 19
18, 13
9, 17
14, 14
15, 15
16, 19
29, 32
35, 37
55, 50
48, 58
60, 49
73, 64
70, 58
56, 52
41, 35
32, 44
31, 22
23, 20
13, 15
21, 16
23, 17
42, 33
56, 49
77, 104
148, 203
250, 375
461, 555
730, 898
1158, 1269
1539, 1656
1995, 2095
2279, 2317
2491, 2310
2248, 2137
2138, 1825
1770, 1382
1294, 1045
922, 721
588, 418
356, 237
196, 131
115, 79
60, 47
25, 24
21, 22
16, 14
19, 14
20, 21
10, 13
20, 13
31, 20
37, 27
54, 56
80, 69
96, 129
137, 156
171, 243
252, 271
303, 318
341, 341
321, 387
306, 338
301, 246
224, 199
185, 166
143, 101
90, 58
62, 49
35, 30
16, 15
21, 13
9, 12
12, 7
13, 13
9, 12
14, 10
17, 8
17, 20
14, 16
17, 12
15, 14
10, 10
10, 5
5, 6
8, 6
13, 8
2, 3
9, 3
6, 4
3, 4
8, 3
8, 6
5, 5
6, 5
5, 1
5, 11
2, 5
3, 2
3, 5
2, 3
7, 10
3, 6
8, 10
7, 7
6, 14
5, 9
13, 3
6, 13
5, 6
6, 6
5, 7
6, 5
2, 6
6, 6
8, 8
5, 3
4, 5
1, 5
3, 5
9, 8
7, 2
4, 4
3, 2
5, 1
7, 6
9, 2
9, 4
2, 3
2, 8
5, 3
9, 4
11, 6
10, 2
5, 6
4, 3
5, 3
5, 4
1, 4
7, 4
5, 1
5, 0
4, 6
4, 8
6, 6
2, 4
2, 11
8, 6
12, 17
8, 8
5, 16
4, 10
7, 14
8, 13
5, 10
1, 8
1, 12
2, 5
3, 8
7, 9
6, 3
5, 5
4, 4
1, 3
4, 6
8, 4
5, 6
1, 4
2, 5
4, 3
7, 1
3, 3
3, 6
3, 5
4, 4
1, 5
6, 4
3, 5
4, 1
4, 5
3, 1
3, 0
5, 4
2, 2
4, 2
1, 2
4, 1
6, 2
4, 5
4, 2
5, 6
3, 1
5, 2
2, 1
6, 4
1, 5
4, 0
8, 0
6, 2
4, 2
6, 2
3, 4
3, 3
5, 3
2, 4
1, 1
3, 2
5, 3
5, 4
3, 0
3, 6
3, 4
2, 3
4, 1
1, 4
4, 1
2, 3
3, 2
2, 5
1, 1
2, 4
3, 4
4, 6
5, 1
7, 3
2, 2
2, 2
2, 1
2, 2
7, 1
2, 2
2, 2
3, 3
3, 4
0, 2
1, 2
2, 1
5, 2
2, 5
5, 1
0, 3
3, 3
2, 5
1, 5
3, 4
3, 4
4, 5
4, 3
1, 3
5, 8
0, 2
4, 2
5, 2
7, 0
4, 2
1, 3
0, 3
0, 2
2, 0
1, 8
2, 2
1, 2
2, 2
2, 1
1, 1
2, 2
2, 3
1, 1
2, 5
3, 1
2, 0
3, 1
2, 2
5, 0
3, 2
2, 0
3, 4
0, 1
4, 3
2, 2
3, 2
3, 0
3, 4
1, 2
1, 1
5, 0
3, 1
1, 4
7, 2
3, 1
1, 1
5, 3
0, 3
3, 3
3, 1
4, 4
4, 5
3, 6
2, 7
3, 3
1, 5
3, 9
3, 8
1, 5
2, 6
2, 6
3, 11
4, 6
4, 5
1, 4
3, 4
3, 4
2, 2
2, 0
2, 2
0, 2
0, 2
3, 3
0, 3
1, 2
1, 3
1, 0
1, 0
3, 4
3, 2
2, 1
1, 0
2, 3
2, 4
0, 2
2, 3
1, 2
2, 2
2, 0
1, 2
1, 2
4, 0
2, 2
2, 2
2, 2
1, 1
1, 1
1, 0
1, 1
0, 0
2, 0
0, 3
0, 0
1, 3
1, 1
2, 0
2, 0
2, 1
2, 1
1, 0
1, 1
1, 0
3, 1
1, 2
1, 2
0, 0
1, 0
0, 0
2, 0
0, 1
0, 2
0, 0
1, 1
1, 2
0, 0
1, 2
1, 1
1, 0
0, 2
1, 1
1, 0
1, 1
0, 0
1, 0
0, 1
2, 0
1, 0
0, 0
1, 0
1, 1
0, 0
1, 0
1, 1
0, 1
0, 0
1, 0
1, 1
0, 0
1, 2
1, 0
0, 1
0, 0
0, 0
2, 2
0, 0
2, 1
0, 0
2, 0
1, 0
1, 0
1, 2
1, 2
1, 2
0, 1
0, 2
1, 1
0, 1
2, 1
0, 0
2, 1
0, 1
0, 0
1, 0
0, 0
1, 0
0, 3
1, 1
1, 0
0, 1
0, 0
1, 0
0, 0
0, 1
2, 1
0, 0
0, 0
1, 0
0, 1
1, 0
1, 1
1, 0
1, 0
0, 0
0, 0
1, 1
1, 2
2, 1
1, 1
0, 0
1, 2
0, 0
1, 0
0, 0
0, 0
0, 0
1, 0
0, 0
1, 1
0, 1
0, 1
1, 0
1, 0
0, 1
0, 0
2, 0
1, 1
0, 1
1, 0
0, 0
0, 0
1, 0
0, 1
0, 0
0, 2
0, 0
0, 0
0, 0
0, 0
1, 1
1, 0
1, 0
0, 0
0, 0
0, 0
0, 0
2, 0
1, 0
0, 0
0, 0
0, 0
0, 0
0, 0
0, 0
0, 0
1, 1
0, 2
0, 0
0, 0
0, 0
0, 0
0, 1
1, 0
0, 0
1, 0
0, 0
1, 0
0, 0
1, 0
0, 0
0, 1
0, 1
0, 0
0, 0
0, 1
0, 0
0, 0
0, 0
0, 1
0, 0
0, 1
1, 0
0, 0
0, 1
0, 0
1, 0
0, 1
0, 0
0, 1
0, 1
1, 0
0, 0
0, 0
0, 0
0, 0
0, 0
0, 0
0, 0
0, 0
0, 0
0, 1
0, 0
1, 0
0, 0
0, 0
0, 0
0, 1
1, 1
1, 1
2, 0
1, 0
0, 0
0, 0
0, 1
3, 0
1, 1
1, 0
0, 0
0, 1
0, 0
1, 1
2, 0
0, 0
0, 0
1, 1
0, 1
0, 0
1, 0
0, 0
0, 1
1, 1
0, 0
0, 0
0, 0
0, 0
0, 0
0, 0
0, 0
0, 0
0, 0
0, 0
0, 0
0, 0
0, 0
0, 0
0, 0
0, 0
0, 0
0, 0
0, 0
0, 0
1, 1
1, 0
0, 0
0, 1
0, 0
0, 0
0, 0
0, 0
0, 0
0, 0
0, 0
0, 0
0, 1
0, 0
0, 0
1, 0
0, 0
0, 0
0, 0
0, 0
0, 0
1, 0
0, 0
0, 0
0, 0
1, 0
0, 0
0, 0
0, 0
0, 0
0, 1
0, 0
0, 0
0, 1
0, 0
0, 0
0, 0
0, 0
1, 0
0, 0
0, 0
0, 0
0, 0
0, 0
0, 0
0, 0
0, 0
0, 0
0, 0
0, 0
0, 0
0, 0
0, 0
0, 0
0, 0
0, 0
0, 0
0, 0
0, 0
0, 0
0, 0
0, 0
0, 0
0, 0
0, 0
0, 0
1, 0
0, 0
0, 1
0, 0
0, 0
0, 1
1, 0
0, 0
0, 0
0, 1
0, 0
0, 0
0, 0
0, 0
0, 0
0, 0
0, 0
0, 0
0, 0
0, 0
0, 0
0, 0
0, 0
1, 0
0, 0
0, 0
0, 0
0, 0
0, 0
0, 0
0, 0
0, 0
0, 0
0, 0
0, 0
0, 0
0, 0
0, 0
0, 0
0, 0
0, 1
0, 0
0, 0
1, 0
0, 0
0, 0
0, 0
0, 0
0, 0
0, 0
0, 0
0, 0
0, 0
0, 0
0, 0
0, 0
0, 0
0, 0
0, 0
0, 0
0, 0
0, 0
0, 0
0, 0
0, 0
0, 0
0, 0
0, 0
0, 0
0, 0
0, 0
0, 0
0, 0
0, 0
0, 0
0, 0
0, 0
0, 0
0, 0
0, 0
0, 0
0, 0
0, 0
0, 0
0, 0
0, 0
0, 0
0, 0
0, 0
0, 0
0, 0
0, 0
0, 1
0, 0
0, 0
0, 0
0, 0
0, 0
0, 0
0, 0
0, 0
0, 0
0, 0
0, 0
0, 0
0, 0
0, 0
0, 0
0, 0
0, 0
0, 0
0, 0
0, 0
0, 0
0, 0
0, 0
0, 0
0, 0
0, 0
0, 0
0, 0
0, 0
0, 0
0, 0
0, 0
0, 0
0, 0
0, 1
0, 0
0, 0
0, 0
0, 0
0, 0
0, 0
0, 0
0, 0
0, 0
0, 0
0, 0
0, 0
0, 0
0, 0
0, 0
0, 0
0, 0
0, 0
0, 0
0, 0
0, 0
0, 0
0, 0
0, 0
0, 0
0, 0
0, 0
0, 0
0, 0
0, 0
0, 0
0, 0
0, 0
0, 0
0, 0
0, 0
0, 0
0, 0
0, 0
0, 0
0, 0
0, 0
0, 0
0, 0
0, 0
0, 0
0, 0
0, 0
0, 0
0, 0
0, 0
0, 0
0, 0
0, 0
0, 0
0, 0
0, 0
0, 0
0, 0
0, 0
0, 0
0, 0
0, 0
0, 0
0, 0
0, 0
0, 0
0, 0
0, 0
0, 0
0, 0
0, 0
0, 0
0, 0
0, 0
0, 0
0, 0
0, 0
0, 0
0, 0
0, 0
0, 0
0, 0
0, 0
0, 0
0, 0
0, 0
0, 0
0, 0
0, 0
0, 0
0, 0
0, 0
0, 0
0, 0
0, 0
0, 0
0, 0
0, 0
0, 0
0, 0
0, 0
0, 0
0, 0
0, 0
0, 0
0, 0
0, 0
0, 0
0, 0
0, 0
0, 0
0, 0
0, 0
0, 0
0, 0
0, 0
0, 0
0, 0
0, 0
0, 0
0, 0
0, 0
0, 0
0, 0
0, 0
0, 0
0, 0
0, 0
0, 0
0, 0
0, 0
0, 0
0, 0
0, 0
0, 0
0, 0
0, 0
0, 0
0, 0
0, 0
0, 0
0, 0
0, 0
0, 0
0, 0
0, 0
0, 0
0, 0
0, 0
0, 0
0, 0
0, 0
0, 0
0, 0
0, 0
0, 0
0, 0
0, 0
0, 0
0, 0
0, 0
0, 0
0, 0
0, 0
0, 0
0, 0
0, 0
0, 0
0, 0
0, 0
0, 0
0, 0
0, 0
0, 0
0, 0
0, 0
0, 0
0, 0
0, 0
0, 0
0, 0
0, 0
0, 0
0, 0
0, 0
0, 0
0, 0
0, 0
0, 0
0, 0
0, 0
0, 0
0, 0
0, 0
0, 0
0, 0
0, 0
0, 0
0, 0
0, 0
0, 0
0, 0
0, 0
0, 0
0, 0
0, 0
0, 0
0, 0
0, 0
0, 0
0, 0
0, 0
0, 0
0, 0
0, 0
0, 0
0, 0
0, 0
0, 0
0, 0
0, 0
0, 0
0, 0
0, 0
0, 0
0, 0
0, 0
0, 0
0, 0
0, 0
0, 0
0, 0
0, 0
0, 0
0, 0
0, 0
0, 0
0, 0
0, 0
0, 0
0, 0
0, 0
0, 0
0, 0
0, 0
0, 0
0, 0
0, 0
0, 0
0, 0
0, 0
0, 0
0, 0
0, 0
0, 0
0, 0
0, 0
0, 0
0, 0
0, 0
0, 0
0, 0
0, 0
0, 0
0, 0
0, 0
0, 0
0, 0
0, 0
0, 0
0, 0
0, 0
0, 0
0, 0
0, 0
0, 0
0, 0
0, 0
0, 0
0, 0
0, 0
0, 0
0, 0
0, 0
0, 0
0, 0
0, 0
0, 0
0, 0
0, 0
0, 0
0, 0
0, 0
0, 0
0, 0
0, 0
0, 0
0, 0
0, 0
0, 0
0, 0
0, 0
0, 0
0, 0
0, 0
0, 0
0, 0
0, 0
0, 0
0, 0
0, 0
0, 0
0, 0
0, 0
0, 0
0, 0
0, 0
0, 0
0, 0
0, 0
0, 0
0, 0
0, 0
0, 0
0, 0
0, 0
0, 0
0, 0
0, 0
0, 0
0, 0
0, 0
0, 0
0, 0
0, 0
0, 0
0, 0
0, 0
0, 0
0, 0
0, 0
0, 0
0, 0
0, 0
0, 0
0, 0
0, 0
#ENDOFDATA     end of spectrum data