File: host_upload/06-09-2024/ps_0852/dump3/ps__0852shot_2444.msa
#FORMAT      : EMSA/MAS spectral data file
#VERSION     : TC202v2.0 PIXL
#TITLE       : N/A
#DATE        :       Date in the format DD-MMM-YYYY, for example 07-JUL-2010
#TIME        :             The time of day at which the spectrum was recorded, in 24-hour format
#OWNER       : PIXL Flight Model       (PIXL will use this to indicate which instrument took the data.)
#NPOINTS     : 4096     Number of data points in the spectrum (This can be zero for configuration only files)
#NCOLUMNS    : 2     Number of data columns in the spectrum (This can be zero for configuration only files)
#XUNITS      : eV
#YUNITS      : COUNTS
#DATATYPE    : YY
#XPERCHAN    : 7.862, 7.881   eV per channel (separate by commas if more than one detector)
#OFFSET      : 18.5, -22.4         eV of first channel  (separate by commas if more than one detector
#SIGNALTYPE  : XRF
#YP_TEMP     : 2.46
#LIVETIME    : 8.56285, 8.54626   seconds (separate by commas if more than one detector)
#REALTIME    : 10, 10.0   seconds (separate by commas if more than one detector)
#SPECTRUM    : start of spectrum data
0, 0
0, 0
0, 0
0, 0
0, 0
0, 0
0, 0
0, 0
0, 0
0, 0
0, 0
0, 0
0, 0
0, 0
0, 0
0, 0
0, 0
0, 0
0, 0
0, 0
0, 0
0, 0
0, 0
0, 0
0, 0
0, 0
0, 0
0, 0
0, 0
0, 0
0, 0
0, 0
0, 0
1, 0
0, 0
0, 3
0, 3
1, 7
0, 15
1, 27
0, 31
3, 37
3, 23
0, 32
0, 25
4, 17
4, 8
4, 7
4, 8
8, 11
25, 33
29, 39
57, 41
83, 97
83, 97
92, 85
51, 67
40, 38
22, 26
17, 20
12, 16
3, 4
1, 4
2, 4
4, 1
3, 7
4, 8
6, 18
17, 24
41, 46
90, 112
163, 188
258, 227
337, 381
403, 382
411, 397
330, 386
279, 313
179, 202
128, 124
64, 56
24, 49
29, 14
8, 12
4, 2
2, 4
6, 2
1, 6
0, 2
0, 4
1, 1
1, 5
4, 6
3, 4
2, 3
2, 2
4, 7
2, 6
7, 3
3, 7
4, 8
3, 4
4, 10
4, 4
1, 5
4, 6
5, 24
5, 39
7, 142
14, 263
23, 528
26, 899
37, 1461
55, 1992
55, 2301
46, 2648
57, 2473
50, 1972
35, 1527
37, 923
26, 519
26, 287
27, 157
20, 61
12, 42
12, 20
10, 17
6, 13
9, 9
8, 5
4, 8
8, 3
3, 1
3, 2
1, 2
3, 3
3, 2
0, 2
2, 2
2, 1
1, 1
0, 0
1, 3
2, 1
1, 2
4, 3
1, 1
1, 3
0, 1
1, 4
4, 5
5, 4
4, 8
5, 8
8, 18
13, 13
10, 20
20, 20
17, 17
17, 19
15, 17
9, 6
10, 8
4, 6
2, 9
5, 6
8, 9
6, 15
10, 16
11, 29
5, 22
6, 34
7, 24
4, 17
8, 13
5, 15
5, 10
6, 7
9, 8
3, 6
7, 9
5, 3
2, 5
5, 5
3, 4
8, 3
5, 5
6, 3
5, 9
5, 4
8, 11
6, 10
11, 13
4, 15
16, 22
15, 14
8, 13
17, 14
16, 12
13, 23
14, 18
12, 16
7, 14
10, 5
6, 6
3, 6
4, 8
5, 5
7, 10
6, 3
4, 6
5, 5
5, 11
5, 5
6, 6
3, 6
9, 10
4, 2
5, 4
6, 3
9, 4
8, 3
10, 7
23, 9
24, 8
27, 17
22, 17
28, 25
32, 29
19, 30
33, 40
35, 24
29, 22
18, 15
11, 14
10, 11
12, 11
12, 10
4, 10
6, 10
9, 14
2, 9
3, 15
12, 7
13, 24
18, 21
25, 31
39, 54
38, 54
55, 64
58, 68
50, 69
63, 74
47, 55
38, 48
43, 34
24, 27
15, 24
16, 14
14, 12
14, 20
24, 26
38, 67
67, 106
149, 189
234, 356
453, 594
766, 920
1058, 1410
1445, 1807
1850, 2284
2173, 2507
2347, 2494
2242, 2350
2028, 1998
1578, 1589
1247, 1093
884, 753
559, 437
346, 269
187, 157
98, 87
57, 55
47, 50
33, 47
27, 31
21, 42
20, 27
25, 42
30, 45
35, 52
37, 61
50, 55
62, 104
95, 128
151, 171
197, 232
243, 300
285, 342
339, 352
322, 335
348, 336
284, 293
202, 208
159, 167
110, 106
109, 64
50, 40
24, 18
15, 16
9, 6
13, 3
4, 2
11, 8
7, 18
12, 10
14, 9
11, 9
18, 10
10, 11
11, 14
8, 8
3, 6
8, 12
5, 5
4, 2
0, 5
9, 3
1, 4
5, 2
7, 5
7, 3
5, 1
5, 2
4, 3
6, 1
4, 1
6, 2
8, 2
8, 6
9, 1
12, 7
10, 6
17, 7
14, 3
13, 9
9, 5
7, 6
14, 7
11, 7
13, 11
9, 6
6, 6
4, 6
4, 11
0, 12
2, 6
3, 5
6, 2
4, 5
4, 2
6, 4
6, 3
3, 3
6, 4
1, 5
3, 4
3, 2
5, 2
4, 3
2, 2
5, 1
4, 5
4, 4
4, 2
3, 3
5, 6
1, 4
5, 1
2, 3
5, 6
2, 5
4, 6
2, 8
5, 13
7, 15
3, 8
5, 6
6, 4
2, 6
2, 6
10, 4
11, 3
15, 6
12, 3
8, 6
13, 5
5, 7
5, 7
10, 9
6, 4
4, 5
2, 12
4, 5
4, 4
1, 5
6, 7
2, 3
4, 7
3, 4
0, 3
3, 3
3, 3
0, 8
2, 3
1, 3
2, 4
2, 4
2, 5
4, 4
2, 0
5, 2
3, 2
1, 5
1, 6
2, 0
3, 0
3, 0
1, 0
2, 4
2, 0
1, 3
0, 2
1, 4
5, 5
4, 4
2, 1
2, 2
3, 5
2, 1
1, 3
4, 0
4, 1
4, 5
4, 1
4, 0
4, 3
6, 3
3, 4
7, 3
4, 2
5, 3
3, 3
5, 1
5, 6
3, 2
5, 5
8, 6
4, 5
4, 7
0, 5
4, 6
5, 15
2, 3
0, 6
3, 4
1, 5
3, 2
0, 2
0, 1
3, 2
2, 1
1, 2
0, 6
1, 4
1, 2
1, 3
3, 2
1, 3
0, 3
2, 1
2, 1
1, 2
4, 3
1, 3
5, 2
1, 2
1, 2
0, 3
3, 4
2, 1
0, 2
1, 2
1, 3
1, 1
1, 1
1, 4
3, 2
1, 1
4, 1
3, 2
2, 3
5, 2
2, 3
3, 3
3, 0
1, 3
3, 4
5, 3
5, 5
2, 0
2, 4
5, 4
4, 2
4, 4
4, 3
3, 5
3, 5
2, 2
0, 4
0, 1
3, 4
1, 4
3, 1
4, 5
1, 2
3, 2
2, 0
0, 4
1, 2
0, 3
0, 2
4, 2
2, 2
3, 0
0, 1
1, 1
2, 6
5, 1
3, 2
3, 6
4, 2
5, 9
1, 4
5, 5
6, 5
1, 5
2, 2
3, 4
3, 2
1, 1
1, 3
1, 2
0, 0
2, 2
3, 0
0, 3
2, 2
2, 4
3, 4
3, 3
1, 1
2, 2
1, 0
4, 3
1, 3
1, 2
1, 3
0, 5
3, 5
3, 1
2, 4
3, 4
1, 1
3, 1
1, 1
2, 4
3, 2
3, 3
1, 2
2, 0
3, 1
0, 1
0, 0
1, 1
1, 2
1, 1
2, 2
1, 1
2, 0
0, 1
0, 2
3, 0
0, 0
1, 1
1, 1
0, 3
0, 1
1, 1
2, 0
0, 3
0, 0
1, 1
2, 2
0, 0
1, 0
0, 2
0, 0
0, 1
0, 1
0, 3
0, 0
1, 2
3, 1
1, 0
2, 0
1, 0
1, 1
2, 0
3, 0
1, 2
0, 0
1, 1
0, 1
0, 0
1, 0
1, 2
1, 4
1, 0
1, 1
1, 1
2, 0
0, 1
0, 2
0, 0
1, 0
2, 1
2, 1
2, 0
1, 3
2, 0
2, 0
0, 0
0, 2
0, 0
0, 0
2, 1
0, 1
1, 1
0, 0
0, 0
1, 1
0, 1
1, 1
0, 0
0, 0
1, 0
0, 0
0, 2
1, 0
1, 0
0, 1
0, 0
0, 0
1, 1
0, 0
1, 1
0, 1
0, 1
0, 0
0, 0
0, 2
0, 0
0, 0
0, 1
2, 0
0, 1
0, 1
1, 2
1, 1
0, 0
0, 3
0, 0
1, 0
0, 1
0, 0
0, 2
1, 0
1, 0
1, 0
0, 0
1, 0
2, 0
0, 0
0, 0
1, 1
1, 0
0, 0
2, 0
0, 0
0, 0
0, 1
1, 1
0, 0
1, 1
0, 0
0, 0
0, 0
1, 0
0, 0
0, 0
0, 0
0, 0
0, 0
0, 0
0, 0
1, 1
0, 0
0, 0
0, 0
1, 0
0, 0
0, 0
0, 0
0, 1
1, 0
1, 0
0, 0
0, 0
0, 0
0, 0
0, 0
0, 0
1, 0
1, 1
0, 0
0, 1
0, 0
0, 0
0, 0
1, 1
0, 0
0, 0
0, 1
0, 0
0, 0
1, 2
0, 1
0, 0
0, 0
0, 0
0, 0
1, 0
0, 0
0, 0
0, 0
0, 1
0, 0
0, 1
2, 1
0, 0
1, 0
0, 0
0, 1
0, 0
1, 0
0, 0
0, 0
0, 0
0, 1
1, 0
0, 0
0, 0
0, 0
0, 0
0, 0
0, 0
0, 0
0, 0
0, 0
0, 0
1, 0
1, 0
0, 0
0, 0
0, 0
0, 0
0, 0
1, 0
0, 1
0, 0
0, 1
1, 1
0, 0
0, 0
1, 1
0, 0
0, 0
1, 0
0, 0
2, 0
2, 1
0, 0
0, 0
0, 2
0, 0
0, 0
0, 0
0, 0
0, 0
0, 0
0, 0
0, 0
0, 0
0, 0
0, 0
0, 0
0, 1
1, 0
0, 0
0, 0
0, 1
0, 0
1, 0
2, 1
0, 0
0, 0
0, 0
0, 0
0, 0
0, 1
0, 0
0, 0
0, 0
0, 0
0, 0
0, 1
0, 0
0, 0
1, 0
0, 0
0, 0
0, 0
0, 0
1, 0
0, 0
0, 0
0, 0
0, 0
0, 0
0, 0
0, 0
0, 0
0, 0
0, 1
0, 0
0, 1
0, 0
1, 0
1, 2
0, 0
0, 0
0, 1
0, 1
0, 2
0, 0
0, 0
0, 0
0, 0
0, 0
0, 0
0, 0
0, 0
0, 0
0, 0
0, 0
0, 0
0, 0
0, 0
1, 0
0, 0
0, 0
0, 0
0, 0
0, 0
0, 0
0, 0
0, 0
0, 0
0, 0
0, 0
0, 0
0, 0
0, 0
0, 0
0, 0
0, 0
0, 0
0, 0
0, 1
0, 0
0, 0
0, 0
0, 0
0, 0
0, 0
0, 0
0, 0
0, 0
0, 0
0, 0
0, 0
0, 0
0, 0
0, 0
0, 0
0, 0
0, 0
0, 0
0, 0
0, 0
0, 0
0, 0
0, 0
0, 0
0, 0
0, 1
0, 0
0, 0
0, 0
0, 0
0, 0
0, 0
0, 0
2, 0
0, 0
0, 0
0, 0
0, 0
0, 1
0, 0
0, 0
0, 0
0, 0
0, 0
0, 0
0, 0
0, 0
0, 0
0, 0
0, 0
0, 0
0, 0
0, 0
0, 0
0, 0
0, 0
0, 0
0, 0
0, 0
0, 0
0, 0
0, 0
0, 0
1, 0
0, 0
0, 0
0, 0
0, 0
0, 0
0, 0
0, 0
1, 0
0, 0
0, 0
0, 0
0, 0
0, 0
0, 0
0, 0
0, 0
0, 0
0, 0
1, 0
0, 0
0, 1
0, 0
0, 0
0, 0
0, 0
0, 0
0, 0
0, 0
0, 0
0, 0
0, 0
0, 0
0, 0
0, 0
0, 0
0, 0
0, 0
0, 0
0, 0
0, 0
0, 0
0, 0
0, 0
0, 0
0, 0
0, 0
0, 0
0, 0
0, 0
0, 0
0, 0
0, 0
0, 0
0, 0
0, 0
0, 0
0, 0
1, 0
0, 0
0, 0
0, 0
0, 0
0, 0
0, 0
0, 0
0, 0
0, 0
0, 1
0, 0
0, 0
0, 0
0, 0
1, 0
0, 0
0, 0
0, 0
0, 0
0, 0
0, 0
0, 0
0, 0
0, 0
0, 0
0, 0
0, 0
0, 0
0, 0
0, 0
0, 0
0, 0
0, 0
0, 0
0, 0
0, 0
0, 0
0, 0
0, 0
0, 0
0, 0
0, 0
0, 0
0, 0
0, 0
0, 0
0, 0
0, 0
0, 0
0, 0
0, 0
0, 0
0, 0
0, 0
0, 0
0, 0
0, 0
0, 0
0, 0
0, 0
0, 0
0, 0
0, 0
0, 0
0, 0
0, 0
0, 0
0, 0
0, 0
0, 0
0, 0
0, 0
0, 0
0, 0
0, 0
0, 0
0, 0
0, 0
0, 0
0, 0
0, 0
0, 0
0, 0
0, 0
0, 0
0, 0
0, 0
0, 0
0, 0
0, 0
0, 0
0, 0
0, 0
0, 0
0, 0
0, 0
0, 0
0, 0
0, 0
0, 0
0, 0
0, 0
0, 0
0, 0
0, 0
0, 0
0, 0
0, 0
0, 0
0, 0
0, 0
0, 0
0, 0
0, 0
0, 0
0, 0
0, 0
0, 0
0, 0
0, 0
0, 0
0, 0
0, 0
0, 0
0, 0
0, 0
0, 0
0, 0
0, 0
0, 0
0, 0
0, 0
0, 0
0, 0
0, 0
0, 0
0, 0
0, 0
0, 0
0, 0
0, 0
0, 0
0, 0
0, 0
0, 0
0, 0
0, 0
0, 0
0, 0
0, 0
0, 0
0, 0
0, 0
0, 0
0, 0
0, 0
0, 0
0, 0
0, 0
0, 0
0, 0
0, 0
0, 0
0, 0
0, 0
0, 0
0, 0
0, 0
0, 0
0, 0
0, 0
0, 0
0, 0
0, 0
0, 0
0, 0
0, 0
0, 0
0, 0
0, 0
0, 0
0, 0
0, 0
0, 0
0, 0
0, 0
0, 0
0, 0
0, 0
0, 0
0, 0
0, 0
0, 0
0, 0
0, 0
0, 0
0, 0
0, 0
0, 0
0, 0
0, 0
0, 0
0, 0
0, 0
0, 0
0, 0
0, 0
0, 0
0, 0
0, 0
0, 0
0, 0
0, 0
0, 0
0, 0
0, 0
0, 0
0, 0
0, 0
0, 0
0, 0
0, 0
0, 0
0, 0
0, 0
0, 0
0, 0
0, 0
0, 0
0, 0
0, 0
0, 0
0, 0
0, 0
0, 0
0, 0
0, 0
0, 0
0, 0
0, 0
0, 0
0, 0
0, 0
0, 0
0, 0
0, 0
0, 0
0, 0
0, 0
0, 0
0, 0
0, 0
0, 0
0, 0
0, 0
0, 0
0, 0
0, 0
0, 0
0, 0
0, 0
0, 0
0, 0
0, 0
0, 0
0, 0
0, 0
0, 0
0, 0
0, 0
0, 0
0, 0
0, 0
0, 0
0, 0
0, 0
0, 0
0, 0
0, 0
0, 0
0, 0
0, 0
0, 0
0, 0
0, 0
0, 0
0, 0
0, 0
0, 0
0, 0
0, 0
0, 0
0, 0
0, 0
0, 0
0, 0
0, 0
0, 0
0, 0
0, 0
0, 0
0, 0
0, 0
0, 0
0, 0
0, 0
0, 0
0, 0
0, 0
0, 0
0, 0
0, 0
0, 0
0, 0
0, 0
0, 0
0, 0
0, 0
0, 0
0, 0
0, 0
0, 0
0, 0
0, 0
0, 0
0, 0
0, 0
0, 0
0, 0
0, 0
0, 0
0, 0
0, 0
0, 0
0, 0
0, 0
0, 0
0, 0
0, 0
0, 0
0, 0
0, 0
0, 0
#ENDOFDATA     end of spectrum data