File: host_upload/06-09-2024/ps_0852/dump3/ps__0852shot_2468.msa
#FORMAT      : EMSA/MAS spectral data file
#VERSION     : TC202v2.0 PIXL
#TITLE       : N/A
#DATE        :       Date in the format DD-MMM-YYYY, for example 07-JUL-2010
#TIME        :             The time of day at which the spectrum was recorded, in 24-hour format
#OWNER       : PIXL Flight Model       (PIXL will use this to indicate which instrument took the data.)
#NPOINTS     : 4096     Number of data points in the spectrum (This can be zero for configuration only files)
#NCOLUMNS    : 2     Number of data columns in the spectrum (This can be zero for configuration only files)
#XUNITS      : eV
#YUNITS      : COUNTS
#DATATYPE    : YY
#XPERCHAN    : 7.862, 7.881   eV per channel (separate by commas if more than one detector)
#OFFSET      : 18.5, -22.4         eV of first channel  (separate by commas if more than one detector
#SIGNALTYPE  : XRF
#YP_TEMP     : 2.396
#LIVETIME    : 8.55908, 8.57212   seconds (separate by commas if more than one detector)
#REALTIME    : 10, 10.0   seconds (separate by commas if more than one detector)
#SPECTRUM    : start of spectrum data
0, 0
0, 0
0, 0
0, 0
0, 0
0, 0
0, 0
0, 0
0, 0
0, 0
0, 0
0, 0
0, 0
0, 0
0, 0
0, 0
0, 0
0, 0
0, 0
0, 0
0, 0
0, 0
0, 0
0, 0
0, 0
0, 0
0, 0
0, 0
0, 0
0, 0
0, 0
0, 0
0, 0
0, 1
3, 1
1, 2
2, 1
2, 1
0, 0
3, 1
5, 1
4, 1
0, 1
3, 4
3, 1
5, 1
3, 3
4, 3
4, 7
5, 8
23, 20
33, 29
47, 52
60, 56
71, 75
64, 57
57, 49
26, 34
19, 26
10, 10
7, 9
9, 3
5, 6
8, 5
6, 5
6, 12
5, 11
12, 6
10, 25
25, 27
62, 59
109, 133
182, 196
244, 267
272, 322
244, 301
242, 265
182, 196
130, 122
76, 80
53, 49
28, 26
11, 14
7, 8
10, 8
3, 5
4, 3
3, 8
3, 5
5, 5
5, 15
15, 10
34, 39
51, 54
108, 127
223, 218
261, 330
355, 420
464, 513
449, 499
402, 455
316, 349
238, 229
159, 158
101, 116
75, 72
44, 65
59, 58
47, 49
62, 62
62, 82
101, 96
115, 115
111, 140
101, 85
118, 98
92, 78
77, 61
47, 56
47, 38
32, 38
32, 35
26, 22
30, 34
27, 24
20, 26
13, 16
13, 18
12, 10
9, 17
4, 6
9, 8
5, 6
8, 1
5, 4
5, 3
6, 9
10, 9
11, 10
20, 15
17, 19
16, 25
15, 19
15, 23
14, 17
19, 8
9, 3
10, 4
10, 6
5, 8
8, 7
8, 5
6, 11
14, 8
14, 21
17, 27
26, 21
15, 28
13, 25
14, 24
19, 23
14, 12
8, 6
3, 7
3, 13
5, 8
2, 4
4, 11
4, 7
1, 5
5, 4
7, 3
5, 12
4, 9
5, 11
6, 12
7, 14
0, 8
6, 9
7, 13
9, 14
4, 5
3, 4
2, 7
2, 14
8, 16
8, 16
3, 42
11, 50
7, 71
6, 60
11, 77
9, 79
12, 54
12, 53
17, 39
19, 39
16, 28
11, 25
11, 15
12, 10
6, 15
10, 12
7, 8
9, 7
8, 14
6, 12
8, 25
2, 23
11, 31
6, 20
8, 26
7, 25
3, 23
7, 22
6, 19
12, 16
9, 11
4, 13
5, 11
3, 10
10, 7
6, 12
9, 9
14, 9
2, 20
14, 8
9, 8
10, 15
14, 10
16, 13
8, 13
11, 9
14, 5
11, 14
8, 6
10, 10
10, 6
8, 9
9, 7
5, 10
9, 13
9, 5
13, 19
11, 14
26, 24
21, 30
23, 53
31, 53
62, 62
60, 60
54, 66
50, 68
60, 43
40, 45
33, 27
24, 27
15, 16
15, 13
16, 29
25, 16
36, 25
48, 56
71, 121
125, 182
252, 331
446, 612
669, 888
1075, 1412
1498, 1780
1838, 2151
2137, 2399
2318, 2470
2296, 2280
1951, 1852
1662, 1479
1301, 1116
852, 719
527, 478
314, 280
173, 132
91, 67
55, 46
45, 16
25, 17
21, 28
12, 11
21, 8
13, 20
20, 15
21, 21
18, 47
52, 60
61, 80
77, 130
132, 156
174, 240
236, 319
331, 324
331, 327
357, 368
331, 317
260, 294
265, 215
183, 119
136, 112
76, 71
50, 39
34, 24
13, 12
7, 11
6, 7
5, 8
5, 8
10, 9
12, 13
16, 14
12, 14
10, 9
22, 11
13, 7
9, 14
13, 8
17, 7
14, 4
14, 6
23, 6
22, 4
18, 4
22, 1
14, 2
20, 6
13, 3
13, 4
10, 3
7, 5
6, 5
3, 6
4, 6
3, 3
3, 5
4, 3
6, 10
9, 5
6, 6
2, 8
8, 9
9, 3
7, 12
5, 5
7, 18
8, 14
6, 12
3, 11
7, 19
8, 21
5, 14
9, 18
6, 8
5, 9
1, 9
5, 8
4, 7
5, 8
5, 2
11, 4
10, 3
8, 6
8, 8
11, 5
11, 6
13, 4
8, 6
4, 3
7, 3
7, 5
3, 3
4, 15
2, 5
6, 6
6, 12
9, 6
6, 12
7, 7
6, 6
8, 3
7, 9
8, 7
8, 2
5, 3
9, 5
4, 4
5, 7
5, 5
5, 7
5, 4
4, 6
6, 4
1, 3
3, 3
2, 5
5, 3
3, 4
3, 2
2, 2
6, 2
2, 5
6, 2
2, 2
3, 0
7, 3
5, 3
4, 6
2, 1
4, 5
1, 3
4, 7
3, 3
3, 2
2, 3
3, 8
3, 4
3, 8
4, 8
4, 5
7, 5
5, 4
8, 3
3, 0
2, 2
2, 4
3, 0
0, 3
7, 4
3, 2
0, 1
4, 3
1, 2
4, 1
4, 1
0, 3
4, 3
2, 0
2, 2
3, 1
2, 3
4, 3
1, 1
1, 2
2, 3
3, 2
2, 2
2, 3
2, 3
2, 1
2, 1
1, 1
0, 2
1, 4
3, 0
1, 3
1, 4
6, 1
9, 1
4, 1
5, 1
6, 2
5, 3
4, 1
3, 5
5, 0
3, 3
1, 0
0, 2
2, 0
0, 1
3, 3
1, 2
2, 1
1, 0
1, 2
1, 1
2, 1
1, 0
1, 2
1, 0
1, 2
1, 3
1, 2
3, 1
2, 2
0, 1
4, 5
1, 0
2, 2
2, 2
5, 8
1, 3
0, 4
4, 3
3, 5
2, 2
1, 1
1, 4
1, 2
1, 2
2, 3
2, 0
1, 1
1, 1
4, 1
3, 3
1, 5
1, 1
4, 4
1, 7
2, 2
2, 1
2, 2
3, 2
4, 2
3, 1
1, 0
1, 2
1, 0
0, 0
1, 0
0, 2
1, 2
1, 2
2, 2
1, 1
1, 4
0, 2
0, 2
2, 1
2, 4
2, 4
3, 5
8, 5
4, 4
7, 4
5, 6
3, 4
3, 4
4, 5
1, 3
0, 3
8, 1
2, 0
0, 5
0, 2
1, 4
3, 1
1, 0
2, 0
1, 3
1, 2
1, 1
4, 1
0, 2
1, 1
0, 0
1, 2
3, 2
2, 0
1, 5
1, 2
3, 1
1, 4
1, 3
3, 2
1, 1
1, 2
3, 3
1, 2
3, 1
1, 2
2, 1
0, 0
2, 2
0, 1
2, 3
2, 0
1, 1
0, 1
1, 1
1, 2
2, 0
1, 2
2, 4
1, 1
1, 2
0, 1
2, 0
0, 1
1, 1
0, 0
0, 0
2, 1
2, 2
3, 2
0, 1
0, 0
0, 1
2, 1
0, 0
3, 1
1, 0
0, 1
0, 1
0, 1
1, 0
0, 0
0, 1
1, 1
1, 0
1, 0
2, 1
0, 0
1, 0
0, 0
2, 1
0, 3
0, 1
0, 0
0, 1
2, 0
1, 2
0, 0
0, 0
0, 0
1, 0
0, 2
0, 1
0, 0
1, 0
0, 1
1, 0
0, 0
1, 1
0, 0
0, 0
0, 1
0, 0
1, 0
1, 2
0, 0
0, 0
1, 0
0, 1
0, 1
3, 1
0, 0
1, 1
0, 1
0, 3
1, 0
0, 0
0, 1
0, 1
2, 0
1, 1
0, 3
1, 0
0, 0
1, 0
1, 1
1, 0
2, 0
1, 0
2, 1
0, 0
1, 0
1, 0
1, 1
0, 1
0, 1
1, 1
0, 1
0, 0
1, 1
0, 0
0, 1
1, 1
1, 0
0, 0
0, 0
2, 1
0, 0
1, 0
1, 0
2, 1
0, 1
3, 1
0, 0
1, 1
0, 0
0, 0
0, 0
0, 0
1, 2
0, 2
1, 0
0, 0
1, 0
0, 1
0, 0
0, 0
0, 0
0, 1
0, 1
0, 0
0, 0
0, 0
0, 0
0, 0
0, 0
0, 0
0, 1
1, 0
0, 0
0, 0
1, 0
1, 0
0, 0
0, 0
0, 0
0, 0
0, 0
0, 0
1, 1
0, 0
0, 0
0, 0
0, 0
0, 1
1, 0
1, 0
0, 3
0, 0
0, 0
0, 0
1, 0
2, 0
0, 0
0, 0
0, 0
0, 1
1, 1
0, 0
0, 0
0, 0
0, 1
1, 1
0, 0
1, 0
0, 0
2, 1
0, 0
0, 0
0, 1
0, 0
0, 0
0, 0
0, 0
0, 1
1, 0
0, 0
0, 0
0, 0
0, 0
0, 0
0, 0
0, 0
1, 0
0, 0
0, 0
0, 1
0, 0
1, 0
0, 0
0, 2
0, 2
1, 0
1, 0
0, 0
0, 0
0, 0
1, 1
1, 0
0, 1
0, 0
0, 0
0, 0
0, 2
0, 0
0, 0
0, 0
0, 1
0, 0
0, 0
0, 0
1, 1
1, 0
1, 0
0, 0
0, 0
0, 0
0, 0
0, 0
0, 0
0, 0
1, 0
1, 0
0, 0
0, 0
0, 0
0, 0
0, 0
0, 0
0, 0
0, 0
0, 0
0, 0
0, 0
1, 0
0, 1
0, 0
0, 0
0, 0
0, 0
0, 0
0, 0
0, 0
1, 0
0, 0
0, 0
0, 0
0, 0
0, 0
0, 1
0, 0
0, 0
0, 0
1, 0
0, 0
0, 0
0, 0
0, 1
0, 0
1, 0
0, 0
0, 0
1, 0
0, 0
1, 0
0, 0
1, 1
0, 0
0, 0
0, 0
0, 0
0, 0
0, 0
0, 0
0, 0
0, 0
0, 0
0, 0
0, 0
0, 0
1, 0
0, 0
0, 0
0, 0
0, 0
0, 0
0, 0
0, 0
1, 1
0, 0
0, 0
0, 0
0, 0
0, 0
0, 0
0, 0
0, 0
0, 0
0, 0
0, 0
0, 0
0, 1
0, 0
0, 0
0, 0
0, 0
0, 0
0, 0
0, 1
0, 0
0, 0
0, 0
0, 0
0, 0
0, 0
0, 0
0, 0
0, 1
0, 0
0, 0
0, 0
0, 0
0, 0
0, 0
0, 0
0, 0
0, 0
0, 0
0, 0
0, 0
0, 0
0, 0
0, 0
0, 0
0, 0
0, 0
0, 0
0, 0
0, 0
0, 0
0, 0
0, 0
0, 0
0, 0
0, 0
0, 0
0, 0
0, 0
0, 0
0, 0
0, 0
0, 0
1, 0
0, 0
0, 0
0, 0
0, 0
0, 0
0, 0
0, 0
0, 0
0, 0
0, 0
0, 0
0, 0
0, 0
0, 0
1, 0
0, 0
0, 0
0, 0
0, 0
0, 0
0, 0
0, 0
0, 0
0, 0
0, 0
0, 0
0, 0
0, 0
0, 0
0, 0
0, 0
0, 0
0, 0
0, 0
0, 0
0, 0
0, 0
0, 0
0, 0
0, 0
0, 0
0, 0
0, 0
0, 0
0, 0
0, 0
0, 0
0, 0
0, 0
0, 0
0, 0
0, 0
1, 0
0, 0
0, 0
0, 0
0, 0
0, 0
0, 0
0, 0
0, 0
0, 0
0, 0
0, 0
0, 0
0, 0
0, 0
0, 0
0, 0
0, 0
0, 0
0, 0
0, 0
0, 0
0, 0
0, 0
0, 0
0, 0
0, 0
0, 0
0, 0
0, 0
0, 0
0, 0
0, 0
0, 0
0, 0
0, 0
0, 0
0, 0
0, 0
0, 0
0, 0
0, 0
0, 0
0, 0
0, 0
0, 0
0, 0
0, 0
0, 0
0, 0
0, 0
0, 0
0, 0
0, 0
0, 0
0, 0
0, 0
0, 0
0, 0
0, 0
0, 0
0, 0
0, 0
0, 0
0, 0
0, 0
0, 0
0, 0
0, 0
0, 0
0, 0
0, 0
0, 0
0, 0
0, 0
0, 0
0, 0
0, 0
0, 0
0, 0
0, 0
0, 0
0, 0
0, 0
0, 0
0, 0
0, 0
0, 0
0, 0
0, 0
0, 0
0, 0
0, 0
0, 0
0, 0
0, 0
0, 0
0, 0
0, 0
0, 0
0, 0
0, 0
0, 0
0, 0
0, 0
0, 0
0, 0
0, 0
0, 0
0, 0
0, 0
0, 0
0, 0
0, 0
0, 0
0, 0
0, 0
0, 0
0, 0
0, 0
0, 0
0, 0
0, 0
0, 0
0, 0
0, 0
0, 0
0, 0
0, 0
0, 0
0, 0
0, 0
0, 0
0, 0
0, 0
0, 0
0, 0
0, 0
0, 0
0, 0
0, 0
0, 0
0, 0
0, 0
0, 0
0, 0
0, 0
0, 0
0, 0
0, 0
0, 0
0, 0
0, 0
0, 0
0, 0
0, 0
0, 0
0, 0
0, 0
0, 0
0, 0
0, 0
0, 0
0, 0
0, 0
0, 0
0, 0
0, 0
0, 0
0, 0
0, 0
0, 0
0, 0
0, 0
0, 0
0, 0
0, 0
0, 0
0, 0
0, 0
0, 0
0, 0
0, 0
0, 0
0, 0
0, 0
0, 0
0, 0
0, 0
0, 0
0, 0
0, 0
0, 0
0, 0
0, 0
0, 0
0, 0
0, 0
0, 0
0, 0
0, 0
0, 0
0, 0
0, 0
0, 0
0, 0
0, 0
0, 0
0, 0
0, 0
0, 0
0, 0
0, 0
0, 0
0, 0
0, 0
0, 0
0, 0
0, 0
0, 0
0, 0
0, 0
0, 0
0, 0
0, 0
0, 0
0, 0
0, 0
0, 0
0, 0
0, 0
0, 0
0, 0
0, 0
0, 0
0, 0
0, 0
0, 0
0, 0
0, 0
0, 0
0, 0
0, 0
0, 0
0, 0
0, 0
0, 0
0, 0
0, 0
0, 0
0, 0
0, 0
0, 0
0, 0
0, 0
0, 0
0, 0
0, 0
0, 0
0, 0
0, 0
0, 0
0, 0
0, 0
0, 0
0, 0
0, 0
0, 0
0, 0
0, 0
0, 0
0, 0
0, 0
0, 0
0, 0
0, 0
0, 0
0, 0
0, 0
0, 0
0, 0
0, 0
0, 0
0, 0
0, 0
0, 0
0, 0
0, 0
0, 0
0, 0
0, 0
0, 0
0, 0
0, 0
0, 0
0, 0
0, 0
0, 0
0, 0
0, 0
0, 0
0, 0
0, 0
0, 0
0, 0
0, 0
0, 0
0, 0
0, 0
0, 0
0, 0
0, 0
0, 0
0, 0
0, 0
0, 0
0, 0
0, 0
0, 0
0, 0
0, 0
0, 0
0, 0
0, 0
0, 0
0, 0
0, 0
0, 0
0, 0
0, 0
0, 0
0, 0
0, 0
0, 0
0, 0
0, 0
0, 0
0, 0
0, 0
0, 0
0, 0
0, 0
0, 0
0, 0
0, 0
0, 0
0, 0
0, 0
0, 0
0, 0
0, 0
0, 0
0, 0
0, 0
0, 0
0, 0
0, 0
0, 0
0, 0
0, 0
0, 0
0, 0
0, 0
0, 0
0, 0
0, 0
0, 0
0, 0
0, 0
#ENDOFDATA     end of spectrum data