File: host_upload/06-09-2024/ps_0852/dump3/ps__0852shot_2079.msa
#FORMAT      : EMSA/MAS spectral data file
#VERSION     : TC202v2.0 PIXL
#TITLE       : N/A
#DATE        :       Date in the format DD-MMM-YYYY, for example 07-JUL-2010
#TIME        :             The time of day at which the spectrum was recorded, in 24-hour format
#OWNER       : PIXL Flight Model       (PIXL will use this to indicate which instrument took the data.)
#NPOINTS     : 4096     Number of data points in the spectrum (This can be zero for configuration only files)
#NCOLUMNS    : 2     Number of data columns in the spectrum (This can be zero for configuration only files)
#XUNITS      : eV
#YUNITS      : COUNTS
#DATATYPE    : YY
#XPERCHAN    : 7.862, 7.881   eV per channel (separate by commas if more than one detector)
#OFFSET      : 18.5, -22.4         eV of first channel  (separate by commas if more than one detector
#SIGNALTYPE  : XRF
#YP_TEMP     : 2.396
#LIVETIME    : 8.57483, 8.55214   seconds (separate by commas if more than one detector)
#REALTIME    : 10, 10.0   seconds (separate by commas if more than one detector)
#SPECTRUM    : start of spectrum data
0, 0
0, 0
0, 0
0, 0
0, 0
0, 0
0, 0
0, 0
0, 0
0, 0
0, 0
0, 0
0, 0
0, 0
0, 0
0, 0
0, 0
0, 0
0, 0
0, 0
0, 0
0, 0
0, 0
0, 0
0, 0
0, 0
0, 0
0, 0
0, 1
0, 0
1, 0
0, 0
1, 0
0, 0
0, 0
0, 0
0, 0
1, 0
0, 1
3, 1
3, 1
1, 1
3, 2
1, 2
2, 1
3, 0
5, 1
9, 1
8, 6
12, 7
25, 22
43, 33
70, 39
75, 62
90, 57
79, 55
56, 37
46, 24
35, 13
15, 8
7, 8
4, 5
1, 3
4, 3
5, 1
3, 3
2, 5
7, 11
24, 19
47, 41
95, 113
173, 139
265, 194
382, 336
442, 344
448, 356
387, 284
309, 231
227, 151
138, 111
100, 59
36, 29
22, 14
15, 9
7, 7
1, 2
4, 0
3, 3
4, 1
1, 0
0, 0
2, 0
2, 1
3, 0
4, 3
7, 5
7, 8
14, 11
11, 18
15, 11
16, 5
15, 9
12, 3
4, 4
9, 4
4, 4
8, 6
8, 8
19, 14
25, 14
34, 29
49, 36
91, 36
92, 59
110, 79
109, 60
94, 58
105, 63
71, 57
64, 43
46, 43
36, 35
35, 20
23, 30
21, 20
24, 17
18, 12
9, 9
12, 14
12, 8
5, 6
5, 4
1, 7
4, 2
2, 1
5, 2
3, 1
4, 1
4, 3
3, 1
4, 1
6, 3
4, 5
2, 3
0, 2
4, 1
2, 4
4, 4
2, 4
5, 2
12, 7
11, 4
5, 4
10, 11
17, 14
20, 18
21, 16
22, 11
17, 21
17, 17
12, 7
7, 5
15, 5
5, 6
1, 5
8, 5
4, 8
4, 5
4, 1
6, 6
3, 5
10, 8
12, 11
9, 5
8, 10
11, 8
17, 8
15, 8
12, 9
8, 12
11, 10
17, 5
11, 9
10, 6
12, 4
8, 6
10, 6
9, 4
7, 5
13, 1
19, 4
32, 6
21, 9
23, 14
21, 19
21, 7
12, 29
6, 28
18, 19
18, 25
17, 23
15, 23
17, 12
10, 24
8, 16
11, 19
13, 9
14, 12
15, 10
9, 6
8, 8
7, 8
10, 5
12, 4
10, 8
8, 8
11, 5
9, 3
13, 5
9, 4
8, 9
9, 8
9, 7
16, 5
8, 7
17, 8
17, 20
20, 12
21, 10
28, 15
26, 23
22, 17
24, 16
32, 16
22, 20
21, 14
20, 13
9, 11
27, 10
21, 16
20, 8
11, 4
14, 16
17, 10
15, 16
22, 18
32, 42
38, 30
49, 47
68, 57
75, 59
73, 56
63, 54
58, 42
49, 36
40, 25
35, 18
23, 15
24, 22
17, 16
30, 18
35, 34
53, 39
95, 103
183, 171
313, 294
533, 476
881, 816
1293, 1097
1615, 1435
2094, 1914
2554, 2071
2632, 2021
2594, 1852
2305, 1670
1817, 1314
1435, 954
1090, 649
693, 388
380, 233
242, 122
174, 80
92, 43
96, 28
79, 22
84, 23
91, 16
91, 17
78, 24
96, 21
84, 27
82, 27
87, 51
106, 92
162, 122
170, 141
229, 210
299, 250
334, 295
390, 294
381, 334
341, 299
320, 249
297, 227
203, 168
140, 109
99, 78
70, 52
40, 21
19, 20
9, 13
12, 11
4, 12
8, 6
19, 13
13, 10
13, 9
17, 11
16, 12
22, 7
12, 13
15, 7
15, 11
12, 11
12, 8
12, 5
9, 6
7, 6
8, 5
7, 8
8, 5
3, 3
8, 6
10, 5
3, 0
10, 5
3, 5
5, 5
7, 4
4, 0
2, 3
5, 4
4, 8
7, 4
7, 7
6, 6
6, 5
7, 4
14, 3
4, 4
4, 2
4, 3
12, 2
8, 2
11, 2
11, 6
8, 3
8, 2
3, 6
7, 6
8, 4
7, 1
9, 4
5, 5
7, 4
5, 5
6, 6
4, 7
6, 4
6, 5
7, 5
3, 5
5, 2
5, 3
3, 3
7, 7
4, 9
5, 6
3, 6
4, 7
7, 2
7, 9
7, 5
5, 2
4, 1
5, 6
3, 3
3, 1
8, 6
4, 3
3, 5
2, 5
6, 8
5, 5
8, 7
3, 5
6, 4
7, 6
2, 3
3, 3
1, 6
7, 6
5, 2
5, 3
8, 3
5, 7
3, 3
3, 6
5, 3
7, 1
5, 1
5, 6
7, 4
6, 2
11, 4
10, 2
11, 2
14, 3
17, 1
14, 3
12, 5
16, 3
9, 3
11, 4
10, 2
7, 2
3, 3
8, 1
7, 4
6, 1
1, 4
2, 3
6, 1
3, 2
4, 3
5, 1
1, 3
4, 1
7, 1
7, 3
2, 0
3, 2
8, 2
4, 1
2, 3
1, 1
4, 3
4, 1
1, 0
2, 3
3, 4
5, 4
4, 2
8, 2
3, 2
6, 3
1, 3
3, 2
4, 1
5, 1
3, 4
2, 4
3, 1
3, 4
3, 1
2, 3
0, 2
1, 6
5, 5
6, 4
3, 3
1, 1
3, 1
7, 1
3, 7
8, 1
1, 5
2, 1
2, 2
3, 0
5, 2
2, 5
0, 1
1, 1
2, 3
0, 3
3, 4
1, 3
4, 1
2, 3
1, 0
2, 1
0, 3
6, 1
0, 3
3, 2
2, 2
5, 0
4, 2
4, 5
2, 0
4, 3
4, 1
3, 3
2, 1
4, 3
3, 1
2, 3
3, 2
2, 2
3, 1
3, 3
4, 2
3, 3
3, 2
4, 2
4, 4
3, 1
4, 2
1, 0
2, 1
3, 0
4, 3
3, 2
1, 4
1, 2
3, 2
0, 0
3, 2
6, 1
4, 0
1, 0
2, 2
2, 2
0, 3
4, 2
2, 1
5, 2
4, 2
4, 2
6, 2
4, 2
5, 1
5, 4
7, 2
5, 3
7, 1
3, 2
1, 1
1, 4
0, 0
2, 2
3, 0
2, 1
0, 0
0, 3
1, 1
2, 2
3, 0
1, 1
1, 1
3, 1
2, 0
4, 2
4, 3
2, 2
3, 1
5, 0
1, 3
1, 0
4, 1
2, 3
0, 1
2, 0
2, 0
1, 1
2, 0
1, 0
2, 0
2, 0
0, 0
1, 0
0, 3
0, 4
2, 2
1, 2
3, 0
1, 0
1, 0
3, 1
2, 1
4, 0
1, 1
0, 1
1, 2
0, 2
3, 2
1, 0
3, 0
1, 1
2, 0
2, 1
1, 3
2, 1
1, 2
2, 2
1, 1
1, 1
1, 1
0, 3
1, 2
2, 1
0, 2
0, 1
0, 0
0, 0
1, 0
0, 1
0, 1
1, 0
2, 1
1, 1
0, 0
0, 0
3, 0
1, 0
4, 1
0, 0
2, 0
1, 1
0, 1
1, 2
1, 0
1, 1
1, 1
1, 0
0, 0
0, 1
0, 3
0, 0
0, 0
4, 0
0, 1
3, 0
0, 1
2, 1
1, 1
0, 0
0, 0
1, 0
0, 0
2, 3
1, 0
0, 1
0, 2
1, 0
0, 0
2, 1
1, 0
0, 0
0, 3
1, 1
0, 0
1, 0
1, 0
0, 1
2, 0
1, 1
0, 1
0, 0
0, 0
0, 1
0, 1
0, 0
0, 0
0, 1
1, 0
0, 1
0, 0
1, 1
0, 0
2, 1
0, 2
0, 0
0, 0
0, 0
0, 0
0, 1
0, 0
0, 0
1, 3
0, 1
1, 0
1, 0
0, 0
0, 1
0, 0
0, 1
0, 0
0, 0
2, 0
0, 0
2, 1
2, 2
0, 0
2, 1
1, 1
0, 1
0, 1
1, 1
0, 2
0, 0
1, 0
0, 0
0, 0
1, 1
1, 0
0, 1
0, 0
0, 0
0, 0
0, 0
0, 1
0, 0
1, 0
0, 0
1, 0
0, 0
2, 0
0, 0
1, 0
0, 0
1, 0
1, 0
0, 0
0, 0
0, 0
1, 0
0, 0
0, 0
0, 0
0, 0
0, 0
0, 0
0, 0
0, 0
0, 0
1, 0
1, 0
0, 0
0, 1
2, 0
0, 0
1, 0
0, 0
1, 0
0, 0
0, 0
1, 3
0, 1
1, 0
0, 0
0, 0
1, 0
0, 0
0, 0
0, 0
0, 0
1, 0
0, 0
0, 0
0, 0
0, 0
1, 0
1, 2
0, 0
0, 0
0, 0
0, 0
0, 0
0, 0
0, 0
0, 0
1, 0
0, 1
0, 0
0, 1
0, 0
0, 0
0, 0
0, 0
0, 0
1, 1
0, 0
0, 1
0, 0
0, 0
0, 0
1, 0
1, 2
0, 0
0, 0
0, 0
0, 0
0, 0
0, 0
0, 0
1, 0
1, 0
0, 0
0, 0
0, 0
0, 0
2, 0
0, 1
0, 0
1, 0
0, 1
0, 0
0, 0
2, 0
0, 2
0, 0
0, 0
0, 0
0, 0
0, 0
0, 0
1, 0
0, 1
0, 0
0, 0
0, 0
0, 2
0, 0
1, 0
0, 0
0, 0
0, 0
0, 0
0, 0
0, 0
0, 1
0, 0
0, 0
0, 0
0, 0
0, 0
0, 0
0, 1
0, 0
1, 1
0, 0
0, 0
0, 0
0, 2
0, 1
0, 0
1, 0
1, 0
0, 0
1, 0
0, 0
0, 0
0, 0
0, 0
0, 0
0, 0
0, 1
0, 0
0, 0
0, 0
0, 0
0, 0
0, 0
0, 0
0, 0
0, 0
0, 0
0, 0
0, 0
0, 0
0, 0
0, 0
0, 0
0, 0
0, 0
0, 0
0, 0
1, 0
0, 0
0, 0
1, 0
0, 1
0, 1
1, 0
0, 0
0, 0
0, 0
0, 0
0, 0
0, 0
0, 0
0, 0
0, 0
0, 0
0, 0
0, 0
0, 0
0, 0
0, 0
0, 0
0, 1
0, 0
0, 0
0, 0
1, 0
0, 0
0, 0
0, 0
0, 0
0, 0
0, 0
0, 0
0, 0
0, 0
0, 0
0, 0
0, 0
0, 0
0, 0
0, 0
0, 0
0, 0
0, 0
0, 0
0, 0
0, 0
0, 0
0, 0
0, 0
0, 0
0, 0
0, 1
0, 0
0, 0
0, 0
0, 0
0, 0
0, 0
0, 0
0, 0
0, 0
0, 0
0, 0
0, 0
0, 0
0, 0
0, 0
0, 0
0, 0
0, 0
0, 0
0, 0
0, 0
0, 0
0, 0
0, 0
0, 0
0, 0
0, 0
0, 0
0, 0
0, 0
0, 0
0, 0
0, 0
0, 0
0, 0
0, 0
0, 0
0, 0
0, 0
0, 0
0, 0
0, 0
0, 0
0, 0
0, 0
0, 0
0, 0
0, 0
0, 0
0, 0
0, 0
0, 0
0, 0
0, 0
0, 0
0, 0
0, 0
0, 0
0, 0
0, 0
0, 0
0, 0
0, 0
0, 0
0, 0
0, 0
0, 0
0, 0
0, 0
0, 0
0, 0
0, 0
0, 0
0, 0
0, 0
0, 0
0, 0
0, 0
0, 0
0, 0
0, 0
0, 0
0, 0
0, 0
0, 0
0, 0
0, 0
0, 0
0, 0
0, 0
0, 0
0, 0
0, 0
0, 0
0, 0
0, 0
0, 0
0, 0
0, 0
0, 0
0, 0
0, 0
0, 0
0, 0
0, 0
0, 0
0, 0
0, 0
0, 0
0, 0
0, 0
0, 0
0, 0
0, 0
0, 0
0, 0
0, 0
0, 0
0, 0
0, 0
0, 0
0, 0
0, 0
0, 0
0, 0
0, 0
0, 0
0, 0
0, 0
0, 0
0, 0
0, 0
0, 0
0, 0
0, 0
0, 0
0, 0
0, 0
0, 0
0, 0
0, 0
0, 0
0, 0
0, 0
0, 0
0, 0
0, 0
0, 0
0, 0
0, 0
0, 0
0, 0
0, 0
0, 0
0, 0
0, 0
0, 0
0, 0
0, 0
0, 0
0, 0
0, 0
0, 0
0, 0
0, 0
0, 0
0, 0
0, 0
0, 0
0, 0
0, 0
0, 0
0, 0
0, 0
0, 0
0, 0
0, 0
0, 0
0, 0
0, 0
0, 0
0, 0
0, 0
0, 0
0, 0
0, 0
0, 0
0, 0
0, 0
0, 0
0, 0
0, 0
0, 0
0, 0
0, 0
0, 0
0, 0
0, 0
0, 0
0, 0
0, 0
0, 0
0, 0
0, 0
0, 0
0, 0
0, 0
0, 0
0, 0
0, 0
0, 0
0, 0
0, 0
0, 0
0, 0
0, 0
0, 0
0, 0
0, 0
0, 0
0, 0
0, 0
0, 0
0, 0
0, 0
0, 0
0, 0
0, 0
0, 0
0, 0
0, 0
0, 0
0, 0
0, 0
0, 0
0, 0
0, 0
0, 0
0, 0
0, 0
0, 0
0, 0
0, 0
0, 0
0, 0
0, 0
0, 0
0, 0
0, 0
0, 0
0, 0
0, 0
0, 0
0, 0
0, 0
0, 0
0, 0
0, 0
0, 0
0, 0
0, 0
0, 0
0, 0
0, 0
0, 0
0, 0
0, 0
0, 0
0, 0
0, 0
0, 0
0, 0
0, 0
0, 0
0, 0
0, 0
0, 0
0, 0
0, 0
0, 0
0, 0
0, 0
0, 0
0, 0
0, 0
0, 0
0, 0
0, 0
0, 0
0, 0
0, 0
0, 0
0, 0
0, 0
0, 0
0, 0
0, 0
0, 0
0, 0
0, 0
0, 0
0, 0
0, 0
0, 0
0, 0
0, 0
0, 0
0, 0
0, 0
0, 0
0, 0
0, 0
0, 0
0, 0
0, 0
0, 0
0, 0
0, 0
0, 0
0, 0
0, 0
0, 0
0, 0
0, 0
0, 0
0, 0
0, 0
0, 0
0, 0
0, 0
0, 0
0, 0
0, 0
0, 0
0, 0
0, 0
0, 0
0, 0
0, 0
0, 0
0, 0
0, 0
0, 0
0, 0
0, 0
0, 0
0, 0
0, 0
0, 0
0, 0
0, 0
0, 0
0, 0
0, 0
0, 0
0, 0
0, 0
0, 0
0, 0
0, 0
0, 0
0, 0
0, 0
0, 0
0, 0
0, 0
0, 0
0, 0
0, 0
0, 0
0, 0
0, 0
0, 0
0, 0
0, 0
0, 0
0, 0
0, 0
0, 0
0, 0
0, 0
0, 0
0, 0
0, 0
0, 0
0, 0
0, 0
0, 0
0, 0
0, 0
0, 0
0, 0
0, 0
0, 0
0, 0
0, 0
0, 0
0, 0
0, 0
0, 0
0, 0
0, 0
0, 0
0, 0
0, 0
0, 0
0, 0
0, 0
0, 0
0, 0
0, 0
0, 0
0, 0
0, 0
0, 0
0, 0
0, 0
0, 0
0, 0
0, 0
0, 0
0, 0
#ENDOFDATA     end of spectrum data