File: host_upload/06-09-2024/ps_0852/dump3/ps__0852shot_2001.msa
#FORMAT      : EMSA/MAS spectral data file
#VERSION     : TC202v2.0 PIXL
#TITLE       : N/A
#DATE        :       Date in the format DD-MMM-YYYY, for example 07-JUL-2010
#TIME        :             The time of day at which the spectrum was recorded, in 24-hour format
#OWNER       : PIXL Flight Model       (PIXL will use this to indicate which instrument took the data.)
#NPOINTS     : 4096     Number of data points in the spectrum (This can be zero for configuration only files)
#NCOLUMNS    : 2     Number of data columns in the spectrum (This can be zero for configuration only files)
#XUNITS      : eV
#YUNITS      : COUNTS
#DATATYPE    : YY
#XPERCHAN    : 7.862, 7.881   eV per channel (separate by commas if more than one detector)
#OFFSET      : 18.5, -22.4         eV of first channel  (separate by commas if more than one detector
#SIGNALTYPE  : XRF
#YP_TEMP     : 2.396
#LIVETIME    : 8.55877, 8.56066   seconds (separate by commas if more than one detector)
#REALTIME    : 10, 10.0   seconds (separate by commas if more than one detector)
#SPECTRUM    : start of spectrum data
0, 0
0, 0
0, 0
0, 0
0, 0
0, 0
0, 0
0, 0
0, 0
0, 0
0, 0
0, 0
0, 0
0, 0
0, 0
0, 0
0, 0
0, 0
0, 0
0, 0
0, 0
0, 0
0, 0
0, 0
0, 0
0, 0
0, 0
0, 0
0, 0
0, 0
0, 0
0, 0
0, 0
0, 1
0, 1
1, 0
0, 0
0, 0
0, 0
0, 0
3, 0
0, 1
2, 0
1, 0
0, 0
1, 2
3, 0
2, 1
6, 8
10, 12
14, 29
22, 51
49, 67
61, 68
72, 71
65, 54
45, 45
33, 42
20, 23
10, 14
3, 7
5, 3
3, 1
3, 1
3, 5
0, 0
3, 6
8, 7
21, 21
34, 60
65, 114
130, 206
189, 284
299, 389
334, 407
358, 418
327, 377
242, 281
176, 184
95, 135
47, 58
41, 33
12, 22
4, 6
6, 4
2, 3
0, 1
0, 2
2, 1
0, 1
1, 0
1, 1
2, 0
5, 1
3, 4
0, 3
2, 5
5, 3
9, 6
5, 6
6, 5
4, 2
5, 3
2, 6
1, 4
2, 5
0, 2
4, 1
3, 8
7, 10
11, 15
11, 27
16, 21
37, 34
25, 49
25, 39
33, 42
23, 36
27, 29
28, 15
23, 22
17, 20
19, 20
17, 18
17, 12
8, 13
12, 16
9, 11
5, 12
5, 8
4, 5
3, 1
3, 3
2, 4
0, 6
2, 6
5, 3
1, 6
3, 3
4, 6
1, 5
0, 5
3, 3
2, 4
2, 1
5, 4
2, 2
2, 0
4, 0
1, 2
3, 4
3, 2
6, 5
9, 9
17, 5
19, 20
21, 19
13, 16
19, 22
16, 15
11, 14
9, 12
11, 5
5, 7
3, 7
3, 3
3, 6
5, 3
4, 6
4, 7
9, 11
3, 4
9, 7
3, 4
3, 8
2, 5
4, 5
2, 5
2, 6
2, 7
5, 10
4, 6
6, 4
2, 6
4, 3
1, 6
1, 3
9, 7
2, 10
10, 9
6, 15
8, 19
9, 10
7, 16
7, 15
12, 11
12, 15
16, 16
14, 23
13, 21
7, 31
11, 35
16, 42
16, 43
9, 56
10, 48
6, 65
4, 51
4, 49
7, 47
7, 29
3, 19
7, 17
10, 11
12, 6
6, 3
12, 7
12, 8
6, 3
4, 9
6, 8
6, 14
8, 4
7, 4
11, 12
9, 9
15, 12
11, 12
21, 11
20, 15
16, 18
15, 20
10, 15
14, 19
9, 8
6, 17
9, 18
4, 4
7, 9
5, 10
5, 6
11, 8
8, 11
8, 13
10, 22
13, 29
22, 46
17, 55
41, 31
39, 55
49, 57
48, 57
50, 58
41, 57
26, 36
29, 37
28, 17
26, 23
28, 22
16, 22
26, 31
32, 46
48, 49
71, 119
139, 238
227, 383
404, 650
629, 923
998, 1450
1297, 1878
1647, 2299
1841, 2411
2042, 2581
1973, 2327
1802, 2034
1394, 1655
1034, 1165
804, 806
497, 511
335, 280
191, 132
101, 90
65, 41
24, 22
20, 23
24, 16
15, 31
22, 23
15, 23
13, 23
18, 30
46, 35
34, 54
62, 94
91, 124
129, 191
167, 215
213, 294
255, 324
287, 370
311, 336
291, 330
267, 293
192, 242
183, 178
105, 113
76, 78
58, 47
26, 18
15, 10
16, 10
9, 8
8, 4
7, 9
7, 15
10, 10
8, 15
14, 16
9, 25
13, 10
14, 15
9, 10
8, 11
8, 3
7, 7
5, 3
10, 9
6, 6
9, 3
2, 5
4, 4
4, 3
3, 2
7, 6
5, 6
6, 4
3, 5
9, 3
4, 12
5, 5
4, 10
1, 20
6, 12
10, 16
3, 16
10, 10
6, 16
4, 6
5, 14
3, 9
5, 9
6, 6
5, 7
8, 2
3, 11
4, 5
5, 5
5, 5
2, 9
4, 3
5, 4
7, 2
4, 2
9, 4
5, 3
1, 5
3, 8
2, 2
4, 2
4, 3
5, 4
3, 2
2, 5
2, 3
1, 6
4, 11
4, 9
4, 6
2, 6
1, 5
1, 4
5, 4
1, 7
2, 3
5, 4
3, 2
4, 3
2, 3
4, 6
4, 6
3, 4
6, 1
2, 2
2, 6
2, 6
3, 5
5, 1
5, 3
5, 5
2, 4
2, 4
5, 6
3, 7
2, 3
9, 4
3, 3
4, 2
6, 3
3, 6
1, 5
1, 2
1, 5
7, 5
5, 5
1, 5
6, 6
1, 6
1, 3
5, 1
3, 2
2, 4
3, 3
5, 2
1, 5
4, 9
2, 3
2, 2
2, 1
5, 5
4, 4
3, 9
1, 1
2, 0
0, 5
7, 5
4, 6
0, 5
4, 3
3, 4
5, 8
3, 8
4, 1
2, 2
2, 6
9, 3
2, 4
3, 6
3, 2
3, 4
2, 8
3, 3
4, 2
2, 4
3, 2
4, 4
3, 2
3, 3
3, 4
2, 1
1, 3
3, 4
1, 2
2, 0
3, 3
0, 3
4, 3
4, 6
4, 2
2, 6
1, 3
2, 3
4, 1
1, 1
5, 1
0, 3
2, 1
5, 0
3, 3
2, 1
0, 2
1, 3
2, 0
7, 3
0, 1
1, 3
2, 0
4, 3
5, 4
2, 3
1, 2
2, 5
2, 5
3, 1
1, 6
2, 0
2, 0
0, 4
4, 1
2, 1
1, 3
3, 3
0, 1
1, 4
3, 3
0, 3
2, 2
3, 3
3, 1
2, 4
4, 2
1, 4
1, 4
3, 1
1, 1
0, 5
1, 4
0, 4
0, 2
5, 2
1, 1
4, 3
0, 3
0, 0
2, 3
1, 2
4, 3
8, 2
2, 2
5, 2
4, 1
4, 2
1, 3
0, 3
2, 4
2, 8
2, 5
7, 5
3, 1
2, 5
2, 4
2, 4
2, 5
2, 8
2, 5
7, 2
1, 3
2, 3
2, 3
1, 5
0, 2
4, 0
1, 4
1, 0
0, 4
3, 0
2, 5
3, 4
3, 3
0, 1
3, 0
1, 1
5, 1
0, 1
0, 1
2, 2
0, 2
1, 1
2, 3
1, 1
2, 2
1, 3
5, 2
1, 3
1, 1
2, 2
2, 0
0, 4
2, 3
0, 2
1, 1
4, 0
0, 0
1, 5
1, 1
1, 0
1, 0
0, 3
0, 2
1, 1
3, 0
0, 2
2, 0
1, 3
1, 1
0, 1
2, 2
0, 1
1, 1
1, 0
0, 2
1, 1
0, 2
0, 1
1, 2
3, 2
1, 2
0, 3
2, 3
0, 2
0, 1
4, 1
0, 1
0, 2
1, 0
0, 0
0, 3
2, 0
2, 1
2, 1
0, 2
1, 1
0, 0
0, 1
3, 1
2, 0
0, 2
0, 2
0, 1
4, 0
0, 0
0, 0
1, 0
1, 0
1, 2
1, 2
2, 1
0, 2
1, 0
2, 1
1, 1
0, 0
0, 1
2, 0
0, 1
0, 0
0, 2
0, 2
4, 0
0, 1
1, 1
0, 1
0, 0
0, 0
1, 0
1, 1
0, 0
2, 1
1, 0
1, 0
0, 1
0, 0
2, 0
0, 0
0, 1
0, 0
1, 1
1, 0
0, 0
0, 1
0, 0
0, 3
1, 1
0, 0
1, 1
1, 2
0, 1
0, 0
0, 0
0, 2
0, 0
0, 1
0, 0
0, 2
0, 0
0, 0
0, 1
0, 2
1, 0
1, 0
0, 0
0, 1
0, 0
0, 0
0, 0
0, 0
1, 1
0, 0
0, 1
0, 0
0, 1
0, 1
1, 2
2, 0
0, 0
1, 0
0, 2
0, 0
1, 1
1, 1
0, 1
1, 0
1, 0
0, 1
1, 0
0, 0
0, 1
0, 0
1, 0
0, 0
1, 1
1, 0
0, 0
0, 2
0, 0
0, 0
0, 0
0, 0
0, 0
0, 1
0, 0
1, 0
0, 0
0, 0
0, 0
1, 0
0, 0
0, 0
1, 0
0, 0
0, 0
1, 0
1, 0
1, 1
0, 0
0, 0
0, 0
0, 0
0, 0
0, 0
1, 1
1, 1
1, 0
0, 0
0, 0
0, 0
1, 0
0, 1
0, 0
0, 0
0, 0
0, 0
0, 0
1, 0
0, 1
0, 0
0, 2
1, 1
0, 0
0, 0
1, 0
0, 0
0, 0
1, 0
0, 0
0, 0
0, 0
0, 0
0, 0
1, 1
0, 2
0, 0
0, 0
0, 1
0, 0
0, 1
0, 0
0, 0
0, 0
0, 1
0, 0
0, 1
0, 0
0, 1
1, 2
0, 0
1, 0
1, 0
0, 0
1, 0
0, 1
0, 2
0, 0
1, 1
1, 0
1, 0
1, 0
1, 0
0, 0
0, 0
0, 0
0, 0
0, 1
0, 0
1, 0
0, 0
0, 0
0, 0
2, 1
0, 0
0, 0
0, 0
0, 0
0, 0
1, 0
1, 1
0, 0
0, 0
0, 0
0, 1
0, 1
0, 0
0, 0
0, 0
0, 0
0, 0
0, 1
0, 0
0, 0
0, 0
0, 0
0, 0
0, 1
0, 1
0, 0
0, 0
0, 0
0, 0
0, 0
0, 0
0, 0
0, 0
1, 0
0, 0
0, 0
0, 1
0, 1
0, 0
0, 0
0, 1
0, 0
0, 0
1, 0
0, 0
2, 0
0, 0
1, 0
0, 0
0, 0
0, 0
0, 0
0, 0
0, 0
0, 0
0, 0
0, 0
0, 0
0, 0
0, 0
0, 0
0, 0
0, 0
0, 0
0, 0
0, 0
0, 0
0, 1
0, 0
0, 0
0, 1
0, 0
0, 0
0, 0
0, 0
0, 0
1, 0
0, 0
0, 1
0, 0
0, 0
0, 0
0, 0
0, 0
0, 0
0, 0
0, 1
0, 0
0, 1
0, 0
0, 0
0, 0
0, 0
0, 0
0, 0
0, 0
0, 0
0, 0
0, 0
0, 0
1, 0
0, 0
0, 0
0, 1
0, 0
0, 0
0, 0
0, 0
0, 0
0, 0
2, 0
0, 0
0, 0
0, 0
0, 0
0, 0
0, 0
0, 0
0, 0
0, 0
0, 0
0, 0
0, 0
0, 0
0, 0
0, 0
0, 0
0, 0
1, 0
0, 0
0, 0
0, 0
0, 0
0, 0
0, 0
1, 0
0, 0
0, 0
0, 0
0, 0
1, 0
0, 0
0, 0
0, 0
0, 0
0, 0
0, 0
0, 0
0, 0
0, 0
0, 0
0, 0
0, 0
0, 0
0, 0
0, 0
0, 0
0, 0
0, 0
0, 0
0, 0
0, 0
0, 0
0, 0
0, 0
0, 0
0, 0
0, 0
0, 0
0, 0
0, 0
0, 0
0, 0
0, 0
0, 0
0, 0
0, 0
0, 0
0, 0
0, 0
0, 0
0, 0
0, 0
0, 0
0, 0
0, 0
0, 0
0, 0
0, 0
0, 0
0, 0
0, 0
0, 0
0, 0
0, 0
0, 0
0, 0
0, 0
0, 0
0, 0
0, 0
0, 0
0, 0
0, 0
0, 0
0, 0
0, 0
0, 0
0, 0
0, 0
0, 0
0, 0
0, 0
0, 0
0, 0
0, 0
0, 0
0, 0
0, 0
0, 0
0, 0
0, 0
0, 0
0, 0
0, 0
0, 0
0, 0
0, 0
0, 0
0, 0
0, 0
0, 0
0, 0
0, 0
0, 0
0, 0
0, 0
0, 0
0, 0
0, 0
0, 0
0, 0
0, 0
0, 0
0, 0
0, 0
0, 0
0, 0
0, 0
0, 0
0, 0
0, 0
0, 0
0, 0
0, 0
0, 0
0, 0
0, 0
0, 0
0, 0
0, 0
0, 0
0, 0
0, 0
0, 0
0, 0
0, 0
0, 0
0, 0
0, 0
0, 0
0, 0
0, 0
0, 0
0, 0
0, 0
0, 0
0, 0
0, 0
0, 0
0, 0
0, 0
0, 0
0, 0
0, 0
0, 0
0, 0
0, 0
0, 0
0, 0
0, 0
0, 0
0, 0
0, 0
0, 0
0, 0
0, 0
0, 0
0, 0
0, 0
0, 0
0, 0
0, 0
0, 0
1, 0
0, 0
0, 0
0, 0
0, 0
0, 0
0, 0
0, 0
0, 0
0, 0
0, 0
0, 0
0, 0
0, 0
0, 0
0, 0
0, 0
0, 0
0, 0
0, 0
0, 0
0, 0
0, 0
0, 0
0, 0
0, 0
0, 0
0, 0
0, 0
0, 0
0, 0
0, 0
0, 0
0, 0
0, 0
0, 0
0, 0
0, 0
0, 0
0, 0
0, 0
0, 0
0, 0
0, 0
0, 0
0, 0
0, 0
0, 0
0, 0
0, 0
0, 0
0, 0
0, 0
0, 0
0, 0
0, 0
0, 0
0, 0
0, 0
0, 0
0, 0
0, 0
0, 0
0, 0
0, 0
0, 0
0, 0
0, 0
0, 0
0, 0
0, 0
0, 0
0, 0
0, 0
0, 0
0, 0
0, 0
0, 0
0, 0
0, 0
0, 0
0, 0
0, 0
0, 0
0, 0
0, 0
0, 0
0, 0
0, 0
0, 0
0, 0
0, 0
0, 0
0, 0
0, 0
0, 0
0, 0
0, 0
0, 0
0, 0
0, 0
0, 0
0, 0
0, 0
0, 0
0, 0
0, 0
0, 0
0, 0
0, 0
0, 0
0, 0
0, 0
0, 0
0, 0
0, 0
0, 0
0, 0
0, 0
0, 0
0, 0
0, 0
0, 0
0, 0
0, 0
0, 0
0, 0
0, 0
0, 0
0, 0
0, 0
0, 0
0, 0
0, 0
0, 0
0, 0
0, 0
0, 0
0, 0
0, 0
0, 0
0, 0
0, 0
0, 0
0, 0
0, 0
0, 0
0, 0
0, 0
0, 0
0, 0
0, 0
0, 0
0, 0
0, 0
0, 0
0, 0
0, 0
0, 0
0, 0
0, 0
0, 0
0, 0
0, 0
0, 0
0, 0
0, 0
0, 0
0, 0
0, 0
0, 0
0, 0
0, 0
0, 0
0, 0
0, 0
0, 0
0, 0
0, 0
0, 0
0, 0
0, 0
0, 0
0, 0
0, 0
0, 0
0, 0
0, 0
0, 0
0, 0
0, 0
0, 0
0, 0
0, 0
0, 0
0, 0
0, 0
0, 0
0, 0
0, 0
0, 0
0, 0
0, 0
0, 0
0, 0
0, 0
0, 0
0, 0
0, 0
0, 0
0, 0
0, 0
0, 0
0, 0
0, 0
0, 0
0, 0
0, 0
0, 0
0, 0
0, 0
0, 0
0, 0
0, 0
0, 0
0, 0
0, 0
0, 0
0, 0
0, 0
0, 0
0, 0
0, 0
0, 0
0, 0
0, 0
0, 0
0, 0
0, 0
0, 0
0, 0
0, 0
0, 0
0, 0
#ENDOFDATA     end of spectrum data