File: host_upload/06-09-2024/ps_0852/dump3/ps__0852shot_2126.msa
#FORMAT      : EMSA/MAS spectral data file
#VERSION     : TC202v2.0 PIXL
#TITLE       : N/A
#DATE        :       Date in the format DD-MMM-YYYY, for example 07-JUL-2010
#TIME        :             The time of day at which the spectrum was recorded, in 24-hour format
#OWNER       : PIXL Flight Model       (PIXL will use this to indicate which instrument took the data.)
#NPOINTS     : 4096     Number of data points in the spectrum (This can be zero for configuration only files)
#NCOLUMNS    : 2     Number of data columns in the spectrum (This can be zero for configuration only files)
#XUNITS      : eV
#YUNITS      : COUNTS
#DATATYPE    : YY
#XPERCHAN    : 7.862, 7.881   eV per channel (separate by commas if more than one detector)
#OFFSET      : 18.5, -22.4         eV of first channel  (separate by commas if more than one detector
#SIGNALTYPE  : XRF
#YP_TEMP     : 2.332
#LIVETIME    : 8.55442, 8.55172   seconds (separate by commas if more than one detector)
#REALTIME    : 10, 10.0   seconds (separate by commas if more than one detector)
#SPECTRUM    : start of spectrum data
0, 0
0, 0
0, 0
0, 0
0, 0
0, 0
0, 0
0, 0
0, 0
0, 0
0, 0
0, 0
0, 0
0, 0
0, 0
0, 0
0, 0
0, 0
0, 0
0, 0
0, 0
0, 0
0, 0
0, 0
0, 0
0, 0
0, 0
0, 0
0, 0
0, 0
0, 0
0, 0
0, 0
0, 0
1, 0
0, 0
0, 0
1, 0
0, 1
1, 0
5, 0
1, 1
1, 2
2, 0
0, 3
1, 1
0, 1
4, 3
6, 4
11, 12
27, 20
42, 40
58, 52
57, 68
87, 79
81, 76
70, 60
60, 42
31, 24
19, 4
3, 10
4, 2
4, 5
5, 7
5, 4
3, 4
2, 7
4, 9
17, 10
62, 46
115, 117
198, 153
320, 276
384, 357
420, 388
479, 390
365, 348
308, 290
230, 189
145, 102
65, 58
39, 38
29, 19
8, 10
7, 0
4, 1
0, 2
1, 1
2, 0
2, 0
1, 2
0, 0
0, 0
0, 4
3, 0
1, 0
1, 2
3, 3
8, 1
3, 2
3, 3
2, 3
2, 2
2, 2
4, 1
3, 2
4, 5
2, 4
15, 8
6, 15
18, 23
22, 24
24, 38
25, 39
40, 50
47, 45
46, 43
30, 37
48, 23
39, 34
41, 20
24, 22
21, 20
18, 18
22, 10
16, 17
18, 10
14, 11
10, 8
11, 5
2, 6
6, 3
6, 2
2, 0
2, 3
4, 6
0, 2
7, 1
0, 0
5, 2
3, 4
3, 1
5, 4
2, 1
1, 3
2, 5
3, 3
5, 1
1, 3
1, 0
6, 3
5, 7
9, 21
15, 13
29, 34
34, 35
33, 43
54, 45
51, 49
35, 42
27, 26
20, 24
22, 13
8, 10
8, 4
4, 5
6, 8
6, 10
4, 7
8, 8
5, 9
12, 11
6, 14
12, 6
9, 7
13, 7
9, 4
7, 6
2, 6
1, 11
5, 4
3, 8
2, 4
6, 4
4, 4
9, 3
5, 5
6, 5
6, 12
11, 12
14, 8
13, 9
14, 11
11, 13
20, 21
16, 20
14, 14
12, 20
17, 14
9, 8
15, 10
17, 9
13, 5
7, 4
5, 5
7, 11
15, 5
15, 4
19, 5
22, 7
22, 5
21, 15
16, 3
18, 7
14, 2
16, 4
8, 10
6, 4
11, 6
8, 6
6, 5
3, 10
10, 8
9, 9
7, 7
7, 6
8, 12
11, 15
12, 15
16, 19
12, 18
14, 12
20, 18
16, 14
6, 14
12, 8
13, 7
15, 8
17, 14
22, 9
22, 16
24, 10
22, 15
31, 14
47, 27
36, 30
32, 32
35, 33
71, 43
65, 64
55, 74
67, 64
86, 55
64, 56
56, 28
43, 22
29, 34
26, 15
24, 16
18, 22
23, 20
29, 19
57, 56
91, 94
167, 198
286, 317
498, 594
821, 880
1132, 1267
1553, 1642
1953, 2085
2308, 2272
2558, 2181
2375, 2111
2170, 1792
1778, 1418
1352, 1016
942, 650
594, 410
399, 232
228, 153
122, 83
49, 43
44, 29
27, 15
23, 12
22, 17
23, 18
22, 26
28, 32
17, 35
29, 37
49, 54
68, 82
116, 120
137, 179
192, 233
267, 263
367, 304
398, 346
345, 338
341, 310
325, 271
260, 191
188, 142
132, 99
103, 47
63, 37
29, 23
21, 17
11, 12
8, 8
6, 3
13, 14
14, 5
17, 19
15, 16
20, 18
15, 9
21, 14
16, 6
16, 13
11, 8
11, 3
9, 6
10, 7
8, 1
10, 7
7, 2
3, 4
8, 3
1, 3
2, 4
2, 3
5, 5
5, 4
1, 3
1, 4
2, 8
5, 4
9, 5
1, 10
11, 14
5, 12
7, 6
5, 9
8, 16
12, 13
12, 10
7, 17
1, 15
3, 16
14, 9
11, 9
3, 6
9, 4
6, 7
6, 5
10, 5
4, 4
4, 3
10, 5
7, 1
6, 3
4, 7
4, 4
6, 6
8, 7
7, 6
5, 5
4, 3
5, 9
4, 5
6, 3
2, 5
3, 0
8, 2
6, 6
4, 9
10, 4
3, 5
3, 6
7, 5
5, 3
3, 5
7, 3
6, 5
8, 5
10, 6
13, 8
9, 4
8, 4
11, 1
3, 3
6, 6
5, 2
4, 8
5, 12
5, 2
4, 8
3, 1
4, 4
4, 6
4, 0
4, 2
5, 4
0, 3
9, 3
6, 2
4, 3
8, 4
8, 3
3, 1
9, 2
4, 4
4, 4
6, 0
2, 1
1, 4
6, 2
4, 5
4, 2
6, 3
3, 2
4, 4
3, 0
7, 6
3, 1
2, 1
5, 2
4, 2
1, 7
2, 7
4, 3
3, 4
4, 0
1, 3
2, 2
3, 8
2, 5
4, 7
2, 4
3, 5
2, 2
2, 2
1, 5
3, 2
2, 0
3, 1
6, 1
6, 3
0, 1
3, 1
4, 4
3, 3
3, 0
4, 4
4, 6
1, 1
4, 4
2, 1
2, 3
3, 1
3, 2
7, 1
6, 1
3, 3
2, 2
3, 4
2, 6
3, 5
6, 2
6, 0
3, 1
4, 2
3, 4
5, 7
3, 3
1, 0
2, 1
1, 3
0, 2
5, 3
2, 0
4, 1
2, 2
3, 1
0, 6
3, 5
7, 0
3, 0
2, 4
0, 4
1, 1
2, 1
0, 5
3, 2
3, 3
2, 2
3, 4
3, 2
2, 3
2, 2
5, 2
1, 3
2, 1
2, 4
3, 1
1, 0
2, 1
2, 3
2, 4
2, 3
2, 3
2, 1
1, 2
2, 1
3, 2
1, 0
0, 2
1, 4
2, 2
1, 1
0, 2
0, 0
1, 2
0, 0
5, 0
1, 1
1, 2
1, 2
2, 0
3, 1
4, 1
1, 2
1, 4
5, 3
0, 3
3, 3
3, 5
5, 8
6, 6
4, 6
2, 7
8, 5
2, 4
3, 3
3, 1
4, 3
1, 0
2, 1
4, 2
2, 3
1, 0
1, 1
2, 6
2, 2
2, 0
1, 1
2, 1
0, 1
2, 1
0, 3
1, 1
3, 2
1, 3
3, 3
2, 0
2, 0
0, 1
4, 2
2, 0
1, 4
0, 1
2, 1
1, 1
1, 0
4, 0
2, 0
0, 1
0, 1
2, 1
2, 1
1, 2
1, 3
0, 0
0, 0
0, 1
0, 1
2, 1
0, 2
1, 0
0, 0
0, 2
2, 1
2, 1
3, 4
1, 2
0, 0
0, 1
1, 1
2, 0
0, 2
1, 2
1, 1
0, 2
0, 0
2, 0
0, 2
2, 3
1, 1
2, 2
3, 0
3, 0
1, 3
1, 0
0, 1
0, 1
0, 1
0, 0
0, 0
1, 0
0, 0
1, 0
0, 2
0, 0
1, 0
1, 1
2, 0
0, 0
3, 2
0, 0
1, 0
0, 0
3, 0
2, 3
0, 2
2, 1
1, 0
0, 0
0, 1
0, 1
3, 0
0, 0
0, 1
0, 0
1, 0
2, 2
2, 0
0, 0
1, 0
2, 1
2, 0
0, 3
0, 0
0, 1
0, 2
1, 0
0, 1
1, 1
0, 1
0, 2
0, 1
0, 0
0, 0
0, 0
0, 0
0, 0
0, 0
0, 0
1, 0
0, 0
2, 0
0, 0
2, 0
0, 1
0, 0
1, 2
1, 1
0, 0
3, 0
0, 0
1, 1
0, 0
1, 0
0, 1
0, 1
2, 1
0, 0
1, 0
0, 0
1, 2
0, 0
1, 0
0, 0
1, 0
0, 0
0, 0
0, 0
0, 0
0, 0
0, 0
0, 1
0, 1
0, 0
1, 1
0, 0
0, 1
0, 0
0, 1
1, 0
0, 0
0, 0
0, 0
1, 0
0, 0
0, 0
0, 0
0, 0
1, 1
0, 0
0, 0
1, 0
0, 0
0, 0
1, 0
1, 0
0, 0
0, 0
0, 0
0, 0
1, 0
0, 0
0, 0
0, 1
0, 0
0, 1
1, 0
0, 0
0, 0
0, 0
0, 0
1, 0
0, 0
1, 0
0, 0
1, 0
0, 0
0, 0
0, 0
1, 0
0, 0
0, 1
1, 0
0, 0
0, 1
0, 0
0, 0
0, 0
1, 0
0, 0
2, 0
0, 0
0, 0
1, 0
0, 0
0, 2
0, 0
0, 0
0, 0
0, 0
0, 0
0, 1
0, 0
0, 0
0, 0
1, 0
0, 0
0, 0
0, 0
0, 0
0, 1
2, 0
2, 0
1, 1
0, 0
0, 1
0, 0
1, 1
0, 0
1, 0
0, 1
0, 0
0, 0
0, 0
1, 0
0, 0
0, 0
0, 0
0, 0
0, 0
0, 0
0, 0
0, 0
0, 0
0, 1
0, 0
1, 0
0, 0
1, 1
0, 0
0, 0
1, 1
0, 0
1, 1
0, 0
0, 0
0, 1
1, 0
0, 0
0, 0
0, 0
1, 0
0, 0
0, 0
0, 0
0, 0
0, 0
0, 0
0, 0
1, 0
0, 0
0, 0
0, 0
0, 0
0, 0
0, 1
0, 0
0, 0
0, 0
0, 0
0, 0
0, 0
0, 0
0, 0
0, 0
0, 0
1, 0
0, 0
1, 1
0, 0
0, 0
0, 0
1, 1
0, 0
0, 1
1, 0
0, 0
0, 0
0, 0
0, 1
2, 1
0, 0
0, 0
0, 0
0, 0
0, 0
0, 0
1, 0
0, 0
0, 1
0, 0
0, 0
0, 0
0, 0
0, 0
1, 0
0, 0
0, 0
0, 0
0, 0
0, 0
0, 0
0, 0
0, 0
0, 0
0, 1
0, 0
0, 0
0, 0
0, 0
0, 0
0, 0
0, 0
0, 0
0, 0
0, 0
0, 0
0, 0
0, 0
0, 0
0, 0
0, 0
0, 0
0, 0
0, 0
0, 0
0, 0
0, 0
0, 0
0, 0
0, 0
0, 1
0, 0
0, 0
0, 0
0, 0
0, 0
0, 0
0, 0
0, 0
0, 0
0, 0
0, 0
0, 0
0, 0
0, 0
0, 0
0, 0
0, 0
0, 0
0, 0
0, 0
0, 0
0, 0
0, 0
0, 0
0, 0
0, 0
0, 0
0, 0
0, 0
0, 0
0, 0
0, 0
0, 0
0, 0
0, 0
0, 0
0, 0
0, 0
0, 0
0, 0
0, 0
0, 0
0, 0
0, 0
0, 0
0, 0
0, 0
0, 0
0, 0
0, 0
0, 0
0, 0
0, 0
0, 0
0, 0
0, 0
0, 0
0, 1
0, 0
0, 0
0, 0
0, 0
0, 0
0, 0
0, 0
0, 1
0, 0
0, 0
0, 0
0, 0
0, 0
0, 0
0, 0
0, 0
0, 0
0, 0
0, 0
0, 0
0, 0
0, 0
0, 0
0, 0
0, 0
0, 0
0, 0
0, 0
0, 0
0, 0
0, 0
0, 0
0, 0
0, 0
0, 0
0, 0
0, 0
0, 0
0, 0
0, 0
0, 0
0, 0
0, 0
0, 0
0, 0
0, 0
0, 0
0, 0
0, 0
0, 0
0, 0
0, 0
0, 0
0, 0
0, 0
0, 0
0, 0
0, 0
0, 0
0, 0
0, 0
0, 0
0, 0
0, 0
0, 0
0, 0
0, 0
0, 0
0, 0
0, 0
0, 0
0, 0
0, 0
0, 0
0, 0
0, 0
0, 0
0, 0
0, 0
0, 0
0, 0
0, 0
0, 0
0, 0
0, 0
0, 0
0, 0
0, 0
0, 0
0, 0
0, 0
0, 0
0, 0
0, 0
0, 0
0, 0
0, 0
0, 0
0, 0
0, 0
0, 0
0, 0
0, 0
0, 0
0, 0
0, 0
0, 0
0, 0
0, 0
0, 0
0, 0
0, 0
0, 0
0, 0
0, 0
0, 0
0, 0
0, 0
0, 0
0, 0
0, 0
0, 0
0, 0
0, 0
0, 0
0, 0
0, 0
0, 0
0, 0
0, 0
0, 0
0, 0
0, 0
0, 0
0, 0
0, 0
0, 0
0, 0
0, 0
0, 0
0, 0
0, 0
0, 0
0, 0
0, 0
0, 0
0, 0
0, 0
0, 0
0, 0
0, 0
0, 0
0, 0
0, 0
0, 0
0, 0
0, 0
0, 0
0, 0
0, 0
0, 0
0, 0
0, 0
0, 0
0, 0
0, 0
0, 0
0, 0
0, 0
0, 0
0, 0
0, 0
0, 0
0, 0
0, 0
0, 0
0, 0
0, 0
0, 0
0, 0
0, 0
0, 0
0, 0
0, 0
0, 0
0, 0
0, 0
0, 0
0, 0
0, 0
0, 0
0, 0
0, 0
0, 0
0, 0
0, 0
0, 0
0, 0
0, 0
0, 0
0, 0
0, 0
0, 0
0, 0
0, 0
0, 0
0, 0
0, 0
0, 0
0, 0
0, 0
0, 0
0, 0
0, 0
0, 0
0, 0
0, 0
0, 0
0, 0
0, 0
0, 0
0, 0
0, 0
0, 0
0, 0
0, 0
0, 0
0, 0
0, 0
0, 0
0, 0
0, 0
0, 0
0, 0
0, 0
0, 0
0, 0
0, 0
0, 0
0, 0
0, 0
0, 0
0, 0
0, 0
0, 0
0, 0
0, 0
0, 0
0, 0
0, 0
0, 0
0, 0
0, 0
0, 0
0, 0
0, 0
0, 0
0, 0
0, 0
0, 0
0, 0
0, 0
0, 0
0, 0
0, 0
0, 0
0, 0
0, 0
0, 0
0, 0
0, 0
0, 0
0, 0
0, 0
0, 0
0, 0
0, 0
0, 0
0, 0
0, 0
0, 0
0, 0
0, 0
0, 0
0, 0
0, 0
0, 0
0, 0
0, 0
0, 0
0, 0
0, 0
0, 0
0, 0
0, 0
0, 0
0, 0
0, 0
0, 0
0, 0
0, 0
0, 0
0, 0
0, 0
0, 0
0, 0
0, 0
0, 0
0, 0
0, 0
0, 0
0, 0
0, 0
0, 0
0, 0
0, 0
0, 0
0, 0
0, 0
0, 0
0, 0
0, 0
0, 0
0, 0
0, 0
0, 0
0, 0
0, 0
0, 0
0, 0
0, 0
0, 0
0, 0
0, 0
0, 0
0, 0
0, 0
0, 0
0, 0
0, 0
0, 0
0, 0
0, 0
0, 0
0, 0
0, 0
0, 0
0, 0
0, 0
0, 0
0, 0
0, 0
0, 0
0, 0
0, 0
0, 0
0, 0
0, 0
0, 0
0, 0
0, 0
0, 0
0, 0
0, 0
0, 0
0, 0
0, 0
0, 0
0, 0
0, 0
0, 0
0, 0
0, 0
0, 0
0, 0
0, 0
0, 0
0, 0
0, 0
0, 0
0, 0
0, 0
0, 0
0, 0
0, 0
0, 0
0, 0
0, 0
0, 0
0, 0
0, 0
0, 0
0, 0
0, 0
0, 0
#ENDOFDATA     end of spectrum data