File: host_upload/06-09-2024/ps_0852/dump3/ps__0852shot_2510.msa
#FORMAT      : EMSA/MAS spectral data file
#VERSION     : TC202v2.0 PIXL
#TITLE       : N/A
#DATE        :       Date in the format DD-MMM-YYYY, for example 07-JUL-2010
#TIME        :             The time of day at which the spectrum was recorded, in 24-hour format
#OWNER       : PIXL Flight Model       (PIXL will use this to indicate which instrument took the data.)
#NPOINTS     : 4096     Number of data points in the spectrum (This can be zero for configuration only files)
#NCOLUMNS    : 2     Number of data columns in the spectrum (This can be zero for configuration only files)
#XUNITS      : eV
#YUNITS      : COUNTS
#DATATYPE    : YY
#XPERCHAN    : 7.862, 7.881   eV per channel (separate by commas if more than one detector)
#OFFSET      : 18.5, -22.4         eV of first channel  (separate by commas if more than one detector
#SIGNALTYPE  : XRF
#YP_TEMP     : 2.171
#LIVETIME    : 8.5663, 8.55001   seconds (separate by commas if more than one detector)
#REALTIME    : 10, 10.0   seconds (separate by commas if more than one detector)
#SPECTRUM    : start of spectrum data
0, 0
0, 0
0, 0
0, 0
0, 0
0, 0
0, 0
0, 0
0, 0
0, 0
0, 0
0, 0
0, 0
0, 0
0, 0
0, 0
0, 0
0, 0
0, 0
0, 0
0, 0
0, 0
0, 0
0, 0
0, 0
0, 0
0, 0
0, 0
0, 0
0, 0
0, 0
0, 0
0, 0
0, 1
0, 0
0, 1
0, 1
0, 0
3, 1
0, 1
0, 3
2, 1
1, 1
2, 0
1, 0
3, 1
0, 5
2, 3
7, 3
9, 6
26, 17
36, 29
59, 50
79, 76
73, 86
71, 66
65, 54
42, 31
19, 19
16, 11
6, 7
2, 2
1, 3
5, 2
6, 2
4, 4
4, 7
14, 11
16, 22
54, 39
74, 88
164, 130
220, 215
344, 300
421, 348
434, 377
375, 312
277, 235
196, 152
119, 111
68, 62
45, 34
24, 11
12, 9
3, 6
4, 4
3, 2
4, 6
6, 3
2, 3
8, 4
10, 8
12, 12
28, 23
35, 44
74, 61
102, 105
124, 137
136, 168
151, 165
147, 137
118, 115
91, 76
60, 49
41, 38
26, 30
26, 22
14, 21
14, 23
22, 27
36, 40
44, 38
68, 38
60, 47
63, 55
92, 58
89, 36
46, 32
53, 44
45, 17
37, 27
38, 24
25, 24
15, 27
20, 16
16, 26
10, 14
11, 16
9, 8
6, 5
4, 6
8, 3
1, 5
5, 3
1, 5
2, 2
5, 3
3, 1
4, 3
10, 4
1, 3
7, 3
3, 4
3, 4
1, 5
2, 6
1, 2
1, 1
2, 4
4, 5
2, 2
5, 3
4, 9
10, 12
13, 16
11, 14
22, 20
24, 23
22, 21
23, 34
23, 14
11, 12
9, 7
10, 9
15, 4
4, 7
17, 3
15, 10
15, 6
30, 9
22, 5
15, 5
10, 8
12, 9
9, 7
7, 9
6, 12
4, 16
7, 8
10, 15
5, 11
5, 14
7, 11
4, 6
5, 5
4, 7
4, 8
7, 4
6, 4
1, 5
12, 10
10, 5
9, 9
8, 14
17, 11
17, 11
12, 5
9, 15
11, 26
13, 26
20, 24
10, 30
7, 34
12, 24
9, 26
9, 23
9, 17
4, 12
10, 19
5, 13
7, 4
6, 10
14, 9
8, 6
8, 7
7, 7
4, 4
8, 8
7, 5
5, 8
4, 6
9, 6
8, 17
5, 6
9, 17
10, 16
10, 16
14, 15
16, 19
24, 21
10, 31
13, 19
13, 25
22, 20
8, 9
10, 11
9, 9
16, 18
10, 23
9, 21
13, 42
14, 48
13, 70
22, 63
22, 65
27, 72
23, 74
51, 66
52, 75
67, 73
58, 67
57, 70
54, 63
69, 55
38, 42
40, 33
33, 25
48, 15
57, 12
85, 26
83, 14
98, 26
115, 46
140, 95
206, 175
334, 319
524, 567
751, 898
1184, 1270
1597, 1645
2053, 2017
2289, 2298
2542, 2330
2382, 2155
2026, 1791
1677, 1452
1359, 957
965, 684
582, 421
354, 252
187, 116
93, 66
43, 40
31, 30
17, 16
24, 15
9, 16
9, 21
28, 18
19, 21
26, 23
35, 40
40, 55
73, 74
80, 133
144, 171
219, 225
322, 294
343, 320
364, 335
366, 346
333, 302
276, 268
258, 226
219, 142
123, 113
76, 58
53, 44
32, 23
34, 7
10, 4
10, 7
8, 5
15, 10
13, 14
11, 10
24, 12
12, 14
12, 15
14, 12
18, 6
13, 6
9, 11
8, 6
10, 4
4, 9
4, 9
7, 4
6, 1
5, 6
8, 4
13, 12
12, 2
11, 4
10, 3
7, 3
11, 3
6, 8
6, 5
5, 5
6, 8
4, 4
10, 7
4, 8
6, 7
6, 7
7, 10
4, 6
7, 6
12, 5
9, 12
16, 5
12, 6
14, 0
27, 5
31, 3
40, 9
39, 4
52, 3
55, 5
35, 7
50, 4
37, 8
32, 2
27, 7
31, 3
11, 5
17, 10
8, 3
3, 3
6, 3
6, 2
3, 4
8, 4
4, 3
3, 2
7, 2
2, 1
5, 1
3, 2
4, 3
1, 3
3, 1
1, 1
4, 3
4, 3
5, 1
2, 4
0, 4
0, 4
3, 6
3, 3
6, 4
2, 4
2, 6
6, 2
4, 4
8, 9
5, 7
5, 3
3, 5
4, 5
2, 5
2, 3
3, 1
6, 6
2, 5
2, 3
2, 2
1, 6
4, 1
4, 3
3, 2
5, 5
2, 2
3, 3
4, 0
5, 1
5, 3
6, 5
5, 3
0, 4
3, 2
3, 3
2, 1
5, 3
3, 2
3, 2
5, 8
0, 5
6, 6
3, 5
5, 1
3, 3
3, 4
2, 1
5, 5
6, 2
1, 8
3, 1
1, 2
4, 2
2, 1
5, 2
4, 6
3, 1
1, 2
1, 0
6, 3
7, 7
4, 1
4, 6
2, 2
4, 0
4, 1
2, 4
2, 3
3, 8
1, 2
4, 0
3, 3
1, 4
2, 5
3, 6
3, 1
1, 3
5, 1
2, 1
1, 2
2, 3
3, 6
0, 1
1, 3
2, 3
3, 2
4, 0
5, 7
0, 3
3, 2
2, 1
3, 2
1, 4
2, 2
1, 4
7, 4
1, 1
2, 4
3, 4
2, 8
3, 4
1, 6
5, 4
0, 1
1, 4
1, 2
5, 4
5, 0
1, 2
3, 3
1, 2
3, 1
2, 5
1, 4
0, 3
4, 1
3, 4
2, 2
1, 3
3, 2
2, 2
1, 2
3, 3
1, 0
1, 2
2, 4
1, 2
1, 2
0, 1
1, 1
2, 1
2, 3
1, 1
4, 3
3, 2
3, 3
1, 1
2, 2
1, 3
4, 1
2, 1
1, 1
2, 3
1, 1
5, 1
1, 2
1, 1
2, 2
1, 5
5, 5
4, 3
8, 3
2, 3
4, 8
5, 6
4, 8
6, 8
2, 3
1, 2
9, 3
3, 1
6, 1
5, 2
0, 1
4, 1
0, 2
1, 0
1, 1
2, 3
3, 2
3, 0
2, 2
1, 2
4, 1
3, 2
1, 2
3, 0
2, 3
1, 2
2, 3
1, 0
1, 1
2, 2
1, 2
1, 0
0, 0
1, 1
0, 2
2, 2
1, 2
2, 1
1, 2
1, 1
1, 2
1, 1
1, 3
1, 3
1, 3
0, 2
0, 2
0, 3
1, 1
0, 4
1, 1
2, 1
2, 0
1, 0
1, 3
2, 1
1, 0
0, 0
5, 0
0, 1
0, 2
0, 0
2, 1
1, 0
2, 0
0, 2
0, 0
3, 1
0, 0
1, 2
1, 0
1, 2
3, 2
1, 2
3, 1
1, 0
1, 1
1, 2
0, 0
1, 0
0, 0
5, 0
3, 1
0, 0
2, 0
0, 1
0, 0
1, 1
2, 1
2, 1
0, 1
0, 1
3, 1
0, 0
2, 1
2, 1
0, 0
0, 1
2, 2
1, 0
1, 0
1, 0
0, 0
0, 1
0, 1
3, 0
2, 0
2, 0
0, 2
0, 1
2, 0
2, 2
0, 0
0, 1
0, 0
0, 0
0, 1
1, 1
0, 0
1, 0
0, 0
1, 1
0, 1
1, 0
0, 0
0, 0
0, 0
2, 1
1, 0
0, 0
3, 2
1, 0
0, 1
1, 1
0, 0
0, 0
2, 1
0, 0
0, 1
0, 0
1, 1
0, 0
0, 0
1, 0
0, 1
0, 0
1, 1
1, 0
0, 1
1, 0
0, 1
0, 0
0, 2
0, 1
0, 1
1, 1
1, 0
0, 0
0, 0
0, 1
0, 1
0, 1
1, 1
0, 0
1, 0
0, 0
0, 0
0, 0
1, 0
0, 0
0, 0
0, 1
1, 0
1, 3
0, 0
0, 1
0, 0
1, 1
1, 1
0, 0
0, 0
1, 0
0, 0
1, 0
0, 0
2, 0
0, 0
0, 1
1, 0
0, 0
0, 0
0, 0
0, 0
0, 1
0, 0
0, 0
1, 1
0, 0
0, 0
0, 0
1, 0
0, 0
0, 0
0, 0
0, 0
0, 0
0, 0
0, 0
0, 0
0, 0
0, 0
0, 0
0, 0
0, 0
0, 0
0, 1
1, 1
0, 0
0, 0
0, 0
1, 0
0, 0
0, 0
0, 0
0, 0
0, 0
2, 0
0, 2
0, 0
1, 0
0, 0
0, 0
0, 0
1, 0
1, 1
0, 0
0, 0
1, 0
0, 0
0, 1
0, 0
0, 1
0, 1
0, 0
0, 0
0, 0
0, 0
0, 1
0, 0
0, 0
0, 1
1, 0
0, 1
1, 0
0, 0
0, 0
0, 0
0, 0
0, 0
1, 0
0, 1
0, 0
0, 0
0, 0
2, 0
0, 0
0, 0
1, 0
1, 1
0, 0
1, 1
0, 0
0, 0
0, 1
0, 1
0, 0
0, 0
0, 0
0, 0
1, 0
0, 0
0, 0
0, 0
0, 0
0, 0
0, 0
0, 0
0, 0
1, 1
0, 0
1, 0
0, 0
0, 0
0, 0
0, 0
0, 0
0, 0
0, 0
1, 0
0, 1
0, 0
0, 0
0, 0
0, 0
0, 0
0, 0
1, 0
0, 0
0, 0
0, 0
0, 0
0, 0
0, 0
0, 0
0, 0
0, 1
1, 0
0, 1
0, 1
0, 0
0, 0
0, 0
0, 0
0, 0
0, 0
0, 0
0, 0
0, 0
0, 0
0, 0
0, 0
0, 0
0, 0
2, 0
1, 0
0, 0
2, 0
0, 0
0, 0
0, 0
0, 0
0, 0
0, 1
0, 0
0, 0
0, 0
0, 1
0, 0
0, 0
0, 0
1, 0
0, 0
0, 0
0, 0
0, 0
0, 1
0, 0
0, 0
0, 0
0, 0
0, 0
1, 0
0, 0
0, 0
0, 0
0, 0
0, 0
0, 0
0, 0
0, 0
0, 0
0, 0
0, 1
0, 0
0, 0
0, 0
0, 0
0, 0
0, 0
0, 0
0, 0
1, 0
0, 0
0, 0
0, 0
0, 0
1, 0
0, 0
0, 0
1, 0
0, 0
0, 0
0, 0
0, 0
0, 0
0, 0
0, 0
0, 0
0, 0
0, 0
0, 0
0, 0
0, 0
0, 0
0, 0
0, 0
0, 0
0, 0
0, 0
0, 0
0, 0
0, 0
0, 0
0, 0
0, 0
0, 0
0, 1
0, 0
1, 0
0, 0
0, 0
0, 0
0, 0
0, 0
0, 0
0, 0
0, 0
0, 0
0, 0
0, 0
0, 0
0, 0
0, 0
0, 0
0, 0
0, 0
0, 0
0, 0
0, 0
0, 0
0, 0
0, 0
0, 0
0, 0
0, 0
0, 0
0, 0
0, 0
0, 0
0, 0
0, 0
0, 0
0, 0
0, 0
0, 0
0, 0
0, 0
0, 0
0, 0
1, 0
0, 0
0, 0
0, 0
0, 0
0, 0
0, 0
0, 0
0, 0
0, 0
0, 0
0, 0
0, 0
0, 0
0, 0
0, 0
0, 0
0, 0
0, 0
0, 0
0, 0
0, 0
0, 0
0, 0
0, 0
0, 0
0, 0
0, 0
0, 0
0, 0
0, 0
0, 0
0, 0
0, 0
0, 0
0, 0
0, 0
0, 0
0, 0
0, 0
0, 0
0, 0
0, 0
0, 0
0, 0
0, 0
0, 0
0, 0
0, 0
0, 0
0, 0
0, 0
0, 0
0, 0
0, 0
0, 0
0, 0
0, 0
0, 0
0, 0
0, 0
0, 0
0, 0
0, 0
0, 0
0, 0
0, 0
0, 0
0, 0
0, 0
0, 0
0, 0
0, 0
0, 0
0, 0
0, 0
0, 0
0, 0
0, 0
0, 0
0, 0
0, 0
0, 0
0, 0
0, 0
0, 0
0, 0
0, 0
0, 0
0, 0
0, 0
0, 0
0, 0
0, 0
0, 0
0, 0
0, 0
0, 0
0, 0
0, 0
0, 0
0, 0
0, 0
0, 0
0, 0
0, 0
0, 0
0, 0
0, 0
0, 0
0, 0
0, 0
0, 0
0, 0
0, 0
0, 0
0, 0
0, 0
0, 0
0, 0
0, 1
0, 0
0, 0
0, 0
0, 0
0, 0
0, 0
0, 0
0, 0
0, 0
0, 0
0, 0
0, 0
0, 0
0, 0
0, 0
0, 0
0, 0
0, 0
0, 0
0, 0
0, 0
0, 0
0, 0
0, 0
0, 0
0, 0
0, 0
0, 0
0, 0
0, 0
0, 0
0, 0
0, 0
0, 0
0, 0
0, 0
0, 0
0, 0
0, 0
0, 0
0, 0
0, 0
0, 0
0, 0
0, 0
0, 0
0, 0
0, 0
0, 0
0, 0
0, 0
0, 0
0, 0
0, 0
0, 0
0, 0
0, 0
0, 0
0, 0
0, 0
0, 0
0, 0
0, 0
0, 0
0, 0
0, 0
0, 0
0, 0
0, 0
0, 0
0, 0
0, 0
0, 0
0, 0
0, 0
0, 0
0, 0
0, 0
0, 0
0, 0
0, 0
0, 0
0, 0
0, 0
0, 0
0, 0
0, 0
0, 0
0, 0
0, 0
0, 0
0, 0
0, 0
0, 0
0, 0
0, 0
0, 0
0, 0
0, 0
0, 0
0, 0
0, 0
0, 0
0, 0
0, 0
0, 0
0, 0
0, 0
0, 0
0, 0
0, 0
0, 0
0, 0
0, 0
0, 0
0, 0
0, 0
0, 0
0, 0
0, 0
0, 0
0, 0
0, 0
0, 0
0, 0
0, 0
0, 0
0, 0
0, 0
0, 0
0, 0
0, 0
0, 0
0, 0
0, 0
0, 0
0, 0
0, 0
0, 0
0, 0
0, 0
0, 0
0, 0
0, 0
0, 0
0, 0
0, 0
0, 0
0, 0
0, 0
0, 0
0, 0
0, 0
0, 0
0, 0
0, 0
0, 0
0, 0
0, 0
0, 0
0, 0
0, 0
0, 0
0, 0
0, 0
0, 0
0, 0
0, 0
0, 0
0, 0
0, 0
0, 0
0, 0
0, 0
0, 0
0, 0
0, 0
0, 0
0, 0
0, 0
0, 0
0, 0
0, 0
0, 0
0, 0
0, 0
0, 0
0, 0
0, 0
0, 0
0, 0
0, 0
0, 0
0, 0
0, 0
0, 0
0, 0
0, 0
0, 0
0, 0
0, 0
0, 0
0, 0
0, 0
0, 0
0, 0
0, 0
0, 0
0, 0
0, 0
0, 0
0, 0
0, 0
0, 0
0, 0
0, 0
0, 0
0, 0
0, 0
0, 0
0, 0
0, 0
0, 0
0, 0
0, 0
0, 0
0, 0
0, 0
0, 0
0, 0
0, 0
0, 0
0, 0
0, 0
0, 0
0, 0
0, 0
0, 0
0, 0
0, 0
0, 0
0, 0
0, 0
0, 0
#ENDOFDATA     end of spectrum data