File: host_upload/06-09-2024/ps_0852/dump3/ps__0852shot_2259.msa
#FORMAT      : EMSA/MAS spectral data file
#VERSION     : TC202v2.0 PIXL
#TITLE       : N/A
#DATE        :       Date in the format DD-MMM-YYYY, for example 07-JUL-2010
#TIME        :             The time of day at which the spectrum was recorded, in 24-hour format
#OWNER       : PIXL Flight Model       (PIXL will use this to indicate which instrument took the data.)
#NPOINTS     : 4096     Number of data points in the spectrum (This can be zero for configuration only files)
#NCOLUMNS    : 2     Number of data columns in the spectrum (This can be zero for configuration only files)
#XUNITS      : eV
#YUNITS      : COUNTS
#DATATYPE    : YY
#XPERCHAN    : 7.862, 7.881   eV per channel (separate by commas if more than one detector)
#OFFSET      : 18.5, -22.4         eV of first channel  (separate by commas if more than one detector
#SIGNALTYPE  : XRF
#YP_TEMP     : 2.396
#LIVETIME    : 8.5639, 8.57137   seconds (separate by commas if more than one detector)
#REALTIME    : 10, 10.0   seconds (separate by commas if more than one detector)
#SPECTRUM    : start of spectrum data
0, 0
0, 0
0, 0
0, 0
0, 0
0, 0
0, 0
0, 0
0, 0
0, 0
0, 0
0, 0
0, 0
0, 0
0, 0
0, 0
0, 0
0, 0
0, 0
0, 0
0, 0
0, 0
0, 0
0, 0
0, 0
0, 0
0, 0
0, 0
0, 0
0, 0
0, 0
1, 0
0, 0
1, 0
1, 0
1, 1
1, 0
4, 1
10, 0
12, 1
14, 2
8, 2
9, 3
9, 1
6, 3
6, 2
2, 1
3, 6
7, 5
12, 11
19, 33
35, 44
64, 61
77, 69
69, 84
82, 88
74, 56
36, 40
30, 26
15, 12
12, 8
5, 2
2, 3
3, 3
5, 3
3, 3
6, 6
10, 10
17, 26
45, 55
75, 102
173, 173
241, 258
320, 379
367, 409
408, 423
397, 375
306, 287
206, 178
120, 128
75, 62
35, 33
20, 16
6, 8
6, 3
1, 4
4, 3
3, 3
1, 0
2, 2
1, 0
2, 1
1, 2
0, 1
2, 1
4, 5
7, 2
10, 4
3, 7
2, 5
5, 5
6, 2
6, 4
3, 3
7, 0
5, 4
13, 5
22, 10
58, 2
106, 12
195, 14
354, 17
536, 25
747, 36
894, 42
968, 53
1007, 65
848, 52
646, 52
487, 44
322, 28
144, 36
92, 23
39, 25
24, 14
17, 12
17, 9
9, 12
11, 10
8, 7
5, 9
9, 5
3, 3
3, 0
2, 1
3, 1
0, 1
3, 0
1, 1
4, 1
1, 3
0, 2
4, 2
4, 4
2, 3
0, 4
2, 2
2, 0
1, 1
3, 3
4, 4
2, 4
3, 2
4, 7
18, 16
19, 19
15, 17
24, 20
19, 23
20, 23
8, 21
15, 13
4, 8
3, 5
4, 4
7, 10
6, 7
6, 3
5, 3
11, 3
16, 7
12, 3
16, 5
32, 3
44, 3
64, 4
59, 7
55, 3
43, 1
51, 4
48, 3
22, 8
15, 5
21, 2
22, 5
13, 1
16, 5
9, 4
6, 4
7, 10
11, 7
16, 17
12, 17
15, 14
15, 10
12, 17
15, 22
13, 26
13, 41
17, 66
11, 81
12, 82
8, 124
8, 127
9, 116
6, 109
6, 85
4, 59
6, 46
9, 33
3, 31
6, 21
5, 12
7, 7
4, 3
9, 3
4, 9
4, 14
11, 7
9, 2
2, 9
6, 7
5, 8
7, 7
11, 15
10, 15
15, 26
27, 25
28, 17
38, 32
25, 16
37, 38
33, 26
32, 30
44, 30
41, 17
45, 15
45, 10
35, 10
46, 11
30, 11
32, 12
22, 12
30, 10
25, 11
31, 16
34, 40
47, 49
49, 37
57, 63
62, 67
56, 66
54, 69
60, 45
50, 58
44, 48
25, 33
22, 27
27, 35
15, 54
17, 54
23, 78
37, 98
63, 178
146, 277
270, 405
429, 650
730, 985
1035, 1397
1531, 1866
1878, 2243
2227, 2478
2258, 2593
2266, 2344
1993, 1961
1635, 1578
1253, 1210
870, 768
523, 523
337, 314
200, 185
112, 86
53, 50
35, 40
25, 26
20, 21
49, 15
57, 18
77, 18
106, 28
106, 32
127, 47
138, 65
138, 83
193, 109
218, 185
212, 256
286, 292
304, 348
357, 409
334, 354
319, 317
287, 284
246, 201
170, 169
136, 94
68, 61
46, 51
36, 19
26, 9
9, 7
8, 11
10, 4
6, 5
8, 9
12, 8
13, 12
14, 13
10, 21
13, 11
16, 12
10, 8
7, 9
6, 4
5, 7
6, 0
4, 7
3, 3
4, 6
3, 2
3, 3
5, 1
1, 6
2, 3
3, 5
3, 2
3, 9
2, 4
7, 5
1, 2
9, 5
11, 7
6, 5
9, 4
21, 4
18, 2
28, 2
35, 9
33, 7
55, 6
59, 4
61, 4
76, 6
57, 4
54, 3
64, 6
36, 3
34, 3
36, 5
22, 2
15, 6
10, 5
6, 5
5, 5
4, 4
8, 9
7, 4
4, 5
2, 6
5, 4
4, 3
3, 2
6, 2
4, 3
2, 6
2, 2
5, 4
4, 4
5, 7
2, 5
2, 4
6, 1
6, 1
4, 3
5, 6
7, 3
2, 4
7, 6
6, 6
7, 4
6, 4
6, 11
4, 1
4, 9
5, 5
2, 3
4, 3
3, 9
1, 4
4, 4
2, 5
4, 6
3, 8
0, 6
3, 9
3, 9
2, 9
2, 15
2, 11
1, 5
2, 6
4, 7
6, 3
2, 3
1, 6
5, 4
5, 3
2, 9
1, 7
3, 6
0, 2
2, 3
4, 4
0, 6
5, 5
2, 7
4, 2
2, 5
3, 5
7, 3
4, 3
3, 5
5, 6
4, 4
5, 4
0, 3
2, 4
3, 2
3, 3
3, 6
1, 2
1, 2
3, 2
1, 1
2, 2
1, 5
7, 3
3, 2
3, 2
3, 2
2, 3
6, 1
1, 3
1, 4
2, 0
4, 0
6, 6
6, 2
1, 0
3, 3
7, 3
0, 7
5, 3
3, 5
6, 6
7, 5
10, 6
8, 5
5, 6
5, 1
8, 3
7, 2
8, 5
5, 4
7, 4
3, 2
2, 4
2, 1
1, 0
6, 1
0, 1
1, 3
0, 4
2, 6
4, 1
6, 0
2, 4
1, 2
2, 1
6, 1
3, 2
3, 1
3, 4
2, 2
2, 2
1, 1
3, 3
1, 1
2, 4
4, 1
2, 0
5, 5
0, 2
2, 2
2, 1
5, 1
2, 2
1, 0
0, 1
0, 3
1, 1
4, 1
2, 1
1, 0
1, 2
0, 2
2, 0
2, 4
1, 2
0, 4
0, 0
3, 5
5, 2
5, 4
5, 1
4, 3
3, 2
6, 2
3, 0
2, 4
3, 2
9, 8
3, 2
7, 4
2, 2
5, 0
5, 4
3, 3
6, 1
2, 2
1, 6
3, 5
3, 1
5, 3
3, 3
4, 1
4, 1
5, 4
2, 4
1, 5
4, 3
2, 5
0, 1
3, 0
2, 1
1, 3
1, 2
1, 1
2, 0
2, 0
3, 1
3, 1
1, 2
1, 2
0, 2
1, 0
2, 2
0, 3
3, 1
1, 1
1, 3
0, 2
1, 2
0, 1
1, 2
4, 0
3, 0
2, 0
0, 2
5, 1
1, 2
2, 0
0, 1
0, 1
2, 1
2, 1
0, 0
3, 0
0, 1
1, 1
0, 2
2, 1
0, 0
1, 2
2, 2
2, 0
0, 1
2, 0
1, 2
0, 1
0, 0
2, 1
1, 0
2, 1
2, 1
0, 1
1, 2
1, 2
0, 0
0, 0
1, 0
0, 1
0, 1
0, 2
1, 0
1, 3
1, 1
1, 1
4, 0
0, 0
2, 1
2, 2
0, 1
2, 3
1, 0
0, 0
1, 0
1, 0
0, 0
2, 2
2, 1
2, 0
0, 1
1, 0
0, 1
2, 1
1, 0
2, 1
0, 0
0, 0
2, 0
3, 3
0, 0
0, 0
3, 2
0, 0
0, 0
2, 2
0, 0
1, 0
2, 0
1, 0
3, 1
0, 0
1, 0
1, 1
0, 0
1, 1
0, 0
1, 2
2, 2
1, 0
0, 2
1, 0
0, 0
0, 0
0, 0
0, 0
1, 0
1, 0
1, 2
0, 0
0, 0
1, 1
1, 0
0, 1
2, 1
1, 1
1, 1
1, 1
0, 2
2, 1
1, 0
1, 0
0, 1
0, 0
0, 1
0, 0
0, 0
0, 1
0, 1
1, 2
0, 0
0, 1
0, 1
0, 2
1, 1
0, 1
0, 1
0, 1
0, 0
1, 1
0, 1
1, 1
0, 0
0, 0
0, 0
0, 0
1, 0
0, 0
0, 0
1, 0
1, 1
1, 2
1, 0
0, 0
1, 0
0, 2
0, 0
0, 0
0, 1
0, 0
0, 0
0, 0
0, 0
0, 0
0, 0
0, 1
0, 0
0, 1
0, 0
0, 0
0, 0
0, 0
1, 0
0, 0
0, 0
0, 0
0, 0
1, 0
1, 0
0, 0
0, 0
0, 0
0, 0
0, 0
0, 0
0, 0
0, 0
1, 0
0, 1
0, 0
0, 0
0, 1
0, 0
0, 0
1, 0
1, 0
0, 1
0, 1
0, 0
0, 0
0, 0
0, 0
0, 1
0, 0
0, 0
1, 0
0, 0
0, 0
0, 0
1, 1
0, 0
0, 1
0, 1
0, 0
0, 0
1, 0
0, 0
0, 1
0, 0
2, 0
0, 2
2, 0
0, 0
0, 0
0, 0
1, 0
0, 0
0, 1
0, 0
0, 0
0, 0
1, 1
0, 0
1, 0
0, 0
0, 0
0, 1
0, 0
1, 0
0, 1
0, 0
0, 0
0, 0
0, 0
0, 0
0, 0
1, 0
1, 0
0, 2
1, 0
0, 0
0, 1
0, 0
0, 0
0, 0
0, 0
1, 0
0, 0
0, 0
0, 0
0, 0
0, 0
0, 0
0, 0
0, 0
0, 0
0, 1
1, 1
0, 0
0, 0
0, 0
0, 0
0, 0
0, 0
0, 0
0, 0
0, 1
0, 0
0, 0
0, 0
0, 0
0, 0
0, 0
0, 0
0, 0
0, 0
0, 0
0, 0
0, 0
0, 1
0, 1
0, 0
0, 0
0, 0
0, 0
0, 0
0, 0
0, 0
0, 0
0, 0
0, 0
0, 0
1, 0
0, 0
0, 0
0, 0
0, 0
0, 0
0, 0
0, 0
1, 0
1, 0
0, 0
0, 0
0, 0
0, 0
0, 0
0, 0
0, 0
0, 0
0, 0
0, 1
0, 0
0, 0
0, 0
1, 0
0, 0
0, 0
0, 0
0, 0
0, 0
0, 1
0, 0
0, 0
0, 0
0, 0
0, 0
0, 0
0, 0
0, 0
0, 0
0, 0
0, 0
0, 0
0, 0
0, 0
0, 0
0, 0
0, 0
0, 0
0, 0
0, 0
1, 0
0, 0
0, 0
0, 0
0, 0
0, 0
0, 0
0, 0
0, 0
0, 0
0, 0
0, 0
0, 0
0, 0
0, 0
0, 0
0, 0
0, 0
0, 0
0, 0
0, 0
0, 0
0, 0
0, 0
0, 0
0, 0
0, 0
0, 0
0, 0
0, 0
0, 0
0, 0
0, 0
0, 0
0, 0
0, 0
0, 0
0, 0
0, 0
0, 0
0, 0
0, 0
0, 0
0, 0
0, 0
0, 0
0, 0
0, 0
0, 0
0, 0
0, 0
0, 0
0, 0
0, 0
0, 0
0, 0
0, 0
0, 0
0, 0
0, 0
0, 0
0, 0
0, 0
0, 0
0, 0
0, 1
0, 0
0, 0
0, 0
0, 0
0, 0
0, 0
0, 0
0, 0
0, 0
1, 0
0, 0
0, 0
0, 0
0, 0
0, 0
0, 0
0, 0
0, 0
0, 0
0, 0
0, 0
0, 0
0, 0
0, 0
0, 0
0, 0
0, 0
0, 0
0, 0
0, 0
0, 0
0, 0
0, 0
0, 0
0, 0
0, 0
0, 0
0, 0
0, 0
0, 0
0, 0
0, 0
0, 0
0, 0
0, 0
0, 0
0, 0
0, 0
0, 0
0, 0
0, 0
0, 0
0, 0
0, 0
0, 0
0, 0
0, 0
0, 0
0, 0
0, 0
0, 0
0, 0
0, 0
0, 0
0, 0
0, 0
0, 0
0, 0
0, 0
0, 0
0, 0
0, 0
0, 0
0, 0
0, 0
0, 0
0, 0
0, 0
0, 0
0, 0
0, 0
0, 0
0, 0
0, 0
0, 0
0, 0
0, 0
0, 0
0, 0
0, 0
0, 0
0, 0
0, 0
0, 0
0, 0
0, 0
0, 0
0, 0
0, 0
0, 0
0, 0
0, 0
0, 0
0, 0
0, 0
0, 0
0, 0
0, 0
0, 0
0, 0
0, 0
0, 0
0, 0
0, 0
0, 0
0, 0
0, 0
0, 1
0, 0
0, 0
0, 0
0, 0
0, 0
0, 0
0, 0
0, 0
0, 0
0, 0
0, 0
0, 0
0, 0
0, 0
0, 0
0, 0
0, 0
0, 0
0, 0
0, 0
0, 0
0, 0
0, 0
0, 0
0, 0
0, 0
0, 0
0, 0
0, 0
0, 0
0, 0
0, 0
0, 0
0, 0
0, 0
0, 0
0, 0
0, 0
0, 0
0, 0
0, 0
0, 0
0, 0
0, 0
0, 0
0, 0
0, 0
0, 0
0, 0
0, 0
0, 0
0, 0
0, 0
0, 0
0, 0
0, 0
1, 0
0, 0
0, 0
0, 0
0, 0
0, 0
0, 0
0, 0
0, 0
0, 0
0, 0
0, 0
0, 0
0, 0
0, 0
0, 0
0, 0
0, 0
0, 0
0, 0
0, 0
0, 0
0, 0
0, 0
0, 0
0, 0
0, 0
0, 0
0, 0
0, 0
0, 0
0, 0
0, 0
0, 0
0, 0
0, 0
0, 0
0, 0
0, 0
0, 0
0, 0
0, 0
0, 0
0, 0
0, 0
0, 0
0, 0
0, 0
0, 0
0, 0
0, 0
0, 0
0, 0
0, 0
0, 0
0, 0
0, 0
0, 0
0, 0
0, 0
0, 0
0, 0
0, 0
0, 0
0, 0
0, 0
0, 0
0, 0
0, 0
0, 0
0, 0
0, 0
0, 0
0, 0
0, 0
0, 0
0, 0
0, 0
0, 0
0, 0
0, 0
0, 0
0, 0
0, 0
0, 0
0, 0
0, 0
0, 0
0, 0
0, 0
0, 0
0, 0
0, 0
0, 0
0, 0
0, 0
0, 0
0, 0
0, 0
0, 0
0, 0
0, 0
0, 0
0, 0
0, 0
0, 0
0, 0
0, 0
0, 0
0, 0
0, 0
0, 0
0, 0
0, 0
0, 0
0, 0
0, 0
0, 0
0, 0
0, 0
0, 0
0, 0
0, 0
0, 0
0, 0
0, 0
0, 0
0, 0
0, 0
0, 0
0, 0
0, 0
0, 0
0, 0
0, 0
0, 0
0, 0
0, 0
0, 0
0, 0
0, 0
0, 0
0, 0
0, 0
0, 0
0, 0
0, 0
0, 0
0, 0
0, 0
0, 0
0, 0
0, 0
0, 0
0, 0
0, 0
0, 0
0, 0
0, 0
0, 0
0, 0
0, 0
0, 0
0, 0
0, 0
0, 0
0, 0
0, 0
0, 0
0, 0
0, 0
0, 0
0, 0
0, 0
0, 0
0, 0
0, 0
0, 0
0, 0
0, 0
0, 0
0, 0
0, 0
0, 0
0, 0
0, 0
0, 0
0, 0
0, 0
0, 0
0, 0
0, 0
0, 0
0, 0
0, 0
0, 0
0, 0
0, 0
0, 0
0, 0
0, 0
0, 0
0, 0
0, 0
0, 0
0, 0
0, 0
0, 0
0, 0
0, 0
0, 0
0, 0
#ENDOFDATA     end of spectrum data